IPosition2,IPosition3,IPosition1,IPosition6,IPosition4,IPosition5,TrialsF1.thisRepN,TrialsF1.thisTrialN,TrialsF1.thisN,TrialsF1.thisIndex,TrialsM1.thisRepN,TrialsM1.thisTrialN,TrialsM1.thisN,TrialsM1.thisIndex,TrialsF2.thisRepN,TrialsF2.thisTrialN,TrialsF2.thisN,TrialsF2.thisIndex,TrialsM2.thisRepN,TrialsM2.thisTrialN,TrialsM2.thisN,TrialsM2.thisIndex,TrialsF3.thisRepN,TrialsF3.thisTrialN,TrialsF3.thisN,TrialsF3.thisIndex,TrialsM3.thisRepN,TrialsM3.thisTrialN,TrialsM3.thisN,TrialsM3.thisIndex,InstrKey_resp.keys,InstrKey_resp.rt,Image0 _Position,Image1 _Position,Image2 _Position,Image3 _Position,Center_image,condition,code,correct_answer,accuracy,Key_Resp.keys,Key_Resp.rt,BreakKey_resp.keys,BreakKey_resp.rt,date,frameRate,expName,session,participant,
,,,,,,,,,,,,,,,,,,,,,,,,,,,,,,space,25.2986270078,,,,,,,,,,,,,,2017_Jul_24_1153,60.008603469,FEMA4ImagesEEG,001,101057,
AFSA25.JPG,AFNE24.JPG,AFSA24.JPG,AFNE21.JPG,AFSA21.JPG,AFNE25.JPG,0,0,0,2,,,,,,,,,,,,,,,,,,,,,,,AFNE02.jpg,AFSA06.jpg,AFNE06.jpg,AFSA16.jpg,AFNE06.jpg,FN,3,num_2,32,num_4,2.16666875139,,,2017_Jul_24_1153,60.008603469,FEMA4ImagesEEG,001,101057,
AFSA21.JPG,AFNE22.JPG,AFNE21.JPG,AFSA23.JPG,AFSA22.JPG,AFNE23.JPG,0,1,1,0,,,,,,,,,,,,,,,,,,,,,,,AFSA02.jpg,AFSA12.jpg,AFNE04.jpg,AFNE12.jpg,AFSA12.jpg,FS,4,num_6,16,num_6,0.750112339272,,,2017_Jul_24_1153,60.008603469,FEMA4ImagesEEG,001,101057,
AMNE22.JPG,AMSA24.JPG,AMSA22.JPG,AMNE25.JPG,AMNE24.JPG,AMSA25.JPG,0,2,2,7,,,,,,,,,,,,,,,,,,,,,,,AFNE19.jpg,AFSA15.jpg,AFSA16.jpg,AFNE10.jpg,AFNE10.jpg,FN,3,num_4,16,num_4,0.9334829906,,,2017_Jul_24_1153,60.008603469,FEMA4ImagesEEG,001,101057,
AFSA21.JPG,AFNE23.JPG,AFNE21.JPG,AFSA25.JPG,AFNE25.JPG,AFSA23.JPG,0,3,3,4,,,,,,,,,,,,,,,,,,,,,,,AFSA06.jpg,AFSA07.jpg,AFNE09.jpg,AFNE15.jpg,AFSA06.jpg,FS,4,num_8,16,num_8,0.733432249515,,,2017_Jul_24_1153,60.008603469,FEMA4ImagesEEG,001,101057,
AMNE23.JPG,AMNE24.JPG,AMNE22.JPG,AMSA24.JPG,AMSA22.JPG,AMSA23.JPG,0,4,4,9,,,,,,,,,,,,,,,,,,,,,,,AFSA08.jpg,AFNE03.jpg,AFNE20.jpg,AFSA10.jpg,AFSA10.jpg,FS,4,num_4,32,num_8,1.10026592563,,,2017_Jul_24_1153,60.008603469,FEMA4ImagesEEG,001,101057,
AMSA21.JPG,AMNE23.JPG,AMNE21.JPG,AMSA25.JPG,AMNE25.JPG,AMSA23.JPG,0,5,5,5,,,,,,,,,,,,,,,,,,,,,,,AFNE02.jpg,AFNE04.jpg,AFSA20.jpg,AFSA17.jpg,AFSA20.jpg,FS,4,num_2,16,num_2,0.766780240694,,,2017_Jul_24_1153,60.008603469,FEMA4ImagesEEG,001,101057,
AMSA25.JPG,AMNE24.JPG,AMSA24.JPG,AMNE26.JPG,AMSA21.JPG,AMNE25.JPG,0,6,6,3,,,,,,,,,,,,,,,,,,,,,,,AFSA15.jpg,AFSA01.jpg,AFNE04.jpg,AFNE13.jpg,AFSA01.jpg,FS,4,num_6,32,num_8,1.75016943098,,,2017_Jul_24_1153,60.008603469,FEMA4ImagesEEG,001,101057,
AFNE22.JPG,AFSA24.JPG,AFSA22.JPG,AFNE25.JPG,AFNE24.JPG,AFSA25.JPG,0,7,7,6,,,,,,,,,,,,,,,,,,,,,,,AFNE05.jpg,AFSA18.jpg,AFSA05.jpg,AFNE09.jpg,AFSA05.jpg,FS,4,num_2,16,num_2,0.766632700339,,,2017_Jul_24_1153,60.008603469,FEMA4ImagesEEG,001,101057,
AMSA21.JPG,AMNE22.JPG,AMNE21.JPG,AMSA23.JPG,AMSA22.JPG,AMNE23.JPG,0,8,8,1,,,,,,,,,,,,,,,,,,,,,,,AFNE01.jpg,AFNE06.jpg,AFSA20.jpg,AFSA04.jpg,AFNE01.jpg,FN,3,num_8,16,num_8,1.11678821116,,,2017_Jul_24_1153,60.008603469,FEMA4ImagesEEG,001,101057,
AFNE23.JPG,AFNE24.JPG,AFNE22.JPG,AFSA24.JPG,AFSA22.JPG,AFSA23.JPG,0,9,9,8,,,,,,,,,,,,,,,,,,,,,,,AFSA03.jpg,AFNE12.jpg,AFSA18.jpg,AFNE06.jpg,AFNE06.jpg,FN,3,num_4,16,num_4,0.816753474995,,,2017_Jul_24_1153,60.008603469,FEMA4ImagesEEG,001,101057,
AFSA21.JPG,AFNE22.JPG,AFNE21.JPG,AFSA23.JPG,AFSA22.JPG,AFNE23.JPG,,,,,0,0,0,0,,,,,,,,,,,,,,,,,,,AMNE07.jpg,AMNE04.jpg,AMSA02.jpg,AMSA13.jpg,AMNE04.jpg,MN,1,num_6,16,num_6,0.850156312692,,,2017_Jul_24_1153,60.008603469,FEMA4ImagesEEG,001,101057,
AMSA21.JPG,AMNE23.JPG,AMNE21.JPG,AMSA25.JPG,AMNE25.JPG,AMSA23.JPG,,,,,0,1,1,5,,,,,,,,,,,,,,,,,,,AMNE03.jpg,AMNE14.jpg,AMSA08.jpg,AMSA15.jpg,AMSA08.jpg,MS,2,num_2,16,num_2,2.91655849712,,,2017_Jul_24_1153,60.008603469,FEMA4ImagesEEG,001,101057,
AMSA21.JPG,AMNE22.JPG,AMNE21.JPG,AMSA23.JPG,AMSA22.JPG,AMNE23.JPG,,,,,0,2,2,1,,,,,,,,,,,,,,,,,,,AMSA07.jpg,AMSA16.jpg,AMNE04.jpg,AMNE17.jpg,AMNE04.jpg,MN,1,num_2,32,num_4,1.03347981535,,,2017_Jul_24_1153,60.008603469,FEMA4ImagesEEG,001,101057,
AMNE23.JPG,AMNE24.JPG,AMNE22.JPG,AMSA24.JPG,AMSA22.JPG,AMSA23.JPG,,,,,0,3,3,9,,,,,,,,,,,,,,,,,,,AMNE03.jpg,AMSA18.jpg,AMSA10.jpg,AMNE15.jpg,AMNE03.jpg,MN,1,num_8,32,num_2,1.10012223409,,,2017_Jul_24_1153,60.008603469,FEMA4ImagesEEG,001,101057,
AFSA25.JPG,AFNE24.JPG,AFSA24.JPG,AFNE21.JPG,AFSA21.JPG,AFNE25.JPG,,,,,0,4,4,2,,,,,,,,,,,,,,,,,,,AMSA15.jpg,AMSA11.jpg,AMNE07.jpg,AMNE15.jpg,AMNE15.jpg,MN,1,num_4,16,num_4,1.13307026238,,,2017_Jul_24_1153,60.008603469,FEMA4ImagesEEG,001,101057,
AFSA21.JPG,AFNE23.JPG,AFNE21.JPG,AFSA25.JPG,AFNE25.JPG,AFSA23.JPG,,,,,0,5,5,4,,,,,,,,,,,,,,,,,,,AMNE18.jpg,AMSA08.jpg,AMNE20.jpg,AMSA11.jpg,AMSA11.jpg,MS,2,num_4,16,num_4,1.44989895087,,,2017_Jul_24_1153,60.008603469,FEMA4ImagesEEG,001,101057,
AMSA25.JPG,AMNE24.JPG,AMSA24.JPG,AMNE26.JPG,AMSA21.JPG,AMNE25.JPG,,,,,0,6,6,3,,,,,,,,,,,,,,,,,,,AMSA09.jpg,AMSA02.jpg,AMNE15.jpg,AMNE02.jpg,AMNE02.jpg,MN,1,num_4,32,num_6,0.750126131112,,,2017_Jul_24_1153,60.008603469,FEMA4ImagesEEG,001,101057,
AFNE22.JPG,AFSA24.JPG,AFSA22.JPG,AFNE25.JPG,AFNE24.JPG,AFSA25.JPG,,,,,0,7,7,6,,,,,,,,,,,,,,,,,,,AMNE08.jpg,AMSA03.jpg,AMSA15.jpg,AMNE17.jpg,AMNE17.jpg,MN,1,num_4,32,num_8,1.28339538048,,,2017_Jul_24_1153,60.008603469,FEMA4ImagesEEG,001,101057,
AFNE23.JPG,AFNE24.JPG,AFNE22.JPG,AFSA24.JPG,AFSA22.JPG,AFSA23.JPG,,,,,0,8,8,8,,,,,,,,,,,,,,,,,,,AMSA15.jpg,AMNE09.jpg,AMSA10.jpg,AMNE01.jpg,AMSA10.jpg,MS,2,num_2,16,num_2,0.916775317397,,,2017_Jul_24_1153,60.008603469,FEMA4ImagesEEG,001,101057,
AMNE22.JPG,AMSA24.JPG,AMSA22.JPG,AMNE25.JPG,AMNE24.JPG,AMSA25.JPG,,,,,0,9,9,7,,,,,,,,,,,,,,,,,,,AMNE16.jpg,AMSA07.jpg,AMSA18.jpg,AMNE07.jpg,AMSA07.jpg,MS,2,num_6,16,num_6,0.683436884312,,,2017_Jul_24_1153,60.008603469,FEMA4ImagesEEG,001,101057,
AMNE22.JPG,AMSA24.JPG,AMSA22.JPG,AMNE25.JPG,AMNE24.JPG,AMSA25.JPG,,,,,,,,,0,0,0,7,,,,,,,,,,,,,,,AFSA20.jpg,AFNE06.jpg,AFNE07.jpg,AFSA16.jpg,AFNE07.jpg,FN,3,num_2,32,num_8,0.750152431778,,,2017_Jul_24_1153,60.008603469,FEMA4ImagesEEG,001,101057,
AMSA21.JPG,AMNE23.JPG,AMNE21.JPG,AMSA25.JPG,AMNE25.JPG,AMSA23.JPG,,,,,,,,,0,1,1,5,,,,,,,,,,,,,,,AFSA11.jpg,AFSA12.jpg,AFNE08.jpg,AFNE11.jpg,AFNE08.jpg,FN,3,num_2,16,num_2,1.00012444716,,,2017_Jul_24_1153,60.008603469,FEMA4ImagesEEG,001,101057,
AFSA25.JPG,AFNE24.JPG,AFSA24.JPG,AFNE21.JPG,AFSA21.JPG,AFNE25.JPG,,,,,,,,,0,2,2,2,,,,,,,,,,,,,,,AFSA03.jpg,AFNE06.jpg,AFNE15.jpg,AFSA12.jpg,AFSA03.jpg,FS,4,num_8,16,num_8,1.20008698467,,,2017_Jul_24_1153,60.008603469,FEMA4ImagesEEG,001,101057,
AMSA21.JPG,AMNE22.JPG,AMNE21.JPG,AMSA23.JPG,AMSA22.JPG,AMNE23.JPG,,,,,,,,,0,3,3,1,,,,,,,,,,,,,,,AFNE16.jpg,AFSA11.jpg,AFNE10.jpg,AFSA17.jpg,AFSA11.jpg,FS,4,num_6,32,num_4,0.850123917917,,,2017_Jul_24_1153,60.008603469,FEMA4ImagesEEG,001,101057,
AFSA21.JPG,AFNE22.JPG,AFNE21.JPG,AFSA23.JPG,AFSA22.JPG,AFNE23.JPG,,,,,,,,,0,4,4,0,,,,,,,,,,,,,,,AFSA12.jpg,AFNE06.jpg,AFNE09.jpg,AFSA20.jpg,AFSA12.jpg,FS,4,num_8,32,num_2,1.25013944169,,,2017_Jul_24_1153,60.008603469,FEMA4ImagesEEG,001,101057,
AFNE22.JPG,AFSA24.JPG,AFSA22.JPG,AFNE25.JPG,AFNE24.JPG,AFSA25.JPG,,,,,,,,,0,5,5,6,,,,,,,,,,,,,,,AFSA15.jpg,AFNE13.jpg,AFNE15.jpg,AFSA10.jpg,AFNE13.jpg,FN,3,num_6,16,num_6,0.683438808774,,,2017_Jul_24_1153,60.008603469,FEMA4ImagesEEG,001,101057,
AFNE23.JPG,AFNE24.JPG,AFNE22.JPG,AFSA24.JPG,AFSA22.JPG,AFSA23.JPG,,,,,,,,,0,6,6,8,,,,,,,,,,,,,,,AFSA15.jpg,AFSA07.jpg,AFNE02.jpg,AFNE09.jpg,AFNE09.jpg,FN,3,num_4,16,num_4,0.966721288743,,,2017_Jul_24_1153,60.008603469,FEMA4ImagesEEG,001,101057,
AMSA25.JPG,AMNE24.JPG,AMSA24.JPG,AMNE26.JPG,AMSA21.JPG,AMNE25.JPG,,,,,,,,,0,7,7,3,,,,,,,,,,,,,,,AFSA13.jpg,AFNE12.jpg,AFSA12.jpg,AFNE07.jpg,AFNE07.jpg,FN,3,num_4,32,num_2,1.45020621992,,,2017_Jul_24_1153,60.008603469,FEMA4ImagesEEG,001,101057,
AMNE23.JPG,AMNE24.JPG,AMNE22.JPG,AMSA24.JPG,AMSA22.JPG,AMSA23.JPG,,,,,,,,,0,8,8,9,,,,,,,,,,,,,,,AFNE17.jpg,AFSA09.jpg,AFNE16.jpg,AFSA04.jpg,AFSA09.jpg,FS,4,num_6,32,num_4,0.850118786097,,,2017_Jul_24_1153,60.008603469,FEMA4ImagesEEG,001,101057,
AFSA21.JPG,AFNE23.JPG,AFNE21.JPG,AFSA25.JPG,AFNE25.JPG,AFSA23.JPG,,,,,,,,,0,9,9,4,,,,,,,,,,,,,,,AFSA17.jpg,AFNE03.jpg,AFSA19.jpg,AFNE01.jpg,AFNE01.jpg,FN,3,num_4,32,num_2,1.13347567781,,,2017_Jul_24_1153,60.008603469,FEMA4ImagesEEG,001,101057,
AMSA21.JPG,AMNE23.JPG,AMNE21.JPG,AMSA25.JPG,AMNE25.JPG,AMSA23.JPG,,,,,,,,,,,,,0,0,0,5,,,,,,,,,,,AMSA08.jpg,AMNE02.jpg,AMNE03.jpg,AMSA07.jpg,AMSA07.jpg,MS,2,num_4,16,num_4,0.750120357727,,,2017_Jul_24_1153,60.008603469,FEMA4ImagesEEG,001,101057,
AFSA21.JPG,AFNE22.JPG,AFNE21.JPG,AFSA23.JPG,AFSA22.JPG,AFNE23.JPG,,,,,,,,,,,,,0,1,1,0,,,,,,,,,,,AMNE02.jpg,AMSA15.jpg,AMSA05.jpg,AMNE03.jpg,AMSA05.jpg,MS,2,num_2,16,num_2,1.78337918315,,,2017_Jul_24_1153,60.008603469,FEMA4ImagesEEG,001,101057,
AMNE22.JPG,AMSA24.JPG,AMSA22.JPG,AMNE25.JPG,AMNE24.JPG,AMSA25.JPG,,,,,,,,,,,,,0,2,2,7,,,,,,,,,,,AMNE02.jpg,AMNE04.jpg,AMSA15.jpg,AMSA10.jpg,AMSA15.jpg,MS,2,num_2,16,num_2,0.666742681991,,,2017_Jul_24_1153,60.008603469,FEMA4ImagesEEG,001,101057,
AFNE23.JPG,AFNE24.JPG,AFNE22.JPG,AFSA24.JPG,AFSA22.JPG,AFSA23.JPG,,,,,,,,,,,,,0,3,3,8,,,,,,,,,,,AMNE06.jpg,AMNE05.jpg,AMSA04.jpg,AMSA06.jpg,AMNE06.jpg,MN,1,num_8,16,num_8,0.750065190485,,,2017_Jul_24_1153,60.008603469,FEMA4ImagesEEG,001,101057,
AMNE23.JPG,AMNE24.JPG,AMNE22.JPG,AMSA24.JPG,AMSA22.JPG,AMSA23.JPG,,,,,,,,,,,,,0,4,4,9,,,,,,,,,,,AMNE10.jpg,AMSA04.jpg,AMSA08.jpg,AMNE08.jpg,AMSA04.jpg,MS,2,num_6,16,num_6,2.36665213713,,,2017_Jul_24_1153,60.008603469,FEMA4ImagesEEG,001,101057,
AFNE22.JPG,AFSA24.JPG,AFSA22.JPG,AFNE25.JPG,AFNE24.JPG,AFSA25.JPG,,,,,,,,,,,,,0,5,5,6,,,,,,,,,,,AMSA03.jpg,AMNE02.jpg,AMSA04.jpg,AMNE12.jpg,AMNE12.jpg,MN,1,num_4,32,num_8,1.93347176479,,,2017_Jul_24_1153,60.008603469,FEMA4ImagesEEG,001,101057,
AFSA25.JPG,AFNE24.JPG,AFSA24.JPG,AFNE21.JPG,AFSA21.JPG,AFNE25.JPG,,,,,,,,,,,,,0,6,6,2,,,,,,,,,,,AMNE02.jpg,AMSA14.jpg,AMNE14.jpg,AMSA20.jpg,AMSA20.jpg,MS,2,num_4,32,num_6,0.83345537493,,,2017_Jul_24_1153,60.008603469,FEMA4ImagesEEG,001,101057,
AMSA21.JPG,AMNE22.JPG,AMNE21.JPG,AMSA23.JPG,AMSA22.JPG,AMNE23.JPG,,,,,,,,,,,,,0,7,7,1,,,,,,,,,,,AMNE04.jpg,AMSA12.jpg,AMNE19.jpg,AMSA03.jpg,AMNE04.jpg,MN,1,num_8,16,num_8,1.16668542987,,,2017_Jul_24_1153,60.008603469,FEMA4ImagesEEG,001,101057,
AFSA21.JPG,AFNE23.JPG,AFNE21.JPG,AFSA25.JPG,AFNE25.JPG,AFSA23.JPG,,,,,,,,,,,,,0,8,8,4,,,,,,,,,,,AMSA05.jpg,AMSA19.jpg,AMNE14.jpg,AMNE12.jpg,AMNE12.jpg,MN,1,num_4,32,num_2,1.45016035403,,,2017_Jul_24_1153,60.008603469,FEMA4ImagesEEG,001,101057,
AMSA25.JPG,AMNE24.JPG,AMSA24.JPG,AMNE26.JPG,AMSA21.JPG,AMNE25.JPG,,,,,,,,,,,,,0,9,9,3,,,,,,,,,,,AMSA02.jpg,AMNE17.jpg,AMNE01.jpg,AMSA01.jpg,AMNE01.jpg,MN,1,num_2,32,num_6,0.86676712241,,,2017_Jul_24_1153,60.008603469,FEMA4ImagesEEG,001,101057,
AFSA21.JPG,AFNE22.JPG,AFNE21.JPG,AFSA23.JPG,AFSA22.JPG,AFNE23.JPG,,,,,,,,,,,,,,,,,0,0,0,0,,,,,,,AFSA13.jpg,AFSA03.jpg,AFNE18.jpg,AFNE12.jpg,AFNE12.jpg,FN,3,num_4,16,num_4,0.833439337905,,,2017_Jul_24_1153,60.008603469,FEMA4ImagesEEG,001,101057,
AFSA21.JPG,AFNE23.JPG,AFNE21.JPG,AFSA25.JPG,AFNE25.JPG,AFSA23.JPG,,,,,,,,,,,,,,,,,0,1,1,4,,,,,,,AFSA16.jpg,AFNE09.jpg,AFNE10.jpg,AFSA20.jpg,AFSA20.jpg,FS,4,num_4,16,num_4,1.06678867619,,,2017_Jul_24_1153,60.008603469,FEMA4ImagesEEG,001,101057,
AMSA21.JPG,AMNE22.JPG,AMNE21.JPG,AMSA23.JPG,AMSA22.JPG,AMNE23.JPG,,,,,,,,,,,,,,,,,0,2,2,1,,,,,,,AFNE15.jpg,AFNE13.jpg,AFSA03.jpg,AFSA12.jpg,AFNE15.jpg,FN,3,num_8,16,num_8,1.33343725302,,,2017_Jul_24_1153,60.008603469,FEMA4ImagesEEG,001,101057,
AFNE23.JPG,AFNE24.JPG,AFNE22.JPG,AFSA24.JPG,AFSA22.JPG,AFSA23.JPG,,,,,,,,,,,,,,,,,0,3,3,8,,,,,,,AFSA04.jpg,AFNE12.jpg,AFSA07.jpg,AFNE17.jpg,AFNE17.jpg,FN,3,num_4,32,num_2,1.41672480083,,,2017_Jul_24_1153,60.008603469,FEMA4ImagesEEG,001,101057,
AMNE22.JPG,AMSA24.JPG,AMSA22.JPG,AMNE25.JPG,AMNE24.JPG,AMSA25.JPG,,,,,,,,,,,,,,,,,0,4,4,7,,,,,,,AFSA07.jpg,AFNE20.jpg,AFSA01.jpg,AFNE19.jpg,AFNE19.jpg,FN,3,num_4,16,num_4,1.05014996207,,,2017_Jul_24_1153,60.008603469,FEMA4ImagesEEG,001,101057,
AMNE23.JPG,AMNE24.JPG,AMNE22.JPG,AMSA24.JPG,AMSA22.JPG,AMSA23.JPG,,,,,,,,,,,,,,,,,0,5,5,9,,,,,,,AFSA04.jpg,AFNE13.jpg,AFSA02.jpg,AFNE18.jpg,AFNE18.jpg,FN,3,num_4,16,num_4,1.88337215898,,,2017_Jul_24_1153,60.008603469,FEMA4ImagesEEG,001,101057,
AFNE22.JPG,AFSA24.JPG,AFSA22.JPG,AFNE25.JPG,AFNE24.JPG,AFSA25.JPG,,,,,,,,,,,,,,,,,0,6,6,6,,,,,,,AFNE16.jpg,AFNE18.jpg,AFSA09.jpg,AFSA11.jpg,AFSA11.jpg,FS,4,num_4,32,num_2,1.55011548242,,,2017_Jul_24_1153,60.008603469,FEMA4ImagesEEG,001,101057,
AFSA25.JPG,AFNE24.JPG,AFSA24.JPG,AFNE21.JPG,AFSA21.JPG,AFNE25.JPG,,,,,,,,,,,,,,,,,0,7,7,2,,,,,,,AFNE01.jpg,AFSA10.jpg,AFNE16.jpg,AFSA04.jpg,AFNE16.jpg,FN,3,num_2,16,num_2,2.03339385707,,,2017_Jul_24_1153,60.008603469,FEMA4ImagesEEG,001,101057,
AMSA21.JPG,AMNE23.JPG,AMNE21.JPG,AMSA25.JPG,AMNE25.JPG,AMSA23.JPG,,,,,,,,,,,,,,,,,0,8,8,5,,,,,,,AFNE17.jpg,AFSA01.jpg,AFNE14.jpg,AFSA12.jpg,AFNE17.jpg,FN,3,num_8,32,num_2,1.60007300042,,,2017_Jul_24_1153,60.008603469,FEMA4ImagesEEG,001,101057,
AMSA25.JPG,AMNE24.JPG,AMSA24.JPG,AMNE26.JPG,AMSA21.JPG,AMNE25.JPG,,,,,,,,,,,,,,,,,0,9,9,3,,,,,,,AFSA05.jpg,AFNE05.jpg,AFSA20.jpg,AFNE01.jpg,AFSA20.jpg,FS,4,num_2,32,num_8,1.15031966567,,,2017_Jul_24_1153,60.008603469,FEMA4ImagesEEG,001,101057,
AFSA21.JPG,AFNE22.JPG,AFNE21.JPG,AFSA23.JPG,AFSA22.JPG,AFNE23.JPG,,,,,,,,,,,,,,,,,,,,,0,0,0,0,,,AMSA15.jpg,AMSA12.jpg,AMNE06.jpg,AMNE09.jpg,AMSA12.jpg,MS,2,num_6,16,num_6,1.41673506447,,,2017_Jul_24_1153,60.008603469,FEMA4ImagesEEG,001,101057,
AMSA25.JPG,AMNE24.JPG,AMSA24.JPG,AMNE26.JPG,AMSA21.JPG,AMNE25.JPG,,,,,,,,,,,,,,,,,,,,,0,1,1,3,,,AMNE01.jpg,AMSA19.jpg,AMNE02.jpg,AMSA08.jpg,AMNE01.jpg,MN,1,num_8,32,num_4,2.5499525466,,,2017_Jul_24_1153,60.008603469,FEMA4ImagesEEG,001,101057,
AFSA21.JPG,AFNE23.JPG,AFNE21.JPG,AFSA25.JPG,AFNE25.JPG,AFSA23.JPG,,,,,,,,,,,,,,,,,,,,,0,2,2,4,,,AMNE09.jpg,AMSA07.jpg,AMNE11.jpg,AMSA12.jpg,AMNE11.jpg,MN,1,num_2,32,num_6,1.45047211344,,,2017_Jul_24_1153,60.008603469,FEMA4ImagesEEG,001,101057,
AMNE23.JPG,AMNE24.JPG,AMNE22.JPG,AMSA24.JPG,AMSA22.JPG,AMSA23.JPG,,,,,,,,,,,,,,,,,,,,,0,3,3,9,,,AMSA02.jpg,AMSA05.jpg,AMNE06.jpg,AMNE17.jpg,AMSA05.jpg,MS,2,num_6,16,num_6,1.00025659206,,,2017_Jul_24_1153,60.008603469,FEMA4ImagesEEG,001,101057,
AFSA25.JPG,AFNE24.JPG,AFSA24.JPG,AFNE21.JPG,AFSA21.JPG,AFNE25.JPG,,,,,,,,,,,,,,,,,,,,,0,4,4,2,,,AMSA03.jpg,AMNE08.jpg,AMSA08.jpg,AMNE06.jpg,AMNE06.jpg,MN,1,num_4,32,num_2,1.81668547809,,,2017_Jul_24_1153,60.008603469,FEMA4ImagesEEG,001,101057,
AMSA21.JPG,AMNE23.JPG,AMNE21.JPG,AMSA25.JPG,AMNE25.JPG,AMSA23.JPG,,,,,,,,,,,,,,,,,,,,,0,5,5,5,,,AMNE09.jpg,AMNE08.jpg,AMSA17.jpg,AMSA20.jpg,AMNE09.jpg,MN,1,num_8,16,num_8,1.15019329404,,,2017_Jul_24_1153,60.008603469,FEMA4ImagesEEG,001,101057,
AFNE22.JPG,AFSA24.JPG,AFSA22.JPG,AFNE25.JPG,AFNE24.JPG,AFSA25.JPG,,,,,,,,,,,,,,,,,,,,,0,6,6,6,,,AMSA16.jpg,AMNE13.jpg,AMSA12.jpg,AMNE07.jpg,AMNE13.jpg,MN,1,num_6,32,num_2,1.63305085746,,,2017_Jul_24_1153,60.008603469,FEMA4ImagesEEG,001,101057,
AMNE22.JPG,AMSA24.JPG,AMSA22.JPG,AMNE25.JPG,AMNE24.JPG,AMSA25.JPG,,,,,,,,,,,,,,,,,,,,,0,7,7,7,,,AMNE06.jpg,AMSA04.jpg,AMSA07.jpg,AMNE02.jpg,AMSA04.jpg,MS,2,num_6,16,num_6,0.70014263317,,,2017_Jul_24_1153,60.008603469,FEMA4ImagesEEG,001,101057,
AFNE23.JPG,AFNE24.JPG,AFNE22.JPG,AFSA24.JPG,AFSA22.JPG,AFSA23.JPG,,,,,,,,,,,,,,,,,,,,,0,8,8,8,,,AMNE08.jpg,AMNE19.jpg,AMSA17.jpg,AMSA16.jpg,AMNE08.jpg,MN,1,num_8,32,num_6,1.10023417242,,,2017_Jul_24_1153,60.008603469,FEMA4ImagesEEG,001,101057,
AMSA21.JPG,AMNE22.JPG,AMNE21.JPG,AMSA23.JPG,AMSA22.JPG,AMNE23.JPG,,,,,,,,,,,,,,,,,,,,,0,9,9,1,,,AMSA14.jpg,AMNE19.jpg,AMNE18.jpg,AMSA04.jpg,AMSA14.jpg,MS,2,num_8,16,num_8,1.31672091992,,,2017_Jul_24_1153,60.008603469,FEMA4ImagesEEG,001,101057,
,,,,,,,,,,,,,,,,,,,,,,,,,,,,,,,,,,,,,,,,,,,space,5.59973782697,2017_Jul_24_1153,60.008603469,FEMA4ImagesEEG,001,101057,
AFNE01.JPG,AFNE01.JPG,AFNE01.JPG,AFNE01.JPG,AFNE01.JPG,AFNE01.JPG,0,0,0,8,,,,,,,,,,,,,,,,,,,,,,,AFNE06.jpg,AFNE02.jpg,AFSA17.jpg,AFSA18.jpg,AFNE06.jpg,FN,3,num_8,32,num_2,1.35006281687,,,2017_Jul_24_1153,60.008603469,FEMA4ImagesEEG,001,101057,
AFNE01.JPG,AFNE01.JPG,AFNE01.JPG,AFNE01.JPG,AFNE01.JPG,AFNE01.JPG,0,1,1,5,,,,,,,,,,,,,,,,,,,,,,,AFSA01.jpg,AFNE10.jpg,AFNE02.jpg,AFSA07.jpg,AFSA07.jpg,FS,4,num_4,32,num_6,1.25009870774,,,2017_Jul_24_1153,60.008603469,FEMA4ImagesEEG,001,101057,
AFNE01.JPG,AFNE01.JPG,AFNE01.JPG,AFNE01.JPG,AFNE01.JPG,AFNE01.JPG,0,2,2,7,,,,,,,,,,,,,,,,,,,,,,,AFNE02.jpg,AFSA06.jpg,AFSA13.jpg,AFNE14.jpg,AFSA06.jpg,FS,4,num_6,32,num_8,0.91663964442,,,2017_Jul_24_1153,60.008603469,FEMA4ImagesEEG,001,101057,
AFNE01.JPG,AFNE01.JPG,AFNE01.JPG,AFNE01.JPG,AFNE01.JPG,AFNE01.JPG,0,3,3,1,,,,,,,,,,,,,,,,,,,,,,,AFSA20.jpg,AFSA17.jpg,AFNE08.jpg,AFNE12.jpg,AFSA17.jpg,FS,4,num_6,32,num_8,1.25025490823,,,2017_Jul_24_1153,60.008603469,FEMA4ImagesEEG,001,101057,
AFNE01.JPG,AFNE01.JPG,AFNE01.JPG,AFNE01.JPG,AFNE01.JPG,AFNE01.JPG,0,4,4,0,,,,,,,,,,,,,,,,,,,,,,,AFSA14.jpg,AFSA01.jpg,AFNE11.jpg,AFNE05.jpg,AFSA01.jpg,FS,4,num_6,16,num_6,0.866760707577,,,2017_Jul_24_1153,60.008603469,FEMA4ImagesEEG,001,101057,
AFNE01.JPG,AFNE01.JPG,AFNE01.JPG,AFNE01.JPG,AFNE01.JPG,AFNE01.JPG,0,5,5,4,,,,,,,,,,,,,,,,,,,,,,,AFSA14.jpg,AFSA01.jpg,AFNE20.jpg,AFNE01.jpg,AFNE20.jpg,FN,3,num_2,32,num_8,0.850240667351,,,2017_Jul_24_1153,60.008603469,FEMA4ImagesEEG,001,101057,
AFNE01.JPG,AFNE01.JPG,AFNE01.JPG,AFNE01.JPG,AFNE01.JPG,AFNE01.JPG,0,6,6,2,,,,,,,,,,,,,,,,,,,,,,,AFNE09.jpg,AFNE08.jpg,AFSA01.jpg,AFSA10.jpg,AFSA01.jpg,FS,4,num_2,32,num_8,1.00009910867,,,2017_Jul_24_1153,60.008603469,FEMA4ImagesEEG,001,101057,
AFNE01.JPG,AFNE01.JPG,AFNE01.JPG,AFNE01.JPG,AFNE01.JPG,AFNE01.JPG,0,7,7,3,,,,,,,,,,,,,,,,,,,,,,,AFSA11.jpg,AFNE03.jpg,AFNE19.jpg,AFSA12.jpg,AFSA12.jpg,FS,4,num_4,32,num_2,1.55007089966,,,2017_Jul_24_1153,60.008603469,FEMA4ImagesEEG,001,101057,
AFNE01.JPG,AFNE01.JPG,AFNE01.JPG,AFNE01.JPG,AFNE01.JPG,AFNE01.JPG,0,8,8,9,,,,,,,,,,,,,,,,,,,,,,,AFSA06.jpg,AFNE02.jpg,AFSA09.jpg,AFNE12.jpg,AFNE02.jpg,FN,3,num_6,16,num_6,0.933442256646,,,2017_Jul_24_1153,60.008603469,FEMA4ImagesEEG,001,101057,
AFNE01.JPG,AFNE01.JPG,AFNE01.JPG,AFNE01.JPG,AFNE01.JPG,AFNE01.JPG,0,9,9,6,,,,,,,,,,,,,,,,,,,,,,,AFSA07.jpg,AFSA14.jpg,AFNE19.jpg,AFNE12.jpg,AFSA07.jpg,FS,4,num_8,16,num_8,0.616787409293,,,2017_Jul_24_1153,60.008603469,FEMA4ImagesEEG,001,101057,
AFNE01.JPG,AFNE01.JPG,AFNE01.JPG,AFNE01.JPG,AFNE01.JPG,AFNE01.JPG,1,0,10,2,,,,,,,,,,,,,,,,,,,,,,,AFSA16.jpg,AFNE01.jpg,AFSA13.jpg,AFNE17.jpg,AFSA13.jpg,FS,4,num_2,16,num_2,0.766942535294,,,2017_Jul_24_1153,60.008603469,FEMA4ImagesEEG,001,101057,
AFNE01.JPG,AFNE01.JPG,AFNE01.JPG,AFNE01.JPG,AFNE01.JPG,AFNE01.JPG,1,1,11,4,,,,,,,,,,,,,,,,,,,,,,,AFSA18.jpg,AFNE18.jpg,AFNE10.jpg,AFSA16.jpg,AFSA18.jpg,FS,4,num_8,32,num_4,0.866813309025,,,2017_Jul_24_1153,60.008603469,FEMA4ImagesEEG,001,101057,
AFNE01.JPG,AFNE01.JPG,AFNE01.JPG,AFNE01.JPG,AFNE01.JPG,AFNE01.JPG,1,2,12,5,,,,,,,,,,,,,,,,,,,,,,,AFNE17.jpg,AFNE07.jpg,AFSA10.jpg,AFSA09.jpg,AFNE17.jpg,FN,3,num_8,32,num_4,1.30007065914,,,2017_Jul_24_1153,60.008603469,FEMA4ImagesEEG,001,101057,
AFNE01.JPG,AFNE01.JPG,AFNE01.JPG,AFNE01.JPG,AFNE01.JPG,AFNE01.JPG,1,3,13,0,,,,,,,,,,,,,,,,,,,,,,,AFSA13.jpg,AFNE13.jpg,AFSA05.jpg,AFNE07.jpg,AFSA13.jpg,FS,4,num_8,16,num_8,0.850087995059,,,2017_Jul_24_1153,60.008603469,FEMA4ImagesEEG,001,101057,
AFNE01.JPG,AFNE01.JPG,AFNE01.JPG,AFNE01.JPG,AFNE01.JPG,AFNE01.JPG,1,4,14,3,,,,,,,,,,,,,,,,,,,,,,,AFNE12.jpg,AFSA16.jpg,AFSA12.jpg,AFNE08.jpg,AFNE12.jpg,FN,3,num_8,32,num_4,1.36674867989,,,2017_Jul_24_1153,60.008603469,FEMA4ImagesEEG,001,101057,
AFNE01.JPG,AFNE01.JPG,AFNE01.JPG,AFNE01.JPG,AFNE01.JPG,AFNE01.JPG,1,5,15,1,,,,,,,,,,,,,,,,,,,,,,,AFSA14.jpg,AFNE18.jpg,AFSA05.jpg,AFNE10.jpg,AFNE10.jpg,FN,3,num_4,16,num_4,0.733632070711,,,2017_Jul_24_1153,60.008603469,FEMA4ImagesEEG,001,101057,
AFNE01.JPG,AFNE01.JPG,AFNE01.JPG,AFNE01.JPG,AFNE01.JPG,AFNE01.JPG,1,6,16,9,,,,,,,,,,,,,,,,,,,,,,,AFNE09.jpg,AFNE16.jpg,AFSA06.jpg,AFSA03.jpg,AFSA03.jpg,FS,4,num_4,32,num_6,0.650206925464,,,2017_Jul_24_1153,60.008603469,FEMA4ImagesEEG,001,101057,
AFNE01.JPG,AFNE01.JPG,AFNE01.JPG,AFNE01.JPG,AFNE01.JPG,AFNE01.JPG,1,7,17,7,,,,,,,,,,,,,,,,,,,,,,,AFNE18.jpg,AFNE06.jpg,AFSA17.jpg,AFSA20.jpg,AFSA17.jpg,FS,4,num_2,16,num_2,1.01675770874,,,2017_Jul_24_1153,60.008603469,FEMA4ImagesEEG,001,101057,
AFNE01.JPG,AFNE01.JPG,AFNE01.JPG,AFNE01.JPG,AFNE01.JPG,AFNE01.JPG,1,8,18,6,,,,,,,,,,,,,,,,,,,,,,,AFNE20.jpg,AFNE15.jpg,AFSA05.jpg,AFSA01.jpg,AFSA05.jpg,FS,4,num_2,32,num_4,1.11696493893,,,2017_Jul_24_1153,60.008603469,FEMA4ImagesEEG,001,101057,
AFNE01.JPG,AFNE01.JPG,AFNE01.JPG,AFNE01.JPG,AFNE01.JPG,AFNE01.JPG,1,9,19,8,,,,,,,,,,,,,,,,,,,,,,,AFSA07.jpg,AFSA03.jpg,AFNE11.jpg,AFNE19.jpg,AFNE19.jpg,FN,3,num_4,16,num_4,1.36681154498,,,2017_Jul_24_1153,60.008603469,FEMA4ImagesEEG,001,101057,
AFNE01.JPG,AFNE01.JPG,AFNE01.JPG,AFNE01.JPG,AFNE01.JPG,AFNE01.JPG,2,0,20,3,,,,,,,,,,,,,,,,,,,,,,,AFNE20.jpg,AFNE06.jpg,AFSA18.jpg,AFSA16.jpg,AFNE20.jpg,FN,3,num_8,16,num_8,0.800121496315,,,2017_Jul_24_1153,60.008603469,FEMA4ImagesEEG,001,101057,
AFNE01.JPG,AFNE01.JPG,AFNE01.JPG,AFNE01.JPG,AFNE01.JPG,AFNE01.JPG,2,1,21,1,,,,,,,,,,,,,,,,,,,,,,,AFNE01.jpg,AFNE02.jpg,AFSA01.jpg,AFSA11.jpg,AFSA11.jpg,FS,4,num_4,32,num_8,1.20016556606,,,2017_Jul_24_1153,60.008603469,FEMA4ImagesEEG,001,101057,
AFNE01.JPG,AFNE01.JPG,AFNE01.JPG,AFNE01.JPG,AFNE01.JPG,AFNE01.JPG,2,2,22,7,,,,,,,,,,,,,,,,,,,,,,,AFSA07.jpg,AFNE15.jpg,AFNE13.jpg,AFSA08.jpg,AFSA08.jpg,FS,4,num_4,16,num_4,1.10009272594,,,2017_Jul_24_1153,60.008603469,FEMA4ImagesEEG,001,101057,
AFNE01.JPG,AFNE01.JPG,AFNE01.JPG,AFNE01.JPG,AFNE01.JPG,AFNE01.JPG,2,3,23,5,,,,,,,,,,,,,,,,,,,,,,,AFSA15.jpg,AFNE16.jpg,AFNE01.jpg,AFSA07.jpg,AFSA15.jpg,FS,4,num_8,16,num_8,0.683508088579,,,2017_Jul_24_1153,60.008603469,FEMA4ImagesEEG,001,101057,
AFNE01.JPG,AFNE01.JPG,AFNE01.JPG,AFNE01.JPG,AFNE01.JPG,AFNE01.JPG,2,4,24,8,,,,,,,,,,,,,,,,,,,,,,,AFNE09.jpg,AFSA10.jpg,AFSA20.jpg,AFNE17.jpg,AFSA20.jpg,FS,4,num_2,32,num_8,1.0667097742,,,2017_Jul_24_1153,60.008603469,FEMA4ImagesEEG,001,101057,
AFNE01.JPG,AFNE01.JPG,AFNE01.JPG,AFNE01.JPG,AFNE01.JPG,AFNE01.JPG,2,5,25,4,,,,,,,,,,,,,,,,,,,,,,,AFNE14.jpg,AFSA13.jpg,AFSA01.jpg,AFNE04.jpg,AFNE14.jpg,FN,3,num_8,16,num_8,0.950167891453,,,2017_Jul_24_1153,60.008603469,FEMA4ImagesEEG,001,101057,
AFNE01.JPG,AFNE01.JPG,AFNE01.JPG,AFNE01.JPG,AFNE01.JPG,AFNE01.JPG,2,6,26,2,,,,,,,,,,,,,,,,,,,,,,,AFNE11.jpg,AFSA10.jpg,AFSA02.jpg,AFNE12.jpg,AFNE12.jpg,FN,3,num_4,16,num_4,1.29994236305,,,2017_Jul_24_1153,60.008603469,FEMA4ImagesEEG,001,101057,
AFNE01.JPG,AFNE01.JPG,AFNE01.JPG,AFNE01.JPG,AFNE01.JPG,AFNE01.JPG,2,7,27,9,,,,,,,,,,,,,,,,,,,,,,,AFSA17.jpg,AFSA04.jpg,AFNE03.jpg,AFNE12.jpg,AFSA17.jpg,FS,4,num_8,32,num_2,1.61665590585,,,2017_Jul_24_1153,60.008603469,FEMA4ImagesEEG,001,101057,
AFNE01.JPG,AFNE01.JPG,AFNE01.JPG,AFNE01.JPG,AFNE01.JPG,AFNE01.JPG,2,8,28,0,,,,,,,,,,,,,,,,,,,,,,,AFNE16.jpg,AFSA20.jpg,AFSA17.jpg,AFNE13.jpg,AFSA17.jpg,FS,4,num_2,16,num_2,1.90002979676,,,2017_Jul_24_1153,60.008603469,FEMA4ImagesEEG,001,101057,
AFNE01.JPG,AFNE01.JPG,AFNE01.JPG,AFNE01.JPG,AFNE01.JPG,AFNE01.JPG,2,9,29,6,,,,,,,,,,,,,,,,,,,,,,,AFNE16.jpg,AFSA05.jpg,AFSA04.jpg,AFNE14.jpg,AFSA04.jpg,FS,4,num_2,16,num_2,0.933306262828,,,2017_Jul_24_1153,60.008603469,FEMA4ImagesEEG,001,101057,
AFNE01.JPG,AFNE01.JPG,AFNE01.JPG,AFNE01.JPG,AFNE01.JPG,AFNE01.JPG,3,0,30,4,,,,,,,,,,,,,,,,,,,,,,,AFNE14.jpg,AFSA12.jpg,AFNE16.jpg,AFSA11.jpg,AFNE16.jpg,FN,3,num_2,32,num_4,0.883545679389,,,2017_Jul_24_1153,60.008603469,FEMA4ImagesEEG,001,101057,
AFNE01.JPG,AFNE01.JPG,AFNE01.JPG,AFNE01.JPG,AFNE01.JPG,AFNE01.JPG,3,1,31,3,,,,,,,,,,,,,,,,,,,,,,,AFNE07.jpg,AFSA15.jpg,AFNE14.jpg,AFSA11.jpg,AFNE14.jpg,FN,3,num_2,32,num_6,0.900119924801,,,2017_Jul_24_1153,60.008603469,FEMA4ImagesEEG,001,101057,
AFNE01.JPG,AFNE01.JPG,AFNE01.JPG,AFNE01.JPG,AFNE01.JPG,AFNE01.JPG,3,2,32,5,,,,,,,,,,,,,,,,,,,,,,,AFNE03.jpg,AFNE15.jpg,AFSA06.jpg,AFSA03.jpg,AFNE15.jpg,FN,3,num_6,32,num_8,0.750099509605,,,2017_Jul_24_1153,60.008603469,FEMA4ImagesEEG,001,101057,
AFNE01.JPG,AFNE01.JPG,AFNE01.JPG,AFNE01.JPG,AFNE01.JPG,AFNE01.JPG,3,3,33,9,,,,,,,,,,,,,,,,,,,,,,,AFSA06.jpg,AFSA17.jpg,AFNE07.jpg,AFNE18.jpg,AFNE18.jpg,FN,3,num_4,16,num_4,1.21668304049,,,2017_Jul_24_1153,60.008603469,FEMA4ImagesEEG,001,101057,
AFNE01.JPG,AFNE01.JPG,AFNE01.JPG,AFNE01.JPG,AFNE01.JPG,AFNE01.JPG,3,4,34,2,,,,,,,,,,,,,,,,,,,,,,,AFSA11.jpg,AFSA09.jpg,AFNE09.jpg,AFNE14.jpg,AFSA09.jpg,FS,4,num_6,16,num_6,1.11675068457,,,2017_Jul_24_1153,60.008603469,FEMA4ImagesEEG,001,101057,
AFNE01.JPG,AFNE01.JPG,AFNE01.JPG,AFNE01.JPG,AFNE01.JPG,AFNE01.JPG,3,5,35,6,,,,,,,,,,,,,,,,,,,,,,,AFNE13.jpg,AFSA14.jpg,AFSA13.jpg,AFNE02.jpg,AFNE13.jpg,FN,3,num_8,32,num_4,1.40008416225,,,2017_Jul_24_1153,60.008603469,FEMA4ImagesEEG,001,101057,
AFNE01.JPG,AFNE01.JPG,AFNE01.JPG,AFNE01.JPG,AFNE01.JPG,AFNE01.JPG,3,6,36,8,,,,,,,,,,,,,,,,,,,,,,,AFSA17.jpg,AFSA02.jpg,AFNE04.jpg,AFNE02.jpg,AFNE02.jpg,FN,3,num_4,32,num_2,0.866780914366,,,2017_Jul_24_1153,60.008603469,FEMA4ImagesEEG,001,101057,
AFNE01.JPG,AFNE01.JPG,AFNE01.JPG,AFNE01.JPG,AFNE01.JPG,AFNE01.JPG,3,7,37,0,,,,,,,,,,,,,,,,,,,,,,,AFNE08.jpg,AFNE12.jpg,AFSA11.jpg,AFSA04.jpg,AFNE08.jpg,FN,3,num_8,16,num_8,0.916729772347,,,2017_Jul_24_1153,60.008603469,FEMA4ImagesEEG,001,101057,
AFNE01.JPG,AFNE01.JPG,AFNE01.JPG,AFNE01.JPG,AFNE01.JPG,AFNE01.JPG,3,8,38,7,,,,,,,,,,,,,,,,,,,,,,,AFSA01.jpg,AFNE04.jpg,AFNE14.jpg,AFSA03.jpg,AFNE04.jpg,FN,3,num_6,32,num_2,0.88343181659,,,2017_Jul_24_1153,60.008603469,FEMA4ImagesEEG,001,101057,
AFNE01.JPG,AFNE01.JPG,AFNE01.JPG,AFNE01.JPG,AFNE01.JPG,AFNE01.JPG,3,9,39,1,,,,,,,,,,,,,,,,,,,,,,,AFSA16.jpg,AFSA12.jpg,AFNE07.jpg,AFNE19.jpg,AFSA12.jpg,FS,4,num_6,16,num_6,2.31661603786,,,2017_Jul_24_1153,60.008603469,FEMA4ImagesEEG,001,101057,
AFNE01.JPG,AFNE01.JPG,AFNE01.JPG,AFNE01.JPG,AFNE01.JPG,AFNE01.JPG,4,0,40,8,,,,,,,,,,,,,,,,,,,,,,,AFSA16.jpg,AFNE05.jpg,AFNE08.jpg,AFSA04.jpg,AFNE05.jpg,FN,3,num_6,32,num_8,0.883567810408,,,2017_Jul_24_1153,60.008603469,FEMA4ImagesEEG,001,101057,
AFNE01.JPG,AFNE01.JPG,AFNE01.JPG,AFNE01.JPG,AFNE01.JPG,AFNE01.JPG,4,1,41,4,,,,,,,,,,,,,,,,,,,,,,,AFSA01.jpg,AFNE14.jpg,AFNE18.jpg,AFSA14.jpg,AFSA01.jpg,FS,4,num_8,32,num_4,2.01695207728,,,2017_Jul_24_1153,60.008603469,FEMA4ImagesEEG,001,101057,
AFNE01.JPG,AFNE01.JPG,AFNE01.JPG,AFNE01.JPG,AFNE01.JPG,AFNE01.JPG,4,2,42,1,,,,,,,,,,,,,,,,,,,,,,,AFNE04.jpg,AFSA11.jpg,AFSA10.jpg,AFNE08.jpg,AFNE04.jpg,FN,3,num_8,16,num_8,0.950152495876,,,2017_Jul_24_1153,60.008603469,FEMA4ImagesEEG,001,101057,
AFNE01.JPG,AFNE01.JPG,AFNE01.JPG,AFNE01.JPG,AFNE01.JPG,AFNE01.JPG,4,3,43,6,,,,,,,,,,,,,,,,,,,,,,,AFNE18.jpg,AFSA12.jpg,AFSA20.jpg,AFNE06.jpg,AFNE18.jpg,FN,3,num_8,32,num_2,0.849781046738,,,2017_Jul_24_1153,60.008603469,FEMA4ImagesEEG,001,101057,
AFNE01.JPG,AFNE01.JPG,AFNE01.JPG,AFNE01.JPG,AFNE01.JPG,AFNE01.JPG,4,4,44,3,,,,,,,,,,,,,,,,,,,,,,,AFSA13.jpg,AFNE03.jpg,AFNE06.jpg,AFSA07.jpg,AFSA07.jpg,FS,4,num_4,32,num_6,0.983400736819,,,2017_Jul_24_1153,60.008603469,FEMA4ImagesEEG,001,101057,
AFNE01.JPG,AFNE01.JPG,AFNE01.JPG,AFNE01.JPG,AFNE01.JPG,AFNE01.JPG,4,5,45,5,,,,,,,,,,,,,,,,,,,,,,,AFSA01.jpg,AFSA09.jpg,AFNE18.jpg,AFNE10.jpg,AFSA01.jpg,FS,4,num_8,32,num_4,1.10007989639,,,2017_Jul_24_1153,60.008603469,FEMA4ImagesEEG,001,101057,
AFNE01.JPG,AFNE01.JPG,AFNE01.JPG,AFNE01.JPG,AFNE01.JPG,AFNE01.JPG,4,6,46,9,,,,,,,,,,,,,,,,,,,,,,,AFNE14.jpg,AFSA16.jpg,AFSA09.jpg,AFNE18.jpg,AFSA09.jpg,FS,4,num_2,16,num_2,1.00013086188,,,2017_Jul_24_1153,60.008603469,FEMA4ImagesEEG,001,101057,
AFNE01.JPG,AFNE01.JPG,AFNE01.JPG,AFNE01.JPG,AFNE01.JPG,AFNE01.JPG,4,7,47,0,,,,,,,,,,,,,,,,,,,,,,,AFSA20.jpg,AFNE17.jpg,AFNE14.jpg,AFSA02.jpg,AFNE17.jpg,FN,3,num_6,32,num_8,1.80005221651,,,2017_Jul_24_1153,60.008603469,FEMA4ImagesEEG,001,101057,
AFNE01.JPG,AFNE01.JPG,AFNE01.JPG,AFNE01.JPG,AFNE01.JPG,AFNE01.JPG,4,8,48,2,,,,,,,,,,,,,,,,,,,,,,,AFSA09.jpg,AFSA14.jpg,AFNE16.jpg,AFNE06.jpg,AFSA14.jpg,FS,4,num_6,32,num_4,1.26673325221,,,2017_Jul_24_1153,60.008603469,FEMA4ImagesEEG,001,101057,
AFNE01.JPG,AFNE01.JPG,AFNE01.JPG,AFNE01.JPG,AFNE01.JPG,AFNE01.JPG,4,9,49,7,,,,,,,,,,,,,,,,,,,,,,,AFNE10.jpg,AFSA09.jpg,AFNE09.jpg,AFSA19.jpg,AFNE09.jpg,FN,3,num_2,32,num_6,0.783438840765,,,2017_Jul_24_1153,60.008603469,FEMA4ImagesEEG,001,101057,
AFNE01.JPG,AFNE01.JPG,AFNE01.JPG,AFNE01.JPG,AFNE01.JPG,AFNE01.JPG,5,0,50,4,,,,,,,,,,,,,,,,,,,,,,,AFSA05.jpg,AFNE10.jpg,AFSA16.jpg,AFNE05.jpg,AFSA05.jpg,FS,4,num_8,32,num_2,2.38336975337,,,2017_Jul_24_1153,60.008603469,FEMA4ImagesEEG,001,101057,
AFNE01.JPG,AFNE01.JPG,AFNE01.JPG,AFNE01.JPG,AFNE01.JPG,AFNE01.JPG,5,1,51,0,,,,,,,,,,,,,,,,,,,,,,,AFSA09.jpg,AFSA07.jpg,AFNE03.jpg,AFNE04.jpg,AFNE04.jpg,FN,3,num_4,32,num_6,2.51671039953,,,2017_Jul_24_1153,60.008603469,FEMA4ImagesEEG,001,101057,
AFNE01.JPG,AFNE01.JPG,AFNE01.JPG,AFNE01.JPG,AFNE01.JPG,AFNE01.JPG,5,2,52,7,,,,,,,,,,,,,,,,,,,,,,,AFNE18.jpg,AFSA11.jpg,AFSA09.jpg,AFNE20.jpg,AFSA09.jpg,FS,4,num_2,32,num_4,0.916756073013,,,2017_Jul_24_1153,60.008603469,FEMA4ImagesEEG,001,101057,
AFNE01.JPG,AFNE01.JPG,AFNE01.JPG,AFNE01.JPG,AFNE01.JPG,AFNE01.JPG,5,3,53,8,,,,,,,,,,,,,,,,,,,,,,,AFSA01.jpg,AFNE07.jpg,AFSA19.jpg,AFNE04.jpg,AFNE04.jpg,FN,3,num_4,16,num_4,0.733520773822,,,2017_Jul_24_1153,60.008603469,FEMA4ImagesEEG,001,101057,
AFNE01.JPG,AFNE01.JPG,AFNE01.JPG,AFNE01.JPG,AFNE01.JPG,AFNE01.JPG,5,4,54,1,,,,,,,,,,,,,,,,,,,,,,,AFSA15.jpg,AFSA06.jpg,AFNE17.jpg,AFNE03.jpg,AFNE03.jpg,FN,3,num_4,32,num_2,1.46671695868,,,2017_Jul_24_1153,60.008603469,FEMA4ImagesEEG,001,101057,
AFNE01.JPG,AFNE01.JPG,AFNE01.JPG,AFNE01.JPG,AFNE01.JPG,AFNE01.JPG,5,5,55,6,,,,,,,,,,,,,,,,,,,,,,,AFNE02.jpg,AFSA10.jpg,AFNE20.jpg,AFSA18.jpg,AFNE02.jpg,FN,3,num_8,32,num_2,1.50013262604,,,2017_Jul_24_1153,60.008603469,FEMA4ImagesEEG,001,101057,
AFNE01.JPG,AFNE01.JPG,AFNE01.JPG,AFNE01.JPG,AFNE01.JPG,AFNE01.JPG,5,6,56,2,,,,,,,,,,,,,,,,,,,,,,,AFNE14.jpg,AFSA02.jpg,AFNE13.jpg,AFSA13.jpg,AFNE14.jpg,FN,3,num_8,16,num_8,0.733475549496,,,2017_Jul_24_1153,60.008603469,FEMA4ImagesEEG,001,101057,
AFNE01.JPG,AFNE01.JPG,AFNE01.JPG,AFNE01.JPG,AFNE01.JPG,AFNE01.JPG,5,7,57,3,,,,,,,,,,,,,,,,,,,,,,,AFSA10.jpg,AFSA02.jpg,AFNE13.jpg,AFNE04.jpg,AFNE04.jpg,FN,3,num_4,16,num_4,0.616812427063,,,2017_Jul_24_1153,60.008603469,FEMA4ImagesEEG,001,101057,
AFNE01.JPG,AFNE01.JPG,AFNE01.JPG,AFNE01.JPG,AFNE01.JPG,AFNE01.JPG,5,8,58,9,,,,,,,,,,,,,,,,,,,,,,,AFSA03.jpg,AFNE20.jpg,AFSA09.jpg,AFNE19.jpg,AFSA09.jpg,FS,4,num_2,32,num_8,1.21673243446,,,2017_Jul_24_1153,60.008603469,FEMA4ImagesEEG,001,101057,
AFNE01.JPG,AFNE01.JPG,AFNE01.JPG,AFNE01.JPG,AFNE01.JPG,AFNE01.JPG,5,9,59,5,,,,,,,,,,,,,,,,,,,,,,,AFNE11.jpg,AFSA08.jpg,AFNE02.jpg,AFSA10.jpg,AFNE02.jpg,FN,3,num_2,16,num_2,1.00014593673,,,2017_Jul_24_1153,60.008603469,FEMA4ImagesEEG,001,101057,
,,,,,,,,,,,,,,,,,,,,,,,,,,,,,,,,,,,,,,,,,,,space,8.96583861182,2017_Jul_24_1153,60.008603469,FEMA4ImagesEEG,001,101057,
AFNE01.JPG,AFNE01.JPG,AFNE01.JPG,AFNE01.JPG,AFNE01.JPG,AFNE01.JPG,,,,,0,0,0,4,,,,,,,,,,,,,,,,,,,AMNE05.jpg,AMSA01.jpg,AMNE04.jpg,AMSA14.jpg,AMSA14.jpg,MS,2,num_4,16,num_4,2.20031663461,,,2017_Jul_24_1153,60.008603469,FEMA4ImagesEEG,001,101057,
AFNE01.JPG,AFNE01.JPG,AFNE01.JPG,AFNE01.JPG,AFNE01.JPG,AFNE01.JPG,,,,,0,1,1,3,,,,,,,,,,,,,,,,,,,AMSA12.jpg,AMSA04.jpg,AMNE03.jpg,AMNE18.jpg,AMNE18.jpg,MN,1,num_4,32,num_8,0.866740821744,,,2017_Jul_24_1153,60.008603469,FEMA4ImagesEEG,001,101057,
AFNE01.JPG,AFNE01.JPG,AFNE01.JPG,AFNE01.JPG,AFNE01.JPG,AFNE01.JPG,,,,,0,2,2,6,,,,,,,,,,,,,,,,,,,AMSA06.jpg,AMNE10.jpg,AMSA05.jpg,AMNE17.jpg,AMNE17.jpg,MN,1,num_4,32,num_2,0.916769544012,,,2017_Jul_24_1153,60.008603469,FEMA4ImagesEEG,001,101057,
AFNE01.JPG,AFNE01.JPG,AFNE01.JPG,AFNE01.JPG,AFNE01.JPG,AFNE01.JPG,,,,,0,3,3,2,,,,,,,,,,,,,,,,,,,AMSA17.jpg,AMNE10.jpg,AMNE20.jpg,AMSA16.jpg,AMSA17.jpg,MS,2,num_8,32,num_4,0.666736267274,,,2017_Jul_24_1153,60.008603469,FEMA4ImagesEEG,001,101057,
AFNE01.JPG,AFNE01.JPG,AFNE01.JPG,AFNE01.JPG,AFNE01.JPG,AFNE01.JPG,,,,,0,4,4,1,,,,,,,,,,,,,,,,,,,AMNE08.jpg,AMNE15.jpg,AMSA19.jpg,AMSA06.jpg,AMNE15.jpg,MN,1,num_6,16,num_6,0.883541830466,,,2017_Jul_24_1153,60.008603469,FEMA4ImagesEEG,001,101057,
AFNE01.JPG,AFNE01.JPG,AFNE01.JPG,AFNE01.JPG,AFNE01.JPG,AFNE01.JPG,,,,,0,5,5,0,,,,,,,,,,,,,,,,,,,AMSA17.jpg,AMSA04.jpg,AMNE07.jpg,AMNE16.jpg,AMSA17.jpg,MS,2,num_8,32,num_6,0.633489629952,,,2017_Jul_24_1153,60.008603469,FEMA4ImagesEEG,001,101057,
AFNE01.JPG,AFNE01.JPG,AFNE01.JPG,AFNE01.JPG,AFNE01.JPG,AFNE01.JPG,,,,,0,6,6,7,,,,,,,,,,,,,,,,,,,AMNE06.jpg,AMNE19.jpg,AMSA12.jpg,AMSA14.jpg,AMNE06.jpg,MN,1,num_8,32,num_6,0.783478612546,,,2017_Jul_24_1153,60.008603469,FEMA4ImagesEEG,001,101057,
AFNE01.JPG,AFNE01.JPG,AFNE01.JPG,AFNE01.JPG,AFNE01.JPG,AFNE01.JPG,,,,,0,7,7,8,,,,,,,,,,,,,,,,,,,AMNE08.jpg,AMNE09.jpg,AMSA10.jpg,AMSA07.jpg,AMNE09.jpg,MN,1,num_6,16,num_6,0.63343702862,,,2017_Jul_24_1153,60.008603469,FEMA4ImagesEEG,001,101057,
AFNE01.JPG,AFNE01.JPG,AFNE01.JPG,AFNE01.JPG,AFNE01.JPG,AFNE01.JPG,,,,,0,8,8,5,,,,,,,,,,,,,,,,,,,AMSA17.jpg,AMNE03.jpg,AMNE15.jpg,AMSA06.jpg,AMNE15.jpg,MN,1,num_2,16,num_2,0.850129370578,,,2017_Jul_24_1153,60.008603469,FEMA4ImagesEEG,001,101057,
AFNE01.JPG,AFNE01.JPG,AFNE01.JPG,AFNE01.JPG,AFNE01.JPG,AFNE01.JPG,,,,,0,9,9,9,,,,,,,,,,,,,,,,,,,AMNE01.jpg,AMSA08.jpg,AMSA11.jpg,AMNE04.jpg,AMSA11.jpg,MS,2,num_2,16,num_2,1.23340354336,,,2017_Jul_24_1153,60.008603469,FEMA4ImagesEEG,001,101057,
AFNE01.JPG,AFNE01.JPG,AFNE01.JPG,AFNE01.JPG,AFNE01.JPG,AFNE01.JPG,,,,,1,0,10,2,,,,,,,,,,,,,,,,,,,AMNE10.jpg,AMNE07.jpg,AMSA17.jpg,AMSA16.jpg,AMNE10.jpg,MN,1,num_8,32,num_6,0.750098226708,,,2017_Jul_24_1153,60.008603469,FEMA4ImagesEEG,001,101057,
AFNE01.JPG,AFNE01.JPG,AFNE01.JPG,AFNE01.JPG,AFNE01.JPG,AFNE01.JPG,,,,,1,1,11,5,,,,,,,,,,,,,,,,,,,AMSA10.jpg,AMSA19.jpg,AMNE15.jpg,AMNE08.jpg,AMSA19.jpg,MS,2,num_6,16,num_6,0.632827943191,,,2017_Jul_24_1153,60.008603469,FEMA4ImagesEEG,001,101057,
AFNE01.JPG,AFNE01.JPG,AFNE01.JPG,AFNE01.JPG,AFNE01.JPG,AFNE01.JPG,,,,,1,2,12,7,,,,,,,,,,,,,,,,,,,AMNE20.jpg,AMNE01.jpg,AMSA06.jpg,AMSA19.jpg,AMSA06.jpg,MS,2,num_2,16,num_2,2.23338205379,,,2017_Jul_24_1153,60.008603469,FEMA4ImagesEEG,001,101057,
AFNE01.JPG,AFNE01.JPG,AFNE01.JPG,AFNE01.JPG,AFNE01.JPG,AFNE01.JPG,,,,,1,3,13,1,,,,,,,,,,,,,,,,,,,AMSA11.jpg,AMNE01.jpg,AMNE13.jpg,AMSA07.jpg,AMSA07.jpg,MS,2,num_4,16,num_4,2.2666347851,,,2017_Jul_24_1153,60.008603469,FEMA4ImagesEEG,001,101057,
AFNE01.JPG,AFNE01.JPG,AFNE01.JPG,AFNE01.JPG,AFNE01.JPG,AFNE01.JPG,,,,,1,4,14,3,,,,,,,,,,,,,,,,,,,AMSA13.jpg,AMNE14.jpg,AMNE15.jpg,AMSA06.jpg,AMSA13.jpg,MS,2,num_8,32,num_4,1.4167061979,,,2017_Jul_24_1153,60.008603469,FEMA4ImagesEEG,001,101057,
AFNE01.JPG,AFNE01.JPG,AFNE01.JPG,AFNE01.JPG,AFNE01.JPG,AFNE01.JPG,,,,,1,5,15,6,,,,,,,,,,,,,,,,,,,AMSA01.jpg,AMNE05.jpg,AMSA14.jpg,AMNE08.jpg,AMNE08.jpg,MN,1,num_4,16,num_4,1.05010922812,,,2017_Jul_24_1153,60.008603469,FEMA4ImagesEEG,001,101057,
AFNE01.JPG,AFNE01.JPG,AFNE01.JPG,AFNE01.JPG,AFNE01.JPG,AFNE01.JPG,,,,,1,6,16,9,,,,,,,,,,,,,,,,,,,AMNE14.jpg,AMNE11.jpg,AMSA20.jpg,AMSA14.jpg,AMNE14.jpg,MN,1,num_8,32,num_6,1.30008380942,,,2017_Jul_24_1153,60.008603469,FEMA4ImagesEEG,001,101057,
AFNE01.JPG,AFNE01.JPG,AFNE01.JPG,AFNE01.JPG,AFNE01.JPG,AFNE01.JPG,,,,,1,7,17,8,,,,,,,,,,,,,,,,,,,AMSA13.jpg,AMNE08.jpg,AMNE10.jpg,AMSA17.jpg,AMNE10.jpg,MN,1,num_2,16,num_2,0.816849697032,,,2017_Jul_24_1153,60.008603469,FEMA4ImagesEEG,001,101057,
AFNE01.JPG,AFNE01.JPG,AFNE01.JPG,AFNE01.JPG,AFNE01.JPG,AFNE01.JPG,,,,,1,8,18,0,,,,,,,,,,,,,,,,,,,AMSA18.jpg,AMNE06.jpg,AMSA09.jpg,AMNE05.jpg,AMSA09.jpg,MS,2,num_2,32,num_6,1.70005507104,,,2017_Jul_24_1153,60.008603469,FEMA4ImagesEEG,001,101057,
AFNE01.JPG,AFNE01.JPG,AFNE01.JPG,AFNE01.JPG,AFNE01.JPG,AFNE01.JPG,,,,,1,9,19,4,,,,,,,,,,,,,,,,,,,AMSA02.jpg,AMNE07.jpg,AMNE14.jpg,AMSA19.jpg,AMNE07.jpg,MN,1,num_6,16,num_6,0.566783704679,,,2017_Jul_24_1153,60.008603469,FEMA4ImagesEEG,001,101057,
AFNE01.JPG,AFNE01.JPG,AFNE01.JPG,AFNE01.JPG,AFNE01.JPG,AFNE01.JPG,,,,,2,0,20,5,,,,,,,,,,,,,,,,,,,AMSA03.jpg,AMNE06.jpg,AMSA09.jpg,AMNE02.jpg,AMNE02.jpg,MN,1,num_4,32,num_8,1.56671185896,,,2017_Jul_24_1153,60.008603469,FEMA4ImagesEEG,001,101057,
AFNE01.JPG,AFNE01.JPG,AFNE01.JPG,AFNE01.JPG,AFNE01.JPG,AFNE01.JPG,,,,,2,1,21,3,,,,,,,,,,,,,,,,,,,AMNE13.jpg,AMNE08.jpg,AMSA14.jpg,AMSA16.jpg,AMSA16.jpg,MS,2,num_4,32,num_8,0.900401534629,,,2017_Jul_24_1153,60.008603469,FEMA4ImagesEEG,001,101057,
AFNE01.JPG,AFNE01.JPG,AFNE01.JPG,AFNE01.JPG,AFNE01.JPG,AFNE01.JPG,,,,,2,2,22,9,,,,,,,,,,,,,,,,,,,AMSA15.jpg,AMNE11.jpg,AMSA13.jpg,AMNE07.jpg,AMNE07.jpg,MN,1,num_4,32,num_2,1.73338157265,,,2017_Jul_24_1153,60.008603469,FEMA4ImagesEEG,001,101057,
AFNE01.JPG,AFNE01.JPG,AFNE01.JPG,AFNE01.JPG,AFNE01.JPG,AFNE01.JPG,,,,,2,3,23,7,,,,,,,,,,,,,,,,,,,AMSA16.jpg,AMNE17.jpg,AMNE01.jpg,AMSA10.jpg,AMNE17.jpg,MN,1,num_6,32,num_4,0.933443218935,,,2017_Jul_24_1153,60.008603469,FEMA4ImagesEEG,001,101057,
AFNE01.JPG,AFNE01.JPG,AFNE01.JPG,AFNE01.JPG,AFNE01.JPG,AFNE01.JPG,,,,,2,4,24,2,,,,,,,,,,,,,,,,,,,AMNE19.jpg,AMNE16.jpg,AMSA03.jpg,AMSA09.jpg,AMSA09.jpg,MS,2,num_4,16,num_4,0.866639788612,,,2017_Jul_24_1153,60.008603469,FEMA4ImagesEEG,001,101057,
AFNE01.JPG,AFNE01.JPG,AFNE01.JPG,AFNE01.JPG,AFNE01.JPG,AFNE01.JPG,,,,,2,5,25,4,,,,,,,,,,,,,,,,,,,AMNE20.jpg,AMSA04.jpg,AMSA02.jpg,AMNE09.jpg,AMNE20.jpg,MN,1,num_8,16,num_8,1.36670762522,,,2017_Jul_24_1153,60.008603469,FEMA4ImagesEEG,001,101057,
AFNE01.JPG,AFNE01.JPG,AFNE01.JPG,AFNE01.JPG,AFNE01.JPG,AFNE01.JPG,,,,,2,6,26,6,,,,,,,,,,,,,,,,,,,AMSA11.jpg,AMNE17.jpg,AMSA02.jpg,AMNE01.jpg,AMNE17.jpg,MN,1,num_6,16,num_6,0.783325298806,,,2017_Jul_24_1153,60.008603469,FEMA4ImagesEEG,001,101057,
AFNE01.JPG,AFNE01.JPG,AFNE01.JPG,AFNE01.JPG,AFNE01.JPG,AFNE01.JPG,,,,,2,7,27,1,,,,,,,,,,,,,,,,,,,AMNE18.jpg,AMSA18.jpg,AMSA04.jpg,AMNE19.jpg,AMNE19.jpg,MN,1,num_4,32,num_8,0.883427646942,,,2017_Jul_24_1153,60.008603469,FEMA4ImagesEEG,001,101057,
AFNE01.JPG,AFNE01.JPG,AFNE01.JPG,AFNE01.JPG,AFNE01.JPG,AFNE01.JPG,,,,,2,8,28,0,,,,,,,,,,,,,,,,,,,AMSA15.jpg,AMSA12.jpg,AMNE08.jpg,AMNE15.jpg,AMSA15.jpg,MS,2,num_8,32,num_4,0.950082895346,,,2017_Jul_24_1153,60.008603469,FEMA4ImagesEEG,001,101057,
AFNE01.JPG,AFNE01.JPG,AFNE01.JPG,AFNE01.JPG,AFNE01.JPG,AFNE01.JPG,,,,,2,9,29,8,,,,,,,,,,,,,,,,,,,AMNE19.jpg,AMSA16.jpg,AMSA09.jpg,AMNE14.jpg,AMSA16.jpg,MS,2,num_6,16,num_6,0.666731135454,,,2017_Jul_24_1153,60.008603469,FEMA4ImagesEEG,001,101057,
AFNE01.JPG,AFNE01.JPG,AFNE01.JPG,AFNE01.JPG,AFNE01.JPG,AFNE01.JPG,,,,,3,0,30,6,,,,,,,,,,,,,,,,,,,AMNE08.jpg,AMNE04.jpg,AMSA02.jpg,AMSA14.jpg,AMSA02.jpg,MS,2,num_2,16,num_2,0.966722892364,,,2017_Jul_24_1153,60.008603469,FEMA4ImagesEEG,001,101057,
AFNE01.JPG,AFNE01.JPG,AFNE01.JPG,AFNE01.JPG,AFNE01.JPG,AFNE01.JPG,,,,,3,1,31,5,,,,,,,,,,,,,,,,,,,AMSA04.jpg,AMNE17.jpg,AMSA05.jpg,AMNE08.jpg,AMSA05.jpg,MS,2,num_2,16,num_2,0.866881626658,,,2017_Jul_24_1153,60.008603469,FEMA4ImagesEEG,001,101057,
AFNE01.JPG,AFNE01.JPG,AFNE01.JPG,AFNE01.JPG,AFNE01.JPG,AFNE01.JPG,,,,,3,2,32,2,,,,,,,,,,,,,,,,,,,AMNE18.jpg,AMSA13.jpg,AMNE06.jpg,AMSA16.jpg,AMNE06.jpg,MN,1,num_2,16,num_2,0.933259755489,,,2017_Jul_24_1153,60.008603469,FEMA4ImagesEEG,001,101057,
AFNE01.JPG,AFNE01.JPG,AFNE01.JPG,AFNE01.JPG,AFNE01.JPG,AFNE01.JPG,,,,,3,3,33,0,,,,,,,,,,,,,,,,,,,AMSA15.jpg,AMNE03.jpg,AMSA06.jpg,AMNE07.jpg,AMNE03.jpg,MN,1,num_6,16,num_6,1.0001186739,,,2017_Jul_24_1153,60.008603469,FEMA4ImagesEEG,001,101057,
AFNE01.JPG,AFNE01.JPG,AFNE01.JPG,AFNE01.JPG,AFNE01.JPG,AFNE01.JPG,,,,,3,4,34,9,,,,,,,,,,,,,,,,,,,AMSA01.jpg,AMNE12.jpg,AMNE02.jpg,AMSA14.jpg,AMSA01.jpg,MS,2,num_8,32,num_2,1.0501310383,,,2017_Jul_24_1153,60.008603469,FEMA4ImagesEEG,001,101057,
AFNE01.JPG,AFNE01.JPG,AFNE01.JPG,AFNE01.JPG,AFNE01.JPG,AFNE01.JPG,,,,,3,5,35,1,,,,,,,,,,,,,,,,,,,AMNE06.jpg,AMSA13.jpg,AMSA05.jpg,AMNE03.jpg,AMNE06.jpg,MN,1,num_8,32,num_2,0.916727206437,,,2017_Jul_24_1153,60.008603469,FEMA4ImagesEEG,001,101057,
AFNE01.JPG,AFNE01.JPG,AFNE01.JPG,AFNE01.JPG,AFNE01.JPG,AFNE01.JPG,,,,,3,6,36,7,,,,,,,,,,,,,,,,,,,AMNE07.jpg,AMNE20.jpg,AMSA12.jpg,AMSA03.jpg,AMSA12.jpg,MS,2,num_2,16,num_2,1.23346640833,,,2017_Jul_24_1153,60.008603469,FEMA4ImagesEEG,001,101057,
AFNE01.JPG,AFNE01.JPG,AFNE01.JPG,AFNE01.JPG,AFNE01.JPG,AFNE01.JPG,,,,,3,7,37,3,,,,,,,,,,,,,,,,,,,AMSA20.jpg,AMSA10.jpg,AMNE07.jpg,AMNE14.jpg,AMSA20.jpg,MS,2,num_8,32,num_2,1.01675802947,,,2017_Jul_24_1153,60.008603469,FEMA4ImagesEEG,001,101057,
AFNE01.JPG,AFNE01.JPG,AFNE01.JPG,AFNE01.JPG,AFNE01.JPG,AFNE01.JPG,,,,,3,8,38,4,,,,,,,,,,,,,,,,,,,AMSA17.jpg,AMNE19.jpg,AMSA11.jpg,AMNE03.jpg,AMNE19.jpg,MN,1,num_6,16,num_6,0.816673931433,,,2017_Jul_24_1153,60.008603469,FEMA4ImagesEEG,001,101057,
AFNE01.JPG,AFNE01.JPG,AFNE01.JPG,AFNE01.JPG,AFNE01.JPG,AFNE01.JPG,,,,,3,9,39,8,,,,,,,,,,,,,,,,,,,AMSA07.jpg,AMSA18.jpg,AMNE19.jpg,AMNE20.jpg,AMSA18.jpg,MS,2,num_6,32,num_8,0.700147444149,,,2017_Jul_24_1153,60.008603469,FEMA4ImagesEEG,001,101057,
AFNE01.JPG,AFNE01.JPG,AFNE01.JPG,AFNE01.JPG,AFNE01.JPG,AFNE01.JPG,,,,,4,0,40,7,,,,,,,,,,,,,,,,,,,AMNE12.jpg,AMNE10.jpg,AMSA08.jpg,AMSA04.jpg,AMSA08.jpg,MS,2,num_2,16,num_2,0.849994018208,,,2017_Jul_24_1153,60.008603469,FEMA4ImagesEEG,001,101057,
AFNE01.JPG,AFNE01.JPG,AFNE01.JPG,AFNE01.JPG,AFNE01.JPG,AFNE01.JPG,,,,,4,1,41,9,,,,,,,,,,,,,,,,,,,AMNE19.jpg,AMSA09.jpg,AMSA14.jpg,AMNE20.jpg,AMNE20.jpg,MN,1,num_4,32,num_2,0.883505586768,,,2017_Jul_24_1153,60.008603469,FEMA4ImagesEEG,001,101057,
AFNE01.JPG,AFNE01.JPG,AFNE01.JPG,AFNE01.JPG,AFNE01.JPG,AFNE01.JPG,,,,,4,2,42,0,,,,,,,,,,,,,,,,,,,AMSA06.jpg,AMNE14.jpg,AMNE17.jpg,AMSA12.jpg,AMSA12.jpg,MS,2,num_4,32,num_2,0.833447035635,,,2017_Jul_24_1153,60.008603469,FEMA4ImagesEEG,001,101057,
AFNE01.JPG,AFNE01.JPG,AFNE01.JPG,AFNE01.JPG,AFNE01.JPG,AFNE01.JPG,,,,,4,3,43,4,,,,,,,,,,,,,,,,,,,AMNE06.jpg,AMSA17.jpg,AMSA15.jpg,AMNE04.jpg,AMSA15.jpg,MS,2,num_2,16,num_2,1.01675995393,,,2017_Jul_24_1153,60.008603469,FEMA4ImagesEEG,001,101057,
AFNE01.JPG,AFNE01.JPG,AFNE01.JPG,AFNE01.JPG,AFNE01.JPG,AFNE01.JPG,,,,,4,4,44,5,,,,,,,,,,,,,,,,,,,AMNE07.jpg,AMSA20.jpg,AMSA05.jpg,AMNE06.jpg,AMSA05.jpg,MS,2,num_2,16,num_2,0.61705586873,,,2017_Jul_24_1153,60.008603469,FEMA4ImagesEEG,001,101057,
AFNE01.JPG,AFNE01.JPG,AFNE01.JPG,AFNE01.JPG,AFNE01.JPG,AFNE01.JPG,,,,,4,5,45,6,,,,,,,,,,,,,,,,,,,AMSA16.jpg,AMSA09.jpg,AMNE01.jpg,AMNE18.jpg,AMSA09.jpg,MS,2,num_6,16,num_6,0.633358768071,,,2017_Jul_24_1153,60.008603469,FEMA4ImagesEEG,001,101057,
AFNE01.JPG,AFNE01.JPG,AFNE01.JPG,AFNE01.JPG,AFNE01.JPG,AFNE01.JPG,,,,,4,6,46,2,,,,,,,,,,,,,,,,,,,AMNE10.jpg,AMNE15.jpg,AMSA14.jpg,AMSA04.jpg,AMSA04.jpg,MS,2,num_4,32,num_6,1.83346660086,,,2017_Jul_24_1153,60.008603469,FEMA4ImagesEEG,001,101057,
AFNE01.JPG,AFNE01.JPG,AFNE01.JPG,AFNE01.JPG,AFNE01.JPG,AFNE01.JPG,,,,,4,7,47,1,,,,,,,,,,,,,,,,,,,AMNE02.jpg,AMSA14.jpg,AMSA05.jpg,AMNE04.jpg,AMNE04.jpg,MN,1,num_4,16,num_4,1.05007907841,,,2017_Jul_24_1153,60.008603469,FEMA4ImagesEEG,001,101057,
AFNE01.JPG,AFNE01.JPG,AFNE01.JPG,AFNE01.JPG,AFNE01.JPG,AFNE01.JPG,,,,,4,8,48,3,,,,,,,,,,,,,,,,,,,AMSA08.jpg,AMNE16.jpg,AMSA02.jpg,AMNE05.jpg,AMNE05.jpg,MN,1,num_4,32,num_2,0.983427037485,,,2017_Jul_24_1153,60.008603469,FEMA4ImagesEEG,001,101057,
AFNE01.JPG,AFNE01.JPG,AFNE01.JPG,AFNE01.JPG,AFNE01.JPG,AFNE01.JPG,,,,,4,9,49,8,,,,,,,,,,,,,,,,,,,AMNE02.jpg,AMNE10.jpg,AMSA07.jpg,AMSA19.jpg,AMNE02.jpg,MN,1,num_8,32,num_4,0.733437060611,,,2017_Jul_24_1153,60.008603469,FEMA4ImagesEEG,001,101057,
AFNE01.JPG,AFNE01.JPG,AFNE01.JPG,AFNE01.JPG,AFNE01.JPG,AFNE01.JPG,,,,,5,0,50,8,,,,,,,,,,,,,,,,,,,AMNE13.jpg,AMSA04.jpg,AMNE20.jpg,AMSA01.jpg,AMNE20.jpg,MN,1,num_2,16,num_2,0.900112227071,,,2017_Jul_24_1153,60.008603469,FEMA4ImagesEEG,001,101057,
AFNE01.JPG,AFNE01.JPG,AFNE01.JPG,AFNE01.JPG,AFNE01.JPG,AFNE01.JPG,,,,,5,1,51,5,,,,,,,,,,,,,,,,,,,AMSA07.jpg,AMNE09.jpg,AMSA15.jpg,AMNE05.jpg,AMSA07.jpg,MS,2,num_8,16,num_8,0.983443716075,,,2017_Jul_24_1153,60.008603469,FEMA4ImagesEEG,001,101057,
AFNE01.JPG,AFNE01.JPG,AFNE01.JPG,AFNE01.JPG,AFNE01.JPG,AFNE01.JPG,,,,,5,2,52,7,,,,,,,,,,,,,,,,,,,AMSA12.jpg,AMNE02.jpg,AMNE15.jpg,AMSA09.jpg,AMNE02.jpg,MN,1,num_6,16,num_6,0.783117459156,,,2017_Jul_24_1153,60.008603469,FEMA4ImagesEEG,001,101057,
AFNE01.JPG,AFNE01.JPG,AFNE01.JPG,AFNE01.JPG,AFNE01.JPG,AFNE01.JPG,,,,,5,3,53,6,,,,,,,,,,,,,,,,,,,AMSA14.jpg,AMSA16.jpg,AMNE12.jpg,AMNE05.jpg,AMSA14.jpg,MS,2,num_8,32,num_2,0.916736507788,,,2017_Jul_24_1153,60.008603469,FEMA4ImagesEEG,001,101057,
AFNE01.JPG,AFNE01.JPG,AFNE01.JPG,AFNE01.JPG,AFNE01.JPG,AFNE01.JPG,,,,,5,4,54,0,,,,,,,,,,,,,,,,,,,AMNE01.jpg,AMNE16.jpg,AMSA12.jpg,AMSA01.jpg,AMNE01.jpg,MN,1,num_8,16,num_8,0.850124238641,,,2017_Jul_24_1153,60.008603469,FEMA4ImagesEEG,001,101057,
AFNE01.JPG,AFNE01.JPG,AFNE01.JPG,AFNE01.JPG,AFNE01.JPG,AFNE01.JPG,,,,,5,5,55,2,,,,,,,,,,,,,,,,,,,AMNE14.jpg,AMNE12.jpg,AMSA18.jpg,AMSA03.jpg,AMNE14.jpg,MN,1,num_8,32,num_4,0.983400095371,,,2017_Jul_24_1153,60.008603469,FEMA4ImagesEEG,001,101057,
AFNE01.JPG,AFNE01.JPG,AFNE01.JPG,AFNE01.JPG,AFNE01.JPG,AFNE01.JPG,,,,,5,6,56,1,,,,,,,,,,,,,,,,,,,AMNE07.jpg,AMSA05.jpg,AMSA09.jpg,AMNE14.jpg,AMNE07.jpg,MN,1,num_8,16,num_8,0.683452600613,,,2017_Jul_24_1153,60.008603469,FEMA4ImagesEEG,001,101057,
AFNE01.JPG,AFNE01.JPG,AFNE01.JPG,AFNE01.JPG,AFNE01.JPG,AFNE01.JPG,,,,,5,7,57,9,,,,,,,,,,,,,,,,,,,AMNE19.jpg,AMSA17.jpg,AMNE17.jpg,AMSA18.jpg,AMNE17.jpg,MN,1,num_2,16,num_2,1.15006563941,,,2017_Jul_24_1153,60.008603469,FEMA4ImagesEEG,001,101057,
AFNE01.JPG,AFNE01.JPG,AFNE01.JPG,AFNE01.JPG,AFNE01.JPG,AFNE01.JPG,,,,,5,8,58,4,,,,,,,,,,,,,,,,,,,AMNE15.jpg,AMSA01.jpg,AMNE01.jpg,AMSA15.jpg,AMSA01.jpg,MS,2,num_6,32,num_2,1.11672502535,,,2017_Jul_24_1153,60.008603469,FEMA4ImagesEEG,001,101057,
AFNE01.JPG,AFNE01.JPG,AFNE01.JPG,AFNE01.JPG,AFNE01.JPG,AFNE01.JPG,,,,,5,9,59,3,,,,,,,,,,,,,,,,,,,AMNE17.jpg,AMSA15.jpg,AMNE16.jpg,AMSA20.jpg,AMSA15.jpg,MS,2,num_6,16,num_6,0.616954194149,,,2017_Jul_24_1153,60.008603469,FEMA4ImagesEEG,001,101057,
,,,,,,,,,,,,,,,,,,,,,,,,,,,,,,,,,,,,,,,,,,,space,2.9832525549,2017_Jul_24_1153,60.008603469,FEMA4ImagesEEG,001,101057,
AFNE01.JPG,AFNE01.JPG,AFNE01.JPG,AFNE01.JPG,AFNE01.JPG,AFNE01.JPG,,,,,,,,,0,0,0,2,,,,,,,,,,,,,,,AFSA15.jpg,AFNE06.jpg,AFSA16.jpg,AFNE18.jpg,AFNE18.jpg,FN,3,num_4,32,num_6,0.633471668465,,,2017_Jul_24_1153,60.008603469,FEMA4ImagesEEG,001,101057,
AFNE01.JPG,AFNE01.JPG,AFNE01.JPG,AFNE01.JPG,AFNE01.JPG,AFNE01.JPG,,,,,,,,,0,1,1,6,,,,,,,,,,,,,,,AFNE06.jpg,AFSA10.jpg,AFSA08.jpg,AFNE14.jpg,AFNE06.jpg,FN,3,num_8,32,num_6,0.983451093081,,,2017_Jul_24_1153,60.008603469,FEMA4ImagesEEG,001,101057,
AFNE01.JPG,AFNE01.JPG,AFNE01.JPG,AFNE01.JPG,AFNE01.JPG,AFNE01.JPG,,,,,,,,,0,2,2,0,,,,,,,,,,,,,,,AFSA18.jpg,AFSA09.jpg,AFNE09.jpg,AFNE14.jpg,AFSA09.jpg,FS,4,num_6,16,num_6,0.566742329276,,,2017_Jul_24_1153,60.008603469,FEMA4ImagesEEG,001,101057,
AFNE01.JPG,AFNE01.JPG,AFNE01.JPG,AFNE01.JPG,AFNE01.JPG,AFNE01.JPG,,,,,,,,,0,3,3,1,,,,,,,,,,,,,,,AFNE03.jpg,AFSA03.jpg,AFSA19.jpg,AFNE16.jpg,AFSA03.jpg,FS,4,num_6,32,num_2,0.900110302609,,,2017_Jul_24_1153,60.008603469,FEMA4ImagesEEG,001,101057,
AFNE01.JPG,AFNE01.JPG,AFNE01.JPG,AFNE01.JPG,AFNE01.JPG,AFNE01.JPG,,,,,,,,,0,4,4,3,,,,,,,,,,,,,,,AFNE05.jpg,AFSA11.jpg,AFNE12.jpg,AFSA14.jpg,AFSA11.jpg,FS,4,num_6,16,num_6,0.716764348093,,,2017_Jul_24_1153,60.008603469,FEMA4ImagesEEG,001,101057,
AFNE01.JPG,AFNE01.JPG,AFNE01.JPG,AFNE01.JPG,AFNE01.JPG,AFNE01.JPG,,,,,,,,,0,5,5,5,,,,,,,,,,,,,,,AFSA10.jpg,AFNE05.jpg,AFSA08.jpg,AFNE12.jpg,AFNE05.jpg,FN,3,num_6,16,num_6,0.80010064831,,,2017_Jul_24_1153,60.008603469,FEMA4ImagesEEG,001,101057,
AFNE01.JPG,AFNE01.JPG,AFNE01.JPG,AFNE01.JPG,AFNE01.JPG,AFNE01.JPG,,,,,,,,,0,6,6,9,,,,,,,,,,,,,,,AFNE02.jpg,AFSA06.jpg,AFSA16.jpg,AFNE10.jpg,AFNE10.jpg,FN,3,num_4,32,num_2,1.15032351448,,,2017_Jul_24_1153,60.008603469,FEMA4ImagesEEG,001,101057,
AFNE01.JPG,AFNE01.JPG,AFNE01.JPG,AFNE01.JPG,AFNE01.JPG,AFNE01.JPG,,,,,,,,,0,7,7,8,,,,,,,,,,,,,,,AFSA12.jpg,AFNE09.jpg,AFNE14.jpg,AFSA02.jpg,AFSA02.jpg,FS,4,num_4,32,num_8,0.500168548897,,,2017_Jul_24_1153,60.008603469,FEMA4ImagesEEG,001,101057,
AFNE01.JPG,AFNE01.JPG,AFNE01.JPG,AFNE01.JPG,AFNE01.JPG,AFNE01.JPG,,,,,,,,,0,8,8,7,,,,,,,,,,,,,,,AFSA14.jpg,AFNE06.jpg,AFNE19.jpg,AFSA18.jpg,AFNE19.jpg,FN,3,num_2,16,num_2,1.1668528564,,,2017_Jul_24_1153,60.008603469,FEMA4ImagesEEG,001,101057,
AFNE01.JPG,AFNE01.JPG,AFNE01.JPG,AFNE01.JPG,AFNE01.JPG,AFNE01.JPG,,,,,,,,,0,9,9,4,,,,,,,,,,,,,,,AFSA07.jpg,AFNE15.jpg,AFSA06.jpg,AFNE19.jpg,AFSA07.jpg,FS,4,num_8,32,num_2,1.16671750392,,,2017_Jul_24_1153,60.008603469,FEMA4ImagesEEG,001,101057,
AFNE01.JPG,AFNE01.JPG,AFNE01.JPG,AFNE01.JPG,AFNE01.JPG,AFNE01.JPG,,,,,,,,,1,0,10,0,,,,,,,,,,,,,,,AFNE16.jpg,AFNE11.jpg,AFSA18.jpg,AFSA14.jpg,AFNE16.jpg,FN,3,num_8,16,num_8,1.95009989454,,,2017_Jul_24_1153,60.008603469,FEMA4ImagesEEG,001,101057,
AFNE01.JPG,AFNE01.JPG,AFNE01.JPG,AFNE01.JPG,AFNE01.JPG,AFNE01.JPG,,,,,,,,,1,1,11,8,,,,,,,,,,,,,,,AFSA01.jpg,AFSA05.jpg,AFNE03.jpg,AFNE05.jpg,AFSA01.jpg,FS,4,num_8,32,num_2,0.866777706891,,,2017_Jul_24_1153,60.008603469,FEMA4ImagesEEG,001,101057,
AFNE01.JPG,AFNE01.JPG,AFNE01.JPG,AFNE01.JPG,AFNE01.JPG,AFNE01.JPG,,,,,,,,,1,2,12,2,,,,,,,,,,,,,,,AFNE16.jpg,AFSA06.jpg,AFNE08.jpg,AFSA20.jpg,AFSA20.jpg,FS,4,num_4,32,num_6,0.850107239559,,,2017_Jul_24_1153,60.008603469,FEMA4ImagesEEG,001,101057,
AFNE01.JPG,AFNE01.JPG,AFNE01.JPG,AFNE01.JPG,AFNE01.JPG,AFNE01.JPG,,,,,,,,,1,3,13,6,,,,,,,,,,,,,,,AFNE11.jpg,AFNE10.jpg,AFSA14.jpg,AFSA05.jpg,AFNE10.jpg,FN,3,num_6,16,num_6,0.633457876742,,,2017_Jul_24_1153,60.008603469,FEMA4ImagesEEG,001,101057,
AFNE01.JPG,AFNE01.JPG,AFNE01.JPG,AFNE01.JPG,AFNE01.JPG,AFNE01.JPG,,,,,,,,,1,4,14,4,,,,,,,,,,,,,,,AFSA01.jpg,AFNE02.jpg,AFSA07.jpg,AFNE13.jpg,AFNE02.jpg,FN,3,num_6,16,num_6,0.916793599608,,,2017_Jul_24_1153,60.008603469,FEMA4ImagesEEG,001,101057,
AFNE01.JPG,AFNE01.JPG,AFNE01.JPG,AFNE01.JPG,AFNE01.JPG,AFNE01.JPG,,,,,,,,,1,5,15,7,,,,,,,,,,,,,,,AFSA03.jpg,AFNE08.jpg,AFNE20.jpg,AFSA11.jpg,AFNE08.jpg,FN,3,num_6,32,num_4,1.01675129391,,,2017_Jul_24_1153,60.008603469,FEMA4ImagesEEG,001,101057,
AFNE01.JPG,AFNE01.JPG,AFNE01.JPG,AFNE01.JPG,AFNE01.JPG,AFNE01.JPG,,,,,,,,,1,6,16,3,,,,,,,,,,,,,,,AFSA12.jpg,AFSA06.jpg,AFNE16.jpg,AFNE07.jpg,AFNE07.jpg,FN,3,num_4,32,num_2,1.01675610512,,,2017_Jul_24_1153,60.008603469,FEMA4ImagesEEG,001,101057,
AFNE01.JPG,AFNE01.JPG,AFNE01.JPG,AFNE01.JPG,AFNE01.JPG,AFNE01.JPG,,,,,,,,,1,7,17,5,,,,,,,,,,,,,,,AFSA16.jpg,AFNE17.jpg,AFSA10.jpg,AFNE05.jpg,AFSA10.jpg,FS,4,num_2,16,num_2,1.13350294065,,,2017_Jul_24_1153,60.008603469,FEMA4ImagesEEG,001,101057,
AFNE01.JPG,AFNE01.JPG,AFNE01.JPG,AFNE01.JPG,AFNE01.JPG,AFNE01.JPG,,,,,,,,,1,8,18,1,,,,,,,,,,,,,,,AFSA11.jpg,AFNE16.jpg,AFSA03.jpg,AFNE01.jpg,AFSA03.jpg,FS,4,num_2,16,num_2,1.10019215546,,,2017_Jul_24_1153,60.008603469,FEMA4ImagesEEG,001,101057,
AFNE01.JPG,AFNE01.JPG,AFNE01.JPG,AFNE01.JPG,AFNE01.JPG,AFNE01.JPG,,,,,,,,,1,9,19,9,,,,,,,,,,,,,,,AFSA13.jpg,AFSA08.jpg,AFNE07.jpg,AFNE03.jpg,AFSA13.jpg,FS,4,num_8,16,num_8,0.666798490798,,,2017_Jul_24_1153,60.008603469,FEMA4ImagesEEG,001,101057,
AFNE01.JPG,AFNE01.JPG,AFNE01.JPG,AFNE01.JPG,AFNE01.JPG,AFNE01.JPG,,,,,,,,,2,0,20,0,,,,,,,,,,,,,,,AFSA11.jpg,AFSA16.jpg,AFNE12.jpg,AFNE09.jpg,AFNE09.jpg,FN,3,num_4,32,num_6,1.18346206238,,,2017_Jul_24_1153,60.008603469,FEMA4ImagesEEG,001,101057,
AFNE01.JPG,AFNE01.JPG,AFNE01.JPG,AFNE01.JPG,AFNE01.JPG,AFNE01.JPG,,,,,,,,,2,1,21,3,,,,,,,,,,,,,,,AFSA12.jpg,AFSA13.jpg,AFNE05.jpg,AFNE13.jpg,AFSA12.jpg,FS,4,num_8,16,num_8,0.883461004007,,,2017_Jul_24_1153,60.008603469,FEMA4ImagesEEG,001,101057,
AFNE01.JPG,AFNE01.JPG,AFNE01.JPG,AFNE01.JPG,AFNE01.JPG,AFNE01.JPG,,,,,,,,,2,2,22,2,,,,,,,,,,,,,,,AFNE14.jpg,AFSA01.jpg,AFSA20.jpg,AFNE13.jpg,AFNE13.jpg,FN,3,num_4,32,num_8,1.15010926011,,,2017_Jul_24_1153,60.008603469,FEMA4ImagesEEG,001,101057,
AFNE01.JPG,AFNE01.JPG,AFNE01.JPG,AFNE01.JPG,AFNE01.JPG,AFNE01.JPG,,,,,,,,,2,3,23,5,,,,,,,,,,,,,,,AFNE19.jpg,AFSA04.jpg,AFNE13.jpg,AFSA02.jpg,AFNE13.jpg,FN,3,num_2,16,num_2,0.950301639969,,,2017_Jul_24_1153,60.008603469,FEMA4ImagesEEG,001,101057,
AFNE01.JPG,AFNE01.JPG,AFNE01.JPG,AFNE01.JPG,AFNE01.JPG,AFNE01.JPG,,,,,,,,,2,4,24,9,,,,,,,,,,,,,,,AFNE09.jpg,AFSA16.jpg,AFSA05.jpg,AFNE17.jpg,AFNE09.jpg,FN,3,num_8,16,num_8,0.866803686833,,,2017_Jul_24_1153,60.008603469,FEMA4ImagesEEG,001,101057,
AFNE01.JPG,AFNE01.JPG,AFNE01.JPG,AFNE01.JPG,AFNE01.JPG,AFNE01.JPG,,,,,,,,,2,5,25,4,,,,,,,,,,,,,,,AFNE19.jpg,AFNE17.jpg,AFSA05.jpg,AFSA02.jpg,AFSA02.jpg,FS,4,num_4,32,num_8,2.38340054441,,,2017_Jul_24_1153,60.008603469,FEMA4ImagesEEG,001,101057,
AFNE01.JPG,AFNE01.JPG,AFNE01.JPG,AFNE01.JPG,AFNE01.JPG,AFNE01.JPG,,,,,,,,,2,6,26,6,,,,,,,,,,,,,,,AFSA19.jpg,AFSA04.jpg,AFNE08.jpg,AFNE06.jpg,AFNE06.jpg,FN,3,num_4,16,num_4,0.883462607628,,,2017_Jul_24_1153,60.008603469,FEMA4ImagesEEG,001,101057,
AFNE01.JPG,AFNE01.JPG,AFNE01.JPG,AFNE01.JPG,AFNE01.JPG,AFNE01.JPG,,,,,,,,,2,7,27,8,,,,,,,,,,,,,,,AFSA18.jpg,AFNE13.jpg,AFNE15.jpg,AFSA02.jpg,AFSA18.jpg,FS,4,num_8,16,num_8,1.38343390147,,,2017_Jul_24_1153,60.008603469,FEMA4ImagesEEG,001,101057,
AFNE01.JPG,AFNE01.JPG,AFNE01.JPG,AFNE01.JPG,AFNE01.JPG,AFNE01.JPG,,,,,,,,,2,8,28,7,,,,,,,,,,,,,,,AFSA06.jpg,AFNE16.jpg,AFNE13.jpg,AFSA19.jpg,AFNE13.jpg,FN,3,num_2,32,num_8,1.05011179391,,,2017_Jul_24_1153,60.008603469,FEMA4ImagesEEG,001,101057,
AFNE01.JPG,AFNE01.JPG,AFNE01.JPG,AFNE01.JPG,AFNE01.JPG,AFNE01.JPG,,,,,,,,,2,9,29,1,,,,,,,,,,,,,,,AFNE01.jpg,AFSA11.jpg,AFNE14.jpg,AFSA09.jpg,AFSA11.jpg,FS,4,num_6,32,num_2,0.883448495064,,,2017_Jul_24_1153,60.008603469,FEMA4ImagesEEG,001,101057,
AFNE01.JPG,AFNE01.JPG,AFNE01.JPG,AFNE01.JPG,AFNE01.JPG,AFNE01.JPG,,,,,,,,,3,0,30,7,,,,,,,,,,,,,,,AFSA11.jpg,AFSA10.jpg,AFNE19.jpg,AFNE08.jpg,AFSA10.jpg,FS,4,num_6,16,num_6,0.950140307774,,,2017_Jul_24_1153,60.008603469,FEMA4ImagesEEG,001,101057,
AFNE01.JPG,AFNE01.JPG,AFNE01.JPG,AFNE01.JPG,AFNE01.JPG,AFNE01.JPG,,,,,,,,,3,1,31,5,,,,,,,,,,,,,,,AFSA01.jpg,AFNE01.jpg,AFNE13.jpg,AFSA14.jpg,AFSA14.jpg,FS,4,num_4,16,num_4,0.783481820021,,,2017_Jul_24_1153,60.008603469,FEMA4ImagesEEG,001,101057,
AFNE01.JPG,AFNE01.JPG,AFNE01.JPG,AFNE01.JPG,AFNE01.JPG,AFNE01.JPG,,,,,,,,,3,2,32,3,,,,,,,,,,,,,,,AFSA15.jpg,AFSA13.jpg,AFNE20.jpg,AFNE04.jpg,AFNE04.jpg,FN,3,num_4,32,num_2,0.66679175524,,,2017_Jul_24_1153,60.008603469,FEMA4ImagesEEG,001,101057,
AFNE01.JPG,AFNE01.JPG,AFNE01.JPG,AFNE01.JPG,AFNE01.JPG,AFNE01.JPG,,,,,,,,,3,3,33,6,,,,,,,,,,,,,,,AFNE18.jpg,AFNE05.jpg,AFSA20.jpg,AFSA05.jpg,AFSA05.jpg,FS,4,num_4,32,num_2,1.80010610085,,,2017_Jul_24_1153,60.008603469,FEMA4ImagesEEG,001,101057,
AFNE01.JPG,AFNE01.JPG,AFNE01.JPG,AFNE01.JPG,AFNE01.JPG,AFNE01.JPG,,,,,,,,,3,4,34,0,,,,,,,,,,,,,,,AFSA10.jpg,AFNE08.jpg,AFNE10.jpg,AFSA11.jpg,AFSA11.jpg,FS,4,num_4,32,num_2,0.700131727965,,,2017_Jul_24_1153,60.008603469,FEMA4ImagesEEG,001,101057,
AFNE01.JPG,AFNE01.JPG,AFNE01.JPG,AFNE01.JPG,AFNE01.JPG,AFNE01.JPG,,,,,,,,,3,5,35,2,,,,,,,,,,,,,,,AFNE12.jpg,AFSA18.jpg,AFSA13.jpg,AFNE02.jpg,AFSA13.jpg,FS,4,num_2,16,num_2,0.900260729599,,,2017_Jul_24_1153,60.008603469,FEMA4ImagesEEG,001,101057,
AFNE01.JPG,AFNE01.JPG,AFNE01.JPG,AFNE01.JPG,AFNE01.JPG,AFNE01.JPG,,,,,,,,,3,6,36,9,,,,,,,,,,,,,,,AFNE06.jpg,AFSA13.jpg,AFSA09.jpg,AFNE11.jpg,AFSA13.jpg,FS,4,num_6,32,num_4,1.01679074496,,,2017_Jul_24_1153,60.008603469,FEMA4ImagesEEG,001,101057,
AFNE01.JPG,AFNE01.JPG,AFNE01.JPG,AFNE01.JPG,AFNE01.JPG,AFNE01.JPG,,,,,,,,,3,7,37,8,,,,,,,,,,,,,,,AFNE04.jpg,AFSA14.jpg,AFSA09.jpg,AFNE16.jpg,AFNE04.jpg,FN,3,num_8,32,num_4,1.28344701964,,,2017_Jul_24_1153,60.008603469,FEMA4ImagesEEG,001,101057,
AFNE01.JPG,AFNE01.JPG,AFNE01.JPG,AFNE01.JPG,AFNE01.JPG,AFNE01.JPG,,,,,,,,,3,8,38,4,,,,,,,,,,,,,,,AFSA07.jpg,AFNE10.jpg,AFSA05.jpg,AFNE13.jpg,AFSA05.jpg,FS,4,num_2,16,num_2,0.867036223412,,,2017_Jul_24_1153,60.008603469,FEMA4ImagesEEG,001,101057,
AFNE01.JPG,AFNE01.JPG,AFNE01.JPG,AFNE01.JPG,AFNE01.JPG,AFNE01.JPG,,,,,,,,,3,9,39,1,,,,,,,,,,,,,,,AFNE12.jpg,AFNE07.jpg,AFSA11.jpg,AFSA12.jpg,AFNE12.jpg,FN,3,num_8,32,num_6,1.06678226136,,,2017_Jul_24_1153,60.008603469,FEMA4ImagesEEG,001,101057,
AFNE01.JPG,AFNE01.JPG,AFNE01.JPG,AFNE01.JPG,AFNE01.JPG,AFNE01.JPG,,,,,,,,,4,0,40,1,,,,,,,,,,,,,,,AFSA08.jpg,AFSA11.jpg,AFNE07.jpg,AFNE17.jpg,AFNE07.jpg,FN,3,num_2,16,num_2,0.900173488306,,,2017_Jul_24_1153,60.008603469,FEMA4ImagesEEG,001,101057,
AFNE01.JPG,AFNE01.JPG,AFNE01.JPG,AFNE01.JPG,AFNE01.JPG,AFNE01.JPG,,,,,,,,,4,1,41,9,,,,,,,,,,,,,,,AFSA06.jpg,AFNE09.jpg,AFNE20.jpg,AFSA18.jpg,AFSA06.jpg,FS,4,num_8,32,num_2,0.783509724308,,,2017_Jul_24_1153,60.008603469,FEMA4ImagesEEG,001,101057,
AFNE01.JPG,AFNE01.JPG,AFNE01.JPG,AFNE01.JPG,AFNE01.JPG,AFNE01.JPG,,,,,,,,,4,2,42,0,,,,,,,,,,,,,,,AFSA16.jpg,AFNE13.jpg,AFSA02.jpg,AFNE10.jpg,AFSA16.jpg,FS,4,num_8,32,num_2,0.733481322881,,,2017_Jul_24_1153,60.008603469,FEMA4ImagesEEG,001,101057,
AFNE01.JPG,AFNE01.JPG,AFNE01.JPG,AFNE01.JPG,AFNE01.JPG,AFNE01.JPG,,,,,,,,,4,3,43,6,,,,,,,,,,,,,,,AFNE01.jpg,AFNE12.jpg,AFSA06.jpg,AFSA15.jpg,AFNE01.jpg,FN,3,num_8,32,num_2,0.683483391651,,,2017_Jul_24_1153,60.008603469,FEMA4ImagesEEG,001,101057,
AFNE01.JPG,AFNE01.JPG,AFNE01.JPG,AFNE01.JPG,AFNE01.JPG,AFNE01.JPG,,,,,,,,,4,4,44,7,,,,,,,,,,,,,,,AFSA07.jpg,AFSA01.jpg,AFNE16.jpg,AFNE20.jpg,AFSA01.jpg,FS,4,num_6,16,num_6,0.56677793141,,,2017_Jul_24_1153,60.008603469,FEMA4ImagesEEG,001,101057,
AFNE01.JPG,AFNE01.JPG,AFNE01.JPG,AFNE01.JPG,AFNE01.JPG,AFNE01.JPG,,,,,,,,,4,5,45,8,,,,,,,,,,,,,,,AFSA03.jpg,AFSA07.jpg,AFNE18.jpg,AFNE09.jpg,AFSA07.jpg,FS,4,num_6,32,num_2,0.533470674185,,,2017_Jul_24_1153,60.008603469,FEMA4ImagesEEG,001,101057,
AFNE01.JPG,AFNE01.JPG,AFNE01.JPG,AFNE01.JPG,AFNE01.JPG,AFNE01.JPG,,,,,,,,,4,6,46,5,,,,,,,,,,,,,,,AFNE07.jpg,AFSA18.jpg,AFSA15.jpg,AFNE18.jpg,AFSA15.jpg,FS,4,num_2,16,num_2,0.766741431202,,,2017_Jul_24_1153,60.008603469,FEMA4ImagesEEG,001,101057,
AFNE01.JPG,AFNE01.JPG,AFNE01.JPG,AFNE01.JPG,AFNE01.JPG,AFNE01.JPG,,,,,,,,,4,7,47,3,,,,,,,,,,,,,,,AFNE16.jpg,AFSA05.jpg,AFSA12.jpg,AFNE09.jpg,AFSA05.jpg,FS,4,num_6,16,num_6,1.14980455698,,,2017_Jul_24_1153,60.008603469,FEMA4ImagesEEG,001,101057,
AFNE01.JPG,AFNE01.JPG,AFNE01.JPG,AFNE01.JPG,AFNE01.JPG,AFNE01.JPG,,,,,,,,,4,8,48,2,,,,,,,,,,,,,,,AFSA09.jpg,AFNE13.jpg,AFSA10.jpg,AFNE17.jpg,AFNE17.jpg,FN,3,num_4,32,num_2,0.766767090419,,,2017_Jul_24_1153,60.008603469,FEMA4ImagesEEG,001,101057,
AFNE01.JPG,AFNE01.JPG,AFNE01.JPG,AFNE01.JPG,AFNE01.JPG,AFNE01.JPG,,,,,,,,,4,9,49,4,,,,,,,,,,,,,,,AFNE13.jpg,AFSA07.jpg,AFNE18.jpg,AFSA16.jpg,AFNE13.jpg,FN,3,num_8,32,num_2,0.883433741052,,,2017_Jul_24_1153,60.008603469,FEMA4ImagesEEG,001,101057,
AFNE01.JPG,AFNE01.JPG,AFNE01.JPG,AFNE01.JPG,AFNE01.JPG,AFNE01.JPG,,,,,,,,,5,0,50,2,,,,,,,,,,,,,,,AFNE18.jpg,AFSA11.jpg,AFNE06.jpg,AFSA05.jpg,AFSA11.jpg,FS,4,num_6,16,num_6,0.766766769695,,,2017_Jul_24_1153,60.008603469,FEMA4ImagesEEG,001,101057,
AFNE01.JPG,AFNE01.JPG,AFNE01.JPG,AFNE01.JPG,AFNE01.JPG,AFNE01.JPG,,,,,,,,,5,1,51,6,,,,,,,,,,,,,,,AFNE20.jpg,AFSA04.jpg,AFNE05.jpg,AFSA19.jpg,AFNE20.jpg,FN,3,num_8,32,num_6,0.833471091231,,,2017_Jul_24_1153,60.008603469,FEMA4ImagesEEG,001,101057,
AFNE01.JPG,AFNE01.JPG,AFNE01.JPG,AFNE01.JPG,AFNE01.JPG,AFNE01.JPG,,,,,,,,,5,2,52,1,,,,,,,,,,,,,,,AFSA13.jpg,AFSA02.jpg,AFNE11.jpg,AFNE16.jpg,AFSA13.jpg,FS,4,num_8,32,num_2,0.783474442898,,,2017_Jul_24_1153,60.008603469,FEMA4ImagesEEG,001,101057,
AFNE01.JPG,AFNE01.JPG,AFNE01.JPG,AFNE01.JPG,AFNE01.JPG,AFNE01.JPG,,,,,,,,,5,3,53,9,,,,,,,,,,,,,,,AFSA03.jpg,AFSA04.jpg,AFNE08.jpg,AFNE20.jpg,AFNE20.jpg,FN,3,num_4,32,num_8,0.666776038939,,,2017_Jul_24_1153,60.008603469,FEMA4ImagesEEG,001,101057,
AFNE01.JPG,AFNE01.JPG,AFNE01.JPG,AFNE01.JPG,AFNE01.JPG,AFNE01.JPG,,,,,,,,,5,4,54,5,,,,,,,,,,,,,,,AFNE20.jpg,AFNE12.jpg,AFSA01.jpg,AFSA16.jpg,AFSA01.jpg,FS,4,num_2,32,num_4,0.716745745158,,,2017_Jul_24_1153,60.008603469,FEMA4ImagesEEG,001,101057,
AFNE01.JPG,AFNE01.JPG,AFNE01.JPG,AFNE01.JPG,AFNE01.JPG,AFNE01.JPG,,,,,,,,,5,5,55,4,,,,,,,,,,,,,,,AFNE15.jpg,AFSA17.jpg,AFSA10.jpg,AFNE08.jpg,AFSA17.jpg,FS,4,num_6,32,num_4,0.850152463769,,,2017_Jul_24_1153,60.008603469,FEMA4ImagesEEG,001,101057,
AFNE01.JPG,AFNE01.JPG,AFNE01.JPG,AFNE01.JPG,AFNE01.JPG,AFNE01.JPG,,,,,,,,,5,6,56,7,,,,,,,,,,,,,,,AFSA15.jpg,AFNE06.jpg,AFNE11.jpg,AFSA04.jpg,AFSA15.jpg,FS,4,num_8,32,num_2,0.800147476257,,,2017_Jul_24_1153,60.008603469,FEMA4ImagesEEG,001,101057,
AFNE01.JPG,AFNE01.JPG,AFNE01.JPG,AFNE01.JPG,AFNE01.JPG,AFNE01.JPG,,,,,,,,,5,7,57,3,,,,,,,,,,,,,,,AFSA18.jpg,AFNE17.jpg,AFNE05.jpg,AFSA02.jpg,AFSA02.jpg,FS,4,num_4,32,num_2,0.933475934435,,,2017_Jul_24_1153,60.008603469,FEMA4ImagesEEG,001,101057,
AFNE01.JPG,AFNE01.JPG,AFNE01.JPG,AFNE01.JPG,AFNE01.JPG,AFNE01.JPG,,,,,,,,,5,8,58,8,,,,,,,,,,,,,,,AFSA14.jpg,AFSA19.jpg,AFNE14.jpg,AFNE05.jpg,AFNE14.jpg,FN,3,num_2,16,num_2,0.566789157339,,,2017_Jul_24_1153,60.008603469,FEMA4ImagesEEG,001,101057,
AFNE01.JPG,AFNE01.JPG,AFNE01.JPG,AFNE01.JPG,AFNE01.JPG,AFNE01.JPG,,,,,,,,,5,9,59,0,,,,,,,,,,,,,,,AFSA20.jpg,AFNE10.jpg,AFSA04.jpg,AFNE08.jpg,AFNE10.jpg,FN,3,num_6,16,num_6,1.15007975209,,,2017_Jul_24_1153,60.008603469,FEMA4ImagesEEG,001,101057,
,,,,,,,,,,,,,,,,,,,,,,,,,,,,,,,,,,,,,,,,,,,space,6.21638988401,2017_Jul_24_1153,60.008603469,FEMA4ImagesEEG,001,101057,
AFNE01.JPG,AFNE01.JPG,AFNE01.JPG,AFNE01.JPG,AFNE01.JPG,AFNE01.JPG,,,,,,,,,,,,,0,0,0,9,,,,,,,,,,,AMNE06.jpg,AMNE10.jpg,AMSA12.jpg,AMSA13.jpg,AMSA13.jpg,MS,2,num_4,32,num_6,0.716764027369,,,2017_Jul_24_1153,60.008603469,FEMA4ImagesEEG,001,101057,
AFNE01.JPG,AFNE01.JPG,AFNE01.JPG,AFNE01.JPG,AFNE01.JPG,AFNE01.JPG,,,,,,,,,,,,,0,1,1,3,,,,,,,,,,,AMNE16.jpg,AMNE14.jpg,AMSA11.jpg,AMSA09.jpg,AMSA11.jpg,MS,2,num_2,16,num_2,0.650144381216,,,2017_Jul_24_1153,60.008603469,FEMA4ImagesEEG,001,101057,
AFNE01.JPG,AFNE01.JPG,AFNE01.JPG,AFNE01.JPG,AFNE01.JPG,AFNE01.JPG,,,,,,,,,,,,,0,2,2,1,,,,,,,,,,,AMSA05.jpg,AMNE09.jpg,AMSA08.jpg,AMNE07.jpg,AMSA08.jpg,MS,2,num_2,32,num_6,0.65024092386,,,2017_Jul_24_1153,60.008603469,FEMA4ImagesEEG,001,101057,
AFNE01.JPG,AFNE01.JPG,AFNE01.JPG,AFNE01.JPG,AFNE01.JPG,AFNE01.JPG,,,,,,,,,,,,,0,3,3,7,,,,,,,,,,,AMSA06.jpg,AMNE06.jpg,AMSA18.jpg,AMNE01.jpg,AMNE01.jpg,MN,1,num_4,32,num_8,0.616695356788,,,2017_Jul_24_1153,60.008603469,FEMA4ImagesEEG,001,101057,
AFNE01.JPG,AFNE01.JPG,AFNE01.JPG,AFNE01.JPG,AFNE01.JPG,AFNE01.JPG,,,,,,,,,,,,,0,4,4,8,,,,,,,,,,,AMSA19.jpg,AMNE10.jpg,AMSA10.jpg,AMNE16.jpg,AMNE10.jpg,MN,1,num_6,32,num_4,0.433461019886,,,2017_Jul_24_1153,60.008603469,FEMA4ImagesEEG,001,101057,
AFNE01.JPG,AFNE01.JPG,AFNE01.JPG,AFNE01.JPG,AFNE01.JPG,AFNE01.JPG,,,,,,,,,,,,,0,5,5,2,,,,,,,,,,,AMSA19.jpg,AMNE12.jpg,AMSA15.jpg,AMNE07.jpg,AMNE07.jpg,MN,1,num_4,32,num_6,0.816757644527,,,2017_Jul_24_1153,60.008603469,FEMA4ImagesEEG,001,101057,
AFNE01.JPG,AFNE01.JPG,AFNE01.JPG,AFNE01.JPG,AFNE01.JPG,AFNE01.JPG,,,,,,,,,,,,,0,6,6,6,,,,,,,,,,,AMNE16.jpg,AMSA12.jpg,AMNE06.jpg,AMSA04.jpg,AMSA12.jpg,MS,2,num_6,32,num_8,0.666892146925,,,2017_Jul_24_1153,60.008603469,FEMA4ImagesEEG,001,101057,
AFNE01.JPG,AFNE01.JPG,AFNE01.JPG,AFNE01.JPG,AFNE01.JPG,AFNE01.JPG,,,,,,,,,,,,,0,7,7,5,,,,,,,,,,,AMNE16.jpg,AMNE19.jpg,AMSA06.jpg,AMSA18.jpg,AMSA06.jpg,MS,2,num_2,16,num_2,1.30007675302,,,2017_Jul_24_1153,60.008603469,FEMA4ImagesEEG,001,101057,
AFNE01.JPG,AFNE01.JPG,AFNE01.JPG,AFNE01.JPG,AFNE01.JPG,AFNE01.JPG,,,,,,,,,,,,,0,8,8,4,,,,,,,,,,,AMSA16.jpg,AMSA05.jpg,AMNE18.jpg,AMNE09.jpg,AMSA05.jpg,MS,2,num_6,16,num_6,1.10012319626,,,2017_Jul_24_1153,60.008603469,FEMA4ImagesEEG,001,101057,
AFNE01.JPG,AFNE01.JPG,AFNE01.JPG,AFNE01.JPG,AFNE01.JPG,AFNE01.JPG,,,,,,,,,,,,,0,9,9,0,,,,,,,,,,,AMNE07.jpg,AMSA19.jpg,AMSA07.jpg,AMNE15.jpg,AMSA19.jpg,MS,2,num_6,32,num_8,0.833442866104,,,2017_Jul_24_1153,60.008603469,FEMA4ImagesEEG,001,101057,
AFNE01.JPG,AFNE01.JPG,AFNE01.JPG,AFNE01.JPG,AFNE01.JPG,AFNE01.JPG,,,,,,,,,,,,,1,0,10,6,,,,,,,,,,,AMNE17.jpg,AMNE09.jpg,AMSA05.jpg,AMSA02.jpg,AMNE17.jpg,MN,1,num_8,32,num_4,0.983289440046,,,2017_Jul_24_1153,60.008603469,FEMA4ImagesEEG,001,101057,
AFNE01.JPG,AFNE01.JPG,AFNE01.JPG,AFNE01.JPG,AFNE01.JPG,AFNE01.JPG,,,,,,,,,,,,,1,1,11,9,,,,,,,,,,,AMSA10.jpg,AMNE05.jpg,AMSA09.jpg,AMNE16.jpg,AMSA09.jpg,MS,2,num_2,32,num_6,0.933663888136,,,2017_Jul_24_1153,60.008603469,FEMA4ImagesEEG,001,101057,
AFNE01.JPG,AFNE01.JPG,AFNE01.JPG,AFNE01.JPG,AFNE01.JPG,AFNE01.JPG,,,,,,,,,,,,,1,2,12,0,,,,,,,,,,,AMSA07.jpg,AMSA13.jpg,AMNE03.jpg,AMNE05.jpg,AMNE05.jpg,MN,1,num_4,32,num_8,1.08350565098,,,2017_Jul_24_1153,60.008603469,FEMA4ImagesEEG,001,101057,
AFNE01.JPG,AFNE01.JPG,AFNE01.JPG,AFNE01.JPG,AFNE01.JPG,AFNE01.JPG,,,,,,,,,,,,,1,3,13,8,,,,,,,,,,,AMNE19.jpg,AMSA18.jpg,AMSA06.jpg,AMNE05.jpg,AMNE05.jpg,MN,1,num_4,32,num_8,0.866774820141,,,2017_Jul_24_1153,60.008603469,FEMA4ImagesEEG,001,101057,
AFNE01.JPG,AFNE01.JPG,AFNE01.JPG,AFNE01.JPG,AFNE01.JPG,AFNE01.JPG,,,,,,,,,,,,,1,4,14,4,,,,,,,,,,,AMNE08.jpg,AMNE07.jpg,AMSA16.jpg,AMSA01.jpg,AMSA16.jpg,MS,2,num_2,16,num_2,1.08340910811,,,2017_Jul_24_1153,60.008603469,FEMA4ImagesEEG,001,101057,
AFNE01.JPG,AFNE01.JPG,AFNE01.JPG,AFNE01.JPG,AFNE01.JPG,AFNE01.JPG,,,,,,,,,,,,,1,5,15,3,,,,,,,,,,,AMNE05.jpg,AMNE20.jpg,AMSA13.jpg,AMSA20.jpg,AMSA13.jpg,MS,2,num_2,32,num_8,1.16677908599,,,2017_Jul_24_1153,60.008603469,FEMA4ImagesEEG,001,101057,
AFNE01.JPG,AFNE01.JPG,AFNE01.JPG,AFNE01.JPG,AFNE01.JPG,AFNE01.JPG,,,,,,,,,,,,,1,6,16,7,,,,,,,,,,,AMNE02.jpg,AMNE08.jpg,AMSA20.jpg,AMSA05.jpg,AMNE02.jpg,MN,1,num_8,16,num_8,0.850141879404,,,2017_Jul_24_1153,60.008603469,FEMA4ImagesEEG,001,101057,
AFNE01.JPG,AFNE01.JPG,AFNE01.JPG,AFNE01.JPG,AFNE01.JPG,AFNE01.JPG,,,,,,,,,,,,,1,7,17,5,,,,,,,,,,,AMNE17.jpg,AMSA08.jpg,AMSA15.jpg,AMNE13.jpg,AMSA15.jpg,MS,2,num_2,16,num_2,0.600111810025,,,2017_Jul_24_1153,60.008603469,FEMA4ImagesEEG,001,101057,
AFNE01.JPG,AFNE01.JPG,AFNE01.JPG,AFNE01.JPG,AFNE01.JPG,AFNE01.JPG,,,,,,,,,,,,,1,8,18,1,,,,,,,,,,,AMNE10.jpg,AMSA17.jpg,AMSA01.jpg,AMNE11.jpg,AMNE11.jpg,MN,1,num_4,32,num_8,0.733463361394,,,2017_Jul_24_1153,60.008603469,FEMA4ImagesEEG,001,101057,
AFNE01.JPG,AFNE01.JPG,AFNE01.JPG,AFNE01.JPG,AFNE01.JPG,AFNE01.JPG,,,,,,,,,,,,,1,9,19,2,,,,,,,,,,,AMSA10.jpg,AMNE17.jpg,AMNE09.jpg,AMSA13.jpg,AMSA10.jpg,MS,2,num_8,16,num_8,2.03335697192,,,2017_Jul_24_1153,60.008603469,FEMA4ImagesEEG,001,101057,
AFNE01.JPG,AFNE01.JPG,AFNE01.JPG,AFNE01.JPG,AFNE01.JPG,AFNE01.JPG,,,,,,,,,,,,,2,0,20,3,,,,,,,,,,,AMSA20.jpg,AMNE01.jpg,AMSA10.jpg,AMNE13.jpg,AMSA10.jpg,MS,2,num_2,16,num_2,0.700129803619,,,2017_Jul_24_1153,60.008603469,FEMA4ImagesEEG,001,101057,
AFNE01.JPG,AFNE01.JPG,AFNE01.JPG,AFNE01.JPG,AFNE01.JPG,AFNE01.JPG,,,,,,,,,,,,,2,1,21,6,,,,,,,,,,,AMNE05.jpg,AMSA08.jpg,AMSA06.jpg,AMNE07.jpg,AMNE07.jpg,MN,1,num_4,32,num_8,1.5000704024,,,2017_Jul_24_1153,60.008603469,FEMA4ImagesEEG,001,101057,
AFNE01.JPG,AFNE01.JPG,AFNE01.JPG,AFNE01.JPG,AFNE01.JPG,AFNE01.JPG,,,,,,,,,,,,,2,2,22,7,,,,,,,,,,,AMSA12.jpg,AMNE03.jpg,AMNE14.jpg,AMSA10.jpg,AMSA10.jpg,MS,2,num_4,16,num_4,0.650548513746,,,2017_Jul_24_1153,60.008603469,FEMA4ImagesEEG,001,101057,
AFNE01.JPG,AFNE01.JPG,AFNE01.JPG,AFNE01.JPG,AFNE01.JPG,AFNE01.JPG,,,,,,,,,,,,,2,3,23,5,,,,,,,,,,,AMNE17.jpg,AMNE03.jpg,AMSA16.jpg,AMSA14.jpg,AMNE17.jpg,MN,1,num_8,16,num_8,1.21672056697,,,2017_Jul_24_1153,60.008603469,FEMA4ImagesEEG,001,101057,
AFNE01.JPG,AFNE01.JPG,AFNE01.JPG,AFNE01.JPG,AFNE01.JPG,AFNE01.JPG,,,,,,,,,,,,,2,4,24,8,,,,,,,,,,,AMNE01.jpg,AMSA15.jpg,AMSA17.jpg,AMNE05.jpg,AMSA17.jpg,MS,2,num_2,32,num_8,0.966778701171,,,2017_Jul_24_1153,60.008603469,FEMA4ImagesEEG,001,101057,
AFNE01.JPG,AFNE01.JPG,AFNE01.JPG,AFNE01.JPG,AFNE01.JPG,AFNE01.JPG,,,,,,,,,,,,,2,5,25,4,,,,,,,,,,,AMSA12.jpg,AMNE02.jpg,AMSA05.jpg,AMNE19.jpg,AMSA05.jpg,MS,2,num_2,16,num_2,0.900122811436,,,2017_Jul_24_1153,60.008603469,FEMA4ImagesEEG,001,101057,
AFNE01.JPG,AFNE01.JPG,AFNE01.JPG,AFNE01.JPG,AFNE01.JPG,AFNE01.JPG,,,,,,,,,,,,,2,6,26,1,,,,,,,,,,,AMSA16.jpg,AMNE12.jpg,AMNE01.jpg,AMSA14.jpg,AMSA14.jpg,MS,2,num_4,32,num_8,1.16668959951,,,2017_Jul_24_1153,60.008603469,FEMA4ImagesEEG,001,101057,
AFNE01.JPG,AFNE01.JPG,AFNE01.JPG,AFNE01.JPG,AFNE01.JPG,AFNE01.JPG,,,,,,,,,,,,,2,7,27,2,,,,,,,,,,,AMSA14.jpg,AMNE17.jpg,AMNE12.jpg,AMSA09.jpg,AMSA14.jpg,MS,2,num_8,16,num_8,0.400160177611,,,2017_Jul_24_1153,60.008603469,FEMA4ImagesEEG,001,101057,
AFNE01.JPG,AFNE01.JPG,AFNE01.JPG,AFNE01.JPG,AFNE01.JPG,AFNE01.JPG,,,,,,,,,,,,,2,8,28,9,,,,,,,,,,,AMSA04.jpg,AMNE08.jpg,AMNE19.jpg,AMSA14.jpg,AMNE19.jpg,MN,1,num_2,32,num_8,1.00009044865,,,2017_Jul_24_1153,60.008603469,FEMA4ImagesEEG,001,101057,
AFNE01.JPG,AFNE01.JPG,AFNE01.JPG,AFNE01.JPG,AFNE01.JPG,AFNE01.JPG,,,,,,,,,,,,,2,9,29,0,,,,,,,,,,,AMNE04.jpg,AMSA12.jpg,AMNE02.jpg,AMSA11.jpg,AMSA11.jpg,MS,2,num_4,32,num_8,0.933358543552,,,2017_Jul_24_1153,60.008603469,FEMA4ImagesEEG,001,101057,
AFNE01.JPG,AFNE01.JPG,AFNE01.JPG,AFNE01.JPG,AFNE01.JPG,AFNE01.JPG,,,,,,,,,,,,,3,0,30,5,,,,,,,,,,,AMNE01.jpg,AMNE05.jpg,AMSA15.jpg,AMSA08.jpg,AMSA08.jpg,MS,2,num_4,32,num_2,0.683468637522,,,2017_Jul_24_1153,60.008603469,FEMA4ImagesEEG,001,101057,
AFNE01.JPG,AFNE01.JPG,AFNE01.JPG,AFNE01.JPG,AFNE01.JPG,AFNE01.JPG,,,,,,,,,,,,,3,1,31,4,,,,,,,,,,,AMSA20.jpg,AMNE19.jpg,AMNE11.jpg,AMSA17.jpg,AMSA20.jpg,MS,2,num_8,32,num_6,1.06675082888,,,2017_Jul_24_1153,60.008603469,FEMA4ImagesEEG,001,101057,
AFNE01.JPG,AFNE01.JPG,AFNE01.JPG,AFNE01.JPG,AFNE01.JPG,AFNE01.JPG,,,,,,,,,,,,,3,2,32,6,,,,,,,,,,,AMSA04.jpg,AMNE17.jpg,AMNE12.jpg,AMSA09.jpg,AMNE17.jpg,MN,1,num_6,32,num_8,1.18341812096,,,2017_Jul_24_1153,60.008603469,FEMA4ImagesEEG,001,101057,
AFNE01.JPG,AFNE01.JPG,AFNE01.JPG,AFNE01.JPG,AFNE01.JPG,AFNE01.JPG,,,,,,,,,,,,,3,3,33,8,,,,,,,,,,,AMSA19.jpg,AMNE02.jpg,AMSA05.jpg,AMNE14.jpg,AMNE14.jpg,MN,1,num_4,16,num_4,1.16680827341,,,2017_Jul_24_1153,60.008603469,FEMA4ImagesEEG,001,101057,
AFNE01.JPG,AFNE01.JPG,AFNE01.JPG,AFNE01.JPG,AFNE01.JPG,AFNE01.JPG,,,,,,,,,,,,,3,4,34,1,,,,,,,,,,,AMNE01.jpg,AMNE04.jpg,AMSA10.jpg,AMSA15.jpg,AMSA10.jpg,MS,2,num_2,16,num_2,0.966768758255,,,2017_Jul_24_1153,60.008603469,FEMA4ImagesEEG,001,101057,
AFNE01.JPG,AFNE01.JPG,AFNE01.JPG,AFNE01.JPG,AFNE01.JPG,AFNE01.JPG,,,,,,,,,,,,,3,5,35,3,,,,,,,,,,,AMNE12.jpg,AMSA05.jpg,AMNE08.jpg,AMSA07.jpg,AMSA05.jpg,MS,2,num_6,32,num_8,1.13344135857,,,2017_Jul_24_1153,60.008603469,FEMA4ImagesEEG,001,101057,
AFNE01.JPG,AFNE01.JPG,AFNE01.JPG,AFNE01.JPG,AFNE01.JPG,AFNE01.JPG,,,,,,,,,,,,,3,6,36,9,,,,,,,,,,,AMNE04.jpg,AMSA19.jpg,AMNE09.jpg,AMSA15.jpg,AMNE04.jpg,MN,1,num_8,16,num_8,0.716851268662,,,2017_Jul_24_1153,60.008603469,FEMA4ImagesEEG,001,101057,
AFNE01.JPG,AFNE01.JPG,AFNE01.JPG,AFNE01.JPG,AFNE01.JPG,AFNE01.JPG,,,,,,,,,,,,,3,7,37,0,,,,,,,,,,,AMSA19.jpg,AMNE20.jpg,AMNE08.jpg,AMSA04.jpg,AMSA19.jpg,MS,2,num_8,32,num_6,0.850089919521,,,2017_Jul_24_1153,60.008603469,FEMA4ImagesEEG,001,101057,
AFNE01.JPG,AFNE01.JPG,AFNE01.JPG,AFNE01.JPG,AFNE01.JPG,AFNE01.JPG,,,,,,,,,,,,,3,8,38,2,,,,,,,,,,,AMNE15.jpg,AMSA15.jpg,AMSA01.jpg,AMNE06.jpg,AMNE06.jpg,MN,1,num_4,32,num_2,0.966750796884,,,2017_Jul_24_1153,60.008603469,FEMA4ImagesEEG,001,101057,
AFNE01.JPG,AFNE01.JPG,AFNE01.JPG,AFNE01.JPG,AFNE01.JPG,AFNE01.JPG,,,,,,,,,,,,,3,9,39,7,,,,,,,,,,,AMNE18.jpg,AMNE12.jpg,AMSA08.jpg,AMSA10.jpg,AMSA10.jpg,MS,2,num_4,32,num_8,0.70025553368,,,2017_Jul_24_1153,60.008603469,FEMA4ImagesEEG,001,101057,
AFNE01.JPG,AFNE01.JPG,AFNE01.JPG,AFNE01.JPG,AFNE01.JPG,AFNE01.JPG,,,,,,,,,,,,,4,0,40,9,,,,,,,,,,,AMSA04.jpg,AMNE17.jpg,AMNE02.jpg,AMSA18.jpg,AMSA04.jpg,MS,2,num_8,32,num_6,0.766769977054,,,2017_Jul_24_1153,60.008603469,FEMA4ImagesEEG,001,101057,
AFNE01.JPG,AFNE01.JPG,AFNE01.JPG,AFNE01.JPG,AFNE01.JPG,AFNE01.JPG,,,,,,,,,,,,,4,1,41,4,,,,,,,,,,,AMNE09.jpg,AMSA20.jpg,AMNE19.jpg,AMSA13.jpg,AMSA13.jpg,MS,2,num_4,32,num_2,0.866722218809,,,2017_Jul_24_1153,60.008603469,FEMA4ImagesEEG,001,101057,
AFNE01.JPG,AFNE01.JPG,AFNE01.JPG,AFNE01.JPG,AFNE01.JPG,AFNE01.JPG,,,,,,,,,,,,,4,2,42,1,,,,,,,,,,,AMSA11.jpg,AMSA20.jpg,AMNE16.jpg,AMNE06.jpg,AMSA11.jpg,MS,2,num_8,32,num_6,0.633172738715,,,2017_Jul_24_1153,60.008603469,FEMA4ImagesEEG,001,101057,
AFNE01.JPG,AFNE01.JPG,AFNE01.JPG,AFNE01.JPG,AFNE01.JPG,AFNE01.JPG,,,,,,,,,,,,,4,3,43,7,,,,,,,,,,,AMNE10.jpg,AMSA20.jpg,AMSA15.jpg,AMNE16.jpg,AMSA20.jpg,MS,2,num_6,16,num_6,1.05013328348,,,2017_Jul_24_1153,60.008603469,FEMA4ImagesEEG,001,101057,
AFNE01.JPG,AFNE01.JPG,AFNE01.JPG,AFNE01.JPG,AFNE01.JPG,AFNE01.JPG,,,,,,,,,,,,,4,4,44,2,,,,,,,,,,,AMNE03.jpg,AMSA13.jpg,AMNE01.jpg,AMSA16.jpg,AMSA16.jpg,MS,2,num_4,32,num_2,0.950073914602,,,2017_Jul_24_1153,60.008603469,FEMA4ImagesEEG,001,101057,
AFNE01.JPG,AFNE01.JPG,AFNE01.JPG,AFNE01.JPG,AFNE01.JPG,AFNE01.JPG,,,,,,,,,,,,,4,5,45,0,,,,,,,,,,,AMSA14.jpg,AMNE13.jpg,AMNE20.jpg,AMSA19.jpg,AMNE13.jpg,MN,1,num_6,32,num_8,0.650126740453,,,2017_Jul_24_1153,60.008603469,FEMA4ImagesEEG,001,101057,
AFNE01.JPG,AFNE01.JPG,AFNE01.JPG,AFNE01.JPG,AFNE01.JPG,AFNE01.JPG,,,,,,,,,,,,,4,6,46,8,,,,,,,,,,,AMSA10.jpg,AMNE10.jpg,AMSA01.jpg,AMNE05.jpg,AMNE10.jpg,MN,1,num_6,32,num_4,0.916801618063,,,2017_Jul_24_1153,60.008603469,FEMA4ImagesEEG,001,101057,
AFNE01.JPG,AFNE01.JPG,AFNE01.JPG,AFNE01.JPG,AFNE01.JPG,AFNE01.JPG,,,,,,,,,,,,,4,7,47,5,,,,,,,,,,,AMNE06.jpg,AMSA04.jpg,AMSA12.jpg,AMNE18.jpg,AMNE18.jpg,MN,1,num_4,32,num_2,1.03345704277,,,2017_Jul_24_1153,60.008603469,FEMA4ImagesEEG,001,101057,
AFNE01.JPG,AFNE01.JPG,AFNE01.JPG,AFNE01.JPG,AFNE01.JPG,AFNE01.JPG,,,,,,,,,,,,,4,8,48,6,,,,,,,,,,,AMSA02.jpg,AMSA10.jpg,AMNE11.jpg,AMNE09.jpg,AMNE09.jpg,MN,1,num_4,32,num_8,0.883432137314,,,2017_Jul_24_1153,60.008603469,FEMA4ImagesEEG,001,101057,
AFNE01.JPG,AFNE01.JPG,AFNE01.JPG,AFNE01.JPG,AFNE01.JPG,AFNE01.JPG,,,,,,,,,,,,,4,9,49,3,,,,,,,,,,,AMNE12.jpg,AMSA20.jpg,AMSA03.jpg,AMNE15.jpg,AMSA03.jpg,MS,2,num_2,16,num_2,1.10023353097,,,2017_Jul_24_1153,60.008603469,FEMA4ImagesEEG,001,101057,
AFNE01.JPG,AFNE01.JPG,AFNE01.JPG,AFNE01.JPG,AFNE01.JPG,AFNE01.JPG,,,,,,,,,,,,,5,0,50,1,,,,,,,,,,,AMSA12.jpg,AMSA03.jpg,AMNE16.jpg,AMNE01.jpg,AMNE01.jpg,MN,1,num_4,16,num_4,0.733315500198,,,2017_Jul_24_1153,60.008603469,FEMA4ImagesEEG,001,101057,
AFNE01.JPG,AFNE01.JPG,AFNE01.JPG,AFNE01.JPG,AFNE01.JPG,AFNE01.JPG,,,,,,,,,,,,,5,1,51,5,,,,,,,,,,,AMNE10.jpg,AMSA16.jpg,AMNE13.jpg,AMSA02.jpg,AMSA16.jpg,MS,2,num_6,16,num_6,1.15008552535,,,2017_Jul_24_1153,60.008603469,FEMA4ImagesEEG,001,101057,
AFNE01.JPG,AFNE01.JPG,AFNE01.JPG,AFNE01.JPG,AFNE01.JPG,AFNE01.JPG,,,,,,,,,,,,,5,2,52,6,,,,,,,,,,,AMNE02.jpg,AMSA05.jpg,AMNE20.jpg,AMSA16.jpg,AMNE20.jpg,MN,1,num_2,32,num_8,0.933522120933,,,2017_Jul_24_1153,60.008603469,FEMA4ImagesEEG,001,101057,
AFNE01.JPG,AFNE01.JPG,AFNE01.JPG,AFNE01.JPG,AFNE01.JPG,AFNE01.JPG,,,,,,,,,,,,,5,3,53,9,,,,,,,,,,,AMNE08.jpg,AMSA10.jpg,AMSA14.jpg,AMNE07.jpg,AMSA14.jpg,MS,2,num_2,16,num_2,4.53289751161,,,2017_Jul_24_1153,60.008603469,FEMA4ImagesEEG,001,101057,
AFNE01.JPG,AFNE01.JPG,AFNE01.JPG,AFNE01.JPG,AFNE01.JPG,AFNE01.JPG,,,,,,,,,,,,,5,4,54,7,,,,,,,,,,,AMNE01.jpg,AMSA03.jpg,AMNE04.jpg,AMSA17.jpg,AMSA17.jpg,MS,2,num_4,32,num_6,0.816797737149,,,2017_Jul_24_1153,60.008603469,FEMA4ImagesEEG,001,101057,
AFNE01.JPG,AFNE01.JPG,AFNE01.JPG,AFNE01.JPG,AFNE01.JPG,AFNE01.JPG,,,,,,,,,,,,,5,5,55,3,,,,,,,,,,,AMNE15.jpg,AMNE12.jpg,AMSA16.jpg,AMSA15.jpg,AMNE12.jpg,MN,1,num_6,32,num_8,0.850364152342,,,2017_Jul_24_1153,60.008603469,FEMA4ImagesEEG,001,101057,
AFNE01.JPG,AFNE01.JPG,AFNE01.JPG,AFNE01.JPG,AFNE01.JPG,AFNE01.JPG,,,,,,,,,,,,,5,6,56,2,,,,,,,,,,,AMSA14.jpg,AMSA13.jpg,AMNE10.jpg,AMNE03.jpg,AMSA14.jpg,MS,2,num_8,32,num_2,0.91675735591,,,2017_Jul_24_1153,60.008603469,FEMA4ImagesEEG,001,101057,
AFNE01.JPG,AFNE01.JPG,AFNE01.JPG,AFNE01.JPG,AFNE01.JPG,AFNE01.JPG,,,,,,,,,,,,,5,7,57,0,,,,,,,,,,,AMSA08.jpg,AMNE10.jpg,AMNE11.jpg,AMSA15.jpg,AMNE11.jpg,MN,1,num_2,16,num_2,3.6665656335,,,2017_Jul_24_1153,60.008603469,FEMA4ImagesEEG,001,101057,
AFNE01.JPG,AFNE01.JPG,AFNE01.JPG,AFNE01.JPG,AFNE01.JPG,AFNE01.JPG,,,,,,,,,,,,,5,8,58,4,,,,,,,,,,,AMSA05.jpg,AMNE11.jpg,AMSA01.jpg,AMNE09.jpg,AMNE11.jpg,MN,1,num_6,32,num_8,0.933315564296,,,2017_Jul_24_1153,60.008603469,FEMA4ImagesEEG,001,101057,
AFNE01.JPG,AFNE01.JPG,AFNE01.JPG,AFNE01.JPG,AFNE01.JPG,AFNE01.JPG,,,,,,,,,,,,,5,9,59,8,,,,,,,,,,,AMNE13.jpg,AMSA15.jpg,AMSA20.jpg,AMNE09.jpg,AMSA20.jpg,MS,2,num_2,16,num_2,0.766781202867,,,2017_Jul_24_1153,60.008603469,FEMA4ImagesEEG,001,101057,
,,,,,,,,,,,,,,,,,,,,,,,,,,,,,,,,,,,,,,,,,,,space,7.99951985199,2017_Jul_24_1153,60.008603469,FEMA4ImagesEEG,001,101057,
AFNE01.JPG,AFNE01.JPG,AFNE01.JPG,AFNE01.JPG,AFNE01.JPG,AFNE01.JPG,,,,,,,,,,,,,,,,,0,0,0,2,,,,,,,AFNE08.jpg,AFSA09.jpg,AFNE11.jpg,AFSA12.jpg,AFSA12.jpg,FS,4,num_4,16,num_4,0.566810005461,,,2017_Jul_24_1153,60.008603469,FEMA4ImagesEEG,001,101057,
AFNE01.JPG,AFNE01.JPG,AFNE01.JPG,AFNE01.JPG,AFNE01.JPG,AFNE01.JPG,,,,,,,,,,,,,,,,,0,1,1,1,,,,,,,AFSA14.jpg,AFNE11.jpg,AFNE08.jpg,AFSA05.jpg,AFSA05.jpg,FS,4,num_4,32,num_8,0.800094874925,,,2017_Jul_24_1153,60.008603469,FEMA4ImagesEEG,001,101057,
AFNE01.JPG,AFNE01.JPG,AFNE01.JPG,AFNE01.JPG,AFNE01.JPG,AFNE01.JPG,,,,,,,,,,,,,,,,,0,2,2,7,,,,,,,AFNE01.jpg,AFNE05.jpg,AFSA08.jpg,AFSA15.jpg,AFSA08.jpg,FS,4,num_2,16,num_2,1.58340253308,,,2017_Jul_24_1153,60.008603469,FEMA4ImagesEEG,001,101057,
AFNE01.JPG,AFNE01.JPG,AFNE01.JPG,AFNE01.JPG,AFNE01.JPG,AFNE01.JPG,,,,,,,,,,,,,,,,,0,3,3,3,,,,,,,AFNE05.jpg,AFNE18.jpg,AFSA17.jpg,AFSA05.jpg,AFNE05.jpg,FN,3,num_8,32,num_2,1.11679494672,,,2017_Jul_24_1153,60.008603469,FEMA4ImagesEEG,001,101057,
AFNE01.JPG,AFNE01.JPG,AFNE01.JPG,AFNE01.JPG,AFNE01.JPG,AFNE01.JPG,,,,,,,,,,,,,,,,,0,4,4,0,,,,,,,AFNE07.jpg,AFNE08.jpg,AFSA09.jpg,AFSA17.jpg,AFNE08.jpg,FN,3,num_6,32,num_2,0.816757644643,,,2017_Jul_24_1153,60.008603469,FEMA4ImagesEEG,001,101057,
AFNE01.JPG,AFNE01.JPG,AFNE01.JPG,AFNE01.JPG,AFNE01.JPG,AFNE01.JPG,,,,,,,,,,,,,,,,,0,5,5,4,,,,,,,AFNE02.jpg,AFSA06.jpg,AFNE07.jpg,AFSA01.jpg,AFSA06.jpg,FS,4,num_6,32,num_8,0.9167740345,,,2017_Jul_24_1153,60.008603469,FEMA4ImagesEEG,001,101057,
AFNE01.JPG,AFNE01.JPG,AFNE01.JPG,AFNE01.JPG,AFNE01.JPG,AFNE01.JPG,,,,,,,,,,,,,,,,,0,6,6,8,,,,,,,AFSA19.jpg,AFNE14.jpg,AFSA04.jpg,AFNE15.jpg,AFNE15.jpg,FN,3,num_4,32,num_6,1.25008651963,,,2017_Jul_24_1153,60.008603469,FEMA4ImagesEEG,001,101057,
AFNE01.JPG,AFNE01.JPG,AFNE01.JPG,AFNE01.JPG,AFNE01.JPG,AFNE01.JPG,,,,,,,,,,,,,,,,,0,7,7,9,,,,,,,AFSA20.jpg,AFSA10.jpg,AFNE13.jpg,AFNE08.jpg,AFNE08.jpg,FN,3,num_4,32,num_2,1.25006406789,,,2017_Jul_24_1153,60.008603469,FEMA4ImagesEEG,001,101057,
AFNE01.JPG,AFNE01.JPG,AFNE01.JPG,AFNE01.JPG,AFNE01.JPG,AFNE01.JPG,,,,,,,,,,,,,,,,,0,8,8,6,,,,,,,AFNE16.jpg,AFSA03.jpg,AFNE20.jpg,AFSA17.jpg,AFSA17.jpg,FS,4,num_4,16,num_4,0.533462014282,,,2017_Jul_24_1153,60.008603469,FEMA4ImagesEEG,001,101057,
AFNE01.JPG,AFNE01.JPG,AFNE01.JPG,AFNE01.JPG,AFNE01.JPG,AFNE01.JPG,,,,,,,,,,,,,,,,,0,9,9,5,,,,,,,AFNE17.jpg,AFSA04.jpg,AFNE16.jpg,AFSA11.jpg,AFNE17.jpg,FN,3,num_8,16,num_8,1.2167680366,,,2017_Jul_24_1153,60.008603469,FEMA4ImagesEEG,001,101057,
AFNE01.JPG,AFNE01.JPG,AFNE01.JPG,AFNE01.JPG,AFNE01.JPG,AFNE01.JPG,,,,,,,,,,,,,,,,,1,0,10,1,,,,,,,AFSA11.jpg,AFNE09.jpg,AFNE01.jpg,AFSA12.jpg,AFNE01.jpg,FN,3,num_2,32,num_6,1.01685713814,,,2017_Jul_24_1153,60.008603469,FEMA4ImagesEEG,001,101057,
AFNE01.JPG,AFNE01.JPG,AFNE01.JPG,AFNE01.JPG,AFNE01.JPG,AFNE01.JPG,,,,,,,,,,,,,,,,,1,1,11,6,,,,,,,AFNE02.jpg,AFSA09.jpg,AFNE17.jpg,AFSA04.jpg,AFNE02.jpg,FN,3,num_8,32,num_2,0.850157916429,,,2017_Jul_24_1153,60.008603469,FEMA4ImagesEEG,001,101057,
AFNE01.JPG,AFNE01.JPG,AFNE01.JPG,AFNE01.JPG,AFNE01.JPG,AFNE01.JPG,,,,,,,,,,,,,,,,,1,2,12,4,,,,,,,AFNE03.jpg,AFSA11.jpg,AFSA17.jpg,AFNE07.jpg,AFSA11.jpg,FS,4,num_6,32,num_2,0.750156280585,,,2017_Jul_24_1153,60.008603469,FEMA4ImagesEEG,001,101057,
AFNE01.JPG,AFNE01.JPG,AFNE01.JPG,AFNE01.JPG,AFNE01.JPG,AFNE01.JPG,,,,,,,,,,,,,,,,,1,3,13,9,,,,,,,AFSA05.jpg,AFNE12.jpg,AFSA06.jpg,AFNE20.jpg,AFNE20.jpg,FN,3,num_4,32,num_2,0.883471909096,,,2017_Jul_24_1153,60.008603469,FEMA4ImagesEEG,001,101057,
AFNE01.JPG,AFNE01.JPG,AFNE01.JPG,AFNE01.JPG,AFNE01.JPG,AFNE01.JPG,,,,,,,,,,,,,,,,,1,4,14,5,,,,,,,AFSA08.jpg,AFNE02.jpg,AFSA16.jpg,AFNE01.jpg,AFSA16.jpg,FS,4,num_2,16,num_2,1.0334355532,,,2017_Jul_24_1153,60.008603469,FEMA4ImagesEEG,001,101057,
AFNE01.JPG,AFNE01.JPG,AFNE01.JPG,AFNE01.JPG,AFNE01.JPG,AFNE01.JPG,,,,,,,,,,,,,,,,,1,5,15,3,,,,,,,AFSA11.jpg,AFSA01.jpg,AFNE13.jpg,AFNE12.jpg,AFNE13.jpg,FN,3,num_2,32,num_6,1.51679988601,,,2017_Jul_24_1153,60.008603469,FEMA4ImagesEEG,001,101057,
AFNE01.JPG,AFNE01.JPG,AFNE01.JPG,AFNE01.JPG,AFNE01.JPG,AFNE01.JPG,,,,,,,,,,,,,,,,,1,6,16,0,,,,,,,AFNE13.jpg,AFSA13.jpg,AFNE06.jpg,AFSA08.jpg,AFNE06.jpg,FN,3,num_2,16,num_2,0.783436916303,,,2017_Jul_24_1153,60.008603469,FEMA4ImagesEEG,001,101057,
AFNE01.JPG,AFNE01.JPG,AFNE01.JPG,AFNE01.JPG,AFNE01.JPG,AFNE01.JPG,,,,,,,,,,,,,,,,,1,7,17,2,,,,,,,AFSA10.jpg,AFSA16.jpg,AFNE18.jpg,AFNE10.jpg,AFNE18.jpg,FN,3,num_2,32,num_6,0.900101321749,,,2017_Jul_24_1153,60.008603469,FEMA4ImagesEEG,001,101057,
AFNE01.JPG,AFNE01.JPG,AFNE01.JPG,AFNE01.JPG,AFNE01.JPG,AFNE01.JPG,,,,,,,,,,,,,,,,,1,8,18,7,,,,,,,AFNE18.jpg,AFSA15.jpg,AFNE14.jpg,AFSA07.jpg,AFSA15.jpg,FS,4,num_6,32,num_8,0.733423268888,,,2017_Jul_24_1153,60.008603469,FEMA4ImagesEEG,001,101057,
AFNE01.JPG,AFNE01.JPG,AFNE01.JPG,AFNE01.JPG,AFNE01.JPG,AFNE01.JPG,,,,,,,,,,,,,,,,,1,9,19,8,,,,,,,AFSA05.jpg,AFNE07.jpg,AFNE13.jpg,AFSA07.jpg,AFNE07.jpg,FN,3,num_6,32,num_8,0.699978093384,,,2017_Jul_24_1153,60.008603469,FEMA4ImagesEEG,001,101057,
AFNE01.JPG,AFNE01.JPG,AFNE01.JPG,AFNE01.JPG,AFNE01.JPG,AFNE01.JPG,,,,,,,,,,,,,,,,,2,0,20,4,,,,,,,AFNE01.jpg,AFNE18.jpg,AFSA14.jpg,AFSA10.jpg,AFSA14.jpg,FS,4,num_2,32,num_6,1.21683218458,,,2017_Jul_24_1153,60.008603469,FEMA4ImagesEEG,001,101057,
AFNE01.JPG,AFNE01.JPG,AFNE01.JPG,AFNE01.JPG,AFNE01.JPG,AFNE01.JPG,,,,,,,,,,,,,,,,,2,1,21,7,,,,,,,AFNE05.jpg,AFNE10.jpg,AFSA07.jpg,AFSA06.jpg,AFSA07.jpg,FS,4,num_2,16,num_2,1.16674925725,,,2017_Jul_24_1153,60.008603469,FEMA4ImagesEEG,001,101057,
AFNE01.JPG,AFNE01.JPG,AFNE01.JPG,AFNE01.JPG,AFNE01.JPG,AFNE01.JPG,,,,,,,,,,,,,,,,,2,2,22,1,,,,,,,AFSA04.jpg,AFNE08.jpg,AFNE16.jpg,AFSA19.jpg,AFSA04.jpg,FS,4,num_8,16,num_8,0.700136539061,,,2017_Jul_24_1153,60.008603469,FEMA4ImagesEEG,001,101057,
AFNE01.JPG,AFNE01.JPG,AFNE01.JPG,AFNE01.JPG,AFNE01.JPG,AFNE01.JPG,,,,,,,,,,,,,,,,,2,3,23,6,,,,,,,AFNE10.jpg,AFSA12.jpg,AFNE01.jpg,AFSA06.jpg,AFSA06.jpg,FS,4,num_4,16,num_4,1.08343957854,,,2017_Jul_24_1153,60.008603469,FEMA4ImagesEEG,001,101057,
AFNE01.JPG,AFNE01.JPG,AFNE01.JPG,AFNE01.JPG,AFNE01.JPG,AFNE01.JPG,,,,,,,,,,,,,,,,,2,4,24,3,,,,,,,AFSA10.jpg,AFSA11.jpg,AFNE08.jpg,AFNE20.jpg,AFSA10.jpg,FS,4,num_8,16,num_8,1.16676016245,,,2017_Jul_24_1153,60.008603469,FEMA4ImagesEEG,001,101057,
AFNE01.JPG,AFNE01.JPG,AFNE01.JPG,AFNE01.JPG,AFNE01.JPG,AFNE01.JPG,,,,,,,,,,,,,,,,,2,5,25,2,,,,,,,AFNE14.jpg,AFSA08.jpg,AFNE13.jpg,AFSA16.jpg,AFSA16.jpg,FS,4,num_4,32,num_2,0.816769191297,,,2017_Jul_24_1153,60.008603469,FEMA4ImagesEEG,001,101057,
AFNE01.JPG,AFNE01.JPG,AFNE01.JPG,AFNE01.JPG,AFNE01.JPG,AFNE01.JPG,,,,,,,,,,,,,,,,,2,6,26,8,,,,,,,AFNE17.jpg,AFSA08.jpg,AFNE18.jpg,AFSA09.jpg,AFSA09.jpg,FS,4,num_4,32,num_6,0.883458117372,,,2017_Jul_24_1153,60.008603469,FEMA4ImagesEEG,001,101057,
AFNE01.JPG,AFNE01.JPG,AFNE01.JPG,AFNE01.JPG,AFNE01.JPG,AFNE01.JPG,,,,,,,,,,,,,,,,,2,7,27,5,,,,,,,AFSA02.jpg,AFSA10.jpg,AFNE07.jpg,AFNE16.jpg,AFSA10.jpg,FS,4,num_6,32,num_2,0.866717086989,,,2017_Jul_24_1153,60.008603469,FEMA4ImagesEEG,001,101057,
AFNE01.JPG,AFNE01.JPG,AFNE01.JPG,AFNE01.JPG,AFNE01.JPG,AFNE01.JPG,,,,,,,,,,,,,,,,,2,8,28,0,,,,,,,AFNE16.jpg,AFSA09.jpg,AFNE11.jpg,AFSA16.jpg,AFSA09.jpg,FS,4,num_6,32,num_2,0.700114087318,,,2017_Jul_24_1153,60.008603469,FEMA4ImagesEEG,001,101057,
AFNE01.JPG,AFNE01.JPG,AFNE01.JPG,AFNE01.JPG,AFNE01.JPG,AFNE01.JPG,,,,,,,,,,,,,,,,,2,9,29,9,,,,,,,AFSA07.jpg,AFSA02.jpg,AFNE09.jpg,AFNE17.jpg,AFNE17.jpg,FN,3,num_4,32,num_6,1.31672476872,,,2017_Jul_24_1153,60.008603469,FEMA4ImagesEEG,001,101057,
AFNE01.JPG,AFNE01.JPG,AFNE01.JPG,AFNE01.JPG,AFNE01.JPG,AFNE01.JPG,,,,,,,,,,,,,,,,,3,0,30,0,,,,,,,AFNE01.jpg,AFSA19.jpg,AFNE18.jpg,AFSA20.jpg,AFSA20.jpg,FS,4,num_4,32,num_2,0.800181154045,,,2017_Jul_24_1153,60.008603469,FEMA4ImagesEEG,001,101057,
AFNE01.JPG,AFNE01.JPG,AFNE01.JPG,AFNE01.JPG,AFNE01.JPG,AFNE01.JPG,,,,,,,,,,,,,,,,,3,1,31,1,,,,,,,AFSA07.jpg,AFNE10.jpg,AFNE19.jpg,AFSA18.jpg,AFSA18.jpg,FS,4,num_4,32,num_8,0.866729916539,,,2017_Jul_24_1153,60.008603469,FEMA4ImagesEEG,001,101057,
AFNE01.JPG,AFNE01.JPG,AFNE01.JPG,AFNE01.JPG,AFNE01.JPG,AFNE01.JPG,,,,,,,,,,,,,,,,,3,2,32,5,,,,,,,AFSA14.jpg,AFNE20.jpg,AFNE13.jpg,AFSA01.jpg,AFNE13.jpg,FN,3,num_2,16,num_2,0.750187713071,,,2017_Jul_24_1153,60.008603469,FEMA4ImagesEEG,001,101057,
AFNE01.JPG,AFNE01.JPG,AFNE01.JPG,AFNE01.JPG,AFNE01.JPG,AFNE01.JPG,,,,,,,,,,,,,,,,,3,3,33,9,,,,,,,AFSA15.jpg,AFNE18.jpg,AFSA11.jpg,AFNE15.jpg,AFNE15.jpg,FN,3,num_4,16,num_4,0.666767379036,,,2017_Jul_24_1153,60.008603469,FEMA4ImagesEEG,001,101057,
AFNE01.JPG,AFNE01.JPG,AFNE01.JPG,AFNE01.JPG,AFNE01.JPG,AFNE01.JPG,,,,,,,,,,,,,,,,,3,4,34,6,,,,,,,AFNE09.jpg,AFNE02.jpg,AFSA01.jpg,AFSA18.jpg,AFSA18.jpg,FS,4,num_4,16,num_4,0.966722892364,,,2017_Jul_24_1153,60.008603469,FEMA4ImagesEEG,001,101057,
AFNE01.JPG,AFNE01.JPG,AFNE01.JPG,AFNE01.JPG,AFNE01.JPG,AFNE01.JPG,,,,,,,,,,,,,,,,,3,5,35,2,,,,,,,AFNE07.jpg,AFNE20.jpg,AFSA18.jpg,AFSA14.jpg,AFSA18.jpg,FS,4,num_2,16,num_2,3.23327011545,,,2017_Jul_24_1153,60.008603469,FEMA4ImagesEEG,001,101057,
AFNE01.JPG,AFNE01.JPG,AFNE01.JPG,AFNE01.JPG,AFNE01.JPG,AFNE01.JPG,,,,,,,,,,,,,,,,,3,6,36,4,,,,,,,AFNE05.jpg,AFNE10.jpg,AFSA17.jpg,AFSA20.jpg,AFNE05.jpg,FN,3,num_8,32,num_2,1.11692933668,,,2017_Jul_24_1153,60.008603469,FEMA4ImagesEEG,001,101057,
AFNE01.JPG,AFNE01.JPG,AFNE01.JPG,AFNE01.JPG,AFNE01.JPG,AFNE01.JPG,,,,,,,,,,,,,,,,,3,7,37,8,,,,,,,AFSA08.jpg,AFSA17.jpg,AFNE20.jpg,AFNE08.jpg,AFSA17.jpg,FS,4,num_6,16,num_6,0.516795075033,,,2017_Jul_24_1153,60.008603469,FEMA4ImagesEEG,001,101057,
AFNE01.JPG,AFNE01.JPG,AFNE01.JPG,AFNE01.JPG,AFNE01.JPG,AFNE01.JPG,,,,,,,,,,,,,,,,,3,8,38,3,,,,,,,AFNE02.jpg,AFNE07.jpg,AFSA05.jpg,AFSA09.jpg,AFNE02.jpg,FN,3,num_8,32,num_4,0.883424760308,,,2017_Jul_24_1153,60.008603469,FEMA4ImagesEEG,001,101057,
AFNE01.JPG,AFNE01.JPG,AFNE01.JPG,AFNE01.JPG,AFNE01.JPG,AFNE01.JPG,,,,,,,,,,,,,,,,,3,9,39,7,,,,,,,AFSA08.jpg,AFNE08.jpg,AFNE09.jpg,AFSA03.jpg,AFNE09.jpg,FN,3,num_2,16,num_2,0.750324348453,,,2017_Jul_24_1153,60.008603469,FEMA4ImagesEEG,001,101057,
AFNE01.JPG,AFNE01.JPG,AFNE01.JPG,AFNE01.JPG,AFNE01.JPG,AFNE01.JPG,,,,,,,,,,,,,,,,,4,0,40,6,,,,,,,AFNE03.jpg,AFSA02.jpg,AFNE13.jpg,AFSA14.jpg,AFSA02.jpg,FS,4,num_6,16,num_6,0.750106886611,,,2017_Jul_24_1153,60.008603469,FEMA4ImagesEEG,001,101057,
AFNE01.JPG,AFNE01.JPG,AFNE01.JPG,AFNE01.JPG,AFNE01.JPG,AFNE01.JPG,,,,,,,,,,,,,,,,,4,1,41,9,,,,,,,AFSA07.jpg,AFNE20.jpg,AFSA18.jpg,AFNE06.jpg,AFSA07.jpg,FS,4,num_8,16,num_8,0.5668273255,,,2017_Jul_24_1153,60.008603469,FEMA4ImagesEEG,001,101057,
AFNE01.JPG,AFNE01.JPG,AFNE01.JPG,AFNE01.JPG,AFNE01.JPG,AFNE01.JPG,,,,,,,,,,,,,,,,,4,2,42,2,,,,,,,AFSA05.jpg,AFNE10.jpg,AFSA16.jpg,AFNE06.jpg,AFNE10.jpg,FN,3,num_6,16,num_6,0.900105812121,,,2017_Jul_24_1153,60.008603469,FEMA4ImagesEEG,001,101057,
AFNE01.JPG,AFNE01.JPG,AFNE01.JPG,AFNE01.JPG,AFNE01.JPG,AFNE01.JPG,,,,,,,,,,,,,,,,,4,3,43,7,,,,,,,AFSA03.jpg,AFNE07.jpg,AFSA17.jpg,AFNE11.jpg,AFNE11.jpg,FN,3,num_4,16,num_4,0.716433344176,,,2017_Jul_24_1153,60.008603469,FEMA4ImagesEEG,001,101057,
AFNE01.JPG,AFNE01.JPG,AFNE01.JPG,AFNE01.JPG,AFNE01.JPG,AFNE01.JPG,,,,,,,,,,,,,,,,,4,4,44,5,,,,,,,AFSA11.jpg,AFSA13.jpg,AFNE12.jpg,AFNE02.jpg,AFSA11.jpg,FS,4,num_8,16,num_8,0.633543514414,,,2017_Jul_24_1153,60.008603469,FEMA4ImagesEEG,001,101057,
AFNE01.JPG,AFNE01.JPG,AFNE01.JPG,AFNE01.JPG,AFNE01.JPG,AFNE01.JPG,,,,,,,,,,,,,,,,,4,5,45,3,,,,,,,AFSA02.jpg,AFNE04.jpg,AFSA17.jpg,AFNE17.jpg,AFSA17.jpg,FS,4,num_2,16,num_2,0.916829522466,,,2017_Jul_24_1153,60.008603469,FEMA4ImagesEEG,001,101057,
AFNE01.JPG,AFNE01.JPG,AFNE01.JPG,AFNE01.JPG,AFNE01.JPG,AFNE01.JPG,,,,,,,,,,,,,,,,,4,6,46,8,,,,,,,AFSA17.jpg,AFSA03.jpg,AFNE08.jpg,AFNE13.jpg,AFSA03.jpg,FS,4,num_6,16,num_6,0.583489453653,,,2017_Jul_24_1153,60.008603469,FEMA4ImagesEEG,001,101057,
AFNE01.JPG,AFNE01.JPG,AFNE01.JPG,AFNE01.JPG,AFNE01.JPG,AFNE01.JPG,,,,,,,,,,,,,,,,,4,7,47,4,,,,,,,AFNE10.jpg,AFNE20.jpg,AFSA07.jpg,AFSA05.jpg,AFSA07.jpg,FS,4,num_2,32,num_8,1.25009453809,,,2017_Jul_24_1153,60.008603469,FEMA4ImagesEEG,001,101057,
AFNE01.JPG,AFNE01.JPG,AFNE01.JPG,AFNE01.JPG,AFNE01.JPG,AFNE01.JPG,,,,,,,,,,,,,,,,,4,8,48,0,,,,,,,AFSA09.jpg,AFNE17.jpg,AFNE14.jpg,AFSA08.jpg,AFNE14.jpg,FN,3,num_2,32,num_8,1.05007779552,,,2017_Jul_24_1153,60.008603469,FEMA4ImagesEEG,001,101057,
AFNE01.JPG,AFNE01.JPG,AFNE01.JPG,AFNE01.JPG,AFNE01.JPG,AFNE01.JPG,,,,,,,,,,,,,,,,,4,9,49,1,,,,,,,AFNE20.jpg,AFSA13.jpg,AFNE19.jpg,AFSA19.jpg,AFSA13.jpg,FS,4,num_6,32,num_4,0.933509291266,,,2017_Jul_24_1153,60.008603469,FEMA4ImagesEEG,001,101057,
AFNE01.JPG,AFNE01.JPG,AFNE01.JPG,AFNE01.JPG,AFNE01.JPG,AFNE01.JPG,,,,,,,,,,,,,,,,,5,0,50,2,,,,,,,AFSA13.jpg,AFNE12.jpg,AFSA12.jpg,AFNE18.jpg,AFNE12.jpg,FN,3,num_6,32,num_2,0.800180833205,,,2017_Jul_24_1153,60.008603469,FEMA4ImagesEEG,001,101057,
AFNE01.JPG,AFNE01.JPG,AFNE01.JPG,AFNE01.JPG,AFNE01.JPG,AFNE01.JPG,,,,,,,,,,,,,,,,,5,1,51,0,,,,,,,AFNE06.jpg,AFSA11.jpg,AFNE17.jpg,AFSA07.jpg,AFSA11.jpg,FS,4,num_6,32,num_4,1.05007458816,,,2017_Jul_24_1153,60.008603469,FEMA4ImagesEEG,001,101057,
AFNE01.JPG,AFNE01.JPG,AFNE01.JPG,AFNE01.JPG,AFNE01.JPG,AFNE01.JPG,,,,,,,,,,,,,,,,,5,2,52,4,,,,,,,AFSA02.jpg,AFNE18.jpg,AFNE09.jpg,AFSA04.jpg,AFSA02.jpg,FS,4,num_8,32,num_4,0.750114905066,,,2017_Jul_24_1153,60.008603469,FEMA4ImagesEEG,001,101057,
AFNE01.JPG,AFNE01.JPG,AFNE01.JPG,AFNE01.JPG,AFNE01.JPG,AFNE01.JPG,,,,,,,,,,,,,,,,,5,3,53,6,,,,,,,AFNE13.jpg,AFNE07.jpg,AFSA14.jpg,AFSA18.jpg,AFNE07.jpg,FN,3,num_6,16,num_6,1.10010619706,,,2017_Jul_24_1153,60.008603469,FEMA4ImagesEEG,001,101057,
AFNE01.JPG,AFNE01.JPG,AFNE01.JPG,AFNE01.JPG,AFNE01.JPG,AFNE01.JPG,,,,,,,,,,,,,,,,,5,4,54,5,,,,,,,AFSA18.jpg,AFNE14.jpg,AFSA20.jpg,AFNE02.jpg,AFSA20.jpg,FS,4,num_2,16,num_2,0.750003608409,,,2017_Jul_24_1153,60.008603469,FEMA4ImagesEEG,001,101057,
AFNE01.JPG,AFNE01.JPG,AFNE01.JPG,AFNE01.JPG,AFNE01.JPG,AFNE01.JPG,,,,,,,,,,,,,,,,,5,5,55,1,,,,,,,AFNE01.jpg,AFSA02.jpg,AFSA19.jpg,AFNE20.jpg,AFNE01.jpg,FN,3,num_8,16,num_8,0.63346974412,,,2017_Jul_24_1153,60.008603469,FEMA4ImagesEEG,001,101057,
AFNE01.JPG,AFNE01.JPG,AFNE01.JPG,AFNE01.JPG,AFNE01.JPG,AFNE01.JPG,,,,,,,,,,,,,,,,,5,6,56,8,,,,,,,AFSA20.jpg,AFNE16.jpg,AFSA18.jpg,AFNE11.jpg,AFSA18.jpg,FS,4,num_2,32,num_4,0.850071958033,,,2017_Jul_24_1153,60.008603469,FEMA4ImagesEEG,001,101057,
AFNE01.JPG,AFNE01.JPG,AFNE01.JPG,AFNE01.JPG,AFNE01.JPG,AFNE01.JPG,,,,,,,,,,,,,,,,,5,7,57,7,,,,,,,AFNE11.jpg,AFNE03.jpg,AFSA04.jpg,AFSA05.jpg,AFSA05.jpg,FS,4,num_4,16,num_4,0.866741142469,,,2017_Jul_24_1153,60.008603469,FEMA4ImagesEEG,001,101057,
AFNE01.JPG,AFNE01.JPG,AFNE01.JPG,AFNE01.JPG,AFNE01.JPG,AFNE01.JPG,,,,,,,,,,,,,,,,,5,8,58,9,,,,,,,AFNE15.jpg,AFSA14.jpg,AFSA02.jpg,AFNE08.jpg,AFSA02.jpg,FS,4,num_2,32,num_6,1.1001806088,,,2017_Jul_24_1153,60.008603469,FEMA4ImagesEEG,001,101057,
AFNE01.JPG,AFNE01.JPG,AFNE01.JPG,AFNE01.JPG,AFNE01.JPG,AFNE01.JPG,,,,,,,,,,,,,,,,,5,9,59,3,,,,,,,AFSA17.jpg,AFSA15.jpg,AFNE13.jpg,AFNE12.jpg,AFSA17.jpg,FS,4,num_8,32,num_4,0.783454877906,,,2017_Jul_24_1153,60.008603469,FEMA4ImagesEEG,001,101057,
,,,,,,,,,,,,,,,,,,,,,,,,,,,,,,,,,,,,,,,,,,,space,6.66657525569,2017_Jul_24_1153,60.008603469,FEMA4ImagesEEG,001,101057,
AFNE01.JPG,AFNE01.JPG,AFNE01.JPG,AFNE01.JPG,AFNE01.JPG,AFNE01.JPG,,,,,,,,,,,,,,,,,,,,,0,0,0,4,,,AMSA06.jpg,AMNE19.jpg,AMSA18.jpg,AMNE06.jpg,AMNE06.jpg,MN,1,num_4,16,num_4,0.90012569807,,,2017_Jul_24_1153,60.008603469,FEMA4ImagesEEG,001,101057,
AFNE01.JPG,AFNE01.JPG,AFNE01.JPG,AFNE01.JPG,AFNE01.JPG,AFNE01.JPG,,,,,,,,,,,,,,,,,,,,,0,1,1,0,,,AMSA11.jpg,AMNE05.jpg,AMSA01.jpg,AMNE15.jpg,AMSA01.jpg,MS,2,num_2,16,num_2,0.450146882911,,,2017_Jul_24_1153,60.008603469,FEMA4ImagesEEG,001,101057,
AFNE01.JPG,AFNE01.JPG,AFNE01.JPG,AFNE01.JPG,AFNE01.JPG,AFNE01.JPG,,,,,,,,,,,,,,,,,,,,,0,2,2,9,,,AMSA11.jpg,AMSA19.jpg,AMNE09.jpg,AMNE06.jpg,AMNE09.jpg,MN,1,num_2,16,num_2,1.35009296646,,,2017_Jul_24_1153,60.008603469,FEMA4ImagesEEG,001,101057,
AFNE01.JPG,AFNE01.JPG,AFNE01.JPG,AFNE01.JPG,AFNE01.JPG,AFNE01.JPG,,,,,,,,,,,,,,,,,,,,,0,3,3,6,,,AMNE19.jpg,AMSA16.jpg,AMNE05.jpg,AMSA11.jpg,AMNE05.jpg,MN,1,num_2,32,num_4,1.08345176664,,,2017_Jul_24_1153,60.008603469,FEMA4ImagesEEG,001,101057,
AFNE01.JPG,AFNE01.JPG,AFNE01.JPG,AFNE01.JPG,AFNE01.JPG,AFNE01.JPG,,,,,,,,,,,,,,,,,,,,,0,4,4,7,,,AMNE07.jpg,AMSA10.jpg,AMNE18.jpg,AMSA02.jpg,AMSA02.jpg,MS,2,num_4,16,num_4,0.550150443101,,,2017_Jul_24_1153,60.008603469,FEMA4ImagesEEG,001,101057,
AFNE01.JPG,AFNE01.JPG,AFNE01.JPG,AFNE01.JPG,AFNE01.JPG,AFNE01.JPG,,,,,,,,,,,,,,,,,,,,,0,5,5,1,,,AMNE20.jpg,AMNE13.jpg,AMSA04.jpg,AMSA16.jpg,AMSA04.jpg,MS,2,num_2,16,num_2,0.999981717789,,,2017_Jul_24_1153,60.008603469,FEMA4ImagesEEG,001,101057,
AFNE01.JPG,AFNE01.JPG,AFNE01.JPG,AFNE01.JPG,AFNE01.JPG,AFNE01.JPG,,,,,,,,,,,,,,,,,,,,,0,6,6,3,,,AMNE18.jpg,AMSA12.jpg,AMSA18.jpg,AMNE07.jpg,AMSA18.jpg,MS,2,num_2,32,num_8,0.750133828842,,,2017_Jul_24_1153,60.008603469,FEMA4ImagesEEG,001,101057,
AFNE01.JPG,AFNE01.JPG,AFNE01.JPG,AFNE01.JPG,AFNE01.JPG,AFNE01.JPG,,,,,,,,,,,,,,,,,,,,,0,7,7,8,,,AMSA19.jpg,AMSA15.jpg,AMNE02.jpg,AMNE09.jpg,AMNE09.jpg,MN,1,num_4,16,num_4,0.649822358042,,,2017_Jul_24_1153,60.008603469,FEMA4ImagesEEG,001,101057,
AFNE01.JPG,AFNE01.JPG,AFNE01.JPG,AFNE01.JPG,AFNE01.JPG,AFNE01.JPG,,,,,,,,,,,,,,,,,,,,,0,8,8,2,,,AMNE03.jpg,AMSA19.jpg,AMNE18.jpg,AMSA02.jpg,AMSA02.jpg,MS,2,num_4,32,num_8,0.88344304252,,,2017_Jul_24_1153,60.008603469,FEMA4ImagesEEG,001,101057,
AFNE01.JPG,AFNE01.JPG,AFNE01.JPG,AFNE01.JPG,AFNE01.JPG,AFNE01.JPG,,,,,,,,,,,,,,,,,,,,,0,9,9,5,,,AMSA04.jpg,AMSA17.jpg,AMNE16.jpg,AMNE12.jpg,AMNE12.jpg,MN,1,num_4,32,num_2,0.800123100053,,,2017_Jul_24_1153,60.008603469,FEMA4ImagesEEG,001,101057,
AFNE01.JPG,AFNE01.JPG,AFNE01.JPG,AFNE01.JPG,AFNE01.JPG,AFNE01.JPG,,,,,,,,,,,,,,,,,,,,,1,0,10,5,,,AMSA16.jpg,AMSA01.jpg,AMNE15.jpg,AMNE07.jpg,AMNE07.jpg,MN,1,num_4,16,num_4,0.900153602357,,,2017_Jul_24_1153,60.008603469,FEMA4ImagesEEG,001,101057,
AFNE01.JPG,AFNE01.JPG,AFNE01.JPG,AFNE01.JPG,AFNE01.JPG,AFNE01.JPG,,,,,,,,,,,,,,,,,,,,,1,1,11,3,,,AMNE08.jpg,AMSA17.jpg,AMSA07.jpg,AMNE04.jpg,AMSA07.jpg,MS,2,num_2,16,num_2,1.25016189355,,,2017_Jul_24_1153,60.008603469,FEMA4ImagesEEG,001,101057,
AFNE01.JPG,AFNE01.JPG,AFNE01.JPG,AFNE01.JPG,AFNE01.JPG,AFNE01.JPG,,,,,,,,,,,,,,,,,,,,,1,2,12,4,,,AMNE09.jpg,AMSA11.jpg,AMNE16.jpg,AMSA09.jpg,AMNE09.jpg,MN,1,num_8,32,num_2,0.683506484842,,,2017_Jul_24_1153,60.008603469,FEMA4ImagesEEG,001,101057,
AFNE01.JPG,AFNE01.JPG,AFNE01.JPG,AFNE01.JPG,AFNE01.JPG,AFNE01.JPG,,,,,,,,,,,,,,,,,,,,,1,3,13,8,,,AMSA09.jpg,AMNE07.jpg,AMNE19.jpg,AMSA17.jpg,AMSA09.jpg,MS,2,num_8,32,num_2,0.83344511129,,,2017_Jul_24_1153,60.008603469,FEMA4ImagesEEG,001,101057,
AFNE01.JPG,AFNE01.JPG,AFNE01.JPG,AFNE01.JPG,AFNE01.JPG,AFNE01.JPG,,,,,,,,,,,,,,,,,,,,,1,4,14,7,,,AMNE19.jpg,AMSA08.jpg,AMNE20.jpg,AMSA10.jpg,AMNE19.jpg,MN,1,num_8,32,num_6,0.983438263414,,,2017_Jul_24_1153,60.008603469,FEMA4ImagesEEG,001,101057,
AFNE01.JPG,AFNE01.JPG,AFNE01.JPG,AFNE01.JPG,AFNE01.JPG,AFNE01.JPG,,,,,,,,,,,,,,,,,,,,,1,5,15,9,,,AMSA01.jpg,AMNE17.jpg,AMNE08.jpg,AMSA05.jpg,AMSA01.jpg,MS,2,num_8,16,num_8,0.900106453686,,,2017_Jul_24_1153,60.008603469,FEMA4ImagesEEG,001,101057,
AFNE01.JPG,AFNE01.JPG,AFNE01.JPG,AFNE01.JPG,AFNE01.JPG,AFNE01.JPG,,,,,,,,,,,,,,,,,,,,,1,6,16,0,,,AMNE20.jpg,AMNE05.jpg,AMSA15.jpg,AMSA06.jpg,AMNE05.jpg,MN,1,num_6,16,num_6,0.56675387593,,,2017_Jul_24_1153,60.008603469,FEMA4ImagesEEG,001,101057,
AFNE01.JPG,AFNE01.JPG,AFNE01.JPG,AFNE01.JPG,AFNE01.JPG,AFNE01.JPG,,,,,,,,,,,,,,,,,,,,,1,7,17,6,,,AMNE04.jpg,AMNE11.jpg,AMSA09.jpg,AMSA01.jpg,AMSA09.jpg,MS,2,num_2,16,num_2,1.15007462027,,,2017_Jul_24_1153,60.008603469,FEMA4ImagesEEG,001,101057,
AFNE01.JPG,AFNE01.JPG,AFNE01.JPG,AFNE01.JPG,AFNE01.JPG,AFNE01.JPG,,,,,,,,,,,,,,,,,,,,,1,8,18,2,,,AMNE03.jpg,AMSA13.jpg,AMNE05.jpg,AMSA04.jpg,AMSA04.jpg,MS,2,num_4,16,num_4,0.833434847649,,,2017_Jul_24_1153,60.008603469,FEMA4ImagesEEG,001,101057,
AFNE01.JPG,AFNE01.JPG,AFNE01.JPG,AFNE01.JPG,AFNE01.JPG,AFNE01.JPG,,,,,,,,,,,,,,,,,,,,,1,9,19,1,,,AMSA09.jpg,AMNE17.jpg,AMSA18.jpg,AMNE18.jpg,AMSA09.jpg,MS,2,num_8,32,num_4,0.783465782995,,,2017_Jul_24_1153,60.008603469,FEMA4ImagesEEG,001,101057,
AFNE01.JPG,AFNE01.JPG,AFNE01.JPG,AFNE01.JPG,AFNE01.JPG,AFNE01.JPG,,,,,,,,,,,,,,,,,,,,,2,0,20,4,,,AMNE20.jpg,AMNE01.jpg,AMSA02.jpg,AMSA06.jpg,AMNE01.jpg,MN,1,num_6,32,num_2,0.850129049737,,,2017_Jul_24_1153,60.008603469,FEMA4ImagesEEG,001,101057,
AFNE01.JPG,AFNE01.JPG,AFNE01.JPG,AFNE01.JPG,AFNE01.JPG,AFNE01.JPG,,,,,,,,,,,,,,,,,,,,,2,1,21,2,,,AMNE05.jpg,AMSA09.jpg,AMSA13.jpg,AMNE17.jpg,AMNE17.jpg,MN,1,num_4,16,num_4,0.83373923006,,,2017_Jul_24_1153,60.008603469,FEMA4ImagesEEG,001,101057,
AFNE01.JPG,AFNE01.JPG,AFNE01.JPG,AFNE01.JPG,AFNE01.JPG,AFNE01.JPG,,,,,,,,,,,,,,,,,,,,,2,2,22,7,,,AMNE03.jpg,AMNE12.jpg,AMSA15.jpg,AMSA04.jpg,AMNE03.jpg,MN,1,num_8,32,num_2,0.766818408854,,,2017_Jul_24_1153,60.008603469,FEMA4ImagesEEG,001,101057,
AFNE01.JPG,AFNE01.JPG,AFNE01.JPG,AFNE01.JPG,AFNE01.JPG,AFNE01.JPG,,,,,,,,,,,,,,,,,,,,,2,3,23,8,,,AMNE05.jpg,AMSA13.jpg,AMSA11.jpg,AMNE18.jpg,AMSA13.jpg,MS,2,num_6,16,num_6,0.73345181474,,,2017_Jul_24_1153,60.008603469,FEMA4ImagesEEG,001,101057,
AFNE01.JPG,AFNE01.JPG,AFNE01.JPG,AFNE01.JPG,AFNE01.JPG,AFNE01.JPG,,,,,,,,,,,,,,,,,,,,,2,4,24,3,,,AMSA07.jpg,AMNE04.jpg,AMSA11.jpg,AMNE09.jpg,AMSA11.jpg,MS,2,num_2,32,num_8,0.750120357727,,,2017_Jul_24_1153,60.008603469,FEMA4ImagesEEG,001,101057,
AFNE01.JPG,AFNE01.JPG,AFNE01.JPG,AFNE01.JPG,AFNE01.JPG,AFNE01.JPG,,,,,,,,,,,,,,,,,,,,,2,5,25,5,,,AMNE18.jpg,AMSA08.jpg,AMNE02.jpg,AMSA17.jpg,AMNE02.jpg,MN,1,num_2,32,num_8,0.799971710658,,,2017_Jul_24_1153,60.008603469,FEMA4ImagesEEG,001,101057,
AFNE01.JPG,AFNE01.JPG,AFNE01.JPG,AFNE01.JPG,AFNE01.JPG,AFNE01.JPG,,,,,,,,,,,,,,,,,,,,,2,6,26,0,,,AMNE16.jpg,AMSA07.jpg,AMNE07.jpg,AMSA03.jpg,AMSA07.jpg,MS,2,num_6,32,num_4,0.850074844668,,,2017_Jul_24_1153,60.008603469,FEMA4ImagesEEG,001,101057,
AFNE01.JPG,AFNE01.JPG,AFNE01.JPG,AFNE01.JPG,AFNE01.JPG,AFNE01.JPG,,,,,,,,,,,,,,,,,,,,,2,7,27,9,,,AMNE18.jpg,AMSA13.jpg,AMSA15.jpg,AMNE13.jpg,AMNE13.jpg,MN,1,num_4,32,num_2,0.899962762021,,,2017_Jul_24_1153,60.008603469,FEMA4ImagesEEG,001,101057,
AFNE01.JPG,AFNE01.JPG,AFNE01.JPG,AFNE01.JPG,AFNE01.JPG,AFNE01.JPG,,,,,,,,,,,,,,,,,,,,,2,8,28,1,,,AMNE15.jpg,AMSA08.jpg,AMSA19.jpg,AMNE19.jpg,AMSA08.jpg,MS,2,num_6,32,num_2,1.26659918297,,,2017_Jul_24_1153,60.008603469,FEMA4ImagesEEG,001,101057,
AFNE01.JPG,AFNE01.JPG,AFNE01.JPG,AFNE01.JPG,AFNE01.JPG,AFNE01.JPG,,,,,,,,,,,,,,,,,,,,,2,9,29,6,,,AMNE12.jpg,AMSA20.jpg,AMSA18.jpg,AMNE04.jpg,AMNE04.jpg,MN,1,num_4,32,num_2,0.783439803054,,,2017_Jul_24_1153,60.008603469,FEMA4ImagesEEG,001,101057,
AFNE01.JPG,AFNE01.JPG,AFNE01.JPG,AFNE01.JPG,AFNE01.JPG,AFNE01.JPG,,,,,,,,,,,,,,,,,,,,,3,0,30,3,,,AMNE18.jpg,AMSA03.jpg,AMNE02.jpg,AMSA01.jpg,AMSA01.jpg,MS,2,num_4,32,num_2,1.03346923087,,,2017_Jul_24_1153,60.008603469,FEMA4ImagesEEG,001,101057,
AFNE01.JPG,AFNE01.JPG,AFNE01.JPG,AFNE01.JPG,AFNE01.JPG,AFNE01.JPG,,,,,,,,,,,,,,,,,,,,,3,1,31,5,,,AMNE12.jpg,AMSA02.jpg,AMNE08.jpg,AMSA07.jpg,AMSA02.jpg,MS,2,num_6,16,num_6,0.633472951478,,,2017_Jul_24_1153,60.008603469,FEMA4ImagesEEG,001,101057,
AFNE01.JPG,AFNE01.JPG,AFNE01.JPG,AFNE01.JPG,AFNE01.JPG,AFNE01.JPG,,,,,,,,,,,,,,,,,,,,,3,2,32,9,,,AMSA03.jpg,AMNE03.jpg,AMSA08.jpg,AMNE02.jpg,AMSA08.jpg,MS,2,num_2,32,num_8,0.866753009846,,,2017_Jul_24_1153,60.008603469,FEMA4ImagesEEG,001,101057,
AFNE01.JPG,AFNE01.JPG,AFNE01.JPG,AFNE01.JPG,AFNE01.JPG,AFNE01.JPG,,,,,,,,,,,,,,,,,,,,,3,3,33,4,,,AMNE04.jpg,AMNE07.jpg,AMSA04.jpg,AMSA14.jpg,AMSA04.jpg,MS,2,num_2,32,num_4,0.750173279899,,,2017_Jul_24_1153,60.008603469,FEMA4ImagesEEG,001,101057,
AFNE01.JPG,AFNE01.JPG,AFNE01.JPG,AFNE01.JPG,AFNE01.JPG,AFNE01.JPG,,,,,,,,,,,,,,,,,,,,,3,4,34,6,,,AMSA10.jpg,AMNE19.jpg,AMSA11.jpg,AMNE04.jpg,AMNE04.jpg,MN,1,num_4,16,num_4,1.0502679944,,,2017_Jul_24_1153,60.008603469,FEMA4ImagesEEG,001,101057,
AFNE01.JPG,AFNE01.JPG,AFNE01.JPG,AFNE01.JPG,AFNE01.JPG,AFNE01.JPG,,,,,,,,,,,,,,,,,,,,,3,5,35,1,,,AMNE12.jpg,AMSA07.jpg,AMNE02.jpg,AMSA17.jpg,AMNE12.jpg,MN,1,num_8,32,num_2,1.06677263929,,,2017_Jul_24_1153,60.008603469,FEMA4ImagesEEG,001,101057,
AFNE01.JPG,AFNE01.JPG,AFNE01.JPG,AFNE01.JPG,AFNE01.JPG,AFNE01.JPG,,,,,,,,,,,,,,,,,,,,,3,6,36,7,,,AMSA10.jpg,AMNE10.jpg,AMNE11.jpg,AMSA19.jpg,AMNE11.jpg,MN,1,num_2,32,num_4,0.750106886611,,,2017_Jul_24_1153,60.008603469,FEMA4ImagesEEG,001,101057,
AFNE01.JPG,AFNE01.JPG,AFNE01.JPG,AFNE01.JPG,AFNE01.JPG,AFNE01.JPG,,,,,,,,,,,,,,,,,,,,,3,7,37,8,,,AMNE05.jpg,AMSA19.jpg,AMNE10.jpg,AMSA13.jpg,AMNE10.jpg,MN,1,num_2,16,num_2,0.750174562796,,,2017_Jul_24_1153,60.008603469,FEMA4ImagesEEG,001,101057,
AFNE01.JPG,AFNE01.JPG,AFNE01.JPG,AFNE01.JPG,AFNE01.JPG,AFNE01.JPG,,,,,,,,,,,,,,,,,,,,,3,8,38,0,,,AMNE19.jpg,AMSA18.jpg,AMSA17.jpg,AMNE11.jpg,AMSA17.jpg,MS,2,num_2,16,num_2,0.63348866778,,,2017_Jul_24_1153,60.008603469,FEMA4ImagesEEG,001,101057,
AFNE01.JPG,AFNE01.JPG,AFNE01.JPG,AFNE01.JPG,AFNE01.JPG,AFNE01.JPG,,,,,,,,,,,,,,,,,,,,,3,9,39,2,,,AMSA04.jpg,AMNE14.jpg,AMSA11.jpg,AMNE12.jpg,AMSA04.jpg,MS,2,num_8,32,num_2,0.933407616685,,,2017_Jul_24_1153,60.008603469,FEMA4ImagesEEG,001,101057,
AFNE01.JPG,AFNE01.JPG,AFNE01.JPG,AFNE01.JPG,AFNE01.JPG,AFNE01.JPG,,,,,,,,,,,,,,,,,,,,,4,0,40,3,,,AMSA13.jpg,AMNE06.jpg,AMSA15.jpg,AMNE08.jpg,AMNE08.jpg,MN,1,num_4,32,num_2,1.11671796907,,,2017_Jul_24_1153,60.008603469,FEMA4ImagesEEG,001,101057,
