IPosition2,IPosition3,IPosition1,IPosition6,IPosition4,IPosition5,TrialsF1.thisRepN,TrialsF1.thisTrialN,TrialsF1.thisN,TrialsF1.thisIndex,TrialsM1.thisRepN,TrialsM1.thisTrialN,TrialsM1.thisN,TrialsM1.thisIndex,TrialsF2.thisRepN,TrialsF2.thisTrialN,TrialsF2.thisN,TrialsF2.thisIndex,TrialsM2.thisRepN,TrialsM2.thisTrialN,TrialsM2.thisN,TrialsM2.thisIndex,TrialsF3.thisRepN,TrialsF3.thisTrialN,TrialsF3.thisN,TrialsF3.thisIndex,TrialsM3.thisRepN,TrialsM3.thisTrialN,TrialsM3.thisN,TrialsM3.thisIndex,InstrKey_resp.keys,InstrKey_resp.rt,Image0 _Position,Image1 _Position,Image2 _Position,Image3 _Position,Center_image,condition,code,correct_answer,accuracy,Key_Resp.keys,Key_Resp.rt,BreakKey_resp.keys,BreakKey_resp.rt,date,frameRate,expName,session,participant,
,,,,,,,,,,,,,,,,,,,,,,,,,,,,,,space,13.3662470424,,,,,,,,,,,,,,2017_Jul_18_1554,60.00421482,FEMA4ImagesEEG,001,101033,
AFNE22.JPG,AFSA24.JPG,AFSA22.JPG,AFNE25.JPG,AFNE24.JPG,AFSA25.JPG,0,0,0,6,,,,,,,,,,,,,,,,,,,,,,,AFNE04.jpg,AFSA05.jpg,AFSA12.jpg,AFNE19.jpg,AFNE04.jpg,FN,3,num_8,32,num_4,1.90004070192,,,2017_Jul_18_1554,60.00421482,FEMA4ImagesEEG,001,101033,
AFSA25.JPG,AFNE24.JPG,AFSA24.JPG,AFNE21.JPG,AFSA21.JPG,AFNE25.JPG,0,1,1,2,,,,,,,,,,,,,,,,,,,,,,,AFSA11.jpg,AFNE20.jpg,AFNE04.jpg,AFSA18.jpg,AFNE20.jpg,FN,3,num_6,32,num_2,2.2833985879,,,2017_Jul_18_1554,60.00421482,FEMA4ImagesEEG,001,101033,
AFSA21.JPG,AFNE23.JPG,AFNE21.JPG,AFSA25.JPG,AFNE25.JPG,AFSA23.JPG,0,2,2,4,,,,,,,,,,,,,,,,,,,,,,,AFNE14.jpg,AFNE20.jpg,AFSA15.jpg,AFSA04.jpg,AFSA04.jpg,FS,4,num_4,32,num_2,1.66675037984,,,2017_Jul_18_1554,60.00421482,FEMA4ImagesEEG,001,101033,
AFSA21.JPG,AFNE22.JPG,AFNE21.JPG,AFSA23.JPG,AFSA22.JPG,AFNE23.JPG,0,3,3,0,,,,,,,,,,,,,,,,,,,,,,,AFNE01.jpg,AFNE16.jpg,AFSA12.jpg,AFSA07.jpg,AFNE16.jpg,FN,3,num_6,32,num_4,1.1167647971,,,2017_Jul_18_1554,60.00421482,FEMA4ImagesEEG,001,101033,
AFNE23.JPG,AFNE24.JPG,AFNE22.JPG,AFSA24.JPG,AFSA22.JPG,AFSA23.JPG,0,4,4,8,,,,,,,,,,,,,,,,,,,,,,,AFNE08.jpg,AFNE17.jpg,AFSA17.jpg,AFSA06.jpg,AFSA06.jpg,FS,4,num_4,16,num_4,1.46675095717,,,2017_Jul_18_1554,60.00421482,FEMA4ImagesEEG,001,101033,
AMNE22.JPG,AMSA24.JPG,AMSA22.JPG,AMNE25.JPG,AMNE24.JPG,AMSA25.JPG,0,5,5,7,,,,,,,,,,,,,,,,,,,,,,,AFNE20.jpg,AFSA04.jpg,AFNE03.jpg,AFSA12.jpg,AFNE20.jpg,FN,3,num_8,16,num_8,1.10007091565,,,2017_Jul_18_1554,60.00421482,FEMA4ImagesEEG,001,101033,
AMNE23.JPG,AMNE24.JPG,AMNE22.JPG,AMSA24.JPG,AMSA22.JPG,AMSA23.JPG,0,6,6,9,,,,,,,,,,,,,,,,,,,,,,,AFNE05.jpg,AFNE01.jpg,AFSA10.jpg,AFSA12.jpg,AFNE05.jpg,FN,3,num_8,16,num_8,1.44987842346,,,2017_Jul_18_1554,60.00421482,FEMA4ImagesEEG,001,101033,
AMSA21.JPG,AMNE22.JPG,AMNE21.JPG,AMSA23.JPG,AMSA22.JPG,AMNE23.JPG,0,7,7,1,,,,,,,,,,,,,,,,,,,,,,,AFSA01.jpg,AFNE11.jpg,AFNE15.jpg,AFSA11.jpg,AFSA01.jpg,FS,4,num_8,32,num_2,1.36674258586,,,2017_Jul_18_1554,60.00421482,FEMA4ImagesEEG,001,101033,
AMSA21.JPG,AMNE23.JPG,AMNE21.JPG,AMSA25.JPG,AMNE25.JPG,AMSA23.JPG,0,8,8,5,,,,,,,,,,,,,,,,,,,,,,,AFSA07.jpg,AFNE03.jpg,AFSA06.jpg,AFNE04.jpg,AFSA06.jpg,FS,4,num_2,32,num_6,1.3334641953,,,2017_Jul_18_1554,60.00421482,FEMA4ImagesEEG,001,101033,
AMSA25.JPG,AMNE24.JPG,AMSA24.JPG,AMNE26.JPG,AMSA21.JPG,AMNE25.JPG,0,9,9,3,,,,,,,,,,,,,,,,,,,,,,,AFNE17.jpg,AFNE02.jpg,AFSA13.jpg,AFSA11.jpg,AFNE02.jpg,FN,3,num_6,32,num_4,2.40029745438,,,2017_Jul_18_1554,60.00421482,FEMA4ImagesEEG,001,101033,
AMNE23.JPG,AMNE24.JPG,AMNE22.JPG,AMSA24.JPG,AMSA22.JPG,AMSA23.JPG,,,,,0,0,0,9,,,,,,,,,,,,,,,,,,,AMSA15.jpg,AMNE18.jpg,AMSA20.jpg,AMNE07.jpg,AMSA15.jpg,MS,2,num_8,32,num_2,1.33340902801,,,2017_Jul_18_1554,60.00421482,FEMA4ImagesEEG,001,101033,
AFNE23.JPG,AFNE24.JPG,AFNE22.JPG,AFSA24.JPG,AFSA22.JPG,AFSA23.JPG,,,,,0,1,1,8,,,,,,,,,,,,,,,,,,,AMSA16.jpg,AMNE09.jpg,AMSA06.jpg,AMNE14.jpg,AMNE14.jpg,MN,1,num_4,16,num_4,1.16671173065,,,2017_Jul_18_1554,60.00421482,FEMA4ImagesEEG,001,101033,
AMSA21.JPG,AMNE22.JPG,AMNE21.JPG,AMSA23.JPG,AMSA22.JPG,AMNE23.JPG,,,,,0,2,2,1,,,,,,,,,,,,,,,,,,,AMSA14.jpg,AMSA06.jpg,AMNE16.jpg,AMNE12.jpg,AMNE12.jpg,MN,1,num_4,32,num_6,2.38334473564,,,2017_Jul_18_1554,60.00421482,FEMA4ImagesEEG,001,101033,
AFSA21.JPG,AFNE22.JPG,AFNE21.JPG,AFSA23.JPG,AFSA22.JPG,AFNE23.JPG,,,,,0,3,3,0,,,,,,,,,,,,,,,,,,,AMNE01.jpg,AMSA05.jpg,AMSA12.jpg,AMNE04.jpg,AMSA12.jpg,MS,2,num_2,16,num_2,1.58341215522,,,2017_Jul_18_1554,60.00421482,FEMA4ImagesEEG,001,101033,
AFSA21.JPG,AFNE23.JPG,AFNE21.JPG,AFSA25.JPG,AFNE25.JPG,AFSA23.JPG,,,,,0,4,4,4,,,,,,,,,,,,,,,,,,,AMNE11.jpg,AMNE08.jpg,AMSA02.jpg,AMSA11.jpg,AMNE08.jpg,MN,1,num_6,32,num_2,1.78326179225,,,2017_Jul_18_1554,60.00421482,FEMA4ImagesEEG,001,101033,
AMSA21.JPG,AMNE23.JPG,AMNE21.JPG,AMSA25.JPG,AMNE25.JPG,AMSA23.JPG,,,,,0,5,5,5,,,,,,,,,,,,,,,,,,,AMNE19.jpg,AMSA10.jpg,AMNE09.jpg,AMSA01.jpg,AMNE19.jpg,MN,1,num_8,32,num_6,3.83322572503,,,2017_Jul_18_1554,60.00421482,FEMA4ImagesEEG,001,101033,
AMNE22.JPG,AMSA24.JPG,AMSA22.JPG,AMNE25.JPG,AMNE24.JPG,AMSA25.JPG,,,,,0,6,6,7,,,,,,,,,,,,,,,,,,,AMNE14.jpg,AMNE07.jpg,AMSA12.jpg,AMSA17.jpg,AMSA17.jpg,MS,2,num_4,16,num_4,1.25008523668,,,2017_Jul_18_1554,60.00421482,FEMA4ImagesEEG,001,101033,
AFNE22.JPG,AFSA24.JPG,AFSA22.JPG,AFNE25.JPG,AFNE24.JPG,AFSA25.JPG,,,,,0,7,7,6,,,,,,,,,,,,,,,,,,,AMSA14.jpg,AMSA08.jpg,AMNE09.jpg,AMNE05.jpg,AMSA08.jpg,MS,2,num_6,16,num_6,1.21686522083,,,2017_Jul_18_1554,60.00421482,FEMA4ImagesEEG,001,101033,
AMSA25.JPG,AMNE24.JPG,AMSA24.JPG,AMNE26.JPG,AMSA21.JPG,AMNE25.JPG,,,,,0,8,8,3,,,,,,,,,,,,,,,,,,,AMSA08.jpg,AMNE11.jpg,AMNE14.jpg,AMSA17.jpg,AMSA17.jpg,MS,2,num_4,32,num_8,2.58335057313,,,2017_Jul_18_1554,60.00421482,FEMA4ImagesEEG,001,101033,
AFSA25.JPG,AFNE24.JPG,AFSA24.JPG,AFNE21.JPG,AFSA21.JPG,AFNE25.JPG,,,,,0,9,9,2,,,,,,,,,,,,,,,,,,,AMSA14.jpg,AMNE16.jpg,AMNE18.jpg,AMSA13.jpg,AMNE16.jpg,MN,1,num_6,32,num_4,1.58343492777,,,2017_Jul_18_1554,60.00421482,FEMA4ImagesEEG,001,101033,
AFSA21.JPG,AFNE23.JPG,AFNE21.JPG,AFSA25.JPG,AFNE25.JPG,AFSA23.JPG,,,,,,,,,0,0,0,4,,,,,,,,,,,,,,,AFSA14.jpg,AFNE11.jpg,AFSA12.jpg,AFNE08.jpg,AFSA14.jpg,FS,4,num_8,32,num_2,1.95005723607,,,2017_Jul_18_1554,60.00421482,FEMA4ImagesEEG,001,101033,
AMNE22.JPG,AMSA24.JPG,AMSA22.JPG,AMNE25.JPG,AMNE24.JPG,AMSA25.JPG,,,,,,,,,0,1,1,7,,,,,,,,,,,,,,,AFNE19.jpg,AFNE16.jpg,AFSA16.jpg,AFSA05.jpg,AFNE19.jpg,FN,3,num_8,16,num_8,0.933509291353,,,2017_Jul_18_1554,60.00421482,FEMA4ImagesEEG,001,101033,
AMNE23.JPG,AMNE24.JPG,AMNE22.JPG,AMSA24.JPG,AMSA22.JPG,AMSA23.JPG,,,,,,,,,0,2,2,9,,,,,,,,,,,,,,,AFNE02.jpg,AFSA04.jpg,AFSA18.jpg,AFNE17.jpg,AFNE17.jpg,FN,3,num_4,32,num_8,0.88347062614,,,2017_Jul_18_1554,60.00421482,FEMA4ImagesEEG,001,101033,
AFNE23.JPG,AFNE24.JPG,AFNE22.JPG,AFSA24.JPG,AFSA22.JPG,AFSA23.JPG,,,,,,,,,0,3,3,8,,,,,,,,,,,,,,,AFNE05.jpg,AFNE11.jpg,AFSA03.jpg,AFSA12.jpg,AFSA12.jpg,FS,4,num_4,32,num_2,1.38342363772,,,2017_Jul_18_1554,60.00421482,FEMA4ImagesEEG,001,101033,
AFNE22.JPG,AFSA24.JPG,AFSA22.JPG,AFNE25.JPG,AFNE24.JPG,AFSA25.JPG,,,,,,,,,0,4,4,6,,,,,,,,,,,,,,,AFNE02.jpg,AFSA18.jpg,AFSA20.jpg,AFNE16.jpg,AFNE02.jpg,FN,3,num_8,32,num_4,1.16670756103,,,2017_Jul_18_1554,60.00421482,FEMA4ImagesEEG,001,101033,
AFSA25.JPG,AFNE24.JPG,AFSA24.JPG,AFNE21.JPG,AFSA21.JPG,AFNE25.JPG,,,,,,,,,0,5,5,2,,,,,,,,,,,,,,,AFSA07.jpg,AFNE18.jpg,AFNE06.jpg,AFSA03.jpg,AFNE18.jpg,FN,3,num_6,16,num_6,1.00008210947,,,2017_Jul_18_1554,60.00421482,FEMA4ImagesEEG,001,101033,
AMSA21.JPG,AMNE22.JPG,AMNE21.JPG,AMSA23.JPG,AMSA22.JPG,AMNE23.JPG,,,,,,,,,0,6,6,1,,,,,,,,,,,,,,,AFNE18.jpg,AFSA07.jpg,AFNE07.jpg,AFSA08.jpg,AFSA07.jpg,FS,4,num_6,32,num_2,1.51692689916,,,2017_Jul_18_1554,60.00421482,FEMA4ImagesEEG,001,101033,
AFSA21.JPG,AFNE22.JPG,AFNE21.JPG,AFSA23.JPG,AFSA22.JPG,AFNE23.JPG,,,,,,,,,0,7,7,0,,,,,,,,,,,,,,,AFSA10.jpg,AFSA16.jpg,AFNE03.jpg,AFNE10.jpg,AFNE10.jpg,FN,3,num_4,16,num_4,1.38340022368,,,2017_Jul_18_1554,60.00421482,FEMA4ImagesEEG,001,101033,
AMSA25.JPG,AMNE24.JPG,AMSA24.JPG,AMNE26.JPG,AMSA21.JPG,AMNE25.JPG,,,,,,,,,0,8,8,3,,,,,,,,,,,,,,,AFNE13.jpg,AFSA08.jpg,AFSA14.jpg,AFNE14.jpg,AFSA14.jpg,FS,4,num_2,32,num_4,1.83359521764,,,2017_Jul_18_1554,60.00421482,FEMA4ImagesEEG,001,101033,
AMSA21.JPG,AMNE23.JPG,AMNE21.JPG,AMSA25.JPG,AMNE25.JPG,AMSA23.JPG,,,,,,,,,0,9,9,5,,,,,,,,,,,,,,,AFNE14.jpg,AFSA04.jpg,AFNE07.jpg,AFSA05.jpg,AFSA05.jpg,FS,4,num_4,32,num_2,1.3835586693,,,2017_Jul_18_1554,60.00421482,FEMA4ImagesEEG,001,101033,
AMSA25.JPG,AMNE24.JPG,AMSA24.JPG,AMNE26.JPG,AMSA21.JPG,AMNE25.JPG,,,,,,,,,,,,,0,0,0,3,,,,,,,,,,,AMSA13.jpg,AMNE13.jpg,AMSA05.jpg,AMNE06.jpg,AMSA13.jpg,MS,2,num_8,32,num_2,1.11686583025,,,2017_Jul_18_1554,60.00421482,FEMA4ImagesEEG,001,101033,
AMSA21.JPG,AMNE22.JPG,AMNE21.JPG,AMSA23.JPG,AMSA22.JPG,AMNE23.JPG,,,,,,,,,,,,,0,1,1,1,,,,,,,,,,,AMSA04.jpg,AMSA14.jpg,AMNE15.jpg,AMNE18.jpg,AMNE15.jpg,MN,1,num_2,32,num_4,2.21668656859,,,2017_Jul_18_1554,60.00421482,FEMA4ImagesEEG,001,101033,
AMNE22.JPG,AMSA24.JPG,AMSA22.JPG,AMNE25.JPG,AMNE24.JPG,AMSA25.JPG,,,,,,,,,,,,,0,2,2,7,,,,,,,,,,,AMNE15.jpg,AMNE05.jpg,AMSA01.jpg,AMSA14.jpg,AMNE15.jpg,MN,1,num_8,16,num_8,1.58340028783,,,2017_Jul_18_1554,60.00421482,FEMA4ImagesEEG,001,101033,
AFSA21.JPG,AFNE23.JPG,AFNE21.JPG,AFSA25.JPG,AFNE25.JPG,AFSA23.JPG,,,,,,,,,,,,,0,3,3,4,,,,,,,,,,,AMNE14.jpg,AMSA10.jpg,AMNE13.jpg,AMSA19.jpg,AMSA10.jpg,MS,2,num_6,32,num_2,1.50006879875,,,2017_Jul_18_1554,60.00421482,FEMA4ImagesEEG,001,101033,
AFSA21.JPG,AFNE22.JPG,AFNE21.JPG,AFSA23.JPG,AFSA22.JPG,AFNE23.JPG,,,,,,,,,,,,,0,4,4,0,,,,,,,,,,,AMNE09.jpg,AMNE16.jpg,AMSA03.jpg,AMSA12.jpg,AMSA12.jpg,MS,2,num_4,16,num_4,0.983430565699,,,2017_Jul_18_1554,60.00421482,FEMA4ImagesEEG,001,101033,
AMNE23.JPG,AMNE24.JPG,AMNE22.JPG,AMSA24.JPG,AMSA22.JPG,AMSA23.JPG,,,,,,,,,,,,,0,5,5,9,,,,,,,,,,,AMNE17.jpg,AMSA06.jpg,AMSA04.jpg,AMNE03.jpg,AMNE17.jpg,MN,1,num_8,32,num_4,0.833559294755,,,2017_Jul_18_1554,60.00421482,FEMA4ImagesEEG,001,101033,
AFNE22.JPG,AFSA24.JPG,AFSA22.JPG,AFNE25.JPG,AFNE24.JPG,AFSA25.JPG,,,,,,,,,,,,,0,6,6,6,,,,,,,,,,,AMSA19.jpg,AMSA09.jpg,AMNE05.jpg,AMNE09.jpg,AMSA19.jpg,MS,2,num_8,32,num_2,1.86672927513,,,2017_Jul_18_1554,60.00421482,FEMA4ImagesEEG,001,101033,
AMSA21.JPG,AMNE23.JPG,AMNE21.JPG,AMSA25.JPG,AMNE25.JPG,AMSA23.JPG,,,,,,,,,,,,,0,7,7,5,,,,,,,,,,,AMSA11.jpg,AMNE08.jpg,AMSA17.jpg,AMNE19.jpg,AMSA11.jpg,MS,2,num_8,32,num_4,0.900113509924,,,2017_Jul_18_1554,60.00421482,FEMA4ImagesEEG,001,101033,
AFSA25.JPG,AFNE24.JPG,AFSA24.JPG,AFNE21.JPG,AFSA21.JPG,AFNE25.JPG,,,,,,,,,,,,,0,8,8,2,,,,,,,,,,,AMSA10.jpg,AMSA12.jpg,AMNE12.jpg,AMNE09.jpg,AMNE12.jpg,MN,1,num_2,16,num_2,1.46673331647,,,2017_Jul_18_1554,60.00421482,FEMA4ImagesEEG,001,101033,
AFNE23.JPG,AFNE24.JPG,AFNE22.JPG,AFSA24.JPG,AFSA22.JPG,AFSA23.JPG,,,,,,,,,,,,,0,9,9,8,,,,,,,,,,,AMNE14.jpg,AMSA03.jpg,AMSA19.jpg,AMNE18.jpg,AMNE18.jpg,MN,1,num_4,32,num_6,1.10006097269,,,2017_Jul_18_1554,60.00421482,FEMA4ImagesEEG,001,101033,
AFNE22.JPG,AFSA24.JPG,AFSA22.JPG,AFNE25.JPG,AFNE24.JPG,AFSA25.JPG,,,,,,,,,,,,,,,,,0,0,0,6,,,,,,,AFNE02.jpg,AFNE04.jpg,AFSA11.jpg,AFSA05.jpg,AFSA11.jpg,FS,4,num_2,16,num_2,1.2501580447,,,2017_Jul_18_1554,60.00421482,FEMA4ImagesEEG,001,101033,
AMSA21.JPG,AMNE23.JPG,AMNE21.JPG,AMSA25.JPG,AMNE25.JPG,AMSA23.JPG,,,,,,,,,,,,,,,,,0,1,1,5,,,,,,,AFNE18.jpg,AFSA02.jpg,AFNE17.jpg,AFSA05.jpg,AFSA02.jpg,FS,4,num_6,32,num_4,1.51666677892,,,2017_Jul_18_1554,60.00421482,FEMA4ImagesEEG,001,101033,
AMNE23.JPG,AMNE24.JPG,AMNE22.JPG,AMSA24.JPG,AMSA22.JPG,AMSA23.JPG,,,,,,,,,,,,,,,,,0,2,2,9,,,,,,,AFNE03.jpg,AFSA08.jpg,AFSA09.jpg,AFNE15.jpg,AFSA09.jpg,FS,4,num_2,16,num_2,1.18342966764,,,2017_Jul_18_1554,60.00421482,FEMA4ImagesEEG,001,101033,
AFSA25.JPG,AFNE24.JPG,AFSA24.JPG,AFNE21.JPG,AFSA21.JPG,AFNE25.JPG,,,,,,,,,,,,,,,,,0,3,3,2,,,,,,,AFNE10.jpg,AFNE16.jpg,AFSA13.jpg,AFSA09.jpg,AFSA13.jpg,FS,4,num_2,16,num_2,2.58337334567,,,2017_Jul_18_1554,60.00421482,FEMA4ImagesEEG,001,101033,
AMSA21.JPG,AMNE22.JPG,AMNE21.JPG,AMSA23.JPG,AMSA22.JPG,AMNE23.JPG,,,,,,,,,,,,,,,,,0,4,4,1,,,,,,,AFNE07.jpg,AFSA01.jpg,AFSA10.jpg,AFNE01.jpg,AFNE07.jpg,FN,3,num_8,32,num_4,0.983439225674,,,2017_Jul_18_1554,60.00421482,FEMA4ImagesEEG,001,101033,
AFSA21.JPG,AFNE23.JPG,AFNE21.JPG,AFSA25.JPG,AFNE25.JPG,AFSA23.JPG,,,,,,,,,,,,,,,,,0,5,5,4,,,,,,,AFNE10.jpg,AFSA05.jpg,AFNE03.jpg,AFSA19.jpg,AFSA05.jpg,FS,4,num_6,32,num_4,0.950179758787,,,2017_Jul_18_1554,60.00421482,FEMA4ImagesEEG,001,101033,
AFSA21.JPG,AFNE22.JPG,AFNE21.JPG,AFSA23.JPG,AFSA22.JPG,AFNE23.JPG,,,,,,,,,,,,,,,,,0,6,6,0,,,,,,,AFNE02.jpg,AFSA11.jpg,AFNE04.jpg,AFSA18.jpg,AFNE02.jpg,FN,3,num_8,32,num_2,1.9500399161,,,2017_Jul_18_1554,60.00421482,FEMA4ImagesEEG,001,101033,
AMSA25.JPG,AMNE24.JPG,AMSA24.JPG,AMNE26.JPG,AMSA21.JPG,AMNE25.JPG,,,,,,,,,,,,,,,,,0,7,7,3,,,,,,,AFSA10.jpg,AFNE16.jpg,AFSA17.jpg,AFNE03.jpg,AFNE16.jpg,FN,3,num_6,32,num_4,0.633449858229,,,2017_Jul_18_1554,60.00421482,FEMA4ImagesEEG,001,101033,
AMNE22.JPG,AMSA24.JPG,AMSA22.JPG,AMNE25.JPG,AMNE24.JPG,AMSA25.JPG,,,,,,,,,,,,,,,,,0,8,8,7,,,,,,,AFNE03.jpg,AFNE09.jpg,AFSA02.jpg,AFSA06.jpg,AFSA06.jpg,FS,4,num_4,32,num_6,0.883347141193,,,2017_Jul_18_1554,60.00421482,FEMA4ImagesEEG,001,101033,
AFNE23.JPG,AFNE24.JPG,AFNE22.JPG,AFSA24.JPG,AFSA22.JPG,AFSA23.JPG,,,,,,,,,,,,,,,,,0,9,9,8,,,,,,,AFSA02.jpg,AFNE03.jpg,AFNE06.jpg,AFSA10.jpg,AFSA02.jpg,FS,4,num_8,32,num_6,0.850002678169,,,2017_Jul_18_1554,60.00421482,FEMA4ImagesEEG,001,101033,
AFSA21.JPG,AFNE22.JPG,AFNE21.JPG,AFSA23.JPG,AFSA22.JPG,AFNE23.JPG,,,,,,,,,,,,,,,,,,,,,0,0,0,0,,,AMNE17.jpg,AMNE04.jpg,AMSA11.jpg,AMSA06.jpg,AMNE17.jpg,MN,1,num_8,32,num_6,1.08327728399,,,2017_Jul_18_1554,60.00421482,FEMA4ImagesEEG,001,101033,
AMSA21.JPG,AMNE23.JPG,AMNE21.JPG,AMSA25.JPG,AMNE25.JPG,AMSA23.JPG,,,,,,,,,,,,,,,,,,,,,0,1,1,5,,,AMNE17.jpg,AMNE04.jpg,AMSA16.jpg,AMSA04.jpg,AMSA16.jpg,MS,2,num_2,16,num_2,1.38342780733,,,2017_Jul_18_1554,60.00421482,FEMA4ImagesEEG,001,101033,
AMNE22.JPG,AMSA24.JPG,AMSA22.JPG,AMNE25.JPG,AMNE24.JPG,AMSA25.JPG,,,,,,,,,,,,,,,,,,,,,0,2,2,7,,,AMSA17.jpg,AMNE02.jpg,AMNE16.jpg,AMSA01.jpg,AMNE16.jpg,MN,1,num_2,16,num_2,1.16686119554,,,2017_Jul_18_1554,60.00421482,FEMA4ImagesEEG,001,101033,
AMSA21.JPG,AMNE22.JPG,AMNE21.JPG,AMSA23.JPG,AMSA22.JPG,AMNE23.JPG,,,,,,,,,,,,,,,,,,,,,0,3,3,1,,,AMNE12.jpg,AMNE15.jpg,AMSA18.jpg,AMSA11.jpg,AMNE15.jpg,MN,1,num_6,16,num_6,0.816772077902,,,2017_Jul_18_1554,60.00421482,FEMA4ImagesEEG,001,101033,
AFSA21.JPG,AFNE23.JPG,AFNE21.JPG,AFSA25.JPG,AFNE25.JPG,AFSA23.JPG,,,,,,,,,,,,,,,,,,,,,0,4,4,4,,,AMNE12.jpg,AMNE13.jpg,AMSA04.jpg,AMSA01.jpg,AMNE13.jpg,MN,1,num_6,32,num_8,1.03342496879,,,2017_Jul_18_1554,60.00421482,FEMA4ImagesEEG,001,101033,
AMSA25.JPG,AMNE24.JPG,AMSA24.JPG,AMNE26.JPG,AMSA21.JPG,AMNE25.JPG,,,,,,,,,,,,,,,,,,,,,0,5,5,3,,,AMNE10.jpg,AMNE09.jpg,AMSA19.jpg,AMSA13.jpg,AMSA13.jpg,MS,2,num_4,32,num_2,1.55015204685,,,2017_Jul_18_1554,60.00421482,FEMA4ImagesEEG,001,101033,
AFNE23.JPG,AFNE24.JPG,AFNE22.JPG,AFSA24.JPG,AFSA22.JPG,AFSA23.JPG,,,,,,,,,,,,,,,,,,,,,0,6,6,8,,,AMNE16.jpg,AMSA20.jpg,AMNE15.jpg,AMSA03.jpg,AMNE15.jpg,MN,1,num_2,32,num_8,1.23343080626,,,2017_Jul_18_1554,60.00421482,FEMA4ImagesEEG,001,101033,
AMNE23.JPG,AMNE24.JPG,AMNE22.JPG,AMSA24.JPG,AMSA22.JPG,AMSA23.JPG,,,,,,,,,,,,,,,,,,,,,0,7,7,9,,,AMSA16.jpg,AMNE17.jpg,AMSA02.jpg,AMNE06.jpg,AMSA16.jpg,MS,2,num_8,16,num_8,0.800115402293,,,2017_Jul_18_1554,60.00421482,FEMA4ImagesEEG,001,101033,
AFNE22.JPG,AFSA24.JPG,AFSA22.JPG,AFNE25.JPG,AFNE24.JPG,AFSA25.JPG,,,,,,,,,,,,,,,,,,,,,0,8,8,6,,,AMSA10.jpg,AMNE04.jpg,AMNE06.jpg,AMSA06.jpg,AMSA06.jpg,MS,2,num_4,32,num_2,1.63340238869,,,2017_Jul_18_1554,60.00421482,FEMA4ImagesEEG,001,101033,
AFSA25.JPG,AFNE24.JPG,AFSA24.JPG,AFNE21.JPG,AFSA21.JPG,AFNE25.JPG,,,,,,,,,,,,,,,,,,,,,0,9,9,2,,,AMSA08.jpg,AMNE05.jpg,AMNE20.jpg,AMSA20.jpg,AMSA20.jpg,MS,2,num_4,16,num_4,0.800134967445,,,2017_Jul_18_1554,60.00421482,FEMA4ImagesEEG,001,101033,
,,,,,,,,,,,,,,,,,,,,,,,,,,,,,,,,,,,,,,,,,,,space,19.3489543391,2017_Jul_18_1554,60.00421482,FEMA4ImagesEEG,001,101033,
AFNE01.JPG,AFNE01.JPG,AFNE01.JPG,AFNE01.JPG,AFNE01.JPG,AFNE01.JPG,0,0,0,9,,,,,,,,,,,,,,,,,,,,,,,AFNE05.jpg,AFSA14.jpg,AFNE10.jpg,AFSA11.jpg,AFSA11.jpg,FS,4,num_4,16,num_4,1.26673966712,,,2017_Jul_18_1554,60.00421482,FEMA4ImagesEEG,001,101033,
AFNE01.JPG,AFNE01.JPG,AFNE01.JPG,AFNE01.JPG,AFNE01.JPG,AFNE01.JPG,0,1,1,1,,,,,,,,,,,,,,,,,,,,,,,AFNE19.jpg,AFNE10.jpg,AFSA20.jpg,AFSA05.jpg,AFSA20.jpg,FS,4,num_2,32,num_6,2.21667021084,,,2017_Jul_18_1554,60.00421482,FEMA4ImagesEEG,001,101033,
AFNE01.JPG,AFNE01.JPG,AFNE01.JPG,AFNE01.JPG,AFNE01.JPG,AFNE01.JPG,0,2,2,5,,,,,,,,,,,,,,,,,,,,,,,AFNE12.jpg,AFNE13.jpg,AFSA17.jpg,AFSA09.jpg,AFSA17.jpg,FS,4,num_2,16,num_2,1.01686355298,,,2017_Jul_18_1554,60.00421482,FEMA4ImagesEEG,001,101033,
AFNE01.JPG,AFNE01.JPG,AFNE01.JPG,AFNE01.JPG,AFNE01.JPG,AFNE01.JPG,0,3,3,7,,,,,,,,,,,,,,,,,,,,,,,AFSA19.jpg,AFNE01.jpg,AFNE04.jpg,AFSA12.jpg,AFNE01.jpg,FN,3,num_6,16,num_6,2.10000901279,,,2017_Jul_18_1554,60.00421482,FEMA4ImagesEEG,001,101033,
AFNE01.JPG,AFNE01.JPG,AFNE01.JPG,AFNE01.JPG,AFNE01.JPG,AFNE01.JPG,0,4,4,2,,,,,,,,,,,,,,,,,,,,,,,AFSA14.jpg,AFNE19.jpg,AFSA07.jpg,AFNE16.jpg,AFNE16.jpg,FN,3,num_4,32,num_8,1.73319746782,,,2017_Jul_18_1554,60.00421482,FEMA4ImagesEEG,001,101033,
AFNE01.JPG,AFNE01.JPG,AFNE01.JPG,AFNE01.JPG,AFNE01.JPG,AFNE01.JPG,0,5,5,6,,,,,,,,,,,,,,,,,,,,,,,AFNE04.jpg,AFSA14.jpg,AFNE13.jpg,AFSA16.jpg,AFSA14.jpg,FS,4,num_6,32,num_2,0.950147364041,,,2017_Jul_18_1554,60.00421482,FEMA4ImagesEEG,001,101033,
AFNE01.JPG,AFNE01.JPG,AFNE01.JPG,AFNE01.JPG,AFNE01.JPG,AFNE01.JPG,0,6,6,8,,,,,,,,,,,,,,,,,,,,,,,AFSA12.jpg,AFSA04.jpg,AFNE06.jpg,AFNE15.jpg,AFSA04.jpg,FS,4,num_6,32,num_4,1.68356068997,,,2017_Jul_18_1554,60.00421482,FEMA4ImagesEEG,001,101033,
AFNE01.JPG,AFNE01.JPG,AFNE01.JPG,AFNE01.JPG,AFNE01.JPG,AFNE01.JPG,0,7,7,3,,,,,,,,,,,,,,,,,,,,,,,AFNE10.jpg,AFNE03.jpg,AFSA14.jpg,AFSA09.jpg,AFSA09.jpg,FS,4,num_4,32,num_2,1.58337911898,,,2017_Jul_18_1554,60.00421482,FEMA4ImagesEEG,001,101033,
AFNE01.JPG,AFNE01.JPG,AFNE01.JPG,AFNE01.JPG,AFNE01.JPG,AFNE01.JPG,0,8,8,0,,,,,,,,,,,,,,,,,,,,,,,AFNE06.jpg,AFSA16.jpg,AFNE16.jpg,AFSA13.jpg,AFSA16.jpg,FS,4,num_6,32,num_4,1.15012818378,,,2017_Jul_18_1554,60.00421482,FEMA4ImagesEEG,001,101033,
AFNE01.JPG,AFNE01.JPG,AFNE01.JPG,AFNE01.JPG,AFNE01.JPG,AFNE01.JPG,0,9,9,4,,,,,,,,,,,,,,,,,,,,,,,AFSA13.jpg,AFSA20.jpg,AFNE02.jpg,AFNE19.jpg,AFNE02.jpg,FN,3,num_2,16,num_2,1.1334740741,,,2017_Jul_18_1554,60.00421482,FEMA4ImagesEEG,001,101033,
AFNE01.JPG,AFNE01.JPG,AFNE01.JPG,AFNE01.JPG,AFNE01.JPG,AFNE01.JPG,1,0,10,4,,,,,,,,,,,,,,,,,,,,,,,AFNE10.jpg,AFNE04.jpg,AFSA12.jpg,AFSA14.jpg,AFNE04.jpg,FN,3,num_6,32,num_8,0.783487593289,,,2017_Jul_18_1554,60.00421482,FEMA4ImagesEEG,001,101033,
AFNE01.JPG,AFNE01.JPG,AFNE01.JPG,AFNE01.JPG,AFNE01.JPG,AFNE01.JPG,1,1,11,2,,,,,,,,,,,,,,,,,,,,,,,AFSA16.jpg,AFNE13.jpg,AFNE06.jpg,AFSA05.jpg,AFSA05.jpg,FS,4,num_4,32,num_6,1.81656295534,,,2017_Jul_18_1554,60.00421482,FEMA4ImagesEEG,001,101033,
AFNE01.JPG,AFNE01.JPG,AFNE01.JPG,AFNE01.JPG,AFNE01.JPG,AFNE01.JPG,1,2,12,6,,,,,,,,,,,,,,,,,,,,,,,AFSA06.jpg,AFSA20.jpg,AFNE16.jpg,AFNE02.jpg,AFSA20.jpg,FS,4,num_6,32,num_4,1.15009803421,,,2017_Jul_18_1554,60.00421482,FEMA4ImagesEEG,001,101033,
AFNE01.JPG,AFNE01.JPG,AFNE01.JPG,AFNE01.JPG,AFNE01.JPG,AFNE01.JPG,1,3,13,0,,,,,,,,,,,,,,,,,,,,,,,AFSA12.jpg,AFNE20.jpg,AFSA10.jpg,AFNE04.jpg,AFNE20.jpg,FN,3,num_6,32,num_2,2.06668668085,,,2017_Jul_18_1554,60.00421482,FEMA4ImagesEEG,001,101033,
AFNE01.JPG,AFNE01.JPG,AFNE01.JPG,AFNE01.JPG,AFNE01.JPG,AFNE01.JPG,1,4,14,8,,,,,,,,,,,,,,,,,,,,,,,AFSA05.jpg,AFNE01.jpg,AFNE18.jpg,AFSA18.jpg,AFNE01.jpg,FN,3,num_6,32,num_2,2.06683454204,,,2017_Jul_18_1554,60.00421482,FEMA4ImagesEEG,001,101033,
AFNE01.JPG,AFNE01.JPG,AFNE01.JPG,AFNE01.JPG,AFNE01.JPG,AFNE01.JPG,1,5,15,3,,,,,,,,,,,,,,,,,,,,,,,AFSA04.jpg,AFNE16.jpg,AFSA10.jpg,AFNE09.jpg,AFSA10.jpg,FS,4,num_2,16,num_2,0.650068045012,,,2017_Jul_18_1554,60.00421482,FEMA4ImagesEEG,001,101033,
AFNE01.JPG,AFNE01.JPG,AFNE01.JPG,AFNE01.JPG,AFNE01.JPG,AFNE01.JPG,1,6,16,1,,,,,,,,,,,,,,,,,,,,,,,AFSA11.jpg,AFNE08.jpg,AFSA01.jpg,AFNE11.jpg,AFSA11.jpg,FS,4,num_8,32,num_4,0.916749658179,,,2017_Jul_18_1554,60.00421482,FEMA4ImagesEEG,001,101033,
AFNE01.JPG,AFNE01.JPG,AFNE01.JPG,AFNE01.JPG,AFNE01.JPG,AFNE01.JPG,1,7,17,9,,,,,,,,,,,,,,,,,,,,,,,AFNE02.jpg,AFSA19.jpg,AFNE01.jpg,AFSA03.jpg,AFNE02.jpg,FN,3,num_8,32,num_6,1.00014882341,,,2017_Jul_18_1554,60.00421482,FEMA4ImagesEEG,001,101033,
AFNE01.JPG,AFNE01.JPG,AFNE01.JPG,AFNE01.JPG,AFNE01.JPG,AFNE01.JPG,1,8,18,5,,,,,,,,,,,,,,,,,,,,,,,AFSA11.jpg,AFSA14.jpg,AFNE03.jpg,AFNE20.jpg,AFSA14.jpg,FS,4,num_6,32,num_4,0.400184553859,,,2017_Jul_18_1554,60.00421482,FEMA4ImagesEEG,001,101033,
AFNE01.JPG,AFNE01.JPG,AFNE01.JPG,AFNE01.JPG,AFNE01.JPG,AFNE01.JPG,1,9,19,7,,,,,,,,,,,,,,,,,,,,,,,AFSA20.jpg,AFNE20.jpg,AFSA18.jpg,AFNE14.jpg,AFNE20.jpg,FN,3,num_6,32,num_8,1.95006493384,,,2017_Jul_18_1554,60.00421482,FEMA4ImagesEEG,001,101033,
AFNE01.JPG,AFNE01.JPG,AFNE01.JPG,AFNE01.JPG,AFNE01.JPG,AFNE01.JPG,2,0,20,6,,,,,,,,,,,,,,,,,,,,,,,AFNE04.jpg,AFSA19.jpg,AFNE12.jpg,AFSA09.jpg,AFNE04.jpg,FN,3,num_8,16,num_8,0.966741816068,,,2017_Jul_18_1554,60.00421482,FEMA4ImagesEEG,001,101033,
AFNE01.JPG,AFNE01.JPG,AFNE01.JPG,AFNE01.JPG,AFNE01.JPG,AFNE01.JPG,2,1,21,7,,,,,,,,,,,,,,,,,,,,,,,AFNE03.jpg,AFSA08.jpg,AFSA15.jpg,AFNE14.jpg,AFSA15.jpg,FS,4,num_2,16,num_2,1.08340173116,,,2017_Jul_18_1554,60.00421482,FEMA4ImagesEEG,001,101033,
AFNE01.JPG,AFNE01.JPG,AFNE01.JPG,AFNE01.JPG,AFNE01.JPG,AFNE01.JPG,2,2,22,4,,,,,,,,,,,,,,,,,,,,,,,AFSA02.jpg,AFNE10.jpg,AFNE07.jpg,AFSA09.jpg,AFSA09.jpg,FS,4,num_4,16,num_4,0.566813212834,,,2017_Jul_18_1554,60.00421482,FEMA4ImagesEEG,001,101033,
AFNE01.JPG,AFNE01.JPG,AFNE01.JPG,AFNE01.JPG,AFNE01.JPG,AFNE01.JPG,2,3,23,2,,,,,,,,,,,,,,,,,,,,,,,AFNE01.jpg,AFSA09.jpg,AFSA04.jpg,AFNE04.jpg,AFNE04.jpg,FN,3,num_4,16,num_4,0.650190247005,,,2017_Jul_18_1554,60.00421482,FEMA4ImagesEEG,001,101033,
AFNE01.JPG,AFNE01.JPG,AFNE01.JPG,AFNE01.JPG,AFNE01.JPG,AFNE01.JPG,2,4,24,0,,,,,,,,,,,,,,,,,,,,,,,AFNE07.jpg,AFSA05.jpg,AFSA16.jpg,AFNE12.jpg,AFSA05.jpg,FS,4,num_6,16,num_6,0.500157643779,,,2017_Jul_18_1554,60.00421482,FEMA4ImagesEEG,001,101033,
AFNE01.JPG,AFNE01.JPG,AFNE01.JPG,AFNE01.JPG,AFNE01.JPG,AFNE01.JPG,2,5,25,9,,,,,,,,,,,,,,,,,,,,,,,AFNE09.jpg,AFSA15.jpg,AFSA09.jpg,AFNE03.jpg,AFNE09.jpg,FN,3,num_8,16,num_8,2.14994055082,,,2017_Jul_18_1554,60.00421482,FEMA4ImagesEEG,001,101033,
AFNE01.JPG,AFNE01.JPG,AFNE01.JPG,AFNE01.JPG,AFNE01.JPG,AFNE01.JPG,2,6,26,1,,,,,,,,,,,,,,,,,,,,,,,AFNE13.jpg,AFSA07.jpg,AFNE16.jpg,AFSA05.jpg,AFNE13.jpg,FN,3,num_8,32,num_6,0.850411301086,,,2017_Jul_18_1554,60.00421482,FEMA4ImagesEEG,001,101033,
AFNE01.JPG,AFNE01.JPG,AFNE01.JPG,AFNE01.JPG,AFNE01.JPG,AFNE01.JPG,2,7,27,3,,,,,,,,,,,,,,,,,,,,,,,AFSA04.jpg,AFSA05.jpg,AFNE10.jpg,AFNE13.jpg,AFSA05.jpg,FS,4,num_6,16,num_6,1.05001685489,,,2017_Jul_18_1554,60.00421482,FEMA4ImagesEEG,001,101033,
AFNE01.JPG,AFNE01.JPG,AFNE01.JPG,AFNE01.JPG,AFNE01.JPG,AFNE01.JPG,2,8,28,5,,,,,,,,,,,,,,,,,,,,,,,AFNE11.jpg,AFSA03.jpg,AFNE19.jpg,AFSA07.jpg,AFNE19.jpg,FN,3,num_2,32,num_8,1.26671464939,,,2017_Jul_18_1554,60.00421482,FEMA4ImagesEEG,001,101033,
AFNE01.JPG,AFNE01.JPG,AFNE01.JPG,AFNE01.JPG,AFNE01.JPG,AFNE01.JPG,2,9,29,8,,,,,,,,,,,,,,,,,,,,,,,AFSA19.jpg,AFNE05.jpg,AFNE15.jpg,AFSA20.jpg,AFNE15.jpg,FN,3,num_2,32,num_8,1.31669718509,,,2017_Jul_18_1554,60.00421482,FEMA4ImagesEEG,001,101033,
AFNE01.JPG,AFNE01.JPG,AFNE01.JPG,AFNE01.JPG,AFNE01.JPG,AFNE01.JPG,3,0,30,9,,,,,,,,,,,,,,,,,,,,,,,AFSA17.jpg,AFNE01.jpg,AFNE02.jpg,AFSA16.jpg,AFNE02.jpg,FN,3,num_2,16,num_2,1.2168825408,,,2017_Jul_18_1554,60.00421482,FEMA4ImagesEEG,001,101033,
AFNE01.JPG,AFNE01.JPG,AFNE01.JPG,AFNE01.JPG,AFNE01.JPG,AFNE01.JPG,3,1,31,4,,,,,,,,,,,,,,,,,,,,,,,AFSA08.jpg,AFNE12.jpg,AFNE10.jpg,AFSA01.jpg,AFNE12.jpg,FN,3,num_6,32,num_4,0.833449280879,,,2017_Jul_18_1554,60.00421482,FEMA4ImagesEEG,001,101033,
AFNE01.JPG,AFNE01.JPG,AFNE01.JPG,AFNE01.JPG,AFNE01.JPG,AFNE01.JPG,3,2,32,1,,,,,,,,,,,,,,,,,,,,,,,AFSA17.jpg,AFNE04.jpg,AFSA13.jpg,AFNE08.jpg,AFNE08.jpg,FN,3,num_4,16,num_4,0.816978955278,,,2017_Jul_18_1554,60.00421482,FEMA4ImagesEEG,001,101033,
AFNE01.JPG,AFNE01.JPG,AFNE01.JPG,AFNE01.JPG,AFNE01.JPG,AFNE01.JPG,3,3,33,0,,,,,,,,,,,,,,,,,,,,,,,AFNE09.jpg,AFNE12.jpg,AFSA13.jpg,AFSA08.jpg,AFSA08.jpg,FS,4,num_4,32,num_2,2.58329412286,,,2017_Jul_18_1554,60.00421482,FEMA4ImagesEEG,001,101033,
AFNE01.JPG,AFNE01.JPG,AFNE01.JPG,AFNE01.JPG,AFNE01.JPG,AFNE01.JPG,3,4,34,8,,,,,,,,,,,,,,,,,,,,,,,AFSA12.jpg,AFNE11.jpg,AFSA10.jpg,AFNE10.jpg,AFSA12.jpg,FS,4,num_8,32,num_4,0.999814932948,,,2017_Jul_18_1554,60.00421482,FEMA4ImagesEEG,001,101033,
AFNE01.JPG,AFNE01.JPG,AFNE01.JPG,AFNE01.JPG,AFNE01.JPG,AFNE01.JPG,3,5,35,5,,,,,,,,,,,,,,,,,,,,,,,AFNE06.jpg,AFNE10.jpg,AFSA13.jpg,AFSA18.jpg,AFSA18.jpg,FS,4,num_4,32,num_2,1.15008039351,,,2017_Jul_18_1554,60.00421482,FEMA4ImagesEEG,001,101033,
AFNE01.JPG,AFNE01.JPG,AFNE01.JPG,AFNE01.JPG,AFNE01.JPG,AFNE01.JPG,3,6,36,6,,,,,,,,,,,,,,,,,,,,,,,AFSA14.jpg,AFNE14.jpg,AFNE12.jpg,AFSA18.jpg,AFNE12.jpg,FN,3,num_2,32,num_6,0.800115402293,,,2017_Jul_18_1554,60.00421482,FEMA4ImagesEEG,001,101033,
AFNE01.JPG,AFNE01.JPG,AFNE01.JPG,AFNE01.JPG,AFNE01.JPG,AFNE01.JPG,3,7,37,3,,,,,,,,,,,,,,,,,,,,,,,AFSA11.jpg,AFNE10.jpg,AFSA18.jpg,AFNE18.jpg,AFNE18.jpg,FN,3,num_4,16,num_4,0.733505057578,,,2017_Jul_18_1554,60.00421482,FEMA4ImagesEEG,001,101033,
AFNE01.JPG,AFNE01.JPG,AFNE01.JPG,AFNE01.JPG,AFNE01.JPG,AFNE01.JPG,3,8,38,7,,,,,,,,,,,,,,,,,,,,,,,AFNE02.jpg,AFSA08.jpg,AFNE01.jpg,AFSA11.jpg,AFNE01.jpg,FN,3,num_2,32,num_8,0.983534164756,,,2017_Jul_18_1554,60.00421482,FEMA4ImagesEEG,001,101033,
AFNE01.JPG,AFNE01.JPG,AFNE01.JPG,AFNE01.JPG,AFNE01.JPG,AFNE01.JPG,3,9,39,2,,,,,,,,,,,,,,,,,,,,,,,AFSA18.jpg,AFSA06.jpg,AFNE08.jpg,AFNE10.jpg,AFSA18.jpg,FS,4,num_8,16,num_8,0.866869438556,,,2017_Jul_18_1554,60.00421482,FEMA4ImagesEEG,001,101033,
AFNE01.JPG,AFNE01.JPG,AFNE01.JPG,AFNE01.JPG,AFNE01.JPG,AFNE01.JPG,4,0,40,7,,,,,,,,,,,,,,,,,,,,,,,AFNE12.jpg,AFSA18.jpg,AFNE09.jpg,AFSA20.jpg,AFSA20.jpg,FS,4,num_4,16,num_4,0.583499075801,,,2017_Jul_18_1554,60.00421482,FEMA4ImagesEEG,001,101033,
AFNE01.JPG,AFNE01.JPG,AFNE01.JPG,AFNE01.JPG,AFNE01.JPG,AFNE01.JPG,4,1,41,6,,,,,,,,,,,,,,,,,,,,,,,AFSA13.jpg,AFNE12.jpg,AFSA16.jpg,AFNE02.jpg,AFSA16.jpg,FS,4,num_2,32,num_8,0.833478468237,,,2017_Jul_18_1554,60.00421482,FEMA4ImagesEEG,001,101033,
AFNE01.JPG,AFNE01.JPG,AFNE01.JPG,AFNE01.JPG,AFNE01.JPG,AFNE01.JPG,4,2,42,3,,,,,,,,,,,,,,,,,,,,,,,AFNE19.jpg,AFSA10.jpg,AFSA05.jpg,AFNE18.jpg,AFSA10.jpg,FS,4,num_6,16,num_6,0.716762102893,,,2017_Jul_18_1554,60.00421482,FEMA4ImagesEEG,001,101033,
AFNE01.JPG,AFNE01.JPG,AFNE01.JPG,AFNE01.JPG,AFNE01.JPG,AFNE01.JPG,4,3,43,0,,,,,,,,,,,,,,,,,,,,,,,AFSA09.jpg,AFNE15.jpg,AFNE16.jpg,AFSA19.jpg,AFNE15.jpg,FN,3,num_6,16,num_6,0.916767619623,,,2017_Jul_18_1554,60.00421482,FEMA4ImagesEEG,001,101033,
AFNE01.JPG,AFNE01.JPG,AFNE01.JPG,AFNE01.JPG,AFNE01.JPG,AFNE01.JPG,4,4,44,9,,,,,,,,,,,,,,,,,,,,,,,AFSA12.jpg,AFSA05.jpg,AFNE01.jpg,AFNE19.jpg,AFNE19.jpg,FN,3,num_4,16,num_4,1.21673403813,,,2017_Jul_18_1554,60.00421482,FEMA4ImagesEEG,001,101033,
AFNE01.JPG,AFNE01.JPG,AFNE01.JPG,AFNE01.JPG,AFNE01.JPG,AFNE01.JPG,4,5,45,2,,,,,,,,,,,,,,,,,,,,,,,AFNE19.jpg,AFSA04.jpg,AFNE09.jpg,AFSA08.jpg,AFNE09.jpg,FN,3,num_2,32,num_6,1.01674969024,,,2017_Jul_18_1554,60.00421482,FEMA4ImagesEEG,001,101033,
AFNE01.JPG,AFNE01.JPG,AFNE01.JPG,AFNE01.JPG,AFNE01.JPG,AFNE01.JPG,4,6,46,8,,,,,,,,,,,,,,,,,,,,,,,AFNE14.jpg,AFNE16.jpg,AFSA06.jpg,AFSA15.jpg,AFSA15.jpg,FS,4,num_4,32,num_6,1.90012794323,,,2017_Jul_18_1554,60.00421482,FEMA4ImagesEEG,001,101033,
AFNE01.JPG,AFNE01.JPG,AFNE01.JPG,AFNE01.JPG,AFNE01.JPG,AFNE01.JPG,4,7,47,1,,,,,,,,,,,,,,,,,,,,,,,AFSA18.jpg,AFNE12.jpg,AFSA15.jpg,AFNE08.jpg,AFNE08.jpg,FN,3,num_4,16,num_4,1.06676365848,,,2017_Jul_18_1554,60.00421482,FEMA4ImagesEEG,001,101033,
AFNE01.JPG,AFNE01.JPG,AFNE01.JPG,AFNE01.JPG,AFNE01.JPG,AFNE01.JPG,4,8,48,5,,,,,,,,,,,,,,,,,,,,,,,AFNE18.jpg,AFNE20.jpg,AFSA12.jpg,AFSA17.jpg,AFNE18.jpg,FN,3,num_8,32,num_2,0.966795379674,,,2017_Jul_18_1554,60.00421482,FEMA4ImagesEEG,001,101033,
AFNE01.JPG,AFNE01.JPG,AFNE01.JPG,AFNE01.JPG,AFNE01.JPG,AFNE01.JPG,4,9,49,4,,,,,,,,,,,,,,,,,,,,,,,AFNE18.jpg,AFSA07.jpg,AFSA11.jpg,AFNE10.jpg,AFSA11.jpg,FS,4,num_2,32,num_6,0.483375879514,,,2017_Jul_18_1554,60.00421482,FEMA4ImagesEEG,001,101033,
AFNE01.JPG,AFNE01.JPG,AFNE01.JPG,AFNE01.JPG,AFNE01.JPG,AFNE01.JPG,5,0,50,0,,,,,,,,,,,,,,,,,,,,,,,AFNE03.jpg,AFSA20.jpg,AFNE18.jpg,AFSA09.jpg,AFSA20.jpg,FS,4,num_6,32,num_8,0.750192844993,,,2017_Jul_18_1554,60.00421482,FEMA4ImagesEEG,001,101033,
AFNE01.JPG,AFNE01.JPG,AFNE01.JPG,AFNE01.JPG,AFNE01.JPG,AFNE01.JPG,5,1,51,4,,,,,,,,,,,,,,,,,,,,,,,AFSA10.jpg,AFSA07.jpg,AFNE07.jpg,AFNE19.jpg,AFNE07.jpg,FN,3,num_2,16,num_2,1.38337296079,,,2017_Jul_18_1554,60.00421482,FEMA4ImagesEEG,001,101033,
AFNE01.JPG,AFNE01.JPG,AFNE01.JPG,AFNE01.JPG,AFNE01.JPG,AFNE01.JPG,5,2,52,6,,,,,,,,,,,,,,,,,,,,,,,AFNE04.jpg,AFNE09.jpg,AFSA08.jpg,AFSA17.jpg,AFSA08.jpg,FS,4,num_2,32,num_4,0.616821728472,,,2017_Jul_18_1554,60.00421482,FEMA4ImagesEEG,001,101033,
AFNE01.JPG,AFNE01.JPG,AFNE01.JPG,AFNE01.JPG,AFNE01.JPG,AFNE01.JPG,5,3,53,3,,,,,,,,,,,,,,,,,,,,,,,AFSA14.jpg,AFSA05.jpg,AFNE16.jpg,AFNE07.jpg,AFNE07.jpg,FN,3,num_4,32,num_8,1.05028595585,,,2017_Jul_18_1554,60.00421482,FEMA4ImagesEEG,001,101033,
AFNE01.JPG,AFNE01.JPG,AFNE01.JPG,AFNE01.JPG,AFNE01.JPG,AFNE01.JPG,5,4,54,8,,,,,,,,,,,,,,,,,,,,,,,AFSA13.jpg,AFNE14.jpg,AFNE11.jpg,AFSA18.jpg,AFNE11.jpg,FN,3,num_2,16,num_2,1.18348675937,,,2017_Jul_18_1554,60.00421482,FEMA4ImagesEEG,001,101033,
AFNE01.JPG,AFNE01.JPG,AFNE01.JPG,AFNE01.JPG,AFNE01.JPG,AFNE01.JPG,5,5,55,9,,,,,,,,,,,,,,,,,,,,,,,AFNE01.jpg,AFNE07.jpg,AFSA03.jpg,AFSA10.jpg,AFSA10.jpg,FS,4,num_4,32,num_6,1.53343956245,,,2017_Jul_18_1554,60.00421482,FEMA4ImagesEEG,001,101033,
AFNE01.JPG,AFNE01.JPG,AFNE01.JPG,AFNE01.JPG,AFNE01.JPG,AFNE01.JPG,5,6,56,2,,,,,,,,,,,,,,,,,,,,,,,AFNE15.jpg,AFNE09.jpg,AFSA18.jpg,AFSA20.jpg,AFNE09.jpg,FN,3,num_6,16,num_6,1.4164736613,,,2017_Jul_18_1554,60.00421482,FEMA4ImagesEEG,001,101033,
AFNE01.JPG,AFNE01.JPG,AFNE01.JPG,AFNE01.JPG,AFNE01.JPG,AFNE01.JPG,5,7,57,1,,,,,,,,,,,,,,,,,,,,,,,AFNE15.jpg,AFNE12.jpg,AFSA09.jpg,AFSA03.jpg,AFSA09.jpg,FS,4,num_2,16,num_2,1.06675114961,,,2017_Jul_18_1554,60.00421482,FEMA4ImagesEEG,001,101033,
AFNE01.JPG,AFNE01.JPG,AFNE01.JPG,AFNE01.JPG,AFNE01.JPG,AFNE01.JPG,5,8,58,7,,,,,,,,,,,,,,,,,,,,,,,AFSA05.jpg,AFSA14.jpg,AFNE10.jpg,AFNE08.jpg,AFSA05.jpg,FS,4,num_8,32,num_2,1.53343571357,,,2017_Jul_18_1554,60.00421482,FEMA4ImagesEEG,001,101033,
AFNE01.JPG,AFNE01.JPG,AFNE01.JPG,AFNE01.JPG,AFNE01.JPG,AFNE01.JPG,5,9,59,5,,,,,,,,,,,,,,,,,,,,,,,AFSA08.jpg,AFNE13.jpg,AFSA03.jpg,AFNE15.jpg,AFNE13.jpg,FN,3,num_6,32,num_4,2.1837988395,,,2017_Jul_18_1554,60.00421482,FEMA4ImagesEEG,001,101033,
,,,,,,,,,,,,,,,,,,,,,,,,,,,,,,,,,,,,,,,,,,,space,74.627745816,2017_Jul_18_1554,60.00421482,FEMA4ImagesEEG,001,101033,
AFNE01.JPG,AFNE01.JPG,AFNE01.JPG,AFNE01.JPG,AFNE01.JPG,AFNE01.JPG,,,,,0,0,0,5,,,,,,,,,,,,,,,,,,,AMNE01.jpg,AMSA01.jpg,AMNE03.jpg,AMSA03.jpg,AMNE03.jpg,MN,1,num_2,32,num_4,1.28343386932,,,2017_Jul_18_1554,60.00421482,FEMA4ImagesEEG,001,101033,
AFNE01.JPG,AFNE01.JPG,AFNE01.JPG,AFNE01.JPG,AFNE01.JPG,AFNE01.JPG,,,,,0,1,1,7,,,,,,,,,,,,,,,,,,,AMSA17.jpg,AMSA14.jpg,AMNE17.jpg,AMNE01.jpg,AMSA17.jpg,MS,2,num_8,16,num_8,1.61638840858,,,2017_Jul_18_1554,60.00421482,FEMA4ImagesEEG,001,101033,
AFNE01.JPG,AFNE01.JPG,AFNE01.JPG,AFNE01.JPG,AFNE01.JPG,AFNE01.JPG,,,,,0,2,2,4,,,,,,,,,,,,,,,,,,,AMNE15.jpg,AMNE17.jpg,AMSA15.jpg,AMSA19.jpg,AMSA15.jpg,MS,2,num_2,16,num_2,1.58342626778,,,2017_Jul_18_1554,60.00421482,FEMA4ImagesEEG,001,101033,
AFNE01.JPG,AFNE01.JPG,AFNE01.JPG,AFNE01.JPG,AFNE01.JPG,AFNE01.JPG,,,,,0,3,3,6,,,,,,,,,,,,,,,,,,,AMSA12.jpg,AMNE19.jpg,AMNE06.jpg,AMSA19.jpg,AMNE06.jpg,MN,1,num_2,32,num_4,1.56673046188,,,2017_Jul_18_1554,60.00421482,FEMA4ImagesEEG,001,101033,
AFNE01.JPG,AFNE01.JPG,AFNE01.JPG,AFNE01.JPG,AFNE01.JPG,AFNE01.JPG,,,,,0,4,4,3,,,,,,,,,,,,,,,,,,,AMSA07.jpg,AMNE03.jpg,AMSA17.jpg,AMNE13.jpg,AMNE13.jpg,MN,1,num_4,16,num_4,0.700522389423,,,2017_Jul_18_1554,60.00421482,FEMA4ImagesEEG,001,101033,
AFNE01.JPG,AFNE01.JPG,AFNE01.JPG,AFNE01.JPG,AFNE01.JPG,AFNE01.JPG,,,,,0,5,5,8,,,,,,,,,,,,,,,,,,,AMNE11.jpg,AMSA14.jpg,AMNE19.jpg,AMSA15.jpg,AMSA14.jpg,MS,2,num_6,16,num_6,1.0501040962,,,2017_Jul_18_1554,60.00421482,FEMA4ImagesEEG,001,101033,
AFNE01.JPG,AFNE01.JPG,AFNE01.JPG,AFNE01.JPG,AFNE01.JPG,AFNE01.JPG,,,,,0,6,6,1,,,,,,,,,,,,,,,,,,,AMSA01.jpg,AMSA07.jpg,AMNE19.jpg,AMNE01.jpg,AMSA07.jpg,MS,2,num_6,32,num_8,0.650162663354,,,2017_Jul_18_1554,60.00421482,FEMA4ImagesEEG,001,101033,
AFNE01.JPG,AFNE01.JPG,AFNE01.JPG,AFNE01.JPG,AFNE01.JPG,AFNE01.JPG,,,,,0,7,7,2,,,,,,,,,,,,,,,,,,,AMSA11.jpg,AMNE15.jpg,AMSA10.jpg,AMNE20.jpg,AMSA11.jpg,MS,2,num_8,16,num_8,0.600143563279,,,2017_Jul_18_1554,60.00421482,FEMA4ImagesEEG,001,101033,
AFNE01.JPG,AFNE01.JPG,AFNE01.JPG,AFNE01.JPG,AFNE01.JPG,AFNE01.JPG,,,,,0,8,8,0,,,,,,,,,,,,,,,,,,,AMSA12.jpg,AMNE17.jpg,AMNE06.jpg,AMSA13.jpg,AMNE06.jpg,MN,1,num_2,16,num_2,1.41672287637,,,2017_Jul_18_1554,60.00421482,FEMA4ImagesEEG,001,101033,
AFNE01.JPG,AFNE01.JPG,AFNE01.JPG,AFNE01.JPG,AFNE01.JPG,AFNE01.JPG,,,,,0,9,9,9,,,,,,,,,,,,,,,,,,,AMSA09.jpg,AMNE20.jpg,AMNE09.jpg,AMSA01.jpg,AMSA01.jpg,MS,2,num_4,16,num_4,0.700132048703,,,2017_Jul_18_1554,60.00421482,FEMA4ImagesEEG,001,101033,
AFNE01.JPG,AFNE01.JPG,AFNE01.JPG,AFNE01.JPG,AFNE01.JPG,AFNE01.JPG,,,,,1,0,10,7,,,,,,,,,,,,,,,,,,,AMNE09.jpg,AMSA18.jpg,AMNE01.jpg,AMSA20.jpg,AMSA20.jpg,MS,2,num_4,32,num_6,0.683440733163,,,2017_Jul_18_1554,60.00421482,FEMA4ImagesEEG,001,101033,
AFNE01.JPG,AFNE01.JPG,AFNE01.JPG,AFNE01.JPG,AFNE01.JPG,AFNE01.JPG,,,,,1,1,11,2,,,,,,,,,,,,,,,,,,,AMNE04.jpg,AMSA16.jpg,AMNE10.jpg,AMSA19.jpg,AMNE10.jpg,MN,1,num_2,16,num_2,1.96664014146,,,2017_Jul_18_1554,60.00421482,FEMA4ImagesEEG,001,101033,
AFNE01.JPG,AFNE01.JPG,AFNE01.JPG,AFNE01.JPG,AFNE01.JPG,AFNE01.JPG,,,,,1,2,12,8,,,,,,,,,,,,,,,,,,,AMNE08.jpg,AMNE18.jpg,AMSA05.jpg,AMSA12.jpg,AMNE18.jpg,MN,1,num_6,32,num_4,0.883423798077,,,2017_Jul_18_1554,60.00421482,FEMA4ImagesEEG,001,101033,
AFNE01.JPG,AFNE01.JPG,AFNE01.JPG,AFNE01.JPG,AFNE01.JPG,AFNE01.JPG,,,,,1,3,13,4,,,,,,,,,,,,,,,,,,,AMNE01.jpg,AMSA10.jpg,AMSA08.jpg,AMNE18.jpg,AMSA08.jpg,MS,2,num_2,32,num_6,0.366824374578,,,2017_Jul_18_1554,60.00421482,FEMA4ImagesEEG,001,101033,
AFNE01.JPG,AFNE01.JPG,AFNE01.JPG,AFNE01.JPG,AFNE01.JPG,AFNE01.JPG,,,,,1,4,14,5,,,,,,,,,,,,,,,,,,,AMNE01.jpg,AMNE05.jpg,AMSA14.jpg,AMSA16.jpg,AMNE05.jpg,MN,1,num_6,32,num_4,0.817026745557,,,2017_Jul_18_1554,60.00421482,FEMA4ImagesEEG,001,101033,
AFNE01.JPG,AFNE01.JPG,AFNE01.JPG,AFNE01.JPG,AFNE01.JPG,AFNE01.JPG,,,,,1,5,15,1,,,,,,,,,,,,,,,,,,,AMSA11.jpg,AMNE15.jpg,AMSA16.jpg,AMNE06.jpg,AMNE15.jpg,MN,1,num_6,32,num_2,3.21655731033,,,2017_Jul_18_1554,60.00421482,FEMA4ImagesEEG,001,101033,
AFNE01.JPG,AFNE01.JPG,AFNE01.JPG,AFNE01.JPG,AFNE01.JPG,AFNE01.JPG,,,,,1,6,16,6,,,,,,,,,,,,,,,,,,,AMSA04.jpg,AMNE01.jpg,AMNE02.jpg,AMSA20.jpg,AMNE02.jpg,MN,1,num_2,32,num_6,0.966728344996,,,2017_Jul_18_1554,60.00421482,FEMA4ImagesEEG,001,101033,
AFNE01.JPG,AFNE01.JPG,AFNE01.JPG,AFNE01.JPG,AFNE01.JPG,AFNE01.JPG,,,,,1,7,17,3,,,,,,,,,,,,,,,,,,,AMNE01.jpg,AMNE04.jpg,AMSA03.jpg,AMSA15.jpg,AMNE01.jpg,MN,1,num_8,16,num_8,1.41672415934,,,2017_Jul_18_1554,60.00421482,FEMA4ImagesEEG,001,101033,
AFNE01.JPG,AFNE01.JPG,AFNE01.JPG,AFNE01.JPG,AFNE01.JPG,AFNE01.JPG,,,,,1,8,18,0,,,,,,,,,,,,,,,,,,,AMSA19.jpg,AMNE13.jpg,AMNE17.jpg,AMSA08.jpg,AMSA19.jpg,MS,2,num_8,16,num_8,1.86666256119,,,2017_Jul_18_1554,60.00421482,FEMA4ImagesEEG,001,101033,
AFNE01.JPG,AFNE01.JPG,AFNE01.JPG,AFNE01.JPG,AFNE01.JPG,AFNE01.JPG,,,,,1,9,19,9,,,,,,,,,,,,,,,,,,,AMNE15.jpg,AMSA02.jpg,AMSA14.jpg,AMNE05.jpg,AMNE15.jpg,MN,1,num_8,32,num_4,1.16671205139,,,2017_Jul_18_1554,60.00421482,FEMA4ImagesEEG,001,101033,
AFNE01.JPG,AFNE01.JPG,AFNE01.JPG,AFNE01.JPG,AFNE01.JPG,AFNE01.JPG,,,,,2,0,20,0,,,,,,,,,,,,,,,,,,,AMSA12.jpg,AMNE15.jpg,AMSA06.jpg,AMNE14.jpg,AMNE14.jpg,MN,1,num_4,32,num_6,2.01663775195,,,2017_Jul_18_1554,60.00421482,FEMA4ImagesEEG,001,101033,
AFNE01.JPG,AFNE01.JPG,AFNE01.JPG,AFNE01.JPG,AFNE01.JPG,AFNE01.JPG,,,,,2,1,21,9,,,,,,,,,,,,,,,,,,,AMNE14.jpg,AMNE16.jpg,AMSA11.jpg,AMSA15.jpg,AMSA11.jpg,MS,2,num_2,32,num_4,1.28342777526,,,2017_Jul_18_1554,60.00421482,FEMA4ImagesEEG,001,101033,
AFNE01.JPG,AFNE01.JPG,AFNE01.JPG,AFNE01.JPG,AFNE01.JPG,AFNE01.JPG,,,,,2,2,22,3,,,,,,,,,,,,,,,,,,,AMSA13.jpg,AMNE15.jpg,AMNE14.jpg,AMSA18.jpg,AMNE14.jpg,MN,1,num_2,16,num_2,1.5164194883,,,2017_Jul_18_1554,60.00421482,FEMA4ImagesEEG,001,101033,
AFNE01.JPG,AFNE01.JPG,AFNE01.JPG,AFNE01.JPG,AFNE01.JPG,AFNE01.JPG,,,,,2,3,23,1,,,,,,,,,,,,,,,,,,,AMNE13.jpg,AMNE01.jpg,AMSA19.jpg,AMSA06.jpg,AMSA19.jpg,MS,2,num_2,32,num_4,1.00014144639,,,2017_Jul_18_1554,60.00421482,FEMA4ImagesEEG,001,101033,
AFNE01.JPG,AFNE01.JPG,AFNE01.JPG,AFNE01.JPG,AFNE01.JPG,AFNE01.JPG,,,,,2,4,24,4,,,,,,,,,,,,,,,,,,,AMSA14.jpg,AMNE15.jpg,AMSA03.jpg,AMNE10.jpg,AMNE15.jpg,MN,1,num_6,32,num_8,0.483488459286,,,2017_Jul_18_1554,60.00421482,FEMA4ImagesEEG,001,101033,
AFNE01.JPG,AFNE01.JPG,AFNE01.JPG,AFNE01.JPG,AFNE01.JPG,AFNE01.JPG,,,,,2,5,25,6,,,,,,,,,,,,,,,,,,,AMSA06.jpg,AMSA04.jpg,AMNE12.jpg,AMNE09.jpg,AMSA04.jpg,MS,2,num_6,32,num_4,0.900134999523,,,2017_Jul_18_1554,60.00421482,FEMA4ImagesEEG,001,101033,
AFNE01.JPG,AFNE01.JPG,AFNE01.JPG,AFNE01.JPG,AFNE01.JPG,AFNE01.JPG,,,,,2,6,26,8,,,,,,,,,,,,,,,,,,,AMNE06.jpg,AMNE19.jpg,AMSA10.jpg,AMSA19.jpg,AMSA10.jpg,MS,2,num_2,32,num_6,0.366796790942,,,2017_Jul_18_1554,60.00421482,FEMA4ImagesEEG,001,101033,
AFNE01.JPG,AFNE01.JPG,AFNE01.JPG,AFNE01.JPG,AFNE01.JPG,AFNE01.JPG,,,,,2,7,27,5,,,,,,,,,,,,,,,,,,,AMSA16.jpg,AMNE08.jpg,AMNE20.jpg,AMSA12.jpg,AMNE08.jpg,MN,1,num_6,32,num_4,0.783398427535,,,2017_Jul_18_1554,60.00421482,FEMA4ImagesEEG,001,101033,
AFNE01.JPG,AFNE01.JPG,AFNE01.JPG,AFNE01.JPG,AFNE01.JPG,AFNE01.JPG,,,,,2,8,28,7,,,,,,,,,,,,,,,,,,,AMNE01.jpg,AMSA02.jpg,AMNE15.jpg,AMSA05.jpg,AMNE01.jpg,MN,1,num_8,32,num_6,0.950080970841,,,2017_Jul_18_1554,60.00421482,FEMA4ImagesEEG,001,101033,
AFNE01.JPG,AFNE01.JPG,AFNE01.JPG,AFNE01.JPG,AFNE01.JPG,AFNE01.JPG,,,,,2,9,29,2,,,,,,,,,,,,,,,,,,,AMSA14.jpg,AMNE11.jpg,AMSA18.jpg,AMNE13.jpg,AMNE13.jpg,MN,1,num_4,32,num_6,0.650137645629,,,2017_Jul_18_1554,60.00421482,FEMA4ImagesEEG,001,101033,
AFNE01.JPG,AFNE01.JPG,AFNE01.JPG,AFNE01.JPG,AFNE01.JPG,AFNE01.JPG,,,,,3,0,30,0,,,,,,,,,,,,,,,,,,,AMSA14.jpg,AMNE19.jpg,AMNE17.jpg,AMSA18.jpg,AMNE19.jpg,MN,1,num_6,32,num_4,0.616792541128,,,2017_Jul_18_1554,60.00421482,FEMA4ImagesEEG,001,101033,
AFNE01.JPG,AFNE01.JPG,AFNE01.JPG,AFNE01.JPG,AFNE01.JPG,AFNE01.JPG,,,,,3,1,31,1,,,,,,,,,,,,,,,,,,,AMNE12.jpg,AMSA07.jpg,AMNE17.jpg,AMSA18.jpg,AMNE12.jpg,MN,1,num_8,32,num_4,1.15011022234,,,2017_Jul_18_1554,60.00421482,FEMA4ImagesEEG,001,101033,
AFNE01.JPG,AFNE01.JPG,AFNE01.JPG,AFNE01.JPG,AFNE01.JPG,AFNE01.JPG,,,,,3,2,32,7,,,,,,,,,,,,,,,,,,,AMNE07.jpg,AMNE13.jpg,AMSA03.jpg,AMSA09.jpg,AMNE07.jpg,MN,1,num_8,32,num_2,1.40016819611,,,2017_Jul_18_1554,60.00421482,FEMA4ImagesEEG,001,101033,
AFNE01.JPG,AFNE01.JPG,AFNE01.JPG,AFNE01.JPG,AFNE01.JPG,AFNE01.JPG,,,,,3,3,33,6,,,,,,,,,,,,,,,,,,,AMNE18.jpg,AMSA03.jpg,AMNE05.jpg,AMSA14.jpg,AMSA14.jpg,MS,2,num_4,16,num_4,0.516829394168,,,2017_Jul_18_1554,60.00421482,FEMA4ImagesEEG,001,101033,
AFNE01.JPG,AFNE01.JPG,AFNE01.JPG,AFNE01.JPG,AFNE01.JPG,AFNE01.JPG,,,,,3,4,34,4,,,,,,,,,,,,,,,,,,,AMNE01.jpg,AMSA18.jpg,AMNE02.jpg,AMSA01.jpg,AMNE02.jpg,MN,1,num_2,32,num_8,0.933404409341,,,2017_Jul_18_1554,60.00421482,FEMA4ImagesEEG,001,101033,
AFNE01.JPG,AFNE01.JPG,AFNE01.JPG,AFNE01.JPG,AFNE01.JPG,AFNE01.JPG,,,,,3,5,35,3,,,,,,,,,,,,,,,,,,,AMNE08.jpg,AMSA01.jpg,AMNE06.jpg,AMSA09.jpg,AMNE06.jpg,MN,1,num_2,16,num_2,1.95008289529,,,2017_Jul_18_1554,60.00421482,FEMA4ImagesEEG,001,101033,
AFNE01.JPG,AFNE01.JPG,AFNE01.JPG,AFNE01.JPG,AFNE01.JPG,AFNE01.JPG,,,,,3,6,36,2,,,,,,,,,,,,,,,,,,,AMSA15.jpg,AMSA07.jpg,AMNE17.jpg,AMNE03.jpg,AMSA15.jpg,MS,2,num_8,32,num_4,0.933572156428,,,2017_Jul_18_1554,60.00421482,FEMA4ImagesEEG,001,101033,
AFNE01.JPG,AFNE01.JPG,AFNE01.JPG,AFNE01.JPG,AFNE01.JPG,AFNE01.JPG,,,,,3,7,37,9,,,,,,,,,,,,,,,,,,,AMSA12.jpg,AMNE07.jpg,AMNE09.jpg,AMSA17.jpg,AMSA12.jpg,MS,2,num_8,32,num_4,0.950089310092,,,2017_Jul_18_1554,60.00421482,FEMA4ImagesEEG,001,101033,
AFNE01.JPG,AFNE01.JPG,AFNE01.JPG,AFNE01.JPG,AFNE01.JPG,AFNE01.JPG,,,,,3,8,38,5,,,,,,,,,,,,,,,,,,,AMSA20.jpg,AMNE15.jpg,AMNE02.jpg,AMSA15.jpg,AMNE02.jpg,MN,1,num_2,32,num_4,0.950118818175,,,2017_Jul_18_1554,60.00421482,FEMA4ImagesEEG,001,101033,
AFNE01.JPG,AFNE01.JPG,AFNE01.JPG,AFNE01.JPG,AFNE01.JPG,AFNE01.JPG,,,,,3,9,39,8,,,,,,,,,,,,,,,,,,,AMSA03.jpg,AMNE01.jpg,AMSA18.jpg,AMNE08.jpg,AMNE08.jpg,MN,1,num_4,32,num_8,1.36672879403,,,2017_Jul_18_1554,60.00421482,FEMA4ImagesEEG,001,101033,
AFNE01.JPG,AFNE01.JPG,AFNE01.JPG,AFNE01.JPG,AFNE01.JPG,AFNE01.JPG,,,,,4,0,40,5,,,,,,,,,,,,,,,,,,,AMSA16.jpg,AMNE12.jpg,AMSA03.jpg,AMNE01.jpg,AMSA03.jpg,MS,2,num_2,16,num_2,1.21670420931,,,2017_Jul_18_1554,60.00421482,FEMA4ImagesEEG,001,101033,
AFNE01.JPG,AFNE01.JPG,AFNE01.JPG,AFNE01.JPG,AFNE01.JPG,AFNE01.JPG,,,,,4,1,41,9,,,,,,,,,,,,,,,,,,,AMNE14.jpg,AMNE10.jpg,AMSA14.jpg,AMSA04.jpg,AMSA14.jpg,MS,2,num_2,32,num_4,0.883436948439,,,2017_Jul_18_1554,60.00421482,FEMA4ImagesEEG,001,101033,
AFNE01.JPG,AFNE01.JPG,AFNE01.JPG,AFNE01.JPG,AFNE01.JPG,AFNE01.JPG,,,,,4,2,42,6,,,,,,,,,,,,,,,,,,,AMSA11.jpg,AMSA02.jpg,AMNE14.jpg,AMNE15.jpg,AMSA02.jpg,MS,2,num_6,16,num_6,1.00022291437,,,2017_Jul_18_1554,60.00421482,FEMA4ImagesEEG,001,101033,
AFNE01.JPG,AFNE01.JPG,AFNE01.JPG,AFNE01.JPG,AFNE01.JPG,AFNE01.JPG,,,,,4,3,43,4,,,,,,,,,,,,,,,,,,,AMSA18.jpg,AMNE17.jpg,AMNE08.jpg,AMSA05.jpg,AMSA05.jpg,MS,2,num_4,16,num_4,0.883472871326,,,2017_Jul_18_1554,60.00421482,FEMA4ImagesEEG,001,101033,
AFNE01.JPG,AFNE01.JPG,AFNE01.JPG,AFNE01.JPG,AFNE01.JPG,AFNE01.JPG,,,,,4,4,44,8,,,,,,,,,,,,,,,,,,,AMSA20.jpg,AMSA06.jpg,AMNE10.jpg,AMNE06.jpg,AMNE06.jpg,MN,1,num_4,16,num_4,2.14978146373,,,2017_Jul_18_1554,60.00421482,FEMA4ImagesEEG,001,101033,
AFNE01.JPG,AFNE01.JPG,AFNE01.JPG,AFNE01.JPG,AFNE01.JPG,AFNE01.JPG,,,,,4,5,45,3,,,,,,,,,,,,,,,,,,,AMNE07.jpg,AMSA06.jpg,AMSA20.jpg,AMNE05.jpg,AMSA06.jpg,MS,2,num_6,16,num_6,0.550126708375,,,2017_Jul_18_1554,60.00421482,FEMA4ImagesEEG,001,101033,
AFNE01.JPG,AFNE01.JPG,AFNE01.JPG,AFNE01.JPG,AFNE01.JPG,AFNE01.JPG,,,,,4,6,46,7,,,,,,,,,,,,,,,,,,,AMSA12.jpg,AMSA03.jpg,AMNE03.jpg,AMNE16.jpg,AMSA03.jpg,MS,2,num_6,32,num_4,1.10011197037,,,2017_Jul_18_1554,60.00421482,FEMA4ImagesEEG,001,101033,
AFNE01.JPG,AFNE01.JPG,AFNE01.JPG,AFNE01.JPG,AFNE01.JPG,AFNE01.JPG,,,,,4,7,47,1,,,,,,,,,,,,,,,,,,,AMNE01.jpg,AMSA11.jpg,AMNE15.jpg,AMSA01.jpg,AMNE15.jpg,MN,1,num_2,16,num_2,1.23375154637,,,2017_Jul_18_1554,60.00421482,FEMA4ImagesEEG,001,101033,
AFNE01.JPG,AFNE01.JPG,AFNE01.JPG,AFNE01.JPG,AFNE01.JPG,AFNE01.JPG,,,,,4,8,48,0,,,,,,,,,,,,,,,,,,,AMSA17.jpg,AMNE16.jpg,AMNE17.jpg,AMSA16.jpg,AMSA17.jpg,MS,2,num_8,16,num_8,0.850279156162,,,2017_Jul_18_1554,60.00421482,FEMA4ImagesEEG,001,101033,
AFNE01.JPG,AFNE01.JPG,AFNE01.JPG,AFNE01.JPG,AFNE01.JPG,AFNE01.JPG,,,,,4,9,49,2,,,,,,,,,,,,,,,,,,,AMNE16.jpg,AMSA08.jpg,AMNE13.jpg,AMSA12.jpg,AMNE13.jpg,MN,1,num_2,16,num_2,1.75005685119,,,2017_Jul_18_1554,60.00421482,FEMA4ImagesEEG,001,101033,
AFNE01.JPG,AFNE01.JPG,AFNE01.JPG,AFNE01.JPG,AFNE01.JPG,AFNE01.JPG,,,,,5,0,50,0,,,,,,,,,,,,,,,,,,,AMNE16.jpg,AMSA18.jpg,AMSA10.jpg,AMNE13.jpg,AMSA10.jpg,MS,2,num_2,16,num_2,1.03347949461,,,2017_Jul_18_1554,60.00421482,FEMA4ImagesEEG,001,101033,
AFNE01.JPG,AFNE01.JPG,AFNE01.JPG,AFNE01.JPG,AFNE01.JPG,AFNE01.JPG,,,,,5,1,51,3,,,,,,,,,,,,,,,,,,,AMSA16.jpg,AMNE13.jpg,AMSA14.jpg,AMNE15.jpg,AMNE13.jpg,MN,1,num_6,32,num_4,0.666815490084,,,2017_Jul_18_1554,60.00421482,FEMA4ImagesEEG,001,101033,
AFNE01.JPG,AFNE01.JPG,AFNE01.JPG,AFNE01.JPG,AFNE01.JPG,AFNE01.JPG,,,,,5,2,52,2,,,,,,,,,,,,,,,,,,,AMNE20.jpg,AMSA14.jpg,AMSA03.jpg,AMNE17.jpg,AMSA03.jpg,MS,2,num_2,32,num_6,1.03346923093,,,2017_Jul_18_1554,60.00421482,FEMA4ImagesEEG,001,101033,
AFNE01.JPG,AFNE01.JPG,AFNE01.JPG,AFNE01.JPG,AFNE01.JPG,AFNE01.JPG,,,,,5,3,53,7,,,,,,,,,,,,,,,,,,,AMNE03.jpg,AMSA17.jpg,AMSA11.jpg,AMNE10.jpg,AMNE03.jpg,MN,1,num_8,32,num_4,0.466931854593,,,2017_Jul_18_1554,60.00421482,FEMA4ImagesEEG,001,101033,
AFNE01.JPG,AFNE01.JPG,AFNE01.JPG,AFNE01.JPG,AFNE01.JPG,AFNE01.JPG,,,,,5,4,54,8,,,,,,,,,,,,,,,,,,,AMSA13.jpg,AMNE10.jpg,AMSA16.jpg,AMNE02.jpg,AMNE02.jpg,MN,1,num_4,16,num_4,0.450120582245,,,2017_Jul_18_1554,60.00421482,FEMA4ImagesEEG,001,101033,
AFNE01.JPG,AFNE01.JPG,AFNE01.JPG,AFNE01.JPG,AFNE01.JPG,AFNE01.JPG,,,,,5,5,55,1,,,,,,,,,,,,,,,,,,,AMSA17.jpg,AMNE16.jpg,AMSA11.jpg,AMNE05.jpg,AMSA17.jpg,MS,2,num_8,16,num_8,0.666836338176,,,2017_Jul_18_1554,60.00421482,FEMA4ImagesEEG,001,101033,
AFNE01.JPG,AFNE01.JPG,AFNE01.JPG,AFNE01.JPG,AFNE01.JPG,AFNE01.JPG,,,,,5,6,56,5,,,,,,,,,,,,,,,,,,,AMSA11.jpg,AMSA05.jpg,AMNE05.jpg,AMNE02.jpg,AMNE02.jpg,MN,1,num_4,32,num_2,1.9001988268,,,2017_Jul_18_1554,60.00421482,FEMA4ImagesEEG,001,101033,
AFNE01.JPG,AFNE01.JPG,AFNE01.JPG,AFNE01.JPG,AFNE01.JPG,AFNE01.JPG,,,,,5,7,57,9,,,,,,,,,,,,,,,,,,,AMSA11.jpg,AMSA08.jpg,AMNE12.jpg,AMNE18.jpg,AMNE18.jpg,MN,1,num_4,16,num_4,0.400170762048,,,2017_Jul_18_1554,60.00421482,FEMA4ImagesEEG,001,101033,
AFNE01.JPG,AFNE01.JPG,AFNE01.JPG,AFNE01.JPG,AFNE01.JPG,AFNE01.JPG,,,,,5,8,58,4,,,,,,,,,,,,,,,,,,,AMSA14.jpg,AMSA10.jpg,AMNE07.jpg,AMNE16.jpg,AMSA10.jpg,MS,2,num_6,16,num_6,0.800123100053,,,2017_Jul_18_1554,60.00421482,FEMA4ImagesEEG,001,101033,
AFNE01.JPG,AFNE01.JPG,AFNE01.JPG,AFNE01.JPG,AFNE01.JPG,AFNE01.JPG,,,,,5,9,59,6,,,,,,,,,,,,,,,,,,,AMNE12.jpg,AMSA19.jpg,AMSA14.jpg,AMNE10.jpg,AMSA14.jpg,MS,2,num_2,32,num_4,0.983436018272,,,2017_Jul_18_1554,60.00421482,FEMA4ImagesEEG,001,101033,
,,,,,,,,,,,,,,,,,,,,,,,,,,,,,,,,,,,,,,,,,,,space,114.341390004,2017_Jul_18_1554,60.00421482,FEMA4ImagesEEG,001,101033,
AFNE01.JPG,AFNE01.JPG,AFNE01.JPG,AFNE01.JPG,AFNE01.JPG,AFNE01.JPG,,,,,,,,,0,0,0,4,,,,,,,,,,,,,,,AFSA17.jpg,AFSA12.jpg,AFNE12.jpg,AFNE01.jpg,AFNE01.jpg,FN,3,num_4,16,num_4,1.25011987661,,,2017_Jul_18_1554,60.00421482,FEMA4ImagesEEG,001,101033,
AFNE01.JPG,AFNE01.JPG,AFNE01.JPG,AFNE01.JPG,AFNE01.JPG,AFNE01.JPG,,,,,,,,,0,1,1,8,,,,,,,,,,,,,,,AFNE05.jpg,AFSA04.jpg,AFSA08.jpg,AFNE11.jpg,AFNE11.jpg,FN,3,num_4,16,num_4,0.833612537608,,,2017_Jul_18_1554,60.00421482,FEMA4ImagesEEG,001,101033,
AFNE01.JPG,AFNE01.JPG,AFNE01.JPG,AFNE01.JPG,AFNE01.JPG,AFNE01.JPG,,,,,,,,,0,2,2,3,,,,,,,,,,,,,,,AFNE11.jpg,AFSA12.jpg,AFNE14.jpg,AFSA07.jpg,AFNE11.jpg,FN,3,num_8,32,num_2,2.066649475,,,2017_Jul_18_1554,60.00421482,FEMA4ImagesEEG,001,101033,
AFNE01.JPG,AFNE01.JPG,AFNE01.JPG,AFNE01.JPG,AFNE01.JPG,AFNE01.JPG,,,,,,,,,0,3,3,5,,,,,,,,,,,,,,,AFSA03.jpg,AFNE06.jpg,AFSA17.jpg,AFNE17.jpg,AFSA17.jpg,FS,4,num_2,32,num_6,1.03346441983,,,2017_Jul_18_1554,60.00421482,FEMA4ImagesEEG,001,101033,
AFNE01.JPG,AFNE01.JPG,AFNE01.JPG,AFNE01.JPG,AFNE01.JPG,AFNE01.JPG,,,,,,,,,0,4,4,7,,,,,,,,,,,,,,,AFNE17.jpg,AFSA18.jpg,AFNE15.jpg,AFSA15.jpg,AFNE15.jpg,FN,3,num_2,32,num_4,1.06674794221,,,2017_Jul_18_1554,60.00421482,FEMA4ImagesEEG,001,101033,
AFNE01.JPG,AFNE01.JPG,AFNE01.JPG,AFNE01.JPG,AFNE01.JPG,AFNE01.JPG,,,,,,,,,0,5,5,9,,,,,,,,,,,,,,,AFSA08.jpg,AFNE07.jpg,AFNE01.jpg,AFSA13.jpg,AFNE01.jpg,FN,3,num_2,32,num_4,0.900093624048,,,2017_Jul_18_1554,60.00421482,FEMA4ImagesEEG,001,101033,
AFNE01.JPG,AFNE01.JPG,AFNE01.JPG,AFNE01.JPG,AFNE01.JPG,AFNE01.JPG,,,,,,,,,0,6,6,2,,,,,,,,,,,,,,,AFSA16.jpg,AFNE12.jpg,AFNE17.jpg,AFSA03.jpg,AFSA16.jpg,FS,4,num_8,32,num_6,1.08370386835,,,2017_Jul_18_1554,60.00421482,FEMA4ImagesEEG,001,101033,
AFNE01.JPG,AFNE01.JPG,AFNE01.JPG,AFNE01.JPG,AFNE01.JPG,AFNE01.JPG,,,,,,,,,0,7,7,6,,,,,,,,,,,,,,,AFSA14.jpg,AFNE05.jpg,AFSA17.jpg,AFNE20.jpg,AFSA17.jpg,FS,4,num_2,32,num_4,0.783448142247,,,2017_Jul_18_1554,60.00421482,FEMA4ImagesEEG,001,101033,
AFNE01.JPG,AFNE01.JPG,AFNE01.JPG,AFNE01.JPG,AFNE01.JPG,AFNE01.JPG,,,,,,,,,0,8,8,0,,,,,,,,,,,,,,,AFSA13.jpg,AFSA01.jpg,AFNE12.jpg,AFNE01.jpg,AFNE12.jpg,FN,3,num_2,32,num_4,1.3167292591,,,2017_Jul_18_1554,60.00421482,FEMA4ImagesEEG,001,101033,
AFNE01.JPG,AFNE01.JPG,AFNE01.JPG,AFNE01.JPG,AFNE01.JPG,AFNE01.JPG,,,,,,,,,0,9,9,1,,,,,,,,,,,,,,,AFSA12.jpg,AFNE18.jpg,AFSA07.jpg,AFNE14.jpg,AFSA12.jpg,FS,4,num_8,16,num_8,2.28337806054,,,2017_Jul_18_1554,60.00421482,FEMA4ImagesEEG,001,101033,
AFNE01.JPG,AFNE01.JPG,AFNE01.JPG,AFNE01.JPG,AFNE01.JPG,AFNE01.JPG,,,,,,,,,1,0,10,4,,,,,,,,,,,,,,,AFSA09.jpg,AFSA13.jpg,AFNE19.jpg,AFNE18.jpg,AFNE18.jpg,FN,3,num_4,16,num_4,1.88336863078,,,2017_Jul_18_1554,60.00421482,FEMA4ImagesEEG,001,101033,
AFNE01.JPG,AFNE01.JPG,AFNE01.JPG,AFNE01.JPG,AFNE01.JPG,AFNE01.JPG,,,,,,,,,1,1,11,1,,,,,,,,,,,,,,,AFNE18.jpg,AFSA03.jpg,AFSA14.jpg,AFNE16.jpg,AFNE18.jpg,FN,3,num_8,32,num_4,1.41669400976,,,2017_Jul_18_1554,60.00421482,FEMA4ImagesEEG,001,101033,
AFNE01.JPG,AFNE01.JPG,AFNE01.JPG,AFNE01.JPG,AFNE01.JPG,AFNE01.JPG,,,,,,,,,1,2,12,8,,,,,,,,,,,,,,,AFNE02.jpg,AFNE13.jpg,AFSA07.jpg,AFSA01.jpg,AFNE13.jpg,FN,3,num_6,32,num_4,0.400168516848,,,2017_Jul_18_1554,60.00421482,FEMA4ImagesEEG,001,101033,
AFNE01.JPG,AFNE01.JPG,AFNE01.JPG,AFNE01.JPG,AFNE01.JPG,AFNE01.JPG,,,,,,,,,1,3,13,3,,,,,,,,,,,,,,,AFNE03.jpg,AFSA06.jpg,AFSA15.jpg,AFNE08.jpg,AFNE03.jpg,FN,3,num_8,32,num_6,0.983459753043,,,2017_Jul_18_1554,60.00421482,FEMA4ImagesEEG,001,101033,
AFNE01.JPG,AFNE01.JPG,AFNE01.JPG,AFNE01.JPG,AFNE01.JPG,AFNE01.JPG,,,,,,,,,1,4,14,2,,,,,,,,,,,,,,,AFSA20.jpg,AFNE17.jpg,AFNE15.jpg,AFSA06.jpg,AFNE17.jpg,FN,3,num_6,32,num_4,0.816744173513,,,2017_Jul_18_1554,60.00421482,FEMA4ImagesEEG,001,101033,
AFNE01.JPG,AFNE01.JPG,AFNE01.JPG,AFNE01.JPG,AFNE01.JPG,AFNE01.JPG,,,,,,,,,1,5,15,7,,,,,,,,,,,,,,,AFNE18.jpg,AFSA05.jpg,AFSA04.jpg,AFNE07.jpg,AFNE18.jpg,FN,3,num_8,16,num_8,1.11676126896,,,2017_Jul_18_1554,60.00421482,FEMA4ImagesEEG,001,101033,
AFNE01.JPG,AFNE01.JPG,AFNE01.JPG,AFNE01.JPG,AFNE01.JPG,AFNE01.JPG,,,,,,,,,1,6,16,9,,,,,,,,,,,,,,,AFSA01.jpg,AFNE17.jpg,AFSA06.jpg,AFNE14.jpg,AFSA06.jpg,FS,4,num_2,32,num_4,1.21681422315,,,2017_Jul_18_1554,60.00421482,FEMA4ImagesEEG,001,101033,
AFNE01.JPG,AFNE01.JPG,AFNE01.JPG,AFNE01.JPG,AFNE01.JPG,AFNE01.JPG,,,,,,,,,1,7,17,0,,,,,,,,,,,,,,,AFNE03.jpg,AFSA05.jpg,AFSA07.jpg,AFNE10.jpg,AFSA05.jpg,FS,4,num_6,32,num_4,0.700121464281,,,2017_Jul_18_1554,60.00421482,FEMA4ImagesEEG,001,101033,
AFNE01.JPG,AFNE01.JPG,AFNE01.JPG,AFNE01.JPG,AFNE01.JPG,AFNE01.JPG,,,,,,,,,1,8,18,6,,,,,,,,,,,,,,,AFNE04.jpg,AFSA12.jpg,AFSA05.jpg,AFNE03.jpg,AFNE04.jpg,FN,3,num_8,32,num_4,0.633542231371,,,2017_Jul_18_1554,60.00421482,FEMA4ImagesEEG,001,101033,
AFNE01.JPG,AFNE01.JPG,AFNE01.JPG,AFNE01.JPG,AFNE01.JPG,AFNE01.JPG,,,,,,,,,1,9,19,5,,,,,,,,,,,,,,,AFNE02.jpg,AFNE12.jpg,AFSA09.jpg,AFSA11.jpg,AFNE12.jpg,FN,3,num_6,32,num_8,1.63338506871,,,2017_Jul_18_1554,60.00421482,FEMA4ImagesEEG,001,101033,
AFNE01.JPG,AFNE01.JPG,AFNE01.JPG,AFNE01.JPG,AFNE01.JPG,AFNE01.JPG,,,,,,,,,2,0,20,3,,,,,,,,,,,,,,,AFNE05.jpg,AFSA17.jpg,AFSA16.jpg,AFNE17.jpg,AFNE05.jpg,FN,3,num_8,32,num_6,1.15011920307,,,2017_Jul_18_1554,60.00421482,FEMA4ImagesEEG,001,101033,
AFNE01.JPG,AFNE01.JPG,AFNE01.JPG,AFNE01.JPG,AFNE01.JPG,AFNE01.JPG,,,,,,,,,2,1,21,1,,,,,,,,,,,,,,,AFNE09.jpg,AFSA01.jpg,AFSA12.jpg,AFNE14.jpg,AFSA12.jpg,FS,4,num_2,32,num_4,0.466782068965,,,2017_Jul_18_1554,60.00421482,FEMA4ImagesEEG,001,101033,
AFNE01.JPG,AFNE01.JPG,AFNE01.JPG,AFNE01.JPG,AFNE01.JPG,AFNE01.JPG,,,,,,,,,2,2,22,9,,,,,,,,,,,,,,,AFNE17.jpg,AFSA11.jpg,AFNE03.jpg,AFSA08.jpg,AFNE17.jpg,FN,3,num_8,32,num_4,0.650155927811,,,2017_Jul_18_1554,60.00421482,FEMA4ImagesEEG,001,101033,
AFNE01.JPG,AFNE01.JPG,AFNE01.JPG,AFNE01.JPG,AFNE01.JPG,AFNE01.JPG,,,,,,,,,2,3,23,8,,,,,,,,,,,,,,,AFSA02.jpg,AFNE04.jpg,AFNE08.jpg,AFSA19.jpg,AFSA19.jpg,FS,4,num_4,32,num_2,2.53316982002,,,2017_Jul_18_1554,60.00421482,FEMA4ImagesEEG,001,101033,
AFNE01.JPG,AFNE01.JPG,AFNE01.JPG,AFNE01.JPG,AFNE01.JPG,AFNE01.JPG,,,,,,,,,2,4,24,5,,,,,,,,,,,,,,,AFSA15.jpg,AFSA11.jpg,AFNE20.jpg,AFNE17.jpg,AFNE17.jpg,FN,3,num_4,16,num_4,1.56683213649,,,2017_Jul_18_1554,60.00421482,FEMA4ImagesEEG,001,101033,
AFNE01.JPG,AFNE01.JPG,AFNE01.JPG,AFNE01.JPG,AFNE01.JPG,AFNE01.JPG,,,,,,,,,2,5,25,7,,,,,,,,,,,,,,,AFSA12.jpg,AFNE19.jpg,AFNE18.jpg,AFSA04.jpg,AFSA12.jpg,FS,4,num_8,32,num_4,2.11668364986,,,2017_Jul_18_1554,60.00421482,FEMA4ImagesEEG,001,101033,
AFNE01.JPG,AFNE01.JPG,AFNE01.JPG,AFNE01.JPG,AFNE01.JPG,AFNE01.JPG,,,,,,,,,2,6,26,4,,,,,,,,,,,,,,,AFSA15.jpg,AFNE13.jpg,AFSA01.jpg,AFNE14.jpg,AFSA01.jpg,FS,4,num_2,32,num_8,1.31674561684,,,2017_Jul_18_1554,60.00421482,FEMA4ImagesEEG,001,101033,
AFNE01.JPG,AFNE01.JPG,AFNE01.JPG,AFNE01.JPG,AFNE01.JPG,AFNE01.JPG,,,,,,,,,2,7,27,6,,,,,,,,,,,,,,,AFSA10.jpg,AFNE06.jpg,AFNE18.jpg,AFSA14.jpg,AFSA10.jpg,FS,4,num_8,32,num_4,0.816779775676,,,2017_Jul_18_1554,60.00421482,FEMA4ImagesEEG,001,101033,
AFNE01.JPG,AFNE01.JPG,AFNE01.JPG,AFNE01.JPG,AFNE01.JPG,AFNE01.JPG,,,,,,,,,2,8,28,0,,,,,,,,,,,,,,,AFNE03.jpg,AFNE13.jpg,AFSA01.jpg,AFSA03.jpg,AFNE03.jpg,FN,3,num_8,32,num_4,0.616622548871,,,2017_Jul_18_1554,60.00421482,FEMA4ImagesEEG,001,101033,
AFNE01.JPG,AFNE01.JPG,AFNE01.JPG,AFNE01.JPG,AFNE01.JPG,AFNE01.JPG,,,,,,,,,2,9,29,2,,,,,,,,,,,,,,,AFNE02.jpg,AFSA08.jpg,AFNE06.jpg,AFSA19.jpg,AFSA08.jpg,FS,4,num_6,16,num_6,0.616626076997,,,2017_Jul_18_1554,60.00421482,FEMA4ImagesEEG,001,101033,
AFNE01.JPG,AFNE01.JPG,AFNE01.JPG,AFNE01.JPG,AFNE01.JPG,AFNE01.JPG,,,,,,,,,3,0,30,2,,,,,,,,,,,,,,,AFSA16.jpg,AFNE20.jpg,AFNE06.jpg,AFSA01.jpg,AFSA01.jpg,FS,4,num_4,32,num_8,1.18346783571,,,2017_Jul_18_1554,60.00421482,FEMA4ImagesEEG,001,101033,
AFNE01.JPG,AFNE01.JPG,AFNE01.JPG,AFNE01.JPG,AFNE01.JPG,AFNE01.JPG,,,,,,,,,3,1,31,6,,,,,,,,,,,,,,,AFNE07.jpg,AFSA14.jpg,AFNE04.jpg,AFSA01.jpg,AFNE07.jpg,FN,3,num_8,32,num_4,1.81672974021,,,2017_Jul_18_1554,60.00421482,FEMA4ImagesEEG,001,101033,
AFNE01.JPG,AFNE01.JPG,AFNE01.JPG,AFNE01.JPG,AFNE01.JPG,AFNE01.JPG,,,,,,,,,3,2,32,3,,,,,,,,,,,,,,,AFSA03.jpg,AFNE03.jpg,AFSA20.jpg,AFNE17.jpg,AFNE17.jpg,FN,3,num_4,32,num_6,0.716800270966,,,2017_Jul_18_1554,60.00421482,FEMA4ImagesEEG,001,101033,
AFNE01.JPG,AFNE01.JPG,AFNE01.JPG,AFNE01.JPG,AFNE01.JPG,AFNE01.JPG,,,,,,,,,3,3,33,5,,,,,,,,,,,,,,,AFSA06.jpg,AFSA03.jpg,AFNE03.jpg,AFNE18.jpg,AFNE18.jpg,FN,3,num_4,32,num_8,2.28334374135,,,2017_Jul_18_1554,60.00421482,FEMA4ImagesEEG,001,101033,
AFNE01.JPG,AFNE01.JPG,AFNE01.JPG,AFNE01.JPG,AFNE01.JPG,AFNE01.JPG,,,,,,,,,3,4,34,9,,,,,,,,,,,,,,,AFNE15.jpg,AFSA06.jpg,AFNE11.jpg,AFSA17.jpg,AFNE11.jpg,FN,3,num_2,16,num_2,2.73339889261,,,2017_Jul_18_1554,60.00421482,FEMA4ImagesEEG,001,101033,
AFNE01.JPG,AFNE01.JPG,AFNE01.JPG,AFNE01.JPG,AFNE01.JPG,AFNE01.JPG,,,,,,,,,3,5,35,4,,,,,,,,,,,,,,,AFNE20.jpg,AFSA10.jpg,AFNE02.jpg,AFSA13.jpg,AFSA13.jpg,FS,4,num_4,16,num_4,0.816795171195,,,2017_Jul_18_1554,60.00421482,FEMA4ImagesEEG,001,101033,
AFNE01.JPG,AFNE01.JPG,AFNE01.JPG,AFNE01.JPG,AFNE01.JPG,AFNE01.JPG,,,,,,,,,3,6,36,1,,,,,,,,,,,,,,,AFSA16.jpg,AFNE12.jpg,AFNE18.jpg,AFSA01.jpg,AFNE18.jpg,FN,3,num_2,32,num_6,1.78365758555,,,2017_Jul_18_1554,60.00421482,FEMA4ImagesEEG,001,101033,
AFNE01.JPG,AFNE01.JPG,AFNE01.JPG,AFNE01.JPG,AFNE01.JPG,AFNE01.JPG,,,,,,,,,3,7,37,7,,,,,,,,,,,,,,,AFSA13.jpg,AFNE18.jpg,AFSA19.jpg,AFNE06.jpg,AFSA19.jpg,FS,4,num_2,32,num_8,0.416774194789,,,2017_Jul_18_1554,60.00421482,FEMA4ImagesEEG,001,101033,
AFNE01.JPG,AFNE01.JPG,AFNE01.JPG,AFNE01.JPG,AFNE01.JPG,AFNE01.JPG,,,,,,,,,3,8,38,8,,,,,,,,,,,,,,,AFSA02.jpg,AFNE06.jpg,AFNE14.jpg,AFSA04.jpg,AFSA02.jpg,FS,4,num_8,32,num_2,2.75002509792,,,2017_Jul_18_1554,60.00421482,FEMA4ImagesEEG,001,101033,
AFNE01.JPG,AFNE01.JPG,AFNE01.JPG,AFNE01.JPG,AFNE01.JPG,AFNE01.JPG,,,,,,,,,3,9,39,0,,,,,,,,,,,,,,,AFNE02.jpg,AFSA08.jpg,AFSA04.jpg,AFNE12.jpg,AFNE02.jpg,FN,3,num_8,32,num_4,1.83342811203,,,2017_Jul_18_1554,60.00421482,FEMA4ImagesEEG,001,101033,
AFNE01.JPG,AFNE01.JPG,AFNE01.JPG,AFNE01.JPG,AFNE01.JPG,AFNE01.JPG,,,,,,,,,4,0,40,4,,,,,,,,,,,,,,,AFSA04.jpg,AFNE01.jpg,AFSA14.jpg,AFNE19.jpg,AFSA14.jpg,FS,4,num_2,32,num_6,1.21676482918,,,2017_Jul_18_1554,60.00421482,FEMA4ImagesEEG,001,101033,
AFNE01.JPG,AFNE01.JPG,AFNE01.JPG,AFNE01.JPG,AFNE01.JPG,AFNE01.JPG,,,,,,,,,4,1,41,0,,,,,,,,,,,,,,,AFNE01.jpg,AFSA14.jpg,AFSA03.jpg,AFNE17.jpg,AFSA03.jpg,FS,4,num_2,32,num_8,2.73324846549,,,2017_Jul_18_1554,60.00421482,FEMA4ImagesEEG,001,101033,
AFNE01.JPG,AFNE01.JPG,AFNE01.JPG,AFNE01.JPG,AFNE01.JPG,AFNE01.JPG,,,,,,,,,4,2,42,5,,,,,,,,,,,,,,,AFSA05.jpg,AFSA12.jpg,AFNE15.jpg,AFNE09.jpg,AFSA05.jpg,FS,4,num_8,32,num_4,0.833642045705,,,2017_Jul_18_1554,60.00421482,FEMA4ImagesEEG,001,101033,
AFNE01.JPG,AFNE01.JPG,AFNE01.JPG,AFNE01.JPG,AFNE01.JPG,AFNE01.JPG,,,,,,,,,4,3,43,2,,,,,,,,,,,,,,,AFSA13.jpg,AFSA10.jpg,AFNE18.jpg,AFNE08.jpg,AFSA10.jpg,FS,4,num_6,16,num_6,1.54994484874,,,2017_Jul_18_1554,60.00421482,FEMA4ImagesEEG,001,101033,
AFNE01.JPG,AFNE01.JPG,AFNE01.JPG,AFNE01.JPG,AFNE01.JPG,AFNE01.JPG,,,,,,,,,4,4,44,1,,,,,,,,,,,,,,,AFNE10.jpg,AFSA06.jpg,AFSA20.jpg,AFNE18.jpg,AFSA20.jpg,FS,4,num_2,32,num_6,1.1334885074,,,2017_Jul_18_1554,60.00421482,FEMA4ImagesEEG,001,101033,
AFNE01.JPG,AFNE01.JPG,AFNE01.JPG,AFNE01.JPG,AFNE01.JPG,AFNE01.JPG,,,,,,,,,4,5,45,6,,,,,,,,,,,,,,,AFSA01.jpg,AFNE07.jpg,AFNE02.jpg,AFSA02.jpg,AFNE02.jpg,FN,3,num_2,16,num_2,2.11666408471,,,2017_Jul_18_1554,60.00421482,FEMA4ImagesEEG,001,101033,
AFNE01.JPG,AFNE01.JPG,AFNE01.JPG,AFNE01.JPG,AFNE01.JPG,AFNE01.JPG,,,,,,,,,4,6,46,3,,,,,,,,,,,,,,,AFSA08.jpg,AFSA12.jpg,AFNE16.jpg,AFNE12.jpg,AFNE16.jpg,FN,3,num_2,32,num_4,0.400181667195,,,2017_Jul_18_1554,60.00421482,FEMA4ImagesEEG,001,101033,
AFNE01.JPG,AFNE01.JPG,AFNE01.JPG,AFNE01.JPG,AFNE01.JPG,AFNE01.JPG,,,,,,,,,4,7,47,8,,,,,,,,,,,,,,,AFSA10.jpg,AFSA02.jpg,AFNE14.jpg,AFNE18.jpg,AFSA02.jpg,FS,4,num_6,16,num_6,1.06674537629,,,2017_Jul_18_1554,60.00421482,FEMA4ImagesEEG,001,101033,
AFNE01.JPG,AFNE01.JPG,AFNE01.JPG,AFNE01.JPG,AFNE01.JPG,AFNE01.JPG,,,,,,,,,4,8,48,7,,,,,,,,,,,,,,,AFSA09.jpg,AFSA19.jpg,AFNE13.jpg,AFNE11.jpg,AFSA09.jpg,FS,4,num_8,16,num_8,0.800145231129,,,2017_Jul_18_1554,60.00421482,FEMA4ImagesEEG,001,101033,
AFNE01.JPG,AFNE01.JPG,AFNE01.JPG,AFNE01.JPG,AFNE01.JPG,AFNE01.JPG,,,,,,,,,4,9,49,9,,,,,,,,,,,,,,,AFNE01.jpg,AFSA09.jpg,AFSA11.jpg,AFNE03.jpg,AFSA11.jpg,FS,4,num_2,32,num_4,1.33338689692,,,2017_Jul_18_1554,60.00421482,FEMA4ImagesEEG,001,101033,
AFNE01.JPG,AFNE01.JPG,AFNE01.JPG,AFNE01.JPG,AFNE01.JPG,AFNE01.JPG,,,,,,,,,5,0,50,8,,,,,,,,,,,,,,,AFNE15.jpg,AFNE10.jpg,AFSA02.jpg,AFSA13.jpg,AFNE15.jpg,FN,3,num_8,16,num_8,1.2167346796,,,2017_Jul_18_1554,60.00421482,FEMA4ImagesEEG,001,101033,
AFNE01.JPG,AFNE01.JPG,AFNE01.JPG,AFNE01.JPG,AFNE01.JPG,AFNE01.JPG,,,,,,,,,5,1,51,0,,,,,,,,,,,,,,,AFSA19.jpg,AFSA09.jpg,AFNE14.jpg,AFNE10.jpg,AFSA19.jpg,FS,4,num_8,32,num_2,2.18336616109,,,2017_Jul_18_1554,60.00421482,FEMA4ImagesEEG,001,101033,
AFNE01.JPG,AFNE01.JPG,AFNE01.JPG,AFNE01.JPG,AFNE01.JPG,AFNE01.JPG,,,,,,,,,5,2,52,5,,,,,,,,,,,,,,,AFNE08.jpg,AFNE02.jpg,AFSA13.jpg,AFSA14.jpg,AFSA13.jpg,FS,4,num_2,32,num_8,0.983475469315,,,2017_Jul_18_1554,60.00421482,FEMA4ImagesEEG,001,101033,
AFNE01.JPG,AFNE01.JPG,AFNE01.JPG,AFNE01.JPG,AFNE01.JPG,AFNE01.JPG,,,,,,,,,5,3,53,4,,,,,,,,,,,,,,,AFSA09.jpg,AFNE05.jpg,AFNE09.jpg,AFSA08.jpg,AFNE05.jpg,FN,3,num_6,32,num_4,0.683533747797,,,2017_Jul_18_1554,60.00421482,FEMA4ImagesEEG,001,101033,
AFNE01.JPG,AFNE01.JPG,AFNE01.JPG,AFNE01.JPG,AFNE01.JPG,AFNE01.JPG,,,,,,,,,5,4,54,3,,,,,,,,,,,,,,,AFNE04.jpg,AFNE12.jpg,AFSA15.jpg,AFSA12.jpg,AFNE04.jpg,FN,3,num_8,32,num_4,2.96666259326,,,2017_Jul_18_1554,60.00421482,FEMA4ImagesEEG,001,101033,
AFNE01.JPG,AFNE01.JPG,AFNE01.JPG,AFNE01.JPG,AFNE01.JPG,AFNE01.JPG,,,,,,,,,5,5,55,7,,,,,,,,,,,,,,,AFSA11.jpg,AFNE14.jpg,AFSA20.jpg,AFNE06.jpg,AFNE06.jpg,FN,3,num_4,32,num_6,0.983412924994,,,2017_Jul_18_1554,60.00421482,FEMA4ImagesEEG,001,101033,
AFNE01.JPG,AFNE01.JPG,AFNE01.JPG,AFNE01.JPG,AFNE01.JPG,AFNE01.JPG,,,,,,,,,5,6,56,9,,,,,,,,,,,,,,,AFNE19.jpg,AFSA19.jpg,AFSA11.jpg,AFNE05.jpg,AFNE19.jpg,FN,3,num_8,32,num_4,4.53316372597,,,2017_Jul_18_1554,60.00421482,FEMA4ImagesEEG,001,101033,
AFNE01.JPG,AFNE01.JPG,AFNE01.JPG,AFNE01.JPG,AFNE01.JPG,AFNE01.JPG,,,,,,,,,5,7,57,2,,,,,,,,,,,,,,,AFSA15.jpg,AFSA02.jpg,AFNE01.jpg,AFNE17.jpg,AFSA15.jpg,FS,4,num_8,32,num_6,0.483669677458,,,2017_Jul_18_1554,60.00421482,FEMA4ImagesEEG,001,101033,
AFNE01.JPG,AFNE01.JPG,AFNE01.JPG,AFNE01.JPG,AFNE01.JPG,AFNE01.JPG,,,,,,,,,5,8,58,6,,,,,,,,,,,,,,,AFNE19.jpg,AFSA17.jpg,AFSA20.jpg,AFNE02.jpg,AFNE02.jpg,FN,3,num_4,16,num_4,0.816916090218,,,2017_Jul_18_1554,60.00421482,FEMA4ImagesEEG,001,101033,
AFNE01.JPG,AFNE01.JPG,AFNE01.JPG,AFNE01.JPG,AFNE01.JPG,AFNE01.JPG,,,,,,,,,5,9,59,1,,,,,,,,,,,,,,,AFSA12.jpg,AFNE20.jpg,AFSA04.jpg,AFNE18.jpg,AFNE18.jpg,FN,3,num_4,32,num_6,1.58341183448,,,2017_Jul_18_1554,60.00421482,FEMA4ImagesEEG,001,101033,
,,,,,,,,,,,,,,,,,,,,,,,,,,,,,,,,,,,,,,,,,,,space,147.938825559,2017_Jul_18_1554,60.00421482,FEMA4ImagesEEG,001,101033,
AFNE01.JPG,AFNE01.JPG,AFNE01.JPG,AFNE01.JPG,AFNE01.JPG,AFNE01.JPG,,,,,,,,,,,,,0,0,0,3,,,,,,,,,,,AMNE15.jpg,AMNE01.jpg,AMSA20.jpg,AMSA13.jpg,AMNE15.jpg,MN,1,num_8,16,num_8,1.56672629225,,,2017_Jul_18_1554,60.00421482,FEMA4ImagesEEG,001,101033,
AFNE01.JPG,AFNE01.JPG,AFNE01.JPG,AFNE01.JPG,AFNE01.JPG,AFNE01.JPG,,,,,,,,,,,,,0,1,1,2,,,,,,,,,,,AMSA03.jpg,AMNE02.jpg,AMNE20.jpg,AMSA19.jpg,AMNE02.jpg,MN,1,num_6,32,num_8,0.950124270748,,,2017_Jul_18_1554,60.00421482,FEMA4ImagesEEG,001,101033,
AFNE01.JPG,AFNE01.JPG,AFNE01.JPG,AFNE01.JPG,AFNE01.JPG,AFNE01.JPG,,,,,,,,,,,,,0,2,2,8,,,,,,,,,,,AMSA14.jpg,AMSA10.jpg,AMNE09.jpg,AMNE01.jpg,AMSA10.jpg,MS,2,num_6,16,num_6,1.150088412,,,2017_Jul_18_1554,60.00421482,FEMA4ImagesEEG,001,101033,
AFNE01.JPG,AFNE01.JPG,AFNE01.JPG,AFNE01.JPG,AFNE01.JPG,AFNE01.JPG,,,,,,,,,,,,,0,3,3,5,,,,,,,,,,,AMNE07.jpg,AMSA07.jpg,AMNE08.jpg,AMSA04.jpg,AMSA07.jpg,MS,2,num_6,16,num_6,1.88334714121,,,2017_Jul_18_1554,60.00421482,FEMA4ImagesEEG,001,101033,
AFNE01.JPG,AFNE01.JPG,AFNE01.JPG,AFNE01.JPG,AFNE01.JPG,AFNE01.JPG,,,,,,,,,,,,,0,4,4,6,,,,,,,,,,,AMNE08.jpg,AMSA12.jpg,AMNE05.jpg,AMSA05.jpg,AMNE08.jpg,MN,1,num_8,32,num_4,1.9000445508,,,2017_Jul_18_1554,60.00421482,FEMA4ImagesEEG,001,101033,
AFNE01.JPG,AFNE01.JPG,AFNE01.JPG,AFNE01.JPG,AFNE01.JPG,AFNE01.JPG,,,,,,,,,,,,,0,5,5,1,,,,,,,,,,,AMSA03.jpg,AMNE08.jpg,AMSA14.jpg,AMNE19.jpg,AMNE08.jpg,MN,1,num_6,32,num_2,1.03345672204,,,2017_Jul_18_1554,60.00421482,FEMA4ImagesEEG,001,101033,
AFNE01.JPG,AFNE01.JPG,AFNE01.JPG,AFNE01.JPG,AFNE01.JPG,AFNE01.JPG,,,,,,,,,,,,,0,6,6,9,,,,,,,,,,,AMNE01.jpg,AMSA07.jpg,AMNE09.jpg,AMSA06.jpg,AMSA06.jpg,MS,2,num_4,32,num_2,0.816751550534,,,2017_Jul_18_1554,60.00421482,FEMA4ImagesEEG,001,101033,
AFNE01.JPG,AFNE01.JPG,AFNE01.JPG,AFNE01.JPG,AFNE01.JPG,AFNE01.JPG,,,,,,,,,,,,,0,7,7,7,,,,,,,,,,,AMNE07.jpg,AMNE15.jpg,AMSA04.jpg,AMSA12.jpg,AMNE07.jpg,MN,1,num_8,32,num_4,1.08354766791,,,2017_Jul_18_1554,60.00421482,FEMA4ImagesEEG,001,101033,
AFNE01.JPG,AFNE01.JPG,AFNE01.JPG,AFNE01.JPG,AFNE01.JPG,AFNE01.JPG,,,,,,,,,,,,,0,8,8,0,,,,,,,,,,,AMSA08.jpg,AMNE02.jpg,AMNE17.jpg,AMSA04.jpg,AMSA04.jpg,MS,2,num_4,16,num_4,1.01678882053,,,2017_Jul_18_1554,60.00421482,FEMA4ImagesEEG,001,101033,
AFNE01.JPG,AFNE01.JPG,AFNE01.JPG,AFNE01.JPG,AFNE01.JPG,AFNE01.JPG,,,,,,,,,,,,,0,9,9,4,,,,,,,,,,,AMSA09.jpg,AMNE14.jpg,AMNE19.jpg,AMSA13.jpg,AMNE19.jpg,MN,1,num_2,32,num_4,0.950122346316,,,2017_Jul_18_1554,60.00421482,FEMA4ImagesEEG,001,101033,
AFNE01.JPG,AFNE01.JPG,AFNE01.JPG,AFNE01.JPG,AFNE01.JPG,AFNE01.JPG,,,,,,,,,,,,,1,0,10,8,,,,,,,,,,,AMNE16.jpg,AMNE20.jpg,AMSA10.jpg,AMSA02.jpg,AMNE20.jpg,MN,1,num_6,16,num_6,0.500125569757,,,2017_Jul_18_1554,60.00421482,FEMA4ImagesEEG,001,101033,
AFNE01.JPG,AFNE01.JPG,AFNE01.JPG,AFNE01.JPG,AFNE01.JPG,AFNE01.JPG,,,,,,,,,,,,,1,1,11,3,,,,,,,,,,,AMSA01.jpg,AMNE08.jpg,AMNE04.jpg,AMSA07.jpg,AMNE08.jpg,MN,1,num_6,32,num_8,0.866789574284,,,2017_Jul_18_1554,60.00421482,FEMA4ImagesEEG,001,101033,
AFNE01.JPG,AFNE01.JPG,AFNE01.JPG,AFNE01.JPG,AFNE01.JPG,AFNE01.JPG,,,,,,,,,,,,,1,2,12,5,,,,,,,,,,,AMSA16.jpg,AMNE05.jpg,AMSA10.jpg,AMNE17.jpg,AMSA16.jpg,MS,2,num_8,32,num_4,0.383489389438,,,2017_Jul_18_1554,60.00421482,FEMA4ImagesEEG,001,101033,
AFNE01.JPG,AFNE01.JPG,AFNE01.JPG,AFNE01.JPG,AFNE01.JPG,AFNE01.JPG,,,,,,,,,,,,,1,3,13,1,,,,,,,,,,,AMSA14.jpg,AMNE15.jpg,AMSA15.jpg,AMNE13.jpg,AMSA14.jpg,MS,2,num_8,16,num_8,0.65014758856,,,2017_Jul_18_1554,60.00421482,FEMA4ImagesEEG,001,101033,
AFNE01.JPG,AFNE01.JPG,AFNE01.JPG,AFNE01.JPG,AFNE01.JPG,AFNE01.JPG,,,,,,,,,,,,,1,4,14,7,,,,,,,,,,,AMSA03.jpg,AMNE02.jpg,AMNE08.jpg,AMSA02.jpg,AMNE02.jpg,MN,1,num_6,32,num_4,0.816604651569,,,2017_Jul_18_1554,60.00421482,FEMA4ImagesEEG,001,101033,
AFNE01.JPG,AFNE01.JPG,AFNE01.JPG,AFNE01.JPG,AFNE01.JPG,AFNE01.JPG,,,,,,,,,,,,,1,5,15,9,,,,,,,,,,,AMSA18.jpg,AMSA07.jpg,AMNE15.jpg,AMNE06.jpg,AMNE06.jpg,MN,1,num_4,32,num_2,1.65010525087,,,2017_Jul_18_1554,60.00421482,FEMA4ImagesEEG,001,101033,
AFNE01.JPG,AFNE01.JPG,AFNE01.JPG,AFNE01.JPG,AFNE01.JPG,AFNE01.JPG,,,,,,,,,,,,,1,6,16,2,,,,,,,,,,,AMSA15.jpg,AMSA08.jpg,AMNE01.jpg,AMNE07.jpg,AMSA15.jpg,MS,2,num_8,16,num_8,1.21671703891,,,2017_Jul_18_1554,60.00421482,FEMA4ImagesEEG,001,101033,
AFNE01.JPG,AFNE01.JPG,AFNE01.JPG,AFNE01.JPG,AFNE01.JPG,AFNE01.JPG,,,,,,,,,,,,,1,7,17,0,,,,,,,,,,,AMSA05.jpg,AMNE18.jpg,AMSA02.jpg,AMNE19.jpg,AMNE18.jpg,MN,1,num_6,32,num_4,1.16664437523,,,2017_Jul_18_1554,60.00421482,FEMA4ImagesEEG,001,101033,
AFNE01.JPG,AFNE01.JPG,AFNE01.JPG,AFNE01.JPG,AFNE01.JPG,AFNE01.JPG,,,,,,,,,,,,,1,8,18,6,,,,,,,,,,,AMSA02.jpg,AMNE06.jpg,AMSA12.jpg,AMNE07.jpg,AMSA12.jpg,MS,2,num_2,32,num_4,0.833542295513,,,2017_Jul_18_1554,60.00421482,FEMA4ImagesEEG,001,101033,
AFNE01.JPG,AFNE01.JPG,AFNE01.JPG,AFNE01.JPG,AFNE01.JPG,AFNE01.JPG,,,,,,,,,,,,,1,9,19,4,,,,,,,,,,,AMSA04.jpg,AMSA03.jpg,AMNE19.jpg,AMNE13.jpg,AMNE19.jpg,MN,1,num_2,32,num_6,0.950117535205,,,2017_Jul_18_1554,60.00421482,FEMA4ImagesEEG,001,101033,
AFNE01.JPG,AFNE01.JPG,AFNE01.JPG,AFNE01.JPG,AFNE01.JPG,AFNE01.JPG,,,,,,,,,,,,,2,0,20,1,,,,,,,,,,,AMSA17.jpg,AMSA14.jpg,AMNE01.jpg,AMNE18.jpg,AMNE18.jpg,MN,1,num_4,16,num_4,0.866744670653,,,2017_Jul_18_1554,60.00421482,FEMA4ImagesEEG,001,101033,
AFNE01.JPG,AFNE01.JPG,AFNE01.JPG,AFNE01.JPG,AFNE01.JPG,AFNE01.JPG,,,,,,,,,,,,,2,1,21,6,,,,,,,,,,,AMNE05.jpg,AMSA13.jpg,AMSA20.jpg,AMNE03.jpg,AMNE05.jpg,MN,1,num_8,32,num_6,1.80007723422,,,2017_Jul_18_1554,60.00421482,FEMA4ImagesEEG,001,101033,
AFNE01.JPG,AFNE01.JPG,AFNE01.JPG,AFNE01.JPG,AFNE01.JPG,AFNE01.JPG,,,,,,,,,,,,,2,2,22,0,,,,,,,,,,,AMSA17.jpg,AMNE09.jpg,AMSA09.jpg,AMNE16.jpg,AMSA17.jpg,MS,2,num_8,16,num_8,1.35007885397,,,2017_Jul_18_1554,60.00421482,FEMA4ImagesEEG,001,101033,
AFNE01.JPG,AFNE01.JPG,AFNE01.JPG,AFNE01.JPG,AFNE01.JPG,AFNE01.JPG,,,,,,,,,,,,,2,3,23,5,,,,,,,,,,,AMNE13.jpg,AMNE06.jpg,AMSA09.jpg,AMSA07.jpg,AMSA07.jpg,MS,2,num_4,16,num_4,1.15009065719,,,2017_Jul_18_1554,60.00421482,FEMA4ImagesEEG,001,101033,
AFNE01.JPG,AFNE01.JPG,AFNE01.JPG,AFNE01.JPG,AFNE01.JPG,AFNE01.JPG,,,,,,,,,,,,,2,4,24,3,,,,,,,,,,,AMSA18.jpg,AMNE20.jpg,AMSA08.jpg,AMNE01.jpg,AMSA08.jpg,MS,2,num_2,32,num_6,1.08346074734,,,2017_Jul_18_1554,60.00421482,FEMA4ImagesEEG,001,101033,
AFNE01.JPG,AFNE01.JPG,AFNE01.JPG,AFNE01.JPG,AFNE01.JPG,AFNE01.JPG,,,,,,,,,,,,,2,5,25,2,,,,,,,,,,,AMSA04.jpg,AMNE02.jpg,AMNE03.jpg,AMSA01.jpg,AMNE03.jpg,MN,1,num_2,32,num_6,2.33333172963,,,2017_Jul_18_1554,60.00421482,FEMA4ImagesEEG,001,101033,
AFNE01.JPG,AFNE01.JPG,AFNE01.JPG,AFNE01.JPG,AFNE01.JPG,AFNE01.JPG,,,,,,,,,,,,,2,6,26,8,,,,,,,,,,,AMNE17.jpg,AMSA03.jpg,AMSA01.jpg,AMNE16.jpg,AMSA03.jpg,MS,2,num_6,32,num_2,1.16706518625,,,2017_Jul_18_1554,60.00421482,FEMA4ImagesEEG,001,101033,
AFNE01.JPG,AFNE01.JPG,AFNE01.JPG,AFNE01.JPG,AFNE01.JPG,AFNE01.JPG,,,,,,,,,,,,,2,7,27,4,,,,,,,,,,,AMSA08.jpg,AMNE12.jpg,AMSA17.jpg,AMNE02.jpg,AMSA08.jpg,MS,2,num_8,32,num_4,0.950083857504,,,2017_Jul_18_1554,60.00421482,FEMA4ImagesEEG,001,101033,
AFNE01.JPG,AFNE01.JPG,AFNE01.JPG,AFNE01.JPG,AFNE01.JPG,AFNE01.JPG,,,,,,,,,,,,,2,8,28,9,,,,,,,,,,,AMSA09.jpg,AMSA15.jpg,AMNE10.jpg,AMNE14.jpg,AMSA15.jpg,MS,2,num_6,32,num_4,0.350232488476,,,2017_Jul_18_1554,60.00421482,FEMA4ImagesEEG,001,101033,
AFNE01.JPG,AFNE01.JPG,AFNE01.JPG,AFNE01.JPG,AFNE01.JPG,AFNE01.JPG,,,,,,,,,,,,,2,9,29,7,,,,,,,,,,,AMSA16.jpg,AMNE08.jpg,AMNE10.jpg,AMSA09.jpg,AMNE08.jpg,MN,1,num_6,32,num_8,2.8667873291,,,2017_Jul_18_1554,60.00421482,FEMA4ImagesEEG,001,101033,
AFNE01.JPG,AFNE01.JPG,AFNE01.JPG,AFNE01.JPG,AFNE01.JPG,AFNE01.JPG,,,,,,,,,,,,,3,0,30,2,,,,,,,,,,,AMNE18.jpg,AMSA06.jpg,AMNE17.jpg,AMSA08.jpg,AMSA08.jpg,MS,2,num_4,16,num_4,1.633408162,,,2017_Jul_18_1554,60.00421482,FEMA4ImagesEEG,001,101033,
AFNE01.JPG,AFNE01.JPG,AFNE01.JPG,AFNE01.JPG,AFNE01.JPG,AFNE01.JPG,,,,,,,,,,,,,3,1,31,0,,,,,,,,,,,AMNE12.jpg,AMSA01.jpg,AMSA14.jpg,AMNE04.jpg,AMSA14.jpg,MS,2,num_2,32,num_6,0.700138142769,,,2017_Jul_18_1554,60.00421482,FEMA4ImagesEEG,001,101033,
AFNE01.JPG,AFNE01.JPG,AFNE01.JPG,AFNE01.JPG,AFNE01.JPG,AFNE01.JPG,,,,,,,,,,,,,3,2,32,3,,,,,,,,,,,AMSA11.jpg,AMSA17.jpg,AMNE16.jpg,AMNE12.jpg,AMNE16.jpg,MN,1,num_2,32,num_4,0.733491907245,,,2017_Jul_18_1554,60.00421482,FEMA4ImagesEEG,001,101033,
AFNE01.JPG,AFNE01.JPG,AFNE01.JPG,AFNE01.JPG,AFNE01.JPG,AFNE01.JPG,,,,,,,,,,,,,3,3,33,7,,,,,,,,,,,AMSA03.jpg,AMSA16.jpg,AMNE08.jpg,AMNE12.jpg,AMSA03.jpg,MS,2,num_8,16,num_8,0.70014551979,,,2017_Jul_18_1554,60.00421482,FEMA4ImagesEEG,001,101033,
AFNE01.JPG,AFNE01.JPG,AFNE01.JPG,AFNE01.JPG,AFNE01.JPG,AFNE01.JPG,,,,,,,,,,,,,3,4,34,4,,,,,,,,,,,AMSA04.jpg,AMNE07.jpg,AMSA13.jpg,AMNE04.jpg,AMNE04.jpg,MN,1,num_4,16,num_4,1.23347795506,,,2017_Jul_18_1554,60.00421482,FEMA4ImagesEEG,001,101033,
AFNE01.JPG,AFNE01.JPG,AFNE01.JPG,AFNE01.JPG,AFNE01.JPG,AFNE01.JPG,,,,,,,,,,,,,3,5,35,1,,,,,,,,,,,AMNE09.jpg,AMNE10.jpg,AMSA08.jpg,AMSA03.jpg,AMSA08.jpg,MS,2,num_2,32,num_6,0.666835375974,,,2017_Jul_18_1554,60.00421482,FEMA4ImagesEEG,001,101033,
AFNE01.JPG,AFNE01.JPG,AFNE01.JPG,AFNE01.JPG,AFNE01.JPG,AFNE01.JPG,,,,,,,,,,,,,3,6,36,8,,,,,,,,,,,AMNE15.jpg,AMNE06.jpg,AMSA12.jpg,AMSA09.jpg,AMNE15.jpg,MN,1,num_8,32,num_4,0.533488635701,,,2017_Jul_18_1554,60.00421482,FEMA4ImagesEEG,001,101033,
AFNE01.JPG,AFNE01.JPG,AFNE01.JPG,AFNE01.JPG,AFNE01.JPG,AFNE01.JPG,,,,,,,,,,,,,3,7,37,6,,,,,,,,,,,AMSA17.jpg,AMNE10.jpg,AMNE17.jpg,AMSA18.jpg,AMSA18.jpg,MS,2,num_4,16,num_4,0.600139072907,,,2017_Jul_18_1554,60.00421482,FEMA4ImagesEEG,001,101033,
AFNE01.JPG,AFNE01.JPG,AFNE01.JPG,AFNE01.JPG,AFNE01.JPG,AFNE01.JPG,,,,,,,,,,,,,3,8,38,5,,,,,,,,,,,AMSA15.jpg,AMNE11.jpg,AMNE13.jpg,AMSA13.jpg,AMSA13.jpg,MS,2,num_4,32,num_8,0.600191032805,,,2017_Jul_18_1554,60.00421482,FEMA4ImagesEEG,001,101033,
AFNE01.JPG,AFNE01.JPG,AFNE01.JPG,AFNE01.JPG,AFNE01.JPG,AFNE01.JPG,,,,,,,,,,,,,3,9,39,9,,,,,,,,,,,AMSA11.jpg,AMSA08.jpg,AMNE17.jpg,AMNE04.jpg,AMNE17.jpg,MN,1,num_2,32,num_6,0.800136571139,,,2017_Jul_18_1554,60.00421482,FEMA4ImagesEEG,001,101033,
AFNE01.JPG,AFNE01.JPG,AFNE01.JPG,AFNE01.JPG,AFNE01.JPG,AFNE01.JPG,,,,,,,,,,,,,4,0,40,1,,,,,,,,,,,AMNE17.jpg,AMSA17.jpg,AMNE09.jpg,AMSA02.jpg,AMNE17.jpg,MN,1,num_8,32,num_6,1.05050309691,,,2017_Jul_18_1554,60.00421482,FEMA4ImagesEEG,001,101033,
AFNE01.JPG,AFNE01.JPG,AFNE01.JPG,AFNE01.JPG,AFNE01.JPG,AFNE01.JPG,,,,,,,,,,,,,4,1,41,5,,,,,,,,,,,AMNE10.jpg,AMNE13.jpg,AMSA13.jpg,AMSA01.jpg,AMSA01.jpg,MS,2,num_4,32,num_6,0.500088684639,,,2017_Jul_18_1554,60.00421482,FEMA4ImagesEEG,001,101033,
AFNE01.JPG,AFNE01.JPG,AFNE01.JPG,AFNE01.JPG,AFNE01.JPG,AFNE01.JPG,,,,,,,,,,,,,4,2,42,6,,,,,,,,,,,AMSA15.jpg,AMNE07.jpg,AMNE17.jpg,AMSA08.jpg,AMSA08.jpg,MS,2,num_4,16,num_4,1.01678336796,,,2017_Jul_18_1554,60.00421482,FEMA4ImagesEEG,001,101033,
AFNE01.JPG,AFNE01.JPG,AFNE01.JPG,AFNE01.JPG,AFNE01.JPG,AFNE01.JPG,,,,,,,,,,,,,4,3,43,2,,,,,,,,,,,AMSA07.jpg,AMNE01.jpg,AMNE20.jpg,AMSA13.jpg,AMNE20.jpg,MN,1,num_2,32,num_4,1.05012013321,,,2017_Jul_18_1554,60.00421482,FEMA4ImagesEEG,001,101033,
AFNE01.JPG,AFNE01.JPG,AFNE01.JPG,AFNE01.JPG,AFNE01.JPG,AFNE01.JPG,,,,,,,,,,,,,4,4,44,4,,,,,,,,,,,AMSA20.jpg,AMNE15.jpg,AMNE05.jpg,AMSA06.jpg,AMNE05.jpg,MN,1,num_2,16,num_2,1.63340046424,,,2017_Jul_18_1554,60.00421482,FEMA4ImagesEEG,001,101033,
AFNE01.JPG,AFNE01.JPG,AFNE01.JPG,AFNE01.JPG,AFNE01.JPG,AFNE01.JPG,,,,,,,,,,,,,4,5,45,0,,,,,,,,,,,AMNE08.jpg,AMSA12.jpg,AMNE05.jpg,AMSA14.jpg,AMNE08.jpg,MN,1,num_8,32,num_2,1.58341985298,,,2017_Jul_18_1554,60.00421482,FEMA4ImagesEEG,001,101033,
AFNE01.JPG,AFNE01.JPG,AFNE01.JPG,AFNE01.JPG,AFNE01.JPG,AFNE01.JPG,,,,,,,,,,,,,4,6,46,7,,,,,,,,,,,AMNE19.jpg,AMSA08.jpg,AMNE10.jpg,AMSA15.jpg,AMSA15.jpg,MS,2,num_4,16,num_4,0.783454557051,,,2017_Jul_18_1554,60.00421482,FEMA4ImagesEEG,001,101033,
AFNE01.JPG,AFNE01.JPG,AFNE01.JPG,AFNE01.JPG,AFNE01.JPG,AFNE01.JPG,,,,,,,,,,,,,4,7,47,8,,,,,,,,,,,AMNE10.jpg,AMNE14.jpg,AMSA06.jpg,AMSA02.jpg,AMSA06.jpg,MS,2,num_2,16,num_2,1.13341377495,,,2017_Jul_18_1554,60.00421482,FEMA4ImagesEEG,001,101033,
AFNE01.JPG,AFNE01.JPG,AFNE01.JPG,AFNE01.JPG,AFNE01.JPG,AFNE01.JPG,,,,,,,,,,,,,4,8,48,9,,,,,,,,,,,AMNE05.jpg,AMSA02.jpg,AMNE01.jpg,AMSA16.jpg,AMSA16.jpg,MS,2,num_4,16,num_4,1.31676325756,,,2017_Jul_18_1554,60.00421482,FEMA4ImagesEEG,001,101033,
AFNE01.JPG,AFNE01.JPG,AFNE01.JPG,AFNE01.JPG,AFNE01.JPG,AFNE01.JPG,,,,,,,,,,,,,4,9,49,3,,,,,,,,,,,AMSA06.jpg,AMNE05.jpg,AMNE20.jpg,AMSA11.jpg,AMSA11.jpg,MS,2,num_4,16,num_4,0.666782774584,,,2017_Jul_18_1554,60.00421482,FEMA4ImagesEEG,001,101033,
AFNE01.JPG,AFNE01.JPG,AFNE01.JPG,AFNE01.JPG,AFNE01.JPG,AFNE01.JPG,,,,,,,,,,,,,5,0,50,2,,,,,,,,,,,AMNE05.jpg,AMSA04.jpg,AMSA03.jpg,AMNE08.jpg,AMNE08.jpg,MN,1,num_4,32,num_6,0.916792958073,,,2017_Jul_18_1554,60.00421482,FEMA4ImagesEEG,001,101033,
AFNE01.JPG,AFNE01.JPG,AFNE01.JPG,AFNE01.JPG,AFNE01.JPG,AFNE01.JPG,,,,,,,,,,,,,5,1,51,9,,,,,,,,,,,AMSA15.jpg,AMSA10.jpg,AMNE17.jpg,AMNE09.jpg,AMSA10.jpg,MS,2,num_6,32,num_8,0.650166832973,,,2017_Jul_18_1554,60.00421482,FEMA4ImagesEEG,001,101033,
AFNE01.JPG,AFNE01.JPG,AFNE01.JPG,AFNE01.JPG,AFNE01.JPG,AFNE01.JPG,,,,,,,,,,,,,5,2,52,8,,,,,,,,,,,AMNE18.jpg,AMNE07.jpg,AMSA03.jpg,AMSA09.jpg,AMSA09.jpg,MS,2,num_4,32,num_8,0.966594596364,,,2017_Jul_18_1554,60.00421482,FEMA4ImagesEEG,001,101033,
AFNE01.JPG,AFNE01.JPG,AFNE01.JPG,AFNE01.JPG,AFNE01.JPG,AFNE01.JPG,,,,,,,,,,,,,5,3,53,0,,,,,,,,,,,AMSA06.jpg,AMNE11.jpg,AMSA19.jpg,AMNE16.jpg,AMSA06.jpg,MS,2,num_8,16,num_8,0.800209699883,,,2017_Jul_18_1554,60.00421482,FEMA4ImagesEEG,001,101033,
AFNE01.JPG,AFNE01.JPG,AFNE01.JPG,AFNE01.JPG,AFNE01.JPG,AFNE01.JPG,,,,,,,,,,,,,5,4,54,4,,,,,,,,,,,AMSA11.jpg,AMSA06.jpg,AMNE05.jpg,AMNE08.jpg,AMNE05.jpg,MN,1,num_2,32,num_4,1.21675905587,,,2017_Jul_18_1554,60.00421482,FEMA4ImagesEEG,001,101033,
AFNE01.JPG,AFNE01.JPG,AFNE01.JPG,AFNE01.JPG,AFNE01.JPG,AFNE01.JPG,,,,,,,,,,,,,5,5,55,1,,,,,,,,,,,AMNE04.jpg,AMSA05.jpg,AMNE10.jpg,AMSA09.jpg,AMSA05.jpg,MS,2,num_6,32,num_2,1.26673421454,,,2017_Jul_18_1554,60.00421482,FEMA4ImagesEEG,001,101033,
AFNE01.JPG,AFNE01.JPG,AFNE01.JPG,AFNE01.JPG,AFNE01.JPG,AFNE01.JPG,,,,,,,,,,,,,5,6,56,5,,,,,,,,,,,AMSA11.jpg,AMNE13.jpg,AMNE10.jpg,AMSA15.jpg,AMNE13.jpg,MN,1,num_6,16,num_6,0.733504416115,,,2017_Jul_18_1554,60.00421482,FEMA4ImagesEEG,001,101033,
AFNE01.JPG,AFNE01.JPG,AFNE01.JPG,AFNE01.JPG,AFNE01.JPG,AFNE01.JPG,,,,,,,,,,,,,5,7,57,6,,,,,,,,,,,AMSA10.jpg,AMNE17.jpg,AMNE09.jpg,AMSA14.jpg,AMNE17.jpg,MN,1,num_6,16,num_6,0.950127798904,,,2017_Jul_18_1554,60.00421482,FEMA4ImagesEEG,001,101033,
AFNE01.JPG,AFNE01.JPG,AFNE01.JPG,AFNE01.JPG,AFNE01.JPG,AFNE01.JPG,,,,,,,,,,,,,5,8,58,3,,,,,,,,,,,AMNE19.jpg,AMNE18.jpg,AMSA11.jpg,AMSA13.jpg,AMNE18.jpg,MN,1,num_6,16,num_6,0.91676473296,,,2017_Jul_18_1554,60.00421482,FEMA4ImagesEEG,001,101033,
AFNE01.JPG,AFNE01.JPG,AFNE01.JPG,AFNE01.JPG,AFNE01.JPG,AFNE01.JPG,,,,,,,,,,,,,5,9,59,7,,,,,,,,,,,AMNE13.jpg,AMNE20.jpg,AMSA20.jpg,AMSA06.jpg,AMSA20.jpg,MS,2,num_2,32,num_6,0.266810550675,,,2017_Jul_18_1554,60.00421482,FEMA4ImagesEEG,001,101033,
,,,,,,,,,,,,,,,,,,,,,,,,,,,,,,,,,,,,,,,,,,,space,76.077623598,2017_Jul_18_1554,60.00421482,FEMA4ImagesEEG,001,101033,
AFNE01.JPG,AFNE01.JPG,AFNE01.JPG,AFNE01.JPG,AFNE01.JPG,AFNE01.JPG,,,,,,,,,,,,,,,,,0,0,0,8,,,,,,,AFNE19.jpg,AFSA01.jpg,AFNE13.jpg,AFSA05.jpg,AFSA01.jpg,FS,4,num_6,16,num_6,1.5502091386,,,2017_Jul_18_1554,60.00421482,FEMA4ImagesEEG,001,101033,
AFNE01.JPG,AFNE01.JPG,AFNE01.JPG,AFNE01.JPG,AFNE01.JPG,AFNE01.JPG,,,,,,,,,,,,,,,,,0,1,1,2,,,,,,,AFNE14.jpg,AFNE13.jpg,AFSA09.jpg,AFSA12.jpg,AFSA12.jpg,FS,4,num_4,32,num_6,0.416792156233,,,2017_Jul_18_1554,60.00421482,FEMA4ImagesEEG,001,101033,
AFNE01.JPG,AFNE01.JPG,AFNE01.JPG,AFNE01.JPG,AFNE01.JPG,AFNE01.JPG,,,,,,,,,,,,,,,,,0,2,2,0,,,,,,,AFNE08.jpg,AFNE03.jpg,AFSA12.jpg,AFSA06.jpg,AFNE03.jpg,FN,3,num_6,32,num_8,0.550253400725,,,2017_Jul_18_1554,60.00421482,FEMA4ImagesEEG,001,101033,
AFNE01.JPG,AFNE01.JPG,AFNE01.JPG,AFNE01.JPG,AFNE01.JPG,AFNE01.JPG,,,,,,,,,,,,,,,,,0,3,3,1,,,,,,,AFNE08.jpg,AFSA07.jpg,AFNE19.jpg,AFSA06.jpg,AFSA06.jpg,FS,4,num_4,16,num_4,1.71665497568,,,2017_Jul_18_1554,60.00421482,FEMA4ImagesEEG,001,101033,
AFNE01.JPG,AFNE01.JPG,AFNE01.JPG,AFNE01.JPG,AFNE01.JPG,AFNE01.JPG,,,,,,,,,,,,,,,,,0,4,4,9,,,,,,,AFSA07.jpg,AFSA13.jpg,AFNE19.jpg,AFNE07.jpg,AFNE19.jpg,FN,3,num_2,16,num_2,0.983435056056,,,2017_Jul_18_1554,60.00421482,FEMA4ImagesEEG,001,101033,
AFNE01.JPG,AFNE01.JPG,AFNE01.JPG,AFNE01.JPG,AFNE01.JPG,AFNE01.JPG,,,,,,,,,,,,,,,,,0,5,5,3,,,,,,,AFNE14.jpg,AFSA14.jpg,AFSA10.jpg,AFNE16.jpg,AFNE16.jpg,FN,3,num_4,32,num_6,0.683477297527,,,2017_Jul_18_1554,60.00421482,FEMA4ImagesEEG,001,101033,
AFNE01.JPG,AFNE01.JPG,AFNE01.JPG,AFNE01.JPG,AFNE01.JPG,AFNE01.JPG,,,,,,,,,,,,,,,,,0,6,6,4,,,,,,,AFNE20.jpg,AFSA16.jpg,AFSA04.jpg,AFNE12.jpg,AFNE12.jpg,FN,3,num_4,16,num_4,1.01676380281,,,2017_Jul_18_1554,60.00421482,FEMA4ImagesEEG,001,101033,
AFNE01.JPG,AFNE01.JPG,AFNE01.JPG,AFNE01.JPG,AFNE01.JPG,AFNE01.JPG,,,,,,,,,,,,,,,,,0,7,7,5,,,,,,,AFSA10.jpg,AFNE20.jpg,AFNE08.jpg,AFSA04.jpg,AFSA10.jpg,FS,4,num_8,32,num_4,0.733456625836,,,2017_Jul_18_1554,60.00421482,FEMA4ImagesEEG,001,101033,
AFNE01.JPG,AFNE01.JPG,AFNE01.JPG,AFNE01.JPG,AFNE01.JPG,AFNE01.JPG,,,,,,,,,,,,,,,,,0,8,8,7,,,,,,,AFNE11.jpg,AFSA10.jpg,AFNE16.jpg,AFSA07.jpg,AFSA07.jpg,FS,4,num_4,32,num_8,0.666749417622,,,2017_Jul_18_1554,60.00421482,FEMA4ImagesEEG,001,101033,
AFNE01.JPG,AFNE01.JPG,AFNE01.JPG,AFNE01.JPG,AFNE01.JPG,AFNE01.JPG,,,,,,,,,,,,,,,,,0,9,9,6,,,,,,,AFSA03.jpg,AFSA17.jpg,AFNE08.jpg,AFNE20.jpg,AFSA17.jpg,FS,4,num_6,16,num_6,0.583493943952,,,2017_Jul_18_1554,60.00421482,FEMA4ImagesEEG,001,101033,
AFNE01.JPG,AFNE01.JPG,AFNE01.JPG,AFNE01.JPG,AFNE01.JPG,AFNE01.JPG,,,,,,,,,,,,,,,,,1,0,10,0,,,,,,,AFNE06.jpg,AFSA20.jpg,AFNE08.jpg,AFSA14.jpg,AFSA14.jpg,FS,4,num_4,16,num_4,0.800169286638,,,2017_Jul_18_1554,60.00421482,FEMA4ImagesEEG,001,101033,
AFNE01.JPG,AFNE01.JPG,AFNE01.JPG,AFNE01.JPG,AFNE01.JPG,AFNE01.JPG,,,,,,,,,,,,,,,,,1,1,11,8,,,,,,,AFSA12.jpg,AFNE06.jpg,AFSA07.jpg,AFNE10.jpg,AFSA07.jpg,FS,4,num_2,32,num_8,0.516793150528,,,2017_Jul_18_1554,60.00421482,FEMA4ImagesEEG,001,101033,
AFNE01.JPG,AFNE01.JPG,AFNE01.JPG,AFNE01.JPG,AFNE01.JPG,AFNE01.JPG,,,,,,,,,,,,,,,,,1,2,12,1,,,,,,,AFNE07.jpg,AFNE18.jpg,AFSA18.jpg,AFSA02.jpg,AFNE18.jpg,FN,3,num_6,32,num_4,0.383521463446,,,2017_Jul_18_1554,60.00421482,FEMA4ImagesEEG,001,101033,
AFNE01.JPG,AFNE01.JPG,AFNE01.JPG,AFNE01.JPG,AFNE01.JPG,AFNE01.JPG,,,,,,,,,,,,,,,,,1,3,13,9,,,,,,,AFSA11.jpg,AFNE05.jpg,AFNE03.jpg,AFSA01.jpg,AFNE05.jpg,FN,3,num_6,16,num_6,0.65013732489,,,2017_Jul_18_1554,60.00421482,FEMA4ImagesEEG,001,101033,
AFNE01.JPG,AFNE01.JPG,AFNE01.JPG,AFNE01.JPG,AFNE01.JPG,AFNE01.JPG,,,,,,,,,,,,,,,,,1,4,14,3,,,,,,,AFNE02.jpg,AFSA15.jpg,AFNE17.jpg,AFSA02.jpg,AFSA15.jpg,FS,4,num_6,32,num_8,0.516792829789,,,2017_Jul_18_1554,60.00421482,FEMA4ImagesEEG,001,101033,
AFNE01.JPG,AFNE01.JPG,AFNE01.JPG,AFNE01.JPG,AFNE01.JPG,AFNE01.JPG,,,,,,,,,,,,,,,,,1,5,15,4,,,,,,,AFNE09.jpg,AFSA02.jpg,AFSA04.jpg,AFNE16.jpg,AFSA04.jpg,FS,4,num_2,32,num_4,1.36674900066,,,2017_Jul_18_1554,60.00421482,FEMA4ImagesEEG,001,101033,
AFNE01.JPG,AFNE01.JPG,AFNE01.JPG,AFNE01.JPG,AFNE01.JPG,AFNE01.JPG,,,,,,,,,,,,,,,,,1,6,16,7,,,,,,,AFSA07.jpg,AFNE11.jpg,AFNE04.jpg,AFSA17.jpg,AFSA07.jpg,FS,4,num_8,16,num_8,0.65008728941,,,2017_Jul_18_1554,60.00421482,FEMA4ImagesEEG,001,101033,
AFNE01.JPG,AFNE01.JPG,AFNE01.JPG,AFNE01.JPG,AFNE01.JPG,AFNE01.JPG,,,,,,,,,,,,,,,,,1,7,17,6,,,,,,,AFNE18.jpg,AFNE08.jpg,AFSA09.jpg,AFSA06.jpg,AFSA09.jpg,FS,4,num_2,32,num_4,1.91670539604,,,2017_Jul_18_1554,60.00421482,FEMA4ImagesEEG,001,101033,
AFNE01.JPG,AFNE01.JPG,AFNE01.JPG,AFNE01.JPG,AFNE01.JPG,AFNE01.JPG,,,,,,,,,,,,,,,,,1,8,18,2,,,,,,,AFSA01.jpg,AFNE02.jpg,AFSA06.jpg,AFNE16.jpg,AFSA06.jpg,FS,4,num_2,32,num_6,1.35005255327,,,2017_Jul_18_1554,60.00421482,FEMA4ImagesEEG,001,101033,
AFNE01.JPG,AFNE01.JPG,AFNE01.JPG,AFNE01.JPG,AFNE01.JPG,AFNE01.JPG,,,,,,,,,,,,,,,,,1,9,19,5,,,,,,,AFSA17.jpg,AFSA12.jpg,AFNE05.jpg,AFNE03.jpg,AFSA17.jpg,FS,4,num_8,32,num_4,2.08335586532,,,2017_Jul_18_1554,60.00421482,FEMA4ImagesEEG,001,101033,
AFNE01.JPG,AFNE01.JPG,AFNE01.JPG,AFNE01.JPG,AFNE01.JPG,AFNE01.JPG,,,,,,,,,,,,,,,,,2,0,20,6,,,,,,,AFNE02.jpg,AFNE11.jpg,AFSA06.jpg,AFSA10.jpg,AFSA06.jpg,FS,4,num_2,32,num_8,0.466821199254,,,2017_Jul_18_1554,60.00421482,FEMA4ImagesEEG,001,101033,
AFNE01.JPG,AFNE01.JPG,AFNE01.JPG,AFNE01.JPG,AFNE01.JPG,AFNE01.JPG,,,,,,,,,,,,,,,,,2,1,21,8,,,,,,,AFNE08.jpg,AFSA14.jpg,AFNE17.jpg,AFSA07.jpg,AFNE17.jpg,FN,3,num_2,32,num_8,0.916757676663,,,2017_Jul_18_1554,60.00421482,FEMA4ImagesEEG,001,101033,
AFNE01.JPG,AFNE01.JPG,AFNE01.JPG,AFNE01.JPG,AFNE01.JPG,AFNE01.JPG,,,,,,,,,,,,,,,,,2,2,22,7,,,,,,,AFSA10.jpg,AFSA04.jpg,AFNE04.jpg,AFNE20.jpg,AFSA04.jpg,FS,4,num_6,32,num_4,0.516788018693,,,2017_Jul_18_1554,60.00421482,FEMA4ImagesEEG,001,101033,
AFNE01.JPG,AFNE01.JPG,AFNE01.JPG,AFNE01.JPG,AFNE01.JPG,AFNE01.JPG,,,,,,,,,,,,,,,,,2,3,23,4,,,,,,,AFNE06.jpg,AFSA01.jpg,AFNE18.jpg,AFSA09.jpg,AFSA01.jpg,FS,4,num_6,16,num_6,0.78353025172,,,2017_Jul_18_1554,60.00421482,FEMA4ImagesEEG,001,101033,
AFNE01.JPG,AFNE01.JPG,AFNE01.JPG,AFNE01.JPG,AFNE01.JPG,AFNE01.JPG,,,,,,,,,,,,,,,,,2,4,24,2,,,,,,,AFNE19.jpg,AFSA09.jpg,AFNE12.jpg,AFSA08.jpg,AFSA09.jpg,FS,4,num_6,32,num_8,0.900150074289,,,2017_Jul_18_1554,60.00421482,FEMA4ImagesEEG,001,101033,
AFNE01.JPG,AFNE01.JPG,AFNE01.JPG,AFNE01.JPG,AFNE01.JPG,AFNE01.JPG,,,,,,,,,,,,,,,,,2,5,25,9,,,,,,,AFSA18.jpg,AFNE10.jpg,AFNE09.jpg,AFSA03.jpg,AFSA03.jpg,FS,4,num_4,32,num_6,0.866769367654,,,2017_Jul_18_1554,60.00421482,FEMA4ImagesEEG,001,101033,
AFNE01.JPG,AFNE01.JPG,AFNE01.JPG,AFNE01.JPG,AFNE01.JPG,AFNE01.JPG,,,,,,,,,,,,,,,,,2,6,26,5,,,,,,,AFNE03.jpg,AFSA11.jpg,AFSA12.jpg,AFNE19.jpg,AFNE19.jpg,FN,3,num_4,16,num_4,2.20004015666,,,2017_Jul_18_1554,60.00421482,FEMA4ImagesEEG,001,101033,
AFNE01.JPG,AFNE01.JPG,AFNE01.JPG,AFNE01.JPG,AFNE01.JPG,AFNE01.JPG,,,,,,,,,,,,,,,,,2,7,27,3,,,,,,,AFNE18.jpg,AFSA11.jpg,AFSA14.jpg,AFNE03.jpg,AFNE03.jpg,FN,3,num_4,16,num_4,0.866758783231,,,2017_Jul_18_1554,60.00421482,FEMA4ImagesEEG,001,101033,
AFNE01.JPG,AFNE01.JPG,AFNE01.JPG,AFNE01.JPG,AFNE01.JPG,AFNE01.JPG,,,,,,,,,,,,,,,,,2,8,28,0,,,,,,,AFNE16.jpg,AFSA01.jpg,AFNE02.jpg,AFSA02.jpg,AFNE02.jpg,FN,3,num_2,32,num_4,0.783450708186,,,2017_Jul_18_1554,60.00421482,FEMA4ImagesEEG,001,101033,
AFNE01.JPG,AFNE01.JPG,AFNE01.JPG,AFNE01.JPG,AFNE01.JPG,AFNE01.JPG,,,,,,,,,,,,,,,,,2,9,29,1,,,,,,,AFNE06.jpg,AFSA16.jpg,AFSA19.jpg,AFNE08.jpg,AFNE08.jpg,FN,3,num_4,32,num_8,0.500150266744,,,2017_Jul_18_1554,60.00421482,FEMA4ImagesEEG,001,101033,
AFNE01.JPG,AFNE01.JPG,AFNE01.JPG,AFNE01.JPG,AFNE01.JPG,AFNE01.JPG,,,,,,,,,,,,,,,,,3,0,30,0,,,,,,,AFSA14.jpg,AFNE10.jpg,AFSA20.jpg,AFNE06.jpg,AFNE06.jpg,FN,3,num_4,32,num_6,1.083504368,,,2017_Jul_18_1554,60.00421482,FEMA4ImagesEEG,001,101033,
AFNE01.JPG,AFNE01.JPG,AFNE01.JPG,AFNE01.JPG,AFNE01.JPG,AFNE01.JPG,,,,,,,,,,,,,,,,,3,1,31,3,,,,,,,AFNE15.jpg,AFSA02.jpg,AFNE20.jpg,AFSA12.jpg,AFSA12.jpg,FS,4,num_4,16,num_4,1.96681751075,,,2017_Jul_18_1554,60.00421482,FEMA4ImagesEEG,001,101033,
AFNE01.JPG,AFNE01.JPG,AFNE01.JPG,AFNE01.JPG,AFNE01.JPG,AFNE01.JPG,,,,,,,,,,,,,,,,,3,2,32,5,,,,,,,AFSA13.jpg,AFNE04.jpg,AFNE13.jpg,AFSA12.jpg,AFSA13.jpg,FS,4,num_8,16,num_8,2.06670881192,,,2017_Jul_18_1554,60.00421482,FEMA4ImagesEEG,001,101033,
AFNE01.JPG,AFNE01.JPG,AFNE01.JPG,AFNE01.JPG,AFNE01.JPG,AFNE01.JPG,,,,,,,,,,,,,,,,,3,3,33,1,,,,,,,AFNE18.jpg,AFSA11.jpg,AFSA17.jpg,AFNE14.jpg,AFSA17.jpg,FS,4,num_2,32,num_4,1.30014250483,,,2017_Jul_18_1554,60.00421482,FEMA4ImagesEEG,001,101033,
AFNE01.JPG,AFNE01.JPG,AFNE01.JPG,AFNE01.JPG,AFNE01.JPG,AFNE01.JPG,,,,,,,,,,,,,,,,,3,4,34,8,,,,,,,AFSA16.jpg,AFNE03.jpg,AFSA04.jpg,AFNE02.jpg,AFSA04.jpg,FS,4,num_2,16,num_2,1.03339225329,,,2017_Jul_18_1554,60.00421482,FEMA4ImagesEEG,001,101033,
AFNE01.JPG,AFNE01.JPG,AFNE01.JPG,AFNE01.JPG,AFNE01.JPG,AFNE01.JPG,,,,,,,,,,,,,,,,,3,5,35,4,,,,,,,AFSA07.jpg,AFSA19.jpg,AFNE20.jpg,AFNE06.jpg,AFNE06.jpg,FN,3,num_4,32,num_6,1.01677470797,,,2017_Jul_18_1554,60.00421482,FEMA4ImagesEEG,001,101033,
AFNE01.JPG,AFNE01.JPG,AFNE01.JPG,AFNE01.JPG,AFNE01.JPG,AFNE01.JPG,,,,,,,,,,,,,,,,,3,6,36,9,,,,,,,AFNE06.jpg,AFSA16.jpg,AFSA08.jpg,AFNE05.jpg,AFNE05.jpg,FN,3,num_4,32,num_2,2.38336686671,,,2017_Jul_18_1554,60.00421482,FEMA4ImagesEEG,001,101033,
AFNE01.JPG,AFNE01.JPG,AFNE01.JPG,AFNE01.JPG,AFNE01.JPG,AFNE01.JPG,,,,,,,,,,,,,,,,,3,7,37,7,,,,,,,AFSA10.jpg,AFSA01.jpg,AFNE17.jpg,AFNE19.jpg,AFSA10.jpg,FS,4,num_8,32,num_6,2.58338809971,,,2017_Jul_18_1554,60.00421482,FEMA4ImagesEEG,001,101033,
AFNE01.JPG,AFNE01.JPG,AFNE01.JPG,AFNE01.JPG,AFNE01.JPG,AFNE01.JPG,,,,,,,,,,,,,,,,,3,8,38,6,,,,,,,AFSA04.jpg,AFNE03.jpg,AFSA02.jpg,AFNE17.jpg,AFNE17.jpg,FN,3,num_4,16,num_4,1.7667359786,,,2017_Jul_18_1554,60.00421482,FEMA4ImagesEEG,001,101033,
AFNE01.JPG,AFNE01.JPG,AFNE01.JPG,AFNE01.JPG,AFNE01.JPG,AFNE01.JPG,,,,,,,,,,,,,,,,,3,9,39,2,,,,,,,AFNE06.jpg,AFSA14.jpg,AFSA03.jpg,AFNE02.jpg,AFNE02.jpg,FN,3,num_4,32,num_8,1.7834157475,,,2017_Jul_18_1554,60.00421482,FEMA4ImagesEEG,001,101033,
AFNE01.JPG,AFNE01.JPG,AFNE01.JPG,AFNE01.JPG,AFNE01.JPG,AFNE01.JPG,,,,,,,,,,,,,,,,,4,0,40,7,,,,,,,AFSA09.jpg,AFNE19.jpg,AFSA08.jpg,AFNE05.jpg,AFSA08.jpg,FS,4,num_2,16,num_2,1.61701577625,,,2017_Jul_18_1554,60.00421482,FEMA4ImagesEEG,001,101033,
AFNE01.JPG,AFNE01.JPG,AFNE01.JPG,AFNE01.JPG,AFNE01.JPG,AFNE01.JPG,,,,,,,,,,,,,,,,,4,1,41,0,,,,,,,AFSA04.jpg,AFNE17.jpg,AFSA08.jpg,AFNE20.jpg,AFSA08.jpg,FS,4,num_2,32,num_4,1.36672430366,,,2017_Jul_18_1554,60.00421482,FEMA4ImagesEEG,001,101033,
AFNE01.JPG,AFNE01.JPG,AFNE01.JPG,AFNE01.JPG,AFNE01.JPG,AFNE01.JPG,,,,,,,,,,,,,,,,,4,2,42,6,,,,,,,AFSA10.jpg,AFNE06.jpg,AFNE09.jpg,AFSA04.jpg,AFNE06.jpg,FN,3,num_6,16,num_6,1.08343284296,,,2017_Jul_18_1554,60.00421482,FEMA4ImagesEEG,001,101033,
AFNE01.JPG,AFNE01.JPG,AFNE01.JPG,AFNE01.JPG,AFNE01.JPG,AFNE01.JPG,,,,,,,,,,,,,,,,,4,3,43,8,,,,,,,AFSA14.jpg,AFSA04.jpg,AFNE04.jpg,AFNE13.jpg,AFNE13.jpg,FN,3,num_4,32,num_6,2.0999993906,,,2017_Jul_18_1554,60.00421482,FEMA4ImagesEEG,001,101033,
AFNE01.JPG,AFNE01.JPG,AFNE01.JPG,AFNE01.JPG,AFNE01.JPG,AFNE01.JPG,,,,,,,,,,,,,,,,,4,4,44,5,,,,,,,AFNE11.jpg,AFNE12.jpg,AFSA02.jpg,AFSA18.jpg,AFSA18.jpg,FS,4,num_4,32,num_2,1.16670339141,,,2017_Jul_18_1554,60.00421482,FEMA4ImagesEEG,001,101033,
AFNE01.JPG,AFNE01.JPG,AFNE01.JPG,AFNE01.JPG,AFNE01.JPG,AFNE01.JPG,,,,,,,,,,,,,,,,,4,5,45,3,,,,,,,AFSA13.jpg,AFSA03.jpg,AFNE05.jpg,AFNE08.jpg,AFNE05.jpg,FN,3,num_2,16,num_2,0.98359959574,,,2017_Jul_18_1554,60.00421482,FEMA4ImagesEEG,001,101033,
AFNE01.JPG,AFNE01.JPG,AFNE01.JPG,AFNE01.JPG,AFNE01.JPG,AFNE01.JPG,,,,,,,,,,,,,,,,,4,6,46,9,,,,,,,AFSA03.jpg,AFNE05.jpg,AFNE20.jpg,AFSA11.jpg,AFNE20.jpg,FN,3,num_2,32,num_4,0.800091988262,,,2017_Jul_18_1554,60.00421482,FEMA4ImagesEEG,001,101033,
AFNE01.JPG,AFNE01.JPG,AFNE01.JPG,AFNE01.JPG,AFNE01.JPG,AFNE01.JPG,,,,,,,,,,,,,,,,,4,7,47,4,,,,,,,AFNE06.jpg,AFNE17.jpg,AFSA11.jpg,AFSA02.jpg,AFSA02.jpg,FS,4,num_4,16,num_4,0.666911391367,,,2017_Jul_18_1554,60.00421482,FEMA4ImagesEEG,001,101033,
AFNE01.JPG,AFNE01.JPG,AFNE01.JPG,AFNE01.JPG,AFNE01.JPG,AFNE01.JPG,,,,,,,,,,,,,,,,,4,8,48,1,,,,,,,AFNE09.jpg,AFNE11.jpg,AFSA10.jpg,AFSA05.jpg,AFNE11.jpg,FN,3,num_6,16,num_6,1.68342148875,,,2017_Jul_18_1554,60.00421482,FEMA4ImagesEEG,001,101033,
AFNE01.JPG,AFNE01.JPG,AFNE01.JPG,AFNE01.JPG,AFNE01.JPG,AFNE01.JPG,,,,,,,,,,,,,,,,,4,9,49,2,,,,,,,AFNE09.jpg,AFNE04.jpg,AFSA06.jpg,AFSA01.jpg,AFNE09.jpg,FN,3,num_8,32,num_2,0.96678896487,,,2017_Jul_18_1554,60.00421482,FEMA4ImagesEEG,001,101033,
AFNE01.JPG,AFNE01.JPG,AFNE01.JPG,AFNE01.JPG,AFNE01.JPG,AFNE01.JPG,,,,,,,,,,,,,,,,,5,0,50,5,,,,,,,AFSA09.jpg,AFSA12.jpg,AFNE14.jpg,AFNE20.jpg,AFSA12.jpg,FS,4,num_6,32,num_2,0.816898449513,,,2017_Jul_18_1554,60.00421482,FEMA4ImagesEEG,001,101033,
AFNE01.JPG,AFNE01.JPG,AFNE01.JPG,AFNE01.JPG,AFNE01.JPG,AFNE01.JPG,,,,,,,,,,,,,,,,,5,1,51,8,,,,,,,AFSA01.jpg,AFNE17.jpg,AFNE03.jpg,AFSA17.jpg,AFNE17.jpg,FN,3,num_6,32,num_4,0.73345694656,,,2017_Jul_18_1554,60.00421482,FEMA4ImagesEEG,001,101033,
AFNE01.JPG,AFNE01.JPG,AFNE01.JPG,AFNE01.JPG,AFNE01.JPG,AFNE01.JPG,,,,,,,,,,,,,,,,,5,2,52,0,,,,,,,AFSA03.jpg,AFSA01.jpg,AFNE17.jpg,AFNE03.jpg,AFNE17.jpg,FN,3,num_2,16,num_2,1.23343273069,,,2017_Jul_18_1554,60.00421482,FEMA4ImagesEEG,001,101033,
AFNE01.JPG,AFNE01.JPG,AFNE01.JPG,AFNE01.JPG,AFNE01.JPG,AFNE01.JPG,,,,,,,,,,,,,,,,,5,3,53,3,,,,,,,AFNE07.jpg,AFSA15.jpg,AFNE06.jpg,AFSA20.jpg,AFNE06.jpg,FN,3,num_2,32,num_4,1.25010223591,,,2017_Jul_18_1554,60.00421482,FEMA4ImagesEEG,001,101033,
AFNE01.JPG,AFNE01.JPG,AFNE01.JPG,AFNE01.JPG,AFNE01.JPG,AFNE01.JPG,,,,,,,,,,,,,,,,,5,4,54,2,,,,,,,AFNE16.jpg,AFNE04.jpg,AFSA01.jpg,AFSA12.jpg,AFSA12.jpg,FS,4,num_4,16,num_4,0.78347604665,,,2017_Jul_18_1554,60.00421482,FEMA4ImagesEEG,001,101033,
AFNE01.JPG,AFNE01.JPG,AFNE01.JPG,AFNE01.JPG,AFNE01.JPG,AFNE01.JPG,,,,,,,,,,,,,,,,,5,5,55,7,,,,,,,AFSA01.jpg,AFNE03.jpg,AFNE02.jpg,AFSA04.jpg,AFNE03.jpg,FN,3,num_6,32,num_4,0.766874217603,,,2017_Jul_18_1554,60.00421482,FEMA4ImagesEEG,001,101033,
AFNE01.JPG,AFNE01.JPG,AFNE01.JPG,AFNE01.JPG,AFNE01.JPG,AFNE01.JPG,,,,,,,,,,,,,,,,,5,6,56,9,,,,,,,AFNE14.jpg,AFNE16.jpg,AFSA14.jpg,AFSA07.jpg,AFNE16.jpg,FN,3,num_6,32,num_2,0.916838182442,,,2017_Jul_18_1554,60.00421482,FEMA4ImagesEEG,001,101033,
AFNE01.JPG,AFNE01.JPG,AFNE01.JPG,AFNE01.JPG,AFNE01.JPG,AFNE01.JPG,,,,,,,,,,,,,,,,,5,7,57,6,,,,,,,AFSA15.jpg,AFNE08.jpg,AFNE13.jpg,AFSA18.jpg,AFNE13.jpg,FN,3,num_2,32,num_6,1.64999555776,,,2017_Jul_18_1554,60.00421482,FEMA4ImagesEEG,001,101033,
AFNE01.JPG,AFNE01.JPG,AFNE01.JPG,AFNE01.JPG,AFNE01.JPG,AFNE01.JPG,,,,,,,,,,,,,,,,,5,8,58,4,,,,,,,AFNE03.jpg,AFNE16.jpg,AFSA08.jpg,AFSA16.jpg,AFSA08.jpg,FS,4,num_2,32,num_4,0.983456866379,,,2017_Jul_18_1554,60.00421482,FEMA4ImagesEEG,001,101033,
AFNE01.JPG,AFNE01.JPG,AFNE01.JPG,AFNE01.JPG,AFNE01.JPG,AFNE01.JPG,,,,,,,,,,,,,,,,,5,9,59,1,,,,,,,AFSA10.jpg,AFSA14.jpg,AFNE03.jpg,AFNE14.jpg,AFSA14.jpg,FS,4,num_6,32,num_4,1.56669261453,,,2017_Jul_18_1554,60.00421482,FEMA4ImagesEEG,001,101033,
,,,,,,,,,,,,,,,,,,,,,,,,,,,,,,,,,,,,,,,,,,,space,74.4115345843,2017_Jul_18_1554,60.00421482,FEMA4ImagesEEG,001,101033,
AFNE01.JPG,AFNE01.JPG,AFNE01.JPG,AFNE01.JPG,AFNE01.JPG,AFNE01.JPG,,,,,,,,,,,,,,,,,,,,,0,0,0,0,,,AMNE06.jpg,AMSA10.jpg,AMNE12.jpg,AMSA04.jpg,AMNE12.jpg,MN,1,num_2,16,num_2,1.26672202641,,,2017_Jul_18_1554,60.00421482,FEMA4ImagesEEG,001,101033,
AFNE01.JPG,AFNE01.JPG,AFNE01.JPG,AFNE01.JPG,AFNE01.JPG,AFNE01.JPG,,,,,,,,,,,,,,,,,,,,,0,1,1,7,,,AMNE01.jpg,AMSA19.jpg,AMSA15.jpg,AMNE02.jpg,AMSA15.jpg,MS,2,num_2,16,num_2,0.950080329349,,,2017_Jul_18_1554,60.00421482,FEMA4ImagesEEG,001,101033,
AFNE01.JPG,AFNE01.JPG,AFNE01.JPG,AFNE01.JPG,AFNE01.JPG,AFNE01.JPG,,,,,,,,,,,,,,,,,,,,,0,2,2,2,,,AMNE03.jpg,AMSA16.jpg,AMNE17.jpg,AMSA17.jpg,AMSA16.jpg,MS,2,num_6,32,num_4,0.700126275377,,,2017_Jul_18_1554,60.00421482,FEMA4ImagesEEG,001,101033,
AFNE01.JPG,AFNE01.JPG,AFNE01.JPG,AFNE01.JPG,AFNE01.JPG,AFNE01.JPG,,,,,,,,,,,,,,,,,,,,,0,3,3,9,,,AMSA16.jpg,AMSA18.jpg,AMNE13.jpg,AMNE09.jpg,AMSA16.jpg,MS,2,num_8,16,num_8,0.883421873645,,,2017_Jul_18_1554,60.00421482,FEMA4ImagesEEG,001,101033,
AFNE01.JPG,AFNE01.JPG,AFNE01.JPG,AFNE01.JPG,AFNE01.JPG,AFNE01.JPG,,,,,,,,,,,,,,,,,,,,,0,4,4,3,,,AMSA07.jpg,AMNE05.jpg,AMSA12.jpg,AMNE12.jpg,AMNE05.jpg,MN,1,num_6,32,num_4,1.29981182178,,,2017_Jul_18_1554,60.00421482,FEMA4ImagesEEG,001,101033,
AFNE01.JPG,AFNE01.JPG,AFNE01.JPG,AFNE01.JPG,AFNE01.JPG,AFNE01.JPG,,,,,,,,,,,,,,,,,,,,,0,5,5,4,,,AMNE20.jpg,AMSA14.jpg,AMNE15.jpg,AMSA05.jpg,AMSA14.jpg,MS,2,num_6,32,num_4,0.733438985131,,,2017_Jul_18_1554,60.00421482,FEMA4ImagesEEG,001,101033,
AFNE01.JPG,AFNE01.JPG,AFNE01.JPG,AFNE01.JPG,AFNE01.JPG,AFNE01.JPG,,,,,,,,,,,,,,,,,,,,,0,6,6,5,,,AMSA18.jpg,AMSA01.jpg,AMNE15.jpg,AMNE02.jpg,AMNE02.jpg,MN,1,num_4,32,num_8,0.516870769628,,,2017_Jul_18_1554,60.00421482,FEMA4ImagesEEG,001,101033,
AFNE01.JPG,AFNE01.JPG,AFNE01.JPG,AFNE01.JPG,AFNE01.JPG,AFNE01.JPG,,,,,,,,,,,,,,,,,,,,,0,7,7,6,,,AMSA07.jpg,AMNE04.jpg,AMSA12.jpg,AMNE05.jpg,AMSA12.jpg,MS,2,num_2,32,num_4,0.783465782966,,,2017_Jul_18_1554,60.00421482,FEMA4ImagesEEG,001,101033,
AFNE01.JPG,AFNE01.JPG,AFNE01.JPG,AFNE01.JPG,AFNE01.JPG,AFNE01.JPG,,,,,,,,,,,,,,,,,,,,,0,8,8,1,,,AMSA07.jpg,AMSA16.jpg,AMNE07.jpg,AMNE03.jpg,AMNE03.jpg,MN,1,num_4,32,num_6,0.916733621169,,,2017_Jul_18_1554,60.00421482,FEMA4ImagesEEG,001,101033,
AFNE01.JPG,AFNE01.JPG,AFNE01.JPG,AFNE01.JPG,AFNE01.JPG,AFNE01.JPG,,,,,,,,,,,,,,,,,,,,,0,9,9,8,,,AMSA15.jpg,AMNE18.jpg,AMSA07.jpg,AMNE09.jpg,AMNE09.jpg,MN,1,num_4,16,num_4,0.56697486584,,,2017_Jul_18_1554,60.00421482,FEMA4ImagesEEG,001,101033,
AFNE01.JPG,AFNE01.JPG,AFNE01.JPG,AFNE01.JPG,AFNE01.JPG,AFNE01.JPG,,,,,,,,,,,,,,,,,,,,,1,0,10,3,,,AMNE11.jpg,AMNE17.jpg,AMSA19.jpg,AMSA01.jpg,AMSA19.jpg,MS,2,num_2,32,num_6,1.95004953831,,,2017_Jul_18_1554,60.00421482,FEMA4ImagesEEG,001,101033,
AFNE01.JPG,AFNE01.JPG,AFNE01.JPG,AFNE01.JPG,AFNE01.JPG,AFNE01.JPG,,,,,,,,,,,,,,,,,,,,,1,1,11,6,,,AMNE08.jpg,AMSA07.jpg,AMNE19.jpg,AMSA15.jpg,AMNE08.jpg,MN,1,num_8,16,num_8,1.18344345945,,,2017_Jul_18_1554,60.00421482,FEMA4ImagesEEG,001,101033,
AFNE01.JPG,AFNE01.JPG,AFNE01.JPG,AFNE01.JPG,AFNE01.JPG,AFNE01.JPG,,,,,,,,,,,,,,,,,,,,,1,2,12,9,,,AMSA16.jpg,AMNE16.jpg,AMSA20.jpg,AMNE13.jpg,AMNE13.jpg,MN,1,num_4,32,num_2,1.16675021946,,,2017_Jul_18_1554,60.00421482,FEMA4ImagesEEG,001,101033,
AFNE01.JPG,AFNE01.JPG,AFNE01.JPG,AFNE01.JPG,AFNE01.JPG,AFNE01.JPG,,,,,,,,,,,,,,,,,,,,,1,3,13,1,,,AMNE11.jpg,AMSA05.jpg,AMSA16.jpg,AMNE07.jpg,AMNE07.jpg,MN,1,num_4,32,num_8,0.816782341586,,,2017_Jul_18_1554,60.00421482,FEMA4ImagesEEG,001,101033,
AFNE01.JPG,AFNE01.JPG,AFNE01.JPG,AFNE01.JPG,AFNE01.JPG,AFNE01.JPG,,,,,,,,,,,,,,,,,,,,,1,4,14,4,,,AMSA05.jpg,AMNE07.jpg,AMSA20.jpg,AMNE03.jpg,AMNE07.jpg,MN,1,num_6,32,num_4,1.78337661721,,,2017_Jul_18_1554,60.00421482,FEMA4ImagesEEG,001,101033,
AFNE01.JPG,AFNE01.JPG,AFNE01.JPG,AFNE01.JPG,AFNE01.JPG,AFNE01.JPG,,,,,,,,,,,,,,,,,,,,,1,5,15,5,,,AMSA17.jpg,AMNE06.jpg,AMSA02.jpg,AMNE10.jpg,AMNE06.jpg,MN,1,num_6,16,num_6,1.01677759463,,,2017_Jul_18_1554,60.00421482,FEMA4ImagesEEG,001,101033,
AFNE01.JPG,AFNE01.JPG,AFNE01.JPG,AFNE01.JPG,AFNE01.JPG,AFNE01.JPG,,,,,,,,,,,,,,,,,,,,,1,6,16,0,,,AMNE02.jpg,AMSA01.jpg,AMNE05.jpg,AMSA07.jpg,AMNE05.jpg,MN,1,num_2,32,num_8,0.583462511408,,,2017_Jul_18_1554,60.00421482,FEMA4ImagesEEG,001,101033,
AFNE01.JPG,AFNE01.JPG,AFNE01.JPG,AFNE01.JPG,AFNE01.JPG,AFNE01.JPG,,,,,,,,,,,,,,,,,,,,,1,7,17,7,,,AMNE08.jpg,AMSA19.jpg,AMSA09.jpg,AMNE15.jpg,AMNE08.jpg,MN,1,num_8,32,num_4,0.883439514349,,,2017_Jul_18_1554,60.00421482,FEMA4ImagesEEG,001,101033,
AFNE01.JPG,AFNE01.JPG,AFNE01.JPG,AFNE01.JPG,AFNE01.JPG,AFNE01.JPG,,,,,,,,,,,,,,,,,,,,,1,8,18,8,,,AMSA15.jpg,AMSA20.jpg,AMNE11.jpg,AMNE01.jpg,AMNE11.jpg,MN,1,num_2,32,num_4,0.634010832669,,,2017_Jul_18_1554,60.00421482,FEMA4ImagesEEG,001,101033,
AFNE01.JPG,AFNE01.JPG,AFNE01.JPG,AFNE01.JPG,AFNE01.JPG,AFNE01.JPG,,,,,,,,,,,,,,,,,,,,,1,9,19,2,,,AMSA03.jpg,AMSA12.jpg,AMNE11.jpg,AMNE16.jpg,AMNE11.jpg,MN,1,num_2,32,num_4,0.900104208456,,,2017_Jul_18_1554,60.00421482,FEMA4ImagesEEG,001,101033,
AFNE01.JPG,AFNE01.JPG,AFNE01.JPG,AFNE01.JPG,AFNE01.JPG,AFNE01.JPG,,,,,,,,,,,,,,,,,,,,,2,0,20,8,,,AMNE04.jpg,AMNE20.jpg,AMSA09.jpg,AMSA13.jpg,AMSA09.jpg,MS,2,num_2,16,num_2,2.19999364935,,,2017_Jul_18_1554,60.00421482,FEMA4ImagesEEG,001,101033,
AFNE01.JPG,AFNE01.JPG,AFNE01.JPG,AFNE01.JPG,AFNE01.JPG,AFNE01.JPG,,,,,,,,,,,,,,,,,,,,,2,1,21,5,,,AMSA07.jpg,AMSA01.jpg,AMNE10.jpg,AMNE05.jpg,AMNE10.jpg,MN,1,num_2,32,num_4,1.13333294845,,,2017_Jul_18_1554,60.00421482,FEMA4ImagesEEG,001,101033,
AFNE01.JPG,AFNE01.JPG,AFNE01.JPG,AFNE01.JPG,AFNE01.JPG,AFNE01.JPG,,,,,,,,,,,,,,,,,,,,,2,2,22,0,,,AMSA11.jpg,AMSA08.jpg,AMNE11.jpg,AMNE05.jpg,AMSA11.jpg,MS,2,num_8,32,num_6,0.78345872667,,,2017_Jul_18_1554,60.00421482,FEMA4ImagesEEG,001,101033,
AFNE01.JPG,AFNE01.JPG,AFNE01.JPG,AFNE01.JPG,AFNE01.JPG,AFNE01.JPG,,,,,,,,,,,,,,,,,,,,,2,3,23,2,,,AMSA04.jpg,AMSA20.jpg,AMNE19.jpg,AMNE10.jpg,AMSA04.jpg,MS,2,num_8,32,num_4,0.800113477846,,,2017_Jul_18_1554,60.00421482,FEMA4ImagesEEG,001,101033,
AFNE01.JPG,AFNE01.JPG,AFNE01.JPG,AFNE01.JPG,AFNE01.JPG,AFNE01.JPG,,,,,,,,,,,,,,,,,,,,,2,4,24,9,,,AMSA18.jpg,AMSA05.jpg,AMNE15.jpg,AMNE19.jpg,AMNE19.jpg,MN,1,num_4,16,num_4,0.95012234633,,,2017_Jul_18_1554,60.00421482,FEMA4ImagesEEG,001,101033,
AFNE01.JPG,AFNE01.JPG,AFNE01.JPG,AFNE01.JPG,AFNE01.JPG,AFNE01.JPG,,,,,,,,,,,,,,,,,,,,,2,5,25,3,,,AMNE05.jpg,AMSA07.jpg,AMNE09.jpg,AMSA10.jpg,AMSA07.jpg,MS,2,num_6,32,num_2,2.5833249139,,,2017_Jul_18_1554,60.00421482,FEMA4ImagesEEG,001,101033,
AFNE01.JPG,AFNE01.JPG,AFNE01.JPG,AFNE01.JPG,AFNE01.JPG,AFNE01.JPG,,,,,,,,,,,,,,,,,,,,,2,6,26,4,,,AMNE10.jpg,AMSA09.jpg,AMNE16.jpg,AMSA15.jpg,AMSA09.jpg,MS,2,num_6,16,num_6,1.31674978646,,,2017_Jul_18_1554,60.00421482,FEMA4ImagesEEG,001,101033,
AFNE01.JPG,AFNE01.JPG,AFNE01.JPG,AFNE01.JPG,AFNE01.JPG,AFNE01.JPG,,,,,,,,,,,,,,,,,,,,,2,7,27,1,,,AMNE20.jpg,AMSA05.jpg,AMNE11.jpg,AMSA15.jpg,AMSA05.jpg,MS,2,num_6,32,num_4,0.866798875752,,,2017_Jul_18_1554,60.00421482,FEMA4ImagesEEG,001,101033,
AFNE01.JPG,AFNE01.JPG,AFNE01.JPG,AFNE01.JPG,AFNE01.JPG,AFNE01.JPG,,,,,,,,,,,,,,,,,,,,,2,8,28,7,,,AMSA13.jpg,AMSA12.jpg,AMNE17.jpg,AMNE10.jpg,AMSA12.jpg,MS,2,num_6,32,num_2,0.450501621497,,,2017_Jul_18_1554,60.00421482,FEMA4ImagesEEG,001,101033,
AFNE01.JPG,AFNE01.JPG,AFNE01.JPG,AFNE01.JPG,AFNE01.JPG,AFNE01.JPG,,,,,,,,,,,,,,,,,,,,,2,9,29,6,,,AMNE14.jpg,AMSA02.jpg,AMNE07.jpg,AMSA01.jpg,AMNE14.jpg,MN,1,num_8,16,num_8,1.08344727627,,,2017_Jul_18_1554,60.00421482,FEMA4ImagesEEG,001,101033,
AFNE01.JPG,AFNE01.JPG,AFNE01.JPG,AFNE01.JPG,AFNE01.JPG,AFNE01.JPG,,,,,,,,,,,,,,,,,,,,,3,0,30,4,,,AMSA10.jpg,AMSA07.jpg,AMNE12.jpg,AMNE03.jpg,AMSA07.jpg,MS,2,num_6,16,num_6,0.583493623199,,,2017_Jul_18_1554,60.00421482,FEMA4ImagesEEG,001,101033,
AFNE01.JPG,AFNE01.JPG,AFNE01.JPG,AFNE01.JPG,AFNE01.JPG,AFNE01.JPG,,,,,,,,,,,,,,,,,,,,,3,1,31,2,,,AMSA03.jpg,AMNE12.jpg,AMNE01.jpg,AMSA13.jpg,AMSA13.jpg,MS,2,num_4,32,num_6,0.733490624276,,,2017_Jul_18_1554,60.00421482,FEMA4ImagesEEG,001,101033,
AFNE01.JPG,AFNE01.JPG,AFNE01.JPG,AFNE01.JPG,AFNE01.JPG,AFNE01.JPG,,,,,,,,,,,,,,,,,,,,,3,2,32,9,,,AMNE08.jpg,AMSA04.jpg,AMNE11.jpg,AMSA01.jpg,AMNE08.jpg,MN,1,num_8,32,num_4,0.650157852244,,,2017_Jul_18_1554,60.00421482,FEMA4ImagesEEG,001,101033,
AFNE01.JPG,AFNE01.JPG,AFNE01.JPG,AFNE01.JPG,AFNE01.JPG,AFNE01.JPG,,,,,,,,,,,,,,,,,,,,,3,3,33,7,,,AMNE18.jpg,AMSA12.jpg,AMNE16.jpg,AMSA06.jpg,AMSA06.jpg,MS,2,num_4,32,num_2,3.74987916117,,,2017_Jul_18_1554,60.00421482,FEMA4ImagesEEG,001,101033,
AFNE01.JPG,AFNE01.JPG,AFNE01.JPG,AFNE01.JPG,AFNE01.JPG,AFNE01.JPG,,,,,,,,,,,,,,,,,,,,,3,4,34,3,,,AMSA05.jpg,AMNE13.jpg,AMNE16.jpg,AMSA09.jpg,AMSA09.jpg,MS,2,num_4,16,num_4,1.41673955486,,,2017_Jul_18_1554,60.00421482,FEMA4ImagesEEG,001,101033,
AFNE01.JPG,AFNE01.JPG,AFNE01.JPG,AFNE01.JPG,AFNE01.JPG,AFNE01.JPG,,,,,,,,,,,,,,,,,,,,,3,5,35,8,,,AMSA07.jpg,AMNE03.jpg,AMSA15.jpg,AMNE05.jpg,AMSA07.jpg,MS,2,num_8,32,num_6,1.06672805632,,,2017_Jul_18_1554,60.00421482,FEMA4ImagesEEG,001,101033,
AFNE01.JPG,AFNE01.JPG,AFNE01.JPG,AFNE01.JPG,AFNE01.JPG,AFNE01.JPG,,,,,,,,,,,,,,,,,,,,,3,6,36,5,,,AMNE02.jpg,AMSA19.jpg,AMNE08.jpg,AMSA03.jpg,AMSA03.jpg,MS,2,num_4,32,num_6,0.966731552398,,,2017_Jul_18_1554,60.00421482,FEMA4ImagesEEG,001,101033,
AFNE01.JPG,AFNE01.JPG,AFNE01.JPG,AFNE01.JPG,AFNE01.JPG,AFNE01.JPG,,,,,,,,,,,,,,,,,,,,,3,7,37,6,,,AMNE01.jpg,AMNE17.jpg,AMSA18.jpg,AMSA04.jpg,AMSA04.jpg,MS,2,num_4,16,num_4,0.833594896889,,,2017_Jul_18_1554,60.00421482,FEMA4ImagesEEG,001,101033,
AFNE01.JPG,AFNE01.JPG,AFNE01.JPG,AFNE01.JPG,AFNE01.JPG,AFNE01.JPG,,,,,,,,,,,,,,,,,,,,,3,8,38,1,,,AMNE01.jpg,AMSA10.jpg,AMSA09.jpg,AMNE08.jpg,AMSA09.jpg,MS,2,num_2,32,num_4,0.666813565636,,,2017_Jul_18_1554,60.00421482,FEMA4ImagesEEG,001,101033,
AFNE01.JPG,AFNE01.JPG,AFNE01.JPG,AFNE01.JPG,AFNE01.JPG,AFNE01.JPG,,,,,,,,,,,,,,,,,,,,,3,9,39,0,,,AMNE10.jpg,AMNE20.jpg,AMSA12.jpg,AMSA19.jpg,AMNE20.jpg,MN,1,num_6,32,num_4,0.600108281869,,,2017_Jul_18_1554,60.00421482,FEMA4ImagesEEG,001,101033,
AFNE01.JPG,AFNE01.JPG,AFNE01.JPG,AFNE01.JPG,AFNE01.JPG,AFNE01.JPG,,,,,,,,,,,,,,,,,,,,,4,0,40,8,,,AMNE10.jpg,AMNE17.jpg,AMSA06.jpg,AMSA01.jpg,AMNE17.jpg,MN,1,num_6,32,num_4,0.766762600033,,,2017_Jul_18_1554,60.00421482,FEMA4ImagesEEG,001,101033,
AFNE01.JPG,AFNE01.JPG,AFNE01.JPG,AFNE01.JPG,AFNE01.JPG,AFNE01.JPG,,,,,,,,,,,,,,,,,,,,,4,1,41,5,,,AMSA18.jpg,AMSA13.jpg,AMNE06.jpg,AMNE18.jpg,AMNE06.jpg,MN,1,num_2,32,num_6,0.983448527142,,,2017_Jul_18_1554,60.00421482,FEMA4ImagesEEG,001,101033,
AFNE01.JPG,AFNE01.JPG,AFNE01.JPG,AFNE01.JPG,AFNE01.JPG,AFNE01.JPG,,,,,,,,,,,,,,,,,,,,,4,2,42,9,,,AMSA08.jpg,AMSA19.jpg,AMNE20.jpg,AMNE06.jpg,AMNE06.jpg,MN,1,num_4,16,num_4,0.900277408131,,,2017_Jul_18_1554,60.00421482,FEMA4ImagesEEG,001,101033,
