IPosition2,IPosition3,IPosition1,IPosition6,IPosition4,IPosition5,TrialsM1.thisRepN,TrialsM1.thisTrialN,TrialsM1.thisN,TrialsM1.thisIndex,TrialsF1.thisRepN,TrialsF1.thisTrialN,TrialsF1.thisN,TrialsF1.thisIndex,TrialsM2.thisRepN,TrialsM2.thisTrialN,TrialsM2.thisN,TrialsM2.thisIndex,TrialsF2.thisRepN,TrialsF2.thisTrialN,TrialsF2.thisN,TrialsF2.thisIndex,TrialsM3.thisRepN,TrialsM3.thisTrialN,TrialsM3.thisN,TrialsM3.thisIndex,TrialsF3.thisRepN,TrialsF3.thisTrialN,TrialsF3.thisN,TrialsF3.thisIndex,InstrKey_resp.keys,InstrKey_resp.rt,Image0 _Position,Image1 _Position,Image2 _Position,Image3 _Position,Center_image,condition,code,correct_answer,accuracy,Key_Resp.keys,Key_Resp.rt,BreakKey_resp.keys,BreakKey_resp.rt,date,frameRate,expName,session,participant,
,,,,,,,,,,,,,,,,,,,,,,,,,,,,,,space,9.01626505191,,,,,,,,,,,,,,2017_Aug_01_1627,59.9834352003,MAFE4ImagesEEG,001,101090,
AFNE22.JPG,AFSA24.JPG,AFSA22.JPG,AFNE25.JPG,AFNE24.JPG,AFSA25.JPG,0,0,0,6,,,,,,,,,,,,,,,,,,,,,,,AMNE09.jpg,AMSA16.jpg,AMSA13.jpg,AMNE19.jpg,AMNE19.jpg,MN,1,num_4,32,num_8,2.36665662751,,,2017_Aug_01_1627,59.9834352003,MAFE4ImagesEEG,001,101090,
AMSA21.JPG,AMNE22.JPG,AMNE21.JPG,AMSA23.JPG,AMSA22.JPG,AMNE23.JPG,0,1,1,1,,,,,,,,,,,,,,,,,,,,,,,AMNE05.jpg,AMSA11.jpg,AMNE10.jpg,AMSA02.jpg,AMNE05.jpg,MN,1,num_8,48,None,,,,2017_Aug_01_1627,59.9834352003,MAFE4ImagesEEG,001,101090,
AMSA25.JPG,AMNE24.JPG,AMSA24.JPG,AMNE26.JPG,AMSA21.JPG,AMNE25.JPG,0,2,2,3,,,,,,,,,,,,,,,,,,,,,,,AMSA07.jpg,AMSA17.jpg,AMNE05.jpg,AMNE09.jpg,AMSA17.jpg,MS,2,num_6,32,num_4,1.45011833706,,,2017_Aug_01_1627,59.9834352003,MAFE4ImagesEEG,001,101090,
AFSA25.JPG,AFNE24.JPG,AFSA24.JPG,AFNE21.JPG,AFSA21.JPG,AFNE25.JPG,0,3,3,2,,,,,,,,,,,,,,,,,,,,,,,AMSA08.jpg,AMNE16.jpg,AMSA03.jpg,AMNE15.jpg,AMNE16.jpg,MN,1,num_6,32,num_2,1.31675074878,,,2017_Aug_01_1627,59.9834352003,MAFE4ImagesEEG,001,101090,
AMNE22.JPG,AMSA24.JPG,AMSA22.JPG,AMNE25.JPG,AMNE24.JPG,AMSA25.JPG,0,4,4,7,,,,,,,,,,,,,,,,,,,,,,,AMSA20.jpg,AMNE02.jpg,AMSA12.jpg,AMNE13.jpg,AMSA20.jpg,MS,2,num_8,16,num_8,1.53344405279,,,2017_Aug_01_1627,59.9834352003,MAFE4ImagesEEG,001,101090,
AFSA21.JPG,AFNE23.JPG,AFNE21.JPG,AFSA25.JPG,AFNE25.JPG,AFSA23.JPG,0,5,5,4,,,,,,,,,,,,,,,,,,,,,,,AMNE03.jpg,AMSA19.jpg,AMNE18.jpg,AMSA16.jpg,AMSA19.jpg,MS,2,num_6,32,num_2,1.30004852801,,,2017_Aug_01_1627,59.9834352003,MAFE4ImagesEEG,001,101090,
AFNE23.JPG,AFNE24.JPG,AFNE22.JPG,AFSA24.JPG,AFSA22.JPG,AFSA23.JPG,0,6,6,8,,,,,,,,,,,,,,,,,,,,,,,AMSA09.jpg,AMSA10.jpg,AMNE04.jpg,AMNE01.jpg,AMNE04.jpg,MN,1,num_2,32,num_4,3.76626705658,,,2017_Aug_01_1627,59.9834352003,MAFE4ImagesEEG,001,101090,
AMSA21.JPG,AMNE23.JPG,AMNE21.JPG,AMSA25.JPG,AMNE25.JPG,AMSA23.JPG,0,7,7,5,,,,,,,,,,,,,,,,,,,,,,,AMNE01.jpg,AMNE13.jpg,AMSA11.jpg,AMSA10.jpg,AMNE01.jpg,MN,1,num_8,16,num_8,0.60013650707,,,2017_Aug_01_1627,59.9834352003,MAFE4ImagesEEG,001,101090,
AMNE23.JPG,AMNE24.JPG,AMNE22.JPG,AMSA24.JPG,AMSA22.JPG,AMSA23.JPG,0,8,8,9,,,,,,,,,,,,,,,,,,,,,,,AMNE13.jpg,AMNE15.jpg,AMSA05.jpg,AMSA14.jpg,AMNE15.jpg,MN,1,num_6,16,num_6,1.93342910637,,,2017_Aug_01_1627,59.9834352003,MAFE4ImagesEEG,001,101090,
AFSA21.JPG,AFNE22.JPG,AFNE21.JPG,AFSA23.JPG,AFSA22.JPG,AFNE23.JPG,0,9,9,0,,,,,,,,,,,,,,,,,,,,,,,AMSA05.jpg,AMSA13.jpg,AMNE12.jpg,AMNE19.jpg,AMSA05.jpg,MS,2,num_8,32,num_2,2.81662999,,,2017_Aug_01_1627,59.9834352003,MAFE4ImagesEEG,001,101090,
AMSA25.JPG,AMNE24.JPG,AMSA24.JPG,AMNE26.JPG,AMSA21.JPG,AMNE25.JPG,,,,,0,0,0,3,,,,,,,,,,,,,,,,,,,AFNE19.jpg,AFSA09.jpg,AFSA11.jpg,AFNE07.jpg,AFNE07.jpg,FN,3,num_4,16,num_4,2.66663651704,,,2017_Aug_01_1627,59.9834352003,MAFE4ImagesEEG,001,101090,
AFSA25.JPG,AFNE24.JPG,AFSA24.JPG,AFNE21.JPG,AFSA21.JPG,AFNE25.JPG,,,,,0,1,1,2,,,,,,,,,,,,,,,,,,,AFNE01.jpg,AFNE08.jpg,AFSA01.jpg,AFSA05.jpg,AFSA05.jpg,FS,4,num_4,32,num_2,2.13334385352,,,2017_Aug_01_1627,59.9834352003,MAFE4ImagesEEG,001,101090,
AMSA21.JPG,AMNE22.JPG,AMNE21.JPG,AMSA23.JPG,AMSA22.JPG,AMNE23.JPG,,,,,0,2,2,1,,,,,,,,,,,,,,,,,,,AFNE06.jpg,AFSA18.jpg,AFNE07.jpg,AFSA14.jpg,AFNE07.jpg,FN,3,num_2,16,num_2,3.69996398082,,,2017_Aug_01_1627,59.9834352003,MAFE4ImagesEEG,001,101090,
AMNE23.JPG,AMNE24.JPG,AMNE22.JPG,AMSA24.JPG,AMSA22.JPG,AMSA23.JPG,,,,,0,3,3,9,,,,,,,,,,,,,,,,,,,AFNE20.jpg,AFNE01.jpg,AFSA09.jpg,AFSA05.jpg,AFSA09.jpg,FS,4,num_2,32,num_4,2.36650235136,,,2017_Aug_01_1627,59.9834352003,MAFE4ImagesEEG,001,101090,
AFSA21.JPG,AFNE23.JPG,AFNE21.JPG,AFSA25.JPG,AFNE25.JPG,AFSA23.JPG,,,,,0,4,4,4,,,,,,,,,,,,,,,,,,,AFNE08.jpg,AFNE20.jpg,AFSA16.jpg,AFSA06.jpg,AFSA06.jpg,FS,4,num_4,16,num_4,1.66666089324,,,2017_Aug_01_1627,59.9834352003,MAFE4ImagesEEG,001,101090,
AFNE22.JPG,AFSA24.JPG,AFSA22.JPG,AFNE25.JPG,AFNE24.JPG,AFSA25.JPG,,,,,0,5,5,6,,,,,,,,,,,,,,,,,,,AFSA17.jpg,AFSA11.jpg,AFNE06.jpg,AFNE03.jpg,AFSA11.jpg,FS,4,num_6,16,num_6,2.63332156232,,,2017_Aug_01_1627,59.9834352003,MAFE4ImagesEEG,001,101090,
AMSA21.JPG,AMNE23.JPG,AMNE21.JPG,AMSA25.JPG,AMNE25.JPG,AMSA23.JPG,,,,,0,6,6,5,,,,,,,,,,,,,,,,,,,AFSA13.jpg,AFSA18.jpg,AFNE08.jpg,AFNE17.jpg,AFNE17.jpg,FN,3,num_4,32,num_8,1.9667071763,,,2017_Aug_01_1627,59.9834352003,MAFE4ImagesEEG,001,101090,
AMNE22.JPG,AMSA24.JPG,AMSA22.JPG,AMNE25.JPG,AMNE24.JPG,AMSA25.JPG,,,,,0,7,7,7,,,,,,,,,,,,,,,,,,,AFSA10.jpg,AFNE12.jpg,AFSA08.jpg,AFNE20.jpg,AFSA08.jpg,FS,4,num_2,32,num_4,2.133354438,,,2017_Aug_01_1627,59.9834352003,MAFE4ImagesEEG,001,101090,
AFSA21.JPG,AFNE22.JPG,AFNE21.JPG,AFSA23.JPG,AFSA22.JPG,AFNE23.JPG,,,,,0,8,8,0,,,,,,,,,,,,,,,,,,,AFSA16.jpg,AFSA04.jpg,AFNE20.jpg,AFNE13.jpg,AFSA04.jpg,FS,4,num_6,16,num_6,0.666821584105,,,2017_Aug_01_1627,59.9834352003,MAFE4ImagesEEG,001,101090,
AFNE23.JPG,AFNE24.JPG,AFNE22.JPG,AFSA24.JPG,AFSA22.JPG,AFSA23.JPG,,,,,0,9,9,8,,,,,,,,,,,,,,,,,,,AFSA16.jpg,AFNE20.jpg,AFSA19.jpg,AFNE05.jpg,AFSA16.jpg,FS,4,num_8,16,num_8,1.25012340466,,,2017_Aug_01_1627,59.9834352003,MAFE4ImagesEEG,001,101090,
AMNE23.JPG,AMNE24.JPG,AMNE22.JPG,AMSA24.JPG,AMSA22.JPG,AMSA23.JPG,,,,,,,,,0,0,0,9,,,,,,,,,,,,,,,AMNE12.jpg,AMNE20.jpg,AMSA07.jpg,AMSA19.jpg,AMNE20.jpg,MN,1,num_6,32,num_8,1.55013504764,,,2017_Aug_01_1627,59.9834352003,MAFE4ImagesEEG,001,101090,
AMSA21.JPG,AMNE22.JPG,AMNE21.JPG,AMSA23.JPG,AMSA22.JPG,AMNE23.JPG,,,,,,,,,0,1,1,1,,,,,,,,,,,,,,,AMNE09.jpg,AMSA06.jpg,AMNE20.jpg,AMSA18.jpg,AMNE09.jpg,MN,1,num_8,16,num_8,0.883487304673,,,2017_Aug_01_1627,59.9834352003,MAFE4ImagesEEG,001,101090,
AFSA25.JPG,AFNE24.JPG,AFSA24.JPG,AFNE21.JPG,AFSA21.JPG,AFNE25.JPG,,,,,,,,,0,2,2,2,,,,,,,,,,,,,,,AMSA14.jpg,AMNE18.jpg,AMSA12.jpg,AMNE19.jpg,AMNE19.jpg,MN,1,num_4,32,num_2,1.48343970673,,,2017_Aug_01_1627,59.9834352003,MAFE4ImagesEEG,001,101090,
AMSA25.JPG,AMNE24.JPG,AMSA24.JPG,AMNE26.JPG,AMSA21.JPG,AMNE25.JPG,,,,,,,,,0,3,3,3,,,,,,,,,,,,,,,AMNE05.jpg,AMSA06.jpg,AMSA11.jpg,AMNE09.jpg,AMNE09.jpg,MN,1,num_4,32,num_8,1.06676045107,,,2017_Aug_01_1627,59.9834352003,MAFE4ImagesEEG,001,101090,
AMSA21.JPG,AMNE23.JPG,AMNE21.JPG,AMSA25.JPG,AMNE25.JPG,AMSA23.JPG,,,,,,,,,0,4,4,5,,,,,,,,,,,,,,,AMSA18.jpg,AMNE08.jpg,AMSA02.jpg,AMNE11.jpg,AMNE11.jpg,MN,1,num_4,16,num_4,1.45010197931,,,2017_Aug_01_1627,59.9834352003,MAFE4ImagesEEG,001,101090,
AMNE22.JPG,AMSA24.JPG,AMSA22.JPG,AMNE25.JPG,AMNE24.JPG,AMSA25.JPG,,,,,,,,,0,5,5,7,,,,,,,,,,,,,,,AMSA07.jpg,AMNE13.jpg,AMSA19.jpg,AMNE19.jpg,AMSA07.jpg,MS,2,num_8,32,num_2,2.40002610837,,,2017_Aug_01_1627,59.9834352003,MAFE4ImagesEEG,001,101090,
AFSA21.JPG,AFNE23.JPG,AFNE21.JPG,AFSA25.JPG,AFNE25.JPG,AFSA23.JPG,,,,,,,,,0,6,6,4,,,,,,,,,,,,,,,AMNE10.jpg,AMSA02.jpg,AMNE15.jpg,AMSA15.jpg,AMNE15.jpg,MN,1,num_2,32,num_8,1.73338766675,,,2017_Aug_01_1627,59.9834352003,MAFE4ImagesEEG,001,101090,
AFNE22.JPG,AFSA24.JPG,AFSA22.JPG,AFNE25.JPG,AFNE24.JPG,AFSA25.JPG,,,,,,,,,0,7,7,6,,,,,,,,,,,,,,,AMSA13.jpg,AMNE11.jpg,AMSA14.jpg,AMNE13.jpg,AMNE11.jpg,MN,1,num_6,32,num_8,0.983748740051,,,2017_Aug_01_1627,59.9834352003,MAFE4ImagesEEG,001,101090,
AFNE23.JPG,AFNE24.JPG,AFNE22.JPG,AFSA24.JPG,AFSA22.JPG,AFSA23.JPG,,,,,,,,,0,8,8,8,,,,,,,,,,,,,,,AMSA13.jpg,AMNE09.jpg,AMSA14.jpg,AMNE14.jpg,AMNE14.jpg,MN,1,num_4,32,num_8,1.03344132658,,,2017_Aug_01_1627,59.9834352003,MAFE4ImagesEEG,001,101090,
AFSA21.JPG,AFNE22.JPG,AFNE21.JPG,AFSA23.JPG,AFSA22.JPG,AFNE23.JPG,,,,,,,,,0,9,9,0,,,,,,,,,,,,,,,AMNE14.jpg,AMNE09.jpg,AMSA16.jpg,AMSA07.jpg,AMSA07.jpg,MS,2,num_4,32,num_8,1.93335661921,,,2017_Aug_01_1627,59.9834352003,MAFE4ImagesEEG,001,101090,
AFNE23.JPG,AFNE24.JPG,AFNE22.JPG,AFSA24.JPG,AFSA22.JPG,AFSA23.JPG,,,,,,,,,,,,,0,0,0,8,,,,,,,,,,,AFSA04.jpg,AFNE14.jpg,AFNE07.jpg,AFSA01.jpg,AFNE14.jpg,FN,3,num_6,32,num_4,1.11680264445,,,2017_Aug_01_1627,59.9834352003,MAFE4ImagesEEG,001,101090,
AFSA21.JPG,AFNE23.JPG,AFNE21.JPG,AFSA25.JPG,AFNE25.JPG,AFSA23.JPG,,,,,,,,,,,,,0,1,1,4,,,,,,,,,,,AFSA13.jpg,AFNE13.jpg,AFNE15.jpg,AFSA07.jpg,AFSA13.jpg,FS,4,num_8,32,num_6,1.98337475699,,,2017_Aug_01_1627,59.9834352003,MAFE4ImagesEEG,001,101090,
AFSA21.JPG,AFNE22.JPG,AFNE21.JPG,AFSA23.JPG,AFSA22.JPG,AFNE23.JPG,,,,,,,,,,,,,0,2,2,0,,,,,,,,,,,AFSA08.jpg,AFNE12.jpg,AFSA17.jpg,AFNE01.jpg,AFSA08.jpg,FS,4,num_8,32,num_4,2.10009817849,,,2017_Aug_01_1627,59.9834352003,MAFE4ImagesEEG,001,101090,
AMSA21.JPG,AMNE23.JPG,AMNE21.JPG,AMSA25.JPG,AMNE25.JPG,AMSA23.JPG,,,,,,,,,,,,,0,3,3,5,,,,,,,,,,,AFNE10.jpg,AFSA15.jpg,AFSA12.jpg,AFNE01.jpg,AFSA15.jpg,FS,4,num_6,32,num_8,0.966735401191,,,2017_Aug_01_1627,59.9834352003,MAFE4ImagesEEG,001,101090,
AFSA25.JPG,AFNE24.JPG,AFSA24.JPG,AFNE21.JPG,AFSA21.JPG,AFNE25.JPG,,,,,,,,,,,,,0,4,4,2,,,,,,,,,,,AFSA15.jpg,AFSA16.jpg,AFNE01.jpg,AFNE17.jpg,AFSA16.jpg,FS,4,num_6,32,num_2,1.23343786271,,,2017_Aug_01_1627,59.9834352003,MAFE4ImagesEEG,001,101090,
AMNE22.JPG,AMSA24.JPG,AMSA22.JPG,AMNE25.JPG,AMNE24.JPG,AMSA25.JPG,,,,,,,,,,,,,0,5,5,7,,,,,,,,,,,AFSA19.jpg,AFNE05.jpg,AFNE08.jpg,AFSA02.jpg,AFSA02.jpg,FS,4,num_4,16,num_4,1.05000915704,,,2017_Aug_01_1627,59.9834352003,MAFE4ImagesEEG,001,101090,
AMNE23.JPG,AMNE24.JPG,AMNE22.JPG,AMSA24.JPG,AMSA22.JPG,AMSA23.JPG,,,,,,,,,,,,,0,6,6,9,,,,,,,,,,,AFNE03.jpg,AFNE17.jpg,AFSA09.jpg,AFSA19.jpg,AFNE17.jpg,FN,3,num_6,16,num_6,1.03347179689,,,2017_Aug_01_1627,59.9834352003,MAFE4ImagesEEG,001,101090,
AFNE22.JPG,AFSA24.JPG,AFSA22.JPG,AFNE25.JPG,AFNE24.JPG,AFSA25.JPG,,,,,,,,,,,,,0,7,7,6,,,,,,,,,,,AFSA09.jpg,AFSA04.jpg,AFNE04.jpg,AFNE08.jpg,AFNE08.jpg,FN,3,num_4,32,num_2,1.13343334012,,,2017_Aug_01_1627,59.9834352003,MAFE4ImagesEEG,001,101090,
AMSA25.JPG,AMNE24.JPG,AMSA24.JPG,AMNE26.JPG,AMSA21.JPG,AMNE25.JPG,,,,,,,,,,,,,0,8,8,3,,,,,,,,,,,AFNE19.jpg,AFSA07.jpg,AFSA09.jpg,AFNE06.jpg,AFNE06.jpg,FN,3,num_4,32,num_8,4.7165026241,,,2017_Aug_01_1627,59.9834352003,MAFE4ImagesEEG,001,101090,
AMSA21.JPG,AMNE22.JPG,AMNE21.JPG,AMSA23.JPG,AMSA22.JPG,AMNE23.JPG,,,,,,,,,,,,,0,9,9,1,,,,,,,,,,,AFNE08.jpg,AFSA07.jpg,AFSA02.jpg,AFNE09.jpg,AFNE08.jpg,FN,3,num_8,32,num_2,1.30011588335,,,2017_Aug_01_1627,59.9834352003,MAFE4ImagesEEG,001,101090,
AFNE22.JPG,AFSA24.JPG,AFSA22.JPG,AFNE25.JPG,AFNE24.JPG,AFSA25.JPG,,,,,,,,,,,,,,,,,0,0,0,6,,,,,,,AMNE05.jpg,AMNE04.jpg,AMSA08.jpg,AMSA02.jpg,AMSA02.jpg,MS,2,num_4,32,num_6,0.816811849829,,,2017_Aug_01_1627,59.9834352003,MAFE4ImagesEEG,001,101090,
AFSA25.JPG,AFNE24.JPG,AFSA24.JPG,AFNE21.JPG,AFSA21.JPG,AFNE25.JPG,,,,,,,,,,,,,,,,,0,1,1,2,,,,,,,AMNE11.jpg,AMSA05.jpg,AMNE17.jpg,AMSA11.jpg,AMSA05.jpg,MS,2,num_6,32,num_8,3.66639179247,,,2017_Aug_01_1627,59.9834352003,MAFE4ImagesEEG,001,101090,
AMNE22.JPG,AMSA24.JPG,AMSA22.JPG,AMNE25.JPG,AMNE24.JPG,AMSA25.JPG,,,,,,,,,,,,,,,,,0,2,2,7,,,,,,,AMNE04.jpg,AMSA11.jpg,AMSA17.jpg,AMNE12.jpg,AMNE12.jpg,MN,1,num_4,16,num_4,3.11660442711,,,2017_Aug_01_1627,59.9834352003,MAFE4ImagesEEG,001,101090,
AFNE23.JPG,AFNE24.JPG,AFNE22.JPG,AFSA24.JPG,AFSA22.JPG,AFSA23.JPG,,,,,,,,,,,,,,,,,0,3,3,8,,,,,,,AMNE11.jpg,AMNE14.jpg,AMSA03.jpg,AMSA18.jpg,AMNE14.jpg,MN,1,num_6,16,num_6,1.01661241357,,,2017_Aug_01_1627,59.9834352003,MAFE4ImagesEEG,001,101090,
AMNE23.JPG,AMNE24.JPG,AMNE22.JPG,AMSA24.JPG,AMSA22.JPG,AMSA23.JPG,,,,,,,,,,,,,,,,,0,4,4,9,,,,,,,AMNE19.jpg,AMSA19.jpg,AMSA14.jpg,AMNE16.jpg,AMNE16.jpg,MN,1,num_4,32,num_8,1.28348711226,,,2017_Aug_01_1627,59.9834352003,MAFE4ImagesEEG,001,101090,
AMSA21.JPG,AMNE23.JPG,AMNE21.JPG,AMSA25.JPG,AMNE25.JPG,AMSA23.JPG,,,,,,,,,,,,,,,,,0,5,5,5,,,,,,,AMNE08.jpg,AMNE03.jpg,AMSA01.jpg,AMSA07.jpg,AMSA07.jpg,MS,2,num_4,32,num_8,1.50018330291,,,2017_Aug_01_1627,59.9834352003,MAFE4ImagesEEG,001,101090,
AMSA25.JPG,AMNE24.JPG,AMSA24.JPG,AMNE26.JPG,AMSA21.JPG,AMNE25.JPG,,,,,,,,,,,,,,,,,0,6,6,3,,,,,,,AMNE13.jpg,AMNE19.jpg,AMSA19.jpg,AMSA03.jpg,AMNE13.jpg,MN,1,num_8,32,num_6,0.683487881906,,,2017_Aug_01_1627,59.9834352003,MAFE4ImagesEEG,001,101090,
AMSA21.JPG,AMNE22.JPG,AMNE21.JPG,AMSA23.JPG,AMSA22.JPG,AMNE23.JPG,,,,,,,,,,,,,,,,,0,7,7,1,,,,,,,AMNE19.jpg,AMNE01.jpg,AMSA07.jpg,AMSA09.jpg,AMNE19.jpg,MN,1,num_8,16,num_8,1.20011456846,,,2017_Aug_01_1627,59.9834352003,MAFE4ImagesEEG,001,101090,
AFSA21.JPG,AFNE22.JPG,AFNE21.JPG,AFSA23.JPG,AFSA22.JPG,AFNE23.JPG,,,,,,,,,,,,,,,,,0,8,8,0,,,,,,,AMNE09.jpg,AMSA05.jpg,AMSA20.jpg,AMNE11.jpg,AMNE09.jpg,MN,1,num_8,32,num_4,1.48338774685,,,2017_Aug_01_1627,59.9834352003,MAFE4ImagesEEG,001,101090,
AFSA21.JPG,AFNE23.JPG,AFNE21.JPG,AFSA25.JPG,AFNE25.JPG,AFSA23.JPG,,,,,,,,,,,,,,,,,0,9,9,4,,,,,,,AMSA03.jpg,AMNE13.jpg,AMNE06.jpg,AMSA14.jpg,AMSA03.jpg,MS,2,num_8,16,num_8,2.41670299065,,,2017_Aug_01_1627,59.9834352003,MAFE4ImagesEEG,001,101090,
AMNE23.JPG,AMNE24.JPG,AMNE22.JPG,AMSA24.JPG,AMSA22.JPG,AMSA23.JPG,,,,,,,,,,,,,,,,,,,,,0,0,0,9,,,AFSA17.jpg,AFNE01.jpg,AFSA20.jpg,AFNE14.jpg,AFNE14.jpg,FN,3,num_4,16,num_4,0.650121929357,,,2017_Aug_01_1627,59.9834352003,MAFE4ImagesEEG,001,101090,
AFNE23.JPG,AFNE24.JPG,AFNE22.JPG,AFSA24.JPG,AFSA22.JPG,AFSA23.JPG,,,,,,,,,,,,,,,,,,,,,0,1,1,8,,,AFNE08.jpg,AFSA13.jpg,AFSA12.jpg,AFNE19.jpg,AFSA12.jpg,FS,4,num_2,16,num_2,1.36676696222,,,2017_Aug_01_1627,59.9834352003,MAFE4ImagesEEG,001,101090,
AMSA25.JPG,AMNE24.JPG,AMSA24.JPG,AMNE26.JPG,AMSA21.JPG,AMNE25.JPG,,,,,,,,,,,,,,,,,,,,,0,2,2,3,,,AFSA01.jpg,AFNE03.jpg,AFNE08.jpg,AFSA19.jpg,AFSA19.jpg,FS,4,num_4,16,num_4,0.86677353736,,,2017_Aug_01_1627,59.9834352003,MAFE4ImagesEEG,001,101090,
AMSA21.JPG,AMNE22.JPG,AMNE21.JPG,AMSA23.JPG,AMSA22.JPG,AMNE23.JPG,,,,,,,,,,,,,,,,,,,,,0,3,3,1,,,AFSA15.jpg,AFSA18.jpg,AFNE18.jpg,AFNE09.jpg,AFNE09.jpg,FN,3,num_4,32,num_8,0.883489870466,,,2017_Aug_01_1627,59.9834352003,MAFE4ImagesEEG,001,101090,
AFNE22.JPG,AFSA24.JPG,AFSA22.JPG,AFNE25.JPG,AFNE24.JPG,AFSA25.JPG,,,,,,,,,,,,,,,,,,,,,0,4,4,6,,,AFSA06.jpg,AFNE18.jpg,AFNE05.jpg,AFSA19.jpg,AFNE05.jpg,FN,3,num_2,32,num_8,1.1500961096,,,2017_Aug_01_1627,59.9834352003,MAFE4ImagesEEG,001,101090,
AMNE22.JPG,AMSA24.JPG,AMSA22.JPG,AMNE25.JPG,AMNE24.JPG,AMSA25.JPG,,,,,,,,,,,,,,,,,,,,,0,5,5,7,,,AFNE01.jpg,AFSA20.jpg,AFNE14.jpg,AFSA02.jpg,AFSA02.jpg,FS,4,num_4,32,num_8,1.36676792428,,,2017_Aug_01_1627,59.9834352003,MAFE4ImagesEEG,001,101090,
AFSA25.JPG,AFNE24.JPG,AFSA24.JPG,AFNE21.JPG,AFSA21.JPG,AFNE25.JPG,,,,,,,,,,,,,,,,,,,,,0,6,6,2,,,AFNE12.jpg,AFSA14.jpg,AFSA16.jpg,AFNE18.jpg,AFNE12.jpg,FN,3,num_8,16,num_8,0.90009683161,,,2017_Aug_01_1627,59.9834352003,MAFE4ImagesEEG,001,101090,
AFSA21.JPG,AFNE22.JPG,AFNE21.JPG,AFSA23.JPG,AFSA22.JPG,AFNE23.JPG,,,,,,,,,,,,,,,,,,,,,0,7,7,0,,,AFSA18.jpg,AFNE03.jpg,AFNE15.jpg,AFSA17.jpg,AFNE03.jpg,FN,3,num_6,32,num_8,3.53327983385,,,2017_Aug_01_1627,59.9834352003,MAFE4ImagesEEG,001,101090,
AMSA21.JPG,AMNE23.JPG,AMNE21.JPG,AMSA25.JPG,AMNE25.JPG,AMSA23.JPG,,,,,,,,,,,,,,,,,,,,,0,8,8,5,,,AFNE08.jpg,AFSA13.jpg,AFSA16.jpg,AFNE01.jpg,AFSA16.jpg,FS,4,num_2,32,num_6,0.733517245855,,,2017_Aug_01_1627,59.9834352003,MAFE4ImagesEEG,001,101090,
AFSA21.JPG,AFNE23.JPG,AFNE21.JPG,AFSA25.JPG,AFNE25.JPG,AFSA23.JPG,,,,,,,,,,,,,,,,,,,,,0,9,9,4,,,AFNE08.jpg,AFSA20.jpg,AFSA05.jpg,AFNE06.jpg,AFSA05.jpg,FS,4,num_2,32,num_4,1.18349702307,,,2017_Aug_01_1627,59.9834352003,MAFE4ImagesEEG,001,101090,
,,,,,,,,,,,,,,,,,,,,,,,,,,,,,,,,,,,,,,,,,,,space,11.8493050684,2017_Aug_01_1627,59.9834352003,MAFE4ImagesEEG,001,101090,
AFNE01.JPG,AFNE01.JPG,AFNE01.JPG,AFNE01.JPG,AFNE01.JPG,AFNE01.JPG,0,0,0,1,,,,,,,,,,,,,,,,,,,,,,,AMNE14.jpg,AMSA09.jpg,AMNE06.jpg,AMSA03.jpg,AMSA03.jpg,MS,2,num_4,32,num_8,2.16667516623,,,2017_Aug_01_1627,59.9834352003,MAFE4ImagesEEG,001,101090,
AFNE01.JPG,AFNE01.JPG,AFNE01.JPG,AFNE01.JPG,AFNE01.JPG,AFNE01.JPG,0,1,1,0,,,,,,,,,,,,,,,,,,,,,,,AMSA08.jpg,AMSA06.jpg,AMNE11.jpg,AMNE12.jpg,AMSA06.jpg,MS,2,num_6,32,num_4,1.08343893709,,,2017_Aug_01_1627,59.9834352003,MAFE4ImagesEEG,001,101090,
AFNE01.JPG,AFNE01.JPG,AFNE01.JPG,AFNE01.JPG,AFNE01.JPG,AFNE01.JPG,0,2,2,2,,,,,,,,,,,,,,,,,,,,,,,AMNE09.jpg,AMSA18.jpg,AMSA02.jpg,AMNE14.jpg,AMNE09.jpg,MN,1,num_8,16,num_8,1.18345083646,,,2017_Aug_01_1627,59.9834352003,MAFE4ImagesEEG,001,101090,
AFNE01.JPG,AFNE01.JPG,AFNE01.JPG,AFNE01.JPG,AFNE01.JPG,AFNE01.JPG,0,3,3,5,,,,,,,,,,,,,,,,,,,,,,,AMNE13.jpg,AMSA20.jpg,AMNE16.jpg,AMSA03.jpg,AMNE13.jpg,MN,1,num_8,32,num_6,1.01675097318,,,2017_Aug_01_1627,59.9834352003,MAFE4ImagesEEG,001,101090,
AFNE01.JPG,AFNE01.JPG,AFNE01.JPG,AFNE01.JPG,AFNE01.JPG,AFNE01.JPG,0,4,4,7,,,,,,,,,,,,,,,,,,,,,,,AMSA10.jpg,AMNE06.jpg,AMSA08.jpg,AMNE14.jpg,AMNE06.jpg,MN,1,num_6,32,num_2,1.11663457658,,,2017_Aug_01_1627,59.9834352003,MAFE4ImagesEEG,001,101090,
AFNE01.JPG,AFNE01.JPG,AFNE01.JPG,AFNE01.JPG,AFNE01.JPG,AFNE01.JPG,0,5,5,3,,,,,,,,,,,,,,,,,,,,,,,AMSA14.jpg,AMNE11.jpg,AMSA16.jpg,AMNE05.jpg,AMSA14.jpg,MS,2,num_8,16,num_8,0.666810037568,,,2017_Aug_01_1627,59.9834352003,MAFE4ImagesEEG,001,101090,
AFNE01.JPG,AFNE01.JPG,AFNE01.JPG,AFNE01.JPG,AFNE01.JPG,AFNE01.JPG,0,6,6,8,,,,,,,,,,,,,,,,,,,,,,,AMSA10.jpg,AMNE05.jpg,AMNE13.jpg,AMSA17.jpg,AMNE13.jpg,MN,1,num_2,32,num_6,0.533602498472,,,2017_Aug_01_1627,59.9834352003,MAFE4ImagesEEG,001,101090,
AFNE01.JPG,AFNE01.JPG,AFNE01.JPG,AFNE01.JPG,AFNE01.JPG,AFNE01.JPG,0,7,7,9,,,,,,,,,,,,,,,,,,,,,,,AMSA19.jpg,AMSA08.jpg,AMNE01.jpg,AMNE20.jpg,AMNE01.jpg,MN,1,num_2,32,num_4,0.666801698273,,,2017_Aug_01_1627,59.9834352003,MAFE4ImagesEEG,001,101090,
AFNE01.JPG,AFNE01.JPG,AFNE01.JPG,AFNE01.JPG,AFNE01.JPG,AFNE01.JPG,0,8,8,4,,,,,,,,,,,,,,,,,,,,,,,AMSA19.jpg,AMNE15.jpg,AMNE14.jpg,AMSA01.jpg,AMNE15.jpg,MN,1,num_6,32,num_8,0.600249086739,,,2017_Aug_01_1627,59.9834352003,MAFE4ImagesEEG,001,101090,
AFNE01.JPG,AFNE01.JPG,AFNE01.JPG,AFNE01.JPG,AFNE01.JPG,AFNE01.JPG,0,9,9,6,,,,,,,,,,,,,,,,,,,,,,,AMSA09.jpg,AMNE16.jpg,AMSA01.jpg,AMNE04.jpg,AMSA09.jpg,MS,2,num_8,32,num_2,1.25010512257,,,2017_Aug_01_1627,59.9834352003,MAFE4ImagesEEG,001,101090,
AFNE01.JPG,AFNE01.JPG,AFNE01.JPG,AFNE01.JPG,AFNE01.JPG,AFNE01.JPG,1,0,10,4,,,,,,,,,,,,,,,,,,,,,,,AMNE06.jpg,AMSA04.jpg,AMSA09.jpg,AMNE17.jpg,AMSA09.jpg,MS,2,num_2,32,num_6,0.766776392004,,,2017_Aug_01_1627,59.9834352003,MAFE4ImagesEEG,001,101090,
AFNE01.JPG,AFNE01.JPG,AFNE01.JPG,AFNE01.JPG,AFNE01.JPG,AFNE01.JPG,1,1,11,8,,,,,,,,,,,,,,,,,,,,,,,AMSA15.jpg,AMSA05.jpg,AMNE13.jpg,AMNE20.jpg,AMNE13.jpg,MN,1,num_2,32,num_4,0.900130509166,,,2017_Aug_01_1627,59.9834352003,MAFE4ImagesEEG,001,101090,
AFNE01.JPG,AFNE01.JPG,AFNE01.JPG,AFNE01.JPG,AFNE01.JPG,AFNE01.JPG,1,2,12,2,,,,,,,,,,,,,,,,,,,,,,,AMSA14.jpg,AMNE15.jpg,AMSA19.jpg,AMNE13.jpg,AMSA19.jpg,MS,2,num_2,32,num_8,0.683536634315,,,2017_Aug_01_1627,59.9834352003,MAFE4ImagesEEG,001,101090,
AFNE01.JPG,AFNE01.JPG,AFNE01.JPG,AFNE01.JPG,AFNE01.JPG,AFNE01.JPG,1,3,13,9,,,,,,,,,,,,,,,,,,,,,,,AMSA17.jpg,AMSA02.jpg,AMNE15.jpg,AMNE14.jpg,AMNE14.jpg,MN,1,num_4,16,num_4,0.666847884888,,,2017_Aug_01_1627,59.9834352003,MAFE4ImagesEEG,001,101090,
AFNE01.JPG,AFNE01.JPG,AFNE01.JPG,AFNE01.JPG,AFNE01.JPG,AFNE01.JPG,1,4,14,7,,,,,,,,,,,,,,,,,,,,,,,AMSA01.jpg,AMNE13.jpg,AMSA19.jpg,AMNE11.jpg,AMSA19.jpg,MS,2,num_2,32,num_4,0.716809893027,,,2017_Aug_01_1627,59.9834352003,MAFE4ImagesEEG,001,101090,
AFNE01.JPG,AFNE01.JPG,AFNE01.JPG,AFNE01.JPG,AFNE01.JPG,AFNE01.JPG,1,5,15,3,,,,,,,,,,,,,,,,,,,,,,,AMSA04.jpg,AMSA15.jpg,AMNE16.jpg,AMNE17.jpg,AMNE16.jpg,MN,1,num_2,32,num_4,0.616855085595,,,2017_Aug_01_1627,59.9834352003,MAFE4ImagesEEG,001,101090,
AFNE01.JPG,AFNE01.JPG,AFNE01.JPG,AFNE01.JPG,AFNE01.JPG,AFNE01.JPG,1,6,16,1,,,,,,,,,,,,,,,,,,,,,,,AMSA08.jpg,AMNE13.jpg,AMNE14.jpg,AMSA13.jpg,AMSA13.jpg,MS,2,num_4,32,num_8,1.5500705787,,,2017_Aug_01_1627,59.9834352003,MAFE4ImagesEEG,001,101090,
AFNE01.JPG,AFNE01.JPG,AFNE01.JPG,AFNE01.JPG,AFNE01.JPG,AFNE01.JPG,1,7,17,6,,,,,,,,,,,,,,,,,,,,,,,AMNE17.jpg,AMNE18.jpg,AMSA12.jpg,AMSA16.jpg,AMNE17.jpg,MN,1,num_8,32,num_6,1.35015230346,,,2017_Aug_01_1627,59.9834352003,MAFE4ImagesEEG,001,101090,
AFNE01.JPG,AFNE01.JPG,AFNE01.JPG,AFNE01.JPG,AFNE01.JPG,AFNE01.JPG,1,8,18,0,,,,,,,,,,,,,,,,,,,,,,,AMSA02.jpg,AMNE15.jpg,AMNE05.jpg,AMSA20.jpg,AMNE15.jpg,MN,1,num_6,32,num_2,1.13345162245,,,2017_Aug_01_1627,59.9834352003,MAFE4ImagesEEG,001,101090,
AFNE01.JPG,AFNE01.JPG,AFNE01.JPG,AFNE01.JPG,AFNE01.JPG,AFNE01.JPG,1,9,19,5,,,,,,,,,,,,,,,,,,,,,,,AMNE18.jpg,AMNE09.jpg,AMSA06.jpg,AMSA04.jpg,AMSA06.jpg,MS,2,num_2,32,num_4,2.05003449554,,,2017_Aug_01_1627,59.9834352003,MAFE4ImagesEEG,001,101090,
AFNE01.JPG,AFNE01.JPG,AFNE01.JPG,AFNE01.JPG,AFNE01.JPG,AFNE01.JPG,2,0,20,9,,,,,,,,,,,,,,,,,,,,,,,AMNE19.jpg,AMNE20.jpg,AMSA05.jpg,AMSA02.jpg,AMNE20.jpg,MN,1,num_6,32,num_8,0.633442160441,,,2017_Aug_01_1627,59.9834352003,MAFE4ImagesEEG,001,101090,
AFNE01.JPG,AFNE01.JPG,AFNE01.JPG,AFNE01.JPG,AFNE01.JPG,AFNE01.JPG,2,1,21,4,,,,,,,,,,,,,,,,,,,,,,,AMSA18.jpg,AMNE19.jpg,AMNE16.jpg,AMSA02.jpg,AMSA02.jpg,MS,2,num_4,16,num_4,0.633476158837,,,2017_Aug_01_1627,59.9834352003,MAFE4ImagesEEG,001,101090,
AFNE01.JPG,AFNE01.JPG,AFNE01.JPG,AFNE01.JPG,AFNE01.JPG,AFNE01.JPG,2,2,22,8,,,,,,,,,,,,,,,,,,,,,,,AMSA14.jpg,AMNE02.jpg,AMSA07.jpg,AMNE03.jpg,AMNE03.jpg,MN,1,num_4,32,num_8,0.600157675799,,,2017_Aug_01_1627,59.9834352003,MAFE4ImagesEEG,001,101090,
AFNE01.JPG,AFNE01.JPG,AFNE01.JPG,AFNE01.JPG,AFNE01.JPG,AFNE01.JPG,2,3,23,3,,,,,,,,,,,,,,,,,,,,,,,AMNE05.jpg,AMSA10.jpg,AMSA15.jpg,AMNE14.jpg,AMNE05.jpg,MN,1,num_8,32,num_6,0.633530043298,,,2017_Aug_01_1627,59.9834352003,MAFE4ImagesEEG,001,101090,
AFNE01.JPG,AFNE01.JPG,AFNE01.JPG,AFNE01.JPG,AFNE01.JPG,AFNE01.JPG,2,4,24,5,,,,,,,,,,,,,,,,,,,,,,,AMNE12.jpg,AMSA18.jpg,AMNE08.jpg,AMSA16.jpg,AMSA16.jpg,MS,2,num_4,32,num_8,0.600167297991,,,2017_Aug_01_1627,59.9834352003,MAFE4ImagesEEG,001,101090,
AFNE01.JPG,AFNE01.JPG,AFNE01.JPG,AFNE01.JPG,AFNE01.JPG,AFNE01.JPG,2,5,25,1,,,,,,,,,,,,,,,,,,,,,,,AMNE07.jpg,AMSA18.jpg,AMSA08.jpg,AMNE06.jpg,AMSA08.jpg,MS,2,num_2,16,num_2,1.75009918888,,,2017_Aug_01_1627,59.9834352003,MAFE4ImagesEEG,001,101090,
AFNE01.JPG,AFNE01.JPG,AFNE01.JPG,AFNE01.JPG,AFNE01.JPG,AFNE01.JPG,2,6,26,7,,,,,,,,,,,,,,,,,,,,,,,AMNE14.jpg,AMSA15.jpg,AMNE13.jpg,AMSA07.jpg,AMSA15.jpg,MS,2,num_6,32,num_4,1.01677887747,,,2017_Aug_01_1627,59.9834352003,MAFE4ImagesEEG,001,101090,
AFNE01.JPG,AFNE01.JPG,AFNE01.JPG,AFNE01.JPG,AFNE01.JPG,AFNE01.JPG,2,7,27,6,,,,,,,,,,,,,,,,,,,,,,,AMNE16.jpg,AMNE09.jpg,AMSA04.jpg,AMSA02.jpg,AMNE16.jpg,MN,1,num_8,32,num_6,0.950100215152,,,2017_Aug_01_1627,59.9834352003,MAFE4ImagesEEG,001,101090,
AFNE01.JPG,AFNE01.JPG,AFNE01.JPG,AFNE01.JPG,AFNE01.JPG,AFNE01.JPG,2,8,28,0,,,,,,,,,,,,,,,,,,,,,,,AMNE05.jpg,AMSA11.jpg,AMSA20.jpg,AMNE11.jpg,AMSA11.jpg,MS,2,num_6,16,num_6,0.616808257299,,,2017_Aug_01_1627,59.9834352003,MAFE4ImagesEEG,001,101090,
AFNE01.JPG,AFNE01.JPG,AFNE01.JPG,AFNE01.JPG,AFNE01.JPG,AFNE01.JPG,2,9,29,2,,,,,,,,,,,,,,,,,,,,,,,AMSA06.jpg,AMNE03.jpg,AMNE07.jpg,AMSA10.jpg,AMNE03.jpg,MN,1,num_6,32,num_2,1.38344448572,,,2017_Aug_01_1627,59.9834352003,MAFE4ImagesEEG,001,101090,
AFNE01.JPG,AFNE01.JPG,AFNE01.JPG,AFNE01.JPG,AFNE01.JPG,AFNE01.JPG,3,0,30,8,,,,,,,,,,,,,,,,,,,,,,,AMSA19.jpg,AMSA02.jpg,AMNE17.jpg,AMNE11.jpg,AMNE17.jpg,MN,1,num_2,32,num_4,1.00017961441,,,2017_Aug_01_1627,59.9834352003,MAFE4ImagesEEG,001,101090,
AFNE01.JPG,AFNE01.JPG,AFNE01.JPG,AFNE01.JPG,AFNE01.JPG,AFNE01.JPG,3,1,31,9,,,,,,,,,,,,,,,,,,,,,,,AMSA08.jpg,AMSA12.jpg,AMNE16.jpg,AMNE05.jpg,AMNE05.jpg,MN,1,num_4,32,num_2,1.61668958352,,,2017_Aug_01_1627,59.9834352003,MAFE4ImagesEEG,001,101090,
AFNE01.JPG,AFNE01.JPG,AFNE01.JPG,AFNE01.JPG,AFNE01.JPG,AFNE01.JPG,3,2,32,1,,,,,,,,,,,,,,,,,,,,,,,AMNE06.jpg,AMNE05.jpg,AMSA02.jpg,AMSA19.jpg,AMNE06.jpg,MN,1,num_8,16,num_8,0.683528616093,,,2017_Aug_01_1627,59.9834352003,MAFE4ImagesEEG,001,101090,
AFNE01.JPG,AFNE01.JPG,AFNE01.JPG,AFNE01.JPG,AFNE01.JPG,AFNE01.JPG,3,3,33,0,,,,,,,,,,,,,,,,,,,,,,,AMNE20.jpg,AMNE08.jpg,AMSA02.jpg,AMSA05.jpg,AMSA02.jpg,MS,2,num_2,32,num_4,0.900006703334,,,2017_Aug_01_1627,59.9834352003,MAFE4ImagesEEG,001,101090,
AFNE01.JPG,AFNE01.JPG,AFNE01.JPG,AFNE01.JPG,AFNE01.JPG,AFNE01.JPG,3,4,34,4,,,,,,,,,,,,,,,,,,,,,,,AMSA05.jpg,AMNE06.jpg,AMNE03.jpg,AMSA09.jpg,AMNE03.jpg,MN,1,num_2,16,num_2,0.750147620682,,,2017_Aug_01_1627,59.9834352003,MAFE4ImagesEEG,001,101090,
AFNE01.JPG,AFNE01.JPG,AFNE01.JPG,AFNE01.JPG,AFNE01.JPG,AFNE01.JPG,3,5,35,7,,,,,,,,,,,,,,,,,,,,,,,AMNE02.jpg,AMSA06.jpg,AMNE20.jpg,AMSA18.jpg,AMNE02.jpg,MN,1,num_8,16,num_8,0.55020079948,,,2017_Aug_01_1627,59.9834352003,MAFE4ImagesEEG,001,101090,
AFNE01.JPG,AFNE01.JPG,AFNE01.JPG,AFNE01.JPG,AFNE01.JPG,AFNE01.JPG,3,6,36,3,,,,,,,,,,,,,,,,,,,,,,,AMNE20.jpg,AMSA10.jpg,AMSA15.jpg,AMNE02.jpg,AMSA15.jpg,MS,2,num_2,32,num_6,0.783662075875,,,2017_Aug_01_1627,59.9834352003,MAFE4ImagesEEG,001,101090,
AFNE01.JPG,AFNE01.JPG,AFNE01.JPG,AFNE01.JPG,AFNE01.JPG,AFNE01.JPG,3,7,37,2,,,,,,,,,,,,,,,,,,,,,,,AMSA17.jpg,AMSA19.jpg,AMNE08.jpg,AMNE15.jpg,AMNE08.jpg,MN,1,num_2,32,num_4,0.650177738164,,,2017_Aug_01_1627,59.9834352003,MAFE4ImagesEEG,001,101090,
AFNE01.JPG,AFNE01.JPG,AFNE01.JPG,AFNE01.JPG,AFNE01.JPG,AFNE01.JPG,3,8,38,6,,,,,,,,,,,,,,,,,,,,,,,AMSA14.jpg,AMNE08.jpg,AMNE14.jpg,AMSA09.jpg,AMNE14.jpg,MN,1,num_2,32,num_8,0.783485668711,,,2017_Aug_01_1627,59.9834352003,MAFE4ImagesEEG,001,101090,
AFNE01.JPG,AFNE01.JPG,AFNE01.JPG,AFNE01.JPG,AFNE01.JPG,AFNE01.JPG,3,9,39,5,,,,,,,,,,,,,,,,,,,,,,,AMSA20.jpg,AMNE18.jpg,AMSA08.jpg,AMNE12.jpg,AMSA20.jpg,MS,2,num_8,32,num_2,0.700165084796,,,2017_Aug_01_1627,59.9834352003,MAFE4ImagesEEG,001,101090,
AFNE01.JPG,AFNE01.JPG,AFNE01.JPG,AFNE01.JPG,AFNE01.JPG,AFNE01.JPG,4,0,40,8,,,,,,,,,,,,,,,,,,,,,,,AMNE10.jpg,AMSA06.jpg,AMNE04.jpg,AMSA09.jpg,AMSA09.jpg,MS,2,num_4,32,num_8,0.800152929034,,,2017_Aug_01_1627,59.9834352003,MAFE4ImagesEEG,001,101090,
AFNE01.JPG,AFNE01.JPG,AFNE01.JPG,AFNE01.JPG,AFNE01.JPG,AFNE01.JPG,4,1,41,4,,,,,,,,,,,,,,,,,,,,,,,AMSA12.jpg,AMNE19.jpg,AMNE02.jpg,AMSA18.jpg,AMNE19.jpg,MN,1,num_6,32,num_8,0.750127093401,,,2017_Aug_01_1627,59.9834352003,MAFE4ImagesEEG,001,101090,
AFNE01.JPG,AFNE01.JPG,AFNE01.JPG,AFNE01.JPG,AFNE01.JPG,AFNE01.JPG,4,2,42,9,,,,,,,,,,,,,,,,,,,,,,,AMNE12.jpg,AMSA03.jpg,AMNE17.jpg,AMSA05.jpg,AMNE12.jpg,MN,1,num_8,32,num_4,0.833507334813,,,2017_Aug_01_1627,59.9834352003,MAFE4ImagesEEG,001,101090,
AFNE01.JPG,AFNE01.JPG,AFNE01.JPG,AFNE01.JPG,AFNE01.JPG,AFNE01.JPG,4,3,43,1,,,,,,,,,,,,,,,,,,,,,,,AMNE13.jpg,AMSA05.jpg,AMNE04.jpg,AMSA06.jpg,AMNE13.jpg,MN,1,num_8,16,num_8,0.533488635672,,,2017_Aug_01_1627,59.9834352003,MAFE4ImagesEEG,001,101090,
AFNE01.JPG,AFNE01.JPG,AFNE01.JPG,AFNE01.JPG,AFNE01.JPG,AFNE01.JPG,4,4,44,5,,,,,,,,,,,,,,,,,,,,,,,AMNE15.jpg,AMNE12.jpg,AMSA20.jpg,AMSA06.jpg,AMNE12.jpg,MN,1,num_6,32,num_8,0.750174242072,,,2017_Aug_01_1627,59.9834352003,MAFE4ImagesEEG,001,101090,
AFNE01.JPG,AFNE01.JPG,AFNE01.JPG,AFNE01.JPG,AFNE01.JPG,AFNE01.JPG,4,5,45,6,,,,,,,,,,,,,,,,,,,,,,,AMNE01.jpg,AMSA20.jpg,AMSA18.jpg,AMNE08.jpg,AMNE08.jpg,MN,1,num_4,32,num_6,1.00014144648,,,2017_Aug_01_1627,59.9834352003,MAFE4ImagesEEG,001,101090,
AFNE01.JPG,AFNE01.JPG,AFNE01.JPG,AFNE01.JPG,AFNE01.JPG,AFNE01.JPG,4,6,46,3,,,,,,,,,,,,,,,,,,,,,,,AMSA12.jpg,AMSA16.jpg,AMNE18.jpg,AMNE09.jpg,AMSA12.jpg,MS,2,num_8,32,num_2,1.15015640878,,,2017_Aug_01_1627,59.9834352003,MAFE4ImagesEEG,001,101090,
AFNE01.JPG,AFNE01.JPG,AFNE01.JPG,AFNE01.JPG,AFNE01.JPG,AFNE01.JPG,4,7,47,7,,,,,,,,,,,,,,,,,,,,,,,AMNE01.jpg,AMSA01.jpg,AMSA15.jpg,AMNE05.jpg,AMNE05.jpg,MN,1,num_4,16,num_4,0.733481322881,,,2017_Aug_01_1627,59.9834352003,MAFE4ImagesEEG,001,101090,
AFNE01.JPG,AFNE01.JPG,AFNE01.JPG,AFNE01.JPG,AFNE01.JPG,AFNE01.JPG,4,8,48,0,,,,,,,,,,,,,,,,,,,,,,,AMSA06.jpg,AMSA04.jpg,AMNE17.jpg,AMNE10.jpg,AMNE17.jpg,MN,1,num_2,32,num_8,0.816785869887,,,2017_Aug_01_1627,59.9834352003,MAFE4ImagesEEG,001,101090,
AFNE01.JPG,AFNE01.JPG,AFNE01.JPG,AFNE01.JPG,AFNE01.JPG,AFNE01.JPG,4,9,49,2,,,,,,,,,,,,,,,,,,,,,,,AMNE19.jpg,AMSA09.jpg,AMNE08.jpg,AMSA15.jpg,AMNE19.jpg,MN,1,num_8,32,num_2,0.750150828157,,,2017_Aug_01_1627,59.9834352003,MAFE4ImagesEEG,001,101090,
AFNE01.JPG,AFNE01.JPG,AFNE01.JPG,AFNE01.JPG,AFNE01.JPG,AFNE01.JPG,5,0,50,0,,,,,,,,,,,,,,,,,,,,,,,AMNE03.jpg,AMSA14.jpg,AMNE18.jpg,AMSA18.jpg,AMSA18.jpg,MS,2,num_4,16,num_4,1.83343228162,,,2017_Aug_01_1627,59.9834352003,MAFE4ImagesEEG,001,101090,
AFNE01.JPG,AFNE01.JPG,AFNE01.JPG,AFNE01.JPG,AFNE01.JPG,AFNE01.JPG,5,1,51,4,,,,,,,,,,,,,,,,,,,,,,,AMNE20.jpg,AMNE15.jpg,AMSA09.jpg,AMSA06.jpg,AMNE15.jpg,MN,1,num_6,32,num_8,0.833532673307,,,2017_Aug_01_1627,59.9834352003,MAFE4ImagesEEG,001,101090,
AFNE01.JPG,AFNE01.JPG,AFNE01.JPG,AFNE01.JPG,AFNE01.JPG,AFNE01.JPG,5,2,52,6,,,,,,,,,,,,,,,,,,,,,,,AMNE07.jpg,AMNE09.jpg,AMSA09.jpg,AMSA12.jpg,AMNE07.jpg,MN,1,num_8,32,num_4,0.666772510856,,,2017_Aug_01_1627,59.9834352003,MAFE4ImagesEEG,001,101090,
AFNE01.JPG,AFNE01.JPG,AFNE01.JPG,AFNE01.JPG,AFNE01.JPG,AFNE01.JPG,5,3,53,9,,,,,,,,,,,,,,,,,,,,,,,AMNE02.jpg,AMSA09.jpg,AMNE08.jpg,AMSA01.jpg,AMSA09.jpg,MS,2,num_6,16,num_6,0.600152543979,,,2017_Aug_01_1627,59.9834352003,MAFE4ImagesEEG,001,101090,
AFNE01.JPG,AFNE01.JPG,AFNE01.JPG,AFNE01.JPG,AFNE01.JPG,AFNE01.JPG,5,4,54,8,,,,,,,,,,,,,,,,,,,,,,,AMSA17.jpg,AMNE04.jpg,AMNE12.jpg,AMSA12.jpg,AMNE04.jpg,MN,1,num_6,32,num_4,1.71672970825,,,2017_Aug_01_1627,59.9834352003,MAFE4ImagesEEG,001,101090,
AFNE01.JPG,AFNE01.JPG,AFNE01.JPG,AFNE01.JPG,AFNE01.JPG,AFNE01.JPG,5,5,55,3,,,,,,,,,,,,,,,,,,,,,,,AMNE03.jpg,AMSA17.jpg,AMSA03.jpg,AMNE11.jpg,AMNE03.jpg,MN,1,num_8,32,num_2,0.733500888105,,,2017_Aug_01_1627,59.9834352003,MAFE4ImagesEEG,001,101090,
AFNE01.JPG,AFNE01.JPG,AFNE01.JPG,AFNE01.JPG,AFNE01.JPG,AFNE01.JPG,5,6,56,5,,,,,,,,,,,,,,,,,,,,,,,AMNE10.jpg,AMNE19.jpg,AMSA13.jpg,AMSA16.jpg,AMNE19.jpg,MN,1,num_6,32,num_8,1.08345561568,,,2017_Aug_01_1627,59.9834352003,MAFE4ImagesEEG,001,101090,
AFNE01.JPG,AFNE01.JPG,AFNE01.JPG,AFNE01.JPG,AFNE01.JPG,AFNE01.JPG,5,7,57,2,,,,,,,,,,,,,,,,,,,,,,,AMSA02.jpg,AMSA05.jpg,AMNE06.jpg,AMNE09.jpg,AMSA02.jpg,MS,2,num_8,32,num_6,0.666825112421,,,2017_Aug_01_1627,59.9834352003,MAFE4ImagesEEG,001,101090,
AFNE01.JPG,AFNE01.JPG,AFNE01.JPG,AFNE01.JPG,AFNE01.JPG,AFNE01.JPG,5,8,58,7,,,,,,,,,,,,,,,,,,,,,,,AMSA03.jpg,AMNE19.jpg,AMNE11.jpg,AMSA06.jpg,AMNE19.jpg,MN,1,num_6,32,num_8,0.583543017274,,,2017_Aug_01_1627,59.9834352003,MAFE4ImagesEEG,001,101090,
AFNE01.JPG,AFNE01.JPG,AFNE01.JPG,AFNE01.JPG,AFNE01.JPG,AFNE01.JPG,5,9,59,1,,,,,,,,,,,,,,,,,,,,,,,AMSA20.jpg,AMNE16.jpg,AMNE06.jpg,AMSA14.jpg,AMNE16.jpg,MN,1,num_6,32,num_4,2.93335565692,,,2017_Aug_01_1627,59.9834352003,MAFE4ImagesEEG,001,101090,
,,,,,,,,,,,,,,,,,,,,,,,,,,,,,,,,,,,,,,,,,,,space,25.2486178507,2017_Aug_01_1627,59.9834352003,MAFE4ImagesEEG,001,101090,
AFNE01.JPG,AFNE01.JPG,AFNE01.JPG,AFNE01.JPG,AFNE01.JPG,AFNE01.JPG,,,,,0,0,0,4,,,,,,,,,,,,,,,,,,,AFSA18.jpg,AFNE12.jpg,AFSA07.jpg,AFNE19.jpg,AFNE12.jpg,FN,3,num_6,32,num_8,2.23334709322,,,2017_Aug_01_1627,59.9834352003,MAFE4ImagesEEG,001,101090,
AFNE01.JPG,AFNE01.JPG,AFNE01.JPG,AFNE01.JPG,AFNE01.JPG,AFNE01.JPG,,,,,0,1,1,1,,,,,,,,,,,,,,,,,,,AFNE03.jpg,AFNE12.jpg,AFSA15.jpg,AFSA08.jpg,AFNE03.jpg,FN,3,num_8,32,num_4,1.63340944494,,,2017_Aug_01_1627,59.9834352003,MAFE4ImagesEEG,001,101090,
AFNE01.JPG,AFNE01.JPG,AFNE01.JPG,AFNE01.JPG,AFNE01.JPG,AFNE01.JPG,,,,,0,2,2,3,,,,,,,,,,,,,,,,,,,AFSA01.jpg,AFSA12.jpg,AFNE18.jpg,AFNE14.jpg,AFSA01.jpg,FS,4,num_8,32,num_6,0.700149368728,,,2017_Aug_01_1627,59.9834352003,MAFE4ImagesEEG,001,101090,
AFNE01.JPG,AFNE01.JPG,AFNE01.JPG,AFNE01.JPG,AFNE01.JPG,AFNE01.JPG,,,,,0,3,3,7,,,,,,,,,,,,,,,,,,,AFSA03.jpg,AFNE05.jpg,AFNE04.jpg,AFSA15.jpg,AFNE05.jpg,FN,3,num_6,32,num_8,0.800108345924,,,2017_Aug_01_1627,59.9834352003,MAFE4ImagesEEG,001,101090,
AFNE01.JPG,AFNE01.JPG,AFNE01.JPG,AFNE01.JPG,AFNE01.JPG,AFNE01.JPG,,,,,0,4,4,0,,,,,,,,,,,,,,,,,,,AFNE20.jpg,AFNE15.jpg,AFSA13.jpg,AFSA19.jpg,AFNE15.jpg,FN,3,num_6,32,num_8,0.916793278884,,,2017_Aug_01_1627,59.9834352003,MAFE4ImagesEEG,001,101090,
AFNE01.JPG,AFNE01.JPG,AFNE01.JPG,AFNE01.JPG,AFNE01.JPG,AFNE01.JPG,,,,,0,5,5,2,,,,,,,,,,,,,,,,,,,AFSA15.jpg,AFSA12.jpg,AFNE14.jpg,AFNE11.jpg,AFSA15.jpg,FS,4,num_8,32,num_6,0.933329035295,,,2017_Aug_01_1627,59.9834352003,MAFE4ImagesEEG,001,101090,
AFNE01.JPG,AFNE01.JPG,AFNE01.JPG,AFNE01.JPG,AFNE01.JPG,AFNE01.JPG,,,,,0,6,6,6,,,,,,,,,,,,,,,,,,,AFNE10.jpg,AFSA13.jpg,AFNE19.jpg,AFSA07.jpg,AFSA13.jpg,FS,4,num_6,16,num_6,1.68338332069,,,2017_Aug_01_1627,59.9834352003,MAFE4ImagesEEG,001,101090,
AFNE01.JPG,AFNE01.JPG,AFNE01.JPG,AFNE01.JPG,AFNE01.JPG,AFNE01.JPG,,,,,0,7,7,9,,,,,,,,,,,,,,,,,,,AFSA05.jpg,AFNE02.jpg,AFSA18.jpg,AFNE05.jpg,AFSA05.jpg,FS,4,num_8,16,num_8,1.18353807786,,,2017_Aug_01_1627,59.9834352003,MAFE4ImagesEEG,001,101090,
AFNE01.JPG,AFNE01.JPG,AFNE01.JPG,AFNE01.JPG,AFNE01.JPG,AFNE01.JPG,,,,,0,8,8,5,,,,,,,,,,,,,,,,,,,AFNE18.jpg,AFSA10.jpg,AFSA16.jpg,AFNE16.jpg,AFNE16.jpg,FN,3,num_4,32,num_6,1.2834319449,,,2017_Aug_01_1627,59.9834352003,MAFE4ImagesEEG,001,101090,
AFNE01.JPG,AFNE01.JPG,AFNE01.JPG,AFNE01.JPG,AFNE01.JPG,AFNE01.JPG,,,,,0,9,9,8,,,,,,,,,,,,,,,,,,,AFSA09.jpg,AFNE09.jpg,AFNE05.jpg,AFSA15.jpg,AFNE09.jpg,FN,3,num_6,16,num_6,0.650177096482,,,2017_Aug_01_1627,59.9834352003,MAFE4ImagesEEG,001,101090,
AFNE01.JPG,AFNE01.JPG,AFNE01.JPG,AFNE01.JPG,AFNE01.JPG,AFNE01.JPG,,,,,1,0,10,3,,,,,,,,,,,,,,,,,,,AFSA15.jpg,AFNE08.jpg,AFSA03.jpg,AFNE16.jpg,AFNE08.jpg,FN,3,num_6,32,num_8,1.36662294972,,,2017_Aug_01_1627,59.9834352003,MAFE4ImagesEEG,001,101090,
AFNE01.JPG,AFNE01.JPG,AFNE01.JPG,AFNE01.JPG,AFNE01.JPG,AFNE01.JPG,,,,,1,1,11,0,,,,,,,,,,,,,,,,,,,AFNE12.jpg,AFNE20.jpg,AFSA19.jpg,AFSA02.jpg,AFSA19.jpg,FS,4,num_2,16,num_2,2.01665378874,,,2017_Aug_01_1627,59.9834352003,MAFE4ImagesEEG,001,101090,
AFNE01.JPG,AFNE01.JPG,AFNE01.JPG,AFNE01.JPG,AFNE01.JPG,AFNE01.JPG,,,,,1,2,12,9,,,,,,,,,,,,,,,,,,,AFSA17.jpg,AFNE10.jpg,AFSA02.jpg,AFNE04.jpg,AFSA02.jpg,FS,4,num_2,16,num_2,1.38352659531,,,2017_Aug_01_1627,59.9834352003,MAFE4ImagesEEG,001,101090,
AFNE01.JPG,AFNE01.JPG,AFNE01.JPG,AFNE01.JPG,AFNE01.JPG,AFNE01.JPG,,,,,1,3,13,5,,,,,,,,,,,,,,,,,,,AFSA03.jpg,AFSA18.jpg,AFNE05.jpg,AFNE19.jpg,AFNE05.jpg,FN,3,num_2,16,num_2,1.8497646891,,,2017_Aug_01_1627,59.9834352003,MAFE4ImagesEEG,001,101090,
AFNE01.JPG,AFNE01.JPG,AFNE01.JPG,AFNE01.JPG,AFNE01.JPG,AFNE01.JPG,,,,,1,4,14,8,,,,,,,,,,,,,,,,,,,AFSA13.jpg,AFSA10.jpg,AFNE20.jpg,AFNE05.jpg,AFSA10.jpg,FS,4,num_6,16,num_6,0.716854155296,,,2017_Aug_01_1627,59.9834352003,MAFE4ImagesEEG,001,101090,
AFNE01.JPG,AFNE01.JPG,AFNE01.JPG,AFNE01.JPG,AFNE01.JPG,AFNE01.JPG,,,,,1,5,15,4,,,,,,,,,,,,,,,,,,,AFNE07.jpg,AFNE19.jpg,AFSA07.jpg,AFSA14.jpg,AFNE19.jpg,FN,3,num_6,32,num_4,1.10013089399,,,2017_Aug_01_1627,59.9834352003,MAFE4ImagesEEG,001,101090,
AFNE01.JPG,AFNE01.JPG,AFNE01.JPG,AFNE01.JPG,AFNE01.JPG,AFNE01.JPG,,,,,1,6,16,7,,,,,,,,,,,,,,,,,,,AFSA18.jpg,AFNE08.jpg,AFNE20.jpg,AFSA19.jpg,AFNE08.jpg,FN,3,num_6,16,num_6,0.700192989316,,,2017_Aug_01_1627,59.9834352003,MAFE4ImagesEEG,001,101090,
AFNE01.JPG,AFNE01.JPG,AFNE01.JPG,AFNE01.JPG,AFNE01.JPG,AFNE01.JPG,,,,,1,7,17,1,,,,,,,,,,,,,,,,,,,AFNE16.jpg,AFNE12.jpg,AFSA10.jpg,AFSA20.jpg,AFSA10.jpg,FS,4,num_2,32,num_8,0.76683701179,,,2017_Aug_01_1627,59.9834352003,MAFE4ImagesEEG,001,101090,
AFNE01.JPG,AFNE01.JPG,AFNE01.JPG,AFNE01.JPG,AFNE01.JPG,AFNE01.JPG,,,,,1,8,18,6,,,,,,,,,,,,,,,,,,,AFSA06.jpg,AFSA20.jpg,AFNE15.jpg,AFNE08.jpg,AFSA20.jpg,FS,4,num_6,32,num_2,0.666656082263,,,2017_Aug_01_1627,59.9834352003,MAFE4ImagesEEG,001,101090,
AFNE01.JPG,AFNE01.JPG,AFNE01.JPG,AFNE01.JPG,AFNE01.JPG,AFNE01.JPG,,,,,1,9,19,2,,,,,,,,,,,,,,,,,,,AFNE06.jpg,AFSA17.jpg,AFNE15.jpg,AFSA15.jpg,AFSA17.jpg,FS,4,num_6,32,num_4,1.01675482211,,,2017_Aug_01_1627,59.9834352003,MAFE4ImagesEEG,001,101090,
AFNE01.JPG,AFNE01.JPG,AFNE01.JPG,AFNE01.JPG,AFNE01.JPG,AFNE01.JPG,,,,,2,0,20,6,,,,,,,,,,,,,,,,,,,AFSA14.jpg,AFNE01.jpg,AFSA05.jpg,AFNE13.jpg,AFNE01.jpg,FN,3,num_6,16,num_6,0.83347205352,,,2017_Aug_01_1627,59.9834352003,MAFE4ImagesEEG,001,101090,
AFNE01.JPG,AFNE01.JPG,AFNE01.JPG,AFNE01.JPG,AFNE01.JPG,AFNE01.JPG,,,,,2,1,21,3,,,,,,,,,,,,,,,,,,,AFSA12.jpg,AFNE20.jpg,AFNE02.jpg,AFSA01.jpg,AFSA01.jpg,FS,4,num_4,16,num_4,0.700133652426,,,2017_Aug_01_1627,59.9834352003,MAFE4ImagesEEG,001,101090,
AFNE01.JPG,AFNE01.JPG,AFNE01.JPG,AFNE01.JPG,AFNE01.JPG,AFNE01.JPG,,,,,2,2,22,8,,,,,,,,,,,,,,,,,,,AFSA01.jpg,AFNE11.jpg,AFSA03.jpg,AFNE04.jpg,AFNE11.jpg,FN,3,num_6,32,num_4,1.58340862719,,,2017_Aug_01_1627,59.9834352003,MAFE4ImagesEEG,001,101090,
AFNE01.JPG,AFNE01.JPG,AFNE01.JPG,AFNE01.JPG,AFNE01.JPG,AFNE01.JPG,,,,,2,3,23,4,,,,,,,,,,,,,,,,,,,AFNE11.jpg,AFSA15.jpg,AFSA07.jpg,AFNE15.jpg,AFSA15.jpg,FS,4,num_6,32,num_4,1.26672876207,,,2017_Aug_01_1627,59.9834352003,MAFE4ImagesEEG,001,101090,
AFNE01.JPG,AFNE01.JPG,AFNE01.JPG,AFNE01.JPG,AFNE01.JPG,AFNE01.JPG,,,,,2,4,24,2,,,,,,,,,,,,,,,,,,,AFSA09.jpg,AFNE03.jpg,AFSA07.jpg,AFNE09.jpg,AFSA09.jpg,FS,4,num_8,32,num_6,0.883162074257,,,2017_Aug_01_1627,59.9834352003,MAFE4ImagesEEG,001,101090,
AFNE01.JPG,AFNE01.JPG,AFNE01.JPG,AFNE01.JPG,AFNE01.JPG,AFNE01.JPG,,,,,2,5,25,1,,,,,,,,,,,,,,,,,,,AFNE12.jpg,AFNE11.jpg,AFSA01.jpg,AFSA07.jpg,AFSA01.jpg,FS,4,num_2,32,num_8,1.06664562598,,,2017_Aug_01_1627,59.9834352003,MAFE4ImagesEEG,001,101090,
AFNE01.JPG,AFNE01.JPG,AFNE01.JPG,AFNE01.JPG,AFNE01.JPG,AFNE01.JPG,,,,,2,6,26,7,,,,,,,,,,,,,,,,,,,AFNE16.jpg,AFSA06.jpg,AFSA02.jpg,AFNE14.jpg,AFNE14.jpg,FN,3,num_4,32,num_6,1.06680278876,,,2017_Aug_01_1627,59.9834352003,MAFE4ImagesEEG,001,101090,
AFNE01.JPG,AFNE01.JPG,AFNE01.JPG,AFNE01.JPG,AFNE01.JPG,AFNE01.JPG,,,,,2,7,27,5,,,,,,,,,,,,,,,,,,,AFNE03.jpg,AFNE20.jpg,AFSA17.jpg,AFSA05.jpg,AFSA05.jpg,FS,4,num_4,16,num_4,0.866786687635,,,2017_Aug_01_1627,59.9834352003,MAFE4ImagesEEG,001,101090,
AFNE01.JPG,AFNE01.JPG,AFNE01.JPG,AFNE01.JPG,AFNE01.JPG,AFNE01.JPG,,,,,2,8,28,9,,,,,,,,,,,,,,,,,,,AFSA04.jpg,AFNE11.jpg,AFSA16.jpg,AFNE08.jpg,AFNE08.jpg,FN,3,num_4,32,num_6,1.01673140796,,,2017_Aug_01_1627,59.9834352003,MAFE4ImagesEEG,001,101090,
AFNE01.JPG,AFNE01.JPG,AFNE01.JPG,AFNE01.JPG,AFNE01.JPG,AFNE01.JPG,,,,,2,9,29,0,,,,,,,,,,,,,,,,,,,AFSA12.jpg,AFNE10.jpg,AFSA08.jpg,AFNE01.jpg,AFSA08.jpg,FS,4,num_2,32,num_6,1.8667125965,,,2017_Aug_01_1627,59.9834352003,MAFE4ImagesEEG,001,101090,
AFNE01.JPG,AFNE01.JPG,AFNE01.JPG,AFNE01.JPG,AFNE01.JPG,AFNE01.JPG,,,,,3,0,30,8,,,,,,,,,,,,,,,,,,,AFSA04.jpg,AFNE08.jpg,AFNE04.jpg,AFSA14.jpg,AFSA04.jpg,FS,4,num_8,16,num_8,2.06664787116,,,2017_Aug_01_1627,59.9834352003,MAFE4ImagesEEG,001,101090,
AFNE01.JPG,AFNE01.JPG,AFNE01.JPG,AFNE01.JPG,AFNE01.JPG,AFNE01.JPG,,,,,3,1,31,6,,,,,,,,,,,,,,,,,,,AFNE10.jpg,AFSA05.jpg,AFSA13.jpg,AFNE03.jpg,AFNE03.jpg,FN,3,num_4,32,num_6,0.716734840069,,,2017_Aug_01_1627,59.9834352003,MAFE4ImagesEEG,001,101090,
AFNE01.JPG,AFNE01.JPG,AFNE01.JPG,AFNE01.JPG,AFNE01.JPG,AFNE01.JPG,,,,,3,2,32,3,,,,,,,,,,,,,,,,,,,AFSA16.jpg,AFNE05.jpg,AFNE06.jpg,AFSA19.jpg,AFNE06.jpg,FN,3,num_2,32,num_6,0.983489902457,,,2017_Aug_01_1627,59.9834352003,MAFE4ImagesEEG,001,101090,
AFNE01.JPG,AFNE01.JPG,AFNE01.JPG,AFNE01.JPG,AFNE01.JPG,AFNE01.JPG,,,,,3,3,33,0,,,,,,,,,,,,,,,,,,,AFNE09.jpg,AFSA02.jpg,AFSA11.jpg,AFNE11.jpg,AFSA11.jpg,FS,4,num_2,32,num_4,1.23340835446,,,2017_Aug_01_1627,59.9834352003,MAFE4ImagesEEG,001,101090,
AFNE01.JPG,AFNE01.JPG,AFNE01.JPG,AFNE01.JPG,AFNE01.JPG,AFNE01.JPG,,,,,3,4,34,2,,,,,,,,,,,,,,,,,,,AFSA08.jpg,AFNE16.jpg,AFNE05.jpg,AFSA09.jpg,AFSA08.jpg,FS,4,num_8,32,num_6,0.70015899092,,,2017_Aug_01_1627,59.9834352003,MAFE4ImagesEEG,001,101090,
AFNE01.JPG,AFNE01.JPG,AFNE01.JPG,AFNE01.JPG,AFNE01.JPG,AFNE01.JPG,,,,,3,5,35,9,,,,,,,,,,,,,,,,,,,AFSA13.jpg,AFSA06.jpg,AFNE04.jpg,AFNE20.jpg,AFNE04.jpg,FN,3,num_2,16,num_2,2.16671493812,,,2017_Aug_01_1627,59.9834352003,MAFE4ImagesEEG,001,101090,
AFNE01.JPG,AFNE01.JPG,AFNE01.JPG,AFNE01.JPG,AFNE01.JPG,AFNE01.JPG,,,,,3,6,36,4,,,,,,,,,,,,,,,,,,,AFNE20.jpg,AFSA19.jpg,AFSA17.jpg,AFNE06.jpg,AFSA17.jpg,FS,4,num_2,32,num_6,1.16672872985,,,2017_Aug_01_1627,59.9834352003,MAFE4ImagesEEG,001,101090,
AFNE01.JPG,AFNE01.JPG,AFNE01.JPG,AFNE01.JPG,AFNE01.JPG,AFNE01.JPG,,,,,3,7,37,5,,,,,,,,,,,,,,,,,,,AFNE10.jpg,AFNE18.jpg,AFSA11.jpg,AFSA13.jpg,AFNE18.jpg,FN,3,num_6,16,num_6,0.80018051248,,,2017_Aug_01_1627,59.9834352003,MAFE4ImagesEEG,001,101090,
AFNE01.JPG,AFNE01.JPG,AFNE01.JPG,AFNE01.JPG,AFNE01.JPG,AFNE01.JPG,,,,,3,8,38,1,,,,,,,,,,,,,,,,,,,AFSA11.jpg,AFNE20.jpg,AFNE15.jpg,AFSA04.jpg,AFNE15.jpg,FN,3,num_2,16,num_2,0.750132866669,,,2017_Aug_01_1627,59.9834352003,MAFE4ImagesEEG,001,101090,
AFNE01.JPG,AFNE01.JPG,AFNE01.JPG,AFNE01.JPG,AFNE01.JPG,AFNE01.JPG,,,,,3,9,39,7,,,,,,,,,,,,,,,,,,,AFNE08.jpg,AFNE05.jpg,AFSA19.jpg,AFSA13.jpg,AFSA13.jpg,FS,4,num_4,16,num_4,1.23344844696,,,2017_Aug_01_1627,59.9834352003,MAFE4ImagesEEG,001,101090,
AFNE01.JPG,AFNE01.JPG,AFNE01.JPG,AFNE01.JPG,AFNE01.JPG,AFNE01.JPG,,,,,4,0,40,6,,,,,,,,,,,,,,,,,,,AFNE01.jpg,AFSA17.jpg,AFSA19.jpg,AFNE19.jpg,AFNE19.jpg,FN,3,num_4,16,num_4,1.45005515125,,,2017_Aug_01_1627,59.9834352003,MAFE4ImagesEEG,001,101090,
AFNE01.JPG,AFNE01.JPG,AFNE01.JPG,AFNE01.JPG,AFNE01.JPG,AFNE01.JPG,,,,,4,1,41,1,,,,,,,,,,,,,,,,,,,AFSA11.jpg,AFNE07.jpg,AFNE10.jpg,AFSA03.jpg,AFSA11.jpg,FS,4,num_8,32,num_4,1.31679084105,,,2017_Aug_01_1627,59.9834352003,MAFE4ImagesEEG,001,101090,
AFNE01.JPG,AFNE01.JPG,AFNE01.JPG,AFNE01.JPG,AFNE01.JPG,AFNE01.JPG,,,,,4,2,42,4,,,,,,,,,,,,,,,,,,,AFSA19.jpg,AFNE14.jpg,AFSA11.jpg,AFNE19.jpg,AFSA19.jpg,FS,4,num_8,32,num_6,0.716767234728,,,2017_Aug_01_1627,59.9834352003,MAFE4ImagesEEG,001,101090,
AFNE01.JPG,AFNE01.JPG,AFNE01.JPG,AFNE01.JPG,AFNE01.JPG,AFNE01.JPG,,,,,4,3,43,9,,,,,,,,,,,,,,,,,,,AFNE06.jpg,AFSA19.jpg,AFNE10.jpg,AFSA06.jpg,AFNE10.jpg,FN,3,num_2,32,num_4,1.08308163262,,,2017_Aug_01_1627,59.9834352003,MAFE4ImagesEEG,001,101090,
AFNE01.JPG,AFNE01.JPG,AFNE01.JPG,AFNE01.JPG,AFNE01.JPG,AFNE01.JPG,,,,,4,4,44,3,,,,,,,,,,,,,,,,,,,AFNE01.jpg,AFNE08.jpg,AFSA05.jpg,AFSA12.jpg,AFNE01.jpg,FN,3,num_8,32,num_6,0.583475982537,,,2017_Aug_01_1627,59.9834352003,MAFE4ImagesEEG,001,101090,
AFNE01.JPG,AFNE01.JPG,AFNE01.JPG,AFNE01.JPG,AFNE01.JPG,AFNE01.JPG,,,,,4,5,45,2,,,,,,,,,,,,,,,,,,,AFNE09.jpg,AFNE05.jpg,AFSA03.jpg,AFSA06.jpg,AFNE05.jpg,FN,3,num_6,32,num_4,0.616741864244,,,2017_Aug_01_1627,59.9834352003,MAFE4ImagesEEG,001,101090,
AFNE01.JPG,AFNE01.JPG,AFNE01.JPG,AFNE01.JPG,AFNE01.JPG,AFNE01.JPG,,,,,4,6,46,8,,,,,,,,,,,,,,,,,,,AFSA10.jpg,AFNE18.jpg,AFNE03.jpg,AFSA17.jpg,AFNE03.jpg,FN,3,num_2,32,num_6,1.03335344372,,,2017_Aug_01_1627,59.9834352003,MAFE4ImagesEEG,001,101090,
AFNE01.JPG,AFNE01.JPG,AFNE01.JPG,AFNE01.JPG,AFNE01.JPG,AFNE01.JPG,,,,,4,7,47,0,,,,,,,,,,,,,,,,,,,AFSA07.jpg,AFNE08.jpg,AFSA02.jpg,AFNE04.jpg,AFSA02.jpg,FS,4,num_2,16,num_2,0.750128055457,,,2017_Aug_01_1627,59.9834352003,MAFE4ImagesEEG,001,101090,
AFNE01.JPG,AFNE01.JPG,AFNE01.JPG,AFNE01.JPG,AFNE01.JPG,AFNE01.JPG,,,,,4,8,48,7,,,,,,,,,,,,,,,,,,,AFNE18.jpg,AFNE04.jpg,AFSA02.jpg,AFSA06.jpg,AFSA02.jpg,FS,4,num_2,32,num_6,0.583833928453,,,2017_Aug_01_1627,59.9834352003,MAFE4ImagesEEG,001,101090,
AFNE01.JPG,AFNE01.JPG,AFNE01.JPG,AFNE01.JPG,AFNE01.JPG,AFNE01.JPG,,,,,4,9,49,5,,,,,,,,,,,,,,,,,,,AFNE14.jpg,AFNE04.jpg,AFSA15.jpg,AFSA03.jpg,AFSA03.jpg,FS,4,num_4,32,num_6,0.750134791015,,,2017_Aug_01_1627,59.9834352003,MAFE4ImagesEEG,001,101090,
AFNE01.JPG,AFNE01.JPG,AFNE01.JPG,AFNE01.JPG,AFNE01.JPG,AFNE01.JPG,,,,,5,0,50,1,,,,,,,,,,,,,,,,,,,AFNE18.jpg,AFSA01.jpg,AFNE14.jpg,AFSA19.jpg,AFNE18.jpg,FN,3,num_8,32,num_2,1.10012672446,,,2017_Aug_01_1627,59.9834352003,MAFE4ImagesEEG,001,101090,
AFNE01.JPG,AFNE01.JPG,AFNE01.JPG,AFNE01.JPG,AFNE01.JPG,AFNE01.JPG,,,,,5,1,51,3,,,,,,,,,,,,,,,,,,,AFNE20.jpg,AFSA04.jpg,AFSA19.jpg,AFNE16.jpg,AFSA19.jpg,FS,4,num_2,32,num_4,0.700111200567,,,2017_Aug_01_1627,59.9834352003,MAFE4ImagesEEG,001,101090,
AFNE01.JPG,AFNE01.JPG,AFNE01.JPG,AFNE01.JPG,AFNE01.JPG,AFNE01.JPG,,,,,5,2,52,8,,,,,,,,,,,,,,,,,,,AFSA15.jpg,AFNE06.jpg,AFSA19.jpg,AFNE09.jpg,AFNE09.jpg,FN,3,num_4,32,num_6,0.9834732241,,,2017_Aug_01_1627,59.9834352003,MAFE4ImagesEEG,001,101090,
AFNE01.JPG,AFNE01.JPG,AFNE01.JPG,AFNE01.JPG,AFNE01.JPG,AFNE01.JPG,,,,,5,3,53,5,,,,,,,,,,,,,,,,,,,AFSA11.jpg,AFSA14.jpg,AFNE14.jpg,AFNE15.jpg,AFSA14.jpg,FS,4,num_6,32,num_4,0.600170826074,,,2017_Aug_01_1627,59.9834352003,MAFE4ImagesEEG,001,101090,
AFNE01.JPG,AFNE01.JPG,AFNE01.JPG,AFNE01.JPG,AFNE01.JPG,AFNE01.JPG,,,,,5,4,54,7,,,,,,,,,,,,,,,,,,,AFSA04.jpg,AFNE20.jpg,AFSA03.jpg,AFNE05.jpg,AFNE05.jpg,FN,3,num_4,32,num_6,1.31672188221,,,2017_Aug_01_1627,59.9834352003,MAFE4ImagesEEG,001,101090,
AFNE01.JPG,AFNE01.JPG,AFNE01.JPG,AFNE01.JPG,AFNE01.JPG,AFNE01.JPG,,,,,5,5,55,9,,,,,,,,,,,,,,,,,,,AFNE10.jpg,AFNE07.jpg,AFSA11.jpg,AFSA07.jpg,AFNE07.jpg,FN,3,num_6,32,num_8,1.75008507632,,,2017_Aug_01_1627,59.9834352003,MAFE4ImagesEEG,001,101090,
AFNE01.JPG,AFNE01.JPG,AFNE01.JPG,AFNE01.JPG,AFNE01.JPG,AFNE01.JPG,,,,,5,6,56,6,,,,,,,,,,,,,,,,,,,AFSA06.jpg,AFSA05.jpg,AFNE04.jpg,AFNE20.jpg,AFSA06.jpg,FS,4,num_8,32,num_6,0.700138142798,,,2017_Aug_01_1627,59.9834352003,MAFE4ImagesEEG,001,101090,
AFNE01.JPG,AFNE01.JPG,AFNE01.JPG,AFNE01.JPG,AFNE01.JPG,AFNE01.JPG,,,,,5,7,57,4,,,,,,,,,,,,,,,,,,,AFNE19.jpg,AFSA07.jpg,AFSA15.jpg,AFNE15.jpg,AFNE19.jpg,FN,3,num_8,16,num_8,1.65006579994,,,2017_Aug_01_1627,59.9834352003,MAFE4ImagesEEG,001,101090,
AFNE01.JPG,AFNE01.JPG,AFNE01.JPG,AFNE01.JPG,AFNE01.JPG,AFNE01.JPG,,,,,5,8,58,2,,,,,,,,,,,,,,,,,,,AFSA17.jpg,AFNE17.jpg,AFSA02.jpg,AFNE01.jpg,AFSA17.jpg,FS,4,num_8,32,num_6,0.816817943705,,,2017_Aug_01_1627,59.9834352003,MAFE4ImagesEEG,001,101090,
AFNE01.JPG,AFNE01.JPG,AFNE01.JPG,AFNE01.JPG,AFNE01.JPG,AFNE01.JPG,,,,,5,9,59,0,,,,,,,,,,,,,,,,,,,AFSA07.jpg,AFSA12.jpg,AFNE04.jpg,AFNE10.jpg,AFNE04.jpg,FN,3,num_2,32,num_8,1.00037686946,,,2017_Aug_01_1627,59.9834352003,MAFE4ImagesEEG,001,101090,
,,,,,,,,,,,,,,,,,,,,,,,,,,,,,,,,,,,,,,,,,,,space,30.2481049872,2017_Aug_01_1627,59.9834352003,MAFE4ImagesEEG,001,101090,
AFNE01.JPG,AFNE01.JPG,AFNE01.JPG,AFNE01.JPG,AFNE01.JPG,AFNE01.JPG,,,,,,,,,0,0,0,8,,,,,,,,,,,,,,,AMSA20.jpg,AMSA06.jpg,AMNE12.jpg,AMNE18.jpg,AMNE12.jpg,MN,1,num_2,32,num_8,0.683481146581,,,2017_Aug_01_1627,59.9834352003,MAFE4ImagesEEG,001,101090,
AFNE01.JPG,AFNE01.JPG,AFNE01.JPG,AFNE01.JPG,AFNE01.JPG,AFNE01.JPG,,,,,,,,,0,1,1,6,,,,,,,,,,,,,,,AMSA19.jpg,AMNE13.jpg,AMSA05.jpg,AMNE18.jpg,AMSA05.jpg,MS,2,num_2,16,num_2,0.86658494221,,,2017_Aug_01_1627,59.9834352003,MAFE4ImagesEEG,001,101090,
AFNE01.JPG,AFNE01.JPG,AFNE01.JPG,AFNE01.JPG,AFNE01.JPG,AFNE01.JPG,,,,,,,,,0,2,2,0,,,,,,,,,,,,,,,AMNE03.jpg,AMSA04.jpg,AMNE05.jpg,AMSA11.jpg,AMSA11.jpg,MS,2,num_4,32,num_6,0.600148053607,,,2017_Aug_01_1627,59.9834352003,MAFE4ImagesEEG,001,101090,
AFNE01.JPG,AFNE01.JPG,AFNE01.JPG,AFNE01.JPG,AFNE01.JPG,AFNE01.JPG,,,,,,,,,0,3,3,5,,,,,,,,,,,,,,,AMSA08.jpg,AMNE08.jpg,AMSA12.jpg,AMNE14.jpg,AMSA12.jpg,MS,2,num_2,32,num_6,0.900352461264,,,2017_Aug_01_1627,59.9834352003,MAFE4ImagesEEG,001,101090,
AFNE01.JPG,AFNE01.JPG,AFNE01.JPG,AFNE01.JPG,AFNE01.JPG,AFNE01.JPG,,,,,,,,,0,4,4,2,,,,,,,,,,,,,,,AMNE01.jpg,AMSA05.jpg,AMNE06.jpg,AMSA02.jpg,AMNE06.jpg,MN,1,num_2,32,num_6,0.633474555332,,,2017_Aug_01_1627,59.9834352003,MAFE4ImagesEEG,001,101090,
AFNE01.JPG,AFNE01.JPG,AFNE01.JPG,AFNE01.JPG,AFNE01.JPG,AFNE01.JPG,,,,,,,,,0,5,5,7,,,,,,,,,,,,,,,AMSA05.jpg,AMNE06.jpg,AMSA08.jpg,AMNE17.jpg,AMSA08.jpg,MS,2,num_2,32,num_4,0.666805547196,,,2017_Aug_01_1627,59.9834352003,MAFE4ImagesEEG,001,101090,
AFNE01.JPG,AFNE01.JPG,AFNE01.JPG,AFNE01.JPG,AFNE01.JPG,AFNE01.JPG,,,,,,,,,0,6,6,9,,,,,,,,,,,,,,,AMNE14.jpg,AMNE17.jpg,AMSA02.jpg,AMSA17.jpg,AMSA17.jpg,MS,2,num_4,32,num_6,0.566821231274,,,2017_Aug_01_1627,59.9834352003,MAFE4ImagesEEG,001,101090,
AFNE01.JPG,AFNE01.JPG,AFNE01.JPG,AFNE01.JPG,AFNE01.JPG,AFNE01.JPG,,,,,,,,,0,7,7,3,,,,,,,,,,,,,,,AMSA14.jpg,AMNE10.jpg,AMNE19.jpg,AMSA16.jpg,AMNE19.jpg,MN,1,num_2,32,num_6,0.566811288474,,,2017_Aug_01_1627,59.9834352003,MAFE4ImagesEEG,001,101090,
AFNE01.JPG,AFNE01.JPG,AFNE01.JPG,AFNE01.JPG,AFNE01.JPG,AFNE01.JPG,,,,,,,,,0,8,8,1,,,,,,,,,,,,,,,AMSA17.jpg,AMNE09.jpg,AMNE02.jpg,AMSA15.jpg,AMNE02.jpg,MN,1,num_2,32,num_4,0.666783736786,,,2017_Aug_01_1627,59.9834352003,MAFE4ImagesEEG,001,101090,
AFNE01.JPG,AFNE01.JPG,AFNE01.JPG,AFNE01.JPG,AFNE01.JPG,AFNE01.JPG,,,,,,,,,0,9,9,4,,,,,,,,,,,,,,,AMNE02.jpg,AMSA08.jpg,AMSA05.jpg,AMNE17.jpg,AMNE17.jpg,MN,1,num_4,32,num_6,0.416797287995,,,2017_Aug_01_1627,59.9834352003,MAFE4ImagesEEG,001,101090,
AFNE01.JPG,AFNE01.JPG,AFNE01.JPG,AFNE01.JPG,AFNE01.JPG,AFNE01.JPG,,,,,,,,,1,0,10,0,,,,,,,,,,,,,,,AMSA20.jpg,AMSA11.jpg,AMNE18.jpg,AMNE05.jpg,AMSA20.jpg,MS,2,num_8,16,num_8,1.00015555881,,,2017_Aug_01_1627,59.9834352003,MAFE4ImagesEEG,001,101090,
AFNE01.JPG,AFNE01.JPG,AFNE01.JPG,AFNE01.JPG,AFNE01.JPG,AFNE01.JPG,,,,,,,,,1,1,11,1,,,,,,,,,,,,,,,AMNE04.jpg,AMSA11.jpg,AMNE10.jpg,AMSA04.jpg,AMNE04.jpg,MN,1,num_8,32,num_2,1.65007093176,,,2017_Aug_01_1627,59.9834352003,MAFE4ImagesEEG,001,101090,
AFNE01.JPG,AFNE01.JPG,AFNE01.JPG,AFNE01.JPG,AFNE01.JPG,AFNE01.JPG,,,,,,,,,1,2,12,2,,,,,,,,,,,,,,,AMSA05.jpg,AMNE19.jpg,AMSA20.jpg,AMNE04.jpg,AMNE04.jpg,MN,1,num_4,16,num_4,0.666792717529,,,2017_Aug_01_1627,59.9834352003,MAFE4ImagesEEG,001,101090,
AFNE01.JPG,AFNE01.JPG,AFNE01.JPG,AFNE01.JPG,AFNE01.JPG,AFNE01.JPG,,,,,,,,,1,3,13,7,,,,,,,,,,,,,,,AMSA02.jpg,AMSA09.jpg,AMNE17.jpg,AMNE01.jpg,AMSA09.jpg,MS,2,num_6,16,num_6,0.466762183001,,,2017_Aug_01_1627,59.9834352003,MAFE4ImagesEEG,001,101090,
AFNE01.JPG,AFNE01.JPG,AFNE01.JPG,AFNE01.JPG,AFNE01.JPG,AFNE01.JPG,,,,,,,,,1,4,14,6,,,,,,,,,,,,,,,AMSA14.jpg,AMNE07.jpg,AMNE18.jpg,AMSA09.jpg,AMSA14.jpg,MS,2,num_8,32,num_6,0.750171355437,,,2017_Aug_01_1627,59.9834352003,MAFE4ImagesEEG,001,101090,
AFNE01.JPG,AFNE01.JPG,AFNE01.JPG,AFNE01.JPG,AFNE01.JPG,AFNE01.JPG,,,,,,,,,1,5,15,5,,,,,,,,,,,,,,,AMNE12.jpg,AMSA07.jpg,AMNE19.jpg,AMSA15.jpg,AMNE12.jpg,MN,1,num_8,32,num_6,0.883460683282,,,2017_Aug_01_1627,59.9834352003,MAFE4ImagesEEG,001,101090,
AFNE01.JPG,AFNE01.JPG,AFNE01.JPG,AFNE01.JPG,AFNE01.JPG,AFNE01.JPG,,,,,,,,,1,6,16,9,,,,,,,,,,,,,,,AMNE20.jpg,AMSA16.jpg,AMSA09.jpg,AMNE15.jpg,AMNE20.jpg,MN,1,num_8,16,num_8,2.56663135323,,,2017_Aug_01_1627,59.9834352003,MAFE4ImagesEEG,001,101090,
AFNE01.JPG,AFNE01.JPG,AFNE01.JPG,AFNE01.JPG,AFNE01.JPG,AFNE01.JPG,,,,,,,,,1,7,17,4,,,,,,,,,,,,,,,AMSA16.jpg,AMNE19.jpg,AMSA13.jpg,AMNE12.jpg,AMNE19.jpg,MN,1,num_6,32,num_4,0.800192700699,,,2017_Aug_01_1627,59.9834352003,MAFE4ImagesEEG,001,101090,
AFNE01.JPG,AFNE01.JPG,AFNE01.JPG,AFNE01.JPG,AFNE01.JPG,AFNE01.JPG,,,,,,,,,1,8,18,3,,,,,,,,,,,,,,,AMSA02.jpg,AMNE11.jpg,AMSA16.jpg,AMNE05.jpg,AMNE11.jpg,MN,1,num_6,16,num_6,2.2166843235,,,2017_Aug_01_1627,59.9834352003,MAFE4ImagesEEG,001,101090,
AFNE01.JPG,AFNE01.JPG,AFNE01.JPG,AFNE01.JPG,AFNE01.JPG,AFNE01.JPG,,,,,,,,,1,9,19,8,,,,,,,,,,,,,,,AMSA01.jpg,AMSA08.jpg,AMNE13.jpg,AMNE20.jpg,AMNE13.jpg,MN,1,num_2,32,num_4,0.750167827355,,,2017_Aug_01_1627,59.9834352003,MAFE4ImagesEEG,001,101090,
AFNE01.JPG,AFNE01.JPG,AFNE01.JPG,AFNE01.JPG,AFNE01.JPG,AFNE01.JPG,,,,,,,,,2,0,20,6,,,,,,,,,,,,,,,AMSA12.jpg,AMSA17.jpg,AMNE18.jpg,AMNE04.jpg,AMSA12.jpg,MS,2,num_8,32,num_6,0.800148438429,,,2017_Aug_01_1627,59.9834352003,MAFE4ImagesEEG,001,101090,
AFNE01.JPG,AFNE01.JPG,AFNE01.JPG,AFNE01.JPG,AFNE01.JPG,AFNE01.JPG,,,,,,,,,2,1,21,7,,,,,,,,,,,,,,,AMNE12.jpg,AMSA19.jpg,AMNE11.jpg,AMSA05.jpg,AMNE11.jpg,MN,1,num_2,32,num_4,0.683481146349,,,2017_Aug_01_1627,59.9834352003,MAFE4ImagesEEG,001,101090,
AFNE01.JPG,AFNE01.JPG,AFNE01.JPG,AFNE01.JPG,AFNE01.JPG,AFNE01.JPG,,,,,,,,,2,2,22,4,,,,,,,,,,,,,,,AMSA08.jpg,AMNE16.jpg,AMNE12.jpg,AMSA18.jpg,AMSA18.jpg,MS,2,num_4,16,num_4,1.30022429372,,,2017_Aug_01_1627,59.9834352003,MAFE4ImagesEEG,001,101090,
AFNE01.JPG,AFNE01.JPG,AFNE01.JPG,AFNE01.JPG,AFNE01.JPG,AFNE01.JPG,,,,,,,,,2,3,23,9,,,,,,,,,,,,,,,AMSA12.jpg,AMNE17.jpg,AMSA07.jpg,AMNE14.jpg,AMNE14.jpg,MN,1,num_4,32,num_8,1.03344389237,,,2017_Aug_01_1627,59.9834352003,MAFE4ImagesEEG,001,101090,
AFNE01.JPG,AFNE01.JPG,AFNE01.JPG,AFNE01.JPG,AFNE01.JPG,AFNE01.JPG,,,,,,,,,2,4,24,2,,,,,,,,,,,,,,,AMNE17.jpg,AMSA08.jpg,AMSA15.jpg,AMNE14.jpg,AMSA15.jpg,MS,2,num_2,16,num_2,2.54997531907,,,2017_Aug_01_1627,59.9834352003,MAFE4ImagesEEG,001,101090,
AFNE01.JPG,AFNE01.JPG,AFNE01.JPG,AFNE01.JPG,AFNE01.JPG,AFNE01.JPG,,,,,,,,,2,5,25,0,,,,,,,,,,,,,,,AMNE07.jpg,AMNE14.jpg,AMSA10.jpg,AMSA14.jpg,AMNE07.jpg,MN,1,num_8,16,num_8,0.766826427309,,,2017_Aug_01_1627,59.9834352003,MAFE4ImagesEEG,001,101090,
AFNE01.JPG,AFNE01.JPG,AFNE01.JPG,AFNE01.JPG,AFNE01.JPG,AFNE01.JPG,,,,,,,,,2,6,26,1,,,,,,,,,,,,,,,AMNE09.jpg,AMSA18.jpg,AMNE07.jpg,AMSA17.jpg,AMSA17.jpg,MS,2,num_4,32,num_2,0.816753474995,,,2017_Aug_01_1627,59.9834352003,MAFE4ImagesEEG,001,101090,
AFNE01.JPG,AFNE01.JPG,AFNE01.JPG,AFNE01.JPG,AFNE01.JPG,AFNE01.JPG,,,,,,,,,2,7,27,5,,,,,,,,,,,,,,,AMNE02.jpg,AMNE10.jpg,AMSA14.jpg,AMSA19.jpg,AMNE02.jpg,MN,1,num_8,32,num_6,0.833479751134,,,2017_Aug_01_1627,59.9834352003,MAFE4ImagesEEG,001,101090,
AFNE01.JPG,AFNE01.JPG,AFNE01.JPG,AFNE01.JPG,AFNE01.JPG,AFNE01.JPG,,,,,,,,,2,8,28,3,,,,,,,,,,,,,,,AMSA10.jpg,AMNE19.jpg,AMNE14.jpg,AMSA19.jpg,AMSA10.jpg,MS,2,num_8,32,num_4,0.483434895752,,,2017_Aug_01_1627,59.9834352003,MAFE4ImagesEEG,001,101090,
AFNE01.JPG,AFNE01.JPG,AFNE01.JPG,AFNE01.JPG,AFNE01.JPG,AFNE01.JPG,,,,,,,,,2,9,29,8,,,,,,,,,,,,,,,AMNE09.jpg,AMNE14.jpg,AMSA11.jpg,AMSA05.jpg,AMNE14.jpg,MN,1,num_6,16,num_6,0.666902089957,,,2017_Aug_01_1627,59.9834352003,MAFE4ImagesEEG,001,101090,
AFNE01.JPG,AFNE01.JPG,AFNE01.JPG,AFNE01.JPG,AFNE01.JPG,AFNE01.JPG,,,,,,,,,3,0,30,9,,,,,,,,,,,,,,,AMSA20.jpg,AMNE13.jpg,AMSA02.jpg,AMNE02.jpg,AMNE13.jpg,MN,1,num_6,32,num_8,0.616796389921,,,2017_Aug_01_1627,59.9834352003,MAFE4ImagesEEG,001,101090,
AFNE01.JPG,AFNE01.JPG,AFNE01.JPG,AFNE01.JPG,AFNE01.JPG,AFNE01.JPG,,,,,,,,,3,1,31,1,,,,,,,,,,,,,,,AMNE12.jpg,AMNE14.jpg,AMSA14.jpg,AMSA13.jpg,AMSA13.jpg,MS,2,num_4,32,num_2,0.516727719456,,,2017_Aug_01_1627,59.9834352003,MAFE4ImagesEEG,001,101090,
AFNE01.JPG,AFNE01.JPG,AFNE01.JPG,AFNE01.JPG,AFNE01.JPG,AFNE01.JPG,,,,,,,,,3,2,32,7,,,,,,,,,,,,,,,AMSA01.jpg,AMNE04.jpg,AMNE05.jpg,AMSA18.jpg,AMSA01.jpg,MS,2,num_8,32,num_6,0.683475693921,,,2017_Aug_01_1627,59.9834352003,MAFE4ImagesEEG,001,101090,
AFNE01.JPG,AFNE01.JPG,AFNE01.JPG,AFNE01.JPG,AFNE01.JPG,AFNE01.JPG,,,,,,,,,3,3,33,3,,,,,,,,,,,,,,,AMNE18.jpg,AMSA05.jpg,AMSA08.jpg,AMNE07.jpg,AMNE18.jpg,MN,1,num_8,32,num_4,2.00004458288,,,2017_Aug_01_1627,59.9834352003,MAFE4ImagesEEG,001,101090,
AFNE01.JPG,AFNE01.JPG,AFNE01.JPG,AFNE01.JPG,AFNE01.JPG,AFNE01.JPG,,,,,,,,,3,4,34,4,,,,,,,,,,,,,,,AMSA18.jpg,AMSA06.jpg,AMNE05.jpg,AMNE12.jpg,AMNE12.jpg,MN,1,num_4,32,num_8,0.683490127092,,,2017_Aug_01_1627,59.9834352003,MAFE4ImagesEEG,001,101090,
AFNE01.JPG,AFNE01.JPG,AFNE01.JPG,AFNE01.JPG,AFNE01.JPG,AFNE01.JPG,,,,,,,,,3,5,35,0,,,,,,,,,,,,,,,AMSA03.jpg,AMNE20.jpg,AMSA08.jpg,AMNE02.jpg,AMNE20.jpg,MN,1,num_6,16,num_6,1.10009304667,,,2017_Aug_01_1627,59.9834352003,MAFE4ImagesEEG,001,101090,
AFNE01.JPG,AFNE01.JPG,AFNE01.JPG,AFNE01.JPG,AFNE01.JPG,AFNE01.JPG,,,,,,,,,3,6,36,8,,,,,,,,,,,,,,,AMSA06.jpg,AMSA19.jpg,AMNE07.jpg,AMNE11.jpg,AMNE07.jpg,MN,1,num_2,16,num_2,1.03363858163,,,2017_Aug_01_1627,59.9834352003,MAFE4ImagesEEG,001,101090,
AFNE01.JPG,AFNE01.JPG,AFNE01.JPG,AFNE01.JPG,AFNE01.JPG,AFNE01.JPG,,,,,,,,,3,7,37,5,,,,,,,,,,,,,,,AMSA17.jpg,AMNE05.jpg,AMSA04.jpg,AMNE11.jpg,AMSA04.jpg,MS,2,num_2,32,num_8,3.26668866933,,,2017_Aug_01_1627,59.9834352003,MAFE4ImagesEEG,001,101090,
AFNE01.JPG,AFNE01.JPG,AFNE01.JPG,AFNE01.JPG,AFNE01.JPG,AFNE01.JPG,,,,,,,,,3,8,38,2,,,,,,,,,,,,,,,AMSA20.jpg,AMNE13.jpg,AMNE15.jpg,AMSA17.jpg,AMSA20.jpg,MS,2,num_8,32,num_4,1.13348369626,,,2017_Aug_01_1627,59.9834352003,MAFE4ImagesEEG,001,101090,
AFNE01.JPG,AFNE01.JPG,AFNE01.JPG,AFNE01.JPG,AFNE01.JPG,AFNE01.JPG,,,,,,,,,3,9,39,6,,,,,,,,,,,,,,,AMNE14.jpg,AMNE03.jpg,AMSA13.jpg,AMSA03.jpg,AMNE14.jpg,MN,1,num_8,16,num_8,2.88333046273,,,2017_Aug_01_1627,59.9834352003,MAFE4ImagesEEG,001,101090,
AFNE01.JPG,AFNE01.JPG,AFNE01.JPG,AFNE01.JPG,AFNE01.JPG,AFNE01.JPG,,,,,,,,,4,0,40,8,,,,,,,,,,,,,,,AMNE04.jpg,AMNE10.jpg,AMSA13.jpg,AMSA14.jpg,AMNE10.jpg,MN,1,num_6,16,num_6,0.766803013394,,,2017_Aug_01_1627,59.9834352003,MAFE4ImagesEEG,001,101090,
AFNE01.JPG,AFNE01.JPG,AFNE01.JPG,AFNE01.JPG,AFNE01.JPG,AFNE01.JPG,,,,,,,,,4,1,41,7,,,,,,,,,,,,,,,AMNE13.jpg,AMSA17.jpg,AMSA14.jpg,AMNE06.jpg,AMNE06.jpg,MN,1,num_4,32,num_8,1.23346608761,,,2017_Aug_01_1627,59.9834352003,MAFE4ImagesEEG,001,101090,
AFNE01.JPG,AFNE01.JPG,AFNE01.JPG,AFNE01.JPG,AFNE01.JPG,AFNE01.JPG,,,,,,,,,4,2,42,4,,,,,,,,,,,,,,,AMNE17.jpg,AMSA04.jpg,AMSA10.jpg,AMNE20.jpg,AMNE17.jpg,MN,1,num_8,16,num_8,0.500157964416,,,2017_Aug_01_1627,59.9834352003,MAFE4ImagesEEG,001,101090,
AFNE01.JPG,AFNE01.JPG,AFNE01.JPG,AFNE01.JPG,AFNE01.JPG,AFNE01.JPG,,,,,,,,,4,3,43,0,,,,,,,,,,,,,,,AMSA11.jpg,AMNE16.jpg,AMSA06.jpg,AMNE15.jpg,AMNE16.jpg,MN,1,num_6,16,num_6,0.683495579753,,,2017_Aug_01_1627,59.9834352003,MAFE4ImagesEEG,001,101090,
AFNE01.JPG,AFNE01.JPG,AFNE01.JPG,AFNE01.JPG,AFNE01.JPG,AFNE01.JPG,,,,,,,,,4,4,44,6,,,,,,,,,,,,,,,AMNE10.jpg,AMNE09.jpg,AMSA04.jpg,AMSA12.jpg,AMSA04.jpg,MS,2,num_2,32,num_8,0.950121384114,,,2017_Aug_01_1627,59.9834352003,MAFE4ImagesEEG,001,101090,
AFNE01.JPG,AFNE01.JPG,AFNE01.JPG,AFNE01.JPG,AFNE01.JPG,AFNE01.JPG,,,,,,,,,4,5,45,3,,,,,,,,,,,,,,,AMSA09.jpg,AMNE12.jpg,AMSA05.jpg,AMNE08.jpg,AMSA09.jpg,MS,2,num_8,32,num_2,0.583434607135,,,2017_Aug_01_1627,59.9834352003,MAFE4ImagesEEG,001,101090,
AFNE01.JPG,AFNE01.JPG,AFNE01.JPG,AFNE01.JPG,AFNE01.JPG,AFNE01.JPG,,,,,,,,,4,6,46,9,,,,,,,,,,,,,,,AMSA04.jpg,AMSA15.jpg,AMNE12.jpg,AMNE04.jpg,AMNE04.jpg,MN,1,num_4,32,num_8,1.06677360134,,,2017_Aug_01_1627,59.9834352003,MAFE4ImagesEEG,001,101090,
AFNE01.JPG,AFNE01.JPG,AFNE01.JPG,AFNE01.JPG,AFNE01.JPG,AFNE01.JPG,,,,,,,,,4,7,47,2,,,,,,,,,,,,,,,AMNE10.jpg,AMSA03.jpg,AMNE05.jpg,AMSA12.jpg,AMNE05.jpg,MN,1,num_2,32,num_4,0.566821231274,,,2017_Aug_01_1627,59.9834352003,MAFE4ImagesEEG,001,101090,
AFNE01.JPG,AFNE01.JPG,AFNE01.JPG,AFNE01.JPG,AFNE01.JPG,AFNE01.JPG,,,,,,,,,4,8,48,5,,,,,,,,,,,,,,,AMSA12.jpg,AMNE09.jpg,AMSA02.jpg,AMNE01.jpg,AMNE09.jpg,MN,1,num_6,32,num_8,1.58335057297,,,2017_Aug_01_1627,59.9834352003,MAFE4ImagesEEG,001,101090,
AFNE01.JPG,AFNE01.JPG,AFNE01.JPG,AFNE01.JPG,AFNE01.JPG,AFNE01.JPG,,,,,,,,,4,9,49,1,,,,,,,,,,,,,,,AMSA12.jpg,AMSA08.jpg,AMNE09.jpg,AMNE19.jpg,AMNE09.jpg,MN,1,num_2,32,num_6,0.800174418371,,,2017_Aug_01_1627,59.9834352003,MAFE4ImagesEEG,001,101090,
AFNE01.JPG,AFNE01.JPG,AFNE01.JPG,AFNE01.JPG,AFNE01.JPG,AFNE01.JPG,,,,,,,,,5,0,50,5,,,,,,,,,,,,,,,AMNE18.jpg,AMSA10.jpg,AMSA05.jpg,AMNE01.jpg,AMNE18.jpg,MN,1,num_8,32,num_4,0.633482894395,,,2017_Aug_01_1627,59.9834352003,MAFE4ImagesEEG,001,101090,
AFNE01.JPG,AFNE01.JPG,AFNE01.JPG,AFNE01.JPG,AFNE01.JPG,AFNE01.JPG,,,,,,,,,5,1,51,2,,,,,,,,,,,,,,,AMSA06.jpg,AMNE09.jpg,AMNE01.jpg,AMSA12.jpg,AMSA12.jpg,MS,2,num_4,32,num_6,0.650171323447,,,2017_Aug_01_1627,59.9834352003,MAFE4ImagesEEG,001,101090,
AFNE01.JPG,AFNE01.JPG,AFNE01.JPG,AFNE01.JPG,AFNE01.JPG,AFNE01.JPG,,,,,,,,,5,2,52,0,,,,,,,,,,,,,,,AMNE03.jpg,AMSA11.jpg,AMSA04.jpg,AMNE09.jpg,AMNE09.jpg,MN,1,num_4,32,num_6,1.83349610888,,,2017_Aug_01_1627,59.9834352003,MAFE4ImagesEEG,001,101090,
AFNE01.JPG,AFNE01.JPG,AFNE01.JPG,AFNE01.JPG,AFNE01.JPG,AFNE01.JPG,,,,,,,,,5,3,53,9,,,,,,,,,,,,,,,AMSA07.jpg,AMNE09.jpg,AMNE17.jpg,AMSA17.jpg,AMNE09.jpg,MN,1,num_6,32,num_2,1.18343512015,,,2017_Aug_01_1627,59.9834352003,MAFE4ImagesEEG,001,101090,
AFNE01.JPG,AFNE01.JPG,AFNE01.JPG,AFNE01.JPG,AFNE01.JPG,AFNE01.JPG,,,,,,,,,5,4,54,7,,,,,,,,,,,,,,,AMNE02.jpg,AMSA10.jpg,AMNE06.jpg,AMSA06.jpg,AMNE02.jpg,MN,1,num_8,32,num_6,0.616822690703,,,2017_Aug_01_1627,59.9834352003,MAFE4ImagesEEG,001,101090,
AFNE01.JPG,AFNE01.JPG,AFNE01.JPG,AFNE01.JPG,AFNE01.JPG,AFNE01.JPG,,,,,,,,,5,5,55,3,,,,,,,,,,,,,,,AMSA07.jpg,AMNE11.jpg,AMSA15.jpg,AMNE06.jpg,AMNE11.jpg,MN,1,num_6,32,num_8,0.683527012356,,,2017_Aug_01_1627,59.9834352003,MAFE4ImagesEEG,001,101090,
AFNE01.JPG,AFNE01.JPG,AFNE01.JPG,AFNE01.JPG,AFNE01.JPG,AFNE01.JPG,,,,,,,,,5,6,56,4,,,,,,,,,,,,,,,AMSA03.jpg,AMSA04.jpg,AMNE06.jpg,AMNE03.jpg,AMNE03.jpg,MN,1,num_4,32,num_6,0.599848803133,,,2017_Aug_01_1627,59.9834352003,MAFE4ImagesEEG,001,101090,
AFNE01.JPG,AFNE01.JPG,AFNE01.JPG,AFNE01.JPG,AFNE01.JPG,AFNE01.JPG,,,,,,,,,5,7,57,1,,,,,,,,,,,,,,,AMSA17.jpg,AMNE06.jpg,AMNE11.jpg,AMSA19.jpg,AMNE06.jpg,MN,1,num_6,32,num_2,0.900173808914,,,2017_Aug_01_1627,59.9834352003,MAFE4ImagesEEG,001,101090,
AFNE01.JPG,AFNE01.JPG,AFNE01.JPG,AFNE01.JPG,AFNE01.JPG,AFNE01.JPG,,,,,,,,,5,8,58,8,,,,,,,,,,,,,,,AMSA07.jpg,AMNE06.jpg,AMSA01.jpg,AMNE16.jpg,AMNE06.jpg,MN,1,num_6,32,num_4,1.45010518678,,,2017_Aug_01_1627,59.9834352003,MAFE4ImagesEEG,001,101090,
AFNE01.JPG,AFNE01.JPG,AFNE01.JPG,AFNE01.JPG,AFNE01.JPG,AFNE01.JPG,,,,,,,,,5,9,59,6,,,,,,,,,,,,,,,AMNE14.jpg,AMNE08.jpg,AMSA04.jpg,AMSA15.jpg,AMSA15.jpg,MS,2,num_4,32,num_6,0.633575588465,,,2017_Aug_01_1627,59.9834352003,MAFE4ImagesEEG,001,101090,
,,,,,,,,,,,,,,,,,,,,,,,,,,,,,,,,,,,,,,,,,,,space,7.59987927321,2017_Aug_01_1627,59.9834352003,MAFE4ImagesEEG,001,101090,
AFNE01.JPG,AFNE01.JPG,AFNE01.JPG,AFNE01.JPG,AFNE01.JPG,AFNE01.JPG,,,,,,,,,,,,,0,0,0,9,,,,,,,,,,,AFNE17.jpg,AFSA09.jpg,AFNE05.jpg,AFSA17.jpg,AFSA17.jpg,FS,4,num_4,32,num_8,1.36675894354,,,2017_Aug_01_1627,59.9834352003,MAFE4ImagesEEG,001,101090,
AFNE01.JPG,AFNE01.JPG,AFNE01.JPG,AFNE01.JPG,AFNE01.JPG,AFNE01.JPG,,,,,,,,,,,,,0,1,1,7,,,,,,,,,,,AFSA06.jpg,AFNE04.jpg,AFSA03.jpg,AFNE11.jpg,AFSA03.jpg,FS,4,num_2,32,num_8,1.16679640603,,,2017_Aug_01_1627,59.9834352003,MAFE4ImagesEEG,001,101090,
AFNE01.JPG,AFNE01.JPG,AFNE01.JPG,AFNE01.JPG,AFNE01.JPG,AFNE01.JPG,,,,,,,,,,,,,0,2,2,3,,,,,,,,,,,AFSA16.jpg,AFSA12.jpg,AFNE06.jpg,AFNE13.jpg,AFNE06.jpg,FN,3,num_2,32,num_4,0.950121063506,,,2017_Aug_01_1627,59.9834352003,MAFE4ImagesEEG,001,101090,
AFNE01.JPG,AFNE01.JPG,AFNE01.JPG,AFNE01.JPG,AFNE01.JPG,AFNE01.JPG,,,,,,,,,,,,,0,3,3,0,,,,,,,,,,,AFNE10.jpg,AFSA14.jpg,AFSA12.jpg,AFNE19.jpg,AFNE19.jpg,FN,3,num_4,32,num_6,0.716764027253,,,2017_Aug_01_1627,59.9834352003,MAFE4ImagesEEG,001,101090,
AFNE01.JPG,AFNE01.JPG,AFNE01.JPG,AFNE01.JPG,AFNE01.JPG,AFNE01.JPG,,,,,,,,,,,,,0,4,4,1,,,,,,,,,,,AFSA14.jpg,AFNE18.jpg,AFSA16.jpg,AFNE20.jpg,AFSA16.jpg,FS,4,num_2,32,num_4,0.850114937173,,,2017_Aug_01_1627,59.9834352003,MAFE4ImagesEEG,001,101090,
AFNE01.JPG,AFNE01.JPG,AFNE01.JPG,AFNE01.JPG,AFNE01.JPG,AFNE01.JPG,,,,,,,,,,,,,0,5,5,4,,,,,,,,,,,AFSA04.jpg,AFNE06.jpg,AFSA05.jpg,AFNE10.jpg,AFSA05.jpg,FS,4,num_2,32,num_6,1.05010602064,,,2017_Aug_01_1627,59.9834352003,MAFE4ImagesEEG,001,101090,
AFNE01.JPG,AFNE01.JPG,AFNE01.JPG,AFNE01.JPG,AFNE01.JPG,AFNE01.JPG,,,,,,,,,,,,,0,6,6,8,,,,,,,,,,,AFSA16.jpg,AFNE15.jpg,AFSA04.jpg,AFNE11.jpg,AFSA16.jpg,FS,4,num_8,32,num_4,0.766771901399,,,2017_Aug_01_1627,59.9834352003,MAFE4ImagesEEG,001,101090,
AFNE01.JPG,AFNE01.JPG,AFNE01.JPG,AFNE01.JPG,AFNE01.JPG,AFNE01.JPG,,,,,,,,,,,,,0,7,7,5,,,,,,,,,,,AFNE14.jpg,AFSA12.jpg,AFNE11.jpg,AFSA13.jpg,AFNE14.jpg,FN,3,num_8,32,num_6,0.700107672485,,,2017_Aug_01_1627,59.9834352003,MAFE4ImagesEEG,001,101090,
AFNE01.JPG,AFNE01.JPG,AFNE01.JPG,AFNE01.JPG,AFNE01.JPG,AFNE01.JPG,,,,,,,,,,,,,0,8,8,6,,,,,,,,,,,AFSA07.jpg,AFSA03.jpg,AFNE02.jpg,AFNE11.jpg,AFSA03.jpg,FS,4,num_6,32,num_8,1.23345518252,,,2017_Aug_01_1627,59.9834352003,MAFE4ImagesEEG,001,101090,
AFNE01.JPG,AFNE01.JPG,AFNE01.JPG,AFNE01.JPG,AFNE01.JPG,AFNE01.JPG,,,,,,,,,,,,,0,9,9,2,,,,,,,,,,,AFNE02.jpg,AFSA01.jpg,AFSA07.jpg,AFNE09.jpg,AFSA01.jpg,FS,4,num_6,32,num_8,1.58338777884,,,2017_Aug_01_1627,59.9834352003,MAFE4ImagesEEG,001,101090,
AFNE01.JPG,AFNE01.JPG,AFNE01.JPG,AFNE01.JPG,AFNE01.JPG,AFNE01.JPG,,,,,,,,,,,,,1,0,10,0,,,,,,,,,,,AFSA10.jpg,AFNE11.jpg,AFSA06.jpg,AFNE17.jpg,AFSA06.jpg,FS,4,num_2,32,num_6,0.866810743231,,,2017_Aug_01_1627,59.9834352003,MAFE4ImagesEEG,001,101090,
AFNE01.JPG,AFNE01.JPG,AFNE01.JPG,AFNE01.JPG,AFNE01.JPG,AFNE01.JPG,,,,,,,,,,,,,1,1,11,8,,,,,,,,,,,AFNE10.jpg,AFSA10.jpg,AFSA19.jpg,AFNE06.jpg,AFNE10.jpg,FN,3,num_8,16,num_8,1.95005531167,,,2017_Aug_01_1627,59.9834352003,MAFE4ImagesEEG,001,101090,
AFNE01.JPG,AFNE01.JPG,AFNE01.JPG,AFNE01.JPG,AFNE01.JPG,AFNE01.JPG,,,,,,,,,,,,,1,2,12,9,,,,,,,,,,,AFNE11.jpg,AFNE08.jpg,AFSA07.jpg,AFSA02.jpg,AFSA07.jpg,FS,4,num_2,16,num_2,3.13329381822,,,2017_Aug_01_1627,59.9834352003,MAFE4ImagesEEG,001,101090,
AFNE01.JPG,AFNE01.JPG,AFNE01.JPG,AFNE01.JPG,AFNE01.JPG,AFNE01.JPG,,,,,,,,,,,,,1,3,13,6,,,,,,,,,,,AFNE05.jpg,AFSA15.jpg,AFNE19.jpg,AFSA16.jpg,AFSA16.jpg,FS,4,num_4,16,num_4,0.850170425139,,,2017_Aug_01_1627,59.9834352003,MAFE4ImagesEEG,001,101090,
AFNE01.JPG,AFNE01.JPG,AFNE01.JPG,AFNE01.JPG,AFNE01.JPG,AFNE01.JPG,,,,,,,,,,,,,1,4,14,3,,,,,,,,,,,AFSA15.jpg,AFNE08.jpg,AFSA17.jpg,AFNE15.jpg,AFSA17.jpg,FS,4,num_2,32,num_6,0.733443154721,,,2017_Aug_01_1627,59.9834352003,MAFE4ImagesEEG,001,101090,
AFNE01.JPG,AFNE01.JPG,AFNE01.JPG,AFNE01.JPG,AFNE01.JPG,AFNE01.JPG,,,,,,,,,,,,,1,5,15,7,,,,,,,,,,,AFNE08.jpg,AFSA16.jpg,AFNE10.jpg,AFSA06.jpg,AFNE10.jpg,FN,3,num_2,32,num_4,0.866832232568,,,2017_Aug_01_1627,59.9834352003,MAFE4ImagesEEG,001,101090,
AFNE01.JPG,AFNE01.JPG,AFNE01.JPG,AFNE01.JPG,AFNE01.JPG,AFNE01.JPG,,,,,,,,,,,,,1,6,16,5,,,,,,,,,,,AFSA03.jpg,AFNE13.jpg,AFNE02.jpg,AFSA05.jpg,AFSA03.jpg,FS,4,num_8,32,num_6,0.800107383635,,,2017_Aug_01_1627,59.9834352003,MAFE4ImagesEEG,001,101090,
AFNE01.JPG,AFNE01.JPG,AFNE01.JPG,AFNE01.JPG,AFNE01.JPG,AFNE01.JPG,,,,,,,,,,,,,1,7,17,2,,,,,,,,,,,AFSA02.jpg,AFSA08.jpg,AFNE07.jpg,AFNE16.jpg,AFNE16.jpg,FN,3,num_4,32,num_2,2.20002123294,,,2017_Aug_01_1627,59.9834352003,MAFE4ImagesEEG,001,101090,
AFNE01.JPG,AFNE01.JPG,AFNE01.JPG,AFNE01.JPG,AFNE01.JPG,AFNE01.JPG,,,,,,,,,,,,,1,8,18,4,,,,,,,,,,,AFSA18.jpg,AFSA15.jpg,AFNE20.jpg,AFNE12.jpg,AFSA15.jpg,FS,4,num_6,16,num_6,0.866809460102,,,2017_Aug_01_1627,59.9834352003,MAFE4ImagesEEG,001,101090,
AFNE01.JPG,AFNE01.JPG,AFNE01.JPG,AFNE01.JPG,AFNE01.JPG,AFNE01.JPG,,,,,,,,,,,,,1,9,19,1,,,,,,,,,,,AFNE05.jpg,AFSA20.jpg,AFSA08.jpg,AFNE15.jpg,AFSA20.jpg,FS,4,num_6,32,num_4,1.18376676552,,,2017_Aug_01_1627,59.9834352003,MAFE4ImagesEEG,001,101090,
AFNE01.JPG,AFNE01.JPG,AFNE01.JPG,AFNE01.JPG,AFNE01.JPG,AFNE01.JPG,,,,,,,,,,,,,2,0,20,6,,,,,,,,,,,AFNE02.jpg,AFSA03.jpg,AFSA20.jpg,AFNE03.jpg,AFSA03.jpg,FS,4,num_6,16,num_6,0.833440300077,,,2017_Aug_01_1627,59.9834352003,MAFE4ImagesEEG,001,101090,
AFNE01.JPG,AFNE01.JPG,AFNE01.JPG,AFNE01.JPG,AFNE01.JPG,AFNE01.JPG,,,,,,,,,,,,,2,1,21,8,,,,,,,,,,,AFNE20.jpg,AFNE12.jpg,AFSA06.jpg,AFSA19.jpg,AFSA06.jpg,FS,4,num_2,32,num_6,0.900122811552,,,2017_Aug_01_1627,59.9834352003,MAFE4ImagesEEG,001,101090,
AFNE01.JPG,AFNE01.JPG,AFNE01.JPG,AFNE01.JPG,AFNE01.JPG,AFNE01.JPG,,,,,,,,,,,,,2,2,22,0,,,,,,,,,,,AFNE09.jpg,AFSA09.jpg,AFSA17.jpg,AFNE06.jpg,AFNE06.jpg,FN,3,num_4,32,num_6,1.28351020557,,,2017_Aug_01_1627,59.9834352003,MAFE4ImagesEEG,001,101090,
AFNE01.JPG,AFNE01.JPG,AFNE01.JPG,AFNE01.JPG,AFNE01.JPG,AFNE01.JPG,,,,,,,,,,,,,2,3,23,4,,,,,,,,,,,AFSA16.jpg,AFNE15.jpg,AFSA04.jpg,AFNE11.jpg,AFNE15.jpg,FN,3,num_6,16,num_6,1.28346209461,,,2017_Aug_01_1627,59.9834352003,MAFE4ImagesEEG,001,101090,
AFNE01.JPG,AFNE01.JPG,AFNE01.JPG,AFNE01.JPG,AFNE01.JPG,AFNE01.JPG,,,,,,,,,,,,,2,4,24,3,,,,,,,,,,,AFSA17.jpg,AFNE02.jpg,AFNE08.jpg,AFSA09.jpg,AFNE02.jpg,FN,3,num_6,32,num_8,3.08331673499,,,2017_Aug_01_1627,59.9834352003,MAFE4ImagesEEG,001,101090,
AFNE01.JPG,AFNE01.JPG,AFNE01.JPG,AFNE01.JPG,AFNE01.JPG,AFNE01.JPG,,,,,,,,,,,,,2,5,25,9,,,,,,,,,,,AFSA11.jpg,AFSA12.jpg,AFNE05.jpg,AFNE10.jpg,AFNE05.jpg,FN,3,num_2,16,num_2,1.53343314771,,,2017_Aug_01_1627,59.9834352003,MAFE4ImagesEEG,001,101090,
AFNE01.JPG,AFNE01.JPG,AFNE01.JPG,AFNE01.JPG,AFNE01.JPG,AFNE01.JPG,,,,,,,,,,,,,2,6,26,1,,,,,,,,,,,AFSA19.jpg,AFNE14.jpg,AFNE16.jpg,AFSA12.jpg,AFSA19.jpg,FS,4,num_8,16,num_8,1.44978605025,,,2017_Aug_01_1627,59.9834352003,MAFE4ImagesEEG,001,101090,
AFNE01.JPG,AFNE01.JPG,AFNE01.JPG,AFNE01.JPG,AFNE01.JPG,AFNE01.JPG,,,,,,,,,,,,,2,7,27,2,,,,,,,,,,,AFSA18.jpg,AFSA07.jpg,AFNE14.jpg,AFNE02.jpg,AFNE02.jpg,FN,3,num_4,16,num_4,3.54990764288,,,2017_Aug_01_1627,59.9834352003,MAFE4ImagesEEG,001,101090,
AFNE01.JPG,AFNE01.JPG,AFNE01.JPG,AFNE01.JPG,AFNE01.JPG,AFNE01.JPG,,,,,,,,,,,,,2,8,28,5,,,,,,,,,,,AFNE19.jpg,AFSA12.jpg,AFNE10.jpg,AFSA09.jpg,AFSA12.jpg,FS,4,num_6,16,num_6,0.567064352334,,,2017_Aug_01_1627,59.9834352003,MAFE4ImagesEEG,001,101090,
AFNE01.JPG,AFNE01.JPG,AFNE01.JPG,AFNE01.JPG,AFNE01.JPG,AFNE01.JPG,,,,,,,,,,,,,2,9,29,7,,,,,,,,,,,AFSA04.jpg,AFNE14.jpg,AFNE12.jpg,AFSA09.jpg,AFNE12.jpg,FN,3,num_2,32,num_6,1.96668023407,,,2017_Aug_01_1627,59.9834352003,MAFE4ImagesEEG,001,101090,
AFNE01.JPG,AFNE01.JPG,AFNE01.JPG,AFNE01.JPG,AFNE01.JPG,AFNE01.JPG,,,,,,,,,,,,,3,0,30,1,,,,,,,,,,,AFSA12.jpg,AFNE18.jpg,AFSA10.jpg,AFNE03.jpg,AFSA10.jpg,FS,4,num_2,16,num_2,1.4999565396,,,2017_Aug_01_1627,59.9834352003,MAFE4ImagesEEG,001,101090,
AFNE01.JPG,AFNE01.JPG,AFNE01.JPG,AFNE01.JPG,AFNE01.JPG,AFNE01.JPG,,,,,,,,,,,,,3,1,31,9,,,,,,,,,,,AFSA03.jpg,AFNE12.jpg,AFSA07.jpg,AFNE03.jpg,AFSA03.jpg,FS,4,num_8,16,num_8,0.766743035056,,,2017_Aug_01_1627,59.9834352003,MAFE4ImagesEEG,001,101090,
AFNE01.JPG,AFNE01.JPG,AFNE01.JPG,AFNE01.JPG,AFNE01.JPG,AFNE01.JPG,,,,,,,,,,,,,3,2,32,6,,,,,,,,,,,AFSA10.jpg,AFNE04.jpg,AFNE09.jpg,AFSA12.jpg,AFNE04.jpg,FN,3,num_6,16,num_6,2.58323703101,,,2017_Aug_01_1627,59.9834352003,MAFE4ImagesEEG,001,101090,
AFNE01.JPG,AFNE01.JPG,AFNE01.JPG,AFNE01.JPG,AFNE01.JPG,AFNE01.JPG,,,,,,,,,,,,,3,3,33,5,,,,,,,,,,,AFSA03.jpg,AFSA06.jpg,AFNE03.jpg,AFNE04.jpg,AFNE03.jpg,FN,3,num_2,48,None,,,,2017_Aug_01_1627,59.9834352003,MAFE4ImagesEEG,001,101090,
AFNE01.JPG,AFNE01.JPG,AFNE01.JPG,AFNE01.JPG,AFNE01.JPG,AFNE01.JPG,,,,,,,,,,,,,3,4,34,8,,,,,,,,,,,AFNE15.jpg,AFSA14.jpg,AFNE05.jpg,AFSA17.jpg,AFNE05.jpg,FN,3,num_2,32,num_6,2.11664580274,,,2017_Aug_01_1627,59.9834352003,MAFE4ImagesEEG,001,101090,
AFNE01.JPG,AFNE01.JPG,AFNE01.JPG,AFNE01.JPG,AFNE01.JPG,AFNE01.JPG,,,,,,,,,,,,,3,5,35,7,,,,,,,,,,,AFNE09.jpg,AFNE03.jpg,AFSA11.jpg,AFSA19.jpg,AFNE03.jpg,FN,3,num_6,32,num_8,1.41672255564,,,2017_Aug_01_1627,59.9834352003,MAFE4ImagesEEG,001,101090,
AFNE01.JPG,AFNE01.JPG,AFNE01.JPG,AFNE01.JPG,AFNE01.JPG,AFNE01.JPG,,,,,,,,,,,,,3,6,36,3,,,,,,,,,,,AFSA12.jpg,AFNE11.jpg,AFSA02.jpg,AFNE13.jpg,AFSA12.jpg,FS,4,num_8,32,num_4,0.766812635586,,,2017_Aug_01_1627,59.9834352003,MAFE4ImagesEEG,001,101090,
AFNE01.JPG,AFNE01.JPG,AFNE01.JPG,AFNE01.JPG,AFNE01.JPG,AFNE01.JPG,,,,,,,,,,,,,3,7,37,4,,,,,,,,,,,AFSA12.jpg,AFSA20.jpg,AFNE20.jpg,AFNE01.jpg,AFSA20.jpg,FS,4,num_6,32,num_2,2.2001091158,,,2017_Aug_01_1627,59.9834352003,MAFE4ImagesEEG,001,101090,
AFNE01.JPG,AFNE01.JPG,AFNE01.JPG,AFNE01.JPG,AFNE01.JPG,AFNE01.JPG,,,,,,,,,,,,,3,8,38,2,,,,,,,,,,,AFSA03.jpg,AFNE19.jpg,AFSA16.jpg,AFNE15.jpg,AFSA03.jpg,FS,4,num_8,32,num_6,0.71677717776,,,2017_Aug_01_1627,59.9834352003,MAFE4ImagesEEG,001,101090,
AFNE01.JPG,AFNE01.JPG,AFNE01.JPG,AFNE01.JPG,AFNE01.JPG,AFNE01.JPG,,,,,,,,,,,,,3,9,39,0,,,,,,,,,,,AFNE14.jpg,AFSA15.jpg,AFNE10.jpg,AFSA16.jpg,AFNE14.jpg,FN,3,num_8,16,num_8,1.03346923087,,,2017_Aug_01_1627,59.9834352003,MAFE4ImagesEEG,001,101090,
AFNE01.JPG,AFNE01.JPG,AFNE01.JPG,AFNE01.JPG,AFNE01.JPG,AFNE01.JPG,,,,,,,,,,,,,4,0,40,6,,,,,,,,,,,AFNE16.jpg,AFSA20.jpg,AFSA18.jpg,AFNE15.jpg,AFNE15.jpg,FN,3,num_4,32,num_8,2.16670242907,,,2017_Aug_01_1627,59.9834352003,MAFE4ImagesEEG,001,101090,
AFNE01.JPG,AFNE01.JPG,AFNE01.JPG,AFNE01.JPG,AFNE01.JPG,AFNE01.JPG,,,,,,,,,,,,,4,1,41,1,,,,,,,,,,,AFNE04.jpg,AFSA08.jpg,AFNE12.jpg,AFSA01.jpg,AFSA01.jpg,FS,4,num_4,16,num_4,1.53347003274,,,2017_Aug_01_1627,59.9834352003,MAFE4ImagesEEG,001,101090,
AFNE01.JPG,AFNE01.JPG,AFNE01.JPG,AFNE01.JPG,AFNE01.JPG,AFNE01.JPG,,,,,,,,,,,,,4,2,42,5,,,,,,,,,,,AFSA14.jpg,AFNE03.jpg,AFNE06.jpg,AFSA12.jpg,AFNE06.jpg,FN,3,num_2,16,num_2,1.03342111991,,,2017_Aug_01_1627,59.9834352003,MAFE4ImagesEEG,001,101090,
AFNE01.JPG,AFNE01.JPG,AFNE01.JPG,AFNE01.JPG,AFNE01.JPG,AFNE01.JPG,,,,,,,,,,,,,4,3,43,9,,,,,,,,,,,AFSA19.jpg,AFSA06.jpg,AFNE08.jpg,AFNE16.jpg,AFNE16.jpg,FN,3,num_4,16,num_4,0.716807648074,,,2017_Aug_01_1627,59.9834352003,MAFE4ImagesEEG,001,101090,
AFNE01.JPG,AFNE01.JPG,AFNE01.JPG,AFNE01.JPG,AFNE01.JPG,AFNE01.JPG,,,,,,,,,,,,,4,4,44,8,,,,,,,,,,,AFSA07.jpg,AFSA15.jpg,AFNE02.jpg,AFNE10.jpg,AFNE10.jpg,FN,3,num_4,32,num_6,1.23344203224,,,2017_Aug_01_1627,59.9834352003,MAFE4ImagesEEG,001,101090,
AFNE01.JPG,AFNE01.JPG,AFNE01.JPG,AFNE01.JPG,AFNE01.JPG,AFNE01.JPG,,,,,,,,,,,,,4,5,45,0,,,,,,,,,,,AFSA10.jpg,AFSA02.jpg,AFNE01.jpg,AFNE09.jpg,AFSA10.jpg,FS,4,num_8,32,num_4,0.650149192195,,,2017_Aug_01_1627,59.9834352003,MAFE4ImagesEEG,001,101090,
AFNE01.JPG,AFNE01.JPG,AFNE01.JPG,AFNE01.JPG,AFNE01.JPG,AFNE01.JPG,,,,,,,,,,,,,4,6,46,2,,,,,,,,,,,AFSA13.jpg,AFSA16.jpg,AFNE10.jpg,AFNE04.jpg,AFNE04.jpg,FN,3,num_4,16,num_4,1.60007716995,,,2017_Aug_01_1627,59.9834352003,MAFE4ImagesEEG,001,101090,
AFNE01.JPG,AFNE01.JPG,AFNE01.JPG,AFNE01.JPG,AFNE01.JPG,AFNE01.JPG,,,,,,,,,,,,,4,7,47,3,,,,,,,,,,,AFSA05.jpg,AFSA19.jpg,AFNE01.jpg,AFNE02.jpg,AFSA19.jpg,FS,4,num_6,32,num_4,0.750163978199,,,2017_Aug_01_1627,59.9834352003,MAFE4ImagesEEG,001,101090,
AFNE01.JPG,AFNE01.JPG,AFNE01.JPG,AFNE01.JPG,AFNE01.JPG,AFNE01.JPG,,,,,,,,,,,,,4,8,48,7,,,,,,,,,,,AFSA16.jpg,AFNE07.jpg,AFNE01.jpg,AFSA05.jpg,AFNE01.jpg,FN,3,num_2,32,num_6,0.616806012113,,,2017_Aug_01_1627,59.9834352003,MAFE4ImagesEEG,001,101090,
AFNE01.JPG,AFNE01.JPG,AFNE01.JPG,AFNE01.JPG,AFNE01.JPG,AFNE01.JPG,,,,,,,,,,,,,4,9,49,4,,,,,,,,,,,AFSA01.jpg,AFSA09.jpg,AFNE07.jpg,AFNE20.jpg,AFNE07.jpg,FN,3,num_2,32,num_4,1.88345619268,,,2017_Aug_01_1627,59.9834352003,MAFE4ImagesEEG,001,101090,
AFNE01.JPG,AFNE01.JPG,AFNE01.JPG,AFNE01.JPG,AFNE01.JPG,AFNE01.JPG,,,,,,,,,,,,,5,0,50,4,,,,,,,,,,,AFSA07.jpg,AFSA16.jpg,AFNE02.jpg,AFNE08.jpg,AFNE02.jpg,FN,3,num_2,16,num_2,2.16665848764,,,2017_Aug_01_1627,59.9834352003,MAFE4ImagesEEG,001,101090,
AFNE01.JPG,AFNE01.JPG,AFNE01.JPG,AFNE01.JPG,AFNE01.JPG,AFNE01.JPG,,,,,,,,,,,,,5,1,51,3,,,,,,,,,,,AFSA15.jpg,AFNE07.jpg,AFNE04.jpg,AFSA12.jpg,AFSA15.jpg,FS,4,num_8,16,num_8,2.20002059173,,,2017_Aug_01_1627,59.9834352003,MAFE4ImagesEEG,001,101090,
AFNE01.JPG,AFNE01.JPG,AFNE01.JPG,AFNE01.JPG,AFNE01.JPG,AFNE01.JPG,,,,,,,,,,,,,5,2,52,6,,,,,,,,,,,AFNE08.jpg,AFNE15.jpg,AFSA15.jpg,AFSA13.jpg,AFSA15.jpg,FS,4,num_2,32,num_8,1.43340841844,,,2017_Aug_01_1627,59.9834352003,MAFE4ImagesEEG,001,101090,
AFNE01.JPG,AFNE01.JPG,AFNE01.JPG,AFNE01.JPG,AFNE01.JPG,AFNE01.JPG,,,,,,,,,,,,,5,3,53,5,,,,,,,,,,,AFSA16.jpg,AFSA17.jpg,AFNE17.jpg,AFNE13.jpg,AFNE13.jpg,FN,3,num_4,16,num_4,0.700153217651,,,2017_Aug_01_1627,59.9834352003,MAFE4ImagesEEG,001,101090,
AFNE01.JPG,AFNE01.JPG,AFNE01.JPG,AFNE01.JPG,AFNE01.JPG,AFNE01.JPG,,,,,,,,,,,,,5,4,54,2,,,,,,,,,,,AFSA19.jpg,AFNE12.jpg,AFSA07.jpg,AFNE01.jpg,AFSA19.jpg,FS,4,num_8,32,num_6,0.650162021862,,,2017_Aug_01_1627,59.9834352003,MAFE4ImagesEEG,001,101090,
AFNE01.JPG,AFNE01.JPG,AFNE01.JPG,AFNE01.JPG,AFNE01.JPG,AFNE01.JPG,,,,,,,,,,,,,5,5,55,7,,,,,,,,,,,AFSA07.jpg,AFNE07.jpg,AFNE03.jpg,AFSA18.jpg,AFSA18.jpg,FS,4,num_4,32,num_2,1.35020682937,,,2017_Aug_01_1627,59.9834352003,MAFE4ImagesEEG,001,101090,
AFNE01.JPG,AFNE01.JPG,AFNE01.JPG,AFNE01.JPG,AFNE01.JPG,AFNE01.JPG,,,,,,,,,,,,,5,6,56,1,,,,,,,,,,,AFSA13.jpg,AFNE02.jpg,AFSA17.jpg,AFNE20.jpg,AFSA13.jpg,FS,4,num_8,16,num_8,2.40000237362,,,2017_Aug_01_1627,59.9834352003,MAFE4ImagesEEG,001,101090,
AFNE01.JPG,AFNE01.JPG,AFNE01.JPG,AFNE01.JPG,AFNE01.JPG,AFNE01.JPG,,,,,,,,,,,,,5,7,57,0,,,,,,,,,,,AFNE07.jpg,AFSA08.jpg,AFSA02.jpg,AFNE08.jpg,AFSA02.jpg,FS,4,num_2,16,num_2,2.68330089049,,,2017_Aug_01_1627,59.9834352003,MAFE4ImagesEEG,001,101090,
AFNE01.JPG,AFNE01.JPG,AFNE01.JPG,AFNE01.JPG,AFNE01.JPG,AFNE01.JPG,,,,,,,,,,,,,5,8,58,8,,,,,,,,,,,AFNE03.jpg,AFSA01.jpg,AFNE12.jpg,AFSA18.jpg,AFNE12.jpg,FN,3,num_2,32,num_4,4.70011152141,,,2017_Aug_01_1627,59.9834352003,MAFE4ImagesEEG,001,101090,
AFNE01.JPG,AFNE01.JPG,AFNE01.JPG,AFNE01.JPG,AFNE01.JPG,AFNE01.JPG,,,,,,,,,,,,,5,9,59,9,,,,,,,,,,,AFSA03.jpg,AFSA10.jpg,AFNE10.jpg,AFNE17.jpg,AFNE17.jpg,FN,3,num_4,16,num_4,1.683413791,,,2017_Aug_01_1627,59.9834352003,MAFE4ImagesEEG,001,101090,
,,,,,,,,,,,,,,,,,,,,,,,,,,,,,,,,,,,,,,,,,,,space,15.449120194,2017_Aug_01_1627,59.9834352003,MAFE4ImagesEEG,001,101090,
AFNE01.JPG,AFNE01.JPG,AFNE01.JPG,AFNE01.JPG,AFNE01.JPG,AFNE01.JPG,,,,,,,,,,,,,,,,,0,0,0,3,,,,,,,AMNE03.jpg,AMSA17.jpg,AMSA19.jpg,AMNE07.jpg,AMSA17.jpg,MS,2,num_6,16,num_6,0.900126981083,,,2017_Aug_01_1627,59.9834352003,MAFE4ImagesEEG,001,101090,
AFNE01.JPG,AFNE01.JPG,AFNE01.JPG,AFNE01.JPG,AFNE01.JPG,AFNE01.JPG,,,,,,,,,,,,,,,,,0,1,1,4,,,,,,,AMNE02.jpg,AMNE03.jpg,AMSA04.jpg,AMSA19.jpg,AMSA04.jpg,MS,2,num_2,32,num_6,1.0167901034,,,2017_Aug_01_1627,59.9834352003,MAFE4ImagesEEG,001,101090,
AFNE01.JPG,AFNE01.JPG,AFNE01.JPG,AFNE01.JPG,AFNE01.JPG,AFNE01.JPG,,,,,,,,,,,,,,,,,0,2,2,8,,,,,,,AMSA04.jpg,AMNE04.jpg,AMSA18.jpg,AMNE06.jpg,AMSA18.jpg,MS,2,num_2,32,num_8,0.866782838712,,,2017_Aug_01_1627,59.9834352003,MAFE4ImagesEEG,001,101090,
AFNE01.JPG,AFNE01.JPG,AFNE01.JPG,AFNE01.JPG,AFNE01.JPG,AFNE01.JPG,,,,,,,,,,,,,,,,,0,3,3,1,,,,,,,AMNE09.jpg,AMSA07.jpg,AMNE07.jpg,AMSA14.jpg,AMNE07.jpg,MN,1,num_2,32,num_4,2.61665847176,,,2017_Aug_01_1627,59.9834352003,MAFE4ImagesEEG,001,101090,
AFNE01.JPG,AFNE01.JPG,AFNE01.JPG,AFNE01.JPG,AFNE01.JPG,AFNE01.JPG,,,,,,,,,,,,,,,,,0,4,4,7,,,,,,,AMSA20.jpg,AMNE14.jpg,AMNE03.jpg,AMSA04.jpg,AMSA04.jpg,MS,2,num_4,32,num_6,0.866770971334,,,2017_Aug_01_1627,59.9834352003,MAFE4ImagesEEG,001,101090,
AFNE01.JPG,AFNE01.JPG,AFNE01.JPG,AFNE01.JPG,AFNE01.JPG,AFNE01.JPG,,,,,,,,,,,,,,,,,0,5,5,5,,,,,,,AMSA15.jpg,AMNE06.jpg,AMNE03.jpg,AMSA03.jpg,AMSA03.jpg,MS,2,num_4,32,num_8,1.31678314344,,,2017_Aug_01_1627,59.9834352003,MAFE4ImagesEEG,001,101090,
AFNE01.JPG,AFNE01.JPG,AFNE01.JPG,AFNE01.JPG,AFNE01.JPG,AFNE01.JPG,,,,,,,,,,,,,,,,,0,6,6,0,,,,,,,AMSA08.jpg,AMNE03.jpg,AMSA06.jpg,AMNE01.jpg,AMNE01.jpg,MN,1,num_4,16,num_4,0.466781748226,,,2017_Aug_01_1627,59.9834352003,MAFE4ImagesEEG,001,101090,
AFNE01.JPG,AFNE01.JPG,AFNE01.JPG,AFNE01.JPG,AFNE01.JPG,AFNE01.JPG,,,,,,,,,,,,,,,,,0,7,7,6,,,,,,,AMNE18.jpg,AMNE09.jpg,AMSA20.jpg,AMSA10.jpg,AMSA10.jpg,MS,2,num_4,32,num_2,0.500148021616,,,2017_Aug_01_1627,59.9834352003,MAFE4ImagesEEG,001,101090,
AFNE01.JPG,AFNE01.JPG,AFNE01.JPG,AFNE01.JPG,AFNE01.JPG,AFNE01.JPG,,,,,,,,,,,,,,,,,0,8,8,9,,,,,,,AMNE01.jpg,AMSA15.jpg,AMSA11.jpg,AMNE14.jpg,AMNE01.jpg,MN,1,num_8,32,num_4,1.70010254066,,,2017_Aug_01_1627,59.9834352003,MAFE4ImagesEEG,001,101090,
AFNE01.JPG,AFNE01.JPG,AFNE01.JPG,AFNE01.JPG,AFNE01.JPG,AFNE01.JPG,,,,,,,,,,,,,,,,,0,9,9,2,,,,,,,AMNE03.jpg,AMNE12.jpg,AMSA05.jpg,AMSA08.jpg,AMNE12.jpg,MN,1,num_6,16,num_6,0.750104320701,,,2017_Aug_01_1627,59.9834352003,MAFE4ImagesEEG,001,101090,
AFNE01.JPG,AFNE01.JPG,AFNE01.JPG,AFNE01.JPG,AFNE01.JPG,AFNE01.JPG,,,,,,,,,,,,,,,,,1,0,10,1,,,,,,,AMNE09.jpg,AMNE01.jpg,AMSA08.jpg,AMSA15.jpg,AMSA15.jpg,MS,2,num_4,32,num_6,0.583470209269,,,2017_Aug_01_1627,59.9834352003,MAFE4ImagesEEG,001,101090,
AFNE01.JPG,AFNE01.JPG,AFNE01.JPG,AFNE01.JPG,AFNE01.JPG,AFNE01.JPG,,,,,,,,,,,,,,,,,1,1,11,2,,,,,,,AMSA13.jpg,AMNE16.jpg,AMSA20.jpg,AMNE01.jpg,AMNE01.jpg,MN,1,num_4,32,num_8,0.516800848302,,,2017_Aug_01_1627,59.9834352003,MAFE4ImagesEEG,001,101090,
AFNE01.JPG,AFNE01.JPG,AFNE01.JPG,AFNE01.JPG,AFNE01.JPG,AFNE01.JPG,,,,,,,,,,,,,,,,,1,2,12,7,,,,,,,AMNE16.jpg,AMSA02.jpg,AMSA11.jpg,AMNE05.jpg,AMSA02.jpg,MS,2,num_6,32,num_8,0.500174963847,,,2017_Aug_01_1627,59.9834352003,MAFE4ImagesEEG,001,101090,
AFNE01.JPG,AFNE01.JPG,AFNE01.JPG,AFNE01.JPG,AFNE01.JPG,AFNE01.JPG,,,,,,,,,,,,,,,,,1,3,13,0,,,,,,,AMSA18.jpg,AMNE09.jpg,AMSA06.jpg,AMNE14.jpg,AMNE09.jpg,MN,1,num_6,16,num_6,0.816844885936,,,2017_Aug_01_1627,59.9834352003,MAFE4ImagesEEG,001,101090,
AFNE01.JPG,AFNE01.JPG,AFNE01.JPG,AFNE01.JPG,AFNE01.JPG,AFNE01.JPG,,,,,,,,,,,,,,,,,1,4,14,8,,,,,,,AMNE10.jpg,AMSA14.jpg,AMNE07.jpg,AMSA07.jpg,AMNE07.jpg,MN,1,num_2,32,num_8,0.566876077792,,,2017_Aug_01_1627,59.9834352003,MAFE4ImagesEEG,001,101090,
AFNE01.JPG,AFNE01.JPG,AFNE01.JPG,AFNE01.JPG,AFNE01.JPG,AFNE01.JPG,,,,,,,,,,,,,,,,,1,5,15,5,,,,,,,AMNE09.jpg,AMNE20.jpg,AMSA17.jpg,AMSA01.jpg,AMSA01.jpg,MS,2,num_4,16,num_4,1.0167984427,,,2017_Aug_01_1627,59.9834352003,MAFE4ImagesEEG,001,101090,
AFNE01.JPG,AFNE01.JPG,AFNE01.JPG,AFNE01.JPG,AFNE01.JPG,AFNE01.JPG,,,,,,,,,,,,,,,,,1,6,16,4,,,,,,,AMNE10.jpg,AMNE13.jpg,AMSA05.jpg,AMSA17.jpg,AMSA17.jpg,MS,2,num_4,32,num_6,1.85035869968,,,2017_Aug_01_1627,59.9834352003,MAFE4ImagesEEG,001,101090,
AFNE01.JPG,AFNE01.JPG,AFNE01.JPG,AFNE01.JPG,AFNE01.JPG,AFNE01.JPG,,,,,,,,,,,,,,,,,1,7,17,6,,,,,,,AMSA20.jpg,AMNE02.jpg,AMNE10.jpg,AMSA02.jpg,AMSA02.jpg,MS,2,num_4,32,num_6,0.583486246178,,,2017_Aug_01_1627,59.9834352003,MAFE4ImagesEEG,001,101090,
AFNE01.JPG,AFNE01.JPG,AFNE01.JPG,AFNE01.JPG,AFNE01.JPG,AFNE01.JPG,,,,,,,,,,,,,,,,,1,8,18,9,,,,,,,AMSA07.jpg,AMNE17.jpg,AMSA13.jpg,AMNE13.jpg,AMSA13.jpg,MS,2,num_2,32,num_8,0.633495082613,,,2017_Aug_01_1627,59.9834352003,MAFE4ImagesEEG,001,101090,
AFNE01.JPG,AFNE01.JPG,AFNE01.JPG,AFNE01.JPG,AFNE01.JPG,AFNE01.JPG,,,,,,,,,,,,,,,,,1,9,19,3,,,,,,,AMNE20.jpg,AMSA06.jpg,AMNE11.jpg,AMSA07.jpg,AMSA06.jpg,MS,2,num_6,32,num_2,0.866748840315,,,2017_Aug_01_1627,59.9834352003,MAFE4ImagesEEG,001,101090,
AFNE01.JPG,AFNE01.JPG,AFNE01.JPG,AFNE01.JPG,AFNE01.JPG,AFNE01.JPG,,,,,,,,,,,,,,,,,2,0,20,4,,,,,,,AMSA15.jpg,AMNE08.jpg,AMSA20.jpg,AMNE04.jpg,AMNE08.jpg,MN,1,num_6,16,num_6,0.566474832129,,,2017_Aug_01_1627,59.9834352003,MAFE4ImagesEEG,001,101090,
AFNE01.JPG,AFNE01.JPG,AFNE01.JPG,AFNE01.JPG,AFNE01.JPG,AFNE01.JPG,,,,,,,,,,,,,,,,,2,1,21,1,,,,,,,AMSA16.jpg,AMNE15.jpg,AMNE20.jpg,AMSA10.jpg,AMNE20.jpg,MN,1,num_2,32,num_4,0.600141959498,,,2017_Aug_01_1627,59.9834352003,MAFE4ImagesEEG,001,101090,
AFNE01.JPG,AFNE01.JPG,AFNE01.JPG,AFNE01.JPG,AFNE01.JPG,AFNE01.JPG,,,,,,,,,,,,,,,,,2,2,22,7,,,,,,,AMSA19.jpg,AMNE13.jpg,AMNE20.jpg,AMSA15.jpg,AMSA15.jpg,MS,2,num_4,32,num_8,0.583691840759,,,2017_Aug_01_1627,59.9834352003,MAFE4ImagesEEG,001,101090,
AFNE01.JPG,AFNE01.JPG,AFNE01.JPG,AFNE01.JPG,AFNE01.JPG,AFNE01.JPG,,,,,,,,,,,,,,,,,2,3,23,9,,,,,,,AMNE07.jpg,AMNE17.jpg,AMSA12.jpg,AMSA20.jpg,AMSA20.jpg,MS,2,num_4,16,num_4,0.616805370664,,,2017_Aug_01_1627,59.9834352003,MAFE4ImagesEEG,001,101090,
AFNE01.JPG,AFNE01.JPG,AFNE01.JPG,AFNE01.JPG,AFNE01.JPG,AFNE01.JPG,,,,,,,,,,,,,,,,,2,4,24,8,,,,,,,AMSA09.jpg,AMNE12.jpg,AMNE02.jpg,AMSA10.jpg,AMNE02.jpg,MN,1,num_2,16,num_2,0.616841935087,,,2017_Aug_01_1627,59.9834352003,MAFE4ImagesEEG,001,101090,
AFNE01.JPG,AFNE01.JPG,AFNE01.JPG,AFNE01.JPG,AFNE01.JPG,AFNE01.JPG,,,,,,,,,,,,,,,,,2,5,25,5,,,,,,,AMNE11.jpg,AMSA01.jpg,AMSA03.jpg,AMNE17.jpg,AMNE11.jpg,MN,1,num_8,32,num_2,0.950184569927,,,2017_Aug_01_1627,59.9834352003,MAFE4ImagesEEG,001,101090,
AFNE01.JPG,AFNE01.JPG,AFNE01.JPG,AFNE01.JPG,AFNE01.JPG,AFNE01.JPG,,,,,,,,,,,,,,,,,2,6,26,3,,,,,,,AMNE02.jpg,AMSA12.jpg,AMNE09.jpg,AMSA07.jpg,AMSA07.jpg,MS,2,num_4,16,num_4,0.700150330784,,,2017_Aug_01_1627,59.9834352003,MAFE4ImagesEEG,001,101090,
AFNE01.JPG,AFNE01.JPG,AFNE01.JPG,AFNE01.JPG,AFNE01.JPG,AFNE01.JPG,,,,,,,,,,,,,,,,,2,7,27,0,,,,,,,AMNE04.jpg,AMSA02.jpg,AMNE09.jpg,AMSA20.jpg,AMNE04.jpg,MN,1,num_8,32,num_6,0.666857506847,,,2017_Aug_01_1627,59.9834352003,MAFE4ImagesEEG,001,101090,
AFNE01.JPG,AFNE01.JPG,AFNE01.JPG,AFNE01.JPG,AFNE01.JPG,AFNE01.JPG,,,,,,,,,,,,,,,,,2,8,28,6,,,,,,,AMNE01.jpg,AMSA15.jpg,AMNE15.jpg,AMSA11.jpg,AMSA15.jpg,MS,2,num_6,32,num_8,1.21675135801,,,2017_Aug_01_1627,59.9834352003,MAFE4ImagesEEG,001,101090,
AFNE01.JPG,AFNE01.JPG,AFNE01.JPG,AFNE01.JPG,AFNE01.JPG,AFNE01.JPG,,,,,,,,,,,,,,,,,2,9,29,2,,,,,,,AMSA05.jpg,AMNE05.jpg,AMNE18.jpg,AMSA06.jpg,AMNE18.jpg,MN,1,num_2,32,num_4,0.433480264386,,,2017_Aug_01_1627,59.9834352003,MAFE4ImagesEEG,001,101090,
AFNE01.JPG,AFNE01.JPG,AFNE01.JPG,AFNE01.JPG,AFNE01.JPG,AFNE01.JPG,,,,,,,,,,,,,,,,,3,0,30,2,,,,,,,AMNE18.jpg,AMSA05.jpg,AMNE12.jpg,AMSA03.jpg,AMSA03.jpg,MS,2,num_4,32,num_6,1.18345596828,,,2017_Aug_01_1627,59.9834352003,MAFE4ImagesEEG,001,101090,
AFNE01.JPG,AFNE01.JPG,AFNE01.JPG,AFNE01.JPG,AFNE01.JPG,AFNE01.JPG,,,,,,,,,,,,,,,,,3,1,31,5,,,,,,,AMSA17.jpg,AMSA18.jpg,AMNE13.jpg,AMNE05.jpg,AMNE13.jpg,MN,1,num_2,32,num_4,0.950114648556,,,2017_Aug_01_1627,59.9834352003,MAFE4ImagesEEG,001,101090,
AFNE01.JPG,AFNE01.JPG,AFNE01.JPG,AFNE01.JPG,AFNE01.JPG,AFNE01.JPG,,,,,,,,,,,,,,,,,3,2,32,3,,,,,,,AMSA05.jpg,AMNE16.jpg,AMNE13.jpg,AMSA15.jpg,AMNE16.jpg,MN,1,num_6,16,num_6,0.550188611262,,,2017_Aug_01_1627,59.9834352003,MAFE4ImagesEEG,001,101090,
AFNE01.JPG,AFNE01.JPG,AFNE01.JPG,AFNE01.JPG,AFNE01.JPG,AFNE01.JPG,,,,,,,,,,,,,,,,,3,3,33,0,,,,,,,AMNE02.jpg,AMSA20.jpg,AMNE15.jpg,AMSA07.jpg,AMSA07.jpg,MS,2,num_4,32,num_2,0.483517646557,,,2017_Aug_01_1627,59.9834352003,MAFE4ImagesEEG,001,101090,
AFNE01.JPG,AFNE01.JPG,AFNE01.JPG,AFNE01.JPG,AFNE01.JPG,AFNE01.JPG,,,,,,,,,,,,,,,,,3,4,34,1,,,,,,,AMSA04.jpg,AMNE18.jpg,AMSA12.jpg,AMNE09.jpg,AMSA12.jpg,MS,2,num_2,32,num_6,0.666772831697,,,2017_Aug_01_1627,59.9834352003,MAFE4ImagesEEG,001,101090,
AFNE01.JPG,AFNE01.JPG,AFNE01.JPG,AFNE01.JPG,AFNE01.JPG,AFNE01.JPG,,,,,,,,,,,,,,,,,3,5,35,7,,,,,,,AMSA01.jpg,AMNE16.jpg,AMSA05.jpg,AMNE01.jpg,AMSA05.jpg,MS,2,num_2,32,num_6,1.35010387166,,,2017_Aug_01_1627,59.9834352003,MAFE4ImagesEEG,001,101090,
AFNE01.JPG,AFNE01.JPG,AFNE01.JPG,AFNE01.JPG,AFNE01.JPG,AFNE01.JPG,,,,,,,,,,,,,,,,,3,6,36,4,,,,,,,AMSA04.jpg,AMNE11.jpg,AMNE17.jpg,AMSA18.jpg,AMNE17.jpg,MN,1,num_2,32,num_6,0.73346945527,,,2017_Aug_01_1627,59.9834352003,MAFE4ImagesEEG,001,101090,
AFNE01.JPG,AFNE01.JPG,AFNE01.JPG,AFNE01.JPG,AFNE01.JPG,AFNE01.JPG,,,,,,,,,,,,,,,,,3,7,37,6,,,,,,,AMSA11.jpg,AMNE12.jpg,AMSA06.jpg,AMNE14.jpg,AMNE12.jpg,MN,1,num_6,32,num_4,1.20006998559,,,2017_Aug_01_1627,59.9834352003,MAFE4ImagesEEG,001,101090,
AFNE01.JPG,AFNE01.JPG,AFNE01.JPG,AFNE01.JPG,AFNE01.JPG,AFNE01.JPG,,,,,,,,,,,,,,,,,3,8,38,9,,,,,,,AMNE16.jpg,AMSA09.jpg,AMNE07.jpg,AMSA06.jpg,AMNE16.jpg,MN,1,num_8,32,num_4,1.550124784,,,2017_Aug_01_1627,59.9834352003,MAFE4ImagesEEG,001,101090,
AFNE01.JPG,AFNE01.JPG,AFNE01.JPG,AFNE01.JPG,AFNE01.JPG,AFNE01.JPG,,,,,,,,,,,,,,,,,3,9,39,8,,,,,,,AMSA19.jpg,AMNE09.jpg,AMSA14.jpg,AMNE17.jpg,AMNE09.jpg,MN,1,num_6,32,num_2,1.40007518162,,,2017_Aug_01_1627,59.9834352003,MAFE4ImagesEEG,001,101090,
AFNE01.JPG,AFNE01.JPG,AFNE01.JPG,AFNE01.JPG,AFNE01.JPG,AFNE01.JPG,,,,,,,,,,,,,,,,,4,0,40,2,,,,,,,AMNE06.jpg,AMSA14.jpg,AMNE02.jpg,AMSA02.jpg,AMSA02.jpg,MS,2,num_4,32,num_6,0.966841566144,,,2017_Aug_01_1627,59.9834352003,MAFE4ImagesEEG,001,101090,
AFNE01.JPG,AFNE01.JPG,AFNE01.JPG,AFNE01.JPG,AFNE01.JPG,AFNE01.JPG,,,,,,,,,,,,,,,,,4,1,41,4,,,,,,,AMSA09.jpg,AMNE20.jpg,AMSA12.jpg,AMNE09.jpg,AMNE09.jpg,MN,1,num_4,32,num_6,1.36674130289,,,2017_Aug_01_1627,59.9834352003,MAFE4ImagesEEG,001,101090,
AFNE01.JPG,AFNE01.JPG,AFNE01.JPG,AFNE01.JPG,AFNE01.JPG,AFNE01.JPG,,,,,,,,,,,,,,,,,4,2,42,1,,,,,,,AMSA20.jpg,AMNE18.jpg,AMNE01.jpg,AMSA16.jpg,AMNE18.jpg,MN,1,num_6,16,num_6,1.03351285169,,,2017_Aug_01_1627,59.9834352003,MAFE4ImagesEEG,001,101090,
AFNE01.JPG,AFNE01.JPG,AFNE01.JPG,AFNE01.JPG,AFNE01.JPG,AFNE01.JPG,,,,,,,,,,,,,,,,,4,3,43,5,,,,,,,AMSA13.jpg,AMNE09.jpg,AMSA16.jpg,AMNE20.jpg,AMSA16.jpg,MS,2,num_2,16,num_2,1.85025317618,,,2017_Aug_01_1627,59.9834352003,MAFE4ImagesEEG,001,101090,
AFNE01.JPG,AFNE01.JPG,AFNE01.JPG,AFNE01.JPG,AFNE01.JPG,AFNE01.JPG,,,,,,,,,,,,,,,,,4,4,44,9,,,,,,,AMNE16.jpg,AMNE20.jpg,AMSA05.jpg,AMSA17.jpg,AMNE16.jpg,MN,1,num_8,16,num_8,1.5166940419,,,2017_Aug_01_1627,59.9834352003,MAFE4ImagesEEG,001,101090,
AFNE01.JPG,AFNE01.JPG,AFNE01.JPG,AFNE01.JPG,AFNE01.JPG,AFNE01.JPG,,,,,,,,,,,,,,,,,4,5,45,8,,,,,,,AMNE15.jpg,AMSA05.jpg,AMNE09.jpg,AMSA13.jpg,AMSA05.jpg,MS,2,num_6,32,num_2,1.51676139724,,,2017_Aug_01_1627,59.9834352003,MAFE4ImagesEEG,001,101090,
AFNE01.JPG,AFNE01.JPG,AFNE01.JPG,AFNE01.JPG,AFNE01.JPG,AFNE01.JPG,,,,,,,,,,,,,,,,,4,6,46,6,,,,,,,AMNE13.jpg,AMSA03.jpg,AMSA18.jpg,AMNE01.jpg,AMSA03.jpg,MS,2,num_6,32,num_4,2.76631131861,,,2017_Aug_01_1627,59.9834352003,MAFE4ImagesEEG,001,101090,
AFNE01.JPG,AFNE01.JPG,AFNE01.JPG,AFNE01.JPG,AFNE01.JPG,AFNE01.JPG,,,,,,,,,,,,,,,,,4,7,47,7,,,,,,,AMSA14.jpg,AMSA10.jpg,AMNE17.jpg,AMNE12.jpg,AMNE12.jpg,MN,1,num_4,32,num_6,0.666790793184,,,2017_Aug_01_1627,59.9834352003,MAFE4ImagesEEG,001,101090,
AFNE01.JPG,AFNE01.JPG,AFNE01.JPG,AFNE01.JPG,AFNE01.JPG,AFNE01.JPG,,,,,,,,,,,,,,,,,4,8,48,0,,,,,,,AMNE07.jpg,AMSA10.jpg,AMSA02.jpg,AMNE06.jpg,AMSA10.jpg,MS,2,num_6,16,num_6,1.01680293307,,,2017_Aug_01_1627,59.9834352003,MAFE4ImagesEEG,001,101090,
AFNE01.JPG,AFNE01.JPG,AFNE01.JPG,AFNE01.JPG,AFNE01.JPG,AFNE01.JPG,,,,,,,,,,,,,,,,,4,9,49,3,,,,,,,AMSA01.jpg,AMNE06.jpg,AMSA08.jpg,AMNE11.jpg,AMSA01.jpg,MS,2,num_8,32,num_4,0.750441739336,,,2017_Aug_01_1627,59.9834352003,MAFE4ImagesEEG,001,101090,
AFNE01.JPG,AFNE01.JPG,AFNE01.JPG,AFNE01.JPG,AFNE01.JPG,AFNE01.JPG,,,,,,,,,,,,,,,,,5,0,50,7,,,,,,,AMSA18.jpg,AMNE10.jpg,AMSA16.jpg,AMNE05.jpg,AMNE10.jpg,MN,1,num_6,32,num_8,0.883462928468,,,2017_Aug_01_1627,59.9834352003,MAFE4ImagesEEG,001,101090,
AFNE01.JPG,AFNE01.JPG,AFNE01.JPG,AFNE01.JPG,AFNE01.JPG,AFNE01.JPG,,,,,,,,,,,,,,,,,5,1,51,2,,,,,,,AMSA12.jpg,AMSA06.jpg,AMNE15.jpg,AMNE20.jpg,AMNE20.jpg,MN,1,num_4,32,num_6,0.933459897526,,,2017_Aug_01_1627,59.9834352003,MAFE4ImagesEEG,001,101090,
AFNE01.JPG,AFNE01.JPG,AFNE01.JPG,AFNE01.JPG,AFNE01.JPG,AFNE01.JPG,,,,,,,,,,,,,,,,,5,2,52,1,,,,,,,AMSA05.jpg,AMSA01.jpg,AMNE02.jpg,AMNE19.jpg,AMNE19.jpg,MN,1,num_4,16,num_4,1.21658810135,,,2017_Aug_01_1627,59.9834352003,MAFE4ImagesEEG,001,101090,
AFNE01.JPG,AFNE01.JPG,AFNE01.JPG,AFNE01.JPG,AFNE01.JPG,AFNE01.JPG,,,,,,,,,,,,,,,,,5,3,53,0,,,,,,,AMNE03.jpg,AMNE11.jpg,AMSA19.jpg,AMSA03.jpg,AMNE03.jpg,MN,1,num_8,32,num_6,1.20014792541,,,2017_Aug_01_1627,59.9834352003,MAFE4ImagesEEG,001,101090,
AFNE01.JPG,AFNE01.JPG,AFNE01.JPG,AFNE01.JPG,AFNE01.JPG,AFNE01.JPG,,,,,,,,,,,,,,,,,5,4,54,8,,,,,,,AMNE14.jpg,AMNE03.jpg,AMSA10.jpg,AMSA12.jpg,AMSA10.jpg,MS,2,num_2,32,num_8,0.783480857732,,,2017_Aug_01_1627,59.9834352003,MAFE4ImagesEEG,001,101090,
AFNE01.JPG,AFNE01.JPG,AFNE01.JPG,AFNE01.JPG,AFNE01.JPG,AFNE01.JPG,,,,,,,,,,,,,,,,,5,5,55,3,,,,,,,AMNE10.jpg,AMNE07.jpg,AMSA10.jpg,AMSA12.jpg,AMNE10.jpg,MN,1,num_8,32,num_6,0.833482317161,,,2017_Aug_01_1627,59.9834352003,MAFE4ImagesEEG,001,101090,
AFNE01.JPG,AFNE01.JPG,AFNE01.JPG,AFNE01.JPG,AFNE01.JPG,AFNE01.JPG,,,,,,,,,,,,,,,,,5,6,56,5,,,,,,,AMSA01.jpg,AMNE01.jpg,AMSA16.jpg,AMNE09.jpg,AMNE09.jpg,MN,1,num_4,32,num_6,2.15009129886,,,2017_Aug_01_1627,59.9834352003,MAFE4ImagesEEG,001,101090,
AFNE01.JPG,AFNE01.JPG,AFNE01.JPG,AFNE01.JPG,AFNE01.JPG,AFNE01.JPG,,,,,,,,,,,,,,,,,5,7,57,9,,,,,,,AMNE14.jpg,AMNE04.jpg,AMSA09.jpg,AMSA06.jpg,AMSA09.jpg,MS,2,num_2,32,num_4,2.0334477413,,,2017_Aug_01_1627,59.9834352003,MAFE4ImagesEEG,001,101090,
AFNE01.JPG,AFNE01.JPG,AFNE01.JPG,AFNE01.JPG,AFNE01.JPG,AFNE01.JPG,,,,,,,,,,,,,,,,,5,8,58,4,,,,,,,AMNE14.jpg,AMNE10.jpg,AMSA08.jpg,AMSA01.jpg,AMSA08.jpg,MS,2,num_2,32,num_6,2.08336420474,,,2017_Aug_01_1627,59.9834352003,MAFE4ImagesEEG,001,101090,
AFNE01.JPG,AFNE01.JPG,AFNE01.JPG,AFNE01.JPG,AFNE01.JPG,AFNE01.JPG,,,,,,,,,,,,,,,,,5,9,59,6,,,,,,,AMNE08.jpg,AMSA20.jpg,AMSA07.jpg,AMNE12.jpg,AMNE08.jpg,MN,1,num_8,32,num_4,0.816800623899,,,2017_Aug_01_1627,59.9834352003,MAFE4ImagesEEG,001,101090,
,,,,,,,,,,,,,,,,,,,,,,,,,,,,,,,,,,,,,,,,,,,space,1.78334807139,2017_Aug_01_1627,59.9834352003,MAFE4ImagesEEG,001,101090,
AFNE01.JPG,AFNE01.JPG,AFNE01.JPG,AFNE01.JPG,AFNE01.JPG,AFNE01.JPG,,,,,,,,,,,,,,,,,,,,,0,0,0,5,,,AFSA17.jpg,AFNE11.jpg,AFNE03.jpg,AFSA20.jpg,AFSA20.jpg,FS,4,num_4,16,num_4,0.850126163103,,,2017_Aug_01_1627,59.9834352003,MAFE4ImagesEEG,001,101090,
AFNE01.JPG,AFNE01.JPG,AFNE01.JPG,AFNE01.JPG,AFNE01.JPG,AFNE01.JPG,,,,,,,,,,,,,,,,,,,,,0,1,1,8,,,AFNE12.jpg,AFSA14.jpg,AFNE02.jpg,AFSA02.jpg,AFSA02.jpg,FS,4,num_4,16,num_4,0.6335229869,,,2017_Aug_01_1627,59.9834352003,MAFE4ImagesEEG,001,101090,
AFNE01.JPG,AFNE01.JPG,AFNE01.JPG,AFNE01.JPG,AFNE01.JPG,AFNE01.JPG,,,,,,,,,,,,,,,,,,,,,0,2,2,1,,,AFSA13.jpg,AFNE15.jpg,AFNE20.jpg,AFSA11.jpg,AFNE20.jpg,FN,3,num_2,32,num_6,0.983443395467,,,2017_Aug_01_1627,59.9834352003,MAFE4ImagesEEG,001,101090,
AFNE01.JPG,AFNE01.JPG,AFNE01.JPG,AFNE01.JPG,AFNE01.JPG,AFNE01.JPG,,,,,,,,,,,,,,,,,,,,,0,3,3,3,,,AFNE01.jpg,AFSA01.jpg,AFNE18.jpg,AFSA16.jpg,AFSA16.jpg,FS,4,num_4,32,num_8,0.967147552408,,,2017_Aug_01_1627,59.9834352003,MAFE4ImagesEEG,001,101090,
AFNE01.JPG,AFNE01.JPG,AFNE01.JPG,AFNE01.JPG,AFNE01.JPG,AFNE01.JPG,,,,,,,,,,,,,,,,,,,,,0,4,4,9,,,AFSA08.jpg,AFNE03.jpg,AFSA19.jpg,AFNE09.jpg,AFSA19.jpg,FS,4,num_2,32,num_8,3.01662460179,,,2017_Aug_01_1627,59.9834352003,MAFE4ImagesEEG,001,101090,
AFNE01.JPG,AFNE01.JPG,AFNE01.JPG,AFNE01.JPG,AFNE01.JPG,AFNE01.JPG,,,,,,,,,,,,,,,,,,,,,0,5,5,0,,,AFNE20.jpg,AFNE06.jpg,AFSA10.jpg,AFSA20.jpg,AFSA10.jpg,FS,4,num_2,32,num_4,0.833590727299,,,2017_Aug_01_1627,59.9834352003,MAFE4ImagesEEG,001,101090,
AFNE01.JPG,AFNE01.JPG,AFNE01.JPG,AFNE01.JPG,AFNE01.JPG,AFNE01.JPG,,,,,,,,,,,,,,,,,,,,,0,6,6,7,,,AFNE13.jpg,AFSA02.jpg,AFNE04.jpg,AFSA16.jpg,AFSA16.jpg,FS,4,num_4,32,num_8,0.76675105351,,,2017_Aug_01_1627,59.9834352003,MAFE4ImagesEEG,001,101090,
AFNE01.JPG,AFNE01.JPG,AFNE01.JPG,AFNE01.JPG,AFNE01.JPG,AFNE01.JPG,,,,,,,,,,,,,,,,,,,,,0,7,7,2,,,AFNE05.jpg,AFNE15.jpg,AFSA03.jpg,AFSA20.jpg,AFSA20.jpg,FS,4,num_4,32,num_6,0.716908681206,,,2017_Aug_01_1627,59.9834352003,MAFE4ImagesEEG,001,101090,
AFNE01.JPG,AFNE01.JPG,AFNE01.JPG,AFNE01.JPG,AFNE01.JPG,AFNE01.JPG,,,,,,,,,,,,,,,,,,,,,0,8,8,4,,,AFSA03.jpg,AFSA06.jpg,AFNE09.jpg,AFNE14.jpg,AFSA03.jpg,FS,4,num_8,32,num_4,1.11679943698,,,2017_Aug_01_1627,59.9834352003,MAFE4ImagesEEG,001,101090,
AFNE01.JPG,AFNE01.JPG,AFNE01.JPG,AFNE01.JPG,AFNE01.JPG,AFNE01.JPG,,,,,,,,,,,,,,,,,,,,,0,9,9,6,,,AFSA19.jpg,AFNE01.jpg,AFSA07.jpg,AFNE15.jpg,AFNE01.jpg,FN,3,num_6,16,num_6,0.766792108072,,,2017_Aug_01_1627,59.9834352003,MAFE4ImagesEEG,001,101090,
AFNE01.JPG,AFNE01.JPG,AFNE01.JPG,AFNE01.JPG,AFNE01.JPG,AFNE01.JPG,,,,,,,,,,,,,,,,,,,,,1,0,10,2,,,AFNE16.jpg,AFSA18.jpg,AFNE15.jpg,AFSA13.jpg,AFSA13.jpg,FS,4,num_4,32,num_8,0.816642819671,,,2017_Aug_01_1627,59.9834352003,MAFE4ImagesEEG,001,101090,
AFNE01.JPG,AFNE01.JPG,AFNE01.JPG,AFNE01.JPG,AFNE01.JPG,AFNE01.JPG,,,,,,,,,,,,,,,,,,,,,1,1,11,5,,,AFNE01.jpg,AFSA06.jpg,AFSA08.jpg,AFNE07.jpg,AFSA06.jpg,FS,4,num_6,32,num_8,4.24988284963,,,2017_Aug_01_1627,59.9834352003,MAFE4ImagesEEG,001,101090,
AFNE01.JPG,AFNE01.JPG,AFNE01.JPG,AFNE01.JPG,AFNE01.JPG,AFNE01.JPG,,,,,,,,,,,,,,,,,,,,,1,2,12,1,,,AFNE12.jpg,AFNE08.jpg,AFSA16.jpg,AFSA04.jpg,AFNE12.jpg,FN,3,num_8,32,num_2,1.95004055765,,,2017_Aug_01_1627,59.9834352003,MAFE4ImagesEEG,001,101090,
AFNE01.JPG,AFNE01.JPG,AFNE01.JPG,AFNE01.JPG,AFNE01.JPG,AFNE01.JPG,,,,,,,,,,,,,,,,,,,,,1,3,13,6,,,AFSA03.jpg,AFNE03.jpg,AFNE07.jpg,AFSA13.jpg,AFSA03.jpg,FS,4,num_8,32,num_4,2.56663199468,,,2017_Aug_01_1627,59.9834352003,MAFE4ImagesEEG,001,101090,
AFNE01.JPG,AFNE01.JPG,AFNE01.JPG,AFNE01.JPG,AFNE01.JPG,AFNE01.JPG,,,,,,,,,,,,,,,,,,,,,1,4,14,7,,,AFSA14.jpg,AFSA12.jpg,AFNE17.jpg,AFNE02.jpg,AFSA12.jpg,FS,4,num_6,16,num_6,0.600209315075,,,2017_Aug_01_1627,59.9834352003,MAFE4ImagesEEG,001,101090,
AFNE01.JPG,AFNE01.JPG,AFNE01.JPG,AFNE01.JPG,AFNE01.JPG,AFNE01.JPG,,,,,,,,,,,,,,,,,,,,,1,5,15,9,,,AFSA17.jpg,AFNE10.jpg,AFNE09.jpg,AFSA12.jpg,AFNE10.jpg,FN,3,num_6,32,num_8,3.14995081443,,,2017_Aug_01_1627,59.9834352003,MAFE4ImagesEEG,001,101090,
AFNE01.JPG,AFNE01.JPG,AFNE01.JPG,AFNE01.JPG,AFNE01.JPG,AFNE01.JPG,,,,,,,,,,,,,,,,,,,,,1,6,16,8,,,AFSA15.jpg,AFSA07.jpg,AFNE09.jpg,AFNE02.jpg,AFNE02.jpg,FN,3,num_4,32,num_2,1.31645983737,,,2017_Aug_01_1627,59.9834352003,MAFE4ImagesEEG,001,101090,
AFNE01.JPG,AFNE01.JPG,AFNE01.JPG,AFNE01.JPG,AFNE01.JPG,AFNE01.JPG,,,,,,,,,,,,,,,,,,,,,1,7,17,0,,,AFSA01.jpg,AFNE17.jpg,AFNE13.jpg,AFSA10.jpg,AFSA10.jpg,FS,4,num_4,32,num_8,0.733437381452,,,2017_Aug_01_1627,59.9834352003,MAFE4ImagesEEG,001,101090,
AFNE01.JPG,AFNE01.JPG,AFNE01.JPG,AFNE01.JPG,AFNE01.JPG,AFNE01.JPG,,,,,,,,,,,,,,,,,,,,,1,8,18,4,,,AFSA14.jpg,AFNE14.jpg,AFNE08.jpg,AFSA08.jpg,AFNE14.jpg,FN,3,num_6,16,num_6,0.766804937739,,,2017_Aug_01_1627,59.9834352003,MAFE4ImagesEEG,001,101090,
AFNE01.JPG,AFNE01.JPG,AFNE01.JPG,AFNE01.JPG,AFNE01.JPG,AFNE01.JPG,,,,,,,,,,,,,,,,,,,,,1,9,19,3,,,AFSA19.jpg,AFSA14.jpg,AFNE04.jpg,AFNE11.jpg,AFNE04.jpg,FN,3,num_2,32,num_8,0.633492837427,,,2017_Aug_01_1627,59.9834352003,MAFE4ImagesEEG,001,101090,
AFNE01.JPG,AFNE01.JPG,AFNE01.JPG,AFNE01.JPG,AFNE01.JPG,AFNE01.JPG,,,,,,,,,,,,,,,,,,,,,2,0,20,8,,,AFSA03.jpg,AFNE08.jpg,AFSA11.jpg,AFNE06.jpg,AFNE06.jpg,FN,3,num_4,32,num_6,0.816778492881,,,2017_Aug_01_1627,59.9834352003,MAFE4ImagesEEG,001,101090,
AFNE01.JPG,AFNE01.JPG,AFNE01.JPG,AFNE01.JPG,AFNE01.JPG,AFNE01.JPG,,,,,,,,,,,,,,,,,,,,,2,1,21,3,,,AFSA07.jpg,AFNE11.jpg,AFSA01.jpg,AFNE05.jpg,AFNE05.jpg,FN,3,num_4,32,num_6,1.46671856241,,,2017_Aug_01_1627,59.9834352003,MAFE4ImagesEEG,001,101090,
AFNE01.JPG,AFNE01.JPG,AFNE01.JPG,AFNE01.JPG,AFNE01.JPG,AFNE01.JPG,,,,,,,,,,,,,,,,,,,,,2,2,22,2,,,AFSA16.jpg,AFNE10.jpg,AFNE06.jpg,AFSA08.jpg,AFSA08.jpg,FS,4,num_4,32,num_6,2.23336954508,,,2017_Aug_01_1627,59.9834352003,MAFE4ImagesEEG,001,101090,
AFNE01.JPG,AFNE01.JPG,AFNE01.JPG,AFNE01.JPG,AFNE01.JPG,AFNE01.JPG,,,,,,,,,,,,,,,,,,,,,2,3,23,0,,,AFSA03.jpg,AFNE17.jpg,AFNE03.jpg,AFSA06.jpg,AFNE03.jpg,FN,3,num_2,32,num_4,3.31660288759,,,2017_Aug_01_1627,59.9834352003,MAFE4ImagesEEG,001,101090,
AFNE01.JPG,AFNE01.JPG,AFNE01.JPG,AFNE01.JPG,AFNE01.JPG,AFNE01.JPG,,,,,,,,,,,,,,,,,,,,,2,4,24,7,,,AFNE15.jpg,AFSA12.jpg,AFSA13.jpg,AFNE17.jpg,AFNE17.jpg,FN,3,num_4,32,num_8,0.833508297103,,,2017_Aug_01_1627,59.9834352003,MAFE4ImagesEEG,001,101090,
AFNE01.JPG,AFNE01.JPG,AFNE01.JPG,AFNE01.JPG,AFNE01.JPG,AFNE01.JPG,,,,,,,,,,,,,,,,,,,,,2,5,25,6,,,AFNE18.jpg,AFSA10.jpg,AFNE03.jpg,AFSA09.jpg,AFSA09.jpg,FS,4,num_4,32,num_6,0.783607871039,,,2017_Aug_01_1627,59.9834352003,MAFE4ImagesEEG,001,101090,
AFNE01.JPG,AFNE01.JPG,AFNE01.JPG,AFNE01.JPG,AFNE01.JPG,AFNE01.JPG,,,,,,,,,,,,,,,,,,,,,2,6,26,1,,,AFSA03.jpg,AFNE01.jpg,AFNE16.jpg,AFSA18.jpg,AFSA03.jpg,FS,4,num_8,32,num_4,0.783486951841,,,2017_Aug_01_1627,59.9834352003,MAFE4ImagesEEG,001,101090,
AFNE01.JPG,AFNE01.JPG,AFNE01.JPG,AFNE01.JPG,AFNE01.JPG,AFNE01.JPG,,,,,,,,,,,,,,,,,,,,,2,7,27,4,,,AFSA19.jpg,AFNE13.jpg,AFNE14.jpg,AFSA20.jpg,AFSA19.jpg,FS,4,num_8,48,None,,,,2017_Aug_01_1627,59.9834352003,MAFE4ImagesEEG,001,101090,
AFNE01.JPG,AFNE01.JPG,AFNE01.JPG,AFNE01.JPG,AFNE01.JPG,AFNE01.JPG,,,,,,,,,,,,,,,,,,,,,2,8,28,5,,,AFNE07.jpg,AFNE06.jpg,AFSA15.jpg,AFSA14.jpg,AFNE07.jpg,FN,3,num_8,32,num_2,3.1333230054,,,2017_Aug_01_1627,59.9834352003,MAFE4ImagesEEG,001,101090,
AFNE01.JPG,AFNE01.JPG,AFNE01.JPG,AFNE01.JPG,AFNE01.JPG,AFNE01.JPG,,,,,,,,,,,,,,,,,,,,,2,9,29,9,,,AFNE05.jpg,AFNE04.jpg,AFSA15.jpg,AFSA09.jpg,AFSA15.jpg,FS,4,num_2,32,num_8,1.23341316544,,,2017_Aug_01_1627,59.9834352003,MAFE4ImagesEEG,001,101090,
AFNE01.JPG,AFNE01.JPG,AFNE01.JPG,AFNE01.JPG,AFNE01.JPG,AFNE01.JPG,,,,,,,,,,,,,,,,,,,,,3,0,30,5,,,AFNE14.jpg,AFSA15.jpg,AFSA19.jpg,AFNE16.jpg,AFNE14.jpg,FN,3,num_8,32,num_6,0.666807150934,,,2017_Aug_01_1627,59.9834352003,MAFE4ImagesEEG,001,101090,
AFNE01.JPG,AFNE01.JPG,AFNE01.JPG,AFNE01.JPG,AFNE01.JPG,AFNE01.JPG,,,,,,,,,,,,,,,,,,,,,3,1,31,4,,,AFNE14.jpg,AFNE07.jpg,AFSA07.jpg,AFSA08.jpg,AFNE07.jpg,FN,3,num_6,32,num_8,1.28342649247,,,2017_Aug_01_1627,59.9834352003,MAFE4ImagesEEG,001,101090,
AFNE01.JPG,AFNE01.JPG,AFNE01.JPG,AFNE01.JPG,AFNE01.JPG,AFNE01.JPG,,,,,,,,,,,,,,,,,,,,,3,2,32,7,,,AFNE16.jpg,AFNE11.jpg,AFSA02.jpg,AFSA11.jpg,AFNE11.jpg,FN,3,num_6,32,num_4,0.816774002276,,,2017_Aug_01_1627,59.9834352003,MAFE4ImagesEEG,001,101090,
AFNE01.JPG,AFNE01.JPG,AFNE01.JPG,AFNE01.JPG,AFNE01.JPG,AFNE01.JPG,,,,,,,,,,,,,,,,,,,,,3,3,33,6,,,AFNE13.jpg,AFSA13.jpg,AFNE09.jpg,AFSA01.jpg,AFSA13.jpg,FS,4,num_6,32,num_2,1.26672138483,,,2017_Aug_01_1627,59.9834352003,MAFE4ImagesEEG,001,101090,
AFNE01.JPG,AFNE01.JPG,AFNE01.JPG,AFNE01.JPG,AFNE01.JPG,AFNE01.JPG,,,,,,,,,,,,,,,,,,,,,3,4,34,9,,,AFSA01.jpg,AFNE17.jpg,AFNE16.jpg,AFSA19.jpg,AFNE16.jpg,FN,3,num_2,32,num_4,2.84997124551,,,2017_Aug_01_1627,59.9834352003,MAFE4ImagesEEG,001,101090,
AFNE01.JPG,AFNE01.JPG,AFNE01.JPG,AFNE01.JPG,AFNE01.JPG,AFNE01.JPG,,,,,,,,,,,,,,,,,,,,,3,5,35,1,,,AFNE18.jpg,AFNE02.jpg,AFSA19.jpg,AFSA11.jpg,AFNE18.jpg,FN,3,num_8,32,num_6,0.66678662342,,,2017_Aug_01_1627,59.9834352003,MAFE4ImagesEEG,001,101090,
AFNE01.JPG,AFNE01.JPG,AFNE01.JPG,AFNE01.JPG,AFNE01.JPG,AFNE01.JPG,,,,,,,,,,,,,,,,,,,,,3,6,36,0,,,AFSA05.jpg,AFSA14.jpg,AFNE05.jpg,AFNE02.jpg,AFSA05.jpg,FS,4,num_8,32,num_2,1.05009768135,,,2017_Aug_01_1627,59.9834352003,MAFE4ImagesEEG,001,101090,
AFNE01.JPG,AFNE01.JPG,AFNE01.JPG,AFNE01.JPG,AFNE01.JPG,AFNE01.JPG,,,,,,,,,,,,,,,,,,,,,3,7,37,2,,,AFNE02.jpg,AFSA11.jpg,AFNE10.jpg,AFSA10.jpg,AFSA11.jpg,FS,4,num_6,32,num_8,0.683467675233,,,2017_Aug_01_1627,59.9834352003,MAFE4ImagesEEG,001,101090,
AFNE01.JPG,AFNE01.JPG,AFNE01.JPG,AFNE01.JPG,AFNE01.JPG,AFNE01.JPG,,,,,,,,,,,,,,,,,,,,,3,8,38,3,,,AFNE15.jpg,AFSA01.jpg,AFNE03.jpg,AFSA15.jpg,AFSA15.jpg,FS,4,num_4,32,num_6,0.666763850953,,,2017_Aug_01_1627,59.9834352003,MAFE4ImagesEEG,001,101090,
