IPosition2,IPosition3,IPosition1,IPosition6,IPosition4,IPosition5,TrialsF1.thisRepN,TrialsF1.thisTrialN,TrialsF1.thisN,TrialsF1.thisIndex,TrialsM1.thisRepN,TrialsM1.thisTrialN,TrialsM1.thisN,TrialsM1.thisIndex,TrialsF2.thisRepN,TrialsF2.thisTrialN,TrialsF2.thisN,TrialsF2.thisIndex,TrialsM2.thisRepN,TrialsM2.thisTrialN,TrialsM2.thisN,TrialsM2.thisIndex,TrialsF3.thisRepN,TrialsF3.thisTrialN,TrialsF3.thisN,TrialsF3.thisIndex,TrialsM3.thisRepN,TrialsM3.thisTrialN,TrialsM3.thisN,TrialsM3.thisIndex,InstrKey_resp.keys,InstrKey_resp.rt,Image0 _Position,Image1 _Position,Image2 _Position,Image3 _Position,Center_image,condition,code,correct_answer,accuracy,Key_Resp.keys,BreakKey_resp.keys,BreakKey_resp.rt,Key_Resp.rt,date,frameRate,expName,session,participant,
,,,,,,,,,,,,,,,,,,,,,,,,,,,,,,space,30.9315210234,,,,,,,,,,,,,,2017_Jul_21_1250,59.9975175646,FEMA4ImagesEEG,001,101056,
AFSA25.JPG,AFNE24.JPG,AFSA24.JPG,AFNE21.JPG,AFSA21.JPG,AFNE25.JPG,0,0,0,2,,,,,,,,,,,,,,,,,,,,,,,AFSA18.jpg,AFNE06.jpg,AFNE17.jpg,AFSA08.jpg,AFNE06.jpg,FN,3,num_6,48,None,,,,2017_Jul_21_1250,59.9975175646,FEMA4ImagesEEG,001,101056,
AMSA21.JPG,AMNE22.JPG,AMNE21.JPG,AMSA23.JPG,AMSA22.JPG,AMNE23.JPG,0,1,1,1,,,,,,,,,,,,,,,,,,,,,,,AFNE03.jpg,AFNE05.jpg,AFSA09.jpg,AFSA04.jpg,AFSA04.jpg,FS,4,num_4,48,None,,,,2017_Jul_21_1250,59.9975175646,FEMA4ImagesEEG,001,101056,
AFNE23.JPG,AFNE24.JPG,AFNE22.JPG,AFSA24.JPG,AFSA22.JPG,AFSA23.JPG,0,2,2,8,,,,,,,,,,,,,,,,,,,,,,,AFSA04.jpg,AFNE12.jpg,AFSA12.jpg,AFNE07.jpg,AFNE07.jpg,FN,3,num_4,48,None,,,,2017_Jul_21_1250,59.9975175646,FEMA4ImagesEEG,001,101056,
AFSA21.JPG,AFNE22.JPG,AFNE21.JPG,AFSA23.JPG,AFSA22.JPG,AFNE23.JPG,0,3,3,0,,,,,,,,,,,,,,,,,,,,,,,AFSA16.jpg,AFNE18.jpg,AFSA12.jpg,AFNE13.jpg,AFSA12.jpg,FS,4,num_2,48,None,,,,2017_Jul_21_1250,59.9975175646,FEMA4ImagesEEG,001,101056,
AFNE22.JPG,AFSA24.JPG,AFSA22.JPG,AFNE25.JPG,AFNE24.JPG,AFSA25.JPG,0,4,4,6,,,,,,,,,,,,,,,,,,,,,,,AFSA02.jpg,AFSA18.jpg,AFNE16.jpg,AFNE12.jpg,AFSA02.jpg,FS,4,num_8,48,None,,,,2017_Jul_21_1250,59.9975175646,FEMA4ImagesEEG,001,101056,
AMNE23.JPG,AMNE24.JPG,AMNE22.JPG,AMSA24.JPG,AMSA22.JPG,AMSA23.JPG,0,5,5,9,,,,,,,,,,,,,,,,,,,,,,,AFNE18.jpg,AFNE16.jpg,AFSA12.jpg,AFSA16.jpg,AFNE18.jpg,FN,3,num_8,48,None,,,,2017_Jul_21_1250,59.9975175646,FEMA4ImagesEEG,001,101056,
AFSA21.JPG,AFNE23.JPG,AFNE21.JPG,AFSA25.JPG,AFNE25.JPG,AFSA23.JPG,0,6,6,4,,,,,,,,,,,,,,,,,,,,,,,AFSA20.jpg,AFSA01.jpg,AFNE07.jpg,AFNE18.jpg,AFSA20.jpg,FS,4,num_8,48,None,,,,2017_Jul_21_1250,59.9975175646,FEMA4ImagesEEG,001,101056,
AMNE22.JPG,AMSA24.JPG,AMSA22.JPG,AMNE25.JPG,AMNE24.JPG,AMSA25.JPG,0,7,7,7,,,,,,,,,,,,,,,,,,,,,,,AFNE08.jpg,AFSA07.jpg,AFSA03.jpg,AFNE12.jpg,AFNE12.jpg,FN,3,num_4,48,None,,,,2017_Jul_21_1250,59.9975175646,FEMA4ImagesEEG,001,101056,
AMSA25.JPG,AMNE24.JPG,AMSA24.JPG,AMNE26.JPG,AMSA21.JPG,AMNE25.JPG,0,8,8,3,,,,,,,,,,,,,,,,,,,,,,,AFSA10.jpg,AFNE14.jpg,AFNE01.jpg,AFSA08.jpg,AFNE01.jpg,FN,3,num_2,48,None,,,,2017_Jul_21_1250,59.9975175646,FEMA4ImagesEEG,001,101056,
AMSA21.JPG,AMNE23.JPG,AMNE21.JPG,AMSA25.JPG,AMNE25.JPG,AMSA23.JPG,0,9,9,5,,,,,,,,,,,,,,,,,,,,,,,AFSA05.jpg,AFNE08.jpg,AFSA12.jpg,AFNE11.jpg,AFNE11.jpg,FN,3,num_4,48,None,,,,2017_Jul_21_1250,59.9975175646,FEMA4ImagesEEG,001,101056,
AMNE23.JPG,AMNE24.JPG,AMNE22.JPG,AMSA24.JPG,AMSA22.JPG,AMSA23.JPG,,,,,0,0,0,9,,,,,,,,,,,,,,,,,,,AMSA11.jpg,AMSA14.jpg,AMNE16.jpg,AMNE10.jpg,AMNE10.jpg,MN,1,num_4,48,None,,,,2017_Jul_21_1250,59.9975175646,FEMA4ImagesEEG,001,101056,
AMSA21.JPG,AMNE23.JPG,AMNE21.JPG,AMSA25.JPG,AMNE25.JPG,AMSA23.JPG,,,,,0,1,1,5,,,,,,,,,,,,,,,,,,,AMSA20.jpg,AMNE13.jpg,AMNE07.jpg,AMSA11.jpg,AMNE07.jpg,MN,1,num_2,48,None,,,,2017_Jul_21_1250,59.9975175646,FEMA4ImagesEEG,001,101056,
AMNE22.JPG,AMSA24.JPG,AMSA22.JPG,AMNE25.JPG,AMNE24.JPG,AMSA25.JPG,,,,,0,2,2,7,,,,,,,,,,,,,,,,,,,AMSA13.jpg,AMNE16.jpg,AMNE01.jpg,AMSA05.jpg,AMSA13.jpg,MS,2,num_8,48,None,,,,2017_Jul_21_1250,59.9975175646,FEMA4ImagesEEG,001,101056,
AFSA21.JPG,AFNE23.JPG,AFNE21.JPG,AFSA25.JPG,AFNE25.JPG,AFSA23.JPG,,,,,0,3,3,4,,,,,,,,,,,,,,,,,,,AMSA03.jpg,AMNE11.jpg,AMNE06.jpg,AMSA19.jpg,AMSA19.jpg,MS,2,num_4,48,None,,,,2017_Jul_21_1250,59.9975175646,FEMA4ImagesEEG,001,101056,
AFSA21.JPG,AFNE22.JPG,AFNE21.JPG,AFSA23.JPG,AFSA22.JPG,AFNE23.JPG,,,,,0,4,4,0,,,,,,,,,,,,,,,,,,,AMNE12.jpg,AMSA01.jpg,AMSA15.jpg,AMNE01.jpg,AMNE01.jpg,MN,1,num_4,48,None,,,,2017_Jul_21_1250,59.9975175646,FEMA4ImagesEEG,001,101056,
AFNE23.JPG,AFNE24.JPG,AFNE22.JPG,AFSA24.JPG,AFSA22.JPG,AFSA23.JPG,,,,,0,5,5,8,,,,,,,,,,,,,,,,,,,AMNE05.jpg,AMSA09.jpg,AMNE14.jpg,AMSA08.jpg,AMNE14.jpg,MN,1,num_2,48,None,,,,2017_Jul_21_1250,59.9975175646,FEMA4ImagesEEG,001,101056,
AMSA25.JPG,AMNE24.JPG,AMSA24.JPG,AMNE26.JPG,AMSA21.JPG,AMNE25.JPG,,,,,0,6,6,3,,,,,,,,,,,,,,,,,,,AMSA08.jpg,AMNE11.jpg,AMNE14.jpg,AMSA18.jpg,AMSA18.jpg,MS,2,num_4,48,None,,,,2017_Jul_21_1250,59.9975175646,FEMA4ImagesEEG,001,101056,
AFSA25.JPG,AFNE24.JPG,AFSA24.JPG,AFNE21.JPG,AFSA21.JPG,AFNE25.JPG,,,,,0,7,7,2,,,,,,,,,,,,,,,,,,,AMSA14.jpg,AMNE08.jpg,AMSA15.jpg,AMNE18.jpg,AMSA15.jpg,MS,2,num_2,48,None,,,,2017_Jul_21_1250,59.9975175646,FEMA4ImagesEEG,001,101056,
AMSA21.JPG,AMNE22.JPG,AMNE21.JPG,AMSA23.JPG,AMSA22.JPG,AMNE23.JPG,,,,,0,8,8,1,,,,,,,,,,,,,,,,,,,AMNE18.jpg,AMSA01.jpg,AMNE13.jpg,AMSA09.jpg,AMSA01.jpg,MS,2,num_6,48,None,,,,2017_Jul_21_1250,59.9975175646,FEMA4ImagesEEG,001,101056,
AFNE22.JPG,AFSA24.JPG,AFSA22.JPG,AFNE25.JPG,AFNE24.JPG,AFSA25.JPG,,,,,0,9,9,6,,,,,,,,,,,,,,,,,,,AMNE01.jpg,AMNE19.jpg,AMSA12.jpg,AMSA20.jpg,AMSA20.jpg,MS,2,num_4,48,None,,,,2017_Jul_21_1250,59.9975175646,FEMA4ImagesEEG,001,101056,
AFSA21.JPG,AFNE23.JPG,AFNE21.JPG,AFSA25.JPG,AFNE25.JPG,AFSA23.JPG,,,,,,,,,0,0,0,4,,,,,,,,,,,,,,,AFNE11.jpg,AFSA02.jpg,AFSA03.jpg,AFNE14.jpg,AFNE14.jpg,FN,3,num_4,48,None,,,,2017_Jul_21_1250,59.9975175646,FEMA4ImagesEEG,001,101056,
AMSA21.JPG,AMNE23.JPG,AMNE21.JPG,AMSA25.JPG,AMNE25.JPG,AMSA23.JPG,,,,,,,,,0,1,1,5,,,,,,,,,,,,,,,AFNE15.jpg,AFSA14.jpg,AFSA07.jpg,AFNE09.jpg,AFNE15.jpg,FN,3,num_8,48,None,,,,2017_Jul_21_1250,59.9975175646,FEMA4ImagesEEG,001,101056,
AMSA21.JPG,AMNE22.JPG,AMNE21.JPG,AMSA23.JPG,AMSA22.JPG,AMNE23.JPG,,,,,,,,,0,2,2,1,,,,,,,,,,,,,,,AFNE15.jpg,AFNE11.jpg,AFSA09.jpg,AFSA15.jpg,AFNE15.jpg,FN,3,num_8,48,None,,,,2017_Jul_21_1250,59.9975175646,FEMA4ImagesEEG,001,101056,
AFSA25.JPG,AFNE24.JPG,AFSA24.JPG,AFNE21.JPG,AFSA21.JPG,AFNE25.JPG,,,,,,,,,0,3,3,2,,,,,,,,,,,,,,,AFNE15.jpg,AFNE12.jpg,AFSA18.jpg,AFSA09.jpg,AFSA09.jpg,FS,4,num_4,48,None,,,,2017_Jul_21_1250,59.9975175646,FEMA4ImagesEEG,001,101056,
AMNE23.JPG,AMNE24.JPG,AMNE22.JPG,AMSA24.JPG,AMSA22.JPG,AMSA23.JPG,,,,,,,,,0,4,4,9,,,,,,,,,,,,,,,AFSA16.jpg,AFNE20.jpg,AFSA08.jpg,AFNE04.jpg,AFSA08.jpg,FS,4,num_2,48,None,,,,2017_Jul_21_1250,59.9975175646,FEMA4ImagesEEG,001,101056,
AMSA25.JPG,AMNE24.JPG,AMSA24.JPG,AMNE26.JPG,AMSA21.JPG,AMNE25.JPG,,,,,,,,,0,5,5,3,,,,,,,,,,,,,,,AFNE10.jpg,AFSA08.jpg,AFSA06.jpg,AFNE15.jpg,AFSA06.jpg,FS,4,num_2,48,None,,,,2017_Jul_21_1250,59.9975175646,FEMA4ImagesEEG,001,101056,
AFSA21.JPG,AFNE22.JPG,AFNE21.JPG,AFSA23.JPG,AFSA22.JPG,AFNE23.JPG,,,,,,,,,0,6,6,0,,,,,,,,,,,,,,,AFSA19.jpg,AFNE16.jpg,AFNE05.jpg,AFSA18.jpg,AFNE16.jpg,FN,3,num_6,48,None,,,,2017_Jul_21_1250,59.9975175646,FEMA4ImagesEEG,001,101056,
AFNE23.JPG,AFNE24.JPG,AFNE22.JPG,AFSA24.JPG,AFSA22.JPG,AFSA23.JPG,,,,,,,,,0,7,7,8,,,,,,,,,,,,,,,AFNE14.jpg,AFNE01.jpg,AFSA18.jpg,AFSA05.jpg,AFNE14.jpg,FN,3,num_8,48,None,,,,2017_Jul_21_1250,59.9975175646,FEMA4ImagesEEG,001,101056,
AFNE22.JPG,AFSA24.JPG,AFSA22.JPG,AFNE25.JPG,AFNE24.JPG,AFSA25.JPG,,,,,,,,,0,8,8,6,,,,,,,,,,,,,,,AFSA20.jpg,AFNE11.jpg,AFNE07.jpg,AFSA08.jpg,AFSA08.jpg,FS,4,num_4,48,None,,,,2017_Jul_21_1250,59.9975175646,FEMA4ImagesEEG,001,101056,
AMNE22.JPG,AMSA24.JPG,AMSA22.JPG,AMNE25.JPG,AMNE24.JPG,AMSA25.JPG,,,,,,,,,0,9,9,7,,,,,,,,,,,,,,,AFNE10.jpg,AFSA16.jpg,AFNE12.jpg,AFSA14.jpg,AFSA16.jpg,FS,4,num_6,48,None,,,,2017_Jul_21_1250,59.9975175646,FEMA4ImagesEEG,001,101056,
AMSA21.JPG,AMNE23.JPG,AMNE21.JPG,AMSA25.JPG,AMNE25.JPG,AMSA23.JPG,,,,,,,,,,,,,0,0,0,5,,,,,,,,,,,AMNE16.jpg,AMNE18.jpg,AMSA11.jpg,AMSA03.jpg,AMNE16.jpg,MN,1,num_8,48,None,,,,2017_Jul_21_1250,59.9975175646,FEMA4ImagesEEG,001,101056,
AFSA21.JPG,AFNE22.JPG,AFNE21.JPG,AFSA23.JPG,AFSA22.JPG,AFNE23.JPG,,,,,,,,,,,,,0,1,1,0,,,,,,,,,,,AMSA12.jpg,AMNE13.jpg,AMSA05.jpg,AMNE17.jpg,AMNE17.jpg,MN,1,num_4,48,None,,,,2017_Jul_21_1250,59.9975175646,FEMA4ImagesEEG,001,101056,
AFSA25.JPG,AFNE24.JPG,AFSA24.JPG,AFNE21.JPG,AFSA21.JPG,AFNE25.JPG,,,,,,,,,,,,,0,2,2,2,,,,,,,,,,,AMSA13.jpg,AMNE12.jpg,AMNE08.jpg,AMSA02.jpg,AMNE12.jpg,MN,1,num_6,48,None,,,,2017_Jul_21_1250,59.9975175646,FEMA4ImagesEEG,001,101056,
AMNE23.JPG,AMNE24.JPG,AMNE22.JPG,AMSA24.JPG,AMSA22.JPG,AMSA23.JPG,,,,,,,,,,,,,0,3,3,9,,,,,,,,,,,AMNE09.jpg,AMSA04.jpg,AMSA17.jpg,AMNE02.jpg,AMSA04.jpg,MS,2,num_6,48,None,,,,2017_Jul_21_1250,59.9975175646,FEMA4ImagesEEG,001,101056,
AMSA21.JPG,AMNE22.JPG,AMNE21.JPG,AMSA23.JPG,AMSA22.JPG,AMNE23.JPG,,,,,,,,,,,,,0,4,4,1,,,,,,,,,,,AMNE13.jpg,AMSA11.jpg,AMSA03.jpg,AMNE11.jpg,AMNE11.jpg,MN,1,num_4,48,None,,,,2017_Jul_21_1250,59.9975175646,FEMA4ImagesEEG,001,101056,
AFNE23.JPG,AFNE24.JPG,AFNE22.JPG,AFSA24.JPG,AFSA22.JPG,AFSA23.JPG,,,,,,,,,,,,,0,5,5,8,,,,,,,,,,,AMSA04.jpg,AMNE20.jpg,AMNE01.jpg,AMSA13.jpg,AMSA04.jpg,MS,2,num_8,48,None,,,,2017_Jul_21_1250,59.9975175646,FEMA4ImagesEEG,001,101056,
AFSA21.JPG,AFNE23.JPG,AFNE21.JPG,AFSA25.JPG,AFNE25.JPG,AFSA23.JPG,,,,,,,,,,,,,0,6,6,4,,,,,,,,,,,AMSA14.jpg,AMNE16.jpg,AMNE07.jpg,AMSA07.jpg,AMSA14.jpg,MS,2,num_8,48,None,,,,2017_Jul_21_1250,59.9975175646,FEMA4ImagesEEG,001,101056,
AMNE22.JPG,AMSA24.JPG,AMSA22.JPG,AMNE25.JPG,AMNE24.JPG,AMSA25.JPG,,,,,,,,,,,,,0,7,7,7,,,,,,,,,,,AMSA06.jpg,AMSA11.jpg,AMNE07.jpg,AMNE17.jpg,AMSA06.jpg,MS,2,num_8,48,None,,,,2017_Jul_21_1250,59.9975175646,FEMA4ImagesEEG,001,101056,
AFNE22.JPG,AFSA24.JPG,AFSA22.JPG,AFNE25.JPG,AFNE24.JPG,AFSA25.JPG,,,,,,,,,,,,,0,8,8,6,,,,,,,,,,,AMNE03.jpg,AMSA13.jpg,AMNE16.jpg,AMSA19.jpg,AMSA19.jpg,MS,2,num_4,48,None,,,,2017_Jul_21_1250,59.9975175646,FEMA4ImagesEEG,001,101056,
AMSA25.JPG,AMNE24.JPG,AMSA24.JPG,AMNE26.JPG,AMSA21.JPG,AMNE25.JPG,,,,,,,,,,,,,0,9,9,3,,,,,,,,,,,AMNE12.jpg,AMSA15.jpg,AMSA05.jpg,AMNE01.jpg,AMNE12.jpg,MN,1,num_8,48,None,,,,2017_Jul_21_1250,59.9975175646,FEMA4ImagesEEG,001,101056,
AMSA21.JPG,AMNE22.JPG,AMNE21.JPG,AMSA23.JPG,AMSA22.JPG,AMNE23.JPG,,,,,,,,,,,,,,,,,0,0,0,1,,,,,,,AFSA01.jpg,AFNE17.jpg,AFNE08.jpg,AFSA03.jpg,AFSA03.jpg,FS,4,num_4,48,None,,,,2017_Jul_21_1250,59.9975175646,FEMA4ImagesEEG,001,101056,
AFSA21.JPG,AFNE23.JPG,AFNE21.JPG,AFSA25.JPG,AFNE25.JPG,AFSA23.JPG,,,,,,,,,,,,,,,,,0,1,1,4,,,,,,,AFNE18.jpg,AFSA20.jpg,AFSA04.jpg,AFNE06.jpg,AFSA04.jpg,FS,4,num_2,48,None,,,,2017_Jul_21_1250,59.9975175646,FEMA4ImagesEEG,001,101056,
AFNE22.JPG,AFSA24.JPG,AFSA22.JPG,AFNE25.JPG,AFNE24.JPG,AFSA25.JPG,,,,,,,,,,,,,,,,,0,2,2,6,,,,,,,AFNE03.jpg,AFSA13.jpg,AFNE02.jpg,AFSA01.jpg,AFNE03.jpg,FN,3,num_8,48,None,,,,2017_Jul_21_1250,59.9975175646,FEMA4ImagesEEG,001,101056,
AMSA21.JPG,AMNE23.JPG,AMNE21.JPG,AMSA25.JPG,AMNE25.JPG,AMSA23.JPG,,,,,,,,,,,,,,,,,0,3,3,5,,,,,,,AFNE07.jpg,AFSA02.jpg,AFNE20.jpg,AFSA03.jpg,AFNE20.jpg,FN,3,num_2,48,None,,,,2017_Jul_21_1250,59.9975175646,FEMA4ImagesEEG,001,101056,
AFSA25.JPG,AFNE24.JPG,AFSA24.JPG,AFNE21.JPG,AFSA21.JPG,AFNE25.JPG,,,,,,,,,,,,,,,,,0,4,4,2,,,,,,,AFNE01.jpg,AFSA09.jpg,AFNE12.jpg,AFSA08.jpg,AFNE12.jpg,FN,3,num_2,48,None,,,,2017_Jul_21_1250,59.9975175646,FEMA4ImagesEEG,001,101056,
AFSA21.JPG,AFNE22.JPG,AFNE21.JPG,AFSA23.JPG,AFSA22.JPG,AFNE23.JPG,,,,,,,,,,,,,,,,,0,5,5,0,,,,,,,AFSA06.jpg,AFNE09.jpg,AFNE12.jpg,AFSA03.jpg,AFNE09.jpg,FN,3,num_6,48,None,,,,2017_Jul_21_1250,59.9975175646,FEMA4ImagesEEG,001,101056,
AMSA25.JPG,AMNE24.JPG,AMSA24.JPG,AMNE26.JPG,AMSA21.JPG,AMNE25.JPG,,,,,,,,,,,,,,,,,0,6,6,3,,,,,,,AFNE20.jpg,AFSA01.jpg,AFSA14.jpg,AFNE08.jpg,AFSA01.jpg,FS,4,num_6,48,None,,,,2017_Jul_21_1250,59.9975175646,FEMA4ImagesEEG,001,101056,
AMNE23.JPG,AMNE24.JPG,AMNE22.JPG,AMSA24.JPG,AMSA22.JPG,AMSA23.JPG,,,,,,,,,,,,,,,,,0,7,7,9,,,,,,,AFSA05.jpg,AFNE06.jpg,AFSA13.jpg,AFNE07.jpg,AFSA13.jpg,FS,4,num_2,48,None,,,,2017_Jul_21_1250,59.9975175646,FEMA4ImagesEEG,001,101056,
AFNE23.JPG,AFNE24.JPG,AFNE22.JPG,AFSA24.JPG,AFSA22.JPG,AFSA23.JPG,,,,,,,,,,,,,,,,,0,8,8,8,,,,,,,AFSA16.jpg,AFNE03.jpg,AFNE11.jpg,AFSA07.jpg,AFSA16.jpg,FS,4,num_8,48,None,,,,2017_Jul_21_1250,59.9975175646,FEMA4ImagesEEG,001,101056,
AMNE22.JPG,AMSA24.JPG,AMSA22.JPG,AMNE25.JPG,AMNE24.JPG,AMSA25.JPG,,,,,,,,,,,,,,,,,0,9,9,7,,,,,,,AFSA08.jpg,AFNE14.jpg,AFNE20.jpg,AFSA14.jpg,AFNE20.jpg,FN,3,num_2,48,None,,,,2017_Jul_21_1250,59.9975175646,FEMA4ImagesEEG,001,101056,
AMSA21.JPG,AMNE23.JPG,AMNE21.JPG,AMSA25.JPG,AMNE25.JPG,AMSA23.JPG,,,,,,,,,,,,,,,,,,,,,0,0,0,5,,,AMNE12.jpg,AMSA17.jpg,AMNE01.jpg,AMSA14.jpg,AMSA17.jpg,MS,2,num_6,48,None,,,,2017_Jul_21_1250,59.9975175646,FEMA4ImagesEEG,001,101056,
AFSA25.JPG,AFNE24.JPG,AFSA24.JPG,AFNE21.JPG,AFSA21.JPG,AFNE25.JPG,,,,,,,,,,,,,,,,,,,,,0,1,1,2,,,AMNE10.jpg,AMSA05.jpg,AMSA19.jpg,AMNE18.jpg,AMNE18.jpg,MN,1,num_4,48,None,,,,2017_Jul_21_1250,59.9975175646,FEMA4ImagesEEG,001,101056,
AFNE23.JPG,AFNE24.JPG,AFNE22.JPG,AFSA24.JPG,AFSA22.JPG,AFSA23.JPG,,,,,,,,,,,,,,,,,,,,,0,2,2,8,,,AMSA08.jpg,AMNE09.jpg,AMNE18.jpg,AMSA02.jpg,AMNE09.jpg,MN,1,num_6,48,None,,,,2017_Jul_21_1250,59.9975175646,FEMA4ImagesEEG,001,101056,
AFSA21.JPG,AFNE23.JPG,AFNE21.JPG,AFSA25.JPG,AFNE25.JPG,AFSA23.JPG,,,,,,,,,,,,,,,,,,,,,0,3,3,4,,,AMNE04.jpg,AMSA17.jpg,AMNE19.jpg,AMSA16.jpg,AMNE04.jpg,MN,1,num_8,48,None,,,,2017_Jul_21_1250,59.9975175646,FEMA4ImagesEEG,001,101056,
AMNE22.JPG,AMSA24.JPG,AMSA22.JPG,AMNE25.JPG,AMNE24.JPG,AMSA25.JPG,,,,,,,,,,,,,,,,,,,,,0,4,4,7,,,AMSA10.jpg,AMSA19.jpg,AMNE02.jpg,AMNE18.jpg,AMSA19.jpg,MS,2,num_6,48,None,,,,2017_Jul_21_1250,59.9975175646,FEMA4ImagesEEG,001,101056,
AMNE23.JPG,AMNE24.JPG,AMNE22.JPG,AMSA24.JPG,AMSA22.JPG,AMSA23.JPG,,,,,,,,,,,,,,,,,,,,,0,5,5,9,,,AMNE16.jpg,AMSA02.jpg,AMNE20.jpg,AMSA07.jpg,AMNE20.jpg,MN,1,num_2,48,None,,,,2017_Jul_21_1250,59.9975175646,FEMA4ImagesEEG,001,101056,
AMSA25.JPG,AMNE24.JPG,AMSA24.JPG,AMNE26.JPG,AMSA21.JPG,AMNE25.JPG,,,,,,,,,,,,,,,,,,,,,0,6,6,3,,,AMSA08.jpg,AMNE04.jpg,AMNE15.jpg,AMSA12.jpg,AMSA12.jpg,MS,2,num_4,48,None,,,,2017_Jul_21_1250,59.9975175646,FEMA4ImagesEEG,001,101056,
AFSA21.JPG,AFNE22.JPG,AFNE21.JPG,AFSA23.JPG,AFSA22.JPG,AFNE23.JPG,,,,,,,,,,,,,,,,,,,,,0,7,7,0,,,AMSA03.jpg,AMNE01.jpg,AMSA07.jpg,AMNE20.jpg,AMNE01.jpg,MN,1,num_6,48,None,,,,2017_Jul_21_1250,59.9975175646,FEMA4ImagesEEG,001,101056,
AMSA21.JPG,AMNE22.JPG,AMNE21.JPG,AMSA23.JPG,AMSA22.JPG,AMNE23.JPG,,,,,,,,,,,,,,,,,,,,,0,8,8,1,,,AMSA11.jpg,AMNE20.jpg,AMNE16.jpg,AMSA02.jpg,AMSA02.jpg,MS,2,num_4,48,None,,,,2017_Jul_21_1250,59.9975175646,FEMA4ImagesEEG,001,101056,
AFNE22.JPG,AFSA24.JPG,AFSA22.JPG,AFNE25.JPG,AFNE24.JPG,AFSA25.JPG,,,,,,,,,,,,,,,,,,,,,0,9,9,6,,,AMNE11.jpg,AMSA05.jpg,AMSA12.jpg,AMNE09.jpg,AMNE09.jpg,MN,1,num_4,48,None,,,,2017_Jul_21_1250,59.9975175646,FEMA4ImagesEEG,001,101056,
,,,,,,,,,,,,,,,,,,,,,,,,,,,,,,,,,,,,,,,,,,space,144.189056732,,2017_Jul_21_1250,59.9975175646,FEMA4ImagesEEG,001,101056,
AFNE01.JPG,AFNE01.JPG,AFNE01.JPG,AFNE01.JPG,AFNE01.JPG,AFNE01.JPG,0,0,0,9,,,,,,,,,,,,,,,,,,,,,,,AFNE16.jpg,AFSA16.jpg,AFSA06.jpg,AFNE07.jpg,AFNE07.jpg,FN,3,num_4,48,None,,,,2017_Jul_21_1250,59.9975175646,FEMA4ImagesEEG,001,101056,
AFNE01.JPG,AFNE01.JPG,AFNE01.JPG,AFNE01.JPG,AFNE01.JPG,AFNE01.JPG,0,1,1,3,,,,,,,,,,,,,,,,,,,,,,,AFSA09.jpg,AFNE17.jpg,AFNE06.jpg,AFSA13.jpg,AFSA09.jpg,FS,4,num_8,48,None,,,,2017_Jul_21_1250,59.9975175646,FEMA4ImagesEEG,001,101056,
AFNE01.JPG,AFNE01.JPG,AFNE01.JPG,AFNE01.JPG,AFNE01.JPG,AFNE01.JPG,0,2,2,5,,,,,,,,,,,,,,,,,,,,,,,AFNE05.jpg,AFSA09.jpg,AFSA16.jpg,AFNE16.jpg,AFNE16.jpg,FN,3,num_4,48,None,,,,2017_Jul_21_1250,59.9975175646,FEMA4ImagesEEG,001,101056,
AFNE01.JPG,AFNE01.JPG,AFNE01.JPG,AFNE01.JPG,AFNE01.JPG,AFNE01.JPG,0,3,3,1,,,,,,,,,,,,,,,,,,,,,,,AFNE05.jpg,AFSA18.jpg,AFNE10.jpg,AFSA11.jpg,AFSA11.jpg,FS,4,num_4,48,None,,,,2017_Jul_21_1250,59.9975175646,FEMA4ImagesEEG,001,101056,
AFNE01.JPG,AFNE01.JPG,AFNE01.JPG,AFNE01.JPG,AFNE01.JPG,AFNE01.JPG,0,4,4,0,,,,,,,,,,,,,,,,,,,,,,,AFNE02.jpg,AFSA03.jpg,AFSA13.jpg,AFNE08.jpg,AFNE08.jpg,FN,3,num_4,48,None,,,,2017_Jul_21_1250,59.9975175646,FEMA4ImagesEEG,001,101056,
AFNE01.JPG,AFNE01.JPG,AFNE01.JPG,AFNE01.JPG,AFNE01.JPG,AFNE01.JPG,0,5,5,4,,,,,,,,,,,,,,,,,,,,,,,AFNE08.jpg,AFSA12.jpg,AFNE04.jpg,AFSA07.jpg,AFSA07.jpg,FS,4,num_4,48,None,,,,2017_Jul_21_1250,59.9975175646,FEMA4ImagesEEG,001,101056,
AFNE01.JPG,AFNE01.JPG,AFNE01.JPG,AFNE01.JPG,AFNE01.JPG,AFNE01.JPG,0,6,6,8,,,,,,,,,,,,,,,,,,,,,,,AFNE18.jpg,AFSA10.jpg,AFSA09.jpg,AFNE20.jpg,AFNE18.jpg,FN,3,num_8,48,None,,,,2017_Jul_21_1250,59.9975175646,FEMA4ImagesEEG,001,101056,
AFNE01.JPG,AFNE01.JPG,AFNE01.JPG,AFNE01.JPG,AFNE01.JPG,AFNE01.JPG,0,7,7,6,,,,,,,,,,,,,,,,,,,,,,,AFNE02.jpg,AFSA19.jpg,AFSA20.jpg,AFNE01.jpg,AFSA19.jpg,FS,4,num_6,48,None,,,,2017_Jul_21_1250,59.9975175646,FEMA4ImagesEEG,001,101056,
AFNE01.JPG,AFNE01.JPG,AFNE01.JPG,AFNE01.JPG,AFNE01.JPG,AFNE01.JPG,0,8,8,2,,,,,,,,,,,,,,,,,,,,,,,AFNE04.jpg,AFSA16.jpg,AFSA05.jpg,AFNE06.jpg,AFNE06.jpg,FN,3,num_4,48,None,,,,2017_Jul_21_1250,59.9975175646,FEMA4ImagesEEG,001,101056,
AFNE01.JPG,AFNE01.JPG,AFNE01.JPG,AFNE01.JPG,AFNE01.JPG,AFNE01.JPG,0,9,9,7,,,,,,,,,,,,,,,,,,,,,,,AFSA15.jpg,AFNE07.jpg,AFSA02.jpg,AFNE19.jpg,AFSA15.jpg,FS,4,num_8,48,None,,,,2017_Jul_21_1250,59.9975175646,FEMA4ImagesEEG,001,101056,
AFNE01.JPG,AFNE01.JPG,AFNE01.JPG,AFNE01.JPG,AFNE01.JPG,AFNE01.JPG,1,0,10,0,,,,,,,,,,,,,,,,,,,,,,,AFSA15.jpg,AFSA07.jpg,AFNE10.jpg,AFNE20.jpg,AFNE10.jpg,FN,3,num_2,48,None,,,,2017_Jul_21_1250,59.9975175646,FEMA4ImagesEEG,001,101056,
AFNE01.JPG,AFNE01.JPG,AFNE01.JPG,AFNE01.JPG,AFNE01.JPG,AFNE01.JPG,1,1,11,2,,,,,,,,,,,,,,,,,,,,,,,AFSA05.jpg,AFNE10.jpg,AFSA16.jpg,AFNE09.jpg,AFNE09.jpg,FN,3,num_4,48,None,,,,2017_Jul_21_1250,59.9975175646,FEMA4ImagesEEG,001,101056,
AFNE01.JPG,AFNE01.JPG,AFNE01.JPG,AFNE01.JPG,AFNE01.JPG,AFNE01.JPG,1,2,12,6,,,,,,,,,,,,,,,,,,,,,,,AFNE06.jpg,AFNE19.jpg,AFSA20.jpg,AFSA01.jpg,AFSA01.jpg,FS,4,num_4,48,None,,,,2017_Jul_21_1250,59.9975175646,FEMA4ImagesEEG,001,101056,
AFNE01.JPG,AFNE01.JPG,AFNE01.JPG,AFNE01.JPG,AFNE01.JPG,AFNE01.JPG,1,3,13,7,,,,,,,,,,,,,,,,,,,,,,,AFNE09.jpg,AFSA01.jpg,AFSA14.jpg,AFNE13.jpg,AFSA14.jpg,FS,4,num_2,48,None,,,,2017_Jul_21_1250,59.9975175646,FEMA4ImagesEEG,001,101056,
AFNE01.JPG,AFNE01.JPG,AFNE01.JPG,AFNE01.JPG,AFNE01.JPG,AFNE01.JPG,1,4,14,9,,,,,,,,,,,,,,,,,,,,,,,AFSA14.jpg,AFNE06.jpg,AFSA05.jpg,AFNE10.jpg,AFNE10.jpg,FN,3,num_4,48,None,,,,2017_Jul_21_1250,59.9975175646,FEMA4ImagesEEG,001,101056,
AFNE01.JPG,AFNE01.JPG,AFNE01.JPG,AFNE01.JPG,AFNE01.JPG,AFNE01.JPG,1,5,15,3,,,,,,,,,,,,,,,,,,,,,,,AFNE14.jpg,AFSA15.jpg,AFNE15.jpg,AFSA07.jpg,AFSA15.jpg,FS,4,num_6,48,None,,,,2017_Jul_21_1250,59.9975175646,FEMA4ImagesEEG,001,101056,
AFNE01.JPG,AFNE01.JPG,AFNE01.JPG,AFNE01.JPG,AFNE01.JPG,AFNE01.JPG,1,6,16,8,,,,,,,,,,,,,,,,,,,,,,,AFSA16.jpg,AFNE19.jpg,AFSA15.jpg,AFNE09.jpg,AFSA15.jpg,FS,4,num_2,48,None,,,,2017_Jul_21_1250,59.9975175646,FEMA4ImagesEEG,001,101056,
AFNE01.JPG,AFNE01.JPG,AFNE01.JPG,AFNE01.JPG,AFNE01.JPG,AFNE01.JPG,1,7,17,5,,,,,,,,,,,,,,,,,,,,,,,AFNE06.jpg,AFNE10.jpg,AFSA17.jpg,AFSA11.jpg,AFNE06.jpg,FN,3,num_8,48,None,,,,2017_Jul_21_1250,59.9975175646,FEMA4ImagesEEG,001,101056,
AFNE01.JPG,AFNE01.JPG,AFNE01.JPG,AFNE01.JPG,AFNE01.JPG,AFNE01.JPG,1,8,18,4,,,,,,,,,,,,,,,,,,,,,,,AFNE13.jpg,AFSA12.jpg,AFNE09.jpg,AFSA19.jpg,AFNE09.jpg,FN,3,num_2,48,None,,,,2017_Jul_21_1250,59.9975175646,FEMA4ImagesEEG,001,101056,
AFNE01.JPG,AFNE01.JPG,AFNE01.JPG,AFNE01.JPG,AFNE01.JPG,AFNE01.JPG,1,9,19,1,,,,,,,,,,,,,,,,,,,,,,,AFSA01.jpg,AFNE11.jpg,AFSA13.jpg,AFNE18.jpg,AFSA01.jpg,FS,4,num_8,48,None,,,,2017_Jul_21_1250,59.9975175646,FEMA4ImagesEEG,001,101056,
AFNE01.JPG,AFNE01.JPG,AFNE01.JPG,AFNE01.JPG,AFNE01.JPG,AFNE01.JPG,2,0,20,9,,,,,,,,,,,,,,,,,,,,,,,AFSA16.jpg,AFSA18.jpg,AFNE20.jpg,AFNE06.jpg,AFSA18.jpg,FS,4,num_6,48,None,,,,2017_Jul_21_1250,59.9975175646,FEMA4ImagesEEG,001,101056,
AFNE01.JPG,AFNE01.JPG,AFNE01.JPG,AFNE01.JPG,AFNE01.JPG,AFNE01.JPG,2,1,21,7,,,,,,,,,,,,,,,,,,,,,,,AFNE10.jpg,AFNE05.jpg,AFSA06.jpg,AFSA17.jpg,AFSA17.jpg,FS,4,num_4,48,None,,,,2017_Jul_21_1250,59.9975175646,FEMA4ImagesEEG,001,101056,
AFNE01.JPG,AFNE01.JPG,AFNE01.JPG,AFNE01.JPG,AFNE01.JPG,AFNE01.JPG,2,2,22,3,,,,,,,,,,,,,,,,,,,,,,,AFSA08.jpg,AFNE14.jpg,AFSA19.jpg,AFNE12.jpg,AFSA08.jpg,FS,4,num_8,48,None,,,,2017_Jul_21_1250,59.9975175646,FEMA4ImagesEEG,001,101056,
AFNE01.JPG,AFNE01.JPG,AFNE01.JPG,AFNE01.JPG,AFNE01.JPG,AFNE01.JPG,2,3,23,1,,,,,,,,,,,,,,,,,,,,,,,AFSA09.jpg,AFNE09.jpg,AFNE19.jpg,AFSA18.jpg,AFNE09.jpg,FN,3,num_6,48,None,,,,2017_Jul_21_1250,59.9975175646,FEMA4ImagesEEG,001,101056,
AFNE01.JPG,AFNE01.JPG,AFNE01.JPG,AFNE01.JPG,AFNE01.JPG,AFNE01.JPG,2,4,24,0,,,,,,,,,,,,,,,,,,,,,,,AFNE17.jpg,AFSA08.jpg,AFSA04.jpg,AFNE15.jpg,AFSA04.jpg,FS,4,num_2,48,None,,,,2017_Jul_21_1250,59.9975175646,FEMA4ImagesEEG,001,101056,
AFNE01.JPG,AFNE01.JPG,AFNE01.JPG,AFNE01.JPG,AFNE01.JPG,AFNE01.JPG,2,5,25,5,,,,,,,,,,,,,,,,,,,,,,,AFSA08.jpg,AFSA05.jpg,AFNE18.jpg,AFNE10.jpg,AFNE10.jpg,FN,3,num_4,48,None,,,,2017_Jul_21_1250,59.9975175646,FEMA4ImagesEEG,001,101056,
AFNE01.JPG,AFNE01.JPG,AFNE01.JPG,AFNE01.JPG,AFNE01.JPG,AFNE01.JPG,2,6,26,6,,,,,,,,,,,,,,,,,,,,,,,AFNE13.jpg,AFNE02.jpg,AFSA18.jpg,AFSA03.jpg,AFNE02.jpg,FN,3,num_6,48,None,,,,2017_Jul_21_1250,59.9975175646,FEMA4ImagesEEG,001,101056,
AFNE01.JPG,AFNE01.JPG,AFNE01.JPG,AFNE01.JPG,AFNE01.JPG,AFNE01.JPG,2,7,27,4,,,,,,,,,,,,,,,,,,,,,,,AFNE08.jpg,AFNE14.jpg,AFSA10.jpg,AFSA07.jpg,AFSA10.jpg,FS,4,num_2,48,None,,,,2017_Jul_21_1250,59.9975175646,FEMA4ImagesEEG,001,101056,
AFNE01.JPG,AFNE01.JPG,AFNE01.JPG,AFNE01.JPG,AFNE01.JPG,AFNE01.JPG,2,8,28,2,,,,,,,,,,,,,,,,,,,,,,,AFSA04.jpg,AFSA02.jpg,AFNE07.jpg,AFNE19.jpg,AFSA04.jpg,FS,4,num_8,48,None,,,,2017_Jul_21_1250,59.9975175646,FEMA4ImagesEEG,001,101056,
AFNE01.JPG,AFNE01.JPG,AFNE01.JPG,AFNE01.JPG,AFNE01.JPG,AFNE01.JPG,2,9,29,8,,,,,,,,,,,,,,,,,,,,,,,AFNE09.jpg,AFSA12.jpg,AFSA03.jpg,AFNE18.jpg,AFNE09.jpg,FN,3,num_8,48,None,,,,2017_Jul_21_1250,59.9975175646,FEMA4ImagesEEG,001,101056,
AFNE01.JPG,AFNE01.JPG,AFNE01.JPG,AFNE01.JPG,AFNE01.JPG,AFNE01.JPG,3,0,30,6,,,,,,,,,,,,,,,,,,,,,,,AFNE17.jpg,AFSA14.jpg,AFNE11.jpg,AFSA04.jpg,AFSA14.jpg,FS,4,num_6,48,None,,,,2017_Jul_21_1250,59.9975175646,FEMA4ImagesEEG,001,101056,
AFNE01.JPG,AFNE01.JPG,AFNE01.JPG,AFNE01.JPG,AFNE01.JPG,AFNE01.JPG,3,1,31,2,,,,,,,,,,,,,,,,,,,,,,,AFNE14.jpg,AFSA04.jpg,AFSA14.jpg,AFNE04.jpg,AFSA14.jpg,FS,4,num_2,48,None,,,,2017_Jul_21_1250,59.9975175646,FEMA4ImagesEEG,001,101056,
AFNE01.JPG,AFNE01.JPG,AFNE01.JPG,AFNE01.JPG,AFNE01.JPG,AFNE01.JPG,3,2,32,8,,,,,,,,,,,,,,,,,,,,,,,AFSA04.jpg,AFNE06.jpg,AFSA13.jpg,AFNE04.jpg,AFNE04.jpg,FN,3,num_4,48,None,,,,2017_Jul_21_1250,59.9975175646,FEMA4ImagesEEG,001,101056,
AFNE01.JPG,AFNE01.JPG,AFNE01.JPG,AFNE01.JPG,AFNE01.JPG,AFNE01.JPG,3,3,33,9,,,,,,,,,,,,,,,,,,,,,,,AFNE16.jpg,AFSA03.jpg,AFNE20.jpg,AFSA15.jpg,AFSA03.jpg,FS,4,num_6,48,None,,,,2017_Jul_21_1250,59.9975175646,FEMA4ImagesEEG,001,101056,
AFNE01.JPG,AFNE01.JPG,AFNE01.JPG,AFNE01.JPG,AFNE01.JPG,AFNE01.JPG,3,4,34,0,,,,,,,,,,,,,,,,,,,,,,,AFSA08.jpg,AFNE17.jpg,AFNE16.jpg,AFSA11.jpg,AFSA11.jpg,FS,4,num_4,48,None,,,,2017_Jul_21_1250,59.9975175646,FEMA4ImagesEEG,001,101056,
AFNE01.JPG,AFNE01.JPG,AFNE01.JPG,AFNE01.JPG,AFNE01.JPG,AFNE01.JPG,3,5,35,4,,,,,,,,,,,,,,,,,,,,,,,AFNE18.jpg,AFSA09.jpg,AFSA08.jpg,AFNE09.jpg,AFNE18.jpg,FN,3,num_8,48,None,,,,2017_Jul_21_1250,59.9975175646,FEMA4ImagesEEG,001,101056,
AFNE01.JPG,AFNE01.JPG,AFNE01.JPG,AFNE01.JPG,AFNE01.JPG,AFNE01.JPG,3,6,36,5,,,,,,,,,,,,,,,,,,,,,,,AFNE03.jpg,AFSA12.jpg,AFSA19.jpg,AFNE18.jpg,AFSA19.jpg,FS,4,num_2,48,None,,,,2017_Jul_21_1250,59.9975175646,FEMA4ImagesEEG,001,101056,
AFNE01.JPG,AFNE01.JPG,AFNE01.JPG,AFNE01.JPG,AFNE01.JPG,AFNE01.JPG,3,7,37,3,,,,,,,,,,,,,,,,,,,,,,,AFSA09.jpg,AFNE06.jpg,AFSA12.jpg,AFNE20.jpg,AFNE06.jpg,FN,3,num_6,48,None,,,,2017_Jul_21_1250,59.9975175646,FEMA4ImagesEEG,001,101056,
AFNE01.JPG,AFNE01.JPG,AFNE01.JPG,AFNE01.JPG,AFNE01.JPG,AFNE01.JPG,3,8,38,7,,,,,,,,,,,,,,,,,,,,,,,AFNE11.jpg,AFSA04.jpg,AFNE06.jpg,AFSA03.jpg,AFSA04.jpg,FS,4,num_6,48,None,,,,2017_Jul_21_1250,59.9975175646,FEMA4ImagesEEG,001,101056,
AFNE01.JPG,AFNE01.JPG,AFNE01.JPG,AFNE01.JPG,AFNE01.JPG,AFNE01.JPG,3,9,39,1,,,,,,,,,,,,,,,,,,,,,,,AFNE20.jpg,AFSA02.jpg,AFNE02.jpg,AFSA11.jpg,AFSA11.jpg,FS,4,num_4,48,None,,,,2017_Jul_21_1250,59.9975175646,FEMA4ImagesEEG,001,101056,
AFNE01.JPG,AFNE01.JPG,AFNE01.JPG,AFNE01.JPG,AFNE01.JPG,AFNE01.JPG,4,0,40,8,,,,,,,,,,,,,,,,,,,,,,,AFSA11.jpg,AFSA16.jpg,AFNE01.jpg,AFNE09.jpg,AFSA16.jpg,FS,4,num_6,48,None,,,,2017_Jul_21_1250,59.9975175646,FEMA4ImagesEEG,001,101056,
AFNE01.JPG,AFNE01.JPG,AFNE01.JPG,AFNE01.JPG,AFNE01.JPG,AFNE01.JPG,4,1,41,5,,,,,,,,,,,,,,,,,,,,,,,AFSA05.jpg,AFSA14.jpg,AFNE08.jpg,AFNE02.jpg,AFSA05.jpg,FS,4,num_8,48,None,,,,2017_Jul_21_1250,59.9975175646,FEMA4ImagesEEG,001,101056,
AFNE01.JPG,AFNE01.JPG,AFNE01.JPG,AFNE01.JPG,AFNE01.JPG,AFNE01.JPG,4,2,42,7,,,,,,,,,,,,,,,,,,,,,,,AFNE03.jpg,AFSA14.jpg,AFSA08.jpg,AFNE10.jpg,AFNE10.jpg,FN,3,num_4,48,None,,,,2017_Jul_21_1250,59.9975175646,FEMA4ImagesEEG,001,101056,
AFNE01.JPG,AFNE01.JPG,AFNE01.JPG,AFNE01.JPG,AFNE01.JPG,AFNE01.JPG,4,3,43,2,,,,,,,,,,,,,,,,,,,,,,,AFSA14.jpg,AFNE12.jpg,AFNE09.jpg,AFSA12.jpg,AFNE12.jpg,FN,3,num_6,48,None,,,,2017_Jul_21_1250,59.9975175646,FEMA4ImagesEEG,001,101056,
AFNE01.JPG,AFNE01.JPG,AFNE01.JPG,AFNE01.JPG,AFNE01.JPG,AFNE01.JPG,4,4,44,6,,,,,,,,,,,,,,,,,,,,,,,AFNE02.jpg,AFNE19.jpg,AFSA10.jpg,AFSA11.jpg,AFSA10.jpg,FS,4,num_2,48,None,,,,2017_Jul_21_1250,59.9975175646,FEMA4ImagesEEG,001,101056,
AFNE01.JPG,AFNE01.JPG,AFNE01.JPG,AFNE01.JPG,AFNE01.JPG,AFNE01.JPG,4,5,45,4,,,,,,,,,,,,,,,,,,,,,,,AFSA15.jpg,AFSA10.jpg,AFNE03.jpg,AFNE18.jpg,AFNE03.jpg,FN,3,num_2,48,None,,,,2017_Jul_21_1250,59.9975175646,FEMA4ImagesEEG,001,101056,
AFNE01.JPG,AFNE01.JPG,AFNE01.JPG,AFNE01.JPG,AFNE01.JPG,AFNE01.JPG,4,6,46,3,,,,,,,,,,,,,,,,,,,,,,,AFNE15.jpg,AFSA12.jpg,AFSA17.jpg,AFNE07.jpg,AFSA12.jpg,FS,4,num_6,48,None,,,,2017_Jul_21_1250,59.9975175646,FEMA4ImagesEEG,001,101056,
AFNE01.JPG,AFNE01.JPG,AFNE01.JPG,AFNE01.JPG,AFNE01.JPG,AFNE01.JPG,4,7,47,0,,,,,,,,,,,,,,,,,,,,,,,AFSA19.jpg,AFNE16.jpg,AFSA18.jpg,AFNE14.jpg,AFNE16.jpg,FN,3,num_6,48,None,,,,2017_Jul_21_1250,59.9975175646,FEMA4ImagesEEG,001,101056,
AFNE01.JPG,AFNE01.JPG,AFNE01.JPG,AFNE01.JPG,AFNE01.JPG,AFNE01.JPG,4,8,48,9,,,,,,,,,,,,,,,,,,,,,,,AFNE19.jpg,AFNE18.jpg,AFSA11.jpg,AFSA02.jpg,AFNE19.jpg,FN,3,num_8,48,None,,,,2017_Jul_21_1250,59.9975175646,FEMA4ImagesEEG,001,101056,
AFNE01.JPG,AFNE01.JPG,AFNE01.JPG,AFNE01.JPG,AFNE01.JPG,AFNE01.JPG,4,9,49,1,,,,,,,,,,,,,,,,,,,,,,,AFSA02.jpg,AFSA08.jpg,AFNE03.jpg,AFNE20.jpg,AFSA08.jpg,FS,4,num_6,48,None,,,,2017_Jul_21_1250,59.9975175646,FEMA4ImagesEEG,001,101056,
AFNE01.JPG,AFNE01.JPG,AFNE01.JPG,AFNE01.JPG,AFNE01.JPG,AFNE01.JPG,5,0,50,9,,,,,,,,,,,,,,,,,,,,,,,AFNE12.jpg,AFNE13.jpg,AFSA11.jpg,AFSA14.jpg,AFNE13.jpg,FN,3,num_6,48,None,,,,2017_Jul_21_1250,59.9975175646,FEMA4ImagesEEG,001,101056,
AFNE01.JPG,AFNE01.JPG,AFNE01.JPG,AFNE01.JPG,AFNE01.JPG,AFNE01.JPG,5,1,51,2,,,,,,,,,,,,,,,,,,,,,,,AFNE10.jpg,AFSA20.jpg,AFSA03.jpg,AFNE19.jpg,AFSA20.jpg,FS,4,num_6,32,num_2,,,0.950130364799,2017_Jul_21_1250,59.9975175646,FEMA4ImagesEEG,001,101056,
AFNE01.JPG,AFNE01.JPG,AFNE01.JPG,AFNE01.JPG,AFNE01.JPG,AFNE01.JPG,5,2,52,8,,,,,,,,,,,,,,,,,,,,,,,AFSA13.jpg,AFSA16.jpg,AFNE16.jpg,AFNE07.jpg,AFNE16.jpg,FN,3,num_2,32,num_6,,,0.900215505273,2017_Jul_21_1250,59.9975175646,FEMA4ImagesEEG,001,101056,
AFNE01.JPG,AFNE01.JPG,AFNE01.JPG,AFNE01.JPG,AFNE01.JPG,AFNE01.JPG,5,3,53,6,,,,,,,,,,,,,,,,,,,,,,,AFSA14.jpg,AFSA10.jpg,AFNE05.jpg,AFNE08.jpg,AFSA10.jpg,FS,4,num_6,16,num_6,,,1.05007683329,2017_Jul_21_1250,59.9975175646,FEMA4ImagesEEG,001,101056,
AFNE01.JPG,AFNE01.JPG,AFNE01.JPG,AFNE01.JPG,AFNE01.JPG,AFNE01.JPG,5,4,54,5,,,,,,,,,,,,,,,,,,,,,,,AFNE01.jpg,AFSA19.jpg,AFSA04.jpg,AFNE10.jpg,AFNE01.jpg,FN,3,num_8,32,num_4,,,0.800140740757,2017_Jul_21_1250,59.9975175646,FEMA4ImagesEEG,001,101056,
AFNE01.JPG,AFNE01.JPG,AFNE01.JPG,AFNE01.JPG,AFNE01.JPG,AFNE01.JPG,5,5,55,1,,,,,,,,,,,,,,,,,,,,,,,AFSA01.jpg,AFSA15.jpg,AFNE10.jpg,AFNE09.jpg,AFNE09.jpg,FN,3,num_4,32,num_2,,,0.783430180862,2017_Jul_21_1250,59.9975175646,FEMA4ImagesEEG,001,101056,
AFNE01.JPG,AFNE01.JPG,AFNE01.JPG,AFNE01.JPG,AFNE01.JPG,AFNE01.JPG,5,6,56,3,,,,,,,,,,,,,,,,,,,,,,,AFSA02.jpg,AFNE10.jpg,AFSA14.jpg,AFNE01.jpg,AFSA02.jpg,FS,4,num_8,16,num_8,,,0.816787152668,2017_Jul_21_1250,59.9975175646,FEMA4ImagesEEG,001,101056,
AFNE01.JPG,AFNE01.JPG,AFNE01.JPG,AFNE01.JPG,AFNE01.JPG,AFNE01.JPG,5,7,57,4,,,,,,,,,,,,,,,,,,,,,,,AFNE04.jpg,AFSA15.jpg,AFNE15.jpg,AFSA13.jpg,AFNE15.jpg,FN,3,num_2,16,num_2,,,0.683515465644,2017_Jul_21_1250,59.9975175646,FEMA4ImagesEEG,001,101056,
AFNE01.JPG,AFNE01.JPG,AFNE01.JPG,AFNE01.JPG,AFNE01.JPG,AFNE01.JPG,5,8,58,0,,,,,,,,,,,,,,,,,,,,,,,AFNE18.jpg,AFSA15.jpg,AFSA11.jpg,AFNE09.jpg,AFNE09.jpg,FN,3,num_4,16,num_4,,,1.08341648523,2017_Jul_21_1250,59.9975175646,FEMA4ImagesEEG,001,101056,
AFNE01.JPG,AFNE01.JPG,AFNE01.JPG,AFNE01.JPG,AFNE01.JPG,AFNE01.JPG,5,9,59,7,,,,,,,,,,,,,,,,,,,,,,,AFSA15.jpg,AFNE08.jpg,AFSA04.jpg,AFNE10.jpg,AFSA15.jpg,FS,4,num_8,32,num_6,,,0.750083472638,2017_Jul_21_1250,59.9975175646,FEMA4ImagesEEG,001,101056,
,,,,,,,,,,,,,,,,,,,,,,,,,,,,,,,,,,,,,,,,,,space,20.9489086657,,2017_Jul_21_1250,59.9975175646,FEMA4ImagesEEG,001,101056,
AFNE01.JPG,AFNE01.JPG,AFNE01.JPG,AFNE01.JPG,AFNE01.JPG,AFNE01.JPG,,,,,0,0,0,3,,,,,,,,,,,,,,,,,,,AMSA17.jpg,AMSA03.jpg,AMNE17.jpg,AMNE06.jpg,AMSA17.jpg,MS,2,num_8,32,num_4,,,0.716754084395,2017_Jul_21_1250,59.9975175646,FEMA4ImagesEEG,001,101056,
AFNE01.JPG,AFNE01.JPG,AFNE01.JPG,AFNE01.JPG,AFNE01.JPG,AFNE01.JPG,,,,,0,1,1,2,,,,,,,,,,,,,,,,,,,AMNE03.jpg,AMSA03.jpg,AMNE14.jpg,AMSA09.jpg,AMNE03.jpg,MN,1,num_8,32,num_2,,,1.01679074502,2017_Jul_21_1250,59.9975175646,FEMA4ImagesEEG,001,101056,
AFNE01.JPG,AFNE01.JPG,AFNE01.JPG,AFNE01.JPG,AFNE01.JPG,AFNE01.JPG,,,,,0,2,2,0,,,,,,,,,,,,,,,,,,,AMNE04.jpg,AMSA18.jpg,AMNE18.jpg,AMSA12.jpg,AMNE18.jpg,MN,1,num_2,32,num_6,,,0.967102969415,2017_Jul_21_1250,59.9975175646,FEMA4ImagesEEG,001,101056,
AFNE01.JPG,AFNE01.JPG,AFNE01.JPG,AFNE01.JPG,AFNE01.JPG,AFNE01.JPG,,,,,0,3,3,7,,,,,,,,,,,,,,,,,,,AMSA04.jpg,AMNE20.jpg,AMNE17.jpg,AMSA16.jpg,AMSA16.jpg,MS,2,num_4,16,num_4,,,1.0001225227,2017_Jul_21_1250,59.9975175646,FEMA4ImagesEEG,001,101056,
AFNE01.JPG,AFNE01.JPG,AFNE01.JPG,AFNE01.JPG,AFNE01.JPG,AFNE01.JPG,,,,,0,4,4,8,,,,,,,,,,,,,,,,,,,AMSA20.jpg,AMSA18.jpg,AMNE10.jpg,AMNE18.jpg,AMSA18.jpg,MS,2,num_6,32,num_8,,,0.700197800412,2017_Jul_21_1250,59.9975175646,FEMA4ImagesEEG,001,101056,
AFNE01.JPG,AFNE01.JPG,AFNE01.JPG,AFNE01.JPG,AFNE01.JPG,AFNE01.JPG,,,,,0,5,5,1,,,,,,,,,,,,,,,,,,,AMSA05.jpg,AMNE07.jpg,AMNE14.jpg,AMSA09.jpg,AMSA09.jpg,MS,2,num_4,32,num_8,,,1.48340057652,2017_Jul_21_1250,59.9975175646,FEMA4ImagesEEG,001,101056,
AFNE01.JPG,AFNE01.JPG,AFNE01.JPG,AFNE01.JPG,AFNE01.JPG,AFNE01.JPG,,,,,0,6,6,4,,,,,,,,,,,,,,,,,,,AMNE10.jpg,AMSA17.jpg,AMNE04.jpg,AMSA04.jpg,AMNE10.jpg,MN,1,num_8,32,num_4,,,1.51673509658,2017_Jul_21_1250,59.9975175646,FEMA4ImagesEEG,001,101056,
AFNE01.JPG,AFNE01.JPG,AFNE01.JPG,AFNE01.JPG,AFNE01.JPG,AFNE01.JPG,,,,,0,7,7,5,,,,,,,,,,,,,,,,,,,AMNE19.jpg,AMNE12.jpg,AMSA19.jpg,AMSA11.jpg,AMSA19.jpg,MS,2,num_2,32,num_6,,,1.38339380885,2017_Jul_21_1250,59.9975175646,FEMA4ImagesEEG,001,101056,
AFNE01.JPG,AFNE01.JPG,AFNE01.JPG,AFNE01.JPG,AFNE01.JPG,AFNE01.JPG,,,,,0,8,8,6,,,,,,,,,,,,,,,,,,,AMSA05.jpg,AMNE09.jpg,AMSA03.jpg,AMNE19.jpg,AMNE09.jpg,MN,1,num_6,32,num_8,,,1.26671047974,2017_Jul_21_1250,59.9975175646,FEMA4ImagesEEG,001,101056,
AFNE01.JPG,AFNE01.JPG,AFNE01.JPG,AFNE01.JPG,AFNE01.JPG,AFNE01.JPG,,,,,0,9,9,9,,,,,,,,,,,,,,,,,,,AMNE05.jpg,AMNE19.jpg,AMSA07.jpg,AMSA08.jpg,AMSA08.jpg,MS,2,num_4,16,num_4,,,0.833551596967,2017_Jul_21_1250,59.9975175646,FEMA4ImagesEEG,001,101056,
AFNE01.JPG,AFNE01.JPG,AFNE01.JPG,AFNE01.JPG,AFNE01.JPG,AFNE01.JPG,,,,,1,0,10,2,,,,,,,,,,,,,,,,,,,AMNE11.jpg,AMSA07.jpg,AMNE02.jpg,AMSA17.jpg,AMSA07.jpg,MS,2,num_6,16,num_6,,,1.13344328309,2017_Jul_21_1250,59.9975175646,FEMA4ImagesEEG,001,101056,
AFNE01.JPG,AFNE01.JPG,AFNE01.JPG,AFNE01.JPG,AFNE01.JPG,AFNE01.JPG,,,,,1,1,11,6,,,,,,,,,,,,,,,,,,,AMNE14.jpg,AMSA15.jpg,AMSA20.jpg,AMNE04.jpg,AMSA15.jpg,MS,2,num_6,32,num_2,,,1.18346719421,2017_Jul_21_1250,59.9975175646,FEMA4ImagesEEG,001,101056,
AFNE01.JPG,AFNE01.JPG,AFNE01.JPG,AFNE01.JPG,AFNE01.JPG,AFNE01.JPG,,,,,1,2,12,0,,,,,,,,,,,,,,,,,,,AMSA03.jpg,AMSA20.jpg,AMNE04.jpg,AMNE10.jpg,AMNE04.jpg,MN,1,num_2,32,num_4,,,1.43342573853,2017_Jul_21_1250,59.9975175646,FEMA4ImagesEEG,001,101056,
AFNE01.JPG,AFNE01.JPG,AFNE01.JPG,AFNE01.JPG,AFNE01.JPG,AFNE01.JPG,,,,,1,3,13,4,,,,,,,,,,,,,,,,,,,AMSA03.jpg,AMNE08.jpg,AMSA08.jpg,AMNE18.jpg,AMSA03.jpg,MS,2,num_8,32,num_2,,,1.01682474342,2017_Jul_21_1250,59.9975175646,FEMA4ImagesEEG,001,101056,
AFNE01.JPG,AFNE01.JPG,AFNE01.JPG,AFNE01.JPG,AFNE01.JPG,AFNE01.JPG,,,,,1,4,14,8,,,,,,,,,,,,,,,,,,,AMNE16.jpg,AMSA06.jpg,AMSA11.jpg,AMNE06.jpg,AMSA06.jpg,MS,2,num_6,32,num_4,,,1.33310721157,2017_Jul_21_1250,59.9975175646,FEMA4ImagesEEG,001,101056,
AFNE01.JPG,AFNE01.JPG,AFNE01.JPG,AFNE01.JPG,AFNE01.JPG,AFNE01.JPG,,,,,1,5,15,9,,,,,,,,,,,,,,,,,,,AMNE11.jpg,AMSA11.jpg,AMSA15.jpg,AMNE01.jpg,AMNE11.jpg,MN,1,num_8,32,num_2,,,1.63341585972,2017_Jul_21_1250,59.9975175646,FEMA4ImagesEEG,001,101056,
AFNE01.JPG,AFNE01.JPG,AFNE01.JPG,AFNE01.JPG,AFNE01.JPG,AFNE01.JPG,,,,,1,6,16,1,,,,,,,,,,,,,,,,,,,AMNE16.jpg,AMSA01.jpg,AMSA04.jpg,AMNE19.jpg,AMSA01.jpg,MS,2,num_6,16,num_6,,,1.25008619891,2017_Jul_21_1250,59.9975175646,FEMA4ImagesEEG,001,101056,
AFNE01.JPG,AFNE01.JPG,AFNE01.JPG,AFNE01.JPG,AFNE01.JPG,AFNE01.JPG,,,,,1,7,17,5,,,,,,,,,,,,,,,,,,,AMSA20.jpg,AMNE04.jpg,AMNE01.jpg,AMSA02.jpg,AMNE04.jpg,MN,1,num_6,32,num_4,,,1.7501800154,2017_Jul_21_1250,59.9975175646,FEMA4ImagesEEG,001,101056,
AFNE01.JPG,AFNE01.JPG,AFNE01.JPG,AFNE01.JPG,AFNE01.JPG,AFNE01.JPG,,,,,1,8,18,7,,,,,,,,,,,,,,,,,,,AMNE12.jpg,AMSA03.jpg,AMNE14.jpg,AMSA04.jpg,AMNE12.jpg,MN,1,num_8,16,num_8,,,0.883480569115,2017_Jul_21_1250,59.9975175646,FEMA4ImagesEEG,001,101056,
AFNE01.JPG,AFNE01.JPG,AFNE01.JPG,AFNE01.JPG,AFNE01.JPG,AFNE01.JPG,,,,,1,9,19,3,,,,,,,,,,,,,,,,,,,AMNE03.jpg,AMSA02.jpg,AMNE16.jpg,AMSA19.jpg,AMSA19.jpg,MS,2,num_4,16,num_4,,,0.883440155827,2017_Jul_21_1250,59.9975175646,FEMA4ImagesEEG,001,101056,
AFNE01.JPG,AFNE01.JPG,AFNE01.JPG,AFNE01.JPG,AFNE01.JPG,AFNE01.JPG,,,,,2,0,20,7,,,,,,,,,,,,,,,,,,,AMNE15.jpg,AMSA17.jpg,AMNE20.jpg,AMSA08.jpg,AMNE20.jpg,MN,1,num_2,16,num_2,,,0.95022690756,2017_Jul_21_1250,59.9975175646,FEMA4ImagesEEG,001,101056,
AFNE01.JPG,AFNE01.JPG,AFNE01.JPG,AFNE01.JPG,AFNE01.JPG,AFNE01.JPG,,,,,2,1,21,0,,,,,,,,,,,,,,,,,,,AMNE09.jpg,AMSA20.jpg,AMNE15.jpg,AMSA05.jpg,AMSA20.jpg,MS,2,num_6,16,num_6,,,0.866746274347,2017_Jul_21_1250,59.9975175646,FEMA4ImagesEEG,001,101056,
AFNE01.JPG,AFNE01.JPG,AFNE01.JPG,AFNE01.JPG,AFNE01.JPG,AFNE01.JPG,,,,,2,2,22,1,,,,,,,,,,,,,,,,,,,AMNE05.jpg,AMSA09.jpg,AMSA06.jpg,AMNE12.jpg,AMSA06.jpg,MS,2,num_2,16,num_2,,,1.16673386173,2017_Jul_21_1250,59.9975175646,FEMA4ImagesEEG,001,101056,
AFNE01.JPG,AFNE01.JPG,AFNE01.JPG,AFNE01.JPG,AFNE01.JPG,AFNE01.JPG,,,,,2,3,23,6,,,,,,,,,,,,,,,,,,,AMNE14.jpg,AMSA12.jpg,AMSA02.jpg,AMNE20.jpg,AMSA02.jpg,MS,2,num_2,32,num_8,,,1.21676098026,2017_Jul_21_1250,59.9975175646,FEMA4ImagesEEG,001,101056,
AFNE01.JPG,AFNE01.JPG,AFNE01.JPG,AFNE01.JPG,AFNE01.JPG,AFNE01.JPG,,,,,2,4,24,3,,,,,,,,,,,,,,,,,,,AMSA15.jpg,AMSA07.jpg,AMNE11.jpg,AMNE04.jpg,AMSA15.jpg,MS,2,num_8,32,num_4,,,2.1168238133,2017_Jul_21_1250,59.9975175646,FEMA4ImagesEEG,001,101056,
AFNE01.JPG,AFNE01.JPG,AFNE01.JPG,AFNE01.JPG,AFNE01.JPG,AFNE01.JPG,,,,,2,5,25,2,,,,,,,,,,,,,,,,,,,AMNE04.jpg,AMNE17.jpg,AMSA01.jpg,AMSA13.jpg,AMNE04.jpg,MN,1,num_8,16,num_8,,,2.89995763026,2017_Jul_21_1250,59.9975175646,FEMA4ImagesEEG,001,101056,
AFNE01.JPG,AFNE01.JPG,AFNE01.JPG,AFNE01.JPG,AFNE01.JPG,AFNE01.JPG,,,,,2,6,26,8,,,,,,,,,,,,,,,,,,,AMNE01.jpg,AMSA04.jpg,AMSA13.jpg,AMNE16.jpg,AMNE01.jpg,MN,1,num_8,32,num_4,,,2.35021131963,2017_Jul_21_1250,59.9975175646,FEMA4ImagesEEG,001,101056,
AFNE01.JPG,AFNE01.JPG,AFNE01.JPG,AFNE01.JPG,AFNE01.JPG,AFNE01.JPG,,,,,2,7,27,9,,,,,,,,,,,,,,,,,,,AMSA14.jpg,AMNE16.jpg,AMNE17.jpg,AMSA20.jpg,AMNE16.jpg,MN,1,num_6,32,num_2,,,1.40016691317,2017_Jul_21_1250,59.9975175646,FEMA4ImagesEEG,001,101056,
AFNE01.JPG,AFNE01.JPG,AFNE01.JPG,AFNE01.JPG,AFNE01.JPG,AFNE01.JPG,,,,,2,8,28,5,,,,,,,,,,,,,,,,,,,AMSA07.jpg,AMNE01.jpg,AMSA12.jpg,AMNE19.jpg,AMSA12.jpg,MS,2,num_2,16,num_2,,,1.18340176326,2017_Jul_21_1250,59.9975175646,FEMA4ImagesEEG,001,101056,
AFNE01.JPG,AFNE01.JPG,AFNE01.JPG,AFNE01.JPG,AFNE01.JPG,AFNE01.JPG,,,,,2,9,29,4,,,,,,,,,,,,,,,,,,,AMSA11.jpg,AMNE12.jpg,AMNE03.jpg,AMSA12.jpg,AMSA12.jpg,MS,2,num_4,32,num_2,,,1.48343168828,2017_Jul_21_1250,59.9975175646,FEMA4ImagesEEG,001,101056,
AFNE01.JPG,AFNE01.JPG,AFNE01.JPG,AFNE01.JPG,AFNE01.JPG,AFNE01.JPG,,,,,3,0,30,4,,,,,,,,,,,,,,,,,,,AMNE03.jpg,AMNE13.jpg,AMSA08.jpg,AMSA18.jpg,AMSA08.jpg,MS,2,num_2,32,num_8,,,1.00014882337,2017_Jul_21_1250,59.9975175646,FEMA4ImagesEEG,001,101056,
AFNE01.JPG,AFNE01.JPG,AFNE01.JPG,AFNE01.JPG,AFNE01.JPG,AFNE01.JPG,,,,,3,1,31,8,,,,,,,,,,,,,,,,,,,AMNE12.jpg,AMNE16.jpg,AMSA20.jpg,AMSA19.jpg,AMSA20.jpg,MS,2,num_2,16,num_2,,,1.33357260551,2017_Jul_21_1250,59.9975175646,FEMA4ImagesEEG,001,101056,
AFNE01.JPG,AFNE01.JPG,AFNE01.JPG,AFNE01.JPG,AFNE01.JPG,AFNE01.JPG,,,,,3,2,32,1,,,,,,,,,,,,,,,,,,,AMNE01.jpg,AMNE13.jpg,AMSA07.jpg,AMSA15.jpg,AMSA15.jpg,MS,2,num_4,16,num_4,,,0.716820477624,2017_Jul_21_1250,59.9975175646,FEMA4ImagesEEG,001,101056,
AFNE01.JPG,AFNE01.JPG,AFNE01.JPG,AFNE01.JPG,AFNE01.JPG,AFNE01.JPG,,,,,3,3,33,5,,,,,,,,,,,,,,,,,,,AMSA16.jpg,AMNE06.jpg,AMSA17.jpg,AMNE13.jpg,AMNE06.jpg,MN,1,num_6,32,num_2,,,1.51667255221,2017_Jul_21_1250,59.9975175646,FEMA4ImagesEEG,001,101056,
AFNE01.JPG,AFNE01.JPG,AFNE01.JPG,AFNE01.JPG,AFNE01.JPG,AFNE01.JPG,,,,,3,4,34,3,,,,,,,,,,,,,,,,,,,AMSA14.jpg,AMNE13.jpg,AMSA18.jpg,AMNE09.jpg,AMSA18.jpg,MS,2,num_2,16,num_2,,,1.80010578007,2017_Jul_21_1250,59.9975175646,FEMA4ImagesEEG,001,101056,
AFNE01.JPG,AFNE01.JPG,AFNE01.JPG,AFNE01.JPG,AFNE01.JPG,AFNE01.JPG,,,,,3,5,35,0,,,,,,,,,,,,,,,,,,,AMSA08.jpg,AMSA07.jpg,AMNE01.jpg,AMNE14.jpg,AMSA07.jpg,MS,2,num_6,16,num_6,,,1.8667081063,2017_Jul_21_1250,59.9975175646,FEMA4ImagesEEG,001,101056,
AFNE01.JPG,AFNE01.JPG,AFNE01.JPG,AFNE01.JPG,AFNE01.JPG,AFNE01.JPG,,,,,3,6,36,2,,,,,,,,,,,,,,,,,,,AMSA05.jpg,AMNE06.jpg,AMNE05.jpg,AMSA20.jpg,AMSA20.jpg,MS,2,num_4,32,num_6,,,1.05006753182,2017_Jul_21_1250,59.9975175646,FEMA4ImagesEEG,001,101056,
AFNE01.JPG,AFNE01.JPG,AFNE01.JPG,AFNE01.JPG,AFNE01.JPG,AFNE01.JPG,,,,,3,7,37,9,,,,,,,,,,,,,,,,,,,AMNE06.jpg,AMNE14.jpg,AMSA18.jpg,AMSA08.jpg,AMNE06.jpg,MN,1,num_8,16,num_8,,,0.483501930372,2017_Jul_21_1250,59.9975175646,FEMA4ImagesEEG,001,101056,
AFNE01.JPG,AFNE01.JPG,AFNE01.JPG,AFNE01.JPG,AFNE01.JPG,AFNE01.JPG,,,,,3,8,38,6,,,,,,,,,,,,,,,,,,,AMNE12.jpg,AMSA13.jpg,AMSA04.jpg,AMNE02.jpg,AMNE12.jpg,MN,1,num_8,16,num_8,,,0.883429571404,2017_Jul_21_1250,59.9975175646,FEMA4ImagesEEG,001,101056,
AFNE01.JPG,AFNE01.JPG,AFNE01.JPG,AFNE01.JPG,AFNE01.JPG,AFNE01.JPG,,,,,3,9,39,7,,,,,,,,,,,,,,,,,,,AMSA02.jpg,AMNE08.jpg,AMSA05.jpg,AMNE18.jpg,AMNE18.jpg,MN,1,num_4,32,num_2,,,1.15014646598,2017_Jul_21_1250,59.9975175646,FEMA4ImagesEEG,001,101056,
AFNE01.JPG,AFNE01.JPG,AFNE01.JPG,AFNE01.JPG,AFNE01.JPG,AFNE01.JPG,,,,,4,0,40,1,,,,,,,,,,,,,,,,,,,AMSA19.jpg,AMSA17.jpg,AMNE10.jpg,AMNE18.jpg,AMNE10.jpg,MN,1,num_2,32,num_4,,,1.5000514788,2017_Jul_21_1250,59.9975175646,FEMA4ImagesEEG,001,101056,
AFNE01.JPG,AFNE01.JPG,AFNE01.JPG,AFNE01.JPG,AFNE01.JPG,AFNE01.JPG,,,,,4,1,41,8,,,,,,,,,,,,,,,,,,,AMNE20.jpg,AMSA07.jpg,AMNE10.jpg,AMSA08.jpg,AMNE20.jpg,MN,1,num_8,32,num_2,,,1.21669394564,2017_Jul_21_1250,59.9975175646,FEMA4ImagesEEG,001,101056,
AFNE01.JPG,AFNE01.JPG,AFNE01.JPG,AFNE01.JPG,AFNE01.JPG,AFNE01.JPG,,,,,4,2,42,5,,,,,,,,,,,,,,,,,,,AMSA08.jpg,AMNE08.jpg,AMSA03.jpg,AMNE01.jpg,AMNE08.jpg,MN,1,num_6,32,num_2,,,2.28334021318,2017_Jul_21_1250,59.9975175646,FEMA4ImagesEEG,001,101056,
AFNE01.JPG,AFNE01.JPG,AFNE01.JPG,AFNE01.JPG,AFNE01.JPG,AFNE01.JPG,,,,,4,3,43,6,,,,,,,,,,,,,,,,,,,AMNE16.jpg,AMNE02.jpg,AMSA20.jpg,AMSA14.jpg,AMSA14.jpg,MS,2,num_4,32,num_8,,,1.21670228487,2017_Jul_21_1250,59.9975175646,FEMA4ImagesEEG,001,101056,
AFNE01.JPG,AFNE01.JPG,AFNE01.JPG,AFNE01.JPG,AFNE01.JPG,AFNE01.JPG,,,,,4,4,44,2,,,,,,,,,,,,,,,,,,,AMSA07.jpg,AMNE07.jpg,AMSA03.jpg,AMNE01.jpg,AMSA07.jpg,MS,2,num_8,32,num_6,,,0.750098547374,2017_Jul_21_1250,59.9975175646,FEMA4ImagesEEG,001,101056,
AFNE01.JPG,AFNE01.JPG,AFNE01.JPG,AFNE01.JPG,AFNE01.JPG,AFNE01.JPG,,,,,4,5,45,0,,,,,,,,,,,,,,,,,,,AMSA04.jpg,AMNE07.jpg,AMNE17.jpg,AMSA14.jpg,AMNE07.jpg,MN,1,num_6,32,num_2,,,0.950225945388,2017_Jul_21_1250,59.9975175646,FEMA4ImagesEEG,001,101056,
AFNE01.JPG,AFNE01.JPG,AFNE01.JPG,AFNE01.JPG,AFNE01.JPG,AFNE01.JPG,,,,,4,6,46,3,,,,,,,,,,,,,,,,,,,AMSA03.jpg,AMSA13.jpg,AMNE18.jpg,AMNE11.jpg,AMSA03.jpg,MS,2,num_8,16,num_8,,,1.10010587634,2017_Jul_21_1250,59.9975175646,FEMA4ImagesEEG,001,101056,
AFNE01.JPG,AFNE01.JPG,AFNE01.JPG,AFNE01.JPG,AFNE01.JPG,AFNE01.JPG,,,,,4,7,47,4,,,,,,,,,,,,,,,,,,,AMSA14.jpg,AMNE14.jpg,AMSA11.jpg,AMNE15.jpg,AMNE15.jpg,MN,1,num_4,32,num_6,,,0.850180047506,2017_Jul_21_1250,59.9975175646,FEMA4ImagesEEG,001,101056,
AFNE01.JPG,AFNE01.JPG,AFNE01.JPG,AFNE01.JPG,AFNE01.JPG,AFNE01.JPG,,,,,4,8,48,9,,,,,,,,,,,,,,,,,,,AMSA08.jpg,AMNE01.jpg,AMSA12.jpg,AMNE12.jpg,AMNE01.jpg,MN,1,num_6,16,num_6,,,0.96672962798,2017_Jul_21_1250,59.9975175646,FEMA4ImagesEEG,001,101056,
AFNE01.JPG,AFNE01.JPG,AFNE01.JPG,AFNE01.JPG,AFNE01.JPG,AFNE01.JPG,,,,,4,9,49,7,,,,,,,,,,,,,,,,,,,AMSA19.jpg,AMNE15.jpg,AMSA18.jpg,AMNE19.jpg,AMSA19.jpg,MS,2,num_8,32,num_4,,,1.55004748557,2017_Jul_21_1250,59.9975175646,FEMA4ImagesEEG,001,101056,
AFNE01.JPG,AFNE01.JPG,AFNE01.JPG,AFNE01.JPG,AFNE01.JPG,AFNE01.JPG,,,,,5,0,50,9,,,,,,,,,,,,,,,,,,,AMSA10.jpg,AMSA05.jpg,AMNE02.jpg,AMNE09.jpg,AMSA10.jpg,MS,2,num_8,32,num_2,,,0.916621041368,2017_Jul_21_1250,59.9975175646,FEMA4ImagesEEG,001,101056,
AFNE01.JPG,AFNE01.JPG,AFNE01.JPG,AFNE01.JPG,AFNE01.JPG,AFNE01.JPG,,,,,5,1,51,1,,,,,,,,,,,,,,,,,,,AMSA08.jpg,AMNE17.jpg,AMSA07.jpg,AMNE09.jpg,AMSA07.jpg,MS,2,num_2,16,num_2,,,1.31674786203,2017_Jul_21_1250,59.9975175646,FEMA4ImagesEEG,001,101056,
AFNE01.JPG,AFNE01.JPG,AFNE01.JPG,AFNE01.JPG,AFNE01.JPG,AFNE01.JPG,,,,,5,2,52,8,,,,,,,,,,,,,,,,,,,AMNE06.jpg,AMNE17.jpg,AMSA03.jpg,AMSA09.jpg,AMNE06.jpg,MN,1,num_8,32,num_4,,,1.2334914261,2017_Jul_21_1250,59.9975175646,FEMA4ImagesEEG,001,101056,
AFNE01.JPG,AFNE01.JPG,AFNE01.JPG,AFNE01.JPG,AFNE01.JPG,AFNE01.JPG,,,,,5,3,53,7,,,,,,,,,,,,,,,,,,,AMNE20.jpg,AMNE13.jpg,AMSA06.jpg,AMSA17.jpg,AMNE13.jpg,MN,1,num_6,32,num_2,,,1.48344708385,2017_Jul_21_1250,59.9975175646,FEMA4ImagesEEG,001,101056,
AFNE01.JPG,AFNE01.JPG,AFNE01.JPG,AFNE01.JPG,AFNE01.JPG,AFNE01.JPG,,,,,5,4,54,4,,,,,,,,,,,,,,,,,,,AMNE03.jpg,AMNE08.jpg,AMSA10.jpg,AMSA16.jpg,AMNE03.jpg,MN,1,num_8,32,num_4,,,1.01677983982,2017_Jul_21_1250,59.9975175646,FEMA4ImagesEEG,001,101056,
AFNE01.JPG,AFNE01.JPG,AFNE01.JPG,AFNE01.JPG,AFNE01.JPG,AFNE01.JPG,,,,,5,5,55,3,,,,,,,,,,,,,,,,,,,AMSA04.jpg,AMNE03.jpg,AMNE17.jpg,AMSA06.jpg,AMNE03.jpg,MN,1,num_6,32,num_8,,,0.716785196157,2017_Jul_21_1250,59.9975175646,FEMA4ImagesEEG,001,101056,
AFNE01.JPG,AFNE01.JPG,AFNE01.JPG,AFNE01.JPG,AFNE01.JPG,AFNE01.JPG,,,,,5,6,56,6,,,,,,,,,,,,,,,,,,,AMSA11.jpg,AMNE16.jpg,AMNE17.jpg,AMSA12.jpg,AMNE16.jpg,MN,1,num_6,16,num_6,,,1.25010929216,2017_Jul_21_1250,59.9975175646,FEMA4ImagesEEG,001,101056,
AFNE01.JPG,AFNE01.JPG,AFNE01.JPG,AFNE01.JPG,AFNE01.JPG,AFNE01.JPG,,,,,5,7,57,5,,,,,,,,,,,,,,,,,,,AMSA08.jpg,AMNE15.jpg,AMSA15.jpg,AMNE12.jpg,AMSA15.jpg,MS,2,num_2,16,num_2,,,1.20009724842,2017_Jul_21_1250,59.9975175646,FEMA4ImagesEEG,001,101056,
AFNE01.JPG,AFNE01.JPG,AFNE01.JPG,AFNE01.JPG,AFNE01.JPG,AFNE01.JPG,,,,,5,8,58,0,,,,,,,,,,,,,,,,,,,AMNE07.jpg,AMSA03.jpg,AMNE08.jpg,AMSA19.jpg,AMSA19.jpg,MS,2,num_4,32,num_2,,,0.916779807769,2017_Jul_21_1250,59.9975175646,FEMA4ImagesEEG,001,101056,
AFNE01.JPG,AFNE01.JPG,AFNE01.JPG,AFNE01.JPG,AFNE01.JPG,AFNE01.JPG,,,,,5,9,59,2,,,,,,,,,,,,,,,,,,,AMSA17.jpg,AMNE01.jpg,AMNE08.jpg,AMSA12.jpg,AMNE01.jpg,MN,1,num_6,32,num_8,,,1.50010408019,2017_Jul_21_1250,59.9975175646,FEMA4ImagesEEG,001,101056,
,,,,,,,,,,,,,,,,,,,,,,,,,,,,,,,,,,,,,,,,,,space,39.5135020362,,2017_Jul_21_1250,59.9975175646,FEMA4ImagesEEG,001,101056,
AFNE01.JPG,AFNE01.JPG,AFNE01.JPG,AFNE01.JPG,AFNE01.JPG,AFNE01.JPG,,,,,,,,,0,0,0,4,,,,,,,,,,,,,,,AFSA20.jpg,AFSA09.jpg,AFNE07.jpg,AFNE06.jpg,AFSA09.jpg,FS,4,num_6,16,num_6,,,0.900177016505,2017_Jul_21_1250,59.9975175646,FEMA4ImagesEEG,001,101056,
AFNE01.JPG,AFNE01.JPG,AFNE01.JPG,AFNE01.JPG,AFNE01.JPG,AFNE01.JPG,,,,,,,,,0,1,1,5,,,,,,,,,,,,,,,AFSA05.jpg,AFNE17.jpg,AFSA12.jpg,AFNE20.jpg,AFSA12.jpg,FS,4,num_2,16,num_2,,,1.01671184291,2017_Jul_21_1250,59.9975175646,FEMA4ImagesEEG,001,101056,
AFNE01.JPG,AFNE01.JPG,AFNE01.JPG,AFNE01.JPG,AFNE01.JPG,AFNE01.JPG,,,,,,,,,0,2,2,1,,,,,,,,,,,,,,,AFNE05.jpg,AFNE17.jpg,AFSA08.jpg,AFSA06.jpg,AFSA08.jpg,FS,4,num_2,16,num_2,,,0.716794818349,2017_Jul_21_1250,59.9975175646,FEMA4ImagesEEG,001,101056,
AFNE01.JPG,AFNE01.JPG,AFNE01.JPG,AFNE01.JPG,AFNE01.JPG,AFNE01.JPG,,,,,,,,,0,3,3,2,,,,,,,,,,,,,,,AFSA04.jpg,AFSA19.jpg,AFNE05.jpg,AFNE19.jpg,AFNE19.jpg,FN,3,num_4,16,num_4,,,1.03349905973,2017_Jul_21_1250,59.9975175646,FEMA4ImagesEEG,001,101056,
AFNE01.JPG,AFNE01.JPG,AFNE01.JPG,AFNE01.JPG,AFNE01.JPG,AFNE01.JPG,,,,,,,,,0,4,4,9,,,,,,,,,,,,,,,AFNE10.jpg,AFSA01.jpg,AFNE14.jpg,AFSA12.jpg,AFNE10.jpg,FN,3,num_8,32,num_6,,,0.883454909897,2017_Jul_21_1250,59.9975175646,FEMA4ImagesEEG,001,101056,
AFNE01.JPG,AFNE01.JPG,AFNE01.JPG,AFNE01.JPG,AFNE01.JPG,AFNE01.JPG,,,,,,,,,0,5,5,6,,,,,,,,,,,,,,,AFSA18.jpg,AFNE16.jpg,AFNE14.jpg,AFSA11.jpg,AFNE16.jpg,FN,3,num_6,32,num_4,,,1.06676462071,2017_Jul_21_1250,59.9975175646,FEMA4ImagesEEG,001,101056,
AFNE01.JPG,AFNE01.JPG,AFNE01.JPG,AFNE01.JPG,AFNE01.JPG,AFNE01.JPG,,,,,,,,,0,6,6,8,,,,,,,,,,,,,,,AFSA10.jpg,AFNE10.jpg,AFNE01.jpg,AFSA09.jpg,AFNE01.jpg,FN,3,num_2,16,num_2,,,0.950153458107,2017_Jul_21_1250,59.9975175646,FEMA4ImagesEEG,001,101056,
AFNE01.JPG,AFNE01.JPG,AFNE01.JPG,AFNE01.JPG,AFNE01.JPG,AFNE01.JPG,,,,,,,,,0,7,7,3,,,,,,,,,,,,,,,AFNE07.jpg,AFSA08.jpg,AFNE20.jpg,AFSA10.jpg,AFSA10.jpg,FS,4,num_4,32,num_8,,,2.18349221192,2017_Jul_21_1250,59.9975175646,FEMA4ImagesEEG,001,101056,
AFNE01.JPG,AFNE01.JPG,AFNE01.JPG,AFNE01.JPG,AFNE01.JPG,AFNE01.JPG,,,,,,,,,0,8,8,0,,,,,,,,,,,,,,,AFNE17.jpg,AFNE08.jpg,AFSA20.jpg,AFSA19.jpg,AFSA20.jpg,FS,4,num_2,16,num_2,,,0.633543514297,2017_Jul_21_1250,59.9975175646,FEMA4ImagesEEG,001,101056,
AFNE01.JPG,AFNE01.JPG,AFNE01.JPG,AFNE01.JPG,AFNE01.JPG,AFNE01.JPG,,,,,,,,,0,9,9,7,,,,,,,,,,,,,,,AFNE19.jpg,AFSA08.jpg,AFNE20.jpg,AFSA05.jpg,AFNE20.jpg,FN,3,num_2,32,num_6,,,1.06676814886,2017_Jul_21_1250,59.9975175646,FEMA4ImagesEEG,001,101056,
AFNE01.JPG,AFNE01.JPG,AFNE01.JPG,AFNE01.JPG,AFNE01.JPG,AFNE01.JPG,,,,,,,,,1,0,10,3,,,,,,,,,,,,,,,AFNE19.jpg,AFNE09.jpg,AFSA17.jpg,AFSA07.jpg,AFNE19.jpg,FN,3,num_8,16,num_8,,,0.633735316922,2017_Jul_21_1250,59.9975175646,FEMA4ImagesEEG,001,101056,
AFNE01.JPG,AFNE01.JPG,AFNE01.JPG,AFNE01.JPG,AFNE01.JPG,AFNE01.JPG,,,,,,,,,1,1,11,9,,,,,,,,,,,,,,,AFNE16.jpg,AFNE10.jpg,AFSA06.jpg,AFSA09.jpg,AFNE10.jpg,FN,3,num_6,32,num_8,,,1.16680057562,2017_Jul_21_1250,59.9975175646,FEMA4ImagesEEG,001,101056,
AFNE01.JPG,AFNE01.JPG,AFNE01.JPG,AFNE01.JPG,AFNE01.JPG,AFNE01.JPG,,,,,,,,,1,2,12,7,,,,,,,,,,,,,,,AFNE06.jpg,AFSA12.jpg,AFNE03.jpg,AFSA13.jpg,AFNE03.jpg,FN,3,num_2,16,num_2,,,0.533511087473,2017_Jul_21_1250,59.9975175646,FEMA4ImagesEEG,001,101056,
AFNE01.JPG,AFNE01.JPG,AFNE01.JPG,AFNE01.JPG,AFNE01.JPG,AFNE01.JPG,,,,,,,,,1,3,13,2,,,,,,,,,,,,,,,AFSA03.jpg,AFSA01.jpg,AFNE08.jpg,AFNE18.jpg,AFSA01.jpg,FS,4,num_6,32,num_4,,,1.50011177792,2017_Jul_21_1250,59.9975175646,FEMA4ImagesEEG,001,101056,
AFNE01.JPG,AFNE01.JPG,AFNE01.JPG,AFNE01.JPG,AFNE01.JPG,AFNE01.JPG,,,,,,,,,1,4,14,1,,,,,,,,,,,,,,,AFSA04.jpg,AFNE17.jpg,AFSA14.jpg,AFNE02.jpg,AFNE17.jpg,FN,3,num_6,32,num_2,,,0.633459159697,2017_Jul_21_1250,59.9975175646,FEMA4ImagesEEG,001,101056,
AFNE01.JPG,AFNE01.JPG,AFNE01.JPG,AFNE01.JPG,AFNE01.JPG,AFNE01.JPG,,,,,,,,,1,5,15,0,,,,,,,,,,,,,,,AFNE20.jpg,AFSA06.jpg,AFNE03.jpg,AFSA08.jpg,AFSA06.jpg,FS,4,num_6,32,num_8,,,0.766742393433,2017_Jul_21_1250,59.9975175646,FEMA4ImagesEEG,001,101056,
AFNE01.JPG,AFNE01.JPG,AFNE01.JPG,AFNE01.JPG,AFNE01.JPG,AFNE01.JPG,,,,,,,,,1,6,16,8,,,,,,,,,,,,,,,AFNE08.jpg,AFSA09.jpg,AFSA13.jpg,AFNE11.jpg,AFNE11.jpg,FN,3,num_4,32,num_2,,,0.583398363378,2017_Jul_21_1250,59.9975175646,FEMA4ImagesEEG,001,101056,
AFNE01.JPG,AFNE01.JPG,AFNE01.JPG,AFNE01.JPG,AFNE01.JPG,AFNE01.JPG,,,,,,,,,1,7,17,5,,,,,,,,,,,,,,,AFSA02.jpg,AFNE19.jpg,AFSA14.jpg,AFNE01.jpg,AFSA02.jpg,FS,4,num_8,32,num_4,,,1.10010395187,2017_Jul_21_1250,59.9975175646,FEMA4ImagesEEG,001,101056,
AFNE01.JPG,AFNE01.JPG,AFNE01.JPG,AFNE01.JPG,AFNE01.JPG,AFNE01.JPG,,,,,,,,,1,8,18,6,,,,,,,,,,,,,,,AFSA09.jpg,AFNE04.jpg,AFNE10.jpg,AFSA07.jpg,AFNE10.jpg,FN,3,num_2,32,num_4,,,1.35021613073,2017_Jul_21_1250,59.9975175646,FEMA4ImagesEEG,001,101056,
AFNE01.JPG,AFNE01.JPG,AFNE01.JPG,AFNE01.JPG,AFNE01.JPG,AFNE01.JPG,,,,,,,,,1,9,19,4,,,,,,,,,,,,,,,AFSA15.jpg,AFNE10.jpg,AFNE08.jpg,AFSA20.jpg,AFNE10.jpg,FN,3,num_6,32,num_2,,,1.31670937326,2017_Jul_21_1250,59.9975175646,FEMA4ImagesEEG,001,101056,
AFNE01.JPG,AFNE01.JPG,AFNE01.JPG,AFNE01.JPG,AFNE01.JPG,AFNE01.JPG,,,,,,,,,2,0,20,5,,,,,,,,,,,,,,,AFNE14.jpg,AFNE01.jpg,AFSA04.jpg,AFSA06.jpg,AFNE14.jpg,FN,3,num_8,16,num_8,,,0.766792428913,2017_Jul_21_1250,59.9975175646,FEMA4ImagesEEG,001,101056,
AFNE01.JPG,AFNE01.JPG,AFNE01.JPG,AFNE01.JPG,AFNE01.JPG,AFNE01.JPG,,,,,,,,,2,1,21,4,,,,,,,,,,,,,,,AFNE18.jpg,AFSA16.jpg,AFSA11.jpg,AFNE07.jpg,AFNE18.jpg,FN,3,num_8,16,num_8,,,1.63340752054,2017_Jul_21_1250,59.9975175646,FEMA4ImagesEEG,001,101056,
AFNE01.JPG,AFNE01.JPG,AFNE01.JPG,AFNE01.JPG,AFNE01.JPG,AFNE01.JPG,,,,,,,,,2,2,22,0,,,,,,,,,,,,,,,AFSA09.jpg,AFNE06.jpg,AFSA20.jpg,AFNE01.jpg,AFNE01.jpg,FN,3,num_4,32,num_2,,,1.49998733075,2017_Jul_21_1250,59.9975175646,FEMA4ImagesEEG,001,101056,
AFNE01.JPG,AFNE01.JPG,AFNE01.JPG,AFNE01.JPG,AFNE01.JPG,AFNE01.JPG,,,,,,,,,2,3,23,3,,,,,,,,,,,,,,,AFNE15.jpg,AFSA07.jpg,AFSA12.jpg,AFNE12.jpg,AFSA12.jpg,FS,4,num_2,16,num_2,,,1.25012340478,2017_Jul_21_1250,59.9975175646,FEMA4ImagesEEG,001,101056,
AFNE01.JPG,AFNE01.JPG,AFNE01.JPG,AFNE01.JPG,AFNE01.JPG,AFNE01.JPG,,,,,,,,,2,4,24,6,,,,,,,,,,,,,,,AFNE04.jpg,AFSA01.jpg,AFSA11.jpg,AFNE15.jpg,AFNE04.jpg,FN,3,num_8,16,num_8,,,0.850146048993,2017_Jul_21_1250,59.9975175646,FEMA4ImagesEEG,001,101056,
AFNE01.JPG,AFNE01.JPG,AFNE01.JPG,AFNE01.JPG,AFNE01.JPG,AFNE01.JPG,,,,,,,,,2,5,25,7,,,,,,,,,,,,,,,AFSA17.jpg,AFSA03.jpg,AFNE12.jpg,AFNE13.jpg,AFNE12.jpg,FN,3,num_2,16,num_2,,,1.21683026012,2017_Jul_21_1250,59.9975175646,FEMA4ImagesEEG,001,101056,
AFNE01.JPG,AFNE01.JPG,AFNE01.JPG,AFNE01.JPG,AFNE01.JPG,AFNE01.JPG,,,,,,,,,2,6,26,8,,,,,,,,,,,,,,,AFSA06.jpg,AFSA09.jpg,AFNE04.jpg,AFNE01.jpg,AFSA09.jpg,FS,4,num_6,32,num_8,,,1.41676489334,2017_Jul_21_1250,59.9975175646,FEMA4ImagesEEG,001,101056,
AFNE01.JPG,AFNE01.JPG,AFNE01.JPG,AFNE01.JPG,AFNE01.JPG,AFNE01.JPG,,,,,,,,,2,7,27,1,,,,,,,,,,,,,,,AFNE15.jpg,AFSA06.jpg,AFNE08.jpg,AFSA09.jpg,AFNE08.jpg,FN,3,num_2,16,num_2,,,1.55007186183,2017_Jul_21_1250,59.9975175646,FEMA4ImagesEEG,001,101056,
AFNE01.JPG,AFNE01.JPG,AFNE01.JPG,AFNE01.JPG,AFNE01.JPG,AFNE01.JPG,,,,,,,,,2,8,28,2,,,,,,,,,,,,,,,AFNE17.jpg,AFSA18.jpg,AFNE01.jpg,AFSA07.jpg,AFSA18.jpg,FS,4,num_6,16,num_6,,,0.850148935686,2017_Jul_21_1250,59.9975175646,FEMA4ImagesEEG,001,101056,
AFNE01.JPG,AFNE01.JPG,AFNE01.JPG,AFNE01.JPG,AFNE01.JPG,AFNE01.JPG,,,,,,,,,2,9,29,9,,,,,,,,,,,,,,,AFNE08.jpg,AFSA07.jpg,AFNE04.jpg,AFSA14.jpg,AFNE08.jpg,FN,3,num_8,16,num_8,,,1.21673628333,2017_Jul_21_1250,59.9975175646,FEMA4ImagesEEG,001,101056,
AFNE01.JPG,AFNE01.JPG,AFNE01.JPG,AFNE01.JPG,AFNE01.JPG,AFNE01.JPG,,,,,,,,,3,0,30,6,,,,,,,,,,,,,,,AFNE02.jpg,AFSA15.jpg,AFSA16.jpg,AFNE04.jpg,AFSA16.jpg,FS,4,num_2,32,num_6,,,1.11642898218,2017_Jul_21_1250,59.9975175646,FEMA4ImagesEEG,001,101056,
AFNE01.JPG,AFNE01.JPG,AFNE01.JPG,AFNE01.JPG,AFNE01.JPG,AFNE01.JPG,,,,,,,,,3,1,31,5,,,,,,,,,,,,,,,AFSA02.jpg,AFSA20.jpg,AFNE20.jpg,AFNE08.jpg,AFNE20.jpg,FN,3,num_2,48,None,,,,2017_Jul_21_1250,59.9975175646,FEMA4ImagesEEG,001,101056,
AFNE01.JPG,AFNE01.JPG,AFNE01.JPG,AFNE01.JPG,AFNE01.JPG,AFNE01.JPG,,,,,,,,,3,2,32,1,,,,,,,,,,,,,,,AFSA07.jpg,AFNE10.jpg,AFNE17.jpg,AFSA20.jpg,AFNE17.jpg,FN,3,num_2,16,num_2,,,1.08341231564,2017_Jul_21_1250,59.9975175646,FEMA4ImagesEEG,001,101056,
AFNE01.JPG,AFNE01.JPG,AFNE01.JPG,AFNE01.JPG,AFNE01.JPG,AFNE01.JPG,,,,,,,,,3,3,33,2,,,,,,,,,,,,,,,AFNE11.jpg,AFSA19.jpg,AFSA15.jpg,AFNE07.jpg,AFNE07.jpg,FN,3,num_4,16,num_4,,,0.733430004388,2017_Jul_21_1250,59.9975175646,FEMA4ImagesEEG,001,101056,
AFNE01.JPG,AFNE01.JPG,AFNE01.JPG,AFNE01.JPG,AFNE01.JPG,AFNE01.JPG,,,,,,,,,3,4,34,4,,,,,,,,,,,,,,,AFNE07.jpg,AFNE13.jpg,AFSA09.jpg,AFSA13.jpg,AFNE13.jpg,FN,3,num_6,16,num_6,,,0.783393937163,2017_Jul_21_1250,59.9975175646,FEMA4ImagesEEG,001,101056,
AFNE01.JPG,AFNE01.JPG,AFNE01.JPG,AFNE01.JPG,AFNE01.JPG,AFNE01.JPG,,,,,,,,,3,5,35,9,,,,,,,,,,,,,,,AFSA17.jpg,AFNE18.jpg,AFNE12.jpg,AFSA18.jpg,AFSA17.jpg,FS,4,num_8,16,num_8,,,1.08348351991,2017_Jul_21_1250,59.9975175646,FEMA4ImagesEEG,001,101056,
AFNE01.JPG,AFNE01.JPG,AFNE01.JPG,AFNE01.JPG,AFNE01.JPG,AFNE01.JPG,,,,,,,,,3,6,36,3,,,,,,,,,,,,,,,AFSA15.jpg,AFSA08.jpg,AFNE18.jpg,AFNE11.jpg,AFSA08.jpg,FS,4,num_6,32,num_8,,,1.03342272359,2017_Jul_21_1250,59.9975175646,FEMA4ImagesEEG,001,101056,
AFNE01.JPG,AFNE01.JPG,AFNE01.JPG,AFNE01.JPG,AFNE01.JPG,AFNE01.JPG,,,,,,,,,3,7,37,8,,,,,,,,,,,,,,,AFSA09.jpg,AFNE19.jpg,AFNE01.jpg,AFSA03.jpg,AFNE19.jpg,FN,3,num_6,16,num_6,,,2.08341648523,2017_Jul_21_1250,59.9975175646,FEMA4ImagesEEG,001,101056,
AFNE01.JPG,AFNE01.JPG,AFNE01.JPG,AFNE01.JPG,AFNE01.JPG,AFNE01.JPG,,,,,,,,,3,8,38,0,,,,,,,,,,,,,,,AFSA11.jpg,AFNE11.jpg,AFNE05.jpg,AFSA07.jpg,AFNE05.jpg,FN,3,num_2,32,num_6,,,1.40007389849,2017_Jul_21_1250,59.9975175646,FEMA4ImagesEEG,001,101056,
AFNE01.JPG,AFNE01.JPG,AFNE01.JPG,AFNE01.JPG,AFNE01.JPG,AFNE01.JPG,,,,,,,,,3,9,39,7,,,,,,,,,,,,,,,AFNE01.jpg,AFSA13.jpg,AFSA15.jpg,AFNE11.jpg,AFNE11.jpg,FN,3,num_4,16,num_4,,,1.96665714064,2017_Jul_21_1250,59.9975175646,FEMA4ImagesEEG,001,101056,
AFNE01.JPG,AFNE01.JPG,AFNE01.JPG,AFNE01.JPG,AFNE01.JPG,AFNE01.JPG,,,,,,,,,4,0,40,1,,,,,,,,,,,,,,,AFNE05.jpg,AFSA12.jpg,AFSA17.jpg,AFNE11.jpg,AFNE05.jpg,FN,3,num_8,32,num_4,,,1.45012988371,2017_Jul_21_1250,59.9975175646,FEMA4ImagesEEG,001,101056,
AFNE01.JPG,AFNE01.JPG,AFNE01.JPG,AFNE01.JPG,AFNE01.JPG,AFNE01.JPG,,,,,,,,,4,1,41,2,,,,,,,,,,,,,,,AFNE08.jpg,AFSA04.jpg,AFSA02.jpg,AFNE04.jpg,AFNE04.jpg,FN,3,num_4,32,num_6,,,1.83341881057,2017_Jul_21_1250,59.9975175646,FEMA4ImagesEEG,001,101056,
AFNE01.JPG,AFNE01.JPG,AFNE01.JPG,AFNE01.JPG,AFNE01.JPG,AFNE01.JPG,,,,,,,,,4,2,42,9,,,,,,,,,,,,,,,AFSA02.jpg,AFNE16.jpg,AFSA01.jpg,AFNE15.jpg,AFSA02.jpg,FS,4,num_8,16,num_8,,,1.18351787113,2017_Jul_21_1250,59.9975175646,FEMA4ImagesEEG,001,101056,
AFNE01.JPG,AFNE01.JPG,AFNE01.JPG,AFNE01.JPG,AFNE01.JPG,AFNE01.JPG,,,,,,,,,4,3,43,0,,,,,,,,,,,,,,,AFNE13.jpg,AFSA16.jpg,AFNE18.jpg,AFSA06.jpg,AFNE13.jpg,FN,3,num_8,32,num_6,,,1.26670598943,2017_Jul_21_1250,59.9975175646,FEMA4ImagesEEG,001,101056,
AFNE01.JPG,AFNE01.JPG,AFNE01.JPG,AFNE01.JPG,AFNE01.JPG,AFNE01.JPG,,,,,,,,,4,4,44,4,,,,,,,,,,,,,,,AFNE11.jpg,AFSA01.jpg,AFNE10.jpg,AFSA19.jpg,AFNE11.jpg,FN,3,num_8,16,num_8,,,0.883456834359,2017_Jul_21_1250,59.9975175646,FEMA4ImagesEEG,001,101056,
AFNE01.JPG,AFNE01.JPG,AFNE01.JPG,AFNE01.JPG,AFNE01.JPG,AFNE01.JPG,,,,,,,,,4,5,45,7,,,,,,,,,,,,,,,AFSA19.jpg,AFNE09.jpg,AFNE05.jpg,AFSA04.jpg,AFSA04.jpg,FS,4,num_4,32,num_2,,,1.70002011041,2017_Jul_21_1250,59.9975175646,FEMA4ImagesEEG,001,101056,
AFNE01.JPG,AFNE01.JPG,AFNE01.JPG,AFNE01.JPG,AFNE01.JPG,AFNE01.JPG,,,,,,,,,4,6,46,6,,,,,,,,,,,,,,,AFNE15.jpg,AFSA03.jpg,AFSA08.jpg,AFNE12.jpg,AFNE15.jpg,FN,3,num_8,16,num_8,,,0.850148614903,2017_Jul_21_1250,59.9975175646,FEMA4ImagesEEG,001,101056,
AFNE01.JPG,AFNE01.JPG,AFNE01.JPG,AFNE01.JPG,AFNE01.JPG,AFNE01.JPG,,,,,,,,,4,7,47,3,,,,,,,,,,,,,,,AFSA10.jpg,AFSA02.jpg,AFNE15.jpg,AFNE17.jpg,AFNE17.jpg,FN,3,num_4,16,num_4,,,1.00008082652,2017_Jul_21_1250,59.9975175646,FEMA4ImagesEEG,001,101056,
AFNE01.JPG,AFNE01.JPG,AFNE01.JPG,AFNE01.JPG,AFNE01.JPG,AFNE01.JPG,,,,,,,,,4,8,48,8,,,,,,,,,,,,,,,AFSA17.jpg,AFNE13.jpg,AFSA05.jpg,AFNE02.jpg,AFSA05.jpg,FS,4,num_2,32,num_8,,,0.966625066649,2017_Jul_21_1250,59.9975175646,FEMA4ImagesEEG,001,101056,
AFNE01.JPG,AFNE01.JPG,AFNE01.JPG,AFNE01.JPG,AFNE01.JPG,AFNE01.JPG,,,,,,,,,4,9,49,5,,,,,,,,,,,,,,,AFSA19.jpg,AFNE05.jpg,AFSA15.jpg,AFNE02.jpg,AFSA19.jpg,FS,4,num_8,32,num_2,,,1.06676045107,2017_Jul_21_1250,59.9975175646,FEMA4ImagesEEG,001,101056,
AFNE01.JPG,AFNE01.JPG,AFNE01.JPG,AFNE01.JPG,AFNE01.JPG,AFNE01.JPG,,,,,,,,,5,0,50,3,,,,,,,,,,,,,,,AFSA01.jpg,AFNE11.jpg,AFNE19.jpg,AFSA17.jpg,AFSA01.jpg,FS,4,num_8,16,num_8,,,1.29996962595,2017_Jul_21_1250,59.9975175646,FEMA4ImagesEEG,001,101056,
AFNE01.JPG,AFNE01.JPG,AFNE01.JPG,AFNE01.JPG,AFNE01.JPG,AFNE01.JPG,,,,,,,,,5,1,51,2,,,,,,,,,,,,,,,AFNE17.jpg,AFSA09.jpg,AFNE14.jpg,AFSA04.jpg,AFNE17.jpg,FN,3,num_8,32,num_2,,,1.2167754136,2017_Jul_21_1250,59.9975175646,FEMA4ImagesEEG,001,101056,
AFNE01.JPG,AFNE01.JPG,AFNE01.JPG,AFNE01.JPG,AFNE01.JPG,AFNE01.JPG,,,,,,,,,5,2,52,5,,,,,,,,,,,,,,,AFNE02.jpg,AFNE07.jpg,AFSA13.jpg,AFSA01.jpg,AFNE02.jpg,FN,3,num_8,32,num_6,,,1.11670610163,2017_Jul_21_1250,59.9975175646,FEMA4ImagesEEG,001,101056,
AFNE01.JPG,AFNE01.JPG,AFNE01.JPG,AFNE01.JPG,AFNE01.JPG,AFNE01.JPG,,,,,,,,,5,3,53,6,,,,,,,,,,,,,,,AFNE08.jpg,AFSA06.jpg,AFNE05.jpg,AFSA05.jpg,AFSA05.jpg,FS,4,num_4,16,num_4,,,1.15008328017,2017_Jul_21_1250,59.9975175646,FEMA4ImagesEEG,001,101056,
AFNE01.JPG,AFNE01.JPG,AFNE01.JPG,AFNE01.JPG,AFNE01.JPG,AFNE01.JPG,,,,,,,,,5,4,54,0,,,,,,,,,,,,,,,AFNE03.jpg,AFSA04.jpg,AFSA05.jpg,AFNE20.jpg,AFSA04.jpg,FS,4,num_6,32,num_2,,,0.833459223853,2017_Jul_21_1250,59.9975175646,FEMA4ImagesEEG,001,101056,
AFNE01.JPG,AFNE01.JPG,AFNE01.JPG,AFNE01.JPG,AFNE01.JPG,AFNE01.JPG,,,,,,,,,5,5,55,9,,,,,,,,,,,,,,,AFSA19.jpg,AFNE03.jpg,AFSA01.jpg,AFNE16.jpg,AFNE03.jpg,FN,3,num_6,32,num_4,,,0.850030582573,2017_Jul_21_1250,59.9975175646,FEMA4ImagesEEG,001,101056,
AFNE01.JPG,AFNE01.JPG,AFNE01.JPG,AFNE01.JPG,AFNE01.JPG,AFNE01.JPG,,,,,,,,,5,6,56,1,,,,,,,,,,,,,,,AFNE01.jpg,AFSA08.jpg,AFNE14.jpg,AFSA07.jpg,AFSA07.jpg,FS,4,num_4,32,num_6,,,0.866762952879,2017_Jul_21_1250,59.9975175646,FEMA4ImagesEEG,001,101056,
AFNE01.JPG,AFNE01.JPG,AFNE01.JPG,AFNE01.JPG,AFNE01.JPG,AFNE01.JPG,,,,,,,,,5,7,57,8,,,,,,,,,,,,,,,AFSA16.jpg,AFNE04.jpg,AFNE09.jpg,AFSA03.jpg,AFNE09.jpg,FN,3,num_2,32,num_8,,,1.21675167879,2017_Jul_21_1250,59.9975175646,FEMA4ImagesEEG,001,101056,
AFNE01.JPG,AFNE01.JPG,AFNE01.JPG,AFNE01.JPG,AFNE01.JPG,AFNE01.JPG,,,,,,,,,5,8,58,7,,,,,,,,,,,,,,,AFSA01.jpg,AFNE15.jpg,AFSA15.jpg,AFNE10.jpg,AFSA01.jpg,FS,4,num_8,32,num_4,,,2.14997519075,2017_Jul_21_1250,59.9975175646,FEMA4ImagesEEG,001,101056,
AFNE01.JPG,AFNE01.JPG,AFNE01.JPG,AFNE01.JPG,AFNE01.JPG,AFNE01.JPG,,,,,,,,,5,9,59,4,,,,,,,,,,,,,,,AFNE14.jpg,AFSA02.jpg,AFNE03.jpg,AFSA05.jpg,AFNE03.jpg,FN,3,num_2,16,num_2,,,1.05007105996,2017_Jul_21_1250,59.9975175646,FEMA4ImagesEEG,001,101056,
,,,,,,,,,,,,,,,,,,,,,,,,,,,,,,,,,,,,,,,,,,space,46.6964592536,,2017_Jul_21_1250,59.9975175646,FEMA4ImagesEEG,001,101056,
AFNE01.JPG,AFNE01.JPG,AFNE01.JPG,AFNE01.JPG,AFNE01.JPG,AFNE01.JPG,,,,,,,,,,,,,0,0,0,2,,,,,,,,,,,AMNE16.jpg,AMNE20.jpg,AMSA07.jpg,AMSA04.jpg,AMSA07.jpg,MS,2,num_2,32,num_8,,,1.80008557352,2017_Jul_21_1250,59.9975175646,FEMA4ImagesEEG,001,101056,
AFNE01.JPG,AFNE01.JPG,AFNE01.JPG,AFNE01.JPG,AFNE01.JPG,AFNE01.JPG,,,,,,,,,,,,,0,1,1,9,,,,,,,,,,,AMSA10.jpg,AMSA07.jpg,AMNE11.jpg,AMNE15.jpg,AMSA10.jpg,MS,2,num_8,32,num_2,,,0.916794882563,2017_Jul_21_1250,59.9975175646,FEMA4ImagesEEG,001,101056,
AFNE01.JPG,AFNE01.JPG,AFNE01.JPG,AFNE01.JPG,AFNE01.JPG,AFNE01.JPG,,,,,,,,,,,,,0,2,2,1,,,,,,,,,,,AMSA10.jpg,AMNE15.jpg,AMNE09.jpg,AMSA11.jpg,AMNE15.jpg,MN,1,num_6,32,num_2,,,1.1001472518,2017_Jul_21_1250,59.9975175646,FEMA4ImagesEEG,001,101056,
AFNE01.JPG,AFNE01.JPG,AFNE01.JPG,AFNE01.JPG,AFNE01.JPG,AFNE01.JPG,,,,,,,,,,,,,0,3,3,6,,,,,,,,,,,AMNE05.jpg,AMNE12.jpg,AMSA04.jpg,AMSA01.jpg,AMSA01.jpg,MS,2,num_4,16,num_4,,,0.533464259468,2017_Jul_21_1250,59.9975175646,FEMA4ImagesEEG,001,101056,
AFNE01.JPG,AFNE01.JPG,AFNE01.JPG,AFNE01.JPG,AFNE01.JPG,AFNE01.JPG,,,,,,,,,,,,,0,4,4,4,,,,,,,,,,,AMNE14.jpg,AMSA12.jpg,AMSA18.jpg,AMNE16.jpg,AMNE16.jpg,MN,1,num_4,32,num_6,,,0.733462719887,2017_Jul_21_1250,59.9975175646,FEMA4ImagesEEG,001,101056,
AFNE01.JPG,AFNE01.JPG,AFNE01.JPG,AFNE01.JPG,AFNE01.JPG,AFNE01.JPG,,,,,,,,,,,,,0,5,5,3,,,,,,,,,,,AMSA14.jpg,AMNE13.jpg,AMSA07.jpg,AMNE10.jpg,AMSA14.jpg,MS,2,num_8,16,num_8,,,0.966754004185,2017_Jul_21_1250,59.9975175646,FEMA4ImagesEEG,001,101056,
AFNE01.JPG,AFNE01.JPG,AFNE01.JPG,AFNE01.JPG,AFNE01.JPG,AFNE01.JPG,,,,,,,,,,,,,0,6,6,5,,,,,,,,,,,AMNE17.jpg,AMNE19.jpg,AMSA18.jpg,AMSA09.jpg,AMNE17.jpg,MN,1,num_8,32,num_6,,,0.666805547138,2017_Jul_21_1250,59.9975175646,FEMA4ImagesEEG,001,101056,
AFNE01.JPG,AFNE01.JPG,AFNE01.JPG,AFNE01.JPG,AFNE01.JPG,AFNE01.JPG,,,,,,,,,,,,,0,7,7,0,,,,,,,,,,,AMNE09.jpg,AMSA07.jpg,AMSA01.jpg,AMNE11.jpg,AMSA07.jpg,MS,2,num_6,32,num_8,,,0.816706005426,2017_Jul_21_1250,59.9975175646,FEMA4ImagesEEG,001,101056,
AFNE01.JPG,AFNE01.JPG,AFNE01.JPG,AFNE01.JPG,AFNE01.JPG,AFNE01.JPG,,,,,,,,,,,,,0,8,8,7,,,,,,,,,,,AMSA14.jpg,AMNE15.jpg,AMSA07.jpg,AMNE09.jpg,AMSA07.jpg,MS,2,num_2,32,num_4,,,1.1499806433,2017_Jul_21_1250,59.9975175646,FEMA4ImagesEEG,001,101056,
AFNE01.JPG,AFNE01.JPG,AFNE01.JPG,AFNE01.JPG,AFNE01.JPG,AFNE01.JPG,,,,,,,,,,,,,0,9,9,8,,,,,,,,,,,AMNE14.jpg,AMSA03.jpg,AMNE18.jpg,AMSA09.jpg,AMSA03.jpg,MS,2,num_6,16,num_6,,,1.25008202926,2017_Jul_21_1250,59.9975175646,FEMA4ImagesEEG,001,101056,
AFNE01.JPG,AFNE01.JPG,AFNE01.JPG,AFNE01.JPG,AFNE01.JPG,AFNE01.JPG,,,,,,,,,,,,,1,0,10,6,,,,,,,,,,,AMNE07.jpg,AMNE12.jpg,AMSA10.jpg,AMSA03.jpg,AMNE12.jpg,MN,1,num_6,32,num_4,,,0.850142200128,2017_Jul_21_1250,59.9975175646,FEMA4ImagesEEG,001,101056,
AFNE01.JPG,AFNE01.JPG,AFNE01.JPG,AFNE01.JPG,AFNE01.JPG,AFNE01.JPG,,,,,,,,,,,,,1,1,11,1,,,,,,,,,,,AMNE16.jpg,AMNE03.jpg,AMSA05.jpg,AMSA01.jpg,AMSA01.jpg,MS,2,num_4,32,num_2,,,0.766761958599,2017_Jul_21_1250,59.9975175646,FEMA4ImagesEEG,001,101056,
AFNE01.JPG,AFNE01.JPG,AFNE01.JPG,AFNE01.JPG,AFNE01.JPG,AFNE01.JPG,,,,,,,,,,,,,1,2,12,9,,,,,,,,,,,AMSA15.jpg,AMNE13.jpg,AMSA04.jpg,AMNE18.jpg,AMNE18.jpg,MN,1,num_4,16,num_4,,,0.700143595343,2017_Jul_21_1250,59.9975175646,FEMA4ImagesEEG,001,101056,
AFNE01.JPG,AFNE01.JPG,AFNE01.JPG,AFNE01.JPG,AFNE01.JPG,AFNE01.JPG,,,,,,,,,,,,,1,3,13,4,,,,,,,,,,,AMSA20.jpg,AMNE01.jpg,AMSA01.jpg,AMNE10.jpg,AMNE01.jpg,MN,1,num_6,16,num_6,,,0.749839068623,2017_Jul_21_1250,59.9975175646,FEMA4ImagesEEG,001,101056,
AFNE01.JPG,AFNE01.JPG,AFNE01.JPG,AFNE01.JPG,AFNE01.JPG,AFNE01.JPG,,,,,,,,,,,,,1,4,14,5,,,,,,,,,,,AMNE13.jpg,AMSA06.jpg,AMSA19.jpg,AMNE09.jpg,AMNE13.jpg,MN,1,num_8,32,num_4,,,1.66675519093,2017_Jul_21_1250,59.9975175646,FEMA4ImagesEEG,001,101056,
AFNE01.JPG,AFNE01.JPG,AFNE01.JPG,AFNE01.JPG,AFNE01.JPG,AFNE01.JPG,,,,,,,,,,,,,1,5,15,8,,,,,,,,,,,AMSA05.jpg,AMNE05.jpg,AMSA08.jpg,AMNE11.jpg,AMSA05.jpg,MS,2,num_8,16,num_8,,,1.20011777576,2017_Jul_21_1250,59.9975175646,FEMA4ImagesEEG,001,101056,
AFNE01.JPG,AFNE01.JPG,AFNE01.JPG,AFNE01.JPG,AFNE01.JPG,AFNE01.JPG,,,,,,,,,,,,,1,6,16,3,,,,,,,,,,,AMSA19.jpg,AMNE08.jpg,AMNE12.jpg,AMSA12.jpg,AMNE08.jpg,MN,1,num_6,16,num_6,,,1.15010380757,2017_Jul_21_1250,59.9975175646,FEMA4ImagesEEG,001,101056,
AFNE01.JPG,AFNE01.JPG,AFNE01.JPG,AFNE01.JPG,AFNE01.JPG,AFNE01.JPG,,,,,,,,,,,,,1,7,17,2,,,,,,,,,,,AMNE20.jpg,AMNE01.jpg,AMSA11.jpg,AMSA08.jpg,AMNE20.jpg,MN,1,num_8,32,num_2,,,0.850085749873,2017_Jul_21_1250,59.9975175646,FEMA4ImagesEEG,001,101056,
AFNE01.JPG,AFNE01.JPG,AFNE01.JPG,AFNE01.JPG,AFNE01.JPG,AFNE01.JPG,,,,,,,,,,,,,1,8,18,0,,,,,,,,,,,AMSA18.jpg,AMSA15.jpg,AMNE09.jpg,AMNE05.jpg,AMNE05.jpg,MN,1,num_4,16,num_4,,,1.08347518061,2017_Jul_21_1250,59.9975175646,FEMA4ImagesEEG,001,101056,
AFNE01.JPG,AFNE01.JPG,AFNE01.JPG,AFNE01.JPG,AFNE01.JPG,AFNE01.JPG,,,,,,,,,,,,,1,9,19,7,,,,,,,,,,,AMSA14.jpg,AMNE16.jpg,AMSA02.jpg,AMNE06.jpg,AMSA14.jpg,MS,2,num_8,16,num_8,,,0.983440508659,2017_Jul_21_1250,59.9975175646,FEMA4ImagesEEG,001,101056,
AFNE01.JPG,AFNE01.JPG,AFNE01.JPG,AFNE01.JPG,AFNE01.JPG,AFNE01.JPG,,,,,,,,,,,,,2,0,20,1,,,,,,,,,,,AMNE18.jpg,AMNE01.jpg,AMSA05.jpg,AMSA12.jpg,AMNE01.jpg,MN,1,num_6,16,num_6,,,1.10010106524,2017_Jul_21_1250,59.9975175646,FEMA4ImagesEEG,001,101056,
AFNE01.JPG,AFNE01.JPG,AFNE01.JPG,AFNE01.JPG,AFNE01.JPG,AFNE01.JPG,,,,,,,,,,,,,2,1,21,8,,,,,,,,,,,AMSA05.jpg,AMSA17.jpg,AMNE13.jpg,AMNE07.jpg,AMSA05.jpg,MS,2,num_8,32,num_2,,,1.01677887759,2017_Jul_21_1250,59.9975175646,FEMA4ImagesEEG,001,101056,
AFNE01.JPG,AFNE01.JPG,AFNE01.JPG,AFNE01.JPG,AFNE01.JPG,AFNE01.JPG,,,,,,,,,,,,,2,2,22,5,,,,,,,,,,,AMSA17.jpg,AMNE18.jpg,AMSA14.jpg,AMNE01.jpg,AMSA14.jpg,MS,2,num_2,16,num_2,,,0.666675005923,2017_Jul_21_1250,59.9975175646,FEMA4ImagesEEG,001,101056,
AFNE01.JPG,AFNE01.JPG,AFNE01.JPG,AFNE01.JPG,AFNE01.JPG,AFNE01.JPG,,,,,,,,,,,,,2,3,23,7,,,,,,,,,,,AMSA01.jpg,AMNE07.jpg,AMSA03.jpg,AMNE18.jpg,AMNE07.jpg,MN,1,num_6,16,num_6,,,0.683448751632,2017_Jul_21_1250,59.9975175646,FEMA4ImagesEEG,001,101056,
AFNE01.JPG,AFNE01.JPG,AFNE01.JPG,AFNE01.JPG,AFNE01.JPG,AFNE01.JPG,,,,,,,,,,,,,2,4,24,3,,,,,,,,,,,AMSA02.jpg,AMNE17.jpg,AMSA05.jpg,AMNE12.jpg,AMNE17.jpg,MN,1,num_6,32,num_8,,,0.833229894633,2017_Jul_21_1250,59.9975175646,FEMA4ImagesEEG,001,101056,
AFNE01.JPG,AFNE01.JPG,AFNE01.JPG,AFNE01.JPG,AFNE01.JPG,AFNE01.JPG,,,,,,,,,,,,,2,5,25,4,,,,,,,,,,,AMSA17.jpg,AMSA11.jpg,AMNE13.jpg,AMNE08.jpg,AMNE08.jpg,MN,1,num_4,32,num_6,,,0.950120742607,2017_Jul_21_1250,59.9975175646,FEMA4ImagesEEG,001,101056,
AFNE01.JPG,AFNE01.JPG,AFNE01.JPG,AFNE01.JPG,AFNE01.JPG,AFNE01.JPG,,,,,,,,,,,,,2,6,26,0,,,,,,,,,,,AMNE19.jpg,AMSA11.jpg,AMSA18.jpg,AMNE08.jpg,AMSA18.jpg,MS,2,num_2,32,num_4,,,0.683470561984,2017_Jul_21_1250,59.9975175646,FEMA4ImagesEEG,001,101056,
AFNE01.JPG,AFNE01.JPG,AFNE01.JPG,AFNE01.JPG,AFNE01.JPG,AFNE01.JPG,,,,,,,,,,,,,2,7,27,9,,,,,,,,,,,AMSA15.jpg,AMSA11.jpg,AMNE02.jpg,AMNE12.jpg,AMNE02.jpg,MN,1,num_2,16,num_2,,,0.967078913935,2017_Jul_21_1250,59.9975175646,FEMA4ImagesEEG,001,101056,
AFNE01.JPG,AFNE01.JPG,AFNE01.JPG,AFNE01.JPG,AFNE01.JPG,AFNE01.JPG,,,,,,,,,,,,,2,8,28,2,,,,,,,,,,,AMSA18.jpg,AMSA10.jpg,AMNE13.jpg,AMNE06.jpg,AMNE13.jpg,MN,1,num_2,16,num_2,,,3.79990724195,2017_Jul_21_1250,59.9975175646,FEMA4ImagesEEG,001,101056,
AFNE01.JPG,AFNE01.JPG,AFNE01.JPG,AFNE01.JPG,AFNE01.JPG,AFNE01.JPG,,,,,,,,,,,,,2,9,29,6,,,,,,,,,,,AMNE20.jpg,AMNE12.jpg,AMSA05.jpg,AMSA13.jpg,AMNE20.jpg,MN,1,num_8,16,num_8,,,0.633357485058,2017_Jul_21_1250,59.9975175646,FEMA4ImagesEEG,001,101056,
AFNE01.JPG,AFNE01.JPG,AFNE01.JPG,AFNE01.JPG,AFNE01.JPG,AFNE01.JPG,,,,,,,,,,,,,3,0,30,2,,,,,,,,,,,AMSA10.jpg,AMNE05.jpg,AMSA20.jpg,AMNE03.jpg,AMSA20.jpg,MS,2,num_2,16,num_2,,,0.516783528321,2017_Jul_21_1250,59.9975175646,FEMA4ImagesEEG,001,101056,
AFNE01.JPG,AFNE01.JPG,AFNE01.JPG,AFNE01.JPG,AFNE01.JPG,AFNE01.JPG,,,,,,,,,,,,,3,1,31,4,,,,,,,,,,,AMSA03.jpg,AMNE12.jpg,AMSA12.jpg,AMNE05.jpg,AMNE05.jpg,MN,1,num_4,32,num_6,,,1.08343637112,2017_Jul_21_1250,59.9975175646,FEMA4ImagesEEG,001,101056,
AFNE01.JPG,AFNE01.JPG,AFNE01.JPG,AFNE01.JPG,AFNE01.JPG,AFNE01.JPG,,,,,,,,,,,,,3,2,32,6,,,,,,,,,,,AMSA03.jpg,AMSA02.jpg,AMNE08.jpg,AMNE09.jpg,AMNE08.jpg,MN,1,num_2,32,num_6,,,1.20011873799,2017_Jul_21_1250,59.9975175646,FEMA4ImagesEEG,001,101056,
AFNE01.JPG,AFNE01.JPG,AFNE01.JPG,AFNE01.JPG,AFNE01.JPG,AFNE01.JPG,,,,,,,,,,,,,3,3,33,5,,,,,,,,,,,AMSA03.jpg,AMNE06.jpg,AMNE05.jpg,AMSA08.jpg,AMSA08.jpg,MS,2,num_4,16,num_4,,,0.70008554135,2017_Jul_21_1250,59.9975175646,FEMA4ImagesEEG,001,101056,
AFNE01.JPG,AFNE01.JPG,AFNE01.JPG,AFNE01.JPG,AFNE01.JPG,AFNE01.JPG,,,,,,,,,,,,,3,4,34,8,,,,,,,,,,,AMSA17.jpg,AMNE18.jpg,AMNE04.jpg,AMSA01.jpg,AMNE18.jpg,MN,1,num_6,32,num_2,,,1.28341494565,2017_Jul_21_1250,59.9975175646,FEMA4ImagesEEG,001,101056,
AFNE01.JPG,AFNE01.JPG,AFNE01.JPG,AFNE01.JPG,AFNE01.JPG,AFNE01.JPG,,,,,,,,,,,,,3,5,35,7,,,,,,,,,,,AMNE09.jpg,AMSA08.jpg,AMNE03.jpg,AMSA03.jpg,AMNE09.jpg,MN,1,num_8,32,num_6,,,0.866791819455,2017_Jul_21_1250,59.9975175646,FEMA4ImagesEEG,001,101056,
AFNE01.JPG,AFNE01.JPG,AFNE01.JPG,AFNE01.JPG,AFNE01.JPG,AFNE01.JPG,,,,,,,,,,,,,3,6,36,0,,,,,,,,,,,AMNE14.jpg,AMSA14.jpg,AMSA02.jpg,AMNE08.jpg,AMNE08.jpg,MN,1,num_4,16,num_4,,,0.983504977426,2017_Jul_21_1250,59.9975175646,FEMA4ImagesEEG,001,101056,
AFNE01.JPG,AFNE01.JPG,AFNE01.JPG,AFNE01.JPG,AFNE01.JPG,AFNE01.JPG,,,,,,,,,,,,,3,7,37,1,,,,,,,,,,,AMNE09.jpg,AMSA08.jpg,AMSA12.jpg,AMNE08.jpg,AMSA12.jpg,MS,2,num_2,16,num_2,,,1.00042786734,2017_Jul_21_1250,59.9975175646,FEMA4ImagesEEG,001,101056,
AFNE01.JPG,AFNE01.JPG,AFNE01.JPG,AFNE01.JPG,AFNE01.JPG,AFNE01.JPG,,,,,,,,,,,,,3,8,38,9,,,,,,,,,,,AMNE18.jpg,AMSA19.jpg,AMSA13.jpg,AMNE03.jpg,AMNE18.jpg,MN,1,num_8,32,num_4,,,1.03348206053,2017_Jul_21_1250,59.9975175646,FEMA4ImagesEEG,001,101056,
AFNE01.JPG,AFNE01.JPG,AFNE01.JPG,AFNE01.JPG,AFNE01.JPG,AFNE01.JPG,,,,,,,,,,,,,3,9,39,3,,,,,,,,,,,AMNE04.jpg,AMSA11.jpg,AMSA18.jpg,AMNE08.jpg,AMSA11.jpg,MS,2,num_6,16,num_6,,,0.816779134155,2017_Jul_21_1250,59.9975175646,FEMA4ImagesEEG,001,101056,
AFNE01.JPG,AFNE01.JPG,AFNE01.JPG,AFNE01.JPG,AFNE01.JPG,AFNE01.JPG,,,,,,,,,,,,,4,0,40,8,,,,,,,,,,,AMNE14.jpg,AMSA03.jpg,AMSA16.jpg,AMNE16.jpg,AMNE14.jpg,MN,1,num_8,16,num_8,,,0.616775541916,2017_Jul_21_1250,59.9975175646,FEMA4ImagesEEG,001,101056,
AFNE01.JPG,AFNE01.JPG,AFNE01.JPG,AFNE01.JPG,AFNE01.JPG,AFNE01.JPG,,,,,,,,,,,,,4,1,41,1,,,,,,,,,,,AMNE08.jpg,AMSA09.jpg,AMNE11.jpg,AMSA11.jpg,AMSA11.jpg,MS,2,num_4,32,num_8,,,0.900206524588,2017_Jul_21_1250,59.9975175646,FEMA4ImagesEEG,001,101056,
AFNE01.JPG,AFNE01.JPG,AFNE01.JPG,AFNE01.JPG,AFNE01.JPG,AFNE01.JPG,,,,,,,,,,,,,4,2,42,2,,,,,,,,,,,AMNE03.jpg,AMNE16.jpg,AMSA09.jpg,AMSA07.jpg,AMNE03.jpg,MN,1,num_8,32,num_2,,,0.733548036776,2017_Jul_21_1250,59.9975175646,FEMA4ImagesEEG,001,101056,
AFNE01.JPG,AFNE01.JPG,AFNE01.JPG,AFNE01.JPG,AFNE01.JPG,AFNE01.JPG,,,,,,,,,,,,,4,3,43,3,,,,,,,,,,,AMSA02.jpg,AMNE16.jpg,AMSA08.jpg,AMNE05.jpg,AMNE16.jpg,MN,1,num_6,32,num_4,,,1.08345112513,2017_Jul_21_1250,59.9975175646,FEMA4ImagesEEG,001,101056,
AFNE01.JPG,AFNE01.JPG,AFNE01.JPG,AFNE01.JPG,AFNE01.JPG,AFNE01.JPG,,,,,,,,,,,,,4,4,44,0,,,,,,,,,,,AMNE07.jpg,AMSA16.jpg,AMSA13.jpg,AMNE15.jpg,AMNE07.jpg,MN,1,num_8,32,num_6,,,0.750293236633,2017_Jul_21_1250,59.9975175646,FEMA4ImagesEEG,001,101056,
AFNE01.JPG,AFNE01.JPG,AFNE01.JPG,AFNE01.JPG,AFNE01.JPG,AFNE01.JPG,,,,,,,,,,,,,4,5,45,9,,,,,,,,,,,AMSA15.jpg,AMNE14.jpg,AMNE09.jpg,AMSA17.jpg,AMNE14.jpg,MN,1,num_6,32,num_2,,,1.30008316791,2017_Jul_21_1250,59.9975175646,FEMA4ImagesEEG,001,101056,
AFNE01.JPG,AFNE01.JPG,AFNE01.JPG,AFNE01.JPG,AFNE01.JPG,AFNE01.JPG,,,,,,,,,,,,,4,6,46,5,,,,,,,,,,,AMSA01.jpg,AMSA02.jpg,AMNE17.jpg,AMNE05.jpg,AMNE05.jpg,MN,1,num_4,16,num_4,,,0.766830917681,2017_Jul_21_1250,59.9975175646,FEMA4ImagesEEG,001,101056,
AFNE01.JPG,AFNE01.JPG,AFNE01.JPG,AFNE01.JPG,AFNE01.JPG,AFNE01.JPG,,,,,,,,,,,,,4,7,47,7,,,,,,,,,,,AMNE05.jpg,AMSA11.jpg,AMSA15.jpg,AMNE18.jpg,AMNE18.jpg,MN,1,num_4,32,num_8,,,1.01669227774,2017_Jul_21_1250,59.9975175646,FEMA4ImagesEEG,001,101056,
AFNE01.JPG,AFNE01.JPG,AFNE01.JPG,AFNE01.JPG,AFNE01.JPG,AFNE01.JPG,,,,,,,,,,,,,4,8,48,6,,,,,,,,,,,AMNE15.jpg,AMNE13.jpg,AMSA14.jpg,AMSA09.jpg,AMNE15.jpg,MN,1,num_8,32,num_6,,,0.716799950227,2017_Jul_21_1250,59.9975175646,FEMA4ImagesEEG,001,101056,
AFNE01.JPG,AFNE01.JPG,AFNE01.JPG,AFNE01.JPG,AFNE01.JPG,AFNE01.JPG,,,,,,,,,,,,,4,9,49,4,,,,,,,,,,,AMNE18.jpg,AMNE02.jpg,AMSA01.jpg,AMSA06.jpg,AMSA06.jpg,MS,2,num_4,32,num_8,,,0.550442316686,2017_Jul_21_1250,59.9975175646,FEMA4ImagesEEG,001,101056,
AFNE01.JPG,AFNE01.JPG,AFNE01.JPG,AFNE01.JPG,AFNE01.JPG,AFNE01.JPG,,,,,,,,,,,,,5,0,50,1,,,,,,,,,,,AMNE11.jpg,AMSA05.jpg,AMSA11.jpg,AMNE05.jpg,AMNE05.jpg,MN,1,num_4,32,num_6,,,1.55006929592,2017_Jul_21_1250,59.9975175646,FEMA4ImagesEEG,001,101056,
AFNE01.JPG,AFNE01.JPG,AFNE01.JPG,AFNE01.JPG,AFNE01.JPG,AFNE01.JPG,,,,,,,,,,,,,5,1,51,8,,,,,,,,,,,AMSA12.jpg,AMNE18.jpg,AMSA13.jpg,AMNE03.jpg,AMNE18.jpg,MN,1,num_6,32,num_8,,,1.10012512072,2017_Jul_21_1250,59.9975175646,FEMA4ImagesEEG,001,101056,
AFNE01.JPG,AFNE01.JPG,AFNE01.JPG,AFNE01.JPG,AFNE01.JPG,AFNE01.JPG,,,,,,,,,,,,,5,2,52,5,,,,,,,,,,,AMNE07.jpg,AMNE11.jpg,AMSA10.jpg,AMSA09.jpg,AMNE11.jpg,MN,1,num_6,16,num_6,,,1.28343066189,2017_Jul_21_1250,59.9975175646,FEMA4ImagesEEG,001,101056,
AFNE01.JPG,AFNE01.JPG,AFNE01.JPG,AFNE01.JPG,AFNE01.JPG,AFNE01.JPG,,,,,,,,,,,,,5,3,53,9,,,,,,,,,,,AMNE04.jpg,AMSA18.jpg,AMSA04.jpg,AMNE15.jpg,AMSA04.jpg,MS,2,num_2,32,num_8,,,0.750121961464,2017_Jul_21_1250,59.9975175646,FEMA4ImagesEEG,001,101056,
AFNE01.JPG,AFNE01.JPG,AFNE01.JPG,AFNE01.JPG,AFNE01.JPG,AFNE01.JPG,,,,,,,,,,,,,5,4,54,6,,,,,,,,,,,AMSA08.jpg,AMNE19.jpg,AMSA05.jpg,AMNE10.jpg,AMNE10.jpg,MN,1,num_4,32,num_2,,,1.01677695318,2017_Jul_21_1250,59.9975175646,FEMA4ImagesEEG,001,101056,
AFNE01.JPG,AFNE01.JPG,AFNE01.JPG,AFNE01.JPG,AFNE01.JPG,AFNE01.JPG,,,,,,,,,,,,,5,5,55,0,,,,,,,,,,,AMSA13.jpg,AMSA14.jpg,AMNE13.jpg,AMNE12.jpg,AMSA13.jpg,MS,2,num_8,16,num_8,,,0.950168532901,2017_Jul_21_1250,59.9975175646,FEMA4ImagesEEG,001,101056,
AFNE01.JPG,AFNE01.JPG,AFNE01.JPG,AFNE01.JPG,AFNE01.JPG,AFNE01.JPG,,,,,,,,,,,,,5,6,56,7,,,,,,,,,,,AMNE10.jpg,AMSA15.jpg,AMSA20.jpg,AMNE17.jpg,AMNE17.jpg,MN,1,num_4,32,num_2,,,0.933476896607,2017_Jul_21_1250,59.9975175646,FEMA4ImagesEEG,001,101056,
AFNE01.JPG,AFNE01.JPG,AFNE01.JPG,AFNE01.JPG,AFNE01.JPG,AFNE01.JPG,,,,,,,,,,,,,5,7,57,4,,,,,,,,,,,AMSA17.jpg,AMNE05.jpg,AMSA20.jpg,AMNE09.jpg,AMSA17.jpg,MS,2,num_8,32,num_2,,,0.749823993829,2017_Jul_21_1250,59.9975175646,FEMA4ImagesEEG,001,101056,
AFNE01.JPG,AFNE01.JPG,AFNE01.JPG,AFNE01.JPG,AFNE01.JPG,AFNE01.JPG,,,,,,,,,,,,,5,8,58,2,,,,,,,,,,,AMNE02.jpg,AMSA09.jpg,AMNE17.jpg,AMSA15.jpg,AMSA09.jpg,MS,2,num_6,32,num_4,,,1.23346448393,2017_Jul_21_1250,59.9975175646,FEMA4ImagesEEG,001,101056,
AFNE01.JPG,AFNE01.JPG,AFNE01.JPG,AFNE01.JPG,AFNE01.JPG,AFNE01.JPG,,,,,,,,,,,,,5,9,59,3,,,,,,,,,,,AMNE20.jpg,AMSA12.jpg,AMNE05.jpg,AMSA09.jpg,AMNE20.jpg,MN,1,num_8,16,num_8,,,0.616785164108,2017_Jul_21_1250,59.9975175646,FEMA4ImagesEEG,001,101056,
,,,,,,,,,,,,,,,,,,,,,,,,,,,,,,,,,,,,,,,,,,space,10.5662990664,,2017_Jul_21_1250,59.9975175646,FEMA4ImagesEEG,001,101056,
AFNE01.JPG,AFNE01.JPG,AFNE01.JPG,AFNE01.JPG,AFNE01.JPG,AFNE01.JPG,,,,,,,,,,,,,,,,,0,0,0,3,,,,,,,AFNE06.jpg,AFSA20.jpg,AFSA17.jpg,AFNE03.jpg,AFNE06.jpg,FN,3,num_8,32,num_6,,,0.700188499002,2017_Jul_21_1250,59.9975175646,FEMA4ImagesEEG,001,101056,
AFNE01.JPG,AFNE01.JPG,AFNE01.JPG,AFNE01.JPG,AFNE01.JPG,AFNE01.JPG,,,,,,,,,,,,,,,,,0,1,1,9,,,,,,,AFNE17.jpg,AFNE05.jpg,AFSA06.jpg,AFSA19.jpg,AFSA06.jpg,FS,4,num_2,32,num_6,,,0.616655585065,2017_Jul_21_1250,59.9975175646,FEMA4ImagesEEG,001,101056,
AFNE01.JPG,AFNE01.JPG,AFNE01.JPG,AFNE01.JPG,AFNE01.JPG,AFNE01.JPG,,,,,,,,,,,,,,,,,0,2,2,5,,,,,,,AFNE06.jpg,AFNE09.jpg,AFSA16.jpg,AFSA13.jpg,AFNE06.jpg,FN,3,num_8,32,num_4,,,0.983432169363,2017_Jul_21_1250,59.9975175646,FEMA4ImagesEEG,001,101056,
AFNE01.JPG,AFNE01.JPG,AFNE01.JPG,AFNE01.JPG,AFNE01.JPG,AFNE01.JPG,,,,,,,,,,,,,,,,,0,3,3,4,,,,,,,AFSA19.jpg,AFSA06.jpg,AFNE04.jpg,AFNE01.jpg,AFSA19.jpg,FS,4,num_8,32,num_2,,,0.566635522759,2017_Jul_21_1250,59.9975175646,FEMA4ImagesEEG,001,101056,
AFNE01.JPG,AFNE01.JPG,AFNE01.JPG,AFNE01.JPG,AFNE01.JPG,AFNE01.JPG,,,,,,,,,,,,,,,,,0,4,4,7,,,,,,,AFNE15.jpg,AFSA13.jpg,AFNE09.jpg,AFSA02.jpg,AFSA02.jpg,FS,4,num_4,16,num_4,,,0.916793920333,2017_Jul_21_1250,59.9975175646,FEMA4ImagesEEG,001,101056,
AFNE01.JPG,AFNE01.JPG,AFNE01.JPG,AFNE01.JPG,AFNE01.JPG,AFNE01.JPG,,,,,,,,,,,,,,,,,0,5,5,0,,,,,,,AFSA03.jpg,AFNE02.jpg,AFSA09.jpg,AFNE11.jpg,AFNE11.jpg,FN,3,num_4,32,num_6,,,0.883536057139,2017_Jul_21_1250,59.9975175646,FEMA4ImagesEEG,001,101056,
AFNE01.JPG,AFNE01.JPG,AFNE01.JPG,AFNE01.JPG,AFNE01.JPG,AFNE01.JPG,,,,,,,,,,,,,,,,,0,6,6,2,,,,,,,AFNE07.jpg,AFSA03.jpg,AFSA19.jpg,AFNE16.jpg,AFSA03.jpg,FS,4,num_6,32,num_4,,,0.666484165529,2017_Jul_21_1250,59.9975175646,FEMA4ImagesEEG,001,101056,
AFNE01.JPG,AFNE01.JPG,AFNE01.JPG,AFNE01.JPG,AFNE01.JPG,AFNE01.JPG,,,,,,,,,,,,,,,,,0,7,7,1,,,,,,,AFNE04.jpg,AFSA06.jpg,AFSA09.jpg,AFNE20.jpg,AFNE04.jpg,FN,3,num_8,32,num_2,,,1.11676960817,2017_Jul_21_1250,59.9975175646,FEMA4ImagesEEG,001,101056,
AFNE01.JPG,AFNE01.JPG,AFNE01.JPG,AFNE01.JPG,AFNE01.JPG,AFNE01.JPG,,,,,,,,,,,,,,,,,0,8,8,8,,,,,,,AFSA19.jpg,AFNE16.jpg,AFNE11.jpg,AFSA14.jpg,AFSA14.jpg,FS,4,num_4,16,num_4,,,4.88317939412,2017_Jul_21_1250,59.9975175646,FEMA4ImagesEEG,001,101056,
AFNE01.JPG,AFNE01.JPG,AFNE01.JPG,AFNE01.JPG,AFNE01.JPG,AFNE01.JPG,,,,,,,,,,,,,,,,,0,9,9,6,,,,,,,AFNE20.jpg,AFSA09.jpg,AFSA15.jpg,AFNE17.jpg,AFNE17.jpg,FN,3,num_4,32,num_2,,,0.800149400719,2017_Jul_21_1250,59.9975175646,FEMA4ImagesEEG,001,101056,
AFNE01.JPG,AFNE01.JPG,AFNE01.JPG,AFNE01.JPG,AFNE01.JPG,AFNE01.JPG,,,,,,,,,,,,,,,,,1,0,10,6,,,,,,,AFNE05.jpg,AFSA14.jpg,AFSA10.jpg,AFNE03.jpg,AFNE03.jpg,FN,3,num_4,16,num_4,,,0.700185933034,2017_Jul_21_1250,59.9975175646,FEMA4ImagesEEG,001,101056,
AFNE01.JPG,AFNE01.JPG,AFNE01.JPG,AFNE01.JPG,AFNE01.JPG,AFNE01.JPG,,,,,,,,,,,,,,,,,1,1,11,8,,,,,,,AFNE06.jpg,AFNE08.jpg,AFSA15.jpg,AFSA13.jpg,AFSA13.jpg,FS,4,num_4,16,num_4,,,0.96675272123,2017_Jul_21_1250,59.9975175646,FEMA4ImagesEEG,001,101056,
AFNE01.JPG,AFNE01.JPG,AFNE01.JPG,AFNE01.JPG,AFNE01.JPG,AFNE01.JPG,,,,,,,,,,,,,,,,,1,2,12,0,,,,,,,AFSA01.jpg,AFNE07.jpg,AFSA07.jpg,AFNE12.jpg,AFSA01.jpg,FS,4,num_8,16,num_8,,,1.25006791676,2017_Jul_21_1250,59.9975175646,FEMA4ImagesEEG,001,101056,
AFNE01.JPG,AFNE01.JPG,AFNE01.JPG,AFNE01.JPG,AFNE01.JPG,AFNE01.JPG,,,,,,,,,,,,,,,,,1,3,13,3,,,,,,,AFSA11.jpg,AFSA01.jpg,AFNE02.jpg,AFNE19.jpg,AFSA11.jpg,FS,4,num_8,16,num_8,,,0.566765101801,2017_Jul_21_1250,59.9975175646,FEMA4ImagesEEG,001,101056,
AFNE01.JPG,AFNE01.JPG,AFNE01.JPG,AFNE01.JPG,AFNE01.JPG,AFNE01.JPG,,,,,,,,,,,,,,,,,1,4,14,1,,,,,,,AFNE02.jpg,AFSA02.jpg,AFSA09.jpg,AFNE09.jpg,AFSA09.jpg,FS,4,num_2,16,num_2,,,0.516822658596,2017_Jul_21_1250,59.9975175646,FEMA4ImagesEEG,001,101056,
AFNE01.JPG,AFNE01.JPG,AFNE01.JPG,AFNE01.JPG,AFNE01.JPG,AFNE01.JPG,,,,,,,,,,,,,,,,,1,5,15,4,,,,,,,AFSA20.jpg,AFNE06.jpg,AFNE07.jpg,AFSA13.jpg,AFSA20.jpg,FS,4,num_8,16,num_8,,,1.06681144872,2017_Jul_21_1250,59.9975175646,FEMA4ImagesEEG,001,101056,
AFNE01.JPG,AFNE01.JPG,AFNE01.JPG,AFNE01.JPG,AFNE01.JPG,AFNE01.JPG,,,,,,,,,,,,,,,,,1,6,16,9,,,,,,,AFSA06.jpg,AFSA14.jpg,AFNE02.jpg,AFNE06.jpg,AFSA14.jpg,FS,4,num_6,16,num_6,,,1.2834537552,2017_Jul_21_1250,59.9975175646,FEMA4ImagesEEG,001,101056,
AFNE01.JPG,AFNE01.JPG,AFNE01.JPG,AFNE01.JPG,AFNE01.JPG,AFNE01.JPG,,,,,,,,,,,,,,,,,1,7,17,2,,,,,,,AFNE03.jpg,AFSA17.jpg,AFNE15.jpg,AFSA01.jpg,AFSA17.jpg,FS,4,num_6,32,num_4,,,0.68352027674,2017_Jul_21_1250,59.9975175646,FEMA4ImagesEEG,001,101056,
AFNE01.JPG,AFNE01.JPG,AFNE01.JPG,AFNE01.JPG,AFNE01.JPG,AFNE01.JPG,,,,,,,,,,,,,,,,,1,8,18,7,,,,,,,AFNE07.jpg,AFNE10.jpg,AFSA17.jpg,AFSA09.jpg,AFNE07.jpg,FN,3,num_8,32,num_2,,,1.06679926062,2017_Jul_21_1250,59.9975175646,FEMA4ImagesEEG,001,101056,
AFNE01.JPG,AFNE01.JPG,AFNE01.JPG,AFNE01.JPG,AFNE01.JPG,AFNE01.JPG,,,,,,,,,,,,,,,,,1,9,19,5,,,,,,,AFNE05.jpg,AFNE15.jpg,AFSA07.jpg,AFSA06.jpg,AFNE15.jpg,FN,3,num_6,16,num_6,,,0.983732702909,2017_Jul_21_1250,59.9975175646,FEMA4ImagesEEG,001,101056,
AFNE01.JPG,AFNE01.JPG,AFNE01.JPG,AFNE01.JPG,AFNE01.JPG,AFNE01.JPG,,,,,,,,,,,,,,,,,2,0,20,8,,,,,,,AFSA17.jpg,AFNE11.jpg,AFNE15.jpg,AFSA13.jpg,AFNE11.jpg,FN,3,num_6,16,num_6,,,1.21676386695,2017_Jul_21_1250,59.9975175646,FEMA4ImagesEEG,001,101056,
AFNE01.JPG,AFNE01.JPG,AFNE01.JPG,AFNE01.JPG,AFNE01.JPG,AFNE01.JPG,,,,,,,,,,,,,,,,,2,1,21,1,,,,,,,AFSA09.jpg,AFSA08.jpg,AFNE19.jpg,AFNE12.jpg,AFNE19.jpg,FN,3,num_2,16,num_2,,,0.750172959117,2017_Jul_21_1250,59.9975175646,FEMA4ImagesEEG,001,101056,
AFNE01.JPG,AFNE01.JPG,AFNE01.JPG,AFNE01.JPG,AFNE01.JPG,AFNE01.JPG,,,,,,,,,,,,,,,,,2,2,22,9,,,,,,,AFNE18.jpg,AFNE05.jpg,AFSA15.jpg,AFSA10.jpg,AFSA15.jpg,FS,4,num_2,16,num_2,,,0.850205385941,2017_Jul_21_1250,59.9975175646,FEMA4ImagesEEG,001,101056,
AFNE01.JPG,AFNE01.JPG,AFNE01.JPG,AFNE01.JPG,AFNE01.JPG,AFNE01.JPG,,,,,,,,,,,,,,,,,2,3,23,3,,,,,,,AFSA10.jpg,AFNE03.jpg,AFNE04.jpg,AFSA01.jpg,AFSA01.jpg,FS,4,num_4,16,num_4,,,1.66671926802,2017_Jul_21_1250,59.9975175646,FEMA4ImagesEEG,001,101056,
AFNE01.JPG,AFNE01.JPG,AFNE01.JPG,AFNE01.JPG,AFNE01.JPG,AFNE01.JPG,,,,,,,,,,,,,,,,,2,4,24,4,,,,,,,AFNE17.jpg,AFNE01.jpg,AFSA18.jpg,AFSA08.jpg,AFNE01.jpg,FN,3,num_6,32,num_2,,,0.850101466116,2017_Jul_21_1250,59.9975175646,FEMA4ImagesEEG,001,101056,
AFNE01.JPG,AFNE01.JPG,AFNE01.JPG,AFNE01.JPG,AFNE01.JPG,AFNE01.JPG,,,,,,,,,,,,,,,,,2,5,25,5,,,,,,,AFSA01.jpg,AFSA11.jpg,AFNE08.jpg,AFNE03.jpg,AFNE03.jpg,FN,3,num_4,32,num_8,,,1.78340933274,2017_Jul_21_1250,59.9975175646,FEMA4ImagesEEG,001,101056,
AFNE01.JPG,AFNE01.JPG,AFNE01.JPG,AFNE01.JPG,AFNE01.JPG,AFNE01.JPG,,,,,,,,,,,,,,,,,2,6,26,6,,,,,,,AFSA09.jpg,AFNE12.jpg,AFNE14.jpg,AFSA07.jpg,AFNE14.jpg,FN,3,num_2,16,num_2,,,0.750235182699,2017_Jul_21_1250,59.9975175646,FEMA4ImagesEEG,001,101056,
AFNE01.JPG,AFNE01.JPG,AFNE01.JPG,AFNE01.JPG,AFNE01.JPG,AFNE01.JPG,,,,,,,,,,,,,,,,,2,7,27,0,,,,,,,AFSA18.jpg,AFNE12.jpg,AFSA02.jpg,AFNE01.jpg,AFSA02.jpg,FS,4,num_2,32,num_8,,,0.700135256106,2017_Jul_21_1250,59.9975175646,FEMA4ImagesEEG,001,101056,
AFNE01.JPG,AFNE01.JPG,AFNE01.JPG,AFNE01.JPG,AFNE01.JPG,AFNE01.JPG,,,,,,,,,,,,,,,,,2,8,28,2,,,,,,,AFNE17.jpg,AFSA15.jpg,AFSA18.jpg,AFNE08.jpg,AFNE17.jpg,FN,3,num_8,32,num_2,,,0.716831703496,2017_Jul_21_1250,59.9975175646,FEMA4ImagesEEG,001,101056,
AFNE01.JPG,AFNE01.JPG,AFNE01.JPG,AFNE01.JPG,AFNE01.JPG,AFNE01.JPG,,,,,,,,,,,,,,,,,2,9,29,7,,,,,,,AFNE13.jpg,AFSA15.jpg,AFSA14.jpg,AFNE06.jpg,AFSA15.jpg,FS,4,num_6,32,num_8,,,0.983419339813,2017_Jul_21_1250,59.9975175646,FEMA4ImagesEEG,001,101056,
AFNE01.JPG,AFNE01.JPG,AFNE01.JPG,AFNE01.JPG,AFNE01.JPG,AFNE01.JPG,,,,,,,,,,,,,,,,,3,0,30,2,,,,,,,AFSA02.jpg,AFNE07.jpg,AFNE19.jpg,AFSA15.jpg,AFNE07.jpg,FN,3,num_6,32,num_2,,,0.716853513848,2017_Jul_21_1250,59.9975175646,FEMA4ImagesEEG,001,101056,
AFNE01.JPG,AFNE01.JPG,AFNE01.JPG,AFNE01.JPG,AFNE01.JPG,AFNE01.JPG,,,,,,,,,,,,,,,,,3,1,31,3,,,,,,,AFSA03.jpg,AFSA05.jpg,AFNE12.jpg,AFNE20.jpg,AFNE12.jpg,FN,3,num_2,16,num_2,,,0.816764700867,2017_Jul_21_1250,59.9975175646,FEMA4ImagesEEG,001,101056,
AFNE01.JPG,AFNE01.JPG,AFNE01.JPG,AFNE01.JPG,AFNE01.JPG,AFNE01.JPG,,,,,,,,,,,,,,,,,3,2,32,4,,,,,,,AFSA12.jpg,AFSA11.jpg,AFNE02.jpg,AFNE20.jpg,AFNE02.jpg,FN,3,num_2,32,num_8,,,1.48340891575,2017_Jul_21_1250,59.9975175646,FEMA4ImagesEEG,001,101056,
AFNE01.JPG,AFNE01.JPG,AFNE01.JPG,AFNE01.JPG,AFNE01.JPG,AFNE01.JPG,,,,,,,,,,,,,,,,,3,3,33,9,,,,,,,AFNE02.jpg,AFSA04.jpg,AFNE01.jpg,AFSA20.jpg,AFSA20.jpg,FS,4,num_4,32,num_2,,,1.48342206609,2017_Jul_21_1250,59.9975175646,FEMA4ImagesEEG,001,101056,
AFNE01.JPG,AFNE01.JPG,AFNE01.JPG,AFNE01.JPG,AFNE01.JPG,AFNE01.JPG,,,,,,,,,,,,,,,,,3,4,34,1,,,,,,,AFNE17.jpg,AFSA17.jpg,AFSA01.jpg,AFNE16.jpg,AFNE17.jpg,FN,3,num_8,32,num_4,,,0.73350441613,2017_Jul_21_1250,59.9975175646,FEMA4ImagesEEG,001,101056,
AFNE01.JPG,AFNE01.JPG,AFNE01.JPG,AFNE01.JPG,AFNE01.JPG,AFNE01.JPG,,,,,,,,,,,,,,,,,3,5,35,8,,,,,,,AFNE18.jpg,AFNE05.jpg,AFSA02.jpg,AFSA14.jpg,AFNE05.jpg,FN,3,num_6,32,num_8,,,0.883427967667,2017_Jul_21_1250,59.9975175646,FEMA4ImagesEEG,001,101056,
AFNE01.JPG,AFNE01.JPG,AFNE01.JPG,AFNE01.JPG,AFNE01.JPG,AFNE01.JPG,,,,,,,,,,,,,,,,,3,6,36,7,,,,,,,AFSA08.jpg,AFSA09.jpg,AFNE17.jpg,AFNE20.jpg,AFSA08.jpg,FS,4,num_8,32,num_6,,,0.750166865007,2017_Jul_21_1250,59.9975175646,FEMA4ImagesEEG,001,101056,
AFNE01.JPG,AFNE01.JPG,AFNE01.JPG,AFNE01.JPG,AFNE01.JPG,AFNE01.JPG,,,,,,,,,,,,,,,,,3,7,37,0,,,,,,,AFNE02.jpg,AFSA09.jpg,AFSA20.jpg,AFNE08.jpg,AFSA20.jpg,FS,4,num_2,16,num_2,,,0.900143018051,2017_Jul_21_1250,59.9975175646,FEMA4ImagesEEG,001,101056,
AFNE01.JPG,AFNE01.JPG,AFNE01.JPG,AFNE01.JPG,AFNE01.JPG,AFNE01.JPG,,,,,,,,,,,,,,,,,3,8,38,6,,,,,,,AFNE08.jpg,AFSA08.jpg,AFSA18.jpg,AFNE01.jpg,AFSA18.jpg,FS,4,num_2,32,num_8,,,0.76679210813,2017_Jul_21_1250,59.9975175646,FEMA4ImagesEEG,001,101056,
AFNE01.JPG,AFNE01.JPG,AFNE01.JPG,AFNE01.JPG,AFNE01.JPG,AFNE01.JPG,,,,,,,,,,,,,,,,,3,9,39,5,,,,,,,AFSA10.jpg,AFNE01.jpg,AFSA06.jpg,AFNE20.jpg,AFSA06.jpg,FS,4,num_2,32,num_4,,,0.450210068724,2017_Jul_21_1250,59.9975175646,FEMA4ImagesEEG,001,101056,
AFNE01.JPG,AFNE01.JPG,AFNE01.JPG,AFNE01.JPG,AFNE01.JPG,AFNE01.JPG,,,,,,,,,,,,,,,,,4,0,40,4,,,,,,,AFSA06.jpg,AFNE01.jpg,AFNE09.jpg,AFSA05.jpg,AFNE09.jpg,FN,3,num_2,32,num_6,,,0.783495291078,2017_Jul_21_1250,59.9975175646,FEMA4ImagesEEG,001,101056,
AFNE01.JPG,AFNE01.JPG,AFNE01.JPG,AFNE01.JPG,AFNE01.JPG,AFNE01.JPG,,,,,,,,,,,,,,,,,4,1,41,3,,,,,,,AFSA09.jpg,AFNE01.jpg,AFSA02.jpg,AFNE02.jpg,AFSA02.jpg,FS,4,num_2,16,num_2,,,0.699962377199,2017_Jul_21_1250,59.9975175646,FEMA4ImagesEEG,001,101056,
AFNE01.JPG,AFNE01.JPG,AFNE01.JPG,AFNE01.JPG,AFNE01.JPG,AFNE01.JPG,,,,,,,,,,,,,,,,,4,2,42,5,,,,,,,AFSA19.jpg,AFSA03.jpg,AFNE12.jpg,AFNE04.jpg,AFNE04.jpg,FN,3,num_4,16,num_4,,,0.450048415747,2017_Jul_21_1250,59.9975175646,FEMA4ImagesEEG,001,101056,
AFNE01.JPG,AFNE01.JPG,AFNE01.JPG,AFNE01.JPG,AFNE01.JPG,AFNE01.JPG,,,,,,,,,,,,,,,,,4,3,43,9,,,,,,,AFSA13.jpg,AFNE14.jpg,AFNE13.jpg,AFSA12.jpg,AFNE14.jpg,FN,3,num_6,32,num_4,,,1.45005418902,2017_Jul_21_1250,59.9975175646,FEMA4ImagesEEG,001,101056,
AFNE01.JPG,AFNE01.JPG,AFNE01.JPG,AFNE01.JPG,AFNE01.JPG,AFNE01.JPG,,,,,,,,,,,,,,,,,4,4,44,6,,,,,,,AFNE12.jpg,AFSA17.jpg,AFSA12.jpg,AFNE07.jpg,AFNE12.jpg,FN,3,num_8,32,num_2,,,0.88344657066,2017_Jul_21_1250,59.9975175646,FEMA4ImagesEEG,001,101056,
AFNE01.JPG,AFNE01.JPG,AFNE01.JPG,AFNE01.JPG,AFNE01.JPG,AFNE01.JPG,,,,,,,,,,,,,,,,,4,5,45,1,,,,,,,AFSA03.jpg,AFNE03.jpg,AFNE02.jpg,AFSA08.jpg,AFSA08.jpg,FS,4,num_4,32,num_8,,,0.733474907989,2017_Jul_21_1250,59.9975175646,FEMA4ImagesEEG,001,101056,
AFNE01.JPG,AFNE01.JPG,AFNE01.JPG,AFNE01.JPG,AFNE01.JPG,AFNE01.JPG,,,,,,,,,,,,,,,,,4,6,46,7,,,,,,,AFNE11.jpg,AFSA08.jpg,AFNE09.jpg,AFSA04.jpg,AFSA04.jpg,FS,4,num_4,16,num_4,,,0.716759216215,2017_Jul_21_1250,59.9975175646,FEMA4ImagesEEG,001,101056,
AFNE01.JPG,AFNE01.JPG,AFNE01.JPG,AFNE01.JPG,AFNE01.JPG,AFNE01.JPG,,,,,,,,,,,,,,,,,4,7,47,8,,,,,,,AFSA20.jpg,AFSA05.jpg,AFNE17.jpg,AFNE08.jpg,AFNE17.jpg,FN,3,num_2,32,num_8,,,0.666785661248,2017_Jul_21_1250,59.9975175646,FEMA4ImagesEEG,001,101056,
AFNE01.JPG,AFNE01.JPG,AFNE01.JPG,AFNE01.JPG,AFNE01.JPG,AFNE01.JPG,,,,,,,,,,,,,,,,,4,8,48,0,,,,,,,AFSA11.jpg,AFSA04.jpg,AFNE03.jpg,AFNE17.jpg,AFNE17.jpg,FN,3,num_4,32,num_6,,,2.66668238299,2017_Jul_21_1250,59.9975175646,FEMA4ImagesEEG,001,101056,
AFNE01.JPG,AFNE01.JPG,AFNE01.JPG,AFNE01.JPG,AFNE01.JPG,AFNE01.JPG,,,,,,,,,,,,,,,,,4,9,49,2,,,,,,,AFSA18.jpg,AFNE19.jpg,AFNE17.jpg,AFSA06.jpg,AFNE19.jpg,FN,3,num_6,32,num_2,,,1.633448896,2017_Jul_21_1250,59.9975175646,FEMA4ImagesEEG,001,101056,
AFNE01.JPG,AFNE01.JPG,AFNE01.JPG,AFNE01.JPG,AFNE01.JPG,AFNE01.JPG,,,,,,,,,,,,,,,,,5,0,50,7,,,,,,,AFNE07.jpg,AFNE14.jpg,AFSA02.jpg,AFSA20.jpg,AFSA02.jpg,FS,4,num_2,32,num_4,,,0.8501466905,2017_Jul_21_1250,59.9975175646,FEMA4ImagesEEG,001,101056,
AFNE01.JPG,AFNE01.JPG,AFNE01.JPG,AFNE01.JPG,AFNE01.JPG,AFNE01.JPG,,,,,,,,,,,,,,,,,5,1,51,6,,,,,,,AFSA15.jpg,AFNE18.jpg,AFNE01.jpg,AFSA02.jpg,AFNE01.jpg,FN,3,num_2,32,num_8,,,2.4332621611,2017_Jul_21_1250,59.9975175646,FEMA4ImagesEEG,001,101056,
AFNE01.JPG,AFNE01.JPG,AFNE01.JPG,AFNE01.JPG,AFNE01.JPG,AFNE01.JPG,,,,,,,,,,,,,,,,,5,2,52,9,,,,,,,AFSA16.jpg,AFSA17.jpg,AFNE02.jpg,AFNE16.jpg,AFSA17.jpg,FS,4,num_6,32,num_8,,,0.983565276547,2017_Jul_21_1250,59.9975175646,FEMA4ImagesEEG,001,101056,
AFNE01.JPG,AFNE01.JPG,AFNE01.JPG,AFNE01.JPG,AFNE01.JPG,AFNE01.JPG,,,,,,,,,,,,,,,,,5,3,53,2,,,,,,,AFNE03.jpg,AFSA12.jpg,AFSA20.jpg,AFNE07.jpg,AFNE03.jpg,FN,3,num_8,32,num_2,,,0.783499460667,2017_Jul_21_1250,59.9975175646,FEMA4ImagesEEG,001,101056,
AFNE01.JPG,AFNE01.JPG,AFNE01.JPG,AFNE01.JPG,AFNE01.JPG,AFNE01.JPG,,,,,,,,,,,,,,,,,5,4,54,4,,,,,,,AFSA17.jpg,AFNE10.jpg,AFNE06.jpg,AFSA16.jpg,AFNE10.jpg,FN,3,num_6,16,num_6,,,1.20008987142,2017_Jul_21_1250,59.9975175646,FEMA4ImagesEEG,001,101056,
AFNE01.JPG,AFNE01.JPG,AFNE01.JPG,AFNE01.JPG,AFNE01.JPG,AFNE01.JPG,,,,,,,,,,,,,,,,,5,5,55,1,,,,,,,AFNE02.jpg,AFSA06.jpg,AFSA05.jpg,AFNE10.jpg,AFNE10.jpg,FN,3,num_4,16,num_4,,,0.833445111231,2017_Jul_21_1250,59.9975175646,FEMA4ImagesEEG,001,101056,
AFNE01.JPG,AFNE01.JPG,AFNE01.JPG,AFNE01.JPG,AFNE01.JPG,AFNE01.JPG,,,,,,,,,,,,,,,,,5,6,56,3,,,,,,,AFNE05.jpg,AFNE17.jpg,AFSA19.jpg,AFSA02.jpg,AFNE05.jpg,FN,3,num_8,16,num_8,,,1.83327319456,2017_Jul_21_1250,59.9975175646,FEMA4ImagesEEG,001,101056,
AFNE01.JPG,AFNE01.JPG,AFNE01.JPG,AFNE01.JPG,AFNE01.JPG,AFNE01.JPG,,,,,,,,,,,,,,,,,5,7,57,8,,,,,,,AFSA08.jpg,AFSA01.jpg,AFNE09.jpg,AFNE19.jpg,AFNE19.jpg,FN,3,num_4,32,num_2,,,1.01672403101,2017_Jul_21_1250,59.9975175646,FEMA4ImagesEEG,001,101056,
AFNE01.JPG,AFNE01.JPG,AFNE01.JPG,AFNE01.JPG,AFNE01.JPG,AFNE01.JPG,,,,,,,,,,,,,,,,,5,8,58,0,,,,,,,AFNE03.jpg,AFSA01.jpg,AFNE07.jpg,AFSA18.jpg,AFSA18.jpg,FS,4,num_4,32,num_8,,,0.933425578231,2017_Jul_21_1250,59.9975175646,FEMA4ImagesEEG,001,101056,
AFNE01.JPG,AFNE01.JPG,AFNE01.JPG,AFNE01.JPG,AFNE01.JPG,AFNE01.JPG,,,,,,,,,,,,,,,,,5,9,59,5,,,,,,,AFNE07.jpg,AFSA08.jpg,AFSA02.jpg,AFNE08.jpg,AFSA08.jpg,FS,4,num_6,16,num_6,,,0.733575620397,2017_Jul_21_1250,59.9975175646,FEMA4ImagesEEG,001,101056,
,,,,,,,,,,,,,,,,,,,,,,,,,,,,,,,,,,,,,,,,,,space,9.16595029365,,2017_Jul_21_1250,59.9975175646,FEMA4ImagesEEG,001,101056,
AFNE01.JPG,AFNE01.JPG,AFNE01.JPG,AFNE01.JPG,AFNE01.JPG,AFNE01.JPG,,,,,,,,,,,,,,,,,,,,,0,0,0,4,,,AMSA12.jpg,AMSA13.jpg,AMNE14.jpg,AMNE15.jpg,AMSA12.jpg,MS,2,num_8,16,num_8,,,0.8835155298,2017_Jul_21_1250,59.9975175646,FEMA4ImagesEEG,001,101056,
AFNE01.JPG,AFNE01.JPG,AFNE01.JPG,AFNE01.JPG,AFNE01.JPG,AFNE01.JPG,,,,,,,,,,,,,,,,,,,,,0,1,1,0,,,AMNE01.jpg,AMNE13.jpg,AMSA01.jpg,AMSA07.jpg,AMSA01.jpg,MS,2,num_2,32,num_4,,,1.1834992682,2017_Jul_21_1250,59.9975175646,FEMA4ImagesEEG,001,101056,
AFNE01.JPG,AFNE01.JPG,AFNE01.JPG,AFNE01.JPG,AFNE01.JPG,AFNE01.JPG,,,,,,,,,,,,,,,,,,,,,0,2,2,5,,,AMSA18.jpg,AMNE06.jpg,AMNE05.jpg,AMSA02.jpg,AMNE05.jpg,MN,1,num_2,32,num_6,,,0.783458726655,2017_Jul_21_1250,59.9975175646,FEMA4ImagesEEG,001,101056,
AFNE01.JPG,AFNE01.JPG,AFNE01.JPG,AFNE01.JPG,AFNE01.JPG,AFNE01.JPG,,,,,,,,,,,,,,,,,,,,,0,3,3,1,,,AMSA20.jpg,AMNE13.jpg,AMSA02.jpg,AMNE08.jpg,AMSA20.jpg,MS,2,num_8,32,num_6,,,1.26671689458,2017_Jul_21_1250,59.9975175646,FEMA4ImagesEEG,001,101056,
AFNE01.JPG,AFNE01.JPG,AFNE01.JPG,AFNE01.JPG,AFNE01.JPG,AFNE01.JPG,,,,,,,,,,,,,,,,,,,,,0,4,4,6,,,AMSA08.jpg,AMSA01.jpg,AMNE11.jpg,AMNE07.jpg,AMNE11.jpg,MN,1,num_2,32,num_8,,,0.650159135228,2017_Jul_21_1250,59.9975175646,FEMA4ImagesEEG,001,101056,
AFNE01.JPG,AFNE01.JPG,AFNE01.JPG,AFNE01.JPG,AFNE01.JPG,AFNE01.JPG,,,,,,,,,,,,,,,,,,,,,0,5,5,3,,,AMSA09.jpg,AMSA16.jpg,AMNE07.jpg,AMNE13.jpg,AMSA09.jpg,MS,2,num_8,32,num_4,,,0.933475613652,2017_Jul_21_1250,59.9975175646,FEMA4ImagesEEG,001,101056,
AFNE01.JPG,AFNE01.JPG,AFNE01.JPG,AFNE01.JPG,AFNE01.JPG,AFNE01.JPG,,,,,,,,,,,,,,,,,,,,,0,6,6,8,,,AMSA12.jpg,AMNE07.jpg,AMSA18.jpg,AMNE16.jpg,AMSA18.jpg,MS,2,num_2,16,num_2,,,2.36669479561,2017_Jul_21_1250,59.9975175646,FEMA4ImagesEEG,001,101056,
AFNE01.JPG,AFNE01.JPG,AFNE01.JPG,AFNE01.JPG,AFNE01.JPG,AFNE01.JPG,,,,,,,,,,,,,,,,,,,,,0,7,7,2,,,AMNE04.jpg,AMNE16.jpg,AMSA04.jpg,AMSA19.jpg,AMNE04.jpg,MN,1,num_8,32,num_4,,,0.800150042225,2017_Jul_21_1250,59.9975175646,FEMA4ImagesEEG,001,101056,
AFNE01.JPG,AFNE01.JPG,AFNE01.JPG,AFNE01.JPG,AFNE01.JPG,AFNE01.JPG,,,,,,,,,,,,,,,,,,,,,0,8,8,9,,,AMNE09.jpg,AMSA09.jpg,AMNE11.jpg,AMSA18.jpg,AMSA18.jpg,MS,2,num_4,32,num_2,,,1.13340062462,2017_Jul_21_1250,59.9975175646,FEMA4ImagesEEG,001,101056,
AFNE01.JPG,AFNE01.JPG,AFNE01.JPG,AFNE01.JPG,AFNE01.JPG,AFNE01.JPG,,,,,,,,,,,,,,,,,,,,,0,9,9,7,,,AMNE09.jpg,AMNE04.jpg,AMSA19.jpg,AMSA20.jpg,AMSA20.jpg,MS,2,num_4,32,num_2,,,0.966411133006,2017_Jul_21_1250,59.9975175646,FEMA4ImagesEEG,001,101056,
AFNE01.JPG,AFNE01.JPG,AFNE01.JPG,AFNE01.JPG,AFNE01.JPG,AFNE01.JPG,,,,,,,,,,,,,,,,,,,,,1,0,10,5,,,AMNE10.jpg,AMNE16.jpg,AMSA06.jpg,AMSA19.jpg,AMSA06.jpg,MS,2,num_2,32,num_6,,,1.40020347753,2017_Jul_21_1250,59.9975175646,FEMA4ImagesEEG,001,101056,
AFNE01.JPG,AFNE01.JPG,AFNE01.JPG,AFNE01.JPG,AFNE01.JPG,AFNE01.JPG,,,,,,,,,,,,,,,,,,,,,1,1,11,3,,,AMNE05.jpg,AMSA15.jpg,AMSA04.jpg,AMNE14.jpg,AMSA04.jpg,MS,2,num_2,32,num_8,,,1.133419869,2017_Jul_21_1250,59.9975175646,FEMA4ImagesEEG,001,101056,
AFNE01.JPG,AFNE01.JPG,AFNE01.JPG,AFNE01.JPG,AFNE01.JPG,AFNE01.JPG,,,,,,,,,,,,,,,,,,,,,1,2,12,9,,,AMSA17.jpg,AMSA14.jpg,AMNE12.jpg,AMNE18.jpg,AMSA17.jpg,MS,2,num_8,32,num_2,,,1.10041988088,2017_Jul_21_1250,59.9975175646,FEMA4ImagesEEG,001,101056,
AFNE01.JPG,AFNE01.JPG,AFNE01.JPG,AFNE01.JPG,AFNE01.JPG,AFNE01.JPG,,,,,,,,,,,,,,,,,,,,,1,3,13,1,,,AMSA09.jpg,AMSA18.jpg,AMNE20.jpg,AMNE16.jpg,AMSA09.jpg,MS,2,num_8,16,num_8,,,0.650220717303,2017_Jul_21_1250,59.9975175646,FEMA4ImagesEEG,001,101056,
AFNE01.JPG,AFNE01.JPG,AFNE01.JPG,AFNE01.JPG,AFNE01.JPG,AFNE01.JPG,,,,,,,,,,,,,,,,,,,,,1,4,14,7,,,AMNE18.jpg,AMNE01.jpg,AMSA06.jpg,AMSA08.jpg,AMNE01.jpg,MN,1,num_6,32,num_4,,,0.833515032602,2017_Jul_21_1250,59.9975175646,FEMA4ImagesEEG,001,101056,
AFNE01.JPG,AFNE01.JPG,AFNE01.JPG,AFNE01.JPG,AFNE01.JPG,AFNE01.JPG,,,,,,,,,,,,,,,,,,,,,1,5,15,8,,,AMNE19.jpg,AMSA12.jpg,AMNE20.jpg,AMSA03.jpg,AMNE20.jpg,MN,1,num_2,32,num_8,,,0.716867626354,2017_Jul_21_1250,59.9975175646,FEMA4ImagesEEG,001,101056,
AFNE01.JPG,AFNE01.JPG,AFNE01.JPG,AFNE01.JPG,AFNE01.JPG,AFNE01.JPG,,,,,,,,,,,,,,,,,,,,,1,6,16,4,,,AMNE10.jpg,AMSA13.jpg,AMNE01.jpg,AMSA18.jpg,AMNE10.jpg,MN,1,num_8,32,num_2,,,0.91680225957,2017_Jul_21_1250,59.9975175646,FEMA4ImagesEEG,001,101056,
AFNE01.JPG,AFNE01.JPG,AFNE01.JPG,AFNE01.JPG,AFNE01.JPG,AFNE01.JPG,,,,,,,,,,,,,,,,,,,,,1,7,17,2,,,AMSA09.jpg,AMSA06.jpg,AMNE09.jpg,AMNE10.jpg,AMNE09.jpg,MN,1,num_2,32,num_4,,,0.766830917681,2017_Jul_21_1250,59.9975175646,FEMA4ImagesEEG,001,101056,
AFNE01.JPG,AFNE01.JPG,AFNE01.JPG,AFNE01.JPG,AFNE01.JPG,AFNE01.JPG,,,,,,,,,,,,,,,,,,,,,1,8,18,6,,,AMNE06.jpg,AMSA14.jpg,AMNE18.jpg,AMSA17.jpg,AMNE06.jpg,MN,1,num_8,32,num_2,,,0.73336393194,2017_Jul_21_1250,59.9975175646,FEMA4ImagesEEG,001,101056,
AFNE01.JPG,AFNE01.JPG,AFNE01.JPG,AFNE01.JPG,AFNE01.JPG,AFNE01.JPG,,,,,,,,,,,,,,,,,,,,,1,9,19,0,,,AMNE16.jpg,AMSA01.jpg,AMNE13.jpg,AMSA17.jpg,AMNE16.jpg,MN,1,num_8,16,num_8,,,0.93347721739,2017_Jul_21_1250,59.9975175646,FEMA4ImagesEEG,001,101056,
AFNE01.JPG,AFNE01.JPG,AFNE01.JPG,AFNE01.JPG,AFNE01.JPG,AFNE01.JPG,,,,,,,,,,,,,,,,,,,,,2,0,20,1,,,AMNE07.jpg,AMSA16.jpg,AMSA09.jpg,AMNE12.jpg,AMSA09.jpg,MS,2,num_2,32,num_6,,,0.783096611092,2017_Jul_21_1250,59.9975175646,FEMA4ImagesEEG,001,101056,
AFNE01.JPG,AFNE01.JPG,AFNE01.JPG,AFNE01.JPG,AFNE01.JPG,AFNE01.JPG,,,,,,,,,,,,,,,,,,,,,2,1,21,4,,,AMNE16.jpg,AMSA03.jpg,AMNE17.jpg,AMSA09.jpg,AMNE17.jpg,MN,1,num_2,32,num_8,,,1.80007434759,2017_Jul_21_1250,59.9975175646,FEMA4ImagesEEG,001,101056,
AFNE01.JPG,AFNE01.JPG,AFNE01.JPG,AFNE01.JPG,AFNE01.JPG,AFNE01.JPG,,,,,,,,,,,,,,,,,,,,,2,2,22,0,,,AMSA06.jpg,AMSA13.jpg,AMNE06.jpg,AMNE17.jpg,AMSA13.jpg,MS,2,num_6,32,num_2,,,0.950145760376,2017_Jul_21_1250,59.9975175646,FEMA4ImagesEEG,001,101056,
AFNE01.JPG,AFNE01.JPG,AFNE01.JPG,AFNE01.JPG,AFNE01.JPG,AFNE01.JPG,,,,,,,,,,,,,,,,,,,,,2,3,23,2,,,AMNE14.jpg,AMNE04.jpg,AMSA19.jpg,AMSA07.jpg,AMNE04.jpg,MN,1,num_6,16,num_6,,,0.95016243885,2017_Jul_21_1250,59.9975175646,FEMA4ImagesEEG,001,101056,
AFNE01.JPG,AFNE01.JPG,AFNE01.JPG,AFNE01.JPG,AFNE01.JPG,AFNE01.JPG,,,,,,,,,,,,,,,,,,,,,2,4,24,8,,,AMSA16.jpg,AMNE08.jpg,AMSA08.jpg,AMNE18.jpg,AMNE08.jpg,MN,1,num_6,48,None,,,,2017_Jul_21_1250,59.9975175646,FEMA4ImagesEEG,001,101056,
AFNE01.JPG,AFNE01.JPG,AFNE01.JPG,AFNE01.JPG,AFNE01.JPG,AFNE01.JPG,,,,,,,,,,,,,,,,,,,,,2,5,25,6,,,AMSA09.jpg,AMSA18.jpg,AMNE02.jpg,AMNE17.jpg,AMNE02.jpg,MN,1,num_2,16,num_2,,,1.28351758246,2017_Jul_21_1250,59.9975175646,FEMA4ImagesEEG,001,101056,
AFNE01.JPG,AFNE01.JPG,AFNE01.JPG,AFNE01.JPG,AFNE01.JPG,AFNE01.JPG,,,,,,,,,,,,,,,,,,,,,2,6,26,7,,,AMNE03.jpg,AMSA10.jpg,AMNE18.jpg,AMSA06.jpg,AMSA10.jpg,MS,2,num_6,32,num_8,,,0.716608789109,2017_Jul_21_1250,59.9975175646,FEMA4ImagesEEG,001,101056,
AFNE01.JPG,AFNE01.JPG,AFNE01.JPG,AFNE01.JPG,AFNE01.JPG,AFNE01.JPG,,,,,,,,,,,,,,,,,,,,,2,7,27,9,,,AMNE08.jpg,AMSA16.jpg,AMSA19.jpg,AMNE14.jpg,AMSA16.jpg,MS,2,num_6,16,num_6,,,0.766775108874,2017_Jul_21_1250,59.9975175646,FEMA4ImagesEEG,001,101056,
AFNE01.JPG,AFNE01.JPG,AFNE01.JPG,AFNE01.JPG,AFNE01.JPG,AFNE01.JPG,,,,,,,,,,,,,,,,,,,,,2,8,28,5,,,AMNE02.jpg,AMSA12.jpg,AMSA09.jpg,AMNE11.jpg,AMNE11.jpg,MN,1,num_4,32,num_8,,,0.766852407251,2017_Jul_21_1250,59.9975175646,FEMA4ImagesEEG,001,101056,
AFNE01.JPG,AFNE01.JPG,AFNE01.JPG,AFNE01.JPG,AFNE01.JPG,AFNE01.JPG,,,,,,,,,,,,,,,,,,,,,2,9,29,3,,,AMNE19.jpg,AMSA12.jpg,AMSA11.jpg,AMNE17.jpg,AMSA11.jpg,MS,2,num_2,16,num_2,,,0.933455086313,2017_Jul_21_1250,59.9975175646,FEMA4ImagesEEG,001,101056,
AFNE01.JPG,AFNE01.JPG,AFNE01.JPG,AFNE01.JPG,AFNE01.JPG,AFNE01.JPG,,,,,,,,,,,,,,,,,,,,,3,0,30,2,,,AMSA02.jpg,AMNE02.jpg,AMNE04.jpg,AMSA17.jpg,AMSA17.jpg,MS,2,num_4,16,num_4,,,0.866801441647,2017_Jul_21_1250,59.9975175646,FEMA4ImagesEEG,001,101056,
AFNE01.JPG,AFNE01.JPG,AFNE01.JPG,AFNE01.JPG,AFNE01.JPG,AFNE01.JPG,,,,,,,,,,,,,,,,,,,,,3,1,31,1,,,AMNE03.jpg,AMSA19.jpg,AMSA12.jpg,AMNE13.jpg,AMSA19.jpg,MS,2,num_6,32,num_4,,,1.70011408726,2017_Jul_21_1250,59.9975175646,FEMA4ImagesEEG,001,101056,
AFNE01.JPG,AFNE01.JPG,AFNE01.JPG,AFNE01.JPG,AFNE01.JPG,AFNE01.JPG,,,,,,,,,,,,,,,,,,,,,3,2,32,7,,,AMSA04.jpg,AMSA07.jpg,AMNE13.jpg,AMNE20.jpg,AMNE20.jpg,MN,1,num_4,16,num_4,,,1.15007911052,2017_Jul_21_1250,59.9975175646,FEMA4ImagesEEG,001,101056,
AFNE01.JPG,AFNE01.JPG,AFNE01.JPG,AFNE01.JPG,AFNE01.JPG,AFNE01.JPG,,,,,,,,,,,,,,,,,,,,,3,3,33,6,,,AMNE06.jpg,AMNE15.jpg,AMSA02.jpg,AMSA12.jpg,AMNE06.jpg,MN,1,num_8,32,num_2,,,0.700168933778,2017_Jul_21_1250,59.9975175646,FEMA4ImagesEEG,001,101056,
AFNE01.JPG,AFNE01.JPG,AFNE01.JPG,AFNE01.JPG,AFNE01.JPG,AFNE01.JPG,,,,,,,,,,,,,,,,,,,,,3,4,34,3,,,AMSA14.jpg,AMNE05.jpg,AMSA19.jpg,AMNE11.jpg,AMSA14.jpg,MS,2,num_8,16,num_8,,,0.750172317668,2017_Jul_21_1250,59.9975175646,FEMA4ImagesEEG,001,101056,
AFNE01.JPG,AFNE01.JPG,AFNE01.JPG,AFNE01.JPG,AFNE01.JPG,AFNE01.JPG,,,,,,,,,,,,,,,,,,,,,3,5,35,9,,,AMNE10.jpg,AMSA19.jpg,AMNE16.jpg,AMSA08.jpg,AMNE10.jpg,MN,1,num_8,32,num_6,,,0.966714232403,2017_Jul_21_1250,59.9975175646,FEMA4ImagesEEG,001,101056,
AFNE01.JPG,AFNE01.JPG,AFNE01.JPG,AFNE01.JPG,AFNE01.JPG,AFNE01.JPG,,,,,,,,,,,,,,,,,,,,,3,6,36,0,,,AMSA03.jpg,AMNE13.jpg,AMSA10.jpg,AMNE19.jpg,AMNE19.jpg,MN,1,num_4,32,num_2,,,0.783450387418,2017_Jul_21_1250,59.9975175646,FEMA4ImagesEEG,001,101056,
AFNE01.JPG,AFNE01.JPG,AFNE01.JPG,AFNE01.JPG,AFNE01.JPG,AFNE01.JPG,,,,,,,,,,,,,,,,,,,,,3,7,37,4,,,AMSA17.jpg,AMNE13.jpg,AMNE12.jpg,AMSA05.jpg,AMSA05.jpg,MS,2,num_4,32,num_6,,,0.833394755085,2017_Jul_21_1250,59.9975175646,FEMA4ImagesEEG,001,101056,
AFNE01.JPG,AFNE01.JPG,AFNE01.JPG,AFNE01.JPG,AFNE01.JPG,AFNE01.JPG,,,,,,,,,,,,,,,,,,,,,3,8,38,8,,,AMSA11.jpg,AMSA06.jpg,AMNE02.jpg,AMNE04.jpg,AMSA06.jpg,MS,2,num_6,32,num_8,,,0.666833451542,2017_Jul_21_1250,59.9975175646,FEMA4ImagesEEG,001,101056,
AFNE01.JPG,AFNE01.JPG,AFNE01.JPG,AFNE01.JPG,AFNE01.JPG,AFNE01.JPG,,,,,,,,,,,,,,,,,,,,,3,9,39,5,,,AMNE15.jpg,AMSA01.jpg,AMNE03.jpg,AMSA20.jpg,AMSA01.jpg,MS,2,num_6,32,num_2,,,0.750151148823,2017_Jul_21_1250,59.9975175646,FEMA4ImagesEEG,001,101056,
AFNE01.JPG,AFNE01.JPG,AFNE01.JPG,AFNE01.JPG,AFNE01.JPG,AFNE01.JPG,,,,,,,,,,,,,,,,,,,,,4,0,40,7,,,AMSA12.jpg,AMNE08.jpg,AMNE14.jpg,AMSA19.jpg,AMSA19.jpg,MS,2,num_4,16,num_4,,,0.816812491161,2017_Jul_21_1250,59.9975175646,FEMA4ImagesEEG,001,101056,
AFNE01.JPG,AFNE01.JPG,AFNE01.JPG,AFNE01.JPG,AFNE01.JPG,AFNE01.JPG,,,,,,,,,,,,,,,,,,,,,4,1,41,0,,,AMNE17.jpg,AMSA06.jpg,AMNE16.jpg,AMSA16.jpg,AMSA16.jpg,MS,2,num_4,32,num_6,,,0.783486631059,2017_Jul_21_1250,59.9975175646,FEMA4ImagesEEG,001,101056,
AFNE01.JPG,AFNE01.JPG,AFNE01.JPG,AFNE01.JPG,AFNE01.JPG,AFNE01.JPG,,,,,,,,,,,,,,,,,,,,,4,2,42,9,,,AMSA06.jpg,AMSA01.jpg,AMNE16.jpg,AMNE02.jpg,AMSA01.jpg,MS,2,num_6,32,num_4,,,2.91666979389,2017_Jul_21_1250,59.9975175646,FEMA4ImagesEEG,001,101056,
AFNE01.JPG,AFNE01.JPG,AFNE01.JPG,AFNE01.JPG,AFNE01.JPG,AFNE01.JPG,,,,,,,,,,,,,,,,,,,,,4,3,43,1,,,AMSA01.jpg,AMNE09.jpg,AMSA09.jpg,AMNE05.jpg,AMSA01.jpg,MS,2,num_8,16,num_8,,,0.650052970217,2017_Jul_21_1250,59.9975175646,FEMA4ImagesEEG,001,101056,
AFNE01.JPG,AFNE01.JPG,AFNE01.JPG,AFNE01.JPG,AFNE01.JPG,AFNE01.JPG,,,,,,,,,,,,,,,,,,,,,4,4,44,3,,,AMSA06.jpg,AMSA09.jpg,AMNE10.jpg,AMNE03.jpg,AMNE10.jpg,MN,1,num_2,32,num_8,,,1.26675474196,2017_Jul_21_1250,59.9975175646,FEMA4ImagesEEG,001,101056,
AFNE01.JPG,AFNE01.JPG,AFNE01.JPG,AFNE01.JPG,AFNE01.JPG,AFNE01.JPG,,,,,,,,,,,,,,,,,,,,,4,5,45,8,,,AMNE14.jpg,AMSA13.jpg,AMSA06.jpg,AMNE18.jpg,AMSA13.jpg,MS,2,num_6,32,num_8,,,0.71683202422,2017_Jul_21_1250,59.9975175646,FEMA4ImagesEEG,001,101056,
