IPosition2,IPosition3,IPosition1,IPosition6,IPosition4,IPosition5,TrialsM1.thisRepN,TrialsM1.thisTrialN,TrialsM1.thisN,TrialsM1.thisIndex,TrialsF1.thisRepN,TrialsF1.thisTrialN,TrialsF1.thisN,TrialsF1.thisIndex,TrialsM2.thisRepN,TrialsM2.thisTrialN,TrialsM2.thisN,TrialsM2.thisIndex,TrialsF2.thisRepN,TrialsF2.thisTrialN,TrialsF2.thisN,TrialsF2.thisIndex,TrialsM3.thisRepN,TrialsM3.thisTrialN,TrialsM3.thisN,TrialsM3.thisIndex,TrialsF3.thisRepN,TrialsF3.thisTrialN,TrialsF3.thisN,TrialsF3.thisIndex,InstrKey_resp.keys,InstrKey_resp.rt,Image0 _Position,Image1 _Position,Image2 _Position,Image3 _Position,Center_image,condition,code,correct_answer,accuracy,Key_Resp.keys,Key_Resp.rt,BreakKey_resp.keys,BreakKey_resp.rt,date,frameRate,expName,session,participant,
,,,,,,,,,,,,,,,,,,,,,,,,,,,,,,space,14.6660867687,,,,,,,,,,,,,,2017_Aug_11_1543,59.9946312568,MAFE4ImagesEEG,001,101126,
AMSA21.JPG,AMNE22.JPG,AMNE21.JPG,AMSA23.JPG,AMSA22.JPG,AMNE23.JPG,0,0,0,1,,,,,,,,,,,,,,,,,,,,,,,AMSA14.jpg,AMNE20.jpg,AMNE03.jpg,AMSA19.jpg,AMSA14.jpg,MS,2,num_8,32,num_6,3.48323443299,,,2017_Aug_11_1543,59.9946312568,MAFE4ImagesEEG,001,101126,
AFSA25.JPG,AFNE24.JPG,AFSA24.JPG,AFNE21.JPG,AFSA21.JPG,AFNE25.JPG,0,1,1,2,,,,,,,,,,,,,,,,,,,,,,,AMSA15.jpg,AMSA03.jpg,AMNE17.jpg,AMNE04.jpg,AMSA15.jpg,MS,2,num_8,16,num_8,1.18340689503,,,2017_Aug_11_1543,59.9946312568,MAFE4ImagesEEG,001,101126,
AFSA21.JPG,AFNE22.JPG,AFNE21.JPG,AFSA23.JPG,AFSA22.JPG,AFNE23.JPG,0,2,2,0,,,,,,,,,,,,,,,,,,,,,,,AMNE19.jpg,AMSA08.jpg,AMSA17.jpg,AMNE20.jpg,AMSA17.jpg,MS,2,num_2,32,num_4,2.16664373362,,,2017_Aug_11_1543,59.9946312568,MAFE4ImagesEEG,001,101126,
AMSA25.JPG,AMNE24.JPG,AMSA24.JPG,AMNE26.JPG,AMSA21.JPG,AMNE25.JPG,0,3,3,3,,,,,,,,,,,,,,,,,,,,,,,AMSA09.jpg,AMNE16.jpg,AMSA15.jpg,AMNE10.jpg,AMSA09.jpg,MS,2,num_8,16,num_8,1.08343669167,,,2017_Aug_11_1543,59.9946312568,MAFE4ImagesEEG,001,101126,
AFSA21.JPG,AFNE23.JPG,AFNE21.JPG,AFSA25.JPG,AFNE25.JPG,AFSA23.JPG,0,4,4,4,,,,,,,,,,,,,,,,,,,,,,,AMSA09.jpg,AMNE09.jpg,AMSA12.jpg,AMNE13.jpg,AMSA09.jpg,MS,2,num_8,32,num_2,1.48339191684,,,2017_Aug_11_1543,59.9946312568,MAFE4ImagesEEG,001,101126,
AMSA21.JPG,AMNE23.JPG,AMNE21.JPG,AMSA25.JPG,AMNE25.JPG,AMSA23.JPG,0,5,5,5,,,,,,,,,,,,,,,,,,,,,,,AMNE17.jpg,AMNE12.jpg,AMSA07.jpg,AMSA14.jpg,AMNE17.jpg,MN,1,num_8,32,num_6,2.54967638943,,,2017_Aug_11_1543,59.9946312568,MAFE4ImagesEEG,001,101126,
AFNE22.JPG,AFSA24.JPG,AFSA22.JPG,AFNE25.JPG,AFNE24.JPG,AFSA25.JPG,0,6,6,6,,,,,,,,,,,,,,,,,,,,,,,AMNE11.jpg,AMSA08.jpg,AMSA05.jpg,AMNE15.jpg,AMNE11.jpg,MN,1,num_8,32,num_4,2.15010284539,,,2017_Aug_11_1543,59.9946312568,MAFE4ImagesEEG,001,101126,
AFNE23.JPG,AFNE24.JPG,AFNE22.JPG,AFSA24.JPG,AFSA22.JPG,AFSA23.JPG,0,7,7,8,,,,,,,,,,,,,,,,,,,,,,,AMNE15.jpg,AMSA13.jpg,AMNE08.jpg,AMSA10.jpg,AMSA13.jpg,MS,2,num_6,16,num_6,0.866760066245,,,2017_Aug_11_1543,59.9946312568,MAFE4ImagesEEG,001,101126,
AMNE22.JPG,AMSA24.JPG,AMSA22.JPG,AMNE25.JPG,AMNE24.JPG,AMSA25.JPG,0,8,8,7,,,,,,,,,,,,,,,,,,,,,,,AMSA06.jpg,AMNE01.jpg,AMNE04.jpg,AMSA20.jpg,AMSA20.jpg,MS,2,num_4,32,num_2,1.466592832,,,2017_Aug_11_1543,59.9946312568,MAFE4ImagesEEG,001,101126,
AMNE23.JPG,AMNE24.JPG,AMNE22.JPG,AMSA24.JPG,AMSA22.JPG,AMSA23.JPG,0,9,9,9,,,,,,,,,,,,,,,,,,,,,,,AMNE19.jpg,AMSA02.jpg,AMNE08.jpg,AMSA19.jpg,AMSA02.jpg,MS,2,num_6,16,num_6,0.966705893166,,,2017_Aug_11_1543,59.9946312568,MAFE4ImagesEEG,001,101126,
AMSA21.JPG,AMNE22.JPG,AMNE21.JPG,AMSA23.JPG,AMSA22.JPG,AMNE23.JPG,,,,,0,0,0,1,,,,,,,,,,,,,,,,,,,AFNE14.jpg,AFSA13.jpg,AFNE03.jpg,AFSA06.jpg,AFSA13.jpg,FS,4,num_6,16,num_6,1.05013905652,,,2017_Aug_11_1543,59.9946312568,MAFE4ImagesEEG,001,101126,
AMSA21.JPG,AMNE23.JPG,AMNE21.JPG,AMSA25.JPG,AMNE25.JPG,AMSA23.JPG,,,,,0,1,1,5,,,,,,,,,,,,,,,,,,,AFNE18.jpg,AFSA10.jpg,AFSA19.jpg,AFNE10.jpg,AFSA19.jpg,FS,4,num_2,32,num_8,1.61673769448,,,2017_Aug_11_1543,59.9946312568,MAFE4ImagesEEG,001,101126,
AFSA25.JPG,AFNE24.JPG,AFSA24.JPG,AFNE21.JPG,AFSA21.JPG,AFNE25.JPG,,,,,0,2,2,2,,,,,,,,,,,,,,,,,,,AFNE01.jpg,AFSA19.jpg,AFSA03.jpg,AFNE02.jpg,AFSA03.jpg,FS,4,num_2,32,num_8,2.54999328032,,,2017_Aug_11_1543,59.9946312568,MAFE4ImagesEEG,001,101126,
AFSA21.JPG,AFNE22.JPG,AFNE21.JPG,AFSA23.JPG,AFSA22.JPG,AFNE23.JPG,,,,,0,3,3,0,,,,,,,,,,,,,,,,,,,AFSA01.jpg,AFNE12.jpg,AFNE01.jpg,AFSA14.jpg,AFSA01.jpg,FS,4,num_8,32,num_6,1.78340003127,,,2017_Aug_11_1543,59.9946312568,MAFE4ImagesEEG,001,101126,
AMSA25.JPG,AMNE24.JPG,AMSA24.JPG,AMNE26.JPG,AMSA21.JPG,AMNE25.JPG,,,,,0,4,4,3,,,,,,,,,,,,,,,,,,,AFSA15.jpg,AFNE20.jpg,AFSA16.jpg,AFNE19.jpg,AFSA16.jpg,FS,4,num_2,16,num_2,1.31670392072,,,2017_Aug_11_1543,59.9946312568,MAFE4ImagesEEG,001,101126,
AFSA21.JPG,AFNE23.JPG,AFNE21.JPG,AFSA25.JPG,AFNE25.JPG,AFSA23.JPG,,,,,0,5,5,4,,,,,,,,,,,,,,,,,,,AFSA11.jpg,AFSA20.jpg,AFNE13.jpg,AFNE15.jpg,AFNE13.jpg,FN,3,num_2,32,num_6,2.66666249698,,,2017_Aug_11_1543,59.9946312568,MAFE4ImagesEEG,001,101126,
AMNE23.JPG,AMNE24.JPG,AMNE22.JPG,AMSA24.JPG,AMSA22.JPG,AMSA23.JPG,,,,,0,6,6,9,,,,,,,,,,,,,,,,,,,AFSA06.jpg,AFNE04.jpg,AFSA19.jpg,AFNE03.jpg,AFNE04.jpg,FN,3,num_6,32,num_8,1.51675498253,,,2017_Aug_11_1543,59.9946312568,MAFE4ImagesEEG,001,101126,
AFNE22.JPG,AFSA24.JPG,AFSA22.JPG,AFNE25.JPG,AFNE24.JPG,AFSA25.JPG,,,,,0,7,7,6,,,,,,,,,,,,,,,,,,,AFSA18.jpg,AFNE02.jpg,AFNE15.jpg,AFSA03.jpg,AFSA03.jpg,FS,4,num_4,32,num_6,2.43361561652,,,2017_Aug_11_1543,59.9946312568,MAFE4ImagesEEG,001,101126,
AMNE22.JPG,AMSA24.JPG,AMSA22.JPG,AMNE25.JPG,AMNE24.JPG,AMSA25.JPG,,,,,0,8,8,7,,,,,,,,,,,,,,,,,,,AFNE16.jpg,AFNE15.jpg,AFSA12.jpg,AFSA09.jpg,AFNE15.jpg,FN,3,num_6,32,num_2,1.10015815729,,,2017_Aug_11_1543,59.9946312568,MAFE4ImagesEEG,001,101126,
AFNE23.JPG,AFNE24.JPG,AFNE22.JPG,AFSA24.JPG,AFSA22.JPG,AFSA23.JPG,,,,,0,9,9,8,,,,,,,,,,,,,,,,,,,AFSA02.jpg,AFSA13.jpg,AFNE19.jpg,AFNE18.jpg,AFSA02.jpg,FS,4,num_8,32,num_6,0.833322267514,,,2017_Aug_11_1543,59.9946312568,MAFE4ImagesEEG,001,101126,
AMSA25.JPG,AMNE24.JPG,AMSA24.JPG,AMNE26.JPG,AMSA21.JPG,AMNE25.JPG,,,,,,,,,0,0,0,3,,,,,,,,,,,,,,,AMSA10.jpg,AMNE12.jpg,AMNE13.jpg,AMSA18.jpg,AMNE13.jpg,MN,1,num_2,32,num_8,1.2500865194,,,2017_Aug_11_1543,59.9946312568,MAFE4ImagesEEG,001,101126,
AMSA21.JPG,AMNE23.JPG,AMNE21.JPG,AMSA25.JPG,AMNE25.JPG,AMSA23.JPG,,,,,,,,,0,1,1,5,,,,,,,,,,,,,,,AMSA03.jpg,AMNE03.jpg,AMNE15.jpg,AMSA16.jpg,AMNE15.jpg,MN,1,num_2,16,num_2,0.78346770769,,,2017_Aug_11_1543,59.9946312568,MAFE4ImagesEEG,001,101126,
AFSA21.JPG,AFNE23.JPG,AFNE21.JPG,AFSA25.JPG,AFNE25.JPG,AFSA23.JPG,,,,,,,,,0,2,2,4,,,,,,,,,,,,,,,AMNE17.jpg,AMSA20.jpg,AMSA19.jpg,AMNE09.jpg,AMSA20.jpg,MS,2,num_6,32,num_2,2.00007569464,,,2017_Aug_11_1543,59.9946312568,MAFE4ImagesEEG,001,101126,
AMNE22.JPG,AMSA24.JPG,AMSA22.JPG,AMNE25.JPG,AMNE24.JPG,AMSA25.JPG,,,,,,,,,0,3,3,7,,,,,,,,,,,,,,,AMSA10.jpg,AMNE18.jpg,AMNE20.jpg,AMSA02.jpg,AMSA02.jpg,MS,2,num_4,16,num_4,1.2334471643,,,2017_Aug_11_1543,59.9946312568,MAFE4ImagesEEG,001,101126,
AMSA21.JPG,AMNE22.JPG,AMNE21.JPG,AMSA23.JPG,AMSA22.JPG,AMNE23.JPG,,,,,,,,,0,4,4,1,,,,,,,,,,,,,,,AMSA18.jpg,AMSA16.jpg,AMNE16.jpg,AMNE13.jpg,AMSA16.jpg,MS,2,num_6,16,num_6,0.78348791413,,,2017_Aug_11_1543,59.9946312568,MAFE4ImagesEEG,001,101126,
AFNE22.JPG,AFSA24.JPG,AFSA22.JPG,AFNE25.JPG,AFNE24.JPG,AFSA25.JPG,,,,,,,,,0,5,5,6,,,,,,,,,,,,,,,AMSA06.jpg,AMNE19.jpg,AMSA14.jpg,AMNE02.jpg,AMNE02.jpg,MN,1,num_4,16,num_4,1.33343083877,,,2017_Aug_11_1543,59.9946312568,MAFE4ImagesEEG,001,101126,
AFSA21.JPG,AFNE22.JPG,AFNE21.JPG,AFSA23.JPG,AFSA22.JPG,AFNE23.JPG,,,,,,,,,0,6,6,0,,,,,,,,,,,,,,,AMSA20.jpg,AMSA03.jpg,AMNE14.jpg,AMNE18.jpg,AMNE18.jpg,MN,1,num_4,16,num_4,0.833441262599,,,2017_Aug_11_1543,59.9946312568,MAFE4ImagesEEG,001,101126,
AFNE23.JPG,AFNE24.JPG,AFNE22.JPG,AFSA24.JPG,AFSA22.JPG,AFSA23.JPG,,,,,,,,,0,7,7,8,,,,,,,,,,,,,,,AMSA02.jpg,AMNE03.jpg,AMSA18.jpg,AMNE13.jpg,AMNE13.jpg,MN,1,num_4,32,num_6,1.6000194368,,,2017_Aug_11_1543,59.9946312568,MAFE4ImagesEEG,001,101126,
AMNE23.JPG,AMNE24.JPG,AMNE22.JPG,AMSA24.JPG,AMSA22.JPG,AMSA23.JPG,,,,,,,,,0,8,8,9,,,,,,,,,,,,,,,AMSA13.jpg,AMNE02.jpg,AMNE06.jpg,AMSA17.jpg,AMSA17.jpg,MS,2,num_4,32,num_6,1.90011671744,,,2017_Aug_11_1543,59.9946312568,MAFE4ImagesEEG,001,101126,
AFSA25.JPG,AFNE24.JPG,AFSA24.JPG,AFNE21.JPG,AFSA21.JPG,AFNE25.JPG,,,,,,,,,0,9,9,2,,,,,,,,,,,,,,,AMNE13.jpg,AMSA15.jpg,AMSA20.jpg,AMNE04.jpg,AMSA20.jpg,MS,2,num_2,32,num_8,1.78340997407,,,2017_Aug_11_1543,59.9946312568,MAFE4ImagesEEG,001,101126,
AMSA21.JPG,AMNE23.JPG,AMNE21.JPG,AMSA25.JPG,AMNE25.JPG,AMSA23.JPG,,,,,,,,,,,,,0,0,0,5,,,,,,,,,,,AFSA09.jpg,AFNE07.jpg,AFSA14.jpg,AFNE19.jpg,AFNE19.jpg,FN,3,num_4,32,num_2,2.44997047586,,,2017_Aug_11_1543,59.9946312568,MAFE4ImagesEEG,001,101126,
AMNE23.JPG,AMNE24.JPG,AMNE22.JPG,AMSA24.JPG,AMSA22.JPG,AMSA23.JPG,,,,,,,,,,,,,0,1,1,9,,,,,,,,,,,AFSA11.jpg,AFSA07.jpg,AFNE20.jpg,AFNE14.jpg,AFSA07.jpg,FS,4,num_6,16,num_6,2.54985215468,,,2017_Aug_11_1543,59.9946312568,MAFE4ImagesEEG,001,101126,
AFSA25.JPG,AFNE24.JPG,AFSA24.JPG,AFNE21.JPG,AFSA21.JPG,AFNE25.JPG,,,,,,,,,,,,,0,2,2,2,,,,,,,,,,,AFNE15.jpg,AFNE17.jpg,AFSA05.jpg,AFSA19.jpg,AFSA19.jpg,FS,4,num_4,32,num_6,1.40006363485,,,2017_Aug_11_1543,59.9946312568,MAFE4ImagesEEG,001,101126,
AFNE23.JPG,AFNE24.JPG,AFNE22.JPG,AFSA24.JPG,AFSA22.JPG,AFSA23.JPG,,,,,,,,,,,,,0,3,3,8,,,,,,,,,,,AFNE09.jpg,AFNE19.jpg,AFSA15.jpg,AFSA10.jpg,AFSA10.jpg,FS,4,num_4,32,num_6,1.45008433843,,,2017_Aug_11_1543,59.9946312568,MAFE4ImagesEEG,001,101126,
AMNE22.JPG,AMSA24.JPG,AMSA22.JPG,AMNE25.JPG,AMNE24.JPG,AMSA25.JPG,,,,,,,,,,,,,0,4,4,7,,,,,,,,,,,AFNE18.jpg,AFSA07.jpg,AFNE13.jpg,AFSA11.jpg,AFNE13.jpg,FN,3,num_2,16,num_2,1.10010523489,,,2017_Aug_11_1543,59.9946312568,MAFE4ImagesEEG,001,101126,
AFSA21.JPG,AFNE22.JPG,AFNE21.JPG,AFSA23.JPG,AFSA22.JPG,AFNE23.JPG,,,,,,,,,,,,,0,5,5,0,,,,,,,,,,,AFSA08.jpg,AFNE19.jpg,AFNE14.jpg,AFSA06.jpg,AFSA08.jpg,FS,4,num_8,32,num_4,2.06670111418,,,2017_Aug_11_1543,59.9946312568,MAFE4ImagesEEG,001,101126,
AMSA21.JPG,AMNE22.JPG,AMNE21.JPG,AMSA23.JPG,AMSA22.JPG,AMNE23.JPG,,,,,,,,,,,,,0,6,6,1,,,,,,,,,,,AFNE10.jpg,AFSA04.jpg,AFNE03.jpg,AFSA10.jpg,AFSA04.jpg,FS,4,num_6,16,num_6,1.21678182855,,,2017_Aug_11_1543,59.9946312568,MAFE4ImagesEEG,001,101126,
AFSA21.JPG,AFNE23.JPG,AFNE21.JPG,AFSA25.JPG,AFNE25.JPG,AFSA23.JPG,,,,,,,,,,,,,0,7,7,4,,,,,,,,,,,AFNE14.jpg,AFNE10.jpg,AFSA20.jpg,AFSA19.jpg,AFSA19.jpg,FS,4,num_4,16,num_4,0.650132834446,,,2017_Aug_11_1543,59.9946312568,MAFE4ImagesEEG,001,101126,
AFNE22.JPG,AFSA24.JPG,AFSA22.JPG,AFNE25.JPG,AFNE24.JPG,AFSA25.JPG,,,,,,,,,,,,,0,8,8,6,,,,,,,,,,,AFSA19.jpg,AFNE20.jpg,AFNE05.jpg,AFSA09.jpg,AFNE05.jpg,FN,3,num_2,32,num_6,1.550063523,,,2017_Aug_11_1543,59.9946312568,MAFE4ImagesEEG,001,101126,
AMSA25.JPG,AMNE24.JPG,AMSA24.JPG,AMNE26.JPG,AMSA21.JPG,AMNE25.JPG,,,,,,,,,,,,,0,9,9,3,,,,,,,,,,,AFSA06.jpg,AFNE13.jpg,AFNE08.jpg,AFSA05.jpg,AFSA06.jpg,FS,4,num_8,32,num_4,2.69995660381,,,2017_Aug_11_1543,59.9946312568,MAFE4ImagesEEG,001,101126,
AFNE23.JPG,AFNE24.JPG,AFNE22.JPG,AFSA24.JPG,AFSA22.JPG,AFSA23.JPG,,,,,,,,,,,,,,,,,0,0,0,8,,,,,,,AMNE04.jpg,AMNE14.jpg,AMSA07.jpg,AMSA09.jpg,AMSA09.jpg,MS,2,num_4,32,num_2,2.15003260318,,,2017_Aug_11_1543,59.9946312568,MAFE4ImagesEEG,001,101126,
AMNE22.JPG,AMSA24.JPG,AMSA22.JPG,AMNE25.JPG,AMNE24.JPG,AMSA25.JPG,,,,,,,,,,,,,,,,,0,1,1,7,,,,,,,AMNE11.jpg,AMNE01.jpg,AMSA11.jpg,AMSA02.jpg,AMSA02.jpg,MS,2,num_4,32,num_8,1.95002099266,,,2017_Aug_11_1543,59.9946312568,MAFE4ImagesEEG,001,101126,
AFSA21.JPG,AFNE22.JPG,AFNE21.JPG,AFSA23.JPG,AFSA22.JPG,AFNE23.JPG,,,,,,,,,,,,,,,,,0,2,2,0,,,,,,,AMSA17.jpg,AMNE02.jpg,AMSA05.jpg,AMNE16.jpg,AMNE02.jpg,MN,1,num_6,16,num_6,1.06673960295,,,2017_Aug_11_1543,59.9946312568,MAFE4ImagesEEG,001,101126,
AMSA25.JPG,AMNE24.JPG,AMSA24.JPG,AMNE26.JPG,AMSA21.JPG,AMNE25.JPG,,,,,,,,,,,,,,,,,0,3,3,3,,,,,,,AMNE06.jpg,AMSA11.jpg,AMSA03.jpg,AMNE17.jpg,AMSA11.jpg,MS,2,num_6,32,num_2,1.01673012506,,,2017_Aug_11_1543,59.9946312568,MAFE4ImagesEEG,001,101126,
AMNE23.JPG,AMNE24.JPG,AMNE22.JPG,AMSA24.JPG,AMSA22.JPG,AMSA23.JPG,,,,,,,,,,,,,,,,,0,4,4,9,,,,,,,AMSA04.jpg,AMNE13.jpg,AMNE18.jpg,AMSA11.jpg,AMSA11.jpg,MS,2,num_4,32,num_8,0.900132433511,,,2017_Aug_11_1543,59.9946312568,MAFE4ImagesEEG,001,101126,
AFSA25.JPG,AFNE24.JPG,AFSA24.JPG,AFNE21.JPG,AFSA21.JPG,AFNE25.JPG,,,,,,,,,,,,,,,,,0,5,5,2,,,,,,,AMSA19.jpg,AMNE10.jpg,AMNE01.jpg,AMSA11.jpg,AMSA19.jpg,MS,2,num_8,32,num_4,1.96668921458,,,2017_Aug_11_1543,59.9946312568,MAFE4ImagesEEG,001,101126,
AFNE22.JPG,AFSA24.JPG,AFSA22.JPG,AFNE25.JPG,AFNE24.JPG,AFSA25.JPG,,,,,,,,,,,,,,,,,0,6,6,6,,,,,,,AMSA04.jpg,AMNE17.jpg,AMSA05.jpg,AMNE13.jpg,AMNE13.jpg,MN,1,num_4,32,num_6,1.10011678142,,,2017_Aug_11_1543,59.9946312568,MAFE4ImagesEEG,001,101126,
AMSA21.JPG,AMNE22.JPG,AMNE21.JPG,AMSA23.JPG,AMSA22.JPG,AMNE23.JPG,,,,,,,,,,,,,,,,,0,7,7,1,,,,,,,AMNE03.jpg,AMSA13.jpg,AMSA20.jpg,AMNE08.jpg,AMSA20.jpg,MS,2,num_2,32,num_8,2.23363832524,,,2017_Aug_11_1543,59.9946312568,MAFE4ImagesEEG,001,101126,
AMSA21.JPG,AMNE23.JPG,AMNE21.JPG,AMSA25.JPG,AMNE25.JPG,AMSA23.JPG,,,,,,,,,,,,,,,,,0,8,8,5,,,,,,,AMSA16.jpg,AMNE03.jpg,AMNE11.jpg,AMSA04.jpg,AMSA04.jpg,MS,2,num_4,16,num_4,0.81675636163,,,2017_Aug_11_1543,59.9946312568,MAFE4ImagesEEG,001,101126,
AFSA21.JPG,AFNE23.JPG,AFNE21.JPG,AFSA25.JPG,AFNE25.JPG,AFSA23.JPG,,,,,,,,,,,,,,,,,0,9,9,4,,,,,,,AMNE17.jpg,AMSA03.jpg,AMSA04.jpg,AMNE13.jpg,AMNE17.jpg,MN,1,num_8,32,num_6,1.75012452761,,,2017_Aug_11_1543,59.9946312568,MAFE4ImagesEEG,001,101126,
AMSA21.JPG,AMNE22.JPG,AMNE21.JPG,AMSA23.JPG,AMSA22.JPG,AMNE23.JPG,,,,,,,,,,,,,,,,,,,,,0,0,0,1,,,AFSA10.jpg,AFSA15.jpg,AFNE20.jpg,AFNE13.jpg,AFSA15.jpg,FS,4,num_6,16,num_6,1.30011235503,,,2017_Aug_11_1543,59.9946312568,MAFE4ImagesEEG,001,101126,
AFNE22.JPG,AFSA24.JPG,AFSA22.JPG,AFNE25.JPG,AFNE24.JPG,AFSA25.JPG,,,,,,,,,,,,,,,,,,,,,0,1,1,6,,,AFNE16.jpg,AFNE10.jpg,AFSA05.jpg,AFSA19.jpg,AFSA05.jpg,FS,4,num_2,32,num_4,1.05007875757,,,2017_Aug_11_1543,59.9946312568,MAFE4ImagesEEG,001,101126,
AFNE23.JPG,AFNE24.JPG,AFNE22.JPG,AFSA24.JPG,AFSA22.JPG,AFSA23.JPG,,,,,,,,,,,,,,,,,,,,,0,2,2,8,,,AFNE04.jpg,AFSA13.jpg,AFNE15.jpg,AFSA01.jpg,AFSA13.jpg,FS,4,num_6,16,num_6,1.5000575725,,,2017_Aug_11_1543,59.9946312568,MAFE4ImagesEEG,001,101126,
AMSA21.JPG,AMNE23.JPG,AMNE21.JPG,AMSA25.JPG,AMNE25.JPG,AMSA23.JPG,,,,,,,,,,,,,,,,,,,,,0,3,3,5,,,AFSA02.jpg,AFSA13.jpg,AFNE01.jpg,AFNE20.jpg,AFNE01.jpg,FN,3,num_2,16,num_2,1.33336861478,,,2017_Aug_11_1543,59.9946312568,MAFE4ImagesEEG,001,101126,
AFSA25.JPG,AFNE24.JPG,AFSA24.JPG,AFNE21.JPG,AFSA21.JPG,AFNE25.JPG,,,,,,,,,,,,,,,,,,,,,0,4,4,2,,,AFNE16.jpg,AFNE19.jpg,AFSA20.jpg,AFSA06.jpg,AFSA20.jpg,FS,4,num_2,32,num_8,1.35005672323,,,2017_Aug_11_1543,59.9946312568,MAFE4ImagesEEG,001,101126,
AMNE22.JPG,AMSA24.JPG,AMSA22.JPG,AMNE25.JPG,AMNE24.JPG,AMSA25.JPG,,,,,,,,,,,,,,,,,,,,,0,5,5,7,,,AFNE05.jpg,AFNE18.jpg,AFSA20.jpg,AFSA15.jpg,AFSA15.jpg,FS,4,num_4,16,num_4,0.650136362761,,,2017_Aug_11_1543,59.9946312568,MAFE4ImagesEEG,001,101126,
AFSA21.JPG,AFNE23.JPG,AFNE21.JPG,AFSA25.JPG,AFNE25.JPG,AFSA23.JPG,,,,,,,,,,,,,,,,,,,,,0,6,6,4,,,AFNE03.jpg,AFNE02.jpg,AFSA09.jpg,AFSA18.jpg,AFSA09.jpg,FS,4,num_2,32,num_4,0.816763417795,,,2017_Aug_11_1543,59.9946312568,MAFE4ImagesEEG,001,101126,
AFSA21.JPG,AFNE22.JPG,AFNE21.JPG,AFSA23.JPG,AFSA22.JPG,AFNE23.JPG,,,,,,,,,,,,,,,,,,,,,0,7,7,0,,,AFSA09.jpg,AFNE04.jpg,AFSA08.jpg,AFNE17.jpg,AFNE17.jpg,FN,3,num_4,32,num_8,1.38380082836,,,2017_Aug_11_1543,59.9946312568,MAFE4ImagesEEG,001,101126,
AMNE23.JPG,AMNE24.JPG,AMNE22.JPG,AMSA24.JPG,AMSA22.JPG,AMSA23.JPG,,,,,,,,,,,,,,,,,,,,,0,8,8,9,,,AFSA05.jpg,AFSA20.jpg,AFNE19.jpg,AFNE04.jpg,AFNE04.jpg,FN,3,num_4,32,num_2,1.46669194102,,,2017_Aug_11_1543,59.9946312568,MAFE4ImagesEEG,001,101126,
AMSA25.JPG,AMNE24.JPG,AMSA24.JPG,AMNE26.JPG,AMSA21.JPG,AMNE25.JPG,,,,,,,,,,,,,,,,,,,,,0,9,9,3,,,AFNE07.jpg,AFNE17.jpg,AFSA06.jpg,AFSA01.jpg,AFSA01.jpg,FS,4,num_4,32,num_8,2.35000797035,,,2017_Aug_11_1543,59.9946312568,MAFE4ImagesEEG,001,101126,
,,,,,,,,,,,,,,,,,,,,,,,,,,,,,,,,,,,,,,,,,,,space,10.1994143929,2017_Aug_11_1543,59.9946312568,MAFE4ImagesEEG,001,101126,
AFNE01.JPG,AFNE01.JPG,AFNE01.JPG,AFNE01.JPG,AFNE01.JPG,AFNE01.JPG,0,0,0,1,,,,,,,,,,,,,,,,,,,,,,,AMSA12.jpg,AMNE17.jpg,AMSA04.jpg,AMNE06.jpg,AMNE17.jpg,MN,1,num_6,16,num_6,1.1501015625,,,2017_Aug_11_1543,59.9946312568,MAFE4ImagesEEG,001,101126,
AFNE01.JPG,AFNE01.JPG,AFNE01.JPG,AFNE01.JPG,AFNE01.JPG,AFNE01.JPG,0,1,1,6,,,,,,,,,,,,,,,,,,,,,,,AMNE04.jpg,AMSA15.jpg,AMSA07.jpg,AMNE12.jpg,AMSA07.jpg,MS,2,num_2,16,num_2,0.849993697368,,,2017_Aug_11_1543,59.9946312568,MAFE4ImagesEEG,001,101126,
AFNE01.JPG,AFNE01.JPG,AFNE01.JPG,AFNE01.JPG,AFNE01.JPG,AFNE01.JPG,0,2,2,9,,,,,,,,,,,,,,,,,,,,,,,AMNE19.jpg,AMNE16.jpg,AMSA08.jpg,AMSA10.jpg,AMNE16.jpg,MN,1,num_6,16,num_6,2.34999257512,,,2017_Aug_11_1543,59.9946312568,MAFE4ImagesEEG,001,101126,
AFNE01.JPG,AFNE01.JPG,AFNE01.JPG,AFNE01.JPG,AFNE01.JPG,AFNE01.JPG,0,3,3,5,,,,,,,,,,,,,,,,,,,,,,,AMNE14.jpg,AMSA05.jpg,AMNE01.jpg,AMSA18.jpg,AMNE01.jpg,MN,1,num_2,32,num_8,0.966749834362,,,2017_Aug_11_1543,59.9946312568,MAFE4ImagesEEG,001,101126,
AFNE01.JPG,AFNE01.JPG,AFNE01.JPG,AFNE01.JPG,AFNE01.JPG,AFNE01.JPG,0,4,4,4,,,,,,,,,,,,,,,,,,,,,,,AMSA11.jpg,AMNE09.jpg,AMNE14.jpg,AMSA03.jpg,AMSA03.jpg,MS,2,num_4,32,num_8,0.96675464604,,,2017_Aug_11_1543,59.9946312568,MAFE4ImagesEEG,001,101126,
AFNE01.JPG,AFNE01.JPG,AFNE01.JPG,AFNE01.JPG,AFNE01.JPG,AFNE01.JPG,0,5,5,8,,,,,,,,,,,,,,,,,,,,,,,AMSA13.jpg,AMSA17.jpg,AMNE19.jpg,AMNE10.jpg,AMNE19.jpg,MN,1,num_2,32,num_4,0.833323230036,,,2017_Aug_11_1543,59.9946312568,MAFE4ImagesEEG,001,101126,
AFNE01.JPG,AFNE01.JPG,AFNE01.JPG,AFNE01.JPG,AFNE01.JPG,AFNE01.JPG,0,6,6,3,,,,,,,,,,,,,,,,,,,,,,,AMNE08.jpg,AMNE14.jpg,AMSA06.jpg,AMSA15.jpg,AMSA15.jpg,MS,2,num_4,32,num_6,1.75006743567,,,2017_Aug_11_1543,59.9946312568,MAFE4ImagesEEG,001,101126,
AFNE01.JPG,AFNE01.JPG,AFNE01.JPG,AFNE01.JPG,AFNE01.JPG,AFNE01.JPG,0,7,7,0,,,,,,,,,,,,,,,,,,,,,,,AMNE06.jpg,AMNE02.jpg,AMSA06.jpg,AMSA15.jpg,AMSA15.jpg,MS,2,num_4,16,num_4,0.750120999292,,,2017_Aug_11_1543,59.9946312568,MAFE4ImagesEEG,001,101126,
AFNE01.JPG,AFNE01.JPG,AFNE01.JPG,AFNE01.JPG,AFNE01.JPG,AFNE01.JPG,0,8,8,7,,,,,,,,,,,,,,,,,,,,,,,AMNE18.jpg,AMNE05.jpg,AMSA01.jpg,AMSA10.jpg,AMNE05.jpg,MN,1,num_6,16,num_6,0.883440797217,,,2017_Aug_11_1543,59.9946312568,MAFE4ImagesEEG,001,101126,
AFNE01.JPG,AFNE01.JPG,AFNE01.JPG,AFNE01.JPG,AFNE01.JPG,AFNE01.JPG,0,9,9,2,,,,,,,,,,,,,,,,,,,,,,,AMNE10.jpg,AMNE14.jpg,AMSA01.jpg,AMSA20.jpg,AMNE10.jpg,MN,1,num_8,16,num_8,1.050095757,,,2017_Aug_11_1543,59.9946312568,MAFE4ImagesEEG,001,101126,
AFNE01.JPG,AFNE01.JPG,AFNE01.JPG,AFNE01.JPG,AFNE01.JPG,AFNE01.JPG,1,0,10,2,,,,,,,,,,,,,,,,,,,,,,,AMSA04.jpg,AMSA13.jpg,AMNE12.jpg,AMNE14.jpg,AMSA04.jpg,MS,2,num_8,32,num_6,1.23354755575,,,2017_Aug_11_1543,59.9946312568,MAFE4ImagesEEG,001,101126,
AFNE01.JPG,AFNE01.JPG,AFNE01.JPG,AFNE01.JPG,AFNE01.JPG,AFNE01.JPG,1,1,11,7,,,,,,,,,,,,,,,,,,,,,,,AMSA20.jpg,AMNE12.jpg,AMSA04.jpg,AMNE10.jpg,AMSA04.jpg,MS,2,num_2,32,num_8,0.916734904051,,,2017_Aug_11_1543,59.9946312568,MAFE4ImagesEEG,001,101126,
AFNE01.JPG,AFNE01.JPG,AFNE01.JPG,AFNE01.JPG,AFNE01.JPG,AFNE01.JPG,1,2,12,3,,,,,,,,,,,,,,,,,,,,,,,AMSA08.jpg,AMNE09.jpg,AMNE14.jpg,AMSA18.jpg,AMNE14.jpg,MN,1,num_2,16,num_2,2.98328334605,,,2017_Aug_11_1543,59.9946312568,MAFE4ImagesEEG,001,101126,
AFNE01.JPG,AFNE01.JPG,AFNE01.JPG,AFNE01.JPG,AFNE01.JPG,AFNE01.JPG,1,3,13,1,,,,,,,,,,,,,,,,,,,,,,,AMSA10.jpg,AMSA13.jpg,AMNE15.jpg,AMNE18.jpg,AMNE15.jpg,MN,1,num_2,32,num_8,0.999822631013,,,2017_Aug_11_1543,59.9946312568,MAFE4ImagesEEG,001,101126,
AFNE01.JPG,AFNE01.JPG,AFNE01.JPG,AFNE01.JPG,AFNE01.JPG,AFNE01.JPG,1,4,14,9,,,,,,,,,,,,,,,,,,,,,,,AMNE19.jpg,AMSA04.jpg,AMNE03.jpg,AMSA13.jpg,AMNE03.jpg,MN,1,num_2,32,num_8,0.966760739684,,,2017_Aug_11_1543,59.9946312568,MAFE4ImagesEEG,001,101126,
AFNE01.JPG,AFNE01.JPG,AFNE01.JPG,AFNE01.JPG,AFNE01.JPG,AFNE01.JPG,1,5,15,4,,,,,,,,,,,,,,,,,,,,,,,AMSA14.jpg,AMNE17.jpg,AMSA12.jpg,AMNE05.jpg,AMSA14.jpg,MS,2,num_8,32,num_2,1.50009638257,,,2017_Aug_11_1543,59.9946312568,MAFE4ImagesEEG,001,101126,
AFNE01.JPG,AFNE01.JPG,AFNE01.JPG,AFNE01.JPG,AFNE01.JPG,AFNE01.JPG,1,6,16,5,,,,,,,,,,,,,,,,,,,,,,,AMNE01.jpg,AMSA18.jpg,AMNE10.jpg,AMSA07.jpg,AMSA07.jpg,MS,2,num_4,32,num_6,1.88335387688,,,2017_Aug_11_1543,59.9946312568,MAFE4ImagesEEG,001,101126,
AFNE01.JPG,AFNE01.JPG,AFNE01.JPG,AFNE01.JPG,AFNE01.JPG,AFNE01.JPG,1,7,17,8,,,,,,,,,,,,,,,,,,,,,,,AMSA09.jpg,AMNE05.jpg,AMSA11.jpg,AMNE04.jpg,AMSA09.jpg,MS,2,num_8,32,num_4,2.78330124356,,,2017_Aug_11_1543,59.9946312568,MAFE4ImagesEEG,001,101126,
AFNE01.JPG,AFNE01.JPG,AFNE01.JPG,AFNE01.JPG,AFNE01.JPG,AFNE01.JPG,1,8,18,0,,,,,,,,,,,,,,,,,,,,,,,AMNE06.jpg,AMNE14.jpg,AMSA07.jpg,AMSA01.jpg,AMSA07.jpg,MS,2,num_2,32,num_4,1.28330845991,,,2017_Aug_11_1543,59.9946312568,MAFE4ImagesEEG,001,101126,
AFNE01.JPG,AFNE01.JPG,AFNE01.JPG,AFNE01.JPG,AFNE01.JPG,AFNE01.JPG,1,9,19,6,,,,,,,,,,,,,,,,,,,,,,,AMNE08.jpg,AMSA14.jpg,AMSA10.jpg,AMNE19.jpg,AMNE19.jpg,MN,1,num_4,32,num_2,0.9667187226,,,2017_Aug_11_1543,59.9946312568,MAFE4ImagesEEG,001,101126,
AFNE01.JPG,AFNE01.JPG,AFNE01.JPG,AFNE01.JPG,AFNE01.JPG,AFNE01.JPG,2,0,20,3,,,,,,,,,,,,,,,,,,,,,,,AMSA10.jpg,AMSA18.jpg,AMNE13.jpg,AMNE07.jpg,AMSA10.jpg,MS,2,num_8,32,num_6,0.650145343505,,,2017_Aug_11_1543,59.9946312568,MAFE4ImagesEEG,001,101126,
AFNE01.JPG,AFNE01.JPG,AFNE01.JPG,AFNE01.JPG,AFNE01.JPG,AFNE01.JPG,2,1,21,2,,,,,,,,,,,,,,,,,,,,,,,AMNE15.jpg,AMSA19.jpg,AMNE02.jpg,AMSA09.jpg,AMSA19.jpg,MS,2,num_6,16,num_6,0.666770265438,,,2017_Aug_11_1543,59.9946312568,MAFE4ImagesEEG,001,101126,
AFNE01.JPG,AFNE01.JPG,AFNE01.JPG,AFNE01.JPG,AFNE01.JPG,AFNE01.JPG,2,2,22,6,,,,,,,,,,,,,,,,,,,,,,,AMNE07.jpg,AMSA03.jpg,AMSA17.jpg,AMNE14.jpg,AMNE07.jpg,MN,1,num_8,16,num_8,1.45004488761,,,2017_Aug_11_1543,59.9946312568,MAFE4ImagesEEG,001,101126,
AFNE01.JPG,AFNE01.JPG,AFNE01.JPG,AFNE01.JPG,AFNE01.JPG,AFNE01.JPG,2,3,23,7,,,,,,,,,,,,,,,,,,,,,,,AMNE09.jpg,AMSA08.jpg,AMSA17.jpg,AMNE03.jpg,AMNE03.jpg,MN,1,num_4,32,num_8,1.20007992862,,,2017_Aug_11_1543,59.9946312568,MAFE4ImagesEEG,001,101126,
AFNE01.JPG,AFNE01.JPG,AFNE01.JPG,AFNE01.JPG,AFNE01.JPG,AFNE01.JPG,2,4,24,4,,,,,,,,,,,,,,,,,,,,,,,AMSA03.jpg,AMNE17.jpg,AMSA11.jpg,AMNE16.jpg,AMSA11.jpg,MS,2,num_2,16,num_2,0.86674338812,,,2017_Aug_11_1543,59.9946312568,MAFE4ImagesEEG,001,101126,
AFNE01.JPG,AFNE01.JPG,AFNE01.JPG,AFNE01.JPG,AFNE01.JPG,AFNE01.JPG,2,5,25,0,,,,,,,,,,,,,,,,,,,,,,,AMNE10.jpg,AMNE20.jpg,AMSA20.jpg,AMSA06.jpg,AMNE10.jpg,MN,1,num_8,16,num_8,1.28343130369,,,2017_Aug_11_1543,59.9946312568,MAFE4ImagesEEG,001,101126,
AFNE01.JPG,AFNE01.JPG,AFNE01.JPG,AFNE01.JPG,AFNE01.JPG,AFNE01.JPG,2,6,26,8,,,,,,,,,,,,,,,,,,,,,,,AMSA05.jpg,AMNE14.jpg,AMSA17.jpg,AMNE19.jpg,AMNE14.jpg,MN,1,num_6,16,num_6,1.28345792508,,,2017_Aug_11_1543,59.9946312568,MAFE4ImagesEEG,001,101126,
AFNE01.JPG,AFNE01.JPG,AFNE01.JPG,AFNE01.JPG,AFNE01.JPG,AFNE01.JPG,2,7,27,5,,,,,,,,,,,,,,,,,,,,,,,AMSA11.jpg,AMSA08.jpg,AMNE09.jpg,AMNE06.jpg,AMNE06.jpg,MN,1,num_4,32,num_6,1.11672053486,,,2017_Aug_11_1543,59.9946312568,MAFE4ImagesEEG,001,101126,
AFNE01.JPG,AFNE01.JPG,AFNE01.JPG,AFNE01.JPG,AFNE01.JPG,AFNE01.JPG,2,8,28,9,,,,,,,,,,,,,,,,,,,,,,,AMNE06.jpg,AMNE13.jpg,AMSA02.jpg,AMSA18.jpg,AMNE13.jpg,MN,1,num_6,32,num_8,1.66673851246,,,2017_Aug_11_1543,59.9946312568,MAFE4ImagesEEG,001,101126,
AFNE01.JPG,AFNE01.JPG,AFNE01.JPG,AFNE01.JPG,AFNE01.JPG,AFNE01.JPG,2,9,29,1,,,,,,,,,,,,,,,,,,,,,,,AMNE12.jpg,AMSA15.jpg,AMSA19.jpg,AMNE07.jpg,AMNE12.jpg,MN,1,num_8,32,num_6,0.966742457356,,,2017_Aug_11_1543,59.9946312568,MAFE4ImagesEEG,001,101126,
AFNE01.JPG,AFNE01.JPG,AFNE01.JPG,AFNE01.JPG,AFNE01.JPG,AFNE01.JPG,3,0,30,2,,,,,,,,,,,,,,,,,,,,,,,AMSA04.jpg,AMSA03.jpg,AMNE08.jpg,AMNE07.jpg,AMNE08.jpg,MN,1,num_2,32,num_8,2.46665954636,,,2017_Aug_11_1543,59.9946312568,MAFE4ImagesEEG,001,101126,
AFNE01.JPG,AFNE01.JPG,AFNE01.JPG,AFNE01.JPG,AFNE01.JPG,AFNE01.JPG,3,1,31,6,,,,,,,,,,,,,,,,,,,,,,,AMNE14.jpg,AMNE06.jpg,AMSA20.jpg,AMSA06.jpg,AMSA06.jpg,MS,2,num_4,32,num_8,1.0001395219,,,2017_Aug_11_1543,59.9946312568,MAFE4ImagesEEG,001,101126,
AFNE01.JPG,AFNE01.JPG,AFNE01.JPG,AFNE01.JPG,AFNE01.JPG,AFNE01.JPG,3,2,32,1,,,,,,,,,,,,,,,,,,,,,,,AMSA07.jpg,AMSA20.jpg,AMNE05.jpg,AMNE13.jpg,AMNE13.jpg,MN,1,num_4,16,num_4,0.783510045148,,,2017_Aug_11_1543,59.9946312568,MAFE4ImagesEEG,001,101126,
AFNE01.JPG,AFNE01.JPG,AFNE01.JPG,AFNE01.JPG,AFNE01.JPG,AFNE01.JPG,3,3,33,0,,,,,,,,,,,,,,,,,,,,,,,AMNE07.jpg,AMSA03.jpg,AMNE03.jpg,AMSA11.jpg,AMNE07.jpg,MN,1,num_8,32,num_6,0.966780304909,,,2017_Aug_11_1543,59.9946312568,MAFE4ImagesEEG,001,101126,
AFNE01.JPG,AFNE01.JPG,AFNE01.JPG,AFNE01.JPG,AFNE01.JPG,AFNE01.JPG,3,4,34,3,,,,,,,,,,,,,,,,,,,,,,,AMSA20.jpg,AMNE01.jpg,AMNE16.jpg,AMSA18.jpg,AMSA18.jpg,MS,2,num_4,16,num_4,0.750109773595,,,2017_Aug_11_1543,59.9946312568,MAFE4ImagesEEG,001,101126,
AFNE01.JPG,AFNE01.JPG,AFNE01.JPG,AFNE01.JPG,AFNE01.JPG,AFNE01.JPG,3,5,35,8,,,,,,,,,,,,,,,,,,,,,,,AMNE01.jpg,AMNE12.jpg,AMSA16.jpg,AMSA17.jpg,AMSA17.jpg,MS,2,num_4,32,num_6,1.65007798793,,,2017_Aug_11_1543,59.9946312568,MAFE4ImagesEEG,001,101126,
AFNE01.JPG,AFNE01.JPG,AFNE01.JPG,AFNE01.JPG,AFNE01.JPG,AFNE01.JPG,3,6,36,7,,,,,,,,,,,,,,,,,,,,,,,AMSA02.jpg,AMNE16.jpg,AMNE19.jpg,AMSA11.jpg,AMSA11.jpg,MS,2,num_4,32,num_6,1.63339084247,,,2017_Aug_11_1543,59.9946312568,MAFE4ImagesEEG,001,101126,
AFNE01.JPG,AFNE01.JPG,AFNE01.JPG,AFNE01.JPG,AFNE01.JPG,AFNE01.JPG,3,7,37,5,,,,,,,,,,,,,,,,,,,,,,,AMSA06.jpg,AMNE12.jpg,AMNE18.jpg,AMSA12.jpg,AMSA06.jpg,MS,2,num_8,16,num_8,2.01669933414,,,2017_Aug_11_1543,59.9946312568,MAFE4ImagesEEG,001,101126,
AFNE01.JPG,AFNE01.JPG,AFNE01.JPG,AFNE01.JPG,AFNE01.JPG,AFNE01.JPG,3,8,38,4,,,,,,,,,,,,,,,,,,,,,,,AMSA14.jpg,AMNE06.jpg,AMNE02.jpg,AMSA04.jpg,AMSA04.jpg,MS,2,num_4,16,num_4,0.600186221767,,,2017_Aug_11_1543,59.9946312568,MAFE4ImagesEEG,001,101126,
AFNE01.JPG,AFNE01.JPG,AFNE01.JPG,AFNE01.JPG,AFNE01.JPG,AFNE01.JPG,3,9,39,9,,,,,,,,,,,,,,,,,,,,,,,AMNE12.jpg,AMSA03.jpg,AMNE07.jpg,AMSA02.jpg,AMSA03.jpg,MS,2,num_6,16,num_6,0.466776936781,,,2017_Aug_11_1543,59.9946312568,MAFE4ImagesEEG,001,101126,
AFNE01.JPG,AFNE01.JPG,AFNE01.JPG,AFNE01.JPG,AFNE01.JPG,AFNE01.JPG,4,0,40,6,,,,,,,,,,,,,,,,,,,,,,,AMNE20.jpg,AMSA20.jpg,AMSA19.jpg,AMNE06.jpg,AMNE20.jpg,MN,1,num_8,16,num_8,1.05008485215,,,2017_Aug_11_1543,59.9946312568,MAFE4ImagesEEG,001,101126,
AFNE01.JPG,AFNE01.JPG,AFNE01.JPG,AFNE01.JPG,AFNE01.JPG,AFNE01.JPG,4,1,41,1,,,,,,,,,,,,,,,,,,,,,,,AMNE08.jpg,AMSA02.jpg,AMSA13.jpg,AMNE18.jpg,AMSA02.jpg,MS,2,num_6,16,num_6,1.4167578374,,,2017_Aug_11_1543,59.9946312568,MAFE4ImagesEEG,001,101126,
AFNE01.JPG,AFNE01.JPG,AFNE01.JPG,AFNE01.JPG,AFNE01.JPG,AFNE01.JPG,4,2,42,4,,,,,,,,,,,,,,,,,,,,,,,AMNE15.jpg,AMSA02.jpg,AMSA19.jpg,AMNE01.jpg,AMSA02.jpg,MS,2,num_6,16,num_6,0.983434735332,,,2017_Aug_11_1543,59.9946312568,MAFE4ImagesEEG,001,101126,
AFNE01.JPG,AFNE01.JPG,AFNE01.JPG,AFNE01.JPG,AFNE01.JPG,AFNE01.JPG,4,3,43,7,,,,,,,,,,,,,,,,,,,,,,,AMNE12.jpg,AMNE17.jpg,AMSA02.jpg,AMSA09.jpg,AMNE12.jpg,MN,1,num_8,16,num_8,1.98334107921,,,2017_Aug_11_1543,59.9946312568,MAFE4ImagesEEG,001,101126,
AFNE01.JPG,AFNE01.JPG,AFNE01.JPG,AFNE01.JPG,AFNE01.JPG,AFNE01.JPG,4,4,44,3,,,,,,,,,,,,,,,,,,,,,,,AMSA02.jpg,AMNE07.jpg,AMNE04.jpg,AMSA10.jpg,AMNE04.jpg,MN,1,num_2,16,num_2,1.46673010895,,,2017_Aug_11_1543,59.9946312568,MAFE4ImagesEEG,001,101126,
AFNE01.JPG,AFNE01.JPG,AFNE01.JPG,AFNE01.JPG,AFNE01.JPG,AFNE01.JPG,4,5,45,0,,,,,,,,,,,,,,,,,,,,,,,AMNE07.jpg,AMSA06.jpg,AMSA03.jpg,AMNE04.jpg,AMNE04.jpg,MN,1,num_4,16,num_4,0.866796951275,,,2017_Aug_11_1543,59.9946312568,MAFE4ImagesEEG,001,101126,
AFNE01.JPG,AFNE01.JPG,AFNE01.JPG,AFNE01.JPG,AFNE01.JPG,AFNE01.JPG,4,6,46,8,,,,,,,,,,,,,,,,,,,,,,,AMSA09.jpg,AMNE11.jpg,AMNE18.jpg,AMSA03.jpg,AMNE18.jpg,MN,1,num_2,16,num_2,0.933422370814,,,2017_Aug_11_1543,59.9946312568,MAFE4ImagesEEG,001,101126,
AFNE01.JPG,AFNE01.JPG,AFNE01.JPG,AFNE01.JPG,AFNE01.JPG,AFNE01.JPG,4,7,47,9,,,,,,,,,,,,,,,,,,,,,,,AMNE11.jpg,AMSA17.jpg,AMSA07.jpg,AMNE04.jpg,AMSA17.jpg,MS,2,num_6,16,num_6,0.550135047641,,,2017_Aug_11_1543,59.9946312568,MAFE4ImagesEEG,001,101126,
AFNE01.JPG,AFNE01.JPG,AFNE01.JPG,AFNE01.JPG,AFNE01.JPG,AFNE01.JPG,4,8,48,5,,,,,,,,,,,,,,,,,,,,,,,AMNE10.jpg,AMSA01.jpg,AMNE07.jpg,AMSA05.jpg,AMNE10.jpg,MN,1,num_8,16,num_8,0.966609350406,,,2017_Aug_11_1543,59.9946312568,MAFE4ImagesEEG,001,101126,
AFNE01.JPG,AFNE01.JPG,AFNE01.JPG,AFNE01.JPG,AFNE01.JPG,AFNE01.JPG,4,9,49,2,,,,,,,,,,,,,,,,,,,,,,,AMNE03.jpg,AMSA16.jpg,AMNE05.jpg,AMSA07.jpg,AMNE05.jpg,MN,1,num_2,16,num_2,1.50008002482,,,2017_Aug_11_1543,59.9946312568,MAFE4ImagesEEG,001,101126,
AFNE01.JPG,AFNE01.JPG,AFNE01.JPG,AFNE01.JPG,AFNE01.JPG,AFNE01.JPG,5,0,50,7,,,,,,,,,,,,,,,,,,,,,,,AMNE01.jpg,AMNE09.jpg,AMSA06.jpg,AMSA08.jpg,AMNE09.jpg,MN,1,num_6,32,num_8,0.633439915255,,,2017_Aug_11_1543,59.9946312568,MAFE4ImagesEEG,001,101126,
AFNE01.JPG,AFNE01.JPG,AFNE01.JPG,AFNE01.JPG,AFNE01.JPG,AFNE01.JPG,5,1,51,2,,,,,,,,,,,,,,,,,,,,,,,AMNE09.jpg,AMSA06.jpg,AMSA15.jpg,AMNE17.jpg,AMNE09.jpg,MN,1,num_8,16,num_8,0.916763770394,,,2017_Aug_11_1543,59.9946312568,MAFE4ImagesEEG,001,101126,
AFNE01.JPG,AFNE01.JPG,AFNE01.JPG,AFNE01.JPG,AFNE01.JPG,AFNE01.JPG,5,2,52,4,,,,,,,,,,,,,,,,,,,,,,,AMSA04.jpg,AMNE15.jpg,AMNE03.jpg,AMSA12.jpg,AMSA12.jpg,MS,2,num_4,32,num_8,0.866745312233,,,2017_Aug_11_1543,59.9946312568,MAFE4ImagesEEG,001,101126,
AFNE01.JPG,AFNE01.JPG,AFNE01.JPG,AFNE01.JPG,AFNE01.JPG,AFNE01.JPG,5,3,53,0,,,,,,,,,,,,,,,,,,,,,,,AMNE11.jpg,AMNE12.jpg,AMSA05.jpg,AMSA18.jpg,AMSA18.jpg,MS,2,num_4,16,num_4,1.44995828765,,,2017_Aug_11_1543,59.9946312568,MAFE4ImagesEEG,001,101126,
AFNE01.JPG,AFNE01.JPG,AFNE01.JPG,AFNE01.JPG,AFNE01.JPG,AFNE01.JPG,5,4,54,6,,,,,,,,,,,,,,,,,,,,,,,AMSA04.jpg,AMNE16.jpg,AMSA16.jpg,AMNE13.jpg,AMSA16.jpg,MS,2,num_2,16,num_2,1.16671493836,,,2017_Aug_11_1543,59.9946312568,MAFE4ImagesEEG,001,101126,
AFNE01.JPG,AFNE01.JPG,AFNE01.JPG,AFNE01.JPG,AFNE01.JPG,AFNE01.JPG,5,5,55,5,,,,,,,,,,,,,,,,,,,,,,,AMNE17.jpg,AMSA20.jpg,AMSA12.jpg,AMNE10.jpg,AMSA12.jpg,MS,2,num_2,16,num_2,2.83299671626,,,2017_Aug_11_1543,59.9946312568,MAFE4ImagesEEG,001,101126,
AFNE01.JPG,AFNE01.JPG,AFNE01.JPG,AFNE01.JPG,AFNE01.JPG,AFNE01.JPG,5,6,56,1,,,,,,,,,,,,,,,,,,,,,,,AMSA12.jpg,AMSA03.jpg,AMNE17.jpg,AMNE05.jpg,AMSA03.jpg,MS,2,num_6,16,num_6,0.500124607235,,,2017_Aug_11_1543,59.9946312568,MAFE4ImagesEEG,001,101126,
AFNE01.JPG,AFNE01.JPG,AFNE01.JPG,AFNE01.JPG,AFNE01.JPG,AFNE01.JPG,5,7,57,8,,,,,,,,,,,,,,,,,,,,,,,AMNE03.jpg,AMSA01.jpg,AMSA19.jpg,AMNE20.jpg,AMSA01.jpg,MS,2,num_6,16,num_6,0.733491265681,,,2017_Aug_11_1543,59.9946312568,MAFE4ImagesEEG,001,101126,
AFNE01.JPG,AFNE01.JPG,AFNE01.JPG,AFNE01.JPG,AFNE01.JPG,AFNE01.JPG,5,8,58,9,,,,,,,,,,,,,,,,,,,,,,,AMNE04.jpg,AMNE01.jpg,AMSA07.jpg,AMSA05.jpg,AMNE04.jpg,MN,1,num_8,16,num_8,1.11675806157,,,2017_Aug_11_1543,59.9946312568,MAFE4ImagesEEG,001,101126,
AFNE01.JPG,AFNE01.JPG,AFNE01.JPG,AFNE01.JPG,AFNE01.JPG,AFNE01.JPG,5,9,59,3,,,,,,,,,,,,,,,,,,,,,,,AMNE19.jpg,AMSA01.jpg,AMSA02.jpg,AMNE06.jpg,AMNE19.jpg,MN,1,num_8,16,num_8,2.38334088679,,,2017_Aug_11_1543,59.9946312568,MAFE4ImagesEEG,001,101126,
,,,,,,,,,,,,,,,,,,,,,,,,,,,,,,,,,,,,,,,,,,,space,9.78273257101,2017_Aug_11_1543,59.9946312568,MAFE4ImagesEEG,001,101126,
AFNE01.JPG,AFNE01.JPG,AFNE01.JPG,AFNE01.JPG,AFNE01.JPG,AFNE01.JPG,,,,,0,0,0,8,,,,,,,,,,,,,,,,,,,AFNE16.jpg,AFSA17.jpg,AFSA01.jpg,AFNE14.jpg,AFNE14.jpg,FN,3,num_4,16,num_4,0.566788836382,,,2017_Aug_11_1543,59.9946312568,MAFE4ImagesEEG,001,101126,
AFNE01.JPG,AFNE01.JPG,AFNE01.JPG,AFNE01.JPG,AFNE01.JPG,AFNE01.JPG,,,,,0,1,1,4,,,,,,,,,,,,,,,,,,,AFSA04.jpg,AFNE01.jpg,AFNE15.jpg,AFSA10.jpg,AFSA04.jpg,FS,4,num_8,32,num_6,1.08310312172,,,2017_Aug_11_1543,59.9946312568,MAFE4ImagesEEG,001,101126,
AFNE01.JPG,AFNE01.JPG,AFNE01.JPG,AFNE01.JPG,AFNE01.JPG,AFNE01.JPG,,,,,0,2,2,5,,,,,,,,,,,,,,,,,,,AFSA11.jpg,AFSA17.jpg,AFNE16.jpg,AFNE04.jpg,AFSA11.jpg,FS,4,num_8,16,num_8,1.01676604804,,,2017_Aug_11_1543,59.9946312568,MAFE4ImagesEEG,001,101126,
AFNE01.JPG,AFNE01.JPG,AFNE01.JPG,AFNE01.JPG,AFNE01.JPG,AFNE01.JPG,,,,,0,3,3,2,,,,,,,,,,,,,,,,,,,AFNE16.jpg,AFSA18.jpg,AFNE08.jpg,AFSA04.jpg,AFNE08.jpg,FN,3,num_2,32,num_8,0.916417050641,,,2017_Aug_11_1543,59.9946312568,MAFE4ImagesEEG,001,101126,
AFNE01.JPG,AFNE01.JPG,AFNE01.JPG,AFNE01.JPG,AFNE01.JPG,AFNE01.JPG,,,,,0,4,4,3,,,,,,,,,,,,,,,,,,,AFSA02.jpg,AFSA16.jpg,AFNE17.jpg,AFNE11.jpg,AFSA16.jpg,FS,4,num_6,16,num_6,0.616802163422,,,2017_Aug_11_1543,59.9946312568,MAFE4ImagesEEG,001,101126,
AFNE01.JPG,AFNE01.JPG,AFNE01.JPG,AFNE01.JPG,AFNE01.JPG,AFNE01.JPG,,,,,0,5,5,0,,,,,,,,,,,,,,,,,,,AFSA12.jpg,AFSA14.jpg,AFNE09.jpg,AFNE13.jpg,AFSA14.jpg,FS,4,num_6,16,num_6,0.51679026382,,,2017_Aug_11_1543,59.9946312568,MAFE4ImagesEEG,001,101126,
AFNE01.JPG,AFNE01.JPG,AFNE01.JPG,AFNE01.JPG,AFNE01.JPG,AFNE01.JPG,,,,,0,6,6,9,,,,,,,,,,,,,,,,,,,AFSA03.jpg,AFNE08.jpg,AFSA08.jpg,AFNE13.jpg,AFSA03.jpg,FS,4,num_8,16,num_8,0.66676481301,,,2017_Aug_11_1543,59.9946312568,MAFE4ImagesEEG,001,101126,
AFNE01.JPG,AFNE01.JPG,AFNE01.JPG,AFNE01.JPG,AFNE01.JPG,AFNE01.JPG,,,,,0,7,7,7,,,,,,,,,,,,,,,,,,,AFNE07.jpg,AFSA11.jpg,AFSA18.jpg,AFNE08.jpg,AFNE07.jpg,FN,3,num_8,16,num_8,1.0336924661,,,2017_Aug_11_1543,59.9946312568,MAFE4ImagesEEG,001,101126,
AFNE01.JPG,AFNE01.JPG,AFNE01.JPG,AFNE01.JPG,AFNE01.JPG,AFNE01.JPG,,,,,0,8,8,6,,,,,,,,,,,,,,,,,,,AFNE10.jpg,AFSA11.jpg,AFNE11.jpg,AFSA17.jpg,AFSA17.jpg,FS,4,num_4,32,num_6,0.633499893826,,,2017_Aug_11_1543,59.9946312568,MAFE4ImagesEEG,001,101126,
AFNE01.JPG,AFNE01.JPG,AFNE01.JPG,AFNE01.JPG,AFNE01.JPG,AFNE01.JPG,,,,,0,9,9,1,,,,,,,,,,,,,,,,,,,AFSA03.jpg,AFNE16.jpg,AFNE04.jpg,AFSA06.jpg,AFSA06.jpg,FS,4,num_4,32,num_8,1.21678471519,,,2017_Aug_11_1543,59.9946312568,MAFE4ImagesEEG,001,101126,
AFNE01.JPG,AFNE01.JPG,AFNE01.JPG,AFNE01.JPG,AFNE01.JPG,AFNE01.JPG,,,,,1,0,10,4,,,,,,,,,,,,,,,,,,,AFSA01.jpg,AFSA10.jpg,AFNE19.jpg,AFNE09.jpg,AFNE09.jpg,FN,3,num_4,32,num_2,2.5165218045,,,2017_Aug_11_1543,59.9946312568,MAFE4ImagesEEG,001,101126,
AFNE01.JPG,AFNE01.JPG,AFNE01.JPG,AFNE01.JPG,AFNE01.JPG,AFNE01.JPG,,,,,1,1,11,7,,,,,,,,,,,,,,,,,,,AFNE16.jpg,AFSA10.jpg,AFSA04.jpg,AFNE20.jpg,AFNE20.jpg,FN,3,num_4,32,num_8,1.88337536622,,,2017_Aug_11_1543,59.9946312568,MAFE4ImagesEEG,001,101126,
AFNE01.JPG,AFNE01.JPG,AFNE01.JPG,AFNE01.JPG,AFNE01.JPG,AFNE01.JPG,,,,,1,2,12,8,,,,,,,,,,,,,,,,,,,AFSA12.jpg,AFNE09.jpg,AFSA09.jpg,AFNE07.jpg,AFNE07.jpg,FN,3,num_4,32,num_2,1.21674013184,,,2017_Aug_11_1543,59.9946312568,MAFE4ImagesEEG,001,101126,
AFNE01.JPG,AFNE01.JPG,AFNE01.JPG,AFNE01.JPG,AFNE01.JPG,AFNE01.JPG,,,,,1,3,13,3,,,,,,,,,,,,,,,,,,,AFSA17.jpg,AFNE04.jpg,AFNE18.jpg,AFSA01.jpg,AFSA17.jpg,FS,4,num_8,16,num_8,1.16673610685,,,2017_Aug_11_1543,59.9946312568,MAFE4ImagesEEG,001,101126,
AFNE01.JPG,AFNE01.JPG,AFNE01.JPG,AFNE01.JPG,AFNE01.JPG,AFNE01.JPG,,,,,1,4,14,5,,,,,,,,,,,,,,,,,,,AFNE16.jpg,AFSA14.jpg,AFSA10.jpg,AFNE20.jpg,AFNE20.jpg,FN,3,num_4,32,num_6,1.5666855583,,,2017_Aug_11_1543,59.9946312568,MAFE4ImagesEEG,001,101126,
AFNE01.JPG,AFNE01.JPG,AFNE01.JPG,AFNE01.JPG,AFNE01.JPG,AFNE01.JPG,,,,,1,5,15,0,,,,,,,,,,,,,,,,,,,AFNE01.jpg,AFSA09.jpg,AFNE10.jpg,AFSA17.jpg,AFNE01.jpg,FN,3,num_8,32,num_4,1.36673232215,,,2017_Aug_11_1543,59.9946312568,MAFE4ImagesEEG,001,101126,
AFNE01.JPG,AFNE01.JPG,AFNE01.JPG,AFNE01.JPG,AFNE01.JPG,AFNE01.JPG,,,,,1,6,16,9,,,,,,,,,,,,,,,,,,,AFSA09.jpg,AFSA19.jpg,AFNE07.jpg,AFNE12.jpg,AFSA19.jpg,FS,4,num_6,32,num_8,1.15012305183,,,2017_Aug_11_1543,59.9946312568,MAFE4ImagesEEG,001,101126,
AFNE01.JPG,AFNE01.JPG,AFNE01.JPG,AFNE01.JPG,AFNE01.JPG,AFNE01.JPG,,,,,1,7,17,1,,,,,,,,,,,,,,,,,,,AFNE04.jpg,AFNE19.jpg,AFSA18.jpg,AFSA01.jpg,AFNE19.jpg,FN,3,num_6,32,num_8,1.11672951607,,,2017_Aug_11_1543,59.9946312568,MAFE4ImagesEEG,001,101126,
AFNE01.JPG,AFNE01.JPG,AFNE01.JPG,AFNE01.JPG,AFNE01.JPG,AFNE01.JPG,,,,,1,8,18,6,,,,,,,,,,,,,,,,,,,AFNE18.jpg,AFSA16.jpg,AFSA15.jpg,AFNE07.jpg,AFSA15.jpg,FS,4,num_2,16,num_2,0.750148261897,,,2017_Aug_11_1543,59.9946312568,MAFE4ImagesEEG,001,101126,
AFNE01.JPG,AFNE01.JPG,AFNE01.JPG,AFNE01.JPG,AFNE01.JPG,AFNE01.JPG,,,,,1,9,19,2,,,,,,,,,,,,,,,,,,,AFSA13.jpg,AFNE18.jpg,AFNE09.jpg,AFSA08.jpg,AFSA13.jpg,FS,4,num_8,16,num_8,0.95012234617,,,2017_Aug_11_1543,59.9946312568,MAFE4ImagesEEG,001,101126,
AFNE01.JPG,AFNE01.JPG,AFNE01.JPG,AFNE01.JPG,AFNE01.JPG,AFNE01.JPG,,,,,2,0,20,9,,,,,,,,,,,,,,,,,,,AFSA04.jpg,AFNE17.jpg,AFNE07.jpg,AFSA17.jpg,AFSA17.jpg,FS,4,num_4,32,num_8,0.933454445098,,,2017_Aug_11_1543,59.9946312568,MAFE4ImagesEEG,001,101126,
AFNE01.JPG,AFNE01.JPG,AFNE01.JPG,AFNE01.JPG,AFNE01.JPG,AFNE01.JPG,,,,,2,1,21,3,,,,,,,,,,,,,,,,,,,AFSA19.jpg,AFNE18.jpg,AFNE01.jpg,AFSA08.jpg,AFSA08.jpg,FS,4,num_4,16,num_4,1.25008619856,,,2017_Aug_11_1543,59.9946312568,MAFE4ImagesEEG,001,101126,
AFNE01.JPG,AFNE01.JPG,AFNE01.JPG,AFNE01.JPG,AFNE01.JPG,AFNE01.JPG,,,,,2,2,22,6,,,,,,,,,,,,,,,,,,,AFNE12.jpg,AFSA09.jpg,AFSA01.jpg,AFNE08.jpg,AFSA09.jpg,FS,4,num_6,32,num_8,0.816766946111,,,2017_Aug_11_1543,59.9946312568,MAFE4ImagesEEG,001,101126,
AFNE01.JPG,AFNE01.JPG,AFNE01.JPG,AFNE01.JPG,AFNE01.JPG,AFNE01.JPG,,,,,2,3,23,8,,,,,,,,,,,,,,,,,,,AFNE13.jpg,AFSA10.jpg,AFNE16.jpg,AFSA03.jpg,AFNE16.jpg,FN,3,num_2,32,num_6,0.800001218915,,,2017_Aug_11_1543,59.9946312568,MAFE4ImagesEEG,001,101126,
AFNE01.JPG,AFNE01.JPG,AFNE01.JPG,AFNE01.JPG,AFNE01.JPG,AFNE01.JPG,,,,,2,4,24,0,,,,,,,,,,,,,,,,,,,AFSA17.jpg,AFNE14.jpg,AFNE19.jpg,AFSA19.jpg,AFNE19.jpg,FN,3,num_2,16,num_2,1.41671453742,,,2017_Aug_11_1543,59.9946312568,MAFE4ImagesEEG,001,101126,
AFNE01.JPG,AFNE01.JPG,AFNE01.JPG,AFNE01.JPG,AFNE01.JPG,AFNE01.JPG,,,,,2,5,25,7,,,,,,,,,,,,,,,,,,,AFSA15.jpg,AFSA14.jpg,AFNE15.jpg,AFNE18.jpg,AFNE18.jpg,FN,3,num_4,32,num_8,1.00012605079,,,2017_Aug_11_1543,59.9946312568,MAFE4ImagesEEG,001,101126,
AFNE01.JPG,AFNE01.JPG,AFNE01.JPG,AFNE01.JPG,AFNE01.JPG,AFNE01.JPG,,,,,2,6,26,2,,,,,,,,,,,,,,,,,,,AFNE16.jpg,AFSA07.jpg,AFSA14.jpg,AFNE19.jpg,AFNE16.jpg,FN,3,num_8,16,num_8,0.850133860949,,,2017_Aug_11_1543,59.9946312568,MAFE4ImagesEEG,001,101126,
AFNE01.JPG,AFNE01.JPG,AFNE01.JPG,AFNE01.JPG,AFNE01.JPG,AFNE01.JPG,,,,,2,7,27,4,,,,,,,,,,,,,,,,,,,AFSA17.jpg,AFNE19.jpg,AFNE08.jpg,AFSA10.jpg,AFSA10.jpg,FS,4,num_4,16,num_4,0.850093447603,,,2017_Aug_11_1543,59.9946312568,MAFE4ImagesEEG,001,101126,
AFNE01.JPG,AFNE01.JPG,AFNE01.JPG,AFNE01.JPG,AFNE01.JPG,AFNE01.JPG,,,,,2,8,28,5,,,,,,,,,,,,,,,,,,,AFNE09.jpg,AFSA20.jpg,AFNE19.jpg,AFSA07.jpg,AFNE09.jpg,FN,3,num_8,32,num_6,0.666785661131,,,2017_Aug_11_1543,59.9946312568,MAFE4ImagesEEG,001,101126,
AFNE01.JPG,AFNE01.JPG,AFNE01.JPG,AFNE01.JPG,AFNE01.JPG,AFNE01.JPG,,,,,2,9,29,1,,,,,,,,,,,,,,,,,,,AFNE18.jpg,AFSA06.jpg,AFSA18.jpg,AFNE07.jpg,AFNE18.jpg,FN,3,num_8,16,num_8,1.7833641083,,,2017_Aug_11_1543,59.9946312568,MAFE4ImagesEEG,001,101126,
AFNE01.JPG,AFNE01.JPG,AFNE01.JPG,AFNE01.JPG,AFNE01.JPG,AFNE01.JPG,,,,,3,0,30,4,,,,,,,,,,,,,,,,,,,AFSA14.jpg,AFSA20.jpg,AFNE02.jpg,AFNE14.jpg,AFSA20.jpg,FS,4,num_6,32,num_8,0.883554339409,,,2017_Aug_11_1543,59.9946312568,MAFE4ImagesEEG,001,101126,
AFNE01.JPG,AFNE01.JPG,AFNE01.JPG,AFNE01.JPG,AFNE01.JPG,AFNE01.JPG,,,,,3,1,31,1,,,,,,,,,,,,,,,,,,,AFSA13.jpg,AFSA09.jpg,AFNE15.jpg,AFNE17.jpg,AFSA09.jpg,FS,4,num_6,32,num_8,0.900114151184,,,2017_Aug_11_1543,59.9946312568,MAFE4ImagesEEG,001,101126,
AFNE01.JPG,AFNE01.JPG,AFNE01.JPG,AFNE01.JPG,AFNE01.JPG,AFNE01.JPG,,,,,3,2,32,0,,,,,,,,,,,,,,,,,,,AFSA13.jpg,AFSA11.jpg,AFNE18.jpg,AFNE06.jpg,AFSA11.jpg,FS,4,num_6,16,num_6,0.98343409365,,,2017_Aug_11_1543,59.9946312568,MAFE4ImagesEEG,001,101126,
AFNE01.JPG,AFNE01.JPG,AFNE01.JPG,AFNE01.JPG,AFNE01.JPG,AFNE01.JPG,,,,,3,3,33,8,,,,,,,,,,,,,,,,,,,AFNE13.jpg,AFSA01.jpg,AFSA09.jpg,AFNE09.jpg,AFNE13.jpg,FN,3,num_8,16,num_8,0.750103679486,,,2017_Aug_11_1543,59.9946312568,MAFE4ImagesEEG,001,101126,
AFNE01.JPG,AFNE01.JPG,AFNE01.JPG,AFNE01.JPG,AFNE01.JPG,AFNE01.JPG,,,,,3,4,34,5,,,,,,,,,,,,,,,,,,,AFNE17.jpg,AFNE03.jpg,AFSA09.jpg,AFSA17.jpg,AFSA17.jpg,FS,4,num_4,16,num_4,1.10006834939,,,2017_Aug_11_1543,59.9946312568,MAFE4ImagesEEG,001,101126,
AFNE01.JPG,AFNE01.JPG,AFNE01.JPG,AFNE01.JPG,AFNE01.JPG,AFNE01.JPG,,,,,3,5,35,7,,,,,,,,,,,,,,,,,,,AFSA15.jpg,AFNE08.jpg,AFNE15.jpg,AFSA01.jpg,AFSA01.jpg,FS,4,num_4,32,num_8,0.916793920565,,,2017_Aug_11_1543,59.9946312568,MAFE4ImagesEEG,001,101126,
AFNE01.JPG,AFNE01.JPG,AFNE01.JPG,AFNE01.JPG,AFNE01.JPG,AFNE01.JPG,,,,,3,6,36,2,,,,,,,,,,,,,,,,,,,AFNE05.jpg,AFSA07.jpg,AFNE13.jpg,AFSA05.jpg,AFNE13.jpg,FN,3,num_2,32,num_6,0.916759601329,,,2017_Aug_11_1543,59.9946312568,MAFE4ImagesEEG,001,101126,
AFNE01.JPG,AFNE01.JPG,AFNE01.JPG,AFNE01.JPG,AFNE01.JPG,AFNE01.JPG,,,,,3,7,37,9,,,,,,,,,,,,,,,,,,,AFNE03.jpg,AFSA10.jpg,AFSA16.jpg,AFNE20.jpg,AFSA16.jpg,FS,4,num_2,32,num_8,0.966785436962,,,2017_Aug_11_1543,59.9946312568,MAFE4ImagesEEG,001,101126,
AFNE01.JPG,AFNE01.JPG,AFNE01.JPG,AFNE01.JPG,AFNE01.JPG,AFNE01.JPG,,,,,3,8,38,3,,,,,,,,,,,,,,,,,,,AFSA08.jpg,AFNE13.jpg,AFNE02.jpg,AFSA07.jpg,AFSA08.jpg,FS,4,num_8,32,num_2,1.81677271938,,,2017_Aug_11_1543,59.9946312568,MAFE4ImagesEEG,001,101126,
AFNE01.JPG,AFNE01.JPG,AFNE01.JPG,AFNE01.JPG,AFNE01.JPG,AFNE01.JPG,,,,,3,9,39,6,,,,,,,,,,,,,,,,,,,AFSA14.jpg,AFNE06.jpg,AFNE18.jpg,AFSA20.jpg,AFSA20.jpg,FS,4,num_4,16,num_4,0.650160097517,,,2017_Aug_11_1543,59.9946312568,MAFE4ImagesEEG,001,101126,
AFNE01.JPG,AFNE01.JPG,AFNE01.JPG,AFNE01.JPG,AFNE01.JPG,AFNE01.JPG,,,,,4,0,40,5,,,,,,,,,,,,,,,,,,,AFNE12.jpg,AFSA01.jpg,AFNE10.jpg,AFSA05.jpg,AFNE12.jpg,FN,3,num_8,16,num_8,1.2168106949,,,2017_Aug_11_1543,59.9946312568,MAFE4ImagesEEG,001,101126,
AFNE01.JPG,AFNE01.JPG,AFNE01.JPG,AFNE01.JPG,AFNE01.JPG,AFNE01.JPG,,,,,4,1,41,4,,,,,,,,,,,,,,,,,,,AFNE13.jpg,AFSA02.jpg,AFSA18.jpg,AFNE07.jpg,AFSA18.jpg,FS,4,num_2,32,num_6,0.733493831474,,,2017_Aug_11_1543,59.9946312568,MAFE4ImagesEEG,001,101126,
AFNE01.JPG,AFNE01.JPG,AFNE01.JPG,AFNE01.JPG,AFNE01.JPG,AFNE01.JPG,,,,,4,2,42,6,,,,,,,,,,,,,,,,,,,AFNE06.jpg,AFSA08.jpg,AFSA15.jpg,AFNE01.jpg,AFNE01.jpg,FN,3,num_4,32,num_8,1.38339316752,,,2017_Aug_11_1543,59.9946312568,MAFE4ImagesEEG,001,101126,
AFNE01.JPG,AFNE01.JPG,AFNE01.JPG,AFNE01.JPG,AFNE01.JPG,AFNE01.JPG,,,,,4,3,43,1,,,,,,,,,,,,,,,,,,,AFSA04.jpg,AFNE17.jpg,AFNE09.jpg,AFSA08.jpg,AFSA08.jpg,FS,4,num_4,32,num_6,1.13327521551,,,2017_Aug_11_1543,59.9946312568,MAFE4ImagesEEG,001,101126,
AFNE01.JPG,AFNE01.JPG,AFNE01.JPG,AFNE01.JPG,AFNE01.JPG,AFNE01.JPG,,,,,4,4,44,8,,,,,,,,,,,,,,,,,,,AFSA10.jpg,AFNE20.jpg,AFSA14.jpg,AFNE17.jpg,AFSA14.jpg,FS,4,num_2,32,num_8,0.85009120265,,,2017_Aug_11_1543,59.9946312568,MAFE4ImagesEEG,001,101126,
AFNE01.JPG,AFNE01.JPG,AFNE01.JPG,AFNE01.JPG,AFNE01.JPG,AFNE01.JPG,,,,,4,5,45,9,,,,,,,,,,,,,,,,,,,AFNE08.jpg,AFSA17.jpg,AFSA10.jpg,AFNE07.jpg,AFSA10.jpg,FS,4,num_2,32,num_6,1.28341526631,,,2017_Aug_11_1543,59.9946312568,MAFE4ImagesEEG,001,101126,
AFNE01.JPG,AFNE01.JPG,AFNE01.JPG,AFNE01.JPG,AFNE01.JPG,AFNE01.JPG,,,,,4,6,46,7,,,,,,,,,,,,,,,,,,,AFNE10.jpg,AFNE12.jpg,AFSA09.jpg,AFSA04.jpg,AFSA09.jpg,FS,4,num_2,16,num_2,0.83347526053,,,2017_Aug_11_1543,59.9946312568,MAFE4ImagesEEG,001,101126,
AFNE01.JPG,AFNE01.JPG,AFNE01.JPG,AFNE01.JPG,AFNE01.JPG,AFNE01.JPG,,,,,4,7,47,3,,,,,,,,,,,,,,,,,,,AFNE05.jpg,AFSA05.jpg,AFNE13.jpg,AFSA03.jpg,AFSA05.jpg,FS,4,num_6,32,num_8,1.116494413,,,2017_Aug_11_1543,59.9946312568,MAFE4ImagesEEG,001,101126,
AFNE01.JPG,AFNE01.JPG,AFNE01.JPG,AFNE01.JPG,AFNE01.JPG,AFNE01.JPG,,,,,4,8,48,2,,,,,,,,,,,,,,,,,,,AFSA04.jpg,AFNE15.jpg,AFNE04.jpg,AFSA06.jpg,AFNE04.jpg,FN,3,num_2,32,num_4,1.36678331951,,,2017_Aug_11_1543,59.9946312568,MAFE4ImagesEEG,001,101126,
AFNE01.JPG,AFNE01.JPG,AFNE01.JPG,AFNE01.JPG,AFNE01.JPG,AFNE01.JPG,,,,,4,9,49,0,,,,,,,,,,,,,,,,,,,AFSA14.jpg,AFNE18.jpg,AFSA08.jpg,AFNE05.jpg,AFNE05.jpg,FN,3,num_4,32,num_8,0.883445287589,,,2017_Aug_11_1543,59.9946312568,MAFE4ImagesEEG,001,101126,
AFNE01.JPG,AFNE01.JPG,AFNE01.JPG,AFNE01.JPG,AFNE01.JPG,AFNE01.JPG,,,,,5,0,50,6,,,,,,,,,,,,,,,,,,,AFSA15.jpg,AFSA03.jpg,AFNE20.jpg,AFNE09.jpg,AFSA15.jpg,FS,4,num_8,16,num_8,1.40006684233,,,2017_Aug_11_1543,59.9946312568,MAFE4ImagesEEG,001,101126,
AFNE01.JPG,AFNE01.JPG,AFNE01.JPG,AFNE01.JPG,AFNE01.JPG,AFNE01.JPG,,,,,5,1,51,1,,,,,,,,,,,,,,,,,,,AFSA12.jpg,AFNE04.jpg,AFSA18.jpg,AFNE17.jpg,AFSA18.jpg,FS,4,num_2,32,num_6,0.916766015813,,,2017_Aug_11_1543,59.9946312568,MAFE4ImagesEEG,001,101126,
AFNE01.JPG,AFNE01.JPG,AFNE01.JPG,AFNE01.JPG,AFNE01.JPG,AFNE01.JPG,,,,,5,2,52,4,,,,,,,,,,,,,,,,,,,AFNE20.jpg,AFSA12.jpg,AFNE07.jpg,AFSA14.jpg,AFNE20.jpg,FN,3,num_8,16,num_8,0.783495291136,,,2017_Aug_11_1543,59.9946312568,MAFE4ImagesEEG,001,101126,
AFNE01.JPG,AFNE01.JPG,AFNE01.JPG,AFNE01.JPG,AFNE01.JPG,AFNE01.JPG,,,,,5,3,53,8,,,,,,,,,,,,,,,,,,,AFSA16.jpg,AFSA04.jpg,AFNE04.jpg,AFNE17.jpg,AFNE17.jpg,FN,3,num_4,16,num_4,0.900145904627,,,2017_Aug_11_1543,59.9946312568,MAFE4ImagesEEG,001,101126,
AFNE01.JPG,AFNE01.JPG,AFNE01.JPG,AFNE01.JPG,AFNE01.JPG,AFNE01.JPG,,,,,5,4,54,3,,,,,,,,,,,,,,,,,,,AFNE17.jpg,AFNE09.jpg,AFSA03.jpg,AFSA04.jpg,AFSA03.jpg,FS,4,num_2,32,num_8,1.05011403887,,,2017_Aug_11_1543,59.9946312568,MAFE4ImagesEEG,001,101126,
AFNE01.JPG,AFNE01.JPG,AFNE01.JPG,AFNE01.JPG,AFNE01.JPG,AFNE01.JPG,,,,,5,5,55,5,,,,,,,,,,,,,,,,,,,AFNE18.jpg,AFNE06.jpg,AFSA01.jpg,AFSA05.jpg,AFNE06.jpg,FN,3,num_6,32,num_8,0.833524013404,,,2017_Aug_11_1543,59.9946312568,MAFE4ImagesEEG,001,101126,
AFNE01.JPG,AFNE01.JPG,AFNE01.JPG,AFNE01.JPG,AFNE01.JPG,AFNE01.JPG,,,,,5,6,56,7,,,,,,,,,,,,,,,,,,,AFSA07.jpg,AFNE19.jpg,AFNE16.jpg,AFSA18.jpg,AFSA07.jpg,FS,4,num_8,16,num_8,1.63340174733,,,2017_Aug_11_1543,59.9946312568,MAFE4ImagesEEG,001,101126,
AFNE01.JPG,AFNE01.JPG,AFNE01.JPG,AFNE01.JPG,AFNE01.JPG,AFNE01.JPG,,,,,5,7,57,9,,,,,,,,,,,,,,,,,,,AFSA19.jpg,AFSA20.jpg,AFNE08.jpg,AFNE16.jpg,AFNE08.jpg,FN,3,num_2,16,num_2,1.11669263057,,,2017_Aug_11_1543,59.9946312568,MAFE4ImagesEEG,001,101126,
AFNE01.JPG,AFNE01.JPG,AFNE01.JPG,AFNE01.JPG,AFNE01.JPG,AFNE01.JPG,,,,,5,8,58,0,,,,,,,,,,,,,,,,,,,AFNE10.jpg,AFSA12.jpg,AFSA01.jpg,AFNE02.jpg,AFSA01.jpg,FS,4,num_2,16,num_2,1.51639799867,,,2017_Aug_11_1543,59.9946312568,MAFE4ImagesEEG,001,101126,
AFNE01.JPG,AFNE01.JPG,AFNE01.JPG,AFNE01.JPG,AFNE01.JPG,AFNE01.JPG,,,,,5,9,59,2,,,,,,,,,,,,,,,,,,,AFSA01.jpg,AFNE07.jpg,AFSA10.jpg,AFNE10.jpg,AFNE07.jpg,FN,3,num_6,16,num_6,0.783495291136,,,2017_Aug_11_1543,59.9946312568,MAFE4ImagesEEG,001,101126,
,,,,,,,,,,,,,,,,,,,,,,,,,,,,,,,,,,,,,,,,,,,space,8.4995623501,2017_Aug_11_1543,59.9946312568,MAFE4ImagesEEG,001,101126,
AFNE01.JPG,AFNE01.JPG,AFNE01.JPG,AFNE01.JPG,AFNE01.JPG,AFNE01.JPG,,,,,,,,,0,0,0,3,,,,,,,,,,,,,,,AMNE18.jpg,AMSA02.jpg,AMSA13.jpg,AMNE05.jpg,AMNE05.jpg,MN,1,num_4,16,num_4,1.21670869971,,,2017_Aug_11_1543,59.9946312568,MAFE4ImagesEEG,001,101126,
AFNE01.JPG,AFNE01.JPG,AFNE01.JPG,AFNE01.JPG,AFNE01.JPG,AFNE01.JPG,,,,,,,,,0,1,1,2,,,,,,,,,,,,,,,AMNE05.jpg,AMSA20.jpg,AMNE16.jpg,AMSA14.jpg,AMNE16.jpg,MN,1,num_2,32,num_8,1.33342057467,,,2017_Aug_11_1543,59.9946312568,MAFE4ImagesEEG,001,101126,
AFNE01.JPG,AFNE01.JPG,AFNE01.JPG,AFNE01.JPG,AFNE01.JPG,AFNE01.JPG,,,,,,,,,0,2,2,1,,,,,,,,,,,,,,,AMNE16.jpg,AMSA09.jpg,AMSA14.jpg,AMNE18.jpg,AMSA09.jpg,MS,2,num_6,32,num_2,0.916783656459,,,2017_Aug_11_1543,59.9946312568,MAFE4ImagesEEG,001,101126,
AFNE01.JPG,AFNE01.JPG,AFNE01.JPG,AFNE01.JPG,AFNE01.JPG,AFNE01.JPG,,,,,,,,,0,3,3,7,,,,,,,,,,,,,,,AMNE18.jpg,AMSA11.jpg,AMSA05.jpg,AMNE02.jpg,AMSA11.jpg,MS,2,num_6,16,num_6,0.783503630199,,,2017_Aug_11_1543,59.9946312568,MAFE4ImagesEEG,001,101126,
AFNE01.JPG,AFNE01.JPG,AFNE01.JPG,AFNE01.JPG,AFNE01.JPG,AFNE01.JPG,,,,,,,,,0,4,4,6,,,,,,,,,,,,,,,AMNE09.jpg,AMSA01.jpg,AMSA14.jpg,AMNE19.jpg,AMSA14.jpg,MS,2,num_2,16,num_2,1.01680197101,,,2017_Aug_11_1543,59.9946312568,MAFE4ImagesEEG,001,101126,
AFNE01.JPG,AFNE01.JPG,AFNE01.JPG,AFNE01.JPG,AFNE01.JPG,AFNE01.JPG,,,,,,,,,0,5,5,5,,,,,,,,,,,,,,,AMSA18.jpg,AMNE12.jpg,AMNE09.jpg,AMSA20.jpg,AMNE12.jpg,MN,1,num_6,32,num_8,0.816813773941,,,2017_Aug_11_1543,59.9946312568,MAFE4ImagesEEG,001,101126,
AFNE01.JPG,AFNE01.JPG,AFNE01.JPG,AFNE01.JPG,AFNE01.JPG,AFNE01.JPG,,,,,,,,,0,6,6,9,,,,,,,,,,,,,,,AMSA09.jpg,AMNE11.jpg,AMSA03.jpg,AMNE04.jpg,AMSA03.jpg,MS,2,num_2,32,num_6,1.1834655907,,,2017_Aug_11_1543,59.9946312568,MAFE4ImagesEEG,001,101126,
AFNE01.JPG,AFNE01.JPG,AFNE01.JPG,AFNE01.JPG,AFNE01.JPG,AFNE01.JPG,,,,,,,,,0,7,7,0,,,,,,,,,,,,,,,AMSA12.jpg,AMNE05.jpg,AMSA15.jpg,AMNE17.jpg,AMSA15.jpg,MS,2,num_2,16,num_2,0.883134490345,,,2017_Aug_11_1543,59.9946312568,MAFE4ImagesEEG,001,101126,
AFNE01.JPG,AFNE01.JPG,AFNE01.JPG,AFNE01.JPG,AFNE01.JPG,AFNE01.JPG,,,,,,,,,0,8,8,4,,,,,,,,,,,,,,,AMSA11.jpg,AMNE20.jpg,AMNE10.jpg,AMSA18.jpg,AMSA18.jpg,MS,2,num_4,16,num_4,0.916817975696,,,2017_Aug_11_1543,59.9946312568,MAFE4ImagesEEG,001,101126,
AFNE01.JPG,AFNE01.JPG,AFNE01.JPG,AFNE01.JPG,AFNE01.JPG,AFNE01.JPG,,,,,,,,,0,9,9,8,,,,,,,,,,,,,,,AMNE03.jpg,AMNE05.jpg,AMSA15.jpg,AMSA16.jpg,AMNE03.jpg,MN,1,num_8,16,num_8,1.06675435696,,,2017_Aug_11_1543,59.9946312568,MAFE4ImagesEEG,001,101126,
AFNE01.JPG,AFNE01.JPG,AFNE01.JPG,AFNE01.JPG,AFNE01.JPG,AFNE01.JPG,,,,,,,,,1,0,10,4,,,,,,,,,,,,,,,AMNE18.jpg,AMSA12.jpg,AMSA20.jpg,AMNE17.jpg,AMNE17.jpg,MN,1,num_4,16,num_4,0.66686777072,,,2017_Aug_11_1543,59.9946312568,MAFE4ImagesEEG,001,101126,
AFNE01.JPG,AFNE01.JPG,AFNE01.JPG,AFNE01.JPG,AFNE01.JPG,AFNE01.JPG,,,,,,,,,1,1,11,7,,,,,,,,,,,,,,,AMSA18.jpg,AMSA09.jpg,AMNE14.jpg,AMNE02.jpg,AMNE14.jpg,MN,1,num_2,16,num_2,0.8501175032,,,2017_Aug_11_1543,59.9946312568,MAFE4ImagesEEG,001,101126,
AFNE01.JPG,AFNE01.JPG,AFNE01.JPG,AFNE01.JPG,AFNE01.JPG,AFNE01.JPG,,,,,,,,,1,2,12,1,,,,,,,,,,,,,,,AMSA12.jpg,AMSA08.jpg,AMNE03.jpg,AMNE15.jpg,AMNE03.jpg,MN,1,num_2,16,num_2,0.716793535277,,,2017_Aug_11_1543,59.9946312568,MAFE4ImagesEEG,001,101126,
AFNE01.JPG,AFNE01.JPG,AFNE01.JPG,AFNE01.JPG,AFNE01.JPG,AFNE01.JPG,,,,,,,,,1,3,13,8,,,,,,,,,,,,,,,AMSA09.jpg,AMNE16.jpg,AMNE11.jpg,AMSA02.jpg,AMNE11.jpg,MN,1,num_2,16,num_2,0.700102540664,,,2017_Aug_11_1543,59.9946312568,MAFE4ImagesEEG,001,101126,
AFNE01.JPG,AFNE01.JPG,AFNE01.JPG,AFNE01.JPG,AFNE01.JPG,AFNE01.JPG,,,,,,,,,1,4,14,3,,,,,,,,,,,,,,,AMNE15.jpg,AMNE05.jpg,AMSA02.jpg,AMSA05.jpg,AMNE05.jpg,MN,1,num_6,32,num_8,3.04992255708,,,2017_Aug_11_1543,59.9946312568,MAFE4ImagesEEG,001,101126,
AFNE01.JPG,AFNE01.JPG,AFNE01.JPG,AFNE01.JPG,AFNE01.JPG,AFNE01.JPG,,,,,,,,,1,5,15,2,,,,,,,,,,,,,,,AMNE06.jpg,AMSA06.jpg,AMSA01.jpg,AMNE04.jpg,AMNE06.jpg,MN,1,num_8,32,num_4,0.850097617134,,,2017_Aug_11_1543,59.9946312568,MAFE4ImagesEEG,001,101126,
AFNE01.JPG,AFNE01.JPG,AFNE01.JPG,AFNE01.JPG,AFNE01.JPG,AFNE01.JPG,,,,,,,,,1,6,16,6,,,,,,,,,,,,,,,AMSA13.jpg,AMNE09.jpg,AMSA09.jpg,AMNE01.jpg,AMSA09.jpg,MS,2,num_2,16,num_2,0.683506485075,,,2017_Aug_11_1543,59.9946312568,MAFE4ImagesEEG,001,101126,
AFNE01.JPG,AFNE01.JPG,AFNE01.JPG,AFNE01.JPG,AFNE01.JPG,AFNE01.JPG,,,,,,,,,1,7,17,9,,,,,,,,,,,,,,,AMSA18.jpg,AMNE01.jpg,AMSA03.jpg,AMNE14.jpg,AMSA03.jpg,MS,2,num_2,32,num_8,0.600131375249,,,2017_Aug_11_1543,59.9946312568,MAFE4ImagesEEG,001,101126,
AFNE01.JPG,AFNE01.JPG,AFNE01.JPG,AFNE01.JPG,AFNE01.JPG,AFNE01.JPG,,,,,,,,,1,8,18,0,,,,,,,,,,,,,,,AMNE09.jpg,AMNE17.jpg,AMSA04.jpg,AMSA19.jpg,AMNE09.jpg,MN,1,num_8,32,num_6,1.86636298988,,,2017_Aug_11_1543,59.9946312568,MAFE4ImagesEEG,001,101126,
AFNE01.JPG,AFNE01.JPG,AFNE01.JPG,AFNE01.JPG,AFNE01.JPG,AFNE01.JPG,,,,,,,,,1,9,19,5,,,,,,,,,,,,,,,AMNE01.jpg,AMNE17.jpg,AMSA03.jpg,AMSA04.jpg,AMNE01.jpg,MN,1,num_8,16,num_8,0.766769656446,,,2017_Aug_11_1543,59.9946312568,MAFE4ImagesEEG,001,101126,
AFNE01.JPG,AFNE01.JPG,AFNE01.JPG,AFNE01.JPG,AFNE01.JPG,AFNE01.JPG,,,,,,,,,2,0,20,8,,,,,,,,,,,,,,,AMSA04.jpg,AMNE08.jpg,AMSA07.jpg,AMNE15.jpg,AMSA07.jpg,MS,2,num_2,32,num_6,1.55010489793,,,2017_Aug_11_1543,59.9946312568,MAFE4ImagesEEG,001,101126,
AFNE01.JPG,AFNE01.JPG,AFNE01.JPG,AFNE01.JPG,AFNE01.JPG,AFNE01.JPG,,,,,,,,,2,1,21,0,,,,,,,,,,,,,,,AMSA10.jpg,AMNE17.jpg,AMSA06.jpg,AMNE20.jpg,AMNE20.jpg,MN,1,num_4,16,num_4,0.800146193244,,,2017_Aug_11_1543,59.9946312568,MAFE4ImagesEEG,001,101126,
AFNE01.JPG,AFNE01.JPG,AFNE01.JPG,AFNE01.JPG,AFNE01.JPG,AFNE01.JPG,,,,,,,,,2,2,22,2,,,,,,,,,,,,,,,AMSA08.jpg,AMSA03.jpg,AMNE08.jpg,AMNE16.jpg,AMNE08.jpg,MN,1,num_2,16,num_2,1.08341167448,,,2017_Aug_11_1543,59.9946312568,MAFE4ImagesEEG,001,101126,
AFNE01.JPG,AFNE01.JPG,AFNE01.JPG,AFNE01.JPG,AFNE01.JPG,AFNE01.JPG,,,,,,,,,2,3,23,7,,,,,,,,,,,,,,,AMNE15.jpg,AMSA04.jpg,AMNE06.jpg,AMSA19.jpg,AMSA19.jpg,MS,2,num_4,16,num_4,1.26675538346,,,2017_Aug_11_1543,59.9946312568,MAFE4ImagesEEG,001,101126,
AFNE01.JPG,AFNE01.JPG,AFNE01.JPG,AFNE01.JPG,AFNE01.JPG,AFNE01.JPG,,,,,,,,,2,4,24,3,,,,,,,,,,,,,,,AMNE05.jpg,AMNE08.jpg,AMSA02.jpg,AMSA18.jpg,AMSA02.jpg,MS,2,num_2,16,num_2,1.10010202741,,,2017_Aug_11_1543,59.9946312568,MAFE4ImagesEEG,001,101126,
AFNE01.JPG,AFNE01.JPG,AFNE01.JPG,AFNE01.JPG,AFNE01.JPG,AFNE01.JPG,,,,,,,,,2,5,25,4,,,,,,,,,,,,,,,AMSA02.jpg,AMNE06.jpg,AMSA17.jpg,AMNE19.jpg,AMNE19.jpg,MN,1,num_4,32,num_8,1.16670114594,,,2017_Aug_11_1543,59.9946312568,MAFE4ImagesEEG,001,101126,
AFNE01.JPG,AFNE01.JPG,AFNE01.JPG,AFNE01.JPG,AFNE01.JPG,AFNE01.JPG,,,,,,,,,2,6,26,5,,,,,,,,,,,,,,,AMNE14.jpg,AMNE01.jpg,AMSA12.jpg,AMSA09.jpg,AMSA09.jpg,MS,2,num_4,16,num_4,0.683518993668,,,2017_Aug_11_1543,59.9946312568,MAFE4ImagesEEG,001,101126,
AFNE01.JPG,AFNE01.JPG,AFNE01.JPG,AFNE01.JPG,AFNE01.JPG,AFNE01.JPG,,,,,,,,,2,7,27,6,,,,,,,,,,,,,,,AMNE17.jpg,AMSA06.jpg,AMNE13.jpg,AMSA15.jpg,AMNE13.jpg,MN,1,num_2,32,num_6,0.883442400955,,,2017_Aug_11_1543,59.9946312568,MAFE4ImagesEEG,001,101126,
AFNE01.JPG,AFNE01.JPG,AFNE01.JPG,AFNE01.JPG,AFNE01.JPG,AFNE01.JPG,,,,,,,,,2,8,28,1,,,,,,,,,,,,,,,AMSA18.jpg,AMNE01.jpg,AMSA05.jpg,AMNE09.jpg,AMSA18.jpg,MS,2,num_8,16,num_8,1.00010424061,,,2017_Aug_11_1543,59.9946312568,MAFE4ImagesEEG,001,101126,
AFNE01.JPG,AFNE01.JPG,AFNE01.JPG,AFNE01.JPG,AFNE01.JPG,AFNE01.JPG,,,,,,,,,2,9,29,9,,,,,,,,,,,,,,,AMSA11.jpg,AMNE06.jpg,AMNE05.jpg,AMSA08.jpg,AMNE05.jpg,MN,1,num_2,16,num_2,0.73347747419,,,2017_Aug_11_1543,59.9946312568,MAFE4ImagesEEG,001,101126,
AFNE01.JPG,AFNE01.JPG,AFNE01.JPG,AFNE01.JPG,AFNE01.JPG,AFNE01.JPG,,,,,,,,,3,0,30,3,,,,,,,,,,,,,,,AMSA15.jpg,AMSA04.jpg,AMNE14.jpg,AMNE13.jpg,AMNE13.jpg,MN,1,num_4,32,num_6,0.816652441863,,,2017_Aug_11_1543,59.9946312568,MAFE4ImagesEEG,001,101126,
AFNE01.JPG,AFNE01.JPG,AFNE01.JPG,AFNE01.JPG,AFNE01.JPG,AFNE01.JPG,,,,,,,,,3,1,31,7,,,,,,,,,,,,,,,AMNE16.jpg,AMNE10.jpg,AMSA15.jpg,AMSA19.jpg,AMNE16.jpg,MN,1,num_8,16,num_8,0.883449136745,,,2017_Aug_11_1543,59.9946312568,MAFE4ImagesEEG,001,101126,
AFNE01.JPG,AFNE01.JPG,AFNE01.JPG,AFNE01.JPG,AFNE01.JPG,AFNE01.JPG,,,,,,,,,3,2,32,8,,,,,,,,,,,,,,,AMSA11.jpg,AMNE05.jpg,AMSA08.jpg,AMNE15.jpg,AMNE15.jpg,MN,1,num_4,16,num_4,0.58348945342,,,2017_Aug_11_1543,59.9946312568,MAFE4ImagesEEG,001,101126,
AFNE01.JPG,AFNE01.JPG,AFNE01.JPG,AFNE01.JPG,AFNE01.JPG,AFNE01.JPG,,,,,,,,,3,3,33,4,,,,,,,,,,,,,,,AMNE04.jpg,AMSA10.jpg,AMNE18.jpg,AMSA05.jpg,AMSA10.jpg,MS,2,num_6,16,num_6,0.500156681519,,,2017_Aug_11_1543,59.9946312568,MAFE4ImagesEEG,001,101126,
AFNE01.JPG,AFNE01.JPG,AFNE01.JPG,AFNE01.JPG,AFNE01.JPG,AFNE01.JPG,,,,,,,,,3,4,34,1,,,,,,,,,,,,,,,AMSA07.jpg,AMNE06.jpg,AMNE05.jpg,AMSA09.jpg,AMNE06.jpg,MN,1,num_6,32,num_4,1.31672829669,,,2017_Aug_11_1543,59.9946312568,MAFE4ImagesEEG,001,101126,
AFNE01.JPG,AFNE01.JPG,AFNE01.JPG,AFNE01.JPG,AFNE01.JPG,AFNE01.JPG,,,,,,,,,3,5,35,5,,,,,,,,,,,,,,,AMSA03.jpg,AMNE05.jpg,AMSA12.jpg,AMNE03.jpg,AMNE03.jpg,MN,1,num_4,16,num_4,0.933410503436,,,2017_Aug_11_1543,59.9946312568,MAFE4ImagesEEG,001,101126,
AFNE01.JPG,AFNE01.JPG,AFNE01.JPG,AFNE01.JPG,AFNE01.JPG,AFNE01.JPG,,,,,,,,,3,6,36,0,,,,,,,,,,,,,,,AMNE20.jpg,AMSA14.jpg,AMSA01.jpg,AMNE15.jpg,AMNE15.jpg,MN,1,num_4,16,num_4,0.633467498701,,,2017_Aug_11_1543,59.9946312568,MAFE4ImagesEEG,001,101126,
AFNE01.JPG,AFNE01.JPG,AFNE01.JPG,AFNE01.JPG,AFNE01.JPG,AFNE01.JPG,,,,,,,,,3,7,37,6,,,,,,,,,,,,,,,AMNE13.jpg,AMSA20.jpg,AMSA03.jpg,AMNE16.jpg,AMNE16.jpg,MN,1,num_4,32,num_8,0.783473801799,,,2017_Aug_11_1543,59.9946312568,MAFE4ImagesEEG,001,101126,
AFNE01.JPG,AFNE01.JPG,AFNE01.JPG,AFNE01.JPG,AFNE01.JPG,AFNE01.JPG,,,,,,,,,3,8,38,9,,,,,,,,,,,,,,,AMSA14.jpg,AMNE09.jpg,AMSA16.jpg,AMNE07.jpg,AMNE09.jpg,MN,1,num_6,16,num_6,1.16672808817,,,2017_Aug_11_1543,59.9946312568,MAFE4ImagesEEG,001,101126,
AFNE01.JPG,AFNE01.JPG,AFNE01.JPG,AFNE01.JPG,AFNE01.JPG,AFNE01.JPG,,,,,,,,,3,9,39,2,,,,,,,,,,,,,,,AMSA11.jpg,AMSA16.jpg,AMNE18.jpg,AMNE17.jpg,AMNE17.jpg,MN,1,num_4,32,num_8,0.950105668046,,,2017_Aug_11_1543,59.9946312568,MAFE4ImagesEEG,001,101126,
AFNE01.JPG,AFNE01.JPG,AFNE01.JPG,AFNE01.JPG,AFNE01.JPG,AFNE01.JPG,,,,,,,,,4,0,40,6,,,,,,,,,,,,,,,AMSA03.jpg,AMNE20.jpg,AMNE01.jpg,AMSA10.jpg,AMNE20.jpg,MN,1,num_6,16,num_6,0.766932913102,,,2017_Aug_11_1543,59.9946312568,MAFE4ImagesEEG,001,101126,
AFNE01.JPG,AFNE01.JPG,AFNE01.JPG,AFNE01.JPG,AFNE01.JPG,AFNE01.JPG,,,,,,,,,4,1,41,9,,,,,,,,,,,,,,,AMSA04.jpg,AMSA03.jpg,AMNE06.jpg,AMNE02.jpg,AMSA04.jpg,MS,2,num_8,16,num_8,1.18340785755,,,2017_Aug_11_1543,59.9946312568,MAFE4ImagesEEG,001,101126,
AFNE01.JPG,AFNE01.JPG,AFNE01.JPG,AFNE01.JPG,AFNE01.JPG,AFNE01.JPG,,,,,,,,,4,2,42,5,,,,,,,,,,,,,,,AMSA16.jpg,AMNE13.jpg,AMNE08.jpg,AMSA04.jpg,AMNE08.jpg,MN,1,num_2,32,num_8,0.783436275087,,,2017_Aug_11_1543,59.9946312568,MAFE4ImagesEEG,001,101126,
AFNE01.JPG,AFNE01.JPG,AFNE01.JPG,AFNE01.JPG,AFNE01.JPG,AFNE01.JPG,,,,,,,,,4,3,43,3,,,,,,,,,,,,,,,AMNE08.jpg,AMSA18.jpg,AMNE13.jpg,AMSA13.jpg,AMNE13.jpg,MN,1,num_2,16,num_2,1.1001158189,,,2017_Aug_11_1543,59.9946312568,MAFE4ImagesEEG,001,101126,
AFNE01.JPG,AFNE01.JPG,AFNE01.JPG,AFNE01.JPG,AFNE01.JPG,AFNE01.JPG,,,,,,,,,4,4,44,1,,,,,,,,,,,,,,,AMSA12.jpg,AMNE19.jpg,AMSA10.jpg,AMNE07.jpg,AMSA12.jpg,MS,2,num_8,16,num_8,0.800204247236,,,2017_Aug_11_1543,59.9946312568,MAFE4ImagesEEG,001,101126,
AFNE01.JPG,AFNE01.JPG,AFNE01.JPG,AFNE01.JPG,AFNE01.JPG,AFNE01.JPG,,,,,,,,,4,5,45,7,,,,,,,,,,,,,,,AMNE09.jpg,AMNE20.jpg,AMSA14.jpg,AMSA03.jpg,AMSA14.jpg,MS,2,num_2,32,num_8,1.0001295791,,,2017_Aug_11_1543,59.9946312568,MAFE4ImagesEEG,001,101126,
AFNE01.JPG,AFNE01.JPG,AFNE01.JPG,AFNE01.JPG,AFNE01.JPG,AFNE01.JPG,,,,,,,,,4,6,46,0,,,,,,,,,,,,,,,AMSA11.jpg,AMNE05.jpg,AMSA05.jpg,AMNE18.jpg,AMNE18.jpg,MN,1,num_4,16,num_4,0.616840010975,,,2017_Aug_11_1543,59.9946312568,MAFE4ImagesEEG,001,101126,
AFNE01.JPG,AFNE01.JPG,AFNE01.JPG,AFNE01.JPG,AFNE01.JPG,AFNE01.JPG,,,,,,,,,4,7,47,4,,,,,,,,,,,,,,,AMSA17.jpg,AMNE14.jpg,AMSA10.jpg,AMNE03.jpg,AMNE14.jpg,MN,1,num_6,16,num_6,1.20005747629,,,2017_Aug_11_1543,59.9946312568,MAFE4ImagesEEG,001,101126,
AFNE01.JPG,AFNE01.JPG,AFNE01.JPG,AFNE01.JPG,AFNE01.JPG,AFNE01.JPG,,,,,,,,,4,8,48,8,,,,,,,,,,,,,,,AMNE06.jpg,AMNE16.jpg,AMSA06.jpg,AMSA11.jpg,AMSA11.jpg,MS,2,num_4,16,num_4,0.533481900115,,,2017_Aug_11_1543,59.9946312568,MAFE4ImagesEEG,001,101126,
AFNE01.JPG,AFNE01.JPG,AFNE01.JPG,AFNE01.JPG,AFNE01.JPG,AFNE01.JPG,,,,,,,,,4,9,49,2,,,,,,,,,,,,,,,AMSA04.jpg,AMSA10.jpg,AMNE19.jpg,AMNE18.jpg,AMSA10.jpg,MS,2,num_6,32,num_8,0.733498322312,,,2017_Aug_11_1543,59.9946312568,MAFE4ImagesEEG,001,101126,
AFNE01.JPG,AFNE01.JPG,AFNE01.JPG,AFNE01.JPG,AFNE01.JPG,AFNE01.JPG,,,,,,,,,5,0,50,2,,,,,,,,,,,,,,,AMSA07.jpg,AMNE02.jpg,AMNE09.jpg,AMSA10.jpg,AMSA07.jpg,MS,2,num_8,16,num_8,0.933466953691,,,2017_Aug_11_1543,59.9946312568,MAFE4ImagesEEG,001,101126,
AFNE01.JPG,AFNE01.JPG,AFNE01.JPG,AFNE01.JPG,AFNE01.JPG,AFNE01.JPG,,,,,,,,,5,1,51,1,,,,,,,,,,,,,,,AMSA17.jpg,AMSA06.jpg,AMNE03.jpg,AMNE07.jpg,AMNE07.jpg,MN,1,num_4,16,num_4,0.900092020165,,,2017_Aug_11_1543,59.9946312568,MAFE4ImagesEEG,001,101126,
AFNE01.JPG,AFNE01.JPG,AFNE01.JPG,AFNE01.JPG,AFNE01.JPG,AFNE01.JPG,,,,,,,,,5,2,52,6,,,,,,,,,,,,,,,AMNE09.jpg,AMSA14.jpg,AMSA05.jpg,AMNE06.jpg,AMNE06.jpg,MN,1,num_4,32,num_8,2.84997958504,,,2017_Aug_11_1543,59.9946312568,MAFE4ImagesEEG,001,101126,
AFNE01.JPG,AFNE01.JPG,AFNE01.JPG,AFNE01.JPG,AFNE01.JPG,AFNE01.JPG,,,,,,,,,5,3,53,9,,,,,,,,,,,,,,,AMSA20.jpg,AMNE05.jpg,AMSA11.jpg,AMNE17.jpg,AMNE17.jpg,MN,1,num_4,16,num_4,0.933502234984,,,2017_Aug_11_1543,59.9946312568,MAFE4ImagesEEG,001,101126,
AFNE01.JPG,AFNE01.JPG,AFNE01.JPG,AFNE01.JPG,AFNE01.JPG,AFNE01.JPG,,,,,,,,,5,4,54,5,,,,,,,,,,,,,,,AMNE16.jpg,AMSA05.jpg,AMSA09.jpg,AMNE15.jpg,AMNE16.jpg,MN,1,num_8,16,num_8,0.466810935643,,,2017_Aug_11_1543,59.9946312568,MAFE4ImagesEEG,001,101126,
AFNE01.JPG,AFNE01.JPG,AFNE01.JPG,AFNE01.JPG,AFNE01.JPG,AFNE01.JPG,,,,,,,,,5,5,55,7,,,,,,,,,,,,,,,AMSA02.jpg,AMNE13.jpg,AMNE12.jpg,AMSA16.jpg,AMSA02.jpg,MS,2,num_8,16,num_8,0.850192235783,,,2017_Aug_11_1543,59.9946312568,MAFE4ImagesEEG,001,101126,
AFNE01.JPG,AFNE01.JPG,AFNE01.JPG,AFNE01.JPG,AFNE01.JPG,AFNE01.JPG,,,,,,,,,5,6,56,4,,,,,,,,,,,,,,,AMSA03.jpg,AMNE14.jpg,AMNE04.jpg,AMSA19.jpg,AMNE04.jpg,MN,1,num_2,16,num_2,1.15011952352,,,2017_Aug_11_1543,59.9946312568,MAFE4ImagesEEG,001,101126,
AFNE01.JPG,AFNE01.JPG,AFNE01.JPG,AFNE01.JPG,AFNE01.JPG,AFNE01.JPG,,,,,,,,,5,7,57,8,,,,,,,,,,,,,,,AMNE17.jpg,AMNE09.jpg,AMSA09.jpg,AMSA12.jpg,AMNE17.jpg,MN,1,num_8,16,num_8,1.20009917254,,,2017_Aug_11_1543,59.9946312568,MAFE4ImagesEEG,001,101126,
AFNE01.JPG,AFNE01.JPG,AFNE01.JPG,AFNE01.JPG,AFNE01.JPG,AFNE01.JPG,,,,,,,,,5,8,58,0,,,,,,,,,,,,,,,AMNE03.jpg,AMNE12.jpg,AMSA09.jpg,AMSA17.jpg,AMNE12.jpg,MN,1,num_6,32,num_8,0.950105988421,,,2017_Aug_11_1543,59.9946312568,MAFE4ImagesEEG,001,101126,
AFNE01.JPG,AFNE01.JPG,AFNE01.JPG,AFNE01.JPG,AFNE01.JPG,AFNE01.JPG,,,,,,,,,5,9,59,3,,,,,,,,,,,,,,,AMNE15.jpg,AMSA17.jpg,AMNE17.jpg,AMSA16.jpg,AMNE15.jpg,MN,1,num_8,16,num_8,2.23330379324,,,2017_Aug_11_1543,59.9946312568,MAFE4ImagesEEG,001,101126,
,,,,,,,,,,,,,,,,,,,,,,,,,,,,,,,,,,,,,,,,,,,space,12.7658369443,2017_Aug_11_1543,59.9946312568,MAFE4ImagesEEG,001,101126,
AFNE01.JPG,AFNE01.JPG,AFNE01.JPG,AFNE01.JPG,AFNE01.JPG,AFNE01.JPG,,,,,,,,,,,,,0,0,0,3,,,,,,,,,,,AFSA02.jpg,AFNE07.jpg,AFSA11.jpg,AFNE15.jpg,AFNE15.jpg,FN,3,num_4,16,num_4,0.600220541004,,,2017_Aug_11_1543,59.9946312568,MAFE4ImagesEEG,001,101126,
AFNE01.JPG,AFNE01.JPG,AFNE01.JPG,AFNE01.JPG,AFNE01.JPG,AFNE01.JPG,,,,,,,,,,,,,0,1,1,9,,,,,,,,,,,AFSA19.jpg,AFNE17.jpg,AFSA06.jpg,AFNE12.jpg,AFNE17.jpg,FN,3,num_6,16,num_6,0.833666101098,,,2017_Aug_11_1543,59.9946312568,MAFE4ImagesEEG,001,101126,
AFNE01.JPG,AFNE01.JPG,AFNE01.JPG,AFNE01.JPG,AFNE01.JPG,AFNE01.JPG,,,,,,,,,,,,,0,2,2,0,,,,,,,,,,,AFNE14.jpg,AFSA09.jpg,AFNE19.jpg,AFSA10.jpg,AFNE19.jpg,FN,3,num_2,16,num_2,0.800144910347,,,2017_Aug_11_1543,59.9946312568,MAFE4ImagesEEG,001,101126,
AFNE01.JPG,AFNE01.JPG,AFNE01.JPG,AFNE01.JPG,AFNE01.JPG,AFNE01.JPG,,,,,,,,,,,,,0,3,3,1,,,,,,,,,,,AFSA17.jpg,AFNE20.jpg,AFSA05.jpg,AFNE12.jpg,AFSA17.jpg,FS,4,num_8,32,num_4,1.16676048329,,,2017_Aug_11_1543,59.9946312568,MAFE4ImagesEEG,001,101126,
AFNE01.JPG,AFNE01.JPG,AFNE01.JPG,AFNE01.JPG,AFNE01.JPG,AFNE01.JPG,,,,,,,,,,,,,0,4,4,8,,,,,,,,,,,AFSA17.jpg,AFNE15.jpg,AFNE12.jpg,AFSA15.jpg,AFNE15.jpg,FN,3,num_6,32,num_4,0.650093383156,,,2017_Aug_11_1543,59.9946312568,MAFE4ImagesEEG,001,101126,
AFNE01.JPG,AFNE01.JPG,AFNE01.JPG,AFNE01.JPG,AFNE01.JPG,AFNE01.JPG,,,,,,,,,,,,,0,5,5,7,,,,,,,,,,,AFNE14.jpg,AFNE08.jpg,AFSA08.jpg,AFSA12.jpg,AFNE08.jpg,FN,3,num_6,32,num_8,1.45004071807,,,2017_Aug_11_1543,59.9946312568,MAFE4ImagesEEG,001,101126,
AFNE01.JPG,AFNE01.JPG,AFNE01.JPG,AFNE01.JPG,AFNE01.JPG,AFNE01.JPG,,,,,,,,,,,,,0,6,6,5,,,,,,,,,,,AFSA14.jpg,AFNE07.jpg,AFNE14.jpg,AFSA08.jpg,AFNE14.jpg,FN,3,num_2,16,num_2,0.899987459183,,,2017_Aug_11_1543,59.9946312568,MAFE4ImagesEEG,001,101126,
AFNE01.JPG,AFNE01.JPG,AFNE01.JPG,AFNE01.JPG,AFNE01.JPG,AFNE01.JPG,,,,,,,,,,,,,0,7,7,2,,,,,,,,,,,AFNE05.jpg,AFNE13.jpg,AFSA02.jpg,AFSA11.jpg,AFNE13.jpg,FN,3,num_6,16,num_6,1.75006326614,,,2017_Aug_11_1543,59.9946312568,MAFE4ImagesEEG,001,101126,
AFNE01.JPG,AFNE01.JPG,AFNE01.JPG,AFNE01.JPG,AFNE01.JPG,AFNE01.JPG,,,,,,,,,,,,,0,8,8,6,,,,,,,,,,,AFSA05.jpg,AFSA20.jpg,AFNE11.jpg,AFNE04.jpg,AFSA05.jpg,FS,4,num_8,16,num_8,0.933403768111,,,2017_Aug_11_1543,59.9946312568,MAFE4ImagesEEG,001,101126,
AFNE01.JPG,AFNE01.JPG,AFNE01.JPG,AFNE01.JPG,AFNE01.JPG,AFNE01.JPG,,,,,,,,,,,,,0,9,9,4,,,,,,,,,,,AFNE02.jpg,AFNE16.jpg,AFSA14.jpg,AFSA15.jpg,AFNE16.jpg,FN,3,num_6,32,num_8,1.01674808655,,,2017_Aug_11_1543,59.9946312568,MAFE4ImagesEEG,001,101126,
AFNE01.JPG,AFNE01.JPG,AFNE01.JPG,AFNE01.JPG,AFNE01.JPG,AFNE01.JPG,,,,,,,,,,,,,1,0,10,9,,,,,,,,,,,AFNE14.jpg,AFNE01.jpg,AFSA04.jpg,AFSA17.jpg,AFNE01.jpg,FN,3,num_6,32,num_8,1.00013150321,,,2017_Aug_11_1543,59.9946312568,MAFE4ImagesEEG,001,101126,
AFNE01.JPG,AFNE01.JPG,AFNE01.JPG,AFNE01.JPG,AFNE01.JPG,AFNE01.JPG,,,,,,,,,,,,,1,1,11,7,,,,,,,,,,,AFNE02.jpg,AFSA20.jpg,AFNE13.jpg,AFSA09.jpg,AFSA20.jpg,FS,4,num_6,16,num_6,2.49998380244,,,2017_Aug_11_1543,59.9946312568,MAFE4ImagesEEG,001,101126,
AFNE01.JPG,AFNE01.JPG,AFNE01.JPG,AFNE01.JPG,AFNE01.JPG,AFNE01.JPG,,,,,,,,,,,,,1,2,12,1,,,,,,,,,,,AFSA14.jpg,AFSA20.jpg,AFNE11.jpg,AFNE18.jpg,AFSA14.jpg,FS,4,num_8,16,num_8,1.38346212637,,,2017_Aug_11_1543,59.9946312568,MAFE4ImagesEEG,001,101126,
AFNE01.JPG,AFNE01.JPG,AFNE01.JPG,AFNE01.JPG,AFNE01.JPG,AFNE01.JPG,,,,,,,,,,,,,1,3,13,5,,,,,,,,,,,AFSA16.jpg,AFNE11.jpg,AFNE15.jpg,AFSA11.jpg,AFNE11.jpg,FN,3,num_6,32,num_4,0.983431848697,,,2017_Aug_11_1543,59.9946312568,MAFE4ImagesEEG,001,101126,
AFNE01.JPG,AFNE01.JPG,AFNE01.JPG,AFNE01.JPG,AFNE01.JPG,AFNE01.JPG,,,,,,,,,,,,,1,4,14,0,,,,,,,,,,,AFSA10.jpg,AFNE20.jpg,AFNE07.jpg,AFSA04.jpg,AFNE20.jpg,FN,3,num_6,16,num_6,0.866743067279,,,2017_Aug_11_1543,59.9946312568,MAFE4ImagesEEG,001,101126,
AFNE01.JPG,AFNE01.JPG,AFNE01.JPG,AFNE01.JPG,AFNE01.JPG,AFNE01.JPG,,,,,,,,,,,,,1,5,15,4,,,,,,,,,,,AFSA17.jpg,AFNE06.jpg,AFSA04.jpg,AFNE13.jpg,AFSA17.jpg,FS,4,num_8,16,num_8,0.800120855216,,,2017_Aug_11_1543,59.9946312568,MAFE4ImagesEEG,001,101126,
AFNE01.JPG,AFNE01.JPG,AFNE01.JPG,AFNE01.JPG,AFNE01.JPG,AFNE01.JPG,,,,,,,,,,,,,1,6,16,6,,,,,,,,,,,AFNE11.jpg,AFNE07.jpg,AFSA16.jpg,AFSA03.jpg,AFNE07.jpg,FN,3,num_6,16,num_6,1.75002702232,,,2017_Aug_11_1543,59.9946312568,MAFE4ImagesEEG,001,101126,
AFNE01.JPG,AFNE01.JPG,AFNE01.JPG,AFNE01.JPG,AFNE01.JPG,AFNE01.JPG,,,,,,,,,,,,,1,7,17,8,,,,,,,,,,,AFNE15.jpg,AFNE09.jpg,AFSA10.jpg,AFSA02.jpg,AFNE09.jpg,FN,3,num_6,16,num_6,1.13344424544,,,2017_Aug_11_1543,59.9946312568,MAFE4ImagesEEG,001,101126,
AFNE01.JPG,AFNE01.JPG,AFNE01.JPG,AFNE01.JPG,AFNE01.JPG,AFNE01.JPG,,,,,,,,,,,,,1,8,18,2,,,,,,,,,,,AFNE16.jpg,AFSA03.jpg,AFNE10.jpg,AFSA06.jpg,AFSA06.jpg,FS,4,num_4,32,num_8,0.666733380873,,,2017_Aug_11_1543,59.9946312568,MAFE4ImagesEEG,001,101126,
AFNE01.JPG,AFNE01.JPG,AFNE01.JPG,AFNE01.JPG,AFNE01.JPG,AFNE01.JPG,,,,,,,,,,,,,1,9,19,3,,,,,,,,,,,AFNE10.jpg,AFSA19.jpg,AFSA05.jpg,AFNE18.jpg,AFNE18.jpg,FN,3,num_4,16,num_4,0.666784699075,,,2017_Aug_11_1543,59.9946312568,MAFE4ImagesEEG,001,101126,
AFNE01.JPG,AFNE01.JPG,AFNE01.JPG,AFNE01.JPG,AFNE01.JPG,AFNE01.JPG,,,,,,,,,,,,,2,0,20,4,,,,,,,,,,,AFNE07.jpg,AFSA15.jpg,AFNE17.jpg,AFSA17.jpg,AFNE07.jpg,FN,3,num_8,16,num_8,0.666809395887,,,2017_Aug_11_1543,59.9946312568,MAFE4ImagesEEG,001,101126,
AFNE01.JPG,AFNE01.JPG,AFNE01.JPG,AFNE01.JPG,AFNE01.JPG,AFNE01.JPG,,,,,,,,,,,,,2,1,21,5,,,,,,,,,,,AFSA02.jpg,AFSA20.jpg,AFNE09.jpg,AFNE13.jpg,AFNE13.jpg,FN,3,num_4,32,num_6,1.81638847291,,,2017_Aug_11_1543,59.9946312568,MAFE4ImagesEEG,001,101126,
AFNE01.JPG,AFNE01.JPG,AFNE01.JPG,AFNE01.JPG,AFNE01.JPG,AFNE01.JPG,,,,,,,,,,,,,2,2,22,7,,,,,,,,,,,AFSA16.jpg,AFNE04.jpg,AFSA04.jpg,AFNE20.jpg,AFNE04.jpg,FN,3,num_6,32,num_4,0.65012577828,,,2017_Aug_11_1543,59.9946312568,MAFE4ImagesEEG,001,101126,
AFNE01.JPG,AFNE01.JPG,AFNE01.JPG,AFNE01.JPG,AFNE01.JPG,AFNE01.JPG,,,,,,,,,,,,,2,3,23,9,,,,,,,,,,,AFSA08.jpg,AFNE02.jpg,AFSA14.jpg,AFNE18.jpg,AFSA14.jpg,FS,4,num_2,16,num_2,0.566799741704,,,2017_Aug_11_1543,59.9946312568,MAFE4ImagesEEG,001,101126,
AFNE01.JPG,AFNE01.JPG,AFNE01.JPG,AFNE01.JPG,AFNE01.JPG,AFNE01.JPG,,,,,,,,,,,,,2,4,24,1,,,,,,,,,,,AFNE17.jpg,AFSA09.jpg,AFNE10.jpg,AFSA16.jpg,AFSA16.jpg,FS,4,num_4,16,num_4,0.850397509057,,,2017_Aug_11_1543,59.9946312568,MAFE4ImagesEEG,001,101126,
AFNE01.JPG,AFNE01.JPG,AFNE01.JPG,AFNE01.JPG,AFNE01.JPG,AFNE01.JPG,,,,,,,,,,,,,2,5,25,2,,,,,,,,,,,AFSA03.jpg,AFNE05.jpg,AFNE08.jpg,AFSA15.jpg,AFSA15.jpg,FS,4,num_4,16,num_4,0.68347376911,,,2017_Aug_11_1543,59.9946312568,MAFE4ImagesEEG,001,101126,
AFNE01.JPG,AFNE01.JPG,AFNE01.JPG,AFNE01.JPG,AFNE01.JPG,AFNE01.JPG,,,,,,,,,,,,,2,6,26,0,,,,,,,,,,,AFSA15.jpg,AFNE20.jpg,AFSA12.jpg,AFNE11.jpg,AFNE20.jpg,FN,3,num_6,32,num_4,0.983500808012,,,2017_Aug_11_1543,59.9946312568,MAFE4ImagesEEG,001,101126,
AFNE01.JPG,AFNE01.JPG,AFNE01.JPG,AFNE01.JPG,AFNE01.JPG,AFNE01.JPG,,,,,,,,,,,,,2,7,27,6,,,,,,,,,,,AFSA11.jpg,AFNE05.jpg,AFNE03.jpg,AFSA15.jpg,AFNE05.jpg,FN,3,num_6,16,num_6,1.00008852454,,,2017_Aug_11_1543,59.9946312568,MAFE4ImagesEEG,001,101126,
AFNE01.JPG,AFNE01.JPG,AFNE01.JPG,AFNE01.JPG,AFNE01.JPG,AFNE01.JPG,,,,,,,,,,,,,2,8,28,8,,,,,,,,,,,AFSA01.jpg,AFNE19.jpg,AFNE16.jpg,AFSA18.jpg,AFSA01.jpg,FS,4,num_8,32,num_4,0.833492580801,,,2017_Aug_11_1543,59.9946312568,MAFE4ImagesEEG,001,101126,
AFNE01.JPG,AFNE01.JPG,AFNE01.JPG,AFNE01.JPG,AFNE01.JPG,AFNE01.JPG,,,,,,,,,,,,,2,9,29,3,,,,,,,,,,,AFNE14.jpg,AFSA01.jpg,AFNE04.jpg,AFSA08.jpg,AFNE04.jpg,FN,3,num_2,32,num_8,0.733444758225,,,2017_Aug_11_1543,59.9946312568,MAFE4ImagesEEG,001,101126,
AFNE01.JPG,AFNE01.JPG,AFNE01.JPG,AFNE01.JPG,AFNE01.JPG,AFNE01.JPG,,,,,,,,,,,,,3,0,30,1,,,,,,,,,,,AFSA16.jpg,AFNE01.jpg,AFNE06.jpg,AFSA01.jpg,AFNE06.jpg,FN,3,num_2,32,num_6,1.18345596828,,,2017_Aug_11_1543,59.9946312568,MAFE4ImagesEEG,001,101126,
AFNE01.JPG,AFNE01.JPG,AFNE01.JPG,AFNE01.JPG,AFNE01.JPG,AFNE01.JPG,,,,,,,,,,,,,3,1,31,5,,,,,,,,,,,AFNE03.jpg,AFSA20.jpg,AFNE06.jpg,AFSA19.jpg,AFSA19.jpg,FS,4,num_4,16,num_4,0.633487384766,,,2017_Aug_11_1543,59.9946312568,MAFE4ImagesEEG,001,101126,
AFNE01.JPG,AFNE01.JPG,AFNE01.JPG,AFNE01.JPG,AFNE01.JPG,AFNE01.JPG,,,,,,,,,,,,,3,2,32,7,,,,,,,,,,,AFNE20.jpg,AFSA06.jpg,AFSA20.jpg,AFNE10.jpg,AFSA06.jpg,FS,4,num_6,16,num_6,1.38314844295,,,2017_Aug_11_1543,59.9946312568,MAFE4ImagesEEG,001,101126,
AFNE01.JPG,AFNE01.JPG,AFNE01.JPG,AFNE01.JPG,AFNE01.JPG,AFNE01.JPG,,,,,,,,,,,,,3,3,33,9,,,,,,,,,,,AFNE16.jpg,AFSA10.jpg,AFSA16.jpg,AFNE12.jpg,AFSA10.jpg,FS,4,num_6,32,num_4,1.35007789172,,,2017_Aug_11_1543,59.9946312568,MAFE4ImagesEEG,001,101126,
AFNE01.JPG,AFNE01.JPG,AFNE01.JPG,AFNE01.JPG,AFNE01.JPG,AFNE01.JPG,,,,,,,,,,,,,3,4,34,0,,,,,,,,,,,AFSA07.jpg,AFNE11.jpg,AFSA16.jpg,AFNE12.jpg,AFNE11.jpg,FN,3,num_6,16,num_6,1.05009479495,,,2017_Aug_11_1543,59.9946312568,MAFE4ImagesEEG,001,101126,
AFNE01.JPG,AFNE01.JPG,AFNE01.JPG,AFNE01.JPG,AFNE01.JPG,AFNE01.JPG,,,,,,,,,,,,,3,5,35,3,,,,,,,,,,,AFNE12.jpg,AFNE04.jpg,AFSA11.jpg,AFSA13.jpg,AFNE12.jpg,FN,3,num_8,16,num_8,0.550083087757,,,2017_Aug_11_1543,59.9946312568,MAFE4ImagesEEG,001,101126,
AFNE01.JPG,AFNE01.JPG,AFNE01.JPG,AFNE01.JPG,AFNE01.JPG,AFNE01.JPG,,,,,,,,,,,,,3,6,36,6,,,,,,,,,,,AFSA18.jpg,AFNE07.jpg,AFNE13.jpg,AFSA01.jpg,AFNE07.jpg,FN,3,num_6,16,num_6,1.00011193845,,,2017_Aug_11_1543,59.9946312568,MAFE4ImagesEEG,001,101126,
AFNE01.JPG,AFNE01.JPG,AFNE01.JPG,AFNE01.JPG,AFNE01.JPG,AFNE01.JPG,,,,,,,,,,,,,3,7,37,2,,,,,,,,,,,AFSA17.jpg,AFNE14.jpg,AFNE15.jpg,AFSA05.jpg,AFNE15.jpg,FN,3,num_2,16,num_2,0.766751374118,,,2017_Aug_11_1543,59.9946312568,MAFE4ImagesEEG,001,101126,
AFNE01.JPG,AFNE01.JPG,AFNE01.JPG,AFNE01.JPG,AFNE01.JPG,AFNE01.JPG,,,,,,,,,,,,,3,8,38,8,,,,,,,,,,,AFSA02.jpg,AFSA08.jpg,AFNE18.jpg,AFNE12.jpg,AFSA02.jpg,FS,4,num_8,16,num_8,0.916866728105,,,2017_Aug_11_1543,59.9946312568,MAFE4ImagesEEG,001,101126,
AFNE01.JPG,AFNE01.JPG,AFNE01.JPG,AFNE01.JPG,AFNE01.JPG,AFNE01.JPG,,,,,,,,,,,,,3,9,39,4,,,,,,,,,,,AFSA04.jpg,AFNE07.jpg,AFNE01.jpg,AFSA17.jpg,AFNE01.jpg,FN,3,num_2,32,num_6,0.91674741311,,,2017_Aug_11_1543,59.9946312568,MAFE4ImagesEEG,001,101126,
AFNE01.JPG,AFNE01.JPG,AFNE01.JPG,AFNE01.JPG,AFNE01.JPG,AFNE01.JPG,,,,,,,,,,,,,4,0,40,5,,,,,,,,,,,AFNE08.jpg,AFSA15.jpg,AFNE20.jpg,AFSA14.jpg,AFNE08.jpg,FN,3,num_8,16,num_8,1.63338410622,,,2017_Aug_11_1543,59.9946312568,MAFE4ImagesEEG,001,101126,
AFNE01.JPG,AFNE01.JPG,AFNE01.JPG,AFNE01.JPG,AFNE01.JPG,AFNE01.JPG,,,,,,,,,,,,,4,1,41,6,,,,,,,,,,,AFNE20.jpg,AFSA06.jpg,AFSA05.jpg,AFNE12.jpg,AFNE20.jpg,FN,3,num_8,32,num_6,1.0334734004,,,2017_Aug_11_1543,59.9946312568,MAFE4ImagesEEG,001,101126,
AFNE01.JPG,AFNE01.JPG,AFNE01.JPG,AFNE01.JPG,AFNE01.JPG,AFNE01.JPG,,,,,,,,,,,,,4,2,42,4,,,,,,,,,,,AFNE17.jpg,AFSA06.jpg,AFSA18.jpg,AFNE10.jpg,AFSA06.jpg,FS,4,num_6,16,num_6,0.816744815093,,,2017_Aug_11_1543,59.9946312568,MAFE4ImagesEEG,001,101126,
AFNE01.JPG,AFNE01.JPG,AFNE01.JPG,AFNE01.JPG,AFNE01.JPG,AFNE01.JPG,,,,,,,,,,,,,4,3,43,7,,,,,,,,,,,AFSA07.jpg,AFNE19.jpg,AFSA12.jpg,AFNE18.jpg,AFSA07.jpg,FS,4,num_8,16,num_8,1.26642534183,,,2017_Aug_11_1543,59.9946312568,MAFE4ImagesEEG,001,101126,
AFNE01.JPG,AFNE01.JPG,AFNE01.JPG,AFNE01.JPG,AFNE01.JPG,AFNE01.JPG,,,,,,,,,,,,,4,4,44,0,,,,,,,,,,,AFSA14.jpg,AFSA06.jpg,AFNE17.jpg,AFNE05.jpg,AFSA14.jpg,FS,4,num_8,16,num_8,0.63352940185,,,2017_Aug_11_1543,59.9946312568,MAFE4ImagesEEG,001,101126,
AFNE01.JPG,AFNE01.JPG,AFNE01.JPG,AFNE01.JPG,AFNE01.JPG,AFNE01.JPG,,,,,,,,,,,,,4,5,45,2,,,,,,,,,,,AFNE11.jpg,AFSA05.jpg,AFSA11.jpg,AFNE17.jpg,AFNE17.jpg,FN,3,num_4,32,num_8,0.750138319097,,,2017_Aug_11_1543,59.9946312568,MAFE4ImagesEEG,001,101126,
AFNE01.JPG,AFNE01.JPG,AFNE01.JPG,AFNE01.JPG,AFNE01.JPG,AFNE01.JPG,,,,,,,,,,,,,4,6,46,1,,,,,,,,,,,AFNE01.jpg,AFSA05.jpg,AFNE06.jpg,AFSA02.jpg,AFSA05.jpg,FS,4,num_6,32,num_4,0.800148117356,,,2017_Aug_11_1543,59.9946312568,MAFE4ImagesEEG,001,101126,
AFNE01.JPG,AFNE01.JPG,AFNE01.JPG,AFNE01.JPG,AFNE01.JPG,AFNE01.JPG,,,,,,,,,,,,,4,7,47,9,,,,,,,,,,,AFNE16.jpg,AFSA10.jpg,AFSA06.jpg,AFNE15.jpg,AFSA10.jpg,FS,4,num_6,16,num_6,0.916758318432,,,2017_Aug_11_1543,59.9946312568,MAFE4ImagesEEG,001,101126,
AFNE01.JPG,AFNE01.JPG,AFNE01.JPG,AFNE01.JPG,AFNE01.JPG,AFNE01.JPG,,,,,,,,,,,,,4,8,48,3,,,,,,,,,,,AFNE03.jpg,AFSA16.jpg,AFNE19.jpg,AFSA18.jpg,AFNE19.jpg,FN,3,num_2,16,num_2,2.13338266313,,,2017_Aug_11_1543,59.9946312568,MAFE4ImagesEEG,001,101126,
AFNE01.JPG,AFNE01.JPG,AFNE01.JPG,AFNE01.JPG,AFNE01.JPG,AFNE01.JPG,,,,,,,,,,,,,4,9,49,8,,,,,,,,,,,AFSA09.jpg,AFNE06.jpg,AFSA03.jpg,AFNE19.jpg,AFNE19.jpg,FN,3,num_4,16,num_4,0.700160273816,,,2017_Aug_11_1543,59.9946312568,MAFE4ImagesEEG,001,101126,
AFNE01.JPG,AFNE01.JPG,AFNE01.JPG,AFNE01.JPG,AFNE01.JPG,AFNE01.JPG,,,,,,,,,,,,,5,0,50,0,,,,,,,,,,,AFNE15.jpg,AFSA17.jpg,AFSA06.jpg,AFNE08.jpg,AFNE08.jpg,FN,3,num_4,32,num_8,1.08351591462,,,2017_Aug_11_1543,59.9946312568,MAFE4ImagesEEG,001,101126,
AFNE01.JPG,AFNE01.JPG,AFNE01.JPG,AFNE01.JPG,AFNE01.JPG,AFNE01.JPG,,,,,,,,,,,,,5,1,51,9,,,,,,,,,,,AFSA18.jpg,AFNE10.jpg,AFNE08.jpg,AFSA14.jpg,AFNE10.jpg,FN,3,num_6,16,num_6,1.03344325116,,,2017_Aug_11_1543,59.9946312568,MAFE4ImagesEEG,001,101126,
AFNE01.JPG,AFNE01.JPG,AFNE01.JPG,AFNE01.JPG,AFNE01.JPG,AFNE01.JPG,,,,,,,,,,,,,5,2,52,5,,,,,,,,,,,AFSA10.jpg,AFSA05.jpg,AFNE06.jpg,AFNE01.jpg,AFNE01.jpg,FN,3,num_4,16,num_4,0.450139185414,,,2017_Aug_11_1543,59.9946312568,MAFE4ImagesEEG,001,101126,
AFNE01.JPG,AFNE01.JPG,AFNE01.JPG,AFNE01.JPG,AFNE01.JPG,AFNE01.JPG,,,,,,,,,,,,,5,3,53,8,,,,,,,,,,,AFNE15.jpg,AFNE13.jpg,AFSA14.jpg,AFSA11.jpg,AFSA11.jpg,FS,4,num_4,32,num_2,2.68334643543,,,2017_Aug_11_1543,59.9946312568,MAFE4ImagesEEG,001,101126,
AFNE01.JPG,AFNE01.JPG,AFNE01.JPG,AFNE01.JPG,AFNE01.JPG,AFNE01.JPG,,,,,,,,,,,,,5,4,54,2,,,,,,,,,,,AFNE10.jpg,AFSA15.jpg,AFNE05.jpg,AFSA19.jpg,AFSA19.jpg,FS,4,num_4,16,num_4,0.416808834765,,,2017_Aug_11_1543,59.9946312568,MAFE4ImagesEEG,001,101126,
AFNE01.JPG,AFNE01.JPG,AFNE01.JPG,AFNE01.JPG,AFNE01.JPG,AFNE01.JPG,,,,,,,,,,,,,5,5,55,1,,,,,,,,,,,AFSA17.jpg,AFSA15.jpg,AFNE20.jpg,AFNE16.jpg,AFNE16.jpg,FN,3,num_4,16,num_4,0.916760242544,,,2017_Aug_11_1543,59.9946312568,MAFE4ImagesEEG,001,101126,
AFNE01.JPG,AFNE01.JPG,AFNE01.JPG,AFNE01.JPG,AFNE01.JPG,AFNE01.JPG,,,,,,,,,,,,,5,6,56,6,,,,,,,,,,,AFSA16.jpg,AFSA18.jpg,AFNE16.jpg,AFNE07.jpg,AFNE07.jpg,FN,3,num_4,16,num_4,0.866764556617,,,2017_Aug_11_1543,59.9946312568,MAFE4ImagesEEG,001,101126,
AFNE01.JPG,AFNE01.JPG,AFNE01.JPG,AFNE01.JPG,AFNE01.JPG,AFNE01.JPG,,,,,,,,,,,,,5,7,57,4,,,,,,,,,,,AFNE20.jpg,AFSA11.jpg,AFNE05.jpg,AFSA15.jpg,AFSA15.jpg,FS,4,num_4,16,num_4,0.483520854264,,,2017_Aug_11_1543,59.9946312568,MAFE4ImagesEEG,001,101126,
AFNE01.JPG,AFNE01.JPG,AFNE01.JPG,AFNE01.JPG,AFNE01.JPG,AFNE01.JPG,,,,,,,,,,,,,5,8,58,3,,,,,,,,,,,AFNE02.jpg,AFSA05.jpg,AFSA04.jpg,AFNE12.jpg,AFSA05.jpg,FS,4,num_6,32,num_8,0.983531598933,,,2017_Aug_11_1543,59.9946312568,MAFE4ImagesEEG,001,101126,
AFNE01.JPG,AFNE01.JPG,AFNE01.JPG,AFNE01.JPG,AFNE01.JPG,AFNE01.JPG,,,,,,,,,,,,,5,9,59,7,,,,,,,,,,,AFSA08.jpg,AFSA09.jpg,AFNE19.jpg,AFNE12.jpg,AFNE19.jpg,FN,3,num_2,16,num_2,1.21678054519,,,2017_Aug_11_1543,59.9946312568,MAFE4ImagesEEG,001,101126,
,,,,,,,,,,,,,,,,,,,,,,,,,,,,,,,,,,,,,,,,,,,space,38.4969576197,2017_Aug_11_1543,59.9946312568,MAFE4ImagesEEG,001,101126,
AFNE01.JPG,AFNE01.JPG,AFNE01.JPG,AFNE01.JPG,AFNE01.JPG,AFNE01.JPG,,,,,,,,,,,,,,,,,0,0,0,3,,,,,,,AMNE11.jpg,AMNE04.jpg,AMSA11.jpg,AMSA02.jpg,AMSA02.jpg,MS,2,num_4,32,num_8,0.650145343505,,,2017_Aug_11_1543,59.9946312568,MAFE4ImagesEEG,001,101126,
AFNE01.JPG,AFNE01.JPG,AFNE01.JPG,AFNE01.JPG,AFNE01.JPG,AFNE01.JPG,,,,,,,,,,,,,,,,,0,1,1,8,,,,,,,AMSA04.jpg,AMNE19.jpg,AMSA13.jpg,AMNE06.jpg,AMSA04.jpg,MS,2,num_8,16,num_8,0.783439161256,,,2017_Aug_11_1543,59.9946312568,MAFE4ImagesEEG,001,101126,
AFNE01.JPG,AFNE01.JPG,AFNE01.JPG,AFNE01.JPG,AFNE01.JPG,AFNE01.JPG,,,,,,,,,,,,,,,,,0,2,2,2,,,,,,,AMNE20.jpg,AMSA10.jpg,AMSA20.jpg,AMNE06.jpg,AMNE20.jpg,MN,1,num_8,32,num_6,0.800167362206,,,2017_Aug_11_1543,59.9946312568,MAFE4ImagesEEG,001,101126,
AFNE01.JPG,AFNE01.JPG,AFNE01.JPG,AFNE01.JPG,AFNE01.JPG,AFNE01.JPG,,,,,,,,,,,,,,,,,0,3,3,7,,,,,,,AMSA19.jpg,AMNE14.jpg,AMNE18.jpg,AMSA15.jpg,AMSA15.jpg,MS,2,num_4,16,num_4,0.600130733568,,,2017_Aug_11_1543,59.9946312568,MAFE4ImagesEEG,001,101126,
AFNE01.JPG,AFNE01.JPG,AFNE01.JPG,AFNE01.JPG,AFNE01.JPG,AFNE01.JPG,,,,,,,,,,,,,,,,,0,4,4,6,,,,,,,AMNE08.jpg,AMSA02.jpg,AMSA07.jpg,AMNE09.jpg,AMSA02.jpg,MS,2,num_6,16,num_6,0.916749978904,,,2017_Aug_11_1543,59.9946312568,MAFE4ImagesEEG,001,101126,
AFNE01.JPG,AFNE01.JPG,AFNE01.JPG,AFNE01.JPG,AFNE01.JPG,AFNE01.JPG,,,,,,,,,,,,,,,,,0,5,5,5,,,,,,,AMSA07.jpg,AMSA10.jpg,AMNE16.jpg,AMNE10.jpg,AMNE10.jpg,MN,1,num_4,16,num_4,0.750128376298,,,2017_Aug_11_1543,59.9946312568,MAFE4ImagesEEG,001,101126,
AFNE01.JPG,AFNE01.JPG,AFNE01.JPG,AFNE01.JPG,AFNE01.JPG,AFNE01.JPG,,,,,,,,,,,,,,,,,0,6,6,9,,,,,,,AMNE05.jpg,AMSA17.jpg,AMNE08.jpg,AMSA01.jpg,AMSA17.jpg,MS,2,num_6,16,num_6,1.08341552271,,,2017_Aug_11_1543,59.9946312568,MAFE4ImagesEEG,001,101126,
AFNE01.JPG,AFNE01.JPG,AFNE01.JPG,AFNE01.JPG,AFNE01.JPG,AFNE01.JPG,,,,,,,,,,,,,,,,,0,7,7,0,,,,,,,AMNE01.jpg,AMSA19.jpg,AMNE19.jpg,AMSA01.jpg,AMNE19.jpg,MN,1,num_2,16,num_2,1.46670060093,,,2017_Aug_11_1543,59.9946312568,MAFE4ImagesEEG,001,101126,
AFNE01.JPG,AFNE01.JPG,AFNE01.JPG,AFNE01.JPG,AFNE01.JPG,AFNE01.JPG,,,,,,,,,,,,,,,,,0,8,8,1,,,,,,,AMNE09.jpg,AMSA04.jpg,AMNE01.jpg,AMSA05.jpg,AMSA04.jpg,MS,2,num_6,32,num_4,0.983451093081,,,2017_Aug_11_1543,59.9946312568,MAFE4ImagesEEG,001,101126,
AFNE01.JPG,AFNE01.JPG,AFNE01.JPG,AFNE01.JPG,AFNE01.JPG,AFNE01.JPG,,,,,,,,,,,,,,,,,0,9,9,4,,,,,,,AMSA16.jpg,AMNE15.jpg,AMNE07.jpg,AMSA20.jpg,AMSA16.jpg,MS,2,num_8,16,num_8,0.700044166297,,,2017_Aug_11_1543,59.9946312568,MAFE4ImagesEEG,001,101126,
AFNE01.JPG,AFNE01.JPG,AFNE01.JPG,AFNE01.JPG,AFNE01.JPG,AFNE01.JPG,,,,,,,,,,,,,,,,,1,0,10,4,,,,,,,AMSA02.jpg,AMNE14.jpg,AMSA08.jpg,AMNE02.jpg,AMSA08.jpg,MS,2,num_2,16,num_2,1.28349673422,,,2017_Aug_11_1543,59.9946312568,MAFE4ImagesEEG,001,101126,
AFNE01.JPG,AFNE01.JPG,AFNE01.JPG,AFNE01.JPG,AFNE01.JPG,AFNE01.JPG,,,,,,,,,,,,,,,,,1,1,11,0,,,,,,,AMSA18.jpg,AMNE11.jpg,AMNE14.jpg,AMSA20.jpg,AMSA20.jpg,MS,2,num_4,32,num_8,0.833407264203,,,2017_Aug_11_1543,59.9946312568,MAFE4ImagesEEG,001,101126,
AFNE01.JPG,AFNE01.JPG,AFNE01.JPG,AFNE01.JPG,AFNE01.JPG,AFNE01.JPG,,,,,,,,,,,,,,,,,1,2,12,6,,,,,,,AMSA12.jpg,AMSA05.jpg,AMNE16.jpg,AMNE20.jpg,AMSA05.jpg,MS,2,num_6,16,num_6,0.916728168726,,,2017_Aug_11_1543,59.9946312568,MAFE4ImagesEEG,001,101126,
AFNE01.JPG,AFNE01.JPG,AFNE01.JPG,AFNE01.JPG,AFNE01.JPG,AFNE01.JPG,,,,,,,,,,,,,,,,,1,3,13,5,,,,,,,AMSA08.jpg,AMNE17.jpg,AMSA03.jpg,AMNE04.jpg,AMSA08.jpg,MS,2,num_8,16,num_8,0.516771981493,,,2017_Aug_11_1543,59.9946312568,MAFE4ImagesEEG,001,101126,
AFNE01.JPG,AFNE01.JPG,AFNE01.JPG,AFNE01.JPG,AFNE01.JPG,AFNE01.JPG,,,,,,,,,,,,,,,,,1,4,14,7,,,,,,,AMNE11.jpg,AMNE09.jpg,AMSA07.jpg,AMSA04.jpg,AMSA04.jpg,MS,2,num_4,16,num_4,0.700182404835,,,2017_Aug_11_1543,59.9946312568,MAFE4ImagesEEG,001,101126,
AFNE01.JPG,AFNE01.JPG,AFNE01.JPG,AFNE01.JPG,AFNE01.JPG,AFNE01.JPG,,,,,,,,,,,,,,,,,1,5,15,1,,,,,,,AMSA14.jpg,AMNE11.jpg,AMNE01.jpg,AMSA20.jpg,AMNE11.jpg,MN,1,num_6,16,num_6,0.766784731299,,,2017_Aug_11_1543,59.9946312568,MAFE4ImagesEEG,001,101126,
AFNE01.JPG,AFNE01.JPG,AFNE01.JPG,AFNE01.JPG,AFNE01.JPG,AFNE01.JPG,,,,,,,,,,,,,,,,,1,6,16,2,,,,,,,AMNE03.jpg,AMSA18.jpg,AMSA16.jpg,AMNE07.jpg,AMNE07.jpg,MN,1,num_4,32,num_6,1.36677850876,,,2017_Aug_11_1543,59.9946312568,MAFE4ImagesEEG,001,101126,
AFNE01.JPG,AFNE01.JPG,AFNE01.JPG,AFNE01.JPG,AFNE01.JPG,AFNE01.JPG,,,,,,,,,,,,,,,,,1,7,17,9,,,,,,,AMSA14.jpg,AMSA09.jpg,AMNE08.jpg,AMNE18.jpg,AMSA14.jpg,MS,2,num_8,32,num_2,1.15008809138,,,2017_Aug_11_1543,59.9946312568,MAFE4ImagesEEG,001,101126,
AFNE01.JPG,AFNE01.JPG,AFNE01.JPG,AFNE01.JPG,AFNE01.JPG,AFNE01.JPG,,,,,,,,,,,,,,,,,1,8,18,3,,,,,,,AMNE03.jpg,AMSA11.jpg,AMNE10.jpg,AMSA12.jpg,AMNE10.jpg,MN,1,num_2,32,num_8,0.683483712375,,,2017_Aug_11_1543,59.9946312568,MAFE4ImagesEEG,001,101126,
AFNE01.JPG,AFNE01.JPG,AFNE01.JPG,AFNE01.JPG,AFNE01.JPG,AFNE01.JPG,,,,,,,,,,,,,,,,,1,9,19,8,,,,,,,AMNE12.jpg,AMSA05.jpg,AMNE17.jpg,AMSA08.jpg,AMNE12.jpg,MN,1,num_8,32,num_2,0.933420767076,,,2017_Aug_11_1543,59.9946312568,MAFE4ImagesEEG,001,101126,
AFNE01.JPG,AFNE01.JPG,AFNE01.JPG,AFNE01.JPG,AFNE01.JPG,AFNE01.JPG,,,,,,,,,,,,,,,,,2,0,20,8,,,,,,,AMNE08.jpg,AMSA08.jpg,AMSA02.jpg,AMNE03.jpg,AMSA08.jpg,MS,2,num_6,32,num_4,0.883438231423,,,2017_Aug_11_1543,59.9946312568,MAFE4ImagesEEG,001,101126,
AFNE01.JPG,AFNE01.JPG,AFNE01.JPG,AFNE01.JPG,AFNE01.JPG,AFNE01.JPG,,,,,,,,,,,,,,,,,2,1,21,4,,,,,,,AMSA16.jpg,AMSA13.jpg,AMNE05.jpg,AMNE07.jpg,AMSA13.jpg,MS,2,num_6,16,num_6,0.566804552451,,,2017_Aug_11_1543,59.9946312568,MAFE4ImagesEEG,001,101126,
AFNE01.JPG,AFNE01.JPG,AFNE01.JPG,AFNE01.JPG,AFNE01.JPG,AFNE01.JPG,,,,,,,,,,,,,,,,,2,2,22,2,,,,,,,AMNE19.jpg,AMNE20.jpg,AMSA06.jpg,AMSA09.jpg,AMNE19.jpg,MN,1,num_8,16,num_8,0.950125874486,,,2017_Aug_11_1543,59.9946312568,MAFE4ImagesEEG,001,101126,
AFNE01.JPG,AFNE01.JPG,AFNE01.JPG,AFNE01.JPG,AFNE01.JPG,AFNE01.JPG,,,,,,,,,,,,,,,,,2,3,23,7,,,,,,,AMSA04.jpg,AMNE14.jpg,AMSA01.jpg,AMNE19.jpg,AMNE14.jpg,MN,1,num_6,32,num_2,1.50007585529,,,2017_Aug_11_1543,59.9946312568,MAFE4ImagesEEG,001,101126,
AFNE01.JPG,AFNE01.JPG,AFNE01.JPG,AFNE01.JPG,AFNE01.JPG,AFNE01.JPG,,,,,,,,,,,,,,,,,2,4,24,5,,,,,,,AMSA17.jpg,AMSA10.jpg,AMNE06.jpg,AMNE05.jpg,AMNE05.jpg,MN,1,num_4,16,num_4,1.26662933221,,,2017_Aug_11_1543,59.9946312568,MAFE4ImagesEEG,001,101126,
AFNE01.JPG,AFNE01.JPG,AFNE01.JPG,AFNE01.JPG,AFNE01.JPG,AFNE01.JPG,,,,,,,,,,,,,,,,,2,5,25,0,,,,,,,AMSA11.jpg,AMNE06.jpg,AMSA18.jpg,AMNE19.jpg,AMNE19.jpg,MN,1,num_4,16,num_4,0.566783383954,,,2017_Aug_11_1543,59.9946312568,MAFE4ImagesEEG,001,101126,
AFNE01.JPG,AFNE01.JPG,AFNE01.JPG,AFNE01.JPG,AFNE01.JPG,AFNE01.JPG,,,,,,,,,,,,,,,,,2,6,26,9,,,,,,,AMSA12.jpg,AMSA17.jpg,AMNE17.jpg,AMNE04.jpg,AMNE17.jpg,MN,1,num_2,16,num_2,1.0834395783,,,2017_Aug_11_1543,59.9946312568,MAFE4ImagesEEG,001,101126,
AFNE01.JPG,AFNE01.JPG,AFNE01.JPG,AFNE01.JPG,AFNE01.JPG,AFNE01.JPG,,,,,,,,,,,,,,,,,2,7,27,1,,,,,,,AMNE16.jpg,AMNE12.jpg,AMSA15.jpg,AMSA05.jpg,AMNE16.jpg,MN,1,num_8,32,num_6,0.800105138682,,,2017_Aug_11_1543,59.9946312568,MAFE4ImagesEEG,001,101126,
AFNE01.JPG,AFNE01.JPG,AFNE01.JPG,AFNE01.JPG,AFNE01.JPG,AFNE01.JPG,,,,,,,,,,,,,,,,,2,8,28,6,,,,,,,AMNE07.jpg,AMSA04.jpg,AMNE19.jpg,AMSA18.jpg,AMSA18.jpg,MS,2,num_4,16,num_4,1.13346798019,,,2017_Aug_11_1543,59.9946312568,MAFE4ImagesEEG,001,101126,
AFNE01.JPG,AFNE01.JPG,AFNE01.JPG,AFNE01.JPG,AFNE01.JPG,AFNE01.JPG,,,,,,,,,,,,,,,,,2,9,29,3,,,,,,,AMSA07.jpg,AMNE11.jpg,AMNE19.jpg,AMSA15.jpg,AMSA15.jpg,MS,2,num_4,32,num_8,0.666750379838,,,2017_Aug_11_1543,59.9946312568,MAFE4ImagesEEG,001,101126,
AFNE01.JPG,AFNE01.JPG,AFNE01.JPG,AFNE01.JPG,AFNE01.JPG,AFNE01.JPG,,,,,,,,,,,,,,,,,3,0,30,2,,,,,,,AMSA03.jpg,AMSA12.jpg,AMNE03.jpg,AMNE12.jpg,AMNE12.jpg,MN,1,num_4,16,num_4,0.733444758691,,,2017_Aug_11_1543,59.9946312568,MAFE4ImagesEEG,001,101126,
AFNE01.JPG,AFNE01.JPG,AFNE01.JPG,AFNE01.JPG,AFNE01.JPG,AFNE01.JPG,,,,,,,,,,,,,,,,,3,1,31,7,,,,,,,AMNE12.jpg,AMSA11.jpg,AMSA13.jpg,AMNE14.jpg,AMSA13.jpg,MS,2,num_2,16,num_2,0.616810502484,,,2017_Aug_11_1543,59.9946312568,MAFE4ImagesEEG,001,101126,
AFNE01.JPG,AFNE01.JPG,AFNE01.JPG,AFNE01.JPG,AFNE01.JPG,AFNE01.JPG,,,,,,,,,,,,,,,,,3,2,32,3,,,,,,,AMNE01.jpg,AMSA13.jpg,AMSA01.jpg,AMNE11.jpg,AMNE11.jpg,MN,1,num_4,16,num_4,0.683449713979,,,2017_Aug_11_1543,59.9946312568,MAFE4ImagesEEG,001,101126,
AFNE01.JPG,AFNE01.JPG,AFNE01.JPG,AFNE01.JPG,AFNE01.JPG,AFNE01.JPG,,,,,,,,,,,,,,,,,3,3,33,8,,,,,,,AMNE13.jpg,AMNE03.jpg,AMSA17.jpg,AMSA08.jpg,AMSA17.jpg,MS,2,num_2,16,num_2,0.883462607861,,,2017_Aug_11_1543,59.9946312568,MAFE4ImagesEEG,001,101126,
AFNE01.JPG,AFNE01.JPG,AFNE01.JPG,AFNE01.JPG,AFNE01.JPG,AFNE01.JPG,,,,,,,,,,,,,,,,,3,4,34,6,,,,,,,AMSA11.jpg,AMNE09.jpg,AMSA01.jpg,AMNE08.jpg,AMNE08.jpg,MN,1,num_4,16,num_4,0.78347123554,,,2017_Aug_11_1543,59.9946312568,MAFE4ImagesEEG,001,101126,
AFNE01.JPG,AFNE01.JPG,AFNE01.JPG,AFNE01.JPG,AFNE01.JPG,AFNE01.JPG,,,,,,,,,,,,,,,,,3,5,35,5,,,,,,,AMSA18.jpg,AMNE10.jpg,AMNE16.jpg,AMSA01.jpg,AMSA01.jpg,MS,2,num_4,16,num_4,1.90003204159,,,2017_Aug_11_1543,59.9946312568,MAFE4ImagesEEG,001,101126,
AFNE01.JPG,AFNE01.JPG,AFNE01.JPG,AFNE01.JPG,AFNE01.JPG,AFNE01.JPG,,,,,,,,,,,,,,,,,3,6,36,9,,,,,,,AMSA11.jpg,AMNE12.jpg,AMSA15.jpg,AMNE18.jpg,AMSA11.jpg,MS,2,num_8,16,num_8,2.10001703119,,,2017_Aug_11_1543,59.9946312568,MAFE4ImagesEEG,001,101126,
AFNE01.JPG,AFNE01.JPG,AFNE01.JPG,AFNE01.JPG,AFNE01.JPG,AFNE01.JPG,,,,,,,,,,,,,,,,,3,7,37,1,,,,,,,AMSA17.jpg,AMNE19.jpg,AMSA16.jpg,AMNE09.jpg,AMNE19.jpg,MN,1,num_6,16,num_6,0.833488732111,,,2017_Aug_11_1543,59.9946312568,MAFE4ImagesEEG,001,101126,
AFNE01.JPG,AFNE01.JPG,AFNE01.JPG,AFNE01.JPG,AFNE01.JPG,AFNE01.JPG,,,,,,,,,,,,,,,,,3,8,38,4,,,,,,,AMSA15.jpg,AMNE02.jpg,AMSA03.jpg,AMNE14.jpg,AMSA03.jpg,MS,2,num_2,32,num_8,1.80007402692,,,2017_Aug_11_1543,59.9946312568,MAFE4ImagesEEG,001,101126,
AFNE01.JPG,AFNE01.JPG,AFNE01.JPG,AFNE01.JPG,AFNE01.JPG,AFNE01.JPG,,,,,,,,,,,,,,,,,3,9,39,0,,,,,,,AMSA04.jpg,AMNE05.jpg,AMSA19.jpg,AMNE17.jpg,AMSA19.jpg,MS,2,num_2,32,num_4,0.850133860949,,,2017_Aug_11_1543,59.9946312568,MAFE4ImagesEEG,001,101126,
AFNE01.JPG,AFNE01.JPG,AFNE01.JPG,AFNE01.JPG,AFNE01.JPG,AFNE01.JPG,,,,,,,,,,,,,,,,,4,0,40,3,,,,,,,AMSA08.jpg,AMSA06.jpg,AMNE04.jpg,AMNE09.jpg,AMNE04.jpg,MN,1,num_2,32,num_8,0.816773681436,,,2017_Aug_11_1543,59.9946312568,MAFE4ImagesEEG,001,101126,
AFNE01.JPG,AFNE01.JPG,AFNE01.JPG,AFNE01.JPG,AFNE01.JPG,AFNE01.JPG,,,,,,,,,,,,,,,,,4,1,41,5,,,,,,,AMSA14.jpg,AMSA01.jpg,AMNE02.jpg,AMNE01.jpg,AMSA01.jpg,MS,2,num_6,16,num_6,0.533458165359,,,2017_Aug_11_1543,59.9946312568,MAFE4ImagesEEG,001,101126,
AFNE01.JPG,AFNE01.JPG,AFNE01.JPG,AFNE01.JPG,AFNE01.JPG,AFNE01.JPG,,,,,,,,,,,,,,,,,4,2,42,8,,,,,,,AMSA16.jpg,AMSA12.jpg,AMNE11.jpg,AMNE16.jpg,AMSA16.jpg,MS,2,num_8,32,num_6,0.733413646463,,,2017_Aug_11_1543,59.9946312568,MAFE4ImagesEEG,001,101126,
AFNE01.JPG,AFNE01.JPG,AFNE01.JPG,AFNE01.JPG,AFNE01.JPG,AFNE01.JPG,,,,,,,,,,,,,,,,,4,3,43,6,,,,,,,AMNE15.jpg,AMNE19.jpg,AMSA08.jpg,AMSA16.jpg,AMSA08.jpg,MS,2,num_2,32,num_8,1.16668671323,,,2017_Aug_11_1543,59.9946312568,MAFE4ImagesEEG,001,101126,
AFNE01.JPG,AFNE01.JPG,AFNE01.JPG,AFNE01.JPG,AFNE01.JPG,AFNE01.JPG,,,,,,,,,,,,,,,,,4,4,44,2,,,,,,,AMNE19.jpg,AMSA03.jpg,AMSA18.jpg,AMNE10.jpg,AMNE10.jpg,MN,1,num_4,32,num_8,0.766792107839,,,2017_Aug_11_1543,59.9946312568,MAFE4ImagesEEG,001,101126,
AFNE01.JPG,AFNE01.JPG,AFNE01.JPG,AFNE01.JPG,AFNE01.JPG,AFNE01.JPG,,,,,,,,,,,,,,,,,4,5,45,1,,,,,,,AMSA16.jpg,AMNE02.jpg,AMNE13.jpg,AMSA01.jpg,AMSA01.jpg,MS,2,num_4,16,num_4,1.30010080896,,,2017_Aug_11_1543,59.9946312568,MAFE4ImagesEEG,001,101126,
AFNE01.JPG,AFNE01.JPG,AFNE01.JPG,AFNE01.JPG,AFNE01.JPG,AFNE01.JPG,,,,,,,,,,,,,,,,,4,6,46,9,,,,,,,AMSA11.jpg,AMSA07.jpg,AMNE07.jpg,AMNE09.jpg,AMSA07.jpg,MS,2,num_6,32,num_8,0.966772607528,,,2017_Aug_11_1543,59.9946312568,MAFE4ImagesEEG,001,101126,
AFNE01.JPG,AFNE01.JPG,AFNE01.JPG,AFNE01.JPG,AFNE01.JPG,AFNE01.JPG,,,,,,,,,,,,,,,,,4,7,47,4,,,,,,,AMNE11.jpg,AMSA07.jpg,AMNE12.jpg,AMSA18.jpg,AMNE11.jpg,MN,1,num_8,32,num_2,1.15006916784,,,2017_Aug_11_1543,59.9946312568,MAFE4ImagesEEG,001,101126,
AFNE01.JPG,AFNE01.JPG,AFNE01.JPG,AFNE01.JPG,AFNE01.JPG,AFNE01.JPG,,,,,,,,,,,,,,,,,4,8,48,7,,,,,,,AMSA10.jpg,AMNE11.jpg,AMNE14.jpg,AMSA16.jpg,AMNE11.jpg,MN,1,num_6,16,num_6,0.45011384692,,,2017_Aug_11_1543,59.9946312568,MAFE4ImagesEEG,001,101126,
AFNE01.JPG,AFNE01.JPG,AFNE01.JPG,AFNE01.JPG,AFNE01.JPG,AFNE01.JPG,,,,,,,,,,,,,,,,,4,9,49,0,,,,,,,AMSA17.jpg,AMNE20.jpg,AMSA11.jpg,AMNE11.jpg,AMNE11.jpg,MN,1,num_4,16,num_4,1.25007497286,,,2017_Aug_11_1543,59.9946312568,MAFE4ImagesEEG,001,101126,
AFNE01.JPG,AFNE01.JPG,AFNE01.JPG,AFNE01.JPG,AFNE01.JPG,AFNE01.JPG,,,,,,,,,,,,,,,,,5,0,50,0,,,,,,,AMNE14.jpg,AMSA18.jpg,AMSA07.jpg,AMNE06.jpg,AMNE14.jpg,MN,1,num_8,16,num_8,0.583487208467,,,2017_Aug_11_1543,59.9946312568,MAFE4ImagesEEG,001,101126,
AFNE01.JPG,AFNE01.JPG,AFNE01.JPG,AFNE01.JPG,AFNE01.JPG,AFNE01.JPG,,,,,,,,,,,,,,,,,5,1,51,2,,,,,,,AMNE11.jpg,AMSA07.jpg,AMNE13.jpg,AMSA18.jpg,AMNE11.jpg,MN,1,num_8,32,num_2,1.23344652262,,,2017_Aug_11_1543,59.9946312568,MAFE4ImagesEEG,001,101126,
AFNE01.JPG,AFNE01.JPG,AFNE01.JPG,AFNE01.JPG,AFNE01.JPG,AFNE01.JPG,,,,,,,,,,,,,,,,,5,2,52,8,,,,,,,AMNE13.jpg,AMNE18.jpg,AMSA19.jpg,AMSA16.jpg,AMSA16.jpg,MS,2,num_4,16,num_4,0.616772975773,,,2017_Aug_11_1543,59.9946312568,MAFE4ImagesEEG,001,101126,
AFNE01.JPG,AFNE01.JPG,AFNE01.JPG,AFNE01.JPG,AFNE01.JPG,AFNE01.JPG,,,,,,,,,,,,,,,,,5,3,53,7,,,,,,,AMNE05.jpg,AMSA06.jpg,AMSA04.jpg,AMNE10.jpg,AMNE05.jpg,MN,1,num_8,32,num_6,0.783315997571,,,2017_Aug_11_1543,59.9946312568,MAFE4ImagesEEG,001,101126,
AFNE01.JPG,AFNE01.JPG,AFNE01.JPG,AFNE01.JPG,AFNE01.JPG,AFNE01.JPG,,,,,,,,,,,,,,,,,5,4,54,6,,,,,,,AMNE17.jpg,AMNE14.jpg,AMSA16.jpg,AMSA20.jpg,AMNE14.jpg,MN,1,num_6,32,num_8,0.733472983353,,,2017_Aug_11_1543,59.9946312568,MAFE4ImagesEEG,001,101126,
AFNE01.JPG,AFNE01.JPG,AFNE01.JPG,AFNE01.JPG,AFNE01.JPG,AFNE01.JPG,,,,,,,,,,,,,,,,,5,5,55,1,,,,,,,AMSA15.jpg,AMNE01.jpg,AMSA07.jpg,AMNE20.jpg,AMSA15.jpg,MS,2,num_8,32,num_2,0.950153458398,,,2017_Aug_11_1543,59.9946312568,MAFE4ImagesEEG,001,101126,
AFNE01.JPG,AFNE01.JPG,AFNE01.JPG,AFNE01.JPG,AFNE01.JPG,AFNE01.JPG,,,,,,,,,,,,,,,,,5,6,56,9,,,,,,,AMSA17.jpg,AMNE13.jpg,AMSA15.jpg,AMNE11.jpg,AMSA15.jpg,MS,2,num_2,16,num_2,0.783417030238,,,2017_Aug_11_1543,59.9946312568,MAFE4ImagesEEG,001,101126,
AFNE01.JPG,AFNE01.JPG,AFNE01.JPG,AFNE01.JPG,AFNE01.JPG,AFNE01.JPG,,,,,,,,,,,,,,,,,5,7,57,4,,,,,,,AMNE19.jpg,AMNE11.jpg,AMSA14.jpg,AMSA12.jpg,AMNE19.jpg,MN,1,num_8,32,num_4,0.833501882385,,,2017_Aug_11_1543,59.9946312568,MAFE4ImagesEEG,001,101126,
AFNE01.JPG,AFNE01.JPG,AFNE01.JPG,AFNE01.JPG,AFNE01.JPG,AFNE01.JPG,,,,,,,,,,,,,,,,,5,8,58,3,,,,,,,AMSA09.jpg,AMSA06.jpg,AMNE09.jpg,AMNE03.jpg,AMSA06.jpg,MS,2,num_6,16,num_6,0.500221791677,,,2017_Aug_11_1543,59.9946312568,MAFE4ImagesEEG,001,101126,
AFNE01.JPG,AFNE01.JPG,AFNE01.JPG,AFNE01.JPG,AFNE01.JPG,AFNE01.JPG,,,,,,,,,,,,,,,,,5,9,59,5,,,,,,,AMSA07.jpg,AMSA01.jpg,AMNE16.jpg,AMNE06.jpg,AMNE16.jpg,MN,1,num_2,16,num_2,0.850003961474,,,2017_Aug_11_1543,59.9946312568,MAFE4ImagesEEG,001,101126,
,,,,,,,,,,,,,,,,,,,,,,,,,,,,,,,,,,,,,,,,,,,space,30.3808708671,2017_Aug_11_1543,59.9946312568,MAFE4ImagesEEG,001,101126,
AFNE01.JPG,AFNE01.JPG,AFNE01.JPG,AFNE01.JPG,AFNE01.JPG,AFNE01.JPG,,,,,,,,,,,,,,,,,,,,,0,0,0,0,,,AFNE06.jpg,AFNE02.jpg,AFSA01.jpg,AFSA02.jpg,AFNE06.jpg,FN,3,num_8,16,num_8,2.73333121603,,,2017_Aug_11_1543,59.9946312568,MAFE4ImagesEEG,001,101126,
AFNE01.JPG,AFNE01.JPG,AFNE01.JPG,AFNE01.JPG,AFNE01.JPG,AFNE01.JPG,,,,,,,,,,,,,,,,,,,,,0,1,1,3,,,AFSA04.jpg,AFNE16.jpg,AFNE11.jpg,AFSA10.jpg,AFSA10.jpg,FS,4,num_4,16,num_4,0.700171499513,,,2017_Aug_11_1543,59.9946312568,MAFE4ImagesEEG,001,101126,
AFNE01.JPG,AFNE01.JPG,AFNE01.JPG,AFNE01.JPG,AFNE01.JPG,AFNE01.JPG,,,,,,,,,,,,,,,,,,,,,0,2,2,7,,,AFSA02.jpg,AFNE20.jpg,AFNE14.jpg,AFSA18.jpg,AFSA02.jpg,FS,4,num_8,32,num_4,0.866765197832,,,2017_Aug_11_1543,59.9946312568,MAFE4ImagesEEG,001,101126,
AFNE01.JPG,AFNE01.JPG,AFNE01.JPG,AFNE01.JPG,AFNE01.JPG,AFNE01.JPG,,,,,,,,,,,,,,,,,,,,,0,3,3,4,,,AFSA04.jpg,AFNE05.jpg,AFNE17.jpg,AFSA10.jpg,AFNE17.jpg,FN,3,num_2,32,num_6,1.23346640868,,,2017_Aug_11_1543,59.9946312568,MAFE4ImagesEEG,001,101126,
AFNE01.JPG,AFNE01.JPG,AFNE01.JPG,AFNE01.JPG,AFNE01.JPG,AFNE01.JPG,,,,,,,,,,,,,,,,,,,,,0,4,4,8,,,AFSA16.jpg,AFNE09.jpg,AFNE02.jpg,AFSA11.jpg,AFNE02.jpg,FN,3,num_2,16,num_2,0.783468028065,,,2017_Aug_11_1543,59.9946312568,MAFE4ImagesEEG,001,101126,
AFNE01.JPG,AFNE01.JPG,AFNE01.JPG,AFNE01.JPG,AFNE01.JPG,AFNE01.JPG,,,,,,,,,,,,,,,,,,,,,0,5,5,1,,,AFNE14.jpg,AFSA18.jpg,AFSA13.jpg,AFNE10.jpg,AFNE10.jpg,FN,3,num_4,16,num_4,0.566817382351,,,2017_Aug_11_1543,59.9946312568,MAFE4ImagesEEG,001,101126,
AFNE01.JPG,AFNE01.JPG,AFNE01.JPG,AFNE01.JPG,AFNE01.JPG,AFNE01.JPG,,,,,,,,,,,,,,,,,,,,,0,6,6,5,,,AFSA07.jpg,AFNE05.jpg,AFNE09.jpg,AFSA11.jpg,AFNE05.jpg,FN,3,num_6,32,num_8,0.933427502401,,,2017_Aug_11_1543,59.9946312568,MAFE4ImagesEEG,001,101126,
AFNE01.JPG,AFNE01.JPG,AFNE01.JPG,AFNE01.JPG,AFNE01.JPG,AFNE01.JPG,,,,,,,,,,,,,,,,,,,,,0,7,7,9,,,AFNE01.jpg,AFNE05.jpg,AFSA01.jpg,AFSA19.jpg,AFNE05.jpg,FN,3,num_6,16,num_6,0.666785019916,,,2017_Aug_11_1543,59.9946312568,MAFE4ImagesEEG,001,101126,
AFNE01.JPG,AFNE01.JPG,AFNE01.JPG,AFNE01.JPG,AFNE01.JPG,AFNE01.JPG,,,,,,,,,,,,,,,,,,,,,0,8,8,6,,,AFNE14.jpg,AFSA18.jpg,AFNE11.jpg,AFSA07.jpg,AFSA18.jpg,FS,4,num_6,32,num_2,1.133139221,,,2017_Aug_11_1543,59.9946312568,MAFE4ImagesEEG,001,101126,
AFNE01.JPG,AFNE01.JPG,AFNE01.JPG,AFNE01.JPG,AFNE01.JPG,AFNE01.JPG,,,,,,,,,,,,,,,,,,,,,0,9,9,2,,,AFNE08.jpg,AFSA07.jpg,AFNE03.jpg,AFSA20.jpg,AFSA20.jpg,FS,4,num_4,32,num_8,0.700157066341,,,2017_Aug_11_1543,59.9946312568,MAFE4ImagesEEG,001,101126,
AFNE01.JPG,AFNE01.JPG,AFNE01.JPG,AFNE01.JPG,AFNE01.JPG,AFNE01.JPG,,,,,,,,,,,,,,,,,,,,,1,0,10,1,,,AFSA05.jpg,AFNE09.jpg,AFSA09.jpg,AFNE20.jpg,AFNE20.jpg,FN,3,num_4,16,num_4,0.666771869641,,,2017_Aug_11_1543,59.9946312568,MAFE4ImagesEEG,001,101126,
AFNE01.JPG,AFNE01.JPG,AFNE01.JPG,AFNE01.JPG,AFNE01.JPG,AFNE01.JPG,,,,,,,,,,,,,,,,,,,,,1,1,11,7,,,AFSA17.jpg,AFSA05.jpg,AFNE03.jpg,AFNE10.jpg,AFNE03.jpg,FN,3,num_2,32,num_6,0.933552591596,,,2017_Aug_11_1543,59.9946312568,MAFE4ImagesEEG,001,101126,
AFNE01.JPG,AFNE01.JPG,AFNE01.JPG,AFNE01.JPG,AFNE01.JPG,AFNE01.JPG,,,,,,,,,,,,,,,,,,,,,1,2,12,9,,,AFNE09.jpg,AFNE03.jpg,AFSA03.jpg,AFSA15.jpg,AFSA03.jpg,FS,4,num_2,16,num_2,0.566729499493,,,2017_Aug_11_1543,59.9946312568,MAFE4ImagesEEG,001,101126,
AFNE01.JPG,AFNE01.JPG,AFNE01.JPG,AFNE01.JPG,AFNE01.JPG,AFNE01.JPG,,,,,,,,,,,,,,,,,,,,,1,3,13,4,,,AFNE03.jpg,AFNE06.jpg,AFSA18.jpg,AFSA08.jpg,AFSA08.jpg,FS,4,num_4,32,num_6,0.900163224433,,,2017_Aug_11_1543,59.9946312568,MAFE4ImagesEEG,001,101126,
AFNE01.JPG,AFNE01.JPG,AFNE01.JPG,AFNE01.JPG,AFNE01.JPG,AFNE01.JPG,,,,,,,,,,,,,,,,,,,,,1,4,14,3,,,AFNE05.jpg,AFSA20.jpg,AFNE13.jpg,AFSA05.jpg,AFSA20.jpg,FS,4,num_6,32,num_8,0.900129226036,,,2017_Aug_11_1543,59.9946312568,MAFE4ImagesEEG,001,101126,
AFNE01.JPG,AFNE01.JPG,AFNE01.JPG,AFNE01.JPG,AFNE01.JPG,AFNE01.JPG,,,,,,,,,,,,,,,,,,,,,1,5,15,2,,,AFSA16.jpg,AFNE03.jpg,AFNE04.jpg,AFSA12.jpg,AFNE04.jpg,FN,3,num_2,32,num_6,1.38340150658,,,2017_Aug_11_1543,59.9946312568,MAFE4ImagesEEG,001,101126,
AFNE01.JPG,AFNE01.JPG,AFNE01.JPG,AFNE01.JPG,AFNE01.JPG,AFNE01.JPG,,,,,,,,,,,,,,,,,,,,,1,6,16,0,,,AFSA09.jpg,AFNE06.jpg,AFSA08.jpg,AFNE05.jpg,AFSA09.jpg,FS,4,num_8,16,num_8,0.450139185414,,,2017_Aug_11_1543,59.9946312568,MAFE4ImagesEEG,001,101126,
AFNE01.JPG,AFNE01.JPG,AFNE01.JPG,AFNE01.JPG,AFNE01.JPG,AFNE01.JPG,,,,,,,,,,,,,,,,,,,,,1,7,17,6,,,AFSA06.jpg,AFNE06.jpg,AFSA03.jpg,AFNE17.jpg,AFNE06.jpg,FN,3,num_6,16,num_6,0.650143418927,,,2017_Aug_11_1543,59.9946312568,MAFE4ImagesEEG,001,101126,
AFNE01.JPG,AFNE01.JPG,AFNE01.JPG,AFNE01.JPG,AFNE01.JPG,AFNE01.JPG,,,,,,,,,,,,,,,,,,,,,1,8,18,5,,,AFSA18.jpg,AFNE11.jpg,AFNE17.jpg,AFSA03.jpg,AFNE11.jpg,FN,3,num_6,32,num_8,2.23340771301,,,2017_Aug_11_1543,59.9946312568,MAFE4ImagesEEG,001,101126,
AFNE01.JPG,AFNE01.JPG,AFNE01.JPG,AFNE01.JPG,AFNE01.JPG,AFNE01.JPG,,,,,,,,,,,,,,,,,,,,,1,9,19,8,,,AFNE03.jpg,AFSA02.jpg,AFNE15.jpg,AFSA04.jpg,AFSA04.jpg,FS,4,num_4,32,num_6,0.750188996084,,,2017_Aug_11_1543,59.9946312568,MAFE4ImagesEEG,001,101126,
AFNE01.JPG,AFNE01.JPG,AFNE01.JPG,AFNE01.JPG,AFNE01.JPG,AFNE01.JPG,,,,,,,,,,,,,,,,,,,,,2,0,20,8,,,AFNE09.jpg,AFSA07.jpg,AFSA15.jpg,AFNE05.jpg,AFNE09.jpg,FN,3,num_8,16,num_8,0.783437557984,,,2017_Aug_11_1543,59.9946312568,MAFE4ImagesEEG,001,101126,
AFNE01.JPG,AFNE01.JPG,AFNE01.JPG,AFNE01.JPG,AFNE01.JPG,AFNE01.JPG,,,,,,,,,,,,,,,,,,,,,2,1,21,5,,,AFNE12.jpg,AFSA18.jpg,AFNE20.jpg,AFSA07.jpg,AFNE20.jpg,FN,3,num_2,32,num_6,1.9666131991,,,2017_Aug_11_1543,59.9946312568,MAFE4ImagesEEG,001,101126,
AFNE01.JPG,AFNE01.JPG,AFNE01.JPG,AFNE01.JPG,AFNE01.JPG,AFNE01.JPG,,,,,,,,,,,,,,,,,,,,,2,2,22,1,,,AFSA06.jpg,AFNE06.jpg,AFSA09.jpg,AFNE15.jpg,AFSA09.jpg,FS,4,num_2,16,num_2,0.783475405071,,,2017_Aug_11_1543,59.9946312568,MAFE4ImagesEEG,001,101126,
AFNE01.JPG,AFNE01.JPG,AFNE01.JPG,AFNE01.JPG,AFNE01.JPG,AFNE01.JPG,,,,,,,,,,,,,,,,,,,,,2,3,23,0,,,AFSA05.jpg,AFNE01.jpg,AFNE14.jpg,AFSA02.jpg,AFNE01.jpg,FN,3,num_6,32,num_2,1.36671371898,,,2017_Aug_11_1543,59.9946312568,MAFE4ImagesEEG,001,101126,
AFNE01.JPG,AFNE01.JPG,AFNE01.JPG,AFNE01.JPG,AFNE01.JPG,AFNE01.JPG,,,,,,,,,,,,,,,,,,,,,2,4,24,2,,,AFSA16.jpg,AFNE09.jpg,AFSA20.jpg,AFNE15.jpg,AFSA20.jpg,FS,4,num_2,32,num_6,1.08339403337,,,2017_Aug_11_1543,59.9946312568,MAFE4ImagesEEG,001,101126,
AFNE01.JPG,AFNE01.JPG,AFNE01.JPG,AFNE01.JPG,AFNE01.JPG,AFNE01.JPG,,,,,,,,,,,,,,,,,,,,,2,5,25,3,,,AFNE13.jpg,AFSA07.jpg,AFSA05.jpg,AFNE10.jpg,AFSA07.jpg,FS,4,num_6,32,num_2,1.18342902604,,,2017_Aug_11_1543,59.9946312568,MAFE4ImagesEEG,001,101126,
AFNE01.JPG,AFNE01.JPG,AFNE01.JPG,AFNE01.JPG,AFNE01.JPG,AFNE01.JPG,,,,,,,,,,,,,,,,,,,,,2,6,26,9,,,AFNE09.jpg,AFSA20.jpg,AFNE20.jpg,AFSA19.jpg,AFNE09.jpg,FN,3,num_8,16,num_8,2.98328430811,,,2017_Aug_11_1543,59.9946312568,MAFE4ImagesEEG,001,101126,
AFNE01.JPG,AFNE01.JPG,AFNE01.JPG,AFNE01.JPG,AFNE01.JPG,AFNE01.JPG,,,,,,,,,,,,,,,,,,,,,2,7,27,4,,,AFNE10.jpg,AFSA10.jpg,AFNE03.jpg,AFSA01.jpg,AFSA01.jpg,FS,4,num_4,16,num_4,0.950131327379,,,2017_Aug_11_1543,59.9946312568,MAFE4ImagesEEG,001,101126,
AFNE01.JPG,AFNE01.JPG,AFNE01.JPG,AFNE01.JPG,AFNE01.JPG,AFNE01.JPG,,,,,,,,,,,,,,,,,,,,,2,8,28,6,,,AFNE18.jpg,AFSA09.jpg,AFNE06.jpg,AFSA03.jpg,AFSA09.jpg,FS,4,num_6,32,num_2,1.98336449312,,,2017_Aug_11_1543,59.9946312568,MAFE4ImagesEEG,001,101126,
AFNE01.JPG,AFNE01.JPG,AFNE01.JPG,AFNE01.JPG,AFNE01.JPG,AFNE01.JPG,,,,,,,,,,,,,,,,,,,,,2,9,29,7,,,AFNE19.jpg,AFSA18.jpg,AFNE15.jpg,AFSA11.jpg,AFNE19.jpg,FN,3,num_8,16,num_8,1.18340561213,,,2017_Aug_11_1543,59.9946312568,MAFE4ImagesEEG,001,101126,
AFNE01.JPG,AFNE01.JPG,AFNE01.JPG,AFNE01.JPG,AFNE01.JPG,AFNE01.JPG,,,,,,,,,,,,,,,,,,,,,3,0,30,2,,,AFSA09.jpg,AFNE03.jpg,AFNE12.jpg,AFSA15.jpg,AFSA15.jpg,FS,4,num_4,16,num_4,0.450135977473,,,2017_Aug_11_1543,59.9946312568,MAFE4ImagesEEG,001,101126,
AFNE01.JPG,AFNE01.JPG,AFNE01.JPG,AFNE01.JPG,AFNE01.JPG,AFNE01.JPG,,,,,,,,,,,,,,,,,,,,,3,1,31,9,,,AFSA16.jpg,AFNE05.jpg,AFSA01.jpg,AFNE13.jpg,AFSA16.jpg,FS,4,num_8,32,num_6,0.566811609082,,,2017_Aug_11_1543,59.9946312568,MAFE4ImagesEEG,001,101126,
AFNE01.JPG,AFNE01.JPG,AFNE01.JPG,AFNE01.JPG,AFNE01.JPG,AFNE01.JPG,,,,,,,,,,,,,,,,,,,,,3,2,32,4,,,AFSA08.jpg,AFNE19.jpg,AFNE05.jpg,AFSA06.jpg,AFSA08.jpg,FS,4,num_8,32,num_2,0.850162727758,,,2017_Aug_11_1543,59.9946312568,MAFE4ImagesEEG,001,101126,
AFNE01.JPG,AFNE01.JPG,AFNE01.JPG,AFNE01.JPG,AFNE01.JPG,AFNE01.JPG,,,,,,,,,,,,,,,,,,,,,3,3,33,6,,,AFSA02.jpg,AFNE12.jpg,AFNE14.jpg,AFSA15.jpg,AFSA02.jpg,FS,4,num_8,16,num_8,0.600175316446,,,2017_Aug_11_1543,59.9946312568,MAFE4ImagesEEG,001,101126,
AFNE01.JPG,AFNE01.JPG,AFNE01.JPG,AFNE01.JPG,AFNE01.JPG,AFNE01.JPG,,,,,,,,,,,,,,,,,,,,,3,4,34,5,,,AFNE03.jpg,AFSA04.jpg,AFNE18.jpg,AFSA20.jpg,AFNE03.jpg,FN,3,num_8,32,num_2,0.650215906091,,,2017_Aug_11_1543,59.9946312568,MAFE4ImagesEEG,001,101126,
AFNE01.JPG,AFNE01.JPG,AFNE01.JPG,AFNE01.JPG,AFNE01.JPG,AFNE01.JPG,,,,,,,,,,,,,,,,,,,,,3,5,35,7,,,AFNE04.jpg,AFSA05.jpg,AFNE08.jpg,AFSA18.jpg,AFNE08.jpg,FN,3,num_2,16,num_2,1.15008231765,,,2017_Aug_11_1543,59.9946312568,MAFE4ImagesEEG,001,101126,
AFNE01.JPG,AFNE01.JPG,AFNE01.JPG,AFNE01.JPG,AFNE01.JPG,AFNE01.JPG,,,,,,,,,,,,,,,,,,,,,3,6,36,0,,,AFSA18.jpg,AFSA03.jpg,AFNE09.jpg,AFNE17.jpg,AFSA18.jpg,FS,4,num_8,16,num_8,0.983425754588,,,2017_Aug_11_1543,59.9946312568,MAFE4ImagesEEG,001,101126,
AFNE01.JPG,AFNE01.JPG,AFNE01.JPG,AFNE01.JPG,AFNE01.JPG,AFNE01.JPG,,,,,,,,,,,,,,,,,,,,,3,7,37,3,,,AFSA01.jpg,AFNE08.jpg,AFSA04.jpg,AFNE07.jpg,AFNE08.jpg,FN,3,num_6,32,num_2,0.916706358548,,,2017_Aug_11_1543,59.9946312568,MAFE4ImagesEEG,001,101126,
AFNE01.JPG,AFNE01.JPG,AFNE01.JPG,AFNE01.JPG,AFNE01.JPG,AFNE01.JPG,,,,,,,,,,,,,,,,,,,,,3,8,38,1,,,AFSA07.jpg,AFSA16.jpg,AFNE09.jpg,AFNE06.jpg,AFSA16.jpg,FS,4,num_6,32,num_2,1.39994848892,,,2017_Aug_11_1543,59.9946312568,MAFE4ImagesEEG,001,101126,
