IPosition2,IPosition3,IPosition1,IPosition6,IPosition4,IPosition5,TrialsM1.thisRepN,TrialsM1.thisTrialN,TrialsM1.thisN,TrialsM1.thisIndex,TrialsF1.thisRepN,TrialsF1.thisTrialN,TrialsF1.thisN,TrialsF1.thisIndex,TrialsM2.thisRepN,TrialsM2.thisTrialN,TrialsM2.thisN,TrialsM2.thisIndex,TrialsF2.thisRepN,TrialsF2.thisTrialN,TrialsF2.thisN,TrialsF2.thisIndex,TrialsM3.thisRepN,TrialsM3.thisTrialN,TrialsM3.thisN,TrialsM3.thisIndex,TrialsF3.thisRepN,TrialsF3.thisTrialN,TrialsF3.thisN,TrialsF3.thisIndex,InstrKey_resp.keys,InstrKey_resp.rt,Image0 _Position,Image1 _Position,Image2 _Position,Image3 _Position,Center_image,condition,code,correct_answer,accuracy,Key_Resp.keys,Key_Resp.rt,BreakKey_resp.keys,BreakKey_resp.rt,date,frameRate,expName,session,participant,
,,,,,,,,,,,,,,,,,,,,,,,,,,,,,,space,9.31629946735,,,,,,,,,,,,,,2017_Jul_27_1649,60.0042148148,MAFE4ImagesEEG,001,101124,
AFNE23.JPG,AFNE24.JPG,AFNE22.JPG,AFSA24.JPG,AFSA22.JPG,AFSA23.JPG,0,0,0,8,,,,,,,,,,,,,,,,,,,,,,,AMSA15.jpg,AMSA06.jpg,AMNE06.jpg,AMNE02.jpg,AMNE06.jpg,MN,1,num_2,16,num_2,2.21668304037,,,2017_Jul_27_1649,60.0042148148,MAFE4ImagesEEG,001,101124,
AFSA21.JPG,AFNE22.JPG,AFNE21.JPG,AFSA23.JPG,AFSA22.JPG,AFNE23.JPG,0,1,1,0,,,,,,,,,,,,,,,,,,,,,,,AMNE15.jpg,AMSA17.jpg,AMNE18.jpg,AMSA03.jpg,AMNE18.jpg,MN,1,num_2,16,num_2,1.86668533366,,,2017_Jul_27_1649,60.0042148148,MAFE4ImagesEEG,001,101124,
AMSA21.JPG,AMNE22.JPG,AMNE21.JPG,AMSA23.JPG,AMSA22.JPG,AMNE23.JPG,0,2,2,1,,,,,,,,,,,,,,,,,,,,,,,AMNE11.jpg,AMSA04.jpg,AMNE07.jpg,AMSA01.jpg,AMNE11.jpg,MN,1,num_8,16,num_8,1.76664681279,,,2017_Jul_27_1649,60.0042148148,MAFE4ImagesEEG,001,101124,
AFSA25.JPG,AFNE24.JPG,AFSA24.JPG,AFNE21.JPG,AFSA21.JPG,AFNE25.JPG,0,3,3,2,,,,,,,,,,,,,,,,,,,,,,,AMNE17.jpg,AMSA15.jpg,AMNE08.jpg,AMSA02.jpg,AMSA15.jpg,MS,2,num_6,16,num_6,1.45004809496,,,2017_Jul_27_1649,60.0042148148,MAFE4ImagesEEG,001,101124,
AMSA21.JPG,AMNE23.JPG,AMNE21.JPG,AMSA25.JPG,AMNE25.JPG,AMSA23.JPG,0,4,4,5,,,,,,,,,,,,,,,,,,,,,,,AMNE10.jpg,AMNE13.jpg,AMSA18.jpg,AMSA16.jpg,AMSA18.jpg,MS,2,num_2,32,num_8,1.4333834009,,,2017_Jul_27_1649,60.0042148148,MAFE4ImagesEEG,001,101124,
AMNE23.JPG,AMNE24.JPG,AMNE22.JPG,AMSA24.JPG,AMSA22.JPG,AMSA23.JPG,0,5,5,9,,,,,,,,,,,,,,,,,,,,,,,AMNE15.jpg,AMSA14.jpg,AMSA10.jpg,AMNE07.jpg,AMSA10.jpg,MS,2,num_2,32,num_6,1.8500895988,,,2017_Jul_27_1649,60.0042148148,MAFE4ImagesEEG,001,101124,
AMNE22.JPG,AMSA24.JPG,AMSA22.JPG,AMNE25.JPG,AMNE24.JPG,AMSA25.JPG,0,6,6,7,,,,,,,,,,,,,,,,,,,,,,,AMSA16.jpg,AMNE05.jpg,AMNE16.jpg,AMSA10.jpg,AMNE05.jpg,MN,1,num_6,32,num_2,1.45003109577,,,2017_Jul_27_1649,60.0042148148,MAFE4ImagesEEG,001,101124,
AFNE22.JPG,AFSA24.JPG,AFSA22.JPG,AFNE25.JPG,AFNE24.JPG,AFSA25.JPG,0,7,7,6,,,,,,,,,,,,,,,,,,,,,,,AMSA16.jpg,AMNE09.jpg,AMSA17.jpg,AMNE12.jpg,AMSA16.jpg,MS,2,num_8,32,num_2,1.48342206609,,,2017_Jul_27_1649,60.0042148148,MAFE4ImagesEEG,001,101124,
AFSA21.JPG,AFNE23.JPG,AFNE21.JPG,AFSA25.JPG,AFNE25.JPG,AFSA23.JPG,0,8,8,4,,,,,,,,,,,,,,,,,,,,,,,AMNE18.jpg,AMNE17.jpg,AMSA04.jpg,AMSA10.jpg,AMNE17.jpg,MN,1,num_6,16,num_6,1.68338267913,,,2017_Jul_27_1649,60.0042148148,MAFE4ImagesEEG,001,101124,
AMSA25.JPG,AMNE24.JPG,AMSA24.JPG,AMNE26.JPG,AMSA21.JPG,AMNE25.JPG,0,9,9,3,,,,,,,,,,,,,,,,,,,,,,,AMNE20.jpg,AMNE11.jpg,AMSA06.jpg,AMSA02.jpg,AMNE20.jpg,MN,1,num_8,16,num_8,1.21682705276,,,2017_Jul_27_1649,60.0042148148,MAFE4ImagesEEG,001,101124,
AMNE22.JPG,AMSA24.JPG,AMSA22.JPG,AMNE25.JPG,AMNE24.JPG,AMSA25.JPG,,,,,0,0,0,7,,,,,,,,,,,,,,,,,,,AFNE06.jpg,AFSA12.jpg,AFSA11.jpg,AFNE14.jpg,AFNE06.jpg,FN,3,num_8,16,num_8,1.81665725296,,,2017_Jul_27_1649,60.0042148148,MAFE4ImagesEEG,001,101124,
AFNE22.JPG,AFSA24.JPG,AFSA22.JPG,AFNE25.JPG,AFNE24.JPG,AFSA25.JPG,,,,,0,1,1,6,,,,,,,,,,,,,,,,,,,AFNE17.jpg,AFSA05.jpg,AFSA08.jpg,AFNE03.jpg,AFNE03.jpg,FN,3,num_4,16,num_4,1.38357246108,,,2017_Jul_27_1649,60.0042148148,MAFE4ImagesEEG,001,101124,
AFSA21.JPG,AFNE22.JPG,AFNE21.JPG,AFSA23.JPG,AFSA22.JPG,AFNE23.JPG,,,,,0,2,2,0,,,,,,,,,,,,,,,,,,,AFNE11.jpg,AFNE15.jpg,AFSA03.jpg,AFSA14.jpg,AFNE15.jpg,FN,3,num_6,16,num_6,1.63325516891,,,2017_Jul_27_1649,60.0042148148,MAFE4ImagesEEG,001,101124,
AMSA25.JPG,AMNE24.JPG,AMSA24.JPG,AMNE26.JPG,AMSA21.JPG,AMNE25.JPG,,,,,0,3,3,3,,,,,,,,,,,,,,,,,,,AFNE16.jpg,AFSA17.jpg,AFNE12.jpg,AFSA15.jpg,AFNE16.jpg,FN,3,num_8,32,num_4,1.36671500222,,,2017_Jul_27_1649,60.0042148148,MAFE4ImagesEEG,001,101124,
AFSA21.JPG,AFNE23.JPG,AFNE21.JPG,AFSA25.JPG,AFNE25.JPG,AFSA23.JPG,,,,,0,4,4,4,,,,,,,,,,,,,,,,,,,AFSA15.jpg,AFNE09.jpg,AFSA16.jpg,AFNE12.jpg,AFSA15.jpg,FS,4,num_8,32,num_4,1.71669025708,,,2017_Jul_27_1649,60.0042148148,MAFE4ImagesEEG,001,101124,
AMSA21.JPG,AMNE22.JPG,AMNE21.JPG,AMSA23.JPG,AMSA22.JPG,AMNE23.JPG,,,,,0,5,5,1,,,,,,,,,,,,,,,,,,,AFSA06.jpg,AFSA14.jpg,AFNE17.jpg,AFNE13.jpg,AFNE13.jpg,FN,3,num_4,32,num_6,1.45003077493,,,2017_Jul_27_1649,60.0042148148,MAFE4ImagesEEG,001,101124,
AFNE23.JPG,AFNE24.JPG,AFNE22.JPG,AFSA24.JPG,AFSA22.JPG,AFSA23.JPG,,,,,0,6,6,8,,,,,,,,,,,,,,,,,,,AFSA01.jpg,AFNE07.jpg,AFNE18.jpg,AFSA03.jpg,AFNE07.jpg,FN,3,num_6,16,num_6,1.51670109818,,,2017_Jul_27_1649,60.0042148148,MAFE4ImagesEEG,001,101124,
AMNE23.JPG,AMNE24.JPG,AMNE22.JPG,AMSA24.JPG,AMSA22.JPG,AMSA23.JPG,,,,,0,7,7,9,,,,,,,,,,,,,,,,,,,AFSA10.jpg,AFNE02.jpg,AFNE03.jpg,AFSA18.jpg,AFSA10.jpg,FS,4,num_8,32,num_4,1.50008804316,,,2017_Jul_27_1649,60.0042148148,MAFE4ImagesEEG,001,101124,
AMSA21.JPG,AMNE23.JPG,AMNE21.JPG,AMSA25.JPG,AMNE25.JPG,AMSA23.JPG,,,,,0,8,8,5,,,,,,,,,,,,,,,,,,,AFNE12.jpg,AFSA14.jpg,AFSA19.jpg,AFNE17.jpg,AFNE17.jpg,FN,3,num_4,32,num_6,1.36673681263,,,2017_Jul_27_1649,60.0042148148,MAFE4ImagesEEG,001,101124,
AFSA25.JPG,AFNE24.JPG,AFSA24.JPG,AFNE21.JPG,AFSA21.JPG,AFNE25.JPG,,,,,0,9,9,2,,,,,,,,,,,,,,,,,,,AFSA13.jpg,AFNE07.jpg,AFNE13.jpg,AFSA15.jpg,AFNE07.jpg,FN,3,num_6,16,num_6,1.25008972699,,,2017_Jul_27_1649,60.0042148148,MAFE4ImagesEEG,001,101124,
AFNE23.JPG,AFNE24.JPG,AFNE22.JPG,AFSA24.JPG,AFSA22.JPG,AFSA23.JPG,,,,,,,,,0,0,0,8,,,,,,,,,,,,,,,AMSA01.jpg,AMSA19.jpg,AMNE03.jpg,AMNE15.jpg,AMNE15.jpg,MN,1,num_4,16,num_4,1.36680160207,,,2017_Jul_27_1649,60.0042148148,MAFE4ImagesEEG,001,101124,
AMSA21.JPG,AMNE22.JPG,AMNE21.JPG,AMSA23.JPG,AMSA22.JPG,AMNE23.JPG,,,,,,,,,0,1,1,1,,,,,,,,,,,,,,,AMNE06.jpg,AMNE08.jpg,AMSA01.jpg,AMSA07.jpg,AMNE06.jpg,MN,1,num_8,32,num_6,1.31674176804,,,2017_Jul_27_1649,60.0042148148,MAFE4ImagesEEG,001,101124,
AMSA25.JPG,AMNE24.JPG,AMSA24.JPG,AMNE26.JPG,AMSA21.JPG,AMNE25.JPG,,,,,,,,,0,2,2,3,,,,,,,,,,,,,,,AMSA11.jpg,AMNE19.jpg,AMSA01.jpg,AMNE11.jpg,AMSA11.jpg,MS,2,num_8,16,num_8,1.26706650131,,,2017_Jul_27_1649,60.0042148148,MAFE4ImagesEEG,001,101124,
AMNE23.JPG,AMNE24.JPG,AMNE22.JPG,AMSA24.JPG,AMSA22.JPG,AMSA23.JPG,,,,,,,,,0,3,3,9,,,,,,,,,,,,,,,AMSA19.jpg,AMSA13.jpg,AMNE13.jpg,AMNE10.jpg,AMSA13.jpg,MS,2,num_6,32,num_2,1.19994104793,,,2017_Jul_27_1649,60.0042148148,MAFE4ImagesEEG,001,101124,
AFSA21.JPG,AFNE22.JPG,AFNE21.JPG,AFSA23.JPG,AFSA22.JPG,AFNE23.JPG,,,,,,,,,0,4,4,0,,,,,,,,,,,,,,,AMNE16.jpg,AMSA16.jpg,AMSA08.jpg,AMNE05.jpg,AMNE16.jpg,MN,1,num_8,16,num_8,1.19994265167,,,2017_Jul_27_1649,60.0042148148,MAFE4ImagesEEG,001,101124,
AFSA21.JPG,AFNE23.JPG,AFNE21.JPG,AFSA25.JPG,AFNE25.JPG,AFSA23.JPG,,,,,,,,,0,5,5,4,,,,,,,,,,,,,,,AMNE07.jpg,AMSA02.jpg,AMSA11.jpg,AMNE10.jpg,AMNE07.jpg,MN,1,num_8,16,num_8,1.2667691753,,,2017_Jul_27_1649,60.0042148148,MAFE4ImagesEEG,001,101124,
AFSA25.JPG,AFNE24.JPG,AFSA24.JPG,AFNE21.JPG,AFSA21.JPG,AFNE25.JPG,,,,,,,,,0,6,6,2,,,,,,,,,,,,,,,AMSA12.jpg,AMSA19.jpg,AMNE06.jpg,AMNE18.jpg,AMSA12.jpg,MS,2,num_8,16,num_8,1.2001004559,,,2017_Jul_27_1649,60.0042148148,MAFE4ImagesEEG,001,101124,
AMNE22.JPG,AMSA24.JPG,AMSA22.JPG,AMNE25.JPG,AMNE24.JPG,AMSA25.JPG,,,,,,,,,0,7,7,7,,,,,,,,,,,,,,,AMNE14.jpg,AMNE08.jpg,AMSA10.jpg,AMSA08.jpg,AMSA10.jpg,MS,2,num_2,16,num_2,1.18345276092,,,2017_Jul_27_1649,60.0042148148,MAFE4ImagesEEG,001,101124,
AFNE22.JPG,AFSA24.JPG,AFSA22.JPG,AFNE25.JPG,AFNE24.JPG,AFSA25.JPG,,,,,,,,,0,8,8,6,,,,,,,,,,,,,,,AMSA06.jpg,AMSA01.jpg,AMNE07.jpg,AMNE03.jpg,AMNE07.jpg,MN,1,num_2,32,num_8,1.25005604932,,,2017_Jul_27_1649,60.0042148148,MAFE4ImagesEEG,001,101124,
AMSA21.JPG,AMNE23.JPG,AMNE21.JPG,AMSA25.JPG,AMNE25.JPG,AMSA23.JPG,,,,,,,,,0,9,9,5,,,,,,,,,,,,,,,AMNE16.jpg,AMSA01.jpg,AMSA19.jpg,AMNE20.jpg,AMSA19.jpg,MS,2,num_2,16,num_2,1.11677923042,,,2017_Jul_27_1649,60.0042148148,MAFE4ImagesEEG,001,101124,
AFSA21.JPG,AFNE23.JPG,AFNE21.JPG,AFSA25.JPG,AFNE25.JPG,AFSA23.JPG,,,,,,,,,,,,,0,0,0,4,,,,,,,,,,,AFSA20.jpg,AFNE08.jpg,AFSA11.jpg,AFNE10.jpg,AFNE08.jpg,FN,3,num_6,32,num_8,1.58338681678,,,2017_Jul_27_1649,60.0042148148,MAFE4ImagesEEG,001,101124,
AMNE23.JPG,AMNE24.JPG,AMNE22.JPG,AMSA24.JPG,AMSA22.JPG,AMSA23.JPG,,,,,,,,,,,,,0,1,1,9,,,,,,,,,,,AFNE12.jpg,AFSA17.jpg,AFSA19.jpg,AFNE17.jpg,AFSA19.jpg,FS,4,num_2,32,num_4,2.48332071223,,,2017_Jul_27_1649,60.0042148148,MAFE4ImagesEEG,001,101124,
AMNE22.JPG,AMSA24.JPG,AMSA22.JPG,AMNE25.JPG,AMNE24.JPG,AMSA25.JPG,,,,,,,,,,,,,0,2,2,7,,,,,,,,,,,AFSA14.jpg,AFNE19.jpg,AFSA03.jpg,AFNE15.jpg,AFNE19.jpg,FN,3,num_6,32,num_4,2.20000551664,,,2017_Jul_27_1649,60.0042148148,MAFE4ImagesEEG,001,101124,
AFSA21.JPG,AFNE22.JPG,AFNE21.JPG,AFSA23.JPG,AFSA22.JPG,AFNE23.JPG,,,,,,,,,,,,,0,3,3,0,,,,,,,,,,,AFSA02.jpg,AFNE17.jpg,AFNE11.jpg,AFSA14.jpg,AFSA14.jpg,FS,4,num_4,32,num_6,1.78336731577,,,2017_Jul_27_1649,60.0042148148,MAFE4ImagesEEG,001,101124,
AMSA21.JPG,AMNE22.JPG,AMNE21.JPG,AMSA23.JPG,AMSA22.JPG,AMNE23.JPG,,,,,,,,,,,,,0,4,4,1,,,,,,,,,,,AFSA02.jpg,AFNE15.jpg,AFSA03.jpg,AFNE11.jpg,AFSA02.jpg,FS,4,num_8,16,num_8,0.900105491397,,,2017_Jul_27_1649,60.0042148148,MAFE4ImagesEEG,001,101124,
AFNE22.JPG,AFSA24.JPG,AFSA22.JPG,AFNE25.JPG,AFNE24.JPG,AFSA25.JPG,,,,,,,,,,,,,0,5,5,6,,,,,,,,,,,AFNE17.jpg,AFSA08.jpg,AFNE20.jpg,AFSA09.jpg,AFNE20.jpg,FN,3,num_2,32,num_8,0.833419131348,,,2017_Jul_27_1649,60.0042148148,MAFE4ImagesEEG,001,101124,
AFSA25.JPG,AFNE24.JPG,AFSA24.JPG,AFNE21.JPG,AFSA21.JPG,AFNE25.JPG,,,,,,,,,,,,,0,6,6,2,,,,,,,,,,,AFNE16.jpg,AFSA15.jpg,AFNE20.jpg,AFSA13.jpg,AFSA15.jpg,FS,4,num_6,32,num_8,0.883429892128,,,2017_Jul_27_1649,60.0042148148,MAFE4ImagesEEG,001,101124,
AMSA25.JPG,AMNE24.JPG,AMSA24.JPG,AMNE26.JPG,AMSA21.JPG,AMNE25.JPG,,,,,,,,,,,,,0,7,7,3,,,,,,,,,,,AFNE09.jpg,AFNE16.jpg,AFSA07.jpg,AFSA12.jpg,AFNE16.jpg,FN,3,num_6,16,num_6,1.21644216462,,,2017_Jul_27_1649,60.0042148148,MAFE4ImagesEEG,001,101124,
AMSA21.JPG,AMNE23.JPG,AMNE21.JPG,AMSA25.JPG,AMNE25.JPG,AMSA23.JPG,,,,,,,,,,,,,0,8,8,5,,,,,,,,,,,AFSA17.jpg,AFNE08.jpg,AFNE04.jpg,AFSA05.jpg,AFNE08.jpg,FN,3,num_6,32,num_8,0.750159808784,,,2017_Jul_27_1649,60.0042148148,MAFE4ImagesEEG,001,101124,
AFNE23.JPG,AFNE24.JPG,AFNE22.JPG,AFSA24.JPG,AFSA22.JPG,AFSA23.JPG,,,,,,,,,,,,,0,9,9,8,,,,,,,,,,,AFNE01.jpg,AFSA12.jpg,AFNE07.jpg,AFSA16.jpg,AFSA16.jpg,FS,4,num_4,16,num_4,0.88349371939,,,2017_Jul_27_1649,60.0042148148,MAFE4ImagesEEG,001,101124,
AMSA21.JPG,AMNE22.JPG,AMNE21.JPG,AMSA23.JPG,AMSA22.JPG,AMNE23.JPG,,,,,,,,,,,,,,,,,0,0,0,1,,,,,,,AMSA16.jpg,AMNE14.jpg,AMNE12.jpg,AMSA12.jpg,AMNE14.jpg,MN,1,num_6,16,num_6,0.550235118484,,,2017_Jul_27_1649,60.0042148148,MAFE4ImagesEEG,001,101124,
AFNE22.JPG,AFSA24.JPG,AFSA22.JPG,AFNE25.JPG,AFNE24.JPG,AFSA25.JPG,,,,,,,,,,,,,,,,,0,1,1,6,,,,,,,AMNE15.jpg,AMSA10.jpg,AMNE09.jpg,AMSA05.jpg,AMNE15.jpg,MN,1,num_8,16,num_8,1.36681186571,,,2017_Jul_27_1649,60.0042148148,MAFE4ImagesEEG,001,101124,
AMNE23.JPG,AMNE24.JPG,AMNE22.JPG,AMSA24.JPG,AMSA22.JPG,AMSA23.JPG,,,,,,,,,,,,,,,,,0,2,2,9,,,,,,,AMNE03.jpg,AMNE04.jpg,AMSA10.jpg,AMSA12.jpg,AMNE04.jpg,MN,1,num_6,16,num_6,2.36665758968,,,2017_Jul_27_1649,60.0042148148,MAFE4ImagesEEG,001,101124,
AMNE22.JPG,AMSA24.JPG,AMSA22.JPG,AMNE25.JPG,AMNE24.JPG,AMSA25.JPG,,,,,,,,,,,,,,,,,0,3,3,7,,,,,,,AMSA13.jpg,AMSA19.jpg,AMNE10.jpg,AMNE11.jpg,AMNE11.jpg,MN,1,num_4,16,num_4,0.616764957434,,,2017_Jul_27_1649,60.0042148148,MAFE4ImagesEEG,001,101124,
AFNE23.JPG,AFNE24.JPG,AFNE22.JPG,AFSA24.JPG,AFSA22.JPG,AFSA23.JPG,,,,,,,,,,,,,,,,,0,4,4,8,,,,,,,AMNE04.jpg,AMSA17.jpg,AMNE11.jpg,AMSA02.jpg,AMNE04.jpg,MN,1,num_8,32,num_6,1.23339360033,,,2017_Jul_27_1649,60.0042148148,MAFE4ImagesEEG,001,101124,
AMSA25.JPG,AMNE24.JPG,AMSA24.JPG,AMNE26.JPG,AMSA21.JPG,AMNE25.JPG,,,,,,,,,,,,,,,,,0,5,5,3,,,,,,,AMSA07.jpg,AMNE05.jpg,AMSA15.jpg,AMNE19.jpg,AMNE05.jpg,MN,1,num_6,16,num_6,1.15007237508,,,2017_Jul_27_1649,60.0042148148,MAFE4ImagesEEG,001,101124,
AFSA21.JPG,AFNE23.JPG,AFNE21.JPG,AFSA25.JPG,AFNE25.JPG,AFSA23.JPG,,,,,,,,,,,,,,,,,0,6,6,4,,,,,,,AMSA02.jpg,AMSA15.jpg,AMNE16.jpg,AMNE15.jpg,AMNE15.jpg,MN,1,num_4,16,num_4,0.849987924099,,,2017_Jul_27_1649,60.0042148148,MAFE4ImagesEEG,001,101124,
AMSA21.JPG,AMNE23.JPG,AMNE21.JPG,AMSA25.JPG,AMNE25.JPG,AMSA23.JPG,,,,,,,,,,,,,,,,,0,7,7,5,,,,,,,AMNE02.jpg,AMSA03.jpg,AMNE08.jpg,AMSA05.jpg,AMNE02.jpg,MN,1,num_8,32,num_2,2.33337053924,,,2017_Jul_27_1649,60.0042148148,MAFE4ImagesEEG,001,101124,
AFSA21.JPG,AFNE22.JPG,AFNE21.JPG,AFSA23.JPG,AFSA22.JPG,AFNE23.JPG,,,,,,,,,,,,,,,,,0,8,8,0,,,,,,,AMNE14.jpg,AMSA04.jpg,AMNE07.jpg,AMSA17.jpg,AMSA04.jpg,MS,2,num_6,16,num_6,0.783500102232,,,2017_Jul_27_1649,60.0042148148,MAFE4ImagesEEG,001,101124,
AFSA25.JPG,AFNE24.JPG,AFSA24.JPG,AFNE21.JPG,AFSA21.JPG,AFNE25.JPG,,,,,,,,,,,,,,,,,0,9,9,2,,,,,,,AMSA10.jpg,AMNE02.jpg,AMNE16.jpg,AMSA04.jpg,AMNE02.jpg,MN,1,num_6,32,num_4,2.01670254138,,,2017_Jul_27_1649,60.0042148148,MAFE4ImagesEEG,001,101124,
AFNE22.JPG,AFSA24.JPG,AFSA22.JPG,AFNE25.JPG,AFNE24.JPG,AFSA25.JPG,,,,,,,,,,,,,,,,,,,,,0,0,0,6,,,AFSA14.jpg,AFNE08.jpg,AFNE12.jpg,AFSA08.jpg,AFSA14.jpg,FS,4,num_8,16,num_8,0.850112050539,,,2017_Jul_27_1649,60.0042148148,MAFE4ImagesEEG,001,101124,
AFSA21.JPG,AFNE23.JPG,AFNE21.JPG,AFSA25.JPG,AFNE25.JPG,AFSA23.JPG,,,,,,,,,,,,,,,,,,,,,0,1,1,4,,,AFSA05.jpg,AFNE06.jpg,AFSA15.jpg,AFNE15.jpg,AFSA15.jpg,FS,4,num_2,16,num_2,2.18344955344,,,2017_Jul_27_1649,60.0042148148,MAFE4ImagesEEG,001,101124,
AFSA21.JPG,AFNE22.JPG,AFNE21.JPG,AFSA23.JPG,AFSA22.JPG,AFNE23.JPG,,,,,,,,,,,,,,,,,,,,,0,2,2,0,,,AFSA16.jpg,AFNE11.jpg,AFSA09.jpg,AFNE04.jpg,AFSA09.jpg,FS,4,num_2,32,num_8,2.53340812994,,,2017_Jul_27_1649,60.0042148148,MAFE4ImagesEEG,001,101124,
AFNE23.JPG,AFNE24.JPG,AFNE22.JPG,AFSA24.JPG,AFSA22.JPG,AFSA23.JPG,,,,,,,,,,,,,,,,,,,,,0,3,3,8,,,AFNE14.jpg,AFSA07.jpg,AFNE02.jpg,AFSA04.jpg,AFNE14.jpg,FN,3,num_8,16,num_8,1.81668644026,,,2017_Jul_27_1649,60.0042148148,MAFE4ImagesEEG,001,101124,
AMSA21.JPG,AMNE23.JPG,AMNE21.JPG,AMSA25.JPG,AMNE25.JPG,AMSA23.JPG,,,,,,,,,,,,,,,,,,,,,0,4,4,5,,,AFSA08.jpg,AFNE04.jpg,AFSA19.jpg,AFNE16.jpg,AFSA19.jpg,FS,4,num_2,16,num_2,0.583461228409,,,2017_Jul_27_1649,60.0042148148,MAFE4ImagesEEG,001,101124,
AMSA25.JPG,AMNE24.JPG,AMSA24.JPG,AMNE26.JPG,AMSA21.JPG,AMNE25.JPG,,,,,,,,,,,,,,,,,,,,,0,5,5,3,,,AFSA10.jpg,AFNE20.jpg,AFSA20.jpg,AFNE18.jpg,AFSA20.jpg,FS,4,num_2,32,num_6,1.00008467538,,,2017_Jul_27_1649,60.0042148148,MAFE4ImagesEEG,001,101124,
AMNE23.JPG,AMNE24.JPG,AMNE22.JPG,AMSA24.JPG,AMSA22.JPG,AMSA23.JPG,,,,,,,,,,,,,,,,,,,,,0,6,6,9,,,AFNE07.jpg,AFSA17.jpg,AFSA07.jpg,AFNE01.jpg,AFNE01.jpg,FN,3,num_4,32,num_8,0.81682083034,,,2017_Jul_27_1649,60.0042148148,MAFE4ImagesEEG,001,101124,
AMSA21.JPG,AMNE22.JPG,AMNE21.JPG,AMSA23.JPG,AMSA22.JPG,AMNE23.JPG,,,,,,,,,,,,,,,,,,,,,0,7,7,1,,,AFSA20.jpg,AFNE03.jpg,AFSA15.jpg,AFNE05.jpg,AFSA15.jpg,FS,4,num_2,16,num_2,1.43344017188,,,2017_Jul_27_1649,60.0042148148,MAFE4ImagesEEG,001,101124,
AFSA25.JPG,AFNE24.JPG,AFSA24.JPG,AFNE21.JPG,AFSA21.JPG,AFNE25.JPG,,,,,,,,,,,,,,,,,,,,,0,8,8,2,,,AFNE10.jpg,AFNE11.jpg,AFSA02.jpg,AFSA08.jpg,AFNE10.jpg,FN,3,num_8,32,num_2,1.08343765407,,,2017_Jul_27_1649,60.0042148148,MAFE4ImagesEEG,001,101124,
AMNE22.JPG,AMSA24.JPG,AMSA22.JPG,AMNE25.JPG,AMNE24.JPG,AMSA25.JPG,,,,,,,,,,,,,,,,,,,,,0,9,9,7,,,AFSA14.jpg,AFNE02.jpg,AFSA10.jpg,AFNE11.jpg,AFSA10.jpg,FS,4,num_2,32,num_4,1.11679238069,,,2017_Jul_27_1649,60.0042148148,MAFE4ImagesEEG,001,101124,
,,,,,,,,,,,,,,,,,,,,,,,,,,,,,,,,,,,,,,,,,,,space,35.0145054716,2017_Jul_27_1649,60.0042148148,MAFE4ImagesEEG,001,101124,
AFNE01.JPG,AFNE01.JPG,AFNE01.JPG,AFNE01.JPG,AFNE01.JPG,AFNE01.JPG,0,0,0,5,,,,,,,,,,,,,,,,,,,,,,,AMSA04.jpg,AMSA16.jpg,AMNE09.jpg,AMNE02.jpg,AMNE09.jpg,MN,1,num_2,32,num_4,2.74984259682,,,2017_Jul_27_1649,60.0042148148,MAFE4ImagesEEG,001,101124,
AFNE01.JPG,AFNE01.JPG,AFNE01.JPG,AFNE01.JPG,AFNE01.JPG,AFNE01.JPG,0,1,1,0,,,,,,,,,,,,,,,,,,,,,,,AMSA09.jpg,AMNE16.jpg,AMNE13.jpg,AMSA07.jpg,AMSA09.jpg,MS,2,num_8,32,num_4,1.01687702409,,,2017_Jul_27_1649,60.0042148148,MAFE4ImagesEEG,001,101124,
AFNE01.JPG,AFNE01.JPG,AFNE01.JPG,AFNE01.JPG,AFNE01.JPG,AFNE01.JPG,0,2,2,3,,,,,,,,,,,,,,,,,,,,,,,AMSA02.jpg,AMNE17.jpg,AMSA07.jpg,AMNE19.jpg,AMSA02.jpg,MS,2,num_8,16,num_8,0.983412283589,,,2017_Jul_27_1649,60.0042148148,MAFE4ImagesEEG,001,101124,
AFNE01.JPG,AFNE01.JPG,AFNE01.JPG,AFNE01.JPG,AFNE01.JPG,AFNE01.JPG,0,3,3,7,,,,,,,,,,,,,,,,,,,,,,,AMSA02.jpg,AMNE07.jpg,AMSA20.jpg,AMNE05.jpg,AMNE07.jpg,MN,1,num_6,16,num_6,0.499928635312,,,2017_Jul_27_1649,60.0042148148,MAFE4ImagesEEG,001,101124,
AFNE01.JPG,AFNE01.JPG,AFNE01.JPG,AFNE01.JPG,AFNE01.JPG,AFNE01.JPG,0,4,4,2,,,,,,,,,,,,,,,,,,,,,,,AMSA16.jpg,AMNE16.jpg,AMSA10.jpg,AMNE03.jpg,AMNE03.jpg,MN,1,num_4,32,num_8,1.11672983633,,,2017_Jul_27_1649,60.0042148148,MAFE4ImagesEEG,001,101124,
AFNE01.JPG,AFNE01.JPG,AFNE01.JPG,AFNE01.JPG,AFNE01.JPG,AFNE01.JPG,0,5,5,1,,,,,,,,,,,,,,,,,,,,,,,AMSA16.jpg,AMSA04.jpg,AMNE18.jpg,AMNE02.jpg,AMNE02.jpg,MN,1,num_4,16,num_4,1.16678742529,,,2017_Jul_27_1649,60.0042148148,MAFE4ImagesEEG,001,101124,
AFNE01.JPG,AFNE01.JPG,AFNE01.JPG,AFNE01.JPG,AFNE01.JPG,AFNE01.JPG,0,6,6,4,,,,,,,,,,,,,,,,,,,,,,,AMNE02.jpg,AMNE06.jpg,AMSA01.jpg,AMSA04.jpg,AMNE02.jpg,MN,1,num_8,32,num_2,1.75010560371,,,2017_Jul_27_1649,60.0042148148,MAFE4ImagesEEG,001,101124,
AFNE01.JPG,AFNE01.JPG,AFNE01.JPG,AFNE01.JPG,AFNE01.JPG,AFNE01.JPG,0,7,7,9,,,,,,,,,,,,,,,,,,,,,,,AMSA17.jpg,AMNE16.jpg,AMNE01.jpg,AMSA19.jpg,AMNE01.jpg,MN,1,num_2,32,num_4,3.58326301107,,,2017_Jul_27_1649,60.0042148148,MAFE4ImagesEEG,001,101124,
AFNE01.JPG,AFNE01.JPG,AFNE01.JPG,AFNE01.JPG,AFNE01.JPG,AFNE01.JPG,0,8,8,8,,,,,,,,,,,,,,,,,,,,,,,AMSA15.jpg,AMNE01.jpg,AMNE06.jpg,AMSA16.jpg,AMNE06.jpg,MN,1,num_2,32,num_8,4.78316492878,,,2017_Jul_27_1649,60.0042148148,MAFE4ImagesEEG,001,101124,
AFNE01.JPG,AFNE01.JPG,AFNE01.JPG,AFNE01.JPG,AFNE01.JPG,AFNE01.JPG,0,9,9,6,,,,,,,,,,,,,,,,,,,,,,,AMSA08.jpg,AMNE17.jpg,AMSA09.jpg,AMNE09.jpg,AMSA09.jpg,MS,2,num_2,32,num_8,1.3334247442,,,2017_Jul_27_1649,60.0042148148,MAFE4ImagesEEG,001,101124,
AFNE01.JPG,AFNE01.JPG,AFNE01.JPG,AFNE01.JPG,AFNE01.JPG,AFNE01.JPG,1,0,10,9,,,,,,,,,,,,,,,,,,,,,,,AMSA16.jpg,AMSA14.jpg,AMNE05.jpg,AMNE19.jpg,AMNE19.jpg,MN,1,num_4,16,num_4,1.54975497059,,,2017_Jul_27_1649,60.0042148148,MAFE4ImagesEEG,001,101124,
AFNE01.JPG,AFNE01.JPG,AFNE01.JPG,AFNE01.JPG,AFNE01.JPG,AFNE01.JPG,1,1,11,2,,,,,,,,,,,,,,,,,,,,,,,AMSA13.jpg,AMSA06.jpg,AMNE04.jpg,AMNE05.jpg,AMNE04.jpg,MN,1,num_2,16,num_2,1.91668037826,,,2017_Jul_27_1649,60.0042148148,MAFE4ImagesEEG,001,101124,
AFNE01.JPG,AFNE01.JPG,AFNE01.JPG,AFNE01.JPG,AFNE01.JPG,AFNE01.JPG,1,2,12,4,,,,,,,,,,,,,,,,,,,,,,,AMNE01.jpg,AMSA07.jpg,AMNE18.jpg,AMSA16.jpg,AMNE18.jpg,MN,1,num_2,16,num_2,1.30014475004,,,2017_Jul_27_1649,60.0042148148,MAFE4ImagesEEG,001,101124,
AFNE01.JPG,AFNE01.JPG,AFNE01.JPG,AFNE01.JPG,AFNE01.JPG,AFNE01.JPG,1,3,13,1,,,,,,,,,,,,,,,,,,,,,,,AMNE07.jpg,AMNE02.jpg,AMSA06.jpg,AMSA10.jpg,AMSA10.jpg,MS,2,num_4,32,num_2,1.48341404751,,,2017_Jul_27_1649,60.0042148148,MAFE4ImagesEEG,001,101124,
AFNE01.JPG,AFNE01.JPG,AFNE01.JPG,AFNE01.JPG,AFNE01.JPG,AFNE01.JPG,1,4,14,0,,,,,,,,,,,,,,,,,,,,,,,AMNE06.jpg,AMSA01.jpg,AMSA03.jpg,AMNE03.jpg,AMSA01.jpg,MS,2,num_6,16,num_6,1.23346544616,,,2017_Jul_27_1649,60.0042148148,MAFE4ImagesEEG,001,101124,
AFNE01.JPG,AFNE01.JPG,AFNE01.JPG,AFNE01.JPG,AFNE01.JPG,AFNE01.JPG,1,5,15,5,,,,,,,,,,,,,,,,,,,,,,,AMSA09.jpg,AMSA14.jpg,AMNE18.jpg,AMNE02.jpg,AMSA14.jpg,MS,2,num_6,32,num_2,1.50005308248,,,2017_Jul_27_1649,60.0042148148,MAFE4ImagesEEG,001,101124,
AFNE01.JPG,AFNE01.JPG,AFNE01.JPG,AFNE01.JPG,AFNE01.JPG,AFNE01.JPG,1,6,16,7,,,,,,,,,,,,,,,,,,,,,,,AMNE08.jpg,AMSA14.jpg,AMNE03.jpg,AMSA17.jpg,AMNE08.jpg,MN,1,num_8,32,num_2,1.30021980323,,,2017_Jul_27_1649,60.0042148148,MAFE4ImagesEEG,001,101124,
AFNE01.JPG,AFNE01.JPG,AFNE01.JPG,AFNE01.JPG,AFNE01.JPG,AFNE01.JPG,1,7,17,3,,,,,,,,,,,,,,,,,,,,,,,AMNE01.jpg,AMSA18.jpg,AMSA03.jpg,AMNE13.jpg,AMNE01.jpg,MN,1,num_8,16,num_8,1.40006844595,,,2017_Jul_27_1649,60.0042148148,MAFE4ImagesEEG,001,101124,
AFNE01.JPG,AFNE01.JPG,AFNE01.JPG,AFNE01.JPG,AFNE01.JPG,AFNE01.JPG,1,8,18,8,,,,,,,,,,,,,,,,,,,,,,,AMSA07.jpg,AMSA16.jpg,AMNE16.jpg,AMNE03.jpg,AMSA16.jpg,MS,2,num_6,32,num_4,1.20021688449,,,2017_Jul_27_1649,60.0042148148,MAFE4ImagesEEG,001,101124,
AFNE01.JPG,AFNE01.JPG,AFNE01.JPG,AFNE01.JPG,AFNE01.JPG,AFNE01.JPG,1,9,19,6,,,,,,,,,,,,,,,,,,,,,,,AMSA01.jpg,AMNE14.jpg,AMNE16.jpg,AMSA14.jpg,AMSA01.jpg,MS,2,num_8,32,num_6,1.3667573398,,,2017_Jul_27_1649,60.0042148148,MAFE4ImagesEEG,001,101124,
AFNE01.JPG,AFNE01.JPG,AFNE01.JPG,AFNE01.JPG,AFNE01.JPG,AFNE01.JPG,2,0,20,8,,,,,,,,,,,,,,,,,,,,,,,AMSA10.jpg,AMNE08.jpg,AMSA16.jpg,AMNE15.jpg,AMSA10.jpg,MS,2,num_8,16,num_8,1.33308572206,,,2017_Jul_27_1649,60.0042148148,MAFE4ImagesEEG,001,101124,
AFNE01.JPG,AFNE01.JPG,AFNE01.JPG,AFNE01.JPG,AFNE01.JPG,AFNE01.JPG,2,1,21,6,,,,,,,,,,,,,,,,,,,,,,,AMNE04.jpg,AMNE12.jpg,AMSA18.jpg,AMSA09.jpg,AMNE04.jpg,MN,1,num_8,16,num_8,2.06675724371,,,2017_Jul_27_1649,60.0042148148,MAFE4ImagesEEG,001,101124,
AFNE01.JPG,AFNE01.JPG,AFNE01.JPG,AFNE01.JPG,AFNE01.JPG,AFNE01.JPG,2,2,22,9,,,,,,,,,,,,,,,,,,,,,,,AMNE12.jpg,AMNE14.jpg,AMSA06.jpg,AMSA15.jpg,AMNE12.jpg,MN,1,num_8,32,num_6,1.31687295064,,,2017_Jul_27_1649,60.0042148148,MAFE4ImagesEEG,001,101124,
AFNE01.JPG,AFNE01.JPG,AFNE01.JPG,AFNE01.JPG,AFNE01.JPG,AFNE01.JPG,2,3,23,5,,,,,,,,,,,,,,,,,,,,,,,AMSA09.jpg,AMNE19.jpg,AMSA15.jpg,AMNE17.jpg,AMNE19.jpg,MN,1,num_6,16,num_6,1.16679897194,,,2017_Jul_27_1649,60.0042148148,MAFE4ImagesEEG,001,101124,
AFNE01.JPG,AFNE01.JPG,AFNE01.JPG,AFNE01.JPG,AFNE01.JPG,AFNE01.JPG,2,4,24,2,,,,,,,,,,,,,,,,,,,,,,,AMNE06.jpg,AMNE12.jpg,AMSA19.jpg,AMSA05.jpg,AMNE12.jpg,MN,1,num_6,16,num_6,1.31674978638,,,2017_Jul_27_1649,60.0042148148,MAFE4ImagesEEG,001,101124,
AFNE01.JPG,AFNE01.JPG,AFNE01.JPG,AFNE01.JPG,AFNE01.JPG,AFNE01.JPG,2,5,25,0,,,,,,,,,,,,,,,,,,,,,,,AMSA18.jpg,AMNE15.jpg,AMNE13.jpg,AMSA03.jpg,AMSA03.jpg,MS,2,num_4,16,num_4,1.48355228652,,,2017_Jul_27_1649,60.0042148148,MAFE4ImagesEEG,001,101124,
AFNE01.JPG,AFNE01.JPG,AFNE01.JPG,AFNE01.JPG,AFNE01.JPG,AFNE01.JPG,2,6,26,7,,,,,,,,,,,,,,,,,,,,,,,AMSA07.jpg,AMNE12.jpg,AMNE09.jpg,AMSA13.jpg,AMNE12.jpg,MN,1,num_6,32,num_2,1.46677757858,,,2017_Jul_27_1649,60.0042148148,MAFE4ImagesEEG,001,101124,
AFNE01.JPG,AFNE01.JPG,AFNE01.JPG,AFNE01.JPG,AFNE01.JPG,AFNE01.JPG,2,7,27,3,,,,,,,,,,,,,,,,,,,,,,,AMNE09.jpg,AMNE16.jpg,AMSA05.jpg,AMSA14.jpg,AMSA05.jpg,MS,2,num_2,32,num_4,1.38356444263,,,2017_Jul_27_1649,60.0042148148,MAFE4ImagesEEG,001,101124,
AFNE01.JPG,AFNE01.JPG,AFNE01.JPG,AFNE01.JPG,AFNE01.JPG,AFNE01.JPG,2,8,28,1,,,,,,,,,,,,,,,,,,,,,,,AMSA11.jpg,AMSA04.jpg,AMNE09.jpg,AMNE18.jpg,AMSA04.jpg,MS,2,num_6,32,num_2,1.36671371921,,,2017_Jul_27_1649,60.0042148148,MAFE4ImagesEEG,001,101124,
AFNE01.JPG,AFNE01.JPG,AFNE01.JPG,AFNE01.JPG,AFNE01.JPG,AFNE01.JPG,2,9,29,4,,,,,,,,,,,,,,,,,,,,,,,AMNE05.jpg,AMNE18.jpg,AMSA17.jpg,AMSA02.jpg,AMNE05.jpg,MN,1,num_8,32,num_4,1.61658566375,,,2017_Jul_27_1649,60.0042148148,MAFE4ImagesEEG,001,101124,
AFNE01.JPG,AFNE01.JPG,AFNE01.JPG,AFNE01.JPG,AFNE01.JPG,AFNE01.JPG,3,0,30,2,,,,,,,,,,,,,,,,,,,,,,,AMNE08.jpg,AMSA12.jpg,AMSA07.jpg,AMNE15.jpg,AMSA12.jpg,MS,2,num_6,32,num_2,1.66644279007,,,2017_Jul_27_1649,60.0042148148,MAFE4ImagesEEG,001,101124,
AFNE01.JPG,AFNE01.JPG,AFNE01.JPG,AFNE01.JPG,AFNE01.JPG,AFNE01.JPG,3,1,31,9,,,,,,,,,,,,,,,,,,,,,,,AMSA07.jpg,AMNE13.jpg,AMNE08.jpg,AMSA09.jpg,AMSA09.jpg,MS,2,num_4,16,num_4,1.05011756718,,,2017_Jul_27_1649,60.0042148148,MAFE4ImagesEEG,001,101124,
AFNE01.JPG,AFNE01.JPG,AFNE01.JPG,AFNE01.JPG,AFNE01.JPG,AFNE01.JPG,3,2,32,0,,,,,,,,,,,,,,,,,,,,,,,AMSA15.jpg,AMNE17.jpg,AMNE16.jpg,AMSA03.jpg,AMSA03.jpg,MS,2,num_4,32,num_8,3.35004036513,,,2017_Jul_27_1649,60.0042148148,MAFE4ImagesEEG,001,101124,
AFNE01.JPG,AFNE01.JPG,AFNE01.JPG,AFNE01.JPG,AFNE01.JPG,AFNE01.JPG,3,3,33,4,,,,,,,,,,,,,,,,,,,,,,,AMNE08.jpg,AMNE05.jpg,AMSA10.jpg,AMSA02.jpg,AMSA10.jpg,MS,2,num_2,16,num_2,4.69988956919,,,2017_Jul_27_1649,60.0042148148,MAFE4ImagesEEG,001,101124,
AFNE01.JPG,AFNE01.JPG,AFNE01.JPG,AFNE01.JPG,AFNE01.JPG,AFNE01.JPG,3,4,34,8,,,,,,,,,,,,,,,,,,,,,,,AMSA08.jpg,AMSA09.jpg,AMNE13.jpg,AMNE05.jpg,AMSA09.jpg,MS,2,num_6,32,num_8,1.51682490378,,,2017_Jul_27_1649,60.0042148148,MAFE4ImagesEEG,001,101124,
AFNE01.JPG,AFNE01.JPG,AFNE01.JPG,AFNE01.JPG,AFNE01.JPG,AFNE01.JPG,3,5,35,6,,,,,,,,,,,,,,,,,,,,,,,AMNE16.jpg,AMSA08.jpg,AMSA10.jpg,AMNE09.jpg,AMSA10.jpg,MS,2,num_2,16,num_2,1.43346775544,,,2017_Jul_27_1649,60.0042148148,MAFE4ImagesEEG,001,101124,
AFNE01.JPG,AFNE01.JPG,AFNE01.JPG,AFNE01.JPG,AFNE01.JPG,AFNE01.JPG,3,6,36,7,,,,,,,,,,,,,,,,,,,,,,,AMNE18.jpg,AMSA16.jpg,AMNE03.jpg,AMSA07.jpg,AMSA07.jpg,MS,2,num_4,16,num_4,1.08344214445,,,2017_Jul_27_1649,60.0042148148,MAFE4ImagesEEG,001,101124,
AFNE01.JPG,AFNE01.JPG,AFNE01.JPG,AFNE01.JPG,AFNE01.JPG,AFNE01.JPG,3,7,37,5,,,,,,,,,,,,,,,,,,,,,,,AMSA14.jpg,AMNE17.jpg,AMNE14.jpg,AMSA11.jpg,AMSA11.jpg,MS,2,num_4,32,num_8,1.40004791855,,,2017_Jul_27_1649,60.0042148148,MAFE4ImagesEEG,001,101124,
AFNE01.JPG,AFNE01.JPG,AFNE01.JPG,AFNE01.JPG,AFNE01.JPG,AFNE01.JPG,3,8,38,3,,,,,,,,,,,,,,,,,,,,,,,AMNE12.jpg,AMSA01.jpg,AMSA11.jpg,AMNE06.jpg,AMSA01.jpg,MS,2,num_6,16,num_6,1.18343736534,,,2017_Jul_27_1649,60.0042148148,MAFE4ImagesEEG,001,101124,
AFNE01.JPG,AFNE01.JPG,AFNE01.JPG,AFNE01.JPG,AFNE01.JPG,AFNE01.JPG,3,9,39,1,,,,,,,,,,,,,,,,,,,,,,,AMNE09.jpg,AMSA07.jpg,AMSA18.jpg,AMNE19.jpg,AMSA07.jpg,MS,2,num_6,32,num_2,1.36675317027,,,2017_Jul_27_1649,60.0042148148,MAFE4ImagesEEG,001,101124,
AFNE01.JPG,AFNE01.JPG,AFNE01.JPG,AFNE01.JPG,AFNE01.JPG,AFNE01.JPG,4,0,40,8,,,,,,,,,,,,,,,,,,,,,,,AMNE13.jpg,AMNE20.jpg,AMSA19.jpg,AMSA13.jpg,AMNE20.jpg,MN,1,num_6,16,num_6,1.53340043221,,,2017_Jul_27_1649,60.0042148148,MAFE4ImagesEEG,001,101124,
AFNE01.JPG,AFNE01.JPG,AFNE01.JPG,AFNE01.JPG,AFNE01.JPG,AFNE01.JPG,4,1,41,1,,,,,,,,,,,,,,,,,,,,,,,AMSA16.jpg,AMNE05.jpg,AMNE04.jpg,AMSA10.jpg,AMNE04.jpg,MN,1,num_2,16,num_2,1.35009713611,,,2017_Jul_27_1649,60.0042148148,MAFE4ImagesEEG,001,101124,
AFNE01.JPG,AFNE01.JPG,AFNE01.JPG,AFNE01.JPG,AFNE01.JPG,AFNE01.JPG,4,2,42,3,,,,,,,,,,,,,,,,,,,,,,,AMSA04.jpg,AMNE16.jpg,AMSA20.jpg,AMNE01.jpg,AMSA04.jpg,MS,2,num_8,16,num_8,1.38347303169,,,2017_Jul_27_1649,60.0042148148,MAFE4ImagesEEG,001,101124,
AFNE01.JPG,AFNE01.JPG,AFNE01.JPG,AFNE01.JPG,AFNE01.JPG,AFNE01.JPG,4,3,43,7,,,,,,,,,,,,,,,,,,,,,,,AMSA11.jpg,AMSA10.jpg,AMNE20.jpg,AMNE06.jpg,AMNE20.jpg,MN,1,num_2,32,num_6,1.466762183,,,2017_Jul_27_1649,60.0042148148,MAFE4ImagesEEG,001,101124,
AFNE01.JPG,AFNE01.JPG,AFNE01.JPG,AFNE01.JPG,AFNE01.JPG,AFNE01.JPG,4,4,44,4,,,,,,,,,,,,,,,,,,,,,,,AMSA10.jpg,AMNE14.jpg,AMSA13.jpg,AMNE15.jpg,AMSA10.jpg,MS,2,num_8,32,num_4,1.48344227264,,,2017_Jul_27_1649,60.0042148148,MAFE4ImagesEEG,001,101124,
AFNE01.JPG,AFNE01.JPG,AFNE01.JPG,AFNE01.JPG,AFNE01.JPG,AFNE01.JPG,4,5,45,2,,,,,,,,,,,,,,,,,,,,,,,AMNE05.jpg,AMNE15.jpg,AMSA14.jpg,AMSA03.jpg,AMSA14.jpg,MS,2,num_2,16,num_2,2.10015462886,,,2017_Jul_27_1649,60.0042148148,MAFE4ImagesEEG,001,101124,
AFNE01.JPG,AFNE01.JPG,AFNE01.JPG,AFNE01.JPG,AFNE01.JPG,AFNE01.JPG,4,6,46,9,,,,,,,,,,,,,,,,,,,,,,,AMNE18.jpg,AMSA01.jpg,AMNE04.jpg,AMSA02.jpg,AMSA02.jpg,MS,2,num_4,32,num_6,1.51676043507,,,2017_Jul_27_1649,60.0042148148,MAFE4ImagesEEG,001,101124,
AFNE01.JPG,AFNE01.JPG,AFNE01.JPG,AFNE01.JPG,AFNE01.JPG,AFNE01.JPG,4,7,47,0,,,,,,,,,,,,,,,,,,,,,,,AMNE04.jpg,AMSA09.jpg,AMSA02.jpg,AMNE01.jpg,AMSA09.jpg,MS,2,num_6,32,num_2,2.15005313058,,,2017_Jul_27_1649,60.0042148148,MAFE4ImagesEEG,001,101124,
AFNE01.JPG,AFNE01.JPG,AFNE01.JPG,AFNE01.JPG,AFNE01.JPG,AFNE01.JPG,4,8,48,5,,,,,,,,,,,,,,,,,,,,,,,AMNE03.jpg,AMSA20.jpg,AMNE16.jpg,AMSA08.jpg,AMNE16.jpg,MN,1,num_2,16,num_2,1.48340378387,,,2017_Jul_27_1649,60.0042148148,MAFE4ImagesEEG,001,101124,
AFNE01.JPG,AFNE01.JPG,AFNE01.JPG,AFNE01.JPG,AFNE01.JPG,AFNE01.JPG,4,9,49,6,,,,,,,,,,,,,,,,,,,,,,,AMNE16.jpg,AMSA02.jpg,AMNE11.jpg,AMSA16.jpg,AMNE11.jpg,MN,1,num_2,48,None,,,,2017_Jul_27_1649,60.0042148148,MAFE4ImagesEEG,001,101124,
AFNE01.JPG,AFNE01.JPG,AFNE01.JPG,AFNE01.JPG,AFNE01.JPG,AFNE01.JPG,5,0,50,3,,,,,,,,,,,,,,,,,,,,,,,AMNE13.jpg,AMSA19.jpg,AMNE15.jpg,AMSA04.jpg,AMSA19.jpg,MS,2,num_6,32,num_2,4.3332682231,,,2017_Jul_27_1649,60.0042148148,MAFE4ImagesEEG,001,101124,
AFNE01.JPG,AFNE01.JPG,AFNE01.JPG,AFNE01.JPG,AFNE01.JPG,AFNE01.JPG,5,1,51,9,,,,,,,,,,,,,,,,,,,,,,,AMNE03.jpg,AMNE10.jpg,AMSA10.jpg,AMSA07.jpg,AMSA07.jpg,MS,2,num_4,16,num_4,1.31674722058,,,2017_Jul_27_1649,60.0042148148,MAFE4ImagesEEG,001,101124,
AFNE01.JPG,AFNE01.JPG,AFNE01.JPG,AFNE01.JPG,AFNE01.JPG,AFNE01.JPG,5,2,52,5,,,,,,,,,,,,,,,,,,,,,,,AMNE18.jpg,AMSA18.jpg,AMNE14.jpg,AMSA20.jpg,AMSA20.jpg,MS,2,num_4,16,num_4,1.01669869258,,,2017_Jul_27_1649,60.0042148148,MAFE4ImagesEEG,001,101124,
AFNE01.JPG,AFNE01.JPG,AFNE01.JPG,AFNE01.JPG,AFNE01.JPG,AFNE01.JPG,5,3,53,6,,,,,,,,,,,,,,,,,,,,,,,AMNE08.jpg,AMSA12.jpg,AMSA06.jpg,AMNE07.jpg,AMSA12.jpg,MS,2,num_6,16,num_6,1.26709985826,,,2017_Jul_27_1649,60.0042148148,MAFE4ImagesEEG,001,101124,
AFNE01.JPG,AFNE01.JPG,AFNE01.JPG,AFNE01.JPG,AFNE01.JPG,AFNE01.JPG,5,4,54,2,,,,,,,,,,,,,,,,,,,,,,,AMSA18.jpg,AMSA16.jpg,AMNE17.jpg,AMNE01.jpg,AMSA16.jpg,MS,2,num_6,32,num_2,1.33348568494,,,2017_Jul_27_1649,60.0042148148,MAFE4ImagesEEG,001,101124,
AFNE01.JPG,AFNE01.JPG,AFNE01.JPG,AFNE01.JPG,AFNE01.JPG,AFNE01.JPG,5,5,55,4,,,,,,,,,,,,,,,,,,,,,,,AMSA13.jpg,AMSA08.jpg,AMNE14.jpg,AMNE09.jpg,AMNE14.jpg,MN,1,num_2,16,num_2,1.0836041182,,,2017_Jul_27_1649,60.0042148148,MAFE4ImagesEEG,001,101124,
AFNE01.JPG,AFNE01.JPG,AFNE01.JPG,AFNE01.JPG,AFNE01.JPG,AFNE01.JPG,5,6,56,0,,,,,,,,,,,,,,,,,,,,,,,AMSA02.jpg,AMSA14.jpg,AMNE11.jpg,AMNE02.jpg,AMSA02.jpg,MS,2,num_8,32,num_2,3.5331168978,,,2017_Jul_27_1649,60.0042148148,MAFE4ImagesEEG,001,101124,
AFNE01.JPG,AFNE01.JPG,AFNE01.JPG,AFNE01.JPG,AFNE01.JPG,AFNE01.JPG,5,7,57,7,,,,,,,,,,,,,,,,,,,,,,,AMNE10.jpg,AMSA20.jpg,AMNE17.jpg,AMSA07.jpg,AMSA20.jpg,MS,2,num_6,32,num_2,0.683569670655,,,2017_Jul_27_1649,60.0042148148,MAFE4ImagesEEG,001,101124,
AFNE01.JPG,AFNE01.JPG,AFNE01.JPG,AFNE01.JPG,AFNE01.JPG,AFNE01.JPG,5,8,58,8,,,,,,,,,,,,,,,,,,,,,,,AMSA16.jpg,AMSA17.jpg,AMNE11.jpg,AMNE04.jpg,AMNE04.jpg,MN,1,num_4,16,num_4,0.866910813958,,,2017_Jul_27_1649,60.0042148148,MAFE4ImagesEEG,001,101124,
AFNE01.JPG,AFNE01.JPG,AFNE01.JPG,AFNE01.JPG,AFNE01.JPG,AFNE01.JPG,5,9,59,1,,,,,,,,,,,,,,,,,,,,,,,AMNE14.jpg,AMNE05.jpg,AMSA12.jpg,AMSA14.jpg,AMSA14.jpg,MS,2,num_4,32,num_2,1.01679074496,,,2017_Jul_27_1649,60.0042148148,MAFE4ImagesEEG,001,101124,
,,,,,,,,,,,,,,,,,,,,,,,,,,,,,,,,,,,,,,,,,,,space,28.548493179,2017_Jul_27_1649,60.0042148148,MAFE4ImagesEEG,001,101124,
AFNE01.JPG,AFNE01.JPG,AFNE01.JPG,AFNE01.JPG,AFNE01.JPG,AFNE01.JPG,,,,,0,0,0,3,,,,,,,,,,,,,,,,,,,AFNE08.jpg,AFSA02.jpg,AFNE16.jpg,AFSA01.jpg,AFSA02.jpg,FS,4,num_6,16,num_6,1.21665160789,,,2017_Jul_27_1649,60.0042148148,MAFE4ImagesEEG,001,101124,
AFNE01.JPG,AFNE01.JPG,AFNE01.JPG,AFNE01.JPG,AFNE01.JPG,AFNE01.JPG,,,,,0,1,1,9,,,,,,,,,,,,,,,,,,,AFSA12.jpg,AFNE10.jpg,AFSA10.jpg,AFNE19.jpg,AFNE19.jpg,FN,3,num_4,16,num_4,1.31670841109,,,2017_Jul_27_1649,60.0042148148,MAFE4ImagesEEG,001,101124,
AFNE01.JPG,AFNE01.JPG,AFNE01.JPG,AFNE01.JPG,AFNE01.JPG,AFNE01.JPG,,,,,0,2,2,2,,,,,,,,,,,,,,,,,,,AFSA08.jpg,AFSA12.jpg,AFNE14.jpg,AFNE04.jpg,AFNE14.jpg,FN,3,num_2,16,num_2,1.93340537162,,,2017_Jul_27_1649,60.0042148148,MAFE4ImagesEEG,001,101124,
AFNE01.JPG,AFNE01.JPG,AFNE01.JPG,AFNE01.JPG,AFNE01.JPG,AFNE01.JPG,,,,,0,3,3,8,,,,,,,,,,,,,,,,,,,AFNE17.jpg,AFNE05.jpg,AFSA07.jpg,AFSA20.jpg,AFNE05.jpg,FN,3,num_6,16,num_6,1.20013509574,,,2017_Jul_27_1649,60.0042148148,MAFE4ImagesEEG,001,101124,
AFNE01.JPG,AFNE01.JPG,AFNE01.JPG,AFNE01.JPG,AFNE01.JPG,AFNE01.JPG,,,,,0,4,4,1,,,,,,,,,,,,,,,,,,,AFNE20.jpg,AFSA12.jpg,AFNE02.jpg,AFSA05.jpg,AFNE20.jpg,FN,3,num_8,32,num_6,1.30004820728,,,2017_Jul_27_1649,60.0042148148,MAFE4ImagesEEG,001,101124,
AFNE01.JPG,AFNE01.JPG,AFNE01.JPG,AFNE01.JPG,AFNE01.JPG,AFNE01.JPG,,,,,0,5,5,5,,,,,,,,,,,,,,,,,,,AFSA20.jpg,AFNE09.jpg,AFSA02.jpg,AFNE06.jpg,AFSA02.jpg,FS,4,num_2,16,num_2,1.15035494708,,,2017_Jul_27_1649,60.0042148148,MAFE4ImagesEEG,001,101124,
AFNE01.JPG,AFNE01.JPG,AFNE01.JPG,AFNE01.JPG,AFNE01.JPG,AFNE01.JPG,,,,,0,6,6,7,,,,,,,,,,,,,,,,,,,AFNE19.jpg,AFNE04.jpg,AFSA07.jpg,AFSA01.jpg,AFSA01.jpg,FS,4,num_4,16,num_4,1.81666078104,,,2017_Jul_27_1649,60.0042148148,MAFE4ImagesEEG,001,101124,
AFNE01.JPG,AFNE01.JPG,AFNE01.JPG,AFNE01.JPG,AFNE01.JPG,AFNE01.JPG,,,,,0,7,7,0,,,,,,,,,,,,,,,,,,,AFSA03.jpg,AFNE09.jpg,AFNE05.jpg,AFSA17.jpg,AFNE09.jpg,FN,3,num_6,32,num_4,1.15010444901,,,2017_Jul_27_1649,60.0042148148,MAFE4ImagesEEG,001,101124,
AFNE01.JPG,AFNE01.JPG,AFNE01.JPG,AFNE01.JPG,AFNE01.JPG,AFNE01.JPG,,,,,0,8,8,4,,,,,,,,,,,,,,,,,,,AFSA03.jpg,AFNE03.jpg,AFNE20.jpg,AFSA08.jpg,AFSA03.jpg,FS,4,num_8,32,num_6,1.38341209106,,,2017_Jul_27_1649,60.0042148148,MAFE4ImagesEEG,001,101124,
AFNE01.JPG,AFNE01.JPG,AFNE01.JPG,AFNE01.JPG,AFNE01.JPG,AFNE01.JPG,,,,,0,9,9,6,,,,,,,,,,,,,,,,,,,AFSA11.jpg,AFSA10.jpg,AFNE16.jpg,AFNE19.jpg,AFNE16.jpg,FN,3,num_2,32,num_4,1.36670922884,,,2017_Jul_27_1649,60.0042148148,MAFE4ImagesEEG,001,101124,
AFNE01.JPG,AFNE01.JPG,AFNE01.JPG,AFNE01.JPG,AFNE01.JPG,AFNE01.JPG,,,,,1,0,10,1,,,,,,,,,,,,,,,,,,,AFSA19.jpg,AFSA03.jpg,AFNE11.jpg,AFNE06.jpg,AFSA19.jpg,FS,4,num_8,16,num_8,0.966785116005,,,2017_Jul_27_1649,60.0042148148,MAFE4ImagesEEG,001,101124,
AFNE01.JPG,AFNE01.JPG,AFNE01.JPG,AFNE01.JPG,AFNE01.JPG,AFNE01.JPG,,,,,1,1,11,7,,,,,,,,,,,,,,,,,,,AFNE11.jpg,AFSA01.jpg,AFNE03.jpg,AFSA08.jpg,AFNE11.jpg,FN,3,num_8,32,num_2,1.13342500082,,,2017_Jul_27_1649,60.0042148148,MAFE4ImagesEEG,001,101124,
AFNE01.JPG,AFNE01.JPG,AFNE01.JPG,AFNE01.JPG,AFNE01.JPG,AFNE01.JPG,,,,,1,2,12,2,,,,,,,,,,,,,,,,,,,AFNE10.jpg,AFSA04.jpg,AFSA16.jpg,AFNE14.jpg,AFSA16.jpg,FS,4,num_2,32,num_4,1.63347455522,,,2017_Jul_27_1649,60.0042148148,MAFE4ImagesEEG,001,101124,
AFNE01.JPG,AFNE01.JPG,AFNE01.JPG,AFNE01.JPG,AFNE01.JPG,AFNE01.JPG,,,,,1,3,13,5,,,,,,,,,,,,,,,,,,,AFNE11.jpg,AFSA15.jpg,AFNE01.jpg,AFSA17.jpg,AFSA15.jpg,FS,4,num_6,32,num_4,1.90006828564,,,2017_Jul_27_1649,60.0042148148,MAFE4ImagesEEG,001,101124,
AFNE01.JPG,AFNE01.JPG,AFNE01.JPG,AFNE01.JPG,AFNE01.JPG,AFNE01.JPG,,,,,1,4,14,8,,,,,,,,,,,,,,,,,,,AFSA04.jpg,AFNE19.jpg,AFNE16.jpg,AFSA05.jpg,AFSA04.jpg,FS,4,num_8,32,num_4,1.3333240319,,,2017_Jul_27_1649,60.0042148148,MAFE4ImagesEEG,001,101124,
AFNE01.JPG,AFNE01.JPG,AFNE01.JPG,AFNE01.JPG,AFNE01.JPG,AFNE01.JPG,,,,,1,5,15,9,,,,,,,,,,,,,,,,,,,AFNE18.jpg,AFSA01.jpg,AFNE04.jpg,AFSA20.jpg,AFSA01.jpg,FS,4,num_6,32,num_8,1.15015159792,,,2017_Jul_27_1649,60.0042148148,MAFE4ImagesEEG,001,101124,
AFNE01.JPG,AFNE01.JPG,AFNE01.JPG,AFNE01.JPG,AFNE01.JPG,AFNE01.JPG,,,,,1,6,16,4,,,,,,,,,,,,,,,,,,,AFNE16.jpg,AFNE18.jpg,AFSA17.jpg,AFSA06.jpg,AFNE16.jpg,FN,3,num_8,32,num_4,1.08349442505,,,2017_Jul_27_1649,60.0042148148,MAFE4ImagesEEG,001,101124,
AFNE01.JPG,AFNE01.JPG,AFNE01.JPG,AFNE01.JPG,AFNE01.JPG,AFNE01.JPG,,,,,1,7,17,0,,,,,,,,,,,,,,,,,,,AFSA13.jpg,AFSA18.jpg,AFNE14.jpg,AFNE03.jpg,AFNE03.jpg,FN,3,num_4,32,num_2,2.7332997839,,,2017_Jul_27_1649,60.0042148148,MAFE4ImagesEEG,001,101124,
AFNE01.JPG,AFNE01.JPG,AFNE01.JPG,AFNE01.JPG,AFNE01.JPG,AFNE01.JPG,,,,,1,8,18,3,,,,,,,,,,,,,,,,,,,AFNE18.jpg,AFSA10.jpg,AFNE17.jpg,AFSA07.jpg,AFSA07.jpg,FS,4,num_4,16,num_4,1.11684401985,,,2017_Jul_27_1649,60.0042148148,MAFE4ImagesEEG,001,101124,
AFNE01.JPG,AFNE01.JPG,AFNE01.JPG,AFNE01.JPG,AFNE01.JPG,AFNE01.JPG,,,,,1,9,19,6,,,,,,,,,,,,,,,,,,,AFSA17.jpg,AFNE18.jpg,AFSA03.jpg,AFNE05.jpg,AFNE05.jpg,FN,3,num_4,32,num_2,1.11675966531,,,2017_Jul_27_1649,60.0042148148,MAFE4ImagesEEG,001,101124,
AFNE01.JPG,AFNE01.JPG,AFNE01.JPG,AFNE01.JPG,AFNE01.JPG,AFNE01.JPG,,,,,2,0,20,3,,,,,,,,,,,,,,,,,,,AFNE06.jpg,AFSA16.jpg,AFNE17.jpg,AFSA18.jpg,AFNE06.jpg,FN,3,num_8,32,num_6,1.00008724129,,,2017_Jul_27_1649,60.0042148148,MAFE4ImagesEEG,001,101124,
AFNE01.JPG,AFNE01.JPG,AFNE01.JPG,AFNE01.JPG,AFNE01.JPG,AFNE01.JPG,,,,,2,1,21,6,,,,,,,,,,,,,,,,,,,AFNE03.jpg,AFNE18.jpg,AFSA18.jpg,AFSA01.jpg,AFNE03.jpg,FN,3,num_8,16,num_8,0.683449713863,,,2017_Jul_27_1649,60.0042148148,MAFE4ImagesEEG,001,101124,
AFNE01.JPG,AFNE01.JPG,AFNE01.JPG,AFNE01.JPG,AFNE01.JPG,AFNE01.JPG,,,,,2,2,22,8,,,,,,,,,,,,,,,,,,,AFNE08.jpg,AFSA02.jpg,AFSA11.jpg,AFNE05.jpg,AFSA11.jpg,FS,4,num_2,32,num_4,0.916740677436,,,2017_Jul_27_1649,60.0042148148,MAFE4ImagesEEG,001,101124,
AFNE01.JPG,AFNE01.JPG,AFNE01.JPG,AFNE01.JPG,AFNE01.JPG,AFNE01.JPG,,,,,2,3,23,7,,,,,,,,,,,,,,,,,,,AFNE05.jpg,AFNE03.jpg,AFSA16.jpg,AFSA10.jpg,AFSA16.jpg,FS,4,num_2,16,num_2,1.06655036623,,,2017_Jul_27_1649,60.0042148148,MAFE4ImagesEEG,001,101124,
AFNE01.JPG,AFNE01.JPG,AFNE01.JPG,AFNE01.JPG,AFNE01.JPG,AFNE01.JPG,,,,,2,4,24,0,,,,,,,,,,,,,,,,,,,AFSA08.jpg,AFSA05.jpg,AFNE11.jpg,AFNE17.jpg,AFSA08.jpg,FS,4,num_8,16,num_8,2.53329779534,,,2017_Jul_27_1649,60.0042148148,MAFE4ImagesEEG,001,101124,
AFNE01.JPG,AFNE01.JPG,AFNE01.JPG,AFNE01.JPG,AFNE01.JPG,AFNE01.JPG,,,,,2,5,25,5,,,,,,,,,,,,,,,,,,,AFNE03.jpg,AFNE06.jpg,AFSA03.jpg,AFSA08.jpg,AFSA03.jpg,FS,4,num_2,32,num_8,4.13351641176,,,2017_Jul_27_1649,60.0042148148,MAFE4ImagesEEG,001,101124,
AFNE01.JPG,AFNE01.JPG,AFNE01.JPG,AFNE01.JPG,AFNE01.JPG,AFNE01.JPG,,,,,2,6,26,9,,,,,,,,,,,,,,,,,,,AFSA17.jpg,AFSA05.jpg,AFNE19.jpg,AFNE07.jpg,AFSA05.jpg,FS,4,num_6,32,num_2,1.5167511336,,,2017_Jul_27_1649,60.0042148148,MAFE4ImagesEEG,001,101124,
AFNE01.JPG,AFNE01.JPG,AFNE01.JPG,AFNE01.JPG,AFNE01.JPG,AFNE01.JPG,,,,,2,7,27,1,,,,,,,,,,,,,,,,,,,AFSA07.jpg,AFNE12.jpg,AFNE20.jpg,AFSA04.jpg,AFSA04.jpg,FS,4,num_4,16,num_4,1.13349171483,,,2017_Jul_27_1649,60.0042148148,MAFE4ImagesEEG,001,101124,
AFNE01.JPG,AFNE01.JPG,AFNE01.JPG,AFNE01.JPG,AFNE01.JPG,AFNE01.JPG,,,,,2,8,28,4,,,,,,,,,,,,,,,,,,,AFNE07.jpg,AFSA16.jpg,AFSA07.jpg,AFNE03.jpg,AFNE07.jpg,FN,3,num_8,16,num_8,2.76672892238,,,2017_Jul_27_1649,60.0042148148,MAFE4ImagesEEG,001,101124,
AFNE01.JPG,AFNE01.JPG,AFNE01.JPG,AFNE01.JPG,AFNE01.JPG,AFNE01.JPG,,,,,2,9,29,2,,,,,,,,,,,,,,,,,,,AFNE07.jpg,AFNE09.jpg,AFSA06.jpg,AFSA07.jpg,AFSA07.jpg,FS,4,num_4,32,num_2,1.21672505746,,,2017_Jul_27_1649,60.0042148148,MAFE4ImagesEEG,001,101124,
AFNE01.JPG,AFNE01.JPG,AFNE01.JPG,AFNE01.JPG,AFNE01.JPG,AFNE01.JPG,,,,,3,0,30,6,,,,,,,,,,,,,,,,,,,AFNE16.jpg,AFNE03.jpg,AFSA13.jpg,AFSA03.jpg,AFNE16.jpg,FN,3,num_8,16,num_8,1.41672191408,,,2017_Jul_27_1649,60.0042148148,MAFE4ImagesEEG,001,101124,
AFNE01.JPG,AFNE01.JPG,AFNE01.JPG,AFNE01.JPG,AFNE01.JPG,AFNE01.JPG,,,,,3,1,31,7,,,,,,,,,,,,,,,,,,,AFNE12.jpg,AFSA04.jpg,AFNE13.jpg,AFSA02.jpg,AFNE12.jpg,FN,3,num_8,32,num_6,1.33356458694,,,2017_Jul_27_1649,60.0042148148,MAFE4ImagesEEG,001,101124,
AFNE01.JPG,AFNE01.JPG,AFNE01.JPG,AFNE01.JPG,AFNE01.JPG,AFNE01.JPG,,,,,3,2,32,1,,,,,,,,,,,,,,,,,,,AFNE14.jpg,AFSA11.jpg,AFNE15.jpg,AFSA01.jpg,AFSA01.jpg,FS,4,num_4,32,num_8,1.44991049753,,,2017_Jul_27_1649,60.0042148148,MAFE4ImagesEEG,001,101124,
AFNE01.JPG,AFNE01.JPG,AFNE01.JPG,AFNE01.JPG,AFNE01.JPG,AFNE01.JPG,,,,,3,3,33,8,,,,,,,,,,,,,,,,,,,AFSA18.jpg,AFNE02.jpg,AFSA14.jpg,AFNE15.jpg,AFNE15.jpg,FN,3,num_4,16,num_4,1.36669768218,,,2017_Jul_27_1649,60.0042148148,MAFE4ImagesEEG,001,101124,
AFNE01.JPG,AFNE01.JPG,AFNE01.JPG,AFNE01.JPG,AFNE01.JPG,AFNE01.JPG,,,,,3,4,34,4,,,,,,,,,,,,,,,,,,,AFSA17.jpg,AFSA08.jpg,AFNE11.jpg,AFNE02.jpg,AFSA08.jpg,FS,4,num_6,32,num_8,1.43342670077,,,2017_Jul_27_1649,60.0042148148,MAFE4ImagesEEG,001,101124,
AFNE01.JPG,AFNE01.JPG,AFNE01.JPG,AFNE01.JPG,AFNE01.JPG,AFNE01.JPG,,,,,3,5,35,3,,,,,,,,,,,,,,,,,,,AFNE17.jpg,AFSA05.jpg,AFSA17.jpg,AFNE03.jpg,AFNE03.jpg,FN,3,num_4,32,num_8,1.18346366612,,,2017_Jul_27_1649,60.0042148148,MAFE4ImagesEEG,001,101124,
AFNE01.JPG,AFNE01.JPG,AFNE01.JPG,AFNE01.JPG,AFNE01.JPG,AFNE01.JPG,,,,,3,6,36,2,,,,,,,,,,,,,,,,,,,AFNE08.jpg,AFNE16.jpg,AFSA08.jpg,AFSA16.jpg,AFSA08.jpg,FS,4,num_2,16,num_2,3.71659980831,,,2017_Jul_27_1649,60.0042148148,MAFE4ImagesEEG,001,101124,
AFNE01.JPG,AFNE01.JPG,AFNE01.JPG,AFNE01.JPG,AFNE01.JPG,AFNE01.JPG,,,,,3,7,37,9,,,,,,,,,,,,,,,,,,,AFNE11.jpg,AFSA16.jpg,AFSA20.jpg,AFNE18.jpg,AFSA20.jpg,FS,4,num_2,32,num_4,2.05008581397,,,2017_Jul_27_1649,60.0042148148,MAFE4ImagesEEG,001,101124,
AFNE01.JPG,AFNE01.JPG,AFNE01.JPG,AFNE01.JPG,AFNE01.JPG,AFNE01.JPG,,,,,3,8,38,5,,,,,,,,,,,,,,,,,,,AFNE05.jpg,AFNE19.jpg,AFSA03.jpg,AFSA08.jpg,AFNE05.jpg,FN,3,num_8,32,num_2,2.84997124563,,,2017_Jul_27_1649,60.0042148148,MAFE4ImagesEEG,001,101124,
AFNE01.JPG,AFNE01.JPG,AFNE01.JPG,AFNE01.JPG,AFNE01.JPG,AFNE01.JPG,,,,,3,9,39,0,,,,,,,,,,,,,,,,,,,AFNE14.jpg,AFNE19.jpg,AFSA15.jpg,AFSA12.jpg,AFSA12.jpg,FS,4,num_4,32,num_2,2.68337530224,,,2017_Jul_27_1649,60.0042148148,MAFE4ImagesEEG,001,101124,
AFNE01.JPG,AFNE01.JPG,AFNE01.JPG,AFNE01.JPG,AFNE01.JPG,AFNE01.JPG,,,,,4,0,40,3,,,,,,,,,,,,,,,,,,,AFNE14.jpg,AFSA12.jpg,AFNE06.jpg,AFSA13.jpg,AFNE14.jpg,FN,3,num_8,32,num_4,1.26672812051,,,2017_Jul_27_1649,60.0042148148,MAFE4ImagesEEG,001,101124,
AFNE01.JPG,AFNE01.JPG,AFNE01.JPG,AFNE01.JPG,AFNE01.JPG,AFNE01.JPG,,,,,4,1,41,1,,,,,,,,,,,,,,,,,,,AFNE08.jpg,AFSA06.jpg,AFSA10.jpg,AFNE06.jpg,AFSA06.jpg,FS,4,num_6,32,num_2,1.66532052041,,,2017_Jul_27_1649,60.0042148148,MAFE4ImagesEEG,001,101124,
AFNE01.JPG,AFNE01.JPG,AFNE01.JPG,AFNE01.JPG,AFNE01.JPG,AFNE01.JPG,,,,,4,2,42,6,,,,,,,,,,,,,,,,,,,AFSA10.jpg,AFSA20.jpg,AFNE04.jpg,AFNE11.jpg,AFNE04.jpg,FN,3,num_2,32,num_6,1.36676503764,,,2017_Jul_27_1649,60.0042148148,MAFE4ImagesEEG,001,101124,
AFNE01.JPG,AFNE01.JPG,AFNE01.JPG,AFNE01.JPG,AFNE01.JPG,AFNE01.JPG,,,,,4,3,43,4,,,,,,,,,,,,,,,,,,,AFNE11.jpg,AFNE06.jpg,AFSA07.jpg,AFSA13.jpg,AFNE11.jpg,FN,3,num_8,32,num_4,1.20009051287,,,2017_Jul_27_1649,60.0042148148,MAFE4ImagesEEG,001,101124,
AFNE01.JPG,AFNE01.JPG,AFNE01.JPG,AFNE01.JPG,AFNE01.JPG,AFNE01.JPG,,,,,4,4,44,9,,,,,,,,,,,,,,,,,,,AFNE14.jpg,AFNE20.jpg,AFSA01.jpg,AFSA03.jpg,AFSA01.jpg,FS,4,num_2,16,num_2,1.29082724964,,,2017_Jul_27_1649,60.0042148148,MAFE4ImagesEEG,001,101124,
AFNE01.JPG,AFNE01.JPG,AFNE01.JPG,AFNE01.JPG,AFNE01.JPG,AFNE01.JPG,,,,,4,5,45,8,,,,,,,,,,,,,,,,,,,AFSA10.jpg,AFNE13.jpg,AFSA04.jpg,AFNE08.jpg,AFNE08.jpg,FN,3,num_4,16,num_4,1.31676037097,,,2017_Jul_27_1649,60.0042148148,MAFE4ImagesEEG,001,101124,
AFNE01.JPG,AFNE01.JPG,AFNE01.JPG,AFNE01.JPG,AFNE01.JPG,AFNE01.JPG,,,,,4,6,46,5,,,,,,,,,,,,,,,,,,,AFSA07.jpg,AFNE10.jpg,AFNE18.jpg,AFSA15.jpg,AFSA15.jpg,FS,4,num_4,16,num_4,3.76653198781,,,2017_Jul_27_1649,60.0042148148,MAFE4ImagesEEG,001,101124,
AFNE01.JPG,AFNE01.JPG,AFNE01.JPG,AFNE01.JPG,AFNE01.JPG,AFNE01.JPG,,,,,4,7,47,7,,,,,,,,,,,,,,,,,,,AFSA16.jpg,AFSA18.jpg,AFNE06.jpg,AFNE09.jpg,AFSA16.jpg,FS,4,num_8,16,num_8,1.1501115053,,,2017_Jul_27_1649,60.0042148148,MAFE4ImagesEEG,001,101124,
AFNE01.JPG,AFNE01.JPG,AFNE01.JPG,AFNE01.JPG,AFNE01.JPG,AFNE01.JPG,,,,,4,8,48,2,,,,,,,,,,,,,,,,,,,AFNE07.jpg,AFSA01.jpg,AFNE03.jpg,AFSA08.jpg,AFSA08.jpg,FS,4,num_4,16,num_4,1.38331202022,,,2017_Jul_27_1649,60.0042148148,MAFE4ImagesEEG,001,101124,
AFNE01.JPG,AFNE01.JPG,AFNE01.JPG,AFNE01.JPG,AFNE01.JPG,AFNE01.JPG,,,,,4,9,49,0,,,,,,,,,,,,,,,,,,,AFNE17.jpg,AFNE09.jpg,AFSA01.jpg,AFSA10.jpg,AFNE09.jpg,FN,3,num_6,32,num_2,1.55005486251,,,2017_Jul_27_1649,60.0042148148,MAFE4ImagesEEG,001,101124,
AFNE01.JPG,AFNE01.JPG,AFNE01.JPG,AFNE01.JPG,AFNE01.JPG,AFNE01.JPG,,,,,5,0,50,8,,,,,,,,,,,,,,,,,,,AFNE05.jpg,AFNE03.jpg,AFSA12.jpg,AFSA19.jpg,AFNE05.jpg,FN,3,num_8,16,num_8,1.10012704507,,,2017_Jul_27_1649,60.0042148148,MAFE4ImagesEEG,001,101124,
AFNE01.JPG,AFNE01.JPG,AFNE01.JPG,AFNE01.JPG,AFNE01.JPG,AFNE01.JPG,,,,,5,1,51,6,,,,,,,,,,,,,,,,,,,AFSA16.jpg,AFNE15.jpg,AFNE02.jpg,AFSA06.jpg,AFSA06.jpg,FS,4,num_4,16,num_4,1.01643921388,,,2017_Jul_27_1649,60.0042148148,MAFE4ImagesEEG,001,101124,
AFNE01.JPG,AFNE01.JPG,AFNE01.JPG,AFNE01.JPG,AFNE01.JPG,AFNE01.JPG,,,,,5,2,52,3,,,,,,,,,,,,,,,,,,,AFSA06.jpg,AFNE12.jpg,AFNE10.jpg,AFSA11.jpg,AFNE10.jpg,FN,3,num_2,32,num_6,1.28344028408,,,2017_Jul_27_1649,60.0042148148,MAFE4ImagesEEG,001,101124,
AFNE01.JPG,AFNE01.JPG,AFNE01.JPG,AFNE01.JPG,AFNE01.JPG,AFNE01.JPG,,,,,5,3,53,0,,,,,,,,,,,,,,,,,,,AFSA08.jpg,AFNE20.jpg,AFNE05.jpg,AFSA05.jpg,AFNE05.jpg,FN,3,num_2,16,num_2,1.11679206009,,,2017_Jul_27_1649,60.0042148148,MAFE4ImagesEEG,001,101124,
AFNE01.JPG,AFNE01.JPG,AFNE01.JPG,AFNE01.JPG,AFNE01.JPG,AFNE01.JPG,,,,,5,4,54,2,,,,,,,,,,,,,,,,,,,AFNE17.jpg,AFNE18.jpg,AFSA13.jpg,AFSA11.jpg,AFNE18.jpg,FN,3,num_6,16,num_6,1.20017903717,,,2017_Jul_27_1649,60.0042148148,MAFE4ImagesEEG,001,101124,
AFNE01.JPG,AFNE01.JPG,AFNE01.JPG,AFNE01.JPG,AFNE01.JPG,AFNE01.JPG,,,,,5,5,55,4,,,,,,,,,,,,,,,,,,,AFSA19.jpg,AFNE14.jpg,AFSA09.jpg,AFNE12.jpg,AFNE14.jpg,FN,3,num_6,32,num_2,3.9165123105,,,2017_Jul_27_1649,60.0042148148,MAFE4ImagesEEG,001,101124,
AFNE01.JPG,AFNE01.JPG,AFNE01.JPG,AFNE01.JPG,AFNE01.JPG,AFNE01.JPG,,,,,5,6,56,5,,,,,,,,,,,,,,,,,,,AFNE09.jpg,AFSA13.jpg,AFSA20.jpg,AFNE03.jpg,AFNE03.jpg,FN,3,num_4,16,num_4,1.05009832291,,,2017_Jul_27_1649,60.0042148148,MAFE4ImagesEEG,001,101124,
AFNE01.JPG,AFNE01.JPG,AFNE01.JPG,AFNE01.JPG,AFNE01.JPG,AFNE01.JPG,,,,,5,7,57,7,,,,,,,,,,,,,,,,,,,AFNE13.jpg,AFNE02.jpg,AFSA05.jpg,AFSA18.jpg,AFNE02.jpg,FN,3,num_6,16,num_6,1.76666958537,,,2017_Jul_27_1649,60.0042148148,MAFE4ImagesEEG,001,101124,
AFNE01.JPG,AFNE01.JPG,AFNE01.JPG,AFNE01.JPG,AFNE01.JPG,AFNE01.JPG,,,,,5,8,58,9,,,,,,,,,,,,,,,,,,,AFNE19.jpg,AFNE02.jpg,AFSA04.jpg,AFSA11.jpg,AFSA04.jpg,FS,4,num_2,32,num_4,1.33354309737,,,2017_Jul_27_1649,60.0042148148,MAFE4ImagesEEG,001,101124,
AFNE01.JPG,AFNE01.JPG,AFNE01.JPG,AFNE01.JPG,AFNE01.JPG,AFNE01.JPG,,,,,5,9,59,1,,,,,,,,,,,,,,,,,,,AFNE17.jpg,AFNE12.jpg,AFSA07.jpg,AFSA06.jpg,AFSA07.jpg,FS,4,num_2,32,num_6,1.33339908498,,,2017_Jul_27_1649,60.0042148148,MAFE4ImagesEEG,001,101124,
,,,,,,,,,,,,,,,,,,,,,,,,,,,,,,,,,,,,,,,,,,,space,19.5650462555,2017_Jul_27_1649,60.0042148148,MAFE4ImagesEEG,001,101124,
AFNE01.JPG,AFNE01.JPG,AFNE01.JPG,AFNE01.JPG,AFNE01.JPG,AFNE01.JPG,,,,,,,,,0,0,0,5,,,,,,,,,,,,,,,AMNE13.jpg,AMNE01.jpg,AMSA18.jpg,AMSA08.jpg,AMNE13.jpg,MN,1,num_8,16,num_8,1.73337740311,,,2017_Jul_27_1649,60.0042148148,MAFE4ImagesEEG,001,101124,
AFNE01.JPG,AFNE01.JPG,AFNE01.JPG,AFNE01.JPG,AFNE01.JPG,AFNE01.JPG,,,,,,,,,0,1,1,3,,,,,,,,,,,,,,,AMNE02.jpg,AMSA13.jpg,AMNE05.jpg,AMSA10.jpg,AMSA13.jpg,MS,2,num_6,16,num_6,2.54997852643,,,2017_Jul_27_1649,60.0042148148,MAFE4ImagesEEG,001,101124,
AFNE01.JPG,AFNE01.JPG,AFNE01.JPG,AFNE01.JPG,AFNE01.JPG,AFNE01.JPG,,,,,,,,,0,2,2,4,,,,,,,,,,,,,,,AMNE20.jpg,AMSA13.jpg,AMNE19.jpg,AMSA04.jpg,AMSA04.jpg,MS,2,num_4,32,num_6,1.13344328303,,,2017_Jul_27_1649,60.0042148148,MAFE4ImagesEEG,001,101124,
AFNE01.JPG,AFNE01.JPG,AFNE01.JPG,AFNE01.JPG,AFNE01.JPG,AFNE01.JPG,,,,,,,,,0,3,3,7,,,,,,,,,,,,,,,AMSA17.jpg,AMNE07.jpg,AMSA09.jpg,AMNE09.jpg,AMSA09.jpg,MS,2,num_2,16,num_2,1.71655554627,,,2017_Jul_27_1649,60.0042148148,MAFE4ImagesEEG,001,101124,
AFNE01.JPG,AFNE01.JPG,AFNE01.JPG,AFNE01.JPG,AFNE01.JPG,AFNE01.JPG,,,,,,,,,0,4,4,2,,,,,,,,,,,,,,,AMNE11.jpg,AMNE01.jpg,AMSA02.jpg,AMSA03.jpg,AMNE11.jpg,MN,1,num_8,32,num_6,1.25006855815,,,2017_Jul_27_1649,60.0042148148,MAFE4ImagesEEG,001,101124,
AFNE01.JPG,AFNE01.JPG,AFNE01.JPG,AFNE01.JPG,AFNE01.JPG,AFNE01.JPG,,,,,,,,,0,5,5,8,,,,,,,,,,,,,,,AMNE15.jpg,AMNE09.jpg,AMSA19.jpg,AMSA15.jpg,AMNE09.jpg,MN,1,num_6,32,num_8,1.40006363485,,,2017_Jul_27_1649,60.0042148148,MAFE4ImagesEEG,001,101124,
AFNE01.JPG,AFNE01.JPG,AFNE01.JPG,AFNE01.JPG,AFNE01.JPG,AFNE01.JPG,,,,,,,,,0,6,6,9,,,,,,,,,,,,,,,AMNE15.jpg,AMSA17.jpg,AMNE09.jpg,AMSA06.jpg,AMSA06.jpg,MS,2,num_4,16,num_4,1.13343013276,,,2017_Jul_27_1649,60.0042148148,MAFE4ImagesEEG,001,101124,
AFNE01.JPG,AFNE01.JPG,AFNE01.JPG,AFNE01.JPG,AFNE01.JPG,AFNE01.JPG,,,,,,,,,0,7,7,0,,,,,,,,,,,,,,,AMNE04.jpg,AMNE03.jpg,AMSA20.jpg,AMSA15.jpg,AMNE04.jpg,MN,1,num_8,32,num_6,1.46678110678,,,2017_Jul_27_1649,60.0042148148,MAFE4ImagesEEG,001,101124,
AFNE01.JPG,AFNE01.JPG,AFNE01.JPG,AFNE01.JPG,AFNE01.JPG,AFNE01.JPG,,,,,,,,,0,8,8,6,,,,,,,,,,,,,,,AMSA20.jpg,AMNE14.jpg,AMSA13.jpg,AMNE17.jpg,AMNE17.jpg,MN,1,num_4,16,num_4,1.25012629142,,,2017_Jul_27_1649,60.0042148148,MAFE4ImagesEEG,001,101124,
AFNE01.JPG,AFNE01.JPG,AFNE01.JPG,AFNE01.JPG,AFNE01.JPG,AFNE01.JPG,,,,,,,,,0,9,9,1,,,,,,,,,,,,,,,AMSA07.jpg,AMNE06.jpg,AMNE02.jpg,AMSA01.jpg,AMNE02.jpg,MN,1,num_2,32,num_4,0.983478035196,,,2017_Jul_27_1649,60.0042148148,MAFE4ImagesEEG,001,101124,
AFNE01.JPG,AFNE01.JPG,AFNE01.JPG,AFNE01.JPG,AFNE01.JPG,AFNE01.JPG,,,,,,,,,1,0,10,3,,,,,,,,,,,,,,,AMSA04.jpg,AMNE01.jpg,AMNE13.jpg,AMSA15.jpg,AMSA04.jpg,MS,2,num_8,16,num_8,1.21673018928,,,2017_Jul_27_1649,60.0042148148,MAFE4ImagesEEG,001,101124,
AFNE01.JPG,AFNE01.JPG,AFNE01.JPG,AFNE01.JPG,AFNE01.JPG,AFNE01.JPG,,,,,,,,,1,1,11,8,,,,,,,,,,,,,,,AMSA12.jpg,AMNE18.jpg,AMSA13.jpg,AMNE09.jpg,AMSA12.jpg,MS,2,num_8,16,num_8,3.5998872919,,,2017_Jul_27_1649,60.0042148148,MAFE4ImagesEEG,001,101124,
AFNE01.JPG,AFNE01.JPG,AFNE01.JPG,AFNE01.JPG,AFNE01.JPG,AFNE01.JPG,,,,,,,,,1,2,12,9,,,,,,,,,,,,,,,AMSA14.jpg,AMSA01.jpg,AMNE13.jpg,AMNE09.jpg,AMNE13.jpg,MN,1,num_2,16,num_2,1.48366614932,,,2017_Jul_27_1649,60.0042148148,MAFE4ImagesEEG,001,101124,
AFNE01.JPG,AFNE01.JPG,AFNE01.JPG,AFNE01.JPG,AFNE01.JPG,AFNE01.JPG,,,,,,,,,1,3,13,1,,,,,,,,,,,,,,,AMSA10.jpg,AMNE04.jpg,AMNE13.jpg,AMSA04.jpg,AMNE13.jpg,MN,1,num_2,16,num_2,1.38341241179,,,2017_Jul_27_1649,60.0042148148,MAFE4ImagesEEG,001,101124,
AFNE01.JPG,AFNE01.JPG,AFNE01.JPG,AFNE01.JPG,AFNE01.JPG,AFNE01.JPG,,,,,,,,,1,4,14,0,,,,,,,,,,,,,,,AMSA08.jpg,AMSA05.jpg,AMNE01.jpg,AMNE15.jpg,AMSA05.jpg,MS,2,num_6,16,num_6,1.2500958211,,,2017_Jul_27_1649,60.0042148148,MAFE4ImagesEEG,001,101124,
AFNE01.JPG,AFNE01.JPG,AFNE01.JPG,AFNE01.JPG,AFNE01.JPG,AFNE01.JPG,,,,,,,,,1,5,15,6,,,,,,,,,,,,,,,AMSA07.jpg,AMSA05.jpg,AMNE18.jpg,AMNE01.jpg,AMNE18.jpg,MN,1,num_2,32,num_4,1.16676657728,,,2017_Jul_27_1649,60.0042148148,MAFE4ImagesEEG,001,101124,
AFNE01.JPG,AFNE01.JPG,AFNE01.JPG,AFNE01.JPG,AFNE01.JPG,AFNE01.JPG,,,,,,,,,1,6,16,4,,,,,,,,,,,,,,,AMNE17.jpg,AMSA18.jpg,AMNE19.jpg,AMSA04.jpg,AMSA04.jpg,MS,2,num_4,16,num_4,1.11676062748,,,2017_Jul_27_1649,60.0042148148,MAFE4ImagesEEG,001,101124,
AFNE01.JPG,AFNE01.JPG,AFNE01.JPG,AFNE01.JPG,AFNE01.JPG,AFNE01.JPG,,,,,,,,,1,7,17,7,,,,,,,,,,,,,,,AMSA20.jpg,AMNE09.jpg,AMNE16.jpg,AMSA05.jpg,AMSA05.jpg,MS,2,num_4,16,num_4,0.983456545626,,,2017_Jul_27_1649,60.0042148148,MAFE4ImagesEEG,001,101124,
AFNE01.JPG,AFNE01.JPG,AFNE01.JPG,AFNE01.JPG,AFNE01.JPG,AFNE01.JPG,,,,,,,,,1,8,18,5,,,,,,,,,,,,,,,AMNE03.jpg,AMSA20.jpg,AMNE01.jpg,AMSA09.jpg,AMSA09.jpg,MS,2,num_4,16,num_4,0.966807888588,,,2017_Jul_27_1649,60.0042148148,MAFE4ImagesEEG,001,101124,
AFNE01.JPG,AFNE01.JPG,AFNE01.JPG,AFNE01.JPG,AFNE01.JPG,AFNE01.JPG,,,,,,,,,1,9,19,2,,,,,,,,,,,,,,,AMSA18.jpg,AMNE03.jpg,AMSA13.jpg,AMNE18.jpg,AMNE18.jpg,MN,1,num_4,16,num_4,1.25039731676,,,2017_Jul_27_1649,60.0042148148,MAFE4ImagesEEG,001,101124,
AFNE01.JPG,AFNE01.JPG,AFNE01.JPG,AFNE01.JPG,AFNE01.JPG,AFNE01.JPG,,,,,,,,,2,0,20,9,,,,,,,,,,,,,,,AMNE02.jpg,AMSA07.jpg,AMNE10.jpg,AMSA14.jpg,AMSA07.jpg,MS,2,num_6,16,num_6,1.20014215203,,,2017_Jul_27_1649,60.0042148148,MAFE4ImagesEEG,001,101124,
AFNE01.JPG,AFNE01.JPG,AFNE01.JPG,AFNE01.JPG,AFNE01.JPG,AFNE01.JPG,,,,,,,,,2,1,21,6,,,,,,,,,,,,,,,AMNE13.jpg,AMNE16.jpg,AMSA08.jpg,AMSA18.jpg,AMNE13.jpg,MN,1,num_8,16,num_8,1.15010701492,,,2017_Jul_27_1649,60.0042148148,MAFE4ImagesEEG,001,101124,
AFNE01.JPG,AFNE01.JPG,AFNE01.JPG,AFNE01.JPG,AFNE01.JPG,AFNE01.JPG,,,,,,,,,2,2,22,0,,,,,,,,,,,,,,,AMNE01.jpg,AMNE07.jpg,AMSA18.jpg,AMSA10.jpg,AMSA10.jpg,MS,2,num_4,16,num_4,1.05014547158,,,2017_Jul_27_1649,60.0042148148,MAFE4ImagesEEG,001,101124,
AFNE01.JPG,AFNE01.JPG,AFNE01.JPG,AFNE01.JPG,AFNE01.JPG,AFNE01.JPG,,,,,,,,,2,3,23,7,,,,,,,,,,,,,,,AMSA20.jpg,AMSA13.jpg,AMNE07.jpg,AMNE20.jpg,AMNE20.jpg,MN,1,num_4,32,num_2,1.48345093278,,,2017_Jul_27_1649,60.0042148148,MAFE4ImagesEEG,001,101124,
AFNE01.JPG,AFNE01.JPG,AFNE01.JPG,AFNE01.JPG,AFNE01.JPG,AFNE01.JPG,,,,,,,,,2,4,24,1,,,,,,,,,,,,,,,AMSA08.jpg,AMSA04.jpg,AMNE14.jpg,AMNE01.jpg,AMSA08.jpg,MS,2,num_8,16,num_8,1.10016681685,,,2017_Jul_27_1649,60.0042148148,MAFE4ImagesEEG,001,101124,
AFNE01.JPG,AFNE01.JPG,AFNE01.JPG,AFNE01.JPG,AFNE01.JPG,AFNE01.JPG,,,,,,,,,2,5,25,5,,,,,,,,,,,,,,,AMSA13.jpg,AMNE18.jpg,AMSA01.jpg,AMNE03.jpg,AMNE18.jpg,MN,1,num_6,16,num_6,3.54995447095,,,2017_Jul_27_1649,60.0042148148,MAFE4ImagesEEG,001,101124,
AFNE01.JPG,AFNE01.JPG,AFNE01.JPG,AFNE01.JPG,AFNE01.JPG,AFNE01.JPG,,,,,,,,,2,6,26,2,,,,,,,,,,,,,,,AMSA08.jpg,AMNE14.jpg,AMSA11.jpg,AMNE11.jpg,AMNE11.jpg,MN,1,num_4,16,num_4,1.26675859082,,,2017_Jul_27_1649,60.0042148148,MAFE4ImagesEEG,001,101124,
AFNE01.JPG,AFNE01.JPG,AFNE01.JPG,AFNE01.JPG,AFNE01.JPG,AFNE01.JPG,,,,,,,,,2,7,27,3,,,,,,,,,,,,,,,AMSA08.jpg,AMNE15.jpg,AMSA17.jpg,AMNE16.jpg,AMNE15.jpg,MN,1,num_6,16,num_6,2.03338038584,,,2017_Jul_27_1649,60.0042148148,MAFE4ImagesEEG,001,101124,
AFNE01.JPG,AFNE01.JPG,AFNE01.JPG,AFNE01.JPG,AFNE01.JPG,AFNE01.JPG,,,,,,,,,2,8,28,8,,,,,,,,,,,,,,,AMNE03.jpg,AMSA02.jpg,AMNE07.jpg,AMSA07.jpg,AMSA02.jpg,MS,2,num_6,16,num_6,1.85009665496,,,2017_Jul_27_1649,60.0042148148,MAFE4ImagesEEG,001,101124,
AFNE01.JPG,AFNE01.JPG,AFNE01.JPG,AFNE01.JPG,AFNE01.JPG,AFNE01.JPG,,,,,,,,,2,9,29,4,,,,,,,,,,,,,,,AMSA11.jpg,AMNE17.jpg,AMSA05.jpg,AMNE03.jpg,AMSA11.jpg,MS,2,num_8,32,num_4,1.40021085448,,,2017_Jul_27_1649,60.0042148148,MAFE4ImagesEEG,001,101124,
AFNE01.JPG,AFNE01.JPG,AFNE01.JPG,AFNE01.JPG,AFNE01.JPG,AFNE01.JPG,,,,,,,,,3,0,30,1,,,,,,,,,,,,,,,AMSA18.jpg,AMNE01.jpg,AMNE12.jpg,AMSA06.jpg,AMNE01.jpg,MN,1,num_6,16,num_6,2.63330007251,,,2017_Jul_27_1649,60.0042148148,MAFE4ImagesEEG,001,101124,
AFNE01.JPG,AFNE01.JPG,AFNE01.JPG,AFNE01.JPG,AFNE01.JPG,AFNE01.JPG,,,,,,,,,3,1,31,3,,,,,,,,,,,,,,,AMSA02.jpg,AMNE20.jpg,AMNE13.jpg,AMSA18.jpg,AMSA02.jpg,MS,2,num_8,16,num_8,1.65007670503,,,2017_Jul_27_1649,60.0042148148,MAFE4ImagesEEG,001,101124,
AFNE01.JPG,AFNE01.JPG,AFNE01.JPG,AFNE01.JPG,AFNE01.JPG,AFNE01.JPG,,,,,,,,,3,2,32,0,,,,,,,,,,,,,,,AMSA16.jpg,AMNE09.jpg,AMSA06.jpg,AMNE13.jpg,AMSA06.jpg,MS,2,num_2,32,num_6,1.58337655303,,,2017_Jul_27_1649,60.0042148148,MAFE4ImagesEEG,001,101124,
AFNE01.JPG,AFNE01.JPG,AFNE01.JPG,AFNE01.JPG,AFNE01.JPG,AFNE01.JPG,,,,,,,,,3,3,33,2,,,,,,,,,,,,,,,AMNE09.jpg,AMSA10.jpg,AMSA02.jpg,AMNE05.jpg,AMNE09.jpg,MN,1,num_8,16,num_8,1.66669008066,,,2017_Jul_27_1649,60.0042148148,MAFE4ImagesEEG,001,101124,
AFNE01.JPG,AFNE01.JPG,AFNE01.JPG,AFNE01.JPG,AFNE01.JPG,AFNE01.JPG,,,,,,,,,3,4,34,7,,,,,,,,,,,,,,,AMNE02.jpg,AMNE13.jpg,AMSA20.jpg,AMSA17.jpg,AMSA17.jpg,MS,2,num_4,16,num_4,1.31669590215,,,2017_Jul_27_1649,60.0042148148,MAFE4ImagesEEG,001,101124,
AFNE01.JPG,AFNE01.JPG,AFNE01.JPG,AFNE01.JPG,AFNE01.JPG,AFNE01.JPG,,,,,,,,,3,5,35,5,,,,,,,,,,,,,,,AMNE12.jpg,AMNE06.jpg,AMSA20.jpg,AMSA15.jpg,AMSA20.jpg,MS,2,num_2,32,num_6,2.8666215064,,,2017_Jul_27_1649,60.0042148148,MAFE4ImagesEEG,001,101124,
AFNE01.JPG,AFNE01.JPG,AFNE01.JPG,AFNE01.JPG,AFNE01.JPG,AFNE01.JPG,,,,,,,,,3,6,36,9,,,,,,,,,,,,,,,AMSA03.jpg,AMNE16.jpg,AMNE17.jpg,AMSA05.jpg,AMNE17.jpg,MN,1,num_2,32,num_8,1.66645914782,,,2017_Jul_27_1649,60.0042148148,MAFE4ImagesEEG,001,101124,
AFNE01.JPG,AFNE01.JPG,AFNE01.JPG,AFNE01.JPG,AFNE01.JPG,AFNE01.JPG,,,,,,,,,3,7,37,6,,,,,,,,,,,,,,,AMNE12.jpg,AMSA05.jpg,AMNE17.jpg,AMSA06.jpg,AMSA06.jpg,MS,2,num_4,16,num_4,1.41675238439,,,2017_Jul_27_1649,60.0042148148,MAFE4ImagesEEG,001,101124,
AFNE01.JPG,AFNE01.JPG,AFNE01.JPG,AFNE01.JPG,AFNE01.JPG,AFNE01.JPG,,,,,,,,,3,8,38,8,,,,,,,,,,,,,,,AMNE06.jpg,AMSA03.jpg,AMNE17.jpg,AMSA07.jpg,AMSA07.jpg,MS,2,num_4,32,num_6,1.38346116431,,,2017_Jul_27_1649,60.0042148148,MAFE4ImagesEEG,001,101124,
AFNE01.JPG,AFNE01.JPG,AFNE01.JPG,AFNE01.JPG,AFNE01.JPG,AFNE01.JPG,,,,,,,,,3,9,39,4,,,,,,,,,,,,,,,AMNE05.jpg,AMSA09.jpg,AMNE01.jpg,AMSA05.jpg,AMNE05.jpg,MN,1,num_8,32,num_2,1.35022222472,,,2017_Jul_27_1649,60.0042148148,MAFE4ImagesEEG,001,101124,
AFNE01.JPG,AFNE01.JPG,AFNE01.JPG,AFNE01.JPG,AFNE01.JPG,AFNE01.JPG,,,,,,,,,4,0,40,5,,,,,,,,,,,,,,,AMSA15.jpg,AMNE08.jpg,AMNE17.jpg,AMSA11.jpg,AMSA15.jpg,MS,2,num_8,32,num_6,1.28343803901,,,2017_Jul_27_1649,60.0042148148,MAFE4ImagesEEG,001,101124,
AFNE01.JPG,AFNE01.JPG,AFNE01.JPG,AFNE01.JPG,AFNE01.JPG,AFNE01.JPG,,,,,,,,,4,1,41,3,,,,,,,,,,,,,,,AMNE06.jpg,AMSA16.jpg,AMSA05.jpg,AMNE13.jpg,AMSA05.jpg,MS,2,num_2,16,num_2,1.61676656117,,,2017_Jul_27_1649,60.0042148148,MAFE4ImagesEEG,001,101124,
AFNE01.JPG,AFNE01.JPG,AFNE01.JPG,AFNE01.JPG,AFNE01.JPG,AFNE01.JPG,,,,,,,,,4,2,42,9,,,,,,,,,,,,,,,AMSA08.jpg,AMNE03.jpg,AMNE13.jpg,AMSA11.jpg,AMNE13.jpg,MN,1,num_2,32,num_4,4.73315737536,,,2017_Jul_27_1649,60.0042148148,MAFE4ImagesEEG,001,101124,
AFNE01.JPG,AFNE01.JPG,AFNE01.JPG,AFNE01.JPG,AFNE01.JPG,AFNE01.JPG,,,,,,,,,4,3,43,4,,,,,,,,,,,,,,,AMNE03.jpg,AMSA18.jpg,AMNE14.jpg,AMSA03.jpg,AMNE03.jpg,MN,1,num_8,16,num_8,1.11675453337,,,2017_Jul_27_1649,60.0042148148,MAFE4ImagesEEG,001,101124,
AFNE01.JPG,AFNE01.JPG,AFNE01.JPG,AFNE01.JPG,AFNE01.JPG,AFNE01.JPG,,,,,,,,,4,4,44,6,,,,,,,,,,,,,,,AMSA16.jpg,AMNE16.jpg,AMSA10.jpg,AMNE18.jpg,AMSA10.jpg,MS,2,num_2,32,num_8,1.96665617847,,,2017_Jul_27_1649,60.0042148148,MAFE4ImagesEEG,001,101124,
AFNE01.JPG,AFNE01.JPG,AFNE01.JPG,AFNE01.JPG,AFNE01.JPG,AFNE01.JPG,,,,,,,,,4,5,45,8,,,,,,,,,,,,,,,AMSA12.jpg,AMNE02.jpg,AMNE20.jpg,AMSA07.jpg,AMNE20.jpg,MN,1,num_2,32,num_6,1.43341868231,,,2017_Jul_27_1649,60.0042148148,MAFE4ImagesEEG,001,101124,
AFNE01.JPG,AFNE01.JPG,AFNE01.JPG,AFNE01.JPG,AFNE01.JPG,AFNE01.JPG,,,,,,,,,4,6,46,7,,,,,,,,,,,,,,,AMNE19.jpg,AMSA13.jpg,AMSA18.jpg,AMNE01.jpg,AMNE01.jpg,MN,1,num_4,16,num_4,2.11671091279,,,2017_Jul_27_1649,60.0042148148,MAFE4ImagesEEG,001,101124,
AFNE01.JPG,AFNE01.JPG,AFNE01.JPG,AFNE01.JPG,AFNE01.JPG,AFNE01.JPG,,,,,,,,,4,7,47,2,,,,,,,,,,,,,,,AMSA04.jpg,AMNE06.jpg,AMSA05.jpg,AMNE13.jpg,AMSA05.jpg,MS,2,num_2,48,None,,,,2017_Jul_27_1649,60.0042148148,MAFE4ImagesEEG,001,101124,
AFNE01.JPG,AFNE01.JPG,AFNE01.JPG,AFNE01.JPG,AFNE01.JPG,AFNE01.JPG,,,,,,,,,4,8,48,1,,,,,,,,,,,,,,,AMNE18.jpg,AMNE04.jpg,AMSA16.jpg,AMSA18.jpg,AMNE18.jpg,MN,1,num_8,32,num_4,1.36671820958,,,2017_Jul_27_1649,60.0042148148,MAFE4ImagesEEG,001,101124,
AFNE01.JPG,AFNE01.JPG,AFNE01.JPG,AFNE01.JPG,AFNE01.JPG,AFNE01.JPG,,,,,,,,,4,9,49,0,,,,,,,,,,,,,,,AMNE16.jpg,AMSA17.jpg,AMSA04.jpg,AMNE02.jpg,AMNE16.jpg,MN,1,num_8,16,num_8,1.28345471749,,,2017_Jul_27_1649,60.0042148148,MAFE4ImagesEEG,001,101124,
AFNE01.JPG,AFNE01.JPG,AFNE01.JPG,AFNE01.JPG,AFNE01.JPG,AFNE01.JPG,,,,,,,,,5,0,50,5,,,,,,,,,,,,,,,AMNE12.jpg,AMNE16.jpg,AMSA18.jpg,AMSA06.jpg,AMSA18.jpg,MS,2,num_2,16,num_2,1.35012151243,,,2017_Jul_27_1649,60.0042148148,MAFE4ImagesEEG,001,101124,
AFNE01.JPG,AFNE01.JPG,AFNE01.JPG,AFNE01.JPG,AFNE01.JPG,AFNE01.JPG,,,,,,,,,5,1,51,0,,,,,,,,,,,,,,,AMNE07.jpg,AMSA05.jpg,AMSA19.jpg,AMNE04.jpg,AMNE04.jpg,MN,1,num_4,16,num_4,1.38345731539,,,2017_Jul_27_1649,60.0042148148,MAFE4ImagesEEG,001,101124,
AFNE01.JPG,AFNE01.JPG,AFNE01.JPG,AFNE01.JPG,AFNE01.JPG,AFNE01.JPG,,,,,,,,,5,2,52,8,,,,,,,,,,,,,,,AMSA04.jpg,AMNE15.jpg,AMNE06.jpg,AMSA01.jpg,AMSA04.jpg,MS,2,num_8,32,num_4,1.60006017075,,,2017_Jul_27_1649,60.0042148148,MAFE4ImagesEEG,001,101124,
AFNE01.JPG,AFNE01.JPG,AFNE01.JPG,AFNE01.JPG,AFNE01.JPG,AFNE01.JPG,,,,,,,,,5,3,53,1,,,,,,,,,,,,,,,AMSA12.jpg,AMNE08.jpg,AMNE02.jpg,AMSA17.jpg,AMSA12.jpg,MS,2,num_8,32,num_2,1.70001145045,,,2017_Jul_27_1649,60.0042148148,MAFE4ImagesEEG,001,101124,
AFNE01.JPG,AFNE01.JPG,AFNE01.JPG,AFNE01.JPG,AFNE01.JPG,AFNE01.JPG,,,,,,,,,5,4,54,2,,,,,,,,,,,,,,,AMNE02.jpg,AMSA01.jpg,AMSA05.jpg,AMNE11.jpg,AMSA01.jpg,MS,2,num_6,32,num_8,3.79958714324,,,2017_Jul_27_1649,60.0042148148,MAFE4ImagesEEG,001,101124,
AFNE01.JPG,AFNE01.JPG,AFNE01.JPG,AFNE01.JPG,AFNE01.JPG,AFNE01.JPG,,,,,,,,,5,5,55,4,,,,,,,,,,,,,,,AMSA05.jpg,AMNE15.jpg,AMNE13.jpg,AMSA04.jpg,AMSA05.jpg,MS,2,num_8,16,num_8,1.58341055142,,,2017_Jul_27_1649,60.0042148148,MAFE4ImagesEEG,001,101124,
AFNE01.JPG,AFNE01.JPG,AFNE01.JPG,AFNE01.JPG,AFNE01.JPG,AFNE01.JPG,,,,,,,,,5,6,56,6,,,,,,,,,,,,,,,AMNE01.jpg,AMNE06.jpg,AMSA09.jpg,AMSA16.jpg,AMSA16.jpg,MS,2,num_4,32,num_2,3.33370282594,,,2017_Jul_27_1649,60.0042148148,MAFE4ImagesEEG,001,101124,
AFNE01.JPG,AFNE01.JPG,AFNE01.JPG,AFNE01.JPG,AFNE01.JPG,AFNE01.JPG,,,,,,,,,5,7,57,9,,,,,,,,,,,,,,,AMSA15.jpg,AMNE17.jpg,AMSA04.jpg,AMNE04.jpg,AMSA15.jpg,MS,2,num_8,16,num_8,1.10009657487,,,2017_Jul_27_1649,60.0042148148,MAFE4ImagesEEG,001,101124,
AFNE01.JPG,AFNE01.JPG,AFNE01.JPG,AFNE01.JPG,AFNE01.JPG,AFNE01.JPG,,,,,,,,,5,8,58,7,,,,,,,,,,,,,,,AMSA20.jpg,AMNE05.jpg,AMNE04.jpg,AMSA18.jpg,AMNE04.jpg,MN,1,num_2,32,num_6,1.71664984385,,,2017_Jul_27_1649,60.0042148148,MAFE4ImagesEEG,001,101124,
AFNE01.JPG,AFNE01.JPG,AFNE01.JPG,AFNE01.JPG,AFNE01.JPG,AFNE01.JPG,,,,,,,,,5,9,59,3,,,,,,,,,,,,,,,AMSA10.jpg,AMNE12.jpg,AMNE13.jpg,AMSA15.jpg,AMNE13.jpg,MN,1,num_2,32,num_6,1.4667378068,,,2017_Jul_27_1649,60.0042148148,MAFE4ImagesEEG,001,101124,
,,,,,,,,,,,,,,,,,,,,,,,,,,,,,,,,,,,,,,,,,,,space,42.3302510208,2017_Jul_27_1649,60.0042148148,MAFE4ImagesEEG,001,101124,
AFNE01.JPG,AFNE01.JPG,AFNE01.JPG,AFNE01.JPG,AFNE01.JPG,AFNE01.JPG,,,,,,,,,,,,,0,0,0,6,,,,,,,,,,,AFNE06.jpg,AFSA18.jpg,AFNE10.jpg,AFSA02.jpg,AFNE10.jpg,FN,3,num_2,16,num_2,1.28338094731,,,2017_Jul_27_1649,60.0042148148,MAFE4ImagesEEG,001,101124,
AFNE01.JPG,AFNE01.JPG,AFNE01.JPG,AFNE01.JPG,AFNE01.JPG,AFNE01.JPG,,,,,,,,,,,,,0,1,1,8,,,,,,,,,,,AFSA20.jpg,AFNE11.jpg,AFNE03.jpg,AFSA02.jpg,AFNE03.jpg,FN,3,num_2,16,num_2,1.23333233898,,,2017_Jul_27_1649,60.0042148148,MAFE4ImagesEEG,001,101124,
AFNE01.JPG,AFNE01.JPG,AFNE01.JPG,AFNE01.JPG,AFNE01.JPG,AFNE01.JPG,,,,,,,,,,,,,0,2,2,1,,,,,,,,,,,AFSA17.jpg,AFSA11.jpg,AFNE02.jpg,AFNE16.jpg,AFNE16.jpg,FN,3,num_4,32,num_8,1.05010088882,,,2017_Jul_27_1649,60.0042148148,MAFE4ImagesEEG,001,101124,
AFNE01.JPG,AFNE01.JPG,AFNE01.JPG,AFNE01.JPG,AFNE01.JPG,AFNE01.JPG,,,,,,,,,,,,,0,3,3,7,,,,,,,,,,,AFSA01.jpg,AFSA04.jpg,AFNE10.jpg,AFNE01.jpg,AFSA01.jpg,FS,4,num_8,16,num_8,1.5000896469,,,2017_Jul_27_1649,60.0042148148,MAFE4ImagesEEG,001,101124,
AFNE01.JPG,AFNE01.JPG,AFNE01.JPG,AFNE01.JPG,AFNE01.JPG,AFNE01.JPG,,,,,,,,,,,,,0,4,4,0,,,,,,,,,,,AFNE11.jpg,AFSA16.jpg,AFNE10.jpg,AFSA10.jpg,AFSA16.jpg,FS,4,num_6,16,num_6,0.866737614386,,,2017_Jul_27_1649,60.0042148148,MAFE4ImagesEEG,001,101124,
AFNE01.JPG,AFNE01.JPG,AFNE01.JPG,AFNE01.JPG,AFNE01.JPG,AFNE01.JPG,,,,,,,,,,,,,0,5,5,3,,,,,,,,,,,AFNE07.jpg,AFSA13.jpg,AFSA09.jpg,AFNE03.jpg,AFNE07.jpg,FN,3,num_8,16,num_8,1.3834271658,,,2017_Jul_27_1649,60.0042148148,MAFE4ImagesEEG,001,101124,
AFNE01.JPG,AFNE01.JPG,AFNE01.JPG,AFNE01.JPG,AFNE01.JPG,AFNE01.JPG,,,,,,,,,,,,,0,6,6,4,,,,,,,,,,,AFSA09.jpg,AFNE12.jpg,AFSA12.jpg,AFNE18.jpg,AFNE18.jpg,FN,3,num_4,16,num_4,1.03347949462,,,2017_Jul_27_1649,60.0042148148,MAFE4ImagesEEG,001,101124,
AFNE01.JPG,AFNE01.JPG,AFNE01.JPG,AFNE01.JPG,AFNE01.JPG,AFNE01.JPG,,,,,,,,,,,,,0,7,7,9,,,,,,,,,,,AFSA06.jpg,AFSA16.jpg,AFNE05.jpg,AFNE16.jpg,AFSA16.jpg,FS,4,num_6,32,num_2,1.61675020342,,,2017_Jul_27_1649,60.0042148148,MAFE4ImagesEEG,001,101124,
AFNE01.JPG,AFNE01.JPG,AFNE01.JPG,AFNE01.JPG,AFNE01.JPG,AFNE01.JPG,,,,,,,,,,,,,0,8,8,2,,,,,,,,,,,AFSA01.jpg,AFNE05.jpg,AFSA06.jpg,AFNE06.jpg,AFSA06.jpg,FS,4,num_2,32,num_4,1.46685583913,,,2017_Jul_27_1649,60.0042148148,MAFE4ImagesEEG,001,101124,
AFNE01.JPG,AFNE01.JPG,AFNE01.JPG,AFNE01.JPG,AFNE01.JPG,AFNE01.JPG,,,,,,,,,,,,,0,9,9,5,,,,,,,,,,,AFSA03.jpg,AFSA09.jpg,AFNE03.jpg,AFNE01.jpg,AFNE01.jpg,FN,3,num_4,32,num_2,2.11666632979,,,2017_Jul_27_1649,60.0042148148,MAFE4ImagesEEG,001,101124,
AFNE01.JPG,AFNE01.JPG,AFNE01.JPG,AFNE01.JPG,AFNE01.JPG,AFNE01.JPG,,,,,,,,,,,,,1,0,10,7,,,,,,,,,,,AFNE18.jpg,AFSA18.jpg,AFSA11.jpg,AFNE16.jpg,AFNE16.jpg,FN,3,num_4,32,num_8,2.03337332956,,,2017_Jul_27_1649,60.0042148148,MAFE4ImagesEEG,001,101124,
AFNE01.JPG,AFNE01.JPG,AFNE01.JPG,AFNE01.JPG,AFNE01.JPG,AFNE01.JPG,,,,,,,,,,,,,1,1,11,9,,,,,,,,,,,AFNE19.jpg,AFNE05.jpg,AFSA03.jpg,AFSA07.jpg,AFNE19.jpg,FN,3,num_8,32,num_2,2.38331490685,,,2017_Jul_27_1649,60.0042148148,MAFE4ImagesEEG,001,101124,
AFNE01.JPG,AFNE01.JPG,AFNE01.JPG,AFNE01.JPG,AFNE01.JPG,AFNE01.JPG,,,,,,,,,,,,,1,2,12,6,,,,,,,,,,,AFNE11.jpg,AFNE04.jpg,AFSA18.jpg,AFSA08.jpg,AFSA18.jpg,FS,4,num_2,16,num_2,1.43343279487,,,2017_Jul_27_1649,60.0042148148,MAFE4ImagesEEG,001,101124,
AFNE01.JPG,AFNE01.JPG,AFNE01.JPG,AFNE01.JPG,AFNE01.JPG,AFNE01.JPG,,,,,,,,,,,,,1,3,13,5,,,,,,,,,,,AFNE05.jpg,AFNE02.jpg,AFSA07.jpg,AFSA01.jpg,AFSA07.jpg,FS,4,num_2,32,num_4,1.21675424476,,,2017_Jul_27_1649,60.0042148148,MAFE4ImagesEEG,001,101124,
AFNE01.JPG,AFNE01.JPG,AFNE01.JPG,AFNE01.JPG,AFNE01.JPG,AFNE01.JPG,,,,,,,,,,,,,1,4,14,0,,,,,,,,,,,AFSA14.jpg,AFNE03.jpg,AFNE11.jpg,AFSA04.jpg,AFSA14.jpg,FS,4,num_8,16,num_8,4.33320311294,,,2017_Jul_27_1649,60.0042148148,MAFE4ImagesEEG,001,101124,
AFNE01.JPG,AFNE01.JPG,AFNE01.JPG,AFNE01.JPG,AFNE01.JPG,AFNE01.JPG,,,,,,,,,,,,,1,5,15,4,,,,,,,,,,,AFNE13.jpg,AFSA09.jpg,AFSA19.jpg,AFNE09.jpg,AFNE09.jpg,FN,3,num_4,16,num_4,1.5836151836,,,2017_Jul_27_1649,60.0042148148,MAFE4ImagesEEG,001,101124,
AFNE01.JPG,AFNE01.JPG,AFNE01.JPG,AFNE01.JPG,AFNE01.JPG,AFNE01.JPG,,,,,,,,,,,,,1,6,16,3,,,,,,,,,,,AFSA08.jpg,AFNE04.jpg,AFNE19.jpg,AFSA18.jpg,AFNE19.jpg,FN,3,num_2,16,num_2,1.20013734093,,,2017_Jul_27_1649,60.0042148148,MAFE4ImagesEEG,001,101124,
AFNE01.JPG,AFNE01.JPG,AFNE01.JPG,AFNE01.JPG,AFNE01.JPG,AFNE01.JPG,,,,,,,,,,,,,1,7,17,8,,,,,,,,,,,AFNE05.jpg,AFSA09.jpg,AFSA03.jpg,AFNE14.jpg,AFNE14.jpg,FN,3,num_4,48,None,,,,2017_Jul_27_1649,60.0042148148,MAFE4ImagesEEG,001,101124,
AFNE01.JPG,AFNE01.JPG,AFNE01.JPG,AFNE01.JPG,AFNE01.JPG,AFNE01.JPG,,,,,,,,,,,,,1,8,18,2,,,,,,,,,,,AFNE14.jpg,AFNE06.jpg,AFSA13.jpg,AFSA16.jpg,AFNE06.jpg,FN,3,num_6,32,num_4,1.35006762797,,,2017_Jul_27_1649,60.0042148148,MAFE4ImagesEEG,001,101124,
AFNE01.JPG,AFNE01.JPG,AFNE01.JPG,AFNE01.JPG,AFNE01.JPG,AFNE01.JPG,,,,,,,,,,,,,1,9,19,1,,,,,,,,,,,AFNE06.jpg,AFSA06.jpg,AFSA15.jpg,AFNE20.jpg,AFNE20.jpg,FN,3,num_4,32,num_6,1.55008404993,,,2017_Jul_27_1649,60.0042148148,MAFE4ImagesEEG,001,101124,
AFNE01.JPG,AFNE01.JPG,AFNE01.JPG,AFNE01.JPG,AFNE01.JPG,AFNE01.JPG,,,,,,,,,,,,,2,0,20,5,,,,,,,,,,,AFNE14.jpg,AFSA14.jpg,AFSA07.jpg,AFNE09.jpg,AFSA07.jpg,FS,4,num_2,32,num_4,1.80014298589,,,2017_Jul_27_1649,60.0042148148,MAFE4ImagesEEG,001,101124,
AFNE01.JPG,AFNE01.JPG,AFNE01.JPG,AFNE01.JPG,AFNE01.JPG,AFNE01.JPG,,,,,,,,,,,,,2,1,21,6,,,,,,,,,,,AFNE06.jpg,AFSA03.jpg,AFSA13.jpg,AFNE13.jpg,AFSA13.jpg,FS,4,num_2,32,num_8,4.28318401275,,,2017_Jul_27_1649,60.0042148148,MAFE4ImagesEEG,001,101124,
AFNE01.JPG,AFNE01.JPG,AFNE01.JPG,AFNE01.JPG,AFNE01.JPG,AFNE01.JPG,,,,,,,,,,,,,2,2,22,8,,,,,,,,,,,AFNE14.jpg,AFSA05.jpg,AFSA19.jpg,AFNE02.jpg,AFNE14.jpg,FN,3,num_8,16,num_8,1.31672220281,,,2017_Jul_27_1649,60.0042148148,MAFE4ImagesEEG,001,101124,
AFNE01.JPG,AFNE01.JPG,AFNE01.JPG,AFNE01.JPG,AFNE01.JPG,AFNE01.JPG,,,,,,,,,,,,,2,3,23,0,,,,,,,,,,,AFSA03.jpg,AFNE07.jpg,AFSA09.jpg,AFNE03.jpg,AFSA03.jpg,FS,4,num_8,32,num_4,1.05017690419,,,2017_Jul_27_1649,60.0042148148,MAFE4ImagesEEG,001,101124,
AFNE01.JPG,AFNE01.JPG,AFNE01.JPG,AFNE01.JPG,AFNE01.JPG,AFNE01.JPG,,,,,,,,,,,,,2,4,24,7,,,,,,,,,,,AFNE09.jpg,AFSA20.jpg,AFNE01.jpg,AFSA08.jpg,AFSA08.jpg,FS,4,num_4,16,num_4,1.41674276232,,,2017_Jul_27_1649,60.0042148148,MAFE4ImagesEEG,001,101124,
AFNE01.JPG,AFNE01.JPG,AFNE01.JPG,AFNE01.JPG,AFNE01.JPG,AFNE01.JPG,,,,,,,,,,,,,2,5,25,1,,,,,,,,,,,AFSA14.jpg,AFNE08.jpg,AFNE11.jpg,AFSA20.jpg,AFNE08.jpg,FN,3,num_6,32,num_4,1.71670019999,,,2017_Jul_27_1649,60.0042148148,MAFE4ImagesEEG,001,101124,
AFNE01.JPG,AFNE01.JPG,AFNE01.JPG,AFNE01.JPG,AFNE01.JPG,AFNE01.JPG,,,,,,,,,,,,,2,6,26,4,,,,,,,,,,,AFNE15.jpg,AFNE06.jpg,AFSA11.jpg,AFSA04.jpg,AFSA04.jpg,FS,4,num_4,16,num_4,1.5167027018,,,2017_Jul_27_1649,60.0042148148,MAFE4ImagesEEG,001,101124,
AFNE01.JPG,AFNE01.JPG,AFNE01.JPG,AFNE01.JPG,AFNE01.JPG,AFNE01.JPG,,,,,,,,,,,,,2,7,27,3,,,,,,,,,,,AFSA05.jpg,AFSA11.jpg,AFNE07.jpg,AFNE04.jpg,AFSA05.jpg,FS,4,num_8,16,num_8,1.31670552434,,,2017_Jul_27_1649,60.0042148148,MAFE4ImagesEEG,001,101124,
AFNE01.JPG,AFNE01.JPG,AFNE01.JPG,AFNE01.JPG,AFNE01.JPG,AFNE01.JPG,,,,,,,,,,,,,2,8,28,2,,,,,,,,,,,AFSA18.jpg,AFNE05.jpg,AFNE08.jpg,AFSA09.jpg,AFNE08.jpg,FN,3,num_2,32,num_8,1.38339445041,,,2017_Jul_27_1649,60.0042148148,MAFE4ImagesEEG,001,101124,
AFNE01.JPG,AFNE01.JPG,AFNE01.JPG,AFNE01.JPG,AFNE01.JPG,AFNE01.JPG,,,,,,,,,,,,,2,9,29,9,,,,,,,,,,,AFSA14.jpg,AFNE04.jpg,AFNE07.jpg,AFSA02.jpg,AFNE07.jpg,FN,3,num_2,16,num_2,1.60007428343,,,2017_Jul_27_1649,60.0042148148,MAFE4ImagesEEG,001,101124,
AFNE01.JPG,AFNE01.JPG,AFNE01.JPG,AFNE01.JPG,AFNE01.JPG,AFNE01.JPG,,,,,,,,,,,,,3,0,30,1,,,,,,,,,,,AFNE07.jpg,AFSA06.jpg,AFNE12.jpg,AFSA16.jpg,AFSA16.jpg,FS,4,num_4,16,num_4,1.45014399628,,,2017_Jul_27_1649,60.0042148148,MAFE4ImagesEEG,001,101124,
AFNE01.JPG,AFNE01.JPG,AFNE01.JPG,AFNE01.JPG,AFNE01.JPG,AFNE01.JPG,,,,,,,,,,,,,3,1,31,5,,,,,,,,,,,AFNE10.jpg,AFSA20.jpg,AFSA09.jpg,AFNE07.jpg,AFSA20.jpg,FS,4,num_6,32,num_8,4.41648135905,,,2017_Jul_27_1649,60.0042148148,MAFE4ImagesEEG,001,101124,
AFNE01.JPG,AFNE01.JPG,AFNE01.JPG,AFNE01.JPG,AFNE01.JPG,AFNE01.JPG,,,,,,,,,,,,,3,2,32,9,,,,,,,,,,,AFSA15.jpg,AFSA19.jpg,AFNE14.jpg,AFNE12.jpg,AFNE12.jpg,FN,3,num_4,32,num_6,2.34998359415,,,2017_Jul_27_1649,60.0042148148,MAFE4ImagesEEG,001,101124,
AFNE01.JPG,AFNE01.JPG,AFNE01.JPG,AFNE01.JPG,AFNE01.JPG,AFNE01.JPG,,,,,,,,,,,,,3,3,33,4,,,,,,,,,,,AFSA07.jpg,AFSA16.jpg,AFNE11.jpg,AFNE03.jpg,AFNE11.jpg,FN,3,num_2,32,num_4,1.14994279598,,,2017_Jul_27_1649,60.0042148148,MAFE4ImagesEEG,001,101124,
AFNE01.JPG,AFNE01.JPG,AFNE01.JPG,AFNE01.JPG,AFNE01.JPG,AFNE01.JPG,,,,,,,,,,,,,3,4,34,7,,,,,,,,,,,AFSA10.jpg,AFSA01.jpg,AFNE02.jpg,AFNE06.jpg,AFNE06.jpg,FN,3,num_4,32,num_2,2.03333484079,,,2017_Jul_27_1649,60.0042148148,MAFE4ImagesEEG,001,101124,
AFNE01.JPG,AFNE01.JPG,AFNE01.JPG,AFNE01.JPG,AFNE01.JPG,AFNE01.JPG,,,,,,,,,,,,,3,5,35,0,,,,,,,,,,,AFSA13.jpg,AFNE08.jpg,AFNE10.jpg,AFSA04.jpg,AFSA13.jpg,FS,4,num_8,32,num_6,1.55013151956,,,2017_Jul_27_1649,60.0042148148,MAFE4ImagesEEG,001,101124,
AFNE01.JPG,AFNE01.JPG,AFNE01.JPG,AFNE01.JPG,AFNE01.JPG,AFNE01.JPG,,,,,,,,,,,,,3,6,36,3,,,,,,,,,,,AFSA19.jpg,AFSA13.jpg,AFNE05.jpg,AFNE11.jpg,AFSA13.jpg,FS,4,num_6,32,num_8,1.93339799449,,,2017_Jul_27_1649,60.0042148148,MAFE4ImagesEEG,001,101124,
AFNE01.JPG,AFNE01.JPG,AFNE01.JPG,AFNE01.JPG,AFNE01.JPG,AFNE01.JPG,,,,,,,,,,,,,3,7,37,8,,,,,,,,,,,AFSA03.jpg,AFNE17.jpg,AFNE15.jpg,AFSA04.jpg,AFSA03.jpg,FS,4,num_8,32,num_4,1.80016992812,,,2017_Jul_27_1649,60.0042148148,MAFE4ImagesEEG,001,101124,
AFNE01.JPG,AFNE01.JPG,AFNE01.JPG,AFNE01.JPG,AFNE01.JPG,AFNE01.JPG,,,,,,,,,,,,,3,8,38,2,,,,,,,,,,,AFSA10.jpg,AFSA09.jpg,AFNE07.jpg,AFNE06.jpg,AFNE06.jpg,FN,3,num_4,48,None,,,,2017_Jul_27_1649,60.0042148148,MAFE4ImagesEEG,001,101124,
AFNE01.JPG,AFNE01.JPG,AFNE01.JPG,AFNE01.JPG,AFNE01.JPG,AFNE01.JPG,,,,,,,,,,,,,3,9,39,6,,,,,,,,,,,AFSA06.jpg,AFNE09.jpg,AFNE01.jpg,AFSA09.jpg,AFSA09.jpg,FS,4,num_4,32,num_2,2.64999523701,,,2017_Jul_27_1649,60.0042148148,MAFE4ImagesEEG,001,101124,
AFNE01.JPG,AFNE01.JPG,AFNE01.JPG,AFNE01.JPG,AFNE01.JPG,AFNE01.JPG,,,,,,,,,,,,,4,0,40,0,,,,,,,,,,,AFNE14.jpg,AFSA14.jpg,AFNE09.jpg,AFSA13.jpg,AFSA14.jpg,FS,4,num_6,16,num_6,1.36673745397,,,2017_Jul_27_1649,60.0042148148,MAFE4ImagesEEG,001,101124,
AFNE01.JPG,AFNE01.JPG,AFNE01.JPG,AFNE01.JPG,AFNE01.JPG,AFNE01.JPG,,,,,,,,,,,,,4,1,41,7,,,,,,,,,,,AFSA14.jpg,AFNE05.jpg,AFSA02.jpg,AFNE09.jpg,AFNE05.jpg,FN,3,num_6,16,num_6,1.88336253667,,,2017_Jul_27_1649,60.0042148148,MAFE4ImagesEEG,001,101124,
AFNE01.JPG,AFNE01.JPG,AFNE01.JPG,AFNE01.JPG,AFNE01.JPG,AFNE01.JPG,,,,,,,,,,,,,4,2,42,8,,,,,,,,,,,AFNE11.jpg,AFNE15.jpg,AFSA08.jpg,AFSA16.jpg,AFNE11.jpg,FN,3,num_8,32,num_4,1.13348337554,,,2017_Jul_27_1649,60.0042148148,MAFE4ImagesEEG,001,101124,
AFNE01.JPG,AFNE01.JPG,AFNE01.JPG,AFNE01.JPG,AFNE01.JPG,AFNE01.JPG,,,,,,,,,,,,,4,3,43,9,,,,,,,,,,,AFSA05.jpg,AFNE16.jpg,AFSA06.jpg,AFNE14.jpg,AFNE14.jpg,FN,3,num_4,16,num_4,1.51674760552,,,2017_Jul_27_1649,60.0042148148,MAFE4ImagesEEG,001,101124,
AFNE01.JPG,AFNE01.JPG,AFNE01.JPG,AFNE01.JPG,AFNE01.JPG,AFNE01.JPG,,,,,,,,,,,,,4,4,44,6,,,,,,,,,,,AFSA10.jpg,AFNE12.jpg,AFNE04.jpg,AFSA03.jpg,AFSA03.jpg,FS,4,num_4,16,num_4,2.73334500834,,,2017_Jul_27_1649,60.0042148148,MAFE4ImagesEEG,001,101124,
AFNE01.JPG,AFNE01.JPG,AFNE01.JPG,AFNE01.JPG,AFNE01.JPG,AFNE01.JPG,,,,,,,,,,,,,4,5,45,3,,,,,,,,,,,AFNE17.jpg,AFNE19.jpg,AFSA04.jpg,AFSA09.jpg,AFNE19.jpg,FN,3,num_6,16,num_6,1.10024700197,,,2017_Jul_27_1649,60.0042148148,MAFE4ImagesEEG,001,101124,
AFNE01.JPG,AFNE01.JPG,AFNE01.JPG,AFNE01.JPG,AFNE01.JPG,AFNE01.JPG,,,,,,,,,,,,,4,6,46,5,,,,,,,,,,,AFNE11.jpg,AFSA11.jpg,AFSA03.jpg,AFNE10.jpg,AFNE10.jpg,FN,3,num_4,16,num_4,2.10004012461,,,2017_Jul_27_1649,60.0042148148,MAFE4ImagesEEG,001,101124,
AFNE01.JPG,AFNE01.JPG,AFNE01.JPG,AFNE01.JPG,AFNE01.JPG,AFNE01.JPG,,,,,,,,,,,,,4,7,47,2,,,,,,,,,,,AFNE03.jpg,AFSA11.jpg,AFSA08.jpg,AFNE10.jpg,AFSA08.jpg,FS,4,num_2,16,num_2,1.05025484401,,,2017_Jul_27_1649,60.0042148148,MAFE4ImagesEEG,001,101124,
AFNE01.JPG,AFNE01.JPG,AFNE01.JPG,AFNE01.JPG,AFNE01.JPG,AFNE01.JPG,,,,,,,,,,,,,4,8,48,1,,,,,,,,,,,AFSA05.jpg,AFNE15.jpg,AFSA14.jpg,AFNE20.jpg,AFSA05.jpg,FS,4,num_8,16,num_8,1.50007232698,,,2017_Jul_27_1649,60.0042148148,MAFE4ImagesEEG,001,101124,
AFNE01.JPG,AFNE01.JPG,AFNE01.JPG,AFNE01.JPG,AFNE01.JPG,AFNE01.JPG,,,,,,,,,,,,,4,9,49,4,,,,,,,,,,,AFSA07.jpg,AFSA02.jpg,AFNE10.jpg,AFNE12.jpg,AFSA02.jpg,FS,4,num_6,16,num_6,1.29992696748,,,2017_Jul_27_1649,60.0042148148,MAFE4ImagesEEG,001,101124,
AFNE01.JPG,AFNE01.JPG,AFNE01.JPG,AFNE01.JPG,AFNE01.JPG,AFNE01.JPG,,,,,,,,,,,,,5,0,50,9,,,,,,,,,,,AFSA07.jpg,AFNE09.jpg,AFSA16.jpg,AFNE12.jpg,AFNE12.jpg,FN,3,num_4,16,num_4,2.48331493884,,,2017_Jul_27_1649,60.0042148148,MAFE4ImagesEEG,001,101124,
AFNE01.JPG,AFNE01.JPG,AFNE01.JPG,AFNE01.JPG,AFNE01.JPG,AFNE01.JPG,,,,,,,,,,,,,5,1,51,8,,,,,,,,,,,AFSA16.jpg,AFNE16.jpg,AFNE08.jpg,AFSA18.jpg,AFNE08.jpg,FN,3,num_2,16,num_2,1.68306193908,,,2017_Jul_27_1649,60.0042148148,MAFE4ImagesEEG,001,101124,
AFNE01.JPG,AFNE01.JPG,AFNE01.JPG,AFNE01.JPG,AFNE01.JPG,AFNE01.JPG,,,,,,,,,,,,,5,2,52,0,,,,,,,,,,,AFNE02.jpg,AFSA03.jpg,AFNE05.jpg,AFSA09.jpg,AFSA09.jpg,FS,4,num_4,16,num_4,1.73341525043,,,2017_Jul_27_1649,60.0042148148,MAFE4ImagesEEG,001,101124,
AFNE01.JPG,AFNE01.JPG,AFNE01.JPG,AFNE01.JPG,AFNE01.JPG,AFNE01.JPG,,,,,,,,,,,,,5,3,53,4,,,,,,,,,,,AFSA03.jpg,AFSA12.jpg,AFNE07.jpg,AFNE19.jpg,AFNE19.jpg,FN,3,num_4,16,num_4,1.38343614666,,,2017_Jul_27_1649,60.0042148148,MAFE4ImagesEEG,001,101124,
AFNE01.JPG,AFNE01.JPG,AFNE01.JPG,AFNE01.JPG,AFNE01.JPG,AFNE01.JPG,,,,,,,,,,,,,5,4,54,6,,,,,,,,,,,AFNE16.jpg,AFSA13.jpg,AFSA02.jpg,AFNE19.jpg,AFNE16.jpg,FN,3,num_8,32,num_4,1.31706475327,,,2017_Jul_27_1649,60.0042148148,MAFE4ImagesEEG,001,101124,
AFNE01.JPG,AFNE01.JPG,AFNE01.JPG,AFNE01.JPG,AFNE01.JPG,AFNE01.JPG,,,,,,,,,,,,,5,5,55,3,,,,,,,,,,,AFSA16.jpg,AFNE04.jpg,AFSA06.jpg,AFNE19.jpg,AFSA16.jpg,FS,4,num_8,32,num_2,1.45011448814,,,2017_Jul_27_1649,60.0042148148,MAFE4ImagesEEG,001,101124,
AFNE01.JPG,AFNE01.JPG,AFNE01.JPG,AFNE01.JPG,AFNE01.JPG,AFNE01.JPG,,,,,,,,,,,,,5,6,56,7,,,,,,,,,,,AFNE15.jpg,AFSA13.jpg,AFNE16.jpg,AFSA11.jpg,AFNE16.jpg,FN,3,num_2,16,num_2,1.45009845123,,,2017_Jul_27_1649,60.0042148148,MAFE4ImagesEEG,001,101124,
AFNE01.JPG,AFNE01.JPG,AFNE01.JPG,AFNE01.JPG,AFNE01.JPG,AFNE01.JPG,,,,,,,,,,,,,5,7,57,5,,,,,,,,,,,AFNE14.jpg,AFSA02.jpg,AFNE07.jpg,AFSA19.jpg,AFNE07.jpg,FN,3,num_2,16,num_2,1.09992465819,,,2017_Jul_27_1649,60.0042148148,MAFE4ImagesEEG,001,101124,
AFNE01.JPG,AFNE01.JPG,AFNE01.JPG,AFNE01.JPG,AFNE01.JPG,AFNE01.JPG,,,,,,,,,,,,,5,8,58,2,,,,,,,,,,,AFNE20.jpg,AFNE14.jpg,AFSA19.jpg,AFSA13.jpg,AFNE20.jpg,FN,3,num_8,16,num_8,1.13344713196,,,2017_Jul_27_1649,60.0042148148,MAFE4ImagesEEG,001,101124,
AFNE01.JPG,AFNE01.JPG,AFNE01.JPG,AFNE01.JPG,AFNE01.JPG,AFNE01.JPG,,,,,,,,,,,,,5,9,59,1,,,,,,,,,,,AFNE16.jpg,AFSA11.jpg,AFNE13.jpg,AFSA10.jpg,AFNE16.jpg,FN,3,num_8,32,num_2,1.31680976483,,,2017_Jul_27_1649,60.0042148148,MAFE4ImagesEEG,001,101124,
,,,,,,,,,,,,,,,,,,,,,,,,,,,,,,,,,,,,,,,,,,,space,52.3294895837,2017_Jul_27_1649,60.0042148148,MAFE4ImagesEEG,001,101124,
AFNE01.JPG,AFNE01.JPG,AFNE01.JPG,AFNE01.JPG,AFNE01.JPG,AFNE01.JPG,,,,,,,,,,,,,,,,,0,0,0,4,,,,,,,AMNE01.jpg,AMSA07.jpg,AMSA15.jpg,AMNE03.jpg,AMNE01.jpg,MN,1,num_8,16,num_8,1.48345157423,,,2017_Jul_27_1649,60.0042148148,MAFE4ImagesEEG,001,101124,
AFNE01.JPG,AFNE01.JPG,AFNE01.JPG,AFNE01.JPG,AFNE01.JPG,AFNE01.JPG,,,,,,,,,,,,,,,,,0,1,1,8,,,,,,,AMSA01.jpg,AMNE10.jpg,AMSA05.jpg,AMNE07.jpg,AMNE10.jpg,MN,1,num_6,16,num_6,1.10013281845,,,2017_Jul_27_1649,60.0042148148,MAFE4ImagesEEG,001,101124,
AFNE01.JPG,AFNE01.JPG,AFNE01.JPG,AFNE01.JPG,AFNE01.JPG,AFNE01.JPG,,,,,,,,,,,,,,,,,0,2,2,6,,,,,,,AMSA17.jpg,AMNE11.jpg,AMSA01.jpg,AMNE02.jpg,AMNE11.jpg,MN,1,num_6,32,num_4,1.85002448852,,,2017_Jul_27_1649,60.0042148148,MAFE4ImagesEEG,001,101124,
AFNE01.JPG,AFNE01.JPG,AFNE01.JPG,AFNE01.JPG,AFNE01.JPG,AFNE01.JPG,,,,,,,,,,,,,,,,,0,3,3,3,,,,,,,AMNE13.jpg,AMNE10.jpg,AMSA14.jpg,AMSA03.jpg,AMSA14.jpg,MS,2,num_2,16,num_2,1.21673018928,,,2017_Jul_27_1649,60.0042148148,MAFE4ImagesEEG,001,101124,
AFNE01.JPG,AFNE01.JPG,AFNE01.JPG,AFNE01.JPG,AFNE01.JPG,AFNE01.JPG,,,,,,,,,,,,,,,,,0,4,4,5,,,,,,,AMNE03.jpg,AMSA15.jpg,AMSA18.jpg,AMNE19.jpg,AMSA15.jpg,MS,2,num_6,32,num_4,1.36664828821,,,2017_Jul_27_1649,60.0042148148,MAFE4ImagesEEG,001,101124,
AFNE01.JPG,AFNE01.JPG,AFNE01.JPG,AFNE01.JPG,AFNE01.JPG,AFNE01.JPG,,,,,,,,,,,,,,,,,0,5,5,7,,,,,,,AMNE04.jpg,AMSA17.jpg,AMSA10.jpg,AMNE20.jpg,AMSA10.jpg,MS,2,num_2,16,num_2,1.31679116189,,,2017_Jul_27_1649,60.0042148148,MAFE4ImagesEEG,001,101124,
AFNE01.JPG,AFNE01.JPG,AFNE01.JPG,AFNE01.JPG,AFNE01.JPG,AFNE01.JPG,,,,,,,,,,,,,,,,,0,6,6,1,,,,,,,AMSA09.jpg,AMNE14.jpg,AMSA02.jpg,AMNE02.jpg,AMNE02.jpg,MN,1,num_4,16,num_4,1.56680711883,,,2017_Jul_27_1649,60.0042148148,MAFE4ImagesEEG,001,101124,
AFNE01.JPG,AFNE01.JPG,AFNE01.JPG,AFNE01.JPG,AFNE01.JPG,AFNE01.JPG,,,,,,,,,,,,,,,,,0,7,7,9,,,,,,,AMNE15.jpg,AMSA19.jpg,AMNE01.jpg,AMSA09.jpg,AMNE15.jpg,MN,1,num_8,32,num_4,1.28341526631,,,2017_Jul_27_1649,60.0042148148,MAFE4ImagesEEG,001,101124,
AFNE01.JPG,AFNE01.JPG,AFNE01.JPG,AFNE01.JPG,AFNE01.JPG,AFNE01.JPG,,,,,,,,,,,,,,,,,0,8,8,0,,,,,,,AMSA04.jpg,AMNE07.jpg,AMSA10.jpg,AMNE08.jpg,AMSA10.jpg,MS,2,num_2,32,num_8,2.23335960193,,,2017_Jul_27_1649,60.0042148148,MAFE4ImagesEEG,001,101124,
AFNE01.JPG,AFNE01.JPG,AFNE01.JPG,AFNE01.JPG,AFNE01.JPG,AFNE01.JPG,,,,,,,,,,,,,,,,,0,9,9,2,,,,,,,AMNE12.jpg,AMNE07.jpg,AMSA06.jpg,AMSA16.jpg,AMSA16.jpg,MS,2,num_4,16,num_4,1.36685644859,,,2017_Jul_27_1649,60.0042148148,MAFE4ImagesEEG,001,101124,
AFNE01.JPG,AFNE01.JPG,AFNE01.JPG,AFNE01.JPG,AFNE01.JPG,AFNE01.JPG,,,,,,,,,,,,,,,,,1,0,10,3,,,,,,,AMSA03.jpg,AMSA20.jpg,AMNE06.jpg,AMNE10.jpg,AMSA03.jpg,MS,2,num_8,32,num_6,2.5499612065,,,2017_Jul_27_1649,60.0042148148,MAFE4ImagesEEG,001,101124,
AFNE01.JPG,AFNE01.JPG,AFNE01.JPG,AFNE01.JPG,AFNE01.JPG,AFNE01.JPG,,,,,,,,,,,,,,,,,1,1,11,0,,,,,,,AMSA18.jpg,AMSA13.jpg,AMNE08.jpg,AMNE07.jpg,AMSA18.jpg,MS,2,num_8,48,None,,,,2017_Jul_27_1649,60.0042148148,MAFE4ImagesEEG,001,101124,
AFNE01.JPG,AFNE01.JPG,AFNE01.JPG,AFNE01.JPG,AFNE01.JPG,AFNE01.JPG,,,,,,,,,,,,,,,,,1,2,12,2,,,,,,,AMSA20.jpg,AMNE03.jpg,AMNE07.jpg,AMSA12.jpg,AMSA20.jpg,MS,2,num_8,32,num_4,2.25007689744,,,2017_Jul_27_1649,60.0042148148,MAFE4ImagesEEG,001,101124,
AFNE01.JPG,AFNE01.JPG,AFNE01.JPG,AFNE01.JPG,AFNE01.JPG,AFNE01.JPG,,,,,,,,,,,,,,,,,1,3,13,1,,,,,,,AMNE05.jpg,AMSA09.jpg,AMNE08.jpg,AMSA11.jpg,AMNE05.jpg,MN,1,num_8,16,num_8,1.8000823661,,,2017_Jul_27_1649,60.0042148148,MAFE4ImagesEEG,001,101124,
AFNE01.JPG,AFNE01.JPG,AFNE01.JPG,AFNE01.JPG,AFNE01.JPG,AFNE01.JPG,,,,,,,,,,,,,,,,,1,4,14,8,,,,,,,AMSA18.jpg,AMNE18.jpg,AMSA13.jpg,AMNE17.jpg,AMNE17.jpg,MN,1,num_4,32,num_6,1.48338133213,,,2017_Jul_27_1649,60.0042148148,MAFE4ImagesEEG,001,101124,
AFNE01.JPG,AFNE01.JPG,AFNE01.JPG,AFNE01.JPG,AFNE01.JPG,AFNE01.JPG,,,,,,,,,,,,,,,,,1,5,15,5,,,,,,,AMNE10.jpg,AMNE20.jpg,AMSA10.jpg,AMSA20.jpg,AMNE10.jpg,MN,1,num_8,16,num_8,2.28332096874,,,2017_Jul_27_1649,60.0042148148,MAFE4ImagesEEG,001,101124,
AFNE01.JPG,AFNE01.JPG,AFNE01.JPG,AFNE01.JPG,AFNE01.JPG,AFNE01.JPG,,,,,,,,,,,,,,,,,1,6,16,9,,,,,,,AMSA07.jpg,AMNE04.jpg,AMNE14.jpg,AMSA09.jpg,AMNE14.jpg,MN,1,num_2,16,num_2,2.01675578428,,,2017_Jul_27_1649,60.0042148148,MAFE4ImagesEEG,001,101124,
AFNE01.JPG,AFNE01.JPG,AFNE01.JPG,AFNE01.JPG,AFNE01.JPG,AFNE01.JPG,,,,,,,,,,,,,,,,,1,7,17,6,,,,,,,AMSA10.jpg,AMNE18.jpg,AMSA04.jpg,AMNE14.jpg,AMNE18.jpg,MN,1,num_6,16,num_6,1.48339352023,,,2017_Jul_27_1649,60.0042148148,MAFE4ImagesEEG,001,101124,
AFNE01.JPG,AFNE01.JPG,AFNE01.JPG,AFNE01.JPG,AFNE01.JPG,AFNE01.JPG,,,,,,,,,,,,,,,,,1,8,18,7,,,,,,,AMSA14.jpg,AMNE05.jpg,AMNE08.jpg,AMSA10.jpg,AMNE08.jpg,MN,1,num_2,16,num_2,1.31672733463,,,2017_Jul_27_1649,60.0042148148,MAFE4ImagesEEG,001,101124,
AFNE01.JPG,AFNE01.JPG,AFNE01.JPG,AFNE01.JPG,AFNE01.JPG,AFNE01.JPG,,,,,,,,,,,,,,,,,1,9,19,4,,,,,,,AMNE01.jpg,AMNE11.jpg,AMSA18.jpg,AMSA08.jpg,AMSA18.jpg,MS,2,num_2,32,num_6,1.03345672204,,,2017_Jul_27_1649,60.0042148148,MAFE4ImagesEEG,001,101124,
AFNE01.JPG,AFNE01.JPG,AFNE01.JPG,AFNE01.JPG,AFNE01.JPG,AFNE01.JPG,,,,,,,,,,,,,,,,,2,0,20,9,,,,,,,AMNE06.jpg,AMSA05.jpg,AMNE05.jpg,AMSA17.jpg,AMNE06.jpg,MN,1,num_8,16,num_8,1.10008438665,,,2017_Jul_27_1649,60.0042148148,MAFE4ImagesEEG,001,101124,
AFNE01.JPG,AFNE01.JPG,AFNE01.JPG,AFNE01.JPG,AFNE01.JPG,AFNE01.JPG,,,,,,,,,,,,,,,,,2,1,21,2,,,,,,,AMNE09.jpg,AMNE14.jpg,AMSA19.jpg,AMSA05.jpg,AMSA19.jpg,MS,2,num_2,32,num_8,1.20010462543,,,2017_Jul_27_1649,60.0042148148,MAFE4ImagesEEG,001,101124,
AFNE01.JPG,AFNE01.JPG,AFNE01.JPG,AFNE01.JPG,AFNE01.JPG,AFNE01.JPG,,,,,,,,,,,,,,,,,2,2,22,8,,,,,,,AMNE05.jpg,AMSA10.jpg,AMSA05.jpg,AMNE20.jpg,AMSA05.jpg,MS,2,num_2,32,num_8,3.70027477795,,,2017_Jul_27_1649,60.0042148148,MAFE4ImagesEEG,001,101124,
AFNE01.JPG,AFNE01.JPG,AFNE01.JPG,AFNE01.JPG,AFNE01.JPG,AFNE01.JPG,,,,,,,,,,,,,,,,,2,3,23,6,,,,,,,AMNE07.jpg,AMSA19.jpg,AMSA20.jpg,AMNE19.jpg,AMNE19.jpg,MN,1,num_4,32,num_6,1.03347917378,,,2017_Jul_27_1649,60.0042148148,MAFE4ImagesEEG,001,101124,
AFNE01.JPG,AFNE01.JPG,AFNE01.JPG,AFNE01.JPG,AFNE01.JPG,AFNE01.JPG,,,,,,,,,,,,,,,,,2,4,24,0,,,,,,,AMNE06.jpg,AMSA09.jpg,AMSA02.jpg,AMNE02.jpg,AMNE02.jpg,MN,1,num_4,16,num_4,1.58339836332,,,2017_Jul_27_1649,60.0042148148,MAFE4ImagesEEG,001,101124,
AFNE01.JPG,AFNE01.JPG,AFNE01.JPG,AFNE01.JPG,AFNE01.JPG,AFNE01.JPG,,,,,,,,,,,,,,,,,2,5,25,3,,,,,,,AMNE08.jpg,AMSA11.jpg,AMNE14.jpg,AMSA17.jpg,AMNE14.jpg,MN,1,num_2,32,num_8,1.48340025579,,,2017_Jul_27_1649,60.0042148148,MAFE4ImagesEEG,001,101124,
AFNE01.JPG,AFNE01.JPG,AFNE01.JPG,AFNE01.JPG,AFNE01.JPG,AFNE01.JPG,,,,,,,,,,,,,,,,,2,6,26,7,,,,,,,AMSA10.jpg,AMNE19.jpg,AMSA15.jpg,AMNE20.jpg,AMNE20.jpg,MN,1,num_4,32,num_6,1.16675054026,,,2017_Jul_27_1649,60.0042148148,MAFE4ImagesEEG,001,101124,
AFNE01.JPG,AFNE01.JPG,AFNE01.JPG,AFNE01.JPG,AFNE01.JPG,AFNE01.JPG,,,,,,,,,,,,,,,,,2,7,27,1,,,,,,,AMNE07.jpg,AMSA12.jpg,AMSA20.jpg,AMNE06.jpg,AMNE06.jpg,MN,1,num_4,16,num_4,1.18343127135,,,2017_Jul_27_1649,60.0042148148,MAFE4ImagesEEG,001,101124,
AFNE01.JPG,AFNE01.JPG,AFNE01.JPG,AFNE01.JPG,AFNE01.JPG,AFNE01.JPG,,,,,,,,,,,,,,,,,2,8,28,5,,,,,,,AMSA19.jpg,AMSA01.jpg,AMNE12.jpg,AMNE09.jpg,AMNE09.jpg,MN,1,num_4,16,num_4,1.13343045337,,,2017_Jul_27_1649,60.0042148148,MAFE4ImagesEEG,001,101124,
AFNE01.JPG,AFNE01.JPG,AFNE01.JPG,AFNE01.JPG,AFNE01.JPG,AFNE01.JPG,,,,,,,,,,,,,,,,,2,9,29,4,,,,,,,AMSA06.jpg,AMNE20.jpg,AMNE06.jpg,AMSA14.jpg,AMSA14.jpg,MS,2,num_4,16,num_4,1.21673852846,,,2017_Jul_27_1649,60.0042148148,MAFE4ImagesEEG,001,101124,
AFNE01.JPG,AFNE01.JPG,AFNE01.JPG,AFNE01.JPG,AFNE01.JPG,AFNE01.JPG,,,,,,,,,,,,,,,,,3,0,30,5,,,,,,,AMSA03.jpg,AMNE17.jpg,AMNE07.jpg,AMSA15.jpg,AMNE17.jpg,MN,1,num_6,16,num_6,1.36675124581,,,2017_Jul_27_1649,60.0042148148,MAFE4ImagesEEG,001,101124,
AFNE01.JPG,AFNE01.JPG,AFNE01.JPG,AFNE01.JPG,AFNE01.JPG,AFNE01.JPG,,,,,,,,,,,,,,,,,3,1,31,3,,,,,,,AMSA20.jpg,AMNE14.jpg,AMSA19.jpg,AMNE06.jpg,AMNE14.jpg,MN,1,num_6,32,num_2,1.91665760567,,,2017_Jul_27_1649,60.0042148148,MAFE4ImagesEEG,001,101124,
AFNE01.JPG,AFNE01.JPG,AFNE01.JPG,AFNE01.JPG,AFNE01.JPG,AFNE01.JPG,,,,,,,,,,,,,,,,,3,2,32,6,,,,,,,AMSA12.jpg,AMNE02.jpg,AMSA10.jpg,AMNE05.jpg,AMNE02.jpg,MN,1,num_6,16,num_6,1.23343657958,,,2017_Jul_27_1649,60.0042148148,MAFE4ImagesEEG,001,101124,
AFNE01.JPG,AFNE01.JPG,AFNE01.JPG,AFNE01.JPG,AFNE01.JPG,AFNE01.JPG,,,,,,,,,,,,,,,,,3,3,33,0,,,,,,,AMSA05.jpg,AMNE01.jpg,AMSA13.jpg,AMNE14.jpg,AMSA05.jpg,MS,2,num_8,32,num_2,4.4332233516,,,2017_Jul_27_1649,60.0042148148,MAFE4ImagesEEG,001,101124,
AFNE01.JPG,AFNE01.JPG,AFNE01.JPG,AFNE01.JPG,AFNE01.JPG,AFNE01.JPG,,,,,,,,,,,,,,,,,3,4,34,2,,,,,,,AMNE05.jpg,AMSA15.jpg,AMNE09.jpg,AMSA04.jpg,AMSA15.jpg,MS,2,num_6,32,num_8,1.86671291746,,,2017_Jul_27_1649,60.0042148148,MAFE4ImagesEEG,001,101124,
AFNE01.JPG,AFNE01.JPG,AFNE01.JPG,AFNE01.JPG,AFNE01.JPG,AFNE01.JPG,,,,,,,,,,,,,,,,,3,5,35,4,,,,,,,AMNE13.jpg,AMNE03.jpg,AMSA19.jpg,AMSA04.jpg,AMSA19.jpg,MS,2,num_2,16,num_2,1.71671270893,,,2017_Jul_27_1649,60.0042148148,MAFE4ImagesEEG,001,101124,
AFNE01.JPG,AFNE01.JPG,AFNE01.JPG,AFNE01.JPG,AFNE01.JPG,AFNE01.JPG,,,,,,,,,,,,,,,,,3,6,36,7,,,,,,,AMNE02.jpg,AMSA18.jpg,AMNE03.jpg,AMSA10.jpg,AMNE03.jpg,MN,1,num_2,32,num_6,2.78329963959,,,2017_Jul_27_1649,60.0042148148,MAFE4ImagesEEG,001,101124,
AFNE01.JPG,AFNE01.JPG,AFNE01.JPG,AFNE01.JPG,AFNE01.JPG,AFNE01.JPG,,,,,,,,,,,,,,,,,3,7,37,9,,,,,,,AMSA14.jpg,AMNE04.jpg,AMSA07.jpg,AMNE16.jpg,AMNE04.jpg,MN,1,num_6,32,num_4,3.53324326954,,,2017_Jul_27_1649,60.0042148148,MAFE4ImagesEEG,001,101124,
AFNE01.JPG,AFNE01.JPG,AFNE01.JPG,AFNE01.JPG,AFNE01.JPG,AFNE01.JPG,,,,,,,,,,,,,,,,,3,8,38,8,,,,,,,AMSA19.jpg,AMSA18.jpg,AMNE09.jpg,AMNE17.jpg,AMSA18.jpg,MS,2,num_6,16,num_6,1.41644511535,,,2017_Jul_27_1649,60.0042148148,MAFE4ImagesEEG,001,101124,
AFNE01.JPG,AFNE01.JPG,AFNE01.JPG,AFNE01.JPG,AFNE01.JPG,AFNE01.JPG,,,,,,,,,,,,,,,,,3,9,39,1,,,,,,,AMSA05.jpg,AMNE16.jpg,AMSA01.jpg,AMNE19.jpg,AMNE16.jpg,MN,1,num_6,32,num_4,1.55003561813,,,2017_Jul_27_1649,60.0042148148,MAFE4ImagesEEG,001,101124,
AFNE01.JPG,AFNE01.JPG,AFNE01.JPG,AFNE01.JPG,AFNE01.JPG,AFNE01.JPG,,,,,,,,,,,,,,,,,4,0,40,8,,,,,,,AMSA05.jpg,AMSA09.jpg,AMNE09.jpg,AMNE06.jpg,AMNE06.jpg,MN,1,num_4,32,num_8,1.60003836046,,,2017_Jul_27_1649,60.0042148148,MAFE4ImagesEEG,001,101124,
AFNE01.JPG,AFNE01.JPG,AFNE01.JPG,AFNE01.JPG,AFNE01.JPG,AFNE01.JPG,,,,,,,,,,,,,,,,,4,1,41,3,,,,,,,AMNE11.jpg,AMSA04.jpg,AMNE03.jpg,AMSA15.jpg,AMSA04.jpg,MS,2,num_6,16,num_6,1.46681221854,,,2017_Jul_27_1649,60.0042148148,MAFE4ImagesEEG,001,101124,
AFNE01.JPG,AFNE01.JPG,AFNE01.JPG,AFNE01.JPG,AFNE01.JPG,AFNE01.JPG,,,,,,,,,,,,,,,,,4,2,42,0,,,,,,,AMNE14.jpg,AMSA16.jpg,AMNE02.jpg,AMSA11.jpg,AMSA11.jpg,MS,2,num_4,32,num_2,1.23340193962,,,2017_Jul_27_1649,60.0042148148,MAFE4ImagesEEG,001,101124,
AFNE01.JPG,AFNE01.JPG,AFNE01.JPG,AFNE01.JPG,AFNE01.JPG,AFNE01.JPG,,,,,,,,,,,,,,,,,4,3,43,4,,,,,,,AMSA04.jpg,AMNE07.jpg,AMNE19.jpg,AMSA08.jpg,AMNE19.jpg,MN,1,num_2,16,num_2,1.53343058168,,,2017_Jul_27_1649,60.0042148148,MAFE4ImagesEEG,001,101124,
AFNE01.JPG,AFNE01.JPG,AFNE01.JPG,AFNE01.JPG,AFNE01.JPG,AFNE01.JPG,,,,,,,,,,,,,,,,,4,4,44,2,,,,,,,AMSA20.jpg,AMNE20.jpg,AMSA14.jpg,AMNE12.jpg,AMNE12.jpg,MN,1,num_4,16,num_4,1.68337754731,,,2017_Jul_27_1649,60.0042148148,MAFE4ImagesEEG,001,101124,
AFNE01.JPG,AFNE01.JPG,AFNE01.JPG,AFNE01.JPG,AFNE01.JPG,AFNE01.JPG,,,,,,,,,,,,,,,,,4,5,45,1,,,,,,,AMSA13.jpg,AMSA16.jpg,AMNE10.jpg,AMNE03.jpg,AMNE10.jpg,MN,1,num_2,16,num_2,1.01678465097,,,2017_Jul_27_1649,60.0042148148,MAFE4ImagesEEG,001,101124,
AFNE01.JPG,AFNE01.JPG,AFNE01.JPG,AFNE01.JPG,AFNE01.JPG,AFNE01.JPG,,,,,,,,,,,,,,,,,4,6,46,6,,,,,,,AMSA01.jpg,AMNE13.jpg,AMNE12.jpg,AMSA05.jpg,AMSA01.jpg,MS,2,num_8,32,num_2,2.98326410155,,,2017_Jul_27_1649,60.0042148148,MAFE4ImagesEEG,001,101124,
AFNE01.JPG,AFNE01.JPG,AFNE01.JPG,AFNE01.JPG,AFNE01.JPG,AFNE01.JPG,,,,,,,,,,,,,,,,,4,7,47,7,,,,,,,AMNE01.jpg,AMSA04.jpg,AMNE19.jpg,AMSA01.jpg,AMSA04.jpg,MS,2,num_6,16,num_6,1.43343504006,,,2017_Jul_27_1649,60.0042148148,MAFE4ImagesEEG,001,101124,
AFNE01.JPG,AFNE01.JPG,AFNE01.JPG,AFNE01.JPG,AFNE01.JPG,AFNE01.JPG,,,,,,,,,,,,,,,,,4,8,48,9,,,,,,,AMSA02.jpg,AMSA15.jpg,AMNE17.jpg,AMNE10.jpg,AMSA02.jpg,MS,2,num_8,16,num_8,2.33333718218,,,2017_Jul_27_1649,60.0042148148,MAFE4ImagesEEG,001,101124,
AFNE01.JPG,AFNE01.JPG,AFNE01.JPG,AFNE01.JPG,AFNE01.JPG,AFNE01.JPG,,,,,,,,,,,,,,,,,4,9,49,5,,,,,,,AMNE13.jpg,AMSA16.jpg,AMNE17.jpg,AMSA11.jpg,AMSA16.jpg,MS,2,num_6,16,num_6,1.46674037282,,,2017_Jul_27_1649,60.0042148148,MAFE4ImagesEEG,001,101124,
AFNE01.JPG,AFNE01.JPG,AFNE01.JPG,AFNE01.JPG,AFNE01.JPG,AFNE01.JPG,,,,,,,,,,,,,,,,,5,0,50,8,,,,,,,AMSA18.jpg,AMNE18.jpg,AMSA08.jpg,AMNE11.jpg,AMNE11.jpg,MN,1,num_4,16,num_4,4.51676556689,,,2017_Jul_27_1649,60.0042148148,MAFE4ImagesEEG,001,101124,
AFNE01.JPG,AFNE01.JPG,AFNE01.JPG,AFNE01.JPG,AFNE01.JPG,AFNE01.JPG,,,,,,,,,,,,,,,,,5,1,51,4,,,,,,,AMNE04.jpg,AMSA19.jpg,AMSA11.jpg,AMNE14.jpg,AMNE14.jpg,MN,1,num_4,16,num_4,2.18313041714,,,2017_Jul_27_1649,60.0042148148,MAFE4ImagesEEG,001,101124,
AFNE01.JPG,AFNE01.JPG,AFNE01.JPG,AFNE01.JPG,AFNE01.JPG,AFNE01.JPG,,,,,,,,,,,,,,,,,5,2,52,7,,,,,,,AMSA07.jpg,AMNE02.jpg,AMNE11.jpg,AMSA04.jpg,AMNE11.jpg,MN,1,num_2,32,num_6,1.5834416633,,,2017_Jul_27_1649,60.0042148148,MAFE4ImagesEEG,001,101124,
AFNE01.JPG,AFNE01.JPG,AFNE01.JPG,AFNE01.JPG,AFNE01.JPG,AFNE01.JPG,,,,,,,,,,,,,,,,,5,3,53,6,,,,,,,AMSA08.jpg,AMNE01.jpg,AMSA20.jpg,AMNE05.jpg,AMNE01.jpg,MN,1,num_6,16,num_6,0.683482750086,,,2017_Jul_27_1649,60.0042148148,MAFE4ImagesEEG,001,101124,
AFNE01.JPG,AFNE01.JPG,AFNE01.JPG,AFNE01.JPG,AFNE01.JPG,AFNE01.JPG,,,,,,,,,,,,,,,,,5,4,54,1,,,,,,,AMNE10.jpg,AMNE14.jpg,AMSA11.jpg,AMSA01.jpg,AMSA01.jpg,MS,2,num_4,16,num_4,0.733509227284,,,2017_Jul_27_1649,60.0042148148,MAFE4ImagesEEG,001,101124,
AFNE01.JPG,AFNE01.JPG,AFNE01.JPG,AFNE01.JPG,AFNE01.JPG,AFNE01.JPG,,,,,,,,,,,,,,,,,5,5,55,2,,,,,,,AMNE04.jpg,AMSA18.jpg,AMSA14.jpg,AMNE16.jpg,AMSA18.jpg,MS,2,num_6,16,num_6,0.533559198491,,,2017_Jul_27_1649,60.0042148148,MAFE4ImagesEEG,001,101124,
AFNE01.JPG,AFNE01.JPG,AFNE01.JPG,AFNE01.JPG,AFNE01.JPG,AFNE01.JPG,,,,,,,,,,,,,,,,,5,6,56,5,,,,,,,AMNE16.jpg,AMSA04.jpg,AMNE20.jpg,AMSA10.jpg,AMSA10.jpg,MS,2,num_4,16,num_4,0.850097937975,,,2017_Jul_27_1649,60.0042148148,MAFE4ImagesEEG,001,101124,
AFNE01.JPG,AFNE01.JPG,AFNE01.JPG,AFNE01.JPG,AFNE01.JPG,AFNE01.JPG,,,,,,,,,,,,,,,,,5,7,57,9,,,,,,,AMSA02.jpg,AMNE16.jpg,AMNE07.jpg,AMSA19.jpg,AMSA19.jpg,MS,2,num_4,16,num_4,0.550304077682,,,2017_Jul_27_1649,60.0042148148,MAFE4ImagesEEG,001,101124,
AFNE01.JPG,AFNE01.JPG,AFNE01.JPG,AFNE01.JPG,AFNE01.JPG,AFNE01.JPG,,,,,,,,,,,,,,,,,5,8,58,3,,,,,,,AMSA13.jpg,AMSA05.jpg,AMNE12.jpg,AMNE19.jpg,AMSA13.jpg,MS,2,num_8,16,num_8,1.25008940639,,,2017_Jul_27_1649,60.0042148148,MAFE4ImagesEEG,001,101124,
AFNE01.JPG,AFNE01.JPG,AFNE01.JPG,AFNE01.JPG,AFNE01.JPG,AFNE01.JPG,,,,,,,,,,,,,,,,,5,9,59,0,,,,,,,AMSA01.jpg,AMNE09.jpg,AMSA06.jpg,AMNE03.jpg,AMNE09.jpg,MN,1,num_6,16,num_6,0.93343487964,,,2017_Jul_27_1649,60.0042148148,MAFE4ImagesEEG,001,101124,
,,,,,,,,,,,,,,,,,,,,,,,,,,,,,,,,,,,,,,,,,,,space,52.1294920857,2017_Jul_27_1649,60.0042148148,MAFE4ImagesEEG,001,101124,
AFNE01.JPG,AFNE01.JPG,AFNE01.JPG,AFNE01.JPG,AFNE01.JPG,AFNE01.JPG,,,,,,,,,,,,,,,,,,,,,0,0,0,9,,,AFNE09.jpg,AFSA08.jpg,AFSA03.jpg,AFNE04.jpg,AFSA03.jpg,FS,4,num_2,32,num_6,2.35027995799,,,2017_Jul_27_1649,60.0042148148,MAFE4ImagesEEG,001,101124,
AFNE01.JPG,AFNE01.JPG,AFNE01.JPG,AFNE01.JPG,AFNE01.JPG,AFNE01.JPG,,,,,,,,,,,,,,,,,,,,,0,1,1,3,,,AFSA02.jpg,AFNE01.jpg,AFSA05.jpg,AFNE18.jpg,AFSA02.jpg,FS,4,num_8,16,num_8,3.0499661779,,,2017_Jul_27_1649,60.0042148148,MAFE4ImagesEEG,001,101124,
AFNE01.JPG,AFNE01.JPG,AFNE01.JPG,AFNE01.JPG,AFNE01.JPG,AFNE01.JPG,,,,,,,,,,,,,,,,,,,,,0,2,2,4,,,AFNE18.jpg,AFSA04.jpg,AFNE04.jpg,AFSA05.jpg,AFSA04.jpg,FS,4,num_6,32,num_4,1.38340535562,,,2017_Jul_27_1649,60.0042148148,MAFE4ImagesEEG,001,101124,
AFNE01.JPG,AFNE01.JPG,AFNE01.JPG,AFNE01.JPG,AFNE01.JPG,AFNE01.JPG,,,,,,,,,,,,,,,,,,,,,0,3,3,0,,,AFNE09.jpg,AFNE06.jpg,AFSA10.jpg,AFSA07.jpg,AFNE06.jpg,FN,3,num_6,32,num_2,1.61673961906,,,2017_Jul_27_1649,60.0042148148,MAFE4ImagesEEG,001,101124,
AFNE01.JPG,AFNE01.JPG,AFNE01.JPG,AFNE01.JPG,AFNE01.JPG,AFNE01.JPG,,,,,,,,,,,,,,,,,,,,,0,4,4,8,,,AFSA03.jpg,AFNE12.jpg,AFSA19.jpg,AFNE09.jpg,AFSA03.jpg,FS,4,num_8,16,num_8,1.50006462913,,,2017_Jul_27_1649,60.0042148148,MAFE4ImagesEEG,001,101124,
AFNE01.JPG,AFNE01.JPG,AFNE01.JPG,AFNE01.JPG,AFNE01.JPG,AFNE01.JPG,,,,,,,,,,,,,,,,,,,,,0,5,5,5,,,AFNE10.jpg,AFNE11.jpg,AFSA19.jpg,AFSA09.jpg,AFSA09.jpg,FS,4,num_4,16,num_4,1.50017335999,,,2017_Jul_27_1649,60.0042148148,MAFE4ImagesEEG,001,101124,
AFNE01.JPG,AFNE01.JPG,AFNE01.JPG,AFNE01.JPG,AFNE01.JPG,AFNE01.JPG,,,,,,,,,,,,,,,,,,,,,0,6,6,2,,,AFNE05.jpg,AFSA18.jpg,AFNE19.jpg,AFSA20.jpg,AFSA20.jpg,FS,4,num_4,16,num_4,2.10004269052,,,2017_Jul_27_1649,60.0042148148,MAFE4ImagesEEG,001,101124,
AFNE01.JPG,AFNE01.JPG,AFNE01.JPG,AFNE01.JPG,AFNE01.JPG,AFNE01.JPG,,,,,,,,,,,,,,,,,,,,,0,7,7,1,,,AFNE06.jpg,AFNE01.jpg,AFSA17.jpg,AFSA12.jpg,AFSA12.jpg,FS,4,num_4,16,num_4,1.45007375418,,,2017_Jul_27_1649,60.0042148148,MAFE4ImagesEEG,001,101124,
AFNE01.JPG,AFNE01.JPG,AFNE01.JPG,AFNE01.JPG,AFNE01.JPG,AFNE01.JPG,,,,,,,,,,,,,,,,,,,,,0,8,8,7,,,AFSA05.jpg,AFSA15.jpg,AFNE10.jpg,AFNE02.jpg,AFSA05.jpg,FS,4,num_8,32,num_6,1.58325819997,,,2017_Jul_27_1649,60.0042148148,MAFE4ImagesEEG,001,101124,
AFNE01.JPG,AFNE01.JPG,AFNE01.JPG,AFNE01.JPG,AFNE01.JPG,AFNE01.JPG,,,,,,,,,,,,,,,,,,,,,0,9,9,6,,,AFNE08.jpg,AFNE01.jpg,AFSA15.jpg,AFSA16.jpg,AFNE01.jpg,FN,3,num_6,32,num_4,1.43369099067,,,2017_Jul_27_1649,60.0042148148,MAFE4ImagesEEG,001,101124,
AFNE01.JPG,AFNE01.JPG,AFNE01.JPG,AFNE01.JPG,AFNE01.JPG,AFNE01.JPG,,,,,,,,,,,,,,,,,,,,,1,0,10,5,,,AFSA08.jpg,AFNE18.jpg,AFSA07.jpg,AFNE17.jpg,AFSA07.jpg,FS,4,num_2,16,num_2,1.49997321819,,,2017_Jul_27_1649,60.0042148148,MAFE4ImagesEEG,001,101124,
AFNE01.JPG,AFNE01.JPG,AFNE01.JPG,AFNE01.JPG,AFNE01.JPG,AFNE01.JPG,,,,,,,,,,,,,,,,,,,,,1,1,11,0,,,AFSA15.jpg,AFNE17.jpg,AFNE09.jpg,AFSA01.jpg,AFNE17.jpg,FN,3,num_6,16,num_6,1.6166722636,,,2017_Jul_27_1649,60.0042148148,MAFE4ImagesEEG,001,101124,
AFNE01.JPG,AFNE01.JPG,AFNE01.JPG,AFNE01.JPG,AFNE01.JPG,AFNE01.JPG,,,,,,,,,,,,,,,,,,,,,1,2,12,1,,,AFSA15.jpg,AFNE10.jpg,AFSA12.jpg,AFNE14.jpg,AFNE14.jpg,FN,3,num_4,32,num_6,2.58330406575,,,2017_Jul_27_1649,60.0042148148,MAFE4ImagesEEG,001,101124,
AFNE01.JPG,AFNE01.JPG,AFNE01.JPG,AFNE01.JPG,AFNE01.JPG,AFNE01.JPG,,,,,,,,,,,,,,,,,,,,,1,3,13,4,,,AFSA18.jpg,AFSA01.jpg,AFNE10.jpg,AFNE17.jpg,AFSA01.jpg,FS,4,num_6,32,num_4,2.46665762179,,,2017_Jul_27_1649,60.0042148148,MAFE4ImagesEEG,001,101124,
AFNE01.JPG,AFNE01.JPG,AFNE01.JPG,AFNE01.JPG,AFNE01.JPG,AFNE01.JPG,,,,,,,,,,,,,,,,,,,,,1,4,14,8,,,AFNE15.jpg,AFSA15.jpg,AFSA14.jpg,AFNE20.jpg,AFSA15.jpg,FS,4,num_6,32,num_2,2.45002852974,,,2017_Jul_27_1649,60.0042148148,MAFE4ImagesEEG,001,101124,
AFNE01.JPG,AFNE01.JPG,AFNE01.JPG,AFNE01.JPG,AFNE01.JPG,AFNE01.JPG,,,,,,,,,,,,,,,,,,,,,1,5,15,9,,,AFNE18.jpg,AFSA06.jpg,AFNE16.jpg,AFSA11.jpg,AFNE18.jpg,FN,3,num_8,32,num_6,2.38333767944,,,2017_Jul_27_1649,60.0042148148,MAFE4ImagesEEG,001,101124,
AFNE01.JPG,AFNE01.JPG,AFNE01.JPG,AFNE01.JPG,AFNE01.JPG,AFNE01.JPG,,,,,,,,,,,,,,,,,,,,,1,6,16,6,,,AFNE04.jpg,AFSA09.jpg,AFSA11.jpg,AFNE08.jpg,AFNE08.jpg,FN,3,num_4,32,num_8,1.68341635691,,,2017_Jul_27_1649,60.0042148148,MAFE4ImagesEEG,001,101124,
AFNE01.JPG,AFNE01.JPG,AFNE01.JPG,AFNE01.JPG,AFNE01.JPG,AFNE01.JPG,,,,,,,,,,,,,,,,,,,,,1,7,17,3,,,AFNE07.jpg,AFNE11.jpg,AFSA11.jpg,AFSA09.jpg,AFSA09.jpg,FS,4,num_4,16,num_4,1.23341925966,,,2017_Jul_27_1649,60.0042148148,MAFE4ImagesEEG,001,101124,
AFNE01.JPG,AFNE01.JPG,AFNE01.JPG,AFNE01.JPG,AFNE01.JPG,AFNE01.JPG,,,,,,,,,,,,,,,,,,,,,1,8,18,2,,,AFSA18.jpg,AFNE11.jpg,AFSA19.jpg,AFNE01.jpg,AFNE01.jpg,FN,3,num_4,16,num_4,1.30005269754,,,2017_Jul_27_1649,60.0042148148,MAFE4ImagesEEG,001,101124,
AFNE01.JPG,AFNE01.JPG,AFNE01.JPG,AFNE01.JPG,AFNE01.JPG,AFNE01.JPG,,,,,,,,,,,,,,,,,,,,,1,9,19,7,,,AFSA19.jpg,AFNE19.jpg,AFNE17.jpg,AFSA10.jpg,AFNE17.jpg,FN,3,num_2,32,num_4,1.98326891265,,,2017_Jul_27_1649,60.0042148148,MAFE4ImagesEEG,001,101124,
AFNE01.JPG,AFNE01.JPG,AFNE01.JPG,AFNE01.JPG,AFNE01.JPG,AFNE01.JPG,,,,,,,,,,,,,,,,,,,,,2,0,20,8,,,AFNE13.jpg,AFSA18.jpg,AFSA05.jpg,AFNE14.jpg,AFSA18.jpg,FS,4,num_6,32,num_2,1.50006302539,,,2017_Jul_27_1649,60.0042148148,MAFE4ImagesEEG,001,101124,
AFNE01.JPG,AFNE01.JPG,AFNE01.JPG,AFNE01.JPG,AFNE01.JPG,AFNE01.JPG,,,,,,,,,,,,,,,,,,,,,2,1,21,1,,,AFSA17.jpg,AFSA11.jpg,AFNE14.jpg,AFNE09.jpg,AFNE09.jpg,FN,3,num_4,32,num_8,4.96645699884,,,2017_Jul_27_1649,60.0042148148,MAFE4ImagesEEG,001,101124,
AFNE01.JPG,AFNE01.JPG,AFNE01.JPG,AFNE01.JPG,AFNE01.JPG,AFNE01.JPG,,,,,,,,,,,,,,,,,,,,,2,2,22,4,,,AFSA20.jpg,AFSA05.jpg,AFNE19.jpg,AFNE14.jpg,AFNE14.jpg,FN,3,num_4,32,num_6,1.35008141981,,,2017_Jul_27_1649,60.0042148148,MAFE4ImagesEEG,001,101124,
AFNE01.JPG,AFNE01.JPG,AFNE01.JPG,AFNE01.JPG,AFNE01.JPG,AFNE01.JPG,,,,,,,,,,,,,,,,,,,,,2,3,23,6,,,AFNE18.jpg,AFNE19.jpg,AFSA02.jpg,AFSA10.jpg,AFNE18.jpg,FN,3,num_8,32,num_4,3.04995687644,,,2017_Jul_27_1649,60.0042148148,MAFE4ImagesEEG,001,101124,
AFNE01.JPG,AFNE01.JPG,AFNE01.JPG,AFNE01.JPG,AFNE01.JPG,AFNE01.JPG,,,,,,,,,,,,,,,,,,,,,2,4,24,2,,,AFNE10.jpg,AFNE02.jpg,AFSA16.jpg,AFSA05.jpg,AFSA16.jpg,FS,4,num_2,32,num_4,1.18342774315,,,2017_Jul_27_1649,60.0042148148,MAFE4ImagesEEG,001,101124,
AFNE01.JPG,AFNE01.JPG,AFNE01.JPG,AFNE01.JPG,AFNE01.JPG,AFNE01.JPG,,,,,,,,,,,,,,,,,,,,,2,5,25,7,,,AFNE10.jpg,AFNE15.jpg,AFSA11.jpg,AFSA19.jpg,AFSA19.jpg,FS,4,num_4,32,num_8,1.18347232603,,,2017_Jul_27_1649,60.0042148148,MAFE4ImagesEEG,001,101124,
AFNE01.JPG,AFNE01.JPG,AFNE01.JPG,AFNE01.JPG,AFNE01.JPG,AFNE01.JPG,,,,,,,,,,,,,,,,,,,,,2,6,26,9,,,AFNE13.jpg,AFNE20.jpg,AFSA07.jpg,AFSA16.jpg,AFSA07.jpg,FS,4,num_2,32,num_6,1.09994614776,,,2017_Jul_27_1649,60.0042148148,MAFE4ImagesEEG,001,101124,
AFNE01.JPG,AFNE01.JPG,AFNE01.JPG,AFNE01.JPG,AFNE01.JPG,AFNE01.JPG,,,,,,,,,,,,,,,,,,,,,2,7,27,3,,,AFNE06.jpg,AFSA19.jpg,AFNE09.jpg,AFSA13.jpg,AFSA13.jpg,FS,4,num_4,16,num_4,1.2833957012,,,2017_Jul_27_1649,60.0042148148,MAFE4ImagesEEG,001,101124,
AFNE01.JPG,AFNE01.JPG,AFNE01.JPG,AFNE01.JPG,AFNE01.JPG,AFNE01.JPG,,,,,,,,,,,,,,,,,,,,,2,8,28,0,,,AFNE15.jpg,AFSA17.jpg,AFSA08.jpg,AFNE19.jpg,AFSA17.jpg,FS,4,num_6,32,num_4,1.16679640603,,,2017_Jul_27_1649,60.0042148148,MAFE4ImagesEEG,001,101124,
AFNE01.JPG,AFNE01.JPG,AFNE01.JPG,AFNE01.JPG,AFNE01.JPG,AFNE01.JPG,,,,,,,,,,,,,,,,,,,,,2,9,29,5,,,AFNE11.jpg,AFSA20.jpg,AFSA09.jpg,AFNE14.jpg,AFNE14.jpg,FN,3,num_4,16,num_4,1.38345442875,,,2017_Jul_27_1649,60.0042148148,MAFE4ImagesEEG,001,101124,
AFNE01.JPG,AFNE01.JPG,AFNE01.JPG,AFNE01.JPG,AFNE01.JPG,AFNE01.JPG,,,,,,,,,,,,,,,,,,,,,3,0,30,8,,,AFNE18.jpg,AFNE05.jpg,AFSA12.jpg,AFSA20.jpg,AFSA12.jpg,FS,4,num_2,32,num_4,2.28327574441,,,2017_Jul_27_1649,60.0042148148,MAFE4ImagesEEG,001,101124,
AFNE01.JPG,AFNE01.JPG,AFNE01.JPG,AFNE01.JPG,AFNE01.JPG,AFNE01.JPG,,,,,,,,,,,,,,,,,,,,,3,1,31,5,,,AFSA17.jpg,AFSA05.jpg,AFNE04.jpg,AFNE09.jpg,AFSA17.jpg,FS,4,num_8,32,num_6,1.10008791485,,,2017_Jul_27_1649,60.0042148148,MAFE4ImagesEEG,001,101124,
AFNE01.JPG,AFNE01.JPG,AFNE01.JPG,AFNE01.JPG,AFNE01.JPG,AFNE01.JPG,,,,,,,,,,,,,,,,,,,,,3,2,32,1,,,AFSA03.jpg,AFNE10.jpg,AFSA11.jpg,AFNE11.jpg,AFSA03.jpg,FS,4,num_8,32,num_4,1.23343529669,,,2017_Jul_27_1649,60.0042148148,MAFE4ImagesEEG,001,101124,
AFNE01.JPG,AFNE01.JPG,AFNE01.JPG,AFNE01.JPG,AFNE01.JPG,AFNE01.JPG,,,,,,,,,,,,,,,,,,,,,3,3,33,3,,,AFSA02.jpg,AFNE01.jpg,AFSA05.jpg,AFNE15.jpg,AFNE15.jpg,FN,3,num_4,32,num_2,1.13341858611,,,2017_Jul_27_1649,60.0042148148,MAFE4ImagesEEG,001,101124,
AFNE01.JPG,AFNE01.JPG,AFNE01.JPG,AFNE01.JPG,AFNE01.JPG,AFNE01.JPG,,,,,,,,,,,,,,,,,,,,,3,4,34,9,,,AFSA01.jpg,AFSA11.jpg,AFNE01.jpg,AFNE07.jpg,AFNE07.jpg,FN,3,num_4,16,num_4,0.983442433062,,,2017_Jul_27_1649,60.0042148148,MAFE4ImagesEEG,001,101124,
AFNE01.JPG,AFNE01.JPG,AFNE01.JPG,AFNE01.JPG,AFNE01.JPG,AFNE01.JPG,,,,,,,,,,,,,,,,,,,,,3,5,35,6,,,AFNE12.jpg,AFNE01.jpg,AFSA08.jpg,AFSA03.jpg,AFNE01.jpg,FN,3,num_6,16,num_6,1.16677331273,,,2017_Jul_27_1649,60.0042148148,MAFE4ImagesEEG,001,101124,
AFNE01.JPG,AFNE01.JPG,AFNE01.JPG,AFNE01.JPG,AFNE01.JPG,AFNE01.JPG,,,,,,,,,,,,,,,,,,,,,3,6,36,2,,,AFNE13.jpg,AFNE08.jpg,AFSA03.jpg,AFSA04.jpg,AFSA03.jpg,FS,4,num_2,16,num_2,0.933440652909,,,2017_Jul_27_1649,60.0042148148,MAFE4ImagesEEG,001,101124,
AFNE01.JPG,AFNE01.JPG,AFNE01.JPG,AFNE01.JPG,AFNE01.JPG,AFNE01.JPG,,,,,,,,,,,,,,,,,,,,,3,7,37,4,,,AFSA19.jpg,AFNE10.jpg,AFSA18.jpg,AFNE02.jpg,AFNE10.jpg,FN,3,num_6,16,num_6,1.35007147701,,,2017_Jul_27_1649,60.0042148148,MAFE4ImagesEEG,001,101124,
AFNE01.JPG,AFNE01.JPG,AFNE01.JPG,AFNE01.JPG,AFNE01.JPG,AFNE01.JPG,,,,,,,,,,,,,,,,,,,,,3,8,38,7,,,AFSA15.jpg,AFNE18.jpg,AFSA05.jpg,AFNE02.jpg,AFSA15.jpg,FS,4,num_8,32,num_6,1.33342025394,,,2017_Jul_27_1649,60.0042148148,MAFE4ImagesEEG,001,101124,
AFNE01.JPG,AFNE01.JPG,AFNE01.JPG,AFNE01.JPG,AFNE01.JPG,AFNE01.JPG,,,,,,,,,,,,,,,,,,,,,3,9,39,0,,,AFNE10.jpg,AFSA03.jpg,AFNE14.jpg,AFSA20.jpg,AFNE14.jpg,FN,3,num_2,32,num_6,1.16682206525,,,2017_Jul_27_1649,60.0042148148,MAFE4ImagesEEG,001,101124,
