IPosition2,IPosition3,IPosition1,IPosition6,IPosition4,IPosition5,TrialsF1.thisRepN,TrialsF1.thisTrialN,TrialsF1.thisN,TrialsF1.thisIndex,TrialsM1.thisRepN,TrialsM1.thisTrialN,TrialsM1.thisN,TrialsM1.thisIndex,TrialsF2.thisRepN,TrialsF2.thisTrialN,TrialsF2.thisN,TrialsF2.thisIndex,TrialsM2.thisRepN,TrialsM2.thisTrialN,TrialsM2.thisN,TrialsM2.thisIndex,TrialsF3.thisRepN,TrialsF3.thisTrialN,TrialsF3.thisN,TrialsF3.thisIndex,TrialsM3.thisRepN,TrialsM3.thisTrialN,TrialsM3.thisN,TrialsM3.thisIndex,InstrKey_resp.keys,InstrKey_resp.rt,Image0 _Position,Image1 _Position,Image2 _Position,Image3 _Position,Center_image,condition,code,correct_answer,accuracy,Key_Resp.keys,Key_Resp.rt,BreakKey_resp.keys,BreakKey_resp.rt,date,frameRate,expName,session,participant,
,,,,,,,,,,,,,,,,,,,,,,,,,,,,,,space,28.4150582352,,,,,,,,,,,,,,2017_Aug_02_1729,59.988051602,FEMA4ImagesEEG,001,101117,
AFSA21.JPG,AFNE23.JPG,AFNE21.JPG,AFSA25.JPG,AFNE25.JPG,AFSA23.JPG,0,0,0,4,,,,,,,,,,,,,,,,,,,,,,,AFSA14.jpg,AFNE03.jpg,AFSA06.jpg,AFNE07.jpg,AFNE03.jpg,FN,3,num_6,32,num_8,1.58350324538,,,2017_Aug_02_1729,59.988051602,FEMA4ImagesEEG,001,101117,
AMSA25.JPG,AMNE24.JPG,AMSA24.JPG,AMNE26.JPG,AMSA21.JPG,AMNE25.JPG,0,1,1,3,,,,,,,,,,,,,,,,,,,,,,,AFSA05.jpg,AFNE18.jpg,AFNE10.jpg,AFSA03.jpg,AFNE18.jpg,FN,3,num_6,32,num_8,1.23345774855,,,2017_Aug_02_1729,59.988051602,FEMA4ImagesEEG,001,101117,
AFSA25.JPG,AFNE24.JPG,AFSA24.JPG,AFNE21.JPG,AFSA21.JPG,AFNE25.JPG,0,2,2,2,,,,,,,,,,,,,,,,,,,,,,,AFSA07.jpg,AFSA15.jpg,AFNE07.jpg,AFNE02.jpg,AFNE02.jpg,FN,3,num_4,32,num_2,1.11675004312,,,2017_Aug_02_1729,59.988051602,FEMA4ImagesEEG,001,101117,
AFNE22.JPG,AFSA24.JPG,AFSA22.JPG,AFNE25.JPG,AFNE24.JPG,AFSA25.JPG,0,3,3,6,,,,,,,,,,,,,,,,,,,,,,,AFSA19.jpg,AFSA04.jpg,AFNE05.jpg,AFNE13.jpg,AFSA19.jpg,FS,4,num_8,16,num_8,0.983386624372,,,2017_Aug_02_1729,59.988051602,FEMA4ImagesEEG,001,101117,
AFNE23.JPG,AFNE24.JPG,AFNE22.JPG,AFSA24.JPG,AFSA22.JPG,AFSA23.JPG,0,4,4,8,,,,,,,,,,,,,,,,,,,,,,,AFSA05.jpg,AFNE13.jpg,AFNE03.jpg,AFSA16.jpg,AFNE03.jpg,FN,3,num_2,16,num_2,1.11674523191,,,2017_Aug_02_1729,59.988051602,FEMA4ImagesEEG,001,101117,
AMSA21.JPG,AMNE23.JPG,AMNE21.JPG,AMSA25.JPG,AMNE25.JPG,AMSA23.JPG,0,5,5,5,,,,,,,,,,,,,,,,,,,,,,,AFNE19.jpg,AFSA12.jpg,AFSA01.jpg,AFNE20.jpg,AFNE19.jpg,FN,3,num_8,16,num_8,1.5999100646,,,2017_Aug_02_1729,59.988051602,FEMA4ImagesEEG,001,101117,
AMNE23.JPG,AMNE24.JPG,AMNE22.JPG,AMSA24.JPG,AMSA22.JPG,AMSA23.JPG,0,6,6,9,,,,,,,,,,,,,,,,,,,,,,,AFSA11.jpg,AFNE07.jpg,AFSA05.jpg,AFNE19.jpg,AFSA11.jpg,FS,4,num_8,16,num_8,0.633511440363,,,2017_Aug_02_1729,59.988051602,FEMA4ImagesEEG,001,101117,
AMSA21.JPG,AMNE22.JPG,AMNE21.JPG,AMSA23.JPG,AMSA22.JPG,AMNE23.JPG,0,7,7,1,,,,,,,,,,,,,,,,,,,,,,,AFSA01.jpg,AFNE11.jpg,AFNE01.jpg,AFSA08.jpg,AFNE01.jpg,FN,3,num_2,16,num_2,1.51671200339,,,2017_Aug_02_1729,59.988051602,FEMA4ImagesEEG,001,101117,
AFSA21.JPG,AFNE22.JPG,AFNE21.JPG,AFSA23.JPG,AFSA22.JPG,AFNE23.JPG,0,8,8,0,,,,,,,,,,,,,,,,,,,,,,,AFSA17.jpg,AFNE19.jpg,AFSA18.jpg,AFNE15.jpg,AFNE15.jpg,FN,3,num_4,16,num_4,1.21684437268,,,2017_Aug_02_1729,59.988051602,FEMA4ImagesEEG,001,101117,
AMNE22.JPG,AMSA24.JPG,AMSA22.JPG,AMNE25.JPG,AMNE24.JPG,AMSA25.JPG,0,9,9,7,,,,,,,,,,,,,,,,,,,,,,,AFNE07.jpg,AFSA11.jpg,AFNE04.jpg,AFSA06.jpg,AFNE07.jpg,FN,3,num_8,16,num_8,1.08344631409,,,2017_Aug_02_1729,59.988051602,FEMA4ImagesEEG,001,101117,
AMSA25.JPG,AMNE24.JPG,AMSA24.JPG,AMNE26.JPG,AMSA21.JPG,AMNE25.JPG,,,,,0,0,0,3,,,,,,,,,,,,,,,,,,,AMNE03.jpg,AMSA03.jpg,AMNE13.jpg,AMSA16.jpg,AMSA16.jpg,MS,2,num_4,16,num_4,1.11682670005,,,2017_Aug_02_1729,59.988051602,FEMA4ImagesEEG,001,101117,
AFSA21.JPG,AFNE23.JPG,AFNE21.JPG,AFSA25.JPG,AFNE25.JPG,AFSA23.JPG,,,,,0,1,1,4,,,,,,,,,,,,,,,,,,,AMSA03.jpg,AMNE17.jpg,AMSA11.jpg,AMNE11.jpg,AMNE17.jpg,MN,1,num_6,32,num_8,0.98349631764,,,2017_Aug_02_1729,59.988051602,FEMA4ImagesEEG,001,101117,
AMSA21.JPG,AMNE22.JPG,AMNE21.JPG,AMSA23.JPG,AMSA22.JPG,AMNE23.JPG,,,,,0,2,2,1,,,,,,,,,,,,,,,,,,,AMNE07.jpg,AMSA07.jpg,AMSA15.jpg,AMNE02.jpg,AMSA07.jpg,MS,2,num_6,16,num_6,0.900134037482,,,2017_Aug_02_1729,59.988051602,FEMA4ImagesEEG,001,101117,
AMNE23.JPG,AMNE24.JPG,AMNE22.JPG,AMSA24.JPG,AMSA22.JPG,AMSA23.JPG,,,,,0,3,3,9,,,,,,,,,,,,,,,,,,,AMSA09.jpg,AMNE02.jpg,AMSA14.jpg,AMNE04.jpg,AMSA14.jpg,MS,2,num_2,16,num_2,1.13346092356,,,2017_Aug_02_1729,59.988051602,FEMA4ImagesEEG,001,101117,
AMNE22.JPG,AMSA24.JPG,AMSA22.JPG,AMNE25.JPG,AMNE24.JPG,AMSA25.JPG,,,,,0,4,4,7,,,,,,,,,,,,,,,,,,,AMNE07.jpg,AMSA11.jpg,AMNE02.jpg,AMSA17.jpg,AMSA17.jpg,MS,2,num_4,32,num_8,0.983106938889,,,2017_Aug_02_1729,59.988051602,FEMA4ImagesEEG,001,101117,
AFSA21.JPG,AFNE22.JPG,AFNE21.JPG,AFSA23.JPG,AFSA22.JPG,AFNE23.JPG,,,,,0,5,5,0,,,,,,,,,,,,,,,,,,,AMNE10.jpg,AMSA18.jpg,AMSA11.jpg,AMNE03.jpg,AMSA11.jpg,MS,2,num_2,16,num_2,1.38329405873,,,2017_Aug_02_1729,59.988051602,FEMA4ImagesEEG,001,101117,
AFSA25.JPG,AFNE24.JPG,AFSA24.JPG,AFNE21.JPG,AFSA21.JPG,AFNE25.JPG,,,,,0,6,6,2,,,,,,,,,,,,,,,,,,,AMNE18.jpg,AMNE06.jpg,AMSA19.jpg,AMSA01.jpg,AMNE06.jpg,MN,1,num_6,16,num_6,1.80006953632,,,2017_Aug_02_1729,59.988051602,FEMA4ImagesEEG,001,101117,
AMSA21.JPG,AMNE23.JPG,AMNE21.JPG,AMSA25.JPG,AMNE25.JPG,AMSA23.JPG,,,,,0,7,7,5,,,,,,,,,,,,,,,,,,,AMSA04.jpg,AMSA10.jpg,AMNE12.jpg,AMNE07.jpg,AMNE12.jpg,MN,1,num_2,32,num_4,1.61696445779,,,2017_Aug_02_1729,59.988051602,FEMA4ImagesEEG,001,101117,
AFNE22.JPG,AFSA24.JPG,AFSA22.JPG,AFNE25.JPG,AFNE24.JPG,AFSA25.JPG,,,,,0,8,8,6,,,,,,,,,,,,,,,,,,,AMNE04.jpg,AMNE06.jpg,AMSA06.jpg,AMSA07.jpg,AMNE06.jpg,MN,1,num_6,32,num_2,1.50004891283,,,2017_Aug_02_1729,59.988051602,FEMA4ImagesEEG,001,101117,
AFNE23.JPG,AFNE24.JPG,AFNE22.JPG,AFSA24.JPG,AFSA22.JPG,AFSA23.JPG,,,,,0,9,9,8,,,,,,,,,,,,,,,,,,,AMNE11.jpg,AMSA16.jpg,AMNE05.jpg,AMSA06.jpg,AMNE11.jpg,MN,1,num_8,16,num_8,0.966590426629,,,2017_Aug_02_1729,59.988051602,FEMA4ImagesEEG,001,101117,
AMNE22.JPG,AMSA24.JPG,AMSA22.JPG,AMNE25.JPG,AMNE24.JPG,AMSA25.JPG,,,,,,,,,0,0,0,7,,,,,,,,,,,,,,,AFNE02.jpg,AFSA15.jpg,AFSA04.jpg,AFNE18.jpg,AFSA15.jpg,FS,4,num_6,16,num_6,0.666788547765,,,2017_Aug_02_1729,59.988051602,FEMA4ImagesEEG,001,101117,
AFSA21.JPG,AFNE22.JPG,AFNE21.JPG,AFSA23.JPG,AFSA22.JPG,AFNE23.JPG,,,,,,,,,0,1,1,0,,,,,,,,,,,,,,,AFNE06.jpg,AFNE18.jpg,AFSA10.jpg,AFSA19.jpg,AFSA10.jpg,FS,4,num_2,32,num_8,2.31664747046,,,2017_Aug_02_1729,59.988051602,FEMA4ImagesEEG,001,101117,
AFNE22.JPG,AFSA24.JPG,AFSA22.JPG,AFNE25.JPG,AFNE24.JPG,AFSA25.JPG,,,,,,,,,0,2,2,6,,,,,,,,,,,,,,,AFNE15.jpg,AFSA12.jpg,AFSA01.jpg,AFNE18.jpg,AFNE18.jpg,FN,3,num_4,16,num_4,1.21671062405,,,2017_Aug_02_1729,59.988051602,FEMA4ImagesEEG,001,101117,
AMSA21.JPG,AMNE23.JPG,AMNE21.JPG,AMSA25.JPG,AMNE25.JPG,AMSA23.JPG,,,,,,,,,0,3,3,5,,,,,,,,,,,,,,,AFSA12.jpg,AFNE07.jpg,AFSA04.jpg,AFNE02.jpg,AFSA04.jpg,FS,4,num_2,16,num_2,1.15011535422,,,2017_Aug_02_1729,59.988051602,FEMA4ImagesEEG,001,101117,
AMSA25.JPG,AMNE24.JPG,AMSA24.JPG,AMNE26.JPG,AMSA21.JPG,AMNE25.JPG,,,,,,,,,0,4,4,3,,,,,,,,,,,,,,,AFNE08.jpg,AFSA02.jpg,AFNE20.jpg,AFSA17.jpg,AFNE08.jpg,FN,3,num_8,32,num_2,2.31637548259,,,2017_Aug_02_1729,59.988051602,FEMA4ImagesEEG,001,101117,
AFSA25.JPG,AFNE24.JPG,AFSA24.JPG,AFNE21.JPG,AFSA21.JPG,AFNE25.JPG,,,,,,,,,0,5,5,2,,,,,,,,,,,,,,,AFSA07.jpg,AFNE01.jpg,AFNE19.jpg,AFSA20.jpg,AFSA20.jpg,FS,4,num_4,16,num_4,1.75009758514,,,2017_Aug_02_1729,59.988051602,FEMA4ImagesEEG,001,101117,
AMSA21.JPG,AMNE22.JPG,AMNE21.JPG,AMSA23.JPG,AMSA22.JPG,AMNE23.JPG,,,,,,,,,0,6,6,1,,,,,,,,,,,,,,,AFSA15.jpg,AFNE13.jpg,AFSA19.jpg,AFNE02.jpg,AFSA15.jpg,FS,4,num_8,16,num_8,0.866795347538,,,2017_Aug_02_1729,59.988051602,FEMA4ImagesEEG,001,101117,
AMNE23.JPG,AMNE24.JPG,AMNE22.JPG,AMSA24.JPG,AMSA22.JPG,AMSA23.JPG,,,,,,,,,0,7,7,9,,,,,,,,,,,,,,,AFNE12.jpg,AFNE05.jpg,AFSA13.jpg,AFSA05.jpg,AFSA05.jpg,FS,4,num_4,32,num_6,0.933317167917,,,2017_Aug_02_1729,59.988051602,FEMA4ImagesEEG,001,101117,
AFSA21.JPG,AFNE23.JPG,AFNE21.JPG,AFSA25.JPG,AFNE25.JPG,AFSA23.JPG,,,,,,,,,0,8,8,4,,,,,,,,,,,,,,,AFSA07.jpg,AFNE06.jpg,AFSA06.jpg,AFNE01.jpg,AFSA06.jpg,FS,4,num_2,32,num_4,1.53343218542,,,2017_Aug_02_1729,59.988051602,FEMA4ImagesEEG,001,101117,
AFNE23.JPG,AFNE24.JPG,AFNE22.JPG,AFSA24.JPG,AFSA22.JPG,AFSA23.JPG,,,,,,,,,0,9,9,8,,,,,,,,,,,,,,,AFSA04.jpg,AFNE02.jpg,AFNE17.jpg,AFSA18.jpg,AFNE17.jpg,FN,3,num_2,16,num_2,1.53348959796,,,2017_Aug_02_1729,59.988051602,FEMA4ImagesEEG,001,101117,
AFNE23.JPG,AFNE24.JPG,AFNE22.JPG,AFSA24.JPG,AFSA22.JPG,AFSA23.JPG,,,,,,,,,,,,,0,0,0,8,,,,,,,,,,,AMNE10.jpg,AMNE19.jpg,AMSA17.jpg,AMSA16.jpg,AMSA16.jpg,MS,2,num_4,32,num_8,0.800146834692,,,2017_Aug_02_1729,59.988051602,FEMA4ImagesEEG,001,101117,
AFSA25.JPG,AFNE24.JPG,AFSA24.JPG,AFNE21.JPG,AFSA21.JPG,AFNE25.JPG,,,,,,,,,,,,,0,1,1,2,,,,,,,,,,,AMNE15.jpg,AMSA06.jpg,AMSA19.jpg,AMNE01.jpg,AMSA06.jpg,MS,2,num_6,32,num_2,1.33348921291,,,2017_Aug_02_1729,59.988051602,FEMA4ImagesEEG,001,101117,
AMNE22.JPG,AMSA24.JPG,AMSA22.JPG,AMNE25.JPG,AMNE24.JPG,AMSA25.JPG,,,,,,,,,,,,,0,2,2,7,,,,,,,,,,,AMNE17.jpg,AMSA14.jpg,AMSA16.jpg,AMNE18.jpg,AMSA14.jpg,MS,2,num_6,16,num_6,0.366818922106,,,2017_Aug_02_1729,59.988051602,FEMA4ImagesEEG,001,101117,
AMSA21.JPG,AMNE22.JPG,AMNE21.JPG,AMSA23.JPG,AMSA22.JPG,AMNE23.JPG,,,,,,,,,,,,,0,3,3,1,,,,,,,,,,,AMNE02.jpg,AMSA16.jpg,AMNE17.jpg,AMSA15.jpg,AMSA16.jpg,MS,2,num_6,32,num_4,1.73335110233,,,2017_Aug_02_1729,59.988051602,FEMA4ImagesEEG,001,101117,
AFSA21.JPG,AFNE23.JPG,AFNE21.JPG,AFSA25.JPG,AFNE25.JPG,AFSA23.JPG,,,,,,,,,,,,,0,4,4,4,,,,,,,,,,,AMSA20.jpg,AMSA01.jpg,AMNE04.jpg,AMNE12.jpg,AMNE12.jpg,MN,1,num_4,16,num_4,1.3500955326,,,2017_Aug_02_1729,59.988051602,FEMA4ImagesEEG,001,101117,
AMSA21.JPG,AMNE23.JPG,AMNE21.JPG,AMSA25.JPG,AMNE25.JPG,AMSA23.JPG,,,,,,,,,,,,,0,5,5,5,,,,,,,,,,,AMSA07.jpg,AMNE17.jpg,AMSA03.jpg,AMNE16.jpg,AMSA03.jpg,MS,2,num_2,16,num_2,1.78340035211,,,2017_Aug_02_1729,59.988051602,FEMA4ImagesEEG,001,101117,
AFSA21.JPG,AFNE22.JPG,AFNE21.JPG,AFSA23.JPG,AFSA22.JPG,AFNE23.JPG,,,,,,,,,,,,,0,6,6,0,,,,,,,,,,,AMNE04.jpg,AMNE17.jpg,AMSA09.jpg,AMSA14.jpg,AMSA14.jpg,MS,2,num_4,16,num_4,0.466825689655,,,2017_Aug_02_1729,59.988051602,FEMA4ImagesEEG,001,101117,
AMSA25.JPG,AMNE24.JPG,AMSA24.JPG,AMNE26.JPG,AMSA21.JPG,AMNE25.JPG,,,,,,,,,,,,,0,7,7,3,,,,,,,,,,,AMNE14.jpg,AMSA04.jpg,AMSA07.jpg,AMNE09.jpg,AMSA04.jpg,MS,2,num_6,16,num_6,1.01687894855,,,2017_Aug_02_1729,59.988051602,FEMA4ImagesEEG,001,101117,
AMNE23.JPG,AMNE24.JPG,AMNE22.JPG,AMSA24.JPG,AMSA22.JPG,AMSA23.JPG,,,,,,,,,,,,,0,8,8,9,,,,,,,,,,,AMSA14.jpg,AMSA01.jpg,AMNE02.jpg,AMNE16.jpg,AMSA01.jpg,MS,2,num_6,32,num_8,3.99992655055,,,2017_Aug_02_1729,59.988051602,FEMA4ImagesEEG,001,101117,
AFNE22.JPG,AFSA24.JPG,AFSA22.JPG,AFNE25.JPG,AFNE24.JPG,AFSA25.JPG,,,,,,,,,,,,,0,9,9,6,,,,,,,,,,,AMSA15.jpg,AMNE13.jpg,AMNE06.jpg,AMSA14.jpg,AMNE13.jpg,MN,1,num_6,16,num_6,1.00018442562,,,2017_Aug_02_1729,59.988051602,FEMA4ImagesEEG,001,101117,
AMNE23.JPG,AMNE24.JPG,AMNE22.JPG,AMSA24.JPG,AMSA22.JPG,AMSA23.JPG,,,,,,,,,,,,,,,,,0,0,0,9,,,,,,,AFSA10.jpg,AFNE06.jpg,AFNE20.jpg,AFSA01.jpg,AFNE20.jpg,FN,3,num_2,16,num_2,0.933467274532,,,2017_Aug_02_1729,59.988051602,FEMA4ImagesEEG,001,101117,
AFNE22.JPG,AFSA24.JPG,AFSA22.JPG,AFNE25.JPG,AFNE24.JPG,AFSA25.JPG,,,,,,,,,,,,,,,,,0,1,1,6,,,,,,,AFSA10.jpg,AFNE07.jpg,AFNE10.jpg,AFSA08.jpg,AFSA10.jpg,FS,4,num_8,16,num_8,2.38336975337,,,2017_Aug_02_1729,59.988051602,FEMA4ImagesEEG,001,101117,
AFSA25.JPG,AFNE24.JPG,AFSA24.JPG,AFNE21.JPG,AFSA21.JPG,AFNE25.JPG,,,,,,,,,,,,,,,,,0,2,2,2,,,,,,,AFSA15.jpg,AFSA17.jpg,AFNE04.jpg,AFNE01.jpg,AFNE01.jpg,FN,3,num_4,32,num_2,2.91651551775,,,2017_Aug_02_1729,59.988051602,FEMA4ImagesEEG,001,101117,
AFNE23.JPG,AFNE24.JPG,AFNE22.JPG,AFSA24.JPG,AFSA22.JPG,AFSA23.JPG,,,,,,,,,,,,,,,,,0,3,3,8,,,,,,,AFNE03.jpg,AFSA18.jpg,AFSA10.jpg,AFNE11.jpg,AFNE03.jpg,FN,3,num_8,16,num_8,0.716767234728,,,2017_Aug_02_1729,59.988051602,FEMA4ImagesEEG,001,101117,
AMNE22.JPG,AMSA24.JPG,AMSA22.JPG,AMNE25.JPG,AMNE24.JPG,AMSA25.JPG,,,,,,,,,,,,,,,,,0,4,4,7,,,,,,,AFSA01.jpg,AFNE10.jpg,AFSA13.jpg,AFNE14.jpg,AFSA13.jpg,FS,4,num_2,16,num_2,0.933492292184,,,2017_Aug_02_1729,59.988051602,FEMA4ImagesEEG,001,101117,
AMSA21.JPG,AMNE22.JPG,AMNE21.JPG,AMSA23.JPG,AMSA22.JPG,AMNE23.JPG,,,,,,,,,,,,,,,,,0,5,5,1,,,,,,,AFSA20.jpg,AFNE15.jpg,AFNE19.jpg,AFSA17.jpg,AFNE15.jpg,FN,3,num_6,16,num_6,1.05013071769,,,2017_Aug_02_1729,59.988051602,FEMA4ImagesEEG,001,101117,
AFSA21.JPG,AFNE22.JPG,AFNE21.JPG,AFSA23.JPG,AFSA22.JPG,AFNE23.JPG,,,,,,,,,,,,,,,,,0,6,6,0,,,,,,,AFNE06.jpg,AFNE07.jpg,AFSA14.jpg,AFSA04.jpg,AFNE06.jpg,FN,3,num_8,32,num_2,1.48341853777,,,2017_Aug_02_1729,59.988051602,FEMA4ImagesEEG,001,101117,
AMSA21.JPG,AMNE23.JPG,AMNE21.JPG,AMSA25.JPG,AMNE25.JPG,AMSA23.JPG,,,,,,,,,,,,,,,,,0,7,7,5,,,,,,,AFSA17.jpg,AFNE09.jpg,AFSA06.jpg,AFNE13.jpg,AFSA06.jpg,FS,4,num_2,32,num_4,0.633522024611,,,2017_Aug_02_1729,59.988051602,FEMA4ImagesEEG,001,101117,
AMSA25.JPG,AMNE24.JPG,AMSA24.JPG,AMNE26.JPG,AMSA21.JPG,AMNE25.JPG,,,,,,,,,,,,,,,,,0,8,8,3,,,,,,,AFNE01.jpg,AFSA15.jpg,AFNE20.jpg,AFSA10.jpg,AFSA15.jpg,FS,4,num_6,16,num_6,0.966722892597,,,2017_Aug_02_1729,59.988051602,FEMA4ImagesEEG,001,101117,
AFSA21.JPG,AFNE23.JPG,AFNE21.JPG,AFSA25.JPG,AFNE25.JPG,AFSA23.JPG,,,,,,,,,,,,,,,,,0,9,9,4,,,,,,,AFNE06.jpg,AFSA10.jpg,AFSA15.jpg,AFNE09.jpg,AFNE06.jpg,FN,3,num_8,32,num_6,0.866814591922,,,2017_Aug_02_1729,59.988051602,FEMA4ImagesEEG,001,101117,
AMSA21.JPG,AMNE23.JPG,AMNE21.JPG,AMSA25.JPG,AMNE25.JPG,AMSA23.JPG,,,,,,,,,,,,,,,,,,,,,0,0,0,5,,,AMSA12.jpg,AMNE15.jpg,AMNE20.jpg,AMSA02.jpg,AMSA02.jpg,MS,2,num_4,16,num_4,0.6834805049,,,2017_Aug_02_1729,59.988051602,FEMA4ImagesEEG,001,101117,
AFSA21.JPG,AFNE22.JPG,AFNE21.JPG,AFSA23.JPG,AFSA22.JPG,AFNE23.JPG,,,,,,,,,,,,,,,,,,,,,0,1,1,0,,,AMNE01.jpg,AMNE19.jpg,AMSA09.jpg,AMSA06.jpg,AMSA09.jpg,MS,2,num_2,16,num_2,1.23347763438,,,2017_Aug_02_1729,59.988051602,FEMA4ImagesEEG,001,101117,
AMSA21.JPG,AMNE22.JPG,AMNE21.JPG,AMSA23.JPG,AMSA22.JPG,AMNE23.JPG,,,,,,,,,,,,,,,,,,,,,0,2,2,1,,,AMNE10.jpg,AMSA15.jpg,AMSA16.jpg,AMNE13.jpg,AMSA15.jpg,MS,2,num_6,16,num_6,0.50017239782,,,2017_Aug_02_1729,59.988051602,FEMA4ImagesEEG,001,101117,
AMSA25.JPG,AMNE24.JPG,AMSA24.JPG,AMNE26.JPG,AMSA21.JPG,AMNE25.JPG,,,,,,,,,,,,,,,,,,,,,0,3,3,3,,,AMNE15.jpg,AMSA20.jpg,AMNE11.jpg,AMSA06.jpg,AMNE15.jpg,MN,1,num_8,16,num_8,0.866764877224,,,2017_Aug_02_1729,59.988051602,FEMA4ImagesEEG,001,101117,
AFSA25.JPG,AFNE24.JPG,AFSA24.JPG,AFNE21.JPG,AFSA21.JPG,AFNE25.JPG,,,,,,,,,,,,,,,,,,,,,0,4,4,2,,,AMSA04.jpg,AMNE06.jpg,AMNE08.jpg,AMSA14.jpg,AMNE08.jpg,MN,1,num_2,16,num_2,1.1001212718,,,2017_Aug_02_1729,59.988051602,FEMA4ImagesEEG,001,101117,
AMNE23.JPG,AMNE24.JPG,AMNE22.JPG,AMSA24.JPG,AMSA22.JPG,AMSA23.JPG,,,,,,,,,,,,,,,,,,,,,0,5,5,9,,,AMNE20.jpg,AMSA01.jpg,AMNE07.jpg,AMSA13.jpg,AMNE07.jpg,MN,1,num_2,32,num_8,1.36676567909,,,2017_Aug_02_1729,59.988051602,FEMA4ImagesEEG,001,101117,
AMNE22.JPG,AMSA24.JPG,AMSA22.JPG,AMNE25.JPG,AMNE24.JPG,AMSA25.JPG,,,,,,,,,,,,,,,,,,,,,0,6,6,7,,,AMNE09.jpg,AMSA15.jpg,AMSA10.jpg,AMNE02.jpg,AMNE02.jpg,MN,1,num_4,16,num_4,2.38337937556,,,2017_Aug_02_1729,59.988051602,FEMA4ImagesEEG,001,101117,
AFSA21.JPG,AFNE23.JPG,AFNE21.JPG,AFSA25.JPG,AFNE25.JPG,AFSA23.JPG,,,,,,,,,,,,,,,,,,,,,0,7,7,4,,,AMSA20.jpg,AMNE06.jpg,AMNE17.jpg,AMSA18.jpg,AMNE06.jpg,MN,1,num_6,16,num_6,0.666839866433,,,2017_Aug_02_1729,59.988051602,FEMA4ImagesEEG,001,101117,
AFNE23.JPG,AFNE24.JPG,AFNE22.JPG,AFSA24.JPG,AFSA22.JPG,AFSA23.JPG,,,,,,,,,,,,,,,,,,,,,0,8,8,8,,,AMSA14.jpg,AMNE03.jpg,AMSA04.jpg,AMNE01.jpg,AMSA04.jpg,MS,2,num_2,16,num_2,0.500239432557,,,2017_Aug_02_1729,59.988051602,FEMA4ImagesEEG,001,101117,
AFNE22.JPG,AFSA24.JPG,AFSA22.JPG,AFNE25.JPG,AFNE24.JPG,AFSA25.JPG,,,,,,,,,,,,,,,,,,,,,0,9,9,6,,,AMSA04.jpg,AMNE20.jpg,AMNE12.jpg,AMSA20.jpg,AMSA04.jpg,MS,2,num_8,16,num_8,0.650164587656,,,2017_Aug_02_1729,59.988051602,FEMA4ImagesEEG,001,101117,
,,,,,,,,,,,,,,,,,,,,,,,,,,,,,,,,,,,,,,,,,,,space,13.3324455246,2017_Aug_02_1729,59.988051602,FEMA4ImagesEEG,001,101117,
AFNE01.JPG,AFNE01.JPG,AFNE01.JPG,AFNE01.JPG,AFNE01.JPG,AFNE01.JPG,0,0,0,1,,,,,,,,,,,,,,,,,,,,,,,AFSA04.jpg,AFSA16.jpg,AFNE11.jpg,AFNE14.jpg,AFNE14.jpg,FN,3,num_4,32,num_8,1.18347264687,,,2017_Aug_02_1729,59.988051602,FEMA4ImagesEEG,001,101117,
AFNE01.JPG,AFNE01.JPG,AFNE01.JPG,AFNE01.JPG,AFNE01.JPG,AFNE01.JPG,0,1,1,2,,,,,,,,,,,,,,,,,,,,,,,AFSA20.jpg,AFNE20.jpg,AFNE06.jpg,AFSA03.jpg,AFNE06.jpg,FN,3,num_2,16,num_2,0.900112226838,,,2017_Aug_02_1729,59.988051602,FEMA4ImagesEEG,001,101117,
AFNE01.JPG,AFNE01.JPG,AFNE01.JPG,AFNE01.JPG,AFNE01.JPG,AFNE01.JPG,0,2,2,7,,,,,,,,,,,,,,,,,,,,,,,AFNE04.jpg,AFNE06.jpg,AFSA15.jpg,AFSA09.jpg,AFNE04.jpg,FN,3,num_8,32,num_6,0.733421023469,,,2017_Aug_02_1729,59.988051602,FEMA4ImagesEEG,001,101117,
AFNE01.JPG,AFNE01.JPG,AFNE01.JPG,AFNE01.JPG,AFNE01.JPG,AFNE01.JPG,0,3,3,9,,,,,,,,,,,,,,,,,,,,,,,AFSA20.jpg,AFSA11.jpg,AFNE04.jpg,AFNE18.jpg,AFSA11.jpg,FS,4,num_6,16,num_6,0.533522954909,,,2017_Aug_02_1729,59.988051602,FEMA4ImagesEEG,001,101117,
AFNE01.JPG,AFNE01.JPG,AFNE01.JPG,AFNE01.JPG,AFNE01.JPG,AFNE01.JPG,0,4,4,4,,,,,,,,,,,,,,,,,,,,,,,AFSA08.jpg,AFSA04.jpg,AFNE13.jpg,AFNE19.jpg,AFNE13.jpg,FN,3,num_2,32,num_8,1.90008336026,,,2017_Aug_02_1729,59.988051602,FEMA4ImagesEEG,001,101117,
AFNE01.JPG,AFNE01.JPG,AFNE01.JPG,AFNE01.JPG,AFNE01.JPG,AFNE01.JPG,0,5,5,8,,,,,,,,,,,,,,,,,,,,,,,AFSA03.jpg,AFSA09.jpg,AFNE10.jpg,AFNE08.jpg,AFSA09.jpg,FS,4,num_6,16,num_6,0.983498883434,,,2017_Aug_02_1729,59.988051602,FEMA4ImagesEEG,001,101117,
AFNE01.JPG,AFNE01.JPG,AFNE01.JPG,AFNE01.JPG,AFNE01.JPG,AFNE01.JPG,0,6,6,0,,,,,,,,,,,,,,,,,,,,,,,AFNE19.jpg,AFSA13.jpg,AFNE16.jpg,AFSA17.jpg,AFNE19.jpg,FN,3,num_8,32,num_6,1.53335905657,,,2017_Aug_02_1729,59.988051602,FEMA4ImagesEEG,001,101117,
AFNE01.JPG,AFNE01.JPG,AFNE01.JPG,AFNE01.JPG,AFNE01.JPG,AFNE01.JPG,0,7,7,6,,,,,,,,,,,,,,,,,,,,,,,AFNE07.jpg,AFSA11.jpg,AFSA20.jpg,AFNE02.jpg,AFSA20.jpg,FS,4,num_2,16,num_2,0.966560597997,,,2017_Aug_02_1729,59.988051602,FEMA4ImagesEEG,001,101117,
AFNE01.JPG,AFNE01.JPG,AFNE01.JPG,AFNE01.JPG,AFNE01.JPG,AFNE01.JPG,0,8,8,3,,,,,,,,,,,,,,,,,,,,,,,AFSA14.jpg,AFSA08.jpg,AFNE14.jpg,AFNE07.jpg,AFSA14.jpg,FS,4,num_8,32,num_6,1.29993755184,,,2017_Aug_02_1729,59.988051602,FEMA4ImagesEEG,001,101117,
AFNE01.JPG,AFNE01.JPG,AFNE01.JPG,AFNE01.JPG,AFNE01.JPG,AFNE01.JPG,0,9,9,5,,,,,,,,,,,,,,,,,,,,,,,AFSA10.jpg,AFSA19.jpg,AFNE15.jpg,AFNE16.jpg,AFNE16.jpg,FN,3,num_4,32,num_8,0.816808962962,,,2017_Aug_02_1729,59.988051602,FEMA4ImagesEEG,001,101117,
AFNE01.JPG,AFNE01.JPG,AFNE01.JPG,AFNE01.JPG,AFNE01.JPG,AFNE01.JPG,1,0,10,6,,,,,,,,,,,,,,,,,,,,,,,AFSA03.jpg,AFSA07.jpg,AFNE15.jpg,AFNE04.jpg,AFSA03.jpg,FS,4,num_8,16,num_8,0.566796213621,,,2017_Aug_02_1729,59.988051602,FEMA4ImagesEEG,001,101117,
AFNE01.JPG,AFNE01.JPG,AFNE01.JPG,AFNE01.JPG,AFNE01.JPG,AFNE01.JPG,1,1,11,1,,,,,,,,,,,,,,,,,,,,,,,AFSA01.jpg,AFSA05.jpg,AFNE02.jpg,AFNE03.jpg,AFSA05.jpg,FS,4,num_6,32,num_4,1.00011161738,,,2017_Aug_02_1729,59.988051602,FEMA4ImagesEEG,001,101117,
AFNE01.JPG,AFNE01.JPG,AFNE01.JPG,AFNE01.JPG,AFNE01.JPG,AFNE01.JPG,1,2,12,2,,,,,,,,,,,,,,,,,,,,,,,AFSA14.jpg,AFNE20.jpg,AFSA15.jpg,AFNE01.jpg,AFNE20.jpg,FN,3,num_6,32,num_8,1.15013235342,,,2017_Aug_02_1729,59.988051602,FEMA4ImagesEEG,001,101117,
AFNE01.JPG,AFNE01.JPG,AFNE01.JPG,AFNE01.JPG,AFNE01.JPG,AFNE01.JPG,1,3,13,5,,,,,,,,,,,,,,,,,,,,,,,AFNE14.jpg,AFNE09.jpg,AFSA07.jpg,AFSA06.jpg,AFNE14.jpg,FN,3,num_8,16,num_8,1.36673617107,,,2017_Aug_02_1729,59.988051602,FEMA4ImagesEEG,001,101117,
AFNE01.JPG,AFNE01.JPG,AFNE01.JPG,AFNE01.JPG,AFNE01.JPG,AFNE01.JPG,1,4,14,8,,,,,,,,,,,,,,,,,,,,,,,AFNE15.jpg,AFSA20.jpg,AFSA13.jpg,AFNE14.jpg,AFSA13.jpg,FS,4,num_2,16,num_2,0.700110238278,,,2017_Aug_02_1729,59.988051602,FEMA4ImagesEEG,001,101117,
AFNE01.JPG,AFNE01.JPG,AFNE01.JPG,AFNE01.JPG,AFNE01.JPG,AFNE01.JPG,1,5,15,3,,,,,,,,,,,,,,,,,,,,,,,AFSA10.jpg,AFNE02.jpg,AFSA07.jpg,AFNE15.jpg,AFSA10.jpg,FS,4,num_8,16,num_8,1.55006480543,,,2017_Aug_02_1729,59.988051602,FEMA4ImagesEEG,001,101117,
AFNE01.JPG,AFNE01.JPG,AFNE01.JPG,AFNE01.JPG,AFNE01.JPG,AFNE01.JPG,1,6,16,7,,,,,,,,,,,,,,,,,,,,,,,AFNE11.jpg,AFNE01.jpg,AFSA19.jpg,AFSA16.jpg,AFSA16.jpg,FS,4,num_4,32,num_2,1.51676909509,,,2017_Aug_02_1729,59.988051602,FEMA4ImagesEEG,001,101117,
AFNE01.JPG,AFNE01.JPG,AFNE01.JPG,AFNE01.JPG,AFNE01.JPG,AFNE01.JPG,1,7,17,4,,,,,,,,,,,,,,,,,,,,,,,AFSA13.jpg,AFSA18.jpg,AFNE15.jpg,AFNE05.jpg,AFNE15.jpg,FN,3,num_2,16,num_2,1.56699892133,,,2017_Aug_02_1729,59.988051602,FEMA4ImagesEEG,001,101117,
AFNE01.JPG,AFNE01.JPG,AFNE01.JPG,AFNE01.JPG,AFNE01.JPG,AFNE01.JPG,1,8,18,0,,,,,,,,,,,,,,,,,,,,,,,AFNE13.jpg,AFSA14.jpg,AFNE07.jpg,AFSA19.jpg,AFSA19.jpg,FS,4,num_4,32,num_8,0.900016004918,,,2017_Aug_02_1729,59.988051602,FEMA4ImagesEEG,001,101117,
AFNE01.JPG,AFNE01.JPG,AFNE01.JPG,AFNE01.JPG,AFNE01.JPG,AFNE01.JPG,1,9,19,9,,,,,,,,,,,,,,,,,,,,,,,AFNE20.jpg,AFNE14.jpg,AFSA16.jpg,AFSA17.jpg,AFNE14.jpg,FN,3,num_6,32,num_8,1.53337445226,,,2017_Aug_02_1729,59.988051602,FEMA4ImagesEEG,001,101117,
AFNE01.JPG,AFNE01.JPG,AFNE01.JPG,AFNE01.JPG,AFNE01.JPG,AFNE01.JPG,2,0,20,1,,,,,,,,,,,,,,,,,,,,,,,AFNE01.jpg,AFSA04.jpg,AFSA06.jpg,AFNE05.jpg,AFNE01.jpg,FN,3,num_8,16,num_8,1.40010116133,,,2017_Aug_02_1729,59.988051602,FEMA4ImagesEEG,001,101117,
AFNE01.JPG,AFNE01.JPG,AFNE01.JPG,AFNE01.JPG,AFNE01.JPG,AFNE01.JPG,2,1,21,4,,,,,,,,,,,,,,,,,,,,,,,AFNE10.jpg,AFSA17.jpg,AFNE16.jpg,AFSA18.jpg,AFSA17.jpg,FS,4,num_6,32,num_4,1.40007646452,,,2017_Aug_02_1729,59.988051602,FEMA4ImagesEEG,001,101117,
AFNE01.JPG,AFNE01.JPG,AFNE01.JPG,AFNE01.JPG,AFNE01.JPG,AFNE01.JPG,2,2,22,9,,,,,,,,,,,,,,,,,,,,,,,AFNE16.jpg,AFNE13.jpg,AFSA12.jpg,AFSA16.jpg,AFSA16.jpg,FS,4,num_4,32,num_8,0.916807712056,,,2017_Aug_02_1729,59.988051602,FEMA4ImagesEEG,001,101117,
AFNE01.JPG,AFNE01.JPG,AFNE01.JPG,AFNE01.JPG,AFNE01.JPG,AFNE01.JPG,2,3,23,5,,,,,,,,,,,,,,,,,,,,,,,AFSA06.jpg,AFSA07.jpg,AFNE10.jpg,AFNE06.jpg,AFSA07.jpg,FS,4,num_6,16,num_6,1.33342698961,,,2017_Aug_02_1729,59.988051602,FEMA4ImagesEEG,001,101117,
AFNE01.JPG,AFNE01.JPG,AFNE01.JPG,AFNE01.JPG,AFNE01.JPG,AFNE01.JPG,2,4,24,0,,,,,,,,,,,,,,,,,,,,,,,AFSA02.jpg,AFSA10.jpg,AFNE18.jpg,AFNE19.jpg,AFNE18.jpg,FN,3,num_2,32,num_8,2.35006345832,,,2017_Aug_02_1729,59.988051602,FEMA4ImagesEEG,001,101117,
AFNE01.JPG,AFNE01.JPG,AFNE01.JPG,AFNE01.JPG,AFNE01.JPG,AFNE01.JPG,2,5,25,6,,,,,,,,,,,,,,,,,,,,,,,AFSA11.jpg,AFSA17.jpg,AFNE01.jpg,AFNE02.jpg,AFSA11.jpg,FS,4,num_8,16,num_8,1.65005040425,,,2017_Aug_02_1729,59.988051602,FEMA4ImagesEEG,001,101117,
AFNE01.JPG,AFNE01.JPG,AFNE01.JPG,AFNE01.JPG,AFNE01.JPG,AFNE01.JPG,2,6,26,8,,,,,,,,,,,,,,,,,,,,,,,AFNE01.jpg,AFSA01.jpg,AFSA15.jpg,AFNE18.jpg,AFNE01.jpg,FN,3,num_8,16,num_8,1.0000898072,,,2017_Aug_02_1729,59.988051602,FEMA4ImagesEEG,001,101117,
AFNE01.JPG,AFNE01.JPG,AFNE01.JPG,AFNE01.JPG,AFNE01.JPG,AFNE01.JPG,2,7,27,2,,,,,,,,,,,,,,,,,,,,,,,AFSA18.jpg,AFSA12.jpg,AFNE01.jpg,AFNE12.jpg,AFSA12.jpg,FS,4,num_6,16,num_6,1.0501210955,,,2017_Aug_02_1729,59.988051602,FEMA4ImagesEEG,001,101117,
AFNE01.JPG,AFNE01.JPG,AFNE01.JPG,AFNE01.JPG,AFNE01.JPG,AFNE01.JPG,2,8,28,7,,,,,,,,,,,,,,,,,,,,,,,AFSA16.jpg,AFSA11.jpg,AFNE05.jpg,AFNE10.jpg,AFNE10.jpg,FN,3,num_4,16,num_4,0.783512931783,,,2017_Aug_02_1729,59.988051602,FEMA4ImagesEEG,001,101117,
AFNE01.JPG,AFNE01.JPG,AFNE01.JPG,AFNE01.JPG,AFNE01.JPG,AFNE01.JPG,2,9,29,3,,,,,,,,,,,,,,,,,,,,,,,AFSA14.jpg,AFNE16.jpg,AFNE04.jpg,AFSA02.jpg,AFSA14.jpg,FS,4,num_8,16,num_8,0.966869150056,,,2017_Aug_02_1729,59.988051602,FEMA4ImagesEEG,001,101117,
AFNE01.JPG,AFNE01.JPG,AFNE01.JPG,AFNE01.JPG,AFNE01.JPG,AFNE01.JPG,3,0,30,7,,,,,,,,,,,,,,,,,,,,,,,AFNE15.jpg,AFSA09.jpg,AFSA01.jpg,AFNE19.jpg,AFSA09.jpg,FS,4,num_6,32,num_2,1.16675503063,,,2017_Aug_02_1729,59.988051602,FEMA4ImagesEEG,001,101117,
AFNE01.JPG,AFNE01.JPG,AFNE01.JPG,AFNE01.JPG,AFNE01.JPG,AFNE01.JPG,3,1,31,5,,,,,,,,,,,,,,,,,,,,,,,AFSA15.jpg,AFNE09.jpg,AFNE16.jpg,AFSA11.jpg,AFNE16.jpg,FN,3,num_2,16,num_2,0.600100584328,,,2017_Aug_02_1729,59.988051602,FEMA4ImagesEEG,001,101117,
AFNE01.JPG,AFNE01.JPG,AFNE01.JPG,AFNE01.JPG,AFNE01.JPG,AFNE01.JPG,3,2,32,6,,,,,,,,,,,,,,,,,,,,,,,AFNE03.jpg,AFSA09.jpg,AFSA06.jpg,AFNE10.jpg,AFNE10.jpg,FN,3,num_4,16,num_4,0.783502347302,,,2017_Aug_02_1729,59.988051602,FEMA4ImagesEEG,001,101117,
AFNE01.JPG,AFNE01.JPG,AFNE01.JPG,AFNE01.JPG,AFNE01.JPG,AFNE01.JPG,3,3,33,3,,,,,,,,,,,,,,,,,,,,,,,AFSA12.jpg,AFNE02.jpg,AFNE18.jpg,AFSA19.jpg,AFNE02.jpg,FN,3,num_6,16,num_6,0.86682678014,,,2017_Aug_02_1729,59.988051602,FEMA4ImagesEEG,001,101117,
AFNE01.JPG,AFNE01.JPG,AFNE01.JPG,AFNE01.JPG,AFNE01.JPG,AFNE01.JPG,3,4,34,0,,,,,,,,,,,,,,,,,,,,,,,AFNE06.jpg,AFNE12.jpg,AFSA05.jpg,AFSA12.jpg,AFNE12.jpg,FN,3,num_6,32,num_4,0.950145760318,,,2017_Aug_02_1729,59.988051602,FEMA4ImagesEEG,001,101117,
AFNE01.JPG,AFNE01.JPG,AFNE01.JPG,AFNE01.JPG,AFNE01.JPG,AFNE01.JPG,3,5,35,9,,,,,,,,,,,,,,,,,,,,,,,AFSA16.jpg,AFNE18.jpg,AFSA13.jpg,AFNE04.jpg,AFNE04.jpg,FN,3,num_4,16,num_4,0.850109805353,,,2017_Aug_02_1729,59.988051602,FEMA4ImagesEEG,001,101117,
AFNE01.JPG,AFNE01.JPG,AFNE01.JPG,AFNE01.JPG,AFNE01.JPG,AFNE01.JPG,3,6,36,4,,,,,,,,,,,,,,,,,,,,,,,AFSA06.jpg,AFSA13.jpg,AFNE18.jpg,AFNE01.jpg,AFSA06.jpg,FS,4,num_8,16,num_8,1.41677002516,,,2017_Aug_02_1729,59.988051602,FEMA4ImagesEEG,001,101117,
AFNE01.JPG,AFNE01.JPG,AFNE01.JPG,AFNE01.JPG,AFNE01.JPG,AFNE01.JPG,3,7,37,1,,,,,,,,,,,,,,,,,,,,,,,AFNE03.jpg,AFSA03.jpg,AFNE07.jpg,AFSA08.jpg,AFSA08.jpg,FS,4,num_4,32,num_6,1.45010582823,,,2017_Aug_02_1729,59.988051602,FEMA4ImagesEEG,001,101117,
AFNE01.JPG,AFNE01.JPG,AFNE01.JPG,AFNE01.JPG,AFNE01.JPG,AFNE01.JPG,3,8,38,8,,,,,,,,,,,,,,,,,,,,,,,AFSA16.jpg,AFNE18.jpg,AFSA15.jpg,AFNE20.jpg,AFSA16.jpg,FS,4,num_8,32,num_4,0.983475148445,,,2017_Aug_02_1729,59.988051602,FEMA4ImagesEEG,001,101117,
AFNE01.JPG,AFNE01.JPG,AFNE01.JPG,AFNE01.JPG,AFNE01.JPG,AFNE01.JPG,3,9,39,2,,,,,,,,,,,,,,,,,,,,,,,AFSA11.jpg,AFNE06.jpg,AFSA05.jpg,AFNE08.jpg,AFSA11.jpg,FS,4,num_8,32,num_2,0.933504801011,,,2017_Aug_02_1729,59.988051602,FEMA4ImagesEEG,001,101117,
AFNE01.JPG,AFNE01.JPG,AFNE01.JPG,AFNE01.JPG,AFNE01.JPG,AFNE01.JPG,4,0,40,8,,,,,,,,,,,,,,,,,,,,,,,AFNE16.jpg,AFNE14.jpg,AFSA20.jpg,AFSA05.jpg,AFSA20.jpg,FS,4,num_2,32,num_6,0.883470305474,,,2017_Aug_02_1729,59.988051602,FEMA4ImagesEEG,001,101117,
AFNE01.JPG,AFNE01.JPG,AFNE01.JPG,AFNE01.JPG,AFNE01.JPG,AFNE01.JPG,4,1,41,4,,,,,,,,,,,,,,,,,,,,,,,AFNE19.jpg,AFSA04.jpg,AFNE04.jpg,AFSA14.jpg,AFSA04.jpg,FS,4,num_6,32,num_4,0.916747733718,,,2017_Aug_02_1729,59.988051602,FEMA4ImagesEEG,001,101117,
AFNE01.JPG,AFNE01.JPG,AFNE01.JPG,AFNE01.JPG,AFNE01.JPG,AFNE01.JPG,4,2,42,1,,,,,,,,,,,,,,,,,,,,,,,AFSA10.jpg,AFNE16.jpg,AFNE10.jpg,AFSA05.jpg,AFSA10.jpg,FS,4,num_8,32,num_2,1.41675430909,,,2017_Aug_02_1729,59.988051602,FEMA4ImagesEEG,001,101117,
AFNE01.JPG,AFNE01.JPG,AFNE01.JPG,AFNE01.JPG,AFNE01.JPG,AFNE01.JPG,4,3,43,9,,,,,,,,,,,,,,,,,,,,,,,AFSA02.jpg,AFNE20.jpg,AFNE06.jpg,AFSA18.jpg,AFSA02.jpg,FS,4,num_8,32,num_4,1.48344098986,,,2017_Aug_02_1729,59.988051602,FEMA4ImagesEEG,001,101117,
AFNE01.JPG,AFNE01.JPG,AFNE01.JPG,AFNE01.JPG,AFNE01.JPG,AFNE01.JPG,4,4,44,3,,,,,,,,,,,,,,,,,,,,,,,AFSA20.jpg,AFNE09.jpg,AFNE02.jpg,AFSA01.jpg,AFNE09.jpg,FN,3,num_6,32,num_8,0.950124270981,,,2017_Aug_02_1729,59.988051602,FEMA4ImagesEEG,001,101117,
AFNE01.JPG,AFNE01.JPG,AFNE01.JPG,AFNE01.JPG,AFNE01.JPG,AFNE01.JPG,4,5,45,6,,,,,,,,,,,,,,,,,,,,,,,AFSA02.jpg,AFSA06.jpg,AFNE08.jpg,AFNE03.jpg,AFNE08.jpg,FN,3,num_2,16,num_2,0.800135929836,,,2017_Aug_02_1729,59.988051602,FEMA4ImagesEEG,001,101117,
AFNE01.JPG,AFNE01.JPG,AFNE01.JPG,AFNE01.JPG,AFNE01.JPG,AFNE01.JPG,4,6,46,7,,,,,,,,,,,,,,,,,,,,,,,AFSA07.jpg,AFNE17.jpg,AFSA10.jpg,AFNE16.jpg,AFNE17.jpg,FN,3,num_6,16,num_6,1.7164612487,,,2017_Aug_02_1729,59.988051602,FEMA4ImagesEEG,001,101117,
AFNE01.JPG,AFNE01.JPG,AFNE01.JPG,AFNE01.JPG,AFNE01.JPG,AFNE01.JPG,4,7,47,2,,,,,,,,,,,,,,,,,,,,,,,AFSA13.jpg,AFNE18.jpg,AFSA01.jpg,AFNE06.jpg,AFSA13.jpg,FS,4,num_8,32,num_4,1.78338752245,,,2017_Aug_02_1729,59.988051602,FEMA4ImagesEEG,001,101117,
AFNE01.JPG,AFNE01.JPG,AFNE01.JPG,AFNE01.JPG,AFNE01.JPG,AFNE01.JPG,4,8,48,5,,,,,,,,,,,,,,,,,,,,,,,AFSA05.jpg,AFNE06.jpg,AFSA06.jpg,AFNE15.jpg,AFNE15.jpg,FN,3,num_4,32,num_6,0.800131759839,,,2017_Aug_02_1729,59.988051602,FEMA4ImagesEEG,001,101117,
AFNE01.JPG,AFNE01.JPG,AFNE01.JPG,AFNE01.JPG,AFNE01.JPG,AFNE01.JPG,4,9,49,0,,,,,,,,,,,,,,,,,,,,,,,AFNE16.jpg,AFSA12.jpg,AFSA02.jpg,AFNE05.jpg,AFSA02.jpg,FS,4,num_2,32,num_8,4.13337207865,,,2017_Aug_02_1729,59.988051602,FEMA4ImagesEEG,001,101117,
AFNE01.JPG,AFNE01.JPG,AFNE01.JPG,AFNE01.JPG,AFNE01.JPG,AFNE01.JPG,5,0,50,2,,,,,,,,,,,,,,,,,,,,,,,AFNE03.jpg,AFSA11.jpg,AFSA07.jpg,AFNE04.jpg,AFSA11.jpg,FS,4,num_6,16,num_6,0.633527477272,,,2017_Aug_02_1729,59.988051602,FEMA4ImagesEEG,001,101117,
AFNE01.JPG,AFNE01.JPG,AFNE01.JPG,AFNE01.JPG,AFNE01.JPG,AFNE01.JPG,5,1,51,9,,,,,,,,,,,,,,,,,,,,,,,AFNE19.jpg,AFNE09.jpg,AFSA05.jpg,AFSA20.jpg,AFNE09.jpg,FN,3,num_6,32,num_4,1.21660349704,,,2017_Aug_02_1729,59.988051602,FEMA4ImagesEEG,001,101117,
AFNE01.JPG,AFNE01.JPG,AFNE01.JPG,AFNE01.JPG,AFNE01.JPG,AFNE01.JPG,5,2,52,6,,,,,,,,,,,,,,,,,,,,,,,AFNE19.jpg,AFNE08.jpg,AFSA01.jpg,AFSA19.jpg,AFSA19.jpg,FS,4,num_4,32,num_2,0.850155991968,,,2017_Aug_02_1729,59.988051602,FEMA4ImagesEEG,001,101117,
AFNE01.JPG,AFNE01.JPG,AFNE01.JPG,AFNE01.JPG,AFNE01.JPG,AFNE01.JPG,5,3,53,5,,,,,,,,,,,,,,,,,,,,,,,AFNE18.jpg,AFSA05.jpg,AFNE19.jpg,AFSA11.jpg,AFSA05.jpg,FS,4,num_6,32,num_8,1.50005308236,,,2017_Aug_02_1729,59.988051602,FEMA4ImagesEEG,001,101117,
AFNE01.JPG,AFNE01.JPG,AFNE01.JPG,AFNE01.JPG,AFNE01.JPG,AFNE01.JPG,5,4,54,7,,,,,,,,,,,,,,,,,,,,,,,AFNE04.jpg,AFSA05.jpg,AFSA20.jpg,AFNE08.jpg,AFSA20.jpg,FS,4,num_2,16,num_2,1.11674426962,,,2017_Aug_02_1729,59.988051602,FEMA4ImagesEEG,001,101117,
AFNE01.JPG,AFNE01.JPG,AFNE01.JPG,AFNE01.JPG,AFNE01.JPG,AFNE01.JPG,5,5,55,3,,,,,,,,,,,,,,,,,,,,,,,AFSA10.jpg,AFSA17.jpg,AFNE17.jpg,AFNE11.jpg,AFNE17.jpg,FN,3,num_2,16,num_2,1.23345005047,,,2017_Aug_02_1729,59.988051602,FEMA4ImagesEEG,001,101117,
AFNE01.JPG,AFNE01.JPG,AFNE01.JPG,AFNE01.JPG,AFNE01.JPG,AFNE01.JPG,5,6,56,4,,,,,,,,,,,,,,,,,,,,,,,AFNE11.jpg,AFSA03.jpg,AFNE03.jpg,AFSA01.jpg,AFNE03.jpg,FN,3,num_2,32,num_6,0.716780064395,,,2017_Aug_02_1729,59.988051602,FEMA4ImagesEEG,001,101117,
AFNE01.JPG,AFNE01.JPG,AFNE01.JPG,AFNE01.JPG,AFNE01.JPG,AFNE01.JPG,5,7,57,8,,,,,,,,,,,,,,,,,,,,,,,AFNE11.jpg,AFSA18.jpg,AFNE06.jpg,AFSA01.jpg,AFSA18.jpg,FS,4,num_6,32,num_8,2.73328502988,,,2017_Aug_02_1729,59.988051602,FEMA4ImagesEEG,001,101117,
AFNE01.JPG,AFNE01.JPG,AFNE01.JPG,AFNE01.JPG,AFNE01.JPG,AFNE01.JPG,5,8,58,0,,,,,,,,,,,,,,,,,,,,,,,AFSA09.jpg,AFSA10.jpg,AFNE06.jpg,AFNE03.jpg,AFNE06.jpg,FN,3,num_2,16,num_2,2.43342798389,,,2017_Aug_02_1729,59.988051602,FEMA4ImagesEEG,001,101117,
AFNE01.JPG,AFNE01.JPG,AFNE01.JPG,AFNE01.JPG,AFNE01.JPG,AFNE01.JPG,5,9,59,1,,,,,,,,,,,,,,,,,,,,,,,AFNE19.jpg,AFSA02.jpg,AFNE16.jpg,AFSA18.jpg,AFNE16.jpg,FN,3,num_2,32,num_4,1.66667532665,,,2017_Aug_02_1729,59.988051602,FEMA4ImagesEEG,001,101117,
,,,,,,,,,,,,,,,,,,,,,,,,,,,,,,,,,,,,,,,,,,,space,25.6648602583,2017_Aug_02_1729,59.988051602,FEMA4ImagesEEG,001,101117,
AFNE01.JPG,AFNE01.JPG,AFNE01.JPG,AFNE01.JPG,AFNE01.JPG,AFNE01.JPG,,,,,0,0,0,6,,,,,,,,,,,,,,,,,,,AMNE15.jpg,AMNE20.jpg,AMSA19.jpg,AMSA16.jpg,AMSA16.jpg,MS,2,num_4,16,num_4,1.28344830265,,,2017_Aug_02_1729,59.988051602,FEMA4ImagesEEG,001,101117,
AFNE01.JPG,AFNE01.JPG,AFNE01.JPG,AFNE01.JPG,AFNE01.JPG,AFNE01.JPG,,,,,0,1,1,0,,,,,,,,,,,,,,,,,,,AMNE15.jpg,AMSA05.jpg,AMSA11.jpg,AMNE02.jpg,AMSA11.jpg,MS,2,num_2,16,num_2,1.05017145164,,,2017_Aug_02_1729,59.988051602,FEMA4ImagesEEG,001,101117,
AFNE01.JPG,AFNE01.JPG,AFNE01.JPG,AFNE01.JPG,AFNE01.JPG,AFNE01.JPG,,,,,0,2,2,2,,,,,,,,,,,,,,,,,,,AMNE20.jpg,AMNE10.jpg,AMSA01.jpg,AMSA17.jpg,AMSA17.jpg,MS,2,num_4,32,num_8,1.78337469278,,,2017_Aug_02_1729,59.988051602,FEMA4ImagesEEG,001,101117,
AFNE01.JPG,AFNE01.JPG,AFNE01.JPG,AFNE01.JPG,AFNE01.JPG,AFNE01.JPG,,,,,0,3,3,7,,,,,,,,,,,,,,,,,,,AMSA19.jpg,AMNE10.jpg,AMNE17.jpg,AMSA13.jpg,AMNE10.jpg,MN,1,num_6,16,num_6,0.767054152908,,,2017_Aug_02_1729,59.988051602,FEMA4ImagesEEG,001,101117,
AFNE01.JPG,AFNE01.JPG,AFNE01.JPG,AFNE01.JPG,AFNE01.JPG,AFNE01.JPG,,,,,0,4,4,9,,,,,,,,,,,,,,,,,,,AMNE14.jpg,AMSA02.jpg,AMNE12.jpg,AMSA03.jpg,AMSA02.jpg,MS,2,num_6,16,num_6,0.666792076081,,,2017_Aug_02_1729,59.988051602,FEMA4ImagesEEG,001,101117,
AFNE01.JPG,AFNE01.JPG,AFNE01.JPG,AFNE01.JPG,AFNE01.JPG,AFNE01.JPG,,,,,0,5,5,1,,,,,,,,,,,,,,,,,,,AMNE17.jpg,AMSA07.jpg,AMNE15.jpg,AMSA13.jpg,AMNE17.jpg,MN,1,num_8,16,num_8,0.833485845244,,,2017_Aug_02_1729,59.988051602,FEMA4ImagesEEG,001,101117,
AFNE01.JPG,AFNE01.JPG,AFNE01.JPG,AFNE01.JPG,AFNE01.JPG,AFNE01.JPG,,,,,0,6,6,5,,,,,,,,,,,,,,,,,,,AMSA05.jpg,AMNE01.jpg,AMSA04.jpg,AMNE02.jpg,AMSA05.jpg,MS,2,num_8,16,num_8,0.933629248291,,,2017_Aug_02_1729,59.988051602,FEMA4ImagesEEG,001,101117,
AFNE01.JPG,AFNE01.JPG,AFNE01.JPG,AFNE01.JPG,AFNE01.JPG,AFNE01.JPG,,,,,0,7,7,4,,,,,,,,,,,,,,,,,,,AMNE10.jpg,AMNE18.jpg,AMSA18.jpg,AMSA10.jpg,AMSA18.jpg,MS,2,num_2,16,num_2,1.25012276322,,,2017_Aug_02_1729,59.988051602,FEMA4ImagesEEG,001,101117,
AFNE01.JPG,AFNE01.JPG,AFNE01.JPG,AFNE01.JPG,AFNE01.JPG,AFNE01.JPG,,,,,0,8,8,3,,,,,,,,,,,,,,,,,,,AMNE15.jpg,AMSA09.jpg,AMNE03.jpg,AMSA04.jpg,AMNE03.jpg,MN,1,num_2,16,num_2,0.900101321749,,,2017_Aug_02_1729,59.988051602,FEMA4ImagesEEG,001,101117,
AFNE01.JPG,AFNE01.JPG,AFNE01.JPG,AFNE01.JPG,AFNE01.JPG,AFNE01.JPG,,,,,0,9,9,8,,,,,,,,,,,,,,,,,,,AMSA10.jpg,AMNE13.jpg,AMNE19.jpg,AMSA18.jpg,AMSA10.jpg,MS,2,num_8,32,num_6,0.783485989552,,,2017_Aug_02_1729,59.988051602,FEMA4ImagesEEG,001,101117,
AFNE01.JPG,AFNE01.JPG,AFNE01.JPG,AFNE01.JPG,AFNE01.JPG,AFNE01.JPG,,,,,1,0,10,7,,,,,,,,,,,,,,,,,,,AMNE02.jpg,AMSA13.jpg,AMNE14.jpg,AMSA11.jpg,AMSA13.jpg,MS,2,num_6,16,num_6,0.96676939982,,,2017_Aug_02_1729,59.988051602,FEMA4ImagesEEG,001,101117,
AFNE01.JPG,AFNE01.JPG,AFNE01.JPG,AFNE01.JPG,AFNE01.JPG,AFNE01.JPG,,,,,1,1,11,2,,,,,,,,,,,,,,,,,,,AMSA13.jpg,AMSA08.jpg,AMNE18.jpg,AMNE19.jpg,AMNE18.jpg,MN,1,num_2,32,num_4,1.06683069328,,,2017_Aug_02_1729,59.988051602,FEMA4ImagesEEG,001,101117,
AFNE01.JPG,AFNE01.JPG,AFNE01.JPG,AFNE01.JPG,AFNE01.JPG,AFNE01.JPG,,,,,1,2,12,8,,,,,,,,,,,,,,,,,,,AMNE18.jpg,AMSA06.jpg,AMSA04.jpg,AMNE03.jpg,AMNE18.jpg,MN,1,num_8,32,num_6,0.666787265101,,,2017_Aug_02_1729,59.988051602,FEMA4ImagesEEG,001,101117,
AFNE01.JPG,AFNE01.JPG,AFNE01.JPG,AFNE01.JPG,AFNE01.JPG,AFNE01.JPG,,,,,1,3,13,0,,,,,,,,,,,,,,,,,,,AMNE09.jpg,AMSA13.jpg,AMNE15.jpg,AMSA17.jpg,AMSA13.jpg,MS,2,num_6,32,num_4,0.916781090666,,,2017_Aug_02_1729,59.988051602,FEMA4ImagesEEG,001,101117,
AFNE01.JPG,AFNE01.JPG,AFNE01.JPG,AFNE01.JPG,AFNE01.JPG,AFNE01.JPG,,,,,1,4,14,5,,,,,,,,,,,,,,,,,,,AMSA20.jpg,AMNE15.jpg,AMSA02.jpg,AMNE19.jpg,AMSA02.jpg,MS,2,num_2,16,num_2,1.36675060447,,,2017_Aug_02_1729,59.988051602,FEMA4ImagesEEG,001,101117,
AFNE01.JPG,AFNE01.JPG,AFNE01.JPG,AFNE01.JPG,AFNE01.JPG,AFNE01.JPG,,,,,1,5,15,1,,,,,,,,,,,,,,,,,,,AMSA17.jpg,AMSA01.jpg,AMNE06.jpg,AMNE10.jpg,AMNE10.jpg,MN,1,num_4,32,num_2,0.933487480972,,,2017_Aug_02_1729,59.988051602,FEMA4ImagesEEG,001,101117,
AFNE01.JPG,AFNE01.JPG,AFNE01.JPG,AFNE01.JPG,AFNE01.JPG,AFNE01.JPG,,,,,1,6,16,9,,,,,,,,,,,,,,,,,,,AMSA19.jpg,AMSA08.jpg,AMNE12.jpg,AMNE15.jpg,AMSA08.jpg,MS,2,num_6,32,num_8,0.95016179746,,,2017_Aug_02_1729,59.988051602,FEMA4ImagesEEG,001,101117,
AFNE01.JPG,AFNE01.JPG,AFNE01.JPG,AFNE01.JPG,AFNE01.JPG,AFNE01.JPG,,,,,1,7,17,3,,,,,,,,,,,,,,,,,,,AMNE19.jpg,AMSA09.jpg,AMNE12.jpg,AMSA02.jpg,AMNE19.jpg,MN,1,num_8,16,num_8,0.750131262932,,,2017_Aug_02_1729,59.988051602,FEMA4ImagesEEG,001,101117,
AFNE01.JPG,AFNE01.JPG,AFNE01.JPG,AFNE01.JPG,AFNE01.JPG,AFNE01.JPG,,,,,1,8,18,6,,,,,,,,,,,,,,,,,,,AMNE07.jpg,AMNE17.jpg,AMSA15.jpg,AMSA11.jpg,AMNE17.jpg,MN,1,num_6,16,num_6,1.56679685507,,,2017_Aug_02_1729,59.988051602,FEMA4ImagesEEG,001,101117,
AFNE01.JPG,AFNE01.JPG,AFNE01.JPG,AFNE01.JPG,AFNE01.JPG,AFNE01.JPG,,,,,1,9,19,4,,,,,,,,,,,,,,,,,,,AMSA13.jpg,AMSA03.jpg,AMNE18.jpg,AMNE13.jpg,AMSA13.jpg,MS,2,num_8,16,num_8,1.25009325519,,,2017_Aug_02_1729,59.988051602,FEMA4ImagesEEG,001,101117,
AFNE01.JPG,AFNE01.JPG,AFNE01.JPG,AFNE01.JPG,AFNE01.JPG,AFNE01.JPG,,,,,2,0,20,7,,,,,,,,,,,,,,,,,,,AMSA03.jpg,AMNE03.jpg,AMSA18.jpg,AMNE15.jpg,AMSA03.jpg,MS,2,num_8,16,num_8,0.950123949908,,,2017_Aug_02_1729,59.988051602,FEMA4ImagesEEG,001,101117,
AFNE01.JPG,AFNE01.JPG,AFNE01.JPG,AFNE01.JPG,AFNE01.JPG,AFNE01.JPG,,,,,2,1,21,2,,,,,,,,,,,,,,,,,,,AMNE16.jpg,AMSA07.jpg,AMNE07.jpg,AMSA13.jpg,AMSA07.jpg,MS,2,num_6,16,num_6,0.466755768051,,,2017_Aug_02_1729,59.988051602,FEMA4ImagesEEG,001,101117,
AFNE01.JPG,AFNE01.JPG,AFNE01.JPG,AFNE01.JPG,AFNE01.JPG,AFNE01.JPG,,,,,2,2,22,3,,,,,,,,,,,,,,,,,,,AMNE17.jpg,AMSA08.jpg,AMNE18.jpg,AMSA03.jpg,AMSA03.jpg,MS,2,num_4,16,num_4,1.14996428555,,,2017_Aug_02_1729,59.988051602,FEMA4ImagesEEG,001,101117,
AFNE01.JPG,AFNE01.JPG,AFNE01.JPG,AFNE01.JPG,AFNE01.JPG,AFNE01.JPG,,,,,2,3,23,4,,,,,,,,,,,,,,,,,,,AMSA04.jpg,AMNE06.jpg,AMSA10.jpg,AMNE05.jpg,AMSA04.jpg,MS,2,num_8,16,num_8,0.516818809789,,,2017_Aug_02_1729,59.988051602,FEMA4ImagesEEG,001,101117,
AFNE01.JPG,AFNE01.JPG,AFNE01.JPG,AFNE01.JPG,AFNE01.JPG,AFNE01.JPG,,,,,2,4,24,6,,,,,,,,,,,,,,,,,,,AMNE05.jpg,AMSA02.jpg,AMSA10.jpg,AMNE10.jpg,AMNE10.jpg,MN,1,num_4,32,num_2,2.20011136075,,,2017_Aug_02_1729,59.988051602,FEMA4ImagesEEG,001,101117,
AFNE01.JPG,AFNE01.JPG,AFNE01.JPG,AFNE01.JPG,AFNE01.JPG,AFNE01.JPG,,,,,2,5,25,0,,,,,,,,,,,,,,,,,,,AMSA04.jpg,AMNE18.jpg,AMSA15.jpg,AMNE20.jpg,AMSA15.jpg,MS,2,num_2,16,num_2,0.916692566359,,,2017_Aug_02_1729,59.988051602,FEMA4ImagesEEG,001,101117,
AFNE01.JPG,AFNE01.JPG,AFNE01.JPG,AFNE01.JPG,AFNE01.JPG,AFNE01.JPG,,,,,2,6,26,5,,,,,,,,,,,,,,,,,,,AMSA02.jpg,AMNE16.jpg,AMSA17.jpg,AMNE17.jpg,AMNE17.jpg,MN,1,num_4,32,num_2,1.25009550038,,,2017_Aug_02_1729,59.988051602,FEMA4ImagesEEG,001,101117,
AFNE01.JPG,AFNE01.JPG,AFNE01.JPG,AFNE01.JPG,AFNE01.JPG,AFNE01.JPG,,,,,2,7,27,9,,,,,,,,,,,,,,,,,,,AMNE03.jpg,AMSA19.jpg,AMNE13.jpg,AMSA15.jpg,AMNE13.jpg,MN,1,num_2,32,num_6,2.71666684304,,,2017_Aug_02_1729,59.988051602,FEMA4ImagesEEG,001,101117,
AFNE01.JPG,AFNE01.JPG,AFNE01.JPG,AFNE01.JPG,AFNE01.JPG,AFNE01.JPG,,,,,2,8,28,8,,,,,,,,,,,,,,,,,,,AMNE08.jpg,AMSA02.jpg,AMSA13.jpg,AMNE07.jpg,AMNE07.jpg,MN,1,num_4,16,num_4,0.800090063829,,,2017_Aug_02_1729,59.988051602,FEMA4ImagesEEG,001,101117,
AFNE01.JPG,AFNE01.JPG,AFNE01.JPG,AFNE01.JPG,AFNE01.JPG,AFNE01.JPG,,,,,2,9,29,1,,,,,,,,,,,,,,,,,,,AMSA13.jpg,AMNE20.jpg,AMNE19.jpg,AMSA17.jpg,AMNE19.jpg,MN,1,num_2,32,num_6,0.683490127092,,,2017_Aug_02_1729,59.988051602,FEMA4ImagesEEG,001,101117,
AFNE01.JPG,AFNE01.JPG,AFNE01.JPG,AFNE01.JPG,AFNE01.JPG,AFNE01.JPG,,,,,3,0,30,4,,,,,,,,,,,,,,,,,,,AMSA15.jpg,AMSA04.jpg,AMNE16.jpg,AMNE13.jpg,AMNE16.jpg,MN,1,num_2,16,num_2,0.666817414574,,,2017_Aug_02_1729,59.988051602,FEMA4ImagesEEG,001,101117,
AFNE01.JPG,AFNE01.JPG,AFNE01.JPG,AFNE01.JPG,AFNE01.JPG,AFNE01.JPG,,,,,3,1,31,6,,,,,,,,,,,,,,,,,,,AMNE11.jpg,AMSA02.jpg,AMNE19.jpg,AMSA03.jpg,AMSA02.jpg,MS,2,num_6,16,num_6,0.683474410791,,,2017_Aug_02_1729,59.988051602,FEMA4ImagesEEG,001,101117,
AFNE01.JPG,AFNE01.JPG,AFNE01.JPG,AFNE01.JPG,AFNE01.JPG,AFNE01.JPG,,,,,3,2,32,7,,,,,,,,,,,,,,,,,,,AMNE10.jpg,AMSA04.jpg,AMSA02.jpg,AMNE02.jpg,AMNE10.jpg,MN,1,num_8,16,num_8,0.450106149074,,,2017_Aug_02_1729,59.988051602,FEMA4ImagesEEG,001,101117,
AFNE01.JPG,AFNE01.JPG,AFNE01.JPG,AFNE01.JPG,AFNE01.JPG,AFNE01.JPG,,,,,3,3,33,3,,,,,,,,,,,,,,,,,,,AMSA13.jpg,AMNE14.jpg,AMSA20.jpg,AMNE12.jpg,AMSA20.jpg,MS,2,num_2,16,num_2,0.933537837118,,,2017_Aug_02_1729,59.988051602,FEMA4ImagesEEG,001,101117,
AFNE01.JPG,AFNE01.JPG,AFNE01.JPG,AFNE01.JPG,AFNE01.JPG,AFNE01.JPG,,,,,3,4,34,1,,,,,,,,,,,,,,,,,,,AMSA18.jpg,AMNE05.jpg,AMNE16.jpg,AMSA16.jpg,AMSA16.jpg,MS,2,num_4,16,num_4,0.650154324016,,,2017_Aug_02_1729,59.988051602,FEMA4ImagesEEG,001,101117,
AFNE01.JPG,AFNE01.JPG,AFNE01.JPG,AFNE01.JPG,AFNE01.JPG,AFNE01.JPG,,,,,3,5,35,9,,,,,,,,,,,,,,,,,,,AMSA19.jpg,AMNE03.jpg,AMNE13.jpg,AMSA06.jpg,AMNE03.jpg,MN,1,num_6,32,num_8,1.06676782807,,,2017_Aug_02_1729,59.988051602,FEMA4ImagesEEG,001,101117,
AFNE01.JPG,AFNE01.JPG,AFNE01.JPG,AFNE01.JPG,AFNE01.JPG,AFNE01.JPG,,,,,3,6,36,8,,,,,,,,,,,,,,,,,,,AMSA12.jpg,AMNE16.jpg,AMSA19.jpg,AMNE01.jpg,AMSA12.jpg,MS,2,num_8,32,num_6,1.0001379184,,,2017_Aug_02_1729,59.988051602,FEMA4ImagesEEG,001,101117,
AFNE01.JPG,AFNE01.JPG,AFNE01.JPG,AFNE01.JPG,AFNE01.JPG,AFNE01.JPG,,,,,3,7,37,0,,,,,,,,,,,,,,,,,,,AMSA10.jpg,AMNE20.jpg,AMSA18.jpg,AMNE15.jpg,AMSA10.jpg,MS,2,num_8,16,num_8,0.866765839513,,,2017_Aug_02_1729,59.988051602,FEMA4ImagesEEG,001,101117,
AFNE01.JPG,AFNE01.JPG,AFNE01.JPG,AFNE01.JPG,AFNE01.JPG,AFNE01.JPG,,,,,3,8,38,2,,,,,,,,,,,,,,,,,,,AMNE06.jpg,AMNE04.jpg,AMSA12.jpg,AMSA13.jpg,AMNE04.jpg,MN,1,num_6,16,num_6,0.433517470025,,,2017_Aug_02_1729,59.988051602,FEMA4ImagesEEG,001,101117,
AFNE01.JPG,AFNE01.JPG,AFNE01.JPG,AFNE01.JPG,AFNE01.JPG,AFNE01.JPG,,,,,3,9,39,5,,,,,,,,,,,,,,,,,,,AMSA14.jpg,AMNE14.jpg,AMSA05.jpg,AMNE05.jpg,AMSA05.jpg,MS,2,num_2,16,num_2,1.11678115488,,,2017_Aug_02_1729,59.988051602,FEMA4ImagesEEG,001,101117,
AFNE01.JPG,AFNE01.JPG,AFNE01.JPG,AFNE01.JPG,AFNE01.JPG,AFNE01.JPG,,,,,4,0,40,1,,,,,,,,,,,,,,,,,,,AMSA15.jpg,AMSA16.jpg,AMNE04.jpg,AMNE07.jpg,AMNE04.jpg,MN,1,num_2,16,num_2,0.58357220469,,,2017_Aug_02_1729,59.988051602,FEMA4ImagesEEG,001,101117,
AFNE01.JPG,AFNE01.JPG,AFNE01.JPG,AFNE01.JPG,AFNE01.JPG,AFNE01.JPG,,,,,4,1,41,8,,,,,,,,,,,,,,,,,,,AMNE03.jpg,AMNE10.jpg,AMSA17.jpg,AMSA05.jpg,AMNE03.jpg,MN,1,num_8,32,num_2,1.13349299761,,,2017_Aug_02_1729,59.988051602,FEMA4ImagesEEG,001,101117,
AFNE01.JPG,AFNE01.JPG,AFNE01.JPG,AFNE01.JPG,AFNE01.JPG,AFNE01.JPG,,,,,4,2,42,2,,,,,,,,,,,,,,,,,,,AMSA06.jpg,AMNE02.jpg,AMSA07.jpg,AMNE20.jpg,AMSA06.jpg,MS,2,num_8,32,num_4,0.733455984388,,,2017_Aug_02_1729,59.988051602,FEMA4ImagesEEG,001,101117,
AFNE01.JPG,AFNE01.JPG,AFNE01.JPG,AFNE01.JPG,AFNE01.JPG,AFNE01.JPG,,,,,4,3,43,3,,,,,,,,,,,,,,,,,,,AMSA04.jpg,AMNE11.jpg,AMSA12.jpg,AMNE02.jpg,AMNE11.jpg,MN,1,num_6,32,num_2,1.45008465927,,,2017_Aug_02_1729,59.988051602,FEMA4ImagesEEG,001,101117,
AFNE01.JPG,AFNE01.JPG,AFNE01.JPG,AFNE01.JPG,AFNE01.JPG,AFNE01.JPG,,,,,4,4,44,7,,,,,,,,,,,,,,,,,,,AMNE19.jpg,AMNE08.jpg,AMSA16.jpg,AMSA18.jpg,AMNE08.jpg,MN,1,num_6,32,num_4,0.86677321652,,,2017_Aug_02_1729,59.988051602,FEMA4ImagesEEG,001,101117,
AFNE01.JPG,AFNE01.JPG,AFNE01.JPG,AFNE01.JPG,AFNE01.JPG,AFNE01.JPG,,,,,4,5,45,4,,,,,,,,,,,,,,,,,,,AMSA07.jpg,AMNE05.jpg,AMNE10.jpg,AMSA09.jpg,AMNE10.jpg,MN,1,num_2,32,num_6,0.783413181547,,,2017_Aug_02_1729,59.988051602,FEMA4ImagesEEG,001,101117,
AFNE01.JPG,AFNE01.JPG,AFNE01.JPG,AFNE01.JPG,AFNE01.JPG,AFNE01.JPG,,,,,4,6,46,6,,,,,,,,,,,,,,,,,,,AMSA18.jpg,AMNE06.jpg,AMSA15.jpg,AMNE15.jpg,AMNE15.jpg,MN,1,num_4,32,num_8,0.850141879404,,,2017_Aug_02_1729,59.988051602,FEMA4ImagesEEG,001,101117,
AFNE01.JPG,AFNE01.JPG,AFNE01.JPG,AFNE01.JPG,AFNE01.JPG,AFNE01.JPG,,,,,4,7,47,0,,,,,,,,,,,,,,,,,,,AMNE06.jpg,AMSA17.jpg,AMSA03.jpg,AMNE18.jpg,AMSA03.jpg,MS,2,num_2,16,num_2,0.800121175591,,,2017_Aug_02_1729,59.988051602,FEMA4ImagesEEG,001,101117,
AFNE01.JPG,AFNE01.JPG,AFNE01.JPG,AFNE01.JPG,AFNE01.JPG,AFNE01.JPG,,,,,4,8,48,5,,,,,,,,,,,,,,,,,,,AMSA02.jpg,AMNE11.jpg,AMSA10.jpg,AMNE18.jpg,AMSA02.jpg,MS,2,num_8,16,num_8,0.66684596031,,,2017_Aug_02_1729,59.988051602,FEMA4ImagesEEG,001,101117,
AFNE01.JPG,AFNE01.JPG,AFNE01.JPG,AFNE01.JPG,AFNE01.JPG,AFNE01.JPG,,,,,4,9,49,9,,,,,,,,,,,,,,,,,,,AMSA02.jpg,AMNE03.jpg,AMSA10.jpg,AMNE16.jpg,AMSA02.jpg,MS,2,num_8,32,num_6,1.08346876595,,,2017_Aug_02_1729,59.988051602,FEMA4ImagesEEG,001,101117,
AFNE01.JPG,AFNE01.JPG,AFNE01.JPG,AFNE01.JPG,AFNE01.JPG,AFNE01.JPG,,,,,5,0,50,8,,,,,,,,,,,,,,,,,,,AMSA02.jpg,AMNE04.jpg,AMNE12.jpg,AMSA14.jpg,AMSA14.jpg,MS,2,num_4,16,num_4,1.61668637628,,,2017_Aug_02_1729,59.988051602,FEMA4ImagesEEG,001,101117,
AFNE01.JPG,AFNE01.JPG,AFNE01.JPG,AFNE01.JPG,AFNE01.JPG,AFNE01.JPG,,,,,5,1,51,4,,,,,,,,,,,,,,,,,,,AMSA11.jpg,AMSA15.jpg,AMNE20.jpg,AMNE19.jpg,AMNE19.jpg,MN,1,num_4,32,num_6,0.900131792063,,,2017_Aug_02_1729,59.988051602,FEMA4ImagesEEG,001,101117,
AFNE01.JPG,AFNE01.JPG,AFNE01.JPG,AFNE01.JPG,AFNE01.JPG,AFNE01.JPG,,,,,5,2,52,0,,,,,,,,,,,,,,,,,,,AMSA08.jpg,AMNE11.jpg,AMSA10.jpg,AMNE07.jpg,AMSA08.jpg,MS,2,num_8,16,num_8,0.883490191307,,,2017_Aug_02_1729,59.988051602,FEMA4ImagesEEG,001,101117,
AFNE01.JPG,AFNE01.JPG,AFNE01.JPG,AFNE01.JPG,AFNE01.JPG,AFNE01.JPG,,,,,5,3,53,5,,,,,,,,,,,,,,,,,,,AMNE12.jpg,AMNE07.jpg,AMSA12.jpg,AMSA01.jpg,AMSA12.jpg,MS,2,num_2,32,num_8,0.900112868519,,,2017_Aug_02_1729,59.988051602,FEMA4ImagesEEG,001,101117,
AFNE01.JPG,AFNE01.JPG,AFNE01.JPG,AFNE01.JPG,AFNE01.JPG,AFNE01.JPG,,,,,5,4,54,9,,,,,,,,,,,,,,,,,,,AMNE04.jpg,AMSA05.jpg,AMSA16.jpg,AMNE11.jpg,AMSA05.jpg,MS,2,num_6,32,num_2,1.26673613884,,,2017_Aug_02_1729,59.988051602,FEMA4ImagesEEG,001,101117,
AFNE01.JPG,AFNE01.JPG,AFNE01.JPG,AFNE01.JPG,AFNE01.JPG,AFNE01.JPG,,,,,5,5,55,1,,,,,,,,,,,,,,,,,,,AMSA07.jpg,AMSA12.jpg,AMNE12.jpg,AMNE03.jpg,AMNE12.jpg,MN,1,num_2,32,num_6,0.833475902211,,,2017_Aug_02_1729,59.988051602,FEMA4ImagesEEG,001,101117,
AFNE01.JPG,AFNE01.JPG,AFNE01.JPG,AFNE01.JPG,AFNE01.JPG,AFNE01.JPG,,,,,5,6,56,2,,,,,,,,,,,,,,,,,,,AMSA11.jpg,AMNE12.jpg,AMNE09.jpg,AMSA12.jpg,AMSA11.jpg,MS,2,num_8,16,num_8,0.783219454344,,,2017_Aug_02_1729,59.988051602,FEMA4ImagesEEG,001,101117,
AFNE01.JPG,AFNE01.JPG,AFNE01.JPG,AFNE01.JPG,AFNE01.JPG,AFNE01.JPG,,,,,5,7,57,3,,,,,,,,,,,,,,,,,,,AMSA06.jpg,AMNE13.jpg,AMNE03.jpg,AMSA18.jpg,AMNE03.jpg,MN,1,num_2,32,num_6,0.833503165049,,,2017_Aug_02_1729,59.988051602,FEMA4ImagesEEG,001,101117,
AFNE01.JPG,AFNE01.JPG,AFNE01.JPG,AFNE01.JPG,AFNE01.JPG,AFNE01.JPG,,,,,5,8,58,7,,,,,,,,,,,,,,,,,,,AMSA01.jpg,AMSA10.jpg,AMNE01.jpg,AMNE12.jpg,AMNE12.jpg,MN,1,num_4,16,num_4,0.933470481774,,,2017_Aug_02_1729,59.988051602,FEMA4ImagesEEG,001,101117,
AFNE01.JPG,AFNE01.JPG,AFNE01.JPG,AFNE01.JPG,AFNE01.JPG,AFNE01.JPG,,,,,5,9,59,6,,,,,,,,,,,,,,,,,,,AMNE16.jpg,AMSA03.jpg,AMNE18.jpg,AMSA14.jpg,AMNE16.jpg,MN,1,num_8,32,num_2,1.10006931191,,,2017_Aug_02_1729,59.988051602,FEMA4ImagesEEG,001,101117,
,,,,,,,,,,,,,,,,,,,,,,,,,,,,,,,,,,,,,,,,,,,space,17.3821737135,2017_Aug_02_1729,59.988051602,FEMA4ImagesEEG,001,101117,
AFNE01.JPG,AFNE01.JPG,AFNE01.JPG,AFNE01.JPG,AFNE01.JPG,AFNE01.JPG,,,,,,,,,0,0,0,6,,,,,,,,,,,,,,,AFNE08.jpg,AFNE04.jpg,AFSA19.jpg,AFSA01.jpg,AFSA01.jpg,FS,4,num_4,32,num_8,0.733554130886,,,2017_Aug_02_1729,59.988051602,FEMA4ImagesEEG,001,101117,
AFNE01.JPG,AFNE01.JPG,AFNE01.JPG,AFNE01.JPG,AFNE01.JPG,AFNE01.JPG,,,,,,,,,0,1,1,1,,,,,,,,,,,,,,,AFSA12.jpg,AFNE16.jpg,AFSA20.jpg,AFNE06.jpg,AFNE06.jpg,FN,3,num_4,32,num_8,0.966839320958,,,2017_Aug_02_1729,59.988051602,FEMA4ImagesEEG,001,101117,
AFNE01.JPG,AFNE01.JPG,AFNE01.JPG,AFNE01.JPG,AFNE01.JPG,AFNE01.JPG,,,,,,,,,0,2,2,9,,,,,,,,,,,,,,,AFNE08.jpg,AFSA07.jpg,AFSA14.jpg,AFNE09.jpg,AFNE08.jpg,FN,3,num_8,32,num_2,1.53342994023,,,2017_Aug_02_1729,59.988051602,FEMA4ImagesEEG,001,101117,
AFNE01.JPG,AFNE01.JPG,AFNE01.JPG,AFNE01.JPG,AFNE01.JPG,AFNE01.JPG,,,,,,,,,0,3,3,4,,,,,,,,,,,,,,,AFSA03.jpg,AFNE20.jpg,AFSA13.jpg,AFNE11.jpg,AFSA03.jpg,FS,4,num_8,16,num_8,0.816769832745,,,2017_Aug_02_1729,59.988051602,FEMA4ImagesEEG,001,101117,
AFNE01.JPG,AFNE01.JPG,AFNE01.JPG,AFNE01.JPG,AFNE01.JPG,AFNE01.JPG,,,,,,,,,0,4,4,3,,,,,,,,,,,,,,,AFSA03.jpg,AFNE13.jpg,AFNE08.jpg,AFSA01.jpg,AFNE13.jpg,FN,3,num_6,16,num_6,0.833475902444,,,2017_Aug_02_1729,59.988051602,FEMA4ImagesEEG,001,101117,
AFNE01.JPG,AFNE01.JPG,AFNE01.JPG,AFNE01.JPG,AFNE01.JPG,AFNE01.JPG,,,,,,,,,0,5,5,5,,,,,,,,,,,,,,,AFSA12.jpg,AFSA02.jpg,AFNE16.jpg,AFNE08.jpg,AFSA02.jpg,FS,4,num_6,16,num_6,0.833432281623,,,2017_Aug_02_1729,59.988051602,FEMA4ImagesEEG,001,101117,
AFNE01.JPG,AFNE01.JPG,AFNE01.JPG,AFNE01.JPG,AFNE01.JPG,AFNE01.JPG,,,,,,,,,0,6,6,8,,,,,,,,,,,,,,,AFNE15.jpg,AFNE20.jpg,AFSA20.jpg,AFSA08.jpg,AFSA08.jpg,FS,4,num_4,16,num_4,0.833488731878,,,2017_Aug_02_1729,59.988051602,FEMA4ImagesEEG,001,101117,
AFNE01.JPG,AFNE01.JPG,AFNE01.JPG,AFNE01.JPG,AFNE01.JPG,AFNE01.JPG,,,,,,,,,0,7,7,0,,,,,,,,,,,,,,,AFNE04.jpg,AFNE08.jpg,AFSA12.jpg,AFSA05.jpg,AFSA05.jpg,FS,4,num_4,16,num_4,0.883509756299,,,2017_Aug_02_1729,59.988051602,FEMA4ImagesEEG,001,101117,
AFNE01.JPG,AFNE01.JPG,AFNE01.JPG,AFNE01.JPG,AFNE01.JPG,AFNE01.JPG,,,,,,,,,0,8,8,2,,,,,,,,,,,,,,,AFSA02.jpg,AFSA18.jpg,AFNE20.jpg,AFNE09.jpg,AFNE09.jpg,FN,3,num_4,32,num_2,0.783451028867,,,2017_Aug_02_1729,59.988051602,FEMA4ImagesEEG,001,101117,
AFNE01.JPG,AFNE01.JPG,AFNE01.JPG,AFNE01.JPG,AFNE01.JPG,AFNE01.JPG,,,,,,,,,0,9,9,7,,,,,,,,,,,,,,,AFNE15.jpg,AFSA02.jpg,AFSA01.jpg,AFNE03.jpg,AFSA02.jpg,FS,4,num_6,16,num_6,0.650171964895,,,2017_Aug_02_1729,59.988051602,FEMA4ImagesEEG,001,101117,
AFNE01.JPG,AFNE01.JPG,AFNE01.JPG,AFNE01.JPG,AFNE01.JPG,AFNE01.JPG,,,,,,,,,1,0,10,9,,,,,,,,,,,,,,,AFSA02.jpg,AFNE12.jpg,AFSA08.jpg,AFNE08.jpg,AFNE12.jpg,FN,3,num_6,32,num_2,1.05014130194,,,2017_Aug_02_1729,59.988051602,FEMA4ImagesEEG,001,101117,
AFNE01.JPG,AFNE01.JPG,AFNE01.JPG,AFNE01.JPG,AFNE01.JPG,AFNE01.JPG,,,,,,,,,1,1,11,8,,,,,,,,,,,,,,,AFNE03.jpg,AFSA01.jpg,AFSA06.jpg,AFNE06.jpg,AFSA01.jpg,FS,4,num_6,32,num_2,0.866724784952,,,2017_Aug_02_1729,59.988051602,FEMA4ImagesEEG,001,101117,
AFNE01.JPG,AFNE01.JPG,AFNE01.JPG,AFNE01.JPG,AFNE01.JPG,AFNE01.JPG,,,,,,,,,1,2,12,0,,,,,,,,,,,,,,,AFSA02.jpg,AFNE14.jpg,AFSA04.jpg,AFNE20.jpg,AFNE20.jpg,FN,3,num_4,32,num_2,1.18347200518,,,2017_Aug_02_1729,59.988051602,FEMA4ImagesEEG,001,101117,
AFNE01.JPG,AFNE01.JPG,AFNE01.JPG,AFNE01.JPG,AFNE01.JPG,AFNE01.JPG,,,,,,,,,1,3,13,4,,,,,,,,,,,,,,,AFNE01.jpg,AFNE07.jpg,AFSA18.jpg,AFSA05.jpg,AFNE07.jpg,FN,3,num_6,16,num_6,0.633477121126,,,2017_Aug_02_1729,59.988051602,FEMA4ImagesEEG,001,101117,
AFNE01.JPG,AFNE01.JPG,AFNE01.JPG,AFNE01.JPG,AFNE01.JPG,AFNE01.JPG,,,,,,,,,1,4,14,2,,,,,,,,,,,,,,,AFNE05.jpg,AFSA19.jpg,AFSA04.jpg,AFNE16.jpg,AFSA04.jpg,FS,4,num_2,16,num_2,0.41682711686,,,2017_Aug_02_1729,59.988051602,FEMA4ImagesEEG,001,101117,
AFNE01.JPG,AFNE01.JPG,AFNE01.JPG,AFNE01.JPG,AFNE01.JPG,AFNE01.JPG,,,,,,,,,1,5,15,1,,,,,,,,,,,,,,,AFSA08.jpg,AFNE17.jpg,AFSA14.jpg,AFNE07.jpg,AFNE17.jpg,FN,3,num_6,32,num_8,1.11681451183,,,2017_Aug_02_1729,59.988051602,FEMA4ImagesEEG,001,101117,
AFNE01.JPG,AFNE01.JPG,AFNE01.JPG,AFNE01.JPG,AFNE01.JPG,AFNE01.JPG,,,,,,,,,1,6,16,7,,,,,,,,,,,,,,,AFNE19.jpg,AFSA01.jpg,AFNE12.jpg,AFSA18.jpg,AFSA18.jpg,FS,4,num_4,32,num_6,1.01677823626,,,2017_Aug_02_1729,59.988051602,FEMA4ImagesEEG,001,101117,
AFNE01.JPG,AFNE01.JPG,AFNE01.JPG,AFNE01.JPG,AFNE01.JPG,AFNE01.JPG,,,,,,,,,1,7,17,3,,,,,,,,,,,,,,,AFNE17.jpg,AFSA03.jpg,AFNE15.jpg,AFSA06.jpg,AFNE17.jpg,FN,3,num_8,16,num_8,0.783494328847,,,2017_Aug_02_1729,59.988051602,FEMA4ImagesEEG,001,101117,
AFNE01.JPG,AFNE01.JPG,AFNE01.JPG,AFNE01.JPG,AFNE01.JPG,AFNE01.JPG,,,,,,,,,1,8,18,6,,,,,,,,,,,,,,,AFNE05.jpg,AFSA08.jpg,AFSA02.jpg,AFNE18.jpg,AFNE05.jpg,FN,3,num_8,16,num_8,0.750135111855,,,2017_Aug_02_1729,59.988051602,FEMA4ImagesEEG,001,101117,
AFNE01.JPG,AFNE01.JPG,AFNE01.JPG,AFNE01.JPG,AFNE01.JPG,AFNE01.JPG,,,,,,,,,1,9,19,5,,,,,,,,,,,,,,,AFSA15.jpg,AFNE06.jpg,AFNE11.jpg,AFSA10.jpg,AFNE11.jpg,FN,3,num_2,16,num_2,0.850201216293,,,2017_Aug_02_1729,59.988051602,FEMA4ImagesEEG,001,101117,
AFNE01.JPG,AFNE01.JPG,AFNE01.JPG,AFNE01.JPG,AFNE01.JPG,AFNE01.JPG,,,,,,,,,2,0,20,9,,,,,,,,,,,,,,,AFNE10.jpg,AFSA06.jpg,AFSA03.jpg,AFNE18.jpg,AFNE18.jpg,FN,3,num_4,32,num_8,0.900041022571,,,2017_Aug_02_1729,59.988051602,FEMA4ImagesEEG,001,101117,
AFNE01.JPG,AFNE01.JPG,AFNE01.JPG,AFNE01.JPG,AFNE01.JPG,AFNE01.JPG,,,,,,,,,2,1,21,6,,,,,,,,,,,,,,,AFSA15.jpg,AFSA17.jpg,AFNE02.jpg,AFNE01.jpg,AFSA17.jpg,FS,4,num_6,16,num_6,0.933458935237,,,2017_Aug_02_1729,59.988051602,FEMA4ImagesEEG,001,101117,
AFNE01.JPG,AFNE01.JPG,AFNE01.JPG,AFNE01.JPG,AFNE01.JPG,AFNE01.JPG,,,,,,,,,2,2,22,0,,,,,,,,,,,,,,,AFSA01.jpg,AFNE08.jpg,AFNE05.jpg,AFSA10.jpg,AFSA10.jpg,FS,4,num_4,32,num_8,1.10008663195,,,2017_Aug_02_1729,59.988051602,FEMA4ImagesEEG,001,101117,
AFNE01.JPG,AFNE01.JPG,AFNE01.JPG,AFNE01.JPG,AFNE01.JPG,AFNE01.JPG,,,,,,,,,2,3,23,2,,,,,,,,,,,,,,,AFNE14.jpg,AFSA03.jpg,AFNE06.jpg,AFSA20.jpg,AFNE14.jpg,FN,3,num_8,16,num_8,0.78362839832,,,2017_Aug_02_1729,59.988051602,FEMA4ImagesEEG,001,101117,
AFNE01.JPG,AFNE01.JPG,AFNE01.JPG,AFNE01.JPG,AFNE01.JPG,AFNE01.JPG,,,,,,,,,2,4,24,8,,,,,,,,,,,,,,,AFNE10.jpg,AFSA10.jpg,AFSA08.jpg,AFNE03.jpg,AFNE10.jpg,FN,3,num_8,32,num_6,0.916803542525,,,2017_Aug_02_1729,59.988051602,FEMA4ImagesEEG,001,101117,
AFNE01.JPG,AFNE01.JPG,AFNE01.JPG,AFNE01.JPG,AFNE01.JPG,AFNE01.JPG,,,,,,,,,2,5,25,3,,,,,,,,,,,,,,,AFSA18.jpg,AFNE07.jpg,AFNE03.jpg,AFSA05.jpg,AFNE07.jpg,FN,3,num_6,32,num_2,1.10016521323,,,2017_Aug_02_1729,59.988051602,FEMA4ImagesEEG,001,101117,
AFNE01.JPG,AFNE01.JPG,AFNE01.JPG,AFNE01.JPG,AFNE01.JPG,AFNE01.JPG,,,,,,,,,2,6,26,4,,,,,,,,,,,,,,,AFSA05.jpg,AFSA16.jpg,AFNE18.jpg,AFNE04.jpg,AFSA05.jpg,FS,4,num_8,32,num_6,0.883200883633,,,2017_Aug_02_1729,59.988051602,FEMA4ImagesEEG,001,101117,
AFNE01.JPG,AFNE01.JPG,AFNE01.JPG,AFNE01.JPG,AFNE01.JPG,AFNE01.JPG,,,,,,,,,2,7,27,1,,,,,,,,,,,,,,,AFSA05.jpg,AFNE01.jpg,AFSA16.jpg,AFNE09.jpg,AFSA05.jpg,FS,4,num_8,32,num_6,0.733469455503,,,2017_Aug_02_1729,59.988051602,FEMA4ImagesEEG,001,101117,
AFNE01.JPG,AFNE01.JPG,AFNE01.JPG,AFNE01.JPG,AFNE01.JPG,AFNE01.JPG,,,,,,,,,2,8,28,7,,,,,,,,,,,,,,,AFSA12.jpg,AFNE20.jpg,AFNE02.jpg,AFSA17.jpg,AFNE02.jpg,FN,3,num_2,16,num_2,1.33341319766,,,2017_Aug_02_1729,59.988051602,FEMA4ImagesEEG,001,101117,
AFNE01.JPG,AFNE01.JPG,AFNE01.JPG,AFNE01.JPG,AFNE01.JPG,AFNE01.JPG,,,,,,,,,2,9,29,5,,,,,,,,,,,,,,,AFNE09.jpg,AFNE17.jpg,AFSA20.jpg,AFSA08.jpg,AFSA08.jpg,FS,4,num_4,32,num_6,0.600153506268,,,2017_Aug_02_1729,59.988051602,FEMA4ImagesEEG,001,101117,
AFNE01.JPG,AFNE01.JPG,AFNE01.JPG,AFNE01.JPG,AFNE01.JPG,AFNE01.JPG,,,,,,,,,3,0,30,1,,,,,,,,,,,,,,,AFSA19.jpg,AFNE05.jpg,AFNE20.jpg,AFSA15.jpg,AFNE05.jpg,FN,3,num_6,16,num_6,0.866755575873,,,2017_Aug_02_1729,59.988051602,FEMA4ImagesEEG,001,101117,
AFNE01.JPG,AFNE01.JPG,AFNE01.JPG,AFNE01.JPG,AFNE01.JPG,AFNE01.JPG,,,,,,,,,3,1,31,3,,,,,,,,,,,,,,,AFNE02.jpg,AFSA12.jpg,AFSA20.jpg,AFNE14.jpg,AFNE14.jpg,FN,3,num_4,32,num_6,1.28343290719,,,2017_Aug_02_1729,59.988051602,FEMA4ImagesEEG,001,101117,
AFNE01.JPG,AFNE01.JPG,AFNE01.JPG,AFNE01.JPG,AFNE01.JPG,AFNE01.JPG,,,,,,,,,3,2,32,2,,,,,,,,,,,,,,,AFSA02.jpg,AFSA18.jpg,AFNE17.jpg,AFNE11.jpg,AFNE17.jpg,FN,3,num_2,16,num_2,0.85012648371,,,2017_Aug_02_1729,59.988051602,FEMA4ImagesEEG,001,101117,
AFNE01.JPG,AFNE01.JPG,AFNE01.JPG,AFNE01.JPG,AFNE01.JPG,AFNE01.JPG,,,,,,,,,3,3,33,9,,,,,,,,,,,,,,,AFSA16.jpg,AFNE09.jpg,AFSA09.jpg,AFNE13.jpg,AFSA09.jpg,FS,4,num_2,16,num_2,2.1834088196,,,2017_Aug_02_1729,59.988051602,FEMA4ImagesEEG,001,101117,
AFNE01.JPG,AFNE01.JPG,AFNE01.JPG,AFNE01.JPG,AFNE01.JPG,AFNE01.JPG,,,,,,,,,3,4,34,8,,,,,,,,,,,,,,,AFNE04.jpg,AFSA19.jpg,AFNE10.jpg,AFSA06.jpg,AFSA19.jpg,FS,4,num_6,32,num_4,1.06681625987,,,2017_Aug_02_1729,59.988051602,FEMA4ImagesEEG,001,101117,
AFNE01.JPG,AFNE01.JPG,AFNE01.JPG,AFNE01.JPG,AFNE01.JPG,AFNE01.JPG,,,,,,,,,3,5,35,0,,,,,,,,,,,,,,,AFNE10.jpg,AFSA10.jpg,AFSA18.jpg,AFNE03.jpg,AFSA18.jpg,FS,4,num_2,16,num_2,1.46674871212,,,2017_Aug_02_1729,59.988051602,FEMA4ImagesEEG,001,101117,
AFNE01.JPG,AFNE01.JPG,AFNE01.JPG,AFNE01.JPG,AFNE01.JPG,AFNE01.JPG,,,,,,,,,3,6,36,6,,,,,,,,,,,,,,,AFNE15.jpg,AFSA02.jpg,AFSA12.jpg,AFNE06.jpg,AFSA02.jpg,FS,4,num_6,16,num_6,0.833514390979,,,2017_Aug_02_1729,59.988051602,FEMA4ImagesEEG,001,101117,
AFNE01.JPG,AFNE01.JPG,AFNE01.JPG,AFNE01.JPG,AFNE01.JPG,AFNE01.JPG,,,,,,,,,3,7,37,4,,,,,,,,,,,,,,,AFNE05.jpg,AFSA11.jpg,AFSA01.jpg,AFNE02.jpg,AFNE02.jpg,FN,3,num_4,16,num_4,1.10013185628,,,2017_Aug_02_1729,59.988051602,FEMA4ImagesEEG,001,101117,
AFNE01.JPG,AFNE01.JPG,AFNE01.JPG,AFNE01.JPG,AFNE01.JPG,AFNE01.JPG,,,,,,,,,3,8,38,5,,,,,,,,,,,,,,,AFSA08.jpg,AFNE18.jpg,AFNE10.jpg,AFSA01.jpg,AFNE10.jpg,FN,3,num_2,16,num_2,0.433527413057,,,2017_Aug_02_1729,59.988051602,FEMA4ImagesEEG,001,101117,
AFNE01.JPG,AFNE01.JPG,AFNE01.JPG,AFNE01.JPG,AFNE01.JPG,AFNE01.JPG,,,,,,,,,3,9,39,7,,,,,,,,,,,,,,,AFNE09.jpg,AFSA02.jpg,AFNE04.jpg,AFSA10.jpg,AFNE09.jpg,FN,3,num_8,32,num_2,0.566687482642,,,2017_Aug_02_1729,59.988051602,FEMA4ImagesEEG,001,101117,
AFNE01.JPG,AFNE01.JPG,AFNE01.JPG,AFNE01.JPG,AFNE01.JPG,AFNE01.JPG,,,,,,,,,4,0,40,2,,,,,,,,,,,,,,,AFSA13.jpg,AFNE03.jpg,AFSA18.jpg,AFNE05.jpg,AFNE05.jpg,FN,3,num_4,32,num_8,0.933460538974,,,2017_Aug_02_1729,59.988051602,FEMA4ImagesEEG,001,101117,
AFNE01.JPG,AFNE01.JPG,AFNE01.JPG,AFNE01.JPG,AFNE01.JPG,AFNE01.JPG,,,,,,,,,4,1,41,5,,,,,,,,,,,,,,,AFSA02.jpg,AFSA17.jpg,AFNE08.jpg,AFNE13.jpg,AFNE13.jpg,FN,3,num_4,32,num_6,0.616666490212,,,2017_Aug_02_1729,59.988051602,FEMA4ImagesEEG,001,101117,
AFNE01.JPG,AFNE01.JPG,AFNE01.JPG,AFNE01.JPG,AFNE01.JPG,AFNE01.JPG,,,,,,,,,4,2,42,1,,,,,,,,,,,,,,,AFNE01.jpg,AFNE19.jpg,AFSA18.jpg,AFSA06.jpg,AFSA18.jpg,FS,4,num_2,32,num_8,1.45012571407,,,2017_Aug_02_1729,59.988051602,FEMA4ImagesEEG,001,101117,
AFNE01.JPG,AFNE01.JPG,AFNE01.JPG,AFNE01.JPG,AFNE01.JPG,AFNE01.JPG,,,,,,,,,4,3,43,9,,,,,,,,,,,,,,,AFSA02.jpg,AFSA13.jpg,AFNE03.jpg,AFNE20.jpg,AFSA02.jpg,FS,4,num_8,32,num_6,0.966747589409,,,2017_Aug_02_1729,59.988051602,FEMA4ImagesEEG,001,101117,
AFNE01.JPG,AFNE01.JPG,AFNE01.JPG,AFNE01.JPG,AFNE01.JPG,AFNE01.JPG,,,,,,,,,4,4,44,0,,,,,,,,,,,,,,,AFSA01.jpg,AFSA11.jpg,AFNE15.jpg,AFNE20.jpg,AFSA11.jpg,FS,4,num_6,32,num_4,0.883496926865,,,2017_Aug_02_1729,59.988051602,FEMA4ImagesEEG,001,101117,
AFNE01.JPG,AFNE01.JPG,AFNE01.JPG,AFNE01.JPG,AFNE01.JPG,AFNE01.JPG,,,,,,,,,4,5,45,3,,,,,,,,,,,,,,,AFNE08.jpg,AFSA18.jpg,AFNE19.jpg,AFSA04.jpg,AFNE08.jpg,FN,3,num_8,16,num_8,0.650182549143,,,2017_Aug_02_1729,59.988051602,FEMA4ImagesEEG,001,101117,
AFNE01.JPG,AFNE01.JPG,AFNE01.JPG,AFNE01.JPG,AFNE01.JPG,AFNE01.JPG,,,,,,,,,4,6,46,6,,,,,,,,,,,,,,,AFNE07.jpg,AFSA09.jpg,AFSA12.jpg,AFNE20.jpg,AFNE20.jpg,FN,3,num_4,32,num_8,0.833459223853,,,2017_Aug_02_1729,59.988051602,FEMA4ImagesEEG,001,101117,
AFNE01.JPG,AFNE01.JPG,AFNE01.JPG,AFNE01.JPG,AFNE01.JPG,AFNE01.JPG,,,,,,,,,4,7,47,8,,,,,,,,,,,,,,,AFSA11.jpg,AFNE08.jpg,AFNE13.jpg,AFSA18.jpg,AFNE13.jpg,FN,3,num_2,16,num_2,1.2334474849,,,2017_Aug_02_1729,59.988051602,FEMA4ImagesEEG,001,101117,
AFNE01.JPG,AFNE01.JPG,AFNE01.JPG,AFNE01.JPG,AFNE01.JPG,AFNE01.JPG,,,,,,,,,4,8,48,4,,,,,,,,,,,,,,,AFSA11.jpg,AFNE15.jpg,AFSA19.jpg,AFNE06.jpg,AFNE06.jpg,FN,3,num_4,32,num_2,0.949862226145,,,2017_Aug_02_1729,59.988051602,FEMA4ImagesEEG,001,101117,
AFNE01.JPG,AFNE01.JPG,AFNE01.JPG,AFNE01.JPG,AFNE01.JPG,AFNE01.JPG,,,,,,,,,4,9,49,7,,,,,,,,,,,,,,,AFSA16.jpg,AFSA07.jpg,AFNE12.jpg,AFNE18.jpg,AFNE18.jpg,FN,3,num_4,16,num_4,1.31679501082,,,2017_Aug_02_1729,59.988051602,FEMA4ImagesEEG,001,101117,
AFNE01.JPG,AFNE01.JPG,AFNE01.JPG,AFNE01.JPG,AFNE01.JPG,AFNE01.JPG,,,,,,,,,5,0,50,1,,,,,,,,,,,,,,,AFSA12.jpg,AFNE07.jpg,AFNE19.jpg,AFSA19.jpg,AFSA19.jpg,FS,4,num_4,32,num_2,1.01682057395,,,2017_Aug_02_1729,59.988051602,FEMA4ImagesEEG,001,101117,
AFNE01.JPG,AFNE01.JPG,AFNE01.JPG,AFNE01.JPG,AFNE01.JPG,AFNE01.JPG,,,,,,,,,5,1,51,5,,,,,,,,,,,,,,,AFSA13.jpg,AFNE12.jpg,AFNE05.jpg,AFSA05.jpg,AFSA05.jpg,FS,4,num_4,32,num_8,1.20034485962,,,2017_Aug_02_1729,59.988051602,FEMA4ImagesEEG,001,101117,
AFNE01.JPG,AFNE01.JPG,AFNE01.JPG,AFNE01.JPG,AFNE01.JPG,AFNE01.JPG,,,,,,,,,5,2,52,8,,,,,,,,,,,,,,,AFSA05.jpg,AFNE07.jpg,AFSA10.jpg,AFNE13.jpg,AFNE13.jpg,FN,3,num_4,16,num_4,0.900159696583,,,2017_Aug_02_1729,59.988051602,FEMA4ImagesEEG,001,101117,
AFNE01.JPG,AFNE01.JPG,AFNE01.JPG,AFNE01.JPG,AFNE01.JPG,AFNE01.JPG,,,,,,,,,5,3,53,9,,,,,,,,,,,,,,,AFSA17.jpg,AFSA06.jpg,AFNE16.jpg,AFNE09.jpg,AFSA17.jpg,FS,4,num_8,32,num_2,0.9001333958,,,2017_Aug_02_1729,59.988051602,FEMA4ImagesEEG,001,101117,
AFNE01.JPG,AFNE01.JPG,AFNE01.JPG,AFNE01.JPG,AFNE01.JPG,AFNE01.JPG,,,,,,,,,5,4,54,6,,,,,,,,,,,,,,,AFSA08.jpg,AFSA18.jpg,AFNE13.jpg,AFNE08.jpg,AFSA08.jpg,FS,4,num_8,32,num_2,0.733518528519,,,2017_Aug_02_1729,59.988051602,FEMA4ImagesEEG,001,101117,
AFNE01.JPG,AFNE01.JPG,AFNE01.JPG,AFNE01.JPG,AFNE01.JPG,AFNE01.JPG,,,,,,,,,5,5,55,3,,,,,,,,,,,,,,,AFSA03.jpg,AFNE19.jpg,AFNE15.jpg,AFSA01.jpg,AFSA01.jpg,FS,4,num_4,32,num_8,0.833511504577,,,2017_Aug_02_1729,59.988051602,FEMA4ImagesEEG,001,101117,
AFNE01.JPG,AFNE01.JPG,AFNE01.JPG,AFNE01.JPG,AFNE01.JPG,AFNE01.JPG,,,,,,,,,5,6,56,0,,,,,,,,,,,,,,,AFNE07.jpg,AFNE09.jpg,AFSA20.jpg,AFSA07.jpg,AFSA07.jpg,FS,4,num_4,16,num_4,0.63348513958,,,2017_Aug_02_1729,59.988051602,FEMA4ImagesEEG,001,101117,
AFNE01.JPG,AFNE01.JPG,AFNE01.JPG,AFNE01.JPG,AFNE01.JPG,AFNE01.JPG,,,,,,,,,5,7,57,7,,,,,,,,,,,,,,,AFSA18.jpg,AFNE17.jpg,AFSA05.jpg,AFNE12.jpg,AFNE12.jpg,FN,3,num_4,16,num_4,0.616785484832,,,2017_Aug_02_1729,59.988051602,FEMA4ImagesEEG,001,101117,
AFNE01.JPG,AFNE01.JPG,AFNE01.JPG,AFNE01.JPG,AFNE01.JPG,AFNE01.JPG,,,,,,,,,5,8,58,4,,,,,,,,,,,,,,,AFNE13.jpg,AFNE19.jpg,AFSA01.jpg,AFSA12.jpg,AFNE13.jpg,FN,3,num_8,16,num_8,0.683496221201,,,2017_Aug_02_1729,59.988051602,FEMA4ImagesEEG,001,101117,
AFNE01.JPG,AFNE01.JPG,AFNE01.JPG,AFNE01.JPG,AFNE01.JPG,AFNE01.JPG,,,,,,,,,5,9,59,2,,,,,,,,,,,,,,,AFNE07.jpg,AFNE08.jpg,AFSA14.jpg,AFSA01.jpg,AFSA14.jpg,FS,4,num_2,16,num_2,1.63339308719,,,2017_Aug_02_1729,59.988051602,FEMA4ImagesEEG,001,101117,
,,,,,,,,,,,,,,,,,,,,,,,,,,,,,,,,,,,,,,,,,,,space,14.4490348769,2017_Aug_02_1729,59.988051602,FEMA4ImagesEEG,001,101117,
AFNE01.JPG,AFNE01.JPG,AFNE01.JPG,AFNE01.JPG,AFNE01.JPG,AFNE01.JPG,,,,,,,,,,,,,0,0,0,6,,,,,,,,,,,AMSA20.jpg,AMSA07.jpg,AMNE17.jpg,AMNE15.jpg,AMSA07.jpg,MS,2,num_6,16,num_6,0.600184297189,,,2017_Aug_02_1729,59.988051602,FEMA4ImagesEEG,001,101117,
AFNE01.JPG,AFNE01.JPG,AFNE01.JPG,AFNE01.JPG,AFNE01.JPG,AFNE01.JPG,,,,,,,,,,,,,0,1,1,0,,,,,,,,,,,AMSA12.jpg,AMNE15.jpg,AMNE12.jpg,AMSA16.jpg,AMNE12.jpg,MN,1,num_2,32,num_4,0.550178347621,,,2017_Aug_02_1729,59.988051602,FEMA4ImagesEEG,001,101117,
AFNE01.JPG,AFNE01.JPG,AFNE01.JPG,AFNE01.JPG,AFNE01.JPG,AFNE01.JPG,,,,,,,,,,,,,0,2,2,8,,,,,,,,,,,AMSA03.jpg,AMNE13.jpg,AMSA01.jpg,AMNE12.jpg,AMNE13.jpg,MN,1,num_6,16,num_6,0.733477794798,,,2017_Aug_02_1729,59.988051602,FEMA4ImagesEEG,001,101117,
AFNE01.JPG,AFNE01.JPG,AFNE01.JPG,AFNE01.JPG,AFNE01.JPG,AFNE01.JPG,,,,,,,,,,,,,0,3,3,5,,,,,,,,,,,AMNE04.jpg,AMNE05.jpg,AMSA04.jpg,AMSA03.jpg,AMNE05.jpg,MN,1,num_6,16,num_6,0.600178844761,,,2017_Aug_02_1729,59.988051602,FEMA4ImagesEEG,001,101117,
AFNE01.JPG,AFNE01.JPG,AFNE01.JPG,AFNE01.JPG,AFNE01.JPG,AFNE01.JPG,,,,,,,,,,,,,0,4,4,2,,,,,,,,,,,AMNE11.jpg,AMSA18.jpg,AMSA11.jpg,AMNE02.jpg,AMNE11.jpg,MN,1,num_8,16,num_8,0.666846922599,,,2017_Aug_02_1729,59.988051602,FEMA4ImagesEEG,001,101117,
AFNE01.JPG,AFNE01.JPG,AFNE01.JPG,AFNE01.JPG,AFNE01.JPG,AFNE01.JPG,,,,,,,,,,,,,0,5,5,1,,,,,,,,,,,AMSA10.jpg,AMNE19.jpg,AMSA02.jpg,AMNE03.jpg,AMNE19.jpg,MN,1,num_6,16,num_6,0.633492195746,,,2017_Aug_02_1729,59.988051602,FEMA4ImagesEEG,001,101117,
AFNE01.JPG,AFNE01.JPG,AFNE01.JPG,AFNE01.JPG,AFNE01.JPG,AFNE01.JPG,,,,,,,,,,,,,0,6,6,4,,,,,,,,,,,AMSA12.jpg,AMSA20.jpg,AMNE19.jpg,AMNE14.jpg,AMSA20.jpg,MS,2,num_6,32,num_8,1.1834514779,,,2017_Aug_02_1729,59.988051602,FEMA4ImagesEEG,001,101117,
AFNE01.JPG,AFNE01.JPG,AFNE01.JPG,AFNE01.JPG,AFNE01.JPG,AFNE01.JPG,,,,,,,,,,,,,0,7,7,9,,,,,,,,,,,AMNE17.jpg,AMNE13.jpg,AMSA10.jpg,AMSA16.jpg,AMSA16.jpg,MS,2,num_4,16,num_4,0.68345901533,,,2017_Aug_02_1729,59.988051602,FEMA4ImagesEEG,001,101117,
AFNE01.JPG,AFNE01.JPG,AFNE01.JPG,AFNE01.JPG,AFNE01.JPG,AFNE01.JPG,,,,,,,,,,,,,0,8,8,3,,,,,,,,,,,AMSA01.jpg,AMNE03.jpg,AMSA02.jpg,AMNE15.jpg,AMNE15.jpg,MN,1,num_4,32,num_6,3.39996773354,,,2017_Aug_02_1729,59.988051602,FEMA4ImagesEEG,001,101117,
AFNE01.JPG,AFNE01.JPG,AFNE01.JPG,AFNE01.JPG,AFNE01.JPG,AFNE01.JPG,,,,,,,,,,,,,0,9,9,7,,,,,,,,,,,AMSA11.jpg,AMNE03.jpg,AMSA04.jpg,AMNE08.jpg,AMSA04.jpg,MS,2,num_2,16,num_2,0.950134854997,,,2017_Aug_02_1729,59.988051602,FEMA4ImagesEEG,001,101117,
AFNE01.JPG,AFNE01.JPG,AFNE01.JPG,AFNE01.JPG,AFNE01.JPG,AFNE01.JPG,,,,,,,,,,,,,1,0,10,2,,,,,,,,,,,AMSA17.jpg,AMNE13.jpg,AMNE19.jpg,AMSA02.jpg,AMNE19.jpg,MN,1,num_2,16,num_2,0.666834413772,,,2017_Aug_02_1729,59.988051602,FEMA4ImagesEEG,001,101117,
AFNE01.JPG,AFNE01.JPG,AFNE01.JPG,AFNE01.JPG,AFNE01.JPG,AFNE01.JPG,,,,,,,,,,,,,1,1,11,1,,,,,,,,,,,AMNE04.jpg,AMSA20.jpg,AMSA18.jpg,AMNE18.jpg,AMSA20.jpg,MS,2,num_6,16,num_6,0.483514118707,,,2017_Aug_02_1729,59.988051602,FEMA4ImagesEEG,001,101117,
AFNE01.JPG,AFNE01.JPG,AFNE01.JPG,AFNE01.JPG,AFNE01.JPG,AFNE01.JPG,,,,,,,,,,,,,1,2,12,8,,,,,,,,,,,AMSA15.jpg,AMNE17.jpg,AMSA18.jpg,AMNE04.jpg,AMSA18.jpg,MS,2,num_2,16,num_2,0.750128697138,,,2017_Aug_02_1729,59.988051602,FEMA4ImagesEEG,001,101117,
AFNE01.JPG,AFNE01.JPG,AFNE01.JPG,AFNE01.JPG,AFNE01.JPG,AFNE01.JPG,,,,,,,,,,,,,1,3,13,5,,,,,,,,,,,AMSA01.jpg,AMSA04.jpg,AMNE13.jpg,AMNE08.jpg,AMNE08.jpg,MN,1,num_4,32,num_2,1.03333612392,,,2017_Aug_02_1729,59.988051602,FEMA4ImagesEEG,001,101117,
AFNE01.JPG,AFNE01.JPG,AFNE01.JPG,AFNE01.JPG,AFNE01.JPG,AFNE01.JPG,,,,,,,,,,,,,1,4,14,3,,,,,,,,,,,AMNE15.jpg,AMSA19.jpg,AMSA05.jpg,AMNE12.jpg,AMSA05.jpg,MS,2,num_2,32,num_4,1.0000981465,,,2017_Aug_02_1729,59.988051602,FEMA4ImagesEEG,001,101117,
AFNE01.JPG,AFNE01.JPG,AFNE01.JPG,AFNE01.JPG,AFNE01.JPG,AFNE01.JPG,,,,,,,,,,,,,1,5,15,4,,,,,,,,,,,AMNE04.jpg,AMSA01.jpg,AMNE11.jpg,AMSA10.jpg,AMSA10.jpg,MS,2,num_4,32,num_2,0.716789365746,,,2017_Aug_02_1729,59.988051602,FEMA4ImagesEEG,001,101117,
AFNE01.JPG,AFNE01.JPG,AFNE01.JPG,AFNE01.JPG,AFNE01.JPG,AFNE01.JPG,,,,,,,,,,,,,1,6,16,6,,,,,,,,,,,AMNE11.jpg,AMNE16.jpg,AMSA18.jpg,AMSA15.jpg,AMSA18.jpg,MS,2,num_2,32,num_8,0.833491618745,,,2017_Aug_02_1729,59.988051602,FEMA4ImagesEEG,001,101117,
AFNE01.JPG,AFNE01.JPG,AFNE01.JPG,AFNE01.JPG,AFNE01.JPG,AFNE01.JPG,,,,,,,,,,,,,1,7,17,0,,,,,,,,,,,AMNE06.jpg,AMSA14.jpg,AMNE15.jpg,AMSA13.jpg,AMSA14.jpg,MS,2,num_6,16,num_6,0.45020493702,,,2017_Aug_02_1729,59.988051602,FEMA4ImagesEEG,001,101117,
AFNE01.JPG,AFNE01.JPG,AFNE01.JPG,AFNE01.JPG,AFNE01.JPG,AFNE01.JPG,,,,,,,,,,,,,1,8,18,7,,,,,,,,,,,AMSA20.jpg,AMSA08.jpg,AMNE04.jpg,AMNE15.jpg,AMNE15.jpg,MN,1,num_4,16,num_4,0.466807407327,,,2017_Aug_02_1729,59.988051602,FEMA4ImagesEEG,001,101117,
AFNE01.JPG,AFNE01.JPG,AFNE01.JPG,AFNE01.JPG,AFNE01.JPG,AFNE01.JPG,,,,,,,,,,,,,1,9,19,9,,,,,,,,,,,AMSA14.jpg,AMNE11.jpg,AMNE09.jpg,AMSA18.jpg,AMSA14.jpg,MS,2,num_8,16,num_8,0.783350637183,,,2017_Aug_02_1729,59.988051602,FEMA4ImagesEEG,001,101117,
AFNE01.JPG,AFNE01.JPG,AFNE01.JPG,AFNE01.JPG,AFNE01.JPG,AFNE01.JPG,,,,,,,,,,,,,2,0,20,0,,,,,,,,,,,AMNE20.jpg,AMSA10.jpg,AMNE01.jpg,AMSA15.jpg,AMNE01.jpg,MN,1,num_2,32,num_6,0.683354133274,,,2017_Aug_02_1729,59.988051602,FEMA4ImagesEEG,001,101117,
AFNE01.JPG,AFNE01.JPG,AFNE01.JPG,AFNE01.JPG,AFNE01.JPG,AFNE01.JPG,,,,,,,,,,,,,2,1,21,2,,,,,,,,,,,AMNE01.jpg,AMSA16.jpg,AMNE06.jpg,AMSA12.jpg,AMNE01.jpg,MN,1,num_8,16,num_8,0.733645220986,,,2017_Aug_02_1729,59.988051602,FEMA4ImagesEEG,001,101117,
AFNE01.JPG,AFNE01.JPG,AFNE01.JPG,AFNE01.JPG,AFNE01.JPG,AFNE01.JPG,,,,,,,,,,,,,2,2,22,8,,,,,,,,,,,AMNE08.jpg,AMSA16.jpg,AMSA18.jpg,AMNE19.jpg,AMNE19.jpg,MN,1,num_4,32,num_6,0.766786655644,,,2017_Aug_02_1729,59.988051602,FEMA4ImagesEEG,001,101117,
AFNE01.JPG,AFNE01.JPG,AFNE01.JPG,AFNE01.JPG,AFNE01.JPG,AFNE01.JPG,,,,,,,,,,,,,2,3,23,4,,,,,,,,,,,AMSA08.jpg,AMSA15.jpg,AMNE19.jpg,AMNE06.jpg,AMNE19.jpg,MN,1,num_2,32,num_8,0.700102219824,,,2017_Aug_02_1729,59.988051602,FEMA4ImagesEEG,001,101117,
AFNE01.JPG,AFNE01.JPG,AFNE01.JPG,AFNE01.JPG,AFNE01.JPG,AFNE01.JPG,,,,,,,,,,,,,2,4,24,5,,,,,,,,,,,AMSA16.jpg,AMNE04.jpg,AMSA13.jpg,AMNE09.jpg,AMSA16.jpg,MS,2,num_8,32,num_2,0.90014462173,,,2017_Aug_02_1729,59.988051602,FEMA4ImagesEEG,001,101117,
AFNE01.JPG,AFNE01.JPG,AFNE01.JPG,AFNE01.JPG,AFNE01.JPG,AFNE01.JPG,,,,,,,,,,,,,2,5,25,6,,,,,,,,,,,AMSA15.jpg,AMNE15.jpg,AMSA14.jpg,AMNE10.jpg,AMNE10.jpg,MN,1,num_4,32,num_6,0.966769720428,,,2017_Aug_02_1729,59.988051602,FEMA4ImagesEEG,001,101117,
AFNE01.JPG,AFNE01.JPG,AFNE01.JPG,AFNE01.JPG,AFNE01.JPG,AFNE01.JPG,,,,,,,,,,,,,2,6,26,3,,,,,,,,,,,AMSA11.jpg,AMNE01.jpg,AMSA07.jpg,AMNE05.jpg,AMNE05.jpg,MN,1,num_4,32,num_8,0.933475292986,,,2017_Aug_02_1729,59.988051602,FEMA4ImagesEEG,001,101117,
AFNE01.JPG,AFNE01.JPG,AFNE01.JPG,AFNE01.JPG,AFNE01.JPG,AFNE01.JPG,,,,,,,,,,,,,2,7,27,1,,,,,,,,,,,AMNE19.jpg,AMNE06.jpg,AMSA20.jpg,AMSA01.jpg,AMSA20.jpg,MS,2,num_2,32,num_6,0.700011450332,,,2017_Aug_02_1729,59.988051602,FEMA4ImagesEEG,001,101117,
AFNE01.JPG,AFNE01.JPG,AFNE01.JPG,AFNE01.JPG,AFNE01.JPG,AFNE01.JPG,,,,,,,,,,,,,2,8,28,7,,,,,,,,,,,AMSA10.jpg,AMSA04.jpg,AMNE12.jpg,AMNE14.jpg,AMNE12.jpg,MN,1,num_2,32,num_8,0.766784410225,,,2017_Aug_02_1729,59.988051602,FEMA4ImagesEEG,001,101117,
AFNE01.JPG,AFNE01.JPG,AFNE01.JPG,AFNE01.JPG,AFNE01.JPG,AFNE01.JPG,,,,,,,,,,,,,2,9,29,9,,,,,,,,,,,AMSA14.jpg,AMNE11.jpg,AMNE07.jpg,AMSA01.jpg,AMSA01.jpg,MS,2,num_4,16,num_4,1.18343447871,,,2017_Aug_02_1729,59.988051602,FEMA4ImagesEEG,001,101117,
AFNE01.JPG,AFNE01.JPG,AFNE01.JPG,AFNE01.JPG,AFNE01.JPG,AFNE01.JPG,,,,,,,,,,,,,3,0,30,7,,,,,,,,,,,AMSA17.jpg,AMSA02.jpg,AMNE07.jpg,AMNE15.jpg,AMSA02.jpg,MS,2,num_6,32,num_4,3.49947767472,,,2017_Aug_02_1729,59.988051602,FEMA4ImagesEEG,001,101117,
AFNE01.JPG,AFNE01.JPG,AFNE01.JPG,AFNE01.JPG,AFNE01.JPG,AFNE01.JPG,,,,,,,,,,,,,3,1,31,0,,,,,,,,,,,AMSA01.jpg,AMNE01.jpg,AMSA03.jpg,AMNE04.jpg,AMNE04.jpg,MN,1,num_4,32,num_6,0.350201376714,,,2017_Aug_02_1729,59.988051602,FEMA4ImagesEEG,001,101117,
AFNE01.JPG,AFNE01.JPG,AFNE01.JPG,AFNE01.JPG,AFNE01.JPG,AFNE01.JPG,,,,,,,,,,,,,3,2,32,4,,,,,,,,,,,AMNE10.jpg,AMNE08.jpg,AMSA07.jpg,AMSA11.jpg,AMNE10.jpg,MN,1,num_8,32,num_2,1.61677233456,,,2017_Aug_02_1729,59.988051602,FEMA4ImagesEEG,001,101117,
AFNE01.JPG,AFNE01.JPG,AFNE01.JPG,AFNE01.JPG,AFNE01.JPG,AFNE01.JPG,,,,,,,,,,,,,3,3,33,2,,,,,,,,,,,AMSA17.jpg,AMNE08.jpg,AMNE12.jpg,AMSA05.jpg,AMSA17.jpg,MS,2,num_8,32,num_2,0.850128408289,,,2017_Aug_02_1729,59.988051602,FEMA4ImagesEEG,001,101117,
AFNE01.JPG,AFNE01.JPG,AFNE01.JPG,AFNE01.JPG,AFNE01.JPG,AFNE01.JPG,,,,,,,,,,,,,3,4,34,3,,,,,,,,,,,AMNE14.jpg,AMNE19.jpg,AMSA20.jpg,AMSA06.jpg,AMSA06.jpg,MS,2,num_4,16,num_4,0.816785549046,,,2017_Aug_02_1729,59.988051602,FEMA4ImagesEEG,001,101117,
AFNE01.JPG,AFNE01.JPG,AFNE01.JPG,AFNE01.JPG,AFNE01.JPG,AFNE01.JPG,,,,,,,,,,,,,3,5,35,1,,,,,,,,,,,AMNE19.jpg,AMNE14.jpg,AMSA14.jpg,AMSA17.jpg,AMNE19.jpg,MN,1,num_8,16,num_8,3.18331259745,,,2017_Aug_02_1729,59.988051602,FEMA4ImagesEEG,001,101117,
AFNE01.JPG,AFNE01.JPG,AFNE01.JPG,AFNE01.JPG,AFNE01.JPG,AFNE01.JPG,,,,,,,,,,,,,3,6,36,9,,,,,,,,,,,AMNE07.jpg,AMSA20.jpg,AMNE19.jpg,AMSA05.jpg,AMNE19.jpg,MN,1,num_2,16,num_2,0.616777466377,,,2017_Aug_02_1729,59.988051602,FEMA4ImagesEEG,001,101117,
AFNE01.JPG,AFNE01.JPG,AFNE01.JPG,AFNE01.JPG,AFNE01.JPG,AFNE01.JPG,,,,,,,,,,,,,3,7,37,5,,,,,,,,,,,AMNE19.jpg,AMNE05.jpg,AMSA11.jpg,AMSA19.jpg,AMNE05.jpg,MN,1,num_6,16,num_6,0.683351567248,,,2017_Aug_02_1729,59.988051602,FEMA4ImagesEEG,001,101117,
AFNE01.JPG,AFNE01.JPG,AFNE01.JPG,AFNE01.JPG,AFNE01.JPG,AFNE01.JPG,,,,,,,,,,,,,3,8,38,8,,,,,,,,,,,AMNE15.jpg,AMSA16.jpg,AMSA13.jpg,AMNE03.jpg,AMSA13.jpg,MS,2,num_2,16,num_2,0.700102219824,,,2017_Aug_02_1729,59.988051602,FEMA4ImagesEEG,001,101117,
AFNE01.JPG,AFNE01.JPG,AFNE01.JPG,AFNE01.JPG,AFNE01.JPG,AFNE01.JPG,,,,,,,,,,,,,3,9,39,6,,,,,,,,,,,AMSA01.jpg,AMNE01.jpg,AMSA06.jpg,AMNE12.jpg,AMNE12.jpg,MN,1,num_4,16,num_4,2.00019982108,,,2017_Aug_02_1729,59.988051602,FEMA4ImagesEEG,001,101117,
AFNE01.JPG,AFNE01.JPG,AFNE01.JPG,AFNE01.JPG,AFNE01.JPG,AFNE01.JPG,,,,,,,,,,,,,4,0,40,8,,,,,,,,,,,AMNE14.jpg,AMSA07.jpg,AMSA15.jpg,AMNE11.jpg,AMSA15.jpg,MS,2,num_2,16,num_2,1.21649027546,,,2017_Aug_02_1729,59.988051602,FEMA4ImagesEEG,001,101117,
AFNE01.JPG,AFNE01.JPG,AFNE01.JPG,AFNE01.JPG,AFNE01.JPG,AFNE01.JPG,,,,,,,,,,,,,4,1,41,4,,,,,,,,,,,AMSA14.jpg,AMNE01.jpg,AMSA02.jpg,AMNE18.jpg,AMSA14.jpg,MS,2,num_8,16,num_8,0.800091346726,,,2017_Aug_02_1729,59.988051602,FEMA4ImagesEEG,001,101117,
AFNE01.JPG,AFNE01.JPG,AFNE01.JPG,AFNE01.JPG,AFNE01.JPG,AFNE01.JPG,,,,,,,,,,,,,4,2,42,9,,,,,,,,,,,AMSA06.jpg,AMNE02.jpg,AMNE12.jpg,AMSA15.jpg,AMNE12.jpg,MN,1,num_2,32,num_4,0.85013289866,,,2017_Aug_02_1729,59.988051602,FEMA4ImagesEEG,001,101117,
AFNE01.JPG,AFNE01.JPG,AFNE01.JPG,AFNE01.JPG,AFNE01.JPG,AFNE01.JPG,,,,,,,,,,,,,4,3,43,0,,,,,,,,,,,AMNE11.jpg,AMSA16.jpg,AMNE01.jpg,AMSA10.jpg,AMNE11.jpg,MN,1,num_8,16,num_8,0.716803799151,,,2017_Aug_02_1729,59.988051602,FEMA4ImagesEEG,001,101117,
AFNE01.JPG,AFNE01.JPG,AFNE01.JPG,AFNE01.JPG,AFNE01.JPG,AFNE01.JPG,,,,,,,,,,,,,4,4,44,7,,,,,,,,,,,AMNE11.jpg,AMNE19.jpg,AMSA14.jpg,AMSA20.jpg,AMSA20.jpg,MS,2,num_4,32,num_6,0.90012954711,,,2017_Aug_02_1729,59.988051602,FEMA4ImagesEEG,001,101117,
AFNE01.JPG,AFNE01.JPG,AFNE01.JPG,AFNE01.JPG,AFNE01.JPG,AFNE01.JPG,,,,,,,,,,,,,4,5,45,2,,,,,,,,,,,AMNE12.jpg,AMNE18.jpg,AMSA01.jpg,AMSA02.jpg,AMNE12.jpg,MN,1,num_8,32,num_4,0.616800880292,,,2017_Aug_02_1729,59.988051602,FEMA4ImagesEEG,001,101117,
AFNE01.JPG,AFNE01.JPG,AFNE01.JPG,AFNE01.JPG,AFNE01.JPG,AFNE01.JPG,,,,,,,,,,,,,4,6,46,5,,,,,,,,,,,AMSA01.jpg,AMNE06.jpg,AMSA19.jpg,AMNE03.jpg,AMSA19.jpg,MS,2,num_2,32,num_6,1.10012704507,,,2017_Aug_02_1729,59.988051602,FEMA4ImagesEEG,001,101117,
AFNE01.JPG,AFNE01.JPG,AFNE01.JPG,AFNE01.JPG,AFNE01.JPG,AFNE01.JPG,,,,,,,,,,,,,4,7,47,1,,,,,,,,,,,AMNE20.jpg,AMSA06.jpg,AMSA20.jpg,AMNE11.jpg,AMSA20.jpg,MS,2,num_2,16,num_2,1.11674170382,,,2017_Aug_02_1729,59.988051602,FEMA4ImagesEEG,001,101117,
AFNE01.JPG,AFNE01.JPG,AFNE01.JPG,AFNE01.JPG,AFNE01.JPG,AFNE01.JPG,,,,,,,,,,,,,4,8,48,3,,,,,,,,,,,AMSA12.jpg,AMSA10.jpg,AMNE20.jpg,AMNE01.jpg,AMNE01.jpg,MN,1,num_4,32,num_8,0.716753763845,,,2017_Aug_02_1729,59.988051602,FEMA4ImagesEEG,001,101117,
AFNE01.JPG,AFNE01.JPG,AFNE01.JPG,AFNE01.JPG,AFNE01.JPG,AFNE01.JPG,,,,,,,,,,,,,4,9,49,6,,,,,,,,,,,AMNE01.jpg,AMNE12.jpg,AMSA20.jpg,AMSA09.jpg,AMNE12.jpg,MN,1,num_6,16,num_6,0.683513541007,,,2017_Aug_02_1729,59.988051602,FEMA4ImagesEEG,001,101117,
AFNE01.JPG,AFNE01.JPG,AFNE01.JPG,AFNE01.JPG,AFNE01.JPG,AFNE01.JPG,,,,,,,,,,,,,5,0,50,4,,,,,,,,,,,AMSA19.jpg,AMSA04.jpg,AMNE20.jpg,AMNE12.jpg,AMNE12.jpg,MN,1,num_4,32,num_2,1.56659093988,,,2017_Aug_02_1729,59.988051602,FEMA4ImagesEEG,001,101117,
AFNE01.JPG,AFNE01.JPG,AFNE01.JPG,AFNE01.JPG,AFNE01.JPG,AFNE01.JPG,,,,,,,,,,,,,5,1,51,3,,,,,,,,,,,AMSA05.jpg,AMSA04.jpg,AMNE06.jpg,AMNE19.jpg,AMSA04.jpg,MS,2,num_6,32,num_8,1.03344998672,,,2017_Aug_02_1729,59.988051602,FEMA4ImagesEEG,001,101117,
AFNE01.JPG,AFNE01.JPG,AFNE01.JPG,AFNE01.JPG,AFNE01.JPG,AFNE01.JPG,,,,,,,,,,,,,5,2,52,5,,,,,,,,,,,AMSA18.jpg,AMNE20.jpg,AMSA02.jpg,AMNE18.jpg,AMNE18.jpg,MN,1,num_4,16,num_4,0.883463249076,,,2017_Aug_02_1729,59.988051602,FEMA4ImagesEEG,001,101117,
AFNE01.JPG,AFNE01.JPG,AFNE01.JPG,AFNE01.JPG,AFNE01.JPG,AFNE01.JPG,,,,,,,,,,,,,5,3,53,6,,,,,,,,,,,AMSA02.jpg,AMNE15.jpg,AMSA10.jpg,AMNE04.jpg,AMSA02.jpg,MS,2,num_8,16,num_8,0.883451702306,,,2017_Aug_02_1729,59.988051602,FEMA4ImagesEEG,001,101117,
AFNE01.JPG,AFNE01.JPG,AFNE01.JPG,AFNE01.JPG,AFNE01.JPG,AFNE01.JPG,,,,,,,,,,,,,5,4,54,0,,,,,,,,,,,AMNE05.jpg,AMNE17.jpg,AMSA01.jpg,AMSA08.jpg,AMNE17.jpg,MN,1,num_6,16,num_6,0.733501529554,,,2017_Aug_02_1729,59.988051602,FEMA4ImagesEEG,001,101117,
AFNE01.JPG,AFNE01.JPG,AFNE01.JPG,AFNE01.JPG,AFNE01.JPG,AFNE01.JPG,,,,,,,,,,,,,5,5,55,7,,,,,,,,,,,AMNE13.jpg,AMSA02.jpg,AMSA03.jpg,AMNE15.jpg,AMSA02.jpg,MS,2,num_6,16,num_6,0.833485524403,,,2017_Aug_02_1729,59.988051602,FEMA4ImagesEEG,001,101117,
AFNE01.JPG,AFNE01.JPG,AFNE01.JPG,AFNE01.JPG,AFNE01.JPG,AFNE01.JPG,,,,,,,,,,,,,5,6,56,8,,,,,,,,,,,AMNE15.jpg,AMSA20.jpg,AMNE06.jpg,AMSA19.jpg,AMSA19.jpg,MS,2,num_4,32,num_6,1.10009497125,,,2017_Aug_02_1729,59.988051602,FEMA4ImagesEEG,001,101117,
AFNE01.JPG,AFNE01.JPG,AFNE01.JPG,AFNE01.JPG,AFNE01.JPG,AFNE01.JPG,,,,,,,,,,,,,5,7,57,2,,,,,,,,,,,AMNE09.jpg,AMSA11.jpg,AMNE13.jpg,AMSA15.jpg,AMSA11.jpg,MS,2,num_6,32,num_2,0.800141382031,,,2017_Aug_02_1729,59.988051602,FEMA4ImagesEEG,001,101117,
AFNE01.JPG,AFNE01.JPG,AFNE01.JPG,AFNE01.JPG,AFNE01.JPG,AFNE01.JPG,,,,,,,,,,,,,5,8,58,1,,,,,,,,,,,AMSA05.jpg,AMNE17.jpg,AMSA06.jpg,AMNE11.jpg,AMNE17.jpg,MN,1,num_6,32,num_2,0.666806830093,,,2017_Aug_02_1729,59.988051602,FEMA4ImagesEEG,001,101117,
AFNE01.JPG,AFNE01.JPG,AFNE01.JPG,AFNE01.JPG,AFNE01.JPG,AFNE01.JPG,,,,,,,,,,,,,5,9,59,9,,,,,,,,,,,AMSA14.jpg,AMNE12.jpg,AMSA02.jpg,AMNE16.jpg,AMSA14.jpg,MS,2,num_8,16,num_8,0.800139137078,,,2017_Aug_02_1729,59.988051602,FEMA4ImagesEEG,001,101117,
,,,,,,,,,,,,,,,,,,,,,,,,,,,,,,,,,,,,,,,,,,,space,20.6983073582,2017_Aug_02_1729,59.988051602,FEMA4ImagesEEG,001,101117,
AFNE01.JPG,AFNE01.JPG,AFNE01.JPG,AFNE01.JPG,AFNE01.JPG,AFNE01.JPG,,,,,,,,,,,,,,,,,0,0,0,5,,,,,,,AFSA02.jpg,AFNE13.jpg,AFSA13.jpg,AFNE14.jpg,AFSA02.jpg,FS,4,num_8,32,num_2,0.833487448981,,,2017_Aug_02_1729,59.988051602,FEMA4ImagesEEG,001,101117,
AFNE01.JPG,AFNE01.JPG,AFNE01.JPG,AFNE01.JPG,AFNE01.JPG,AFNE01.JPG,,,,,,,,,,,,,,,,,0,1,1,0,,,,,,,AFNE15.jpg,AFNE03.jpg,AFSA01.jpg,AFSA19.jpg,AFSA01.jpg,FS,4,num_2,32,num_6,0.650094666518,,,2017_Aug_02_1729,59.988051602,FEMA4ImagesEEG,001,101117,
AFNE01.JPG,AFNE01.JPG,AFNE01.JPG,AFNE01.JPG,AFNE01.JPG,AFNE01.JPG,,,,,,,,,,,,,,,,,0,2,2,3,,,,,,,AFSA16.jpg,AFNE10.jpg,AFNE17.jpg,AFSA15.jpg,AFSA15.jpg,FS,4,num_4,16,num_4,0.783447821625,,,2017_Aug_02_1729,59.988051602,FEMA4ImagesEEG,001,101117,
AFNE01.JPG,AFNE01.JPG,AFNE01.JPG,AFNE01.JPG,AFNE01.JPG,AFNE01.JPG,,,,,,,,,,,,,,,,,0,3,3,8,,,,,,,AFNE03.jpg,AFSA03.jpg,AFSA15.jpg,AFNE02.jpg,AFNE02.jpg,FN,3,num_4,32,num_6,0.7002022909,,,2017_Aug_02_1729,59.988051602,FEMA4ImagesEEG,001,101117,
AFNE01.JPG,AFNE01.JPG,AFNE01.JPG,AFNE01.JPG,AFNE01.JPG,AFNE01.JPG,,,,,,,,,,,,,,,,,0,4,4,7,,,,,,,AFNE03.jpg,AFSA14.jpg,AFNE04.jpg,AFSA02.jpg,AFSA14.jpg,FS,4,num_6,16,num_6,0.733491586521,,,2017_Aug_02_1729,59.988051602,FEMA4ImagesEEG,001,101117,
AFNE01.JPG,AFNE01.JPG,AFNE01.JPG,AFNE01.JPG,AFNE01.JPG,AFNE01.JPG,,,,,,,,,,,,,,,,,0,5,5,6,,,,,,,AFSA20.jpg,AFNE18.jpg,AFSA18.jpg,AFNE10.jpg,AFNE18.jpg,FN,3,num_6,32,num_8,0.966743740486,,,2017_Aug_02_1729,59.988051602,FEMA4ImagesEEG,001,101117,
AFNE01.JPG,AFNE01.JPG,AFNE01.JPG,AFNE01.JPG,AFNE01.JPG,AFNE01.JPG,,,,,,,,,,,,,,,,,0,6,6,1,,,,,,,AFNE11.jpg,AFSA01.jpg,AFSA03.jpg,AFNE10.jpg,AFSA01.jpg,FS,4,num_6,16,num_6,0.600160883274,,,2017_Aug_02_1729,59.988051602,FEMA4ImagesEEG,001,101117,
AFNE01.JPG,AFNE01.JPG,AFNE01.JPG,AFNE01.JPG,AFNE01.JPG,AFNE01.JPG,,,,,,,,,,,,,,,,,0,7,7,4,,,,,,,AFNE14.jpg,AFSA09.jpg,AFNE10.jpg,AFSA20.jpg,AFSA09.jpg,FS,4,num_6,16,num_6,0.716783592477,,,2017_Aug_02_1729,59.988051602,FEMA4ImagesEEG,001,101117,
AFNE01.JPG,AFNE01.JPG,AFNE01.JPG,AFNE01.JPG,AFNE01.JPG,AFNE01.JPG,,,,,,,,,,,,,,,,,0,8,8,2,,,,,,,AFNE11.jpg,AFSA03.jpg,AFNE19.jpg,AFSA06.jpg,AFSA03.jpg,FS,4,num_6,16,num_6,0.533514294773,,,2017_Aug_02_1729,59.988051602,FEMA4ImagesEEG,001,101117,
AFNE01.JPG,AFNE01.JPG,AFNE01.JPG,AFNE01.JPG,AFNE01.JPG,AFNE01.JPG,,,,,,,,,,,,,,,,,0,9,9,9,,,,,,,AFSA20.jpg,AFNE05.jpg,AFNE07.jpg,AFSA06.jpg,AFNE07.jpg,FN,3,num_2,16,num_2,1.18344378006,,,2017_Aug_02_1729,59.988051602,FEMA4ImagesEEG,001,101117,
AFNE01.JPG,AFNE01.JPG,AFNE01.JPG,AFNE01.JPG,AFNE01.JPG,AFNE01.JPG,,,,,,,,,,,,,,,,,1,0,10,1,,,,,,,AFSA08.jpg,AFNE11.jpg,AFNE19.jpg,AFSA11.jpg,AFNE19.jpg,FN,3,num_2,32,num_8,0.583384571597,,,2017_Aug_02_1729,59.988051602,FEMA4ImagesEEG,001,101117,
AFNE01.JPG,AFNE01.JPG,AFNE01.JPG,AFNE01.JPG,AFNE01.JPG,AFNE01.JPG,,,,,,,,,,,,,,,,,1,1,11,0,,,,,,,AFSA01.jpg,AFNE17.jpg,AFNE20.jpg,AFSA19.jpg,AFSA01.jpg,FS,4,num_8,32,num_4,0.750168468803,,,2017_Aug_02_1729,59.988051602,FEMA4ImagesEEG,001,101117,
AFNE01.JPG,AFNE01.JPG,AFNE01.JPG,AFNE01.JPG,AFNE01.JPG,AFNE01.JPG,,,,,,,,,,,,,,,,,1,2,12,8,,,,,,,AFNE08.jpg,AFNE18.jpg,AFSA19.jpg,AFSA13.jpg,AFSA19.jpg,FS,4,num_2,16,num_2,0.63347968692,,,2017_Aug_02_1729,59.988051602,FEMA4ImagesEEG,001,101117,
AFNE01.JPG,AFNE01.JPG,AFNE01.JPG,AFNE01.JPG,AFNE01.JPG,AFNE01.JPG,,,,,,,,,,,,,,,,,1,3,13,4,,,,,,,AFNE09.jpg,AFSA13.jpg,AFSA01.jpg,AFNE01.jpg,AFNE09.jpg,FN,3,num_8,16,num_8,0.817073252751,,,2017_Aug_02_1729,59.988051602,FEMA4ImagesEEG,001,101117,
AFNE01.JPG,AFNE01.JPG,AFNE01.JPG,AFNE01.JPG,AFNE01.JPG,AFNE01.JPG,,,,,,,,,,,,,,,,,1,4,14,6,,,,,,,AFSA14.jpg,AFNE06.jpg,AFNE02.jpg,AFSA05.jpg,AFSA14.jpg,FS,4,num_8,32,num_6,0.600176278735,,,2017_Aug_02_1729,59.988051602,FEMA4ImagesEEG,001,101117,
AFNE01.JPG,AFNE01.JPG,AFNE01.JPG,AFNE01.JPG,AFNE01.JPG,AFNE01.JPG,,,,,,,,,,,,,,,,,1,5,15,3,,,,,,,AFNE13.jpg,AFSA02.jpg,AFNE03.jpg,AFSA01.jpg,AFSA01.jpg,FS,4,num_4,16,num_4,0.933485235786,,,2017_Aug_02_1729,59.988051602,FEMA4ImagesEEG,001,101117,
AFNE01.JPG,AFNE01.JPG,AFNE01.JPG,AFNE01.JPG,AFNE01.JPG,AFNE01.JPG,,,,,,,,,,,,,,,,,1,6,16,2,,,,,,,AFSA08.jpg,AFNE01.jpg,AFSA06.jpg,AFNE07.jpg,AFNE01.jpg,FN,3,num_6,32,num_8,0.716670050286,,,2017_Aug_02_1729,59.988051602,FEMA4ImagesEEG,001,101117,
AFNE01.JPG,AFNE01.JPG,AFNE01.JPG,AFNE01.JPG,AFNE01.JPG,AFNE01.JPG,,,,,,,,,,,,,,,,,1,7,17,5,,,,,,,AFSA01.jpg,AFSA03.jpg,AFNE11.jpg,AFNE13.jpg,AFSA01.jpg,FS,4,num_8,16,num_8,0.716824647272,,,2017_Aug_02_1729,59.988051602,FEMA4ImagesEEG,001,101117,
AFNE01.JPG,AFNE01.JPG,AFNE01.JPG,AFNE01.JPG,AFNE01.JPG,AFNE01.JPG,,,,,,,,,,,,,,,,,1,8,18,9,,,,,,,AFNE08.jpg,AFSA10.jpg,AFSA18.jpg,AFNE07.jpg,AFNE08.jpg,FN,3,num_8,16,num_8,0.683561973041,,,2017_Aug_02_1729,59.988051602,FEMA4ImagesEEG,001,101117,
AFNE01.JPG,AFNE01.JPG,AFNE01.JPG,AFNE01.JPG,AFNE01.JPG,AFNE01.JPG,,,,,,,,,,,,,,,,,1,9,19,7,,,,,,,AFSA03.jpg,AFNE09.jpg,AFNE07.jpg,AFSA14.jpg,AFSA14.jpg,FS,4,num_4,32,num_6,0.866776744835,,,2017_Aug_02_1729,59.988051602,FEMA4ImagesEEG,001,101117,
AFNE01.JPG,AFNE01.JPG,AFNE01.JPG,AFNE01.JPG,AFNE01.JPG,AFNE01.JPG,,,,,,,,,,,,,,,,,2,0,20,8,,,,,,,AFSA13.jpg,AFNE03.jpg,AFSA03.jpg,AFNE06.jpg,AFSA13.jpg,FS,4,num_8,16,num_8,0.783528327243,,,2017_Aug_02_1729,59.988051602,FEMA4ImagesEEG,001,101117,
AFNE01.JPG,AFNE01.JPG,AFNE01.JPG,AFNE01.JPG,AFNE01.JPG,AFNE01.JPG,,,,,,,,,,,,,,,,,2,1,21,6,,,,,,,AFSA05.jpg,AFNE06.jpg,AFSA12.jpg,AFNE19.jpg,AFSA05.jpg,FS,4,num_8,32,num_4,0.650157531491,,,2017_Aug_02_1729,59.988051602,FEMA4ImagesEEG,001,101117,
AFNE01.JPG,AFNE01.JPG,AFNE01.JPG,AFNE01.JPG,AFNE01.JPG,AFNE01.JPG,,,,,,,,,,,,,,,,,2,2,22,7,,,,,,,AFSA06.jpg,AFSA19.jpg,AFNE17.jpg,AFNE12.jpg,AFSA19.jpg,FS,4,num_6,32,num_8,1.40009506745,,,2017_Aug_02_1729,59.988051602,FEMA4ImagesEEG,001,101117,
AFNE01.JPG,AFNE01.JPG,AFNE01.JPG,AFNE01.JPG,AFNE01.JPG,AFNE01.JPG,,,,,,,,,,,,,,,,,2,3,23,3,,,,,,,AFSA06.jpg,AFNE17.jpg,AFSA03.jpg,AFNE18.jpg,AFSA03.jpg,FS,4,num_2,32,num_8,1.01674391702,,,2017_Aug_02_1729,59.988051602,FEMA4ImagesEEG,001,101117,
AFNE01.JPG,AFNE01.JPG,AFNE01.JPG,AFNE01.JPG,AFNE01.JPG,AFNE01.JPG,,,,,,,,,,,,,,,,,2,4,24,1,,,,,,,AFSA20.jpg,AFNE18.jpg,AFNE17.jpg,AFSA12.jpg,AFSA20.jpg,FS,4,num_8,32,num_6,0.583480152069,,,2017_Aug_02_1729,59.988051602,FEMA4ImagesEEG,001,101117,
AFNE01.JPG,AFNE01.JPG,AFNE01.JPG,AFNE01.JPG,AFNE01.JPG,AFNE01.JPG,,,,,,,,,,,,,,,,,2,5,25,0,,,,,,,AFSA17.jpg,AFNE17.jpg,AFNE09.jpg,AFSA01.jpg,AFNE09.jpg,FN,3,num_2,16,num_2,0.766676000319,,,2017_Aug_02_1729,59.988051602,FEMA4ImagesEEG,001,101117,
AFNE01.JPG,AFNE01.JPG,AFNE01.JPG,AFNE01.JPG,AFNE01.JPG,AFNE01.JPG,,,,,,,,,,,,,,,,,2,6,26,9,,,,,,,AFSA08.jpg,AFNE09.jpg,AFSA11.jpg,AFNE12.jpg,AFSA08.jpg,FS,4,num_8,32,num_4,1.10012351698,,,2017_Aug_02_1729,59.988051602,FEMA4ImagesEEG,001,101117,
AFNE01.JPG,AFNE01.JPG,AFNE01.JPG,AFNE01.JPG,AFNE01.JPG,AFNE01.JPG,,,,,,,,,,,,,,,,,2,7,27,4,,,,,,,AFSA17.jpg,AFNE16.jpg,AFNE03.jpg,AFSA03.jpg,AFSA17.jpg,FS,4,num_8,32,num_6,0.783494328847,,,2017_Aug_02_1729,59.988051602,FEMA4ImagesEEG,001,101117,
AFNE01.JPG,AFNE01.JPG,AFNE01.JPG,AFNE01.JPG,AFNE01.JPG,AFNE01.JPG,,,,,,,,,,,,,,,,,2,8,28,2,,,,,,,AFSA09.jpg,AFNE06.jpg,AFNE09.jpg,AFSA05.jpg,AFSA09.jpg,FS,4,num_8,32,num_2,0.833469808102,,,2017_Aug_02_1729,59.988051602,FEMA4ImagesEEG,001,101117,
AFNE01.JPG,AFNE01.JPG,AFNE01.JPG,AFNE01.JPG,AFNE01.JPG,AFNE01.JPG,,,,,,,,,,,,,,,,,2,9,29,5,,,,,,,AFNE14.jpg,AFSA17.jpg,AFSA01.jpg,AFNE11.jpg,AFNE11.jpg,FN,3,num_4,32,num_6,0.633463650011,,,2017_Aug_02_1729,59.988051602,FEMA4ImagesEEG,001,101117,
AFNE01.JPG,AFNE01.JPG,AFNE01.JPG,AFNE01.JPG,AFNE01.JPG,AFNE01.JPG,,,,,,,,,,,,,,,,,3,0,30,3,,,,,,,AFSA15.jpg,AFNE04.jpg,AFSA17.jpg,AFNE14.jpg,AFSA17.jpg,FS,4,num_2,16,num_2,0.800146834692,,,2017_Aug_02_1729,59.988051602,FEMA4ImagesEEG,001,101117,
AFNE01.JPG,AFNE01.JPG,AFNE01.JPG,AFNE01.JPG,AFNE01.JPG,AFNE01.JPG,,,,,,,,,,,,,,,,,3,1,31,7,,,,,,,AFSA14.jpg,AFNE15.jpg,AFSA06.jpg,AFNE06.jpg,AFNE06.jpg,FN,3,num_4,16,num_4,0.883438231423,,,2017_Aug_02_1729,59.988051602,FEMA4ImagesEEG,001,101117,
AFNE01.JPG,AFNE01.JPG,AFNE01.JPG,AFNE01.JPG,AFNE01.JPG,AFNE01.JPG,,,,,,,,,,,,,,,,,3,2,32,9,,,,,,,AFSA14.jpg,AFSA03.jpg,AFNE12.jpg,AFNE20.jpg,AFNE20.jpg,FN,3,num_4,32,num_2,0.833486486692,,,2017_Aug_02_1729,59.988051602,FEMA4ImagesEEG,001,101117,
AFNE01.JPG,AFNE01.JPG,AFNE01.JPG,AFNE01.JPG,AFNE01.JPG,AFNE01.JPG,,,,,,,,,,,,,,,,,3,3,33,5,,,,,,,AFSA02.jpg,AFNE09.jpg,AFSA16.jpg,AFNE04.jpg,AFNE09.jpg,FN,3,num_6,32,num_8,0.750144092366,,,2017_Aug_02_1729,59.988051602,FEMA4ImagesEEG,001,101117,
AFNE01.JPG,AFNE01.JPG,AFNE01.JPG,AFNE01.JPG,AFNE01.JPG,AFNE01.JPG,,,,,,,,,,,,,,,,,3,4,34,4,,,,,,,AFSA04.jpg,AFNE07.jpg,AFSA01.jpg,AFNE15.jpg,AFSA01.jpg,FS,4,num_2,16,num_2,1.33342666877,,,2017_Aug_02_1729,59.988051602,FEMA4ImagesEEG,001,101117,
AFNE01.JPG,AFNE01.JPG,AFNE01.JPG,AFNE01.JPG,AFNE01.JPG,AFNE01.JPG,,,,,,,,,,,,,,,,,3,5,35,0,,,,,,,AFNE11.jpg,AFSA17.jpg,AFNE10.jpg,AFSA16.jpg,AFSA16.jpg,FS,4,num_4,32,num_6,0.866831270512,,,2017_Aug_02_1729,59.988051602,FEMA4ImagesEEG,001,101117,
AFNE01.JPG,AFNE01.JPG,AFNE01.JPG,AFNE01.JPG,AFNE01.JPG,AFNE01.JPG,,,,,,,,,,,,,,,,,3,6,36,8,,,,,,,AFNE03.jpg,AFNE04.jpg,AFSA03.jpg,AFSA19.jpg,AFNE04.jpg,FN,3,num_6,16,num_6,0.633486101869,,,2017_Aug_02_1729,59.988051602,FEMA4ImagesEEG,001,101117,
AFNE01.JPG,AFNE01.JPG,AFNE01.JPG,AFNE01.JPG,AFNE01.JPG,AFNE01.JPG,,,,,,,,,,,,,,,,,3,7,37,1,,,,,,,AFSA16.jpg,AFSA04.jpg,AFNE20.jpg,AFNE17.jpg,AFNE17.jpg,FN,3,num_4,32,num_8,0.933469840325,,,2017_Aug_02_1729,59.988051602,FEMA4ImagesEEG,001,101117,
AFNE01.JPG,AFNE01.JPG,AFNE01.JPG,AFNE01.JPG,AFNE01.JPG,AFNE01.JPG,,,,,,,,,,,,,,,,,3,8,38,6,,,,,,,AFNE03.jpg,AFNE05.jpg,AFSA20.jpg,AFSA10.jpg,AFNE03.jpg,FN,3,num_8,16,num_8,1.08343284298,,,2017_Aug_02_1729,59.988051602,FEMA4ImagesEEG,001,101117,
AFNE01.JPG,AFNE01.JPG,AFNE01.JPG,AFNE01.JPG,AFNE01.JPG,AFNE01.JPG,,,,,,,,,,,,,,,,,3,9,39,2,,,,,,,AFNE14.jpg,AFNE13.jpg,AFSA15.jpg,AFSA10.jpg,AFNE13.jpg,FN,3,num_6,32,num_8,0.833452167455,,,2017_Aug_02_1729,59.988051602,FEMA4ImagesEEG,001,101117,
AFNE01.JPG,AFNE01.JPG,AFNE01.JPG,AFNE01.JPG,AFNE01.JPG,AFNE01.JPG,,,,,,,,,,,,,,,,,4,0,40,0,,,,,,,AFSA02.jpg,AFNE14.jpg,AFNE18.jpg,AFSA01.jpg,AFNE18.jpg,FN,3,num_2,16,num_2,0.650079271058,,,2017_Aug_02_1729,59.988051602,FEMA4ImagesEEG,001,101117,
AFNE01.JPG,AFNE01.JPG,AFNE01.JPG,AFNE01.JPG,AFNE01.JPG,AFNE01.JPG,,,,,,,,,,,,,,,,,4,1,41,1,,,,,,,AFNE02.jpg,AFNE07.jpg,AFSA08.jpg,AFSA03.jpg,AFNE02.jpg,FN,3,num_8,32,num_2,1.68343560118,,,2017_Aug_02_1729,59.988051602,FEMA4ImagesEEG,001,101117,
AFNE01.JPG,AFNE01.JPG,AFNE01.JPG,AFNE01.JPG,AFNE01.JPG,AFNE01.JPG,,,,,,,,,,,,,,,,,4,2,42,6,,,,,,,AFNE18.jpg,AFSA11.jpg,AFNE06.jpg,AFSA16.jpg,AFNE06.jpg,FN,3,num_2,32,num_8,0.516822017031,,,2017_Aug_02_1729,59.988051602,FEMA4ImagesEEG,001,101117,
AFNE01.JPG,AFNE01.JPG,AFNE01.JPG,AFNE01.JPG,AFNE01.JPG,AFNE01.JPG,,,,,,,,,,,,,,,,,4,3,43,3,,,,,,,AFSA14.jpg,AFSA18.jpg,AFNE11.jpg,AFNE16.jpg,AFNE11.jpg,FN,3,num_2,16,num_2,0.500206075609,,,2017_Aug_02_1729,59.988051602,FEMA4ImagesEEG,001,101117,
AFNE01.JPG,AFNE01.JPG,AFNE01.JPG,AFNE01.JPG,AFNE01.JPG,AFNE01.JPG,,,,,,,,,,,,,,,,,4,4,44,5,,,,,,,AFNE04.jpg,AFNE16.jpg,AFSA19.jpg,AFSA04.jpg,AFNE04.jpg,FN,3,num_8,32,num_6,0.616485913517,,,2017_Aug_02_1729,59.988051602,FEMA4ImagesEEG,001,101117,
AFNE01.JPG,AFNE01.JPG,AFNE01.JPG,AFNE01.JPG,AFNE01.JPG,AFNE01.JPG,,,,,,,,,,,,,,,,,4,5,45,8,,,,,,,AFNE18.jpg,AFSA17.jpg,AFSA05.jpg,AFNE08.jpg,AFNE08.jpg,FN,3,num_4,32,num_8,0.450146241346,,,2017_Aug_02_1729,59.988051602,FEMA4ImagesEEG,001,101117,
AFNE01.JPG,AFNE01.JPG,AFNE01.JPG,AFNE01.JPG,AFNE01.JPG,AFNE01.JPG,,,,,,,,,,,,,,,,,4,6,46,2,,,,,,,AFNE11.jpg,AFNE15.jpg,AFSA12.jpg,AFSA18.jpg,AFSA12.jpg,FS,4,num_2,16,num_2,0.716813100735,,,2017_Aug_02_1729,59.988051602,FEMA4ImagesEEG,001,101117,
AFNE01.JPG,AFNE01.JPG,AFNE01.JPG,AFNE01.JPG,AFNE01.JPG,AFNE01.JPG,,,,,,,,,,,,,,,,,4,7,47,7,,,,,,,AFNE20.jpg,AFSA13.jpg,AFNE06.jpg,AFSA11.jpg,AFNE20.jpg,FN,3,num_8,16,num_8,0.750160770956,,,2017_Aug_02_1729,59.988051602,FEMA4ImagesEEG,001,101117,
AFNE01.JPG,AFNE01.JPG,AFNE01.JPG,AFNE01.JPG,AFNE01.JPG,AFNE01.JPG,,,,,,,,,,,,,,,,,4,8,48,9,,,,,,,AFNE17.jpg,AFSA11.jpg,AFNE01.jpg,AFSA18.jpg,AFNE01.jpg,FN,3,num_2,16,num_2,0.949983786559,,,2017_Aug_02_1729,59.988051602,FEMA4ImagesEEG,001,101117,
AFNE01.JPG,AFNE01.JPG,AFNE01.JPG,AFNE01.JPG,AFNE01.JPG,AFNE01.JPG,,,,,,,,,,,,,,,,,4,9,49,4,,,,,,,AFNE18.jpg,AFSA20.jpg,AFSA19.jpg,AFNE16.jpg,AFNE16.jpg,FN,3,num_4,32,num_8,0.633540306939,,,2017_Aug_02_1729,59.988051602,FEMA4ImagesEEG,001,101117,
AFNE01.JPG,AFNE01.JPG,AFNE01.JPG,AFNE01.JPG,AFNE01.JPG,AFNE01.JPG,,,,,,,,,,,,,,,,,5,0,50,4,,,,,,,AFSA20.jpg,AFSA09.jpg,AFNE14.jpg,AFNE20.jpg,AFNE14.jpg,FN,3,num_2,32,num_6,0.633505987935,,,2017_Aug_02_1729,59.988051602,FEMA4ImagesEEG,001,101117,
AFNE01.JPG,AFNE01.JPG,AFNE01.JPG,AFNE01.JPG,AFNE01.JPG,AFNE01.JPG,,,,,,,,,,,,,,,,,5,1,51,9,,,,,,,AFSA20.jpg,AFNE13.jpg,AFSA05.jpg,AFNE08.jpg,AFSA05.jpg,FS,4,num_2,32,num_4,0.600176278735,,,2017_Aug_02_1729,59.988051602,FEMA4ImagesEEG,001,101117,
AFNE01.JPG,AFNE01.JPG,AFNE01.JPG,AFNE01.JPG,AFNE01.JPG,AFNE01.JPG,,,,,,,,,,,,,,,,,5,2,52,8,,,,,,,AFNE07.jpg,AFNE11.jpg,AFSA03.jpg,AFSA17.jpg,AFNE07.jpg,FN,3,num_8,16,num_8,0.633505666861,,,2017_Aug_02_1729,59.988051602,FEMA4ImagesEEG,001,101117,
AFNE01.JPG,AFNE01.JPG,AFNE01.JPG,AFNE01.JPG,AFNE01.JPG,AFNE01.JPG,,,,,,,,,,,,,,,,,5,3,53,2,,,,,,,AFSA14.jpg,AFSA10.jpg,AFNE10.jpg,AFNE20.jpg,AFNE10.jpg,FN,3,num_2,32,num_6,0.300198313547,,,2017_Aug_02_1729,59.988051602,FEMA4ImagesEEG,001,101117,
AFNE01.JPG,AFNE01.JPG,AFNE01.JPG,AFNE01.JPG,AFNE01.JPG,AFNE01.JPG,,,,,,,,,,,,,,,,,5,4,54,1,,,,,,,AFSA14.jpg,AFNE06.jpg,AFNE16.jpg,AFSA02.jpg,AFSA14.jpg,FS,4,num_8,32,num_4,0.700141670881,,,2017_Aug_02_1729,59.988051602,FEMA4ImagesEEG,001,101117,
AFNE01.JPG,AFNE01.JPG,AFNE01.JPG,AFNE01.JPG,AFNE01.JPG,AFNE01.JPG,,,,,,,,,,,,,,,,,5,5,55,5,,,,,,,AFNE08.jpg,AFNE11.jpg,AFSA06.jpg,AFSA20.jpg,AFSA20.jpg,FS,4,num_4,32,num_8,1.45008465927,,,2017_Aug_02_1729,59.988051602,FEMA4ImagesEEG,001,101117,
AFNE01.JPG,AFNE01.JPG,AFNE01.JPG,AFNE01.JPG,AFNE01.JPG,AFNE01.JPG,,,,,,,,,,,,,,,,,5,6,56,0,,,,,,,AFNE17.jpg,AFSA13.jpg,AFSA02.jpg,AFNE09.jpg,AFSA02.jpg,FS,4,num_2,32,num_6,0.633585210657,,,2017_Aug_02_1729,59.988051602,FEMA4ImagesEEG,001,101117,
AFNE01.JPG,AFNE01.JPG,AFNE01.JPG,AFNE01.JPG,AFNE01.JPG,AFNE01.JPG,,,,,,,,,,,,,,,,,5,7,57,6,,,,,,,AFNE03.jpg,AFSA09.jpg,AFNE06.jpg,AFSA19.jpg,AFNE06.jpg,FN,3,num_2,16,num_2,0.583515754202,,,2017_Aug_02_1729,59.988051602,FEMA4ImagesEEG,001,101117,
AFNE01.JPG,AFNE01.JPG,AFNE01.JPG,AFNE01.JPG,AFNE01.JPG,AFNE01.JPG,,,,,,,,,,,,,,,,,5,8,58,7,,,,,,,AFSA04.jpg,AFSA17.jpg,AFNE09.jpg,AFNE07.jpg,AFNE07.jpg,FN,3,num_4,32,num_8,0.733437381452,,,2017_Aug_02_1729,59.988051602,FEMA4ImagesEEG,001,101117,
AFNE01.JPG,AFNE01.JPG,AFNE01.JPG,AFNE01.JPG,AFNE01.JPG,AFNE01.JPG,,,,,,,,,,,,,,,,,5,9,59,3,,,,,,,AFSA12.jpg,AFNE20.jpg,AFSA19.jpg,AFNE18.jpg,AFSA19.jpg,FS,4,num_2,32,num_4,0.350160001311,,,2017_Aug_02_1729,59.988051602,FEMA4ImagesEEG,001,101117,
,,,,,,,,,,,,,,,,,,,,,,,,,,,,,,,,,,,,,,,,,,,space,19.865305189,2017_Aug_02_1729,59.988051602,FEMA4ImagesEEG,001,101117,
AFNE01.JPG,AFNE01.JPG,AFNE01.JPG,AFNE01.JPG,AFNE01.JPG,AFNE01.JPG,,,,,,,,,,,,,,,,,,,,,0,0,0,6,,,AMSA14.jpg,AMNE10.jpg,AMNE05.jpg,AMSA01.jpg,AMNE05.jpg,MN,1,num_2,16,num_2,0.61681884178,,,2017_Aug_02_1729,59.988051602,FEMA4ImagesEEG,001,101117,
AFNE01.JPG,AFNE01.JPG,AFNE01.JPG,AFNE01.JPG,AFNE01.JPG,AFNE01.JPG,,,,,,,,,,,,,,,,,,,,,0,1,1,0,,,AMNE03.jpg,AMNE09.jpg,AMSA11.jpg,AMSA05.jpg,AMNE03.jpg,MN,1,num_8,32,num_4,0.750140243676,,,2017_Aug_02_1729,59.988051602,FEMA4ImagesEEG,001,101117,
AFNE01.JPG,AFNE01.JPG,AFNE01.JPG,AFNE01.JPG,AFNE01.JPG,AFNE01.JPG,,,,,,,,,,,,,,,,,,,,,0,2,2,9,,,AMSA18.jpg,AMNE14.jpg,AMSA04.jpg,AMNE16.jpg,AMSA18.jpg,MS,2,num_8,32,num_2,0.650147588691,,,2017_Aug_02_1729,59.988051602,FEMA4ImagesEEG,001,101117,
AFNE01.JPG,AFNE01.JPG,AFNE01.JPG,AFNE01.JPG,AFNE01.JPG,AFNE01.JPG,,,,,,,,,,,,,,,,,,,,,0,3,3,8,,,AMSA18.jpg,AMSA07.jpg,AMNE04.jpg,AMNE11.jpg,AMNE04.jpg,MN,1,num_2,32,num_6,0.599999550963,,,2017_Aug_02_1729,59.988051602,FEMA4ImagesEEG,001,101117,
AFNE01.JPG,AFNE01.JPG,AFNE01.JPG,AFNE01.JPG,AFNE01.JPG,AFNE01.JPG,,,,,,,,,,,,,,,,,,,,,0,4,4,2,,,AMNE06.jpg,AMSA15.jpg,AMNE20.jpg,AMSA01.jpg,AMNE06.jpg,MN,1,num_8,32,num_2,1.05009671929,,,2017_Aug_02_1729,59.988051602,FEMA4ImagesEEG,001,101117,
AFNE01.JPG,AFNE01.JPG,AFNE01.JPG,AFNE01.JPG,AFNE01.JPG,AFNE01.JPG,,,,,,,,,,,,,,,,,,,,,0,5,5,5,,,AMSA06.jpg,AMNE14.jpg,AMSA19.jpg,AMNE08.jpg,AMNE14.jpg,MN,1,num_6,16,num_6,0.516837091884,,,2017_Aug_02_1729,59.988051602,FEMA4ImagesEEG,001,101117,
AFNE01.JPG,AFNE01.JPG,AFNE01.JPG,AFNE01.JPG,AFNE01.JPG,AFNE01.JPG,,,,,,,,,,,,,,,,,,,,,0,6,6,4,,,AMSA16.jpg,AMSA04.jpg,AMNE06.jpg,AMNE03.jpg,AMSA16.jpg,MS,2,num_8,32,num_4,0.666799453087,,,2017_Aug_02_1729,59.988051602,FEMA4ImagesEEG,001,101117,
AFNE01.JPG,AFNE01.JPG,AFNE01.JPG,AFNE01.JPG,AFNE01.JPG,AFNE01.JPG,,,,,,,,,,,,,,,,,,,,,0,7,7,3,,,AMSA02.jpg,AMNE01.jpg,AMSA01.jpg,AMNE12.jpg,AMNE12.jpg,MN,1,num_4,32,num_6,1.45006830152,,,2017_Aug_02_1729,59.988051602,FEMA4ImagesEEG,001,101117,
AFNE01.JPG,AFNE01.JPG,AFNE01.JPG,AFNE01.JPG,AFNE01.JPG,AFNE01.JPG,,,,,,,,,,,,,,,,,,,,,0,8,8,1,,,AMNE20.jpg,AMNE12.jpg,AMSA11.jpg,AMSA10.jpg,AMSA10.jpg,MS,2,num_4,16,num_4,0.983500807779,,,2017_Aug_02_1729,59.988051602,FEMA4ImagesEEG,001,101117,
AFNE01.JPG,AFNE01.JPG,AFNE01.JPG,AFNE01.JPG,AFNE01.JPG,AFNE01.JPG,,,,,,,,,,,,,,,,,,,,,0,9,9,7,,,AMSA20.jpg,AMNE09.jpg,AMSA05.jpg,AMNE04.jpg,AMNE04.jpg,MN,1,num_4,16,num_4,1.03341181832,,,2017_Aug_02_1729,59.988051602,FEMA4ImagesEEG,001,101117,
AFNE01.JPG,AFNE01.JPG,AFNE01.JPG,AFNE01.JPG,AFNE01.JPG,AFNE01.JPG,,,,,,,,,,,,,,,,,,,,,1,0,10,1,,,AMSA12.jpg,AMNE11.jpg,AMNE02.jpg,AMSA16.jpg,AMSA16.jpg,MS,2,num_4,16,num_4,1.10008374508,,,2017_Aug_02_1729,59.988051602,FEMA4ImagesEEG,001,101117,
AFNE01.JPG,AFNE01.JPG,AFNE01.JPG,AFNE01.JPG,AFNE01.JPG,AFNE01.JPG,,,,,,,,,,,,,,,,,,,,,1,1,11,0,,,AMSA06.jpg,AMNE02.jpg,AMNE13.jpg,AMSA14.jpg,AMNE02.jpg,MN,1,num_6,16,num_6,0.733463361394,,,2017_Aug_02_1729,59.988051602,FEMA4ImagesEEG,001,101117,
AFNE01.JPG,AFNE01.JPG,AFNE01.JPG,AFNE01.JPG,AFNE01.JPG,AFNE01.JPG,,,,,,,,,,,,,,,,,,,,,1,2,12,8,,,AMNE06.jpg,AMSA13.jpg,AMNE01.jpg,AMSA07.jpg,AMSA13.jpg,MS,2,num_6,16,num_6,0.983452696819,,,2017_Aug_02_1729,59.988051602,FEMA4ImagesEEG,001,101117,
AFNE01.JPG,AFNE01.JPG,AFNE01.JPG,AFNE01.JPG,AFNE01.JPG,AFNE01.JPG,,,,,,,,,,,,,,,,,,,,,1,3,13,7,,,AMNE19.jpg,AMSA13.jpg,AMNE04.jpg,AMSA01.jpg,AMNE04.jpg,MN,1,num_2,16,num_2,0.616750524146,,,2017_Aug_02_1729,59.988051602,FEMA4ImagesEEG,001,101117,
AFNE01.JPG,AFNE01.JPG,AFNE01.JPG,AFNE01.JPG,AFNE01.JPG,AFNE01.JPG,,,,,,,,,,,,,,,,,,,,,1,4,14,3,,,AMNE15.jpg,AMSA15.jpg,AMNE20.jpg,AMSA10.jpg,AMSA15.jpg,MS,2,num_6,32,num_8,0.86673023738,,,2017_Aug_02_1729,59.988051602,FEMA4ImagesEEG,001,101117,
AFNE01.JPG,AFNE01.JPG,AFNE01.JPG,AFNE01.JPG,AFNE01.JPG,AFNE01.JPG,,,,,,,,,,,,,,,,,,,,,1,5,15,9,,,AMNE10.jpg,AMSA10.jpg,AMNE17.jpg,AMSA13.jpg,AMNE10.jpg,MN,1,num_8,32,num_6,0.766775108874,,,2017_Aug_02_1729,59.988051602,FEMA4ImagesEEG,001,101117,
AFNE01.JPG,AFNE01.JPG,AFNE01.JPG,AFNE01.JPG,AFNE01.JPG,AFNE01.JPG,,,,,,,,,,,,,,,,,,,,,1,6,16,4,,,AMNE02.jpg,AMNE13.jpg,AMSA04.jpg,AMSA10.jpg,AMSA10.jpg,MS,2,num_4,32,num_8,1.0334307421,,,2017_Aug_02_1729,59.988051602,FEMA4ImagesEEG,001,101117,
AFNE01.JPG,AFNE01.JPG,AFNE01.JPG,AFNE01.JPG,AFNE01.JPG,AFNE01.JPG,,,,,,,,,,,,,,,,,,,,,1,7,17,6,,,AMSA03.jpg,AMNE15.jpg,AMNE07.jpg,AMSA02.jpg,AMSA02.jpg,MS,2,num_4,32,num_2,0.767011815216,,,2017_Aug_02_1729,59.988051602,FEMA4ImagesEEG,001,101117,
AFNE01.JPG,AFNE01.JPG,AFNE01.JPG,AFNE01.JPG,AFNE01.JPG,AFNE01.JPG,,,,,,,,,,,,,,,,,,,,,1,8,18,2,,,AMNE14.jpg,AMSA09.jpg,AMSA05.jpg,AMNE13.jpg,AMSA09.jpg,MS,2,num_6,32,num_4,0.766622115858,,,2017_Aug_02_1729,59.988051602,FEMA4ImagesEEG,001,101117,
AFNE01.JPG,AFNE01.JPG,AFNE01.JPG,AFNE01.JPG,AFNE01.JPG,AFNE01.JPG,,,,,,,,,,,,,,,,,,,,,1,9,19,5,,,AMNE18.jpg,AMSA09.jpg,AMSA05.jpg,AMNE03.jpg,AMNE18.jpg,MN,1,num_8,16,num_8,0.566784025403,,,2017_Aug_02_1729,59.988051602,FEMA4ImagesEEG,001,101117,
AFNE01.JPG,AFNE01.JPG,AFNE01.JPG,AFNE01.JPG,AFNE01.JPG,AFNE01.JPG,,,,,,,,,,,,,,,,,,,,,2,0,20,0,,,AMNE18.jpg,AMSA12.jpg,AMSA09.jpg,AMNE04.jpg,AMSA09.jpg,MS,2,num_2,32,num_4,0.633522666292,,,2017_Aug_02_1729,59.988051602,FEMA4ImagesEEG,001,101117,
AFNE01.JPG,AFNE01.JPG,AFNE01.JPG,AFNE01.JPG,AFNE01.JPG,AFNE01.JPG,,,,,,,,,,,,,,,,,,,,,2,1,21,9,,,AMSA16.jpg,AMSA19.jpg,AMNE20.jpg,AMNE02.jpg,AMNE02.jpg,MN,1,num_4,32,num_6,0.550234477036,,,2017_Aug_02_1729,59.988051602,FEMA4ImagesEEG,001,101117,
AFNE01.JPG,AFNE01.JPG,AFNE01.JPG,AFNE01.JPG,AFNE01.JPG,AFNE01.JPG,,,,,,,,,,,,,,,,,,,,,2,2,22,4,,,AMSA19.jpg,AMSA04.jpg,AMNE19.jpg,AMNE18.jpg,AMNE18.jpg,MN,1,num_4,32,num_2,1.78339489945,,,2017_Aug_02_1729,59.988051602,FEMA4ImagesEEG,001,101117,
AFNE01.JPG,AFNE01.JPG,AFNE01.JPG,AFNE01.JPG,AFNE01.JPG,AFNE01.JPG,,,,,,,,,,,,,,,,,,,,,2,3,23,1,,,AMSA06.jpg,AMNE11.jpg,AMNE17.jpg,AMSA03.jpg,AMNE17.jpg,MN,1,num_2,32,num_6,0.866777706891,,,2017_Aug_02_1729,59.988051602,FEMA4ImagesEEG,001,101117,
AFNE01.JPG,AFNE01.JPG,AFNE01.JPG,AFNE01.JPG,AFNE01.JPG,AFNE01.JPG,,,,,,,,,,,,,,,,,,,,,2,4,24,8,,,AMNE04.jpg,AMSA07.jpg,AMSA09.jpg,AMNE20.jpg,AMSA09.jpg,MS,2,num_2,32,num_6,0.816925070947,,,2017_Aug_02_1729,59.988051602,FEMA4ImagesEEG,001,101117,
AFNE01.JPG,AFNE01.JPG,AFNE01.JPG,AFNE01.JPG,AFNE01.JPG,AFNE01.JPG,,,,,,,,,,,,,,,,,,,,,2,5,25,5,,,AMNE20.jpg,AMSA05.jpg,AMNE12.jpg,AMSA16.jpg,AMNE12.jpg,MN,1,num_2,32,num_4,0.883536698529,,,2017_Aug_02_1729,59.988051602,FEMA4ImagesEEG,001,101117,
AFNE01.JPG,AFNE01.JPG,AFNE01.JPG,AFNE01.JPG,AFNE01.JPG,AFNE01.JPG,,,,,,,,,,,,,,,,,,,,,2,6,26,2,,,AMSA10.jpg,AMNE12.jpg,AMSA05.jpg,AMNE03.jpg,AMNE03.jpg,MN,1,num_4,32,num_2,0.800130797783,,,2017_Aug_02_1729,59.988051602,FEMA4ImagesEEG,001,101117,
AFNE01.JPG,AFNE01.JPG,AFNE01.JPG,AFNE01.JPG,AFNE01.JPG,AFNE01.JPG,,,,,,,,,,,,,,,,,,,,,2,7,27,6,,,AMSA12.jpg,AMNE01.jpg,AMNE06.jpg,AMSA05.jpg,AMNE01.jpg,MN,1,num_6,16,num_6,0.36669222964,,,2017_Aug_02_1729,59.988051602,FEMA4ImagesEEG,001,101117,
AFNE01.JPG,AFNE01.JPG,AFNE01.JPG,AFNE01.JPG,AFNE01.JPG,AFNE01.JPG,,,,,,,,,,,,,,,,,,,,,2,8,28,7,,,AMNE16.jpg,AMSA20.jpg,AMSA06.jpg,AMNE13.jpg,AMSA06.jpg,MS,2,num_2,16,num_2,0.750141526572,,,2017_Aug_02_1729,59.988051602,FEMA4ImagesEEG,001,101117,
AFNE01.JPG,AFNE01.JPG,AFNE01.JPG,AFNE01.JPG,AFNE01.JPG,AFNE01.JPG,,,,,,,,,,,,,,,,,,,,,2,9,29,3,,,AMSA08.jpg,AMSA11.jpg,AMNE04.jpg,AMNE18.jpg,AMNE04.jpg,MN,1,num_2,16,num_2,1.08355408278,,,2017_Aug_02_1729,59.988051602,FEMA4ImagesEEG,001,101117,
AFNE01.JPG,AFNE01.JPG,AFNE01.JPG,AFNE01.JPG,AFNE01.JPG,AFNE01.JPG,,,,,,,,,,,,,,,,,,,,,3,0,30,1,,,AMSA05.jpg,AMNE15.jpg,AMSA03.jpg,AMNE09.jpg,AMNE09.jpg,MN,1,num_4,32,num_2,1.60006145365,,,2017_Aug_02_1729,59.988051602,FEMA4ImagesEEG,001,101117,
AFNE01.JPG,AFNE01.JPG,AFNE01.JPG,AFNE01.JPG,AFNE01.JPG,AFNE01.JPG,,,,,,,,,,,,,,,,,,,,,3,1,31,9,,,AMSA08.jpg,AMSA02.jpg,AMNE14.jpg,AMNE12.jpg,AMNE14.jpg,MN,1,num_2,16,num_2,0.6168239736,,,2017_Aug_02_1729,59.988051602,FEMA4ImagesEEG,001,101117,
AFNE01.JPG,AFNE01.JPG,AFNE01.JPG,AFNE01.JPG,AFNE01.JPG,AFNE01.JPG,,,,,,,,,,,,,,,,,,,,,3,2,32,4,,,AMSA09.jpg,AMSA05.jpg,AMNE12.jpg,AMNE02.jpg,AMSA05.jpg,MS,2,num_6,16,num_6,0.700150331017,,,2017_Aug_02_1729,59.988051602,FEMA4ImagesEEG,001,101117,
AFNE01.JPG,AFNE01.JPG,AFNE01.JPG,AFNE01.JPG,AFNE01.JPG,AFNE01.JPG,,,,,,,,,,,,,,,,,,,,,3,3,33,0,,,AMSA18.jpg,AMSA09.jpg,AMNE14.jpg,AMNE03.jpg,AMNE03.jpg,MN,1,num_4,16,num_4,0.70019715908,,,2017_Aug_02_1729,59.988051602,FEMA4ImagesEEG,001,101117,
AFNE01.JPG,AFNE01.JPG,AFNE01.JPG,AFNE01.JPG,AFNE01.JPG,AFNE01.JPG,,,,,,,,,,,,,,,,,,,,,3,4,34,5,,,AMSA11.jpg,AMNE07.jpg,AMNE08.jpg,AMSA14.jpg,AMSA14.jpg,MS,2,num_4,16,num_4,0.700112162624,,,2017_Aug_02_1729,59.988051602,FEMA4ImagesEEG,001,101117,
AFNE01.JPG,AFNE01.JPG,AFNE01.JPG,AFNE01.JPG,AFNE01.JPG,AFNE01.JPG,,,,,,,,,,,,,,,,,,,,,3,5,35,2,,,AMNE20.jpg,AMNE04.jpg,AMSA17.jpg,AMSA02.jpg,AMSA02.jpg,MS,2,num_4,32,num_6,1.11679815408,,,2017_Aug_02_1729,59.988051602,FEMA4ImagesEEG,001,101117,
AFNE01.JPG,AFNE01.JPG,AFNE01.JPG,AFNE01.JPG,AFNE01.JPG,AFNE01.JPG,,,,,,,,,,,,,,,,,,,,,3,6,36,3,,,AMSA12.jpg,AMNE19.jpg,AMNE15.jpg,AMSA08.jpg,AMNE15.jpg,MN,1,num_2,16,num_2,0.616773296846,,,2017_Aug_02_1729,59.988051602,FEMA4ImagesEEG,001,101117,
AFNE01.JPG,AFNE01.JPG,AFNE01.JPG,AFNE01.JPG,AFNE01.JPG,AFNE01.JPG,,,,,,,,,,,,,,,,,,,,,3,7,37,8,,,AMNE12.jpg,AMSA19.jpg,AMSA10.jpg,AMNE01.jpg,AMNE01.jpg,MN,1,num_4,32,num_6,0.600123035954,,,2017_Aug_02_1729,59.988051602,FEMA4ImagesEEG,001,101117,
AFNE01.JPG,AFNE01.JPG,AFNE01.JPG,AFNE01.JPG,AFNE01.JPG,AFNE01.JPG,,,,,,,,,,,,,,,,,,,,,3,8,38,6,,,AMNE13.jpg,AMSA19.jpg,AMSA10.jpg,AMNE14.jpg,AMSA10.jpg,MS,2,num_2,32,num_6,0.8502570251,,,2017_Aug_02_1729,59.988051602,FEMA4ImagesEEG,001,101117,
AFNE01.JPG,AFNE01.JPG,AFNE01.JPG,AFNE01.JPG,AFNE01.JPG,AFNE01.JPG,,,,,,,,,,,,,,,,,,,,,3,9,39,7,,,AMNE15.jpg,AMNE13.jpg,AMSA06.jpg,AMSA09.jpg,AMSA06.jpg,MS,2,num_2,32,num_6,0.600155430846,,,2017_Aug_02_1729,59.988051602,FEMA4ImagesEEG,001,101117,
AFNE01.JPG,AFNE01.JPG,AFNE01.JPG,AFNE01.JPG,AFNE01.JPG,AFNE01.JPG,,,,,,,,,,,,,,,,,,,,,4,0,40,1,,,AMSA14.jpg,AMSA15.jpg,AMNE10.jpg,AMNE13.jpg,AMSA14.jpg,MS,2,num_8,16,num_8,1.21706343815,,,2017_Aug_02_1729,59.988051602,FEMA4ImagesEEG,001,101117,
