IPosition2,IPosition3,IPosition1,IPosition6,IPosition4,IPosition5,TrialsF1.thisRepN,TrialsF1.thisTrialN,TrialsF1.thisN,TrialsF1.thisIndex,TrialsM1.thisRepN,TrialsM1.thisTrialN,TrialsM1.thisN,TrialsM1.thisIndex,TrialsF2.thisRepN,TrialsF2.thisTrialN,TrialsF2.thisN,TrialsF2.thisIndex,TrialsM2.thisRepN,TrialsM2.thisTrialN,TrialsM2.thisN,TrialsM2.thisIndex,TrialsF3.thisRepN,TrialsF3.thisTrialN,TrialsF3.thisN,TrialsF3.thisIndex,TrialsM3.thisRepN,TrialsM3.thisTrialN,TrialsM3.thisN,TrialsM3.thisIndex,InstrKey_resp.keys,InstrKey_resp.rt,Image0 _Position,Image1 _Position,Image2 _Position,Image3 _Position,Center_image,condition,code,correct_answer,accuracy,Key_Resp.keys,Key_Resp.rt,BreakKey_resp.keys,BreakKey_resp.rt,date,frameRate,expName,session,participant,
,,,,,,,,,,,,,,,,,,,,,,,,,,,,,,space,17.6158996006,,,,,,,,,,,,,,2017_Aug_01_1132,59.9982103215,FEMA4ImagesEEG,001,101165,
AFSA25.JPG,AFNE24.JPG,AFSA24.JPG,AFNE21.JPG,AFSA21.JPG,AFNE25.JPG,0,0,0,2,,,,,,,,,,,,,,,,,,,,,,,AFSA05.jpg,AFNE05.jpg,AFSA14.jpg,AFNE13.jpg,AFNE13.jpg,FN,3,num_4,48,None,,,,2017_Aug_01_1132,59.9982103215,FEMA4ImagesEEG,001,101165,
AMSA21.JPG,AMNE22.JPG,AMNE21.JPG,AMSA23.JPG,AMSA22.JPG,AMNE23.JPG,0,1,1,1,,,,,,,,,,,,,,,,,,,,,,,AFNE02.jpg,AFSA05.jpg,AFSA14.jpg,AFNE01.jpg,AFSA14.jpg,FS,4,num_2,32,num_8,1.56669069012,,,2017_Aug_01_1132,59.9982103215,FEMA4ImagesEEG,001,101165,
AFNE23.JPG,AFNE24.JPG,AFNE22.JPG,AFSA24.JPG,AFSA22.JPG,AFSA23.JPG,0,2,2,8,,,,,,,,,,,,,,,,,,,,,,,AFNE02.jpg,AFNE05.jpg,AFSA11.jpg,AFSA13.jpg,AFNE05.jpg,FN,3,num_6,32,num_8,2.31667505414,,,2017_Aug_01_1132,59.9982103215,FEMA4ImagesEEG,001,101165,
AMSA21.JPG,AMNE23.JPG,AMNE21.JPG,AMSA25.JPG,AMNE25.JPG,AMSA23.JPG,0,3,3,5,,,,,,,,,,,,,,,,,,,,,,,AFNE05.jpg,AFNE18.jpg,AFSA15.jpg,AFSA13.jpg,AFSA13.jpg,FS,4,num_4,32,num_8,1.86679342319,,,2017_Aug_01_1132,59.9982103215,FEMA4ImagesEEG,001,101165,
AMNE22.JPG,AMSA24.JPG,AMSA22.JPG,AMNE25.JPG,AMNE24.JPG,AMSA25.JPG,0,4,4,7,,,,,,,,,,,,,,,,,,,,,,,AFNE05.jpg,AFNE07.jpg,AFSA15.jpg,AFSA16.jpg,AFSA16.jpg,FS,4,num_4,32,num_2,2.11639947398,,,2017_Aug_01_1132,59.9982103215,FEMA4ImagesEEG,001,101165,
AMSA25.JPG,AMNE24.JPG,AMSA24.JPG,AMNE26.JPG,AMSA21.JPG,AMNE25.JPG,0,5,5,3,,,,,,,,,,,,,,,,,,,,,,,AFSA08.jpg,AFNE08.jpg,AFNE05.jpg,AFSA02.jpg,AFNE08.jpg,FN,3,num_6,32,num_8,1.63336325833,,,2017_Aug_01_1132,59.9982103215,FEMA4ImagesEEG,001,101165,
AFNE22.JPG,AFSA24.JPG,AFSA22.JPG,AFNE25.JPG,AFNE24.JPG,AFSA25.JPG,0,6,6,6,,,,,,,,,,,,,,,,,,,,,,,AFSA08.jpg,AFNE20.jpg,AFNE13.jpg,AFSA09.jpg,AFSA09.jpg,FS,4,num_4,32,num_6,1.19998595165,,,2017_Aug_01_1132,59.9982103215,FEMA4ImagesEEG,001,101165,
AFSA21.JPG,AFNE23.JPG,AFNE21.JPG,AFSA25.JPG,AFNE25.JPG,AFSA23.JPG,0,7,7,4,,,,,,,,,,,,,,,,,,,,,,,AFNE08.jpg,AFSA13.jpg,AFSA08.jpg,AFNE10.jpg,AFNE10.jpg,FN,3,num_4,32,num_8,1.58371557528,,,2017_Aug_01_1132,59.9982103215,FEMA4ImagesEEG,001,101165,
AFSA21.JPG,AFNE22.JPG,AFNE21.JPG,AFSA23.JPG,AFSA22.JPG,AFNE23.JPG,0,8,8,0,,,,,,,,,,,,,,,,,,,,,,,AFSA07.jpg,AFSA04.jpg,AFNE14.jpg,AFNE03.jpg,AFNE03.jpg,FN,3,num_4,16,num_4,1.04978143168,,,2017_Aug_01_1132,59.9982103215,FEMA4ImagesEEG,001,101165,
AMNE23.JPG,AMNE24.JPG,AMNE22.JPG,AMSA24.JPG,AMSA22.JPG,AMSA23.JPG,0,9,9,9,,,,,,,,,,,,,,,,,,,,,,,AFSA02.jpg,AFSA14.jpg,AFNE11.jpg,AFNE15.jpg,AFSA02.jpg,FS,4,num_8,16,num_8,1.26673870487,,,2017_Aug_01_1132,59.9982103215,FEMA4ImagesEEG,001,101165,
AMNE23.JPG,AMNE24.JPG,AMNE22.JPG,AMSA24.JPG,AMSA22.JPG,AMSA23.JPG,,,,,0,0,0,9,,,,,,,,,,,,,,,,,,,AMSA19.jpg,AMNE11.jpg,AMSA16.jpg,AMNE09.jpg,AMSA16.jpg,MS,2,num_2,32,num_4,1.26671047974,,,2017_Aug_01_1132,59.9982103215,FEMA4ImagesEEG,001,101165,
AFSA25.JPG,AFNE24.JPG,AFSA24.JPG,AFNE21.JPG,AFSA21.JPG,AFNE25.JPG,,,,,0,1,1,2,,,,,,,,,,,,,,,,,,,AMNE10.jpg,AMNE13.jpg,AMSA15.jpg,AMSA19.jpg,AMNE13.jpg,MN,1,num_6,32,num_8,0.900142376544,,,2017_Aug_01_1132,59.9982103215,FEMA4ImagesEEG,001,101165,
AMSA21.JPG,AMNE23.JPG,AMNE21.JPG,AMSA25.JPG,AMNE25.JPG,AMSA23.JPG,,,,,0,2,2,5,,,,,,,,,,,,,,,,,,,AMNE05.jpg,AMNE14.jpg,AMSA14.jpg,AMSA13.jpg,AMSA14.jpg,MS,2,num_2,32,num_4,1.18343512015,,,2017_Aug_01_1132,59.9982103215,FEMA4ImagesEEG,001,101165,
AMSA21.JPG,AMNE22.JPG,AMNE21.JPG,AMSA23.JPG,AMSA22.JPG,AMNE23.JPG,,,,,0,3,3,1,,,,,,,,,,,,,,,,,,,AMSA12.jpg,AMNE01.jpg,AMSA09.jpg,AMNE09.jpg,AMNE09.jpg,MN,1,num_4,32,num_6,1.75008186884,,,2017_Aug_01_1132,59.9982103215,FEMA4ImagesEEG,001,101165,
AFNE22.JPG,AFSA24.JPG,AFSA22.JPG,AFNE25.JPG,AFNE24.JPG,AFSA25.JPG,,,,,0,4,4,6,,,,,,,,,,,,,,,,,,,AMSA07.jpg,AMNE05.jpg,AMSA13.jpg,AMNE08.jpg,AMNE05.jpg,MN,1,num_6,32,num_8,1.0166492986,,,2017_Aug_01_1132,59.9982103215,FEMA4ImagesEEG,001,101165,
AFSA21.JPG,AFNE23.JPG,AFNE21.JPG,AFSA25.JPG,AFNE25.JPG,AFSA23.JPG,,,,,0,5,5,4,,,,,,,,,,,,,,,,,,,AMSA08.jpg,AMSA07.jpg,AMNE11.jpg,AMNE17.jpg,AMSA08.jpg,MS,2,num_8,16,num_8,1.36676824512,,,2017_Aug_01_1132,59.9982103215,FEMA4ImagesEEG,001,101165,
AMNE22.JPG,AMSA24.JPG,AMSA22.JPG,AMNE25.JPG,AMNE24.JPG,AMSA25.JPG,,,,,0,6,6,7,,,,,,,,,,,,,,,,,,,AMNE07.jpg,AMSA02.jpg,AMNE16.jpg,AMSA01.jpg,AMNE16.jpg,MN,1,num_2,16,num_2,0.850124559365,,,2017_Aug_01_1132,59.9982103215,FEMA4ImagesEEG,001,101165,
AMSA25.JPG,AMNE24.JPG,AMSA24.JPG,AMNE26.JPG,AMSA21.JPG,AMNE25.JPG,,,,,0,7,7,3,,,,,,,,,,,,,,,,,,,AMNE18.jpg,AMNE17.jpg,AMSA13.jpg,AMSA16.jpg,AMSA16.jpg,MS,2,num_4,16,num_4,0.666795604164,,,2017_Aug_01_1132,59.9982103215,FEMA4ImagesEEG,001,101165,
AFSA21.JPG,AFNE22.JPG,AFNE21.JPG,AFSA23.JPG,AFSA22.JPG,AFNE23.JPG,,,,,0,8,8,0,,,,,,,,,,,,,,,,,,,AMNE11.jpg,AMSA06.jpg,AMNE16.jpg,AMSA08.jpg,AMNE16.jpg,MN,1,num_2,32,num_8,1.10012512072,,,2017_Aug_01_1132,59.9982103215,FEMA4ImagesEEG,001,101165,
AFNE23.JPG,AFNE24.JPG,AFNE22.JPG,AFSA24.JPG,AFSA22.JPG,AFSA23.JPG,,,,,0,9,9,8,,,,,,,,,,,,,,,,,,,AMSA16.jpg,AMNE08.jpg,AMSA14.jpg,AMNE17.jpg,AMNE08.jpg,MN,1,num_6,32,num_4,1.08346619993,,,2017_Aug_01_1132,59.9982103215,FEMA4ImagesEEG,001,101165,
AMSA21.JPG,AMNE22.JPG,AMNE21.JPG,AMSA23.JPG,AMSA22.JPG,AMNE23.JPG,,,,,,,,,0,0,0,1,,,,,,,,,,,,,,,AFNE05.jpg,AFSA15.jpg,AFNE18.jpg,AFSA17.jpg,AFNE18.jpg,FN,3,num_2,32,num_4,0.800169286551,,,2017_Aug_01_1132,59.9982103215,FEMA4ImagesEEG,001,101165,
AMSA25.JPG,AMNE24.JPG,AMSA24.JPG,AMNE26.JPG,AMSA21.JPG,AMNE25.JPG,,,,,,,,,0,1,1,3,,,,,,,,,,,,,,,AFNE19.jpg,AFSA11.jpg,AFSA18.jpg,AFNE17.jpg,AFNE19.jpg,FN,3,num_8,32,num_4,1.91670186771,,,2017_Aug_01_1132,59.9982103215,FEMA4ImagesEEG,001,101165,
AFNE23.JPG,AFNE24.JPG,AFNE22.JPG,AFSA24.JPG,AFSA22.JPG,AFSA23.JPG,,,,,,,,,0,2,2,8,,,,,,,,,,,,,,,AFSA14.jpg,AFNE09.jpg,AFNE07.jpg,AFSA08.jpg,AFSA14.jpg,FS,4,num_8,32,num_2,1.55102798808,,,2017_Aug_01_1132,59.9982103215,FEMA4ImagesEEG,001,101165,
AFSA21.JPG,AFNE22.JPG,AFNE21.JPG,AFSA23.JPG,AFSA22.JPG,AFNE23.JPG,,,,,,,,,0,3,3,0,,,,,,,,,,,,,,,AFNE07.jpg,AFSA15.jpg,AFNE18.jpg,AFSA08.jpg,AFSA15.jpg,FS,4,num_6,16,num_6,1.13332685456,,,2017_Aug_01_1132,59.9982103215,FEMA4ImagesEEG,001,101165,
AMNE23.JPG,AMNE24.JPG,AMNE22.JPG,AMSA24.JPG,AMSA22.JPG,AMSA23.JPG,,,,,,,,,0,4,4,9,,,,,,,,,,,,,,,AFSA18.jpg,AFSA03.jpg,AFNE13.jpg,AFNE04.jpg,AFSA18.jpg,FS,4,num_8,32,num_4,0.950132610044,,,2017_Aug_01_1132,59.9982103215,FEMA4ImagesEEG,001,101165,
AMSA21.JPG,AMNE23.JPG,AMNE21.JPG,AMSA25.JPG,AMNE25.JPG,AMSA23.JPG,,,,,,,,,0,5,5,5,,,,,,,,,,,,,,,AFNE02.jpg,AFSA07.jpg,AFSA19.jpg,AFNE11.jpg,AFSA07.jpg,FS,4,num_6,32,num_4,1.43313258211,,,2017_Aug_01_1132,59.9982103215,FEMA4ImagesEEG,001,101165,
AMNE22.JPG,AMSA24.JPG,AMSA22.JPG,AMNE25.JPG,AMNE24.JPG,AMSA25.JPG,,,,,,,,,0,6,6,7,,,,,,,,,,,,,,,AFSA17.jpg,AFNE17.jpg,AFNE16.jpg,AFSA03.jpg,AFNE17.jpg,FN,3,num_6,32,num_8,0.849977660459,,,2017_Aug_01_1132,59.9982103215,FEMA4ImagesEEG,001,101165,
AFNE22.JPG,AFSA24.JPG,AFSA22.JPG,AFNE25.JPG,AFNE24.JPG,AFSA25.JPG,,,,,,,,,0,7,7,6,,,,,,,,,,,,,,,AFSA01.jpg,AFNE17.jpg,AFSA16.jpg,AFNE20.jpg,AFSA16.jpg,FS,4,num_2,32,num_8,0.799922958249,,,2017_Aug_01_1132,59.9982103215,FEMA4ImagesEEG,001,101165,
AFSA21.JPG,AFNE23.JPG,AFNE21.JPG,AFSA25.JPG,AFNE25.JPG,AFSA23.JPG,,,,,,,,,0,8,8,4,,,,,,,,,,,,,,,AFSA07.jpg,AFNE09.jpg,AFNE13.jpg,AFSA10.jpg,AFNE13.jpg,FN,3,num_2,16,num_2,1.56668940699,,,2017_Aug_01_1132,59.9982103215,FEMA4ImagesEEG,001,101165,
AFSA25.JPG,AFNE24.JPG,AFSA24.JPG,AFNE21.JPG,AFSA21.JPG,AFNE25.JPG,,,,,,,,,0,9,9,2,,,,,,,,,,,,,,,AFNE17.jpg,AFSA10.jpg,AFSA18.jpg,AFNE02.jpg,AFNE02.jpg,FN,3,num_4,32,num_8,1.70006373106,,,2017_Aug_01_1132,59.9982103215,FEMA4ImagesEEG,001,101165,
AMSA25.JPG,AMNE24.JPG,AMSA24.JPG,AMNE26.JPG,AMSA21.JPG,AMNE25.JPG,,,,,,,,,,,,,0,0,0,3,,,,,,,,,,,AMSA03.jpg,AMNE08.jpg,AMSA08.jpg,AMNE01.jpg,AMSA08.jpg,MS,2,num_2,16,num_2,1.13309014821,,,2017_Aug_01_1132,59.9982103215,FEMA4ImagesEEG,001,101165,
AFSA25.JPG,AFNE24.JPG,AFSA24.JPG,AFNE21.JPG,AFSA21.JPG,AFNE25.JPG,,,,,,,,,,,,,0,1,1,2,,,,,,,,,,,AMNE12.jpg,AMSA11.jpg,AMNE05.jpg,AMSA16.jpg,AMSA11.jpg,MS,2,num_6,32,num_8,1.1667765202,,,2017_Aug_01_1132,59.9982103215,FEMA4ImagesEEG,001,101165,
AFSA21.JPG,AFNE22.JPG,AFNE21.JPG,AFSA23.JPG,AFSA22.JPG,AFNE23.JPG,,,,,,,,,,,,,0,2,2,0,,,,,,,,,,,AMSA07.jpg,AMSA15.jpg,AMNE14.jpg,AMNE16.jpg,AMNE16.jpg,MN,1,num_4,32,num_2,1.45022738865,,,2017_Aug_01_1132,59.9982103215,FEMA4ImagesEEG,001,101165,
AFSA21.JPG,AFNE23.JPG,AFNE21.JPG,AFSA25.JPG,AFNE25.JPG,AFSA23.JPG,,,,,,,,,,,,,0,3,3,4,,,,,,,,,,,AMNE12.jpg,AMSA19.jpg,AMNE08.jpg,AMSA18.jpg,AMNE08.jpg,MN,1,num_2,32,num_6,0.900153923314,,,2017_Aug_01_1132,59.9982103215,FEMA4ImagesEEG,001,101165,
AMNE22.JPG,AMSA24.JPG,AMSA22.JPG,AMNE25.JPG,AMNE24.JPG,AMSA25.JPG,,,,,,,,,,,,,0,4,4,7,,,,,,,,,,,AMSA11.jpg,AMNE12.jpg,AMSA19.jpg,AMNE09.jpg,AMNE12.jpg,MN,1,num_6,32,num_8,0.981448391685,,,2017_Aug_01_1132,59.9982103215,FEMA4ImagesEEG,001,101165,
AFNE23.JPG,AFNE24.JPG,AFNE22.JPG,AFSA24.JPG,AFSA22.JPG,AFSA23.JPG,,,,,,,,,,,,,0,5,5,8,,,,,,,,,,,AMSA15.jpg,AMNE13.jpg,AMSA03.jpg,AMNE08.jpg,AMSA03.jpg,MS,2,num_2,32,num_8,1.86670778552,,,2017_Aug_01_1132,59.9982103215,FEMA4ImagesEEG,001,101165,
AMNE23.JPG,AMNE24.JPG,AMNE22.JPG,AMSA24.JPG,AMSA22.JPG,AMSA23.JPG,,,,,,,,,,,,,0,6,6,9,,,,,,,,,,,AMNE10.jpg,AMSA16.jpg,AMSA07.jpg,AMNE11.jpg,AMNE10.jpg,MN,1,num_8,16,num_8,0.833533635596,,,2017_Aug_01_1132,59.9982103215,FEMA4ImagesEEG,001,101165,
AFNE22.JPG,AFSA24.JPG,AFSA22.JPG,AFNE25.JPG,AFNE24.JPG,AFSA25.JPG,,,,,,,,,,,,,0,7,7,6,,,,,,,,,,,AMSA07.jpg,AMNE10.jpg,AMNE01.jpg,AMSA11.jpg,AMSA11.jpg,MS,2,num_4,32,num_2,1.40010212362,,,2017_Aug_01_1132,59.9982103215,FEMA4ImagesEEG,001,101165,
AMSA21.JPG,AMNE23.JPG,AMNE21.JPG,AMSA25.JPG,AMNE25.JPG,AMSA23.JPG,,,,,,,,,,,,,0,8,8,5,,,,,,,,,,,AMSA19.jpg,AMNE20.jpg,AMSA13.jpg,AMNE19.jpg,AMNE20.jpg,MN,1,num_6,16,num_6,1.0168273095,,,2017_Aug_01_1132,59.9982103215,FEMA4ImagesEEG,001,101165,
AMSA21.JPG,AMNE22.JPG,AMNE21.JPG,AMSA23.JPG,AMSA22.JPG,AMNE23.JPG,,,,,,,,,,,,,0,9,9,1,,,,,,,,,,,AMSA02.jpg,AMSA15.jpg,AMNE07.jpg,AMNE10.jpg,AMNE10.jpg,MN,1,num_4,32,num_6,1.58341247612,,,2017_Aug_01_1132,59.9982103215,FEMA4ImagesEEG,001,101165,
AMNE22.JPG,AMSA24.JPG,AMSA22.JPG,AMNE25.JPG,AMNE24.JPG,AMSA25.JPG,,,,,,,,,,,,,,,,,0,0,0,7,,,,,,,AFSA03.jpg,AFSA02.jpg,AFNE03.jpg,AFNE07.jpg,AFNE07.jpg,FN,3,num_4,32,num_2,1.26675570407,,,2017_Aug_01_1132,59.9982103215,FEMA4ImagesEEG,001,101165,
AFSA25.JPG,AFNE24.JPG,AFSA24.JPG,AFNE21.JPG,AFSA21.JPG,AFNE25.JPG,,,,,,,,,,,,,,,,,0,1,1,2,,,,,,,AFSA06.jpg,AFSA14.jpg,AFNE02.jpg,AFNE11.jpg,AFSA06.jpg,FS,4,num_8,32,num_2,1.13344296231,,,2017_Aug_01_1132,59.9982103215,FEMA4ImagesEEG,001,101165,
AFNE22.JPG,AFSA24.JPG,AFSA22.JPG,AFNE25.JPG,AFNE24.JPG,AFSA25.JPG,,,,,,,,,,,,,,,,,0,2,2,6,,,,,,,AFSA15.jpg,AFNE09.jpg,AFNE04.jpg,AFSA02.jpg,AFNE09.jpg,FN,3,num_6,32,num_8,0.883437910583,,,2017_Aug_01_1132,59.9982103215,FEMA4ImagesEEG,001,101165,
AMSA21.JPG,AMNE22.JPG,AMNE21.JPG,AMSA23.JPG,AMSA22.JPG,AMNE23.JPG,,,,,,,,,,,,,,,,,0,3,3,1,,,,,,,AFSA10.jpg,AFNE20.jpg,AFSA20.jpg,AFNE19.jpg,AFSA10.jpg,FS,4,num_8,16,num_8,0.900127943372,,,2017_Aug_01_1132,59.9982103215,FEMA4ImagesEEG,001,101165,
AFSA21.JPG,AFNE22.JPG,AFNE21.JPG,AFSA23.JPG,AFSA22.JPG,AFNE23.JPG,,,,,,,,,,,,,,,,,0,4,4,0,,,,,,,AFSA15.jpg,AFNE13.jpg,AFSA14.jpg,AFNE08.jpg,AFNE08.jpg,FN,3,num_4,32,num_2,1.03346281615,,,2017_Aug_01_1132,59.9982103215,FEMA4ImagesEEG,001,101165,
AMSA25.JPG,AMNE24.JPG,AMSA24.JPG,AMNE26.JPG,AMSA21.JPG,AMNE25.JPG,,,,,,,,,,,,,,,,,0,5,5,3,,,,,,,AFNE14.jpg,AFSA19.jpg,AFSA07.jpg,AFNE13.jpg,AFSA07.jpg,FS,4,num_2,32,num_4,1.35007564654,,,2017_Aug_01_1132,59.9982103215,FEMA4ImagesEEG,001,101165,
AMSA21.JPG,AMNE23.JPG,AMNE21.JPG,AMSA25.JPG,AMNE25.JPG,AMSA23.JPG,,,,,,,,,,,,,,,,,0,6,6,5,,,,,,,AFNE13.jpg,AFSA05.jpg,AFNE04.jpg,AFSA06.jpg,AFSA06.jpg,FS,4,num_4,32,num_8,0.833552238531,,,2017_Aug_01_1132,59.9982103215,FEMA4ImagesEEG,001,101165,
AMNE23.JPG,AMNE24.JPG,AMNE22.JPG,AMSA24.JPG,AMSA22.JPG,AMSA23.JPG,,,,,,,,,,,,,,,,,0,7,7,9,,,,,,,AFSA03.jpg,AFSA13.jpg,AFNE13.jpg,AFNE06.jpg,AFSA03.jpg,FS,4,num_8,32,num_6,0.616729355417,,,2017_Aug_01_1132,59.9982103215,FEMA4ImagesEEG,001,101165,
AFNE23.JPG,AFNE24.JPG,AFNE22.JPG,AFSA24.JPG,AFSA22.JPG,AFSA23.JPG,,,,,,,,,,,,,,,,,0,8,8,8,,,,,,,AFSA04.jpg,AFNE03.jpg,AFNE12.jpg,AFSA10.jpg,AFSA04.jpg,FS,4,num_8,32,num_4,0.933463746449,,,2017_Aug_01_1132,59.9982103215,FEMA4ImagesEEG,001,101165,
AFSA21.JPG,AFNE23.JPG,AFNE21.JPG,AFSA25.JPG,AFNE25.JPG,AFSA23.JPG,,,,,,,,,,,,,,,,,0,9,9,4,,,,,,,AFNE11.jpg,AFSA20.jpg,AFSA15.jpg,AFNE08.jpg,AFNE11.jpg,FN,3,num_8,16,num_8,0.900176695781,,,2017_Aug_01_1132,59.9982103215,FEMA4ImagesEEG,001,101165,
AFNE22.JPG,AFSA24.JPG,AFSA22.JPG,AFNE25.JPG,AFNE24.JPG,AFSA25.JPG,,,,,,,,,,,,,,,,,,,,,0,0,0,6,,,AMNE09.jpg,AMSA13.jpg,AMSA17.jpg,AMNE13.jpg,AMSA17.jpg,MS,2,num_2,16,num_2,1.80012277933,,,2017_Aug_01_1132,59.9982103215,FEMA4ImagesEEG,001,101165,
AMNE23.JPG,AMNE24.JPG,AMNE22.JPG,AMSA24.JPG,AMSA22.JPG,AMSA23.JPG,,,,,,,,,,,,,,,,,,,,,0,1,1,9,,,AMNE17.jpg,AMSA17.jpg,AMNE03.jpg,AMSA18.jpg,AMNE03.jpg,MN,1,num_2,32,num_8,0.800194945885,,,2017_Aug_01_1132,59.9982103215,FEMA4ImagesEEG,001,101165,
AMSA21.JPG,AMNE22.JPG,AMNE21.JPG,AMSA23.JPG,AMSA22.JPG,AMNE23.JPG,,,,,,,,,,,,,,,,,,,,,0,2,2,1,,,AMNE08.jpg,AMSA06.jpg,AMSA10.jpg,AMNE03.jpg,AMNE03.jpg,MN,1,num_4,16,num_4,0.899951856816,,,2017_Aug_01_1132,59.9982103215,FEMA4ImagesEEG,001,101165,
AFSA21.JPG,AFNE23.JPG,AFNE21.JPG,AFSA25.JPG,AFNE25.JPG,AFSA23.JPG,,,,,,,,,,,,,,,,,,,,,0,3,3,4,,,AMSA16.jpg,AMSA07.jpg,AMNE05.jpg,AMNE09.jpg,AMNE09.jpg,MN,1,num_4,16,num_4,1.18343159207,,,2017_Aug_01_1132,59.9982103215,FEMA4ImagesEEG,001,101165,
AFSA21.JPG,AFNE22.JPG,AFNE21.JPG,AFSA23.JPG,AFSA22.JPG,AFNE23.JPG,,,,,,,,,,,,,,,,,,,,,0,4,4,0,,,AMSA17.jpg,AMSA15.jpg,AMNE16.jpg,AMNE18.jpg,AMSA17.jpg,MS,2,num_8,16,num_8,1.6337933708,,,2017_Aug_01_1132,59.9982103215,FEMA4ImagesEEG,001,101165,
AMNE22.JPG,AMSA24.JPG,AMSA22.JPG,AMNE25.JPG,AMNE24.JPG,AMSA25.JPG,,,,,,,,,,,,,,,,,,,,,0,5,5,7,,,AMNE17.jpg,AMNE10.jpg,AMSA01.jpg,AMSA08.jpg,AMNE10.jpg,MN,1,num_6,32,num_8,0.866797913564,,,2017_Aug_01_1132,59.9982103215,FEMA4ImagesEEG,001,101165,
AMSA25.JPG,AMNE24.JPG,AMSA24.JPG,AMNE26.JPG,AMSA21.JPG,AMNE25.JPG,,,,,,,,,,,,,,,,,,,,,0,6,6,3,,,AMNE09.jpg,AMSA05.jpg,AMSA11.jpg,AMNE13.jpg,AMSA11.jpg,MS,2,num_2,16,num_2,1.45010903548,,,2017_Aug_01_1132,59.9982103215,FEMA4ImagesEEG,001,101165,
AFSA25.JPG,AFNE24.JPG,AFSA24.JPG,AFNE21.JPG,AFSA21.JPG,AFNE25.JPG,,,,,,,,,,,,,,,,,,,,,0,7,7,2,,,AMNE05.jpg,AMSA02.jpg,AMNE08.jpg,AMSA06.jpg,AMSA02.jpg,MS,2,num_6,16,num_6,1.54974855576,,,2017_Aug_01_1132,59.9982103215,FEMA4ImagesEEG,001,101165,
AMSA21.JPG,AMNE23.JPG,AMNE21.JPG,AMSA25.JPG,AMNE25.JPG,AMSA23.JPG,,,,,,,,,,,,,,,,,,,,,0,8,8,5,,,AMSA18.jpg,AMNE05.jpg,AMNE19.jpg,AMSA06.jpg,AMNE05.jpg,MN,1,num_6,32,num_2,1.03351958725,,,2017_Aug_01_1132,59.9982103215,FEMA4ImagesEEG,001,101165,
AFNE23.JPG,AFNE24.JPG,AFNE22.JPG,AFSA24.JPG,AFSA22.JPG,AFSA23.JPG,,,,,,,,,,,,,,,,,,,,,0,9,9,8,,,AMNE17.jpg,AMSA09.jpg,AMNE16.jpg,AMSA03.jpg,AMSA09.jpg,MS,2,num_6,32,num_8,1.41673923424,,,2017_Aug_01_1132,59.9982103215,FEMA4ImagesEEG,001,101165,
,,,,,,,,,,,,,,,,,,,,,,,,,,,,,,,,,,,,,,,,,,,space,16.6491738216,2017_Aug_01_1132,59.9982103215,FEMA4ImagesEEG,001,101165,
AFNE01.JPG,AFNE01.JPG,AFNE01.JPG,AFNE01.JPG,AFNE01.JPG,AFNE01.JPG,0,0,0,2,,,,,,,,,,,,,,,,,,,,,,,AFSA12.jpg,AFNE19.jpg,AFNE12.jpg,AFSA18.jpg,AFSA18.jpg,FS,4,num_4,16,num_4,0.900116075994,,,2017_Aug_01_1132,59.9982103215,FEMA4ImagesEEG,001,101165,
AFNE01.JPG,AFNE01.JPG,AFNE01.JPG,AFNE01.JPG,AFNE01.JPG,AFNE01.JPG,0,1,1,3,,,,,,,,,,,,,,,,,,,,,,,AFSA04.jpg,AFNE11.jpg,AFSA06.jpg,AFNE18.jpg,AFSA06.jpg,FS,4,num_2,32,num_8,1.00013054139,,,2017_Aug_01_1132,59.9982103215,FEMA4ImagesEEG,001,101165,
AFNE01.JPG,AFNE01.JPG,AFNE01.JPG,AFNE01.JPG,AFNE01.JPG,AFNE01.JPG,0,2,2,0,,,,,,,,,,,,,,,,,,,,,,,AFNE13.jpg,AFSA19.jpg,AFNE01.jpg,AFSA14.jpg,AFNE13.jpg,FN,3,num_8,16,num_8,0.666856224183,,,2017_Aug_01_1132,59.9982103215,FEMA4ImagesEEG,001,101165,
AFNE01.JPG,AFNE01.JPG,AFNE01.JPG,AFNE01.JPG,AFNE01.JPG,AFNE01.JPG,0,3,3,5,,,,,,,,,,,,,,,,,,,,,,,AFNE10.jpg,AFSA08.jpg,AFSA14.jpg,AFNE05.jpg,AFSA14.jpg,FS,4,num_2,32,num_4,0.783493366558,,,2017_Aug_01_1132,59.9982103215,FEMA4ImagesEEG,001,101165,
AFNE01.JPG,AFNE01.JPG,AFNE01.JPG,AFNE01.JPG,AFNE01.JPG,AFNE01.JPG,0,4,4,8,,,,,,,,,,,,,,,,,,,,,,,AFSA11.jpg,AFSA13.jpg,AFNE14.jpg,AFNE08.jpg,AFNE14.jpg,FN,3,num_2,16,num_2,1.18345693056,,,2017_Aug_01_1132,59.9982103215,FEMA4ImagesEEG,001,101165,
AFNE01.JPG,AFNE01.JPG,AFNE01.JPG,AFNE01.JPG,AFNE01.JPG,AFNE01.JPG,0,5,5,6,,,,,,,,,,,,,,,,,,,,,,,AFNE01.jpg,AFNE20.jpg,AFSA05.jpg,AFSA12.jpg,AFNE01.jpg,FN,3,num_8,16,num_8,0.783453274053,,,2017_Aug_01_1132,59.9982103215,FEMA4ImagesEEG,001,101165,
AFNE01.JPG,AFNE01.JPG,AFNE01.JPG,AFNE01.JPG,AFNE01.JPG,AFNE01.JPG,0,6,6,7,,,,,,,,,,,,,,,,,,,,,,,AFNE17.jpg,AFNE10.jpg,AFSA07.jpg,AFSA10.jpg,AFNE10.jpg,FN,3,num_6,16,num_6,0.633507912047,,,2017_Aug_01_1132,59.9982103215,FEMA4ImagesEEG,001,101165,
AFNE01.JPG,AFNE01.JPG,AFNE01.JPG,AFNE01.JPG,AFNE01.JPG,AFNE01.JPG,0,7,7,9,,,,,,,,,,,,,,,,,,,,,,,AFSA11.jpg,AFSA17.jpg,AFNE13.jpg,AFNE04.jpg,AFNE04.jpg,FN,3,num_4,16,num_4,0.83346050675,,,2017_Aug_01_1132,59.9982103215,FEMA4ImagesEEG,001,101165,
AFNE01.JPG,AFNE01.JPG,AFNE01.JPG,AFNE01.JPG,AFNE01.JPG,AFNE01.JPG,0,8,8,4,,,,,,,,,,,,,,,,,,,,,,,AFNE20.jpg,AFSA14.jpg,AFSA05.jpg,AFNE10.jpg,AFSA14.jpg,FS,4,num_6,16,num_6,1.01674006809,,,2017_Aug_01_1132,59.9982103215,FEMA4ImagesEEG,001,101165,
AFNE01.JPG,AFNE01.JPG,AFNE01.JPG,AFNE01.JPG,AFNE01.JPG,AFNE01.JPG,0,9,9,1,,,,,,,,,,,,,,,,,,,,,,,AFNE13.jpg,AFSA19.jpg,AFNE08.jpg,AFSA02.jpg,AFNE08.jpg,FN,3,num_2,32,num_8,1.13343975483,,,2017_Aug_01_1132,59.9982103215,FEMA4ImagesEEG,001,101165,
AFNE01.JPG,AFNE01.JPG,AFNE01.JPG,AFNE01.JPG,AFNE01.JPG,AFNE01.JPG,1,0,10,6,,,,,,,,,,,,,,,,,,,,,,,AFNE14.jpg,AFNE02.jpg,AFSA07.jpg,AFSA17.jpg,AFNE14.jpg,FN,3,num_8,16,num_8,0.850121993572,,,2017_Aug_01_1132,59.9982103215,FEMA4ImagesEEG,001,101165,
AFNE01.JPG,AFNE01.JPG,AFNE01.JPG,AFNE01.JPG,AFNE01.JPG,AFNE01.JPG,1,1,11,4,,,,,,,,,,,,,,,,,,,,,,,AFSA04.jpg,AFNE05.jpg,AFNE03.jpg,AFSA02.jpg,AFNE05.jpg,FN,3,num_6,16,num_6,0.98345173453,,,2017_Aug_01_1132,59.9982103215,FEMA4ImagesEEG,001,101165,
AFNE01.JPG,AFNE01.JPG,AFNE01.JPG,AFNE01.JPG,AFNE01.JPG,AFNE01.JPG,1,2,12,9,,,,,,,,,,,,,,,,,,,,,,,AFNE02.jpg,AFSA04.jpg,AFNE10.jpg,AFSA16.jpg,AFSA04.jpg,FS,4,num_6,16,num_6,0.900156809948,,,2017_Aug_01_1132,59.9982103215,FEMA4ImagesEEG,001,101165,
AFNE01.JPG,AFNE01.JPG,AFNE01.JPG,AFNE01.JPG,AFNE01.JPG,AFNE01.JPG,1,3,13,2,,,,,,,,,,,,,,,,,,,,,,,AFSA12.jpg,AFNE15.jpg,AFSA03.jpg,AFNE01.jpg,AFNE15.jpg,FN,3,num_6,16,num_6,0.616863745265,,,2017_Aug_01_1132,59.9982103215,FEMA4ImagesEEG,001,101165,
AFNE01.JPG,AFNE01.JPG,AFNE01.JPG,AFNE01.JPG,AFNE01.JPG,AFNE01.JPG,1,4,14,1,,,,,,,,,,,,,,,,,,,,,,,AFNE03.jpg,AFNE12.jpg,AFSA17.jpg,AFSA18.jpg,AFSA17.jpg,FS,4,num_2,32,num_4,0.833434206201,,,2017_Aug_01_1132,59.9982103215,FEMA4ImagesEEG,001,101165,
AFNE01.JPG,AFNE01.JPG,AFNE01.JPG,AFNE01.JPG,AFNE01.JPG,AFNE01.JPG,1,5,15,5,,,,,,,,,,,,,,,,,,,,,,,AFNE06.jpg,AFNE02.jpg,AFSA17.jpg,AFSA12.jpg,AFNE02.jpg,FN,3,num_6,32,num_8,1.64995033341,,,2017_Aug_01_1132,59.9982103215,FEMA4ImagesEEG,001,101165,
AFNE01.JPG,AFNE01.JPG,AFNE01.JPG,AFNE01.JPG,AFNE01.JPG,AFNE01.JPG,1,6,16,7,,,,,,,,,,,,,,,,,,,,,,,AFSA18.jpg,AFNE14.jpg,AFNE07.jpg,AFSA12.jpg,AFSA12.jpg,FS,4,num_4,16,num_4,0.783489838475,,,2017_Aug_01_1132,59.9982103215,FEMA4ImagesEEG,001,101165,
AFNE01.JPG,AFNE01.JPG,AFNE01.JPG,AFNE01.JPG,AFNE01.JPG,AFNE01.JPG,1,7,17,8,,,,,,,,,,,,,,,,,,,,,,,AFNE16.jpg,AFNE19.jpg,AFSA06.jpg,AFSA12.jpg,AFNE16.jpg,FN,3,num_8,16,num_8,0.833485524403,,,2017_Aug_01_1132,59.9982103215,FEMA4ImagesEEG,001,101165,
AFNE01.JPG,AFNE01.JPG,AFNE01.JPG,AFNE01.JPG,AFNE01.JPG,AFNE01.JPG,1,8,18,3,,,,,,,,,,,,,,,,,,,,,,,AFSA07.jpg,AFNE10.jpg,AFNE16.jpg,AFSA13.jpg,AFSA13.jpg,FS,4,num_4,32,num_6,1.1001344223,,,2017_Aug_01_1132,59.9982103215,FEMA4ImagesEEG,001,101165,
AFNE01.JPG,AFNE01.JPG,AFNE01.JPG,AFNE01.JPG,AFNE01.JPG,AFNE01.JPG,1,9,19,0,,,,,,,,,,,,,,,,,,,,,,,AFSA12.jpg,AFNE19.jpg,AFNE02.jpg,AFSA03.jpg,AFNE02.jpg,FN,3,num_2,32,num_6,0.966824887786,,,2017_Aug_01_1132,59.9982103215,FEMA4ImagesEEG,001,101165,
AFNE01.JPG,AFNE01.JPG,AFNE01.JPG,AFNE01.JPG,AFNE01.JPG,AFNE01.JPG,2,0,20,3,,,,,,,,,,,,,,,,,,,,,,,AFNE17.jpg,AFSA13.jpg,AFSA17.jpg,AFNE03.jpg,AFNE17.jpg,FN,3,num_8,16,num_8,0.933490046998,,,2017_Aug_01_1132,59.9982103215,FEMA4ImagesEEG,001,101165,
AFNE01.JPG,AFNE01.JPG,AFNE01.JPG,AFNE01.JPG,AFNE01.JPG,AFNE01.JPG,2,1,21,1,,,,,,,,,,,,,,,,,,,,,,,AFNE17.jpg,AFNE18.jpg,AFSA12.jpg,AFSA04.jpg,AFSA12.jpg,FS,4,num_2,16,num_2,1.09979058872,,,2017_Aug_01_1132,59.9982103215,FEMA4ImagesEEG,001,101165,
AFNE01.JPG,AFNE01.JPG,AFNE01.JPG,AFNE01.JPG,AFNE01.JPG,AFNE01.JPG,2,2,22,9,,,,,,,,,,,,,,,,,,,,,,,AFSA11.jpg,AFNE12.jpg,AFSA04.jpg,AFNE06.jpg,AFSA11.jpg,FS,4,num_8,32,num_4,0.816771115642,,,2017_Aug_01_1132,59.9982103215,FEMA4ImagesEEG,001,101165,
AFNE01.JPG,AFNE01.JPG,AFNE01.JPG,AFNE01.JPG,AFNE01.JPG,AFNE01.JPG,2,3,23,2,,,,,,,,,,,,,,,,,,,,,,,AFSA13.jpg,AFSA08.jpg,AFNE09.jpg,AFNE04.jpg,AFNE09.jpg,FN,3,num_2,32,num_4,0.950104705757,,,2017_Aug_01_1132,59.9982103215,FEMA4ImagesEEG,001,101165,
AFNE01.JPG,AFNE01.JPG,AFNE01.JPG,AFNE01.JPG,AFNE01.JPG,AFNE01.JPG,2,4,24,7,,,,,,,,,,,,,,,,,,,,,,,AFSA18.jpg,AFNE07.jpg,AFNE15.jpg,AFSA09.jpg,AFSA18.jpg,FS,4,num_8,32,num_6,1.03347243834,,,2017_Aug_01_1132,59.9982103215,FEMA4ImagesEEG,001,101165,
AFNE01.JPG,AFNE01.JPG,AFNE01.JPG,AFNE01.JPG,AFNE01.JPG,AFNE01.JPG,2,5,25,0,,,,,,,,,,,,,,,,,,,,,,,AFSA13.jpg,AFNE12.jpg,AFNE02.jpg,AFSA18.jpg,AFSA18.jpg,FS,4,num_4,16,num_4,1.6334148976,,,2017_Aug_01_1132,59.9982103215,FEMA4ImagesEEG,001,101165,
AFNE01.JPG,AFNE01.JPG,AFNE01.JPG,AFNE01.JPG,AFNE01.JPG,AFNE01.JPG,2,6,26,4,,,,,,,,,,,,,,,,,,,,,,,AFSA20.jpg,AFSA10.jpg,AFNE13.jpg,AFNE10.jpg,AFSA10.jpg,FS,4,num_6,16,num_6,0.733485492412,,,2017_Aug_01_1132,59.9982103215,FEMA4ImagesEEG,001,101165,
AFNE01.JPG,AFNE01.JPG,AFNE01.JPG,AFNE01.JPG,AFNE01.JPG,AFNE01.JPG,2,7,27,5,,,,,,,,,,,,,,,,,,,,,,,AFSA03.jpg,AFSA18.jpg,AFNE13.jpg,AFNE12.jpg,AFSA18.jpg,FS,4,num_6,16,num_6,0.666789830895,,,2017_Aug_01_1132,59.9982103215,FEMA4ImagesEEG,001,101165,
AFNE01.JPG,AFNE01.JPG,AFNE01.JPG,AFNE01.JPG,AFNE01.JPG,AFNE01.JPG,2,8,28,8,,,,,,,,,,,,,,,,,,,,,,,AFNE16.jpg,AFSA15.jpg,AFSA07.jpg,AFNE06.jpg,AFNE16.jpg,FN,3,num_8,16,num_8,0.666809075279,,,2017_Aug_01_1132,59.9982103215,FEMA4ImagesEEG,001,101165,
AFNE01.JPG,AFNE01.JPG,AFNE01.JPG,AFNE01.JPG,AFNE01.JPG,AFNE01.JPG,2,9,29,6,,,,,,,,,,,,,,,,,,,,,,,AFNE17.jpg,AFNE05.jpg,AFSA17.jpg,AFSA08.jpg,AFSA17.jpg,FS,4,num_2,16,num_2,0.850151501596,,,2017_Aug_01_1132,59.9982103215,FEMA4ImagesEEG,001,101165,
AFNE01.JPG,AFNE01.JPG,AFNE01.JPG,AFNE01.JPG,AFNE01.JPG,AFNE01.JPG,3,0,30,6,,,,,,,,,,,,,,,,,,,,,,,AFSA01.jpg,AFNE02.jpg,AFSA18.jpg,AFNE04.jpg,AFSA01.jpg,FS,4,num_8,16,num_8,0.833737305598,,,2017_Aug_01_1132,59.9982103215,FEMA4ImagesEEG,001,101165,
AFNE01.JPG,AFNE01.JPG,AFNE01.JPG,AFNE01.JPG,AFNE01.JPG,AFNE01.JPG,3,1,31,4,,,,,,,,,,,,,,,,,,,,,,,AFNE12.jpg,AFSA14.jpg,AFNE16.jpg,AFSA07.jpg,AFSA07.jpg,FS,4,num_4,32,num_6,0.966800511582,,,2017_Aug_01_1132,59.9982103215,FEMA4ImagesEEG,001,101165,
AFNE01.JPG,AFNE01.JPG,AFNE01.JPG,AFNE01.JPG,AFNE01.JPG,AFNE01.JPG,3,2,32,8,,,,,,,,,,,,,,,,,,,,,,,AFNE07.jpg,AFNE04.jpg,AFSA17.jpg,AFSA12.jpg,AFNE04.jpg,FN,3,num_6,32,num_8,0.966776135378,,,2017_Aug_01_1132,59.9982103215,FEMA4ImagesEEG,001,101165,
AFNE01.JPG,AFNE01.JPG,AFNE01.JPG,AFNE01.JPG,AFNE01.JPG,AFNE01.JPG,3,3,33,5,,,,,,,,,,,,,,,,,,,,,,,AFNE01.jpg,AFNE07.jpg,AFSA18.jpg,AFSA13.jpg,AFSA18.jpg,FS,4,num_2,32,num_4,0.93347657565,,,2017_Aug_01_1132,59.9982103215,FEMA4ImagesEEG,001,101165,
AFNE01.JPG,AFNE01.JPG,AFNE01.JPG,AFNE01.JPG,AFNE01.JPG,AFNE01.JPG,3,4,34,2,,,,,,,,,,,,,,,,,,,,,,,AFSA17.jpg,AFNE20.jpg,AFNE10.jpg,AFSA06.jpg,AFNE20.jpg,FN,3,num_6,32,num_8,0.666813565651,,,2017_Aug_01_1132,59.9982103215,FEMA4ImagesEEG,001,101165,
AFNE01.JPG,AFNE01.JPG,AFNE01.JPG,AFNE01.JPG,AFNE01.JPG,AFNE01.JPG,3,5,35,1,,,,,,,,,,,,,,,,,,,,,,,AFNE04.jpg,AFNE15.jpg,AFSA09.jpg,AFSA14.jpg,AFSA09.jpg,FS,4,num_2,32,num_6,0.683408658952,,,2017_Aug_01_1132,59.9982103215,FEMA4ImagesEEG,001,101165,
AFNE01.JPG,AFNE01.JPG,AFNE01.JPG,AFNE01.JPG,AFNE01.JPG,AFNE01.JPG,3,6,36,3,,,,,,,,,,,,,,,,,,,,,,,AFSA03.jpg,AFNE04.jpg,AFSA06.jpg,AFNE03.jpg,AFSA06.jpg,FS,4,num_2,32,num_8,0.950124591589,,,2017_Aug_01_1132,59.9982103215,FEMA4ImagesEEG,001,101165,
AFNE01.JPG,AFNE01.JPG,AFNE01.JPG,AFNE01.JPG,AFNE01.JPG,AFNE01.JPG,3,7,37,9,,,,,,,,,,,,,,,,,,,,,,,AFNE05.jpg,AFNE01.jpg,AFSA13.jpg,AFSA05.jpg,AFNE01.jpg,FN,3,num_6,32,num_4,1.05014066049,,,2017_Aug_01_1132,59.9982103215,FEMA4ImagesEEG,001,101165,
AFNE01.JPG,AFNE01.JPG,AFNE01.JPG,AFNE01.JPG,AFNE01.JPG,AFNE01.JPG,3,8,38,0,,,,,,,,,,,,,,,,,,,,,,,AFNE20.jpg,AFSA06.jpg,AFSA01.jpg,AFNE17.jpg,AFSA01.jpg,FS,4,num_2,16,num_2,1.61628833762,,,2017_Aug_01_1132,59.9982103215,FEMA4ImagesEEG,001,101165,
AFNE01.JPG,AFNE01.JPG,AFNE01.JPG,AFNE01.JPG,AFNE01.JPG,AFNE01.JPG,3,9,39,7,,,,,,,,,,,,,,,,,,,,,,,AFSA14.jpg,AFNE20.jpg,AFNE16.jpg,AFSA02.jpg,AFSA02.jpg,FS,4,num_4,32,num_8,2.13341185055,,,2017_Aug_01_1132,59.9982103215,FEMA4ImagesEEG,001,101165,
AFNE01.JPG,AFNE01.JPG,AFNE01.JPG,AFNE01.JPG,AFNE01.JPG,AFNE01.JPG,4,0,40,2,,,,,,,,,,,,,,,,,,,,,,,AFNE16.jpg,AFNE03.jpg,AFSA20.jpg,AFSA06.jpg,AFSA06.jpg,FS,4,num_4,32,num_2,0.783443652093,,,2017_Aug_01_1132,59.9982103215,FEMA4ImagesEEG,001,101165,
AFNE01.JPG,AFNE01.JPG,AFNE01.JPG,AFNE01.JPG,AFNE01.JPG,AFNE01.JPG,4,1,41,8,,,,,,,,,,,,,,,,,,,,,,,AFNE16.jpg,AFNE13.jpg,AFSA04.jpg,AFSA15.jpg,AFNE13.jpg,FN,3,num_6,16,num_6,0.750449116342,,,2017_Aug_01_1132,59.9982103215,FEMA4ImagesEEG,001,101165,
AFNE01.JPG,AFNE01.JPG,AFNE01.JPG,AFNE01.JPG,AFNE01.JPG,AFNE01.JPG,4,2,42,5,,,,,,,,,,,,,,,,,,,,,,,AFSA01.jpg,AFNE06.jpg,AFNE18.jpg,AFSA17.jpg,AFSA17.jpg,FS,4,num_4,16,num_4,0.883486021543,,,2017_Aug_01_1132,59.9982103215,FEMA4ImagesEEG,001,101165,
AFNE01.JPG,AFNE01.JPG,AFNE01.JPG,AFNE01.JPG,AFNE01.JPG,AFNE01.JPG,4,3,43,1,,,,,,,,,,,,,,,,,,,,,,,AFSA06.jpg,AFNE16.jpg,AFNE11.jpg,AFSA04.jpg,AFNE16.jpg,FN,3,num_6,32,num_2,2.98329745838,,,2017_Aug_01_1132,59.9982103215,FEMA4ImagesEEG,001,101165,
AFNE01.JPG,AFNE01.JPG,AFNE01.JPG,AFNE01.JPG,AFNE01.JPG,AFNE01.JPG,4,4,44,9,,,,,,,,,,,,,,,,,,,,,,,AFSA02.jpg,AFNE04.jpg,AFNE03.jpg,AFSA05.jpg,AFNE03.jpg,FN,3,num_2,16,num_2,0.550161348423,,,2017_Aug_01_1132,59.9982103215,FEMA4ImagesEEG,001,101165,
AFNE01.JPG,AFNE01.JPG,AFNE01.JPG,AFNE01.JPG,AFNE01.JPG,AFNE01.JPG,4,5,45,4,,,,,,,,,,,,,,,,,,,,,,,AFSA06.jpg,AFNE01.jpg,AFNE11.jpg,AFSA16.jpg,AFSA16.jpg,FS,4,num_4,32,num_8,1.05011852947,,,2017_Aug_01_1132,59.9982103215,FEMA4ImagesEEG,001,101165,
AFNE01.JPG,AFNE01.JPG,AFNE01.JPG,AFNE01.JPG,AFNE01.JPG,AFNE01.JPG,4,6,46,0,,,,,,,,,,,,,,,,,,,,,,,AFSA02.jpg,AFSA16.jpg,AFNE12.jpg,AFNE02.jpg,AFSA16.jpg,FS,4,num_6,16,num_6,1.26658603246,,,2017_Aug_01_1132,59.9982103215,FEMA4ImagesEEG,001,101165,
AFNE01.JPG,AFNE01.JPG,AFNE01.JPG,AFNE01.JPG,AFNE01.JPG,AFNE01.JPG,4,7,47,7,,,,,,,,,,,,,,,,,,,,,,,AFSA11.jpg,AFSA05.jpg,AFNE13.jpg,AFNE08.jpg,AFNE08.jpg,FN,3,num_4,16,num_4,0.966765230289,,,2017_Aug_01_1132,59.9982103215,FEMA4ImagesEEG,001,101165,
AFNE01.JPG,AFNE01.JPG,AFNE01.JPG,AFNE01.JPG,AFNE01.JPG,AFNE01.JPG,4,8,48,3,,,,,,,,,,,,,,,,,,,,,,,AFNE14.jpg,AFNE06.jpg,AFSA19.jpg,AFSA15.jpg,AFNE14.jpg,FN,3,num_8,32,num_6,0.799991275882,,,2017_Aug_01_1132,59.9982103215,FEMA4ImagesEEG,001,101165,
AFNE01.JPG,AFNE01.JPG,AFNE01.JPG,AFNE01.JPG,AFNE01.JPG,AFNE01.JPG,4,9,49,6,,,,,,,,,,,,,,,,,,,,,,,AFNE10.jpg,AFSA15.jpg,AFNE05.jpg,AFSA19.jpg,AFSA19.jpg,FS,4,num_4,16,num_4,0.833469166653,,,2017_Aug_01_1132,59.9982103215,FEMA4ImagesEEG,001,101165,
AFNE01.JPG,AFNE01.JPG,AFNE01.JPG,AFNE01.JPG,AFNE01.JPG,AFNE01.JPG,5,0,50,4,,,,,,,,,,,,,,,,,,,,,,,AFNE20.jpg,AFSA09.jpg,AFNE14.jpg,AFSA16.jpg,AFNE14.jpg,FN,3,num_2,32,num_4,0.783511328045,,,2017_Aug_01_1132,59.9982103215,FEMA4ImagesEEG,001,101165,
AFNE01.JPG,AFNE01.JPG,AFNE01.JPG,AFNE01.JPG,AFNE01.JPG,AFNE01.JPG,5,1,51,7,,,,,,,,,,,,,,,,,,,,,,,AFNE05.jpg,AFSA15.jpg,AFSA19.jpg,AFNE10.jpg,AFSA15.jpg,FS,4,num_6,32,num_4,0.866842817049,,,2017_Aug_01_1132,59.9982103215,FEMA4ImagesEEG,001,101165,
AFNE01.JPG,AFNE01.JPG,AFNE01.JPG,AFNE01.JPG,AFNE01.JPG,AFNE01.JPG,5,2,52,3,,,,,,,,,,,,,,,,,,,,,,,AFSA10.jpg,AFSA02.jpg,AFNE20.jpg,AFNE05.jpg,AFSA10.jpg,FS,4,num_8,16,num_8,0.850100183161,,,2017_Aug_01_1132,59.9982103215,FEMA4ImagesEEG,001,101165,
AFNE01.JPG,AFNE01.JPG,AFNE01.JPG,AFNE01.JPG,AFNE01.JPG,AFNE01.JPG,5,3,53,5,,,,,,,,,,,,,,,,,,,,,,,AFNE05.jpg,AFSA05.jpg,AFNE10.jpg,AFSA19.jpg,AFSA19.jpg,FS,4,num_4,32,num_2,2.48333161743,,,2017_Aug_01_1132,59.9982103215,FEMA4ImagesEEG,001,101165,
AFNE01.JPG,AFNE01.JPG,AFNE01.JPG,AFNE01.JPG,AFNE01.JPG,AFNE01.JPG,5,4,54,1,,,,,,,,,,,,,,,,,,,,,,,AFNE12.jpg,AFNE03.jpg,AFSA03.jpg,AFSA09.jpg,AFSA09.jpg,FS,4,num_4,16,num_4,1.11679270165,,,2017_Aug_01_1132,59.9982103215,FEMA4ImagesEEG,001,101165,
AFNE01.JPG,AFNE01.JPG,AFNE01.JPG,AFNE01.JPG,AFNE01.JPG,AFNE01.JPG,5,5,55,2,,,,,,,,,,,,,,,,,,,,,,,AFSA09.jpg,AFNE06.jpg,AFNE04.jpg,AFSA08.jpg,AFSA08.jpg,FS,4,num_4,32,num_8,0.883459079545,,,2017_Aug_01_1132,59.9982103215,FEMA4ImagesEEG,001,101165,
AFNE01.JPG,AFNE01.JPG,AFNE01.JPG,AFNE01.JPG,AFNE01.JPG,AFNE01.JPG,5,6,56,8,,,,,,,,,,,,,,,,,,,,,,,AFNE17.jpg,AFNE07.jpg,AFSA17.jpg,AFSA16.jpg,AFSA17.jpg,FS,4,num_2,16,num_2,0.800183078274,,,2017_Aug_01_1132,59.9982103215,FEMA4ImagesEEG,001,101165,
AFNE01.JPG,AFNE01.JPG,AFNE01.JPG,AFNE01.JPG,AFNE01.JPG,AFNE01.JPG,5,7,57,9,,,,,,,,,,,,,,,,,,,,,,,AFNE02.jpg,AFSA15.jpg,AFSA18.jpg,AFNE19.jpg,AFNE19.jpg,FN,3,num_4,32,num_8,1.20014247275,,,2017_Aug_01_1132,59.9982103215,FEMA4ImagesEEG,001,101165,
AFNE01.JPG,AFNE01.JPG,AFNE01.JPG,AFNE01.JPG,AFNE01.JPG,AFNE01.JPG,5,8,58,0,,,,,,,,,,,,,,,,,,,,,,,AFSA08.jpg,AFNE16.jpg,AFSA03.jpg,AFNE09.jpg,AFSA08.jpg,FS,4,num_8,32,num_6,0.900093623903,,,2017_Aug_01_1132,59.9982103215,FEMA4ImagesEEG,001,101165,
AFNE01.JPG,AFNE01.JPG,AFNE01.JPG,AFNE01.JPG,AFNE01.JPG,AFNE01.JPG,5,9,59,6,,,,,,,,,,,,,,,,,,,,,,,AFNE02.jpg,AFSA11.jpg,AFSA07.jpg,AFNE11.jpg,AFNE11.jpg,FN,3,num_4,32,num_8,1.03340476216,,,2017_Aug_01_1132,59.9982103215,FEMA4ImagesEEG,001,101165,
,,,,,,,,,,,,,,,,,,,,,,,,,,,,,,,,,,,,,,,,,,,space,12.3489485658,2017_Aug_01_1132,59.9982103215,FEMA4ImagesEEG,001,101165,
AFNE01.JPG,AFNE01.JPG,AFNE01.JPG,AFNE01.JPG,AFNE01.JPG,AFNE01.JPG,,,,,0,0,0,5,,,,,,,,,,,,,,,,,,,AMNE07.jpg,AMNE16.jpg,AMSA03.jpg,AMSA18.jpg,AMSA03.jpg,MS,2,num_2,32,num_8,0.916785581037,,,2017_Aug_01_1132,59.9982103215,FEMA4ImagesEEG,001,101165,
AFNE01.JPG,AFNE01.JPG,AFNE01.JPG,AFNE01.JPG,AFNE01.JPG,AFNE01.JPG,,,,,0,1,1,1,,,,,,,,,,,,,,,,,,,AMNE09.jpg,AMSA05.jpg,AMSA06.jpg,AMNE08.jpg,AMNE08.jpg,MN,1,num_4,32,num_2,1.00022099004,,,2017_Aug_01_1132,59.9982103215,FEMA4ImagesEEG,001,101165,
AFNE01.JPG,AFNE01.JPG,AFNE01.JPG,AFNE01.JPG,AFNE01.JPG,AFNE01.JPG,,,,,0,2,2,4,,,,,,,,,,,,,,,,,,,AMNE17.jpg,AMSA06.jpg,AMNE08.jpg,AMSA18.jpg,AMSA06.jpg,MS,2,num_6,32,num_8,0.716801233124,,,2017_Aug_01_1132,59.9982103215,FEMA4ImagesEEG,001,101165,
AFNE01.JPG,AFNE01.JPG,AFNE01.JPG,AFNE01.JPG,AFNE01.JPG,AFNE01.JPG,,,,,0,3,3,0,,,,,,,,,,,,,,,,,,,AMSA08.jpg,AMNE16.jpg,AMNE12.jpg,AMSA05.jpg,AMNE16.jpg,MN,1,num_6,16,num_6,0.699800403556,,,2017_Aug_01_1132,59.9982103215,FEMA4ImagesEEG,001,101165,
AFNE01.JPG,AFNE01.JPG,AFNE01.JPG,AFNE01.JPG,AFNE01.JPG,AFNE01.JPG,,,,,0,4,4,2,,,,,,,,,,,,,,,,,,,AMNE20.jpg,AMSA04.jpg,AMNE19.jpg,AMSA01.jpg,AMNE19.jpg,MN,1,num_2,32,num_8,0.750076095574,,,2017_Aug_01_1132,59.9982103215,FEMA4ImagesEEG,001,101165,
AFNE01.JPG,AFNE01.JPG,AFNE01.JPG,AFNE01.JPG,AFNE01.JPG,AFNE01.JPG,,,,,0,5,5,3,,,,,,,,,,,,,,,,,,,AMNE07.jpg,AMNE03.jpg,AMSA08.jpg,AMSA19.jpg,AMSA19.jpg,MS,2,num_4,32,num_8,0.683491089381,,,2017_Aug_01_1132,59.9982103215,FEMA4ImagesEEG,001,101165,
AFNE01.JPG,AFNE01.JPG,AFNE01.JPG,AFNE01.JPG,AFNE01.JPG,AFNE01.JPG,,,,,0,6,6,8,,,,,,,,,,,,,,,,,,,AMSA02.jpg,AMSA09.jpg,AMNE14.jpg,AMNE05.jpg,AMSA09.jpg,MS,2,num_6,32,num_8,0.800149080111,,,2017_Aug_01_1132,59.9982103215,FEMA4ImagesEEG,001,101165,
AFNE01.JPG,AFNE01.JPG,AFNE01.JPG,AFNE01.JPG,AFNE01.JPG,AFNE01.JPG,,,,,0,7,7,7,,,,,,,,,,,,,,,,,,,AMNE20.jpg,AMSA18.jpg,AMSA11.jpg,AMNE08.jpg,AMNE08.jpg,MN,1,num_4,16,num_4,1.3334305177,,,2017_Aug_01_1132,59.9982103215,FEMA4ImagesEEG,001,101165,
AFNE01.JPG,AFNE01.JPG,AFNE01.JPG,AFNE01.JPG,AFNE01.JPG,AFNE01.JPG,,,,,0,8,8,6,,,,,,,,,,,,,,,,,,,AMSA03.jpg,AMNE14.jpg,AMSA14.jpg,AMNE13.jpg,AMSA03.jpg,MS,2,num_8,32,num_6,1.06678995909,,,2017_Aug_01_1132,59.9982103215,FEMA4ImagesEEG,001,101165,
AFNE01.JPG,AFNE01.JPG,AFNE01.JPG,AFNE01.JPG,AFNE01.JPG,AFNE01.JPG,,,,,0,9,9,9,,,,,,,,,,,,,,,,,,,AMSA10.jpg,AMSA03.jpg,AMNE01.jpg,AMNE19.jpg,AMSA03.jpg,MS,2,num_6,32,num_8,1.13350422378,,,2017_Aug_01_1132,59.9982103215,FEMA4ImagesEEG,001,101165,
AFNE01.JPG,AFNE01.JPG,AFNE01.JPG,AFNE01.JPG,AFNE01.JPG,AFNE01.JPG,,,,,1,0,10,0,,,,,,,,,,,,,,,,,,,AMNE01.jpg,AMSA15.jpg,AMNE12.jpg,AMSA13.jpg,AMSA13.jpg,MS,2,num_4,32,num_2,1.78341606818,,,2017_Aug_01_1132,59.9982103215,FEMA4ImagesEEG,001,101165,
AFNE01.JPG,AFNE01.JPG,AFNE01.JPG,AFNE01.JPG,AFNE01.JPG,AFNE01.JPG,,,,,1,1,11,3,,,,,,,,,,,,,,,,,,,AMNE11.jpg,AMSA13.jpg,AMSA17.jpg,AMNE09.jpg,AMNE11.jpg,MN,1,num_8,16,num_8,0.883478323929,,,2017_Aug_01_1132,59.9982103215,FEMA4ImagesEEG,001,101165,
AFNE01.JPG,AFNE01.JPG,AFNE01.JPG,AFNE01.JPG,AFNE01.JPG,AFNE01.JPG,,,,,1,2,12,5,,,,,,,,,,,,,,,,,,,AMSA18.jpg,AMNE09.jpg,AMNE10.jpg,AMSA16.jpg,AMSA18.jpg,MS,2,num_8,32,num_2,1.08347004885,,,2017_Aug_01_1132,59.9982103215,FEMA4ImagesEEG,001,101165,
AFNE01.JPG,AFNE01.JPG,AFNE01.JPG,AFNE01.JPG,AFNE01.JPG,AFNE01.JPG,,,,,1,3,13,4,,,,,,,,,,,,,,,,,,,AMSA07.jpg,AMSA12.jpg,AMNE03.jpg,AMNE13.jpg,AMNE13.jpg,MN,1,num_4,16,num_4,0.733433532529,,,2017_Aug_01_1132,59.9982103215,FEMA4ImagesEEG,001,101165,
AFNE01.JPG,AFNE01.JPG,AFNE01.JPG,AFNE01.JPG,AFNE01.JPG,AFNE01.JPG,,,,,1,4,14,7,,,,,,,,,,,,,,,,,,,AMNE04.jpg,AMSA06.jpg,AMSA11.jpg,AMNE20.jpg,AMSA11.jpg,MS,2,num_2,32,num_8,0.916829843074,,,2017_Aug_01_1132,59.9982103215,FEMA4ImagesEEG,001,101165,
AFNE01.JPG,AFNE01.JPG,AFNE01.JPG,AFNE01.JPG,AFNE01.JPG,AFNE01.JPG,,,,,1,5,15,2,,,,,,,,,,,,,,,,,,,AMNE13.jpg,AMNE16.jpg,AMSA12.jpg,AMSA01.jpg,AMNE13.jpg,MN,1,num_8,32,num_4,1.21670709597,,,2017_Aug_01_1132,59.9982103215,FEMA4ImagesEEG,001,101165,
AFNE01.JPG,AFNE01.JPG,AFNE01.JPG,AFNE01.JPG,AFNE01.JPG,AFNE01.JPG,,,,,1,6,16,6,,,,,,,,,,,,,,,,,,,AMSA02.jpg,AMNE19.jpg,AMSA17.jpg,AMNE20.jpg,AMNE19.jpg,MN,1,num_6,32,num_4,0.966919185361,,,2017_Aug_01_1132,59.9982103215,FEMA4ImagesEEG,001,101165,
AFNE01.JPG,AFNE01.JPG,AFNE01.JPG,AFNE01.JPG,AFNE01.JPG,AFNE01.JPG,,,,,1,7,17,1,,,,,,,,,,,,,,,,,,,AMNE17.jpg,AMSA11.jpg,AMNE12.jpg,AMSA13.jpg,AMSA13.jpg,MS,2,num_4,32,num_8,1.50006206334,,,2017_Aug_01_1132,59.9982103215,FEMA4ImagesEEG,001,101165,
AFNE01.JPG,AFNE01.JPG,AFNE01.JPG,AFNE01.JPG,AFNE01.JPG,AFNE01.JPG,,,,,1,8,18,9,,,,,,,,,,,,,,,,,,,AMSA01.jpg,AMSA15.jpg,AMNE17.jpg,AMNE19.jpg,AMNE19.jpg,MN,1,num_4,16,num_4,0.916845880216,,,2017_Aug_01_1132,59.9982103215,FEMA4ImagesEEG,001,101165,
AFNE01.JPG,AFNE01.JPG,AFNE01.JPG,AFNE01.JPG,AFNE01.JPG,AFNE01.JPG,,,,,1,9,19,8,,,,,,,,,,,,,,,,,,,AMSA12.jpg,AMSA01.jpg,AMNE02.jpg,AMNE12.jpg,AMSA01.jpg,MS,2,num_6,16,num_6,0.933465991402,,,2017_Aug_01_1132,59.9982103215,FEMA4ImagesEEG,001,101165,
AFNE01.JPG,AFNE01.JPG,AFNE01.JPG,AFNE01.JPG,AFNE01.JPG,AFNE01.JPG,,,,,2,0,20,2,,,,,,,,,,,,,,,,,,,AMSA03.jpg,AMNE15.jpg,AMNE07.jpg,AMSA13.jpg,AMNE07.jpg,MN,1,num_2,32,num_8,0.950192267774,,,2017_Aug_01_1132,59.9982103215,FEMA4ImagesEEG,001,101165,
AFNE01.JPG,AFNE01.JPG,AFNE01.JPG,AFNE01.JPG,AFNE01.JPG,AFNE01.JPG,,,,,2,1,21,4,,,,,,,,,,,,,,,,,,,AMSA01.jpg,AMSA16.jpg,AMNE18.jpg,AMNE10.jpg,AMNE18.jpg,MN,1,num_2,16,num_2,0.800128231989,,,2017_Aug_01_1132,59.9982103215,FEMA4ImagesEEG,001,101165,
AFNE01.JPG,AFNE01.JPG,AFNE01.JPG,AFNE01.JPG,AFNE01.JPG,AFNE01.JPG,,,,,2,2,22,3,,,,,,,,,,,,,,,,,,,AMNE05.jpg,AMNE11.jpg,AMSA02.jpg,AMSA13.jpg,AMSA13.jpg,MS,2,num_4,32,num_8,1.71695486759,,,2017_Aug_01_1132,59.9982103215,FEMA4ImagesEEG,001,101165,
AFNE01.JPG,AFNE01.JPG,AFNE01.JPG,AFNE01.JPG,AFNE01.JPG,AFNE01.JPG,,,,,2,3,23,8,,,,,,,,,,,,,,,,,,,AMNE15.jpg,AMSA04.jpg,AMSA06.jpg,AMNE13.jpg,AMNE13.jpg,MN,1,num_4,16,num_4,1.6500654791,,,2017_Aug_01_1132,59.9982103215,FEMA4ImagesEEG,001,101165,
AFNE01.JPG,AFNE01.JPG,AFNE01.JPG,AFNE01.JPG,AFNE01.JPG,AFNE01.JPG,,,,,2,4,24,6,,,,,,,,,,,,,,,,,,,AMSA10.jpg,AMNE08.jpg,AMSA16.jpg,AMNE01.jpg,AMNE01.jpg,MN,1,num_4,16,num_4,1.08344278578,,,2017_Aug_01_1132,59.9982103215,FEMA4ImagesEEG,001,101165,
AFNE01.JPG,AFNE01.JPG,AFNE01.JPG,AFNE01.JPG,AFNE01.JPG,AFNE01.JPG,,,,,2,5,25,5,,,,,,,,,,,,,,,,,,,AMSA03.jpg,AMNE10.jpg,AMNE03.jpg,AMSA06.jpg,AMNE10.jpg,MN,1,num_6,32,num_8,1.24995790282,,,2017_Aug_01_1132,59.9982103215,FEMA4ImagesEEG,001,101165,
AFNE01.JPG,AFNE01.JPG,AFNE01.JPG,AFNE01.JPG,AFNE01.JPG,AFNE01.JPG,,,,,2,6,26,1,,,,,,,,,,,,,,,,,,,AMNE03.jpg,AMNE05.jpg,AMSA09.jpg,AMSA15.jpg,AMSA09.jpg,MS,2,num_2,16,num_2,1.5667256508,,,2017_Aug_01_1132,59.9982103215,FEMA4ImagesEEG,001,101165,
AFNE01.JPG,AFNE01.JPG,AFNE01.JPG,AFNE01.JPG,AFNE01.JPG,AFNE01.JPG,,,,,2,7,27,9,,,,,,,,,,,,,,,,,,,AMSA04.jpg,AMNE14.jpg,AMNE13.jpg,AMSA17.jpg,AMNE13.jpg,MN,1,num_2,32,num_4,0.950210229028,,,2017_Aug_01_1132,59.9982103215,FEMA4ImagesEEG,001,101165,
AFNE01.JPG,AFNE01.JPG,AFNE01.JPG,AFNE01.JPG,AFNE01.JPG,AFNE01.JPG,,,,,2,8,28,7,,,,,,,,,,,,,,,,,,,AMNE20.jpg,AMSA11.jpg,AMNE01.jpg,AMSA02.jpg,AMSA02.jpg,MS,2,num_4,32,num_2,0.800132722361,,,2017_Aug_01_1132,59.9982103215,FEMA4ImagesEEG,001,101165,
AFNE01.JPG,AFNE01.JPG,AFNE01.JPG,AFNE01.JPG,AFNE01.JPG,AFNE01.JPG,,,,,2,9,29,0,,,,,,,,,,,,,,,,,,,AMSA07.jpg,AMNE16.jpg,AMSA03.jpg,AMNE07.jpg,AMSA07.jpg,MS,2,num_8,32,num_2,1.40006459714,,,2017_Aug_01_1132,59.9982103215,FEMA4ImagesEEG,001,101165,
AFNE01.JPG,AFNE01.JPG,AFNE01.JPG,AFNE01.JPG,AFNE01.JPG,AFNE01.JPG,,,,,3,0,30,0,,,,,,,,,,,,,,,,,,,AMSA01.jpg,AMNE17.jpg,AMNE05.jpg,AMSA07.jpg,AMSA01.jpg,MS,2,num_8,16,num_8,0.883467098,,,2017_Aug_01_1132,59.9982103215,FEMA4ImagesEEG,001,101165,
AFNE01.JPG,AFNE01.JPG,AFNE01.JPG,AFNE01.JPG,AFNE01.JPG,AFNE01.JPG,,,,,3,1,31,8,,,,,,,,,,,,,,,,,,,AMSA18.jpg,AMNE16.jpg,AMSA11.jpg,AMNE18.jpg,AMSA18.jpg,MS,2,num_8,32,num_2,1.16682527261,,,2017_Aug_01_1132,59.9982103215,FEMA4ImagesEEG,001,101165,
AFNE01.JPG,AFNE01.JPG,AFNE01.JPG,AFNE01.JPG,AFNE01.JPG,AFNE01.JPG,,,,,3,2,32,5,,,,,,,,,,,,,,,,,,,AMNE05.jpg,AMSA07.jpg,AMNE20.jpg,AMSA15.jpg,AMNE20.jpg,MN,1,num_2,32,num_6,0.783484065207,,,2017_Aug_01_1132,59.9982103215,FEMA4ImagesEEG,001,101165,
AFNE01.JPG,AFNE01.JPG,AFNE01.JPG,AFNE01.JPG,AFNE01.JPG,AFNE01.JPG,,,,,3,3,33,3,,,,,,,,,,,,,,,,,,,AMSA04.jpg,AMNE10.jpg,AMNE12.jpg,AMSA20.jpg,AMNE10.jpg,MN,1,num_6,32,num_2,0.916798089864,,,2017_Aug_01_1132,59.9982103215,FEMA4ImagesEEG,001,101165,
AFNE01.JPG,AFNE01.JPG,AFNE01.JPG,AFNE01.JPG,AFNE01.JPG,AFNE01.JPG,,,,,3,4,34,6,,,,,,,,,,,,,,,,,,,AMNE06.jpg,AMNE10.jpg,AMSA16.jpg,AMSA19.jpg,AMNE10.jpg,MN,1,num_6,32,num_8,0.800187568646,,,2017_Aug_01_1132,59.9982103215,FEMA4ImagesEEG,001,101165,
AFNE01.JPG,AFNE01.JPG,AFNE01.JPG,AFNE01.JPG,AFNE01.JPG,AFNE01.JPG,,,,,3,5,35,7,,,,,,,,,,,,,,,,,,,AMSA18.jpg,AMNE14.jpg,AMNE08.jpg,AMSA19.jpg,AMNE08.jpg,MN,1,num_2,32,num_4,1.05007298454,,,2017_Aug_01_1132,59.9982103215,FEMA4ImagesEEG,001,101165,
AFNE01.JPG,AFNE01.JPG,AFNE01.JPG,AFNE01.JPG,AFNE01.JPG,AFNE01.JPG,,,,,3,6,36,4,,,,,,,,,,,,,,,,,,,AMSA18.jpg,AMNE09.jpg,AMNE16.jpg,AMSA07.jpg,AMNE16.jpg,MN,1,num_2,16,num_2,2.11666055652,,,2017_Aug_01_1132,59.9982103215,FEMA4ImagesEEG,001,101165,
AFNE01.JPG,AFNE01.JPG,AFNE01.JPG,AFNE01.JPG,AFNE01.JPG,AFNE01.JPG,,,,,3,7,37,2,,,,,,,,,,,,,,,,,,,AMNE18.jpg,AMSA02.jpg,AMSA06.jpg,AMNE03.jpg,AMNE03.jpg,MN,1,num_4,32,num_2,1.06676526205,,,2017_Aug_01_1132,59.9982103215,FEMA4ImagesEEG,001,101165,
AFNE01.JPG,AFNE01.JPG,AFNE01.JPG,AFNE01.JPG,AFNE01.JPG,AFNE01.JPG,,,,,3,8,38,9,,,,,,,,,,,,,,,,,,,AMNE05.jpg,AMNE15.jpg,AMSA02.jpg,AMSA15.jpg,AMNE05.jpg,MN,1,num_8,16,num_8,1.03360586613,,,2017_Aug_01_1132,59.9982103215,FEMA4ImagesEEG,001,101165,
AFNE01.JPG,AFNE01.JPG,AFNE01.JPG,AFNE01.JPG,AFNE01.JPG,AFNE01.JPG,,,,,3,9,39,1,,,,,,,,,,,,,,,,,,,AMSA11.jpg,AMNE03.jpg,AMNE19.jpg,AMSA02.jpg,AMNE19.jpg,MN,1,num_2,16,num_2,1.08347614296,,,2017_Aug_01_1132,59.9982103215,FEMA4ImagesEEG,001,101165,
AFNE01.JPG,AFNE01.JPG,AFNE01.JPG,AFNE01.JPG,AFNE01.JPG,AFNE01.JPG,,,,,4,0,40,6,,,,,,,,,,,,,,,,,,,AMNE01.jpg,AMSA20.jpg,AMSA15.jpg,AMNE19.jpg,AMNE19.jpg,MN,1,num_4,16,num_4,0.91641288111,,,2017_Aug_01_1132,59.9982103215,FEMA4ImagesEEG,001,101165,
AFNE01.JPG,AFNE01.JPG,AFNE01.JPG,AFNE01.JPG,AFNE01.JPG,AFNE01.JPG,,,,,4,1,41,9,,,,,,,,,,,,,,,,,,,AMSA03.jpg,AMSA16.jpg,AMNE13.jpg,AMNE01.jpg,AMSA16.jpg,MS,2,num_6,16,num_6,1.68346863752,,,2017_Aug_01_1132,59.9982103215,FEMA4ImagesEEG,001,101165,
AFNE01.JPG,AFNE01.JPG,AFNE01.JPG,AFNE01.JPG,AFNE01.JPG,AFNE01.JPG,,,,,4,2,42,0,,,,,,,,,,,,,,,,,,,AMSA20.jpg,AMNE10.jpg,AMSA04.jpg,AMNE16.jpg,AMSA20.jpg,MS,2,num_8,16,num_8,1.10009176377,,,2017_Aug_01_1132,59.9982103215,FEMA4ImagesEEG,001,101165,
AFNE01.JPG,AFNE01.JPG,AFNE01.JPG,AFNE01.JPG,AFNE01.JPG,AFNE01.JPG,,,,,4,3,43,3,,,,,,,,,,,,,,,,,,,AMSA20.jpg,AMNE14.jpg,AMNE05.jpg,AMSA16.jpg,AMNE14.jpg,MN,1,num_6,16,num_6,1.00013278634,,,2017_Aug_01_1132,59.9982103215,FEMA4ImagesEEG,001,101165,
AFNE01.JPG,AFNE01.JPG,AFNE01.JPG,AFNE01.JPG,AFNE01.JPG,AFNE01.JPG,,,,,4,4,44,7,,,,,,,,,,,,,,,,,,,AMSA08.jpg,AMNE12.jpg,AMNE08.jpg,AMSA10.jpg,AMSA10.jpg,MS,2,num_4,32,num_6,1.18345083669,,,2017_Aug_01_1132,59.9982103215,FEMA4ImagesEEG,001,101165,
AFNE01.JPG,AFNE01.JPG,AFNE01.JPG,AFNE01.JPG,AFNE01.JPG,AFNE01.JPG,,,,,4,5,45,5,,,,,,,,,,,,,,,,,,,AMNE16.jpg,AMNE12.jpg,AMSA11.jpg,AMSA04.jpg,AMNE12.jpg,MN,1,num_6,32,num_8,1.25013110251,,,2017_Aug_01_1132,59.9982103215,FEMA4ImagesEEG,001,101165,
AFNE01.JPG,AFNE01.JPG,AFNE01.JPG,AFNE01.JPG,AFNE01.JPG,AFNE01.JPG,,,,,4,6,46,4,,,,,,,,,,,,,,,,,,,AMNE06.jpg,AMSA01.jpg,AMSA15.jpg,AMNE01.jpg,AMSA15.jpg,MS,2,num_2,32,num_8,0.750111697707,,,2017_Aug_01_1132,59.9982103215,FEMA4ImagesEEG,001,101165,
AFNE01.JPG,AFNE01.JPG,AFNE01.JPG,AFNE01.JPG,AFNE01.JPG,AFNE01.JPG,,,,,4,7,47,8,,,,,,,,,,,,,,,,,,,AMSA17.jpg,AMNE01.jpg,AMNE08.jpg,AMSA20.jpg,AMNE01.jpg,MN,1,num_6,32,num_8,1.11673881719,,,2017_Aug_01_1132,59.9982103215,FEMA4ImagesEEG,001,101165,
AFNE01.JPG,AFNE01.JPG,AFNE01.JPG,AFNE01.JPG,AFNE01.JPG,AFNE01.JPG,,,,,4,8,48,1,,,,,,,,,,,,,,,,,,,AMSA10.jpg,AMNE09.jpg,AMNE13.jpg,AMSA17.jpg,AMNE09.jpg,MN,1,num_6,16,num_6,0.916661775438,,,2017_Aug_01_1132,59.9982103215,FEMA4ImagesEEG,001,101165,
AFNE01.JPG,AFNE01.JPG,AFNE01.JPG,AFNE01.JPG,AFNE01.JPG,AFNE01.JPG,,,,,4,9,49,2,,,,,,,,,,,,,,,,,,,AMNE15.jpg,AMNE06.jpg,AMSA14.jpg,AMSA10.jpg,AMNE06.jpg,MN,1,num_6,16,num_6,1.50008515641,,,2017_Aug_01_1132,59.9982103215,FEMA4ImagesEEG,001,101165,
AFNE01.JPG,AFNE01.JPG,AFNE01.JPG,AFNE01.JPG,AFNE01.JPG,AFNE01.JPG,,,,,5,0,50,8,,,,,,,,,,,,,,,,,,,AMSA19.jpg,AMSA14.jpg,AMNE10.jpg,AMNE15.jpg,AMNE15.jpg,MN,1,num_4,16,num_4,1.23342567426,,,2017_Aug_01_1132,59.9982103215,FEMA4ImagesEEG,001,101165,
AFNE01.JPG,AFNE01.JPG,AFNE01.JPG,AFNE01.JPG,AFNE01.JPG,AFNE01.JPG,,,,,5,1,51,4,,,,,,,,,,,,,,,,,,,AMSA01.jpg,AMSA15.jpg,AMNE15.jpg,AMNE13.jpg,AMSA01.jpg,MS,2,num_8,16,num_8,1.86674082186,,,2017_Aug_01_1132,59.9982103215,FEMA4ImagesEEG,001,101165,
AFNE01.JPG,AFNE01.JPG,AFNE01.JPG,AFNE01.JPG,AFNE01.JPG,AFNE01.JPG,,,,,5,2,52,1,,,,,,,,,,,,,,,,,,,AMNE10.jpg,AMSA16.jpg,AMNE14.jpg,AMSA19.jpg,AMNE14.jpg,MN,1,num_2,32,num_6,0.833475581603,,,2017_Aug_01_1132,59.9982103215,FEMA4ImagesEEG,001,101165,
AFNE01.JPG,AFNE01.JPG,AFNE01.JPG,AFNE01.JPG,AFNE01.JPG,AFNE01.JPG,,,,,5,3,53,5,,,,,,,,,,,,,,,,,,,AMNE17.jpg,AMSA17.jpg,AMSA02.jpg,AMNE13.jpg,AMNE13.jpg,MN,1,num_4,16,num_4,1.18349958886,,,2017_Aug_01_1132,59.9982103215,FEMA4ImagesEEG,001,101165,
AFNE01.JPG,AFNE01.JPG,AFNE01.JPG,AFNE01.JPG,AFNE01.JPG,AFNE01.JPG,,,,,5,4,54,6,,,,,,,,,,,,,,,,,,,AMNE04.jpg,AMNE10.jpg,AMSA12.jpg,AMSA18.jpg,AMSA12.jpg,MS,2,num_2,16,num_2,0.71677044197,,,2017_Aug_01_1132,59.9982103215,FEMA4ImagesEEG,001,101165,
AFNE01.JPG,AFNE01.JPG,AFNE01.JPG,AFNE01.JPG,AFNE01.JPG,AFNE01.JPG,,,,,5,5,55,3,,,,,,,,,,,,,,,,,,,AMSA15.jpg,AMSA08.jpg,AMNE15.jpg,AMNE09.jpg,AMNE15.jpg,MN,1,num_2,32,num_8,0.766822899226,,,2017_Aug_01_1132,59.9982103215,FEMA4ImagesEEG,001,101165,
AFNE01.JPG,AFNE01.JPG,AFNE01.JPG,AFNE01.JPG,AFNE01.JPG,AFNE01.JPG,,,,,5,6,56,0,,,,,,,,,,,,,,,,,,,AMSA11.jpg,AMNE17.jpg,AMSA15.jpg,AMNE05.jpg,AMNE05.jpg,MN,1,num_4,32,num_6,0.88349404023,,,2017_Aug_01_1132,59.9982103215,FEMA4ImagesEEG,001,101165,
AFNE01.JPG,AFNE01.JPG,AFNE01.JPG,AFNE01.JPG,AFNE01.JPG,AFNE01.JPG,,,,,5,7,57,9,,,,,,,,,,,,,,,,,,,AMSA02.jpg,AMNE03.jpg,AMSA01.jpg,AMNE13.jpg,AMSA01.jpg,MS,2,num_2,32,num_8,0.966779022012,,,2017_Aug_01_1132,59.9982103215,FEMA4ImagesEEG,001,101165,
AFNE01.JPG,AFNE01.JPG,AFNE01.JPG,AFNE01.JPG,AFNE01.JPG,AFNE01.JPG,,,,,5,8,58,2,,,,,,,,,,,,,,,,,,,AMSA10.jpg,AMSA19.jpg,AMNE16.jpg,AMNE13.jpg,AMSA19.jpg,MS,2,num_6,16,num_6,1.18341298914,,,2017_Aug_01_1132,59.9982103215,FEMA4ImagesEEG,001,101165,
AFNE01.JPG,AFNE01.JPG,AFNE01.JPG,AFNE01.JPG,AFNE01.JPG,AFNE01.JPG,,,,,5,9,59,7,,,,,,,,,,,,,,,,,,,AMSA13.jpg,AMSA06.jpg,AMNE02.jpg,AMNE06.jpg,AMNE02.jpg,MN,1,num_2,32,num_8,0.816792284604,,,2017_Aug_01_1132,59.9982103215,FEMA4ImagesEEG,001,101165,
,,,,,,,,,,,,,,,,,,,,,,,,,,,,,,,,,,,,,,,,,,,space,15.2320901125,2017_Aug_01_1132,59.9982103215,FEMA4ImagesEEG,001,101165,
AFNE01.JPG,AFNE01.JPG,AFNE01.JPG,AFNE01.JPG,AFNE01.JPG,AFNE01.JPG,,,,,,,,,0,0,0,4,,,,,,,,,,,,,,,AFNE17.jpg,AFNE10.jpg,AFSA02.jpg,AFSA10.jpg,AFNE17.jpg,FN,3,num_8,32,num_2,1.33345072437,,,2017_Aug_01_1132,59.9982103215,FEMA4ImagesEEG,001,101165,
AFNE01.JPG,AFNE01.JPG,AFNE01.JPG,AFNE01.JPG,AFNE01.JPG,AFNE01.JPG,,,,,,,,,0,1,1,9,,,,,,,,,,,,,,,AFSA18.jpg,AFNE05.jpg,AFNE16.jpg,AFSA04.jpg,AFSA18.jpg,FS,4,num_8,32,num_6,1.20014279336,,,2017_Aug_01_1132,59.9982103215,FEMA4ImagesEEG,001,101165,
AFNE01.JPG,AFNE01.JPG,AFNE01.JPG,AFNE01.JPG,AFNE01.JPG,AFNE01.JPG,,,,,,,,,0,2,2,8,,,,,,,,,,,,,,,AFNE16.jpg,AFNE14.jpg,AFSA19.jpg,AFSA11.jpg,AFNE14.jpg,FN,3,num_6,16,num_6,0.850112050539,,,2017_Aug_01_1132,59.9982103215,FEMA4ImagesEEG,001,101165,
AFNE01.JPG,AFNE01.JPG,AFNE01.JPG,AFNE01.JPG,AFNE01.JPG,AFNE01.JPG,,,,,,,,,0,3,3,7,,,,,,,,,,,,,,,AFNE18.jpg,AFSA17.jpg,AFSA02.jpg,AFNE14.jpg,AFNE14.jpg,FN,3,num_4,16,num_4,0.733486775542,,,2017_Aug_01_1132,59.9982103215,FEMA4ImagesEEG,001,101165,
AFNE01.JPG,AFNE01.JPG,AFNE01.JPG,AFNE01.JPG,AFNE01.JPG,AFNE01.JPG,,,,,,,,,0,4,4,5,,,,,,,,,,,,,,,AFSA01.jpg,AFNE18.jpg,AFSA05.jpg,AFNE02.jpg,AFSA05.jpg,FS,4,num_2,32,num_8,0.933464067057,,,2017_Aug_01_1132,59.9982103215,FEMA4ImagesEEG,001,101165,
AFNE01.JPG,AFNE01.JPG,AFNE01.JPG,AFNE01.JPG,AFNE01.JPG,AFNE01.JPG,,,,,,,,,0,5,5,1,,,,,,,,,,,,,,,AFNE05.jpg,AFSA12.jpg,AFSA19.jpg,AFNE20.jpg,AFNE20.jpg,FN,3,num_4,16,num_4,0.966755287256,,,2017_Aug_01_1132,59.9982103215,FEMA4ImagesEEG,001,101165,
AFNE01.JPG,AFNE01.JPG,AFNE01.JPG,AFNE01.JPG,AFNE01.JPG,AFNE01.JPG,,,,,,,,,0,6,6,0,,,,,,,,,,,,,,,AFNE16.jpg,AFSA01.jpg,AFSA16.jpg,AFNE09.jpg,AFSA16.jpg,FS,4,num_2,32,num_8,0.766643605428,,,2017_Aug_01_1132,59.9982103215,FEMA4ImagesEEG,001,101165,
AFNE01.JPG,AFNE01.JPG,AFNE01.JPG,AFNE01.JPG,AFNE01.JPG,AFNE01.JPG,,,,,,,,,0,7,7,2,,,,,,,,,,,,,,,AFNE04.jpg,AFSA07.jpg,AFNE02.jpg,AFSA09.jpg,AFSA07.jpg,FS,4,num_6,32,num_8,0.766751694959,,,2017_Aug_01_1132,59.9982103215,FEMA4ImagesEEG,001,101165,
AFNE01.JPG,AFNE01.JPG,AFNE01.JPG,AFNE01.JPG,AFNE01.JPG,AFNE01.JPG,,,,,,,,,0,8,8,6,,,,,,,,,,,,,,,AFNE07.jpg,AFSA08.jpg,AFNE20.jpg,AFSA16.jpg,AFSA08.jpg,FS,4,num_6,16,num_6,0.816792284604,,,2017_Aug_01_1132,59.9982103215,FEMA4ImagesEEG,001,101165,
AFNE01.JPG,AFNE01.JPG,AFNE01.JPG,AFNE01.JPG,AFNE01.JPG,AFNE01.JPG,,,,,,,,,0,9,9,3,,,,,,,,,,,,,,,AFSA04.jpg,AFNE06.jpg,AFNE07.jpg,AFSA10.jpg,AFSA10.jpg,FS,4,num_4,16,num_4,0.516822017031,,,2017_Aug_01_1132,59.9982103215,FEMA4ImagesEEG,001,101165,
AFNE01.JPG,AFNE01.JPG,AFNE01.JPG,AFNE01.JPG,AFNE01.JPG,AFNE01.JPG,,,,,,,,,1,0,10,9,,,,,,,,,,,,,,,AFSA11.jpg,AFNE19.jpg,AFNE13.jpg,AFSA06.jpg,AFSA06.jpg,FS,4,num_4,16,num_4,0.900136282435,,,2017_Aug_01_1132,59.9982103215,FEMA4ImagesEEG,001,101165,
AFNE01.JPG,AFNE01.JPG,AFNE01.JPG,AFNE01.JPG,AFNE01.JPG,AFNE01.JPG,,,,,,,,,1,1,11,2,,,,,,,,,,,,,,,AFNE08.jpg,AFSA09.jpg,AFNE06.jpg,AFSA15.jpg,AFNE08.jpg,FN,3,num_8,16,num_8,1.1668105186,,,2017_Aug_01_1132,59.9982103215,FEMA4ImagesEEG,001,101165,
AFNE01.JPG,AFNE01.JPG,AFNE01.JPG,AFNE01.JPG,AFNE01.JPG,AFNE01.JPG,,,,,,,,,1,2,12,3,,,,,,,,,,,,,,,AFNE05.jpg,AFSA07.jpg,AFNE07.jpg,AFSA08.jpg,AFNE07.jpg,FN,3,num_2,32,num_6,2.15040562395,,,2017_Aug_01_1132,59.9982103215,FEMA4ImagesEEG,001,101165,
AFNE01.JPG,AFNE01.JPG,AFNE01.JPG,AFNE01.JPG,AFNE01.JPG,AFNE01.JPG,,,,,,,,,1,3,13,8,,,,,,,,,,,,,,,AFNE02.jpg,AFSA07.jpg,AFSA19.jpg,AFNE07.jpg,AFNE02.jpg,FN,3,num_8,16,num_8,1.01677182131,,,2017_Aug_01_1132,59.9982103215,FEMA4ImagesEEG,001,101165,
AFNE01.JPG,AFNE01.JPG,AFNE01.JPG,AFNE01.JPG,AFNE01.JPG,AFNE01.JPG,,,,,,,,,1,4,14,7,,,,,,,,,,,,,,,AFNE05.jpg,AFNE10.jpg,AFSA08.jpg,AFSA02.jpg,AFNE05.jpg,FN,3,num_8,32,num_2,0.866791819455,,,2017_Aug_01_1132,59.9982103215,FEMA4ImagesEEG,001,101165,
AFNE01.JPG,AFNE01.JPG,AFNE01.JPG,AFNE01.JPG,AFNE01.JPG,AFNE01.JPG,,,,,,,,,1,5,15,6,,,,,,,,,,,,,,,AFSA02.jpg,AFNE17.jpg,AFNE08.jpg,AFSA08.jpg,AFSA02.jpg,FS,4,num_8,16,num_8,0.900141093647,,,2017_Aug_01_1132,59.9982103215,FEMA4ImagesEEG,001,101165,
AFNE01.JPG,AFNE01.JPG,AFNE01.JPG,AFNE01.JPG,AFNE01.JPG,AFNE01.JPG,,,,,,,,,1,6,16,5,,,,,,,,,,,,,,,AFNE15.jpg,AFNE10.jpg,AFSA06.jpg,AFSA01.jpg,AFNE10.jpg,FN,3,num_6,32,num_8,0.683445223607,,,2017_Aug_01_1132,59.9982103215,FEMA4ImagesEEG,001,101165,
AFNE01.JPG,AFNE01.JPG,AFNE01.JPG,AFNE01.JPG,AFNE01.JPG,AFNE01.JPG,,,,,,,,,1,7,17,4,,,,,,,,,,,,,,,AFSA16.jpg,AFSA12.jpg,AFNE20.jpg,AFNE08.jpg,AFSA16.jpg,FS,4,num_8,32,num_2,1.15007077134,,,2017_Aug_01_1132,59.9982103215,FEMA4ImagesEEG,001,101165,
AFNE01.JPG,AFNE01.JPG,AFNE01.JPG,AFNE01.JPG,AFNE01.JPG,AFNE01.JPG,,,,,,,,,1,8,18,1,,,,,,,,,,,,,,,AFSA04.jpg,AFSA06.jpg,AFNE17.jpg,AFNE07.jpg,AFNE07.jpg,FN,3,num_4,32,num_8,1.5001432104,,,2017_Aug_01_1132,59.9982103215,FEMA4ImagesEEG,001,101165,
AFNE01.JPG,AFNE01.JPG,AFNE01.JPG,AFNE01.JPG,AFNE01.JPG,AFNE01.JPG,,,,,,,,,1,9,19,0,,,,,,,,,,,,,,,AFNE07.jpg,AFSA08.jpg,AFNE16.jpg,AFSA20.jpg,AFSA20.jpg,FS,4,num_4,16,num_4,0.916764091467,,,2017_Aug_01_1132,59.9982103215,FEMA4ImagesEEG,001,101165,
AFNE01.JPG,AFNE01.JPG,AFNE01.JPG,AFNE01.JPG,AFNE01.JPG,AFNE01.JPG,,,,,,,,,2,0,20,8,,,,,,,,,,,,,,,AFNE20.jpg,AFSA04.jpg,AFSA12.jpg,AFNE07.jpg,AFNE07.jpg,FN,3,num_4,16,num_4,0.650213340297,,,2017_Aug_01_1132,59.9982103215,FEMA4ImagesEEG,001,101165,
AFNE01.JPG,AFNE01.JPG,AFNE01.JPG,AFNE01.JPG,AFNE01.JPG,AFNE01.JPG,,,,,,,,,2,1,21,5,,,,,,,,,,,,,,,AFNE02.jpg,AFSA18.jpg,AFNE08.jpg,AFSA13.jpg,AFNE02.jpg,FN,3,num_8,16,num_8,0.850114295725,,,2017_Aug_01_1132,59.9982103215,FEMA4ImagesEEG,001,101165,
AFNE01.JPG,AFNE01.JPG,AFNE01.JPG,AFNE01.JPG,AFNE01.JPG,AFNE01.JPG,,,,,,,,,2,2,22,2,,,,,,,,,,,,,,,AFSA14.jpg,AFSA07.jpg,AFNE04.jpg,AFNE18.jpg,AFSA14.jpg,FS,4,num_8,16,num_8,0.550011242041,,,2017_Aug_01_1132,59.9982103215,FEMA4ImagesEEG,001,101165,
AFNE01.JPG,AFNE01.JPG,AFNE01.JPG,AFNE01.JPG,AFNE01.JPG,AFNE01.JPG,,,,,,,,,2,3,23,3,,,,,,,,,,,,,,,AFSA05.jpg,AFSA15.jpg,AFNE05.jpg,AFNE20.jpg,AFNE05.jpg,FN,3,num_2,32,num_4,0.966799228685,,,2017_Aug_01_1132,59.9982103215,FEMA4ImagesEEG,001,101165,
AFNE01.JPG,AFNE01.JPG,AFNE01.JPG,AFNE01.JPG,AFNE01.JPG,AFNE01.JPG,,,,,,,,,2,4,24,1,,,,,,,,,,,,,,,AFSA07.jpg,AFNE16.jpg,AFNE18.jpg,AFSA18.jpg,AFNE18.jpg,FN,3,num_2,32,num_6,0.633456914453,,,2017_Aug_01_1132,59.9982103215,FEMA4ImagesEEG,001,101165,
AFNE01.JPG,AFNE01.JPG,AFNE01.JPG,AFNE01.JPG,AFNE01.JPG,AFNE01.JPG,,,,,,,,,2,5,25,7,,,,,,,,,,,,,,,AFNE20.jpg,AFNE15.jpg,AFSA09.jpg,AFSA02.jpg,AFNE20.jpg,FN,3,num_8,16,num_8,1.20008826768,,,2017_Aug_01_1132,59.9982103215,FEMA4ImagesEEG,001,101165,
AFNE01.JPG,AFNE01.JPG,AFNE01.JPG,AFNE01.JPG,AFNE01.JPG,AFNE01.JPG,,,,,,,,,2,6,26,4,,,,,,,,,,,,,,,AFSA14.jpg,AFNE02.jpg,AFSA18.jpg,AFNE07.jpg,AFSA18.jpg,FS,4,num_2,16,num_2,1.88341096858,,,2017_Aug_01_1132,59.9982103215,FEMA4ImagesEEG,001,101165,
AFNE01.JPG,AFNE01.JPG,AFNE01.JPG,AFNE01.JPG,AFNE01.JPG,AFNE01.JPG,,,,,,,,,2,7,27,9,,,,,,,,,,,,,,,AFSA01.jpg,AFNE09.jpg,AFNE01.jpg,AFSA10.jpg,AFNE01.jpg,FN,3,num_2,32,num_6,0.750102396356,,,2017_Aug_01_1132,59.9982103215,FEMA4ImagesEEG,001,101165,
AFNE01.JPG,AFNE01.JPG,AFNE01.JPG,AFNE01.JPG,AFNE01.JPG,AFNE01.JPG,,,,,,,,,2,8,28,6,,,,,,,,,,,,,,,AFSA04.jpg,AFSA20.jpg,AFNE02.jpg,AFNE09.jpg,AFSA04.jpg,FS,4,num_8,16,num_8,0.783517101547,,,2017_Aug_01_1132,59.9982103215,FEMA4ImagesEEG,001,101165,
AFNE01.JPG,AFNE01.JPG,AFNE01.JPG,AFNE01.JPG,AFNE01.JPG,AFNE01.JPG,,,,,,,,,2,9,29,0,,,,,,,,,,,,,,,AFNE18.jpg,AFSA15.jpg,AFSA02.jpg,AFNE15.jpg,AFNE15.jpg,FN,3,num_4,16,num_4,0.816791963996,,,2017_Aug_01_1132,59.9982103215,FEMA4ImagesEEG,001,101165,
AFNE01.JPG,AFNE01.JPG,AFNE01.JPG,AFNE01.JPG,AFNE01.JPG,AFNE01.JPG,,,,,,,,,3,0,30,9,,,,,,,,,,,,,,,AFNE01.jpg,AFSA14.jpg,AFNE14.jpg,AFSA16.jpg,AFNE01.jpg,FN,3,num_8,32,num_2,1.06678065774,,,2017_Aug_01_1132,59.9982103215,FEMA4ImagesEEG,001,101165,
AFNE01.JPG,AFNE01.JPG,AFNE01.JPG,AFNE01.JPG,AFNE01.JPG,AFNE01.JPG,,,,,,,,,3,1,31,8,,,,,,,,,,,,,,,AFSA15.jpg,AFNE03.jpg,AFSA19.jpg,AFNE04.jpg,AFNE03.jpg,FN,3,num_6,32,num_8,0.983357757796,,,2017_Aug_01_1132,59.9982103215,FEMA4ImagesEEG,001,101165,
AFNE01.JPG,AFNE01.JPG,AFNE01.JPG,AFNE01.JPG,AFNE01.JPG,AFNE01.JPG,,,,,,,,,3,2,32,7,,,,,,,,,,,,,,,AFSA15.jpg,AFNE13.jpg,AFNE12.jpg,AFSA16.jpg,AFNE13.jpg,FN,3,num_6,16,num_6,0.666789830662,,,2017_Aug_01_1132,59.9982103215,FEMA4ImagesEEG,001,101165,
AFNE01.JPG,AFNE01.JPG,AFNE01.JPG,AFNE01.JPG,AFNE01.JPG,AFNE01.JPG,,,,,,,,,3,3,33,2,,,,,,,,,,,,,,,AFNE15.jpg,AFSA10.jpg,AFSA12.jpg,AFNE18.jpg,AFSA12.jpg,FS,4,num_2,32,num_8,1.13343205722,,,2017_Aug_01_1132,59.9982103215,FEMA4ImagesEEG,001,101165,
AFNE01.JPG,AFNE01.JPG,AFNE01.JPG,AFNE01.JPG,AFNE01.JPG,AFNE01.JPG,,,,,,,,,3,4,34,3,,,,,,,,,,,,,,,AFSA02.jpg,AFNE04.jpg,AFNE02.jpg,AFSA16.jpg,AFNE02.jpg,FN,3,num_2,16,num_2,0.916796486359,,,2017_Aug_01_1132,59.9982103215,FEMA4ImagesEEG,001,101165,
AFNE01.JPG,AFNE01.JPG,AFNE01.JPG,AFNE01.JPG,AFNE01.JPG,AFNE01.JPG,,,,,,,,,3,5,35,5,,,,,,,,,,,,,,,AFSA15.jpg,AFSA13.jpg,AFNE10.jpg,AFNE03.jpg,AFNE03.jpg,FN,3,num_4,32,num_2,0.933457331499,,,2017_Aug_01_1132,59.9982103215,FEMA4ImagesEEG,001,101165,
AFNE01.JPG,AFNE01.JPG,AFNE01.JPG,AFNE01.JPG,AFNE01.JPG,AFNE01.JPG,,,,,,,,,3,6,36,6,,,,,,,,,,,,,,,AFNE06.jpg,AFSA05.jpg,AFNE19.jpg,AFSA03.jpg,AFNE19.jpg,FN,3,num_2,32,num_8,0.850109805586,,,2017_Aug_01_1132,59.9982103215,FEMA4ImagesEEG,001,101165,
AFNE01.JPG,AFNE01.JPG,AFNE01.JPG,AFNE01.JPG,AFNE01.JPG,AFNE01.JPG,,,,,,,,,3,7,37,1,,,,,,,,,,,,,,,AFSA05.jpg,AFNE20.jpg,AFSA11.jpg,AFNE07.jpg,AFSA05.jpg,FS,4,num_8,32,num_2,1.61669182871,,,2017_Aug_01_1132,59.9982103215,FEMA4ImagesEEG,001,101165,
AFNE01.JPG,AFNE01.JPG,AFNE01.JPG,AFNE01.JPG,AFNE01.JPG,AFNE01.JPG,,,,,,,,,3,8,38,0,,,,,,,,,,,,,,,AFNE02.jpg,AFSA10.jpg,AFSA20.jpg,AFNE12.jpg,AFNE12.jpg,FN,3,num_4,16,num_4,0.783478612546,,,2017_Aug_01_1132,59.9982103215,FEMA4ImagesEEG,001,101165,
AFNE01.JPG,AFNE01.JPG,AFNE01.JPG,AFNE01.JPG,AFNE01.JPG,AFNE01.JPG,,,,,,,,,3,9,39,4,,,,,,,,,,,,,,,AFSA06.jpg,AFNE07.jpg,AFSA15.jpg,AFNE06.jpg,AFSA06.jpg,FS,4,num_8,16,num_8,0.950120421825,,,2017_Aug_01_1132,59.9982103215,FEMA4ImagesEEG,001,101165,
AFNE01.JPG,AFNE01.JPG,AFNE01.JPG,AFNE01.JPG,AFNE01.JPG,AFNE01.JPG,,,,,,,,,4,0,40,8,,,,,,,,,,,,,,,AFSA16.jpg,AFNE17.jpg,AFSA02.jpg,AFNE15.jpg,AFSA02.jpg,FS,4,num_2,32,num_8,0.883498530369,,,2017_Aug_01_1132,59.9982103215,FEMA4ImagesEEG,001,101165,
AFNE01.JPG,AFNE01.JPG,AFNE01.JPG,AFNE01.JPG,AFNE01.JPG,AFNE01.JPG,,,,,,,,,4,1,41,2,,,,,,,,,,,,,,,AFNE12.jpg,AFNE16.jpg,AFSA06.jpg,AFSA16.jpg,AFNE16.jpg,FN,3,num_6,32,num_8,0.933470802614,,,2017_Aug_01_1132,59.9982103215,FEMA4ImagesEEG,001,101165,
AFNE01.JPG,AFNE01.JPG,AFNE01.JPG,AFNE01.JPG,AFNE01.JPG,AFNE01.JPG,,,,,,,,,4,2,42,0,,,,,,,,,,,,,,,AFNE02.jpg,AFSA19.jpg,AFSA16.jpg,AFNE12.jpg,AFNE12.jpg,FN,3,num_4,32,num_8,0.800134646706,,,2017_Aug_01_1132,59.9982103215,FEMA4ImagesEEG,001,101165,
AFNE01.JPG,AFNE01.JPG,AFNE01.JPG,AFNE01.JPG,AFNE01.JPG,AFNE01.JPG,,,,,,,,,4,3,43,6,,,,,,,,,,,,,,,AFNE18.jpg,AFSA15.jpg,AFNE03.jpg,AFSA10.jpg,AFNE18.jpg,FN,3,num_8,32,num_2,1.05009992677,,,2017_Aug_01_1132,59.9982103215,FEMA4ImagesEEG,001,101165,
AFNE01.JPG,AFNE01.JPG,AFNE01.JPG,AFNE01.JPG,AFNE01.JPG,AFNE01.JPG,,,,,,,,,4,4,44,1,,,,,,,,,,,,,,,AFNE12.jpg,AFSA04.jpg,AFSA10.jpg,AFNE19.jpg,AFSA10.jpg,FS,4,num_2,32,num_8,0.800113477744,,,2017_Aug_01_1132,59.9982103215,FEMA4ImagesEEG,001,101165,
AFNE01.JPG,AFNE01.JPG,AFNE01.JPG,AFNE01.JPG,AFNE01.JPG,AFNE01.JPG,,,,,,,,,4,5,45,4,,,,,,,,,,,,,,,AFSA11.jpg,AFSA15.jpg,AFNE20.jpg,AFNE06.jpg,AFSA15.jpg,FS,4,num_6,32,num_8,0.933445143281,,,2017_Aug_01_1132,59.9982103215,FEMA4ImagesEEG,001,101165,
AFNE01.JPG,AFNE01.JPG,AFNE01.JPG,AFNE01.JPG,AFNE01.JPG,AFNE01.JPG,,,,,,,,,4,6,46,3,,,,,,,,,,,,,,,AFNE18.jpg,AFSA06.jpg,AFNE19.jpg,AFSA18.jpg,AFNE18.jpg,FN,3,num_8,16,num_8,0.917078416795,,,2017_Aug_01_1132,59.9982103215,FEMA4ImagesEEG,001,101165,
AFNE01.JPG,AFNE01.JPG,AFNE01.JPG,AFNE01.JPG,AFNE01.JPG,AFNE01.JPG,,,,,,,,,4,7,47,5,,,,,,,,,,,,,,,AFNE10.jpg,AFSA17.jpg,AFNE19.jpg,AFSA04.jpg,AFNE10.jpg,FN,3,num_8,16,num_8,0.683486919617,,,2017_Aug_01_1132,59.9982103215,FEMA4ImagesEEG,001,101165,
AFNE01.JPG,AFNE01.JPG,AFNE01.JPG,AFNE01.JPG,AFNE01.JPG,AFNE01.JPG,,,,,,,,,4,8,48,9,,,,,,,,,,,,,,,AFSA14.jpg,AFNE07.jpg,AFNE06.jpg,AFSA03.jpg,AFNE07.jpg,FN,3,num_6,16,num_6,0.916808353504,,,2017_Aug_01_1132,59.9982103215,FEMA4ImagesEEG,001,101165,
AFNE01.JPG,AFNE01.JPG,AFNE01.JPG,AFNE01.JPG,AFNE01.JPG,AFNE01.JPG,,,,,,,,,4,9,49,7,,,,,,,,,,,,,,,AFSA16.jpg,AFNE07.jpg,AFSA08.jpg,AFNE04.jpg,AFSA08.jpg,FS,4,num_2,32,num_4,1.18335846323,,,2017_Aug_01_1132,59.9982103215,FEMA4ImagesEEG,001,101165,
AFNE01.JPG,AFNE01.JPG,AFNE01.JPG,AFNE01.JPG,AFNE01.JPG,AFNE01.JPG,,,,,,,,,5,0,50,7,,,,,,,,,,,,,,,AFSA07.jpg,AFNE08.jpg,AFNE20.jpg,AFSA08.jpg,AFSA07.jpg,FS,4,num_8,32,num_6,1.83342618751,,,2017_Aug_01_1132,59.9982103215,FEMA4ImagesEEG,001,101165,
AFNE01.JPG,AFNE01.JPG,AFNE01.JPG,AFNE01.JPG,AFNE01.JPG,AFNE01.JPG,,,,,,,,,5,1,51,0,,,,,,,,,,,,,,,AFSA02.jpg,AFNE06.jpg,AFNE19.jpg,AFSA06.jpg,AFSA06.jpg,FS,4,num_4,32,num_6,1.50005596899,,,2017_Aug_01_1132,59.9982103215,FEMA4ImagesEEG,001,101165,
AFNE01.JPG,AFNE01.JPG,AFNE01.JPG,AFNE01.JPG,AFNE01.JPG,AFNE01.JPG,,,,,,,,,5,2,52,1,,,,,,,,,,,,,,,AFSA02.jpg,AFNE18.jpg,AFSA12.jpg,AFNE08.jpg,AFSA12.jpg,FS,4,num_2,16,num_2,0.766757468227,,,2017_Aug_01_1132,59.9982103215,FEMA4ImagesEEG,001,101165,
AFNE01.JPG,AFNE01.JPG,AFNE01.JPG,AFNE01.JPG,AFNE01.JPG,AFNE01.JPG,,,,,,,,,5,3,53,4,,,,,,,,,,,,,,,AFSA09.jpg,AFSA05.jpg,AFNE02.jpg,AFNE04.jpg,AFNE04.jpg,FN,3,num_4,32,num_8,1.0667659035,,,2017_Aug_01_1132,59.9982103215,FEMA4ImagesEEG,001,101165,
AFNE01.JPG,AFNE01.JPG,AFNE01.JPG,AFNE01.JPG,AFNE01.JPG,AFNE01.JPG,,,,,,,,,5,4,54,9,,,,,,,,,,,,,,,AFNE18.jpg,AFSA17.jpg,AFSA20.jpg,AFNE04.jpg,AFNE18.jpg,FN,3,num_8,32,num_4,1.06672516954,,,2017_Aug_01_1132,59.9982103215,FEMA4ImagesEEG,001,101165,
AFNE01.JPG,AFNE01.JPG,AFNE01.JPG,AFNE01.JPG,AFNE01.JPG,AFNE01.JPG,,,,,,,,,5,5,55,2,,,,,,,,,,,,,,,AFNE04.jpg,AFSA12.jpg,AFNE09.jpg,AFSA14.jpg,AFNE09.jpg,FN,3,num_2,32,num_8,0.816818905994,,,2017_Aug_01_1132,59.9982103215,FEMA4ImagesEEG,001,101165,
AFNE01.JPG,AFNE01.JPG,AFNE01.JPG,AFNE01.JPG,AFNE01.JPG,AFNE01.JPG,,,,,,,,,5,6,56,3,,,,,,,,,,,,,,,AFNE02.jpg,AFNE07.jpg,AFSA13.jpg,AFSA16.jpg,AFSA16.jpg,FS,4,num_4,32,num_8,3.23360945843,,,2017_Aug_01_1132,59.9982103215,FEMA4ImagesEEG,001,101165,
AFNE01.JPG,AFNE01.JPG,AFNE01.JPG,AFNE01.JPG,AFNE01.JPG,AFNE01.JPG,,,,,,,,,5,7,57,6,,,,,,,,,,,,,,,AFSA03.jpg,AFNE09.jpg,AFNE18.jpg,AFSA09.jpg,AFNE09.jpg,FN,3,num_6,16,num_6,1.58338008123,,,2017_Aug_01_1132,59.9982103215,FEMA4ImagesEEG,001,101165,
AFNE01.JPG,AFNE01.JPG,AFNE01.JPG,AFNE01.JPG,AFNE01.JPG,AFNE01.JPG,,,,,,,,,5,8,58,8,,,,,,,,,,,,,,,AFNE12.jpg,AFSA08.jpg,AFNE08.jpg,AFSA07.jpg,AFSA08.jpg,FS,4,num_6,32,num_4,1.1001029897,,,2017_Aug_01_1132,59.9982103215,FEMA4ImagesEEG,001,101165,
AFNE01.JPG,AFNE01.JPG,AFNE01.JPG,AFNE01.JPG,AFNE01.JPG,AFNE01.JPG,,,,,,,,,5,9,59,5,,,,,,,,,,,,,,,AFSA17.jpg,AFNE07.jpg,AFNE10.jpg,AFSA12.jpg,AFNE10.jpg,FN,3,num_2,32,num_4,1.60000211699,,,2017_Aug_01_1132,59.9982103215,FEMA4ImagesEEG,001,101165,
,,,,,,,,,,,,,,,,,,,,,,,,,,,,,,,,,,,,,,,,,,,space,14.0824000598,2017_Aug_01_1132,59.9982103215,FEMA4ImagesEEG,001,101165,
AFNE01.JPG,AFNE01.JPG,AFNE01.JPG,AFNE01.JPG,AFNE01.JPG,AFNE01.JPG,,,,,,,,,,,,,0,0,0,1,,,,,,,,,,,AMNE15.jpg,AMSA17.jpg,AMSA01.jpg,AMNE07.jpg,AMNE15.jpg,MN,1,num_8,16,num_8,0.750134791015,,,2017_Aug_01_1132,59.9982103215,FEMA4ImagesEEG,001,101165,
AFNE01.JPG,AFNE01.JPG,AFNE01.JPG,AFNE01.JPG,AFNE01.JPG,AFNE01.JPG,,,,,,,,,,,,,0,1,1,5,,,,,,,,,,,AMSA19.jpg,AMNE12.jpg,AMSA08.jpg,AMNE01.jpg,AMSA08.jpg,MS,2,num_2,16,num_2,0.816805434879,,,2017_Aug_01_1132,59.9982103215,FEMA4ImagesEEG,001,101165,
AFNE01.JPG,AFNE01.JPG,AFNE01.JPG,AFNE01.JPG,AFNE01.JPG,AFNE01.JPG,,,,,,,,,,,,,0,2,2,0,,,,,,,,,,,AMNE13.jpg,AMNE02.jpg,AMSA13.jpg,AMSA18.jpg,AMSA13.jpg,MS,2,num_2,16,num_2,0.566793006146,,,2017_Aug_01_1132,59.9982103215,FEMA4ImagesEEG,001,101165,
AFNE01.JPG,AFNE01.JPG,AFNE01.JPG,AFNE01.JPG,AFNE01.JPG,AFNE01.JPG,,,,,,,,,,,,,0,3,3,3,,,,,,,,,,,AMSA03.jpg,AMNE12.jpg,AMSA07.jpg,AMNE08.jpg,AMSA03.jpg,MS,2,num_8,16,num_8,1.35009745695,,,2017_Aug_01_1132,59.9982103215,FEMA4ImagesEEG,001,101165,
AFNE01.JPG,AFNE01.JPG,AFNE01.JPG,AFNE01.JPG,AFNE01.JPG,AFNE01.JPG,,,,,,,,,,,,,0,4,4,4,,,,,,,,,,,AMSA08.jpg,AMNE08.jpg,AMNE16.jpg,AMSA10.jpg,AMNE16.jpg,MN,1,num_2,16,num_2,1.2169646502,,,2017_Aug_01_1132,59.9982103215,FEMA4ImagesEEG,001,101165,
AFNE01.JPG,AFNE01.JPG,AFNE01.JPG,AFNE01.JPG,AFNE01.JPG,AFNE01.JPG,,,,,,,,,,,,,0,5,5,6,,,,,,,,,,,AMSA04.jpg,AMNE03.jpg,AMSA18.jpg,AMNE10.jpg,AMSA04.jpg,MS,2,num_8,16,num_8,1.06674120668,,,2017_Aug_01_1132,59.9982103215,FEMA4ImagesEEG,001,101165,
AFNE01.JPG,AFNE01.JPG,AFNE01.JPG,AFNE01.JPG,AFNE01.JPG,AFNE01.JPG,,,,,,,,,,,,,0,6,6,9,,,,,,,,,,,AMSA16.jpg,AMSA19.jpg,AMNE09.jpg,AMNE05.jpg,AMSA19.jpg,MS,2,num_6,16,num_6,0.466668206034,,,2017_Aug_01_1132,59.9982103215,FEMA4ImagesEEG,001,101165,
AFNE01.JPG,AFNE01.JPG,AFNE01.JPG,AFNE01.JPG,AFNE01.JPG,AFNE01.JPG,,,,,,,,,,,,,0,7,7,8,,,,,,,,,,,AMNE03.jpg,AMSA12.jpg,AMSA06.jpg,AMNE19.jpg,AMSA12.jpg,MS,2,num_6,16,num_6,1.38345058006,,,2017_Aug_01_1132,59.9982103215,FEMA4ImagesEEG,001,101165,
AFNE01.JPG,AFNE01.JPG,AFNE01.JPG,AFNE01.JPG,AFNE01.JPG,AFNE01.JPG,,,,,,,,,,,,,0,8,8,2,,,,,,,,,,,AMNE07.jpg,AMSA05.jpg,AMSA04.jpg,AMNE19.jpg,AMNE19.jpg,MN,1,num_4,16,num_4,0.966671574162,,,2017_Aug_01_1132,59.9982103215,FEMA4ImagesEEG,001,101165,
AFNE01.JPG,AFNE01.JPG,AFNE01.JPG,AFNE01.JPG,AFNE01.JPG,AFNE01.JPG,,,,,,,,,,,,,0,9,9,7,,,,,,,,,,,AMNE03.jpg,AMNE15.jpg,AMSA19.jpg,AMSA01.jpg,AMNE15.jpg,MN,1,num_6,32,num_8,0.700122747337,,,2017_Aug_01_1132,59.9982103215,FEMA4ImagesEEG,001,101165,
AFNE01.JPG,AFNE01.JPG,AFNE01.JPG,AFNE01.JPG,AFNE01.JPG,AFNE01.JPG,,,,,,,,,,,,,1,0,10,2,,,,,,,,,,,AMNE05.jpg,AMSA18.jpg,AMNE14.jpg,AMSA03.jpg,AMSA03.jpg,MS,2,num_4,32,num_6,0.800151966512,,,2017_Aug_01_1132,59.9982103215,FEMA4ImagesEEG,001,101165,
AFNE01.JPG,AFNE01.JPG,AFNE01.JPG,AFNE01.JPG,AFNE01.JPG,AFNE01.JPG,,,,,,,,,,,,,1,1,11,0,,,,,,,,,,,AMNE19.jpg,AMNE09.jpg,AMSA14.jpg,AMSA18.jpg,AMSA18.jpg,MS,2,num_4,16,num_4,0.966850226279,,,2017_Aug_01_1132,59.9982103215,FEMA4ImagesEEG,001,101165,
AFNE01.JPG,AFNE01.JPG,AFNE01.JPG,AFNE01.JPG,AFNE01.JPG,AFNE01.JPG,,,,,,,,,,,,,1,2,12,5,,,,,,,,,,,AMSA13.jpg,AMSA20.jpg,AMNE20.jpg,AMNE06.jpg,AMNE20.jpg,MN,1,num_2,16,num_2,0.650140532292,,,2017_Aug_01_1132,59.9982103215,FEMA4ImagesEEG,001,101165,
AFNE01.JPG,AFNE01.JPG,AFNE01.JPG,AFNE01.JPG,AFNE01.JPG,AFNE01.JPG,,,,,,,,,,,,,1,3,13,9,,,,,,,,,,,AMNE20.jpg,AMSA18.jpg,AMNE06.jpg,AMSA14.jpg,AMSA18.jpg,MS,2,num_6,32,num_8,0.750145375496,,,2017_Aug_01_1132,59.9982103215,FEMA4ImagesEEG,001,101165,
AFNE01.JPG,AFNE01.JPG,AFNE01.JPG,AFNE01.JPG,AFNE01.JPG,AFNE01.JPG,,,,,,,,,,,,,1,4,14,4,,,,,,,,,,,AMNE17.jpg,AMSA03.jpg,AMSA11.jpg,AMNE02.jpg,AMSA11.jpg,MS,2,num_2,16,num_2,0.633515289286,,,2017_Aug_01_1132,59.9982103215,FEMA4ImagesEEG,001,101165,
AFNE01.JPG,AFNE01.JPG,AFNE01.JPG,AFNE01.JPG,AFNE01.JPG,AFNE01.JPG,,,,,,,,,,,,,1,5,15,1,,,,,,,,,,,AMNE02.jpg,AMSA03.jpg,AMSA06.jpg,AMNE12.jpg,AMSA03.jpg,MS,2,num_6,32,num_2,1.68344939314,,,2017_Aug_01_1132,59.9982103215,FEMA4ImagesEEG,001,101165,
AFNE01.JPG,AFNE01.JPG,AFNE01.JPG,AFNE01.JPG,AFNE01.JPG,AFNE01.JPG,,,,,,,,,,,,,1,6,16,6,,,,,,,,,,,AMSA01.jpg,AMNE19.jpg,AMSA08.jpg,AMNE06.jpg,AMSA08.jpg,MS,2,num_2,32,num_8,0.783480536891,,,2017_Aug_01_1132,59.9982103215,FEMA4ImagesEEG,001,101165,
AFNE01.JPG,AFNE01.JPG,AFNE01.JPG,AFNE01.JPG,AFNE01.JPG,AFNE01.JPG,,,,,,,,,,,,,1,7,17,8,,,,,,,,,,,AMNE17.jpg,AMNE09.jpg,AMSA12.jpg,AMSA15.jpg,AMSA15.jpg,MS,2,num_4,16,num_4,0.700157387182,,,2017_Aug_01_1132,59.9982103215,FEMA4ImagesEEG,001,101165,
AFNE01.JPG,AFNE01.JPG,AFNE01.JPG,AFNE01.JPG,AFNE01.JPG,AFNE01.JPG,,,,,,,,,,,,,1,8,18,3,,,,,,,,,,,AMSA16.jpg,AMNE11.jpg,AMNE02.jpg,AMSA02.jpg,AMSA02.jpg,MS,2,num_4,48,None,,,,2017_Aug_01_1132,59.9982103215,FEMA4ImagesEEG,001,101165,
AFNE01.JPG,AFNE01.JPG,AFNE01.JPG,AFNE01.JPG,AFNE01.JPG,AFNE01.JPG,,,,,,,,,,,,,1,9,19,7,,,,,,,,,,,AMSA11.jpg,AMSA13.jpg,AMNE02.jpg,AMNE08.jpg,AMSA11.jpg,MS,2,num_8,32,num_6,1.08350116061,,,2017_Aug_01_1132,59.9982103215,FEMA4ImagesEEG,001,101165,
AFNE01.JPG,AFNE01.JPG,AFNE01.JPG,AFNE01.JPG,AFNE01.JPG,AFNE01.JPG,,,,,,,,,,,,,2,0,20,3,,,,,,,,,,,AMNE15.jpg,AMSA10.jpg,AMSA11.jpg,AMNE04.jpg,AMNE15.jpg,MN,1,num_8,32,num_6,1.53344790172,,,2017_Aug_01_1132,59.9982103215,FEMA4ImagesEEG,001,101165,
AFNE01.JPG,AFNE01.JPG,AFNE01.JPG,AFNE01.JPG,AFNE01.JPG,AFNE01.JPG,,,,,,,,,,,,,2,1,21,4,,,,,,,,,,,AMNE07.jpg,AMSA10.jpg,AMSA04.jpg,AMNE10.jpg,AMSA10.jpg,MS,2,num_6,16,num_6,0.70015289681,,,2017_Aug_01_1132,59.9982103215,FEMA4ImagesEEG,001,101165,
AFNE01.JPG,AFNE01.JPG,AFNE01.JPG,AFNE01.JPG,AFNE01.JPG,AFNE01.JPG,,,,,,,,,,,,,2,2,22,2,,,,,,,,,,,AMSA01.jpg,AMNE17.jpg,AMNE06.jpg,AMSA06.jpg,AMNE06.jpg,MN,1,num_2,32,num_4,1.01676251995,,,2017_Aug_01_1132,59.9982103215,FEMA4ImagesEEG,001,101165,
AFNE01.JPG,AFNE01.JPG,AFNE01.JPG,AFNE01.JPG,AFNE01.JPG,AFNE01.JPG,,,,,,,,,,,,,2,3,23,0,,,,,,,,,,,AMNE08.jpg,AMSA05.jpg,AMSA18.jpg,AMNE09.jpg,AMNE08.jpg,MN,1,num_8,16,num_8,1.00012669223,,,2017_Aug_01_1132,59.9982103215,FEMA4ImagesEEG,001,101165,
AFNE01.JPG,AFNE01.JPG,AFNE01.JPG,AFNE01.JPG,AFNE01.JPG,AFNE01.JPG,,,,,,,,,,,,,2,4,24,1,,,,,,,,,,,AMNE01.jpg,AMSA03.jpg,AMSA01.jpg,AMNE18.jpg,AMNE01.jpg,MN,1,num_8,32,num_2,2.01672146516,,,2017_Aug_01_1132,59.9982103215,FEMA4ImagesEEG,001,101165,
AFNE01.JPG,AFNE01.JPG,AFNE01.JPG,AFNE01.JPG,AFNE01.JPG,AFNE01.JPG,,,,,,,,,,,,,2,5,25,5,,,,,,,,,,,AMSA19.jpg,AMNE04.jpg,AMNE17.jpg,AMSA13.jpg,AMNE04.jpg,MN,1,num_6,16,num_6,0.850174915511,,,2017_Aug_01_1132,59.9982103215,FEMA4ImagesEEG,001,101165,
AFNE01.JPG,AFNE01.JPG,AFNE01.JPG,AFNE01.JPG,AFNE01.JPG,AFNE01.JPG,,,,,,,,,,,,,2,6,26,6,,,,,,,,,,,AMSA20.jpg,AMNE12.jpg,AMSA13.jpg,AMNE19.jpg,AMNE19.jpg,MN,1,num_4,32,num_8,0.883410647744,,,2017_Aug_01_1132,59.9982103215,FEMA4ImagesEEG,001,101165,
AFNE01.JPG,AFNE01.JPG,AFNE01.JPG,AFNE01.JPG,AFNE01.JPG,AFNE01.JPG,,,,,,,,,,,,,2,7,27,7,,,,,,,,,,,AMNE09.jpg,AMSA02.jpg,AMNE05.jpg,AMSA04.jpg,AMSA02.jpg,MS,2,num_6,32,num_4,0.966759135947,,,2017_Aug_01_1132,59.9982103215,FEMA4ImagesEEG,001,101165,
AFNE01.JPG,AFNE01.JPG,AFNE01.JPG,AFNE01.JPG,AFNE01.JPG,AFNE01.JPG,,,,,,,,,,,,,2,8,28,8,,,,,,,,,,,AMNE15.jpg,AMNE17.jpg,AMSA01.jpg,AMSA12.jpg,AMSA01.jpg,MS,2,num_2,32,num_6,0.850132257212,,,2017_Aug_01_1132,59.9982103215,FEMA4ImagesEEG,001,101165,
AFNE01.JPG,AFNE01.JPG,AFNE01.JPG,AFNE01.JPG,AFNE01.JPG,AFNE01.JPG,,,,,,,,,,,,,2,9,29,9,,,,,,,,,,,AMSA13.jpg,AMNE14.jpg,AMNE08.jpg,AMSA14.jpg,AMNE14.jpg,MN,1,num_6,32,num_8,0.98345205537,,,2017_Aug_01_1132,59.9982103215,FEMA4ImagesEEG,001,101165,
AFNE01.JPG,AFNE01.JPG,AFNE01.JPG,AFNE01.JPG,AFNE01.JPG,AFNE01.JPG,,,,,,,,,,,,,3,0,30,2,,,,,,,,,,,AMNE03.jpg,AMNE04.jpg,AMSA10.jpg,AMSA09.jpg,AMNE03.jpg,MN,1,num_8,32,num_6,0.950168212177,,,2017_Aug_01_1132,59.9982103215,FEMA4ImagesEEG,001,101165,
AFNE01.JPG,AFNE01.JPG,AFNE01.JPG,AFNE01.JPG,AFNE01.JPG,AFNE01.JPG,,,,,,,,,,,,,3,1,31,0,,,,,,,,,,,AMNE07.jpg,AMSA08.jpg,AMSA13.jpg,AMNE03.jpg,AMNE07.jpg,MN,1,num_8,32,num_6,1.25013880036,,,2017_Aug_01_1132,59.9982103215,FEMA4ImagesEEG,001,101165,
AFNE01.JPG,AFNE01.JPG,AFNE01.JPG,AFNE01.JPG,AFNE01.JPG,AFNE01.JPG,,,,,,,,,,,,,3,2,32,9,,,,,,,,,,,AMNE08.jpg,AMSA10.jpg,AMSA13.jpg,AMNE06.jpg,AMNE06.jpg,MN,1,num_4,16,num_4,0.816782341572,,,2017_Aug_01_1132,59.9982103215,FEMA4ImagesEEG,001,101165,
AFNE01.JPG,AFNE01.JPG,AFNE01.JPG,AFNE01.JPG,AFNE01.JPG,AFNE01.JPG,,,,,,,,,,,,,3,3,33,6,,,,,,,,,,,AMNE20.jpg,AMNE10.jpg,AMSA13.jpg,AMSA03.jpg,AMNE10.jpg,MN,1,num_6,32,num_2,1.00015748339,,,2017_Aug_01_1132,59.9982103215,FEMA4ImagesEEG,001,101165,
AFNE01.JPG,AFNE01.JPG,AFNE01.JPG,AFNE01.JPG,AFNE01.JPG,AFNE01.JPG,,,,,,,,,,,,,3,4,34,3,,,,,,,,,,,AMNE12.jpg,AMSA10.jpg,AMNE03.jpg,AMSA13.jpg,AMSA10.jpg,MS,2,num_6,32,num_8,0.783429539297,,,2017_Aug_01_1132,59.9982103215,FEMA4ImagesEEG,001,101165,
AFNE01.JPG,AFNE01.JPG,AFNE01.JPG,AFNE01.JPG,AFNE01.JPG,AFNE01.JPG,,,,,,,,,,,,,3,5,35,7,,,,,,,,,,,AMNE10.jpg,AMSA05.jpg,AMSA14.jpg,AMNE18.jpg,AMNE10.jpg,MN,1,num_8,16,num_8,0.716806364944,,,2017_Aug_01_1132,59.9982103215,FEMA4ImagesEEG,001,101165,
AFNE01.JPG,AFNE01.JPG,AFNE01.JPG,AFNE01.JPG,AFNE01.JPG,AFNE01.JPG,,,,,,,,,,,,,3,6,36,5,,,,,,,,,,,AMSA18.jpg,AMNE06.jpg,AMSA16.jpg,AMNE18.jpg,AMNE18.jpg,MN,1,num_4,32,num_6,0.783497215481,,,2017_Aug_01_1132,59.9982103215,FEMA4ImagesEEG,001,101165,
AFNE01.JPG,AFNE01.JPG,AFNE01.JPG,AFNE01.JPG,AFNE01.JPG,AFNE01.JPG,,,,,,,,,,,,,3,7,37,8,,,,,,,,,,,AMSA20.jpg,AMNE19.jpg,AMSA17.jpg,AMNE04.jpg,AMSA17.jpg,MS,2,num_2,32,num_4,0.63355089142,,,2017_Aug_01_1132,59.9982103215,FEMA4ImagesEEG,001,101165,
AFNE01.JPG,AFNE01.JPG,AFNE01.JPG,AFNE01.JPG,AFNE01.JPG,AFNE01.JPG,,,,,,,,,,,,,3,8,38,1,,,,,,,,,,,AMSA02.jpg,AMNE16.jpg,AMSA13.jpg,AMNE12.jpg,AMNE16.jpg,MN,1,num_6,16,num_6,0.600029058987,,,2017_Aug_01_1132,59.9982103215,FEMA4ImagesEEG,001,101165,
AFNE01.JPG,AFNE01.JPG,AFNE01.JPG,AFNE01.JPG,AFNE01.JPG,AFNE01.JPG,,,,,,,,,,,,,3,9,39,4,,,,,,,,,,,AMNE19.jpg,AMSA09.jpg,AMSA20.jpg,AMNE15.jpg,AMNE15.jpg,MN,1,num_4,16,num_4,0.750142488861,,,2017_Aug_01_1132,59.9982103215,FEMA4ImagesEEG,001,101165,
AFNE01.JPG,AFNE01.JPG,AFNE01.JPG,AFNE01.JPG,AFNE01.JPG,AFNE01.JPG,,,,,,,,,,,,,4,0,40,2,,,,,,,,,,,AMNE09.jpg,AMSA10.jpg,AMNE19.jpg,AMSA06.jpg,AMSA06.jpg,MS,2,num_4,32,num_8,1.66673562583,,,2017_Aug_01_1132,59.9982103215,FEMA4ImagesEEG,001,101165,
AFNE01.JPG,AFNE01.JPG,AFNE01.JPG,AFNE01.JPG,AFNE01.JPG,AFNE01.JPG,,,,,,,,,,,,,4,1,41,1,,,,,,,,,,,AMNE09.jpg,AMSA19.jpg,AMNE19.jpg,AMSA10.jpg,AMSA10.jpg,MS,2,num_4,16,num_4,0.533467146102,,,2017_Aug_01_1132,59.9982103215,FEMA4ImagesEEG,001,101165,
AFNE01.JPG,AFNE01.JPG,AFNE01.JPG,AFNE01.JPG,AFNE01.JPG,AFNE01.JPG,,,,,,,,,,,,,4,2,42,5,,,,,,,,,,,AMSA14.jpg,AMNE10.jpg,AMNE02.jpg,AMSA18.jpg,AMSA14.jpg,MS,2,num_8,32,num_2,1.46673299582,,,2017_Aug_01_1132,59.9982103215,FEMA4ImagesEEG,001,101165,
AFNE01.JPG,AFNE01.JPG,AFNE01.JPG,AFNE01.JPG,AFNE01.JPG,AFNE01.JPG,,,,,,,,,,,,,4,3,43,8,,,,,,,,,,,AMSA17.jpg,AMNE10.jpg,AMSA10.jpg,AMNE05.jpg,AMSA10.jpg,MS,2,num_2,32,num_6,0.700175990118,,,2017_Aug_01_1132,59.9982103215,FEMA4ImagesEEG,001,101165,
AFNE01.JPG,AFNE01.JPG,AFNE01.JPG,AFNE01.JPG,AFNE01.JPG,AFNE01.JPG,,,,,,,,,,,,,4,4,44,3,,,,,,,,,,,AMNE11.jpg,AMSA03.jpg,AMNE07.jpg,AMSA20.jpg,AMSA03.jpg,MS,2,num_6,16,num_6,0.933350525098,,,2017_Aug_01_1132,59.9982103215,FEMA4ImagesEEG,001,101165,
AFNE01.JPG,AFNE01.JPG,AFNE01.JPG,AFNE01.JPG,AFNE01.JPG,AFNE01.JPG,,,,,,,,,,,,,4,5,45,0,,,,,,,,,,,AMNE05.jpg,AMNE20.jpg,AMSA01.jpg,AMSA02.jpg,AMSA02.jpg,MS,2,num_4,32,num_8,1.05011692573,,,2017_Aug_01_1132,59.9982103215,FEMA4ImagesEEG,001,101165,
AFNE01.JPG,AFNE01.JPG,AFNE01.JPG,AFNE01.JPG,AFNE01.JPG,AFNE01.JPG,,,,,,,,,,,,,4,6,46,6,,,,,,,,,,,AMSA05.jpg,AMSA19.jpg,AMNE18.jpg,AMNE04.jpg,AMNE18.jpg,MN,1,num_2,32,num_8,0.716652409872,,,2017_Aug_01_1132,59.9982103215,FEMA4ImagesEEG,001,101165,
AFNE01.JPG,AFNE01.JPG,AFNE01.JPG,AFNE01.JPG,AFNE01.JPG,AFNE01.JPG,,,,,,,,,,,,,4,7,47,9,,,,,,,,,,,AMSA10.jpg,AMSA14.jpg,AMNE20.jpg,AMNE15.jpg,AMNE20.jpg,MN,1,num_2,16,num_2,0.850104032084,,,2017_Aug_01_1132,59.9982103215,FEMA4ImagesEEG,001,101165,
AFNE01.JPG,AFNE01.JPG,AFNE01.JPG,AFNE01.JPG,AFNE01.JPG,AFNE01.JPG,,,,,,,,,,,,,4,8,48,7,,,,,,,,,,,AMSA16.jpg,AMNE17.jpg,AMNE02.jpg,AMSA02.jpg,AMNE02.jpg,MN,1,num_2,32,num_6,1.18343127146,,,2017_Aug_01_1132,59.9982103215,FEMA4ImagesEEG,001,101165,
AFNE01.JPG,AFNE01.JPG,AFNE01.JPG,AFNE01.JPG,AFNE01.JPG,AFNE01.JPG,,,,,,,,,,,,,4,9,49,4,,,,,,,,,,,AMNE10.jpg,AMSA19.jpg,AMNE15.jpg,AMSA09.jpg,AMNE15.jpg,MN,1,num_2,32,num_8,0.883492757101,,,2017_Aug_01_1132,59.9982103215,FEMA4ImagesEEG,001,101165,
AFNE01.JPG,AFNE01.JPG,AFNE01.JPG,AFNE01.JPG,AFNE01.JPG,AFNE01.JPG,,,,,,,,,,,,,5,0,50,0,,,,,,,,,,,AMNE05.jpg,AMNE06.jpg,AMSA04.jpg,AMSA09.jpg,AMSA09.jpg,MS,2,num_4,32,num_6,1.08349795314,,,2017_Aug_01_1132,59.9982103215,FEMA4ImagesEEG,001,101165,
AFNE01.JPG,AFNE01.JPG,AFNE01.JPG,AFNE01.JPG,AFNE01.JPG,AFNE01.JPG,,,,,,,,,,,,,5,1,51,4,,,,,,,,,,,AMSA16.jpg,AMNE18.jpg,AMNE12.jpg,AMSA02.jpg,AMSA16.jpg,MS,2,num_8,16,num_8,0.916775638238,,,2017_Aug_01_1132,59.9982103215,FEMA4ImagesEEG,001,101165,
AFNE01.JPG,AFNE01.JPG,AFNE01.JPG,AFNE01.JPG,AFNE01.JPG,AFNE01.JPG,,,,,,,,,,,,,5,2,52,5,,,,,,,,,,,AMNE11.jpg,AMSA18.jpg,AMSA01.jpg,AMNE12.jpg,AMSA01.jpg,MS,2,num_2,32,num_4,0.983495675959,,,2017_Aug_01_1132,59.9982103215,FEMA4ImagesEEG,001,101165,
AFNE01.JPG,AFNE01.JPG,AFNE01.JPG,AFNE01.JPG,AFNE01.JPG,AFNE01.JPG,,,,,,,,,,,,,5,3,53,9,,,,,,,,,,,AMNE08.jpg,AMSA02.jpg,AMNE16.jpg,AMSA09.jpg,AMNE16.jpg,MN,1,num_2,32,num_6,1.45003590686,,,2017_Aug_01_1132,59.9982103215,FEMA4ImagesEEG,001,101165,
AFNE01.JPG,AFNE01.JPG,AFNE01.JPG,AFNE01.JPG,AFNE01.JPG,AFNE01.JPG,,,,,,,,,,,,,5,4,54,7,,,,,,,,,,,AMNE04.jpg,AMSA12.jpg,AMSA19.jpg,AMNE06.jpg,AMSA12.jpg,MS,2,num_6,32,num_2,0.816800623666,,,2017_Aug_01_1132,59.9982103215,FEMA4ImagesEEG,001,101165,
AFNE01.JPG,AFNE01.JPG,AFNE01.JPG,AFNE01.JPG,AFNE01.JPG,AFNE01.JPG,,,,,,,,,,,,,5,5,55,3,,,,,,,,,,,AMSA19.jpg,AMNE14.jpg,AMSA08.jpg,AMNE13.jpg,AMSA19.jpg,MS,2,num_8,32,num_6,1.33342153695,,,2017_Aug_01_1132,59.9982103215,FEMA4ImagesEEG,001,101165,
AFNE01.JPG,AFNE01.JPG,AFNE01.JPG,AFNE01.JPG,AFNE01.JPG,AFNE01.JPG,,,,,,,,,,,,,5,6,56,8,,,,,,,,,,,AMSA01.jpg,AMSA03.jpg,AMNE15.jpg,AMNE01.jpg,AMSA01.jpg,MS,2,num_8,32,num_2,2.01667239168,,,2017_Aug_01_1132,59.9982103215,FEMA4ImagesEEG,001,101165,
AFNE01.JPG,AFNE01.JPG,AFNE01.JPG,AFNE01.JPG,AFNE01.JPG,AFNE01.JPG,,,,,,,,,,,,,5,7,57,2,,,,,,,,,,,AMSA02.jpg,AMNE02.jpg,AMSA10.jpg,AMNE10.jpg,AMNE10.jpg,MN,1,num_4,16,num_4,1.16674188036,,,2017_Aug_01_1132,59.9982103215,FEMA4ImagesEEG,001,101165,
AFNE01.JPG,AFNE01.JPG,AFNE01.JPG,AFNE01.JPG,AFNE01.JPG,AFNE01.JPG,,,,,,,,,,,,,5,8,58,1,,,,,,,,,,,AMSA02.jpg,AMSA16.jpg,AMNE09.jpg,AMNE02.jpg,AMSA16.jpg,MS,2,num_6,16,num_6,0.850131615531,,,2017_Aug_01_1132,59.9982103215,FEMA4ImagesEEG,001,101165,
AFNE01.JPG,AFNE01.JPG,AFNE01.JPG,AFNE01.JPG,AFNE01.JPG,AFNE01.JPG,,,,,,,,,,,,,5,9,59,6,,,,,,,,,,,AMSA19.jpg,AMNE15.jpg,AMSA07.jpg,AMNE06.jpg,AMSA19.jpg,MS,2,num_8,16,num_8,1.03330597421,,,2017_Aug_01_1132,59.9982103215,FEMA4ImagesEEG,001,101165,
,,,,,,,,,,,,,,,,,,,,,,,,,,,,,,,,,,,,,,,,,,,space,9.54937681789,2017_Aug_01_1132,59.9982103215,FEMA4ImagesEEG,001,101165,
AFNE01.JPG,AFNE01.JPG,AFNE01.JPG,AFNE01.JPG,AFNE01.JPG,AFNE01.JPG,,,,,,,,,,,,,,,,,0,0,0,2,,,,,,,AFSA10.jpg,AFSA14.jpg,AFNE18.jpg,AFNE07.jpg,AFSA14.jpg,FS,4,num_6,16,num_6,1.00008146791,,,2017_Aug_01_1132,59.9982103215,FEMA4ImagesEEG,001,101165,
AFNE01.JPG,AFNE01.JPG,AFNE01.JPG,AFNE01.JPG,AFNE01.JPG,AFNE01.JPG,,,,,,,,,,,,,,,,,0,1,1,4,,,,,,,AFNE08.jpg,AFSA18.jpg,AFNE04.jpg,AFSA14.jpg,AFNE04.jpg,FN,3,num_2,16,num_2,1.16672776756,,,2017_Aug_01_1132,59.9982103215,FEMA4ImagesEEG,001,101165,
AFNE01.JPG,AFNE01.JPG,AFNE01.JPG,AFNE01.JPG,AFNE01.JPG,AFNE01.JPG,,,,,,,,,,,,,,,,,0,2,2,5,,,,,,,AFNE10.jpg,AFSA20.jpg,AFNE05.jpg,AFSA18.jpg,AFSA20.jpg,FS,4,num_6,16,num_6,0.966789606493,,,2017_Aug_01_1132,59.9982103215,FEMA4ImagesEEG,001,101165,
AFNE01.JPG,AFNE01.JPG,AFNE01.JPG,AFNE01.JPG,AFNE01.JPG,AFNE01.JPG,,,,,,,,,,,,,,,,,0,3,3,6,,,,,,,AFSA02.jpg,AFSA10.jpg,AFNE19.jpg,AFNE06.jpg,AFNE06.jpg,FN,3,num_4,32,num_8,0.883473833557,,,2017_Aug_01_1132,59.9982103215,FEMA4ImagesEEG,001,101165,
AFNE01.JPG,AFNE01.JPG,AFNE01.JPG,AFNE01.JPG,AFNE01.JPG,AFNE01.JPG,,,,,,,,,,,,,,,,,0,4,4,3,,,,,,,AFSA13.jpg,AFNE08.jpg,AFSA03.jpg,AFNE17.jpg,AFNE08.jpg,FN,3,num_6,16,num_6,0.833497071173,,,2017_Aug_01_1132,59.9982103215,FEMA4ImagesEEG,001,101165,
AFNE01.JPG,AFNE01.JPG,AFNE01.JPG,AFNE01.JPG,AFNE01.JPG,AFNE01.JPG,,,,,,,,,,,,,,,,,0,5,5,8,,,,,,,AFNE17.jpg,AFNE08.jpg,AFSA20.jpg,AFSA17.jpg,AFNE08.jpg,FN,3,num_6,16,num_6,0.833507013973,,,2017_Aug_01_1132,59.9982103215,FEMA4ImagesEEG,001,101165,
AFNE01.JPG,AFNE01.JPG,AFNE01.JPG,AFNE01.JPG,AFNE01.JPG,AFNE01.JPG,,,,,,,,,,,,,,,,,0,6,6,7,,,,,,,AFNE18.jpg,AFNE11.jpg,AFSA07.jpg,AFSA11.jpg,AFNE11.jpg,FN,3,num_6,32,num_4,1.26675153431,,,2017_Aug_01_1132,59.9982103215,FEMA4ImagesEEG,001,101165,
AFNE01.JPG,AFNE01.JPG,AFNE01.JPG,AFNE01.JPG,AFNE01.JPG,AFNE01.JPG,,,,,,,,,,,,,,,,,0,7,7,9,,,,,,,AFNE05.jpg,AFSA09.jpg,AFNE15.jpg,AFSA12.jpg,AFNE15.jpg,FN,3,num_2,16,num_2,1.91667620861,,,2017_Aug_01_1132,59.9982103215,FEMA4ImagesEEG,001,101165,
AFNE01.JPG,AFNE01.JPG,AFNE01.JPG,AFNE01.JPG,AFNE01.JPG,AFNE01.JPG,,,,,,,,,,,,,,,,,0,8,8,1,,,,,,,AFSA03.jpg,AFSA06.jpg,AFNE17.jpg,AFNE08.jpg,AFSA06.jpg,FS,4,num_6,16,num_6,0.53351204982,,,2017_Aug_01_1132,59.9982103215,FEMA4ImagesEEG,001,101165,
AFNE01.JPG,AFNE01.JPG,AFNE01.JPG,AFNE01.JPG,AFNE01.JPG,AFNE01.JPG,,,,,,,,,,,,,,,,,0,9,9,0,,,,,,,AFNE17.jpg,AFSA13.jpg,AFNE01.jpg,AFSA12.jpg,AFNE01.jpg,FN,3,num_2,32,num_6,0.783391050529,,,2017_Aug_01_1132,59.9982103215,FEMA4ImagesEEG,001,101165,
AFNE01.JPG,AFNE01.JPG,AFNE01.JPG,AFNE01.JPG,AFNE01.JPG,AFNE01.JPG,,,,,,,,,,,,,,,,,1,0,10,4,,,,,,,AFSA07.jpg,AFNE08.jpg,AFNE15.jpg,AFSA20.jpg,AFSA20.jpg,FS,4,num_4,32,num_6,0.900117358658,,,2017_Aug_01_1132,59.9982103215,FEMA4ImagesEEG,001,101165,
AFNE01.JPG,AFNE01.JPG,AFNE01.JPG,AFNE01.JPG,AFNE01.JPG,AFNE01.JPG,,,,,,,,,,,,,,,,,1,1,11,3,,,,,,,AFSA02.jpg,AFSA13.jpg,AFNE17.jpg,AFNE20.jpg,AFSA02.jpg,FS,4,num_8,32,num_6,0.766803975683,,,2017_Aug_01_1132,59.9982103215,FEMA4ImagesEEG,001,101165,
AFNE01.JPG,AFNE01.JPG,AFNE01.JPG,AFNE01.JPG,AFNE01.JPG,AFNE01.JPG,,,,,,,,,,,,,,,,,1,2,12,6,,,,,,,AFSA17.jpg,AFNE03.jpg,AFSA18.jpg,AFNE19.jpg,AFNE19.jpg,FN,3,num_4,16,num_4,0.683477618266,,,2017_Aug_01_1132,59.9982103215,FEMA4ImagesEEG,001,101165,
AFNE01.JPG,AFNE01.JPG,AFNE01.JPG,AFNE01.JPG,AFNE01.JPG,AFNE01.JPG,,,,,,,,,,,,,,,,,1,3,13,1,,,,,,,AFNE02.jpg,AFNE04.jpg,AFSA09.jpg,AFSA07.jpg,AFSA09.jpg,FS,4,num_2,32,num_8,1.18331388035,,,2017_Aug_01_1132,59.9982103215,FEMA4ImagesEEG,001,101165,
AFNE01.JPG,AFNE01.JPG,AFNE01.JPG,AFNE01.JPG,AFNE01.JPG,AFNE01.JPG,,,,,,,,,,,,,,,,,1,4,14,8,,,,,,,AFSA20.jpg,AFSA18.jpg,AFNE08.jpg,AFNE06.jpg,AFSA20.jpg,FS,4,num_8,16,num_8,0.6667814916,,,2017_Aug_01_1132,59.9982103215,FEMA4ImagesEEG,001,101165,
AFNE01.JPG,AFNE01.JPG,AFNE01.JPG,AFNE01.JPG,AFNE01.JPG,AFNE01.JPG,,,,,,,,,,,,,,,,,1,5,15,9,,,,,,,AFNE11.jpg,AFNE04.jpg,AFSA02.jpg,AFSA08.jpg,AFNE11.jpg,FN,3,num_8,32,num_2,1.18342453567,,,2017_Aug_01_1132,59.9982103215,FEMA4ImagesEEG,001,101165,
AFNE01.JPG,AFNE01.JPG,AFNE01.JPG,AFNE01.JPG,AFNE01.JPG,AFNE01.JPG,,,,,,,,,,,,,,,,,1,6,16,7,,,,,,,AFNE06.jpg,AFSA07.jpg,AFSA19.jpg,AFNE08.jpg,AFNE06.jpg,FN,3,num_8,16,num_8,0.85014797328,,,2017_Aug_01_1132,59.9982103215,FEMA4ImagesEEG,001,101165,
AFNE01.JPG,AFNE01.JPG,AFNE01.JPG,AFNE01.JPG,AFNE01.JPG,AFNE01.JPG,,,,,,,,,,,,,,,,,1,7,17,0,,,,,,,AFSA11.jpg,AFNE18.jpg,AFNE11.jpg,AFSA18.jpg,AFNE11.jpg,FN,3,num_2,32,num_6,0.833476223052,,,2017_Aug_01_1132,59.9982103215,FEMA4ImagesEEG,001,101165,
AFNE01.JPG,AFNE01.JPG,AFNE01.JPG,AFNE01.JPG,AFNE01.JPG,AFNE01.JPG,,,,,,,,,,,,,,,,,1,8,18,5,,,,,,,AFSA04.jpg,AFNE19.jpg,AFNE09.jpg,AFSA12.jpg,AFNE19.jpg,FN,3,num_6,32,num_8,0.866883871844,,,2017_Aug_01_1132,59.9982103215,FEMA4ImagesEEG,001,101165,
AFNE01.JPG,AFNE01.JPG,AFNE01.JPG,AFNE01.JPG,AFNE01.JPG,AFNE01.JPG,,,,,,,,,,,,,,,,,1,9,19,2,,,,,,,AFNE19.jpg,AFNE07.jpg,AFSA15.jpg,AFSA20.jpg,AFNE19.jpg,FN,3,num_8,16,num_8,0.633371276781,,,2017_Aug_01_1132,59.9982103215,FEMA4ImagesEEG,001,101165,
AFNE01.JPG,AFNE01.JPG,AFNE01.JPG,AFNE01.JPG,AFNE01.JPG,AFNE01.JPG,,,,,,,,,,,,,,,,,2,0,20,6,,,,,,,AFNE07.jpg,AFSA09.jpg,AFSA05.jpg,AFNE17.jpg,AFSA05.jpg,FS,4,num_2,16,num_2,1.71672136895,,,2017_Aug_01_1132,59.9982103215,FEMA4ImagesEEG,001,101165,
AFNE01.JPG,AFNE01.JPG,AFNE01.JPG,AFNE01.JPG,AFNE01.JPG,AFNE01.JPG,,,,,,,,,,,,,,,,,2,1,21,9,,,,,,,AFNE11.jpg,AFNE20.jpg,AFSA13.jpg,AFSA20.jpg,AFSA13.jpg,FS,4,num_2,16,num_2,0.783473801333,,,2017_Aug_01_1132,59.9982103215,FEMA4ImagesEEG,001,101165,
AFNE01.JPG,AFNE01.JPG,AFNE01.JPG,AFNE01.JPG,AFNE01.JPG,AFNE01.JPG,,,,,,,,,,,,,,,,,2,2,22,2,,,,,,,AFNE07.jpg,AFNE08.jpg,AFSA15.jpg,AFSA01.jpg,AFSA15.jpg,FS,4,num_2,16,num_2,0.483557739062,,,2017_Aug_01_1132,59.9982103215,FEMA4ImagesEEG,001,101165,
AFNE01.JPG,AFNE01.JPG,AFNE01.JPG,AFNE01.JPG,AFNE01.JPG,AFNE01.JPG,,,,,,,,,,,,,,,,,2,3,23,5,,,,,,,AFSA13.jpg,AFSA07.jpg,AFNE19.jpg,AFNE11.jpg,AFSA07.jpg,FS,4,num_6,16,num_6,1.01672787988,,,2017_Aug_01_1132,59.9982103215,FEMA4ImagesEEG,001,101165,
AFNE01.JPG,AFNE01.JPG,AFNE01.JPG,AFNE01.JPG,AFNE01.JPG,AFNE01.JPG,,,,,,,,,,,,,,,,,2,4,24,8,,,,,,,AFSA01.jpg,AFSA11.jpg,AFNE20.jpg,AFNE10.jpg,AFNE20.jpg,FN,3,num_2,32,num_4,1.08343348443,,,2017_Aug_01_1132,59.9982103215,FEMA4ImagesEEG,001,101165,
AFNE01.JPG,AFNE01.JPG,AFNE01.JPG,AFNE01.JPG,AFNE01.JPG,AFNE01.JPG,,,,,,,,,,,,,,,,,2,5,25,7,,,,,,,AFSA06.jpg,AFNE02.jpg,AFSA19.jpg,AFNE04.jpg,AFSA06.jpg,FS,4,num_8,16,num_8,0.833480392816,,,2017_Aug_01_1132,59.9982103215,FEMA4ImagesEEG,001,101165,
AFNE01.JPG,AFNE01.JPG,AFNE01.JPG,AFNE01.JPG,AFNE01.JPG,AFNE01.JPG,,,,,,,,,,,,,,,,,2,6,26,1,,,,,,,AFSA15.jpg,AFNE08.jpg,AFSA18.jpg,AFNE20.jpg,AFSA15.jpg,FS,4,num_8,32,num_2,0.833489052719,,,2017_Aug_01_1132,59.9982103215,FEMA4ImagesEEG,001,101165,
AFNE01.JPG,AFNE01.JPG,AFNE01.JPG,AFNE01.JPG,AFNE01.JPG,AFNE01.JPG,,,,,,,,,,,,,,,,,2,7,27,3,,,,,,,AFNE19.jpg,AFSA16.jpg,AFSA19.jpg,AFNE09.jpg,AFNE19.jpg,FN,3,num_8,32,num_6,0.566838551313,,,2017_Aug_01_1132,59.9982103215,FEMA4ImagesEEG,001,101165,
AFNE01.JPG,AFNE01.JPG,AFNE01.JPG,AFNE01.JPG,AFNE01.JPG,AFNE01.JPG,,,,,,,,,,,,,,,,,2,8,28,4,,,,,,,AFNE17.jpg,AFSA08.jpg,AFSA13.jpg,AFNE19.jpg,AFNE19.jpg,FN,3,num_4,16,num_4,0.51676364243,,,2017_Aug_01_1132,59.9982103215,FEMA4ImagesEEG,001,101165,
AFNE01.JPG,AFNE01.JPG,AFNE01.JPG,AFNE01.JPG,AFNE01.JPG,AFNE01.JPG,,,,,,,,,,,,,,,,,2,9,29,0,,,,,,,AFNE01.jpg,AFSA06.jpg,AFSA14.jpg,AFNE04.jpg,AFNE01.jpg,FN,3,num_8,32,num_6,0.733482926618,,,2017_Aug_01_1132,59.9982103215,FEMA4ImagesEEG,001,101165,
AFNE01.JPG,AFNE01.JPG,AFNE01.JPG,AFNE01.JPG,AFNE01.JPG,AFNE01.JPG,,,,,,,,,,,,,,,,,3,0,30,4,,,,,,,AFNE02.jpg,AFSA07.jpg,AFSA11.jpg,AFNE18.jpg,AFSA11.jpg,FS,4,num_2,32,num_8,0.566857474856,,,2017_Aug_01_1132,59.9982103215,FEMA4ImagesEEG,001,101165,
AFNE01.JPG,AFNE01.JPG,AFNE01.JPG,AFNE01.JPG,AFNE01.JPG,AFNE01.JPG,,,,,,,,,,,,,,,,,3,1,31,0,,,,,,,AFSA08.jpg,AFNE05.jpg,AFNE03.jpg,AFSA02.jpg,AFNE05.jpg,FN,3,num_6,32,num_2,1.7167547259,,,2017_Aug_01_1132,59.9982103215,FEMA4ImagesEEG,001,101165,
AFNE01.JPG,AFNE01.JPG,AFNE01.JPG,AFNE01.JPG,AFNE01.JPG,AFNE01.JPG,,,,,,,,,,,,,,,,,3,2,32,3,,,,,,,AFSA11.jpg,AFNE15.jpg,AFNE10.jpg,AFSA19.jpg,AFNE15.jpg,FN,3,num_6,16,num_6,0.516801168909,,,2017_Aug_01_1132,59.9982103215,FEMA4ImagesEEG,001,101165,
AFNE01.JPG,AFNE01.JPG,AFNE01.JPG,AFNE01.JPG,AFNE01.JPG,AFNE01.JPG,,,,,,,,,,,,,,,,,3,3,33,9,,,,,,,AFNE18.jpg,AFSA06.jpg,AFSA03.jpg,AFNE01.jpg,AFSA06.jpg,FS,4,num_6,32,num_4,1.28354741121,,,2017_Aug_01_1132,59.9982103215,FEMA4ImagesEEG,001,101165,
AFNE01.JPG,AFNE01.JPG,AFNE01.JPG,AFNE01.JPG,AFNE01.JPG,AFNE01.JPG,,,,,,,,,,,,,,,,,3,4,34,5,,,,,,,AFSA07.jpg,AFNE12.jpg,AFNE10.jpg,AFSA18.jpg,AFNE10.jpg,FN,3,num_2,32,num_8,0.650182549143,,,2017_Aug_01_1132,59.9982103215,FEMA4ImagesEEG,001,101165,
AFNE01.JPG,AFNE01.JPG,AFNE01.JPG,AFNE01.JPG,AFNE01.JPG,AFNE01.JPG,,,,,,,,,,,,,,,,,3,5,35,8,,,,,,,AFSA12.jpg,AFNE13.jpg,AFNE14.jpg,AFSA10.jpg,AFNE14.jpg,FN,3,num_2,16,num_2,1.08342931489,,,2017_Aug_01_1132,59.9982103215,FEMA4ImagesEEG,001,101165,
AFNE01.JPG,AFNE01.JPG,AFNE01.JPG,AFNE01.JPG,AFNE01.JPG,AFNE01.JPG,,,,,,,,,,,,,,,,,3,6,36,7,,,,,,,AFSA09.jpg,AFSA14.jpg,AFNE12.jpg,AFNE13.jpg,AFSA14.jpg,FS,4,num_6,16,num_6,0.866777386284,,,2017_Aug_01_1132,59.9982103215,FEMA4ImagesEEG,001,101165,
AFNE01.JPG,AFNE01.JPG,AFNE01.JPG,AFNE01.JPG,AFNE01.JPG,AFNE01.JPG,,,,,,,,,,,,,,,,,3,7,37,6,,,,,,,AFSA11.jpg,AFNE01.jpg,AFNE05.jpg,AFSA04.jpg,AFSA11.jpg,FS,4,num_8,16,num_8,0.900132433511,,,2017_Aug_01_1132,59.9982103215,FEMA4ImagesEEG,001,101165,
AFNE01.JPG,AFNE01.JPG,AFNE01.JPG,AFNE01.JPG,AFNE01.JPG,AFNE01.JPG,,,,,,,,,,,,,,,,,3,8,38,2,,,,,,,AFNE15.jpg,AFSA18.jpg,AFNE20.jpg,AFSA10.jpg,AFSA18.jpg,FS,4,num_6,16,num_6,0.699705143692,,,2017_Aug_01_1132,59.9982103215,FEMA4ImagesEEG,001,101165,
AFNE01.JPG,AFNE01.JPG,AFNE01.JPG,AFNE01.JPG,AFNE01.JPG,AFNE01.JPG,,,,,,,,,,,,,,,,,3,9,39,1,,,,,,,AFNE17.jpg,AFSA13.jpg,AFNE10.jpg,AFSA14.jpg,AFNE10.jpg,FN,3,num_2,32,num_8,1.11681868136,,,2017_Aug_01_1132,59.9982103215,FEMA4ImagesEEG,001,101165,
AFNE01.JPG,AFNE01.JPG,AFNE01.JPG,AFNE01.JPG,AFNE01.JPG,AFNE01.JPG,,,,,,,,,,,,,,,,,4,0,40,8,,,,,,,AFNE19.jpg,AFSA16.jpg,AFNE01.jpg,AFSA20.jpg,AFSA20.jpg,FS,4,num_4,16,num_4,0.816854187287,,,2017_Aug_01_1132,59.9982103215,FEMA4ImagesEEG,001,101165,
AFNE01.JPG,AFNE01.JPG,AFNE01.JPG,AFNE01.JPG,AFNE01.JPG,AFNE01.JPG,,,,,,,,,,,,,,,,,4,1,41,6,,,,,,,AFSA13.jpg,AFNE01.jpg,AFNE14.jpg,AFSA09.jpg,AFNE14.jpg,FN,3,num_2,32,num_4,1.01677727397,,,2017_Aug_01_1132,59.9982103215,FEMA4ImagesEEG,001,101165,
AFNE01.JPG,AFNE01.JPG,AFNE01.JPG,AFNE01.JPG,AFNE01.JPG,AFNE01.JPG,,,,,,,,,,,,,,,,,4,2,42,0,,,,,,,AFSA02.jpg,AFNE10.jpg,AFNE14.jpg,AFSA03.jpg,AFNE14.jpg,FN,3,num_2,32,num_8,1.10012512072,,,2017_Aug_01_1132,59.9982103215,FEMA4ImagesEEG,001,101165,
AFNE01.JPG,AFNE01.JPG,AFNE01.JPG,AFNE01.JPG,AFNE01.JPG,AFNE01.JPG,,,,,,,,,,,,,,,,,4,3,43,2,,,,,,,AFNE07.jpg,AFSA09.jpg,AFNE19.jpg,AFSA14.jpg,AFNE07.jpg,FN,3,num_8,32,num_4,0.966760739684,,,2017_Aug_01_1132,59.9982103215,FEMA4ImagesEEG,001,101165,
AFNE01.JPG,AFNE01.JPG,AFNE01.JPG,AFNE01.JPG,AFNE01.JPG,AFNE01.JPG,,,,,,,,,,,,,,,,,4,4,44,5,,,,,,,AFSA17.jpg,AFNE11.jpg,AFSA06.jpg,AFNE09.jpg,AFNE09.jpg,FN,3,num_4,16,num_4,0.750193807296,,,2017_Aug_01_1132,59.9982103215,FEMA4ImagesEEG,001,101165,
AFNE01.JPG,AFNE01.JPG,AFNE01.JPG,AFNE01.JPG,AFNE01.JPG,AFNE01.JPG,,,,,,,,,,,,,,,,,4,5,45,3,,,,,,,AFSA14.jpg,AFSA07.jpg,AFNE03.jpg,AFNE13.jpg,AFSA14.jpg,FS,4,num_8,16,num_8,0.83348712814,,,2017_Aug_01_1132,59.9982103215,FEMA4ImagesEEG,001,101165,
AFNE01.JPG,AFNE01.JPG,AFNE01.JPG,AFNE01.JPG,AFNE01.JPG,AFNE01.JPG,,,,,,,,,,,,,,,,,4,6,46,9,,,,,,,AFSA12.jpg,AFNE02.jpg,AFNE15.jpg,AFSA08.jpg,AFNE15.jpg,FN,3,num_2,16,num_2,0.78345487779,,,2017_Aug_01_1132,59.9982103215,FEMA4ImagesEEG,001,101165,
AFNE01.JPG,AFNE01.JPG,AFNE01.JPG,AFNE01.JPG,AFNE01.JPG,AFNE01.JPG,,,,,,,,,,,,,,,,,4,7,47,7,,,,,,,AFNE15.jpg,AFSA05.jpg,AFSA16.jpg,AFNE08.jpg,AFNE15.jpg,FN,3,num_8,16,num_8,0.516788660316,,,2017_Aug_01_1132,59.9982103215,FEMA4ImagesEEG,001,101165,
AFNE01.JPG,AFNE01.JPG,AFNE01.JPG,AFNE01.JPG,AFNE01.JPG,AFNE01.JPG,,,,,,,,,,,,,,,,,4,8,48,4,,,,,,,AFSA05.jpg,AFNE07.jpg,AFSA18.jpg,AFNE14.jpg,AFSA05.jpg,FS,4,num_8,16,num_8,1.03333676537,,,2017_Aug_01_1132,59.9982103215,FEMA4ImagesEEG,001,101165,
AFNE01.JPG,AFNE01.JPG,AFNE01.JPG,AFNE01.JPG,AFNE01.JPG,AFNE01.JPG,,,,,,,,,,,,,,,,,4,9,49,1,,,,,,,AFSA15.jpg,AFSA03.jpg,AFNE13.jpg,AFNE08.jpg,AFNE08.jpg,FN,3,num_4,32,num_2,0.966775493696,,,2017_Aug_01_1132,59.9982103215,FEMA4ImagesEEG,001,101165,
AFNE01.JPG,AFNE01.JPG,AFNE01.JPG,AFNE01.JPG,AFNE01.JPG,AFNE01.JPG,,,,,,,,,,,,,,,,,5,0,50,9,,,,,,,AFNE18.jpg,AFSA07.jpg,AFSA14.jpg,AFNE02.jpg,AFSA07.jpg,FS,4,num_6,32,num_8,0.816767266719,,,2017_Aug_01_1132,59.9982103215,FEMA4ImagesEEG,001,101165,
AFNE01.JPG,AFNE01.JPG,AFNE01.JPG,AFNE01.JPG,AFNE01.JPG,AFNE01.JPG,,,,,,,,,,,,,,,,,5,1,51,2,,,,,,,AFSA07.jpg,AFNE13.jpg,AFSA09.jpg,AFNE11.jpg,AFSA07.jpg,FS,4,num_8,16,num_8,0.600179806817,,,2017_Aug_01_1132,59.9982103215,FEMA4ImagesEEG,001,101165,
AFNE01.JPG,AFNE01.JPG,AFNE01.JPG,AFNE01.JPG,AFNE01.JPG,AFNE01.JPG,,,,,,,,,,,,,,,,,5,2,52,4,,,,,,,AFNE19.jpg,AFNE16.jpg,AFSA12.jpg,AFSA18.jpg,AFNE19.jpg,FN,3,num_8,32,num_6,0.666814207099,,,2017_Aug_01_1132,59.9982103215,FEMA4ImagesEEG,001,101165,
AFNE01.JPG,AFNE01.JPG,AFNE01.JPG,AFNE01.JPG,AFNE01.JPG,AFNE01.JPG,,,,,,,,,,,,,,,,,5,3,53,8,,,,,,,AFSA16.jpg,AFNE08.jpg,AFSA09.jpg,AFNE18.jpg,AFSA09.jpg,FS,4,num_2,16,num_2,1.93326424598,,,2017_Aug_01_1132,59.9982103215,FEMA4ImagesEEG,001,101165,
AFNE01.JPG,AFNE01.JPG,AFNE01.JPG,AFNE01.JPG,AFNE01.JPG,AFNE01.JPG,,,,,,,,,,,,,,,,,5,4,54,6,,,,,,,AFSA06.jpg,AFNE06.jpg,AFNE07.jpg,AFSA05.jpg,AFNE07.jpg,FN,3,num_2,32,num_4,1.61675822199,,,2017_Aug_01_1132,59.9982103215,FEMA4ImagesEEG,001,101165,
AFNE01.JPG,AFNE01.JPG,AFNE01.JPG,AFNE01.JPG,AFNE01.JPG,AFNE01.JPG,,,,,,,,,,,,,,,,,5,5,55,3,,,,,,,AFNE06.jpg,AFSA18.jpg,AFSA06.jpg,AFNE07.jpg,AFNE06.jpg,FN,3,num_8,32,num_6,1.20013381261,,,2017_Aug_01_1132,59.9982103215,FEMA4ImagesEEG,001,101165,
AFNE01.JPG,AFNE01.JPG,AFNE01.JPG,AFNE01.JPG,AFNE01.JPG,AFNE01.JPG,,,,,,,,,,,,,,,,,5,6,56,7,,,,,,,AFNE08.jpg,AFSA10.jpg,AFSA02.jpg,AFNE14.jpg,AFSA02.jpg,FS,4,num_2,32,num_6,0.80015870207,,,2017_Aug_01_1132,59.9982103215,FEMA4ImagesEEG,001,101165,
AFNE01.JPG,AFNE01.JPG,AFNE01.JPG,AFNE01.JPG,AFNE01.JPG,AFNE01.JPG,,,,,,,,,,,,,,,,,5,7,57,5,,,,,,,AFNE06.jpg,AFSA01.jpg,AFNE04.jpg,AFSA02.jpg,AFNE04.jpg,FN,3,num_2,16,num_2,2.08333437564,,,2017_Aug_01_1132,59.9982103215,FEMA4ImagesEEG,001,101165,
AFNE01.JPG,AFNE01.JPG,AFNE01.JPG,AFNE01.JPG,AFNE01.JPG,AFNE01.JPG,,,,,,,,,,,,,,,,,5,8,58,0,,,,,,,AFSA07.jpg,AFSA11.jpg,AFNE11.jpg,AFNE14.jpg,AFSA11.jpg,FS,4,num_6,32,num_8,1.20010655001,,,2017_Aug_01_1132,59.9982103215,FEMA4ImagesEEG,001,101165,
AFNE01.JPG,AFNE01.JPG,AFNE01.JPG,AFNE01.JPG,AFNE01.JPG,AFNE01.JPG,,,,,,,,,,,,,,,,,5,9,59,1,,,,,,,AFNE04.jpg,AFSA19.jpg,AFNE13.jpg,AFSA10.jpg,AFSA19.jpg,FS,4,num_6,16,num_6,0.850153105333,,,2017_Aug_01_1132,59.9982103215,FEMA4ImagesEEG,001,101165,
,,,,,,,,,,,,,,,,,,,,,,,,,,,,,,,,,,,,,,,,,,,space,7.61601378419,2017_Aug_01_1132,59.9982103215,FEMA4ImagesEEG,001,101165,
AFNE01.JPG,AFNE01.JPG,AFNE01.JPG,AFNE01.JPG,AFNE01.JPG,AFNE01.JPG,,,,,,,,,,,,,,,,,,,,,0,0,0,3,,,AMSA10.jpg,AMSA06.jpg,AMNE08.jpg,AMNE13.jpg,AMSA10.jpg,MS,2,num_8,32,num_4,0.666814527707,,,2017_Aug_01_1132,59.9982103215,FEMA4ImagesEEG,001,101165,
AFNE01.JPG,AFNE01.JPG,AFNE01.JPG,AFNE01.JPG,AFNE01.JPG,AFNE01.JPG,,,,,,,,,,,,,,,,,,,,,0,1,1,5,,,AMNE13.jpg,AMSA02.jpg,AMNE09.jpg,AMSA11.jpg,AMSA02.jpg,MS,2,num_6,16,num_6,0.483529193094,,,2017_Aug_01_1132,59.9982103215,FEMA4ImagesEEG,001,101165,
AFNE01.JPG,AFNE01.JPG,AFNE01.JPG,AFNE01.JPG,AFNE01.JPG,AFNE01.JPG,,,,,,,,,,,,,,,,,,,,,0,2,2,9,,,AMSA11.jpg,AMNE16.jpg,AMNE12.jpg,AMSA12.jpg,AMNE16.jpg,MN,1,num_6,32,num_4,0.800187889487,,,2017_Aug_01_1132,59.9982103215,FEMA4ImagesEEG,001,101165,
AFNE01.JPG,AFNE01.JPG,AFNE01.JPG,AFNE01.JPG,AFNE01.JPG,AFNE01.JPG,,,,,,,,,,,,,,,,,,,,,0,3,3,8,,,AMNE04.jpg,AMSA01.jpg,AMNE11.jpg,AMSA09.jpg,AMSA09.jpg,MS,2,num_4,16,num_4,0.833487128373,,,2017_Aug_01_1132,59.9982103215,FEMA4ImagesEEG,001,101165,
AFNE01.JPG,AFNE01.JPG,AFNE01.JPG,AFNE01.JPG,AFNE01.JPG,AFNE01.JPG,,,,,,,,,,,,,,,,,,,,,0,4,4,1,,,AMSA08.jpg,AMNE08.jpg,AMSA09.jpg,AMNE16.jpg,AMNE08.jpg,MN,1,num_6,16,num_6,0.633480970049,,,2017_Aug_01_1132,59.9982103215,FEMA4ImagesEEG,001,101165,
AFNE01.JPG,AFNE01.JPG,AFNE01.JPG,AFNE01.JPG,AFNE01.JPG,AFNE01.JPG,,,,,,,,,,,,,,,,,,,,,0,5,5,0,,,AMSA01.jpg,AMNE04.jpg,AMNE13.jpg,AMSA03.jpg,AMSA01.jpg,MS,2,num_8,16,num_8,0.983454300556,,,2017_Aug_01_1132,59.9982103215,FEMA4ImagesEEG,001,101165,
AFNE01.JPG,AFNE01.JPG,AFNE01.JPG,AFNE01.JPG,AFNE01.JPG,AFNE01.JPG,,,,,,,,,,,,,,,,,,,,,0,6,6,2,,,AMNE05.jpg,AMSA10.jpg,AMNE19.jpg,AMSA15.jpg,AMSA15.jpg,MS,2,num_4,16,num_4,0.750242880546,,,2017_Aug_01_1132,59.9982103215,FEMA4ImagesEEG,001,101165,
AFNE01.JPG,AFNE01.JPG,AFNE01.JPG,AFNE01.JPG,AFNE01.JPG,AFNE01.JPG,,,,,,,,,,,,,,,,,,,,,0,7,7,4,,,AMSA15.jpg,AMNE17.jpg,AMNE11.jpg,AMSA19.jpg,AMNE17.jpg,MN,1,num_6,16,num_6,0.86678989511,,,2017_Aug_01_1132,59.9982103215,FEMA4ImagesEEG,001,101165,
AFNE01.JPG,AFNE01.JPG,AFNE01.JPG,AFNE01.JPG,AFNE01.JPG,AFNE01.JPG,,,,,,,,,,,,,,,,,,,,,0,8,8,7,,,AMNE02.jpg,AMNE14.jpg,AMSA13.jpg,AMSA19.jpg,AMNE02.jpg,MN,1,num_8,16,num_8,1.05011243536,,,2017_Aug_01_1132,59.9982103215,FEMA4ImagesEEG,001,101165,
AFNE01.JPG,AFNE01.JPG,AFNE01.JPG,AFNE01.JPG,AFNE01.JPG,AFNE01.JPG,,,,,,,,,,,,,,,,,,,,,0,9,9,6,,,AMSA04.jpg,AMNE16.jpg,AMNE01.jpg,AMSA10.jpg,AMSA10.jpg,MS,2,num_4,32,num_8,1.31681714184,,,2017_Aug_01_1132,59.9982103215,FEMA4ImagesEEG,001,101165,
AFNE01.JPG,AFNE01.JPG,AFNE01.JPG,AFNE01.JPG,AFNE01.JPG,AFNE01.JPG,,,,,,,,,,,,,,,,,,,,,1,0,10,9,,,AMSA18.jpg,AMNE18.jpg,AMSA19.jpg,AMNE13.jpg,AMNE18.jpg,MN,1,num_6,16,num_6,1.25008587819,,,2017_Aug_01_1132,59.9982103215,FEMA4ImagesEEG,001,101165,
AFNE01.JPG,AFNE01.JPG,AFNE01.JPG,AFNE01.JPG,AFNE01.JPG,AFNE01.JPG,,,,,,,,,,,,,,,,,,,,,1,1,11,3,,,AMNE10.jpg,AMSA07.jpg,AMSA20.jpg,AMNE06.jpg,AMNE06.jpg,MN,1,num_4,32,num_8,0.850110767642,,,2017_Aug_01_1132,59.9982103215,FEMA4ImagesEEG,001,101165,
AFNE01.JPG,AFNE01.JPG,AFNE01.JPG,AFNE01.JPG,AFNE01.JPG,AFNE01.JPG,,,,,,,,,,,,,,,,,,,,,1,2,12,1,,,AMNE13.jpg,AMSA12.jpg,AMNE02.jpg,AMSA15.jpg,AMNE02.jpg,MN,1,num_2,32,num_8,1.81701263296,,,2017_Aug_01_1132,59.9982103215,FEMA4ImagesEEG,001,101165,
AFNE01.JPG,AFNE01.JPG,AFNE01.JPG,AFNE01.JPG,AFNE01.JPG,AFNE01.JPG,,,,,,,,,,,,,,,,,,,,,1,3,13,2,,,AMNE17.jpg,AMSA01.jpg,AMNE07.jpg,AMSA06.jpg,AMSA06.jpg,MS,2,num_4,16,num_4,0.883489870466,,,2017_Aug_01_1132,59.9982103215,FEMA4ImagesEEG,001,101165,
AFNE01.JPG,AFNE01.JPG,AFNE01.JPG,AFNE01.JPG,AFNE01.JPG,AFNE01.JPG,,,,,,,,,,,,,,,,,,,,,1,4,14,5,,,AMSA10.jpg,AMNE05.jpg,AMNE03.jpg,AMSA08.jpg,AMNE03.jpg,MN,1,num_2,32,num_8,0.816847131122,,,2017_Aug_01_1132,59.9982103215,FEMA4ImagesEEG,001,101165,
AFNE01.JPG,AFNE01.JPG,AFNE01.JPG,AFNE01.JPG,AFNE01.JPG,AFNE01.JPG,,,,,,,,,,,,,,,,,,,,,1,5,15,7,,,AMNE01.jpg,AMNE11.jpg,AMSA05.jpg,AMSA18.jpg,AMNE01.jpg,MN,1,num_8,32,num_6,1.58341600397,,,2017_Aug_01_1132,59.9982103215,FEMA4ImagesEEG,001,101165,
AFNE01.JPG,AFNE01.JPG,AFNE01.JPG,AFNE01.JPG,AFNE01.JPG,AFNE01.JPG,,,,,,,,,,,,,,,,,,,,,1,6,16,4,,,AMNE13.jpg,AMNE14.jpg,AMSA02.jpg,AMSA17.jpg,AMNE14.jpg,MN,1,num_6,16,num_6,0.50010760827,,,2017_Aug_01_1132,59.9982103215,FEMA4ImagesEEG,001,101165,
AFNE01.JPG,AFNE01.JPG,AFNE01.JPG,AFNE01.JPG,AFNE01.JPG,AFNE01.JPG,,,,,,,,,,,,,,,,,,,,,1,7,17,8,,,AMNE13.jpg,AMNE02.jpg,AMSA10.jpg,AMSA13.jpg,AMSA13.jpg,MS,2,num_4,32,num_6,1.23345614458,,,2017_Aug_01_1132,59.9982103215,FEMA4ImagesEEG,001,101165,
AFNE01.JPG,AFNE01.JPG,AFNE01.JPG,AFNE01.JPG,AFNE01.JPG,AFNE01.JPG,,,,,,,,,,,,,,,,,,,,,1,8,18,6,,,AMSA10.jpg,AMSA15.jpg,AMNE13.jpg,AMNE03.jpg,AMSA15.jpg,MS,2,num_6,16,num_6,0.833484883187,,,2017_Aug_01_1132,59.9982103215,FEMA4ImagesEEG,001,101165,
AFNE01.JPG,AFNE01.JPG,AFNE01.JPG,AFNE01.JPG,AFNE01.JPG,AFNE01.JPG,,,,,,,,,,,,,,,,,,,,,1,9,19,0,,,AMSA06.jpg,AMNE11.jpg,AMSA12.jpg,AMNE18.jpg,AMSA12.jpg,MS,2,num_2,16,num_2,0.633459801087,,,2017_Aug_01_1132,59.9982103215,FEMA4ImagesEEG,001,101165,
AFNE01.JPG,AFNE01.JPG,AFNE01.JPG,AFNE01.JPG,AFNE01.JPG,AFNE01.JPG,,,,,,,,,,,,,,,,,,,,,2,0,20,9,,,AMNE17.jpg,AMSA15.jpg,AMSA12.jpg,AMNE10.jpg,AMNE10.jpg,MN,1,num_4,16,num_4,0.81684777257,,,2017_Aug_01_1132,59.9982103215,FEMA4ImagesEEG,001,101165,
AFNE01.JPG,AFNE01.JPG,AFNE01.JPG,AFNE01.JPG,AFNE01.JPG,AFNE01.JPG,,,,,,,,,,,,,,,,,,,,,2,1,21,5,,,AMSA12.jpg,AMSA18.jpg,AMNE17.jpg,AMNE14.jpg,AMSA18.jpg,MS,2,num_6,16,num_6,0.466822161572,,,2017_Aug_01_1132,59.9982103215,FEMA4ImagesEEG,001,101165,
AFNE01.JPG,AFNE01.JPG,AFNE01.JPG,AFNE01.JPG,AFNE01.JPG,AFNE01.JPG,,,,,,,,,,,,,,,,,,,,,2,2,22,8,,,AMNE02.jpg,AMSA20.jpg,AMSA17.jpg,AMNE04.jpg,AMNE04.jpg,MN,1,num_4,32,num_8,0.766848558327,,,2017_Aug_01_1132,59.9982103215,FEMA4ImagesEEG,001,101165,
AFNE01.JPG,AFNE01.JPG,AFNE01.JPG,AFNE01.JPG,AFNE01.JPG,AFNE01.JPG,,,,,,,,,,,,,,,,,,,,,2,3,23,7,,,AMNE10.jpg,AMSA18.jpg,AMSA08.jpg,AMNE05.jpg,AMNE10.jpg,MN,1,num_8,32,num_4,0.733419099124,,,2017_Aug_01_1132,59.9982103215,FEMA4ImagesEEG,001,101165,
AFNE01.JPG,AFNE01.JPG,AFNE01.JPG,AFNE01.JPG,AFNE01.JPG,AFNE01.JPG,,,,,,,,,,,,,,,,,,,,,2,4,24,1,,,AMNE17.jpg,AMSA17.jpg,AMSA20.jpg,AMNE12.jpg,AMSA20.jpg,MS,2,num_2,16,num_2,1.58372680121,,,2017_Aug_01_1132,59.9982103215,FEMA4ImagesEEG,001,101165,
AFNE01.JPG,AFNE01.JPG,AFNE01.JPG,AFNE01.JPG,AFNE01.JPG,AFNE01.JPG,,,,,,,,,,,,,,,,,,,,,2,5,25,4,,,AMSA11.jpg,AMNE19.jpg,AMNE15.jpg,AMSA16.jpg,AMNE19.jpg,MN,1,num_6,32,num_8,0.700170537457,,,2017_Aug_01_1132,59.9982103215,FEMA4ImagesEEG,001,101165,
AFNE01.JPG,AFNE01.JPG,AFNE01.JPG,AFNE01.JPG,AFNE01.JPG,AFNE01.JPG,,,,,,,,,,,,,,,,,,,,,2,6,26,2,,,AMNE05.jpg,AMSA08.jpg,AMSA06.jpg,AMNE18.jpg,AMNE18.jpg,MN,1,num_4,32,num_2,0.916765053757,,,2017_Aug_01_1132,59.9982103215,FEMA4ImagesEEG,001,101165,
AFNE01.JPG,AFNE01.JPG,AFNE01.JPG,AFNE01.JPG,AFNE01.JPG,AFNE01.JPG,,,,,,,,,,,,,,,,,,,,,2,7,27,0,,,AMNE20.jpg,AMSA02.jpg,AMNE10.jpg,AMSA11.jpg,AMSA11.jpg,MS,2,num_4,32,num_6,0.983447885606,,,2017_Aug_01_1132,59.9982103215,FEMA4ImagesEEG,001,101165,
AFNE01.JPG,AFNE01.JPG,AFNE01.JPG,AFNE01.JPG,AFNE01.JPG,AFNE01.JPG,,,,,,,,,,,,,,,,,,,,,2,8,28,6,,,AMSA06.jpg,AMNE11.jpg,AMNE10.jpg,AMSA19.jpg,AMNE11.jpg,MN,1,num_6,32,num_8,0.733512755251,,,2017_Aug_01_1132,59.9982103215,FEMA4ImagesEEG,001,101165,
AFNE01.JPG,AFNE01.JPG,AFNE01.JPG,AFNE01.JPG,AFNE01.JPG,AFNE01.JPG,,,,,,,,,,,,,,,,,,,,,2,9,29,3,,,AMSA01.jpg,AMNE16.jpg,AMSA13.jpg,AMNE07.jpg,AMSA13.jpg,MS,2,num_2,16,num_2,1.76669877279,,,2017_Aug_01_1132,59.9982103215,FEMA4ImagesEEG,001,101165,
AFNE01.JPG,AFNE01.JPG,AFNE01.JPG,AFNE01.JPG,AFNE01.JPG,AFNE01.JPG,,,,,,,,,,,,,,,,,,,,,3,0,30,4,,,AMSA04.jpg,AMSA17.jpg,AMNE13.jpg,AMNE02.jpg,AMSA17.jpg,MS,2,num_6,16,num_6,1.16677619959,,,2017_Aug_01_1132,59.9982103215,FEMA4ImagesEEG,001,101165,
AFNE01.JPG,AFNE01.JPG,AFNE01.JPG,AFNE01.JPG,AFNE01.JPG,AFNE01.JPG,,,,,,,,,,,,,,,,,,,,,3,1,31,2,,,AMSA20.jpg,AMNE14.jpg,AMSA07.jpg,AMNE02.jpg,AMNE02.jpg,MN,1,num_4,32,num_8,1.15010509058,,,2017_Aug_01_1132,59.9982103215,FEMA4ImagesEEG,001,101165,
AFNE01.JPG,AFNE01.JPG,AFNE01.JPG,AFNE01.JPG,AFNE01.JPG,AFNE01.JPG,,,,,,,,,,,,,,,,,,,,,3,2,32,8,,,AMSA05.jpg,AMNE03.jpg,AMSA13.jpg,AMNE20.jpg,AMNE03.jpg,MN,1,num_6,16,num_6,0.850193197839,,,2017_Aug_01_1132,59.9982103215,FEMA4ImagesEEG,001,101165,
AFNE01.JPG,AFNE01.JPG,AFNE01.JPG,AFNE01.JPG,AFNE01.JPG,AFNE01.JPG,,,,,,,,,,,,,,,,,,,,,3,3,33,5,,,AMNE17.jpg,AMSA18.jpg,AMNE14.jpg,AMSA16.jpg,AMNE17.jpg,MN,1,num_8,16,num_8,0.833482317161,,,2017_Aug_01_1132,59.9982103215,FEMA4ImagesEEG,001,101165,
AFNE01.JPG,AFNE01.JPG,AFNE01.JPG,AFNE01.JPG,AFNE01.JPG,AFNE01.JPG,,,,,,,,,,,,,,,,,,,,,3,4,34,1,,,AMSA08.jpg,AMNE03.jpg,AMSA11.jpg,AMNE20.jpg,AMNE03.jpg,MN,1,num_6,32,num_8,2.01671857852,,,2017_Aug_01_1132,59.9982103215,FEMA4ImagesEEG,001,101165,
AFNE01.JPG,AFNE01.JPG,AFNE01.JPG,AFNE01.JPG,AFNE01.JPG,AFNE01.JPG,,,,,,,,,,,,,,,,,,,,,3,5,35,7,,,AMNE13.jpg,AMSA02.jpg,AMNE10.jpg,AMSA08.jpg,AMSA02.jpg,MS,2,num_6,16,num_6,0.900129867718,,,2017_Aug_01_1132,59.9982103215,FEMA4ImagesEEG,001,101165,
AFNE01.JPG,AFNE01.JPG,AFNE01.JPG,AFNE01.JPG,AFNE01.JPG,AFNE01.JPG,,,,,,,,,,,,,,,,,,,,,3,6,36,6,,,AMSA09.jpg,AMNE13.jpg,AMSA01.jpg,AMNE19.jpg,AMSA09.jpg,MS,2,num_8,16,num_8,0.683478901396,,,2017_Aug_01_1132,59.9982103215,FEMA4ImagesEEG,001,101165,
AFNE01.JPG,AFNE01.JPG,AFNE01.JPG,AFNE01.JPG,AFNE01.JPG,AFNE01.JPG,,,,,,,,,,,,,,,,,,,,,3,7,37,0,,,AMNE09.jpg,AMSA16.jpg,AMSA14.jpg,AMNE16.jpg,AMNE16.jpg,MN,1,num_4,32,num_6,1.78340131417,,,2017_Aug_01_1132,59.9982103215,FEMA4ImagesEEG,001,101165,
AFNE01.JPG,AFNE01.JPG,AFNE01.JPG,AFNE01.JPG,AFNE01.JPG,AFNE01.JPG,,,,,,,,,,,,,,,,,,,,,3,8,38,9,,,AMSA19.jpg,AMNE13.jpg,AMSA14.jpg,AMNE15.jpg,AMNE13.jpg,MN,1,num_6,32,num_8,1.4334924526,,,2017_Aug_01_1132,59.9982103215,FEMA4ImagesEEG,001,101165,
