IPosition2,IPosition3,IPosition1,IPosition6,IPosition4,IPosition5,TrialsF1.thisRepN,TrialsF1.thisTrialN,TrialsF1.thisN,TrialsF1.thisIndex,TrialsM1.thisRepN,TrialsM1.thisTrialN,TrialsM1.thisN,TrialsM1.thisIndex,TrialsF2.thisRepN,TrialsF2.thisTrialN,TrialsF2.thisN,TrialsF2.thisIndex,TrialsM2.thisRepN,TrialsM2.thisTrialN,TrialsM2.thisN,TrialsM2.thisIndex,TrialsF3.thisRepN,TrialsF3.thisTrialN,TrialsF3.thisN,TrialsF3.thisIndex,TrialsM3.thisRepN,TrialsM3.thisTrialN,TrialsM3.thisN,TrialsM3.thisIndex,InstrKey_resp.keys,InstrKey_resp.rt,Image0 _Position,Image1 _Position,Image2 _Position,Image3 _Position,Center_image,condition,code,correct_answer,accuracy,Key_Resp.keys,Key_Resp.rt,BreakKey_resp.keys,BreakKey_resp.rt,date,frameRate,expName,session,participant,
,,,,,,,,,,,,,,,,,,,,,,,,,,,,,,space,18.365837778,,,,,,,,,,,,,,2017_Aug_14_1217,60.0034064871,FEMA4ImagesEEG,001,101141,
AFNE22.JPG,AFSA24.JPG,AFSA22.JPG,AFNE25.JPG,AFNE24.JPG,AFSA25.JPG,0,0,0,6,,,,,,,,,,,,,,,,,,,,,,,AFSA02.jpg,AFSA12.jpg,AFNE15.jpg,AFNE12.jpg,AFSA02.jpg,FS,4,num_8,16,num_8,2.69999380969,,,2017_Aug_14_1217,60.0034064871,FEMA4ImagesEEG,001,101141,
AFSA21.JPG,AFNE22.JPG,AFNE21.JPG,AFSA23.JPG,AFSA22.JPG,AFNE23.JPG,0,1,1,0,,,,,,,,,,,,,,,,,,,,,,,AFNE05.jpg,AFNE19.jpg,AFSA01.jpg,AFSA11.jpg,AFNE05.jpg,FN,3,num_8,16,num_8,1.50008194894,,,2017_Aug_14_1217,60.0034064871,FEMA4ImagesEEG,001,101141,
AFSA25.JPG,AFNE24.JPG,AFSA24.JPG,AFNE21.JPG,AFSA21.JPG,AFNE25.JPG,0,2,2,2,,,,,,,,,,,,,,,,,,,,,,,AFNE16.jpg,AFSA02.jpg,AFSA01.jpg,AFNE09.jpg,AFSA01.jpg,FS,4,num_2,32,num_6,0.91677050665,,,2017_Aug_14_1217,60.0034064871,FEMA4ImagesEEG,001,101141,
AMSA25.JPG,AMNE24.JPG,AMSA24.JPG,AMNE26.JPG,AMSA21.JPG,AMNE25.JPG,0,3,3,3,,,,,,,,,,,,,,,,,,,,,,,AFNE20.jpg,AFNE17.jpg,AFSA20.jpg,AFSA17.jpg,AFSA17.jpg,FS,4,num_4,32,num_2,1.38343710918,,,2017_Aug_14_1217,60.0034064871,FEMA4ImagesEEG,001,101141,
AMSA21.JPG,AMNE22.JPG,AMNE21.JPG,AMSA23.JPG,AMSA22.JPG,AMNE23.JPG,0,4,4,1,,,,,,,,,,,,,,,,,,,,,,,AFSA06.jpg,AFNE10.jpg,AFSA11.jpg,AFNE03.jpg,AFSA11.jpg,FS,4,num_2,32,num_6,1.45013309084,,,2017_Aug_14_1217,60.0034064871,FEMA4ImagesEEG,001,101141,
AMNE22.JPG,AMSA24.JPG,AMSA22.JPG,AMNE25.JPG,AMNE24.JPG,AMSA25.JPG,0,5,5,7,,,,,,,,,,,,,,,,,,,,,,,AFSA11.jpg,AFNE18.jpg,AFSA13.jpg,AFNE09.jpg,AFSA11.jpg,FS,4,num_8,32,num_6,1.36674932111,,,2017_Aug_14_1217,60.0034064871,FEMA4ImagesEEG,001,101141,
AFSA21.JPG,AFNE23.JPG,AFNE21.JPG,AFSA25.JPG,AFNE25.JPG,AFSA23.JPG,0,6,6,4,,,,,,,,,,,,,,,,,,,,,,,AFSA09.jpg,AFSA03.jpg,AFNE02.jpg,AFNE16.jpg,AFNE02.jpg,FN,3,num_2,16,num_2,1.51671456918,,,2017_Aug_14_1217,60.0034064871,FEMA4ImagesEEG,001,101141,
AMNE23.JPG,AMNE24.JPG,AMNE22.JPG,AMSA24.JPG,AMSA22.JPG,AMSA23.JPG,0,7,7,9,,,,,,,,,,,,,,,,,,,,,,,AFSA17.jpg,AFSA06.jpg,AFNE20.jpg,AFNE15.jpg,AFNE15.jpg,FN,3,num_4,16,num_4,1.31702947197,,,2017_Aug_14_1217,60.0034064871,FEMA4ImagesEEG,001,101141,
AMSA21.JPG,AMNE23.JPG,AMNE21.JPG,AMSA25.JPG,AMNE25.JPG,AMSA23.JPG,0,8,8,5,,,,,,,,,,,,,,,,,,,,,,,AFNE09.jpg,AFSA06.jpg,AFNE20.jpg,AFSA07.jpg,AFNE09.jpg,FN,3,num_8,32,num_4,1.31675331434,,,2017_Aug_14_1217,60.0034064871,FEMA4ImagesEEG,001,101141,
AFNE23.JPG,AFNE24.JPG,AFNE22.JPG,AFSA24.JPG,AFSA22.JPG,AFSA23.JPG,0,9,9,8,,,,,,,,,,,,,,,,,,,,,,,AFNE16.jpg,AFNE17.jpg,AFSA08.jpg,AFSA01.jpg,AFSA01.jpg,FS,4,num_4,32,num_6,1.0000840337,,,2017_Aug_14_1217,60.0034064871,FEMA4ImagesEEG,001,101141,
AMSA21.JPG,AMNE22.JPG,AMNE21.JPG,AMSA23.JPG,AMSA22.JPG,AMNE23.JPG,,,,,0,0,0,1,,,,,,,,,,,,,,,,,,,AMSA09.jpg,AMNE01.jpg,AMNE03.jpg,AMSA11.jpg,AMNE01.jpg,MN,1,num_6,16,num_6,1.40007454017,,,2017_Aug_14_1217,60.0034064871,FEMA4ImagesEEG,001,101141,
AMNE22.JPG,AMSA24.JPG,AMSA22.JPG,AMNE25.JPG,AMNE24.JPG,AMSA25.JPG,,,,,0,1,1,7,,,,,,,,,,,,,,,,,,,AMNE02.jpg,AMSA08.jpg,AMNE20.jpg,AMSA13.jpg,AMSA08.jpg,MS,2,num_6,32,num_4,1.51670109807,,,2017_Aug_14_1217,60.0034064871,FEMA4ImagesEEG,001,101141,
AMSA21.JPG,AMNE23.JPG,AMNE21.JPG,AMSA25.JPG,AMNE25.JPG,AMSA23.JPG,,,,,0,2,2,5,,,,,,,,,,,,,,,,,,,AMNE01.jpg,AMNE06.jpg,AMSA17.jpg,AMSA03.jpg,AMSA03.jpg,MS,2,num_4,32,num_2,1.18347425014,,,2017_Aug_14_1217,60.0034064871,FEMA4ImagesEEG,001,101141,
AMNE23.JPG,AMNE24.JPG,AMNE22.JPG,AMSA24.JPG,AMSA22.JPG,AMSA23.JPG,,,,,0,3,3,9,,,,,,,,,,,,,,,,,,,AMSA17.jpg,AMNE01.jpg,AMNE05.jpg,AMSA07.jpg,AMNE05.jpg,MN,1,num_2,32,num_6,0.866787649691,,,2017_Aug_14_1217,60.0034064871,FEMA4ImagesEEG,001,101141,
AMSA25.JPG,AMNE24.JPG,AMSA24.JPG,AMNE26.JPG,AMSA21.JPG,AMNE25.JPG,,,,,0,4,4,3,,,,,,,,,,,,,,,,,,,AMNE17.jpg,AMNE07.jpg,AMSA12.jpg,AMSA17.jpg,AMNE07.jpg,MN,1,num_6,16,num_6,0.933421408758,,,2017_Aug_14_1217,60.0034064871,FEMA4ImagesEEG,001,101141,
AFSA21.JPG,AFNE23.JPG,AFNE21.JPG,AFSA25.JPG,AFNE25.JPG,AFSA23.JPG,,,,,0,5,5,4,,,,,,,,,,,,,,,,,,,AMSA16.jpg,AMNE14.jpg,AMSA04.jpg,AMNE04.jpg,AMSA04.jpg,MS,2,num_2,16,num_2,0.900125697721,,,2017_Aug_14_1217,60.0034064871,FEMA4ImagesEEG,001,101141,
AFSA25.JPG,AFNE24.JPG,AFSA24.JPG,AFNE21.JPG,AFSA21.JPG,AFNE25.JPG,,,,,0,6,6,2,,,,,,,,,,,,,,,,,,,AMSA08.jpg,AMNE10.jpg,AMNE14.jpg,AMSA20.jpg,AMSA08.jpg,MS,2,num_8,32,num_4,0.850149897859,,,2017_Aug_14_1217,60.0034064871,FEMA4ImagesEEG,001,101141,
AFNE23.JPG,AFNE24.JPG,AFNE22.JPG,AFSA24.JPG,AFSA22.JPG,AFSA23.JPG,,,,,0,7,7,8,,,,,,,,,,,,,,,,,,,AMSA15.jpg,AMSA18.jpg,AMNE12.jpg,AMNE08.jpg,AMSA18.jpg,MS,2,num_6,32,num_8,0.733562791254,,,2017_Aug_14_1217,60.0034064871,FEMA4ImagesEEG,001,101141,
AFNE22.JPG,AFSA24.JPG,AFSA22.JPG,AFNE25.JPG,AFNE24.JPG,AFSA25.JPG,,,,,0,8,8,6,,,,,,,,,,,,,,,,,,,AMSA10.jpg,AMSA04.jpg,AMNE10.jpg,AMNE08.jpg,AMSA04.jpg,MS,2,num_6,16,num_6,0.933436803985,,,2017_Aug_14_1217,60.0034064871,FEMA4ImagesEEG,001,101141,
AFSA21.JPG,AFNE22.JPG,AFNE21.JPG,AFSA23.JPG,AFSA22.JPG,AFNE23.JPG,,,,,0,9,9,0,,,,,,,,,,,,,,,,,,,AMNE18.jpg,AMNE16.jpg,AMSA17.jpg,AMSA09.jpg,AMSA09.jpg,MS,2,num_4,16,num_4,0.58347309567,,,2017_Aug_14_1217,60.0034064871,FEMA4ImagesEEG,001,101141,
AFNE22.JPG,AFSA24.JPG,AFSA22.JPG,AFNE25.JPG,AFNE24.JPG,AFSA25.JPG,,,,,,,,,0,0,0,6,,,,,,,,,,,,,,,AFNE13.jpg,AFSA01.jpg,AFSA20.jpg,AFNE19.jpg,AFSA20.jpg,FS,4,num_2,16,num_2,1.10020979634,,,2017_Aug_14_1217,60.0034064871,FEMA4ImagesEEG,001,101141,
AMNE23.JPG,AMNE24.JPG,AMNE22.JPG,AMSA24.JPG,AMSA22.JPG,AMSA23.JPG,,,,,,,,,0,1,1,9,,,,,,,,,,,,,,,AFNE06.jpg,AFSA08.jpg,AFNE13.jpg,AFSA02.jpg,AFNE06.jpg,FN,3,num_8,32,num_4,1.21673211409,,,2017_Aug_14_1217,60.0034064871,FEMA4ImagesEEG,001,101141,
AMSA21.JPG,AMNE22.JPG,AMNE21.JPG,AMSA23.JPG,AMSA22.JPG,AMNE23.JPG,,,,,,,,,0,2,2,1,,,,,,,,,,,,,,,AFNE18.jpg,AFSA10.jpg,AFNE01.jpg,AFSA05.jpg,AFNE18.jpg,FN,3,num_8,32,num_2,1.65006515803,,,2017_Aug_14_1217,60.0034064871,FEMA4ImagesEEG,001,101141,
AMNE22.JPG,AMSA24.JPG,AMSA22.JPG,AMNE25.JPG,AMNE24.JPG,AMSA25.JPG,,,,,,,,,0,3,3,7,,,,,,,,,,,,,,,AFSA20.jpg,AFNE11.jpg,AFNE05.jpg,AFSA02.jpg,AFNE11.jpg,FN,3,num_6,16,num_6,0.916816051118,,,2017_Aug_14_1217,60.0034064871,FEMA4ImagesEEG,001,101141,
AMSA25.JPG,AMNE24.JPG,AMSA24.JPG,AMNE26.JPG,AMSA21.JPG,AMNE25.JPG,,,,,,,,,0,4,4,3,,,,,,,,,,,,,,,AFNE17.jpg,AFSA10.jpg,AFNE14.jpg,AFSA20.jpg,AFNE14.jpg,FN,3,num_2,16,num_2,1.06675724359,,,2017_Aug_14_1217,60.0034064871,FEMA4ImagesEEG,001,101141,
AFSA21.JPG,AFNE23.JPG,AFNE21.JPG,AFSA25.JPG,AFNE25.JPG,AFSA23.JPG,,,,,,,,,0,5,5,4,,,,,,,,,,,,,,,AFNE04.jpg,AFSA01.jpg,AFSA12.jpg,AFNE16.jpg,AFNE04.jpg,FN,3,num_8,16,num_8,1.06677392218,,,2017_Aug_14_1217,60.0034064871,FEMA4ImagesEEG,001,101141,
AMSA21.JPG,AMNE23.JPG,AMNE21.JPG,AMSA25.JPG,AMNE25.JPG,AMSA23.JPG,,,,,,,,,0,6,6,5,,,,,,,,,,,,,,,AFNE20.jpg,AFSA06.jpg,AFNE08.jpg,AFSA19.jpg,AFSA19.jpg,FS,4,num_4,32,num_6,0.683481787797,,,2017_Aug_14_1217,60.0034064871,FEMA4ImagesEEG,001,101141,
AFSA25.JPG,AFNE24.JPG,AFSA24.JPG,AFNE21.JPG,AFSA21.JPG,AFNE25.JPG,,,,,,,,,0,7,7,2,,,,,,,,,,,,,,,AFNE13.jpg,AFSA20.jpg,AFSA05.jpg,AFNE04.jpg,AFNE13.jpg,FN,3,num_8,32,num_4,1.11675004289,,,2017_Aug_14_1217,60.0034064871,FEMA4ImagesEEG,001,101141,
AFNE23.JPG,AFNE24.JPG,AFNE22.JPG,AFSA24.JPG,AFSA22.JPG,AFSA23.JPG,,,,,,,,,0,8,8,8,,,,,,,,,,,,,,,AFSA14.jpg,AFNE09.jpg,AFSA07.jpg,AFNE02.jpg,AFSA14.jpg,FS,4,num_8,32,num_2,1.28342649201,,,2017_Aug_14_1217,60.0034064871,FEMA4ImagesEEG,001,101141,
AFSA21.JPG,AFNE22.JPG,AFNE21.JPG,AFSA23.JPG,AFSA22.JPG,AFNE23.JPG,,,,,,,,,0,9,9,0,,,,,,,,,,,,,,,AFSA13.jpg,AFNE20.jpg,AFSA20.jpg,AFNE13.jpg,AFSA20.jpg,FS,4,num_2,16,num_2,1.05012141634,,,2017_Aug_14_1217,60.0034064871,FEMA4ImagesEEG,001,101141,
AFNE22.JPG,AFSA24.JPG,AFSA22.JPG,AFNE25.JPG,AFNE24.JPG,AFSA25.JPG,,,,,,,,,,,,,0,0,0,6,,,,,,,,,,,AMNE10.jpg,AMNE08.jpg,AMSA16.jpg,AMSA12.jpg,AMSA12.jpg,MS,2,num_4,16,num_4,1.26677206159,,,2017_Aug_14_1217,60.0034064871,FEMA4ImagesEEG,001,101141,
AFSA21.JPG,AFNE22.JPG,AFNE21.JPG,AFSA23.JPG,AFSA22.JPG,AFNE23.JPG,,,,,,,,,,,,,0,1,1,0,,,,,,,,,,,AMSA10.jpg,AMNE17.jpg,AMSA18.jpg,AMNE08.jpg,AMSA18.jpg,MS,2,num_2,16,num_2,0.833471411839,,,2017_Aug_14_1217,60.0034064871,FEMA4ImagesEEG,001,101141,
AMNE23.JPG,AMNE24.JPG,AMNE22.JPG,AMSA24.JPG,AMSA22.JPG,AMSA23.JPG,,,,,,,,,,,,,0,2,2,9,,,,,,,,,,,AMNE10.jpg,AMNE14.jpg,AMSA09.jpg,AMSA02.jpg,AMSA02.jpg,MS,2,num_4,32,num_6,1.08346299268,,,2017_Aug_14_1217,60.0034064871,FEMA4ImagesEEG,001,101141,
AFSA25.JPG,AFNE24.JPG,AFSA24.JPG,AFNE21.JPG,AFSA21.JPG,AFNE25.JPG,,,,,,,,,,,,,0,3,3,2,,,,,,,,,,,AMSA02.jpg,AMNE16.jpg,AMNE03.jpg,AMSA13.jpg,AMNE16.jpg,MN,1,num_6,32,num_8,1.65007285587,,,2017_Aug_14_1217,60.0034064871,FEMA4ImagesEEG,001,101141,
AMSA25.JPG,AMNE24.JPG,AMSA24.JPG,AMNE26.JPG,AMSA21.JPG,AMNE25.JPG,,,,,,,,,,,,,0,4,4,3,,,,,,,,,,,AMNE08.jpg,AMSA17.jpg,AMNE16.jpg,AMSA02.jpg,AMSA02.jpg,MS,2,num_4,16,num_4,1.06677648798,,,2017_Aug_14_1217,60.0034064871,FEMA4ImagesEEG,001,101141,
AMSA21.JPG,AMNE23.JPG,AMNE21.JPG,AMSA25.JPG,AMNE25.JPG,AMSA23.JPG,,,,,,,,,,,,,0,5,5,5,,,,,,,,,,,AMSA16.jpg,AMSA18.jpg,AMNE06.jpg,AMNE09.jpg,AMNE09.jpg,MN,1,num_4,32,num_2,1.70019170642,,,2017_Aug_14_1217,60.0034064871,FEMA4ImagesEEG,001,101141,
AMSA21.JPG,AMNE22.JPG,AMNE21.JPG,AMSA23.JPG,AMSA22.JPG,AMNE23.JPG,,,,,,,,,,,,,0,6,6,1,,,,,,,,,,,AMNE03.jpg,AMNE07.jpg,AMSA06.jpg,AMSA14.jpg,AMSA06.jpg,MS,2,num_2,32,num_6,1.7500530025,,,2017_Aug_14_1217,60.0034064871,FEMA4ImagesEEG,001,101141,
AFSA21.JPG,AFNE23.JPG,AFNE21.JPG,AFSA25.JPG,AFNE25.JPG,AFSA23.JPG,,,,,,,,,,,,,0,7,7,4,,,,,,,,,,,AMSA11.jpg,AMNE13.jpg,AMNE20.jpg,AMSA06.jpg,AMSA11.jpg,MS,2,num_8,32,num_6,1.38342973171,,,2017_Aug_14_1217,60.0034064871,FEMA4ImagesEEG,001,101141,
AFNE23.JPG,AFNE24.JPG,AFNE22.JPG,AFSA24.JPG,AFSA22.JPG,AFSA23.JPG,,,,,,,,,,,,,0,8,8,8,,,,,,,,,,,AMNE17.jpg,AMNE14.jpg,AMSA17.jpg,AMSA05.jpg,AMSA05.jpg,MS,2,num_4,16,num_4,1.06674024416,,,2017_Aug_14_1217,60.0034064871,FEMA4ImagesEEG,001,101141,
AMNE22.JPG,AMSA24.JPG,AMSA22.JPG,AMNE25.JPG,AMNE24.JPG,AMSA25.JPG,,,,,,,,,,,,,0,9,9,7,,,,,,,,,,,AMNE06.jpg,AMNE04.jpg,AMSA06.jpg,AMSA12.jpg,AMSA06.jpg,MS,2,num_2,16,num_2,1.58369055763,,,2017_Aug_14_1217,60.0034064871,FEMA4ImagesEEG,001,101141,
AFSA21.JPG,AFNE22.JPG,AFNE21.JPG,AFSA23.JPG,AFSA22.JPG,AFNE23.JPG,,,,,,,,,,,,,,,,,0,0,0,0,,,,,,,AFNE05.jpg,AFNE09.jpg,AFSA17.jpg,AFSA13.jpg,AFSA13.jpg,FS,4,num_4,16,num_4,0.766772863921,,,2017_Aug_14_1217,60.0034064871,FEMA4ImagesEEG,001,101141,
AFSA25.JPG,AFNE24.JPG,AFSA24.JPG,AFNE21.JPG,AFSA21.JPG,AFNE25.JPG,,,,,,,,,,,,,,,,,0,1,1,2,,,,,,,AFSA03.jpg,AFSA07.jpg,AFNE18.jpg,AFNE02.jpg,AFNE18.jpg,FN,3,num_2,16,num_2,1.88340359181,,,2017_Aug_14_1217,60.0034064871,FEMA4ImagesEEG,001,101141,
AMNE22.JPG,AMSA24.JPG,AMSA22.JPG,AMNE25.JPG,AMNE24.JPG,AMSA25.JPG,,,,,,,,,,,,,,,,,0,2,2,7,,,,,,,AFSA10.jpg,AFSA20.jpg,AFNE09.jpg,AFNE18.jpg,AFNE09.jpg,FN,3,num_2,32,num_4,0.816763417795,,,2017_Aug_14_1217,60.0034064871,FEMA4ImagesEEG,001,101141,
AMNE23.JPG,AMNE24.JPG,AMNE22.JPG,AMSA24.JPG,AMSA22.JPG,AMSA23.JPG,,,,,,,,,,,,,,,,,0,3,3,9,,,,,,,AFNE11.jpg,AFNE07.jpg,AFSA16.jpg,AFSA11.jpg,AFNE07.jpg,FN,3,num_6,32,num_2,0.916841068771,,,2017_Aug_14_1217,60.0034064871,FEMA4ImagesEEG,001,101141,
AFSA21.JPG,AFNE23.JPG,AFNE21.JPG,AFSA25.JPG,AFNE25.JPG,AFSA23.JPG,,,,,,,,,,,,,,,,,0,4,4,4,,,,,,,AFNE07.jpg,AFSA12.jpg,AFNE11.jpg,AFSA05.jpg,AFSA12.jpg,FS,4,num_6,16,num_6,1.00007505342,,,2017_Aug_14_1217,60.0034064871,FEMA4ImagesEEG,001,101141,
AFNE23.JPG,AFNE24.JPG,AFNE22.JPG,AFSA24.JPG,AFSA22.JPG,AFSA23.JPG,,,,,,,,,,,,,,,,,0,5,5,8,,,,,,,AFNE11.jpg,AFNE17.jpg,AFSA19.jpg,AFSA07.jpg,AFSA19.jpg,FS,4,num_2,16,num_2,1.08345112531,,,2017_Aug_14_1217,60.0034064871,FEMA4ImagesEEG,001,101141,
AMSA25.JPG,AMNE24.JPG,AMSA24.JPG,AMNE26.JPG,AMSA21.JPG,AMNE25.JPG,,,,,,,,,,,,,,,,,0,6,6,3,,,,,,,AFNE15.jpg,AFNE09.jpg,AFSA12.jpg,AFSA04.jpg,AFNE15.jpg,FN,3,num_8,16,num_8,1.45009267749,,,2017_Aug_14_1217,60.0034064871,FEMA4ImagesEEG,001,101141,
AMSA21.JPG,AMNE23.JPG,AMNE21.JPG,AMSA25.JPG,AMNE25.JPG,AMSA23.JPG,,,,,,,,,,,,,,,,,0,7,7,5,,,,,,,AFSA17.jpg,AFNE08.jpg,AFNE11.jpg,AFSA16.jpg,AFSA17.jpg,FS,4,num_8,32,num_4,0.966799870133,,,2017_Aug_14_1217,60.0034064871,FEMA4ImagesEEG,001,101141,
AFNE22.JPG,AFSA24.JPG,AFSA22.JPG,AFNE25.JPG,AFNE24.JPG,AFSA25.JPG,,,,,,,,,,,,,,,,,0,8,8,6,,,,,,,AFSA19.jpg,AFNE12.jpg,AFNE10.jpg,AFSA13.jpg,AFNE10.jpg,FN,3,num_2,32,num_6,1.31678025657,,,2017_Aug_14_1217,60.0034064871,FEMA4ImagesEEG,001,101141,
AMSA21.JPG,AMNE22.JPG,AMNE21.JPG,AMSA23.JPG,AMSA22.JPG,AMNE23.JPG,,,,,,,,,,,,,,,,,0,9,9,1,,,,,,,AFSA08.jpg,AFNE12.jpg,AFSA02.jpg,AFNE20.jpg,AFNE12.jpg,FN,3,num_6,32,num_8,1.63339565275,,,2017_Aug_14_1217,60.0034064871,FEMA4ImagesEEG,001,101141,
AMNE22.JPG,AMSA24.JPG,AMSA22.JPG,AMNE25.JPG,AMNE24.JPG,AMSA25.JPG,,,,,,,,,,,,,,,,,,,,,0,0,0,7,,,AMNE11.jpg,AMNE12.jpg,AMSA13.jpg,AMSA15.jpg,AMNE11.jpg,MN,1,num_8,32,num_6,1.10019921139,,,2017_Aug_14_1217,60.0034064871,FEMA4ImagesEEG,001,101141,
AFSA21.JPG,AFNE23.JPG,AFNE21.JPG,AFSA25.JPG,AFNE25.JPG,AFSA23.JPG,,,,,,,,,,,,,,,,,,,,,0,1,1,4,,,AMNE02.jpg,AMSA01.jpg,AMNE18.jpg,AMSA13.jpg,AMNE02.jpg,MN,1,num_8,32,num_6,1.06681048637,,,2017_Aug_14_1217,60.0034064871,FEMA4ImagesEEG,001,101141,
AMSA21.JPG,AMNE22.JPG,AMNE21.JPG,AMSA23.JPG,AMSA22.JPG,AMNE23.JPG,,,,,,,,,,,,,,,,,,,,,0,2,2,1,,,AMSA19.jpg,AMSA05.jpg,AMNE06.jpg,AMNE15.jpg,AMSA19.jpg,MS,2,num_8,32,num_6,0.750175845809,,,2017_Aug_14_1217,60.0034064871,FEMA4ImagesEEG,001,101141,
AFNE22.JPG,AFSA24.JPG,AFSA22.JPG,AFNE25.JPG,AFNE24.JPG,AFSA25.JPG,,,,,,,,,,,,,,,,,,,,,0,3,3,6,,,AMSA01.jpg,AMNE02.jpg,AMNE01.jpg,AMSA19.jpg,AMNE02.jpg,MN,1,num_6,32,num_2,1.21674333932,,,2017_Aug_14_1217,60.0034064871,FEMA4ImagesEEG,001,101141,
AFSA21.JPG,AFNE22.JPG,AFNE21.JPG,AFSA23.JPG,AFSA22.JPG,AFNE23.JPG,,,,,,,,,,,,,,,,,,,,,0,4,4,0,,,AMNE12.jpg,AMSA11.jpg,AMSA15.jpg,AMNE06.jpg,AMSA11.jpg,MS,2,num_6,32,num_2,0.816751871258,,,2017_Aug_14_1217,60.0034064871,FEMA4ImagesEEG,001,101141,
AFNE23.JPG,AFNE24.JPG,AFNE22.JPG,AFSA24.JPG,AFSA22.JPG,AFSA23.JPG,,,,,,,,,,,,,,,,,,,,,0,5,5,8,,,AMSA11.jpg,AMNE17.jpg,AMSA08.jpg,AMNE06.jpg,AMNE06.jpg,MN,1,num_4,16,num_4,1.11678789044,,,2017_Aug_14_1217,60.0034064871,FEMA4ImagesEEG,001,101141,
AFSA25.JPG,AFNE24.JPG,AFSA24.JPG,AFNE21.JPG,AFSA21.JPG,AFNE25.JPG,,,,,,,,,,,,,,,,,,,,,0,6,6,2,,,AMSA20.jpg,AMNE08.jpg,AMSA01.jpg,AMNE02.jpg,AMNE02.jpg,MN,1,num_4,16,num_4,1.0332812774,,,2017_Aug_14_1217,60.0034064871,FEMA4ImagesEEG,001,101141,
AMSA21.JPG,AMNE23.JPG,AMNE21.JPG,AMSA25.JPG,AMNE25.JPG,AMSA23.JPG,,,,,,,,,,,,,,,,,,,,,0,7,7,5,,,AMNE20.jpg,AMNE04.jpg,AMSA07.jpg,AMSA19.jpg,AMNE20.jpg,MN,1,num_8,32,num_4,2.60000083409,,,2017_Aug_14_1217,60.0034064871,FEMA4ImagesEEG,001,101141,
AMNE23.JPG,AMNE24.JPG,AMNE22.JPG,AMSA24.JPG,AMSA22.JPG,AMSA23.JPG,,,,,,,,,,,,,,,,,,,,,0,8,8,9,,,AMSA16.jpg,AMNE19.jpg,AMNE10.jpg,AMSA01.jpg,AMNE19.jpg,MN,1,num_6,16,num_6,1.30017265445,,,2017_Aug_14_1217,60.0034064871,FEMA4ImagesEEG,001,101141,
AMSA25.JPG,AMNE24.JPG,AMSA24.JPG,AMNE26.JPG,AMSA21.JPG,AMNE25.JPG,,,,,,,,,,,,,,,,,,,,,0,9,9,3,,,AMSA07.jpg,AMNE07.jpg,AMNE04.jpg,AMSA05.jpg,AMSA05.jpg,MS,2,num_4,32,num_2,0.933126007207,,,2017_Aug_14_1217,60.0034064871,FEMA4ImagesEEG,001,101141,
,,,,,,,,,,,,,,,,,,,,,,,,,,,,,,,,,,,,,,,,,,,space,15.4993121726,2017_Aug_14_1217,60.0034064871,FEMA4ImagesEEG,001,101141,
AFNE01.JPG,AFNE01.JPG,AFNE01.JPG,AFNE01.JPG,AFNE01.JPG,AFNE01.JPG,0,0,0,8,,,,,,,,,,,,,,,,,,,,,,,AFSA13.jpg,AFNE07.jpg,AFNE20.jpg,AFSA03.jpg,AFSA13.jpg,FS,4,num_8,32,num_4,2.00007088389,,,2017_Aug_14_1217,60.0034064871,FEMA4ImagesEEG,001,101141,
AFNE01.JPG,AFNE01.JPG,AFNE01.JPG,AFNE01.JPG,AFNE01.JPG,AFNE01.JPG,0,1,1,6,,,,,,,,,,,,,,,,,,,,,,,AFNE07.jpg,AFNE18.jpg,AFSA05.jpg,AFSA14.jpg,AFNE18.jpg,FN,3,num_6,32,num_8,0.966744702775,,,2017_Aug_14_1217,60.0034064871,FEMA4ImagesEEG,001,101141,
AFNE01.JPG,AFNE01.JPG,AFNE01.JPG,AFNE01.JPG,AFNE01.JPG,AFNE01.JPG,0,2,2,2,,,,,,,,,,,,,,,,,,,,,,,AFNE17.jpg,AFSA03.jpg,AFSA09.jpg,AFNE16.jpg,AFSA03.jpg,FS,4,num_6,16,num_6,1.16682912176,,,2017_Aug_14_1217,60.0034064871,FEMA4ImagesEEG,001,101141,
AFNE01.JPG,AFNE01.JPG,AFNE01.JPG,AFNE01.JPG,AFNE01.JPG,AFNE01.JPG,0,3,3,7,,,,,,,,,,,,,,,,,,,,,,,AFNE05.jpg,AFSA10.jpg,AFNE02.jpg,AFSA13.jpg,AFSA13.jpg,FS,4,num_4,32,num_2,1.06677167676,,,2017_Aug_14_1217,60.0034064871,FEMA4ImagesEEG,001,101141,
AFNE01.JPG,AFNE01.JPG,AFNE01.JPG,AFNE01.JPG,AFNE01.JPG,AFNE01.JPG,0,4,4,4,,,,,,,,,,,,,,,,,,,,,,,AFSA06.jpg,AFNE01.jpg,AFNE18.jpg,AFSA12.jpg,AFSA06.jpg,FS,4,num_8,32,num_6,1.2667656471,,,2017_Aug_14_1217,60.0034064871,FEMA4ImagesEEG,001,101141,
AFNE01.JPG,AFNE01.JPG,AFNE01.JPG,AFNE01.JPG,AFNE01.JPG,AFNE01.JPG,0,5,5,5,,,,,,,,,,,,,,,,,,,,,,,AFNE02.jpg,AFNE14.jpg,AFSA20.jpg,AFSA13.jpg,AFNE14.jpg,FN,3,num_6,32,num_2,1.11642930284,,,2017_Aug_14_1217,60.0034064871,FEMA4ImagesEEG,001,101141,
AFNE01.JPG,AFNE01.JPG,AFNE01.JPG,AFNE01.JPG,AFNE01.JPG,AFNE01.JPG,0,6,6,9,,,,,,,,,,,,,,,,,,,,,,,AFNE13.jpg,AFNE08.jpg,AFSA14.jpg,AFSA16.jpg,AFSA16.jpg,FS,4,num_4,32,num_8,0.86678989511,,,2017_Aug_14_1217,60.0034064871,FEMA4ImagesEEG,001,101141,
AFNE01.JPG,AFNE01.JPG,AFNE01.JPG,AFNE01.JPG,AFNE01.JPG,AFNE01.JPG,0,7,7,1,,,,,,,,,,,,,,,,,,,,,,,AFNE15.jpg,AFNE14.jpg,AFSA16.jpg,AFSA17.jpg,AFNE15.jpg,FN,3,num_8,32,num_2,1.13347471552,,,2017_Aug_14_1217,60.0034064871,FEMA4ImagesEEG,001,101141,
AFNE01.JPG,AFNE01.JPG,AFNE01.JPG,AFNE01.JPG,AFNE01.JPG,AFNE01.JPG,0,8,8,0,,,,,,,,,,,,,,,,,,,,,,,AFNE15.jpg,AFNE14.jpg,AFSA19.jpg,AFSA15.jpg,AFNE14.jpg,FN,3,num_6,32,num_2,1.41673859255,,,2017_Aug_14_1217,60.0034064871,FEMA4ImagesEEG,001,101141,
AFNE01.JPG,AFNE01.JPG,AFNE01.JPG,AFNE01.JPG,AFNE01.JPG,AFNE01.JPG,0,9,9,3,,,,,,,,,,,,,,,,,,,,,,,AFNE08.jpg,AFSA12.jpg,AFSA19.jpg,AFNE18.jpg,AFSA19.jpg,FS,4,num_2,32,num_6,0.90014462173,,,2017_Aug_14_1217,60.0034064871,FEMA4ImagesEEG,001,101141,
AFNE01.JPG,AFNE01.JPG,AFNE01.JPG,AFNE01.JPG,AFNE01.JPG,AFNE01.JPG,1,0,10,8,,,,,,,,,,,,,,,,,,,,,,,AFSA08.jpg,AFSA13.jpg,AFNE12.jpg,AFNE17.jpg,AFNE12.jpg,FN,3,num_2,32,num_4,1.21673628315,,,2017_Aug_14_1217,60.0034064871,FEMA4ImagesEEG,001,101141,
AFNE01.JPG,AFNE01.JPG,AFNE01.JPG,AFNE01.JPG,AFNE01.JPG,AFNE01.JPG,1,1,11,0,,,,,,,,,,,,,,,,,,,,,,,AFNE03.jpg,AFNE13.jpg,AFSA06.jpg,AFSA16.jpg,AFSA06.jpg,FS,4,num_2,16,num_2,1.26671047974,,,2017_Aug_14_1217,60.0034064871,FEMA4ImagesEEG,001,101141,
AFNE01.JPG,AFNE01.JPG,AFNE01.JPG,AFNE01.JPG,AFNE01.JPG,AFNE01.JPG,1,2,12,5,,,,,,,,,,,,,,,,,,,,,,,AFNE18.jpg,AFSA19.jpg,AFSA01.jpg,AFNE15.jpg,AFNE18.jpg,FN,3,num_8,16,num_8,1.1334310947,,,2017_Aug_14_1217,60.0034064871,FEMA4ImagesEEG,001,101141,
AFNE01.JPG,AFNE01.JPG,AFNE01.JPG,AFNE01.JPG,AFNE01.JPG,AFNE01.JPG,1,3,13,3,,,,,,,,,,,,,,,,,,,,,,,AFSA20.jpg,AFNE06.jpg,AFSA04.jpg,AFNE05.jpg,AFNE06.jpg,FN,3,num_6,32,num_8,1.45010133786,,,2017_Aug_14_1217,60.0034064871,FEMA4ImagesEEG,001,101141,
AFNE01.JPG,AFNE01.JPG,AFNE01.JPG,AFNE01.JPG,AFNE01.JPG,AFNE01.JPG,1,4,14,4,,,,,,,,,,,,,,,,,,,,,,,AFSA03.jpg,AFNE10.jpg,AFSA18.jpg,AFNE04.jpg,AFSA18.jpg,FS,4,num_2,16,num_2,1.16674733302,,,2017_Aug_14_1217,60.0034064871,FEMA4ImagesEEG,001,101141,
AFNE01.JPG,AFNE01.JPG,AFNE01.JPG,AFNE01.JPG,AFNE01.JPG,AFNE01.JPG,1,5,15,9,,,,,,,,,,,,,,,,,,,,,,,AFSA16.jpg,AFSA13.jpg,AFNE09.jpg,AFNE07.jpg,AFSA16.jpg,FS,4,num_8,32,num_6,0.716787120793,,,2017_Aug_14_1217,60.0034064871,FEMA4ImagesEEG,001,101141,
AFNE01.JPG,AFNE01.JPG,AFNE01.JPG,AFNE01.JPG,AFNE01.JPG,AFNE01.JPG,1,6,16,6,,,,,,,,,,,,,,,,,,,,,,,AFNE16.jpg,AFSA19.jpg,AFSA09.jpg,AFNE12.jpg,AFSA09.jpg,FS,4,num_2,32,num_6,0.55025019357,,,2017_Aug_14_1217,60.0034064871,FEMA4ImagesEEG,001,101141,
AFNE01.JPG,AFNE01.JPG,AFNE01.JPG,AFNE01.JPG,AFNE01.JPG,AFNE01.JPG,1,7,17,1,,,,,,,,,,,,,,,,,,,,,,,AFSA08.jpg,AFNE06.jpg,AFSA03.jpg,AFNE17.jpg,AFNE17.jpg,FN,3,num_4,16,num_4,1.55009687925,,,2017_Aug_14_1217,60.0034064871,FEMA4ImagesEEG,001,101141,
AFNE01.JPG,AFNE01.JPG,AFNE01.JPG,AFNE01.JPG,AFNE01.JPG,AFNE01.JPG,1,8,18,7,,,,,,,,,,,,,,,,,,,,,,,AFSA09.jpg,AFNE08.jpg,AFSA13.jpg,AFNE14.jpg,AFSA13.jpg,FS,4,num_2,16,num_2,0.900114151184,,,2017_Aug_14_1217,60.0034064871,FEMA4ImagesEEG,001,101141,
AFNE01.JPG,AFNE01.JPG,AFNE01.JPG,AFNE01.JPG,AFNE01.JPG,AFNE01.JPG,1,9,19,2,,,,,,,,,,,,,,,,,,,,,,,AFSA01.jpg,AFSA04.jpg,AFNE07.jpg,AFNE12.jpg,AFNE07.jpg,FN,3,num_2,16,num_2,1.40037314873,,,2017_Aug_14_1217,60.0034064871,FEMA4ImagesEEG,001,101141,
AFNE01.JPG,AFNE01.JPG,AFNE01.JPG,AFNE01.JPG,AFNE01.JPG,AFNE01.JPG,2,0,20,1,,,,,,,,,,,,,,,,,,,,,,,AFSA17.jpg,AFNE17.jpg,AFSA09.jpg,AFNE09.jpg,AFNE09.jpg,FN,3,num_4,16,num_4,1.5500734658,,,2017_Aug_14_1217,60.0034064871,FEMA4ImagesEEG,001,101141,
AFNE01.JPG,AFNE01.JPG,AFNE01.JPG,AFNE01.JPG,AFNE01.JPG,AFNE01.JPG,2,1,21,5,,,,,,,,,,,,,,,,,,,,,,,AFSA09.jpg,AFNE18.jpg,AFSA14.jpg,AFNE20.jpg,AFSA14.jpg,FS,4,num_2,32,num_8,1.16677170899,,,2017_Aug_14_1217,60.0034064871,FEMA4ImagesEEG,001,101141,
AFNE01.JPG,AFNE01.JPG,AFNE01.JPG,AFNE01.JPG,AFNE01.JPG,AFNE01.JPG,2,2,22,9,,,,,,,,,,,,,,,,,,,,,,,AFNE07.jpg,AFSA09.jpg,AFSA03.jpg,AFNE18.jpg,AFNE18.jpg,FN,3,num_4,32,num_2,2.51671873871,,,2017_Aug_14_1217,60.0034064871,FEMA4ImagesEEG,001,101141,
AFNE01.JPG,AFNE01.JPG,AFNE01.JPG,AFNE01.JPG,AFNE01.JPG,AFNE01.JPG,2,3,23,7,,,,,,,,,,,,,,,,,,,,,,,AFSA07.jpg,AFSA15.jpg,AFNE11.jpg,AFNE19.jpg,AFNE11.jpg,FN,3,num_2,16,num_2,1.21677413071,,,2017_Aug_14_1217,60.0034064871,FEMA4ImagesEEG,001,101141,
AFNE01.JPG,AFNE01.JPG,AFNE01.JPG,AFNE01.JPG,AFNE01.JPG,AFNE01.JPG,2,4,24,2,,,,,,,,,,,,,,,,,,,,,,,AFSA01.jpg,AFSA20.jpg,AFNE04.jpg,AFNE02.jpg,AFNE02.jpg,FN,3,num_4,32,num_8,1.03343523247,,,2017_Aug_14_1217,60.0034064871,FEMA4ImagesEEG,001,101141,
AFNE01.JPG,AFNE01.JPG,AFNE01.JPG,AFNE01.JPG,AFNE01.JPG,AFNE01.JPG,2,5,25,0,,,,,,,,,,,,,,,,,,,,,,,AFSA07.jpg,AFSA05.jpg,AFNE10.jpg,AFNE16.jpg,AFSA07.jpg,FS,4,num_8,32,num_4,1.06673639547,,,2017_Aug_14_1217,60.0034064871,FEMA4ImagesEEG,001,101141,
AFNE01.JPG,AFNE01.JPG,AFNE01.JPG,AFNE01.JPG,AFNE01.JPG,AFNE01.JPG,2,6,26,8,,,,,,,,,,,,,,,,,,,,,,,AFSA13.jpg,AFNE01.jpg,AFSA09.jpg,AFNE10.jpg,AFNE01.jpg,FN,3,num_6,32,num_2,1.03343394911,,,2017_Aug_14_1217,60.0034064871,FEMA4ImagesEEG,001,101141,
AFNE01.JPG,AFNE01.JPG,AFNE01.JPG,AFNE01.JPG,AFNE01.JPG,AFNE01.JPG,2,7,27,6,,,,,,,,,,,,,,,,,,,,,,,AFSA12.jpg,AFSA01.jpg,AFNE19.jpg,AFNE07.jpg,AFSA01.jpg,FS,4,num_6,32,num_4,1.13346060272,,,2017_Aug_14_1217,60.0034064871,FEMA4ImagesEEG,001,101141,
AFNE01.JPG,AFNE01.JPG,AFNE01.JPG,AFNE01.JPG,AFNE01.JPG,AFNE01.JPG,2,8,28,3,,,,,,,,,,,,,,,,,,,,,,,AFSA17.jpg,AFSA13.jpg,AFNE05.jpg,AFNE03.jpg,AFNE03.jpg,FN,3,num_4,32,num_8,1.0834123157,,,2017_Aug_14_1217,60.0034064871,FEMA4ImagesEEG,001,101141,
AFNE01.JPG,AFNE01.JPG,AFNE01.JPG,AFNE01.JPG,AFNE01.JPG,AFNE01.JPG,2,9,29,4,,,,,,,,,,,,,,,,,,,,,,,AFNE16.jpg,AFSA10.jpg,AFNE05.jpg,AFSA09.jpg,AFNE16.jpg,FN,3,num_8,32,num_2,1.58356867637,,,2017_Aug_14_1217,60.0034064871,FEMA4ImagesEEG,001,101141,
AFNE01.JPG,AFNE01.JPG,AFNE01.JPG,AFNE01.JPG,AFNE01.JPG,AFNE01.JPG,3,0,30,5,,,,,,,,,,,,,,,,,,,,,,,AFNE01.jpg,AFSA17.jpg,AFNE07.jpg,AFSA06.jpg,AFSA17.jpg,FS,4,num_6,32,num_4,0.88347511692,,,2017_Aug_14_1217,60.0034064871,FEMA4ImagesEEG,001,101141,
AFNE01.JPG,AFNE01.JPG,AFNE01.JPG,AFNE01.JPG,AFNE01.JPG,AFNE01.JPG,3,1,31,3,,,,,,,,,,,,,,,,,,,,,,,AFSA17.jpg,AFNE20.jpg,AFSA02.jpg,AFNE02.jpg,AFSA17.jpg,FS,4,num_8,32,num_2,1.2334243916,,,2017_Aug_14_1217,60.0034064871,FEMA4ImagesEEG,001,101141,
AFNE01.JPG,AFNE01.JPG,AFNE01.JPG,AFNE01.JPG,AFNE01.JPG,AFNE01.JPG,3,2,32,2,,,,,,,,,,,,,,,,,,,,,,,AFSA15.jpg,AFSA04.jpg,AFNE07.jpg,AFNE05.jpg,AFSA04.jpg,FS,4,num_6,16,num_6,1.0333197657,,,2017_Aug_14_1217,60.0034064871,FEMA4ImagesEEG,001,101141,
AFNE01.JPG,AFNE01.JPG,AFNE01.JPG,AFNE01.JPG,AFNE01.JPG,AFNE01.JPG,3,3,33,1,,,,,,,,,,,,,,,,,,,,,,,AFSA12.jpg,AFNE04.jpg,AFNE02.jpg,AFSA17.jpg,AFSA17.jpg,FS,4,num_4,32,num_2,1.11677441932,,,2017_Aug_14_1217,60.0034064871,FEMA4ImagesEEG,001,101141,
AFNE01.JPG,AFNE01.JPG,AFNE01.JPG,AFNE01.JPG,AFNE01.JPG,AFNE01.JPG,3,4,34,6,,,,,,,,,,,,,,,,,,,,,,,AFSA16.jpg,AFNE20.jpg,AFNE06.jpg,AFSA18.jpg,AFSA16.jpg,FS,4,num_8,32,num_4,0.750203750096,,,2017_Aug_14_1217,60.0034064871,FEMA4ImagesEEG,001,101141,
AFNE01.JPG,AFNE01.JPG,AFNE01.JPG,AFNE01.JPG,AFNE01.JPG,AFNE01.JPG,3,5,35,4,,,,,,,,,,,,,,,,,,,,,,,AFNE20.jpg,AFNE17.jpg,AFSA04.jpg,AFSA15.jpg,AFNE17.jpg,FN,3,num_6,32,num_8,0.983494393062,,,2017_Aug_14_1217,60.0034064871,FEMA4ImagesEEG,001,101141,
AFNE01.JPG,AFNE01.JPG,AFNE01.JPG,AFNE01.JPG,AFNE01.JPG,AFNE01.JPG,3,6,36,0,,,,,,,,,,,,,,,,,,,,,,,AFNE05.jpg,AFSA02.jpg,AFNE17.jpg,AFSA10.jpg,AFSA10.jpg,FS,4,num_4,32,num_6,1.16672744695,,,2017_Aug_14_1217,60.0034064871,FEMA4ImagesEEG,001,101141,
AFNE01.JPG,AFNE01.JPG,AFNE01.JPG,AFNE01.JPG,AFNE01.JPG,AFNE01.JPG,3,7,37,8,,,,,,,,,,,,,,,,,,,,,,,AFNE10.jpg,AFSA09.jpg,AFSA12.jpg,AFNE09.jpg,AFNE10.jpg,FN,3,num_8,32,num_2,1.44986880152,,,2017_Aug_14_1217,60.0034064871,FEMA4ImagesEEG,001,101141,
AFNE01.JPG,AFNE01.JPG,AFNE01.JPG,AFNE01.JPG,AFNE01.JPG,AFNE01.JPG,3,8,38,9,,,,,,,,,,,,,,,,,,,,,,,AFSA05.jpg,AFNE18.jpg,AFNE12.jpg,AFSA16.jpg,AFNE12.jpg,FN,3,num_2,32,num_4,1.16676048329,,,2017_Aug_14_1217,60.0034064871,FEMA4ImagesEEG,001,101141,
AFNE01.JPG,AFNE01.JPG,AFNE01.JPG,AFNE01.JPG,AFNE01.JPG,AFNE01.JPG,3,9,39,7,,,,,,,,,,,,,,,,,,,,,,,AFNE10.jpg,AFNE18.jpg,AFSA07.jpg,AFSA18.jpg,AFSA07.jpg,FS,4,num_2,32,num_4,1.01675546356,,,2017_Aug_14_1217,60.0034064871,FEMA4ImagesEEG,001,101141,
AFNE01.JPG,AFNE01.JPG,AFNE01.JPG,AFNE01.JPG,AFNE01.JPG,AFNE01.JPG,4,0,40,7,,,,,,,,,,,,,,,,,,,,,,,AFNE08.jpg,AFSA06.jpg,AFSA19.jpg,AFNE02.jpg,AFNE02.jpg,FN,3,num_4,32,num_8,1.05040495005,,,2017_Aug_14_1217,60.0034064871,FEMA4ImagesEEG,001,101141,
AFNE01.JPG,AFNE01.JPG,AFNE01.JPG,AFNE01.JPG,AFNE01.JPG,AFNE01.JPG,4,1,41,9,,,,,,,,,,,,,,,,,,,,,,,AFSA14.jpg,AFNE19.jpg,AFNE17.jpg,AFSA08.jpg,AFNE19.jpg,FN,3,num_6,32,num_2,1.35020009382,,,2017_Aug_14_1217,60.0034064871,FEMA4ImagesEEG,001,101141,
AFNE01.JPG,AFNE01.JPG,AFNE01.JPG,AFNE01.JPG,AFNE01.JPG,AFNE01.JPG,4,2,42,8,,,,,,,,,,,,,,,,,,,,,,,AFNE12.jpg,AFNE09.jpg,AFSA09.jpg,AFSA06.jpg,AFSA06.jpg,FS,4,num_4,16,num_4,1.86668052291,,,2017_Aug_14_1217,60.0034064871,FEMA4ImagesEEG,001,101141,
AFNE01.JPG,AFNE01.JPG,AFNE01.JPG,AFNE01.JPG,AFNE01.JPG,AFNE01.JPG,4,3,43,6,,,,,,,,,,,,,,,,,,,,,,,AFNE14.jpg,AFNE20.jpg,AFSA15.jpg,AFSA10.jpg,AFSA10.jpg,FS,4,num_4,32,num_6,0.966767796315,,,2017_Aug_14_1217,60.0034064871,FEMA4ImagesEEG,001,101141,
AFNE01.JPG,AFNE01.JPG,AFNE01.JPG,AFNE01.JPG,AFNE01.JPG,AFNE01.JPG,4,4,44,2,,,,,,,,,,,,,,,,,,,,,,,AFNE17.jpg,AFSA09.jpg,AFSA01.jpg,AFNE05.jpg,AFSA09.jpg,FS,4,num_6,32,num_2,1.11683985032,,,2017_Aug_14_1217,60.0034064871,FEMA4ImagesEEG,001,101141,
AFNE01.JPG,AFNE01.JPG,AFNE01.JPG,AFNE01.JPG,AFNE01.JPG,AFNE01.JPG,4,5,45,3,,,,,,,,,,,,,,,,,,,,,,,AFNE09.jpg,AFNE03.jpg,AFSA13.jpg,AFSA20.jpg,AFSA13.jpg,FS,4,num_2,16,num_2,1.15013363631,,,2017_Aug_14_1217,60.0034064871,FEMA4ImagesEEG,001,101141,
AFNE01.JPG,AFNE01.JPG,AFNE01.JPG,AFNE01.JPG,AFNE01.JPG,AFNE01.JPG,4,6,46,1,,,,,,,,,,,,,,,,,,,,,,,AFNE19.jpg,AFSA16.jpg,AFNE11.jpg,AFSA05.jpg,AFNE19.jpg,FN,3,num_8,32,num_2,1.33342442382,,,2017_Aug_14_1217,60.0034064871,FEMA4ImagesEEG,001,101141,
AFNE01.JPG,AFNE01.JPG,AFNE01.JPG,AFNE01.JPG,AFNE01.JPG,AFNE01.JPG,4,7,47,5,,,,,,,,,,,,,,,,,,,,,,,AFSA06.jpg,AFSA08.jpg,AFNE06.jpg,AFNE02.jpg,AFNE06.jpg,FN,3,num_2,32,num_6,1.68350937171,,,2017_Aug_14_1217,60.0034064871,FEMA4ImagesEEG,001,101141,
AFNE01.JPG,AFNE01.JPG,AFNE01.JPG,AFNE01.JPG,AFNE01.JPG,AFNE01.JPG,4,8,48,4,,,,,,,,,,,,,,,,,,,,,,,AFNE06.jpg,AFSA04.jpg,AFNE20.jpg,AFSA08.jpg,AFSA08.jpg,FS,4,num_4,32,num_2,1.4000915396,,,2017_Aug_14_1217,60.0034064871,FEMA4ImagesEEG,001,101141,
AFNE01.JPG,AFNE01.JPG,AFNE01.JPG,AFNE01.JPG,AFNE01.JPG,AFNE01.JPG,4,9,49,0,,,,,,,,,,,,,,,,,,,,,,,AFNE08.jpg,AFNE20.jpg,AFSA07.jpg,AFSA01.jpg,AFNE08.jpg,FN,3,num_8,32,num_4,1.08346138895,,,2017_Aug_14_1217,60.0034064871,FEMA4ImagesEEG,001,101141,
AFNE01.JPG,AFNE01.JPG,AFNE01.JPG,AFNE01.JPG,AFNE01.JPG,AFNE01.JPG,5,0,50,1,,,,,,,,,,,,,,,,,,,,,,,AFSA20.jpg,AFNE12.jpg,AFNE03.jpg,AFSA11.jpg,AFSA20.jpg,FS,4,num_8,32,num_2,1.33347445913,,,2017_Aug_14_1217,60.0034064871,FEMA4ImagesEEG,001,101141,
AFNE01.JPG,AFNE01.JPG,AFNE01.JPG,AFNE01.JPG,AFNE01.JPG,AFNE01.JPG,5,1,51,7,,,,,,,,,,,,,,,,,,,,,,,AFNE07.jpg,AFNE02.jpg,AFSA16.jpg,AFSA01.jpg,AFNE02.jpg,FN,3,num_6,32,num_2,1.71707739029,,,2017_Aug_14_1217,60.0034064871,FEMA4ImagesEEG,001,101141,
AFNE01.JPG,AFNE01.JPG,AFNE01.JPG,AFNE01.JPG,AFNE01.JPG,AFNE01.JPG,5,2,52,2,,,,,,,,,,,,,,,,,,,,,,,AFSA15.jpg,AFNE05.jpg,AFSA06.jpg,AFNE10.jpg,AFNE10.jpg,FN,3,num_4,32,num_2,1.05011500139,,,2017_Aug_14_1217,60.0034064871,FEMA4ImagesEEG,001,101141,
AFNE01.JPG,AFNE01.JPG,AFNE01.JPG,AFNE01.JPG,AFNE01.JPG,AFNE01.JPG,5,3,53,8,,,,,,,,,,,,,,,,,,,,,,,AFSA11.jpg,AFSA16.jpg,AFNE18.jpg,AFNE15.jpg,AFSA11.jpg,FS,4,num_8,32,num_4,2.23343946598,,,2017_Aug_14_1217,60.0034064871,FEMA4ImagesEEG,001,101141,
AFNE01.JPG,AFNE01.JPG,AFNE01.JPG,AFNE01.JPG,AFNE01.JPG,AFNE01.JPG,5,4,54,4,,,,,,,,,,,,,,,,,,,,,,,AFNE03.jpg,AFSA13.jpg,AFNE08.jpg,AFSA02.jpg,AFSA02.jpg,FS,4,num_4,16,num_4,0.61682429444,,,2017_Aug_14_1217,60.0034064871,FEMA4ImagesEEG,001,101141,
AFNE01.JPG,AFNE01.JPG,AFNE01.JPG,AFNE01.JPG,AFNE01.JPG,AFNE01.JPG,5,5,55,9,,,,,,,,,,,,,,,,,,,,,,,AFSA05.jpg,AFSA12.jpg,AFNE04.jpg,AFNE18.jpg,AFNE18.jpg,FN,3,num_4,32,num_2,1.15013107052,,,2017_Aug_14_1217,60.0034064871,FEMA4ImagesEEG,001,101141,
AFNE01.JPG,AFNE01.JPG,AFNE01.JPG,AFNE01.JPG,AFNE01.JPG,AFNE01.JPG,5,6,56,5,,,,,,,,,,,,,,,,,,,,,,,AFSA13.jpg,AFSA19.jpg,AFNE16.jpg,AFNE04.jpg,AFSA13.jpg,FS,4,num_8,32,num_6,1.4667451838,,,2017_Aug_14_1217,60.0034064871,FEMA4ImagesEEG,001,101141,
AFNE01.JPG,AFNE01.JPG,AFNE01.JPG,AFNE01.JPG,AFNE01.JPG,AFNE01.JPG,5,7,57,3,,,,,,,,,,,,,,,,,,,,,,,AFSA15.jpg,AFNE09.jpg,AFSA08.jpg,AFNE04.jpg,AFNE04.jpg,FN,3,num_4,32,num_2,1.83337775571,,,2017_Aug_14_1217,60.0034064871,FEMA4ImagesEEG,001,101141,
AFNE01.JPG,AFNE01.JPG,AFNE01.JPG,AFNE01.JPG,AFNE01.JPG,AFNE01.JPG,5,8,58,0,,,,,,,,,,,,,,,,,,,,,,,AFSA02.jpg,AFNE15.jpg,AFNE10.jpg,AFSA18.jpg,AFSA18.jpg,FS,4,num_4,16,num_4,1.13346156524,,,2017_Aug_14_1217,60.0034064871,FEMA4ImagesEEG,001,101141,
AFNE01.JPG,AFNE01.JPG,AFNE01.JPG,AFNE01.JPG,AFNE01.JPG,AFNE01.JPG,5,9,59,6,,,,,,,,,,,,,,,,,,,,,,,AFSA08.jpg,AFNE17.jpg,AFNE10.jpg,AFSA11.jpg,AFNE17.jpg,FN,3,num_6,32,num_8,1.55007378617,,,2017_Aug_14_1217,60.0034064871,FEMA4ImagesEEG,001,101141,
,,,,,,,,,,,,,,,,,,,,,,,,,,,,,,,,,,,,,,,,,,,space,17.0658636619,2017_Aug_14_1217,60.0034064871,FEMA4ImagesEEG,001,101141,
AFNE01.JPG,AFNE01.JPG,AFNE01.JPG,AFNE01.JPG,AFNE01.JPG,AFNE01.JPG,,,,,0,0,0,4,,,,,,,,,,,,,,,,,,,AMSA01.jpg,AMNE11.jpg,AMSA20.jpg,AMNE17.jpg,AMSA20.jpg,MS,2,num_2,32,num_4,0.983477073256,,,2017_Aug_14_1217,60.0034064871,FEMA4ImagesEEG,001,101141,
AFNE01.JPG,AFNE01.JPG,AFNE01.JPG,AFNE01.JPG,AFNE01.JPG,AFNE01.JPG,,,,,0,1,1,8,,,,,,,,,,,,,,,,,,,AMSA05.jpg,AMSA06.jpg,AMNE16.jpg,AMNE08.jpg,AMSA06.jpg,MS,2,num_6,16,num_6,0.516813998576,,,2017_Aug_14_1217,60.0034064871,FEMA4ImagesEEG,001,101141,
AFNE01.JPG,AFNE01.JPG,AFNE01.JPG,AFNE01.JPG,AFNE01.JPG,AFNE01.JPG,,,,,0,2,2,6,,,,,,,,,,,,,,,,,,,AMSA07.jpg,AMNE11.jpg,AMSA13.jpg,AMNE07.jpg,AMSA13.jpg,MS,2,num_2,16,num_2,1.15008360101,,,2017_Aug_14_1217,60.0034064871,FEMA4ImagesEEG,001,101141,
AFNE01.JPG,AFNE01.JPG,AFNE01.JPG,AFNE01.JPG,AFNE01.JPG,AFNE01.JPG,,,,,0,3,3,1,,,,,,,,,,,,,,,,,,,AMNE01.jpg,AMNE10.jpg,AMSA06.jpg,AMSA01.jpg,AMSA06.jpg,MS,2,num_2,32,num_8,1.06679829862,,,2017_Aug_14_1217,60.0034064871,FEMA4ImagesEEG,001,101141,
AFNE01.JPG,AFNE01.JPG,AFNE01.JPG,AFNE01.JPG,AFNE01.JPG,AFNE01.JPG,,,,,0,4,4,5,,,,,,,,,,,,,,,,,,,AMSA11.jpg,AMNE05.jpg,AMNE07.jpg,AMSA20.jpg,AMNE05.jpg,MN,1,num_6,32,num_2,0.966771003325,,,2017_Aug_14_1217,60.0034064871,FEMA4ImagesEEG,001,101141,
AFNE01.JPG,AFNE01.JPG,AFNE01.JPG,AFNE01.JPG,AFNE01.JPG,AFNE01.JPG,,,,,0,5,5,2,,,,,,,,,,,,,,,,,,,AMSA13.jpg,AMSA15.jpg,AMNE11.jpg,AMNE05.jpg,AMNE11.jpg,MN,1,num_2,32,num_8,1.03312924644,,,2017_Aug_14_1217,60.0034064871,FEMA4ImagesEEG,001,101141,
AFNE01.JPG,AFNE01.JPG,AFNE01.JPG,AFNE01.JPG,AFNE01.JPG,AFNE01.JPG,,,,,0,6,6,7,,,,,,,,,,,,,,,,,,,AMSA07.jpg,AMNE18.jpg,AMNE03.jpg,AMSA17.jpg,AMSA07.jpg,MS,2,num_8,32,num_2,1.11678692792,,,2017_Aug_14_1217,60.0034064871,FEMA4ImagesEEG,001,101141,
AFNE01.JPG,AFNE01.JPG,AFNE01.JPG,AFNE01.JPG,AFNE01.JPG,AFNE01.JPG,,,,,0,7,7,9,,,,,,,,,,,,,,,,,,,AMSA18.jpg,AMNE11.jpg,AMNE06.jpg,AMSA19.jpg,AMSA18.jpg,MS,2,num_8,32,num_4,1.55018797005,,,2017_Aug_14_1217,60.0034064871,FEMA4ImagesEEG,001,101141,
AFNE01.JPG,AFNE01.JPG,AFNE01.JPG,AFNE01.JPG,AFNE01.JPG,AFNE01.JPG,,,,,0,8,8,3,,,,,,,,,,,,,,,,,,,AMSA16.jpg,AMNE14.jpg,AMSA04.jpg,AMNE01.jpg,AMNE14.jpg,MN,1,num_6,32,num_2,1.71672970802,,,2017_Aug_14_1217,60.0034064871,FEMA4ImagesEEG,001,101141,
AFNE01.JPG,AFNE01.JPG,AFNE01.JPG,AFNE01.JPG,AFNE01.JPG,AFNE01.JPG,,,,,0,9,9,0,,,,,,,,,,,,,,,,,,,AMNE03.jpg,AMNE05.jpg,AMSA03.jpg,AMSA01.jpg,AMNE03.jpg,MN,1,num_8,32,num_2,1.10013474291,,,2017_Aug_14_1217,60.0034064871,FEMA4ImagesEEG,001,101141,
AFNE01.JPG,AFNE01.JPG,AFNE01.JPG,AFNE01.JPG,AFNE01.JPG,AFNE01.JPG,,,,,1,0,10,4,,,,,,,,,,,,,,,,,,,AMNE20.jpg,AMSA05.jpg,AMNE16.jpg,AMSA07.jpg,AMSA05.jpg,MS,2,num_6,32,num_4,1.0167743871,,,2017_Aug_14_1217,60.0034064871,FEMA4ImagesEEG,001,101141,
AFNE01.JPG,AFNE01.JPG,AFNE01.JPG,AFNE01.JPG,AFNE01.JPG,AFNE01.JPG,,,,,1,1,11,9,,,,,,,,,,,,,,,,,,,AMNE12.jpg,AMNE04.jpg,AMSA13.jpg,AMSA07.jpg,AMNE04.jpg,MN,1,num_6,32,num_2,1.43344145454,,,2017_Aug_14_1217,60.0034064871,FEMA4ImagesEEG,001,101141,
AFNE01.JPG,AFNE01.JPG,AFNE01.JPG,AFNE01.JPG,AFNE01.JPG,AFNE01.JPG,,,,,1,2,12,7,,,,,,,,,,,,,,,,,,,AMNE02.jpg,AMNE18.jpg,AMSA18.jpg,AMSA14.jpg,AMNE18.jpg,MN,1,num_6,16,num_6,1.40005689906,,,2017_Aug_14_1217,60.0034064871,FEMA4ImagesEEG,001,101141,
AFNE01.JPG,AFNE01.JPG,AFNE01.JPG,AFNE01.JPG,AFNE01.JPG,AFNE01.JPG,,,,,1,3,13,5,,,,,,,,,,,,,,,,,,,AMSA01.jpg,AMNE11.jpg,AMSA04.jpg,AMNE18.jpg,AMNE18.jpg,MN,1,num_4,32,num_2,0.966928807553,,,2017_Aug_14_1217,60.0034064871,FEMA4ImagesEEG,001,101141,
AFNE01.JPG,AFNE01.JPG,AFNE01.JPG,AFNE01.JPG,AFNE01.JPG,AFNE01.JPG,,,,,1,4,14,2,,,,,,,,,,,,,,,,,,,AMNE04.jpg,AMSA08.jpg,AMSA14.jpg,AMNE18.jpg,AMSA08.jpg,MS,2,num_6,32,num_4,1.23340322264,,,2017_Aug_14_1217,60.0034064871,FEMA4ImagesEEG,001,101141,
AFNE01.JPG,AFNE01.JPG,AFNE01.JPG,AFNE01.JPG,AFNE01.JPG,AFNE01.JPG,,,,,1,5,15,3,,,,,,,,,,,,,,,,,,,AMNE11.jpg,AMNE03.jpg,AMSA17.jpg,AMSA11.jpg,AMNE11.jpg,MN,1,num_8,32,num_2,1.13345867861,,,2017_Aug_14_1217,60.0034064871,FEMA4ImagesEEG,001,101141,
AFNE01.JPG,AFNE01.JPG,AFNE01.JPG,AFNE01.JPG,AFNE01.JPG,AFNE01.JPG,,,,,1,6,16,6,,,,,,,,,,,,,,,,,,,AMSA06.jpg,AMNE11.jpg,AMSA03.jpg,AMNE12.jpg,AMNE12.jpg,MN,1,num_4,16,num_4,1.51684511034,,,2017_Aug_14_1217,60.0034064871,FEMA4ImagesEEG,001,101141,
AFNE01.JPG,AFNE01.JPG,AFNE01.JPG,AFNE01.JPG,AFNE01.JPG,AFNE01.JPG,,,,,1,7,17,8,,,,,,,,,,,,,,,,,,,AMSA16.jpg,AMSA17.jpg,AMNE06.jpg,AMNE03.jpg,AMNE06.jpg,MN,1,num_2,16,num_2,1.11677923054,,,2017_Aug_14_1217,60.0034064871,FEMA4ImagesEEG,001,101141,
AFNE01.JPG,AFNE01.JPG,AFNE01.JPG,AFNE01.JPG,AFNE01.JPG,AFNE01.JPG,,,,,1,8,18,1,,,,,,,,,,,,,,,,,,,AMNE19.jpg,AMNE01.jpg,AMSA02.jpg,AMSA13.jpg,AMNE01.jpg,MN,1,num_6,16,num_6,0.950206379872,,,2017_Aug_14_1217,60.0034064871,FEMA4ImagesEEG,001,101141,
AFNE01.JPG,AFNE01.JPG,AFNE01.JPG,AFNE01.JPG,AFNE01.JPG,AFNE01.JPG,,,,,1,9,19,0,,,,,,,,,,,,,,,,,,,AMNE09.jpg,AMSA02.jpg,AMSA18.jpg,AMNE12.jpg,AMSA02.jpg,MS,2,num_6,32,num_2,1.45010775235,,,2017_Aug_14_1217,60.0034064871,FEMA4ImagesEEG,001,101141,
AFNE01.JPG,AFNE01.JPG,AFNE01.JPG,AFNE01.JPG,AFNE01.JPG,AFNE01.JPG,,,,,2,0,20,4,,,,,,,,,,,,,,,,,,,AMNE08.jpg,AMSA02.jpg,AMSA16.jpg,AMNE06.jpg,AMSA02.jpg,MS,2,num_6,32,num_4,0.833440941758,,,2017_Aug_14_1217,60.0034064871,FEMA4ImagesEEG,001,101141,
AFNE01.JPG,AFNE01.JPG,AFNE01.JPG,AFNE01.JPG,AFNE01.JPG,AFNE01.JPG,,,,,2,1,21,1,,,,,,,,,,,,,,,,,,,AMSA02.jpg,AMNE19.jpg,AMNE14.jpg,AMSA04.jpg,AMSA02.jpg,MS,2,num_8,32,num_4,0.933473689482,,,2017_Aug_14_1217,60.0034064871,FEMA4ImagesEEG,001,101141,
AFNE01.JPG,AFNE01.JPG,AFNE01.JPG,AFNE01.JPG,AFNE01.JPG,AFNE01.JPG,,,,,2,2,22,9,,,,,,,,,,,,,,,,,,,AMNE14.jpg,AMNE05.jpg,AMSA17.jpg,AMSA06.jpg,AMSA17.jpg,MS,2,num_2,16,num_2,1.28350988496,,,2017_Aug_14_1217,60.0034064871,FEMA4ImagesEEG,001,101141,
AFNE01.JPG,AFNE01.JPG,AFNE01.JPG,AFNE01.JPG,AFNE01.JPG,AFNE01.JPG,,,,,2,3,23,7,,,,,,,,,,,,,,,,,,,AMSA08.jpg,AMSA14.jpg,AMNE07.jpg,AMNE18.jpg,AMNE18.jpg,MN,1,num_4,32,num_2,1.98334685247,,,2017_Aug_14_1217,60.0034064871,FEMA4ImagesEEG,001,101141,
AFNE01.JPG,AFNE01.JPG,AFNE01.JPG,AFNE01.JPG,AFNE01.JPG,AFNE01.JPG,,,,,2,4,24,6,,,,,,,,,,,,,,,,,,,AMNE07.jpg,AMSA20.jpg,AMNE16.jpg,AMSA17.jpg,AMSA17.jpg,MS,2,num_4,16,num_4,0.683564859442,,,2017_Aug_14_1217,60.0034064871,FEMA4ImagesEEG,001,101141,
AFNE01.JPG,AFNE01.JPG,AFNE01.JPG,AFNE01.JPG,AFNE01.JPG,AFNE01.JPG,,,,,2,5,25,2,,,,,,,,,,,,,,,,,,,AMSA10.jpg,AMSA06.jpg,AMNE06.jpg,AMNE04.jpg,AMNE04.jpg,MN,1,num_4,32,num_2,1.11676415568,,,2017_Aug_14_1217,60.0034064871,FEMA4ImagesEEG,001,101141,
AFNE01.JPG,AFNE01.JPG,AFNE01.JPG,AFNE01.JPG,AFNE01.JPG,AFNE01.JPG,,,,,2,6,26,8,,,,,,,,,,,,,,,,,,,AMNE13.jpg,AMSA16.jpg,AMSA01.jpg,AMNE07.jpg,AMSA16.jpg,MS,2,num_6,32,num_4,0.733480360825,,,2017_Aug_14_1217,60.0034064871,FEMA4ImagesEEG,001,101141,
AFNE01.JPG,AFNE01.JPG,AFNE01.JPG,AFNE01.JPG,AFNE01.JPG,AFNE01.JPG,,,,,2,7,27,0,,,,,,,,,,,,,,,,,,,AMSA12.jpg,AMNE17.jpg,AMNE11.jpg,AMSA11.jpg,AMSA12.jpg,MS,2,num_8,32,num_2,1.48342014151,,,2017_Aug_14_1217,60.0034064871,FEMA4ImagesEEG,001,101141,
AFNE01.JPG,AFNE01.JPG,AFNE01.JPG,AFNE01.JPG,AFNE01.JPG,AFNE01.JPG,,,,,2,8,28,3,,,,,,,,,,,,,,,,,,,AMNE14.jpg,AMNE05.jpg,AMSA15.jpg,AMSA17.jpg,AMNE05.jpg,MN,1,num_6,16,num_6,0.750362837221,,,2017_Aug_14_1217,60.0034064871,FEMA4ImagesEEG,001,101141,
AFNE01.JPG,AFNE01.JPG,AFNE01.JPG,AFNE01.JPG,AFNE01.JPG,AFNE01.JPG,,,,,2,9,29,5,,,,,,,,,,,,,,,,,,,AMNE10.jpg,AMSA04.jpg,AMSA16.jpg,AMNE07.jpg,AMSA04.jpg,MS,2,num_6,16,num_6,1.01706690202,,,2017_Aug_14_1217,60.0034064871,FEMA4ImagesEEG,001,101141,
AFNE01.JPG,AFNE01.JPG,AFNE01.JPG,AFNE01.JPG,AFNE01.JPG,AFNE01.JPG,,,,,3,0,30,7,,,,,,,,,,,,,,,,,,,AMNE20.jpg,AMSA15.jpg,AMNE17.jpg,AMSA02.jpg,AMSA15.jpg,MS,2,num_6,32,num_2,1.21674494306,,,2017_Aug_14_1217,60.0034064871,FEMA4ImagesEEG,001,101141,
AFNE01.JPG,AFNE01.JPG,AFNE01.JPG,AFNE01.JPG,AFNE01.JPG,AFNE01.JPG,,,,,3,1,31,9,,,,,,,,,,,,,,,,,,,AMSA13.jpg,AMSA02.jpg,AMNE05.jpg,AMNE10.jpg,AMSA02.jpg,MS,2,num_6,32,num_2,2.41667412408,,,2017_Aug_14_1217,60.0034064871,FEMA4ImagesEEG,001,101141,
AFNE01.JPG,AFNE01.JPG,AFNE01.JPG,AFNE01.JPG,AFNE01.JPG,AFNE01.JPG,,,,,3,2,32,6,,,,,,,,,,,,,,,,,,,AMSA14.jpg,AMNE18.jpg,AMNE10.jpg,AMSA15.jpg,AMSA14.jpg,MS,2,num_8,32,num_2,2.00007505296,,,2017_Aug_14_1217,60.0034064871,FEMA4ImagesEEG,001,101141,
AFNE01.JPG,AFNE01.JPG,AFNE01.JPG,AFNE01.JPG,AFNE01.JPG,AFNE01.JPG,,,,,3,3,33,8,,,,,,,,,,,,,,,,,,,AMSA18.jpg,AMNE12.jpg,AMNE17.jpg,AMSA19.jpg,AMSA18.jpg,MS,2,num_8,16,num_8,0.466814784333,,,2017_Aug_14_1217,60.0034064871,FEMA4ImagesEEG,001,101141,
AFNE01.JPG,AFNE01.JPG,AFNE01.JPG,AFNE01.JPG,AFNE01.JPG,AFNE01.JPG,,,,,3,4,34,3,,,,,,,,,,,,,,,,,,,AMSA19.jpg,AMNE19.jpg,AMNE16.jpg,AMSA20.jpg,AMSA19.jpg,MS,2,num_8,32,num_4,0.516780321021,,,2017_Aug_14_1217,60.0034064871,FEMA4ImagesEEG,001,101141,
AFNE01.JPG,AFNE01.JPG,AFNE01.JPG,AFNE01.JPG,AFNE01.JPG,AFNE01.JPG,,,,,3,5,35,2,,,,,,,,,,,,,,,,,,,AMNE17.jpg,AMSA12.jpg,AMSA04.jpg,AMNE12.jpg,AMNE17.jpg,MN,1,num_8,32,num_6,1.83336524712,,,2017_Aug_14_1217,60.0034064871,FEMA4ImagesEEG,001,101141,
AFNE01.JPG,AFNE01.JPG,AFNE01.JPG,AFNE01.JPG,AFNE01.JPG,AFNE01.JPG,,,,,3,6,36,1,,,,,,,,,,,,,,,,,,,AMNE03.jpg,AMSA01.jpg,AMNE06.jpg,AMSA13.jpg,AMNE03.jpg,MN,1,num_8,32,num_6,0.950144798029,,,2017_Aug_14_1217,60.0034064871,FEMA4ImagesEEG,001,101141,
AFNE01.JPG,AFNE01.JPG,AFNE01.JPG,AFNE01.JPG,AFNE01.JPG,AFNE01.JPG,,,,,3,7,37,4,,,,,,,,,,,,,,,,,,,AMNE14.jpg,AMNE15.jpg,AMSA06.jpg,AMSA16.jpg,AMNE14.jpg,MN,1,num_8,32,num_2,1.33346804418,,,2017_Aug_14_1217,60.0034064871,FEMA4ImagesEEG,001,101141,
AFNE01.JPG,AFNE01.JPG,AFNE01.JPG,AFNE01.JPG,AFNE01.JPG,AFNE01.JPG,,,,,3,8,38,0,,,,,,,,,,,,,,,,,,,AMNE01.jpg,AMSA06.jpg,AMSA14.jpg,AMNE13.jpg,AMSA14.jpg,MS,2,num_2,16,num_2,2.16672584321,,,2017_Aug_14_1217,60.0034064871,FEMA4ImagesEEG,001,101141,
AFNE01.JPG,AFNE01.JPG,AFNE01.JPG,AFNE01.JPG,AFNE01.JPG,AFNE01.JPG,,,,,3,9,39,5,,,,,,,,,,,,,,,,,,,AMSA07.jpg,AMNE06.jpg,AMSA05.jpg,AMNE12.jpg,AMSA07.jpg,MS,2,num_8,16,num_8,0.450200767256,,,2017_Aug_14_1217,60.0034064871,FEMA4ImagesEEG,001,101141,
AFNE01.JPG,AFNE01.JPG,AFNE01.JPG,AFNE01.JPG,AFNE01.JPG,AFNE01.JPG,,,,,4,0,40,8,,,,,,,,,,,,,,,,,,,AMNE13.jpg,AMSA20.jpg,AMNE11.jpg,AMSA17.jpg,AMNE13.jpg,MN,1,num_8,32,num_2,2.01672403095,,,2017_Aug_14_1217,60.0034064871,FEMA4ImagesEEG,001,101141,
AFNE01.JPG,AFNE01.JPG,AFNE01.JPG,AFNE01.JPG,AFNE01.JPG,AFNE01.JPG,,,,,4,1,41,9,,,,,,,,,,,,,,,,,,,AMSA17.jpg,AMSA06.jpg,AMNE02.jpg,AMNE05.jpg,AMNE05.jpg,MN,1,num_4,32,num_2,1.85016593477,,,2017_Aug_14_1217,60.0034064871,FEMA4ImagesEEG,001,101141,
AFNE01.JPG,AFNE01.JPG,AFNE01.JPG,AFNE01.JPG,AFNE01.JPG,AFNE01.JPG,,,,,4,2,42,4,,,,,,,,,,,,,,,,,,,AMNE02.jpg,AMSA05.jpg,AMNE13.jpg,AMSA09.jpg,AMSA09.jpg,MS,2,num_4,16,num_4,0.583529545926,,,2017_Aug_14_1217,60.0034064871,FEMA4ImagesEEG,001,101141,
AFNE01.JPG,AFNE01.JPG,AFNE01.JPG,AFNE01.JPG,AFNE01.JPG,AFNE01.JPG,,,,,4,3,43,0,,,,,,,,,,,,,,,,,,,AMNE12.jpg,AMSA11.jpg,AMSA16.jpg,AMNE08.jpg,AMNE08.jpg,MN,1,num_4,32,num_2,1.28347139573,,,2017_Aug_14_1217,60.0034064871,FEMA4ImagesEEG,001,101141,
AFNE01.JPG,AFNE01.JPG,AFNE01.JPG,AFNE01.JPG,AFNE01.JPG,AFNE01.JPG,,,,,4,4,44,2,,,,,,,,,,,,,,,,,,,AMNE17.jpg,AMNE08.jpg,AMSA01.jpg,AMSA06.jpg,AMSA06.jpg,MS,2,num_4,32,num_8,2.18330393732,,,2017_Aug_14_1217,60.0034064871,FEMA4ImagesEEG,001,101141,
AFNE01.JPG,AFNE01.JPG,AFNE01.JPG,AFNE01.JPG,AFNE01.JPG,AFNE01.JPG,,,,,4,5,45,1,,,,,,,,,,,,,,,,,,,AMNE10.jpg,AMSA06.jpg,AMSA05.jpg,AMNE18.jpg,AMSA05.jpg,MS,2,num_2,16,num_2,1.51671777666,,,2017_Aug_14_1217,60.0034064871,FEMA4ImagesEEG,001,101141,
AFNE01.JPG,AFNE01.JPG,AFNE01.JPG,AFNE01.JPG,AFNE01.JPG,AFNE01.JPG,,,,,4,6,46,7,,,,,,,,,,,,,,,,,,,AMSA03.jpg,AMNE13.jpg,AMNE14.jpg,AMSA19.jpg,AMNE13.jpg,MN,1,num_6,32,num_8,1.18345821323,,,2017_Aug_14_1217,60.0034064871,FEMA4ImagesEEG,001,101141,
AFNE01.JPG,AFNE01.JPG,AFNE01.JPG,AFNE01.JPG,AFNE01.JPG,AFNE01.JPG,,,,,4,7,47,5,,,,,,,,,,,,,,,,,,,AMNE02.jpg,AMNE13.jpg,AMSA06.jpg,AMSA18.jpg,AMNE13.jpg,MN,1,num_6,32,num_2,1.60002104053,,,2017_Aug_14_1217,60.0034064871,FEMA4ImagesEEG,001,101141,
AFNE01.JPG,AFNE01.JPG,AFNE01.JPG,AFNE01.JPG,AFNE01.JPG,AFNE01.JPG,,,,,4,8,48,6,,,,,,,,,,,,,,,,,,,AMNE02.jpg,AMNE14.jpg,AMSA07.jpg,AMSA18.jpg,AMNE02.jpg,MN,1,num_8,32,num_6,1.76671737572,,,2017_Aug_14_1217,60.0034064871,FEMA4ImagesEEG,001,101141,
AFNE01.JPG,AFNE01.JPG,AFNE01.JPG,AFNE01.JPG,AFNE01.JPG,AFNE01.JPG,,,,,4,9,49,3,,,,,,,,,,,,,,,,,,,AMNE17.jpg,AMSA14.jpg,AMSA19.jpg,AMNE08.jpg,AMSA19.jpg,MS,2,num_2,32,num_6,0.816823717207,,,2017_Aug_14_1217,60.0034064871,FEMA4ImagesEEG,001,101141,
AFNE01.JPG,AFNE01.JPG,AFNE01.JPG,AFNE01.JPG,AFNE01.JPG,AFNE01.JPG,,,,,5,0,50,3,,,,,,,,,,,,,,,,,,,AMSA15.jpg,AMNE01.jpg,AMSA13.jpg,AMNE05.jpg,AMSA13.jpg,MS,2,num_2,32,num_4,0.833450884558,,,2017_Aug_14_1217,60.0034064871,FEMA4ImagesEEG,001,101141,
AFNE01.JPG,AFNE01.JPG,AFNE01.JPG,AFNE01.JPG,AFNE01.JPG,AFNE01.JPG,,,,,5,1,51,5,,,,,,,,,,,,,,,,,,,AMNE02.jpg,AMSA08.jpg,AMNE14.jpg,AMSA13.jpg,AMSA13.jpg,MS,2,num_4,32,num_2,1.38339990331,,,2017_Aug_14_1217,60.0034064871,FEMA4ImagesEEG,001,101141,
AFNE01.JPG,AFNE01.JPG,AFNE01.JPG,AFNE01.JPG,AFNE01.JPG,AFNE01.JPG,,,,,5,2,52,4,,,,,,,,,,,,,,,,,,,AMSA11.jpg,AMNE16.jpg,AMSA07.jpg,AMNE04.jpg,AMSA11.jpg,MS,2,num_8,32,num_2,1.16671333462,,,2017_Aug_14_1217,60.0034064871,FEMA4ImagesEEG,001,101141,
AFNE01.JPG,AFNE01.JPG,AFNE01.JPG,AFNE01.JPG,AFNE01.JPG,AFNE01.JPG,,,,,5,3,53,8,,,,,,,,,,,,,,,,,,,AMSA03.jpg,AMNE13.jpg,AMSA07.jpg,AMNE10.jpg,AMSA03.jpg,MS,2,num_8,32,num_4,1.10010266863,,,2017_Aug_14_1217,60.0034064871,FEMA4ImagesEEG,001,101141,
AFNE01.JPG,AFNE01.JPG,AFNE01.JPG,AFNE01.JPG,AFNE01.JPG,AFNE01.JPG,,,,,5,4,54,0,,,,,,,,,,,,,,,,,,,AMNE12.jpg,AMSA10.jpg,AMNE03.jpg,AMSA01.jpg,AMNE03.jpg,MN,1,num_2,16,num_2,1.58340926887,,,2017_Aug_14_1217,60.0034064871,FEMA4ImagesEEG,001,101141,
AFNE01.JPG,AFNE01.JPG,AFNE01.JPG,AFNE01.JPG,AFNE01.JPG,AFNE01.JPG,,,,,5,5,55,9,,,,,,,,,,,,,,,,,,,AMSA14.jpg,AMNE05.jpg,AMNE09.jpg,AMSA07.jpg,AMNE09.jpg,MN,1,num_2,16,num_2,1.11675774073,,,2017_Aug_14_1217,60.0034064871,FEMA4ImagesEEG,001,101141,
AFNE01.JPG,AFNE01.JPG,AFNE01.JPG,AFNE01.JPG,AFNE01.JPG,AFNE01.JPG,,,,,5,6,56,7,,,,,,,,,,,,,,,,,,,AMNE20.jpg,AMSA06.jpg,AMSA03.jpg,AMNE06.jpg,AMNE20.jpg,MN,1,num_8,32,num_4,0.683475052472,,,2017_Aug_14_1217,60.0034064871,FEMA4ImagesEEG,001,101141,
AFNE01.JPG,AFNE01.JPG,AFNE01.JPG,AFNE01.JPG,AFNE01.JPG,AFNE01.JPG,,,,,5,7,57,6,,,,,,,,,,,,,,,,,,,AMSA18.jpg,AMNE03.jpg,AMNE15.jpg,AMSA14.jpg,AMNE15.jpg,MN,1,num_2,16,num_2,1.23345999373,,,2017_Aug_14_1217,60.0034064871,FEMA4ImagesEEG,001,101141,
AFNE01.JPG,AFNE01.JPG,AFNE01.JPG,AFNE01.JPG,AFNE01.JPG,AFNE01.JPG,,,,,5,8,58,1,,,,,,,,,,,,,,,,,,,AMNE18.jpg,AMNE07.jpg,AMSA10.jpg,AMSA20.jpg,AMNE07.jpg,MN,1,num_6,32,num_4,1.25037326105,,,2017_Aug_14_1217,60.0034064871,FEMA4ImagesEEG,001,101141,
AFNE01.JPG,AFNE01.JPG,AFNE01.JPG,AFNE01.JPG,AFNE01.JPG,AFNE01.JPG,,,,,5,9,59,2,,,,,,,,,,,,,,,,,,,AMNE18.jpg,AMSA04.jpg,AMNE03.jpg,AMSA19.jpg,AMSA04.jpg,MS,2,num_6,16,num_6,0.783410615753,,,2017_Aug_14_1217,60.0034064871,FEMA4ImagesEEG,001,101141,
,,,,,,,,,,,,,,,,,,,,,,,,,,,,,,,,,,,,,,,,,,,space,15.7659533727,2017_Aug_14_1217,60.0034064871,FEMA4ImagesEEG,001,101141,
AFNE01.JPG,AFNE01.JPG,AFNE01.JPG,AFNE01.JPG,AFNE01.JPG,AFNE01.JPG,,,,,,,,,0,0,0,9,,,,,,,,,,,,,,,AFNE15.jpg,AFNE12.jpg,AFSA01.jpg,AFSA08.jpg,AFSA08.jpg,FS,4,num_4,32,num_2,1.35016737832,,,2017_Aug_14_1217,60.0034064871,FEMA4ImagesEEG,001,101141,
AFNE01.JPG,AFNE01.JPG,AFNE01.JPG,AFNE01.JPG,AFNE01.JPG,AFNE01.JPG,,,,,,,,,0,1,1,2,,,,,,,,,,,,,,,AFNE08.jpg,AFSA09.jpg,AFNE10.jpg,AFSA19.jpg,AFNE10.jpg,FN,3,num_2,16,num_2,1.26667551929,,,2017_Aug_14_1217,60.0034064871,FEMA4ImagesEEG,001,101141,
AFNE01.JPG,AFNE01.JPG,AFNE01.JPG,AFNE01.JPG,AFNE01.JPG,AFNE01.JPG,,,,,,,,,0,2,2,5,,,,,,,,,,,,,,,AFSA14.jpg,AFNE05.jpg,AFNE12.jpg,AFSA06.jpg,AFSA06.jpg,FS,4,num_4,16,num_4,1.03352215327,,,2017_Aug_14_1217,60.0034064871,FEMA4ImagesEEG,001,101141,
AFNE01.JPG,AFNE01.JPG,AFNE01.JPG,AFNE01.JPG,AFNE01.JPG,AFNE01.JPG,,,,,,,,,0,3,3,7,,,,,,,,,,,,,,,AFSA11.jpg,AFSA10.jpg,AFNE07.jpg,AFNE08.jpg,AFSA10.jpg,FS,4,num_6,32,num_2,1.05012654793,,,2017_Aug_14_1217,60.0034064871,FEMA4ImagesEEG,001,101141,
AFNE01.JPG,AFNE01.JPG,AFNE01.JPG,AFNE01.JPG,AFNE01.JPG,AFNE01.JPG,,,,,,,,,0,4,4,6,,,,,,,,,,,,,,,AFSA04.jpg,AFNE10.jpg,AFNE11.jpg,AFSA06.jpg,AFNE10.jpg,FN,3,num_6,16,num_6,0.583503566217,,,2017_Aug_14_1217,60.0034064871,FEMA4ImagesEEG,001,101141,
AFNE01.JPG,AFNE01.JPG,AFNE01.JPG,AFNE01.JPG,AFNE01.JPG,AFNE01.JPG,,,,,,,,,0,5,5,3,,,,,,,,,,,,,,,AFSA05.jpg,AFNE17.jpg,AFSA18.jpg,AFNE19.jpg,AFSA05.jpg,FS,4,num_8,32,num_4,1.23343337234,,,2017_Aug_14_1217,60.0034064871,FEMA4ImagesEEG,001,101141,
AFNE01.JPG,AFNE01.JPG,AFNE01.JPG,AFNE01.JPG,AFNE01.JPG,AFNE01.JPG,,,,,,,,,0,6,6,0,,,,,,,,,,,,,,,AFSA02.jpg,AFNE05.jpg,AFSA15.jpg,AFNE19.jpg,AFNE19.jpg,FN,3,num_4,32,num_2,1.25016542152,,,2017_Aug_14_1217,60.0034064871,FEMA4ImagesEEG,001,101141,
AFNE01.JPG,AFNE01.JPG,AFNE01.JPG,AFNE01.JPG,AFNE01.JPG,AFNE01.JPG,,,,,,,,,0,7,7,1,,,,,,,,,,,,,,,AFNE08.jpg,AFSA06.jpg,AFNE04.jpg,AFSA01.jpg,AFNE04.jpg,FN,3,num_2,32,num_4,1.08348287828,,,2017_Aug_14_1217,60.0034064871,FEMA4ImagesEEG,001,101141,
AFNE01.JPG,AFNE01.JPG,AFNE01.JPG,AFNE01.JPG,AFNE01.JPG,AFNE01.JPG,,,,,,,,,0,8,8,8,,,,,,,,,,,,,,,AFSA01.jpg,AFNE12.jpg,AFSA04.jpg,AFNE06.jpg,AFSA04.jpg,FS,4,num_2,16,num_2,1.18343896884,,,2017_Aug_14_1217,60.0034064871,FEMA4ImagesEEG,001,101141,
AFNE01.JPG,AFNE01.JPG,AFNE01.JPG,AFNE01.JPG,AFNE01.JPG,AFNE01.JPG,,,,,,,,,0,9,9,4,,,,,,,,,,,,,,,AFSA05.jpg,AFSA04.jpg,AFNE17.jpg,AFNE13.jpg,AFSA04.jpg,FS,4,num_6,32,num_4,0.816733268555,,,2017_Aug_14_1217,60.0034064871,FEMA4ImagesEEG,001,101141,
AFNE01.JPG,AFNE01.JPG,AFNE01.JPG,AFNE01.JPG,AFNE01.JPG,AFNE01.JPG,,,,,,,,,1,0,10,4,,,,,,,,,,,,,,,AFSA05.jpg,AFNE13.jpg,AFSA17.jpg,AFNE20.jpg,AFNE13.jpg,FN,3,num_6,32,num_2,1.75007737847,,,2017_Aug_14_1217,60.0034064871,FEMA4ImagesEEG,001,101141,
AFNE01.JPG,AFNE01.JPG,AFNE01.JPG,AFNE01.JPG,AFNE01.JPG,AFNE01.JPG,,,,,,,,,1,1,11,0,,,,,,,,,,,,,,,AFNE05.jpg,AFNE15.jpg,AFSA08.jpg,AFSA16.jpg,AFNE15.jpg,FN,3,num_6,16,num_6,0.70015289681,,,2017_Aug_14_1217,60.0034064871,FEMA4ImagesEEG,001,101141,
AFNE01.JPG,AFNE01.JPG,AFNE01.JPG,AFNE01.JPG,AFNE01.JPG,AFNE01.JPG,,,,,,,,,1,2,12,1,,,,,,,,,,,,,,,AFSA04.jpg,AFSA11.jpg,AFNE18.jpg,AFNE03.jpg,AFSA11.jpg,FS,4,num_6,32,num_4,0.950193230063,,,2017_Aug_14_1217,60.0034064871,FEMA4ImagesEEG,001,101141,
AFNE01.JPG,AFNE01.JPG,AFNE01.JPG,AFNE01.JPG,AFNE01.JPG,AFNE01.JPG,,,,,,,,,1,3,13,3,,,,,,,,,,,,,,,AFNE08.jpg,AFSA07.jpg,AFNE11.jpg,AFSA13.jpg,AFSA13.jpg,FS,4,num_4,16,num_4,0.966856320389,,,2017_Aug_14_1217,60.0034064871,FEMA4ImagesEEG,001,101141,
AFNE01.JPG,AFNE01.JPG,AFNE01.JPG,AFNE01.JPG,AFNE01.JPG,AFNE01.JPG,,,,,,,,,1,4,14,2,,,,,,,,,,,,,,,AFSA15.jpg,AFNE02.jpg,AFSA16.jpg,AFNE06.jpg,AFNE06.jpg,FN,3,num_4,32,num_2,1.93343070988,,,2017_Aug_14_1217,60.0034064871,FEMA4ImagesEEG,001,101141,
AFNE01.JPG,AFNE01.JPG,AFNE01.JPG,AFNE01.JPG,AFNE01.JPG,AFNE01.JPG,,,,,,,,,1,5,15,6,,,,,,,,,,,,,,,AFNE03.jpg,AFNE08.jpg,AFSA01.jpg,AFSA14.jpg,AFSA14.jpg,FS,4,num_4,16,num_4,1.49987250566,,,2017_Aug_14_1217,60.0034064871,FEMA4ImagesEEG,001,101141,
AFNE01.JPG,AFNE01.JPG,AFNE01.JPG,AFNE01.JPG,AFNE01.JPG,AFNE01.JPG,,,,,,,,,1,6,16,9,,,,,,,,,,,,,,,AFNE18.jpg,AFNE17.jpg,AFSA01.jpg,AFSA06.jpg,AFSA01.jpg,FS,4,num_2,16,num_2,1.13343109516,,,2017_Aug_14_1217,60.0034064871,FEMA4ImagesEEG,001,101141,
AFNE01.JPG,AFNE01.JPG,AFNE01.JPG,AFNE01.JPG,AFNE01.JPG,AFNE01.JPG,,,,,,,,,1,7,17,8,,,,,,,,,,,,,,,AFNE01.jpg,AFNE02.jpg,AFSA05.jpg,AFSA04.jpg,AFNE01.jpg,FN,3,num_8,32,num_6,1.11687320704,,,2017_Aug_14_1217,60.0034064871,FEMA4ImagesEEG,001,101141,
AFNE01.JPG,AFNE01.JPG,AFNE01.JPG,AFNE01.JPG,AFNE01.JPG,AFNE01.JPG,,,,,,,,,1,8,18,7,,,,,,,,,,,,,,,AFNE07.jpg,AFSA10.jpg,AFSA14.jpg,AFNE17.jpg,AFSA14.jpg,FS,4,num_2,32,num_6,0.683466392569,,,2017_Aug_14_1217,60.0034064871,FEMA4ImagesEEG,001,101141,
AFNE01.JPG,AFNE01.JPG,AFNE01.JPG,AFNE01.JPG,AFNE01.JPG,AFNE01.JPG,,,,,,,,,1,9,19,5,,,,,,,,,,,,,,,AFNE06.jpg,AFNE15.jpg,AFSA08.jpg,AFSA02.jpg,AFNE15.jpg,FN,3,num_6,32,num_2,1.73346656887,,,2017_Aug_14_1217,60.0034064871,FEMA4ImagesEEG,001,101141,
AFNE01.JPG,AFNE01.JPG,AFNE01.JPG,AFNE01.JPG,AFNE01.JPG,AFNE01.JPG,,,,,,,,,2,0,20,2,,,,,,,,,,,,,,,AFNE18.jpg,AFNE19.jpg,AFSA20.jpg,AFSA19.jpg,AFNE19.jpg,FN,3,num_6,16,num_6,0.983487336896,,,2017_Aug_14_1217,60.0034064871,FEMA4ImagesEEG,001,101141,
AFNE01.JPG,AFNE01.JPG,AFNE01.JPG,AFNE01.JPG,AFNE01.JPG,AFNE01.JPG,,,,,,,,,2,1,21,7,,,,,,,,,,,,,,,AFNE09.jpg,AFNE12.jpg,AFSA08.jpg,AFSA04.jpg,AFNE09.jpg,FN,3,num_8,32,num_4,1.4334581336,,,2017_Aug_14_1217,60.0034064871,FEMA4ImagesEEG,001,101141,
AFNE01.JPG,AFNE01.JPG,AFNE01.JPG,AFNE01.JPG,AFNE01.JPG,AFNE01.JPG,,,,,,,,,2,2,22,0,,,,,,,,,,,,,,,AFNE11.jpg,AFSA06.jpg,AFNE18.jpg,AFSA13.jpg,AFNE18.jpg,FN,3,num_2,32,num_8,0.833558332641,,,2017_Aug_14_1217,60.0034064871,FEMA4ImagesEEG,001,101141,
AFNE01.JPG,AFNE01.JPG,AFNE01.JPG,AFNE01.JPG,AFNE01.JPG,AFNE01.JPG,,,,,,,,,2,3,23,4,,,,,,,,,,,,,,,AFSA10.jpg,AFNE03.jpg,AFSA18.jpg,AFNE02.jpg,AFSA10.jpg,FS,4,num_8,16,num_8,0.750150186941,,,2017_Aug_14_1217,60.0034064871,FEMA4ImagesEEG,001,101141,
AFNE01.JPG,AFNE01.JPG,AFNE01.JPG,AFNE01.JPG,AFNE01.JPG,AFNE01.JPG,,,,,,,,,2,4,24,3,,,,,,,,,,,,,,,AFSA15.jpg,AFNE11.jpg,AFNE07.jpg,AFSA11.jpg,AFNE11.jpg,FN,3,num_6,16,num_6,1.08334207349,,,2017_Aug_14_1217,60.0034064871,FEMA4ImagesEEG,001,101141,
AFNE01.JPG,AFNE01.JPG,AFNE01.JPG,AFNE01.JPG,AFNE01.JPG,AFNE01.JPG,,,,,,,,,2,5,25,9,,,,,,,,,,,,,,,AFSA17.jpg,AFNE08.jpg,AFNE12.jpg,AFSA10.jpg,AFSA17.jpg,FS,4,num_8,32,num_2,2.20013252972,,,2017_Aug_14_1217,60.0034064871,FEMA4ImagesEEG,001,101141,
AFNE01.JPG,AFNE01.JPG,AFNE01.JPG,AFNE01.JPG,AFNE01.JPG,AFNE01.JPG,,,,,,,,,2,6,26,6,,,,,,,,,,,,,,,AFSA04.jpg,AFNE11.jpg,AFNE10.jpg,AFSA08.jpg,AFNE10.jpg,FN,3,num_2,32,num_8,1.166786463,,,2017_Aug_14_1217,60.0034064871,FEMA4ImagesEEG,001,101141,
AFNE01.JPG,AFNE01.JPG,AFNE01.JPG,AFNE01.JPG,AFNE01.JPG,AFNE01.JPG,,,,,,,,,2,7,27,5,,,,,,,,,,,,,,,AFSA13.jpg,AFSA06.jpg,AFNE01.jpg,AFNE16.jpg,AFSA13.jpg,FS,4,num_8,32,num_4,0.666850450914,,,2017_Aug_14_1217,60.0034064871,FEMA4ImagesEEG,001,101141,
AFNE01.JPG,AFNE01.JPG,AFNE01.JPG,AFNE01.JPG,AFNE01.JPG,AFNE01.JPG,,,,,,,,,2,8,28,8,,,,,,,,,,,,,,,AFNE06.jpg,AFNE07.jpg,AFSA13.jpg,AFSA11.jpg,AFSA11.jpg,FS,4,num_4,32,num_2,0.533500502817,,,2017_Aug_14_1217,60.0034064871,FEMA4ImagesEEG,001,101141,
AFNE01.JPG,AFNE01.JPG,AFNE01.JPG,AFNE01.JPG,AFNE01.JPG,AFNE01.JPG,,,,,,,,,2,9,29,1,,,,,,,,,,,,,,,AFSA17.jpg,AFNE12.jpg,AFNE14.jpg,AFSA09.jpg,AFNE12.jpg,FN,3,num_6,16,num_6,0.433487641159,,,2017_Aug_14_1217,60.0034064871,FEMA4ImagesEEG,001,101141,
AFNE01.JPG,AFNE01.JPG,AFNE01.JPG,AFNE01.JPG,AFNE01.JPG,AFNE01.JPG,,,,,,,,,3,0,30,5,,,,,,,,,,,,,,,AFSA04.jpg,AFNE19.jpg,AFSA02.jpg,AFNE08.jpg,AFSA02.jpg,FS,4,num_2,32,num_4,0.800158381462,,,2017_Aug_14_1217,60.0034064871,FEMA4ImagesEEG,001,101141,
AFNE01.JPG,AFNE01.JPG,AFNE01.JPG,AFNE01.JPG,AFNE01.JPG,AFNE01.JPG,,,,,,,,,3,1,31,1,,,,,,,,,,,,,,,AFNE10.jpg,AFSA13.jpg,AFNE03.jpg,AFSA11.jpg,AFSA13.jpg,FS,4,num_6,32,num_4,0.666780850384,,,2017_Aug_14_1217,60.0034064871,FEMA4ImagesEEG,001,101141,
AFNE01.JPG,AFNE01.JPG,AFNE01.JPG,AFNE01.JPG,AFNE01.JPG,AFNE01.JPG,,,,,,,,,3,2,32,7,,,,,,,,,,,,,,,AFSA10.jpg,AFNE18.jpg,AFNE16.jpg,AFSA11.jpg,AFNE18.jpg,FN,3,num_6,32,num_2,1.3501879056,,,2017_Aug_14_1217,60.0034064871,FEMA4ImagesEEG,001,101141,
AFNE01.JPG,AFNE01.JPG,AFNE01.JPG,AFNE01.JPG,AFNE01.JPG,AFNE01.JPG,,,,,,,,,3,3,33,9,,,,,,,,,,,,,,,AFNE08.jpg,AFSA20.jpg,AFSA12.jpg,AFNE14.jpg,AFSA20.jpg,FS,4,num_6,32,num_8,0.816777851433,,,2017_Aug_14_1217,60.0034064871,FEMA4ImagesEEG,001,101141,
AFNE01.JPG,AFNE01.JPG,AFNE01.JPG,AFNE01.JPG,AFNE01.JPG,AFNE01.JPG,,,,,,,,,3,4,34,8,,,,,,,,,,,,,,,AFSA19.jpg,AFNE10.jpg,AFNE19.jpg,AFSA07.jpg,AFNE10.jpg,FN,3,num_6,16,num_6,0.866840571631,,,2017_Aug_14_1217,60.0034064871,FEMA4ImagesEEG,001,101141,
AFNE01.JPG,AFNE01.JPG,AFNE01.JPG,AFNE01.JPG,AFNE01.JPG,AFNE01.JPG,,,,,,,,,3,5,35,0,,,,,,,,,,,,,,,AFSA01.jpg,AFNE16.jpg,AFNE08.jpg,AFSA08.jpg,AFSA08.jpg,FS,4,num_4,16,num_4,1.30007963954,,,2017_Aug_14_1217,60.0034064871,FEMA4ImagesEEG,001,101141,
AFNE01.JPG,AFNE01.JPG,AFNE01.JPG,AFNE01.JPG,AFNE01.JPG,AFNE01.JPG,,,,,,,,,3,6,36,4,,,,,,,,,,,,,,,AFNE01.jpg,AFSA14.jpg,AFNE04.jpg,AFSA10.jpg,AFSA14.jpg,FS,4,num_6,32,num_2,1.2001062287,,,2017_Aug_14_1217,60.0034064871,FEMA4ImagesEEG,001,101141,
AFNE01.JPG,AFNE01.JPG,AFNE01.JPG,AFNE01.JPG,AFNE01.JPG,AFNE01.JPG,,,,,,,,,3,7,37,6,,,,,,,,,,,,,,,AFNE09.jpg,AFSA19.jpg,AFNE08.jpg,AFSA04.jpg,AFSA19.jpg,FS,4,num_6,32,num_4,0.966741174459,,,2017_Aug_14_1217,60.0034064871,FEMA4ImagesEEG,001,101141,
AFNE01.JPG,AFNE01.JPG,AFNE01.JPG,AFNE01.JPG,AFNE01.JPG,AFNE01.JPG,,,,,,,,,3,8,38,2,,,,,,,,,,,,,,,AFNE12.jpg,AFNE09.jpg,AFSA02.jpg,AFSA09.jpg,AFSA09.jpg,FS,4,num_4,32,num_2,0.316848253831,,,2017_Aug_14_1217,60.0034064871,FEMA4ImagesEEG,001,101141,
AFNE01.JPG,AFNE01.JPG,AFNE01.JPG,AFNE01.JPG,AFNE01.JPG,AFNE01.JPG,,,,,,,,,3,9,39,3,,,,,,,,,,,,,,,AFNE08.jpg,AFSA17.jpg,AFNE01.jpg,AFSA20.jpg,AFNE08.jpg,FN,3,num_8,16,num_8,0.516860826872,,,2017_Aug_14_1217,60.0034064871,FEMA4ImagesEEG,001,101141,
AFNE01.JPG,AFNE01.JPG,AFNE01.JPG,AFNE01.JPG,AFNE01.JPG,AFNE01.JPG,,,,,,,,,4,0,40,4,,,,,,,,,,,,,,,AFSA02.jpg,AFNE16.jpg,AFSA06.jpg,AFNE19.jpg,AFNE16.jpg,FN,3,num_6,32,num_2,2.53342673276,,,2017_Aug_14_1217,60.0034064871,FEMA4ImagesEEG,001,101141,
AFNE01.JPG,AFNE01.JPG,AFNE01.JPG,AFNE01.JPG,AFNE01.JPG,AFNE01.JPG,,,,,,,,,4,1,41,1,,,,,,,,,,,,,,,AFSA10.jpg,AFSA11.jpg,AFNE10.jpg,AFNE06.jpg,AFNE10.jpg,FN,3,num_2,16,num_2,1.14996749302,,,2017_Aug_14_1217,60.0034064871,FEMA4ImagesEEG,001,101141,
AFNE01.JPG,AFNE01.JPG,AFNE01.JPG,AFNE01.JPG,AFNE01.JPG,AFNE01.JPG,,,,,,,,,4,2,42,7,,,,,,,,,,,,,,,AFSA04.jpg,AFSA11.jpg,AFNE08.jpg,AFNE01.jpg,AFSA04.jpg,FS,4,num_8,32,num_2,0.600210276898,,,2017_Aug_14_1217,60.0034064871,FEMA4ImagesEEG,001,101141,
AFNE01.JPG,AFNE01.JPG,AFNE01.JPG,AFNE01.JPG,AFNE01.JPG,AFNE01.JPG,,,,,,,,,4,3,43,3,,,,,,,,,,,,,,,AFNE16.jpg,AFSA08.jpg,AFSA10.jpg,AFNE03.jpg,AFSA10.jpg,FS,4,num_2,32,num_4,1.00010873098,,,2017_Aug_14_1217,60.0034064871,FEMA4ImagesEEG,001,101141,
AFNE01.JPG,AFNE01.JPG,AFNE01.JPG,AFNE01.JPG,AFNE01.JPG,AFNE01.JPG,,,,,,,,,4,4,44,2,,,,,,,,,,,,,,,AFSA03.jpg,AFNE12.jpg,AFNE14.jpg,AFSA14.jpg,AFNE14.jpg,FN,3,num_2,32,num_6,0.650176776107,,,2017_Aug_14_1217,60.0034064871,FEMA4ImagesEEG,001,101141,
AFNE01.JPG,AFNE01.JPG,AFNE01.JPG,AFNE01.JPG,AFNE01.JPG,AFNE01.JPG,,,,,,,,,4,5,45,8,,,,,,,,,,,,,,,AFSA06.jpg,AFNE20.jpg,AFSA11.jpg,AFNE19.jpg,AFSA06.jpg,FS,4,num_8,16,num_8,1.11676864605,,,2017_Aug_14_1217,60.0034064871,FEMA4ImagesEEG,001,101141,
AFNE01.JPG,AFNE01.JPG,AFNE01.JPG,AFNE01.JPG,AFNE01.JPG,AFNE01.JPG,,,,,,,,,4,6,46,0,,,,,,,,,,,,,,,AFNE12.jpg,AFSA04.jpg,AFNE10.jpg,AFSA01.jpg,AFNE10.jpg,FN,3,num_2,32,num_6,0.783480857965,,,2017_Aug_14_1217,60.0034064871,FEMA4ImagesEEG,001,101141,
AFNE01.JPG,AFNE01.JPG,AFNE01.JPG,AFNE01.JPG,AFNE01.JPG,AFNE01.JPG,,,,,,,,,4,7,47,5,,,,,,,,,,,,,,,AFSA03.jpg,AFNE19.jpg,AFSA10.jpg,AFNE14.jpg,AFNE14.jpg,FN,3,num_4,32,num_2,1.71677012136,,,2017_Aug_14_1217,60.0034064871,FEMA4ImagesEEG,001,101141,
AFNE01.JPG,AFNE01.JPG,AFNE01.JPG,AFNE01.JPG,AFNE01.JPG,AFNE01.JPG,,,,,,,,,4,8,48,6,,,,,,,,,,,,,,,AFNE06.jpg,AFSA20.jpg,AFSA02.jpg,AFNE18.jpg,AFSA02.jpg,FS,4,num_2,32,num_4,1.48339287844,,,2017_Aug_14_1217,60.0034064871,FEMA4ImagesEEG,001,101141,
AFNE01.JPG,AFNE01.JPG,AFNE01.JPG,AFNE01.JPG,AFNE01.JPG,AFNE01.JPG,,,,,,,,,4,9,49,9,,,,,,,,,,,,,,,AFSA18.jpg,AFNE11.jpg,AFSA02.jpg,AFNE05.jpg,AFSA18.jpg,FS,4,num_8,16,num_8,0.58351864107,,,2017_Aug_14_1217,60.0034064871,FEMA4ImagesEEG,001,101141,
AFNE01.JPG,AFNE01.JPG,AFNE01.JPG,AFNE01.JPG,AFNE01.JPG,AFNE01.JPG,,,,,,,,,5,0,50,1,,,,,,,,,,,,,,,AFSA07.jpg,AFSA09.jpg,AFNE09.jpg,AFNE16.jpg,AFSA09.jpg,FS,4,num_6,32,num_2,1.3000809229,,,2017_Aug_14_1217,60.0034064871,FEMA4ImagesEEG,001,101141,
AFNE01.JPG,AFNE01.JPG,AFNE01.JPG,AFNE01.JPG,AFNE01.JPG,AFNE01.JPG,,,,,,,,,5,1,51,4,,,,,,,,,,,,,,,AFSA14.jpg,AFNE13.jpg,AFSA11.jpg,AFNE16.jpg,AFNE13.jpg,FN,3,num_6,32,num_2,1.03348975861,,,2017_Aug_14_1217,60.0034064871,FEMA4ImagesEEG,001,101141,
AFNE01.JPG,AFNE01.JPG,AFNE01.JPG,AFNE01.JPG,AFNE01.JPG,AFNE01.JPG,,,,,,,,,5,2,52,2,,,,,,,,,,,,,,,AFNE12.jpg,AFSA09.jpg,AFNE03.jpg,AFSA15.jpg,AFNE03.jpg,FN,3,num_2,16,num_2,1.56672276417,,,2017_Aug_14_1217,60.0034064871,FEMA4ImagesEEG,001,101141,
AFNE01.JPG,AFNE01.JPG,AFNE01.JPG,AFNE01.JPG,AFNE01.JPG,AFNE01.JPG,,,,,,,,,5,3,53,9,,,,,,,,,,,,,,,AFSA14.jpg,AFNE10.jpg,AFNE02.jpg,AFSA02.jpg,AFSA02.jpg,FS,4,num_4,32,num_2,0.86683672294,,,2017_Aug_14_1217,60.0034064871,FEMA4ImagesEEG,001,101141,
AFNE01.JPG,AFNE01.JPG,AFNE01.JPG,AFNE01.JPG,AFNE01.JPG,AFNE01.JPG,,,,,,,,,5,4,54,7,,,,,,,,,,,,,,,AFNE10.jpg,AFNE15.jpg,AFSA06.jpg,AFSA08.jpg,AFSA06.jpg,FS,4,num_2,32,num_6,1.01681415876,,,2017_Aug_14_1217,60.0034064871,FEMA4ImagesEEG,001,101141,
AFNE01.JPG,AFNE01.JPG,AFNE01.JPG,AFNE01.JPG,AFNE01.JPG,AFNE01.JPG,,,,,,,,,5,5,55,6,,,,,,,,,,,,,,,AFNE12.jpg,AFSA01.jpg,AFSA09.jpg,AFNE18.jpg,AFNE12.jpg,FN,3,num_8,32,num_2,1.11675325036,,,2017_Aug_14_1217,60.0034064871,FEMA4ImagesEEG,001,101141,
AFNE01.JPG,AFNE01.JPG,AFNE01.JPG,AFNE01.JPG,AFNE01.JPG,AFNE01.JPG,,,,,,,,,5,6,56,5,,,,,,,,,,,,,,,AFSA11.jpg,AFNE11.jpg,AFSA09.jpg,AFNE16.jpg,AFNE16.jpg,FN,3,num_4,32,num_2,1.28343579359,,,2017_Aug_14_1217,60.0034064871,FEMA4ImagesEEG,001,101141,
AFNE01.JPG,AFNE01.JPG,AFNE01.JPG,AFNE01.JPG,AFNE01.JPG,AFNE01.JPG,,,,,,,,,5,7,57,0,,,,,,,,,,,,,,,AFNE10.jpg,AFSA11.jpg,AFNE13.jpg,AFSA03.jpg,AFSA11.jpg,FS,4,num_6,16,num_6,0.666800735984,,,2017_Aug_14_1217,60.0034064871,FEMA4ImagesEEG,001,101141,
AFNE01.JPG,AFNE01.JPG,AFNE01.JPG,AFNE01.JPG,AFNE01.JPG,AFNE01.JPG,,,,,,,,,5,8,58,8,,,,,,,,,,,,,,,AFNE10.jpg,AFNE04.jpg,AFSA15.jpg,AFSA13.jpg,AFSA15.jpg,FS,4,num_2,16,num_2,1.56677279947,,,2017_Aug_14_1217,60.0034064871,FEMA4ImagesEEG,001,101141,
AFNE01.JPG,AFNE01.JPG,AFNE01.JPG,AFNE01.JPG,AFNE01.JPG,AFNE01.JPG,,,,,,,,,5,9,59,3,,,,,,,,,,,,,,,AFNE06.jpg,AFSA04.jpg,AFNE20.jpg,AFSA18.jpg,AFSA04.jpg,FS,4,num_6,16,num_6,0.616850274615,,,2017_Aug_14_1217,60.0034064871,FEMA4ImagesEEG,001,101141,
,,,,,,,,,,,,,,,,,,,,,,,,,,,,,,,,,,,,,,,,,,,space,25.8485615929,2017_Aug_14_1217,60.0034064871,FEMA4ImagesEEG,001,101141,
AFNE01.JPG,AFNE01.JPG,AFNE01.JPG,AFNE01.JPG,AFNE01.JPG,AFNE01.JPG,,,,,,,,,,,,,0,0,0,1,,,,,,,,,,,AMSA02.jpg,AMNE10.jpg,AMSA05.jpg,AMNE20.jpg,AMNE10.jpg,MN,1,num_6,16,num_6,0.666815810837,,,2017_Aug_14_1217,60.0034064871,FEMA4ImagesEEG,001,101141,
AFNE01.JPG,AFNE01.JPG,AFNE01.JPG,AFNE01.JPG,AFNE01.JPG,AFNE01.JPG,,,,,,,,,,,,,0,1,1,0,,,,,,,,,,,AMSA12.jpg,AMSA01.jpg,AMNE02.jpg,AMNE18.jpg,AMNE18.jpg,MN,1,num_4,16,num_4,1.1666697138,,,2017_Aug_14_1217,60.0034064871,FEMA4ImagesEEG,001,101141,
AFNE01.JPG,AFNE01.JPG,AFNE01.JPG,AFNE01.JPG,AFNE01.JPG,AFNE01.JPG,,,,,,,,,,,,,0,2,2,4,,,,,,,,,,,AMNE09.jpg,AMSA06.jpg,AMSA01.jpg,AMNE11.jpg,AMNE11.jpg,MN,1,num_4,16,num_4,1.03345415602,,,2017_Aug_14_1217,60.0034064871,FEMA4ImagesEEG,001,101141,
AFNE01.JPG,AFNE01.JPG,AFNE01.JPG,AFNE01.JPG,AFNE01.JPG,AFNE01.JPG,,,,,,,,,,,,,0,3,3,8,,,,,,,,,,,AMSA12.jpg,AMNE20.jpg,AMNE16.jpg,AMSA11.jpg,AMNE20.jpg,MN,1,num_6,16,num_6,0.81676662527,,,2017_Aug_14_1217,60.0034064871,FEMA4ImagesEEG,001,101141,
AFNE01.JPG,AFNE01.JPG,AFNE01.JPG,AFNE01.JPG,AFNE01.JPG,AFNE01.JPG,,,,,,,,,,,,,0,4,4,9,,,,,,,,,,,AMSA03.jpg,AMNE05.jpg,AMSA08.jpg,AMNE13.jpg,AMSA08.jpg,MS,2,num_2,16,num_2,1.1000760477,,,2017_Aug_14_1217,60.0034064871,FEMA4ImagesEEG,001,101141,
AFNE01.JPG,AFNE01.JPG,AFNE01.JPG,AFNE01.JPG,AFNE01.JPG,AFNE01.JPG,,,,,,,,,,,,,0,5,5,2,,,,,,,,,,,AMSA17.jpg,AMSA19.jpg,AMNE12.jpg,AMNE13.jpg,AMNE12.jpg,MN,1,num_2,32,num_4,0.950127799064,,,2017_Aug_14_1217,60.0034064871,FEMA4ImagesEEG,001,101141,
AFNE01.JPG,AFNE01.JPG,AFNE01.JPG,AFNE01.JPG,AFNE01.JPG,AFNE01.JPG,,,,,,,,,,,,,0,6,6,7,,,,,,,,,,,AMNE04.jpg,AMSA05.jpg,AMSA09.jpg,AMNE17.jpg,AMSA09.jpg,MS,2,num_2,32,num_4,1.35010547517,,,2017_Aug_14_1217,60.0034064871,FEMA4ImagesEEG,001,101141,
AFNE01.JPG,AFNE01.JPG,AFNE01.JPG,AFNE01.JPG,AFNE01.JPG,AFNE01.JPG,,,,,,,,,,,,,0,7,7,3,,,,,,,,,,,AMSA01.jpg,AMNE18.jpg,AMSA19.jpg,AMNE06.jpg,AMNE06.jpg,MN,1,num_4,32,num_6,1.33369095856,,,2017_Aug_14_1217,60.0034064871,FEMA4ImagesEEG,001,101141,
AFNE01.JPG,AFNE01.JPG,AFNE01.JPG,AFNE01.JPG,AFNE01.JPG,AFNE01.JPG,,,,,,,,,,,,,0,8,8,6,,,,,,,,,,,AMSA19.jpg,AMNE06.jpg,AMNE07.jpg,AMSA18.jpg,AMNE07.jpg,MN,1,num_2,32,num_4,2.75005845493,,,2017_Aug_14_1217,60.0034064871,FEMA4ImagesEEG,001,101141,
AFNE01.JPG,AFNE01.JPG,AFNE01.JPG,AFNE01.JPG,AFNE01.JPG,AFNE01.JPG,,,,,,,,,,,,,0,9,9,5,,,,,,,,,,,AMNE15.jpg,AMSA12.jpg,AMNE17.jpg,AMSA03.jpg,AMNE15.jpg,MN,1,num_8,16,num_8,1.1834742506,,,2017_Aug_14_1217,60.0034064871,FEMA4ImagesEEG,001,101141,
AFNE01.JPG,AFNE01.JPG,AFNE01.JPG,AFNE01.JPG,AFNE01.JPG,AFNE01.JPG,,,,,,,,,,,,,1,0,10,3,,,,,,,,,,,AMNE02.jpg,AMSA02.jpg,AMSA07.jpg,AMNE13.jpg,AMSA02.jpg,MS,2,num_6,16,num_6,1.06678226124,,,2017_Aug_14_1217,60.0034064871,FEMA4ImagesEEG,001,101141,
AFNE01.JPG,AFNE01.JPG,AFNE01.JPG,AFNE01.JPG,AFNE01.JPG,AFNE01.JPG,,,,,,,,,,,,,1,1,11,0,,,,,,,,,,,AMNE09.jpg,AMNE02.jpg,AMSA13.jpg,AMSA20.jpg,AMNE02.jpg,MN,1,num_6,16,num_6,0.983426716644,,,2017_Aug_14_1217,60.0034064871,FEMA4ImagesEEG,001,101141,
AFNE01.JPG,AFNE01.JPG,AFNE01.JPG,AFNE01.JPG,AFNE01.JPG,AFNE01.JPG,,,,,,,,,,,,,1,2,12,6,,,,,,,,,,,AMSA10.jpg,AMNE04.jpg,AMNE17.jpg,AMSA07.jpg,AMNE17.jpg,MN,1,num_2,16,num_2,1.38343935413,,,2017_Aug_14_1217,60.0034064871,FEMA4ImagesEEG,001,101141,
AFNE01.JPG,AFNE01.JPG,AFNE01.JPG,AFNE01.JPG,AFNE01.JPG,AFNE01.JPG,,,,,,,,,,,,,1,3,13,7,,,,,,,,,,,AMSA09.jpg,AMNE11.jpg,AMNE03.jpg,AMSA10.jpg,AMSA09.jpg,MS,2,num_8,32,num_4,0.850028016604,,,2017_Aug_14_1217,60.0034064871,FEMA4ImagesEEG,001,101141,
AFNE01.JPG,AFNE01.JPG,AFNE01.JPG,AFNE01.JPG,AFNE01.JPG,AFNE01.JPG,,,,,,,,,,,,,1,4,14,5,,,,,,,,,,,AMNE12.jpg,AMNE11.jpg,AMSA02.jpg,AMSA15.jpg,AMSA02.jpg,MS,2,num_2,32,num_4,2.09971489385,,,2017_Aug_14_1217,60.0034064871,FEMA4ImagesEEG,001,101141,
AFNE01.JPG,AFNE01.JPG,AFNE01.JPG,AFNE01.JPG,AFNE01.JPG,AFNE01.JPG,,,,,,,,,,,,,1,5,15,1,,,,,,,,,,,AMSA04.jpg,AMSA08.jpg,AMNE12.jpg,AMNE19.jpg,AMSA08.jpg,MS,2,num_6,32,num_8,1.76670839498,,,2017_Aug_14_1217,60.0034064871,FEMA4ImagesEEG,001,101141,
AFNE01.JPG,AFNE01.JPG,AFNE01.JPG,AFNE01.JPG,AFNE01.JPG,AFNE01.JPG,,,,,,,,,,,,,1,6,16,4,,,,,,,,,,,AMSA01.jpg,AMSA16.jpg,AMNE13.jpg,AMNE09.jpg,AMNE09.jpg,MN,1,num_4,32,num_2,1.48341950029,,,2017_Aug_14_1217,60.0034064871,FEMA4ImagesEEG,001,101141,
AFNE01.JPG,AFNE01.JPG,AFNE01.JPG,AFNE01.JPG,AFNE01.JPG,AFNE01.JPG,,,,,,,,,,,,,1,7,17,2,,,,,,,,,,,AMNE06.jpg,AMSA18.jpg,AMNE15.jpg,AMSA06.jpg,AMNE15.jpg,MN,1,num_2,32,num_4,1.5167168146,,,2017_Aug_14_1217,60.0034064871,FEMA4ImagesEEG,001,101141,
AFNE01.JPG,AFNE01.JPG,AFNE01.JPG,AFNE01.JPG,AFNE01.JPG,AFNE01.JPG,,,,,,,,,,,,,1,8,18,9,,,,,,,,,,,AMSA19.jpg,AMSA18.jpg,AMNE11.jpg,AMNE09.jpg,AMNE11.jpg,MN,1,num_2,16,num_2,0.916813806165,,,2017_Aug_14_1217,60.0034064871,FEMA4ImagesEEG,001,101141,
AFNE01.JPG,AFNE01.JPG,AFNE01.JPG,AFNE01.JPG,AFNE01.JPG,AFNE01.JPG,,,,,,,,,,,,,1,9,19,8,,,,,,,,,,,AMNE17.jpg,AMSA08.jpg,AMNE10.jpg,AMSA07.jpg,AMNE17.jpg,MN,1,num_8,16,num_8,0.600132978987,,,2017_Aug_14_1217,60.0034064871,FEMA4ImagesEEG,001,101141,
AFNE01.JPG,AFNE01.JPG,AFNE01.JPG,AFNE01.JPG,AFNE01.JPG,AFNE01.JPG,,,,,,,,,,,,,2,0,20,6,,,,,,,,,,,AMSA16.jpg,AMNE03.jpg,AMSA06.jpg,AMNE05.jpg,AMSA16.jpg,MS,2,num_8,16,num_8,0.533480296843,,,2017_Aug_14_1217,60.0034064871,FEMA4ImagesEEG,001,101141,
AFNE01.JPG,AFNE01.JPG,AFNE01.JPG,AFNE01.JPG,AFNE01.JPG,AFNE01.JPG,,,,,,,,,,,,,2,1,21,8,,,,,,,,,,,AMNE14.jpg,AMSA01.jpg,AMNE11.jpg,AMSA04.jpg,AMSA04.jpg,MS,2,num_4,16,num_4,0.516810470726,,,2017_Aug_14_1217,60.0034064871,FEMA4ImagesEEG,001,101141,
AFNE01.JPG,AFNE01.JPG,AFNE01.JPG,AFNE01.JPG,AFNE01.JPG,AFNE01.JPG,,,,,,,,,,,,,2,2,22,0,,,,,,,,,,,AMNE15.jpg,AMSA07.jpg,AMSA13.jpg,AMNE08.jpg,AMNE15.jpg,MN,1,num_8,32,num_6,1.30015148548,,,2017_Aug_14_1217,60.0034064871,FEMA4ImagesEEG,001,101141,
AFNE01.JPG,AFNE01.JPG,AFNE01.JPG,AFNE01.JPG,AFNE01.JPG,AFNE01.JPG,,,,,,,,,,,,,2,3,23,3,,,,,,,,,,,AMNE15.jpg,AMSA07.jpg,AMNE02.jpg,AMSA18.jpg,AMSA07.jpg,MS,2,num_6,32,num_4,0.900162583217,,,2017_Aug_14_1217,60.0034064871,FEMA4ImagesEEG,001,101141,
AFNE01.JPG,AFNE01.JPG,AFNE01.JPG,AFNE01.JPG,AFNE01.JPG,AFNE01.JPG,,,,,,,,,,,,,2,4,24,9,,,,,,,,,,,AMNE15.jpg,AMSA07.jpg,AMSA10.jpg,AMNE20.jpg,AMNE20.jpg,MN,1,num_4,32,num_6,1.70005378826,,,2017_Aug_14_1217,60.0034064871,FEMA4ImagesEEG,001,101141,
AFNE01.JPG,AFNE01.JPG,AFNE01.JPG,AFNE01.JPG,AFNE01.JPG,AFNE01.JPG,,,,,,,,,,,,,2,5,25,2,,,,,,,,,,,AMSA17.jpg,AMSA01.jpg,AMNE17.jpg,AMNE10.jpg,AMSA01.jpg,MS,2,num_6,32,num_4,1.18326961808,,,2017_Aug_14_1217,60.0034064871,FEMA4ImagesEEG,001,101141,
AFNE01.JPG,AFNE01.JPG,AFNE01.JPG,AFNE01.JPG,AFNE01.JPG,AFNE01.JPG,,,,,,,,,,,,,2,6,26,1,,,,,,,,,,,AMSA19.jpg,AMNE13.jpg,AMSA02.jpg,AMNE05.jpg,AMSA19.jpg,MS,2,num_8,16,num_8,1.35019271635,,,2017_Aug_14_1217,60.0034064871,FEMA4ImagesEEG,001,101141,
AFNE01.JPG,AFNE01.JPG,AFNE01.JPG,AFNE01.JPG,AFNE01.JPG,AFNE01.JPG,,,,,,,,,,,,,2,7,27,7,,,,,,,,,,,AMNE07.jpg,AMSA12.jpg,AMNE06.jpg,AMSA17.jpg,AMNE06.jpg,MN,1,num_2,16,num_2,1.20010879496,,,2017_Aug_14_1217,60.0034064871,FEMA4ImagesEEG,001,101141,
AFNE01.JPG,AFNE01.JPG,AFNE01.JPG,AFNE01.JPG,AFNE01.JPG,AFNE01.JPG,,,,,,,,,,,,,2,8,28,4,,,,,,,,,,,AMNE02.jpg,AMNE12.jpg,AMSA14.jpg,AMSA15.jpg,AMSA15.jpg,MS,2,num_4,16,num_4,1.18340689503,,,2017_Aug_14_1217,60.0034064871,FEMA4ImagesEEG,001,101141,
AFNE01.JPG,AFNE01.JPG,AFNE01.JPG,AFNE01.JPG,AFNE01.JPG,AFNE01.JPG,,,,,,,,,,,,,2,9,29,5,,,,,,,,,,,AMSA16.jpg,AMNE01.jpg,AMNE16.jpg,AMSA13.jpg,AMNE16.jpg,MN,1,num_2,32,num_8,1.91667139763,,,2017_Aug_14_1217,60.0034064871,FEMA4ImagesEEG,001,101141,
AFNE01.JPG,AFNE01.JPG,AFNE01.JPG,AFNE01.JPG,AFNE01.JPG,AFNE01.JPG,,,,,,,,,,,,,3,0,30,6,,,,,,,,,,,AMSA06.jpg,AMNE16.jpg,AMSA13.jpg,AMNE08.jpg,AMNE16.jpg,MN,1,num_6,16,num_6,1.06667256821,,,2017_Aug_14_1217,60.0034064871,FEMA4ImagesEEG,001,101141,
AFNE01.JPG,AFNE01.JPG,AFNE01.JPG,AFNE01.JPG,AFNE01.JPG,AFNE01.JPG,,,,,,,,,,,,,3,1,31,0,,,,,,,,,,,AMSA03.jpg,AMNE06.jpg,AMNE05.jpg,AMSA11.jpg,AMSA11.jpg,MS,2,num_4,16,num_4,1.00015171012,,,2017_Aug_14_1217,60.0034064871,FEMA4ImagesEEG,001,101141,
AFNE01.JPG,AFNE01.JPG,AFNE01.JPG,AFNE01.JPG,AFNE01.JPG,AFNE01.JPG,,,,,,,,,,,,,3,2,32,5,,,,,,,,,,,AMSA07.jpg,AMNE15.jpg,AMNE19.jpg,AMSA13.jpg,AMNE15.jpg,MN,1,num_6,32,num_8,1.78347636713,,,2017_Aug_14_1217,60.0034064871,FEMA4ImagesEEG,001,101141,
AFNE01.JPG,AFNE01.JPG,AFNE01.JPG,AFNE01.JPG,AFNE01.JPG,AFNE01.JPG,,,,,,,,,,,,,3,3,33,2,,,,,,,,,,,AMNE10.jpg,AMSA10.jpg,AMNE14.jpg,AMSA15.jpg,AMNE10.jpg,MN,1,num_8,32,num_6,1.85006586369,,,2017_Aug_14_1217,60.0034064871,FEMA4ImagesEEG,001,101141,
AFNE01.JPG,AFNE01.JPG,AFNE01.JPG,AFNE01.JPG,AFNE01.JPG,AFNE01.JPG,,,,,,,,,,,,,3,4,34,8,,,,,,,,,,,AMSA04.jpg,AMNE07.jpg,AMNE14.jpg,AMSA10.jpg,AMNE07.jpg,MN,1,num_6,16,num_6,1.16678421758,,,2017_Aug_14_1217,60.0034064871,FEMA4ImagesEEG,001,101141,
AFNE01.JPG,AFNE01.JPG,AFNE01.JPG,AFNE01.JPG,AFNE01.JPG,AFNE01.JPG,,,,,,,,,,,,,3,5,35,7,,,,,,,,,,,AMSA03.jpg,AMSA06.jpg,AMNE06.jpg,AMNE10.jpg,AMSA06.jpg,MS,2,num_6,48,None,,,,2017_Aug_14_1217,60.0034064871,FEMA4ImagesEEG,001,101141,
AFNE01.JPG,AFNE01.JPG,AFNE01.JPG,AFNE01.JPG,AFNE01.JPG,AFNE01.JPG,,,,,,,,,,,,,3,6,36,4,,,,,,,,,,,AMNE15.jpg,AMSA10.jpg,AMSA09.jpg,AMNE19.jpg,AMNE19.jpg,MN,1,num_4,32,num_2,1.61676431587,,,2017_Aug_14_1217,60.0034064871,FEMA4ImagesEEG,001,101141,
AFNE01.JPG,AFNE01.JPG,AFNE01.JPG,AFNE01.JPG,AFNE01.JPG,AFNE01.JPG,,,,,,,,,,,,,3,7,37,1,,,,,,,,,,,AMNE16.jpg,AMSA18.jpg,AMNE04.jpg,AMSA10.jpg,AMSA10.jpg,MS,2,num_4,32,num_6,1.08338312805,,,2017_Aug_14_1217,60.0034064871,FEMA4ImagesEEG,001,101141,
AFNE01.JPG,AFNE01.JPG,AFNE01.JPG,AFNE01.JPG,AFNE01.JPG,AFNE01.JPG,,,,,,,,,,,,,3,8,38,9,,,,,,,,,,,AMNE06.jpg,AMSA19.jpg,AMNE09.jpg,AMSA16.jpg,AMNE09.jpg,MN,1,num_2,32,num_8,1.38345731515,,,2017_Aug_14_1217,60.0034064871,FEMA4ImagesEEG,001,101141,
AFNE01.JPG,AFNE01.JPG,AFNE01.JPG,AFNE01.JPG,AFNE01.JPG,AFNE01.JPG,,,,,,,,,,,,,3,9,39,3,,,,,,,,,,,AMSA04.jpg,AMSA01.jpg,AMNE07.jpg,AMNE19.jpg,AMNE07.jpg,MN,1,num_2,16,num_2,0.633459480479,,,2017_Aug_14_1217,60.0034064871,FEMA4ImagesEEG,001,101141,
AFNE01.JPG,AFNE01.JPG,AFNE01.JPG,AFNE01.JPG,AFNE01.JPG,AFNE01.JPG,,,,,,,,,,,,,4,0,40,1,,,,,,,,,,,AMSA14.jpg,AMNE05.jpg,AMNE15.jpg,AMSA16.jpg,AMSA14.jpg,MS,2,num_8,16,num_8,0.716697313357,,,2017_Aug_14_1217,60.0034064871,FEMA4ImagesEEG,001,101141,
AFNE01.JPG,AFNE01.JPG,AFNE01.JPG,AFNE01.JPG,AFNE01.JPG,AFNE01.JPG,,,,,,,,,,,,,4,1,41,5,,,,,,,,,,,AMNE02.jpg,AMSA14.jpg,AMSA17.jpg,AMNE13.jpg,AMNE02.jpg,MN,1,num_8,16,num_8,1.25011731032,,,2017_Aug_14_1217,60.0034064871,FEMA4ImagesEEG,001,101141,
AFNE01.JPG,AFNE01.JPG,AFNE01.JPG,AFNE01.JPG,AFNE01.JPG,AFNE01.JPG,,,,,,,,,,,,,4,2,42,7,,,,,,,,,,,AMNE18.jpg,AMSA02.jpg,AMSA06.jpg,AMNE02.jpg,AMSA02.jpg,MS,2,num_6,16,num_6,1.41668374604,,,2017_Aug_14_1217,60.0034064871,FEMA4ImagesEEG,001,101141,
AFNE01.JPG,AFNE01.JPG,AFNE01.JPG,AFNE01.JPG,AFNE01.JPG,AFNE01.JPG,,,,,,,,,,,,,4,3,43,3,,,,,,,,,,,AMSA06.jpg,AMNE02.jpg,AMSA16.jpg,AMNE14.jpg,AMSA16.jpg,MS,2,num_2,16,num_2,3.39991833968,,,2017_Aug_14_1217,60.0034064871,FEMA4ImagesEEG,001,101141,
AFNE01.JPG,AFNE01.JPG,AFNE01.JPG,AFNE01.JPG,AFNE01.JPG,AFNE01.JPG,,,,,,,,,,,,,4,4,44,6,,,,,,,,,,,AMSA17.jpg,AMNE18.jpg,AMNE15.jpg,AMSA01.jpg,AMSA17.jpg,MS,2,num_8,16,num_8,0.683479222003,,,2017_Aug_14_1217,60.0034064871,FEMA4ImagesEEG,001,101141,
AFNE01.JPG,AFNE01.JPG,AFNE01.JPG,AFNE01.JPG,AFNE01.JPG,AFNE01.JPG,,,,,,,,,,,,,4,5,45,0,,,,,,,,,,,AMSA02.jpg,AMNE06.jpg,AMSA03.jpg,AMNE05.jpg,AMNE06.jpg,MN,1,num_6,16,num_6,1.283411738,,,2017_Aug_14_1217,60.0034064871,FEMA4ImagesEEG,001,101141,
AFNE01.JPG,AFNE01.JPG,AFNE01.JPG,AFNE01.JPG,AFNE01.JPG,AFNE01.JPG,,,,,,,,,,,,,4,6,46,2,,,,,,,,,,,AMNE18.jpg,AMNE09.jpg,AMSA07.jpg,AMSA03.jpg,AMSA07.jpg,MS,2,num_2,32,num_4,0.983549881261,,,2017_Aug_14_1217,60.0034064871,FEMA4ImagesEEG,001,101141,
AFNE01.JPG,AFNE01.JPG,AFNE01.JPG,AFNE01.JPG,AFNE01.JPG,AFNE01.JPG,,,,,,,,,,,,,4,7,47,4,,,,,,,,,,,AMNE03.jpg,AMSA05.jpg,AMNE13.jpg,AMSA20.jpg,AMNE13.jpg,MN,1,num_2,16,num_2,1.31662116991,,,2017_Aug_14_1217,60.0034064871,FEMA4ImagesEEG,001,101141,
AFNE01.JPG,AFNE01.JPG,AFNE01.JPG,AFNE01.JPG,AFNE01.JPG,AFNE01.JPG,,,,,,,,,,,,,4,8,48,9,,,,,,,,,,,AMSA18.jpg,AMNE18.jpg,AMNE16.jpg,AMSA17.jpg,AMNE18.jpg,MN,1,num_6,32,num_8,1.01685713837,,,2017_Aug_14_1217,60.0034064871,FEMA4ImagesEEG,001,101141,
AFNE01.JPG,AFNE01.JPG,AFNE01.JPG,AFNE01.JPG,AFNE01.JPG,AFNE01.JPG,,,,,,,,,,,,,4,9,49,8,,,,,,,,,,,AMSA04.jpg,AMNE02.jpg,AMNE12.jpg,AMSA20.jpg,AMNE12.jpg,MN,1,num_2,16,num_2,1.16675727582,,,2017_Aug_14_1217,60.0034064871,FEMA4ImagesEEG,001,101141,
AFNE01.JPG,AFNE01.JPG,AFNE01.JPG,AFNE01.JPG,AFNE01.JPG,AFNE01.JPG,,,,,,,,,,,,,5,0,50,5,,,,,,,,,,,AMNE03.jpg,AMSA19.jpg,AMNE06.jpg,AMSA16.jpg,AMNE03.jpg,MN,1,num_8,32,num_4,0.78348791413,,,2017_Aug_14_1217,60.0034064871,FEMA4ImagesEEG,001,101141,
AFNE01.JPG,AFNE01.JPG,AFNE01.JPG,AFNE01.JPG,AFNE01.JPG,AFNE01.JPG,,,,,,,,,,,,,5,1,51,0,,,,,,,,,,,AMNE09.jpg,AMNE11.jpg,AMSA10.jpg,AMSA19.jpg,AMSA10.jpg,MS,2,num_2,32,num_6,0.833487770054,,,2017_Aug_14_1217,60.0034064871,FEMA4ImagesEEG,001,101141,
AFNE01.JPG,AFNE01.JPG,AFNE01.JPG,AFNE01.JPG,AFNE01.JPG,AFNE01.JPG,,,,,,,,,,,,,5,2,52,1,,,,,,,,,,,AMNE20.jpg,AMNE05.jpg,AMSA15.jpg,AMSA09.jpg,AMSA09.jpg,MS,2,num_4,32,num_2,1.20017005643,,,2017_Aug_14_1217,60.0034064871,FEMA4ImagesEEG,001,101141,
AFNE01.JPG,AFNE01.JPG,AFNE01.JPG,AFNE01.JPG,AFNE01.JPG,AFNE01.JPG,,,,,,,,,,,,,5,3,53,3,,,,,,,,,,,AMSA11.jpg,AMNE07.jpg,AMSA02.jpg,AMNE20.jpg,AMSA11.jpg,MS,2,num_8,32,num_2,1.86666865554,,,2017_Aug_14_1217,60.0034064871,FEMA4ImagesEEG,001,101141,
AFNE01.JPG,AFNE01.JPG,AFNE01.JPG,AFNE01.JPG,AFNE01.JPG,AFNE01.JPG,,,,,,,,,,,,,5,4,54,9,,,,,,,,,,,AMSA17.jpg,AMNE06.jpg,AMSA15.jpg,AMNE01.jpg,AMSA17.jpg,MS,2,num_8,16,num_8,0.76679274952,,,2017_Aug_14_1217,60.0034064871,FEMA4ImagesEEG,001,101141,
AFNE01.JPG,AFNE01.JPG,AFNE01.JPG,AFNE01.JPG,AFNE01.JPG,AFNE01.JPG,,,,,,,,,,,,,5,5,55,6,,,,,,,,,,,AMNE13.jpg,AMNE03.jpg,AMSA05.jpg,AMSA07.jpg,AMNE13.jpg,MN,1,num_8,32,num_2,0.883493719622,,,2017_Aug_14_1217,60.0034064871,FEMA4ImagesEEG,001,101141,
AFNE01.JPG,AFNE01.JPG,AFNE01.JPG,AFNE01.JPG,AFNE01.JPG,AFNE01.JPG,,,,,,,,,,,,,5,6,56,4,,,,,,,,,,,AMNE01.jpg,AMNE02.jpg,AMSA17.jpg,AMSA13.jpg,AMSA17.jpg,MS,2,num_2,32,num_8,0.883487304673,,,2017_Aug_14_1217,60.0034064871,FEMA4ImagesEEG,001,101141,
AFNE01.JPG,AFNE01.JPG,AFNE01.JPG,AFNE01.JPG,AFNE01.JPG,AFNE01.JPG,,,,,,,,,,,,,5,7,57,2,,,,,,,,,,,AMNE05.jpg,AMSA16.jpg,AMSA15.jpg,AMNE14.jpg,AMNE05.jpg,MN,1,num_8,16,num_8,1.05010120943,,,2017_Aug_14_1217,60.0034064871,FEMA4ImagesEEG,001,101141,
AFNE01.JPG,AFNE01.JPG,AFNE01.JPG,AFNE01.JPG,AFNE01.JPG,AFNE01.JPG,,,,,,,,,,,,,5,8,58,7,,,,,,,,,,,AMNE18.jpg,AMSA19.jpg,AMNE17.jpg,AMSA20.jpg,AMSA20.jpg,MS,2,num_4,32,num_6,1.21677990397,,,2017_Aug_14_1217,60.0034064871,FEMA4ImagesEEG,001,101141,
AFNE01.JPG,AFNE01.JPG,AFNE01.JPG,AFNE01.JPG,AFNE01.JPG,AFNE01.JPG,,,,,,,,,,,,,5,9,59,8,,,,,,,,,,,AMSA12.jpg,AMSA08.jpg,AMNE19.jpg,AMNE12.jpg,AMNE12.jpg,MN,1,num_4,32,num_8,1.78349721571,,,2017_Aug_14_1217,60.0034064871,FEMA4ImagesEEG,001,101141,
,,,,,,,,,,,,,,,,,,,,,,,,,,,,,,,,,,,,,,,,,,,space,14.1324861944,2017_Aug_14_1217,60.0034064871,FEMA4ImagesEEG,001,101141,
AFNE01.JPG,AFNE01.JPG,AFNE01.JPG,AFNE01.JPG,AFNE01.JPG,AFNE01.JPG,,,,,,,,,,,,,,,,,0,0,0,5,,,,,,,AFNE19.jpg,AFSA19.jpg,AFSA09.jpg,AFNE20.jpg,AFNE20.jpg,FN,3,num_4,16,num_4,1.01677791541,,,2017_Aug_14_1217,60.0034064871,FEMA4ImagesEEG,001,101141,
AFNE01.JPG,AFNE01.JPG,AFNE01.JPG,AFNE01.JPG,AFNE01.JPG,AFNE01.JPG,,,,,,,,,,,,,,,,,0,1,1,1,,,,,,,AFSA06.jpg,AFSA18.jpg,AFNE03.jpg,AFNE13.jpg,AFNE03.jpg,FN,3,num_2,32,num_8,0.850174915511,,,2017_Aug_14_1217,60.0034064871,FEMA4ImagesEEG,001,101141,
AFNE01.JPG,AFNE01.JPG,AFNE01.JPG,AFNE01.JPG,AFNE01.JPG,AFNE01.JPG,,,,,,,,,,,,,,,,,0,2,2,4,,,,,,,AFSA09.jpg,AFNE01.jpg,AFNE12.jpg,AFSA03.jpg,AFSA03.jpg,FS,4,num_4,16,num_4,0.933485235553,,,2017_Aug_14_1217,60.0034064871,FEMA4ImagesEEG,001,101141,
AFNE01.JPG,AFNE01.JPG,AFNE01.JPG,AFNE01.JPG,AFNE01.JPG,AFNE01.JPG,,,,,,,,,,,,,,,,,0,3,3,6,,,,,,,AFNE12.jpg,AFNE02.jpg,AFSA09.jpg,AFSA20.jpg,AFSA09.jpg,FS,4,num_2,32,num_8,0.966452829074,,,2017_Aug_14_1217,60.0034064871,FEMA4ImagesEEG,001,101141,
AFNE01.JPG,AFNE01.JPG,AFNE01.JPG,AFNE01.JPG,AFNE01.JPG,AFNE01.JPG,,,,,,,,,,,,,,,,,0,4,4,9,,,,,,,AFNE17.jpg,AFNE19.jpg,AFSA07.jpg,AFSA16.jpg,AFNE19.jpg,FN,3,num_6,32,num_2,0.766740469262,,,2017_Aug_14_1217,60.0034064871,FEMA4ImagesEEG,001,101141,
AFNE01.JPG,AFNE01.JPG,AFNE01.JPG,AFNE01.JPG,AFNE01.JPG,AFNE01.JPG,,,,,,,,,,,,,,,,,0,5,5,7,,,,,,,AFSA03.jpg,AFSA18.jpg,AFNE18.jpg,AFNE03.jpg,AFNE18.jpg,FN,3,num_2,32,num_8,1.15011984482,,,2017_Aug_14_1217,60.0034064871,FEMA4ImagesEEG,001,101141,
AFNE01.JPG,AFNE01.JPG,AFNE01.JPG,AFNE01.JPG,AFNE01.JPG,AFNE01.JPG,,,,,,,,,,,,,,,,,0,6,6,2,,,,,,,AFSA06.jpg,AFNE03.jpg,AFSA04.jpg,AFNE04.jpg,AFSA06.jpg,FS,4,num_8,32,num_2,1.06674922537,,,2017_Aug_14_1217,60.0034064871,FEMA4ImagesEEG,001,101141,
AFNE01.JPG,AFNE01.JPG,AFNE01.JPG,AFNE01.JPG,AFNE01.JPG,AFNE01.JPG,,,,,,,,,,,,,,,,,0,7,7,0,,,,,,,AFNE20.jpg,AFSA12.jpg,AFSA11.jpg,AFNE09.jpg,AFNE09.jpg,FN,3,num_4,32,num_8,1.05011981213,,,2017_Aug_14_1217,60.0034064871,FEMA4ImagesEEG,001,101141,
AFNE01.JPG,AFNE01.JPG,AFNE01.JPG,AFNE01.JPG,AFNE01.JPG,AFNE01.JPG,,,,,,,,,,,,,,,,,0,8,8,8,,,,,,,AFNE16.jpg,AFSA02.jpg,AFNE14.jpg,AFSA16.jpg,AFSA02.jpg,FS,4,num_6,32,num_8,1.01679748064,,,2017_Aug_14_1217,60.0034064871,FEMA4ImagesEEG,001,101141,
AFNE01.JPG,AFNE01.JPG,AFNE01.JPG,AFNE01.JPG,AFNE01.JPG,AFNE01.JPG,,,,,,,,,,,,,,,,,0,9,9,3,,,,,,,AFSA10.jpg,AFSA04.jpg,AFNE08.jpg,AFNE19.jpg,AFNE08.jpg,FN,3,num_2,16,num_2,0.983547635842,,,2017_Aug_14_1217,60.0034064871,FEMA4ImagesEEG,001,101141,
AFNE01.JPG,AFNE01.JPG,AFNE01.JPG,AFNE01.JPG,AFNE01.JPG,AFNE01.JPG,,,,,,,,,,,,,,,,,1,0,10,4,,,,,,,AFNE20.jpg,AFSA09.jpg,AFNE02.jpg,AFSA13.jpg,AFSA13.jpg,FS,4,num_4,16,num_4,1.58339547645,,,2017_Aug_14_1217,60.0034064871,FEMA4ImagesEEG,001,101141,
AFNE01.JPG,AFNE01.JPG,AFNE01.JPG,AFNE01.JPG,AFNE01.JPG,AFNE01.JPG,,,,,,,,,,,,,,,,,1,1,11,8,,,,,,,AFNE14.jpg,AFSA08.jpg,AFSA17.jpg,AFNE05.jpg,AFNE05.jpg,FN,3,num_4,32,num_2,1.15007814858,,,2017_Aug_14_1217,60.0034064871,FEMA4ImagesEEG,001,101141,
AFNE01.JPG,AFNE01.JPG,AFNE01.JPG,AFNE01.JPG,AFNE01.JPG,AFNE01.JPG,,,,,,,,,,,,,,,,,1,2,12,9,,,,,,,AFSA11.jpg,AFNE02.jpg,AFSA17.jpg,AFNE11.jpg,AFSA17.jpg,FS,4,num_2,32,num_6,2.13340190751,,,2017_Aug_14_1217,60.0034064871,FEMA4ImagesEEG,001,101141,
AFNE01.JPG,AFNE01.JPG,AFNE01.JPG,AFNE01.JPG,AFNE01.JPG,AFNE01.JPG,,,,,,,,,,,,,,,,,1,3,13,0,,,,,,,AFSA02.jpg,AFSA05.jpg,AFNE06.jpg,AFNE10.jpg,AFSA05.jpg,FS,4,num_6,32,num_2,1.23345422046,,,2017_Aug_14_1217,60.0034064871,FEMA4ImagesEEG,001,101141,
AFNE01.JPG,AFNE01.JPG,AFNE01.JPG,AFNE01.JPG,AFNE01.JPG,AFNE01.JPG,,,,,,,,,,,,,,,,,1,4,14,5,,,,,,,AFNE14.jpg,AFSA13.jpg,AFSA10.jpg,AFNE03.jpg,AFNE03.jpg,FN,3,num_4,32,num_8,0.950011691079,,,2017_Aug_14_1217,60.0034064871,FEMA4ImagesEEG,001,101141,
AFNE01.JPG,AFNE01.JPG,AFNE01.JPG,AFNE01.JPG,AFNE01.JPG,AFNE01.JPG,,,,,,,,,,,,,,,,,1,5,15,2,,,,,,,AFNE15.jpg,AFSA16.jpg,AFSA06.jpg,AFNE10.jpg,AFSA06.jpg,FS,4,num_2,32,num_4,1.48344195168,,,2017_Aug_14_1217,60.0034064871,FEMA4ImagesEEG,001,101141,
AFNE01.JPG,AFNE01.JPG,AFNE01.JPG,AFNE01.JPG,AFNE01.JPG,AFNE01.JPG,,,,,,,,,,,,,,,,,1,6,16,3,,,,,,,AFSA01.jpg,AFNE06.jpg,AFSA20.jpg,AFNE14.jpg,AFNE06.jpg,FN,3,num_6,32,num_2,1.43345749192,,,2017_Aug_14_1217,60.0034064871,FEMA4ImagesEEG,001,101141,
AFNE01.JPG,AFNE01.JPG,AFNE01.JPG,AFNE01.JPG,AFNE01.JPG,AFNE01.JPG,,,,,,,,,,,,,,,,,1,7,17,6,,,,,,,AFSA20.jpg,AFNE15.jpg,AFSA19.jpg,AFNE05.jpg,AFSA20.jpg,FS,4,num_8,32,num_4,1.15012914594,,,2017_Aug_14_1217,60.0034064871,FEMA4ImagesEEG,001,101141,
AFNE01.JPG,AFNE01.JPG,AFNE01.JPG,AFNE01.JPG,AFNE01.JPG,AFNE01.JPG,,,,,,,,,,,,,,,,,1,8,18,1,,,,,,,AFSA02.jpg,AFNE11.jpg,AFSA01.jpg,AFNE13.jpg,AFSA01.jpg,FS,4,num_2,32,num_6,1.48343200888,,,2017_Aug_14_1217,60.0034064871,FEMA4ImagesEEG,001,101141,
AFNE01.JPG,AFNE01.JPG,AFNE01.JPG,AFNE01.JPG,AFNE01.JPG,AFNE01.JPG,,,,,,,,,,,,,,,,,1,9,19,7,,,,,,,AFSA08.jpg,AFSA15.jpg,AFNE06.jpg,AFNE12.jpg,AFSA15.jpg,FS,4,num_6,16,num_6,1.40020572254,,,2017_Aug_14_1217,60.0034064871,FEMA4ImagesEEG,001,101141,
AFNE01.JPG,AFNE01.JPG,AFNE01.JPG,AFNE01.JPG,AFNE01.JPG,AFNE01.JPG,,,,,,,,,,,,,,,,,2,0,20,5,,,,,,,AFNE16.jpg,AFSA10.jpg,AFNE15.jpg,AFSA04.jpg,AFSA04.jpg,FS,4,num_4,16,num_4,1.11675260914,,,2017_Aug_14_1217,60.0034064871,FEMA4ImagesEEG,001,101141,
AFNE01.JPG,AFNE01.JPG,AFNE01.JPG,AFNE01.JPG,AFNE01.JPG,AFNE01.JPG,,,,,,,,,,,,,,,,,2,1,21,4,,,,,,,AFNE19.jpg,AFSA08.jpg,AFSA09.jpg,AFNE16.jpg,AFSA09.jpg,FS,4,num_2,16,num_2,1.58342819242,,,2017_Aug_14_1217,60.0034064871,FEMA4ImagesEEG,001,101141,
AFNE01.JPG,AFNE01.JPG,AFNE01.JPG,AFNE01.JPG,AFNE01.JPG,AFNE01.JPG,,,,,,,,,,,,,,,,,2,2,22,8,,,,,,,AFNE01.jpg,AFSA20.jpg,AFNE14.jpg,AFSA02.jpg,AFSA02.jpg,FS,4,num_4,32,num_8,0.983402661048,,,2017_Aug_14_1217,60.0034064871,FEMA4ImagesEEG,001,101141,
AFNE01.JPG,AFNE01.JPG,AFNE01.JPG,AFNE01.JPG,AFNE01.JPG,AFNE01.JPG,,,,,,,,,,,,,,,,,2,3,23,0,,,,,,,AFNE03.jpg,AFSA20.jpg,AFNE11.jpg,AFSA10.jpg,AFSA10.jpg,FS,4,num_4,32,num_2,0.76685850136,,,2017_Aug_14_1217,60.0034064871,FEMA4ImagesEEG,001,101141,
AFNE01.JPG,AFNE01.JPG,AFNE01.JPG,AFNE01.JPG,AFNE01.JPG,AFNE01.JPG,,,,,,,,,,,,,,,,,2,4,24,2,,,,,,,AFNE20.jpg,AFSA16.jpg,AFNE13.jpg,AFSA14.jpg,AFNE20.jpg,FN,3,num_8,16,num_8,1.16642434755,,,2017_Aug_14_1217,60.0034064871,FEMA4ImagesEEG,001,101141,
AFNE01.JPG,AFNE01.JPG,AFNE01.JPG,AFNE01.JPG,AFNE01.JPG,AFNE01.JPG,,,,,,,,,,,,,,,,,2,5,25,3,,,,,,,AFNE07.jpg,AFSA13.jpg,AFNE19.jpg,AFSA04.jpg,AFSA04.jpg,FS,4,num_4,16,num_4,0.933446747251,,,2017_Aug_14_1217,60.0034064871,FEMA4ImagesEEG,001,101141,
AFNE01.JPG,AFNE01.JPG,AFNE01.JPG,AFNE01.JPG,AFNE01.JPG,AFNE01.JPG,,,,,,,,,,,,,,,,,2,6,26,6,,,,,,,AFNE04.jpg,AFSA18.jpg,AFNE13.jpg,AFSA01.jpg,AFSA18.jpg,FS,4,num_6,32,num_2,3.016644808,,,2017_Aug_14_1217,60.0034064871,FEMA4ImagesEEG,001,101141,
AFNE01.JPG,AFNE01.JPG,AFNE01.JPG,AFNE01.JPG,AFNE01.JPG,AFNE01.JPG,,,,,,,,,,,,,,,,,2,7,27,7,,,,,,,AFSA03.jpg,AFSA20.jpg,AFNE20.jpg,AFNE05.jpg,AFSA20.jpg,FS,4,num_6,32,num_4,1.98334492836,,,2017_Aug_14_1217,60.0034064871,FEMA4ImagesEEG,001,101141,
AFNE01.JPG,AFNE01.JPG,AFNE01.JPG,AFNE01.JPG,AFNE01.JPG,AFNE01.JPG,,,,,,,,,,,,,,,,,2,8,28,1,,,,,,,AFSA12.jpg,AFNE14.jpg,AFNE08.jpg,AFSA09.jpg,AFSA12.jpg,FS,4,num_8,16,num_8,1.3334221784,,,2017_Aug_14_1217,60.0034064871,FEMA4ImagesEEG,001,101141,
AFNE01.JPG,AFNE01.JPG,AFNE01.JPG,AFNE01.JPG,AFNE01.JPG,AFNE01.JPG,,,,,,,,,,,,,,,,,2,9,29,9,,,,,,,AFNE16.jpg,AFSA19.jpg,AFNE20.jpg,AFSA09.jpg,AFNE16.jpg,FN,3,num_8,32,num_4,2.65001672693,,,2017_Aug_14_1217,60.0034064871,FEMA4ImagesEEG,001,101141,
AFNE01.JPG,AFNE01.JPG,AFNE01.JPG,AFNE01.JPG,AFNE01.JPG,AFNE01.JPG,,,,,,,,,,,,,,,,,3,0,30,6,,,,,,,AFNE05.jpg,AFNE18.jpg,AFSA20.jpg,AFSA11.jpg,AFSA11.jpg,FS,4,num_4,16,num_4,1.23354466911,,,2017_Aug_14_1217,60.0034064871,FEMA4ImagesEEG,001,101141,
AFNE01.JPG,AFNE01.JPG,AFNE01.JPG,AFNE01.JPG,AFNE01.JPG,AFNE01.JPG,,,,,,,,,,,,,,,,,3,1,31,3,,,,,,,AFNE02.jpg,AFSA04.jpg,AFSA17.jpg,AFNE05.jpg,AFNE05.jpg,FN,3,num_4,32,num_6,1.15016955929,,,2017_Aug_14_1217,60.0034064871,FEMA4ImagesEEG,001,101141,
AFNE01.JPG,AFNE01.JPG,AFNE01.JPG,AFNE01.JPG,AFNE01.JPG,AFNE01.JPG,,,,,,,,,,,,,,,,,3,2,32,5,,,,,,,AFNE11.jpg,AFSA01.jpg,AFSA17.jpg,AFNE03.jpg,AFSA01.jpg,FS,4,num_6,16,num_6,1.90004679561,,,2017_Aug_14_1217,60.0034064871,FEMA4ImagesEEG,001,101141,
AFNE01.JPG,AFNE01.JPG,AFNE01.JPG,AFNE01.JPG,AFNE01.JPG,AFNE01.JPG,,,,,,,,,,,,,,,,,3,3,33,0,,,,,,,AFNE18.jpg,AFSA14.jpg,AFSA19.jpg,AFNE06.jpg,AFNE18.jpg,FN,3,num_8,32,num_2,1.70004705247,,,2017_Aug_14_1217,60.0034064871,FEMA4ImagesEEG,001,101141,
AFNE01.JPG,AFNE01.JPG,AFNE01.JPG,AFNE01.JPG,AFNE01.JPG,AFNE01.JPG,,,,,,,,,,,,,,,,,3,4,34,9,,,,,,,AFSA14.jpg,AFNE03.jpg,AFSA12.jpg,AFNE06.jpg,AFNE03.jpg,FN,3,num_6,32,num_8,1.53343603434,,,2017_Aug_14_1217,60.0034064871,FEMA4ImagesEEG,001,101141,
AFNE01.JPG,AFNE01.JPG,AFNE01.JPG,AFNE01.JPG,AFNE01.JPG,AFNE01.JPG,,,,,,,,,,,,,,,,,3,5,35,8,,,,,,,AFNE18.jpg,AFNE03.jpg,AFSA15.jpg,AFSA20.jpg,AFSA15.jpg,FS,4,num_2,32,num_8,1.53366183536,,,2017_Aug_14_1217,60.0034064871,FEMA4ImagesEEG,001,101141,
AFNE01.JPG,AFNE01.JPG,AFNE01.JPG,AFNE01.JPG,AFNE01.JPG,AFNE01.JPG,,,,,,,,,,,,,,,,,3,6,36,2,,,,,,,AFNE02.jpg,AFNE06.jpg,AFSA05.jpg,AFSA10.jpg,AFNE06.jpg,FN,3,num_6,32,num_8,1.58340157103,,,2017_Aug_14_1217,60.0034064871,FEMA4ImagesEEG,001,101141,
AFNE01.JPG,AFNE01.JPG,AFNE01.JPG,AFNE01.JPG,AFNE01.JPG,AFNE01.JPG,,,,,,,,,,,,,,,,,3,7,37,4,,,,,,,AFNE02.jpg,AFSA20.jpg,AFNE18.jpg,AFSA04.jpg,AFNE02.jpg,FN,3,num_8,32,num_6,0.950156345032,,,2017_Aug_14_1217,60.0034064871,FEMA4ImagesEEG,001,101141,
AFNE01.JPG,AFNE01.JPG,AFNE01.JPG,AFNE01.JPG,AFNE01.JPG,AFNE01.JPG,,,,,,,,,,,,,,,,,3,8,38,7,,,,,,,AFSA02.jpg,AFSA06.jpg,AFNE16.jpg,AFNE15.jpg,AFNE15.jpg,FN,3,num_4,32,num_2,1.35016545374,,,2017_Aug_14_1217,60.0034064871,FEMA4ImagesEEG,001,101141,
AFNE01.JPG,AFNE01.JPG,AFNE01.JPG,AFNE01.JPG,AFNE01.JPG,AFNE01.JPG,,,,,,,,,,,,,,,,,3,9,39,1,,,,,,,AFNE19.jpg,AFSA18.jpg,AFNE05.jpg,AFSA12.jpg,AFSA18.jpg,FS,4,num_6,16,num_6,1.28346241545,,,2017_Aug_14_1217,60.0034064871,FEMA4ImagesEEG,001,101141,
AFNE01.JPG,AFNE01.JPG,AFNE01.JPG,AFNE01.JPG,AFNE01.JPG,AFNE01.JPG,,,,,,,,,,,,,,,,,4,0,40,1,,,,,,,AFSA09.jpg,AFNE06.jpg,AFSA20.jpg,AFNE02.jpg,AFNE02.jpg,FN,3,num_4,32,num_8,0.950106950477,,,2017_Aug_14_1217,60.0034064871,FEMA4ImagesEEG,001,101141,
AFNE01.JPG,AFNE01.JPG,AFNE01.JPG,AFNE01.JPG,AFNE01.JPG,AFNE01.JPG,,,,,,,,,,,,,,,,,4,1,41,9,,,,,,,AFSA12.jpg,AFSA01.jpg,AFNE20.jpg,AFNE08.jpg,AFNE20.jpg,FN,3,num_2,32,num_8,1.99983802624,,,2017_Aug_14_1217,60.0034064871,FEMA4ImagesEEG,001,101141,
AFNE01.JPG,AFNE01.JPG,AFNE01.JPG,AFNE01.JPG,AFNE01.JPG,AFNE01.JPG,,,,,,,,,,,,,,,,,4,2,42,0,,,,,,,AFNE05.jpg,AFSA10.jpg,AFNE14.jpg,AFSA04.jpg,AFSA04.jpg,FS,4,num_4,32,num_6,1.23343946598,,,2017_Aug_14_1217,60.0034064871,FEMA4ImagesEEG,001,101141,
AFNE01.JPG,AFNE01.JPG,AFNE01.JPG,AFNE01.JPG,AFNE01.JPG,AFNE01.JPG,,,,,,,,,,,,,,,,,4,3,43,4,,,,,,,AFSA10.jpg,AFNE01.jpg,AFNE04.jpg,AFSA13.jpg,AFNE01.jpg,FN,3,num_6,32,num_8,1.0335603212,,,2017_Aug_14_1217,60.0034064871,FEMA4ImagesEEG,001,101141,
AFNE01.JPG,AFNE01.JPG,AFNE01.JPG,AFNE01.JPG,AFNE01.JPG,AFNE01.JPG,,,,,,,,,,,,,,,,,4,4,44,2,,,,,,,AFSA12.jpg,AFNE13.jpg,AFSA07.jpg,AFNE12.jpg,AFSA07.jpg,FS,4,num_2,32,num_4,1.18347232603,,,2017_Aug_14_1217,60.0034064871,FEMA4ImagesEEG,001,101141,
AFNE01.JPG,AFNE01.JPG,AFNE01.JPG,AFNE01.JPG,AFNE01.JPG,AFNE01.JPG,,,,,,,,,,,,,,,,,4,5,45,3,,,,,,,AFNE10.jpg,AFSA18.jpg,AFSA14.jpg,AFNE19.jpg,AFNE19.jpg,FN,3,num_4,32,num_6,1.70013172785,,,2017_Aug_14_1217,60.0034064871,FEMA4ImagesEEG,001,101141,
AFNE01.JPG,AFNE01.JPG,AFNE01.JPG,AFNE01.JPG,AFNE01.JPG,AFNE01.JPG,,,,,,,,,,,,,,,,,4,6,46,7,,,,,,,AFSA08.jpg,AFSA04.jpg,AFNE20.jpg,AFNE02.jpg,AFSA04.jpg,FS,4,num_6,32,num_2,1.2667909856,,,2017_Aug_14_1217,60.0034064871,FEMA4ImagesEEG,001,101141,
AFNE01.JPG,AFNE01.JPG,AFNE01.JPG,AFNE01.JPG,AFNE01.JPG,AFNE01.JPG,,,,,,,,,,,,,,,,,4,7,47,6,,,,,,,AFSA17.jpg,AFSA16.jpg,AFNE01.jpg,AFNE07.jpg,AFNE07.jpg,FN,3,num_4,32,num_2,1.5334116579,,,2017_Aug_14_1217,60.0034064871,FEMA4ImagesEEG,001,101141,
AFNE01.JPG,AFNE01.JPG,AFNE01.JPG,AFNE01.JPG,AFNE01.JPG,AFNE01.JPG,,,,,,,,,,,,,,,,,4,8,48,5,,,,,,,AFSA02.jpg,AFSA10.jpg,AFNE10.jpg,AFNE20.jpg,AFSA10.jpg,FS,4,num_6,32,num_8,1.96670428943,,,2017_Aug_14_1217,60.0034064871,FEMA4ImagesEEG,001,101141,
AFNE01.JPG,AFNE01.JPG,AFNE01.JPG,AFNE01.JPG,AFNE01.JPG,AFNE01.JPG,,,,,,,,,,,,,,,,,4,9,49,8,,,,,,,AFSA13.jpg,AFSA08.jpg,AFNE07.jpg,AFNE12.jpg,AFSA08.jpg,FS,4,num_6,32,num_8,1.21675360296,,,2017_Aug_14_1217,60.0034064871,FEMA4ImagesEEG,001,101141,
AFNE01.JPG,AFNE01.JPG,AFNE01.JPG,AFNE01.JPG,AFNE01.JPG,AFNE01.JPG,,,,,,,,,,,,,,,,,5,0,50,5,,,,,,,AFSA20.jpg,AFSA13.jpg,AFNE03.jpg,AFNE10.jpg,AFSA20.jpg,FS,4,num_8,32,num_6,1.08346203016,,,2017_Aug_14_1217,60.0034064871,FEMA4ImagesEEG,001,101141,
AFNE01.JPG,AFNE01.JPG,AFNE01.JPG,AFNE01.JPG,AFNE01.JPG,AFNE01.JPG,,,,,,,,,,,,,,,,,5,1,51,1,,,,,,,AFNE05.jpg,AFSA08.jpg,AFSA19.jpg,AFNE19.jpg,AFSA08.jpg,FS,4,num_6,16,num_6,1.20011071954,,,2017_Aug_14_1217,60.0034064871,FEMA4ImagesEEG,001,101141,
AFNE01.JPG,AFNE01.JPG,AFNE01.JPG,AFNE01.JPG,AFNE01.JPG,AFNE01.JPG,,,,,,,,,,,,,,,,,5,2,52,7,,,,,,,AFNE06.jpg,AFNE13.jpg,AFSA07.jpg,AFSA02.jpg,AFNE13.jpg,FN,3,num_6,32,num_8,1.60008807527,,,2017_Aug_14_1217,60.0034064871,FEMA4ImagesEEG,001,101141,
AFNE01.JPG,AFNE01.JPG,AFNE01.JPG,AFNE01.JPG,AFNE01.JPG,AFNE01.JPG,,,,,,,,,,,,,,,,,5,3,53,0,,,,,,,AFSA12.jpg,AFSA15.jpg,AFNE08.jpg,AFNE17.jpg,AFSA15.jpg,FS,4,num_6,32,num_8,1.15011342987,,,2017_Aug_14_1217,60.0034064871,FEMA4ImagesEEG,001,101141,
AFNE01.JPG,AFNE01.JPG,AFNE01.JPG,AFNE01.JPG,AFNE01.JPG,AFNE01.JPG,,,,,,,,,,,,,,,,,5,4,54,8,,,,,,,AFSA19.jpg,AFNE04.jpg,AFNE06.jpg,AFSA04.jpg,AFSA04.jpg,FS,4,num_4,16,num_4,0.433173636906,,,2017_Aug_14_1217,60.0034064871,FEMA4ImagesEEG,001,101141,
AFNE01.JPG,AFNE01.JPG,AFNE01.JPG,AFNE01.JPG,AFNE01.JPG,AFNE01.JPG,,,,,,,,,,,,,,,,,5,5,55,2,,,,,,,AFNE16.jpg,AFSA06.jpg,AFSA15.jpg,AFNE06.jpg,AFSA15.jpg,FS,4,num_2,16,num_2,2.01669676788,,,2017_Aug_14_1217,60.0034064871,FEMA4ImagesEEG,001,101141,
AFNE01.JPG,AFNE01.JPG,AFNE01.JPG,AFNE01.JPG,AFNE01.JPG,AFNE01.JPG,,,,,,,,,,,,,,,,,5,6,56,9,,,,,,,AFNE06.jpg,AFSA06.jpg,AFNE20.jpg,AFSA20.jpg,AFSA20.jpg,FS,4,num_4,32,num_6,1.05013552913,,,2017_Aug_14_1217,60.0034064871,FEMA4ImagesEEG,001,101141,
AFNE01.JPG,AFNE01.JPG,AFNE01.JPG,AFNE01.JPG,AFNE01.JPG,AFNE01.JPG,,,,,,,,,,,,,,,,,5,7,57,4,,,,,,,AFSA11.jpg,AFNE14.jpg,AFSA09.jpg,AFNE01.jpg,AFNE01.jpg,FN,3,num_4,32,num_2,1.9170530783,,,2017_Aug_14_1217,60.0034064871,FEMA4ImagesEEG,001,101141,
AFNE01.JPG,AFNE01.JPG,AFNE01.JPG,AFNE01.JPG,AFNE01.JPG,AFNE01.JPG,,,,,,,,,,,,,,,,,5,8,58,6,,,,,,,AFSA20.jpg,AFNE16.jpg,AFSA06.jpg,AFNE20.jpg,AFNE20.jpg,FN,3,num_4,32,num_8,0.866761349142,,,2017_Aug_14_1217,60.0034064871,FEMA4ImagesEEG,001,101141,
AFNE01.JPG,AFNE01.JPG,AFNE01.JPG,AFNE01.JPG,AFNE01.JPG,AFNE01.JPG,,,,,,,,,,,,,,,,,5,9,59,3,,,,,,,AFSA13.jpg,AFNE03.jpg,AFNE15.jpg,AFSA16.jpg,AFNE15.jpg,FN,3,num_2,16,num_2,1.11642545415,,,2017_Aug_14_1217,60.0034064871,FEMA4ImagesEEG,001,101141,
,,,,,,,,,,,,,,,,,,,,,,,,,,,,,,,,,,,,,,,,,,,space,14.3490582588,2017_Aug_14_1217,60.0034064871,FEMA4ImagesEEG,001,101141,
AFNE01.JPG,AFNE01.JPG,AFNE01.JPG,AFNE01.JPG,AFNE01.JPG,AFNE01.JPG,,,,,,,,,,,,,,,,,,,,,0,0,0,1,,,AMNE07.jpg,AMSA09.jpg,AMSA02.jpg,AMNE04.jpg,AMSA02.jpg,MS,2,num_2,32,num_4,0.850159519818,,,2017_Aug_14_1217,60.0034064871,FEMA4ImagesEEG,001,101141,
AFNE01.JPG,AFNE01.JPG,AFNE01.JPG,AFNE01.JPG,AFNE01.JPG,AFNE01.JPG,,,,,,,,,,,,,,,,,,,,,0,1,1,7,,,AMNE10.jpg,AMSA06.jpg,AMNE04.jpg,AMSA15.jpg,AMSA06.jpg,MS,2,num_6,16,num_6,1.46674710792,,,2017_Aug_14_1217,60.0034064871,FEMA4ImagesEEG,001,101141,
AFNE01.JPG,AFNE01.JPG,AFNE01.JPG,AFNE01.JPG,AFNE01.JPG,AFNE01.JPG,,,,,,,,,,,,,,,,,,,,,0,2,2,2,,,AMSA11.jpg,AMNE11.jpg,AMSA19.jpg,AMNE01.jpg,AMSA11.jpg,MS,2,num_8,32,num_2,0.833539088257,,,2017_Aug_14_1217,60.0034064871,FEMA4ImagesEEG,001,101141,
AFNE01.JPG,AFNE01.JPG,AFNE01.JPG,AFNE01.JPG,AFNE01.JPG,AFNE01.JPG,,,,,,,,,,,,,,,,,,,,,0,3,3,3,,,AMSA09.jpg,AMNE09.jpg,AMNE01.jpg,AMSA14.jpg,AMSA14.jpg,MS,2,num_4,32,num_2,1.41670555668,,,2017_Aug_14_1217,60.0034064871,FEMA4ImagesEEG,001,101141,
AFNE01.JPG,AFNE01.JPG,AFNE01.JPG,AFNE01.JPG,AFNE01.JPG,AFNE01.JPG,,,,,,,,,,,,,,,,,,,,,0,4,4,9,,,AMNE13.jpg,AMSA20.jpg,AMSA09.jpg,AMNE20.jpg,AMNE20.jpg,MN,1,num_4,32,num_8,0.967096554581,,,2017_Aug_14_1217,60.0034064871,FEMA4ImagesEEG,001,101141,
AFNE01.JPG,AFNE01.JPG,AFNE01.JPG,AFNE01.JPG,AFNE01.JPG,AFNE01.JPG,,,,,,,,,,,,,,,,,,,,,0,5,5,0,,,AMNE02.jpg,AMNE16.jpg,AMSA09.jpg,AMSA11.jpg,AMSA09.jpg,MS,2,num_2,16,num_2,0.783486310393,,,2017_Aug_14_1217,60.0034064871,FEMA4ImagesEEG,001,101141,
AFNE01.JPG,AFNE01.JPG,AFNE01.JPG,AFNE01.JPG,AFNE01.JPG,AFNE01.JPG,,,,,,,,,,,,,,,,,,,,,0,6,6,6,,,AMSA15.jpg,AMNE17.jpg,AMNE16.jpg,AMSA05.jpg,AMSA15.jpg,MS,2,num_8,32,num_4,1.03354396299,,,2017_Aug_14_1217,60.0034064871,FEMA4ImagesEEG,001,101141,
AFNE01.JPG,AFNE01.JPG,AFNE01.JPG,AFNE01.JPG,AFNE01.JPG,AFNE01.JPG,,,,,,,,,,,,,,,,,,,,,0,7,7,4,,,AMSA17.jpg,AMNE08.jpg,AMSA02.jpg,AMNE15.jpg,AMSA02.jpg,MS,2,num_2,16,num_2,1.03346538218,,,2017_Aug_14_1217,60.0034064871,FEMA4ImagesEEG,001,101141,
AFNE01.JPG,AFNE01.JPG,AFNE01.JPG,AFNE01.JPG,AFNE01.JPG,AFNE01.JPG,,,,,,,,,,,,,,,,,,,,,0,8,8,8,,,AMNE16.jpg,AMSA05.jpg,AMSA01.jpg,AMNE15.jpg,AMNE16.jpg,MN,1,num_8,32,num_6,0.900119924452,,,2017_Aug_14_1217,60.0034064871,FEMA4ImagesEEG,001,101141,
AFNE01.JPG,AFNE01.JPG,AFNE01.JPG,AFNE01.JPG,AFNE01.JPG,AFNE01.JPG,,,,,,,,,,,,,,,,,,,,,0,9,9,5,,,AMNE05.jpg,AMSA10.jpg,AMNE12.jpg,AMSA18.jpg,AMNE12.jpg,MN,1,num_2,32,num_8,0.95012844028,,,2017_Aug_14_1217,60.0034064871,FEMA4ImagesEEG,001,101141,
AFNE01.JPG,AFNE01.JPG,AFNE01.JPG,AFNE01.JPG,AFNE01.JPG,AFNE01.JPG,,,,,,,,,,,,,,,,,,,,,1,0,10,6,,,AMSA05.jpg,AMNE12.jpg,AMSA03.jpg,AMNE14.jpg,AMSA05.jpg,MS,2,num_8,32,num_2,1.51671617292,,,2017_Aug_14_1217,60.0034064871,FEMA4ImagesEEG,001,101141,
AFNE01.JPG,AFNE01.JPG,AFNE01.JPG,AFNE01.JPG,AFNE01.JPG,AFNE01.JPG,,,,,,,,,,,,,,,,,,,,,1,1,11,7,,,AMNE15.jpg,AMSA05.jpg,AMNE08.jpg,AMSA11.jpg,AMNE08.jpg,MN,1,num_2,16,num_2,1.20022041257,,,2017_Aug_14_1217,60.0034064871,FEMA4ImagesEEG,001,101141,
AFNE01.JPG,AFNE01.JPG,AFNE01.JPG,AFNE01.JPG,AFNE01.JPG,AFNE01.JPG,,,,,,,,,,,,,,,,,,,,,1,2,12,2,,,AMNE17.jpg,AMNE14.jpg,AMSA09.jpg,AMSA06.jpg,AMNE14.jpg,MN,1,num_6,32,num_4,2.24970002798,,,2017_Aug_14_1217,60.0034064871,FEMA4ImagesEEG,001,101141,
AFNE01.JPG,AFNE01.JPG,AFNE01.JPG,AFNE01.JPG,AFNE01.JPG,AFNE01.JPG,,,,,,,,,,,,,,,,,,,,,1,3,13,8,,,AMNE15.jpg,AMSA16.jpg,AMNE17.jpg,AMSA01.jpg,AMNE15.jpg,MN,1,num_8,16,num_8,1.9000551356,,,2017_Aug_14_1217,60.0034064871,FEMA4ImagesEEG,001,101141,
AFNE01.JPG,AFNE01.JPG,AFNE01.JPG,AFNE01.JPG,AFNE01.JPG,AFNE01.JPG,,,,,,,,,,,,,,,,,,,,,1,4,14,3,,,AMNE17.jpg,AMSA03.jpg,AMNE16.jpg,AMSA17.jpg,AMSA03.jpg,MS,2,num_6,32,num_2,1.33344046026,,,2017_Aug_14_1217,60.0034064871,FEMA4ImagesEEG,001,101141,
AFNE01.JPG,AFNE01.JPG,AFNE01.JPG,AFNE01.JPG,AFNE01.JPG,AFNE01.JPG,,,,,,,,,,,,,,,,,,,,,1,5,15,1,,,AMSA17.jpg,AMNE09.jpg,AMSA19.jpg,AMNE05.jpg,AMNE05.jpg,MN,1,num_4,16,num_4,1.50041327393,,,2017_Aug_14_1217,60.0034064871,FEMA4ImagesEEG,001,101141,
AFNE01.JPG,AFNE01.JPG,AFNE01.JPG,AFNE01.JPG,AFNE01.JPG,AFNE01.JPG,,,,,,,,,,,,,,,,,,,,,1,6,16,0,,,AMNE01.jpg,AMSA05.jpg,AMSA07.jpg,AMNE12.jpg,AMSA05.jpg,MS,2,num_6,16,num_6,1.25012629107,,,2017_Aug_14_1217,60.0034064871,FEMA4ImagesEEG,001,101141,
AFNE01.JPG,AFNE01.JPG,AFNE01.JPG,AFNE01.JPG,AFNE01.JPG,AFNE01.JPG,,,,,,,,,,,,,,,,,,,,,1,7,17,9,,,AMSA05.jpg,AMNE20.jpg,AMSA02.jpg,AMNE07.jpg,AMSA02.jpg,MS,2,num_2,16,num_2,0.533502748236,,,2017_Aug_14_1217,60.0034064871,FEMA4ImagesEEG,001,101141,
AFNE01.JPG,AFNE01.JPG,AFNE01.JPG,AFNE01.JPG,AFNE01.JPG,AFNE01.JPG,,,,,,,,,,,,,,,,,,,,,1,8,18,4,,,AMSA05.jpg,AMSA14.jpg,AMNE14.jpg,AMNE16.jpg,AMSA14.jpg,MS,2,num_6,16,num_6,0.850129370578,,,2017_Aug_14_1217,60.0034064871,FEMA4ImagesEEG,001,101141,
AFNE01.JPG,AFNE01.JPG,AFNE01.JPG,AFNE01.JPG,AFNE01.JPG,AFNE01.JPG,,,,,,,,,,,,,,,,,,,,,1,9,19,5,,,AMSA14.jpg,AMNE05.jpg,AMNE03.jpg,AMSA10.jpg,AMNE03.jpg,MN,1,num_2,16,num_2,1.16673642723,,,2017_Aug_14_1217,60.0034064871,FEMA4ImagesEEG,001,101141,
AFNE01.JPG,AFNE01.JPG,AFNE01.JPG,AFNE01.JPG,AFNE01.JPG,AFNE01.JPG,,,,,,,,,,,,,,,,,,,,,2,0,20,2,,,AMSA12.jpg,AMNE20.jpg,AMNE11.jpg,AMSA10.jpg,AMSA12.jpg,MS,2,num_8,32,num_4,1.06673767883,,,2017_Aug_14_1217,60.0034064871,FEMA4ImagesEEG,001,101141,
AFNE01.JPG,AFNE01.JPG,AFNE01.JPG,AFNE01.JPG,AFNE01.JPG,AFNE01.JPG,,,,,,,,,,,,,,,,,,,,,2,1,21,8,,,AMNE14.jpg,AMSA05.jpg,AMSA12.jpg,AMNE07.jpg,AMNE14.jpg,MN,1,num_8,32,num_6,1.20012996346,,,2017_Aug_14_1217,60.0034064871,FEMA4ImagesEEG,001,101141,
AFNE01.JPG,AFNE01.JPG,AFNE01.JPG,AFNE01.JPG,AFNE01.JPG,AFNE01.JPG,,,,,,,,,,,,,,,,,,,,,2,2,22,7,,,AMNE03.jpg,AMSA07.jpg,AMSA01.jpg,AMNE11.jpg,AMSA01.jpg,MS,2,num_2,16,num_2,0.966781587806,,,2017_Aug_14_1217,60.0034064871,FEMA4ImagesEEG,001,101141,
AFNE01.JPG,AFNE01.JPG,AFNE01.JPG,AFNE01.JPG,AFNE01.JPG,AFNE01.JPG,,,,,,,,,,,,,,,,,,,,,2,3,23,1,,,AMNE05.jpg,AMSA20.jpg,AMSA10.jpg,AMNE11.jpg,AMSA20.jpg,MS,2,num_6,16,num_6,0.800163192209,,,2017_Aug_14_1217,60.0034064871,FEMA4ImagesEEG,001,101141,
AFNE01.JPG,AFNE01.JPG,AFNE01.JPG,AFNE01.JPG,AFNE01.JPG,AFNE01.JPG,,,,,,,,,,,,,,,,,,,,,2,4,24,4,,,AMNE20.jpg,AMNE17.jpg,AMSA06.jpg,AMSA01.jpg,AMSA06.jpg,MS,2,num_2,32,num_8,1.23343593813,,,2017_Aug_14_1217,60.0034064871,FEMA4ImagesEEG,001,101141,
AFNE01.JPG,AFNE01.JPG,AFNE01.JPG,AFNE01.JPG,AFNE01.JPG,AFNE01.JPG,,,,,,,,,,,,,,,,,,,,,2,5,25,0,,,AMNE01.jpg,AMSA09.jpg,AMNE06.jpg,AMSA08.jpg,AMSA09.jpg,MS,2,num_6,16,num_6,2.60035621421,,,2017_Aug_14_1217,60.0034064871,FEMA4ImagesEEG,001,101141,
AFNE01.JPG,AFNE01.JPG,AFNE01.JPG,AFNE01.JPG,AFNE01.JPG,AFNE01.JPG,,,,,,,,,,,,,,,,,,,,,2,6,26,9,,,AMSA07.jpg,AMSA11.jpg,AMNE15.jpg,AMNE20.jpg,AMNE15.jpg,MN,1,num_2,32,num_6,1.81667040335,,,2017_Aug_14_1217,60.0034064871,FEMA4ImagesEEG,001,101141,
AFNE01.JPG,AFNE01.JPG,AFNE01.JPG,AFNE01.JPG,AFNE01.JPG,AFNE01.JPG,,,,,,,,,,,,,,,,,,,,,2,7,27,5,,,AMSA14.jpg,AMSA06.jpg,AMNE08.jpg,AMNE07.jpg,AMNE07.jpg,MN,1,num_4,32,num_8,0.966809492093,,,2017_Aug_14_1217,60.0034064871,FEMA4ImagesEEG,001,101141,
AFNE01.JPG,AFNE01.JPG,AFNE01.JPG,AFNE01.JPG,AFNE01.JPG,AFNE01.JPG,,,,,,,,,,,,,,,,,,,,,2,8,28,3,,,AMNE01.jpg,AMSA12.jpg,AMNE13.jpg,AMSA18.jpg,AMNE01.jpg,MN,1,num_8,16,num_8,1.46658128547,,,2017_Aug_14_1217,60.0034064871,FEMA4ImagesEEG,001,101141,
AFNE01.JPG,AFNE01.JPG,AFNE01.JPG,AFNE01.JPG,AFNE01.JPG,AFNE01.JPG,,,,,,,,,,,,,,,,,,,,,2,9,29,6,,,AMNE10.jpg,AMSA11.jpg,AMSA07.jpg,AMNE02.jpg,AMSA11.jpg,MS,2,num_6,16,num_6,0.95025449153,,,2017_Aug_14_1217,60.0034064871,FEMA4ImagesEEG,001,101141,
AFNE01.JPG,AFNE01.JPG,AFNE01.JPG,AFNE01.JPG,AFNE01.JPG,AFNE01.JPG,,,,,,,,,,,,,,,,,,,,,3,0,30,9,,,AMSA18.jpg,AMSA02.jpg,AMNE09.jpg,AMNE10.jpg,AMSA02.jpg,MS,2,num_6,32,num_8,0.683502956759,,,2017_Aug_14_1217,60.0034064871,FEMA4ImagesEEG,001,101141,
AFNE01.JPG,AFNE01.JPG,AFNE01.JPG,AFNE01.JPG,AFNE01.JPG,AFNE01.JPG,,,,,,,,,,,,,,,,,,,,,3,1,31,1,,,AMSA06.jpg,AMSA13.jpg,AMNE08.jpg,AMNE15.jpg,AMNE15.jpg,MN,1,num_4,16,num_4,1.2834560005,,,2017_Aug_14_1217,60.0034064871,FEMA4ImagesEEG,001,101141,
AFNE01.JPG,AFNE01.JPG,AFNE01.JPG,AFNE01.JPG,AFNE01.JPG,AFNE01.JPG,,,,,,,,,,,,,,,,,,,,,3,2,32,5,,,AMNE09.jpg,AMNE02.jpg,AMSA16.jpg,AMSA11.jpg,AMNE02.jpg,MN,1,num_6,32,num_2,1.39996677125,,,2017_Aug_14_1217,60.0034064871,FEMA4ImagesEEG,001,101141,
AFNE01.JPG,AFNE01.JPG,AFNE01.JPG,AFNE01.JPG,AFNE01.JPG,AFNE01.JPG,,,,,,,,,,,,,,,,,,,,,3,3,33,6,,,AMNE03.jpg,AMSA13.jpg,AMNE07.jpg,AMSA20.jpg,AMNE07.jpg,MN,1,num_2,16,num_2,1.34979147092,,,2017_Aug_14_1217,60.0034064871,FEMA4ImagesEEG,001,101141,
AFNE01.JPG,AFNE01.JPG,AFNE01.JPG,AFNE01.JPG,AFNE01.JPG,AFNE01.JPG,,,,,,,,,,,,,,,,,,,,,3,4,34,0,,,AMNE16.jpg,AMNE06.jpg,AMSA17.jpg,AMSA14.jpg,AMNE16.jpg,MN,1,num_8,16,num_8,1.45009299833,,,2017_Aug_14_1217,60.0034064871,FEMA4ImagesEEG,001,101141,
AFNE01.JPG,AFNE01.JPG,AFNE01.JPG,AFNE01.JPG,AFNE01.JPG,AFNE01.JPG,,,,,,,,,,,,,,,,,,,,,3,5,35,3,,,AMNE02.jpg,AMSA18.jpg,AMNE20.jpg,AMSA20.jpg,AMNE02.jpg,MN,1,num_8,16,num_8,1.46682665171,,,2017_Aug_14_1217,60.0034064871,FEMA4ImagesEEG,001,101141,
AFNE01.JPG,AFNE01.JPG,AFNE01.JPG,AFNE01.JPG,AFNE01.JPG,AFNE01.JPG,,,,,,,,,,,,,,,,,,,,,3,6,36,2,,,AMNE17.jpg,AMSA19.jpg,AMNE13.jpg,AMSA10.jpg,AMSA19.jpg,MS,2,num_6,32,num_2,1.61701641791,,,2017_Aug_14_1217,60.0034064871,FEMA4ImagesEEG,001,101141,
AFNE01.JPG,AFNE01.JPG,AFNE01.JPG,AFNE01.JPG,AFNE01.JPG,AFNE01.JPG,,,,,,,,,,,,,,,,,,,,,3,7,37,7,,,AMSA11.jpg,AMNE02.jpg,AMNE19.jpg,AMSA05.jpg,AMSA05.jpg,MS,2,num_4,16,num_4,1.95010181889,,,2017_Aug_14_1217,60.0034064871,FEMA4ImagesEEG,001,101141,
AFNE01.JPG,AFNE01.JPG,AFNE01.JPG,AFNE01.JPG,AFNE01.JPG,AFNE01.JPG,,,,,,,,,,,,,,,,,,,,,3,8,38,4,,,AMSA19.jpg,AMSA07.jpg,AMNE19.jpg,AMNE03.jpg,AMNE03.jpg,MN,1,num_4,32,num_8,2.90002915543,,,2017_Aug_14_1217,60.0034064871,FEMA4ImagesEEG,001,101141,
AFNE01.JPG,AFNE01.JPG,AFNE01.JPG,AFNE01.JPG,AFNE01.JPG,AFNE01.JPG,,,,,,,,,,,,,,,,,,,,,3,9,39,8,,,AMSA04.jpg,AMNE03.jpg,AMSA05.jpg,AMNE13.jpg,AMSA04.jpg,MS,2,num_8,16,num_8,0.816735834349,,,2017_Aug_14_1217,60.0034064871,FEMA4ImagesEEG,001,101141,
