IPosition2,IPosition3,IPosition1,IPosition6,IPosition4,IPosition5,TrialsF1.thisRepN,TrialsF1.thisTrialN,TrialsF1.thisN,TrialsF1.thisIndex,TrialsM1.thisRepN,TrialsM1.thisTrialN,TrialsM1.thisN,TrialsM1.thisIndex,TrialsF2.thisRepN,TrialsF2.thisTrialN,TrialsF2.thisN,TrialsF2.thisIndex,TrialsM2.thisRepN,TrialsM2.thisTrialN,TrialsM2.thisN,TrialsM2.thisIndex,TrialsF3.thisRepN,TrialsF3.thisTrialN,TrialsF3.thisN,TrialsF3.thisIndex,TrialsM3.thisRepN,TrialsM3.thisTrialN,TrialsM3.thisN,TrialsM3.thisIndex,InstrKey_resp.keys,InstrKey_resp.rt,Image0 _Position,Image1 _Position,Image2 _Position,Image3 _Position,Center_image,condition,code,correct_answer,accuracy,Key_Resp.keys,Key_Resp.rt,BreakKey_resp.keys,BreakKey_resp.rt,date,frameRate,expName,session,participant,
,,,,,,,,,,,,,,,,,,,,,,,,,,,,,,space,21.9155226149,,,,,,,,,,,,,,2017_Aug_15_1406,60.0053311685,FEMA4ImagesEEG,001,101267,
AFSA21.JPG,AFNE23.JPG,AFNE21.JPG,AFSA25.JPG,AFNE25.JPG,AFSA23.JPG,0,0,0,4,,,,,,,,,,,,,,,,,,,,,,,AFSA20.jpg,AFNE01.jpg,AFNE02.jpg,AFSA15.jpg,AFNE02.jpg,FN,3,num_2,32,num_4,2.13332219297,,,2017_Aug_15_1406,60.0053311685,FEMA4ImagesEEG,001,101267,
AMSA25.JPG,AMNE24.JPG,AMSA24.JPG,AMNE26.JPG,AMSA21.JPG,AMNE25.JPG,0,1,1,3,,,,,,,,,,,,,,,,,,,,,,,AFNE16.jpg,AFSA18.jpg,AFSA12.jpg,AFNE05.jpg,AFSA12.jpg,FS,4,num_2,16,num_2,1.35010695065,,,2017_Aug_15_1406,60.0053311685,FEMA4ImagesEEG,001,101267,
AFSA21.JPG,AFNE22.JPG,AFNE21.JPG,AFSA23.JPG,AFSA22.JPG,AFNE23.JPG,0,2,2,0,,,,,,,,,,,,,,,,,,,,,,,AFNE13.jpg,AFSA12.jpg,AFSA05.jpg,AFNE19.jpg,AFNE19.jpg,FN,3,num_4,32,num_8,1.58339504899,,,2017_Aug_15_1406,60.0053311685,FEMA4ImagesEEG,001,101267,
AMSA21.JPG,AMNE22.JPG,AMNE21.JPG,AMSA23.JPG,AMSA22.JPG,AMNE23.JPG,0,3,3,1,,,,,,,,,,,,,,,,,,,,,,,AFSA11.jpg,AFNE06.jpg,AFNE15.jpg,AFSA18.jpg,AFSA18.jpg,FS,4,num_4,16,num_4,0.450273959825,,,2017_Aug_15_1406,60.0053311685,FEMA4ImagesEEG,001,101267,
AFNE23.JPG,AFNE24.JPG,AFNE22.JPG,AFSA24.JPG,AFSA22.JPG,AFSA23.JPG,0,4,4,8,,,,,,,,,,,,,,,,,,,,,,,AFSA17.jpg,AFSA10.jpg,AFNE09.jpg,AFNE07.jpg,AFNE09.jpg,FN,3,num_2,16,num_2,1.03340183265,,,2017_Aug_15_1406,60.0053311685,FEMA4ImagesEEG,001,101267,
AMNE22.JPG,AMSA24.JPG,AMSA22.JPG,AMNE25.JPG,AMNE24.JPG,AMSA25.JPG,0,5,5,7,,,,,,,,,,,,,,,,,,,,,,,AFNE01.jpg,AFNE11.jpg,AFSA06.jpg,AFSA10.jpg,AFSA06.jpg,FS,4,num_2,16,num_2,1.13348512874,,,2017_Aug_15_1406,60.0053311685,FEMA4ImagesEEG,001,101267,
AFSA25.JPG,AFNE24.JPG,AFSA24.JPG,AFNE21.JPG,AFSA21.JPG,AFNE25.JPG,0,6,6,2,,,,,,,,,,,,,,,,,,,,,,,AFNE20.jpg,AFNE12.jpg,AFSA19.jpg,AFSA12.jpg,AFSA19.jpg,FS,4,num_2,16,num_2,1.00013631438,,,2017_Aug_15_1406,60.0053311685,FEMA4ImagesEEG,001,101267,
AMNE23.JPG,AMNE24.JPG,AMNE22.JPG,AMSA24.JPG,AMSA22.JPG,AMSA23.JPG,0,7,7,9,,,,,,,,,,,,,,,,,,,,,,,AFNE15.jpg,AFSA19.jpg,AFSA20.jpg,AFNE14.jpg,AFNE15.jpg,FN,3,num_8,32,num_6,1.78337208404,,,2017_Aug_15_1406,60.0053311685,FEMA4ImagesEEG,001,101267,
AMSA21.JPG,AMNE23.JPG,AMNE21.JPG,AMSA25.JPG,AMNE25.JPG,AMSA23.JPG,0,8,8,5,,,,,,,,,,,,,,,,,,,,,,,AFNE01.jpg,AFSA02.jpg,AFSA11.jpg,AFNE02.jpg,AFSA02.jpg,FS,4,num_6,32,num_4,1.95001047215,,,2017_Aug_15_1406,60.0053311685,FEMA4ImagesEEG,001,101267,
AFNE22.JPG,AFSA24.JPG,AFSA22.JPG,AFNE25.JPG,AFNE24.JPG,AFSA25.JPG,0,9,9,6,,,,,,,,,,,,,,,,,,,,,,,AFNE12.jpg,AFSA09.jpg,AFSA07.jpg,AFNE07.jpg,AFSA09.jpg,FS,4,num_6,16,num_6,1.08358187988,,,2017_Aug_15_1406,60.0053311685,FEMA4ImagesEEG,001,101267,
AMNE22.JPG,AMSA24.JPG,AMSA22.JPG,AMNE25.JPG,AMNE24.JPG,AMSA25.JPG,,,,,0,0,0,7,,,,,,,,,,,,,,,,,,,AMNE16.jpg,AMNE03.jpg,AMSA13.jpg,AMSA20.jpg,AMNE16.jpg,MN,1,num_8,16,num_8,1.35009508328,,,2017_Aug_15_1406,60.0053311685,FEMA4ImagesEEG,001,101267,
AFSA21.JPG,AFNE23.JPG,AFNE21.JPG,AFSA25.JPG,AFNE25.JPG,AFSA23.JPG,,,,,0,1,1,4,,,,,,,,,,,,,,,,,,,AMNE17.jpg,AMNE20.jpg,AMSA09.jpg,AMSA12.jpg,AMNE17.jpg,MN,1,num_8,48,None,,,,2017_Aug_15_1406,60.0053311685,FEMA4ImagesEEG,001,101267,
AFNE22.JPG,AFSA24.JPG,AFSA22.JPG,AFNE25.JPG,AFNE24.JPG,AFSA25.JPG,,,,,0,2,2,6,,,,,,,,,,,,,,,,,,,AMNE09.jpg,AMNE03.jpg,AMSA17.jpg,AMSA18.jpg,AMNE09.jpg,MN,1,num_8,32,num_6,2.16653767585,,,2017_Aug_15_1406,60.0053311685,FEMA4ImagesEEG,001,101267,
AMSA21.JPG,AMNE23.JPG,AMNE21.JPG,AMSA25.JPG,AMNE25.JPG,AMSA23.JPG,,,,,0,3,3,5,,,,,,,,,,,,,,,,,,,AMNE04.jpg,AMNE16.jpg,AMSA08.jpg,AMSA02.jpg,AMNE04.jpg,MN,1,num_8,16,num_8,1.61675101586,,,2017_Aug_15_1406,60.0053311685,FEMA4ImagesEEG,001,101267,
AFNE23.JPG,AFNE24.JPG,AFNE22.JPG,AFSA24.JPG,AFSA22.JPG,AFSA23.JPG,,,,,0,4,4,8,,,,,,,,,,,,,,,,,,,AMNE09.jpg,AMNE10.jpg,AMSA04.jpg,AMSA15.jpg,AMSA15.jpg,MS,2,num_4,16,num_4,0.916769330099,,,2017_Aug_15_1406,60.0053311685,FEMA4ImagesEEG,001,101267,
AFSA21.JPG,AFNE22.JPG,AFNE21.JPG,AFSA23.JPG,AFSA22.JPG,AFNE23.JPG,,,,,0,5,5,0,,,,,,,,,,,,,,,,,,,AMSA05.jpg,AMNE16.jpg,AMNE05.jpg,AMSA17.jpg,AMNE16.jpg,MN,1,num_6,16,num_6,0.850095885122,,,2017_Aug_15_1406,60.0053311685,FEMA4ImagesEEG,001,101267,
AMNE23.JPG,AMNE24.JPG,AMNE22.JPG,AMSA24.JPG,AMSA22.JPG,AMSA23.JPG,,,,,0,6,6,9,,,,,,,,,,,,,,,,,,,AMNE10.jpg,AMSA12.jpg,AMNE07.jpg,AMSA07.jpg,AMNE07.jpg,MN,1,num_2,32,num_8,0.933283896651,,,2017_Aug_15_1406,60.0053311685,FEMA4ImagesEEG,001,101267,
AFSA25.JPG,AFNE24.JPG,AFSA24.JPG,AFNE21.JPG,AFSA21.JPG,AFNE25.JPG,,,,,0,7,7,2,,,,,,,,,,,,,,,,,,,AMNE05.jpg,AMSA09.jpg,AMSA19.jpg,AMNE07.jpg,AMSA09.jpg,MS,2,num_6,16,num_6,1.46669390815,,,2017_Aug_15_1406,60.0053311685,FEMA4ImagesEEG,001,101267,
AMSA25.JPG,AMNE24.JPG,AMSA24.JPG,AMNE26.JPG,AMSA21.JPG,AMNE25.JPG,,,,,0,8,8,3,,,,,,,,,,,,,,,,,,,AMNE08.jpg,AMSA14.jpg,AMNE01.jpg,AMSA11.jpg,AMSA11.jpg,MS,2,num_4,32,num_8,1.18343103598,,,2017_Aug_15_1406,60.0053311685,FEMA4ImagesEEG,001,101267,
AMSA21.JPG,AMNE22.JPG,AMNE21.JPG,AMSA23.JPG,AMSA22.JPG,AMNE23.JPG,,,,,0,9,9,1,,,,,,,,,,,,,,,,,,,AMNE06.jpg,AMSA18.jpg,AMSA10.jpg,AMNE02.jpg,AMNE06.jpg,MN,1,num_8,16,num_8,1.18344514853,,,2017_Aug_15_1406,60.0053311685,FEMA4ImagesEEG,001,101267,
AMSA21.JPG,AMNE22.JPG,AMNE21.JPG,AMSA23.JPG,AMSA22.JPG,AMNE23.JPG,,,,,,,,,0,0,0,1,,,,,,,,,,,,,,,AFNE03.jpg,AFSA03.jpg,AFNE11.jpg,AFSA19.jpg,AFSA03.jpg,FS,4,num_6,16,num_6,1.00012284331,,,2017_Aug_15_1406,60.0053311685,FEMA4ImagesEEG,001,101267,
AMSA21.JPG,AMNE23.JPG,AMNE21.JPG,AMSA25.JPG,AMNE25.JPG,AMSA23.JPG,,,,,,,,,0,1,1,5,,,,,,,,,,,,,,,AFNE11.jpg,AFSA15.jpg,AFNE09.jpg,AFSA12.jpg,AFSA12.jpg,FS,4,num_4,16,num_4,0.600192828701,,,2017_Aug_15_1406,60.0053311685,FEMA4ImagesEEG,001,101267,
AFNE22.JPG,AFSA24.JPG,AFSA22.JPG,AFNE25.JPG,AFNE24.JPG,AFSA25.JPG,,,,,,,,,0,2,2,6,,,,,,,,,,,,,,,AFNE17.jpg,AFSA05.jpg,AFSA18.jpg,AFNE08.jpg,AFNE08.jpg,FN,3,num_4,16,num_4,1.31671057058,,,2017_Aug_15_1406,60.0053311685,FEMA4ImagesEEG,001,101267,
AMNE23.JPG,AMNE24.JPG,AMNE22.JPG,AMSA24.JPG,AMSA22.JPG,AMSA23.JPG,,,,,,,,,0,3,3,9,,,,,,,,,,,,,,,AFNE07.jpg,AFSA16.jpg,AFSA11.jpg,AFNE05.jpg,AFSA16.jpg,FS,4,num_6,16,num_6,0.716847783027,,,2017_Aug_15_1406,60.0053311685,FEMA4ImagesEEG,001,101267,
AMSA25.JPG,AMNE24.JPG,AMSA24.JPG,AMNE26.JPG,AMSA21.JPG,AMNE25.JPG,,,,,,,,,0,4,4,3,,,,,,,,,,,,,,,AFNE01.jpg,AFSA04.jpg,AFSA20.jpg,AFNE10.jpg,AFSA20.jpg,FS,4,num_2,32,num_4,1.11660042856,,,2017_Aug_15_1406,60.0053311685,FEMA4ImagesEEG,001,101267,
AFSA25.JPG,AFNE24.JPG,AFSA24.JPG,AFNE21.JPG,AFSA21.JPG,AFNE25.JPG,,,,,,,,,0,5,5,2,,,,,,,,,,,,,,,AFSA13.jpg,AFNE02.jpg,AFSA14.jpg,AFNE17.jpg,AFSA13.jpg,FS,4,num_8,16,num_8,0.80021123917,,,2017_Aug_15_1406,60.0053311685,FEMA4ImagesEEG,001,101267,
AFSA21.JPG,AFNE22.JPG,AFNE21.JPG,AFSA23.JPG,AFSA22.JPG,AFNE23.JPG,,,,,,,,,0,6,6,0,,,,,,,,,,,,,,,AFSA07.jpg,AFSA04.jpg,AFNE17.jpg,AFNE02.jpg,AFSA04.jpg,FS,4,num_6,16,num_6,1.1667650803,,,2017_Aug_15_1406,60.0053311685,FEMA4ImagesEEG,001,101267,
AMNE22.JPG,AMSA24.JPG,AMSA22.JPG,AMNE25.JPG,AMNE24.JPG,AMSA25.JPG,,,,,,,,,0,7,7,7,,,,,,,,,,,,,,,AFNE11.jpg,AFSA13.jpg,AFNE06.jpg,AFSA02.jpg,AFNE11.jpg,FN,3,num_8,16,num_8,0.683319578951,,,2017_Aug_15_1406,60.0053311685,FEMA4ImagesEEG,001,101267,
AFSA21.JPG,AFNE23.JPG,AFNE21.JPG,AFSA25.JPG,AFNE25.JPG,AFSA23.JPG,,,,,,,,,0,8,8,4,,,,,,,,,,,,,,,AFSA18.jpg,AFSA20.jpg,AFNE17.jpg,AFNE08.jpg,AFSA18.jpg,FS,4,num_8,32,num_4,1.2000825584,,,2017_Aug_15_1406,60.0053311685,FEMA4ImagesEEG,001,101267,
AFNE23.JPG,AFNE24.JPG,AFNE22.JPG,AFSA24.JPG,AFSA22.JPG,AFSA23.JPG,,,,,,,,,0,9,9,8,,,,,,,,,,,,,,,AFSA08.jpg,AFNE11.jpg,AFNE06.jpg,AFSA10.jpg,AFSA10.jpg,FS,4,num_4,16,num_4,0.983463623139,,,2017_Aug_15_1406,60.0053311685,FEMA4ImagesEEG,001,101267,
AMSA21.JPG,AMNE23.JPG,AMNE21.JPG,AMSA25.JPG,AMNE25.JPG,AMSA23.JPG,,,,,,,,,,,,,0,0,0,5,,,,,,,,,,,AMSA07.jpg,AMSA13.jpg,AMNE02.jpg,AMNE05.jpg,AMSA07.jpg,MS,2,num_8,16,num_8,1.18339671683,,,2017_Aug_15_1406,60.0053311685,FEMA4ImagesEEG,001,101267,
AMSA25.JPG,AMNE24.JPG,AMSA24.JPG,AMNE26.JPG,AMSA21.JPG,AMNE25.JPG,,,,,,,,,,,,,0,1,1,3,,,,,,,,,,,AMSA16.jpg,AMSA12.jpg,AMNE11.jpg,AMNE08.jpg,AMNE11.jpg,MN,1,num_2,16,num_2,1.61668750939,,,2017_Aug_15_1406,60.0053311685,FEMA4ImagesEEG,001,101267,
AFSA21.JPG,AFNE23.JPG,AFNE21.JPG,AFSA25.JPG,AFNE25.JPG,AFSA23.JPG,,,,,,,,,,,,,0,2,2,4,,,,,,,,,,,AMSA17.jpg,AMSA20.jpg,AMNE03.jpg,AMNE06.jpg,AMNE03.jpg,MN,1,num_2,32,num_8,1.10010542713,,,2017_Aug_15_1406,60.0053311685,FEMA4ImagesEEG,001,101267,
AFSA25.JPG,AFNE24.JPG,AFSA24.JPG,AFNE21.JPG,AFSA21.JPG,AFNE25.JPG,,,,,,,,,,,,,0,3,3,2,,,,,,,,,,,AMSA09.jpg,AMNE14.jpg,AMSA14.jpg,AMNE07.jpg,AMSA09.jpg,MS,2,num_8,16,num_8,1.11684515297,,,2017_Aug_15_1406,60.0053311685,FEMA4ImagesEEG,001,101267,
AFSA21.JPG,AFNE22.JPG,AFNE21.JPG,AFSA23.JPG,AFSA22.JPG,AFNE23.JPG,,,,,,,,,,,,,0,4,4,0,,,,,,,,,,,AMNE08.jpg,AMSA16.jpg,AMSA09.jpg,AMNE17.jpg,AMNE17.jpg,MN,1,num_4,16,num_4,0.783478248879,,,2017_Aug_15_1406,60.0053311685,FEMA4ImagesEEG,001,101267,
AMNE22.JPG,AMSA24.JPG,AMSA22.JPG,AMNE25.JPG,AMNE24.JPG,AMSA25.JPG,,,,,,,,,,,,,0,5,5,7,,,,,,,,,,,AMSA14.jpg,AMNE07.jpg,AMNE13.jpg,AMSA16.jpg,AMSA14.jpg,MS,2,num_8,16,num_8,1.08340098268,,,2017_Aug_15_1406,60.0053311685,FEMA4ImagesEEG,001,101267,
AMNE23.JPG,AMNE24.JPG,AMNE22.JPG,AMSA24.JPG,AMSA22.JPG,AMSA23.JPG,,,,,,,,,,,,,0,6,6,9,,,,,,,,,,,AMSA12.jpg,AMNE12.jpg,AMSA01.jpg,AMNE15.jpg,AMSA12.jpg,MS,2,num_8,16,num_8,0.816748578247,,,2017_Aug_15_1406,60.0053311685,FEMA4ImagesEEG,001,101267,
AFNE22.JPG,AFSA24.JPG,AFSA22.JPG,AFNE25.JPG,AFNE24.JPG,AFSA25.JPG,,,,,,,,,,,,,0,7,7,6,,,,,,,,,,,AMNE17.jpg,AMSA06.jpg,AMNE10.jpg,AMSA08.jpg,AMSA06.jpg,MS,2,num_6,32,num_4,2.38339010961,,,2017_Aug_15_1406,60.0053311685,FEMA4ImagesEEG,001,101267,
AFNE23.JPG,AFNE24.JPG,AFNE22.JPG,AFSA24.JPG,AFSA22.JPG,AFSA23.JPG,,,,,,,,,,,,,0,8,8,8,,,,,,,,,,,AMNE17.jpg,AMNE05.jpg,AMSA19.jpg,AMSA12.jpg,AMSA12.jpg,MS,2,num_4,32,num_8,4.7498919909,,,2017_Aug_15_1406,60.0053311685,FEMA4ImagesEEG,001,101267,
AMSA21.JPG,AMNE22.JPG,AMNE21.JPG,AMSA23.JPG,AMSA22.JPG,AMNE23.JPG,,,,,,,,,,,,,0,9,9,1,,,,,,,,,,,AMSA12.jpg,AMNE13.jpg,AMSA04.jpg,AMNE05.jpg,AMNE05.jpg,MN,1,num_4,32,num_8,1.05013610589,,,2017_Aug_15_1406,60.0053311685,FEMA4ImagesEEG,001,101267,
AFSA25.JPG,AFNE24.JPG,AFSA24.JPG,AFNE21.JPG,AFSA21.JPG,AFNE25.JPG,,,,,,,,,,,,,,,,,0,0,0,2,,,,,,,AFNE02.jpg,AFSA02.jpg,AFNE20.jpg,AFSA11.jpg,AFSA11.jpg,FS,4,num_4,16,num_4,1.20007069103,,,2017_Aug_15_1406,60.0053311685,FEMA4ImagesEEG,001,101267,
AMNE23.JPG,AMNE24.JPG,AMNE22.JPG,AMSA24.JPG,AMSA22.JPG,AMSA23.JPG,,,,,,,,,,,,,,,,,0,1,1,9,,,,,,,AFNE07.jpg,AFNE18.jpg,AFSA08.jpg,AFSA19.jpg,AFNE18.jpg,FN,3,num_6,16,num_6,1.1334402252,,,2017_Aug_15_1406,60.0053311685,FEMA4ImagesEEG,001,101267,
AFSA21.JPG,AFNE22.JPG,AFNE21.JPG,AFSA23.JPG,AFSA22.JPG,AFNE23.JPG,,,,,,,,,,,,,,,,,0,2,2,0,,,,,,,AFNE20.jpg,AFSA03.jpg,AFSA08.jpg,AFNE15.jpg,AFSA03.jpg,FS,4,num_6,16,num_6,1.10009388052,,,2017_Aug_15_1406,60.0053311685,FEMA4ImagesEEG,001,101267,
AFNE23.JPG,AFNE24.JPG,AFNE22.JPG,AFSA24.JPG,AFSA22.JPG,AFSA23.JPG,,,,,,,,,,,,,,,,,0,3,3,8,,,,,,,AFSA20.jpg,AFNE03.jpg,AFSA12.jpg,AFNE14.jpg,AFNE14.jpg,FN,3,num_4,16,num_4,0.966764631259,,,2017_Aug_15_1406,60.0053311685,FEMA4ImagesEEG,001,101267,
AFSA21.JPG,AFNE23.JPG,AFNE21.JPG,AFSA25.JPG,AFNE25.JPG,AFSA23.JPG,,,,,,,,,,,,,,,,,0,4,4,4,,,,,,,AFSA12.jpg,AFSA11.jpg,AFNE09.jpg,AFNE05.jpg,AFNE05.jpg,FN,3,num_4,32,num_2,1.08345486695,,,2017_Aug_15_1406,60.0053311685,FEMA4ImagesEEG,001,101267,
AMSA21.JPG,AMNE22.JPG,AMNE21.JPG,AMSA23.JPG,AMSA22.JPG,AMNE23.JPG,,,,,,,,,,,,,,,,,0,5,5,1,,,,,,,AFSA10.jpg,AFNE18.jpg,AFSA04.jpg,AFNE14.jpg,AFNE14.jpg,FN,3,num_4,16,num_4,0.866740672005,,,2017_Aug_15_1406,60.0053311685,FEMA4ImagesEEG,001,101267,
AMSA21.JPG,AMNE23.JPG,AMNE21.JPG,AMSA25.JPG,AMNE25.JPG,AMSA23.JPG,,,,,,,,,,,,,,,,,0,6,6,5,,,,,,,AFNE13.jpg,AFSA09.jpg,AFNE14.jpg,AFSA05.jpg,AFNE13.jpg,FN,3,num_8,16,num_8,1.06675170545,,,2017_Aug_15_1406,60.0053311685,FEMA4ImagesEEG,001,101267,
AMNE22.JPG,AMSA24.JPG,AMSA22.JPG,AMNE25.JPG,AMNE24.JPG,AMSA25.JPG,,,,,,,,,,,,,,,,,0,7,7,7,,,,,,,AFSA03.jpg,AFSA17.jpg,AFNE20.jpg,AFNE19.jpg,AFSA17.jpg,FS,4,num_6,32,num_8,1.05011622002,,,2017_Aug_15_1406,60.0053311685,FEMA4ImagesEEG,001,101267,
AFNE22.JPG,AFSA24.JPG,AFSA22.JPG,AFNE25.JPG,AFNE24.JPG,AFSA25.JPG,,,,,,,,,,,,,,,,,0,8,8,6,,,,,,,AFNE11.jpg,AFSA12.jpg,AFNE19.jpg,AFSA16.jpg,AFNE11.jpg,FN,3,num_8,16,num_8,0.850028850531,,,2017_Aug_15_1406,60.0053311685,FEMA4ImagesEEG,001,101267,
AMSA25.JPG,AMNE24.JPG,AMSA24.JPG,AMNE26.JPG,AMSA21.JPG,AMNE25.JPG,,,,,,,,,,,,,,,,,0,9,9,3,,,,,,,AFSA05.jpg,AFNE11.jpg,AFNE12.jpg,AFSA07.jpg,AFSA07.jpg,FS,4,num_4,16,num_4,2.24999703316,,,2017_Aug_15_1406,60.0053311685,FEMA4ImagesEEG,001,101267,
AMNE22.JPG,AMSA24.JPG,AMSA22.JPG,AMNE25.JPG,AMNE24.JPG,AMSA25.JPG,,,,,,,,,,,,,,,,,,,,,0,0,0,7,,,AMNE08.jpg,AMNE07.jpg,AMSA08.jpg,AMSA18.jpg,AMNE07.jpg,MN,1,num_6,16,num_6,1.00010007079,,,2017_Aug_15_1406,60.0053311685,FEMA4ImagesEEG,001,101267,
AMSA25.JPG,AMNE24.JPG,AMSA24.JPG,AMNE26.JPG,AMSA21.JPG,AMNE25.JPG,,,,,,,,,,,,,,,,,,,,,0,1,1,3,,,AMNE16.jpg,AMNE06.jpg,AMSA09.jpg,AMSA17.jpg,AMSA17.jpg,MS,2,num_4,16,num_4,0.783399667649,,,2017_Aug_15_1406,60.0053311685,FEMA4ImagesEEG,001,101267,
AMNE23.JPG,AMNE24.JPG,AMNE22.JPG,AMSA24.JPG,AMSA22.JPG,AMSA23.JPG,,,,,,,,,,,,,,,,,,,,,0,2,2,9,,,AMSA14.jpg,AMNE07.jpg,AMSA09.jpg,AMNE18.jpg,AMNE07.jpg,MN,1,num_6,32,num_2,1.26670693018,,,2017_Aug_15_1406,60.0053311685,FEMA4ImagesEEG,001,101267,
AMSA21.JPG,AMNE23.JPG,AMNE21.JPG,AMSA25.JPG,AMNE25.JPG,AMSA23.JPG,,,,,,,,,,,,,,,,,,,,,0,3,3,5,,,AMNE01.jpg,AMSA16.jpg,AMNE18.jpg,AMSA20.jpg,AMSA20.jpg,MS,2,num_4,16,num_4,1.00009205229,,,2017_Aug_15_1406,60.0053311685,FEMA4ImagesEEG,001,101267,
AMSA21.JPG,AMNE22.JPG,AMNE21.JPG,AMSA23.JPG,AMSA22.JPG,AMNE23.JPG,,,,,,,,,,,,,,,,,,,,,0,4,4,1,,,AMNE01.jpg,AMSA09.jpg,AMNE17.jpg,AMSA11.jpg,AMSA11.jpg,MS,2,num_4,16,num_4,0.600138302951,,,2017_Aug_15_1406,60.0053311685,FEMA4ImagesEEG,001,101267,
AFSA21.JPG,AFNE22.JPG,AFNE21.JPG,AFSA23.JPG,AFSA22.JPG,AFNE23.JPG,,,,,,,,,,,,,,,,,,,,,0,5,5,0,,,AMNE08.jpg,AMNE14.jpg,AMSA01.jpg,AMSA10.jpg,AMSA10.jpg,MS,2,num_4,32,num_6,1.36681845138,,,2017_Aug_15_1406,60.0053311685,FEMA4ImagesEEG,001,101267,
AFSA25.JPG,AFNE24.JPG,AFSA24.JPG,AFNE21.JPG,AFSA21.JPG,AFNE25.JPG,,,,,,,,,,,,,,,,,,,,,0,6,6,2,,,AMSA08.jpg,AMNE18.jpg,AMSA19.jpg,AMNE06.jpg,AMNE18.jpg,MN,1,num_6,16,num_6,1.21645247136,,,2017_Aug_15_1406,60.0053311685,FEMA4ImagesEEG,001,101267,
AFNE23.JPG,AFNE24.JPG,AFNE22.JPG,AFSA24.JPG,AFSA22.JPG,AFSA23.JPG,,,,,,,,,,,,,,,,,,,,,0,7,7,8,,,AMNE19.jpg,AMSA12.jpg,AMNE05.jpg,AMSA14.jpg,AMSA12.jpg,MS,2,num_6,32,num_8,1.15005967362,,,2017_Aug_15_1406,60.0053311685,FEMA4ImagesEEG,001,101267,
AFSA21.JPG,AFNE23.JPG,AFNE21.JPG,AFSA25.JPG,AFNE25.JPG,AFSA23.JPG,,,,,,,,,,,,,,,,,,,,,0,8,8,4,,,AMNE20.jpg,AMSA05.jpg,AMNE16.jpg,AMSA14.jpg,AMSA14.jpg,MS,2,num_4,16,num_4,0.766815500581,,,2017_Aug_15_1406,60.0053311685,FEMA4ImagesEEG,001,101267,
AFNE22.JPG,AFSA24.JPG,AFSA22.JPG,AFNE25.JPG,AFNE24.JPG,AFSA25.JPG,,,,,,,,,,,,,,,,,,,,,0,9,9,6,,,AMSA17.jpg,AMSA02.jpg,AMNE05.jpg,AMNE10.jpg,AMSA17.jpg,MS,2,num_8,16,num_8,1.23346193926,,,2017_Aug_15_1406,60.0053311685,FEMA4ImagesEEG,001,101267,
,,,,,,,,,,,,,,,,,,,,,,,,,,,,,,,,,,,,,,,,,,,space,4.64981575108,2017_Aug_15_1406,60.0053311685,FEMA4ImagesEEG,001,101267,
AFNE01.JPG,AFNE01.JPG,AFNE01.JPG,AFNE01.JPG,AFNE01.JPG,AFNE01.JPG,0,0,0,4,,,,,,,,,,,,,,,,,,,,,,,AFSA11.jpg,AFNE17.jpg,AFSA16.jpg,AFNE04.jpg,AFNE04.jpg,FN,3,num_4,16,num_4,1.06686813396,,,2017_Aug_15_1406,60.0053311685,FEMA4ImagesEEG,001,101267,
AFNE01.JPG,AFNE01.JPG,AFNE01.JPG,AFNE01.JPG,AFNE01.JPG,AFNE01.JPG,0,1,1,9,,,,,,,,,,,,,,,,,,,,,,,AFNE02.jpg,AFNE16.jpg,AFSA13.jpg,AFSA19.jpg,AFSA13.jpg,FS,4,num_2,16,num_2,0.683533833071,,,2017_Aug_15_1406,60.0053311685,FEMA4ImagesEEG,001,101267,
AFNE01.JPG,AFNE01.JPG,AFNE01.JPG,AFNE01.JPG,AFNE01.JPG,AFNE01.JPG,0,2,2,8,,,,,,,,,,,,,,,,,,,,,,,AFNE18.jpg,AFNE10.jpg,AFSA06.jpg,AFSA07.jpg,AFSA07.jpg,FS,4,num_4,16,num_4,1.28342773237,,,2017_Aug_15_1406,60.0053311685,FEMA4ImagesEEG,001,101267,
AFNE01.JPG,AFNE01.JPG,AFNE01.JPG,AFNE01.JPG,AFNE01.JPG,AFNE01.JPG,0,3,3,6,,,,,,,,,,,,,,,,,,,,,,,AFSA09.jpg,AFNE02.jpg,AFSA17.jpg,AFNE03.jpg,AFSA09.jpg,FS,4,num_8,16,num_8,1.13341841489,,,2017_Aug_15_1406,60.0053311685,FEMA4ImagesEEG,001,101267,
AFNE01.JPG,AFNE01.JPG,AFNE01.JPG,AFNE01.JPG,AFNE01.JPG,AFNE01.JPG,0,4,4,7,,,,,,,,,,,,,,,,,,,,,,,AFNE05.jpg,AFSA11.jpg,AFNE12.jpg,AFSA18.jpg,AFNE05.jpg,FN,3,num_8,32,num_4,0.966769121616,,,2017_Aug_15_1406,60.0053311685,FEMA4ImagesEEG,001,101267,
AFNE01.JPG,AFNE01.JPG,AFNE01.JPG,AFNE01.JPG,AFNE01.JPG,AFNE01.JPG,0,5,5,2,,,,,,,,,,,,,,,,,,,,,,,AFSA15.jpg,AFNE05.jpg,AFNE17.jpg,AFSA20.jpg,AFNE05.jpg,FN,3,num_6,32,num_4,0.833310935006,,,2017_Aug_15_1406,60.0053311685,FEMA4ImagesEEG,001,101267,
AFNE01.JPG,AFNE01.JPG,AFNE01.JPG,AFNE01.JPG,AFNE01.JPG,AFNE01.JPG,0,6,6,5,,,,,,,,,,,,,,,,,,,,,,,AFNE08.jpg,AFSA14.jpg,AFSA20.jpg,AFNE12.jpg,AFNE12.jpg,FN,3,num_4,16,num_4,0.683471288838,,,2017_Aug_15_1406,60.0053311685,FEMA4ImagesEEG,001,101267,
AFNE01.JPG,AFNE01.JPG,AFNE01.JPG,AFNE01.JPG,AFNE01.JPG,AFNE01.JPG,0,7,7,3,,,,,,,,,,,,,,,,,,,,,,,AFSA03.jpg,AFNE05.jpg,AFSA09.jpg,AFNE20.jpg,AFSA09.jpg,FS,4,num_2,16,num_2,0.833434099055,,,2017_Aug_15_1406,60.0053311685,FEMA4ImagesEEG,001,101267,
AFNE01.JPG,AFNE01.JPG,AFNE01.JPG,AFNE01.JPG,AFNE01.JPG,AFNE01.JPG,0,8,8,0,,,,,,,,,,,,,,,,,,,,,,,AFSA02.jpg,AFSA01.jpg,AFNE03.jpg,AFNE11.jpg,AFNE03.jpg,FN,3,num_2,32,num_4,1.00015748318,,,2017_Aug_15_1406,60.0053311685,FEMA4ImagesEEG,001,101267,
AFNE01.JPG,AFNE01.JPG,AFNE01.JPG,AFNE01.JPG,AFNE01.JPG,AFNE01.JPG,0,9,9,1,,,,,,,,,,,,,,,,,,,,,,,AFSA06.jpg,AFSA15.jpg,AFNE20.jpg,AFNE12.jpg,AFSA15.jpg,FS,4,num_6,16,num_6,1.20008384135,,,2017_Aug_15_1406,60.0053311685,FEMA4ImagesEEG,001,101267,
AFNE01.JPG,AFNE01.JPG,AFNE01.JPG,AFNE01.JPG,AFNE01.JPG,AFNE01.JPG,1,0,10,1,,,,,,,,,,,,,,,,,,,,,,,AFNE20.jpg,AFSA01.jpg,AFSA14.jpg,AFNE19.jpg,AFSA01.jpg,FS,4,num_6,32,num_4,0.966754688343,,,2017_Aug_15_1406,60.0053311685,FEMA4ImagesEEG,001,101267,
AFNE01.JPG,AFNE01.JPG,AFNE01.JPG,AFNE01.JPG,AFNE01.JPG,AFNE01.JPG,1,1,11,8,,,,,,,,,,,,,,,,,,,,,,,AFNE07.jpg,AFSA06.jpg,AFNE11.jpg,AFSA08.jpg,AFNE11.jpg,FN,3,num_2,16,num_2,1.16670061162,,,2017_Aug_15_1406,60.0053311685,FEMA4ImagesEEG,001,101267,
AFNE01.JPG,AFNE01.JPG,AFNE01.JPG,AFNE01.JPG,AFNE01.JPG,AFNE01.JPG,1,2,12,9,,,,,,,,,,,,,,,,,,,,,,,AFNE15.jpg,AFNE09.jpg,AFSA05.jpg,AFSA20.jpg,AFSA20.jpg,FS,4,num_4,32,num_6,2.05005816615,,,2017_Aug_15_1406,60.0053311685,FEMA4ImagesEEG,001,101267,
AFNE01.JPG,AFNE01.JPG,AFNE01.JPG,AFNE01.JPG,AFNE01.JPG,AFNE01.JPG,1,3,13,2,,,,,,,,,,,,,,,,,,,,,,,AFSA01.jpg,AFSA05.jpg,AFNE01.jpg,AFNE18.jpg,AFSA01.jpg,FS,4,num_8,16,num_8,2.14999616717,,,2017_Aug_15_1406,60.0053311685,FEMA4ImagesEEG,001,101267,
AFNE01.JPG,AFNE01.JPG,AFNE01.JPG,AFNE01.JPG,AFNE01.JPG,AFNE01.JPG,1,4,14,0,,,,,,,,,,,,,,,,,,,,,,,AFNE11.jpg,AFSA02.jpg,AFSA01.jpg,AFNE19.jpg,AFSA02.jpg,FS,4,num_6,16,num_6,1.40004804681,,,2017_Aug_15_1406,60.0053311685,FEMA4ImagesEEG,001,101267,
AFNE01.JPG,AFNE01.JPG,AFNE01.JPG,AFNE01.JPG,AFNE01.JPG,AFNE01.JPG,1,5,15,7,,,,,,,,,,,,,,,,,,,,,,,AFNE14.jpg,AFSA09.jpg,AFNE11.jpg,AFSA15.jpg,AFSA15.jpg,FS,4,num_4,16,num_4,0.883422343948,,,2017_Aug_15_1406,60.0053311685,FEMA4ImagesEEG,001,101267,
AFNE01.JPG,AFNE01.JPG,AFNE01.JPG,AFNE01.JPG,AFNE01.JPG,AFNE01.JPG,1,6,16,6,,,,,,,,,,,,,,,,,,,,,,,AFSA18.jpg,AFNE02.jpg,AFNE14.jpg,AFSA08.jpg,AFSA08.jpg,FS,4,num_4,16,num_4,1.25009036841,,,2017_Aug_15_1406,60.0053311685,FEMA4ImagesEEG,001,101267,
AFNE01.JPG,AFNE01.JPG,AFNE01.JPG,AFNE01.JPG,AFNE01.JPG,AFNE01.JPG,1,7,17,4,,,,,,,,,,,,,,,,,,,,,,,AFSA12.jpg,AFNE18.jpg,AFNE20.jpg,AFSA05.jpg,AFSA05.jpg,FS,4,num_4,16,num_4,1.1334039816,,,2017_Aug_15_1406,60.0053311685,FEMA4ImagesEEG,001,101267,
AFNE01.JPG,AFNE01.JPG,AFNE01.JPG,AFNE01.JPG,AFNE01.JPG,AFNE01.JPG,1,8,18,5,,,,,,,,,,,,,,,,,,,,,,,AFNE17.jpg,AFSA08.jpg,AFSA10.jpg,AFNE04.jpg,AFSA10.jpg,FS,4,num_2,32,num_6,1.416745435,,,2017_Aug_15_1406,60.0053311685,FEMA4ImagesEEG,001,101267,
AFNE01.JPG,AFNE01.JPG,AFNE01.JPG,AFNE01.JPG,AFNE01.JPG,AFNE01.JPG,1,9,19,3,,,,,,,,,,,,,,,,,,,,,,,AFSA13.jpg,AFNE09.jpg,AFSA11.jpg,AFNE13.jpg,AFNE13.jpg,FN,3,num_4,16,num_4,0.733743388351,,,2017_Aug_15_1406,60.0053311685,FEMA4ImagesEEG,001,101267,
AFNE01.JPG,AFNE01.JPG,AFNE01.JPG,AFNE01.JPG,AFNE01.JPG,AFNE01.JPG,2,0,20,6,,,,,,,,,,,,,,,,,,,,,,,AFNE19.jpg,AFSA10.jpg,AFNE12.jpg,AFSA03.jpg,AFSA03.jpg,FS,4,num_4,16,num_4,0.716779144728,,,2017_Aug_15_1406,60.0053311685,FEMA4ImagesEEG,001,101267,
AFNE01.JPG,AFNE01.JPG,AFNE01.JPG,AFNE01.JPG,AFNE01.JPG,AFNE01.JPG,2,1,21,3,,,,,,,,,,,,,,,,,,,,,,,AFNE10.jpg,AFSA01.jpg,AFNE18.jpg,AFSA11.jpg,AFNE10.jpg,FN,3,num_8,16,num_8,0.866774349677,,,2017_Aug_15_1406,60.0053311685,FEMA4ImagesEEG,001,101267,
AFNE01.JPG,AFNE01.JPG,AFNE01.JPG,AFNE01.JPG,AFNE01.JPG,AFNE01.JPG,2,2,22,2,,,,,,,,,,,,,,,,,,,,,,,AFNE12.jpg,AFSA06.jpg,AFNE05.jpg,AFSA17.jpg,AFSA06.jpg,FS,4,num_6,32,num_4,1.31670511802,,,2017_Aug_15_1406,60.0053311685,FEMA4ImagesEEG,001,101267,
AFNE01.JPG,AFNE01.JPG,AFNE01.JPG,AFNE01.JPG,AFNE01.JPG,AFNE01.JPG,2,3,23,8,,,,,,,,,,,,,,,,,,,,,,,AFNE05.jpg,AFSA03.jpg,AFSA06.jpg,AFNE10.jpg,AFNE05.jpg,FN,3,num_8,16,num_8,1.41676500012,,,2017_Aug_15_1406,60.0053311685,FEMA4ImagesEEG,001,101267,
AFNE01.JPG,AFNE01.JPG,AFNE01.JPG,AFNE01.JPG,AFNE01.JPG,AFNE01.JPG,2,4,24,1,,,,,,,,,,,,,,,,,,,,,,,AFSA13.jpg,AFSA15.jpg,AFNE02.jpg,AFNE07.jpg,AFSA15.jpg,FS,4,num_6,16,num_6,0.966752763896,,,2017_Aug_15_1406,60.0053311685,FEMA4ImagesEEG,001,101267,
AFNE01.JPG,AFNE01.JPG,AFNE01.JPG,AFNE01.JPG,AFNE01.JPG,AFNE01.JPG,2,5,25,5,,,,,,,,,,,,,,,,,,,,,,,AFNE01.jpg,AFNE05.jpg,AFSA16.jpg,AFSA18.jpg,AFNE05.jpg,FN,3,num_6,32,num_4,1.05007292017,,,2017_Aug_15_1406,60.0053311685,FEMA4ImagesEEG,001,101267,
AFNE01.JPG,AFNE01.JPG,AFNE01.JPG,AFNE01.JPG,AFNE01.JPG,AFNE01.JPG,2,6,26,4,,,,,,,,,,,,,,,,,,,,,,,AFSA05.jpg,AFNE04.jpg,AFSA06.jpg,AFNE12.jpg,AFSA05.jpg,FS,4,num_8,16,num_8,1.28340560134,,,2017_Aug_15_1406,60.0053311685,FEMA4ImagesEEG,001,101267,
AFNE01.JPG,AFNE01.JPG,AFNE01.JPG,AFNE01.JPG,AFNE01.JPG,AFNE01.JPG,2,7,27,0,,,,,,,,,,,,,,,,,,,,,,,AFSA11.jpg,AFNE07.jpg,AFSA14.jpg,AFNE15.jpg,AFSA14.jpg,FS,4,num_2,32,num_8,1.15010136979,,,2017_Aug_15_1406,60.0053311685,FEMA4ImagesEEG,001,101267,
AFNE01.JPG,AFNE01.JPG,AFNE01.JPG,AFNE01.JPG,AFNE01.JPG,AFNE01.JPG,2,8,28,7,,,,,,,,,,,,,,,,,,,,,,,AFSA06.jpg,AFSA14.jpg,AFNE02.jpg,AFNE03.jpg,AFSA06.jpg,FS,4,num_8,16,num_8,1.11663506845,,,2017_Aug_15_1406,60.0053311685,FEMA4ImagesEEG,001,101267,
AFNE01.JPG,AFNE01.JPG,AFNE01.JPG,AFNE01.JPG,AFNE01.JPG,AFNE01.JPG,2,9,29,9,,,,,,,,,,,,,,,,,,,,,,,AFSA18.jpg,AFNE17.jpg,AFNE15.jpg,AFSA20.jpg,AFNE15.jpg,FN,3,num_2,32,num_4,0.966749235755,,,2017_Aug_15_1406,60.0053311685,FEMA4ImagesEEG,001,101267,
AFNE01.JPG,AFNE01.JPG,AFNE01.JPG,AFNE01.JPG,AFNE01.JPG,AFNE01.JPG,3,0,30,9,,,,,,,,,,,,,,,,,,,,,,,AFSA08.jpg,AFNE03.jpg,AFSA01.jpg,AFNE18.jpg,AFSA08.jpg,FS,4,num_8,16,num_8,0.900106902554,,,2017_Aug_15_1406,60.0053311685,FEMA4ImagesEEG,001,101267,
AFNE01.JPG,AFNE01.JPG,AFNE01.JPG,AFNE01.JPG,AFNE01.JPG,AFNE01.JPG,3,1,31,1,,,,,,,,,,,,,,,,,,,,,,,AFNE15.jpg,AFSA06.jpg,AFSA15.jpg,AFNE17.jpg,AFSA15.jpg,FS,4,num_2,16,num_2,1.16675545811,,,2017_Aug_15_1406,60.0053311685,FEMA4ImagesEEG,001,101267,
AFNE01.JPG,AFNE01.JPG,AFNE01.JPG,AFNE01.JPG,AFNE01.JPG,AFNE01.JPG,3,2,32,8,,,,,,,,,,,,,,,,,,,,,,,AFSA01.jpg,AFSA10.jpg,AFNE06.jpg,AFNE01.jpg,AFSA10.jpg,FS,4,num_6,32,num_2,1.66668345204,,,2017_Aug_15_1406,60.0053311685,FEMA4ImagesEEG,001,101267,
AFNE01.JPG,AFNE01.JPG,AFNE01.JPG,AFNE01.JPG,AFNE01.JPG,AFNE01.JPG,3,3,33,6,,,,,,,,,,,,,,,,,,,,,,,AFSA13.jpg,AFNE18.jpg,AFSA08.jpg,AFNE02.jpg,AFNE02.jpg,FN,3,num_4,16,num_4,1.23343467638,,,2017_Aug_15_1406,60.0053311685,FEMA4ImagesEEG,001,101267,
AFNE01.JPG,AFNE01.JPG,AFNE01.JPG,AFNE01.JPG,AFNE01.JPG,AFNE01.JPG,3,4,34,5,,,,,,,,,,,,,,,,,,,,,,,AFNE16.jpg,AFSA03.jpg,AFNE11.jpg,AFSA04.jpg,AFNE16.jpg,FN,3,num_8,16,num_8,1.08339873749,,,2017_Aug_15_1406,60.0053311685,FEMA4ImagesEEG,001,101267,
AFNE01.JPG,AFNE01.JPG,AFNE01.JPG,AFNE01.JPG,AFNE01.JPG,AFNE01.JPG,3,5,35,7,,,,,,,,,,,,,,,,,,,,,,,AFSA16.jpg,AFSA20.jpg,AFNE10.jpg,AFNE01.jpg,AFNE10.jpg,FN,3,num_2,16,num_2,0.950121768823,,,2017_Aug_15_1406,60.0053311685,FEMA4ImagesEEG,001,101267,
AFNE01.JPG,AFNE01.JPG,AFNE01.JPG,AFNE01.JPG,AFNE01.JPG,AFNE01.JPG,3,6,36,0,,,,,,,,,,,,,,,,,,,,,,,AFNE04.jpg,AFNE12.jpg,AFSA06.jpg,AFSA13.jpg,AFNE12.jpg,FN,3,num_6,16,num_6,0.950094185217,,,2017_Aug_15_1406,60.0053311685,FEMA4ImagesEEG,001,101267,
AFNE01.JPG,AFNE01.JPG,AFNE01.JPG,AFNE01.JPG,AFNE01.JPG,AFNE01.JPG,3,7,37,2,,,,,,,,,,,,,,,,,,,,,,,AFNE18.jpg,AFSA18.jpg,AFNE03.jpg,AFSA05.jpg,AFSA18.jpg,FS,4,num_6,32,num_4,1.0334329444,,,2017_Aug_15_1406,60.0053311685,FEMA4ImagesEEG,001,101267,
AFNE01.JPG,AFNE01.JPG,AFNE01.JPG,AFNE01.JPG,AFNE01.JPG,AFNE01.JPG,3,8,38,4,,,,,,,,,,,,,,,,,,,,,,,AFSA12.jpg,AFSA07.jpg,AFNE10.jpg,AFNE18.jpg,AFNE10.jpg,FN,3,num_2,16,num_2,0.900102412183,,,2017_Aug_15_1406,60.0053311685,FEMA4ImagesEEG,001,101267,
AFNE01.JPG,AFNE01.JPG,AFNE01.JPG,AFNE01.JPG,AFNE01.JPG,AFNE01.JPG,3,9,39,3,,,,,,,,,,,,,,,,,,,,,,,AFSA11.jpg,AFNE08.jpg,AFNE10.jpg,AFSA10.jpg,AFSA10.jpg,FS,4,num_4,16,num_4,0.716778182526,,,2017_Aug_15_1406,60.0053311685,FEMA4ImagesEEG,001,101267,
AFNE01.JPG,AFNE01.JPG,AFNE01.JPG,AFNE01.JPG,AFNE01.JPG,AFNE01.JPG,4,0,40,6,,,,,,,,,,,,,,,,,,,,,,,AFNE20.jpg,AFSA15.jpg,AFSA04.jpg,AFNE15.jpg,AFNE20.jpg,FN,3,num_8,16,num_8,1.33330019024,,,2017_Aug_15_1406,60.0053311685,FEMA4ImagesEEG,001,101267,
AFNE01.JPG,AFNE01.JPG,AFNE01.JPG,AFNE01.JPG,AFNE01.JPG,AFNE01.JPG,4,1,41,5,,,,,,,,,,,,,,,,,,,,,,,AFSA03.jpg,AFNE13.jpg,AFNE19.jpg,AFSA04.jpg,AFSA03.jpg,FS,4,num_8,16,num_8,0.950100279268,,,2017_Aug_15_1406,60.0053311685,FEMA4ImagesEEG,001,101267,
AFNE01.JPG,AFNE01.JPG,AFNE01.JPG,AFNE01.JPG,AFNE01.JPG,AFNE01.JPG,4,2,42,3,,,,,,,,,,,,,,,,,,,,,,,AFNE11.jpg,AFSA15.jpg,AFNE15.jpg,AFSA10.jpg,AFNE11.jpg,FN,3,num_8,16,num_8,1.16675898625,,,2017_Aug_15_1406,60.0053311685,FEMA4ImagesEEG,001,101267,
AFNE01.JPG,AFNE01.JPG,AFNE01.JPG,AFNE01.JPG,AFNE01.JPG,AFNE01.JPG,4,3,43,8,,,,,,,,,,,,,,,,,,,,,,,AFNE16.jpg,AFSA08.jpg,AFNE05.jpg,AFSA05.jpg,AFSA08.jpg,FS,4,num_6,16,num_6,1.29994261966,,,2017_Aug_15_1406,60.0053311685,FEMA4ImagesEEG,001,101267,
AFNE01.JPG,AFNE01.JPG,AFNE01.JPG,AFNE01.JPG,AFNE01.JPG,AFNE01.JPG,4,4,44,1,,,,,,,,,,,,,,,,,,,,,,,AFSA05.jpg,AFNE14.jpg,AFNE09.jpg,AFSA18.jpg,AFNE09.jpg,FN,3,num_2,16,num_2,0.983452717992,,,2017_Aug_15_1406,60.0053311685,FEMA4ImagesEEG,001,101267,
AFNE01.JPG,AFNE01.JPG,AFNE01.JPG,AFNE01.JPG,AFNE01.JPG,AFNE01.JPG,4,5,45,9,,,,,,,,,,,,,,,,,,,,,,,AFNE17.jpg,AFSA16.jpg,AFNE04.jpg,AFSA13.jpg,AFSA13.jpg,FS,4,num_4,16,num_4,0.983427058818,,,2017_Aug_15_1406,60.0053311685,FEMA4ImagesEEG,001,101267,
AFNE01.JPG,AFNE01.JPG,AFNE01.JPG,AFNE01.JPG,AFNE01.JPG,AFNE01.JPG,4,6,46,4,,,,,,,,,,,,,,,,,,,,,,,AFSA03.jpg,AFNE02.jpg,AFSA13.jpg,AFNE04.jpg,AFSA03.jpg,FS,4,num_8,16,num_8,1.15007218247,,,2017_Aug_15_1406,60.0053311685,FEMA4ImagesEEG,001,101267,
AFNE01.JPG,AFNE01.JPG,AFNE01.JPG,AFNE01.JPG,AFNE01.JPG,AFNE01.JPG,4,7,47,2,,,,,,,,,,,,,,,,,,,,,,,AFNE19.jpg,AFNE11.jpg,AFSA10.jpg,AFSA12.jpg,AFSA10.jpg,FS,4,num_2,16,num_2,1.21670040315,,,2017_Aug_15_1406,60.0053311685,FEMA4ImagesEEG,001,101267,
AFNE01.JPG,AFNE01.JPG,AFNE01.JPG,AFNE01.JPG,AFNE01.JPG,AFNE01.JPG,4,8,48,0,,,,,,,,,,,,,,,,,,,,,,,AFSA06.jpg,AFNE13.jpg,AFSA15.jpg,AFNE16.jpg,AFSA06.jpg,FS,4,num_8,32,num_6,1.58340787858,,,2017_Aug_15_1406,60.0053311685,FEMA4ImagesEEG,001,101267,
AFNE01.JPG,AFNE01.JPG,AFNE01.JPG,AFNE01.JPG,AFNE01.JPG,AFNE01.JPG,4,9,49,7,,,,,,,,,,,,,,,,,,,,,,,AFSA03.jpg,AFNE12.jpg,AFSA20.jpg,AFNE15.jpg,AFNE15.jpg,FN,3,num_4,16,num_4,0.850126996898,,,2017_Aug_15_1406,60.0053311685,FEMA4ImagesEEG,001,101267,
AFNE01.JPG,AFNE01.JPG,AFNE01.JPG,AFNE01.JPG,AFNE01.JPG,AFNE01.JPG,5,0,50,0,,,,,,,,,,,,,,,,,,,,,,,AFNE07.jpg,AFSA13.jpg,AFSA20.jpg,AFNE11.jpg,AFSA13.jpg,FS,4,num_6,32,num_2,1.06674817733,,,2017_Aug_15_1406,60.0053311685,FEMA4ImagesEEG,001,101267,
AFNE01.JPG,AFNE01.JPG,AFNE01.JPG,AFNE01.JPG,AFNE01.JPG,AFNE01.JPG,5,1,51,9,,,,,,,,,,,,,,,,,,,,,,,AFSA08.jpg,AFNE05.jpg,AFNE08.jpg,AFSA20.jpg,AFSA08.jpg,FS,4,num_8,16,num_8,1.18328991052,,,2017_Aug_15_1406,60.0053311685,FEMA4ImagesEEG,001,101267,
AFNE01.JPG,AFNE01.JPG,AFNE01.JPG,AFNE01.JPG,AFNE01.JPG,AFNE01.JPG,5,2,52,8,,,,,,,,,,,,,,,,,,,,,,,AFNE18.jpg,AFNE09.jpg,AFSA08.jpg,AFSA18.jpg,AFSA18.jpg,FS,4,num_4,16,num_4,0.666885518061,,,2017_Aug_15_1406,60.0053311685,FEMA4ImagesEEG,001,101267,
AFNE01.JPG,AFNE01.JPG,AFNE01.JPG,AFNE01.JPG,AFNE01.JPG,AFNE01.JPG,5,3,53,5,,,,,,,,,,,,,,,,,,,,,,,AFSA19.jpg,AFNE04.jpg,AFNE02.jpg,AFSA11.jpg,AFNE04.jpg,FN,3,num_6,16,num_6,1.71669831833,,,2017_Aug_15_1406,60.0053311685,FEMA4ImagesEEG,001,101267,
AFNE01.JPG,AFNE01.JPG,AFNE01.JPG,AFNE01.JPG,AFNE01.JPG,AFNE01.JPG,5,4,54,7,,,,,,,,,,,,,,,,,,,,,,,AFSA20.jpg,AFSA13.jpg,AFNE18.jpg,AFNE20.jpg,AFSA13.jpg,FS,4,num_6,16,num_6,0.933434644321,,,2017_Aug_15_1406,60.0053311685,FEMA4ImagesEEG,001,101267,
AFNE01.JPG,AFNE01.JPG,AFNE01.JPG,AFNE01.JPG,AFNE01.JPG,AFNE01.JPG,5,5,55,6,,,,,,,,,,,,,,,,,,,,,,,AFSA02.jpg,AFSA17.jpg,AFNE19.jpg,AFNE18.jpg,AFNE19.jpg,FN,3,num_2,16,num_2,0.716775295863,,,2017_Aug_15_1406,60.0053311685,FEMA4ImagesEEG,001,101267,
AFNE01.JPG,AFNE01.JPG,AFNE01.JPG,AFNE01.JPG,AFNE01.JPG,AFNE01.JPG,5,6,56,2,,,,,,,,,,,,,,,,,,,,,,,AFSA19.jpg,AFNE02.jpg,AFNE16.jpg,AFSA01.jpg,AFSA19.jpg,FS,4,num_8,16,num_8,0.983390173758,,,2017_Aug_15_1406,60.0053311685,FEMA4ImagesEEG,001,101267,
AFNE01.JPG,AFNE01.JPG,AFNE01.JPG,AFNE01.JPG,AFNE01.JPG,AFNE01.JPG,5,7,57,1,,,,,,,,,,,,,,,,,,,,,,,AFSA08.jpg,AFNE18.jpg,AFNE07.jpg,AFSA18.jpg,AFSA08.jpg,FS,4,num_8,32,num_2,1.28340463911,,,2017_Aug_15_1406,60.0053311685,FEMA4ImagesEEG,001,101267,
AFNE01.JPG,AFNE01.JPG,AFNE01.JPG,AFNE01.JPG,AFNE01.JPG,AFNE01.JPG,5,8,58,3,,,,,,,,,,,,,,,,,,,,,,,AFSA20.jpg,AFNE04.jpg,AFSA02.jpg,AFNE12.jpg,AFNE04.jpg,FN,3,num_6,32,num_4,1.40005895196,,,2017_Aug_15_1406,60.0053311685,FEMA4ImagesEEG,001,101267,
AFNE01.JPG,AFNE01.JPG,AFNE01.JPG,AFNE01.JPG,AFNE01.JPG,AFNE01.JPG,5,9,59,4,,,,,,,,,,,,,,,,,,,,,,,AFSA05.jpg,AFNE12.jpg,AFSA09.jpg,AFNE11.jpg,AFNE11.jpg,FN,3,num_4,32,num_2,1.23343243121,,,2017_Aug_15_1406,60.0053311685,FEMA4ImagesEEG,001,101267,
,,,,,,,,,,,,,,,,,,,,,,,,,,,,,,,,,,,,,,,,,,,space,2.81631205151,2017_Aug_15_1406,60.0053311685,FEMA4ImagesEEG,001,101267,
AFNE01.JPG,AFNE01.JPG,AFNE01.JPG,AFNE01.JPG,AFNE01.JPG,AFNE01.JPG,,,,,0,0,0,0,,,,,,,,,,,,,,,,,,,AMNE16.jpg,AMNE09.jpg,AMSA16.jpg,AMSA20.jpg,AMSA20.jpg,MS,2,num_4,16,num_4,1.71668035691,,,2017_Aug_15_1406,60.0053311685,FEMA4ImagesEEG,001,101267,
AFNE01.JPG,AFNE01.JPG,AFNE01.JPG,AFNE01.JPG,AFNE01.JPG,AFNE01.JPG,,,,,0,1,1,3,,,,,,,,,,,,,,,,,,,AMSA11.jpg,AMSA15.jpg,AMNE17.jpg,AMNE02.jpg,AMSA15.jpg,MS,2,num_6,16,num_6,0.783451948213,,,2017_Aug_15_1406,60.0053311685,FEMA4ImagesEEG,001,101267,
AFNE01.JPG,AFNE01.JPG,AFNE01.JPG,AFNE01.JPG,AFNE01.JPG,AFNE01.JPG,,,,,0,2,2,5,,,,,,,,,,,,,,,,,,,AMNE01.jpg,AMSA19.jpg,AMSA18.jpg,AMNE16.jpg,AMSA19.jpg,MS,2,num_6,32,num_2,1.15036630078,,,2017_Aug_15_1406,60.0053311685,FEMA4ImagesEEG,001,101267,
AFNE01.JPG,AFNE01.JPG,AFNE01.JPG,AFNE01.JPG,AFNE01.JPG,AFNE01.JPG,,,,,0,3,3,2,,,,,,,,,,,,,,,,,,,AMNE11.jpg,AMSA12.jpg,AMSA01.jpg,AMNE03.jpg,AMSA12.jpg,MS,2,num_6,32,num_8,1.48328320705,,,2017_Aug_15_1406,60.0053311685,FEMA4ImagesEEG,001,101267,
AFNE01.JPG,AFNE01.JPG,AFNE01.JPG,AFNE01.JPG,AFNE01.JPG,AFNE01.JPG,,,,,0,4,4,4,,,,,,,,,,,,,,,,,,,AMSA10.jpg,AMNE19.jpg,AMNE18.jpg,AMSA20.jpg,AMNE18.jpg,MN,1,num_2,32,num_8,1.75045039873,,,2017_Aug_15_1406,60.0053311685,FEMA4ImagesEEG,001,101267,
AFNE01.JPG,AFNE01.JPG,AFNE01.JPG,AFNE01.JPG,AFNE01.JPG,AFNE01.JPG,,,,,0,5,5,6,,,,,,,,,,,,,,,,,,,AMSA08.jpg,AMNE20.jpg,AMSA07.jpg,AMNE13.jpg,AMNE20.jpg,MN,1,num_6,16,num_6,0.833145112585,,,2017_Aug_15_1406,60.0053311685,FEMA4ImagesEEG,001,101267,
AFNE01.JPG,AFNE01.JPG,AFNE01.JPG,AFNE01.JPG,AFNE01.JPG,AFNE01.JPG,,,,,0,6,6,8,,,,,,,,,,,,,,,,,,,AMNE09.jpg,AMSA14.jpg,AMNE04.jpg,AMSA04.jpg,AMNE04.jpg,MN,1,num_2,16,num_2,1.18342558341,,,2017_Aug_15_1406,60.0053311685,FEMA4ImagesEEG,001,101267,
AFNE01.JPG,AFNE01.JPG,AFNE01.JPG,AFNE01.JPG,AFNE01.JPG,AFNE01.JPG,,,,,0,7,7,7,,,,,,,,,,,,,,,,,,,AMSA02.jpg,AMNE18.jpg,AMSA10.jpg,AMNE09.jpg,AMNE18.jpg,MN,1,num_6,16,num_6,1.28342548719,,,2017_Aug_15_1406,60.0053311685,FEMA4ImagesEEG,001,101267,
AFNE01.JPG,AFNE01.JPG,AFNE01.JPG,AFNE01.JPG,AFNE01.JPG,AFNE01.JPG,,,,,0,8,8,1,,,,,,,,,,,,,,,,,,,AMSA18.jpg,AMSA15.jpg,AMNE01.jpg,AMNE20.jpg,AMSA15.jpg,MS,2,num_6,16,num_6,1.15009880386,,,2017_Aug_15_1406,60.0053311685,FEMA4ImagesEEG,001,101267,
AFNE01.JPG,AFNE01.JPG,AFNE01.JPG,AFNE01.JPG,AFNE01.JPG,AFNE01.JPG,,,,,0,9,9,9,,,,,,,,,,,,,,,,,,,AMNE12.jpg,AMSA20.jpg,AMNE14.jpg,AMSA08.jpg,AMSA08.jpg,MS,2,num_4,32,num_8,1.31669357138,,,2017_Aug_15_1406,60.0053311685,FEMA4ImagesEEG,001,101267,
AFNE01.JPG,AFNE01.JPG,AFNE01.JPG,AFNE01.JPG,AFNE01.JPG,AFNE01.JPG,,,,,1,0,10,9,,,,,,,,,,,,,,,,,,,AMNE13.jpg,AMSA14.jpg,AMNE18.jpg,AMSA04.jpg,AMNE18.jpg,MN,1,num_2,32,num_8,1.41672073804,,,2017_Aug_15_1406,60.0053311685,FEMA4ImagesEEG,001,101267,
AFNE01.JPG,AFNE01.JPG,AFNE01.JPG,AFNE01.JPG,AFNE01.JPG,AFNE01.JPG,,,,,1,1,11,2,,,,,,,,,,,,,,,,,,,AMSA01.jpg,AMNE12.jpg,AMNE02.jpg,AMSA03.jpg,AMNE02.jpg,MN,1,num_2,16,num_2,1.20008929394,,,2017_Aug_15_1406,60.0053311685,FEMA4ImagesEEG,001,101267,
AFNE01.JPG,AFNE01.JPG,AFNE01.JPG,AFNE01.JPG,AFNE01.JPG,AFNE01.JPG,,,,,1,2,12,1,,,,,,,,,,,,,,,,,,,AMSA11.jpg,AMSA10.jpg,AMNE11.jpg,AMNE02.jpg,AMSA10.jpg,MS,2,num_6,32,num_8,1.2667755685,,,2017_Aug_15_1406,60.0053311685,FEMA4ImagesEEG,001,101267,
AFNE01.JPG,AFNE01.JPG,AFNE01.JPG,AFNE01.JPG,AFNE01.JPG,AFNE01.JPG,,,,,1,3,13,8,,,,,,,,,,,,,,,,,,,AMNE15.jpg,AMSA08.jpg,AMSA06.jpg,AMNE03.jpg,AMSA06.jpg,MS,2,num_2,32,num_4,1.21676583403,,,2017_Aug_15_1406,60.0053311685,FEMA4ImagesEEG,001,101267,
AFNE01.JPG,AFNE01.JPG,AFNE01.JPG,AFNE01.JPG,AFNE01.JPG,AFNE01.JPG,,,,,1,4,14,4,,,,,,,,,,,,,,,,,,,AMSA17.jpg,AMSA16.jpg,AMNE16.jpg,AMNE01.jpg,AMNE16.jpg,MN,1,num_2,16,num_2,0.633449366273,,,2017_Aug_15_1406,60.0053311685,FEMA4ImagesEEG,001,101267,
AFNE01.JPG,AFNE01.JPG,AFNE01.JPG,AFNE01.JPG,AFNE01.JPG,AFNE01.JPG,,,,,1,5,15,7,,,,,,,,,,,,,,,,,,,AMNE12.jpg,AMSA14.jpg,AMNE01.jpg,AMSA07.jpg,AMNE01.jpg,MN,1,num_2,16,num_2,0.433480991211,,,2017_Aug_15_1406,60.0053311685,FEMA4ImagesEEG,001,101267,
AFNE01.JPG,AFNE01.JPG,AFNE01.JPG,AFNE01.JPG,AFNE01.JPG,AFNE01.JPG,,,,,1,6,16,3,,,,,,,,,,,,,,,,,,,AMNE12.jpg,AMNE01.jpg,AMSA08.jpg,AMSA07.jpg,AMSA08.jpg,MS,2,num_2,32,num_6,1.49994499313,,,2017_Aug_15_1406,60.0053311685,FEMA4ImagesEEG,001,101267,
AFNE01.JPG,AFNE01.JPG,AFNE01.JPG,AFNE01.JPG,AFNE01.JPG,AFNE01.JPG,,,,,1,7,17,6,,,,,,,,,,,,,,,,,,,AMNE05.jpg,AMNE19.jpg,AMSA19.jpg,AMSA07.jpg,AMSA19.jpg,MS,2,num_2,32,num_8,1.25011570685,,,2017_Aug_15_1406,60.0053311685,FEMA4ImagesEEG,001,101267,
AFNE01.JPG,AFNE01.JPG,AFNE01.JPG,AFNE01.JPG,AFNE01.JPG,AFNE01.JPG,,,,,1,8,18,5,,,,,,,,,,,,,,,,,,,AMSA17.jpg,AMNE17.jpg,AMNE01.jpg,AMSA13.jpg,AMSA13.jpg,MS,2,num_4,32,num_8,0.983457208364,,,2017_Aug_15_1406,60.0053311685,FEMA4ImagesEEG,001,101267,
AFNE01.JPG,AFNE01.JPG,AFNE01.JPG,AFNE01.JPG,AFNE01.JPG,AFNE01.JPG,,,,,1,9,19,0,,,,,,,,,,,,,,,,,,,AMSA14.jpg,AMSA04.jpg,AMNE06.jpg,AMNE12.jpg,AMNE12.jpg,MN,1,num_4,16,num_4,1.03347175391,,,2017_Aug_15_1406,60.0053311685,FEMA4ImagesEEG,001,101267,
AFNE01.JPG,AFNE01.JPG,AFNE01.JPG,AFNE01.JPG,AFNE01.JPG,AFNE01.JPG,,,,,2,0,20,1,,,,,,,,,,,,,,,,,,,AMSA02.jpg,AMNE15.jpg,AMNE04.jpg,AMSA08.jpg,AMNE15.jpg,MN,1,num_6,16,num_6,1.10007944722,,,2017_Aug_15_1406,60.0053311685,FEMA4ImagesEEG,001,101267,
AFNE01.JPG,AFNE01.JPG,AFNE01.JPG,AFNE01.JPG,AFNE01.JPG,AFNE01.JPG,,,,,2,1,21,3,,,,,,,,,,,,,,,,,,,AMSA13.jpg,AMSA18.jpg,AMNE15.jpg,AMNE20.jpg,AMNE15.jpg,MN,1,num_2,16,num_2,0.81677712407,,,2017_Aug_15_1406,60.0053311685,FEMA4ImagesEEG,001,101267,
AFNE01.JPG,AFNE01.JPG,AFNE01.JPG,AFNE01.JPG,AFNE01.JPG,AFNE01.JPG,,,,,2,2,22,4,,,,,,,,,,,,,,,,,,,AMSA18.jpg,AMNE08.jpg,AMNE07.jpg,AMSA19.jpg,AMNE08.jpg,MN,1,num_6,32,num_8,1.25007753883,,,2017_Aug_15_1406,60.0053311685,FEMA4ImagesEEG,001,101267,
AFNE01.JPG,AFNE01.JPG,AFNE01.JPG,AFNE01.JPG,AFNE01.JPG,AFNE01.JPG,,,,,2,3,23,2,,,,,,,,,,,,,,,,,,,AMSA06.jpg,AMNE04.jpg,AMNE13.jpg,AMSA13.jpg,AMSA06.jpg,MS,2,num_8,32,num_2,1.60004432623,,,2017_Aug_15_1406,60.0053311685,FEMA4ImagesEEG,001,101267,
AFNE01.JPG,AFNE01.JPG,AFNE01.JPG,AFNE01.JPG,AFNE01.JPG,AFNE01.JPG,,,,,2,4,24,7,,,,,,,,,,,,,,,,,,,AMNE17.jpg,AMNE07.jpg,AMSA16.jpg,AMSA20.jpg,AMNE17.jpg,MN,1,num_8,16,num_8,3.59991603035,,,2017_Aug_15_1406,60.0053311685,FEMA4ImagesEEG,001,101267,
AFNE01.JPG,AFNE01.JPG,AFNE01.JPG,AFNE01.JPG,AFNE01.JPG,AFNE01.JPG,,,,,2,5,25,6,,,,,,,,,,,,,,,,,,,AMSA08.jpg,AMSA10.jpg,AMNE04.jpg,AMNE18.jpg,AMNE18.jpg,MN,1,num_4,32,num_6,1.633519929,,,2017_Aug_15_1406,60.0053311685,FEMA4ImagesEEG,001,101267,
AFNE01.JPG,AFNE01.JPG,AFNE01.JPG,AFNE01.JPG,AFNE01.JPG,AFNE01.JPG,,,,,2,6,26,8,,,,,,,,,,,,,,,,,,,AMSA13.jpg,AMNE09.jpg,AMNE12.jpg,AMSA04.jpg,AMNE12.jpg,MN,1,num_2,16,num_2,1.28330168167,,,2017_Aug_15_1406,60.0053311685,FEMA4ImagesEEG,001,101267,
AFNE01.JPG,AFNE01.JPG,AFNE01.JPG,AFNE01.JPG,AFNE01.JPG,AFNE01.JPG,,,,,2,7,27,5,,,,,,,,,,,,,,,,,,,AMSA17.jpg,AMNE18.jpg,AMSA06.jpg,AMNE19.jpg,AMSA17.jpg,MS,2,num_8,32,num_6,1.3334179017,,,2017_Aug_15_1406,60.0053311685,FEMA4ImagesEEG,001,101267,
AFNE01.JPG,AFNE01.JPG,AFNE01.JPG,AFNE01.JPG,AFNE01.JPG,AFNE01.JPG,,,,,2,8,28,0,,,,,,,,,,,,,,,,,,,AMNE09.jpg,AMSA08.jpg,AMNE01.jpg,AMSA05.jpg,AMNE01.jpg,MN,1,num_2,16,num_2,0.96671363365,,,2017_Aug_15_1406,60.0053311685,FEMA4ImagesEEG,001,101267,
AFNE01.JPG,AFNE01.JPG,AFNE01.JPG,AFNE01.JPG,AFNE01.JPG,AFNE01.JPG,,,,,2,9,29,9,,,,,,,,,,,,,,,,,,,AMNE05.jpg,AMNE03.jpg,AMSA01.jpg,AMSA03.jpg,AMSA01.jpg,MS,2,num_2,16,num_2,0.566756356187,,,2017_Aug_15_1406,60.0053311685,FEMA4ImagesEEG,001,101267,
AFNE01.JPG,AFNE01.JPG,AFNE01.JPG,AFNE01.JPG,AFNE01.JPG,AFNE01.JPG,,,,,3,0,30,7,,,,,,,,,,,,,,,,,,,AMNE16.jpg,AMNE06.jpg,AMSA04.jpg,AMSA01.jpg,AMNE16.jpg,MN,1,num_8,16,num_8,1.01673427325,,,2017_Aug_15_1406,60.0053311685,FEMA4ImagesEEG,001,101267,
AFNE01.JPG,AFNE01.JPG,AFNE01.JPG,AFNE01.JPG,AFNE01.JPG,AFNE01.JPG,,,,,3,1,31,4,,,,,,,,,,,,,,,,,,,AMNE18.jpg,AMNE03.jpg,AMSA11.jpg,AMSA14.jpg,AMSA14.jpg,MS,2,num_4,16,num_4,0.883428117275,,,2017_Aug_15_1406,60.0053311685,FEMA4ImagesEEG,001,101267,
AFNE01.JPG,AFNE01.JPG,AFNE01.JPG,AFNE01.JPG,AFNE01.JPG,AFNE01.JPG,,,,,3,2,32,1,,,,,,,,,,,,,,,,,,,AMNE17.jpg,AMSA15.jpg,AMSA07.jpg,AMNE16.jpg,AMNE17.jpg,MN,1,num_8,16,num_8,2.76664903667,,,2017_Aug_15_1406,60.0053311685,FEMA4ImagesEEG,001,101267,
AFNE01.JPG,AFNE01.JPG,AFNE01.JPG,AFNE01.JPG,AFNE01.JPG,AFNE01.JPG,,,,,3,3,33,5,,,,,,,,,,,,,,,,,,,AMNE03.jpg,AMSA15.jpg,AMSA10.jpg,AMNE12.jpg,AMNE03.jpg,MN,1,num_8,16,num_8,0.9834341151,,,2017_Aug_15_1406,60.0053311685,FEMA4ImagesEEG,001,101267,
AFNE01.JPG,AFNE01.JPG,AFNE01.JPG,AFNE01.JPG,AFNE01.JPG,AFNE01.JPG,,,,,3,4,34,8,,,,,,,,,,,,,,,,,,,AMNE11.jpg,AMSA03.jpg,AMSA10.jpg,AMNE01.jpg,AMSA03.jpg,MS,2,num_6,32,num_2,0.966736406175,,,2017_Aug_15_1406,60.0053311685,FEMA4ImagesEEG,001,101267,
AFNE01.JPG,AFNE01.JPG,AFNE01.JPG,AFNE01.JPG,AFNE01.JPG,AFNE01.JPG,,,,,3,5,35,3,,,,,,,,,,,,,,,,,,,AMNE14.jpg,AMNE15.jpg,AMSA09.jpg,AMSA08.jpg,AMNE14.jpg,MN,1,num_8,16,num_8,1.13342386746,,,2017_Aug_15_1406,60.0053311685,FEMA4ImagesEEG,001,101267,
AFNE01.JPG,AFNE01.JPG,AFNE01.JPG,AFNE01.JPG,AFNE01.JPG,AFNE01.JPG,,,,,3,6,36,2,,,,,,,,,,,,,,,,,,,AMSA14.jpg,AMNE15.jpg,AMNE16.jpg,AMSA17.jpg,AMNE15.jpg,MN,1,num_6,16,num_6,0.800083584763,,,2017_Aug_15_1406,60.0053311685,FEMA4ImagesEEG,001,101267,
AFNE01.JPG,AFNE01.JPG,AFNE01.JPG,AFNE01.JPG,AFNE01.JPG,AFNE01.JPG,,,,,3,7,37,9,,,,,,,,,,,,,,,,,,,AMSA08.jpg,AMNE19.jpg,AMSA04.jpg,AMNE08.jpg,AMSA08.jpg,MS,2,num_8,16,num_8,1.0667674217,,,2017_Aug_15_1406,60.0053311685,FEMA4ImagesEEG,001,101267,
AFNE01.JPG,AFNE01.JPG,AFNE01.JPG,AFNE01.JPG,AFNE01.JPG,AFNE01.JPG,,,,,3,8,38,6,,,,,,,,,,,,,,,,,,,AMSA11.jpg,AMNE17.jpg,AMNE19.jpg,AMSA17.jpg,AMSA17.jpg,MS,2,num_4,32,num_6,1.66671809193,,,2017_Aug_15_1406,60.0053311685,FEMA4ImagesEEG,001,101267,
AFNE01.JPG,AFNE01.JPG,AFNE01.JPG,AFNE01.JPG,AFNE01.JPG,AFNE01.JPG,,,,,3,9,39,0,,,,,,,,,,,,,,,,,,,AMNE06.jpg,AMSA09.jpg,AMSA18.jpg,AMNE10.jpg,AMNE10.jpg,MN,1,num_4,16,num_4,1.20007774731,,,2017_Aug_15_1406,60.0053311685,FEMA4ImagesEEG,001,101267,
AFNE01.JPG,AFNE01.JPG,AFNE01.JPG,AFNE01.JPG,AFNE01.JPG,AFNE01.JPG,,,,,4,0,40,0,,,,,,,,,,,,,,,,,,,AMSA07.jpg,AMNE10.jpg,AMNE04.jpg,AMSA20.jpg,AMSA20.jpg,MS,2,num_4,16,num_4,1.0667940431,,,2017_Aug_15_1406,60.0053311685,FEMA4ImagesEEG,001,101267,
AFNE01.JPG,AFNE01.JPG,AFNE01.JPG,AFNE01.JPG,AFNE01.JPG,AFNE01.JPG,,,,,4,1,41,4,,,,,,,,,,,,,,,,,,,AMSA19.jpg,AMSA04.jpg,AMNE10.jpg,AMNE02.jpg,AMSA19.jpg,MS,2,num_8,32,num_6,1.28312719926,,,2017_Aug_15_1406,60.0053311685,FEMA4ImagesEEG,001,101267,
AFNE01.JPG,AFNE01.JPG,AFNE01.JPG,AFNE01.JPG,AFNE01.JPG,AFNE01.JPG,,,,,4,2,42,1,,,,,,,,,,,,,,,,,,,AMNE13.jpg,AMSA11.jpg,AMNE15.jpg,AMSA19.jpg,AMNE15.jpg,MN,1,num_2,16,num_2,3.18323859217,,,2017_Aug_15_1406,60.0053311685,FEMA4ImagesEEG,001,101267,
AFNE01.JPG,AFNE01.JPG,AFNE01.JPG,AFNE01.JPG,AFNE01.JPG,AFNE01.JPG,,,,,4,3,43,6,,,,,,,,,,,,,,,,,,,AMNE01.jpg,AMSA02.jpg,AMSA06.jpg,AMNE05.jpg,AMNE05.jpg,MN,1,num_4,16,num_4,0.600127077079,,,2017_Aug_15_1406,60.0053311685,FEMA4ImagesEEG,001,101267,
AFNE01.JPG,AFNE01.JPG,AFNE01.JPG,AFNE01.JPG,AFNE01.JPG,AFNE01.JPG,,,,,4,4,44,3,,,,,,,,,,,,,,,,,,,AMNE03.jpg,AMSA07.jpg,AMSA19.jpg,AMNE16.jpg,AMNE03.jpg,MN,1,num_8,16,num_8,1.6832448466,,,2017_Aug_15_1406,60.0053311685,FEMA4ImagesEEG,001,101267,
AFNE01.JPG,AFNE01.JPG,AFNE01.JPG,AFNE01.JPG,AFNE01.JPG,AFNE01.JPG,,,,,4,5,45,7,,,,,,,,,,,,,,,,,,,AMSA11.jpg,AMNE09.jpg,AMNE12.jpg,AMSA14.jpg,AMNE12.jpg,MN,1,num_2,32,num_6,1.4334065796,,,2017_Aug_15_1406,60.0053311685,FEMA4ImagesEEG,001,101267,
AFNE01.JPG,AFNE01.JPG,AFNE01.JPG,AFNE01.JPG,AFNE01.JPG,AFNE01.JPG,,,,,4,6,46,9,,,,,,,,,,,,,,,,,,,AMSA06.jpg,AMSA17.jpg,AMNE12.jpg,AMNE04.jpg,AMSA06.jpg,MS,2,num_8,32,num_6,1.08343113223,,,2017_Aug_15_1406,60.0053311685,FEMA4ImagesEEG,001,101267,
AFNE01.JPG,AFNE01.JPG,AFNE01.JPG,AFNE01.JPG,AFNE01.JPG,AFNE01.JPG,,,,,4,7,47,2,,,,,,,,,,,,,,,,,,,AMNE16.jpg,AMSA10.jpg,AMSA15.jpg,AMNE12.jpg,AMSA15.jpg,MS,2,num_2,16,num_2,0.950119202913,,,2017_Aug_15_1406,60.0053311685,FEMA4ImagesEEG,001,101267,
AFNE01.JPG,AFNE01.JPG,AFNE01.JPG,AFNE01.JPG,AFNE01.JPG,AFNE01.JPG,,,,,4,8,48,5,,,,,,,,,,,,,,,,,,,AMNE01.jpg,AMSA14.jpg,AMNE20.jpg,AMSA17.jpg,AMNE20.jpg,MN,1,num_2,16,num_2,0.733495456574,,,2017_Aug_15_1406,60.0053311685,FEMA4ImagesEEG,001,101267,
AFNE01.JPG,AFNE01.JPG,AFNE01.JPG,AFNE01.JPG,AFNE01.JPG,AFNE01.JPG,,,,,4,9,49,8,,,,,,,,,,,,,,,,,,,AMSA01.jpg,AMNE12.jpg,AMSA10.jpg,AMNE14.jpg,AMSA10.jpg,MS,2,num_2,32,num_6,1.21672285492,,,2017_Aug_15_1406,60.0053311685,FEMA4ImagesEEG,001,101267,
AFNE01.JPG,AFNE01.JPG,AFNE01.JPG,AFNE01.JPG,AFNE01.JPG,AFNE01.JPG,,,,,5,0,50,6,,,,,,,,,,,,,,,,,,,AMNE02.jpg,AMSA09.jpg,AMSA07.jpg,AMNE06.jpg,AMNE02.jpg,MN,1,num_8,16,num_8,1.23330541828,,,2017_Aug_15_1406,60.0053311685,FEMA4ImagesEEG,001,101267,
AFNE01.JPG,AFNE01.JPG,AFNE01.JPG,AFNE01.JPG,AFNE01.JPG,AFNE01.JPG,,,,,5,1,51,3,,,,,,,,,,,,,,,,,,,AMSA12.jpg,AMNE03.jpg,AMNE14.jpg,AMSA20.jpg,AMSA12.jpg,MS,2,num_8,16,num_8,1.05010723931,,,2017_Aug_15_1406,60.0053311685,FEMA4ImagesEEG,001,101267,
AFNE01.JPG,AFNE01.JPG,AFNE01.JPG,AFNE01.JPG,AFNE01.JPG,AFNE01.JPG,,,,,5,2,52,9,,,,,,,,,,,,,,,,,,,AMSA11.jpg,AMNE17.jpg,AMSA14.jpg,AMNE19.jpg,AMSA11.jpg,MS,2,num_8,32,num_6,1.73337646213,,,2017_Aug_15_1406,60.0053311685,FEMA4ImagesEEG,001,101267,
AFNE01.JPG,AFNE01.JPG,AFNE01.JPG,AFNE01.JPG,AFNE01.JPG,AFNE01.JPG,,,,,5,3,53,2,,,,,,,,,,,,,,,,,,,AMSA13.jpg,AMNE04.jpg,AMNE12.jpg,AMSA07.jpg,AMSA07.jpg,MS,2,num_4,16,num_4,0.566836541097,,,2017_Aug_15_1406,60.0053311685,FEMA4ImagesEEG,001,101267,
AFNE01.JPG,AFNE01.JPG,AFNE01.JPG,AFNE01.JPG,AFNE01.JPG,AFNE01.JPG,,,,,5,4,54,8,,,,,,,,,,,,,,,,,,,AMSA11.jpg,AMNE08.jpg,AMSA19.jpg,AMNE03.jpg,AMSA11.jpg,MS,2,num_8,32,num_6,2.33358949744,,,2017_Aug_15_1406,60.0053311685,FEMA4ImagesEEG,001,101267,
AFNE01.JPG,AFNE01.JPG,AFNE01.JPG,AFNE01.JPG,AFNE01.JPG,AFNE01.JPG,,,,,5,5,55,4,,,,,,,,,,,,,,,,,,,AMSA11.jpg,AMNE13.jpg,AMSA18.jpg,AMNE07.jpg,AMNE07.jpg,MN,1,num_4,16,num_4,0.966722935103,,,2017_Aug_15_1406,60.0053311685,FEMA4ImagesEEG,001,101267,
AFNE01.JPG,AFNE01.JPG,AFNE01.JPG,AFNE01.JPG,AFNE01.JPG,AFNE01.JPG,,,,,5,6,56,7,,,,,,,,,,,,,,,,,,,AMSA17.jpg,AMNE13.jpg,AMSA18.jpg,AMNE02.jpg,AMSA17.jpg,MS,2,num_8,32,num_4,0.900109147726,,,2017_Aug_15_1406,60.0053311685,FEMA4ImagesEEG,001,101267,
AFNE01.JPG,AFNE01.JPG,AFNE01.JPG,AFNE01.JPG,AFNE01.JPG,AFNE01.JPG,,,,,5,7,57,1,,,,,,,,,,,,,,,,,,,AMSA02.jpg,AMNE10.jpg,AMNE07.jpg,AMSA01.jpg,AMSA02.jpg,MS,2,num_8,32,num_2,1.1500417122,,,2017_Aug_15_1406,60.0053311685,FEMA4ImagesEEG,001,101267,
AFNE01.JPG,AFNE01.JPG,AFNE01.JPG,AFNE01.JPG,AFNE01.JPG,AFNE01.JPG,,,,,5,8,58,5,,,,,,,,,,,,,,,,,,,AMNE05.jpg,AMNE04.jpg,AMSA09.jpg,AMSA01.jpg,AMNE05.jpg,MN,1,num_8,16,num_8,1.05010210749,,,2017_Aug_15_1406,60.0053311685,FEMA4ImagesEEG,001,101267,
AFNE01.JPG,AFNE01.JPG,AFNE01.JPG,AFNE01.JPG,AFNE01.JPG,AFNE01.JPG,,,,,5,9,59,0,,,,,,,,,,,,,,,,,,,AMNE13.jpg,AMSA06.jpg,AMSA18.jpg,AMNE07.jpg,AMNE07.jpg,MN,1,num_4,32,num_6,1.13327119537,,,2017_Aug_15_1406,60.0053311685,FEMA4ImagesEEG,001,101267,
,,,,,,,,,,,,,,,,,,,,,,,,,,,,,,,,,,,,,,,,,,,space,1.9833388554,2017_Aug_15_1406,60.0053311685,FEMA4ImagesEEG,001,101267,
AFNE01.JPG,AFNE01.JPG,AFNE01.JPG,AFNE01.JPG,AFNE01.JPG,AFNE01.JPG,,,,,,,,,0,0,0,1,,,,,,,,,,,,,,,AFNE12.jpg,AFNE06.jpg,AFSA04.jpg,AFSA06.jpg,AFSA04.jpg,FS,4,num_2,32,num_4,1.01676153613,,,2017_Aug_15_1406,60.0053311685,FEMA4ImagesEEG,001,101267,
AFNE01.JPG,AFNE01.JPG,AFNE01.JPG,AFNE01.JPG,AFNE01.JPG,AFNE01.JPG,,,,,,,,,0,1,1,5,,,,,,,,,,,,,,,AFSA02.jpg,AFNE20.jpg,AFSA10.jpg,AFNE05.jpg,AFSA02.jpg,FS,4,num_8,16,num_8,0.55011894631,,,2017_Aug_15_1406,60.0053311685,FEMA4ImagesEEG,001,101267,
AFNE01.JPG,AFNE01.JPG,AFNE01.JPG,AFNE01.JPG,AFNE01.JPG,AFNE01.JPG,,,,,,,,,0,2,2,4,,,,,,,,,,,,,,,AFSA10.jpg,AFNE02.jpg,AFNE19.jpg,AFSA05.jpg,AFNE02.jpg,FN,3,num_6,32,num_4,1.21679053101,,,2017_Aug_15_1406,60.0053311685,FEMA4ImagesEEG,001,101267,
AFNE01.JPG,AFNE01.JPG,AFNE01.JPG,AFNE01.JPG,AFNE01.JPG,AFNE01.JPG,,,,,,,,,0,3,3,6,,,,,,,,,,,,,,,AFNE06.jpg,AFSA05.jpg,AFNE10.jpg,AFSA07.jpg,AFNE06.jpg,FN,3,num_8,32,num_6,0.950114712556,,,2017_Aug_15_1406,60.0053311685,FEMA4ImagesEEG,001,101267,
AFNE01.JPG,AFNE01.JPG,AFNE01.JPG,AFNE01.JPG,AFNE01.JPG,AFNE01.JPG,,,,,,,,,0,4,4,9,,,,,,,,,,,,,,,AFNE05.jpg,AFNE13.jpg,AFSA18.jpg,AFSA09.jpg,AFNE13.jpg,FN,3,num_6,16,num_6,0.933704386407,,,2017_Aug_15_1406,60.0053311685,FEMA4ImagesEEG,001,101267,
AFNE01.JPG,AFNE01.JPG,AFNE01.JPG,AFNE01.JPG,AFNE01.JPG,AFNE01.JPG,,,,,,,,,0,5,5,3,,,,,,,,,,,,,,,AFNE07.jpg,AFSA06.jpg,AFNE05.jpg,AFSA14.jpg,AFNE07.jpg,FN,3,num_8,16,num_8,1.03348907383,,,2017_Aug_15_1406,60.0053311685,FEMA4ImagesEEG,001,101267,
AFNE01.JPG,AFNE01.JPG,AFNE01.JPG,AFNE01.JPG,AFNE01.JPG,AFNE01.JPG,,,,,,,,,0,6,6,7,,,,,,,,,,,,,,,AFNE19.jpg,AFSA15.jpg,AFNE15.jpg,AFSA18.jpg,AFNE19.jpg,FN,3,num_8,16,num_8,0.650345613059,,,2017_Aug_15_1406,60.0053311685,FEMA4ImagesEEG,001,101267,
AFNE01.JPG,AFNE01.JPG,AFNE01.JPG,AFNE01.JPG,AFNE01.JPG,AFNE01.JPG,,,,,,,,,0,7,7,0,,,,,,,,,,,,,,,AFSA09.jpg,AFNE14.jpg,AFNE17.jpg,AFSA16.jpg,AFNE17.jpg,FN,3,num_2,16,num_2,2.200009109,,,2017_Aug_15_1406,60.0053311685,FEMA4ImagesEEG,001,101267,
AFNE01.JPG,AFNE01.JPG,AFNE01.JPG,AFNE01.JPG,AFNE01.JPG,AFNE01.JPG,,,,,,,,,0,8,8,8,,,,,,,,,,,,,,,AFNE08.jpg,AFNE20.jpg,AFSA01.jpg,AFSA14.jpg,AFNE20.jpg,FN,3,num_6,32,num_4,0.900114279546,,,2017_Aug_15_1406,60.0053311685,FEMA4ImagesEEG,001,101267,
AFNE01.JPG,AFNE01.JPG,AFNE01.JPG,AFNE01.JPG,AFNE01.JPG,AFNE01.JPG,,,,,,,,,0,9,9,2,,,,,,,,,,,,,,,AFSA09.jpg,AFNE07.jpg,AFSA17.jpg,AFNE11.jpg,AFNE11.jpg,FN,3,num_4,32,num_2,1.26674702264,,,2017_Aug_15_1406,60.0053311685,FEMA4ImagesEEG,001,101267,
AFNE01.JPG,AFNE01.JPG,AFNE01.JPG,AFNE01.JPG,AFNE01.JPG,AFNE01.JPG,,,,,,,,,1,0,10,0,,,,,,,,,,,,,,,AFSA04.jpg,AFNE07.jpg,AFNE06.jpg,AFSA01.jpg,AFNE06.jpg,FN,3,num_2,16,num_2,0.68345685555,,,2017_Aug_15_1406,60.0053311685,FEMA4ImagesEEG,001,101267,
AFNE01.JPG,AFNE01.JPG,AFNE01.JPG,AFNE01.JPG,AFNE01.JPG,AFNE01.JPG,,,,,,,,,1,1,11,9,,,,,,,,,,,,,,,AFNE15.jpg,AFNE07.jpg,AFSA05.jpg,AFSA17.jpg,AFSA17.jpg,FS,4,num_4,16,num_4,0.692505564031,,,2017_Aug_15_1406,60.0053311685,FEMA4ImagesEEG,001,101267,
AFNE01.JPG,AFNE01.JPG,AFNE01.JPG,AFNE01.JPG,AFNE01.JPG,AFNE01.JPG,,,,,,,,,1,2,12,2,,,,,,,,,,,,,,,AFNE09.jpg,AFNE12.jpg,AFSA02.jpg,AFSA16.jpg,AFSA02.jpg,FS,4,num_2,32,num_6,1.1667480811,,,2017_Aug_15_1406,60.0053311685,FEMA4ImagesEEG,001,101267,
AFNE01.JPG,AFNE01.JPG,AFNE01.JPG,AFNE01.JPG,AFNE01.JPG,AFNE01.JPG,,,,,,,,,1,3,13,1,,,,,,,,,,,,,,,AFSA08.jpg,AFNE02.jpg,AFSA11.jpg,AFNE14.jpg,AFSA11.jpg,FS,4,num_2,16,num_2,0.85010262068,,,2017_Aug_15_1406,60.0053311685,FEMA4ImagesEEG,001,101267,
AFNE01.JPG,AFNE01.JPG,AFNE01.JPG,AFNE01.JPG,AFNE01.JPG,AFNE01.JPG,,,,,,,,,1,4,14,3,,,,,,,,,,,,,,,AFSA07.jpg,AFNE04.jpg,AFSA11.jpg,AFNE13.jpg,AFNE13.jpg,FN,3,num_4,16,num_4,0.650119170838,,,2017_Aug_15_1406,60.0053311685,FEMA4ImagesEEG,001,101267,
AFNE01.JPG,AFNE01.JPG,AFNE01.JPG,AFNE01.JPG,AFNE01.JPG,AFNE01.JPG,,,,,,,,,1,5,15,4,,,,,,,,,,,,,,,AFSA05.jpg,AFSA04.jpg,AFNE11.jpg,AFNE10.jpg,AFNE10.jpg,FN,3,num_4,16,num_4,0.833511718069,,,2017_Aug_15_1406,60.0053311685,FEMA4ImagesEEG,001,101267,
AFNE01.JPG,AFNE01.JPG,AFNE01.JPG,AFNE01.JPG,AFNE01.JPG,AFNE01.JPG,,,,,,,,,1,6,16,8,,,,,,,,,,,,,,,AFNE17.jpg,AFSA18.jpg,AFSA06.jpg,AFNE12.jpg,AFNE12.jpg,FN,3,num_4,16,num_4,0.516806279309,,,2017_Aug_15_1406,60.0053311685,FEMA4ImagesEEG,001,101267,
AFNE01.JPG,AFNE01.JPG,AFNE01.JPG,AFNE01.JPG,AFNE01.JPG,AFNE01.JPG,,,,,,,,,1,7,17,6,,,,,,,,,,,,,,,AFNE06.jpg,AFNE17.jpg,AFSA07.jpg,AFSA13.jpg,AFNE06.jpg,FN,3,num_8,16,num_8,1.30006225557,,,2017_Aug_15_1406,60.0053311685,FEMA4ImagesEEG,001,101267,
AFNE01.JPG,AFNE01.JPG,AFNE01.JPG,AFNE01.JPG,AFNE01.JPG,AFNE01.JPG,,,,,,,,,1,8,18,5,,,,,,,,,,,,,,,AFSA01.jpg,AFNE19.jpg,AFSA15.jpg,AFNE17.jpg,AFNE19.jpg,FN,3,num_6,16,num_6,1.11676176064,,,2017_Aug_15_1406,60.0053311685,FEMA4ImagesEEG,001,101267,
AFNE01.JPG,AFNE01.JPG,AFNE01.JPG,AFNE01.JPG,AFNE01.JPG,AFNE01.JPG,,,,,,,,,1,9,19,7,,,,,,,,,,,,,,,AFSA02.jpg,AFSA05.jpg,AFNE14.jpg,AFNE18.jpg,AFNE18.jpg,FN,3,num_4,16,num_4,1.08338462496,,,2017_Aug_15_1406,60.0053311685,FEMA4ImagesEEG,001,101267,
AFNE01.JPG,AFNE01.JPG,AFNE01.JPG,AFNE01.JPG,AFNE01.JPG,AFNE01.JPG,,,,,,,,,2,0,20,1,,,,,,,,,,,,,,,AFNE08.jpg,AFNE14.jpg,AFSA07.jpg,AFSA10.jpg,AFNE14.jpg,FN,3,num_6,16,num_6,0.900100167011,,,2017_Aug_15_1406,60.0053311685,FEMA4ImagesEEG,001,101267,
AFNE01.JPG,AFNE01.JPG,AFNE01.JPG,AFNE01.JPG,AFNE01.JPG,AFNE01.JPG,,,,,,,,,2,1,21,6,,,,,,,,,,,,,,,AFNE07.jpg,AFSA11.jpg,AFNE17.jpg,AFSA04.jpg,AFSA11.jpg,FS,4,num_6,32,num_2,0.916791461146,,,2017_Aug_15_1406,60.0053311685,FEMA4ImagesEEG,001,101267,
AFNE01.JPG,AFNE01.JPG,AFNE01.JPG,AFNE01.JPG,AFNE01.JPG,AFNE01.JPG,,,,,,,,,2,2,22,3,,,,,,,,,,,,,,,AFSA18.jpg,AFNE11.jpg,AFNE17.jpg,AFSA04.jpg,AFNE11.jpg,FN,3,num_6,16,num_6,0.466792054518,,,2017_Aug_15_1406,60.0053311685,FEMA4ImagesEEG,001,101267,
AFNE01.JPG,AFNE01.JPG,AFNE01.JPG,AFNE01.JPG,AFNE01.JPG,AFNE01.JPG,,,,,,,,,2,3,23,0,,,,,,,,,,,,,,,AFSA13.jpg,AFSA07.jpg,AFNE15.jpg,AFNE11.jpg,AFSA07.jpg,FS,4,num_6,32,num_8,1.11686856697,,,2017_Aug_15_1406,60.0053311685,FEMA4ImagesEEG,001,101267,
AFNE01.JPG,AFNE01.JPG,AFNE01.JPG,AFNE01.JPG,AFNE01.JPG,AFNE01.JPG,,,,,,,,,2,4,24,5,,,,,,,,,,,,,,,AFNE16.jpg,AFNE05.jpg,AFSA19.jpg,AFSA07.jpg,AFSA07.jpg,FS,4,num_4,16,num_4,0.800123356501,,,2017_Aug_15_1406,60.0053311685,FEMA4ImagesEEG,001,101267,
AFNE01.JPG,AFNE01.JPG,AFNE01.JPG,AFNE01.JPG,AFNE01.JPG,AFNE01.JPG,,,,,,,,,2,5,25,7,,,,,,,,,,,,,,,AFNE12.jpg,AFSA20.jpg,AFNE10.jpg,AFSA14.jpg,AFSA14.jpg,FS,4,num_4,16,num_4,0.616808428269,,,2017_Aug_15_1406,60.0053311685,FEMA4ImagesEEG,001,101267,
AFNE01.JPG,AFNE01.JPG,AFNE01.JPG,AFNE01.JPG,AFNE01.JPG,AFNE01.JPG,,,,,,,,,2,6,26,8,,,,,,,,,,,,,,,AFSA06.jpg,AFSA07.jpg,AFNE04.jpg,AFNE08.jpg,AFNE08.jpg,FN,3,num_4,32,num_8,1.41658923475,,,2017_Aug_15_1406,60.0053311685,FEMA4ImagesEEG,001,101267,
AFNE01.JPG,AFNE01.JPG,AFNE01.JPG,AFNE01.JPG,AFNE01.JPG,AFNE01.JPG,,,,,,,,,2,7,27,9,,,,,,,,,,,,,,,AFSA15.jpg,AFNE19.jpg,AFNE16.jpg,AFSA05.jpg,AFNE16.jpg,FN,3,num_2,16,num_2,1.01678559161,,,2017_Aug_15_1406,60.0053311685,FEMA4ImagesEEG,001,101267,
AFNE01.JPG,AFNE01.JPG,AFNE01.JPG,AFNE01.JPG,AFNE01.JPG,AFNE01.JPG,,,,,,,,,2,8,28,4,,,,,,,,,,,,,,,AFNE17.jpg,AFNE03.jpg,AFSA12.jpg,AFSA06.jpg,AFSA12.jpg,FS,4,num_2,32,num_6,0.950105411102,,,2017_Aug_15_1406,60.0053311685,FEMA4ImagesEEG,001,101267,
AFNE01.JPG,AFNE01.JPG,AFNE01.JPG,AFNE01.JPG,AFNE01.JPG,AFNE01.JPG,,,,,,,,,2,9,29,2,,,,,,,,,,,,,,,AFSA13.jpg,AFNE12.jpg,AFSA14.jpg,AFNE10.jpg,AFNE10.jpg,FN,3,num_4,16,num_4,0.833434419794,,,2017_Aug_15_1406,60.0053311685,FEMA4ImagesEEG,001,101267,
AFNE01.JPG,AFNE01.JPG,AFNE01.JPG,AFNE01.JPG,AFNE01.JPG,AFNE01.JPG,,,,,,,,,3,0,30,3,,,,,,,,,,,,,,,AFSA04.jpg,AFNE16.jpg,AFSA09.jpg,AFNE06.jpg,AFNE16.jpg,FN,3,num_6,32,num_2,1.95004479129,,,2017_Aug_15_1406,60.0053311685,FEMA4ImagesEEG,001,101267,
AFNE01.JPG,AFNE01.JPG,AFNE01.JPG,AFNE01.JPG,AFNE01.JPG,AFNE01.JPG,,,,,,,,,3,1,31,7,,,,,,,,,,,,,,,AFNE03.jpg,AFSA17.jpg,AFSA06.jpg,AFNE15.jpg,AFNE15.jpg,FN,3,num_4,32,num_6,1.33342399576,,,2017_Aug_15_1406,60.0053311685,FEMA4ImagesEEG,001,101267,
AFNE01.JPG,AFNE01.JPG,AFNE01.JPG,AFNE01.JPG,AFNE01.JPG,AFNE01.JPG,,,,,,,,,3,2,32,5,,,,,,,,,,,,,,,AFSA18.jpg,AFSA02.jpg,AFNE18.jpg,AFNE16.jpg,AFSA18.jpg,FS,4,num_8,16,num_8,0.966628316892,,,2017_Aug_15_1406,60.0053311685,FEMA4ImagesEEG,001,101267,
AFNE01.JPG,AFNE01.JPG,AFNE01.JPG,AFNE01.JPG,AFNE01.JPG,AFNE01.JPG,,,,,,,,,3,3,33,8,,,,,,,,,,,,,,,AFNE17.jpg,AFSA17.jpg,AFNE12.jpg,AFSA13.jpg,AFNE17.jpg,FN,3,num_8,32,num_4,1.76669810986,,,2017_Aug_15_1406,60.0053311685,FEMA4ImagesEEG,001,101267,
AFNE01.JPG,AFNE01.JPG,AFNE01.JPG,AFNE01.JPG,AFNE01.JPG,AFNE01.JPG,,,,,,,,,3,4,34,2,,,,,,,,,,,,,,,AFSA08.jpg,AFNE02.jpg,AFSA13.jpg,AFNE05.jpg,AFSA13.jpg,FS,4,num_2,32,num_4,1.13343701778,,,2017_Aug_15_1406,60.0053311685,FEMA4ImagesEEG,001,101267,
AFNE01.JPG,AFNE01.JPG,AFNE01.JPG,AFNE01.JPG,AFNE01.JPG,AFNE01.JPG,,,,,,,,,3,5,35,9,,,,,,,,,,,,,,,AFNE16.jpg,AFNE15.jpg,AFSA05.jpg,AFSA08.jpg,AFNE16.jpg,FN,3,num_8,32,num_2,1.45005585681,,,2017_Aug_15_1406,60.0053311685,FEMA4ImagesEEG,001,101267,
AFNE01.JPG,AFNE01.JPG,AFNE01.JPG,AFNE01.JPG,AFNE01.JPG,AFNE01.JPG,,,,,,,,,3,6,36,6,,,,,,,,,,,,,,,AFNE18.jpg,AFNE11.jpg,AFSA18.jpg,AFSA17.jpg,AFNE18.jpg,FN,3,num_8,16,num_8,1.14996505542,,,2017_Aug_15_1406,60.0053311685,FEMA4ImagesEEG,001,101267,
AFNE01.JPG,AFNE01.JPG,AFNE01.JPG,AFNE01.JPG,AFNE01.JPG,AFNE01.JPG,,,,,,,,,3,7,37,1,,,,,,,,,,,,,,,AFNE18.jpg,AFNE06.jpg,AFSA08.jpg,AFSA14.jpg,AFSA14.jpg,FS,4,num_4,16,num_4,1.16672242193,,,2017_Aug_15_1406,60.0053311685,FEMA4ImagesEEG,001,101267,
AFNE01.JPG,AFNE01.JPG,AFNE01.JPG,AFNE01.JPG,AFNE01.JPG,AFNE01.JPG,,,,,,,,,3,8,38,0,,,,,,,,,,,,,,,AFNE04.jpg,AFSA13.jpg,AFSA15.jpg,AFNE11.jpg,AFNE11.jpg,FN,3,num_4,16,num_4,0.983410380344,,,2017_Aug_15_1406,60.0053311685,FEMA4ImagesEEG,001,101267,
AFNE01.JPG,AFNE01.JPG,AFNE01.JPG,AFNE01.JPG,AFNE01.JPG,AFNE01.JPG,,,,,,,,,3,9,39,4,,,,,,,,,,,,,,,AFNE02.jpg,AFSA02.jpg,AFSA04.jpg,AFNE07.jpg,AFNE02.jpg,FN,3,num_8,32,num_4,0.883439984624,,,2017_Aug_15_1406,60.0053311685,FEMA4ImagesEEG,001,101267,
AFNE01.JPG,AFNE01.JPG,AFNE01.JPG,AFNE01.JPG,AFNE01.JPG,AFNE01.JPG,,,,,,,,,4,0,40,3,,,,,,,,,,,,,,,AFSA01.jpg,AFNE03.jpg,AFNE14.jpg,AFSA13.jpg,AFNE03.jpg,FN,3,num_6,16,num_6,0.983424492908,,,2017_Aug_15_1406,60.0053311685,FEMA4ImagesEEG,001,101267,
AFNE01.JPG,AFNE01.JPG,AFNE01.JPG,AFNE01.JPG,AFNE01.JPG,AFNE01.JPG,,,,,,,,,4,1,41,6,,,,,,,,,,,,,,,AFNE20.jpg,AFSA07.jpg,AFSA11.jpg,AFNE07.jpg,AFSA11.jpg,FS,4,num_2,32,num_4,0.666788333925,,,2017_Aug_15_1406,60.0053311685,FEMA4ImagesEEG,001,101267,
AFNE01.JPG,AFNE01.JPG,AFNE01.JPG,AFNE01.JPG,AFNE01.JPG,AFNE01.JPG,,,,,,,,,4,2,42,0,,,,,,,,,,,,,,,AFNE04.jpg,AFSA15.jpg,AFSA03.jpg,AFNE15.jpg,AFSA03.jpg,FS,4,num_2,16,num_2,0.966777140115,,,2017_Aug_15_1406,60.0053311685,FEMA4ImagesEEG,001,101267,
AFNE01.JPG,AFNE01.JPG,AFNE01.JPG,AFNE01.JPG,AFNE01.JPG,AFNE01.JPG,,,,,,,,,4,3,43,2,,,,,,,,,,,,,,,AFNE03.jpg,AFSA20.jpg,AFNE06.jpg,AFSA12.jpg,AFSA20.jpg,FS,4,num_6,16,num_6,1.13348031764,,,2017_Aug_15_1406,60.0053311685,FEMA4ImagesEEG,001,101267,
AFNE01.JPG,AFNE01.JPG,AFNE01.JPG,AFNE01.JPG,AFNE01.JPG,AFNE01.JPG,,,,,,,,,4,4,44,7,,,,,,,,,,,,,,,AFNE09.jpg,AFSA11.jpg,AFSA18.jpg,AFNE17.jpg,AFNE09.jpg,FN,3,num_8,32,num_4,0.750151790067,,,2017_Aug_15_1406,60.0053311685,FEMA4ImagesEEG,001,101267,
AFNE01.JPG,AFNE01.JPG,AFNE01.JPG,AFNE01.JPG,AFNE01.JPG,AFNE01.JPG,,,,,,,,,4,5,45,1,,,,,,,,,,,,,,,AFSA08.jpg,AFSA06.jpg,AFNE11.jpg,AFNE15.jpg,AFSA06.jpg,FS,4,num_6,16,num_6,1.13341841489,,,2017_Aug_15_1406,60.0053311685,FEMA4ImagesEEG,001,101267,
AFNE01.JPG,AFNE01.JPG,AFNE01.JPG,AFNE01.JPG,AFNE01.JPG,AFNE01.JPG,,,,,,,,,4,6,46,9,,,,,,,,,,,,,,,AFSA14.jpg,AFNE06.jpg,AFSA02.jpg,AFNE11.jpg,AFSA14.jpg,FS,4,num_8,16,num_8,1.00008692047,,,2017_Aug_15_1406,60.0053311685,FEMA4ImagesEEG,001,101267,
AFNE01.JPG,AFNE01.JPG,AFNE01.JPG,AFNE01.JPG,AFNE01.JPG,AFNE01.JPG,,,,,,,,,4,7,47,4,,,,,,,,,,,,,,,AFNE09.jpg,AFSA18.jpg,AFNE13.jpg,AFSA17.jpg,AFSA17.jpg,FS,4,num_4,32,num_2,1.03344705694,,,2017_Aug_15_1406,60.0053311685,FEMA4ImagesEEG,001,101267,
AFNE01.JPG,AFNE01.JPG,AFNE01.JPG,AFNE01.JPG,AFNE01.JPG,AFNE01.JPG,,,,,,,,,4,8,48,5,,,,,,,,,,,,,,,AFSA02.jpg,AFNE04.jpg,AFSA13.jpg,AFNE08.jpg,AFSA13.jpg,FS,4,num_2,16,num_2,1.01675672503,,,2017_Aug_15_1406,60.0053311685,FEMA4ImagesEEG,001,101267,
AFNE01.JPG,AFNE01.JPG,AFNE01.JPG,AFNE01.JPG,AFNE01.JPG,AFNE01.JPG,,,,,,,,,4,9,49,8,,,,,,,,,,,,,,,AFSA11.jpg,AFNE17.jpg,AFNE11.jpg,AFSA15.jpg,AFNE17.jpg,FN,3,num_6,16,num_6,1.11676657174,,,2017_Aug_15_1406,60.0053311685,FEMA4ImagesEEG,001,101267,
AFNE01.JPG,AFNE01.JPG,AFNE01.JPG,AFNE01.JPG,AFNE01.JPG,AFNE01.JPG,,,,,,,,,5,0,50,9,,,,,,,,,,,,,,,AFSA12.jpg,AFNE12.jpg,AFSA17.jpg,AFNE15.jpg,AFSA12.jpg,FS,4,num_8,16,num_8,0.816918891025,,,2017_Aug_15_1406,60.0053311685,FEMA4ImagesEEG,001,101267,
AFNE01.JPG,AFNE01.JPG,AFNE01.JPG,AFNE01.JPG,AFNE01.JPG,AFNE01.JPG,,,,,,,,,5,1,51,8,,,,,,,,,,,,,,,AFNE16.jpg,AFNE03.jpg,AFSA20.jpg,AFSA15.jpg,AFSA20.jpg,FS,4,num_2,16,num_2,0.8334620034,,,2017_Aug_15_1406,60.0053311685,FEMA4ImagesEEG,001,101267,
AFNE01.JPG,AFNE01.JPG,AFNE01.JPG,AFNE01.JPG,AFNE01.JPG,AFNE01.JPG,,,,,,,,,5,2,52,5,,,,,,,,,,,,,,,AFNE08.jpg,AFSA19.jpg,AFSA02.jpg,AFNE04.jpg,AFNE04.jpg,FN,3,num_4,16,num_4,0.76674108897,,,2017_Aug_15_1406,60.0053311685,FEMA4ImagesEEG,001,101267,
AFNE01.JPG,AFNE01.JPG,AFNE01.JPG,AFNE01.JPG,AFNE01.JPG,AFNE01.JPG,,,,,,,,,5,3,53,2,,,,,,,,,,,,,,,AFSA04.jpg,AFSA11.jpg,AFNE09.jpg,AFNE16.jpg,AFSA11.jpg,FS,4,num_6,16,num_6,1.11676176064,,,2017_Aug_15_1406,60.0053311685,FEMA4ImagesEEG,001,101267,
AFNE01.JPG,AFNE01.JPG,AFNE01.JPG,AFNE01.JPG,AFNE01.JPG,AFNE01.JPG,,,,,,,,,5,4,54,1,,,,,,,,,,,,,,,AFSA20.jpg,AFSA01.jpg,AFNE09.jpg,AFNE16.jpg,AFNE09.jpg,FN,3,num_2,32,num_8,1.20006523846,,,2017_Aug_15_1406,60.0053311685,FEMA4ImagesEEG,001,101267,
AFNE01.JPG,AFNE01.JPG,AFNE01.JPG,AFNE01.JPG,AFNE01.JPG,AFNE01.JPG,,,,,,,,,5,5,55,7,,,,,,,,,,,,,,,AFSA19.jpg,AFNE09.jpg,AFSA07.jpg,AFNE10.jpg,AFSA19.jpg,FS,4,num_8,32,num_6,0.933436248015,,,2017_Aug_15_1406,60.0053311685,FEMA4ImagesEEG,001,101267,
AFNE01.JPG,AFNE01.JPG,AFNE01.JPG,AFNE01.JPG,AFNE01.JPG,AFNE01.JPG,,,,,,,,,5,6,56,0,,,,,,,,,,,,,,,AFSA08.jpg,AFNE15.jpg,AFNE07.jpg,AFSA04.jpg,AFSA04.jpg,FS,4,num_4,16,num_4,0.550152303244,,,2017_Aug_15_1406,60.0053311685,FEMA4ImagesEEG,001,101267,
AFNE01.JPG,AFNE01.JPG,AFNE01.JPG,AFNE01.JPG,AFNE01.JPG,AFNE01.JPG,,,,,,,,,5,7,57,3,,,,,,,,,,,,,,,AFSA02.jpg,AFNE17.jpg,AFSA08.jpg,AFNE19.jpg,AFNE17.jpg,FN,3,num_6,32,num_8,1.36670683397,,,2017_Aug_15_1406,60.0053311685,FEMA4ImagesEEG,001,101267,
AFNE01.JPG,AFNE01.JPG,AFNE01.JPG,AFNE01.JPG,AFNE01.JPG,AFNE01.JPG,,,,,,,,,5,8,58,4,,,,,,,,,,,,,,,AFNE16.jpg,AFSA12.jpg,AFNE12.jpg,AFSA06.jpg,AFNE16.jpg,FN,3,num_8,16,num_8,1.31675322897,,,2017_Aug_15_1406,60.0053311685,FEMA4ImagesEEG,001,101267,
AFNE01.JPG,AFNE01.JPG,AFNE01.JPG,AFNE01.JPG,AFNE01.JPG,AFNE01.JPG,,,,,,,,,5,9,59,6,,,,,,,,,,,,,,,AFSA13.jpg,AFNE02.jpg,AFSA11.jpg,AFNE20.jpg,AFSA13.jpg,FS,4,num_8,32,num_6,1.1001188982,,,2017_Aug_15_1406,60.0053311685,FEMA4ImagesEEG,001,101267,
,,,,,,,,,,,,,,,,,,,,,,,,,,,,,,,,,,,,,,,,,,,space,13.9490521019,2017_Aug_15_1406,60.0053311685,FEMA4ImagesEEG,001,101267,
AFNE01.JPG,AFNE01.JPG,AFNE01.JPG,AFNE01.JPG,AFNE01.JPG,AFNE01.JPG,,,,,,,,,,,,,0,0,0,2,,,,,,,,,,,AMNE18.jpg,AMSA08.jpg,AMSA13.jpg,AMNE04.jpg,AMNE18.jpg,MN,1,num_8,16,num_8,1.03348586644,,,2017_Aug_15_1406,60.0053311685,FEMA4ImagesEEG,001,101267,
AFNE01.JPG,AFNE01.JPG,AFNE01.JPG,AFNE01.JPG,AFNE01.JPG,AFNE01.JPG,,,,,,,,,,,,,0,1,1,6,,,,,,,,,,,AMSA05.jpg,AMSA03.jpg,AMNE06.jpg,AMNE18.jpg,AMSA05.jpg,MS,2,num_8,16,num_8,0.933434965045,,,2017_Aug_15_1406,60.0053311685,FEMA4ImagesEEG,001,101267,
AFNE01.JPG,AFNE01.JPG,AFNE01.JPG,AFNE01.JPG,AFNE01.JPG,AFNE01.JPG,,,,,,,,,,,,,0,2,2,3,,,,,,,,,,,AMNE09.jpg,AMNE12.jpg,AMSA08.jpg,AMSA01.jpg,AMNE12.jpg,MN,1,num_6,32,num_8,0.700139489694,,,2017_Aug_15_1406,60.0053311685,FEMA4ImagesEEG,001,101267,
AFNE01.JPG,AFNE01.JPG,AFNE01.JPG,AFNE01.JPG,AFNE01.JPG,AFNE01.JPG,,,,,,,,,,,,,0,3,3,8,,,,,,,,,,,AMNE13.jpg,AMSA12.jpg,AMNE07.jpg,AMSA13.jpg,AMSA13.jpg,MS,2,num_4,16,num_4,1.08355012664,,,2017_Aug_15_1406,60.0053311685,FEMA4ImagesEEG,001,101267,
AFNE01.JPG,AFNE01.JPG,AFNE01.JPG,AFNE01.JPG,AFNE01.JPG,AFNE01.JPG,,,,,,,,,,,,,0,4,4,9,,,,,,,,,,,AMSA07.jpg,AMNE11.jpg,AMNE03.jpg,AMSA10.jpg,AMNE11.jpg,MN,1,num_6,32,num_2,1.0667706291,,,2017_Aug_15_1406,60.0053311685,FEMA4ImagesEEG,001,101267,
AFNE01.JPG,AFNE01.JPG,AFNE01.JPG,AFNE01.JPG,AFNE01.JPG,AFNE01.JPG,,,,,,,,,,,,,0,5,5,1,,,,,,,,,,,AMSA12.jpg,AMNE15.jpg,AMNE12.jpg,AMSA17.jpg,AMSA12.jpg,MS,2,num_8,16,num_8,0.916763556786,,,2017_Aug_15_1406,60.0053311685,FEMA4ImagesEEG,001,101267,
AFNE01.JPG,AFNE01.JPG,AFNE01.JPG,AFNE01.JPG,AFNE01.JPG,AFNE01.JPG,,,,,,,,,,,,,0,6,6,4,,,,,,,,,,,AMSA02.jpg,AMNE14.jpg,AMNE07.jpg,AMSA01.jpg,AMNE07.jpg,MN,1,num_2,16,num_2,0.766668281052,,,2017_Aug_15_1406,60.0053311685,FEMA4ImagesEEG,001,101267,
AFNE01.JPG,AFNE01.JPG,AFNE01.JPG,AFNE01.JPG,AFNE01.JPG,AFNE01.JPG,,,,,,,,,,,,,0,7,7,5,,,,,,,,,,,AMSA12.jpg,AMNE08.jpg,AMSA18.jpg,AMNE03.jpg,AMNE03.jpg,MN,1,num_4,32,num_8,1.01679361009,,,2017_Aug_15_1406,60.0053311685,FEMA4ImagesEEG,001,101267,
AFNE01.JPG,AFNE01.JPG,AFNE01.JPG,AFNE01.JPG,AFNE01.JPG,AFNE01.JPG,,,,,,,,,,,,,0,8,8,0,,,,,,,,,,,AMNE10.jpg,AMSA17.jpg,AMSA18.jpg,AMNE12.jpg,AMSA18.jpg,MS,2,num_2,32,num_6,0.966767517923,,,2017_Aug_15_1406,60.0053311685,FEMA4ImagesEEG,001,101267,
AFNE01.JPG,AFNE01.JPG,AFNE01.JPG,AFNE01.JPG,AFNE01.JPG,AFNE01.JPG,,,,,,,,,,,,,0,9,9,7,,,,,,,,,,,AMSA09.jpg,AMNE01.jpg,AMNE12.jpg,AMSA13.jpg,AMSA13.jpg,MS,2,num_4,32,num_8,1.03345956579,,,2017_Aug_15_1406,60.0053311685,FEMA4ImagesEEG,001,101267,
AFNE01.JPG,AFNE01.JPG,AFNE01.JPG,AFNE01.JPG,AFNE01.JPG,AFNE01.JPG,,,,,,,,,,,,,1,0,10,4,,,,,,,,,,,AMSA18.jpg,AMNE08.jpg,AMSA07.jpg,AMNE17.jpg,AMNE17.jpg,MN,1,num_4,32,num_6,0.966753084635,,,2017_Aug_15_1406,60.0053311685,FEMA4ImagesEEG,001,101267,
AFNE01.JPG,AFNE01.JPG,AFNE01.JPG,AFNE01.JPG,AFNE01.JPG,AFNE01.JPG,,,,,,,,,,,,,1,1,11,2,,,,,,,,,,,AMNE20.jpg,AMSA19.jpg,AMNE09.jpg,AMSA02.jpg,AMNE09.jpg,MN,1,num_2,16,num_2,1.98335681683,,,2017_Aug_15_1406,60.0053311685,FEMA4ImagesEEG,001,101267,
AFNE01.JPG,AFNE01.JPG,AFNE01.JPG,AFNE01.JPG,AFNE01.JPG,AFNE01.JPG,,,,,,,,,,,,,1,2,12,3,,,,,,,,,,,AMNE07.jpg,AMNE17.jpg,AMSA18.jpg,AMSA11.jpg,AMSA11.jpg,MS,2,num_4,32,num_2,0.983525846648,,,2017_Aug_15_1406,60.0053311685,FEMA4ImagesEEG,001,101267,
AFNE01.JPG,AFNE01.JPG,AFNE01.JPG,AFNE01.JPG,AFNE01.JPG,AFNE01.JPG,,,,,,,,,,,,,1,3,13,7,,,,,,,,,,,AMNE05.jpg,AMSA17.jpg,AMNE03.jpg,AMSA07.jpg,AMNE05.jpg,MN,1,num_8,16,num_8,0.766737881568,,,2017_Aug_15_1406,60.0053311685,FEMA4ImagesEEG,001,101267,
AFNE01.JPG,AFNE01.JPG,AFNE01.JPG,AFNE01.JPG,AFNE01.JPG,AFNE01.JPG,,,,,,,,,,,,,1,4,14,1,,,,,,,,,,,AMNE16.jpg,AMSA12.jpg,AMSA03.jpg,AMNE04.jpg,AMSA12.jpg,MS,2,num_6,16,num_6,1.26668576137,,,2017_Aug_15_1406,60.0053311685,FEMA4ImagesEEG,001,101267,
AFNE01.JPG,AFNE01.JPG,AFNE01.JPG,AFNE01.JPG,AFNE01.JPG,AFNE01.JPG,,,,,,,,,,,,,1,5,15,8,,,,,,,,,,,AMNE08.jpg,AMSA06.jpg,AMNE15.jpg,AMSA12.jpg,AMSA12.jpg,MS,2,num_4,32,num_8,0.90011075142,,,2017_Aug_15_1406,60.0053311685,FEMA4ImagesEEG,001,101267,
AFNE01.JPG,AFNE01.JPG,AFNE01.JPG,AFNE01.JPG,AFNE01.JPG,AFNE01.JPG,,,,,,,,,,,,,1,6,16,9,,,,,,,,,,,AMSA10.jpg,AMNE19.jpg,AMNE01.jpg,AMSA07.jpg,AMSA07.jpg,MS,2,num_4,16,num_4,0.950098996313,,,2017_Aug_15_1406,60.0053311685,FEMA4ImagesEEG,001,101267,
AFNE01.JPG,AFNE01.JPG,AFNE01.JPG,AFNE01.JPG,AFNE01.JPG,AFNE01.JPG,,,,,,,,,,,,,1,7,17,6,,,,,,,,,,,AMSA20.jpg,AMNE20.jpg,AMSA14.jpg,AMNE01.jpg,AMNE20.jpg,MN,1,num_6,16,num_6,1.15011708603,,,2017_Aug_15_1406,60.0053311685,FEMA4ImagesEEG,001,101267,
AFNE01.JPG,AFNE01.JPG,AFNE01.JPG,AFNE01.JPG,AFNE01.JPG,AFNE01.JPG,,,,,,,,,,,,,1,8,18,0,,,,,,,,,,,AMNE05.jpg,AMSA07.jpg,AMSA12.jpg,AMNE16.jpg,AMNE16.jpg,MN,1,num_4,48,None,,,,2017_Aug_15_1406,60.0053311685,FEMA4ImagesEEG,001,101267,
AFNE01.JPG,AFNE01.JPG,AFNE01.JPG,AFNE01.JPG,AFNE01.JPG,AFNE01.JPG,,,,,,,,,,,,,1,9,19,5,,,,,,,,,,,AMNE01.jpg,AMSA17.jpg,AMNE02.jpg,AMSA10.jpg,AMSA10.jpg,MS,2,num_4,32,num_2,2.73332835118,,,2017_Aug_15_1406,60.0053311685,FEMA4ImagesEEG,001,101267,
AFNE01.JPG,AFNE01.JPG,AFNE01.JPG,AFNE01.JPG,AFNE01.JPG,AFNE01.JPG,,,,,,,,,,,,,2,0,20,7,,,,,,,,,,,AMNE02.jpg,AMSA13.jpg,AMSA18.jpg,AMNE09.jpg,AMNE09.jpg,MN,1,num_4,16,num_4,0.683446271141,,,2017_Aug_15_1406,60.0053311685,FEMA4ImagesEEG,001,101267,
AFNE01.JPG,AFNE01.JPG,AFNE01.JPG,AFNE01.JPG,AFNE01.JPG,AFNE01.JPG,,,,,,,,,,,,,2,1,21,0,,,,,,,,,,,AMNE20.jpg,AMSA14.jpg,AMSA01.jpg,AMNE16.jpg,AMNE16.jpg,MN,1,num_4,16,num_4,0.750522565169,,,2017_Aug_15_1406,60.0053311685,FEMA4ImagesEEG,001,101267,
AFNE01.JPG,AFNE01.JPG,AFNE01.JPG,AFNE01.JPG,AFNE01.JPG,AFNE01.JPG,,,,,,,,,,,,,2,2,22,1,,,,,,,,,,,AMSA02.jpg,AMNE03.jpg,AMNE08.jpg,AMSA04.jpg,AMNE03.jpg,MN,1,num_6,32,num_8,1.03343711401,,,2017_Aug_15_1406,60.0053311685,FEMA4ImagesEEG,001,101267,
AFNE01.JPG,AFNE01.JPG,AFNE01.JPG,AFNE01.JPG,AFNE01.JPG,AFNE01.JPG,,,,,,,,,,,,,2,3,23,4,,,,,,,,,,,AMSA05.jpg,AMNE16.jpg,AMSA13.jpg,AMNE03.jpg,AMNE16.jpg,MN,1,num_6,16,num_6,1.4000939126,,,2017_Aug_15_1406,60.0053311685,FEMA4ImagesEEG,001,101267,
AFNE01.JPG,AFNE01.JPG,AFNE01.JPG,AFNE01.JPG,AFNE01.JPG,AFNE01.JPG,,,,,,,,,,,,,2,4,24,5,,,,,,,,,,,AMNE01.jpg,AMSA16.jpg,AMSA11.jpg,AMNE14.jpg,AMSA11.jpg,MS,2,num_2,32,num_6,1.11672070595,,,2017_Aug_15_1406,60.0053311685,FEMA4ImagesEEG,001,101267,
AFNE01.JPG,AFNE01.JPG,AFNE01.JPG,AFNE01.JPG,AFNE01.JPG,AFNE01.JPG,,,,,,,,,,,,,2,5,25,2,,,,,,,,,,,AMSA04.jpg,AMSA08.jpg,AMNE16.jpg,AMNE05.jpg,AMNE16.jpg,MN,1,num_2,16,num_2,0.466507879144,,,2017_Aug_15_1406,60.0053311685,FEMA4ImagesEEG,001,101267,
AFNE01.JPG,AFNE01.JPG,AFNE01.JPG,AFNE01.JPG,AFNE01.JPG,AFNE01.JPG,,,,,,,,,,,,,2,6,26,8,,,,,,,,,,,AMSA03.jpg,AMSA06.jpg,AMNE07.jpg,AMNE01.jpg,AMSA06.jpg,MS,2,num_6,32,num_8,1.66674022297,,,2017_Aug_15_1406,60.0053311685,FEMA4ImagesEEG,001,101267,
AFNE01.JPG,AFNE01.JPG,AFNE01.JPG,AFNE01.JPG,AFNE01.JPG,AFNE01.JPG,,,,,,,,,,,,,2,7,27,6,,,,,,,,,,,AMSA12.jpg,AMSA03.jpg,AMNE14.jpg,AMNE03.jpg,AMNE03.jpg,MN,1,num_4,16,num_4,0.983651576607,,,2017_Aug_15_1406,60.0053311685,FEMA4ImagesEEG,001,101267,
AFNE01.JPG,AFNE01.JPG,AFNE01.JPG,AFNE01.JPG,AFNE01.JPG,AFNE01.JPG,,,,,,,,,,,,,2,8,28,9,,,,,,,,,,,AMNE03.jpg,AMSA17.jpg,AMNE02.jpg,AMSA15.jpg,AMSA17.jpg,MS,2,num_6,16,num_6,0.833707048543,,,2017_Aug_15_1406,60.0053311685,FEMA4ImagesEEG,001,101267,
AFNE01.JPG,AFNE01.JPG,AFNE01.JPG,AFNE01.JPG,AFNE01.JPG,AFNE01.JPG,,,,,,,,,,,,,2,9,29,3,,,,,,,,,,,AMNE14.jpg,AMSA17.jpg,AMSA02.jpg,AMNE16.jpg,AMSA02.jpg,MS,2,num_2,16,num_2,0.966797988192,,,2017_Aug_15_1406,60.0053311685,FEMA4ImagesEEG,001,101267,
AFNE01.JPG,AFNE01.JPG,AFNE01.JPG,AFNE01.JPG,AFNE01.JPG,AFNE01.JPG,,,,,,,,,,,,,3,0,30,5,,,,,,,,,,,AMSA16.jpg,AMNE16.jpg,AMSA05.jpg,AMNE20.jpg,AMSA16.jpg,MS,2,num_8,16,num_8,0.716765673671,,,2017_Aug_15_1406,60.0053311685,FEMA4ImagesEEG,001,101267,
AFNE01.JPG,AFNE01.JPG,AFNE01.JPG,AFNE01.JPG,AFNE01.JPG,AFNE01.JPG,,,,,,,,,,,,,3,1,31,6,,,,,,,,,,,AMSA11.jpg,AMNE15.jpg,AMNE14.jpg,AMSA15.jpg,AMSA15.jpg,MS,2,num_4,16,num_4,1.63335410657,,,2017_Aug_15_1406,60.0053311685,FEMA4ImagesEEG,001,101267,
AFNE01.JPG,AFNE01.JPG,AFNE01.JPG,AFNE01.JPG,AFNE01.JPG,AFNE01.JPG,,,,,,,,,,,,,3,2,32,2,,,,,,,,,,,AMNE03.jpg,AMSA15.jpg,AMNE11.jpg,AMSA06.jpg,AMSA15.jpg,MS,2,num_6,16,num_6,0.866810593259,,,2017_Aug_15_1406,60.0053311685,FEMA4ImagesEEG,001,101267,
AFNE01.JPG,AFNE01.JPG,AFNE01.JPG,AFNE01.JPG,AFNE01.JPG,AFNE01.JPG,,,,,,,,,,,,,3,3,33,3,,,,,,,,,,,AMSA04.jpg,AMSA07.jpg,AMNE18.jpg,AMNE20.jpg,AMSA07.jpg,MS,2,num_6,32,num_8,1.31670704244,,,2017_Aug_15_1406,60.0053311685,FEMA4ImagesEEG,001,101267,
AFNE01.JPG,AFNE01.JPG,AFNE01.JPG,AFNE01.JPG,AFNE01.JPG,AFNE01.JPG,,,,,,,,,,,,,3,4,34,1,,,,,,,,,,,AMNE08.jpg,AMNE04.jpg,AMSA11.jpg,AMSA18.jpg,AMSA18.jpg,MS,2,num_4,16,num_4,0.583609303125,,,2017_Aug_15_1406,60.0053311685,FEMA4ImagesEEG,001,101267,
AFNE01.JPG,AFNE01.JPG,AFNE01.JPG,AFNE01.JPG,AFNE01.JPG,AFNE01.JPG,,,,,,,,,,,,,3,5,35,8,,,,,,,,,,,AMNE05.jpg,AMSA15.jpg,AMSA09.jpg,AMNE10.jpg,AMSA15.jpg,MS,2,num_6,32,num_2,0.350141911287,,,2017_Aug_15_1406,60.0053311685,FEMA4ImagesEEG,001,101267,
AFNE01.JPG,AFNE01.JPG,AFNE01.JPG,AFNE01.JPG,AFNE01.JPG,AFNE01.JPG,,,,,,,,,,,,,3,6,36,9,,,,,,,,,,,AMNE18.jpg,AMSA03.jpg,AMNE15.jpg,AMSA15.jpg,AMNE18.jpg,MN,1,num_8,16,num_8,1.03316673044,,,2017_Aug_15_1406,60.0053311685,FEMA4ImagesEEG,001,101267,
AFNE01.JPG,AFNE01.JPG,AFNE01.JPG,AFNE01.JPG,AFNE01.JPG,AFNE01.JPG,,,,,,,,,,,,,3,7,37,7,,,,,,,,,,,AMSA09.jpg,AMNE19.jpg,AMSA19.jpg,AMNE11.jpg,AMNE19.jpg,MN,1,num_6,32,num_8,1.05003443141,,,2017_Aug_15_1406,60.0053311685,FEMA4ImagesEEG,001,101267,
AFNE01.JPG,AFNE01.JPG,AFNE01.JPG,AFNE01.JPG,AFNE01.JPG,AFNE01.JPG,,,,,,,,,,,,,3,8,38,4,,,,,,,,,,,AMNE04.jpg,AMNE07.jpg,AMSA19.jpg,AMSA10.jpg,AMNE07.jpg,MN,1,num_6,16,num_6,1.61655728909,,,2017_Aug_15_1406,60.0053311685,FEMA4ImagesEEG,001,101267,
AFNE01.JPG,AFNE01.JPG,AFNE01.JPG,AFNE01.JPG,AFNE01.JPG,AFNE01.JPG,,,,,,,,,,,,,3,9,39,0,,,,,,,,,,,AMNE18.jpg,AMSA09.jpg,AMNE17.jpg,AMSA13.jpg,AMNE18.jpg,MN,1,num_8,16,num_8,0.95010348667,,,2017_Aug_15_1406,60.0053311685,FEMA4ImagesEEG,001,101267,
AFNE01.JPG,AFNE01.JPG,AFNE01.JPG,AFNE01.JPG,AFNE01.JPG,AFNE01.JPG,,,,,,,,,,,,,4,0,40,8,,,,,,,,,,,AMNE06.jpg,AMNE09.jpg,AMSA04.jpg,AMSA08.jpg,AMSA08.jpg,MS,2,num_4,16,num_4,1.15010329422,,,2017_Aug_15_1406,60.0053311685,FEMA4ImagesEEG,001,101267,
AFNE01.JPG,AFNE01.JPG,AFNE01.JPG,AFNE01.JPG,AFNE01.JPG,AFNE01.JPG,,,,,,,,,,,,,4,1,41,6,,,,,,,,,,,AMSA19.jpg,AMSA02.jpg,AMNE19.jpg,AMNE02.jpg,AMNE19.jpg,MN,1,num_2,32,num_8,1.81665171485,,,2017_Aug_15_1406,60.0053311685,FEMA4ImagesEEG,001,101267,
AFNE01.JPG,AFNE01.JPG,AFNE01.JPG,AFNE01.JPG,AFNE01.JPG,AFNE01.JPG,,,,,,,,,,,,,4,2,42,5,,,,,,,,,,,AMNE17.jpg,AMSA07.jpg,AMNE15.jpg,AMSA11.jpg,AMNE17.jpg,MN,1,num_8,16,num_8,0.650091907955,,,2017_Aug_15_1406,60.0053311685,FEMA4ImagesEEG,001,101267,
AFNE01.JPG,AFNE01.JPG,AFNE01.JPG,AFNE01.JPG,AFNE01.JPG,AFNE01.JPG,,,,,,,,,,,,,4,3,43,7,,,,,,,,,,,AMNE15.jpg,AMSA07.jpg,AMNE14.jpg,AMSA01.jpg,AMNE14.jpg,MN,1,num_2,16,num_2,0.93344779464,,,2017_Aug_15_1406,60.0053311685,FEMA4ImagesEEG,001,101267,
AFNE01.JPG,AFNE01.JPG,AFNE01.JPG,AFNE01.JPG,AFNE01.JPG,AFNE01.JPG,,,,,,,,,,,,,4,4,44,9,,,,,,,,,,,AMSA14.jpg,AMSA02.jpg,AMNE10.jpg,AMNE04.jpg,AMSA14.jpg,MS,2,num_8,16,num_8,0.850067980777,,,2017_Aug_15_1406,60.0053311685,FEMA4ImagesEEG,001,101267,
AFNE01.JPG,AFNE01.JPG,AFNE01.JPG,AFNE01.JPG,AFNE01.JPG,AFNE01.JPG,,,,,,,,,,,,,4,5,45,3,,,,,,,,,,,AMNE19.jpg,AMNE04.jpg,AMSA07.jpg,AMSA16.jpg,AMNE04.jpg,MN,1,num_6,16,num_6,2.30008182069,,,2017_Aug_15_1406,60.0053311685,FEMA4ImagesEEG,001,101267,
AFNE01.JPG,AFNE01.JPG,AFNE01.JPG,AFNE01.JPG,AFNE01.JPG,AFNE01.JPG,,,,,,,,,,,,,4,6,46,0,,,,,,,,,,,AMNE05.jpg,AMNE15.jpg,AMSA20.jpg,AMSA05.jpg,AMSA20.jpg,MS,2,num_2,32,num_8,1.91667984372,,,2017_Aug_15_1406,60.0053311685,FEMA4ImagesEEG,001,101267,
AFNE01.JPG,AFNE01.JPG,AFNE01.JPG,AFNE01.JPG,AFNE01.JPG,AFNE01.JPG,,,,,,,,,,,,,4,7,47,1,,,,,,,,,,,AMNE07.jpg,AMNE05.jpg,AMSA02.jpg,AMSA16.jpg,AMSA02.jpg,MS,2,num_2,16,num_2,0.966765914229,,,2017_Aug_15_1406,60.0053311685,FEMA4ImagesEEG,001,101267,
AFNE01.JPG,AFNE01.JPG,AFNE01.JPG,AFNE01.JPG,AFNE01.JPG,AFNE01.JPG,,,,,,,,,,,,,4,8,48,4,,,,,,,,,,,AMSA19.jpg,AMNE13.jpg,AMSA20.jpg,AMNE07.jpg,AMNE13.jpg,MN,1,num_6,32,num_8,1.06675844098,,,2017_Aug_15_1406,60.0053311685,FEMA4ImagesEEG,001,101267,
AFNE01.JPG,AFNE01.JPG,AFNE01.JPG,AFNE01.JPG,AFNE01.JPG,AFNE01.JPG,,,,,,,,,,,,,4,9,49,2,,,,,,,,,,,AMSA04.jpg,AMSA03.jpg,AMNE10.jpg,AMNE18.jpg,AMNE18.jpg,MN,1,num_4,16,num_4,0.716818595713,,,2017_Aug_15_1406,60.0053311685,FEMA4ImagesEEG,001,101267,
AFNE01.JPG,AFNE01.JPG,AFNE01.JPG,AFNE01.JPG,AFNE01.JPG,AFNE01.JPG,,,,,,,,,,,,,5,0,50,9,,,,,,,,,,,AMNE02.jpg,AMNE05.jpg,AMSA14.jpg,AMSA06.jpg,AMNE02.jpg,MN,1,num_8,32,num_2,0.816746333061,,,2017_Aug_15_1406,60.0053311685,FEMA4ImagesEEG,001,101267,
AFNE01.JPG,AFNE01.JPG,AFNE01.JPG,AFNE01.JPG,AFNE01.JPG,AFNE01.JPG,,,,,,,,,,,,,5,1,51,7,,,,,,,,,,,AMSA15.jpg,AMNE16.jpg,AMNE11.jpg,AMSA05.jpg,AMNE16.jpg,MN,1,num_6,16,num_6,1.20011655681,,,2017_Aug_15_1406,60.0053311685,FEMA4ImagesEEG,001,101267,
AFNE01.JPG,AFNE01.JPG,AFNE01.JPG,AFNE01.JPG,AFNE01.JPG,AFNE01.JPG,,,,,,,,,,,,,5,2,52,5,,,,,,,,,,,AMNE18.jpg,AMSA03.jpg,AMNE17.jpg,AMSA20.jpg,AMSA20.jpg,MS,2,num_4,16,num_4,0.650160225516,,,2017_Aug_15_1406,60.0053311685,FEMA4ImagesEEG,001,101267,
AFNE01.JPG,AFNE01.JPG,AFNE01.JPG,AFNE01.JPG,AFNE01.JPG,AFNE01.JPG,,,,,,,,,,,,,5,3,53,6,,,,,,,,,,,AMSA19.jpg,AMSA10.jpg,AMNE05.jpg,AMNE15.jpg,AMNE05.jpg,MN,1,num_2,16,num_2,2.36663723346,,,2017_Aug_15_1406,60.0053311685,FEMA4ImagesEEG,001,101267,
AFNE01.JPG,AFNE01.JPG,AFNE01.JPG,AFNE01.JPG,AFNE01.JPG,AFNE01.JPG,,,,,,,,,,,,,5,4,54,2,,,,,,,,,,,AMSA14.jpg,AMNE03.jpg,AMNE06.jpg,AMSA08.jpg,AMNE06.jpg,MN,1,num_2,32,num_8,0.98347100016,,,2017_Aug_15_1406,60.0053311685,FEMA4ImagesEEG,001,101267,
AFNE01.JPG,AFNE01.JPG,AFNE01.JPG,AFNE01.JPG,AFNE01.JPG,AFNE01.JPG,,,,,,,,,,,,,5,5,55,8,,,,,,,,,,,AMSA17.jpg,AMSA08.jpg,AMNE10.jpg,AMNE02.jpg,AMSA08.jpg,MS,2,num_6,16,num_6,0.550034271029,,,2017_Aug_15_1406,60.0053311685,FEMA4ImagesEEG,001,101267,
AFNE01.JPG,AFNE01.JPG,AFNE01.JPG,AFNE01.JPG,AFNE01.JPG,AFNE01.JPG,,,,,,,,,,,,,5,6,56,1,,,,,,,,,,,AMSA12.jpg,AMSA16.jpg,AMNE02.jpg,AMNE04.jpg,AMSA16.jpg,MS,2,num_6,16,num_6,1.26673291011,,,2017_Aug_15_1406,60.0053311685,FEMA4ImagesEEG,001,101267,
AFNE01.JPG,AFNE01.JPG,AFNE01.JPG,AFNE01.JPG,AFNE01.JPG,AFNE01.JPG,,,,,,,,,,,,,5,7,57,3,,,,,,,,,,,AMSA09.jpg,AMNE01.jpg,AMNE09.jpg,AMSA02.jpg,AMSA02.jpg,MS,2,num_4,16,num_4,0.733431308618,,,2017_Aug_15_1406,60.0053311685,FEMA4ImagesEEG,001,101267,
AFNE01.JPG,AFNE01.JPG,AFNE01.JPG,AFNE01.JPG,AFNE01.JPG,AFNE01.JPG,,,,,,,,,,,,,5,8,58,4,,,,,,,,,,,AMSA10.jpg,AMSA02.jpg,AMNE05.jpg,AMNE18.jpg,AMNE05.jpg,MN,1,num_2,32,num_4,1.31674681418,,,2017_Aug_15_1406,60.0053311685,FEMA4ImagesEEG,001,101267,
AFNE01.JPG,AFNE01.JPG,AFNE01.JPG,AFNE01.JPG,AFNE01.JPG,AFNE01.JPG,,,,,,,,,,,,,5,9,59,0,,,,,,,,,,,AMNE18.jpg,AMNE14.jpg,AMSA08.jpg,AMSA17.jpg,AMSA17.jpg,MS,2,num_4,32,num_8,0.950098996313,,,2017_Aug_15_1406,60.0053311685,FEMA4ImagesEEG,001,101267,
,,,,,,,,,,,,,,,,,,,,,,,,,,,,,,,,,,,,,,,,,,,space,3.41684101542,2017_Aug_15_1406,60.0053311685,FEMA4ImagesEEG,001,101267,
AFNE01.JPG,AFNE01.JPG,AFNE01.JPG,AFNE01.JPG,AFNE01.JPG,AFNE01.JPG,,,,,,,,,,,,,,,,,0,0,0,2,,,,,,,AFNE19.jpg,AFSA14.jpg,AFNE16.jpg,AFSA13.jpg,AFNE16.jpg,FN,3,num_2,32,num_4,0.983441492106,,,2017_Aug_15_1406,60.0053311685,FEMA4ImagesEEG,001,101267,
AFNE01.JPG,AFNE01.JPG,AFNE01.JPG,AFNE01.JPG,AFNE01.JPG,AFNE01.JPG,,,,,,,,,,,,,,,,,0,1,1,3,,,,,,,AFNE07.jpg,AFSA12.jpg,AFSA19.jpg,AFNE01.jpg,AFSA12.jpg,FS,4,num_6,16,num_6,0.850125072451,,,2017_Aug_15_1406,60.0053311685,FEMA4ImagesEEG,001,101267,
AFNE01.JPG,AFNE01.JPG,AFNE01.JPG,AFNE01.JPG,AFNE01.JPG,AFNE01.JPG,,,,,,,,,,,,,,,,,0,2,2,1,,,,,,,AFNE15.jpg,AFNE14.jpg,AFSA13.jpg,AFSA09.jpg,AFSA09.jpg,FS,4,num_4,32,num_8,0.399954711553,,,2017_Aug_15_1406,60.0053311685,FEMA4ImagesEEG,001,101267,
AFNE01.JPG,AFNE01.JPG,AFNE01.JPG,AFNE01.JPG,AFNE01.JPG,AFNE01.JPG,,,,,,,,,,,,,,,,,0,3,3,5,,,,,,,AFNE04.jpg,AFNE06.jpg,AFSA12.jpg,AFSA13.jpg,AFNE04.jpg,FN,3,num_8,32,num_6,0.816858912702,,,2017_Aug_15_1406,60.0053311685,FEMA4ImagesEEG,001,101267,
AFNE01.JPG,AFNE01.JPG,AFNE01.JPG,AFNE01.JPG,AFNE01.JPG,AFNE01.JPG,,,,,,,,,,,,,,,,,0,4,4,4,,,,,,,AFNE20.jpg,AFSA07.jpg,AFSA01.jpg,AFNE10.jpg,AFSA07.jpg,FS,4,num_6,16,num_6,0.783435590507,,,2017_Aug_15_1406,60.0053311685,FEMA4ImagesEEG,001,101267,
AFNE01.JPG,AFNE01.JPG,AFNE01.JPG,AFNE01.JPG,AFNE01.JPG,AFNE01.JPG,,,,,,,,,,,,,,,,,0,5,5,0,,,,,,,AFSA17.jpg,AFNE17.jpg,AFNE11.jpg,AFSA04.jpg,AFSA17.jpg,FS,4,num_8,16,num_8,0.583531684111,,,2017_Aug_15_1406,60.0053311685,FEMA4ImagesEEG,001,101267,
AFNE01.JPG,AFNE01.JPG,AFNE01.JPG,AFNE01.JPG,AFNE01.JPG,AFNE01.JPG,,,,,,,,,,,,,,,,,0,6,6,7,,,,,,,AFNE16.jpg,AFSA14.jpg,AFNE19.jpg,AFSA02.jpg,AFNE16.jpg,FN,3,num_8,16,num_8,0.766782464387,,,2017_Aug_15_1406,60.0053311685,FEMA4ImagesEEG,001,101267,
AFNE01.JPG,AFNE01.JPG,AFNE01.JPG,AFNE01.JPG,AFNE01.JPG,AFNE01.JPG,,,,,,,,,,,,,,,,,0,7,7,9,,,,,,,AFSA08.jpg,AFNE05.jpg,AFNE09.jpg,AFSA04.jpg,AFNE09.jpg,FN,3,num_2,32,num_6,1.05008125941,,,2017_Aug_15_1406,60.0053311685,FEMA4ImagesEEG,001,101267,
AFNE01.JPG,AFNE01.JPG,AFNE01.JPG,AFNE01.JPG,AFNE01.JPG,AFNE01.JPG,,,,,,,,,,,,,,,,,0,8,8,6,,,,,,,AFNE04.jpg,AFNE14.jpg,AFSA06.jpg,AFSA16.jpg,AFNE14.jpg,FN,3,num_6,32,num_8,0.96649200251,,,2017_Aug_15_1406,60.0053311685,FEMA4ImagesEEG,001,101267,
AFNE01.JPG,AFNE01.JPG,AFNE01.JPG,AFNE01.JPG,AFNE01.JPG,AFNE01.JPG,,,,,,,,,,,,,,,,,0,9,9,8,,,,,,,AFNE06.jpg,AFSA20.jpg,AFSA16.jpg,AFNE11.jpg,AFSA16.jpg,FS,4,num_2,16,num_2,1.40005093347,,,2017_Aug_15_1406,60.0053311685,FEMA4ImagesEEG,001,101267,
AFNE01.JPG,AFNE01.JPG,AFNE01.JPG,AFNE01.JPG,AFNE01.JPG,AFNE01.JPG,,,,,,,,,,,,,,,,,1,0,10,3,,,,,,,AFNE19.jpg,AFSA03.jpg,AFNE17.jpg,AFSA14.jpg,AFNE17.jpg,FN,3,num_2,32,num_6,1.18352308829,,,2017_Aug_15_1406,60.0053311685,FEMA4ImagesEEG,001,101267,
AFNE01.JPG,AFNE01.JPG,AFNE01.JPG,AFNE01.JPG,AFNE01.JPG,AFNE01.JPG,,,,,,,,,,,,,,,,,1,1,11,6,,,,,,,AFSA19.jpg,AFNE04.jpg,AFNE20.jpg,AFSA17.jpg,AFNE04.jpg,FN,3,num_6,32,num_8,0.866913229969,,,2017_Aug_15_1406,60.0053311685,FEMA4ImagesEEG,001,101267,
AFNE01.JPG,AFNE01.JPG,AFNE01.JPG,AFNE01.JPG,AFNE01.JPG,AFNE01.JPG,,,,,,,,,,,,,,,,,1,2,12,1,,,,,,,AFNE17.jpg,AFSA11.jpg,AFSA15.jpg,AFNE06.jpg,AFSA15.jpg,FS,4,num_2,16,num_2,0.433494462282,,,2017_Aug_15_1406,60.0053311685,FEMA4ImagesEEG,001,101267,
AFNE01.JPG,AFNE01.JPG,AFNE01.JPG,AFNE01.JPG,AFNE01.JPG,AFNE01.JPG,,,,,,,,,,,,,,,,,1,3,13,4,,,,,,,AFNE15.jpg,AFSA01.jpg,AFSA19.jpg,AFNE16.jpg,AFSA19.jpg,FS,4,num_2,32,num_8,1.10011280415,,,2017_Aug_15_1406,60.0053311685,FEMA4ImagesEEG,001,101267,
AFNE01.JPG,AFNE01.JPG,AFNE01.JPG,AFNE01.JPG,AFNE01.JPG,AFNE01.JPG,,,,,,,,,,,,,,,,,1,4,14,9,,,,,,,AFNE13.jpg,AFNE02.jpg,AFSA18.jpg,AFSA05.jpg,AFSA05.jpg,FS,4,num_4,32,num_2,0.433476500839,,,2017_Aug_15_1406,60.0053311685,FEMA4ImagesEEG,001,101267,
AFNE01.JPG,AFNE01.JPG,AFNE01.JPG,AFNE01.JPG,AFNE01.JPG,AFNE01.JPG,,,,,,,,,,,,,,,,,1,5,15,5,,,,,,,AFSA17.jpg,AFSA04.jpg,AFNE13.jpg,AFNE06.jpg,AFSA17.jpg,FS,4,num_8,16,num_8,0.900185804509,,,2017_Aug_15_1406,60.0053311685,FEMA4ImagesEEG,001,101267,
AFNE01.JPG,AFNE01.JPG,AFNE01.JPG,AFNE01.JPG,AFNE01.JPG,AFNE01.JPG,,,,,,,,,,,,,,,,,1,6,16,7,,,,,,,AFSA08.jpg,AFNE20.jpg,AFSA17.jpg,AFNE05.jpg,AFNE20.jpg,FN,3,num_6,16,num_6,0.983433473608,,,2017_Aug_15_1406,60.0053311685,FEMA4ImagesEEG,001,101267,
AFNE01.JPG,AFNE01.JPG,AFNE01.JPG,AFNE01.JPG,AFNE01.JPG,AFNE01.JPG,,,,,,,,,,,,,,,,,1,7,17,0,,,,,,,AFSA13.jpg,AFSA01.jpg,AFNE17.jpg,AFNE10.jpg,AFNE17.jpg,FN,3,num_2,32,num_8,0.800092886217,,,2017_Aug_15_1406,60.0053311685,FEMA4ImagesEEG,001,101267,
AFNE01.JPG,AFNE01.JPG,AFNE01.JPG,AFNE01.JPG,AFNE01.JPG,AFNE01.JPG,,,,,,,,,,,,,,,,,1,8,18,2,,,,,,,AFNE16.jpg,AFSA07.jpg,AFSA11.jpg,AFNE20.jpg,AFSA07.jpg,FS,4,num_6,16,num_6,0.750150186374,,,2017_Aug_15_1406,60.0053311685,FEMA4ImagesEEG,001,101267,
AFNE01.JPG,AFNE01.JPG,AFNE01.JPG,AFNE01.JPG,AFNE01.JPG,AFNE01.JPG,,,,,,,,,,,,,,,,,1,9,19,8,,,,,,,AFSA07.jpg,AFSA02.jpg,AFNE18.jpg,AFNE19.jpg,AFSA02.jpg,FS,4,num_6,32,num_8,0.966767838661,,,2017_Aug_15_1406,60.0053311685,FEMA4ImagesEEG,001,101267,
AFNE01.JPG,AFNE01.JPG,AFNE01.JPG,AFNE01.JPG,AFNE01.JPG,AFNE01.JPG,,,,,,,,,,,,,,,,,2,0,20,9,,,,,,,AFNE19.jpg,AFNE07.jpg,AFSA07.jpg,AFSA18.jpg,AFSA07.jpg,FS,4,num_2,32,num_6,1.13341713193,,,2017_Aug_15_1406,60.0053311685,FEMA4ImagesEEG,001,101267,
AFNE01.JPG,AFNE01.JPG,AFNE01.JPG,AFNE01.JPG,AFNE01.JPG,AFNE01.JPG,,,,,,,,,,,,,,,,,2,1,21,5,,,,,,,AFSA06.jpg,AFNE02.jpg,AFSA09.jpg,AFNE13.jpg,AFSA06.jpg,FS,4,num_8,16,num_8,0.700158734078,,,2017_Aug_15_1406,60.0053311685,FEMA4ImagesEEG,001,101267,
AFNE01.JPG,AFNE01.JPG,AFNE01.JPG,AFNE01.JPG,AFNE01.JPG,AFNE01.JPG,,,,,,,,,,,,,,,,,2,2,22,3,,,,,,,AFSA05.jpg,AFNE16.jpg,AFNE18.jpg,AFSA12.jpg,AFSA05.jpg,FS,4,num_8,16,num_8,0.866772745983,,,2017_Aug_15_1406,60.0053311685,FEMA4ImagesEEG,001,101267,
AFNE01.JPG,AFNE01.JPG,AFNE01.JPG,AFNE01.JPG,AFNE01.JPG,AFNE01.JPG,,,,,,,,,,,,,,,,,2,3,23,2,,,,,,,AFNE11.jpg,AFSA11.jpg,AFNE01.jpg,AFSA12.jpg,AFSA12.jpg,FS,4,num_4,16,num_4,1.23350523913,,,2017_Aug_15_1406,60.0053311685,FEMA4ImagesEEG,001,101267,
AFNE01.JPG,AFNE01.JPG,AFNE01.JPG,AFNE01.JPG,AFNE01.JPG,AFNE01.JPG,,,,,,,,,,,,,,,,,2,4,24,1,,,,,,,AFNE11.jpg,AFSA06.jpg,AFNE07.jpg,AFSA11.jpg,AFNE11.jpg,FN,3,num_8,32,num_4,0.700123452712,,,2017_Aug_15_1406,60.0053311685,FEMA4ImagesEEG,001,101267,
AFNE01.JPG,AFNE01.JPG,AFNE01.JPG,AFNE01.JPG,AFNE01.JPG,AFNE01.JPG,,,,,,,,,,,,,,,,,2,5,25,6,,,,,,,AFNE14.jpg,AFSA07.jpg,AFSA03.jpg,AFNE05.jpg,AFNE05.jpg,FN,3,num_4,32,num_8,1.08340996339,,,2017_Aug_15_1406,60.0053311685,FEMA4ImagesEEG,001,101267,
AFNE01.JPG,AFNE01.JPG,AFNE01.JPG,AFNE01.JPG,AFNE01.JPG,AFNE01.JPG,,,,,,,,,,,,,,,,,2,6,26,8,,,,,,,AFSA13.jpg,AFNE14.jpg,AFNE05.jpg,AFSA10.jpg,AFSA10.jpg,FS,4,num_4,32,num_6,2.91657528258,,,2017_Aug_15_1406,60.0053311685,FEMA4ImagesEEG,001,101267,
AFNE01.JPG,AFNE01.JPG,AFNE01.JPG,AFNE01.JPG,AFNE01.JPG,AFNE01.JPG,,,,,,,,,,,,,,,,,2,7,27,4,,,,,,,AFSA05.jpg,AFNE04.jpg,AFSA10.jpg,AFNE14.jpg,AFNE04.jpg,FN,3,num_6,16,num_6,1.60008121129,,,2017_Aug_15_1406,60.0053311685,FEMA4ImagesEEG,001,101267,
AFNE01.JPG,AFNE01.JPG,AFNE01.JPG,AFNE01.JPG,AFNE01.JPG,AFNE01.JPG,,,,,,,,,,,,,,,,,2,8,28,7,,,,,,,AFSA12.jpg,AFNE16.jpg,AFSA20.jpg,AFNE17.jpg,AFSA12.jpg,FS,4,num_8,16,num_8,0.966764952012,,,2017_Aug_15_1406,60.0053311685,FEMA4ImagesEEG,001,101267,
AFNE01.JPG,AFNE01.JPG,AFNE01.JPG,AFNE01.JPG,AFNE01.JPG,AFNE01.JPG,,,,,,,,,,,,,,,,,2,9,29,0,,,,,,,AFSA19.jpg,AFNE20.jpg,AFSA17.jpg,AFNE04.jpg,AFNE20.jpg,FN,3,num_6,32,num_4,1.06668146346,,,2017_Aug_15_1406,60.0053311685,FEMA4ImagesEEG,001,101267,
AFNE01.JPG,AFNE01.JPG,AFNE01.JPG,AFNE01.JPG,AFNE01.JPG,AFNE01.JPG,,,,,,,,,,,,,,,,,3,0,30,1,,,,,,,AFNE17.jpg,AFSA06.jpg,AFNE06.jpg,AFSA20.jpg,AFNE17.jpg,FN,3,num_8,16,num_8,1.01674197101,,,2017_Aug_15_1406,60.0053311685,FEMA4ImagesEEG,001,101267,
AFNE01.JPG,AFNE01.JPG,AFNE01.JPG,AFNE01.JPG,AFNE01.JPG,AFNE01.JPG,,,,,,,,,,,,,,,,,3,1,31,6,,,,,,,AFNE05.jpg,AFSA20.jpg,AFNE19.jpg,AFSA03.jpg,AFNE19.jpg,FN,3,num_2,16,num_2,0.833451098268,,,2017_Aug_15_1406,60.0053311685,FEMA4ImagesEEG,001,101267,
AFNE01.JPG,AFNE01.JPG,AFNE01.JPG,AFNE01.JPG,AFNE01.JPG,AFNE01.JPG,,,,,,,,,,,,,,,,,3,2,32,9,,,,,,,AFSA12.jpg,AFNE15.jpg,AFSA14.jpg,AFNE08.jpg,AFSA12.jpg,FS,4,num_8,16,num_8,1.03342203924,,,2017_Aug_15_1406,60.0053311685,FEMA4ImagesEEG,001,101267,
AFNE01.JPG,AFNE01.JPG,AFNE01.JPG,AFNE01.JPG,AFNE01.JPG,AFNE01.JPG,,,,,,,,,,,,,,,,,3,3,33,7,,,,,,,AFNE18.jpg,AFSA05.jpg,AFNE04.jpg,AFSA06.jpg,AFNE18.jpg,FN,3,num_8,16,num_8,1.21700542659,,,2017_Aug_15_1406,60.0053311685,FEMA4ImagesEEG,001,101267,
AFNE01.JPG,AFNE01.JPG,AFNE01.JPG,AFNE01.JPG,AFNE01.JPG,AFNE01.JPG,,,,,,,,,,,,,,,,,3,4,34,2,,,,,,,AFNE13.jpg,AFSA05.jpg,AFNE01.jpg,AFSA12.jpg,AFNE01.jpg,FN,3,num_2,32,num_4,0.516783506799,,,2017_Aug_15_1406,60.0053311685,FEMA4ImagesEEG,001,101267,
AFNE01.JPG,AFNE01.JPG,AFNE01.JPG,AFNE01.JPG,AFNE01.JPG,AFNE01.JPG,,,,,,,,,,,,,,,,,3,5,35,0,,,,,,,AFSA17.jpg,AFNE18.jpg,AFSA10.jpg,AFNE16.jpg,AFSA17.jpg,FS,4,num_8,32,num_2,0.383516160306,,,2017_Aug_15_1406,60.0053311685,FEMA4ImagesEEG,001,101267,
AFNE01.JPG,AFNE01.JPG,AFNE01.JPG,AFNE01.JPG,AFNE01.JPG,AFNE01.JPG,,,,,,,,,,,,,,,,,3,6,36,3,,,,,,,AFSA20.jpg,AFNE03.jpg,AFNE09.jpg,AFSA10.jpg,AFSA20.jpg,FS,4,num_8,32,num_6,0.416823695487,,,2017_Aug_15_1406,60.0053311685,FEMA4ImagesEEG,001,101267,
AFNE01.JPG,AFNE01.JPG,AFNE01.JPG,AFNE01.JPG,AFNE01.JPG,AFNE01.JPG,,,,,,,,,,,,,,,,,3,7,37,5,,,,,,,AFSA04.jpg,AFNE14.jpg,AFSA10.jpg,AFNE04.jpg,AFNE14.jpg,FN,3,num_6,32,num_4,1.21677866361,,,2017_Aug_15_1406,60.0053311685,FEMA4ImagesEEG,001,101267,
AFNE01.JPG,AFNE01.JPG,AFNE01.JPG,AFNE01.JPG,AFNE01.JPG,AFNE01.JPG,,,,,,,,,,,,,,,,,3,8,38,4,,,,,,,AFNE20.jpg,AFNE14.jpg,AFSA07.jpg,AFSA04.jpg,AFNE14.jpg,FN,3,num_6,32,num_2,0.533491800132,,,2017_Aug_15_1406,60.0053311685,FEMA4ImagesEEG,001,101267,
AFNE01.JPG,AFNE01.JPG,AFNE01.JPG,AFNE01.JPG,AFNE01.JPG,AFNE01.JPG,,,,,,,,,,,,,,,,,3,9,39,8,,,,,,,AFSA06.jpg,AFSA17.jpg,AFNE15.jpg,AFNE17.jpg,AFNE17.jpg,FN,3,num_4,16,num_4,0.366766491556,,,2017_Aug_15_1406,60.0053311685,FEMA4ImagesEEG,001,101267,
AFNE01.JPG,AFNE01.JPG,AFNE01.JPG,AFNE01.JPG,AFNE01.JPG,AFNE01.JPG,,,,,,,,,,,,,,,,,4,0,40,0,,,,,,,AFNE20.jpg,AFNE01.jpg,AFSA14.jpg,AFSA08.jpg,AFSA14.jpg,FS,4,num_2,16,num_2,1.91666092008,,,2017_Aug_15_1406,60.0053311685,FEMA4ImagesEEG,001,101267,
AFNE01.JPG,AFNE01.JPG,AFNE01.JPG,AFNE01.JPG,AFNE01.JPG,AFNE01.JPG,,,,,,,,,,,,,,,,,4,1,41,4,,,,,,,AFNE19.jpg,AFSA04.jpg,AFNE14.jpg,AFSA05.jpg,AFSA05.jpg,FS,4,num_4,32,num_8,2.39975873959,,,2017_Aug_15_1406,60.0053311685,FEMA4ImagesEEG,001,101267,
AFNE01.JPG,AFNE01.JPG,AFNE01.JPG,AFNE01.JPG,AFNE01.JPG,AFNE01.JPG,,,,,,,,,,,,,,,,,4,2,42,7,,,,,,,AFSA02.jpg,AFSA10.jpg,AFNE08.jpg,AFNE07.jpg,AFSA10.jpg,FS,4,num_6,16,num_6,1.28338635695,,,2017_Aug_15_1406,60.0053311685,FEMA4ImagesEEG,001,101267,
AFNE01.JPG,AFNE01.JPG,AFNE01.JPG,AFNE01.JPG,AFNE01.JPG,AFNE01.JPG,,,,,,,,,,,,,,,,,4,3,43,5,,,,,,,AFNE13.jpg,AFSA16.jpg,AFSA18.jpg,AFNE18.jpg,AFSA16.jpg,FS,4,num_6,16,num_6,1.68338789651,,,2017_Aug_15_1406,60.0053311685,FEMA4ImagesEEG,001,101267,
AFNE01.JPG,AFNE01.JPG,AFNE01.JPG,AFNE01.JPG,AFNE01.JPG,AFNE01.JPG,,,,,,,,,,,,,,,,,4,4,44,1,,,,,,,AFSA09.jpg,AFNE02.jpg,AFSA14.jpg,AFNE08.jpg,AFSA09.jpg,FS,4,num_8,16,num_8,0.500013952173,,,2017_Aug_15_1406,60.0053311685,FEMA4ImagesEEG,001,101267,
AFNE01.JPG,AFNE01.JPG,AFNE01.JPG,AFNE01.JPG,AFNE01.JPG,AFNE01.JPG,,,,,,,,,,,,,,,,,4,5,45,8,,,,,,,AFNE01.jpg,AFNE03.jpg,AFSA03.jpg,AFSA01.jpg,AFSA01.jpg,FS,4,num_4,32,num_8,2.93329127367,,,2017_Aug_15_1406,60.0053311685,FEMA4ImagesEEG,001,101267,
AFNE01.JPG,AFNE01.JPG,AFNE01.JPG,AFNE01.JPG,AFNE01.JPG,AFNE01.JPG,,,,,,,,,,,,,,,,,4,6,46,6,,,,,,,AFNE15.jpg,AFSA09.jpg,AFNE17.jpg,AFSA20.jpg,AFNE15.jpg,FN,3,num_8,32,num_6,0.816761407827,,,2017_Aug_15_1406,60.0053311685,FEMA4ImagesEEG,001,101267,
AFNE01.JPG,AFNE01.JPG,AFNE01.JPG,AFNE01.JPG,AFNE01.JPG,AFNE01.JPG,,,,,,,,,,,,,,,,,4,7,47,3,,,,,,,AFNE03.jpg,AFSA19.jpg,AFNE16.jpg,AFSA04.jpg,AFSA04.jpg,FS,4,num_4,48,None,,,,2017_Aug_15_1406,60.0053311685,FEMA4ImagesEEG,001,101267,
AFNE01.JPG,AFNE01.JPG,AFNE01.JPG,AFNE01.JPG,AFNE01.JPG,AFNE01.JPG,,,,,,,,,,,,,,,,,4,8,48,2,,,,,,,AFNE06.jpg,AFSA11.jpg,AFNE14.jpg,AFSA18.jpg,AFNE14.jpg,FN,3,num_2,32,num_6,1.31673077719,,,2017_Aug_15_1406,60.0053311685,FEMA4ImagesEEG,001,101267,
AFNE01.JPG,AFNE01.JPG,AFNE01.JPG,AFNE01.JPG,AFNE01.JPG,AFNE01.JPG,,,,,,,,,,,,,,,,,4,9,49,9,,,,,,,AFSA09.jpg,AFNE12.jpg,AFSA06.jpg,AFNE14.jpg,AFNE12.jpg,FN,3,num_6,32,num_4,0.150197912444,,,2017_Aug_15_1406,60.0053311685,FEMA4ImagesEEG,001,101267,
AFNE01.JPG,AFNE01.JPG,AFNE01.JPG,AFNE01.JPG,AFNE01.JPG,AFNE01.JPG,,,,,,,,,,,,,,,,,5,0,50,7,,,,,,,AFNE11.jpg,AFSA17.jpg,AFSA14.jpg,AFNE06.jpg,AFSA14.jpg,FS,4,num_2,16,num_2,0.650159904792,,,2017_Aug_15_1406,60.0053311685,FEMA4ImagesEEG,001,101267,
AFNE01.JPG,AFNE01.JPG,AFNE01.JPG,AFNE01.JPG,AFNE01.JPG,AFNE01.JPG,,,,,,,,,,,,,,,,,5,1,51,0,,,,,,,AFSA16.jpg,AFNE08.jpg,AFNE13.jpg,AFSA03.jpg,AFNE08.jpg,FN,3,num_6,32,num_2,0.750128376065,,,2017_Aug_15_1406,60.0053311685,FEMA4ImagesEEG,001,101267,
AFNE01.JPG,AFNE01.JPG,AFNE01.JPG,AFNE01.JPG,AFNE01.JPG,AFNE01.JPG,,,,,,,,,,,,,,,,,5,2,52,6,,,,,,,AFNE07.jpg,AFSA09.jpg,AFNE08.jpg,AFSA17.jpg,AFSA09.jpg,FS,4,num_6,32,num_4,1.066765818,,,2017_Aug_15_1406,60.0053311685,FEMA4ImagesEEG,001,101267,
AFNE01.JPG,AFNE01.JPG,AFNE01.JPG,AFNE01.JPG,AFNE01.JPG,AFNE01.JPG,,,,,,,,,,,,,,,,,5,3,53,3,,,,,,,AFSA09.jpg,AFSA15.jpg,AFNE06.jpg,AFNE19.jpg,AFSA15.jpg,FS,4,num_6,32,num_8,0.91676259457,,,2017_Aug_15_1406,60.0053311685,FEMA4ImagesEEG,001,101267,
AFNE01.JPG,AFNE01.JPG,AFNE01.JPG,AFNE01.JPG,AFNE01.JPG,AFNE01.JPG,,,,,,,,,,,,,,,,,5,4,54,8,,,,,,,AFSA16.jpg,AFSA14.jpg,AFNE08.jpg,AFNE10.jpg,AFSA14.jpg,FS,4,num_6,32,num_4,0.783690578552,,,2017_Aug_15_1406,60.0053311685,FEMA4ImagesEEG,001,101267,
AFNE01.JPG,AFNE01.JPG,AFNE01.JPG,AFNE01.JPG,AFNE01.JPG,AFNE01.JPG,,,,,,,,,,,,,,,,,5,5,55,9,,,,,,,AFNE20.jpg,AFSA20.jpg,AFNE02.jpg,AFSA06.jpg,AFSA20.jpg,FS,4,num_6,32,num_8,4.0498541757,,,2017_Aug_15_1406,60.0053311685,FEMA4ImagesEEG,001,101267,
AFNE01.JPG,AFNE01.JPG,AFNE01.JPG,AFNE01.JPG,AFNE01.JPG,AFNE01.JPG,,,,,,,,,,,,,,,,,5,6,56,4,,,,,,,AFSA03.jpg,AFNE19.jpg,AFNE05.jpg,AFSA01.jpg,AFNE19.jpg,FN,3,num_6,16,num_6,0.733437723422,,,2017_Aug_15_1406,60.0053311685,FEMA4ImagesEEG,001,101267,
AFNE01.JPG,AFNE01.JPG,AFNE01.JPG,AFNE01.JPG,AFNE01.JPG,AFNE01.JPG,,,,,,,,,,,,,,,,,5,7,57,1,,,,,,,AFNE06.jpg,AFNE11.jpg,AFSA08.jpg,AFSA03.jpg,AFSA03.jpg,FS,4,num_4,16,num_4,0.650115321958,,,2017_Aug_15_1406,60.0053311685,FEMA4ImagesEEG,001,101267,
AFNE01.JPG,AFNE01.JPG,AFNE01.JPG,AFNE01.JPG,AFNE01.JPG,AFNE01.JPG,,,,,,,,,,,,,,,,,5,8,58,5,,,,,,,AFNE18.jpg,AFSA06.jpg,AFNE06.jpg,AFSA16.jpg,AFSA06.jpg,FS,4,num_6,16,num_6,1.05012263483,,,2017_Aug_15_1406,60.0053311685,FEMA4ImagesEEG,001,101267,
AFNE01.JPG,AFNE01.JPG,AFNE01.JPG,AFNE01.JPG,AFNE01.JPG,AFNE01.JPG,,,,,,,,,,,,,,,,,5,9,59,2,,,,,,,AFSA15.jpg,AFSA17.jpg,AFNE05.jpg,AFNE03.jpg,AFNE05.jpg,FN,3,num_2,16,num_2,0.933459020525,,,2017_Aug_15_1406,60.0053311685,FEMA4ImagesEEG,001,101267,
,,,,,,,,,,,,,,,,,,,,,,,,,,,,,,,,,,,,,,,,,,,space,2.16667687688,2017_Aug_15_1406,60.0053311685,FEMA4ImagesEEG,001,101267,
AFNE01.JPG,AFNE01.JPG,AFNE01.JPG,AFNE01.JPG,AFNE01.JPG,AFNE01.JPG,,,,,,,,,,,,,,,,,,,,,0,0,0,7,,,AMSA19.jpg,AMNE08.jpg,AMNE02.jpg,AMSA18.jpg,AMSA18.jpg,MS,2,num_4,16,num_4,1.08346641358,,,2017_Aug_15_1406,60.0053311685,FEMA4ImagesEEG,001,101267,
AFNE01.JPG,AFNE01.JPG,AFNE01.JPG,AFNE01.JPG,AFNE01.JPG,AFNE01.JPG,,,,,,,,,,,,,,,,,,,,,0,1,1,6,,,AMNE18.jpg,AMNE13.jpg,AMSA04.jpg,AMSA06.jpg,AMSA06.jpg,MS,2,num_4,32,num_6,1.08343145296,,,2017_Aug_15_1406,60.0053311685,FEMA4ImagesEEG,001,101267,
AFNE01.JPG,AFNE01.JPG,AFNE01.JPG,AFNE01.JPG,AFNE01.JPG,AFNE01.JPG,,,,,,,,,,,,,,,,,,,,,0,2,2,1,,,AMNE20.jpg,AMSA13.jpg,AMNE06.jpg,AMSA09.jpg,AMSA13.jpg,MS,2,num_6,32,num_8,0.816819782456,,,2017_Aug_15_1406,60.0053311685,FEMA4ImagesEEG,001,101267,
AFNE01.JPG,AFNE01.JPG,AFNE01.JPG,AFNE01.JPG,AFNE01.JPG,AFNE01.JPG,,,,,,,,,,,,,,,,,,,,,0,3,3,2,,,AMNE07.jpg,AMSA07.jpg,AMNE03.jpg,AMSA01.jpg,AMNE07.jpg,MN,1,num_8,16,num_8,0.900085733723,,,2017_Aug_15_1406,60.0053311685,FEMA4ImagesEEG,001,101267,
AFNE01.JPG,AFNE01.JPG,AFNE01.JPG,AFNE01.JPG,AFNE01.JPG,AFNE01.JPG,,,,,,,,,,,,,,,,,,,,,0,4,4,9,,,AMNE13.jpg,AMSA10.jpg,AMSA20.jpg,AMNE06.jpg,AMSA10.jpg,MS,2,num_6,16,num_6,0.816737352347,,,2017_Aug_15_1406,60.0053311685,FEMA4ImagesEEG,001,101267,
AFNE01.JPG,AFNE01.JPG,AFNE01.JPG,AFNE01.JPG,AFNE01.JPG,AFNE01.JPG,,,,,,,,,,,,,,,,,,,,,0,5,5,4,,,AMNE15.jpg,AMNE11.jpg,AMSA12.jpg,AMSA01.jpg,AMSA12.jpg,MS,2,num_2,32,num_6,1.60042728944,,,2017_Aug_15_1406,60.0053311685,FEMA4ImagesEEG,001,101267,
AFNE01.JPG,AFNE01.JPG,AFNE01.JPG,AFNE01.JPG,AFNE01.JPG,AFNE01.JPG,,,,,,,,,,,,,,,,,,,,,0,6,6,5,,,AMNE11.jpg,AMSA04.jpg,AMNE08.jpg,AMSA03.jpg,AMNE08.jpg,MN,1,num_2,16,num_2,0.550154227691,,,2017_Aug_15_1406,60.0053311685,FEMA4ImagesEEG,001,101267,
AFNE01.JPG,AFNE01.JPG,AFNE01.JPG,AFNE01.JPG,AFNE01.JPG,AFNE01.JPG,,,,,,,,,,,,,,,,,,,,,0,7,7,3,,,AMSA06.jpg,AMSA09.jpg,AMNE02.jpg,AMNE04.jpg,AMSA09.jpg,MS,2,num_6,16,num_6,0.566744809548,,,2017_Aug_15_1406,60.0053311685,FEMA4ImagesEEG,001,101267,
AFNE01.JPG,AFNE01.JPG,AFNE01.JPG,AFNE01.JPG,AFNE01.JPG,AFNE01.JPG,,,,,,,,,,,,,,,,,,,,,0,8,8,8,,,AMNE15.jpg,AMSA02.jpg,AMNE04.jpg,AMSA19.jpg,AMSA19.jpg,MS,2,num_4,16,num_4,1.0167233681,,,2017_Aug_15_1406,60.0053311685,FEMA4ImagesEEG,001,101267,
AFNE01.JPG,AFNE01.JPG,AFNE01.JPG,AFNE01.JPG,AFNE01.JPG,AFNE01.JPG,,,,,,,,,,,,,,,,,,,,,0,9,9,0,,,AMNE19.jpg,AMSA08.jpg,AMSA16.jpg,AMNE16.jpg,AMSA16.jpg,MS,2,num_2,16,num_2,1.53337986197,,,2017_Aug_15_1406,60.0053311685,FEMA4ImagesEEG,001,101267,
AFNE01.JPG,AFNE01.JPG,AFNE01.JPG,AFNE01.JPG,AFNE01.JPG,AFNE01.JPG,,,,,,,,,,,,,,,,,,,,,1,0,10,0,,,AMNE02.jpg,AMNE03.jpg,AMSA05.jpg,AMSA15.jpg,AMNE02.jpg,MN,1,num_8,32,num_6,1.45006612049,,,2017_Aug_15_1406,60.0053311685,FEMA4ImagesEEG,001,101267,
AFNE01.JPG,AFNE01.JPG,AFNE01.JPG,AFNE01.JPG,AFNE01.JPG,AFNE01.JPG,,,,,,,,,,,,,,,,,,,,,1,1,11,4,,,AMNE20.jpg,AMSA06.jpg,AMNE12.jpg,AMSA04.jpg,AMNE20.jpg,MN,1,num_8,32,num_6,4.76615830493,,,2017_Aug_15_1406,60.0053311685,FEMA4ImagesEEG,001,101267,
AFNE01.JPG,AFNE01.JPG,AFNE01.JPG,AFNE01.JPG,AFNE01.JPG,AFNE01.JPG,,,,,,,,,,,,,,,,,,,,,1,2,12,5,,,AMNE12.jpg,AMNE09.jpg,AMSA03.jpg,AMSA10.jpg,AMNE12.jpg,MN,1,num_8,16,num_8,0.683524852357,,,2017_Aug_15_1406,60.0053311685,FEMA4ImagesEEG,001,101267,
AFNE01.JPG,AFNE01.JPG,AFNE01.JPG,AFNE01.JPG,AFNE01.JPG,AFNE01.JPG,,,,,,,,,,,,,,,,,,,,,1,3,13,1,,,AMNE09.jpg,AMSA12.jpg,AMSA19.jpg,AMNE10.jpg,AMNE09.jpg,MN,1,num_8,32,num_2,1.15011131272,,,2017_Aug_15_1406,60.0053311685,FEMA4ImagesEEG,001,101267,
AFNE01.JPG,AFNE01.JPG,AFNE01.JPG,AFNE01.JPG,AFNE01.JPG,AFNE01.JPG,,,,,,,,,,,,,,,,,,,,,1,4,14,7,,,AMSA03.jpg,AMSA05.jpg,AMNE10.jpg,AMNE05.jpg,AMSA05.jpg,MS,2,num_6,16,num_6,0.899760182932,,,2017_Aug_15_1406,60.0053311685,FEMA4ImagesEEG,001,101267,
AFNE01.JPG,AFNE01.JPG,AFNE01.JPG,AFNE01.JPG,AFNE01.JPG,AFNE01.JPG,,,,,,,,,,,,,,,,,,,,,1,5,15,3,,,AMSA06.jpg,AMNE08.jpg,AMNE01.jpg,AMSA09.jpg,AMSA06.jpg,MS,2,num_8,16,num_8,1.0834035486,,,2017_Aug_15_1406,60.0053311685,FEMA4ImagesEEG,001,101267,
AFNE01.JPG,AFNE01.JPG,AFNE01.JPG,AFNE01.JPG,AFNE01.JPG,AFNE01.JPG,,,,,,,,,,,,,,,,,,,,,1,6,16,2,,,AMSA18.jpg,AMNE10.jpg,AMSA03.jpg,AMNE02.jpg,AMNE02.jpg,MN,1,num_4,32,num_6,2.01668070971,,,2017_Aug_15_1406,60.0053311685,FEMA4ImagesEEG,001,101267,
AFNE01.JPG,AFNE01.JPG,AFNE01.JPG,AFNE01.JPG,AFNE01.JPG,AFNE01.JPG,,,,,,,,,,,,,,,,,,,,,1,7,17,9,,,AMNE04.jpg,AMSA13.jpg,AMNE19.jpg,AMSA19.jpg,AMNE19.jpg,MN,1,num_2,32,num_4,1.01678655382,,,2017_Aug_15_1406,60.0053311685,FEMA4ImagesEEG,001,101267,
AFNE01.JPG,AFNE01.JPG,AFNE01.JPG,AFNE01.JPG,AFNE01.JPG,AFNE01.JPG,,,,,,,,,,,,,,,,,,,,,1,8,18,8,,,AMSA05.jpg,AMNE14.jpg,AMNE16.jpg,AMSA16.jpg,AMNE14.jpg,MN,1,num_6,16,num_6,0.933477623446,,,2017_Aug_15_1406,60.0053311685,FEMA4ImagesEEG,001,101267,
AFNE01.JPG,AFNE01.JPG,AFNE01.JPG,AFNE01.JPG,AFNE01.JPG,AFNE01.JPG,,,,,,,,,,,,,,,,,,,,,1,9,19,6,,,AMSA03.jpg,AMSA02.jpg,AMNE09.jpg,AMNE16.jpg,AMNE16.jpg,MN,1,num_4,16,num_4,0.666764599184,,,2017_Aug_15_1406,60.0053311685,FEMA4ImagesEEG,001,101267,
AFNE01.JPG,AFNE01.JPG,AFNE01.JPG,AFNE01.JPG,AFNE01.JPG,AFNE01.JPG,,,,,,,,,,,,,,,,,,,,,2,0,20,6,,,AMNE20.jpg,AMSA15.jpg,AMSA19.jpg,AMNE13.jpg,AMNE13.jpg,MN,1,num_4,16,num_4,0.650170809939,,,2017_Aug_15_1406,60.0053311685,FEMA4ImagesEEG,001,101267,
AFNE01.JPG,AFNE01.JPG,AFNE01.JPG,AFNE01.JPG,AFNE01.JPG,AFNE01.JPG,,,,,,,,,,,,,,,,,,,,,2,1,21,1,,,AMNE04.jpg,AMSA01.jpg,AMSA06.jpg,AMNE02.jpg,AMSA01.jpg,MS,2,num_6,16,num_6,1.20008865246,,,2017_Aug_15_1406,60.0053311685,FEMA4ImagesEEG,001,101267,
AFNE01.JPG,AFNE01.JPG,AFNE01.JPG,AFNE01.JPG,AFNE01.JPG,AFNE01.JPG,,,,,,,,,,,,,,,,,,,,,2,2,22,4,,,AMNE18.jpg,AMSA19.jpg,AMNE01.jpg,AMSA13.jpg,AMNE18.jpg,MN,1,num_8,16,num_8,1.7664165004,,,2017_Aug_15_1406,60.0053311685,FEMA4ImagesEEG,001,101267,
AFNE01.JPG,AFNE01.JPG,AFNE01.JPG,AFNE01.JPG,AFNE01.JPG,AFNE01.JPG,,,,,,,,,,,,,,,,,,,,,2,3,23,5,,,AMNE14.jpg,AMSA08.jpg,AMNE06.jpg,AMSA12.jpg,AMNE14.jpg,MN,1,num_8,32,num_4,1.23342377125,,,2017_Aug_15_1406,60.0053311685,FEMA4ImagesEEG,001,101267,
AFNE01.JPG,AFNE01.JPG,AFNE01.JPG,AFNE01.JPG,AFNE01.JPG,AFNE01.JPG,,,,,,,,,,,,,,,,,,,,,2,4,24,0,,,AMSA05.jpg,AMNE17.jpg,AMNE10.jpg,AMSA14.jpg,AMNE10.jpg,MN,1,num_2,16,num_2,0.966745386875,,,2017_Aug_15_1406,60.0053311685,FEMA4ImagesEEG,001,101267,
AFNE01.JPG,AFNE01.JPG,AFNE01.JPG,AFNE01.JPG,AFNE01.JPG,AFNE01.JPG,,,,,,,,,,,,,,,,,,,,,2,5,25,3,,,AMSA02.jpg,AMSA16.jpg,AMNE08.jpg,AMNE16.jpg,AMSA02.jpg,MS,2,num_8,16,num_8,0.883764893952,,,2017_Aug_15_1406,60.0053311685,FEMA4ImagesEEG,001,101267,
AFNE01.JPG,AFNE01.JPG,AFNE01.JPG,AFNE01.JPG,AFNE01.JPG,AFNE01.JPG,,,,,,,,,,,,,,,,,,,,,2,6,26,8,,,AMNE04.jpg,AMSA18.jpg,AMNE15.jpg,AMSA20.jpg,AMNE04.jpg,MN,1,num_8,16,num_8,0.90012454323,,,2017_Aug_15_1406,60.0053311685,FEMA4ImagesEEG,001,101267,
AFNE01.JPG,AFNE01.JPG,AFNE01.JPG,AFNE01.JPG,AFNE01.JPG,AFNE01.JPG,,,,,,,,,,,,,,,,,,,,,2,7,27,7,,,AMSA12.jpg,AMNE17.jpg,AMSA19.jpg,AMNE13.jpg,AMNE13.jpg,MN,1,num_4,16,num_4,1.38337086522,,,2017_Aug_15_1406,60.0053311685,FEMA4ImagesEEG,001,101267,
AFNE01.JPG,AFNE01.JPG,AFNE01.JPG,AFNE01.JPG,AFNE01.JPG,AFNE01.JPG,,,,,,,,,,,,,,,,,,,,,2,8,28,9,,,AMNE01.jpg,AMSA10.jpg,AMSA05.jpg,AMNE15.jpg,AMNE01.jpg,MN,1,num_8,16,num_8,0.566804146394,,,2017_Aug_15_1406,60.0053311685,FEMA4ImagesEEG,001,101267,
AFNE01.JPG,AFNE01.JPG,AFNE01.JPG,AFNE01.JPG,AFNE01.JPG,AFNE01.JPG,,,,,,,,,,,,,,,,,,,,,2,9,29,2,,,AMSA06.jpg,AMSA15.jpg,AMNE03.jpg,AMNE06.jpg,AMSA15.jpg,MS,2,num_6,32,num_4,1.40007017784,,,2017_Aug_15_1406,60.0053311685,FEMA4ImagesEEG,001,101267,
AFNE01.JPG,AFNE01.JPG,AFNE01.JPG,AFNE01.JPG,AFNE01.JPG,AFNE01.JPG,,,,,,,,,,,,,,,,,,,,,3,0,30,3,,,AMNE05.jpg,AMSA11.jpg,AMNE17.jpg,AMSA03.jpg,AMNE05.jpg,MN,1,num_8,32,num_6,0.466775696783,,,2017_Aug_15_1406,60.0053311685,FEMA4ImagesEEG,001,101267,
AFNE01.JPG,AFNE01.JPG,AFNE01.JPG,AFNE01.JPG,AFNE01.JPG,AFNE01.JPG,,,,,,,,,,,,,,,,,,,,,3,1,31,4,,,AMSA08.jpg,AMSA03.jpg,AMNE07.jpg,AMNE01.jpg,AMNE01.jpg,MN,1,num_4,16,num_4,0.833505944742,,,2017_Aug_15_1406,60.0053311685,FEMA4ImagesEEG,001,101267,
AFNE01.JPG,AFNE01.JPG,AFNE01.JPG,AFNE01.JPG,AFNE01.JPG,AFNE01.JPG,,,,,,,,,,,,,,,,,,,,,3,2,32,1,,,AMNE02.jpg,AMSA01.jpg,AMNE08.jpg,AMSA08.jpg,AMSA01.jpg,MS,2,num_6,48,None,,,,2017_Aug_15_1406,60.0053311685,FEMA4ImagesEEG,001,101267,
AFNE01.JPG,AFNE01.JPG,AFNE01.JPG,AFNE01.JPG,AFNE01.JPG,AFNE01.JPG,,,,,,,,,,,,,,,,,,,,,3,3,33,0,,,AMSA02.jpg,AMNE03.jpg,AMSA19.jpg,AMNE20.jpg,AMNE03.jpg,MN,1,num_6,32,num_2,0.333464088224,,,2017_Aug_15_1406,60.0053311685,FEMA4ImagesEEG,001,101267,
AFNE01.JPG,AFNE01.JPG,AFNE01.JPG,AFNE01.JPG,AFNE01.JPG,AFNE01.JPG,,,,,,,,,,,,,,,,,,,,,3,4,34,6,,,AMNE02.jpg,AMSA10.jpg,AMSA19.jpg,AMNE12.jpg,AMSA19.jpg,MS,2,num_2,32,num_4,0.90010305366,,,2017_Aug_15_1406,60.0053311685,FEMA4ImagesEEG,001,101267,
AFNE01.JPG,AFNE01.JPG,AFNE01.JPG,AFNE01.JPG,AFNE01.JPG,AFNE01.JPG,,,,,,,,,,,,,,,,,,,,,3,5,35,2,,,AMNE08.jpg,AMSA08.jpg,AMNE14.jpg,AMSA18.jpg,AMSA08.jpg,MS,2,num_6,16,num_6,1.08340643525,,,2017_Aug_15_1406,60.0053311685,FEMA4ImagesEEG,001,101267,
AFNE01.JPG,AFNE01.JPG,AFNE01.JPG,AFNE01.JPG,AFNE01.JPG,AFNE01.JPG,,,,,,,,,,,,,,,,,,,,,3,6,36,8,,,AMSA19.jpg,AMSA09.jpg,AMNE03.jpg,AMNE10.jpg,AMNE10.jpg,MN,1,num_4,16,num_4,1.33339577066,,,2017_Aug_15_1406,60.0053311685,FEMA4ImagesEEG,001,101267,
AFNE01.JPG,AFNE01.JPG,AFNE01.JPG,AFNE01.JPG,AFNE01.JPG,AFNE01.JPG,,,,,,,,,,,,,,,,,,,,,3,7,37,9,,,AMSA15.jpg,AMNE15.jpg,AMSA13.jpg,AMNE03.jpg,AMSA13.jpg,MS,2,num_2,16,num_2,0.866792311106,,,2017_Aug_15_1406,60.0053311685,FEMA4ImagesEEG,001,101267,
AFNE01.JPG,AFNE01.JPG,AFNE01.JPG,AFNE01.JPG,AFNE01.JPG,AFNE01.JPG,,,,,,,,,,,,,,,,,,,,,3,8,38,7,,,AMNE10.jpg,AMSA01.jpg,AMNE13.jpg,AMSA10.jpg,AMSA10.jpg,MS,2,num_4,16,num_4,0.700201071711,,,2017_Aug_15_1406,60.0053311685,FEMA4ImagesEEG,001,101267,
AFNE01.JPG,AFNE01.JPG,AFNE01.JPG,AFNE01.JPG,AFNE01.JPG,AFNE01.JPG,,,,,,,,,,,,,,,,,,,,,3,9,39,5,,,AMSA10.jpg,AMNE08.jpg,AMSA04.jpg,AMNE05.jpg,AMNE05.jpg,MN,1,num_4,16,num_4,1.35008000852,,,2017_Aug_15_1406,60.0053311685,FEMA4ImagesEEG,001,101267,
