IPosition2,IPosition3,IPosition1,IPosition6,IPosition4,IPosition5,TrialsM1.thisRepN,TrialsM1.thisTrialN,TrialsM1.thisN,TrialsM1.thisIndex,TrialsF1.thisRepN,TrialsF1.thisTrialN,TrialsF1.thisN,TrialsF1.thisIndex,TrialsM2.thisRepN,TrialsM2.thisTrialN,TrialsM2.thisN,TrialsM2.thisIndex,TrialsF2.thisRepN,TrialsF2.thisTrialN,TrialsF2.thisN,TrialsF2.thisIndex,TrialsM3.thisRepN,TrialsM3.thisTrialN,TrialsM3.thisN,TrialsM3.thisIndex,TrialsF3.thisRepN,TrialsF3.thisTrialN,TrialsF3.thisN,TrialsF3.thisIndex,InstrKey_resp.keys,InstrKey_resp.rt,Image0 _Position,Image1 _Position,Image2 _Position,Image3 _Position,Center_image,condition,code,correct_answer,accuracy,Key_Resp.keys,Key_Resp.rt,BreakKey_resp.keys,BreakKey_resp.rt,date,frameRate,expName,session,participant,
,,,,,,,,,,,,,,,,,,,,,,,,,,,,,,space,11.4993962068,,,,,,,,,,,,,,2017_Aug_10_1052,60.0099895108,MAFE4ImagesEEG,001,101242,
AMNE23.JPG,AMNE24.JPG,AMNE22.JPG,AMSA24.JPG,AMSA22.JPG,AMSA23.JPG,0,0,0,9,,,,,,,,,,,,,,,,,,,,,,,AMNE04.jpg,AMSA01.jpg,AMNE07.jpg,AMSA16.jpg,AMNE04.jpg,MN,1,num_8,32,num_4,2.49988212809,,,2017_Aug_10_1052,60.0099895108,MAFE4ImagesEEG,001,101242,
AMSA25.JPG,AMNE24.JPG,AMSA24.JPG,AMNE26.JPG,AMSA21.JPG,AMNE25.JPG,0,1,1,3,,,,,,,,,,,,,,,,,,,,,,,AMNE02.jpg,AMSA17.jpg,AMSA07.jpg,AMNE18.jpg,AMSA07.jpg,MS,2,num_2,16,num_2,1.20008185296,,,2017_Aug_10_1052,60.0099895108,MAFE4ImagesEEG,001,101242,
AMSA21.JPG,AMNE22.JPG,AMNE21.JPG,AMSA23.JPG,AMSA22.JPG,AMNE23.JPG,0,2,2,1,,,,,,,,,,,,,,,,,,,,,,,AMNE18.jpg,AMNE13.jpg,AMSA12.jpg,AMSA02.jpg,AMSA12.jpg,MS,2,num_2,16,num_2,1.13345194282,,,2017_Aug_10_1052,60.0099895108,MAFE4ImagesEEG,001,101242,
AFSA21.JPG,AFNE22.JPG,AFNE21.JPG,AFSA23.JPG,AFSA22.JPG,AFNE23.JPG,0,3,3,0,,,,,,,,,,,,,,,,,,,,,,,AMSA11.jpg,AMSA15.jpg,AMNE19.jpg,AMNE14.jpg,AMNE19.jpg,MN,1,num_2,32,num_8,1.4833688233,,,2017_Aug_10_1052,60.0099895108,MAFE4ImagesEEG,001,101242,
AFSA25.JPG,AFNE24.JPG,AFSA24.JPG,AFNE21.JPG,AFSA21.JPG,AFNE25.JPG,0,4,4,2,,,,,,,,,,,,,,,,,,,,,,,AMSA02.jpg,AMSA07.jpg,AMNE14.jpg,AMNE18.jpg,AMNE18.jpg,MN,1,num_4,16,num_4,1.28311184631,,,2017_Aug_10_1052,60.0099895108,MAFE4ImagesEEG,001,101242,
AMNE22.JPG,AMSA24.JPG,AMSA22.JPG,AMNE25.JPG,AMNE24.JPG,AMSA25.JPG,0,5,5,7,,,,,,,,,,,,,,,,,,,,,,,AMSA12.jpg,AMNE03.jpg,AMSA05.jpg,AMNE13.jpg,AMNE13.jpg,MN,1,num_4,16,num_4,1.21671319008,,,2017_Aug_10_1052,60.0099895108,MAFE4ImagesEEG,001,101242,
AMSA21.JPG,AMNE23.JPG,AMNE21.JPG,AMSA25.JPG,AMNE25.JPG,AMSA23.JPG,0,6,6,5,,,,,,,,,,,,,,,,,,,,,,,AMSA13.jpg,AMNE09.jpg,AMNE19.jpg,AMSA03.jpg,AMSA13.jpg,MS,2,num_8,32,num_2,2.03304938227,,,2017_Aug_10_1052,60.0099895108,MAFE4ImagesEEG,001,101242,
AFSA21.JPG,AFNE23.JPG,AFNE21.JPG,AFSA25.JPG,AFNE25.JPG,AFSA23.JPG,0,7,7,4,,,,,,,,,,,,,,,,,,,,,,,AMSA20.jpg,AMNE15.jpg,AMNE10.jpg,AMSA12.jpg,AMSA12.jpg,MS,2,num_4,32,num_8,0.916743243346,,,2017_Aug_10_1052,60.0099895108,MAFE4ImagesEEG,001,101242,
AFNE23.JPG,AFNE24.JPG,AFNE22.JPG,AFSA24.JPG,AFSA22.JPG,AFSA23.JPG,0,8,8,8,,,,,,,,,,,,,,,,,,,,,,,AMSA04.jpg,AMNE20.jpg,AMNE10.jpg,AMSA14.jpg,AMSA04.jpg,MS,2,num_8,16,num_8,0.700182404835,,,2017_Aug_10_1052,60.0099895108,MAFE4ImagesEEG,001,101242,
AFNE22.JPG,AFSA24.JPG,AFSA22.JPG,AFNE25.JPG,AFNE24.JPG,AFSA25.JPG,0,9,9,6,,,,,,,,,,,,,,,,,,,,,,,AMSA10.jpg,AMNE02.jpg,AMSA14.jpg,AMNE05.jpg,AMNE05.jpg,MN,1,num_4,32,num_6,1.33338401024,,,2017_Aug_10_1052,60.0099895108,MAFE4ImagesEEG,001,101242,
AFSA21.JPG,AFNE23.JPG,AFNE21.JPG,AFSA25.JPG,AFNE25.JPG,AFSA23.JPG,,,,,0,0,0,4,,,,,,,,,,,,,,,,,,,AFSA13.jpg,AFNE12.jpg,AFSA16.jpg,AFNE07.jpg,AFNE12.jpg,FN,3,num_6,16,num_6,1.66669745767,,,2017_Aug_10_1052,60.0099895108,MAFE4ImagesEEG,001,101242,
AFSA25.JPG,AFNE24.JPG,AFSA24.JPG,AFNE21.JPG,AFSA21.JPG,AFNE25.JPG,,,,,0,1,1,2,,,,,,,,,,,,,,,,,,,AFSA13.jpg,AFNE07.jpg,AFNE04.jpg,AFSA02.jpg,AFNE07.jpg,FN,3,num_6,32,num_2,1.55006352253,,,2017_Aug_10_1052,60.0099895108,MAFE4ImagesEEG,001,101242,
AMNE23.JPG,AMNE24.JPG,AMNE22.JPG,AMSA24.JPG,AMSA22.JPG,AMSA23.JPG,,,,,0,2,2,9,,,,,,,,,,,,,,,,,,,AFSA13.jpg,AFNE14.jpg,AFNE11.jpg,AFSA08.jpg,AFSA13.jpg,FS,4,num_8,32,num_6,0.700112483464,,,2017_Aug_10_1052,60.0099895108,MAFE4ImagesEEG,001,101242,
AFSA21.JPG,AFNE22.JPG,AFNE21.JPG,AFSA23.JPG,AFSA22.JPG,AFNE23.JPG,,,,,0,3,3,0,,,,,,,,,,,,,,,,,,,AFNE15.jpg,AFNE06.jpg,AFSA04.jpg,AFSA11.jpg,AFSA11.jpg,FS,4,num_4,16,num_4,1.11675389181,,,2017_Aug_10_1052,60.0099895108,MAFE4ImagesEEG,001,101242,
AMNE22.JPG,AMSA24.JPG,AMSA22.JPG,AMNE25.JPG,AMNE24.JPG,AMSA25.JPG,,,,,0,4,4,7,,,,,,,,,,,,,,,,,,,AFSA19.jpg,AFNE14.jpg,AFNE11.jpg,AFSA01.jpg,AFSA19.jpg,FS,4,num_8,16,num_8,1.08339692,,,2017_Aug_10_1052,60.0099895108,MAFE4ImagesEEG,001,101242,
AFNE22.JPG,AFSA24.JPG,AFSA22.JPG,AFNE25.JPG,AFNE24.JPG,AFSA25.JPG,,,,,0,5,5,6,,,,,,,,,,,,,,,,,,,AFSA04.jpg,AFNE06.jpg,AFNE09.jpg,AFSA10.jpg,AFNE06.jpg,FN,3,num_6,32,num_8,1.56669036928,,,2017_Aug_10_1052,60.0099895108,MAFE4ImagesEEG,001,101242,
AMSA21.JPG,AMNE22.JPG,AMNE21.JPG,AMSA23.JPG,AMSA22.JPG,AMNE23.JPG,,,,,0,6,6,1,,,,,,,,,,,,,,,,,,,AFSA12.jpg,AFSA04.jpg,AFNE04.jpg,AFNE03.jpg,AFNE04.jpg,FN,3,num_2,32,num_6,0.88343951432,,,2017_Aug_10_1052,60.0099895108,MAFE4ImagesEEG,001,101242,
AMSA21.JPG,AMNE23.JPG,AMNE21.JPG,AMSA25.JPG,AMNE25.JPG,AMSA23.JPG,,,,,0,7,7,5,,,,,,,,,,,,,,,,,,,AFSA18.jpg,AFNE10.jpg,AFSA19.jpg,AFNE14.jpg,AFNE14.jpg,FN,3,num_4,32,num_6,0.666850450682,,,2017_Aug_10_1052,60.0099895108,MAFE4ImagesEEG,001,101242,
AFNE23.JPG,AFNE24.JPG,AFNE22.JPG,AFSA24.JPG,AFSA22.JPG,AFSA23.JPG,,,,,0,8,8,8,,,,,,,,,,,,,,,,,,,AFNE06.jpg,AFSA15.jpg,AFNE05.jpg,AFSA12.jpg,AFNE06.jpg,FN,3,num_8,32,num_6,1.11649665819,,,2017_Aug_10_1052,60.0099895108,MAFE4ImagesEEG,001,101242,
AMSA25.JPG,AMNE24.JPG,AMSA24.JPG,AMNE26.JPG,AMSA21.JPG,AMNE25.JPG,,,,,0,9,9,3,,,,,,,,,,,,,,,,,,,AFSA15.jpg,AFNE05.jpg,AFSA16.jpg,AFNE16.jpg,AFNE16.jpg,FN,3,num_4,32,num_2,1.68345901533,,,2017_Aug_10_1052,60.0099895108,MAFE4ImagesEEG,001,101242,
AFSA21.JPG,AFNE22.JPG,AFNE21.JPG,AFSA23.JPG,AFSA22.JPG,AFNE23.JPG,,,,,,,,,0,0,0,0,,,,,,,,,,,,,,,AMSA12.jpg,AMNE17.jpg,AMNE03.jpg,AMSA03.jpg,AMNE17.jpg,MN,1,num_6,32,num_2,0.983429924119,,,2017_Aug_10_1052,60.0099895108,MAFE4ImagesEEG,001,101242,
AFSA21.JPG,AFNE23.JPG,AFNE21.JPG,AFSA25.JPG,AFNE25.JPG,AFSA23.JPG,,,,,,,,,0,1,1,4,,,,,,,,,,,,,,,AMSA05.jpg,AMNE17.jpg,AMSA17.jpg,AMNE05.jpg,AMNE17.jpg,MN,1,num_6,32,num_8,0.683474090183,,,2017_Aug_10_1052,60.0099895108,MAFE4ImagesEEG,001,101242,
AMSA21.JPG,AMNE23.JPG,AMNE21.JPG,AMSA25.JPG,AMNE25.JPG,AMSA23.JPG,,,,,,,,,0,2,2,5,,,,,,,,,,,,,,,AMNE09.jpg,AMSA17.jpg,AMSA06.jpg,AMNE03.jpg,AMNE03.jpg,MN,1,num_4,32,num_8,1.85009152303,,,2017_Aug_10_1052,60.0099895108,MAFE4ImagesEEG,001,101242,
AMNE22.JPG,AMSA24.JPG,AMSA22.JPG,AMNE25.JPG,AMNE24.JPG,AMSA25.JPG,,,,,,,,,0,3,3,7,,,,,,,,,,,,,,,AMSA06.jpg,AMNE05.jpg,AMSA10.jpg,AMNE14.jpg,AMSA10.jpg,MS,2,num_2,32,num_8,0.883447533008,,,2017_Aug_10_1052,60.0099895108,MAFE4ImagesEEG,001,101242,
AFSA25.JPG,AFNE24.JPG,AFSA24.JPG,AFNE21.JPG,AFSA21.JPG,AFNE25.JPG,,,,,,,,,0,4,4,2,,,,,,,,,,,,,,,AMNE05.jpg,AMSA18.jpg,AMSA12.jpg,AMNE06.jpg,AMNE06.jpg,MN,1,num_4,32,num_8,0.900007345015,,,2017_Aug_10_1052,60.0099895108,MAFE4ImagesEEG,001,101242,
AFNE22.JPG,AFSA24.JPG,AFSA22.JPG,AFNE25.JPG,AFNE24.JPG,AFSA25.JPG,,,,,,,,,0,5,5,6,,,,,,,,,,,,,,,AMNE12.jpg,AMSA19.jpg,AMSA04.jpg,AMNE06.jpg,AMSA19.jpg,MS,2,num_6,16,num_6,1.06674986659,,,2017_Aug_10_1052,60.0099895108,MAFE4ImagesEEG,001,101242,
AMSA25.JPG,AMNE24.JPG,AMSA24.JPG,AMNE26.JPG,AMSA21.JPG,AMNE25.JPG,,,,,,,,,0,6,6,3,,,,,,,,,,,,,,,AMSA15.jpg,AMNE16.jpg,AMSA09.jpg,AMNE07.jpg,AMNE16.jpg,MN,1,num_6,32,num_4,1.00017801067,,,2017_Aug_10_1052,60.0099895108,MAFE4ImagesEEG,001,101242,
AMNE23.JPG,AMNE24.JPG,AMNE22.JPG,AMSA24.JPG,AMSA22.JPG,AMSA23.JPG,,,,,,,,,0,7,7,9,,,,,,,,,,,,,,,AMNE15.jpg,AMNE08.jpg,AMSA10.jpg,AMSA20.jpg,AMSA20.jpg,MS,2,num_4,32,num_6,2.41663146554,,,2017_Aug_10_1052,60.0099895108,MAFE4ImagesEEG,001,101242,
AFNE23.JPG,AFNE24.JPG,AFNE22.JPG,AFSA24.JPG,AFSA22.JPG,AFSA23.JPG,,,,,,,,,0,8,8,8,,,,,,,,,,,,,,,AMSA18.jpg,AMNE20.jpg,AMSA17.jpg,AMNE12.jpg,AMNE20.jpg,MN,1,num_6,16,num_6,1.73339728895,,,2017_Aug_10_1052,60.0099895108,MAFE4ImagesEEG,001,101242,
AMSA21.JPG,AMNE22.JPG,AMNE21.JPG,AMSA23.JPG,AMSA22.JPG,AMNE23.JPG,,,,,,,,,0,9,9,1,,,,,,,,,,,,,,,AMSA09.jpg,AMNE15.jpg,AMSA04.jpg,AMNE03.jpg,AMNE15.jpg,MN,1,num_6,32,num_4,1.40004535252,,,2017_Aug_10_1052,60.0099895108,MAFE4ImagesEEG,001,101242,
AMSA21.JPG,AMNE22.JPG,AMNE21.JPG,AMSA23.JPG,AMSA22.JPG,AMNE23.JPG,,,,,,,,,,,,,0,0,0,1,,,,,,,,,,,AFSA15.jpg,AFNE14.jpg,AFNE10.jpg,AFSA08.jpg,AFNE10.jpg,FN,3,num_2,16,num_2,1.00018955744,,,2017_Aug_10_1052,60.0099895108,MAFE4ImagesEEG,001,101242,
AMSA21.JPG,AMNE23.JPG,AMNE21.JPG,AMSA25.JPG,AMNE25.JPG,AMSA23.JPG,,,,,,,,,,,,,0,1,1,5,,,,,,,,,,,AFNE02.jpg,AFSA13.jpg,AFSA10.jpg,AFNE05.jpg,AFNE05.jpg,FN,3,num_4,32,num_6,0.30003088736,,,2017_Aug_10_1052,60.0099895108,MAFE4ImagesEEG,001,101242,
AFSA21.JPG,AFNE22.JPG,AFNE21.JPG,AFSA23.JPG,AFSA22.JPG,AFNE23.JPG,,,,,,,,,,,,,0,2,2,0,,,,,,,,,,,AFSA15.jpg,AFNE15.jpg,AFSA08.jpg,AFNE06.jpg,AFSA15.jpg,FS,4,num_8,32,num_4,0.75012645172,,,2017_Aug_10_1052,60.0099895108,MAFE4ImagesEEG,001,101242,
AMNE23.JPG,AMNE24.JPG,AMNE22.JPG,AMSA24.JPG,AMSA22.JPG,AMSA23.JPG,,,,,,,,,,,,,0,3,3,9,,,,,,,,,,,AFSA01.jpg,AFNE19.jpg,AFSA09.jpg,AFNE06.jpg,AFSA09.jpg,FS,4,num_2,48,None,,,,2017_Aug_10_1052,60.0099895108,MAFE4ImagesEEG,001,101242,
AMNE22.JPG,AMSA24.JPG,AMSA22.JPG,AMNE25.JPG,AMNE24.JPG,AMSA25.JPG,,,,,,,,,,,,,0,4,4,7,,,,,,,,,,,AFSA10.jpg,AFSA17.jpg,AFNE03.jpg,AFNE04.jpg,AFNE03.jpg,FN,3,num_2,48,None,,,,2017_Aug_10_1052,60.0099895108,MAFE4ImagesEEG,001,101242,
AMSA25.JPG,AMNE24.JPG,AMSA24.JPG,AMNE26.JPG,AMSA21.JPG,AMNE25.JPG,,,,,,,,,,,,,0,5,5,3,,,,,,,,,,,AFNE19.jpg,AFNE20.jpg,AFSA10.jpg,AFSA07.jpg,AFNE20.jpg,FN,3,num_6,48,None,,,,2017_Aug_10_1052,60.0099895108,MAFE4ImagesEEG,001,101242,
AFSA21.JPG,AFNE23.JPG,AFNE21.JPG,AFSA25.JPG,AFNE25.JPG,AFSA23.JPG,,,,,,,,,,,,,0,6,6,4,,,,,,,,,,,AFSA14.jpg,AFSA07.jpg,AFNE14.jpg,AFNE06.jpg,AFSA07.jpg,FS,4,num_6,48,None,,,,2017_Aug_10_1052,60.0099895108,MAFE4ImagesEEG,001,101242,
AFNE23.JPG,AFNE24.JPG,AFNE22.JPG,AFSA24.JPG,AFSA22.JPG,AFSA23.JPG,,,,,,,,,,,,,0,7,7,8,,,,,,,,,,,AFNE04.jpg,AFNE13.jpg,AFSA17.jpg,AFSA02.jpg,AFSA02.jpg,FS,4,num_4,32,num_8,3.91658768454,,,2017_Aug_10_1052,60.0099895108,MAFE4ImagesEEG,001,101242,
AFSA25.JPG,AFNE24.JPG,AFSA24.JPG,AFNE21.JPG,AFSA21.JPG,AFNE25.JPG,,,,,,,,,,,,,0,8,8,2,,,,,,,,,,,AFNE06.jpg,AFNE19.jpg,AFSA12.jpg,AFSA17.jpg,AFSA17.jpg,FS,4,num_4,32,num_6,1.01673076651,,,2017_Aug_10_1052,60.0099895108,MAFE4ImagesEEG,001,101242,
AFNE22.JPG,AFSA24.JPG,AFSA22.JPG,AFNE25.JPG,AFNE24.JPG,AFSA25.JPG,,,,,,,,,,,,,0,9,9,6,,,,,,,,,,,AFSA10.jpg,AFNE05.jpg,AFNE19.jpg,AFSA06.jpg,AFSA10.jpg,FS,4,num_8,32,num_6,0.733446683036,,,2017_Aug_10_1052,60.0099895108,MAFE4ImagesEEG,001,101242,
AFNE22.JPG,AFSA24.JPG,AFSA22.JPG,AFNE25.JPG,AFNE24.JPG,AFSA25.JPG,,,,,,,,,,,,,,,,,0,0,0,6,,,,,,,AMNE07.jpg,AMNE19.jpg,AMSA06.jpg,AMSA15.jpg,AMSA06.jpg,MS,2,num_2,32,num_6,0.333492420381,,,2017_Aug_10_1052,60.0099895108,MAFE4ImagesEEG,001,101242,
AMSA21.JPG,AMNE22.JPG,AMNE21.JPG,AMSA23.JPG,AMSA22.JPG,AMNE23.JPG,,,,,,,,,,,,,,,,,0,1,1,1,,,,,,,AMNE05.jpg,AMSA17.jpg,AMNE04.jpg,AMSA12.jpg,AMNE04.jpg,MN,1,num_2,32,num_4,1.0334294592,,,2017_Aug_10_1052,60.0099895108,MAFE4ImagesEEG,001,101242,
AMNE22.JPG,AMSA24.JPG,AMSA22.JPG,AMNE25.JPG,AMNE24.JPG,AMSA25.JPG,,,,,,,,,,,,,,,,,0,2,2,7,,,,,,,AMSA06.jpg,AMNE08.jpg,AMNE10.jpg,AMSA15.jpg,AMNE10.jpg,MN,1,num_2,32,num_4,0.316747862147,,,2017_Aug_10_1052,60.0099895108,MAFE4ImagesEEG,001,101242,
AFSA21.JPG,AFNE23.JPG,AFNE21.JPG,AFSA25.JPG,AFNE25.JPG,AFSA23.JPG,,,,,,,,,,,,,,,,,0,3,3,4,,,,,,,AMNE15.jpg,AMSA07.jpg,AMNE07.jpg,AMSA12.jpg,AMSA12.jpg,MS,2,num_4,32,num_8,0.616788050625,,,2017_Aug_10_1052,60.0099895108,MAFE4ImagesEEG,001,101242,
AFSA25.JPG,AFNE24.JPG,AFSA24.JPG,AFNE21.JPG,AFSA21.JPG,AFNE25.JPG,,,,,,,,,,,,,,,,,0,4,4,2,,,,,,,AMNE05.jpg,AMSA09.jpg,AMNE06.jpg,AMSA12.jpg,AMNE05.jpg,MN,1,num_8,32,num_2,2.06666487036,,,2017_Aug_10_1052,60.0099895108,MAFE4ImagesEEG,001,101242,
AFSA21.JPG,AFNE22.JPG,AFNE21.JPG,AFSA23.JPG,AFSA22.JPG,AFNE23.JPG,,,,,,,,,,,,,,,,,0,5,5,0,,,,,,,AMNE09.jpg,AMSA10.jpg,AMSA11.jpg,AMNE19.jpg,AMSA11.jpg,MS,2,num_2,32,num_6,0.96713568503,,,2017_Aug_10_1052,60.0099895108,MAFE4ImagesEEG,001,101242,
AMSA21.JPG,AMNE23.JPG,AMNE21.JPG,AMSA25.JPG,AMNE25.JPG,AMSA23.JPG,,,,,,,,,,,,,,,,,0,6,6,5,,,,,,,AMNE13.jpg,AMNE14.jpg,AMSA17.jpg,AMSA12.jpg,AMSA17.jpg,MS,2,num_2,32,num_8,1.08349859458,,,2017_Aug_10_1052,60.0099895108,MAFE4ImagesEEG,001,101242,
AFNE23.JPG,AFNE24.JPG,AFNE22.JPG,AFSA24.JPG,AFSA22.JPG,AFSA23.JPG,,,,,,,,,,,,,,,,,0,7,7,8,,,,,,,AMNE13.jpg,AMNE01.jpg,AMSA19.jpg,AMSA11.jpg,AMNE13.jpg,MN,1,num_8,32,num_2,0.783436274854,,,2017_Aug_10_1052,60.0099895108,MAFE4ImagesEEG,001,101242,
AMSA25.JPG,AMNE24.JPG,AMSA24.JPG,AMNE26.JPG,AMSA21.JPG,AMNE25.JPG,,,,,,,,,,,,,,,,,0,8,8,3,,,,,,,AMSA12.jpg,AMSA11.jpg,AMNE15.jpg,AMNE12.jpg,AMNE15.jpg,MN,1,num_2,32,num_8,0.666785340523,,,2017_Aug_10_1052,60.0099895108,MAFE4ImagesEEG,001,101242,
AMNE23.JPG,AMNE24.JPG,AMNE22.JPG,AMSA24.JPG,AMSA22.JPG,AMSA23.JPG,,,,,,,,,,,,,,,,,0,9,9,9,,,,,,,AMSA13.jpg,AMNE09.jpg,AMNE17.jpg,AMSA19.jpg,AMNE09.jpg,MN,1,num_6,32,num_8,0.733414288145,,,2017_Aug_10_1052,60.0099895108,MAFE4ImagesEEG,001,101242,
AFNE23.JPG,AFNE24.JPG,AFNE22.JPG,AFSA24.JPG,AFSA22.JPG,AFSA23.JPG,,,,,,,,,,,,,,,,,,,,,0,0,0,8,,,AFSA16.jpg,AFNE11.jpg,AFSA04.jpg,AFNE04.jpg,AFSA16.jpg,FS,4,num_8,16,num_8,0.716853834456,,,2017_Aug_10_1052,60.0099895108,MAFE4ImagesEEG,001,101242,
AFSA25.JPG,AFNE24.JPG,AFSA24.JPG,AFNE21.JPG,AFSA21.JPG,AFNE25.JPG,,,,,,,,,,,,,,,,,,,,,0,1,1,2,,,AFSA10.jpg,AFNE15.jpg,AFSA03.jpg,AFNE06.jpg,AFSA10.jpg,FS,4,num_8,32,num_2,1.41668887786,,,2017_Aug_10_1052,60.0099895108,MAFE4ImagesEEG,001,101242,
AMSA21.JPG,AMNE23.JPG,AMNE21.JPG,AMSA25.JPG,AMNE25.JPG,AMSA23.JPG,,,,,,,,,,,,,,,,,,,,,0,2,2,5,,,AFNE08.jpg,AFSA16.jpg,AFNE11.jpg,AFSA07.jpg,AFNE11.jpg,FN,3,num_2,32,num_8,0.816725891316,,,2017_Aug_10_1052,60.0099895108,MAFE4ImagesEEG,001,101242,
AFSA21.JPG,AFNE23.JPG,AFNE21.JPG,AFSA25.JPG,AFNE25.JPG,AFSA23.JPG,,,,,,,,,,,,,,,,,,,,,0,3,3,4,,,AFNE09.jpg,AFNE17.jpg,AFSA16.jpg,AFSA04.jpg,AFSA04.jpg,FS,4,num_4,32,num_2,1.33336476586,,,2017_Aug_10_1052,60.0099895108,MAFE4ImagesEEG,001,101242,
AFSA21.JPG,AFNE22.JPG,AFNE21.JPG,AFSA23.JPG,AFSA22.JPG,AFNE23.JPG,,,,,,,,,,,,,,,,,,,,,0,4,4,0,,,AFNE18.jpg,AFSA02.jpg,AFNE13.jpg,AFSA07.jpg,AFSA07.jpg,FS,4,num_4,16,num_4,1.10010523489,,,2017_Aug_10_1052,60.0099895108,MAFE4ImagesEEG,001,101242,
AMSA21.JPG,AMNE22.JPG,AMNE21.JPG,AMSA23.JPG,AMSA22.JPG,AMNE23.JPG,,,,,,,,,,,,,,,,,,,,,0,5,5,1,,,AFSA14.jpg,AFSA15.jpg,AFNE19.jpg,AFNE18.jpg,AFNE19.jpg,FN,3,num_2,32,num_8,0.700121784816,,,2017_Aug_10_1052,60.0099895108,MAFE4ImagesEEG,001,101242,
AMNE22.JPG,AMSA24.JPG,AMSA22.JPG,AMNE25.JPG,AMNE24.JPG,AMSA25.JPG,,,,,,,,,,,,,,,,,,,,,0,6,6,7,,,AFNE11.jpg,AFNE15.jpg,AFSA17.jpg,AFSA13.jpg,AFNE15.jpg,FN,3,num_6,32,num_8,0.933435521089,,,2017_Aug_10_1052,60.0099895108,MAFE4ImagesEEG,001,101242,
AMNE23.JPG,AMNE24.JPG,AMNE22.JPG,AMSA24.JPG,AMSA22.JPG,AMSA23.JPG,,,,,,,,,,,,,,,,,,,,,0,7,7,9,,,AFNE17.jpg,AFSA06.jpg,AFNE02.jpg,AFSA17.jpg,AFSA06.jpg,FS,4,num_6,32,num_4,0.816777530592,,,2017_Aug_10_1052,60.0099895108,MAFE4ImagesEEG,001,101242,
AMSA25.JPG,AMNE24.JPG,AMSA24.JPG,AMNE26.JPG,AMSA21.JPG,AMNE25.JPG,,,,,,,,,,,,,,,,,,,,,0,8,8,3,,,AFSA12.jpg,AFSA10.jpg,AFNE06.jpg,AFNE14.jpg,AFNE06.jpg,FN,3,num_2,32,num_8,1.13340896368,,,2017_Aug_10_1052,60.0099895108,MAFE4ImagesEEG,001,101242,
AFNE22.JPG,AFSA24.JPG,AFSA22.JPG,AFNE25.JPG,AFNE24.JPG,AFSA25.JPG,,,,,,,,,,,,,,,,,,,,,0,9,9,6,,,AFNE14.jpg,AFNE20.jpg,AFSA18.jpg,AFSA05.jpg,AFNE20.jpg,FN,3,num_6,32,num_8,1.21678728098,,,2017_Aug_10_1052,60.0099895108,MAFE4ImagesEEG,001,101242,
,,,,,,,,,,,,,,,,,,,,,,,,,,,,,,,,,,,,,,,,,,,space,5.36669960665,2017_Aug_10_1052,60.0099895108,MAFE4ImagesEEG,001,101242,
AFNE01.JPG,AFNE01.JPG,AFNE01.JPG,AFNE01.JPG,AFNE01.JPG,AFNE01.JPG,0,0,0,8,,,,,,,,,,,,,,,,,,,,,,,AMSA06.jpg,AMSA09.jpg,AMNE20.jpg,AMNE03.jpg,AMNE20.jpg,MN,1,num_2,32,num_8,0.883448495064,,,2017_Aug_10_1052,60.0099895108,MAFE4ImagesEEG,001,101242,
AFNE01.JPG,AFNE01.JPG,AFNE01.JPG,AFNE01.JPG,AFNE01.JPG,AFNE01.JPG,0,1,1,1,,,,,,,,,,,,,,,,,,,,,,,AMNE15.jpg,AMNE08.jpg,AMSA04.jpg,AMSA18.jpg,AMSA18.jpg,MS,2,num_4,16,num_4,1.16675823811,,,2017_Aug_10_1052,60.0099895108,MAFE4ImagesEEG,001,101242,
AFNE01.JPG,AFNE01.JPG,AFNE01.JPG,AFNE01.JPG,AFNE01.JPG,AFNE01.JPG,0,2,2,5,,,,,,,,,,,,,,,,,,,,,,,AMNE02.jpg,AMSA02.jpg,AMNE08.jpg,AMSA10.jpg,AMSA10.jpg,MS,2,num_4,16,num_4,0.666784378467,,,2017_Aug_10_1052,60.0099895108,MAFE4ImagesEEG,001,101242,
AFNE01.JPG,AFNE01.JPG,AFNE01.JPG,AFNE01.JPG,AFNE01.JPG,AFNE01.JPG,0,3,3,6,,,,,,,,,,,,,,,,,,,,,,,AMNE14.jpg,AMSA13.jpg,AMSA04.jpg,AMNE15.jpg,AMNE14.jpg,MN,1,num_8,16,num_8,0.783459368162,,,2017_Aug_10_1052,60.0099895108,MAFE4ImagesEEG,001,101242,
AFNE01.JPG,AFNE01.JPG,AFNE01.JPG,AFNE01.JPG,AFNE01.JPG,AFNE01.JPG,0,4,4,4,,,,,,,,,,,,,,,,,,,,,,,AMNE09.jpg,AMNE14.jpg,AMSA11.jpg,AMSA19.jpg,AMSA11.jpg,MS,2,num_2,32,num_4,0.783477329649,,,2017_Aug_10_1052,60.0099895108,MAFE4ImagesEEG,001,101242,
AFNE01.JPG,AFNE01.JPG,AFNE01.JPG,AFNE01.JPG,AFNE01.JPG,AFNE01.JPG,0,5,5,9,,,,,,,,,,,,,,,,,,,,,,,AMSA08.jpg,AMNE17.jpg,AMNE01.jpg,AMSA12.jpg,AMNE17.jpg,MN,1,num_6,32,num_4,0.600155109772,,,2017_Aug_10_1052,60.0099895108,MAFE4ImagesEEG,001,101242,
AFNE01.JPG,AFNE01.JPG,AFNE01.JPG,AFNE01.JPG,AFNE01.JPG,AFNE01.JPG,0,6,6,3,,,,,,,,,,,,,,,,,,,,,,,AMNE04.jpg,AMSA09.jpg,AMSA10.jpg,AMNE19.jpg,AMSA09.jpg,MS,2,num_6,32,num_4,0.866631449433,,,2017_Aug_10_1052,60.0099895108,MAFE4ImagesEEG,001,101242,
AFNE01.JPG,AFNE01.JPG,AFNE01.JPG,AFNE01.JPG,AFNE01.JPG,AFNE01.JPG,0,7,7,7,,,,,,,,,,,,,,,,,,,,,,,AMSA07.jpg,AMNE16.jpg,AMSA09.jpg,AMNE18.jpg,AMSA07.jpg,MS,2,num_8,16,num_8,0.850166255608,,,2017_Aug_10_1052,60.0099895108,MAFE4ImagesEEG,001,101242,
AFNE01.JPG,AFNE01.JPG,AFNE01.JPG,AFNE01.JPG,AFNE01.JPG,AFNE01.JPG,0,8,8,2,,,,,,,,,,,,,,,,,,,,,,,AMSA13.jpg,AMNE11.jpg,AMNE18.jpg,AMSA16.jpg,AMNE11.jpg,MN,1,num_6,16,num_6,0.516797641059,,,2017_Aug_10_1052,60.0099895108,MAFE4ImagesEEG,001,101242,
AFNE01.JPG,AFNE01.JPG,AFNE01.JPG,AFNE01.JPG,AFNE01.JPG,AFNE01.JPG,0,9,9,0,,,,,,,,,,,,,,,,,,,,,,,AMSA10.jpg,AMNE06.jpg,AMNE20.jpg,AMSA12.jpg,AMSA10.jpg,MS,2,num_8,32,num_4,0.483313335339,,,2017_Aug_10_1052,60.0099895108,MAFE4ImagesEEG,001,101242,
AFNE01.JPG,AFNE01.JPG,AFNE01.JPG,AFNE01.JPG,AFNE01.JPG,AFNE01.JPG,1,0,10,6,,,,,,,,,,,,,,,,,,,,,,,AMSA07.jpg,AMNE06.jpg,AMSA14.jpg,AMNE13.jpg,AMSA14.jpg,MS,2,num_2,32,num_6,0.916732017417,,,2017_Aug_10_1052,60.0099895108,MAFE4ImagesEEG,001,101242,
AFNE01.JPG,AFNE01.JPG,AFNE01.JPG,AFNE01.JPG,AFNE01.JPG,AFNE01.JPG,1,1,11,7,,,,,,,,,,,,,,,,,,,,,,,AMSA11.jpg,AMNE11.jpg,AMSA03.jpg,AMNE02.jpg,AMSA03.jpg,MS,2,num_2,32,num_8,0.650108779082,,,2017_Aug_10_1052,60.0099895108,MAFE4ImagesEEG,001,101242,
AFNE01.JPG,AFNE01.JPG,AFNE01.JPG,AFNE01.JPG,AFNE01.JPG,AFNE01.JPG,1,2,12,2,,,,,,,,,,,,,,,,,,,,,,,AMNE02.jpg,AMSA19.jpg,AMNE16.jpg,AMSA06.jpg,AMSA06.jpg,MS,2,num_4,32,num_8,0.649796698941,,,2017_Aug_10_1052,60.0099895108,MAFE4ImagesEEG,001,101242,
AFNE01.JPG,AFNE01.JPG,AFNE01.JPG,AFNE01.JPG,AFNE01.JPG,AFNE01.JPG,1,3,13,5,,,,,,,,,,,,,,,,,,,,,,,AMNE07.jpg,AMSA09.jpg,AMSA20.jpg,AMNE08.jpg,AMSA20.jpg,MS,2,num_2,32,num_6,0.500131984707,,,2017_Aug_10_1052,60.0099895108,MAFE4ImagesEEG,001,101242,
AFNE01.JPG,AFNE01.JPG,AFNE01.JPG,AFNE01.JPG,AFNE01.JPG,AFNE01.JPG,1,4,14,4,,,,,,,,,,,,,,,,,,,,,,,AMSA15.jpg,AMNE05.jpg,AMNE03.jpg,AMSA04.jpg,AMSA15.jpg,MS,2,num_8,16,num_8,0.566836626735,,,2017_Aug_10_1052,60.0099895108,MAFE4ImagesEEG,001,101242,
AFNE01.JPG,AFNE01.JPG,AFNE01.JPG,AFNE01.JPG,AFNE01.JPG,AFNE01.JPG,1,5,15,1,,,,,,,,,,,,,,,,,,,,,,,AMSA18.jpg,AMSA08.jpg,AMNE19.jpg,AMNE10.jpg,AMSA08.jpg,MS,2,num_6,32,num_4,1.03355518938,,,2017_Aug_10_1052,60.0099895108,MAFE4ImagesEEG,001,101242,
AFNE01.JPG,AFNE01.JPG,AFNE01.JPG,AFNE01.JPG,AFNE01.JPG,AFNE01.JPG,1,6,16,9,,,,,,,,,,,,,,,,,,,,,,,AMSA01.jpg,AMSA12.jpg,AMNE02.jpg,AMNE09.jpg,AMSA12.jpg,MS,2,num_6,16,num_6,0.98345205537,,,2017_Aug_10_1052,60.0099895108,MAFE4ImagesEEG,001,101242,
AFNE01.JPG,AFNE01.JPG,AFNE01.JPG,AFNE01.JPG,AFNE01.JPG,AFNE01.JPG,1,7,17,8,,,,,,,,,,,,,,,,,,,,,,,AMSA09.jpg,AMNE02.jpg,AMSA04.jpg,AMNE18.jpg,AMSA04.jpg,MS,2,num_2,16,num_2,0.76680525858,,,2017_Aug_10_1052,60.0099895108,MAFE4ImagesEEG,001,101242,
AFNE01.JPG,AFNE01.JPG,AFNE01.JPG,AFNE01.JPG,AFNE01.JPG,AFNE01.JPG,1,8,18,3,,,,,,,,,,,,,,,,,,,,,,,AMSA13.jpg,AMNE02.jpg,AMNE14.jpg,AMSA14.jpg,AMSA14.jpg,MS,2,num_4,32,num_8,1.45005932078,,,2017_Aug_10_1052,60.0099895108,MAFE4ImagesEEG,001,101242,
AFNE01.JPG,AFNE01.JPG,AFNE01.JPG,AFNE01.JPG,AFNE01.JPG,AFNE01.JPG,1,9,19,0,,,,,,,,,,,,,,,,,,,,,,,AMSA02.jpg,AMNE20.jpg,AMNE09.jpg,AMSA18.jpg,AMNE09.jpg,MN,1,num_2,16,num_2,1.93338997616,,,2017_Aug_10_1052,60.0099895108,MAFE4ImagesEEG,001,101242,
AFNE01.JPG,AFNE01.JPG,AFNE01.JPG,AFNE01.JPG,AFNE01.JPG,AFNE01.JPG,2,0,20,1,,,,,,,,,,,,,,,,,,,,,,,AMSA09.jpg,AMNE11.jpg,AMNE06.jpg,AMSA04.jpg,AMSA09.jpg,MS,2,num_8,32,num_2,1.4000985953,,,2017_Aug_10_1052,60.0099895108,MAFE4ImagesEEG,001,101242,
AFNE01.JPG,AFNE01.JPG,AFNE01.JPG,AFNE01.JPG,AFNE01.JPG,AFNE01.JPG,2,1,21,3,,,,,,,,,,,,,,,,,,,,,,,AMSA10.jpg,AMSA04.jpg,AMNE15.jpg,AMNE18.jpg,AMNE15.jpg,MN,1,num_2,32,num_6,0.800463084597,,,2017_Aug_10_1052,60.0099895108,MAFE4ImagesEEG,001,101242,
AFNE01.JPG,AFNE01.JPG,AFNE01.JPG,AFNE01.JPG,AFNE01.JPG,AFNE01.JPG,2,2,22,6,,,,,,,,,,,,,,,,,,,,,,,AMSA08.jpg,AMSA12.jpg,AMNE04.jpg,AMNE14.jpg,AMSA08.jpg,MS,2,num_8,32,num_6,0.400347810471,,,2017_Aug_10_1052,60.0099895108,MAFE4ImagesEEG,001,101242,
AFNE01.JPG,AFNE01.JPG,AFNE01.JPG,AFNE01.JPG,AFNE01.JPG,AFNE01.JPG,2,3,23,7,,,,,,,,,,,,,,,,,,,,,,,AMSA19.jpg,AMSA14.jpg,AMNE03.jpg,AMNE01.jpg,AMSA19.jpg,MS,2,num_8,32,num_6,0.550160706975,,,2017_Aug_10_1052,60.0099895108,MAFE4ImagesEEG,001,101242,
AFNE01.JPG,AFNE01.JPG,AFNE01.JPG,AFNE01.JPG,AFNE01.JPG,AFNE01.JPG,2,4,24,5,,,,,,,,,,,,,,,,,,,,,,,AMSA11.jpg,AMSA19.jpg,AMNE01.jpg,AMNE20.jpg,AMSA19.jpg,MS,2,num_6,16,num_6,0.600130733801,,,2017_Aug_10_1052,60.0099895108,MAFE4ImagesEEG,001,101242,
AFNE01.JPG,AFNE01.JPG,AFNE01.JPG,AFNE01.JPG,AFNE01.JPG,AFNE01.JPG,2,5,25,8,,,,,,,,,,,,,,,,,,,,,,,AMNE08.jpg,AMSA05.jpg,AMNE11.jpg,AMSA06.jpg,AMSA06.jpg,MS,2,num_4,32,num_6,0.566817382583,,,2017_Aug_10_1052,60.0099895108,MAFE4ImagesEEG,001,101242,
AFNE01.JPG,AFNE01.JPG,AFNE01.JPG,AFNE01.JPG,AFNE01.JPG,AFNE01.JPG,2,6,26,4,,,,,,,,,,,,,,,,,,,,,,,AMSA09.jpg,AMNE01.jpg,AMNE08.jpg,AMSA04.jpg,AMSA04.jpg,MS,2,num_4,32,num_6,0.400284624659,,,2017_Aug_10_1052,60.0099895108,MAFE4ImagesEEG,001,101242,
AFNE01.JPG,AFNE01.JPG,AFNE01.JPG,AFNE01.JPG,AFNE01.JPG,AFNE01.JPG,2,7,27,2,,,,,,,,,,,,,,,,,,,,,,,AMSA02.jpg,AMSA09.jpg,AMNE10.jpg,AMNE08.jpg,AMSA02.jpg,MS,2,num_8,32,num_6,0.333491458325,,,2017_Aug_10_1052,60.0099895108,MAFE4ImagesEEG,001,101242,
AFNE01.JPG,AFNE01.JPG,AFNE01.JPG,AFNE01.JPG,AFNE01.JPG,AFNE01.JPG,2,8,28,9,,,,,,,,,,,,,,,,,,,,,,,AMSA01.jpg,AMSA07.jpg,AMNE15.jpg,AMNE08.jpg,AMNE08.jpg,MN,1,num_4,32,num_6,0.216781507712,,,2017_Aug_10_1052,60.0099895108,MAFE4ImagesEEG,001,101242,
AFNE01.JPG,AFNE01.JPG,AFNE01.JPG,AFNE01.JPG,AFNE01.JPG,AFNE01.JPG,2,9,29,0,,,,,,,,,,,,,,,,,,,,,,,AMNE19.jpg,AMSA11.jpg,AMNE04.jpg,AMSA16.jpg,AMSA11.jpg,MS,2,num_6,32,num_4,0.333448158111,,,2017_Aug_10_1052,60.0099895108,MAFE4ImagesEEG,001,101242,
AFNE01.JPG,AFNE01.JPG,AFNE01.JPG,AFNE01.JPG,AFNE01.JPG,AFNE01.JPG,3,0,30,5,,,,,,,,,,,,,,,,,,,,,,,AMNE03.jpg,AMSA16.jpg,AMSA17.jpg,AMNE01.jpg,AMNE01.jpg,MN,1,num_4,32,num_2,0.799903393257,,,2017_Aug_10_1052,60.0099895108,MAFE4ImagesEEG,001,101242,
AFNE01.JPG,AFNE01.JPG,AFNE01.JPG,AFNE01.JPG,AFNE01.JPG,AFNE01.JPG,3,1,31,6,,,,,,,,,,,,,,,,,,,,,,,AMNE13.jpg,AMNE06.jpg,AMSA14.jpg,AMSA16.jpg,AMSA16.jpg,MS,2,num_4,16,num_4,0.833449280821,,,2017_Aug_10_1052,60.0099895108,MAFE4ImagesEEG,001,101242,
AFNE01.JPG,AFNE01.JPG,AFNE01.JPG,AFNE01.JPG,AFNE01.JPG,AFNE01.JPG,3,2,32,7,,,,,,,,,,,,,,,,,,,,,,,AMNE16.jpg,AMSA07.jpg,AMNE20.jpg,AMSA12.jpg,AMNE16.jpg,MN,1,num_8,32,num_4,1.18342966773,,,2017_Aug_10_1052,60.0099895108,MAFE4ImagesEEG,001,101242,
AFNE01.JPG,AFNE01.JPG,AFNE01.JPG,AFNE01.JPG,AFNE01.JPG,AFNE01.JPG,3,3,33,3,,,,,,,,,,,,,,,,,,,,,,,AMSA16.jpg,AMNE09.jpg,AMNE10.jpg,AMSA19.jpg,AMSA16.jpg,MS,2,num_8,32,num_6,0.733502170769,,,2017_Aug_10_1052,60.0099895108,MAFE4ImagesEEG,001,101242,
AFNE01.JPG,AFNE01.JPG,AFNE01.JPG,AFNE01.JPG,AFNE01.JPG,AFNE01.JPG,3,4,34,4,,,,,,,,,,,,,,,,,,,,,,,AMSA09.jpg,AMNE09.jpg,AMSA04.jpg,AMNE05.jpg,AMSA09.jpg,MS,2,num_8,16,num_8,1.04992961348,,,2017_Aug_10_1052,60.0099895108,MAFE4ImagesEEG,001,101242,
AFNE01.JPG,AFNE01.JPG,AFNE01.JPG,AFNE01.JPG,AFNE01.JPG,AFNE01.JPG,3,5,35,1,,,,,,,,,,,,,,,,,,,,,,,AMSA09.jpg,AMNE15.jpg,AMSA01.jpg,AMNE08.jpg,AMNE15.jpg,MN,1,num_6,16,num_6,1.11671861052,,,2017_Aug_10_1052,60.0099895108,MAFE4ImagesEEG,001,101242,
AFNE01.JPG,AFNE01.JPG,AFNE01.JPG,AFNE01.JPG,AFNE01.JPG,AFNE01.JPG,3,6,36,8,,,,,,,,,,,,,,,,,,,,,,,AMSA12.jpg,AMSA17.jpg,AMNE02.jpg,AMNE04.jpg,AMNE02.jpg,MN,1,num_2,16,num_2,0.933455086313,,,2017_Aug_10_1052,60.0099895108,MAFE4ImagesEEG,001,101242,
AFNE01.JPG,AFNE01.JPG,AFNE01.JPG,AFNE01.JPG,AFNE01.JPG,AFNE01.JPG,3,7,37,2,,,,,,,,,,,,,,,,,,,,,,,AMSA02.jpg,AMNE09.jpg,AMNE18.jpg,AMSA06.jpg,AMNE18.jpg,MN,1,num_2,16,num_2,0.983300345251,,,2017_Aug_10_1052,60.0099895108,MAFE4ImagesEEG,001,101242,
AFNE01.JPG,AFNE01.JPG,AFNE01.JPG,AFNE01.JPG,AFNE01.JPG,AFNE01.JPG,3,8,38,9,,,,,,,,,,,,,,,,,,,,,,,AMNE14.jpg,AMNE15.jpg,AMSA02.jpg,AMSA11.jpg,AMNE15.jpg,MN,1,num_6,16,num_6,1.35008719331,,,2017_Aug_10_1052,60.0099895108,MAFE4ImagesEEG,001,101242,
AFNE01.JPG,AFNE01.JPG,AFNE01.JPG,AFNE01.JPG,AFNE01.JPG,AFNE01.JPG,3,9,39,0,,,,,,,,,,,,,,,,,,,,,,,AMSA03.jpg,AMNE15.jpg,AMSA08.jpg,AMNE07.jpg,AMNE07.jpg,MN,1,num_4,32,num_2,1.40011783992,,,2017_Aug_10_1052,60.0099895108,MAFE4ImagesEEG,001,101242,
AFNE01.JPG,AFNE01.JPG,AFNE01.JPG,AFNE01.JPG,AFNE01.JPG,AFNE01.JPG,4,0,40,3,,,,,,,,,,,,,,,,,,,,,,,AMSA06.jpg,AMNE09.jpg,AMSA05.jpg,AMNE10.jpg,AMNE09.jpg,MN,1,num_6,32,num_4,1.25007272791,,,2017_Aug_10_1052,60.0099895108,MAFE4ImagesEEG,001,101242,
AFNE01.JPG,AFNE01.JPG,AFNE01.JPG,AFNE01.JPG,AFNE01.JPG,AFNE01.JPG,4,1,41,6,,,,,,,,,,,,,,,,,,,,,,,AMNE17.jpg,AMSA20.jpg,AMNE18.jpg,AMSA19.jpg,AMSA20.jpg,MS,2,num_6,32,num_8,0.549857286736,,,2017_Aug_10_1052,60.0099895108,MAFE4ImagesEEG,001,101242,
AFNE01.JPG,AFNE01.JPG,AFNE01.JPG,AFNE01.JPG,AFNE01.JPG,AFNE01.JPG,4,2,42,1,,,,,,,,,,,,,,,,,,,,,,,AMSA08.jpg,AMNE17.jpg,AMNE11.jpg,AMSA06.jpg,AMSA06.jpg,MS,2,num_4,16,num_4,1.16699077468,,,2017_Aug_10_1052,60.0099895108,MAFE4ImagesEEG,001,101242,
AFNE01.JPG,AFNE01.JPG,AFNE01.JPG,AFNE01.JPG,AFNE01.JPG,AFNE01.JPG,4,3,43,2,,,,,,,,,,,,,,,,,,,,,,,AMSA15.jpg,AMNE20.jpg,AMNE14.jpg,AMSA17.jpg,AMNE20.jpg,MN,1,num_6,32,num_8,0.900206524646,,,2017_Aug_10_1052,60.0099895108,MAFE4ImagesEEG,001,101242,
AFNE01.JPG,AFNE01.JPG,AFNE01.JPG,AFNE01.JPG,AFNE01.JPG,AFNE01.JPG,4,4,44,5,,,,,,,,,,,,,,,,,,,,,,,AMNE19.jpg,AMSA12.jpg,AMNE12.jpg,AMSA05.jpg,AMSA05.jpg,MS,2,num_4,16,num_4,0.850345549406,,,2017_Aug_10_1052,60.0099895108,MAFE4ImagesEEG,001,101242,
AFNE01.JPG,AFNE01.JPG,AFNE01.JPG,AFNE01.JPG,AFNE01.JPG,AFNE01.JPG,4,5,45,8,,,,,,,,,,,,,,,,,,,,,,,AMNE15.jpg,AMSA03.jpg,AMSA04.jpg,AMNE04.jpg,AMNE04.jpg,MN,1,num_4,16,num_4,0.900053531397,,,2017_Aug_10_1052,60.0099895108,MAFE4ImagesEEG,001,101242,
AFNE01.JPG,AFNE01.JPG,AFNE01.JPG,AFNE01.JPG,AFNE01.JPG,AFNE01.JPG,4,6,46,7,,,,,,,,,,,,,,,,,,,,,,,AMSA08.jpg,AMNE02.jpg,AMNE12.jpg,AMSA11.jpg,AMSA11.jpg,MS,2,num_4,16,num_4,0.333633546019,,,2017_Aug_10_1052,60.0099895108,MAFE4ImagesEEG,001,101242,
AFNE01.JPG,AFNE01.JPG,AFNE01.JPG,AFNE01.JPG,AFNE01.JPG,AFNE01.JPG,4,7,47,0,,,,,,,,,,,,,,,,,,,,,,,AMSA12.jpg,AMNE08.jpg,AMSA16.jpg,AMNE05.jpg,AMNE05.jpg,MN,1,num_4,32,num_8,0.700222817948,,,2017_Aug_10_1052,60.0099895108,MAFE4ImagesEEG,001,101242,
AFNE01.JPG,AFNE01.JPG,AFNE01.JPG,AFNE01.JPG,AFNE01.JPG,AFNE01.JPG,4,8,48,4,,,,,,,,,,,,,,,,,,,,,,,AMSA12.jpg,AMNE13.jpg,AMSA13.jpg,AMNE04.jpg,AMNE04.jpg,MN,1,num_4,32,num_8,0.716794497566,,,2017_Aug_10_1052,60.0099895108,MAFE4ImagesEEG,001,101242,
AFNE01.JPG,AFNE01.JPG,AFNE01.JPG,AFNE01.JPG,AFNE01.JPG,AFNE01.JPG,4,9,49,9,,,,,,,,,,,,,,,,,,,,,,,AMSA16.jpg,AMNE01.jpg,AMSA20.jpg,AMNE10.jpg,AMNE01.jpg,MN,1,num_6,32,num_8,0.450232199626,,,2017_Aug_10_1052,60.0099895108,MAFE4ImagesEEG,001,101242,
AFNE01.JPG,AFNE01.JPG,AFNE01.JPG,AFNE01.JPG,AFNE01.JPG,AFNE01.JPG,5,0,50,0,,,,,,,,,,,,,,,,,,,,,,,AMNE01.jpg,AMSA11.jpg,AMSA12.jpg,AMNE08.jpg,AMNE01.jpg,MN,1,num_8,16,num_8,0.616774579743,,,2017_Aug_10_1052,60.0099895108,MAFE4ImagesEEG,001,101242,
AFNE01.JPG,AFNE01.JPG,AFNE01.JPG,AFNE01.JPG,AFNE01.JPG,AFNE01.JPG,5,1,51,7,,,,,,,,,,,,,,,,,,,,,,,AMNE19.jpg,AMSA03.jpg,AMNE17.jpg,AMSA09.jpg,AMNE17.jpg,MN,1,num_2,32,num_8,1.2167609802,,,2017_Aug_10_1052,60.0099895108,MAFE4ImagesEEG,001,101242,
AFNE01.JPG,AFNE01.JPG,AFNE01.JPG,AFNE01.JPG,AFNE01.JPG,AFNE01.JPG,5,2,52,4,,,,,,,,,,,,,,,,,,,,,,,AMSA20.jpg,AMNE04.jpg,AMNE09.jpg,AMSA11.jpg,AMNE04.jpg,MN,1,num_6,16,num_6,0.333486326272,,,2017_Aug_10_1052,60.0099895108,MAFE4ImagesEEG,001,101242,
AFNE01.JPG,AFNE01.JPG,AFNE01.JPG,AFNE01.JPG,AFNE01.JPG,AFNE01.JPG,5,3,53,6,,,,,,,,,,,,,,,,,,,,,,,AMNE19.jpg,AMSA04.jpg,AMNE15.jpg,AMSA13.jpg,AMNE19.jpg,MN,1,num_8,32,num_4,1.066771677,,,2017_Aug_10_1052,60.0099895108,MAFE4ImagesEEG,001,101242,
AFNE01.JPG,AFNE01.JPG,AFNE01.JPG,AFNE01.JPG,AFNE01.JPG,AFNE01.JPG,5,4,54,1,,,,,,,,,,,,,,,,,,,,,,,AMSA10.jpg,AMNE09.jpg,AMSA01.jpg,AMNE08.jpg,AMSA01.jpg,MS,2,num_2,16,num_2,1.06661772169,,,2017_Aug_10_1052,60.0099895108,MAFE4ImagesEEG,001,101242,
AFNE01.JPG,AFNE01.JPG,AFNE01.JPG,AFNE01.JPG,AFNE01.JPG,AFNE01.JPG,5,5,55,8,,,,,,,,,,,,,,,,,,,,,,,AMSA06.jpg,AMNE12.jpg,AMNE08.jpg,AMSA01.jpg,AMNE08.jpg,MN,1,num_2,32,num_6,0.933767166222,,,2017_Aug_10_1052,60.0099895108,MAFE4ImagesEEG,001,101242,
AFNE01.JPG,AFNE01.JPG,AFNE01.JPG,AFNE01.JPG,AFNE01.JPG,AFNE01.JPG,5,6,56,9,,,,,,,,,,,,,,,,,,,,,,,AMNE02.jpg,AMNE08.jpg,AMSA19.jpg,AMSA02.jpg,AMNE08.jpg,MN,1,num_6,16,num_6,1.06673607463,,,2017_Aug_10_1052,60.0099895108,MAFE4ImagesEEG,001,101242,
AFNE01.JPG,AFNE01.JPG,AFNE01.JPG,AFNE01.JPG,AFNE01.JPG,AFNE01.JPG,5,7,57,2,,,,,,,,,,,,,,,,,,,,,,,AMNE06.jpg,AMSA02.jpg,AMSA20.jpg,AMNE04.jpg,AMNE06.jpg,MN,1,num_8,32,num_6,1.94999437104,,,2017_Aug_10_1052,60.0099895108,MAFE4ImagesEEG,001,101242,
AFNE01.JPG,AFNE01.JPG,AFNE01.JPG,AFNE01.JPG,AFNE01.JPG,AFNE01.JPG,5,8,58,3,,,,,,,,,,,,,,,,,,,,,,,AMNE10.jpg,AMSA17.jpg,AMNE19.jpg,AMSA14.jpg,AMNE19.jpg,MN,1,num_2,32,num_6,0.933424295159,,,2017_Aug_10_1052,60.0099895108,MAFE4ImagesEEG,001,101242,
AFNE01.JPG,AFNE01.JPG,AFNE01.JPG,AFNE01.JPG,AFNE01.JPG,AFNE01.JPG,5,9,59,5,,,,,,,,,,,,,,,,,,,,,,,AMNE18.jpg,AMNE07.jpg,AMSA14.jpg,AMSA12.jpg,AMSA12.jpg,MS,2,num_4,32,num_6,0.650131230941,,,2017_Aug_10_1052,60.0099895108,MAFE4ImagesEEG,001,101242,
,,,,,,,,,,,,,,,,,,,,,,,,,,,,,,,,,,,,,,,,,,,space,6.89971450926,2017_Aug_10_1052,60.0099895108,MAFE4ImagesEEG,001,101242,
AFNE01.JPG,AFNE01.JPG,AFNE01.JPG,AFNE01.JPG,AFNE01.JPG,AFNE01.JPG,,,,,0,0,0,2,,,,,,,,,,,,,,,,,,,AFNE05.jpg,AFSA09.jpg,AFSA19.jpg,AFNE12.jpg,AFNE05.jpg,FN,3,num_8,16,num_8,0.700086503755,,,2017_Aug_10_1052,60.0099895108,MAFE4ImagesEEG,001,101242,
AFNE01.JPG,AFNE01.JPG,AFNE01.JPG,AFNE01.JPG,AFNE01.JPG,AFNE01.JPG,,,,,0,1,1,7,,,,,,,,,,,,,,,,,,,AFSA13.jpg,AFNE13.jpg,AFNE10.jpg,AFSA12.jpg,AFSA12.jpg,FS,4,num_4,16,num_4,0.550094955135,,,2017_Aug_10_1052,60.0099895108,MAFE4ImagesEEG,001,101242,
AFNE01.JPG,AFNE01.JPG,AFNE01.JPG,AFNE01.JPG,AFNE01.JPG,AFNE01.JPG,,,,,0,2,2,0,,,,,,,,,,,,,,,,,,,AFNE07.jpg,AFSA19.jpg,AFNE10.jpg,AFSA16.jpg,AFNE07.jpg,FN,3,num_8,32,num_4,0.916716301348,,,2017_Aug_10_1052,60.0099895108,MAFE4ImagesEEG,001,101242,
AFNE01.JPG,AFNE01.JPG,AFNE01.JPG,AFNE01.JPG,AFNE01.JPG,AFNE01.JPG,,,,,0,3,3,1,,,,,,,,,,,,,,,,,,,AFNE14.jpg,AFSA11.jpg,AFSA17.jpg,AFNE18.jpg,AFSA17.jpg,FS,4,num_2,32,num_4,1.10011325334,,,2017_Aug_10_1052,60.0099895108,MAFE4ImagesEEG,001,101242,
AFNE01.JPG,AFNE01.JPG,AFNE01.JPG,AFNE01.JPG,AFNE01.JPG,AFNE01.JPG,,,,,0,4,4,3,,,,,,,,,,,,,,,,,,,AFSA10.jpg,AFNE19.jpg,AFSA05.jpg,AFNE12.jpg,AFNE12.jpg,FN,3,num_4,16,num_4,0.90012826398,,,2017_Aug_10_1052,60.0099895108,MAFE4ImagesEEG,001,101242,
AFNE01.JPG,AFNE01.JPG,AFNE01.JPG,AFNE01.JPG,AFNE01.JPG,AFNE01.JPG,,,,,0,5,5,6,,,,,,,,,,,,,,,,,,,AFNE13.jpg,AFSA16.jpg,AFSA02.jpg,AFNE16.jpg,AFSA16.jpg,FS,4,num_6,32,num_2,1.38341209106,,,2017_Aug_10_1052,60.0099895108,MAFE4ImagesEEG,001,101242,
AFNE01.JPG,AFNE01.JPG,AFNE01.JPG,AFNE01.JPG,AFNE01.JPG,AFNE01.JPG,,,,,0,6,6,8,,,,,,,,,,,,,,,,,,,AFNE20.jpg,AFSA03.jpg,AFSA13.jpg,AFNE14.jpg,AFNE14.jpg,FN,3,num_4,16,num_4,1.33341544284,,,2017_Aug_10_1052,60.0099895108,MAFE4ImagesEEG,001,101242,
AFNE01.JPG,AFNE01.JPG,AFNE01.JPG,AFNE01.JPG,AFNE01.JPG,AFNE01.JPG,,,,,0,7,7,5,,,,,,,,,,,,,,,,,,,AFNE08.jpg,AFSA12.jpg,AFSA16.jpg,AFNE19.jpg,AFSA16.jpg,FS,4,num_2,16,num_2,1.03312347294,,,2017_Aug_10_1052,60.0099895108,MAFE4ImagesEEG,001,101242,
AFNE01.JPG,AFNE01.JPG,AFNE01.JPG,AFNE01.JPG,AFNE01.JPG,AFNE01.JPG,,,,,0,8,8,4,,,,,,,,,,,,,,,,,,,AFNE20.jpg,AFNE17.jpg,AFSA16.jpg,AFSA05.jpg,AFSA16.jpg,FS,4,num_2,16,num_2,0.699995413423,,,2017_Aug_10_1052,60.0099895108,MAFE4ImagesEEG,001,101242,
AFNE01.JPG,AFNE01.JPG,AFNE01.JPG,AFNE01.JPG,AFNE01.JPG,AFNE01.JPG,,,,,0,9,9,9,,,,,,,,,,,,,,,,,,,AFSA02.jpg,AFSA11.jpg,AFNE11.jpg,AFNE14.jpg,AFNE14.jpg,FN,3,num_4,16,num_4,1.35007853317,,,2017_Aug_10_1052,60.0099895108,MAFE4ImagesEEG,001,101242,
AFNE01.JPG,AFNE01.JPG,AFNE01.JPG,AFNE01.JPG,AFNE01.JPG,AFNE01.JPG,,,,,1,0,10,1,,,,,,,,,,,,,,,,,,,AFNE12.jpg,AFNE03.jpg,AFSA18.jpg,AFSA08.jpg,AFNE12.jpg,FN,3,num_8,32,num_2,0.650118080666,,,2017_Aug_10_1052,60.0099895108,MAFE4ImagesEEG,001,101242,
AFNE01.JPG,AFNE01.JPG,AFNE01.JPG,AFNE01.JPG,AFNE01.JPG,AFNE01.JPG,,,,,1,1,11,3,,,,,,,,,,,,,,,,,,,AFSA20.jpg,AFNE14.jpg,AFSA17.jpg,AFNE12.jpg,AFSA17.jpg,FS,4,num_2,16,num_2,0.96672000573,,,2017_Aug_10_1052,60.0099895108,MAFE4ImagesEEG,001,101242,
AFNE01.JPG,AFNE01.JPG,AFNE01.JPG,AFNE01.JPG,AFNE01.JPG,AFNE01.JPG,,,,,1,2,12,9,,,,,,,,,,,,,,,,,,,AFNE08.jpg,AFNE04.jpg,AFSA15.jpg,AFSA05.jpg,AFSA05.jpg,FS,4,num_4,32,num_6,0.633476158837,,,2017_Aug_10_1052,60.0099895108,MAFE4ImagesEEG,001,101242,
AFNE01.JPG,AFNE01.JPG,AFNE01.JPG,AFNE01.JPG,AFNE01.JPG,AFNE01.JPG,,,,,1,3,13,5,,,,,,,,,,,,,,,,,,,AFNE05.jpg,AFSA12.jpg,AFSA05.jpg,AFNE10.jpg,AFNE10.jpg,FN,3,num_4,32,num_6,0.683494617464,,,2017_Aug_10_1052,60.0099895108,MAFE4ImagesEEG,001,101242,
AFNE01.JPG,AFNE01.JPG,AFNE01.JPG,AFNE01.JPG,AFNE01.JPG,AFNE01.JPG,,,,,1,4,14,0,,,,,,,,,,,,,,,,,,,AFNE11.jpg,AFSA14.jpg,AFSA01.jpg,AFNE05.jpg,AFSA14.jpg,FS,4,num_6,16,num_6,1.78327526338,,,2017_Aug_10_1052,60.0099895108,MAFE4ImagesEEG,001,101242,
AFNE01.JPG,AFNE01.JPG,AFNE01.JPG,AFNE01.JPG,AFNE01.JPG,AFNE01.JPG,,,,,1,5,15,6,,,,,,,,,,,,,,,,,,,AFNE17.jpg,AFNE07.jpg,AFSA07.jpg,AFSA12.jpg,AFSA07.jpg,FS,4,num_2,32,num_4,0.933414993808,,,2017_Aug_10_1052,60.0099895108,MAFE4ImagesEEG,001,101242,
AFNE01.JPG,AFNE01.JPG,AFNE01.JPG,AFNE01.JPG,AFNE01.JPG,AFNE01.JPG,,,,,1,6,16,8,,,,,,,,,,,,,,,,,,,AFNE14.jpg,AFSA14.jpg,AFNE18.jpg,AFSA01.jpg,AFSA14.jpg,FS,4,num_6,32,num_4,1.6333578059,,,2017_Aug_10_1052,60.0099895108,MAFE4ImagesEEG,001,101242,
AFNE01.JPG,AFNE01.JPG,AFNE01.JPG,AFNE01.JPG,AFNE01.JPG,AFNE01.JPG,,,,,1,7,17,2,,,,,,,,,,,,,,,,,,,AFNE05.jpg,AFSA08.jpg,AFNE03.jpg,AFSA10.jpg,AFSA10.jpg,FS,4,num_4,16,num_4,0.566790119512,,,2017_Aug_10_1052,60.0099895108,MAFE4ImagesEEG,001,101242,
AFNE01.JPG,AFNE01.JPG,AFNE01.JPG,AFNE01.JPG,AFNE01.JPG,AFNE01.JPG,,,,,1,8,18,7,,,,,,,,,,,,,,,,,,,AFSA07.jpg,AFSA10.jpg,AFNE16.jpg,AFNE06.jpg,AFNE06.jpg,FN,3,num_4,32,num_2,1.06671907566,,,2017_Aug_10_1052,60.0099895108,MAFE4ImagesEEG,001,101242,
AFNE01.JPG,AFNE01.JPG,AFNE01.JPG,AFNE01.JPG,AFNE01.JPG,AFNE01.JPG,,,,,1,9,19,4,,,,,,,,,,,,,,,,,,,AFNE04.jpg,AFNE08.jpg,AFSA18.jpg,AFSA08.jpg,AFNE04.jpg,FN,3,num_8,16,num_8,0.933509932831,,,2017_Aug_10_1052,60.0099895108,MAFE4ImagesEEG,001,101242,
AFNE01.JPG,AFNE01.JPG,AFNE01.JPG,AFNE01.JPG,AFNE01.JPG,AFNE01.JPG,,,,,2,0,20,3,,,,,,,,,,,,,,,,,,,AFSA07.jpg,AFSA12.jpg,AFNE16.jpg,AFNE19.jpg,AFNE16.jpg,FN,3,num_2,32,num_6,1.55006512627,,,2017_Aug_10_1052,60.0099895108,MAFE4ImagesEEG,001,101242,
AFNE01.JPG,AFNE01.JPG,AFNE01.JPG,AFNE01.JPG,AFNE01.JPG,AFNE01.JPG,,,,,2,1,21,5,,,,,,,,,,,,,,,,,,,AFSA08.jpg,AFSA13.jpg,AFNE17.jpg,AFNE07.jpg,AFNE17.jpg,FN,3,num_2,32,num_6,0.733453418594,,,2017_Aug_10_1052,60.0099895108,MAFE4ImagesEEG,001,101242,
AFNE01.JPG,AFNE01.JPG,AFNE01.JPG,AFNE01.JPG,AFNE01.JPG,AFNE01.JPG,,,,,2,2,22,7,,,,,,,,,,,,,,,,,,,AFNE20.jpg,AFNE04.jpg,AFSA15.jpg,AFSA17.jpg,AFNE20.jpg,FN,3,num_8,32,num_6,0.533456240781,,,2017_Aug_10_1052,60.0099895108,MAFE4ImagesEEG,001,101242,
AFNE01.JPG,AFNE01.JPG,AFNE01.JPG,AFNE01.JPG,AFNE01.JPG,AFNE01.JPG,,,,,2,3,23,1,,,,,,,,,,,,,,,,,,,AFNE15.jpg,AFSA02.jpg,AFSA15.jpg,AFNE09.jpg,AFNE15.jpg,FN,3,num_8,32,num_6,0.500055648386,,,2017_Aug_10_1052,60.0099895108,MAFE4ImagesEEG,001,101242,
AFNE01.JPG,AFNE01.JPG,AFNE01.JPG,AFNE01.JPG,AFNE01.JPG,AFNE01.JPG,,,,,2,4,24,9,,,,,,,,,,,,,,,,,,,AFNE10.jpg,AFSA11.jpg,AFNE08.jpg,AFSA19.jpg,AFNE10.jpg,FN,3,num_8,32,num_6,0.666744606569,,,2017_Aug_10_1052,60.0099895108,MAFE4ImagesEEG,001,101242,
AFNE01.JPG,AFNE01.JPG,AFNE01.JPG,AFNE01.JPG,AFNE01.JPG,AFNE01.JPG,,,,,2,5,25,4,,,,,,,,,,,,,,,,,,,AFNE05.jpg,AFSA03.jpg,AFNE02.jpg,AFSA02.jpg,AFSA02.jpg,FS,4,num_4,16,num_4,0.666773793753,,,2017_Aug_10_1052,60.0099895108,MAFE4ImagesEEG,001,101242,
AFNE01.JPG,AFNE01.JPG,AFNE01.JPG,AFNE01.JPG,AFNE01.JPG,AFNE01.JPG,,,,,2,6,26,8,,,,,,,,,,,,,,,,,,,AFNE05.jpg,AFNE11.jpg,AFSA12.jpg,AFSA13.jpg,AFSA13.jpg,FS,4,num_4,16,num_4,0.716807648074,,,2017_Aug_10_1052,60.0099895108,MAFE4ImagesEEG,001,101242,
AFNE01.JPG,AFNE01.JPG,AFNE01.JPG,AFNE01.JPG,AFNE01.JPG,AFNE01.JPG,,,,,2,7,27,2,,,,,,,,,,,,,,,,,,,AFNE09.jpg,AFSA11.jpg,AFSA16.jpg,AFNE02.jpg,AFSA11.jpg,FS,4,num_6,16,num_6,1.08323238045,,,2017_Aug_10_1052,60.0099895108,MAFE4ImagesEEG,001,101242,
AFNE01.JPG,AFNE01.JPG,AFNE01.JPG,AFNE01.JPG,AFNE01.JPG,AFNE01.JPG,,,,,2,8,28,6,,,,,,,,,,,,,,,,,,,AFSA01.jpg,AFSA17.jpg,AFNE01.jpg,AFNE07.jpg,AFSA17.jpg,FS,4,num_6,32,num_2,1.08344310662,,,2017_Aug_10_1052,60.0099895108,MAFE4ImagesEEG,001,101242,
AFNE01.JPG,AFNE01.JPG,AFNE01.JPG,AFNE01.JPG,AFNE01.JPG,AFNE01.JPG,,,,,2,9,29,0,,,,,,,,,,,,,,,,,,,AFNE20.jpg,AFSA06.jpg,AFSA19.jpg,AFNE02.jpg,AFSA06.jpg,FS,4,num_6,32,num_8,1.15012850449,,,2017_Aug_10_1052,60.0099895108,MAFE4ImagesEEG,001,101242,
AFNE01.JPG,AFNE01.JPG,AFNE01.JPG,AFNE01.JPG,AFNE01.JPG,AFNE01.JPG,,,,,3,0,30,4,,,,,,,,,,,,,,,,,,,AFSA06.jpg,AFNE09.jpg,AFNE03.jpg,AFSA10.jpg,AFNE03.jpg,FN,3,num_2,16,num_2,1.76654706267,,,2017_Aug_10_1052,60.0099895108,MAFE4ImagesEEG,001,101242,
AFNE01.JPG,AFNE01.JPG,AFNE01.JPG,AFNE01.JPG,AFNE01.JPG,AFNE01.JPG,,,,,3,1,31,0,,,,,,,,,,,,,,,,,,,AFSA05.jpg,AFNE17.jpg,AFSA06.jpg,AFNE05.jpg,AFNE17.jpg,FN,3,num_6,32,num_4,0.883304482792,,,2017_Aug_10_1052,60.0099895108,MAFE4ImagesEEG,001,101242,
AFNE01.JPG,AFNE01.JPG,AFNE01.JPG,AFNE01.JPG,AFNE01.JPG,AFNE01.JPG,,,,,3,2,32,2,,,,,,,,,,,,,,,,,,,AFSA15.jpg,AFNE10.jpg,AFSA20.jpg,AFNE05.jpg,AFNE10.jpg,FN,3,num_6,32,num_4,0.666751983576,,,2017_Aug_10_1052,60.0099895108,MAFE4ImagesEEG,001,101242,
AFNE01.JPG,AFNE01.JPG,AFNE01.JPG,AFNE01.JPG,AFNE01.JPG,AFNE01.JPG,,,,,3,3,33,8,,,,,,,,,,,,,,,,,,,AFSA03.jpg,AFSA13.jpg,AFNE14.jpg,AFNE09.jpg,AFNE09.jpg,FN,3,num_4,32,num_8,0.70018048049,,,2017_Aug_10_1052,60.0099895108,MAFE4ImagesEEG,001,101242,
AFNE01.JPG,AFNE01.JPG,AFNE01.JPG,AFNE01.JPG,AFNE01.JPG,AFNE01.JPG,,,,,3,4,34,5,,,,,,,,,,,,,,,,,,,AFSA10.jpg,AFSA16.jpg,AFNE02.jpg,AFNE17.jpg,AFNE02.jpg,FN,3,num_2,32,num_4,0.783508441411,,,2017_Aug_10_1052,60.0099895108,MAFE4ImagesEEG,001,101242,
AFNE01.JPG,AFNE01.JPG,AFNE01.JPG,AFNE01.JPG,AFNE01.JPG,AFNE01.JPG,,,,,3,5,35,9,,,,,,,,,,,,,,,,,,,AFNE11.jpg,AFSA13.jpg,AFSA14.jpg,AFNE02.jpg,AFNE11.jpg,FN,3,num_8,32,num_2,0.700362340081,,,2017_Aug_10_1052,60.0099895108,MAFE4ImagesEEG,001,101242,
AFNE01.JPG,AFNE01.JPG,AFNE01.JPG,AFNE01.JPG,AFNE01.JPG,AFNE01.JPG,,,,,3,6,36,6,,,,,,,,,,,,,,,,,,,AFNE08.jpg,AFNE05.jpg,AFSA07.jpg,AFSA12.jpg,AFNE08.jpg,FN,3,num_8,32,num_4,0.633562437957,,,2017_Aug_10_1052,60.0099895108,MAFE4ImagesEEG,001,101242,
AFNE01.JPG,AFNE01.JPG,AFNE01.JPG,AFNE01.JPG,AFNE01.JPG,AFNE01.JPG,,,,,3,7,37,3,,,,,,,,,,,,,,,,,,,AFSA16.jpg,AFSA03.jpg,AFNE10.jpg,AFNE09.jpg,AFSA16.jpg,FS,4,num_8,16,num_8,0.950111441081,,,2017_Aug_10_1052,60.0099895108,MAFE4ImagesEEG,001,101242,
AFNE01.JPG,AFNE01.JPG,AFNE01.JPG,AFNE01.JPG,AFNE01.JPG,AFNE01.JPG,,,,,3,8,38,1,,,,,,,,,,,,,,,,,,,AFSA08.jpg,AFNE18.jpg,AFSA19.jpg,AFNE11.jpg,AFNE18.jpg,FN,3,num_6,16,num_6,0.900114792865,,,2017_Aug_10_1052,60.0099895108,MAFE4ImagesEEG,001,101242,
AFNE01.JPG,AFNE01.JPG,AFNE01.JPG,AFNE01.JPG,AFNE01.JPG,AFNE01.JPG,,,,,3,9,39,7,,,,,,,,,,,,,,,,,,,AFSA16.jpg,AFSA18.jpg,AFNE07.jpg,AFNE17.jpg,AFSA18.jpg,FS,4,num_6,32,num_2,0.683803490363,,,2017_Aug_10_1052,60.0099895108,MAFE4ImagesEEG,001,101242,
AFNE01.JPG,AFNE01.JPG,AFNE01.JPG,AFNE01.JPG,AFNE01.JPG,AFNE01.JPG,,,,,4,0,40,3,,,,,,,,,,,,,,,,,,,AFNE01.jpg,AFSA05.jpg,AFNE06.jpg,AFSA17.jpg,AFSA05.jpg,FS,4,num_6,32,num_4,0.533447901718,,,2017_Aug_10_1052,60.0099895108,MAFE4ImagesEEG,001,101242,
AFNE01.JPG,AFNE01.JPG,AFNE01.JPG,AFNE01.JPG,AFNE01.JPG,AFNE01.JPG,,,,,4,1,41,2,,,,,,,,,,,,,,,,,,,AFNE09.jpg,AFSA01.jpg,AFSA17.jpg,AFNE04.jpg,AFNE04.jpg,FN,3,num_4,16,num_4,0.783422162291,,,2017_Aug_10_1052,60.0099895108,MAFE4ImagesEEG,001,101242,
AFNE01.JPG,AFNE01.JPG,AFNE01.JPG,AFNE01.JPG,AFNE01.JPG,AFNE01.JPG,,,,,4,2,42,9,,,,,,,,,,,,,,,,,,,AFNE13.jpg,AFSA04.jpg,AFSA20.jpg,AFNE10.jpg,AFNE13.jpg,FN,3,num_8,32,num_4,0.683472807053,,,2017_Aug_10_1052,60.0099895108,MAFE4ImagesEEG,001,101242,
AFNE01.JPG,AFNE01.JPG,AFNE01.JPG,AFNE01.JPG,AFNE01.JPG,AFNE01.JPG,,,,,4,3,43,7,,,,,,,,,,,,,,,,,,,AFSA17.jpg,AFNE14.jpg,AFSA18.jpg,AFNE08.jpg,AFSA17.jpg,FS,4,num_8,16,num_8,1.6000595293,,,2017_Aug_10_1052,60.0099895108,MAFE4ImagesEEG,001,101242,
AFNE01.JPG,AFNE01.JPG,AFNE01.JPG,AFNE01.JPG,AFNE01.JPG,AFNE01.JPG,,,,,4,4,44,8,,,,,,,,,,,,,,,,,,,AFSA15.jpg,AFNE14.jpg,AFSA17.jpg,AFNE07.jpg,AFSA17.jpg,FS,4,num_2,32,num_8,0.333482798422,,,2017_Aug_10_1052,60.0099895108,MAFE4ImagesEEG,001,101242,
AFNE01.JPG,AFNE01.JPG,AFNE01.JPG,AFNE01.JPG,AFNE01.JPG,AFNE01.JPG,,,,,4,5,45,5,,,,,,,,,,,,,,,,,,,AFSA14.jpg,AFSA03.jpg,AFNE04.jpg,AFNE18.jpg,AFNE18.jpg,FN,3,num_4,32,num_8,0.81676277658,,,2017_Aug_10_1052,60.0099895108,MAFE4ImagesEEG,001,101242,
AFNE01.JPG,AFNE01.JPG,AFNE01.JPG,AFNE01.JPG,AFNE01.JPG,AFNE01.JPG,,,,,4,6,46,6,,,,,,,,,,,,,,,,,,,AFSA15.jpg,AFNE10.jpg,AFNE01.jpg,AFSA17.jpg,AFNE01.jpg,FN,3,num_2,16,num_2,1.30012710928,,,2017_Aug_10_1052,60.0099895108,MAFE4ImagesEEG,001,101242,
AFNE01.JPG,AFNE01.JPG,AFNE01.JPG,AFNE01.JPG,AFNE01.JPG,AFNE01.JPG,,,,,4,7,47,0,,,,,,,,,,,,,,,,,,,AFSA02.jpg,AFSA15.jpg,AFNE02.jpg,AFNE05.jpg,AFSA02.jpg,FS,4,num_8,32,num_4,1.06643874873,,,2017_Aug_10_1052,60.0099895108,MAFE4ImagesEEG,001,101242,
AFNE01.JPG,AFNE01.JPG,AFNE01.JPG,AFNE01.JPG,AFNE01.JPG,AFNE01.JPG,,,,,4,8,48,1,,,,,,,,,,,,,,,,,,,AFSA06.jpg,AFNE04.jpg,AFSA10.jpg,AFNE17.jpg,AFSA10.jpg,FS,4,num_2,16,num_2,0.716781347292,,,2017_Aug_10_1052,60.0099895108,MAFE4ImagesEEG,001,101242,
AFNE01.JPG,AFNE01.JPG,AFNE01.JPG,AFNE01.JPG,AFNE01.JPG,AFNE01.JPG,,,,,4,9,49,4,,,,,,,,,,,,,,,,,,,AFSA10.jpg,AFSA13.jpg,AFNE03.jpg,AFNE14.jpg,AFSA10.jpg,FS,4,num_8,16,num_8,0.983451413689,,,2017_Aug_10_1052,60.0099895108,MAFE4ImagesEEG,001,101242,
AFNE01.JPG,AFNE01.JPG,AFNE01.JPG,AFNE01.JPG,AFNE01.JPG,AFNE01.JPG,,,,,5,0,50,2,,,,,,,,,,,,,,,,,,,AFSA06.jpg,AFSA12.jpg,AFNE14.jpg,AFNE08.jpg,AFSA12.jpg,FS,4,num_6,16,num_6,1.23342920258,,,2017_Aug_10_1052,60.0099895108,MAFE4ImagesEEG,001,101242,
AFNE01.JPG,AFNE01.JPG,AFNE01.JPG,AFNE01.JPG,AFNE01.JPG,AFNE01.JPG,,,,,5,1,51,3,,,,,,,,,,,,,,,,,,,AFSA01.jpg,AFNE14.jpg,AFNE19.jpg,AFSA13.jpg,AFSA01.jpg,FS,4,num_8,16,num_8,0.850149577251,,,2017_Aug_10_1052,60.0099895108,MAFE4ImagesEEG,001,101242,
AFNE01.JPG,AFNE01.JPG,AFNE01.JPG,AFNE01.JPG,AFNE01.JPG,AFNE01.JPG,,,,,5,2,52,8,,,,,,,,,,,,,,,,,,,AFSA19.jpg,AFNE02.jpg,AFSA05.jpg,AFNE15.jpg,AFNE02.jpg,FN,3,num_6,32,num_4,0.91675222409,,,2017_Aug_10_1052,60.0099895108,MAFE4ImagesEEG,001,101242,
AFNE01.JPG,AFNE01.JPG,AFNE01.JPG,AFNE01.JPG,AFNE01.JPG,AFNE01.JPG,,,,,5,3,53,5,,,,,,,,,,,,,,,,,,,AFNE11.jpg,AFNE12.jpg,AFSA16.jpg,AFSA20.jpg,AFNE12.jpg,FN,3,num_6,32,num_8,1.26672876184,,,2017_Aug_10_1052,60.0099895108,MAFE4ImagesEEG,001,101242,
AFNE01.JPG,AFNE01.JPG,AFNE01.JPG,AFNE01.JPG,AFNE01.JPG,AFNE01.JPG,,,,,5,4,54,0,,,,,,,,,,,,,,,,,,,AFNE05.jpg,AFNE09.jpg,AFSA04.jpg,AFSA20.jpg,AFNE05.jpg,FN,3,num_8,16,num_8,0.56674265,,,2017_Aug_10_1052,60.0099895108,MAFE4ImagesEEG,001,101242,
AFNE01.JPG,AFNE01.JPG,AFNE01.JPG,AFNE01.JPG,AFNE01.JPG,AFNE01.JPG,,,,,5,5,55,4,,,,,,,,,,,,,,,,,,,AFSA14.jpg,AFNE10.jpg,AFSA01.jpg,AFNE08.jpg,AFSA01.jpg,FS,4,num_2,32,num_8,1.86673857667,,,2017_Aug_10_1052,60.0099895108,MAFE4ImagesEEG,001,101242,
AFNE01.JPG,AFNE01.JPG,AFNE01.JPG,AFNE01.JPG,AFNE01.JPG,AFNE01.JPG,,,,,5,6,56,9,,,,,,,,,,,,,,,,,,,AFNE15.jpg,AFNE07.jpg,AFSA10.jpg,AFSA18.jpg,AFNE07.jpg,FN,3,num_6,16,num_6,2.13341088826,,,2017_Aug_10_1052,60.0099895108,MAFE4ImagesEEG,001,101242,
AFNE01.JPG,AFNE01.JPG,AFNE01.JPG,AFNE01.JPG,AFNE01.JPG,AFNE01.JPG,,,,,5,7,57,1,,,,,,,,,,,,,,,,,,,AFNE20.jpg,AFNE16.jpg,AFSA17.jpg,AFSA19.jpg,AFSA17.jpg,FS,4,num_2,32,num_8,2.66661695181,,,2017_Aug_10_1052,60.0099895108,MAFE4ImagesEEG,001,101242,
AFNE01.JPG,AFNE01.JPG,AFNE01.JPG,AFNE01.JPG,AFNE01.JPG,AFNE01.JPG,,,,,5,8,58,6,,,,,,,,,,,,,,,,,,,AFSA17.jpg,AFSA19.jpg,AFNE03.jpg,AFNE04.jpg,AFNE04.jpg,FN,3,num_4,32,num_8,0.483501609415,,,2017_Aug_10_1052,60.0099895108,MAFE4ImagesEEG,001,101242,
AFNE01.JPG,AFNE01.JPG,AFNE01.JPG,AFNE01.JPG,AFNE01.JPG,AFNE01.JPG,,,,,5,9,59,7,,,,,,,,,,,,,,,,,,,AFSA06.jpg,AFSA20.jpg,AFNE03.jpg,AFNE08.jpg,AFNE03.jpg,FN,3,num_2,32,num_8,0.0334887958597,,,2017_Aug_10_1052,60.0099895108,MAFE4ImagesEEG,001,101242,
,,,,,,,,,,,,,,,,,,,,,,,,,,,,,,,,,,,,,,,,,,,space,12.0494959729,2017_Aug_10_1052,60.0099895108,MAFE4ImagesEEG,001,101242,
AFNE01.JPG,AFNE01.JPG,AFNE01.JPG,AFNE01.JPG,AFNE01.JPG,AFNE01.JPG,,,,,,,,,0,0,0,5,,,,,,,,,,,,,,,AMSA09.jpg,AMSA13.jpg,AMNE07.jpg,AMNE19.jpg,AMNE07.jpg,MN,1,num_2,16,num_2,1.33343308349,,,2017_Aug_10_1052,60.0099895108,MAFE4ImagesEEG,001,101242,
AFNE01.JPG,AFNE01.JPG,AFNE01.JPG,AFNE01.JPG,AFNE01.JPG,AFNE01.JPG,,,,,,,,,0,1,1,8,,,,,,,,,,,,,,,AMSA02.jpg,AMNE20.jpg,AMNE11.jpg,AMSA20.jpg,AMSA20.jpg,MS,2,num_4,32,num_2,0.80011700606,,,2017_Aug_10_1052,60.0099895108,MAFE4ImagesEEG,001,101242,
AFNE01.JPG,AFNE01.JPG,AFNE01.JPG,AFNE01.JPG,AFNE01.JPG,AFNE01.JPG,,,,,,,,,0,2,2,7,,,,,,,,,,,,,,,AMNE20.jpg,AMSA14.jpg,AMNE03.jpg,AMSA01.jpg,AMSA14.jpg,MS,2,num_6,32,num_4,0.96676811669,,,2017_Aug_10_1052,60.0099895108,MAFE4ImagesEEG,001,101242,
AFNE01.JPG,AFNE01.JPG,AFNE01.JPG,AFNE01.JPG,AFNE01.JPG,AFNE01.JPG,,,,,,,,,0,3,3,1,,,,,,,,,,,,,,,AMSA04.jpg,AMNE18.jpg,AMNE11.jpg,AMSA01.jpg,AMNE11.jpg,MN,1,num_2,32,num_8,0.733494152548,,,2017_Aug_10_1052,60.0099895108,MAFE4ImagesEEG,001,101242,
AFNE01.JPG,AFNE01.JPG,AFNE01.JPG,AFNE01.JPG,AFNE01.JPG,AFNE01.JPG,,,,,,,,,0,4,4,9,,,,,,,,,,,,,,,AMNE05.jpg,AMSA20.jpg,AMSA08.jpg,AMNE08.jpg,AMNE05.jpg,MN,1,num_8,16,num_8,0.466821840731,,,2017_Aug_10_1052,60.0099895108,MAFE4ImagesEEG,001,101242,
AFNE01.JPG,AFNE01.JPG,AFNE01.JPG,AFNE01.JPG,AFNE01.JPG,AFNE01.JPG,,,,,,,,,0,5,5,4,,,,,,,,,,,,,,,AMSA08.jpg,AMNE09.jpg,AMNE15.jpg,AMSA18.jpg,AMNE15.jpg,MN,1,num_2,32,num_4,0.633500535041,,,2017_Aug_10_1052,60.0099895108,MAFE4ImagesEEG,001,101242,
AFNE01.JPG,AFNE01.JPG,AFNE01.JPG,AFNE01.JPG,AFNE01.JPG,AFNE01.JPG,,,,,,,,,0,6,6,2,,,,,,,,,,,,,,,AMNE13.jpg,AMSA14.jpg,AMNE03.jpg,AMSA10.jpg,AMNE13.jpg,MN,1,num_8,16,num_8,0.716781667899,,,2017_Aug_10_1052,60.0099895108,MAFE4ImagesEEG,001,101242,
AFNE01.JPG,AFNE01.JPG,AFNE01.JPG,AFNE01.JPG,AFNE01.JPG,AFNE01.JPG,,,,,,,,,0,7,7,3,,,,,,,,,,,,,,,AMNE03.jpg,AMSA03.jpg,AMSA20.jpg,AMNE09.jpg,AMSA20.jpg,MS,2,num_2,32,num_6,0.666878355201,,,2017_Aug_10_1052,60.0099895108,MAFE4ImagesEEG,001,101242,
AFNE01.JPG,AFNE01.JPG,AFNE01.JPG,AFNE01.JPG,AFNE01.JPG,AFNE01.JPG,,,,,,,,,0,8,8,6,,,,,,,,,,,,,,,AMNE05.jpg,AMSA17.jpg,AMSA02.jpg,AMNE16.jpg,AMNE16.jpg,MN,1,num_4,16,num_4,1.03344004368,,,2017_Aug_10_1052,60.0099895108,MAFE4ImagesEEG,001,101242,
AFNE01.JPG,AFNE01.JPG,AFNE01.JPG,AFNE01.JPG,AFNE01.JPG,AFNE01.JPG,,,,,,,,,0,9,9,0,,,,,,,,,,,,,,,AMSA05.jpg,AMNE02.jpg,AMSA01.jpg,AMNE01.jpg,AMNE01.jpg,MN,1,num_4,16,num_4,0.600456605433,,,2017_Aug_10_1052,60.0099895108,MAFE4ImagesEEG,001,101242,
AFNE01.JPG,AFNE01.JPG,AFNE01.JPG,AFNE01.JPG,AFNE01.JPG,AFNE01.JPG,,,,,,,,,1,0,10,6,,,,,,,,,,,,,,,AMNE14.jpg,AMSA08.jpg,AMNE07.jpg,AMSA07.jpg,AMNE14.jpg,MN,1,num_8,16,num_8,0.850161765469,,,2017_Aug_10_1052,60.0099895108,MAFE4ImagesEEG,001,101242,
AFNE01.JPG,AFNE01.JPG,AFNE01.JPG,AFNE01.JPG,AFNE01.JPG,AFNE01.JPG,,,,,,,,,1,1,11,7,,,,,,,,,,,,,,,AMNE09.jpg,AMSA02.jpg,AMNE20.jpg,AMSA10.jpg,AMNE09.jpg,MN,1,num_8,16,num_8,1.31674978649,,,2017_Aug_10_1052,60.0099895108,MAFE4ImagesEEG,001,101242,
AFNE01.JPG,AFNE01.JPG,AFNE01.JPG,AFNE01.JPG,AFNE01.JPG,AFNE01.JPG,,,,,,,,,1,2,12,8,,,,,,,,,,,,,,,AMNE13.jpg,AMSA17.jpg,AMNE08.jpg,AMSA15.jpg,AMNE13.jpg,MN,1,num_8,32,num_6,1.0834880101,,,2017_Aug_10_1052,60.0099895108,MAFE4ImagesEEG,001,101242,
AFNE01.JPG,AFNE01.JPG,AFNE01.JPG,AFNE01.JPG,AFNE01.JPG,AFNE01.JPG,,,,,,,,,1,3,13,3,,,,,,,,,,,,,,,AMSA17.jpg,AMNE08.jpg,AMNE10.jpg,AMSA03.jpg,AMSA17.jpg,MS,2,num_8,32,num_4,0.816741928458,,,2017_Aug_10_1052,60.0099895108,MAFE4ImagesEEG,001,101242,
AFNE01.JPG,AFNE01.JPG,AFNE01.JPG,AFNE01.JPG,AFNE01.JPG,AFNE01.JPG,,,,,,,,,1,4,14,2,,,,,,,,,,,,,,,AMSA14.jpg,AMSA10.jpg,AMNE19.jpg,AMNE20.jpg,AMSA14.jpg,MS,2,num_8,16,num_8,0.500174322166,,,2017_Aug_10_1052,60.0099895108,MAFE4ImagesEEG,001,101242,
AFNE01.JPG,AFNE01.JPG,AFNE01.JPG,AFNE01.JPG,AFNE01.JPG,AFNE01.JPG,,,,,,,,,1,5,15,0,,,,,,,,,,,,,,,AMSA17.jpg,AMNE06.jpg,AMNE13.jpg,AMSA15.jpg,AMNE06.jpg,MN,1,num_6,32,num_4,1.20006998559,,,2017_Aug_10_1052,60.0099895108,MAFE4ImagesEEG,001,101242,
AFNE01.JPG,AFNE01.JPG,AFNE01.JPG,AFNE01.JPG,AFNE01.JPG,AFNE01.JPG,,,,,,,,,1,6,16,1,,,,,,,,,,,,,,,AMNE19.jpg,AMSA10.jpg,AMNE14.jpg,AMSA09.jpg,AMSA09.jpg,MS,2,num_4,32,num_8,1.16672263597,,,2017_Aug_10_1052,60.0099895108,MAFE4ImagesEEG,001,101242,
AFNE01.JPG,AFNE01.JPG,AFNE01.JPG,AFNE01.JPG,AFNE01.JPG,AFNE01.JPG,,,,,,,,,1,7,17,4,,,,,,,,,,,,,,,AMSA12.jpg,AMSA15.jpg,AMNE05.jpg,AMNE07.jpg,AMSA15.jpg,MS,2,num_6,32,num_4,1.11670834688,,,2017_Aug_10_1052,60.0099895108,MAFE4ImagesEEG,001,101242,
AFNE01.JPG,AFNE01.JPG,AFNE01.JPG,AFNE01.JPG,AFNE01.JPG,AFNE01.JPG,,,,,,,,,1,8,18,9,,,,,,,,,,,,,,,AMNE11.jpg,AMSA12.jpg,AMSA02.jpg,AMNE16.jpg,AMNE11.jpg,MN,1,num_8,32,num_4,0.950079046423,,,2017_Aug_10_1052,60.0099895108,MAFE4ImagesEEG,001,101242,
AFNE01.JPG,AFNE01.JPG,AFNE01.JPG,AFNE01.JPG,AFNE01.JPG,AFNE01.JPG,,,,,,,,,1,9,19,5,,,,,,,,,,,,,,,AMNE14.jpg,AMNE07.jpg,AMSA12.jpg,AMSA02.jpg,AMNE14.jpg,MN,1,num_8,16,num_8,1.01675450127,,,2017_Aug_10_1052,60.0099895108,MAFE4ImagesEEG,001,101242,
AFNE01.JPG,AFNE01.JPG,AFNE01.JPG,AFNE01.JPG,AFNE01.JPG,AFNE01.JPG,,,,,,,,,2,0,20,2,,,,,,,,,,,,,,,AMNE18.jpg,AMSA16.jpg,AMSA18.jpg,AMNE19.jpg,AMSA16.jpg,MS,2,num_6,32,num_8,1.15013844753,,,2017_Aug_10_1052,60.0099895108,MAFE4ImagesEEG,001,101242,
AFNE01.JPG,AFNE01.JPG,AFNE01.JPG,AFNE01.JPG,AFNE01.JPG,AFNE01.JPG,,,,,,,,,2,1,21,0,,,,,,,,,,,,,,,AMSA16.jpg,AMSA01.jpg,AMNE20.jpg,AMNE12.jpg,AMSA01.jpg,MS,2,num_6,32,num_8,0.883461966179,,,2017_Aug_10_1052,60.0099895108,MAFE4ImagesEEG,001,101242,
AFNE01.JPG,AFNE01.JPG,AFNE01.JPG,AFNE01.JPG,AFNE01.JPG,AFNE01.JPG,,,,,,,,,2,2,22,9,,,,,,,,,,,,,,,AMSA18.jpg,AMSA07.jpg,AMNE07.jpg,AMNE17.jpg,AMSA18.jpg,MS,2,num_8,16,num_8,0.500133908819,,,2017_Aug_10_1052,60.0099895108,MAFE4ImagesEEG,001,101242,
AFNE01.JPG,AFNE01.JPG,AFNE01.JPG,AFNE01.JPG,AFNE01.JPG,AFNE01.JPG,,,,,,,,,2,3,23,8,,,,,,,,,,,,,,,AMNE01.jpg,AMSA01.jpg,AMSA06.jpg,AMNE04.jpg,AMSA06.jpg,MS,2,num_2,16,num_2,0.800093271071,,,2017_Aug_10_1052,60.0099895108,MAFE4ImagesEEG,001,101242,
AFNE01.JPG,AFNE01.JPG,AFNE01.JPG,AFNE01.JPG,AFNE01.JPG,AFNE01.JPG,,,,,,,,,2,4,24,1,,,,,,,,,,,,,,,AMSA09.jpg,AMNE12.jpg,AMNE06.jpg,AMSA10.jpg,AMNE12.jpg,MN,1,num_6,16,num_6,1.15012465557,,,2017_Aug_10_1052,60.0099895108,MAFE4ImagesEEG,001,101242,
AFNE01.JPG,AFNE01.JPG,AFNE01.JPG,AFNE01.JPG,AFNE01.JPG,AFNE01.JPG,,,,,,,,,2,5,25,7,,,,,,,,,,,,,,,AMSA12.jpg,AMSA01.jpg,AMNE14.jpg,AMNE20.jpg,AMNE14.jpg,MN,1,num_2,32,num_4,0.600128809223,,,2017_Aug_10_1052,60.0099895108,MAFE4ImagesEEG,001,101242,
AFNE01.JPG,AFNE01.JPG,AFNE01.JPG,AFNE01.JPG,AFNE01.JPG,AFNE01.JPG,,,,,,,,,2,6,26,4,,,,,,,,,,,,,,,AMSA12.jpg,AMSA18.jpg,AMNE06.jpg,AMNE14.jpg,AMNE14.jpg,MN,1,num_4,32,num_8,0.700105106458,,,2017_Aug_10_1052,60.0099895108,MAFE4ImagesEEG,001,101242,
AFNE01.JPG,AFNE01.JPG,AFNE01.JPG,AFNE01.JPG,AFNE01.JPG,AFNE01.JPG,,,,,,,,,2,7,27,3,,,,,,,,,,,,,,,AMNE19.jpg,AMSA10.jpg,AMNE01.jpg,AMSA17.jpg,AMNE01.jpg,MN,1,num_2,32,num_8,0.966786399018,,,2017_Aug_10_1052,60.0099895108,MAFE4ImagesEEG,001,101242,
AFNE01.JPG,AFNE01.JPG,AFNE01.JPG,AFNE01.JPG,AFNE01.JPG,AFNE01.JPG,,,,,,,,,2,8,28,5,,,,,,,,,,,,,,,AMNE01.jpg,AMNE20.jpg,AMSA20.jpg,AMSA04.jpg,AMNE20.jpg,MN,1,num_6,32,num_4,0.633396936115,,,2017_Aug_10_1052,60.0099895108,MAFE4ImagesEEG,001,101242,
AFNE01.JPG,AFNE01.JPG,AFNE01.JPG,AFNE01.JPG,AFNE01.JPG,AFNE01.JPG,,,,,,,,,2,9,29,6,,,,,,,,,,,,,,,AMSA16.jpg,AMNE19.jpg,AMNE03.jpg,AMSA01.jpg,AMSA01.jpg,MS,2,num_4,16,num_4,0.850101145217,,,2017_Aug_10_1052,60.0099895108,MAFE4ImagesEEG,001,101242,
AFNE01.JPG,AFNE01.JPG,AFNE01.JPG,AFNE01.JPG,AFNE01.JPG,AFNE01.JPG,,,,,,,,,3,0,30,9,,,,,,,,,,,,,,,AMSA18.jpg,AMSA04.jpg,AMNE04.jpg,AMNE20.jpg,AMNE20.jpg,MN,1,num_4,16,num_4,0.350162887946,,,2017_Aug_10_1052,60.0099895108,MAFE4ImagesEEG,001,101242,
AFNE01.JPG,AFNE01.JPG,AFNE01.JPG,AFNE01.JPG,AFNE01.JPG,AFNE01.JPG,,,,,,,,,3,1,31,3,,,,,,,,,,,,,,,AMSA02.jpg,AMNE12.jpg,AMNE07.jpg,AMSA09.jpg,AMSA02.jpg,MS,2,num_8,16,num_8,1.33340197173,,,2017_Aug_10_1052,60.0099895108,MAFE4ImagesEEG,001,101242,
AFNE01.JPG,AFNE01.JPG,AFNE01.JPG,AFNE01.JPG,AFNE01.JPG,AFNE01.JPG,,,,,,,,,3,2,32,4,,,,,,,,,,,,,,,AMNE10.jpg,AMSA08.jpg,AMSA10.jpg,AMNE05.jpg,AMSA08.jpg,MS,2,num_6,32,num_2,0.483604887966,,,2017_Aug_10_1052,60.0099895108,MAFE4ImagesEEG,001,101242,
AFNE01.JPG,AFNE01.JPG,AFNE01.JPG,AFNE01.JPG,AFNE01.JPG,AFNE01.JPG,,,,,,,,,3,3,33,6,,,,,,,,,,,,,,,AMSA17.jpg,AMNE06.jpg,AMSA04.jpg,AMNE15.jpg,AMSA17.jpg,MS,2,num_8,16,num_8,0.633473593043,,,2017_Aug_10_1052,60.0099895108,MAFE4ImagesEEG,001,101242,
AFNE01.JPG,AFNE01.JPG,AFNE01.JPG,AFNE01.JPG,AFNE01.JPG,AFNE01.JPG,,,,,,,,,3,4,34,1,,,,,,,,,,,,,,,AMNE10.jpg,AMSA09.jpg,AMSA14.jpg,AMNE20.jpg,AMSA09.jpg,MS,2,num_6,32,num_4,1.05017433828,,,2017_Aug_10_1052,60.0099895108,MAFE4ImagesEEG,001,101242,
AFNE01.JPG,AFNE01.JPG,AFNE01.JPG,AFNE01.JPG,AFNE01.JPG,AFNE01.JPG,,,,,,,,,3,5,35,8,,,,,,,,,,,,,,,AMNE07.jpg,AMSA04.jpg,AMSA06.jpg,AMNE14.jpg,AMNE14.jpg,MN,1,num_4,32,num_6,0.800118288957,,,2017_Aug_10_1052,60.0099895108,MAFE4ImagesEEG,001,101242,
AFNE01.JPG,AFNE01.JPG,AFNE01.JPG,AFNE01.JPG,AFNE01.JPG,AFNE01.JPG,,,,,,,,,3,6,36,5,,,,,,,,,,,,,,,AMSA01.jpg,AMSA14.jpg,AMNE15.jpg,AMNE20.jpg,AMSA01.jpg,MS,2,num_8,32,num_6,1.08350821701,,,2017_Aug_10_1052,60.0099895108,MAFE4ImagesEEG,001,101242,
AFNE01.JPG,AFNE01.JPG,AFNE01.JPG,AFNE01.JPG,AFNE01.JPG,AFNE01.JPG,,,,,,,,,3,7,37,7,,,,,,,,,,,,,,,AMSA09.jpg,AMSA05.jpg,AMNE07.jpg,AMNE06.jpg,AMSA05.jpg,MS,2,num_6,32,num_2,1.23346544616,,,2017_Aug_10_1052,60.0099895108,MAFE4ImagesEEG,001,101242,
AFNE01.JPG,AFNE01.JPG,AFNE01.JPG,AFNE01.JPG,AFNE01.JPG,AFNE01.JPG,,,,,,,,,3,8,38,0,,,,,,,,,,,,,,,AMSA12.jpg,AMNE06.jpg,AMNE07.jpg,AMSA20.jpg,AMSA12.jpg,MS,2,num_8,32,num_4,0.816781379282,,,2017_Aug_10_1052,60.0099895108,MAFE4ImagesEEG,001,101242,
AFNE01.JPG,AFNE01.JPG,AFNE01.JPG,AFNE01.JPG,AFNE01.JPG,AFNE01.JPG,,,,,,,,,3,9,39,2,,,,,,,,,,,,,,,AMSA16.jpg,AMNE05.jpg,AMNE08.jpg,AMSA14.jpg,AMNE05.jpg,MN,1,num_6,16,num_6,0.616615492618,,,2017_Aug_10_1052,60.0099895108,MAFE4ImagesEEG,001,101242,
AFNE01.JPG,AFNE01.JPG,AFNE01.JPG,AFNE01.JPG,AFNE01.JPG,AFNE01.JPG,,,,,,,,,4,0,40,4,,,,,,,,,,,,,,,AMNE19.jpg,AMNE09.jpg,AMSA12.jpg,AMSA14.jpg,AMSA12.jpg,MS,2,num_2,32,num_6,0.65010942053,,,2017_Aug_10_1052,60.0099895108,MAFE4ImagesEEG,001,101242,
AFNE01.JPG,AFNE01.JPG,AFNE01.JPG,AFNE01.JPG,AFNE01.JPG,AFNE01.JPG,,,,,,,,,4,1,41,0,,,,,,,,,,,,,,,AMSA10.jpg,AMNE15.jpg,AMSA19.jpg,AMNE13.jpg,AMNE13.jpg,MN,1,num_4,16,num_4,0.71677204594,,,2017_Aug_10_1052,60.0099895108,MAFE4ImagesEEG,001,101242,
AFNE01.JPG,AFNE01.JPG,AFNE01.JPG,AFNE01.JPG,AFNE01.JPG,AFNE01.JPG,,,,,,,,,4,2,42,1,,,,,,,,,,,,,,,AMNE09.jpg,AMSA07.jpg,AMSA15.jpg,AMNE05.jpg,AMNE05.jpg,MN,1,num_4,32,num_6,0.600167939439,,,2017_Aug_10_1052,60.0099895108,MAFE4ImagesEEG,001,101242,
AFNE01.JPG,AFNE01.JPG,AFNE01.JPG,AFNE01.JPG,AFNE01.JPG,AFNE01.JPG,,,,,,,,,4,3,43,5,,,,,,,,,,,,,,,AMNE13.jpg,AMSA19.jpg,AMNE03.jpg,AMSA14.jpg,AMNE03.jpg,MN,1,num_2,32,num_4,0.600123998243,,,2017_Aug_10_1052,60.0099895108,MAFE4ImagesEEG,001,101242,
AFNE01.JPG,AFNE01.JPG,AFNE01.JPG,AFNE01.JPG,AFNE01.JPG,AFNE01.JPG,,,,,,,,,4,4,44,6,,,,,,,,,,,,,,,AMNE09.jpg,AMSA08.jpg,AMNE06.jpg,AMSA01.jpg,AMSA01.jpg,MS,2,num_4,16,num_4,0.883428609231,,,2017_Aug_10_1052,60.0099895108,MAFE4ImagesEEG,001,101242,
AFNE01.JPG,AFNE01.JPG,AFNE01.JPG,AFNE01.JPG,AFNE01.JPG,AFNE01.JPG,,,,,,,,,4,5,45,3,,,,,,,,,,,,,,,AMNE07.jpg,AMSA05.jpg,AMNE01.jpg,AMSA12.jpg,AMNE01.jpg,MN,1,num_2,32,num_4,0.750123885926,,,2017_Aug_10_1052,60.0099895108,MAFE4ImagesEEG,001,101242,
AFNE01.JPG,AFNE01.JPG,AFNE01.JPG,AFNE01.JPG,AFNE01.JPG,AFNE01.JPG,,,,,,,,,4,6,46,9,,,,,,,,,,,,,,,AMSA18.jpg,AMNE20.jpg,AMSA19.jpg,AMNE17.jpg,AMNE20.jpg,MN,1,num_6,32,num_8,0.883439193713,,,2017_Aug_10_1052,60.0099895108,MAFE4ImagesEEG,001,101242,
AFNE01.JPG,AFNE01.JPG,AFNE01.JPG,AFNE01.JPG,AFNE01.JPG,AFNE01.JPG,,,,,,,,,4,7,47,2,,,,,,,,,,,,,,,AMNE12.jpg,AMSA17.jpg,AMNE15.jpg,AMSA02.jpg,AMSA02.jpg,MS,2,num_4,32,num_2,1.23342150473,,,2017_Aug_10_1052,60.0099895108,MAFE4ImagesEEG,001,101242,
AFNE01.JPG,AFNE01.JPG,AFNE01.JPG,AFNE01.JPG,AFNE01.JPG,AFNE01.JPG,,,,,,,,,4,8,48,8,,,,,,,,,,,,,,,AMNE12.jpg,AMSA12.jpg,AMNE14.jpg,AMSA04.jpg,AMNE14.jpg,MN,1,num_2,32,num_8,0.600110206287,,,2017_Aug_10_1052,60.0099895108,MAFE4ImagesEEG,001,101242,
AFNE01.JPG,AFNE01.JPG,AFNE01.JPG,AFNE01.JPG,AFNE01.JPG,AFNE01.JPG,,,,,,,,,4,9,49,7,,,,,,,,,,,,,,,AMNE03.jpg,AMSA04.jpg,AMNE18.jpg,AMSA02.jpg,AMNE03.jpg,MN,1,num_8,32,num_6,0.683482750319,,,2017_Aug_10_1052,60.0099895108,MAFE4ImagesEEG,001,101242,
AFNE01.JPG,AFNE01.JPG,AFNE01.JPG,AFNE01.JPG,AFNE01.JPG,AFNE01.JPG,,,,,,,,,5,0,50,4,,,,,,,,,,,,,,,AMSA09.jpg,AMNE17.jpg,AMSA10.jpg,AMNE05.jpg,AMNE17.jpg,MN,1,num_6,32,num_4,0.666780529311,,,2017_Aug_10_1052,60.0099895108,MAFE4ImagesEEG,001,101242,
AFNE01.JPG,AFNE01.JPG,AFNE01.JPG,AFNE01.JPG,AFNE01.JPG,AFNE01.JPG,,,,,,,,,5,1,51,9,,,,,,,,,,,,,,,AMSA10.jpg,AMSA11.jpg,AMNE17.jpg,AMNE14.jpg,AMNE14.jpg,MN,1,num_4,16,num_4,0.550115803257,,,2017_Aug_10_1052,60.0099895108,MAFE4ImagesEEG,001,101242,
AFNE01.JPG,AFNE01.JPG,AFNE01.JPG,AFNE01.JPG,AFNE01.JPG,AFNE01.JPG,,,,,,,,,5,2,52,2,,,,,,,,,,,,,,,AMSA04.jpg,AMSA06.jpg,AMNE12.jpg,AMNE08.jpg,AMSA04.jpg,MS,2,num_8,16,num_8,1.56627629395,,,2017_Aug_10_1052,60.0099895108,MAFE4ImagesEEG,001,101242,
AFNE01.JPG,AFNE01.JPG,AFNE01.JPG,AFNE01.JPG,AFNE01.JPG,AFNE01.JPG,,,,,,,,,5,3,53,6,,,,,,,,,,,,,,,AMSA04.jpg,AMSA17.jpg,AMNE11.jpg,AMNE08.jpg,AMSA04.jpg,MS,2,num_8,32,num_2,1.06666775723,,,2017_Aug_10_1052,60.0099895108,MAFE4ImagesEEG,001,101242,
AFNE01.JPG,AFNE01.JPG,AFNE01.JPG,AFNE01.JPG,AFNE01.JPG,AFNE01.JPG,,,,,,,,,5,4,54,8,,,,,,,,,,,,,,,AMNE02.jpg,AMSA12.jpg,AMNE09.jpg,AMSA09.jpg,AMSA09.jpg,MS,2,num_4,16,num_4,0.700127879158,,,2017_Aug_10_1052,60.0099895108,MAFE4ImagesEEG,001,101242,
AFNE01.JPG,AFNE01.JPG,AFNE01.JPG,AFNE01.JPG,AFNE01.JPG,AFNE01.JPG,,,,,,,,,5,5,55,0,,,,,,,,,,,,,,,AMSA04.jpg,AMNE11.jpg,AMSA10.jpg,AMNE03.jpg,AMNE03.jpg,MN,1,num_4,32,num_8,0.40014991397,,,2017_Aug_10_1052,60.0099895108,MAFE4ImagesEEG,001,101242,
AFNE01.JPG,AFNE01.JPG,AFNE01.JPG,AFNE01.JPG,AFNE01.JPG,AFNE01.JPG,,,,,,,,,5,6,56,1,,,,,,,,,,,,,,,AMSA11.jpg,AMNE13.jpg,AMNE16.jpg,AMSA07.jpg,AMSA07.jpg,MS,2,num_4,32,num_2,0.716748631792,,,2017_Aug_10_1052,60.0099895108,MAFE4ImagesEEG,001,101242,
AFNE01.JPG,AFNE01.JPG,AFNE01.JPG,AFNE01.JPG,AFNE01.JPG,AFNE01.JPG,,,,,,,,,5,7,57,5,,,,,,,,,,,,,,,AMNE14.jpg,AMSA10.jpg,AMNE08.jpg,AMSA08.jpg,AMSA08.jpg,MS,2,num_4,32,num_2,1.36671756813,,,2017_Aug_10_1052,60.0099895108,MAFE4ImagesEEG,001,101242,
AFNE01.JPG,AFNE01.JPG,AFNE01.JPG,AFNE01.JPG,AFNE01.JPG,AFNE01.JPG,,,,,,,,,5,8,58,7,,,,,,,,,,,,,,,AMSA06.jpg,AMSA16.jpg,AMNE01.jpg,AMNE09.jpg,AMSA16.jpg,MS,2,num_6,32,num_2,1.23343016463,,,2017_Aug_10_1052,60.0099895108,MAFE4ImagesEEG,001,101242,
AFNE01.JPG,AFNE01.JPG,AFNE01.JPG,AFNE01.JPG,AFNE01.JPG,AFNE01.JPG,,,,,,,,,5,9,59,3,,,,,,,,,,,,,,,AMNE03.jpg,AMSA02.jpg,AMSA16.jpg,AMNE10.jpg,AMSA02.jpg,MS,2,num_6,32,num_4,0.966783832991,,,2017_Aug_10_1052,60.0099895108,MAFE4ImagesEEG,001,101242,
,,,,,,,,,,,,,,,,,,,,,,,,,,,,,,,,,,,,,,,,,,,space,6.93298712629,2017_Aug_10_1052,60.0099895108,MAFE4ImagesEEG,001,101242,
AFNE01.JPG,AFNE01.JPG,AFNE01.JPG,AFNE01.JPG,AFNE01.JPG,AFNE01.JPG,,,,,,,,,,,,,0,0,0,4,,,,,,,,,,,AFNE10.jpg,AFSA06.jpg,AFSA14.jpg,AFNE03.jpg,AFSA06.jpg,FS,4,num_6,32,num_8,0.883478965377,,,2017_Aug_10_1052,60.0099895108,MAFE4ImagesEEG,001,101242,
AFNE01.JPG,AFNE01.JPG,AFNE01.JPG,AFNE01.JPG,AFNE01.JPG,AFNE01.JPG,,,,,,,,,,,,,0,1,1,1,,,,,,,,,,,AFNE08.jpg,AFNE18.jpg,AFSA08.jpg,AFSA09.jpg,AFNE18.jpg,FN,3,num_6,32,num_8,1.00010039168,,,2017_Aug_10_1052,60.0099895108,MAFE4ImagesEEG,001,101242,
AFNE01.JPG,AFNE01.JPG,AFNE01.JPG,AFNE01.JPG,AFNE01.JPG,AFNE01.JPG,,,,,,,,,,,,,0,2,2,8,,,,,,,,,,,AFNE17.jpg,AFSA16.jpg,AFSA20.jpg,AFNE05.jpg,AFNE05.jpg,FN,3,num_4,32,num_8,0.81685386668,,,2017_Aug_10_1052,60.0099895108,MAFE4ImagesEEG,001,101242,
AFNE01.JPG,AFNE01.JPG,AFNE01.JPG,AFNE01.JPG,AFNE01.JPG,AFNE01.JPG,,,,,,,,,,,,,0,3,3,3,,,,,,,,,,,AFSA16.jpg,AFNE17.jpg,AFSA09.jpg,AFNE08.jpg,AFNE17.jpg,FN,3,num_6,32,num_2,1.70013365243,,,2017_Aug_10_1052,60.0099895108,MAFE4ImagesEEG,001,101242,
AFNE01.JPG,AFNE01.JPG,AFNE01.JPG,AFNE01.JPG,AFNE01.JPG,AFNE01.JPG,,,,,,,,,,,,,0,4,4,6,,,,,,,,,,,AFNE03.jpg,AFNE15.jpg,AFSA05.jpg,AFSA17.jpg,AFNE15.jpg,FN,3,num_6,16,num_6,1.75023357896,,,2017_Aug_10_1052,60.0099895108,MAFE4ImagesEEG,001,101242,
AFNE01.JPG,AFNE01.JPG,AFNE01.JPG,AFNE01.JPG,AFNE01.JPG,AFNE01.JPG,,,,,,,,,,,,,0,5,5,5,,,,,,,,,,,AFNE18.jpg,AFSA04.jpg,AFSA06.jpg,AFNE17.jpg,AFNE18.jpg,FN,3,num_8,16,num_8,0.916783977533,,,2017_Aug_10_1052,60.0099895108,MAFE4ImagesEEG,001,101242,
AFNE01.JPG,AFNE01.JPG,AFNE01.JPG,AFNE01.JPG,AFNE01.JPG,AFNE01.JPG,,,,,,,,,,,,,0,6,6,9,,,,,,,,,,,AFSA17.jpg,AFSA13.jpg,AFNE17.jpg,AFNE04.jpg,AFNE17.jpg,FN,3,num_2,16,num_2,0.900077586994,,,2017_Aug_10_1052,60.0099895108,MAFE4ImagesEEG,001,101242,
AFNE01.JPG,AFNE01.JPG,AFNE01.JPG,AFNE01.JPG,AFNE01.JPG,AFNE01.JPG,,,,,,,,,,,,,0,7,7,7,,,,,,,,,,,AFSA05.jpg,AFNE13.jpg,AFNE19.jpg,AFSA02.jpg,AFSA05.jpg,FS,4,num_8,16,num_8,1.05024682567,,,2017_Aug_10_1052,60.0099895108,MAFE4ImagesEEG,001,101242,
AFNE01.JPG,AFNE01.JPG,AFNE01.JPG,AFNE01.JPG,AFNE01.JPG,AFNE01.JPG,,,,,,,,,,,,,0,8,8,0,,,,,,,,,,,AFNE05.jpg,AFSA10.jpg,AFSA18.jpg,AFNE11.jpg,AFSA18.jpg,FS,4,num_2,32,num_4,0.999982679961,,,2017_Aug_10_1052,60.0099895108,MAFE4ImagesEEG,001,101242,
AFNE01.JPG,AFNE01.JPG,AFNE01.JPG,AFNE01.JPG,AFNE01.JPG,AFNE01.JPG,,,,,,,,,,,,,0,9,9,2,,,,,,,,,,,AFNE05.jpg,AFSA03.jpg,AFNE17.jpg,AFSA15.jpg,AFNE17.jpg,FN,3,num_2,32,num_4,0.766774146585,,,2017_Aug_10_1052,60.0099895108,MAFE4ImagesEEG,001,101242,
AFNE01.JPG,AFNE01.JPG,AFNE01.JPG,AFNE01.JPG,AFNE01.JPG,AFNE01.JPG,,,,,,,,,,,,,1,0,10,0,,,,,,,,,,,AFNE08.jpg,AFSA01.jpg,AFNE16.jpg,AFSA15.jpg,AFSA15.jpg,FS,4,num_4,32,num_2,1.25006503006,,,2017_Aug_10_1052,60.0099895108,MAFE4ImagesEEG,001,101242,
AFNE01.JPG,AFNE01.JPG,AFNE01.JPG,AFNE01.JPG,AFNE01.JPG,AFNE01.JPG,,,,,,,,,,,,,1,1,11,4,,,,,,,,,,,AFSA12.jpg,AFNE08.jpg,AFSA11.jpg,AFNE10.jpg,AFNE08.jpg,FN,3,num_6,32,num_4,1.35007436364,,,2017_Aug_10_1052,60.0099895108,MAFE4ImagesEEG,001,101242,
AFNE01.JPG,AFNE01.JPG,AFNE01.JPG,AFNE01.JPG,AFNE01.JPG,AFNE01.JPG,,,,,,,,,,,,,1,2,12,3,,,,,,,,,,,AFNE08.jpg,AFNE14.jpg,AFSA08.jpg,AFSA12.jpg,AFSA08.jpg,FS,4,num_2,32,num_4,1.91641159821,,,2017_Aug_10_1052,60.0099895108,MAFE4ImagesEEG,001,101242,
AFNE01.JPG,AFNE01.JPG,AFNE01.JPG,AFNE01.JPG,AFNE01.JPG,AFNE01.JPG,,,,,,,,,,,,,1,3,13,2,,,,,,,,,,,AFSA03.jpg,AFSA04.jpg,AFNE08.jpg,AFNE19.jpg,AFNE08.jpg,FN,3,num_2,32,num_4,1.16676753946,,,2017_Aug_10_1052,60.0099895108,MAFE4ImagesEEG,001,101242,
AFNE01.JPG,AFNE01.JPG,AFNE01.JPG,AFNE01.JPG,AFNE01.JPG,AFNE01.JPG,,,,,,,,,,,,,1,4,14,7,,,,,,,,,,,AFSA16.jpg,AFNE03.jpg,AFSA05.jpg,AFNE09.jpg,AFNE03.jpg,FN,3,num_6,16,num_6,1.35006955266,,,2017_Aug_10_1052,60.0099895108,MAFE4ImagesEEG,001,101242,
AFNE01.JPG,AFNE01.JPG,AFNE01.JPG,AFNE01.JPG,AFNE01.JPG,AFNE01.JPG,,,,,,,,,,,,,1,5,15,9,,,,,,,,,,,AFNE19.jpg,AFNE15.jpg,AFSA18.jpg,AFSA08.jpg,AFNE15.jpg,FN,3,num_6,16,num_6,0.850115258014,,,2017_Aug_10_1052,60.0099895108,MAFE4ImagesEEG,001,101242,
AFNE01.JPG,AFNE01.JPG,AFNE01.JPG,AFNE01.JPG,AFNE01.JPG,AFNE01.JPG,,,,,,,,,,,,,1,6,16,5,,,,,,,,,,,AFNE10.jpg,AFNE08.jpg,AFSA20.jpg,AFSA10.jpg,AFSA10.jpg,FS,4,num_4,32,num_2,0.966764909448,,,2017_Aug_10_1052,60.0099895108,MAFE4ImagesEEG,001,101242,
AFNE01.JPG,AFNE01.JPG,AFNE01.JPG,AFNE01.JPG,AFNE01.JPG,AFNE01.JPG,,,,,,,,,,,,,1,7,17,1,,,,,,,,,,,AFSA06.jpg,AFNE16.jpg,AFNE18.jpg,AFSA17.jpg,AFNE16.jpg,FN,3,num_6,16,num_6,0.716764668701,,,2017_Aug_10_1052,60.0099895108,MAFE4ImagesEEG,001,101242,
AFNE01.JPG,AFNE01.JPG,AFNE01.JPG,AFNE01.JPG,AFNE01.JPG,AFNE01.JPG,,,,,,,,,,,,,1,8,18,6,,,,,,,,,,,AFNE05.jpg,AFNE14.jpg,AFSA08.jpg,AFSA18.jpg,AFSA08.jpg,FS,4,num_2,32,num_4,1.21673564194,,,2017_Aug_10_1052,60.0099895108,MAFE4ImagesEEG,001,101242,
AFNE01.JPG,AFNE01.JPG,AFNE01.JPG,AFNE01.JPG,AFNE01.JPG,AFNE01.JPG,,,,,,,,,,,,,1,9,19,8,,,,,,,,,,,AFSA16.jpg,AFNE19.jpg,AFNE06.jpg,AFSA08.jpg,AFNE06.jpg,FN,3,num_2,32,num_4,0.950109516736,,,2017_Aug_10_1052,60.0099895108,MAFE4ImagesEEG,001,101242,
AFNE01.JPG,AFNE01.JPG,AFNE01.JPG,AFNE01.JPG,AFNE01.JPG,AFNE01.JPG,,,,,,,,,,,,,2,0,20,2,,,,,,,,,,,AFSA12.jpg,AFNE15.jpg,AFSA13.jpg,AFNE09.jpg,AFSA12.jpg,FS,4,num_8,32,num_2,0.616773617454,,,2017_Aug_10_1052,60.0099895108,MAFE4ImagesEEG,001,101242,
AFNE01.JPG,AFNE01.JPG,AFNE01.JPG,AFNE01.JPG,AFNE01.JPG,AFNE01.JPG,,,,,,,,,,,,,2,1,21,9,,,,,,,,,,,AFNE01.jpg,AFSA04.jpg,AFNE14.jpg,AFSA11.jpg,AFNE14.jpg,FN,3,num_2,32,num_4,0.700148406439,,,2017_Aug_10_1052,60.0099895108,MAFE4ImagesEEG,001,101242,
AFNE01.JPG,AFNE01.JPG,AFNE01.JPG,AFNE01.JPG,AFNE01.JPG,AFNE01.JPG,,,,,,,,,,,,,2,2,22,0,,,,,,,,,,,AFSA02.jpg,AFNE06.jpg,AFNE16.jpg,AFSA16.jpg,AFNE06.jpg,FN,3,num_6,32,num_4,1.15006724326,,,2017_Aug_10_1052,60.0099895108,MAFE4ImagesEEG,001,101242,
AFNE01.JPG,AFNE01.JPG,AFNE01.JPG,AFNE01.JPG,AFNE01.JPG,AFNE01.JPG,,,,,,,,,,,,,2,3,23,6,,,,,,,,,,,AFNE11.jpg,AFNE12.jpg,AFSA07.jpg,AFSA11.jpg,AFNE11.jpg,FN,3,num_8,32,num_2,0.883517133538,,,2017_Aug_10_1052,60.0099895108,MAFE4ImagesEEG,001,101242,
AFNE01.JPG,AFNE01.JPG,AFNE01.JPG,AFNE01.JPG,AFNE01.JPG,AFNE01.JPG,,,,,,,,,,,,,2,4,24,3,,,,,,,,,,,AFNE15.jpg,AFNE05.jpg,AFSA15.jpg,AFSA19.jpg,AFSA15.jpg,FS,4,num_2,32,num_8,1.65000934945,,,2017_Aug_10_1052,60.0099895108,MAFE4ImagesEEG,001,101242,
AFNE01.JPG,AFNE01.JPG,AFNE01.JPG,AFNE01.JPG,AFNE01.JPG,AFNE01.JPG,,,,,,,,,,,,,2,5,25,8,,,,,,,,,,,AFNE02.jpg,AFNE05.jpg,AFSA17.jpg,AFSA04.jpg,AFSA17.jpg,FS,4,num_2,32,num_8,0.683497504098,,,2017_Aug_10_1052,60.0099895108,MAFE4ImagesEEG,001,101242,
AFNE01.JPG,AFNE01.JPG,AFNE01.JPG,AFNE01.JPG,AFNE01.JPG,AFNE01.JPG,,,,,,,,,,,,,2,6,26,5,,,,,,,,,,,AFNE12.jpg,AFSA19.jpg,AFNE11.jpg,AFSA01.jpg,AFSA19.jpg,FS,4,num_6,32,num_8,0.733417174779,,,2017_Aug_10_1052,60.0099895108,MAFE4ImagesEEG,001,101242,
AFNE01.JPG,AFNE01.JPG,AFNE01.JPG,AFNE01.JPG,AFNE01.JPG,AFNE01.JPG,,,,,,,,,,,,,2,7,27,4,,,,,,,,,,,AFNE12.jpg,AFSA16.jpg,AFSA12.jpg,AFNE01.jpg,AFSA16.jpg,FS,4,num_6,16,num_6,0.600087754428,,,2017_Aug_10_1052,60.0099895108,MAFE4ImagesEEG,001,101242,
AFNE01.JPG,AFNE01.JPG,AFNE01.JPG,AFNE01.JPG,AFNE01.JPG,AFNE01.JPG,,,,,,,,,,,,,2,8,28,7,,,,,,,,,,,AFNE15.jpg,AFSA17.jpg,AFSA15.jpg,AFNE16.jpg,AFSA17.jpg,FS,4,num_6,32,num_8,1.11673111934,,,2017_Aug_10_1052,60.0099895108,MAFE4ImagesEEG,001,101242,
AFNE01.JPG,AFNE01.JPG,AFNE01.JPG,AFNE01.JPG,AFNE01.JPG,AFNE01.JPG,,,,,,,,,,,,,2,9,29,1,,,,,,,,,,,AFSA08.jpg,AFSA04.jpg,AFNE16.jpg,AFNE13.jpg,AFNE13.jpg,FN,3,num_4,16,num_4,2.36661364837,,,2017_Aug_10_1052,60.0099895108,MAFE4ImagesEEG,001,101242,
AFNE01.JPG,AFNE01.JPG,AFNE01.JPG,AFNE01.JPG,AFNE01.JPG,AFNE01.JPG,,,,,,,,,,,,,3,0,30,4,,,,,,,,,,,AFNE05.jpg,AFNE03.jpg,AFSA20.jpg,AFSA12.jpg,AFNE05.jpg,FN,3,num_8,16,num_8,0.850011979695,,,2017_Aug_10_1052,60.0099895108,MAFE4ImagesEEG,001,101242,
AFNE01.JPG,AFNE01.JPG,AFNE01.JPG,AFNE01.JPG,AFNE01.JPG,AFNE01.JPG,,,,,,,,,,,,,3,1,31,8,,,,,,,,,,,AFSA02.jpg,AFNE06.jpg,AFSA10.jpg,AFNE08.jpg,AFNE08.jpg,FN,3,num_4,32,num_6,1.40009057685,,,2017_Aug_10_1052,60.0099895108,MAFE4ImagesEEG,001,101242,
AFNE01.JPG,AFNE01.JPG,AFNE01.JPG,AFNE01.JPG,AFNE01.JPG,AFNE01.JPG,,,,,,,,,,,,,3,2,32,3,,,,,,,,,,,AFNE10.jpg,AFSA18.jpg,AFNE17.jpg,AFSA15.jpg,AFSA18.jpg,FS,4,num_6,16,num_6,0.933454124024,,,2017_Aug_10_1052,60.0099895108,MAFE4ImagesEEG,001,101242,
AFNE01.JPG,AFNE01.JPG,AFNE01.JPG,AFNE01.JPG,AFNE01.JPG,AFNE01.JPG,,,,,,,,,,,,,3,3,33,1,,,,,,,,,,,AFNE09.jpg,AFSA04.jpg,AFNE16.jpg,AFSA03.jpg,AFNE09.jpg,FN,3,num_8,16,num_8,0.816762455739,,,2017_Aug_10_1052,60.0099895108,MAFE4ImagesEEG,001,101242,
AFNE01.JPG,AFNE01.JPG,AFNE01.JPG,AFNE01.JPG,AFNE01.JPG,AFNE01.JPG,,,,,,,,,,,,,3,4,34,6,,,,,,,,,,,AFSA13.jpg,AFNE01.jpg,AFSA15.jpg,AFNE11.jpg,AFNE01.jpg,FN,3,num_6,32,num_4,1.04983435385,,,2017_Aug_10_1052,60.0099895108,MAFE4ImagesEEG,001,101242,
AFNE01.JPG,AFNE01.JPG,AFNE01.JPG,AFNE01.JPG,AFNE01.JPG,AFNE01.JPG,,,,,,,,,,,,,3,5,35,2,,,,,,,,,,,AFSA19.jpg,AFNE02.jpg,AFSA09.jpg,AFNE05.jpg,AFNE05.jpg,FN,3,num_4,16,num_4,1.38343005255,,,2017_Aug_10_1052,60.0099895108,MAFE4ImagesEEG,001,101242,
AFNE01.JPG,AFNE01.JPG,AFNE01.JPG,AFNE01.JPG,AFNE01.JPG,AFNE01.JPG,,,,,,,,,,,,,3,6,36,0,,,,,,,,,,,AFNE07.jpg,AFSA04.jpg,AFSA01.jpg,AFNE17.jpg,AFSA01.jpg,FS,4,num_2,16,num_2,1.45006349054,,,2017_Aug_10_1052,60.0099895108,MAFE4ImagesEEG,001,101242,
AFNE01.JPG,AFNE01.JPG,AFNE01.JPG,AFNE01.JPG,AFNE01.JPG,AFNE01.JPG,,,,,,,,,,,,,3,7,37,9,,,,,,,,,,,AFSA09.jpg,AFNE15.jpg,AFNE02.jpg,AFSA10.jpg,AFSA10.jpg,FS,4,num_4,16,num_4,1.26671881881,,,2017_Aug_10_1052,60.0099895108,MAFE4ImagesEEG,001,101242,
AFNE01.JPG,AFNE01.JPG,AFNE01.JPG,AFNE01.JPG,AFNE01.JPG,AFNE01.JPG,,,,,,,,,,,,,3,8,38,5,,,,,,,,,,,AFSA13.jpg,AFNE11.jpg,AFSA07.jpg,AFNE15.jpg,AFNE11.jpg,FN,3,num_6,32,num_8,2.69983279821,,,2017_Aug_10_1052,60.0099895108,MAFE4ImagesEEG,001,101242,
AFNE01.JPG,AFNE01.JPG,AFNE01.JPG,AFNE01.JPG,AFNE01.JPG,AFNE01.JPG,,,,,,,,,,,,,3,9,39,7,,,,,,,,,,,AFNE04.jpg,AFSA07.jpg,AFNE15.jpg,AFSA04.jpg,AFSA04.jpg,FS,4,num_4,16,num_4,1.31674561696,,,2017_Aug_10_1052,60.0099895108,MAFE4ImagesEEG,001,101242,
AFNE01.JPG,AFNE01.JPG,AFNE01.JPG,AFNE01.JPG,AFNE01.JPG,AFNE01.JPG,,,,,,,,,,,,,4,0,40,5,,,,,,,,,,,AFSA15.jpg,AFNE18.jpg,AFSA13.jpg,AFNE16.jpg,AFNE16.jpg,FN,3,num_4,16,num_4,1.41672063107,,,2017_Aug_10_1052,60.0099895108,MAFE4ImagesEEG,001,101242,
AFNE01.JPG,AFNE01.JPG,AFNE01.JPG,AFNE01.JPG,AFNE01.JPG,AFNE01.JPG,,,,,,,,,,,,,4,1,41,8,,,,,,,,,,,AFNE11.jpg,AFSA10.jpg,AFNE10.jpg,AFSA06.jpg,AFNE11.jpg,FN,3,num_8,32,num_4,0.900124735897,,,2017_Aug_10_1052,60.0099895108,MAFE4ImagesEEG,001,101242,
AFNE01.JPG,AFNE01.JPG,AFNE01.JPG,AFNE01.JPG,AFNE01.JPG,AFNE01.JPG,,,,,,,,,,,,,4,2,42,4,,,,,,,,,,,AFNE17.jpg,AFSA09.jpg,AFSA03.jpg,AFNE19.jpg,AFSA09.jpg,FS,4,num_6,32,num_4,0.883459079545,,,2017_Aug_10_1052,60.0099895108,MAFE4ImagesEEG,001,101242,
AFNE01.JPG,AFNE01.JPG,AFNE01.JPG,AFNE01.JPG,AFNE01.JPG,AFNE01.JPG,,,,,,,,,,,,,4,3,43,7,,,,,,,,,,,AFNE11.jpg,AFSA06.jpg,AFNE10.jpg,AFSA01.jpg,AFSA06.jpg,FS,4,num_6,32,num_4,0.617115847301,,,2017_Aug_10_1052,60.0099895108,MAFE4ImagesEEG,001,101242,
AFNE01.JPG,AFNE01.JPG,AFNE01.JPG,AFNE01.JPG,AFNE01.JPG,AFNE01.JPG,,,,,,,,,,,,,4,4,44,1,,,,,,,,,,,AFNE17.jpg,AFNE16.jpg,AFSA01.jpg,AFSA06.jpg,AFNE17.jpg,FN,3,num_8,32,num_4,0.650151758222,,,2017_Aug_10_1052,60.0099895108,MAFE4ImagesEEG,001,101242,
AFNE01.JPG,AFNE01.JPG,AFNE01.JPG,AFNE01.JPG,AFNE01.JPG,AFNE01.JPG,,,,,,,,,,,,,4,5,45,0,,,,,,,,,,,AFSA12.jpg,AFNE18.jpg,AFNE07.jpg,AFSA07.jpg,AFSA07.jpg,FS,4,num_4,32,num_2,1.26671304577,,,2017_Aug_10_1052,60.0099895108,MAFE4ImagesEEG,001,101242,
AFNE01.JPG,AFNE01.JPG,AFNE01.JPG,AFNE01.JPG,AFNE01.JPG,AFNE01.JPG,,,,,,,,,,,,,4,6,46,2,,,,,,,,,,,AFSA11.jpg,AFSA12.jpg,AFNE13.jpg,AFNE09.jpg,AFNE13.jpg,FN,3,num_2,32,num_4,1.00011771172,,,2017_Aug_10_1052,60.0099895108,MAFE4ImagesEEG,001,101242,
AFNE01.JPG,AFNE01.JPG,AFNE01.JPG,AFNE01.JPG,AFNE01.JPG,AFNE01.JPG,,,,,,,,,,,,,4,7,47,6,,,,,,,,,,,AFNE05.jpg,AFSA15.jpg,AFNE08.jpg,AFSA19.jpg,AFSA19.jpg,FS,4,num_4,16,num_4,1.08347710525,,,2017_Aug_10_1052,60.0099895108,MAFE4ImagesEEG,001,101242,
AFNE01.JPG,AFNE01.JPG,AFNE01.JPG,AFNE01.JPG,AFNE01.JPG,AFNE01.JPG,,,,,,,,,,,,,4,8,48,9,,,,,,,,,,,AFNE12.jpg,AFNE14.jpg,AFSA13.jpg,AFSA11.jpg,AFSA13.jpg,FS,4,num_2,32,num_4,1.53338086721,,,2017_Aug_10_1052,60.0099895108,MAFE4ImagesEEG,001,101242,
AFNE01.JPG,AFNE01.JPG,AFNE01.JPG,AFNE01.JPG,AFNE01.JPG,AFNE01.JPG,,,,,,,,,,,,,4,9,49,3,,,,,,,,,,,AFSA05.jpg,AFNE16.jpg,AFSA18.jpg,AFNE19.jpg,AFNE16.jpg,FN,3,num_6,32,num_8,1.98338919017,,,2017_Aug_10_1052,60.0099895108,MAFE4ImagesEEG,001,101242,
AFNE01.JPG,AFNE01.JPG,AFNE01.JPG,AFNE01.JPG,AFNE01.JPG,AFNE01.JPG,,,,,,,,,,,,,5,0,50,4,,,,,,,,,,,AFNE01.jpg,AFSA04.jpg,AFSA15.jpg,AFNE04.jpg,AFSA15.jpg,FS,4,num_2,32,num_6,2.11667851801,,,2017_Aug_10_1052,60.0099895108,MAFE4ImagesEEG,001,101242,
AFNE01.JPG,AFNE01.JPG,AFNE01.JPG,AFNE01.JPG,AFNE01.JPG,AFNE01.JPG,,,,,,,,,,,,,5,1,51,1,,,,,,,,,,,AFSA19.jpg,AFSA01.jpg,AFNE14.jpg,AFNE01.jpg,AFSA01.jpg,FS,4,num_6,16,num_6,0.733480360592,,,2017_Aug_10_1052,60.0099895108,MAFE4ImagesEEG,001,101242,
AFNE01.JPG,AFNE01.JPG,AFNE01.JPG,AFNE01.JPG,AFNE01.JPG,AFNE01.JPG,,,,,,,,,,,,,5,2,52,7,,,,,,,,,,,AFSA09.jpg,AFNE18.jpg,AFSA17.jpg,AFNE12.jpg,AFNE12.jpg,FN,3,num_4,16,num_4,0.78344461415,,,2017_Aug_10_1052,60.0099895108,MAFE4ImagesEEG,001,101242,
AFNE01.JPG,AFNE01.JPG,AFNE01.JPG,AFNE01.JPG,AFNE01.JPG,AFNE01.JPG,,,,,,,,,,,,,5,3,53,3,,,,,,,,,,,AFSA08.jpg,AFNE07.jpg,AFSA06.jpg,AFNE17.jpg,AFNE07.jpg,FN,3,num_6,32,num_4,0.866898305248,,,2017_Aug_10_1052,60.0099895108,MAFE4ImagesEEG,001,101242,
AFNE01.JPG,AFNE01.JPG,AFNE01.JPG,AFNE01.JPG,AFNE01.JPG,AFNE01.JPG,,,,,,,,,,,,,5,4,54,2,,,,,,,,,,,AFNE16.jpg,AFSA08.jpg,AFNE12.jpg,AFSA13.jpg,AFSA08.jpg,FS,4,num_6,32,num_4,1.45009364001,,,2017_Aug_10_1052,60.0099895108,MAFE4ImagesEEG,001,101242,
AFNE01.JPG,AFNE01.JPG,AFNE01.JPG,AFNE01.JPG,AFNE01.JPG,AFNE01.JPG,,,,,,,,,,,,,5,5,55,0,,,,,,,,,,,AFNE02.jpg,AFSA19.jpg,AFSA06.jpg,AFNE04.jpg,AFNE04.jpg,FN,3,num_4,32,num_8,1.78338206979,,,2017_Aug_10_1052,60.0099895108,MAFE4ImagesEEG,001,101242,
AFNE01.JPG,AFNE01.JPG,AFNE01.JPG,AFNE01.JPG,AFNE01.JPG,AFNE01.JPG,,,,,,,,,,,,,5,6,56,6,,,,,,,,,,,AFNE16.jpg,AFSA07.jpg,AFSA16.jpg,AFNE11.jpg,AFNE11.jpg,FN,3,num_4,16,num_4,0.98345173453,,,2017_Aug_10_1052,60.0099895108,MAFE4ImagesEEG,001,101242,
AFNE01.JPG,AFNE01.JPG,AFNE01.JPG,AFNE01.JPG,AFNE01.JPG,AFNE01.JPG,,,,,,,,,,,,,5,7,57,5,,,,,,,,,,,AFSA04.jpg,AFNE12.jpg,AFSA17.jpg,AFNE09.jpg,AFNE09.jpg,FN,3,num_4,16,num_4,0.866624393035,,,2017_Aug_10_1052,60.0099895108,MAFE4ImagesEEG,001,101242,
AFNE01.JPG,AFNE01.JPG,AFNE01.JPG,AFNE01.JPG,AFNE01.JPG,AFNE01.JPG,,,,,,,,,,,,,5,8,58,9,,,,,,,,,,,AFSA13.jpg,AFNE06.jpg,AFNE01.jpg,AFSA02.jpg,AFSA02.jpg,FS,4,num_4,16,num_4,0.683319172822,,,2017_Aug_10_1052,60.0099895108,MAFE4ImagesEEG,001,101242,
AFNE01.JPG,AFNE01.JPG,AFNE01.JPG,AFNE01.JPG,AFNE01.JPG,AFNE01.JPG,,,,,,,,,,,,,5,9,59,8,,,,,,,,,,,AFNE11.jpg,AFNE04.jpg,AFSA20.jpg,AFSA18.jpg,AFNE11.jpg,FN,3,num_8,16,num_8,1.0168128761,,,2017_Aug_10_1052,60.0099895108,MAFE4ImagesEEG,001,101242,
,,,,,,,,,,,,,,,,,,,,,,,,,,,,,,,,,,,,,,,,,,,space,20.6818848229,2017_Aug_10_1052,60.0099895108,MAFE4ImagesEEG,001,101242,
AFNE01.JPG,AFNE01.JPG,AFNE01.JPG,AFNE01.JPG,AFNE01.JPG,AFNE01.JPG,,,,,,,,,,,,,,,,,0,0,0,3,,,,,,,AMNE17.jpg,AMSA20.jpg,AMNE03.jpg,AMSA05.jpg,AMNE03.jpg,MN,1,num_2,32,num_6,0.566771837184,,,2017_Aug_10_1052,60.0099895108,MAFE4ImagesEEG,001,101242,
AFNE01.JPG,AFNE01.JPG,AFNE01.JPG,AFNE01.JPG,AFNE01.JPG,AFNE01.JPG,,,,,,,,,,,,,,,,,0,1,1,0,,,,,,,AMNE12.jpg,AMSA16.jpg,AMSA12.jpg,AMNE18.jpg,AMNE18.jpg,MN,1,num_4,32,num_6,0.783513894072,,,2017_Aug_10_1052,60.0099895108,MAFE4ImagesEEG,001,101242,
AFNE01.JPG,AFNE01.JPG,AFNE01.JPG,AFNE01.JPG,AFNE01.JPG,AFNE01.JPG,,,,,,,,,,,,,,,,,0,2,2,7,,,,,,,AMNE19.jpg,AMSA13.jpg,AMSA16.jpg,AMNE05.jpg,AMSA16.jpg,MS,2,num_2,32,num_4,0.700144557515,,,2017_Aug_10_1052,60.0099895108,MAFE4ImagesEEG,001,101242,
AFNE01.JPG,AFNE01.JPG,AFNE01.JPG,AFNE01.JPG,AFNE01.JPG,AFNE01.JPG,,,,,,,,,,,,,,,,,0,3,3,5,,,,,,,AMNE20.jpg,AMSA09.jpg,AMSA17.jpg,AMNE12.jpg,AMNE12.jpg,MN,1,num_4,16,num_4,0.616938478081,,,2017_Aug_10_1052,60.0099895108,MAFE4ImagesEEG,001,101242,
AFNE01.JPG,AFNE01.JPG,AFNE01.JPG,AFNE01.JPG,AFNE01.JPG,AFNE01.JPG,,,,,,,,,,,,,,,,,0,4,4,6,,,,,,,AMSA19.jpg,AMNE07.jpg,AMNE18.jpg,AMSA02.jpg,AMNE18.jpg,MN,1,num_2,32,num_4,0.783463217085,,,2017_Aug_10_1052,60.0099895108,MAFE4ImagesEEG,001,101242,
AFNE01.JPG,AFNE01.JPG,AFNE01.JPG,AFNE01.JPG,AFNE01.JPG,AFNE01.JPG,,,,,,,,,,,,,,,,,0,5,5,1,,,,,,,AMSA11.jpg,AMNE17.jpg,AMNE09.jpg,AMSA19.jpg,AMNE09.jpg,MN,1,num_2,32,num_4,0.850114295725,,,2017_Aug_10_1052,60.0099895108,MAFE4ImagesEEG,001,101242,
AFNE01.JPG,AFNE01.JPG,AFNE01.JPG,AFNE01.JPG,AFNE01.JPG,AFNE01.JPG,,,,,,,,,,,,,,,,,0,6,6,2,,,,,,,AMNE18.jpg,AMNE13.jpg,AMSA01.jpg,AMSA07.jpg,AMNE13.jpg,MN,1,num_6,16,num_6,0.783458405873,,,2017_Aug_10_1052,60.0099895108,MAFE4ImagesEEG,001,101242,
AFNE01.JPG,AFNE01.JPG,AFNE01.JPG,AFNE01.JPG,AFNE01.JPG,AFNE01.JPG,,,,,,,,,,,,,,,,,0,7,7,4,,,,,,,AMNE11.jpg,AMSA20.jpg,AMSA08.jpg,AMNE19.jpg,AMNE11.jpg,MN,1,num_8,32,num_4,0.899971422041,,,2017_Aug_10_1052,60.0099895108,MAFE4ImagesEEG,001,101242,
AFNE01.JPG,AFNE01.JPG,AFNE01.JPG,AFNE01.JPG,AFNE01.JPG,AFNE01.JPG,,,,,,,,,,,,,,,,,0,8,8,8,,,,,,,AMNE07.jpg,AMNE12.jpg,AMSA12.jpg,AMSA13.jpg,AMSA13.jpg,MS,2,num_4,32,num_2,2.31665484724,,,2017_Aug_10_1052,60.0099895108,MAFE4ImagesEEG,001,101242,
AFNE01.JPG,AFNE01.JPG,AFNE01.JPG,AFNE01.JPG,AFNE01.JPG,AFNE01.JPG,,,,,,,,,,,,,,,,,0,9,9,9,,,,,,,AMSA09.jpg,AMSA02.jpg,AMNE19.jpg,AMNE10.jpg,AMNE19.jpg,MN,1,num_2,16,num_2,1.03344838275,,,2017_Aug_10_1052,60.0099895108,MAFE4ImagesEEG,001,101242,
AFNE01.JPG,AFNE01.JPG,AFNE01.JPG,AFNE01.JPG,AFNE01.JPG,AFNE01.JPG,,,,,,,,,,,,,,,,,1,0,10,4,,,,,,,AMSA01.jpg,AMNE14.jpg,AMNE06.jpg,AMSA14.jpg,AMNE14.jpg,MN,1,num_6,32,num_4,1.0001478612,,,2017_Aug_10_1052,60.0099895108,MAFE4ImagesEEG,001,101242,
AFNE01.JPG,AFNE01.JPG,AFNE01.JPG,AFNE01.JPG,AFNE01.JPG,AFNE01.JPG,,,,,,,,,,,,,,,,,1,1,11,3,,,,,,,AMSA17.jpg,AMNE18.jpg,AMNE10.jpg,AMSA13.jpg,AMSA13.jpg,MS,2,num_4,16,num_4,1.38346629613,,,2017_Aug_10_1052,60.0099895108,MAFE4ImagesEEG,001,101242,
AFNE01.JPG,AFNE01.JPG,AFNE01.JPG,AFNE01.JPG,AFNE01.JPG,AFNE01.JPG,,,,,,,,,,,,,,,,,1,2,12,6,,,,,,,AMSA20.jpg,AMNE17.jpg,AMNE06.jpg,AMSA15.jpg,AMNE17.jpg,MN,1,num_6,32,num_4,1.10013506375,,,2017_Aug_10_1052,60.0099895108,MAFE4ImagesEEG,001,101242,
AFNE01.JPG,AFNE01.JPG,AFNE01.JPG,AFNE01.JPG,AFNE01.JPG,AFNE01.JPG,,,,,,,,,,,,,,,,,1,3,13,2,,,,,,,AMNE20.jpg,AMSA16.jpg,AMNE08.jpg,AMSA03.jpg,AMSA16.jpg,MS,2,num_6,32,num_4,1.00010712724,,,2017_Aug_10_1052,60.0099895108,MAFE4ImagesEEG,001,101242,
AFNE01.JPG,AFNE01.JPG,AFNE01.JPG,AFNE01.JPG,AFNE01.JPG,AFNE01.JPG,,,,,,,,,,,,,,,,,1,4,14,8,,,,,,,AMSA04.jpg,AMNE12.jpg,AMNE07.jpg,AMSA02.jpg,AMNE07.jpg,MN,1,num_2,32,num_8,0.750106565887,,,2017_Aug_10_1052,60.0099895108,MAFE4ImagesEEG,001,101242,
AFNE01.JPG,AFNE01.JPG,AFNE01.JPG,AFNE01.JPG,AFNE01.JPG,AFNE01.JPG,,,,,,,,,,,,,,,,,1,5,15,0,,,,,,,AMSA20.jpg,AMNE07.jpg,AMSA15.jpg,AMNE06.jpg,AMSA15.jpg,MS,2,num_2,32,num_8,0.883543754928,,,2017_Aug_10_1052,60.0099895108,MAFE4ImagesEEG,001,101242,
AFNE01.JPG,AFNE01.JPG,AFNE01.JPG,AFNE01.JPG,AFNE01.JPG,AFNE01.JPG,,,,,,,,,,,,,,,,,1,6,16,1,,,,,,,AMNE09.jpg,AMSA13.jpg,AMNE06.jpg,AMSA18.jpg,AMSA18.jpg,MS,2,num_4,32,num_8,0.583483359544,,,2017_Aug_10_1052,60.0099895108,MAFE4ImagesEEG,001,101242,
AFNE01.JPG,AFNE01.JPG,AFNE01.JPG,AFNE01.JPG,AFNE01.JPG,AFNE01.JPG,,,,,,,,,,,,,,,,,1,7,17,5,,,,,,,AMNE11.jpg,AMSA05.jpg,AMSA19.jpg,AMNE06.jpg,AMNE06.jpg,MN,1,num_4,16,num_4,0.80011091195,,,2017_Aug_10_1052,60.0099895108,MAFE4ImagesEEG,001,101242,
AFNE01.JPG,AFNE01.JPG,AFNE01.JPG,AFNE01.JPG,AFNE01.JPG,AFNE01.JPG,,,,,,,,,,,,,,,,,1,8,18,7,,,,,,,AMNE08.jpg,AMSA11.jpg,AMNE04.jpg,AMSA04.jpg,AMNE08.jpg,MN,1,num_8,16,num_8,0.766871331027,,,2017_Aug_10_1052,60.0099895108,MAFE4ImagesEEG,001,101242,
AFNE01.JPG,AFNE01.JPG,AFNE01.JPG,AFNE01.JPG,AFNE01.JPG,AFNE01.JPG,,,,,,,,,,,,,,,,,1,9,19,9,,,,,,,AMSA05.jpg,AMSA20.jpg,AMNE12.jpg,AMNE05.jpg,AMNE05.jpg,MN,1,num_4,16,num_4,0.716905794339,,,2017_Aug_10_1052,60.0099895108,MAFE4ImagesEEG,001,101242,
AFNE01.JPG,AFNE01.JPG,AFNE01.JPG,AFNE01.JPG,AFNE01.JPG,AFNE01.JPG,,,,,,,,,,,,,,,,,2,0,20,8,,,,,,,AMNE11.jpg,AMSA04.jpg,AMSA03.jpg,AMNE18.jpg,AMSA04.jpg,MS,2,num_6,32,num_8,0.950083857402,,,2017_Aug_10_1052,60.0099895108,MAFE4ImagesEEG,001,101242,
AFNE01.JPG,AFNE01.JPG,AFNE01.JPG,AFNE01.JPG,AFNE01.JPG,AFNE01.JPG,,,,,,,,,,,,,,,,,2,1,21,3,,,,,,,AMSA16.jpg,AMNE09.jpg,AMNE07.jpg,AMSA15.jpg,AMNE07.jpg,MN,1,num_2,32,num_4,1.33355785138,,,2017_Aug_10_1052,60.0099895108,MAFE4ImagesEEG,001,101242,
AFNE01.JPG,AFNE01.JPG,AFNE01.JPG,AFNE01.JPG,AFNE01.JPG,AFNE01.JPG,,,,,,,,,,,,,,,,,2,2,22,1,,,,,,,AMNE11.jpg,AMSA13.jpg,AMNE16.jpg,AMSA14.jpg,AMSA14.jpg,MS,2,num_4,32,num_8,0.533473240212,,,2017_Aug_10_1052,60.0099895108,MAFE4ImagesEEG,001,101242,
AFNE01.JPG,AFNE01.JPG,AFNE01.JPG,AFNE01.JPG,AFNE01.JPG,AFNE01.JPG,,,,,,,,,,,,,,,,,2,3,23,5,,,,,,,AMNE14.jpg,AMNE01.jpg,AMSA04.jpg,AMSA08.jpg,AMSA08.jpg,MS,2,num_4,32,num_8,0.600140676601,,,2017_Aug_10_1052,60.0099895108,MAFE4ImagesEEG,001,101242,
AFNE01.JPG,AFNE01.JPG,AFNE01.JPG,AFNE01.JPG,AFNE01.JPG,AFNE01.JPG,,,,,,,,,,,,,,,,,2,4,24,9,,,,,,,AMSA15.jpg,AMNE08.jpg,AMNE06.jpg,AMSA16.jpg,AMNE06.jpg,MN,1,num_2,32,num_6,1.33340389631,,,2017_Aug_10_1052,60.0099895108,MAFE4ImagesEEG,001,101242,
AFNE01.JPG,AFNE01.JPG,AFNE01.JPG,AFNE01.JPG,AFNE01.JPG,AFNE01.JPG,,,,,,,,,,,,,,,,,2,5,25,4,,,,,,,AMSA13.jpg,AMNE02.jpg,AMNE04.jpg,AMSA08.jpg,AMSA13.jpg,MS,2,num_8,32,num_2,1.50011274009,,,2017_Aug_10_1052,60.0099895108,MAFE4ImagesEEG,001,101242,
AFNE01.JPG,AFNE01.JPG,AFNE01.JPG,AFNE01.JPG,AFNE01.JPG,AFNE01.JPG,,,,,,,,,,,,,,,,,2,6,26,2,,,,,,,AMSA01.jpg,AMSA03.jpg,AMNE02.jpg,AMNE07.jpg,AMSA03.jpg,MS,2,num_6,32,num_2,1.18345532683,,,2017_Aug_10_1052,60.0099895108,MAFE4ImagesEEG,001,101242,
AFNE01.JPG,AFNE01.JPG,AFNE01.JPG,AFNE01.JPG,AFNE01.JPG,AFNE01.JPG,,,,,,,,,,,,,,,,,2,7,27,0,,,,,,,AMSA14.jpg,AMNE14.jpg,AMNE18.jpg,AMSA17.jpg,AMSA17.jpg,MS,2,num_4,32,num_8,0.683414111845,,,2017_Aug_10_1052,60.0099895108,MAFE4ImagesEEG,001,101242,
AFNE01.JPG,AFNE01.JPG,AFNE01.JPG,AFNE01.JPG,AFNE01.JPG,AFNE01.JPG,,,,,,,,,,,,,,,,,2,8,28,6,,,,,,,AMSA20.jpg,AMNE12.jpg,AMNE10.jpg,AMSA11.jpg,AMSA11.jpg,MS,2,num_4,32,num_6,0.700079447357,,,2017_Aug_10_1052,60.0099895108,MAFE4ImagesEEG,001,101242,
AFNE01.JPG,AFNE01.JPG,AFNE01.JPG,AFNE01.JPG,AFNE01.JPG,AFNE01.JPG,,,,,,,,,,,,,,,,,2,9,29,7,,,,,,,AMNE06.jpg,AMNE10.jpg,AMSA03.jpg,AMSA13.jpg,AMSA13.jpg,MS,2,num_4,32,num_2,2.46664286777,,,2017_Aug_10_1052,60.0099895108,MAFE4ImagesEEG,001,101242,
AFNE01.JPG,AFNE01.JPG,AFNE01.JPG,AFNE01.JPG,AFNE01.JPG,AFNE01.JPG,,,,,,,,,,,,,,,,,3,0,30,7,,,,,,,AMSA16.jpg,AMSA19.jpg,AMNE04.jpg,AMNE19.jpg,AMSA16.jpg,MS,2,num_8,16,num_8,0.783463858534,,,2017_Aug_10_1052,60.0099895108,MAFE4ImagesEEG,001,101242,
AFNE01.JPG,AFNE01.JPG,AFNE01.JPG,AFNE01.JPG,AFNE01.JPG,AFNE01.JPG,,,,,,,,,,,,,,,,,3,1,31,6,,,,,,,AMSA17.jpg,AMNE05.jpg,AMNE18.jpg,AMSA03.jpg,AMNE18.jpg,MN,1,num_2,32,num_4,1.45007311273,,,2017_Aug_10_1052,60.0099895108,MAFE4ImagesEEG,001,101242,
AFNE01.JPG,AFNE01.JPG,AFNE01.JPG,AFNE01.JPG,AFNE01.JPG,AFNE01.JPG,,,,,,,,,,,,,,,,,3,2,32,0,,,,,,,AMNE06.jpg,AMSA19.jpg,AMNE04.jpg,AMSA16.jpg,AMSA19.jpg,MS,2,num_6,16,num_6,0.783438199433,,,2017_Aug_10_1052,60.0099895108,MAFE4ImagesEEG,001,101242,
AFNE01.JPG,AFNE01.JPG,AFNE01.JPG,AFNE01.JPG,AFNE01.JPG,AFNE01.JPG,,,,,,,,,,,,,,,,,3,3,33,1,,,,,,,AMNE06.jpg,AMSA17.jpg,AMSA05.jpg,AMNE20.jpg,AMNE20.jpg,MN,1,num_4,16,num_4,1.20007575885,,,2017_Aug_10_1052,60.0099895108,MAFE4ImagesEEG,001,101242,
AFNE01.JPG,AFNE01.JPG,AFNE01.JPG,AFNE01.JPG,AFNE01.JPG,AFNE01.JPG,,,,,,,,,,,,,,,,,3,4,34,3,,,,,,,AMNE18.jpg,AMSA06.jpg,AMNE11.jpg,AMSA12.jpg,AMSA12.jpg,MS,2,num_4,32,num_8,3.38288703957,,,2017_Aug_10_1052,60.0099895108,MAFE4ImagesEEG,001,101242,
AFNE01.JPG,AFNE01.JPG,AFNE01.JPG,AFNE01.JPG,AFNE01.JPG,AFNE01.JPG,,,,,,,,,,,,,,,,,3,5,35,4,,,,,,,AMSA13.jpg,AMSA18.jpg,AMNE01.jpg,AMNE07.jpg,AMNE01.jpg,MN,1,num_2,32,num_4,1.15008167643,,,2017_Aug_10_1052,60.0099895108,MAFE4ImagesEEG,001,101242,
AFNE01.JPG,AFNE01.JPG,AFNE01.JPG,AFNE01.JPG,AFNE01.JPG,AFNE01.JPG,,,,,,,,,,,,,,,,,3,6,36,5,,,,,,,AMSA14.jpg,AMNE11.jpg,AMSA01.jpg,AMNE10.jpg,AMSA14.jpg,MS,2,num_8,16,num_8,1.0500983228,,,2017_Aug_10_1052,60.0099895108,MAFE4ImagesEEG,001,101242,
AFNE01.JPG,AFNE01.JPG,AFNE01.JPG,AFNE01.JPG,AFNE01.JPG,AFNE01.JPG,,,,,,,,,,,,,,,,,3,7,37,8,,,,,,,AMSA14.jpg,AMNE14.jpg,AMNE16.jpg,AMSA12.jpg,AMNE16.jpg,MN,1,num_2,32,num_4,1.117025238,,,2017_Aug_10_1052,60.0099895108,MAFE4ImagesEEG,001,101242,
AFNE01.JPG,AFNE01.JPG,AFNE01.JPG,AFNE01.JPG,AFNE01.JPG,AFNE01.JPG,,,,,,,,,,,,,,,,,3,8,38,9,,,,,,,AMNE04.jpg,AMSA07.jpg,AMNE14.jpg,AMSA04.jpg,AMNE04.jpg,MN,1,num_8,32,num_4,0.683413149556,,,2017_Aug_10_1052,60.0099895108,MAFE4ImagesEEG,001,101242,
AFNE01.JPG,AFNE01.JPG,AFNE01.JPG,AFNE01.JPG,AFNE01.JPG,AFNE01.JPG,,,,,,,,,,,,,,,,,3,9,39,2,,,,,,,AMNE06.jpg,AMNE05.jpg,AMSA08.jpg,AMSA11.jpg,AMSA11.jpg,MS,2,num_4,16,num_4,0.950115931453,,,2017_Aug_10_1052,60.0099895108,MAFE4ImagesEEG,001,101242,
AFNE01.JPG,AFNE01.JPG,AFNE01.JPG,AFNE01.JPG,AFNE01.JPG,AFNE01.JPG,,,,,,,,,,,,,,,,,4,0,40,7,,,,,,,AMNE19.jpg,AMNE10.jpg,AMSA14.jpg,AMSA05.jpg,AMSA14.jpg,MS,2,num_2,32,num_8,2.41670202836,,,2017_Aug_10_1052,60.0099895108,MAFE4ImagesEEG,001,101242,
AFNE01.JPG,AFNE01.JPG,AFNE01.JPG,AFNE01.JPG,AFNE01.JPG,AFNE01.JPG,,,,,,,,,,,,,,,,,4,1,41,0,,,,,,,AMSA10.jpg,AMSA03.jpg,AMNE13.jpg,AMNE02.jpg,AMNE02.jpg,MN,1,num_4,32,num_8,0.733428400708,,,2017_Aug_10_1052,60.0099895108,MAFE4ImagesEEG,001,101242,
AFNE01.JPG,AFNE01.JPG,AFNE01.JPG,AFNE01.JPG,AFNE01.JPG,AFNE01.JPG,,,,,,,,,,,,,,,,,4,2,42,2,,,,,,,AMNE20.jpg,AMSA10.jpg,AMSA11.jpg,AMNE15.jpg,AMSA10.jpg,MS,2,num_6,32,num_8,1.13353822217,,,2017_Aug_10_1052,60.0099895108,MAFE4ImagesEEG,001,101242,
AFNE01.JPG,AFNE01.JPG,AFNE01.JPG,AFNE01.JPG,AFNE01.JPG,AFNE01.JPG,,,,,,,,,,,,,,,,,4,3,43,4,,,,,,,AMSA12.jpg,AMSA15.jpg,AMNE12.jpg,AMNE09.jpg,AMSA12.jpg,MS,2,num_8,16,num_8,0.88340262929,,,2017_Aug_10_1052,60.0099895108,MAFE4ImagesEEG,001,101242,
AFNE01.JPG,AFNE01.JPG,AFNE01.JPG,AFNE01.JPG,AFNE01.JPG,AFNE01.JPG,,,,,,,,,,,,,,,,,4,4,44,1,,,,,,,AMNE15.jpg,AMNE20.jpg,AMSA10.jpg,AMSA08.jpg,AMNE20.jpg,MN,1,num_6,16,num_6,0.766732450575,,,2017_Aug_10_1052,60.0099895108,MAFE4ImagesEEG,001,101242,
AFNE01.JPG,AFNE01.JPG,AFNE01.JPG,AFNE01.JPG,AFNE01.JPG,AFNE01.JPG,,,,,,,,,,,,,,,,,4,5,45,8,,,,,,,AMSA18.jpg,AMNE09.jpg,AMSA17.jpg,AMNE15.jpg,AMNE09.jpg,MN,1,num_6,32,num_4,1.21670966176,,,2017_Aug_10_1052,60.0099895108,MAFE4ImagesEEG,001,101242,
AFNE01.JPG,AFNE01.JPG,AFNE01.JPG,AFNE01.JPG,AFNE01.JPG,AFNE01.JPG,,,,,,,,,,,,,,,,,4,6,46,9,,,,,,,AMNE04.jpg,AMSA18.jpg,AMSA17.jpg,AMNE08.jpg,AMSA17.jpg,MS,2,num_2,32,num_4,1.51670751302,,,2017_Aug_10_1052,60.0099895108,MAFE4ImagesEEG,001,101242,
AFNE01.JPG,AFNE01.JPG,AFNE01.JPG,AFNE01.JPG,AFNE01.JPG,AFNE01.JPG,,,,,,,,,,,,,,,,,4,7,47,3,,,,,,,AMNE20.jpg,AMSA14.jpg,AMNE07.jpg,AMSA18.jpg,AMNE20.jpg,MN,1,num_8,16,num_8,1.63369201706,,,2017_Aug_10_1052,60.0099895108,MAFE4ImagesEEG,001,101242,
AFNE01.JPG,AFNE01.JPG,AFNE01.JPG,AFNE01.JPG,AFNE01.JPG,AFNE01.JPG,,,,,,,,,,,,,,,,,4,8,48,6,,,,,,,AMSA04.jpg,AMNE18.jpg,AMNE16.jpg,AMSA14.jpg,AMNE16.jpg,MN,1,num_2,32,num_6,0.400134518277,,,2017_Aug_10_1052,60.0099895108,MAFE4ImagesEEG,001,101242,
AFNE01.JPG,AFNE01.JPG,AFNE01.JPG,AFNE01.JPG,AFNE01.JPG,AFNE01.JPG,,,,,,,,,,,,,,,,,4,9,49,5,,,,,,,AMSA12.jpg,AMSA01.jpg,AMNE13.jpg,AMNE18.jpg,AMSA01.jpg,MS,2,num_6,16,num_6,0.583441021852,,,2017_Aug_10_1052,60.0099895108,MAFE4ImagesEEG,001,101242,
AFNE01.JPG,AFNE01.JPG,AFNE01.JPG,AFNE01.JPG,AFNE01.JPG,AFNE01.JPG,,,,,,,,,,,,,,,,,5,0,50,6,,,,,,,AMSA08.jpg,AMNE13.jpg,AMSA02.jpg,AMNE19.jpg,AMNE13.jpg,MN,1,num_6,32,num_4,0.483494232642,,,2017_Aug_10_1052,60.0099895108,MAFE4ImagesEEG,001,101242,
AFNE01.JPG,AFNE01.JPG,AFNE01.JPG,AFNE01.JPG,AFNE01.JPG,AFNE01.JPG,,,,,,,,,,,,,,,,,5,1,51,4,,,,,,,AMNE14.jpg,AMSA01.jpg,AMNE19.jpg,AMSA17.jpg,AMSA17.jpg,MS,2,num_4,16,num_4,2.20001032786,,,2017_Aug_10_1052,60.0099895108,MAFE4ImagesEEG,001,101242,
AFNE01.JPG,AFNE01.JPG,AFNE01.JPG,AFNE01.JPG,AFNE01.JPG,AFNE01.JPG,,,,,,,,,,,,,,,,,5,2,52,5,,,,,,,AMNE05.jpg,AMSA19.jpg,AMNE18.jpg,AMSA01.jpg,AMNE18.jpg,MN,1,num_2,16,num_2,3.03329891781,,,2017_Aug_10_1052,60.0099895108,MAFE4ImagesEEG,001,101242,
AFNE01.JPG,AFNE01.JPG,AFNE01.JPG,AFNE01.JPG,AFNE01.JPG,AFNE01.JPG,,,,,,,,,,,,,,,,,5,3,53,7,,,,,,,AMSA20.jpg,AMNE05.jpg,AMSA12.jpg,AMNE01.jpg,AMSA20.jpg,MS,2,num_8,32,num_4,1.08344567241,,,2017_Aug_10_1052,60.0099895108,MAFE4ImagesEEG,001,101242,
AFNE01.JPG,AFNE01.JPG,AFNE01.JPG,AFNE01.JPG,AFNE01.JPG,AFNE01.JPG,,,,,,,,,,,,,,,,,5,4,54,8,,,,,,,AMNE20.jpg,AMNE08.jpg,AMSA14.jpg,AMSA01.jpg,AMSA01.jpg,MS,2,num_4,16,num_4,1.41676842142,,,2017_Aug_10_1052,60.0099895108,MAFE4ImagesEEG,001,101242,
AFNE01.JPG,AFNE01.JPG,AFNE01.JPG,AFNE01.JPG,AFNE01.JPG,AFNE01.JPG,,,,,,,,,,,,,,,,,5,5,55,1,,,,,,,AMNE02.jpg,AMSA02.jpg,AMSA14.jpg,AMNE11.jpg,AMNE11.jpg,MN,1,num_4,16,num_4,1.04977116804,,,2017_Aug_10_1052,60.0099895108,MAFE4ImagesEEG,001,101242,
AFNE01.JPG,AFNE01.JPG,AFNE01.JPG,AFNE01.JPG,AFNE01.JPG,AFNE01.JPG,,,,,,,,,,,,,,,,,5,6,56,3,,,,,,,AMSA05.jpg,AMSA12.jpg,AMNE19.jpg,AMNE03.jpg,AMNE19.jpg,MN,1,num_2,32,num_4,0.683490127092,,,2017_Aug_10_1052,60.0099895108,MAFE4ImagesEEG,001,101242,
AFNE01.JPG,AFNE01.JPG,AFNE01.JPG,AFNE01.JPG,AFNE01.JPG,AFNE01.JPG,,,,,,,,,,,,,,,,,5,7,57,2,,,,,,,AMNE19.jpg,AMSA18.jpg,AMSA11.jpg,AMNE16.jpg,AMNE19.jpg,MN,1,num_8,32,num_4,0.616842897376,,,2017_Aug_10_1052,60.0099895108,MAFE4ImagesEEG,001,101242,
AFNE01.JPG,AFNE01.JPG,AFNE01.JPG,AFNE01.JPG,AFNE01.JPG,AFNE01.JPG,,,,,,,,,,,,,,,,,5,8,58,0,,,,,,,AMSA11.jpg,AMNE08.jpg,AMNE16.jpg,AMSA03.jpg,AMNE16.jpg,MN,1,num_2,32,num_4,0.700141029432,,,2017_Aug_10_1052,60.0099895108,MAFE4ImagesEEG,001,101242,
AFNE01.JPG,AFNE01.JPG,AFNE01.JPG,AFNE01.JPG,AFNE01.JPG,AFNE01.JPG,,,,,,,,,,,,,,,,,5,9,59,9,,,,,,,AMNE12.jpg,AMSA11.jpg,AMNE20.jpg,AMSA08.jpg,AMSA11.jpg,MS,2,num_6,32,num_8,0.950126836542,,,2017_Aug_10_1052,60.0099895108,MAFE4ImagesEEG,001,101242,
,,,,,,,,,,,,,,,,,,,,,,,,,,,,,,,,,,,,,,,,,,,space,16.5823001491,2017_Aug_10_1052,60.0099895108,MAFE4ImagesEEG,001,101242,
AFNE01.JPG,AFNE01.JPG,AFNE01.JPG,AFNE01.JPG,AFNE01.JPG,AFNE01.JPG,,,,,,,,,,,,,,,,,,,,,0,0,0,9,,,AFNE18.jpg,AFSA18.jpg,AFNE03.jpg,AFSA20.jpg,AFSA20.jpg,FS,4,num_4,32,num_8,0.700117294677,,,2017_Aug_10_1052,60.0099895108,MAFE4ImagesEEG,001,101242,
AFNE01.JPG,AFNE01.JPG,AFNE01.JPG,AFNE01.JPG,AFNE01.JPG,AFNE01.JPG,,,,,,,,,,,,,,,,,,,,,0,1,1,3,,,AFNE02.jpg,AFNE01.jpg,AFSA01.jpg,AFSA03.jpg,AFSA03.jpg,FS,4,num_4,32,num_8,0.3834294111,,,2017_Aug_10_1052,60.0099895108,MAFE4ImagesEEG,001,101242,
AFNE01.JPG,AFNE01.JPG,AFNE01.JPG,AFNE01.JPG,AFNE01.JPG,AFNE01.JPG,,,,,,,,,,,,,,,,,,,,,0,2,2,8,,,AFNE01.jpg,AFNE03.jpg,AFSA16.jpg,AFSA14.jpg,AFNE01.jpg,FN,3,num_8,16,num_8,0.966709100641,,,2017_Aug_10_1052,60.0099895108,MAFE4ImagesEEG,001,101242,
AFNE01.JPG,AFNE01.JPG,AFNE01.JPG,AFNE01.JPG,AFNE01.JPG,AFNE01.JPG,,,,,,,,,,,,,,,,,,,,,0,3,3,1,,,AFSA19.jpg,AFNE16.jpg,AFNE09.jpg,AFSA14.jpg,AFSA19.jpg,FS,4,num_8,32,num_2,3.51659653685,,,2017_Aug_10_1052,60.0099895108,MAFE4ImagesEEG,001,101242,
AFNE01.JPG,AFNE01.JPG,AFNE01.JPG,AFNE01.JPG,AFNE01.JPG,AFNE01.JPG,,,,,,,,,,,,,,,,,,,,,0,4,4,7,,,AFNE08.jpg,AFNE20.jpg,AFSA09.jpg,AFSA16.jpg,AFSA16.jpg,FS,4,num_4,16,num_4,1.03346057096,,,2017_Aug_10_1052,60.0099895108,MAFE4ImagesEEG,001,101242,
AFNE01.JPG,AFNE01.JPG,AFNE01.JPG,AFNE01.JPG,AFNE01.JPG,AFNE01.JPG,,,,,,,,,,,,,,,,,,,,,0,5,5,6,,,AFNE01.jpg,AFNE06.jpg,AFSA18.jpg,AFSA09.jpg,AFSA18.jpg,FS,4,num_2,32,num_6,0.800207133871,,,2017_Aug_10_1052,60.0099895108,MAFE4ImagesEEG,001,101242,
AFNE01.JPG,AFNE01.JPG,AFNE01.JPG,AFNE01.JPG,AFNE01.JPG,AFNE01.JPG,,,,,,,,,,,,,,,,,,,,,0,6,6,0,,,AFSA08.jpg,AFNE07.jpg,AFSA18.jpg,AFNE19.jpg,AFNE07.jpg,FN,3,num_6,32,num_8,0.950120742666,,,2017_Aug_10_1052,60.0099895108,MAFE4ImagesEEG,001,101242,
AFNE01.JPG,AFNE01.JPG,AFNE01.JPG,AFNE01.JPG,AFNE01.JPG,AFNE01.JPG,,,,,,,,,,,,,,,,,,,,,0,7,7,5,,,AFSA02.jpg,AFNE11.jpg,AFSA12.jpg,AFNE07.jpg,AFNE11.jpg,FN,3,num_6,16,num_6,1.39996933728,,,2017_Aug_10_1052,60.0099895108,MAFE4ImagesEEG,001,101242,
AFNE01.JPG,AFNE01.JPG,AFNE01.JPG,AFNE01.JPG,AFNE01.JPG,AFNE01.JPG,,,,,,,,,,,,,,,,,,,,,0,8,8,2,,,AFSA07.jpg,AFNE19.jpg,AFSA12.jpg,AFNE18.jpg,AFNE19.jpg,FN,3,num_6,32,num_8,3.23328326573,,,2017_Aug_10_1052,60.0099895108,MAFE4ImagesEEG,001,101242,
AFNE01.JPG,AFNE01.JPG,AFNE01.JPG,AFNE01.JPG,AFNE01.JPG,AFNE01.JPG,,,,,,,,,,,,,,,,,,,,,0,9,9,4,,,AFNE12.jpg,AFNE17.jpg,AFSA01.jpg,AFSA03.jpg,AFSA03.jpg,FS,4,num_4,16,num_4,0.883427646942,,,2017_Aug_10_1052,60.0099895108,MAFE4ImagesEEG,001,101242,
AFNE01.JPG,AFNE01.JPG,AFNE01.JPG,AFNE01.JPG,AFNE01.JPG,AFNE01.JPG,,,,,,,,,,,,,,,,,,,,,1,0,10,8,,,AFNE02.jpg,AFSA08.jpg,AFSA11.jpg,AFNE04.jpg,AFSA11.jpg,FS,4,num_2,32,num_4,0.750092132483,,,2017_Aug_10_1052,60.0099895108,MAFE4ImagesEEG,001,101242,
AFNE01.JPG,AFNE01.JPG,AFNE01.JPG,AFNE01.JPG,AFNE01.JPG,AFNE01.JPG,,,,,,,,,,,,,,,,,,,,,1,1,11,4,,,AFSA07.jpg,AFSA10.jpg,AFNE20.jpg,AFNE11.jpg,AFNE20.jpg,FN,3,num_2,32,num_4,0.600153506268,,,2017_Aug_10_1052,60.0099895108,MAFE4ImagesEEG,001,101242,
AFNE01.JPG,AFNE01.JPG,AFNE01.JPG,AFNE01.JPG,AFNE01.JPG,AFNE01.JPG,,,,,,,,,,,,,,,,,,,,,1,2,12,3,,,AFSA09.jpg,AFNE17.jpg,AFSA04.jpg,AFNE06.jpg,AFNE17.jpg,FN,3,num_6,32,num_8,0.866750764893,,,2017_Aug_10_1052,60.0099895108,MAFE4ImagesEEG,001,101242,
AFNE01.JPG,AFNE01.JPG,AFNE01.JPG,AFNE01.JPG,AFNE01.JPG,AFNE01.JPG,,,,,,,,,,,,,,,,,,,,,1,3,13,1,,,AFSA20.jpg,AFNE02.jpg,AFNE14.jpg,AFSA02.jpg,AFNE14.jpg,FN,3,num_2,32,num_4,0.833443186944,,,2017_Aug_10_1052,60.0099895108,MAFE4ImagesEEG,001,101242,
AFNE01.JPG,AFNE01.JPG,AFNE01.JPG,AFNE01.JPG,AFNE01.JPG,AFNE01.JPG,,,,,,,,,,,,,,,,,,,,,1,4,14,2,,,AFNE11.jpg,AFNE20.jpg,AFSA13.jpg,AFSA17.jpg,AFSA13.jpg,FS,4,num_2,32,num_6,0.683522521751,,,2017_Aug_10_1052,60.0099895108,MAFE4ImagesEEG,001,101242,
AFNE01.JPG,AFNE01.JPG,AFNE01.JPG,AFNE01.JPG,AFNE01.JPG,AFNE01.JPG,,,,,,,,,,,,,,,,,,,,,1,5,15,9,,,AFNE02.jpg,AFNE11.jpg,AFSA17.jpg,AFSA01.jpg,AFSA01.jpg,FS,4,num_4,32,num_8,1.50012909807,,,2017_Aug_10_1052,60.0099895108,MAFE4ImagesEEG,001,101242,
AFNE01.JPG,AFNE01.JPG,AFNE01.JPG,AFNE01.JPG,AFNE01.JPG,AFNE01.JPG,,,,,,,,,,,,,,,,,,,,,1,6,16,7,,,AFNE05.jpg,AFNE19.jpg,AFSA09.jpg,AFSA01.jpg,AFNE05.jpg,FN,3,num_8,16,num_8,1.11700503156,,,2017_Aug_10_1052,60.0099895108,MAFE4ImagesEEG,001,101242,
AFNE01.JPG,AFNE01.JPG,AFNE01.JPG,AFNE01.JPG,AFNE01.JPG,AFNE01.JPG,,,,,,,,,,,,,,,,,,,,,1,7,17,6,,,AFNE12.jpg,AFSA03.jpg,AFNE06.jpg,AFSA05.jpg,AFSA03.jpg,FS,4,num_6,32,num_4,0.816732306033,,,2017_Aug_10_1052,60.0099895108,MAFE4ImagesEEG,001,101242,
AFNE01.JPG,AFNE01.JPG,AFNE01.JPG,AFNE01.JPG,AFNE01.JPG,AFNE01.JPG,,,,,,,,,,,,,,,,,,,,,1,8,18,5,,,AFSA02.jpg,AFSA20.jpg,AFNE04.jpg,AFNE01.jpg,AFNE04.jpg,FN,3,num_2,32,num_6,0.300181634957,,,2017_Aug_10_1052,60.0099895108,MAFE4ImagesEEG,001,101242,
AFNE01.JPG,AFNE01.JPG,AFNE01.JPG,AFNE01.JPG,AFNE01.JPG,AFNE01.JPG,,,,,,,,,,,,,,,,,,,,,1,9,19,0,,,AFSA08.jpg,AFNE08.jpg,AFNE11.jpg,AFSA17.jpg,AFNE11.jpg,FN,3,num_2,32,num_4,0.600314838579,,,2017_Aug_10_1052,60.0099895108,MAFE4ImagesEEG,001,101242,
AFNE01.JPG,AFNE01.JPG,AFNE01.JPG,AFNE01.JPG,AFNE01.JPG,AFNE01.JPG,,,,,,,,,,,,,,,,,,,,,2,0,20,3,,,AFSA03.jpg,AFNE12.jpg,AFSA01.jpg,AFNE10.jpg,AFSA01.jpg,FS,4,num_2,32,num_6,1.0500899835,,,2017_Aug_10_1052,60.0099895108,MAFE4ImagesEEG,001,101242,
AFNE01.JPG,AFNE01.JPG,AFNE01.JPG,AFNE01.JPG,AFNE01.JPG,AFNE01.JPG,,,,,,,,,,,,,,,,,,,,,2,1,21,5,,,AFSA19.jpg,AFNE15.jpg,AFSA08.jpg,AFNE13.jpg,AFNE15.jpg,FN,3,num_6,16,num_6,0.683497824706,,,2017_Aug_10_1052,60.0099895108,MAFE4ImagesEEG,001,101242,
AFNE01.JPG,AFNE01.JPG,AFNE01.JPG,AFNE01.JPG,AFNE01.JPG,AFNE01.JPG,,,,,,,,,,,,,,,,,,,,,2,2,22,8,,,AFSA04.jpg,AFNE15.jpg,AFNE20.jpg,AFSA08.jpg,AFNE20.jpg,FN,3,num_2,32,num_4,0.733444758458,,,2017_Aug_10_1052,60.0099895108,MAFE4ImagesEEG,001,101242,
AFNE01.JPG,AFNE01.JPG,AFNE01.JPG,AFNE01.JPG,AFNE01.JPG,AFNE01.JPG,,,,,,,,,,,,,,,,,,,,,2,3,23,9,,,AFSA17.jpg,AFNE15.jpg,AFSA10.jpg,AFNE01.jpg,AFNE15.jpg,FN,3,num_6,16,num_6,0.816823716974,,,2017_Aug_10_1052,60.0099895108,MAFE4ImagesEEG,001,101242,
AFNE01.JPG,AFNE01.JPG,AFNE01.JPG,AFNE01.JPG,AFNE01.JPG,AFNE01.JPG,,,,,,,,,,,,,,,,,,,,,2,4,24,0,,,AFSA19.jpg,AFNE19.jpg,AFSA12.jpg,AFNE12.jpg,AFSA12.jpg,FS,4,num_2,32,num_8,1.0667646206,,,2017_Aug_10_1052,60.0099895108,MAFE4ImagesEEG,001,101242,
AFNE01.JPG,AFNE01.JPG,AFNE01.JPG,AFNE01.JPG,AFNE01.JPG,AFNE01.JPG,,,,,,,,,,,,,,,,,,,,,2,5,25,7,,,AFNE14.jpg,AFSA20.jpg,AFNE06.jpg,AFSA06.jpg,AFSA20.jpg,FS,4,num_6,32,num_8,0.750171355437,,,2017_Aug_10_1052,60.0099895108,MAFE4ImagesEEG,001,101242,
AFNE01.JPG,AFNE01.JPG,AFNE01.JPG,AFNE01.JPG,AFNE01.JPG,AFNE01.JPG,,,,,,,,,,,,,,,,,,,,,2,6,26,2,,,AFSA09.jpg,AFSA12.jpg,AFNE10.jpg,AFNE09.jpg,AFNE09.jpg,FN,3,num_4,32,num_6,0.350123757496,,,2017_Aug_10_1052,60.0099895108,MAFE4ImagesEEG,001,101242,
AFNE01.JPG,AFNE01.JPG,AFNE01.JPG,AFNE01.JPG,AFNE01.JPG,AFNE01.JPG,,,,,,,,,,,,,,,,,,,,,2,7,27,6,,,AFNE13.jpg,AFSA11.jpg,AFSA06.jpg,AFNE15.jpg,AFSA11.jpg,FS,4,num_6,16,num_6,0.33352641901,,,2017_Aug_10_1052,60.0099895108,MAFE4ImagesEEG,001,101242,
AFNE01.JPG,AFNE01.JPG,AFNE01.JPG,AFNE01.JPG,AFNE01.JPG,AFNE01.JPG,,,,,,,,,,,,,,,,,,,,,2,8,28,1,,,AFNE02.jpg,AFNE09.jpg,AFSA05.jpg,AFSA04.jpg,AFSA05.jpg,FS,4,num_2,32,num_8,0.550121576525,,,2017_Aug_10_1052,60.0099895108,MAFE4ImagesEEG,001,101242,
AFNE01.JPG,AFNE01.JPG,AFNE01.JPG,AFNE01.JPG,AFNE01.JPG,AFNE01.JPG,,,,,,,,,,,,,,,,,,,,,2,9,29,4,,,AFSA02.jpg,AFSA11.jpg,AFNE05.jpg,AFNE20.jpg,AFNE05.jpg,FN,3,num_2,32,num_8,0.366802243516,,,2017_Aug_10_1052,60.0099895108,MAFE4ImagesEEG,001,101242,
AFNE01.JPG,AFNE01.JPG,AFNE01.JPG,AFNE01.JPG,AFNE01.JPG,AFNE01.JPG,,,,,,,,,,,,,,,,,,,,,3,0,30,0,,,AFSA10.jpg,AFNE01.jpg,AFSA05.jpg,AFNE03.jpg,AFNE01.jpg,FN,3,num_6,16,num_6,0.400145744206,,,2017_Aug_10_1052,60.0099895108,MAFE4ImagesEEG,001,101242,
AFNE01.JPG,AFNE01.JPG,AFNE01.JPG,AFNE01.JPG,AFNE01.JPG,AFNE01.JPG,,,,,,,,,,,,,,,,,,,,,3,1,31,3,,,AFNE17.jpg,AFNE09.jpg,AFSA03.jpg,AFSA13.jpg,AFNE17.jpg,FN,3,num_8,32,num_4,0.866603224073,,,2017_Aug_10_1052,60.0099895108,MAFE4ImagesEEG,001,101242,
AFNE01.JPG,AFNE01.JPG,AFNE01.JPG,AFNE01.JPG,AFNE01.JPG,AFNE01.JPG,,,,,,,,,,,,,,,,,,,,,3,2,32,8,,,AFSA15.jpg,AFSA11.jpg,AFNE14.jpg,AFNE01.jpg,AFSA11.jpg,FS,4,num_6,32,num_2,2.25006599212,,,2017_Aug_10_1052,60.0099895108,MAFE4ImagesEEG,001,101242,
AFNE01.JPG,AFNE01.JPG,AFNE01.JPG,AFNE01.JPG,AFNE01.JPG,AFNE01.JPG,,,,,,,,,,,,,,,,,,,,,3,3,33,7,,,AFNE13.jpg,AFSA18.jpg,AFNE15.jpg,AFSA13.jpg,AFNE15.jpg,FN,3,num_2,32,num_4,1.11676030676,,,2017_Aug_10_1052,60.0099895108,MAFE4ImagesEEG,001,101242,
AFNE01.JPG,AFNE01.JPG,AFNE01.JPG,AFNE01.JPG,AFNE01.JPG,AFNE01.JPG,,,,,,,,,,,,,,,,,,,,,3,4,34,1,,,AFSA20.jpg,AFNE18.jpg,AFNE03.jpg,AFSA08.jpg,AFSA08.jpg,FS,4,num_4,16,num_4,0.883441118058,,,2017_Aug_10_1052,60.0099895108,MAFE4ImagesEEG,001,101242,
AFNE01.JPG,AFNE01.JPG,AFNE01.JPG,AFNE01.JPG,AFNE01.JPG,AFNE01.JPG,,,,,,,,,,,,,,,,,,,,,3,5,35,5,,,AFNE10.jpg,AFSA02.jpg,AFSA15.jpg,AFNE04.jpg,AFSA15.jpg,FS,4,num_2,32,num_8,0.95008546114,,,2017_Aug_10_1052,60.0099895108,MAFE4ImagesEEG,001,101242,
AFNE01.JPG,AFNE01.JPG,AFNE01.JPG,AFNE01.JPG,AFNE01.JPG,AFNE01.JPG,,,,,,,,,,,,,,,,,,,,,3,6,36,9,,,AFSA13.jpg,AFNE03.jpg,AFSA15.jpg,AFNE18.jpg,AFNE18.jpg,FN,3,num_4,32,num_6,1.41673987568,,,2017_Aug_10_1052,60.0099895108,MAFE4ImagesEEG,001,101242,
AFNE01.JPG,AFNE01.JPG,AFNE01.JPG,AFNE01.JPG,AFNE01.JPG,AFNE01.JPG,,,,,,,,,,,,,,,,,,,,,3,7,37,6,,,AFSA13.jpg,AFNE08.jpg,AFSA11.jpg,AFNE05.jpg,AFSA11.jpg,FS,4,num_2,32,num_6,1.00012444705,,,2017_Aug_10_1052,60.0099895108,MAFE4ImagesEEG,001,101242,
AFNE01.JPG,AFNE01.JPG,AFNE01.JPG,AFNE01.JPG,AFNE01.JPG,AFNE01.JPG,,,,,,,,,,,,,,,,,,,,,3,8,38,4,,,AFNE07.jpg,AFSA20.jpg,AFNE01.jpg,AFSA18.jpg,AFNE07.jpg,FN,3,num_8,16,num_8,1.5833746288,,,2017_Aug_10_1052,60.0099895108,MAFE4ImagesEEG,001,101242,
