IPosition2,IPosition3,IPosition1,IPosition6,IPosition4,IPosition5,TrialsM1.thisRepN,TrialsM1.thisTrialN,TrialsM1.thisN,TrialsM1.thisIndex,TrialsF1.thisRepN,TrialsF1.thisTrialN,TrialsF1.thisN,TrialsF1.thisIndex,TrialsM2.thisRepN,TrialsM2.thisTrialN,TrialsM2.thisN,TrialsM2.thisIndex,TrialsF2.thisRepN,TrialsF2.thisTrialN,TrialsF2.thisN,TrialsF2.thisIndex,TrialsM3.thisRepN,TrialsM3.thisTrialN,TrialsM3.thisN,TrialsM3.thisIndex,TrialsF3.thisRepN,TrialsF3.thisTrialN,TrialsF3.thisN,TrialsF3.thisIndex,InstrKey_resp.keys,InstrKey_resp.rt,Image0 _Position,Image1 _Position,Image2 _Position,Image3 _Position,Center_image,condition,code,correct_answer,accuracy,Key_Resp.keys,Key_Resp.rt,BreakKey_resp.keys,BreakKey_resp.rt,date,frameRate,expName,session,participant,
,,,,,,,,,,,,,,,,,,,,,,,,,,,,,,space,17.9158077525,,,,,,,,,,,,,,2017_Aug_15_1615,60.0009429877,MAFE4ImagesEEG,001,101274,
AFNE23.JPG,AFNE24.JPG,AFNE22.JPG,AFSA24.JPG,AFSA22.JPG,AFSA23.JPG,0,0,0,8,,,,,,,,,,,,,,,,,,,,,,,AMSA12.jpg,AMNE19.jpg,AMSA11.jpg,AMNE10.jpg,AMNE10.jpg,MN,1,num_4,32,num_6,2.8499833055,,,2017_Aug_15_1615,60.0009429877,MAFE4ImagesEEG,001,101274,
AMSA25.JPG,AMNE24.JPG,AMSA24.JPG,AMNE26.JPG,AMSA21.JPG,AMNE25.JPG,0,1,1,3,,,,,,,,,,,,,,,,,,,,,,,AMSA15.jpg,AMNE19.jpg,AMSA04.jpg,AMNE06.jpg,AMNE19.jpg,MN,1,num_6,32,num_8,1.06674978101,,,2017_Aug_15_1615,60.0009429877,MAFE4ImagesEEG,001,101274,
AMNE22.JPG,AMSA24.JPG,AMSA22.JPG,AMNE25.JPG,AMNE24.JPG,AMSA25.JPG,0,2,2,7,,,,,,,,,,,,,,,,,,,,,,,AMNE06.jpg,AMSA11.jpg,AMNE10.jpg,AMSA13.jpg,AMSA11.jpg,MS,2,num_6,16,num_6,1.10011280415,,,2017_Aug_15_1615,60.0009429877,MAFE4ImagesEEG,001,101274,
AMNE23.JPG,AMNE24.JPG,AMNE22.JPG,AMSA24.JPG,AMSA22.JPG,AMSA23.JPG,0,3,3,9,,,,,,,,,,,,,,,,,,,,,,,AMSA04.jpg,AMNE19.jpg,AMSA02.jpg,AMNE15.jpg,AMSA02.jpg,MS,2,num_2,32,num_4,1.5000771379,,,2017_Aug_15_1615,60.0009429877,MAFE4ImagesEEG,001,101274,
AMSA21.JPG,AMNE23.JPG,AMNE21.JPG,AMSA25.JPG,AMNE25.JPG,AMSA23.JPG,0,4,4,5,,,,,,,,,,,,,,,,,,,,,,,AMNE16.jpg,AMSA20.jpg,AMSA13.jpg,AMNE15.jpg,AMSA13.jpg,MS,2,num_2,32,num_6,1.38341095769,,,2017_Aug_15_1615,60.0009429877,MAFE4ImagesEEG,001,101274,
AMSA21.JPG,AMNE22.JPG,AMNE21.JPG,AMSA23.JPG,AMSA22.JPG,AMNE23.JPG,0,5,5,1,,,,,,,,,,,,,,,,,,,,,,,AMSA13.jpg,AMNE06.jpg,AMNE17.jpg,AMSA20.jpg,AMSA20.jpg,MS,2,num_4,32,num_8,1.16677085361,,,2017_Aug_15_1615,60.0009429877,MAFE4ImagesEEG,001,101274,
AFSA25.JPG,AFNE24.JPG,AFSA24.JPG,AFNE21.JPG,AFSA21.JPG,AFNE25.JPG,0,6,6,2,,,,,,,,,,,,,,,,,,,,,,,AMNE15.jpg,AMNE07.jpg,AMSA10.jpg,AMSA01.jpg,AMNE07.jpg,MN,1,num_6,32,num_2,1.15009399276,,,2017_Aug_15_1615,60.0009429877,MAFE4ImagesEEG,001,101274,
AFSA21.JPG,AFNE22.JPG,AFNE21.JPG,AFSA23.JPG,AFSA22.JPG,AFNE23.JPG,0,7,7,0,,,,,,,,,,,,,,,,,,,,,,,AMSA18.jpg,AMNE17.jpg,AMSA16.jpg,AMNE18.jpg,AMSA18.jpg,MS,2,num_8,32,num_4,1.75013639456,,,2017_Aug_15_1615,60.0009429877,MAFE4ImagesEEG,001,101274,
AFNE22.JPG,AFSA24.JPG,AFSA22.JPG,AFNE25.JPG,AFNE24.JPG,AFSA25.JPG,0,8,8,6,,,,,,,,,,,,,,,,,,,,,,,AMSA13.jpg,AMSA04.jpg,AMNE13.jpg,AMNE01.jpg,AMNE01.jpg,MN,1,num_4,32,num_8,1.38357325198,,,2017_Aug_15_1615,60.0009429877,MAFE4ImagesEEG,001,101274,
AFSA21.JPG,AFNE23.JPG,AFNE21.JPG,AFSA25.JPG,AFNE25.JPG,AFSA23.JPG,0,9,9,4,,,,,,,,,,,,,,,,,,,,,,,AMNE20.jpg,AMSA06.jpg,AMSA17.jpg,AMNE19.jpg,AMNE20.jpg,MN,1,num_8,16,num_8,1.85020269145,,,2017_Aug_15_1615,60.0009429877,MAFE4ImagesEEG,001,101274,
AMNE22.JPG,AMSA24.JPG,AMSA22.JPG,AMNE25.JPG,AMNE24.JPG,AMSA25.JPG,,,,,0,0,0,7,,,,,,,,,,,,,,,,,,,AFSA06.jpg,AFSA20.jpg,AFNE13.jpg,AFNE18.jpg,AFNE18.jpg,FN,3,num_4,16,num_4,0.96682396812,,,2017_Aug_15_1615,60.0009429877,MAFE4ImagesEEG,001,101274,
AMSA21.JPG,AMNE23.JPG,AMNE21.JPG,AMSA25.JPG,AMNE25.JPG,AMSA23.JPG,,,,,0,1,1,5,,,,,,,,,,,,,,,,,,,AFNE17.jpg,AFSA16.jpg,AFSA17.jpg,AFNE01.jpg,AFSA16.jpg,FS,4,num_6,32,num_8,2.03335692908,,,2017_Aug_15_1615,60.0009429877,MAFE4ImagesEEG,001,101274,
AFSA21.JPG,AFNE23.JPG,AFNE21.JPG,AFSA25.JPG,AFNE25.JPG,AFSA23.JPG,,,,,0,2,2,4,,,,,,,,,,,,,,,,,,,AFNE03.jpg,AFSA12.jpg,AFNE13.jpg,AFSA05.jpg,AFSA05.jpg,FS,4,num_4,32,num_2,1.20007742656,,,2017_Aug_15_1615,60.0009429877,MAFE4ImagesEEG,001,101274,
AFSA21.JPG,AFNE22.JPG,AFNE21.JPG,AFSA23.JPG,AFSA22.JPG,AFNE23.JPG,,,,,0,3,3,0,,,,,,,,,,,,,,,,,,,AFNE03.jpg,AFSA02.jpg,AFSA15.jpg,AFNE11.jpg,AFSA02.jpg,FS,4,num_6,32,num_8,1.08342439668,,,2017_Aug_15_1615,60.0009429877,MAFE4ImagesEEG,001,101274,
AMSA21.JPG,AMNE22.JPG,AMNE21.JPG,AMSA23.JPG,AMSA22.JPG,AMNE23.JPG,,,,,0,4,4,1,,,,,,,,,,,,,,,,,,,AFSA17.jpg,AFSA14.jpg,AFNE13.jpg,AFNE15.jpg,AFNE13.jpg,FN,3,num_2,16,num_2,1.383533801,,,2017_Aug_15_1615,60.0009429877,MAFE4ImagesEEG,001,101274,
AFSA25.JPG,AFNE24.JPG,AFSA24.JPG,AFNE21.JPG,AFSA21.JPG,AFNE25.JPG,,,,,0,5,5,2,,,,,,,,,,,,,,,,,,,AFNE09.jpg,AFSA10.jpg,AFSA05.jpg,AFNE03.jpg,AFNE09.jpg,FN,3,num_8,16,num_8,1.2334048476,,,2017_Aug_15_1615,60.0009429877,MAFE4ImagesEEG,001,101274,
AFNE23.JPG,AFNE24.JPG,AFNE22.JPG,AFSA24.JPG,AFSA22.JPG,AFSA23.JPG,,,,,0,6,6,8,,,,,,,,,,,,,,,,,,,AFNE15.jpg,AFNE16.jpg,AFSA07.jpg,AFSA10.jpg,AFNE16.jpg,FN,3,num_6,32,num_2,2.63335121991,,,2017_Aug_15_1615,60.0009429877,MAFE4ImagesEEG,001,101274,
AMNE23.JPG,AMNE24.JPG,AMNE22.JPG,AMSA24.JPG,AMSA22.JPG,AMSA23.JPG,,,,,0,7,7,9,,,,,,,,,,,,,,,,,,,AFNE20.jpg,AFNE01.jpg,AFSA04.jpg,AFSA19.jpg,AFSA04.jpg,FS,4,num_2,16,num_2,0.950191369353,,,2017_Aug_15_1615,60.0009429877,MAFE4ImagesEEG,001,101274,
AFNE22.JPG,AFSA24.JPG,AFSA22.JPG,AFNE25.JPG,AFNE24.JPG,AFSA25.JPG,,,,,0,8,8,6,,,,,,,,,,,,,,,,,,,AFSA03.jpg,AFNE10.jpg,AFSA14.jpg,AFNE09.jpg,AFSA03.jpg,FS,4,num_8,32,num_6,2.03361576603,,,2017_Aug_15_1615,60.0009429877,MAFE4ImagesEEG,001,101274,
AMSA25.JPG,AMNE24.JPG,AMSA24.JPG,AMNE26.JPG,AMSA21.JPG,AMNE25.JPG,,,,,0,9,9,3,,,,,,,,,,,,,,,,,,,AFSA10.jpg,AFSA17.jpg,AFNE01.jpg,AFNE11.jpg,AFSA17.jpg,FS,4,num_6,32,num_4,1.16668681982,,,2017_Aug_15_1615,60.0009429877,MAFE4ImagesEEG,001,101274,
AFNE23.JPG,AFNE24.JPG,AFNE22.JPG,AFSA24.JPG,AFSA22.JPG,AFSA23.JPG,,,,,,,,,0,0,0,8,,,,,,,,,,,,,,,AMSA15.jpg,AMNE17.jpg,AMSA13.jpg,AMNE18.jpg,AMSA15.jpg,MS,2,num_8,32,num_2,1.38341705175,,,2017_Aug_15_1615,60.0009429877,MAFE4ImagesEEG,001,101274,
AFSA25.JPG,AFNE24.JPG,AFSA24.JPG,AFNE21.JPG,AFSA21.JPG,AFNE25.JPG,,,,,,,,,0,1,1,2,,,,,,,,,,,,,,,AMNE04.jpg,AMSA11.jpg,AMNE07.jpg,AMSA06.jpg,AMSA06.jpg,MS,2,num_4,32,num_6,1.25006952033,,,2017_Aug_15_1615,60.0009429877,MAFE4ImagesEEG,001,101274,
AMSA25.JPG,AMNE24.JPG,AMSA24.JPG,AMNE26.JPG,AMSA21.JPG,AMNE25.JPG,,,,,,,,,0,2,2,3,,,,,,,,,,,,,,,AMNE16.jpg,AMNE05.jpg,AMSA01.jpg,AMSA17.jpg,AMNE05.jpg,MN,1,num_6,32,num_8,1.06691143382,,,2017_Aug_15_1615,60.0009429877,MAFE4ImagesEEG,001,101274,
AMNE23.JPG,AMNE24.JPG,AMNE22.JPG,AMSA24.JPG,AMSA22.JPG,AMSA23.JPG,,,,,,,,,0,3,3,9,,,,,,,,,,,,,,,AMSA11.jpg,AMNE15.jpg,AMSA17.jpg,AMNE06.jpg,AMNE06.jpg,MN,1,num_4,16,num_4,2.00008659971,,,2017_Aug_15_1615,60.0009429877,MAFE4ImagesEEG,001,101274,
AMSA21.JPG,AMNE22.JPG,AMNE21.JPG,AMSA23.JPG,AMSA22.JPG,AMNE23.JPG,,,,,,,,,0,4,4,1,,,,,,,,,,,,,,,AMNE16.jpg,AMSA05.jpg,AMSA15.jpg,AMNE18.jpg,AMNE18.jpg,MN,1,num_4,32,num_8,1.11671429116,,,2017_Aug_15_1615,60.0009429877,MAFE4ImagesEEG,001,101274,
AFSA21.JPG,AFNE22.JPG,AFNE21.JPG,AFSA23.JPG,AFSA22.JPG,AFNE23.JPG,,,,,,,,,0,5,5,0,,,,,,,,,,,,,,,AMSA04.jpg,AMNE01.jpg,AMNE15.jpg,AMSA13.jpg,AMSA04.jpg,MS,2,num_8,32,num_6,1.38339556218,,,2017_Aug_15_1615,60.0009429877,MAFE4ImagesEEG,001,101274,
AMNE22.JPG,AMSA24.JPG,AMSA22.JPG,AMNE25.JPG,AMNE24.JPG,AMSA25.JPG,,,,,,,,,0,6,6,7,,,,,,,,,,,,,,,AMSA01.jpg,AMNE16.jpg,AMNE05.jpg,AMSA05.jpg,AMNE05.jpg,MN,1,num_2,16,num_2,0.883445116458,,,2017_Aug_15_1615,60.0009429877,MAFE4ImagesEEG,001,101274,
AFNE22.JPG,AFSA24.JPG,AFSA22.JPG,AFNE25.JPG,AFNE24.JPG,AFSA25.JPG,,,,,,,,,0,7,7,6,,,,,,,,,,,,,,,AMNE13.jpg,AMNE05.jpg,AMSA04.jpg,AMSA17.jpg,AMNE05.jpg,MN,1,num_6,16,num_6,1.18343745079,,,2017_Aug_15_1615,60.0009429877,MAFE4ImagesEEG,001,101274,
AMSA21.JPG,AMNE23.JPG,AMNE21.JPG,AMSA25.JPG,AMNE25.JPG,AMSA23.JPG,,,,,,,,,0,8,8,5,,,,,,,,,,,,,,,AMSA06.jpg,AMNE02.jpg,AMSA14.jpg,AMNE08.jpg,AMNE08.jpg,MN,1,num_4,32,num_8,1.14994196215,,,2017_Aug_15_1615,60.0009429877,MAFE4ImagesEEG,001,101274,
AFSA21.JPG,AFNE23.JPG,AFNE21.JPG,AFSA25.JPG,AFNE25.JPG,AFSA23.JPG,,,,,,,,,0,9,9,4,,,,,,,,,,,,,,,AMSA16.jpg,AMNE06.jpg,AMNE12.jpg,AMSA05.jpg,AMNE12.jpg,MN,1,num_2,32,num_6,0.666813351636,,,2017_Aug_15_1615,60.0009429877,MAFE4ImagesEEG,001,101274,
AMSA21.JPG,AMNE22.JPG,AMNE21.JPG,AMSA23.JPG,AMSA22.JPG,AMNE23.JPG,,,,,,,,,,,,,0,0,0,1,,,,,,,,,,,AFSA12.jpg,AFSA19.jpg,AFNE15.jpg,AFNE04.jpg,AFNE15.jpg,FN,3,num_2,32,num_8,1.25004482338,,,2017_Aug_15_1615,60.0009429877,MAFE4ImagesEEG,001,101274,
AFNE23.JPG,AFNE24.JPG,AFNE22.JPG,AFSA24.JPG,AFSA22.JPG,AFSA23.JPG,,,,,,,,,,,,,0,1,1,8,,,,,,,,,,,AFSA06.jpg,AFNE11.jpg,AFNE08.jpg,AFSA07.jpg,AFSA06.jpg,FS,4,num_8,32,num_4,1.23343852526,,,2017_Aug_15_1615,60.0009429877,MAFE4ImagesEEG,001,101274,
AFSA21.JPG,AFNE23.JPG,AFNE21.JPG,AFSA25.JPG,AFNE25.JPG,AFSA23.JPG,,,,,,,,,,,,,0,2,2,4,,,,,,,,,,,AFNE12.jpg,AFNE10.jpg,AFSA03.jpg,AFSA11.jpg,AFSA11.jpg,FS,4,num_4,16,num_4,0.866848119811,,,2017_Aug_15_1615,60.0009429877,MAFE4ImagesEEG,001,101274,
AMNE22.JPG,AMSA24.JPG,AMSA22.JPG,AMNE25.JPG,AMNE24.JPG,AMSA25.JPG,,,,,,,,,,,,,0,3,3,7,,,,,,,,,,,AFNE12.jpg,AFSA05.jpg,AFNE06.jpg,AFSA09.jpg,AFSA09.jpg,FS,4,num_4,32,num_2,1.26674317378,,,2017_Aug_15_1615,60.0009429877,MAFE4ImagesEEG,001,101274,
AMSA25.JPG,AMNE24.JPG,AMSA24.JPG,AMNE26.JPG,AMSA21.JPG,AMNE25.JPG,,,,,,,,,,,,,0,4,4,3,,,,,,,,,,,AFSA20.jpg,AFSA07.jpg,AFNE20.jpg,AFNE10.jpg,AFNE10.jpg,FN,3,num_4,32,num_8,1.10007752279,,,2017_Aug_15_1615,60.0009429877,MAFE4ImagesEEG,001,101274,
AFSA21.JPG,AFNE22.JPG,AFNE21.JPG,AFSA23.JPG,AFSA22.JPG,AFNE23.JPG,,,,,,,,,,,,,0,5,5,0,,,,,,,,,,,AFSA03.jpg,AFSA06.jpg,AFNE18.jpg,AFNE17.jpg,AFSA03.jpg,FS,4,num_8,32,num_6,0.949872233337,,,2017_Aug_15_1615,60.0009429877,MAFE4ImagesEEG,001,101274,
AFNE22.JPG,AFSA24.JPG,AFSA22.JPG,AFNE25.JPG,AFNE24.JPG,AFSA25.JPG,,,,,,,,,,,,,0,6,6,6,,,,,,,,,,,AFNE13.jpg,AFSA13.jpg,AFSA17.jpg,AFNE14.jpg,AFSA17.jpg,FS,4,num_2,32,num_4,0.833472587823,,,2017_Aug_15_1615,60.0009429877,MAFE4ImagesEEG,001,101274,
AMSA21.JPG,AMNE23.JPG,AMNE21.JPG,AMSA25.JPG,AMNE25.JPG,AMSA23.JPG,,,,,,,,,,,,,0,7,7,5,,,,,,,,,,,AFNE06.jpg,AFNE16.jpg,AFSA16.jpg,AFSA02.jpg,AFSA02.jpg,FS,4,num_4,32,num_8,1.38340197697,,,2017_Aug_15_1615,60.0009429877,MAFE4ImagesEEG,001,101274,
AFSA25.JPG,AFNE24.JPG,AFSA24.JPG,AFNE21.JPG,AFSA21.JPG,AFNE25.JPG,,,,,,,,,,,,,0,8,8,2,,,,,,,,,,,AFSA18.jpg,AFNE02.jpg,AFNE17.jpg,AFSA07.jpg,AFSA18.jpg,FS,4,num_8,32,num_4,1.06676517653,,,2017_Aug_15_1615,60.0009429877,MAFE4ImagesEEG,001,101274,
AMNE23.JPG,AMNE24.JPG,AMNE22.JPG,AMSA24.JPG,AMSA22.JPG,AMSA23.JPG,,,,,,,,,,,,,0,9,9,9,,,,,,,,,,,AFNE17.jpg,AFSA09.jpg,AFSA15.jpg,AFNE13.jpg,AFSA15.jpg,FS,4,num_2,32,num_4,0.933454209444,,,2017_Aug_15_1615,60.0009429877,MAFE4ImagesEEG,001,101274,
AMSA25.JPG,AMNE24.JPG,AMSA24.JPG,AMNE26.JPG,AMSA21.JPG,AMNE25.JPG,,,,,,,,,,,,,,,,,0,0,0,3,,,,,,,AMSA13.jpg,AMNE09.jpg,AMNE05.jpg,AMSA10.jpg,AMNE09.jpg,MN,1,num_6,16,num_6,1.96654203792,,,2017_Aug_15_1615,60.0009429877,MAFE4ImagesEEG,001,101274,
AFSA25.JPG,AFNE24.JPG,AFSA24.JPG,AFNE21.JPG,AFSA21.JPG,AFNE25.JPG,,,,,,,,,,,,,,,,,0,1,1,2,,,,,,,AMNE01.jpg,AMNE03.jpg,AMSA15.jpg,AMSA12.jpg,AMSA12.jpg,MS,2,num_4,32,num_6,0.766763861495,,,2017_Aug_15_1615,60.0009429877,MAFE4ImagesEEG,001,101274,
AFNE23.JPG,AFNE24.JPG,AFNE22.JPG,AFSA24.JPG,AFSA22.JPG,AFSA23.JPG,,,,,,,,,,,,,,,,,0,2,2,8,,,,,,,AMNE14.jpg,AMSA18.jpg,AMNE11.jpg,AMSA05.jpg,AMSA05.jpg,MS,2,num_4,32,num_2,1.68354730413,,,2017_Aug_15_1615,60.0009429877,MAFE4ImagesEEG,001,101274,
AMSA21.JPG,AMNE23.JPG,AMNE21.JPG,AMSA25.JPG,AMNE25.JPG,AMSA23.JPG,,,,,,,,,,,,,,,,,0,3,3,5,,,,,,,AMSA01.jpg,AMSA15.jpg,AMNE20.jpg,AMNE05.jpg,AMSA01.jpg,MS,2,num_8,16,num_8,1.13340590605,,,2017_Aug_15_1615,60.0009429877,MAFE4ImagesEEG,001,101274,
AMSA21.JPG,AMNE22.JPG,AMNE21.JPG,AMSA23.JPG,AMSA22.JPG,AMNE23.JPG,,,,,,,,,,,,,,,,,0,4,4,1,,,,,,,AMSA16.jpg,AMNE11.jpg,AMSA20.jpg,AMNE17.jpg,AMNE17.jpg,MN,1,num_4,32,num_6,1.60006260838,,,2017_Aug_15_1615,60.0009429877,MAFE4ImagesEEG,001,101274,
AFSA21.JPG,AFNE22.JPG,AFNE21.JPG,AFSA23.JPG,AFSA22.JPG,AFNE23.JPG,,,,,,,,,,,,,,,,,0,5,5,0,,,,,,,AMNE13.jpg,AMSA19.jpg,AMNE04.jpg,AMSA09.jpg,AMSA19.jpg,MS,2,num_6,32,num_8,1.01678559161,,,2017_Aug_15_1615,60.0009429877,MAFE4ImagesEEG,001,101274,
AMNE22.JPG,AMSA24.JPG,AMSA22.JPG,AMNE25.JPG,AMNE24.JPG,AMSA25.JPG,,,,,,,,,,,,,,,,,0,6,6,7,,,,,,,AMNE07.jpg,AMNE16.jpg,AMSA16.jpg,AMSA04.jpg,AMNE07.jpg,MN,1,num_8,32,num_4,0.783436231985,,,2017_Aug_15_1615,60.0009429877,MAFE4ImagesEEG,001,101274,
AFNE22.JPG,AFSA24.JPG,AFSA22.JPG,AFNE25.JPG,AFNE24.JPG,AFSA25.JPG,,,,,,,,,,,,,,,,,0,7,7,6,,,,,,,AMNE11.jpg,AMNE14.jpg,AMSA14.jpg,AMSA08.jpg,AMNE11.jpg,MN,1,num_8,16,num_8,1.60006934393,,,2017_Aug_15_1615,60.0009429877,MAFE4ImagesEEG,001,101274,
AMNE23.JPG,AMNE24.JPG,AMNE22.JPG,AMSA24.JPG,AMSA22.JPG,AMSA23.JPG,,,,,,,,,,,,,,,,,0,8,8,9,,,,,,,AMSA10.jpg,AMNE19.jpg,AMSA03.jpg,AMNE05.jpg,AMSA10.jpg,MS,2,num_8,16,num_8,1.43323498385,,,2017_Aug_15_1615,60.0009429877,MAFE4ImagesEEG,001,101274,
AFSA21.JPG,AFNE23.JPG,AFNE21.JPG,AFSA25.JPG,AFNE25.JPG,AFSA23.JPG,,,,,,,,,,,,,,,,,0,9,9,4,,,,,,,AMSA09.jpg,AMNE03.jpg,AMNE01.jpg,AMSA05.jpg,AMNE03.jpg,MN,1,num_6,16,num_6,0.783737406557,,,2017_Aug_15_1615,60.0009429877,MAFE4ImagesEEG,001,101274,
AFSA21.JPG,AFNE23.JPG,AFNE21.JPG,AFSA25.JPG,AFNE25.JPG,AFSA23.JPG,,,,,,,,,,,,,,,,,,,,,0,0,0,4,,,AFSA05.jpg,AFNE01.jpg,AFSA01.jpg,AFNE13.jpg,AFSA05.jpg,FS,4,num_8,16,num_8,1.16680998386,,,2017_Aug_15_1615,60.0009429877,MAFE4ImagesEEG,001,101274,
AMSA25.JPG,AMNE24.JPG,AMSA24.JPG,AMNE26.JPG,AMSA21.JPG,AMNE25.JPG,,,,,,,,,,,,,,,,,,,,,0,1,1,3,,,AFNE05.jpg,AFNE01.jpg,AFSA01.jpg,AFSA04.jpg,AFNE05.jpg,FN,3,num_8,32,num_6,0.833425759818,,,2017_Aug_15_1615,60.0009429877,MAFE4ImagesEEG,001,101274,
AMNE22.JPG,AMSA24.JPG,AMSA22.JPG,AMNE25.JPG,AMNE24.JPG,AMSA25.JPG,,,,,,,,,,,,,,,,,,,,,0,2,2,7,,,AFNE14.jpg,AFSA18.jpg,AFSA07.jpg,AFNE15.jpg,AFNE14.jpg,FN,3,num_8,16,num_8,0.983478377166,,,2017_Aug_15_1615,60.0009429877,MAFE4ImagesEEG,001,101274,
AFSA25.JPG,AFNE24.JPG,AFSA24.JPG,AFNE21.JPG,AFSA21.JPG,AFNE25.JPG,,,,,,,,,,,,,,,,,,,,,0,3,3,2,,,AFSA08.jpg,AFSA09.jpg,AFNE08.jpg,AFNE04.jpg,AFSA09.jpg,FS,4,num_6,16,num_6,2.11672263041,,,2017_Aug_15_1615,60.0009429877,MAFE4ImagesEEG,001,101274,
AMSA21.JPG,AMNE23.JPG,AMNE21.JPG,AMSA25.JPG,AMNE25.JPG,AMSA23.JPG,,,,,,,,,,,,,,,,,,,,,0,4,4,5,,,AFNE10.jpg,AFSA18.jpg,AFNE06.jpg,AFSA14.jpg,AFSA18.jpg,FS,4,num_6,16,num_6,0.733480381808,,,2017_Aug_15_1615,60.0009429877,MAFE4ImagesEEG,001,101274,
AFNE23.JPG,AFNE24.JPG,AFNE22.JPG,AFSA24.JPG,AFSA22.JPG,AFSA23.JPG,,,,,,,,,,,,,,,,,,,,,0,5,5,8,,,AFSA01.jpg,AFSA19.jpg,AFNE11.jpg,AFNE01.jpg,AFSA01.jpg,FS,4,num_8,16,num_8,1.20014991373,,,2017_Aug_15_1615,60.0009429877,MAFE4ImagesEEG,001,101274,
AMSA21.JPG,AMNE22.JPG,AMNE21.JPG,AMSA23.JPG,AMSA22.JPG,AMNE23.JPG,,,,,,,,,,,,,,,,,,,,,0,6,6,1,,,AFSA02.jpg,AFNE04.jpg,AFSA16.jpg,AFNE13.jpg,AFNE13.jpg,FN,3,num_4,16,num_4,0.966555508974,,,2017_Aug_15_1615,60.0009429877,MAFE4ImagesEEG,001,101274,
AFSA21.JPG,AFNE22.JPG,AFNE21.JPG,AFSA23.JPG,AFSA22.JPG,AFNE23.JPG,,,,,,,,,,,,,,,,,,,,,0,7,7,0,,,AFSA09.jpg,AFSA05.jpg,AFNE02.jpg,AFNE20.jpg,AFNE02.jpg,FN,3,num_2,16,num_2,1.18341756493,,,2017_Aug_15_1615,60.0009429877,MAFE4ImagesEEG,001,101274,
AFNE22.JPG,AFSA24.JPG,AFSA22.JPG,AFNE25.JPG,AFNE24.JPG,AFSA25.JPG,,,,,,,,,,,,,,,,,,,,,0,8,8,6,,,AFNE01.jpg,AFSA13.jpg,AFNE03.jpg,AFSA04.jpg,AFSA04.jpg,FS,4,num_4,16,num_4,1.1501225386,,,2017_Aug_15_1615,60.0009429877,MAFE4ImagesEEG,001,101274,
AMNE23.JPG,AMNE24.JPG,AMNE22.JPG,AMSA24.JPG,AMSA22.JPG,AMSA23.JPG,,,,,,,,,,,,,,,,,,,,,0,9,9,9,,,AFNE17.jpg,AFNE13.jpg,AFSA01.jpg,AFSA06.jpg,AFNE13.jpg,FN,3,num_6,32,num_8,1.38361206149,,,2017_Aug_15_1615,60.0009429877,MAFE4ImagesEEG,001,101274,
,,,,,,,,,,,,,,,,,,,,,,,,,,,,,,,,,,,,,,,,,,,space,5.53338339011,2017_Aug_15_1615,60.0009429877,MAFE4ImagesEEG,001,101274,
AFNE01.JPG,AFNE01.JPG,AFNE01.JPG,AFNE01.JPG,AFNE01.JPG,AFNE01.JPG,0,0,0,6,,,,,,,,,,,,,,,,,,,,,,,AMSA11.jpg,AMSA18.jpg,AMNE11.jpg,AMNE05.jpg,AMNE11.jpg,MN,1,num_2,16,num_2,1.18344546927,,,2017_Aug_15_1615,60.0009429877,MAFE4ImagesEEG,001,101274,
AFNE01.JPG,AFNE01.JPG,AFNE01.JPG,AFNE01.JPG,AFNE01.JPG,AFNE01.JPG,0,1,1,3,,,,,,,,,,,,,,,,,,,,,,,AMNE06.jpg,AMSA18.jpg,AMSA08.jpg,AMNE08.jpg,AMSA18.jpg,MS,2,num_6,32,num_8,1.966710747,,,2017_Aug_15_1615,60.0009429877,MAFE4ImagesEEG,001,101274,
AFNE01.JPG,AFNE01.JPG,AFNE01.JPG,AFNE01.JPG,AFNE01.JPG,AFNE01.JPG,0,2,2,5,,,,,,,,,,,,,,,,,,,,,,,AMSA17.jpg,AMNE19.jpg,AMNE15.jpg,AMSA07.jpg,AMNE19.jpg,MN,1,num_6,16,num_6,1.04995103908,,,2017_Aug_15_1615,60.0009429877,MAFE4ImagesEEG,001,101274,
AFNE01.JPG,AFNE01.JPG,AFNE01.JPG,AFNE01.JPG,AFNE01.JPG,AFNE01.JPG,0,3,3,2,,,,,,,,,,,,,,,,,,,,,,,AMSA10.jpg,AMNE13.jpg,AMSA12.jpg,AMNE01.jpg,AMNE01.jpg,MN,1,num_4,32,num_8,1.01677981828,,,2017_Aug_15_1615,60.0009429877,MAFE4ImagesEEG,001,101274,
AFNE01.JPG,AFNE01.JPG,AFNE01.JPG,AFNE01.JPG,AFNE01.JPG,AFNE01.JPG,0,4,4,4,,,,,,,,,,,,,,,,,,,,,,,AMNE03.jpg,AMNE13.jpg,AMSA09.jpg,AMSA03.jpg,AMNE13.jpg,MN,1,num_6,16,num_6,0.800196164404,,,2017_Aug_15_1615,60.0009429877,MAFE4ImagesEEG,001,101274,
AFNE01.JPG,AFNE01.JPG,AFNE01.JPG,AFNE01.JPG,AFNE01.JPG,AFNE01.JPG,0,5,5,9,,,,,,,,,,,,,,,,,,,,,,,AMSA14.jpg,AMNE05.jpg,AMSA05.jpg,AMNE01.jpg,AMSA05.jpg,MS,2,num_2,32,num_8,0.916747519805,,,2017_Aug_15_1615,60.0009429877,MAFE4ImagesEEG,001,101274,
AFNE01.JPG,AFNE01.JPG,AFNE01.JPG,AFNE01.JPG,AFNE01.JPG,AFNE01.JPG,0,6,6,7,,,,,,,,,,,,,,,,,,,,,,,AMNE09.jpg,AMSA11.jpg,AMSA08.jpg,AMNE01.jpg,AMSA08.jpg,MS,2,num_2,32,num_6,1.20008287914,,,2017_Aug_15_1615,60.0009429877,MAFE4ImagesEEG,001,101274,
AFNE01.JPG,AFNE01.JPG,AFNE01.JPG,AFNE01.JPG,AFNE01.JPG,AFNE01.JPG,0,7,7,1,,,,,,,,,,,,,,,,,,,,,,,AMNE16.jpg,AMSA14.jpg,AMSA07.jpg,AMNE10.jpg,AMSA14.jpg,MS,2,num_6,16,num_6,0.833476115964,,,2017_Aug_15_1615,60.0009429877,MAFE4ImagesEEG,001,101274,
AFNE01.JPG,AFNE01.JPG,AFNE01.JPG,AFNE01.JPG,AFNE01.JPG,AFNE01.JPG,0,8,8,8,,,,,,,,,,,,,,,,,,,,,,,AMSA07.jpg,AMNE19.jpg,AMSA14.jpg,AMNE04.jpg,AMSA14.jpg,MS,2,num_2,16,num_2,1.55005447763,,,2017_Aug_15_1615,60.0009429877,MAFE4ImagesEEG,001,101274,
AFNE01.JPG,AFNE01.JPG,AFNE01.JPG,AFNE01.JPG,AFNE01.JPG,AFNE01.JPG,0,9,9,0,,,,,,,,,,,,,,,,,,,,,,,AMNE19.jpg,AMNE10.jpg,AMSA09.jpg,AMSA17.jpg,AMSA17.jpg,MS,2,num_4,32,num_8,1.05009537196,,,2017_Aug_15_1615,60.0009429877,MAFE4ImagesEEG,001,101274,
AFNE01.JPG,AFNE01.JPG,AFNE01.JPG,AFNE01.JPG,AFNE01.JPG,AFNE01.JPG,1,0,10,9,,,,,,,,,,,,,,,,,,,,,,,AMSA04.jpg,AMNE15.jpg,AMSA09.jpg,AMNE12.jpg,AMSA04.jpg,MS,2,num_8,32,num_2,1.36672030503,,,2017_Aug_15_1615,60.0009429877,MAFE4ImagesEEG,001,101274,
AFNE01.JPG,AFNE01.JPG,AFNE01.JPG,AFNE01.JPG,AFNE01.JPG,AFNE01.JPG,1,1,11,7,,,,,,,,,,,,,,,,,,,,,,,AMNE01.jpg,AMSA02.jpg,AMSA19.jpg,AMNE16.jpg,AMSA02.jpg,MS,2,num_6,16,num_6,0.833483813709,,,2017_Aug_15_1615,60.0009429877,MAFE4ImagesEEG,001,101274,
AFNE01.JPG,AFNE01.JPG,AFNE01.JPG,AFNE01.JPG,AFNE01.JPG,AFNE01.JPG,1,2,12,1,,,,,,,,,,,,,,,,,,,,,,,AMSA19.jpg,AMNE02.jpg,AMSA11.jpg,AMNE05.jpg,AMSA11.jpg,MS,2,num_2,16,num_2,0.999982359324,,,2017_Aug_15_1615,60.0009429877,MAFE4ImagesEEG,001,101274,
AFNE01.JPG,AFNE01.JPG,AFNE01.JPG,AFNE01.JPG,AFNE01.JPG,AFNE01.JPG,1,3,13,0,,,,,,,,,,,,,,,,,,,,,,,AMNE09.jpg,AMNE17.jpg,AMSA06.jpg,AMSA09.jpg,AMSA06.jpg,MS,2,num_2,32,num_4,2.05004052546,,,2017_Aug_15_1615,60.0009429877,MAFE4ImagesEEG,001,101274,
AFNE01.JPG,AFNE01.JPG,AFNE01.JPG,AFNE01.JPG,AFNE01.JPG,AFNE01.JPG,1,4,14,6,,,,,,,,,,,,,,,,,,,,,,,AMSA03.jpg,AMNE10.jpg,AMNE17.jpg,AMSA16.jpg,AMSA03.jpg,MS,2,num_8,32,num_2,1.05011205042,,,2017_Aug_15_1615,60.0009429877,MAFE4ImagesEEG,001,101274,
AFNE01.JPG,AFNE01.JPG,AFNE01.JPG,AFNE01.JPG,AFNE01.JPG,AFNE01.JPG,1,5,15,2,,,,,,,,,,,,,,,,,,,,,,,AMSA03.jpg,AMNE11.jpg,AMNE13.jpg,AMSA08.jpg,AMSA08.jpg,MS,2,num_4,32,num_2,0.833451419006,,,2017_Aug_15_1615,60.0009429877,MAFE4ImagesEEG,001,101274,
AFNE01.JPG,AFNE01.JPG,AFNE01.JPG,AFNE01.JPG,AFNE01.JPG,AFNE01.JPG,1,6,16,8,,,,,,,,,,,,,,,,,,,,,,,AMSA13.jpg,AMNE19.jpg,AMSA04.jpg,AMNE08.jpg,AMSA04.jpg,MS,2,num_2,32,num_8,1.05011301264,,,2017_Aug_15_1615,60.0009429877,MAFE4ImagesEEG,001,101274,
AFNE01.JPG,AFNE01.JPG,AFNE01.JPG,AFNE01.JPG,AFNE01.JPG,AFNE01.JPG,1,7,17,3,,,,,,,,,,,,,,,,,,,,,,,AMNE20.jpg,AMSA14.jpg,AMSA02.jpg,AMNE07.jpg,AMSA02.jpg,MS,2,num_2,16,num_2,1.00011546629,,,2017_Aug_15_1615,60.0009429877,MAFE4ImagesEEG,001,101274,
AFNE01.JPG,AFNE01.JPG,AFNE01.JPG,AFNE01.JPG,AFNE01.JPG,AFNE01.JPG,1,8,18,5,,,,,,,,,,,,,,,,,,,,,,,AMNE06.jpg,AMNE18.jpg,AMSA16.jpg,AMSA08.jpg,AMSA08.jpg,MS,2,num_4,16,num_4,1.26672104273,,,2017_Aug_15_1615,60.0009429877,MAFE4ImagesEEG,001,101274,
AFNE01.JPG,AFNE01.JPG,AFNE01.JPG,AFNE01.JPG,AFNE01.JPG,AFNE01.JPG,1,9,19,4,,,,,,,,,,,,,,,,,,,,,,,AMNE20.jpg,AMNE15.jpg,AMSA04.jpg,AMSA19.jpg,AMSA04.jpg,MS,2,num_2,32,num_4,1.31673430534,,,2017_Aug_15_1615,60.0009429877,MAFE4ImagesEEG,001,101274,
AFNE01.JPG,AFNE01.JPG,AFNE01.JPG,AFNE01.JPG,AFNE01.JPG,AFNE01.JPG,2,0,20,0,,,,,,,,,,,,,,,,,,,,,,,AMNE07.jpg,AMSA06.jpg,AMSA09.jpg,AMNE10.jpg,AMNE07.jpg,MN,1,num_8,16,num_8,1.15010361497,,,2017_Aug_15_1615,60.0009429877,MAFE4ImagesEEG,001,101274,
AFNE01.JPG,AFNE01.JPG,AFNE01.JPG,AFNE01.JPG,AFNE01.JPG,AFNE01.JPG,2,1,21,2,,,,,,,,,,,,,,,,,,,,,,,AMSA05.jpg,AMNE19.jpg,AMNE02.jpg,AMSA13.jpg,AMNE02.jpg,MN,1,num_2,16,num_2,1.08357674805,,,2017_Aug_15_1615,60.0009429877,MAFE4ImagesEEG,001,101274,
AFNE01.JPG,AFNE01.JPG,AFNE01.JPG,AFNE01.JPG,AFNE01.JPG,AFNE01.JPG,2,2,22,3,,,,,,,,,,,,,,,,,,,,,,,AMNE05.jpg,AMSA11.jpg,AMNE01.jpg,AMSA03.jpg,AMSA03.jpg,MS,2,num_4,32,num_8,0.983642595907,,,2017_Aug_15_1615,60.0009429877,MAFE4ImagesEEG,001,101274,
AFNE01.JPG,AFNE01.JPG,AFNE01.JPG,AFNE01.JPG,AFNE01.JPG,AFNE01.JPG,2,3,23,4,,,,,,,,,,,,,,,,,,,,,,,AMNE12.jpg,AMSA12.jpg,AMNE04.jpg,AMSA04.jpg,AMSA04.jpg,MS,2,num_4,16,num_4,0.816780331472,,,2017_Aug_15_1615,60.0009429877,MAFE4ImagesEEG,001,101274,
AFNE01.JPG,AFNE01.JPG,AFNE01.JPG,AFNE01.JPG,AFNE01.JPG,AFNE01.JPG,2,4,24,5,,,,,,,,,,,,,,,,,,,,,,,AMNE04.jpg,AMSA09.jpg,AMSA08.jpg,AMNE10.jpg,AMNE10.jpg,MN,1,num_4,32,num_6,2.06664329543,,,2017_Aug_15_1615,60.0009429877,MAFE4ImagesEEG,001,101274,
AFNE01.JPG,AFNE01.JPG,AFNE01.JPG,AFNE01.JPG,AFNE01.JPG,AFNE01.JPG,2,5,25,8,,,,,,,,,,,,,,,,,,,,,,,AMNE02.jpg,AMSA05.jpg,AMNE01.jpg,AMSA02.jpg,AMSA02.jpg,MS,2,num_4,16,num_4,0.85015971234,,,2017_Aug_15_1615,60.0009429877,MAFE4ImagesEEG,001,101274,
AFNE01.JPG,AFNE01.JPG,AFNE01.JPG,AFNE01.JPG,AFNE01.JPG,AFNE01.JPG,2,6,26,9,,,,,,,,,,,,,,,,,,,,,,,AMNE11.jpg,AMSA20.jpg,AMNE01.jpg,AMSA19.jpg,AMSA19.jpg,MS,2,num_4,32,num_6,1.13339692533,,,2017_Aug_15_1615,60.0009429877,MAFE4ImagesEEG,001,101274,
AFNE01.JPG,AFNE01.JPG,AFNE01.JPG,AFNE01.JPG,AFNE01.JPG,AFNE01.JPG,2,7,27,1,,,,,,,,,,,,,,,,,,,,,,,AMSA07.jpg,AMNE14.jpg,AMSA04.jpg,AMNE09.jpg,AMNE09.jpg,MN,1,num_4,32,num_8,0.933423739174,,,2017_Aug_15_1615,60.0009429877,MAFE4ImagesEEG,001,101274,
AFNE01.JPG,AFNE01.JPG,AFNE01.JPG,AFNE01.JPG,AFNE01.JPG,AFNE01.JPG,2,8,28,6,,,,,,,,,,,,,,,,,,,,,,,AMNE14.jpg,AMSA09.jpg,AMNE13.jpg,AMSA11.jpg,AMSA09.jpg,MS,2,num_6,32,num_8,1.21647588535,,,2017_Aug_15_1615,60.0009429877,MAFE4ImagesEEG,001,101274,
AFNE01.JPG,AFNE01.JPG,AFNE01.JPG,AFNE01.JPG,AFNE01.JPG,AFNE01.JPG,2,9,29,7,,,,,,,,,,,,,,,,,,,,,,,AMNE10.jpg,AMNE03.jpg,AMSA01.jpg,AMSA04.jpg,AMNE03.jpg,MN,1,num_6,32,num_8,1.70001953305,,,2017_Aug_15_1615,60.0009429877,MAFE4ImagesEEG,001,101274,
AFNE01.JPG,AFNE01.JPG,AFNE01.JPG,AFNE01.JPG,AFNE01.JPG,AFNE01.JPG,3,0,30,2,,,,,,,,,,,,,,,,,,,,,,,AMNE11.jpg,AMNE14.jpg,AMSA13.jpg,AMSA11.jpg,AMSA11.jpg,MS,2,num_4,32,num_8,1.2834344679,,,2017_Aug_15_1615,60.0009429877,MAFE4ImagesEEG,001,101274,
AFNE01.JPG,AFNE01.JPG,AFNE01.JPG,AFNE01.JPG,AFNE01.JPG,AFNE01.JPG,3,1,31,6,,,,,,,,,,,,,,,,,,,,,,,AMSA20.jpg,AMNE18.jpg,AMNE12.jpg,AMSA09.jpg,AMSA20.jpg,MS,2,num_8,16,num_8,0.966747311322,,,2017_Aug_15_1615,60.0009429877,MAFE4ImagesEEG,001,101274,
AFNE01.JPG,AFNE01.JPG,AFNE01.JPG,AFNE01.JPG,AFNE01.JPG,AFNE01.JPG,3,2,32,8,,,,,,,,,,,,,,,,,,,,,,,AMNE17.jpg,AMSA08.jpg,AMSA12.jpg,AMNE11.jpg,AMSA12.jpg,MS,2,num_2,16,num_2,0.850109035469,,,2017_Aug_15_1615,60.0009429877,MAFE4ImagesEEG,001,101274,
AFNE01.JPG,AFNE01.JPG,AFNE01.JPG,AFNE01.JPG,AFNE01.JPG,AFNE01.JPG,3,3,33,0,,,,,,,,,,,,,,,,,,,,,,,AMNE20.jpg,AMSA03.jpg,AMNE05.jpg,AMSA11.jpg,AMNE20.jpg,MN,1,num_8,16,num_8,1.36674403978,,,2017_Aug_15_1615,60.0009429877,MAFE4ImagesEEG,001,101274,
AFNE01.JPG,AFNE01.JPG,AFNE01.JPG,AFNE01.JPG,AFNE01.JPG,AFNE01.JPG,3,4,34,3,,,,,,,,,,,,,,,,,,,,,,,AMNE03.jpg,AMSA07.jpg,AMSA04.jpg,AMNE15.jpg,AMNE15.jpg,MN,1,num_4,32,num_6,1.6832416392,,,2017_Aug_15_1615,60.0009429877,MAFE4ImagesEEG,001,101274,
AFNE01.JPG,AFNE01.JPG,AFNE01.JPG,AFNE01.JPG,AFNE01.JPG,AFNE01.JPG,3,5,35,1,,,,,,,,,,,,,,,,,,,,,,,AMSA19.jpg,AMNE14.jpg,AMSA04.jpg,AMNE07.jpg,AMSA04.jpg,MS,2,num_2,32,num_8,1.25007433143,,,2017_Aug_15_1615,60.0009429877,MAFE4ImagesEEG,001,101274,
AFNE01.JPG,AFNE01.JPG,AFNE01.JPG,AFNE01.JPG,AFNE01.JPG,AFNE01.JPG,3,6,36,7,,,,,,,,,,,,,,,,,,,,,,,AMSA13.jpg,AMNE07.jpg,AMNE04.jpg,AMSA08.jpg,AMNE07.jpg,MN,1,num_6,16,num_6,0.983483509001,,,2017_Aug_15_1615,60.0009429877,MAFE4ImagesEEG,001,101274,
AFNE01.JPG,AFNE01.JPG,AFNE01.JPG,AFNE01.JPG,AFNE01.JPG,AFNE01.JPG,3,7,37,5,,,,,,,,,,,,,,,,,,,,,,,AMNE07.jpg,AMSA11.jpg,AMSA03.jpg,AMNE13.jpg,AMNE07.jpg,MN,1,num_8,16,num_8,1.23344750598,,,2017_Aug_15_1615,60.0009429877,MAFE4ImagesEEG,001,101274,
AFNE01.JPG,AFNE01.JPG,AFNE01.JPG,AFNE01.JPG,AFNE01.JPG,AFNE01.JPG,3,8,38,4,,,,,,,,,,,,,,,,,,,,,,,AMNE17.jpg,AMSA19.jpg,AMNE02.jpg,AMSA18.jpg,AMNE17.jpg,MN,1,num_8,32,num_4,0.683465515511,,,2017_Aug_15_1615,60.0009429877,MAFE4ImagesEEG,001,101274,
AFNE01.JPG,AFNE01.JPG,AFNE01.JPG,AFNE01.JPG,AFNE01.JPG,AFNE01.JPG,3,9,39,9,,,,,,,,,,,,,,,,,,,,,,,AMSA12.jpg,AMSA01.jpg,AMNE20.jpg,AMNE12.jpg,AMSA01.jpg,MS,2,num_6,16,num_6,0.666772938421,,,2017_Aug_15_1615,60.0009429877,MAFE4ImagesEEG,001,101274,
AFNE01.JPG,AFNE01.JPG,AFNE01.JPG,AFNE01.JPG,AFNE01.JPG,AFNE01.JPG,4,0,40,0,,,,,,,,,,,,,,,,,,,,,,,AMNE18.jpg,AMSA02.jpg,AMSA09.jpg,AMNE08.jpg,AMNE08.jpg,MN,1,num_4,32,num_8,0.8499784944,,,2017_Aug_15_1615,60.0009429877,MAFE4ImagesEEG,001,101274,
AFNE01.JPG,AFNE01.JPG,AFNE01.JPG,AFNE01.JPG,AFNE01.JPG,AFNE01.JPG,4,1,41,7,,,,,,,,,,,,,,,,,,,,,,,AMSA08.jpg,AMNE17.jpg,AMNE18.jpg,AMSA02.jpg,AMNE18.jpg,MN,1,num_2,32,num_6,0.966741858734,,,2017_Aug_15_1615,60.0009429877,MAFE4ImagesEEG,001,101274,
AFNE01.JPG,AFNE01.JPG,AFNE01.JPG,AFNE01.JPG,AFNE01.JPG,AFNE01.JPG,4,2,42,3,,,,,,,,,,,,,,,,,,,,,,,AMSA09.jpg,AMNE19.jpg,AMSA10.jpg,AMNE09.jpg,AMSA10.jpg,MS,2,num_2,16,num_2,1.1334087927,,,2017_Aug_15_1615,60.0009429877,MAFE4ImagesEEG,001,101274,
AFNE01.JPG,AFNE01.JPG,AFNE01.JPG,AFNE01.JPG,AFNE01.JPG,AFNE01.JPG,4,3,43,8,,,,,,,,,,,,,,,,,,,,,,,AMNE14.jpg,AMSA16.jpg,AMNE03.jpg,AMSA15.jpg,AMSA15.jpg,MS,2,num_4,32,num_6,0.816737031608,,,2017_Aug_15_1615,60.0009429877,MAFE4ImagesEEG,001,101274,
AFNE01.JPG,AFNE01.JPG,AFNE01.JPG,AFNE01.JPG,AFNE01.JPG,AFNE01.JPG,4,4,44,2,,,,,,,,,,,,,,,,,,,,,,,AMSA14.jpg,AMNE15.jpg,AMSA20.jpg,AMNE05.jpg,AMSA20.jpg,MS,2,num_2,32,num_6,1.28374301949,,,2017_Aug_15_1615,60.0009429877,MAFE4ImagesEEG,001,101274,
AFNE01.JPG,AFNE01.JPG,AFNE01.JPG,AFNE01.JPG,AFNE01.JPG,AFNE01.JPG,4,5,45,5,,,,,,,,,,,,,,,,,,,,,,,AMNE01.jpg,AMSA02.jpg,AMNE15.jpg,AMSA09.jpg,AMSA02.jpg,MS,2,num_6,16,num_6,1.4168586561,,,2017_Aug_15_1615,60.0009429877,MAFE4ImagesEEG,001,101274,
AFNE01.JPG,AFNE01.JPG,AFNE01.JPG,AFNE01.JPG,AFNE01.JPG,AFNE01.JPG,4,6,46,6,,,,,,,,,,,,,,,,,,,,,,,AMSA13.jpg,AMSA05.jpg,AMNE19.jpg,AMNE17.jpg,AMSA13.jpg,MS,2,num_8,16,num_8,1.01685358843,,,2017_Aug_15_1615,60.0009429877,MAFE4ImagesEEG,001,101274,
AFNE01.JPG,AFNE01.JPG,AFNE01.JPG,AFNE01.JPG,AFNE01.JPG,AFNE01.JPG,4,7,47,9,,,,,,,,,,,,,,,,,,,,,,,AMSA13.jpg,AMNE10.jpg,AMSA05.jpg,AMNE06.jpg,AMNE10.jpg,MN,1,num_6,32,num_8,0.783466060762,,,2017_Aug_15_1615,60.0009429877,MAFE4ImagesEEG,001,101274,
AFNE01.JPG,AFNE01.JPG,AFNE01.JPG,AFNE01.JPG,AFNE01.JPG,AFNE01.JPG,4,8,48,4,,,,,,,,,,,,,,,,,,,,,,,AMNE05.jpg,AMSA17.jpg,AMNE15.jpg,AMSA13.jpg,AMNE15.jpg,MN,1,num_2,32,num_6,0.883439984624,,,2017_Aug_15_1615,60.0009429877,MAFE4ImagesEEG,001,101274,
AFNE01.JPG,AFNE01.JPG,AFNE01.JPG,AFNE01.JPG,AFNE01.JPG,AFNE01.JPG,4,9,49,1,,,,,,,,,,,,,,,,,,,,,,,AMNE18.jpg,AMSA04.jpg,AMNE16.jpg,AMSA12.jpg,AMNE16.jpg,MN,1,num_2,32,num_6,1.06677127056,,,2017_Aug_15_1615,60.0009429877,MAFE4ImagesEEG,001,101274,
AFNE01.JPG,AFNE01.JPG,AFNE01.JPG,AFNE01.JPG,AFNE01.JPG,AFNE01.JPG,5,0,50,1,,,,,,,,,,,,,,,,,,,,,,,AMSA02.jpg,AMNE19.jpg,AMNE06.jpg,AMSA06.jpg,AMNE19.jpg,MN,1,num_6,32,num_2,1.6501262271,,,2017_Aug_15_1615,60.0009429877,MAFE4ImagesEEG,001,101274,
AFNE01.JPG,AFNE01.JPG,AFNE01.JPG,AFNE01.JPG,AFNE01.JPG,AFNE01.JPG,5,1,51,6,,,,,,,,,,,,,,,,,,,,,,,AMSA06.jpg,AMNE17.jpg,AMNE16.jpg,AMSA11.jpg,AMSA11.jpg,MS,2,num_4,16,num_4,1.06688160503,,,2017_Aug_15_1615,60.0009429877,MAFE4ImagesEEG,001,101274,
AFNE01.JPG,AFNE01.JPG,AFNE01.JPG,AFNE01.JPG,AFNE01.JPG,AFNE01.JPG,5,2,52,0,,,,,,,,,,,,,,,,,,,,,,,AMSA18.jpg,AMSA09.jpg,AMNE17.jpg,AMNE02.jpg,AMSA18.jpg,MS,2,num_8,16,num_8,1.05041867757,,,2017_Aug_15_1615,60.0009429877,MAFE4ImagesEEG,001,101274,
AFNE01.JPG,AFNE01.JPG,AFNE01.JPG,AFNE01.JPG,AFNE01.JPG,AFNE01.JPG,5,3,53,3,,,,,,,,,,,,,,,,,,,,,,,AMNE20.jpg,AMSA07.jpg,AMSA19.jpg,AMNE10.jpg,AMSA07.jpg,MS,2,num_6,16,num_6,0.816744729353,,,2017_Aug_15_1615,60.0009429877,MAFE4ImagesEEG,001,101274,
AFNE01.JPG,AFNE01.JPG,AFNE01.JPG,AFNE01.JPG,AFNE01.JPG,AFNE01.JPG,5,4,54,5,,,,,,,,,,,,,,,,,,,,,,,AMNE15.jpg,AMSA11.jpg,AMNE18.jpg,AMSA10.jpg,AMSA11.jpg,MS,2,num_6,16,num_6,0.76677797403,,,2017_Aug_15_1615,60.0009429877,MAFE4ImagesEEG,001,101274,
AFNE01.JPG,AFNE01.JPG,AFNE01.JPG,AFNE01.JPG,AFNE01.JPG,AFNE01.JPG,5,5,55,7,,,,,,,,,,,,,,,,,,,,,,,AMSA12.jpg,AMNE08.jpg,AMNE07.jpg,AMSA05.jpg,AMNE08.jpg,MN,1,num_6,32,num_2,1.15011740677,,,2017_Aug_15_1615,60.0009429877,MAFE4ImagesEEG,001,101274,
AFNE01.JPG,AFNE01.JPG,AFNE01.JPG,AFNE01.JPG,AFNE01.JPG,AFNE01.JPG,5,6,56,2,,,,,,,,,,,,,,,,,,,,,,,AMSA15.jpg,AMNE05.jpg,AMSA14.jpg,AMNE20.jpg,AMSA15.jpg,MS,2,num_8,16,num_8,1.01675736651,,,2017_Aug_15_1615,60.0009429877,MAFE4ImagesEEG,001,101274,
AFNE01.JPG,AFNE01.JPG,AFNE01.JPG,AFNE01.JPG,AFNE01.JPG,AFNE01.JPG,5,7,57,4,,,,,,,,,,,,,,,,,,,,,,,AMNE02.jpg,AMSA17.jpg,AMSA15.jpg,AMNE05.jpg,AMNE02.jpg,MN,1,num_8,32,num_6,0.883411759525,,,2017_Aug_15_1615,60.0009429877,MAFE4ImagesEEG,001,101274,
AFNE01.JPG,AFNE01.JPG,AFNE01.JPG,AFNE01.JPG,AFNE01.JPG,AFNE01.JPG,5,8,58,8,,,,,,,,,,,,,,,,,,,,,,,AMNE09.jpg,AMSA09.jpg,AMSA17.jpg,AMNE16.jpg,AMSA09.jpg,MS,2,num_6,32,num_8,1.41671785139,,,2017_Aug_15_1615,60.0009429877,MAFE4ImagesEEG,001,101274,
AFNE01.JPG,AFNE01.JPG,AFNE01.JPG,AFNE01.JPG,AFNE01.JPG,AFNE01.JPG,5,9,59,9,,,,,,,,,,,,,,,,,,,,,,,AMNE16.jpg,AMSA05.jpg,AMNE01.jpg,AMSA17.jpg,AMNE01.jpg,MN,1,num_2,32,num_8,1.83336257411,,,2017_Aug_15_1615,60.0009429877,MAFE4ImagesEEG,001,101274,
,,,,,,,,,,,,,,,,,,,,,,,,,,,,,,,,,,,,,,,,,,,space,4.91640529054,2017_Aug_15_1615,60.0009429877,MAFE4ImagesEEG,001,101274,
AFNE01.JPG,AFNE01.JPG,AFNE01.JPG,AFNE01.JPG,AFNE01.JPG,AFNE01.JPG,,,,,0,0,0,4,,,,,,,,,,,,,,,,,,,AFNE02.jpg,AFSA16.jpg,AFSA04.jpg,AFNE09.jpg,AFNE02.jpg,FN,3,num_8,16,num_8,1.16663293555,,,2017_Aug_15_1615,60.0009429877,MAFE4ImagesEEG,001,101274,
AFNE01.JPG,AFNE01.JPG,AFNE01.JPG,AFNE01.JPG,AFNE01.JPG,AFNE01.JPG,,,,,0,1,1,9,,,,,,,,,,,,,,,,,,,AFSA15.jpg,AFSA09.jpg,AFNE09.jpg,AFNE08.jpg,AFSA09.jpg,FS,4,num_6,16,num_6,0.900086375201,,,2017_Aug_15_1615,60.0009429877,MAFE4ImagesEEG,001,101274,
AFNE01.JPG,AFNE01.JPG,AFNE01.JPG,AFNE01.JPG,AFNE01.JPG,AFNE01.JPG,,,,,0,2,2,5,,,,,,,,,,,,,,,,,,,AFSA07.jpg,AFSA10.jpg,AFNE06.jpg,AFNE19.jpg,AFNE19.jpg,FN,3,num_4,32,num_8,0.800133299432,,,2017_Aug_15_1615,60.0009429877,MAFE4ImagesEEG,001,101274,
AFNE01.JPG,AFNE01.JPG,AFNE01.JPG,AFNE01.JPG,AFNE01.JPG,AFNE01.JPG,,,,,0,3,3,3,,,,,,,,,,,,,,,,,,,AFNE20.jpg,AFSA06.jpg,AFSA13.jpg,AFNE10.jpg,AFNE20.jpg,FN,3,num_8,32,num_2,1.06671866926,,,2017_Aug_15_1615,60.0009429877,MAFE4ImagesEEG,001,101274,
AFNE01.JPG,AFNE01.JPG,AFNE01.JPG,AFNE01.JPG,AFNE01.JPG,AFNE01.JPG,,,,,0,4,4,7,,,,,,,,,,,,,,,,,,,AFSA11.jpg,AFNE02.jpg,AFSA19.jpg,AFNE16.jpg,AFNE02.jpg,FN,3,num_6,32,num_4,0.766734353427,,,2017_Aug_15_1615,60.0009429877,MAFE4ImagesEEG,001,101274,
AFNE01.JPG,AFNE01.JPG,AFNE01.JPG,AFNE01.JPG,AFNE01.JPG,AFNE01.JPG,,,,,0,5,5,0,,,,,,,,,,,,,,,,,,,AFSA18.jpg,AFNE19.jpg,AFSA01.jpg,AFNE01.jpg,AFNE19.jpg,FN,3,num_6,16,num_6,0.766786313266,,,2017_Aug_15_1615,60.0009429877,MAFE4ImagesEEG,001,101274,
AFNE01.JPG,AFNE01.JPG,AFNE01.JPG,AFNE01.JPG,AFNE01.JPG,AFNE01.JPG,,,,,0,6,6,6,,,,,,,,,,,,,,,,,,,AFNE18.jpg,AFSA15.jpg,AFSA16.jpg,AFNE03.jpg,AFNE18.jpg,FN,3,num_8,16,num_8,0.816798292886,,,2017_Aug_15_1615,60.0009429877,MAFE4ImagesEEG,001,101274,
AFNE01.JPG,AFNE01.JPG,AFNE01.JPG,AFNE01.JPG,AFNE01.JPG,AFNE01.JPG,,,,,0,7,7,8,,,,,,,,,,,,,,,,,,,AFNE04.jpg,AFSA11.jpg,AFSA12.jpg,AFNE11.jpg,AFNE11.jpg,FN,3,num_4,16,num_4,0.616765128405,,,2017_Aug_15_1615,60.0009429877,MAFE4ImagesEEG,001,101274,
AFNE01.JPG,AFNE01.JPG,AFNE01.JPG,AFNE01.JPG,AFNE01.JPG,AFNE01.JPG,,,,,0,8,8,1,,,,,,,,,,,,,,,,,,,AFSA14.jpg,AFNE01.jpg,AFSA12.jpg,AFNE13.jpg,AFNE01.jpg,FN,3,num_6,16,num_6,0.633476949894,,,2017_Aug_15_1615,60.0009429877,MAFE4ImagesEEG,001,101274,
AFNE01.JPG,AFNE01.JPG,AFNE01.JPG,AFNE01.JPG,AFNE01.JPG,AFNE01.JPG,,,,,0,9,9,2,,,,,,,,,,,,,,,,,,,AFNE03.jpg,AFNE19.jpg,AFSA15.jpg,AFSA16.jpg,AFSA15.jpg,FS,4,num_2,32,num_8,1.25009421728,,,2017_Aug_15_1615,60.0009429877,MAFE4ImagesEEG,001,101274,
AFNE01.JPG,AFNE01.JPG,AFNE01.JPG,AFNE01.JPG,AFNE01.JPG,AFNE01.JPG,,,,,1,0,10,3,,,,,,,,,,,,,,,,,,,AFSA14.jpg,AFNE04.jpg,AFSA19.jpg,AFNE01.jpg,AFNE04.jpg,FN,3,num_6,16,num_6,1.93326785967,,,2017_Aug_15_1615,60.0009429877,MAFE4ImagesEEG,001,101274,
AFNE01.JPG,AFNE01.JPG,AFNE01.JPG,AFNE01.JPG,AFNE01.JPG,AFNE01.JPG,,,,,1,1,11,1,,,,,,,,,,,,,,,,,,,AFSA06.jpg,AFNE09.jpg,AFNE16.jpg,AFSA04.jpg,AFSA04.jpg,FS,4,num_4,32,num_8,1.01677693163,,,2017_Aug_15_1615,60.0009429877,MAFE4ImagesEEG,001,101274,
AFNE01.JPG,AFNE01.JPG,AFNE01.JPG,AFNE01.JPG,AFNE01.JPG,AFNE01.JPG,,,,,1,2,12,0,,,,,,,,,,,,,,,,,,,AFSA15.jpg,AFNE02.jpg,AFSA11.jpg,AFNE09.jpg,AFNE02.jpg,FN,3,num_6,16,num_6,0.816739276794,,,2017_Aug_15_1615,60.0009429877,MAFE4ImagesEEG,001,101274,
AFNE01.JPG,AFNE01.JPG,AFNE01.JPG,AFNE01.JPG,AFNE01.JPG,AFNE01.JPG,,,,,1,3,13,4,,,,,,,,,,,,,,,,,,,AFNE16.jpg,AFNE10.jpg,AFSA03.jpg,AFSA17.jpg,AFNE10.jpg,FN,3,num_6,32,num_8,1.01682279741,,,2017_Aug_15_1615,60.0009429877,MAFE4ImagesEEG,001,101274,
AFNE01.JPG,AFNE01.JPG,AFNE01.JPG,AFNE01.JPG,AFNE01.JPG,AFNE01.JPG,,,,,1,4,14,7,,,,,,,,,,,,,,,,,,,AFSA07.jpg,AFSA12.jpg,AFNE07.jpg,AFNE13.jpg,AFNE07.jpg,FN,3,num_2,32,num_6,0.783416666847,,,2017_Aug_15_1615,60.0009429877,MAFE4ImagesEEG,001,101274,
AFNE01.JPG,AFNE01.JPG,AFNE01.JPG,AFNE01.JPG,AFNE01.JPG,AFNE01.JPG,,,,,1,5,15,9,,,,,,,,,,,,,,,,,,,AFSA01.jpg,AFSA18.jpg,AFNE19.jpg,AFNE20.jpg,AFNE20.jpg,FN,3,num_4,32,num_8,0.766779256999,,,2017_Aug_15_1615,60.0009429877,MAFE4ImagesEEG,001,101274,
AFNE01.JPG,AFNE01.JPG,AFNE01.JPG,AFNE01.JPG,AFNE01.JPG,AFNE01.JPG,,,,,1,6,16,2,,,,,,,,,,,,,,,,,,,AFNE19.jpg,AFNE06.jpg,AFSA12.jpg,AFSA14.jpg,AFNE06.jpg,FN,3,num_6,16,num_6,0.750146658233,,,2017_Aug_15_1615,60.0009429877,MAFE4ImagesEEG,001,101274,
AFNE01.JPG,AFNE01.JPG,AFNE01.JPG,AFNE01.JPG,AFNE01.JPG,AFNE01.JPG,,,,,1,7,17,8,,,,,,,,,,,,,,,,,,,AFSA14.jpg,AFNE03.jpg,AFSA07.jpg,AFNE11.jpg,AFSA07.jpg,FS,4,num_2,16,num_2,1.16674936406,,,2017_Aug_15_1615,60.0009429877,MAFE4ImagesEEG,001,101274,
AFNE01.JPG,AFNE01.JPG,AFNE01.JPG,AFNE01.JPG,AFNE01.JPG,AFNE01.JPG,,,,,1,8,18,6,,,,,,,,,,,,,,,,,,,AFSA10.jpg,AFNE01.jpg,AFSA09.jpg,AFNE08.jpg,AFSA10.jpg,FS,4,num_8,16,num_8,0.78343110015,,,2017_Aug_15_1615,60.0009429877,MAFE4ImagesEEG,001,101274,
AFNE01.JPG,AFNE01.JPG,AFNE01.JPG,AFNE01.JPG,AFNE01.JPG,AFNE01.JPG,,,,,1,9,19,5,,,,,,,,,,,,,,,,,,,AFSA18.jpg,AFNE12.jpg,AFNE17.jpg,AFSA19.jpg,AFNE17.jpg,FN,3,num_2,32,num_6,0.86679648071,,,2017_Aug_15_1615,60.0009429877,MAFE4ImagesEEG,001,101274,
AFNE01.JPG,AFNE01.JPG,AFNE01.JPG,AFNE01.JPG,AFNE01.JPG,AFNE01.JPG,,,,,2,0,20,8,,,,,,,,,,,,,,,,,,,AFNE05.jpg,AFNE08.jpg,AFSA19.jpg,AFSA03.jpg,AFSA19.jpg,FS,4,num_2,32,num_8,0.983468754974,,,2017_Aug_15_1615,60.0009429877,MAFE4ImagesEEG,001,101274,
AFNE01.JPG,AFNE01.JPG,AFNE01.JPG,AFNE01.JPG,AFNE01.JPG,AFNE01.JPG,,,,,2,1,21,3,,,,,,,,,,,,,,,,,,,AFNE18.jpg,AFSA06.jpg,AFSA07.jpg,AFNE17.jpg,AFNE17.jpg,FN,3,num_4,32,num_2,1.26668993098,,,2017_Aug_15_1615,60.0009429877,MAFE4ImagesEEG,001,101274,
AFNE01.JPG,AFNE01.JPG,AFNE01.JPG,AFNE01.JPG,AFNE01.JPG,AFNE01.JPG,,,,,2,2,22,6,,,,,,,,,,,,,,,,,,,AFSA05.jpg,AFSA11.jpg,AFNE16.jpg,AFNE03.jpg,AFSA05.jpg,FS,4,num_8,16,num_8,0.883327084244,,,2017_Aug_15_1615,60.0009429877,MAFE4ImagesEEG,001,101274,
AFNE01.JPG,AFNE01.JPG,AFNE01.JPG,AFNE01.JPG,AFNE01.JPG,AFNE01.JPG,,,,,2,3,23,7,,,,,,,,,,,,,,,,,,,AFNE07.jpg,AFSA02.jpg,AFSA10.jpg,AFNE08.jpg,AFNE08.jpg,FN,3,num_4,32,num_6,1.1834262249,,,2017_Aug_15_1615,60.0009429877,MAFE4ImagesEEG,001,101274,
AFNE01.JPG,AFNE01.JPG,AFNE01.JPG,AFNE01.JPG,AFNE01.JPG,AFNE01.JPG,,,,,2,4,24,4,,,,,,,,,,,,,,,,,,,AFNE11.jpg,AFSA08.jpg,AFNE05.jpg,AFSA11.jpg,AFSA08.jpg,FS,4,num_6,32,num_8,0.966736085436,,,2017_Aug_15_1615,60.0009429877,MAFE4ImagesEEG,001,101274,
AFNE01.JPG,AFNE01.JPG,AFNE01.JPG,AFNE01.JPG,AFNE01.JPG,AFNE01.JPG,,,,,2,5,25,0,,,,,,,,,,,,,,,,,,,AFSA12.jpg,AFSA16.jpg,AFNE15.jpg,AFNE06.jpg,AFNE15.jpg,FN,3,num_2,32,num_6,0.600090192005,,,2017_Aug_15_1615,60.0009429877,MAFE4ImagesEEG,001,101274,
AFNE01.JPG,AFNE01.JPG,AFNE01.JPG,AFNE01.JPG,AFNE01.JPG,AFNE01.JPG,,,,,2,6,26,2,,,,,,,,,,,,,,,,,,,AFSA11.jpg,AFSA06.jpg,AFNE07.jpg,AFNE02.jpg,AFNE07.jpg,FN,3,num_2,16,num_2,1.98337926861,,,2017_Aug_15_1615,60.0009429877,MAFE4ImagesEEG,001,101274,
AFNE01.JPG,AFNE01.JPG,AFNE01.JPG,AFNE01.JPG,AFNE01.JPG,AFNE01.JPG,,,,,2,7,27,9,,,,,,,,,,,,,,,,,,,AFSA04.jpg,AFSA10.jpg,AFNE19.jpg,AFNE07.jpg,AFNE07.jpg,FN,3,num_4,16,num_4,0.750179373688,,,2017_Aug_15_1615,60.0009429877,MAFE4ImagesEEG,001,101274,
AFNE01.JPG,AFNE01.JPG,AFNE01.JPG,AFNE01.JPG,AFNE01.JPG,AFNE01.JPG,,,,,2,8,28,5,,,,,,,,,,,,,,,,,,,AFSA13.jpg,AFSA14.jpg,AFNE11.jpg,AFNE10.jpg,AFSA13.jpg,FS,4,num_8,16,num_8,0.90014859871,,,2017_Aug_15_1615,60.0009429877,MAFE4ImagesEEG,001,101274,
AFNE01.JPG,AFNE01.JPG,AFNE01.JPG,AFNE01.JPG,AFNE01.JPG,AFNE01.JPG,,,,,2,9,29,1,,,,,,,,,,,,,,,,,,,AFNE11.jpg,AFNE17.jpg,AFSA15.jpg,AFSA06.jpg,AFSA15.jpg,FS,4,num_2,16,num_2,0.900125826185,,,2017_Aug_15_1615,60.0009429877,MAFE4ImagesEEG,001,101274,
AFNE01.JPG,AFNE01.JPG,AFNE01.JPG,AFNE01.JPG,AFNE01.JPG,AFNE01.JPG,,,,,3,0,30,1,,,,,,,,,,,,,,,,,,,AFSA09.jpg,AFNE18.jpg,AFSA14.jpg,AFNE14.jpg,AFSA14.jpg,FS,4,num_2,32,num_8,1.36676168046,,,2017_Aug_15_1615,60.0009429877,MAFE4ImagesEEG,001,101274,
AFNE01.JPG,AFNE01.JPG,AFNE01.JPG,AFNE01.JPG,AFNE01.JPG,AFNE01.JPG,,,,,3,1,31,2,,,,,,,,,,,,,,,,,,,AFSA02.jpg,AFSA17.jpg,AFNE14.jpg,AFNE07.jpg,AFSA17.jpg,FS,4,num_6,32,num_2,1.21661059602,,,2017_Aug_15_1615,60.0009429877,MAFE4ImagesEEG,001,101274,
AFNE01.JPG,AFNE01.JPG,AFNE01.JPG,AFNE01.JPG,AFNE01.JPG,AFNE01.JPG,,,,,3,2,32,0,,,,,,,,,,,,,,,,,,,AFNE13.jpg,AFSA14.jpg,AFSA07.jpg,AFNE01.jpg,AFNE01.jpg,FN,3,num_4,32,num_6,0.766907232144,,,2017_Aug_15_1615,60.0009429877,MAFE4ImagesEEG,001,101274,
AFNE01.JPG,AFNE01.JPG,AFNE01.JPG,AFNE01.JPG,AFNE01.JPG,AFNE01.JPG,,,,,3,3,33,3,,,,,,,,,,,,,,,,,,,AFNE03.jpg,AFNE15.jpg,AFSA05.jpg,AFSA03.jpg,AFNE15.jpg,FN,3,num_6,16,num_6,1.08340868044,,,2017_Aug_15_1615,60.0009429877,MAFE4ImagesEEG,001,101274,
AFNE01.JPG,AFNE01.JPG,AFNE01.JPG,AFNE01.JPG,AFNE01.JPG,AFNE01.JPG,,,,,3,4,34,6,,,,,,,,,,,,,,,,,,,AFSA04.jpg,AFNE14.jpg,AFSA11.jpg,AFNE17.jpg,AFSA11.jpg,FS,4,num_2,16,num_2,0.550120550019,,,2017_Aug_15_1615,60.0009429877,MAFE4ImagesEEG,001,101274,
AFNE01.JPG,AFNE01.JPG,AFNE01.JPG,AFNE01.JPG,AFNE01.JPG,AFNE01.JPG,,,,,3,5,35,8,,,,,,,,,,,,,,,,,,,AFNE03.jpg,AFNE16.jpg,AFSA14.jpg,AFSA13.jpg,AFSA13.jpg,FS,4,num_4,32,num_2,1.98338087231,,,2017_Aug_15_1615,60.0009429877,MAFE4ImagesEEG,001,101274,
AFNE01.JPG,AFNE01.JPG,AFNE01.JPG,AFNE01.JPG,AFNE01.JPG,AFNE01.JPG,,,,,3,6,36,4,,,,,,,,,,,,,,,,,,,AFNE03.jpg,AFSA03.jpg,AFSA15.jpg,AFNE11.jpg,AFNE03.jpg,FN,3,num_8,16,num_8,0.900111392897,,,2017_Aug_15_1615,60.0009429877,MAFE4ImagesEEG,001,101274,
AFNE01.JPG,AFNE01.JPG,AFNE01.JPG,AFNE01.JPG,AFNE01.JPG,AFNE01.JPG,,,,,3,7,37,5,,,,,,,,,,,,,,,,,,,AFNE10.jpg,AFNE03.jpg,AFSA16.jpg,AFSA06.jpg,AFSA16.jpg,FS,4,num_2,16,num_2,1.783256297,,,2017_Aug_15_1615,60.0009429877,MAFE4ImagesEEG,001,101274,
AFNE01.JPG,AFNE01.JPG,AFNE01.JPG,AFNE01.JPG,AFNE01.JPG,AFNE01.JPG,,,,,3,8,38,7,,,,,,,,,,,,,,,,,,,AFNE19.jpg,AFSA02.jpg,AFNE01.jpg,AFSA14.jpg,AFNE01.jpg,FN,3,num_2,32,num_8,1.40006632896,,,2017_Aug_15_1615,60.0009429877,MAFE4ImagesEEG,001,101274,
AFNE01.JPG,AFNE01.JPG,AFNE01.JPG,AFNE01.JPG,AFNE01.JPG,AFNE01.JPG,,,,,3,9,39,9,,,,,,,,,,,,,,,,,,,AFSA09.jpg,AFNE10.jpg,AFNE06.jpg,AFSA14.jpg,AFNE10.jpg,FN,3,num_6,16,num_6,1.2667303442,,,2017_Aug_15_1615,60.0009429877,MAFE4ImagesEEG,001,101274,
AFNE01.JPG,AFNE01.JPG,AFNE01.JPG,AFNE01.JPG,AFNE01.JPG,AFNE01.JPG,,,,,4,0,40,8,,,,,,,,,,,,,,,,,,,AFNE01.jpg,AFSA15.jpg,AFNE11.jpg,AFSA07.jpg,AFSA15.jpg,FS,4,num_6,32,num_8,2.03333864691,,,2017_Aug_15_1615,60.0009429877,MAFE4ImagesEEG,001,101274,
AFNE01.JPG,AFNE01.JPG,AFNE01.JPG,AFNE01.JPG,AFNE01.JPG,AFNE01.JPG,,,,,4,1,41,1,,,,,,,,,,,,,,,,,,,AFNE13.jpg,AFSA18.jpg,AFNE11.jpg,AFSA06.jpg,AFSA06.jpg,FS,4,num_4,32,num_6,0.850138543508,,,2017_Aug_15_1615,60.0009429877,MAFE4ImagesEEG,001,101274,
AFNE01.JPG,AFNE01.JPG,AFNE01.JPG,AFNE01.JPG,AFNE01.JPG,AFNE01.JPG,,,,,4,2,42,3,,,,,,,,,,,,,,,,,,,AFSA07.jpg,AFNE11.jpg,AFSA13.jpg,AFNE03.jpg,AFSA07.jpg,FS,4,num_8,32,num_6,0.766498289013,,,2017_Aug_15_1615,60.0009429877,MAFE4ImagesEEG,001,101274,
AFNE01.JPG,AFNE01.JPG,AFNE01.JPG,AFNE01.JPG,AFNE01.JPG,AFNE01.JPG,,,,,4,3,43,0,,,,,,,,,,,,,,,,,,,AFSA18.jpg,AFNE14.jpg,AFSA12.jpg,AFNE09.jpg,AFNE09.jpg,FN,3,num_4,32,num_8,0.949839517896,,,2017_Aug_15_1615,60.0009429877,MAFE4ImagesEEG,001,101274,
AFNE01.JPG,AFNE01.JPG,AFNE01.JPG,AFNE01.JPG,AFNE01.JPG,AFNE01.JPG,,,,,4,4,44,2,,,,,,,,,,,,,,,,,,,AFNE08.jpg,AFNE16.jpg,AFSA15.jpg,AFSA07.jpg,AFSA15.jpg,FS,4,num_2,32,num_6,1.15008982315,,,2017_Aug_15_1615,60.0009429877,MAFE4ImagesEEG,001,101274,
AFNE01.JPG,AFNE01.JPG,AFNE01.JPG,AFNE01.JPG,AFNE01.JPG,AFNE01.JPG,,,,,4,5,45,9,,,,,,,,,,,,,,,,,,,AFSA07.jpg,AFNE07.jpg,AFNE05.jpg,AFSA14.jpg,AFSA14.jpg,FS,4,num_4,32,num_8,0.700112226827,,,2017_Aug_15_1615,60.0009429877,MAFE4ImagesEEG,001,101274,
AFNE01.JPG,AFNE01.JPG,AFNE01.JPG,AFNE01.JPG,AFNE01.JPG,AFNE01.JPG,,,,,4,6,46,4,,,,,,,,,,,,,,,,,,,AFNE03.jpg,AFNE09.jpg,AFSA15.jpg,AFSA12.jpg,AFNE09.jpg,FN,3,num_6,16,num_6,1.08366270628,,,2017_Aug_15_1615,60.0009429877,MAFE4ImagesEEG,001,101274,
AFNE01.JPG,AFNE01.JPG,AFNE01.JPG,AFNE01.JPG,AFNE01.JPG,AFNE01.JPG,,,,,4,7,47,6,,,,,,,,,,,,,,,,,,,AFNE02.jpg,AFNE12.jpg,AFSA10.jpg,AFSA18.jpg,AFNE02.jpg,FN,3,num_8,16,num_8,1.06674753584,,,2017_Aug_15_1615,60.0009429877,MAFE4ImagesEEG,001,101274,
AFNE01.JPG,AFNE01.JPG,AFNE01.JPG,AFNE01.JPG,AFNE01.JPG,AFNE01.JPG,,,,,4,8,48,5,,,,,,,,,,,,,,,,,,,AFNE09.jpg,AFSA10.jpg,AFNE11.jpg,AFSA06.jpg,AFNE11.jpg,FN,3,num_2,16,num_2,0.966789007478,,,2017_Aug_15_1615,60.0009429877,MAFE4ImagesEEG,001,101274,
AFNE01.JPG,AFNE01.JPG,AFNE01.JPG,AFNE01.JPG,AFNE01.JPG,AFNE01.JPG,,,,,4,9,49,7,,,,,,,,,,,,,,,,,,,AFSA10.jpg,AFNE19.jpg,AFNE18.jpg,AFSA06.jpg,AFSA06.jpg,FS,4,num_4,32,num_8,0.800099301021,,,2017_Aug_15_1615,60.0009429877,MAFE4ImagesEEG,001,101274,
AFNE01.JPG,AFNE01.JPG,AFNE01.JPG,AFNE01.JPG,AFNE01.JPG,AFNE01.JPG,,,,,5,0,50,1,,,,,,,,,,,,,,,,,,,AFNE08.jpg,AFNE17.jpg,AFSA12.jpg,AFSA05.jpg,AFSA05.jpg,FS,4,num_4,16,num_4,0.866773066722,,,2017_Aug_15_1615,60.0009429877,MAFE4ImagesEEG,001,101274,
AFNE01.JPG,AFNE01.JPG,AFNE01.JPG,AFNE01.JPG,AFNE01.JPG,AFNE01.JPG,,,,,5,1,51,7,,,,,,,,,,,,,,,,,,,AFSA01.jpg,AFNE14.jpg,AFSA07.jpg,AFNE18.jpg,AFSA07.jpg,FS,4,num_2,32,num_4,0.933402249604,,,2017_Aug_15_1615,60.0009429877,MAFE4ImagesEEG,001,101274,
AFNE01.JPG,AFNE01.JPG,AFNE01.JPG,AFNE01.JPG,AFNE01.JPG,AFNE01.JPG,,,,,5,2,52,2,,,,,,,,,,,,,,,,,,,AFSA16.jpg,AFNE13.jpg,AFNE15.jpg,AFSA04.jpg,AFSA16.jpg,FS,4,num_8,32,num_6,1.53341450186,,,2017_Aug_15_1615,60.0009429877,MAFE4ImagesEEG,001,101274,
AFNE01.JPG,AFNE01.JPG,AFNE01.JPG,AFNE01.JPG,AFNE01.JPG,AFNE01.JPG,,,,,5,3,53,9,,,,,,,,,,,,,,,,,,,AFNE02.jpg,AFNE07.jpg,AFSA02.jpg,AFSA08.jpg,AFSA08.jpg,FS,4,num_4,32,num_2,1.70005160703,,,2017_Aug_15_1615,60.0009429877,MAFE4ImagesEEG,001,101274,
AFNE01.JPG,AFNE01.JPG,AFNE01.JPG,AFNE01.JPG,AFNE01.JPG,AFNE01.JPG,,,,,5,4,54,0,,,,,,,,,,,,,,,,,,,AFNE02.jpg,AFNE19.jpg,AFSA17.jpg,AFSA06.jpg,AFSA06.jpg,FS,4,num_4,16,num_4,0.633479515804,,,2017_Aug_15_1615,60.0009429877,MAFE4ImagesEEG,001,101274,
AFNE01.JPG,AFNE01.JPG,AFNE01.JPG,AFNE01.JPG,AFNE01.JPG,AFNE01.JPG,,,,,5,5,55,6,,,,,,,,,,,,,,,,,,,AFSA06.jpg,AFSA14.jpg,AFNE20.jpg,AFNE18.jpg,AFNE20.jpg,FN,3,num_2,32,num_8,0.916768367882,,,2017_Aug_15_1615,60.0009429877,MAFE4ImagesEEG,001,101274,
AFNE01.JPG,AFNE01.JPG,AFNE01.JPG,AFNE01.JPG,AFNE01.JPG,AFNE01.JPG,,,,,5,6,56,8,,,,,,,,,,,,,,,,,,,AFSA19.jpg,AFNE07.jpg,AFSA08.jpg,AFNE13.jpg,AFSA19.jpg,FS,4,num_8,32,num_6,1.10006918355,,,2017_Aug_15_1615,60.0009429877,MAFE4ImagesEEG,001,101274,
AFNE01.JPG,AFNE01.JPG,AFNE01.JPG,AFNE01.JPG,AFNE01.JPG,AFNE01.JPG,,,,,5,7,57,5,,,,,,,,,,,,,,,,,,,AFSA09.jpg,AFNE10.jpg,AFSA14.jpg,AFNE13.jpg,AFNE13.jpg,FN,3,num_4,32,num_8,1.31672307944,,,2017_Aug_15_1615,60.0009429877,MAFE4ImagesEEG,001,101274,
AFNE01.JPG,AFNE01.JPG,AFNE01.JPG,AFNE01.JPG,AFNE01.JPG,AFNE01.JPG,,,,,5,8,58,3,,,,,,,,,,,,,,,,,,,AFSA07.jpg,AFSA06.jpg,AFNE01.jpg,AFNE08.jpg,AFNE08.jpg,FN,3,num_4,32,num_2,1.45003276356,,,2017_Aug_15_1615,60.0009429877,MAFE4ImagesEEG,001,101274,
AFNE01.JPG,AFNE01.JPG,AFNE01.JPG,AFNE01.JPG,AFNE01.JPG,AFNE01.JPG,,,,,5,9,59,4,,,,,,,,,,,,,,,,,,,AFSA04.jpg,AFNE15.jpg,AFNE08.jpg,AFSA08.jpg,AFSA04.jpg,FS,4,num_8,16,num_8,1.76668431803,,,2017_Aug_15_1615,60.0009429877,MAFE4ImagesEEG,001,101274,
,,,,,,,,,,,,,,,,,,,,,,,,,,,,,,,,,,,,,,,,,,,space,4.24986520913,2017_Aug_15_1615,60.0009429877,MAFE4ImagesEEG,001,101274,
AFNE01.JPG,AFNE01.JPG,AFNE01.JPG,AFNE01.JPG,AFNE01.JPG,AFNE01.JPG,,,,,,,,,0,0,0,2,,,,,,,,,,,,,,,AMNE06.jpg,AMSA13.jpg,AMNE13.jpg,AMSA12.jpg,AMNE13.jpg,MN,1,num_2,32,num_8,0.850114167304,,,2017_Aug_15_1615,60.0009429877,MAFE4ImagesEEG,001,101274,
AFNE01.JPG,AFNE01.JPG,AFNE01.JPG,AFNE01.JPG,AFNE01.JPG,AFNE01.JPG,,,,,,,,,0,1,1,0,,,,,,,,,,,,,,,AMSA18.jpg,AMSA04.jpg,AMNE07.jpg,AMNE11.jpg,AMNE11.jpg,MN,1,num_4,32,num_6,0.866746766056,,,2017_Aug_15_1615,60.0009429877,MAFE4ImagesEEG,001,101274,
AFNE01.JPG,AFNE01.JPG,AFNE01.JPG,AFNE01.JPG,AFNE01.JPG,AFNE01.JPG,,,,,,,,,0,2,2,8,,,,,,,,,,,,,,,AMSA04.jpg,AMSA10.jpg,AMNE08.jpg,AMNE10.jpg,AMNE10.jpg,MN,1,num_4,32,num_8,0.850263311266,,,2017_Aug_15_1615,60.0009429877,MAFE4ImagesEEG,001,101274,
AFNE01.JPG,AFNE01.JPG,AFNE01.JPG,AFNE01.JPG,AFNE01.JPG,AFNE01.JPG,,,,,,,,,0,3,3,7,,,,,,,,,,,,,,,AMSA13.jpg,AMNE02.jpg,AMSA15.jpg,AMNE17.jpg,AMNE17.jpg,MN,1,num_4,16,num_4,1.13342450894,,,2017_Aug_15_1615,60.0009429877,MAFE4ImagesEEG,001,101274,
AFNE01.JPG,AFNE01.JPG,AFNE01.JPG,AFNE01.JPG,AFNE01.JPG,AFNE01.JPG,,,,,,,,,0,4,4,1,,,,,,,,,,,,,,,AMSA15.jpg,AMSA13.jpg,AMNE05.jpg,AMNE17.jpg,AMSA15.jpg,MS,2,num_8,32,num_2,1.70010035946,,,2017_Aug_15_1615,60.0009429877,MAFE4ImagesEEG,001,101274,
AFNE01.JPG,AFNE01.JPG,AFNE01.JPG,AFNE01.JPG,AFNE01.JPG,AFNE01.JPG,,,,,,,,,0,5,5,5,,,,,,,,,,,,,,,AMSA13.jpg,AMNE14.jpg,AMNE15.jpg,AMSA14.jpg,AMSA13.jpg,MS,2,num_8,16,num_8,0.75012067832,,,2017_Aug_15_1615,60.0009429877,MAFE4ImagesEEG,001,101274,
AFNE01.JPG,AFNE01.JPG,AFNE01.JPG,AFNE01.JPG,AFNE01.JPG,AFNE01.JPG,,,,,,,,,0,6,6,6,,,,,,,,,,,,,,,AMNE10.jpg,AMSA13.jpg,AMSA20.jpg,AMNE17.jpg,AMNE10.jpg,MN,1,num_8,32,num_2,1.08375764523,,,2017_Aug_15_1615,60.0009429877,MAFE4ImagesEEG,001,101274,
AFNE01.JPG,AFNE01.JPG,AFNE01.JPG,AFNE01.JPG,AFNE01.JPG,AFNE01.JPG,,,,,,,,,0,7,7,9,,,,,,,,,,,,,,,AMSA17.jpg,AMSA18.jpg,AMNE20.jpg,AMNE17.jpg,AMNE17.jpg,MN,1,num_4,32,num_6,0.616750374393,,,2017_Aug_15_1615,60.0009429877,MAFE4ImagesEEG,001,101274,
AFNE01.JPG,AFNE01.JPG,AFNE01.JPG,AFNE01.JPG,AFNE01.JPG,AFNE01.JPG,,,,,,,,,0,8,8,3,,,,,,,,,,,,,,,AMSA05.jpg,AMNE15.jpg,AMNE04.jpg,AMSA19.jpg,AMSA05.jpg,MS,2,num_8,16,num_8,0.883451210524,,,2017_Aug_15_1615,60.0009429877,MAFE4ImagesEEG,001,101274,
AFNE01.JPG,AFNE01.JPG,AFNE01.JPG,AFNE01.JPG,AFNE01.JPG,AFNE01.JPG,,,,,,,,,0,9,9,4,,,,,,,,,,,,,,,AMSA06.jpg,AMSA12.jpg,AMNE10.jpg,AMNE16.jpg,AMNE16.jpg,MN,1,num_4,32,num_2,1.03341209631,,,2017_Aug_15_1615,60.0009429877,MAFE4ImagesEEG,001,101274,
AFNE01.JPG,AFNE01.JPG,AFNE01.JPG,AFNE01.JPG,AFNE01.JPG,AFNE01.JPG,,,,,,,,,1,0,10,6,,,,,,,,,,,,,,,AMSA11.jpg,AMNE19.jpg,AMSA02.jpg,AMNE16.jpg,AMSA02.jpg,MS,2,num_2,32,num_8,1.46674554725,,,2017_Aug_15_1615,60.0009429877,MAFE4ImagesEEG,001,101274,
AFNE01.JPG,AFNE01.JPG,AFNE01.JPG,AFNE01.JPG,AFNE01.JPG,AFNE01.JPG,,,,,,,,,1,1,11,9,,,,,,,,,,,,,,,AMSA15.jpg,AMSA04.jpg,AMNE11.jpg,AMNE09.jpg,AMSA04.jpg,MS,2,num_6,16,num_6,1.38337663854,,,2017_Aug_15_1615,60.0009429877,MAFE4ImagesEEG,001,101274,
AFNE01.JPG,AFNE01.JPG,AFNE01.JPG,AFNE01.JPG,AFNE01.JPG,AFNE01.JPG,,,,,,,,,1,2,12,0,,,,,,,,,,,,,,,AMNE05.jpg,AMNE08.jpg,AMSA12.jpg,AMSA15.jpg,AMSA15.jpg,MS,2,num_4,32,num_8,1.6668220116,,,2017_Aug_15_1615,60.0009429877,MAFE4ImagesEEG,001,101274,
AFNE01.JPG,AFNE01.JPG,AFNE01.JPG,AFNE01.JPG,AFNE01.JPG,AFNE01.JPG,,,,,,,,,1,3,13,2,,,,,,,,,,,,,,,AMSA07.jpg,AMNE15.jpg,AMSA10.jpg,AMNE09.jpg,AMSA07.jpg,MS,2,num_8,32,num_2,1.46672662361,,,2017_Aug_15_1615,60.0009429877,MAFE4ImagesEEG,001,101274,
AFNE01.JPG,AFNE01.JPG,AFNE01.JPG,AFNE01.JPG,AFNE01.JPG,AFNE01.JPG,,,,,,,,,1,4,14,1,,,,,,,,,,,,,,,AMSA06.jpg,AMNE04.jpg,AMNE06.jpg,AMSA09.jpg,AMSA09.jpg,MS,2,num_4,32,num_8,1.31677022816,,,2017_Aug_15_1615,60.0009429877,MAFE4ImagesEEG,001,101274,
AFNE01.JPG,AFNE01.JPG,AFNE01.JPG,AFNE01.JPG,AFNE01.JPG,AFNE01.JPG,,,,,,,,,1,5,15,3,,,,,,,,,,,,,,,AMNE18.jpg,AMNE12.jpg,AMSA17.jpg,AMSA09.jpg,AMSA09.jpg,MS,2,num_4,32,num_6,1.46676928199,,,2017_Aug_15_1615,60.0009429877,MAFE4ImagesEEG,001,101274,
AFNE01.JPG,AFNE01.JPG,AFNE01.JPG,AFNE01.JPG,AFNE01.JPG,AFNE01.JPG,,,,,,,,,1,6,16,5,,,,,,,,,,,,,,,AMNE16.jpg,AMNE07.jpg,AMSA01.jpg,AMSA05.jpg,AMNE07.jpg,MN,1,num_6,32,num_8,1.73338929172,,,2017_Aug_15_1615,60.0009429877,MAFE4ImagesEEG,001,101274,
AFNE01.JPG,AFNE01.JPG,AFNE01.JPG,AFNE01.JPG,AFNE01.JPG,AFNE01.JPG,,,,,,,,,1,7,17,7,,,,,,,,,,,,,,,AMSA06.jpg,AMNE04.jpg,AMNE08.jpg,AMSA03.jpg,AMNE04.jpg,MN,1,num_6,32,num_2,1.25033669651,,,2017_Aug_15_1615,60.0009429877,MAFE4ImagesEEG,001,101274,
AFNE01.JPG,AFNE01.JPG,AFNE01.JPG,AFNE01.JPG,AFNE01.JPG,AFNE01.JPG,,,,,,,,,1,8,18,8,,,,,,,,,,,,,,,AMSA17.jpg,AMNE16.jpg,AMNE15.jpg,AMSA05.jpg,AMSA05.jpg,MS,2,num_4,32,num_6,0.966731595065,,,2017_Aug_15_1615,60.0009429877,MAFE4ImagesEEG,001,101274,
AFNE01.JPG,AFNE01.JPG,AFNE01.JPG,AFNE01.JPG,AFNE01.JPG,AFNE01.JPG,,,,,,,,,1,9,19,4,,,,,,,,,,,,,,,AMNE17.jpg,AMSA03.jpg,AMNE18.jpg,AMSA11.jpg,AMSA03.jpg,MS,2,num_6,16,num_6,0.716901025822,,,2017_Aug_15_1615,60.0009429877,MAFE4ImagesEEG,001,101274,
AFNE01.JPG,AFNE01.JPG,AFNE01.JPG,AFNE01.JPG,AFNE01.JPG,AFNE01.JPG,,,,,,,,,2,0,20,8,,,,,,,,,,,,,,,AMSA04.jpg,AMNE03.jpg,AMNE09.jpg,AMSA05.jpg,AMSA05.jpg,MS,2,num_4,32,num_2,1.06673534773,,,2017_Aug_15_1615,60.0009429877,MAFE4ImagesEEG,001,101274,
AFNE01.JPG,AFNE01.JPG,AFNE01.JPG,AFNE01.JPG,AFNE01.JPG,AFNE01.JPG,,,,,,,,,2,1,21,1,,,,,,,,,,,,,,,AMSA08.jpg,AMSA02.jpg,AMNE07.jpg,AMNE10.jpg,AMSA02.jpg,MS,2,num_6,32,num_8,0.983489282313,,,2017_Aug_15_1615,60.0009429877,MAFE4ImagesEEG,001,101274,
AFNE01.JPG,AFNE01.JPG,AFNE01.JPG,AFNE01.JPG,AFNE01.JPG,AFNE01.JPG,,,,,,,,,2,2,22,0,,,,,,,,,,,,,,,AMNE02.jpg,AMSA11.jpg,AMNE01.jpg,AMSA16.jpg,AMSA16.jpg,MS,2,num_4,32,num_6,1.08341060489,,,2017_Aug_15_1615,60.0009429877,MAFE4ImagesEEG,001,101274,
AFNE01.JPG,AFNE01.JPG,AFNE01.JPG,AFNE01.JPG,AFNE01.JPG,AFNE01.JPG,,,,,,,,,2,3,23,9,,,,,,,,,,,,,,,AMNE11.jpg,AMSA03.jpg,AMNE10.jpg,AMSA07.jpg,AMNE10.jpg,MN,1,num_2,32,num_8,1.10022891192,,,2017_Aug_15_1615,60.0009429877,MAFE4ImagesEEG,001,101274,
AFNE01.JPG,AFNE01.JPG,AFNE01.JPG,AFNE01.JPG,AFNE01.JPG,AFNE01.JPG,,,,,,,,,2,4,24,6,,,,,,,,,,,,,,,AMNE18.jpg,AMSA05.jpg,AMSA10.jpg,AMNE12.jpg,AMSA05.jpg,MS,2,num_6,16,num_6,0.717151202785,,,2017_Aug_15_1615,60.0009429877,MAFE4ImagesEEG,001,101274,
AFNE01.JPG,AFNE01.JPG,AFNE01.JPG,AFNE01.JPG,AFNE01.JPG,AFNE01.JPG,,,,,,,,,2,5,25,2,,,,,,,,,,,,,,,AMSA07.jpg,AMSA02.jpg,AMNE11.jpg,AMNE05.jpg,AMNE11.jpg,MN,1,num_2,16,num_2,1.01645426749,,,2017_Aug_15_1615,60.0009429877,MAFE4ImagesEEG,001,101274,
AFNE01.JPG,AFNE01.JPG,AFNE01.JPG,AFNE01.JPG,AFNE01.JPG,AFNE01.JPG,,,,,,,,,2,6,26,5,,,,,,,,,,,,,,,AMSA12.jpg,AMNE13.jpg,AMNE01.jpg,AMSA05.jpg,AMNE13.jpg,MN,1,num_6,32,num_4,1.28342131758,,,2017_Aug_15_1615,60.0009429877,MAFE4ImagesEEG,001,101274,
AFNE01.JPG,AFNE01.JPG,AFNE01.JPG,AFNE01.JPG,AFNE01.JPG,AFNE01.JPG,,,,,,,,,2,7,27,4,,,,,,,,,,,,,,,AMSA04.jpg,AMNE08.jpg,AMNE02.jpg,AMSA15.jpg,AMNE08.jpg,MN,1,num_6,32,num_8,0.916745595372,,,2017_Aug_15_1615,60.0009429877,MAFE4ImagesEEG,001,101274,
AFNE01.JPG,AFNE01.JPG,AFNE01.JPG,AFNE01.JPG,AFNE01.JPG,AFNE01.JPG,,,,,,,,,2,8,28,7,,,,,,,,,,,,,,,AMSA14.jpg,AMSA10.jpg,AMNE08.jpg,AMNE05.jpg,AMNE08.jpg,MN,1,num_2,32,num_6,1.56670664153,,,2017_Aug_15_1615,60.0009429877,MAFE4ImagesEEG,001,101274,
AFNE01.JPG,AFNE01.JPG,AFNE01.JPG,AFNE01.JPG,AFNE01.JPG,AFNE01.JPG,,,,,,,,,2,9,29,3,,,,,,,,,,,,,,,AMSA20.jpg,AMNE13.jpg,AMSA16.jpg,AMNE17.jpg,AMSA16.jpg,MS,2,num_2,16,num_2,1.93357352461,,,2017_Aug_15_1615,60.0009429877,MAFE4ImagesEEG,001,101274,
AFNE01.JPG,AFNE01.JPG,AFNE01.JPG,AFNE01.JPG,AFNE01.JPG,AFNE01.JPG,,,,,,,,,3,0,30,0,,,,,,,,,,,,,,,AMNE02.jpg,AMSA14.jpg,AMNE05.jpg,AMSA08.jpg,AMNE02.jpg,MN,1,num_8,16,num_8,0.666793786499,,,2017_Aug_15_1615,60.0009429877,MAFE4ImagesEEG,001,101274,
AFNE01.JPG,AFNE01.JPG,AFNE01.JPG,AFNE01.JPG,AFNE01.JPG,AFNE01.JPG,,,,,,,,,3,1,31,9,,,,,,,,,,,,,,,AMSA09.jpg,AMNE15.jpg,AMNE09.jpg,AMSA12.jpg,AMSA09.jpg,MS,2,num_8,32,num_6,1.76666571513,,,2017_Aug_15_1615,60.0009429877,MAFE4ImagesEEG,001,101274,
AFNE01.JPG,AFNE01.JPG,AFNE01.JPG,AFNE01.JPG,AFNE01.JPG,AFNE01.JPG,,,,,,,,,3,2,32,8,,,,,,,,,,,,,,,AMNE16.jpg,AMNE20.jpg,AMSA14.jpg,AMSA13.jpg,AMSA14.jpg,MS,2,num_2,32,num_8,1.20010565166,,,2017_Aug_15_1615,60.0009429877,MAFE4ImagesEEG,001,101274,
AFNE01.JPG,AFNE01.JPG,AFNE01.JPG,AFNE01.JPG,AFNE01.JPG,AFNE01.JPG,,,,,,,,,3,3,33,7,,,,,,,,,,,,,,,AMSA10.jpg,AMNE02.jpg,AMSA08.jpg,AMNE07.jpg,AMSA10.jpg,MS,2,num_8,16,num_8,1.36669496659,,,2017_Aug_15_1615,60.0009429877,MAFE4ImagesEEG,001,101274,
AFNE01.JPG,AFNE01.JPG,AFNE01.JPG,AFNE01.JPG,AFNE01.JPG,AFNE01.JPG,,,,,,,,,3,4,34,2,,,,,,,,,,,,,,,AMSA19.jpg,AMNE05.jpg,AMSA14.jpg,AMNE07.jpg,AMSA14.jpg,MS,2,num_2,16,num_2,0.616735620351,,,2017_Aug_15_1615,60.0009429877,MAFE4ImagesEEG,001,101274,
AFNE01.JPG,AFNE01.JPG,AFNE01.JPG,AFNE01.JPG,AFNE01.JPG,AFNE01.JPG,,,,,,,,,3,5,35,1,,,,,,,,,,,,,,,AMNE08.jpg,AMNE16.jpg,AMSA04.jpg,AMSA19.jpg,AMSA19.jpg,MS,2,num_4,32,num_8,1.0001058441,,,2017_Aug_15_1615,60.0009429877,MAFE4ImagesEEG,001,101274,
AFNE01.JPG,AFNE01.JPG,AFNE01.JPG,AFNE01.JPG,AFNE01.JPG,AFNE01.JPG,,,,,,,,,3,6,36,5,,,,,,,,,,,,,,,AMSA11.jpg,AMNE02.jpg,AMSA09.jpg,AMNE15.jpg,AMNE02.jpg,MN,1,num_6,32,num_4,1.13341713193,,,2017_Aug_15_1615,60.0009429877,MAFE4ImagesEEG,001,101274,
AFNE01.JPG,AFNE01.JPG,AFNE01.JPG,AFNE01.JPG,AFNE01.JPG,AFNE01.JPG,,,,,,,,,3,7,37,4,,,,,,,,,,,,,,,AMNE15.jpg,AMNE11.jpg,AMSA17.jpg,AMSA15.jpg,AMNE11.jpg,MN,1,num_6,32,num_8,1.86670571138,,,2017_Aug_15_1615,60.0009429877,MAFE4ImagesEEG,001,101274,
AFNE01.JPG,AFNE01.JPG,AFNE01.JPG,AFNE01.JPG,AFNE01.JPG,AFNE01.JPG,,,,,,,,,3,8,38,6,,,,,,,,,,,,,,,AMNE01.jpg,AMNE14.jpg,AMSA07.jpg,AMSA10.jpg,AMSA10.jpg,MS,2,num_4,32,num_8,2.55027450508,,,2017_Aug_15_1615,60.0009429877,MAFE4ImagesEEG,001,101274,
AFNE01.JPG,AFNE01.JPG,AFNE01.JPG,AFNE01.JPG,AFNE01.JPG,AFNE01.JPG,,,,,,,,,3,9,39,3,,,,,,,,,,,,,,,AMSA17.jpg,AMNE16.jpg,AMNE15.jpg,AMSA12.jpg,AMSA17.jpg,MS,2,num_8,32,num_6,1.21670168611,,,2017_Aug_15_1615,60.0009429877,MAFE4ImagesEEG,001,101274,
AFNE01.JPG,AFNE01.JPG,AFNE01.JPG,AFNE01.JPG,AFNE01.JPG,AFNE01.JPG,,,,,,,,,4,0,40,9,,,,,,,,,,,,,,,AMNE08.jpg,AMSA01.jpg,AMNE14.jpg,AMSA04.jpg,AMNE08.jpg,MN,1,num_8,16,num_8,0.783517058386,,,2017_Aug_15_1615,60.0009429877,MAFE4ImagesEEG,001,101274,
AFNE01.JPG,AFNE01.JPG,AFNE01.JPG,AFNE01.JPG,AFNE01.JPG,AFNE01.JPG,,,,,,,,,4,1,41,4,,,,,,,,,,,,,,,AMSA09.jpg,AMNE05.jpg,AMNE02.jpg,AMSA19.jpg,AMSA09.jpg,MS,2,num_8,16,num_8,0.900229425111,,,2017_Aug_15_1615,60.0009429877,MAFE4ImagesEEG,001,101274,
AFNE01.JPG,AFNE01.JPG,AFNE01.JPG,AFNE01.JPG,AFNE01.JPG,AFNE01.JPG,,,,,,,,,4,2,42,1,,,,,,,,,,,,,,,AMNE14.jpg,AMSA16.jpg,AMSA17.jpg,AMNE11.jpg,AMNE14.jpg,MN,1,num_8,16,num_8,1.00021874448,,,2017_Aug_15_1615,60.0009429877,MAFE4ImagesEEG,001,101274,
AFNE01.JPG,AFNE01.JPG,AFNE01.JPG,AFNE01.JPG,AFNE01.JPG,AFNE01.JPG,,,,,,,,,4,3,43,8,,,,,,,,,,,,,,,AMNE12.jpg,AMSA07.jpg,AMNE04.jpg,AMSA08.jpg,AMSA08.jpg,MS,2,num_4,32,num_2,1.0001212396,,,2017_Aug_15_1615,60.0009429877,MAFE4ImagesEEG,001,101274,
AFNE01.JPG,AFNE01.JPG,AFNE01.JPG,AFNE01.JPG,AFNE01.JPG,AFNE01.JPG,,,,,,,,,4,4,44,7,,,,,,,,,,,,,,,AMSA04.jpg,AMNE14.jpg,AMSA13.jpg,AMNE19.jpg,AMNE14.jpg,MN,1,num_6,32,num_8,1.01674004656,,,2017_Aug_15_1615,60.0009429877,MAFE4ImagesEEG,001,101274,
AFNE01.JPG,AFNE01.JPG,AFNE01.JPG,AFNE01.JPG,AFNE01.JPG,AFNE01.JPG,,,,,,,,,4,5,45,5,,,,,,,,,,,,,,,AMSA07.jpg,AMNE07.jpg,AMSA13.jpg,AMNE17.jpg,AMNE17.jpg,MN,1,num_4,16,num_4,1.15007988022,,,2017_Aug_15_1615,60.0009429877,MAFE4ImagesEEG,001,101274,
AFNE01.JPG,AFNE01.JPG,AFNE01.JPG,AFNE01.JPG,AFNE01.JPG,AFNE01.JPG,,,,,,,,,4,6,46,2,,,,,,,,,,,,,,,AMNE02.jpg,AMNE08.jpg,AMSA11.jpg,AMSA19.jpg,AMNE02.jpg,MN,1,num_8,32,num_2,1.53310915767,,,2017_Aug_15_1615,60.0009429877,MAFE4ImagesEEG,001,101274,
AFNE01.JPG,AFNE01.JPG,AFNE01.JPG,AFNE01.JPG,AFNE01.JPG,AFNE01.JPG,,,,,,,,,4,7,47,3,,,,,,,,,,,,,,,AMSA14.jpg,AMNE18.jpg,AMNE15.jpg,AMSA08.jpg,AMSA08.jpg,MS,2,num_4,32,num_6,0.666830350834,,,2017_Aug_15_1615,60.0009429877,MAFE4ImagesEEG,001,101274,
AFNE01.JPG,AFNE01.JPG,AFNE01.JPG,AFNE01.JPG,AFNE01.JPG,AFNE01.JPG,,,,,,,,,4,8,48,6,,,,,,,,,,,,,,,AMNE13.jpg,AMNE18.jpg,AMSA09.jpg,AMSA17.jpg,AMNE18.jpg,MN,1,num_6,32,num_8,0.933592127505,,,2017_Aug_15_1615,60.0009429877,MAFE4ImagesEEG,001,101274,
AFNE01.JPG,AFNE01.JPG,AFNE01.JPG,AFNE01.JPG,AFNE01.JPG,AFNE01.JPG,,,,,,,,,4,9,49,0,,,,,,,,,,,,,,,AMNE10.jpg,AMNE11.jpg,AMSA06.jpg,AMSA02.jpg,AMSA06.jpg,MS,2,num_2,32,num_8,1.36675334122,,,2017_Aug_15_1615,60.0009429877,MAFE4ImagesEEG,001,101274,
AFNE01.JPG,AFNE01.JPG,AFNE01.JPG,AFNE01.JPG,AFNE01.JPG,AFNE01.JPG,,,,,,,,,5,0,50,0,,,,,,,,,,,,,,,AMSA11.jpg,AMNE17.jpg,AMSA07.jpg,AMNE10.jpg,AMSA11.jpg,MS,2,num_8,32,num_2,1.55008109903,,,2017_Aug_15_1615,60.0009429877,MAFE4ImagesEEG,001,101274,
AFNE01.JPG,AFNE01.JPG,AFNE01.JPG,AFNE01.JPG,AFNE01.JPG,AFNE01.JPG,,,,,,,,,5,1,51,3,,,,,,,,,,,,,,,AMNE03.jpg,AMNE18.jpg,AMSA02.jpg,AMSA17.jpg,AMNE18.jpg,MN,1,num_6,32,num_8,0.91663846829,,,2017_Aug_15_1615,60.0009429877,MAFE4ImagesEEG,001,101274,
AFNE01.JPG,AFNE01.JPG,AFNE01.JPG,AFNE01.JPG,AFNE01.JPG,AFNE01.JPG,,,,,,,,,5,2,52,6,,,,,,,,,,,,,,,AMSA05.jpg,AMNE20.jpg,AMNE10.jpg,AMSA19.jpg,AMNE20.jpg,MN,1,num_6,16,num_6,0.816781935166,,,2017_Aug_15_1615,60.0009429877,MAFE4ImagesEEG,001,101274,
AFNE01.JPG,AFNE01.JPG,AFNE01.JPG,AFNE01.JPG,AFNE01.JPG,AFNE01.JPG,,,,,,,,,5,3,53,8,,,,,,,,,,,,,,,AMSA09.jpg,AMNE09.jpg,AMSA02.jpg,AMNE17.jpg,AMNE09.jpg,MN,1,num_6,32,num_8,0.900123901738,,,2017_Aug_15_1615,60.0009429877,MAFE4ImagesEEG,001,101274,
AFNE01.JPG,AFNE01.JPG,AFNE01.JPG,AFNE01.JPG,AFNE01.JPG,AFNE01.JPG,,,,,,,,,5,4,54,5,,,,,,,,,,,,,,,AMSA08.jpg,AMNE04.jpg,AMSA11.jpg,AMNE15.jpg,AMSA08.jpg,MS,2,num_8,32,num_6,0.733480381794,,,2017_Aug_15_1615,60.0009429877,MAFE4ImagesEEG,001,101274,
AFNE01.JPG,AFNE01.JPG,AFNE01.JPG,AFNE01.JPG,AFNE01.JPG,AFNE01.JPG,,,,,,,,,5,5,55,7,,,,,,,,,,,,,,,AMSA07.jpg,AMSA03.jpg,AMNE10.jpg,AMNE06.jpg,AMNE06.jpg,MN,1,num_4,32,num_2,1.50007136459,,,2017_Aug_15_1615,60.0009429877,MAFE4ImagesEEG,001,101274,
AFNE01.JPG,AFNE01.JPG,AFNE01.JPG,AFNE01.JPG,AFNE01.JPG,AFNE01.JPG,,,,,,,,,5,6,56,9,,,,,,,,,,,,,,,AMSA06.jpg,AMNE16.jpg,AMSA18.jpg,AMNE19.jpg,AMSA18.jpg,MS,2,num_2,32,num_8,0.950110542937,,,2017_Aug_15_1615,60.0009429877,MAFE4ImagesEEG,001,101274,
AFNE01.JPG,AFNE01.JPG,AFNE01.JPG,AFNE01.JPG,AFNE01.JPG,AFNE01.JPG,,,,,,,,,5,7,57,4,,,,,,,,,,,,,,,AMNE04.jpg,AMSA03.jpg,AMSA08.jpg,AMNE20.jpg,AMNE04.jpg,MN,1,num_8,32,num_2,1.51672962253,,,2017_Aug_15_1615,60.0009429877,MAFE4ImagesEEG,001,101274,
AFNE01.JPG,AFNE01.JPG,AFNE01.JPG,AFNE01.JPG,AFNE01.JPG,AFNE01.JPG,,,,,,,,,5,8,58,1,,,,,,,,,,,,,,,AMSA17.jpg,AMNE16.jpg,AMNE11.jpg,AMSA20.jpg,AMNE16.jpg,MN,1,num_6,16,num_6,0.750107848726,,,2017_Aug_15_1615,60.0009429877,MAFE4ImagesEEG,001,101274,
AFNE01.JPG,AFNE01.JPG,AFNE01.JPG,AFNE01.JPG,AFNE01.JPG,AFNE01.JPG,,,,,,,,,5,9,59,2,,,,,,,,,,,,,,,AMSA01.jpg,AMSA10.jpg,AMNE01.jpg,AMNE05.jpg,AMNE01.jpg,MN,1,num_2,16,num_2,1.73337133031,,,2017_Aug_15_1615,60.0009429877,MAFE4ImagesEEG,001,101274,
,,,,,,,,,,,,,,,,,,,,,,,,,,,,,,,,,,,,,,,,,,,space,11.2995461854,2017_Aug_15_1615,60.0009429877,MAFE4ImagesEEG,001,101274,
AFNE01.JPG,AFNE01.JPG,AFNE01.JPG,AFNE01.JPG,AFNE01.JPG,AFNE01.JPG,,,,,,,,,,,,,0,0,0,3,,,,,,,,,,,AFSA03.jpg,AFNE05.jpg,AFNE06.jpg,AFSA08.jpg,AFNE06.jpg,FN,3,num_2,32,num_8,1.40010257256,,,2017_Aug_15_1615,60.0009429877,MAFE4ImagesEEG,001,101274,
AFNE01.JPG,AFNE01.JPG,AFNE01.JPG,AFNE01.JPG,AFNE01.JPG,AFNE01.JPG,,,,,,,,,,,,,0,1,1,7,,,,,,,,,,,AFSA07.jpg,AFNE11.jpg,AFSA14.jpg,AFNE17.jpg,AFNE11.jpg,FN,3,num_6,32,num_2,1.00010231597,,,2017_Aug_15_1615,60.0009429877,MAFE4ImagesEEG,001,101274,
AFNE01.JPG,AFNE01.JPG,AFNE01.JPG,AFNE01.JPG,AFNE01.JPG,AFNE01.JPG,,,,,,,,,,,,,0,2,2,6,,,,,,,,,,,AFNE19.jpg,AFSA20.jpg,AFSA16.jpg,AFNE20.jpg,AFNE19.jpg,FN,3,num_8,16,num_8,0.783457400801,,,2017_Aug_15_1615,60.0009429877,MAFE4ImagesEEG,001,101274,
AFNE01.JPG,AFNE01.JPG,AFNE01.JPG,AFNE01.JPG,AFNE01.JPG,AFNE01.JPG,,,,,,,,,,,,,0,3,3,5,,,,,,,,,,,AFSA04.jpg,AFNE09.jpg,AFSA15.jpg,AFNE16.jpg,AFSA15.jpg,FS,4,num_2,16,num_2,0.96672261435,,,2017_Aug_15_1615,60.0009429877,MAFE4ImagesEEG,001,101274,
AFNE01.JPG,AFNE01.JPG,AFNE01.JPG,AFNE01.JPG,AFNE01.JPG,AFNE01.JPG,,,,,,,,,,,,,0,4,4,0,,,,,,,,,,,AFSA17.jpg,AFNE10.jpg,AFNE07.jpg,AFSA03.jpg,AFNE07.jpg,FN,3,num_2,32,num_6,0.75012709311,,,2017_Aug_15_1615,60.0009429877,MAFE4ImagesEEG,001,101274,
AFNE01.JPG,AFNE01.JPG,AFNE01.JPG,AFNE01.JPG,AFNE01.JPG,AFNE01.JPG,,,,,,,,,,,,,0,5,5,4,,,,,,,,,,,AFNE20.jpg,AFSA18.jpg,AFNE16.jpg,AFSA06.jpg,AFNE16.jpg,FN,3,num_2,32,num_8,1.64975994237,,,2017_Aug_15_1615,60.0009429877,MAFE4ImagesEEG,001,101274,
AFNE01.JPG,AFNE01.JPG,AFNE01.JPG,AFNE01.JPG,AFNE01.JPG,AFNE01.JPG,,,,,,,,,,,,,0,6,6,8,,,,,,,,,,,AFSA12.jpg,AFSA16.jpg,AFNE18.jpg,AFNE01.jpg,AFNE18.jpg,FN,3,num_2,32,num_8,0.81687976078,,,2017_Aug_15_1615,60.0009429877,MAFE4ImagesEEG,001,101274,
AFNE01.JPG,AFNE01.JPG,AFNE01.JPG,AFNE01.JPG,AFNE01.JPG,AFNE01.JPG,,,,,,,,,,,,,0,7,7,2,,,,,,,,,,,AFNE15.jpg,AFNE12.jpg,AFSA01.jpg,AFSA20.jpg,AFSA20.jpg,FS,4,num_4,32,num_2,0.850003191357,,,2017_Aug_15_1615,60.0009429877,MAFE4ImagesEEG,001,101274,
AFNE01.JPG,AFNE01.JPG,AFNE01.JPG,AFNE01.JPG,AFNE01.JPG,AFNE01.JPG,,,,,,,,,,,,,0,8,8,1,,,,,,,,,,,AFNE01.jpg,AFNE05.jpg,AFSA20.jpg,AFSA13.jpg,AFNE05.jpg,FN,3,num_6,32,num_8,0.900116845485,,,2017_Aug_15_1615,60.0009429877,MAFE4ImagesEEG,001,101274,
AFNE01.JPG,AFNE01.JPG,AFNE01.JPG,AFNE01.JPG,AFNE01.JPG,AFNE01.JPG,,,,,,,,,,,,,0,9,9,9,,,,,,,,,,,AFNE06.jpg,AFSA14.jpg,AFNE17.jpg,AFSA17.jpg,AFSA14.jpg,FS,4,num_6,32,num_4,0.866759916389,,,2017_Aug_15_1615,60.0009429877,MAFE4ImagesEEG,001,101274,
AFNE01.JPG,AFNE01.JPG,AFNE01.JPG,AFNE01.JPG,AFNE01.JPG,AFNE01.JPG,,,,,,,,,,,,,1,0,10,8,,,,,,,,,,,AFSA10.jpg,AFSA01.jpg,AFNE02.jpg,AFNE03.jpg,AFSA01.jpg,FS,4,num_6,16,num_6,0.766766427405,,,2017_Aug_15_1615,60.0009429877,MAFE4ImagesEEG,001,101274,
AFNE01.JPG,AFNE01.JPG,AFNE01.JPG,AFNE01.JPG,AFNE01.JPG,AFNE01.JPG,,,,,,,,,,,,,1,1,11,6,,,,,,,,,,,AFSA08.jpg,AFNE19.jpg,AFNE04.jpg,AFSA02.jpg,AFSA08.jpg,FS,4,num_8,16,num_8,0.766779898462,,,2017_Aug_15_1615,60.0009429877,MAFE4ImagesEEG,001,101274,
AFNE01.JPG,AFNE01.JPG,AFNE01.JPG,AFNE01.JPG,AFNE01.JPG,AFNE01.JPG,,,,,,,,,,,,,1,2,12,7,,,,,,,,,,,AFSA11.jpg,AFNE06.jpg,AFSA18.jpg,AFNE12.jpg,AFSA18.jpg,FS,4,num_2,16,num_2,1.15008276689,,,2017_Aug_15_1615,60.0009429877,MAFE4ImagesEEG,001,101274,
AFNE01.JPG,AFNE01.JPG,AFNE01.JPG,AFNE01.JPG,AFNE01.JPG,AFNE01.JPG,,,,,,,,,,,,,1,3,13,9,,,,,,,,,,,AFSA11.jpg,AFNE06.jpg,AFSA19.jpg,AFNE17.jpg,AFNE17.jpg,FN,3,num_4,32,num_8,1.01674806506,,,2017_Aug_15_1615,60.0009429877,MAFE4ImagesEEG,001,101274,
AFNE01.JPG,AFNE01.JPG,AFNE01.JPG,AFNE01.JPG,AFNE01.JPG,AFNE01.JPG,,,,,,,,,,,,,1,4,14,1,,,,,,,,,,,AFNE15.jpg,AFSA08.jpg,AFNE01.jpg,AFSA18.jpg,AFSA08.jpg,FS,4,num_6,32,num_2,0.916731162069,,,2017_Aug_15_1615,60.0009429877,MAFE4ImagesEEG,001,101274,
AFNE01.JPG,AFNE01.JPG,AFNE01.JPG,AFNE01.JPG,AFNE01.JPG,AFNE01.JPG,,,,,,,,,,,,,1,5,15,3,,,,,,,,,,,AFNE09.jpg,AFSA15.jpg,AFSA17.jpg,AFNE02.jpg,AFSA17.jpg,FS,4,num_2,32,num_6,1.28346269301,,,2017_Aug_15_1615,60.0009429877,MAFE4ImagesEEG,001,101274,
AFNE01.JPG,AFNE01.JPG,AFNE01.JPG,AFNE01.JPG,AFNE01.JPG,AFNE01.JPG,,,,,,,,,,,,,1,6,16,4,,,,,,,,,,,AFSA17.jpg,AFNE02.jpg,AFSA15.jpg,AFNE14.jpg,AFNE14.jpg,FN,3,num_4,32,num_8,1.10007014578,,,2017_Aug_15_1615,60.0009429877,MAFE4ImagesEEG,001,101274,
AFNE01.JPG,AFNE01.JPG,AFNE01.JPG,AFNE01.JPG,AFNE01.JPG,AFNE01.JPG,,,,,,,,,,,,,1,7,17,5,,,,,,,,,,,AFNE19.jpg,AFNE04.jpg,AFSA06.jpg,AFSA17.jpg,AFNE04.jpg,FN,3,num_6,16,num_6,1.50009125045,,,2017_Aug_15_1615,60.0009429877,MAFE4ImagesEEG,001,101274,
AFNE01.JPG,AFNE01.JPG,AFNE01.JPG,AFNE01.JPG,AFNE01.JPG,AFNE01.JPG,,,,,,,,,,,,,1,8,18,0,,,,,,,,,,,AFNE04.jpg,AFSA01.jpg,AFNE10.jpg,AFSA11.jpg,AFNE04.jpg,FN,3,num_8,16,num_8,2.96656384821,,,2017_Aug_15_1615,60.0009429877,MAFE4ImagesEEG,001,101274,
AFNE01.JPG,AFNE01.JPG,AFNE01.JPG,AFNE01.JPG,AFNE01.JPG,AFNE01.JPG,,,,,,,,,,,,,1,9,19,2,,,,,,,,,,,AFSA14.jpg,AFSA07.jpg,AFNE17.jpg,AFNE04.jpg,AFNE04.jpg,FN,3,num_4,16,num_4,0.500140323624,,,2017_Aug_15_1615,60.0009429877,MAFE4ImagesEEG,001,101274,
AFNE01.JPG,AFNE01.JPG,AFNE01.JPG,AFNE01.JPG,AFNE01.JPG,AFNE01.JPG,,,,,,,,,,,,,2,0,20,9,,,,,,,,,,,AFNE14.jpg,AFSA03.jpg,AFNE15.jpg,AFSA14.jpg,AFSA03.jpg,FS,4,num_6,16,num_6,1.03343101995,,,2017_Aug_15_1615,60.0009429877,MAFE4ImagesEEG,001,101274,
AFNE01.JPG,AFNE01.JPG,AFNE01.JPG,AFNE01.JPG,AFNE01.JPG,AFNE01.JPG,,,,,,,,,,,,,2,1,21,4,,,,,,,,,,,AFNE02.jpg,AFSA13.jpg,AFNE12.jpg,AFSA12.jpg,AFSA13.jpg,FS,4,num_6,32,num_8,0.983489603066,,,2017_Aug_15_1615,60.0009429877,MAFE4ImagesEEG,001,101274,
AFNE01.JPG,AFNE01.JPG,AFNE01.JPG,AFNE01.JPG,AFNE01.JPG,AFNE01.JPG,,,,,,,,,,,,,2,2,22,3,,,,,,,,,,,AFNE14.jpg,AFNE02.jpg,AFSA13.jpg,AFSA12.jpg,AFNE14.jpg,FN,3,num_8,16,num_8,1.26670340206,,,2017_Aug_15_1615,60.0009429877,MAFE4ImagesEEG,001,101274,
AFNE01.JPG,AFNE01.JPG,AFNE01.JPG,AFNE01.JPG,AFNE01.JPG,AFNE01.JPG,,,,,,,,,,,,,2,3,23,8,,,,,,,,,,,AFNE09.jpg,AFSA08.jpg,AFSA19.jpg,AFNE16.jpg,AFSA08.jpg,FS,4,num_6,16,num_6,1.05008927791,,,2017_Aug_15_1615,60.0009429877,MAFE4ImagesEEG,001,101274,
AFNE01.JPG,AFNE01.JPG,AFNE01.JPG,AFNE01.JPG,AFNE01.JPG,AFNE01.JPG,,,,,,,,,,,,,2,4,24,5,,,,,,,,,,,AFNE09.jpg,AFSA06.jpg,AFSA02.jpg,AFNE01.jpg,AFSA02.jpg,FS,4,num_2,16,num_2,1.90004756569,,,2017_Aug_15_1615,60.0009429877,MAFE4ImagesEEG,001,101274,
AFNE01.JPG,AFNE01.JPG,AFNE01.JPG,AFNE01.JPG,AFNE01.JPG,AFNE01.JPG,,,,,,,,,,,,,2,5,25,7,,,,,,,,,,,AFNE04.jpg,AFSA20.jpg,AFNE07.jpg,AFSA04.jpg,AFNE04.jpg,FN,3,num_8,16,num_8,0.766776049597,,,2017_Aug_15_1615,60.0009429877,MAFE4ImagesEEG,001,101274,
AFNE01.JPG,AFNE01.JPG,AFNE01.JPG,AFNE01.JPG,AFNE01.JPG,AFNE01.JPG,,,,,,,,,,,,,2,6,26,2,,,,,,,,,,,AFNE13.jpg,AFSA14.jpg,AFSA06.jpg,AFNE16.jpg,AFNE13.jpg,FN,3,num_8,16,num_8,1.55008302347,,,2017_Aug_15_1615,60.0009429877,MAFE4ImagesEEG,001,101274,
AFNE01.JPG,AFNE01.JPG,AFNE01.JPG,AFNE01.JPG,AFNE01.JPG,AFNE01.JPG,,,,,,,,,,,,,2,7,27,0,,,,,,,,,,,AFNE18.jpg,AFSA01.jpg,AFNE12.jpg,AFSA10.jpg,AFNE18.jpg,FN,3,num_8,16,num_8,0.633472459522,,,2017_Aug_15_1615,60.0009429877,MAFE4ImagesEEG,001,101274,
AFNE01.JPG,AFNE01.JPG,AFNE01.JPG,AFNE01.JPG,AFNE01.JPG,AFNE01.JPG,,,,,,,,,,,,,2,8,28,6,,,,,,,,,,,AFSA01.jpg,AFSA08.jpg,AFNE19.jpg,AFNE08.jpg,AFNE19.jpg,FN,3,num_2,32,num_6,1.73338287692,,,2017_Aug_15_1615,60.0009429877,MAFE4ImagesEEG,001,101274,
AFNE01.JPG,AFNE01.JPG,AFNE01.JPG,AFNE01.JPG,AFNE01.JPG,AFNE01.JPG,,,,,,,,,,,,,2,9,29,1,,,,,,,,,,,AFSA19.jpg,AFNE10.jpg,AFNE16.jpg,AFSA08.jpg,AFSA08.jpg,FS,4,num_4,32,num_8,0.75014601674,,,2017_Aug_15_1615,60.0009429877,MAFE4ImagesEEG,001,101274,
AFNE01.JPG,AFNE01.JPG,AFNE01.JPG,AFNE01.JPG,AFNE01.JPG,AFNE01.JPG,,,,,,,,,,,,,3,0,30,9,,,,,,,,,,,AFSA09.jpg,AFNE02.jpg,AFSA19.jpg,AFNE07.jpg,AFNE02.jpg,FN,3,num_6,32,num_2,1.18346278922,,,2017_Aug_15_1615,60.0009429877,MAFE4ImagesEEG,001,101274,
AFNE01.JPG,AFNE01.JPG,AFNE01.JPG,AFNE01.JPG,AFNE01.JPG,AFNE01.JPG,,,,,,,,,,,,,3,1,31,1,,,,,,,,,,,AFSA04.jpg,AFNE14.jpg,AFSA17.jpg,AFNE03.jpg,AFSA04.jpg,FS,4,num_8,32,num_6,0.716773050692,,,2017_Aug_15_1615,60.0009429877,MAFE4ImagesEEG,001,101274,
AFNE01.JPG,AFNE01.JPG,AFNE01.JPG,AFNE01.JPG,AFNE01.JPG,AFNE01.JPG,,,,,,,,,,,,,3,2,32,0,,,,,,,,,,,AFSA18.jpg,AFSA04.jpg,AFNE12.jpg,AFNE09.jpg,AFSA18.jpg,FS,4,num_8,32,num_6,0.716900384345,,,2017_Aug_15_1615,60.0009429877,MAFE4ImagesEEG,001,101274,
AFNE01.JPG,AFNE01.JPG,AFNE01.JPG,AFNE01.JPG,AFNE01.JPG,AFNE01.JPG,,,,,,,,,,,,,3,3,33,6,,,,,,,,,,,AFNE02.jpg,AFSA13.jpg,AFNE10.jpg,AFSA07.jpg,AFSA07.jpg,FS,4,num_4,32,num_8,1.31673045644,,,2017_Aug_15_1615,60.0009429877,MAFE4ImagesEEG,001,101274,
AFNE01.JPG,AFNE01.JPG,AFNE01.JPG,AFNE01.JPG,AFNE01.JPG,AFNE01.JPG,,,,,,,,,,,,,3,4,34,4,,,,,,,,,,,AFSA15.jpg,AFSA13.jpg,AFNE02.jpg,AFNE17.jpg,AFNE02.jpg,FN,3,num_2,32,num_6,1.31641292415,,,2017_Aug_15_1615,60.0009429877,MAFE4ImagesEEG,001,101274,
AFNE01.JPG,AFNE01.JPG,AFNE01.JPG,AFNE01.JPG,AFNE01.JPG,AFNE01.JPG,,,,,,,,,,,,,3,5,35,8,,,,,,,,,,,AFSA19.jpg,AFNE14.jpg,AFNE12.jpg,AFSA07.jpg,AFSA19.jpg,FS,4,num_8,16,num_8,1.00009654266,,,2017_Aug_15_1615,60.0009429877,MAFE4ImagesEEG,001,101274,
AFNE01.JPG,AFNE01.JPG,AFNE01.JPG,AFNE01.JPG,AFNE01.JPG,AFNE01.JPG,,,,,,,,,,,,,3,6,36,5,,,,,,,,,,,AFSA16.jpg,AFNE02.jpg,AFSA13.jpg,AFNE07.jpg,AFSA13.jpg,FS,4,num_2,32,num_8,1.30005936892,,,2017_Aug_15_1615,60.0009429877,MAFE4ImagesEEG,001,101274,
AFNE01.JPG,AFNE01.JPG,AFNE01.JPG,AFNE01.JPG,AFNE01.JPG,AFNE01.JPG,,,,,,,,,,,,,3,7,37,2,,,,,,,,,,,AFSA05.jpg,AFSA13.jpg,AFNE11.jpg,AFNE16.jpg,AFSA13.jpg,FS,4,num_6,16,num_6,1.26673226862,,,2017_Aug_15_1615,60.0009429877,MAFE4ImagesEEG,001,101274,
AFNE01.JPG,AFNE01.JPG,AFNE01.JPG,AFNE01.JPG,AFNE01.JPG,AFNE01.JPG,,,,,,,,,,,,,3,8,38,7,,,,,,,,,,,AFNE02.jpg,AFNE04.jpg,AFSA01.jpg,AFSA04.jpg,AFNE02.jpg,FN,3,num_8,16,num_8,1.50011947555,,,2017_Aug_15_1615,60.0009429877,MAFE4ImagesEEG,001,101274,
AFNE01.JPG,AFNE01.JPG,AFNE01.JPG,AFNE01.JPG,AFNE01.JPG,AFNE01.JPG,,,,,,,,,,,,,3,9,39,3,,,,,,,,,,,AFNE15.jpg,AFSA20.jpg,AFNE07.jpg,AFSA07.jpg,AFSA20.jpg,FS,4,num_6,32,num_4,1.2334638637,,,2017_Aug_15_1615,60.0009429877,MAFE4ImagesEEG,001,101274,
AFNE01.JPG,AFNE01.JPG,AFNE01.JPG,AFNE01.JPG,AFNE01.JPG,AFNE01.JPG,,,,,,,,,,,,,4,0,40,6,,,,,,,,,,,AFSA01.jpg,AFNE20.jpg,AFSA08.jpg,AFNE07.jpg,AFSA08.jpg,FS,4,num_2,32,num_6,0.650124944164,,,2017_Aug_15_1615,60.0009429877,MAFE4ImagesEEG,001,101274,
AFNE01.JPG,AFNE01.JPG,AFNE01.JPG,AFNE01.JPG,AFNE01.JPG,AFNE01.JPG,,,,,,,,,,,,,4,1,41,2,,,,,,,,,,,AFNE17.jpg,AFSA07.jpg,AFNE03.jpg,AFSA15.jpg,AFNE03.jpg,FN,3,num_2,32,num_8,0.833447249373,,,2017_Aug_15_1615,60.0009429877,MAFE4ImagesEEG,001,101274,
AFNE01.JPG,AFNE01.JPG,AFNE01.JPG,AFNE01.JPG,AFNE01.JPG,AFNE01.JPG,,,,,,,,,,,,,4,2,42,5,,,,,,,,,,,AFNE17.jpg,AFSA08.jpg,AFSA07.jpg,AFNE01.jpg,AFSA08.jpg,FS,4,num_6,32,num_2,0.733422007179,,,2017_Aug_15_1615,60.0009429877,MAFE4ImagesEEG,001,101274,
AFNE01.JPG,AFNE01.JPG,AFNE01.JPG,AFNE01.JPG,AFNE01.JPG,AFNE01.JPG,,,,,,,,,,,,,4,3,43,8,,,,,,,,,,,AFSA07.jpg,AFNE13.jpg,AFNE03.jpg,AFSA16.jpg,AFNE03.jpg,FN,3,num_2,32,num_6,0.683514909426,,,2017_Aug_15_1615,60.0009429877,MAFE4ImagesEEG,001,101274,
AFNE01.JPG,AFNE01.JPG,AFNE01.JPG,AFNE01.JPG,AFNE01.JPG,AFNE01.JPG,,,,,,,,,,,,,4,4,44,3,,,,,,,,,,,AFSA02.jpg,AFNE17.jpg,AFNE03.jpg,AFSA16.jpg,AFNE03.jpg,FN,3,num_2,32,num_8,0.533496611228,,,2017_Aug_15_1615,60.0009429877,MAFE4ImagesEEG,001,101274,
AFNE01.JPG,AFNE01.JPG,AFNE01.JPG,AFNE01.JPG,AFNE01.JPG,AFNE01.JPG,,,,,,,,,,,,,4,5,45,1,,,,,,,,,,,AFNE10.jpg,AFSA06.jpg,AFNE09.jpg,AFSA15.jpg,AFSA15.jpg,FS,4,num_4,16,num_4,0.900093431483,,,2017_Aug_15_1615,60.0009429877,MAFE4ImagesEEG,001,101274,
AFNE01.JPG,AFNE01.JPG,AFNE01.JPG,AFNE01.JPG,AFNE01.JPG,AFNE01.JPG,,,,,,,,,,,,,4,6,46,9,,,,,,,,,,,AFNE17.jpg,AFSA12.jpg,AFNE09.jpg,AFSA19.jpg,AFSA12.jpg,FS,4,num_6,16,num_6,0.833468738943,,,2017_Aug_15_1615,60.0009429877,MAFE4ImagesEEG,001,101274,
AFNE01.JPG,AFNE01.JPG,AFNE01.JPG,AFNE01.JPG,AFNE01.JPG,AFNE01.JPG,,,,,,,,,,,,,4,7,47,4,,,,,,,,,,,AFSA01.jpg,AFSA15.jpg,AFNE17.jpg,AFNE18.jpg,AFNE18.jpg,FN,3,num_4,32,num_2,1.08349944977,,,2017_Aug_15_1615,60.0009429877,MAFE4ImagesEEG,001,101274,
AFNE01.JPG,AFNE01.JPG,AFNE01.JPG,AFNE01.JPG,AFNE01.JPG,AFNE01.JPG,,,,,,,,,,,,,4,8,48,0,,,,,,,,,,,AFNE17.jpg,AFSA11.jpg,AFSA17.jpg,AFNE02.jpg,AFSA11.jpg,FS,4,num_6,32,num_8,1.0167355562,,,2017_Aug_15_1615,60.0009429877,MAFE4ImagesEEG,001,101274,
AFNE01.JPG,AFNE01.JPG,AFNE01.JPG,AFNE01.JPG,AFNE01.JPG,AFNE01.JPG,,,,,,,,,,,,,4,9,49,7,,,,,,,,,,,AFSA18.jpg,AFNE20.jpg,AFNE07.jpg,AFSA12.jpg,AFSA18.jpg,FS,4,num_8,32,num_6,1.68336993508,,,2017_Aug_15_1615,60.0009429877,MAFE4ImagesEEG,001,101274,
AFNE01.JPG,AFNE01.JPG,AFNE01.JPG,AFNE01.JPG,AFNE01.JPG,AFNE01.JPG,,,,,,,,,,,,,5,0,50,0,,,,,,,,,,,AFSA18.jpg,AFSA06.jpg,AFNE15.jpg,AFNE08.jpg,AFSA06.jpg,FS,4,num_6,32,num_8,3.04995809536,,,2017_Aug_15_1615,60.0009429877,MAFE4ImagesEEG,001,101274,
AFNE01.JPG,AFNE01.JPG,AFNE01.JPG,AFNE01.JPG,AFNE01.JPG,AFNE01.JPG,,,,,,,,,,,,,5,1,51,6,,,,,,,,,,,AFSA07.jpg,AFNE11.jpg,AFSA08.jpg,AFNE08.jpg,AFSA08.jpg,FS,4,num_2,16,num_2,1.18342365898,,,2017_Aug_15_1615,60.0009429877,MAFE4ImagesEEG,001,101274,
AFNE01.JPG,AFNE01.JPG,AFNE01.JPG,AFNE01.JPG,AFNE01.JPG,AFNE01.JPG,,,,,,,,,,,,,5,2,52,1,,,,,,,,,,,AFNE01.jpg,AFSA08.jpg,AFSA12.jpg,AFNE06.jpg,AFSA08.jpg,FS,4,num_6,16,num_6,0.883427796522,,,2017_Aug_15_1615,60.0009429877,MAFE4ImagesEEG,001,101274,
AFNE01.JPG,AFNE01.JPG,AFNE01.JPG,AFNE01.JPG,AFNE01.JPG,AFNE01.JPG,,,,,,,,,,,,,5,3,53,3,,,,,,,,,,,AFSA04.jpg,AFNE12.jpg,AFSA17.jpg,AFNE20.jpg,AFSA17.jpg,FS,4,num_2,32,num_8,0.833458796013,,,2017_Aug_15_1615,60.0009429877,MAFE4ImagesEEG,001,101274,
AFNE01.JPG,AFNE01.JPG,AFNE01.JPG,AFNE01.JPG,AFNE01.JPG,AFNE01.JPG,,,,,,,,,,,,,5,4,54,8,,,,,,,,,,,AFNE11.jpg,AFNE15.jpg,AFSA05.jpg,AFSA07.jpg,AFSA05.jpg,FS,4,num_2,32,num_8,1.91668305112,,,2017_Aug_15_1615,60.0009429877,MAFE4ImagesEEG,001,101274,
AFNE01.JPG,AFNE01.JPG,AFNE01.JPG,AFNE01.JPG,AFNE01.JPG,AFNE01.JPG,,,,,,,,,,,,,5,5,55,9,,,,,,,,,,,AFSA14.jpg,AFSA09.jpg,AFNE17.jpg,AFNE14.jpg,AFSA14.jpg,FS,4,num_8,32,num_6,0.616811635657,,,2017_Aug_15_1615,60.0009429877,MAFE4ImagesEEG,001,101274,
AFNE01.JPG,AFNE01.JPG,AFNE01.JPG,AFNE01.JPG,AFNE01.JPG,AFNE01.JPG,,,,,,,,,,,,,5,6,56,2,,,,,,,,,,,AFSA13.jpg,AFSA03.jpg,AFNE20.jpg,AFNE15.jpg,AFSA03.jpg,FS,4,num_6,32,num_2,0.583367786123,,,2017_Aug_15_1615,60.0009429877,MAFE4ImagesEEG,001,101274,
AFNE01.JPG,AFNE01.JPG,AFNE01.JPG,AFNE01.JPG,AFNE01.JPG,AFNE01.JPG,,,,,,,,,,,,,5,7,57,7,,,,,,,,,,,AFNE08.jpg,AFNE11.jpg,AFSA07.jpg,AFSA13.jpg,AFNE11.jpg,FN,3,num_6,32,num_8,0.750076736964,,,2017_Aug_15_1615,60.0009429877,MAFE4ImagesEEG,001,101274,
AFNE01.JPG,AFNE01.JPG,AFNE01.JPG,AFNE01.JPG,AFNE01.JPG,AFNE01.JPG,,,,,,,,,,,,,5,8,58,4,,,,,,,,,,,AFNE01.jpg,AFSA11.jpg,AFSA04.jpg,AFNE19.jpg,AFSA11.jpg,FS,4,num_6,16,num_6,0.983483188262,,,2017_Aug_15_1615,60.0009429877,MAFE4ImagesEEG,001,101274,
AFNE01.JPG,AFNE01.JPG,AFNE01.JPG,AFNE01.JPG,AFNE01.JPG,AFNE01.JPG,,,,,,,,,,,,,5,9,59,5,,,,,,,,,,,AFNE18.jpg,AFNE06.jpg,AFSA11.jpg,AFSA08.jpg,AFNE18.jpg,FN,3,num_8,16,num_8,1.14978512045,,,2017_Aug_15_1615,60.0009429877,MAFE4ImagesEEG,001,101274,
,,,,,,,,,,,,,,,,,,,,,,,,,,,,,,,,,,,,,,,,,,,space,7.79956911827,2017_Aug_15_1615,60.0009429877,MAFE4ImagesEEG,001,101274,
AFNE01.JPG,AFNE01.JPG,AFNE01.JPG,AFNE01.JPG,AFNE01.JPG,AFNE01.JPG,,,,,,,,,,,,,,,,,0,0,0,5,,,,,,,AMSA03.jpg,AMNE01.jpg,AMNE05.jpg,AMSA05.jpg,AMNE05.jpg,MN,1,num_2,32,num_8,0.933476661216,,,2017_Aug_15_1615,60.0009429877,MAFE4ImagesEEG,001,101274,
AFNE01.JPG,AFNE01.JPG,AFNE01.JPG,AFNE01.JPG,AFNE01.JPG,AFNE01.JPG,,,,,,,,,,,,,,,,,0,1,1,6,,,,,,,AMSA13.jpg,AMNE19.jpg,AMSA18.jpg,AMNE16.jpg,AMSA18.jpg,MS,2,num_2,16,num_2,0.533470952054,,,2017_Aug_15_1615,60.0009429877,MAFE4ImagesEEG,001,101274,
AFNE01.JPG,AFNE01.JPG,AFNE01.JPG,AFNE01.JPG,AFNE01.JPG,AFNE01.JPG,,,,,,,,,,,,,,,,,0,2,2,4,,,,,,,AMSA10.jpg,AMNE09.jpg,AMNE10.jpg,AMSA05.jpg,AMSA10.jpg,MS,2,num_8,32,num_6,0.65013135894,,,2017_Aug_15_1615,60.0009429877,MAFE4ImagesEEG,001,101274,
AFNE01.JPG,AFNE01.JPG,AFNE01.JPG,AFNE01.JPG,AFNE01.JPG,AFNE01.JPG,,,,,,,,,,,,,,,,,0,3,3,1,,,,,,,AMSA14.jpg,AMNE02.jpg,AMSA16.jpg,AMNE18.jpg,AMSA16.jpg,MS,2,num_2,32,num_8,0.483468594612,,,2017_Aug_15_1615,60.0009429877,MAFE4ImagesEEG,001,101274,
AFNE01.JPG,AFNE01.JPG,AFNE01.JPG,AFNE01.JPG,AFNE01.JPG,AFNE01.JPG,,,,,,,,,,,,,,,,,0,4,4,3,,,,,,,AMNE07.jpg,AMSA06.jpg,AMNE05.jpg,AMSA04.jpg,AMSA06.jpg,MS,2,num_6,32,num_2,0.96672646323,,,2017_Aug_15_1615,60.0009429877,MAFE4ImagesEEG,001,101274,
AFNE01.JPG,AFNE01.JPG,AFNE01.JPG,AFNE01.JPG,AFNE01.JPG,AFNE01.JPG,,,,,,,,,,,,,,,,,0,5,5,0,,,,,,,AMSA09.jpg,AMNE02.jpg,AMNE05.jpg,AMSA19.jpg,AMSA19.jpg,MS,2,num_4,16,num_4,0.850085300728,,,2017_Aug_15_1615,60.0009429877,MAFE4ImagesEEG,001,101274,
AFNE01.JPG,AFNE01.JPG,AFNE01.JPG,AFNE01.JPG,AFNE01.JPG,AFNE01.JPG,,,,,,,,,,,,,,,,,0,6,6,9,,,,,,,AMNE10.jpg,AMNE03.jpg,AMSA08.jpg,AMSA09.jpg,AMNE10.jpg,MN,1,num_8,16,num_8,0.850142392388,,,2017_Aug_15_1615,60.0009429877,MAFE4ImagesEEG,001,101274,
AFNE01.JPG,AFNE01.JPG,AFNE01.JPG,AFNE01.JPG,AFNE01.JPG,AFNE01.JPG,,,,,,,,,,,,,,,,,0,7,7,8,,,,,,,AMNE10.jpg,AMSA02.jpg,AMNE14.jpg,AMSA19.jpg,AMSA02.jpg,MS,2,num_6,32,num_2,1.00011001372,,,2017_Aug_15_1615,60.0009429877,MAFE4ImagesEEG,001,101274,
AFNE01.JPG,AFNE01.JPG,AFNE01.JPG,AFNE01.JPG,AFNE01.JPG,AFNE01.JPG,,,,,,,,,,,,,,,,,0,8,8,2,,,,,,,AMNE12.jpg,AMNE06.jpg,AMSA06.jpg,AMSA13.jpg,AMSA13.jpg,MS,2,num_4,32,num_6,0.583442839212,,,2017_Aug_15_1615,60.0009429877,MAFE4ImagesEEG,001,101274,
AFNE01.JPG,AFNE01.JPG,AFNE01.JPG,AFNE01.JPG,AFNE01.JPG,AFNE01.JPG,,,,,,,,,,,,,,,,,0,9,9,7,,,,,,,AMNE14.jpg,AMSA09.jpg,AMNE08.jpg,AMSA07.jpg,AMSA09.jpg,MS,2,num_6,32,num_8,0.833436664965,,,2017_Aug_15_1615,60.0009429877,MAFE4ImagesEEG,001,101274,
AFNE01.JPG,AFNE01.JPG,AFNE01.JPG,AFNE01.JPG,AFNE01.JPG,AFNE01.JPG,,,,,,,,,,,,,,,,,1,0,10,9,,,,,,,AMSA12.jpg,AMNE19.jpg,AMSA15.jpg,AMNE17.jpg,AMSA12.jpg,MS,2,num_8,32,num_2,1.19993277296,,,2017_Aug_15_1615,60.0009429877,MAFE4ImagesEEG,001,101274,
AFNE01.JPG,AFNE01.JPG,AFNE01.JPG,AFNE01.JPG,AFNE01.JPG,AFNE01.JPG,,,,,,,,,,,,,,,,,1,1,11,5,,,,,,,AMNE09.jpg,AMSA13.jpg,AMSA02.jpg,AMNE06.jpg,AMNE09.jpg,MN,1,num_8,32,num_6,0.983443416553,,,2017_Aug_15_1615,60.0009429877,MAFE4ImagesEEG,001,101274,
AFNE01.JPG,AFNE01.JPG,AFNE01.JPG,AFNE01.JPG,AFNE01.JPG,AFNE01.JPG,,,,,,,,,,,,,,,,,1,2,12,4,,,,,,,AMNE14.jpg,AMSA12.jpg,AMSA13.jpg,AMNE02.jpg,AMSA12.jpg,MS,2,num_6,16,num_6,0.800166014873,,,2017_Aug_15_1615,60.0009429877,MAFE4ImagesEEG,001,101274,
AFNE01.JPG,AFNE01.JPG,AFNE01.JPG,AFNE01.JPG,AFNE01.JPG,AFNE01.JPG,,,,,,,,,,,,,,,,,1,3,13,1,,,,,,,AMNE04.jpg,AMSA20.jpg,AMNE06.jpg,AMSA15.jpg,AMNE06.jpg,MN,1,num_2,32,num_8,0.933445549468,,,2017_Aug_15_1615,60.0009429877,MAFE4ImagesEEG,001,101274,
AFNE01.JPG,AFNE01.JPG,AFNE01.JPG,AFNE01.JPG,AFNE01.JPG,AFNE01.JPG,,,,,,,,,,,,,,,,,1,4,14,0,,,,,,,AMNE11.jpg,AMSA13.jpg,AMNE17.jpg,AMSA20.jpg,AMNE17.jpg,MN,1,num_2,16,num_2,0.550199131249,,,2017_Aug_15_1615,60.0009429877,MAFE4ImagesEEG,001,101274,
AFNE01.JPG,AFNE01.JPG,AFNE01.JPG,AFNE01.JPG,AFNE01.JPG,AFNE01.JPG,,,,,,,,,,,,,,,,,1,5,15,7,,,,,,,AMSA08.jpg,AMNE17.jpg,AMNE03.jpg,AMSA13.jpg,AMNE03.jpg,MN,1,num_2,32,num_8,0.900108185495,,,2017_Aug_15_1615,60.0009429877,MAFE4ImagesEEG,001,101274,
AFNE01.JPG,AFNE01.JPG,AFNE01.JPG,AFNE01.JPG,AFNE01.JPG,AFNE01.JPG,,,,,,,,,,,,,,,,,1,6,16,6,,,,,,,AMNE15.jpg,AMNE18.jpg,AMSA15.jpg,AMSA09.jpg,AMNE15.jpg,MN,1,num_8,16,num_8,0.766753277087,,,2017_Aug_15_1615,60.0009429877,MAFE4ImagesEEG,001,101274,
AFNE01.JPG,AFNE01.JPG,AFNE01.JPG,AFNE01.JPG,AFNE01.JPG,AFNE01.JPG,,,,,,,,,,,,,,,,,1,7,17,8,,,,,,,AMNE11.jpg,AMNE02.jpg,AMSA19.jpg,AMSA02.jpg,AMNE11.jpg,MN,1,num_8,32,num_6,1.2002554371,,,2017_Aug_15_1615,60.0009429877,MAFE4ImagesEEG,001,101274,
AFNE01.JPG,AFNE01.JPG,AFNE01.JPG,AFNE01.JPG,AFNE01.JPG,AFNE01.JPG,,,,,,,,,,,,,,,,,1,8,18,3,,,,,,,AMSA05.jpg,AMNE15.jpg,AMSA13.jpg,AMNE13.jpg,AMSA13.jpg,MS,2,num_2,32,num_4,0.783607186226,,,2017_Aug_15_1615,60.0009429877,MAFE4ImagesEEG,001,101274,
AFNE01.JPG,AFNE01.JPG,AFNE01.JPG,AFNE01.JPG,AFNE01.JPG,AFNE01.JPG,,,,,,,,,,,,,,,,,1,9,19,2,,,,,,,AMSA11.jpg,AMSA12.jpg,AMNE08.jpg,AMNE13.jpg,AMNE08.jpg,MN,1,num_2,32,num_8,0.566755714695,,,2017_Aug_15_1615,60.0009429877,MAFE4ImagesEEG,001,101274,
AFNE01.JPG,AFNE01.JPG,AFNE01.JPG,AFNE01.JPG,AFNE01.JPG,AFNE01.JPG,,,,,,,,,,,,,,,,,2,0,20,5,,,,,,,AMSA14.jpg,AMNE19.jpg,AMNE14.jpg,AMSA12.jpg,AMSA12.jpg,MS,2,num_4,32,num_6,0.650143547056,,,2017_Aug_15_1615,60.0009429877,MAFE4ImagesEEG,001,101274,
AFNE01.JPG,AFNE01.JPG,AFNE01.JPG,AFNE01.JPG,AFNE01.JPG,AFNE01.JPG,,,,,,,,,,,,,,,,,2,1,21,1,,,,,,,AMSA07.jpg,AMNE06.jpg,AMSA06.jpg,AMNE15.jpg,AMNE15.jpg,MN,1,num_4,32,num_8,0.700120886788,,,2017_Aug_15_1615,60.0009429877,MAFE4ImagesEEG,001,101274,
AFNE01.JPG,AFNE01.JPG,AFNE01.JPG,AFNE01.JPG,AFNE01.JPG,AFNE01.JPG,,,,,,,,,,,,,,,,,2,2,22,3,,,,,,,AMSA09.jpg,AMNE07.jpg,AMNE06.jpg,AMSA10.jpg,AMNE07.jpg,MN,1,num_6,16,num_6,0.566920895639,,,2017_Aug_15_1615,60.0009429877,MAFE4ImagesEEG,001,101274,
AFNE01.JPG,AFNE01.JPG,AFNE01.JPG,AFNE01.JPG,AFNE01.JPG,AFNE01.JPG,,,,,,,,,,,,,,,,,2,3,23,8,,,,,,,AMNE19.jpg,AMSA15.jpg,AMSA05.jpg,AMNE16.jpg,AMSA15.jpg,MS,2,num_6,16,num_6,0.61678148614,,,2017_Aug_15_1615,60.0009429877,MAFE4ImagesEEG,001,101274,
AFNE01.JPG,AFNE01.JPG,AFNE01.JPG,AFNE01.JPG,AFNE01.JPG,AFNE01.JPG,,,,,,,,,,,,,,,,,2,4,24,9,,,,,,,AMNE09.jpg,AMSA10.jpg,AMSA04.jpg,AMNE02.jpg,AMSA10.jpg,MS,2,num_6,32,num_8,0.750135111608,,,2017_Aug_15_1615,60.0009429877,MAFE4ImagesEEG,001,101274,
AFNE01.JPG,AFNE01.JPG,AFNE01.JPG,AFNE01.JPG,AFNE01.JPG,AFNE01.JPG,,,,,,,,,,,,,,,,,2,5,25,6,,,,,,,AMSA07.jpg,AMNE09.jpg,AMSA09.jpg,AMNE03.jpg,AMNE03.jpg,MN,1,num_4,16,num_4,0.783507756933,,,2017_Aug_15_1615,60.0009429877,MAFE4ImagesEEG,001,101274,
AFNE01.JPG,AFNE01.JPG,AFNE01.JPG,AFNE01.JPG,AFNE01.JPG,AFNE01.JPG,,,,,,,,,,,,,,,,,2,6,26,0,,,,,,,AMSA18.jpg,AMNE01.jpg,AMSA11.jpg,AMNE19.jpg,AMSA18.jpg,MS,2,num_8,32,num_6,1.04995071834,,,2017_Aug_15_1615,60.0009429877,MAFE4ImagesEEG,001,101274,
AFNE01.JPG,AFNE01.JPG,AFNE01.JPG,AFNE01.JPG,AFNE01.JPG,AFNE01.JPG,,,,,,,,,,,,,,,,,2,7,27,2,,,,,,,AMNE03.jpg,AMSA02.jpg,AMNE20.jpg,AMSA15.jpg,AMSA15.jpg,MS,2,num_4,32,num_2,1.21670745942,,,2017_Aug_15_1615,60.0009429877,MAFE4ImagesEEG,001,101274,
AFNE01.JPG,AFNE01.JPG,AFNE01.JPG,AFNE01.JPG,AFNE01.JPG,AFNE01.JPG,,,,,,,,,,,,,,,,,2,8,28,7,,,,,,,AMNE20.jpg,AMSA03.jpg,AMNE09.jpg,AMSA17.jpg,AMSA03.jpg,MS,2,num_6,32,num_8,0.966786762307,,,2017_Aug_15_1615,60.0009429877,MAFE4ImagesEEG,001,101274,
AFNE01.JPG,AFNE01.JPG,AFNE01.JPG,AFNE01.JPG,AFNE01.JPG,AFNE01.JPG,,,,,,,,,,,,,,,,,2,9,29,4,,,,,,,AMNE07.jpg,AMSA06.jpg,AMNE10.jpg,AMSA10.jpg,AMNE10.jpg,MN,1,num_2,32,num_6,0.883545507982,,,2017_Aug_15_1615,60.0009429877,MAFE4ImagesEEG,001,101274,
AFNE01.JPG,AFNE01.JPG,AFNE01.JPG,AFNE01.JPG,AFNE01.JPG,AFNE01.JPG,,,,,,,,,,,,,,,,,3,0,30,3,,,,,,,AMNE18.jpg,AMSA18.jpg,AMSA20.jpg,AMNE05.jpg,AMSA20.jpg,MS,2,num_2,32,num_8,0.916716087304,,,2017_Aug_15_1615,60.0009429877,MAFE4ImagesEEG,001,101274,
AFNE01.JPG,AFNE01.JPG,AFNE01.JPG,AFNE01.JPG,AFNE01.JPG,AFNE01.JPG,,,,,,,,,,,,,,,,,3,1,31,5,,,,,,,AMNE11.jpg,AMSA09.jpg,AMSA11.jpg,AMNE12.jpg,AMSA11.jpg,MS,2,num_2,32,num_6,1.30013987458,,,2017_Aug_15_1615,60.0009429877,MAFE4ImagesEEG,001,101274,
AFNE01.JPG,AFNE01.JPG,AFNE01.JPG,AFNE01.JPG,AFNE01.JPG,AFNE01.JPG,,,,,,,,,,,,,,,,,3,2,32,6,,,,,,,AMNE09.jpg,AMSA17.jpg,AMNE20.jpg,AMSA07.jpg,AMNE20.jpg,MN,1,num_2,32,num_8,0.983459453535,,,2017_Aug_15_1615,60.0009429877,MAFE4ImagesEEG,001,101274,
AFNE01.JPG,AFNE01.JPG,AFNE01.JPG,AFNE01.JPG,AFNE01.JPG,AFNE01.JPG,,,,,,,,,,,,,,,,,3,3,33,1,,,,,,,AMSA15.jpg,AMNE01.jpg,AMNE14.jpg,AMSA07.jpg,AMSA07.jpg,MS,2,num_4,32,num_8,0.966763989782,,,2017_Aug_15_1615,60.0009429877,MAFE4ImagesEEG,001,101274,
AFNE01.JPG,AFNE01.JPG,AFNE01.JPG,AFNE01.JPG,AFNE01.JPG,AFNE01.JPG,,,,,,,,,,,,,,,,,3,4,34,8,,,,,,,AMSA06.jpg,AMNE17.jpg,AMSA15.jpg,AMNE18.jpg,AMSA15.jpg,MS,2,num_2,32,num_8,1.26683426385,,,2017_Aug_15_1615,60.0009429877,MAFE4ImagesEEG,001,101274,
AFNE01.JPG,AFNE01.JPG,AFNE01.JPG,AFNE01.JPG,AFNE01.JPG,AFNE01.JPG,,,,,,,,,,,,,,,,,3,5,35,4,,,,,,,AMSA14.jpg,AMNE03.jpg,AMSA15.jpg,AMNE09.jpg,AMNE03.jpg,MN,1,num_6,16,num_6,1.23341350758,,,2017_Aug_15_1615,60.0009429877,MAFE4ImagesEEG,001,101274,
AFNE01.JPG,AFNE01.JPG,AFNE01.JPG,AFNE01.JPG,AFNE01.JPG,AFNE01.JPG,,,,,,,,,,,,,,,,,3,6,36,7,,,,,,,AMNE05.jpg,AMNE16.jpg,AMSA20.jpg,AMSA17.jpg,AMNE16.jpg,MN,1,num_6,32,num_8,1.10005795766,,,2017_Aug_15_1615,60.0009429877,MAFE4ImagesEEG,001,101274,
AFNE01.JPG,AFNE01.JPG,AFNE01.JPG,AFNE01.JPG,AFNE01.JPG,AFNE01.JPG,,,,,,,,,,,,,,,,,3,7,37,2,,,,,,,AMSA14.jpg,AMNE15.jpg,AMSA07.jpg,AMNE07.jpg,AMSA14.jpg,MS,2,num_8,16,num_8,0.816744729367,,,2017_Aug_15_1615,60.0009429877,MAFE4ImagesEEG,001,101274,
AFNE01.JPG,AFNE01.JPG,AFNE01.JPG,AFNE01.JPG,AFNE01.JPG,AFNE01.JPG,,,,,,,,,,,,,,,,,3,8,38,0,,,,,,,AMNE07.jpg,AMSA16.jpg,AMSA17.jpg,AMNE13.jpg,AMSA17.jpg,MS,2,num_2,16,num_2,1.03345347174,,,2017_Aug_15_1615,60.0009429877,MAFE4ImagesEEG,001,101274,
AFNE01.JPG,AFNE01.JPG,AFNE01.JPG,AFNE01.JPG,AFNE01.JPG,AFNE01.JPG,,,,,,,,,,,,,,,,,3,9,39,9,,,,,,,AMSA12.jpg,AMSA05.jpg,AMNE01.jpg,AMNE20.jpg,AMNE20.jpg,MN,1,num_4,16,num_4,0.583460479902,,,2017_Aug_15_1615,60.0009429877,MAFE4ImagesEEG,001,101274,
AFNE01.JPG,AFNE01.JPG,AFNE01.JPG,AFNE01.JPG,AFNE01.JPG,AFNE01.JPG,,,,,,,,,,,,,,,,,4,0,40,9,,,,,,,AMSA07.jpg,AMNE03.jpg,AMNE17.jpg,AMSA02.jpg,AMSA07.jpg,MS,2,num_8,16,num_8,1.06678634534,,,2017_Aug_15_1615,60.0009429877,MAFE4ImagesEEG,001,101274,
AFNE01.JPG,AFNE01.JPG,AFNE01.JPG,AFNE01.JPG,AFNE01.JPG,AFNE01.JPG,,,,,,,,,,,,,,,,,4,1,41,0,,,,,,,AMNE01.jpg,AMSA02.jpg,AMNE13.jpg,AMSA13.jpg,AMNE01.jpg,MN,1,num_8,16,num_8,1.150078918,,,2017_Aug_15_1615,60.0009429877,MAFE4ImagesEEG,001,101274,
AFNE01.JPG,AFNE01.JPG,AFNE01.JPG,AFNE01.JPG,AFNE01.JPG,AFNE01.JPG,,,,,,,,,,,,,,,,,4,2,42,5,,,,,,,AMNE17.jpg,AMNE02.jpg,AMSA07.jpg,AMSA18.jpg,AMNE02.jpg,MN,1,num_6,16,num_6,1.26672777827,,,2017_Aug_15_1615,60.0009429877,MAFE4ImagesEEG,001,101274,
AFNE01.JPG,AFNE01.JPG,AFNE01.JPG,AFNE01.JPG,AFNE01.JPG,AFNE01.JPG,,,,,,,,,,,,,,,,,4,3,43,2,,,,,,,AMNE17.jpg,AMNE05.jpg,AMSA11.jpg,AMSA08.jpg,AMNE17.jpg,MN,1,num_8,16,num_8,1.05011878595,,,2017_Aug_15_1615,60.0009429877,MAFE4ImagesEEG,001,101274,
AFNE01.JPG,AFNE01.JPG,AFNE01.JPG,AFNE01.JPG,AFNE01.JPG,AFNE01.JPG,,,,,,,,,,,,,,,,,4,4,44,7,,,,,,,AMSA06.jpg,AMNE02.jpg,AMSA13.jpg,AMNE03.jpg,AMNE03.jpg,MN,1,num_4,32,num_6,1.05008831568,,,2017_Aug_15_1615,60.0009429877,MAFE4ImagesEEG,001,101274,
AFNE01.JPG,AFNE01.JPG,AFNE01.JPG,AFNE01.JPG,AFNE01.JPG,AFNE01.JPG,,,,,,,,,,,,,,,,,4,5,45,1,,,,,,,AMNE10.jpg,AMNE03.jpg,AMSA12.jpg,AMSA16.jpg,AMNE03.jpg,MN,1,num_6,32,num_2,0.883437418714,,,2017_Aug_15_1615,60.0009429877,MAFE4ImagesEEG,001,101274,
AFNE01.JPG,AFNE01.JPG,AFNE01.JPG,AFNE01.JPG,AFNE01.JPG,AFNE01.JPG,,,,,,,,,,,,,,,,,4,6,46,4,,,,,,,AMSA07.jpg,AMSA20.jpg,AMNE07.jpg,AMNE17.jpg,AMSA20.jpg,MS,2,num_6,32,num_8,1.10010703083,,,2017_Aug_15_1615,60.0009429877,MAFE4ImagesEEG,001,101274,
AFNE01.JPG,AFNE01.JPG,AFNE01.JPG,AFNE01.JPG,AFNE01.JPG,AFNE01.JPG,,,,,,,,,,,,,,,,,4,7,47,6,,,,,,,AMSA08.jpg,AMNE07.jpg,AMNE04.jpg,AMSA12.jpg,AMNE04.jpg,MN,1,num_2,16,num_2,0.966694389266,,,2017_Aug_15_1615,60.0009429877,MAFE4ImagesEEG,001,101274,
AFNE01.JPG,AFNE01.JPG,AFNE01.JPG,AFNE01.JPG,AFNE01.JPG,AFNE01.JPG,,,,,,,,,,,,,,,,,4,8,48,8,,,,,,,AMSA01.jpg,AMSA05.jpg,AMNE08.jpg,AMNE12.jpg,AMNE12.jpg,MN,1,num_4,32,num_8,0.683461345892,,,2017_Aug_15_1615,60.0009429877,MAFE4ImagesEEG,001,101274,
AFNE01.JPG,AFNE01.JPG,AFNE01.JPG,AFNE01.JPG,AFNE01.JPG,AFNE01.JPG,,,,,,,,,,,,,,,,,4,9,49,3,,,,,,,AMNE14.jpg,AMSA17.jpg,AMSA04.jpg,AMNE16.jpg,AMSA17.jpg,MS,2,num_6,16,num_6,0.900123260275,,,2017_Aug_15_1615,60.0009429877,MAFE4ImagesEEG,001,101274,
AFNE01.JPG,AFNE01.JPG,AFNE01.JPG,AFNE01.JPG,AFNE01.JPG,AFNE01.JPG,,,,,,,,,,,,,,,,,5,0,50,6,,,,,,,AMSA10.jpg,AMSA07.jpg,AMNE15.jpg,AMNE18.jpg,AMNE15.jpg,MN,1,num_2,32,num_8,0.883422343948,,,2017_Aug_15_1615,60.0009429877,MAFE4ImagesEEG,001,101274,
AFNE01.JPG,AFNE01.JPG,AFNE01.JPG,AFNE01.JPG,AFNE01.JPG,AFNE01.JPG,,,,,,,,,,,,,,,,,5,1,51,7,,,,,,,AMNE19.jpg,AMSA17.jpg,AMSA09.jpg,AMNE20.jpg,AMNE19.jpg,MN,1,num_8,32,num_2,0.950250385446,,,2017_Aug_15_1615,60.0009429877,MAFE4ImagesEEG,001,101274,
AFNE01.JPG,AFNE01.JPG,AFNE01.JPG,AFNE01.JPG,AFNE01.JPG,AFNE01.JPG,,,,,,,,,,,,,,,,,5,2,52,1,,,,,,,AMNE19.jpg,AMSA06.jpg,AMNE01.jpg,AMSA17.jpg,AMSA17.jpg,MS,2,num_4,32,num_6,0.85024438762,,,2017_Aug_15_1615,60.0009429877,MAFE4ImagesEEG,001,101274,
AFNE01.JPG,AFNE01.JPG,AFNE01.JPG,AFNE01.JPG,AFNE01.JPG,AFNE01.JPG,,,,,,,,,,,,,,,,,5,3,53,3,,,,,,,AMSA18.jpg,AMNE17.jpg,AMNE01.jpg,AMSA01.jpg,AMSA18.jpg,MS,2,num_8,16,num_8,2.94997358709,,,2017_Aug_15_1615,60.0009429877,MAFE4ImagesEEG,001,101274,
AFNE01.JPG,AFNE01.JPG,AFNE01.JPG,AFNE01.JPG,AFNE01.JPG,AFNE01.JPG,,,,,,,,,,,,,,,,,5,4,54,0,,,,,,,AMNE17.jpg,AMSA10.jpg,AMNE06.jpg,AMSA01.jpg,AMNE17.jpg,MN,1,num_8,32,num_6,0.966759820163,,,2017_Aug_15_1615,60.0009429877,MAFE4ImagesEEG,001,101274,
AFNE01.JPG,AFNE01.JPG,AFNE01.JPG,AFNE01.JPG,AFNE01.JPG,AFNE01.JPG,,,,,,,,,,,,,,,,,5,5,55,8,,,,,,,AMSA20.jpg,AMNE08.jpg,AMSA15.jpg,AMNE18.jpg,AMNE08.jpg,MN,1,num_6,32,num_8,1.03345507543,,,2017_Aug_15_1615,60.0009429877,MAFE4ImagesEEG,001,101274,
AFNE01.JPG,AFNE01.JPG,AFNE01.JPG,AFNE01.JPG,AFNE01.JPG,AFNE01.JPG,,,,,,,,,,,,,,,,,5,6,56,2,,,,,,,AMSA11.jpg,AMNE06.jpg,AMNE11.jpg,AMSA20.jpg,AMSA11.jpg,MS,2,num_8,32,num_4,0.566922820086,,,2017_Aug_15_1615,60.0009429877,MAFE4ImagesEEG,001,101274,
AFNE01.JPG,AFNE01.JPG,AFNE01.JPG,AFNE01.JPG,AFNE01.JPG,AFNE01.JPG,,,,,,,,,,,,,,,,,5,7,57,4,,,,,,,AMSA19.jpg,AMSA10.jpg,AMNE03.jpg,AMNE02.jpg,AMNE02.jpg,MN,1,num_4,32,num_6,0.833443079769,,,2017_Aug_15_1615,60.0009429877,MAFE4ImagesEEG,001,101274,
AFNE01.JPG,AFNE01.JPG,AFNE01.JPG,AFNE01.JPG,AFNE01.JPG,AFNE01.JPG,,,,,,,,,,,,,,,,,5,8,58,9,,,,,,,AMSA19.jpg,AMNE03.jpg,AMSA10.jpg,AMNE19.jpg,AMSA19.jpg,MS,2,num_8,16,num_8,0.48348559381,,,2017_Aug_15_1615,60.0009429877,MAFE4ImagesEEG,001,101274,
AFNE01.JPG,AFNE01.JPG,AFNE01.JPG,AFNE01.JPG,AFNE01.JPG,AFNE01.JPG,,,,,,,,,,,,,,,,,5,9,59,5,,,,,,,AMSA03.jpg,AMNE09.jpg,AMNE06.jpg,AMSA17.jpg,AMSA03.jpg,MS,2,num_8,32,num_4,1.25009293432,,,2017_Aug_15_1615,60.0009429877,MAFE4ImagesEEG,001,101274,
,,,,,,,,,,,,,,,,,,,,,,,,,,,,,,,,,,,,,,,,,,,space,5.0999226055,2017_Aug_15_1615,60.0009429877,MAFE4ImagesEEG,001,101274,
AFNE01.JPG,AFNE01.JPG,AFNE01.JPG,AFNE01.JPG,AFNE01.JPG,AFNE01.JPG,,,,,,,,,,,,,,,,,,,,,0,0,0,1,,,AFNE13.jpg,AFSA08.jpg,AFSA19.jpg,AFNE18.jpg,AFNE13.jpg,FN,3,num_8,32,num_6,0.833450777514,,,2017_Aug_15_1615,60.0009429877,MAFE4ImagesEEG,001,101274,
AFNE01.JPG,AFNE01.JPG,AFNE01.JPG,AFNE01.JPG,AFNE01.JPG,AFNE01.JPG,,,,,,,,,,,,,,,,,,,,,0,1,1,5,,,AFSA12.jpg,AFNE17.jpg,AFSA03.jpg,AFNE01.jpg,AFSA12.jpg,FS,4,num_8,16,num_8,1.68338148171,,,2017_Aug_15_1615,60.0009429877,MAFE4ImagesEEG,001,101274,
AFNE01.JPG,AFNE01.JPG,AFNE01.JPG,AFNE01.JPG,AFNE01.JPG,AFNE01.JPG,,,,,,,,,,,,,,,,,,,,,0,2,2,4,,,AFNE16.jpg,AFSA10.jpg,AFNE11.jpg,AFSA01.jpg,AFNE16.jpg,FN,3,num_8,32,num_6,1.26677107812,,,2017_Aug_15_1615,60.0009429877,MAFE4ImagesEEG,001,101274,
AFNE01.JPG,AFNE01.JPG,AFNE01.JPG,AFNE01.JPG,AFNE01.JPG,AFNE01.JPG,,,,,,,,,,,,,,,,,,,,,0,3,3,7,,,AFSA12.jpg,AFSA18.jpg,AFNE17.jpg,AFNE09.jpg,AFNE09.jpg,FN,3,num_4,32,num_8,1.16632149728,,,2017_Aug_15_1615,60.0009429877,MAFE4ImagesEEG,001,101274,
AFNE01.JPG,AFNE01.JPG,AFNE01.JPG,AFNE01.JPG,AFNE01.JPG,AFNE01.JPG,,,,,,,,,,,,,,,,,,,,,0,4,4,9,,,AFSA07.jpg,AFNE08.jpg,AFNE16.jpg,AFSA18.jpg,AFSA07.jpg,FS,4,num_8,32,num_2,0.90012069435,,,2017_Aug_15_1615,60.0009429877,MAFE4ImagesEEG,001,101274,
AFNE01.JPG,AFNE01.JPG,AFNE01.JPG,AFNE01.JPG,AFNE01.JPG,AFNE01.JPG,,,,,,,,,,,,,,,,,,,,,0,5,5,8,,,AFNE11.jpg,AFSA12.jpg,AFSA03.jpg,AFNE19.jpg,AFSA03.jpg,FS,4,num_2,32,num_6,0.783459004495,,,2017_Aug_15_1615,60.0009429877,MAFE4ImagesEEG,001,101274,
AFNE01.JPG,AFNE01.JPG,AFNE01.JPG,AFNE01.JPG,AFNE01.JPG,AFNE01.JPG,,,,,,,,,,,,,,,,,,,,,0,6,6,3,,,AFSA01.jpg,AFNE02.jpg,AFNE15.jpg,AFSA19.jpg,AFSA01.jpg,FS,4,num_8,16,num_8,0.78350454953,,,2017_Aug_15_1615,60.0009429877,MAFE4ImagesEEG,001,101274,
AFNE01.JPG,AFNE01.JPG,AFNE01.JPG,AFNE01.JPG,AFNE01.JPG,AFNE01.JPG,,,,,,,,,,,,,,,,,,,,,0,7,7,2,,,AFSA18.jpg,AFNE06.jpg,AFSA17.jpg,AFNE14.jpg,AFNE06.jpg,FN,3,num_6,32,num_2,1.00008018494,,,2017_Aug_15_1615,60.0009429877,MAFE4ImagesEEG,001,101274,
AFNE01.JPG,AFNE01.JPG,AFNE01.JPG,AFNE01.JPG,AFNE01.JPG,AFNE01.JPG,,,,,,,,,,,,,,,,,,,,,0,8,8,6,,,AFSA01.jpg,AFSA06.jpg,AFNE16.jpg,AFNE15.jpg,AFNE15.jpg,FN,3,num_4,32,num_8,0.550134983307,,,2017_Aug_15_1615,60.0009429877,MAFE4ImagesEEG,001,101274,
AFNE01.JPG,AFNE01.JPG,AFNE01.JPG,AFNE01.JPG,AFNE01.JPG,AFNE01.JPG,,,,,,,,,,,,,,,,,,,,,0,9,9,0,,,AFSA17.jpg,AFNE09.jpg,AFNE15.jpg,AFSA05.jpg,AFSA17.jpg,FS,4,num_8,32,num_4,0.666455406114,,,2017_Aug_15_1615,60.0009429877,MAFE4ImagesEEG,001,101274,
AFNE01.JPG,AFNE01.JPG,AFNE01.JPG,AFNE01.JPG,AFNE01.JPG,AFNE01.JPG,,,,,,,,,,,,,,,,,,,,,1,0,10,3,,,AFNE17.jpg,AFSA03.jpg,AFNE07.jpg,AFSA15.jpg,AFSA03.jpg,FS,4,num_6,16,num_6,1.01673780139,,,2017_Aug_15_1615,60.0009429877,MAFE4ImagesEEG,001,101274,
AFNE01.JPG,AFNE01.JPG,AFNE01.JPG,AFNE01.JPG,AFNE01.JPG,AFNE01.JPG,,,,,,,,,,,,,,,,,,,,,1,1,11,4,,,AFNE20.jpg,AFSA03.jpg,AFSA11.jpg,AFNE06.jpg,AFNE06.jpg,FN,3,num_4,32,num_8,1.38339780735,,,2017_Aug_15_1615,60.0009429877,MAFE4ImagesEEG,001,101274,
AFNE01.JPG,AFNE01.JPG,AFNE01.JPG,AFNE01.JPG,AFNE01.JPG,AFNE01.JPG,,,,,,,,,,,,,,,,,,,,,1,2,12,5,,,AFSA20.jpg,AFSA05.jpg,AFNE15.jpg,AFNE09.jpg,AFSA20.jpg,FS,4,num_8,32,num_6,1.05043214864,,,2017_Aug_15_1615,60.0009429877,MAFE4ImagesEEG,001,101274,
AFNE01.JPG,AFNE01.JPG,AFNE01.JPG,AFNE01.JPG,AFNE01.JPG,AFNE01.JPG,,,,,,,,,,,,,,,,,,,,,1,3,13,9,,,AFNE19.jpg,AFNE11.jpg,AFSA01.jpg,AFSA11.jpg,AFNE11.jpg,FN,3,num_6,32,num_8,1.31674136159,,,2017_Aug_15_1615,60.0009429877,MAFE4ImagesEEG,001,101274,
AFNE01.JPG,AFNE01.JPG,AFNE01.JPG,AFNE01.JPG,AFNE01.JPG,AFNE01.JPG,,,,,,,,,,,,,,,,,,,,,1,4,14,1,,,AFNE04.jpg,AFSA15.jpg,AFNE09.jpg,AFSA17.jpg,AFSA17.jpg,FS,4,num_4,32,num_6,0.750141847137,,,2017_Aug_15_1615,60.0009429877,MAFE4ImagesEEG,001,101274,
AFNE01.JPG,AFNE01.JPG,AFNE01.JPG,AFNE01.JPG,AFNE01.JPG,AFNE01.JPG,,,,,,,,,,,,,,,,,,,,,1,5,15,2,,,AFSA03.jpg,AFSA05.jpg,AFNE14.jpg,AFNE08.jpg,AFNE08.jpg,FN,3,num_4,32,num_2,0.883455059389,,,2017_Aug_15_1615,60.0009429877,MAFE4ImagesEEG,001,101274,
AFNE01.JPG,AFNE01.JPG,AFNE01.JPG,AFNE01.JPG,AFNE01.JPG,AFNE01.JPG,,,,,,,,,,,,,,,,,,,,,1,6,16,7,,,AFNE06.jpg,AFSA20.jpg,AFNE03.jpg,AFSA06.jpg,AFSA06.jpg,FS,4,num_4,32,num_8,0.933449719087,,,2017_Aug_15_1615,60.0009429877,MAFE4ImagesEEG,001,101274,
AFNE01.JPG,AFNE01.JPG,AFNE01.JPG,AFNE01.JPG,AFNE01.JPG,AFNE01.JPG,,,,,,,,,,,,,,,,,,,,,1,7,17,8,,,AFSA20.jpg,AFSA10.jpg,AFNE12.jpg,AFNE17.jpg,AFSA20.jpg,FS,4,num_8,16,num_8,0.766736277874,,,2017_Aug_15_1615,60.0009429877,MAFE4ImagesEEG,001,101274,
AFNE01.JPG,AFNE01.JPG,AFNE01.JPG,AFNE01.JPG,AFNE01.JPG,AFNE01.JPG,,,,,,,,,,,,,,,,,,,,,1,8,18,0,,,AFSA13.jpg,AFNE08.jpg,AFNE11.jpg,AFSA15.jpg,AFNE08.jpg,FN,3,num_6,16,num_6,1.0000952597,,,2017_Aug_15_1615,60.0009429877,MAFE4ImagesEEG,001,101274,
AFNE01.JPG,AFNE01.JPG,AFNE01.JPG,AFNE01.JPG,AFNE01.JPG,AFNE01.JPG,,,,,,,,,,,,,,,,,,,,,1,9,19,6,,,AFSA07.jpg,AFNE07.jpg,AFSA10.jpg,AFNE02.jpg,AFNE07.jpg,FN,3,num_6,32,num_8,1.10009676717,,,2017_Aug_15_1615,60.0009429877,MAFE4ImagesEEG,001,101274,
AFNE01.JPG,AFNE01.JPG,AFNE01.JPG,AFNE01.JPG,AFNE01.JPG,AFNE01.JPG,,,,,,,,,,,,,,,,,,,,,2,0,20,2,,,AFSA19.jpg,AFNE04.jpg,AFNE20.jpg,AFSA10.jpg,AFSA10.jpg,FS,4,num_4,16,num_4,0.76680202951,,,2017_Aug_15_1615,60.0009429877,MAFE4ImagesEEG,001,101274,
AFNE01.JPG,AFNE01.JPG,AFNE01.JPG,AFNE01.JPG,AFNE01.JPG,AFNE01.JPG,,,,,,,,,,,,,,,,,,,,,2,1,21,6,,,AFNE16.jpg,AFNE11.jpg,AFSA18.jpg,AFSA17.jpg,AFSA17.jpg,FS,4,num_4,32,num_6,0.616804258651,,,2017_Aug_15_1615,60.0009429877,MAFE4ImagesEEG,001,101274,
AFNE01.JPG,AFNE01.JPG,AFNE01.JPG,AFNE01.JPG,AFNE01.JPG,AFNE01.JPG,,,,,,,,,,,,,,,,,,,,,2,2,22,9,,,AFSA19.jpg,AFNE09.jpg,AFNE04.jpg,AFSA04.jpg,AFNE09.jpg,FN,3,num_6,32,num_2,0.75012324423,,,2017_Aug_15_1615,60.0009429877,MAFE4ImagesEEG,001,101274,
AFNE01.JPG,AFNE01.JPG,AFNE01.JPG,AFNE01.JPG,AFNE01.JPG,AFNE01.JPG,,,,,,,,,,,,,,,,,,,,,2,3,23,5,,,AFSA18.jpg,AFSA09.jpg,AFNE19.jpg,AFNE11.jpg,AFNE11.jpg,FN,3,num_4,32,num_6,0.833510435099,,,2017_Aug_15_1615,60.0009429877,MAFE4ImagesEEG,001,101274,
AFNE01.JPG,AFNE01.JPG,AFNE01.JPG,AFNE01.JPG,AFNE01.JPG,AFNE01.JPG,,,,,,,,,,,,,,,,,,,,,2,4,24,7,,,AFSA20.jpg,AFNE02.jpg,AFSA04.jpg,AFNE07.jpg,AFNE07.jpg,FN,3,num_4,32,num_2,0.666798918333,,,2017_Aug_15_1615,60.0009429877,MAFE4ImagesEEG,001,101274,
AFNE01.JPG,AFNE01.JPG,AFNE01.JPG,AFNE01.JPG,AFNE01.JPG,AFNE01.JPG,,,,,,,,,,,,,,,,,,,,,2,5,25,4,,,AFSA01.jpg,AFNE13.jpg,AFNE12.jpg,AFSA08.jpg,AFNE12.jpg,FN,3,num_2,32,num_8,0.766768672576,,,2017_Aug_15_1615,60.0009429877,MAFE4ImagesEEG,001,101274,
AFNE01.JPG,AFNE01.JPG,AFNE01.JPG,AFNE01.JPG,AFNE01.JPG,AFNE01.JPG,,,,,,,,,,,,,,,,,,,,,2,6,26,8,,,AFSA03.jpg,AFNE05.jpg,AFNE10.jpg,AFSA18.jpg,AFNE10.jpg,FN,3,num_2,16,num_2,1.61671797968,,,2017_Aug_15_1615,60.0009429877,MAFE4ImagesEEG,001,101274,
AFNE01.JPG,AFNE01.JPG,AFNE01.JPG,AFNE01.JPG,AFNE01.JPG,AFNE01.JPG,,,,,,,,,,,,,,,,,,,,,2,7,27,3,,,AFNE11.jpg,AFSA13.jpg,AFNE10.jpg,AFSA07.jpg,AFNE10.jpg,FN,3,num_2,32,num_6,1.65006015473,,,2017_Aug_15_1615,60.0009429877,MAFE4ImagesEEG,001,101274,
AFNE01.JPG,AFNE01.JPG,AFNE01.JPG,AFNE01.JPG,AFNE01.JPG,AFNE01.JPG,,,,,,,,,,,,,,,,,,,,,2,8,28,1,,,AFSA04.jpg,AFSA20.jpg,AFNE07.jpg,AFNE02.jpg,AFNE07.jpg,FN,3,num_2,16,num_2,0.767081714541,,,2017_Aug_15_1615,60.0009429877,MAFE4ImagesEEG,001,101274,
AFNE01.JPG,AFNE01.JPG,AFNE01.JPG,AFNE01.JPG,AFNE01.JPG,AFNE01.JPG,,,,,,,,,,,,,,,,,,,,,2,9,29,0,,,AFNE09.jpg,AFNE18.jpg,AFSA10.jpg,AFSA15.jpg,AFNE09.jpg,FN,3,num_8,16,num_8,0.433492217082,,,2017_Aug_15_1615,60.0009429877,MAFE4ImagesEEG,001,101274,
AFNE01.JPG,AFNE01.JPG,AFNE01.JPG,AFNE01.JPG,AFNE01.JPG,AFNE01.JPG,,,,,,,,,,,,,,,,,,,,,3,0,30,4,,,AFNE04.jpg,AFNE17.jpg,AFSA12.jpg,AFSA08.jpg,AFNE04.jpg,FN,3,num_8,32,num_2,1.38336990301,,,2017_Aug_15_1615,60.0009429877,MAFE4ImagesEEG,001,101274,
AFNE01.JPG,AFNE01.JPG,AFNE01.JPG,AFNE01.JPG,AFNE01.JPG,AFNE01.JPG,,,,,,,,,,,,,,,,,,,,,3,1,31,5,,,AFNE08.jpg,AFNE11.jpg,AFSA16.jpg,AFSA03.jpg,AFSA16.jpg,FS,4,num_2,32,num_6,0.933465756054,,,2017_Aug_15_1615,60.0009429877,MAFE4ImagesEEG,001,101274,
AFNE01.JPG,AFNE01.JPG,AFNE01.JPG,AFNE01.JPG,AFNE01.JPG,AFNE01.JPG,,,,,,,,,,,,,,,,,,,,,3,2,32,8,,,AFNE08.jpg,AFSA12.jpg,AFNE06.jpg,AFSA06.jpg,AFSA12.jpg,FS,4,num_6,16,num_6,0.850091715518,,,2017_Aug_15_1615,60.0009429877,MAFE4ImagesEEG,001,101274,
AFNE01.JPG,AFNE01.JPG,AFNE01.JPG,AFNE01.JPG,AFNE01.JPG,AFNE01.JPG,,,,,,,,,,,,,,,,,,,,,3,3,33,9,,,AFSA10.jpg,AFSA18.jpg,AFNE08.jpg,AFNE03.jpg,AFNE08.jpg,FN,3,num_2,32,num_8,1.03343647253,,,2017_Aug_15_1615,60.0009429877,MAFE4ImagesEEG,001,101274,
AFNE01.JPG,AFNE01.JPG,AFNE01.JPG,AFNE01.JPG,AFNE01.JPG,AFNE01.JPG,,,,,,,,,,,,,,,,,,,,,3,4,34,3,,,AFNE19.jpg,AFNE10.jpg,AFSA20.jpg,AFSA05.jpg,AFNE10.jpg,FN,3,num_6,32,num_2,1.16659989936,,,2017_Aug_15_1615,60.0009429877,MAFE4ImagesEEG,001,101274,
AFNE01.JPG,AFNE01.JPG,AFNE01.JPG,AFNE01.JPG,AFNE01.JPG,AFNE01.JPG,,,,,,,,,,,,,,,,,,,,,3,5,35,6,,,AFSA10.jpg,AFNE16.jpg,AFNE01.jpg,AFSA01.jpg,AFSA10.jpg,FS,4,num_8,16,num_8,1.25013751714,,,2017_Aug_15_1615,60.0009429877,MAFE4ImagesEEG,001,101274,
AFNE01.JPG,AFNE01.JPG,AFNE01.JPG,AFNE01.JPG,AFNE01.JPG,AFNE01.JPG,,,,,,,,,,,,,,,,,,,,,3,6,36,0,,,AFSA11.jpg,AFNE07.jpg,AFSA16.jpg,AFNE13.jpg,AFSA16.jpg,FS,4,num_2,32,num_6,0.699990345733,,,2017_Aug_15_1615,60.0009429877,MAFE4ImagesEEG,001,101274,
AFNE01.JPG,AFNE01.JPG,AFNE01.JPG,AFNE01.JPG,AFNE01.JPG,AFNE01.JPG,,,,,,,,,,,,,,,,,,,,,3,7,37,7,,,AFSA12.jpg,AFSA07.jpg,AFNE06.jpg,AFNE10.jpg,AFSA07.jpg,FS,4,num_6,32,num_8,1.06662597548,,,2017_Aug_15_1615,60.0009429877,MAFE4ImagesEEG,001,101274,
AFNE01.JPG,AFNE01.JPG,AFNE01.JPG,AFNE01.JPG,AFNE01.JPG,AFNE01.JPG,,,,,,,,,,,,,,,,,,,,,3,8,38,1,,,AFSA01.jpg,AFNE05.jpg,AFSA12.jpg,AFNE14.jpg,AFNE05.jpg,FN,3,num_6,16,num_6,1.81671137243,,,2017_Aug_15_1615,60.0009429877,MAFE4ImagesEEG,001,101274,
