IPosition2,IPosition3,IPosition1,IPosition6,IPosition4,IPosition5,TrialsF1.thisRepN,TrialsF1.thisTrialN,TrialsF1.thisN,TrialsF1.thisIndex,TrialsM1.thisRepN,TrialsM1.thisTrialN,TrialsM1.thisN,TrialsM1.thisIndex,TrialsF2.thisRepN,TrialsF2.thisTrialN,TrialsF2.thisN,TrialsF2.thisIndex,TrialsM2.thisRepN,TrialsM2.thisTrialN,TrialsM2.thisN,TrialsM2.thisIndex,TrialsF3.thisRepN,TrialsF3.thisTrialN,TrialsF3.thisN,TrialsF3.thisIndex,TrialsM3.thisRepN,TrialsM3.thisTrialN,TrialsM3.thisN,TrialsM3.thisIndex,InstrKey_resp.keys,InstrKey_resp.rt,Image0 _Position,Image1 _Position,Image2 _Position,Image3 _Position,Center_image,condition,code,correct_answer,accuracy,Key_Resp.keys,Key_Resp.rt,BreakKey_resp.keys,BreakKey_resp.rt,date,frameRate,expName,session,participant,
,,,,,,,,,,,,,,,,,,,,,,,,,,,,,,space,22.8322243742,,,,,,,,,,,,,,2017_Aug_10_1636,60.0071020448,FEMA4ImagesEEG,001,101245,
AFSA21.JPG,AFNE22.JPG,AFNE21.JPG,AFSA23.JPG,AFSA22.JPG,AFNE23.JPG,0,0,0,0,,,,,,,,,,,,,,,,,,,,,,,AFNE05.jpg,AFSA17.jpg,AFNE08.jpg,AFSA11.jpg,AFNE08.jpg,FN,3,num_2,48,None,,,,2017_Aug_10_1636,60.0071020448,FEMA4ImagesEEG,001,101245,
AMNE22.JPG,AMSA24.JPG,AMSA22.JPG,AMNE25.JPG,AMNE24.JPG,AMSA25.JPG,0,1,1,7,,,,,,,,,,,,,,,,,,,,,,,AFSA12.jpg,AFSA09.jpg,AFNE04.jpg,AFNE16.jpg,AFSA09.jpg,FS,4,num_6,32,num_8,1.08340173122,,,2017_Aug_10_1636,60.0071020448,FEMA4ImagesEEG,001,101245,
AMSA21.JPG,AMNE22.JPG,AMNE21.JPG,AMSA23.JPG,AMSA22.JPG,AMNE23.JPG,0,2,2,1,,,,,,,,,,,,,,,,,,,,,,,AFNE14.jpg,AFSA20.jpg,AFSA06.jpg,AFNE20.jpg,AFNE14.jpg,FN,3,num_8,32,num_4,1.16675695498,,,2017_Aug_10_1636,60.0071020448,FEMA4ImagesEEG,001,101245,
AFSA25.JPG,AFNE24.JPG,AFSA24.JPG,AFNE21.JPG,AFSA21.JPG,AFNE25.JPG,0,3,3,2,,,,,,,,,,,,,,,,,,,,,,,AFSA12.jpg,AFSA16.jpg,AFNE09.jpg,AFNE06.jpg,AFSA16.jpg,FS,4,num_6,16,num_6,0.833481034264,,,2017_Aug_10_1636,60.0071020448,FEMA4ImagesEEG,001,101245,
AMSA21.JPG,AMNE23.JPG,AMNE21.JPG,AMSA25.JPG,AMNE25.JPG,AMSA23.JPG,0,4,4,5,,,,,,,,,,,,,,,,,,,,,,,AFNE02.jpg,AFSA19.jpg,AFSA13.jpg,AFNE06.jpg,AFNE02.jpg,FN,3,num_8,16,num_8,0.916787826456,,,2017_Aug_10_1636,60.0071020448,FEMA4ImagesEEG,001,101245,
AFNE23.JPG,AFNE24.JPG,AFNE22.JPG,AFSA24.JPG,AFSA22.JPG,AFSA23.JPG,0,5,5,8,,,,,,,,,,,,,,,,,,,,,,,AFNE17.jpg,AFSA12.jpg,AFNE12.jpg,AFSA06.jpg,AFSA06.jpg,FS,4,num_4,16,num_4,0.583453210071,,,2017_Aug_10_1636,60.0071020448,FEMA4ImagesEEG,001,101245,
AMSA25.JPG,AMNE24.JPG,AMSA24.JPG,AMNE26.JPG,AMSA21.JPG,AMNE25.JPG,0,6,6,3,,,,,,,,,,,,,,,,,,,,,,,AFSA12.jpg,AFNE08.jpg,AFSA19.jpg,AFNE01.jpg,AFNE01.jpg,FN,3,num_4,32,num_6,1.28337004175,,,2017_Aug_10_1636,60.0071020448,FEMA4ImagesEEG,001,101245,
AFNE22.JPG,AFSA24.JPG,AFSA22.JPG,AFNE25.JPG,AFNE24.JPG,AFSA25.JPG,0,7,7,6,,,,,,,,,,,,,,,,,,,,,,,AFSA05.jpg,AFNE16.jpg,AFNE18.jpg,AFSA15.jpg,AFNE18.jpg,FN,3,num_2,16,num_2,1.75032948004,,,2017_Aug_10_1636,60.0071020448,FEMA4ImagesEEG,001,101245,
AFSA21.JPG,AFNE23.JPG,AFNE21.JPG,AFSA25.JPG,AFNE25.JPG,AFSA23.JPG,0,8,8,4,,,,,,,,,,,,,,,,,,,,,,,AFNE01.jpg,AFSA15.jpg,AFNE19.jpg,AFSA02.jpg,AFNE19.jpg,FN,3,num_2,32,num_4,0.966753041837,,,2017_Aug_10_1636,60.0071020448,FEMA4ImagesEEG,001,101245,
AMNE23.JPG,AMNE24.JPG,AMNE22.JPG,AMSA24.JPG,AMSA22.JPG,AMSA23.JPG,0,9,9,9,,,,,,,,,,,,,,,,,,,,,,,AFSA18.jpg,AFNE11.jpg,AFNE04.jpg,AFSA15.jpg,AFNE11.jpg,FN,3,num_6,16,num_6,1.083454974,,,2017_Aug_10_1636,60.0071020448,FEMA4ImagesEEG,001,101245,
AFNE23.JPG,AFNE24.JPG,AFNE22.JPG,AFSA24.JPG,AFSA22.JPG,AFSA23.JPG,,,,,0,0,0,8,,,,,,,,,,,,,,,,,,,AMNE20.jpg,AMSA20.jpg,AMNE18.jpg,AMSA15.jpg,AMNE18.jpg,MN,1,num_2,16,num_2,1.78333941149,,,2017_Aug_10_1636,60.0071020448,FEMA4ImagesEEG,001,101245,
AMSA21.JPG,AMNE22.JPG,AMNE21.JPG,AMSA23.JPG,AMSA22.JPG,AMNE23.JPG,,,,,0,1,1,1,,,,,,,,,,,,,,,,,,,AMNE15.jpg,AMSA01.jpg,AMSA02.jpg,AMNE06.jpg,AMSA01.jpg,MS,2,num_6,32,num_2,1.68356101075,,,2017_Aug_10_1636,60.0071020448,FEMA4ImagesEEG,001,101245,
AFSA21.JPG,AFNE23.JPG,AFNE21.JPG,AFSA25.JPG,AFNE25.JPG,AFSA23.JPG,,,,,0,2,2,4,,,,,,,,,,,,,,,,,,,AMSA17.jpg,AMNE12.jpg,AMSA08.jpg,AMNE16.jpg,AMSA17.jpg,MS,2,num_8,32,num_6,1.4833816532,,,2017_Aug_10_1636,60.0071020448,FEMA4ImagesEEG,001,101245,
AFSA21.JPG,AFNE22.JPG,AFNE21.JPG,AFSA23.JPG,AFSA22.JPG,AFNE23.JPG,,,,,0,3,3,0,,,,,,,,,,,,,,,,,,,AMNE15.jpg,AMNE02.jpg,AMSA11.jpg,AMSA10.jpg,AMNE02.jpg,MN,1,num_6,32,num_4,1.36659344146,,,2017_Aug_10_1636,60.0071020448,FEMA4ImagesEEG,001,101245,
AMSA21.JPG,AMNE23.JPG,AMNE21.JPG,AMSA25.JPG,AMNE25.JPG,AMSA23.JPG,,,,,0,4,4,5,,,,,,,,,,,,,,,,,,,AMSA10.jpg,AMNE11.jpg,AMNE16.jpg,AMSA04.jpg,AMNE16.jpg,MN,1,num_2,16,num_2,0.833458261564,,,2017_Aug_10_1636,60.0071020448,FEMA4ImagesEEG,001,101245,
AMNE22.JPG,AMSA24.JPG,AMSA22.JPG,AMNE25.JPG,AMNE24.JPG,AMSA25.JPG,,,,,0,5,5,7,,,,,,,,,,,,,,,,,,,AMNE12.jpg,AMSA04.jpg,AMNE20.jpg,AMSA19.jpg,AMNE12.jpg,MN,1,num_8,32,num_2,1.73324205074,,,2017_Aug_10_1636,60.0071020448,FEMA4ImagesEEG,001,101245,
AMNE23.JPG,AMNE24.JPG,AMNE22.JPG,AMSA24.JPG,AMSA22.JPG,AMSA23.JPG,,,,,0,6,6,9,,,,,,,,,,,,,,,,,,,AMNE08.jpg,AMSA03.jpg,AMNE10.jpg,AMSA16.jpg,AMNE10.jpg,MN,1,num_2,16,num_2,0.967163268477,,,2017_Aug_10_1636,60.0071020448,FEMA4ImagesEEG,001,101245,
AFSA25.JPG,AFNE24.JPG,AFSA24.JPG,AFNE21.JPG,AFSA21.JPG,AFNE25.JPG,,,,,0,7,7,2,,,,,,,,,,,,,,,,,,,AMSA05.jpg,AMNE15.jpg,AMNE14.jpg,AMSA12.jpg,AMSA05.jpg,MS,2,num_8,16,num_8,0.750125489663,,,2017_Aug_10_1636,60.0071020448,FEMA4ImagesEEG,001,101245,
AMSA25.JPG,AMNE24.JPG,AMSA24.JPG,AMNE26.JPG,AMSA21.JPG,AMNE25.JPG,,,,,0,8,8,3,,,,,,,,,,,,,,,,,,,AMNE08.jpg,AMNE03.jpg,AMSA12.jpg,AMSA16.jpg,AMNE03.jpg,MN,1,num_6,32,num_2,1.0500771543,,,2017_Aug_10_1636,60.0071020448,FEMA4ImagesEEG,001,101245,
AFNE22.JPG,AFSA24.JPG,AFSA22.JPG,AFNE25.JPG,AFNE24.JPG,AFSA25.JPG,,,,,0,9,9,6,,,,,,,,,,,,,,,,,,,AMNE19.jpg,AMSA13.jpg,AMSA20.jpg,AMNE10.jpg,AMNE19.jpg,MN,1,num_8,32,num_4,0.833406622522,,,2017_Aug_10_1636,60.0071020448,FEMA4ImagesEEG,001,101245,
AMSA21.JPG,AMNE23.JPG,AMNE21.JPG,AMSA25.JPG,AMNE25.JPG,AMSA23.JPG,,,,,,,,,0,0,0,5,,,,,,,,,,,,,,,AFSA04.jpg,AFNE14.jpg,AFSA03.jpg,AFNE17.jpg,AFNE17.jpg,FN,3,num_4,16,num_4,0.983475148678,,,2017_Aug_10_1636,60.0071020448,FEMA4ImagesEEG,001,101245,
AFSA21.JPG,AFNE23.JPG,AFNE21.JPG,AFSA25.JPG,AFNE25.JPG,AFSA23.JPG,,,,,,,,,0,1,1,4,,,,,,,,,,,,,,,AFSA02.jpg,AFSA10.jpg,AFNE07.jpg,AFNE20.jpg,AFNE07.jpg,FN,3,num_2,32,num_6,1.33307353407,,,2017_Aug_10_1636,60.0071020448,FEMA4ImagesEEG,001,101245,
AMNE23.JPG,AMNE24.JPG,AMNE22.JPG,AMSA24.JPG,AMSA22.JPG,AMSA23.JPG,,,,,,,,,0,2,2,9,,,,,,,,,,,,,,,AFSA04.jpg,AFSA16.jpg,AFNE04.jpg,AFNE08.jpg,AFSA16.jpg,FS,4,num_6,16,num_6,0.783476046752,,,2017_Aug_10_1636,60.0071020448,FEMA4ImagesEEG,001,101245,
AMSA25.JPG,AMNE24.JPG,AMSA24.JPG,AMNE26.JPG,AMSA21.JPG,AMNE25.JPG,,,,,,,,,0,3,3,3,,,,,,,,,,,,,,,AFNE10.jpg,AFNE09.jpg,AFSA19.jpg,AFSA12.jpg,AFSA12.jpg,FS,4,num_4,16,num_4,0.483341239393,,,2017_Aug_10_1636,60.0071020448,FEMA4ImagesEEG,001,101245,
AMNE22.JPG,AMSA24.JPG,AMSA22.JPG,AMNE25.JPG,AMNE24.JPG,AMSA25.JPG,,,,,,,,,0,4,4,7,,,,,,,,,,,,,,,AFNE11.jpg,AFSA08.jpg,AFNE08.jpg,AFSA17.jpg,AFNE11.jpg,FN,3,num_8,16,num_8,0.650215264875,,,2017_Aug_10_1636,60.0071020448,FEMA4ImagesEEG,001,101245,
AFNE22.JPG,AFSA24.JPG,AFSA22.JPG,AFNE25.JPG,AFNE24.JPG,AFSA25.JPG,,,,,,,,,0,5,5,6,,,,,,,,,,,,,,,AFNE11.jpg,AFSA19.jpg,AFSA16.jpg,AFNE01.jpg,AFSA19.jpg,FS,4,num_6,16,num_6,0.683500711806,,,2017_Aug_10_1636,60.0071020448,FEMA4ImagesEEG,001,101245,
AFSA25.JPG,AFNE24.JPG,AFSA24.JPG,AFNE21.JPG,AFSA21.JPG,AFNE25.JPG,,,,,,,,,0,6,6,2,,,,,,,,,,,,,,,AFNE14.jpg,AFSA01.jpg,AFNE18.jpg,AFSA16.jpg,AFNE14.jpg,FN,3,num_8,16,num_8,1.03347660787,,,2017_Aug_10_1636,60.0071020448,FEMA4ImagesEEG,001,101245,
AMSA21.JPG,AMNE22.JPG,AMNE21.JPG,AMSA23.JPG,AMSA22.JPG,AMNE23.JPG,,,,,,,,,0,7,7,1,,,,,,,,,,,,,,,AFNE16.jpg,AFNE09.jpg,AFSA18.jpg,AFSA09.jpg,AFNE16.jpg,FN,3,num_8,32,num_6,1.150134278,,,2017_Aug_10_1636,60.0071020448,FEMA4ImagesEEG,001,101245,
AFSA21.JPG,AFNE22.JPG,AFNE21.JPG,AFSA23.JPG,AFSA22.JPG,AFNE23.JPG,,,,,,,,,0,8,8,0,,,,,,,,,,,,,,,AFSA15.jpg,AFSA08.jpg,AFNE06.jpg,AFNE04.jpg,AFSA08.jpg,FS,4,num_6,32,num_4,1.05011468055,,,2017_Aug_10_1636,60.0071020448,FEMA4ImagesEEG,001,101245,
AFNE23.JPG,AFNE24.JPG,AFNE22.JPG,AFSA24.JPG,AFSA22.JPG,AFSA23.JPG,,,,,,,,,0,9,9,8,,,,,,,,,,,,,,,AFSA13.jpg,AFSA09.jpg,AFNE16.jpg,AFNE20.jpg,AFNE20.jpg,FN,3,num_4,32,num_2,1.45006605657,,,2017_Aug_10_1636,60.0071020448,FEMA4ImagesEEG,001,101245,
AMNE23.JPG,AMNE24.JPG,AMNE22.JPG,AMSA24.JPG,AMSA22.JPG,AMSA23.JPG,,,,,,,,,,,,,0,0,0,9,,,,,,,,,,,AMSA15.jpg,AMSA12.jpg,AMNE04.jpg,AMNE13.jpg,AMSA12.jpg,MS,2,num_6,16,num_6,1.2334102788,,,2017_Aug_10_1636,60.0071020448,FEMA4ImagesEEG,001,101245,
AMSA21.JPG,AMNE23.JPG,AMNE21.JPG,AMSA25.JPG,AMNE25.JPG,AMSA23.JPG,,,,,,,,,,,,,0,1,1,5,,,,,,,,,,,AMSA14.jpg,AMSA01.jpg,AMNE20.jpg,AMNE02.jpg,AMSA14.jpg,MS,2,num_8,16,num_8,0.900117679499,,,2017_Aug_10_1636,60.0071020448,FEMA4ImagesEEG,001,101245,
AFSA21.JPG,AFNE23.JPG,AFNE21.JPG,AFSA25.JPG,AFNE25.JPG,AFSA23.JPG,,,,,,,,,,,,,0,2,2,4,,,,,,,,,,,AMNE20.jpg,AMSA20.jpg,AMSA02.jpg,AMNE06.jpg,AMSA20.jpg,MS,2,num_6,16,num_6,4.29984581983,,,2017_Aug_10_1636,60.0071020448,FEMA4ImagesEEG,001,101245,
AMSA21.JPG,AMNE22.JPG,AMNE21.JPG,AMSA23.JPG,AMSA22.JPG,AMNE23.JPG,,,,,,,,,,,,,0,3,3,1,,,,,,,,,,,AMNE20.jpg,AMSA14.jpg,AMSA03.jpg,AMNE01.jpg,AMSA14.jpg,MS,2,num_6,32,num_8,0.833409829997,,,2017_Aug_10_1636,60.0071020448,FEMA4ImagesEEG,001,101245,
AMSA25.JPG,AMNE24.JPG,AMSA24.JPG,AMNE26.JPG,AMSA21.JPG,AMNE25.JPG,,,,,,,,,,,,,0,4,4,3,,,,,,,,,,,AMNE08.jpg,AMSA16.jpg,AMSA20.jpg,AMNE09.jpg,AMNE08.jpg,MN,1,num_8,32,num_4,0.950130364858,,,2017_Aug_10_1636,60.0071020448,FEMA4ImagesEEG,001,101245,
AFNE22.JPG,AFSA24.JPG,AFSA22.JPG,AFNE25.JPG,AFNE24.JPG,AFSA25.JPG,,,,,,,,,,,,,0,5,5,6,,,,,,,,,,,AMSA04.jpg,AMNE06.jpg,AMSA11.jpg,AMNE11.jpg,AMSA04.jpg,MS,2,num_8,16,num_8,1.45005098125,,,2017_Aug_10_1636,60.0071020448,FEMA4ImagesEEG,001,101245,
AFSA21.JPG,AFNE22.JPG,AFNE21.JPG,AFSA23.JPG,AFSA22.JPG,AFNE23.JPG,,,,,,,,,,,,,0,6,6,0,,,,,,,,,,,AMSA16.jpg,AMSA02.jpg,AMNE08.jpg,AMNE19.jpg,AMNE08.jpg,MN,1,num_2,16,num_2,1.31671899557,,,2017_Aug_10_1636,60.0071020448,FEMA4ImagesEEG,001,101245,
AFSA25.JPG,AFNE24.JPG,AFSA24.JPG,AFNE21.JPG,AFSA21.JPG,AFNE25.JPG,,,,,,,,,,,,,0,7,7,2,,,,,,,,,,,AMNE17.jpg,AMSA09.jpg,AMNE10.jpg,AMSA07.jpg,AMSA07.jpg,MS,2,num_4,16,num_4,1.33340293402,,,2017_Aug_10_1636,60.0071020448,FEMA4ImagesEEG,001,101245,
AFNE23.JPG,AFNE24.JPG,AFNE22.JPG,AFSA24.JPG,AFSA22.JPG,AFSA23.JPG,,,,,,,,,,,,,0,8,8,8,,,,,,,,,,,AMNE09.jpg,AMSA17.jpg,AMNE10.jpg,AMSA09.jpg,AMSA17.jpg,MS,2,num_6,32,num_2,1.46704732114,,,2017_Aug_10_1636,60.0071020448,FEMA4ImagesEEG,001,101245,
AMNE22.JPG,AMSA24.JPG,AMSA22.JPG,AMNE25.JPG,AMNE24.JPG,AMSA25.JPG,,,,,,,,,,,,,0,9,9,7,,,,,,,,,,,AMNE02.jpg,AMSA04.jpg,AMNE15.jpg,AMSA11.jpg,AMSA04.jpg,MS,2,num_6,16,num_6,0.81666013971,,,2017_Aug_10_1636,60.0071020448,FEMA4ImagesEEG,001,101245,
AFSA25.JPG,AFNE24.JPG,AFSA24.JPG,AFNE21.JPG,AFSA21.JPG,AFNE25.JPG,,,,,,,,,,,,,,,,,0,0,0,2,,,,,,,AFNE05.jpg,AFSA15.jpg,AFSA11.jpg,AFNE13.jpg,AFNE05.jpg,FN,3,num_8,16,num_8,1.81705465028,,,2017_Aug_10_1636,60.0071020448,FEMA4ImagesEEG,001,101245,
AFNE23.JPG,AFNE24.JPG,AFNE22.JPG,AFSA24.JPG,AFSA22.JPG,AFSA23.JPG,,,,,,,,,,,,,,,,,0,1,1,8,,,,,,,AFSA16.jpg,AFNE14.jpg,AFNE09.jpg,AFSA02.jpg,AFSA16.jpg,FS,4,num_8,16,num_8,0.76679274952,,,2017_Aug_10_1636,60.0071020448,FEMA4ImagesEEG,001,101245,
AMSA21.JPG,AMNE23.JPG,AMNE21.JPG,AMSA25.JPG,AMNE25.JPG,AMSA23.JPG,,,,,,,,,,,,,,,,,0,2,2,5,,,,,,,AFNE16.jpg,AFSA07.jpg,AFNE03.jpg,AFSA15.jpg,AFSA07.jpg,FS,4,num_6,32,num_4,1.15011727856,,,2017_Aug_10_1636,60.0071020448,FEMA4ImagesEEG,001,101245,
AFSA21.JPG,AFNE23.JPG,AFNE21.JPG,AFSA25.JPG,AFNE25.JPG,AFSA23.JPG,,,,,,,,,,,,,,,,,0,3,3,4,,,,,,,AFNE17.jpg,AFSA16.jpg,AFNE19.jpg,AFSA01.jpg,AFNE19.jpg,FN,3,num_2,32,num_6,1.50006847829,,,2017_Aug_10_1636,60.0071020448,FEMA4ImagesEEG,001,101245,
AMNE22.JPG,AMSA24.JPG,AMSA22.JPG,AMNE25.JPG,AMNE24.JPG,AMSA25.JPG,,,,,,,,,,,,,,,,,0,4,4,7,,,,,,,AFNE18.jpg,AFSA02.jpg,AFSA16.jpg,AFNE08.jpg,AFSA16.jpg,FS,4,num_2,32,num_8,0.833457619883,,,2017_Aug_10_1636,60.0071020448,FEMA4ImagesEEG,001,101245,
AFNE22.JPG,AFSA24.JPG,AFSA22.JPG,AFNE25.JPG,AFNE24.JPG,AFSA25.JPG,,,,,,,,,,,,,,,,,0,5,5,6,,,,,,,AFSA08.jpg,AFNE13.jpg,AFSA18.jpg,AFNE18.jpg,AFSA18.jpg,FS,4,num_2,16,num_2,1.20007479656,,,2017_Aug_10_1636,60.0071020448,FEMA4ImagesEEG,001,101245,
AFSA21.JPG,AFNE22.JPG,AFNE21.JPG,AFSA23.JPG,AFSA22.JPG,AFNE23.JPG,,,,,,,,,,,,,,,,,0,6,6,0,,,,,,,AFSA04.jpg,AFNE16.jpg,AFSA06.jpg,AFNE04.jpg,AFNE16.jpg,FN,3,num_6,16,num_6,1.18316024588,,,2017_Aug_10_1636,60.0071020448,FEMA4ImagesEEG,001,101245,
AMSA25.JPG,AMNE24.JPG,AMSA24.JPG,AMNE26.JPG,AMSA21.JPG,AMNE25.JPG,,,,,,,,,,,,,,,,,0,7,7,3,,,,,,,AFSA17.jpg,AFSA15.jpg,AFNE18.jpg,AFNE09.jpg,AFNE09.jpg,FN,3,num_4,32,num_6,0.783513573464,,,2017_Aug_10_1636,60.0071020448,FEMA4ImagesEEG,001,101245,
AMSA21.JPG,AMNE22.JPG,AMNE21.JPG,AMSA23.JPG,AMSA22.JPG,AMNE23.JPG,,,,,,,,,,,,,,,,,0,8,8,1,,,,,,,AFNE20.jpg,AFSA10.jpg,AFSA17.jpg,AFNE08.jpg,AFNE20.jpg,FN,3,num_8,32,num_4,0.766846633982,,,2017_Aug_10_1636,60.0071020448,FEMA4ImagesEEG,001,101245,
AMNE23.JPG,AMNE24.JPG,AMNE22.JPG,AMSA24.JPG,AMSA22.JPG,AMSA23.JPG,,,,,,,,,,,,,,,,,0,9,9,9,,,,,,,AFNE12.jpg,AFSA11.jpg,AFNE10.jpg,AFSA20.jpg,AFSA20.jpg,FS,4,num_4,16,num_4,0.81679966161,,,2017_Aug_10_1636,60.0071020448,FEMA4ImagesEEG,001,101245,
AMNE22.JPG,AMSA24.JPG,AMSA22.JPG,AMNE25.JPG,AMNE24.JPG,AMSA25.JPG,,,,,,,,,,,,,,,,,,,,,0,0,0,7,,,AMSA19.jpg,AMNE07.jpg,AMSA16.jpg,AMNE03.jpg,AMNE03.jpg,MN,1,num_4,32,num_8,0.73344411701,,,2017_Aug_10_1636,60.0071020448,FEMA4ImagesEEG,001,101245,
AFSA25.JPG,AFNE24.JPG,AFSA24.JPG,AFNE21.JPG,AFSA21.JPG,AFNE25.JPG,,,,,,,,,,,,,,,,,,,,,0,1,1,2,,,AMSA03.jpg,AMNE18.jpg,AMNE14.jpg,AMSA14.jpg,AMNE14.jpg,MN,1,num_2,32,num_4,0.666761284694,,,2017_Aug_10_1636,60.0071020448,FEMA4ImagesEEG,001,101245,
AMSA21.JPG,AMNE22.JPG,AMNE21.JPG,AMSA23.JPG,AMSA22.JPG,AMNE23.JPG,,,,,,,,,,,,,,,,,,,,,0,2,2,1,,,AMNE19.jpg,AMSA03.jpg,AMNE12.jpg,AMSA02.jpg,AMSA02.jpg,MS,2,num_4,32,num_6,0.700133652426,,,2017_Aug_10_1636,60.0071020448,FEMA4ImagesEEG,001,101245,
AFSA21.JPG,AFNE22.JPG,AFNE21.JPG,AFSA23.JPG,AFSA22.JPG,AFNE23.JPG,,,,,,,,,,,,,,,,,,,,,0,3,3,0,,,AMNE06.jpg,AMSA08.jpg,AMNE17.jpg,AMSA15.jpg,AMSA08.jpg,MS,2,num_6,32,num_8,0.866774499416,,,2017_Aug_10_1636,60.0071020448,FEMA4ImagesEEG,001,101245,
AFSA21.JPG,AFNE23.JPG,AFNE21.JPG,AFSA25.JPG,AFNE25.JPG,AFSA23.JPG,,,,,,,,,,,,,,,,,,,,,0,4,4,4,,,AMNE12.jpg,AMSA17.jpg,AMSA02.jpg,AMNE13.jpg,AMNE12.jpg,MN,1,num_8,32,num_6,1.25007593539,,,2017_Aug_10_1636,60.0071020448,FEMA4ImagesEEG,001,101245,
AFNE23.JPG,AFNE24.JPG,AFNE22.JPG,AFSA24.JPG,AFSA22.JPG,AFSA23.JPG,,,,,,,,,,,,,,,,,,,,,0,5,5,8,,,AMSA08.jpg,AMNE08.jpg,AMNE06.jpg,AMSA07.jpg,AMNE08.jpg,MN,1,num_6,32,num_8,1.08342931466,,,2017_Aug_10_1636,60.0071020448,FEMA4ImagesEEG,001,101245,
AMNE23.JPG,AMNE24.JPG,AMNE22.JPG,AMSA24.JPG,AMSA22.JPG,AMSA23.JPG,,,,,,,,,,,,,,,,,,,,,0,6,6,9,,,AMSA08.jpg,AMNE17.jpg,AMNE10.jpg,AMSA14.jpg,AMSA14.jpg,MS,2,num_4,16,num_4,0.833459544461,,,2017_Aug_10_1636,60.0071020448,FEMA4ImagesEEG,001,101245,
AFNE22.JPG,AFSA24.JPG,AFSA22.JPG,AFNE25.JPG,AFNE24.JPG,AFSA25.JPG,,,,,,,,,,,,,,,,,,,,,0,7,7,6,,,AMNE01.jpg,AMSA07.jpg,AMSA14.jpg,AMNE07.jpg,AMNE07.jpg,MN,1,num_4,32,num_6,1.316789879,,,2017_Aug_10_1636,60.0071020448,FEMA4ImagesEEG,001,101245,
AMSA25.JPG,AMNE24.JPG,AMSA24.JPG,AMNE26.JPG,AMSA21.JPG,AMNE25.JPG,,,,,,,,,,,,,,,,,,,,,0,8,8,3,,,AMSA16.jpg,AMNE18.jpg,AMNE07.jpg,AMSA08.jpg,AMSA08.jpg,MS,2,num_4,16,num_4,0.983417415526,,,2017_Aug_10_1636,60.0071020448,FEMA4ImagesEEG,001,101245,
AMSA21.JPG,AMNE23.JPG,AMNE21.JPG,AMSA25.JPG,AMNE25.JPG,AMSA23.JPG,,,,,,,,,,,,,,,,,,,,,0,9,9,5,,,AMSA15.jpg,AMSA03.jpg,AMNE10.jpg,AMNE19.jpg,AMSA03.jpg,MS,2,num_6,16,num_6,0.750117150135,,,2017_Aug_10_1636,60.0071020448,FEMA4ImagesEEG,001,101245,
,,,,,,,,,,,,,,,,,,,,,,,,,,,,,,,,,,,,,,,,,,,space,60.7124497518,2017_Aug_10_1636,60.0071020448,FEMA4ImagesEEG,001,101245,
AFNE01.JPG,AFNE01.JPG,AFNE01.JPG,AFNE01.JPG,AFNE01.JPG,AFNE01.JPG,0,0,0,8,,,,,,,,,,,,,,,,,,,,,,,AFNE05.jpg,AFNE14.jpg,AFSA12.jpg,AFSA04.jpg,AFNE14.jpg,FN,3,num_6,16,num_6,0.949970636517,,,2017_Aug_10_1636,60.0071020448,FEMA4ImagesEEG,001,101245,
AFNE01.JPG,AFNE01.JPG,AFNE01.JPG,AFNE01.JPG,AFNE01.JPG,AFNE01.JPG,0,1,1,6,,,,,,,,,,,,,,,,,,,,,,,AFSA15.jpg,AFSA11.jpg,AFNE18.jpg,AFNE11.jpg,AFNE18.jpg,FN,3,num_2,32,num_8,1.0832987735,,,2017_Aug_10_1636,60.0071020448,FEMA4ImagesEEG,001,101245,
AFNE01.JPG,AFNE01.JPG,AFNE01.JPG,AFNE01.JPG,AFNE01.JPG,AFNE01.JPG,0,2,2,7,,,,,,,,,,,,,,,,,,,,,,,AFSA12.jpg,AFNE11.jpg,AFNE19.jpg,AFSA02.jpg,AFNE19.jpg,FN,3,num_2,16,num_2,0.516452524345,,,2017_Aug_10_1636,60.0071020448,FEMA4ImagesEEG,001,101245,
AFNE01.JPG,AFNE01.JPG,AFNE01.JPG,AFNE01.JPG,AFNE01.JPG,AFNE01.JPG,0,3,3,9,,,,,,,,,,,,,,,,,,,,,,,AFSA14.jpg,AFSA20.jpg,AFNE01.jpg,AFNE20.jpg,AFSA14.jpg,FS,4,num_8,32,num_2,1.05009479495,,,2017_Aug_10_1636,60.0071020448,FEMA4ImagesEEG,001,101245,
AFNE01.JPG,AFNE01.JPG,AFNE01.JPG,AFNE01.JPG,AFNE01.JPG,AFNE01.JPG,0,4,4,2,,,,,,,,,,,,,,,,,,,,,,,AFNE03.jpg,AFNE12.jpg,AFSA16.jpg,AFSA10.jpg,AFNE12.jpg,FN,3,num_6,32,num_8,1.04999119556,,,2017_Aug_10_1636,60.0071020448,FEMA4ImagesEEG,001,101245,
AFNE01.JPG,AFNE01.JPG,AFNE01.JPG,AFNE01.JPG,AFNE01.JPG,AFNE01.JPG,0,5,5,0,,,,,,,,,,,,,,,,,,,,,,,AFSA09.jpg,AFNE17.jpg,AFSA16.jpg,AFNE03.jpg,AFSA16.jpg,FS,4,num_2,16,num_2,0.666643573437,,,2017_Aug_10_1636,60.0071020448,FEMA4ImagesEEG,001,101245,
AFNE01.JPG,AFNE01.JPG,AFNE01.JPG,AFNE01.JPG,AFNE01.JPG,AFNE01.JPG,0,6,6,4,,,,,,,,,,,,,,,,,,,,,,,AFSA11.jpg,AFNE17.jpg,AFSA14.jpg,AFNE02.jpg,AFSA11.jpg,FS,4,num_8,16,num_8,0.633409444708,,,2017_Aug_10_1636,60.0071020448,FEMA4ImagesEEG,001,101245,
AFNE01.JPG,AFNE01.JPG,AFNE01.JPG,AFNE01.JPG,AFNE01.JPG,AFNE01.JPG,0,7,7,5,,,,,,,,,,,,,,,,,,,,,,,AFSA11.jpg,AFNE10.jpg,AFSA18.jpg,AFNE08.jpg,AFNE10.jpg,FN,3,num_6,16,num_6,0.833419131115,,,2017_Aug_10_1636,60.0071020448,FEMA4ImagesEEG,001,101245,
AFNE01.JPG,AFNE01.JPG,AFNE01.JPG,AFNE01.JPG,AFNE01.JPG,AFNE01.JPG,0,8,8,1,,,,,,,,,,,,,,,,,,,,,,,AFSA14.jpg,AFNE04.jpg,AFSA20.jpg,AFNE11.jpg,AFNE11.jpg,FN,3,num_4,16,num_4,1.18338091485,,,2017_Aug_10_1636,60.0071020448,FEMA4ImagesEEG,001,101245,
AFNE01.JPG,AFNE01.JPG,AFNE01.JPG,AFNE01.JPG,AFNE01.JPG,AFNE01.JPG,0,9,9,3,,,,,,,,,,,,,,,,,,,,,,,AFSA10.jpg,AFNE14.jpg,AFNE17.jpg,AFSA02.jpg,AFNE17.jpg,FN,3,num_2,32,num_6,1.00008467538,,,2017_Aug_10_1636,60.0071020448,FEMA4ImagesEEG,001,101245,
AFNE01.JPG,AFNE01.JPG,AFNE01.JPG,AFNE01.JPG,AFNE01.JPG,AFNE01.JPG,1,0,10,9,,,,,,,,,,,,,,,,,,,,,,,AFSA12.jpg,AFNE17.jpg,AFNE16.jpg,AFSA11.jpg,AFNE16.jpg,FN,3,num_2,32,num_6,1.13341217162,,,2017_Aug_10_1636,60.0071020448,FEMA4ImagesEEG,001,101245,
AFNE01.JPG,AFNE01.JPG,AFNE01.JPG,AFNE01.JPG,AFNE01.JPG,AFNE01.JPG,1,1,11,4,,,,,,,,,,,,,,,,,,,,,,,AFSA15.jpg,AFSA06.jpg,AFNE02.jpg,AFNE03.jpg,AFNE03.jpg,FN,3,num_4,32,num_2,1.26659918297,,,2017_Aug_10_1636,60.0071020448,FEMA4ImagesEEG,001,101245,
AFNE01.JPG,AFNE01.JPG,AFNE01.JPG,AFNE01.JPG,AFNE01.JPG,AFNE01.JPG,1,2,12,6,,,,,,,,,,,,,,,,,,,,,,,AFSA17.jpg,AFNE04.jpg,AFSA19.jpg,AFNE19.jpg,AFNE19.jpg,FN,3,num_4,32,num_2,1.68345933594,,,2017_Aug_10_1636,60.0071020448,FEMA4ImagesEEG,001,101245,
AFNE01.JPG,AFNE01.JPG,AFNE01.JPG,AFNE01.JPG,AFNE01.JPG,AFNE01.JPG,1,3,13,0,,,,,,,,,,,,,,,,,,,,,,,AFSA10.jpg,AFSA19.jpg,AFNE05.jpg,AFNE04.jpg,AFNE04.jpg,FN,3,num_4,16,num_4,0.8500947305,,,2017_Aug_10_1636,60.0071020448,FEMA4ImagesEEG,001,101245,
AFNE01.JPG,AFNE01.JPG,AFNE01.JPG,AFNE01.JPG,AFNE01.JPG,AFNE01.JPG,1,4,14,5,,,,,,,,,,,,,,,,,,,,,,,AFSA06.jpg,AFNE09.jpg,AFSA11.jpg,AFNE13.jpg,AFSA11.jpg,FS,4,num_2,16,num_2,1.33341736719,,,2017_Aug_10_1636,60.0071020448,FEMA4ImagesEEG,001,101245,
AFNE01.JPG,AFNE01.JPG,AFNE01.JPG,AFNE01.JPG,AFNE01.JPG,AFNE01.JPG,1,5,15,1,,,,,,,,,,,,,,,,,,,,,,,AFNE08.jpg,AFSA17.jpg,AFNE15.jpg,AFSA15.jpg,AFSA15.jpg,FS,4,num_4,32,num_2,0.966780304909,,,2017_Aug_10_1636,60.0071020448,FEMA4ImagesEEG,001,101245,
AFNE01.JPG,AFNE01.JPG,AFNE01.JPG,AFNE01.JPG,AFNE01.JPG,AFNE01.JPG,1,6,16,7,,,,,,,,,,,,,,,,,,,,,,,AFNE09.jpg,AFSA06.jpg,AFSA11.jpg,AFNE14.jpg,AFNE09.jpg,FN,3,num_8,16,num_8,0.933427182026,,,2017_Aug_10_1636,60.0071020448,FEMA4ImagesEEG,001,101245,
AFNE01.JPG,AFNE01.JPG,AFNE01.JPG,AFNE01.JPG,AFNE01.JPG,AFNE01.JPG,1,7,17,8,,,,,,,,,,,,,,,,,,,,,,,AFSA04.jpg,AFNE08.jpg,AFNE07.jpg,AFSA08.jpg,AFSA08.jpg,FS,4,num_4,32,num_8,0.650113269221,,,2017_Aug_10_1636,60.0071020448,FEMA4ImagesEEG,001,101245,
AFNE01.JPG,AFNE01.JPG,AFNE01.JPG,AFNE01.JPG,AFNE01.JPG,AFNE01.JPG,1,8,18,2,,,,,,,,,,,,,,,,,,,,,,,AFSA04.jpg,AFSA13.jpg,AFNE15.jpg,AFNE01.jpg,AFNE15.jpg,FN,3,num_2,16,num_2,0.716780064628,,,2017_Aug_10_1636,60.0071020448,FEMA4ImagesEEG,001,101245,
AFNE01.JPG,AFNE01.JPG,AFNE01.JPG,AFNE01.JPG,AFNE01.JPG,AFNE01.JPG,1,9,19,3,,,,,,,,,,,,,,,,,,,,,,,AFNE14.jpg,AFSA05.jpg,AFNE03.jpg,AFSA15.jpg,AFNE14.jpg,FN,3,num_8,32,num_2,0.816772398539,,,2017_Aug_10_1636,60.0071020448,FEMA4ImagesEEG,001,101245,
AFNE01.JPG,AFNE01.JPG,AFNE01.JPG,AFNE01.JPG,AFNE01.JPG,AFNE01.JPG,2,0,20,7,,,,,,,,,,,,,,,,,,,,,,,AFNE12.jpg,AFNE08.jpg,AFSA12.jpg,AFSA06.jpg,AFSA06.jpg,FS,4,num_4,32,num_6,1.05012045382,,,2017_Aug_10_1636,60.0071020448,FEMA4ImagesEEG,001,101245,
AFNE01.JPG,AFNE01.JPG,AFNE01.JPG,AFNE01.JPG,AFNE01.JPG,AFNE01.JPG,2,1,21,8,,,,,,,,,,,,,,,,,,,,,,,AFSA01.jpg,AFNE10.jpg,AFNE13.jpg,AFSA09.jpg,AFNE13.jpg,FN,3,num_2,16,num_2,1.00010616472,,,2017_Aug_10_1636,60.0071020448,FEMA4ImagesEEG,001,101245,
AFNE01.JPG,AFNE01.JPG,AFNE01.JPG,AFNE01.JPG,AFNE01.JPG,AFNE01.JPG,2,2,22,6,,,,,,,,,,,,,,,,,,,,,,,AFSA09.jpg,AFSA11.jpg,AFNE02.jpg,AFNE18.jpg,AFSA09.jpg,FS,4,num_8,32,num_6,0.883476399351,,,2017_Aug_10_1636,60.0071020448,FEMA4ImagesEEG,001,101245,
AFNE01.JPG,AFNE01.JPG,AFNE01.JPG,AFNE01.JPG,AFNE01.JPG,AFNE01.JPG,2,3,23,1,,,,,,,,,,,,,,,,,,,,,,,AFNE20.jpg,AFNE02.jpg,AFSA13.jpg,AFSA17.jpg,AFNE20.jpg,FN,3,num_8,32,num_6,0.833522409666,,,2017_Aug_10_1636,60.0071020448,FEMA4ImagesEEG,001,101245,
AFNE01.JPG,AFNE01.JPG,AFNE01.JPG,AFNE01.JPG,AFNE01.JPG,AFNE01.JPG,2,4,24,3,,,,,,,,,,,,,,,,,,,,,,,AFNE07.jpg,AFSA12.jpg,AFNE04.jpg,AFSA11.jpg,AFSA12.jpg,FS,4,num_6,32,num_2,1.11681707762,,,2017_Aug_10_1636,60.0071020448,FEMA4ImagesEEG,001,101245,
AFNE01.JPG,AFNE01.JPG,AFNE01.JPG,AFNE01.JPG,AFNE01.JPG,AFNE01.JPG,2,5,25,9,,,,,,,,,,,,,,,,,,,,,,,AFSA09.jpg,AFNE10.jpg,AFNE19.jpg,AFSA06.jpg,AFNE19.jpg,FN,3,num_2,16,num_2,0.750091491267,,,2017_Aug_10_1636,60.0071020448,FEMA4ImagesEEG,001,101245,
AFNE01.JPG,AFNE01.JPG,AFNE01.JPG,AFNE01.JPG,AFNE01.JPG,AFNE01.JPG,2,6,26,4,,,,,,,,,,,,,,,,,,,,,,,AFNE07.jpg,AFNE19.jpg,AFSA05.jpg,AFSA15.jpg,AFNE07.jpg,FN,3,num_8,16,num_8,0.933434879873,,,2017_Aug_10_1636,60.0071020448,FEMA4ImagesEEG,001,101245,
AFNE01.JPG,AFNE01.JPG,AFNE01.JPG,AFNE01.JPG,AFNE01.JPG,AFNE01.JPG,2,7,27,0,,,,,,,,,,,,,,,,,,,,,,,AFNE16.jpg,AFNE01.jpg,AFSA20.jpg,AFSA12.jpg,AFSA12.jpg,FS,4,num_4,16,num_4,0.633471347857,,,2017_Aug_10_1636,60.0071020448,FEMA4ImagesEEG,001,101245,
AFNE01.JPG,AFNE01.JPG,AFNE01.JPG,AFNE01.JPG,AFNE01.JPG,AFNE01.JPG,2,8,28,2,,,,,,,,,,,,,,,,,,,,,,,AFNE19.jpg,AFSA02.jpg,AFNE03.jpg,AFSA13.jpg,AFSA13.jpg,FS,4,num_4,32,num_6,0.450154260267,,,2017_Aug_10_1636,60.0071020448,FEMA4ImagesEEG,001,101245,
AFNE01.JPG,AFNE01.JPG,AFNE01.JPG,AFNE01.JPG,AFNE01.JPG,AFNE01.JPG,2,9,29,5,,,,,,,,,,,,,,,,,,,,,,,AFNE17.jpg,AFSA03.jpg,AFSA10.jpg,AFNE11.jpg,AFNE11.jpg,FN,3,num_4,32,num_2,1.05010185111,,,2017_Aug_10_1636,60.0071020448,FEMA4ImagesEEG,001,101245,
AFNE01.JPG,AFNE01.JPG,AFNE01.JPG,AFNE01.JPG,AFNE01.JPG,AFNE01.JPG,3,0,30,2,,,,,,,,,,,,,,,,,,,,,,,AFNE17.jpg,AFNE10.jpg,AFSA03.jpg,AFSA11.jpg,AFSA11.jpg,FS,4,num_4,32,num_8,1.01676604804,,,2017_Aug_10_1636,60.0071020448,FEMA4ImagesEEG,001,101245,
AFNE01.JPG,AFNE01.JPG,AFNE01.JPG,AFNE01.JPG,AFNE01.JPG,AFNE01.JPG,3,1,31,9,,,,,,,,,,,,,,,,,,,,,,,AFSA11.jpg,AFNE15.jpg,AFNE03.jpg,AFSA02.jpg,AFNE15.jpg,FN,3,num_6,16,num_6,0.633461725432,,,2017_Aug_10_1636,60.0071020448,FEMA4ImagesEEG,001,101245,
AFNE01.JPG,AFNE01.JPG,AFNE01.JPG,AFNE01.JPG,AFNE01.JPG,AFNE01.JPG,3,2,32,6,,,,,,,,,,,,,,,,,,,,,,,AFNE05.jpg,AFSA16.jpg,AFSA07.jpg,AFNE18.jpg,AFNE18.jpg,FN,3,num_4,32,num_2,0.783476367127,,,2017_Aug_10_1636,60.0071020448,FEMA4ImagesEEG,001,101245,
AFNE01.JPG,AFNE01.JPG,AFNE01.JPG,AFNE01.JPG,AFNE01.JPG,AFNE01.JPG,3,3,33,0,,,,,,,,,,,,,,,,,,,,,,,AFSA07.jpg,AFSA03.jpg,AFNE01.jpg,AFNE03.jpg,AFSA07.jpg,FS,4,num_8,16,num_8,0.800151004456,,,2017_Aug_10_1636,60.0071020448,FEMA4ImagesEEG,001,101245,
AFNE01.JPG,AFNE01.JPG,AFNE01.JPG,AFNE01.JPG,AFNE01.JPG,AFNE01.JPG,3,4,34,3,,,,,,,,,,,,,,,,,,,,,,,AFSA11.jpg,AFNE12.jpg,AFNE20.jpg,AFSA10.jpg,AFNE12.jpg,FN,3,num_6,32,num_4,0.766760034021,,,2017_Aug_10_1636,60.0071020448,FEMA4ImagesEEG,001,101245,
AFNE01.JPG,AFNE01.JPG,AFNE01.JPG,AFNE01.JPG,AFNE01.JPG,AFNE01.JPG,3,5,35,7,,,,,,,,,,,,,,,,,,,,,,,AFSA13.jpg,AFNE01.jpg,AFSA18.jpg,AFNE06.jpg,AFSA18.jpg,FS,4,num_2,16,num_2,1.40007101186,,,2017_Aug_10_1636,60.0071020448,FEMA4ImagesEEG,001,101245,
AFNE01.JPG,AFNE01.JPG,AFNE01.JPG,AFNE01.JPG,AFNE01.JPG,AFNE01.JPG,3,6,36,4,,,,,,,,,,,,,,,,,,,,,,,AFSA11.jpg,AFNE13.jpg,AFNE02.jpg,AFSA12.jpg,AFSA11.jpg,FS,4,num_8,16,num_8,0.650153682567,,,2017_Aug_10_1636,60.0071020448,FEMA4ImagesEEG,001,101245,
AFNE01.JPG,AFNE01.JPG,AFNE01.JPG,AFNE01.JPG,AFNE01.JPG,AFNE01.JPG,3,7,37,8,,,,,,,,,,,,,,,,,,,,,,,AFSA12.jpg,AFSA06.jpg,AFNE17.jpg,AFNE09.jpg,AFNE17.jpg,FN,3,num_2,32,num_4,0.883460042067,,,2017_Aug_10_1636,60.0071020448,FEMA4ImagesEEG,001,101245,
AFNE01.JPG,AFNE01.JPG,AFNE01.JPG,AFNE01.JPG,AFNE01.JPG,AFNE01.JPG,3,8,38,1,,,,,,,,,,,,,,,,,,,,,,,AFSA15.jpg,AFNE10.jpg,AFNE18.jpg,AFSA09.jpg,AFSA09.jpg,FS,4,num_4,16,num_4,1.01675706729,,,2017_Aug_10_1636,60.0071020448,FEMA4ImagesEEG,001,101245,
AFNE01.JPG,AFNE01.JPG,AFNE01.JPG,AFNE01.JPG,AFNE01.JPG,AFNE01.JPG,3,9,39,5,,,,,,,,,,,,,,,,,,,,,,,AFNE19.jpg,AFNE16.jpg,AFSA06.jpg,AFSA02.jpg,AFSA06.jpg,FS,4,num_2,16,num_2,1.10008182097,,,2017_Aug_10_1636,60.0071020448,FEMA4ImagesEEG,001,101245,
AFNE01.JPG,AFNE01.JPG,AFNE01.JPG,AFNE01.JPG,AFNE01.JPG,AFNE01.JPG,4,0,40,0,,,,,,,,,,,,,,,,,,,,,,,AFNE06.jpg,AFSA14.jpg,AFSA20.jpg,AFNE05.jpg,AFNE05.jpg,FN,3,num_4,16,num_4,1.05010473728,,,2017_Aug_10_1636,60.0071020448,FEMA4ImagesEEG,001,101245,
AFNE01.JPG,AFNE01.JPG,AFNE01.JPG,AFNE01.JPG,AFNE01.JPG,AFNE01.JPG,4,1,41,6,,,,,,,,,,,,,,,,,,,,,,,AFSA11.jpg,AFNE12.jpg,AFSA20.jpg,AFNE05.jpg,AFNE12.jpg,FN,3,num_6,16,num_6,0.666528748348,,,2017_Aug_10_1636,60.0071020448,FEMA4ImagesEEG,001,101245,
AFNE01.JPG,AFNE01.JPG,AFNE01.JPG,AFNE01.JPG,AFNE01.JPG,AFNE01.JPG,4,2,42,8,,,,,,,,,,,,,,,,,,,,,,,AFSA19.jpg,AFNE11.jpg,AFSA06.jpg,AFNE20.jpg,AFSA19.jpg,FS,4,num_8,16,num_8,0.983443074394,,,2017_Aug_10_1636,60.0071020448,FEMA4ImagesEEG,001,101245,
AFNE01.JPG,AFNE01.JPG,AFNE01.JPG,AFNE01.JPG,AFNE01.JPG,AFNE01.JPG,4,3,43,3,,,,,,,,,,,,,,,,,,,,,,,AFSA09.jpg,AFNE15.jpg,AFSA06.jpg,AFNE14.jpg,AFSA09.jpg,FS,4,num_8,16,num_8,0.783735525329,,,2017_Aug_10_1636,60.0071020448,FEMA4ImagesEEG,001,101245,
AFNE01.JPG,AFNE01.JPG,AFNE01.JPG,AFNE01.JPG,AFNE01.JPG,AFNE01.JPG,4,4,44,4,,,,,,,,,,,,,,,,,,,,,,,AFNE16.jpg,AFSA15.jpg,AFNE17.jpg,AFSA01.jpg,AFSA01.jpg,FS,4,num_4,16,num_4,1.12008509878,,,2017_Aug_10_1636,60.0071020448,FEMA4ImagesEEG,001,101245,
AFNE01.JPG,AFNE01.JPG,AFNE01.JPG,AFNE01.JPG,AFNE01.JPG,AFNE01.JPG,4,5,45,7,,,,,,,,,,,,,,,,,,,,,,,AFNE11.jpg,AFNE15.jpg,AFSA08.jpg,AFSA10.jpg,AFNE15.jpg,FN,3,num_6,16,num_6,0.716767876409,,,2017_Aug_10_1636,60.0071020448,FEMA4ImagesEEG,001,101245,
AFNE01.JPG,AFNE01.JPG,AFNE01.JPG,AFNE01.JPG,AFNE01.JPG,AFNE01.JPG,4,6,46,2,,,,,,,,,,,,,,,,,,,,,,,AFNE03.jpg,AFNE12.jpg,AFSA13.jpg,AFSA18.jpg,AFSA13.jpg,FS,4,num_2,16,num_2,0.883423476946,,,2017_Aug_10_1636,60.0071020448,FEMA4ImagesEEG,001,101245,
AFNE01.JPG,AFNE01.JPG,AFNE01.JPG,AFNE01.JPG,AFNE01.JPG,AFNE01.JPG,4,7,47,9,,,,,,,,,,,,,,,,,,,,,,,AFSA07.jpg,AFNE08.jpg,AFNE11.jpg,AFSA05.jpg,AFNE08.jpg,FN,3,num_6,32,num_4,0.950098932255,,,2017_Aug_10_1636,60.0071020448,FEMA4ImagesEEG,001,101245,
AFNE01.JPG,AFNE01.JPG,AFNE01.JPG,AFNE01.JPG,AFNE01.JPG,AFNE01.JPG,4,8,48,5,,,,,,,,,,,,,,,,,,,,,,,AFSA20.jpg,AFNE09.jpg,AFNE11.jpg,AFSA06.jpg,AFSA06.jpg,FS,4,num_4,16,num_4,0.416884849779,,,2017_Aug_10_1636,60.0071020448,FEMA4ImagesEEG,001,101245,
AFNE01.JPG,AFNE01.JPG,AFNE01.JPG,AFNE01.JPG,AFNE01.JPG,AFNE01.JPG,4,9,49,1,,,,,,,,,,,,,,,,,,,,,,,AFNE19.jpg,AFSA13.jpg,AFNE13.jpg,AFSA16.jpg,AFSA16.jpg,FS,4,num_4,16,num_4,0.433499188162,,,2017_Aug_10_1636,60.0071020448,FEMA4ImagesEEG,001,101245,
AFNE01.JPG,AFNE01.JPG,AFNE01.JPG,AFNE01.JPG,AFNE01.JPG,AFNE01.JPG,5,0,50,9,,,,,,,,,,,,,,,,,,,,,,,AFNE09.jpg,AFNE11.jpg,AFSA11.jpg,AFSA05.jpg,AFSA05.jpg,FS,4,num_4,32,num_2,1.23345646542,,,2017_Aug_10_1636,60.0071020448,FEMA4ImagesEEG,001,101245,
AFNE01.JPG,AFNE01.JPG,AFNE01.JPG,AFNE01.JPG,AFNE01.JPG,AFNE01.JPG,5,1,51,4,,,,,,,,,,,,,,,,,,,,,,,AFNE01.jpg,AFNE11.jpg,AFSA15.jpg,AFSA18.jpg,AFNE01.jpg,FN,3,num_8,32,num_4,1.25009133061,,,2017_Aug_10_1636,60.0071020448,FEMA4ImagesEEG,001,101245,
AFNE01.JPG,AFNE01.JPG,AFNE01.JPG,AFNE01.JPG,AFNE01.JPG,AFNE01.JPG,5,2,52,1,,,,,,,,,,,,,,,,,,,,,,,AFNE01.jpg,AFNE06.jpg,AFSA13.jpg,AFSA03.jpg,AFSA13.jpg,FS,4,num_2,16,num_2,0.800106742419,,,2017_Aug_10_1636,60.0071020448,FEMA4ImagesEEG,001,101245,
AFNE01.JPG,AFNE01.JPG,AFNE01.JPG,AFNE01.JPG,AFNE01.JPG,AFNE01.JPG,5,3,53,5,,,,,,,,,,,,,,,,,,,,,,,AFNE14.jpg,AFSA18.jpg,AFNE04.jpg,AFSA12.jpg,AFSA18.jpg,FS,4,num_6,16,num_6,0.650137324817,,,2017_Aug_10_1636,60.0071020448,FEMA4ImagesEEG,001,101245,
AFNE01.JPG,AFNE01.JPG,AFNE01.JPG,AFNE01.JPG,AFNE01.JPG,AFNE01.JPG,5,4,54,8,,,,,,,,,,,,,,,,,,,,,,,AFNE08.jpg,AFSA08.jpg,AFSA13.jpg,AFNE05.jpg,AFSA08.jpg,FS,4,num_6,32,num_2,0.950107912999,,,2017_Aug_10_1636,60.0071020448,FEMA4ImagesEEG,001,101245,
AFNE01.JPG,AFNE01.JPG,AFNE01.JPG,AFNE01.JPG,AFNE01.JPG,AFNE01.JPG,5,5,55,6,,,,,,,,,,,,,,,,,,,,,,,AFSA05.jpg,AFNE12.jpg,AFSA07.jpg,AFNE08.jpg,AFSA07.jpg,FS,4,num_2,32,num_6,1.01678625448,,,2017_Aug_10_1636,60.0071020448,FEMA4ImagesEEG,001,101245,
AFNE01.JPG,AFNE01.JPG,AFNE01.JPG,AFNE01.JPG,AFNE01.JPG,AFNE01.JPG,5,6,56,7,,,,,,,,,,,,,,,,,,,,,,,AFNE07.jpg,AFSA20.jpg,AFNE17.jpg,AFSA18.jpg,AFNE17.jpg,FN,3,num_2,16,num_2,1.35008206172,,,2017_Aug_10_1636,60.0071020448,FEMA4ImagesEEG,001,101245,
AFNE01.JPG,AFNE01.JPG,AFNE01.JPG,AFNE01.JPG,AFNE01.JPG,AFNE01.JPG,5,7,57,3,,,,,,,,,,,,,,,,,,,,,,,AFSA14.jpg,AFNE09.jpg,AFNE14.jpg,AFSA08.jpg,AFSA14.jpg,FS,4,num_8,16,num_8,1.06672901846,,,2017_Aug_10_1636,60.0071020448,FEMA4ImagesEEG,001,101245,
AFNE01.JPG,AFNE01.JPG,AFNE01.JPG,AFNE01.JPG,AFNE01.JPG,AFNE01.JPG,5,8,58,2,,,,,,,,,,,,,,,,,,,,,,,AFSA18.jpg,AFNE11.jpg,AFNE03.jpg,AFSA19.jpg,AFNE11.jpg,FN,3,num_6,32,num_2,1.05008998374,,,2017_Aug_10_1636,60.0071020448,FEMA4ImagesEEG,001,101245,
AFNE01.JPG,AFNE01.JPG,AFNE01.JPG,AFNE01.JPG,AFNE01.JPG,AFNE01.JPG,5,9,59,0,,,,,,,,,,,,,,,,,,,,,,,AFSA13.jpg,AFSA04.jpg,AFNE06.jpg,AFNE17.jpg,AFSA13.jpg,FS,4,num_8,16,num_8,0.633495082613,,,2017_Aug_10_1636,60.0071020448,FEMA4ImagesEEG,001,101245,
,,,,,,,,,,,,,,,,,,,,,,,,,,,,,,,,,,,,,,,,,,,space,13.8991054236,2017_Aug_10_1636,60.0071020448,FEMA4ImagesEEG,001,101245,
AFNE01.JPG,AFNE01.JPG,AFNE01.JPG,AFNE01.JPG,AFNE01.JPG,AFNE01.JPG,,,,,0,0,0,9,,,,,,,,,,,,,,,,,,,AMNE07.jpg,AMNE14.jpg,AMSA06.jpg,AMSA14.jpg,AMSA06.jpg,MS,2,num_2,16,num_2,0.933447708841,,,2017_Aug_10_1636,60.0071020448,FEMA4ImagesEEG,001,101245,
AFNE01.JPG,AFNE01.JPG,AFNE01.JPG,AFNE01.JPG,AFNE01.JPG,AFNE01.JPG,,,,,0,1,1,2,,,,,,,,,,,,,,,,,,,AMNE19.jpg,AMNE09.jpg,AMSA12.jpg,AMSA18.jpg,AMNE09.jpg,MN,1,num_6,32,num_8,1.18342004577,,,2017_Aug_10_1636,60.0071020448,FEMA4ImagesEEG,001,101245,
AFNE01.JPG,AFNE01.JPG,AFNE01.JPG,AFNE01.JPG,AFNE01.JPG,AFNE01.JPG,,,,,0,2,2,4,,,,,,,,,,,,,,,,,,,AMNE20.jpg,AMNE17.jpg,AMSA11.jpg,AMSA18.jpg,AMSA11.jpg,MS,2,num_2,16,num_2,1.25007721828,,,2017_Aug_10_1636,60.0071020448,FEMA4ImagesEEG,001,101245,
AFNE01.JPG,AFNE01.JPG,AFNE01.JPG,AFNE01.JPG,AFNE01.JPG,AFNE01.JPG,,,,,0,3,3,1,,,,,,,,,,,,,,,,,,,AMSA01.jpg,AMNE01.jpg,AMSA17.jpg,AMNE07.jpg,AMSA17.jpg,MS,2,num_2,16,num_2,1.30006392347,,,2017_Aug_10_1636,60.0071020448,FEMA4ImagesEEG,001,101245,
AFNE01.JPG,AFNE01.JPG,AFNE01.JPG,AFNE01.JPG,AFNE01.JPG,AFNE01.JPG,,,,,0,4,4,3,,,,,,,,,,,,,,,,,,,AMNE14.jpg,AMSA04.jpg,AMNE17.jpg,AMSA15.jpg,AMNE14.jpg,MN,1,num_8,32,num_4,0.833434847649,,,2017_Aug_10_1636,60.0071020448,FEMA4ImagesEEG,001,101245,
AFNE01.JPG,AFNE01.JPG,AFNE01.JPG,AFNE01.JPG,AFNE01.JPG,AFNE01.JPG,,,,,0,5,5,5,,,,,,,,,,,,,,,,,,,AMNE04.jpg,AMNE07.jpg,AMSA14.jpg,AMSA05.jpg,AMSA14.jpg,MS,2,num_2,16,num_2,1.10012287553,,,2017_Aug_10_1636,60.0071020448,FEMA4ImagesEEG,001,101245,
AFNE01.JPG,AFNE01.JPG,AFNE01.JPG,AFNE01.JPG,AFNE01.JPG,AFNE01.JPG,,,,,0,6,6,8,,,,,,,,,,,,,,,,,,,AMNE11.jpg,AMNE01.jpg,AMSA06.jpg,AMSA03.jpg,AMNE01.jpg,MN,1,num_6,16,num_6,0.716739650816,,,2017_Aug_10_1636,60.0071020448,FEMA4ImagesEEG,001,101245,
AFNE01.JPG,AFNE01.JPG,AFNE01.JPG,AFNE01.JPG,AFNE01.JPG,AFNE01.JPG,,,,,0,7,7,7,,,,,,,,,,,,,,,,,,,AMNE07.jpg,AMSA14.jpg,AMNE09.jpg,AMSA11.jpg,AMNE09.jpg,MN,1,num_2,32,num_8,0.950087064877,,,2017_Aug_10_1636,60.0071020448,FEMA4ImagesEEG,001,101245,
AFNE01.JPG,AFNE01.JPG,AFNE01.JPG,AFNE01.JPG,AFNE01.JPG,AFNE01.JPG,,,,,0,8,8,6,,,,,,,,,,,,,,,,,,,AMSA12.jpg,AMNE03.jpg,AMSA19.jpg,AMNE06.jpg,AMNE03.jpg,MN,1,num_6,32,num_2,1.75003824849,,,2017_Aug_10_1636,60.0071020448,FEMA4ImagesEEG,001,101245,
AFNE01.JPG,AFNE01.JPG,AFNE01.JPG,AFNE01.JPG,AFNE01.JPG,AFNE01.JPG,,,,,0,9,9,0,,,,,,,,,,,,,,,,,,,AMNE02.jpg,AMSA16.jpg,AMSA02.jpg,AMNE07.jpg,AMSA16.jpg,MS,2,num_6,16,num_6,0.900125056505,,,2017_Aug_10_1636,60.0071020448,FEMA4ImagesEEG,001,101245,
AFNE01.JPG,AFNE01.JPG,AFNE01.JPG,AFNE01.JPG,AFNE01.JPG,AFNE01.JPG,,,,,1,0,10,7,,,,,,,,,,,,,,,,,,,AMSA16.jpg,AMNE06.jpg,AMNE13.jpg,AMSA09.jpg,AMNE13.jpg,MN,1,num_2,16,num_2,0.966732193716,,,2017_Aug_10_1636,60.0071020448,FEMA4ImagesEEG,001,101245,
AFNE01.JPG,AFNE01.JPG,AFNE01.JPG,AFNE01.JPG,AFNE01.JPG,AFNE01.JPG,,,,,1,1,11,2,,,,,,,,,,,,,,,,,,,AMSA16.jpg,AMNE19.jpg,AMSA05.jpg,AMNE13.jpg,AMNE19.jpg,MN,1,num_6,32,num_8,1.86672638869,,,2017_Aug_10_1636,60.0071020448,FEMA4ImagesEEG,001,101245,
AFNE01.JPG,AFNE01.JPG,AFNE01.JPG,AFNE01.JPG,AFNE01.JPG,AFNE01.JPG,,,,,1,2,12,3,,,,,,,,,,,,,,,,,,,AMSA01.jpg,AMNE08.jpg,AMNE16.jpg,AMSA10.jpg,AMSA10.jpg,MS,2,num_4,16,num_4,0.766797881108,,,2017_Aug_10_1636,60.0071020448,FEMA4ImagesEEG,001,101245,
AFNE01.JPG,AFNE01.JPG,AFNE01.JPG,AFNE01.JPG,AFNE01.JPG,AFNE01.JPG,,,,,1,3,13,4,,,,,,,,,,,,,,,,,,,AMNE11.jpg,AMNE07.jpg,AMSA12.jpg,AMSA13.jpg,AMSA12.jpg,MS,2,num_2,32,num_4,0.816820509732,,,2017_Aug_10_1636,60.0071020448,FEMA4ImagesEEG,001,101245,
AFNE01.JPG,AFNE01.JPG,AFNE01.JPG,AFNE01.JPG,AFNE01.JPG,AFNE01.JPG,,,,,1,4,14,0,,,,,,,,,,,,,,,,,,,AMNE01.jpg,AMNE05.jpg,AMSA01.jpg,AMSA06.jpg,AMNE05.jpg,MN,1,num_6,32,num_2,1.36669094628,,,2017_Aug_10_1636,60.0071020448,FEMA4ImagesEEG,001,101245,
AFNE01.JPG,AFNE01.JPG,AFNE01.JPG,AFNE01.JPG,AFNE01.JPG,AFNE01.JPG,,,,,1,5,15,8,,,,,,,,,,,,,,,,,,,AMNE12.jpg,AMSA09.jpg,AMNE01.jpg,AMSA18.jpg,AMSA09.jpg,MS,2,num_6,16,num_6,0.950098290574,,,2017_Aug_10_1636,60.0071020448,FEMA4ImagesEEG,001,101245,
AFNE01.JPG,AFNE01.JPG,AFNE01.JPG,AFNE01.JPG,AFNE01.JPG,AFNE01.JPG,,,,,1,6,16,6,,,,,,,,,,,,,,,,,,,AMNE04.jpg,AMNE05.jpg,AMSA12.jpg,AMSA04.jpg,AMSA04.jpg,MS,2,num_4,16,num_4,0.683476014528,,,2017_Aug_10_1636,60.0071020448,FEMA4ImagesEEG,001,101245,
AFNE01.JPG,AFNE01.JPG,AFNE01.JPG,AFNE01.JPG,AFNE01.JPG,AFNE01.JPG,,,,,1,7,17,5,,,,,,,,,,,,,,,,,,,AMSA07.jpg,AMNE18.jpg,AMNE17.jpg,AMSA03.jpg,AMNE17.jpg,MN,1,num_2,32,num_6,0.90011543408,,,2017_Aug_10_1636,60.0071020448,FEMA4ImagesEEG,001,101245,
AFNE01.JPG,AFNE01.JPG,AFNE01.JPG,AFNE01.JPG,AFNE01.JPG,AFNE01.JPG,,,,,1,8,18,1,,,,,,,,,,,,,,,,,,,AMNE13.jpg,AMSA17.jpg,AMSA10.jpg,AMNE09.jpg,AMNE09.jpg,MN,1,num_4,16,num_4,0.58350581117,,,2017_Aug_10_1636,60.0071020448,FEMA4ImagesEEG,001,101245,
AFNE01.JPG,AFNE01.JPG,AFNE01.JPG,AFNE01.JPG,AFNE01.JPG,AFNE01.JPG,,,,,1,9,19,9,,,,,,,,,,,,,,,,,,,AMSA10.jpg,AMNE17.jpg,AMNE11.jpg,AMSA07.jpg,AMSA07.jpg,MS,2,num_4,16,num_4,0.683475052007,,,2017_Aug_10_1636,60.0071020448,FEMA4ImagesEEG,001,101245,
AFNE01.JPG,AFNE01.JPG,AFNE01.JPG,AFNE01.JPG,AFNE01.JPG,AFNE01.JPG,,,,,2,0,20,9,,,,,,,,,,,,,,,,,,,AMSA11.jpg,AMSA20.jpg,AMNE08.jpg,AMNE19.jpg,AMNE19.jpg,MN,1,num_4,32,num_2,1.30013063736,,,2017_Aug_10_1636,60.0071020448,FEMA4ImagesEEG,001,101245,
AFNE01.JPG,AFNE01.JPG,AFNE01.JPG,AFNE01.JPG,AFNE01.JPG,AFNE01.JPG,,,,,2,1,21,7,,,,,,,,,,,,,,,,,,,AMSA13.jpg,AMSA10.jpg,AMNE04.jpg,AMNE12.jpg,AMSA13.jpg,MS,2,num_8,16,num_8,0.516767811961,,,2017_Aug_10_1636,60.0071020448,FEMA4ImagesEEG,001,101245,
AFNE01.JPG,AFNE01.JPG,AFNE01.JPG,AFNE01.JPG,AFNE01.JPG,AFNE01.JPG,,,,,2,2,22,5,,,,,,,,,,,,,,,,,,,AMNE02.jpg,AMNE19.jpg,AMSA12.jpg,AMSA10.jpg,AMNE19.jpg,MN,1,num_6,16,num_6,0.783422803972,,,2017_Aug_10_1636,60.0071020448,FEMA4ImagesEEG,001,101245,
AFNE01.JPG,AFNE01.JPG,AFNE01.JPG,AFNE01.JPG,AFNE01.JPG,AFNE01.JPG,,,,,2,3,23,4,,,,,,,,,,,,,,,,,,,AMSA18.jpg,AMNE18.jpg,AMSA11.jpg,AMNE20.jpg,AMSA18.jpg,MS,2,num_8,16,num_8,0.816677780356,,,2017_Aug_10_1636,60.0071020448,FEMA4ImagesEEG,001,101245,
AFNE01.JPG,AFNE01.JPG,AFNE01.JPG,AFNE01.JPG,AFNE01.JPG,AFNE01.JPG,,,,,2,4,24,2,,,,,,,,,,,,,,,,,,,AMSA09.jpg,AMNE15.jpg,AMSA15.jpg,AMNE08.jpg,AMSA15.jpg,MS,2,num_2,32,num_6,1.40020476049,,,2017_Aug_10_1636,60.0071020448,FEMA4ImagesEEG,001,101245,
AFNE01.JPG,AFNE01.JPG,AFNE01.JPG,AFNE01.JPG,AFNE01.JPG,AFNE01.JPG,,,,,2,5,25,0,,,,,,,,,,,,,,,,,,,AMNE01.jpg,AMNE17.jpg,AMSA05.jpg,AMSA18.jpg,AMNE17.jpg,MN,1,num_6,16,num_6,0.86682004435,,,2017_Aug_10_1636,60.0071020448,FEMA4ImagesEEG,001,101245,
AFNE01.JPG,AFNE01.JPG,AFNE01.JPG,AFNE01.JPG,AFNE01.JPG,AFNE01.JPG,,,,,2,6,26,3,,,,,,,,,,,,,,,,,,,AMSA10.jpg,AMNE08.jpg,AMNE03.jpg,AMSA14.jpg,AMNE08.jpg,MN,1,num_6,32,num_8,0.966779022012,,,2017_Aug_10_1636,60.0071020448,FEMA4ImagesEEG,001,101245,
AFNE01.JPG,AFNE01.JPG,AFNE01.JPG,AFNE01.JPG,AFNE01.JPG,AFNE01.JPG,,,,,2,7,27,1,,,,,,,,,,,,,,,,,,,AMNE16.jpg,AMNE10.jpg,AMSA13.jpg,AMSA02.jpg,AMSA02.jpg,MS,2,num_4,16,num_4,0.866747557651,,,2017_Aug_10_1636,60.0071020448,FEMA4ImagesEEG,001,101245,
AFNE01.JPG,AFNE01.JPG,AFNE01.JPG,AFNE01.JPG,AFNE01.JPG,AFNE01.JPG,,,,,2,8,28,6,,,,,,,,,,,,,,,,,,,AMSA11.jpg,AMNE13.jpg,AMNE12.jpg,AMSA07.jpg,AMSA07.jpg,MS,2,num_4,32,num_8,0.916756393388,,,2017_Aug_10_1636,60.0071020448,FEMA4ImagesEEG,001,101245,
AFNE01.JPG,AFNE01.JPG,AFNE01.JPG,AFNE01.JPG,AFNE01.JPG,AFNE01.JPG,,,,,2,9,29,8,,,,,,,,,,,,,,,,,,,AMNE11.jpg,AMSA17.jpg,AMSA15.jpg,AMNE19.jpg,AMNE19.jpg,MN,1,num_4,16,num_4,0.450145599898,,,2017_Aug_10_1636,60.0071020448,FEMA4ImagesEEG,001,101245,
AFNE01.JPG,AFNE01.JPG,AFNE01.JPG,AFNE01.JPG,AFNE01.JPG,AFNE01.JPG,,,,,3,0,30,8,,,,,,,,,,,,,,,,,,,AMNE18.jpg,AMSA09.jpg,AMNE05.jpg,AMSA06.jpg,AMNE05.jpg,MN,1,num_2,16,num_2,1.38343518414,,,2017_Aug_10_1636,60.0071020448,FEMA4ImagesEEG,001,101245,
AFNE01.JPG,AFNE01.JPG,AFNE01.JPG,AFNE01.JPG,AFNE01.JPG,AFNE01.JPG,,,,,3,1,31,4,,,,,,,,,,,,,,,,,,,AMNE19.jpg,AMSA10.jpg,AMNE13.jpg,AMSA18.jpg,AMNE13.jpg,MN,1,num_2,32,num_8,1.41671261238,,,2017_Aug_10_1636,60.0071020448,FEMA4ImagesEEG,001,101245,
AFNE01.JPG,AFNE01.JPG,AFNE01.JPG,AFNE01.JPG,AFNE01.JPG,AFNE01.JPG,,,,,3,2,32,7,,,,,,,,,,,,,,,,,,,AMSA13.jpg,AMNE05.jpg,AMSA20.jpg,AMNE20.jpg,AMSA13.jpg,MS,2,num_8,16,num_8,0.850169462617,,,2017_Aug_10_1636,60.0071020448,FEMA4ImagesEEG,001,101245,
AFNE01.JPG,AFNE01.JPG,AFNE01.JPG,AFNE01.JPG,AFNE01.JPG,AFNE01.JPG,,,,,3,3,33,5,,,,,,,,,,,,,,,,,,,AMNE12.jpg,AMNE04.jpg,AMSA16.jpg,AMSA13.jpg,AMSA13.jpg,MS,2,num_4,16,num_4,1.06656576181,,,2017_Aug_10_1636,60.0071020448,FEMA4ImagesEEG,001,101245,
AFNE01.JPG,AFNE01.JPG,AFNE01.JPG,AFNE01.JPG,AFNE01.JPG,AFNE01.JPG,,,,,3,4,34,0,,,,,,,,,,,,,,,,,,,AMNE20.jpg,AMSA04.jpg,AMSA02.jpg,AMNE12.jpg,AMNE20.jpg,MN,1,num_8,16,num_8,0.916845879983,,,2017_Aug_10_1636,60.0071020448,FEMA4ImagesEEG,001,101245,
AFNE01.JPG,AFNE01.JPG,AFNE01.JPG,AFNE01.JPG,AFNE01.JPG,AFNE01.JPG,,,,,3,5,35,1,,,,,,,,,,,,,,,,,,,AMSA10.jpg,AMNE01.jpg,AMNE11.jpg,AMSA05.jpg,AMNE11.jpg,MN,1,num_2,16,num_2,0.966848942917,,,2017_Aug_10_1636,60.0071020448,FEMA4ImagesEEG,001,101245,
AFNE01.JPG,AFNE01.JPG,AFNE01.JPG,AFNE01.JPG,AFNE01.JPG,AFNE01.JPG,,,,,3,6,36,3,,,,,,,,,,,,,,,,,,,AMSA18.jpg,AMNE16.jpg,AMNE01.jpg,AMSA07.jpg,AMNE16.jpg,MN,1,num_6,16,num_6,0.733448928222,,,2017_Aug_10_1636,60.0071020448,FEMA4ImagesEEG,001,101245,
AFNE01.JPG,AFNE01.JPG,AFNE01.JPG,AFNE01.JPG,AFNE01.JPG,AFNE01.JPG,,,,,3,7,37,6,,,,,,,,,,,,,,,,,,,AMNE02.jpg,AMSA10.jpg,AMSA09.jpg,AMNE08.jpg,AMNE02.jpg,MN,1,num_8,16,num_8,0.766738865525,,,2017_Aug_10_1636,60.0071020448,FEMA4ImagesEEG,001,101245,
AFNE01.JPG,AFNE01.JPG,AFNE01.JPG,AFNE01.JPG,AFNE01.JPG,AFNE01.JPG,,,,,3,8,38,2,,,,,,,,,,,,,,,,,,,AMNE10.jpg,AMNE11.jpg,AMSA09.jpg,AMSA04.jpg,AMSA04.jpg,MS,2,num_4,16,num_4,0.40026890859,,,2017_Aug_10_1636,60.0071020448,FEMA4ImagesEEG,001,101245,
AFNE01.JPG,AFNE01.JPG,AFNE01.JPG,AFNE01.JPG,AFNE01.JPG,AFNE01.JPG,,,,,3,9,39,9,,,,,,,,,,,,,,,,,,,AMNE01.jpg,AMSA01.jpg,AMNE05.jpg,AMSA17.jpg,AMSA17.jpg,MS,2,num_4,32,num_6,1.38353685895,,,2017_Aug_10_1636,60.0071020448,FEMA4ImagesEEG,001,101245,
AFNE01.JPG,AFNE01.JPG,AFNE01.JPG,AFNE01.JPG,AFNE01.JPG,AFNE01.JPG,,,,,4,0,40,5,,,,,,,,,,,,,,,,,,,AMSA02.jpg,AMNE03.jpg,AMSA01.jpg,AMNE16.jpg,AMSA01.jpg,MS,2,num_2,32,num_8,0.766764524393,,,2017_Aug_10_1636,60.0071020448,FEMA4ImagesEEG,001,101245,
AFNE01.JPG,AFNE01.JPG,AFNE01.JPG,AFNE01.JPG,AFNE01.JPG,AFNE01.JPG,,,,,4,1,41,3,,,,,,,,,,,,,,,,,,,AMNE16.jpg,AMSA13.jpg,AMNE06.jpg,AMSA14.jpg,AMNE06.jpg,MN,1,num_2,32,num_8,0.900138848461,,,2017_Aug_10_1636,60.0071020448,FEMA4ImagesEEG,001,101245,
AFNE01.JPG,AFNE01.JPG,AFNE01.JPG,AFNE01.JPG,AFNE01.JPG,AFNE01.JPG,,,,,4,2,42,0,,,,,,,,,,,,,,,,,,,AMSA07.jpg,AMNE09.jpg,AMNE06.jpg,AMSA11.jpg,AMSA07.jpg,MS,2,num_8,32,num_2,2.16663186625,,,2017_Aug_10_1636,60.0071020448,FEMA4ImagesEEG,001,101245,
AFNE01.JPG,AFNE01.JPG,AFNE01.JPG,AFNE01.JPG,AFNE01.JPG,AFNE01.JPG,,,,,4,3,43,6,,,,,,,,,,,,,,,,,,,AMNE17.jpg,AMNE12.jpg,AMSA13.jpg,AMSA05.jpg,AMNE17.jpg,MN,1,num_8,32,num_6,0.850143482909,,,2017_Aug_10_1636,60.0071020448,FEMA4ImagesEEG,001,101245,
AFNE01.JPG,AFNE01.JPG,AFNE01.JPG,AFNE01.JPG,AFNE01.JPG,AFNE01.JPG,,,,,4,4,44,8,,,,,,,,,,,,,,,,,,,AMSA06.jpg,AMNE18.jpg,AMSA10.jpg,AMNE19.jpg,AMNE18.jpg,MN,1,num_6,32,num_2,1.23347506812,,,2017_Aug_10_1636,60.0071020448,FEMA4ImagesEEG,001,101245,
AFNE01.JPG,AFNE01.JPG,AFNE01.JPG,AFNE01.JPG,AFNE01.JPG,AFNE01.JPG,,,,,4,5,45,2,,,,,,,,,,,,,,,,,,,AMNE05.jpg,AMNE01.jpg,AMSA19.jpg,AMSA03.jpg,AMSA03.jpg,MS,2,num_4,32,num_2,1.4501430341,,,2017_Aug_10_1636,60.0071020448,FEMA4ImagesEEG,001,101245,
AFNE01.JPG,AFNE01.JPG,AFNE01.JPG,AFNE01.JPG,AFNE01.JPG,AFNE01.JPG,,,,,4,6,46,7,,,,,,,,,,,,,,,,,,,AMNE10.jpg,AMSA13.jpg,AMNE09.jpg,AMSA15.jpg,AMSA15.jpg,MS,2,num_4,16,num_4,1.08341584401,,,2017_Aug_10_1636,60.0071020448,FEMA4ImagesEEG,001,101245,
AFNE01.JPG,AFNE01.JPG,AFNE01.JPG,AFNE01.JPG,AFNE01.JPG,AFNE01.JPG,,,,,4,7,47,4,,,,,,,,,,,,,,,,,,,AMSA05.jpg,AMNE06.jpg,AMSA10.jpg,AMNE15.jpg,AMNE06.jpg,MN,1,num_6,16,num_6,0.93355227029,,,2017_Aug_10_1636,60.0071020448,FEMA4ImagesEEG,001,101245,
AFNE01.JPG,AFNE01.JPG,AFNE01.JPG,AFNE01.JPG,AFNE01.JPG,AFNE01.JPG,,,,,4,8,48,1,,,,,,,,,,,,,,,,,,,AMSA16.jpg,AMSA13.jpg,AMNE19.jpg,AMNE15.jpg,AMNE15.jpg,MN,1,num_4,32,num_8,0.716770121362,,,2017_Aug_10_1636,60.0071020448,FEMA4ImagesEEG,001,101245,
AFNE01.JPG,AFNE01.JPG,AFNE01.JPG,AFNE01.JPG,AFNE01.JPG,AFNE01.JPG,,,,,4,9,49,9,,,,,,,,,,,,,,,,,,,AMSA15.jpg,AMSA20.jpg,AMNE02.jpg,AMNE19.jpg,AMSA20.jpg,MS,2,num_6,32,num_4,0.966890318785,,,2017_Aug_10_1636,60.0071020448,FEMA4ImagesEEG,001,101245,
AFNE01.JPG,AFNE01.JPG,AFNE01.JPG,AFNE01.JPG,AFNE01.JPG,AFNE01.JPG,,,,,5,0,50,6,,,,,,,,,,,,,,,,,,,AMNE18.jpg,AMNE08.jpg,AMSA09.jpg,AMSA15.jpg,AMNE18.jpg,MN,1,num_8,32,num_6,0.883445287589,,,2017_Aug_10_1636,60.0071020448,FEMA4ImagesEEG,001,101245,
AFNE01.JPG,AFNE01.JPG,AFNE01.JPG,AFNE01.JPG,AFNE01.JPG,AFNE01.JPG,,,,,5,1,51,1,,,,,,,,,,,,,,,,,,,AMNE02.jpg,AMNE17.jpg,AMSA08.jpg,AMSA19.jpg,AMSA08.jpg,MS,2,num_2,32,num_8,0.783485347871,,,2017_Aug_10_1636,60.0071020448,FEMA4ImagesEEG,001,101245,
AFNE01.JPG,AFNE01.JPG,AFNE01.JPG,AFNE01.JPG,AFNE01.JPG,AFNE01.JPG,,,,,5,2,52,2,,,,,,,,,,,,,,,,,,,AMNE11.jpg,AMSA14.jpg,AMNE07.jpg,AMSA06.jpg,AMSA14.jpg,MS,2,num_6,16,num_6,0.700229553506,,,2017_Aug_10_1636,60.0071020448,FEMA4ImagesEEG,001,101245,
AFNE01.JPG,AFNE01.JPG,AFNE01.JPG,AFNE01.JPG,AFNE01.JPG,AFNE01.JPG,,,,,5,3,53,5,,,,,,,,,,,,,,,,,,,AMNE15.jpg,AMNE14.jpg,AMSA07.jpg,AMSA11.jpg,AMNE14.jpg,MN,1,num_6,32,num_4,0.65014951257,,,2017_Aug_10_1636,60.0071020448,FEMA4ImagesEEG,001,101245,
AFNE01.JPG,AFNE01.JPG,AFNE01.JPG,AFNE01.JPG,AFNE01.JPG,AFNE01.JPG,,,,,5,4,54,7,,,,,,,,,,,,,,,,,,,AMNE08.jpg,AMSA19.jpg,AMNE09.jpg,AMSA02.jpg,AMNE09.jpg,MN,1,num_2,16,num_2,2.01665539294,,,2017_Aug_10_1636,60.0071020448,FEMA4ImagesEEG,001,101245,
AFNE01.JPG,AFNE01.JPG,AFNE01.JPG,AFNE01.JPG,AFNE01.JPG,AFNE01.JPG,,,,,5,5,55,4,,,,,,,,,,,,,,,,,,,AMNE13.jpg,AMNE09.jpg,AMSA10.jpg,AMSA08.jpg,AMNE09.jpg,MN,1,num_6,32,num_4,1.06662894739,,,2017_Aug_10_1636,60.0071020448,FEMA4ImagesEEG,001,101245,
AFNE01.JPG,AFNE01.JPG,AFNE01.JPG,AFNE01.JPG,AFNE01.JPG,AFNE01.JPG,,,,,5,6,56,8,,,,,,,,,,,,,,,,,,,AMNE09.jpg,AMNE07.jpg,AMSA11.jpg,AMSA10.jpg,AMNE07.jpg,MN,1,num_6,16,num_6,0.550161989871,,,2017_Aug_10_1636,60.0071020448,FEMA4ImagesEEG,001,101245,
AFNE01.JPG,AFNE01.JPG,AFNE01.JPG,AFNE01.JPG,AFNE01.JPG,AFNE01.JPG,,,,,5,7,57,0,,,,,,,,,,,,,,,,,,,AMSA02.jpg,AMNE05.jpg,AMSA20.jpg,AMNE04.jpg,AMNE05.jpg,MN,1,num_6,32,num_2,1.56675451715,,,2017_Aug_10_1636,60.0071020448,FEMA4ImagesEEG,001,101245,
AFNE01.JPG,AFNE01.JPG,AFNE01.JPG,AFNE01.JPG,AFNE01.JPG,AFNE01.JPG,,,,,5,8,58,9,,,,,,,,,,,,,,,,,,,AMSA17.jpg,AMNE14.jpg,AMNE12.jpg,AMSA04.jpg,AMSA04.jpg,MS,2,num_4,16,num_4,0.966753042303,,,2017_Aug_10_1636,60.0071020448,FEMA4ImagesEEG,001,101245,
AFNE01.JPG,AFNE01.JPG,AFNE01.JPG,AFNE01.JPG,AFNE01.JPG,AFNE01.JPG,,,,,5,9,59,3,,,,,,,,,,,,,,,,,,,AMNE16.jpg,AMSA06.jpg,AMSA12.jpg,AMNE19.jpg,AMSA06.jpg,MS,2,num_6,32,num_8,0.883554980624,,,2017_Aug_10_1636,60.0071020448,FEMA4ImagesEEG,001,101245,
,,,,,,,,,,,,,,,,,,,,,,,,,,,,,,,,,,,,,,,,,,,space,12.7158614649,2017_Aug_10_1636,60.0071020448,FEMA4ImagesEEG,001,101245,
AFNE01.JPG,AFNE01.JPG,AFNE01.JPG,AFNE01.JPG,AFNE01.JPG,AFNE01.JPG,,,,,,,,,0,0,0,0,,,,,,,,,,,,,,,AFSA08.jpg,AFNE20.jpg,AFSA11.jpg,AFNE01.jpg,AFNE20.jpg,FN,3,num_6,32,num_2,1.0501284725,,,2017_Aug_10_1636,60.0071020448,FEMA4ImagesEEG,001,101245,
AFNE01.JPG,AFNE01.JPG,AFNE01.JPG,AFNE01.JPG,AFNE01.JPG,AFNE01.JPG,,,,,,,,,0,1,1,2,,,,,,,,,,,,,,,AFSA04.jpg,AFNE19.jpg,AFSA02.jpg,AFNE12.jpg,AFSA02.jpg,FS,4,num_2,32,num_8,0.83342233859,,,2017_Aug_10_1636,60.0071020448,FEMA4ImagesEEG,001,101245,
AFNE01.JPG,AFNE01.JPG,AFNE01.JPG,AFNE01.JPG,AFNE01.JPG,AFNE01.JPG,,,,,,,,,0,2,2,5,,,,,,,,,,,,,,,AFNE19.jpg,AFNE16.jpg,AFSA09.jpg,AFSA17.jpg,AFSA17.jpg,FS,4,num_4,32,num_8,0.800140740816,,,2017_Aug_10_1636,60.0071020448,FEMA4ImagesEEG,001,101245,
AFNE01.JPG,AFNE01.JPG,AFNE01.JPG,AFNE01.JPG,AFNE01.JPG,AFNE01.JPG,,,,,,,,,0,3,3,1,,,,,,,,,,,,,,,AFNE04.jpg,AFNE10.jpg,AFSA16.jpg,AFSA12.jpg,AFNE10.jpg,FN,3,num_6,16,num_6,0.716760819778,,,2017_Aug_10_1636,60.0071020448,FEMA4ImagesEEG,001,101245,
AFNE01.JPG,AFNE01.JPG,AFNE01.JPG,AFNE01.JPG,AFNE01.JPG,AFNE01.JPG,,,,,,,,,0,4,4,8,,,,,,,,,,,,,,,AFNE15.jpg,AFSA08.jpg,AFNE14.jpg,AFSA01.jpg,AFNE15.jpg,FN,3,num_8,16,num_8,0.750133187044,,,2017_Aug_10_1636,60.0071020448,FEMA4ImagesEEG,001,101245,
AFNE01.JPG,AFNE01.JPG,AFNE01.JPG,AFNE01.JPG,AFNE01.JPG,AFNE01.JPG,,,,,,,,,0,5,5,7,,,,,,,,,,,,,,,AFSA16.jpg,AFSA13.jpg,AFNE15.jpg,AFNE10.jpg,AFSA13.jpg,FS,4,num_6,16,num_6,0.733357196208,,,2017_Aug_10_1636,60.0071020448,FEMA4ImagesEEG,001,101245,
AFNE01.JPG,AFNE01.JPG,AFNE01.JPG,AFNE01.JPG,AFNE01.JPG,AFNE01.JPG,,,,,,,,,0,6,6,4,,,,,,,,,,,,,,,AFSA14.jpg,AFNE16.jpg,AFSA18.jpg,AFNE11.jpg,AFNE16.jpg,FN,3,num_6,16,num_6,0.733465606347,,,2017_Aug_10_1636,60.0071020448,FEMA4ImagesEEG,001,101245,
AFNE01.JPG,AFNE01.JPG,AFNE01.JPG,AFNE01.JPG,AFNE01.JPG,AFNE01.JPG,,,,,,,,,0,7,7,3,,,,,,,,,,,,,,,AFNE04.jpg,AFNE06.jpg,AFSA16.jpg,AFSA10.jpg,AFSA10.jpg,FS,4,num_4,32,num_2,1.25009229314,,,2017_Aug_10_1636,60.0071020448,FEMA4ImagesEEG,001,101245,
AFNE01.JPG,AFNE01.JPG,AFNE01.JPG,AFNE01.JPG,AFNE01.JPG,AFNE01.JPG,,,,,,,,,0,8,8,6,,,,,,,,,,,,,,,AFSA03.jpg,AFNE17.jpg,AFSA12.jpg,AFNE19.jpg,AFSA03.jpg,FS,4,num_8,32,num_6,0.633314506151,,,2017_Aug_10_1636,60.0071020448,FEMA4ImagesEEG,001,101245,
AFNE01.JPG,AFNE01.JPG,AFNE01.JPG,AFNE01.JPG,AFNE01.JPG,AFNE01.JPG,,,,,,,,,0,9,9,9,,,,,,,,,,,,,,,AFSA20.jpg,AFNE08.jpg,AFSA16.jpg,AFNE19.jpg,AFNE08.jpg,FN,3,num_6,32,num_8,0.883444645908,,,2017_Aug_10_1636,60.0071020448,FEMA4ImagesEEG,001,101245,
AFNE01.JPG,AFNE01.JPG,AFNE01.JPG,AFNE01.JPG,AFNE01.JPG,AFNE01.JPG,,,,,,,,,1,0,10,2,,,,,,,,,,,,,,,AFNE15.jpg,AFSA12.jpg,AFSA18.jpg,AFNE06.jpg,AFNE15.jpg,FN,3,num_8,16,num_8,0.73346721055,,,2017_Aug_10_1636,60.0071020448,FEMA4ImagesEEG,001,101245,
AFNE01.JPG,AFNE01.JPG,AFNE01.JPG,AFNE01.JPG,AFNE01.JPG,AFNE01.JPG,,,,,,,,,1,1,11,8,,,,,,,,,,,,,,,AFNE12.jpg,AFNE20.jpg,AFSA19.jpg,AFSA06.jpg,AFSA19.jpg,FS,4,num_2,32,num_4,1.28340243688,,,2017_Aug_10_1636,60.0071020448,FEMA4ImagesEEG,001,101245,
AFNE01.JPG,AFNE01.JPG,AFNE01.JPG,AFNE01.JPG,AFNE01.JPG,AFNE01.JPG,,,,,,,,,1,2,12,3,,,,,,,,,,,,,,,AFNE02.jpg,AFSA14.jpg,AFNE09.jpg,AFSA10.jpg,AFSA10.jpg,FS,4,num_4,16,num_4,0.66674845526,,,2017_Aug_10_1636,60.0071020448,FEMA4ImagesEEG,001,101245,
AFNE01.JPG,AFNE01.JPG,AFNE01.JPG,AFNE01.JPG,AFNE01.JPG,AFNE01.JPG,,,,,,,,,1,3,13,0,,,,,,,,,,,,,,,AFNE07.jpg,AFSA09.jpg,AFSA15.jpg,AFNE17.jpg,AFNE17.jpg,FN,3,num_4,32,num_2,1.23342022207,,,2017_Aug_10_1636,60.0071020448,FEMA4ImagesEEG,001,101245,
AFNE01.JPG,AFNE01.JPG,AFNE01.JPG,AFNE01.JPG,AFNE01.JPG,AFNE01.JPG,,,,,,,,,1,4,14,9,,,,,,,,,,,,,,,AFNE16.jpg,AFNE05.jpg,AFSA02.jpg,AFSA08.jpg,AFSA02.jpg,FS,4,num_2,32,num_6,0.933116063941,,,2017_Aug_10_1636,60.0071020448,FEMA4ImagesEEG,001,101245,
AFNE01.JPG,AFNE01.JPG,AFNE01.JPG,AFNE01.JPG,AFNE01.JPG,AFNE01.JPG,,,,,,,,,1,5,15,7,,,,,,,,,,,,,,,AFNE09.jpg,AFSA17.jpg,AFNE12.jpg,AFSA02.jpg,AFNE09.jpg,FN,3,num_8,32,num_2,1.01678240579,,,2017_Aug_10_1636,60.0071020448,FEMA4ImagesEEG,001,101245,
AFNE01.JPG,AFNE01.JPG,AFNE01.JPG,AFNE01.JPG,AFNE01.JPG,AFNE01.JPG,,,,,,,,,1,6,16,4,,,,,,,,,,,,,,,AFSA11.jpg,AFNE11.jpg,AFSA10.jpg,AFNE12.jpg,AFNE11.jpg,FN,3,num_6,32,num_8,0.766812955961,,,2017_Aug_10_1636,60.0071020448,FEMA4ImagesEEG,001,101245,
AFNE01.JPG,AFNE01.JPG,AFNE01.JPG,AFNE01.JPG,AFNE01.JPG,AFNE01.JPG,,,,,,,,,1,7,17,6,,,,,,,,,,,,,,,AFNE13.jpg,AFSA09.jpg,AFSA20.jpg,AFNE05.jpg,AFNE13.jpg,FN,3,num_8,32,num_6,0.683464147151,,,2017_Aug_10_1636,60.0071020448,FEMA4ImagesEEG,001,101245,
AFNE01.JPG,AFNE01.JPG,AFNE01.JPG,AFNE01.JPG,AFNE01.JPG,AFNE01.JPG,,,,,,,,,1,8,18,1,,,,,,,,,,,,,,,AFNE19.jpg,AFSA07.jpg,AFSA17.jpg,AFNE05.jpg,AFSA17.jpg,FS,4,num_2,32,num_8,0.749992382713,,,2017_Aug_10_1636,60.0071020448,FEMA4ImagesEEG,001,101245,
AFNE01.JPG,AFNE01.JPG,AFNE01.JPG,AFNE01.JPG,AFNE01.JPG,AFNE01.JPG,,,,,,,,,1,9,19,5,,,,,,,,,,,,,,,AFSA03.jpg,AFNE11.jpg,AFSA13.jpg,AFNE15.jpg,AFSA03.jpg,FS,4,num_8,16,num_8,1.4833826148,,,2017_Aug_10_1636,60.0071020448,FEMA4ImagesEEG,001,101245,
AFNE01.JPG,AFNE01.JPG,AFNE01.JPG,AFNE01.JPG,AFNE01.JPG,AFNE01.JPG,,,,,,,,,2,0,20,5,,,,,,,,,,,,,,,AFSA02.jpg,AFSA16.jpg,AFNE05.jpg,AFNE16.jpg,AFNE05.jpg,FN,3,num_2,32,num_6,0.983809038997,,,2017_Aug_10_1636,60.0071020448,FEMA4ImagesEEG,001,101245,
AFNE01.JPG,AFNE01.JPG,AFNE01.JPG,AFNE01.JPG,AFNE01.JPG,AFNE01.JPG,,,,,,,,,2,1,21,1,,,,,,,,,,,,,,,AFSA18.jpg,AFSA16.jpg,AFNE17.jpg,AFNE14.jpg,AFSA18.jpg,FS,4,num_8,32,num_4,1.4000899354,,,2017_Aug_10_1636,60.0071020448,FEMA4ImagesEEG,001,101245,
AFNE01.JPG,AFNE01.JPG,AFNE01.JPG,AFNE01.JPG,AFNE01.JPG,AFNE01.JPG,,,,,,,,,2,2,22,3,,,,,,,,,,,,,,,AFSA16.jpg,AFNE14.jpg,AFNE01.jpg,AFSA11.jpg,AFSA11.jpg,FS,4,num_4,16,num_4,0.466831142083,,,2017_Aug_10_1636,60.0071020448,FEMA4ImagesEEG,001,101245,
AFNE01.JPG,AFNE01.JPG,AFNE01.JPG,AFNE01.JPG,AFNE01.JPG,AFNE01.JPG,,,,,,,,,2,3,23,8,,,,,,,,,,,,,,,AFSA09.jpg,AFSA08.jpg,AFNE19.jpg,AFNE05.jpg,AFSA08.jpg,FS,4,num_6,32,num_8,1.28341526631,,,2017_Aug_10_1636,60.0071020448,FEMA4ImagesEEG,001,101245,
AFNE01.JPG,AFNE01.JPG,AFNE01.JPG,AFNE01.JPG,AFNE01.JPG,AFNE01.JPG,,,,,,,,,2,4,24,9,,,,,,,,,,,,,,,AFNE09.jpg,AFSA11.jpg,AFNE14.jpg,AFSA12.jpg,AFNE14.jpg,FN,3,num_2,16,num_2,1.18341683783,,,2017_Aug_10_1636,60.0071020448,FEMA4ImagesEEG,001,101245,
AFNE01.JPG,AFNE01.JPG,AFNE01.JPG,AFNE01.JPG,AFNE01.JPG,AFNE01.JPG,,,,,,,,,2,5,25,7,,,,,,,,,,,,,,,AFNE02.jpg,AFNE17.jpg,AFSA06.jpg,AFSA07.jpg,AFNE02.jpg,FN,3,num_8,32,num_6,1.08310825378,,,2017_Aug_10_1636,60.0071020448,FEMA4ImagesEEG,001,101245,
AFNE01.JPG,AFNE01.JPG,AFNE01.JPG,AFNE01.JPG,AFNE01.JPG,AFNE01.JPG,,,,,,,,,2,6,26,4,,,,,,,,,,,,,,,AFNE16.jpg,AFSA06.jpg,AFNE13.jpg,AFSA12.jpg,AFSA12.jpg,FS,4,num_4,16,num_4,0.866850514896,,,2017_Aug_10_1636,60.0071020448,FEMA4ImagesEEG,001,101245,
AFNE01.JPG,AFNE01.JPG,AFNE01.JPG,AFNE01.JPG,AFNE01.JPG,AFNE01.JPG,,,,,,,,,2,7,27,0,,,,,,,,,,,,,,,AFSA14.jpg,AFNE18.jpg,AFNE04.jpg,AFSA05.jpg,AFNE18.jpg,FN,3,num_6,16,num_6,0.683473448735,,,2017_Aug_10_1636,60.0071020448,FEMA4ImagesEEG,001,101245,
AFNE01.JPG,AFNE01.JPG,AFNE01.JPG,AFNE01.JPG,AFNE01.JPG,AFNE01.JPG,,,,,,,,,2,8,28,2,,,,,,,,,,,,,,,AFNE19.jpg,AFNE17.jpg,AFSA19.jpg,AFSA10.jpg,AFSA10.jpg,FS,4,num_4,32,num_8,0.783459047321,,,2017_Aug_10_1636,60.0071020448,FEMA4ImagesEEG,001,101245,
AFNE01.JPG,AFNE01.JPG,AFNE01.JPG,AFNE01.JPG,AFNE01.JPG,AFNE01.JPG,,,,,,,,,2,9,29,6,,,,,,,,,,,,,,,AFNE12.jpg,AFSA16.jpg,AFNE20.jpg,AFSA07.jpg,AFSA07.jpg,FS,4,num_4,32,num_6,0.950106950477,,,2017_Aug_10_1636,60.0071020448,FEMA4ImagesEEG,001,101245,
AFNE01.JPG,AFNE01.JPG,AFNE01.JPG,AFNE01.JPG,AFNE01.JPG,AFNE01.JPG,,,,,,,,,3,0,30,7,,,,,,,,,,,,,,,AFSA01.jpg,AFNE08.jpg,AFNE13.jpg,AFSA06.jpg,AFNE13.jpg,FN,3,num_2,32,num_6,1.01673557749,,,2017_Aug_10_1636,60.0071020448,FEMA4ImagesEEG,001,101245,
AFNE01.JPG,AFNE01.JPG,AFNE01.JPG,AFNE01.JPG,AFNE01.JPG,AFNE01.JPG,,,,,,,,,3,1,31,9,,,,,,,,,,,,,,,AFNE14.jpg,AFNE05.jpg,AFSA05.jpg,AFSA10.jpg,AFSA05.jpg,FS,4,num_2,16,num_2,1.01673686085,,,2017_Aug_10_1636,60.0071020448,FEMA4ImagesEEG,001,101245,
AFNE01.JPG,AFNE01.JPG,AFNE01.JPG,AFNE01.JPG,AFNE01.JPG,AFNE01.JPG,,,,,,,,,3,2,32,2,,,,,,,,,,,,,,,AFSA13.jpg,AFNE11.jpg,AFSA08.jpg,AFNE04.jpg,AFSA08.jpg,FS,4,num_2,32,num_8,0.966763626318,,,2017_Aug_10_1636,60.0071020448,FEMA4ImagesEEG,001,101245,
AFNE01.JPG,AFNE01.JPG,AFNE01.JPG,AFNE01.JPG,AFNE01.JPG,AFNE01.JPG,,,,,,,,,3,3,33,4,,,,,,,,,,,,,,,AFNE13.jpg,AFSA05.jpg,AFNE18.jpg,AFSA04.jpg,AFSA04.jpg,FS,4,num_4,32,num_2,1.03352247365,,,2017_Aug_10_1636,60.0071020448,FEMA4ImagesEEG,001,101245,
AFNE01.JPG,AFNE01.JPG,AFNE01.JPG,AFNE01.JPG,AFNE01.JPG,AFNE01.JPG,,,,,,,,,3,4,34,3,,,,,,,,,,,,,,,AFSA11.jpg,AFNE11.jpg,AFSA06.jpg,AFNE15.jpg,AFNE11.jpg,FN,3,num_6,16,num_6,0.866747236811,,,2017_Aug_10_1636,60.0071020448,FEMA4ImagesEEG,001,101245,
AFNE01.JPG,AFNE01.JPG,AFNE01.JPG,AFNE01.JPG,AFNE01.JPG,AFNE01.JPG,,,,,,,,,3,5,35,8,,,,,,,,,,,,,,,AFSA13.jpg,AFSA04.jpg,AFNE13.jpg,AFNE08.jpg,AFNE08.jpg,FN,3,num_4,16,num_4,0.81678298302,,,2017_Aug_10_1636,60.0071020448,FEMA4ImagesEEG,001,101245,
AFNE01.JPG,AFNE01.JPG,AFNE01.JPG,AFNE01.JPG,AFNE01.JPG,AFNE01.JPG,,,,,,,,,3,6,36,5,,,,,,,,,,,,,,,AFSA03.jpg,AFSA14.jpg,AFNE17.jpg,AFNE03.jpg,AFNE17.jpg,FN,3,num_2,32,num_4,0.750217542052,,,2017_Aug_10_1636,60.0071020448,FEMA4ImagesEEG,001,101245,
AFNE01.JPG,AFNE01.JPG,AFNE01.JPG,AFNE01.JPG,AFNE01.JPG,AFNE01.JPG,,,,,,,,,3,7,37,0,,,,,,,,,,,,,,,AFNE13.jpg,AFSA03.jpg,AFNE14.jpg,AFSA16.jpg,AFNE13.jpg,FN,3,num_8,16,num_8,0.966794096399,,,2017_Aug_10_1636,60.0071020448,FEMA4ImagesEEG,001,101245,
AFNE01.JPG,AFNE01.JPG,AFNE01.JPG,AFNE01.JPG,AFNE01.JPG,AFNE01.JPG,,,,,,,,,3,8,38,1,,,,,,,,,,,,,,,AFSA06.jpg,AFNE18.jpg,AFSA16.jpg,AFNE09.jpg,AFNE18.jpg,FN,3,num_6,16,num_6,1.60013329936,,,2017_Aug_10_1636,60.0071020448,FEMA4ImagesEEG,001,101245,
AFNE01.JPG,AFNE01.JPG,AFNE01.JPG,AFNE01.JPG,AFNE01.JPG,AFNE01.JPG,,,,,,,,,3,9,39,6,,,,,,,,,,,,,,,AFNE13.jpg,AFSA04.jpg,AFNE10.jpg,AFSA13.jpg,AFSA04.jpg,FS,4,num_6,16,num_6,1.00011835294,,,2017_Aug_10_1636,60.0071020448,FEMA4ImagesEEG,001,101245,
AFNE01.JPG,AFNE01.JPG,AFNE01.JPG,AFNE01.JPG,AFNE01.JPG,AFNE01.JPG,,,,,,,,,4,0,40,8,,,,,,,,,,,,,,,AFNE10.jpg,AFSA07.jpg,AFNE09.jpg,AFSA01.jpg,AFSA07.jpg,FS,4,num_6,16,num_6,0.866750764661,,,2017_Aug_10_1636,60.0071020448,FEMA4ImagesEEG,001,101245,
AFNE01.JPG,AFNE01.JPG,AFNE01.JPG,AFNE01.JPG,AFNE01.JPG,AFNE01.JPG,,,,,,,,,4,1,41,3,,,,,,,,,,,,,,,AFSA20.jpg,AFSA15.jpg,AFNE11.jpg,AFNE13.jpg,AFNE11.jpg,FN,3,num_2,16,num_2,1.95003863331,,,2017_Aug_10_1636,60.0071020448,FEMA4ImagesEEG,001,101245,
AFNE01.JPG,AFNE01.JPG,AFNE01.JPG,AFNE01.JPG,AFNE01.JPG,AFNE01.JPG,,,,,,,,,4,2,42,1,,,,,,,,,,,,,,,AFNE04.jpg,AFNE20.jpg,AFSA06.jpg,AFSA03.jpg,AFSA06.jpg,FS,4,num_2,32,num_4,1.11672662897,,,2017_Aug_10_1636,60.0071020448,FEMA4ImagesEEG,001,101245,
AFNE01.JPG,AFNE01.JPG,AFNE01.JPG,AFNE01.JPG,AFNE01.JPG,AFNE01.JPG,,,,,,,,,4,3,43,4,,,,,,,,,,,,,,,AFNE04.jpg,AFSA18.jpg,AFSA12.jpg,AFNE19.jpg,AFSA18.jpg,FS,4,num_6,32,num_8,0.783512290101,,,2017_Aug_10_1636,60.0071020448,FEMA4ImagesEEG,001,101245,
AFNE01.JPG,AFNE01.JPG,AFNE01.JPG,AFNE01.JPG,AFNE01.JPG,AFNE01.JPG,,,,,,,,,4,4,44,2,,,,,,,,,,,,,,,AFNE12.jpg,AFNE14.jpg,AFSA13.jpg,AFSA07.jpg,AFSA07.jpg,FS,4,num_4,32,num_6,0.600138752256,,,2017_Aug_10_1636,60.0071020448,FEMA4ImagesEEG,001,101245,
AFNE01.JPG,AFNE01.JPG,AFNE01.JPG,AFNE01.JPG,AFNE01.JPG,AFNE01.JPG,,,,,,,,,4,5,45,5,,,,,,,,,,,,,,,AFSA07.jpg,AFNE09.jpg,AFSA14.jpg,AFNE08.jpg,AFSA14.jpg,FS,4,num_2,16,num_2,1.31657466246,,,2017_Aug_10_1636,60.0071020448,FEMA4ImagesEEG,001,101245,
AFNE01.JPG,AFNE01.JPG,AFNE01.JPG,AFNE01.JPG,AFNE01.JPG,AFNE01.JPG,,,,,,,,,4,6,46,0,,,,,,,,,,,,,,,AFNE12.jpg,AFSA04.jpg,AFNE11.jpg,AFSA13.jpg,AFNE11.jpg,FN,3,num_2,16,num_2,0.783629039768,,,2017_Aug_10_1636,60.0071020448,FEMA4ImagesEEG,001,101245,
AFNE01.JPG,AFNE01.JPG,AFNE01.JPG,AFNE01.JPG,AFNE01.JPG,AFNE01.JPG,,,,,,,,,4,7,47,7,,,,,,,,,,,,,,,AFNE11.jpg,AFSA20.jpg,AFNE15.jpg,AFSA08.jpg,AFNE15.jpg,FN,3,num_2,32,num_6,0.650108778849,,,2017_Aug_10_1636,60.0071020448,FEMA4ImagesEEG,001,101245,
AFNE01.JPG,AFNE01.JPG,AFNE01.JPG,AFNE01.JPG,AFNE01.JPG,AFNE01.JPG,,,,,,,,,4,8,48,9,,,,,,,,,,,,,,,AFNE19.jpg,AFSA19.jpg,AFNE20.jpg,AFSA02.jpg,AFNE19.jpg,FN,3,num_8,16,num_8,0.800138816237,,,2017_Aug_10_1636,60.0071020448,FEMA4ImagesEEG,001,101245,
AFNE01.JPG,AFNE01.JPG,AFNE01.JPG,AFNE01.JPG,AFNE01.JPG,AFNE01.JPG,,,,,,,,,4,9,49,6,,,,,,,,,,,,,,,AFNE12.jpg,AFSA02.jpg,AFNE19.jpg,AFSA12.jpg,AFNE19.jpg,FN,3,num_2,16,num_2,0.716768517625,,,2017_Aug_10_1636,60.0071020448,FEMA4ImagesEEG,001,101245,
AFNE01.JPG,AFNE01.JPG,AFNE01.JPG,AFNE01.JPG,AFNE01.JPG,AFNE01.JPG,,,,,,,,,5,0,50,0,,,,,,,,,,,,,,,AFNE02.jpg,AFNE16.jpg,AFSA01.jpg,AFSA14.jpg,AFSA01.jpg,FS,4,num_2,32,num_4,1.0501082656,,,2017_Aug_10_1636,60.0071020448,FEMA4ImagesEEG,001,101245,
AFNE01.JPG,AFNE01.JPG,AFNE01.JPG,AFNE01.JPG,AFNE01.JPG,AFNE01.JPG,,,,,,,,,5,1,51,7,,,,,,,,,,,,,,,AFSA18.jpg,AFNE06.jpg,AFNE04.jpg,AFSA17.jpg,AFSA17.jpg,FS,4,num_4,16,num_4,1.13340094546,,,2017_Aug_10_1636,60.0071020448,FEMA4ImagesEEG,001,101245,
AFNE01.JPG,AFNE01.JPG,AFNE01.JPG,AFNE01.JPG,AFNE01.JPG,AFNE01.JPG,,,,,,,,,5,2,52,3,,,,,,,,,,,,,,,AFSA16.jpg,AFNE18.jpg,AFNE07.jpg,AFSA19.jpg,AFNE18.jpg,FN,3,num_6,32,num_8,1.28348390479,,,2017_Aug_10_1636,60.0071020448,FEMA4ImagesEEG,001,101245,
AFNE01.JPG,AFNE01.JPG,AFNE01.JPG,AFNE01.JPG,AFNE01.JPG,AFNE01.JPG,,,,,,,,,5,3,53,5,,,,,,,,,,,,,,,AFNE19.jpg,AFNE12.jpg,AFSA14.jpg,AFSA17.jpg,AFSA17.jpg,FS,4,num_4,16,num_4,1.08347293548,,,2017_Aug_10_1636,60.0071020448,FEMA4ImagesEEG,001,101245,
AFNE01.JPG,AFNE01.JPG,AFNE01.JPG,AFNE01.JPG,AFNE01.JPG,AFNE01.JPG,,,,,,,,,5,4,54,8,,,,,,,,,,,,,,,AFNE12.jpg,AFSA04.jpg,AFNE06.jpg,AFSA14.jpg,AFNE06.jpg,FN,3,num_2,32,num_8,1.35010707891,,,2017_Aug_10_1636,60.0071020448,FEMA4ImagesEEG,001,101245,
AFNE01.JPG,AFNE01.JPG,AFNE01.JPG,AFNE01.JPG,AFNE01.JPG,AFNE01.JPG,,,,,,,,,5,5,55,2,,,,,,,,,,,,,,,AFNE16.jpg,AFSA18.jpg,AFNE13.jpg,AFSA11.jpg,AFSA18.jpg,FS,4,num_6,16,num_6,0.933478500228,,,2017_Aug_10_1636,60.0071020448,FEMA4ImagesEEG,001,101245,
AFNE01.JPG,AFNE01.JPG,AFNE01.JPG,AFNE01.JPG,AFNE01.JPG,AFNE01.JPG,,,,,,,,,5,6,56,9,,,,,,,,,,,,,,,AFNE01.jpg,AFNE02.jpg,AFSA09.jpg,AFSA07.jpg,AFNE02.jpg,FN,3,num_6,16,num_6,1.64991729707,,,2017_Aug_10_1636,60.0071020448,FEMA4ImagesEEG,001,101245,
AFNE01.JPG,AFNE01.JPG,AFNE01.JPG,AFNE01.JPG,AFNE01.JPG,AFNE01.JPG,,,,,,,,,5,7,57,6,,,,,,,,,,,,,,,AFNE20.jpg,AFSA06.jpg,AFSA04.jpg,AFNE12.jpg,AFSA04.jpg,FS,4,num_2,16,num_2,1.05011275597,,,2017_Aug_10_1636,60.0071020448,FEMA4ImagesEEG,001,101245,
AFNE01.JPG,AFNE01.JPG,AFNE01.JPG,AFNE01.JPG,AFNE01.JPG,AFNE01.JPG,,,,,,,,,5,8,58,1,,,,,,,,,,,,,,,AFNE09.jpg,AFSA08.jpg,AFNE20.jpg,AFSA02.jpg,AFNE09.jpg,FN,3,num_8,16,num_8,0.749792881776,,,2017_Aug_10_1636,60.0071020448,FEMA4ImagesEEG,001,101245,
AFNE01.JPG,AFNE01.JPG,AFNE01.JPG,AFNE01.JPG,AFNE01.JPG,AFNE01.JPG,,,,,,,,,5,9,59,4,,,,,,,,,,,,,,,AFNE06.jpg,AFSA07.jpg,AFNE01.jpg,AFSA16.jpg,AFSA16.jpg,FS,4,num_4,16,num_4,1.16677299235,,,2017_Aug_10_1636,60.0071020448,FEMA4ImagesEEG,001,101245,
,,,,,,,,,,,,,,,,,,,,,,,,,,,,,,,,,,,,,,,,,,,space,6.66621891316,2017_Aug_10_1636,60.0071020448,FEMA4ImagesEEG,001,101245,
AFNE01.JPG,AFNE01.JPG,AFNE01.JPG,AFNE01.JPG,AFNE01.JPG,AFNE01.JPG,,,,,,,,,,,,,0,0,0,9,,,,,,,,,,,AMSA20.jpg,AMSA15.jpg,AMNE03.jpg,AMNE14.jpg,AMSA15.jpg,MS,2,num_6,16,num_6,0.550137934275,,,2017_Aug_10_1636,60.0071020448,FEMA4ImagesEEG,001,101245,
AFNE01.JPG,AFNE01.JPG,AFNE01.JPG,AFNE01.JPG,AFNE01.JPG,AFNE01.JPG,,,,,,,,,,,,,0,1,1,2,,,,,,,,,,,AMSA20.jpg,AMNE04.jpg,AMNE10.jpg,AMSA18.jpg,AMNE04.jpg,MN,1,num_6,32,num_4,0.800139778759,,,2017_Aug_10_1636,60.0071020448,FEMA4ImagesEEG,001,101245,
AFNE01.JPG,AFNE01.JPG,AFNE01.JPG,AFNE01.JPG,AFNE01.JPG,AFNE01.JPG,,,,,,,,,,,,,0,2,2,5,,,,,,,,,,,AMSA19.jpg,AMNE03.jpg,AMNE04.jpg,AMSA02.jpg,AMSA02.jpg,MS,2,num_4,16,num_4,0.650017688982,,,2017_Aug_10_1636,60.0071020448,FEMA4ImagesEEG,001,101245,
AFNE01.JPG,AFNE01.JPG,AFNE01.JPG,AFNE01.JPG,AFNE01.JPG,AFNE01.JPG,,,,,,,,,,,,,0,3,3,0,,,,,,,,,,,AMNE20.jpg,AMNE13.jpg,AMSA16.jpg,AMSA10.jpg,AMSA16.jpg,MS,2,num_2,16,num_2,1.08350821678,,,2017_Aug_10_1636,60.0071020448,FEMA4ImagesEEG,001,101245,
AFNE01.JPG,AFNE01.JPG,AFNE01.JPG,AFNE01.JPG,AFNE01.JPG,AFNE01.JPG,,,,,,,,,,,,,0,4,4,3,,,,,,,,,,,AMNE17.jpg,AMNE09.jpg,AMSA14.jpg,AMSA12.jpg,AMNE09.jpg,MN,1,num_6,16,num_6,0.716777177528,,,2017_Aug_10_1636,60.0071020448,FEMA4ImagesEEG,001,101245,
AFNE01.JPG,AFNE01.JPG,AFNE01.JPG,AFNE01.JPG,AFNE01.JPG,AFNE01.JPG,,,,,,,,,,,,,0,5,5,8,,,,,,,,,,,AMNE19.jpg,AMNE14.jpg,AMSA07.jpg,AMSA09.jpg,AMNE19.jpg,MN,1,num_8,32,num_4,0.966739891563,,,2017_Aug_10_1636,60.0071020448,FEMA4ImagesEEG,001,101245,
AFNE01.JPG,AFNE01.JPG,AFNE01.JPG,AFNE01.JPG,AFNE01.JPG,AFNE01.JPG,,,,,,,,,,,,,0,6,6,1,,,,,,,,,,,AMSA13.jpg,AMNE09.jpg,AMSA20.jpg,AMNE03.jpg,AMNE03.jpg,MN,1,num_4,16,num_4,0.816748022567,,,2017_Aug_10_1636,60.0071020448,FEMA4ImagesEEG,001,101245,
AFNE01.JPG,AFNE01.JPG,AFNE01.JPG,AFNE01.JPG,AFNE01.JPG,AFNE01.JPG,,,,,,,,,,,,,0,7,7,6,,,,,,,,,,,AMNE08.jpg,AMSA18.jpg,AMNE09.jpg,AMSA12.jpg,AMNE09.jpg,MN,1,num_2,16,num_2,1.10008983919,,,2017_Aug_10_1636,60.0071020448,FEMA4ImagesEEG,001,101245,
AFNE01.JPG,AFNE01.JPG,AFNE01.JPG,AFNE01.JPG,AFNE01.JPG,AFNE01.JPG,,,,,,,,,,,,,0,8,8,7,,,,,,,,,,,AMSA11.jpg,AMNE07.jpg,AMNE14.jpg,AMSA18.jpg,AMSA11.jpg,MS,2,num_8,32,num_6,1.51640601736,,,2017_Aug_10_1636,60.0071020448,FEMA4ImagesEEG,001,101245,
AFNE01.JPG,AFNE01.JPG,AFNE01.JPG,AFNE01.JPG,AFNE01.JPG,AFNE01.JPG,,,,,,,,,,,,,0,9,9,4,,,,,,,,,,,AMSA19.jpg,AMNE05.jpg,AMNE01.jpg,AMSA10.jpg,AMSA19.jpg,MS,2,num_8,32,num_2,1.61685123667,,,2017_Aug_10_1636,60.0071020448,FEMA4ImagesEEG,001,101245,
AFNE01.JPG,AFNE01.JPG,AFNE01.JPG,AFNE01.JPG,AFNE01.JPG,AFNE01.JPG,,,,,,,,,,,,,1,0,10,6,,,,,,,,,,,AMSA02.jpg,AMNE16.jpg,AMNE19.jpg,AMSA16.jpg,AMSA02.jpg,MS,2,num_8,16,num_8,0.916782374028,,,2017_Aug_10_1636,60.0071020448,FEMA4ImagesEEG,001,101245,
AFNE01.JPG,AFNE01.JPG,AFNE01.JPG,AFNE01.JPG,AFNE01.JPG,AFNE01.JPG,,,,,,,,,,,,,1,1,11,1,,,,,,,,,,,AMSA02.jpg,AMSA12.jpg,AMNE07.jpg,AMNE03.jpg,AMSA02.jpg,MS,2,num_8,16,num_8,0.76677222224,,,2017_Aug_10_1636,60.0071020448,FEMA4ImagesEEG,001,101245,
AFNE01.JPG,AFNE01.JPG,AFNE01.JPG,AFNE01.JPG,AFNE01.JPG,AFNE01.JPG,,,,,,,,,,,,,1,2,12,0,,,,,,,,,,,AMNE11.jpg,AMNE03.jpg,AMSA09.jpg,AMSA12.jpg,AMNE11.jpg,MN,1,num_8,16,num_8,0.666755832266,,,2017_Aug_10_1636,60.0071020448,FEMA4ImagesEEG,001,101245,
AFNE01.JPG,AFNE01.JPG,AFNE01.JPG,AFNE01.JPG,AFNE01.JPG,AFNE01.JPG,,,,,,,,,,,,,1,3,13,5,,,,,,,,,,,AMNE15.jpg,AMSA02.jpg,AMNE06.jpg,AMSA05.jpg,AMNE15.jpg,MN,1,num_8,32,num_6,1.01673718169,,,2017_Aug_10_1636,60.0071020448,FEMA4ImagesEEG,001,101245,
AFNE01.JPG,AFNE01.JPG,AFNE01.JPG,AFNE01.JPG,AFNE01.JPG,AFNE01.JPG,,,,,,,,,,,,,1,4,14,8,,,,,,,,,,,AMNE14.jpg,AMSA17.jpg,AMSA15.jpg,AMNE03.jpg,AMSA15.jpg,MS,2,num_2,16,num_2,1.05007170141,,,2017_Aug_10_1636,60.0071020448,FEMA4ImagesEEG,001,101245,
AFNE01.JPG,AFNE01.JPG,AFNE01.JPG,AFNE01.JPG,AFNE01.JPG,AFNE01.JPG,,,,,,,,,,,,,1,5,15,2,,,,,,,,,,,AMNE17.jpg,AMSA12.jpg,AMSA05.jpg,AMNE10.jpg,AMNE10.jpg,MN,1,num_4,32,num_6,0.866762952879,,,2017_Aug_10_1636,60.0071020448,FEMA4ImagesEEG,001,101245,
AFNE01.JPG,AFNE01.JPG,AFNE01.JPG,AFNE01.JPG,AFNE01.JPG,AFNE01.JPG,,,,,,,,,,,,,1,6,16,4,,,,,,,,,,,AMNE09.jpg,AMSA09.jpg,AMSA17.jpg,AMNE13.jpg,AMSA09.jpg,MS,2,num_6,32,num_4,0.733448928222,,,2017_Aug_10_1636,60.0071020448,FEMA4ImagesEEG,001,101245,
AFNE01.JPG,AFNE01.JPG,AFNE01.JPG,AFNE01.JPG,AFNE01.JPG,AFNE01.JPG,,,,,,,,,,,,,1,7,17,9,,,,,,,,,,,AMSA15.jpg,AMNE07.jpg,AMNE09.jpg,AMSA02.jpg,AMNE07.jpg,MN,1,num_6,16,num_6,0.633459480479,,,2017_Aug_10_1636,60.0071020448,FEMA4ImagesEEG,001,101245,
AFNE01.JPG,AFNE01.JPG,AFNE01.JPG,AFNE01.JPG,AFNE01.JPG,AFNE01.JPG,,,,,,,,,,,,,1,8,18,7,,,,,,,,,,,AMSA20.jpg,AMSA03.jpg,AMNE10.jpg,AMNE18.jpg,AMNE18.jpg,MN,1,num_4,16,num_4,1.23340418516,,,2017_Aug_10_1636,60.0071020448,FEMA4ImagesEEG,001,101245,
AFNE01.JPG,AFNE01.JPG,AFNE01.JPG,AFNE01.JPG,AFNE01.JPG,AFNE01.JPG,,,,,,,,,,,,,1,9,19,3,,,,,,,,,,,AMSA20.jpg,AMSA10.jpg,AMNE01.jpg,AMNE07.jpg,AMNE07.jpg,MN,1,num_4,16,num_4,1.03310454916,,,2017_Aug_10_1636,60.0071020448,FEMA4ImagesEEG,001,101245,
AFNE01.JPG,AFNE01.JPG,AFNE01.JPG,AFNE01.JPG,AFNE01.JPG,AFNE01.JPG,,,,,,,,,,,,,2,0,20,3,,,,,,,,,,,AMNE13.jpg,AMNE12.jpg,AMSA19.jpg,AMSA05.jpg,AMSA05.jpg,MS,2,num_4,16,num_4,1.18343191268,,,2017_Aug_10_1636,60.0071020448,FEMA4ImagesEEG,001,101245,
AFNE01.JPG,AFNE01.JPG,AFNE01.JPG,AFNE01.JPG,AFNE01.JPG,AFNE01.JPG,,,,,,,,,,,,,2,1,21,4,,,,,,,,,,,AMNE11.jpg,AMSA19.jpg,AMSA05.jpg,AMNE14.jpg,AMNE14.jpg,MN,1,num_4,32,num_6,1.13345386786,,,2017_Aug_10_1636,60.0071020448,FEMA4ImagesEEG,001,101245,
AFNE01.JPG,AFNE01.JPG,AFNE01.JPG,AFNE01.JPG,AFNE01.JPG,AFNE01.JPG,,,,,,,,,,,,,2,2,22,1,,,,,,,,,,,AMSA09.jpg,AMNE06.jpg,AMSA18.jpg,AMNE13.jpg,AMSA09.jpg,MS,2,num_8,32,num_2,1.33372431528,,,2017_Aug_10_1636,60.0071020448,FEMA4ImagesEEG,001,101245,
AFNE01.JPG,AFNE01.JPG,AFNE01.JPG,AFNE01.JPG,AFNE01.JPG,AFNE01.JPG,,,,,,,,,,,,,2,3,23,5,,,,,,,,,,,AMNE15.jpg,AMSA04.jpg,AMSA06.jpg,AMNE01.jpg,AMSA04.jpg,MS,2,num_6,32,num_2,1.10011004563,,,2017_Aug_10_1636,60.0071020448,FEMA4ImagesEEG,001,101245,
AFNE01.JPG,AFNE01.JPG,AFNE01.JPG,AFNE01.JPG,AFNE01.JPG,AFNE01.JPG,,,,,,,,,,,,,2,4,24,7,,,,,,,,,,,AMNE01.jpg,AMSA04.jpg,AMNE07.jpg,AMSA14.jpg,AMSA14.jpg,MS,2,num_4,16,num_4,0.633834746201,,,2017_Aug_10_1636,60.0071020448,FEMA4ImagesEEG,001,101245,
AFNE01.JPG,AFNE01.JPG,AFNE01.JPG,AFNE01.JPG,AFNE01.JPG,AFNE01.JPG,,,,,,,,,,,,,2,5,25,9,,,,,,,,,,,AMSA14.jpg,AMNE04.jpg,AMNE19.jpg,AMSA19.jpg,AMSA14.jpg,MS,2,num_8,16,num_8,0.416838984005,,,2017_Aug_10_1636,60.0071020448,FEMA4ImagesEEG,001,101245,
AFNE01.JPG,AFNE01.JPG,AFNE01.JPG,AFNE01.JPG,AFNE01.JPG,AFNE01.JPG,,,,,,,,,,,,,2,6,26,8,,,,,,,,,,,AMNE19.jpg,AMNE05.jpg,AMSA01.jpg,AMSA14.jpg,AMSA14.jpg,MS,2,num_4,16,num_4,0.600130091887,,,2017_Aug_10_1636,60.0071020448,FEMA4ImagesEEG,001,101245,
AFNE01.JPG,AFNE01.JPG,AFNE01.JPG,AFNE01.JPG,AFNE01.JPG,AFNE01.JPG,,,,,,,,,,,,,2,7,27,6,,,,,,,,,,,AMSA05.jpg,AMSA06.jpg,AMNE15.jpg,AMNE17.jpg,AMNE17.jpg,MN,1,num_4,16,num_4,0.833443507552,,,2017_Aug_10_1636,60.0071020448,FEMA4ImagesEEG,001,101245,
AFNE01.JPG,AFNE01.JPG,AFNE01.JPG,AFNE01.JPG,AFNE01.JPG,AFNE01.JPG,,,,,,,,,,,,,2,8,28,0,,,,,,,,,,,AMSA01.jpg,AMNE08.jpg,AMNE15.jpg,AMSA05.jpg,AMNE08.jpg,MN,1,num_6,32,num_2,1.26669572573,,,2017_Aug_10_1636,60.0071020448,FEMA4ImagesEEG,001,101245,
AFNE01.JPG,AFNE01.JPG,AFNE01.JPG,AFNE01.JPG,AFNE01.JPG,AFNE01.JPG,,,,,,,,,,,,,2,9,29,2,,,,,,,,,,,AMSA01.jpg,AMSA10.jpg,AMNE19.jpg,AMNE12.jpg,AMSA10.jpg,MS,2,num_6,16,num_6,0.833441262133,,,2017_Aug_10_1636,60.0071020448,FEMA4ImagesEEG,001,101245,
AFNE01.JPG,AFNE01.JPG,AFNE01.JPG,AFNE01.JPG,AFNE01.JPG,AFNE01.JPG,,,,,,,,,,,,,3,0,30,0,,,,,,,,,,,AMNE19.jpg,AMSA03.jpg,AMNE12.jpg,AMSA07.jpg,AMSA07.jpg,MS,2,num_4,16,num_4,0.716794818174,,,2017_Aug_10_1636,60.0071020448,FEMA4ImagesEEG,001,101245,
AFNE01.JPG,AFNE01.JPG,AFNE01.JPG,AFNE01.JPG,AFNE01.JPG,AFNE01.JPG,,,,,,,,,,,,,3,1,31,9,,,,,,,,,,,AMNE01.jpg,AMSA03.jpg,AMNE17.jpg,AMSA04.jpg,AMSA03.jpg,MS,2,num_6,32,num_4,0.966544881929,,,2017_Aug_10_1636,60.0071020448,FEMA4ImagesEEG,001,101245,
AFNE01.JPG,AFNE01.JPG,AFNE01.JPG,AFNE01.JPG,AFNE01.JPG,AFNE01.JPG,,,,,,,,,,,,,3,2,32,2,,,,,,,,,,,AMSA17.jpg,AMNE09.jpg,AMSA15.jpg,AMNE19.jpg,AMNE19.jpg,MN,1,num_4,32,num_2,1.23344812635,,,2017_Aug_10_1636,60.0071020448,FEMA4ImagesEEG,001,101245,
AFNE01.JPG,AFNE01.JPG,AFNE01.JPG,AFNE01.JPG,AFNE01.JPG,AFNE01.JPG,,,,,,,,,,,,,3,3,33,6,,,,,,,,,,,AMNE07.jpg,AMNE09.jpg,AMSA15.jpg,AMSA07.jpg,AMSA07.jpg,MS,2,num_4,32,num_8,0.800098723732,,,2017_Aug_10_1636,60.0071020448,FEMA4ImagesEEG,001,101245,
AFNE01.JPG,AFNE01.JPG,AFNE01.JPG,AFNE01.JPG,AFNE01.JPG,AFNE01.JPG,,,,,,,,,,,,,3,4,34,3,,,,,,,,,,,AMSA16.jpg,AMNE06.jpg,AMSA19.jpg,AMNE13.jpg,AMNE06.jpg,MN,1,num_6,32,num_2,1.03342015762,,,2017_Aug_10_1636,60.0071020448,FEMA4ImagesEEG,001,101245,
AFNE01.JPG,AFNE01.JPG,AFNE01.JPG,AFNE01.JPG,AFNE01.JPG,AFNE01.JPG,,,,,,,,,,,,,3,5,35,7,,,,,,,,,,,AMNE18.jpg,AMSA10.jpg,AMSA11.jpg,AMNE19.jpg,AMSA10.jpg,MS,2,num_6,32,num_2,1.38342588302,,,2017_Aug_10_1636,60.0071020448,FEMA4ImagesEEG,001,101245,
AFNE01.JPG,AFNE01.JPG,AFNE01.JPG,AFNE01.JPG,AFNE01.JPG,AFNE01.JPG,,,,,,,,,,,,,3,6,36,4,,,,,,,,,,,AMNE07.jpg,AMNE10.jpg,AMSA10.jpg,AMSA13.jpg,AMSA13.jpg,MS,2,num_4,16,num_4,1.33343532868,,,2017_Aug_10_1636,60.0071020448,FEMA4ImagesEEG,001,101245,
AFNE01.JPG,AFNE01.JPG,AFNE01.JPG,AFNE01.JPG,AFNE01.JPG,AFNE01.JPG,,,,,,,,,,,,,3,7,37,8,,,,,,,,,,,AMSA09.jpg,AMSA20.jpg,AMNE10.jpg,AMNE17.jpg,AMNE17.jpg,MN,1,num_4,32,num_6,1.33347125165,,,2017_Aug_10_1636,60.0071020448,FEMA4ImagesEEG,001,101245,
AFNE01.JPG,AFNE01.JPG,AFNE01.JPG,AFNE01.JPG,AFNE01.JPG,AFNE01.JPG,,,,,,,,,,,,,3,8,38,1,,,,,,,,,,,AMSA10.jpg,AMNE10.jpg,AMSA02.jpg,AMNE18.jpg,AMNE18.jpg,MN,1,num_4,32,num_2,1.80005478254,,,2017_Aug_10_1636,60.0071020448,FEMA4ImagesEEG,001,101245,
AFNE01.JPG,AFNE01.JPG,AFNE01.JPG,AFNE01.JPG,AFNE01.JPG,AFNE01.JPG,,,,,,,,,,,,,3,9,39,5,,,,,,,,,,,AMNE06.jpg,AMNE14.jpg,AMSA18.jpg,AMSA02.jpg,AMSA02.jpg,MS,2,num_4,16,num_4,1.13345290534,,,2017_Aug_10_1636,60.0071020448,FEMA4ImagesEEG,001,101245,
AFNE01.JPG,AFNE01.JPG,AFNE01.JPG,AFNE01.JPG,AFNE01.JPG,AFNE01.JPG,,,,,,,,,,,,,4,0,40,1,,,,,,,,,,,AMNE06.jpg,AMSA12.jpg,AMNE02.jpg,AMSA11.jpg,AMSA11.jpg,MS,2,num_4,32,num_8,0.716755687725,,,2017_Aug_10_1636,60.0071020448,FEMA4ImagesEEG,001,101245,
AFNE01.JPG,AFNE01.JPG,AFNE01.JPG,AFNE01.JPG,AFNE01.JPG,AFNE01.JPG,,,,,,,,,,,,,4,1,41,8,,,,,,,,,,,AMNE18.jpg,AMNE02.jpg,AMSA15.jpg,AMSA19.jpg,AMNE02.jpg,MN,1,num_6,32,num_2,1.21673050988,,,2017_Aug_10_1636,60.0071020448,FEMA4ImagesEEG,001,101245,
AFNE01.JPG,AFNE01.JPG,AFNE01.JPG,AFNE01.JPG,AFNE01.JPG,AFNE01.JPG,,,,,,,,,,,,,4,2,42,7,,,,,,,,,,,AMSA13.jpg,AMNE09.jpg,AMSA08.jpg,AMNE19.jpg,AMSA08.jpg,MS,2,num_2,16,num_2,0.850132898893,,,2017_Aug_10_1636,60.0071020448,FEMA4ImagesEEG,001,101245,
AFNE01.JPG,AFNE01.JPG,AFNE01.JPG,AFNE01.JPG,AFNE01.JPG,AFNE01.JPG,,,,,,,,,,,,,4,3,43,3,,,,,,,,,,,AMSA12.jpg,AMNE02.jpg,AMNE13.jpg,AMSA02.jpg,AMSA12.jpg,MS,2,num_8,16,num_8,0.683499108069,,,2017_Aug_10_1636,60.0071020448,FEMA4ImagesEEG,001,101245,
AFNE01.JPG,AFNE01.JPG,AFNE01.JPG,AFNE01.JPG,AFNE01.JPG,AFNE01.JPG,,,,,,,,,,,,,4,4,44,4,,,,,,,,,,,AMNE19.jpg,AMNE11.jpg,AMSA04.jpg,AMSA03.jpg,AMSA04.jpg,MS,2,num_2,16,num_2,0.967011558358,,,2017_Aug_10_1636,60.0071020448,FEMA4ImagesEEG,001,101245,
AFNE01.JPG,AFNE01.JPG,AFNE01.JPG,AFNE01.JPG,AFNE01.JPG,AFNE01.JPG,,,,,,,,,,,,,4,5,45,9,,,,,,,,,,,AMSA03.jpg,AMSA20.jpg,AMNE17.jpg,AMNE02.jpg,AMSA03.jpg,MS,2,num_8,16,num_8,0.916834654287,,,2017_Aug_10_1636,60.0071020448,FEMA4ImagesEEG,001,101245,
AFNE01.JPG,AFNE01.JPG,AFNE01.JPG,AFNE01.JPG,AFNE01.JPG,AFNE01.JPG,,,,,,,,,,,,,4,6,46,6,,,,,,,,,,,AMNE16.jpg,AMSA08.jpg,AMSA04.jpg,AMNE17.jpg,AMNE16.jpg,MN,1,num_8,16,num_8,0.600134261884,,,2017_Aug_10_1636,60.0071020448,FEMA4ImagesEEG,001,101245,
AFNE01.JPG,AFNE01.JPG,AFNE01.JPG,AFNE01.JPG,AFNE01.JPG,AFNE01.JPG,,,,,,,,,,,,,4,7,47,5,,,,,,,,,,,AMSA17.jpg,AMNE11.jpg,AMSA14.jpg,AMNE05.jpg,AMSA17.jpg,MS,2,num_8,16,num_8,0.733456625603,,,2017_Aug_10_1636,60.0071020448,FEMA4ImagesEEG,001,101245,
AFNE01.JPG,AFNE01.JPG,AFNE01.JPG,AFNE01.JPG,AFNE01.JPG,AFNE01.JPG,,,,,,,,,,,,,4,8,48,0,,,,,,,,,,,AMNE11.jpg,AMSA08.jpg,AMNE16.jpg,AMSA05.jpg,AMNE16.jpg,MN,1,num_2,16,num_2,1.60001590848,,,2017_Aug_10_1636,60.0071020448,FEMA4ImagesEEG,001,101245,
AFNE01.JPG,AFNE01.JPG,AFNE01.JPG,AFNE01.JPG,AFNE01.JPG,AFNE01.JPG,,,,,,,,,,,,,4,9,49,2,,,,,,,,,,,AMSA02.jpg,AMNE14.jpg,AMSA09.jpg,AMNE09.jpg,AMSA09.jpg,MS,2,num_2,16,num_2,1.35007885424,,,2017_Aug_10_1636,60.0071020448,FEMA4ImagesEEG,001,101245,
AFNE01.JPG,AFNE01.JPG,AFNE01.JPG,AFNE01.JPG,AFNE01.JPG,AFNE01.JPG,,,,,,,,,,,,,5,0,50,4,,,,,,,,,,,AMSA20.jpg,AMNE16.jpg,AMNE17.jpg,AMSA19.jpg,AMNE17.jpg,MN,1,num_2,32,num_6,0.716760498937,,,2017_Aug_10_1636,60.0071020448,FEMA4ImagesEEG,001,101245,
AFNE01.JPG,AFNE01.JPG,AFNE01.JPG,AFNE01.JPG,AFNE01.JPG,AFNE01.JPG,,,,,,,,,,,,,5,1,51,9,,,,,,,,,,,AMNE04.jpg,AMSA07.jpg,AMNE07.jpg,AMSA04.jpg,AMSA04.jpg,MS,2,num_4,32,num_8,0.883498209994,,,2017_Aug_10_1636,60.0071020448,FEMA4ImagesEEG,001,101245,
AFNE01.JPG,AFNE01.JPG,AFNE01.JPG,AFNE01.JPG,AFNE01.JPG,AFNE01.JPG,,,,,,,,,,,,,5,2,52,1,,,,,,,,,,,AMNE12.jpg,AMSA14.jpg,AMSA10.jpg,AMNE01.jpg,AMNE12.jpg,MN,1,num_8,32,num_4,0.716484983452,,,2017_Aug_10_1636,60.0071020448,FEMA4ImagesEEG,001,101245,
AFNE01.JPG,AFNE01.JPG,AFNE01.JPG,AFNE01.JPG,AFNE01.JPG,AFNE01.JPG,,,,,,,,,,,,,5,3,53,2,,,,,,,,,,,AMNE16.jpg,AMSA10.jpg,AMNE01.jpg,AMSA07.jpg,AMNE16.jpg,MN,1,num_8,16,num_8,1.21673724568,,,2017_Aug_10_1636,60.0071020448,FEMA4ImagesEEG,001,101245,
AFNE01.JPG,AFNE01.JPG,AFNE01.JPG,AFNE01.JPG,AFNE01.JPG,AFNE01.JPG,,,,,,,,,,,,,5,4,54,8,,,,,,,,,,,AMSA02.jpg,AMNE02.jpg,AMNE01.jpg,AMSA09.jpg,AMNE02.jpg,MN,1,num_6,32,num_8,1.11673432682,,,2017_Aug_10_1636,60.0071020448,FEMA4ImagesEEG,001,101245,
AFNE01.JPG,AFNE01.JPG,AFNE01.JPG,AFNE01.JPG,AFNE01.JPG,AFNE01.JPG,,,,,,,,,,,,,5,5,55,3,,,,,,,,,,,AMSA10.jpg,AMNE05.jpg,AMSA05.jpg,AMNE12.jpg,AMNE12.jpg,MN,1,num_4,32,num_2,1.06668379437,,,2017_Aug_10_1636,60.0071020448,FEMA4ImagesEEG,001,101245,
AFNE01.JPG,AFNE01.JPG,AFNE01.JPG,AFNE01.JPG,AFNE01.JPG,AFNE01.JPG,,,,,,,,,,,,,5,6,56,0,,,,,,,,,,,AMNE20.jpg,AMSA16.jpg,AMNE15.jpg,AMSA11.jpg,AMSA16.jpg,MS,2,num_6,16,num_6,1.70001850696,,,2017_Aug_10_1636,60.0071020448,FEMA4ImagesEEG,001,101245,
AFNE01.JPG,AFNE01.JPG,AFNE01.JPG,AFNE01.JPG,AFNE01.JPG,AFNE01.JPG,,,,,,,,,,,,,5,7,57,5,,,,,,,,,,,AMNE07.jpg,AMSA11.jpg,AMNE11.jpg,AMSA06.jpg,AMSA11.jpg,MS,2,num_6,32,num_8,1.66671638144,,,2017_Aug_10_1636,60.0071020448,FEMA4ImagesEEG,001,101245,
AFNE01.JPG,AFNE01.JPG,AFNE01.JPG,AFNE01.JPG,AFNE01.JPG,AFNE01.JPG,,,,,,,,,,,,,5,8,58,6,,,,,,,,,,,AMNE09.jpg,AMSA01.jpg,AMSA17.jpg,AMNE10.jpg,AMNE10.jpg,MN,1,num_4,32,num_8,0.700195234269,,,2017_Aug_10_1636,60.0071020448,FEMA4ImagesEEG,001,101245,
AFNE01.JPG,AFNE01.JPG,AFNE01.JPG,AFNE01.JPG,AFNE01.JPG,AFNE01.JPG,,,,,,,,,,,,,5,9,59,7,,,,,,,,,,,AMSA09.jpg,AMNE02.jpg,AMNE01.jpg,AMSA18.jpg,AMNE02.jpg,MN,1,num_6,16,num_6,0.900138207246,,,2017_Aug_10_1636,60.0071020448,FEMA4ImagesEEG,001,101245,
,,,,,,,,,,,,,,,,,,,,,,,,,,,,,,,,,,,,,,,,,,,space,33.0810192735,2017_Aug_10_1636,60.0071020448,FEMA4ImagesEEG,001,101245,
AFNE01.JPG,AFNE01.JPG,AFNE01.JPG,AFNE01.JPG,AFNE01.JPG,AFNE01.JPG,,,,,,,,,,,,,,,,,0,0,0,6,,,,,,,AFNE20.jpg,AFSA09.jpg,AFNE03.jpg,AFSA06.jpg,AFSA06.jpg,FS,4,num_4,16,num_4,1.16674123844,,,2017_Aug_10_1636,60.0071020448,FEMA4ImagesEEG,001,101245,
AFNE01.JPG,AFNE01.JPG,AFNE01.JPG,AFNE01.JPG,AFNE01.JPG,AFNE01.JPG,,,,,,,,,,,,,,,,,0,1,1,7,,,,,,,AFNE08.jpg,AFSA17.jpg,AFNE18.jpg,AFSA05.jpg,AFNE18.jpg,FN,3,num_2,16,num_2,0.933291187976,,,2017_Aug_10_1636,60.0071020448,FEMA4ImagesEEG,001,101245,
AFNE01.JPG,AFNE01.JPG,AFNE01.JPG,AFNE01.JPG,AFNE01.JPG,AFNE01.JPG,,,,,,,,,,,,,,,,,0,2,2,3,,,,,,,AFSA13.jpg,AFSA19.jpg,AFNE16.jpg,AFNE20.jpg,AFNE16.jpg,FN,3,num_2,16,num_2,0.983470016625,,,2017_Aug_10_1636,60.0071020448,FEMA4ImagesEEG,001,101245,
AFNE01.JPG,AFNE01.JPG,AFNE01.JPG,AFNE01.JPG,AFNE01.JPG,AFNE01.JPG,,,,,,,,,,,,,,,,,0,3,3,5,,,,,,,AFNE20.jpg,AFSA07.jpg,AFNE04.jpg,AFSA10.jpg,AFSA07.jpg,FS,4,num_6,16,num_6,0.94963867031,,,2017_Aug_10_1636,60.0071020448,FEMA4ImagesEEG,001,101245,
AFNE01.JPG,AFNE01.JPG,AFNE01.JPG,AFNE01.JPG,AFNE01.JPG,AFNE01.JPG,,,,,,,,,,,,,,,,,0,4,4,4,,,,,,,AFNE18.jpg,AFSA01.jpg,AFSA04.jpg,AFNE11.jpg,AFSA04.jpg,FS,4,num_2,16,num_2,1.38363243965,,,2017_Aug_10_1636,60.0071020448,FEMA4ImagesEEG,001,101245,
AFNE01.JPG,AFNE01.JPG,AFNE01.JPG,AFNE01.JPG,AFNE01.JPG,AFNE01.JPG,,,,,,,,,,,,,,,,,0,5,5,0,,,,,,,AFSA19.jpg,AFSA13.jpg,AFNE19.jpg,AFNE09.jpg,AFNE09.jpg,FN,3,num_4,32,num_6,1.06668732222,,,2017_Aug_10_1636,60.0071020448,FEMA4ImagesEEG,001,101245,
AFNE01.JPG,AFNE01.JPG,AFNE01.JPG,AFNE01.JPG,AFNE01.JPG,AFNE01.JPG,,,,,,,,,,,,,,,,,0,6,6,2,,,,,,,AFNE02.jpg,AFSA06.jpg,AFSA04.jpg,AFNE16.jpg,AFNE16.jpg,FN,3,num_4,16,num_4,0.73351403838,,,2017_Aug_10_1636,60.0071020448,FEMA4ImagesEEG,001,101245,
AFNE01.JPG,AFNE01.JPG,AFNE01.JPG,AFNE01.JPG,AFNE01.JPG,AFNE01.JPG,,,,,,,,,,,,,,,,,0,7,7,1,,,,,,,AFSA05.jpg,AFSA18.jpg,AFNE08.jpg,AFNE10.jpg,AFSA05.jpg,FS,4,num_8,16,num_8,0.983537051361,,,2017_Aug_10_1636,60.0071020448,FEMA4ImagesEEG,001,101245,
AFNE01.JPG,AFNE01.JPG,AFNE01.JPG,AFNE01.JPG,AFNE01.JPG,AFNE01.JPG,,,,,,,,,,,,,,,,,0,8,8,9,,,,,,,AFSA13.jpg,AFSA09.jpg,AFNE17.jpg,AFNE18.jpg,AFNE17.jpg,FN,3,num_2,16,num_2,0.900215505157,,,2017_Aug_10_1636,60.0071020448,FEMA4ImagesEEG,001,101245,
AFNE01.JPG,AFNE01.JPG,AFNE01.JPG,AFNE01.JPG,AFNE01.JPG,AFNE01.JPG,,,,,,,,,,,,,,,,,0,9,9,8,,,,,,,AFNE16.jpg,AFSA19.jpg,AFSA13.jpg,AFNE11.jpg,AFNE11.jpg,FN,3,num_4,32,num_2,1.23347763438,,,2017_Aug_10_1636,60.0071020448,FEMA4ImagesEEG,001,101245,
AFNE01.JPG,AFNE01.JPG,AFNE01.JPG,AFNE01.JPG,AFNE01.JPG,AFNE01.JPG,,,,,,,,,,,,,,,,,1,0,10,7,,,,,,,AFSA17.jpg,AFNE17.jpg,AFSA12.jpg,AFNE03.jpg,AFSA17.jpg,FS,4,num_8,16,num_8,0.833384491503,,,2017_Aug_10_1636,60.0071020448,FEMA4ImagesEEG,001,101245,
AFNE01.JPG,AFNE01.JPG,AFNE01.JPG,AFNE01.JPG,AFNE01.JPG,AFNE01.JPG,,,,,,,,,,,,,,,,,1,1,11,1,,,,,,,AFNE14.jpg,AFSA04.jpg,AFSA16.jpg,AFNE16.jpg,AFSA04.jpg,FS,4,num_6,16,num_6,0.966745985672,,,2017_Aug_10_1636,60.0071020448,FEMA4ImagesEEG,001,101245,
AFNE01.JPG,AFNE01.JPG,AFNE01.JPG,AFNE01.JPG,AFNE01.JPG,AFNE01.JPG,,,,,,,,,,,,,,,,,1,2,12,4,,,,,,,AFNE12.jpg,AFNE02.jpg,AFSA17.jpg,AFSA11.jpg,AFNE02.jpg,FN,3,num_6,16,num_6,0.566404269543,,,2017_Aug_10_1636,60.0071020448,FEMA4ImagesEEG,001,101245,
AFNE01.JPG,AFNE01.JPG,AFNE01.JPG,AFNE01.JPG,AFNE01.JPG,AFNE01.JPG,,,,,,,,,,,,,,,,,1,3,13,6,,,,,,,AFNE12.jpg,AFSA13.jpg,AFNE01.jpg,AFSA10.jpg,AFNE01.jpg,FN,3,num_2,32,num_8,1.00009782566,,,2017_Aug_10_1636,60.0071020448,FEMA4ImagesEEG,001,101245,
AFNE01.JPG,AFNE01.JPG,AFNE01.JPG,AFNE01.JPG,AFNE01.JPG,AFNE01.JPG,,,,,,,,,,,,,,,,,1,4,14,8,,,,,,,AFSA10.jpg,AFNE05.jpg,AFNE16.jpg,AFSA11.jpg,AFNE05.jpg,FN,3,num_6,16,num_6,0.983471941203,,,2017_Aug_10_1636,60.0071020448,FEMA4ImagesEEG,001,101245,
AFNE01.JPG,AFNE01.JPG,AFNE01.JPG,AFNE01.JPG,AFNE01.JPG,AFNE01.JPG,,,,,,,,,,,,,,,,,1,5,15,2,,,,,,,AFNE11.jpg,AFNE05.jpg,AFSA20.jpg,AFSA17.jpg,AFSA20.jpg,FS,4,num_2,32,num_8,1.11674843915,,,2017_Aug_10_1636,60.0071020448,FEMA4ImagesEEG,001,101245,
AFNE01.JPG,AFNE01.JPG,AFNE01.JPG,AFNE01.JPG,AFNE01.JPG,AFNE01.JPG,,,,,,,,,,,,,,,,,1,6,16,0,,,,,,,AFSA13.jpg,AFSA02.jpg,AFNE02.jpg,AFNE20.jpg,AFNE02.jpg,FN,3,num_2,32,num_6,1.33338753833,,,2017_Aug_10_1636,60.0071020448,FEMA4ImagesEEG,001,101245,
AFNE01.JPG,AFNE01.JPG,AFNE01.JPG,AFNE01.JPG,AFNE01.JPG,AFNE01.JPG,,,,,,,,,,,,,,,,,1,7,17,3,,,,,,,AFSA13.jpg,AFNE08.jpg,AFNE14.jpg,AFSA16.jpg,AFNE08.jpg,FN,3,num_6,16,num_6,0.866742104758,,,2017_Aug_10_1636,60.0071020448,FEMA4ImagesEEG,001,101245,
AFNE01.JPG,AFNE01.JPG,AFNE01.JPG,AFNE01.JPG,AFNE01.JPG,AFNE01.JPG,,,,,,,,,,,,,,,,,1,8,18,5,,,,,,,AFNE01.jpg,AFSA04.jpg,AFNE06.jpg,AFSA13.jpg,AFSA04.jpg,FS,4,num_6,16,num_6,0.733468493447,,,2017_Aug_10_1636,60.0071020448,FEMA4ImagesEEG,001,101245,
AFNE01.JPG,AFNE01.JPG,AFNE01.JPG,AFNE01.JPG,AFNE01.JPG,AFNE01.JPG,,,,,,,,,,,,,,,,,1,9,19,9,,,,,,,AFNE13.jpg,AFSA01.jpg,AFNE06.jpg,AFSA19.jpg,AFSA19.jpg,FS,4,num_4,32,num_2,1.08343989961,,,2017_Aug_10_1636,60.0071020448,FEMA4ImagesEEG,001,101245,
AFNE01.JPG,AFNE01.JPG,AFNE01.JPG,AFNE01.JPG,AFNE01.JPG,AFNE01.JPG,,,,,,,,,,,,,,,,,2,0,20,0,,,,,,,AFSA13.jpg,AFSA20.jpg,AFNE19.jpg,AFNE01.jpg,AFSA20.jpg,FS,4,num_6,32,num_2,1.06679060077,,,2017_Aug_10_1636,60.0071020448,FEMA4ImagesEEG,001,101245,
AFNE01.JPG,AFNE01.JPG,AFNE01.JPG,AFNE01.JPG,AFNE01.JPG,AFNE01.JPG,,,,,,,,,,,,,,,,,2,1,21,3,,,,,,,AFSA16.jpg,AFNE10.jpg,AFNE04.jpg,AFSA04.jpg,AFNE10.jpg,FN,3,num_6,32,num_8,0.850121031515,,,2017_Aug_10_1636,60.0071020448,FEMA4ImagesEEG,001,101245,
AFNE01.JPG,AFNE01.JPG,AFNE01.JPG,AFNE01.JPG,AFNE01.JPG,AFNE01.JPG,,,,,,,,,,,,,,,,,2,2,22,6,,,,,,,AFNE11.jpg,AFSA17.jpg,AFNE03.jpg,AFSA09.jpg,AFSA17.jpg,FS,4,num_6,16,num_6,0.833434847649,,,2017_Aug_10_1636,60.0071020448,FEMA4ImagesEEG,001,101245,
AFNE01.JPG,AFNE01.JPG,AFNE01.JPG,AFNE01.JPG,AFNE01.JPG,AFNE01.JPG,,,,,,,,,,,,,,,,,2,3,23,5,,,,,,,AFNE02.jpg,AFNE12.jpg,AFSA02.jpg,AFSA06.jpg,AFSA06.jpg,FS,4,num_4,32,num_2,1.00011514546,,,2017_Aug_10_1636,60.0071020448,FEMA4ImagesEEG,001,101245,
AFNE01.JPG,AFNE01.JPG,AFNE01.JPG,AFNE01.JPG,AFNE01.JPG,AFNE01.JPG,,,,,,,,,,,,,,,,,2,4,24,2,,,,,,,AFSA08.jpg,AFSA10.jpg,AFNE10.jpg,AFNE05.jpg,AFNE05.jpg,FN,3,num_4,16,num_4,0.650171964429,,,2017_Aug_10_1636,60.0071020448,FEMA4ImagesEEG,001,101245,
AFNE01.JPG,AFNE01.JPG,AFNE01.JPG,AFNE01.JPG,AFNE01.JPG,AFNE01.JPG,,,,,,,,,,,,,,,,,2,5,25,7,,,,,,,AFSA10.jpg,AFSA06.jpg,AFNE17.jpg,AFNE13.jpg,AFNE13.jpg,FN,3,num_4,32,num_8,0.750103358179,,,2017_Aug_10_1636,60.0071020448,FEMA4ImagesEEG,001,101245,
AFNE01.JPG,AFNE01.JPG,AFNE01.JPG,AFNE01.JPG,AFNE01.JPG,AFNE01.JPG,,,,,,,,,,,,,,,,,2,6,26,1,,,,,,,AFNE19.jpg,AFSA09.jpg,AFSA19.jpg,AFNE13.jpg,AFNE13.jpg,FN,3,num_4,32,num_6,0.716770441737,,,2017_Aug_10_1636,60.0071020448,FEMA4ImagesEEG,001,101245,
AFNE01.JPG,AFNE01.JPG,AFNE01.JPG,AFNE01.JPG,AFNE01.JPG,AFNE01.JPG,,,,,,,,,,,,,,,,,2,7,27,8,,,,,,,AFSA16.jpg,AFSA02.jpg,AFNE02.jpg,AFNE07.jpg,AFSA16.jpg,FS,4,num_8,16,num_8,1.01673814328,,,2017_Aug_10_1636,60.0071020448,FEMA4ImagesEEG,001,101245,
AFNE01.JPG,AFNE01.JPG,AFNE01.JPG,AFNE01.JPG,AFNE01.JPG,AFNE01.JPG,,,,,,,,,,,,,,,,,2,8,28,9,,,,,,,AFNE15.jpg,AFNE11.jpg,AFSA16.jpg,AFSA09.jpg,AFNE11.jpg,FN,3,num_6,32,num_4,0.833459544927,,,2017_Aug_10_1636,60.0071020448,FEMA4ImagesEEG,001,101245,
AFNE01.JPG,AFNE01.JPG,AFNE01.JPG,AFNE01.JPG,AFNE01.JPG,AFNE01.JPG,,,,,,,,,,,,,,,,,2,9,29,4,,,,,,,AFNE09.jpg,AFNE03.jpg,AFSA01.jpg,AFSA19.jpg,AFNE03.jpg,FN,3,num_6,16,num_6,0.550144028384,,,2017_Aug_10_1636,60.0071020448,FEMA4ImagesEEG,001,101245,
AFNE01.JPG,AFNE01.JPG,AFNE01.JPG,AFNE01.JPG,AFNE01.JPG,AFNE01.JPG,,,,,,,,,,,,,,,,,3,0,30,9,,,,,,,AFSA14.jpg,AFNE01.jpg,AFNE16.jpg,AFSA16.jpg,AFNE01.jpg,FN,3,num_6,32,num_2,1.28342007753,,,2017_Aug_10_1636,60.0071020448,FEMA4ImagesEEG,001,101245,
AFNE01.JPG,AFNE01.JPG,AFNE01.JPG,AFNE01.JPG,AFNE01.JPG,AFNE01.JPG,,,,,,,,,,,,,,,,,3,1,31,2,,,,,,,AFSA10.jpg,AFNE20.jpg,AFSA13.jpg,AFNE04.jpg,AFSA13.jpg,FS,4,num_2,16,num_2,2.24999350496,,,2017_Aug_10_1636,60.0071020448,FEMA4ImagesEEG,001,101245,
AFNE01.JPG,AFNE01.JPG,AFNE01.JPG,AFNE01.JPG,AFNE01.JPG,AFNE01.JPG,,,,,,,,,,,,,,,,,3,2,32,1,,,,,,,AFSA17.jpg,AFSA01.jpg,AFNE02.jpg,AFNE13.jpg,AFSA01.jpg,FS,4,num_6,32,num_8,0.666743002832,,,2017_Aug_10_1636,60.0071020448,FEMA4ImagesEEG,001,101245,
AFNE01.JPG,AFNE01.JPG,AFNE01.JPG,AFNE01.JPG,AFNE01.JPG,AFNE01.JPG,,,,,,,,,,,,,,,,,3,3,33,8,,,,,,,AFNE16.jpg,AFSA10.jpg,AFNE15.jpg,AFSA06.jpg,AFSA10.jpg,FS,4,num_6,16,num_6,0.550156537443,,,2017_Aug_10_1636,60.0071020448,FEMA4ImagesEEG,001,101245,
AFNE01.JPG,AFNE01.JPG,AFNE01.JPG,AFNE01.JPG,AFNE01.JPG,AFNE01.JPG,,,,,,,,,,,,,,,,,3,4,34,5,,,,,,,AFNE10.jpg,AFSA11.jpg,AFNE18.jpg,AFSA20.jpg,AFSA20.jpg,FS,4,num_4,16,num_4,0.916777562816,,,2017_Aug_10_1636,60.0071020448,FEMA4ImagesEEG,001,101245,
AFNE01.JPG,AFNE01.JPG,AFNE01.JPG,AFNE01.JPG,AFNE01.JPG,AFNE01.JPG,,,,,,,,,,,,,,,,,3,5,35,4,,,,,,,AFNE12.jpg,AFSA16.jpg,AFNE10.jpg,AFSA09.jpg,AFSA09.jpg,FS,4,num_4,32,num_8,0.783450387418,,,2017_Aug_10_1636,60.0071020448,FEMA4ImagesEEG,001,101245,
AFNE01.JPG,AFNE01.JPG,AFNE01.JPG,AFNE01.JPG,AFNE01.JPG,AFNE01.JPG,,,,,,,,,,,,,,,,,3,6,36,3,,,,,,,AFNE01.jpg,AFSA04.jpg,AFSA01.jpg,AFNE05.jpg,AFSA01.jpg,FS,4,num_2,32,num_6,0.816791001707,,,2017_Aug_10_1636,60.0071020448,FEMA4ImagesEEG,001,101245,
AFNE01.JPG,AFNE01.JPG,AFNE01.JPG,AFNE01.JPG,AFNE01.JPG,AFNE01.JPG,,,,,,,,,,,,,,,,,3,7,37,7,,,,,,,AFNE14.jpg,AFSA18.jpg,AFNE11.jpg,AFSA12.jpg,AFNE14.jpg,FN,3,num_8,32,num_4,0.733464965131,,,2017_Aug_10_1636,60.0071020448,FEMA4ImagesEEG,001,101245,
AFNE01.JPG,AFNE01.JPG,AFNE01.JPG,AFNE01.JPG,AFNE01.JPG,AFNE01.JPG,,,,,,,,,,,,,,,,,3,8,38,6,,,,,,,AFNE06.jpg,AFSA07.jpg,AFNE14.jpg,AFSA11.jpg,AFNE06.jpg,FN,3,num_8,16,num_8,0.866799517069,,,2017_Aug_10_1636,60.0071020448,FEMA4ImagesEEG,001,101245,
AFNE01.JPG,AFNE01.JPG,AFNE01.JPG,AFNE01.JPG,AFNE01.JPG,AFNE01.JPG,,,,,,,,,,,,,,,,,3,9,39,0,,,,,,,AFSA05.jpg,AFNE15.jpg,AFSA13.jpg,AFNE07.jpg,AFSA13.jpg,FS,4,num_2,32,num_4,1.31672380678,,,2017_Aug_10_1636,60.0071020448,FEMA4ImagesEEG,001,101245,
AFNE01.JPG,AFNE01.JPG,AFNE01.JPG,AFNE01.JPG,AFNE01.JPG,AFNE01.JPG,,,,,,,,,,,,,,,,,4,0,40,4,,,,,,,AFNE09.jpg,AFSA20.jpg,AFNE01.jpg,AFSA08.jpg,AFNE09.jpg,FN,3,num_8,32,num_6,0.63314162707,,,2017_Aug_10_1636,60.0071020448,FEMA4ImagesEEG,001,101245,
AFNE01.JPG,AFNE01.JPG,AFNE01.JPG,AFNE01.JPG,AFNE01.JPG,AFNE01.JPG,,,,,,,,,,,,,,,,,4,1,41,9,,,,,,,AFSA08.jpg,AFNE19.jpg,AFNE03.jpg,AFSA11.jpg,AFNE19.jpg,FN,3,num_6,32,num_2,1.26677270373,,,2017_Aug_10_1636,60.0071020448,FEMA4ImagesEEG,001,101245,
AFNE01.JPG,AFNE01.JPG,AFNE01.JPG,AFNE01.JPG,AFNE01.JPG,AFNE01.JPG,,,,,,,,,,,,,,,,,4,2,42,5,,,,,,,AFNE11.jpg,AFNE02.jpg,AFSA04.jpg,AFSA18.jpg,AFSA18.jpg,FS,4,num_4,16,num_4,0.966839641798,,,2017_Aug_10_1636,60.0071020448,FEMA4ImagesEEG,001,101245,
AFNE01.JPG,AFNE01.JPG,AFNE01.JPG,AFNE01.JPG,AFNE01.JPG,AFNE01.JPG,,,,,,,,,,,,,,,,,4,3,43,8,,,,,,,AFSA08.jpg,AFNE17.jpg,AFSA07.jpg,AFNE16.jpg,AFNE16.jpg,FN,3,num_4,32,num_6,1.01703097951,,,2017_Aug_10_1636,60.0071020448,FEMA4ImagesEEG,001,101245,
AFNE01.JPG,AFNE01.JPG,AFNE01.JPG,AFNE01.JPG,AFNE01.JPG,AFNE01.JPG,,,,,,,,,,,,,,,,,4,4,44,7,,,,,,,AFSA05.jpg,AFSA15.jpg,AFNE05.jpg,AFNE14.jpg,AFNE05.jpg,FN,3,num_2,16,num_2,1.16661486728,,,2017_Aug_10_1636,60.0071020448,FEMA4ImagesEEG,001,101245,
AFNE01.JPG,AFNE01.JPG,AFNE01.JPG,AFNE01.JPG,AFNE01.JPG,AFNE01.JPG,,,,,,,,,,,,,,,,,4,5,45,3,,,,,,,AFNE02.jpg,AFSA05.jpg,AFNE19.jpg,AFSA17.jpg,AFSA05.jpg,FS,4,num_6,32,num_2,1.3334221784,,,2017_Aug_10_1636,60.0071020448,FEMA4ImagesEEG,001,101245,
AFNE01.JPG,AFNE01.JPG,AFNE01.JPG,AFNE01.JPG,AFNE01.JPG,AFNE01.JPG,,,,,,,,,,,,,,,,,4,6,46,6,,,,,,,AFNE13.jpg,AFNE02.jpg,AFSA03.jpg,AFSA06.jpg,AFNE02.jpg,FN,3,num_6,16,num_6,0.850127446465,,,2017_Aug_10_1636,60.0071020448,FEMA4ImagesEEG,001,101245,
AFNE01.JPG,AFNE01.JPG,AFNE01.JPG,AFNE01.JPG,AFNE01.JPG,AFNE01.JPG,,,,,,,,,,,,,,,,,4,7,47,1,,,,,,,AFSA06.jpg,AFNE18.jpg,AFSA09.jpg,AFNE12.jpg,AFNE18.jpg,FN,3,num_6,16,num_6,0.866771933623,,,2017_Aug_10_1636,60.0071020448,FEMA4ImagesEEG,001,101245,
AFNE01.JPG,AFNE01.JPG,AFNE01.JPG,AFNE01.JPG,AFNE01.JPG,AFNE01.JPG,,,,,,,,,,,,,,,,,4,8,48,2,,,,,,,AFSA12.jpg,AFSA13.jpg,AFNE01.jpg,AFNE20.jpg,AFSA12.jpg,FS,4,num_8,16,num_8,0.500215056352,,,2017_Aug_10_1636,60.0071020448,FEMA4ImagesEEG,001,101245,
AFNE01.JPG,AFNE01.JPG,AFNE01.JPG,AFNE01.JPG,AFNE01.JPG,AFNE01.JPG,,,,,,,,,,,,,,,,,4,9,49,0,,,,,,,AFNE12.jpg,AFNE07.jpg,AFSA20.jpg,AFSA05.jpg,AFNE12.jpg,FN,3,num_8,16,num_8,0.800121175591,,,2017_Aug_10_1636,60.0071020448,FEMA4ImagesEEG,001,101245,
AFNE01.JPG,AFNE01.JPG,AFNE01.JPG,AFNE01.JPG,AFNE01.JPG,AFNE01.JPG,,,,,,,,,,,,,,,,,5,0,50,9,,,,,,,AFNE14.jpg,AFNE08.jpg,AFSA16.jpg,AFSA13.jpg,AFNE08.jpg,FN,3,num_6,16,num_6,0.76673309179,,,2017_Aug_10_1636,60.0071020448,FEMA4ImagesEEG,001,101245,
AFNE01.JPG,AFNE01.JPG,AFNE01.JPG,AFNE01.JPG,AFNE01.JPG,AFNE01.JPG,,,,,,,,,,,,,,,,,5,1,51,2,,,,,,,AFNE08.jpg,AFSA02.jpg,AFNE05.jpg,AFSA14.jpg,AFSA02.jpg,FS,4,num_6,32,num_2,1.33343276242,,,2017_Aug_10_1636,60.0071020448,FEMA4ImagesEEG,001,101245,
AFNE01.JPG,AFNE01.JPG,AFNE01.JPG,AFNE01.JPG,AFNE01.JPG,AFNE01.JPG,,,,,,,,,,,,,,,,,5,2,52,6,,,,,,,AFNE10.jpg,AFSA15.jpg,AFSA06.jpg,AFNE20.jpg,AFSA15.jpg,FS,4,num_6,32,num_8,0.916737790685,,,2017_Aug_10_1636,60.0071020448,FEMA4ImagesEEG,001,101245,
AFNE01.JPG,AFNE01.JPG,AFNE01.JPG,AFNE01.JPG,AFNE01.JPG,AFNE01.JPG,,,,,,,,,,,,,,,,,5,3,53,0,,,,,,,AFNE17.jpg,AFSA06.jpg,AFNE02.jpg,AFSA17.jpg,AFSA17.jpg,FS,4,num_4,32,num_8,0.916798731778,,,2017_Aug_10_1636,60.0071020448,FEMA4ImagesEEG,001,101245,
AFNE01.JPG,AFNE01.JPG,AFNE01.JPG,AFNE01.JPG,AFNE01.JPG,AFNE01.JPG,,,,,,,,,,,,,,,,,5,4,54,1,,,,,,,AFNE15.jpg,AFSA03.jpg,AFNE10.jpg,AFSA02.jpg,AFNE15.jpg,FN,3,num_8,16,num_8,0.616839048453,,,2017_Aug_10_1636,60.0071020448,FEMA4ImagesEEG,001,101245,
AFNE01.JPG,AFNE01.JPG,AFNE01.JPG,AFNE01.JPG,AFNE01.JPG,AFNE01.JPG,,,,,,,,,,,,,,,,,5,5,55,3,,,,,,,AFSA10.jpg,AFSA02.jpg,AFNE07.jpg,AFNE10.jpg,AFSA02.jpg,FS,4,num_6,32,num_2,1.1001539873,,,2017_Aug_10_1636,60.0071020448,FEMA4ImagesEEG,001,101245,
AFNE01.JPG,AFNE01.JPG,AFNE01.JPG,AFNE01.JPG,AFNE01.JPG,AFNE01.JPG,,,,,,,,,,,,,,,,,5,6,56,7,,,,,,,AFNE10.jpg,AFSA06.jpg,AFNE19.jpg,AFSA02.jpg,AFNE10.jpg,FN,3,num_8,32,num_6,0.583580543753,,,2017_Aug_10_1636,60.0071020448,FEMA4ImagesEEG,001,101245,
AFNE01.JPG,AFNE01.JPG,AFNE01.JPG,AFNE01.JPG,AFNE01.JPG,AFNE01.JPG,,,,,,,,,,,,,,,,,5,7,57,8,,,,,,,AFSA13.jpg,AFNE15.jpg,AFSA20.jpg,AFNE11.jpg,AFSA13.jpg,FS,4,num_8,16,num_8,0.600167939439,,,2017_Aug_10_1636,60.0071020448,FEMA4ImagesEEG,001,101245,
AFNE01.JPG,AFNE01.JPG,AFNE01.JPG,AFNE01.JPG,AFNE01.JPG,AFNE01.JPG,,,,,,,,,,,,,,,,,5,8,58,5,,,,,,,AFNE19.jpg,AFSA16.jpg,AFNE06.jpg,AFSA10.jpg,AFSA10.jpg,FS,4,num_4,32,num_8,0.716741896234,,,2017_Aug_10_1636,60.0071020448,FEMA4ImagesEEG,001,101245,
AFNE01.JPG,AFNE01.JPG,AFNE01.JPG,AFNE01.JPG,AFNE01.JPG,AFNE01.JPG,,,,,,,,,,,,,,,,,5,9,59,4,,,,,,,AFNE18.jpg,AFSA10.jpg,AFNE08.jpg,AFSA12.jpg,AFNE18.jpg,FN,3,num_8,16,num_8,0.833487449214,,,2017_Aug_10_1636,60.0071020448,FEMA4ImagesEEG,001,101245,
,,,,,,,,,,,,,,,,,,,,,,,,,,,,,,,,,,,,,,,,,,,space,10.1493721996,2017_Aug_10_1636,60.0071020448,FEMA4ImagesEEG,001,101245,
AFNE01.JPG,AFNE01.JPG,AFNE01.JPG,AFNE01.JPG,AFNE01.JPG,AFNE01.JPG,,,,,,,,,,,,,,,,,,,,,0,0,0,3,,,AMNE17.jpg,AMNE13.jpg,AMSA12.jpg,AMSA17.jpg,AMSA17.jpg,MS,2,num_4,32,num_8,0.716664918698,,,2017_Aug_10_1636,60.0071020448,FEMA4ImagesEEG,001,101245,
AFNE01.JPG,AFNE01.JPG,AFNE01.JPG,AFNE01.JPG,AFNE01.JPG,AFNE01.JPG,,,,,,,,,,,,,,,,,,,,,0,1,1,6,,,AMSA01.jpg,AMNE06.jpg,AMSA09.jpg,AMNE03.jpg,AMSA09.jpg,MS,2,num_2,16,num_2,0.616799597163,,,2017_Aug_10_1636,60.0071020448,FEMA4ImagesEEG,001,101245,
AFNE01.JPG,AFNE01.JPG,AFNE01.JPG,AFNE01.JPG,AFNE01.JPG,AFNE01.JPG,,,,,,,,,,,,,,,,,,,,,0,2,2,1,,,AMSA16.jpg,AMSA14.jpg,AMNE14.jpg,AMNE15.jpg,AMSA16.jpg,MS,2,num_8,32,num_2,0.833441262599,,,2017_Aug_10_1636,60.0071020448,FEMA4ImagesEEG,001,101245,
AFNE01.JPG,AFNE01.JPG,AFNE01.JPG,AFNE01.JPG,AFNE01.JPG,AFNE01.JPG,,,,,,,,,,,,,,,,,,,,,0,3,3,0,,,AMSA20.jpg,AMNE18.jpg,AMNE15.jpg,AMSA13.jpg,AMSA20.jpg,MS,2,num_8,32,num_4,0.850453638937,,,2017_Aug_10_1636,60.0071020448,FEMA4ImagesEEG,001,101245,
AFNE01.JPG,AFNE01.JPG,AFNE01.JPG,AFNE01.JPG,AFNE01.JPG,AFNE01.JPG,,,,,,,,,,,,,,,,,,,,,0,4,4,4,,,AMNE02.jpg,AMSA15.jpg,AMNE07.jpg,AMSA13.jpg,AMNE02.jpg,MN,1,num_8,16,num_8,0.799968823791,,,2017_Aug_10_1636,60.0071020448,FEMA4ImagesEEG,001,101245,
AFNE01.JPG,AFNE01.JPG,AFNE01.JPG,AFNE01.JPG,AFNE01.JPG,AFNE01.JPG,,,,,,,,,,,,,,,,,,,,,0,5,5,5,,,AMSA16.jpg,AMSA10.jpg,AMNE03.jpg,AMNE11.jpg,AMSA10.jpg,MS,2,num_6,32,num_2,1.15008295979,,,2017_Aug_10_1636,60.0071020448,FEMA4ImagesEEG,001,101245,
AFNE01.JPG,AFNE01.JPG,AFNE01.JPG,AFNE01.JPG,AFNE01.JPG,AFNE01.JPG,,,,,,,,,,,,,,,,,,,,,0,6,6,7,,,AMNE17.jpg,AMNE08.jpg,AMSA05.jpg,AMSA11.jpg,AMSA11.jpg,MS,2,num_4,32,num_2,0.916745809373,,,2017_Aug_10_1636,60.0071020448,FEMA4ImagesEEG,001,101245,
AFNE01.JPG,AFNE01.JPG,AFNE01.JPG,AFNE01.JPG,AFNE01.JPG,AFNE01.JPG,,,,,,,,,,,,,,,,,,,,,0,7,7,2,,,AMSA10.jpg,AMNE20.jpg,AMNE10.jpg,AMSA11.jpg,AMSA10.jpg,MS,2,num_8,16,num_8,0.483470177278,,,2017_Aug_10_1636,60.0071020448,FEMA4ImagesEEG,001,101245,
AFNE01.JPG,AFNE01.JPG,AFNE01.JPG,AFNE01.JPG,AFNE01.JPG,AFNE01.JPG,,,,,,,,,,,,,,,,,,,,,0,8,8,9,,,AMSA01.jpg,AMSA05.jpg,AMNE01.jpg,AMNE11.jpg,AMNE01.jpg,MN,1,num_2,16,num_2,0.88346870197,,,2017_Aug_10_1636,60.0071020448,FEMA4ImagesEEG,001,101245,
AFNE01.JPG,AFNE01.JPG,AFNE01.JPG,AFNE01.JPG,AFNE01.JPG,AFNE01.JPG,,,,,,,,,,,,,,,,,,,,,0,9,9,8,,,AMSA06.jpg,AMNE04.jpg,AMSA09.jpg,AMNE20.jpg,AMSA09.jpg,MS,2,num_2,32,num_6,0.750145054888,,,2017_Aug_10_1636,60.0071020448,FEMA4ImagesEEG,001,101245,
AFNE01.JPG,AFNE01.JPG,AFNE01.JPG,AFNE01.JPG,AFNE01.JPG,AFNE01.JPG,,,,,,,,,,,,,,,,,,,,,1,0,10,6,,,AMNE20.jpg,AMNE11.jpg,AMSA11.jpg,AMSA20.jpg,AMNE11.jpg,MN,1,num_6,32,num_2,0.883446891326,,,2017_Aug_10_1636,60.0071020448,FEMA4ImagesEEG,001,101245,
AFNE01.JPG,AFNE01.JPG,AFNE01.JPG,AFNE01.JPG,AFNE01.JPG,AFNE01.JPG,,,,,,,,,,,,,,,,,,,,,1,1,11,9,,,AMSA15.jpg,AMSA02.jpg,AMNE16.jpg,AMNE11.jpg,AMNE11.jpg,MN,1,num_4,16,num_4,1.00014497433,,,2017_Aug_10_1636,60.0071020448,FEMA4ImagesEEG,001,101245,
AFNE01.JPG,AFNE01.JPG,AFNE01.JPG,AFNE01.JPG,AFNE01.JPG,AFNE01.JPG,,,,,,,,,,,,,,,,,,,,,1,2,12,8,,,AMSA18.jpg,AMNE03.jpg,AMNE15.jpg,AMSA01.jpg,AMSA01.jpg,MS,2,num_4,16,num_4,0.650128664915,,,2017_Aug_10_1636,60.0071020448,FEMA4ImagesEEG,001,101245,
AFNE01.JPG,AFNE01.JPG,AFNE01.JPG,AFNE01.JPG,AFNE01.JPG,AFNE01.JPG,,,,,,,,,,,,,,,,,,,,,1,3,13,5,,,AMSA06.jpg,AMNE18.jpg,AMNE14.jpg,AMSA08.jpg,AMNE18.jpg,MN,1,num_6,16,num_6,0.900109981652,,,2017_Aug_10_1636,60.0071020448,FEMA4ImagesEEG,001,101245,
AFNE01.JPG,AFNE01.JPG,AFNE01.JPG,AFNE01.JPG,AFNE01.JPG,AFNE01.JPG,,,,,,,,,,,,,,,,,,,,,1,4,14,7,,,AMNE15.jpg,AMSA20.jpg,AMSA15.jpg,AMNE04.jpg,AMNE04.jpg,MN,1,num_4,16,num_4,0.683439129498,,,2017_Aug_10_1636,60.0071020448,FEMA4ImagesEEG,001,101245,
AFNE01.JPG,AFNE01.JPG,AFNE01.JPG,AFNE01.JPG,AFNE01.JPG,AFNE01.JPG,,,,,,,,,,,,,,,,,,,,,1,5,15,4,,,AMNE01.jpg,AMNE11.jpg,AMSA18.jpg,AMSA09.jpg,AMSA09.jpg,MS,2,num_4,32,num_2,1.36702547874,,,2017_Aug_10_1636,60.0071020448,FEMA4ImagesEEG,001,101245,
AFNE01.JPG,AFNE01.JPG,AFNE01.JPG,AFNE01.JPG,AFNE01.JPG,AFNE01.JPG,,,,,,,,,,,,,,,,,,,,,1,6,16,0,,,AMNE05.jpg,AMNE03.jpg,AMSA03.jpg,AMSA19.jpg,AMNE05.jpg,MN,1,num_8,32,num_6,1.61668060254,,,2017_Aug_10_1636,60.0071020448,FEMA4ImagesEEG,001,101245,
AFNE01.JPG,AFNE01.JPG,AFNE01.JPG,AFNE01.JPG,AFNE01.JPG,AFNE01.JPG,,,,,,,,,,,,,,,,,,,,,1,7,17,2,,,AMNE20.jpg,AMSA14.jpg,AMNE12.jpg,AMSA17.jpg,AMSA17.jpg,MS,2,num_4,16,num_4,0.866752368398,,,2017_Aug_10_1636,60.0071020448,FEMA4ImagesEEG,001,101245,
AFNE01.JPG,AFNE01.JPG,AFNE01.JPG,AFNE01.JPG,AFNE01.JPG,AFNE01.JPG,,,,,,,,,,,,,,,,,,,,,1,8,18,3,,,AMNE08.jpg,AMNE04.jpg,AMSA10.jpg,AMSA12.jpg,AMNE08.jpg,MN,1,num_8,16,num_8,0.933426540345,,,2017_Aug_10_1636,60.0071020448,FEMA4ImagesEEG,001,101245,
AFNE01.JPG,AFNE01.JPG,AFNE01.JPG,AFNE01.JPG,AFNE01.JPG,AFNE01.JPG,,,,,,,,,,,,,,,,,,,,,1,9,19,1,,,AMSA15.jpg,AMNE06.jpg,AMNE08.jpg,AMSA13.jpg,AMSA13.jpg,MS,2,num_4,32,num_6,0.883431175258,,,2017_Aug_10_1636,60.0071020448,FEMA4ImagesEEG,001,101245,
AFNE01.JPG,AFNE01.JPG,AFNE01.JPG,AFNE01.JPG,AFNE01.JPG,AFNE01.JPG,,,,,,,,,,,,,,,,,,,,,2,0,20,2,,,AMNE12.jpg,AMSA04.jpg,AMNE19.jpg,AMSA02.jpg,AMNE19.jpg,MN,1,num_2,32,num_8,0.75013671536,,,2017_Aug_10_1636,60.0071020448,FEMA4ImagesEEG,001,101245,
AFNE01.JPG,AFNE01.JPG,AFNE01.JPG,AFNE01.JPG,AFNE01.JPG,AFNE01.JPG,,,,,,,,,,,,,,,,,,,,,2,1,21,1,,,AMNE03.jpg,AMNE17.jpg,AMSA15.jpg,AMSA20.jpg,AMSA20.jpg,MS,2,num_4,16,num_4,0.616774900351,,,2017_Aug_10_1636,60.0071020448,FEMA4ImagesEEG,001,101245,
AFNE01.JPG,AFNE01.JPG,AFNE01.JPG,AFNE01.JPG,AFNE01.JPG,AFNE01.JPG,,,,,,,,,,,,,,,,,,,,,2,2,22,0,,,AMNE11.jpg,AMSA05.jpg,AMSA06.jpg,AMNE02.jpg,AMNE02.jpg,MN,1,num_4,16,num_4,0.883471267764,,,2017_Aug_10_1636,60.0071020448,FEMA4ImagesEEG,001,101245,
AFNE01.JPG,AFNE01.JPG,AFNE01.JPG,AFNE01.JPG,AFNE01.JPG,AFNE01.JPG,,,,,,,,,,,,,,,,,,,,,2,3,23,4,,,AMSA12.jpg,AMNE10.jpg,AMNE04.jpg,AMSA16.jpg,AMNE04.jpg,MN,1,num_2,16,num_2,0.799793378916,,,2017_Aug_10_1636,60.0071020448,FEMA4ImagesEEG,001,101245,
AFNE01.JPG,AFNE01.JPG,AFNE01.JPG,AFNE01.JPG,AFNE01.JPG,AFNE01.JPG,,,,,,,,,,,,,,,,,,,,,2,4,24,6,,,AMNE09.jpg,AMSA04.jpg,AMNE17.jpg,AMSA16.jpg,AMNE17.jpg,MN,1,num_2,32,num_8,0.750089887064,,,2017_Aug_10_1636,60.0071020448,FEMA4ImagesEEG,001,101245,
AFNE01.JPG,AFNE01.JPG,AFNE01.JPG,AFNE01.JPG,AFNE01.JPG,AFNE01.JPG,,,,,,,,,,,,,,,,,,,,,2,5,25,8,,,AMNE10.jpg,AMNE18.jpg,AMSA09.jpg,AMSA01.jpg,AMNE18.jpg,MN,1,num_6,16,num_6,0.783474443015,,,2017_Aug_10_1636,60.0071020448,FEMA4ImagesEEG,001,101245,
AFNE01.JPG,AFNE01.JPG,AFNE01.JPG,AFNE01.JPG,AFNE01.JPG,AFNE01.JPG,,,,,,,,,,,,,,,,,,,,,2,6,26,3,,,AMNE17.jpg,AMNE11.jpg,AMSA16.jpg,AMSA14.jpg,AMNE11.jpg,MN,1,num_6,16,num_6,0.750202467199,,,2017_Aug_10_1636,60.0071020448,FEMA4ImagesEEG,001,101245,
AFNE01.JPG,AFNE01.JPG,AFNE01.JPG,AFNE01.JPG,AFNE01.JPG,AFNE01.JPG,,,,,,,,,,,,,,,,,,,,,2,7,27,9,,,AMSA04.jpg,AMNE20.jpg,AMSA18.jpg,AMNE08.jpg,AMNE20.jpg,MN,1,num_6,16,num_6,1.38340150658,,,2017_Aug_10_1636,60.0071020448,FEMA4ImagesEEG,001,101245,
AFNE01.JPG,AFNE01.JPG,AFNE01.JPG,AFNE01.JPG,AFNE01.JPG,AFNE01.JPG,,,,,,,,,,,,,,,,,,,,,2,8,28,5,,,AMSA04.jpg,AMNE10.jpg,AMNE18.jpg,AMSA09.jpg,AMSA09.jpg,MS,2,num_4,32,num_8,0.800168645568,,,2017_Aug_10_1636,60.0071020448,FEMA4ImagesEEG,001,101245,
AFNE01.JPG,AFNE01.JPG,AFNE01.JPG,AFNE01.JPG,AFNE01.JPG,AFNE01.JPG,,,,,,,,,,,,,,,,,,,,,2,9,29,7,,,AMSA16.jpg,AMSA03.jpg,AMNE18.jpg,AMNE12.jpg,AMNE18.jpg,MN,1,num_2,32,num_4,0.900120566599,,,2017_Aug_10_1636,60.0071020448,FEMA4ImagesEEG,001,101245,
AFNE01.JPG,AFNE01.JPG,AFNE01.JPG,AFNE01.JPG,AFNE01.JPG,AFNE01.JPG,,,,,,,,,,,,,,,,,,,,,3,0,30,3,,,AMSA11.jpg,AMNE18.jpg,AMNE02.jpg,AMSA16.jpg,AMNE18.jpg,MN,1,num_6,16,num_6,0.650101722684,,,2017_Aug_10_1636,60.0071020448,FEMA4ImagesEEG,001,101245,
AFNE01.JPG,AFNE01.JPG,AFNE01.JPG,AFNE01.JPG,AFNE01.JPG,AFNE01.JPG,,,,,,,,,,,,,,,,,,,,,3,1,31,6,,,AMNE17.jpg,AMNE09.jpg,AMSA19.jpg,AMSA17.jpg,AMNE09.jpg,MN,1,num_6,16,num_6,0.533460731152,,,2017_Aug_10_1636,60.0071020448,FEMA4ImagesEEG,001,101245,
AFNE01.JPG,AFNE01.JPG,AFNE01.JPG,AFNE01.JPG,AFNE01.JPG,AFNE01.JPG,,,,,,,,,,,,,,,,,,,,,3,2,32,9,,,AMNE20.jpg,AMNE15.jpg,AMSA06.jpg,AMSA13.jpg,AMSA06.jpg,MS,2,num_2,32,num_8,1.00011578714,,,2017_Aug_10_1636,60.0071020448,FEMA4ImagesEEG,001,101245,
AFNE01.JPG,AFNE01.JPG,AFNE01.JPG,AFNE01.JPG,AFNE01.JPG,AFNE01.JPG,,,,,,,,,,,,,,,,,,,,,3,3,33,7,,,AMSA10.jpg,AMNE09.jpg,AMNE05.jpg,AMSA08.jpg,AMNE09.jpg,MN,1,num_6,16,num_6,0.833446394186,,,2017_Aug_10_1636,60.0071020448,FEMA4ImagesEEG,001,101245,
AFNE01.JPG,AFNE01.JPG,AFNE01.JPG,AFNE01.JPG,AFNE01.JPG,AFNE01.JPG,,,,,,,,,,,,,,,,,,,,,3,4,34,2,,,AMSA02.jpg,AMNE09.jpg,AMSA06.jpg,AMNE07.jpg,AMSA06.jpg,MS,2,num_2,32,num_4,0.816756362095,,,2017_Aug_10_1636,60.0071020448,FEMA4ImagesEEG,001,101245,
AFNE01.JPG,AFNE01.JPG,AFNE01.JPG,AFNE01.JPG,AFNE01.JPG,AFNE01.JPG,,,,,,,,,,,,,,,,,,,,,3,5,35,1,,,AMNE10.jpg,AMSA02.jpg,AMSA19.jpg,AMNE17.jpg,AMNE10.jpg,MN,1,num_8,16,num_8,0.766784410458,,,2017_Aug_10_1636,60.0071020448,FEMA4ImagesEEG,001,101245,
AFNE01.JPG,AFNE01.JPG,AFNE01.JPG,AFNE01.JPG,AFNE01.JPG,AFNE01.JPG,,,,,,,,,,,,,,,,,,,,,3,6,36,5,,,AMNE09.jpg,AMSA09.jpg,AMNE07.jpg,AMSA07.jpg,AMNE07.jpg,MN,1,num_2,32,num_4,1.00007248716,,,2017_Aug_10_1636,60.0071020448,FEMA4ImagesEEG,001,101245,
AFNE01.JPG,AFNE01.JPG,AFNE01.JPG,AFNE01.JPG,AFNE01.JPG,AFNE01.JPG,,,,,,,,,,,,,,,,,,,,,3,7,37,0,,,AMNE15.jpg,AMNE10.jpg,AMSA18.jpg,AMSA08.jpg,AMNE15.jpg,MN,1,num_8,16,num_8,0.650165549945,,,2017_Aug_10_1636,60.0071020448,FEMA4ImagesEEG,001,101245,
AFNE01.JPG,AFNE01.JPG,AFNE01.JPG,AFNE01.JPG,AFNE01.JPG,AFNE01.JPG,,,,,,,,,,,,,,,,,,,,,3,8,38,4,,,AMSA11.jpg,AMNE03.jpg,AMNE15.jpg,AMSA17.jpg,AMNE15.jpg,MN,1,num_2,16,num_2,1.20003694901,,,2017_Aug_10_1636,60.0071020448,FEMA4ImagesEEG,001,101245,
