IPosition2,IPosition3,IPosition1,IPosition6,IPosition4,IPosition5,TrialsF1.thisRepN,TrialsF1.thisTrialN,TrialsF1.thisN,TrialsF1.thisIndex,TrialsM1.thisRepN,TrialsM1.thisTrialN,TrialsM1.thisN,TrialsM1.thisIndex,TrialsF2.thisRepN,TrialsF2.thisTrialN,TrialsF2.thisN,TrialsF2.thisIndex,TrialsM2.thisRepN,TrialsM2.thisTrialN,TrialsM2.thisN,TrialsM2.thisIndex,TrialsF3.thisRepN,TrialsF3.thisTrialN,TrialsF3.thisN,TrialsF3.thisIndex,TrialsM3.thisRepN,TrialsM3.thisTrialN,TrialsM3.thisN,TrialsM3.thisIndex,InstrKey_resp.keys,InstrKey_resp.rt,Image0 _Position,Image1 _Position,Image2 _Position,Image3 _Position,Center_image,condition,code,correct_answer,accuracy,Key_Resp.keys,Key_Resp.rt,BreakKey_resp.keys,BreakKey_resp.rt,date,frameRate,expName,session,participant,
,,,,,,,,,,,,,,,,,,,,,,,,,,,,,,space,30.0148855296,,,,,,,,,,,,,,2017_Aug_18_1301,60.0260104397,FEMA4ImagesEEG,001,101201,
AMSA25.JPG,AMNE24.JPG,AMSA24.JPG,AMNE26.JPG,AMSA21.JPG,AMNE25.JPG,0,0,0,3,,,,,,,,,,,,,,,,,,,,,,,AFSA13.jpg,AFSA09.jpg,AFNE10.jpg,AFNE15.jpg,AFSA13.jpg,FS,4,num_8,48,None,,,,2017_Aug_18_1301,60.0260104397,FEMA4ImagesEEG,001,101201,
AFSA21.JPG,AFNE22.JPG,AFNE21.JPG,AFSA23.JPG,AFSA22.JPG,AFNE23.JPG,0,1,1,0,,,,,,,,,,,,,,,,,,,,,,,AFNE15.jpg,AFSA03.jpg,AFSA06.jpg,AFNE04.jpg,AFSA03.jpg,FS,4,num_6,48,None,,,,2017_Aug_18_1301,60.0260104397,FEMA4ImagesEEG,001,101201,
AFNE22.JPG,AFSA24.JPG,AFSA22.JPG,AFNE25.JPG,AFNE24.JPG,AFSA25.JPG,0,2,2,6,,,,,,,,,,,,,,,,,,,,,,,AFNE13.jpg,AFSA18.jpg,AFSA11.jpg,AFNE04.jpg,AFNE13.jpg,FN,3,num_8,48,None,,,,2017_Aug_18_1301,60.0260104397,FEMA4ImagesEEG,001,101201,
AFNE23.JPG,AFNE24.JPG,AFNE22.JPG,AFSA24.JPG,AFSA22.JPG,AFSA23.JPG,0,3,3,8,,,,,,,,,,,,,,,,,,,,,,,AFNE14.jpg,AFSA13.jpg,AFSA11.jpg,AFNE18.jpg,AFNE18.jpg,FN,3,num_4,48,None,,,,2017_Aug_18_1301,60.0260104397,FEMA4ImagesEEG,001,101201,
AMSA21.JPG,AMNE22.JPG,AMNE21.JPG,AMSA23.JPG,AMSA22.JPG,AMNE23.JPG,0,4,4,1,,,,,,,,,,,,,,,,,,,,,,,AFSA14.jpg,AFNE20.jpg,AFNE13.jpg,AFSA15.jpg,AFSA14.jpg,FS,4,num_8,48,None,,,,2017_Aug_18_1301,60.0260104397,FEMA4ImagesEEG,001,101201,
AMNE22.JPG,AMSA24.JPG,AMSA22.JPG,AMNE25.JPG,AMNE24.JPG,AMSA25.JPG,0,5,5,7,,,,,,,,,,,,,,,,,,,,,,,AFSA15.jpg,AFSA12.jpg,AFNE07.jpg,AFNE15.jpg,AFSA15.jpg,FS,4,num_8,48,None,,,,2017_Aug_18_1301,60.0260104397,FEMA4ImagesEEG,001,101201,
AMSA21.JPG,AMNE23.JPG,AMNE21.JPG,AMSA25.JPG,AMNE25.JPG,AMSA23.JPG,0,6,6,5,,,,,,,,,,,,,,,,,,,,,,,AFSA13.jpg,AFNE13.jpg,AFSA01.jpg,AFNE10.jpg,AFNE13.jpg,FN,3,num_6,48,None,,,,2017_Aug_18_1301,60.0260104397,FEMA4ImagesEEG,001,101201,
AMNE23.JPG,AMNE24.JPG,AMNE22.JPG,AMSA24.JPG,AMSA22.JPG,AMSA23.JPG,0,7,7,9,,,,,,,,,,,,,,,,,,,,,,,AFNE12.jpg,AFSA19.jpg,AFNE15.jpg,AFSA12.jpg,AFNE12.jpg,FN,3,num_8,32,num_6,3.78328195616,,,2017_Aug_18_1301,60.0260104397,FEMA4ImagesEEG,001,101201,
AFSA25.JPG,AFNE24.JPG,AFSA24.JPG,AFNE21.JPG,AFSA21.JPG,AFNE25.JPG,0,8,8,2,,,,,,,,,,,,,,,,,,,,,,,AFSA06.jpg,AFSA09.jpg,AFNE19.jpg,AFNE11.jpg,AFNE19.jpg,FN,3,num_2,32,num_8,1.23338015063,,,2017_Aug_18_1301,60.0260104397,FEMA4ImagesEEG,001,101201,
AFSA21.JPG,AFNE23.JPG,AFNE21.JPG,AFSA25.JPG,AFNE25.JPG,AFSA23.JPG,0,9,9,4,,,,,,,,,,,,,,,,,,,,,,,AFSA06.jpg,AFSA13.jpg,AFNE15.jpg,AFNE01.jpg,AFSA06.jpg,FS,4,num_8,32,num_6,2.05003122403,,,2017_Aug_18_1301,60.0260104397,FEMA4ImagesEEG,001,101201,
AMSA21.JPG,AMNE23.JPG,AMNE21.JPG,AMSA25.JPG,AMNE25.JPG,AMSA23.JPG,,,,,0,0,0,5,,,,,,,,,,,,,,,,,,,AMSA11.jpg,AMNE06.jpg,AMNE14.jpg,AMSA01.jpg,AMNE14.jpg,MN,1,num_2,16,num_2,1.46678147011,,,2017_Aug_18_1301,60.0260104397,FEMA4ImagesEEG,001,101201,
AFSA21.JPG,AFNE22.JPG,AFNE21.JPG,AFSA23.JPG,AFSA22.JPG,AFNE23.JPG,,,,,0,1,1,0,,,,,,,,,,,,,,,,,,,AMNE04.jpg,AMSA20.jpg,AMSA17.jpg,AMNE10.jpg,AMNE10.jpg,MN,1,num_4,16,num_4,2.583364258,,,2017_Aug_18_1301,60.0260104397,FEMA4ImagesEEG,001,101201,
AFNE22.JPG,AFSA24.JPG,AFSA22.JPG,AFNE25.JPG,AFNE24.JPG,AFSA25.JPG,,,,,0,2,2,6,,,,,,,,,,,,,,,,,,,AMSA12.jpg,AMSA14.jpg,AMNE20.jpg,AMNE17.jpg,AMSA14.jpg,MS,2,num_6,16,num_6,1.03346084879,,,2017_Aug_18_1301,60.0260104397,FEMA4ImagesEEG,001,101201,
AMSA21.JPG,AMNE22.JPG,AMNE21.JPG,AMSA23.JPG,AMSA22.JPG,AMNE23.JPG,,,,,0,3,3,1,,,,,,,,,,,,,,,,,,,AMSA17.jpg,AMNE02.jpg,AMNE14.jpg,AMSA16.jpg,AMSA17.jpg,MS,2,num_8,32,num_4,2.24995982734,,,2017_Aug_18_1301,60.0260104397,FEMA4ImagesEEG,001,101201,
AFNE23.JPG,AFNE24.JPG,AFNE22.JPG,AFSA24.JPG,AFSA22.JPG,AFSA23.JPG,,,,,0,4,4,8,,,,,,,,,,,,,,,,,,,AMSA04.jpg,AMNE15.jpg,AMSA05.jpg,AMNE03.jpg,AMNE03.jpg,MN,1,num_4,32,num_8,1.23346225999,,,2017_Aug_18_1301,60.0260104397,FEMA4ImagesEEG,001,101201,
AMNE22.JPG,AMSA24.JPG,AMSA22.JPG,AMNE25.JPG,AMNE24.JPG,AMSA25.JPG,,,,,0,5,5,7,,,,,,,,,,,,,,,,,,,AMSA13.jpg,AMSA08.jpg,AMNE18.jpg,AMNE15.jpg,AMSA13.jpg,MS,2,num_8,32,num_6,0.766861045617,,,2017_Aug_18_1301,60.0260104397,FEMA4ImagesEEG,001,101201,
AMSA25.JPG,AMNE24.JPG,AMSA24.JPG,AMNE26.JPG,AMSA21.JPG,AMNE25.JPG,,,,,0,6,6,3,,,,,,,,,,,,,,,,,,,AMNE17.jpg,AMNE13.jpg,AMSA07.jpg,AMSA14.jpg,AMSA07.jpg,MS,2,num_2,32,num_8,0.683482835477,,,2017_Aug_18_1301,60.0260104397,FEMA4ImagesEEG,001,101201,
AFSA25.JPG,AFNE24.JPG,AFSA24.JPG,AFNE21.JPG,AFSA21.JPG,AFNE25.JPG,,,,,0,7,7,2,,,,,,,,,,,,,,,,,,,AMSA04.jpg,AMNE16.jpg,AMSA10.jpg,AMNE17.jpg,AMNE17.jpg,MN,1,num_4,32,num_8,1.01674453693,,,2017_Aug_18_1301,60.0260104397,FEMA4ImagesEEG,001,101201,
AFSA21.JPG,AFNE23.JPG,AFNE21.JPG,AFSA25.JPG,AFNE25.JPG,AFSA23.JPG,,,,,0,8,8,4,,,,,,,,,,,,,,,,,,,AMNE09.jpg,AMSA17.jpg,AMNE12.jpg,AMSA16.jpg,AMNE12.jpg,MN,1,num_2,16,num_2,0.950090015598,,,2017_Aug_18_1301,60.0260104397,FEMA4ImagesEEG,001,101201,
AMNE23.JPG,AMNE24.JPG,AMNE22.JPG,AMSA24.JPG,AMSA22.JPG,AMSA23.JPG,,,,,0,9,9,9,,,,,,,,,,,,,,,,,,,AMNE19.jpg,AMNE14.jpg,AMSA15.jpg,AMSA02.jpg,AMSA02.jpg,MS,2,num_4,32,num_6,0.716859971115,,,2017_Aug_18_1301,60.0260104397,FEMA4ImagesEEG,001,101201,
AMSA25.JPG,AMNE24.JPG,AMSA24.JPG,AMNE26.JPG,AMSA21.JPG,AMNE25.JPG,,,,,,,,,0,0,0,3,,,,,,,,,,,,,,,AFNE13.jpg,AFSA11.jpg,AFSA16.jpg,AFNE10.jpg,AFSA11.jpg,FS,4,num_6,32,num_8,1.25014617713,,,2017_Aug_18_1301,60.0260104397,FEMA4ImagesEEG,001,101201,
AMNE23.JPG,AMNE24.JPG,AMNE22.JPG,AMSA24.JPG,AMSA22.JPG,AMSA23.JPG,,,,,,,,,0,1,1,9,,,,,,,,,,,,,,,AFNE11.jpg,AFSA20.jpg,AFSA01.jpg,AFNE06.jpg,AFNE06.jpg,FN,3,num_4,32,num_8,0.95009707188,,,2017_Aug_18_1301,60.0260104397,FEMA4ImagesEEG,001,101201,
AFSA21.JPG,AFNE23.JPG,AFNE21.JPG,AFSA25.JPG,AFNE25.JPG,AFSA23.JPG,,,,,,,,,0,2,2,4,,,,,,,,,,,,,,,AFNE19.jpg,AFSA11.jpg,AFSA02.jpg,AFNE03.jpg,AFNE03.jpg,FN,3,num_4,16,num_4,0.600150491053,,,2017_Aug_18_1301,60.0260104397,FEMA4ImagesEEG,001,101201,
AFNE23.JPG,AFNE24.JPG,AFNE22.JPG,AFSA24.JPG,AFSA22.JPG,AFSA23.JPG,,,,,,,,,0,3,3,8,,,,,,,,,,,,,,,AFNE09.jpg,AFNE18.jpg,AFSA02.jpg,AFSA12.jpg,AFSA02.jpg,FS,4,num_2,16,num_2,2.18336977466,,,2017_Aug_18_1301,60.0260104397,FEMA4ImagesEEG,001,101201,
AFNE22.JPG,AFSA24.JPG,AFSA22.JPG,AFNE25.JPG,AFNE24.JPG,AFSA25.JPG,,,,,,,,,0,4,4,6,,,,,,,,,,,,,,,AFSA18.jpg,AFNE03.jpg,AFNE14.jpg,AFSA06.jpg,AFNE03.jpg,FN,3,num_6,16,num_6,1.26684228232,,,2017_Aug_18_1301,60.0260104397,FEMA4ImagesEEG,001,101201,
AFSA25.JPG,AFNE24.JPG,AFSA24.JPG,AFNE21.JPG,AFSA21.JPG,AFNE25.JPG,,,,,,,,,0,5,5,2,,,,,,,,,,,,,,,AFSA03.jpg,AFNE19.jpg,AFSA13.jpg,AFNE08.jpg,AFSA03.jpg,FS,4,num_8,32,num_4,1.38356555422,,,2017_Aug_18_1301,60.0260104397,FEMA4ImagesEEG,001,101201,
AFSA21.JPG,AFNE22.JPG,AFNE21.JPG,AFSA23.JPG,AFSA22.JPG,AFNE23.JPG,,,,,,,,,0,6,6,0,,,,,,,,,,,,,,,AFSA05.jpg,AFNE17.jpg,AFSA02.jpg,AFNE13.jpg,AFNE17.jpg,FN,3,num_6,32,num_4,2.18330338161,,,2017_Aug_18_1301,60.0260104397,FEMA4ImagesEEG,001,101201,
AMSA21.JPG,AMNE22.JPG,AMNE21.JPG,AMSA23.JPG,AMSA22.JPG,AMNE23.JPG,,,,,,,,,0,7,7,1,,,,,,,,,,,,,,,AFNE02.jpg,AFSA03.jpg,AFNE01.jpg,AFSA14.jpg,AFNE02.jpg,FN,3,num_8,16,num_8,0.816647224477,,,2017_Aug_18_1301,60.0260104397,FEMA4ImagesEEG,001,101201,
AMSA21.JPG,AMNE23.JPG,AMNE21.JPG,AMSA25.JPG,AMNE25.JPG,AMSA23.JPG,,,,,,,,,0,8,8,5,,,,,,,,,,,,,,,AFNE10.jpg,AFSA14.jpg,AFSA04.jpg,AFNE18.jpg,AFNE18.jpg,FN,3,num_4,32,num_2,0.533320845861,,,2017_Aug_18_1301,60.0260104397,FEMA4ImagesEEG,001,101201,
AMNE22.JPG,AMSA24.JPG,AMSA22.JPG,AMNE25.JPG,AMNE24.JPG,AMSA25.JPG,,,,,,,,,0,9,9,7,,,,,,,,,,,,,,,AFSA10.jpg,AFSA07.jpg,AFNE09.jpg,AFNE12.jpg,AFNE12.jpg,FN,3,num_4,16,num_4,0.666813993128,,,2017_Aug_18_1301,60.0260104397,FEMA4ImagesEEG,001,101201,
AFNE22.JPG,AFSA24.JPG,AFSA22.JPG,AFNE25.JPG,AFNE24.JPG,AFSA25.JPG,,,,,,,,,,,,,0,0,0,6,,,,,,,,,,,AMSA07.jpg,AMSA02.jpg,AMNE09.jpg,AMNE05.jpg,AMNE09.jpg,MN,1,num_2,32,num_8,0.683512664225,,,2017_Aug_18_1301,60.0260104397,FEMA4ImagesEEG,001,101201,
AFSA21.JPG,AFNE22.JPG,AFNE21.JPG,AFSA23.JPG,AFSA22.JPG,AFNE23.JPG,,,,,,,,,,,,,0,1,1,0,,,,,,,,,,,AMNE04.jpg,AMSA18.jpg,AMNE13.jpg,AMSA15.jpg,AMSA15.jpg,MS,2,num_4,16,num_4,0.9834228892,,,2017_Aug_18_1301,60.0260104397,FEMA4ImagesEEG,001,101201,
AMSA21.JPG,AMNE22.JPG,AMNE21.JPG,AMSA23.JPG,AMSA22.JPG,AMNE23.JPG,,,,,,,,,,,,,0,2,2,1,,,,,,,,,,,AMSA04.jpg,AMNE18.jpg,AMSA20.jpg,AMNE03.jpg,AMSA20.jpg,MS,2,num_2,32,num_4,0.700076304027,,,2017_Aug_18_1301,60.0260104397,FEMA4ImagesEEG,001,101201,
AMSA25.JPG,AMNE24.JPG,AMSA24.JPG,AMNE26.JPG,AMSA21.JPG,AMNE25.JPG,,,,,,,,,,,,,0,3,3,3,,,,,,,,,,,AMSA09.jpg,AMNE02.jpg,AMNE18.jpg,AMSA07.jpg,AMSA09.jpg,MS,2,num_8,32,num_4,0.683541210077,,,2017_Aug_18_1301,60.0260104397,FEMA4ImagesEEG,001,101201,
AMNE22.JPG,AMSA24.JPG,AMSA22.JPG,AMNE25.JPG,AMNE24.JPG,AMSA25.JPG,,,,,,,,,,,,,0,4,4,7,,,,,,,,,,,AMSA08.jpg,AMSA15.jpg,AMNE15.jpg,AMNE08.jpg,AMSA15.jpg,MS,2,num_6,32,num_4,1.86668325961,,,2017_Aug_18_1301,60.0260104397,FEMA4ImagesEEG,001,101201,
AFSA25.JPG,AFNE24.JPG,AFSA24.JPG,AFNE21.JPG,AFSA21.JPG,AFNE25.JPG,,,,,,,,,,,,,0,5,5,2,,,,,,,,,,,AMSA12.jpg,AMNE10.jpg,AMNE06.jpg,AMSA14.jpg,AMSA12.jpg,MS,2,num_8,32,num_4,0.683339785552,,,2017_Aug_18_1301,60.0260104397,FEMA4ImagesEEG,001,101201,
AMNE23.JPG,AMNE24.JPG,AMNE22.JPG,AMSA24.JPG,AMSA22.JPG,AMSA23.JPG,,,,,,,,,,,,,0,6,6,9,,,,,,,,,,,AMNE20.jpg,AMNE12.jpg,AMSA19.jpg,AMSA10.jpg,AMNE20.jpg,MN,1,num_8,16,num_8,0.833448532328,,,2017_Aug_18_1301,60.0260104397,FEMA4ImagesEEG,001,101201,
AFSA21.JPG,AFNE23.JPG,AFNE21.JPG,AFSA25.JPG,AFNE25.JPG,AFSA23.JPG,,,,,,,,,,,,,0,7,7,4,,,,,,,,,,,AMNE07.jpg,AMSA11.jpg,AMSA02.jpg,AMNE12.jpg,AMNE07.jpg,MN,1,num_8,32,num_2,0.683417725319,,,2017_Aug_18_1301,60.0260104397,FEMA4ImagesEEG,001,101201,
AFNE23.JPG,AFNE24.JPG,AFNE22.JPG,AFSA24.JPG,AFSA22.JPG,AFSA23.JPG,,,,,,,,,,,,,0,8,8,8,,,,,,,,,,,AMNE02.jpg,AMNE06.jpg,AMSA08.jpg,AMSA11.jpg,AMSA11.jpg,MS,2,num_4,32,num_8,1.53347031056,,,2017_Aug_18_1301,60.0260104397,FEMA4ImagesEEG,001,101201,
AMSA21.JPG,AMNE23.JPG,AMNE21.JPG,AMSA25.JPG,AMNE25.JPG,AMSA23.JPG,,,,,,,,,,,,,0,9,9,5,,,,,,,,,,,AMSA18.jpg,AMNE09.jpg,AMNE10.jpg,AMSA12.jpg,AMSA12.jpg,MS,2,num_4,32,num_8,1.00008371304,,,2017_Aug_18_1301,60.0260104397,FEMA4ImagesEEG,001,101201,
AFSA25.JPG,AFNE24.JPG,AFSA24.JPG,AFNE21.JPG,AFSA21.JPG,AFNE25.JPG,,,,,,,,,,,,,,,,,0,0,0,2,,,,,,,AFNE11.jpg,AFSA18.jpg,AFNE18.jpg,AFSA03.jpg,AFNE18.jpg,FN,3,num_2,16,num_2,0.783465740038,,,2017_Aug_18_1301,60.0260104397,FEMA4ImagesEEG,001,101201,
AFNE22.JPG,AFSA24.JPG,AFSA22.JPG,AFNE25.JPG,AFNE24.JPG,AFSA25.JPG,,,,,,,,,,,,,,,,,0,1,1,6,,,,,,,AFSA11.jpg,AFSA02.jpg,AFNE12.jpg,AFNE06.jpg,AFNE06.jpg,FN,3,num_4,32,num_8,0.800110526907,,,2017_Aug_18_1301,60.0260104397,FEMA4ImagesEEG,001,101201,
AMSA25.JPG,AMNE24.JPG,AMSA24.JPG,AMNE26.JPG,AMSA21.JPG,AMNE25.JPG,,,,,,,,,,,,,,,,,0,2,2,3,,,,,,,AFSA02.jpg,AFSA04.jpg,AFNE19.jpg,AFNE17.jpg,AFSA04.jpg,FS,4,num_6,32,num_4,0.89994236303,,,2017_Aug_18_1301,60.0260104397,FEMA4ImagesEEG,001,101201,
AMSA21.JPG,AMNE22.JPG,AMNE21.JPG,AMSA23.JPG,AMSA22.JPG,AMNE23.JPG,,,,,,,,,,,,,,,,,0,3,3,1,,,,,,,AFNE06.jpg,AFNE02.jpg,AFSA05.jpg,AFSA18.jpg,AFSA18.jpg,FS,4,num_4,32,num_8,0.883459229022,,,2017_Aug_18_1301,60.0260104397,FEMA4ImagesEEG,001,101201,
AFSA21.JPG,AFNE23.JPG,AFNE21.JPG,AFSA25.JPG,AFNE25.JPG,AFSA23.JPG,,,,,,,,,,,,,,,,,0,4,4,4,,,,,,,AFSA09.jpg,AFNE15.jpg,AFNE20.jpg,AFSA10.jpg,AFSA09.jpg,FS,4,num_8,32,num_6,1.20014349895,,,2017_Aug_18_1301,60.0260104397,FEMA4ImagesEEG,001,101201,
AMSA21.JPG,AMNE23.JPG,AMNE21.JPG,AMSA25.JPG,AMNE25.JPG,AMSA23.JPG,,,,,,,,,,,,,,,,,0,5,5,5,,,,,,,AFNE10.jpg,AFNE01.jpg,AFSA17.jpg,AFSA11.jpg,AFSA11.jpg,FS,4,num_4,16,num_4,1.28344441089,,,2017_Aug_18_1301,60.0260104397,FEMA4ImagesEEG,001,101201,
AMNE22.JPG,AMSA24.JPG,AMSA22.JPG,AMNE25.JPG,AMNE24.JPG,AMSA25.JPG,,,,,,,,,,,,,,,,,0,6,6,7,,,,,,,AFSA12.jpg,AFNE05.jpg,AFNE11.jpg,AFSA10.jpg,AFSA10.jpg,FS,4,num_4,16,num_4,1.16670253605,,,2017_Aug_18_1301,60.0260104397,FEMA4ImagesEEG,001,101201,
AFNE23.JPG,AFNE24.JPG,AFNE22.JPG,AFSA24.JPG,AFSA22.JPG,AFSA23.JPG,,,,,,,,,,,,,,,,,0,7,7,8,,,,,,,AFNE13.jpg,AFNE01.jpg,AFSA08.jpg,AFSA06.jpg,AFSA08.jpg,FS,4,num_2,32,num_6,1.38341641024,,,2017_Aug_18_1301,60.0260104397,FEMA4ImagesEEG,001,101201,
AFSA21.JPG,AFNE22.JPG,AFNE21.JPG,AFSA23.JPG,AFSA22.JPG,AFNE23.JPG,,,,,,,,,,,,,,,,,0,8,8,0,,,,,,,AFSA17.jpg,AFNE16.jpg,AFNE07.jpg,AFSA10.jpg,AFSA17.jpg,FS,4,num_8,32,num_6,0.483486235316,,,2017_Aug_18_1301,60.0260104397,FEMA4ImagesEEG,001,101201,
AMNE23.JPG,AMNE24.JPG,AMNE22.JPG,AMSA24.JPG,AMSA22.JPG,AMSA23.JPG,,,,,,,,,,,,,,,,,0,9,9,9,,,,,,,AFSA01.jpg,AFNE09.jpg,AFSA12.jpg,AFNE08.jpg,AFNE08.jpg,FN,3,num_4,32,num_8,0.816757879744,,,2017_Aug_18_1301,60.0260104397,FEMA4ImagesEEG,001,101201,
AFSA25.JPG,AFNE24.JPG,AFSA24.JPG,AFNE21.JPG,AFSA21.JPG,AFNE25.JPG,,,,,,,,,,,,,,,,,,,,,0,0,0,2,,,AMNE08.jpg,AMNE16.jpg,AMSA20.jpg,AMSA18.jpg,AMSA20.jpg,MS,2,num_2,32,num_6,0.800145487534,,,2017_Aug_18_1301,60.0260104397,FEMA4ImagesEEG,001,101201,
AMSA21.JPG,AMNE22.JPG,AMNE21.JPG,AMSA23.JPG,AMSA22.JPG,AMNE23.JPG,,,,,,,,,,,,,,,,,,,,,0,1,1,1,,,AMSA07.jpg,AMNE16.jpg,AMNE03.jpg,AMSA08.jpg,AMNE16.jpg,MN,1,num_6,32,num_8,0.666803087981,,,2017_Aug_18_1301,60.0260104397,FEMA4ImagesEEG,001,101201,
AFNE22.JPG,AFSA24.JPG,AFSA22.JPG,AFNE25.JPG,AFNE24.JPG,AFSA25.JPG,,,,,,,,,,,,,,,,,,,,,0,2,2,6,,,AMSA06.jpg,AMNE07.jpg,AMSA09.jpg,AMNE13.jpg,AMSA09.jpg,MS,2,num_2,32,num_4,0.666936194932,,,2017_Aug_18_1301,60.0260104397,FEMA4ImagesEEG,001,101201,
AMSA25.JPG,AMNE24.JPG,AMSA24.JPG,AMNE26.JPG,AMSA21.JPG,AMNE25.JPG,,,,,,,,,,,,,,,,,,,,,0,3,3,3,,,AMSA02.jpg,AMNE07.jpg,AMNE11.jpg,AMSA19.jpg,AMSA19.jpg,MS,2,num_4,32,num_2,1.21674626891,,,2017_Aug_18_1301,60.0260104397,FEMA4ImagesEEG,001,101201,
AFSA21.JPG,AFNE23.JPG,AFNE21.JPG,AFSA25.JPG,AFNE25.JPG,AFSA23.JPG,,,,,,,,,,,,,,,,,,,,,0,4,4,4,,,AMNE04.jpg,AMSA14.jpg,AMNE03.jpg,AMSA07.jpg,AMNE03.jpg,MN,1,num_2,32,num_4,2.11664116249,,,2017_Aug_18_1301,60.0260104397,FEMA4ImagesEEG,001,101201,
AMSA21.JPG,AMNE23.JPG,AMNE21.JPG,AMSA25.JPG,AMNE25.JPG,AMSA23.JPG,,,,,,,,,,,,,,,,,,,,,0,5,5,5,,,AMNE15.jpg,AMSA14.jpg,AMSA04.jpg,AMNE17.jpg,AMNE17.jpg,MN,1,num_4,48,None,,,,2017_Aug_18_1301,60.0260104397,FEMA4ImagesEEG,001,101201,
AMNE22.JPG,AMSA24.JPG,AMSA22.JPG,AMNE25.JPG,AMNE24.JPG,AMSA25.JPG,,,,,,,,,,,,,,,,,,,,,0,6,6,7,,,AMNE01.jpg,AMSA15.jpg,AMNE18.jpg,AMSA01.jpg,AMSA01.jpg,MS,2,num_4,32,num_8,0.866740672034,,,2017_Aug_18_1301,60.0260104397,FEMA4ImagesEEG,001,101201,
AFNE23.JPG,AFNE24.JPG,AFNE22.JPG,AFSA24.JPG,AFSA22.JPG,AFSA23.JPG,,,,,,,,,,,,,,,,,,,,,0,7,7,8,,,AMSA08.jpg,AMNE14.jpg,AMNE05.jpg,AMSA01.jpg,AMNE14.jpg,MN,1,num_6,32,num_8,1.0834243967,,,2017_Aug_18_1301,60.0260104397,FEMA4ImagesEEG,001,101201,
AFSA21.JPG,AFNE22.JPG,AFNE21.JPG,AFSA23.JPG,AFSA22.JPG,AFNE23.JPG,,,,,,,,,,,,,,,,,,,,,0,8,8,0,,,AMNE20.jpg,AMSA16.jpg,AMNE12.jpg,AMSA17.jpg,AMNE12.jpg,MN,1,num_2,32,num_6,1.18340794271,,,2017_Aug_18_1301,60.0260104397,FEMA4ImagesEEG,001,101201,
AMNE23.JPG,AMNE24.JPG,AMNE22.JPG,AMSA24.JPG,AMSA22.JPG,AMSA23.JPG,,,,,,,,,,,,,,,,,,,,,0,9,9,9,,,AMSA07.jpg,AMNE12.jpg,AMSA16.jpg,AMNE19.jpg,AMSA07.jpg,MS,2,num_8,32,num_4,1.13349250576,,,2017_Aug_18_1301,60.0260104397,FEMA4ImagesEEG,001,101201,
,,,,,,,,,,,,,,,,,,,,,,,,,,,,,,,,,,,,,,,,,,,space,7.59928032424,2017_Aug_18_1301,60.0260104397,FEMA4ImagesEEG,001,101201,
AFNE01.JPG,AFNE01.JPG,AFNE01.JPG,AFNE01.JPG,AFNE01.JPG,AFNE01.JPG,0,0,0,5,,,,,,,,,,,,,,,,,,,,,,,AFNE12.jpg,AFNE17.jpg,AFSA01.jpg,AFSA15.jpg,AFSA15.jpg,FS,4,num_4,16,num_4,0.950138768065,,,2017_Aug_18_1301,60.0260104397,FEMA4ImagesEEG,001,101201,
AFNE01.JPG,AFNE01.JPG,AFNE01.JPG,AFNE01.JPG,AFNE01.JPG,AFNE01.JPG,0,1,1,2,,,,,,,,,,,,,,,,,,,,,,,AFSA15.jpg,AFSA01.jpg,AFNE08.jpg,AFNE20.jpg,AFNE20.jpg,FN,3,num_4,16,num_4,0.70010484982,,,2017_Aug_18_1301,60.0260104397,FEMA4ImagesEEG,001,101201,
AFNE01.JPG,AFNE01.JPG,AFNE01.JPG,AFNE01.JPG,AFNE01.JPG,AFNE01.JPG,0,2,2,1,,,,,,,,,,,,,,,,,,,,,,,AFSA20.jpg,AFNE05.jpg,AFNE07.jpg,AFSA03.jpg,AFNE05.jpg,FN,3,num_6,32,num_2,1.28371254925,,,2017_Aug_18_1301,60.0260104397,FEMA4ImagesEEG,001,101201,
AFNE01.JPG,AFNE01.JPG,AFNE01.JPG,AFNE01.JPG,AFNE01.JPG,AFNE01.JPG,0,3,3,4,,,,,,,,,,,,,,,,,,,,,,,AFNE03.jpg,AFSA04.jpg,AFNE01.jpg,AFSA16.jpg,AFSA16.jpg,FS,4,num_4,32,num_8,1.35005723598,,,2017_Aug_18_1301,60.0260104397,FEMA4ImagesEEG,001,101201,
AFNE01.JPG,AFNE01.JPG,AFNE01.JPG,AFNE01.JPG,AFNE01.JPG,AFNE01.JPG,0,4,4,9,,,,,,,,,,,,,,,,,,,,,,,AFNE05.jpg,AFNE06.jpg,AFSA11.jpg,AFSA20.jpg,AFSA20.jpg,FS,4,num_4,16,num_4,0.683460383676,,,2017_Aug_18_1301,60.0260104397,FEMA4ImagesEEG,001,101201,
AFNE01.JPG,AFNE01.JPG,AFNE01.JPG,AFNE01.JPG,AFNE01.JPG,AFNE01.JPG,0,5,5,0,,,,,,,,,,,,,,,,,,,,,,,AFNE19.jpg,AFSA11.jpg,AFSA16.jpg,AFNE07.jpg,AFNE19.jpg,FN,3,num_8,32,num_4,1.21684473602,,,2017_Aug_18_1301,60.0260104397,FEMA4ImagesEEG,001,101201,
AFNE01.JPG,AFNE01.JPG,AFNE01.JPG,AFNE01.JPG,AFNE01.JPG,AFNE01.JPG,0,6,6,7,,,,,,,,,,,,,,,,,,,,,,,AFSA20.jpg,AFNE06.jpg,AFSA08.jpg,AFNE14.jpg,AFNE14.jpg,FN,3,num_4,32,num_2,0.783136661106,,,2017_Aug_18_1301,60.0260104397,FEMA4ImagesEEG,001,101201,
AFNE01.JPG,AFNE01.JPG,AFNE01.JPG,AFNE01.JPG,AFNE01.JPG,AFNE01.JPG,0,7,7,6,,,,,,,,,,,,,,,,,,,,,,,AFSA11.jpg,AFNE15.jpg,AFSA17.jpg,AFNE05.jpg,AFSA11.jpg,FS,4,num_8,32,num_4,1.3001389124,,,2017_Aug_18_1301,60.0260104397,FEMA4ImagesEEG,001,101201,
AFNE01.JPG,AFNE01.JPG,AFNE01.JPG,AFNE01.JPG,AFNE01.JPG,AFNE01.JPG,0,8,8,3,,,,,,,,,,,,,,,,,,,,,,,AFSA15.jpg,AFNE07.jpg,AFNE19.jpg,AFSA20.jpg,AFSA15.jpg,FS,4,num_8,16,num_8,1.26671366574,,,2017_Aug_18_1301,60.0260104397,FEMA4ImagesEEG,001,101201,
AFNE01.JPG,AFNE01.JPG,AFNE01.JPG,AFNE01.JPG,AFNE01.JPG,AFNE01.JPG,0,9,9,8,,,,,,,,,,,,,,,,,,,,,,,AFSA07.jpg,AFNE04.jpg,AFSA16.jpg,AFNE16.jpg,AFNE04.jpg,FN,3,num_6,32,num_8,1.01671855699,,,2017_Aug_18_1301,60.0260104397,FEMA4ImagesEEG,001,101201,
AFNE01.JPG,AFNE01.JPG,AFNE01.JPG,AFNE01.JPG,AFNE01.JPG,AFNE01.JPG,1,0,10,8,,,,,,,,,,,,,,,,,,,,,,,AFNE17.jpg,AFNE13.jpg,AFSA16.jpg,AFSA02.jpg,AFSA02.jpg,FS,4,num_4,16,num_4,1.13341071713,,,2017_Aug_18_1301,60.0260104397,FEMA4ImagesEEG,001,101201,
AFNE01.JPG,AFNE01.JPG,AFNE01.JPG,AFNE01.JPG,AFNE01.JPG,AFNE01.JPG,1,1,11,1,,,,,,,,,,,,,,,,,,,,,,,AFNE02.jpg,AFNE07.jpg,AFSA12.jpg,AFSA11.jpg,AFNE07.jpg,FN,3,num_6,32,num_4,0.617023323837,,,2017_Aug_18_1301,60.0260104397,FEMA4ImagesEEG,001,101201,
AFNE01.JPG,AFNE01.JPG,AFNE01.JPG,AFNE01.JPG,AFNE01.JPG,AFNE01.JPG,1,2,12,7,,,,,,,,,,,,,,,,,,,,,,,AFSA18.jpg,AFSA08.jpg,AFNE19.jpg,AFNE11.jpg,AFSA08.jpg,FS,4,num_6,32,num_8,0.833369309606,,,2017_Aug_18_1301,60.0260104397,FEMA4ImagesEEG,001,101201,
AFNE01.JPG,AFNE01.JPG,AFNE01.JPG,AFNE01.JPG,AFNE01.JPG,AFNE01.JPG,1,3,13,2,,,,,,,,,,,,,,,,,,,,,,,AFNE16.jpg,AFSA15.jpg,AFNE05.jpg,AFSA13.jpg,AFNE16.jpg,FN,3,num_8,32,num_6,0.700179582112,,,2017_Aug_18_1301,60.0260104397,FEMA4ImagesEEG,001,101201,
AFNE01.JPG,AFNE01.JPG,AFNE01.JPG,AFNE01.JPG,AFNE01.JPG,AFNE01.JPG,1,4,14,5,,,,,,,,,,,,,,,,,,,,,,,AFNE03.jpg,AFNE15.jpg,AFSA04.jpg,AFSA08.jpg,AFSA08.jpg,FS,4,num_4,32,num_6,0.583541306318,,,2017_Aug_18_1301,60.0260104397,FEMA4ImagesEEG,001,101201,
AFNE01.JPG,AFNE01.JPG,AFNE01.JPG,AFNE01.JPG,AFNE01.JPG,AFNE01.JPG,1,5,15,4,,,,,,,,,,,,,,,,,,,,,,,AFSA17.jpg,AFNE15.jpg,AFSA12.jpg,AFNE03.jpg,AFNE15.jpg,FN,3,num_6,32,num_8,0.883465002291,,,2017_Aug_18_1301,60.0260104397,FEMA4ImagesEEG,001,101201,
AFNE01.JPG,AFNE01.JPG,AFNE01.JPG,AFNE01.JPG,AFNE01.JPG,AFNE01.JPG,1,6,16,9,,,,,,,,,,,,,,,,,,,,,,,AFNE13.jpg,AFSA08.jpg,AFSA15.jpg,AFNE16.jpg,AFNE16.jpg,FN,3,num_4,16,num_4,0.750178732211,,,2017_Aug_18_1301,60.0260104397,FEMA4ImagesEEG,001,101201,
AFNE01.JPG,AFNE01.JPG,AFNE01.JPG,AFNE01.JPG,AFNE01.JPG,AFNE01.JPG,1,7,17,0,,,,,,,,,,,,,,,,,,,,,,,AFNE01.jpg,AFNE18.jpg,AFSA13.jpg,AFSA17.jpg,AFSA13.jpg,FS,4,num_2,32,num_4,0.666765561386,,,2017_Aug_18_1301,60.0260104397,FEMA4ImagesEEG,001,101201,
AFNE01.JPG,AFNE01.JPG,AFNE01.JPG,AFNE01.JPG,AFNE01.JPG,AFNE01.JPG,1,8,18,6,,,,,,,,,,,,,,,,,,,,,,,AFSA15.jpg,AFSA06.jpg,AFNE19.jpg,AFNE02.jpg,AFSA15.jpg,FS,4,num_8,16,num_8,0.416802205902,,,2017_Aug_18_1301,60.0260104397,FEMA4ImagesEEG,001,101201,
AFNE01.JPG,AFNE01.JPG,AFNE01.JPG,AFNE01.JPG,AFNE01.JPG,AFNE01.JPG,1,9,19,3,,,,,,,,,,,,,,,,,,,,,,,AFSA07.jpg,AFSA17.jpg,AFNE16.jpg,AFNE03.jpg,AFSA07.jpg,FS,4,num_8,32,num_6,0.266844527505,,,2017_Aug_18_1301,60.0260104397,FEMA4ImagesEEG,001,101201,
AFNE01.JPG,AFNE01.JPG,AFNE01.JPG,AFNE01.JPG,AFNE01.JPG,AFNE01.JPG,2,0,20,7,,,,,,,,,,,,,,,,,,,,,,,AFNE09.jpg,AFSA07.jpg,AFNE19.jpg,AFSA14.jpg,AFNE09.jpg,FN,3,num_8,16,num_8,1.50011402293,,,2017_Aug_18_1301,60.0260104397,FEMA4ImagesEEG,001,101201,
AFNE01.JPG,AFNE01.JPG,AFNE01.JPG,AFNE01.JPG,AFNE01.JPG,AFNE01.JPG,2,1,21,2,,,,,,,,,,,,,,,,,,,,,,,AFNE10.jpg,AFSA16.jpg,AFNE17.jpg,AFSA14.jpg,AFNE17.jpg,FN,3,num_2,32,num_4,0.950113750296,,,2017_Aug_18_1301,60.0260104397,FEMA4ImagesEEG,001,101201,
AFNE01.JPG,AFNE01.JPG,AFNE01.JPG,AFNE01.JPG,AFNE01.JPG,AFNE01.JPG,2,2,22,5,,,,,,,,,,,,,,,,,,,,,,,AFSA20.jpg,AFSA01.jpg,AFNE06.jpg,AFNE10.jpg,AFNE06.jpg,FN,3,num_2,32,num_6,1.06676421431,,,2017_Aug_18_1301,60.0260104397,FEMA4ImagesEEG,001,101201,
AFNE01.JPG,AFNE01.JPG,AFNE01.JPG,AFNE01.JPG,AFNE01.JPG,AFNE01.JPG,2,3,23,3,,,,,,,,,,,,,,,,,,,,,,,AFSA15.jpg,AFNE01.jpg,AFSA18.jpg,AFNE07.jpg,AFSA18.jpg,FS,4,num_2,32,num_6,0.700390308164,,,2017_Aug_18_1301,60.0260104397,FEMA4ImagesEEG,001,101201,
AFNE01.JPG,AFNE01.JPG,AFNE01.JPG,AFNE01.JPG,AFNE01.JPG,AFNE01.JPG,2,4,24,4,,,,,,,,,,,,,,,,,,,,,,,AFSA08.jpg,AFNE17.jpg,AFSA02.jpg,AFNE11.jpg,AFNE11.jpg,FN,3,num_4,32,num_8,3.28348257887,,,2017_Aug_18_1301,60.0260104397,FEMA4ImagesEEG,001,101201,
AFNE01.JPG,AFNE01.JPG,AFNE01.JPG,AFNE01.JPG,AFNE01.JPG,AFNE01.JPG,2,5,25,6,,,,,,,,,,,,,,,,,,,,,,,AFSA08.jpg,AFSA14.jpg,AFNE02.jpg,AFNE19.jpg,AFSA14.jpg,FS,4,num_6,32,num_2,0.63345898845,,,2017_Aug_18_1301,60.0260104397,FEMA4ImagesEEG,001,101201,
AFNE01.JPG,AFNE01.JPG,AFNE01.JPG,AFNE01.JPG,AFNE01.JPG,AFNE01.JPG,2,6,26,9,,,,,,,,,,,,,,,,,,,,,,,AFNE14.jpg,AFSA07.jpg,AFNE01.jpg,AFSA16.jpg,AFNE01.jpg,FN,3,num_2,32,num_4,0.716785238765,,,2017_Aug_18_1301,60.0260104397,FEMA4ImagesEEG,001,101201,
AFNE01.JPG,AFNE01.JPG,AFNE01.JPG,AFNE01.JPG,AFNE01.JPG,AFNE01.JPG,2,7,27,8,,,,,,,,,,,,,,,,,,,,,,,AFNE18.jpg,AFSA20.jpg,AFNE07.jpg,AFSA01.jpg,AFSA20.jpg,FS,4,num_6,16,num_6,0.733493852837,,,2017_Aug_18_1301,60.0260104397,FEMA4ImagesEEG,001,101201,
AFNE01.JPG,AFNE01.JPG,AFNE01.JPG,AFNE01.JPG,AFNE01.JPG,AFNE01.JPG,2,8,28,1,,,,,,,,,,,,,,,,,,,,,,,AFSA04.jpg,AFSA10.jpg,AFNE10.jpg,AFNE08.jpg,AFNE08.jpg,FN,3,num_4,32,num_8,0.866733615694,,,2017_Aug_18_1301,60.0260104397,FEMA4ImagesEEG,001,101201,
AFNE01.JPG,AFNE01.JPG,AFNE01.JPG,AFNE01.JPG,AFNE01.JPG,AFNE01.JPG,2,9,29,0,,,,,,,,,,,,,,,,,,,,,,,AFSA20.jpg,AFNE16.jpg,AFNE05.jpg,AFSA06.jpg,AFNE05.jpg,FN,3,num_2,16,num_2,0.750013551209,,,2017_Aug_18_1301,60.0260104397,FEMA4ImagesEEG,001,101201,
AFNE01.JPG,AFNE01.JPG,AFNE01.JPG,AFNE01.JPG,AFNE01.JPG,AFNE01.JPG,3,0,30,3,,,,,,,,,,,,,,,,,,,,,,,AFSA14.jpg,AFNE06.jpg,AFNE10.jpg,AFSA11.jpg,AFNE06.jpg,FN,3,num_6,16,num_6,0.833474832994,,,2017_Aug_18_1301,60.0260104397,FEMA4ImagesEEG,001,101201,
AFNE01.JPG,AFNE01.JPG,AFNE01.JPG,AFNE01.JPG,AFNE01.JPG,AFNE01.JPG,3,1,31,5,,,,,,,,,,,,,,,,,,,,,,,AFNE03.jpg,AFNE07.jpg,AFSA18.jpg,AFSA14.jpg,AFSA18.jpg,FS,4,num_2,32,num_6,1.10006084433,,,2017_Aug_18_1301,60.0260104397,FEMA4ImagesEEG,001,101201,
AFNE01.JPG,AFNE01.JPG,AFNE01.JPG,AFNE01.JPG,AFNE01.JPG,AFNE01.JPG,3,2,32,8,,,,,,,,,,,,,,,,,,,,,,,AFNE16.jpg,AFSA17.jpg,AFNE20.jpg,AFSA15.jpg,AFNE16.jpg,FN,3,num_8,32,num_4,1.41641186568,,,2017_Aug_18_1301,60.0260104397,FEMA4ImagesEEG,001,101201,
AFNE01.JPG,AFNE01.JPG,AFNE01.JPG,AFNE01.JPG,AFNE01.JPG,AFNE01.JPG,3,3,33,1,,,,,,,,,,,,,,,,,,,,,,,AFNE03.jpg,AFSA08.jpg,AFNE06.jpg,AFSA12.jpg,AFSA08.jpg,FS,4,num_6,16,num_6,1.48340605036,,,2017_Aug_18_1301,60.0260104397,FEMA4ImagesEEG,001,101201,
AFNE01.JPG,AFNE01.JPG,AFNE01.JPG,AFNE01.JPG,AFNE01.JPG,AFNE01.JPG,3,4,34,4,,,,,,,,,,,,,,,,,,,,,,,AFNE01.jpg,AFNE07.jpg,AFSA05.jpg,AFSA10.jpg,AFSA05.jpg,FS,4,num_2,32,num_4,0.933477302722,,,2017_Aug_18_1301,60.0260104397,FEMA4ImagesEEG,001,101201,
AFNE01.JPG,AFNE01.JPG,AFNE01.JPG,AFNE01.JPG,AFNE01.JPG,AFNE01.JPG,3,5,35,7,,,,,,,,,,,,,,,,,,,,,,,AFNE06.jpg,AFSA09.jpg,AFSA11.jpg,AFNE18.jpg,AFNE18.jpg,FN,3,num_4,32,num_6,1.45009979815,,,2017_Aug_18_1301,60.0260104397,FEMA4ImagesEEG,001,101201,
AFNE01.JPG,AFNE01.JPG,AFNE01.JPG,AFNE01.JPG,AFNE01.JPG,AFNE01.JPG,3,6,36,2,,,,,,,,,,,,,,,,,,,,,,,AFSA10.jpg,AFSA19.jpg,AFNE09.jpg,AFNE01.jpg,AFSA10.jpg,FS,4,num_8,32,num_2,2.13336709654,,,2017_Aug_18_1301,60.0260104397,FEMA4ImagesEEG,001,101201,
AFNE01.JPG,AFNE01.JPG,AFNE01.JPG,AFNE01.JPG,AFNE01.JPG,AFNE01.JPG,3,7,37,6,,,,,,,,,,,,,,,,,,,,,,,AFNE12.jpg,AFSA05.jpg,AFSA15.jpg,AFNE14.jpg,AFNE12.jpg,FN,3,num_8,32,num_4,1.13341103791,,,2017_Aug_18_1301,60.0260104397,FEMA4ImagesEEG,001,101201,
AFNE01.JPG,AFNE01.JPG,AFNE01.JPG,AFNE01.JPG,AFNE01.JPG,AFNE01.JPG,3,8,38,0,,,,,,,,,,,,,,,,,,,,,,,AFSA03.jpg,AFSA13.jpg,AFNE15.jpg,AFNE19.jpg,AFNE15.jpg,FN,3,num_2,16,num_2,0.950156408711,,,2017_Aug_18_1301,60.0260104397,FEMA4ImagesEEG,001,101201,
AFNE01.JPG,AFNE01.JPG,AFNE01.JPG,AFNE01.JPG,AFNE01.JPG,AFNE01.JPG,3,9,39,9,,,,,,,,,,,,,,,,,,,,,,,AFSA05.jpg,AFNE18.jpg,AFNE09.jpg,AFSA14.jpg,AFNE18.jpg,FN,3,num_6,16,num_6,0.716797106201,,,2017_Aug_18_1301,60.0260104397,FEMA4ImagesEEG,001,101201,
AFNE01.JPG,AFNE01.JPG,AFNE01.JPG,AFNE01.JPG,AFNE01.JPG,AFNE01.JPG,4,0,40,0,,,,,,,,,,,,,,,,,,,,,,,AFNE09.jpg,AFSA02.jpg,AFSA05.jpg,AFNE20.jpg,AFNE20.jpg,FN,3,num_4,16,num_4,0.316815131751,,,2017_Aug_18_1301,60.0260104397,FEMA4ImagesEEG,001,101201,
AFNE01.JPG,AFNE01.JPG,AFNE01.JPG,AFNE01.JPG,AFNE01.JPG,AFNE01.JPG,4,1,41,4,,,,,,,,,,,,,,,,,,,,,,,AFSA10.jpg,AFNE20.jpg,AFSA18.jpg,AFNE10.jpg,AFSA18.jpg,FS,4,num_2,32,num_8,1.00011771149,,,2017_Aug_18_1301,60.0260104397,FEMA4ImagesEEG,001,101201,
AFNE01.JPG,AFNE01.JPG,AFNE01.JPG,AFNE01.JPG,AFNE01.JPG,AFNE01.JPG,4,2,42,1,,,,,,,,,,,,,,,,,,,,,,,AFNE03.jpg,AFSA04.jpg,AFNE06.jpg,AFSA14.jpg,AFNE03.jpg,FN,3,num_8,16,num_8,1.23350523913,,,2017_Aug_18_1301,60.0260104397,FEMA4ImagesEEG,001,101201,
AFNE01.JPG,AFNE01.JPG,AFNE01.JPG,AFNE01.JPG,AFNE01.JPG,AFNE01.JPG,4,3,43,2,,,,,,,,,,,,,,,,,,,,,,,AFSA05.jpg,AFNE09.jpg,AFNE18.jpg,AFSA12.jpg,AFSA12.jpg,FS,4,num_4,32,num_6,0.666851519607,,,2017_Aug_18_1301,60.0260104397,FEMA4ImagesEEG,001,101201,
AFNE01.JPG,AFNE01.JPG,AFNE01.JPG,AFNE01.JPG,AFNE01.JPG,AFNE01.JPG,4,4,44,6,,,,,,,,,,,,,,,,,,,,,,,AFSA19.jpg,AFNE05.jpg,AFNE15.jpg,AFSA18.jpg,AFNE15.jpg,FN,3,num_2,16,num_2,0.76688189368,,,2017_Aug_18_1301,60.0260104397,FEMA4ImagesEEG,001,101201,
AFNE01.JPG,AFNE01.JPG,AFNE01.JPG,AFNE01.JPG,AFNE01.JPG,AFNE01.JPG,4,5,45,3,,,,,,,,,,,,,,,,,,,,,,,AFSA20.jpg,AFSA14.jpg,AFNE17.jpg,AFNE01.jpg,AFSA14.jpg,FS,4,num_6,32,num_4,0.916747840587,,,2017_Aug_18_1301,60.0260104397,FEMA4ImagesEEG,001,101201,
AFNE01.JPG,AFNE01.JPG,AFNE01.JPG,AFNE01.JPG,AFNE01.JPG,AFNE01.JPG,4,6,46,5,,,,,,,,,,,,,,,,,,,,,,,AFSA05.jpg,AFNE19.jpg,AFNE11.jpg,AFSA08.jpg,AFSA05.jpg,FS,4,num_8,32,num_6,1.15038329997,,,2017_Aug_18_1301,60.0260104397,FEMA4ImagesEEG,001,101201,
AFNE01.JPG,AFNE01.JPG,AFNE01.JPG,AFNE01.JPG,AFNE01.JPG,AFNE01.JPG,4,7,47,8,,,,,,,,,,,,,,,,,,,,,,,AFNE06.jpg,AFNE12.jpg,AFSA05.jpg,AFSA17.jpg,AFNE06.jpg,FN,3,num_8,16,num_8,0.716908082133,,,2017_Aug_18_1301,60.0260104397,FEMA4ImagesEEG,001,101201,
AFNE01.JPG,AFNE01.JPG,AFNE01.JPG,AFNE01.JPG,AFNE01.JPG,AFNE01.JPG,4,8,48,7,,,,,,,,,,,,,,,,,,,,,,,AFNE06.jpg,AFSA13.jpg,AFSA07.jpg,AFNE20.jpg,AFNE06.jpg,FN,3,num_8,16,num_8,0.683481231739,,,2017_Aug_18_1301,60.0260104397,FEMA4ImagesEEG,001,101201,
AFNE01.JPG,AFNE01.JPG,AFNE01.JPG,AFNE01.JPG,AFNE01.JPG,AFNE01.JPG,4,9,49,9,,,,,,,,,,,,,,,,,,,,,,,AFSA09.jpg,AFNE04.jpg,AFSA15.jpg,AFNE06.jpg,AFNE04.jpg,FN,3,num_6,16,num_6,0.766774445889,,,2017_Aug_18_1301,60.0260104397,FEMA4ImagesEEG,001,101201,
AFNE01.JPG,AFNE01.JPG,AFNE01.JPG,AFNE01.JPG,AFNE01.JPG,AFNE01.JPG,5,0,50,8,,,,,,,,,,,,,,,,,,,,,,,AFSA16.jpg,AFNE04.jpg,AFNE05.jpg,AFSA07.jpg,AFSA16.jpg,FS,4,num_8,32,num_6,0.866686467023,,,2017_Aug_18_1301,60.0260104397,FEMA4ImagesEEG,001,101201,
AFNE01.JPG,AFNE01.JPG,AFNE01.JPG,AFNE01.JPG,AFNE01.JPG,AFNE01.JPG,5,1,51,3,,,,,,,,,,,,,,,,,,,,,,,AFSA10.jpg,AFNE18.jpg,AFSA16.jpg,AFNE06.jpg,AFSA10.jpg,FS,4,num_8,32,num_4,0.0502198189497,,,2017_Aug_18_1301,60.0260104397,FEMA4ImagesEEG,001,101201,
AFNE01.JPG,AFNE01.JPG,AFNE01.JPG,AFNE01.JPG,AFNE01.JPG,AFNE01.JPG,5,2,52,2,,,,,,,,,,,,,,,,,,,,,,,AFNE18.jpg,AFSA14.jpg,AFSA16.jpg,AFNE17.jpg,AFSA14.jpg,FS,4,num_6,32,num_4,0.733460495889,,,2017_Aug_18_1301,60.0260104397,FEMA4ImagesEEG,001,101201,
AFNE01.JPG,AFNE01.JPG,AFNE01.JPG,AFNE01.JPG,AFNE01.JPG,AFNE01.JPG,5,3,53,1,,,,,,,,,,,,,,,,,,,,,,,AFSA10.jpg,AFNE20.jpg,AFNE03.jpg,AFSA13.jpg,AFNE20.jpg,FN,3,num_6,32,num_8,0.35016660823,,,2017_Aug_18_1301,60.0260104397,FEMA4ImagesEEG,001,101201,
AFNE01.JPG,AFNE01.JPG,AFNE01.JPG,AFNE01.JPG,AFNE01.JPG,AFNE01.JPG,5,4,54,0,,,,,,,,,,,,,,,,,,,,,,,AFNE02.jpg,AFSA17.jpg,AFNE14.jpg,AFSA09.jpg,AFNE02.jpg,FN,3,num_8,32,num_4,0.933425022115,,,2017_Aug_18_1301,60.0260104397,FEMA4ImagesEEG,001,101201,
AFNE01.JPG,AFNE01.JPG,AFNE01.JPG,AFNE01.JPG,AFNE01.JPG,AFNE01.JPG,5,5,55,7,,,,,,,,,,,,,,,,,,,,,,,AFNE10.jpg,AFSA04.jpg,AFSA17.jpg,AFNE13.jpg,AFNE13.jpg,FN,3,num_4,32,num_8,0.950186237518,,,2017_Aug_18_1301,60.0260104397,FEMA4ImagesEEG,001,101201,
AFNE01.JPG,AFNE01.JPG,AFNE01.JPG,AFNE01.JPG,AFNE01.JPG,AFNE01.JPG,5,6,56,4,,,,,,,,,,,,,,,,,,,,,,,AFSA04.jpg,AFNE03.jpg,AFNE13.jpg,AFSA18.jpg,AFNE03.jpg,FN,3,num_6,16,num_6,1.11685349216,,,2017_Aug_18_1301,60.0260104397,FEMA4ImagesEEG,001,101201,
AFNE01.JPG,AFNE01.JPG,AFNE01.JPG,AFNE01.JPG,AFNE01.JPG,AFNE01.JPG,5,7,57,9,,,,,,,,,,,,,,,,,,,,,,,AFNE13.jpg,AFNE09.jpg,AFSA10.jpg,AFSA14.jpg,AFNE13.jpg,FN,3,num_8,32,num_2,0.450089534454,,,2017_Aug_18_1301,60.0260104397,FEMA4ImagesEEG,001,101201,
AFNE01.JPG,AFNE01.JPG,AFNE01.JPG,AFNE01.JPG,AFNE01.JPG,AFNE01.JPG,5,8,58,6,,,,,,,,,,,,,,,,,,,,,,,AFSA08.jpg,AFSA09.jpg,AFNE06.jpg,AFNE19.jpg,AFSA08.jpg,FS,4,num_8,32,num_4,0.666771655495,,,2017_Aug_18_1301,60.0260104397,FEMA4ImagesEEG,001,101201,
AFNE01.JPG,AFNE01.JPG,AFNE01.JPG,AFNE01.JPG,AFNE01.JPG,AFNE01.JPG,5,9,59,5,,,,,,,,,,,,,,,,,,,,,,,AFNE12.jpg,AFSA06.jpg,AFNE13.jpg,AFSA13.jpg,AFSA06.jpg,FS,4,num_6,16,num_6,0.800173391879,,,2017_Aug_18_1301,60.0260104397,FEMA4ImagesEEG,001,101201,
,,,,,,,,,,,,,,,,,,,,,,,,,,,,,,,,,,,,,,,,,,,space,23.9816421423,2017_Aug_18_1301,60.0260104397,FEMA4ImagesEEG,001,101201,
AFNE01.JPG,AFNE01.JPG,AFNE01.JPG,AFNE01.JPG,AFNE01.JPG,AFNE01.JPG,,,,,0,0,0,7,,,,,,,,,,,,,,,,,,,AMSA09.jpg,AMNE08.jpg,AMNE13.jpg,AMSA11.jpg,AMNE13.jpg,MN,1,num_2,32,num_4,0.833441155322,,,2017_Aug_18_1301,60.0260104397,FEMA4ImagesEEG,001,101201,
AFNE01.JPG,AFNE01.JPG,AFNE01.JPG,AFNE01.JPG,AFNE01.JPG,AFNE01.JPG,,,,,0,1,1,9,,,,,,,,,,,,,,,,,,,AMNE09.jpg,AMNE18.jpg,AMSA07.jpg,AMSA19.jpg,AMSA07.jpg,MS,2,num_2,16,num_2,0.316830847994,,,2017_Aug_18_1301,60.0260104397,FEMA4ImagesEEG,001,101201,
AFNE01.JPG,AFNE01.JPG,AFNE01.JPG,AFNE01.JPG,AFNE01.JPG,AFNE01.JPG,,,,,0,2,2,2,,,,,,,,,,,,,,,,,,,AMNE09.jpg,AMSA14.jpg,AMNE12.jpg,AMSA13.jpg,AMNE12.jpg,MN,1,num_2,32,num_6,1.05013642664,,,2017_Aug_18_1301,60.0260104397,FEMA4ImagesEEG,001,101201,
AFNE01.JPG,AFNE01.JPG,AFNE01.JPG,AFNE01.JPG,AFNE01.JPG,AFNE01.JPG,,,,,0,3,3,5,,,,,,,,,,,,,,,,,,,AMNE13.jpg,AMNE20.jpg,AMSA05.jpg,AMSA08.jpg,AMSA08.jpg,MS,2,num_4,32,num_2,1.03343454807,,,2017_Aug_18_1301,60.0260104397,FEMA4ImagesEEG,001,101201,
AFNE01.JPG,AFNE01.JPG,AFNE01.JPG,AFNE01.JPG,AFNE01.JPG,AFNE01.JPG,,,,,0,4,4,1,,,,,,,,,,,,,,,,,,,AMNE05.jpg,AMNE09.jpg,AMSA03.jpg,AMSA05.jpg,AMSA05.jpg,MS,2,num_4,32,num_8,0.833440193092,,,2017_Aug_18_1301,60.0260104397,FEMA4ImagesEEG,001,101201,
AFNE01.JPG,AFNE01.JPG,AFNE01.JPG,AFNE01.JPG,AFNE01.JPG,AFNE01.JPG,,,,,0,5,5,6,,,,,,,,,,,,,,,,,,,AMSA01.jpg,AMSA11.jpg,AMNE19.jpg,AMNE11.jpg,AMNE19.jpg,MN,1,num_2,32,num_8,1.16678881506,,,2017_Aug_18_1301,60.0260104397,FEMA4ImagesEEG,001,101201,
AFNE01.JPG,AFNE01.JPG,AFNE01.JPG,AFNE01.JPG,AFNE01.JPG,AFNE01.JPG,,,,,0,6,6,0,,,,,,,,,,,,,,,,,,,AMNE20.jpg,AMSA17.jpg,AMSA05.jpg,AMNE02.jpg,AMSA05.jpg,MS,2,num_2,32,num_6,0.96675821644,,,2017_Aug_18_1301,60.0260104397,FEMA4ImagesEEG,001,101201,
AFNE01.JPG,AFNE01.JPG,AFNE01.JPG,AFNE01.JPG,AFNE01.JPG,AFNE01.JPG,,,,,0,7,7,3,,,,,,,,,,,,,,,,,,,AMNE04.jpg,AMNE09.jpg,AMSA13.jpg,AMSA03.jpg,AMNE09.jpg,MN,1,num_6,16,num_6,0.61681067344,,,2017_Aug_18_1301,60.0260104397,FEMA4ImagesEEG,001,101201,
AFNE01.JPG,AFNE01.JPG,AFNE01.JPG,AFNE01.JPG,AFNE01.JPG,AFNE01.JPG,,,,,0,8,8,8,,,,,,,,,,,,,,,,,,,AMNE18.jpg,AMSA18.jpg,AMSA02.jpg,AMNE14.jpg,AMNE14.jpg,MN,1,num_4,32,num_2,1.0001562002,,,2017_Aug_18_1301,60.0260104397,FEMA4ImagesEEG,001,101201,
AFNE01.JPG,AFNE01.JPG,AFNE01.JPG,AFNE01.JPG,AFNE01.JPG,AFNE01.JPG,,,,,0,9,9,4,,,,,,,,,,,,,,,,,,,AMSA19.jpg,AMSA12.jpg,AMNE04.jpg,AMNE01.jpg,AMNE01.jpg,MN,1,num_4,16,num_4,0.766838273092,,,2017_Aug_18_1301,60.0260104397,FEMA4ImagesEEG,001,101201,
AFNE01.JPG,AFNE01.JPG,AFNE01.JPG,AFNE01.JPG,AFNE01.JPG,AFNE01.JPG,,,,,1,0,10,3,,,,,,,,,,,,,,,,,,,AMNE03.jpg,AMNE17.jpg,AMSA02.jpg,AMSA04.jpg,AMSA02.jpg,MS,2,num_2,32,num_8,1.15006705065,,,2017_Aug_18_1301,60.0260104397,FEMA4ImagesEEG,001,101201,
AFNE01.JPG,AFNE01.JPG,AFNE01.JPG,AFNE01.JPG,AFNE01.JPG,AFNE01.JPG,,,,,1,1,11,9,,,,,,,,,,,,,,,,,,,AMNE08.jpg,AMSA02.jpg,AMSA15.jpg,AMNE03.jpg,AMSA15.jpg,MS,2,num_2,16,num_2,0.616799768293,,,2017_Aug_18_1301,60.0260104397,FEMA4ImagesEEG,001,101201,
AFNE01.JPG,AFNE01.JPG,AFNE01.JPG,AFNE01.JPG,AFNE01.JPG,AFNE01.JPG,,,,,1,2,12,7,,,,,,,,,,,,,,,,,,,AMNE02.jpg,AMSA08.jpg,AMSA14.jpg,AMNE03.jpg,AMNE02.jpg,MN,1,num_8,32,num_6,1.78336182039,,,2017_Aug_18_1301,60.0260104397,FEMA4ImagesEEG,001,101201,
AFNE01.JPG,AFNE01.JPG,AFNE01.JPG,AFNE01.JPG,AFNE01.JPG,AFNE01.JPG,,,,,1,3,13,4,,,,,,,,,,,,,,,,,,,AMNE13.jpg,AMNE07.jpg,AMSA02.jpg,AMSA03.jpg,AMNE13.jpg,MN,1,num_8,32,num_6,1.15006705065,,,2017_Aug_18_1301,60.0260104397,FEMA4ImagesEEG,001,101201,
AFNE01.JPG,AFNE01.JPG,AFNE01.JPG,AFNE01.JPG,AFNE01.JPG,AFNE01.JPG,,,,,1,4,14,5,,,,,,,,,,,,,,,,,,,AMSA09.jpg,AMSA19.jpg,AMNE11.jpg,AMNE10.jpg,AMNE11.jpg,MN,1,num_2,32,num_4,1.46668813488,,,2017_Aug_18_1301,60.0260104397,FEMA4ImagesEEG,001,101201,
AFNE01.JPG,AFNE01.JPG,AFNE01.JPG,AFNE01.JPG,AFNE01.JPG,AFNE01.JPG,,,,,1,5,15,0,,,,,,,,,,,,,,,,,,,AMNE03.jpg,AMSA11.jpg,AMSA12.jpg,AMNE06.jpg,AMNE06.jpg,MN,1,num_4,16,num_4,0.666783843597,,,2017_Aug_18_1301,60.0260104397,FEMA4ImagesEEG,001,101201,
AFNE01.JPG,AFNE01.JPG,AFNE01.JPG,AFNE01.JPG,AFNE01.JPG,AFNE01.JPG,,,,,1,6,16,8,,,,,,,,,,,,,,,,,,,AMSA12.jpg,AMSA19.jpg,AMNE01.jpg,AMNE16.jpg,AMSA19.jpg,MS,2,num_6,16,num_6,0.566774959094,,,2017_Aug_18_1301,60.0260104397,FEMA4ImagesEEG,001,101201,
AFNE01.JPG,AFNE01.JPG,AFNE01.JPG,AFNE01.JPG,AFNE01.JPG,AFNE01.JPG,,,,,1,7,17,1,,,,,,,,,,,,,,,,,,,AMNE06.jpg,AMSA14.jpg,AMSA09.jpg,AMNE13.jpg,AMSA09.jpg,MS,2,num_2,16,num_2,0.666663566197,,,2017_Aug_18_1301,60.0260104397,FEMA4ImagesEEG,001,101201,
AFNE01.JPG,AFNE01.JPG,AFNE01.JPG,AFNE01.JPG,AFNE01.JPG,AFNE01.JPG,,,,,1,8,18,2,,,,,,,,,,,,,,,,,,,AMSA06.jpg,AMSA07.jpg,AMNE02.jpg,AMNE16.jpg,AMSA07.jpg,MS,2,num_6,32,num_4,1.48338937195,,,2017_Aug_18_1301,60.0260104397,FEMA4ImagesEEG,001,101201,
AFNE01.JPG,AFNE01.JPG,AFNE01.JPG,AFNE01.JPG,AFNE01.JPG,AFNE01.JPG,,,,,1,9,19,6,,,,,,,,,,,,,,,,,,,AMSA19.jpg,AMNE09.jpg,AMSA08.jpg,AMNE07.jpg,AMSA19.jpg,MS,2,num_8,32,num_6,0.9832958763,,,2017_Aug_18_1301,60.0260104397,FEMA4ImagesEEG,001,101201,
AFNE01.JPG,AFNE01.JPG,AFNE01.JPG,AFNE01.JPG,AFNE01.JPG,AFNE01.JPG,,,,,2,0,20,0,,,,,,,,,,,,,,,,,,,AMSA01.jpg,AMSA05.jpg,AMNE17.jpg,AMNE07.jpg,AMNE07.jpg,MN,1,num_4,32,num_8,0.616796881659,,,2017_Aug_18_1301,60.0260104397,FEMA4ImagesEEG,001,101201,
AFNE01.JPG,AFNE01.JPG,AFNE01.JPG,AFNE01.JPG,AFNE01.JPG,AFNE01.JPG,,,,,2,1,21,5,,,,,,,,,,,,,,,,,,,AMNE07.jpg,AMSA15.jpg,AMSA05.jpg,AMNE19.jpg,AMSA05.jpg,MS,2,num_2,16,num_2,1.76669426094,,,2017_Aug_18_1301,60.0260104397,FEMA4ImagesEEG,001,101201,
AFNE01.JPG,AFNE01.JPG,AFNE01.JPG,AFNE01.JPG,AFNE01.JPG,AFNE01.JPG,,,,,2,2,22,8,,,,,,,,,,,,,,,,,,,AMSA08.jpg,AMNE05.jpg,AMNE02.jpg,AMSA06.jpg,AMNE05.jpg,MN,1,num_6,32,num_8,0.700162903697,,,2017_Aug_18_1301,60.0260104397,FEMA4ImagesEEG,001,101201,
AFNE01.JPG,AFNE01.JPG,AFNE01.JPG,AFNE01.JPG,AFNE01.JPG,AFNE01.JPG,,,,,2,3,23,3,,,,,,,,,,,,,,,,,,,AMNE03.jpg,AMSA20.jpg,AMSA01.jpg,AMNE05.jpg,AMSA01.jpg,MS,2,num_2,16,num_2,0.783503908024,,,2017_Aug_18_1301,60.0260104397,FEMA4ImagesEEG,001,101201,
AFNE01.JPG,AFNE01.JPG,AFNE01.JPG,AFNE01.JPG,AFNE01.JPG,AFNE01.JPG,,,,,2,4,24,1,,,,,,,,,,,,,,,,,,,AMNE04.jpg,AMNE14.jpg,AMSA19.jpg,AMSA07.jpg,AMNE14.jpg,MN,1,num_6,32,num_4,1.51674533874,,,2017_Aug_18_1301,60.0260104397,FEMA4ImagesEEG,001,101201,
AFNE01.JPG,AFNE01.JPG,AFNE01.JPG,AFNE01.JPG,AFNE01.JPG,AFNE01.JPG,,,,,2,5,25,4,,,,,,,,,,,,,,,,,,,AMSA15.jpg,AMNE13.jpg,AMNE18.jpg,AMSA02.jpg,AMNE18.jpg,MN,1,num_2,32,num_6,0.516595553316,,,2017_Aug_18_1301,60.0260104397,FEMA4ImagesEEG,001,101201,
AFNE01.JPG,AFNE01.JPG,AFNE01.JPG,AFNE01.JPG,AFNE01.JPG,AFNE01.JPG,,,,,2,6,26,2,,,,,,,,,,,,,,,,,,,AMSA04.jpg,AMSA05.jpg,AMNE12.jpg,AMNE06.jpg,AMNE12.jpg,MN,1,num_2,32,num_8,0.866788462212,,,2017_Aug_18_1301,60.0260104397,FEMA4ImagesEEG,001,101201,
AFNE01.JPG,AFNE01.JPG,AFNE01.JPG,AFNE01.JPG,AFNE01.JPG,AFNE01.JPG,,,,,2,7,27,9,,,,,,,,,,,,,,,,,,,AMSA08.jpg,AMNE14.jpg,AMNE17.jpg,AMSA16.jpg,AMNE17.jpg,MN,1,num_2,32,num_8,0.650135207863,,,2017_Aug_18_1301,60.0260104397,FEMA4ImagesEEG,001,101201,
AFNE01.JPG,AFNE01.JPG,AFNE01.JPG,AFNE01.JPG,AFNE01.JPG,AFNE01.JPG,,,,,2,8,28,7,,,,,,,,,,,,,,,,,,,AMNE08.jpg,AMSA20.jpg,AMSA07.jpg,AMNE18.jpg,AMNE18.jpg,MN,1,num_4,16,num_4,1.15011548228,,,2017_Aug_18_1301,60.0260104397,FEMA4ImagesEEG,001,101201,
AFNE01.JPG,AFNE01.JPG,AFNE01.JPG,AFNE01.JPG,AFNE01.JPG,AFNE01.JPG,,,,,2,9,29,6,,,,,,,,,,,,,,,,,,,AMSA11.jpg,AMSA04.jpg,AMNE01.jpg,AMNE15.jpg,AMNE15.jpg,MN,1,num_4,32,num_6,1.00012348476,,,2017_Aug_18_1301,60.0260104397,FEMA4ImagesEEG,001,101201,
AFNE01.JPG,AFNE01.JPG,AFNE01.JPG,AFNE01.JPG,AFNE01.JPG,AFNE01.JPG,,,,,3,0,30,4,,,,,,,,,,,,,,,,,,,AMNE13.jpg,AMSA08.jpg,AMSA09.jpg,AMNE08.jpg,AMSA08.jpg,MS,2,num_6,32,num_8,0.850156184169,,,2017_Aug_18_1301,60.0260104397,FEMA4ImagesEEG,001,101201,
AFNE01.JPG,AFNE01.JPG,AFNE01.JPG,AFNE01.JPG,AFNE01.JPG,AFNE01.JPG,,,,,3,1,31,2,,,,,,,,,,,,,,,,,,,AMNE15.jpg,AMNE19.jpg,AMSA09.jpg,AMSA16.jpg,AMSA09.jpg,MS,2,num_2,32,num_8,0.666606153827,,,2017_Aug_18_1301,60.0260104397,FEMA4ImagesEEG,001,101201,
AFNE01.JPG,AFNE01.JPG,AFNE01.JPG,AFNE01.JPG,AFNE01.JPG,AFNE01.JPG,,,,,3,2,32,8,,,,,,,,,,,,,,,,,,,AMNE17.jpg,AMNE07.jpg,AMSA18.jpg,AMSA13.jpg,AMSA13.jpg,MS,2,num_4,32,num_6,0.650100888684,,,2017_Aug_18_1301,60.0260104397,FEMA4ImagesEEG,001,101201,
AFNE01.JPG,AFNE01.JPG,AFNE01.JPG,AFNE01.JPG,AFNE01.JPG,AFNE01.JPG,,,,,3,3,33,5,,,,,,,,,,,,,,,,,,,AMNE13.jpg,AMNE11.jpg,AMSA04.jpg,AMSA03.jpg,AMNE13.jpg,MN,1,num_8,16,num_8,0.63349940168,,,2017_Aug_18_1301,60.0260104397,FEMA4ImagesEEG,001,101201,
AFNE01.JPG,AFNE01.JPG,AFNE01.JPG,AFNE01.JPG,AFNE01.JPG,AFNE01.JPG,,,,,3,4,34,3,,,,,,,,,,,,,,,,,,,AMNE04.jpg,AMSA08.jpg,AMNE05.jpg,AMSA07.jpg,AMNE04.jpg,MN,1,num_8,32,num_2,1.79975995841,,,2017_Aug_18_1301,60.0260104397,FEMA4ImagesEEG,001,101201,
AFNE01.JPG,AFNE01.JPG,AFNE01.JPG,AFNE01.JPG,AFNE01.JPG,AFNE01.JPG,,,,,3,5,35,7,,,,,,,,,,,,,,,,,,,AMSA14.jpg,AMSA05.jpg,AMNE14.jpg,AMNE16.jpg,AMNE16.jpg,MN,1,num_4,16,num_4,1.00009012787,,,2017_Aug_18_1301,60.0260104397,FEMA4ImagesEEG,001,101201,
AFNE01.JPG,AFNE01.JPG,AFNE01.JPG,AFNE01.JPG,AFNE01.JPG,AFNE01.JPG,,,,,3,6,36,6,,,,,,,,,,,,,,,,,,,AMNE11.jpg,AMNE20.jpg,AMSA13.jpg,AMSA02.jpg,AMNE11.jpg,MN,1,num_8,32,num_4,1.63340189675,,,2017_Aug_18_1301,60.0260104397,FEMA4ImagesEEG,001,101201,
AFNE01.JPG,AFNE01.JPG,AFNE01.JPG,AFNE01.JPG,AFNE01.JPG,AFNE01.JPG,,,,,3,7,37,9,,,,,,,,,,,,,,,,,,,AMNE05.jpg,AMSA11.jpg,AMSA18.jpg,AMNE12.jpg,AMSA11.jpg,MS,2,num_6,16,num_6,0.883752064372,,,2017_Aug_18_1301,60.0260104397,FEMA4ImagesEEG,001,101201,
AFNE01.JPG,AFNE01.JPG,AFNE01.JPG,AFNE01.JPG,AFNE01.JPG,AFNE01.JPG,,,,,3,8,38,0,,,,,,,,,,,,,,,,,,,AMSA17.jpg,AMNE19.jpg,AMNE15.jpg,AMSA14.jpg,AMNE15.jpg,MN,1,num_2,16,num_2,0.700137244479,,,2017_Aug_18_1301,60.0260104397,FEMA4ImagesEEG,001,101201,
AFNE01.JPG,AFNE01.JPG,AFNE01.JPG,AFNE01.JPG,AFNE01.JPG,AFNE01.JPG,,,,,3,9,39,1,,,,,,,,,,,,,,,,,,,AMSA16.jpg,AMSA02.jpg,AMNE03.jpg,AMNE19.jpg,AMNE19.jpg,MN,1,num_4,32,num_8,0.800125922426,,,2017_Aug_18_1301,60.0260104397,FEMA4ImagesEEG,001,101201,
AFNE01.JPG,AFNE01.JPG,AFNE01.JPG,AFNE01.JPG,AFNE01.JPG,AFNE01.JPG,,,,,4,0,40,1,,,,,,,,,,,,,,,,,,,AMSA03.jpg,AMNE05.jpg,AMSA20.jpg,AMNE01.jpg,AMNE01.jpg,MN,1,num_4,32,num_8,1.05011622002,,,2017_Aug_18_1301,60.0260104397,FEMA4ImagesEEG,001,101201,
AFNE01.JPG,AFNE01.JPG,AFNE01.JPG,AFNE01.JPG,AFNE01.JPG,AFNE01.JPG,,,,,4,1,41,7,,,,,,,,,,,,,,,,,,,AMSA04.jpg,AMNE02.jpg,AMSA06.jpg,AMNE14.jpg,AMSA06.jpg,MS,2,num_2,32,num_6,0.700147508236,,,2017_Aug_18_1301,60.0260104397,FEMA4ImagesEEG,001,101201,
AFNE01.JPG,AFNE01.JPG,AFNE01.JPG,AFNE01.JPG,AFNE01.JPG,AFNE01.JPG,,,,,4,2,42,2,,,,,,,,,,,,,,,,,,,AMNE14.jpg,AMNE02.jpg,AMSA02.jpg,AMSA12.jpg,AMNE02.jpg,MN,1,num_6,16,num_6,1.16674872255,,,2017_Aug_18_1301,60.0260104397,FEMA4ImagesEEG,001,101201,
AFNE01.JPG,AFNE01.JPG,AFNE01.JPG,AFNE01.JPG,AFNE01.JPG,AFNE01.JPG,,,,,4,3,43,8,,,,,,,,,,,,,,,,,,,AMSA19.jpg,AMNE12.jpg,AMNE07.jpg,AMSA15.jpg,AMSA15.jpg,MS,2,num_4,32,num_8,0.816799896595,,,2017_Aug_18_1301,60.0260104397,FEMA4ImagesEEG,001,101201,
AFNE01.JPG,AFNE01.JPG,AFNE01.JPG,AFNE01.JPG,AFNE01.JPG,AFNE01.JPG,,,,,4,4,44,4,,,,,,,,,,,,,,,,,,,AMNE15.jpg,AMSA17.jpg,AMNE01.jpg,AMSA04.jpg,AMSA04.jpg,MS,2,num_4,32,num_8,0.633503571327,,,2017_Aug_18_1301,60.0260104397,FEMA4ImagesEEG,001,101201,
AFNE01.JPG,AFNE01.JPG,AFNE01.JPG,AFNE01.JPG,AFNE01.JPG,AFNE01.JPG,,,,,4,5,45,9,,,,,,,,,,,,,,,,,,,AMNE08.jpg,AMSA09.jpg,AMNE20.jpg,AMSA10.jpg,AMSA09.jpg,MS,2,num_6,16,num_6,0.616803937883,,,2017_Aug_18_1301,60.0260104397,FEMA4ImagesEEG,001,101201,
AFNE01.JPG,AFNE01.JPG,AFNE01.JPG,AFNE01.JPG,AFNE01.JPG,AFNE01.JPG,,,,,4,6,46,6,,,,,,,,,,,,,,,,,,,AMNE20.jpg,AMNE07.jpg,AMSA02.jpg,AMSA15.jpg,AMSA15.jpg,MS,2,num_4,32,num_6,0.716794219508,,,2017_Aug_18_1301,60.0260104397,FEMA4ImagesEEG,001,101201,
AFNE01.JPG,AFNE01.JPG,AFNE01.JPG,AFNE01.JPG,AFNE01.JPG,AFNE01.JPG,,,,,4,7,47,5,,,,,,,,,,,,,,,,,,,AMSA08.jpg,AMNE09.jpg,AMNE08.jpg,AMSA03.jpg,AMNE08.jpg,MN,1,num_2,16,num_2,3.56658796786,,,2017_Aug_18_1301,60.0260104397,FEMA4ImagesEEG,001,101201,
AFNE01.JPG,AFNE01.JPG,AFNE01.JPG,AFNE01.JPG,AFNE01.JPG,AFNE01.JPG,,,,,4,8,48,3,,,,,,,,,,,,,,,,,,,AMSA01.jpg,AMNE07.jpg,AMNE02.jpg,AMSA09.jpg,AMSA01.jpg,MS,2,num_8,32,num_6,0.433505367429,,,2017_Aug_18_1301,60.0260104397,FEMA4ImagesEEG,001,101201,
AFNE01.JPG,AFNE01.JPG,AFNE01.JPG,AFNE01.JPG,AFNE01.JPG,AFNE01.JPG,,,,,4,9,49,0,,,,,,,,,,,,,,,,,,,AMSA07.jpg,AMSA18.jpg,AMNE14.jpg,AMNE19.jpg,AMNE14.jpg,MN,1,num_2,16,num_2,1.21670938388,,,2017_Aug_18_1301,60.0260104397,FEMA4ImagesEEG,001,101201,
AFNE01.JPG,AFNE01.JPG,AFNE01.JPG,AFNE01.JPG,AFNE01.JPG,AFNE01.JPG,,,,,5,0,50,7,,,,,,,,,,,,,,,,,,,AMSA08.jpg,AMNE18.jpg,AMSA02.jpg,AMNE16.jpg,AMSA02.jpg,MS,2,num_2,16,num_2,1.23328906053,,,2017_Aug_18_1301,60.0260104397,FEMA4ImagesEEG,001,101201,
AFNE01.JPG,AFNE01.JPG,AFNE01.JPG,AFNE01.JPG,AFNE01.JPG,AFNE01.JPG,,,,,5,1,51,6,,,,,,,,,,,,,,,,,,,AMNE12.jpg,AMSA20.jpg,AMNE13.jpg,AMSA10.jpg,AMNE13.jpg,MN,1,num_2,32,num_4,1.31669292995,,,2017_Aug_18_1301,60.0260104397,FEMA4ImagesEEG,001,101201,
AFNE01.JPG,AFNE01.JPG,AFNE01.JPG,AFNE01.JPG,AFNE01.JPG,AFNE01.JPG,,,,,5,2,52,9,,,,,,,,,,,,,,,,,,,AMSA06.jpg,AMNE07.jpg,AMNE08.jpg,AMSA12.jpg,AMNE07.jpg,MN,1,num_6,16,num_6,1.33338871435,,,2017_Aug_18_1301,60.0260104397,FEMA4ImagesEEG,001,101201,
AFNE01.JPG,AFNE01.JPG,AFNE01.JPG,AFNE01.JPG,AFNE01.JPG,AFNE01.JPG,,,,,5,3,53,8,,,,,,,,,,,,,,,,,,,AMNE20.jpg,AMNE07.jpg,AMSA15.jpg,AMSA06.jpg,AMSA06.jpg,MS,2,num_4,32,num_6,0.73345985444,,,2017_Aug_18_1301,60.0260104397,FEMA4ImagesEEG,001,101201,
AFNE01.JPG,AFNE01.JPG,AFNE01.JPG,AFNE01.JPG,AFNE01.JPG,AFNE01.JPG,,,,,5,4,54,2,,,,,,,,,,,,,,,,,,,AMNE05.jpg,AMSA20.jpg,AMNE06.jpg,AMSA12.jpg,AMSA12.jpg,MS,2,num_4,32,num_6,0.683457817766,,,2017_Aug_18_1301,60.0260104397,FEMA4ImagesEEG,001,101201,
AFNE01.JPG,AFNE01.JPG,AFNE01.JPG,AFNE01.JPG,AFNE01.JPG,AFNE01.JPG,,,,,5,5,55,0,,,,,,,,,,,,,,,,,,,AMNE14.jpg,AMSA17.jpg,AMNE15.jpg,AMSA01.jpg,AMSA17.jpg,MS,2,num_6,32,num_2,0.800110847631,,,2017_Aug_18_1301,60.0260104397,FEMA4ImagesEEG,001,101201,
AFNE01.JPG,AFNE01.JPG,AFNE01.JPG,AFNE01.JPG,AFNE01.JPG,AFNE01.JPG,,,,,5,6,56,1,,,,,,,,,,,,,,,,,,,AMNE04.jpg,AMSA13.jpg,AMNE05.jpg,AMSA18.jpg,AMSA18.jpg,MS,2,num_4,32,num_2,2.1334049438,,,2017_Aug_18_1301,60.0260104397,FEMA4ImagesEEG,001,101201,
AFNE01.JPG,AFNE01.JPG,AFNE01.JPG,AFNE01.JPG,AFNE01.JPG,AFNE01.JPG,,,,,5,7,57,3,,,,,,,,,,,,,,,,,,,AMSA16.jpg,AMSA10.jpg,AMNE04.jpg,AMNE07.jpg,AMSA16.jpg,MS,2,num_8,32,num_2,3.49991997547,,,2017_Aug_18_1301,60.0260104397,FEMA4ImagesEEG,001,101201,
AFNE01.JPG,AFNE01.JPG,AFNE01.JPG,AFNE01.JPG,AFNE01.JPG,AFNE01.JPG,,,,,5,8,58,5,,,,,,,,,,,,,,,,,,,AMNE04.jpg,AMSA07.jpg,AMSA02.jpg,AMNE19.jpg,AMNE04.jpg,MN,1,num_8,32,num_4,1.50021826336,,,2017_Aug_18_1301,60.0260104397,FEMA4ImagesEEG,001,101201,
AFNE01.JPG,AFNE01.JPG,AFNE01.JPG,AFNE01.JPG,AFNE01.JPG,AFNE01.JPG,,,,,5,9,59,4,,,,,,,,,,,,,,,,,,,AMSA12.jpg,AMNE03.jpg,AMSA15.jpg,AMNE12.jpg,AMNE03.jpg,MN,1,num_6,32,num_8,0.616781806864,,,2017_Aug_18_1301,60.0260104397,FEMA4ImagesEEG,001,101201,
,,,,,,,,,,,,,,,,,,,,,,,,,,,,,,,,,,,,,,,,,,,space,2.96672838763,2017_Aug_18_1301,60.0260104397,FEMA4ImagesEEG,001,101201,
AFNE01.JPG,AFNE01.JPG,AFNE01.JPG,AFNE01.JPG,AFNE01.JPG,AFNE01.JPG,,,,,,,,,0,0,0,8,,,,,,,,,,,,,,,AFNE07.jpg,AFSA12.jpg,AFNE14.jpg,AFSA15.jpg,AFNE14.jpg,FN,3,num_2,32,num_4,0.683419328998,,,2017_Aug_18_1301,60.0260104397,FEMA4ImagesEEG,001,101201,
AFNE01.JPG,AFNE01.JPG,AFNE01.JPG,AFNE01.JPG,AFNE01.JPG,AFNE01.JPG,,,,,,,,,0,1,1,3,,,,,,,,,,,,,,,AFNE08.jpg,AFSA05.jpg,AFSA16.jpg,AFNE19.jpg,AFSA05.jpg,FS,4,num_6,32,num_2,1.35005242488,,,2017_Aug_18_1301,60.0260104397,FEMA4ImagesEEG,001,101201,
AFNE01.JPG,AFNE01.JPG,AFNE01.JPG,AFNE01.JPG,AFNE01.JPG,AFNE01.JPG,,,,,,,,,0,2,2,0,,,,,,,,,,,,,,,AFSA12.jpg,AFNE20.jpg,AFNE10.jpg,AFSA10.jpg,AFNE20.jpg,FN,3,num_6,32,num_4,1.11690705572,,,2017_Aug_18_1301,60.0260104397,FEMA4ImagesEEG,001,101201,
AFNE01.JPG,AFNE01.JPG,AFNE01.JPG,AFNE01.JPG,AFNE01.JPG,AFNE01.JPG,,,,,,,,,0,3,3,5,,,,,,,,,,,,,,,AFNE20.jpg,AFNE04.jpg,AFSA11.jpg,AFSA02.jpg,AFSA11.jpg,FS,4,num_2,32,num_8,0.90013224096,,,2017_Aug_18_1301,60.0260104397,FEMA4ImagesEEG,001,101201,
AFNE01.JPG,AFNE01.JPG,AFNE01.JPG,AFNE01.JPG,AFNE01.JPG,AFNE01.JPG,,,,,,,,,0,4,4,9,,,,,,,,,,,,,,,AFSA10.jpg,AFNE03.jpg,AFNE06.jpg,AFSA09.jpg,AFNE06.jpg,FN,3,num_2,32,num_8,0.716767918842,,,2017_Aug_18_1301,60.0260104397,FEMA4ImagesEEG,001,101201,
AFNE01.JPG,AFNE01.JPG,AFNE01.JPG,AFNE01.JPG,AFNE01.JPG,AFNE01.JPG,,,,,,,,,0,5,5,1,,,,,,,,,,,,,,,AFSA14.jpg,AFNE05.jpg,AFNE20.jpg,AFSA20.jpg,AFSA20.jpg,FS,4,num_4,32,num_8,0.416744472808,,,2017_Aug_18_1301,60.0260104397,FEMA4ImagesEEG,001,101201,
AFNE01.JPG,AFNE01.JPG,AFNE01.JPG,AFNE01.JPG,AFNE01.JPG,AFNE01.JPG,,,,,,,,,0,6,6,6,,,,,,,,,,,,,,,AFNE19.jpg,AFSA02.jpg,AFSA17.jpg,AFNE13.jpg,AFNE19.jpg,FN,3,num_8,32,num_2,3.21651950595,,,2017_Aug_18_1301,60.0260104397,FEMA4ImagesEEG,001,101201,
AFNE01.JPG,AFNE01.JPG,AFNE01.JPG,AFNE01.JPG,AFNE01.JPG,AFNE01.JPG,,,,,,,,,0,7,7,2,,,,,,,,,,,,,,,AFNE03.jpg,AFSA13.jpg,AFNE05.jpg,AFSA08.jpg,AFNE05.jpg,FN,3,num_2,32,num_4,1.1000964464,,,2017_Aug_18_1301,60.0260104397,FEMA4ImagesEEG,001,101201,
AFNE01.JPG,AFNE01.JPG,AFNE01.JPG,AFNE01.JPG,AFNE01.JPG,AFNE01.JPG,,,,,,,,,0,8,8,7,,,,,,,,,,,,,,,AFSA07.jpg,AFNE11.jpg,AFSA13.jpg,AFNE09.jpg,AFSA13.jpg,FS,4,num_2,32,num_8,0.816808235832,,,2017_Aug_18_1301,60.0260104397,FEMA4ImagesEEG,001,101201,
AFNE01.JPG,AFNE01.JPG,AFNE01.JPG,AFNE01.JPG,AFNE01.JPG,AFNE01.JPG,,,,,,,,,0,9,9,4,,,,,,,,,,,,,,,AFSA07.jpg,AFSA15.jpg,AFNE15.jpg,AFNE14.jpg,AFSA15.jpg,FS,4,num_6,16,num_6,1.11673866742,,,2017_Aug_18_1301,60.0260104397,FEMA4ImagesEEG,001,101201,
AFNE01.JPG,AFNE01.JPG,AFNE01.JPG,AFNE01.JPG,AFNE01.JPG,AFNE01.JPG,,,,,,,,,1,0,10,5,,,,,,,,,,,,,,,AFSA17.jpg,AFNE14.jpg,AFNE08.jpg,AFSA07.jpg,AFNE14.jpg,FN,3,num_6,16,num_6,1.33347755932,,,2017_Aug_18_1301,60.0260104397,FEMA4ImagesEEG,001,101201,
AFNE01.JPG,AFNE01.JPG,AFNE01.JPG,AFNE01.JPG,AFNE01.JPG,AFNE01.JPG,,,,,,,,,1,1,11,4,,,,,,,,,,,,,,,AFSA19.jpg,AFNE09.jpg,AFNE03.jpg,AFSA17.jpg,AFSA17.jpg,FS,4,num_4,32,num_2,0.916742387984,,,2017_Aug_18_1301,60.0260104397,FEMA4ImagesEEG,001,101201,
AFNE01.JPG,AFNE01.JPG,AFNE01.JPG,AFNE01.JPG,AFNE01.JPG,AFNE01.JPG,,,,,,,,,1,2,12,1,,,,,,,,,,,,,,,AFSA03.jpg,AFNE19.jpg,AFSA20.jpg,AFNE05.jpg,AFSA20.jpg,FS,4,num_2,32,num_4,0.950126900687,,,2017_Aug_18_1301,60.0260104397,FEMA4ImagesEEG,001,101201,
AFNE01.JPG,AFNE01.JPG,AFNE01.JPG,AFNE01.JPG,AFNE01.JPG,AFNE01.JPG,,,,,,,,,1,3,13,8,,,,,,,,,,,,,,,AFSA18.jpg,AFSA08.jpg,AFNE04.jpg,AFNE02.jpg,AFNE04.jpg,FN,3,num_2,16,num_2,1.20012200938,,,2017_Aug_18_1301,60.0260104397,FEMA4ImagesEEG,001,101201,
AFNE01.JPG,AFNE01.JPG,AFNE01.JPG,AFNE01.JPG,AFNE01.JPG,AFNE01.JPG,,,,,,,,,1,4,14,0,,,,,,,,,,,,,,,AFNE09.jpg,AFNE06.jpg,AFSA16.jpg,AFSA05.jpg,AFNE06.jpg,FN,3,num_6,16,num_6,1.96673544397,,,2017_Aug_18_1301,60.0260104397,FEMA4ImagesEEG,001,101201,
AFNE01.JPG,AFNE01.JPG,AFNE01.JPG,AFNE01.JPG,AFNE01.JPG,AFNE01.JPG,,,,,,,,,1,5,15,3,,,,,,,,,,,,,,,AFNE14.jpg,AFSA04.jpg,AFNE20.jpg,AFSA17.jpg,AFNE14.jpg,FN,3,num_8,32,num_2,0.683554681134,,,2017_Aug_18_1301,60.0260104397,FEMA4ImagesEEG,001,101201,
AFNE01.JPG,AFNE01.JPG,AFNE01.JPG,AFNE01.JPG,AFNE01.JPG,AFNE01.JPG,,,,,,,,,1,6,16,9,,,,,,,,,,,,,,,AFSA19.jpg,AFNE20.jpg,AFSA07.jpg,AFNE14.jpg,AFSA19.jpg,FS,4,num_8,16,num_8,1.95003099949,,,2017_Aug_18_1301,60.0260104397,FEMA4ImagesEEG,001,101201,
AFNE01.JPG,AFNE01.JPG,AFNE01.JPG,AFNE01.JPG,AFNE01.JPG,AFNE01.JPG,,,,,,,,,1,7,17,6,,,,,,,,,,,,,,,AFNE12.jpg,AFSA12.jpg,AFSA07.jpg,AFNE01.jpg,AFNE12.jpg,FN,3,num_8,32,num_4,2.76661632123,,,2017_Aug_18_1301,60.0260104397,FEMA4ImagesEEG,001,101201,
AFNE01.JPG,AFNE01.JPG,AFNE01.JPG,AFNE01.JPG,AFNE01.JPG,AFNE01.JPG,,,,,,,,,1,8,18,2,,,,,,,,,,,,,,,AFNE20.jpg,AFNE01.jpg,AFSA20.jpg,AFSA01.jpg,AFNE20.jpg,FN,3,num_8,16,num_8,0.900163352722,,,2017_Aug_18_1301,60.0260104397,FEMA4ImagesEEG,001,101201,
AFNE01.JPG,AFNE01.JPG,AFNE01.JPG,AFNE01.JPG,AFNE01.JPG,AFNE01.JPG,,,,,,,,,1,9,19,7,,,,,,,,,,,,,,,AFNE13.jpg,AFNE14.jpg,AFSA15.jpg,AFSA05.jpg,AFNE14.jpg,FN,3,num_6,32,num_4,1.28340912948,,,2017_Aug_18_1301,60.0260104397,FEMA4ImagesEEG,001,101201,
AFNE01.JPG,AFNE01.JPG,AFNE01.JPG,AFNE01.JPG,AFNE01.JPG,AFNE01.JPG,,,,,,,,,2,0,20,5,,,,,,,,,,,,,,,AFSA03.jpg,AFNE13.jpg,AFSA02.jpg,AFNE16.jpg,AFNE16.jpg,FN,3,num_4,32,num_8,0.366782207799,,,2017_Aug_18_1301,60.0260104397,FEMA4ImagesEEG,001,101201,
AFNE01.JPG,AFNE01.JPG,AFNE01.JPG,AFNE01.JPG,AFNE01.JPG,AFNE01.JPG,,,,,,,,,2,1,21,2,,,,,,,,,,,,,,,AFNE18.jpg,AFSA01.jpg,AFSA11.jpg,AFNE05.jpg,AFSA11.jpg,FS,4,num_2,48,None,,,,2017_Aug_18_1301,60.0260104397,FEMA4ImagesEEG,001,101201,
AFNE01.JPG,AFNE01.JPG,AFNE01.JPG,AFNE01.JPG,AFNE01.JPG,AFNE01.JPG,,,,,,,,,2,2,22,7,,,,,,,,,,,,,,,AFSA20.jpg,AFSA02.jpg,AFNE05.jpg,AFNE04.jpg,AFSA20.jpg,FS,4,num_8,32,num_6,0.700173488061,,,2017_Aug_18_1301,60.0260104397,FEMA4ImagesEEG,001,101201,
AFNE01.JPG,AFNE01.JPG,AFNE01.JPG,AFNE01.JPG,AFNE01.JPG,AFNE01.JPG,,,,,,,,,2,3,23,1,,,,,,,,,,,,,,,AFNE18.jpg,AFNE13.jpg,AFSA01.jpg,AFSA06.jpg,AFSA01.jpg,FS,4,num_2,32,num_6,0.866768576321,,,2017_Aug_18_1301,60.0260104397,FEMA4ImagesEEG,001,101201,
AFNE01.JPG,AFNE01.JPG,AFNE01.JPG,AFNE01.JPG,AFNE01.JPG,AFNE01.JPG,,,,,,,,,2,4,24,4,,,,,,,,,,,,,,,AFSA07.jpg,AFNE19.jpg,AFNE09.jpg,AFSA09.jpg,AFNE09.jpg,FN,3,num_2,32,num_4,1.28345307079,,,2017_Aug_18_1301,60.0260104397,FEMA4ImagesEEG,001,101201,
AFNE01.JPG,AFNE01.JPG,AFNE01.JPG,AFNE01.JPG,AFNE01.JPG,AFNE01.JPG,,,,,,,,,2,5,25,8,,,,,,,,,,,,,,,AFSA12.jpg,AFSA03.jpg,AFNE09.jpg,AFNE18.jpg,AFNE09.jpg,FN,3,num_2,32,num_8,1.28343767527,,,2017_Aug_18_1301,60.0260104397,FEMA4ImagesEEG,001,101201,
AFNE01.JPG,AFNE01.JPG,AFNE01.JPG,AFNE01.JPG,AFNE01.JPG,AFNE01.JPG,,,,,,,,,2,6,26,0,,,,,,,,,,,,,,,AFSA06.jpg,AFNE05.jpg,AFNE03.jpg,AFSA17.jpg,AFSA17.jpg,FS,4,num_4,32,num_2,4.73313879402,,,2017_Aug_18_1301,60.0260104397,FEMA4ImagesEEG,001,101201,
AFNE01.JPG,AFNE01.JPG,AFNE01.JPG,AFNE01.JPG,AFNE01.JPG,AFNE01.JPG,,,,,,,,,2,7,27,9,,,,,,,,,,,,,,,AFSA19.jpg,AFNE16.jpg,AFNE05.jpg,AFSA20.jpg,AFNE05.jpg,FN,3,num_2,32,num_6,0.533463254338,,,2017_Aug_18_1301,60.0260104397,FEMA4ImagesEEG,001,101201,
AFNE01.JPG,AFNE01.JPG,AFNE01.JPG,AFNE01.JPG,AFNE01.JPG,AFNE01.JPG,,,,,,,,,2,8,28,6,,,,,,,,,,,,,,,AFNE08.jpg,AFNE14.jpg,AFSA06.jpg,AFSA19.jpg,AFNE08.jpg,FN,3,num_8,32,num_6,1.00009975006,,,2017_Aug_18_1301,60.0260104397,FEMA4ImagesEEG,001,101201,
AFNE01.JPG,AFNE01.JPG,AFNE01.JPG,AFNE01.JPG,AFNE01.JPG,AFNE01.JPG,,,,,,,,,2,9,29,3,,,,,,,,,,,,,,,AFSA12.jpg,AFNE09.jpg,AFSA09.jpg,AFNE12.jpg,AFNE09.jpg,FN,3,num_6,16,num_6,0.850067660038,,,2017_Aug_18_1301,60.0260104397,FEMA4ImagesEEG,001,101201,
AFNE01.JPG,AFNE01.JPG,AFNE01.JPG,AFNE01.JPG,AFNE01.JPG,AFNE01.JPG,,,,,,,,,3,0,30,7,,,,,,,,,,,,,,,AFSA16.jpg,AFSA09.jpg,AFNE02.jpg,AFNE07.jpg,AFNE02.jpg,FN,3,num_2,32,num_6,1.45004847983,,,2017_Aug_18_1301,60.0260104397,FEMA4ImagesEEG,001,101201,
AFNE01.JPG,AFNE01.JPG,AFNE01.JPG,AFNE01.JPG,AFNE01.JPG,AFNE01.JPG,,,,,,,,,3,1,31,5,,,,,,,,,,,,,,,AFSA07.jpg,AFSA10.jpg,AFNE01.jpg,AFNE15.jpg,AFNE15.jpg,FN,3,num_4,16,num_4,2.81658211432,,,2017_Aug_18_1301,60.0260104397,FEMA4ImagesEEG,001,101201,
AFNE01.JPG,AFNE01.JPG,AFNE01.JPG,AFNE01.JPG,AFNE01.JPG,AFNE01.JPG,,,,,,,,,3,2,32,4,,,,,,,,,,,,,,,AFNE19.jpg,AFSA18.jpg,AFNE01.jpg,AFSA12.jpg,AFNE01.jpg,FN,3,num_2,32,num_4,0.900097601116,,,2017_Aug_18_1301,60.0260104397,FEMA4ImagesEEG,001,101201,
AFNE01.JPG,AFNE01.JPG,AFNE01.JPG,AFNE01.JPG,AFNE01.JPG,AFNE01.JPG,,,,,,,,,3,3,33,0,,,,,,,,,,,,,,,AFNE02.jpg,AFSA07.jpg,AFSA11.jpg,AFNE15.jpg,AFNE15.jpg,FN,3,num_4,16,num_4,1.01673395251,,,2017_Aug_18_1301,60.0260104397,FEMA4ImagesEEG,001,101201,
AFNE01.JPG,AFNE01.JPG,AFNE01.JPG,AFNE01.JPG,AFNE01.JPG,AFNE01.JPG,,,,,,,,,3,4,34,3,,,,,,,,,,,,,,,AFSA17.jpg,AFSA14.jpg,AFNE17.jpg,AFNE09.jpg,AFNE17.jpg,FN,3,num_2,32,num_8,0.9167006918,,,2017_Aug_18_1301,60.0260104397,FEMA4ImagesEEG,001,101201,
AFNE01.JPG,AFNE01.JPG,AFNE01.JPG,AFNE01.JPG,AFNE01.JPG,AFNE01.JPG,,,,,,,,,3,5,35,8,,,,,,,,,,,,,,,AFSA02.jpg,AFNE11.jpg,AFNE05.jpg,AFSA11.jpg,AFNE05.jpg,FN,3,num_2,32,num_8,1.28342933604,,,2017_Aug_18_1301,60.0260104397,FEMA4ImagesEEG,001,101201,
AFNE01.JPG,AFNE01.JPG,AFNE01.JPG,AFNE01.JPG,AFNE01.JPG,AFNE01.JPG,,,,,,,,,3,6,36,6,,,,,,,,,,,,,,,AFSA19.jpg,AFNE08.jpg,AFSA20.jpg,AFNE09.jpg,AFNE09.jpg,FN,3,num_4,32,num_6,0.616822861542,,,2017_Aug_18_1301,60.0260104397,FEMA4ImagesEEG,001,101201,
AFNE01.JPG,AFNE01.JPG,AFNE01.JPG,AFNE01.JPG,AFNE01.JPG,AFNE01.JPG,,,,,,,,,3,7,37,1,,,,,,,,,,,,,,,AFSA08.jpg,AFSA18.jpg,AFNE03.jpg,AFNE18.jpg,AFNE18.jpg,FN,3,num_4,32,num_8,1.28341201617,,,2017_Aug_18_1301,60.0260104397,FEMA4ImagesEEG,001,101201,
AFNE01.JPG,AFNE01.JPG,AFNE01.JPG,AFNE01.JPG,AFNE01.JPG,AFNE01.JPG,,,,,,,,,3,8,38,2,,,,,,,,,,,,,,,AFSA06.jpg,AFNE14.jpg,AFSA13.jpg,AFNE06.jpg,AFNE14.jpg,FN,3,num_6,32,num_8,0.933458379062,,,2017_Aug_18_1301,60.0260104397,FEMA4ImagesEEG,001,101201,
AFNE01.JPG,AFNE01.JPG,AFNE01.JPG,AFNE01.JPG,AFNE01.JPG,AFNE01.JPG,,,,,,,,,3,9,39,9,,,,,,,,,,,,,,,AFSA09.jpg,AFNE04.jpg,AFNE02.jpg,AFSA06.jpg,AFSA06.jpg,FS,4,num_4,16,num_4,3.4998834111,,,2017_Aug_18_1301,60.0260104397,FEMA4ImagesEEG,001,101201,
AFNE01.JPG,AFNE01.JPG,AFNE01.JPG,AFNE01.JPG,AFNE01.JPG,AFNE01.JPG,,,,,,,,,4,0,40,1,,,,,,,,,,,,,,,AFSA04.jpg,AFNE09.jpg,AFNE10.jpg,AFSA13.jpg,AFNE10.jpg,FN,3,num_2,32,num_4,0.666782560584,,,2017_Aug_18_1301,60.0260104397,FEMA4ImagesEEG,001,101201,
AFNE01.JPG,AFNE01.JPG,AFNE01.JPG,AFNE01.JPG,AFNE01.JPG,AFNE01.JPG,,,,,,,,,4,1,41,5,,,,,,,,,,,,,,,AFSA15.jpg,AFSA18.jpg,AFNE15.jpg,AFNE08.jpg,AFSA18.jpg,FS,4,num_6,32,num_8,1.66669564013,,,2017_Aug_18_1301,60.0260104397,FEMA4ImagesEEG,001,101201,
AFNE01.JPG,AFNE01.JPG,AFNE01.JPG,AFNE01.JPG,AFNE01.JPG,AFNE01.JPG,,,,,,,,,4,2,42,8,,,,,,,,,,,,,,,AFSA18.jpg,AFSA02.jpg,AFNE13.jpg,AFNE11.jpg,AFNE11.jpg,FN,3,num_4,32,num_6,0.63356451178,,,2017_Aug_18_1301,60.0260104397,FEMA4ImagesEEG,001,101201,
AFNE01.JPG,AFNE01.JPG,AFNE01.JPG,AFNE01.JPG,AFNE01.JPG,AFNE01.JPG,,,,,,,,,4,3,43,0,,,,,,,,,,,,,,,AFNE04.jpg,AFNE18.jpg,AFSA20.jpg,AFSA11.jpg,AFSA20.jpg,FS,4,num_2,16,num_2,1.03342813329,,,2017_Aug_18_1301,60.0260104397,FEMA4ImagesEEG,001,101201,
AFNE01.JPG,AFNE01.JPG,AFNE01.JPG,AFNE01.JPG,AFNE01.JPG,AFNE01.JPG,,,,,,,,,4,4,44,6,,,,,,,,,,,,,,,AFSA19.jpg,AFSA18.jpg,AFNE16.jpg,AFNE12.jpg,AFSA18.jpg,FS,4,num_6,32,num_4,3.89993947645,,,2017_Aug_18_1301,60.0260104397,FEMA4ImagesEEG,001,101201,
AFNE01.JPG,AFNE01.JPG,AFNE01.JPG,AFNE01.JPG,AFNE01.JPG,AFNE01.JPG,,,,,,,,,4,5,45,3,,,,,,,,,,,,,,,AFNE07.jpg,AFSA16.jpg,AFSA02.jpg,AFNE18.jpg,AFSA02.jpg,FS,4,num_2,16,num_2,0.566751865845,,,2017_Aug_18_1301,60.0260104397,FEMA4ImagesEEG,001,101201,
AFNE01.JPG,AFNE01.JPG,AFNE01.JPG,AFNE01.JPG,AFNE01.JPG,AFNE01.JPG,,,,,,,,,4,6,46,4,,,,,,,,,,,,,,,AFNE01.jpg,AFNE12.jpg,AFSA20.jpg,AFSA02.jpg,AFSA20.jpg,FS,4,num_2,32,num_4,1.01676442282,,,2017_Aug_18_1301,60.0260104397,FEMA4ImagesEEG,001,101201,
AFNE01.JPG,AFNE01.JPG,AFNE01.JPG,AFNE01.JPG,AFNE01.JPG,AFNE01.JPG,,,,,,,,,4,7,47,7,,,,,,,,,,,,,,,AFSA20.jpg,AFNE10.jpg,AFNE12.jpg,AFSA02.jpg,AFSA20.jpg,FS,4,num_8,32,num_6,0.566787147196,,,2017_Aug_18_1301,60.0260104397,FEMA4ImagesEEG,001,101201,
AFNE01.JPG,AFNE01.JPG,AFNE01.JPG,AFNE01.JPG,AFNE01.JPG,AFNE01.JPG,,,,,,,,,4,8,48,9,,,,,,,,,,,,,,,AFNE20.jpg,AFNE08.jpg,AFSA01.jpg,AFSA02.jpg,AFSA02.jpg,FS,4,num_4,48,None,,,,2017_Aug_18_1301,60.0260104397,FEMA4ImagesEEG,001,101201,
AFNE01.JPG,AFNE01.JPG,AFNE01.JPG,AFNE01.JPG,AFNE01.JPG,AFNE01.JPG,,,,,,,,,4,9,49,2,,,,,,,,,,,,,,,AFSA02.jpg,AFNE03.jpg,AFNE10.jpg,AFSA06.jpg,AFNE10.jpg,FN,3,num_2,32,num_8,0.583482610935,,,2017_Aug_18_1301,60.0260104397,FEMA4ImagesEEG,001,101201,
AFNE01.JPG,AFNE01.JPG,AFNE01.JPG,AFNE01.JPG,AFNE01.JPG,AFNE01.JPG,,,,,,,,,5,0,50,2,,,,,,,,,,,,,,,AFNE12.jpg,AFSA13.jpg,AFNE07.jpg,AFSA01.jpg,AFNE07.jpg,FN,3,num_2,32,num_6,0.71683912311,,,2017_Aug_18_1301,60.0260104397,FEMA4ImagesEEG,001,101201,
AFNE01.JPG,AFNE01.JPG,AFNE01.JPG,AFNE01.JPG,AFNE01.JPG,AFNE01.JPG,,,,,,,,,5,1,51,9,,,,,,,,,,,,,,,AFSA07.jpg,AFNE18.jpg,AFSA11.jpg,AFNE08.jpg,AFSA07.jpg,FS,4,num_8,16,num_8,0.850100696262,,,2017_Aug_18_1301,60.0260104397,FEMA4ImagesEEG,001,101201,
AFNE01.JPG,AFNE01.JPG,AFNE01.JPG,AFNE01.JPG,AFNE01.JPG,AFNE01.JPG,,,,,,,,,5,2,52,0,,,,,,,,,,,,,,,AFNE17.jpg,AFSA03.jpg,AFNE04.jpg,AFSA11.jpg,AFSA11.jpg,FS,4,num_4,32,num_6,2.5666036841,,,2017_Aug_18_1301,60.0260104397,FEMA4ImagesEEG,001,101201,
AFNE01.JPG,AFNE01.JPG,AFNE01.JPG,AFNE01.JPG,AFNE01.JPG,AFNE01.JPG,,,,,,,,,5,3,53,7,,,,,,,,,,,,,,,AFSA12.jpg,AFSA19.jpg,AFNE04.jpg,AFNE19.jpg,AFNE04.jpg,FN,3,num_2,32,num_8,1.15007923875,,,2017_Aug_18_1301,60.0260104397,FEMA4ImagesEEG,001,101201,
AFNE01.JPG,AFNE01.JPG,AFNE01.JPG,AFNE01.JPG,AFNE01.JPG,AFNE01.JPG,,,,,,,,,5,4,54,4,,,,,,,,,,,,,,,AFNE03.jpg,AFSA04.jpg,AFSA17.jpg,AFNE19.jpg,AFSA04.jpg,FS,4,num_6,32,num_4,0.750213372114,,,2017_Aug_18_1301,60.0260104397,FEMA4ImagesEEG,001,101201,
AFNE01.JPG,AFNE01.JPG,AFNE01.JPG,AFNE01.JPG,AFNE01.JPG,AFNE01.JPG,,,,,,,,,5,5,55,8,,,,,,,,,,,,,,,AFSA04.jpg,AFNE03.jpg,AFNE11.jpg,AFSA10.jpg,AFNE11.jpg,FN,3,num_2,32,num_4,1.50005115796,,,2017_Aug_18_1301,60.0260104397,FEMA4ImagesEEG,001,101201,
AFNE01.JPG,AFNE01.JPG,AFNE01.JPG,AFNE01.JPG,AFNE01.JPG,AFNE01.JPG,,,,,,,,,5,6,56,3,,,,,,,,,,,,,,,AFNE13.jpg,AFNE09.jpg,AFSA01.jpg,AFSA05.jpg,AFSA05.jpg,FS,4,num_4,16,num_4,0.966761744581,,,2017_Aug_18_1301,60.0260104397,FEMA4ImagesEEG,001,101201,
AFNE01.JPG,AFNE01.JPG,AFNE01.JPG,AFNE01.JPG,AFNE01.JPG,AFNE01.JPG,,,,,,,,,5,7,57,5,,,,,,,,,,,,,,,AFNE16.jpg,AFSA02.jpg,AFNE17.jpg,AFSA13.jpg,AFNE16.jpg,FN,3,num_8,32,num_4,1.18346695881,,,2017_Aug_18_1301,60.0260104397,FEMA4ImagesEEG,001,101201,
AFNE01.JPG,AFNE01.JPG,AFNE01.JPG,AFNE01.JPG,AFNE01.JPG,AFNE01.JPG,,,,,,,,,5,8,58,6,,,,,,,,,,,,,,,AFNE11.jpg,AFSA19.jpg,AFSA04.jpg,AFNE20.jpg,AFNE11.jpg,FN,3,num_8,32,num_4,0.833525830589,,,2017_Aug_18_1301,60.0260104397,FEMA4ImagesEEG,001,101201,
AFNE01.JPG,AFNE01.JPG,AFNE01.JPG,AFNE01.JPG,AFNE01.JPG,AFNE01.JPG,,,,,,,,,5,9,59,1,,,,,,,,,,,,,,,AFSA17.jpg,AFSA08.jpg,AFNE02.jpg,AFNE18.jpg,AFSA08.jpg,FS,4,num_6,32,num_4,0.900121656596,,,2017_Aug_18_1301,60.0260104397,FEMA4ImagesEEG,001,101201,
,,,,,,,,,,,,,,,,,,,,,,,,,,,,,,,,,,,,,,,,,,,space,22.7817385567,2017_Aug_18_1301,60.0260104397,FEMA4ImagesEEG,001,101201,
AFNE01.JPG,AFNE01.JPG,AFNE01.JPG,AFNE01.JPG,AFNE01.JPG,AFNE01.JPG,,,,,,,,,,,,,0,0,0,9,,,,,,,,,,,AMSA03.jpg,AMSA20.jpg,AMNE12.jpg,AMNE19.jpg,AMSA20.jpg,MS,2,num_6,32,num_4,0.633339673339,,,2017_Aug_18_1301,60.0260104397,FEMA4ImagesEEG,001,101201,
AFNE01.JPG,AFNE01.JPG,AFNE01.JPG,AFNE01.JPG,AFNE01.JPG,AFNE01.JPG,,,,,,,,,,,,,0,1,1,1,,,,,,,,,,,AMSA02.jpg,AMNE09.jpg,AMSA09.jpg,AMNE20.jpg,AMSA09.jpg,MS,2,num_2,32,num_8,0.683477382874,,,2017_Aug_18_1301,60.0260104397,FEMA4ImagesEEG,001,101201,
AFNE01.JPG,AFNE01.JPG,AFNE01.JPG,AFNE01.JPG,AFNE01.JPG,AFNE01.JPG,,,,,,,,,,,,,0,2,2,0,,,,,,,,,,,AMSA14.jpg,AMNE19.jpg,AMNE05.jpg,AMSA08.jpg,AMNE05.jpg,MN,1,num_2,16,num_2,1.10021961044,,,2017_Aug_18_1301,60.0260104397,FEMA4ImagesEEG,001,101201,
AFNE01.JPG,AFNE01.JPG,AFNE01.JPG,AFNE01.JPG,AFNE01.JPG,AFNE01.JPG,,,,,,,,,,,,,0,3,3,3,,,,,,,,,,,AMNE11.jpg,AMSA13.jpg,AMNE09.jpg,AMSA14.jpg,AMNE11.jpg,MN,1,num_8,32,num_6,0.850095243659,,,2017_Aug_18_1301,60.0260104397,FEMA4ImagesEEG,001,101201,
AFNE01.JPG,AFNE01.JPG,AFNE01.JPG,AFNE01.JPG,AFNE01.JPG,AFNE01.JPG,,,,,,,,,,,,,0,4,4,6,,,,,,,,,,,AMSA10.jpg,AMSA06.jpg,AMNE13.jpg,AMNE03.jpg,AMSA10.jpg,MS,2,num_8,16,num_8,0.716860933346,,,2017_Aug_18_1301,60.0260104397,FEMA4ImagesEEG,001,101201,
AFNE01.JPG,AFNE01.JPG,AFNE01.JPG,AFNE01.JPG,AFNE01.JPG,AFNE01.JPG,,,,,,,,,,,,,0,5,5,5,,,,,,,,,,,AMNE14.jpg,AMSA07.jpg,AMSA15.jpg,AMNE08.jpg,AMNE14.jpg,MN,1,num_8,32,num_6,0.866747086809,,,2017_Aug_18_1301,60.0260104397,FEMA4ImagesEEG,001,101201,
AFNE01.JPG,AFNE01.JPG,AFNE01.JPG,AFNE01.JPG,AFNE01.JPG,AFNE01.JPG,,,,,,,,,,,,,0,6,6,8,,,,,,,,,,,AMNE05.jpg,AMSA09.jpg,AMNE09.jpg,AMSA14.jpg,AMSA14.jpg,MS,2,num_4,32,num_8,1.0333036863,,,2017_Aug_18_1301,60.0260104397,FEMA4ImagesEEG,001,101201,
AFNE01.JPG,AFNE01.JPG,AFNE01.JPG,AFNE01.JPG,AFNE01.JPG,AFNE01.JPG,,,,,,,,,,,,,0,7,7,2,,,,,,,,,,,AMSA18.jpg,AMNE01.jpg,AMNE13.jpg,AMSA09.jpg,AMNE01.jpg,MN,1,num_6,32,num_4,3.06678698683,,,2017_Aug_18_1301,60.0260104397,FEMA4ImagesEEG,001,101201,
AFNE01.JPG,AFNE01.JPG,AFNE01.JPG,AFNE01.JPG,AFNE01.JPG,AFNE01.JPG,,,,,,,,,,,,,0,8,8,7,,,,,,,,,,,AMNE10.jpg,AMSA07.jpg,AMSA13.jpg,AMNE16.jpg,AMNE16.jpg,MN,1,num_4,16,num_4,0.716750278196,,,2017_Aug_18_1301,60.0260104397,FEMA4ImagesEEG,001,101201,
AFNE01.JPG,AFNE01.JPG,AFNE01.JPG,AFNE01.JPG,AFNE01.JPG,AFNE01.JPG,,,,,,,,,,,,,0,9,9,4,,,,,,,,,,,AMNE20.jpg,AMNE18.jpg,AMSA20.jpg,AMSA13.jpg,AMNE18.jpg,MN,1,num_6,32,num_2,1.55003747845,,,2017_Aug_18_1301,60.0260104397,FEMA4ImagesEEG,001,101201,
AFNE01.JPG,AFNE01.JPG,AFNE01.JPG,AFNE01.JPG,AFNE01.JPG,AFNE01.JPG,,,,,,,,,,,,,1,0,10,1,,,,,,,,,,,AMSA08.jpg,AMSA01.jpg,AMNE09.jpg,AMNE20.jpg,AMSA08.jpg,MS,2,num_8,32,num_2,1.45005008351,,,2017_Aug_18_1301,60.0260104397,FEMA4ImagesEEG,001,101201,
AFNE01.JPG,AFNE01.JPG,AFNE01.JPG,AFNE01.JPG,AFNE01.JPG,AFNE01.JPG,,,,,,,,,,,,,1,1,11,9,,,,,,,,,,,AMNE06.jpg,AMSA16.jpg,AMNE13.jpg,AMSA09.jpg,AMNE13.jpg,MN,1,num_2,32,num_8,0.833472587809,,,2017_Aug_18_1301,60.0260104397,FEMA4ImagesEEG,001,101201,
AFNE01.JPG,AFNE01.JPG,AFNE01.JPG,AFNE01.JPG,AFNE01.JPG,AFNE01.JPG,,,,,,,,,,,,,1,2,12,4,,,,,,,,,,,AMSA03.jpg,AMNE01.jpg,AMNE14.jpg,AMSA12.jpg,AMSA12.jpg,MS,2,num_4,32,num_2,1.34976023104,,,2017_Aug_18_1301,60.0260104397,FEMA4ImagesEEG,001,101201,
AFNE01.JPG,AFNE01.JPG,AFNE01.JPG,AFNE01.JPG,AFNE01.JPG,AFNE01.JPG,,,,,,,,,,,,,1,3,13,2,,,,,,,,,,,AMSA04.jpg,AMNE04.jpg,AMNE01.jpg,AMSA05.jpg,AMSA04.jpg,MS,2,num_8,32,num_4,0.600173584302,,,2017_Aug_18_1301,60.0260104397,FEMA4ImagesEEG,001,101201,
AFNE01.JPG,AFNE01.JPG,AFNE01.JPG,AFNE01.JPG,AFNE01.JPG,AFNE01.JPG,,,,,,,,,,,,,1,4,14,5,,,,,,,,,,,AMSA12.jpg,AMSA03.jpg,AMNE15.jpg,AMNE06.jpg,AMSA03.jpg,MS,2,num_6,48,None,,,,2017_Aug_18_1301,60.0260104397,FEMA4ImagesEEG,001,101201,
AFNE01.JPG,AFNE01.JPG,AFNE01.JPG,AFNE01.JPG,AFNE01.JPG,AFNE01.JPG,,,,,,,,,,,,,1,5,15,8,,,,,,,,,,,AMSA20.jpg,AMNE04.jpg,AMSA11.jpg,AMNE18.jpg,AMSA11.jpg,MS,2,num_2,32,num_4,1.33351284068,,,2017_Aug_18_1301,60.0260104397,FEMA4ImagesEEG,001,101201,
AFNE01.JPG,AFNE01.JPG,AFNE01.JPG,AFNE01.JPG,AFNE01.JPG,AFNE01.JPG,,,,,,,,,,,,,1,6,16,0,,,,,,,,,,,AMNE19.jpg,AMSA15.jpg,AMNE07.jpg,AMSA16.jpg,AMSA15.jpg,MS,2,num_6,32,num_8,0.8001426009,,,2017_Aug_18_1301,60.0260104397,FEMA4ImagesEEG,001,101201,
AFNE01.JPG,AFNE01.JPG,AFNE01.JPG,AFNE01.JPG,AFNE01.JPG,AFNE01.JPG,,,,,,,,,,,,,1,7,17,6,,,,,,,,,,,AMNE10.jpg,AMSA20.jpg,AMNE02.jpg,AMSA02.jpg,AMSA20.jpg,MS,2,num_6,16,num_6,1.55010643747,,,2017_Aug_18_1301,60.0260104397,FEMA4ImagesEEG,001,101201,
AFNE01.JPG,AFNE01.JPG,AFNE01.JPG,AFNE01.JPG,AFNE01.JPG,AFNE01.JPG,,,,,,,,,,,,,1,8,18,3,,,,,,,,,,,AMNE17.jpg,AMSA09.jpg,AMNE12.jpg,AMSA04.jpg,AMNE17.jpg,MN,1,num_8,16,num_8,0.683345558879,,,2017_Aug_18_1301,60.0260104397,FEMA4ImagesEEG,001,101201,
AFNE01.JPG,AFNE01.JPG,AFNE01.JPG,AFNE01.JPG,AFNE01.JPG,AFNE01.JPG,,,,,,,,,,,,,1,9,19,7,,,,,,,,,,,AMNE16.jpg,AMNE09.jpg,AMSA20.jpg,AMSA04.jpg,AMSA04.jpg,MS,2,num_4,16,num_4,0.483491367137,,,2017_Aug_18_1301,60.0260104397,FEMA4ImagesEEG,001,101201,
AFNE01.JPG,AFNE01.JPG,AFNE01.JPG,AFNE01.JPG,AFNE01.JPG,AFNE01.JPG,,,,,,,,,,,,,2,0,20,4,,,,,,,,,,,AMNE06.jpg,AMSA15.jpg,AMNE12.jpg,AMSA09.jpg,AMNE12.jpg,MN,1,num_2,32,num_8,0.400146834669,,,2017_Aug_18_1301,60.0260104397,FEMA4ImagesEEG,001,101201,
AFNE01.JPG,AFNE01.JPG,AFNE01.JPG,AFNE01.JPG,AFNE01.JPG,AFNE01.JPG,,,,,,,,,,,,,2,1,21,9,,,,,,,,,,,AMNE11.jpg,AMSA08.jpg,AMSA13.jpg,AMNE14.jpg,AMSA08.jpg,MS,2,num_6,32,num_4,1.03342685034,,,2017_Aug_18_1301,60.0260104397,FEMA4ImagesEEG,001,101201,
AFNE01.JPG,AFNE01.JPG,AFNE01.JPG,AFNE01.JPG,AFNE01.JPG,AFNE01.JPG,,,,,,,,,,,,,2,2,22,5,,,,,,,,,,,AMSA06.jpg,AMNE02.jpg,AMNE10.jpg,AMSA19.jpg,AMNE02.jpg,MN,1,num_6,32,num_4,0.633473421796,,,2017_Aug_18_1301,60.0260104397,FEMA4ImagesEEG,001,101201,
AFNE01.JPG,AFNE01.JPG,AFNE01.JPG,AFNE01.JPG,AFNE01.JPG,AFNE01.JPG,,,,,,,,,,,,,2,3,23,3,,,,,,,,,,,AMSA08.jpg,AMNE13.jpg,AMNE02.jpg,AMSA09.jpg,AMNE02.jpg,MN,1,num_2,32,num_6,0.66678063618,,,2017_Aug_18_1301,60.0260104397,FEMA4ImagesEEG,001,101201,
AFNE01.JPG,AFNE01.JPG,AFNE01.JPG,AFNE01.JPG,AFNE01.JPG,AFNE01.JPG,,,,,,,,,,,,,2,4,24,2,,,,,,,,,,,AMNE02.jpg,AMSA02.jpg,AMSA08.jpg,AMNE09.jpg,AMNE09.jpg,MN,1,num_4,32,num_8,0.666873009177,,,2017_Aug_18_1301,60.0260104397,FEMA4ImagesEEG,001,101201,
AFNE01.JPG,AFNE01.JPG,AFNE01.JPG,AFNE01.JPG,AFNE01.JPG,AFNE01.JPG,,,,,,,,,,,,,2,5,25,1,,,,,,,,,,,AMSA09.jpg,AMSA02.jpg,AMNE05.jpg,AMNE19.jpg,AMNE19.jpg,MN,1,num_4,16,num_4,0.633455781091,,,2017_Aug_18_1301,60.0260104397,FEMA4ImagesEEG,001,101201,
AFNE01.JPG,AFNE01.JPG,AFNE01.JPG,AFNE01.JPG,AFNE01.JPG,AFNE01.JPG,,,,,,,,,,,,,2,6,26,6,,,,,,,,,,,AMNE03.jpg,AMSA03.jpg,AMNE09.jpg,AMSA12.jpg,AMNE03.jpg,MN,1,num_8,32,num_4,0.750100792444,,,2017_Aug_18_1301,60.0260104397,FEMA4ImagesEEG,001,101201,
AFNE01.JPG,AFNE01.JPG,AFNE01.JPG,AFNE01.JPG,AFNE01.JPG,AFNE01.JPG,,,,,,,,,,,,,2,7,27,8,,,,,,,,,,,AMNE13.jpg,AMNE17.jpg,AMSA04.jpg,AMSA15.jpg,AMSA04.jpg,MS,2,num_2,16,num_2,1.19991930184,,,2017_Aug_18_1301,60.0260104397,FEMA4ImagesEEG,001,101201,
AFNE01.JPG,AFNE01.JPG,AFNE01.JPG,AFNE01.JPG,AFNE01.JPG,AFNE01.JPG,,,,,,,,,,,,,2,8,28,0,,,,,,,,,,,AMSA04.jpg,AMNE15.jpg,AMNE20.jpg,AMSA14.jpg,AMNE15.jpg,MN,1,num_6,32,num_4,1.65010313381,,,2017_Aug_18_1301,60.0260104397,FEMA4ImagesEEG,001,101201,
AFNE01.JPG,AFNE01.JPG,AFNE01.JPG,AFNE01.JPG,AFNE01.JPG,AFNE01.JPG,,,,,,,,,,,,,2,9,29,7,,,,,,,,,,,AMSA12.jpg,AMNE17.jpg,AMSA01.jpg,AMNE02.jpg,AMNE02.jpg,MN,1,num_4,32,num_6,2.43339920259,,,2017_Aug_18_1301,60.0260104397,FEMA4ImagesEEG,001,101201,
AFNE01.JPG,AFNE01.JPG,AFNE01.JPG,AFNE01.JPG,AFNE01.JPG,AFNE01.JPG,,,,,,,,,,,,,3,0,30,5,,,,,,,,,,,AMNE07.jpg,AMSA05.jpg,AMNE05.jpg,AMSA11.jpg,AMSA11.jpg,MS,2,num_4,16,num_4,1.01676474349,,,2017_Aug_18_1301,60.0260104397,FEMA4ImagesEEG,001,101201,
AFNE01.JPG,AFNE01.JPG,AFNE01.JPG,AFNE01.JPG,AFNE01.JPG,AFNE01.JPG,,,,,,,,,,,,,3,1,31,0,,,,,,,,,,,AMSA16.jpg,AMNE06.jpg,AMSA01.jpg,AMNE18.jpg,AMSA01.jpg,MS,2,num_2,32,num_4,0.766748145223,,,2017_Aug_18_1301,60.0260104397,FEMA4ImagesEEG,001,101201,
AFNE01.JPG,AFNE01.JPG,AFNE01.JPG,AFNE01.JPG,AFNE01.JPG,AFNE01.JPG,,,,,,,,,,,,,3,2,32,3,,,,,,,,,,,AMNE04.jpg,AMSA08.jpg,AMSA14.jpg,AMNE12.jpg,AMSA08.jpg,MS,2,num_6,32,num_4,1.58336842759,,,2017_Aug_18_1301,60.0260104397,FEMA4ImagesEEG,001,101201,
AFNE01.JPG,AFNE01.JPG,AFNE01.JPG,AFNE01.JPG,AFNE01.JPG,AFNE01.JPG,,,,,,,,,,,,,3,3,33,2,,,,,,,,,,,AMNE13.jpg,AMSA16.jpg,AMNE08.jpg,AMSA13.jpg,AMSA16.jpg,MS,2,num_6,32,num_2,1.5331008184,,,2017_Aug_18_1301,60.0260104397,FEMA4ImagesEEG,001,101201,
AFNE01.JPG,AFNE01.JPG,AFNE01.JPG,AFNE01.JPG,AFNE01.JPG,AFNE01.JPG,,,,,,,,,,,,,3,4,34,1,,,,,,,,,,,AMSA07.jpg,AMSA08.jpg,AMNE04.jpg,AMNE17.jpg,AMNE04.jpg,MN,1,num_2,32,num_8,3.89987564919,,,2017_Aug_18_1301,60.0260104397,FEMA4ImagesEEG,001,101201,
AFNE01.JPG,AFNE01.JPG,AFNE01.JPG,AFNE01.JPG,AFNE01.JPG,AFNE01.JPG,,,,,,,,,,,,,3,5,35,8,,,,,,,,,,,AMNE07.jpg,AMSA19.jpg,AMSA12.jpg,AMNE13.jpg,AMSA19.jpg,MS,2,num_6,32,num_8,0.500154756883,,,2017_Aug_18_1301,60.0260104397,FEMA4ImagesEEG,001,101201,
AFNE01.JPG,AFNE01.JPG,AFNE01.JPG,AFNE01.JPG,AFNE01.JPG,AFNE01.JPG,,,,,,,,,,,,,3,6,36,4,,,,,,,,,,,AMSA12.jpg,AMSA18.jpg,AMNE10.jpg,AMNE19.jpg,AMNE19.jpg,MN,1,num_4,32,num_8,0.766671809193,,,2017_Aug_18_1301,60.0260104397,FEMA4ImagesEEG,001,101201,
AFNE01.JPG,AFNE01.JPG,AFNE01.JPG,AFNE01.JPG,AFNE01.JPG,AFNE01.JPG,,,,,,,,,,,,,3,7,37,9,,,,,,,,,,,AMSA09.jpg,AMSA08.jpg,AMNE05.jpg,AMNE08.jpg,AMNE08.jpg,MN,1,num_4,32,num_6,0.900152447575,,,2017_Aug_18_1301,60.0260104397,FEMA4ImagesEEG,001,101201,
AFNE01.JPG,AFNE01.JPG,AFNE01.JPG,AFNE01.JPG,AFNE01.JPG,AFNE01.JPG,,,,,,,,,,,,,3,8,38,6,,,,,,,,,,,AMSA07.jpg,AMNE06.jpg,AMSA16.jpg,AMNE20.jpg,AMNE06.jpg,MN,1,num_6,32,num_8,1.20011238719,,,2017_Aug_18_1301,60.0260104397,FEMA4ImagesEEG,001,101201,
AFNE01.JPG,AFNE01.JPG,AFNE01.JPG,AFNE01.JPG,AFNE01.JPG,AFNE01.JPG,,,,,,,,,,,,,3,9,39,7,,,,,,,,,,,AMNE19.jpg,AMSA03.jpg,AMNE13.jpg,AMSA02.jpg,AMSA02.jpg,MS,2,num_4,32,num_2,0.866615583538,,,2017_Aug_18_1301,60.0260104397,FEMA4ImagesEEG,001,101201,
AFNE01.JPG,AFNE01.JPG,AFNE01.JPG,AFNE01.JPG,AFNE01.JPG,AFNE01.JPG,,,,,,,,,,,,,4,0,40,5,,,,,,,,,,,AMNE08.jpg,AMNE01.jpg,AMSA05.jpg,AMSA15.jpg,AMSA05.jpg,MS,2,num_2,16,num_2,2.71660305862,,,2017_Aug_18_1301,60.0260104397,FEMA4ImagesEEG,001,101201,
AFNE01.JPG,AFNE01.JPG,AFNE01.JPG,AFNE01.JPG,AFNE01.JPG,AFNE01.JPG,,,,,,,,,,,,,4,1,41,9,,,,,,,,,,,AMNE15.jpg,AMNE16.jpg,AMSA16.jpg,AMSA04.jpg,AMSA16.jpg,MS,2,num_2,32,num_6,0.733449911524,,,2017_Aug_18_1301,60.0260104397,FEMA4ImagesEEG,001,101201,
AFNE01.JPG,AFNE01.JPG,AFNE01.JPG,AFNE01.JPG,AFNE01.JPG,AFNE01.JPG,,,,,,,,,,,,,4,2,42,2,,,,,,,,,,,AMNE01.jpg,AMNE02.jpg,AMSA08.jpg,AMSA14.jpg,AMNE02.jpg,MN,1,num_6,32,num_8,2.21668821503,,,2017_Aug_18_1301,60.0260104397,FEMA4ImagesEEG,001,101201,
AFNE01.JPG,AFNE01.JPG,AFNE01.JPG,AFNE01.JPG,AFNE01.JPG,AFNE01.JPG,,,,,,,,,,,,,4,3,43,4,,,,,,,,,,,AMSA02.jpg,AMNE11.jpg,AMNE08.jpg,AMSA08.jpg,AMNE08.jpg,MN,1,num_2,32,num_6,0.633150116133,,,2017_Aug_18_1301,60.0260104397,FEMA4ImagesEEG,001,101201,
AFNE01.JPG,AFNE01.JPG,AFNE01.JPG,AFNE01.JPG,AFNE01.JPG,AFNE01.JPG,,,,,,,,,,,,,4,4,44,0,,,,,,,,,,,AMSA10.jpg,AMNE09.jpg,AMNE12.jpg,AMSA02.jpg,AMNE09.jpg,MN,1,num_6,16,num_6,0.800154468219,,,2017_Aug_18_1301,60.0260104397,FEMA4ImagesEEG,001,101201,
AFNE01.JPG,AFNE01.JPG,AFNE01.JPG,AFNE01.JPG,AFNE01.JPG,AFNE01.JPG,,,,,,,,,,,,,4,5,45,1,,,,,,,,,,,AMNE05.jpg,AMSA15.jpg,AMNE11.jpg,AMSA20.jpg,AMNE05.jpg,MN,1,num_8,32,num_2,3.75004562526,,,2017_Aug_18_1301,60.0260104397,FEMA4ImagesEEG,001,101201,
AFNE01.JPG,AFNE01.JPG,AFNE01.JPG,AFNE01.JPG,AFNE01.JPG,AFNE01.JPG,,,,,,,,,,,,,4,6,46,6,,,,,,,,,,,AMSA09.jpg,AMNE20.jpg,AMSA14.jpg,AMNE17.jpg,AMSA14.jpg,MS,2,num_2,32,num_6,1.16675706179,,,2017_Aug_18_1301,60.0260104397,FEMA4ImagesEEG,001,101201,
AFNE01.JPG,AFNE01.JPG,AFNE01.JPG,AFNE01.JPG,AFNE01.JPG,AFNE01.JPG,,,,,,,,,,,,,4,7,47,8,,,,,,,,,,,AMSA08.jpg,AMSA07.jpg,AMNE13.jpg,AMNE16.jpg,AMNE13.jpg,MN,1,num_2,32,num_6,0.550137228507,,,2017_Aug_18_1301,60.0260104397,FEMA4ImagesEEG,001,101201,
AFNE01.JPG,AFNE01.JPG,AFNE01.JPG,AFNE01.JPG,AFNE01.JPG,AFNE01.JPG,,,,,,,,,,,,,4,8,48,3,,,,,,,,,,,AMNE10.jpg,AMSA12.jpg,AMNE08.jpg,AMSA14.jpg,AMNE10.jpg,MN,1,num_8,16,num_8,2.78325661772,,,2017_Aug_18_1301,60.0260104397,FEMA4ImagesEEG,001,101201,
AFNE01.JPG,AFNE01.JPG,AFNE01.JPG,AFNE01.JPG,AFNE01.JPG,AFNE01.JPG,,,,,,,,,,,,,4,9,49,7,,,,,,,,,,,AMSA14.jpg,AMNE19.jpg,AMNE14.jpg,AMSA20.jpg,AMSA14.jpg,MS,2,num_8,32,num_6,0.833447890822,,,2017_Aug_18_1301,60.0260104397,FEMA4ImagesEEG,001,101201,
AFNE01.JPG,AFNE01.JPG,AFNE01.JPG,AFNE01.JPG,AFNE01.JPG,AFNE01.JPG,,,,,,,,,,,,,5,0,50,7,,,,,,,,,,,AMNE02.jpg,AMNE16.jpg,AMSA09.jpg,AMSA13.jpg,AMNE02.jpg,MN,1,num_8,32,num_4,1.26668576139,,,2017_Aug_18_1301,60.0260104397,FEMA4ImagesEEG,001,101201,
AFNE01.JPG,AFNE01.JPG,AFNE01.JPG,AFNE01.JPG,AFNE01.JPG,AFNE01.JPG,,,,,,,,,,,,,5,1,51,9,,,,,,,,,,,AMSA09.jpg,AMNE15.jpg,AMSA13.jpg,AMNE14.jpg,AMSA13.jpg,MS,2,num_2,32,num_8,1.01674132951,,,2017_Aug_18_1301,60.0260104397,FEMA4ImagesEEG,001,101201,
AFNE01.JPG,AFNE01.JPG,AFNE01.JPG,AFNE01.JPG,AFNE01.JPG,AFNE01.JPG,,,,,,,,,,,,,5,2,52,0,,,,,,,,,,,AMSA11.jpg,AMSA09.jpg,AMNE16.jpg,AMNE01.jpg,AMNE01.jpg,MN,1,num_4,32,num_8,0.96675821644,,,2017_Aug_18_1301,60.0260104397,FEMA4ImagesEEG,001,101201,
AFNE01.JPG,AFNE01.JPG,AFNE01.JPG,AFNE01.JPG,AFNE01.JPG,AFNE01.JPG,,,,,,,,,,,,,5,3,53,5,,,,,,,,,,,AMSA19.jpg,AMNE19.jpg,AMSA12.jpg,AMNE13.jpg,AMNE13.jpg,MN,1,num_4,32,num_6,0.366833526175,,,2017_Aug_18_1301,60.0260104397,FEMA4ImagesEEG,001,101201,
AFNE01.JPG,AFNE01.JPG,AFNE01.JPG,AFNE01.JPG,AFNE01.JPG,AFNE01.JPG,,,,,,,,,,,,,5,4,54,3,,,,,,,,,,,AMSA19.jpg,AMNE02.jpg,AMSA03.jpg,AMNE15.jpg,AMSA19.jpg,MS,2,num_8,32,num_2,1.28338507394,,,2017_Aug_18_1301,60.0260104397,FEMA4ImagesEEG,001,101201,
AFNE01.JPG,AFNE01.JPG,AFNE01.JPG,AFNE01.JPG,AFNE01.JPG,AFNE01.JPG,,,,,,,,,,,,,5,5,55,1,,,,,,,,,,,AMNE04.jpg,AMNE01.jpg,AMSA04.jpg,AMSA01.jpg,AMSA01.jpg,MS,2,num_4,32,num_6,0.516769073496,,,2017_Aug_18_1301,60.0260104397,FEMA4ImagesEEG,001,101201,
AFNE01.JPG,AFNE01.JPG,AFNE01.JPG,AFNE01.JPG,AFNE01.JPG,AFNE01.JPG,,,,,,,,,,,,,5,6,56,2,,,,,,,,,,,AMSA15.jpg,AMNE03.jpg,AMNE10.jpg,AMSA17.jpg,AMSA15.jpg,MS,2,num_8,16,num_8,1.91670229548,,,2017_Aug_18_1301,60.0260104397,FEMA4ImagesEEG,001,101201,
AFNE01.JPG,AFNE01.JPG,AFNE01.JPG,AFNE01.JPG,AFNE01.JPG,AFNE01.JPG,,,,,,,,,,,,,5,7,57,4,,,,,,,,,,,AMSA17.jpg,AMSA05.jpg,AMNE12.jpg,AMNE08.jpg,AMSA05.jpg,MS,2,num_6,32,num_8,4.04987855192,,,2017_Aug_18_1301,60.0260104397,FEMA4ImagesEEG,001,101201,
AFNE01.JPG,AFNE01.JPG,AFNE01.JPG,AFNE01.JPG,AFNE01.JPG,AFNE01.JPG,,,,,,,,,,,,,5,8,58,6,,,,,,,,,,,AMNE02.jpg,AMSA17.jpg,AMSA16.jpg,AMNE06.jpg,AMNE06.jpg,MN,1,num_4,32,num_2,1.43380365538,,,2017_Aug_18_1301,60.0260104397,FEMA4ImagesEEG,001,101201,
AFNE01.JPG,AFNE01.JPG,AFNE01.JPG,AFNE01.JPG,AFNE01.JPG,AFNE01.JPG,,,,,,,,,,,,,5,9,59,8,,,,,,,,,,,AMNE14.jpg,AMSA16.jpg,AMSA06.jpg,AMNE18.jpg,AMSA06.jpg,MS,2,num_2,32,num_4,1.00011739077,,,2017_Aug_18_1301,60.0260104397,FEMA4ImagesEEG,001,101201,
,,,,,,,,,,,,,,,,,,,,,,,,,,,,,,,,,,,,,,,,,,,space,32.6306852315,2017_Aug_18_1301,60.0260104397,FEMA4ImagesEEG,001,101201,
AFNE01.JPG,AFNE01.JPG,AFNE01.JPG,AFNE01.JPG,AFNE01.JPG,AFNE01.JPG,,,,,,,,,,,,,,,,,0,0,0,7,,,,,,,AFNE06.jpg,AFSA07.jpg,AFSA16.jpg,AFNE15.jpg,AFSA07.jpg,FS,4,num_6,32,num_2,0.783614242508,,,2017_Aug_18_1301,60.0260104397,FEMA4ImagesEEG,001,101201,
AFNE01.JPG,AFNE01.JPG,AFNE01.JPG,AFNE01.JPG,AFNE01.JPG,AFNE01.JPG,,,,,,,,,,,,,,,,,0,1,1,1,,,,,,,AFNE02.jpg,AFNE20.jpg,AFSA15.jpg,AFSA09.jpg,AFNE20.jpg,FN,3,num_6,16,num_6,0.533516817843,,,2017_Aug_18_1301,60.0260104397,FEMA4ImagesEEG,001,101201,
AFNE01.JPG,AFNE01.JPG,AFNE01.JPG,AFNE01.JPG,AFNE01.JPG,AFNE01.JPG,,,,,,,,,,,,,,,,,0,2,2,9,,,,,,,AFNE07.jpg,AFSA15.jpg,AFSA06.jpg,AFNE06.jpg,AFSA15.jpg,FS,4,num_6,32,num_2,1.03343294439,,,2017_Aug_18_1301,60.0260104397,FEMA4ImagesEEG,001,101201,
AFNE01.JPG,AFNE01.JPG,AFNE01.JPG,AFNE01.JPG,AFNE01.JPG,AFNE01.JPG,,,,,,,,,,,,,,,,,0,3,3,3,,,,,,,AFSA11.jpg,AFNE10.jpg,AFNE02.jpg,AFSA19.jpg,AFSA19.jpg,FS,4,num_4,16,num_4,0.350130364648,,,2017_Aug_18_1301,60.0260104397,FEMA4ImagesEEG,001,101201,
AFNE01.JPG,AFNE01.JPG,AFNE01.JPG,AFNE01.JPG,AFNE01.JPG,AFNE01.JPG,,,,,,,,,,,,,,,,,0,4,4,4,,,,,,,AFNE12.jpg,AFSA18.jpg,AFSA12.jpg,AFNE14.jpg,AFSA12.jpg,FS,4,num_2,16,num_2,1.03348105535,,,2017_Aug_18_1301,60.0260104397,FEMA4ImagesEEG,001,101201,
AFNE01.JPG,AFNE01.JPG,AFNE01.JPG,AFNE01.JPG,AFNE01.JPG,AFNE01.JPG,,,,,,,,,,,,,,,,,0,5,5,5,,,,,,,AFSA11.jpg,AFSA03.jpg,AFNE18.jpg,AFNE02.jpg,AFSA03.jpg,FS,4,num_6,32,num_2,1.1834210931,,,2017_Aug_18_1301,60.0260104397,FEMA4ImagesEEG,001,101201,
AFNE01.JPG,AFNE01.JPG,AFNE01.JPG,AFNE01.JPG,AFNE01.JPG,AFNE01.JPG,,,,,,,,,,,,,,,,,0,6,6,0,,,,,,,AFSA18.jpg,AFNE11.jpg,AFNE17.jpg,AFSA08.jpg,AFNE17.jpg,FN,3,num_2,16,num_2,0.566780411697,,,2017_Aug_18_1301,60.0260104397,FEMA4ImagesEEG,001,101201,
AFNE01.JPG,AFNE01.JPG,AFNE01.JPG,AFNE01.JPG,AFNE01.JPG,AFNE01.JPG,,,,,,,,,,,,,,,,,0,7,7,6,,,,,,,AFSA09.jpg,AFSA07.jpg,AFNE12.jpg,AFNE02.jpg,AFNE02.jpg,FN,3,num_4,32,num_2,1.08342696261,,,2017_Aug_18_1301,60.0260104397,FEMA4ImagesEEG,001,101201,
AFNE01.JPG,AFNE01.JPG,AFNE01.JPG,AFNE01.JPG,AFNE01.JPG,AFNE01.JPG,,,,,,,,,,,,,,,,,0,8,8,2,,,,,,,AFNE13.jpg,AFNE17.jpg,AFSA07.jpg,AFSA11.jpg,AFSA07.jpg,FS,4,num_2,32,num_6,0.633519287512,,,2017_Aug_18_1301,60.0260104397,FEMA4ImagesEEG,001,101201,
AFNE01.JPG,AFNE01.JPG,AFNE01.JPG,AFNE01.JPG,AFNE01.JPG,AFNE01.JPG,,,,,,,,,,,,,,,,,0,9,9,8,,,,,,,AFNE12.jpg,AFSA11.jpg,AFNE07.jpg,AFSA01.jpg,AFSA11.jpg,FS,4,num_6,32,num_4,1.01675191394,,,2017_Aug_18_1301,60.0260104397,FEMA4ImagesEEG,001,101201,
AFNE01.JPG,AFNE01.JPG,AFNE01.JPG,AFNE01.JPG,AFNE01.JPG,AFNE01.JPG,,,,,,,,,,,,,,,,,1,0,10,3,,,,,,,AFNE04.jpg,AFNE19.jpg,AFSA13.jpg,AFSA19.jpg,AFNE04.jpg,FN,3,num_8,16,num_8,1.86697769864,,,2017_Aug_18_1301,60.0260104397,FEMA4ImagesEEG,001,101201,
AFNE01.JPG,AFNE01.JPG,AFNE01.JPG,AFNE01.JPG,AFNE01.JPG,AFNE01.JPG,,,,,,,,,,,,,,,,,1,1,11,2,,,,,,,AFSA14.jpg,AFNE02.jpg,AFSA15.jpg,AFNE03.jpg,AFSA15.jpg,FS,4,num_2,32,num_6,0.800070113735,,,2017_Aug_18_1301,60.0260104397,FEMA4ImagesEEG,001,101201,
AFNE01.JPG,AFNE01.JPG,AFNE01.JPG,AFNE01.JPG,AFNE01.JPG,AFNE01.JPG,,,,,,,,,,,,,,,,,1,2,12,1,,,,,,,AFSA08.jpg,AFNE17.jpg,AFSA13.jpg,AFNE12.jpg,AFSA13.jpg,FS,4,num_2,16,num_2,0.799982551776,,,2017_Aug_18_1301,60.0260104397,FEMA4ImagesEEG,001,101201,
AFNE01.JPG,AFNE01.JPG,AFNE01.JPG,AFNE01.JPG,AFNE01.JPG,AFNE01.JPG,,,,,,,,,,,,,,,,,1,3,13,9,,,,,,,AFSA14.jpg,AFNE03.jpg,AFNE19.jpg,AFSA12.jpg,AFSA14.jpg,FS,4,num_8,16,num_8,1.13342130155,,,2017_Aug_18_1301,60.0260104397,FEMA4ImagesEEG,001,101201,
AFNE01.JPG,AFNE01.JPG,AFNE01.JPG,AFNE01.JPG,AFNE01.JPG,AFNE01.JPG,,,,,,,,,,,,,,,,,1,4,14,8,,,,,,,AFSA10.jpg,AFSA04.jpg,AFNE08.jpg,AFNE01.jpg,AFSA10.jpg,FS,4,num_8,16,num_8,0.63332684373,,,2017_Aug_18_1301,60.0260104397,FEMA4ImagesEEG,001,101201,
AFNE01.JPG,AFNE01.JPG,AFNE01.JPG,AFNE01.JPG,AFNE01.JPG,AFNE01.JPG,,,,,,,,,,,,,,,,,1,5,15,4,,,,,,,AFSA18.jpg,AFNE11.jpg,AFNE02.jpg,AFSA05.jpg,AFNE02.jpg,FN,3,num_2,32,num_8,1.01675704576,,,2017_Aug_18_1301,60.0260104397,FEMA4ImagesEEG,001,101201,
AFNE01.JPG,AFNE01.JPG,AFNE01.JPG,AFNE01.JPG,AFNE01.JPG,AFNE01.JPG,,,,,,,,,,,,,,,,,1,6,16,6,,,,,,,AFSA18.jpg,AFNE09.jpg,AFNE05.jpg,AFSA11.jpg,AFSA11.jpg,FS,4,num_4,32,num_2,1.25010480167,,,2017_Aug_18_1301,60.0260104397,FEMA4ImagesEEG,001,101201,
AFNE01.JPG,AFNE01.JPG,AFNE01.JPG,AFNE01.JPG,AFNE01.JPG,AFNE01.JPG,,,,,,,,,,,,,,,,,1,7,17,5,,,,,,,AFSA08.jpg,AFSA10.jpg,AFNE10.jpg,AFNE08.jpg,AFNE10.jpg,FN,3,num_2,32,num_4,0.616748129192,,,2017_Aug_18_1301,60.0260104397,FEMA4ImagesEEG,001,101201,
AFNE01.JPG,AFNE01.JPG,AFNE01.JPG,AFNE01.JPG,AFNE01.JPG,AFNE01.JPG,,,,,,,,,,,,,,,,,1,8,18,7,,,,,,,AFSA07.jpg,AFSA19.jpg,AFNE11.jpg,AFNE04.jpg,AFNE11.jpg,FN,3,num_2,32,num_4,0.783454514167,,,2017_Aug_18_1301,60.0260104397,FEMA4ImagesEEG,001,101201,
AFNE01.JPG,AFNE01.JPG,AFNE01.JPG,AFNE01.JPG,AFNE01.JPG,AFNE01.JPG,,,,,,,,,,,,,,,,,1,9,19,0,,,,,,,AFSA08.jpg,AFNE12.jpg,AFNE16.jpg,AFSA12.jpg,AFSA08.jpg,FS,4,num_8,16,num_8,2.01673844288,,,2017_Aug_18_1301,60.0260104397,FEMA4ImagesEEG,001,101201,
AFNE01.JPG,AFNE01.JPG,AFNE01.JPG,AFNE01.JPG,AFNE01.JPG,AFNE01.JPG,,,,,,,,,,,,,,,,,2,0,20,6,,,,,,,AFSA05.jpg,AFNE10.jpg,AFNE19.jpg,AFSA08.jpg,AFSA08.jpg,FS,4,num_4,32,num_8,1.46673143469,,,2017_Aug_18_1301,60.0260104397,FEMA4ImagesEEG,001,101201,
AFNE01.JPG,AFNE01.JPG,AFNE01.JPG,AFNE01.JPG,AFNE01.JPG,AFNE01.JPG,,,,,,,,,,,,,,,,,2,1,21,1,,,,,,,AFNE14.jpg,AFSA05.jpg,AFSA09.jpg,AFNE01.jpg,AFNE14.jpg,FN,3,num_8,16,num_8,0.750128055282,,,2017_Aug_18_1301,60.0260104397,FEMA4ImagesEEG,001,101201,
AFNE01.JPG,AFNE01.JPG,AFNE01.JPG,AFNE01.JPG,AFNE01.JPG,AFNE01.JPG,,,,,,,,,,,,,,,,,2,2,22,2,,,,,,,AFSA11.jpg,AFNE20.jpg,AFNE11.jpg,AFSA01.jpg,AFSA11.jpg,FS,4,num_8,32,num_2,1.10011921899,,,2017_Aug_18_1301,60.0260104397,FEMA4ImagesEEG,001,101201,
AFNE01.JPG,AFNE01.JPG,AFNE01.JPG,AFNE01.JPG,AFNE01.JPG,AFNE01.JPG,,,,,,,,,,,,,,,,,2,3,23,5,,,,,,,AFNE11.jpg,AFNE08.jpg,AFSA14.jpg,AFSA16.jpg,AFNE11.jpg,FN,3,num_8,16,num_8,0.816746012308,,,2017_Aug_18_1301,60.0260104397,FEMA4ImagesEEG,001,101201,
AFNE01.JPG,AFNE01.JPG,AFNE01.JPG,AFNE01.JPG,AFNE01.JPG,AFNE01.JPG,,,,,,,,,,,,,,,,,2,4,24,3,,,,,,,AFSA05.jpg,AFNE10.jpg,AFNE01.jpg,AFSA06.jpg,AFSA06.jpg,FS,4,num_4,16,num_4,1.16676058999,,,2017_Aug_18_1301,60.0260104397,FEMA4ImagesEEG,001,101201,
AFNE01.JPG,AFNE01.JPG,AFNE01.JPG,AFNE01.JPG,AFNE01.JPG,AFNE01.JPG,,,,,,,,,,,,,,,,,2,5,25,9,,,,,,,AFNE06.jpg,AFSA18.jpg,AFSA14.jpg,AFNE05.jpg,AFNE06.jpg,FN,3,num_8,32,num_4,4.06647651078,,,2017_Aug_18_1301,60.0260104397,FEMA4ImagesEEG,001,101201,
AFNE01.JPG,AFNE01.JPG,AFNE01.JPG,AFNE01.JPG,AFNE01.JPG,AFNE01.JPG,,,,,,,,,,,,,,,,,2,6,26,7,,,,,,,AFSA13.jpg,AFSA12.jpg,AFNE18.jpg,AFNE12.jpg,AFNE12.jpg,FN,3,num_4,32,num_2,0.800154468277,,,2017_Aug_18_1301,60.0260104397,FEMA4ImagesEEG,001,101201,
AFNE01.JPG,AFNE01.JPG,AFNE01.JPG,AFNE01.JPG,AFNE01.JPG,AFNE01.JPG,,,,,,,,,,,,,,,,,2,7,27,4,,,,,,,AFSA09.jpg,AFSA18.jpg,AFNE18.jpg,AFNE15.jpg,AFSA18.jpg,FS,4,num_6,16,num_6,1.03345507541,,,2017_Aug_18_1301,60.0260104397,FEMA4ImagesEEG,001,101201,
AFNE01.JPG,AFNE01.JPG,AFNE01.JPG,AFNE01.JPG,AFNE01.JPG,AFNE01.JPG,,,,,,,,,,,,,,,,,2,8,28,0,,,,,,,AFSA02.jpg,AFNE10.jpg,AFSA09.jpg,AFNE17.jpg,AFSA02.jpg,FS,4,num_8,48,None,,,,2017_Aug_18_1301,60.0260104397,FEMA4ImagesEEG,001,101201,
AFNE01.JPG,AFNE01.JPG,AFNE01.JPG,AFNE01.JPG,AFNE01.JPG,AFNE01.JPG,,,,,,,,,,,,,,,,,2,9,29,8,,,,,,,AFNE09.jpg,AFSA11.jpg,AFNE13.jpg,AFSA15.jpg,AFSA11.jpg,FS,4,num_6,32,num_8,3.28310089861,,,2017_Aug_18_1301,60.0260104397,FEMA4ImagesEEG,001,101201,
AFNE01.JPG,AFNE01.JPG,AFNE01.JPG,AFNE01.JPG,AFNE01.JPG,AFNE01.JPG,,,,,,,,,,,,,,,,,3,0,30,2,,,,,,,AFSA17.jpg,AFNE06.jpg,AFSA04.jpg,AFNE11.jpg,AFNE06.jpg,FN,3,num_6,16,num_6,0.717043754994,,,2017_Aug_18_1301,60.0260104397,FEMA4ImagesEEG,001,101201,
AFNE01.JPG,AFNE01.JPG,AFNE01.JPG,AFNE01.JPG,AFNE01.JPG,AFNE01.JPG,,,,,,,,,,,,,,,,,3,1,31,8,,,,,,,AFSA11.jpg,AFNE10.jpg,AFNE11.jpg,AFSA10.jpg,AFSA11.jpg,FS,4,num_8,32,num_4,4.58316860674,,,2017_Aug_18_1301,60.0260104397,FEMA4ImagesEEG,001,101201,
AFNE01.JPG,AFNE01.JPG,AFNE01.JPG,AFNE01.JPG,AFNE01.JPG,AFNE01.JPG,,,,,,,,,,,,,,,,,3,2,32,0,,,,,,,AFNE13.jpg,AFSA16.jpg,AFNE10.jpg,AFSA02.jpg,AFSA02.jpg,FS,4,num_4,32,num_2,1.11666008615,,,2017_Aug_18_1301,60.0260104397,FEMA4ImagesEEG,001,101201,
AFNE01.JPG,AFNE01.JPG,AFNE01.JPG,AFNE01.JPG,AFNE01.JPG,AFNE01.JPG,,,,,,,,,,,,,,,,,3,3,33,9,,,,,,,AFSA10.jpg,AFNE06.jpg,AFSA11.jpg,AFNE19.jpg,AFSA11.jpg,FS,4,num_2,32,num_6,2.89996641857,,,2017_Aug_18_1301,60.0260104397,FEMA4ImagesEEG,001,101201,
AFNE01.JPG,AFNE01.JPG,AFNE01.JPG,AFNE01.JPG,AFNE01.JPG,AFNE01.JPG,,,,,,,,,,,,,,,,,3,4,34,3,,,,,,,AFNE12.jpg,AFSA06.jpg,AFSA16.jpg,AFNE02.jpg,AFSA06.jpg,FS,4,num_6,32,num_4,1.80002488941,,,2017_Aug_18_1301,60.0260104397,FEMA4ImagesEEG,001,101201,
AFNE01.JPG,AFNE01.JPG,AFNE01.JPG,AFNE01.JPG,AFNE01.JPG,AFNE01.JPG,,,,,,,,,,,,,,,,,3,5,35,1,,,,,,,AFSA10.jpg,AFSA14.jpg,AFNE07.jpg,AFNE18.jpg,AFSA14.jpg,FS,4,num_6,32,num_2,1.05012199335,,,2017_Aug_18_1301,60.0260104397,FEMA4ImagesEEG,001,101201,
AFNE01.JPG,AFNE01.JPG,AFNE01.JPG,AFNE01.JPG,AFNE01.JPG,AFNE01.JPG,,,,,,,,,,,,,,,,,3,6,36,5,,,,,,,AFSA05.jpg,AFNE05.jpg,AFSA16.jpg,AFNE15.jpg,AFNE05.jpg,FN,3,num_6,32,num_8,0.983405248495,,,2017_Aug_18_1301,60.0260104397,FEMA4ImagesEEG,001,101201,
AFNE01.JPG,AFNE01.JPG,AFNE01.JPG,AFNE01.JPG,AFNE01.JPG,AFNE01.JPG,,,,,,,,,,,,,,,,,3,7,37,6,,,,,,,AFSA08.jpg,AFSA09.jpg,AFNE10.jpg,AFNE20.jpg,AFNE10.jpg,FN,3,num_2,16,num_2,1.04980125366,,,2017_Aug_18_1301,60.0260104397,FEMA4ImagesEEG,001,101201,
AFNE01.JPG,AFNE01.JPG,AFNE01.JPG,AFNE01.JPG,AFNE01.JPG,AFNE01.JPG,,,,,,,,,,,,,,,,,3,8,38,4,,,,,,,AFSA01.jpg,AFSA09.jpg,AFNE07.jpg,AFNE05.jpg,AFNE05.jpg,FN,3,num_4,16,num_4,1.23347348592,,,2017_Aug_18_1301,60.0260104397,FEMA4ImagesEEG,001,101201,
AFNE01.JPG,AFNE01.JPG,AFNE01.JPG,AFNE01.JPG,AFNE01.JPG,AFNE01.JPG,,,,,,,,,,,,,,,,,3,9,39,7,,,,,,,AFNE11.jpg,AFSA04.jpg,AFNE16.jpg,AFSA05.jpg,AFSA05.jpg,FS,4,num_4,32,num_6,0.750091491034,,,2017_Aug_18_1301,60.0260104397,FEMA4ImagesEEG,001,101201,
AFNE01.JPG,AFNE01.JPG,AFNE01.JPG,AFNE01.JPG,AFNE01.JPG,AFNE01.JPG,,,,,,,,,,,,,,,,,4,0,40,9,,,,,,,AFSA08.jpg,AFNE04.jpg,AFNE03.jpg,AFSA18.jpg,AFSA08.jpg,FS,4,num_8,16,num_8,0.750226843113,,,2017_Aug_18_1301,60.0260104397,FEMA4ImagesEEG,001,101201,
AFNE01.JPG,AFNE01.JPG,AFNE01.JPG,AFNE01.JPG,AFNE01.JPG,AFNE01.JPG,,,,,,,,,,,,,,,,,4,1,41,0,,,,,,,AFNE01.jpg,AFSA16.jpg,AFNE11.jpg,AFSA05.jpg,AFNE01.jpg,FN,3,num_8,16,num_8,0.616890537611,,,2017_Aug_18_1301,60.0260104397,FEMA4ImagesEEG,001,101201,
AFNE01.JPG,AFNE01.JPG,AFNE01.JPG,AFNE01.JPG,AFNE01.JPG,AFNE01.JPG,,,,,,,,,,,,,,,,,4,2,42,2,,,,,,,AFNE12.jpg,AFNE04.jpg,AFSA10.jpg,AFSA02.jpg,AFNE04.jpg,FN,3,num_6,32,num_8,0.683470005868,,,2017_Aug_18_1301,60.0260104397,FEMA4ImagesEEG,001,101201,
AFNE01.JPG,AFNE01.JPG,AFNE01.JPG,AFNE01.JPG,AFNE01.JPG,AFNE01.JPG,,,,,,,,,,,,,,,,,4,3,43,7,,,,,,,AFNE19.jpg,AFNE17.jpg,AFSA16.jpg,AFSA19.jpg,AFNE19.jpg,FN,3,num_8,16,num_8,0.866728804656,,,2017_Aug_18_1301,60.0260104397,FEMA4ImagesEEG,001,101201,
AFNE01.JPG,AFNE01.JPG,AFNE01.JPG,AFNE01.JPG,AFNE01.JPG,AFNE01.JPG,,,,,,,,,,,,,,,,,4,4,44,6,,,,,,,AFNE14.jpg,AFSA18.jpg,AFNE15.jpg,AFSA05.jpg,AFSA18.jpg,FS,4,num_6,16,num_6,0.900105298846,,,2017_Aug_18_1301,60.0260104397,FEMA4ImagesEEG,001,101201,
AFNE01.JPG,AFNE01.JPG,AFNE01.JPG,AFNE01.JPG,AFNE01.JPG,AFNE01.JPG,,,,,,,,,,,,,,,,,4,5,45,3,,,,,,,AFSA01.jpg,AFNE05.jpg,AFSA08.jpg,AFNE11.jpg,AFNE05.jpg,FN,3,num_6,32,num_4,0.666771334712,,,2017_Aug_18_1301,60.0260104397,FEMA4ImagesEEG,001,101201,
AFNE01.JPG,AFNE01.JPG,AFNE01.JPG,AFNE01.JPG,AFNE01.JPG,AFNE01.JPG,,,,,,,,,,,,,,,,,4,6,46,1,,,,,,,AFSA08.jpg,AFSA05.jpg,AFNE12.jpg,AFNE15.jpg,AFNE12.jpg,FN,3,num_2,48,None,,,,2017_Aug_18_1301,60.0260104397,FEMA4ImagesEEG,001,101201,
AFNE01.JPG,AFNE01.JPG,AFNE01.JPG,AFNE01.JPG,AFNE01.JPG,AFNE01.JPG,,,,,,,,,,,,,,,,,4,7,47,5,,,,,,,AFSA18.jpg,AFNE05.jpg,AFSA03.jpg,AFNE07.jpg,AFNE07.jpg,FN,3,num_4,32,num_8,1.15012285934,,,2017_Aug_18_1301,60.0260104397,FEMA4ImagesEEG,001,101201,
AFNE01.JPG,AFNE01.JPG,AFNE01.JPG,AFNE01.JPG,AFNE01.JPG,AFNE01.JPG,,,,,,,,,,,,,,,,,4,8,48,4,,,,,,,AFNE02.jpg,AFNE15.jpg,AFSA07.jpg,AFSA04.jpg,AFSA07.jpg,FS,4,num_2,16,num_2,4.63315621018,,,2017_Aug_18_1301,60.0260104397,FEMA4ImagesEEG,001,101201,
AFNE01.JPG,AFNE01.JPG,AFNE01.JPG,AFNE01.JPG,AFNE01.JPG,AFNE01.JPG,,,,,,,,,,,,,,,,,4,9,49,8,,,,,,,AFSA04.jpg,AFNE18.jpg,AFSA07.jpg,AFNE07.jpg,AFSA07.jpg,FS,4,num_2,32,num_4,0.666857613716,,,2017_Aug_18_1301,60.0260104397,FEMA4ImagesEEG,001,101201,
AFNE01.JPG,AFNE01.JPG,AFNE01.JPG,AFNE01.JPG,AFNE01.JPG,AFNE01.JPG,,,,,,,,,,,,,,,,,5,0,50,9,,,,,,,AFNE07.jpg,AFSA10.jpg,AFSA12.jpg,AFNE05.jpg,AFSA10.jpg,FS,4,num_6,32,num_8,0.516788959329,,,2017_Aug_18_1301,60.0260104397,FEMA4ImagesEEG,001,101201,
AFNE01.JPG,AFNE01.JPG,AFNE01.JPG,AFNE01.JPG,AFNE01.JPG,AFNE01.JPG,,,,,,,,,,,,,,,,,5,1,51,8,,,,,,,AFNE17.jpg,AFSA11.jpg,AFSA12.jpg,AFNE14.jpg,AFSA12.jpg,FS,4,num_2,32,num_6,1.63339836866,,,2017_Aug_18_1301,60.0260104397,FEMA4ImagesEEG,001,101201,
AFNE01.JPG,AFNE01.JPG,AFNE01.JPG,AFNE01.JPG,AFNE01.JPG,AFNE01.JPG,,,,,,,,,,,,,,,,,5,2,52,4,,,,,,,AFSA05.jpg,AFNE16.jpg,AFSA08.jpg,AFNE17.jpg,AFSA05.jpg,FS,4,num_8,32,num_6,0.350170136371,,,2017_Aug_18_1301,60.0260104397,FEMA4ImagesEEG,001,101201,
AFNE01.JPG,AFNE01.JPG,AFNE01.JPG,AFNE01.JPG,AFNE01.JPG,AFNE01.JPG,,,,,,,,,,,,,,,,,5,3,53,3,,,,,,,AFSA02.jpg,AFSA07.jpg,AFNE18.jpg,AFNE13.jpg,AFSA07.jpg,FS,4,num_6,32,num_8,0.683495344303,,,2017_Aug_18_1301,60.0260104397,FEMA4ImagesEEG,001,101201,
AFNE01.JPG,AFNE01.JPG,AFNE01.JPG,AFNE01.JPG,AFNE01.JPG,AFNE01.JPG,,,,,,,,,,,,,,,,,5,4,54,6,,,,,,,AFSA08.jpg,AFSA12.jpg,AFNE20.jpg,AFNE03.jpg,AFNE03.jpg,FN,3,num_4,16,num_4,0.883443192055,,,2017_Aug_18_1301,60.0260104397,FEMA4ImagesEEG,001,101201,
AFNE01.JPG,AFNE01.JPG,AFNE01.JPG,AFNE01.JPG,AFNE01.JPG,AFNE01.JPG,,,,,,,,,,,,,,,,,5,5,55,2,,,,,,,AFSA16.jpg,AFSA09.jpg,AFNE18.jpg,AFNE06.jpg,AFNE06.jpg,FN,3,num_4,16,num_4,0.950090015598,,,2017_Aug_18_1301,60.0260104397,FEMA4ImagesEEG,001,101201,
AFNE01.JPG,AFNE01.JPG,AFNE01.JPG,AFNE01.JPG,AFNE01.JPG,AFNE01.JPG,,,,,,,,,,,,,,,,,5,6,56,1,,,,,,,AFNE03.jpg,AFSA07.jpg,AFNE14.jpg,AFSA13.jpg,AFSA07.jpg,FS,4,num_6,32,num_2,2.00000930147,,,2017_Aug_18_1301,60.0260104397,FEMA4ImagesEEG,001,101201,
AFNE01.JPG,AFNE01.JPG,AFNE01.JPG,AFNE01.JPG,AFNE01.JPG,AFNE01.JPG,,,,,,,,,,,,,,,,,5,7,57,5,,,,,,,AFNE10.jpg,AFSA18.jpg,AFSA06.jpg,AFNE06.jpg,AFSA18.jpg,FS,4,num_6,32,num_8,0.916761953093,,,2017_Aug_18_1301,60.0260104397,FEMA4ImagesEEG,001,101201,
AFNE01.JPG,AFNE01.JPG,AFNE01.JPG,AFNE01.JPG,AFNE01.JPG,AFNE01.JPG,,,,,,,,,,,,,,,,,5,8,58,7,,,,,,,AFNE11.jpg,AFNE01.jpg,AFSA14.jpg,AFSA16.jpg,AFSA14.jpg,FS,4,num_2,32,num_4,1.20006812509,,,2017_Aug_18_1301,60.0260104397,FEMA4ImagesEEG,001,101201,
AFNE01.JPG,AFNE01.JPG,AFNE01.JPG,AFNE01.JPG,AFNE01.JPG,AFNE01.JPG,,,,,,,,,,,,,,,,,5,9,59,0,,,,,,,AFNE08.jpg,AFSA15.jpg,AFNE12.jpg,AFSA13.jpg,AFNE08.jpg,FN,3,num_8,16,num_8,1.76679818059,,,2017_Aug_18_1301,60.0260104397,FEMA4ImagesEEG,001,101201,
,,,,,,,,,,,,,,,,,,,,,,,,,,,,,,,,,,,,,,,,,,,space,9.56638846773,2017_Aug_18_1301,60.0260104397,FEMA4ImagesEEG,001,101201,
AFNE01.JPG,AFNE01.JPG,AFNE01.JPG,AFNE01.JPG,AFNE01.JPG,AFNE01.JPG,,,,,,,,,,,,,,,,,,,,,0,0,0,1,,,AMSA15.jpg,AMSA11.jpg,AMNE08.jpg,AMNE06.jpg,AMNE08.jpg,MN,1,num_2,32,num_8,0.716464819794,,,2017_Aug_18_1301,60.0260104397,FEMA4ImagesEEG,001,101201,
AFNE01.JPG,AFNE01.JPG,AFNE01.JPG,AFNE01.JPG,AFNE01.JPG,AFNE01.JPG,,,,,,,,,,,,,,,,,,,,,0,1,1,7,,,AMNE12.jpg,AMSA05.jpg,AMNE16.jpg,AMSA02.jpg,AMNE16.jpg,MN,1,num_2,16,num_2,0.816764935968,,,2017_Aug_18_1301,60.0260104397,FEMA4ImagesEEG,001,101201,
AFNE01.JPG,AFNE01.JPG,AFNE01.JPG,AFNE01.JPG,AFNE01.JPG,AFNE01.JPG,,,,,,,,,,,,,,,,,,,,,0,2,2,8,,,AMSA01.jpg,AMSA16.jpg,AMNE03.jpg,AMNE01.jpg,AMSA01.jpg,MS,2,num_8,16,num_8,0.599987234571,,,2017_Aug_18_1301,60.0260104397,FEMA4ImagesEEG,001,101201,
AFNE01.JPG,AFNE01.JPG,AFNE01.JPG,AFNE01.JPG,AFNE01.JPG,AFNE01.JPG,,,,,,,,,,,,,,,,,,,,,0,3,3,9,,,AMSA16.jpg,AMSA19.jpg,AMNE20.jpg,AMNE15.jpg,AMSA19.jpg,MS,2,num_6,16,num_6,0.616768015083,,,2017_Aug_18_1301,60.0260104397,FEMA4ImagesEEG,001,101201,
AFNE01.JPG,AFNE01.JPG,AFNE01.JPG,AFNE01.JPG,AFNE01.JPG,AFNE01.JPG,,,,,,,,,,,,,,,,,,,,,0,4,4,4,,,AMNE17.jpg,AMSA10.jpg,AMSA18.jpg,AMNE03.jpg,AMNE03.jpg,MN,1,num_4,32,num_8,0.950083280099,,,2017_Aug_18_1301,60.0260104397,FEMA4ImagesEEG,001,101201,
AFNE01.JPG,AFNE01.JPG,AFNE01.JPG,AFNE01.JPG,AFNE01.JPG,AFNE01.JPG,,,,,,,,,,,,,,,,,,,,,0,5,5,5,,,AMSA06.jpg,AMSA14.jpg,AMNE07.jpg,AMNE08.jpg,AMSA06.jpg,MS,2,num_8,32,num_2,0.733524964598,,,2017_Aug_18_1301,60.0260104397,FEMA4ImagesEEG,001,101201,
AFNE01.JPG,AFNE01.JPG,AFNE01.JPG,AFNE01.JPG,AFNE01.JPG,AFNE01.JPG,,,,,,,,,,,,,,,,,,,,,0,6,6,0,,,AMNE13.jpg,AMSA08.jpg,AMSA11.jpg,AMNE07.jpg,AMSA11.jpg,MS,2,num_2,32,num_8,1.61667051021,,,2017_Aug_18_1301,60.0260104397,FEMA4ImagesEEG,001,101201,
AFNE01.JPG,AFNE01.JPG,AFNE01.JPG,AFNE01.JPG,AFNE01.JPG,AFNE01.JPG,,,,,,,,,,,,,,,,,,,,,0,7,7,2,,,AMSA16.jpg,AMNE10.jpg,AMNE06.jpg,AMSA10.jpg,AMNE06.jpg,MN,1,num_2,16,num_2,2.23332690785,,,2017_Aug_18_1301,60.0260104397,FEMA4ImagesEEG,001,101201,
AFNE01.JPG,AFNE01.JPG,AFNE01.JPG,AFNE01.JPG,AFNE01.JPG,AFNE01.JPG,,,,,,,,,,,,,,,,,,,,,0,8,8,6,,,AMNE16.jpg,AMNE03.jpg,AMSA05.jpg,AMSA20.jpg,AMSA20.jpg,MS,2,num_4,16,num_4,0.766840197553,,,2017_Aug_18_1301,60.0260104397,FEMA4ImagesEEG,001,101201,
AFNE01.JPG,AFNE01.JPG,AFNE01.JPG,AFNE01.JPG,AFNE01.JPG,AFNE01.JPG,,,,,,,,,,,,,,,,,,,,,0,9,9,3,,,AMSA06.jpg,AMNE10.jpg,AMNE17.jpg,AMSA12.jpg,AMNE10.jpg,MN,1,num_6,32,num_4,0.850208144053,,,2017_Aug_18_1301,60.0260104397,FEMA4ImagesEEG,001,101201,
AFNE01.JPG,AFNE01.JPG,AFNE01.JPG,AFNE01.JPG,AFNE01.JPG,AFNE01.JPG,,,,,,,,,,,,,,,,,,,,,1,0,10,5,,,AMSA18.jpg,AMSA06.jpg,AMNE07.jpg,AMNE01.jpg,AMNE07.jpg,MN,1,num_2,32,num_4,0.433385731536,,,2017_Aug_18_1301,60.0260104397,FEMA4ImagesEEG,001,101201,
AFNE01.JPG,AFNE01.JPG,AFNE01.JPG,AFNE01.JPG,AFNE01.JPG,AFNE01.JPG,,,,,,,,,,,,,,,,,,,,,1,1,11,2,,,AMSA02.jpg,AMSA12.jpg,AMNE17.jpg,AMNE14.jpg,AMSA02.jpg,MS,2,num_8,16,num_8,0.783465419314,,,2017_Aug_18_1301,60.0260104397,FEMA4ImagesEEG,001,101201,
AFNE01.JPG,AFNE01.JPG,AFNE01.JPG,AFNE01.JPG,AFNE01.JPG,AFNE01.JPG,,,,,,,,,,,,,,,,,,,,,1,2,12,0,,,AMSA03.jpg,AMNE12.jpg,AMNE03.jpg,AMSA10.jpg,AMNE03.jpg,MN,1,num_2,32,num_8,0.733439968608,,,2017_Aug_18_1301,60.0260104397,FEMA4ImagesEEG,001,101201,
AFNE01.JPG,AFNE01.JPG,AFNE01.JPG,AFNE01.JPG,AFNE01.JPG,AFNE01.JPG,,,,,,,,,,,,,,,,,,,,,1,3,13,8,,,AMSA17.jpg,AMNE17.jpg,AMNE07.jpg,AMSA06.jpg,AMNE07.jpg,MN,1,num_2,16,num_2,0.850083376281,,,2017_Aug_18_1301,60.0260104397,FEMA4ImagesEEG,001,101201,
AFNE01.JPG,AFNE01.JPG,AFNE01.JPG,AFNE01.JPG,AFNE01.JPG,AFNE01.JPG,,,,,,,,,,,,,,,,,,,,,1,4,14,1,,,AMNE20.jpg,AMSA18.jpg,AMNE06.jpg,AMSA10.jpg,AMSA10.jpg,MS,2,num_4,16,num_4,1.11681949376,,,2017_Aug_18_1301,60.0260104397,FEMA4ImagesEEG,001,101201,
AFNE01.JPG,AFNE01.JPG,AFNE01.JPG,AFNE01.JPG,AFNE01.JPG,AFNE01.JPG,,,,,,,,,,,,,,,,,,,,,1,5,15,3,,,AMNE14.jpg,AMNE04.jpg,AMSA13.jpg,AMSA11.jpg,AMSA13.jpg,MS,2,num_2,32,num_4,1.00010552333,,,2017_Aug_18_1301,60.0260104397,FEMA4ImagesEEG,001,101201,
AFNE01.JPG,AFNE01.JPG,AFNE01.JPG,AFNE01.JPG,AFNE01.JPG,AFNE01.JPG,,,,,,,,,,,,,,,,,,,,,1,6,16,7,,,AMSA12.jpg,AMNE19.jpg,AMNE17.jpg,AMSA09.jpg,AMNE17.jpg,MN,1,num_2,32,num_4,2.88332483906,,,2017_Aug_18_1301,60.0260104397,FEMA4ImagesEEG,001,101201,
AFNE01.JPG,AFNE01.JPG,AFNE01.JPG,AFNE01.JPG,AFNE01.JPG,AFNE01.JPG,,,,,,,,,,,,,,,,,,,,,1,7,17,4,,,AMSA01.jpg,AMNE20.jpg,AMNE07.jpg,AMSA04.jpg,AMNE07.jpg,MN,1,num_2,16,num_2,0.583491270896,,,2017_Aug_18_1301,60.0260104397,FEMA4ImagesEEG,001,101201,
AFNE01.JPG,AFNE01.JPG,AFNE01.JPG,AFNE01.JPG,AFNE01.JPG,AFNE01.JPG,,,,,,,,,,,,,,,,,,,,,1,8,18,6,,,AMSA19.jpg,AMSA01.jpg,AMNE04.jpg,AMNE16.jpg,AMSA01.jpg,MS,2,num_6,16,num_6,4.66633416654,,,2017_Aug_18_1301,60.0260104397,FEMA4ImagesEEG,001,101201,
AFNE01.JPG,AFNE01.JPG,AFNE01.JPG,AFNE01.JPG,AFNE01.JPG,AFNE01.JPG,,,,,,,,,,,,,,,,,,,,,1,9,19,9,,,AMNE19.jpg,AMNE15.jpg,AMSA13.jpg,AMSA19.jpg,AMNE19.jpg,MN,1,num_8,32,num_2,1.53333784506,,,2017_Aug_18_1301,60.0260104397,FEMA4ImagesEEG,001,101201,
AFNE01.JPG,AFNE01.JPG,AFNE01.JPG,AFNE01.JPG,AFNE01.JPG,AFNE01.JPG,,,,,,,,,,,,,,,,,,,,,2,0,20,8,,,AMSA02.jpg,AMSA10.jpg,AMNE17.jpg,AMNE12.jpg,AMSA10.jpg,MS,2,num_6,32,num_4,1.23347284441,,,2017_Aug_18_1301,60.0260104397,FEMA4ImagesEEG,001,101201,
AFNE01.JPG,AFNE01.JPG,AFNE01.JPG,AFNE01.JPG,AFNE01.JPG,AFNE01.JPG,,,,,,,,,,,,,,,,,,,,,2,1,21,2,,,AMNE01.jpg,AMSA03.jpg,AMNE13.jpg,AMSA04.jpg,AMSA03.jpg,MS,2,num_6,32,num_8,0.950085525226,,,2017_Aug_18_1301,60.0260104397,FEMA4ImagesEEG,001,101201,
AFNE01.JPG,AFNE01.JPG,AFNE01.JPG,AFNE01.JPG,AFNE01.JPG,AFNE01.JPG,,,,,,,,,,,,,,,,,,,,,2,2,22,3,,,AMNE01.jpg,AMNE14.jpg,AMSA06.jpg,AMSA09.jpg,AMNE01.jpg,MN,1,num_8,16,num_8,0.583355918759,,,2017_Aug_18_1301,60.0260104397,FEMA4ImagesEEG,001,101201,
AFNE01.JPG,AFNE01.JPG,AFNE01.JPG,AFNE01.JPG,AFNE01.JPG,AFNE01.JPG,,,,,,,,,,,,,,,,,,,,,2,3,23,5,,,AMNE12.jpg,AMNE20.jpg,AMSA09.jpg,AMSA17.jpg,AMSA17.jpg,MS,2,num_4,16,num_4,0.983424492879,,,2017_Aug_18_1301,60.0260104397,FEMA4ImagesEEG,001,101201,
AFNE01.JPG,AFNE01.JPG,AFNE01.JPG,AFNE01.JPG,AFNE01.JPG,AFNE01.JPG,,,,,,,,,,,,,,,,,,,,,2,4,24,6,,,AMNE08.jpg,AMSA13.jpg,AMNE01.jpg,AMSA01.jpg,AMNE01.jpg,MN,1,num_2,32,num_4,0.966705615167,,,2017_Aug_18_1301,60.0260104397,FEMA4ImagesEEG,001,101201,
AFNE01.JPG,AFNE01.JPG,AFNE01.JPG,AFNE01.JPG,AFNE01.JPG,AFNE01.JPG,,,,,,,,,,,,,,,,,,,,,2,5,25,9,,,AMNE18.jpg,AMNE16.jpg,AMSA10.jpg,AMSA16.jpg,AMNE18.jpg,MN,1,num_8,16,num_8,1.08350490232,,,2017_Aug_18_1301,60.0260104397,FEMA4ImagesEEG,001,101201,
AFNE01.JPG,AFNE01.JPG,AFNE01.JPG,AFNE01.JPG,AFNE01.JPG,AFNE01.JPG,,,,,,,,,,,,,,,,,,,,,2,6,26,7,,,AMNE05.jpg,AMSA18.jpg,AMNE10.jpg,AMSA09.jpg,AMNE05.jpg,MN,1,num_8,32,num_2,0.933471529395,,,2017_Aug_18_1301,60.0260104397,FEMA4ImagesEEG,001,101201,
AFNE01.JPG,AFNE01.JPG,AFNE01.JPG,AFNE01.JPG,AFNE01.JPG,AFNE01.JPG,,,,,,,,,,,,,,,,,,,,,2,7,27,4,,,AMSA16.jpg,AMNE03.jpg,AMSA09.jpg,AMNE15.jpg,AMSA16.jpg,MS,2,num_8,16,num_8,0.716746429272,,,2017_Aug_18_1301,60.0260104397,FEMA4ImagesEEG,001,101201,
AFNE01.JPG,AFNE01.JPG,AFNE01.JPG,AFNE01.JPG,AFNE01.JPG,AFNE01.JPG,,,,,,,,,,,,,,,,,,,,,2,8,28,1,,,AMNE20.jpg,AMSA05.jpg,AMNE14.jpg,AMSA14.jpg,AMNE14.jpg,MN,1,num_2,16,num_2,2.76665737591,,,2017_Aug_18_1301,60.0260104397,FEMA4ImagesEEG,001,101201,
AFNE01.JPG,AFNE01.JPG,AFNE01.JPG,AFNE01.JPG,AFNE01.JPG,AFNE01.JPG,,,,,,,,,,,,,,,,,,,,,2,9,29,0,,,AMSA15.jpg,AMNE12.jpg,AMNE17.jpg,AMSA13.jpg,AMSA13.jpg,MS,2,num_4,16,num_4,1.75009213248,,,2017_Aug_18_1301,60.0260104397,FEMA4ImagesEEG,001,101201,
AFNE01.JPG,AFNE01.JPG,AFNE01.JPG,AFNE01.JPG,AFNE01.JPG,AFNE01.JPG,,,,,,,,,,,,,,,,,,,,,3,0,30,1,,,AMNE15.jpg,AMSA12.jpg,AMSA15.jpg,AMNE20.jpg,AMNE20.jpg,MN,1,num_4,32,num_8,1.03347464057,,,2017_Aug_18_1301,60.0260104397,FEMA4ImagesEEG,001,101201,
AFNE01.JPG,AFNE01.JPG,AFNE01.JPG,AFNE01.JPG,AFNE01.JPG,AFNE01.JPG,,,,,,,,,,,,,,,,,,,,,3,1,31,9,,,AMNE15.jpg,AMSA09.jpg,AMSA15.jpg,AMNE09.jpg,AMNE15.jpg,MN,1,num_8,32,num_2,0.583621491212,,,2017_Aug_18_1301,60.0260104397,FEMA4ImagesEEG,001,101201,
AFNE01.JPG,AFNE01.JPG,AFNE01.JPG,AFNE01.JPG,AFNE01.JPG,AFNE01.JPG,,,,,,,,,,,,,,,,,,,,,3,2,32,0,,,AMNE05.jpg,AMNE04.jpg,AMSA02.jpg,AMSA20.jpg,AMNE04.jpg,MN,1,num_6,16,num_6,0.466778262693,,,2017_Aug_18_1301,60.0260104397,FEMA4ImagesEEG,001,101201,
AFNE01.JPG,AFNE01.JPG,AFNE01.JPG,AFNE01.JPG,AFNE01.JPG,AFNE01.JPG,,,,,,,,,,,,,,,,,,,,,3,3,33,8,,,AMNE14.jpg,AMSA20.jpg,AMSA08.jpg,AMNE11.jpg,AMSA20.jpg,MS,2,num_6,32,num_8,0.883418174286,,,2017_Aug_18_1301,60.0260104397,FEMA4ImagesEEG,001,101201,
AFNE01.JPG,AFNE01.JPG,AFNE01.JPG,AFNE01.JPG,AFNE01.JPG,AFNE01.JPG,,,,,,,,,,,,,,,,,,,,,3,4,34,4,,,AMNE08.jpg,AMSA05.jpg,AMNE16.jpg,AMSA02.jpg,AMSA05.jpg,MS,2,num_6,32,num_8,0.800109564676,,,2017_Aug_18_1301,60.0260104397,FEMA4ImagesEEG,001,101201,
AFNE01.JPG,AFNE01.JPG,AFNE01.JPG,AFNE01.JPG,AFNE01.JPG,AFNE01.JPG,,,,,,,,,,,,,,,,,,,,,3,5,35,7,,,AMNE13.jpg,AMSA18.jpg,AMNE10.jpg,AMSA09.jpg,AMSA18.jpg,MS,2,num_6,32,num_2,2.01668295491,,,2017_Aug_18_1301,60.0260104397,FEMA4ImagesEEG,001,101201,
AFNE01.JPG,AFNE01.JPG,AFNE01.JPG,AFNE01.JPG,AFNE01.JPG,AFNE01.JPG,,,,,,,,,,,,,,,,,,,,,3,6,36,6,,,AMSA01.jpg,AMNE05.jpg,AMNE19.jpg,AMSA16.jpg,AMNE19.jpg,MN,1,num_2,16,num_2,1.48346378352,,,2017_Aug_18_1301,60.0260104397,FEMA4ImagesEEG,001,101201,
AFNE01.JPG,AFNE01.JPG,AFNE01.JPG,AFNE01.JPG,AFNE01.JPG,AFNE01.JPG,,,,,,,,,,,,,,,,,,,,,3,7,37,2,,,AMNE09.jpg,AMNE17.jpg,AMSA08.jpg,AMSA05.jpg,AMNE09.jpg,MN,1,num_8,16,num_8,0.516803071892,,,2017_Aug_18_1301,60.0260104397,FEMA4ImagesEEG,001,101201,
AFNE01.JPG,AFNE01.JPG,AFNE01.JPG,AFNE01.JPG,AFNE01.JPG,AFNE01.JPG,,,,,,,,,,,,,,,,,,,,,3,8,38,5,,,AMSA04.jpg,AMSA11.jpg,AMNE14.jpg,AMNE20.jpg,AMSA11.jpg,MS,2,num_6,32,num_8,1.31670223136,,,2017_Aug_18_1301,60.0260104397,FEMA4ImagesEEG,001,101201,
AFNE01.JPG,AFNE01.JPG,AFNE01.JPG,AFNE01.JPG,AFNE01.JPG,AFNE01.JPG,,,,,,,,,,,,,,,,,,,,,3,9,39,3,,,AMSA13.jpg,AMNE17.jpg,AMNE09.jpg,AMSA07.jpg,AMNE17.jpg,MN,1,num_6,32,num_8,0.766816783522,,,2017_Aug_18_1301,60.0260104397,FEMA4ImagesEEG,001,101201,
