IPosition2,IPosition3,IPosition1,IPosition6,IPosition4,IPosition5,TrialsM1.thisRepN,TrialsM1.thisTrialN,TrialsM1.thisN,TrialsM1.thisIndex,TrialsF1.thisRepN,TrialsF1.thisTrialN,TrialsF1.thisN,TrialsF1.thisIndex,TrialsM2.thisRepN,TrialsM2.thisTrialN,TrialsM2.thisN,TrialsM2.thisIndex,TrialsF2.thisRepN,TrialsF2.thisTrialN,TrialsF2.thisN,TrialsF2.thisIndex,TrialsM3.thisRepN,TrialsM3.thisTrialN,TrialsM3.thisN,TrialsM3.thisIndex,TrialsF3.thisRepN,TrialsF3.thisTrialN,TrialsF3.thisN,TrialsF3.thisIndex,InstrKey_resp.keys,InstrKey_resp.rt,Image0 _Position,Image1 _Position,Image2 _Position,Image3 _Position,Center_image,condition,code,correct_answer,accuracy,Key_Resp.keys,Key_Resp.rt,BreakKey_resp.keys,BreakKey_resp.rt,date,frameRate,expName,session,participant,
,,,,,,,,,,,,,,,,,,,,,,,,,,,,,,space,45.8969485788,,,,,,,,,,,,,,2017_Aug_23_1711,60.0133008093,MAFE4ImagesEEG,001,101255,
AMNE23.JPG,AMNE24.JPG,AMNE22.JPG,AMSA24.JPG,AMSA22.JPG,AMSA23.JPG,0,0,0,9,,,,,,,,,,,,,,,,,,,,,,,AMSA18.jpg,AMNE19.jpg,AMSA20.jpg,AMNE01.jpg,AMSA20.jpg,MS,2,num_2,32,num_8,0.916782801156,,,2017_Aug_23_1711,60.0133008093,MAFE4ImagesEEG,001,101255,
AMSA25.JPG,AMNE24.JPG,AMSA24.JPG,AMNE26.JPG,AMSA21.JPG,AMNE25.JPG,0,1,1,3,,,,,,,,,,,,,,,,,,,,,,,AMNE19.jpg,AMSA06.jpg,AMSA19.jpg,AMNE07.jpg,AMSA19.jpg,MS,2,num_2,16,num_2,0.750108169392,,,2017_Aug_23_1711,60.0133008093,MAFE4ImagesEEG,001,101255,
AFSA21.JPG,AFNE23.JPG,AFNE21.JPG,AFSA25.JPG,AFNE25.JPG,AFSA23.JPG,0,2,2,4,,,,,,,,,,,,,,,,,,,,,,,AMNE04.jpg,AMNE07.jpg,AMSA19.jpg,AMSA10.jpg,AMSA19.jpg,MS,2,num_2,32,num_8,1.95009707194,,,2017_Aug_23_1711,60.0133008093,MAFE4ImagesEEG,001,101255,
AFSA25.JPG,AFNE24.JPG,AFSA24.JPG,AFNE21.JPG,AFSA21.JPG,AFNE25.JPG,0,3,3,2,,,,,,,,,,,,,,,,,,,,,,,AMNE20.jpg,AMNE17.jpg,AMSA16.jpg,AMSA12.jpg,AMSA16.jpg,MS,2,num_2,32,num_6,1.20023587206,,,2017_Aug_23_1711,60.0133008093,MAFE4ImagesEEG,001,101255,
AMSA21.JPG,AMNE23.JPG,AMNE21.JPG,AMSA25.JPG,AMNE25.JPG,AMSA23.JPG,0,4,4,5,,,,,,,,,,,,,,,,,,,,,,,AMSA09.jpg,AMNE15.jpg,AMSA11.jpg,AMNE19.jpg,AMNE15.jpg,MN,1,num_6,16,num_6,1.21670810098,,,2017_Aug_23_1711,60.0133008093,MAFE4ImagesEEG,001,101255,
AMNE22.JPG,AMSA24.JPG,AMSA22.JPG,AMNE25.JPG,AMNE24.JPG,AMSA25.JPG,0,5,5,7,,,,,,,,,,,,,,,,,,,,,,,AMNE19.jpg,AMSA20.jpg,AMSA06.jpg,AMNE04.jpg,AMNE04.jpg,MN,1,num_4,16,num_4,0.833445645752,,,2017_Aug_23_1711,60.0133008093,MAFE4ImagesEEG,001,101255,
AFNE22.JPG,AFSA24.JPG,AFSA22.JPG,AFNE25.JPG,AFNE24.JPG,AFSA25.JPG,0,6,6,6,,,,,,,,,,,,,,,,,,,,,,,AMNE02.jpg,AMNE08.jpg,AMSA05.jpg,AMSA09.jpg,AMNE02.jpg,MN,1,num_8,16,num_8,1.30018958927,,,2017_Aug_23_1711,60.0133008093,MAFE4ImagesEEG,001,101255,
AFSA21.JPG,AFNE22.JPG,AFNE21.JPG,AFSA23.JPG,AFSA22.JPG,AFNE23.JPG,0,7,7,0,,,,,,,,,,,,,,,,,,,,,,,AMSA01.jpg,AMSA10.jpg,AMNE07.jpg,AMNE08.jpg,AMSA01.jpg,MS,2,num_8,16,num_8,1.01679457235,,,2017_Aug_23_1711,60.0133008093,MAFE4ImagesEEG,001,101255,
AMSA21.JPG,AMNE22.JPG,AMNE21.JPG,AMSA23.JPG,AMSA22.JPG,AMNE23.JPG,0,8,8,1,,,,,,,,,,,,,,,,,,,,,,,AMNE14.jpg,AMSA03.jpg,AMSA19.jpg,AMNE05.jpg,AMSA03.jpg,MS,2,num_6,16,num_6,0.78350711544,,,2017_Aug_23_1711,60.0133008093,MAFE4ImagesEEG,001,101255,
AFNE23.JPG,AFNE24.JPG,AFNE22.JPG,AFSA24.JPG,AFSA22.JPG,AFSA23.JPG,0,9,9,8,,,,,,,,,,,,,,,,,,,,,,,AMNE01.jpg,AMSA05.jpg,AMNE06.jpg,AMSA19.jpg,AMNE06.jpg,MN,1,num_2,32,num_8,1.05012552149,,,2017_Aug_23_1711,60.0133008093,MAFE4ImagesEEG,001,101255,
AFSA25.JPG,AFNE24.JPG,AFSA24.JPG,AFNE21.JPG,AFSA21.JPG,AFNE25.JPG,,,,,0,0,0,2,,,,,,,,,,,,,,,,,,,AFSA01.jpg,AFNE02.jpg,AFNE12.jpg,AFSA03.jpg,AFSA01.jpg,FS,4,num_8,32,num_6,1.21648550755,,,2017_Aug_23_1711,60.0133008093,MAFE4ImagesEEG,001,101255,
AMSA25.JPG,AMNE24.JPG,AMSA24.JPG,AMNE26.JPG,AMSA21.JPG,AMNE25.JPG,,,,,0,1,1,3,,,,,,,,,,,,,,,,,,,AFSA06.jpg,AFSA08.jpg,AFNE16.jpg,AFNE17.jpg,AFNE16.jpg,FN,3,num_2,32,num_8,1.03345988656,,,2017_Aug_23_1711,60.0133008093,MAFE4ImagesEEG,001,101255,
AMNE22.JPG,AMSA24.JPG,AMSA22.JPG,AMNE25.JPG,AMNE24.JPG,AMSA25.JPG,,,,,0,2,2,7,,,,,,,,,,,,,,,,,,,AFSA07.jpg,AFSA02.jpg,AFNE12.jpg,AFNE07.jpg,AFSA02.jpg,FS,4,num_6,16,num_6,1.15013536811,,,2017_Aug_23_1711,60.0133008093,MAFE4ImagesEEG,001,101255,
AMSA21.JPG,AMNE22.JPG,AMNE21.JPG,AMSA23.JPG,AMSA22.JPG,AMNE23.JPG,,,,,0,3,3,1,,,,,,,,,,,,,,,,,,,AFNE20.jpg,AFSA04.jpg,AFSA03.jpg,AFNE07.jpg,AFNE07.jpg,FN,3,num_4,16,num_4,1.06678762834,,,2017_Aug_23_1711,60.0133008093,MAFE4ImagesEEG,001,101255,
AFSA21.JPG,AFNE22.JPG,AFNE21.JPG,AFSA23.JPG,AFSA22.JPG,AFNE23.JPG,,,,,0,4,4,0,,,,,,,,,,,,,,,,,,,AFNE01.jpg,AFSA09.jpg,AFNE18.jpg,AFSA16.jpg,AFSA16.jpg,FS,4,num_4,16,num_4,1.21679822868,,,2017_Aug_23_1711,60.0133008093,MAFE4ImagesEEG,001,101255,
AMSA21.JPG,AMNE23.JPG,AMNE21.JPG,AMSA25.JPG,AMNE25.JPG,AMSA23.JPG,,,,,0,5,5,5,,,,,,,,,,,,,,,,,,,AFNE13.jpg,AFSA06.jpg,AFSA09.jpg,AFNE14.jpg,AFNE13.jpg,FN,3,num_8,16,num_8,1.3167557948,,,2017_Aug_23_1711,60.0133008093,MAFE4ImagesEEG,001,101255,
AFNE22.JPG,AFSA24.JPG,AFSA22.JPG,AFNE25.JPG,AFNE24.JPG,AFSA25.JPG,,,,,0,6,6,6,,,,,,,,,,,,,,,,,,,AFNE13.jpg,AFSA12.jpg,AFSA14.jpg,AFNE15.jpg,AFNE13.jpg,FN,3,num_8,32,num_4,1.11669600906,,,2017_Aug_23_1711,60.0133008093,MAFE4ImagesEEG,001,101255,
AFSA21.JPG,AFNE23.JPG,AFNE21.JPG,AFSA25.JPG,AFNE25.JPG,AFSA23.JPG,,,,,0,7,7,4,,,,,,,,,,,,,,,,,,,AFSA04.jpg,AFNE15.jpg,AFSA18.jpg,AFNE11.jpg,AFNE11.jpg,FN,3,num_4,16,num_4,1.09998514981,,,2017_Aug_23_1711,60.0133008093,MAFE4ImagesEEG,001,101255,
AFNE23.JPG,AFNE24.JPG,AFNE22.JPG,AFSA24.JPG,AFSA22.JPG,AFSA23.JPG,,,,,0,8,8,8,,,,,,,,,,,,,,,,,,,AFSA15.jpg,AFNE03.jpg,AFNE17.jpg,AFSA10.jpg,AFNE17.jpg,FN,3,num_2,32,num_4,0.650172092835,,,2017_Aug_23_1711,60.0133008093,MAFE4ImagesEEG,001,101255,
AMNE23.JPG,AMNE24.JPG,AMNE22.JPG,AMSA24.JPG,AMSA22.JPG,AMSA23.JPG,,,,,0,9,9,9,,,,,,,,,,,,,,,,,,,AFSA05.jpg,AFNE07.jpg,AFNE09.jpg,AFSA13.jpg,AFSA13.jpg,FS,4,num_4,16,num_4,0.783493323601,,,2017_Aug_23_1711,60.0133008093,MAFE4ImagesEEG,001,101255,
AMSA25.JPG,AMNE24.JPG,AMSA24.JPG,AMNE26.JPG,AMSA21.JPG,AMNE25.JPG,,,,,,,,,0,0,0,3,,,,,,,,,,,,,,,AMSA06.jpg,AMNE14.jpg,AMSA07.jpg,AMNE19.jpg,AMSA07.jpg,MS,2,num_2,32,num_6,0.716771126259,,,2017_Aug_23_1711,60.0133008093,MAFE4ImagesEEG,001,101255,
AMSA21.JPG,AMNE23.JPG,AMNE21.JPG,AMSA25.JPG,AMNE25.JPG,AMSA23.JPG,,,,,,,,,0,1,1,5,,,,,,,,,,,,,,,AMNE11.jpg,AMSA05.jpg,AMSA04.jpg,AMNE17.jpg,AMSA04.jpg,MS,2,num_2,16,num_2,0.600126435631,,,2017_Aug_23_1711,60.0133008093,MAFE4ImagesEEG,001,101255,
AFSA21.JPG,AFNE22.JPG,AFNE21.JPG,AFSA23.JPG,AFSA22.JPG,AFNE23.JPG,,,,,,,,,0,2,2,0,,,,,,,,,,,,,,,AMSA09.jpg,AMSA04.jpg,AMNE05.jpg,AMNE09.jpg,AMNE09.jpg,MN,1,num_4,32,num_8,0.883428758709,,,2017_Aug_23_1711,60.0133008093,MAFE4ImagesEEG,001,101255,
AMNE22.JPG,AMSA24.JPG,AMSA22.JPG,AMNE25.JPG,AMNE24.JPG,AMSA25.JPG,,,,,,,,,0,3,3,7,,,,,,,,,,,,,,,AMNE05.jpg,AMSA08.jpg,AMSA19.jpg,AMNE20.jpg,AMNE05.jpg,MN,1,num_8,32,num_4,1.45009338332,,,2017_Aug_23_1711,60.0133008093,MAFE4ImagesEEG,001,101255,
AFNE22.JPG,AFSA24.JPG,AFSA22.JPG,AFNE25.JPG,AFNE24.JPG,AFSA25.JPG,,,,,,,,,0,4,4,6,,,,,,,,,,,,,,,AMSA15.jpg,AMNE06.jpg,AMNE08.jpg,AMSA19.jpg,AMSA19.jpg,MS,2,num_4,32,num_2,1.18347722257,,,2017_Aug_23_1711,60.0133008093,MAFE4ImagesEEG,001,101255,
AMNE23.JPG,AMNE24.JPG,AMNE22.JPG,AMSA24.JPG,AMSA22.JPG,AMSA23.JPG,,,,,,,,,0,5,5,9,,,,,,,,,,,,,,,AMNE18.jpg,AMSA02.jpg,AMSA18.jpg,AMNE16.jpg,AMNE18.jpg,MN,1,num_8,16,num_8,0.733479740215,,,2017_Aug_23_1711,60.0133008093,MAFE4ImagesEEG,001,101255,
AFNE23.JPG,AFNE24.JPG,AFNE22.JPG,AFSA24.JPG,AFSA22.JPG,AFSA23.JPG,,,,,,,,,0,6,6,8,,,,,,,,,,,,,,,AMNE01.jpg,AMNE02.jpg,AMSA07.jpg,AMSA11.jpg,AMSA07.jpg,MS,2,num_2,32,num_6,1.00008852419,,,2017_Aug_23_1711,60.0133008093,MAFE4ImagesEEG,001,101255,
AMSA21.JPG,AMNE22.JPG,AMNE21.JPG,AMSA23.JPG,AMSA22.JPG,AMNE23.JPG,,,,,,,,,0,7,7,1,,,,,,,,,,,,,,,AMNE12.jpg,AMSA18.jpg,AMSA04.jpg,AMNE02.jpg,AMNE12.jpg,MN,1,num_8,16,num_8,0.833454626496,,,2017_Aug_23_1711,60.0133008093,MAFE4ImagesEEG,001,101255,
AFSA21.JPG,AFNE23.JPG,AFNE21.JPG,AFSA25.JPG,AFNE25.JPG,AFSA23.JPG,,,,,,,,,0,8,8,4,,,,,,,,,,,,,,,AMNE20.jpg,AMNE02.jpg,AMSA20.jpg,AMSA03.jpg,AMSA03.jpg,MS,2,num_4,16,num_4,0.833465531585,,,2017_Aug_23_1711,60.0133008093,MAFE4ImagesEEG,001,101255,
AFSA25.JPG,AFNE24.JPG,AFSA24.JPG,AFNE21.JPG,AFSA21.JPG,AFNE25.JPG,,,,,,,,,0,9,9,2,,,,,,,,,,,,,,,AMSA14.jpg,AMSA18.jpg,AMNE18.jpg,AMNE09.jpg,AMSA18.jpg,MS,2,num_6,16,num_6,0.850143675343,,,2017_Aug_23_1711,60.0133008093,MAFE4ImagesEEG,001,101255,
AFSA21.JPG,AFNE22.JPG,AFNE21.JPG,AFSA23.JPG,AFSA22.JPG,AFNE23.JPG,,,,,,,,,,,,,0,0,0,0,,,,,,,,,,,AFNE03.jpg,AFSA16.jpg,AFSA14.jpg,AFNE16.jpg,AFNE16.jpg,FN,3,num_4,16,num_4,0.783480814775,,,2017_Aug_23_1711,60.0133008093,MAFE4ImagesEEG,001,101255,
AMNE22.JPG,AMSA24.JPG,AMSA22.JPG,AMNE25.JPG,AMNE24.JPG,AMSA25.JPG,,,,,,,,,,,,,0,1,1,7,,,,,,,,,,,AFSA19.jpg,AFNE06.jpg,AFSA06.jpg,AFNE10.jpg,AFSA06.jpg,FS,4,num_2,16,num_2,1.58341525553,,,2017_Aug_23_1711,60.0133008093,MAFE4ImagesEEG,001,101255,
AMSA25.JPG,AMNE24.JPG,AMSA24.JPG,AMNE26.JPG,AMSA21.JPG,AMNE25.JPG,,,,,,,,,,,,,0,2,2,3,,,,,,,,,,,AFSA10.jpg,AFSA01.jpg,AFNE11.jpg,AFNE03.jpg,AFNE11.jpg,FN,3,num_2,32,num_8,1.10008297546,,,2017_Aug_23_1711,60.0133008093,MAFE4ImagesEEG,001,101255,
AFSA25.JPG,AFNE24.JPG,AFSA24.JPG,AFNE21.JPG,AFSA21.JPG,AFNE25.JPG,,,,,,,,,,,,,0,3,3,2,,,,,,,,,,,AFSA13.jpg,AFNE09.jpg,AFSA02.jpg,AFNE13.jpg,AFSA13.jpg,FS,4,num_8,32,num_2,1.15019502572,,,2017_Aug_23_1711,60.0133008093,MAFE4ImagesEEG,001,101255,
AFNE22.JPG,AFSA24.JPG,AFSA22.JPG,AFNE25.JPG,AFNE24.JPG,AFSA25.JPG,,,,,,,,,,,,,0,4,4,6,,,,,,,,,,,AFSA08.jpg,AFNE16.jpg,AFNE10.jpg,AFSA14.jpg,AFNE10.jpg,FN,3,num_2,16,num_2,0.850225143251,,,2017_Aug_23_1711,60.0133008093,MAFE4ImagesEEG,001,101255,
AMSA21.JPG,AMNE22.JPG,AMNE21.JPG,AMSA23.JPG,AMSA22.JPG,AMNE23.JPG,,,,,,,,,,,,,0,5,5,1,,,,,,,,,,,AFNE01.jpg,AFSA13.jpg,AFSA09.jpg,AFNE16.jpg,AFNE16.jpg,FN,3,num_4,32,num_8,0.850211030687,,,2017_Aug_23_1711,60.0133008093,MAFE4ImagesEEG,001,101255,
AMNE23.JPG,AMNE24.JPG,AMNE22.JPG,AMSA24.JPG,AMSA22.JPG,AMSA23.JPG,,,,,,,,,,,,,0,6,6,9,,,,,,,,,,,AFSA17.jpg,AFNE15.jpg,AFNE10.jpg,AFSA14.jpg,AFSA14.jpg,FS,4,num_4,16,num_4,1.21715008013,,,2017_Aug_23_1711,60.0133008093,MAFE4ImagesEEG,001,101255,
AMSA21.JPG,AMNE23.JPG,AMNE21.JPG,AMSA25.JPG,AMNE25.JPG,AMSA23.JPG,,,,,,,,,,,,,0,7,7,5,,,,,,,,,,,AFSA17.jpg,AFNE13.jpg,AFNE14.jpg,AFSA08.jpg,AFSA17.jpg,FS,4,num_8,32,num_6,0.950062752701,,,2017_Aug_23_1711,60.0133008093,MAFE4ImagesEEG,001,101255,
AFSA21.JPG,AFNE23.JPG,AFNE21.JPG,AFSA25.JPG,AFNE25.JPG,AFSA23.JPG,,,,,,,,,,,,,0,8,8,4,,,,,,,,,,,AFSA02.jpg,AFNE06.jpg,AFNE12.jpg,AFSA03.jpg,AFNE12.jpg,FN,3,num_2,32,num_6,0.983502432704,,,2017_Aug_23_1711,60.0133008093,MAFE4ImagesEEG,001,101255,
AFNE23.JPG,AFNE24.JPG,AFNE22.JPG,AFSA24.JPG,AFSA22.JPG,AFSA23.JPG,,,,,,,,,,,,,0,9,9,8,,,,,,,,,,,AFNE15.jpg,AFSA03.jpg,AFSA20.jpg,AFNE13.jpg,AFSA20.jpg,FS,4,num_2,16,num_2,1.2500801048,,,2017_Aug_23_1711,60.0133008093,MAFE4ImagesEEG,001,101255,
AFSA21.JPG,AFNE22.JPG,AFNE21.JPG,AFSA23.JPG,AFSA22.JPG,AFNE23.JPG,,,,,,,,,,,,,,,,,0,0,0,0,,,,,,,AMSA13.jpg,AMNE09.jpg,AMSA02.jpg,AMNE12.jpg,AMNE09.jpg,MN,1,num_6,16,num_6,1.050086712,,,2017_Aug_23_1711,60.0133008093,MAFE4ImagesEEG,001,101255,
AMSA25.JPG,AMNE24.JPG,AMSA24.JPG,AMNE26.JPG,AMSA21.JPG,AMNE25.JPG,,,,,,,,,,,,,,,,,0,1,1,3,,,,,,,AMNE04.jpg,AMNE06.jpg,AMSA05.jpg,AMSA03.jpg,AMNE04.jpg,MN,1,num_8,32,num_2,1.8667002588,,,2017_Aug_23_1711,60.0133008093,MAFE4ImagesEEG,001,101255,
AFSA25.JPG,AFNE24.JPG,AFSA24.JPG,AFNE21.JPG,AFSA21.JPG,AFNE25.JPG,,,,,,,,,,,,,,,,,0,2,2,2,,,,,,,AMNE06.jpg,AMSA03.jpg,AMSA07.jpg,AMNE07.jpg,AMSA03.jpg,MS,2,num_6,16,num_6,0.950118561392,,,2017_Aug_23_1711,60.0133008093,MAFE4ImagesEEG,001,101255,
AFSA21.JPG,AFNE23.JPG,AFNE21.JPG,AFSA25.JPG,AFNE25.JPG,AFSA23.JPG,,,,,,,,,,,,,,,,,0,3,3,4,,,,,,,AMNE04.jpg,AMSA11.jpg,AMNE17.jpg,AMSA03.jpg,AMNE17.jpg,MN,1,num_2,32,num_6,0.916820006911,,,2017_Aug_23_1711,60.0133008093,MAFE4ImagesEEG,001,101255,
AMNE23.JPG,AMNE24.JPG,AMNE22.JPG,AMSA24.JPG,AMSA22.JPG,AMSA23.JPG,,,,,,,,,,,,,,,,,0,4,4,9,,,,,,,AMNE18.jpg,AMSA10.jpg,AMNE03.jpg,AMSA03.jpg,AMNE03.jpg,MN,1,num_2,32,num_8,0.833507869276,,,2017_Aug_23_1711,60.0133008093,MAFE4ImagesEEG,001,101255,
AFNE22.JPG,AFSA24.JPG,AFSA22.JPG,AFNE25.JPG,AFNE24.JPG,AFSA25.JPG,,,,,,,,,,,,,,,,,0,5,5,6,,,,,,,AMSA04.jpg,AMSA15.jpg,AMNE01.jpg,AMNE02.jpg,AMNE01.jpg,MN,1,num_2,32,num_8,0.916799800354,,,2017_Aug_23_1711,60.0133008093,MAFE4ImagesEEG,001,101255,
AFNE23.JPG,AFNE24.JPG,AFNE22.JPG,AFSA24.JPG,AFSA22.JPG,AFSA23.JPG,,,,,,,,,,,,,,,,,0,6,6,8,,,,,,,AMSA19.jpg,AMNE17.jpg,AMSA07.jpg,AMNE20.jpg,AMNE17.jpg,MN,1,num_6,32,num_4,0.783462211955,,,2017_Aug_23_1711,60.0133008093,MAFE4ImagesEEG,001,101255,
AMNE22.JPG,AMSA24.JPG,AMSA22.JPG,AMNE25.JPG,AMNE24.JPG,AMSA25.JPG,,,,,,,,,,,,,,,,,0,7,7,7,,,,,,,AMSA09.jpg,AMNE17.jpg,AMSA10.jpg,AMNE06.jpg,AMNE06.jpg,MN,1,num_4,16,num_4,0.899990153266,,,2017_Aug_23_1711,60.0133008093,MAFE4ImagesEEG,001,101255,
AMSA21.JPG,AMNE22.JPG,AMNE21.JPG,AMSA23.JPG,AMSA22.JPG,AMNE23.JPG,,,,,,,,,,,,,,,,,0,8,8,1,,,,,,,AMNE11.jpg,AMSA18.jpg,AMSA17.jpg,AMNE09.jpg,AMNE11.jpg,MN,1,num_8,32,num_4,1.0335115256,,,2017_Aug_23_1711,60.0133008093,MAFE4ImagesEEG,001,101255,
AMSA21.JPG,AMNE23.JPG,AMNE21.JPG,AMSA25.JPG,AMNE25.JPG,AMSA23.JPG,,,,,,,,,,,,,,,,,0,9,9,5,,,,,,,AMNE02.jpg,AMSA05.jpg,AMNE15.jpg,AMSA08.jpg,AMNE15.jpg,MN,1,num_2,16,num_2,1.71677080553,,,2017_Aug_23_1711,60.0133008093,MAFE4ImagesEEG,001,101255,
AMSA21.JPG,AMNE22.JPG,AMNE21.JPG,AMSA23.JPG,AMSA22.JPG,AMNE23.JPG,,,,,,,,,,,,,,,,,,,,,0,0,0,1,,,AFNE15.jpg,AFSA07.jpg,AFNE01.jpg,AFSA15.jpg,AFSA15.jpg,FS,4,num_4,16,num_4,0.666769410251,,,2017_Aug_23_1711,60.0133008093,MAFE4ImagesEEG,001,101255,
AMSA21.JPG,AMNE23.JPG,AMNE21.JPG,AMSA25.JPG,AMNE25.JPG,AMSA23.JPG,,,,,,,,,,,,,,,,,,,,,0,1,1,5,,,AFNE13.jpg,AFSA11.jpg,AFSA05.jpg,AFNE10.jpg,AFNE10.jpg,FN,3,num_4,32,num_8,0.716817954206,,,2017_Aug_23_1711,60.0133008093,MAFE4ImagesEEG,001,101255,
AFNE22.JPG,AFSA24.JPG,AFSA22.JPG,AFNE25.JPG,AFNE24.JPG,AFSA25.JPG,,,,,,,,,,,,,,,,,,,,,0,2,2,6,,,AFSA13.jpg,AFNE18.jpg,AFNE14.jpg,AFSA03.jpg,AFSA13.jpg,FS,4,num_8,32,num_4,0.983484150493,,,2017_Aug_23_1711,60.0133008093,MAFE4ImagesEEG,001,101255,
AMNE23.JPG,AMNE24.JPG,AMNE22.JPG,AMSA24.JPG,AMSA22.JPG,AMSA23.JPG,,,,,,,,,,,,,,,,,,,,,0,3,3,9,,,AFNE20.jpg,AFSA20.jpg,AFNE17.jpg,AFSA06.jpg,AFSA06.jpg,FS,4,num_4,32,num_6,0.866779160802,,,2017_Aug_23_1711,60.0133008093,MAFE4ImagesEEG,001,101255,
AMSA25.JPG,AMNE24.JPG,AMSA24.JPG,AMNE26.JPG,AMSA21.JPG,AMNE25.JPG,,,,,,,,,,,,,,,,,,,,,0,4,4,3,,,AFSA20.jpg,AFNE05.jpg,AFSA02.jpg,AFNE15.jpg,AFSA20.jpg,FS,4,num_8,32,num_2,0.633467327687,,,2017_Aug_23_1711,60.0133008093,MAFE4ImagesEEG,001,101255,
AFSA21.JPG,AFNE22.JPG,AFNE21.JPG,AFSA23.JPG,AFSA22.JPG,AFNE23.JPG,,,,,,,,,,,,,,,,,,,,,0,5,5,0,,,AFSA05.jpg,AFNE08.jpg,AFNE12.jpg,AFSA02.jpg,AFNE08.jpg,FN,3,num_6,32,num_2,0.683482514694,,,2017_Aug_23_1711,60.0133008093,MAFE4ImagesEEG,001,101255,
AMNE22.JPG,AMSA24.JPG,AMSA22.JPG,AMNE25.JPG,AMNE24.JPG,AMSA25.JPG,,,,,,,,,,,,,,,,,,,,,0,6,6,7,,,AFNE01.jpg,AFSA07.jpg,AFNE20.jpg,AFSA05.jpg,AFNE20.jpg,FN,3,num_2,16,num_2,0.466827656608,,,2017_Aug_23_1711,60.0133008093,MAFE4ImagesEEG,001,101255,
AFNE23.JPG,AFNE24.JPG,AFNE22.JPG,AFSA24.JPG,AFSA22.JPG,AFSA23.JPG,,,,,,,,,,,,,,,,,,,,,0,7,7,8,,,AFNE06.jpg,AFNE03.jpg,AFSA14.jpg,AFSA03.jpg,AFSA14.jpg,FS,4,num_2,32,num_6,0.8837834968,,,2017_Aug_23_1711,60.0133008093,MAFE4ImagesEEG,001,101255,
AFSA21.JPG,AFNE23.JPG,AFNE21.JPG,AFSA25.JPG,AFNE25.JPG,AFSA23.JPG,,,,,,,,,,,,,,,,,,,,,0,8,8,4,,,AFSA14.jpg,AFSA09.jpg,AFNE01.jpg,AFNE11.jpg,AFSA09.jpg,FS,4,num_6,32,num_8,0.866773387534,,,2017_Aug_23_1711,60.0133008093,MAFE4ImagesEEG,001,101255,
AFSA25.JPG,AFNE24.JPG,AFSA24.JPG,AFNE21.JPG,AFSA21.JPG,AFNE25.JPG,,,,,,,,,,,,,,,,,,,,,0,9,9,2,,,AFSA08.jpg,AFNE11.jpg,AFSA02.jpg,AFNE15.jpg,AFNE11.jpg,FN,3,num_6,16,num_6,0.700152639998,,,2017_Aug_23_1711,60.0133008093,MAFE4ImagesEEG,001,101255,
,,,,,,,,,,,,,,,,,,,,,,,,,,,,,,,,,,,,,,,,,,,space,20.6985861474,2017_Aug_23_1711,60.0133008093,MAFE4ImagesEEG,001,101255,
AFNE01.JPG,AFNE01.JPG,AFNE01.JPG,AFNE01.JPG,AFNE01.JPG,AFNE01.JPG,0,0,0,5,,,,,,,,,,,,,,,,,,,,,,,AMSA10.jpg,AMSA20.jpg,AMNE04.jpg,AMNE15.jpg,AMNE04.jpg,MN,1,num_2,16,num_2,1.8166815436,,,2017_Aug_23_1711,60.0133008093,MAFE4ImagesEEG,001,101255,
AFNE01.JPG,AFNE01.JPG,AFNE01.JPG,AFNE01.JPG,AFNE01.JPG,AFNE01.JPG,0,1,1,1,,,,,,,,,,,,,,,,,,,,,,,AMNE12.jpg,AMSA19.jpg,AMNE06.jpg,AMSA01.jpg,AMSA19.jpg,MS,2,num_6,32,num_4,0.416827865178,,,2017_Aug_23_1711,60.0133008093,MAFE4ImagesEEG,001,101255,
AFNE01.JPG,AFNE01.JPG,AFNE01.JPG,AFNE01.JPG,AFNE01.JPG,AFNE01.JPG,0,2,2,2,,,,,,,,,,,,,,,,,,,,,,,AMNE18.jpg,AMSA20.jpg,AMNE16.jpg,AMSA05.jpg,AMSA05.jpg,MS,2,num_4,32,num_8,1.00010744785,,,2017_Aug_23_1711,60.0133008093,MAFE4ImagesEEG,001,101255,
AFNE01.JPG,AFNE01.JPG,AFNE01.JPG,AFNE01.JPG,AFNE01.JPG,AFNE01.JPG,0,3,3,0,,,,,,,,,,,,,,,,,,,,,,,AMNE12.jpg,AMNE15.jpg,AMSA19.jpg,AMSA16.jpg,AMNE15.jpg,MN,1,num_6,16,num_6,0.900172333466,,,2017_Aug_23_1711,60.0133008093,MAFE4ImagesEEG,001,101255,
AFNE01.JPG,AFNE01.JPG,AFNE01.JPG,AFNE01.JPG,AFNE01.JPG,AFNE01.JPG,0,4,4,4,,,,,,,,,,,,,,,,,,,,,,,AMSA16.jpg,AMNE05.jpg,AMNE18.jpg,AMSA10.jpg,AMNE05.jpg,MN,1,num_6,32,num_2,0.866791348904,,,2017_Aug_23_1711,60.0133008093,MAFE4ImagesEEG,001,101255,
AFNE01.JPG,AFNE01.JPG,AFNE01.JPG,AFNE01.JPG,AFNE01.JPG,AFNE01.JPG,0,5,5,8,,,,,,,,,,,,,,,,,,,,,,,AMSA02.jpg,AMNE16.jpg,AMSA11.jpg,AMNE08.jpg,AMSA02.jpg,MS,2,num_8,32,num_4,0.733827101416,,,2017_Aug_23_1711,60.0133008093,MAFE4ImagesEEG,001,101255,
AFNE01.JPG,AFNE01.JPG,AFNE01.JPG,AFNE01.JPG,AFNE01.JPG,AFNE01.JPG,0,6,6,7,,,,,,,,,,,,,,,,,,,,,,,AMSA15.jpg,AMNE03.jpg,AMNE04.jpg,AMSA05.jpg,AMSA05.jpg,MS,2,num_4,16,num_4,1.01679136499,,,2017_Aug_23_1711,60.0133008093,MAFE4ImagesEEG,001,101255,
AFNE01.JPG,AFNE01.JPG,AFNE01.JPG,AFNE01.JPG,AFNE01.JPG,AFNE01.JPG,0,7,7,9,,,,,,,,,,,,,,,,,,,,,,,AMNE19.jpg,AMSA09.jpg,AMNE14.jpg,AMSA13.jpg,AMNE14.jpg,MN,1,num_2,32,num_6,1.61671862123,,,2017_Aug_23_1711,60.0133008093,MAFE4ImagesEEG,001,101255,
AFNE01.JPG,AFNE01.JPG,AFNE01.JPG,AFNE01.JPG,AFNE01.JPG,AFNE01.JPG,0,8,8,3,,,,,,,,,,,,,,,,,,,,,,,AMNE16.jpg,AMSA07.jpg,AMNE19.jpg,AMSA17.jpg,AMNE16.jpg,MN,1,num_8,32,num_4,0.800189428846,,,2017_Aug_23_1711,60.0133008093,MAFE4ImagesEEG,001,101255,
AFNE01.JPG,AFNE01.JPG,AFNE01.JPG,AFNE01.JPG,AFNE01.JPG,AFNE01.JPG,0,9,9,6,,,,,,,,,,,,,,,,,,,,,,,AMSA01.jpg,AMSA16.jpg,AMNE10.jpg,AMNE20.jpg,AMSA01.jpg,MS,2,num_8,32,num_2,0.999957983149,,,2017_Aug_23_1711,60.0133008093,MAFE4ImagesEEG,001,101255,
AFNE01.JPG,AFNE01.JPG,AFNE01.JPG,AFNE01.JPG,AFNE01.JPG,AFNE01.JPG,1,0,10,2,,,,,,,,,,,,,,,,,,,,,,,AMNE17.jpg,AMNE07.jpg,AMSA07.jpg,AMSA04.jpg,AMNE17.jpg,MN,1,num_8,32,num_6,1.68329520267,,,2017_Aug_23_1711,60.0133008093,MAFE4ImagesEEG,001,101255,
AFNE01.JPG,AFNE01.JPG,AFNE01.JPG,AFNE01.JPG,AFNE01.JPG,AFNE01.JPG,1,1,11,4,,,,,,,,,,,,,,,,,,,,,,,AMNE05.jpg,AMSA17.jpg,AMSA18.jpg,AMNE06.jpg,AMNE05.jpg,MN,1,num_8,16,num_8,0.950081997202,,,2017_Aug_23_1711,60.0133008093,MAFE4ImagesEEG,001,101255,
AFNE01.JPG,AFNE01.JPG,AFNE01.JPG,AFNE01.JPG,AFNE01.JPG,AFNE01.JPG,1,2,12,9,,,,,,,,,,,,,,,,,,,,,,,AMSA16.jpg,AMSA20.jpg,AMNE18.jpg,AMNE15.jpg,AMSA16.jpg,MS,2,num_8,16,num_8,1.03345411317,,,2017_Aug_23_1711,60.0133008093,MAFE4ImagesEEG,001,101255,
AFNE01.JPG,AFNE01.JPG,AFNE01.JPG,AFNE01.JPG,AFNE01.JPG,AFNE01.JPG,1,3,13,3,,,,,,,,,,,,,,,,,,,,,,,AMSA01.jpg,AMNE03.jpg,AMSA17.jpg,AMNE08.jpg,AMNE08.jpg,MN,1,num_4,32,num_2,0.900123901665,,,2017_Aug_23_1711,60.0133008093,MAFE4ImagesEEG,001,101255,
AFNE01.JPG,AFNE01.JPG,AFNE01.JPG,AFNE01.JPG,AFNE01.JPG,AFNE01.JPG,1,4,14,0,,,,,,,,,,,,,,,,,,,,,,,AMNE07.jpg,AMNE18.jpg,AMSA20.jpg,AMSA19.jpg,AMNE18.jpg,MN,1,num_6,32,num_8,1.1667820795,,,2017_Aug_23_1711,60.0133008093,MAFE4ImagesEEG,001,101255,
AFNE01.JPG,AFNE01.JPG,AFNE01.JPG,AFNE01.JPG,AFNE01.JPG,AFNE01.JPG,1,5,15,6,,,,,,,,,,,,,,,,,,,,,,,AMSA01.jpg,AMNE04.jpg,AMSA07.jpg,AMNE05.jpg,AMSA01.jpg,MS,2,num_8,32,num_6,0.833480927045,,,2017_Aug_23_1711,60.0133008093,MAFE4ImagesEEG,001,101255,
AFNE01.JPG,AFNE01.JPG,AFNE01.JPG,AFNE01.JPG,AFNE01.JPG,AFNE01.JPG,1,6,16,8,,,,,,,,,,,,,,,,,,,,,,,AMNE13.jpg,AMSA06.jpg,AMSA16.jpg,AMNE10.jpg,AMNE13.jpg,MN,1,num_8,16,num_8,1.43345436978,,,2017_Aug_23_1711,60.0133008093,MAFE4ImagesEEG,001,101255,
AFNE01.JPG,AFNE01.JPG,AFNE01.JPG,AFNE01.JPG,AFNE01.JPG,AFNE01.JPG,1,7,17,5,,,,,,,,,,,,,,,,,,,,,,,AMNE09.jpg,AMSA05.jpg,AMNE07.jpg,AMSA19.jpg,AMSA05.jpg,MS,2,num_6,16,num_6,0.983414229238,,,2017_Aug_23_1711,60.0133008093,MAFE4ImagesEEG,001,101255,
AFNE01.JPG,AFNE01.JPG,AFNE01.JPG,AFNE01.JPG,AFNE01.JPG,AFNE01.JPG,1,8,18,1,,,,,,,,,,,,,,,,,,,,,,,AMNE19.jpg,AMSA13.jpg,AMNE11.jpg,AMSA01.jpg,AMNE11.jpg,MN,1,num_2,32,num_8,1.05019512202,,,2017_Aug_23_1711,60.0133008093,MAFE4ImagesEEG,001,101255,
AFNE01.JPG,AFNE01.JPG,AFNE01.JPG,AFNE01.JPG,AFNE01.JPG,AFNE01.JPG,1,9,19,7,,,,,,,,,,,,,,,,,,,,,,,AMNE17.jpg,AMNE06.jpg,AMSA10.jpg,AMSA20.jpg,AMSA20.jpg,MS,2,num_4,16,num_4,1.21672285488,,,2017_Aug_23_1711,60.0133008093,MAFE4ImagesEEG,001,101255,
AFNE01.JPG,AFNE01.JPG,AFNE01.JPG,AFNE01.JPG,AFNE01.JPG,AFNE01.JPG,2,0,20,1,,,,,,,,,,,,,,,,,,,,,,,AMSA01.jpg,AMNE14.jpg,AMNE20.jpg,AMSA17.jpg,AMNE14.jpg,MN,1,num_6,32,num_2,1.21673632599,,,2017_Aug_23_1711,60.0133008093,MAFE4ImagesEEG,001,101255,
AFNE01.JPG,AFNE01.JPG,AFNE01.JPG,AFNE01.JPG,AFNE01.JPG,AFNE01.JPG,2,1,21,5,,,,,,,,,,,,,,,,,,,,,,,AMNE13.jpg,AMNE08.jpg,AMSA11.jpg,AMSA12.jpg,AMNE13.jpg,MN,1,num_8,16,num_8,1.9501076563,,,2017_Aug_23_1711,60.0133008093,MAFE4ImagesEEG,001,101255,
AFNE01.JPG,AFNE01.JPG,AFNE01.JPG,AFNE01.JPG,AFNE01.JPG,AFNE01.JPG,2,2,22,7,,,,,,,,,,,,,,,,,,,,,,,AMSA16.jpg,AMNE20.jpg,AMNE10.jpg,AMSA03.jpg,AMNE20.jpg,MN,1,num_6,16,num_6,0.483501951559,,,2017_Aug_23_1711,60.0133008093,MAFE4ImagesEEG,001,101255,
AFNE01.JPG,AFNE01.JPG,AFNE01.JPG,AFNE01.JPG,AFNE01.JPG,AFNE01.JPG,2,3,23,8,,,,,,,,,,,,,,,,,,,,,,,AMSA12.jpg,AMNE15.jpg,AMNE05.jpg,AMSA03.jpg,AMNE15.jpg,MN,1,num_6,16,num_6,0.850135336048,,,2017_Aug_23_1711,60.0133008093,MAFE4ImagesEEG,001,101255,
AFNE01.JPG,AFNE01.JPG,AFNE01.JPG,AFNE01.JPG,AFNE01.JPG,AFNE01.JPG,2,4,24,0,,,,,,,,,,,,,,,,,,,,,,,AMSA10.jpg,AMNE19.jpg,AMSA18.jpg,AMNE13.jpg,AMSA10.jpg,MS,2,num_8,32,num_2,0.616835049586,,,2017_Aug_23_1711,60.0133008093,MAFE4ImagesEEG,001,101255,
AFNE01.JPG,AFNE01.JPG,AFNE01.JPG,AFNE01.JPG,AFNE01.JPG,AFNE01.JPG,2,5,25,2,,,,,,,,,,,,,,,,,,,,,,,AMSA10.jpg,AMNE02.jpg,AMSA03.jpg,AMNE05.jpg,AMSA10.jpg,MS,2,num_8,16,num_8,0.983456887538,,,2017_Aug_23_1711,60.0133008093,MAFE4ImagesEEG,001,101255,
AFNE01.JPG,AFNE01.JPG,AFNE01.JPG,AFNE01.JPG,AFNE01.JPG,AFNE01.JPG,2,6,26,3,,,,,,,,,,,,,,,,,,,,,,,AMNE19.jpg,AMSA20.jpg,AMSA06.jpg,AMNE01.jpg,AMNE01.jpg,MN,1,num_4,32,num_2,1.00038617058,,,2017_Aug_23_1711,60.0133008093,MAFE4ImagesEEG,001,101255,
AFNE01.JPG,AFNE01.JPG,AFNE01.JPG,AFNE01.JPG,AFNE01.JPG,AFNE01.JPG,2,7,27,6,,,,,,,,,,,,,,,,,,,,,,,AMNE13.jpg,AMSA04.jpg,AMSA17.jpg,AMNE19.jpg,AMSA04.jpg,MS,2,num_6,16,num_6,0.583484856063,,,2017_Aug_23_1711,60.0133008093,MAFE4ImagesEEG,001,101255,
AFNE01.JPG,AFNE01.JPG,AFNE01.JPG,AFNE01.JPG,AFNE01.JPG,AFNE01.JPG,2,8,28,4,,,,,,,,,,,,,,,,,,,,,,,AMNE19.jpg,AMSA06.jpg,AMSA20.jpg,AMNE18.jpg,AMSA20.jpg,MS,2,num_2,16,num_2,0.583557664067,,,2017_Aug_23_1711,60.0133008093,MAFE4ImagesEEG,001,101255,
AFNE01.JPG,AFNE01.JPG,AFNE01.JPG,AFNE01.JPG,AFNE01.JPG,AFNE01.JPG,2,9,29,9,,,,,,,,,,,,,,,,,,,,,,,AMSA05.jpg,AMNE15.jpg,AMSA18.jpg,AMNE03.jpg,AMSA05.jpg,MS,2,num_8,16,num_8,0.783325255965,,,2017_Aug_23_1711,60.0133008093,MAFE4ImagesEEG,001,101255,
AFNE01.JPG,AFNE01.JPG,AFNE01.JPG,AFNE01.JPG,AFNE01.JPG,AFNE01.JPG,3,0,30,9,,,,,,,,,,,,,,,,,,,,,,,AMNE09.jpg,AMSA11.jpg,AMNE08.jpg,AMSA09.jpg,AMNE09.jpg,MN,1,num_8,16,num_8,0.733514059451,,,2017_Aug_23_1711,60.0133008093,MAFE4ImagesEEG,001,101255,
AFNE01.JPG,AFNE01.JPG,AFNE01.JPG,AFNE01.JPG,AFNE01.JPG,AFNE01.JPG,3,1,31,3,,,,,,,,,,,,,,,,,,,,,,,AMSA14.jpg,AMNE14.jpg,AMNE12.jpg,AMSA17.jpg,AMNE14.jpg,MN,1,num_6,32,num_2,0.866861911607,,,2017_Aug_23_1711,60.0133008093,MAFE4ImagesEEG,001,101255,
AFNE01.JPG,AFNE01.JPG,AFNE01.JPG,AFNE01.JPG,AFNE01.JPG,AFNE01.JPG,3,2,32,1,,,,,,,,,,,,,,,,,,,,,,,AMNE14.jpg,AMNE20.jpg,AMSA17.jpg,AMSA09.jpg,AMSA17.jpg,MS,2,num_2,32,num_8,0.683572001057,,,2017_Aug_23_1711,60.0133008093,MAFE4ImagesEEG,001,101255,
AFNE01.JPG,AFNE01.JPG,AFNE01.JPG,AFNE01.JPG,AFNE01.JPG,AFNE01.JPG,3,3,33,6,,,,,,,,,,,,,,,,,,,,,,,AMNE18.jpg,AMSA15.jpg,AMNE07.jpg,AMSA12.jpg,AMNE07.jpg,MN,1,num_2,16,num_2,1.53343406692,,,2017_Aug_23_1711,60.0133008093,MAFE4ImagesEEG,001,101255,
AFNE01.JPG,AFNE01.JPG,AFNE01.JPG,AFNE01.JPG,AFNE01.JPG,AFNE01.JPG,3,4,34,0,,,,,,,,,,,,,,,,,,,,,,,AMSA08.jpg,AMSA02.jpg,AMNE13.jpg,AMNE17.jpg,AMNE17.jpg,MN,1,num_4,16,num_4,0.599832637934,,,2017_Aug_23_1711,60.0133008093,MAFE4ImagesEEG,001,101255,
AFNE01.JPG,AFNE01.JPG,AFNE01.JPG,AFNE01.JPG,AFNE01.JPG,AFNE01.JPG,3,5,35,7,,,,,,,,,,,,,,,,,,,,,,,AMNE03.jpg,AMSA10.jpg,AMNE12.jpg,AMSA02.jpg,AMSA02.jpg,MS,2,num_4,32,num_6,0.850135977613,,,2017_Aug_23_1711,60.0133008093,MAFE4ImagesEEG,001,101255,
AFNE01.JPG,AFNE01.JPG,AFNE01.JPG,AFNE01.JPG,AFNE01.JPG,AFNE01.JPG,3,6,36,2,,,,,,,,,,,,,,,,,,,,,,,AMSA06.jpg,AMNE15.jpg,AMSA05.jpg,AMNE02.jpg,AMNE15.jpg,MN,1,num_6,16,num_6,0.483569627511,,,2017_Aug_23_1711,60.0133008093,MAFE4ImagesEEG,001,101255,
AFNE01.JPG,AFNE01.JPG,AFNE01.JPG,AFNE01.JPG,AFNE01.JPG,AFNE01.JPG,3,7,37,4,,,,,,,,,,,,,,,,,,,,,,,AMSA18.jpg,AMSA03.jpg,AMNE01.jpg,AMNE03.jpg,AMNE01.jpg,MN,1,num_2,32,num_4,0.68366950599,,,2017_Aug_23_1711,60.0133008093,MAFE4ImagesEEG,001,101255,
AFNE01.JPG,AFNE01.JPG,AFNE01.JPG,AFNE01.JPG,AFNE01.JPG,AFNE01.JPG,3,8,38,5,,,,,,,,,,,,,,,,,,,,,,,AMNE07.jpg,AMNE06.jpg,AMSA11.jpg,AMSA15.jpg,AMSA15.jpg,MS,2,num_4,32,num_2,0.88355962059,,,2017_Aug_23_1711,60.0133008093,MAFE4ImagesEEG,001,101255,
AFNE01.JPG,AFNE01.JPG,AFNE01.JPG,AFNE01.JPG,AFNE01.JPG,AFNE01.JPG,3,9,39,8,,,,,,,,,,,,,,,,,,,,,,,AMNE09.jpg,AMNE11.jpg,AMSA04.jpg,AMSA05.jpg,AMSA05.jpg,MS,2,num_4,16,num_4,0.850050981622,,,2017_Aug_23_1711,60.0133008093,MAFE4ImagesEEG,001,101255,
AFNE01.JPG,AFNE01.JPG,AFNE01.JPG,AFNE01.JPG,AFNE01.JPG,AFNE01.JPG,4,0,40,6,,,,,,,,,,,,,,,,,,,,,,,AMSA11.jpg,AMNE20.jpg,AMNE15.jpg,AMSA19.jpg,AMNE20.jpg,MN,1,num_6,16,num_6,0.750029908959,,,2017_Aug_23_1711,60.0133008093,MAFE4ImagesEEG,001,101255,
AFNE01.JPG,AFNE01.JPG,AFNE01.JPG,AFNE01.JPG,AFNE01.JPG,AFNE01.JPG,4,1,41,1,,,,,,,,,,,,,,,,,,,,,,,AMNE13.jpg,AMSA15.jpg,AMSA08.jpg,AMNE08.jpg,AMNE13.jpg,MN,1,num_8,32,num_2,0.966783234151,,,2017_Aug_23_1711,60.0133008093,MAFE4ImagesEEG,001,101255,
AFNE01.JPG,AFNE01.JPG,AFNE01.JPG,AFNE01.JPG,AFNE01.JPG,AFNE01.JPG,4,2,42,5,,,,,,,,,,,,,,,,,,,,,,,AMNE02.jpg,AMSA18.jpg,AMNE16.jpg,AMSA01.jpg,AMNE02.jpg,MN,1,num_8,32,num_2,0.750157563365,,,2017_Aug_23_1711,60.0133008093,MAFE4ImagesEEG,001,101255,
AFNE01.JPG,AFNE01.JPG,AFNE01.JPG,AFNE01.JPG,AFNE01.JPG,AFNE01.JPG,4,3,43,4,,,,,,,,,,,,,,,,,,,,,,,AMSA02.jpg,AMNE13.jpg,AMSA17.jpg,AMNE09.jpg,AMSA17.jpg,MS,2,num_2,32,num_8,0.616805220954,,,2017_Aug_23_1711,60.0133008093,MAFE4ImagesEEG,001,101255,
AFNE01.JPG,AFNE01.JPG,AFNE01.JPG,AFNE01.JPG,AFNE01.JPG,AFNE01.JPG,4,4,44,3,,,,,,,,,,,,,,,,,,,,,,,AMSA05.jpg,AMNE07.jpg,AMNE17.jpg,AMSA06.jpg,AMNE07.jpg,MN,1,num_6,16,num_6,0.850130525068,,,2017_Aug_23_1711,60.0133008093,MAFE4ImagesEEG,001,101255,
AFNE01.JPG,AFNE01.JPG,AFNE01.JPG,AFNE01.JPG,AFNE01.JPG,AFNE01.JPG,4,5,45,9,,,,,,,,,,,,,,,,,,,,,,,AMNE17.jpg,AMSA07.jpg,AMNE03.jpg,AMSA02.jpg,AMNE03.jpg,MN,1,num_2,32,num_8,1.10013621813,,,2017_Aug_23_1711,60.0133008093,MAFE4ImagesEEG,001,101255,
AFNE01.JPG,AFNE01.JPG,AFNE01.JPG,AFNE01.JPG,AFNE01.JPG,AFNE01.JPG,4,6,46,7,,,,,,,,,,,,,,,,,,,,,,,AMNE05.jpg,AMNE16.jpg,AMSA09.jpg,AMSA08.jpg,AMSA09.jpg,MS,2,num_2,16,num_2,0.633434932912,,,2017_Aug_23_1711,60.0133008093,MAFE4ImagesEEG,001,101255,
AFNE01.JPG,AFNE01.JPG,AFNE01.JPG,AFNE01.JPG,AFNE01.JPG,AFNE01.JPG,4,7,47,8,,,,,,,,,,,,,,,,,,,,,,,AMSA04.jpg,AMNE02.jpg,AMSA13.jpg,AMNE10.jpg,AMSA04.jpg,MS,2,num_8,16,num_8,1.15014242451,,,2017_Aug_23_1711,60.0133008093,MAFE4ImagesEEG,001,101255,
AFNE01.JPG,AFNE01.JPG,AFNE01.JPG,AFNE01.JPG,AFNE01.JPG,AFNE01.JPG,4,8,48,2,,,,,,,,,,,,,,,,,,,,,,,AMSA07.jpg,AMNE20.jpg,AMSA17.jpg,AMNE15.jpg,AMNE15.jpg,MN,1,num_4,32,num_6,0.666774862912,,,2017_Aug_23_1711,60.0133008093,MAFE4ImagesEEG,001,101255,
AFNE01.JPG,AFNE01.JPG,AFNE01.JPG,AFNE01.JPG,AFNE01.JPG,AFNE01.JPG,4,9,49,0,,,,,,,,,,,,,,,,,,,,,,,AMSA18.jpg,AMNE06.jpg,AMSA08.jpg,AMNE03.jpg,AMNE03.jpg,MN,1,num_4,32,num_8,1.26699110551,,,2017_Aug_23_1711,60.0133008093,MAFE4ImagesEEG,001,101255,
AFNE01.JPG,AFNE01.JPG,AFNE01.JPG,AFNE01.JPG,AFNE01.JPG,AFNE01.JPG,5,0,50,3,,,,,,,,,,,,,,,,,,,,,,,AMNE15.jpg,AMSA13.jpg,AMNE17.jpg,AMSA20.jpg,AMSA13.jpg,MS,2,num_6,32,num_8,1.00009750482,,,2017_Aug_23_1711,60.0133008093,MAFE4ImagesEEG,001,101255,
AFNE01.JPG,AFNE01.JPG,AFNE01.JPG,AFNE01.JPG,AFNE01.JPG,AFNE01.JPG,5,1,51,8,,,,,,,,,,,,,,,,,,,,,,,AMNE06.jpg,AMSA07.jpg,AMSA03.jpg,AMNE01.jpg,AMSA03.jpg,MS,2,num_2,32,num_6,1.23346899555,,,2017_Aug_23_1711,60.0133008093,MAFE4ImagesEEG,001,101255,
AFNE01.JPG,AFNE01.JPG,AFNE01.JPG,AFNE01.JPG,AFNE01.JPG,AFNE01.JPG,5,2,52,5,,,,,,,,,,,,,,,,,,,,,,,AMSA10.jpg,AMNE01.jpg,AMSA18.jpg,AMNE19.jpg,AMNE01.jpg,MN,1,num_6,32,num_2,0.950104769669,,,2017_Aug_23_1711,60.0133008093,MAFE4ImagesEEG,001,101255,
AFNE01.JPG,AFNE01.JPG,AFNE01.JPG,AFNE01.JPG,AFNE01.JPG,AFNE01.JPG,5,3,53,7,,,,,,,,,,,,,,,,,,,,,,,AMNE06.jpg,AMSA18.jpg,AMNE07.jpg,AMSA17.jpg,AMSA17.jpg,MS,2,num_4,32,num_8,0.833441155264,,,2017_Aug_23_1711,60.0133008093,MAFE4ImagesEEG,001,101255,
AFNE01.JPG,AFNE01.JPG,AFNE01.JPG,AFNE01.JPG,AFNE01.JPG,AFNE01.JPG,5,4,54,9,,,,,,,,,,,,,,,,,,,,,,,AMNE18.jpg,AMSA13.jpg,AMSA19.jpg,AMNE04.jpg,AMNE18.jpg,MN,1,num_8,32,num_6,0.766799784382,,,2017_Aug_23_1711,60.0133008093,MAFE4ImagesEEG,001,101255,
AFNE01.JPG,AFNE01.JPG,AFNE01.JPG,AFNE01.JPG,AFNE01.JPG,AFNE01.JPG,5,5,55,0,,,,,,,,,,,,,,,,,,,,,,,AMNE02.jpg,AMNE20.jpg,AMSA20.jpg,AMSA13.jpg,AMSA20.jpg,MS,2,num_2,32,num_8,1.06677447795,,,2017_Aug_23_1711,60.0133008093,MAFE4ImagesEEG,001,101255,
AFNE01.JPG,AFNE01.JPG,AFNE01.JPG,AFNE01.JPG,AFNE01.JPG,AFNE01.JPG,5,6,56,2,,,,,,,,,,,,,,,,,,,,,,,AMNE07.jpg,AMSA16.jpg,AMSA07.jpg,AMNE09.jpg,AMNE07.jpg,MN,1,num_8,16,num_8,0.750113942777,,,2017_Aug_23_1711,60.0133008093,MAFE4ImagesEEG,001,101255,
AFNE01.JPG,AFNE01.JPG,AFNE01.JPG,AFNE01.JPG,AFNE01.JPG,AFNE01.JPG,5,7,57,4,,,,,,,,,,,,,,,,,,,,,,,AMNE02.jpg,AMSA20.jpg,AMSA03.jpg,AMNE16.jpg,AMSA03.jpg,MS,2,num_2,32,num_8,0.833503378904,,,2017_Aug_23_1711,60.0133008093,MAFE4ImagesEEG,001,101255,
AFNE01.JPG,AFNE01.JPG,AFNE01.JPG,AFNE01.JPG,AFNE01.JPG,AFNE01.JPG,5,8,58,6,,,,,,,,,,,,,,,,,,,,,,,AMNE10.jpg,AMSA05.jpg,AMSA15.jpg,AMNE02.jpg,AMNE02.jpg,MN,1,num_4,32,num_8,0.833455909393,,,2017_Aug_23_1711,60.0133008093,MAFE4ImagesEEG,001,101255,
AFNE01.JPG,AFNE01.JPG,AFNE01.JPG,AFNE01.JPG,AFNE01.JPG,AFNE01.JPG,5,9,59,1,,,,,,,,,,,,,,,,,,,,,,,AMNE10.jpg,AMSA14.jpg,AMNE18.jpg,AMSA15.jpg,AMNE10.jpg,MN,1,num_8,16,num_8,0.850181843387,,,2017_Aug_23_1711,60.0133008093,MAFE4ImagesEEG,001,101255,
,,,,,,,,,,,,,,,,,,,,,,,,,,,,,,,,,,,,,,,,,,,space,53.6127395245,2017_Aug_23_1711,60.0133008093,MAFE4ImagesEEG,001,101255,
AFNE01.JPG,AFNE01.JPG,AFNE01.JPG,AFNE01.JPG,AFNE01.JPG,AFNE01.JPG,,,,,0,0,0,1,,,,,,,,,,,,,,,,,,,AFSA09.jpg,AFNE05.jpg,AFSA05.jpg,AFNE08.jpg,AFSA09.jpg,FS,4,num_8,16,num_8,0.550033950363,,,2017_Aug_23_1711,60.0133008093,MAFE4ImagesEEG,001,101255,
AFNE01.JPG,AFNE01.JPG,AFNE01.JPG,AFNE01.JPG,AFNE01.JPG,AFNE01.JPG,,,,,0,1,1,8,,,,,,,,,,,,,,,,,,,AFSA07.jpg,AFSA20.jpg,AFNE16.jpg,AFNE06.jpg,AFSA20.jpg,FS,4,num_6,16,num_6,0.633479515789,,,2017_Aug_23_1711,60.0133008093,MAFE4ImagesEEG,001,101255,
AFNE01.JPG,AFNE01.JPG,AFNE01.JPG,AFNE01.JPG,AFNE01.JPG,AFNE01.JPG,,,,,0,2,2,3,,,,,,,,,,,,,,,,,,,AFNE18.jpg,AFNE01.jpg,AFSA03.jpg,AFSA15.jpg,AFSA03.jpg,FS,4,num_2,32,num_6,1.00014080468,,,2017_Aug_23_1711,60.0133008093,MAFE4ImagesEEG,001,101255,
AFNE01.JPG,AFNE01.JPG,AFNE01.JPG,AFNE01.JPG,AFNE01.JPG,AFNE01.JPG,,,,,0,3,3,9,,,,,,,,,,,,,,,,,,,AFNE02.jpg,AFSA06.jpg,AFNE18.jpg,AFSA08.jpg,AFSA06.jpg,FS,4,num_6,32,num_4,0.850110318512,,,2017_Aug_23_1711,60.0133008093,MAFE4ImagesEEG,001,101255,
AFNE01.JPG,AFNE01.JPG,AFNE01.JPG,AFNE01.JPG,AFNE01.JPG,AFNE01.JPG,,,,,0,4,4,6,,,,,,,,,,,,,,,,,,,AFSA01.jpg,AFNE05.jpg,AFSA17.jpg,AFNE02.jpg,AFSA01.jpg,FS,4,num_8,16,num_8,0.650130075985,,,2017_Aug_23_1711,60.0133008093,MAFE4ImagesEEG,001,101255,
AFNE01.JPG,AFNE01.JPG,AFNE01.JPG,AFNE01.JPG,AFNE01.JPG,AFNE01.JPG,,,,,0,5,5,7,,,,,,,,,,,,,,,,,,,AFSA17.jpg,AFNE03.jpg,AFNE09.jpg,AFSA07.jpg,AFNE09.jpg,FN,3,num_2,16,num_2,1.21673472226,,,2017_Aug_23_1711,60.0133008093,MAFE4ImagesEEG,001,101255,
AFNE01.JPG,AFNE01.JPG,AFNE01.JPG,AFNE01.JPG,AFNE01.JPG,AFNE01.JPG,,,,,0,6,6,0,,,,,,,,,,,,,,,,,,,AFSA09.jpg,AFNE07.jpg,AFNE13.jpg,AFSA05.jpg,AFSA09.jpg,FS,4,num_8,32,num_6,1.58336233359,,,2017_Aug_23_1711,60.0133008093,MAFE4ImagesEEG,001,101255,
AFNE01.JPG,AFNE01.JPG,AFNE01.JPG,AFNE01.JPG,AFNE01.JPG,AFNE01.JPG,,,,,0,7,7,4,,,,,,,,,,,,,,,,,,,AFSA10.jpg,AFNE16.jpg,AFSA15.jpg,AFNE06.jpg,AFSA10.jpg,FS,4,num_8,32,num_6,1.23340420611,,,2017_Aug_23_1711,60.0133008093,MAFE4ImagesEEG,001,101255,
AFNE01.JPG,AFNE01.JPG,AFNE01.JPG,AFNE01.JPG,AFNE01.JPG,AFNE01.JPG,,,,,0,8,8,2,,,,,,,,,,,,,,,,,,,AFNE04.jpg,AFNE09.jpg,AFSA04.jpg,AFSA01.jpg,AFNE04.jpg,FN,3,num_8,16,num_8,0.850187296048,,,2017_Aug_23_1711,60.0133008093,MAFE4ImagesEEG,001,101255,
AFNE01.JPG,AFNE01.JPG,AFNE01.JPG,AFNE01.JPG,AFNE01.JPG,AFNE01.JPG,,,,,0,9,9,5,,,,,,,,,,,,,,,,,,,AFNE20.jpg,AFSA01.jpg,AFSA12.jpg,AFNE02.jpg,AFSA12.jpg,FS,4,num_2,16,num_2,1.6333739924,,,2017_Aug_23_1711,60.0133008093,MAFE4ImagesEEG,001,101255,
AFNE01.JPG,AFNE01.JPG,AFNE01.JPG,AFNE01.JPG,AFNE01.JPG,AFNE01.JPG,,,,,1,0,10,9,,,,,,,,,,,,,,,,,,,AFNE03.jpg,AFNE05.jpg,AFSA18.jpg,AFSA03.jpg,AFSA18.jpg,FS,4,num_2,32,num_4,0.466753886431,,,2017_Aug_23_1711,60.0133008093,MAFE4ImagesEEG,001,101255,
AFNE01.JPG,AFNE01.JPG,AFNE01.JPG,AFNE01.JPG,AFNE01.JPG,AFNE01.JPG,,,,,1,1,11,4,,,,,,,,,,,,,,,,,,,AFNE05.jpg,AFSA13.jpg,AFNE08.jpg,AFSA07.jpg,AFNE08.jpg,FN,3,num_2,16,num_2,1.33346344682,,,2017_Aug_23_1711,60.0133008093,MAFE4ImagesEEG,001,101255,
AFNE01.JPG,AFNE01.JPG,AFNE01.JPG,AFNE01.JPG,AFNE01.JPG,AFNE01.JPG,,,,,1,2,12,8,,,,,,,,,,,,,,,,,,,AFNE02.jpg,AFNE17.jpg,AFSA13.jpg,AFSA08.jpg,AFSA08.jpg,FS,4,num_4,32,num_2,0.633508382365,,,2017_Aug_23_1711,60.0133008093,MAFE4ImagesEEG,001,101255,
AFNE01.JPG,AFNE01.JPG,AFNE01.JPG,AFNE01.JPG,AFNE01.JPG,AFNE01.JPG,,,,,1,3,13,7,,,,,,,,,,,,,,,,,,,AFSA01.jpg,AFNE16.jpg,AFSA14.jpg,AFNE13.jpg,AFNE13.jpg,FN,3,num_4,32,num_6,0.783455797122,,,2017_Aug_23_1711,60.0133008093,MAFE4ImagesEEG,001,101255,
AFNE01.JPG,AFNE01.JPG,AFNE01.JPG,AFNE01.JPG,AFNE01.JPG,AFNE01.JPG,,,,,1,4,14,0,,,,,,,,,,,,,,,,,,,AFNE17.jpg,AFSA16.jpg,AFNE20.jpg,AFSA09.jpg,AFNE20.jpg,FN,3,num_2,32,num_8,0.600005195942,,,2017_Aug_23_1711,60.0133008093,MAFE4ImagesEEG,001,101255,
AFNE01.JPG,AFNE01.JPG,AFNE01.JPG,AFNE01.JPG,AFNE01.JPG,AFNE01.JPG,,,,,1,5,15,2,,,,,,,,,,,,,,,,,,,AFSA20.jpg,AFNE01.jpg,AFNE07.jpg,AFSA02.jpg,AFNE07.jpg,FN,3,num_2,32,num_6,0.716913213953,,,2017_Aug_23_1711,60.0133008093,MAFE4ImagesEEG,001,101255,
AFNE01.JPG,AFNE01.JPG,AFNE01.JPG,AFNE01.JPG,AFNE01.JPG,AFNE01.JPG,,,,,1,6,16,6,,,,,,,,,,,,,,,,,,,AFSA11.jpg,AFNE11.jpg,AFNE04.jpg,AFSA14.jpg,AFNE11.jpg,FN,3,num_6,32,num_2,1.33343874977,,,2017_Aug_23_1711,60.0133008093,MAFE4ImagesEEG,001,101255,
AFNE01.JPG,AFNE01.JPG,AFNE01.JPG,AFNE01.JPG,AFNE01.JPG,AFNE01.JPG,,,,,1,7,17,3,,,,,,,,,,,,,,,,,,,AFSA13.jpg,AFNE02.jpg,AFNE06.jpg,AFSA03.jpg,AFNE02.jpg,FN,3,num_6,32,num_2,0.816797330743,,,2017_Aug_23_1711,60.0133008093,MAFE4ImagesEEG,001,101255,
AFNE01.JPG,AFNE01.JPG,AFNE01.JPG,AFNE01.JPG,AFNE01.JPG,AFNE01.JPG,,,,,1,8,18,1,,,,,,,,,,,,,,,,,,,AFSA06.jpg,AFSA05.jpg,AFNE01.jpg,AFNE03.jpg,AFSA05.jpg,FS,4,num_6,16,num_6,0.866766331252,,,2017_Aug_23_1711,60.0133008093,MAFE4ImagesEEG,001,101255,
AFNE01.JPG,AFNE01.JPG,AFNE01.JPG,AFNE01.JPG,AFNE01.JPG,AFNE01.JPG,,,,,1,9,19,5,,,,,,,,,,,,,,,,,,,AFSA18.jpg,AFSA12.jpg,AFNE02.jpg,AFNE11.jpg,AFNE02.jpg,FN,3,num_2,32,num_8,1.06675074319,,,2017_Aug_23_1711,60.0133008093,MAFE4ImagesEEG,001,101255,
AFNE01.JPG,AFNE01.JPG,AFNE01.JPG,AFNE01.JPG,AFNE01.JPG,AFNE01.JPG,,,,,2,0,20,6,,,,,,,,,,,,,,,,,,,AFSA04.jpg,AFNE05.jpg,AFSA03.jpg,AFNE07.jpg,AFNE07.jpg,FN,3,num_4,16,num_4,0.733496739529,,,2017_Aug_23_1711,60.0133008093,MAFE4ImagesEEG,001,101255,
AFNE01.JPG,AFNE01.JPG,AFNE01.JPG,AFNE01.JPG,AFNE01.JPG,AFNE01.JPG,,,,,2,1,21,1,,,,,,,,,,,,,,,,,,,AFSA15.jpg,AFNE09.jpg,AFNE14.jpg,AFSA17.jpg,AFSA15.jpg,FS,4,num_8,16,num_8,1.01706174854,,,2017_Aug_23_1711,60.0133008093,MAFE4ImagesEEG,001,101255,
AFNE01.JPG,AFNE01.JPG,AFNE01.JPG,AFNE01.JPG,AFNE01.JPG,AFNE01.JPG,,,,,2,2,22,4,,,,,,,,,,,,,,,,,,,AFNE05.jpg,AFNE09.jpg,AFSA02.jpg,AFSA05.jpg,AFNE05.jpg,FN,3,num_8,32,num_4,2.45003404655,,,2017_Aug_23_1711,60.0133008093,MAFE4ImagesEEG,001,101255,
AFNE01.JPG,AFNE01.JPG,AFNE01.JPG,AFNE01.JPG,AFNE01.JPG,AFNE01.JPG,,,,,2,3,23,3,,,,,,,,,,,,,,,,,,,AFNE04.jpg,AFNE01.jpg,AFSA19.jpg,AFSA16.jpg,AFSA19.jpg,FS,4,num_2,32,num_6,0.950127862976,,,2017_Aug_23_1711,60.0133008093,MAFE4ImagesEEG,001,101255,
AFNE01.JPG,AFNE01.JPG,AFNE01.JPG,AFNE01.JPG,AFNE01.JPG,AFNE01.JPG,,,,,2,4,24,9,,,,,,,,,,,,,,,,,,,AFNE13.jpg,AFSA12.jpg,AFNE08.jpg,AFSA09.jpg,AFSA12.jpg,FS,4,num_6,32,num_8,1.03344000061,,,2017_Aug_23_1711,60.0133008093,MAFE4ImagesEEG,001,101255,
AFNE01.JPG,AFNE01.JPG,AFNE01.JPG,AFNE01.JPG,AFNE01.JPG,AFNE01.JPG,,,,,2,5,25,5,,,,,,,,,,,,,,,,,,,AFNE10.jpg,AFNE03.jpg,AFSA11.jpg,AFSA19.jpg,AFSA19.jpg,FS,4,num_4,16,num_4,1.90000715246,,,2017_Aug_23_1711,60.0133008093,MAFE4ImagesEEG,001,101255,
AFNE01.JPG,AFNE01.JPG,AFNE01.JPG,AFNE01.JPG,AFNE01.JPG,AFNE01.JPG,,,,,2,6,26,7,,,,,,,,,,,,,,,,,,,AFNE12.jpg,AFNE03.jpg,AFSA15.jpg,AFSA04.jpg,AFSA04.jpg,FS,4,num_4,16,num_4,0.950136843603,,,2017_Aug_23_1711,60.0133008093,MAFE4ImagesEEG,001,101255,
AFNE01.JPG,AFNE01.JPG,AFNE01.JPG,AFNE01.JPG,AFNE01.JPG,AFNE01.JPG,,,,,2,7,27,2,,,,,,,,,,,,,,,,,,,AFSA07.jpg,AFNE16.jpg,AFSA09.jpg,AFNE09.jpg,AFSA09.jpg,FS,4,num_2,32,num_8,2.75006968074,,,2017_Aug_23_1711,60.0133008093,MAFE4ImagesEEG,001,101255,
AFNE01.JPG,AFNE01.JPG,AFNE01.JPG,AFNE01.JPG,AFNE01.JPG,AFNE01.JPG,,,,,2,8,28,0,,,,,,,,,,,,,,,,,,,AFNE02.jpg,AFSA20.jpg,AFSA08.jpg,AFNE10.jpg,AFNE02.jpg,FN,3,num_8,32,num_2,1.00016229425,,,2017_Aug_23_1711,60.0133008093,MAFE4ImagesEEG,001,101255,
AFNE01.JPG,AFNE01.JPG,AFNE01.JPG,AFNE01.JPG,AFNE01.JPG,AFNE01.JPG,,,,,2,9,29,8,,,,,,,,,,,,,,,,,,,AFNE16.jpg,AFNE11.jpg,AFSA11.jpg,AFSA18.jpg,AFNE16.jpg,FN,3,num_8,16,num_8,0.716786842444,,,2017_Aug_23_1711,60.0133008093,MAFE4ImagesEEG,001,101255,
AFNE01.JPG,AFNE01.JPG,AFNE01.JPG,AFNE01.JPG,AFNE01.JPG,AFNE01.JPG,,,,,3,0,30,4,,,,,,,,,,,,,,,,,,,AFNE10.jpg,AFSA16.jpg,AFSA14.jpg,AFNE08.jpg,AFSA16.jpg,FS,4,num_6,16,num_6,0.716811539372,,,2017_Aug_23_1711,60.0133008093,MAFE4ImagesEEG,001,101255,
AFNE01.JPG,AFNE01.JPG,AFNE01.JPG,AFNE01.JPG,AFNE01.JPG,AFNE01.JPG,,,,,3,1,31,6,,,,,,,,,,,,,,,,,,,AFNE19.jpg,AFSA07.jpg,AFSA09.jpg,AFNE02.jpg,AFNE19.jpg,FN,3,num_8,32,num_6,0.733511172817,,,2017_Aug_23_1711,60.0133008093,MAFE4ImagesEEG,001,101255,
AFNE01.JPG,AFNE01.JPG,AFNE01.JPG,AFNE01.JPG,AFNE01.JPG,AFNE01.JPG,,,,,3,2,32,7,,,,,,,,,,,,,,,,,,,AFSA02.jpg,AFSA03.jpg,AFNE05.jpg,AFNE16.jpg,AFSA03.jpg,FS,4,num_6,32,num_8,0.533540231874,,,2017_Aug_23_1711,60.0133008093,MAFE4ImagesEEG,001,101255,
AFNE01.JPG,AFNE01.JPG,AFNE01.JPG,AFNE01.JPG,AFNE01.JPG,AFNE01.JPG,,,,,3,3,33,3,,,,,,,,,,,,,,,,,,,AFNE19.jpg,AFNE05.jpg,AFSA06.jpg,AFSA10.jpg,AFSA06.jpg,FS,4,num_2,32,num_8,0.733473325497,,,2017_Aug_23_1711,60.0133008093,MAFE4ImagesEEG,001,101255,
AFNE01.JPG,AFNE01.JPG,AFNE01.JPG,AFNE01.JPG,AFNE01.JPG,AFNE01.JPG,,,,,3,4,34,5,,,,,,,,,,,,,,,,,,,AFNE05.jpg,AFSA07.jpg,AFNE11.jpg,AFSA06.jpg,AFNE05.jpg,FN,3,num_8,32,num_6,0.600186734577,,,2017_Aug_23_1711,60.0133008093,MAFE4ImagesEEG,001,101255,
AFNE01.JPG,AFNE01.JPG,AFNE01.JPG,AFNE01.JPG,AFNE01.JPG,AFNE01.JPG,,,,,3,5,35,1,,,,,,,,,,,,,,,,,,,AFNE15.jpg,AFNE19.jpg,AFSA04.jpg,AFSA10.jpg,AFSA10.jpg,FS,4,num_4,16,num_4,0.566774959094,,,2017_Aug_23_1711,60.0133008093,MAFE4ImagesEEG,001,101255,
AFNE01.JPG,AFNE01.JPG,AFNE01.JPG,AFNE01.JPG,AFNE01.JPG,AFNE01.JPG,,,,,3,6,36,8,,,,,,,,,,,,,,,,,,,AFSA15.jpg,AFSA05.jpg,AFNE01.jpg,AFNE13.jpg,AFSA15.jpg,FS,4,num_8,16,num_8,0.533489875728,,,2017_Aug_23_1711,60.0133008093,MAFE4ImagesEEG,001,101255,
AFNE01.JPG,AFNE01.JPG,AFNE01.JPG,AFNE01.JPG,AFNE01.JPG,AFNE01.JPG,,,,,3,7,37,9,,,,,,,,,,,,,,,,,,,AFSA05.jpg,AFNE19.jpg,AFNE04.jpg,AFSA19.jpg,AFNE19.jpg,FN,3,num_6,16,num_6,0.833440513932,,,2017_Aug_23_1711,60.0133008093,MAFE4ImagesEEG,001,101255,
AFNE01.JPG,AFNE01.JPG,AFNE01.JPG,AFNE01.JPG,AFNE01.JPG,AFNE01.JPG,,,,,3,8,38,2,,,,,,,,,,,,,,,,,,,AFSA06.jpg,AFSA16.jpg,AFNE13.jpg,AFNE01.jpg,AFSA06.jpg,FS,4,num_8,32,num_6,0.500190038234,,,2017_Aug_23_1711,60.0133008093,MAFE4ImagesEEG,001,101255,
AFNE01.JPG,AFNE01.JPG,AFNE01.JPG,AFNE01.JPG,AFNE01.JPG,AFNE01.JPG,,,,,3,9,39,0,,,,,,,,,,,,,,,,,,,AFSA03.jpg,AFSA10.jpg,AFNE17.jpg,AFNE19.jpg,AFNE17.jpg,FN,3,num_2,32,num_8,0.550165132852,,,2017_Aug_23_1711,60.0133008093,MAFE4ImagesEEG,001,101255,
AFNE01.JPG,AFNE01.JPG,AFNE01.JPG,AFNE01.JPG,AFNE01.JPG,AFNE01.JPG,,,,,4,0,40,1,,,,,,,,,,,,,,,,,,,AFSA04.jpg,AFNE09.jpg,AFNE07.jpg,AFSA07.jpg,AFSA04.jpg,FS,4,num_8,32,num_4,0.850129242055,,,2017_Aug_23_1711,60.0133008093,MAFE4ImagesEEG,001,101255,
AFNE01.JPG,AFNE01.JPG,AFNE01.JPG,AFNE01.JPG,AFNE01.JPG,AFNE01.JPG,,,,,4,1,41,3,,,,,,,,,,,,,,,,,,,AFNE15.jpg,AFSA03.jpg,AFSA06.jpg,AFNE20.jpg,AFSA03.jpg,FS,4,num_6,32,num_8,0.566807995201,,,2017_Aug_23_1711,60.0133008093,MAFE4ImagesEEG,001,101255,
AFNE01.JPG,AFNE01.JPG,AFNE01.JPG,AFNE01.JPG,AFNE01.JPG,AFNE01.JPG,,,,,4,2,42,7,,,,,,,,,,,,,,,,,,,AFNE03.jpg,AFSA07.jpg,AFNE05.jpg,AFSA15.jpg,AFNE05.jpg,FN,3,num_2,32,num_6,0.716785559547,,,2017_Aug_23_1711,60.0133008093,MAFE4ImagesEEG,001,101255,
AFNE01.JPG,AFNE01.JPG,AFNE01.JPG,AFNE01.JPG,AFNE01.JPG,AFNE01.JPG,,,,,4,3,43,9,,,,,,,,,,,,,,,,,,,AFSA14.jpg,AFSA17.jpg,AFNE04.jpg,AFNE10.jpg,AFSA17.jpg,FS,4,num_6,32,num_8,0.683496947982,,,2017_Aug_23_1711,60.0133008093,MAFE4ImagesEEG,001,101255,
AFNE01.JPG,AFNE01.JPG,AFNE01.JPG,AFNE01.JPG,AFNE01.JPG,AFNE01.JPG,,,,,4,4,44,5,,,,,,,,,,,,,,,,,,,AFNE09.jpg,AFNE03.jpg,AFSA14.jpg,AFSA09.jpg,AFNE03.jpg,FN,3,num_6,32,num_8,0.716742580407,,,2017_Aug_23_1711,60.0133008093,MAFE4ImagesEEG,001,101255,
AFNE01.JPG,AFNE01.JPG,AFNE01.JPG,AFNE01.JPG,AFNE01.JPG,AFNE01.JPG,,,,,4,5,45,6,,,,,,,,,,,,,,,,,,,AFNE14.jpg,AFSA07.jpg,AFNE08.jpg,AFSA08.jpg,AFNE14.jpg,FN,3,num_8,32,num_6,1.21679470059,,,2017_Aug_23_1711,60.0133008093,MAFE4ImagesEEG,001,101255,
AFNE01.JPG,AFNE01.JPG,AFNE01.JPG,AFNE01.JPG,AFNE01.JPG,AFNE01.JPG,,,,,4,6,46,4,,,,,,,,,,,,,,,,,,,AFNE04.jpg,AFSA13.jpg,AFNE12.jpg,AFSA19.jpg,AFNE04.jpg,FN,3,num_8,16,num_8,0.966758537223,,,2017_Aug_23_1711,60.0133008093,MAFE4ImagesEEG,001,101255,
AFNE01.JPG,AFNE01.JPG,AFNE01.JPG,AFNE01.JPG,AFNE01.JPG,AFNE01.JPG,,,,,4,7,47,2,,,,,,,,,,,,,,,,,,,AFSA02.jpg,AFSA03.jpg,AFNE18.jpg,AFNE07.jpg,AFNE07.jpg,FN,3,num_4,32,num_2,0.98339434329,,,2017_Aug_23_1711,60.0133008093,MAFE4ImagesEEG,001,101255,
AFNE01.JPG,AFNE01.JPG,AFNE01.JPG,AFNE01.JPG,AFNE01.JPG,AFNE01.JPG,,,,,4,8,48,8,,,,,,,,,,,,,,,,,,,AFSA08.jpg,AFNE03.jpg,AFSA11.jpg,AFNE10.jpg,AFSA08.jpg,FS,4,num_8,16,num_8,0.933572883136,,,2017_Aug_23_1711,60.0133008093,MAFE4ImagesEEG,001,101255,
AFNE01.JPG,AFNE01.JPG,AFNE01.JPG,AFNE01.JPG,AFNE01.JPG,AFNE01.JPG,,,,,4,9,49,0,,,,,,,,,,,,,,,,,,,AFNE20.jpg,AFSA04.jpg,AFSA08.jpg,AFNE10.jpg,AFNE20.jpg,FN,3,num_8,32,num_4,1.06683958822,,,2017_Aug_23_1711,60.0133008093,MAFE4ImagesEEG,001,101255,
AFNE01.JPG,AFNE01.JPG,AFNE01.JPG,AFNE01.JPG,AFNE01.JPG,AFNE01.JPG,,,,,5,0,50,8,,,,,,,,,,,,,,,,,,,AFNE07.jpg,AFSA19.jpg,AFNE08.jpg,AFSA09.jpg,AFNE07.jpg,FN,3,num_8,16,num_8,1.18339222646,,,2017_Aug_23_1711,60.0133008093,MAFE4ImagesEEG,001,101255,
AFNE01.JPG,AFNE01.JPG,AFNE01.JPG,AFNE01.JPG,AFNE01.JPG,AFNE01.JPG,,,,,5,1,51,1,,,,,,,,,,,,,,,,,,,AFNE06.jpg,AFSA05.jpg,AFNE09.jpg,AFSA19.jpg,AFNE09.jpg,FN,3,num_2,16,num_2,1.10010093672,,,2017_Aug_23_1711,60.0133008093,MAFE4ImagesEEG,001,101255,
AFNE01.JPG,AFNE01.JPG,AFNE01.JPG,AFNE01.JPG,AFNE01.JPG,AFNE01.JPG,,,,,5,2,52,0,,,,,,,,,,,,,,,,,,,AFNE03.jpg,AFNE15.jpg,AFSA14.jpg,AFSA07.jpg,AFNE03.jpg,FN,3,num_8,16,num_8,0.883355309372,,,2017_Aug_23_1711,60.0133008093,MAFE4ImagesEEG,001,101255,
AFNE01.JPG,AFNE01.JPG,AFNE01.JPG,AFNE01.JPG,AFNE01.JPG,AFNE01.JPG,,,,,5,3,53,2,,,,,,,,,,,,,,,,,,,AFNE18.jpg,AFSA05.jpg,AFNE17.jpg,AFSA16.jpg,AFNE17.jpg,FN,3,num_2,16,num_2,1.61673209222,,,2017_Aug_23_1711,60.0133008093,MAFE4ImagesEEG,001,101255,
AFNE01.JPG,AFNE01.JPG,AFNE01.JPG,AFNE01.JPG,AFNE01.JPG,AFNE01.JPG,,,,,5,4,54,9,,,,,,,,,,,,,,,,,,,AFSA08.jpg,AFSA17.jpg,AFNE16.jpg,AFNE14.jpg,AFNE16.jpg,FN,3,num_2,16,num_2,1.11676208139,,,2017_Aug_23_1711,60.0133008093,MAFE4ImagesEEG,001,101255,
AFNE01.JPG,AFNE01.JPG,AFNE01.JPG,AFNE01.JPG,AFNE01.JPG,AFNE01.JPG,,,,,5,5,55,7,,,,,,,,,,,,,,,,,,,AFSA09.jpg,AFNE09.jpg,AFSA02.jpg,AFNE08.jpg,AFNE09.jpg,FN,3,num_6,16,num_6,0.683511060546,,,2017_Aug_23_1711,60.0133008093,MAFE4ImagesEEG,001,101255,
AFNE01.JPG,AFNE01.JPG,AFNE01.JPG,AFNE01.JPG,AFNE01.JPG,AFNE01.JPG,,,,,5,6,56,6,,,,,,,,,,,,,,,,,,,AFSA20.jpg,AFNE14.jpg,AFNE17.jpg,AFSA02.jpg,AFNE14.jpg,FN,3,num_6,16,num_6,0.916837006109,,,2017_Aug_23_1711,60.0133008093,MAFE4ImagesEEG,001,101255,
AFNE01.JPG,AFNE01.JPG,AFNE01.JPG,AFNE01.JPG,AFNE01.JPG,AFNE01.JPG,,,,,5,7,57,4,,,,,,,,,,,,,,,,,,,AFNE16.jpg,AFNE05.jpg,AFSA19.jpg,AFSA16.jpg,AFNE16.jpg,FN,3,num_8,32,num_4,1.08341958548,,,2017_Aug_23_1711,60.0133008093,MAFE4ImagesEEG,001,101255,
AFNE01.JPG,AFNE01.JPG,AFNE01.JPG,AFNE01.JPG,AFNE01.JPG,AFNE01.JPG,,,,,5,8,58,3,,,,,,,,,,,,,,,,,,,AFSA19.jpg,AFNE07.jpg,AFSA11.jpg,AFNE19.jpg,AFSA19.jpg,FS,4,num_8,16,num_8,0.81665684667,,,2017_Aug_23_1711,60.0133008093,MAFE4ImagesEEG,001,101255,
AFNE01.JPG,AFNE01.JPG,AFNE01.JPG,AFNE01.JPG,AFNE01.JPG,AFNE01.JPG,,,,,5,9,59,5,,,,,,,,,,,,,,,,,,,AFSA09.jpg,AFNE16.jpg,AFNE12.jpg,AFSA10.jpg,AFSA09.jpg,FS,4,num_8,32,num_2,1.58340146381,,,2017_Aug_23_1711,60.0133008093,MAFE4ImagesEEG,001,101255,
,,,,,,,,,,,,,,,,,,,,,,,,,,,,,,,,,,,,,,,,,,,space,75.4606765106,2017_Aug_23_1711,60.0133008093,MAFE4ImagesEEG,001,101255,
AFNE01.JPG,AFNE01.JPG,AFNE01.JPG,AFNE01.JPG,AFNE01.JPG,AFNE01.JPG,,,,,,,,,0,0,0,4,,,,,,,,,,,,,,,AMSA13.jpg,AMNE07.jpg,AMNE08.jpg,AMSA08.jpg,AMSA13.jpg,MS,2,num_8,16,num_8,0.983511413448,,,2017_Aug_23_1711,60.0133008093,MAFE4ImagesEEG,001,101255,
AFNE01.JPG,AFNE01.JPG,AFNE01.JPG,AFNE01.JPG,AFNE01.JPG,AFNE01.JPG,,,,,,,,,0,1,1,0,,,,,,,,,,,,,,,AMNE07.jpg,AMSA15.jpg,AMSA10.jpg,AMNE10.jpg,AMSA15.jpg,MS,2,num_6,16,num_6,0.633454498136,,,2017_Aug_23_1711,60.0133008093,MAFE4ImagesEEG,001,101255,
AFNE01.JPG,AFNE01.JPG,AFNE01.JPG,AFNE01.JPG,AFNE01.JPG,AFNE01.JPG,,,,,,,,,0,2,2,9,,,,,,,,,,,,,,,AMSA12.jpg,AMSA15.jpg,AMNE14.jpg,AMNE12.jpg,AMNE14.jpg,MN,1,num_2,16,num_2,0.833466814482,,,2017_Aug_23_1711,60.0133008093,MAFE4ImagesEEG,001,101255,
AFNE01.JPG,AFNE01.JPG,AFNE01.JPG,AFNE01.JPG,AFNE01.JPG,AFNE01.JPG,,,,,,,,,0,3,3,2,,,,,,,,,,,,,,,AMNE14.jpg,AMNE04.jpg,AMSA15.jpg,AMSA05.jpg,AMSA15.jpg,MS,2,num_2,32,num_4,0.533514251933,,,2017_Aug_23_1711,60.0133008093,MAFE4ImagesEEG,001,101255,
AFNE01.JPG,AFNE01.JPG,AFNE01.JPG,AFNE01.JPG,AFNE01.JPG,AFNE01.JPG,,,,,,,,,0,4,4,5,,,,,,,,,,,,,,,AMNE08.jpg,AMNE03.jpg,AMSA17.jpg,AMSA18.jpg,AMSA17.jpg,MS,2,num_2,16,num_2,0.700136282365,,,2017_Aug_23_1711,60.0133008093,MAFE4ImagesEEG,001,101255,
AFNE01.JPG,AFNE01.JPG,AFNE01.JPG,AFNE01.JPG,AFNE01.JPG,AFNE01.JPG,,,,,,,,,0,5,5,3,,,,,,,,,,,,,,,AMNE17.jpg,AMSA14.jpg,AMSA12.jpg,AMNE16.jpg,AMSA12.jpg,MS,2,num_2,16,num_2,0.833492794423,,,2017_Aug_23_1711,60.0133008093,MAFE4ImagesEEG,001,101255,
AFNE01.JPG,AFNE01.JPG,AFNE01.JPG,AFNE01.JPG,AFNE01.JPG,AFNE01.JPG,,,,,,,,,0,6,6,6,,,,,,,,,,,,,,,AMNE18.jpg,AMSA13.jpg,AMSA09.jpg,AMNE19.jpg,AMSA09.jpg,MS,2,num_2,32,num_6,0.900214029592,,,2017_Aug_23_1711,60.0133008093,MAFE4ImagesEEG,001,101255,
AFNE01.JPG,AFNE01.JPG,AFNE01.JPG,AFNE01.JPG,AFNE01.JPG,AFNE01.JPG,,,,,,,,,0,7,7,8,,,,,,,,,,,,,,,AMNE10.jpg,AMSA05.jpg,AMSA10.jpg,AMNE12.jpg,AMNE10.jpg,MN,1,num_8,16,num_8,0.766913326224,,,2017_Aug_23_1711,60.0133008093,MAFE4ImagesEEG,001,101255,
AFNE01.JPG,AFNE01.JPG,AFNE01.JPG,AFNE01.JPG,AFNE01.JPG,AFNE01.JPG,,,,,,,,,0,8,8,1,,,,,,,,,,,,,,,AMNE04.jpg,AMSA19.jpg,AMSA15.jpg,AMNE16.jpg,AMNE04.jpg,MN,1,num_8,32,num_4,0.833457513014,,,2017_Aug_23_1711,60.0133008093,MAFE4ImagesEEG,001,101255,
AFNE01.JPG,AFNE01.JPG,AFNE01.JPG,AFNE01.JPG,AFNE01.JPG,AFNE01.JPG,,,,,,,,,0,9,9,7,,,,,,,,,,,,,,,AMSA06.jpg,AMNE03.jpg,AMNE18.jpg,AMSA13.jpg,AMSA13.jpg,MS,2,num_4,32,num_8,0.983458170551,,,2017_Aug_23_1711,60.0133008093,MAFE4ImagesEEG,001,101255,
AFNE01.JPG,AFNE01.JPG,AFNE01.JPG,AFNE01.JPG,AFNE01.JPG,AFNE01.JPG,,,,,,,,,1,0,10,8,,,,,,,,,,,,,,,AMNE16.jpg,AMSA02.jpg,AMNE11.jpg,AMSA18.jpg,AMNE16.jpg,MN,1,num_8,16,num_8,0.683489570976,,,2017_Aug_23_1711,60.0133008093,MAFE4ImagesEEG,001,101255,
AFNE01.JPG,AFNE01.JPG,AFNE01.JPG,AFNE01.JPG,AFNE01.JPG,AFNE01.JPG,,,,,,,,,1,1,11,1,,,,,,,,,,,,,,,AMNE12.jpg,AMNE10.jpg,AMSA04.jpg,AMSA20.jpg,AMNE10.jpg,MN,1,num_6,16,num_6,0.766647433047,,,2017_Aug_23_1711,60.0133008093,MAFE4ImagesEEG,001,101255,
AFNE01.JPG,AFNE01.JPG,AFNE01.JPG,AFNE01.JPG,AFNE01.JPG,AFNE01.JPG,,,,,,,,,1,2,12,9,,,,,,,,,,,,,,,AMSA18.jpg,AMNE05.jpg,AMSA01.jpg,AMNE01.jpg,AMSA18.jpg,MS,2,num_8,16,num_8,1.08347860165,,,2017_Aug_23_1711,60.0133008093,MAFE4ImagesEEG,001,101255,
AFNE01.JPG,AFNE01.JPG,AFNE01.JPG,AFNE01.JPG,AFNE01.JPG,AFNE01.JPG,,,,,,,,,1,3,13,5,,,,,,,,,,,,,,,AMSA12.jpg,AMNE04.jpg,AMNE01.jpg,AMSA06.jpg,AMSA06.jpg,MS,2,num_4,32,num_6,1.26672328787,,,2017_Aug_23_1711,60.0133008093,MAFE4ImagesEEG,001,101255,
AFNE01.JPG,AFNE01.JPG,AFNE01.JPG,AFNE01.JPG,AFNE01.JPG,AFNE01.JPG,,,,,,,,,1,4,14,7,,,,,,,,,,,,,,,AMSA01.jpg,AMNE05.jpg,AMSA16.jpg,AMNE04.jpg,AMSA01.jpg,MS,2,num_8,32,num_4,1.11668702832,,,2017_Aug_23_1711,60.0133008093,MAFE4ImagesEEG,001,101255,
AFNE01.JPG,AFNE01.JPG,AFNE01.JPG,AFNE01.JPG,AFNE01.JPG,AFNE01.JPG,,,,,,,,,1,5,15,3,,,,,,,,,,,,,,,AMNE13.jpg,AMSA13.jpg,AMNE03.jpg,AMSA03.jpg,AMNE03.jpg,MN,1,num_2,32,num_8,0.700099076494,,,2017_Aug_23_1711,60.0133008093,MAFE4ImagesEEG,001,101255,
AFNE01.JPG,AFNE01.JPG,AFNE01.JPG,AFNE01.JPG,AFNE01.JPG,AFNE01.JPG,,,,,,,,,1,6,16,0,,,,,,,,,,,,,,,AMNE12.jpg,AMNE02.jpg,AMSA02.jpg,AMSA17.jpg,AMSA17.jpg,MS,2,num_4,32,num_8,0.699772884254,,,2017_Aug_23_1711,60.0133008093,MAFE4ImagesEEG,001,101255,
AFNE01.JPG,AFNE01.JPG,AFNE01.JPG,AFNE01.JPG,AFNE01.JPG,AFNE01.JPG,,,,,,,,,1,7,17,4,,,,,,,,,,,,,,,AMSA20.jpg,AMNE07.jpg,AMSA18.jpg,AMNE13.jpg,AMSA20.jpg,MS,2,num_8,32,num_6,1.3000879148,,,2017_Aug_23_1711,60.0133008093,MAFE4ImagesEEG,001,101255,
AFNE01.JPG,AFNE01.JPG,AFNE01.JPG,AFNE01.JPG,AFNE01.JPG,AFNE01.JPG,,,,,,,,,1,8,18,6,,,,,,,,,,,,,,,AMNE10.jpg,AMSA16.jpg,AMSA19.jpg,AMNE14.jpg,AMSA16.jpg,MS,2,num_6,16,num_6,0.650167281739,,,2017_Aug_23_1711,60.0133008093,MAFE4ImagesEEG,001,101255,
AFNE01.JPG,AFNE01.JPG,AFNE01.JPG,AFNE01.JPG,AFNE01.JPG,AFNE01.JPG,,,,,,,,,1,9,19,2,,,,,,,,,,,,,,,AMNE06.jpg,AMNE14.jpg,AMSA18.jpg,AMSA13.jpg,AMSA13.jpg,MS,2,num_4,32,num_2,1.11674540292,,,2017_Aug_23_1711,60.0133008093,MAFE4ImagesEEG,001,101255,
AFNE01.JPG,AFNE01.JPG,AFNE01.JPG,AFNE01.JPG,AFNE01.JPG,AFNE01.JPG,,,,,,,,,2,0,20,9,,,,,,,,,,,,,,,AMSA14.jpg,AMSA17.jpg,AMNE04.jpg,AMNE05.jpg,AMSA17.jpg,MS,2,num_6,32,num_8,0.66691470542,,,2017_Aug_23_1711,60.0133008093,MAFE4ImagesEEG,001,101255,
AFNE01.JPG,AFNE01.JPG,AFNE01.JPG,AFNE01.JPG,AFNE01.JPG,AFNE01.JPG,,,,,,,,,2,1,21,2,,,,,,,,,,,,,,,AMNE18.jpg,AMSA05.jpg,AMNE01.jpg,AMSA14.jpg,AMSA05.jpg,MS,2,num_6,16,num_6,0.616792391287,,,2017_Aug_23_1711,60.0133008093,MAFE4ImagesEEG,001,101255,
AFNE01.JPG,AFNE01.JPG,AFNE01.JPG,AFNE01.JPG,AFNE01.JPG,AFNE01.JPG,,,,,,,,,2,2,22,5,,,,,,,,,,,,,,,AMSA02.jpg,AMSA01.jpg,AMNE11.jpg,AMNE04.jpg,AMNE11.jpg,MN,1,num_2,32,num_4,0.850208144053,,,2017_Aug_23_1711,60.0133008093,MAFE4ImagesEEG,001,101255,
AFNE01.JPG,AFNE01.JPG,AFNE01.JPG,AFNE01.JPG,AFNE01.JPG,AFNE01.JPG,,,,,,,,,2,3,23,3,,,,,,,,,,,,,,,AMSA08.jpg,AMNE18.jpg,AMSA16.jpg,AMNE01.jpg,AMSA08.jpg,MS,2,num_8,16,num_8,0.816813046928,,,2017_Aug_23_1711,60.0133008093,MAFE4ImagesEEG,001,101255,
AFNE01.JPG,AFNE01.JPG,AFNE01.JPG,AFNE01.JPG,AFNE01.JPG,AFNE01.JPG,,,,,,,,,2,4,24,1,,,,,,,,,,,,,,,AMNE07.jpg,AMNE04.jpg,AMSA02.jpg,AMSA08.jpg,AMNE07.jpg,MN,1,num_8,16,num_8,0.716922515421,,,2017_Aug_23_1711,60.0133008093,MAFE4ImagesEEG,001,101255,
AFNE01.JPG,AFNE01.JPG,AFNE01.JPG,AFNE01.JPG,AFNE01.JPG,AFNE01.JPG,,,,,,,,,2,5,25,6,,,,,,,,,,,,,,,AMNE20.jpg,AMNE09.jpg,AMSA17.jpg,AMSA20.jpg,AMNE09.jpg,MN,1,num_6,16,num_6,0.733456647024,,,2017_Aug_23_1711,60.0133008093,MAFE4ImagesEEG,001,101255,
AFNE01.JPG,AFNE01.JPG,AFNE01.JPG,AFNE01.JPG,AFNE01.JPG,AFNE01.JPG,,,,,,,,,2,6,26,0,,,,,,,,,,,,,,,AMNE06.jpg,AMNE04.jpg,AMSA09.jpg,AMSA20.jpg,AMNE06.jpg,MN,1,num_8,16,num_8,0.650166319567,,,2017_Aug_23_1711,60.0133008093,MAFE4ImagesEEG,001,101255,
AFNE01.JPG,AFNE01.JPG,AFNE01.JPG,AFNE01.JPG,AFNE01.JPG,AFNE01.JPG,,,,,,,,,2,7,27,4,,,,,,,,,,,,,,,AMNE20.jpg,AMSA14.jpg,AMNE13.jpg,AMSA16.jpg,AMNE20.jpg,MN,1,num_8,32,num_2,0.90013224096,,,2017_Aug_23_1711,60.0133008093,MAFE4ImagesEEG,001,101255,
AFNE01.JPG,AFNE01.JPG,AFNE01.JPG,AFNE01.JPG,AFNE01.JPG,AFNE01.JPG,,,,,,,,,2,8,28,7,,,,,,,,,,,,,,,AMSA14.jpg,AMSA15.jpg,AMNE14.jpg,AMNE03.jpg,AMSA14.jpg,MS,2,num_8,16,num_8,0.666773259174,,,2017_Aug_23_1711,60.0133008093,MAFE4ImagesEEG,001,101255,
AFNE01.JPG,AFNE01.JPG,AFNE01.JPG,AFNE01.JPG,AFNE01.JPG,AFNE01.JPG,,,,,,,,,2,9,29,8,,,,,,,,,,,,,,,AMSA12.jpg,AMNE07.jpg,AMSA14.jpg,AMNE17.jpg,AMSA12.jpg,MS,2,num_8,16,num_8,0.766819349374,,,2017_Aug_23_1711,60.0133008093,MAFE4ImagesEEG,001,101255,
AFNE01.JPG,AFNE01.JPG,AFNE01.JPG,AFNE01.JPG,AFNE01.JPG,AFNE01.JPG,,,,,,,,,3,0,30,2,,,,,,,,,,,,,,,AMSA08.jpg,AMNE13.jpg,AMSA02.jpg,AMNE10.jpg,AMSA08.jpg,MS,2,num_8,16,num_8,0.616768015083,,,2017_Aug_23_1711,60.0133008093,MAFE4ImagesEEG,001,101255,
AFNE01.JPG,AFNE01.JPG,AFNE01.JPG,AFNE01.JPG,AFNE01.JPG,AFNE01.JPG,,,,,,,,,3,1,31,4,,,,,,,,,,,,,,,AMNE16.jpg,AMSA19.jpg,AMNE06.jpg,AMSA07.jpg,AMNE06.jpg,MN,1,num_2,32,num_8,0.75014441309,,,2017_Aug_23_1711,60.0133008093,MAFE4ImagesEEG,001,101255,
AFNE01.JPG,AFNE01.JPG,AFNE01.JPG,AFNE01.JPG,AFNE01.JPG,AFNE01.JPG,,,,,,,,,3,2,32,3,,,,,,,,,,,,,,,AMSA15.jpg,AMSA11.jpg,AMNE10.jpg,AMNE05.jpg,AMNE10.jpg,MN,1,num_2,32,num_8,0.700027230778,,,2017_Aug_23_1711,60.0133008093,MAFE4ImagesEEG,001,101255,
AFNE01.JPG,AFNE01.JPG,AFNE01.JPG,AFNE01.JPG,AFNE01.JPG,AFNE01.JPG,,,,,,,,,3,3,33,5,,,,,,,,,,,,,,,AMNE03.jpg,AMNE14.jpg,AMSA19.jpg,AMSA16.jpg,AMNE14.jpg,MN,1,num_6,16,num_6,0.816856025951,,,2017_Aug_23_1711,60.0133008093,MAFE4ImagesEEG,001,101255,
AFNE01.JPG,AFNE01.JPG,AFNE01.JPG,AFNE01.JPG,AFNE01.JPG,AFNE01.JPG,,,,,,,,,3,4,34,1,,,,,,,,,,,,,,,AMSA06.jpg,AMNE01.jpg,AMSA03.jpg,AMNE17.jpg,AMNE01.jpg,MN,1,num_6,32,num_8,0.700127301505,,,2017_Aug_23_1711,60.0133008093,MAFE4ImagesEEG,001,101255,
AFNE01.JPG,AFNE01.JPG,AFNE01.JPG,AFNE01.JPG,AFNE01.JPG,AFNE01.JPG,,,,,,,,,3,5,35,6,,,,,,,,,,,,,,,AMNE15.jpg,AMNE06.jpg,AMSA09.jpg,AMSA08.jpg,AMNE15.jpg,MN,1,num_8,32,num_6,0.883539413917,,,2017_Aug_23_1711,60.0133008093,MAFE4ImagesEEG,001,101255,
AFNE01.JPG,AFNE01.JPG,AFNE01.JPG,AFNE01.JPG,AFNE01.JPG,AFNE01.JPG,,,,,,,,,3,6,36,9,,,,,,,,,,,,,,,AMSA05.jpg,AMNE19.jpg,AMSA10.jpg,AMNE08.jpg,AMSA10.jpg,MS,2,num_2,16,num_2,1.55005864729,,,2017_Aug_23_1711,60.0133008093,MAFE4ImagesEEG,001,101255,
AFNE01.JPG,AFNE01.JPG,AFNE01.JPG,AFNE01.JPG,AFNE01.JPG,AFNE01.JPG,,,,,,,,,3,7,37,7,,,,,,,,,,,,,,,AMSA12.jpg,AMNE19.jpg,AMSA02.jpg,AMNE01.jpg,AMNE01.jpg,MN,1,num_4,32,num_6,0.616621437133,,,2017_Aug_23_1711,60.0133008093,MAFE4ImagesEEG,001,101255,
AFNE01.JPG,AFNE01.JPG,AFNE01.JPG,AFNE01.JPG,AFNE01.JPG,AFNE01.JPG,,,,,,,,,3,8,38,0,,,,,,,,,,,,,,,AMSA14.jpg,AMSA09.jpg,AMNE07.jpg,AMNE19.jpg,AMNE07.jpg,MN,1,num_2,32,num_6,0.633459309232,,,2017_Aug_23_1711,60.0133008093,MAFE4ImagesEEG,001,101255,
AFNE01.JPG,AFNE01.JPG,AFNE01.JPG,AFNE01.JPG,AFNE01.JPG,AFNE01.JPG,,,,,,,,,3,9,39,8,,,,,,,,,,,,,,,AMNE09.jpg,AMSA15.jpg,AMNE02.jpg,AMSA16.jpg,AMSA16.jpg,MS,2,num_4,32,num_8,0.866791990353,,,2017_Aug_23_1711,60.0133008093,MAFE4ImagesEEG,001,101255,
AFNE01.JPG,AFNE01.JPG,AFNE01.JPG,AFNE01.JPG,AFNE01.JPG,AFNE01.JPG,,,,,,,,,4,0,40,2,,,,,,,,,,,,,,,AMSA06.jpg,AMNE16.jpg,AMNE06.jpg,AMSA19.jpg,AMNE16.jpg,MN,1,num_6,16,num_6,0.58346753614,,,2017_Aug_23_1711,60.0133008093,MAFE4ImagesEEG,001,101255,
AFNE01.JPG,AFNE01.JPG,AFNE01.JPG,AFNE01.JPG,AFNE01.JPG,AFNE01.JPG,,,,,,,,,4,1,41,7,,,,,,,,,,,,,,,AMSA16.jpg,AMSA14.jpg,AMNE16.jpg,AMNE11.jpg,AMSA14.jpg,MS,2,num_6,16,num_6,0.666778390994,,,2017_Aug_23_1711,60.0133008093,MAFE4ImagesEEG,001,101255,
AFNE01.JPG,AFNE01.JPG,AFNE01.JPG,AFNE01.JPG,AFNE01.JPG,AFNE01.JPG,,,,,,,,,4,2,42,5,,,,,,,,,,,,,,,AMNE08.jpg,AMNE03.jpg,AMSA01.jpg,AMSA17.jpg,AMNE03.jpg,MN,1,num_6,16,num_6,0.566759242793,,,2017_Aug_23_1711,60.0133008093,MAFE4ImagesEEG,001,101255,
AFNE01.JPG,AFNE01.JPG,AFNE01.JPG,AFNE01.JPG,AFNE01.JPG,AFNE01.JPG,,,,,,,,,4,3,43,9,,,,,,,,,,,,,,,AMSA19.jpg,AMSA02.jpg,AMNE20.jpg,AMNE15.jpg,AMSA19.jpg,MS,2,num_8,32,num_6,1.13300305698,,,2017_Aug_23_1711,60.0133008093,MAFE4ImagesEEG,001,101255,
AFNE01.JPG,AFNE01.JPG,AFNE01.JPG,AFNE01.JPG,AFNE01.JPG,AFNE01.JPG,,,,,,,,,4,4,44,0,,,,,,,,,,,,,,,AMNE06.jpg,AMSA12.jpg,AMSA09.jpg,AMNE07.jpg,AMSA12.jpg,MS,2,num_6,16,num_6,0.733435478178,,,2017_Aug_23_1711,60.0133008093,MAFE4ImagesEEG,001,101255,
AFNE01.JPG,AFNE01.JPG,AFNE01.JPG,AFNE01.JPG,AFNE01.JPG,AFNE01.JPG,,,,,,,,,4,5,45,4,,,,,,,,,,,,,,,AMNE07.jpg,AMNE15.jpg,AMSA13.jpg,AMSA10.jpg,AMNE07.jpg,MN,1,num_8,32,num_6,0.866812838474,,,2017_Aug_23_1711,60.0133008093,MAFE4ImagesEEG,001,101255,
AFNE01.JPG,AFNE01.JPG,AFNE01.JPG,AFNE01.JPG,AFNE01.JPG,AFNE01.JPG,,,,,,,,,4,6,46,3,,,,,,,,,,,,,,,AMNE02.jpg,AMSA02.jpg,AMSA20.jpg,AMNE20.jpg,AMSA02.jpg,MS,2,num_6,16,num_6,0.583442518371,,,2017_Aug_23_1711,60.0133008093,MAFE4ImagesEEG,001,101255,
AFNE01.JPG,AFNE01.JPG,AFNE01.JPG,AFNE01.JPG,AFNE01.JPG,AFNE01.JPG,,,,,,,,,4,7,47,8,,,,,,,,,,,,,,,AMNE18.jpg,AMSA18.jpg,AMSA01.jpg,AMNE04.jpg,AMNE18.jpg,MN,1,num_8,16,num_8,1.16677406104,,,2017_Aug_23_1711,60.0133008093,MAFE4ImagesEEG,001,101255,
AFNE01.JPG,AFNE01.JPG,AFNE01.JPG,AFNE01.JPG,AFNE01.JPG,AFNE01.JPG,,,,,,,,,4,8,48,1,,,,,,,,,,,,,,,AMSA11.jpg,AMNE15.jpg,AMSA12.jpg,AMNE12.jpg,AMSA12.jpg,MS,2,num_2,32,num_8,0.700126980897,,,2017_Aug_23_1711,60.0133008093,MAFE4ImagesEEG,001,101255,
AFNE01.JPG,AFNE01.JPG,AFNE01.JPG,AFNE01.JPG,AFNE01.JPG,AFNE01.JPG,,,,,,,,,4,9,49,6,,,,,,,,,,,,,,,AMSA12.jpg,AMNE08.jpg,AMSA14.jpg,AMNE07.jpg,AMSA12.jpg,MS,2,num_8,32,num_2,3.38329003879,,,2017_Aug_23_1711,60.0133008093,MAFE4ImagesEEG,001,101255,
AFNE01.JPG,AFNE01.JPG,AFNE01.JPG,AFNE01.JPG,AFNE01.JPG,AFNE01.JPG,,,,,,,,,5,0,50,2,,,,,,,,,,,,,,,AMNE06.jpg,AMSA08.jpg,AMSA15.jpg,AMNE09.jpg,AMSA08.jpg,MS,2,num_6,16,num_6,0.866810593172,,,2017_Aug_23_1711,60.0133008093,MAFE4ImagesEEG,001,101255,
AFNE01.JPG,AFNE01.JPG,AFNE01.JPG,AFNE01.JPG,AFNE01.JPG,AFNE01.JPG,,,,,,,,,5,1,51,4,,,,,,,,,,,,,,,AMSA06.jpg,AMSA08.jpg,AMNE02.jpg,AMNE14.jpg,AMSA08.jpg,MS,2,num_6,32,num_8,0.700171884382,,,2017_Aug_23_1711,60.0133008093,MAFE4ImagesEEG,001,101255,
AFNE01.JPG,AFNE01.JPG,AFNE01.JPG,AFNE01.JPG,AFNE01.JPG,AFNE01.JPG,,,,,,,,,5,2,52,6,,,,,,,,,,,,,,,AMNE16.jpg,AMSA11.jpg,AMNE03.jpg,AMSA09.jpg,AMNE03.jpg,MN,1,num_2,16,num_2,0.716784276534,,,2017_Aug_23_1711,60.0133008093,MAFE4ImagesEEG,001,101255,
AFNE01.JPG,AFNE01.JPG,AFNE01.JPG,AFNE01.JPG,AFNE01.JPG,AFNE01.JPG,,,,,,,,,5,3,53,8,,,,,,,,,,,,,,,AMNE10.jpg,AMSA17.jpg,AMNE19.jpg,AMSA04.jpg,AMNE19.jpg,MN,1,num_2,16,num_2,0.850151693914,,,2017_Aug_23_1711,60.0133008093,MAFE4ImagesEEG,001,101255,
AFNE01.JPG,AFNE01.JPG,AFNE01.JPG,AFNE01.JPG,AFNE01.JPG,AFNE01.JPG,,,,,,,,,5,4,54,0,,,,,,,,,,,,,,,AMNE07.jpg,AMSA08.jpg,AMNE06.jpg,AMSA05.jpg,AMSA08.jpg,MS,2,num_6,32,num_8,0.983444057987,,,2017_Aug_23_1711,60.0133008093,MAFE4ImagesEEG,001,101255,
AFNE01.JPG,AFNE01.JPG,AFNE01.JPG,AFNE01.JPG,AFNE01.JPG,AFNE01.JPG,,,,,,,,,5,5,55,7,,,,,,,,,,,,,,,AMNE20.jpg,AMNE10.jpg,AMSA18.jpg,AMSA04.jpg,AMNE10.jpg,MN,1,num_6,16,num_6,0.966762386146,,,2017_Aug_23_1711,60.0133008093,MAFE4ImagesEEG,001,101255,
AFNE01.JPG,AFNE01.JPG,AFNE01.JPG,AFNE01.JPG,AFNE01.JPG,AFNE01.JPG,,,,,,,,,5,6,56,5,,,,,,,,,,,,,,,AMSA17.jpg,AMNE19.jpg,AMNE12.jpg,AMSA01.jpg,AMSA01.jpg,MS,2,num_4,16,num_4,0.833532245364,,,2017_Aug_23_1711,60.0133008093,MAFE4ImagesEEG,001,101255,
AFNE01.JPG,AFNE01.JPG,AFNE01.JPG,AFNE01.JPG,AFNE01.JPG,AFNE01.JPG,,,,,,,,,5,7,57,9,,,,,,,,,,,,,,,AMSA15.jpg,AMNE04.jpg,AMNE16.jpg,AMSA06.jpg,AMSA06.jpg,MS,2,num_4,32,num_8,0.850160032976,,,2017_Aug_23_1711,60.0133008093,MAFE4ImagesEEG,001,101255,
AFNE01.JPG,AFNE01.JPG,AFNE01.JPG,AFNE01.JPG,AFNE01.JPG,AFNE01.JPG,,,,,,,,,5,8,58,3,,,,,,,,,,,,,,,AMNE06.jpg,AMSA10.jpg,AMSA14.jpg,AMNE01.jpg,AMNE01.jpg,MN,1,num_4,16,num_4,0.61681484303,,,2017_Aug_23_1711,60.0133008093,MAFE4ImagesEEG,001,101255,
AFNE01.JPG,AFNE01.JPG,AFNE01.JPG,AFNE01.JPG,AFNE01.JPG,AFNE01.JPG,,,,,,,,,5,9,59,1,,,,,,,,,,,,,,,AMNE13.jpg,AMNE17.jpg,AMSA02.jpg,AMSA13.jpg,AMSA13.jpg,MS,2,num_4,16,num_4,0.88343677728,,,2017_Aug_23_1711,60.0133008093,MAFE4ImagesEEG,001,101255,
,,,,,,,,,,,,,,,,,,,,,,,,,,,,,,,,,,,,,,,,,,,space,55.2461407797,2017_Aug_23_1711,60.0133008093,MAFE4ImagesEEG,001,101255,
AFNE01.JPG,AFNE01.JPG,AFNE01.JPG,AFNE01.JPG,AFNE01.JPG,AFNE01.JPG,,,,,,,,,,,,,0,0,0,2,,,,,,,,,,,AFSA12.jpg,AFNE15.jpg,AFSA11.jpg,AFNE17.jpg,AFNE15.jpg,FN,3,num_6,16,num_6,0.900157900178,,,2017_Aug_23_1711,60.0133008093,MAFE4ImagesEEG,001,101255,
AFNE01.JPG,AFNE01.JPG,AFNE01.JPG,AFNE01.JPG,AFNE01.JPG,AFNE01.JPG,,,,,,,,,,,,,0,1,1,4,,,,,,,,,,,AFSA09.jpg,AFNE04.jpg,AFNE03.jpg,AFSA15.jpg,AFNE04.jpg,FN,3,num_6,16,num_6,0.666789296083,,,2017_Aug_23_1711,60.0133008093,MAFE4ImagesEEG,001,101255,
AFNE01.JPG,AFNE01.JPG,AFNE01.JPG,AFNE01.JPG,AFNE01.JPG,AFNE01.JPG,,,,,,,,,,,,,0,2,2,5,,,,,,,,,,,AFNE16.jpg,AFNE07.jpg,AFSA12.jpg,AFSA11.jpg,AFSA12.jpg,FS,4,num_2,32,num_8,0.933446832467,,,2017_Aug_23_1711,60.0133008093,MAFE4ImagesEEG,001,101255,
AFNE01.JPG,AFNE01.JPG,AFNE01.JPG,AFNE01.JPG,AFNE01.JPG,AFNE01.JPG,,,,,,,,,,,,,0,3,3,3,,,,,,,,,,,AFSA06.jpg,AFNE07.jpg,AFNE06.jpg,AFSA10.jpg,AFNE07.jpg,FN,3,num_6,16,num_6,0.683489570976,,,2017_Aug_23_1711,60.0133008093,MAFE4ImagesEEG,001,101255,
AFNE01.JPG,AFNE01.JPG,AFNE01.JPG,AFNE01.JPG,AFNE01.JPG,AFNE01.JPG,,,,,,,,,,,,,0,4,4,0,,,,,,,,,,,AFNE15.jpg,AFSA08.jpg,AFSA11.jpg,AFNE06.jpg,AFNE15.jpg,FN,3,num_8,16,num_8,0.68348219397,,,2017_Aug_23_1711,60.0133008093,MAFE4ImagesEEG,001,101255,
AFNE01.JPG,AFNE01.JPG,AFNE01.JPG,AFNE01.JPG,AFNE01.JPG,AFNE01.JPG,,,,,,,,,,,,,0,5,5,1,,,,,,,,,,,AFNE11.jpg,AFNE19.jpg,AFSA15.jpg,AFSA04.jpg,AFSA04.jpg,FS,4,num_4,16,num_4,0.750103999861,,,2017_Aug_23_1711,60.0133008093,MAFE4ImagesEEG,001,101255,
AFNE01.JPG,AFNE01.JPG,AFNE01.JPG,AFNE01.JPG,AFNE01.JPG,AFNE01.JPG,,,,,,,,,,,,,0,6,6,9,,,,,,,,,,,AFSA11.jpg,AFSA01.jpg,AFNE17.jpg,AFNE16.jpg,AFNE17.jpg,FN,3,num_2,32,num_8,0.666829388589,,,2017_Aug_23_1711,60.0133008093,MAFE4ImagesEEG,001,101255,
AFNE01.JPG,AFNE01.JPG,AFNE01.JPG,AFNE01.JPG,AFNE01.JPG,AFNE01.JPG,,,,,,,,,,,,,0,7,7,6,,,,,,,,,,,AFSA09.jpg,AFNE04.jpg,AFSA08.jpg,AFNE14.jpg,AFNE04.jpg,FN,3,num_6,16,num_6,0.600455835229,,,2017_Aug_23_1711,60.0133008093,MAFE4ImagesEEG,001,101255,
AFNE01.JPG,AFNE01.JPG,AFNE01.JPG,AFNE01.JPG,AFNE01.JPG,AFNE01.JPG,,,,,,,,,,,,,0,8,8,8,,,,,,,,,,,AFSA07.jpg,AFNE13.jpg,AFNE15.jpg,AFSA06.jpg,AFSA07.jpg,FS,4,num_8,16,num_8,1.26677877596,,,2017_Aug_23_1711,60.0133008093,MAFE4ImagesEEG,001,101255,
AFNE01.JPG,AFNE01.JPG,AFNE01.JPG,AFNE01.JPG,AFNE01.JPG,AFNE01.JPG,,,,,,,,,,,,,0,9,9,7,,,,,,,,,,,AFNE10.jpg,AFNE13.jpg,AFSA06.jpg,AFSA19.jpg,AFSA19.jpg,FS,4,num_4,16,num_4,0.883432928356,,,2017_Aug_23_1711,60.0133008093,MAFE4ImagesEEG,001,101255,
AFNE01.JPG,AFNE01.JPG,AFNE01.JPG,AFNE01.JPG,AFNE01.JPG,AFNE01.JPG,,,,,,,,,,,,,1,0,10,1,,,,,,,,,,,AFNE09.jpg,AFSA16.jpg,AFNE12.jpg,AFSA11.jpg,AFSA11.jpg,FS,4,num_4,32,num_6,0.883445116458,,,2017_Aug_23_1711,60.0133008093,MAFE4ImagesEEG,001,101255,
AFNE01.JPG,AFNE01.JPG,AFNE01.JPG,AFNE01.JPG,AFNE01.JPG,AFNE01.JPG,,,,,,,,,,,,,1,1,11,6,,,,,,,,,,,AFNE20.jpg,AFSA13.jpg,AFSA20.jpg,AFNE08.jpg,AFNE20.jpg,FN,3,num_8,16,num_8,1.03343390662,,,2017_Aug_23_1711,60.0133008093,MAFE4ImagesEEG,001,101255,
AFNE01.JPG,AFNE01.JPG,AFNE01.JPG,AFNE01.JPG,AFNE01.JPG,AFNE01.JPG,,,,,,,,,,,,,1,2,12,9,,,,,,,,,,,AFSA14.jpg,AFSA04.jpg,AFNE17.jpg,AFNE05.jpg,AFNE05.jpg,FN,3,num_4,16,num_4,0.717024831334,,,2017_Aug_23_1711,60.0133008093,MAFE4ImagesEEG,001,101255,
AFNE01.JPG,AFNE01.JPG,AFNE01.JPG,AFNE01.JPG,AFNE01.JPG,AFNE01.JPG,,,,,,,,,,,,,1,3,13,0,,,,,,,,,,,AFNE02.jpg,AFSA06.jpg,AFSA16.jpg,AFNE10.jpg,AFNE10.jpg,FN,3,num_4,32,num_8,0.616765449173,,,2017_Aug_23_1711,60.0133008093,MAFE4ImagesEEG,001,101255,
AFNE01.JPG,AFNE01.JPG,AFNE01.JPG,AFNE01.JPG,AFNE01.JPG,AFNE01.JPG,,,,,,,,,,,,,1,4,14,7,,,,,,,,,,,AFSA07.jpg,AFNE17.jpg,AFNE02.jpg,AFSA02.jpg,AFNE02.jpg,FN,3,num_2,16,num_2,0.916838289122,,,2017_Aug_23_1711,60.0133008093,MAFE4ImagesEEG,001,101255,
AFNE01.JPG,AFNE01.JPG,AFNE01.JPG,AFNE01.JPG,AFNE01.JPG,AFNE01.JPG,,,,,,,,,,,,,1,5,15,2,,,,,,,,,,,AFNE15.jpg,AFSA14.jpg,AFSA04.jpg,AFNE07.jpg,AFNE07.jpg,FN,3,num_4,32,num_8,0.750204391428,,,2017_Aug_23_1711,60.0133008093,MAFE4ImagesEEG,001,101255,
AFNE01.JPG,AFNE01.JPG,AFNE01.JPG,AFNE01.JPG,AFNE01.JPG,AFNE01.JPG,,,,,,,,,,,,,1,6,16,3,,,,,,,,,,,AFNE06.jpg,AFNE14.jpg,AFSA04.jpg,AFSA19.jpg,AFSA19.jpg,FS,4,num_4,16,num_4,0.750179694383,,,2017_Aug_23_1711,60.0133008093,MAFE4ImagesEEG,001,101255,
AFNE01.JPG,AFNE01.JPG,AFNE01.JPG,AFNE01.JPG,AFNE01.JPG,AFNE01.JPG,,,,,,,,,,,,,1,7,17,4,,,,,,,,,,,AFSA08.jpg,AFNE12.jpg,AFNE18.jpg,AFSA18.jpg,AFNE12.jpg,FN,3,num_6,16,num_6,0.616753902519,,,2017_Aug_23_1711,60.0133008093,MAFE4ImagesEEG,001,101255,
AFNE01.JPG,AFNE01.JPG,AFNE01.JPG,AFNE01.JPG,AFNE01.JPG,AFNE01.JPG,,,,,,,,,,,,,1,8,18,5,,,,,,,,,,,AFNE13.jpg,AFSA13.jpg,AFNE07.jpg,AFSA09.jpg,AFNE13.jpg,FN,3,num_8,16,num_8,0.666779353167,,,2017_Aug_23_1711,60.0133008093,MAFE4ImagesEEG,001,101255,
AFNE01.JPG,AFNE01.JPG,AFNE01.JPG,AFNE01.JPG,AFNE01.JPG,AFNE01.JPG,,,,,,,,,,,,,1,9,19,8,,,,,,,,,,,AFSA04.jpg,AFSA19.jpg,AFNE14.jpg,AFNE02.jpg,AFNE02.jpg,FN,3,num_4,16,num_4,0.917048373609,,,2017_Aug_23_1711,60.0133008093,MAFE4ImagesEEG,001,101255,
AFNE01.JPG,AFNE01.JPG,AFNE01.JPG,AFNE01.JPG,AFNE01.JPG,AFNE01.JPG,,,,,,,,,,,,,2,0,20,6,,,,,,,,,,,AFSA01.jpg,AFSA18.jpg,AFNE03.jpg,AFNE01.jpg,AFSA01.jpg,FS,4,num_8,32,num_6,0.800116620958,,,2017_Aug_23_1711,60.0133008093,MAFE4ImagesEEG,001,101255,
AFNE01.JPG,AFNE01.JPG,AFNE01.JPG,AFNE01.JPG,AFNE01.JPG,AFNE01.JPG,,,,,,,,,,,,,2,1,21,9,,,,,,,,,,,AFNE14.jpg,AFNE07.jpg,AFSA01.jpg,AFSA08.jpg,AFNE07.jpg,FN,3,num_6,32,num_8,0.683514588629,,,2017_Aug_23_1711,60.0133008093,MAFE4ImagesEEG,001,101255,
AFNE01.JPG,AFNE01.JPG,AFNE01.JPG,AFNE01.JPG,AFNE01.JPG,AFNE01.JPG,,,,,,,,,,,,,2,2,22,5,,,,,,,,,,,AFNE05.jpg,AFSA13.jpg,AFNE10.jpg,AFSA07.jpg,AFNE10.jpg,FN,3,num_2,16,num_2,0.633425310836,,,2017_Aug_23_1711,60.0133008093,MAFE4ImagesEEG,001,101255,
AFNE01.JPG,AFNE01.JPG,AFNE01.JPG,AFNE01.JPG,AFNE01.JPG,AFNE01.JPG,,,,,,,,,,,,,2,3,23,4,,,,,,,,,,,AFNE14.jpg,AFNE12.jpg,AFSA04.jpg,AFSA07.jpg,AFNE12.jpg,FN,3,num_6,16,num_6,0.666765882168,,,2017_Aug_23_1711,60.0133008093,MAFE4ImagesEEG,001,101255,
AFNE01.JPG,AFNE01.JPG,AFNE01.JPG,AFNE01.JPG,AFNE01.JPG,AFNE01.JPG,,,,,,,,,,,,,2,4,24,3,,,,,,,,,,,AFNE19.jpg,AFNE16.jpg,AFSA18.jpg,AFSA19.jpg,AFSA19.jpg,FS,4,num_4,16,num_4,0.800165052642,,,2017_Aug_23_1711,60.0133008093,MAFE4ImagesEEG,001,101255,
AFNE01.JPG,AFNE01.JPG,AFNE01.JPG,AFNE01.JPG,AFNE01.JPG,AFNE01.JPG,,,,,,,,,,,,,2,5,25,2,,,,,,,,,,,AFNE03.jpg,AFSA08.jpg,AFSA16.jpg,AFNE12.jpg,AFNE03.jpg,FN,3,num_8,16,num_8,0.950096109649,,,2017_Aug_23_1711,60.0133008093,MAFE4ImagesEEG,001,101255,
AFNE01.JPG,AFNE01.JPG,AFNE01.JPG,AFNE01.JPG,AFNE01.JPG,AFNE01.JPG,,,,,,,,,,,,,2,6,26,7,,,,,,,,,,,AFNE01.jpg,AFNE19.jpg,AFSA09.jpg,AFSA17.jpg,AFNE19.jpg,FN,3,num_6,32,num_4,0.983482867479,,,2017_Aug_23_1711,60.0133008093,MAFE4ImagesEEG,001,101255,
AFNE01.JPG,AFNE01.JPG,AFNE01.JPG,AFNE01.JPG,AFNE01.JPG,AFNE01.JPG,,,,,,,,,,,,,2,7,27,0,,,,,,,,,,,AFSA15.jpg,AFNE06.jpg,AFSA12.jpg,AFNE17.jpg,AFNE06.jpg,FN,3,num_6,32,num_4,2.19972429215,,,2017_Aug_23_1711,60.0133008093,MAFE4ImagesEEG,001,101255,
AFNE01.JPG,AFNE01.JPG,AFNE01.JPG,AFNE01.JPG,AFNE01.JPG,AFNE01.JPG,,,,,,,,,,,,,2,8,28,1,,,,,,,,,,,AFNE06.jpg,AFSA16.jpg,AFNE15.jpg,AFSA19.jpg,AFSA16.jpg,FS,4,num_6,16,num_6,1.18341788556,,,2017_Aug_23_1711,60.0133008093,MAFE4ImagesEEG,001,101255,
AFNE01.JPG,AFNE01.JPG,AFNE01.JPG,AFNE01.JPG,AFNE01.JPG,AFNE01.JPG,,,,,,,,,,,,,2,9,29,8,,,,,,,,,,,AFSA14.jpg,AFNE17.jpg,AFSA20.jpg,AFNE19.jpg,AFSA14.jpg,FS,4,num_8,16,num_8,0.683442742913,,,2017_Aug_23_1711,60.0133008093,MAFE4ImagesEEG,001,101255,
AFNE01.JPG,AFNE01.JPG,AFNE01.JPG,AFNE01.JPG,AFNE01.JPG,AFNE01.JPG,,,,,,,,,,,,,3,0,30,3,,,,,,,,,,,AFNE13.jpg,AFNE04.jpg,AFSA11.jpg,AFSA05.jpg,AFNE04.jpg,FN,3,num_6,16,num_6,0.633480157237,,,2017_Aug_23_1711,60.0133008093,MAFE4ImagesEEG,001,101255,
AFNE01.JPG,AFNE01.JPG,AFNE01.JPG,AFNE01.JPG,AFNE01.JPG,AFNE01.JPG,,,,,,,,,,,,,3,1,31,9,,,,,,,,,,,AFNE14.jpg,AFSA07.jpg,AFSA03.jpg,AFNE04.jpg,AFSA03.jpg,FS,4,num_2,32,num_8,1.68342606444,,,2017_Aug_23_1711,60.0133008093,MAFE4ImagesEEG,001,101255,
AFNE01.JPG,AFNE01.JPG,AFNE01.JPG,AFNE01.JPG,AFNE01.JPG,AFNE01.JPG,,,,,,,,,,,,,3,2,32,1,,,,,,,,,,,AFSA07.jpg,AFNE10.jpg,AFSA01.jpg,AFNE03.jpg,AFNE03.jpg,FN,3,num_4,16,num_4,0.483472122811,,,2017_Aug_23_1711,60.0133008093,MAFE4ImagesEEG,001,101255,
AFNE01.JPG,AFNE01.JPG,AFNE01.JPG,AFNE01.JPG,AFNE01.JPG,AFNE01.JPG,,,,,,,,,,,,,3,3,33,7,,,,,,,,,,,AFSA06.jpg,AFNE07.jpg,AFSA11.jpg,AFNE06.jpg,AFNE06.jpg,FN,3,num_4,32,num_6,0.816746012308,,,2017_Aug_23_1711,60.0133008093,MAFE4ImagesEEG,001,101255,
AFNE01.JPG,AFNE01.JPG,AFNE01.JPG,AFNE01.JPG,AFNE01.JPG,AFNE01.JPG,,,,,,,,,,,,,3,4,34,4,,,,,,,,,,,AFSA11.jpg,AFNE05.jpg,AFSA15.jpg,AFNE14.jpg,AFSA15.jpg,FS,4,num_2,16,num_2,1.15021074202,,,2017_Aug_23_1711,60.0133008093,MAFE4ImagesEEG,001,101255,
AFNE01.JPG,AFNE01.JPG,AFNE01.JPG,AFNE01.JPG,AFNE01.JPG,AFNE01.JPG,,,,,,,,,,,,,3,5,35,6,,,,,,,,,,,AFNE01.jpg,AFNE06.jpg,AFSA17.jpg,AFSA15.jpg,AFSA15.jpg,FS,4,num_4,16,num_4,0.78334995301,,,2017_Aug_23_1711,60.0133008093,MAFE4ImagesEEG,001,101255,
AFNE01.JPG,AFNE01.JPG,AFNE01.JPG,AFNE01.JPG,AFNE01.JPG,AFNE01.JPG,,,,,,,,,,,,,3,6,36,2,,,,,,,,,,,AFNE01.jpg,AFSA14.jpg,AFSA02.jpg,AFNE16.jpg,AFSA02.jpg,FS,4,num_2,16,num_2,0.683427989017,,,2017_Aug_23_1711,60.0133008093,MAFE4ImagesEEG,001,101255,
AFNE01.JPG,AFNE01.JPG,AFNE01.JPG,AFNE01.JPG,AFNE01.JPG,AFNE01.JPG,,,,,,,,,,,,,3,7,37,0,,,,,,,,,,,AFSA05.jpg,AFNE05.jpg,AFSA04.jpg,AFNE03.jpg,AFNE05.jpg,FN,3,num_6,32,num_8,0.750128696789,,,2017_Aug_23_1711,60.0133008093,MAFE4ImagesEEG,001,101255,
AFNE01.JPG,AFNE01.JPG,AFNE01.JPG,AFNE01.JPG,AFNE01.JPG,AFNE01.JPG,,,,,,,,,,,,,3,8,38,8,,,,,,,,,,,AFSA07.jpg,AFSA04.jpg,AFNE08.jpg,AFNE01.jpg,AFSA04.jpg,FS,4,num_6,32,num_4,0.966804402997,,,2017_Aug_23_1711,60.0133008093,MAFE4ImagesEEG,001,101255,
AFNE01.JPG,AFNE01.JPG,AFNE01.JPG,AFNE01.JPG,AFNE01.JPG,AFNE01.JPG,,,,,,,,,,,,,3,9,39,5,,,,,,,,,,,AFNE12.jpg,AFNE02.jpg,AFSA05.jpg,AFSA04.jpg,AFSA04.jpg,FS,4,num_4,16,num_4,0.750126130879,,,2017_Aug_23_1711,60.0133008093,MAFE4ImagesEEG,001,101255,
AFNE01.JPG,AFNE01.JPG,AFNE01.JPG,AFNE01.JPG,AFNE01.JPG,AFNE01.JPG,,,,,,,,,,,,,4,0,40,9,,,,,,,,,,,AFSA19.jpg,AFSA06.jpg,AFNE01.jpg,AFNE03.jpg,AFNE01.jpg,FN,3,num_2,32,num_8,0.650110190152,,,2017_Aug_23_1711,60.0133008093,MAFE4ImagesEEG,001,101255,
AFNE01.JPG,AFNE01.JPG,AFNE01.JPG,AFNE01.JPG,AFNE01.JPG,AFNE01.JPG,,,,,,,,,,,,,4,1,41,8,,,,,,,,,,,AFSA15.jpg,AFNE08.jpg,AFNE07.jpg,AFSA10.jpg,AFSA10.jpg,FS,4,num_4,32,num_6,0.866786858533,,,2017_Aug_23_1711,60.0133008093,MAFE4ImagesEEG,001,101255,
AFNE01.JPG,AFNE01.JPG,AFNE01.JPG,AFNE01.JPG,AFNE01.JPG,AFNE01.JPG,,,,,,,,,,,,,4,2,42,3,,,,,,,,,,,AFNE04.jpg,AFSA11.jpg,AFNE13.jpg,AFSA17.jpg,AFSA11.jpg,FS,4,num_6,32,num_2,0.533533496317,,,2017_Aug_23_1711,60.0133008093,MAFE4ImagesEEG,001,101255,
AFNE01.JPG,AFNE01.JPG,AFNE01.JPG,AFNE01.JPG,AFNE01.JPG,AFNE01.JPG,,,,,,,,,,,,,4,3,43,5,,,,,,,,,,,AFNE05.jpg,AFSA17.jpg,AFSA14.jpg,AFNE11.jpg,AFSA14.jpg,FS,4,num_2,32,num_4,0.750110093853,,,2017_Aug_23_1711,60.0133008093,MAFE4ImagesEEG,001,101255,
AFNE01.JPG,AFNE01.JPG,AFNE01.JPG,AFNE01.JPG,AFNE01.JPG,AFNE01.JPG,,,,,,,,,,,,,4,4,44,6,,,,,,,,,,,AFSA04.jpg,AFSA15.jpg,AFNE15.jpg,AFNE16.jpg,AFNE15.jpg,FN,3,num_2,32,num_8,0.783438797924,,,2017_Aug_23_1711,60.0133008093,MAFE4ImagesEEG,001,101255,
AFNE01.JPG,AFNE01.JPG,AFNE01.JPG,AFNE01.JPG,AFNE01.JPG,AFNE01.JPG,,,,,,,,,,,,,4,5,45,1,,,,,,,,,,,AFNE17.jpg,AFSA09.jpg,AFSA20.jpg,AFNE11.jpg,AFSA09.jpg,FS,4,num_6,32,num_8,0.783449061564,,,2017_Aug_23_1711,60.0133008093,MAFE4ImagesEEG,001,101255,
AFNE01.JPG,AFNE01.JPG,AFNE01.JPG,AFNE01.JPG,AFNE01.JPG,AFNE01.JPG,,,,,,,,,,,,,4,6,46,4,,,,,,,,,,,AFSA08.jpg,AFNE09.jpg,AFSA01.jpg,AFNE03.jpg,AFNE09.jpg,FN,3,num_6,16,num_6,0.466862617177,,,2017_Aug_23_1711,60.0133008093,MAFE4ImagesEEG,001,101255,
AFNE01.JPG,AFNE01.JPG,AFNE01.JPG,AFNE01.JPG,AFNE01.JPG,AFNE01.JPG,,,,,,,,,,,,,4,7,47,0,,,,,,,,,,,AFNE19.jpg,AFSA18.jpg,AFSA14.jpg,AFNE02.jpg,AFNE19.jpg,FN,3,num_8,32,num_4,1.00011129666,,,2017_Aug_23_1711,60.0133008093,MAFE4ImagesEEG,001,101255,
AFNE01.JPG,AFNE01.JPG,AFNE01.JPG,AFNE01.JPG,AFNE01.JPG,AFNE01.JPG,,,,,,,,,,,,,4,8,48,2,,,,,,,,,,,AFSA02.jpg,AFSA16.jpg,AFNE12.jpg,AFNE01.jpg,AFNE01.jpg,FN,3,num_4,32,num_8,0.750133507885,,,2017_Aug_23_1711,60.0133008093,MAFE4ImagesEEG,001,101255,
AFNE01.JPG,AFNE01.JPG,AFNE01.JPG,AFNE01.JPG,AFNE01.JPG,AFNE01.JPG,,,,,,,,,,,,,4,9,49,7,,,,,,,,,,,AFSA17.jpg,AFNE15.jpg,AFSA16.jpg,AFNE10.jpg,AFNE15.jpg,FN,3,num_6,32,num_4,1.09992549219,,,2017_Aug_23_1711,60.0133008093,MAFE4ImagesEEG,001,101255,
AFNE01.JPG,AFNE01.JPG,AFNE01.JPG,AFNE01.JPG,AFNE01.JPG,AFNE01.JPG,,,,,,,,,,,,,5,0,50,5,,,,,,,,,,,AFNE04.jpg,AFSA20.jpg,AFSA18.jpg,AFNE16.jpg,AFSA20.jpg,FS,4,num_6,16,num_6,1.05011557858,,,2017_Aug_23_1711,60.0133008093,MAFE4ImagesEEG,001,101255,
AFNE01.JPG,AFNE01.JPG,AFNE01.JPG,AFNE01.JPG,AFNE01.JPG,AFNE01.JPG,,,,,,,,,,,,,5,1,51,2,,,,,,,,,,,AFNE16.jpg,AFSA20.jpg,AFNE02.jpg,AFSA10.jpg,AFNE16.jpg,FN,3,num_8,16,num_8,0.433476180187,,,2017_Aug_23_1711,60.0133008093,MAFE4ImagesEEG,001,101255,
AFNE01.JPG,AFNE01.JPG,AFNE01.JPG,AFNE01.JPG,AFNE01.JPG,AFNE01.JPG,,,,,,,,,,,,,5,2,52,3,,,,,,,,,,,AFSA06.jpg,AFNE15.jpg,AFNE02.jpg,AFSA20.jpg,AFNE02.jpg,FN,3,num_2,16,num_2,0.966828779201,,,2017_Aug_23_1711,60.0133008093,MAFE4ImagesEEG,001,101255,
AFNE01.JPG,AFNE01.JPG,AFNE01.JPG,AFNE01.JPG,AFNE01.JPG,AFNE01.JPG,,,,,,,,,,,,,5,3,53,6,,,,,,,,,,,AFNE06.jpg,AFSA06.jpg,AFNE17.jpg,AFSA20.jpg,AFSA06.jpg,FS,4,num_6,16,num_6,1.0665999956,,,2017_Aug_23_1711,60.0133008093,MAFE4ImagesEEG,001,101255,
AFNE01.JPG,AFNE01.JPG,AFNE01.JPG,AFNE01.JPG,AFNE01.JPG,AFNE01.JPG,,,,,,,,,,,,,5,4,54,8,,,,,,,,,,,AFNE09.jpg,AFSA03.jpg,AFSA01.jpg,AFNE16.jpg,AFNE09.jpg,FN,3,num_8,16,num_8,0.716783635085,,,2017_Aug_23_1711,60.0133008093,MAFE4ImagesEEG,001,101255,
AFNE01.JPG,AFNE01.JPG,AFNE01.JPG,AFNE01.JPG,AFNE01.JPG,AFNE01.JPG,,,,,,,,,,,,,5,5,55,4,,,,,,,,,,,AFNE02.jpg,AFSA10.jpg,AFNE04.jpg,AFSA06.jpg,AFNE02.jpg,FN,3,num_8,32,num_4,0.933457737556,,,2017_Aug_23_1711,60.0133008093,MAFE4ImagesEEG,001,101255,
AFNE01.JPG,AFNE01.JPG,AFNE01.JPG,AFNE01.JPG,AFNE01.JPG,AFNE01.JPG,,,,,,,,,,,,,5,6,56,9,,,,,,,,,,,AFNE14.jpg,AFSA18.jpg,AFNE03.jpg,AFSA13.jpg,AFSA18.jpg,FS,4,num_6,32,num_8,0.733471721876,,,2017_Aug_23_1711,60.0133008093,MAFE4ImagesEEG,001,101255,
AFNE01.JPG,AFNE01.JPG,AFNE01.JPG,AFNE01.JPG,AFNE01.JPG,AFNE01.JPG,,,,,,,,,,,,,5,7,57,7,,,,,,,,,,,AFNE03.jpg,AFSA17.jpg,AFNE18.jpg,AFSA18.jpg,AFSA18.jpg,FS,4,num_4,32,num_6,0.433507612557,,,2017_Aug_23_1711,60.0133008093,MAFE4ImagesEEG,001,101255,
AFNE01.JPG,AFNE01.JPG,AFNE01.JPG,AFNE01.JPG,AFNE01.JPG,AFNE01.JPG,,,,,,,,,,,,,5,8,58,1,,,,,,,,,,,AFNE17.jpg,AFSA01.jpg,AFSA08.jpg,AFNE10.jpg,AFSA01.jpg,FS,4,num_6,32,num_4,0.966420477605,,,2017_Aug_23_1711,60.0133008093,MAFE4ImagesEEG,001,101255,
AFNE01.JPG,AFNE01.JPG,AFNE01.JPG,AFNE01.JPG,AFNE01.JPG,AFNE01.JPG,,,,,,,,,,,,,5,9,59,0,,,,,,,,,,,AFSA02.jpg,AFNE04.jpg,AFSA06.jpg,AFNE06.jpg,AFNE04.jpg,FN,3,num_6,16,num_6,0.550169943948,,,2017_Aug_23_1711,60.0133008093,MAFE4ImagesEEG,001,101255,
,,,,,,,,,,,,,,,,,,,,,,,,,,,,,,,,,,,,,,,,,,,space,57.4123586781,2017_Aug_23_1711,60.0133008093,MAFE4ImagesEEG,001,101255,
AFNE01.JPG,AFNE01.JPG,AFNE01.JPG,AFNE01.JPG,AFNE01.JPG,AFNE01.JPG,,,,,,,,,,,,,,,,,0,0,0,6,,,,,,,AMSA10.jpg,AMNE17.jpg,AMNE05.jpg,AMSA19.jpg,AMNE17.jpg,MN,1,num_6,16,num_6,0.866876344895,,,2017_Aug_23_1711,60.0133008093,MAFE4ImagesEEG,001,101255,
AFNE01.JPG,AFNE01.JPG,AFNE01.JPG,AFNE01.JPG,AFNE01.JPG,AFNE01.JPG,,,,,,,,,,,,,,,,,0,1,1,0,,,,,,,AMNE18.jpg,AMNE02.jpg,AMSA14.jpg,AMSA13.jpg,AMSA13.jpg,MS,2,num_4,16,num_4,0.60015883029,,,2017_Aug_23_1711,60.0133008093,MAFE4ImagesEEG,001,101255,
AFNE01.JPG,AFNE01.JPG,AFNE01.JPG,AFNE01.JPG,AFNE01.JPG,AFNE01.JPG,,,,,,,,,,,,,,,,,0,2,2,3,,,,,,,AMSA16.jpg,AMNE18.jpg,AMNE03.jpg,AMSA17.jpg,AMSA16.jpg,MS,2,num_8,32,num_6,0.616795598646,,,2017_Aug_23_1711,60.0133008093,MAFE4ImagesEEG,001,101255,
AFNE01.JPG,AFNE01.JPG,AFNE01.JPG,AFNE01.JPG,AFNE01.JPG,AFNE01.JPG,,,,,,,,,,,,,,,,,0,3,3,9,,,,,,,AMSA13.jpg,AMSA16.jpg,AMNE16.jpg,AMNE02.jpg,AMSA16.jpg,MS,2,num_6,32,num_8,0.750163978199,,,2017_Aug_23_1711,60.0133008093,MAFE4ImagesEEG,001,101255,
AFNE01.JPG,AFNE01.JPG,AFNE01.JPG,AFNE01.JPG,AFNE01.JPG,AFNE01.JPG,,,,,,,,,,,,,,,,,0,4,4,2,,,,,,,AMSA11.jpg,AMNE09.jpg,AMSA10.jpg,AMNE17.jpg,AMSA10.jpg,MS,2,num_2,32,num_4,1.08344075445,,,2017_Aug_23_1711,60.0133008093,MAFE4ImagesEEG,001,101255,
AFNE01.JPG,AFNE01.JPG,AFNE01.JPG,AFNE01.JPG,AFNE01.JPG,AFNE01.JPG,,,,,,,,,,,,,,,,,0,5,5,1,,,,,,,AMNE01.jpg,AMNE02.jpg,AMSA02.jpg,AMSA03.jpg,AMSA03.jpg,MS,2,num_4,16,num_4,0.666795069468,,,2017_Aug_23_1711,60.0133008093,MAFE4ImagesEEG,001,101255,
AFNE01.JPG,AFNE01.JPG,AFNE01.JPG,AFNE01.JPG,AFNE01.JPG,AFNE01.JPG,,,,,,,,,,,,,,,,,0,6,6,8,,,,,,,AMNE01.jpg,AMSA19.jpg,AMNE03.jpg,AMSA12.jpg,AMNE03.jpg,MN,1,num_2,32,num_8,0.900112996576,,,2017_Aug_23_1711,60.0133008093,MAFE4ImagesEEG,001,101255,
AFNE01.JPG,AFNE01.JPG,AFNE01.JPG,AFNE01.JPG,AFNE01.JPG,AFNE01.JPG,,,,,,,,,,,,,,,,,0,7,7,5,,,,,,,AMNE13.jpg,AMSA20.jpg,AMSA01.jpg,AMNE14.jpg,AMSA20.jpg,MS,2,num_6,32,num_4,1.21672349633,,,2017_Aug_23_1711,60.0133008093,MAFE4ImagesEEG,001,101255,
AFNE01.JPG,AFNE01.JPG,AFNE01.JPG,AFNE01.JPG,AFNE01.JPG,AFNE01.JPG,,,,,,,,,,,,,,,,,0,8,8,4,,,,,,,AMSA16.jpg,AMSA04.jpg,AMNE03.jpg,AMNE06.jpg,AMNE06.jpg,MN,1,num_4,16,num_4,0.700119603775,,,2017_Aug_23_1711,60.0133008093,MAFE4ImagesEEG,001,101255,
AFNE01.JPG,AFNE01.JPG,AFNE01.JPG,AFNE01.JPG,AFNE01.JPG,AFNE01.JPG,,,,,,,,,,,,,,,,,0,9,9,7,,,,,,,AMNE13.jpg,AMSA11.jpg,AMSA18.jpg,AMNE10.jpg,AMSA18.jpg,MS,2,num_2,16,num_2,0.933447153191,,,2017_Aug_23_1711,60.0133008093,MAFE4ImagesEEG,001,101255,
AFNE01.JPG,AFNE01.JPG,AFNE01.JPG,AFNE01.JPG,AFNE01.JPG,AFNE01.JPG,,,,,,,,,,,,,,,,,1,0,10,1,,,,,,,AMNE11.jpg,AMSA17.jpg,AMSA05.jpg,AMNE17.jpg,AMSA17.jpg,MS,2,num_6,16,num_6,1.2500778595,,,2017_Aug_23_1711,60.0133008093,MAFE4ImagesEEG,001,101255,
AFNE01.JPG,AFNE01.JPG,AFNE01.JPG,AFNE01.JPG,AFNE01.JPG,AFNE01.JPG,,,,,,,,,,,,,,,,,1,1,11,5,,,,,,,AMNE15.jpg,AMNE08.jpg,AMSA15.jpg,AMSA12.jpg,AMSA15.jpg,MS,2,num_2,32,num_4,0.750116187846,,,2017_Aug_23_1711,60.0133008093,MAFE4ImagesEEG,001,101255,
AFNE01.JPG,AFNE01.JPG,AFNE01.JPG,AFNE01.JPG,AFNE01.JPG,AFNE01.JPG,,,,,,,,,,,,,,,,,1,2,12,9,,,,,,,AMNE01.jpg,AMSA10.jpg,AMSA20.jpg,AMNE17.jpg,AMSA10.jpg,MS,2,num_6,16,num_6,0.833452702034,,,2017_Aug_23_1711,60.0133008093,MAFE4ImagesEEG,001,101255,
AFNE01.JPG,AFNE01.JPG,AFNE01.JPG,AFNE01.JPG,AFNE01.JPG,AFNE01.JPG,,,,,,,,,,,,,,,,,1,3,13,4,,,,,,,AMNE01.jpg,AMNE14.jpg,AMSA19.jpg,AMSA18.jpg,AMSA19.jpg,MS,2,num_2,16,num_2,0.833458475186,,,2017_Aug_23_1711,60.0133008093,MAFE4ImagesEEG,001,101255,
AFNE01.JPG,AFNE01.JPG,AFNE01.JPG,AFNE01.JPG,AFNE01.JPG,AFNE01.JPG,,,,,,,,,,,,,,,,,1,4,14,0,,,,,,,AMNE09.jpg,AMSA06.jpg,AMNE13.jpg,AMSA02.jpg,AMSA06.jpg,MS,2,num_6,32,num_4,0.816743767122,,,2017_Aug_23_1711,60.0133008093,MAFE4ImagesEEG,001,101255,
AFNE01.JPG,AFNE01.JPG,AFNE01.JPG,AFNE01.JPG,AFNE01.JPG,AFNE01.JPG,,,,,,,,,,,,,,,,,1,5,15,7,,,,,,,AMNE16.jpg,AMNE14.jpg,AMSA02.jpg,AMSA13.jpg,AMSA02.jpg,MS,2,num_2,16,num_2,0.833455267828,,,2017_Aug_23_1711,60.0133008093,MAFE4ImagesEEG,001,101255,
AFNE01.JPG,AFNE01.JPG,AFNE01.JPG,AFNE01.JPG,AFNE01.JPG,AFNE01.JPG,,,,,,,,,,,,,,,,,1,6,16,8,,,,,,,AMNE10.jpg,AMSA06.jpg,AMSA12.jpg,AMNE02.jpg,AMSA06.jpg,MS,2,num_6,16,num_6,0.983410380315,,,2017_Aug_23_1711,60.0133008093,MAFE4ImagesEEG,001,101255,
AFNE01.JPG,AFNE01.JPG,AFNE01.JPG,AFNE01.JPG,AFNE01.JPG,AFNE01.JPG,,,,,,,,,,,,,,,,,1,7,17,3,,,,,,,AMNE16.jpg,AMSA15.jpg,AMSA07.jpg,AMNE10.jpg,AMSA15.jpg,MS,2,num_6,16,num_6,0.83349407732,,,2017_Aug_23_1711,60.0133008093,MAFE4ImagesEEG,001,101255,
AFNE01.JPG,AFNE01.JPG,AFNE01.JPG,AFNE01.JPG,AFNE01.JPG,AFNE01.JPG,,,,,,,,,,,,,,,,,1,8,18,6,,,,,,,AMSA10.jpg,AMNE03.jpg,AMNE18.jpg,AMSA18.jpg,AMSA10.jpg,MS,2,num_8,32,num_6,1.06684471993,,,2017_Aug_23_1711,60.0133008093,MAFE4ImagesEEG,001,101255,
AFNE01.JPG,AFNE01.JPG,AFNE01.JPG,AFNE01.JPG,AFNE01.JPG,AFNE01.JPG,,,,,,,,,,,,,,,,,1,9,19,2,,,,,,,AMSA03.jpg,AMNE10.jpg,AMNE18.jpg,AMSA19.jpg,AMSA19.jpg,MS,2,num_4,16,num_4,0.783557471586,,,2017_Aug_23_1711,60.0133008093,MAFE4ImagesEEG,001,101255,
AFNE01.JPG,AFNE01.JPG,AFNE01.JPG,AFNE01.JPG,AFNE01.JPG,AFNE01.JPG,,,,,,,,,,,,,,,,,2,0,20,1,,,,,,,AMSA05.jpg,AMSA09.jpg,AMNE08.jpg,AMNE14.jpg,AMSA05.jpg,MS,2,num_8,16,num_8,0.616799768293,,,2017_Aug_23_1711,60.0133008093,MAFE4ImagesEEG,001,101255,
AFNE01.JPG,AFNE01.JPG,AFNE01.JPG,AFNE01.JPG,AFNE01.JPG,AFNE01.JPG,,,,,,,,,,,,,,,,,2,1,21,0,,,,,,,AMSA14.jpg,AMSA20.jpg,AMNE15.jpg,AMNE18.jpg,AMSA20.jpg,MS,2,num_6,32,num_4,1.05014219997,,,2017_Aug_23_1711,60.0133008093,MAFE4ImagesEEG,001,101255,
AFNE01.JPG,AFNE01.JPG,AFNE01.JPG,AFNE01.JPG,AFNE01.JPG,AFNE01.JPG,,,,,,,,,,,,,,,,,2,2,22,8,,,,,,,AMNE03.jpg,AMSA09.jpg,AMSA16.jpg,AMNE11.jpg,AMSA09.jpg,MS,2,num_6,16,num_6,0.750153072993,,,2017_Aug_23_1711,60.0133008093,MAFE4ImagesEEG,001,101255,
AFNE01.JPG,AFNE01.JPG,AFNE01.JPG,AFNE01.JPG,AFNE01.JPG,AFNE01.JPG,,,,,,,,,,,,,,,,,2,3,23,6,,,,,,,AMSA02.jpg,AMNE12.jpg,AMSA19.jpg,AMNE02.jpg,AMNE12.jpg,MN,1,num_6,32,num_8,1.44994039054,,,2017_Aug_23_1711,60.0133008093,MAFE4ImagesEEG,001,101255,
AFNE01.JPG,AFNE01.JPG,AFNE01.JPG,AFNE01.JPG,AFNE01.JPG,AFNE01.JPG,,,,,,,,,,,,,,,,,2,4,24,3,,,,,,,AMNE14.jpg,AMNE02.jpg,AMSA13.jpg,AMSA08.jpg,AMNE02.jpg,MN,1,num_6,32,num_8,0.666814313852,,,2017_Aug_23_1711,60.0133008093,MAFE4ImagesEEG,001,101255,
AFNE01.JPG,AFNE01.JPG,AFNE01.JPG,AFNE01.JPG,AFNE01.JPG,AFNE01.JPG,,,,,,,,,,,,,,,,,2,5,25,4,,,,,,,AMSA17.jpg,AMSA07.jpg,AMNE17.jpg,AMNE19.jpg,AMSA17.jpg,MS,2,num_8,32,num_2,0.833451098297,,,2017_Aug_23_1711,60.0133008093,MAFE4ImagesEEG,001,101255,
AFNE01.JPG,AFNE01.JPG,AFNE01.JPG,AFNE01.JPG,AFNE01.JPG,AFNE01.JPG,,,,,,,,,,,,,,,,,2,6,26,2,,,,,,,AMNE14.jpg,AMSA03.jpg,AMNE18.jpg,AMSA05.jpg,AMSA05.jpg,MS,2,num_4,16,num_4,0.866747728316,,,2017_Aug_23_1711,60.0133008093,MAFE4ImagesEEG,001,101255,
AFNE01.JPG,AFNE01.JPG,AFNE01.JPG,AFNE01.JPG,AFNE01.JPG,AFNE01.JPG,,,,,,,,,,,,,,,,,2,7,27,7,,,,,,,AMSA06.jpg,AMSA01.jpg,AMNE09.jpg,AMNE11.jpg,AMSA01.jpg,MS,2,num_6,16,num_6,0.60011071933,,,2017_Aug_23_1711,60.0133008093,MAFE4ImagesEEG,001,101255,
AFNE01.JPG,AFNE01.JPG,AFNE01.JPG,AFNE01.JPG,AFNE01.JPG,AFNE01.JPG,,,,,,,,,,,,,,,,,2,8,28,5,,,,,,,AMSA04.jpg,AMNE08.jpg,AMNE03.jpg,AMSA14.jpg,AMSA14.jpg,MS,2,num_4,16,num_4,0.483534987667,,,2017_Aug_23_1711,60.0133008093,MAFE4ImagesEEG,001,101255,
AFNE01.JPG,AFNE01.JPG,AFNE01.JPG,AFNE01.JPG,AFNE01.JPG,AFNE01.JPG,,,,,,,,,,,,,,,,,2,9,29,9,,,,,,,AMSA10.jpg,AMSA06.jpg,AMNE04.jpg,AMNE16.jpg,AMNE16.jpg,MN,1,num_4,16,num_4,1.10008169245,,,2017_Aug_23_1711,60.0133008093,MAFE4ImagesEEG,001,101255,
AFNE01.JPG,AFNE01.JPG,AFNE01.JPG,AFNE01.JPG,AFNE01.JPG,AFNE01.JPG,,,,,,,,,,,,,,,,,3,0,30,0,,,,,,,AMNE05.jpg,AMSA20.jpg,AMNE06.jpg,AMSA01.jpg,AMNE06.jpg,MN,1,num_2,16,num_2,1.51669626555,,,2017_Aug_23_1711,60.0133008093,MAFE4ImagesEEG,001,101255,
AFNE01.JPG,AFNE01.JPG,AFNE01.JPG,AFNE01.JPG,AFNE01.JPG,AFNE01.JPG,,,,,,,,,,,,,,,,,3,1,31,2,,,,,,,AMSA04.jpg,AMNE19.jpg,AMSA18.jpg,AMNE13.jpg,AMSA18.jpg,MS,2,num_2,16,num_2,0.766821273952,,,2017_Aug_23_1711,60.0133008093,MAFE4ImagesEEG,001,101255,
AFNE01.JPG,AFNE01.JPG,AFNE01.JPG,AFNE01.JPG,AFNE01.JPG,AFNE01.JPG,,,,,,,,,,,,,,,,,3,2,32,7,,,,,,,AMSA08.jpg,AMNE18.jpg,AMSA09.jpg,AMNE08.jpg,AMSA08.jpg,MS,2,num_8,16,num_8,0.716806407552,,,2017_Aug_23_1711,60.0133008093,MAFE4ImagesEEG,001,101255,
AFNE01.JPG,AFNE01.JPG,AFNE01.JPG,AFNE01.JPG,AFNE01.JPG,AFNE01.JPG,,,,,,,,,,,,,,,,,3,3,33,5,,,,,,,AMNE17.jpg,AMSA15.jpg,AMNE03.jpg,AMSA08.jpg,AMSA08.jpg,MS,2,num_4,16,num_4,0.550152624026,,,2017_Aug_23_1711,60.0133008093,MAFE4ImagesEEG,001,101255,
AFNE01.JPG,AFNE01.JPG,AFNE01.JPG,AFNE01.JPG,AFNE01.JPG,AFNE01.JPG,,,,,,,,,,,,,,,,,3,4,34,6,,,,,,,AMSA01.jpg,AMSA20.jpg,AMNE12.jpg,AMNE17.jpg,AMSA20.jpg,MS,2,num_6,16,num_6,0.700168035575,,,2017_Aug_23_1711,60.0133008093,MAFE4ImagesEEG,001,101255,
AFNE01.JPG,AFNE01.JPG,AFNE01.JPG,AFNE01.JPG,AFNE01.JPG,AFNE01.JPG,,,,,,,,,,,,,,,,,3,5,35,3,,,,,,,AMSA07.jpg,AMNE02.jpg,AMNE15.jpg,AMSA10.jpg,AMNE02.jpg,MN,1,num_6,16,num_6,0.899958079332,,,2017_Aug_23_1711,60.0133008093,MAFE4ImagesEEG,001,101255,
AFNE01.JPG,AFNE01.JPG,AFNE01.JPG,AFNE01.JPG,AFNE01.JPG,AFNE01.JPG,,,,,,,,,,,,,,,,,3,6,36,9,,,,,,,AMSA02.jpg,AMNE05.jpg,AMSA06.jpg,AMNE08.jpg,AMSA02.jpg,MS,2,num_8,16,num_8,0.683387254947,,,2017_Aug_23_1711,60.0133008093,MAFE4ImagesEEG,001,101255,
AFNE01.JPG,AFNE01.JPG,AFNE01.JPG,AFNE01.JPG,AFNE01.JPG,AFNE01.JPG,,,,,,,,,,,,,,,,,3,7,37,4,,,,,,,AMNE02.jpg,AMSA11.jpg,AMNE15.jpg,AMSA13.jpg,AMSA11.jpg,MS,2,num_6,16,num_6,1.00013823877,,,2017_Aug_23_1711,60.0133008093,MAFE4ImagesEEG,001,101255,
AFNE01.JPG,AFNE01.JPG,AFNE01.JPG,AFNE01.JPG,AFNE01.JPG,AFNE01.JPG,,,,,,,,,,,,,,,,,3,8,38,8,,,,,,,AMNE09.jpg,AMSA12.jpg,AMSA03.jpg,AMNE06.jpg,AMNE06.jpg,MN,1,num_4,32,num_6,0.850132128689,,,2017_Aug_23_1711,60.0133008093,MAFE4ImagesEEG,001,101255,
AFNE01.JPG,AFNE01.JPG,AFNE01.JPG,AFNE01.JPG,AFNE01.JPG,AFNE01.JPG,,,,,,,,,,,,,,,,,3,9,39,1,,,,,,,AMNE10.jpg,AMSA11.jpg,AMNE08.jpg,AMSA16.jpg,AMNE10.jpg,MN,1,num_8,16,num_8,0.666734128841,,,2017_Aug_23_1711,60.0133008093,MAFE4ImagesEEG,001,101255,
AFNE01.JPG,AFNE01.JPG,AFNE01.JPG,AFNE01.JPG,AFNE01.JPG,AFNE01.JPG,,,,,,,,,,,,,,,,,4,0,40,4,,,,,,,AMSA17.jpg,AMNE09.jpg,AMNE10.jpg,AMSA04.jpg,AMNE09.jpg,MN,1,num_6,16,num_6,0.583506987197,,,2017_Aug_23_1711,60.0133008093,MAFE4ImagesEEG,001,101255,
AFNE01.JPG,AFNE01.JPG,AFNE01.JPG,AFNE01.JPG,AFNE01.JPG,AFNE01.JPG,,,,,,,,,,,,,,,,,4,1,41,9,,,,,,,AMNE01.jpg,AMSA11.jpg,AMNE12.jpg,AMSA12.jpg,AMSA11.jpg,MS,2,num_6,32,num_4,0.466818996705,,,2017_Aug_23_1711,60.0133008093,MAFE4ImagesEEG,001,101255,
AFNE01.JPG,AFNE01.JPG,AFNE01.JPG,AFNE01.JPG,AFNE01.JPG,AFNE01.JPG,,,,,,,,,,,,,,,,,4,2,42,1,,,,,,,AMSA06.jpg,AMSA02.jpg,AMNE11.jpg,AMNE05.jpg,AMNE11.jpg,MN,1,num_2,32,num_6,1.05009729636,,,2017_Aug_23_1711,60.0133008093,MAFE4ImagesEEG,001,101255,
AFNE01.JPG,AFNE01.JPG,AFNE01.JPG,AFNE01.JPG,AFNE01.JPG,AFNE01.JPG,,,,,,,,,,,,,,,,,4,3,43,8,,,,,,,AMSA05.jpg,AMNE20.jpg,AMSA13.jpg,AMNE06.jpg,AMSA05.jpg,MS,2,num_8,16,num_8,2.21663112333,,,2017_Aug_23_1711,60.0133008093,MAFE4ImagesEEG,001,101255,
AFNE01.JPG,AFNE01.JPG,AFNE01.JPG,AFNE01.JPG,AFNE01.JPG,AFNE01.JPG,,,,,,,,,,,,,,,,,4,4,44,6,,,,,,,AMNE09.jpg,AMSA03.jpg,AMNE13.jpg,AMSA13.jpg,AMSA03.jpg,MS,2,num_6,16,num_6,1.16681094607,,,2017_Aug_23_1711,60.0133008093,MAFE4ImagesEEG,001,101255,
AFNE01.JPG,AFNE01.JPG,AFNE01.JPG,AFNE01.JPG,AFNE01.JPG,AFNE01.JPG,,,,,,,,,,,,,,,,,4,5,45,0,,,,,,,AMSA19.jpg,AMNE17.jpg,AMSA04.jpg,AMNE14.jpg,AMNE14.jpg,MN,1,num_4,32,num_8,0.733481664793,,,2017_Aug_23_1711,60.0133008093,MAFE4ImagesEEG,001,101255,
AFNE01.JPG,AFNE01.JPG,AFNE01.JPG,AFNE01.JPG,AFNE01.JPG,AFNE01.JPG,,,,,,,,,,,,,,,,,4,6,46,5,,,,,,,AMNE04.jpg,AMNE15.jpg,AMSA07.jpg,AMSA11.jpg,AMNE04.jpg,MN,1,num_8,32,num_2,0.750124206534,,,2017_Aug_23_1711,60.0133008093,MAFE4ImagesEEG,001,101255,
AFNE01.JPG,AFNE01.JPG,AFNE01.JPG,AFNE01.JPG,AFNE01.JPG,AFNE01.JPG,,,,,,,,,,,,,,,,,4,7,47,3,,,,,,,AMNE10.jpg,AMNE12.jpg,AMSA06.jpg,AMSA07.jpg,AMNE10.jpg,MN,1,num_8,32,num_6,0.700092340936,,,2017_Aug_23_1711,60.0133008093,MAFE4ImagesEEG,001,101255,
AFNE01.JPG,AFNE01.JPG,AFNE01.JPG,AFNE01.JPG,AFNE01.JPG,AFNE01.JPG,,,,,,,,,,,,,,,,,4,8,48,2,,,,,,,AMNE20.jpg,AMSA05.jpg,AMSA18.jpg,AMNE16.jpg,AMSA18.jpg,MS,2,num_2,16,num_2,0.816857950529,,,2017_Aug_23_1711,60.0133008093,MAFE4ImagesEEG,001,101255,
AFNE01.JPG,AFNE01.JPG,AFNE01.JPG,AFNE01.JPG,AFNE01.JPG,AFNE01.JPG,,,,,,,,,,,,,,,,,4,9,49,7,,,,,,,AMSA14.jpg,AMSA20.jpg,AMNE12.jpg,AMNE08.jpg,AMSA20.jpg,MS,2,num_6,16,num_6,0.88359105296,,,2017_Aug_23_1711,60.0133008093,MAFE4ImagesEEG,001,101255,
AFNE01.JPG,AFNE01.JPG,AFNE01.JPG,AFNE01.JPG,AFNE01.JPG,AFNE01.JPG,,,,,,,,,,,,,,,,,5,0,50,6,,,,,,,AMNE11.jpg,AMSA03.jpg,AMNE20.jpg,AMSA14.jpg,AMNE11.jpg,MN,1,num_8,32,num_4,0.949954021955,,,2017_Aug_23_1711,60.0133008093,MAFE4ImagesEEG,001,101255,
AFNE01.JPG,AFNE01.JPG,AFNE01.JPG,AFNE01.JPG,AFNE01.JPG,AFNE01.JPG,,,,,,,,,,,,,,,,,5,1,51,2,,,,,,,AMNE07.jpg,AMSA14.jpg,AMSA05.jpg,AMNE04.jpg,AMNE07.jpg,MN,1,num_8,16,num_8,0.800126563874,,,2017_Aug_23_1711,60.0133008093,MAFE4ImagesEEG,001,101255,
AFNE01.JPG,AFNE01.JPG,AFNE01.JPG,AFNE01.JPG,AFNE01.JPG,AFNE01.JPG,,,,,,,,,,,,,,,,,5,2,52,3,,,,,,,AMNE04.jpg,AMSA12.jpg,AMNE17.jpg,AMSA05.jpg,AMNE04.jpg,MN,1,num_8,16,num_8,0.916803328437,,,2017_Aug_23_1711,60.0133008093,MAFE4ImagesEEG,001,101255,
AFNE01.JPG,AFNE01.JPG,AFNE01.JPG,AFNE01.JPG,AFNE01.JPG,AFNE01.JPG,,,,,,,,,,,,,,,,,5,3,53,9,,,,,,,AMSA06.jpg,AMNE11.jpg,AMSA15.jpg,AMNE05.jpg,AMNE11.jpg,MN,1,num_6,32,num_4,1.33339352545,,,2017_Aug_23_1711,60.0133008093,MAFE4ImagesEEG,001,101255,
AFNE01.JPG,AFNE01.JPG,AFNE01.JPG,AFNE01.JPG,AFNE01.JPG,AFNE01.JPG,,,,,,,,,,,,,,,,,5,4,54,1,,,,,,,AMSA14.jpg,AMNE02.jpg,AMSA06.jpg,AMNE10.jpg,AMNE10.jpg,MN,1,num_4,16,num_4,0.783463494852,,,2017_Aug_23_1711,60.0133008093,MAFE4ImagesEEG,001,101255,
AFNE01.JPG,AFNE01.JPG,AFNE01.JPG,AFNE01.JPG,AFNE01.JPG,AFNE01.JPG,,,,,,,,,,,,,,,,,5,5,55,5,,,,,,,AMNE05.jpg,AMNE08.jpg,AMSA08.jpg,AMSA01.jpg,AMNE05.jpg,MN,1,num_8,16,num_8,1.18358499103,,,2017_Aug_23_1711,60.0133008093,MAFE4ImagesEEG,001,101255,
AFNE01.JPG,AFNE01.JPG,AFNE01.JPG,AFNE01.JPG,AFNE01.JPG,AFNE01.JPG,,,,,,,,,,,,,,,,,5,6,56,8,,,,,,,AMSA05.jpg,AMSA08.jpg,AMNE17.jpg,AMNE18.jpg,AMSA08.jpg,MS,2,num_6,32,num_8,1.26674606046,,,2017_Aug_23_1711,60.0133008093,MAFE4ImagesEEG,001,101255,
AFNE01.JPG,AFNE01.JPG,AFNE01.JPG,AFNE01.JPG,AFNE01.JPG,AFNE01.JPG,,,,,,,,,,,,,,,,,5,7,57,4,,,,,,,AMSA16.jpg,AMNE08.jpg,AMSA14.jpg,AMNE06.jpg,AMNE08.jpg,MN,1,num_6,32,num_2,0.733501229901,,,2017_Aug_23_1711,60.0133008093,MAFE4ImagesEEG,001,101255,
AFNE01.JPG,AFNE01.JPG,AFNE01.JPG,AFNE01.JPG,AFNE01.JPG,AFNE01.JPG,,,,,,,,,,,,,,,,,5,8,58,7,,,,,,,AMSA10.jpg,AMNE13.jpg,AMNE12.jpg,AMSA14.jpg,AMNE13.jpg,MN,1,num_6,16,num_6,0.766801067279,,,2017_Aug_23_1711,60.0133008093,MAFE4ImagesEEG,001,101255,
AFNE01.JPG,AFNE01.JPG,AFNE01.JPG,AFNE01.JPG,AFNE01.JPG,AFNE01.JPG,,,,,,,,,,,,,,,,,5,9,59,0,,,,,,,AMSA05.jpg,AMSA15.jpg,AMNE15.jpg,AMNE01.jpg,AMSA15.jpg,MS,2,num_6,32,num_8,1.10021896905,,,2017_Aug_23_1711,60.0133008093,MAFE4ImagesEEG,001,101255,
,,,,,,,,,,,,,,,,,,,,,,,,,,,,,,,,,,,,,,,,,,,space,90.5094629439,2017_Aug_23_1711,60.0133008093,MAFE4ImagesEEG,001,101255,
AFNE01.JPG,AFNE01.JPG,AFNE01.JPG,AFNE01.JPG,AFNE01.JPG,AFNE01.JPG,,,,,,,,,,,,,,,,,,,,,0,0,0,0,,,AFNE19.jpg,AFSA04.jpg,AFNE10.jpg,AFSA05.jpg,AFNE10.jpg,FN,3,num_2,16,num_2,0.566772393184,,,2017_Aug_23_1711,60.0133008093,MAFE4ImagesEEG,001,101255,
AFNE01.JPG,AFNE01.JPG,AFNE01.JPG,AFNE01.JPG,AFNE01.JPG,AFNE01.JPG,,,,,,,,,,,,,,,,,,,,,0,1,1,4,,,AFSA04.jpg,AFNE18.jpg,AFSA17.jpg,AFNE03.jpg,AFNE18.jpg,FN,3,num_6,16,num_6,1.40041785967,,,2017_Aug_23_1711,60.0133008093,MAFE4ImagesEEG,001,101255,
AFNE01.JPG,AFNE01.JPG,AFNE01.JPG,AFNE01.JPG,AFNE01.JPG,AFNE01.JPG,,,,,,,,,,,,,,,,,,,,,0,2,2,8,,,AFNE12.jpg,AFNE16.jpg,AFSA09.jpg,AFSA08.jpg,AFSA08.jpg,FS,4,num_4,16,num_4,0.966777781607,,,2017_Aug_23_1711,60.0133008093,MAFE4ImagesEEG,001,101255,
AFNE01.JPG,AFNE01.JPG,AFNE01.JPG,AFNE01.JPG,AFNE01.JPG,AFNE01.JPG,,,,,,,,,,,,,,,,,,,,,0,3,3,5,,,AFSA19.jpg,AFSA13.jpg,AFNE14.jpg,AFNE06.jpg,AFNE14.jpg,FN,3,num_2,32,num_4,0.633498118725,,,2017_Aug_23_1711,60.0133008093,MAFE4ImagesEEG,001,101255,
AFNE01.JPG,AFNE01.JPG,AFNE01.JPG,AFNE01.JPG,AFNE01.JPG,AFNE01.JPG,,,,,,,,,,,,,,,,,,,,,0,4,4,9,,,AFNE12.jpg,AFSA19.jpg,AFSA09.jpg,AFNE04.jpg,AFSA09.jpg,FS,4,num_2,32,num_6,0.73344542121,,,2017_Aug_23_1711,60.0133008093,MAFE4ImagesEEG,001,101255,
AFNE01.JPG,AFNE01.JPG,AFNE01.JPG,AFNE01.JPG,AFNE01.JPG,AFNE01.JPG,,,,,,,,,,,,,,,,,,,,,0,5,5,6,,,AFNE19.jpg,AFSA16.jpg,AFNE09.jpg,AFSA08.jpg,AFSA16.jpg,FS,4,num_6,32,num_8,0.683471609605,,,2017_Aug_23_1711,60.0133008093,MAFE4ImagesEEG,001,101255,
AFNE01.JPG,AFNE01.JPG,AFNE01.JPG,AFNE01.JPG,AFNE01.JPG,AFNE01.JPG,,,,,,,,,,,,,,,,,,,,,0,6,6,2,,,AFSA15.jpg,AFNE10.jpg,AFNE06.jpg,AFSA04.jpg,AFNE06.jpg,FN,3,num_2,32,num_6,0.617140714545,,,2017_Aug_23_1711,60.0133008093,MAFE4ImagesEEG,001,101255,
AFNE01.JPG,AFNE01.JPG,AFNE01.JPG,AFNE01.JPG,AFNE01.JPG,AFNE01.JPG,,,,,,,,,,,,,,,,,,,,,0,7,7,3,,,AFSA15.jpg,AFSA03.jpg,AFNE07.jpg,AFNE11.jpg,AFNE11.jpg,FN,3,num_4,16,num_4,0.900092469295,,,2017_Aug_23_1711,60.0133008093,MAFE4ImagesEEG,001,101255,
AFNE01.JPG,AFNE01.JPG,AFNE01.JPG,AFNE01.JPG,AFNE01.JPG,AFNE01.JPG,,,,,,,,,,,,,,,,,,,,,0,8,8,1,,,AFSA20.jpg,AFNE13.jpg,AFNE17.jpg,AFSA16.jpg,AFNE13.jpg,FN,3,num_6,32,num_2,0.750119716162,,,2017_Aug_23_1711,60.0133008093,MAFE4ImagesEEG,001,101255,
AFNE01.JPG,AFNE01.JPG,AFNE01.JPG,AFNE01.JPG,AFNE01.JPG,AFNE01.JPG,,,,,,,,,,,,,,,,,,,,,0,9,9,7,,,AFSA17.jpg,AFNE10.jpg,AFNE04.jpg,AFSA18.jpg,AFSA17.jpg,FS,4,num_8,32,num_4,0.800133620156,,,2017_Aug_23_1711,60.0133008093,MAFE4ImagesEEG,001,101255,
AFNE01.JPG,AFNE01.JPG,AFNE01.JPG,AFNE01.JPG,AFNE01.JPG,AFNE01.JPG,,,,,,,,,,,,,,,,,,,,,1,0,10,3,,,AFNE20.jpg,AFNE18.jpg,AFSA03.jpg,AFSA12.jpg,AFSA12.jpg,FS,4,num_4,16,num_4,0.599843222415,,,2017_Aug_23_1711,60.0133008093,MAFE4ImagesEEG,001,101255,
AFNE01.JPG,AFNE01.JPG,AFNE01.JPG,AFNE01.JPG,AFNE01.JPG,AFNE01.JPG,,,,,,,,,,,,,,,,,,,,,1,1,11,2,,,AFSA12.jpg,AFNE12.jpg,AFNE07.jpg,AFSA16.jpg,AFNE12.jpg,FN,3,num_6,16,num_6,0.766827047104,,,2017_Aug_23_1711,60.0133008093,MAFE4ImagesEEG,001,101255,
AFNE01.JPG,AFNE01.JPG,AFNE01.JPG,AFNE01.JPG,AFNE01.JPG,AFNE01.JPG,,,,,,,,,,,,,,,,,,,,,1,2,12,9,,,AFNE17.jpg,AFSA01.jpg,AFSA12.jpg,AFNE10.jpg,AFSA01.jpg,FS,4,num_6,16,num_6,0.850159070804,,,2017_Aug_23_1711,60.0133008093,MAFE4ImagesEEG,001,101255,
AFNE01.JPG,AFNE01.JPG,AFNE01.JPG,AFNE01.JPG,AFNE01.JPG,AFNE01.JPG,,,,,,,,,,,,,,,,,,,,,1,3,13,7,,,AFNE14.jpg,AFSA19.jpg,AFSA11.jpg,AFNE18.jpg,AFSA19.jpg,FS,4,num_6,32,num_2,1.1833511719,,,2017_Aug_23_1711,60.0133008093,MAFE4ImagesEEG,001,101255,
AFNE01.JPG,AFNE01.JPG,AFNE01.JPG,AFNE01.JPG,AFNE01.JPG,AFNE01.JPG,,,,,,,,,,,,,,,,,,,,,1,4,14,0,,,AFNE03.jpg,AFNE13.jpg,AFSA13.jpg,AFSA09.jpg,AFSA09.jpg,FS,4,num_4,32,num_8,0.816879119375,,,2017_Aug_23_1711,60.0133008093,MAFE4ImagesEEG,001,101255,
AFNE01.JPG,AFNE01.JPG,AFNE01.JPG,AFNE01.JPG,AFNE01.JPG,AFNE01.JPG,,,,,,,,,,,,,,,,,,,,,1,5,15,6,,,AFNE09.jpg,AFNE04.jpg,AFSA20.jpg,AFSA19.jpg,AFSA20.jpg,FS,4,num_2,32,num_8,0.683464232483,,,2017_Aug_23_1711,60.0133008093,MAFE4ImagesEEG,001,101255,
AFNE01.JPG,AFNE01.JPG,AFNE01.JPG,AFNE01.JPG,AFNE01.JPG,AFNE01.JPG,,,,,,,,,,,,,,,,,,,,,1,6,16,5,,,AFSA19.jpg,AFSA08.jpg,AFNE10.jpg,AFNE08.jpg,AFNE10.jpg,FN,3,num_2,16,num_2,1.05011333327,,,2017_Aug_23_1711,60.0133008093,MAFE4ImagesEEG,001,101255,
AFNE01.JPG,AFNE01.JPG,AFNE01.JPG,AFNE01.JPG,AFNE01.JPG,AFNE01.JPG,,,,,,,,,,,,,,,,,,,,,1,7,17,1,,,AFSA11.jpg,AFNE10.jpg,AFSA10.jpg,AFNE08.jpg,AFNE10.jpg,FN,3,num_6,16,num_6,0.400104496977,,,2017_Aug_23_1711,60.0133008093,MAFE4ImagesEEG,001,101255,
AFNE01.JPG,AFNE01.JPG,AFNE01.JPG,AFNE01.JPG,AFNE01.JPG,AFNE01.JPG,,,,,,,,,,,,,,,,,,,,,1,8,18,8,,,AFNE04.jpg,AFSA02.jpg,AFSA09.jpg,AFNE01.jpg,AFSA09.jpg,FS,4,num_2,32,num_6,0.88347622822,,,2017_Aug_23_1711,60.0133008093,MAFE4ImagesEEG,001,101255,
AFNE01.JPG,AFNE01.JPG,AFNE01.JPG,AFNE01.JPG,AFNE01.JPG,AFNE01.JPG,,,,,,,,,,,,,,,,,,,,,1,9,19,4,,,AFSA10.jpg,AFSA08.jpg,AFNE19.jpg,AFNE10.jpg,AFNE19.jpg,FN,3,num_2,32,num_6,0.800144846085,,,2017_Aug_23_1711,60.0133008093,MAFE4ImagesEEG,001,101255,
AFNE01.JPG,AFNE01.JPG,AFNE01.JPG,AFNE01.JPG,AFNE01.JPG,AFNE01.JPG,,,,,,,,,,,,,,,,,,,,,2,0,20,0,,,AFSA19.jpg,AFNE06.jpg,AFNE05.jpg,AFSA04.jpg,AFNE05.jpg,FN,3,num_2,32,num_6,0.666790258372,,,2017_Aug_23_1711,60.0133008093,MAFE4ImagesEEG,001,101255,
AFNE01.JPG,AFNE01.JPG,AFNE01.JPG,AFNE01.JPG,AFNE01.JPG,AFNE01.JPG,,,,,,,,,,,,,,,,,,,,,2,1,21,5,,,AFNE18.jpg,AFSA03.jpg,AFSA10.jpg,AFNE06.jpg,AFNE06.jpg,FN,3,num_4,32,num_6,0.816805669921,,,2017_Aug_23_1711,60.0133008093,MAFE4ImagesEEG,001,101255,
AFNE01.JPG,AFNE01.JPG,AFNE01.JPG,AFNE01.JPG,AFNE01.JPG,AFNE01.JPG,,,,,,,,,,,,,,,,,,,,,2,2,22,9,,,AFNE16.jpg,AFNE09.jpg,AFSA17.jpg,AFSA13.jpg,AFSA17.jpg,FS,4,num_2,32,num_4,0.899864102481,,,2017_Aug_23_1711,60.0133008093,MAFE4ImagesEEG,001,101255,
AFNE01.JPG,AFNE01.JPG,AFNE01.JPG,AFNE01.JPG,AFNE01.JPG,AFNE01.JPG,,,,,,,,,,,,,,,,,,,,,2,3,23,7,,,AFNE11.jpg,AFSA19.jpg,AFNE06.jpg,AFSA17.jpg,AFSA19.jpg,FS,4,num_6,16,num_6,0.750209202524,,,2017_Aug_23_1711,60.0133008093,MAFE4ImagesEEG,001,101255,
AFNE01.JPG,AFNE01.JPG,AFNE01.JPG,AFNE01.JPG,AFNE01.JPG,AFNE01.JPG,,,,,,,,,,,,,,,,,,,,,2,4,24,1,,,AFNE10.jpg,AFSA03.jpg,AFSA04.jpg,AFNE13.jpg,AFSA03.jpg,FS,4,num_6,16,num_6,1.10012178484,,,2017_Aug_23_1711,60.0133008093,MAFE4ImagesEEG,001,101255,
AFNE01.JPG,AFNE01.JPG,AFNE01.JPG,AFNE01.JPG,AFNE01.JPG,AFNE01.JPG,,,,,,,,,,,,,,,,,,,,,2,5,25,6,,,AFSA06.jpg,AFNE03.jpg,AFSA12.jpg,AFNE01.jpg,AFNE03.jpg,FN,3,num_6,16,num_6,1.75003279559,,,2017_Aug_23_1711,60.0133008093,MAFE4ImagesEEG,001,101255,
AFNE01.JPG,AFNE01.JPG,AFNE01.JPG,AFNE01.JPG,AFNE01.JPG,AFNE01.JPG,,,,,,,,,,,,,,,,,,,,,2,6,26,4,,,AFSA11.jpg,AFNE18.jpg,AFSA02.jpg,AFNE05.jpg,AFSA02.jpg,FS,4,num_2,32,num_8,1.43343929504,,,2017_Aug_23_1711,60.0133008093,MAFE4ImagesEEG,001,101255,
AFNE01.JPG,AFNE01.JPG,AFNE01.JPG,AFNE01.JPG,AFNE01.JPG,AFNE01.JPG,,,,,,,,,,,,,,,,,,,,,2,7,27,3,,,AFSA12.jpg,AFNE12.jpg,AFSA20.jpg,AFNE07.jpg,AFNE12.jpg,FN,3,num_6,16,num_6,0.866768576321,,,2017_Aug_23_1711,60.0133008093,MAFE4ImagesEEG,001,101255,
AFNE01.JPG,AFNE01.JPG,AFNE01.JPG,AFNE01.JPG,AFNE01.JPG,AFNE01.JPG,,,,,,,,,,,,,,,,,,,,,2,8,28,8,,,AFSA01.jpg,AFNE06.jpg,AFSA09.jpg,AFNE08.jpg,AFSA09.jpg,FS,4,num_2,16,num_2,1.20005882357,,,2017_Aug_23_1711,60.0133008093,MAFE4ImagesEEG,001,101255,
AFNE01.JPG,AFNE01.JPG,AFNE01.JPG,AFNE01.JPG,AFNE01.JPG,AFNE01.JPG,,,,,,,,,,,,,,,,,,,,,2,9,29,2,,,AFNE04.jpg,AFSA13.jpg,AFSA16.jpg,AFNE14.jpg,AFNE04.jpg,FN,3,num_8,16,num_8,0.566818258958,,,2017_Aug_23_1711,60.0133008093,MAFE4ImagesEEG,001,101255,
AFNE01.JPG,AFNE01.JPG,AFNE01.JPG,AFNE01.JPG,AFNE01.JPG,AFNE01.JPG,,,,,,,,,,,,,,,,,,,,,3,0,30,3,,,AFNE12.jpg,AFNE04.jpg,AFSA11.jpg,AFSA14.jpg,AFSA11.jpg,FS,4,num_2,16,num_2,0.816764294519,,,2017_Aug_23_1711,60.0133008093,MAFE4ImagesEEG,001,101255,
AFNE01.JPG,AFNE01.JPG,AFNE01.JPG,AFNE01.JPG,AFNE01.JPG,AFNE01.JPG,,,,,,,,,,,,,,,,,,,,,3,1,31,4,,,AFNE10.jpg,AFSA12.jpg,AFSA19.jpg,AFNE01.jpg,AFNE10.jpg,FN,3,num_8,16,num_8,1.01672882063,,,2017_Aug_23_1711,60.0133008093,MAFE4ImagesEEG,001,101255,
AFNE01.JPG,AFNE01.JPG,AFNE01.JPG,AFNE01.JPG,AFNE01.JPG,AFNE01.JPG,,,,,,,,,,,,,,,,,,,,,3,2,32,8,,,AFNE03.jpg,AFNE06.jpg,AFSA06.jpg,AFSA11.jpg,AFNE06.jpg,FN,3,num_6,16,num_6,0.733479740215,,,2017_Aug_23_1711,60.0133008093,MAFE4ImagesEEG,001,101255,
AFNE01.JPG,AFNE01.JPG,AFNE01.JPG,AFNE01.JPG,AFNE01.JPG,AFNE01.JPG,,,,,,,,,,,,,,,,,,,,,3,3,33,2,,,AFSA04.jpg,AFNE15.jpg,AFNE10.jpg,AFSA06.jpg,AFNE15.jpg,FN,3,num_6,32,num_2,0.733533303952,,,2017_Aug_23_1711,60.0133008093,MAFE4ImagesEEG,001,101255,
AFNE01.JPG,AFNE01.JPG,AFNE01.JPG,AFNE01.JPG,AFNE01.JPG,AFNE01.JPG,,,,,,,,,,,,,,,,,,,,,3,4,34,5,,,AFNE20.jpg,AFSA19.jpg,AFSA16.jpg,AFNE13.jpg,AFNE13.jpg,FN,3,num_4,16,num_4,0.616784051992,,,2017_Aug_23_1711,60.0133008093,MAFE4ImagesEEG,001,101255,
AFNE01.JPG,AFNE01.JPG,AFNE01.JPG,AFNE01.JPG,AFNE01.JPG,AFNE01.JPG,,,,,,,,,,,,,,,,,,,,,3,5,35,9,,,AFSA08.jpg,AFNE07.jpg,AFSA06.jpg,AFNE19.jpg,AFNE19.jpg,FN,3,num_4,32,num_8,0.750150507083,,,2017_Aug_23_1711,60.0133008093,MAFE4ImagesEEG,001,101255,
AFNE01.JPG,AFNE01.JPG,AFNE01.JPG,AFNE01.JPG,AFNE01.JPG,AFNE01.JPG,,,,,,,,,,,,,,,,,,,,,3,6,36,6,,,AFSA05.jpg,AFNE11.jpg,AFSA16.jpg,AFNE03.jpg,AFSA16.jpg,FS,4,num_2,16,num_2,0.966736406204,,,2017_Aug_23_1711,60.0133008093,MAFE4ImagesEEG,001,101255,
AFNE01.JPG,AFNE01.JPG,AFNE01.JPG,AFNE01.JPG,AFNE01.JPG,AFNE01.JPG,,,,,,,,,,,,,,,,,,,,,3,7,37,7,,,AFNE01.jpg,AFSA03.jpg,AFSA14.jpg,AFNE17.jpg,AFNE01.jpg,FN,3,num_8,16,num_8,1.51658913854,,,2017_Aug_23_1711,60.0133008093,MAFE4ImagesEEG,001,101255,
AFNE01.JPG,AFNE01.JPG,AFNE01.JPG,AFNE01.JPG,AFNE01.JPG,AFNE01.JPG,,,,,,,,,,,,,,,,,,,,,3,8,38,0,,,AFSA14.jpg,AFSA18.jpg,AFNE02.jpg,AFNE18.jpg,AFNE02.jpg,FN,3,num_2,32,num_4,0.683372821659,,,2017_Aug_23_1711,60.0133008093,MAFE4ImagesEEG,001,101255,
