IPosition2,IPosition3,IPosition1,IPosition6,IPosition4,IPosition5,TrialsF1.thisRepN,TrialsF1.thisTrialN,TrialsF1.thisN,TrialsF1.thisIndex,TrialsM1.thisRepN,TrialsM1.thisTrialN,TrialsM1.thisN,TrialsM1.thisIndex,TrialsF2.thisRepN,TrialsF2.thisTrialN,TrialsF2.thisN,TrialsF2.thisIndex,TrialsM2.thisRepN,TrialsM2.thisTrialN,TrialsM2.thisN,TrialsM2.thisIndex,TrialsF3.thisRepN,TrialsF3.thisTrialN,TrialsF3.thisN,TrialsF3.thisIndex,TrialsM3.thisRepN,TrialsM3.thisTrialN,TrialsM3.thisN,TrialsM3.thisIndex,InstrKey_resp.keys,InstrKey_resp.rt,Image0 _Position,Image1 _Position,Image2 _Position,Image3 _Position,Center_image,condition,code,correct_answer,accuracy,Key_Resp.keys,Key_Resp.rt,BreakKey_resp.keys,BreakKey_resp.rt,date,frameRate,expName,session,participant,
,,,,,,,,,,,,,,,,,,,,,,,,,,,,,,space,10.532803172,,,,,,,,,,,,,,2017_Aug_22_1047,60.0136473471,FEMA4ImagesEEG,001,101338,
AMSA21.JPG,AMNE22.JPG,AMNE21.JPG,AMSA23.JPG,AMSA22.JPG,AMNE23.JPG,0,0,0,1,,,,,,,,,,,,,,,,,,,,,,,AFSA17.jpg,AFSA12.jpg,AFNE12.jpg,AFNE18.jpg,AFNE12.jpg,FN,3,num_2,32,num_4,3.5166167221,,,2017_Aug_22_1047,60.0136473471,FEMA4ImagesEEG,001,101338,
AFSA21.JPG,AFNE22.JPG,AFNE21.JPG,AFSA23.JPG,AFSA22.JPG,AFNE23.JPG,0,1,1,0,,,,,,,,,,,,,,,,,,,,,,,AFNE01.jpg,AFNE09.jpg,AFSA09.jpg,AFSA06.jpg,AFNE09.jpg,FN,3,num_6,16,num_6,1.60014824593,,,2017_Aug_22_1047,60.0136473471,FEMA4ImagesEEG,001,101338,
AFSA21.JPG,AFNE23.JPG,AFNE21.JPG,AFSA25.JPG,AFNE25.JPG,AFSA23.JPG,0,2,2,4,,,,,,,,,,,,,,,,,,,,,,,AFNE09.jpg,AFNE11.jpg,AFSA16.jpg,AFSA10.jpg,AFSA10.jpg,FS,4,num_4,16,num_4,2.61667147244,,,2017_Aug_22_1047,60.0136473471,FEMA4ImagesEEG,001,101338,
AMNE23.JPG,AMNE24.JPG,AMNE22.JPG,AMSA24.JPG,AMSA22.JPG,AMSA23.JPG,0,3,3,9,,,,,,,,,,,,,,,,,,,,,,,AFNE10.jpg,AFSA05.jpg,AFNE05.jpg,AFSA09.jpg,AFSA09.jpg,FS,4,num_4,32,num_2,2.44998978451,,,2017_Aug_22_1047,60.0136473471,FEMA4ImagesEEG,001,101338,
AMSA21.JPG,AMNE23.JPG,AMNE21.JPG,AMSA25.JPG,AMNE25.JPG,AMSA23.JPG,0,4,4,5,,,,,,,,,,,,,,,,,,,,,,,AFNE10.jpg,AFSA01.jpg,AFSA03.jpg,AFNE09.jpg,AFSA01.jpg,FS,4,num_6,16,num_6,1.80006979301,,,2017_Aug_22_1047,60.0136473471,FEMA4ImagesEEG,001,101338,
AMSA25.JPG,AMNE24.JPG,AMSA24.JPG,AMNE26.JPG,AMSA21.JPG,AMNE25.JPG,0,5,5,3,,,,,,,,,,,,,,,,,,,,,,,AFSA20.jpg,AFSA02.jpg,AFNE09.jpg,AFNE04.jpg,AFSA20.jpg,FS,4,num_8,16,num_8,1.00011739065,,,2017_Aug_22_1047,60.0136473471,FEMA4ImagesEEG,001,101338,
AFSA25.JPG,AFNE24.JPG,AFSA24.JPG,AFNE21.JPG,AFSA21.JPG,AFNE25.JPG,0,6,6,2,,,,,,,,,,,,,,,,,,,,,,,AFNE05.jpg,AFSA08.jpg,AFNE10.jpg,AFSA14.jpg,AFSA14.jpg,FS,4,num_4,32,num_2,2.08332400513,,,2017_Aug_22_1047,60.0136473471,FEMA4ImagesEEG,001,101338,
AMNE22.JPG,AMSA24.JPG,AMSA22.JPG,AMNE25.JPG,AMNE24.JPG,AMSA25.JPG,0,7,7,7,,,,,,,,,,,,,,,,,,,,,,,AFNE07.jpg,AFSA09.jpg,AFSA13.jpg,AFNE13.jpg,AFNE07.jpg,FN,3,num_8,16,num_8,1.26671623171,,,2017_Aug_22_1047,60.0136473471,FEMA4ImagesEEG,001,101338,
AFNE23.JPG,AFNE24.JPG,AFNE22.JPG,AFSA24.JPG,AFSA22.JPG,AFSA23.JPG,0,8,8,8,,,,,,,,,,,,,,,,,,,,,,,AFSA11.jpg,AFNE09.jpg,AFNE05.jpg,AFSA10.jpg,AFSA11.jpg,FS,4,num_8,16,num_8,0.883462757105,,,2017_Aug_22_1047,60.0136473471,FEMA4ImagesEEG,001,101338,
AFNE22.JPG,AFSA24.JPG,AFSA22.JPG,AFNE25.JPG,AFNE24.JPG,AFSA25.JPG,0,9,9,6,,,,,,,,,,,,,,,,,,,,,,,AFSA07.jpg,AFSA11.jpg,AFNE03.jpg,AFNE04.jpg,AFSA11.jpg,FS,4,num_6,32,num_8,1.60007030622,,,2017_Aug_22_1047,60.0136473471,FEMA4ImagesEEG,001,101338,
AMSA21.JPG,AMNE23.JPG,AMNE21.JPG,AMSA25.JPG,AMNE25.JPG,AMSA23.JPG,,,,,0,0,0,5,,,,,,,,,,,,,,,,,,,AMNE20.jpg,AMSA11.jpg,AMNE18.jpg,AMSA19.jpg,AMSA19.jpg,MS,2,num_4,32,num_2,1.81668924133,,,2017_Aug_22_1047,60.0136473471,FEMA4ImagesEEG,001,101338,
AMSA21.JPG,AMNE22.JPG,AMNE21.JPG,AMSA23.JPG,AMSA22.JPG,AMNE23.JPG,,,,,0,1,1,1,,,,,,,,,,,,,,,,,,,AMNE05.jpg,AMSA18.jpg,AMNE02.jpg,AMSA16.jpg,AMNE05.jpg,MN,1,num_8,16,num_8,1.03347207466,,,2017_Aug_22_1047,60.0136473471,FEMA4ImagesEEG,001,101338,
AFNE22.JPG,AFSA24.JPG,AFSA22.JPG,AFNE25.JPG,AFNE24.JPG,AFSA25.JPG,,,,,0,2,2,6,,,,,,,,,,,,,,,,,,,AMNE14.jpg,AMNE15.jpg,AMSA17.jpg,AMSA12.jpg,AMSA12.jpg,MS,2,num_4,32,num_8,1.20010629308,,,2017_Aug_22_1047,60.0136473471,FEMA4ImagesEEG,001,101338,
AMNE22.JPG,AMSA24.JPG,AMSA22.JPG,AMNE25.JPG,AMNE24.JPG,AMSA25.JPG,,,,,0,3,3,7,,,,,,,,,,,,,,,,,,,AMSA11.jpg,AMSA18.jpg,AMNE06.jpg,AMNE10.jpg,AMSA18.jpg,MS,2,num_6,16,num_6,1.88338353438,,,2017_Aug_22_1047,60.0136473471,FEMA4ImagesEEG,001,101338,
AFSA21.JPG,AFNE22.JPG,AFNE21.JPG,AFSA23.JPG,AFSA22.JPG,AFNE23.JPG,,,,,0,4,4,0,,,,,,,,,,,,,,,,,,,AMNE18.jpg,AMSA04.jpg,AMNE09.jpg,AMSA16.jpg,AMNE09.jpg,MN,1,num_2,32,num_4,1.33345927717,,,2017_Aug_22_1047,60.0136473471,FEMA4ImagesEEG,001,101338,
AMNE23.JPG,AMNE24.JPG,AMNE22.JPG,AMSA24.JPG,AMSA22.JPG,AMSA23.JPG,,,,,0,5,5,9,,,,,,,,,,,,,,,,,,,AMSA18.jpg,AMNE17.jpg,AMNE05.jpg,AMSA02.jpg,AMSA18.jpg,MS,2,num_8,32,num_4,0.983419040334,,,2017_Aug_22_1047,60.0136473471,FEMA4ImagesEEG,001,101338,
AMSA25.JPG,AMNE24.JPG,AMSA24.JPG,AMNE26.JPG,AMSA21.JPG,AMNE25.JPG,,,,,0,6,6,3,,,,,,,,,,,,,,,,,,,AMNE10.jpg,AMSA13.jpg,AMNE03.jpg,AMSA15.jpg,AMNE03.jpg,MN,1,num_2,32,num_8,0.900133844698,,,2017_Aug_22_1047,60.0136473471,FEMA4ImagesEEG,001,101338,
AFSA21.JPG,AFNE23.JPG,AFNE21.JPG,AFSA25.JPG,AFNE25.JPG,AFSA23.JPG,,,,,0,7,7,4,,,,,,,,,,,,,,,,,,,AMNE02.jpg,AMNE18.jpg,AMSA19.jpg,AMSA03.jpg,AMSA19.jpg,MS,2,num_2,32,num_8,0.916713842191,,,2017_Aug_22_1047,60.0136473471,FEMA4ImagesEEG,001,101338,
AFSA25.JPG,AFNE24.JPG,AFSA24.JPG,AFNE21.JPG,AFSA21.JPG,AFNE25.JPG,,,,,0,8,8,2,,,,,,,,,,,,,,,,,,,AMSA02.jpg,AMNE04.jpg,AMNE19.jpg,AMSA14.jpg,AMNE04.jpg,MN,1,num_6,32,num_8,1.80013137497,,,2017_Aug_22_1047,60.0136473471,FEMA4ImagesEEG,001,101338,
AFNE23.JPG,AFNE24.JPG,AFNE22.JPG,AFSA24.JPG,AFSA22.JPG,AFSA23.JPG,,,,,0,9,9,8,,,,,,,,,,,,,,,,,,,AMNE10.jpg,AMNE06.jpg,AMSA01.jpg,AMSA20.jpg,AMNE10.jpg,MN,1,num_8,16,num_8,1.08341220859,,,2017_Aug_22_1047,60.0136473471,FEMA4ImagesEEG,001,101338,
AMSA21.JPG,AMNE22.JPG,AMNE21.JPG,AMSA23.JPG,AMSA22.JPG,AMNE23.JPG,,,,,,,,,0,0,0,1,,,,,,,,,,,,,,,AFSA07.jpg,AFNE15.jpg,AFNE07.jpg,AFSA04.jpg,AFSA04.jpg,FS,4,num_4,32,num_2,1.85008658376,,,2017_Aug_22_1047,60.0136473471,FEMA4ImagesEEG,001,101338,
AFSA25.JPG,AFNE24.JPG,AFSA24.JPG,AFNE21.JPG,AFSA21.JPG,AFNE25.JPG,,,,,,,,,0,1,1,2,,,,,,,,,,,,,,,AFSA14.jpg,AFNE10.jpg,AFSA15.jpg,AFNE17.jpg,AFNE17.jpg,FN,3,num_4,32,num_6,2.30004044529,,,2017_Aug_22_1047,60.0136473471,FEMA4ImagesEEG,001,101338,
AFSA21.JPG,AFNE22.JPG,AFNE21.JPG,AFSA23.JPG,AFSA22.JPG,AFNE23.JPG,,,,,,,,,0,2,2,0,,,,,,,,,,,,,,,AFSA06.jpg,AFSA16.jpg,AFNE14.jpg,AFNE11.jpg,AFNE14.jpg,FN,3,num_2,32,num_6,2.11666874622,,,2017_Aug_22_1047,60.0136473471,FEMA4ImagesEEG,001,101338,
AFNE23.JPG,AFNE24.JPG,AFNE22.JPG,AFSA24.JPG,AFSA22.JPG,AFSA23.JPG,,,,,,,,,0,3,3,8,,,,,,,,,,,,,,,AFSA08.jpg,AFSA01.jpg,AFNE01.jpg,AFNE14.jpg,AFSA01.jpg,FS,4,num_6,16,num_6,1.08343818854,,,2017_Aug_22_1047,60.0136473471,FEMA4ImagesEEG,001,101338,
AMNE22.JPG,AMSA24.JPG,AMSA22.JPG,AMNE25.JPG,AMNE24.JPG,AMSA25.JPG,,,,,,,,,0,4,4,7,,,,,,,,,,,,,,,AFNE16.jpg,AFNE12.jpg,AFSA14.jpg,AFSA02.jpg,AFNE12.jpg,FN,3,num_6,16,num_6,1.55011124862,,,2017_Aug_22_1047,60.0136473471,FEMA4ImagesEEG,001,101338,
AFNE22.JPG,AFSA24.JPG,AFSA22.JPG,AFNE25.JPG,AFNE24.JPG,AFSA25.JPG,,,,,,,,,0,5,5,6,,,,,,,,,,,,,,,AFNE18.jpg,AFSA15.jpg,AFNE19.jpg,AFSA03.jpg,AFSA03.jpg,FS,4,num_4,32,num_8,1.10017342388,,,2017_Aug_22_1047,60.0136473471,FEMA4ImagesEEG,001,101338,
AFSA21.JPG,AFNE23.JPG,AFNE21.JPG,AFSA25.JPG,AFNE25.JPG,AFSA23.JPG,,,,,,,,,0,6,6,4,,,,,,,,,,,,,,,AFSA07.jpg,AFSA13.jpg,AFNE20.jpg,AFNE16.jpg,AFSA13.jpg,FS,4,num_6,32,num_4,1.73337582068,,,2017_Aug_22_1047,60.0136473471,FEMA4ImagesEEG,001,101338,
AMSA21.JPG,AMNE23.JPG,AMNE21.JPG,AMSA25.JPG,AMNE25.JPG,AMSA23.JPG,,,,,,,,,0,7,7,5,,,,,,,,,,,,,,,AFSA03.jpg,AFNE07.jpg,AFNE13.jpg,AFSA13.jpg,AFSA13.jpg,FS,4,num_4,16,num_4,1.23349176813,,,2017_Aug_22_1047,60.0136473471,FEMA4ImagesEEG,001,101338,
AMNE23.JPG,AMNE24.JPG,AMNE22.JPG,AMSA24.JPG,AMSA22.JPG,AMSA23.JPG,,,,,,,,,0,8,8,9,,,,,,,,,,,,,,,AFSA17.jpg,AFNE12.jpg,AFNE10.jpg,AFSA12.jpg,AFNE12.jpg,FN,3,num_6,16,num_6,1.01706303144,,,2017_Aug_22_1047,60.0136473471,FEMA4ImagesEEG,001,101338,
AMSA25.JPG,AMNE24.JPG,AMSA24.JPG,AMNE26.JPG,AMSA21.JPG,AMNE25.JPG,,,,,,,,,0,9,9,3,,,,,,,,,,,,,,,AFNE10.jpg,AFNE16.jpg,AFSA05.jpg,AFSA20.jpg,AFSA20.jpg,FS,4,num_4,32,num_2,1.70001119387,,,2017_Aug_22_1047,60.0136473471,FEMA4ImagesEEG,001,101338,
AMSA21.JPG,AMNE22.JPG,AMNE21.JPG,AMSA23.JPG,AMSA22.JPG,AMNE23.JPG,,,,,,,,,,,,,0,0,0,1,,,,,,,,,,,AMNE05.jpg,AMNE08.jpg,AMSA14.jpg,AMSA05.jpg,AMSA14.jpg,MS,2,num_2,32,num_8,1.06672348035,,,2017_Aug_22_1047,60.0136473471,FEMA4ImagesEEG,001,101338,
AMNE23.JPG,AMNE24.JPG,AMNE22.JPG,AMSA24.JPG,AMSA22.JPG,AMSA23.JPG,,,,,,,,,,,,,0,1,1,9,,,,,,,,,,,AMSA02.jpg,AMNE03.jpg,AMSA08.jpg,AMNE19.jpg,AMNE19.jpg,MN,1,num_4,32,num_6,1.00007152499,,,2017_Aug_22_1047,60.0136473471,FEMA4ImagesEEG,001,101338,
AFNE23.JPG,AFNE24.JPG,AFNE22.JPG,AFSA24.JPG,AFSA22.JPG,AFSA23.JPG,,,,,,,,,,,,,0,2,2,8,,,,,,,,,,,AMNE05.jpg,AMNE14.jpg,AMSA15.jpg,AMSA03.jpg,AMNE14.jpg,MN,1,num_6,32,num_8,1.21676615474,,,2017_Aug_22_1047,60.0136473471,FEMA4ImagesEEG,001,101338,
AFNE22.JPG,AFSA24.JPG,AFSA22.JPG,AFNE25.JPG,AFNE24.JPG,AFSA25.JPG,,,,,,,,,,,,,0,3,3,6,,,,,,,,,,,AMNE03.jpg,AMSA13.jpg,AMNE14.jpg,AMSA11.jpg,AMNE14.jpg,MN,1,num_2,16,num_2,0.783458042308,,,2017_Aug_22_1047,60.0136473471,FEMA4ImagesEEG,001,101338,
AFSA21.JPG,AFNE23.JPG,AFNE21.JPG,AFSA25.JPG,AFNE25.JPG,AFSA23.JPG,,,,,,,,,,,,,0,4,4,4,,,,,,,,,,,AMNE19.jpg,AMNE12.jpg,AMSA19.jpg,AMSA11.jpg,AMNE19.jpg,MN,1,num_8,32,num_4,1.30011164956,,,2017_Aug_22_1047,60.0136473471,FEMA4ImagesEEG,001,101338,
AFSA21.JPG,AFNE22.JPG,AFNE21.JPG,AFSA23.JPG,AFSA22.JPG,AFNE23.JPG,,,,,,,,,,,,,0,5,5,0,,,,,,,,,,,AMSA10.jpg,AMNE02.jpg,AMSA07.jpg,AMNE12.jpg,AMSA07.jpg,MS,2,num_2,32,num_8,1.21672125126,,,2017_Aug_22_1047,60.0136473471,FEMA4ImagesEEG,001,101338,
AMSA21.JPG,AMNE23.JPG,AMNE21.JPG,AMSA25.JPG,AMNE25.JPG,AMSA23.JPG,,,,,,,,,,,,,0,6,6,5,,,,,,,,,,,AMNE08.jpg,AMSA13.jpg,AMSA10.jpg,AMNE06.jpg,AMNE06.jpg,MN,1,num_4,32,num_8,1.1001663676,,,2017_Aug_22_1047,60.0136473471,FEMA4ImagesEEG,001,101338,
AMNE22.JPG,AMSA24.JPG,AMSA22.JPG,AMNE25.JPG,AMNE24.JPG,AMSA25.JPG,,,,,,,,,,,,,0,7,7,7,,,,,,,,,,,AMNE07.jpg,AMSA06.jpg,AMNE18.jpg,AMSA12.jpg,AMSA06.jpg,MS,2,num_6,16,num_6,1.10011472856,,,2017_Aug_22_1047,60.0136473471,FEMA4ImagesEEG,001,101338,
AMSA25.JPG,AMNE24.JPG,AMSA24.JPG,AMNE26.JPG,AMSA21.JPG,AMNE25.JPG,,,,,,,,,,,,,0,8,8,3,,,,,,,,,,,AMNE07.jpg,AMNE03.jpg,AMSA13.jpg,AMSA15.jpg,AMNE03.jpg,MN,1,num_6,32,num_8,0.916747199139,,,2017_Aug_22_1047,60.0136473471,FEMA4ImagesEEG,001,101338,
AFSA25.JPG,AFNE24.JPG,AFSA24.JPG,AFNE21.JPG,AFSA21.JPG,AFNE25.JPG,,,,,,,,,,,,,0,9,9,2,,,,,,,,,,,AMSA06.jpg,AMNE14.jpg,AMNE18.jpg,AMSA19.jpg,AMSA19.jpg,MS,2,num_4,16,num_4,2.00031400414,,,2017_Aug_22_1047,60.0136473471,FEMA4ImagesEEG,001,101338,
AMNE23.JPG,AMNE24.JPG,AMNE22.JPG,AMSA24.JPG,AMSA22.JPG,AMSA23.JPG,,,,,,,,,,,,,,,,,0,0,0,9,,,,,,,AFSA19.jpg,AFNE01.jpg,AFSA04.jpg,AFNE09.jpg,AFSA04.jpg,FS,4,num_2,32,num_6,1.93338172219,,,2017_Aug_22_1047,60.0136473471,FEMA4ImagesEEG,001,101338,
AMSA21.JPG,AMNE22.JPG,AMNE21.JPG,AMSA23.JPG,AMSA22.JPG,AMNE23.JPG,,,,,,,,,,,,,,,,,0,1,1,1,,,,,,,AFSA01.jpg,AFSA06.jpg,AFNE19.jpg,AFNE14.jpg,AFSA01.jpg,FS,4,num_8,16,num_8,1.06677768542,,,2017_Aug_22_1047,60.0136473471,FEMA4ImagesEEG,001,101338,
AFSA25.JPG,AFNE24.JPG,AFSA24.JPG,AFNE21.JPG,AFSA21.JPG,AFNE25.JPG,,,,,,,,,,,,,,,,,0,2,2,2,,,,,,,AFSA08.jpg,AFNE01.jpg,AFSA07.jpg,AFNE02.jpg,AFSA08.jpg,FS,4,num_8,32,num_6,2.13337543572,,,2017_Aug_22_1047,60.0136473471,FEMA4ImagesEEG,001,101338,
AMNE22.JPG,AMSA24.JPG,AMSA22.JPG,AMNE25.JPG,AMNE24.JPG,AMSA25.JPG,,,,,,,,,,,,,,,,,0,3,3,7,,,,,,,AFSA12.jpg,AFNE14.jpg,AFSA16.jpg,AFNE16.jpg,AFSA12.jpg,FS,4,num_8,16,num_8,0.883436777163,,,2017_Aug_22_1047,60.0136473471,FEMA4ImagesEEG,001,101338,
AFSA21.JPG,AFNE23.JPG,AFNE21.JPG,AFSA25.JPG,AFNE25.JPG,AFSA23.JPG,,,,,,,,,,,,,,,,,0,4,4,4,,,,,,,AFNE08.jpg,AFSA05.jpg,AFSA18.jpg,AFNE04.jpg,AFNE08.jpg,FN,3,num_8,32,num_4,1.08344813145,,,2017_Aug_22_1047,60.0136473471,FEMA4ImagesEEG,001,101338,
AMSA21.JPG,AMNE23.JPG,AMNE21.JPG,AMSA25.JPG,AMNE25.JPG,AMSA23.JPG,,,,,,,,,,,,,,,,,0,5,5,5,,,,,,,AFNE06.jpg,AFSA09.jpg,AFSA02.jpg,AFNE14.jpg,AFSA02.jpg,FS,4,num_2,16,num_2,1.86665727966,,,2017_Aug_22_1047,60.0136473471,FEMA4ImagesEEG,001,101338,
AMSA25.JPG,AMNE24.JPG,AMSA24.JPG,AMNE26.JPG,AMSA21.JPG,AMNE25.JPG,,,,,,,,,,,,,,,,,0,6,6,3,,,,,,,AFSA06.jpg,AFNE03.jpg,AFNE14.jpg,AFSA16.jpg,AFSA16.jpg,FS,4,num_4,32,num_8,0.900150843896,,,2017_Aug_22_1047,60.0136473471,FEMA4ImagesEEG,001,101338,
AFSA21.JPG,AFNE22.JPG,AFNE21.JPG,AFSA23.JPG,AFSA22.JPG,AFNE23.JPG,,,,,,,,,,,,,,,,,0,7,7,0,,,,,,,AFNE18.jpg,AFSA09.jpg,AFNE17.jpg,AFSA20.jpg,AFNE17.jpg,FN,3,num_2,32,num_8,0.816818499588,,,2017_Aug_22_1047,60.0136473471,FEMA4ImagesEEG,001,101338,
AFNE22.JPG,AFSA24.JPG,AFSA22.JPG,AFNE25.JPG,AFNE24.JPG,AFSA25.JPG,,,,,,,,,,,,,,,,,0,8,8,6,,,,,,,AFNE12.jpg,AFSA05.jpg,AFNE03.jpg,AFSA20.jpg,AFSA20.jpg,FS,4,num_4,32,num_6,1.25012917793,,,2017_Aug_22_1047,60.0136473471,FEMA4ImagesEEG,001,101338,
AFNE23.JPG,AFNE24.JPG,AFNE22.JPG,AFSA24.JPG,AFSA22.JPG,AFSA23.JPG,,,,,,,,,,,,,,,,,0,9,9,8,,,,,,,AFNE17.jpg,AFNE12.jpg,AFSA12.jpg,AFSA17.jpg,AFSA12.jpg,FS,4,num_2,32,num_4,0.850177353015,,,2017_Aug_22_1047,60.0136473471,FEMA4ImagesEEG,001,101338,
AFSA21.JPG,AFNE23.JPG,AFNE21.JPG,AFSA25.JPG,AFNE25.JPG,AFSA23.JPG,,,,,,,,,,,,,,,,,,,,,0,0,0,4,,,AMSA01.jpg,AMNE01.jpg,AMNE18.jpg,AMSA20.jpg,AMSA20.jpg,MS,2,num_4,32,num_8,0.833427684265,,,2017_Aug_22_1047,60.0136473471,FEMA4ImagesEEG,001,101338,
AMNE22.JPG,AMSA24.JPG,AMSA22.JPG,AMNE25.JPG,AMNE24.JPG,AMSA25.JPG,,,,,,,,,,,,,,,,,,,,,0,1,1,7,,,AMSA11.jpg,AMNE15.jpg,AMNE10.jpg,AMSA07.jpg,AMNE10.jpg,MN,1,num_2,32,num_6,1.48341471038,,,2017_Aug_22_1047,60.0136473471,FEMA4ImagesEEG,001,101338,
AMSA25.JPG,AMNE24.JPG,AMSA24.JPG,AMNE26.JPG,AMSA21.JPG,AMNE25.JPG,,,,,,,,,,,,,,,,,,,,,0,2,2,3,,,AMSA04.jpg,AMSA14.jpg,AMNE12.jpg,AMNE18.jpg,AMSA14.jpg,MS,2,num_6,32,num_8,0.950073978514,,,2017_Aug_22_1047,60.0136473471,FEMA4ImagesEEG,001,101338,
AMNE23.JPG,AMNE24.JPG,AMNE22.JPG,AMSA24.JPG,AMSA22.JPG,AMSA23.JPG,,,,,,,,,,,,,,,,,,,,,0,3,3,9,,,AMNE15.jpg,AMSA19.jpg,AMNE17.jpg,AMSA08.jpg,AMSA08.jpg,MS,2,num_4,32,num_6,1.1168448322,,,2017_Aug_22_1047,60.0136473471,FEMA4ImagesEEG,001,101338,
AFNE23.JPG,AFNE24.JPG,AFNE22.JPG,AFSA24.JPG,AFSA22.JPG,AFSA23.JPG,,,,,,,,,,,,,,,,,,,,,0,4,4,8,,,AMSA04.jpg,AMSA17.jpg,AMNE01.jpg,AMNE17.jpg,AMSA04.jpg,MS,2,num_8,16,num_8,0.800094810664,,,2017_Aug_22_1047,60.0136473471,FEMA4ImagesEEG,001,101338,
AFSA25.JPG,AFNE24.JPG,AFSA24.JPG,AFNE21.JPG,AFSA21.JPG,AFNE25.JPG,,,,,,,,,,,,,,,,,,,,,0,5,5,2,,,AMNE08.jpg,AMSA02.jpg,AMSA08.jpg,AMNE06.jpg,AMNE08.jpg,MN,1,num_8,32,num_6,1.38340518437,,,2017_Aug_22_1047,60.0136473471,FEMA4ImagesEEG,001,101338,
AMSA21.JPG,AMNE23.JPG,AMNE21.JPG,AMSA25.JPG,AMNE25.JPG,AMSA23.JPG,,,,,,,,,,,,,,,,,,,,,0,6,6,5,,,AMSA16.jpg,AMNE12.jpg,AMNE02.jpg,AMSA17.jpg,AMSA17.jpg,MS,2,num_4,16,num_4,1.11678549531,,,2017_Aug_22_1047,60.0136473471,FEMA4ImagesEEG,001,101338,
AFNE22.JPG,AFSA24.JPG,AFSA22.JPG,AFNE25.JPG,AFNE24.JPG,AFSA25.JPG,,,,,,,,,,,,,,,,,,,,,0,7,7,6,,,AMSA13.jpg,AMNE17.jpg,AMSA16.jpg,AMNE03.jpg,AMNE03.jpg,MN,1,num_4,32,num_8,0.916790819727,,,2017_Aug_22_1047,60.0136473471,FEMA4ImagesEEG,001,101338,
AMSA21.JPG,AMNE22.JPG,AMNE21.JPG,AMSA23.JPG,AMSA22.JPG,AMNE23.JPG,,,,,,,,,,,,,,,,,,,,,0,8,8,1,,,AMSA01.jpg,AMNE17.jpg,AMSA06.jpg,AMNE07.jpg,AMSA06.jpg,MS,2,num_2,16,num_2,1.59996478271,,,2017_Aug_22_1047,60.0136473471,FEMA4ImagesEEG,001,101338,
AFSA21.JPG,AFNE22.JPG,AFNE21.JPG,AFSA23.JPG,AFSA22.JPG,AFNE23.JPG,,,,,,,,,,,,,,,,,,,,,0,9,9,0,,,AMSA16.jpg,AMNE08.jpg,AMNE18.jpg,AMSA12.jpg,AMNE08.jpg,MN,1,num_6,32,num_8,0.900148277986,,,2017_Aug_22_1047,60.0136473471,FEMA4ImagesEEG,001,101338,
,,,,,,,,,,,,,,,,,,,,,,,,,,,,,,,,,,,,,,,,,,,space,4.18321549892,2017_Aug_22_1047,60.0136473471,FEMA4ImagesEEG,001,101338,
AFNE01.JPG,AFNE01.JPG,AFNE01.JPG,AFNE01.JPG,AFNE01.JPG,AFNE01.JPG,0,0,0,2,,,,,,,,,,,,,,,,,,,,,,,AFNE04.jpg,AFSA02.jpg,AFNE17.jpg,AFSA06.jpg,AFSA02.jpg,FS,4,num_6,32,num_8,1.200123613,,,2017_Aug_22_1047,60.0136473471,FEMA4ImagesEEG,001,101338,
AFNE01.JPG,AFNE01.JPG,AFNE01.JPG,AFNE01.JPG,AFNE01.JPG,AFNE01.JPG,0,1,1,5,,,,,,,,,,,,,,,,,,,,,,,AFSA14.jpg,AFNE03.jpg,AFNE11.jpg,AFSA03.jpg,AFSA14.jpg,FS,4,num_8,32,num_2,1.98335489235,,,2017_Aug_22_1047,60.0136473471,FEMA4ImagesEEG,001,101338,
AFNE01.JPG,AFNE01.JPG,AFNE01.JPG,AFNE01.JPG,AFNE01.JPG,AFNE01.JPG,0,2,2,8,,,,,,,,,,,,,,,,,,,,,,,AFSA11.jpg,AFNE15.jpg,AFNE14.jpg,AFSA20.jpg,AFNE14.jpg,FN,3,num_2,32,num_8,1.11678357085,,,2017_Aug_22_1047,60.0136473471,FEMA4ImagesEEG,001,101338,
AFNE01.JPG,AFNE01.JPG,AFNE01.JPG,AFNE01.JPG,AFNE01.JPG,AFNE01.JPG,0,3,3,3,,,,,,,,,,,,,,,,,,,,,,,AFNE14.jpg,AFSA04.jpg,AFNE17.jpg,AFSA16.jpg,AFSA16.jpg,FS,4,num_4,32,num_6,1.0000631857,,,2017_Aug_22_1047,60.0136473471,FEMA4ImagesEEG,001,101338,
AFNE01.JPG,AFNE01.JPG,AFNE01.JPG,AFNE01.JPG,AFNE01.JPG,AFNE01.JPG,0,4,4,6,,,,,,,,,,,,,,,,,,,,,,,AFNE20.jpg,AFSA20.jpg,AFNE17.jpg,AFSA05.jpg,AFNE20.jpg,FN,3,num_8,32,num_4,2.0167246511,,,2017_Aug_22_1047,60.0136473471,FEMA4ImagesEEG,001,101338,
AFNE01.JPG,AFNE01.JPG,AFNE01.JPG,AFNE01.JPG,AFNE01.JPG,AFNE01.JPG,0,5,5,4,,,,,,,,,,,,,,,,,,,,,,,AFNE01.jpg,AFNE03.jpg,AFSA01.jpg,AFSA09.jpg,AFNE01.jpg,FN,3,num_8,32,num_2,1.66669564019,,,2017_Aug_22_1047,60.0136473471,FEMA4ImagesEEG,001,101338,
AFNE01.JPG,AFNE01.JPG,AFNE01.JPG,AFNE01.JPG,AFNE01.JPG,AFNE01.JPG,0,6,6,1,,,,,,,,,,,,,,,,,,,,,,,AFSA20.jpg,AFSA16.jpg,AFNE14.jpg,AFNE03.jpg,AFNE14.jpg,FN,3,num_2,32,num_6,1.48339129635,,,2017_Aug_22_1047,60.0136473471,FEMA4ImagesEEG,001,101338,
AFNE01.JPG,AFNE01.JPG,AFNE01.JPG,AFNE01.JPG,AFNE01.JPG,AFNE01.JPG,0,7,7,0,,,,,,,,,,,,,,,,,,,,,,,AFSA05.jpg,AFNE09.jpg,AFSA16.jpg,AFNE13.jpg,AFSA16.jpg,FS,4,num_2,32,num_8,1.21677962586,,,2017_Aug_22_1047,60.0136473471,FEMA4ImagesEEG,001,101338,
AFNE01.JPG,AFNE01.JPG,AFNE01.JPG,AFNE01.JPG,AFNE01.JPG,AFNE01.JPG,0,8,8,9,,,,,,,,,,,,,,,,,,,,,,,AFSA11.jpg,AFNE12.jpg,AFNE10.jpg,AFSA02.jpg,AFSA11.jpg,FS,4,num_8,32,num_6,1.10008137173,,,2017_Aug_22_1047,60.0136473471,FEMA4ImagesEEG,001,101338,
AFNE01.JPG,AFNE01.JPG,AFNE01.JPG,AFNE01.JPG,AFNE01.JPG,AFNE01.JPG,0,9,9,7,,,,,,,,,,,,,,,,,,,,,,,AFSA17.jpg,AFSA09.jpg,AFNE18.jpg,AFNE15.jpg,AFNE18.jpg,FN,3,num_2,32,num_8,1.35010310169,,,2017_Aug_22_1047,60.0136473471,FEMA4ImagesEEG,001,101338,
AFNE01.JPG,AFNE01.JPG,AFNE01.JPG,AFNE01.JPG,AFNE01.JPG,AFNE01.JPG,1,0,10,4,,,,,,,,,,,,,,,,,,,,,,,AFNE10.jpg,AFSA11.jpg,AFNE17.jpg,AFSA12.jpg,AFNE10.jpg,FN,3,num_8,16,num_8,1.36677611363,,,2017_Aug_22_1047,60.0136473471,FEMA4ImagesEEG,001,101338,
AFNE01.JPG,AFNE01.JPG,AFNE01.JPG,AFNE01.JPG,AFNE01.JPG,AFNE01.JPG,1,1,11,1,,,,,,,,,,,,,,,,,,,,,,,AFSA16.jpg,AFSA14.jpg,AFNE05.jpg,AFNE08.jpg,AFNE08.jpg,FN,3,num_4,16,num_4,0.816723239725,,,2017_Aug_22_1047,60.0136473471,FEMA4ImagesEEG,001,101338,
AFNE01.JPG,AFNE01.JPG,AFNE01.JPG,AFNE01.JPG,AFNE01.JPG,AFNE01.JPG,1,2,12,9,,,,,,,,,,,,,,,,,,,,,,,AFSA08.jpg,AFNE15.jpg,AFSA20.jpg,AFNE09.jpg,AFNE09.jpg,FN,3,num_4,32,num_8,1.4499166559,,,2017_Aug_22_1047,60.0136473471,FEMA4ImagesEEG,001,101338,
AFNE01.JPG,AFNE01.JPG,AFNE01.JPG,AFNE01.JPG,AFNE01.JPG,AFNE01.JPG,1,3,13,3,,,,,,,,,,,,,,,,,,,,,,,AFSA17.jpg,AFNE02.jpg,AFSA14.jpg,AFNE01.jpg,AFSA17.jpg,FS,4,num_8,32,num_6,1.60007704177,,,2017_Aug_22_1047,60.0136473471,FEMA4ImagesEEG,001,101338,
AFNE01.JPG,AFNE01.JPG,AFNE01.JPG,AFNE01.JPG,AFNE01.JPG,AFNE01.JPG,1,4,14,7,,,,,,,,,,,,,,,,,,,,,,,AFNE08.jpg,AFSA11.jpg,AFSA04.jpg,AFNE17.jpg,AFNE17.jpg,FN,3,num_4,32,num_8,1.33336080995,,,2017_Aug_22_1047,60.0136473471,FEMA4ImagesEEG,001,101338,
AFNE01.JPG,AFNE01.JPG,AFNE01.JPG,AFNE01.JPG,AFNE01.JPG,AFNE01.JPG,1,5,15,6,,,,,,,,,,,,,,,,,,,,,,,AFNE06.jpg,AFSA17.jpg,AFSA06.jpg,AFNE01.jpg,AFNE01.jpg,FN,3,num_4,16,num_4,1.51669819001,,,2017_Aug_22_1047,60.0136473471,FEMA4ImagesEEG,001,101338,
AFNE01.JPG,AFNE01.JPG,AFNE01.JPG,AFNE01.JPG,AFNE01.JPG,AFNE01.JPG,1,6,16,5,,,,,,,,,,,,,,,,,,,,,,,AFSA01.jpg,AFNE01.jpg,AFNE09.jpg,AFSA17.jpg,AFNE09.jpg,FN,3,num_2,32,num_8,1.15015204658,,,2017_Aug_22_1047,60.0136473471,FEMA4ImagesEEG,001,101338,
AFNE01.JPG,AFNE01.JPG,AFNE01.JPG,AFNE01.JPG,AFNE01.JPG,AFNE01.JPG,1,7,17,0,,,,,,,,,,,,,,,,,,,,,,,AFNE06.jpg,AFSA18.jpg,AFNE15.jpg,AFSA05.jpg,AFNE06.jpg,FN,3,num_8,16,num_8,1.59993848216,,,2017_Aug_22_1047,60.0136473471,FEMA4ImagesEEG,001,101338,
AFNE01.JPG,AFNE01.JPG,AFNE01.JPG,AFNE01.JPG,AFNE01.JPG,AFNE01.JPG,1,8,18,2,,,,,,,,,,,,,,,,,,,,,,,AFSA12.jpg,AFNE10.jpg,AFSA15.jpg,AFNE15.jpg,AFSA15.jpg,FS,4,num_2,16,num_2,3.79989017872,,,2017_Aug_22_1047,60.0136473471,FEMA4ImagesEEG,001,101338,
AFNE01.JPG,AFNE01.JPG,AFNE01.JPG,AFNE01.JPG,AFNE01.JPG,AFNE01.JPG,1,9,19,8,,,,,,,,,,,,,,,,,,,,,,,AFSA04.jpg,AFSA08.jpg,AFNE01.jpg,AFNE17.jpg,AFSA08.jpg,FS,4,num_6,16,num_6,1.00016806764,,,2017_Aug_22_1047,60.0136473471,FEMA4ImagesEEG,001,101338,
AFNE01.JPG,AFNE01.JPG,AFNE01.JPG,AFNE01.JPG,AFNE01.JPG,AFNE01.JPG,2,0,20,3,,,,,,,,,,,,,,,,,,,,,,,AFSA11.jpg,AFNE08.jpg,AFNE06.jpg,AFSA18.jpg,AFNE08.jpg,FN,3,num_6,16,num_6,1.05012167257,,,2017_Aug_22_1047,60.0136473471,FEMA4ImagesEEG,001,101338,
AFNE01.JPG,AFNE01.JPG,AFNE01.JPG,AFNE01.JPG,AFNE01.JPG,AFNE01.JPG,2,1,21,2,,,,,,,,,,,,,,,,,,,,,,,AFNE17.jpg,AFSA18.jpg,AFNE09.jpg,AFSA04.jpg,AFSA04.jpg,FS,4,num_4,32,num_6,2.15006865433,,,2017_Aug_22_1047,60.0136473471,FEMA4ImagesEEG,001,101338,
AFNE01.JPG,AFNE01.JPG,AFNE01.JPG,AFNE01.JPG,AFNE01.JPG,AFNE01.JPG,2,2,22,7,,,,,,,,,,,,,,,,,,,,,,,AFSA06.jpg,AFSA01.jpg,AFNE01.jpg,AFNE08.jpg,AFNE08.jpg,FN,3,num_4,32,num_2,1.76678182289,,,2017_Aug_22_1047,60.0136473471,FEMA4ImagesEEG,001,101338,
AFNE01.JPG,AFNE01.JPG,AFNE01.JPG,AFNE01.JPG,AFNE01.JPG,AFNE01.JPG,2,3,23,0,,,,,,,,,,,,,,,,,,,,,,,AFNE10.jpg,AFNE19.jpg,AFSA07.jpg,AFSA03.jpg,AFNE10.jpg,FN,3,num_8,16,num_8,0.933482755325,,,2017_Aug_22_1047,60.0136473471,FEMA4ImagesEEG,001,101338,
AFNE01.JPG,AFNE01.JPG,AFNE01.JPG,AFNE01.JPG,AFNE01.JPG,AFNE01.JPG,2,4,24,5,,,,,,,,,,,,,,,,,,,,,,,AFSA15.jpg,AFNE10.jpg,AFSA10.jpg,AFNE01.jpg,AFNE01.jpg,FN,3,num_4,32,num_8,1.41675120837,,,2017_Aug_22_1047,60.0136473471,FEMA4ImagesEEG,001,101338,
AFNE01.JPG,AFNE01.JPG,AFNE01.JPG,AFNE01.JPG,AFNE01.JPG,AFNE01.JPG,2,5,25,6,,,,,,,,,,,,,,,,,,,,,,,AFNE20.jpg,AFSA13.jpg,AFSA20.jpg,AFNE16.jpg,AFSA20.jpg,FS,4,num_2,16,num_2,1.63339740643,,,2017_Aug_22_1047,60.0136473471,FEMA4ImagesEEG,001,101338,
AFNE01.JPG,AFNE01.JPG,AFNE01.JPG,AFNE01.JPG,AFNE01.JPG,AFNE01.JPG,2,6,26,4,,,,,,,,,,,,,,,,,,,,,,,AFSA20.jpg,AFSA04.jpg,AFNE01.jpg,AFNE19.jpg,AFNE01.jpg,FN,3,num_2,32,num_8,1.00013984251,,,2017_Aug_22_1047,60.0136473471,FEMA4ImagesEEG,001,101338,
AFNE01.JPG,AFNE01.JPG,AFNE01.JPG,AFNE01.JPG,AFNE01.JPG,AFNE01.JPG,2,7,27,1,,,,,,,,,,,,,,,,,,,,,,,AFSA16.jpg,AFNE04.jpg,AFSA10.jpg,AFNE19.jpg,AFSA10.jpg,FS,4,num_2,32,num_4,1.33343265578,,,2017_Aug_22_1047,60.0136473471,FEMA4ImagesEEG,001,101338,
AFNE01.JPG,AFNE01.JPG,AFNE01.JPG,AFNE01.JPG,AFNE01.JPG,AFNE01.JPG,2,8,28,8,,,,,,,,,,,,,,,,,,,,,,,AFSA15.jpg,AFNE08.jpg,AFSA16.jpg,AFNE01.jpg,AFNE01.jpg,FN,3,num_4,16,num_4,1.33339929883,,,2017_Aug_22_1047,60.0136473471,FEMA4ImagesEEG,001,101338,
AFNE01.JPG,AFNE01.JPG,AFNE01.JPG,AFNE01.JPG,AFNE01.JPG,AFNE01.JPG,2,9,29,9,,,,,,,,,,,,,,,,,,,,,,,AFSA17.jpg,AFNE13.jpg,AFNE20.jpg,AFSA16.jpg,AFNE13.jpg,FN,3,num_6,16,num_6,1.75003664452,,,2017_Aug_22_1047,60.0136473471,FEMA4ImagesEEG,001,101338,
AFNE01.JPG,AFNE01.JPG,AFNE01.JPG,AFNE01.JPG,AFNE01.JPG,AFNE01.JPG,3,0,30,4,,,,,,,,,,,,,,,,,,,,,,,AFSA14.jpg,AFNE14.jpg,AFSA16.jpg,AFNE02.jpg,AFNE14.jpg,FN,3,num_6,32,num_4,1.10012659593,,,2017_Aug_22_1047,60.0136473471,FEMA4ImagesEEG,001,101338,
AFNE01.JPG,AFNE01.JPG,AFNE01.JPG,AFNE01.JPG,AFNE01.JPG,AFNE01.JPG,3,1,31,5,,,,,,,,,,,,,,,,,,,,,,,AFNE16.jpg,AFSA06.jpg,AFNE13.jpg,AFSA14.jpg,AFSA06.jpg,FS,4,num_6,32,num_2,1.93341219262,,,2017_Aug_22_1047,60.0136473471,FEMA4ImagesEEG,001,101338,
AFNE01.JPG,AFNE01.JPG,AFNE01.JPG,AFNE01.JPG,AFNE01.JPG,AFNE01.JPG,3,2,32,6,,,,,,,,,,,,,,,,,,,,,,,AFNE16.jpg,AFNE05.jpg,AFSA14.jpg,AFSA19.jpg,AFSA14.jpg,FS,4,num_2,16,num_2,1.13342547114,,,2017_Aug_22_1047,60.0136473471,FEMA4ImagesEEG,001,101338,
AFNE01.JPG,AFNE01.JPG,AFNE01.JPG,AFNE01.JPG,AFNE01.JPG,AFNE01.JPG,3,3,33,0,,,,,,,,,,,,,,,,,,,,,,,AFSA13.jpg,AFNE03.jpg,AFSA02.jpg,AFNE12.jpg,AFSA02.jpg,FS,4,num_2,16,num_2,1.40009423334,,,2017_Aug_22_1047,60.0136473471,FEMA4ImagesEEG,001,101338,
AFNE01.JPG,AFNE01.JPG,AFNE01.JPG,AFNE01.JPG,AFNE01.JPG,AFNE01.JPG,3,4,34,8,,,,,,,,,,,,,,,,,,,,,,,AFNE04.jpg,AFSA09.jpg,AFNE01.jpg,AFSA19.jpg,AFNE04.jpg,FN,3,num_8,32,num_6,0.98349056521,,,2017_Aug_22_1047,60.0136473471,FEMA4ImagesEEG,001,101338,
AFNE01.JPG,AFNE01.JPG,AFNE01.JPG,AFNE01.JPG,AFNE01.JPG,AFNE01.JPG,3,5,35,7,,,,,,,,,,,,,,,,,,,,,,,AFNE05.jpg,AFSA15.jpg,AFNE14.jpg,AFSA01.jpg,AFSA15.jpg,FS,4,num_6,32,num_8,1.0667651766,,,2017_Aug_22_1047,60.0136473471,FEMA4ImagesEEG,001,101338,
AFNE01.JPG,AFNE01.JPG,AFNE01.JPG,AFNE01.JPG,AFNE01.JPG,AFNE01.JPG,3,6,36,9,,,,,,,,,,,,,,,,,,,,,,,AFNE08.jpg,AFSA18.jpg,AFNE02.jpg,AFSA15.jpg,AFSA15.jpg,FS,4,num_4,16,num_4,1.13344118744,,,2017_Aug_22_1047,60.0136473471,FEMA4ImagesEEG,001,101338,
AFNE01.JPG,AFNE01.JPG,AFNE01.JPG,AFNE01.JPG,AFNE01.JPG,AFNE01.JPG,3,7,37,1,,,,,,,,,,,,,,,,,,,,,,,AFNE12.jpg,AFNE02.jpg,AFSA11.jpg,AFSA18.jpg,AFSA18.jpg,FS,4,num_4,32,num_2,1.85013148724,,,2017_Aug_22_1047,60.0136473471,FEMA4ImagesEEG,001,101338,
AFNE01.JPG,AFNE01.JPG,AFNE01.JPG,AFNE01.JPG,AFNE01.JPG,AFNE01.JPG,3,8,38,3,,,,,,,,,,,,,,,,,,,,,,,AFSA02.jpg,AFNE13.jpg,AFNE01.jpg,AFSA19.jpg,AFSA19.jpg,FS,4,num_4,32,num_6,1.18341852713,,,2017_Aug_22_1047,60.0136473471,FEMA4ImagesEEG,001,101338,
AFNE01.JPG,AFNE01.JPG,AFNE01.JPG,AFNE01.JPG,AFNE01.JPG,AFNE01.JPG,3,9,39,2,,,,,,,,,,,,,,,,,,,,,,,AFSA07.jpg,AFNE10.jpg,AFSA12.jpg,AFNE12.jpg,AFNE12.jpg,FN,3,num_4,32,num_8,0.750238710549,,,2017_Aug_22_1047,60.0136473471,FEMA4ImagesEEG,001,101338,
AFNE01.JPG,AFNE01.JPG,AFNE01.JPG,AFNE01.JPG,AFNE01.JPG,AFNE01.JPG,4,0,40,4,,,,,,,,,,,,,,,,,,,,,,,AFNE09.jpg,AFSA06.jpg,AFSA14.jpg,AFNE01.jpg,AFSA06.jpg,FS,4,num_6,16,num_6,1.41675954754,,,2017_Aug_22_1047,60.0136473471,FEMA4ImagesEEG,001,101338,
AFNE01.JPG,AFNE01.JPG,AFNE01.JPG,AFNE01.JPG,AFNE01.JPG,AFNE01.JPG,4,1,41,9,,,,,,,,,,,,,,,,,,,,,,,AFSA05.jpg,AFNE15.jpg,AFNE02.jpg,AFSA18.jpg,AFNE02.jpg,FN,3,num_2,32,num_8,1.06674913957,,,2017_Aug_22_1047,60.0136473471,FEMA4ImagesEEG,001,101338,
AFNE01.JPG,AFNE01.JPG,AFNE01.JPG,AFNE01.JPG,AFNE01.JPG,AFNE01.JPG,4,2,42,1,,,,,,,,,,,,,,,,,,,,,,,AFSA17.jpg,AFSA07.jpg,AFNE16.jpg,AFNE02.jpg,AFSA07.jpg,FS,4,num_6,16,num_6,0.850156184286,,,2017_Aug_22_1047,60.0136473471,FEMA4ImagesEEG,001,101338,
AFNE01.JPG,AFNE01.JPG,AFNE01.JPG,AFNE01.JPG,AFNE01.JPG,AFNE01.JPG,4,3,43,0,,,,,,,,,,,,,,,,,,,,,,,AFSA08.jpg,AFSA01.jpg,AFNE03.jpg,AFNE19.jpg,AFNE19.jpg,FN,3,num_4,32,num_8,0.916666372679,,,2017_Aug_22_1047,60.0136473471,FEMA4ImagesEEG,001,101338,
AFNE01.JPG,AFNE01.JPG,AFNE01.JPG,AFNE01.JPG,AFNE01.JPG,AFNE01.JPG,4,4,44,8,,,,,,,,,,,,,,,,,,,,,,,AFNE16.jpg,AFSA03.jpg,AFSA01.jpg,AFNE19.jpg,AFNE16.jpg,FN,3,num_8,16,num_8,1.11672038515,,,2017_Aug_22_1047,60.0136473471,FEMA4ImagesEEG,001,101338,
AFNE01.JPG,AFNE01.JPG,AFNE01.JPG,AFNE01.JPG,AFNE01.JPG,AFNE01.JPG,4,5,45,3,,,,,,,,,,,,,,,,,,,,,,,AFNE17.jpg,AFSA12.jpg,AFNE15.jpg,AFSA13.jpg,AFSA13.jpg,FS,4,num_4,32,num_6,1.13340654748,,,2017_Aug_22_1047,60.0136473471,FEMA4ImagesEEG,001,101338,
AFNE01.JPG,AFNE01.JPG,AFNE01.JPG,AFNE01.JPG,AFNE01.JPG,AFNE01.JPG,4,6,46,6,,,,,,,,,,,,,,,,,,,,,,,AFSA04.jpg,AFSA05.jpg,AFNE19.jpg,AFNE01.jpg,AFNE19.jpg,FN,3,num_2,32,num_8,0.916733086458,,,2017_Aug_22_1047,60.0136473471,FEMA4ImagesEEG,001,101338,
AFNE01.JPG,AFNE01.JPG,AFNE01.JPG,AFNE01.JPG,AFNE01.JPG,AFNE01.JPG,4,7,47,5,,,,,,,,,,,,,,,,,,,,,,,AFNE09.jpg,AFNE12.jpg,AFSA03.jpg,AFSA02.jpg,AFNE12.jpg,FN,3,num_6,32,num_2,1.88339508104,,,2017_Aug_22_1047,60.0136473471,FEMA4ImagesEEG,001,101338,
AFNE01.JPG,AFNE01.JPG,AFNE01.JPG,AFNE01.JPG,AFNE01.JPG,AFNE01.JPG,4,8,48,7,,,,,,,,,,,,,,,,,,,,,,,AFSA06.jpg,AFNE10.jpg,AFNE18.jpg,AFSA01.jpg,AFSA01.jpg,FS,4,num_4,32,num_8,1.65008966287,,,2017_Aug_22_1047,60.0136473471,FEMA4ImagesEEG,001,101338,
AFNE01.JPG,AFNE01.JPG,AFNE01.JPG,AFNE01.JPG,AFNE01.JPG,AFNE01.JPG,4,9,49,2,,,,,,,,,,,,,,,,,,,,,,,AFNE17.jpg,AFSA16.jpg,AFSA14.jpg,AFNE20.jpg,AFNE20.jpg,FN,3,num_4,16,num_4,0.533465499408,,,2017_Aug_22_1047,60.0136473471,FEMA4ImagesEEG,001,101338,
AFNE01.JPG,AFNE01.JPG,AFNE01.JPG,AFNE01.JPG,AFNE01.JPG,AFNE01.JPG,5,0,50,0,,,,,,,,,,,,,,,,,,,,,,,AFNE07.jpg,AFSA01.jpg,AFNE05.jpg,AFSA02.jpg,AFNE07.jpg,FN,3,num_8,32,num_2,1.6503391983,,,2017_Aug_22_1047,60.0136473471,FEMA4ImagesEEG,001,101338,
AFNE01.JPG,AFNE01.JPG,AFNE01.JPG,AFNE01.JPG,AFNE01.JPG,AFNE01.JPG,5,1,51,6,,,,,,,,,,,,,,,,,,,,,,,AFSA05.jpg,AFNE12.jpg,AFNE04.jpg,AFSA19.jpg,AFSA19.jpg,FS,4,num_4,32,num_6,1.26678903948,,,2017_Aug_22_1047,60.0136473471,FEMA4ImagesEEG,001,101338,
AFNE01.JPG,AFNE01.JPG,AFNE01.JPG,AFNE01.JPG,AFNE01.JPG,AFNE01.JPG,5,2,52,9,,,,,,,,,,,,,,,,,,,,,,,AFNE02.jpg,AFNE06.jpg,AFSA05.jpg,AFSA11.jpg,AFNE02.jpg,FN,3,num_8,16,num_8,0.866768576438,,,2017_Aug_22_1047,60.0136473471,FEMA4ImagesEEG,001,101338,
AFNE01.JPG,AFNE01.JPG,AFNE01.JPG,AFNE01.JPG,AFNE01.JPG,AFNE01.JPG,5,3,53,8,,,,,,,,,,,,,,,,,,,,,,,AFNE15.jpg,AFNE16.jpg,AFSA04.jpg,AFSA16.jpg,AFSA16.jpg,FS,4,num_4,32,num_8,0.916833478026,,,2017_Aug_22_1047,60.0136473471,FEMA4ImagesEEG,001,101338,
AFNE01.JPG,AFNE01.JPG,AFNE01.JPG,AFNE01.JPG,AFNE01.JPG,AFNE01.JPG,5,4,54,2,,,,,,,,,,,,,,,,,,,,,,,AFSA02.jpg,AFSA19.jpg,AFNE17.jpg,AFNE03.jpg,AFNE17.jpg,FN,3,num_2,32,num_8,1.0167490273,,,2017_Aug_22_1047,60.0136473471,FEMA4ImagesEEG,001,101338,
AFNE01.JPG,AFNE01.JPG,AFNE01.JPG,AFNE01.JPG,AFNE01.JPG,AFNE01.JPG,5,5,55,7,,,,,,,,,,,,,,,,,,,,,,,AFNE12.jpg,AFSA20.jpg,AFSA18.jpg,AFNE18.jpg,AFNE12.jpg,FN,3,num_8,32,num_6,1.00009782566,,,2017_Aug_22_1047,60.0136473471,FEMA4ImagesEEG,001,101338,
AFNE01.JPG,AFNE01.JPG,AFNE01.JPG,AFNE01.JPG,AFNE01.JPG,AFNE01.JPG,5,6,56,3,,,,,,,,,,,,,,,,,,,,,,,AFNE19.jpg,AFSA10.jpg,AFSA07.jpg,AFNE12.jpg,AFNE19.jpg,FN,3,num_8,32,num_6,1.61674075224,,,2017_Aug_22_1047,60.0136473471,FEMA4ImagesEEG,001,101338,
AFNE01.JPG,AFNE01.JPG,AFNE01.JPG,AFNE01.JPG,AFNE01.JPG,AFNE01.JPG,5,7,57,5,,,,,,,,,,,,,,,,,,,,,,,AFSA19.jpg,AFSA04.jpg,AFNE19.jpg,AFNE20.jpg,AFSA04.jpg,FS,4,num_6,16,num_6,1.5834024261,,,2017_Aug_22_1047,60.0136473471,FEMA4ImagesEEG,001,101338,
AFNE01.JPG,AFNE01.JPG,AFNE01.JPG,AFNE01.JPG,AFNE01.JPG,AFNE01.JPG,5,8,58,1,,,,,,,,,,,,,,,,,,,,,,,AFSA15.jpg,AFNE17.jpg,AFNE04.jpg,AFSA07.jpg,AFNE17.jpg,FN,3,num_6,32,num_8,1.18310901336,,,2017_Aug_22_1047,60.0136473471,FEMA4ImagesEEG,001,101338,
AFNE01.JPG,AFNE01.JPG,AFNE01.JPG,AFNE01.JPG,AFNE01.JPG,AFNE01.JPG,5,9,59,4,,,,,,,,,,,,,,,,,,,,,,,AFSA03.jpg,AFSA04.jpg,AFNE18.jpg,AFNE02.jpg,AFNE02.jpg,FN,3,num_4,32,num_8,1.7666445463,,,2017_Aug_22_1047,60.0136473471,FEMA4ImagesEEG,001,101338,
,,,,,,,,,,,,,,,,,,,,,,,,,,,,,,,,,,,,,,,,,,,space,4.36645890214,2017_Aug_22_1047,60.0136473471,FEMA4ImagesEEG,001,101338,
AFNE01.JPG,AFNE01.JPG,AFNE01.JPG,AFNE01.JPG,AFNE01.JPG,AFNE01.JPG,,,,,0,0,0,7,,,,,,,,,,,,,,,,,,,AMNE08.jpg,AMNE06.jpg,AMSA12.jpg,AMSA13.jpg,AMSA12.jpg,MS,2,num_2,32,num_8,0.750106565771,,,2017_Aug_22_1047,60.0136473471,FEMA4ImagesEEG,001,101338,
AFNE01.JPG,AFNE01.JPG,AFNE01.JPG,AFNE01.JPG,AFNE01.JPG,AFNE01.JPG,,,,,0,1,1,0,,,,,,,,,,,,,,,,,,,AMSA10.jpg,AMSA14.jpg,AMNE14.jpg,AMNE11.jpg,AMSA14.jpg,MS,2,num_6,16,num_6,0.750158525654,,,2017_Aug_22_1047,60.0136473471,FEMA4ImagesEEG,001,101338,
AFNE01.JPG,AFNE01.JPG,AFNE01.JPG,AFNE01.JPG,AFNE01.JPG,AFNE01.JPG,,,,,0,2,2,2,,,,,,,,,,,,,,,,,,,AMSA06.jpg,AMSA05.jpg,AMNE16.jpg,AMNE13.jpg,AMSA06.jpg,MS,2,num_8,32,num_4,0.716761183343,,,2017_Aug_22_1047,60.0136473471,FEMA4ImagesEEG,001,101338,
AFNE01.JPG,AFNE01.JPG,AFNE01.JPG,AFNE01.JPG,AFNE01.JPG,AFNE01.JPG,,,,,0,3,3,4,,,,,,,,,,,,,,,,,,,AMNE18.jpg,AMNE09.jpg,AMSA12.jpg,AMSA13.jpg,AMSA12.jpg,MS,2,num_2,32,num_4,1.13345497928,,,2017_Aug_22_1047,60.0136473471,FEMA4ImagesEEG,001,101338,
AFNE01.JPG,AFNE01.JPG,AFNE01.JPG,AFNE01.JPG,AFNE01.JPG,AFNE01.JPG,,,,,0,4,4,9,,,,,,,,,,,,,,,,,,,AMNE10.jpg,AMSA07.jpg,AMSA03.jpg,AMNE20.jpg,AMSA03.jpg,MS,2,num_2,16,num_2,1.58344668802,,,2017_Aug_22_1047,60.0136473471,FEMA4ImagesEEG,001,101338,
AFNE01.JPG,AFNE01.JPG,AFNE01.JPG,AFNE01.JPG,AFNE01.JPG,AFNE01.JPG,,,,,0,5,5,3,,,,,,,,,,,,,,,,,,,AMNE09.jpg,AMSA15.jpg,AMNE11.jpg,AMSA04.jpg,AMNE11.jpg,MN,1,num_2,32,num_8,0.916754896869,,,2017_Aug_22_1047,60.0136473471,FEMA4ImagesEEG,001,101338,
AFNE01.JPG,AFNE01.JPG,AFNE01.JPG,AFNE01.JPG,AFNE01.JPG,AFNE01.JPG,,,,,0,6,6,6,,,,,,,,,,,,,,,,,,,AMSA02.jpg,AMNE12.jpg,AMNE09.jpg,AMSA04.jpg,AMSA04.jpg,MS,2,num_4,16,num_4,0.883446399355,,,2017_Aug_22_1047,60.0136473471,FEMA4ImagesEEG,001,101338,
AFNE01.JPG,AFNE01.JPG,AFNE01.JPG,AFNE01.JPG,AFNE01.JPG,AFNE01.JPG,,,,,0,7,7,8,,,,,,,,,,,,,,,,,,,AMSA08.jpg,AMNE19.jpg,AMSA16.jpg,AMNE01.jpg,AMSA08.jpg,MS,2,num_8,16,num_8,0.983463623095,,,2017_Aug_22_1047,60.0136473471,FEMA4ImagesEEG,001,101338,
AFNE01.JPG,AFNE01.JPG,AFNE01.JPG,AFNE01.JPG,AFNE01.JPG,AFNE01.JPG,,,,,0,8,8,5,,,,,,,,,,,,,,,,,,,AMSA01.jpg,AMNE03.jpg,AMSA12.jpg,AMNE12.jpg,AMSA12.jpg,MS,2,num_2,32,num_4,1.84973665664,,,2017_Aug_22_1047,60.0136473471,FEMA4ImagesEEG,001,101338,
AFNE01.JPG,AFNE01.JPG,AFNE01.JPG,AFNE01.JPG,AFNE01.JPG,AFNE01.JPG,,,,,0,9,9,1,,,,,,,,,,,,,,,,,,,AMNE04.jpg,AMSA07.jpg,AMSA13.jpg,AMNE13.jpg,AMSA07.jpg,MS,2,num_6,16,num_6,0.850112884305,,,2017_Aug_22_1047,60.0136473471,FEMA4ImagesEEG,001,101338,
AFNE01.JPG,AFNE01.JPG,AFNE01.JPG,AFNE01.JPG,AFNE01.JPG,AFNE01.JPG,,,,,1,0,10,2,,,,,,,,,,,,,,,,,,,AMNE06.jpg,AMNE11.jpg,AMSA11.jpg,AMSA05.jpg,AMNE11.jpg,MN,1,num_6,32,num_8,0.916766122682,,,2017_Aug_22_1047,60.0136473471,FEMA4ImagesEEG,001,101338,
AFNE01.JPG,AFNE01.JPG,AFNE01.JPG,AFNE01.JPG,AFNE01.JPG,AFNE01.JPG,,,,,1,1,11,8,,,,,,,,,,,,,,,,,,,AMNE19.jpg,AMNE02.jpg,AMSA08.jpg,AMSA10.jpg,AMNE19.jpg,MN,1,num_8,16,num_8,0.917052222532,,,2017_Aug_22_1047,60.0136473471,FEMA4ImagesEEG,001,101338,
AFNE01.JPG,AFNE01.JPG,AFNE01.JPG,AFNE01.JPG,AFNE01.JPG,AFNE01.JPG,,,,,1,2,12,0,,,,,,,,,,,,,,,,,,,AMSA15.jpg,AMNE07.jpg,AMNE16.jpg,AMSA06.jpg,AMNE07.jpg,MN,1,num_6,32,num_2,1.81666358223,,,2017_Aug_22_1047,60.0136473471,FEMA4ImagesEEG,001,101338,
AFNE01.JPG,AFNE01.JPG,AFNE01.JPG,AFNE01.JPG,AFNE01.JPG,AFNE01.JPG,,,,,1,3,13,5,,,,,,,,,,,,,,,,,,,AMSA04.jpg,AMNE10.jpg,AMNE13.jpg,AMSA16.jpg,AMNE13.jpg,MN,1,num_2,32,num_8,0.933499754523,,,2017_Aug_22_1047,60.0136473471,FEMA4ImagesEEG,001,101338,
AFNE01.JPG,AFNE01.JPG,AFNE01.JPG,AFNE01.JPG,AFNE01.JPG,AFNE01.JPG,,,,,1,4,14,6,,,,,,,,,,,,,,,,,,,AMNE11.jpg,AMNE05.jpg,AMSA07.jpg,AMSA02.jpg,AMSA02.jpg,MS,2,num_4,16,num_4,1.83342383534,,,2017_Aug_22_1047,60.0136473471,FEMA4ImagesEEG,001,101338,
AFNE01.JPG,AFNE01.JPG,AFNE01.JPG,AFNE01.JPG,AFNE01.JPG,AFNE01.JPG,,,,,1,5,15,3,,,,,,,,,,,,,,,,,,,AMSA15.jpg,AMNE02.jpg,AMNE12.jpg,AMSA03.jpg,AMSA03.jpg,MS,2,num_4,16,num_4,0.550162566942,,,2017_Aug_22_1047,60.0136473471,FEMA4ImagesEEG,001,101338,
AFNE01.JPG,AFNE01.JPG,AFNE01.JPG,AFNE01.JPG,AFNE01.JPG,AFNE01.JPG,,,,,1,6,16,1,,,,,,,,,,,,,,,,,,,AMNE19.jpg,AMNE17.jpg,AMSA15.jpg,AMSA12.jpg,AMNE19.jpg,MN,1,num_8,16,num_8,0.833452060469,,,2017_Aug_22_1047,60.0136473471,FEMA4ImagesEEG,001,101338,
AFNE01.JPG,AFNE01.JPG,AFNE01.JPG,AFNE01.JPG,AFNE01.JPG,AFNE01.JPG,,,,,1,7,17,7,,,,,,,,,,,,,,,,,,,AMSA10.jpg,AMSA19.jpg,AMNE16.jpg,AMNE05.jpg,AMNE05.jpg,MN,1,num_4,32,num_8,1.45014309802,,,2017_Aug_22_1047,60.0136473471,FEMA4ImagesEEG,001,101338,
AFNE01.JPG,AFNE01.JPG,AFNE01.JPG,AFNE01.JPG,AFNE01.JPG,AFNE01.JPG,,,,,1,8,18,4,,,,,,,,,,,,,,,,,,,AMSA08.jpg,AMSA02.jpg,AMNE16.jpg,AMNE13.jpg,AMNE13.jpg,MN,1,num_4,16,num_4,1.11676625104,,,2017_Aug_22_1047,60.0136473471,FEMA4ImagesEEG,001,101338,
AFNE01.JPG,AFNE01.JPG,AFNE01.JPG,AFNE01.JPG,AFNE01.JPG,AFNE01.JPG,,,,,1,9,19,9,,,,,,,,,,,,,,,,,,,AMNE17.jpg,AMNE13.jpg,AMSA10.jpg,AMSA11.jpg,AMSA10.jpg,MS,2,num_2,32,num_4,1.00009461818,,,2017_Aug_22_1047,60.0136473471,FEMA4ImagesEEG,001,101338,
AFNE01.JPG,AFNE01.JPG,AFNE01.JPG,AFNE01.JPG,AFNE01.JPG,AFNE01.JPG,,,,,2,0,20,4,,,,,,,,,,,,,,,,,,,AMSA15.jpg,AMNE18.jpg,AMSA04.jpg,AMNE08.jpg,AMSA15.jpg,MS,2,num_8,32,num_2,1.38351423584,,,2017_Aug_22_1047,60.0136473471,FEMA4ImagesEEG,001,101338,
AFNE01.JPG,AFNE01.JPG,AFNE01.JPG,AFNE01.JPG,AFNE01.JPG,AFNE01.JPG,,,,,2,1,21,5,,,,,,,,,,,,,,,,,,,AMNE19.jpg,AMSA04.jpg,AMSA16.jpg,AMNE08.jpg,AMSA16.jpg,MS,2,num_2,32,num_6,1.4169959327,,,2017_Aug_22_1047,60.0136473471,FEMA4ImagesEEG,001,101338,
AFNE01.JPG,AFNE01.JPG,AFNE01.JPG,AFNE01.JPG,AFNE01.JPG,AFNE01.JPG,,,,,2,2,22,3,,,,,,,,,,,,,,,,,,,AMSA19.jpg,AMNE16.jpg,AMNE11.jpg,AMSA16.jpg,AMSA19.jpg,MS,2,num_8,32,num_6,1.95002747129,,,2017_Aug_22_1047,60.0136473471,FEMA4ImagesEEG,001,101338,
AFNE01.JPG,AFNE01.JPG,AFNE01.JPG,AFNE01.JPG,AFNE01.JPG,AFNE01.JPG,,,,,2,3,23,6,,,,,,,,,,,,,,,,,,,AMSA05.jpg,AMNE19.jpg,AMNE12.jpg,AMSA11.jpg,AMSA11.jpg,MS,2,num_4,32,num_6,2.08338943601,,,2017_Aug_22_1047,60.0136473471,FEMA4ImagesEEG,001,101338,
AFNE01.JPG,AFNE01.JPG,AFNE01.JPG,AFNE01.JPG,AFNE01.JPG,AFNE01.JPG,,,,,2,4,24,8,,,,,,,,,,,,,,,,,,,AMSA08.jpg,AMNE14.jpg,AMNE02.jpg,AMSA14.jpg,AMSA14.jpg,MS,2,num_4,32,num_6,0.950142296148,,,2017_Aug_22_1047,60.0136473471,FEMA4ImagesEEG,001,101338,
AFNE01.JPG,AFNE01.JPG,AFNE01.JPG,AFNE01.JPG,AFNE01.JPG,AFNE01.JPG,,,,,2,5,25,2,,,,,,,,,,,,,,,,,,,AMNE06.jpg,AMSA18.jpg,AMSA16.jpg,AMNE10.jpg,AMSA18.jpg,MS,2,num_6,32,num_2,1.75006294518,,,2017_Aug_22_1047,60.0136473471,FEMA4ImagesEEG,001,101338,
AFNE01.JPG,AFNE01.JPG,AFNE01.JPG,AFNE01.JPG,AFNE01.JPG,AFNE01.JPG,,,,,2,6,26,0,,,,,,,,,,,,,,,,,,,AMNE15.jpg,AMSA14.jpg,AMNE06.jpg,AMSA02.jpg,AMSA02.jpg,MS,2,num_4,32,num_8,0.800113092759,,,2017_Aug_22_1047,60.0136473471,FEMA4ImagesEEG,001,101338,
AFNE01.JPG,AFNE01.JPG,AFNE01.JPG,AFNE01.JPG,AFNE01.JPG,AFNE01.JPG,,,,,2,7,27,9,,,,,,,,,,,,,,,,,,,AMNE07.jpg,AMNE02.jpg,AMSA14.jpg,AMSA15.jpg,AMSA15.jpg,MS,2,num_4,16,num_4,0.950106052682,,,2017_Aug_22_1047,60.0136473471,FEMA4ImagesEEG,001,101338,
AFNE01.JPG,AFNE01.JPG,AFNE01.JPG,AFNE01.JPG,AFNE01.JPG,AFNE01.JPG,,,,,2,8,28,1,,,,,,,,,,,,,,,,,,,AMNE03.jpg,AMNE07.jpg,AMSA19.jpg,AMSA17.jpg,AMSA17.jpg,MS,2,num_4,32,num_2,1.68342863047,,,2017_Aug_22_1047,60.0136473471,FEMA4ImagesEEG,001,101338,
AFNE01.JPG,AFNE01.JPG,AFNE01.JPG,AFNE01.JPG,AFNE01.JPG,AFNE01.JPG,,,,,2,9,29,7,,,,,,,,,,,,,,,,,,,AMSA01.jpg,AMNE03.jpg,AMNE09.jpg,AMSA17.jpg,AMNE09.jpg,MN,1,num_2,32,num_8,0.850109356223,,,2017_Aug_22_1047,60.0136473471,FEMA4ImagesEEG,001,101338,
AFNE01.JPG,AFNE01.JPG,AFNE01.JPG,AFNE01.JPG,AFNE01.JPG,AFNE01.JPG,,,,,3,0,30,7,,,,,,,,,,,,,,,,,,,AMSA18.jpg,AMSA11.jpg,AMNE16.jpg,AMNE19.jpg,AMNE16.jpg,MN,1,num_2,16,num_2,1.28337705554,,,2017_Aug_22_1047,60.0136473471,FEMA4ImagesEEG,001,101338,
AFNE01.JPG,AFNE01.JPG,AFNE01.JPG,AFNE01.JPG,AFNE01.JPG,AFNE01.JPG,,,,,3,1,31,2,,,,,,,,,,,,,,,,,,,AMNE13.jpg,AMNE03.jpg,AMSA04.jpg,AMSA07.jpg,AMSA07.jpg,MS,2,num_4,32,num_6,0.700187600567,,,2017_Aug_22_1047,60.0136473471,FEMA4ImagesEEG,001,101338,
AFNE01.JPG,AFNE01.JPG,AFNE01.JPG,AFNE01.JPG,AFNE01.JPG,AFNE01.JPG,,,,,3,2,32,9,,,,,,,,,,,,,,,,,,,AMNE03.jpg,AMSA09.jpg,AMNE10.jpg,AMSA11.jpg,AMNE10.jpg,MN,1,num_2,32,num_8,0.900106581743,,,2017_Aug_22_1047,60.0136473471,FEMA4ImagesEEG,001,101338,
AFNE01.JPG,AFNE01.JPG,AFNE01.JPG,AFNE01.JPG,AFNE01.JPG,AFNE01.JPG,,,,,3,3,33,6,,,,,,,,,,,,,,,,,,,AMSA08.jpg,AMNE01.jpg,AMSA16.jpg,AMNE06.jpg,AMNE06.jpg,MN,1,num_4,32,num_6,1.10010831384,,,2017_Aug_22_1047,60.0136473471,FEMA4ImagesEEG,001,101338,
AFNE01.JPG,AFNE01.JPG,AFNE01.JPG,AFNE01.JPG,AFNE01.JPG,AFNE01.JPG,,,,,3,4,34,3,,,,,,,,,,,,,,,,,,,AMSA02.jpg,AMNE05.jpg,AMNE13.jpg,AMSA13.jpg,AMNE05.jpg,MN,1,num_6,32,num_2,1.68353768194,,,2017_Aug_22_1047,60.0136473471,FEMA4ImagesEEG,001,101338,
AFNE01.JPG,AFNE01.JPG,AFNE01.JPG,AFNE01.JPG,AFNE01.JPG,AFNE01.JPG,,,,,3,5,35,1,,,,,,,,,,,,,,,,,,,AMSA15.jpg,AMSA06.jpg,AMNE17.jpg,AMNE13.jpg,AMNE17.jpg,MN,1,num_2,16,num_2,1.31666662928,,,2017_Aug_22_1047,60.0136473471,FEMA4ImagesEEG,001,101338,
AFNE01.JPG,AFNE01.JPG,AFNE01.JPG,AFNE01.JPG,AFNE01.JPG,AFNE01.JPG,,,,,3,6,36,0,,,,,,,,,,,,,,,,,,,AMSA02.jpg,AMSA14.jpg,AMNE10.jpg,AMNE08.jpg,AMSA02.jpg,MS,2,num_8,16,num_8,1.11670563114,,,2017_Aug_22_1047,60.0136473471,FEMA4ImagesEEG,001,101338,
AFNE01.JPG,AFNE01.JPG,AFNE01.JPG,AFNE01.JPG,AFNE01.JPG,AFNE01.JPG,,,,,3,7,37,8,,,,,,,,,,,,,,,,,,,AMSA05.jpg,AMSA12.jpg,AMNE07.jpg,AMNE08.jpg,AMNE08.jpg,MN,1,num_4,32,num_6,0.200204118737,,,2017_Aug_22_1047,60.0136473471,FEMA4ImagesEEG,001,101338,
AFNE01.JPG,AFNE01.JPG,AFNE01.JPG,AFNE01.JPG,AFNE01.JPG,AFNE01.JPG,,,,,3,8,38,5,,,,,,,,,,,,,,,,,,,AMSA05.jpg,AMSA04.jpg,AMNE07.jpg,AMNE14.jpg,AMNE07.jpg,MN,1,num_2,32,num_8,0.866734578041,,,2017_Aug_22_1047,60.0136473471,FEMA4ImagesEEG,001,101338,
AFNE01.JPG,AFNE01.JPG,AFNE01.JPG,AFNE01.JPG,AFNE01.JPG,AFNE01.JPG,,,,,3,9,39,4,,,,,,,,,,,,,,,,,,,AMSA05.jpg,AMNE15.jpg,AMSA19.jpg,AMNE08.jpg,AMNE08.jpg,MN,1,num_4,32,num_6,0.983465226833,,,2017_Aug_22_1047,60.0136473471,FEMA4ImagesEEG,001,101338,
AFNE01.JPG,AFNE01.JPG,AFNE01.JPG,AFNE01.JPG,AFNE01.JPG,AFNE01.JPG,,,,,4,0,40,4,,,,,,,,,,,,,,,,,,,AMSA08.jpg,AMNE16.jpg,AMSA05.jpg,AMNE06.jpg,AMSA05.jpg,MS,2,num_2,16,num_2,1.23343339341,,,2017_Aug_22_1047,60.0136473471,FEMA4ImagesEEG,001,101338,
AFNE01.JPG,AFNE01.JPG,AFNE01.JPG,AFNE01.JPG,AFNE01.JPG,AFNE01.JPG,,,,,4,1,41,6,,,,,,,,,,,,,,,,,,,AMNE12.jpg,AMSA03.jpg,AMNE04.jpg,AMSA18.jpg,AMSA18.jpg,MS,2,num_4,16,num_4,0.750128696789,,,2017_Aug_22_1047,60.0136473471,FEMA4ImagesEEG,001,101338,
AFNE01.JPG,AFNE01.JPG,AFNE01.JPG,AFNE01.JPG,AFNE01.JPG,AFNE01.JPG,,,,,4,2,42,9,,,,,,,,,,,,,,,,,,,AMNE14.jpg,AMSA08.jpg,AMNE10.jpg,AMSA02.jpg,AMSA02.jpg,MS,2,num_4,32,num_2,1.16676668404,,,2017_Aug_22_1047,60.0136473471,FEMA4ImagesEEG,001,101338,
AFNE01.JPG,AFNE01.JPG,AFNE01.JPG,AFNE01.JPG,AFNE01.JPG,AFNE01.JPG,,,,,4,3,43,8,,,,,,,,,,,,,,,,,,,AMNE15.jpg,AMSA06.jpg,AMSA11.jpg,AMNE12.jpg,AMNE12.jpg,MN,1,num_4,32,num_6,0.833489907789,,,2017_Aug_22_1047,60.0136473471,FEMA4ImagesEEG,001,101338,
AFNE01.JPG,AFNE01.JPG,AFNE01.JPG,AFNE01.JPG,AFNE01.JPG,AFNE01.JPG,,,,,4,4,44,2,,,,,,,,,,,,,,,,,,,AMSA03.jpg,AMNE01.jpg,AMNE11.jpg,AMSA15.jpg,AMNE11.jpg,MN,1,num_2,16,num_2,0.900167843094,,,2017_Aug_22_1047,60.0136473471,FEMA4ImagesEEG,001,101338,
AFNE01.JPG,AFNE01.JPG,AFNE01.JPG,AFNE01.JPG,AFNE01.JPG,AFNE01.JPG,,,,,4,5,45,3,,,,,,,,,,,,,,,,,,,AMSA05.jpg,AMNE16.jpg,AMNE10.jpg,AMSA01.jpg,AMNE16.jpg,MN,1,num_6,32,num_2,1.21670906304,,,2017_Aug_22_1047,60.0136473471,FEMA4ImagesEEG,001,101338,
AFNE01.JPG,AFNE01.JPG,AFNE01.JPG,AFNE01.JPG,AFNE01.JPG,AFNE01.JPG,,,,,4,6,46,5,,,,,,,,,,,,,,,,,,,AMNE15.jpg,AMNE11.jpg,AMSA12.jpg,AMSA20.jpg,AMNE11.jpg,MN,1,num_6,16,num_6,0.983479660121,,,2017_Aug_22_1047,60.0136473471,FEMA4ImagesEEG,001,101338,
AFNE01.JPG,AFNE01.JPG,AFNE01.JPG,AFNE01.JPG,AFNE01.JPG,AFNE01.JPG,,,,,4,7,47,7,,,,,,,,,,,,,,,,,,,AMNE06.jpg,AMSA04.jpg,AMNE03.jpg,AMSA18.jpg,AMSA18.jpg,MS,2,num_4,32,num_2,1.30010074435,,,2017_Aug_22_1047,60.0136473471,FEMA4ImagesEEG,001,101338,
AFNE01.JPG,AFNE01.JPG,AFNE01.JPG,AFNE01.JPG,AFNE01.JPG,AFNE01.JPG,,,,,4,8,48,0,,,,,,,,,,,,,,,,,,,AMSA09.jpg,AMSA03.jpg,AMNE01.jpg,AMNE10.jpg,AMSA03.jpg,MS,2,num_6,32,num_4,1.36674403981,,,2017_Aug_22_1047,60.0136473471,FEMA4ImagesEEG,001,101338,
AFNE01.JPG,AFNE01.JPG,AFNE01.JPG,AFNE01.JPG,AFNE01.JPG,AFNE01.JPG,,,,,4,9,49,1,,,,,,,,,,,,,,,,,,,AMNE14.jpg,AMSA11.jpg,AMSA04.jpg,AMNE20.jpg,AMSA11.jpg,MS,2,num_6,32,num_8,0.700255276635,,,2017_Aug_22_1047,60.0136473471,FEMA4ImagesEEG,001,101338,
AFNE01.JPG,AFNE01.JPG,AFNE01.JPG,AFNE01.JPG,AFNE01.JPG,AFNE01.JPG,,,,,5,0,50,7,,,,,,,,,,,,,,,,,,,AMSA10.jpg,AMNE06.jpg,AMNE07.jpg,AMSA18.jpg,AMNE07.jpg,MN,1,num_2,32,num_8,2.48332265811,,,2017_Aug_22_1047,60.0136473471,FEMA4ImagesEEG,001,101338,
AFNE01.JPG,AFNE01.JPG,AFNE01.JPG,AFNE01.JPG,AFNE01.JPG,AFNE01.JPG,,,,,5,1,51,0,,,,,,,,,,,,,,,,,,,AMNE12.jpg,AMSA15.jpg,AMNE09.jpg,AMSA13.jpg,AMNE09.jpg,MN,1,num_2,32,num_6,0.633450328489,,,2017_Aug_22_1047,60.0136473471,FEMA4ImagesEEG,001,101338,
AFNE01.JPG,AFNE01.JPG,AFNE01.JPG,AFNE01.JPG,AFNE01.JPG,AFNE01.JPG,,,,,5,2,52,4,,,,,,,,,,,,,,,,,,,AMSA10.jpg,AMNE01.jpg,AMNE11.jpg,AMSA07.jpg,AMNE01.jpg,MN,1,num_6,16,num_6,0.95010637329,,,2017_Aug_22_1047,60.0136473471,FEMA4ImagesEEG,001,101338,
AFNE01.JPG,AFNE01.JPG,AFNE01.JPG,AFNE01.JPG,AFNE01.JPG,AFNE01.JPG,,,,,5,3,53,9,,,,,,,,,,,,,,,,,,,AMNE15.jpg,AMSA04.jpg,AMNE10.jpg,AMSA03.jpg,AMNE15.jpg,MN,1,num_8,16,num_8,1.71671467612,,,2017_Aug_22_1047,60.0136473471,FEMA4ImagesEEG,001,101338,
AFNE01.JPG,AFNE01.JPG,AFNE01.JPG,AFNE01.JPG,AFNE01.JPG,AFNE01.JPG,,,,,5,4,54,2,,,,,,,,,,,,,,,,,,,AMNE18.jpg,AMNE16.jpg,AMSA12.jpg,AMSA06.jpg,AMSA06.jpg,MS,2,num_4,16,num_4,0.766763219959,,,2017_Aug_22_1047,60.0136473471,FEMA4ImagesEEG,001,101338,
AFNE01.JPG,AFNE01.JPG,AFNE01.JPG,AFNE01.JPG,AFNE01.JPG,AFNE01.JPG,,,,,5,5,55,3,,,,,,,,,,,,,,,,,,,AMNE13.jpg,AMSA01.jpg,AMSA17.jpg,AMNE17.jpg,AMNE13.jpg,MN,1,num_8,16,num_8,0.783396460232,,,2017_Aug_22_1047,60.0136473471,FEMA4ImagesEEG,001,101338,
AFNE01.JPG,AFNE01.JPG,AFNE01.JPG,AFNE01.JPG,AFNE01.JPG,AFNE01.JPG,,,,,5,6,56,8,,,,,,,,,,,,,,,,,,,AMNE11.jpg,AMSA19.jpg,AMNE15.jpg,AMSA03.jpg,AMNE11.jpg,MN,1,num_8,32,num_6,1.00015652098,,,2017_Aug_22_1047,60.0136473471,FEMA4ImagesEEG,001,101338,
AFNE01.JPG,AFNE01.JPG,AFNE01.JPG,AFNE01.JPG,AFNE01.JPG,AFNE01.JPG,,,,,5,7,57,6,,,,,,,,,,,,,,,,,,,AMSA03.jpg,AMNE14.jpg,AMNE11.jpg,AMSA04.jpg,AMSA03.jpg,MS,2,num_8,16,num_8,0.833437306457,,,2017_Aug_22_1047,60.0136473471,FEMA4ImagesEEG,001,101338,
AFNE01.JPG,AFNE01.JPG,AFNE01.JPG,AFNE01.JPG,AFNE01.JPG,AFNE01.JPG,,,,,5,8,58,5,,,,,,,,,,,,,,,,,,,AMNE06.jpg,AMNE13.jpg,AMSA17.jpg,AMSA10.jpg,AMNE06.jpg,MN,1,num_8,16,num_8,0.916736935382,,,2017_Aug_22_1047,60.0136473471,FEMA4ImagesEEG,001,101338,
AFNE01.JPG,AFNE01.JPG,AFNE01.JPG,AFNE01.JPG,AFNE01.JPG,AFNE01.JPG,,,,,5,9,59,1,,,,,,,,,,,,,,,,,,,AMNE10.jpg,AMSA17.jpg,AMSA04.jpg,AMNE07.jpg,AMSA17.jpg,MS,2,num_6,32,num_2,1.31674392754,,,2017_Aug_22_1047,60.0136473471,FEMA4ImagesEEG,001,101338,
,,,,,,,,,,,,,,,,,,,,,,,,,,,,,,,,,,,,,,,,,,,space,5.33308978495,2017_Aug_22_1047,60.0136473471,FEMA4ImagesEEG,001,101338,
AFNE01.JPG,AFNE01.JPG,AFNE01.JPG,AFNE01.JPG,AFNE01.JPG,AFNE01.JPG,,,,,,,,,0,0,0,3,,,,,,,,,,,,,,,AFSA08.jpg,AFNE12.jpg,AFSA07.jpg,AFNE18.jpg,AFSA07.jpg,FS,4,num_2,32,num_6,0.683444667491,,,2017_Aug_22_1047,60.0136473471,FEMA4ImagesEEG,001,101338,
AFNE01.JPG,AFNE01.JPG,AFNE01.JPG,AFNE01.JPG,AFNE01.JPG,AFNE01.JPG,,,,,,,,,0,1,1,1,,,,,,,,,,,,,,,AFSA06.jpg,AFNE06.jpg,AFSA11.jpg,AFNE12.jpg,AFNE06.jpg,FN,3,num_6,32,num_8,0.76677380444,,,2017_Aug_22_1047,60.0136473471,FEMA4ImagesEEG,001,101338,
AFNE01.JPG,AFNE01.JPG,AFNE01.JPG,AFNE01.JPG,AFNE01.JPG,AFNE01.JPG,,,,,,,,,0,2,2,0,,,,,,,,,,,,,,,AFSA09.jpg,AFSA19.jpg,AFNE20.jpg,AFNE01.jpg,AFSA19.jpg,FS,4,num_6,32,num_4,0.683693240746,,,2017_Aug_22_1047,60.0136473471,FEMA4ImagesEEG,001,101338,
AFNE01.JPG,AFNE01.JPG,AFNE01.JPG,AFNE01.JPG,AFNE01.JPG,AFNE01.JPG,,,,,,,,,0,3,3,6,,,,,,,,,,,,,,,AFNE08.jpg,AFNE19.jpg,AFSA04.jpg,AFSA02.jpg,AFSA02.jpg,FS,4,num_4,32,num_2,1.40012149618,,,2017_Aug_22_1047,60.0136473471,FEMA4ImagesEEG,001,101338,
AFNE01.JPG,AFNE01.JPG,AFNE01.JPG,AFNE01.JPG,AFNE01.JPG,AFNE01.JPG,,,,,,,,,0,4,4,9,,,,,,,,,,,,,,,AFNE03.jpg,AFSA19.jpg,AFNE11.jpg,AFSA11.jpg,AFSA19.jpg,FS,4,num_6,16,num_6,1.35004729312,,,2017_Aug_22_1047,60.0136473471,FEMA4ImagesEEG,001,101338,
AFNE01.JPG,AFNE01.JPG,AFNE01.JPG,AFNE01.JPG,AFNE01.JPG,AFNE01.JPG,,,,,,,,,0,5,5,5,,,,,,,,,,,,,,,AFSA02.jpg,AFNE15.jpg,AFSA17.jpg,AFNE17.jpg,AFNE15.jpg,FN,3,num_6,16,num_6,0.916797555168,,,2017_Aug_22_1047,60.0136473471,FEMA4ImagesEEG,001,101338,
AFNE01.JPG,AFNE01.JPG,AFNE01.JPG,AFNE01.JPG,AFNE01.JPG,AFNE01.JPG,,,,,,,,,0,6,6,4,,,,,,,,,,,,,,,AFNE16.jpg,AFSA08.jpg,AFSA07.jpg,AFNE01.jpg,AFSA07.jpg,FS,4,num_2,32,num_8,0.85023604834,,,2017_Aug_22_1047,60.0136473471,FEMA4ImagesEEG,001,101338,
AFNE01.JPG,AFNE01.JPG,AFNE01.JPG,AFNE01.JPG,AFNE01.JPG,AFNE01.JPG,,,,,,,,,0,7,7,7,,,,,,,,,,,,,,,AFNE02.jpg,AFNE14.jpg,AFSA02.jpg,AFSA03.jpg,AFSA02.jpg,FS,4,num_2,16,num_2,1.05010499421,,,2017_Aug_22_1047,60.0136473471,FEMA4ImagesEEG,001,101338,
AFNE01.JPG,AFNE01.JPG,AFNE01.JPG,AFNE01.JPG,AFNE01.JPG,AFNE01.JPG,,,,,,,,,0,8,8,8,,,,,,,,,,,,,,,AFNE20.jpg,AFSA04.jpg,AFSA02.jpg,AFNE06.jpg,AFNE06.jpg,FN,3,num_4,32,num_6,1.11680121161,,,2017_Aug_22_1047,60.0136473471,FEMA4ImagesEEG,001,101338,
AFNE01.JPG,AFNE01.JPG,AFNE01.JPG,AFNE01.JPG,AFNE01.JPG,AFNE01.JPG,,,,,,,,,0,9,9,2,,,,,,,,,,,,,,,AFNE17.jpg,AFSA13.jpg,AFSA06.jpg,AFNE12.jpg,AFNE12.jpg,FN,3,num_4,32,num_8,0.816752427141,,,2017_Aug_22_1047,60.0136473471,FEMA4ImagesEEG,001,101338,
AFNE01.JPG,AFNE01.JPG,AFNE01.JPG,AFNE01.JPG,AFNE01.JPG,AFNE01.JPG,,,,,,,,,1,0,10,8,,,,,,,,,,,,,,,AFNE13.jpg,AFSA20.jpg,AFNE12.jpg,AFSA02.jpg,AFSA20.jpg,FS,4,num_6,16,num_6,1.11679062725,,,2017_Aug_22_1047,60.0136473471,FEMA4ImagesEEG,001,101338,
AFNE01.JPG,AFNE01.JPG,AFNE01.JPG,AFNE01.JPG,AFNE01.JPG,AFNE01.JPG,,,,,,,,,1,1,11,5,,,,,,,,,,,,,,,AFSA11.jpg,AFSA13.jpg,AFNE15.jpg,AFNE10.jpg,AFSA11.jpg,FS,4,num_8,16,num_8,0.933521885541,,,2017_Aug_22_1047,60.0136473471,FEMA4ImagesEEG,001,101338,
AFNE01.JPG,AFNE01.JPG,AFNE01.JPG,AFNE01.JPG,AFNE01.JPG,AFNE01.JPG,,,,,,,,,1,2,12,6,,,,,,,,,,,,,,,AFSA18.jpg,AFSA08.jpg,AFNE12.jpg,AFNE03.jpg,AFNE03.jpg,FN,3,num_4,32,num_6,1.01678527088,,,2017_Aug_22_1047,60.0136473471,FEMA4ImagesEEG,001,101338,
AFNE01.JPG,AFNE01.JPG,AFNE01.JPG,AFNE01.JPG,AFNE01.JPG,AFNE01.JPG,,,,,,,,,1,3,13,3,,,,,,,,,,,,,,,AFNE01.jpg,AFSA17.jpg,AFNE04.jpg,AFSA08.jpg,AFNE04.jpg,FN,3,num_2,32,num_4,1.4001048177,,,2017_Aug_22_1047,60.0136473471,FEMA4ImagesEEG,001,101338,
AFNE01.JPG,AFNE01.JPG,AFNE01.JPG,AFNE01.JPG,AFNE01.JPG,AFNE01.JPG,,,,,,,,,1,4,14,0,,,,,,,,,,,,,,,AFNE14.jpg,AFNE01.jpg,AFSA16.jpg,AFSA08.jpg,AFNE14.jpg,FN,3,num_8,16,num_8,0.900126146968,,,2017_Aug_22_1047,60.0136473471,FEMA4ImagesEEG,001,101338,
AFNE01.JPG,AFNE01.JPG,AFNE01.JPG,AFNE01.JPG,AFNE01.JPG,AFNE01.JPG,,,,,,,,,1,5,15,7,,,,,,,,,,,,,,,AFNE08.jpg,AFSA14.jpg,AFSA09.jpg,AFNE20.jpg,AFSA14.jpg,FS,4,num_6,32,num_2,1.21672734537,,,2017_Aug_22_1047,60.0136473471,FEMA4ImagesEEG,001,101338,
AFNE01.JPG,AFNE01.JPG,AFNE01.JPG,AFNE01.JPG,AFNE01.JPG,AFNE01.JPG,,,,,,,,,1,6,16,9,,,,,,,,,,,,,,,AFSA13.jpg,AFNE01.jpg,AFNE06.jpg,AFSA08.jpg,AFNE06.jpg,FN,3,num_2,32,num_8,0.999995830352,,,2017_Aug_22_1047,60.0136473471,FEMA4ImagesEEG,001,101338,
AFNE01.JPG,AFNE01.JPG,AFNE01.JPG,AFNE01.JPG,AFNE01.JPG,AFNE01.JPG,,,,,,,,,1,7,17,4,,,,,,,,,,,,,,,AFSA19.jpg,AFSA06.jpg,AFNE07.jpg,AFNE05.jpg,AFSA06.jpg,FS,4,num_6,16,num_6,0.933461586479,,,2017_Aug_22_1047,60.0136473471,FEMA4ImagesEEG,001,101338,
AFNE01.JPG,AFNE01.JPG,AFNE01.JPG,AFNE01.JPG,AFNE01.JPG,AFNE01.JPG,,,,,,,,,1,8,18,1,,,,,,,,,,,,,,,AFNE02.jpg,AFSA04.jpg,AFSA02.jpg,AFNE20.jpg,AFSA04.jpg,FS,4,num_6,16,num_6,0.916715766536,,,2017_Aug_22_1047,60.0136473471,FEMA4ImagesEEG,001,101338,
AFNE01.JPG,AFNE01.JPG,AFNE01.JPG,AFNE01.JPG,AFNE01.JPG,AFNE01.JPG,,,,,,,,,1,9,19,2,,,,,,,,,,,,,,,AFNE18.jpg,AFSA02.jpg,AFSA19.jpg,AFNE04.jpg,AFNE04.jpg,FN,3,num_4,32,num_6,2.10008393764,,,2017_Aug_22_1047,60.0136473471,FEMA4ImagesEEG,001,101338,
AFNE01.JPG,AFNE01.JPG,AFNE01.JPG,AFNE01.JPG,AFNE01.JPG,AFNE01.JPG,,,,,,,,,2,0,20,4,,,,,,,,,,,,,,,AFSA13.jpg,AFNE07.jpg,AFNE20.jpg,AFSA15.jpg,AFNE07.jpg,FN,3,num_6,16,num_6,0.966816270375,,,2017_Aug_22_1047,60.0136473471,FEMA4ImagesEEG,001,101338,
AFNE01.JPG,AFNE01.JPG,AFNE01.JPG,AFNE01.JPG,AFNE01.JPG,AFNE01.JPG,,,,,,,,,2,1,21,3,,,,,,,,,,,,,,,AFNE17.jpg,AFSA10.jpg,AFSA13.jpg,AFNE02.jpg,AFNE02.jpg,FN,3,num_4,16,num_4,1.21675909858,,,2017_Aug_22_1047,60.0136473471,FEMA4ImagesEEG,001,101338,
AFNE01.JPG,AFNE01.JPG,AFNE01.JPG,AFNE01.JPG,AFNE01.JPG,AFNE01.JPG,,,,,,,,,2,2,22,2,,,,,,,,,,,,,,,AFSA16.jpg,AFSA19.jpg,AFNE09.jpg,AFNE04.jpg,AFNE04.jpg,FN,3,num_4,16,num_4,0.583149362355,,,2017_Aug_22_1047,60.0136473471,FEMA4ImagesEEG,001,101338,
AFNE01.JPG,AFNE01.JPG,AFNE01.JPG,AFNE01.JPG,AFNE01.JPG,AFNE01.JPG,,,,,,,,,2,3,23,1,,,,,,,,,,,,,,,AFNE14.jpg,AFSA02.jpg,AFNE19.jpg,AFSA04.jpg,AFNE19.jpg,FN,3,num_2,32,num_6,1.00016486016,,,2017_Aug_22_1047,60.0136473471,FEMA4ImagesEEG,001,101338,
AFNE01.JPG,AFNE01.JPG,AFNE01.JPG,AFNE01.JPG,AFNE01.JPG,AFNE01.JPG,,,,,,,,,2,4,24,5,,,,,,,,,,,,,,,AFSA06.jpg,AFSA01.jpg,AFNE01.jpg,AFNE20.jpg,AFSA06.jpg,FS,4,num_8,16,num_8,1.06685466284,,,2017_Aug_22_1047,60.0136473471,FEMA4ImagesEEG,001,101338,
AFNE01.JPG,AFNE01.JPG,AFNE01.JPG,AFNE01.JPG,AFNE01.JPG,AFNE01.JPG,,,,,,,,,2,5,25,9,,,,,,,,,,,,,,,AFNE12.jpg,AFNE11.jpg,AFSA14.jpg,AFSA01.jpg,AFSA01.jpg,FS,4,num_4,32,num_6,1.01673074509,,,2017_Aug_22_1047,60.0136473471,FEMA4ImagesEEG,001,101338,
AFNE01.JPG,AFNE01.JPG,AFNE01.JPG,AFNE01.JPG,AFNE01.JPG,AFNE01.JPG,,,,,,,,,2,6,26,8,,,,,,,,,,,,,,,AFSA17.jpg,AFSA11.jpg,AFNE18.jpg,AFNE02.jpg,AFNE02.jpg,FN,3,num_4,32,num_2,2.35002772789,,,2017_Aug_22_1047,60.0136473471,FEMA4ImagesEEG,001,101338,
AFNE01.JPG,AFNE01.JPG,AFNE01.JPG,AFNE01.JPG,AFNE01.JPG,AFNE01.JPG,,,,,,,,,2,7,27,0,,,,,,,,,,,,,,,AFNE10.jpg,AFNE15.jpg,AFSA09.jpg,AFSA08.jpg,AFSA08.jpg,FS,4,num_4,32,num_2,1.25011089572,,,2017_Aug_22_1047,60.0136473471,FEMA4ImagesEEG,001,101338,
AFNE01.JPG,AFNE01.JPG,AFNE01.JPG,AFNE01.JPG,AFNE01.JPG,AFNE01.JPG,,,,,,,,,2,8,28,6,,,,,,,,,,,,,,,AFSA11.jpg,AFNE11.jpg,AFNE19.jpg,AFSA14.jpg,AFNE19.jpg,FN,3,num_2,32,num_6,1.05009440973,,,2017_Aug_22_1047,60.0136473471,FEMA4ImagesEEG,001,101338,
AFNE01.JPG,AFNE01.JPG,AFNE01.JPG,AFNE01.JPG,AFNE01.JPG,AFNE01.JPG,,,,,,,,,2,9,29,7,,,,,,,,,,,,,,,AFNE12.jpg,AFSA02.jpg,AFNE09.jpg,AFSA19.jpg,AFSA02.jpg,FS,4,num_6,32,num_2,1.74999911792,,,2017_Aug_22_1047,60.0136473471,FEMA4ImagesEEG,001,101338,
AFNE01.JPG,AFNE01.JPG,AFNE01.JPG,AFNE01.JPG,AFNE01.JPG,AFNE01.JPG,,,,,,,,,3,0,30,0,,,,,,,,,,,,,,,AFSA04.jpg,AFSA11.jpg,AFNE01.jpg,AFNE08.jpg,AFSA11.jpg,FS,4,num_6,16,num_6,0.833512359532,,,2017_Aug_22_1047,60.0136473471,FEMA4ImagesEEG,001,101338,
AFNE01.JPG,AFNE01.JPG,AFNE01.JPG,AFNE01.JPG,AFNE01.JPG,AFNE01.JPG,,,,,,,,,3,1,31,6,,,,,,,,,,,,,,,AFNE11.jpg,AFNE14.jpg,AFSA03.jpg,AFSA13.jpg,AFNE14.jpg,FN,3,num_6,16,num_6,0.85013726051,,,2017_Aug_22_1047,60.0136473471,FEMA4ImagesEEG,001,101338,
AFNE01.JPG,AFNE01.JPG,AFNE01.JPG,AFNE01.JPG,AFNE01.JPG,AFNE01.JPG,,,,,,,,,3,2,32,7,,,,,,,,,,,,,,,AFNE17.jpg,AFNE05.jpg,AFSA19.jpg,AFSA01.jpg,AFSA19.jpg,FS,4,num_2,16,num_2,0.916781838983,,,2017_Aug_22_1047,60.0136473471,FEMA4ImagesEEG,001,101338,
AFNE01.JPG,AFNE01.JPG,AFNE01.JPG,AFNE01.JPG,AFNE01.JPG,AFNE01.JPG,,,,,,,,,3,3,33,8,,,,,,,,,,,,,,,AFSA01.jpg,AFSA06.jpg,AFNE02.jpg,AFNE11.jpg,AFSA06.jpg,FS,4,num_6,32,num_8,0.350275018252,,,2017_Aug_22_1047,60.0136473471,FEMA4ImagesEEG,001,101338,
AFNE01.JPG,AFNE01.JPG,AFNE01.JPG,AFNE01.JPG,AFNE01.JPG,AFNE01.JPG,,,,,,,,,3,4,34,1,,,,,,,,,,,,,,,AFSA10.jpg,AFNE03.jpg,AFSA16.jpg,AFNE11.jpg,AFSA10.jpg,FS,4,num_8,32,num_4,1.06672700844,,,2017_Aug_22_1047,60.0136473471,FEMA4ImagesEEG,001,101338,
AFNE01.JPG,AFNE01.JPG,AFNE01.JPG,AFNE01.JPG,AFNE01.JPG,AFNE01.JPG,,,,,,,,,3,5,35,9,,,,,,,,,,,,,,,AFNE10.jpg,AFSA16.jpg,AFSA03.jpg,AFNE17.jpg,AFNE17.jpg,FN,3,num_4,16,num_4,0.766829933855,,,2017_Aug_22_1047,60.0136473471,FEMA4ImagesEEG,001,101338,
AFNE01.JPG,AFNE01.JPG,AFNE01.JPG,AFNE01.JPG,AFNE01.JPG,AFNE01.JPG,,,,,,,,,3,6,36,4,,,,,,,,,,,,,,,AFNE11.jpg,AFNE20.jpg,AFSA05.jpg,AFSA18.jpg,AFSA18.jpg,FS,4,num_4,16,num_4,1.65012013307,,,2017_Aug_22_1047,60.0136473471,FEMA4ImagesEEG,001,101338,
AFNE01.JPG,AFNE01.JPG,AFNE01.JPG,AFNE01.JPG,AFNE01.JPG,AFNE01.JPG,,,,,,,,,3,7,37,2,,,,,,,,,,,,,,,AFNE16.jpg,AFNE05.jpg,AFSA05.jpg,AFSA07.jpg,AFNE16.jpg,FN,3,num_8,16,num_8,1.20007999241,,,2017_Aug_22_1047,60.0136473471,FEMA4ImagesEEG,001,101338,
AFNE01.JPG,AFNE01.JPG,AFNE01.JPG,AFNE01.JPG,AFNE01.JPG,AFNE01.JPG,,,,,,,,,3,8,38,5,,,,,,,,,,,,,,,AFNE18.jpg,AFSA09.jpg,AFNE07.jpg,AFSA17.jpg,AFSA17.jpg,FS,4,num_4,32,num_6,0.81673671084,,,2017_Aug_22_1047,60.0136473471,FEMA4ImagesEEG,001,101338,
AFNE01.JPG,AFNE01.JPG,AFNE01.JPG,AFNE01.JPG,AFNE01.JPG,AFNE01.JPG,,,,,,,,,3,9,39,3,,,,,,,,,,,,,,,AFSA08.jpg,AFNE17.jpg,AFNE03.jpg,AFSA14.jpg,AFSA08.jpg,FS,4,num_8,16,num_8,0.883451531292,,,2017_Aug_22_1047,60.0136473471,FEMA4ImagesEEG,001,101338,
AFNE01.JPG,AFNE01.JPG,AFNE01.JPG,AFNE01.JPG,AFNE01.JPG,AFNE01.JPG,,,,,,,,,4,0,40,4,,,,,,,,,,,,,,,AFNE01.jpg,AFSA06.jpg,AFNE03.jpg,AFSA16.jpg,AFSA16.jpg,FS,4,num_4,32,num_6,0.616763203987,,,2017_Aug_22_1047,60.0136473471,FEMA4ImagesEEG,001,101338,
AFNE01.JPG,AFNE01.JPG,AFNE01.JPG,AFNE01.JPG,AFNE01.JPG,AFNE01.JPG,,,,,,,,,4,1,41,1,,,,,,,,,,,,,,,AFNE06.jpg,AFNE18.jpg,AFSA08.jpg,AFSA13.jpg,AFNE18.jpg,FN,3,num_6,32,num_8,0.616763845552,,,2017_Aug_22_1047,60.0136473471,FEMA4ImagesEEG,001,101338,
AFNE01.JPG,AFNE01.JPG,AFNE01.JPG,AFNE01.JPG,AFNE01.JPG,AFNE01.JPG,,,,,,,,,4,2,42,5,,,,,,,,,,,,,,,AFNE17.jpg,AFNE09.jpg,AFSA17.jpg,AFSA10.jpg,AFSA17.jpg,FS,4,num_2,16,num_2,1.36674083234,,,2017_Aug_22_1047,60.0136473471,FEMA4ImagesEEG,001,101338,
AFNE01.JPG,AFNE01.JPG,AFNE01.JPG,AFNE01.JPG,AFNE01.JPG,AFNE01.JPG,,,,,,,,,4,3,43,7,,,,,,,,,,,,,,,AFSA18.jpg,AFSA01.jpg,AFNE11.jpg,AFNE09.jpg,AFNE11.jpg,FN,3,num_2,32,num_6,0.850117374677,,,2017_Aug_22_1047,60.0136473471,FEMA4ImagesEEG,001,101338,
AFNE01.JPG,AFNE01.JPG,AFNE01.JPG,AFNE01.JPG,AFNE01.JPG,AFNE01.JPG,,,,,,,,,4,4,44,9,,,,,,,,,,,,,,,AFSA05.jpg,AFSA20.jpg,AFNE13.jpg,AFNE07.jpg,AFNE07.jpg,FN,3,num_4,32,num_6,0.766786313266,,,2017_Aug_22_1047,60.0136473471,FEMA4ImagesEEG,001,101338,
AFNE01.JPG,AFNE01.JPG,AFNE01.JPG,AFNE01.JPG,AFNE01.JPG,AFNE01.JPG,,,,,,,,,4,5,45,8,,,,,,,,,,,,,,,AFNE09.jpg,AFSA03.jpg,AFNE10.jpg,AFSA14.jpg,AFNE10.jpg,FN,3,num_2,32,num_4,0.983411342604,,,2017_Aug_22_1047,60.0136473471,FEMA4ImagesEEG,001,101338,
AFNE01.JPG,AFNE01.JPG,AFNE01.JPG,AFNE01.JPG,AFNE01.JPG,AFNE01.JPG,,,,,,,,,4,6,46,0,,,,,,,,,,,,,,,AFSA13.jpg,AFNE02.jpg,AFNE07.jpg,AFSA16.jpg,AFNE02.jpg,FN,3,num_6,16,num_6,1.23346771253,,,2017_Aug_22_1047,60.0136473471,FEMA4ImagesEEG,001,101338,
AFNE01.JPG,AFNE01.JPG,AFNE01.JPG,AFNE01.JPG,AFNE01.JPG,AFNE01.JPG,,,,,,,,,4,7,47,6,,,,,,,,,,,,,,,AFSA15.jpg,AFNE20.jpg,AFSA12.jpg,AFNE02.jpg,AFSA15.jpg,FS,4,num_8,16,num_8,0.683464553324,,,2017_Aug_22_1047,60.0136473471,FEMA4ImagesEEG,001,101338,
AFNE01.JPG,AFNE01.JPG,AFNE01.JPG,AFNE01.JPG,AFNE01.JPG,AFNE01.JPG,,,,,,,,,4,8,48,2,,,,,,,,,,,,,,,AFNE12.jpg,AFNE20.jpg,AFSA17.jpg,AFSA19.jpg,AFSA19.jpg,FS,4,num_4,32,num_6,1.03349196049,,,2017_Aug_22_1047,60.0136473471,FEMA4ImagesEEG,001,101338,
AFNE01.JPG,AFNE01.JPG,AFNE01.JPG,AFNE01.JPG,AFNE01.JPG,AFNE01.JPG,,,,,,,,,4,9,49,3,,,,,,,,,,,,,,,AFSA04.jpg,AFNE16.jpg,AFSA11.jpg,AFNE20.jpg,AFNE16.jpg,FN,3,num_6,16,num_6,1.25008106697,,,2017_Aug_22_1047,60.0136473471,FEMA4ImagesEEG,001,101338,
AFNE01.JPG,AFNE01.JPG,AFNE01.JPG,AFNE01.JPG,AFNE01.JPG,AFNE01.JPG,,,,,,,,,5,0,50,5,,,,,,,,,,,,,,,AFNE18.jpg,AFNE12.jpg,AFSA04.jpg,AFSA12.jpg,AFNE18.jpg,FN,3,num_8,32,num_6,0.866778519354,,,2017_Aug_22_1047,60.0136473471,FEMA4ImagesEEG,001,101338,
AFNE01.JPG,AFNE01.JPG,AFNE01.JPG,AFNE01.JPG,AFNE01.JPG,AFNE01.JPG,,,,,,,,,5,1,51,8,,,,,,,,,,,,,,,AFNE10.jpg,AFNE06.jpg,AFSA13.jpg,AFSA07.jpg,AFSA07.jpg,FS,4,num_4,32,num_2,1.80000147538,,,2017_Aug_22_1047,60.0136473471,FEMA4ImagesEEG,001,101338,
AFNE01.JPG,AFNE01.JPG,AFNE01.JPG,AFNE01.JPG,AFNE01.JPG,AFNE01.JPG,,,,,,,,,5,2,52,0,,,,,,,,,,,,,,,AFNE10.jpg,AFSA15.jpg,AFSA03.jpg,AFNE08.jpg,AFSA03.jpg,FS,4,num_2,32,num_8,0.683822819614,,,2017_Aug_22_1047,60.0136473471,FEMA4ImagesEEG,001,101338,
AFNE01.JPG,AFNE01.JPG,AFNE01.JPG,AFNE01.JPG,AFNE01.JPG,AFNE01.JPG,,,,,,,,,5,3,53,1,,,,,,,,,,,,,,,AFNE18.jpg,AFSA11.jpg,AFNE05.jpg,AFSA09.jpg,AFNE18.jpg,FN,3,num_8,16,num_8,0.950150314602,,,2017_Aug_22_1047,60.0136473471,FEMA4ImagesEEG,001,101338,
AFNE01.JPG,AFNE01.JPG,AFNE01.JPG,AFNE01.JPG,AFNE01.JPG,AFNE01.JPG,,,,,,,,,5,4,54,2,,,,,,,,,,,,,,,AFSA16.jpg,AFNE03.jpg,AFNE07.jpg,AFSA20.jpg,AFSA16.jpg,FS,4,num_8,32,num_6,1.05007965572,,,2017_Aug_22_1047,60.0136473471,FEMA4ImagesEEG,001,101338,
AFNE01.JPG,AFNE01.JPG,AFNE01.JPG,AFNE01.JPG,AFNE01.JPG,AFNE01.JPG,,,,,,,,,5,5,55,7,,,,,,,,,,,,,,,AFSA06.jpg,AFNE12.jpg,AFNE19.jpg,AFSA09.jpg,AFNE19.jpg,FN,3,num_2,16,num_2,2.23340196093,,,2017_Aug_22_1047,60.0136473471,FEMA4ImagesEEG,001,101338,
AFNE01.JPG,AFNE01.JPG,AFNE01.JPG,AFNE01.JPG,AFNE01.JPG,AFNE01.JPG,,,,,,,,,5,6,56,4,,,,,,,,,,,,,,,AFNE11.jpg,AFNE06.jpg,AFSA15.jpg,AFSA10.jpg,AFNE06.jpg,FN,3,num_6,16,num_6,1.33343746688,,,2017_Aug_22_1047,60.0136473471,FEMA4ImagesEEG,001,101338,
AFNE01.JPG,AFNE01.JPG,AFNE01.JPG,AFNE01.JPG,AFNE01.JPG,AFNE01.JPG,,,,,,,,,5,7,57,9,,,,,,,,,,,,,,,AFNE14.jpg,AFSA14.jpg,AFSA13.jpg,AFNE02.jpg,AFNE02.jpg,FN,3,num_4,32,num_2,1.10007271171,,,2017_Aug_22_1047,60.0136473471,FEMA4ImagesEEG,001,101338,
AFNE01.JPG,AFNE01.JPG,AFNE01.JPG,AFNE01.JPG,AFNE01.JPG,AFNE01.JPG,,,,,,,,,5,8,58,6,,,,,,,,,,,,,,,AFNE15.jpg,AFSA01.jpg,AFNE03.jpg,AFSA09.jpg,AFSA01.jpg,FS,4,num_6,32,num_8,0.799961382872,,,2017_Aug_22_1047,60.0136473471,FEMA4ImagesEEG,001,101338,
AFNE01.JPG,AFNE01.JPG,AFNE01.JPG,AFNE01.JPG,AFNE01.JPG,AFNE01.JPG,,,,,,,,,5,9,59,3,,,,,,,,,,,,,,,AFNE09.jpg,AFNE02.jpg,AFSA05.jpg,AFSA07.jpg,AFSA05.jpg,FS,4,num_2,16,num_2,1.16674615664,,,2017_Aug_22_1047,60.0136473471,FEMA4ImagesEEG,001,101338,
,,,,,,,,,,,,,,,,,,,,,,,,,,,,,,,,,,,,,,,,,,,space,4.08317325753,2017_Aug_22_1047,60.0136473471,FEMA4ImagesEEG,001,101338,
AFNE01.JPG,AFNE01.JPG,AFNE01.JPG,AFNE01.JPG,AFNE01.JPG,AFNE01.JPG,,,,,,,,,,,,,0,0,0,4,,,,,,,,,,,AMSA15.jpg,AMNE19.jpg,AMNE12.jpg,AMSA06.jpg,AMNE19.jpg,MN,1,num_6,16,num_6,1.2834056014,,,2017_Aug_22_1047,60.0136473471,FEMA4ImagesEEG,001,101338,
AFNE01.JPG,AFNE01.JPG,AFNE01.JPG,AFNE01.JPG,AFNE01.JPG,AFNE01.JPG,,,,,,,,,,,,,0,1,1,1,,,,,,,,,,,AMSA03.jpg,AMSA02.jpg,AMNE15.jpg,AMNE10.jpg,AMSA02.jpg,MS,2,num_6,16,num_6,0.883451531176,,,2017_Aug_22_1047,60.0136473471,FEMA4ImagesEEG,001,101338,
AFNE01.JPG,AFNE01.JPG,AFNE01.JPG,AFNE01.JPG,AFNE01.JPG,AFNE01.JPG,,,,,,,,,,,,,0,2,2,9,,,,,,,,,,,AMNE16.jpg,AMSA01.jpg,AMNE18.jpg,AMSA07.jpg,AMSA01.jpg,MS,2,num_6,32,num_8,1.53344785876,,,2017_Aug_22_1047,60.0136473471,FEMA4ImagesEEG,001,101338,
AFNE01.JPG,AFNE01.JPG,AFNE01.JPG,AFNE01.JPG,AFNE01.JPG,AFNE01.JPG,,,,,,,,,,,,,0,3,3,5,,,,,,,,,,,AMNE11.jpg,AMSA04.jpg,AMNE10.jpg,AMSA16.jpg,AMNE10.jpg,MN,1,num_2,32,num_8,0.833471625578,,,2017_Aug_22_1047,60.0136473471,FEMA4ImagesEEG,001,101338,
AFNE01.JPG,AFNE01.JPG,AFNE01.JPG,AFNE01.JPG,AFNE01.JPG,AFNE01.JPG,,,,,,,,,,,,,0,4,4,6,,,,,,,,,,,AMSA02.jpg,AMSA16.jpg,AMNE15.jpg,AMNE07.jpg,AMSA02.jpg,MS,2,num_8,16,num_8,0.60018577252,,,2017_Aug_22_1047,60.0136473471,FEMA4ImagesEEG,001,101338,
AFNE01.JPG,AFNE01.JPG,AFNE01.JPG,AFNE01.JPG,AFNE01.JPG,AFNE01.JPG,,,,,,,,,,,,,0,5,5,2,,,,,,,,,,,AMSA10.jpg,AMSA18.jpg,AMNE19.jpg,AMNE09.jpg,AMNE19.jpg,MN,1,num_2,16,num_2,1.23343178967,,,2017_Aug_22_1047,60.0136473471,FEMA4ImagesEEG,001,101338,
AFNE01.JPG,AFNE01.JPG,AFNE01.JPG,AFNE01.JPG,AFNE01.JPG,AFNE01.JPG,,,,,,,,,,,,,0,6,6,8,,,,,,,,,,,AMNE19.jpg,AMSA07.jpg,AMSA19.jpg,AMNE10.jpg,AMNE10.jpg,MN,1,num_4,32,num_8,0.916803328553,,,2017_Aug_22_1047,60.0136473471,FEMA4ImagesEEG,001,101338,
AFNE01.JPG,AFNE01.JPG,AFNE01.JPG,AFNE01.JPG,AFNE01.JPG,AFNE01.JPG,,,,,,,,,,,,,0,7,7,3,,,,,,,,,,,AMNE09.jpg,AMSA18.jpg,AMSA16.jpg,AMNE19.jpg,AMNE09.jpg,MN,1,num_8,16,num_8,0.733515342465,,,2017_Aug_22_1047,60.0136473471,FEMA4ImagesEEG,001,101338,
AFNE01.JPG,AFNE01.JPG,AFNE01.JPG,AFNE01.JPG,AFNE01.JPG,AFNE01.JPG,,,,,,,,,,,,,0,8,8,0,,,,,,,,,,,AMNE19.jpg,AMSA19.jpg,AMNE16.jpg,AMSA17.jpg,AMSA19.jpg,MS,2,num_6,32,num_8,0.616815805202,,,2017_Aug_22_1047,60.0136473471,FEMA4ImagesEEG,001,101338,
AFNE01.JPG,AFNE01.JPG,AFNE01.JPG,AFNE01.JPG,AFNE01.JPG,AFNE01.JPG,,,,,,,,,,,,,0,9,9,7,,,,,,,,,,,AMNE15.jpg,AMSA08.jpg,AMNE14.jpg,AMSA19.jpg,AMSA19.jpg,MS,2,num_4,16,num_4,0.816898363759,,,2017_Aug_22_1047,60.0136473471,FEMA4ImagesEEG,001,101338,
AFNE01.JPG,AFNE01.JPG,AFNE01.JPG,AFNE01.JPG,AFNE01.JPG,AFNE01.JPG,,,,,,,,,,,,,1,0,10,9,,,,,,,,,,,AMNE01.jpg,AMSA12.jpg,AMNE19.jpg,AMSA01.jpg,AMNE01.jpg,MN,1,num_8,32,num_4,1.48347404716,,,2017_Aug_22_1047,60.0136473471,FEMA4ImagesEEG,001,101338,
AFNE01.JPG,AFNE01.JPG,AFNE01.JPG,AFNE01.JPG,AFNE01.JPG,AFNE01.JPG,,,,,,,,,,,,,1,1,11,5,,,,,,,,,,,AMSA04.jpg,AMSA09.jpg,AMNE12.jpg,AMNE16.jpg,AMSA09.jpg,MS,2,num_6,32,num_2,1.7333944235,,,2017_Aug_22_1047,60.0136473471,FEMA4ImagesEEG,001,101338,
AFNE01.JPG,AFNE01.JPG,AFNE01.JPG,AFNE01.JPG,AFNE01.JPG,AFNE01.JPG,,,,,,,,,,,,,1,2,12,2,,,,,,,,,,,AMNE11.jpg,AMSA11.jpg,AMNE12.jpg,AMSA01.jpg,AMNE12.jpg,MN,1,num_2,32,num_8,0.916786329239,,,2017_Aug_22_1047,60.0136473471,FEMA4ImagesEEG,001,101338,
AFNE01.JPG,AFNE01.JPG,AFNE01.JPG,AFNE01.JPG,AFNE01.JPG,AFNE01.JPG,,,,,,,,,,,,,1,3,13,0,,,,,,,,,,,AMNE18.jpg,AMNE05.jpg,AMSA07.jpg,AMSA10.jpg,AMSA07.jpg,MS,2,num_2,16,num_2,1.21679566288,,,2017_Aug_22_1047,60.0136473471,FEMA4ImagesEEG,001,101338,
AFNE01.JPG,AFNE01.JPG,AFNE01.JPG,AFNE01.JPG,AFNE01.JPG,AFNE01.JPG,,,,,,,,,,,,,1,4,14,1,,,,,,,,,,,AMSA01.jpg,AMNE09.jpg,AMSA04.jpg,AMNE13.jpg,AMSA01.jpg,MS,2,num_8,16,num_8,0.950184313115,,,2017_Aug_22_1047,60.0136473471,FEMA4ImagesEEG,001,101338,
AFNE01.JPG,AFNE01.JPG,AFNE01.JPG,AFNE01.JPG,AFNE01.JPG,AFNE01.JPG,,,,,,,,,,,,,1,5,15,3,,,,,,,,,,,AMSA12.jpg,AMNE15.jpg,AMSA08.jpg,AMNE13.jpg,AMSA12.jpg,MS,2,num_8,32,num_4,1.53336991905,,,2017_Aug_22_1047,60.0136473471,FEMA4ImagesEEG,001,101338,
AFNE01.JPG,AFNE01.JPG,AFNE01.JPG,AFNE01.JPG,AFNE01.JPG,AFNE01.JPG,,,,,,,,,,,,,1,6,16,6,,,,,,,,,,,AMSA12.jpg,AMNE19.jpg,AMSA18.jpg,AMNE05.jpg,AMSA12.jpg,MS,2,num_8,32,num_6,1.5167126233,,,2017_Aug_22_1047,60.0136473471,FEMA4ImagesEEG,001,101338,
AFNE01.JPG,AFNE01.JPG,AFNE01.JPG,AFNE01.JPG,AFNE01.JPG,AFNE01.JPG,,,,,,,,,,,,,1,7,17,8,,,,,,,,,,,AMSA08.jpg,AMNE15.jpg,AMNE02.jpg,AMSA03.jpg,AMNE15.jpg,MN,1,num_6,32,num_8,0.916761311586,,,2017_Aug_22_1047,60.0136473471,FEMA4ImagesEEG,001,101338,
AFNE01.JPG,AFNE01.JPG,AFNE01.JPG,AFNE01.JPG,AFNE01.JPG,AFNE01.JPG,,,,,,,,,,,,,1,8,18,7,,,,,,,,,,,AMNE14.jpg,AMNE12.jpg,AMSA19.jpg,AMSA14.jpg,AMNE14.jpg,MN,1,num_8,32,num_4,0.700101321563,,,2017_Aug_22_1047,60.0136473471,FEMA4ImagesEEG,001,101338,
AFNE01.JPG,AFNE01.JPG,AFNE01.JPG,AFNE01.JPG,AFNE01.JPG,AFNE01.JPG,,,,,,,,,,,,,1,9,19,4,,,,,,,,,,,AMNE10.jpg,AMSA07.jpg,AMSA17.jpg,AMNE12.jpg,AMNE10.jpg,MN,1,num_8,16,num_8,0.91677799006,,,2017_Aug_22_1047,60.0136473471,FEMA4ImagesEEG,001,101338,
AFNE01.JPG,AFNE01.JPG,AFNE01.JPG,AFNE01.JPG,AFNE01.JPG,AFNE01.JPG,,,,,,,,,,,,,2,0,20,6,,,,,,,,,,,AMSA14.jpg,AMSA07.jpg,AMNE16.jpg,AMNE07.jpg,AMSA07.jpg,MS,2,num_6,16,num_6,1.71672333602,,,2017_Aug_22_1047,60.0136473471,FEMA4ImagesEEG,001,101338,
AFNE01.JPG,AFNE01.JPG,AFNE01.JPG,AFNE01.JPG,AFNE01.JPG,AFNE01.JPG,,,,,,,,,,,,,2,1,21,8,,,,,,,,,,,AMNE02.jpg,AMSA06.jpg,AMNE15.jpg,AMSA03.jpg,AMNE15.jpg,MN,1,num_2,32,num_8,1.0167673094,,,2017_Aug_22_1047,60.0136473471,FEMA4ImagesEEG,001,101338,
AFNE01.JPG,AFNE01.JPG,AFNE01.JPG,AFNE01.JPG,AFNE01.JPG,AFNE01.JPG,,,,,,,,,,,,,2,2,22,0,,,,,,,,,,,AMNE18.jpg,AMSA18.jpg,AMSA14.jpg,AMNE06.jpg,AMNE06.jpg,MN,1,num_4,32,num_2,1.08343754709,,,2017_Aug_22_1047,60.0136473471,FEMA4ImagesEEG,001,101338,
AFNE01.JPG,AFNE01.JPG,AFNE01.JPG,AFNE01.JPG,AFNE01.JPG,AFNE01.JPG,,,,,,,,,,,,,2,3,23,4,,,,,,,,,,,AMSA02.jpg,AMNE02.jpg,AMSA19.jpg,AMNE05.jpg,AMNE02.jpg,MN,1,num_6,32,num_8,0.800280198222,,,2017_Aug_22_1047,60.0136473471,FEMA4ImagesEEG,001,101338,
AFNE01.JPG,AFNE01.JPG,AFNE01.JPG,AFNE01.JPG,AFNE01.JPG,AFNE01.JPG,,,,,,,,,,,,,2,4,24,1,,,,,,,,,,,AMNE03.jpg,AMSA05.jpg,AMNE17.jpg,AMSA03.jpg,AMNE17.jpg,MN,1,num_2,32,num_6,1.01674004656,,,2017_Aug_22_1047,60.0136473471,FEMA4ImagesEEG,001,101338,
AFNE01.JPG,AFNE01.JPG,AFNE01.JPG,AFNE01.JPG,AFNE01.JPG,AFNE01.JPG,,,,,,,,,,,,,2,5,25,7,,,,,,,,,,,AMSA14.jpg,AMNE11.jpg,AMNE04.jpg,AMSA03.jpg,AMNE11.jpg,MN,1,num_6,32,num_4,0.616842105985,,,2017_Aug_22_1047,60.0136473471,FEMA4ImagesEEG,001,101338,
AFNE01.JPG,AFNE01.JPG,AFNE01.JPG,AFNE01.JPG,AFNE01.JPG,AFNE01.JPG,,,,,,,,,,,,,2,6,26,3,,,,,,,,,,,AMNE04.jpg,AMNE06.jpg,AMSA14.jpg,AMSA20.jpg,AMNE06.jpg,MN,1,num_6,32,num_8,0.366828394239,,,2017_Aug_22_1047,60.0136473471,FEMA4ImagesEEG,001,101338,
AFNE01.JPG,AFNE01.JPG,AFNE01.JPG,AFNE01.JPG,AFNE01.JPG,AFNE01.JPG,,,,,,,,,,,,,2,7,27,5,,,,,,,,,,,AMSA04.jpg,AMSA10.jpg,AMNE07.jpg,AMNE15.jpg,AMSA04.jpg,MS,2,num_8,32,num_2,1.71674129739,,,2017_Aug_22_1047,60.0136473471,FEMA4ImagesEEG,001,101338,
AFNE01.JPG,AFNE01.JPG,AFNE01.JPG,AFNE01.JPG,AFNE01.JPG,AFNE01.JPG,,,,,,,,,,,,,2,8,28,2,,,,,,,,,,,AMSA20.jpg,AMSA01.jpg,AMNE15.jpg,AMNE17.jpg,AMNE15.jpg,MN,1,num_2,32,num_8,0.80020610732,,,2017_Aug_22_1047,60.0136473471,FEMA4ImagesEEG,001,101338,
AFNE01.JPG,AFNE01.JPG,AFNE01.JPG,AFNE01.JPG,AFNE01.JPG,AFNE01.JPG,,,,,,,,,,,,,2,9,29,9,,,,,,,,,,,AMSA01.jpg,AMNE08.jpg,AMSA13.jpg,AMNE04.jpg,AMSA13.jpg,MS,2,num_2,32,num_6,0.983470358653,,,2017_Aug_22_1047,60.0136473471,FEMA4ImagesEEG,001,101338,
AFNE01.JPG,AFNE01.JPG,AFNE01.JPG,AFNE01.JPG,AFNE01.JPG,AFNE01.JPG,,,,,,,,,,,,,3,0,30,3,,,,,,,,,,,AMNE16.jpg,AMSA17.jpg,AMNE14.jpg,AMSA11.jpg,AMNE14.jpg,MN,1,num_2,16,num_2,1.90004467906,,,2017_Aug_22_1047,60.0136473471,FEMA4ImagesEEG,001,101338,
AFNE01.JPG,AFNE01.JPG,AFNE01.JPG,AFNE01.JPG,AFNE01.JPG,AFNE01.JPG,,,,,,,,,,,,,3,1,31,7,,,,,,,,,,,AMSA17.jpg,AMNE13.jpg,AMNE14.jpg,AMSA14.jpg,AMNE13.jpg,MN,1,num_6,16,num_6,0.983475490473,,,2017_Aug_22_1047,60.0136473471,FEMA4ImagesEEG,001,101338,
AFNE01.JPG,AFNE01.JPG,AFNE01.JPG,AFNE01.JPG,AFNE01.JPG,AFNE01.JPG,,,,,,,,,,,,,3,2,32,9,,,,,,,,,,,AMSA15.jpg,AMNE20.jpg,AMNE04.jpg,AMSA17.jpg,AMSA17.jpg,MS,2,num_4,16,num_4,0.833507227711,,,2017_Aug_22_1047,60.0136473471,FEMA4ImagesEEG,001,101338,
AFNE01.JPG,AFNE01.JPG,AFNE01.JPG,AFNE01.JPG,AFNE01.JPG,AFNE01.JPG,,,,,,,,,,,,,3,3,33,2,,,,,,,,,,,AMNE19.jpg,AMSA09.jpg,AMNE07.jpg,AMSA02.jpg,AMNE19.jpg,MN,1,num_8,16,num_8,1.06676774239,,,2017_Aug_22_1047,60.0136473471,FEMA4ImagesEEG,001,101338,
AFNE01.JPG,AFNE01.JPG,AFNE01.JPG,AFNE01.JPG,AFNE01.JPG,AFNE01.JPG,,,,,,,,,,,,,3,4,34,6,,,,,,,,,,,AMNE06.jpg,AMSA15.jpg,AMSA13.jpg,AMNE02.jpg,AMSA15.jpg,MS,2,num_6,16,num_6,1.11677587312,,,2017_Aug_22_1047,60.0136473471,FEMA4ImagesEEG,001,101338,
AFNE01.JPG,AFNE01.JPG,AFNE01.JPG,AFNE01.JPG,AFNE01.JPG,AFNE01.JPG,,,,,,,,,,,,,3,5,35,5,,,,,,,,,,,AMSA19.jpg,AMSA10.jpg,AMNE20.jpg,AMNE06.jpg,AMSA10.jpg,MS,2,num_6,16,num_6,0.900231349515,,,2017_Aug_22_1047,60.0136473471,FEMA4ImagesEEG,001,101338,
AFNE01.JPG,AFNE01.JPG,AFNE01.JPG,AFNE01.JPG,AFNE01.JPG,AFNE01.JPG,,,,,,,,,,,,,3,6,36,0,,,,,,,,,,,AMSA02.jpg,AMNE15.jpg,AMSA11.jpg,AMNE13.jpg,AMNE15.jpg,MN,1,num_6,32,num_8,0.916390536469,,,2017_Aug_22_1047,60.0136473471,FEMA4ImagesEEG,001,101338,
AFNE01.JPG,AFNE01.JPG,AFNE01.JPG,AFNE01.JPG,AFNE01.JPG,AFNE01.JPG,,,,,,,,,,,,,3,7,37,1,,,,,,,,,,,AMSA01.jpg,AMNE02.jpg,AMSA19.jpg,AMNE07.jpg,AMSA01.jpg,MS,2,num_8,16,num_8,0.833465852309,,,2017_Aug_22_1047,60.0136473471,FEMA4ImagesEEG,001,101338,
AFNE01.JPG,AFNE01.JPG,AFNE01.JPG,AFNE01.JPG,AFNE01.JPG,AFNE01.JPG,,,,,,,,,,,,,3,8,38,8,,,,,,,,,,,AMNE01.jpg,AMSA19.jpg,AMSA07.jpg,AMNE06.jpg,AMNE06.jpg,MN,1,num_4,32,num_2,2.06669685896,,,2017_Aug_22_1047,60.0136473471,FEMA4ImagesEEG,001,101338,
AFNE01.JPG,AFNE01.JPG,AFNE01.JPG,AFNE01.JPG,AFNE01.JPG,AFNE01.JPG,,,,,,,,,,,,,3,9,39,4,,,,,,,,,,,AMSA20.jpg,AMSA02.jpg,AMNE07.jpg,AMNE11.jpg,AMSA20.jpg,MS,2,num_8,32,num_6,0.81682266912,,,2017_Aug_22_1047,60.0136473471,FEMA4ImagesEEG,001,101338,
AFNE01.JPG,AFNE01.JPG,AFNE01.JPG,AFNE01.JPG,AFNE01.JPG,AFNE01.JPG,,,,,,,,,,,,,4,0,40,5,,,,,,,,,,,AMNE11.jpg,AMSA15.jpg,AMSA11.jpg,AMNE15.jpg,AMSA11.jpg,MS,2,num_2,16,num_2,1.30038139166,,,2017_Aug_22_1047,60.0136473471,FEMA4ImagesEEG,001,101338,
AFNE01.JPG,AFNE01.JPG,AFNE01.JPG,AFNE01.JPG,AFNE01.JPG,AFNE01.JPG,,,,,,,,,,,,,4,1,41,7,,,,,,,,,,,AMNE12.jpg,AMSA05.jpg,AMNE17.jpg,AMSA08.jpg,AMNE17.jpg,MN,1,num_2,32,num_6,0.58346753614,,,2017_Aug_22_1047,60.0136473471,FEMA4ImagesEEG,001,101338,
AFNE01.JPG,AFNE01.JPG,AFNE01.JPG,AFNE01.JPG,AFNE01.JPG,AFNE01.JPG,,,,,,,,,,,,,4,2,42,0,,,,,,,,,,,AMNE03.jpg,AMSA13.jpg,AMNE01.jpg,AMSA09.jpg,AMSA13.jpg,MS,2,num_6,32,num_4,0.633500684518,,,2017_Aug_22_1047,60.0136473471,FEMA4ImagesEEG,001,101338,
AFNE01.JPG,AFNE01.JPG,AFNE01.JPG,AFNE01.JPG,AFNE01.JPG,AFNE01.JPG,,,,,,,,,,,,,4,3,43,2,,,,,,,,,,,AMNE14.jpg,AMNE04.jpg,AMSA12.jpg,AMSA08.jpg,AMSA08.jpg,MS,2,num_4,32,num_8,1.86673650239,,,2017_Aug_22_1047,60.0136473471,FEMA4ImagesEEG,001,101338,
AFNE01.JPG,AFNE01.JPG,AFNE01.JPG,AFNE01.JPG,AFNE01.JPG,AFNE01.JPG,,,,,,,,,,,,,4,4,44,4,,,,,,,,,,,AMNE14.jpg,AMNE20.jpg,AMSA18.jpg,AMSA11.jpg,AMNE14.jpg,MN,1,num_8,32,num_6,1.51669786929,,,2017_Aug_22_1047,60.0136473471,FEMA4ImagesEEG,001,101338,
AFNE01.JPG,AFNE01.JPG,AFNE01.JPG,AFNE01.JPG,AFNE01.JPG,AFNE01.JPG,,,,,,,,,,,,,4,5,45,9,,,,,,,,,,,AMNE05.jpg,AMNE10.jpg,AMSA08.jpg,AMSA07.jpg,AMNE05.jpg,MN,1,num_8,16,num_8,0.816759804147,,,2017_Aug_22_1047,60.0136473471,FEMA4ImagesEEG,001,101338,
AFNE01.JPG,AFNE01.JPG,AFNE01.JPG,AFNE01.JPG,AFNE01.JPG,AFNE01.JPG,,,,,,,,,,,,,4,6,46,1,,,,,,,,,,,AMNE11.jpg,AMSA01.jpg,AMNE04.jpg,AMSA06.jpg,AMSA06.jpg,MS,2,num_4,32,num_2,1.60003951506,,,2017_Aug_22_1047,60.0136473471,FEMA4ImagesEEG,001,101338,
AFNE01.JPG,AFNE01.JPG,AFNE01.JPG,AFNE01.JPG,AFNE01.JPG,AFNE01.JPG,,,,,,,,,,,,,4,7,47,6,,,,,,,,,,,AMSA19.jpg,AMNE06.jpg,AMSA08.jpg,AMNE10.jpg,AMNE10.jpg,MN,1,num_4,32,num_6,0.683496947982,,,2017_Aug_22_1047,60.0136473471,FEMA4ImagesEEG,001,101338,
AFNE01.JPG,AFNE01.JPG,AFNE01.JPG,AFNE01.JPG,AFNE01.JPG,AFNE01.JPG,,,,,,,,,,,,,4,8,48,8,,,,,,,,,,,AMNE19.jpg,AMNE09.jpg,AMSA09.jpg,AMSA04.jpg,AMNE19.jpg,MN,1,num_8,16,num_8,1.08343209443,,,2017_Aug_22_1047,60.0136473471,FEMA4ImagesEEG,001,101338,
AFNE01.JPG,AFNE01.JPG,AFNE01.JPG,AFNE01.JPG,AFNE01.JPG,AFNE01.JPG,,,,,,,,,,,,,4,9,49,3,,,,,,,,,,,AMSA14.jpg,AMSA05.jpg,AMNE07.jpg,AMNE08.jpg,AMSA14.jpg,MS,2,num_8,16,num_8,1.80007396254,,,2017_Aug_22_1047,60.0136473471,FEMA4ImagesEEG,001,101338,
AFNE01.JPG,AFNE01.JPG,AFNE01.JPG,AFNE01.JPG,AFNE01.JPG,AFNE01.JPG,,,,,,,,,,,,,5,0,50,5,,,,,,,,,,,AMSA18.jpg,AMSA16.jpg,AMNE17.jpg,AMNE16.jpg,AMSA16.jpg,MS,2,num_6,16,num_6,1.1169942969,,,2017_Aug_22_1047,60.0136473471,FEMA4ImagesEEG,001,101338,
AFNE01.JPG,AFNE01.JPG,AFNE01.JPG,AFNE01.JPG,AFNE01.JPG,AFNE01.JPG,,,,,,,,,,,,,5,1,51,1,,,,,,,,,,,AMNE19.jpg,AMNE01.jpg,AMSA04.jpg,AMSA17.jpg,AMNE19.jpg,MN,1,num_8,32,num_6,1.71666367841,,,2017_Aug_22_1047,60.0136473471,FEMA4ImagesEEG,001,101338,
AFNE01.JPG,AFNE01.JPG,AFNE01.JPG,AFNE01.JPG,AFNE01.JPG,AFNE01.JPG,,,,,,,,,,,,,5,2,52,3,,,,,,,,,,,AMSA04.jpg,AMNE02.jpg,AMSA02.jpg,AMNE01.jpg,AMNE02.jpg,MN,1,num_6,32,num_4,1.06673149893,,,2017_Aug_22_1047,60.0136473471,FEMA4ImagesEEG,001,101338,
AFNE01.JPG,AFNE01.JPG,AFNE01.JPG,AFNE01.JPG,AFNE01.JPG,AFNE01.JPG,,,,,,,,,,,,,5,3,53,0,,,,,,,,,,,AMSA06.jpg,AMNE07.jpg,AMSA04.jpg,AMNE13.jpg,AMSA06.jpg,MS,2,num_8,16,num_8,0.666779673891,,,2017_Aug_22_1047,60.0136473471,FEMA4ImagesEEG,001,101338,
AFNE01.JPG,AFNE01.JPG,AFNE01.JPG,AFNE01.JPG,AFNE01.JPG,AFNE01.JPG,,,,,,,,,,,,,5,4,54,8,,,,,,,,,,,AMSA05.jpg,AMNE09.jpg,AMNE11.jpg,AMSA15.jpg,AMSA15.jpg,MS,2,num_4,32,num_6,0.916816157987,,,2017_Aug_22_1047,60.0136473471,FEMA4ImagesEEG,001,101338,
AFNE01.JPG,AFNE01.JPG,AFNE01.JPG,AFNE01.JPG,AFNE01.JPG,AFNE01.JPG,,,,,,,,,,,,,5,5,55,2,,,,,,,,,,,AMNE13.jpg,AMNE15.jpg,AMSA01.jpg,AMSA12.jpg,AMSA01.jpg,MS,2,num_2,16,num_2,2.89993594831,,,2017_Aug_22_1047,60.0136473471,FEMA4ImagesEEG,001,101338,
AFNE01.JPG,AFNE01.JPG,AFNE01.JPG,AFNE01.JPG,AFNE01.JPG,AFNE01.JPG,,,,,,,,,,,,,5,6,56,7,,,,,,,,,,,AMNE10.jpg,AMSA14.jpg,AMSA04.jpg,AMNE11.jpg,AMNE11.jpg,MN,1,num_4,32,num_2,1.20006203104,,,2017_Aug_22_1047,60.0136473471,FEMA4ImagesEEG,001,101338,
AFNE01.JPG,AFNE01.JPG,AFNE01.JPG,AFNE01.JPG,AFNE01.JPG,AFNE01.JPG,,,,,,,,,,,,,5,7,57,4,,,,,,,,,,,AMNE17.jpg,AMSA14.jpg,AMNE09.jpg,AMSA08.jpg,AMNE17.jpg,MN,1,num_8,16,num_8,0.983467792743,,,2017_Aug_22_1047,60.0136473471,FEMA4ImagesEEG,001,101338,
AFNE01.JPG,AFNE01.JPG,AFNE01.JPG,AFNE01.JPG,AFNE01.JPG,AFNE01.JPG,,,,,,,,,,,,,5,8,58,6,,,,,,,,,,,AMNE08.jpg,AMSA13.jpg,AMNE11.jpg,AMSA19.jpg,AMSA19.jpg,MS,2,num_4,16,num_4,0.750025097979,,,2017_Aug_22_1047,60.0136473471,FEMA4ImagesEEG,001,101338,
AFNE01.JPG,AFNE01.JPG,AFNE01.JPG,AFNE01.JPG,AFNE01.JPG,AFNE01.JPG,,,,,,,,,,,,,5,9,59,9,,,,,,,,,,,AMNE07.jpg,AMSA05.jpg,AMSA17.jpg,AMNE16.jpg,AMNE07.jpg,MN,1,num_8,32,num_2,1.13341937703,,,2017_Aug_22_1047,60.0136473471,FEMA4ImagesEEG,001,101338,
,,,,,,,,,,,,,,,,,,,,,,,,,,,,,,,,,,,,,,,,,,,space,12.9994508936,2017_Aug_22_1047,60.0136473471,FEMA4ImagesEEG,001,101338,
AFNE01.JPG,AFNE01.JPG,AFNE01.JPG,AFNE01.JPG,AFNE01.JPG,AFNE01.JPG,,,,,,,,,,,,,,,,,0,0,0,1,,,,,,,AFNE06.jpg,AFNE12.jpg,AFSA16.jpg,AFSA15.jpg,AFNE06.jpg,FN,3,num_8,32,num_4,0.78343751491,,,2017_Aug_22_1047,60.0136473471,FEMA4ImagesEEG,001,101338,
AFNE01.JPG,AFNE01.JPG,AFNE01.JPG,AFNE01.JPG,AFNE01.JPG,AFNE01.JPG,,,,,,,,,,,,,,,,,0,1,1,3,,,,,,,AFNE16.jpg,AFSA02.jpg,AFNE19.jpg,AFSA01.jpg,AFNE16.jpg,FN,3,num_8,32,num_4,0.916801724816,,,2017_Aug_22_1047,60.0136473471,FEMA4ImagesEEG,001,101338,
AFNE01.JPG,AFNE01.JPG,AFNE01.JPG,AFNE01.JPG,AFNE01.JPG,AFNE01.JPG,,,,,,,,,,,,,,,,,0,2,2,8,,,,,,,AFNE20.jpg,AFSA06.jpg,AFNE11.jpg,AFSA18.jpg,AFSA06.jpg,FS,4,num_6,32,num_2,0.91673501092,,,2017_Aug_22_1047,60.0136473471,FEMA4ImagesEEG,001,101338,
AFNE01.JPG,AFNE01.JPG,AFNE01.JPG,AFNE01.JPG,AFNE01.JPG,AFNE01.JPG,,,,,,,,,,,,,,,,,0,3,3,5,,,,,,,AFSA13.jpg,AFSA15.jpg,AFNE15.jpg,AFNE10.jpg,AFNE15.jpg,FN,3,num_2,32,num_6,0.866788141429,,,2017_Aug_22_1047,60.0136473471,FEMA4ImagesEEG,001,101338,
AFNE01.JPG,AFNE01.JPG,AFNE01.JPG,AFNE01.JPG,AFNE01.JPG,AFNE01.JPG,,,,,,,,,,,,,,,,,0,4,4,7,,,,,,,AFNE03.jpg,AFSA04.jpg,AFNE17.jpg,AFSA07.jpg,AFNE17.jpg,FN,3,num_2,32,num_6,0.966716841096,,,2017_Aug_22_1047,60.0136473471,FEMA4ImagesEEG,001,101338,
AFNE01.JPG,AFNE01.JPG,AFNE01.JPG,AFNE01.JPG,AFNE01.JPG,AFNE01.JPG,,,,,,,,,,,,,,,,,0,5,5,0,,,,,,,AFSA07.jpg,AFSA02.jpg,AFNE02.jpg,AFNE18.jpg,AFNE02.jpg,FN,3,num_2,32,num_6,1.40022060473,,,2017_Aug_22_1047,60.0136473471,FEMA4ImagesEEG,001,101338,
AFNE01.JPG,AFNE01.JPG,AFNE01.JPG,AFNE01.JPG,AFNE01.JPG,AFNE01.JPG,,,,,,,,,,,,,,,,,0,6,6,2,,,,,,,AFSA11.jpg,AFNE04.jpg,AFNE01.jpg,AFSA01.jpg,AFSA11.jpg,FS,4,num_8,16,num_8,0.616793995025,,,2017_Aug_22_1047,60.0136473471,FEMA4ImagesEEG,001,101338,
AFNE01.JPG,AFNE01.JPG,AFNE01.JPG,AFNE01.JPG,AFNE01.JPG,AFNE01.JPG,,,,,,,,,,,,,,,,,0,7,7,4,,,,,,,AFNE04.jpg,AFNE08.jpg,AFSA09.jpg,AFSA01.jpg,AFNE04.jpg,FN,3,num_8,32,num_6,0.95030651486,,,2017_Aug_22_1047,60.0136473471,FEMA4ImagesEEG,001,101338,
AFNE01.JPG,AFNE01.JPG,AFNE01.JPG,AFNE01.JPG,AFNE01.JPG,AFNE01.JPG,,,,,,,,,,,,,,,,,0,8,8,6,,,,,,,AFSA05.jpg,AFSA11.jpg,AFNE06.jpg,AFNE15.jpg,AFSA11.jpg,FS,4,num_6,32,num_8,1.10013910476,,,2017_Aug_22_1047,60.0136473471,FEMA4ImagesEEG,001,101338,
AFNE01.JPG,AFNE01.JPG,AFNE01.JPG,AFNE01.JPG,AFNE01.JPG,AFNE01.JPG,,,,,,,,,,,,,,,,,0,9,9,9,,,,,,,AFNE07.jpg,AFNE18.jpg,AFSA09.jpg,AFSA17.jpg,AFSA17.jpg,FS,4,num_4,16,num_4,0.799935403047,,,2017_Aug_22_1047,60.0136473471,FEMA4ImagesEEG,001,101338,
AFNE01.JPG,AFNE01.JPG,AFNE01.JPG,AFNE01.JPG,AFNE01.JPG,AFNE01.JPG,,,,,,,,,,,,,,,,,1,0,10,0,,,,,,,AFSA06.jpg,AFNE07.jpg,AFSA02.jpg,AFNE02.jpg,AFNE07.jpg,FN,3,num_6,32,num_2,1.20008704881,,,2017_Aug_22_1047,60.0136473471,FEMA4ImagesEEG,001,101338,
AFNE01.JPG,AFNE01.JPG,AFNE01.JPG,AFNE01.JPG,AFNE01.JPG,AFNE01.JPG,,,,,,,,,,,,,,,,,1,1,11,5,,,,,,,AFNE19.jpg,AFNE18.jpg,AFSA14.jpg,AFSA05.jpg,AFNE19.jpg,FN,3,num_8,16,num_8,0.816792519647,,,2017_Aug_22_1047,60.0136473471,FEMA4ImagesEEG,001,101338,
AFNE01.JPG,AFNE01.JPG,AFNE01.JPG,AFNE01.JPG,AFNE01.JPG,AFNE01.JPG,,,,,,,,,,,,,,,,,1,2,12,1,,,,,,,AFSA08.jpg,AFNE17.jpg,AFNE02.jpg,AFSA09.jpg,AFSA09.jpg,FS,4,num_4,32,num_8,0.85014239233,,,2017_Aug_22_1047,60.0136473471,FEMA4ImagesEEG,001,101338,
AFNE01.JPG,AFNE01.JPG,AFNE01.JPG,AFNE01.JPG,AFNE01.JPG,AFNE01.JPG,,,,,,,,,,,,,,,,,1,3,13,9,,,,,,,AFSA01.jpg,AFNE11.jpg,AFSA08.jpg,AFNE08.jpg,AFNE11.jpg,FN,3,num_6,32,num_8,0.800088075106,,,2017_Aug_22_1047,60.0136473471,FEMA4ImagesEEG,001,101338,
AFNE01.JPG,AFNE01.JPG,AFNE01.JPG,AFNE01.JPG,AFNE01.JPG,AFNE01.JPG,,,,,,,,,,,,,,,,,1,4,14,2,,,,,,,AFNE15.jpg,AFSA20.jpg,AFNE14.jpg,AFSA15.jpg,AFNE14.jpg,FN,3,num_2,16,num_2,1.46679173375,,,2017_Aug_22_1047,60.0136473471,FEMA4ImagesEEG,001,101338,
AFNE01.JPG,AFNE01.JPG,AFNE01.JPG,AFNE01.JPG,AFNE01.JPG,AFNE01.JPG,,,,,,,,,,,,,,,,,1,5,15,6,,,,,,,AFSA14.jpg,AFSA06.jpg,AFNE13.jpg,AFNE18.jpg,AFNE18.jpg,FN,3,num_4,32,num_2,1.13341392449,,,2017_Aug_22_1047,60.0136473471,FEMA4ImagesEEG,001,101338,
AFNE01.JPG,AFNE01.JPG,AFNE01.JPG,AFNE01.JPG,AFNE01.JPG,AFNE01.JPG,,,,,,,,,,,,,,,,,1,6,16,3,,,,,,,AFNE06.jpg,AFSA18.jpg,AFNE02.jpg,AFSA13.jpg,AFNE06.jpg,FN,3,num_8,16,num_8,0.666767165181,,,2017_Aug_22_1047,60.0136473471,FEMA4ImagesEEG,001,101338,
AFNE01.JPG,AFNE01.JPG,AFNE01.JPG,AFNE01.JPG,AFNE01.JPG,AFNE01.JPG,,,,,,,,,,,,,,,,,1,7,17,8,,,,,,,AFNE01.jpg,AFNE17.jpg,AFSA06.jpg,AFSA08.jpg,AFSA06.jpg,FS,4,num_2,16,num_2,1.65005309845,,,2017_Aug_22_1047,60.0136473471,FEMA4ImagesEEG,001,101338,
AFNE01.JPG,AFNE01.JPG,AFNE01.JPG,AFNE01.JPG,AFNE01.JPG,AFNE01.JPG,,,,,,,,,,,,,,,,,1,8,18,7,,,,,,,AFNE13.jpg,AFNE02.jpg,AFSA12.jpg,AFSA15.jpg,AFSA15.jpg,FS,4,num_4,32,num_8,1.18356061494,,,2017_Aug_22_1047,60.0136473471,FEMA4ImagesEEG,001,101338,
AFNE01.JPG,AFNE01.JPG,AFNE01.JPG,AFNE01.JPG,AFNE01.JPG,AFNE01.JPG,,,,,,,,,,,,,,,,,1,9,19,4,,,,,,,AFSA01.jpg,AFNE10.jpg,AFNE01.jpg,AFSA16.jpg,AFNE10.jpg,FN,3,num_6,32,num_8,1.01680483599,,,2017_Aug_22_1047,60.0136473471,FEMA4ImagesEEG,001,101338,
AFNE01.JPG,AFNE01.JPG,AFNE01.JPG,AFNE01.JPG,AFNE01.JPG,AFNE01.JPG,,,,,,,,,,,,,,,,,2,0,20,9,,,,,,,AFNE12.jpg,AFSA05.jpg,AFNE09.jpg,AFSA03.jpg,AFSA05.jpg,FS,4,num_6,32,num_2,1.35007102787,,,2017_Aug_22_1047,60.0136473471,FEMA4ImagesEEG,001,101338,
AFNE01.JPG,AFNE01.JPG,AFNE01.JPG,AFNE01.JPG,AFNE01.JPG,AFNE01.JPG,,,,,,,,,,,,,,,,,2,1,21,6,,,,,,,AFSA09.jpg,AFSA19.jpg,AFNE11.jpg,AFNE04.jpg,AFNE04.jpg,FN,3,num_4,16,num_4,0.516425561276,,,2017_Aug_22_1047,60.0136473471,FEMA4ImagesEEG,001,101338,
AFNE01.JPG,AFNE01.JPG,AFNE01.JPG,AFNE01.JPG,AFNE01.JPG,AFNE01.JPG,,,,,,,,,,,,,,,,,2,2,22,8,,,,,,,AFSA18.jpg,AFNE13.jpg,AFNE09.jpg,AFSA16.jpg,AFNE13.jpg,FN,3,num_6,32,num_8,0.733500909177,,,2017_Aug_22_1047,60.0136473471,FEMA4ImagesEEG,001,101338,
AFNE01.JPG,AFNE01.JPG,AFNE01.JPG,AFNE01.JPG,AFNE01.JPG,AFNE01.JPG,,,,,,,,,,,,,,,,,2,3,23,3,,,,,,,AFNE15.jpg,AFNE14.jpg,AFSA07.jpg,AFSA01.jpg,AFNE15.jpg,FN,3,num_8,32,num_6,3.24994796002,,,2017_Aug_22_1047,60.0136473471,FEMA4ImagesEEG,001,101338,
AFNE01.JPG,AFNE01.JPG,AFNE01.JPG,AFNE01.JPG,AFNE01.JPG,AFNE01.JPG,,,,,,,,,,,,,,,,,2,4,24,2,,,,,,,AFNE18.jpg,AFSA17.jpg,AFSA01.jpg,AFNE10.jpg,AFSA01.jpg,FS,4,num_2,16,num_2,0.966755329864,,,2017_Aug_22_1047,60.0136473471,FEMA4ImagesEEG,001,101338,
AFNE01.JPG,AFNE01.JPG,AFNE01.JPG,AFNE01.JPG,AFNE01.JPG,AFNE01.JPG,,,,,,,,,,,,,,,,,2,5,25,4,,,,,,,AFNE18.jpg,AFSA10.jpg,AFSA13.jpg,AFNE19.jpg,AFNE19.jpg,FN,3,num_4,32,num_2,1.19998826087,,,2017_Aug_22_1047,60.0136473471,FEMA4ImagesEEG,001,101338,
AFNE01.JPG,AFNE01.JPG,AFNE01.JPG,AFNE01.JPG,AFNE01.JPG,AFNE01.JPG,,,,,,,,,,,,,,,,,2,6,26,0,,,,,,,AFSA04.jpg,AFSA01.jpg,AFNE05.jpg,AFNE19.jpg,AFSA01.jpg,FS,4,num_6,16,num_6,1.01677725231,,,2017_Aug_22_1047,60.0136473471,FEMA4ImagesEEG,001,101338,
AFNE01.JPG,AFNE01.JPG,AFNE01.JPG,AFNE01.JPG,AFNE01.JPG,AFNE01.JPG,,,,,,,,,,,,,,,,,2,7,27,7,,,,,,,AFNE17.jpg,AFSA18.jpg,AFSA10.jpg,AFNE10.jpg,AFSA18.jpg,FS,4,num_6,32,num_2,0.483488480444,,,2017_Aug_22_1047,60.0136473471,FEMA4ImagesEEG,001,101338,
AFNE01.JPG,AFNE01.JPG,AFNE01.JPG,AFNE01.JPG,AFNE01.JPG,AFNE01.JPG,,,,,,,,,,,,,,,,,2,8,28,5,,,,,,,AFSA07.jpg,AFNE18.jpg,AFNE10.jpg,AFSA14.jpg,AFSA07.jpg,FS,4,num_8,32,num_4,0.416521558654,,,2017_Aug_22_1047,60.0136473471,FEMA4ImagesEEG,001,101338,
AFNE01.JPG,AFNE01.JPG,AFNE01.JPG,AFNE01.JPG,AFNE01.JPG,AFNE01.JPG,,,,,,,,,,,,,,,,,2,9,29,1,,,,,,,AFSA06.jpg,AFNE04.jpg,AFSA17.jpg,AFNE09.jpg,AFNE09.jpg,FN,3,num_4,32,num_8,0.916802686988,,,2017_Aug_22_1047,60.0136473471,FEMA4ImagesEEG,001,101338,
AFNE01.JPG,AFNE01.JPG,AFNE01.JPG,AFNE01.JPG,AFNE01.JPG,AFNE01.JPG,,,,,,,,,,,,,,,,,3,0,30,7,,,,,,,AFSA05.jpg,AFNE11.jpg,AFSA16.jpg,AFNE18.jpg,AFSA05.jpg,FS,4,num_8,16,num_8,0.700143659255,,,2017_Aug_22_1047,60.0136473471,FEMA4ImagesEEG,001,101338,
AFNE01.JPG,AFNE01.JPG,AFNE01.JPG,AFNE01.JPG,AFNE01.JPG,AFNE01.JPG,,,,,,,,,,,,,,,,,3,1,31,9,,,,,,,AFSA02.jpg,AFNE20.jpg,AFNE01.jpg,AFSA01.jpg,AFSA02.jpg,FS,4,num_8,32,num_4,1.01678462932,,,2017_Aug_22_1047,60.0136473471,FEMA4ImagesEEG,001,101338,
AFNE01.JPG,AFNE01.JPG,AFNE01.JPG,AFNE01.JPG,AFNE01.JPG,AFNE01.JPG,,,,,,,,,,,,,,,,,3,2,32,8,,,,,,,AFNE04.jpg,AFSA04.jpg,AFNE08.jpg,AFSA19.jpg,AFNE08.jpg,FN,3,num_2,32,num_6,1.10006822133,,,2017_Aug_22_1047,60.0136473471,FEMA4ImagesEEG,001,101338,
AFNE01.JPG,AFNE01.JPG,AFNE01.JPG,AFNE01.JPG,AFNE01.JPG,AFNE01.JPG,,,,,,,,,,,,,,,,,3,3,33,1,,,,,,,AFNE17.jpg,AFNE10.jpg,AFSA07.jpg,AFSA20.jpg,AFSA07.jpg,FS,4,num_2,32,num_4,1.21676230594,,,2017_Aug_22_1047,60.0136473471,FEMA4ImagesEEG,001,101338,
AFNE01.JPG,AFNE01.JPG,AFNE01.JPG,AFNE01.JPG,AFNE01.JPG,AFNE01.JPG,,,,,,,,,,,,,,,,,3,4,34,3,,,,,,,AFSA19.jpg,AFNE07.jpg,AFNE06.jpg,AFSA11.jpg,AFNE06.jpg,FN,3,num_2,32,num_8,0.850108393934,,,2017_Aug_22_1047,60.0136473471,FEMA4ImagesEEG,001,101338,
AFNE01.JPG,AFNE01.JPG,AFNE01.JPG,AFNE01.JPG,AFNE01.JPG,AFNE01.JPG,,,,,,,,,,,,,,,,,3,5,35,4,,,,,,,AFNE15.jpg,AFSA06.jpg,AFNE12.jpg,AFSA04.jpg,AFNE15.jpg,FN,3,num_8,32,num_6,0.85012988362,,,2017_Aug_22_1047,60.0136473471,FEMA4ImagesEEG,001,101338,
AFNE01.JPG,AFNE01.JPG,AFNE01.JPG,AFNE01.JPG,AFNE01.JPG,AFNE01.JPG,,,,,,,,,,,,,,,,,3,6,36,5,,,,,,,AFSA11.jpg,AFNE19.jpg,AFNE03.jpg,AFSA19.jpg,AFSA11.jpg,FS,4,num_8,16,num_8,1.31673334318,,,2017_Aug_22_1047,60.0136473471,FEMA4ImagesEEG,001,101338,
AFNE01.JPG,AFNE01.JPG,AFNE01.JPG,AFNE01.JPG,AFNE01.JPG,AFNE01.JPG,,,,,,,,,,,,,,,,,3,7,37,2,,,,,,,AFSA13.jpg,AFSA10.jpg,AFNE11.jpg,AFNE07.jpg,AFNE07.jpg,FN,3,num_4,32,num_6,1.11685220932,,,2017_Aug_22_1047,60.0136473471,FEMA4ImagesEEG,001,101338,
AFNE01.JPG,AFNE01.JPG,AFNE01.JPG,AFNE01.JPG,AFNE01.JPG,AFNE01.JPG,,,,,,,,,,,,,,,,,3,8,38,6,,,,,,,AFSA03.jpg,AFNE15.jpg,AFSA08.jpg,AFNE19.jpg,AFSA08.jpg,FS,4,num_2,16,num_2,0.983536430984,,,2017_Aug_22_1047,60.0136473471,FEMA4ImagesEEG,001,101338,
AFNE01.JPG,AFNE01.JPG,AFNE01.JPG,AFNE01.JPG,AFNE01.JPG,AFNE01.JPG,,,,,,,,,,,,,,,,,3,9,39,0,,,,,,,AFNE17.jpg,AFSA01.jpg,AFNE18.jpg,AFSA13.jpg,AFSA13.jpg,FS,4,num_4,32,num_6,0.733473966946,,,2017_Aug_22_1047,60.0136473471,FEMA4ImagesEEG,001,101338,
AFNE01.JPG,AFNE01.JPG,AFNE01.JPG,AFNE01.JPG,AFNE01.JPG,AFNE01.JPG,,,,,,,,,,,,,,,,,4,0,40,4,,,,,,,AFSA02.jpg,AFNE11.jpg,AFSA19.jpg,AFNE04.jpg,AFNE04.jpg,FN,3,num_4,16,num_4,0.633508703089,,,2017_Aug_22_1047,60.0136473471,FEMA4ImagesEEG,001,101338,
AFNE01.JPG,AFNE01.JPG,AFNE01.JPG,AFNE01.JPG,AFNE01.JPG,AFNE01.JPG,,,,,,,,,,,,,,,,,4,1,41,8,,,,,,,AFNE08.jpg,AFNE13.jpg,AFSA14.jpg,AFSA04.jpg,AFSA14.jpg,FS,4,num_2,16,num_2,1.73338544287,,,2017_Aug_22_1047,60.0136473471,FEMA4ImagesEEG,001,101338,
AFNE01.JPG,AFNE01.JPG,AFNE01.JPG,AFNE01.JPG,AFNE01.JPG,AFNE01.JPG,,,,,,,,,,,,,,,,,4,2,42,6,,,,,,,AFNE07.jpg,AFSA15.jpg,AFSA07.jpg,AFNE16.jpg,AFSA07.jpg,FS,4,num_2,16,num_2,1.16675481666,,,2017_Aug_22_1047,60.0136473471,FEMA4ImagesEEG,001,101338,
AFNE01.JPG,AFNE01.JPG,AFNE01.JPG,AFNE01.JPG,AFNE01.JPG,AFNE01.JPG,,,,,,,,,,,,,,,,,4,3,43,7,,,,,,,AFSA19.jpg,AFSA14.jpg,AFNE06.jpg,AFNE08.jpg,AFNE06.jpg,FN,3,num_2,32,num_4,0.633438461111,,,2017_Aug_22_1047,60.0136473471,FEMA4ImagesEEG,001,101338,
AFNE01.JPG,AFNE01.JPG,AFNE01.JPG,AFNE01.JPG,AFNE01.JPG,AFNE01.JPG,,,,,,,,,,,,,,,,,4,4,44,5,,,,,,,AFNE02.jpg,AFNE08.jpg,AFSA06.jpg,AFSA11.jpg,AFNE08.jpg,FN,3,num_6,16,num_6,1.05011461629,,,2017_Aug_22_1047,60.0136473471,FEMA4ImagesEEG,001,101338,
AFNE01.JPG,AFNE01.JPG,AFNE01.JPG,AFNE01.JPG,AFNE01.JPG,AFNE01.JPG,,,,,,,,,,,,,,,,,4,5,45,3,,,,,,,AFNE14.jpg,AFNE08.jpg,AFSA10.jpg,AFSA01.jpg,AFSA10.jpg,FS,4,num_2,32,num_8,0.866807065089,,,2017_Aug_22_1047,60.0136473471,FEMA4ImagesEEG,001,101338,
AFNE01.JPG,AFNE01.JPG,AFNE01.JPG,AFNE01.JPG,AFNE01.JPG,AFNE01.JPG,,,,,,,,,,,,,,,,,4,6,46,9,,,,,,,AFSA04.jpg,AFNE01.jpg,AFSA10.jpg,AFNE09.jpg,AFNE09.jpg,FN,3,num_4,32,num_8,0.750126130879,,,2017_Aug_22_1047,60.0136473471,FEMA4ImagesEEG,001,101338,
AFNE01.JPG,AFNE01.JPG,AFNE01.JPG,AFNE01.JPG,AFNE01.JPG,AFNE01.JPG,,,,,,,,,,,,,,,,,4,7,47,0,,,,,,,AFSA20.jpg,AFNE10.jpg,AFSA15.jpg,AFNE09.jpg,AFNE09.jpg,FN,3,num_4,32,num_6,0.950133636245,,,2017_Aug_22_1047,60.0136473471,FEMA4ImagesEEG,001,101338,
AFNE01.JPG,AFNE01.JPG,AFNE01.JPG,AFNE01.JPG,AFNE01.JPG,AFNE01.JPG,,,,,,,,,,,,,,,,,4,8,48,1,,,,,,,AFSA09.jpg,AFNE17.jpg,AFSA04.jpg,AFNE15.jpg,AFNE15.jpg,FN,3,num_4,32,num_2,1.65002198669,,,2017_Aug_22_1047,60.0136473471,FEMA4ImagesEEG,001,101338,
AFNE01.JPG,AFNE01.JPG,AFNE01.JPG,AFNE01.JPG,AFNE01.JPG,AFNE01.JPG,,,,,,,,,,,,,,,,,4,9,49,2,,,,,,,AFSA18.jpg,AFNE01.jpg,AFNE02.jpg,AFSA16.jpg,AFSA18.jpg,FS,4,num_8,32,num_2,0.983485112665,,,2017_Aug_22_1047,60.0136473471,FEMA4ImagesEEG,001,101338,
AFNE01.JPG,AFNE01.JPG,AFNE01.JPG,AFNE01.JPG,AFNE01.JPG,AFNE01.JPG,,,,,,,,,,,,,,,,,5,0,50,3,,,,,,,AFSA19.jpg,AFNE15.jpg,AFNE05.jpg,AFSA03.jpg,AFNE05.jpg,FN,3,num_2,32,num_4,1.53311108216,,,2017_Aug_22_1047,60.0136473471,FEMA4ImagesEEG,001,101338,
AFNE01.JPG,AFNE01.JPG,AFNE01.JPG,AFNE01.JPG,AFNE01.JPG,AFNE01.JPG,,,,,,,,,,,,,,,,,5,1,51,8,,,,,,,AFNE09.jpg,AFNE05.jpg,AFSA17.jpg,AFSA11.jpg,AFSA11.jpg,FS,4,num_4,16,num_4,1.21676615474,,,2017_Aug_22_1047,60.0136473471,FEMA4ImagesEEG,001,101338,
AFNE01.JPG,AFNE01.JPG,AFNE01.JPG,AFNE01.JPG,AFNE01.JPG,AFNE01.JPG,,,,,,,,,,,,,,,,,5,2,52,5,,,,,,,AFNE15.jpg,AFSA12.jpg,AFNE11.jpg,AFSA09.jpg,AFNE15.jpg,FN,3,num_8,32,num_6,1.00011963595,,,2017_Aug_22_1047,60.0136473471,FEMA4ImagesEEG,001,101338,
AFNE01.JPG,AFNE01.JPG,AFNE01.JPG,AFNE01.JPG,AFNE01.JPG,AFNE01.JPG,,,,,,,,,,,,,,,,,5,3,53,4,,,,,,,AFNE16.jpg,AFNE04.jpg,AFSA16.jpg,AFSA15.jpg,AFSA16.jpg,FS,4,num_2,16,num_2,1.08373968385,,,2017_Aug_22_1047,60.0136473471,FEMA4ImagesEEG,001,101338,
AFNE01.JPG,AFNE01.JPG,AFNE01.JPG,AFNE01.JPG,AFNE01.JPG,AFNE01.JPG,,,,,,,,,,,,,,,,,5,4,54,7,,,,,,,AFNE01.jpg,AFNE13.jpg,AFSA09.jpg,AFSA20.jpg,AFSA20.jpg,FS,4,num_4,32,num_8,0.816753710038,,,2017_Aug_22_1047,60.0136473471,FEMA4ImagesEEG,001,101338,
AFNE01.JPG,AFNE01.JPG,AFNE01.JPG,AFNE01.JPG,AFNE01.JPG,AFNE01.JPG,,,,,,,,,,,,,,,,,5,5,55,9,,,,,,,AFSA15.jpg,AFSA01.jpg,AFNE16.jpg,AFNE01.jpg,AFNE01.jpg,FN,3,num_4,32,num_2,0.483497140463,,,2017_Aug_22_1047,60.0136473471,FEMA4ImagesEEG,001,101338,
AFNE01.JPG,AFNE01.JPG,AFNE01.JPG,AFNE01.JPG,AFNE01.JPG,AFNE01.JPG,,,,,,,,,,,,,,,,,5,6,56,6,,,,,,,AFSA06.jpg,AFSA03.jpg,AFNE13.jpg,AFNE03.jpg,AFSA06.jpg,FS,4,num_8,16,num_8,0.866760237142,,,2017_Aug_22_1047,60.0136473471,FEMA4ImagesEEG,001,101338,
AFNE01.JPG,AFNE01.JPG,AFNE01.JPG,AFNE01.JPG,AFNE01.JPG,AFNE01.JPG,,,,,,,,,,,,,,,,,5,7,57,2,,,,,,,AFNE02.jpg,AFSA11.jpg,AFNE11.jpg,AFSA18.jpg,AFSA11.jpg,FS,4,num_6,32,num_4,1.08349207276,,,2017_Aug_22_1047,60.0136473471,FEMA4ImagesEEG,001,101338,
AFNE01.JPG,AFNE01.JPG,AFNE01.JPG,AFNE01.JPG,AFNE01.JPG,AFNE01.JPG,,,,,,,,,,,,,,,,,5,8,58,1,,,,,,,AFSA12.jpg,AFNE17.jpg,AFSA08.jpg,AFNE03.jpg,AFNE17.jpg,FN,3,num_6,16,num_6,1.03351280862,,,2017_Aug_22_1047,60.0136473471,FEMA4ImagesEEG,001,101338,
AFNE01.JPG,AFNE01.JPG,AFNE01.JPG,AFNE01.JPG,AFNE01.JPG,AFNE01.JPG,,,,,,,,,,,,,,,,,5,9,59,0,,,,,,,AFNE10.jpg,AFSA17.jpg,AFSA09.jpg,AFNE15.jpg,AFNE10.jpg,FN,3,num_8,16,num_8,0.900038585067,,,2017_Aug_22_1047,60.0136473471,FEMA4ImagesEEG,001,101338,
,,,,,,,,,,,,,,,,,,,,,,,,,,,,,,,,,,,,,,,,,,,space,9.59909686109,2017_Aug_22_1047,60.0136473471,FEMA4ImagesEEG,001,101338,
AFNE01.JPG,AFNE01.JPG,AFNE01.JPG,AFNE01.JPG,AFNE01.JPG,AFNE01.JPG,,,,,,,,,,,,,,,,,,,,,0,0,0,6,,,AMNE02.jpg,AMNE14.jpg,AMSA01.jpg,AMSA16.jpg,AMNE02.jpg,MN,1,num_8,32,num_6,0.850163561292,,,2017_Aug_22_1047,60.0136473471,FEMA4ImagesEEG,001,101338,
AFNE01.JPG,AFNE01.JPG,AFNE01.JPG,AFNE01.JPG,AFNE01.JPG,AFNE01.JPG,,,,,,,,,,,,,,,,,,,,,0,1,1,7,,,AMSA04.jpg,AMNE10.jpg,AMNE20.jpg,AMSA05.jpg,AMSA04.jpg,MS,2,num_8,16,num_8,0.783503908082,,,2017_Aug_22_1047,60.0136473471,FEMA4ImagesEEG,001,101338,
AFNE01.JPG,AFNE01.JPG,AFNE01.JPG,AFNE01.JPG,AFNE01.JPG,AFNE01.JPG,,,,,,,,,,,,,,,,,,,,,0,2,2,4,,,AMSA14.jpg,AMSA01.jpg,AMNE02.jpg,AMNE16.jpg,AMNE16.jpg,MN,1,num_4,32,num_2,1.36676296347,,,2017_Aug_22_1047,60.0136473471,FEMA4ImagesEEG,001,101338,
AFNE01.JPG,AFNE01.JPG,AFNE01.JPG,AFNE01.JPG,AFNE01.JPG,AFNE01.JPG,,,,,,,,,,,,,,,,,,,,,0,3,3,8,,,AMNE06.jpg,AMSA18.jpg,AMNE14.jpg,AMSA08.jpg,AMSA18.jpg,MS,2,num_6,32,num_4,1.11661101296,,,2017_Aug_22_1047,60.0136473471,FEMA4ImagesEEG,001,101338,
AFNE01.JPG,AFNE01.JPG,AFNE01.JPG,AFNE01.JPG,AFNE01.JPG,AFNE01.JPG,,,,,,,,,,,,,,,,,,,,,0,4,4,0,,,AMSA20.jpg,AMNE13.jpg,AMSA02.jpg,AMNE14.jpg,AMSA02.jpg,MS,2,num_2,16,num_2,1.5000947786,,,2017_Aug_22_1047,60.0136473471,FEMA4ImagesEEG,001,101338,
AFNE01.JPG,AFNE01.JPG,AFNE01.JPG,AFNE01.JPG,AFNE01.JPG,AFNE01.JPG,,,,,,,,,,,,,,,,,,,,,0,5,5,5,,,AMSA12.jpg,AMNE10.jpg,AMNE06.jpg,AMSA20.jpg,AMSA20.jpg,MS,2,num_4,32,num_6,0.683493740624,,,2017_Aug_22_1047,60.0136473471,FEMA4ImagesEEG,001,101338,
AFNE01.JPG,AFNE01.JPG,AFNE01.JPG,AFNE01.JPG,AFNE01.JPG,AFNE01.JPG,,,,,,,,,,,,,,,,,,,,,0,6,6,9,,,AMSA09.jpg,AMNE14.jpg,AMSA18.jpg,AMNE20.jpg,AMNE20.jpg,MN,1,num_4,32,num_8,1.75007737847,,,2017_Aug_22_1047,60.0136473471,FEMA4ImagesEEG,001,101338,
AFNE01.JPG,AFNE01.JPG,AFNE01.JPG,AFNE01.JPG,AFNE01.JPG,AFNE01.JPG,,,,,,,,,,,,,,,,,,,,,0,7,7,3,,,AMSA06.jpg,AMSA07.jpg,AMNE07.jpg,AMNE11.jpg,AMSA07.jpg,MS,2,num_6,16,num_6,0.516745659523,,,2017_Aug_22_1047,60.0136473471,FEMA4ImagesEEG,001,101338,
AFNE01.JPG,AFNE01.JPG,AFNE01.JPG,AFNE01.JPG,AFNE01.JPG,AFNE01.JPG,,,,,,,,,,,,,,,,,,,,,0,8,8,1,,,AMSA20.jpg,AMNE15.jpg,AMNE08.jpg,AMSA18.jpg,AMSA18.jpg,MS,2,num_4,32,num_2,1.13342515042,,,2017_Aug_22_1047,60.0136473471,FEMA4ImagesEEG,001,101338,
AFNE01.JPG,AFNE01.JPG,AFNE01.JPG,AFNE01.JPG,AFNE01.JPG,AFNE01.JPG,,,,,,,,,,,,,,,,,,,,,0,9,9,2,,,AMNE13.jpg,AMNE04.jpg,AMSA19.jpg,AMSA06.jpg,AMSA19.jpg,MS,2,num_2,16,num_2,1.10012884112,,,2017_Aug_22_1047,60.0136473471,FEMA4ImagesEEG,001,101338,
AFNE01.JPG,AFNE01.JPG,AFNE01.JPG,AFNE01.JPG,AFNE01.JPG,AFNE01.JPG,,,,,,,,,,,,,,,,,,,,,1,0,10,0,,,AMNE15.jpg,AMSA12.jpg,AMNE05.jpg,AMSA18.jpg,AMSA12.jpg,MS,2,num_6,32,num_2,1.08345454629,,,2017_Aug_22_1047,60.0136473471,FEMA4ImagesEEG,001,101338,
AFNE01.JPG,AFNE01.JPG,AFNE01.JPG,AFNE01.JPG,AFNE01.JPG,AFNE01.JPG,,,,,,,,,,,,,,,,,,,,,1,1,11,8,,,AMSA03.jpg,AMNE01.jpg,AMSA10.jpg,AMNE04.jpg,AMNE04.jpg,MN,1,num_4,16,num_4,1.23339875345,,,2017_Aug_22_1047,60.0136473471,FEMA4ImagesEEG,001,101338,
AFNE01.JPG,AFNE01.JPG,AFNE01.JPG,AFNE01.JPG,AFNE01.JPG,AFNE01.JPG,,,,,,,,,,,,,,,,,,,,,1,2,12,1,,,AMSA01.jpg,AMNE07.jpg,AMNE14.jpg,AMSA02.jpg,AMSA01.jpg,MS,2,num_8,16,num_8,0.916789857438,,,2017_Aug_22_1047,60.0136473471,FEMA4ImagesEEG,001,101338,
AFNE01.JPG,AFNE01.JPG,AFNE01.JPG,AFNE01.JPG,AFNE01.JPG,AFNE01.JPG,,,,,,,,,,,,,,,,,,,,,1,3,13,9,,,AMNE12.jpg,AMNE05.jpg,AMSA08.jpg,AMSA14.jpg,AMSA08.jpg,MS,2,num_2,32,num_8,1.08373038238,,,2017_Aug_22_1047,60.0136473471,FEMA4ImagesEEG,001,101338,
AFNE01.JPG,AFNE01.JPG,AFNE01.JPG,AFNE01.JPG,AFNE01.JPG,AFNE01.JPG,,,,,,,,,,,,,,,,,,,,,1,4,14,7,,,AMNE03.jpg,AMSA08.jpg,AMSA05.jpg,AMNE10.jpg,AMNE10.jpg,MN,1,num_4,32,num_6,1.16674551519,,,2017_Aug_22_1047,60.0136473471,FEMA4ImagesEEG,001,101338,
AFNE01.JPG,AFNE01.JPG,AFNE01.JPG,AFNE01.JPG,AFNE01.JPG,AFNE01.JPG,,,,,,,,,,,,,,,,,,,,,1,5,15,5,,,AMSA18.jpg,AMNE17.jpg,AMNE12.jpg,AMSA01.jpg,AMNE12.jpg,MN,1,num_2,16,num_2,0.91674880276,,,2017_Aug_22_1047,60.0136473471,FEMA4ImagesEEG,001,101338,
AFNE01.JPG,AFNE01.JPG,AFNE01.JPG,AFNE01.JPG,AFNE01.JPG,AFNE01.JPG,,,,,,,,,,,,,,,,,,,,,1,6,16,3,,,AMSA20.jpg,AMNE11.jpg,AMNE12.jpg,AMSA15.jpg,AMSA15.jpg,MS,2,num_4,16,num_4,0.916770933778,,,2017_Aug_22_1047,60.0136473471,FEMA4ImagesEEG,001,101338,
AFNE01.JPG,AFNE01.JPG,AFNE01.JPG,AFNE01.JPG,AFNE01.JPG,AFNE01.JPG,,,,,,,,,,,,,,,,,,,,,1,7,17,6,,,AMSA18.jpg,AMSA07.jpg,AMNE17.jpg,AMNE19.jpg,AMNE19.jpg,MN,1,num_4,16,num_4,0.616821899312,,,2017_Aug_22_1047,60.0136473471,FEMA4ImagesEEG,001,101338,
AFNE01.JPG,AFNE01.JPG,AFNE01.JPG,AFNE01.JPG,AFNE01.JPG,AFNE01.JPG,,,,,,,,,,,,,,,,,,,,,1,8,18,4,,,AMNE18.jpg,AMSA01.jpg,AMSA05.jpg,AMNE17.jpg,AMSA05.jpg,MS,2,num_2,16,num_2,0.933480510139,,,2017_Aug_22_1047,60.0136473471,FEMA4ImagesEEG,001,101338,
AFNE01.JPG,AFNE01.JPG,AFNE01.JPG,AFNE01.JPG,AFNE01.JPG,AFNE01.JPG,,,,,,,,,,,,,,,,,,,,,1,9,19,2,,,AMNE09.jpg,AMNE06.jpg,AMSA05.jpg,AMSA15.jpg,AMNE09.jpg,MN,1,num_8,16,num_8,1.56668739708,,,2017_Aug_22_1047,60.0136473471,FEMA4ImagesEEG,001,101338,
AFNE01.JPG,AFNE01.JPG,AFNE01.JPG,AFNE01.JPG,AFNE01.JPG,AFNE01.JPG,,,,,,,,,,,,,,,,,,,,,2,0,20,8,,,AMSA15.jpg,AMNE12.jpg,AMNE09.jpg,AMSA16.jpg,AMSA16.jpg,MS,2,num_4,16,num_4,0.783426289097,,,2017_Aug_22_1047,60.0136473471,FEMA4ImagesEEG,001,101338,
AFNE01.JPG,AFNE01.JPG,AFNE01.JPG,AFNE01.JPG,AFNE01.JPG,AFNE01.JPG,,,,,,,,,,,,,,,,,,,,,2,1,21,6,,,AMNE18.jpg,AMNE03.jpg,AMSA01.jpg,AMSA11.jpg,AMNE03.jpg,MN,1,num_6,32,num_2,0.816799575812,,,2017_Aug_22_1047,60.0136473471,FEMA4ImagesEEG,001,101338,
AFNE01.JPG,AFNE01.JPG,AFNE01.JPG,AFNE01.JPG,AFNE01.JPG,AFNE01.JPG,,,,,,,,,,,,,,,,,,,,,2,2,22,4,,,AMSA19.jpg,AMNE03.jpg,AMNE04.jpg,AMSA20.jpg,AMSA20.jpg,MS,2,num_4,32,num_2,1.03341466223,,,2017_Aug_22_1047,60.0136473471,FEMA4ImagesEEG,001,101338,
AFNE01.JPG,AFNE01.JPG,AFNE01.JPG,AFNE01.JPG,AFNE01.JPG,AFNE01.JPG,,,,,,,,,,,,,,,,,,,,,2,3,23,7,,,AMNE06.jpg,AMSA07.jpg,AMSA05.jpg,AMNE11.jpg,AMNE06.jpg,MN,1,num_8,32,num_2,0.966802799376,,,2017_Aug_22_1047,60.0136473471,FEMA4ImagesEEG,001,101338,
AFNE01.JPG,AFNE01.JPG,AFNE01.JPG,AFNE01.JPG,AFNE01.JPG,AFNE01.JPG,,,,,,,,,,,,,,,,,,,,,2,4,24,5,,,AMSA02.jpg,AMSA19.jpg,AMNE04.jpg,AMNE07.jpg,AMNE07.jpg,MN,1,num_4,16,num_4,0.616784372833,,,2017_Aug_22_1047,60.0136473471,FEMA4ImagesEEG,001,101338,
AFNE01.JPG,AFNE01.JPG,AFNE01.JPG,AFNE01.JPG,AFNE01.JPG,AFNE01.JPG,,,,,,,,,,,,,,,,,,,,,2,5,25,0,,,AMNE07.jpg,AMSA09.jpg,AMNE03.jpg,AMSA04.jpg,AMNE07.jpg,MN,1,num_8,32,num_6,1.01677885605,,,2017_Aug_22_1047,60.0136473471,FEMA4ImagesEEG,001,101338,
AFNE01.JPG,AFNE01.JPG,AFNE01.JPG,AFNE01.JPG,AFNE01.JPG,AFNE01.JPG,,,,,,,,,,,,,,,,,,,,,2,6,26,9,,,AMSA18.jpg,AMNE14.jpg,AMNE10.jpg,AMSA05.jpg,AMNE14.jpg,MN,1,num_6,16,num_6,1.78341506317,,,2017_Aug_22_1047,60.0136473471,FEMA4ImagesEEG,001,101338,
AFNE01.JPG,AFNE01.JPG,AFNE01.JPG,AFNE01.JPG,AFNE01.JPG,AFNE01.JPG,,,,,,,,,,,,,,,,,,,,,2,7,27,2,,,AMSA09.jpg,AMSA01.jpg,AMNE17.jpg,AMNE16.jpg,AMNE17.jpg,MN,1,num_2,16,num_2,1.20008480363,,,2017_Aug_22_1047,60.0136473471,FEMA4ImagesEEG,001,101338,
AFNE01.JPG,AFNE01.JPG,AFNE01.JPG,AFNE01.JPG,AFNE01.JPG,AFNE01.JPG,,,,,,,,,,,,,,,,,,,,,2,8,28,1,,,AMSA07.jpg,AMNE10.jpg,AMNE19.jpg,AMSA14.jpg,AMSA07.jpg,MS,2,num_8,16,num_8,0.850096526672,,,2017_Aug_22_1047,60.0136473471,FEMA4ImagesEEG,001,101338,
AFNE01.JPG,AFNE01.JPG,AFNE01.JPG,AFNE01.JPG,AFNE01.JPG,AFNE01.JPG,,,,,,,,,,,,,,,,,,,,,2,9,29,3,,,AMNE05.jpg,AMNE12.jpg,AMSA02.jpg,AMSA07.jpg,AMSA02.jpg,MS,2,num_2,16,num_2,1.1334443948,,,2017_Aug_22_1047,60.0136473471,FEMA4ImagesEEG,001,101338,
AFNE01.JPG,AFNE01.JPG,AFNE01.JPG,AFNE01.JPG,AFNE01.JPG,AFNE01.JPG,,,,,,,,,,,,,,,,,,,,,3,0,30,1,,,AMNE14.jpg,AMNE17.jpg,AMSA01.jpg,AMSA19.jpg,AMNE14.jpg,MN,1,num_8,32,num_2,1.50010375935,,,2017_Aug_22_1047,60.0136473471,FEMA4ImagesEEG,001,101338,
AFNE01.JPG,AFNE01.JPG,AFNE01.JPG,AFNE01.JPG,AFNE01.JPG,AFNE01.JPG,,,,,,,,,,,,,,,,,,,,,3,1,31,0,,,AMNE03.jpg,AMSA08.jpg,AMSA02.jpg,AMNE11.jpg,AMNE11.jpg,MN,1,num_4,32,num_6,0.833482530783,,,2017_Aug_22_1047,60.0136473471,FEMA4ImagesEEG,001,101338,
AFNE01.JPG,AFNE01.JPG,AFNE01.JPG,AFNE01.JPG,AFNE01.JPG,AFNE01.JPG,,,,,,,,,,,,,,,,,,,,,3,2,32,8,,,AMSA03.jpg,AMNE05.jpg,AMNE14.jpg,AMSA05.jpg,AMSA03.jpg,MS,2,num_8,32,num_2,1.36670939985,,,2017_Aug_22_1047,60.0136473471,FEMA4ImagesEEG,001,101338,
AFNE01.JPG,AFNE01.JPG,AFNE01.JPG,AFNE01.JPG,AFNE01.JPG,AFNE01.JPG,,,,,,,,,,,,,,,,,,,,,3,3,33,2,,,AMNE06.jpg,AMSA07.jpg,AMNE01.jpg,AMSA08.jpg,AMNE01.jpg,MN,1,num_2,16,num_2,1.76667918626,,,2017_Aug_22_1047,60.0136473471,FEMA4ImagesEEG,001,101338,
AFNE01.JPG,AFNE01.JPG,AFNE01.JPG,AFNE01.JPG,AFNE01.JPG,AFNE01.JPG,,,,,,,,,,,,,,,,,,,,,3,4,34,6,,,AMNE05.jpg,AMNE04.jpg,AMSA04.jpg,AMSA03.jpg,AMSA03.jpg,MS,2,num_4,16,num_4,0.949995718198,,,2017_Aug_22_1047,60.0136473471,FEMA4ImagesEEG,001,101338,
AFNE01.JPG,AFNE01.JPG,AFNE01.JPG,AFNE01.JPG,AFNE01.JPG,AFNE01.JPG,,,,,,,,,,,,,,,,,,,,,3,5,35,3,,,AMSA14.jpg,AMNE17.jpg,AMNE04.jpg,AMSA04.jpg,AMNE04.jpg,MN,1,num_2,16,num_2,1.56669766083,,,2017_Aug_22_1047,60.0136473471,FEMA4ImagesEEG,001,101338,
AFNE01.JPG,AFNE01.JPG,AFNE01.JPG,AFNE01.JPG,AFNE01.JPG,AFNE01.JPG,,,,,,,,,,,,,,,,,,,,,3,6,36,7,,,AMSA13.jpg,AMNE17.jpg,AMNE18.jpg,AMSA01.jpg,AMNE17.jpg,MN,1,num_6,32,num_8,0.90012710914,,,2017_Aug_22_1047,60.0136473471,FEMA4ImagesEEG,001,101338,
AFNE01.JPG,AFNE01.JPG,AFNE01.JPG,AFNE01.JPG,AFNE01.JPG,AFNE01.JPG,,,,,,,,,,,,,,,,,,,,,3,7,37,9,,,AMNE20.jpg,AMNE01.jpg,AMSA11.jpg,AMSA07.jpg,AMSA07.jpg,MS,2,num_4,32,num_2,0.933480510139,,,2017_Aug_22_1047,60.0136473471,FEMA4ImagesEEG,001,101338,
AFNE01.JPG,AFNE01.JPG,AFNE01.JPG,AFNE01.JPG,AFNE01.JPG,AFNE01.JPG,,,,,,,,,,,,,,,,,,,,,3,8,38,5,,,AMSA05.jpg,AMNE08.jpg,AMSA06.jpg,AMNE18.jpg,AMSA06.jpg,MS,2,num_2,32,num_8,0.433493499993,,,2017_Aug_22_1047,60.0136473471,FEMA4ImagesEEG,001,101338,
