IPosition2,IPosition3,IPosition1,IPosition6,IPosition4,IPosition5,TrialsF1.thisRepN,TrialsF1.thisTrialN,TrialsF1.thisN,TrialsF1.thisIndex,TrialsM1.thisRepN,TrialsM1.thisTrialN,TrialsM1.thisN,TrialsM1.thisIndex,TrialsF2.thisRepN,TrialsF2.thisTrialN,TrialsF2.thisN,TrialsF2.thisIndex,TrialsM2.thisRepN,TrialsM2.thisTrialN,TrialsM2.thisN,TrialsM2.thisIndex,TrialsF3.thisRepN,TrialsF3.thisTrialN,TrialsF3.thisN,TrialsF3.thisIndex,TrialsM3.thisRepN,TrialsM3.thisTrialN,TrialsM3.thisN,TrialsM3.thisIndex,InstrKey_resp.keys,InstrKey_resp.rt,Image0 _Position,Image1 _Position,Image2 _Position,Image3 _Position,Center_image,condition,code,correct_answer,accuracy,Key_Resp.keys,Key_Resp.rt,BreakKey_resp.keys,BreakKey_resp.rt,date,frameRate,expName,session,participant,
,,,,,,,,,,,,,,,,,,,,,,,,,,,,,,space,19.0656685673,,,,,,,,,,,,,,2017_Sep_13_1635,60.0134163634,FEMA4ImagesEEG,001,101446,
AFNE23.JPG,AFNE24.JPG,AFNE22.JPG,AFSA24.JPG,AFSA22.JPG,AFSA23.JPG,0,0,0,8,,,,,,,,,,,,,,,,,,,,,,,AFNE06.jpg,AFSA13.jpg,AFNE19.jpg,AFSA20.jpg,AFNE19.jpg,FN,3,num_2,32,num_8,2.13336677593,,,2017_Sep_13_1635,60.0134163634,FEMA4ImagesEEG,001,101446,
AFNE22.JPG,AFSA24.JPG,AFSA22.JPG,AFNE25.JPG,AFNE24.JPG,AFSA25.JPG,0,1,1,6,,,,,,,,,,,,,,,,,,,,,,,AFSA06.jpg,AFSA01.jpg,AFNE19.jpg,AFNE10.jpg,AFSA06.jpg,FS,4,num_8,32,num_6,1.35015121289,,,2017_Sep_13_1635,60.0134163634,FEMA4ImagesEEG,001,101446,
AMNE22.JPG,AMSA24.JPG,AMSA22.JPG,AMNE25.JPG,AMNE24.JPG,AMSA25.JPG,0,2,2,7,,,,,,,,,,,,,,,,,,,,,,,AFSA16.jpg,AFSA20.jpg,AFNE15.jpg,AFNE08.jpg,AFNE15.jpg,FN,3,num_2,32,num_8,1.50009926897,,,2017_Sep_13_1635,60.0134163634,FEMA4ImagesEEG,001,101446,
AMSA21.JPG,AMNE22.JPG,AMNE21.JPG,AMSA23.JPG,AMSA22.JPG,AMNE23.JPG,0,3,3,1,,,,,,,,,,,,,,,,,,,,,,,AFNE13.jpg,AFSA17.jpg,AFSA15.jpg,AFNE08.jpg,AFSA15.jpg,FS,4,num_2,16,num_2,1.00007377006,,,2017_Sep_13_1635,60.0134163634,FEMA4ImagesEEG,001,101446,
AFSA21.JPG,AFNE23.JPG,AFNE21.JPG,AFSA25.JPG,AFNE25.JPG,AFSA23.JPG,0,4,4,4,,,,,,,,,,,,,,,,,,,,,,,AFSA19.jpg,AFNE12.jpg,AFSA08.jpg,AFNE09.jpg,AFSA19.jpg,FS,4,num_8,16,num_8,0.816778086359,,,2017_Sep_13_1635,60.0134163634,FEMA4ImagesEEG,001,101446,
AMNE23.JPG,AMNE24.JPG,AMNE22.JPG,AMSA24.JPG,AMSA22.JPG,AMSA23.JPG,0,5,5,9,,,,,,,,,,,,,,,,,,,,,,,AFNE10.jpg,AFSA06.jpg,AFSA14.jpg,AFNE09.jpg,AFNE10.jpg,FN,3,num_8,32,num_4,1.16686258512,,,2017_Sep_13_1635,60.0134163634,FEMA4ImagesEEG,001,101446,
AMSA21.JPG,AMNE23.JPG,AMNE21.JPG,AMSA25.JPG,AMNE25.JPG,AMSA23.JPG,0,6,6,5,,,,,,,,,,,,,,,,,,,,,,,AFSA05.jpg,AFNE14.jpg,AFSA19.jpg,AFNE10.jpg,AFNE10.jpg,FN,3,num_4,32,num_8,1.30016104318,,,2017_Sep_13_1635,60.0134163634,FEMA4ImagesEEG,001,101446,
AFSA25.JPG,AFNE24.JPG,AFSA24.JPG,AFNE21.JPG,AFSA21.JPG,AFNE25.JPG,0,7,7,2,,,,,,,,,,,,,,,,,,,,,,,AFNE12.jpg,AFNE07.jpg,AFSA04.jpg,AFSA16.jpg,AFSA16.jpg,FS,4,num_4,16,num_4,1.03344352893,,,2017_Sep_13_1635,60.0134163634,FEMA4ImagesEEG,001,101446,
AFSA21.JPG,AFNE22.JPG,AFNE21.JPG,AFSA23.JPG,AFSA22.JPG,AFNE23.JPG,0,8,8,0,,,,,,,,,,,,,,,,,,,,,,,AFSA08.jpg,AFNE11.jpg,AFSA02.jpg,AFNE15.jpg,AFSA02.jpg,FS,4,num_2,32,num_6,0.866749652661,,,2017_Sep_13_1635,60.0134163634,FEMA4ImagesEEG,001,101446,
AMSA25.JPG,AMNE24.JPG,AMSA24.JPG,AMNE26.JPG,AMSA21.JPG,AMNE25.JPG,0,9,9,3,,,,,,,,,,,,,,,,,,,,,,,AFSA13.jpg,AFNE03.jpg,AFSA03.jpg,AFNE08.jpg,AFSA13.jpg,FS,4,num_8,16,num_8,1.36667892965,,,2017_Sep_13_1635,60.0134163634,FEMA4ImagesEEG,001,101446,
AMSA21.JPG,AMNE23.JPG,AMNE21.JPG,AMSA25.JPG,AMNE25.JPG,AMSA23.JPG,,,,,0,0,0,5,,,,,,,,,,,,,,,,,,,AMSA18.jpg,AMNE13.jpg,AMSA14.jpg,AMNE16.jpg,AMNE13.jpg,MN,1,num_6,32,num_4,1.0501380302,,,2017_Sep_13_1635,60.0134163634,FEMA4ImagesEEG,001,101446,
AMSA21.JPG,AMNE22.JPG,AMNE21.JPG,AMSA23.JPG,AMSA22.JPG,AMNE23.JPG,,,,,0,1,1,1,,,,,,,,,,,,,,,,,,,AMSA20.jpg,AMSA03.jpg,AMNE13.jpg,AMNE18.jpg,AMSA03.jpg,MS,2,num_6,16,num_6,0.750125810038,,,2017_Sep_13_1635,60.0134163634,FEMA4ImagesEEG,001,101446,
AMNE22.JPG,AMSA24.JPG,AMSA22.JPG,AMNE25.JPG,AMNE24.JPG,AMSA25.JPG,,,,,0,2,2,7,,,,,,,,,,,,,,,,,,,AMNE10.jpg,AMSA01.jpg,AMNE02.jpg,AMSA17.jpg,AMNE10.jpg,MN,1,num_8,32,num_4,0.650178187061,,,2017_Sep_13_1635,60.0134163634,FEMA4ImagesEEG,001,101446,
AFNE23.JPG,AFNE24.JPG,AFNE22.JPG,AFSA24.JPG,AFSA22.JPG,AFSA23.JPG,,,,,0,3,3,8,,,,,,,,,,,,,,,,,,,AMNE14.jpg,AMSA06.jpg,AMNE13.jpg,AMSA14.jpg,AMSA06.jpg,MS,2,num_6,16,num_6,1.01674132957,,,2017_Sep_13_1635,60.0134163634,FEMA4ImagesEEG,001,101446,
AMNE23.JPG,AMNE24.JPG,AMNE22.JPG,AMSA24.JPG,AMSA22.JPG,AMSA23.JPG,,,,,0,4,4,9,,,,,,,,,,,,,,,,,,,AMSA19.jpg,AMSA18.jpg,AMNE19.jpg,AMNE20.jpg,AMNE20.jpg,MN,1,num_4,32,num_8,0.966780668357,,,2017_Sep_13_1635,60.0134163634,FEMA4ImagesEEG,001,101446,
AFSA21.JPG,AFNE23.JPG,AFNE21.JPG,AFSA25.JPG,AFNE25.JPG,AFSA23.JPG,,,,,0,5,5,4,,,,,,,,,,,,,,,,,,,AMNE10.jpg,AMNE02.jpg,AMSA11.jpg,AMSA12.jpg,AMSA11.jpg,MS,2,num_2,32,num_4,1.15009078523,,,2017_Sep_13_1635,60.0134163634,FEMA4ImagesEEG,001,101446,
AFNE22.JPG,AFSA24.JPG,AFSA22.JPG,AFNE25.JPG,AFNE24.JPG,AFSA25.JPG,,,,,0,6,6,6,,,,,,,,,,,,,,,,,,,AMNE12.jpg,AMSA19.jpg,AMSA16.jpg,AMNE16.jpg,AMSA16.jpg,MS,2,num_2,16,num_2,0.633597868728,,,2017_Sep_13_1635,60.0134163634,FEMA4ImagesEEG,001,101446,
AFSA21.JPG,AFNE22.JPG,AFNE21.JPG,AFSA23.JPG,AFSA22.JPG,AFNE23.JPG,,,,,0,7,7,0,,,,,,,,,,,,,,,,,,,AMNE18.jpg,AMNE04.jpg,AMSA17.jpg,AMSA02.jpg,AMSA17.jpg,MS,2,num_2,32,num_4,1.03342171852,,,2017_Sep_13_1635,60.0134163634,FEMA4ImagesEEG,001,101446,
AMSA25.JPG,AMNE24.JPG,AMSA24.JPG,AMNE26.JPG,AMSA21.JPG,AMNE25.JPG,,,,,0,8,8,3,,,,,,,,,,,,,,,,,,,AMNE08.jpg,AMNE03.jpg,AMSA09.jpg,AMSA13.jpg,AMNE03.jpg,MN,1,num_6,16,num_6,0.750105924439,,,2017_Sep_13_1635,60.0134163634,FEMA4ImagesEEG,001,101446,
AFSA25.JPG,AFNE24.JPG,AFSA24.JPG,AFNE21.JPG,AFSA21.JPG,AFNE25.JPG,,,,,0,9,9,2,,,,,,,,,,,,,,,,,,,AMNE18.jpg,AMSA05.jpg,AMSA20.jpg,AMNE05.jpg,AMNE18.jpg,MN,1,num_8,32,num_6,1.28345852345,,,2017_Sep_13_1635,60.0134163634,FEMA4ImagesEEG,001,101446,
AMSA21.JPG,AMNE23.JPG,AMNE21.JPG,AMSA25.JPG,AMNE25.JPG,AMSA23.JPG,,,,,,,,,0,0,0,5,,,,,,,,,,,,,,,AFSA06.jpg,AFSA09.jpg,AFNE07.jpg,AFNE04.jpg,AFSA09.jpg,FS,4,num_6,16,num_6,0.783428855008,,,2017_Sep_13_1635,60.0134163634,FEMA4ImagesEEG,001,101446,
AFSA21.JPG,AFNE22.JPG,AFNE21.JPG,AFSA23.JPG,AFSA22.JPG,AFNE23.JPG,,,,,,,,,0,1,1,0,,,,,,,,,,,,,,,AFNE17.jpg,AFNE13.jpg,AFSA07.jpg,AFSA12.jpg,AFNE17.jpg,FN,3,num_8,32,num_4,0.766801708611,,,2017_Sep_13_1635,60.0134163634,FEMA4ImagesEEG,001,101446,
AMNE23.JPG,AMNE24.JPG,AMNE22.JPG,AMSA24.JPG,AMSA22.JPG,AMSA23.JPG,,,,,,,,,0,2,2,9,,,,,,,,,,,,,,,AFSA13.jpg,AFSA05.jpg,AFNE16.jpg,AFNE08.jpg,AFSA05.jpg,FS,4,num_6,16,num_6,0.766805878375,,,2017_Sep_13_1635,60.0134163634,FEMA4ImagesEEG,001,101446,
AMSA21.JPG,AMNE22.JPG,AMNE21.JPG,AMSA23.JPG,AMSA22.JPG,AMNE23.JPG,,,,,,,,,0,3,3,1,,,,,,,,,,,,,,,AFSA15.jpg,AFNE04.jpg,AFNE03.jpg,AFSA18.jpg,AFSA18.jpg,FS,4,num_4,16,num_4,0.833524868591,,,2017_Sep_13_1635,60.0134163634,FEMA4ImagesEEG,001,101446,
AMSA25.JPG,AMNE24.JPG,AMSA24.JPG,AMNE26.JPG,AMSA21.JPG,AMNE25.JPG,,,,,,,,,0,4,4,3,,,,,,,,,,,,,,,AFNE08.jpg,AFSA07.jpg,AFNE03.jpg,AFSA06.jpg,AFNE08.jpg,FN,3,num_8,16,num_8,0.683458779939,,,2017_Sep_13_1635,60.0134163634,FEMA4ImagesEEG,001,101446,
AFNE22.JPG,AFSA24.JPG,AFSA22.JPG,AFNE25.JPG,AFNE24.JPG,AFSA25.JPG,,,,,,,,,0,5,5,6,,,,,,,,,,,,,,,AFNE18.jpg,AFSA19.jpg,AFNE01.jpg,AFSA10.jpg,AFSA19.jpg,FS,4,num_6,16,num_6,0.800111489138,,,2017_Sep_13_1635,60.0134163634,FEMA4ImagesEEG,001,101446,
AMNE22.JPG,AMSA24.JPG,AMSA22.JPG,AMNE25.JPG,AMNE24.JPG,AMSA25.JPG,,,,,,,,,0,6,6,7,,,,,,,,,,,,,,,AFSA10.jpg,AFSA20.jpg,AFNE11.jpg,AFNE18.jpg,AFNE18.jpg,FN,3,num_4,16,num_4,0.566823390778,,,2017_Sep_13_1635,60.0134163634,FEMA4ImagesEEG,001,101446,
AFSA21.JPG,AFNE23.JPG,AFNE21.JPG,AFSA25.JPG,AFNE25.JPG,AFSA23.JPG,,,,,,,,,0,7,7,4,,,,,,,,,,,,,,,AFSA08.jpg,AFNE16.jpg,AFSA07.jpg,AFNE20.jpg,AFNE20.jpg,FN,3,num_4,32,num_2,1.33343233494,,,2017_Sep_13_1635,60.0134163634,FEMA4ImagesEEG,001,101446,
AFNE23.JPG,AFNE24.JPG,AFNE22.JPG,AFSA24.JPG,AFSA22.JPG,AFSA23.JPG,,,,,,,,,0,8,8,8,,,,,,,,,,,,,,,AFNE14.jpg,AFSA09.jpg,AFNE03.jpg,AFSA13.jpg,AFSA13.jpg,FS,4,num_4,32,num_8,0.683438573265,,,2017_Sep_13_1635,60.0134163634,FEMA4ImagesEEG,001,101446,
AFSA25.JPG,AFNE24.JPG,AFSA24.JPG,AFNE21.JPG,AFSA21.JPG,AFNE25.JPG,,,,,,,,,0,9,9,2,,,,,,,,,,,,,,,AFSA16.jpg,AFSA18.jpg,AFNE11.jpg,AFNE20.jpg,AFNE11.jpg,FN,3,num_2,16,num_2,0.766854310175,,,2017_Sep_13_1635,60.0134163634,FEMA4ImagesEEG,001,101446,
AFSA25.JPG,AFNE24.JPG,AFSA24.JPG,AFNE21.JPG,AFSA21.JPG,AFNE25.JPG,,,,,,,,,,,,,0,0,0,2,,,,,,,,,,,AMSA12.jpg,AMNE13.jpg,AMNE16.jpg,AMSA04.jpg,AMSA12.jpg,MS,2,num_8,32,num_4,0.733450552914,,,2017_Sep_13_1635,60.0134163634,FEMA4ImagesEEG,001,101446,
AFSA21.JPG,AFNE22.JPG,AFNE21.JPG,AFSA23.JPG,AFSA22.JPG,AFNE23.JPG,,,,,,,,,,,,,0,1,1,0,,,,,,,,,,,AMSA06.jpg,AMNE16.jpg,AMNE15.jpg,AMSA08.jpg,AMSA08.jpg,MS,2,num_4,32,num_6,0.933494622586,,,2017_Sep_13_1635,60.0134163634,FEMA4ImagesEEG,001,101446,
AFSA21.JPG,AFNE23.JPG,AFNE21.JPG,AFSA25.JPG,AFNE25.JPG,AFSA23.JPG,,,,,,,,,,,,,0,2,2,4,,,,,,,,,,,AMSA19.jpg,AMNE20.jpg,AMSA10.jpg,AMNE15.jpg,AMNE15.jpg,MN,1,num_4,32,num_8,0.750188354403,,,2017_Sep_13_1635,60.0134163634,FEMA4ImagesEEG,001,101446,
AMNE23.JPG,AMNE24.JPG,AMNE22.JPG,AMSA24.JPG,AMSA22.JPG,AMSA23.JPG,,,,,,,,,,,,,0,3,3,9,,,,,,,,,,,AMSA06.jpg,AMNE17.jpg,AMNE04.jpg,AMSA13.jpg,AMSA06.jpg,MS,2,num_8,32,num_2,0.650150282541,,,2017_Sep_13_1635,60.0134163634,FEMA4ImagesEEG,001,101446,
AMNE22.JPG,AMSA24.JPG,AMSA22.JPG,AMNE25.JPG,AMNE24.JPG,AMSA25.JPG,,,,,,,,,,,,,0,4,4,7,,,,,,,,,,,AMSA13.jpg,AMSA01.jpg,AMNE02.jpg,AMNE04.jpg,AMSA13.jpg,MS,2,num_8,32,num_4,0.650140339741,,,2017_Sep_13_1635,60.0134163634,FEMA4ImagesEEG,001,101446,
AFNE22.JPG,AFSA24.JPG,AFSA22.JPG,AFNE25.JPG,AFNE24.JPG,AFSA25.JPG,,,,,,,,,,,,,0,5,5,6,,,,,,,,,,,AMSA02.jpg,AMNE04.jpg,AMNE01.jpg,AMSA10.jpg,AMSA02.jpg,MS,2,num_8,32,num_2,1.20013836725,,,2017_Sep_13_1635,60.0134163634,FEMA4ImagesEEG,001,101446,
AMSA25.JPG,AMNE24.JPG,AMSA24.JPG,AMNE26.JPG,AMSA21.JPG,AMNE25.JPG,,,,,,,,,,,,,0,6,6,3,,,,,,,,,,,AMNE01.jpg,AMSA03.jpg,AMSA17.jpg,AMNE19.jpg,AMSA17.jpg,MS,2,num_2,32,num_8,0.716757975984,,,2017_Sep_13_1635,60.0134163634,FEMA4ImagesEEG,001,101446,
AFNE23.JPG,AFNE24.JPG,AFNE22.JPG,AFSA24.JPG,AFSA22.JPG,AFSA23.JPG,,,,,,,,,,,,,0,7,7,8,,,,,,,,,,,AMSA11.jpg,AMNE09.jpg,AMNE16.jpg,AMSA01.jpg,AMNE09.jpg,MN,1,num_6,32,num_2,0.801075953525,,,2017_Sep_13_1635,60.0134163634,FEMA4ImagesEEG,001,101446,
AMSA21.JPG,AMNE22.JPG,AMNE21.JPG,AMSA23.JPG,AMSA22.JPG,AMNE23.JPG,,,,,,,,,,,,,0,8,8,1,,,,,,,,,,,AMSA06.jpg,AMSA08.jpg,AMNE17.jpg,AMNE05.jpg,AMNE05.jpg,MN,1,num_4,32,num_8,0.350125232944,,,2017_Sep_13_1635,60.0134163634,FEMA4ImagesEEG,001,101446,
AMSA21.JPG,AMNE23.JPG,AMNE21.JPG,AMSA25.JPG,AMNE25.JPG,AMSA23.JPG,,,,,,,,,,,,,0,9,9,5,,,,,,,,,,,AMSA09.jpg,AMSA16.jpg,AMNE14.jpg,AMNE09.jpg,AMSA09.jpg,MS,2,num_8,32,num_6,0.833427363541,,,2017_Sep_13_1635,60.0134163634,FEMA4ImagesEEG,001,101446,
AFSA21.JPG,AFNE22.JPG,AFNE21.JPG,AFSA23.JPG,AFSA22.JPG,AFNE23.JPG,,,,,,,,,,,,,,,,,0,0,0,0,,,,,,,AFSA11.jpg,AFNE15.jpg,AFSA09.jpg,AFNE12.jpg,AFNE12.jpg,FN,3,num_4,16,num_4,0.966748273699,,,2017_Sep_13_1635,60.0134163634,FEMA4ImagesEEG,001,101446,
AMNE23.JPG,AMNE24.JPG,AMNE22.JPG,AMSA24.JPG,AMSA22.JPG,AMSA23.JPG,,,,,,,,,,,,,,,,,0,1,1,9,,,,,,,AFNE19.jpg,AFNE12.jpg,AFSA12.jpg,AFSA11.jpg,AFNE19.jpg,FN,3,num_8,16,num_8,1.10008137161,,,2017_Sep_13_1635,60.0134163634,FEMA4ImagesEEG,001,101446,
AMSA21.JPG,AMNE22.JPG,AMNE21.JPG,AMSA23.JPG,AMSA22.JPG,AMNE23.JPG,,,,,,,,,,,,,,,,,0,2,2,1,,,,,,,AFSA07.jpg,AFNE11.jpg,AFNE17.jpg,AFSA08.jpg,AFNE17.jpg,FN,3,num_2,32,num_4,0.716777541209,,,2017_Sep_13_1635,60.0134163634,FEMA4ImagesEEG,001,101446,
AMSA25.JPG,AMNE24.JPG,AMSA24.JPG,AMNE26.JPG,AMSA21.JPG,AMNE25.JPG,,,,,,,,,,,,,,,,,0,3,3,3,,,,,,,AFNE17.jpg,AFSA13.jpg,AFNE04.jpg,AFSA03.jpg,AFSA03.jpg,FS,4,num_4,16,num_4,1.56676373328,,,2017_Sep_13_1635,60.0134163634,FEMA4ImagesEEG,001,101446,
AMNE22.JPG,AMSA24.JPG,AMSA22.JPG,AMNE25.JPG,AMNE24.JPG,AMSA25.JPG,,,,,,,,,,,,,,,,,0,4,4,7,,,,,,,AFSA04.jpg,AFNE15.jpg,AFSA14.jpg,AFNE10.jpg,AFNE15.jpg,FN,3,num_6,16,num_6,0.767087167129,,,2017_Sep_13_1635,60.0134163634,FEMA4ImagesEEG,001,101446,
AFNE23.JPG,AFNE24.JPG,AFNE22.JPG,AFSA24.JPG,AFSA22.JPG,AFSA23.JPG,,,,,,,,,,,,,,,,,0,5,5,8,,,,,,,AFSA04.jpg,AFSA15.jpg,AFNE10.jpg,AFNE19.jpg,AFSA15.jpg,FS,4,num_6,16,num_6,0.616750695277,,,2017_Sep_13_1635,60.0134163634,FEMA4ImagesEEG,001,101446,
AFNE22.JPG,AFSA24.JPG,AFSA22.JPG,AFNE25.JPG,AFNE24.JPG,AFSA25.JPG,,,,,,,,,,,,,,,,,0,6,6,6,,,,,,,AFNE16.jpg,AFSA15.jpg,AFSA06.jpg,AFNE13.jpg,AFSA15.jpg,FS,4,num_6,16,num_6,0.45014983369,,,2017_Sep_13_1635,60.0134163634,FEMA4ImagesEEG,001,101446,
AFSA21.JPG,AFNE23.JPG,AFNE21.JPG,AFSA25.JPG,AFNE25.JPG,AFSA23.JPG,,,,,,,,,,,,,,,,,0,7,7,4,,,,,,,AFNE04.jpg,AFNE13.jpg,AFSA18.jpg,AFSA01.jpg,AFSA01.jpg,FS,4,num_4,16,num_4,1.45006579976,,,2017_Sep_13_1635,60.0134163634,FEMA4ImagesEEG,001,101446,
AFSA25.JPG,AFNE24.JPG,AFSA24.JPG,AFNE21.JPG,AFSA21.JPG,AFNE25.JPG,,,,,,,,,,,,,,,,,0,8,8,2,,,,,,,AFSA06.jpg,AFNE11.jpg,AFNE20.jpg,AFSA05.jpg,AFNE11.jpg,FN,3,num_6,32,num_4,0.900092790136,,,2017_Sep_13_1635,60.0134163634,FEMA4ImagesEEG,001,101446,
AMSA21.JPG,AMNE23.JPG,AMNE21.JPG,AMSA25.JPG,AMNE25.JPG,AMSA23.JPG,,,,,,,,,,,,,,,,,0,9,9,5,,,,,,,AFSA18.jpg,AFNE05.jpg,AFSA04.jpg,AFNE08.jpg,AFSA18.jpg,FS,4,num_8,16,num_8,0.733524323208,,,2017_Sep_13_1635,60.0134163634,FEMA4ImagesEEG,001,101446,
AFSA25.JPG,AFNE24.JPG,AFSA24.JPG,AFNE21.JPG,AFSA21.JPG,AFNE25.JPG,,,,,,,,,,,,,,,,,,,,,0,0,0,2,,,AMSA14.jpg,AMNE04.jpg,AMSA18.jpg,AMNE19.jpg,AMNE04.jpg,MN,1,num_6,16,num_6,0.783502304228,,,2017_Sep_13_1635,60.0134163634,FEMA4ImagesEEG,001,101446,
AFSA21.JPG,AFNE22.JPG,AFNE21.JPG,AFSA23.JPG,AFSA22.JPG,AFNE23.JPG,,,,,,,,,,,,,,,,,,,,,0,1,1,0,,,AMNE05.jpg,AMNE08.jpg,AMSA05.jpg,AMSA06.jpg,AMNE05.jpg,MN,1,num_8,32,num_2,1.33327421034,,,2017_Sep_13_1635,60.0134163634,FEMA4ImagesEEG,001,101446,
AMSA25.JPG,AMNE24.JPG,AMSA24.JPG,AMNE26.JPG,AMSA21.JPG,AMNE25.JPG,,,,,,,,,,,,,,,,,,,,,0,2,2,3,,,AMSA01.jpg,AMSA13.jpg,AMNE04.jpg,AMNE06.jpg,AMNE06.jpg,MN,1,num_4,16,num_4,0.733471721644,,,2017_Sep_13_1635,60.0134163634,FEMA4ImagesEEG,001,101446,
AMSA21.JPG,AMNE23.JPG,AMNE21.JPG,AMSA25.JPG,AMNE25.JPG,AMSA23.JPG,,,,,,,,,,,,,,,,,,,,,0,3,3,5,,,AMSA20.jpg,AMNE01.jpg,AMNE19.jpg,AMSA13.jpg,AMNE19.jpg,MN,1,num_2,16,num_2,0.616675642086,,,2017_Sep_13_1635,60.0134163634,FEMA4ImagesEEG,001,101446,
AFNE22.JPG,AFSA24.JPG,AFSA22.JPG,AFNE25.JPG,AFNE24.JPG,AFSA25.JPG,,,,,,,,,,,,,,,,,,,,,0,4,4,6,,,AMSA16.jpg,AMNE13.jpg,AMSA09.jpg,AMNE03.jpg,AMSA16.jpg,MS,2,num_8,32,num_6,0.833435702836,,,2017_Sep_13_1635,60.0134163634,FEMA4ImagesEEG,001,101446,
AMNE23.JPG,AMNE24.JPG,AMNE22.JPG,AMSA24.JPG,AMSA22.JPG,AMSA23.JPG,,,,,,,,,,,,,,,,,,,,,0,5,5,9,,,AMSA14.jpg,AMSA19.jpg,AMNE18.jpg,AMNE04.jpg,AMSA14.jpg,MS,2,num_8,16,num_8,0.76685751765,,,2017_Sep_13_1635,60.0134163634,FEMA4ImagesEEG,001,101446,
AFSA21.JPG,AFNE23.JPG,AFNE21.JPG,AFSA25.JPG,AFNE25.JPG,AFSA23.JPG,,,,,,,,,,,,,,,,,,,,,0,6,6,4,,,AMSA07.jpg,AMSA19.jpg,AMNE06.jpg,AMNE17.jpg,AMNE06.jpg,MN,1,num_2,32,num_4,0.700170280645,,,2017_Sep_13_1635,60.0134163634,FEMA4ImagesEEG,001,101446,
AMSA21.JPG,AMNE22.JPG,AMNE21.JPG,AMSA23.JPG,AMSA22.JPG,AMNE23.JPG,,,,,,,,,,,,,,,,,,,,,0,7,7,1,,,AMNE05.jpg,AMSA13.jpg,AMNE13.jpg,AMSA19.jpg,AMNE05.jpg,MN,1,num_8,32,num_4,0.783439439489,,,2017_Sep_13_1635,60.0134163634,FEMA4ImagesEEG,001,101446,
AFNE23.JPG,AFNE24.JPG,AFNE22.JPG,AFSA24.JPG,AFSA22.JPG,AFSA23.JPG,,,,,,,,,,,,,,,,,,,,,0,8,8,8,,,AMSA20.jpg,AMNE01.jpg,AMNE07.jpg,AMSA04.jpg,AMSA04.jpg,MS,2,num_4,32,num_6,1.65007009753,,,2017_Sep_13_1635,60.0134163634,FEMA4ImagesEEG,001,101446,
AMNE22.JPG,AMSA24.JPG,AMSA22.JPG,AMNE25.JPG,AMNE24.JPG,AMSA25.JPG,,,,,,,,,,,,,,,,,,,,,0,9,9,7,,,AMSA01.jpg,AMSA06.jpg,AMNE12.jpg,AMNE02.jpg,AMNE02.jpg,MN,1,num_4,32,num_2,1.71668035677,,,2017_Sep_13_1635,60.0134163634,FEMA4ImagesEEG,001,101446,
,,,,,,,,,,,,,,,,,,,,,,,,,,,,,,,,,,,,,,,,,,,space,59.3955137497,2017_Sep_13_1635,60.0134163634,FEMA4ImagesEEG,001,101446,
AFNE01.JPG,AFNE01.JPG,AFNE01.JPG,AFNE01.JPG,AFNE01.JPG,AFNE01.JPG,0,0,0,2,,,,,,,,,,,,,,,,,,,,,,,AFSA18.jpg,AFSA08.jpg,AFNE12.jpg,AFNE07.jpg,AFSA08.jpg,FS,4,num_6,32,num_2,0.833469701232,,,2017_Sep_13_1635,60.0134163634,FEMA4ImagesEEG,001,101446,
AFNE01.JPG,AFNE01.JPG,AFNE01.JPG,AFNE01.JPG,AFNE01.JPG,AFNE01.JPG,0,1,1,8,,,,,,,,,,,,,,,,,,,,,,,AFNE09.jpg,AFNE11.jpg,AFSA08.jpg,AFSA16.jpg,AFSA16.jpg,FS,4,num_4,16,num_4,0.566999156261,,,2017_Sep_13_1635,60.0134163634,FEMA4ImagesEEG,001,101446,
AFNE01.JPG,AFNE01.JPG,AFNE01.JPG,AFNE01.JPG,AFNE01.JPG,AFNE01.JPG,0,2,2,9,,,,,,,,,,,,,,,,,,,,,,,AFNE17.jpg,AFSA14.jpg,AFSA03.jpg,AFNE08.jpg,AFNE17.jpg,FN,3,num_8,32,num_6,0.5835255899,,,2017_Sep_13_1635,60.0134163634,FEMA4ImagesEEG,001,101446,
AFNE01.JPG,AFNE01.JPG,AFNE01.JPG,AFNE01.JPG,AFNE01.JPG,AFNE01.JPG,0,3,3,6,,,,,,,,,,,,,,,,,,,,,,,AFSA17.jpg,AFNE11.jpg,AFNE02.jpg,AFSA19.jpg,AFNE11.jpg,FN,3,num_6,16,num_6,1.15006031492,,,2017_Sep_13_1635,60.0134163634,FEMA4ImagesEEG,001,101446,
AFNE01.JPG,AFNE01.JPG,AFNE01.JPG,AFNE01.JPG,AFNE01.JPG,AFNE01.JPG,0,4,4,7,,,,,,,,,,,,,,,,,,,,,,,AFSA15.jpg,AFSA09.jpg,AFNE18.jpg,AFNE14.jpg,AFSA15.jpg,FS,4,num_8,32,num_2,0.850137260742,,,2017_Sep_13_1635,60.0134163634,FEMA4ImagesEEG,001,101446,
AFNE01.JPG,AFNE01.JPG,AFNE01.JPG,AFNE01.JPG,AFNE01.JPG,AFNE01.JPG,0,5,5,3,,,,,,,,,,,,,,,,,,,,,,,AFNE02.jpg,AFNE16.jpg,AFSA20.jpg,AFSA08.jpg,AFSA08.jpg,FS,4,num_4,16,num_4,0.700123773422,,,2017_Sep_13_1635,60.0134163634,FEMA4ImagesEEG,001,101446,
AFNE01.JPG,AFNE01.JPG,AFNE01.JPG,AFNE01.JPG,AFNE01.JPG,AFNE01.JPG,0,6,6,4,,,,,,,,,,,,,,,,,,,,,,,AFSA16.jpg,AFNE05.jpg,AFSA04.jpg,AFNE10.jpg,AFSA16.jpg,FS,4,num_8,16,num_8,0.966778102331,,,2017_Sep_13_1635,60.0134163634,FEMA4ImagesEEG,001,101446,
AFNE01.JPG,AFNE01.JPG,AFNE01.JPG,AFNE01.JPG,AFNE01.JPG,AFNE01.JPG,0,7,7,5,,,,,,,,,,,,,,,,,,,,,,,AFSA12.jpg,AFSA01.jpg,AFNE04.jpg,AFNE20.jpg,AFNE20.jpg,FN,3,num_4,32,num_2,0.866767293308,,,2017_Sep_13_1635,60.0134163634,FEMA4ImagesEEG,001,101446,
AFNE01.JPG,AFNE01.JPG,AFNE01.JPG,AFNE01.JPG,AFNE01.JPG,AFNE01.JPG,0,8,8,1,,,,,,,,,,,,,,,,,,,,,,,AFNE12.jpg,AFNE18.jpg,AFSA11.jpg,AFSA18.jpg,AFSA18.jpg,FS,4,num_4,32,num_8,0.900164315011,,,2017_Sep_13_1635,60.0134163634,FEMA4ImagesEEG,001,101446,
AFNE01.JPG,AFNE01.JPG,AFNE01.JPG,AFNE01.JPG,AFNE01.JPG,AFNE01.JPG,0,9,9,0,,,,,,,,,,,,,,,,,,,,,,,AFSA20.jpg,AFNE20.jpg,AFSA10.jpg,AFNE10.jpg,AFSA20.jpg,FS,4,num_8,32,num_4,0.966733840294,,,2017_Sep_13_1635,60.0134163634,FEMA4ImagesEEG,001,101446,
AFNE01.JPG,AFNE01.JPG,AFNE01.JPG,AFNE01.JPG,AFNE01.JPG,AFNE01.JPG,1,0,10,3,,,,,,,,,,,,,,,,,,,,,,,AFNE02.jpg,AFSA09.jpg,AFNE11.jpg,AFSA02.jpg,AFSA02.jpg,FS,4,num_4,32,num_6,0.333506746683,,,2017_Sep_13_1635,60.0134163634,FEMA4ImagesEEG,001,101446,
AFNE01.JPG,AFNE01.JPG,AFNE01.JPG,AFNE01.JPG,AFNE01.JPG,AFNE01.JPG,1,1,11,9,,,,,,,,,,,,,,,,,,,,,,,AFNE18.jpg,AFSA11.jpg,AFNE01.jpg,AFSA14.jpg,AFNE18.jpg,FN,3,num_8,32,num_4,0.516499010613,,,2017_Sep_13_1635,60.0134163634,FEMA4ImagesEEG,001,101446,
AFNE01.JPG,AFNE01.JPG,AFNE01.JPG,AFNE01.JPG,AFNE01.JPG,AFNE01.JPG,1,2,12,1,,,,,,,,,,,,,,,,,,,,,,,AFNE12.jpg,AFNE20.jpg,AFSA12.jpg,AFSA19.jpg,AFNE12.jpg,FN,3,num_8,32,num_2,0.283495408483,,,2017_Sep_13_1635,60.0134163634,FEMA4ImagesEEG,001,101446,
AFNE01.JPG,AFNE01.JPG,AFNE01.JPG,AFNE01.JPG,AFNE01.JPG,AFNE01.JPG,1,3,13,0,,,,,,,,,,,,,,,,,,,,,,,AFSA18.jpg,AFNE08.jpg,AFSA12.jpg,AFNE13.jpg,AFNE08.jpg,FN,3,num_6,32,num_8,0.850127317477,,,2017_Sep_13_1635,60.0134163634,FEMA4ImagesEEG,001,101446,
AFNE01.JPG,AFNE01.JPG,AFNE01.JPG,AFNE01.JPG,AFNE01.JPG,AFNE01.JPG,1,4,14,2,,,,,,,,,,,,,,,,,,,,,,,AFNE18.jpg,AFSA04.jpg,AFNE12.jpg,AFSA12.jpg,AFNE12.jpg,FN,3,num_2,32,num_6,0.316802943591,,,2017_Sep_13_1635,60.0134163634,FEMA4ImagesEEG,001,101446,
AFNE01.JPG,AFNE01.JPG,AFNE01.JPG,AFNE01.JPG,AFNE01.JPG,AFNE01.JPG,1,5,15,8,,,,,,,,,,,,,,,,,,,,,,,AFNE02.jpg,AFSA13.jpg,AFNE12.jpg,AFSA16.jpg,AFSA13.jpg,FS,4,num_6,32,num_2,0.283471032279,,,2017_Sep_13_1635,60.0134163634,FEMA4ImagesEEG,001,101446,
AFNE01.JPG,AFNE01.JPG,AFNE01.JPG,AFNE01.JPG,AFNE01.JPG,AFNE01.JPG,1,6,16,4,,,,,,,,,,,,,,,,,,,,,,,AFNE13.jpg,AFSA01.jpg,AFNE15.jpg,AFSA10.jpg,AFNE15.jpg,FN,3,num_2,32,num_4,0.616804579506,,,2017_Sep_13_1635,60.0134163634,FEMA4ImagesEEG,001,101446,
AFNE01.JPG,AFNE01.JPG,AFNE01.JPG,AFNE01.JPG,AFNE01.JPG,AFNE01.JPG,1,7,17,5,,,,,,,,,,,,,,,,,,,,,,,AFNE17.jpg,AFSA10.jpg,AFSA13.jpg,AFNE04.jpg,AFSA10.jpg,FS,4,num_6,32,num_8,1.10018625343,,,2017_Sep_13_1635,60.0134163634,FEMA4ImagesEEG,001,101446,
AFNE01.JPG,AFNE01.JPG,AFNE01.JPG,AFNE01.JPG,AFNE01.JPG,AFNE01.JPG,1,8,18,6,,,,,,,,,,,,,,,,,,,,,,,AFNE09.jpg,AFSA01.jpg,AFNE02.jpg,AFSA11.jpg,AFSA11.jpg,FS,4,num_4,32,num_2,0.95013299468,,,2017_Sep_13_1635,60.0134163634,FEMA4ImagesEEG,001,101446,
AFNE01.JPG,AFNE01.JPG,AFNE01.JPG,AFNE01.JPG,AFNE01.JPG,AFNE01.JPG,1,9,19,7,,,,,,,,,,,,,,,,,,,,,,,AFNE13.jpg,AFNE16.jpg,AFSA01.jpg,AFSA12.jpg,AFNE13.jpg,FN,3,num_8,16,num_8,1.01673074509,,,2017_Sep_13_1635,60.0134163634,FEMA4ImagesEEG,001,101446,
AFNE01.JPG,AFNE01.JPG,AFNE01.JPG,AFNE01.JPG,AFNE01.JPG,AFNE01.JPG,2,0,20,7,,,,,,,,,,,,,,,,,,,,,,,AFNE05.jpg,AFNE12.jpg,AFSA07.jpg,AFSA09.jpg,AFNE05.jpg,FN,3,num_8,32,num_6,1.2834023938,,,2017_Sep_13_1635,60.0134163634,FEMA4ImagesEEG,001,101446,
AFNE01.JPG,AFNE01.JPG,AFNE01.JPG,AFNE01.JPG,AFNE01.JPG,AFNE01.JPG,2,1,21,9,,,,,,,,,,,,,,,,,,,,,,,AFNE16.jpg,AFNE12.jpg,AFSA15.jpg,AFSA12.jpg,AFNE12.jpg,FN,3,num_6,32,num_8,0.916760028573,,,2017_Sep_13_1635,60.0134163634,FEMA4ImagesEEG,001,101446,
AFNE01.JPG,AFNE01.JPG,AFNE01.JPG,AFNE01.JPG,AFNE01.JPG,AFNE01.JPG,2,2,22,3,,,,,,,,,,,,,,,,,,,,,,,AFSA08.jpg,AFSA19.jpg,AFNE14.jpg,AFNE19.jpg,AFSA19.jpg,FS,4,num_6,32,num_2,0.350053066388,,,2017_Sep_13_1635,60.0134163634,FEMA4ImagesEEG,001,101446,
AFNE01.JPG,AFNE01.JPG,AFNE01.JPG,AFNE01.JPG,AFNE01.JPG,AFNE01.JPG,2,3,23,4,,,,,,,,,,,,,,,,,,,,,,,AFSA05.jpg,AFNE14.jpg,AFNE16.jpg,AFSA01.jpg,AFNE16.jpg,FN,3,num_2,16,num_2,1.03344384953,,,2017_Sep_13_1635,60.0134163634,FEMA4ImagesEEG,001,101446,
AFNE01.JPG,AFNE01.JPG,AFNE01.JPG,AFNE01.JPG,AFNE01.JPG,AFNE01.JPG,2,4,24,2,,,,,,,,,,,,,,,,,,,,,,,AFSA14.jpg,AFNE12.jpg,AFNE02.jpg,AFSA16.jpg,AFSA16.jpg,FS,4,num_4,16,num_4,0.450181586668,,,2017_Sep_13_1635,60.0134163634,FEMA4ImagesEEG,001,101446,
AFNE01.JPG,AFNE01.JPG,AFNE01.JPG,AFNE01.JPG,AFNE01.JPG,AFNE01.JPG,2,5,25,0,,,,,,,,,,,,,,,,,,,,,,,AFSA07.jpg,AFNE02.jpg,AFNE14.jpg,AFSA12.jpg,AFNE14.jpg,FN,3,num_2,32,num_8,1.68339431146,,,2017_Sep_13_1635,60.0134163634,FEMA4ImagesEEG,001,101446,
AFNE01.JPG,AFNE01.JPG,AFNE01.JPG,AFNE01.JPG,AFNE01.JPG,AFNE01.JPG,2,6,26,8,,,,,,,,,,,,,,,,,,,,,,,AFNE15.jpg,AFNE08.jpg,AFSA19.jpg,AFSA02.jpg,AFSA19.jpg,FS,4,num_2,16,num_2,0.650126868626,,,2017_Sep_13_1635,60.0134163634,FEMA4ImagesEEG,001,101446,
AFNE01.JPG,AFNE01.JPG,AFNE01.JPG,AFNE01.JPG,AFNE01.JPG,AFNE01.JPG,2,7,27,5,,,,,,,,,,,,,,,,,,,,,,,AFSA17.jpg,AFNE17.jpg,AFSA03.jpg,AFNE16.jpg,AFSA17.jpg,FS,4,num_8,32,num_6,0.883472700138,,,2017_Sep_13_1635,60.0134163634,FEMA4ImagesEEG,001,101446,
AFNE01.JPG,AFNE01.JPG,AFNE01.JPG,AFNE01.JPG,AFNE01.JPG,AFNE01.JPG,2,8,28,6,,,,,,,,,,,,,,,,,,,,,,,AFNE13.jpg,AFSA15.jpg,AFSA14.jpg,AFNE07.jpg,AFNE13.jpg,FN,3,num_8,32,num_4,1.25007240707,,,2017_Sep_13_1635,60.0134163634,FEMA4ImagesEEG,001,101446,
AFNE01.JPG,AFNE01.JPG,AFNE01.JPG,AFNE01.JPG,AFNE01.JPG,AFNE01.JPG,2,9,29,1,,,,,,,,,,,,,,,,,,,,,,,AFNE13.jpg,AFSA01.jpg,AFNE18.jpg,AFSA06.jpg,AFSA06.jpg,FS,4,num_4,32,num_8,3.46653899085,,,2017_Sep_13_1635,60.0134163634,FEMA4ImagesEEG,001,101446,
AFNE01.JPG,AFNE01.JPG,AFNE01.JPG,AFNE01.JPG,AFNE01.JPG,AFNE01.JPG,3,0,30,2,,,,,,,,,,,,,,,,,,,,,,,AFNE14.jpg,AFNE09.jpg,AFSA16.jpg,AFSA05.jpg,AFNE09.jpg,FN,3,num_6,32,num_8,1.31674039923,,,2017_Sep_13_1635,60.0134163634,FEMA4ImagesEEG,001,101446,
AFNE01.JPG,AFNE01.JPG,AFNE01.JPG,AFNE01.JPG,AFNE01.JPG,AFNE01.JPG,3,1,31,4,,,,,,,,,,,,,,,,,,,,,,,AFSA02.jpg,AFSA18.jpg,AFNE16.jpg,AFNE03.jpg,AFSA02.jpg,FS,4,num_8,32,num_2,0.666781919077,,,2017_Sep_13_1635,60.0134163634,FEMA4ImagesEEG,001,101446,
AFNE01.JPG,AFNE01.JPG,AFNE01.JPG,AFNE01.JPG,AFNE01.JPG,AFNE01.JPG,3,2,32,6,,,,,,,,,,,,,,,,,,,,,,,AFNE14.jpg,AFSA06.jpg,AFSA18.jpg,AFNE13.jpg,AFNE14.jpg,FN,3,num_8,32,num_4,0.566639607074,,,2017_Sep_13_1635,60.0134163634,FEMA4ImagesEEG,001,101446,
AFNE01.JPG,AFNE01.JPG,AFNE01.JPG,AFNE01.JPG,AFNE01.JPG,AFNE01.JPG,3,3,33,8,,,,,,,,,,,,,,,,,,,,,,,AFSA15.jpg,AFNE03.jpg,AFSA14.jpg,AFNE20.jpg,AFSA14.jpg,FS,4,num_2,16,num_2,0.883301425027,,,2017_Sep_13_1635,60.0134163634,FEMA4ImagesEEG,001,101446,
AFNE01.JPG,AFNE01.JPG,AFNE01.JPG,AFNE01.JPG,AFNE01.JPG,AFNE01.JPG,3,4,34,5,,,,,,,,,,,,,,,,,,,,,,,AFNE10.jpg,AFSA15.jpg,AFSA17.jpg,AFNE06.jpg,AFNE10.jpg,FN,3,num_8,32,num_6,1.31675675721,,,2017_Sep_13_1635,60.0134163634,FEMA4ImagesEEG,001,101446,
AFNE01.JPG,AFNE01.JPG,AFNE01.JPG,AFNE01.JPG,AFNE01.JPG,AFNE01.JPG,3,5,35,3,,,,,,,,,,,,,,,,,,,,,,,AFNE08.jpg,AFNE06.jpg,AFSA12.jpg,AFSA06.jpg,AFSA06.jpg,FS,4,num_4,16,num_4,1.31672692834,,,2017_Sep_13_1635,60.0134163634,FEMA4ImagesEEG,001,101446,
AFNE01.JPG,AFNE01.JPG,AFNE01.JPG,AFNE01.JPG,AFNE01.JPG,AFNE01.JPG,3,6,36,0,,,,,,,,,,,,,,,,,,,,,,,AFNE02.jpg,AFSA01.jpg,AFNE16.jpg,AFSA20.jpg,AFSA20.jpg,FS,4,num_4,16,num_4,1.56676341244,,,2017_Sep_13_1635,60.0134163634,FEMA4ImagesEEG,001,101446,
AFNE01.JPG,AFNE01.JPG,AFNE01.JPG,AFNE01.JPG,AFNE01.JPG,AFNE01.JPG,3,7,37,1,,,,,,,,,,,,,,,,,,,,,,,AFSA15.jpg,AFNE01.jpg,AFNE10.jpg,AFSA17.jpg,AFSA17.jpg,FS,4,num_4,16,num_4,1.18350769277,,,2017_Sep_13_1635,60.0134163634,FEMA4ImagesEEG,001,101446,
AFNE01.JPG,AFNE01.JPG,AFNE01.JPG,AFNE01.JPG,AFNE01.JPG,AFNE01.JPG,3,8,38,9,,,,,,,,,,,,,,,,,,,,,,,AFNE11.jpg,AFSA14.jpg,AFNE02.jpg,AFSA01.jpg,AFSA01.jpg,FS,4,num_4,32,num_8,1.21678988962,,,2017_Sep_13_1635,60.0134163634,FEMA4ImagesEEG,001,101446,
AFNE01.JPG,AFNE01.JPG,AFNE01.JPG,AFNE01.JPG,AFNE01.JPG,AFNE01.JPG,3,9,39,7,,,,,,,,,,,,,,,,,,,,,,,AFNE07.jpg,AFSA12.jpg,AFSA08.jpg,AFNE08.jpg,AFSA12.jpg,FS,4,num_6,32,num_2,1.08343562251,,,2017_Sep_13_1635,60.0134163634,FEMA4ImagesEEG,001,101446,
AFNE01.JPG,AFNE01.JPG,AFNE01.JPG,AFNE01.JPG,AFNE01.JPG,AFNE01.JPG,4,0,40,9,,,,,,,,,,,,,,,,,,,,,,,AFSA09.jpg,AFNE08.jpg,AFSA11.jpg,AFNE06.jpg,AFNE06.jpg,FN,3,num_4,32,num_8,0.966735764639,,,2017_Sep_13_1635,60.0134163634,FEMA4ImagesEEG,001,101446,
AFNE01.JPG,AFNE01.JPG,AFNE01.JPG,AFNE01.JPG,AFNE01.JPG,AFNE01.JPG,4,1,41,0,,,,,,,,,,,,,,,,,,,,,,,AFSA12.jpg,AFSA16.jpg,AFNE12.jpg,AFNE10.jpg,AFNE10.jpg,FN,3,num_4,16,num_4,0.916772216791,,,2017_Sep_13_1635,60.0134163634,FEMA4ImagesEEG,001,101446,
AFNE01.JPG,AFNE01.JPG,AFNE01.JPG,AFNE01.JPG,AFNE01.JPG,AFNE01.JPG,4,2,42,8,,,,,,,,,,,,,,,,,,,,,,,AFNE08.jpg,AFNE01.jpg,AFSA13.jpg,AFSA08.jpg,AFNE08.jpg,FN,3,num_8,16,num_8,1.56673133839,,,2017_Sep_13_1635,60.0134163634,FEMA4ImagesEEG,001,101446,
AFNE01.JPG,AFNE01.JPG,AFNE01.JPG,AFNE01.JPG,AFNE01.JPG,AFNE01.JPG,4,3,43,2,,,,,,,,,,,,,,,,,,,,,,,AFNE14.jpg,AFSA14.jpg,AFNE07.jpg,AFSA13.jpg,AFNE07.jpg,FN,3,num_2,16,num_2,0.666862745536,,,2017_Sep_13_1635,60.0134163634,FEMA4ImagesEEG,001,101446,
AFNE01.JPG,AFNE01.JPG,AFNE01.JPG,AFNE01.JPG,AFNE01.JPG,AFNE01.JPG,4,4,44,1,,,,,,,,,,,,,,,,,,,,,,,AFNE02.jpg,AFSA14.jpg,AFSA08.jpg,AFNE13.jpg,AFNE02.jpg,FN,3,num_8,32,num_4,0.966485908488,,,2017_Sep_13_1635,60.0134163634,FEMA4ImagesEEG,001,101446,
AFNE01.JPG,AFNE01.JPG,AFNE01.JPG,AFNE01.JPG,AFNE01.JPG,AFNE01.JPG,4,5,45,4,,,,,,,,,,,,,,,,,,,,,,,AFSA19.jpg,AFNE03.jpg,AFNE07.jpg,AFSA18.jpg,AFSA19.jpg,FS,4,num_8,16,num_8,0.783487871056,,,2017_Sep_13_1635,60.0134163634,FEMA4ImagesEEG,001,101446,
AFNE01.JPG,AFNE01.JPG,AFNE01.JPG,AFNE01.JPG,AFNE01.JPG,AFNE01.JPG,4,6,46,7,,,,,,,,,,,,,,,,,,,,,,,AFSA04.jpg,AFNE15.jpg,AFNE13.jpg,AFSA13.jpg,AFSA04.jpg,FS,4,num_8,32,num_2,1.36672447459,,,2017_Sep_13_1635,60.0134163634,FEMA4ImagesEEG,001,101446,
AFNE01.JPG,AFNE01.JPG,AFNE01.JPG,AFNE01.JPG,AFNE01.JPG,AFNE01.JPG,4,7,47,6,,,,,,,,,,,,,,,,,,,,,,,AFSA14.jpg,AFNE12.jpg,AFNE09.jpg,AFSA09.jpg,AFNE09.jpg,FN,3,num_2,16,num_2,0.916773499921,,,2017_Sep_13_1635,60.0134163634,FEMA4ImagesEEG,001,101446,
AFNE01.JPG,AFNE01.JPG,AFNE01.JPG,AFNE01.JPG,AFNE01.JPG,AFNE01.JPG,4,8,48,5,,,,,,,,,,,,,,,,,,,,,,,AFSA13.jpg,AFNE10.jpg,AFSA10.jpg,AFNE13.jpg,AFNE13.jpg,FN,3,num_4,16,num_4,1.01670219912,,,2017_Sep_13_1635,60.0134163634,FEMA4ImagesEEG,001,101446,
AFNE01.JPG,AFNE01.JPG,AFNE01.JPG,AFNE01.JPG,AFNE01.JPG,AFNE01.JPG,4,9,49,3,,,,,,,,,,,,,,,,,,,,,,,AFSA15.jpg,AFNE05.jpg,AFNE18.jpg,AFSA06.jpg,AFSA15.jpg,FS,4,num_8,32,num_4,0.80010475358,,,2017_Sep_13_1635,60.0134163634,FEMA4ImagesEEG,001,101446,
AFNE01.JPG,AFNE01.JPG,AFNE01.JPG,AFNE01.JPG,AFNE01.JPG,AFNE01.JPG,5,0,50,8,,,,,,,,,,,,,,,,,,,,,,,AFSA05.jpg,AFNE19.jpg,AFSA16.jpg,AFNE03.jpg,AFNE19.jpg,FN,3,num_6,32,num_8,0.950109580532,,,2017_Sep_13_1635,60.0134163634,FEMA4ImagesEEG,001,101446,
AFNE01.JPG,AFNE01.JPG,AFNE01.JPG,AFNE01.JPG,AFNE01.JPG,AFNE01.JPG,5,1,51,4,,,,,,,,,,,,,,,,,,,,,,,AFSA02.jpg,AFNE13.jpg,AFSA10.jpg,AFNE16.jpg,AFNE13.jpg,FN,3,num_6,16,num_6,0.783425326692,,,2017_Sep_13_1635,60.0134163634,FEMA4ImagesEEG,001,101446,
AFNE01.JPG,AFNE01.JPG,AFNE01.JPG,AFNE01.JPG,AFNE01.JPG,AFNE01.JPG,5,2,52,0,,,,,,,,,,,,,,,,,,,,,,,AFNE15.jpg,AFSA20.jpg,AFSA03.jpg,AFNE04.jpg,AFSA03.jpg,FS,4,num_2,16,num_2,1.08341701981,,,2017_Sep_13_1635,60.0134163634,FEMA4ImagesEEG,001,101446,
AFNE01.JPG,AFNE01.JPG,AFNE01.JPG,AFNE01.JPG,AFNE01.JPG,AFNE01.JPG,5,3,53,2,,,,,,,,,,,,,,,,,,,,,,,AFNE12.jpg,AFNE06.jpg,AFSA15.jpg,AFSA05.jpg,AFNE12.jpg,FN,3,num_8,32,num_4,0.750137998257,,,2017_Sep_13_1635,60.0134163634,FEMA4ImagesEEG,001,101446,
AFNE01.JPG,AFNE01.JPG,AFNE01.JPG,AFNE01.JPG,AFNE01.JPG,AFNE01.JPG,5,4,54,9,,,,,,,,,,,,,,,,,,,,,,,AFSA08.jpg,AFNE04.jpg,AFSA01.jpg,AFNE17.jpg,AFSA08.jpg,FS,4,num_8,32,num_2,0.666788654635,,,2017_Sep_13_1635,60.0134163634,FEMA4ImagesEEG,001,101446,
AFNE01.JPG,AFNE01.JPG,AFNE01.JPG,AFNE01.JPG,AFNE01.JPG,AFNE01.JPG,5,5,55,5,,,,,,,,,,,,,,,,,,,,,,,AFNE12.jpg,AFNE01.jpg,AFSA05.jpg,AFSA19.jpg,AFSA19.jpg,FS,4,num_4,16,num_4,1.28376418818,,,2017_Sep_13_1635,60.0134163634,FEMA4ImagesEEG,001,101446,
AFNE01.JPG,AFNE01.JPG,AFNE01.JPG,AFNE01.JPG,AFNE01.JPG,AFNE01.JPG,5,6,56,3,,,,,,,,,,,,,,,,,,,,,,,AFSA18.jpg,AFNE16.jpg,AFNE19.jpg,AFSA20.jpg,AFSA18.jpg,FS,4,num_8,16,num_8,0.708771878155,,,2017_Sep_13_1635,60.0134163634,FEMA4ImagesEEG,001,101446,
AFNE01.JPG,AFNE01.JPG,AFNE01.JPG,AFNE01.JPG,AFNE01.JPG,AFNE01.JPG,5,7,57,1,,,,,,,,,,,,,,,,,,,,,,,AFNE18.jpg,AFSA13.jpg,AFSA03.jpg,AFNE13.jpg,AFSA13.jpg,FS,4,num_6,16,num_6,0.566803825786,,,2017_Sep_13_1635,60.0134163634,FEMA4ImagesEEG,001,101446,
AFNE01.JPG,AFNE01.JPG,AFNE01.JPG,AFNE01.JPG,AFNE01.JPG,AFNE01.JPG,5,8,58,7,,,,,,,,,,,,,,,,,,,,,,,AFNE16.jpg,AFNE17.jpg,AFSA07.jpg,AFSA16.jpg,AFNE16.jpg,FN,3,num_8,16,num_8,1.23347669328,,,2017_Sep_13_1635,60.0134163634,FEMA4ImagesEEG,001,101446,
AFNE01.JPG,AFNE01.JPG,AFNE01.JPG,AFNE01.JPG,AFNE01.JPG,AFNE01.JPG,5,9,59,6,,,,,,,,,,,,,,,,,,,,,,,AFNE03.jpg,AFSA02.jpg,AFSA08.jpg,AFNE06.jpg,AFNE03.jpg,FN,3,num_8,32,num_4,1.06679981621,,,2017_Sep_13_1635,60.0134163634,FEMA4ImagesEEG,001,101446,
,,,,,,,,,,,,,,,,,,,,,,,,,,,,,,,,,,,,,,,,,,,space,78.9275865974,2017_Sep_13_1635,60.0134163634,FEMA4ImagesEEG,001,101446,
AFNE01.JPG,AFNE01.JPG,AFNE01.JPG,AFNE01.JPG,AFNE01.JPG,AFNE01.JPG,,,,,0,0,0,5,,,,,,,,,,,,,,,,,,,AMSA05.jpg,AMSA12.jpg,AMNE17.jpg,AMNE15.jpg,AMNE17.jpg,MN,1,num_2,32,num_4,0.816501608817,,,2017_Sep_13_1635,60.0134163634,FEMA4ImagesEEG,001,101446,
AFNE01.JPG,AFNE01.JPG,AFNE01.JPG,AFNE01.JPG,AFNE01.JPG,AFNE01.JPG,,,,,0,1,1,4,,,,,,,,,,,,,,,,,,,AMNE09.jpg,AMSA02.jpg,AMSA07.jpg,AMNE11.jpg,AMNE11.jpg,MN,1,num_4,32,num_8,1.11678453302,,,2017_Sep_13_1635,60.0134163634,FEMA4ImagesEEG,001,101446,
AFNE01.JPG,AFNE01.JPG,AFNE01.JPG,AFNE01.JPG,AFNE01.JPG,AFNE01.JPG,,,,,0,2,2,3,,,,,,,,,,,,,,,,,,,AMSA05.jpg,AMNE08.jpg,AMNE12.jpg,AMSA16.jpg,AMNE08.jpg,MN,1,num_6,16,num_6,0.600094682304,,,2017_Sep_13_1635,60.0134163634,FEMA4ImagesEEG,001,101446,
AFNE01.JPG,AFNE01.JPG,AFNE01.JPG,AFNE01.JPG,AFNE01.JPG,AFNE01.JPG,,,,,0,3,3,1,,,,,,,,,,,,,,,,,,,AMSA03.jpg,AMNE04.jpg,AMSA14.jpg,AMNE11.jpg,AMSA03.jpg,MS,2,num_8,16,num_8,0.983586466406,,,2017_Sep_13_1635,60.0134163634,FEMA4ImagesEEG,001,101446,
AFNE01.JPG,AFNE01.JPG,AFNE01.JPG,AFNE01.JPG,AFNE01.JPG,AFNE01.JPG,,,,,0,4,4,8,,,,,,,,,,,,,,,,,,,AMSA06.jpg,AMSA01.jpg,AMNE19.jpg,AMNE01.jpg,AMNE19.jpg,MN,1,num_2,16,num_2,0.883451210568,,,2017_Sep_13_1635,60.0134163634,FEMA4ImagesEEG,001,101446,
AFNE01.JPG,AFNE01.JPG,AFNE01.JPG,AFNE01.JPG,AFNE01.JPG,AFNE01.JPG,,,,,0,5,5,0,,,,,,,,,,,,,,,,,,,AMSA16.jpg,AMSA05.jpg,AMNE08.jpg,AMNE10.jpg,AMSA05.jpg,MS,2,num_6,16,num_6,0.600137019996,,,2017_Sep_13_1635,60.0134163634,FEMA4ImagesEEG,001,101446,
AFNE01.JPG,AFNE01.JPG,AFNE01.JPG,AFNE01.JPG,AFNE01.JPG,AFNE01.JPG,,,,,0,6,6,2,,,,,,,,,,,,,,,,,,,AMNE07.jpg,AMSA03.jpg,AMNE05.jpg,AMSA02.jpg,AMNE05.jpg,MN,1,num_2,16,num_2,1.35006300942,,,2017_Sep_13_1635,60.0134163634,FEMA4ImagesEEG,001,101446,
AFNE01.JPG,AFNE01.JPG,AFNE01.JPG,AFNE01.JPG,AFNE01.JPG,AFNE01.JPG,,,,,0,7,7,9,,,,,,,,,,,,,,,,,,,AMNE09.jpg,AMNE14.jpg,AMSA05.jpg,AMSA13.jpg,AMNE09.jpg,MN,1,num_8,16,num_8,0.666751448996,,,2017_Sep_13_1635,60.0134163634,FEMA4ImagesEEG,001,101446,
AFNE01.JPG,AFNE01.JPG,AFNE01.JPG,AFNE01.JPG,AFNE01.JPG,AFNE01.JPG,,,,,0,8,8,6,,,,,,,,,,,,,,,,,,,AMNE09.jpg,AMSA09.jpg,AMNE05.jpg,AMSA03.jpg,AMSA03.jpg,MS,2,num_4,16,num_4,0.616830238607,,,2017_Sep_13_1635,60.0134163634,FEMA4ImagesEEG,001,101446,
AFNE01.JPG,AFNE01.JPG,AFNE01.JPG,AFNE01.JPG,AFNE01.JPG,AFNE01.JPG,,,,,0,9,9,7,,,,,,,,,,,,,,,,,,,AMSA03.jpg,AMNE05.jpg,AMNE13.jpg,AMSA16.jpg,AMNE05.jpg,MN,1,num_6,32,num_2,1.2167876442,,,2017_Sep_13_1635,60.0134163634,FEMA4ImagesEEG,001,101446,
AFNE01.JPG,AFNE01.JPG,AFNE01.JPG,AFNE01.JPG,AFNE01.JPG,AFNE01.JPG,,,,,1,0,10,3,,,,,,,,,,,,,,,,,,,AMSA04.jpg,AMSA02.jpg,AMNE19.jpg,AMNE03.jpg,AMNE03.jpg,MN,1,num_4,16,num_4,0.866814121371,,,2017_Sep_13_1635,60.0134163634,FEMA4ImagesEEG,001,101446,
AFNE01.JPG,AFNE01.JPG,AFNE01.JPG,AFNE01.JPG,AFNE01.JPG,AFNE01.JPG,,,,,1,1,11,8,,,,,,,,,,,,,,,,,,,AMSA13.jpg,AMSA04.jpg,AMNE19.jpg,AMNE14.jpg,AMSA04.jpg,MS,2,num_6,16,num_6,0.450156248407,,,2017_Sep_13_1635,60.0134163634,FEMA4ImagesEEG,001,101446,
AFNE01.JPG,AFNE01.JPG,AFNE01.JPG,AFNE01.JPG,AFNE01.JPG,AFNE01.JPG,,,,,1,2,12,9,,,,,,,,,,,,,,,,,,,AMSA20.jpg,AMSA13.jpg,AMNE12.jpg,AMNE11.jpg,AMSA13.jpg,MS,2,num_6,32,num_2,1.13340750965,,,2017_Sep_13_1635,60.0134163634,FEMA4ImagesEEG,001,101446,
AFNE01.JPG,AFNE01.JPG,AFNE01.JPG,AFNE01.JPG,AFNE01.JPG,AFNE01.JPG,,,,,1,3,13,6,,,,,,,,,,,,,,,,,,,AMNE10.jpg,AMNE06.jpg,AMSA16.jpg,AMSA13.jpg,AMSA13.jpg,MS,2,num_4,32,num_6,0.700080794515,,,2017_Sep_13_1635,60.0134163634,FEMA4ImagesEEG,001,101446,
AFNE01.JPG,AFNE01.JPG,AFNE01.JPG,AFNE01.JPG,AFNE01.JPG,AFNE01.JPG,,,,,1,4,14,4,,,,,,,,,,,,,,,,,,,AMSA07.jpg,AMSA08.jpg,AMNE09.jpg,AMNE02.jpg,AMSA08.jpg,MS,2,num_6,16,num_6,0.600211431505,,,2017_Sep_13_1635,60.0134163634,FEMA4ImagesEEG,001,101446,
AFNE01.JPG,AFNE01.JPG,AFNE01.JPG,AFNE01.JPG,AFNE01.JPG,AFNE01.JPG,,,,,1,5,15,1,,,,,,,,,,,,,,,,,,,AMNE05.jpg,AMNE08.jpg,AMSA16.jpg,AMSA20.jpg,AMSA20.jpg,MS,2,num_4,16,num_4,1.41659436654,,,2017_Sep_13_1635,60.0134163634,FEMA4ImagesEEG,001,101446,
AFNE01.JPG,AFNE01.JPG,AFNE01.JPG,AFNE01.JPG,AFNE01.JPG,AFNE01.JPG,,,,,1,6,16,7,,,,,,,,,,,,,,,,,,,AMNE09.jpg,AMSA10.jpg,AMSA01.jpg,AMNE14.jpg,AMSA01.jpg,MS,2,num_2,16,num_2,1.15042050579,,,2017_Sep_13_1635,60.0134163634,FEMA4ImagesEEG,001,101446,
AFNE01.JPG,AFNE01.JPG,AFNE01.JPG,AFNE01.JPG,AFNE01.JPG,AFNE01.JPG,,,,,1,7,17,0,,,,,,,,,,,,,,,,,,,AMNE12.jpg,AMNE20.jpg,AMSA07.jpg,AMSA03.jpg,AMNE12.jpg,MN,1,num_8,16,num_8,0.766799784498,,,2017_Sep_13_1635,60.0134163634,FEMA4ImagesEEG,001,101446,
AFNE01.JPG,AFNE01.JPG,AFNE01.JPG,AFNE01.JPG,AFNE01.JPG,AFNE01.JPG,,,,,1,8,18,2,,,,,,,,,,,,,,,,,,,AMNE09.jpg,AMSA04.jpg,AMSA15.jpg,AMNE14.jpg,AMNE14.jpg,MN,1,num_4,32,num_8,0.850165164797,,,2017_Sep_13_1635,60.0134163634,FEMA4ImagesEEG,001,101446,
AFNE01.JPG,AFNE01.JPG,AFNE01.JPG,AFNE01.JPG,AFNE01.JPG,AFNE01.JPG,,,,,1,9,19,5,,,,,,,,,,,,,,,,,,,AMNE04.jpg,AMSA08.jpg,AMNE07.jpg,AMSA09.jpg,AMNE07.jpg,MN,1,num_2,32,num_4,1.00015876605,,,2017_Sep_13_1635,60.0134163634,FEMA4ImagesEEG,001,101446,
AFNE01.JPG,AFNE01.JPG,AFNE01.JPG,AFNE01.JPG,AFNE01.JPG,AFNE01.JPG,,,,,2,0,20,8,,,,,,,,,,,,,,,,,,,AMSA01.jpg,AMSA07.jpg,AMNE19.jpg,AMNE05.jpg,AMSA07.jpg,MS,2,num_6,16,num_6,1.51682873117,,,2017_Sep_13_1635,60.0134163634,FEMA4ImagesEEG,001,101446,
AFNE01.JPG,AFNE01.JPG,AFNE01.JPG,AFNE01.JPG,AFNE01.JPG,AFNE01.JPG,,,,,2,1,21,9,,,,,,,,,,,,,,,,,,,AMNE14.jpg,AMNE06.jpg,AMSA16.jpg,AMSA04.jpg,AMSA04.jpg,MS,2,num_4,16,num_4,0.583439952461,,,2017_Sep_13_1635,60.0134163634,FEMA4ImagesEEG,001,101446,
AFNE01.JPG,AFNE01.JPG,AFNE01.JPG,AFNE01.JPG,AFNE01.JPG,AFNE01.JPG,,,,,2,2,22,5,,,,,,,,,,,,,,,,,,,AMSA11.jpg,AMNE03.jpg,AMNE19.jpg,AMSA01.jpg,AMNE03.jpg,MN,1,num_6,16,num_6,1.48344293539,,,2017_Sep_13_1635,60.0134163634,FEMA4ImagesEEG,001,101446,
AFNE01.JPG,AFNE01.JPG,AFNE01.JPG,AFNE01.JPG,AFNE01.JPG,AFNE01.JPG,,,,,2,3,23,6,,,,,,,,,,,,,,,,,,,AMNE07.jpg,AMSA06.jpg,AMNE14.jpg,AMSA05.jpg,AMNE14.jpg,MN,1,num_2,16,num_2,1.33341758093,,,2017_Sep_13_1635,60.0134163634,FEMA4ImagesEEG,001,101446,
AFNE01.JPG,AFNE01.JPG,AFNE01.JPG,AFNE01.JPG,AFNE01.JPG,AFNE01.JPG,,,,,2,4,24,3,,,,,,,,,,,,,,,,,,,AMSA09.jpg,AMNE20.jpg,AMSA04.jpg,AMNE10.jpg,AMNE20.jpg,MN,1,num_6,32,num_8,0.800080377376,,,2017_Sep_13_1635,60.0134163634,FEMA4ImagesEEG,001,101446,
AFNE01.JPG,AFNE01.JPG,AFNE01.JPG,AFNE01.JPG,AFNE01.JPG,AFNE01.JPG,,,,,2,5,25,0,,,,,,,,,,,,,,,,,,,AMNE19.jpg,AMSA13.jpg,AMSA07.jpg,AMNE17.jpg,AMNE19.jpg,MN,1,num_8,32,num_2,0.90011075139,,,2017_Sep_13_1635,60.0134163634,FEMA4ImagesEEG,001,101446,
AFNE01.JPG,AFNE01.JPG,AFNE01.JPG,AFNE01.JPG,AFNE01.JPG,AFNE01.JPG,,,,,2,6,26,1,,,,,,,,,,,,,,,,,,,AMNE08.jpg,AMNE19.jpg,AMSA08.jpg,AMSA04.jpg,AMNE19.jpg,MN,1,num_6,16,num_6,0.900148278102,,,2017_Sep_13_1635,60.0134163634,FEMA4ImagesEEG,001,101446,
AFNE01.JPG,AFNE01.JPG,AFNE01.JPG,AFNE01.JPG,AFNE01.JPG,AFNE01.JPG,,,,,2,7,27,7,,,,,,,,,,,,,,,,,,,AMSA03.jpg,AMNE02.jpg,AMNE17.jpg,AMSA17.jpg,AMNE02.jpg,MN,1,num_6,32,num_8,0.833451419137,,,2017_Sep_13_1635,60.0134163634,FEMA4ImagesEEG,001,101446,
AFNE01.JPG,AFNE01.JPG,AFNE01.JPG,AFNE01.JPG,AFNE01.JPG,AFNE01.JPG,,,,,2,8,28,4,,,,,,,,,,,,,,,,,,,AMSA17.jpg,AMNE18.jpg,AMSA05.jpg,AMNE01.jpg,AMSA05.jpg,MS,2,num_2,16,num_2,0.783559075324,,,2017_Sep_13_1635,60.0134163634,FEMA4ImagesEEG,001,101446,
AFNE01.JPG,AFNE01.JPG,AFNE01.JPG,AFNE01.JPG,AFNE01.JPG,AFNE01.JPG,,,,,2,9,29,2,,,,,,,,,,,,,,,,,,,AMSA10.jpg,AMNE06.jpg,AMSA15.jpg,AMNE16.jpg,AMSA15.jpg,MS,2,num_2,32,num_4,1.61667371751,,,2017_Sep_13_1635,60.0134163634,FEMA4ImagesEEG,001,101446,
AFNE01.JPG,AFNE01.JPG,AFNE01.JPG,AFNE01.JPG,AFNE01.JPG,AFNE01.JPG,,,,,3,0,30,4,,,,,,,,,,,,,,,,,,,AMSA17.jpg,AMNE12.jpg,AMNE15.jpg,AMSA06.jpg,AMSA17.jpg,MS,2,num_8,16,num_8,0.816626697313,,,2017_Sep_13_1635,60.0134163634,FEMA4ImagesEEG,001,101446,
AFNE01.JPG,AFNE01.JPG,AFNE01.JPG,AFNE01.JPG,AFNE01.JPG,AFNE01.JPG,,,,,3,1,31,2,,,,,,,,,,,,,,,,,,,AMNE06.jpg,AMSA06.jpg,AMNE03.jpg,AMSA19.jpg,AMNE06.jpg,MN,1,num_8,32,num_2,0.616754864808,,,2017_Sep_13_1635,60.0134163634,FEMA4ImagesEEG,001,101446,
AFNE01.JPG,AFNE01.JPG,AFNE01.JPG,AFNE01.JPG,AFNE01.JPG,AFNE01.JPG,,,,,3,2,32,7,,,,,,,,,,,,,,,,,,,AMSA10.jpg,AMNE11.jpg,AMNE05.jpg,AMSA13.jpg,AMSA13.jpg,MS,2,num_4,32,num_8,0.650141943246,,,2017_Sep_13_1635,60.0134163634,FEMA4ImagesEEG,001,101446,
AFNE01.JPG,AFNE01.JPG,AFNE01.JPG,AFNE01.JPG,AFNE01.JPG,AFNE01.JPG,,,,,3,3,33,5,,,,,,,,,,,,,,,,,,,AMNE20.jpg,AMSA15.jpg,AMSA17.jpg,AMNE06.jpg,AMNE20.jpg,MN,1,num_8,16,num_8,0.950010793051,,,2017_Sep_13_1635,60.0134163634,FEMA4ImagesEEG,001,101446,
AFNE01.JPG,AFNE01.JPG,AFNE01.JPG,AFNE01.JPG,AFNE01.JPG,AFNE01.JPG,,,,,3,4,34,0,,,,,,,,,,,,,,,,,,,AMNE15.jpg,AMSA20.jpg,AMSA05.jpg,AMNE02.jpg,AMSA05.jpg,MS,2,num_2,32,num_4,1.01678334642,,,2017_Sep_13_1635,60.0134163634,FEMA4ImagesEEG,001,101446,
AFNE01.JPG,AFNE01.JPG,AFNE01.JPG,AFNE01.JPG,AFNE01.JPG,AFNE01.JPG,,,,,3,5,35,8,,,,,,,,,,,,,,,,,,,AMSA07.jpg,AMNE14.jpg,AMSA03.jpg,AMNE05.jpg,AMSA03.jpg,MS,2,num_2,16,num_2,0.733429705026,,,2017_Sep_13_1635,60.0134163634,FEMA4ImagesEEG,001,101446,
AFNE01.JPG,AFNE01.JPG,AFNE01.JPG,AFNE01.JPG,AFNE01.JPG,AFNE01.JPG,,,,,3,6,36,6,,,,,,,,,,,,,,,,,,,AMNE10.jpg,AMSA13.jpg,AMSA16.jpg,AMNE12.jpg,AMNE12.jpg,MN,1,num_4,32,num_8,0.850154901156,,,2017_Sep_13_1635,60.0134163634,FEMA4ImagesEEG,001,101446,
AFNE01.JPG,AFNE01.JPG,AFNE01.JPG,AFNE01.JPG,AFNE01.JPG,AFNE01.JPG,,,,,3,7,37,1,,,,,,,,,,,,,,,,,,,AMNE04.jpg,AMNE08.jpg,AMSA12.jpg,AMSA03.jpg,AMSA03.jpg,MS,2,num_4,32,num_2,0.416805413319,,,2017_Sep_13_1635,60.0134163634,FEMA4ImagesEEG,001,101446,
AFNE01.JPG,AFNE01.JPG,AFNE01.JPG,AFNE01.JPG,AFNE01.JPG,AFNE01.JPG,,,,,3,8,38,3,,,,,,,,,,,,,,,,,,,AMNE11.jpg,AMSA01.jpg,AMSA03.jpg,AMNE05.jpg,AMNE05.jpg,MN,1,num_4,16,num_4,0.750022852793,,,2017_Sep_13_1635,60.0134163634,FEMA4ImagesEEG,001,101446,
AFNE01.JPG,AFNE01.JPG,AFNE01.JPG,AFNE01.JPG,AFNE01.JPG,AFNE01.JPG,,,,,3,9,39,9,,,,,,,,,,,,,,,,,,,AMNE10.jpg,AMNE12.jpg,AMSA08.jpg,AMSA10.jpg,AMSA10.jpg,MS,2,num_4,32,num_6,1.61672631884,,,2017_Sep_13_1635,60.0134163634,FEMA4ImagesEEG,001,101446,
AFNE01.JPG,AFNE01.JPG,AFNE01.JPG,AFNE01.JPG,AFNE01.JPG,AFNE01.JPG,,,,,4,0,40,5,,,,,,,,,,,,,,,,,,,AMNE01.jpg,AMSA02.jpg,AMSA05.jpg,AMNE14.jpg,AMSA05.jpg,MS,2,num_2,32,num_4,1.4500904968,,,2017_Sep_13_1635,60.0134163634,FEMA4ImagesEEG,001,101446,
AFNE01.JPG,AFNE01.JPG,AFNE01.JPG,AFNE01.JPG,AFNE01.JPG,AFNE01.JPG,,,,,4,1,41,6,,,,,,,,,,,,,,,,,,,AMSA02.jpg,AMSA13.jpg,AMNE04.jpg,AMNE09.jpg,AMSA13.jpg,MS,2,num_6,16,num_6,0.616798806004,,,2017_Sep_13_1635,60.0134163634,FEMA4ImagesEEG,001,101446,
AFNE01.JPG,AFNE01.JPG,AFNE01.JPG,AFNE01.JPG,AFNE01.JPG,AFNE01.JPG,,,,,4,2,42,4,,,,,,,,,,,,,,,,,,,AMSA07.jpg,AMNE03.jpg,AMSA17.jpg,AMNE12.jpg,AMNE12.jpg,MN,1,num_4,32,num_8,0.633499081014,,,2017_Sep_13_1635,60.0134163634,FEMA4ImagesEEG,001,101446,
AFNE01.JPG,AFNE01.JPG,AFNE01.JPG,AFNE01.JPG,AFNE01.JPG,AFNE01.JPG,,,,,4,3,43,7,,,,,,,,,,,,,,,,,,,AMNE18.jpg,AMNE12.jpg,AMSA05.jpg,AMSA11.jpg,AMNE18.jpg,MN,1,num_8,32,num_4,0.666658754926,,,2017_Sep_13_1635,60.0134163634,FEMA4ImagesEEG,001,101446,
AFNE01.JPG,AFNE01.JPG,AFNE01.JPG,AFNE01.JPG,AFNE01.JPG,AFNE01.JPG,,,,,4,4,44,8,,,,,,,,,,,,,,,,,,,AMSA07.jpg,AMSA17.jpg,AMNE11.jpg,AMNE04.jpg,AMNE04.jpg,MN,1,num_4,16,num_4,1.18347144919,,,2017_Sep_13_1635,60.0134163634,FEMA4ImagesEEG,001,101446,
AFNE01.JPG,AFNE01.JPG,AFNE01.JPG,AFNE01.JPG,AFNE01.JPG,AFNE01.JPG,,,,,4,5,45,0,,,,,,,,,,,,,,,,,,,AMNE16.jpg,AMNE10.jpg,AMSA20.jpg,AMSA11.jpg,AMSA20.jpg,MS,2,num_2,16,num_2,1.23345071333,,,2017_Sep_13_1635,60.0134163634,FEMA4ImagesEEG,001,101446,
AFNE01.JPG,AFNE01.JPG,AFNE01.JPG,AFNE01.JPG,AFNE01.JPG,AFNE01.JPG,,,,,4,6,46,1,,,,,,,,,,,,,,,,,,,AMNE08.jpg,AMNE03.jpg,AMSA05.jpg,AMSA03.jpg,AMSA03.jpg,MS,2,num_4,16,num_4,0.86676568957,,,2017_Sep_13_1635,60.0134163634,FEMA4ImagesEEG,001,101446,
AFNE01.JPG,AFNE01.JPG,AFNE01.JPG,AFNE01.JPG,AFNE01.JPG,AFNE01.JPG,,,,,4,7,47,9,,,,,,,,,,,,,,,,,,,AMNE09.jpg,AMSA04.jpg,AMNE03.jpg,AMSA03.jpg,AMSA04.jpg,MS,2,num_6,16,num_6,0.65016760258,,,2017_Sep_13_1635,60.0134163634,FEMA4ImagesEEG,001,101446,
AFNE01.JPG,AFNE01.JPG,AFNE01.JPG,AFNE01.JPG,AFNE01.JPG,AFNE01.JPG,,,,,4,8,48,3,,,,,,,,,,,,,,,,,,,AMNE12.jpg,AMSA12.jpg,AMSA19.jpg,AMNE17.jpg,AMSA12.jpg,MS,2,num_6,32,num_4,0.767037773272,,,2017_Sep_13_1635,60.0134163634,FEMA4ImagesEEG,001,101446,
AFNE01.JPG,AFNE01.JPG,AFNE01.JPG,AFNE01.JPG,AFNE01.JPG,AFNE01.JPG,,,,,4,9,49,2,,,,,,,,,,,,,,,,,,,AMNE03.jpg,AMNE08.jpg,AMSA20.jpg,AMSA08.jpg,AMNE08.jpg,MN,1,num_6,32,num_4,0.800110847689,,,2017_Sep_13_1635,60.0134163634,FEMA4ImagesEEG,001,101446,
AFNE01.JPG,AFNE01.JPG,AFNE01.JPG,AFNE01.JPG,AFNE01.JPG,AFNE01.JPG,,,,,5,0,50,5,,,,,,,,,,,,,,,,,,,AMNE15.jpg,AMSA14.jpg,AMNE16.jpg,AMSA18.jpg,AMSA18.jpg,MS,2,num_4,16,num_4,0.73348070262,,,2017_Sep_13_1635,60.0134163634,FEMA4ImagesEEG,001,101446,
AFNE01.JPG,AFNE01.JPG,AFNE01.JPG,AFNE01.JPG,AFNE01.JPG,AFNE01.JPG,,,,,5,1,51,7,,,,,,,,,,,,,,,,,,,AMSA09.jpg,AMNE08.jpg,AMSA03.jpg,AMNE12.jpg,AMSA03.jpg,MS,2,num_2,32,num_8,0.683414197061,,,2017_Sep_13_1635,60.0134163634,FEMA4ImagesEEG,001,101446,
AFNE01.JPG,AFNE01.JPG,AFNE01.JPG,AFNE01.JPG,AFNE01.JPG,AFNE01.JPG,,,,,5,2,52,6,,,,,,,,,,,,,,,,,,,AMNE01.jpg,AMNE08.jpg,AMSA06.jpg,AMSA02.jpg,AMSA06.jpg,MS,2,num_2,16,num_2,0.783348028548,,,2017_Sep_13_1635,60.0134163634,FEMA4ImagesEEG,001,101446,
AFNE01.JPG,AFNE01.JPG,AFNE01.JPG,AFNE01.JPG,AFNE01.JPG,AFNE01.JPG,,,,,5,3,53,3,,,,,,,,,,,,,,,,,,,AMNE20.jpg,AMSA02.jpg,AMSA05.jpg,AMNE14.jpg,AMSA02.jpg,MS,2,num_6,16,num_6,0.500123324571,,,2017_Sep_13_1635,60.0134163634,FEMA4ImagesEEG,001,101446,
AFNE01.JPG,AFNE01.JPG,AFNE01.JPG,AFNE01.JPG,AFNE01.JPG,AFNE01.JPG,,,,,5,4,54,0,,,,,,,,,,,,,,,,,,,AMSA03.jpg,AMNE06.jpg,AMSA07.jpg,AMNE07.jpg,AMNE07.jpg,MN,1,num_4,16,num_4,0.950462394394,,,2017_Sep_13_1635,60.0134163634,FEMA4ImagesEEG,001,101446,
AFNE01.JPG,AFNE01.JPG,AFNE01.JPG,AFNE01.JPG,AFNE01.JPG,AFNE01.JPG,,,,,5,5,55,1,,,,,,,,,,,,,,,,,,,AMSA12.jpg,AMSA20.jpg,AMNE18.jpg,AMNE15.jpg,AMNE18.jpg,MN,1,num_2,16,num_2,0.816839989042,,,2017_Sep_13_1635,60.0134163634,FEMA4ImagesEEG,001,101446,
AFNE01.JPG,AFNE01.JPG,AFNE01.JPG,AFNE01.JPG,AFNE01.JPG,AFNE01.JPG,,,,,5,6,56,2,,,,,,,,,,,,,,,,,,,AMNE13.jpg,AMSA08.jpg,AMNE20.jpg,AMSA18.jpg,AMNE13.jpg,MN,1,num_8,32,num_4,0.800070755184,,,2017_Sep_13_1635,60.0134163634,FEMA4ImagesEEG,001,101446,
AFNE01.JPG,AFNE01.JPG,AFNE01.JPG,AFNE01.JPG,AFNE01.JPG,AFNE01.JPG,,,,,5,7,57,8,,,,,,,,,,,,,,,,,,,AMNE06.jpg,AMNE20.jpg,AMSA17.jpg,AMSA03.jpg,AMNE06.jpg,MN,1,num_8,16,num_8,0.800097055733,,,2017_Sep_13_1635,60.0134163634,FEMA4ImagesEEG,001,101446,
AFNE01.JPG,AFNE01.JPG,AFNE01.JPG,AFNE01.JPG,AFNE01.JPG,AFNE01.JPG,,,,,5,8,58,4,,,,,,,,,,,,,,,,,,,AMSA16.jpg,AMSA02.jpg,AMNE01.jpg,AMNE12.jpg,AMSA02.jpg,MS,2,num_6,32,num_2,0.816790274344,,,2017_Sep_13_1635,60.0134163634,FEMA4ImagesEEG,001,101446,
AFNE01.JPG,AFNE01.JPG,AFNE01.JPG,AFNE01.JPG,AFNE01.JPG,AFNE01.JPG,,,,,5,9,59,9,,,,,,,,,,,,,,,,,,,AMSA13.jpg,AMSA17.jpg,AMNE03.jpg,AMNE11.jpg,AMNE03.jpg,MN,1,num_2,16,num_2,0.950433527818,,,2017_Sep_13_1635,60.0134163634,FEMA4ImagesEEG,001,101446,
,,,,,,,,,,,,,,,,,,,,,,,,,,,,,,,,,,,,,,,,,,,space,79.1274016588,2017_Sep_13_1635,60.0134163634,FEMA4ImagesEEG,001,101446,
AFNE01.JPG,AFNE01.JPG,AFNE01.JPG,AFNE01.JPG,AFNE01.JPG,AFNE01.JPG,,,,,,,,,0,0,0,8,,,,,,,,,,,,,,,AFNE18.jpg,AFSA10.jpg,AFSA06.jpg,AFNE15.jpg,AFSA10.jpg,FS,4,num_6,32,num_8,0.700108057121,,,2017_Sep_13_1635,60.0134163634,FEMA4ImagesEEG,001,101446,
AFNE01.JPG,AFNE01.JPG,AFNE01.JPG,AFNE01.JPG,AFNE01.JPG,AFNE01.JPG,,,,,,,,,0,1,1,4,,,,,,,,,,,,,,,AFSA10.jpg,AFNE16.jpg,AFNE10.jpg,AFSA01.jpg,AFNE16.jpg,FN,3,num_6,32,num_2,0.983413908398,,,2017_Sep_13_1635,60.0134163634,FEMA4ImagesEEG,001,101446,
AFNE01.JPG,AFNE01.JPG,AFNE01.JPG,AFNE01.JPG,AFNE01.JPG,AFNE01.JPG,,,,,,,,,0,2,2,1,,,,,,,,,,,,,,,AFNE02.jpg,AFNE12.jpg,AFSA09.jpg,AFSA16.jpg,AFNE02.jpg,FN,3,num_8,32,num_4,0.966902870219,,,2017_Sep_13_1635,60.0134163634,FEMA4ImagesEEG,001,101446,
AFNE01.JPG,AFNE01.JPG,AFNE01.JPG,AFNE01.JPG,AFNE01.JPG,AFNE01.JPG,,,,,,,,,0,3,3,7,,,,,,,,,,,,,,,AFNE17.jpg,AFNE20.jpg,AFSA06.jpg,AFSA04.jpg,AFNE20.jpg,FN,3,num_6,32,num_8,0.983407493681,,,2017_Sep_13_1635,60.0134163634,FEMA4ImagesEEG,001,101446,
AFNE01.JPG,AFNE01.JPG,AFNE01.JPG,AFNE01.JPG,AFNE01.JPG,AFNE01.JPG,,,,,,,,,0,4,4,0,,,,,,,,,,,,,,,AFNE18.jpg,AFNE09.jpg,AFSA17.jpg,AFSA01.jpg,AFSA01.jpg,FS,4,num_4,32,num_2,0.883441588376,,,2017_Sep_13_1635,60.0134163634,FEMA4ImagesEEG,001,101446,
AFNE01.JPG,AFNE01.JPG,AFNE01.JPG,AFNE01.JPG,AFNE01.JPG,AFNE01.JPG,,,,,,,,,0,5,5,2,,,,,,,,,,,,,,,AFSA09.jpg,AFNE01.jpg,AFSA06.jpg,AFNE14.jpg,AFNE14.jpg,FN,3,num_4,32,num_6,1.13341905642,,,2017_Sep_13_1635,60.0134163634,FEMA4ImagesEEG,001,101446,
AFNE01.JPG,AFNE01.JPG,AFNE01.JPG,AFNE01.JPG,AFNE01.JPG,AFNE01.JPG,,,,,,,,,0,6,6,5,,,,,,,,,,,,,,,AFSA16.jpg,AFSA04.jpg,AFNE19.jpg,AFNE18.jpg,AFNE19.jpg,FN,3,num_2,16,num_2,0.749994306825,,,2017_Sep_13_1635,60.0134163634,FEMA4ImagesEEG,001,101446,
AFNE01.JPG,AFNE01.JPG,AFNE01.JPG,AFNE01.JPG,AFNE01.JPG,AFNE01.JPG,,,,,,,,,0,7,7,9,,,,,,,,,,,,,,,AFNE07.jpg,AFSA20.jpg,AFSA14.jpg,AFNE06.jpg,AFNE07.jpg,FN,3,num_8,16,num_8,1.38343533385,,,2017_Sep_13_1635,60.0134163634,FEMA4ImagesEEG,001,101446,
AFNE01.JPG,AFNE01.JPG,AFNE01.JPG,AFNE01.JPG,AFNE01.JPG,AFNE01.JPG,,,,,,,,,0,8,8,3,,,,,,,,,,,,,,,AFNE09.jpg,AFSA15.jpg,AFSA14.jpg,AFNE08.jpg,AFNE08.jpg,FN,3,num_4,16,num_4,0.800721535925,,,2017_Sep_13_1635,60.0134163634,FEMA4ImagesEEG,001,101446,
AFNE01.JPG,AFNE01.JPG,AFNE01.JPG,AFNE01.JPG,AFNE01.JPG,AFNE01.JPG,,,,,,,,,0,9,9,6,,,,,,,,,,,,,,,AFNE07.jpg,AFNE05.jpg,AFSA10.jpg,AFSA20.jpg,AFNE05.jpg,FN,3,num_6,32,num_8,0.300173231633,,,2017_Sep_13_1635,60.0134163634,FEMA4ImagesEEG,001,101446,
AFNE01.JPG,AFNE01.JPG,AFNE01.JPG,AFNE01.JPG,AFNE01.JPG,AFNE01.JPG,,,,,,,,,1,0,10,6,,,,,,,,,,,,,,,AFSA09.jpg,AFNE11.jpg,AFNE17.jpg,AFSA02.jpg,AFNE17.jpg,FN,3,num_2,32,num_6,0.316769266035,,,2017_Sep_13_1635,60.0134163634,FEMA4ImagesEEG,001,101446,
AFNE01.JPG,AFNE01.JPG,AFNE01.JPG,AFNE01.JPG,AFNE01.JPG,AFNE01.JPG,,,,,,,,,1,1,11,7,,,,,,,,,,,,,,,AFSA14.jpg,AFSA10.jpg,AFNE11.jpg,AFNE17.jpg,AFSA10.jpg,FS,4,num_6,16,num_6,0.800150940195,,,2017_Sep_13_1635,60.0134163634,FEMA4ImagesEEG,001,101446,
AFNE01.JPG,AFNE01.JPG,AFNE01.JPG,AFNE01.JPG,AFNE01.JPG,AFNE01.JPG,,,,,,,,,1,2,12,8,,,,,,,,,,,,,,,AFSA09.jpg,AFNE18.jpg,AFSA13.jpg,AFNE12.jpg,AFSA09.jpg,FS,4,num_8,32,num_4,2.26653693803,,,2017_Sep_13_1635,60.0134163634,FEMA4ImagesEEG,001,101446,
AFNE01.JPG,AFNE01.JPG,AFNE01.JPG,AFNE01.JPG,AFNE01.JPG,AFNE01.JPG,,,,,,,,,1,3,13,4,,,,,,,,,,,,,,,AFNE08.jpg,AFNE07.jpg,AFSA13.jpg,AFSA02.jpg,AFSA13.jpg,FS,4,num_2,32,num_4,0.833487021271,,,2017_Sep_13_1635,60.0134163634,FEMA4ImagesEEG,001,101446,
AFNE01.JPG,AFNE01.JPG,AFNE01.JPG,AFNE01.JPG,AFNE01.JPG,AFNE01.JPG,,,,,,,,,1,4,14,3,,,,,,,,,,,,,,,AFNE08.jpg,AFSA02.jpg,AFNE10.jpg,AFSA19.jpg,AFNE08.jpg,FN,3,num_8,32,num_2,0.816870138748,,,2017_Sep_13_1635,60.0134163634,FEMA4ImagesEEG,001,101446,
AFNE01.JPG,AFNE01.JPG,AFNE01.JPG,AFNE01.JPG,AFNE01.JPG,AFNE01.JPG,,,,,,,,,1,5,15,5,,,,,,,,,,,,,,,AFNE09.jpg,AFSA02.jpg,AFSA11.jpg,AFNE08.jpg,AFNE08.jpg,FN,3,num_4,32,num_8,0.78349171998,,,2017_Sep_13_1635,60.0134163634,FEMA4ImagesEEG,001,101446,
AFNE01.JPG,AFNE01.JPG,AFNE01.JPG,AFNE01.JPG,AFNE01.JPG,AFNE01.JPG,,,,,,,,,1,6,16,2,,,,,,,,,,,,,,,AFSA04.jpg,AFNE08.jpg,AFSA18.jpg,AFNE12.jpg,AFNE08.jpg,FN,3,num_6,32,num_4,0.666789937764,,,2017_Sep_13_1635,60.0134163634,FEMA4ImagesEEG,001,101446,
AFNE01.JPG,AFNE01.JPG,AFNE01.JPG,AFNE01.JPG,AFNE01.JPG,AFNE01.JPG,,,,,,,,,1,7,17,1,,,,,,,,,,,,,,,AFSA14.jpg,AFSA03.jpg,AFNE10.jpg,AFNE14.jpg,AFNE10.jpg,FN,3,num_2,32,num_4,1.21674113721,,,2017_Sep_13_1635,60.0134163634,FEMA4ImagesEEG,001,101446,
AFNE01.JPG,AFNE01.JPG,AFNE01.JPG,AFNE01.JPG,AFNE01.JPG,AFNE01.JPG,,,,,,,,,1,8,18,0,,,,,,,,,,,,,,,AFNE17.jpg,AFSA05.jpg,AFNE14.jpg,AFSA07.jpg,AFNE17.jpg,FN,3,num_8,32,num_6,0.716759579489,,,2017_Sep_13_1635,60.0134163634,FEMA4ImagesEEG,001,101446,
AFNE01.JPG,AFNE01.JPG,AFNE01.JPG,AFNE01.JPG,AFNE01.JPG,AFNE01.JPG,,,,,,,,,1,9,19,9,,,,,,,,,,,,,,,AFNE14.jpg,AFSA15.jpg,AFNE12.jpg,AFSA09.jpg,AFNE12.jpg,FN,3,num_2,32,num_4,0.633502288256,,,2017_Sep_13_1635,60.0134163634,FEMA4ImagesEEG,001,101446,
AFNE01.JPG,AFNE01.JPG,AFNE01.JPG,AFNE01.JPG,AFNE01.JPG,AFNE01.JPG,,,,,,,,,2,0,20,1,,,,,,,,,,,,,,,AFSA01.jpg,AFNE11.jpg,AFNE09.jpg,AFSA09.jpg,AFNE11.jpg,FN,3,num_6,32,num_8,1.11664501135,,,2017_Sep_13_1635,60.0134163634,FEMA4ImagesEEG,001,101446,
AFNE01.JPG,AFNE01.JPG,AFNE01.JPG,AFNE01.JPG,AFNE01.JPG,AFNE01.JPG,,,,,,,,,2,1,21,0,,,,,,,,,,,,,,,AFNE18.jpg,AFNE07.jpg,AFSA04.jpg,AFSA20.jpg,AFSA20.jpg,FS,4,num_4,16,num_4,0.76677637035,,,2017_Sep_13_1635,60.0134163634,FEMA4ImagesEEG,001,101446,
AFNE01.JPG,AFNE01.JPG,AFNE01.JPG,AFNE01.JPG,AFNE01.JPG,AFNE01.JPG,,,,,,,,,2,2,22,5,,,,,,,,,,,,,,,AFNE16.jpg,AFNE11.jpg,AFSA13.jpg,AFSA14.jpg,AFNE11.jpg,FN,3,num_6,16,num_6,0.583376125433,,,2017_Sep_13_1635,60.0134163634,FEMA4ImagesEEG,001,101446,
AFNE01.JPG,AFNE01.JPG,AFNE01.JPG,AFNE01.JPG,AFNE01.JPG,AFNE01.JPG,,,,,,,,,2,3,23,7,,,,,,,,,,,,,,,AFSA13.jpg,AFNE01.jpg,AFNE06.jpg,AFSA19.jpg,AFSA19.jpg,FS,4,num_4,32,num_8,0.80017916509,,,2017_Sep_13_1635,60.0134163634,FEMA4ImagesEEG,001,101446,
AFNE01.JPG,AFNE01.JPG,AFNE01.JPG,AFNE01.JPG,AFNE01.JPG,AFNE01.JPG,,,,,,,,,2,4,24,8,,,,,,,,,,,,,,,AFNE01.jpg,AFSA17.jpg,AFNE07.jpg,AFSA01.jpg,AFNE07.jpg,FN,3,num_2,16,num_2,0.400185964769,,,2017_Sep_13_1635,60.0134163634,FEMA4ImagesEEG,001,101446,
AFNE01.JPG,AFNE01.JPG,AFNE01.JPG,AFNE01.JPG,AFNE01.JPG,AFNE01.JPG,,,,,,,,,2,5,25,4,,,,,,,,,,,,,,,AFSA04.jpg,AFNE08.jpg,AFSA12.jpg,AFNE12.jpg,AFSA12.jpg,FS,4,num_2,16,num_2,0.616799447685,,,2017_Sep_13_1635,60.0134163634,FEMA4ImagesEEG,001,101446,
AFNE01.JPG,AFNE01.JPG,AFNE01.JPG,AFNE01.JPG,AFNE01.JPG,AFNE01.JPG,,,,,,,,,2,6,26,6,,,,,,,,,,,,,,,AFSA11.jpg,AFSA16.jpg,AFNE05.jpg,AFNE20.jpg,AFNE20.jpg,FN,3,num_4,16,num_4,0.916846307693,,,2017_Sep_13_1635,60.0134163634,FEMA4ImagesEEG,001,101446,
AFNE01.JPG,AFNE01.JPG,AFNE01.JPG,AFNE01.JPG,AFNE01.JPG,AFNE01.JPG,,,,,,,,,2,7,27,2,,,,,,,,,,,,,,,AFNE18.jpg,AFNE02.jpg,AFSA03.jpg,AFSA07.jpg,AFSA07.jpg,FS,4,num_4,32,num_2,0.966734802583,,,2017_Sep_13_1635,60.0134163634,FEMA4ImagesEEG,001,101446,
AFNE01.JPG,AFNE01.JPG,AFNE01.JPG,AFNE01.JPG,AFNE01.JPG,AFNE01.JPG,,,,,,,,,2,8,28,9,,,,,,,,,,,,,,,AFNE01.jpg,AFSA12.jpg,AFNE16.jpg,AFSA02.jpg,AFNE16.jpg,FN,3,num_2,32,num_8,1.03347688564,,,2017_Sep_13_1635,60.0134163634,FEMA4ImagesEEG,001,101446,
AFNE01.JPG,AFNE01.JPG,AFNE01.JPG,AFNE01.JPG,AFNE01.JPG,AFNE01.JPG,,,,,,,,,2,9,29,3,,,,,,,,,,,,,,,AFSA01.jpg,AFNE19.jpg,AFSA20.jpg,AFNE04.jpg,AFSA01.jpg,FS,4,num_8,32,num_2,1.05012648366,,,2017_Sep_13_1635,60.0134163634,FEMA4ImagesEEG,001,101446,
AFNE01.JPG,AFNE01.JPG,AFNE01.JPG,AFNE01.JPG,AFNE01.JPG,AFNE01.JPG,,,,,,,,,3,0,30,4,,,,,,,,,,,,,,,AFSA13.jpg,AFNE07.jpg,AFNE17.jpg,AFSA01.jpg,AFNE07.jpg,FN,3,num_6,16,num_6,1.05006329808,,,2017_Sep_13_1635,60.0134163634,FEMA4ImagesEEG,001,101446,
AFNE01.JPG,AFNE01.JPG,AFNE01.JPG,AFNE01.JPG,AFNE01.JPG,AFNE01.JPG,,,,,,,,,3,1,31,5,,,,,,,,,,,,,,,AFSA01.jpg,AFNE15.jpg,AFSA07.jpg,AFNE16.jpg,AFNE15.jpg,FN,3,num_6,16,num_6,0.850148807047,,,2017_Sep_13_1635,60.0134163634,FEMA4ImagesEEG,001,101446,
AFNE01.JPG,AFNE01.JPG,AFNE01.JPG,AFNE01.JPG,AFNE01.JPG,AFNE01.JPG,,,,,,,,,3,2,32,9,,,,,,,,,,,,,,,AFNE13.jpg,AFSA17.jpg,AFNE14.jpg,AFSA05.jpg,AFNE14.jpg,FN,3,num_2,32,num_8,1.45011968398,,,2017_Sep_13_1635,60.0134163634,FEMA4ImagesEEG,001,101446,
AFNE01.JPG,AFNE01.JPG,AFNE01.JPG,AFNE01.JPG,AFNE01.JPG,AFNE01.JPG,,,,,,,,,3,3,33,2,,,,,,,,,,,,,,,AFNE07.jpg,AFSA01.jpg,AFNE14.jpg,AFSA06.jpg,AFNE14.jpg,FN,3,num_2,16,num_2,1.05007965583,,,2017_Sep_13_1635,60.0134163634,FEMA4ImagesEEG,001,101446,
AFNE01.JPG,AFNE01.JPG,AFNE01.JPG,AFNE01.JPG,AFNE01.JPG,AFNE01.JPG,,,,,,,,,3,4,34,0,,,,,,,,,,,,,,,AFSA04.jpg,AFSA11.jpg,AFNE11.jpg,AFNE14.jpg,AFSA04.jpg,FS,4,num_8,32,num_4,0.850289611844,,,2017_Sep_13_1635,60.0134163634,FEMA4ImagesEEG,001,101446,
AFNE01.JPG,AFNE01.JPG,AFNE01.JPG,AFNE01.JPG,AFNE01.JPG,AFNE01.JPG,,,,,,,,,3,5,35,7,,,,,,,,,,,,,,,AFNE05.jpg,AFSA05.jpg,AFNE11.jpg,AFSA12.jpg,AFSA05.jpg,FS,4,num_6,16,num_6,0.433485481655,,,2017_Sep_13_1635,60.0134163634,FEMA4ImagesEEG,001,101446,
AFNE01.JPG,AFNE01.JPG,AFNE01.JPG,AFNE01.JPG,AFNE01.JPG,AFNE01.JPG,,,,,,,,,3,6,36,1,,,,,,,,,,,,,,,AFSA20.jpg,AFNE07.jpg,AFNE17.jpg,AFSA16.jpg,AFNE07.jpg,FN,3,num_6,32,num_8,1.1167268001,,,2017_Sep_13_1635,60.0134163634,FEMA4ImagesEEG,001,101446,
AFNE01.JPG,AFNE01.JPG,AFNE01.JPG,AFNE01.JPG,AFNE01.JPG,AFNE01.JPG,,,,,,,,,3,7,37,8,,,,,,,,,,,,,,,AFSA06.jpg,AFNE17.jpg,AFSA15.jpg,AFNE18.jpg,AFNE18.jpg,FN,3,num_4,32,num_8,0.733484551543,,,2017_Sep_13_1635,60.0134163634,FEMA4ImagesEEG,001,101446,
AFNE01.JPG,AFNE01.JPG,AFNE01.JPG,AFNE01.JPG,AFNE01.JPG,AFNE01.JPG,,,,,,,,,3,8,38,6,,,,,,,,,,,,,,,AFNE09.jpg,AFSA01.jpg,AFNE19.jpg,AFSA02.jpg,AFSA02.jpg,FS,4,num_4,16,num_4,0.783472475596,,,2017_Sep_13_1635,60.0134163634,FEMA4ImagesEEG,001,101446,
AFNE01.JPG,AFNE01.JPG,AFNE01.JPG,AFNE01.JPG,AFNE01.JPG,AFNE01.JPG,,,,,,,,,3,9,39,3,,,,,,,,,,,,,,,AFSA20.jpg,AFSA01.jpg,AFNE18.jpg,AFNE10.jpg,AFNE10.jpg,FN,3,num_4,16,num_4,0.650189091917,,,2017_Sep_13_1635,60.0134163634,FEMA4ImagesEEG,001,101446,
AFNE01.JPG,AFNE01.JPG,AFNE01.JPG,AFNE01.JPG,AFNE01.JPG,AFNE01.JPG,,,,,,,,,4,0,40,5,,,,,,,,,,,,,,,AFSA17.jpg,AFNE05.jpg,AFNE01.jpg,AFSA15.jpg,AFSA15.jpg,FS,4,num_4,16,num_4,1.13341552811,,,2017_Sep_13_1635,60.0134163634,FEMA4ImagesEEG,001,101446,
AFNE01.JPG,AFNE01.JPG,AFNE01.JPG,AFNE01.JPG,AFNE01.JPG,AFNE01.JPG,,,,,,,,,4,1,41,8,,,,,,,,,,,,,,,AFSA04.jpg,AFSA12.jpg,AFNE03.jpg,AFNE10.jpg,AFNE10.jpg,FN,3,num_4,32,num_6,0.783505191095,,,2017_Sep_13_1635,60.0134163634,FEMA4ImagesEEG,001,101446,
AFNE01.JPG,AFNE01.JPG,AFNE01.JPG,AFNE01.JPG,AFNE01.JPG,AFNE01.JPG,,,,,,,,,4,2,42,2,,,,,,,,,,,,,,,AFSA02.jpg,AFSA08.jpg,AFNE13.jpg,AFNE07.jpg,AFSA08.jpg,FS,4,num_6,32,num_2,1.0001154663,,,2017_Sep_13_1635,60.0134163634,FEMA4ImagesEEG,001,101446,
AFNE01.JPG,AFNE01.JPG,AFNE01.JPG,AFNE01.JPG,AFNE01.JPG,AFNE01.JPG,,,,,,,,,4,3,43,0,,,,,,,,,,,,,,,AFNE07.jpg,AFSA13.jpg,AFNE01.jpg,AFSA12.jpg,AFSA13.jpg,FS,4,num_6,16,num_6,0.716851311037,,,2017_Sep_13_1635,60.0134163634,FEMA4ImagesEEG,001,101446,
AFNE01.JPG,AFNE01.JPG,AFNE01.JPG,AFNE01.JPG,AFNE01.JPG,AFNE01.JPG,,,,,,,,,4,4,44,3,,,,,,,,,,,,,,,AFSA09.jpg,AFNE14.jpg,AFSA18.jpg,AFNE18.jpg,AFNE18.jpg,FN,3,num_4,16,num_4,1.33343233494,,,2017_Sep_13_1635,60.0134163634,FEMA4ImagesEEG,001,101446,
AFNE01.JPG,AFNE01.JPG,AFNE01.JPG,AFNE01.JPG,AFNE01.JPG,AFNE01.JPG,,,,,,,,,4,5,45,1,,,,,,,,,,,,,,,AFSA10.jpg,AFNE09.jpg,AFNE18.jpg,AFSA19.jpg,AFSA19.jpg,FS,4,num_4,16,num_4,0.816752747865,,,2017_Sep_13_1635,60.0134163634,FEMA4ImagesEEG,001,101446,
AFNE01.JPG,AFNE01.JPG,AFNE01.JPG,AFNE01.JPG,AFNE01.JPG,AFNE01.JPG,,,,,,,,,4,6,46,6,,,,,,,,,,,,,,,AFNE08.jpg,AFSA05.jpg,AFNE12.jpg,AFSA17.jpg,AFSA05.jpg,FS,4,num_6,32,num_4,0.80015286454,,,2017_Sep_13_1635,60.0134163634,FEMA4ImagesEEG,001,101446,
AFNE01.JPG,AFNE01.JPG,AFNE01.JPG,AFNE01.JPG,AFNE01.JPG,AFNE01.JPG,,,,,,,,,4,7,47,9,,,,,,,,,,,,,,,AFSA18.jpg,AFNE05.jpg,AFNE07.jpg,AFSA06.jpg,AFSA18.jpg,FS,4,num_8,32,num_4,0.80017435411,,,2017_Sep_13_1635,60.0134163634,FEMA4ImagesEEG,001,101446,
AFNE01.JPG,AFNE01.JPG,AFNE01.JPG,AFNE01.JPG,AFNE01.JPG,AFNE01.JPG,,,,,,,,,4,8,48,7,,,,,,,,,,,,,,,AFSA03.jpg,AFSA10.jpg,AFNE12.jpg,AFNE02.jpg,AFNE12.jpg,FN,3,num_2,16,num_2,0.616790146101,,,2017_Sep_13_1635,60.0134163634,FEMA4ImagesEEG,001,101446,
AFNE01.JPG,AFNE01.JPG,AFNE01.JPG,AFNE01.JPG,AFNE01.JPG,AFNE01.JPG,,,,,,,,,4,9,49,4,,,,,,,,,,,,,,,AFSA20.jpg,AFNE18.jpg,AFSA18.jpg,AFNE14.jpg,AFNE18.jpg,FN,3,num_6,32,num_4,0.800422606757,,,2017_Sep_13_1635,60.0134163634,FEMA4ImagesEEG,001,101446,
AFNE01.JPG,AFNE01.JPG,AFNE01.JPG,AFNE01.JPG,AFNE01.JPG,AFNE01.JPG,,,,,,,,,5,0,50,2,,,,,,,,,,,,,,,AFSA12.jpg,AFNE15.jpg,AFNE13.jpg,AFSA19.jpg,AFNE13.jpg,FN,3,num_2,32,num_8,0.866773066809,,,2017_Sep_13_1635,60.0134163634,FEMA4ImagesEEG,001,101446,
AFNE01.JPG,AFNE01.JPG,AFNE01.JPG,AFNE01.JPG,AFNE01.JPG,AFNE01.JPG,,,,,,,,,5,1,51,4,,,,,,,,,,,,,,,AFNE04.jpg,AFSA10.jpg,AFNE02.jpg,AFSA20.jpg,AFSA20.jpg,FS,4,num_4,32,num_6,0.700102283852,,,2017_Sep_13_1635,60.0134163634,FEMA4ImagesEEG,001,101446,
AFNE01.JPG,AFNE01.JPG,AFNE01.JPG,AFNE01.JPG,AFNE01.JPG,AFNE01.JPG,,,,,,,,,5,2,52,0,,,,,,,,,,,,,,,AFSA15.jpg,AFNE08.jpg,AFNE18.jpg,AFSA04.jpg,AFNE18.jpg,FN,3,num_2,32,num_4,0.716757975984,,,2017_Sep_13_1635,60.0134163634,FEMA4ImagesEEG,001,101446,
AFNE01.JPG,AFNE01.JPG,AFNE01.JPG,AFNE01.JPG,AFNE01.JPG,AFNE01.JPG,,,,,,,,,5,3,53,5,,,,,,,,,,,,,,,AFNE12.jpg,AFNE06.jpg,AFSA02.jpg,AFSA12.jpg,AFSA02.jpg,FS,4,num_2,16,num_2,0.733463382581,,,2017_Sep_13_1635,60.0134163634,FEMA4ImagesEEG,001,101446,
AFNE01.JPG,AFNE01.JPG,AFNE01.JPG,AFNE01.JPG,AFNE01.JPG,AFNE01.JPG,,,,,,,,,5,4,54,1,,,,,,,,,,,,,,,AFSA05.jpg,AFSA20.jpg,AFNE10.jpg,AFNE18.jpg,AFNE10.jpg,FN,3,num_2,16,num_2,0.683534474578,,,2017_Sep_13_1635,60.0134163634,FEMA4ImagesEEG,001,101446,
AFNE01.JPG,AFNE01.JPG,AFNE01.JPG,AFNE01.JPG,AFNE01.JPG,AFNE01.JPG,,,,,,,,,5,5,55,7,,,,,,,,,,,,,,,AFNE01.jpg,AFSA03.jpg,AFNE16.jpg,AFSA11.jpg,AFSA03.jpg,FS,4,num_6,32,num_4,0.750129017513,,,2017_Sep_13_1635,60.0134163634,FEMA4ImagesEEG,001,101446,
AFNE01.JPG,AFNE01.JPG,AFNE01.JPG,AFNE01.JPG,AFNE01.JPG,AFNE01.JPG,,,,,,,,,5,6,56,6,,,,,,,,,,,,,,,AFSA07.jpg,AFSA16.jpg,AFNE01.jpg,AFNE19.jpg,AFNE19.jpg,FN,3,num_4,32,num_8,0.916812950745,,,2017_Sep_13_1635,60.0134163634,FEMA4ImagesEEG,001,101446,
AFNE01.JPG,AFNE01.JPG,AFNE01.JPG,AFNE01.JPG,AFNE01.JPG,AFNE01.JPG,,,,,,,,,5,7,57,8,,,,,,,,,,,,,,,AFNE12.jpg,AFSA09.jpg,AFSA15.jpg,AFNE17.jpg,AFNE17.jpg,FN,3,num_4,32,num_2,4.88308524666,,,2017_Sep_13_1635,60.0134163634,FEMA4ImagesEEG,001,101446,
AFNE01.JPG,AFNE01.JPG,AFNE01.JPG,AFNE01.JPG,AFNE01.JPG,AFNE01.JPG,,,,,,,,,5,8,58,3,,,,,,,,,,,,,,,AFNE13.jpg,AFNE18.jpg,AFSA18.jpg,AFSA10.jpg,AFSA10.jpg,FS,4,num_4,16,num_4,0.716678753262,,,2017_Sep_13_1635,60.0134163634,FEMA4ImagesEEG,001,101446,
AFNE01.JPG,AFNE01.JPG,AFNE01.JPG,AFNE01.JPG,AFNE01.JPG,AFNE01.JPG,,,,,,,,,5,9,59,9,,,,,,,,,,,,,,,AFSA17.jpg,AFNE20.jpg,AFNE04.jpg,AFSA13.jpg,AFNE04.jpg,FN,3,num_2,32,num_6,1.08347988478,,,2017_Sep_13_1635,60.0134163634,FEMA4ImagesEEG,001,101446,
,,,,,,,,,,,,,,,,,,,,,,,,,,,,,,,,,,,,,,,,,,,space,59.662449688,2017_Sep_13_1635,60.0134163634,FEMA4ImagesEEG,001,101446,
AFNE01.JPG,AFNE01.JPG,AFNE01.JPG,AFNE01.JPG,AFNE01.JPG,AFNE01.JPG,,,,,,,,,,,,,0,0,0,2,,,,,,,,,,,AMSA20.jpg,AMNE07.jpg,AMNE13.jpg,AMSA13.jpg,AMNE07.jpg,MN,1,num_6,32,num_8,0.800209635403,,,2017_Sep_13_1635,60.0134163634,FEMA4ImagesEEG,001,101446,
AFNE01.JPG,AFNE01.JPG,AFNE01.JPG,AFNE01.JPG,AFNE01.JPG,AFNE01.JPG,,,,,,,,,,,,,0,1,1,6,,,,,,,,,,,AMNE11.jpg,AMNE09.jpg,AMSA15.jpg,AMSA06.jpg,AMNE11.jpg,MN,1,num_8,32,num_6,0.666790900053,,,2017_Sep_13_1635,60.0134163634,FEMA4ImagesEEG,001,101446,
AFNE01.JPG,AFNE01.JPG,AFNE01.JPG,AFNE01.JPG,AFNE01.JPG,AFNE01.JPG,,,,,,,,,,,,,0,2,2,9,,,,,,,,,,,AMSA17.jpg,AMNE10.jpg,AMNE15.jpg,AMSA11.jpg,AMSA11.jpg,MS,2,num_4,32,num_2,0.633487534244,,,2017_Sep_13_1635,60.0134163634,FEMA4ImagesEEG,001,101446,
AFNE01.JPG,AFNE01.JPG,AFNE01.JPG,AFNE01.JPG,AFNE01.JPG,AFNE01.JPG,,,,,,,,,,,,,0,3,3,3,,,,,,,,,,,AMSA20.jpg,AMNE01.jpg,AMSA03.jpg,AMNE08.jpg,AMNE08.jpg,MN,1,num_4,32,num_8,0.533499818528,,,2017_Sep_13_1635,60.0134163634,FEMA4ImagesEEG,001,101446,
AFNE01.JPG,AFNE01.JPG,AFNE01.JPG,AFNE01.JPG,AFNE01.JPG,AFNE01.JPG,,,,,,,,,,,,,0,4,4,4,,,,,,,,,,,AMNE11.jpg,AMSA12.jpg,AMNE08.jpg,AMSA20.jpg,AMSA12.jpg,MS,2,num_6,32,num_4,0.316755153472,,,2017_Sep_13_1635,60.0134163634,FEMA4ImagesEEG,001,101446,
AFNE01.JPG,AFNE01.JPG,AFNE01.JPG,AFNE01.JPG,AFNE01.JPG,AFNE01.JPG,,,,,,,,,,,,,0,5,5,7,,,,,,,,,,,AMNE09.jpg,AMSA02.jpg,AMNE13.jpg,AMSA12.jpg,AMNE09.jpg,MN,1,num_8,16,num_8,0.716807690682,,,2017_Sep_13_1635,60.0134163634,FEMA4ImagesEEG,001,101446,
AFNE01.JPG,AFNE01.JPG,AFNE01.JPG,AFNE01.JPG,AFNE01.JPG,AFNE01.JPG,,,,,,,,,,,,,0,6,6,1,,,,,,,,,,,AMNE15.jpg,AMSA10.jpg,AMNE10.jpg,AMSA05.jpg,AMSA10.jpg,MS,2,num_6,32,num_4,1.35007199016,,,2017_Sep_13_1635,60.0134163634,FEMA4ImagesEEG,001,101446,
AFNE01.JPG,AFNE01.JPG,AFNE01.JPG,AFNE01.JPG,AFNE01.JPG,AFNE01.JPG,,,,,,,,,,,,,0,7,7,0,,,,,,,,,,,AMSA07.jpg,AMNE10.jpg,AMNE19.jpg,AMSA06.jpg,AMNE10.jpg,MN,1,num_6,32,num_2,0.850205898751,,,2017_Sep_13_1635,60.0134163634,FEMA4ImagesEEG,001,101446,
AFNE01.JPG,AFNE01.JPG,AFNE01.JPG,AFNE01.JPG,AFNE01.JPG,AFNE01.JPG,,,,,,,,,,,,,0,8,8,5,,,,,,,,,,,AMNE04.jpg,AMSA02.jpg,AMNE01.jpg,AMSA12.jpg,AMNE01.jpg,MN,1,num_2,16,num_2,0.683534153737,,,2017_Sep_13_1635,60.0134163634,FEMA4ImagesEEG,001,101446,
AFNE01.JPG,AFNE01.JPG,AFNE01.JPG,AFNE01.JPG,AFNE01.JPG,AFNE01.JPG,,,,,,,,,,,,,0,9,9,8,,,,,,,,,,,AMNE15.jpg,AMNE14.jpg,AMSA13.jpg,AMSA12.jpg,AMSA12.jpg,MS,2,num_4,32,num_8,1.13359770854,,,2017_Sep_13_1635,60.0134163634,FEMA4ImagesEEG,001,101446,
AFNE01.JPG,AFNE01.JPG,AFNE01.JPG,AFNE01.JPG,AFNE01.JPG,AFNE01.JPG,,,,,,,,,,,,,1,0,10,4,,,,,,,,,,,AMNE07.jpg,AMNE14.jpg,AMSA02.jpg,AMSA16.jpg,AMNE07.jpg,MN,1,num_8,32,num_2,0.71691064816,,,2017_Sep_13_1635,60.0134163634,FEMA4ImagesEEG,001,101446,
AFNE01.JPG,AFNE01.JPG,AFNE01.JPG,AFNE01.JPG,AFNE01.JPG,AFNE01.JPG,,,,,,,,,,,,,1,1,11,3,,,,,,,,,,,AMSA08.jpg,AMNE09.jpg,AMNE16.jpg,AMSA07.jpg,AMSA07.jpg,MS,2,num_4,16,num_4,0.716644754633,,,2017_Sep_13_1635,60.0134163634,FEMA4ImagesEEG,001,101446,
AFNE01.JPG,AFNE01.JPG,AFNE01.JPG,AFNE01.JPG,AFNE01.JPG,AFNE01.JPG,,,,,,,,,,,,,1,2,12,2,,,,,,,,,,,AMSA11.jpg,AMNE14.jpg,AMNE03.jpg,AMSA19.jpg,AMNE03.jpg,MN,1,num_2,16,num_2,0.833493115148,,,2017_Sep_13_1635,60.0134163634,FEMA4ImagesEEG,001,101446,
AFNE01.JPG,AFNE01.JPG,AFNE01.JPG,AFNE01.JPG,AFNE01.JPG,AFNE01.JPG,,,,,,,,,,,,,1,3,13,5,,,,,,,,,,,AMNE14.jpg,AMSA03.jpg,AMSA19.jpg,AMNE19.jpg,AMNE14.jpg,MN,1,num_8,32,num_4,0.933481151471,,,2017_Sep_13_1635,60.0134163634,FEMA4ImagesEEG,001,101446,
AFNE01.JPG,AFNE01.JPG,AFNE01.JPG,AFNE01.JPG,AFNE01.JPG,AFNE01.JPG,,,,,,,,,,,,,1,4,14,6,,,,,,,,,,,AMNE12.jpg,AMNE08.jpg,AMSA01.jpg,AMSA17.jpg,AMNE12.jpg,MN,1,num_8,32,num_2,0.816491024336,,,2017_Sep_13_1635,60.0134163634,FEMA4ImagesEEG,001,101446,
AFNE01.JPG,AFNE01.JPG,AFNE01.JPG,AFNE01.JPG,AFNE01.JPG,AFNE01.JPG,,,,,,,,,,,,,1,5,15,0,,,,,,,,,,,AMNE18.jpg,AMNE06.jpg,AMSA04.jpg,AMSA14.jpg,AMSA04.jpg,MS,2,num_2,32,num_6,0.750121640507,,,2017_Sep_13_1635,60.0134163634,FEMA4ImagesEEG,001,101446,
AFNE01.JPG,AFNE01.JPG,AFNE01.JPG,AFNE01.JPG,AFNE01.JPG,AFNE01.JPG,,,,,,,,,,,,,1,6,16,8,,,,,,,,,,,AMSA08.jpg,AMSA01.jpg,AMNE02.jpg,AMNE15.jpg,AMNE02.jpg,MN,1,num_2,32,num_4,0.966790931998,,,2017_Sep_13_1635,60.0134163634,FEMA4ImagesEEG,001,101446,
AFNE01.JPG,AFNE01.JPG,AFNE01.JPG,AFNE01.JPG,AFNE01.JPG,AFNE01.JPG,,,,,,,,,,,,,1,7,17,1,,,,,,,,,,,AMNE08.jpg,AMSA14.jpg,AMSA08.jpg,AMNE18.jpg,AMSA14.jpg,MS,2,num_6,32,num_2,0.850193710765,,,2017_Sep_13_1635,60.0134163634,FEMA4ImagesEEG,001,101446,
AFNE01.JPG,AFNE01.JPG,AFNE01.JPG,AFNE01.JPG,AFNE01.JPG,AFNE01.JPG,,,,,,,,,,,,,1,8,18,9,,,,,,,,,,,AMSA12.jpg,AMNE11.jpg,AMSA03.jpg,AMNE09.jpg,AMSA12.jpg,MS,2,num_8,16,num_8,0.883181789191,,,2017_Sep_13_1635,60.0134163634,FEMA4ImagesEEG,001,101446,
AFNE01.JPG,AFNE01.JPG,AFNE01.JPG,AFNE01.JPG,AFNE01.JPG,AFNE01.JPG,,,,,,,,,,,,,1,9,19,7,,,,,,,,,,,AMNE15.jpg,AMSA17.jpg,AMSA01.jpg,AMNE13.jpg,AMNE15.jpg,MN,1,num_8,16,num_8,0.733456326183,,,2017_Sep_13_1635,60.0134163634,FEMA4ImagesEEG,001,101446,
AFNE01.JPG,AFNE01.JPG,AFNE01.JPG,AFNE01.JPG,AFNE01.JPG,AFNE01.JPG,,,,,,,,,,,,,2,0,20,3,,,,,,,,,,,AMSA01.jpg,AMSA02.jpg,AMNE06.jpg,AMNE14.jpg,AMSA02.jpg,MS,2,num_6,16,num_6,0.633454818977,,,2017_Sep_13_1635,60.0134163634,FEMA4ImagesEEG,001,101446,
AFNE01.JPG,AFNE01.JPG,AFNE01.JPG,AFNE01.JPG,AFNE01.JPG,AFNE01.JPG,,,,,,,,,,,,,2,1,21,0,,,,,,,,,,,AMNE10.jpg,AMSA06.jpg,AMSA11.jpg,AMNE14.jpg,AMNE10.jpg,MN,1,num_8,32,num_4,0.950126579963,,,2017_Sep_13_1635,60.0134163634,FEMA4ImagesEEG,001,101446,
AFNE01.JPG,AFNE01.JPG,AFNE01.JPG,AFNE01.JPG,AFNE01.JPG,AFNE01.JPG,,,,,,,,,,,,,2,2,22,8,,,,,,,,,,,AMNE20.jpg,AMSA05.jpg,AMNE16.jpg,AMSA11.jpg,AMNE16.jpg,MN,1,num_2,16,num_2,0.866772425128,,,2017_Sep_13_1635,60.0134163634,FEMA4ImagesEEG,001,101446,
AFNE01.JPG,AFNE01.JPG,AFNE01.JPG,AFNE01.JPG,AFNE01.JPG,AFNE01.JPG,,,,,,,,,,,,,2,3,23,5,,,,,,,,,,,AMSA17.jpg,AMNE11.jpg,AMSA02.jpg,AMNE20.jpg,AMSA02.jpg,MS,2,num_2,32,num_6,0.650156376651,,,2017_Sep_13_1635,60.0134163634,FEMA4ImagesEEG,001,101446,
AFNE01.JPG,AFNE01.JPG,AFNE01.JPG,AFNE01.JPG,AFNE01.JPG,AFNE01.JPG,,,,,,,,,,,,,2,4,24,4,,,,,,,,,,,AMSA02.jpg,AMNE18.jpg,AMSA18.jpg,AMNE17.jpg,AMNE18.jpg,MN,1,num_6,32,num_4,0.633619679138,,,2017_Sep_13_1635,60.0134163634,FEMA4ImagesEEG,001,101446,
AFNE01.JPG,AFNE01.JPG,AFNE01.JPG,AFNE01.JPG,AFNE01.JPG,AFNE01.JPG,,,,,,,,,,,,,2,5,25,1,,,,,,,,,,,AMSA03.jpg,AMNE08.jpg,AMNE11.jpg,AMSA20.jpg,AMNE11.jpg,MN,1,num_2,32,num_8,0.766741730506,,,2017_Sep_13_1635,60.0134163634,FEMA4ImagesEEG,001,101446,
AFNE01.JPG,AFNE01.JPG,AFNE01.JPG,AFNE01.JPG,AFNE01.JPG,AFNE01.JPG,,,,,,,,,,,,,2,6,26,7,,,,,,,,,,,AMNE11.jpg,AMSA19.jpg,AMNE20.jpg,AMSA09.jpg,AMNE20.jpg,MN,1,num_2,16,num_2,0.950108939083,,,2017_Sep_13_1635,60.0134163634,FEMA4ImagesEEG,001,101446,
AFNE01.JPG,AFNE01.JPG,AFNE01.JPG,AFNE01.JPG,AFNE01.JPG,AFNE01.JPG,,,,,,,,,,,,,2,7,27,6,,,,,,,,,,,AMNE10.jpg,AMSA14.jpg,AMSA15.jpg,AMNE04.jpg,AMSA14.jpg,MS,2,num_6,16,num_6,0.733478778275,,,2017_Sep_13_1635,60.0134163634,FEMA4ImagesEEG,001,101446,
AFNE01.JPG,AFNE01.JPG,AFNE01.JPG,AFNE01.JPG,AFNE01.JPG,AFNE01.JPG,,,,,,,,,,,,,2,8,28,2,,,,,,,,,,,AMSA04.jpg,AMNE07.jpg,AMSA09.jpg,AMNE04.jpg,AMSA09.jpg,MS,2,num_2,32,num_4,0.700114472071,,,2017_Sep_13_1635,60.0134163634,FEMA4ImagesEEG,001,101446,
AFNE01.JPG,AFNE01.JPG,AFNE01.JPG,AFNE01.JPG,AFNE01.JPG,AFNE01.JPG,,,,,,,,,,,,,2,9,29,9,,,,,,,,,,,AMNE06.jpg,AMSA02.jpg,AMNE12.jpg,AMSA19.jpg,AMNE06.jpg,MN,1,num_8,32,num_2,0.883448323933,,,2017_Sep_13_1635,60.0134163634,FEMA4ImagesEEG,001,101446,
AFNE01.JPG,AFNE01.JPG,AFNE01.JPG,AFNE01.JPG,AFNE01.JPG,AFNE01.JPG,,,,,,,,,,,,,3,0,30,2,,,,,,,,,,,AMNE06.jpg,AMSA05.jpg,AMNE04.jpg,AMSA12.jpg,AMNE04.jpg,MN,1,num_2,32,num_8,0.766803312581,,,2017_Sep_13_1635,60.0134163634,FEMA4ImagesEEG,001,101446,
AFNE01.JPG,AFNE01.JPG,AFNE01.JPG,AFNE01.JPG,AFNE01.JPG,AFNE01.JPG,,,,,,,,,,,,,3,1,31,7,,,,,,,,,,,AMNE08.jpg,AMSA11.jpg,AMSA04.jpg,AMNE12.jpg,AMSA04.jpg,MS,2,num_2,16,num_2,0.866796480725,,,2017_Sep_13_1635,60.0134163634,FEMA4ImagesEEG,001,101446,
AFNE01.JPG,AFNE01.JPG,AFNE01.JPG,AFNE01.JPG,AFNE01.JPG,AFNE01.JPG,,,,,,,,,,,,,3,2,32,6,,,,,,,,,,,AMSA03.jpg,AMNE04.jpg,AMNE09.jpg,AMSA19.jpg,AMNE09.jpg,MN,1,num_2,16,num_2,0.483475971734,,,2017_Sep_13_1635,60.0134163634,FEMA4ImagesEEG,001,101446,
AFNE01.JPG,AFNE01.JPG,AFNE01.JPG,AFNE01.JPG,AFNE01.JPG,AFNE01.JPG,,,,,,,,,,,,,3,3,33,0,,,,,,,,,,,AMNE16.jpg,AMNE04.jpg,AMSA20.jpg,AMSA08.jpg,AMSA20.jpg,MS,2,num_2,32,num_8,1.35007968778,,,2017_Sep_13_1635,60.0134163634,FEMA4ImagesEEG,001,101446,
AFNE01.JPG,AFNE01.JPG,AFNE01.JPG,AFNE01.JPG,AFNE01.JPG,AFNE01.JPG,,,,,,,,,,,,,3,4,34,4,,,,,,,,,,,AMNE08.jpg,AMSA06.jpg,AMNE12.jpg,AMSA05.jpg,AMSA06.jpg,MS,2,num_6,16,num_6,0.766753918491,,,2017_Sep_13_1635,60.0134163634,FEMA4ImagesEEG,001,101446,
AFNE01.JPG,AFNE01.JPG,AFNE01.JPG,AFNE01.JPG,AFNE01.JPG,AFNE01.JPG,,,,,,,,,,,,,3,5,35,1,,,,,,,,,,,AMSA02.jpg,AMSA14.jpg,AMNE09.jpg,AMNE19.jpg,AMNE09.jpg,MN,1,num_2,16,num_2,1.46675132052,,,2017_Sep_13_1635,60.0134163634,FEMA4ImagesEEG,001,101446,
AFNE01.JPG,AFNE01.JPG,AFNE01.JPG,AFNE01.JPG,AFNE01.JPG,AFNE01.JPG,,,,,,,,,,,,,3,6,36,9,,,,,,,,,,,AMNE11.jpg,AMNE17.jpg,AMSA05.jpg,AMSA18.jpg,AMSA18.jpg,MS,2,num_4,16,num_4,0.816878798651,,,2017_Sep_13_1635,60.0134163634,FEMA4ImagesEEG,001,101446,
AFNE01.JPG,AFNE01.JPG,AFNE01.JPG,AFNE01.JPG,AFNE01.JPG,AFNE01.JPG,,,,,,,,,,,,,3,7,37,8,,,,,,,,,,,AMSA11.jpg,AMSA09.jpg,AMNE13.jpg,AMNE19.jpg,AMSA11.jpg,MS,2,num_8,32,num_2,0.600123869721,,,2017_Sep_13_1635,60.0134163634,FEMA4ImagesEEG,001,101446,
AFNE01.JPG,AFNE01.JPG,AFNE01.JPG,AFNE01.JPG,AFNE01.JPG,AFNE01.JPG,,,,,,,,,,,,,3,8,38,5,,,,,,,,,,,AMNE15.jpg,AMSA02.jpg,AMSA12.jpg,AMNE09.jpg,AMSA12.jpg,MS,2,num_2,32,num_4,0.550197527511,,,2017_Sep_13_1635,60.0134163634,FEMA4ImagesEEG,001,101446,
AFNE01.JPG,AFNE01.JPG,AFNE01.JPG,AFNE01.JPG,AFNE01.JPG,AFNE01.JPG,,,,,,,,,,,,,3,9,39,3,,,,,,,,,,,AMSA20.jpg,AMNE10.jpg,AMSA09.jpg,AMNE15.jpg,AMNE15.jpg,MN,1,num_4,16,num_4,1.06644828571,,,2017_Sep_13_1635,60.0134163634,FEMA4ImagesEEG,001,101446,
AFNE01.JPG,AFNE01.JPG,AFNE01.JPG,AFNE01.JPG,AFNE01.JPG,AFNE01.JPG,,,,,,,,,,,,,4,0,40,4,,,,,,,,,,,AMNE09.jpg,AMSA16.jpg,AMNE08.jpg,AMSA03.jpg,AMNE09.jpg,MN,1,num_8,16,num_8,0.783435590332,,,2017_Sep_13_1635,60.0134163634,FEMA4ImagesEEG,001,101446,
AFNE01.JPG,AFNE01.JPG,AFNE01.JPG,AFNE01.JPG,AFNE01.JPG,AFNE01.JPG,,,,,,,,,,,,,4,1,41,1,,,,,,,,,,,AMSA07.jpg,AMNE09.jpg,AMSA11.jpg,AMNE18.jpg,AMNE09.jpg,MN,1,num_6,32,num_8,0.933202428743,,,2017_Sep_13_1635,60.0134163634,FEMA4ImagesEEG,001,101446,
AFNE01.JPG,AFNE01.JPG,AFNE01.JPG,AFNE01.JPG,AFNE01.JPG,AFNE01.JPG,,,,,,,,,,,,,4,2,42,8,,,,,,,,,,,AMSA07.jpg,AMNE05.jpg,AMSA19.jpg,AMNE12.jpg,AMNE05.jpg,MN,1,num_6,32,num_4,0.766805236693,,,2017_Sep_13_1635,60.0134163634,FEMA4ImagesEEG,001,101446,
AFNE01.JPG,AFNE01.JPG,AFNE01.JPG,AFNE01.JPG,AFNE01.JPG,AFNE01.JPG,,,,,,,,,,,,,4,3,43,7,,,,,,,,,,,AMSA17.jpg,AMNE11.jpg,AMSA18.jpg,AMNE08.jpg,AMNE08.jpg,MN,1,num_4,32,num_8,0.750135753071,,,2017_Sep_13_1635,60.0134163634,FEMA4ImagesEEG,001,101446,
AFNE01.JPG,AFNE01.JPG,AFNE01.JPG,AFNE01.JPG,AFNE01.JPG,AFNE01.JPG,,,,,,,,,,,,,4,4,44,3,,,,,,,,,,,AMNE12.jpg,AMNE11.jpg,AMSA10.jpg,AMSA09.jpg,AMSA10.jpg,MS,2,num_2,16,num_2,0.850118657574,,,2017_Sep_13_1635,60.0134163634,FEMA4ImagesEEG,001,101446,
AFNE01.JPG,AFNE01.JPG,AFNE01.JPG,AFNE01.JPG,AFNE01.JPG,AFNE01.JPG,,,,,,,,,,,,,4,5,45,5,,,,,,,,,,,AMSA13.jpg,AMSA01.jpg,AMNE09.jpg,AMNE16.jpg,AMSA13.jpg,MS,2,num_8,32,num_6,0.716756051406,,,2017_Sep_13_1635,60.0134163634,FEMA4ImagesEEG,001,101446,
AFNE01.JPG,AFNE01.JPG,AFNE01.JPG,AFNE01.JPG,AFNE01.JPG,AFNE01.JPG,,,,,,,,,,,,,4,6,46,0,,,,,,,,,,,AMSA11.jpg,AMSA10.jpg,AMNE17.jpg,AMNE09.jpg,AMNE09.jpg,MN,1,num_4,16,num_4,3.23322202591,,,2017_Sep_13_1635,60.0134163634,FEMA4ImagesEEG,001,101446,
AFNE01.JPG,AFNE01.JPG,AFNE01.JPG,AFNE01.JPG,AFNE01.JPG,AFNE01.JPG,,,,,,,,,,,,,4,7,47,6,,,,,,,,,,,AMSA08.jpg,AMNE11.jpg,AMSA15.jpg,AMNE13.jpg,AMSA15.jpg,MS,2,num_2,16,num_2,0.866779802134,,,2017_Sep_13_1635,60.0134163634,FEMA4ImagesEEG,001,101446,
AFNE01.JPG,AFNE01.JPG,AFNE01.JPG,AFNE01.JPG,AFNE01.JPG,AFNE01.JPG,,,,,,,,,,,,,4,8,48,9,,,,,,,,,,,AMSA14.jpg,AMSA17.jpg,AMNE12.jpg,AMNE13.jpg,AMSA17.jpg,MS,2,num_6,16,num_6,0.616756147705,,,2017_Sep_13_1635,60.0134163634,FEMA4ImagesEEG,001,101446,
AFNE01.JPG,AFNE01.JPG,AFNE01.JPG,AFNE01.JPG,AFNE01.JPG,AFNE01.JPG,,,,,,,,,,,,,4,9,49,2,,,,,,,,,,,AMNE20.jpg,AMSA08.jpg,AMNE06.jpg,AMSA19.jpg,AMSA19.jpg,MS,2,num_4,16,num_4,0.566820183536,,,2017_Sep_13_1635,60.0134163634,FEMA4ImagesEEG,001,101446,
AFNE01.JPG,AFNE01.JPG,AFNE01.JPG,AFNE01.JPG,AFNE01.JPG,AFNE01.JPG,,,,,,,,,,,,,5,0,50,3,,,,,,,,,,,AMSA12.jpg,AMNE14.jpg,AMSA16.jpg,AMNE17.jpg,AMSA12.jpg,MS,2,num_8,16,num_8,1.26674477756,,,2017_Sep_13_1635,60.0134163634,FEMA4ImagesEEG,001,101446,
AFNE01.JPG,AFNE01.JPG,AFNE01.JPG,AFNE01.JPG,AFNE01.JPG,AFNE01.JPG,,,,,,,,,,,,,5,1,51,1,,,,,,,,,,,AMNE08.jpg,AMSA15.jpg,AMNE14.jpg,AMSA12.jpg,AMSA12.jpg,MS,2,num_4,32,num_2,0.78335765074,,,2017_Sep_13_1635,60.0134163634,FEMA4ImagesEEG,001,101446,
AFNE01.JPG,AFNE01.JPG,AFNE01.JPG,AFNE01.JPG,AFNE01.JPG,AFNE01.JPG,,,,,,,,,,,,,5,2,52,2,,,,,,,,,,,AMNE11.jpg,AMSA13.jpg,AMSA06.jpg,AMNE16.jpg,AMSA06.jpg,MS,2,num_2,32,num_6,0.683473533951,,,2017_Sep_13_1635,60.0134163634,FEMA4ImagesEEG,001,101446,
AFNE01.JPG,AFNE01.JPG,AFNE01.JPG,AFNE01.JPG,AFNE01.JPG,AFNE01.JPG,,,,,,,,,,,,,5,3,53,0,,,,,,,,,,,AMNE17.jpg,AMNE18.jpg,AMSA14.jpg,AMSA16.jpg,AMSA16.jpg,MS,2,num_4,32,num_6,0.766816783696,,,2017_Sep_13_1635,60.0134163634,FEMA4ImagesEEG,001,101446,
AFNE01.JPG,AFNE01.JPG,AFNE01.JPG,AFNE01.JPG,AFNE01.JPG,AFNE01.JPG,,,,,,,,,,,,,5,4,54,7,,,,,,,,,,,AMSA15.jpg,AMSA18.jpg,AMNE20.jpg,AMNE15.jpg,AMSA18.jpg,MS,2,num_6,16,num_6,0.850150410784,,,2017_Sep_13_1635,60.0134163634,FEMA4ImagesEEG,001,101446,
AFNE01.JPG,AFNE01.JPG,AFNE01.JPG,AFNE01.JPG,AFNE01.JPG,AFNE01.JPG,,,,,,,,,,,,,5,5,55,8,,,,,,,,,,,AMNE03.jpg,AMSA08.jpg,AMSA14.jpg,AMNE06.jpg,AMSA14.jpg,MS,2,num_2,16,num_2,0.633442951599,,,2017_Sep_13_1635,60.0134163634,FEMA4ImagesEEG,001,101446,
AFNE01.JPG,AFNE01.JPG,AFNE01.JPG,AFNE01.JPG,AFNE01.JPG,AFNE01.JPG,,,,,,,,,,,,,5,6,56,6,,,,,,,,,,,AMSA20.jpg,AMNE10.jpg,AMSA03.jpg,AMNE09.jpg,AMSA03.jpg,MS,2,num_2,32,num_4,0.783489474561,,,2017_Sep_13_1635,60.0134163634,FEMA4ImagesEEG,001,101446,
AFNE01.JPG,AFNE01.JPG,AFNE01.JPG,AFNE01.JPG,AFNE01.JPG,AFNE01.JPG,,,,,,,,,,,,,5,7,57,9,,,,,,,,,,,AMSA13.jpg,AMNE01.jpg,AMNE08.jpg,AMSA10.jpg,AMNE08.jpg,MN,1,num_2,32,num_8,1.16680421052,,,2017_Sep_13_1635,60.0134163634,FEMA4ImagesEEG,001,101446,
AFNE01.JPG,AFNE01.JPG,AFNE01.JPG,AFNE01.JPG,AFNE01.JPG,AFNE01.JPG,,,,,,,,,,,,,5,8,58,4,,,,,,,,,,,AMSA15.jpg,AMSA01.jpg,AMNE10.jpg,AMNE19.jpg,AMNE19.jpg,MN,1,num_4,32,num_2,0.683515871642,,,2017_Sep_13_1635,60.0134163634,FEMA4ImagesEEG,001,101446,
AFNE01.JPG,AFNE01.JPG,AFNE01.JPG,AFNE01.JPG,AFNE01.JPG,AFNE01.JPG,,,,,,,,,,,,,5,9,59,5,,,,,,,,,,,AMSA18.jpg,AMSA05.jpg,AMNE16.jpg,AMNE18.jpg,AMSA18.jpg,MS,2,num_8,32,num_4,0.88343934319,,,2017_Sep_13_1635,60.0134163634,FEMA4ImagesEEG,001,101446,
,,,,,,,,,,,,,,,,,,,,,,,,,,,,,,,,,,,,,,,,,,,space,87.9600197962,2017_Sep_13_1635,60.0134163634,FEMA4ImagesEEG,001,101446,
AFNE01.JPG,AFNE01.JPG,AFNE01.JPG,AFNE01.JPG,AFNE01.JPG,AFNE01.JPG,,,,,,,,,,,,,,,,,0,0,0,7,,,,,,,AFSA08.jpg,AFNE18.jpg,AFSA03.jpg,AFNE13.jpg,AFSA08.jpg,FS,4,num_8,32,num_2,3.8832889162,,,2017_Sep_13_1635,60.0134163634,FEMA4ImagesEEG,001,101446,
AFNE01.JPG,AFNE01.JPG,AFNE01.JPG,AFNE01.JPG,AFNE01.JPG,AFNE01.JPG,,,,,,,,,,,,,,,,,0,1,1,9,,,,,,,AFSA01.jpg,AFNE17.jpg,AFNE13.jpg,AFSA19.jpg,AFNE17.jpg,FN,3,num_6,32,num_4,0.983474849025,,,2017_Sep_13_1635,60.0134163634,FEMA4ImagesEEG,001,101446,
AFNE01.JPG,AFNE01.JPG,AFNE01.JPG,AFNE01.JPG,AFNE01.JPG,AFNE01.JPG,,,,,,,,,,,,,,,,,0,2,2,5,,,,,,,AFNE01.jpg,AFSA01.jpg,AFSA09.jpg,AFNE15.jpg,AFSA01.jpg,FS,4,num_6,16,num_6,0.500132625923,,,2017_Sep_13_1635,60.0134163634,FEMA4ImagesEEG,001,101446,
AFNE01.JPG,AFNE01.JPG,AFNE01.JPG,AFNE01.JPG,AFNE01.JPG,AFNE01.JPG,,,,,,,,,,,,,,,,,0,3,3,1,,,,,,,AFNE02.jpg,AFSA14.jpg,AFNE18.jpg,AFSA16.jpg,AFSA14.jpg,FS,4,num_6,32,num_4,1.06677191216,,,2017_Sep_13_1635,60.0134163634,FEMA4ImagesEEG,001,101446,
AFNE01.JPG,AFNE01.JPG,AFNE01.JPG,AFNE01.JPG,AFNE01.JPG,AFNE01.JPG,,,,,,,,,,,,,,,,,0,4,4,3,,,,,,,AFNE07.jpg,AFNE17.jpg,AFSA16.jpg,AFSA19.jpg,AFSA16.jpg,FS,4,num_2,16,num_2,0.533458763966,,,2017_Sep_13_1635,60.0134163634,FEMA4ImagesEEG,001,101446,
AFNE01.JPG,AFNE01.JPG,AFNE01.JPG,AFNE01.JPG,AFNE01.JPG,AFNE01.JPG,,,,,,,,,,,,,,,,,0,5,5,4,,,,,,,AFNE13.jpg,AFSA05.jpg,AFSA16.jpg,AFNE04.jpg,AFNE13.jpg,FN,3,num_8,32,num_4,0.650292049395,,,2017_Sep_13_1635,60.0134163634,FEMA4ImagesEEG,001,101446,
AFNE01.JPG,AFNE01.JPG,AFNE01.JPG,AFNE01.JPG,AFNE01.JPG,AFNE01.JPG,,,,,,,,,,,,,,,,,0,6,6,6,,,,,,,AFNE16.jpg,AFSA15.jpg,AFNE19.jpg,AFSA10.jpg,AFNE19.jpg,FN,3,num_2,16,num_2,1.30005616159,,,2017_Sep_13_1635,60.0134163634,FEMA4ImagesEEG,001,101446,
AFNE01.JPG,AFNE01.JPG,AFNE01.JPG,AFNE01.JPG,AFNE01.JPG,AFNE01.JPG,,,,,,,,,,,,,,,,,0,7,7,8,,,,,,,AFSA15.jpg,AFSA18.jpg,AFNE19.jpg,AFNE07.jpg,AFSA15.jpg,FS,4,num_8,32,num_4,0.966763027478,,,2017_Sep_13_1635,60.0134163634,FEMA4ImagesEEG,001,101446,
AFNE01.JPG,AFNE01.JPG,AFNE01.JPG,AFNE01.JPG,AFNE01.JPG,AFNE01.JPG,,,,,,,,,,,,,,,,,0,8,8,2,,,,,,,AFNE20.jpg,AFSA08.jpg,AFSA03.jpg,AFNE12.jpg,AFSA03.jpg,FS,4,num_2,32,num_8,0.700192091055,,,2017_Sep_13_1635,60.0134163634,FEMA4ImagesEEG,001,101446,
AFNE01.JPG,AFNE01.JPG,AFNE01.JPG,AFNE01.JPG,AFNE01.JPG,AFNE01.JPG,,,,,,,,,,,,,,,,,0,9,9,0,,,,,,,AFSA20.jpg,AFNE02.jpg,AFSA07.jpg,AFNE13.jpg,AFSA20.jpg,FS,4,num_8,32,num_2,0.516761055216,,,2017_Sep_13_1635,60.0134163634,FEMA4ImagesEEG,001,101446,
AFNE01.JPG,AFNE01.JPG,AFNE01.JPG,AFNE01.JPG,AFNE01.JPG,AFNE01.JPG,,,,,,,,,,,,,,,,,1,0,10,0,,,,,,,AFNE09.jpg,AFSA06.jpg,AFSA11.jpg,AFNE20.jpg,AFSA11.jpg,FS,4,num_2,32,num_6,0.516796336276,,,2017_Sep_13_1635,60.0134163634,FEMA4ImagesEEG,001,101446,
AFNE01.JPG,AFNE01.JPG,AFNE01.JPG,AFNE01.JPG,AFNE01.JPG,AFNE01.JPG,,,,,,,,,,,,,,,,,1,1,11,7,,,,,,,AFSA01.jpg,AFSA03.jpg,AFNE02.jpg,AFNE12.jpg,AFSA03.jpg,FS,4,num_6,32,num_2,0.866837856127,,,2017_Sep_13_1635,60.0134163634,FEMA4ImagesEEG,001,101446,
AFNE01.JPG,AFNE01.JPG,AFNE01.JPG,AFNE01.JPG,AFNE01.JPG,AFNE01.JPG,,,,,,,,,,,,,,,,,1,2,12,2,,,,,,,AFNE13.jpg,AFNE04.jpg,AFSA02.jpg,AFSA15.jpg,AFSA15.jpg,FS,4,num_4,32,num_8,0.316811282886,,,2017_Sep_13_1635,60.0134163634,FEMA4ImagesEEG,001,101446,
AFNE01.JPG,AFNE01.JPG,AFNE01.JPG,AFNE01.JPG,AFNE01.JPG,AFNE01.JPG,,,,,,,,,,,,,,,,,1,3,13,9,,,,,,,AFSA04.jpg,AFNE20.jpg,AFSA15.jpg,AFNE19.jpg,AFNE20.jpg,FN,3,num_6,32,num_4,0.63348368532,,,2017_Sep_13_1635,60.0134163634,FEMA4ImagesEEG,001,101446,
AFNE01.JPG,AFNE01.JPG,AFNE01.JPG,AFNE01.JPG,AFNE01.JPG,AFNE01.JPG,,,,,,,,,,,,,,,,,1,4,14,8,,,,,,,AFNE15.jpg,AFSA10.jpg,AFSA09.jpg,AFNE05.jpg,AFNE15.jpg,FN,3,num_8,16,num_8,0.766757125966,,,2017_Sep_13_1635,60.0134163634,FEMA4ImagesEEG,001,101446,
AFNE01.JPG,AFNE01.JPG,AFNE01.JPG,AFNE01.JPG,AFNE01.JPG,AFNE01.JPG,,,,,,,,,,,,,,,,,1,5,15,3,,,,,,,AFSA18.jpg,AFSA02.jpg,AFNE12.jpg,AFNE05.jpg,AFSA02.jpg,FS,4,num_6,32,num_4,0.766780219274,,,2017_Sep_13_1635,60.0134163634,FEMA4ImagesEEG,001,101446,
AFNE01.JPG,AFNE01.JPG,AFNE01.JPG,AFNE01.JPG,AFNE01.JPG,AFNE01.JPG,,,,,,,,,,,,,,,,,1,6,16,6,,,,,,,AFSA14.jpg,AFSA12.jpg,AFNE10.jpg,AFNE08.jpg,AFNE10.jpg,FN,3,num_2,16,num_2,0.533493403811,,,2017_Sep_13_1635,60.0134163634,FEMA4ImagesEEG,001,101446,
AFNE01.JPG,AFNE01.JPG,AFNE01.JPG,AFNE01.JPG,AFNE01.JPG,AFNE01.JPG,,,,,,,,,,,,,,,,,1,7,17,5,,,,,,,AFNE12.jpg,AFSA09.jpg,AFNE18.jpg,AFSA11.jpg,AFSA09.jpg,FS,4,num_6,32,num_2,0.750103999861,,,2017_Sep_13_1635,60.0134163634,FEMA4ImagesEEG,001,101446,
AFNE01.JPG,AFNE01.JPG,AFNE01.JPG,AFNE01.JPG,AFNE01.JPG,AFNE01.JPG,,,,,,,,,,,,,,,,,1,8,18,1,,,,,,,AFSA19.jpg,AFNE02.jpg,AFNE12.jpg,AFSA02.jpg,AFSA02.jpg,FS,4,num_4,32,num_8,0.666852481896,,,2017_Sep_13_1635,60.0134163634,FEMA4ImagesEEG,001,101446,
AFNE01.JPG,AFNE01.JPG,AFNE01.JPG,AFNE01.JPG,AFNE01.JPG,AFNE01.JPG,,,,,,,,,,,,,,,,,1,9,19,4,,,,,,,AFNE17.jpg,AFSA07.jpg,AFSA02.jpg,AFNE05.jpg,AFNE05.jpg,FN,3,num_4,32,num_2,0.283474880969,,,2017_Sep_13_1635,60.0134163634,FEMA4ImagesEEG,001,101446,
AFNE01.JPG,AFNE01.JPG,AFNE01.JPG,AFNE01.JPG,AFNE01.JPG,AFNE01.JPG,,,,,,,,,,,,,,,,,2,0,20,7,,,,,,,AFSA14.jpg,AFNE18.jpg,AFNE15.jpg,AFSA02.jpg,AFNE18.jpg,FN,3,num_6,16,num_6,0.450160097331,,,2017_Sep_13_1635,60.0134163634,FEMA4ImagesEEG,001,101446,
AFNE01.JPG,AFNE01.JPG,AFNE01.JPG,AFNE01.JPG,AFNE01.JPG,AFNE01.JPG,,,,,,,,,,,,,,,,,2,1,21,3,,,,,,,AFSA20.jpg,AFNE16.jpg,AFSA10.jpg,AFNE15.jpg,AFSA20.jpg,FS,4,num_8,16,num_8,1.05014380347,,,2017_Sep_13_1635,60.0134163634,FEMA4ImagesEEG,001,101446,
AFNE01.JPG,AFNE01.JPG,AFNE01.JPG,AFNE01.JPG,AFNE01.JPG,AFNE01.JPG,,,,,,,,,,,,,,,,,2,2,22,1,,,,,,,AFSA03.jpg,AFNE11.jpg,AFSA09.jpg,AFNE10.jpg,AFSA09.jpg,FS,4,num_2,16,num_2,0.750173600391,,,2017_Sep_13_1635,60.0134163634,FEMA4ImagesEEG,001,101446,
AFNE01.JPG,AFNE01.JPG,AFNE01.JPG,AFNE01.JPG,AFNE01.JPG,AFNE01.JPG,,,,,,,,,,,,,,,,,2,3,23,8,,,,,,,AFSA02.jpg,AFSA06.jpg,AFNE16.jpg,AFNE18.jpg,AFNE16.jpg,FN,3,num_2,32,num_8,0.333543310873,,,2017_Sep_13_1635,60.0134163634,FEMA4ImagesEEG,001,101446,
AFNE01.JPG,AFNE01.JPG,AFNE01.JPG,AFNE01.JPG,AFNE01.JPG,AFNE01.JPG,,,,,,,,,,,,,,,,,2,4,24,0,,,,,,,AFNE14.jpg,AFNE05.jpg,AFSA18.jpg,AFSA12.jpg,AFSA12.jpg,FS,4,num_4,16,num_4,0.550185980741,,,2017_Sep_13_1635,60.0134163634,FEMA4ImagesEEG,001,101446,
AFNE01.JPG,AFNE01.JPG,AFNE01.JPG,AFNE01.JPG,AFNE01.JPG,AFNE01.JPG,,,,,,,,,,,,,,,,,2,5,25,4,,,,,,,AFNE03.jpg,AFSA09.jpg,AFSA19.jpg,AFNE07.jpg,AFSA19.jpg,FS,4,num_2,16,num_2,0.716752202483,,,2017_Sep_13_1635,60.0134163634,FEMA4ImagesEEG,001,101446,
AFNE01.JPG,AFNE01.JPG,AFNE01.JPG,AFNE01.JPG,AFNE01.JPG,AFNE01.JPG,,,,,,,,,,,,,,,,,2,6,26,2,,,,,,,AFSA02.jpg,AFNE15.jpg,AFNE19.jpg,AFSA09.jpg,AFNE19.jpg,FN,3,num_2,32,num_8,0.616993174423,,,2017_Sep_13_1635,60.0134163634,FEMA4ImagesEEG,001,101446,
AFNE01.JPG,AFNE01.JPG,AFNE01.JPG,AFNE01.JPG,AFNE01.JPG,AFNE01.JPG,,,,,,,,,,,,,,,,,2,7,27,9,,,,,,,AFNE15.jpg,AFNE17.jpg,AFSA15.jpg,AFSA10.jpg,AFNE15.jpg,FN,3,num_8,32,num_4,0.700155526632,,,2017_Sep_13_1635,60.0134163634,FEMA4ImagesEEG,001,101446,
AFNE01.JPG,AFNE01.JPG,AFNE01.JPG,AFNE01.JPG,AFNE01.JPG,AFNE01.JPG,,,,,,,,,,,,,,,,,2,8,28,6,,,,,,,AFSA07.jpg,AFNE03.jpg,AFNE12.jpg,AFSA11.jpg,AFSA11.jpg,FS,4,num_4,32,num_6,0.483486556215,,,2017_Sep_13_1635,60.0134163634,FEMA4ImagesEEG,001,101446,
AFNE01.JPG,AFNE01.JPG,AFNE01.JPG,AFNE01.JPG,AFNE01.JPG,AFNE01.JPG,,,,,,,,,,,,,,,,,2,9,29,5,,,,,,,AFSA17.jpg,AFNE14.jpg,AFNE11.jpg,AFSA20.jpg,AFNE14.jpg,FN,3,num_6,32,num_8,1.10012659593,,,2017_Sep_13_1635,60.0134163634,FEMA4ImagesEEG,001,101446,
AFNE01.JPG,AFNE01.JPG,AFNE01.JPG,AFNE01.JPG,AFNE01.JPG,AFNE01.JPG,,,,,,,,,,,,,,,,,3,0,30,2,,,,,,,AFSA05.jpg,AFNE16.jpg,AFNE04.jpg,AFSA19.jpg,AFSA05.jpg,FS,4,num_8,32,num_4,1.05013867165,,,2017_Sep_13_1635,60.0134163634,FEMA4ImagesEEG,001,101446,
AFNE01.JPG,AFNE01.JPG,AFNE01.JPG,AFNE01.JPG,AFNE01.JPG,AFNE01.JPG,,,,,,,,,,,,,,,,,3,1,31,5,,,,,,,AFSA08.jpg,AFNE07.jpg,AFNE17.jpg,AFSA20.jpg,AFNE17.jpg,FN,3,num_2,16,num_2,0.53346261289,,,2017_Sep_13_1635,60.0134163634,FEMA4ImagesEEG,001,101446,
AFNE01.JPG,AFNE01.JPG,AFNE01.JPG,AFNE01.JPG,AFNE01.JPG,AFNE01.JPG,,,,,,,,,,,,,,,,,3,2,32,4,,,,,,,AFNE05.jpg,AFSA03.jpg,AFNE08.jpg,AFSA09.jpg,AFSA09.jpg,FS,4,num_4,32,num_6,0.500142568722,,,2017_Sep_13_1635,60.0134163634,FEMA4ImagesEEG,001,101446,
AFNE01.JPG,AFNE01.JPG,AFNE01.JPG,AFNE01.JPG,AFNE01.JPG,AFNE01.JPG,,,,,,,,,,,,,,,,,3,3,33,0,,,,,,,AFSA12.jpg,AFNE03.jpg,AFSA19.jpg,AFNE11.jpg,AFNE03.jpg,FN,3,num_6,32,num_8,0.950119523797,,,2017_Sep_13_1635,60.0134163634,FEMA4ImagesEEG,001,101446,
AFNE01.JPG,AFNE01.JPG,AFNE01.JPG,AFNE01.JPG,AFNE01.JPG,AFNE01.JPG,,,,,,,,,,,,,,,,,3,4,34,1,,,,,,,AFNE05.jpg,AFNE18.jpg,AFSA18.jpg,AFSA07.jpg,AFNE18.jpg,FN,3,num_6,32,num_8,1.03459241847,,,2017_Sep_13_1635,60.0134163634,FEMA4ImagesEEG,001,101446,
AFNE01.JPG,AFNE01.JPG,AFNE01.JPG,AFNE01.JPG,AFNE01.JPG,AFNE01.JPG,,,,,,,,,,,,,,,,,3,5,35,3,,,,,,,AFNE15.jpg,AFNE10.jpg,AFSA10.jpg,AFSA03.jpg,AFNE15.jpg,FN,3,num_8,32,num_6,1.65011692559,,,2017_Sep_13_1635,60.0134163634,FEMA4ImagesEEG,001,101446,
AFNE01.JPG,AFNE01.JPG,AFNE01.JPG,AFNE01.JPG,AFNE01.JPG,AFNE01.JPG,,,,,,,,,,,,,,,,,3,6,36,8,,,,,,,AFSA18.jpg,AFNE08.jpg,AFSA06.jpg,AFNE05.jpg,AFSA18.jpg,FS,4,num_8,32,num_4,0.800104432972,,,2017_Sep_13_1635,60.0134163634,FEMA4ImagesEEG,001,101446,
AFNE01.JPG,AFNE01.JPG,AFNE01.JPG,AFNE01.JPG,AFNE01.JPG,AFNE01.JPG,,,,,,,,,,,,,,,,,3,7,37,6,,,,,,,AFNE20.jpg,AFSA13.jpg,AFNE02.jpg,AFSA20.jpg,AFSA20.jpg,FS,4,num_4,32,num_6,0.816790916026,,,2017_Sep_13_1635,60.0134163634,FEMA4ImagesEEG,001,101446,
AFNE01.JPG,AFNE01.JPG,AFNE01.JPG,AFNE01.JPG,AFNE01.JPG,AFNE01.JPG,,,,,,,,,,,,,,,,,3,8,38,7,,,,,,,AFSA14.jpg,AFNE11.jpg,AFSA13.jpg,AFNE18.jpg,AFNE18.jpg,FN,3,num_4,16,num_4,0.750172958942,,,2017_Sep_13_1635,60.0134163634,FEMA4ImagesEEG,001,101446,
AFNE01.JPG,AFNE01.JPG,AFNE01.JPG,AFNE01.JPG,AFNE01.JPG,AFNE01.JPG,,,,,,,,,,,,,,,,,3,9,39,9,,,,,,,AFNE16.jpg,AFSA02.jpg,AFNE09.jpg,AFSA08.jpg,AFSA08.jpg,FS,4,num_4,16,num_4,0.733452798333,,,2017_Sep_13_1635,60.0134163634,FEMA4ImagesEEG,001,101446,
AFNE01.JPG,AFNE01.JPG,AFNE01.JPG,AFNE01.JPG,AFNE01.JPG,AFNE01.JPG,,,,,,,,,,,,,,,,,4,0,40,9,,,,,,,AFNE19.jpg,AFNE01.jpg,AFSA18.jpg,AFSA02.jpg,AFNE01.jpg,FN,3,num_6,32,num_8,0.700146225281,,,2017_Sep_13_1635,60.0134163634,FEMA4ImagesEEG,001,101446,
AFNE01.JPG,AFNE01.JPG,AFNE01.JPG,AFNE01.JPG,AFNE01.JPG,AFNE01.JPG,,,,,,,,,,,,,,,,,4,1,41,4,,,,,,,AFSA07.jpg,AFNE03.jpg,AFNE07.jpg,AFSA18.jpg,AFSA07.jpg,FS,4,num_8,32,num_4,0.716948174639,,,2017_Sep_13_1635,60.0134163634,FEMA4ImagesEEG,001,101446,
AFNE01.JPG,AFNE01.JPG,AFNE01.JPG,AFNE01.JPG,AFNE01.JPG,AFNE01.JPG,,,,,,,,,,,,,,,,,4,2,42,6,,,,,,,AFNE19.jpg,AFSA09.jpg,AFSA17.jpg,AFNE11.jpg,AFNE19.jpg,FN,3,num_8,32,num_6,0.766624660464,,,2017_Sep_13_1635,60.0134163634,FEMA4ImagesEEG,001,101446,
AFNE01.JPG,AFNE01.JPG,AFNE01.JPG,AFNE01.JPG,AFNE01.JPG,AFNE01.JPG,,,,,,,,,,,,,,,,,4,3,43,2,,,,,,,AFSA05.jpg,AFNE06.jpg,AFNE09.jpg,AFSA10.jpg,AFNE06.jpg,FN,3,num_6,32,num_8,4.26690675109,,,2017_Sep_13_1635,60.0134163634,FEMA4ImagesEEG,001,101446,
AFNE01.JPG,AFNE01.JPG,AFNE01.JPG,AFNE01.JPG,AFNE01.JPG,AFNE01.JPG,,,,,,,,,,,,,,,,,4,4,44,0,,,,,,,AFSA03.jpg,AFSA20.jpg,AFNE02.jpg,AFNE12.jpg,AFNE02.jpg,FN,3,num_2,16,num_2,0.616818691837,,,2017_Sep_13_1635,60.0134163634,FEMA4ImagesEEG,001,101446,
AFNE01.JPG,AFNE01.JPG,AFNE01.JPG,AFNE01.JPG,AFNE01.JPG,AFNE01.JPG,,,,,,,,,,,,,,,,,4,5,45,5,,,,,,,AFNE13.jpg,AFSA02.jpg,AFSA07.jpg,AFNE04.jpg,AFNE04.jpg,FN,3,num_4,16,num_4,0.483531459467,,,2017_Sep_13_1635,60.0134163634,FEMA4ImagesEEG,001,101446,
AFNE01.JPG,AFNE01.JPG,AFNE01.JPG,AFNE01.JPG,AFNE01.JPG,AFNE01.JPG,,,,,,,,,,,,,,,,,4,6,46,1,,,,,,,AFNE09.jpg,AFSA11.jpg,AFNE04.jpg,AFSA09.jpg,AFNE09.jpg,FN,3,num_8,32,num_2,1.11675438355,,,2017_Sep_13_1635,60.0134163634,FEMA4ImagesEEG,001,101446,
AFNE01.JPG,AFNE01.JPG,AFNE01.JPG,AFNE01.JPG,AFNE01.JPG,AFNE01.JPG,,,,,,,,,,,,,,,,,4,7,47,8,,,,,,,AFSA02.jpg,AFSA20.jpg,AFNE17.jpg,AFNE13.jpg,AFNE13.jpg,FN,3,num_4,32,num_8,0.300216531381,,,2017_Sep_13_1635,60.0134163634,FEMA4ImagesEEG,001,101446,
AFNE01.JPG,AFNE01.JPG,AFNE01.JPG,AFNE01.JPG,AFNE01.JPG,AFNE01.JPG,,,,,,,,,,,,,,,,,4,8,48,7,,,,,,,AFSA03.jpg,AFNE16.jpg,AFSA02.jpg,AFNE17.jpg,AFSA02.jpg,FS,4,num_2,32,num_6,0.383496274473,,,2017_Sep_13_1635,60.0134163634,FEMA4ImagesEEG,001,101446,
AFNE01.JPG,AFNE01.JPG,AFNE01.JPG,AFNE01.JPG,AFNE01.JPG,AFNE01.JPG,,,,,,,,,,,,,,,,,4,9,49,3,,,,,,,AFSA02.jpg,AFSA07.jpg,AFNE03.jpg,AFNE12.jpg,AFNE03.jpg,FN,3,num_2,16,num_2,0.650123661151,,,2017_Sep_13_1635,60.0134163634,FEMA4ImagesEEG,001,101446,
AFNE01.JPG,AFNE01.JPG,AFNE01.JPG,AFNE01.JPG,AFNE01.JPG,AFNE01.JPG,,,,,,,,,,,,,,,,,5,0,50,6,,,,,,,AFSA05.jpg,AFNE04.jpg,AFSA03.jpg,AFNE10.jpg,AFSA05.jpg,FS,4,num_8,32,num_2,0.849812992616,,,2017_Sep_13_1635,60.0134163634,FEMA4ImagesEEG,001,101446,
AFNE01.JPG,AFNE01.JPG,AFNE01.JPG,AFNE01.JPG,AFNE01.JPG,AFNE01.JPG,,,,,,,,,,,,,,,,,5,1,51,5,,,,,,,AFNE20.jpg,AFSA02.jpg,AFSA13.jpg,AFNE13.jpg,AFSA13.jpg,FS,4,num_2,16,num_2,0.733546133386,,,2017_Sep_13_1635,60.0134163634,FEMA4ImagesEEG,001,101446,
AFNE01.JPG,AFNE01.JPG,AFNE01.JPG,AFNE01.JPG,AFNE01.JPG,AFNE01.JPG,,,,,,,,,,,,,,,,,5,2,52,8,,,,,,,AFNE17.jpg,AFSA05.jpg,AFNE13.jpg,AFSA17.jpg,AFSA17.jpg,FS,4,num_4,16,num_4,0.483497781912,,,2017_Sep_13_1635,60.0134163634,FEMA4ImagesEEG,001,101446,
AFNE01.JPG,AFNE01.JPG,AFNE01.JPG,AFNE01.JPG,AFNE01.JPG,AFNE01.JPG,,,,,,,,,,,,,,,,,5,3,53,7,,,,,,,AFNE01.jpg,AFSA04.jpg,AFSA09.jpg,AFNE17.jpg,AFNE01.jpg,FN,3,num_8,16,num_8,0.783584734658,,,2017_Sep_13_1635,60.0134163634,FEMA4ImagesEEG,001,101446,
AFNE01.JPG,AFNE01.JPG,AFNE01.JPG,AFNE01.JPG,AFNE01.JPG,AFNE01.JPG,,,,,,,,,,,,,,,,,5,4,54,0,,,,,,,AFNE04.jpg,AFSA08.jpg,AFSA19.jpg,AFNE11.jpg,AFNE04.jpg,FN,3,num_8,32,num_4,0.733425535262,,,2017_Sep_13_1635,60.0134163634,FEMA4ImagesEEG,001,101446,
AFNE01.JPG,AFNE01.JPG,AFNE01.JPG,AFNE01.JPG,AFNE01.JPG,AFNE01.JPG,,,,,,,,,,,,,,,,,5,5,55,2,,,,,,,AFSA04.jpg,AFSA03.jpg,AFNE17.jpg,AFNE12.jpg,AFSA04.jpg,FS,4,num_8,16,num_8,0.750143771525,,,2017_Sep_13_1635,60.0134163634,FEMA4ImagesEEG,001,101446,
AFNE01.JPG,AFNE01.JPG,AFNE01.JPG,AFNE01.JPG,AFNE01.JPG,AFNE01.JPG,,,,,,,,,,,,,,,,,5,6,56,9,,,,,,,AFNE10.jpg,AFSA12.jpg,AFSA19.jpg,AFNE05.jpg,AFSA19.jpg,FS,4,num_2,32,num_8,1.0334579621,,,2017_Sep_13_1635,60.0134163634,FEMA4ImagesEEG,001,101446,
AFNE01.JPG,AFNE01.JPG,AFNE01.JPG,AFNE01.JPG,AFNE01.JPG,AFNE01.JPG,,,,,,,,,,,,,,,,,5,7,57,4,,,,,,,AFSA07.jpg,AFNE05.jpg,AFNE15.jpg,AFSA12.jpg,AFNE05.jpg,FN,3,num_6,16,num_6,0.750246729003,,,2017_Sep_13_1635,60.0134163634,FEMA4ImagesEEG,001,101446,
AFNE01.JPG,AFNE01.JPG,AFNE01.JPG,AFNE01.JPG,AFNE01.JPG,AFNE01.JPG,,,,,,,,,,,,,,,,,5,8,58,3,,,,,,,AFNE08.jpg,AFSA04.jpg,AFNE04.jpg,AFSA17.jpg,AFSA04.jpg,FS,4,num_6,32,num_2,0.766770597082,,,2017_Sep_13_1635,60.0134163634,FEMA4ImagesEEG,001,101446,
AFNE01.JPG,AFNE01.JPG,AFNE01.JPG,AFNE01.JPG,AFNE01.JPG,AFNE01.JPG,,,,,,,,,,,,,,,,,5,9,59,1,,,,,,,AFSA10.jpg,AFNE09.jpg,AFNE20.jpg,AFSA03.jpg,AFSA03.jpg,FS,4,num_4,16,num_4,0.833480606321,,,2017_Sep_13_1635,60.0134163634,FEMA4ImagesEEG,001,101446,
,,,,,,,,,,,,,,,,,,,,,,,,,,,,,,,,,,,,,,,,,,,space,36.0306694512,2017_Sep_13_1635,60.0134163634,FEMA4ImagesEEG,001,101446,
AFNE01.JPG,AFNE01.JPG,AFNE01.JPG,AFNE01.JPG,AFNE01.JPG,AFNE01.JPG,,,,,,,,,,,,,,,,,,,,,0,0,0,9,,,AMSA06.jpg,AMSA13.jpg,AMNE11.jpg,AMNE04.jpg,AMNE04.jpg,MN,1,num_4,16,num_4,0.933478265069,,,2017_Sep_13_1635,60.0134163634,FEMA4ImagesEEG,001,101446,
AFNE01.JPG,AFNE01.JPG,AFNE01.JPG,AFNE01.JPG,AFNE01.JPG,AFNE01.JPG,,,,,,,,,,,,,,,,,,,,,0,1,1,6,,,AMNE15.jpg,AMSA20.jpg,AMNE05.jpg,AMSA02.jpg,AMSA20.jpg,MS,2,num_6,16,num_6,0.650185563834,,,2017_Sep_13_1635,60.0134163634,FEMA4ImagesEEG,001,101446,
AFNE01.JPG,AFNE01.JPG,AFNE01.JPG,AFNE01.JPG,AFNE01.JPG,AFNE01.JPG,,,,,,,,,,,,,,,,,,,,,0,2,2,5,,,AMSA11.jpg,AMSA19.jpg,AMNE06.jpg,AMNE03.jpg,AMNE03.jpg,MN,1,num_4,16,num_4,0.750177449314,,,2017_Sep_13_1635,60.0134163634,FEMA4ImagesEEG,001,101446,
AFNE01.JPG,AFNE01.JPG,AFNE01.JPG,AFNE01.JPG,AFNE01.JPG,AFNE01.JPG,,,,,,,,,,,,,,,,,,,,,0,3,3,4,,,AMSA18.jpg,AMNE01.jpg,AMSA11.jpg,AMNE05.jpg,AMNE05.jpg,MN,1,num_4,16,num_4,0.550237299409,,,2017_Sep_13_1635,60.0134163634,FEMA4ImagesEEG,001,101446,
AFNE01.JPG,AFNE01.JPG,AFNE01.JPG,AFNE01.JPG,AFNE01.JPG,AFNE01.JPG,,,,,,,,,,,,,,,,,,,,,0,4,4,7,,,AMSA16.jpg,AMSA02.jpg,AMNE09.jpg,AMNE11.jpg,AMNE09.jpg,MN,1,num_2,16,num_2,0.483507083496,,,2017_Sep_13_1635,60.0134163634,FEMA4ImagesEEG,001,101446,
AFNE01.JPG,AFNE01.JPG,AFNE01.JPG,AFNE01.JPG,AFNE01.JPG,AFNE01.JPG,,,,,,,,,,,,,,,,,,,,,0,5,5,0,,,AMSA10.jpg,AMNE12.jpg,AMSA06.jpg,AMNE08.jpg,AMSA10.jpg,MS,2,num_8,16,num_8,1.00016678474,,,2017_Sep_13_1635,60.0134163634,FEMA4ImagesEEG,001,101446,
AFNE01.JPG,AFNE01.JPG,AFNE01.JPG,AFNE01.JPG,AFNE01.JPG,AFNE01.JPG,,,,,,,,,,,,,,,,,,,,,0,6,6,1,,,AMNE09.jpg,AMSA02.jpg,AMNE06.jpg,AMSA08.jpg,AMSA08.jpg,MS,2,num_4,32,num_2,1.28366475902,,,2017_Sep_13_1635,60.0134163634,FEMA4ImagesEEG,001,101446,
AFNE01.JPG,AFNE01.JPG,AFNE01.JPG,AFNE01.JPG,AFNE01.JPG,AFNE01.JPG,,,,,,,,,,,,,,,,,,,,,0,7,7,3,,,AMNE04.jpg,AMSA11.jpg,AMSA10.jpg,AMNE14.jpg,AMNE14.jpg,MN,1,num_4,16,num_4,0.5501401152,,,2017_Sep_13_1635,60.0134163634,FEMA4ImagesEEG,001,101446,
AFNE01.JPG,AFNE01.JPG,AFNE01.JPG,AFNE01.JPG,AFNE01.JPG,AFNE01.JPG,,,,,,,,,,,,,,,,,,,,,0,8,8,2,,,AMNE11.jpg,AMSA15.jpg,AMSA20.jpg,AMNE03.jpg,AMNE11.jpg,MN,1,num_8,32,num_4,0.666821049294,,,2017_Sep_13_1635,60.0134163634,FEMA4ImagesEEG,001,101446,
AFNE01.JPG,AFNE01.JPG,AFNE01.JPG,AFNE01.JPG,AFNE01.JPG,AFNE01.JPG,,,,,,,,,,,,,,,,,,,,,0,9,9,8,,,AMNE08.jpg,AMSA12.jpg,AMSA20.jpg,AMNE16.jpg,AMSA12.jpg,MS,2,num_6,32,num_8,1.08348437515,,,2017_Sep_13_1635,60.0134163634,FEMA4ImagesEEG,001,101446,
AFNE01.JPG,AFNE01.JPG,AFNE01.JPG,AFNE01.JPG,AFNE01.JPG,AFNE01.JPG,,,,,,,,,,,,,,,,,,,,,1,0,10,6,,,AMNE06.jpg,AMNE05.jpg,AMSA08.jpg,AMSA19.jpg,AMNE06.jpg,MN,1,num_8,32,num_6,0.650389875285,,,2017_Sep_13_1635,60.0134163634,FEMA4ImagesEEG,001,101446,
AFNE01.JPG,AFNE01.JPG,AFNE01.JPG,AFNE01.JPG,AFNE01.JPG,AFNE01.JPG,,,,,,,,,,,,,,,,,,,,,1,1,11,8,,,AMSA05.jpg,AMSA07.jpg,AMNE18.jpg,AMNE12.jpg,AMNE18.jpg,MN,1,num_2,16,num_2,0.700133716455,,,2017_Sep_13_1635,60.0134163634,FEMA4ImagesEEG,001,101446,
AFNE01.JPG,AFNE01.JPG,AFNE01.JPG,AFNE01.JPG,AFNE01.JPG,AFNE01.JPG,,,,,,,,,,,,,,,,,,,,,1,2,12,0,,,AMNE05.jpg,AMNE15.jpg,AMSA14.jpg,AMSA06.jpg,AMNE15.jpg,MN,1,num_6,32,num_8,0.716770484578,,,2017_Sep_13_1635,60.0134163634,FEMA4ImagesEEG,001,101446,
AFNE01.JPG,AFNE01.JPG,AFNE01.JPG,AFNE01.JPG,AFNE01.JPG,AFNE01.JPG,,,,,,,,,,,,,,,,,,,,,1,3,13,7,,,AMNE17.jpg,AMSA17.jpg,AMSA01.jpg,AMNE08.jpg,AMNE17.jpg,MN,1,num_8,32,num_6,1.05014797323,,,2017_Sep_13_1635,60.0134163634,FEMA4ImagesEEG,001,101446,
AFNE01.JPG,AFNE01.JPG,AFNE01.JPG,AFNE01.JPG,AFNE01.JPG,AFNE01.JPG,,,,,,,,,,,,,,,,,,,,,1,4,14,1,,,AMSA03.jpg,AMNE08.jpg,AMNE01.jpg,AMSA18.jpg,AMNE08.jpg,MN,1,num_6,16,num_6,0.816763011506,,,2017_Sep_13_1635,60.0134163634,FEMA4ImagesEEG,001,101446,
AFNE01.JPG,AFNE01.JPG,AFNE01.JPG,AFNE01.JPG,AFNE01.JPG,AFNE01.JPG,,,,,,,,,,,,,,,,,,,,,1,5,15,2,,,AMSA13.jpg,AMNE04.jpg,AMNE20.jpg,AMSA14.jpg,AMNE04.jpg,MN,1,num_6,32,num_4,0.750141205732,,,2017_Sep_13_1635,60.0134163634,FEMA4ImagesEEG,001,101446,
AFNE01.JPG,AFNE01.JPG,AFNE01.JPG,AFNE01.JPG,AFNE01.JPG,AFNE01.JPG,,,,,,,,,,,,,,,,,,,,,1,6,16,4,,,AMNE20.jpg,AMNE13.jpg,AMSA10.jpg,AMSA11.jpg,AMNE13.jpg,MN,1,num_6,32,num_8,0.800048303558,,,2017_Sep_13_1635,60.0134163634,FEMA4ImagesEEG,001,101446,
AFNE01.JPG,AFNE01.JPG,AFNE01.JPG,AFNE01.JPG,AFNE01.JPG,AFNE01.JPG,,,,,,,,,,,,,,,,,,,,,1,7,17,9,,,AMNE18.jpg,AMSA09.jpg,AMSA17.jpg,AMNE06.jpg,AMSA09.jpg,MS,2,num_6,16,num_6,0.516770035727,,,2017_Sep_13_1635,60.0134163634,FEMA4ImagesEEG,001,101446,
AFNE01.JPG,AFNE01.JPG,AFNE01.JPG,AFNE01.JPG,AFNE01.JPG,AFNE01.JPG,,,,,,,,,,,,,,,,,,,,,1,8,18,5,,,AMSA11.jpg,AMNE05.jpg,AMSA05.jpg,AMNE14.jpg,AMSA05.jpg,MS,2,num_2,32,num_8,0.650135207921,,,2017_Sep_13_1635,60.0134163634,FEMA4ImagesEEG,001,101446,
AFNE01.JPG,AFNE01.JPG,AFNE01.JPG,AFNE01.JPG,AFNE01.JPG,AFNE01.JPG,,,,,,,,,,,,,,,,,,,,,1,9,19,3,,,AMSA03.jpg,AMSA15.jpg,AMNE18.jpg,AMNE03.jpg,AMNE18.jpg,MN,1,num_2,16,num_2,0.383569403086,,,2017_Sep_13_1635,60.0134163634,FEMA4ImagesEEG,001,101446,
AFNE01.JPG,AFNE01.JPG,AFNE01.JPG,AFNE01.JPG,AFNE01.JPG,AFNE01.JPG,,,,,,,,,,,,,,,,,,,,,2,0,20,6,,,AMNE10.jpg,AMSA10.jpg,AMNE08.jpg,AMSA20.jpg,AMSA10.jpg,MS,2,num_6,32,num_4,0.466821241658,,,2017_Sep_13_1635,60.0134163634,FEMA4ImagesEEG,001,101446,
AFNE01.JPG,AFNE01.JPG,AFNE01.JPG,AFNE01.JPG,AFNE01.JPG,AFNE01.JPG,,,,,,,,,,,,,,,,,,,,,2,1,21,5,,,AMSA20.jpg,AMSA03.jpg,AMNE17.jpg,AMNE04.jpg,AMSA20.jpg,MS,2,num_8,32,num_6,0.666851519607,,,2017_Sep_13_1635,60.0134163634,FEMA4ImagesEEG,001,101446,
AFNE01.JPG,AFNE01.JPG,AFNE01.JPG,AFNE01.JPG,AFNE01.JPG,AFNE01.JPG,,,,,,,,,,,,,,,,,,,,,2,2,22,2,,,AMSA20.jpg,AMNE14.jpg,AMNE09.jpg,AMSA01.jpg,AMNE09.jpg,MN,1,num_2,32,num_8,0.63349010027,,,2017_Sep_13_1635,60.0134163634,FEMA4ImagesEEG,001,101446,
AFNE01.JPG,AFNE01.JPG,AFNE01.JPG,AFNE01.JPG,AFNE01.JPG,AFNE01.JPG,,,,,,,,,,,,,,,,,,,,,2,3,23,4,,,AMNE04.jpg,AMSA20.jpg,AMNE09.jpg,AMSA11.jpg,AMNE09.jpg,MN,1,num_2,16,num_2,0.650123019703,,,2017_Sep_13_1635,60.0134163634,FEMA4ImagesEEG,001,101446,
AFNE01.JPG,AFNE01.JPG,AFNE01.JPG,AFNE01.JPG,AFNE01.JPG,AFNE01.JPG,,,,,,,,,,,,,,,,,,,,,2,4,24,7,,,AMNE19.jpg,AMSA06.jpg,AMSA03.jpg,AMNE20.jpg,AMNE20.jpg,MN,1,num_4,16,num_4,0.633329730248,,,2017_Sep_13_1635,60.0134163634,FEMA4ImagesEEG,001,101446,
AFNE01.JPG,AFNE01.JPG,AFNE01.JPG,AFNE01.JPG,AFNE01.JPG,AFNE01.JPG,,,,,,,,,,,,,,,,,,,,,2,5,25,3,,,AMSA16.jpg,AMNE05.jpg,AMNE11.jpg,AMSA04.jpg,AMSA16.jpg,MS,2,num_8,32,num_4,0.88344447501,,,2017_Sep_13_1635,60.0134163634,FEMA4ImagesEEG,001,101446,
AFNE01.JPG,AFNE01.JPG,AFNE01.JPG,AFNE01.JPG,AFNE01.JPG,AFNE01.JPG,,,,,,,,,,,,,,,,,,,,,2,6,26,8,,,AMNE03.jpg,AMNE07.jpg,AMSA06.jpg,AMSA03.jpg,AMNE03.jpg,MN,1,num_8,32,num_6,0.750127093168,,,2017_Sep_13_1635,60.0134163634,FEMA4ImagesEEG,001,101446,
AFNE01.JPG,AFNE01.JPG,AFNE01.JPG,AFNE01.JPG,AFNE01.JPG,AFNE01.JPG,,,,,,,,,,,,,,,,,,,,,2,7,27,1,,,AMSA01.jpg,AMNE09.jpg,AMSA06.jpg,AMNE04.jpg,AMSA01.jpg,MS,2,num_8,32,num_4,0.683468402363,,,2017_Sep_13_1635,60.0134163634,FEMA4ImagesEEG,001,101446,
AFNE01.JPG,AFNE01.JPG,AFNE01.JPG,AFNE01.JPG,AFNE01.JPG,AFNE01.JPG,,,,,,,,,,,,,,,,,,,,,2,8,28,9,,,AMSA01.jpg,AMNE11.jpg,AMSA18.jpg,AMNE07.jpg,AMSA18.jpg,MS,2,num_2,16,num_2,0.700112226885,,,2017_Sep_13_1635,60.0134163634,FEMA4ImagesEEG,001,101446,
AFNE01.JPG,AFNE01.JPG,AFNE01.JPG,AFNE01.JPG,AFNE01.JPG,AFNE01.JPG,,,,,,,,,,,,,,,,,,,,,2,9,29,0,,,AMSA08.jpg,AMNE20.jpg,AMNE10.jpg,AMSA01.jpg,AMSA08.jpg,MS,2,num_8,32,num_2,0.633464761777,,,2017_Sep_13_1635,60.0134163634,FEMA4ImagesEEG,001,101446,
AFNE01.JPG,AFNE01.JPG,AFNE01.JPG,AFNE01.JPG,AFNE01.JPG,AFNE01.JPG,,,,,,,,,,,,,,,,,,,,,3,0,30,2,,,AMNE16.jpg,AMSA14.jpg,AMSA10.jpg,AMNE02.jpg,AMNE16.jpg,MN,1,num_8,16,num_8,0.783521548612,,,2017_Sep_13_1635,60.0134163634,FEMA4ImagesEEG,001,101446,
AFNE01.JPG,AFNE01.JPG,AFNE01.JPG,AFNE01.JPG,AFNE01.JPG,AFNE01.JPG,,,,,,,,,,,,,,,,,,,,,3,1,31,8,,,AMNE09.jpg,AMNE20.jpg,AMSA17.jpg,AMSA19.jpg,AMNE09.jpg,MN,1,num_8,32,num_6,0.550291183637,,,2017_Sep_13_1635,60.0134163634,FEMA4ImagesEEG,001,101446,
AFNE01.JPG,AFNE01.JPG,AFNE01.JPG,AFNE01.JPG,AFNE01.JPG,AFNE01.JPG,,,,,,,,,,,,,,,,,,,,,3,2,32,1,,,AMNE12.jpg,AMSA04.jpg,AMNE19.jpg,AMSA16.jpg,AMNE12.jpg,MN,1,num_8,32,num_2,0.716833028942,,,2017_Sep_13_1635,60.0134163634,FEMA4ImagesEEG,001,101446,
AFNE01.JPG,AFNE01.JPG,AFNE01.JPG,AFNE01.JPG,AFNE01.JPG,AFNE01.JPG,,,,,,,,,,,,,,,,,,,,,3,3,33,4,,,AMNE06.jpg,AMNE04.jpg,AMSA06.jpg,AMSA11.jpg,AMSA11.jpg,MS,2,num_4,16,num_4,0.50029844814,,,2017_Sep_13_1635,60.0134163634,FEMA4ImagesEEG,001,101446,
AFNE01.JPG,AFNE01.JPG,AFNE01.JPG,AFNE01.JPG,AFNE01.JPG,AFNE01.JPG,,,,,,,,,,,,,,,,,,,,,3,4,34,5,,,AMSA19.jpg,AMNE11.jpg,AMSA11.jpg,AMNE09.jpg,AMSA19.jpg,MS,2,num_8,32,num_2,0.933520923136,,,2017_Sep_13_1635,60.0134163634,FEMA4ImagesEEG,001,101446,
AFNE01.JPG,AFNE01.JPG,AFNE01.JPG,AFNE01.JPG,AFNE01.JPG,AFNE01.JPG,,,,,,,,,,,,,,,,,,,,,3,5,35,3,,,AMNE03.jpg,AMSA05.jpg,AMSA16.jpg,AMNE07.jpg,AMNE07.jpg,MN,1,num_4,32,num_8,0.683419008274,,,2017_Sep_13_1635,60.0134163634,FEMA4ImagesEEG,001,101446,
AFNE01.JPG,AFNE01.JPG,AFNE01.JPG,AFNE01.JPG,AFNE01.JPG,AFNE01.JPG,,,,,,,,,,,,,,,,,,,,,3,6,36,7,,,AMNE16.jpg,AMNE10.jpg,AMSA05.jpg,AMSA04.jpg,AMNE16.jpg,MN,1,num_8,32,num_6,0.950096751098,,,2017_Sep_13_1635,60.0134163634,FEMA4ImagesEEG,001,101446,
AFNE01.JPG,AFNE01.JPG,AFNE01.JPG,AFNE01.JPG,AFNE01.JPG,AFNE01.JPG,,,,,,,,,,,,,,,,,,,,,3,7,37,9,,,AMSA04.jpg,AMNE07.jpg,AMSA01.jpg,AMNE06.jpg,AMNE07.jpg,MN,1,num_6,16,num_6,0.616758713732,,,2017_Sep_13_1635,60.0134163634,FEMA4ImagesEEG,001,101446,
AFNE01.JPG,AFNE01.JPG,AFNE01.JPG,AFNE01.JPG,AFNE01.JPG,AFNE01.JPG,,,,,,,,,,,,,,,,,,,,,3,8,38,0,,,AMNE20.jpg,AMSA18.jpg,AMSA16.jpg,AMNE10.jpg,AMSA18.jpg,MS,2,num_6,16,num_6,0.816793481819,,,2017_Sep_13_1635,60.0134163634,FEMA4ImagesEEG,001,101446,
