IPosition2,IPosition3,IPosition1,IPosition6,IPosition4,IPosition5,TrialsM1.thisRepN,TrialsM1.thisTrialN,TrialsM1.thisN,TrialsM1.thisIndex,TrialsF1.thisRepN,TrialsF1.thisTrialN,TrialsF1.thisN,TrialsF1.thisIndex,TrialsM2.thisRepN,TrialsM2.thisTrialN,TrialsM2.thisN,TrialsM2.thisIndex,TrialsF2.thisRepN,TrialsF2.thisTrialN,TrialsF2.thisN,TrialsF2.thisIndex,TrialsM3.thisRepN,TrialsM3.thisTrialN,TrialsM3.thisN,TrialsM3.thisIndex,TrialsF3.thisRepN,TrialsF3.thisTrialN,TrialsF3.thisN,TrialsF3.thisIndex,InstrKey_resp.keys,InstrKey_resp.rt,Image0 _Position,Image1 _Position,Image2 _Position,Image3 _Position,Center_image,condition,code,correct_answer,accuracy,Key_Resp.keys,Key_Resp.rt,BreakKey_resp.keys,BreakKey_resp.rt,date,frameRate,expName,session,participant,
,,,,,,,,,,,,,,,,,,,,,,,,,,,,,,space,23.8819774873,,,,,,,,,,,,,,2017_Aug_28_1146,60.0039838513,MAFE4ImagesEEG,001,101474,
AFNE22.JPG,AFSA24.JPG,AFSA22.JPG,AFNE25.JPG,AFNE24.JPG,AFSA25.JPG,0,0,0,6,,,,,,,,,,,,,,,,,,,,,,,AMSA09.jpg,AMNE09.jpg,AMSA07.jpg,AMNE14.jpg,AMSA07.jpg,MS,2,num_2,32,num_6,2.06664934673,,,2017_Aug_28_1146,60.0039838513,MAFE4ImagesEEG,001,101474,
AFSA21.JPG,AFNE22.JPG,AFNE21.JPG,AFSA23.JPG,AFSA22.JPG,AFNE23.JPG,0,1,1,0,,,,,,,,,,,,,,,,,,,,,,,AMSA17.jpg,AMNE01.jpg,AMSA14.jpg,AMNE05.jpg,AMNE01.jpg,MN,1,num_6,32,num_8,2.03338994386,,,2017_Aug_28_1146,60.0039838513,MAFE4ImagesEEG,001,101474,
AMSA21.JPG,AMNE22.JPG,AMNE21.JPG,AMSA23.JPG,AMSA22.JPG,AMNE23.JPG,0,2,2,1,,,,,,,,,,,,,,,,,,,,,,,AMNE20.jpg,AMSA01.jpg,AMSA12.jpg,AMNE06.jpg,AMSA12.jpg,MS,2,num_2,16,num_2,1.23341945189,,,2017_Aug_28_1146,60.0039838513,MAFE4ImagesEEG,001,101474,
AMSA25.JPG,AMNE24.JPG,AMSA24.JPG,AMNE26.JPG,AMSA21.JPG,AMNE25.JPG,0,3,3,3,,,,,,,,,,,,,,,,,,,,,,,AMSA12.jpg,AMNE09.jpg,AMNE17.jpg,AMSA17.jpg,AMSA12.jpg,MS,2,num_8,32,num_6,1.0499946276,,,2017_Aug_28_1146,60.0039838513,MAFE4ImagesEEG,001,101474,
AFNE23.JPG,AFNE24.JPG,AFNE22.JPG,AFSA24.JPG,AFSA22.JPG,AFSA23.JPG,0,4,4,8,,,,,,,,,,,,,,,,,,,,,,,AMNE11.jpg,AMSA01.jpg,AMNE03.jpg,AMSA05.jpg,AMNE11.jpg,MN,1,num_8,16,num_8,1.41673330028,,,2017_Aug_28_1146,60.0039838513,MAFE4ImagesEEG,001,101474,
AMNE22.JPG,AMSA24.JPG,AMSA22.JPG,AMNE25.JPG,AMNE24.JPG,AMSA25.JPG,0,5,5,7,,,,,,,,,,,,,,,,,,,,,,,AMSA04.jpg,AMSA09.jpg,AMNE16.jpg,AMNE06.jpg,AMSA09.jpg,MS,2,num_6,32,num_8,1.50008323189,,,2017_Aug_28_1146,60.0039838513,MAFE4ImagesEEG,001,101474,
AFSA25.JPG,AFNE24.JPG,AFSA24.JPG,AFNE21.JPG,AFSA21.JPG,AFNE25.JPG,0,6,6,2,,,,,,,,,,,,,,,,,,,,,,,AMNE01.jpg,AMSA19.jpg,AMSA06.jpg,AMNE06.jpg,AMNE01.jpg,MN,1,num_8,32,num_2,1.98376320442,,,2017_Aug_28_1146,60.0039838513,MAFE4ImagesEEG,001,101474,
AMNE23.JPG,AMNE24.JPG,AMNE22.JPG,AMSA24.JPG,AMSA22.JPG,AMSA23.JPG,0,7,7,9,,,,,,,,,,,,,,,,,,,,,,,AMSA02.jpg,AMSA19.jpg,AMNE03.jpg,AMNE02.jpg,AMNE03.jpg,MN,1,num_2,16,num_2,1.45010271683,,,2017_Aug_28_1146,60.0039838513,MAFE4ImagesEEG,001,101474,
AFSA21.JPG,AFNE23.JPG,AFNE21.JPG,AFSA25.JPG,AFNE25.JPG,AFSA23.JPG,0,8,8,4,,,,,,,,,,,,,,,,,,,,,,,AMSA09.jpg,AMNE17.jpg,AMSA16.jpg,AMNE10.jpg,AMNE17.jpg,MN,1,num_6,32,num_4,2.99999454743,,,2017_Aug_28_1146,60.0039838513,MAFE4ImagesEEG,001,101474,
AMSA21.JPG,AMNE23.JPG,AMNE21.JPG,AMSA25.JPG,AMNE25.JPG,AMSA23.JPG,0,9,9,5,,,,,,,,,,,,,,,,,,,,,,,AMSA09.jpg,AMNE01.jpg,AMNE12.jpg,AMSA05.jpg,AMNE01.jpg,MN,1,num_6,32,num_4,1.98337382669,,,2017_Aug_28_1146,60.0039838513,MAFE4ImagesEEG,001,101474,
AMSA25.JPG,AMNE24.JPG,AMSA24.JPG,AMNE26.JPG,AMSA21.JPG,AMNE25.JPG,,,,,0,0,0,3,,,,,,,,,,,,,,,,,,,AFNE06.jpg,AFSA12.jpg,AFSA03.jpg,AFNE07.jpg,AFSA03.jpg,FS,4,num_2,32,num_8,1.25013960185,,,2017_Aug_28_1146,60.0039838513,MAFE4ImagesEEG,001,101474,
AFNE23.JPG,AFNE24.JPG,AFNE22.JPG,AFSA24.JPG,AFSA22.JPG,AFSA23.JPG,,,,,0,1,1,8,,,,,,,,,,,,,,,,,,,AFSA20.jpg,AFNE01.jpg,AFSA05.jpg,AFNE13.jpg,AFNE13.jpg,FN,3,num_4,32,num_8,1.10007585489,,,2017_Aug_28_1146,60.0039838513,MAFE4ImagesEEG,001,101474,
AFSA21.JPG,AFNE22.JPG,AFNE21.JPG,AFSA23.JPG,AFSA22.JPG,AFNE23.JPG,,,,,0,2,2,0,,,,,,,,,,,,,,,,,,,AFNE17.jpg,AFSA19.jpg,AFNE19.jpg,AFSA15.jpg,AFSA19.jpg,FS,4,num_6,32,num_8,1.08345545491,,,2017_Aug_28_1146,60.0039838513,MAFE4ImagesEEG,001,101474,
AMNE23.JPG,AMNE24.JPG,AMNE22.JPG,AMSA24.JPG,AMSA22.JPG,AMSA23.JPG,,,,,0,3,3,9,,,,,,,,,,,,,,,,,,,AFNE16.jpg,AFSA04.jpg,AFNE13.jpg,AFSA18.jpg,AFNE16.jpg,FN,3,num_8,16,num_8,1.36671173057,,,2017_Aug_28_1146,60.0039838513,MAFE4ImagesEEG,001,101474,
AFSA25.JPG,AFNE24.JPG,AFSA24.JPG,AFNE21.JPG,AFSA21.JPG,AFNE25.JPG,,,,,0,4,4,2,,,,,,,,,,,,,,,,,,,AFNE12.jpg,AFSA16.jpg,AFNE01.jpg,AFSA20.jpg,AFSA16.jpg,FS,4,num_6,32,num_2,1.71668887787,,,2017_Aug_28_1146,60.0039838513,MAFE4ImagesEEG,001,101474,
AMSA21.JPG,AMNE22.JPG,AMNE21.JPG,AMSA23.JPG,AMSA22.JPG,AMNE23.JPG,,,,,0,5,5,1,,,,,,,,,,,,,,,,,,,AFNE15.jpg,AFSA17.jpg,AFSA01.jpg,AFNE02.jpg,AFSA01.jpg,FS,4,num_2,16,num_2,1.3334353285,,,2017_Aug_28_1146,60.0039838513,MAFE4ImagesEEG,001,101474,
AFSA21.JPG,AFNE23.JPG,AFNE21.JPG,AFSA25.JPG,AFNE25.JPG,AFSA23.JPG,,,,,0,6,6,4,,,,,,,,,,,,,,,,,,,AFSA09.jpg,AFSA17.jpg,AFNE01.jpg,AFNE03.jpg,AFNE01.jpg,FN,3,num_2,32,num_4,0.98353676236,,,2017_Aug_28_1146,60.0039838513,MAFE4ImagesEEG,001,101474,
AMNE22.JPG,AMSA24.JPG,AMSA22.JPG,AMNE25.JPG,AMNE24.JPG,AMSA25.JPG,,,,,0,7,7,7,,,,,,,,,,,,,,,,,,,AFNE05.jpg,AFSA19.jpg,AFSA20.jpg,AFNE03.jpg,AFSA19.jpg,FS,4,num_6,16,num_6,1.38342225837,,,2017_Aug_28_1146,60.0039838513,MAFE4ImagesEEG,001,101474,
AFNE22.JPG,AFSA24.JPG,AFSA22.JPG,AFNE25.JPG,AFNE24.JPG,AFSA25.JPG,,,,,0,8,8,6,,,,,,,,,,,,,,,,,,,AFNE18.jpg,AFSA03.jpg,AFSA02.jpg,AFNE02.jpg,AFNE02.jpg,FN,3,num_4,32,num_2,1.28343556906,,,2017_Aug_28_1146,60.0039838513,MAFE4ImagesEEG,001,101474,
AMSA21.JPG,AMNE23.JPG,AMNE21.JPG,AMSA25.JPG,AMNE25.JPG,AMSA23.JPG,,,,,0,9,9,5,,,,,,,,,,,,,,,,,,,AFSA02.jpg,AFNE12.jpg,AFNE14.jpg,AFSA05.jpg,AFSA05.jpg,FS,4,num_4,32,num_8,1.88339323143,,,2017_Aug_28_1146,60.0039838513,MAFE4ImagesEEG,001,101474,
AFNE22.JPG,AFSA24.JPG,AFSA22.JPG,AFNE25.JPG,AFNE24.JPG,AFSA25.JPG,,,,,,,,,0,0,0,6,,,,,,,,,,,,,,,AMNE04.jpg,AMNE17.jpg,AMSA18.jpg,AMSA13.jpg,AMNE17.jpg,MN,1,num_6,32,num_2,1.08350164138,,,2017_Aug_28_1146,60.0039838513,MAFE4ImagesEEG,001,101474,
AFSA25.JPG,AFNE24.JPG,AFSA24.JPG,AFNE21.JPG,AFSA21.JPG,AFNE25.JPG,,,,,,,,,0,1,1,2,,,,,,,,,,,,,,,AMSA04.jpg,AMNE14.jpg,AMNE17.jpg,AMSA08.jpg,AMSA08.jpg,MS,2,num_4,16,num_4,1.20007024196,,,2017_Aug_28_1146,60.0039838513,MAFE4ImagesEEG,001,101474,
AMNE22.JPG,AMSA24.JPG,AMSA22.JPG,AMNE25.JPG,AMNE24.JPG,AMSA25.JPG,,,,,,,,,0,2,2,7,,,,,,,,,,,,,,,AMNE09.jpg,AMSA17.jpg,AMSA07.jpg,AMNE08.jpg,AMSA07.jpg,MS,2,num_2,16,num_2,1.25008154803,,,2017_Aug_28_1146,60.0039838513,MAFE4ImagesEEG,001,101474,
AMSA25.JPG,AMNE24.JPG,AMSA24.JPG,AMNE26.JPG,AMSA21.JPG,AMNE25.JPG,,,,,,,,,0,3,3,3,,,,,,,,,,,,,,,AMNE08.jpg,AMSA03.jpg,AMNE17.jpg,AMSA12.jpg,AMNE17.jpg,MN,1,num_2,32,num_8,0.83347365685,,,2017_Aug_28_1146,60.0039838513,MAFE4ImagesEEG,001,101474,
AFNE23.JPG,AFNE24.JPG,AFNE22.JPG,AFSA24.JPG,AFSA22.JPG,AFSA23.JPG,,,,,,,,,0,4,4,8,,,,,,,,,,,,,,,AMSA02.jpg,AMSA06.jpg,AMNE02.jpg,AMNE18.jpg,AMSA02.jpg,MS,2,num_8,32,num_2,1.10019581148,,,2017_Aug_28_1146,60.0039838513,MAFE4ImagesEEG,001,101474,
AMSA21.JPG,AMNE23.JPG,AMNE21.JPG,AMSA25.JPG,AMNE25.JPG,AMSA23.JPG,,,,,,,,,0,5,5,5,,,,,,,,,,,,,,,AMNE17.jpg,AMSA15.jpg,AMSA09.jpg,AMNE10.jpg,AMNE17.jpg,MN,1,num_8,32,num_2,1.46670804205,,,2017_Aug_28_1146,60.0039838513,MAFE4ImagesEEG,001,101474,
AMNE23.JPG,AMNE24.JPG,AMNE22.JPG,AMSA24.JPG,AMSA22.JPG,AMSA23.JPG,,,,,,,,,0,6,6,9,,,,,,,,,,,,,,,AMNE20.jpg,AMNE07.jpg,AMSA01.jpg,AMSA10.jpg,AMNE07.jpg,MN,1,num_6,32,num_4,1.68370595243,,,2017_Aug_28_1146,60.0039838513,MAFE4ImagesEEG,001,101474,
AFSA21.JPG,AFNE23.JPG,AFNE21.JPG,AFSA25.JPG,AFNE25.JPG,AFSA23.JPG,,,,,,,,,0,7,7,4,,,,,,,,,,,,,,,AMSA01.jpg,AMNE02.jpg,AMSA15.jpg,AMNE10.jpg,AMNE02.jpg,MN,1,num_6,16,num_6,1.26675583224,,,2017_Aug_28_1146,60.0039838513,MAFE4ImagesEEG,001,101474,
AFSA21.JPG,AFNE22.JPG,AFNE21.JPG,AFSA23.JPG,AFSA22.JPG,AFNE23.JPG,,,,,,,,,0,8,8,0,,,,,,,,,,,,,,,AMNE03.jpg,AMNE12.jpg,AMSA17.jpg,AMSA09.jpg,AMSA17.jpg,MS,2,num_2,32,num_8,1.43345280879,,,2017_Aug_28_1146,60.0039838513,MAFE4ImagesEEG,001,101474,
AMSA21.JPG,AMNE22.JPG,AMNE21.JPG,AMSA23.JPG,AMSA22.JPG,AMNE23.JPG,,,,,,,,,0,9,9,1,,,,,,,,,,,,,,,AMNE06.jpg,AMNE16.jpg,AMSA20.jpg,AMSA17.jpg,AMSA17.jpg,MS,2,num_4,32,num_8,1.91667380312,,,2017_Aug_28_1146,60.0039838513,MAFE4ImagesEEG,001,101474,
AMSA21.JPG,AMNE23.JPG,AMNE21.JPG,AMSA25.JPG,AMNE25.JPG,AMSA23.JPG,,,,,,,,,,,,,0,0,0,5,,,,,,,,,,,AFNE17.jpg,AFNE05.jpg,AFSA02.jpg,AFSA17.jpg,AFSA02.jpg,FS,4,num_2,16,num_2,1.38342161689,,,2017_Aug_28_1146,60.0039838513,MAFE4ImagesEEG,001,101474,
AMNE22.JPG,AMSA24.JPG,AMSA22.JPG,AMNE25.JPG,AMNE24.JPG,AMSA25.JPG,,,,,,,,,,,,,0,1,1,7,,,,,,,,,,,AFSA08.jpg,AFNE16.jpg,AFNE04.jpg,AFSA14.jpg,AFSA14.jpg,FS,4,num_4,32,num_2,1.86665287489,,,2017_Aug_28_1146,60.0039838513,MAFE4ImagesEEG,001,101474,
AMSA25.JPG,AMNE24.JPG,AMSA24.JPG,AMNE26.JPG,AMSA21.JPG,AMNE25.JPG,,,,,,,,,,,,,0,2,2,3,,,,,,,,,,,AFSA08.jpg,AFNE05.jpg,AFNE02.jpg,AFSA02.jpg,AFSA08.jpg,FS,4,num_8,32,num_4,1.35006823734,,,2017_Aug_28_1146,60.0039838513,MAFE4ImagesEEG,001,101474,
AFSA21.JPG,AFNE22.JPG,AFNE21.JPG,AFSA23.JPG,AFSA22.JPG,AFNE23.JPG,,,,,,,,,,,,,0,3,3,0,,,,,,,,,,,AFSA08.jpg,AFNE15.jpg,AFNE03.jpg,AFSA07.jpg,AFSA07.jpg,FS,4,num_4,16,num_4,1.46675807741,,,2017_Aug_28_1146,60.0039838513,MAFE4ImagesEEG,001,101474,
AFSA21.JPG,AFNE23.JPG,AFNE21.JPG,AFSA25.JPG,AFNE25.JPG,AFSA23.JPG,,,,,,,,,,,,,0,4,4,4,,,,,,,,,,,AFNE18.jpg,AFSA17.jpg,AFSA10.jpg,AFNE04.jpg,AFNE04.jpg,FN,3,num_4,32,num_2,1.91670844299,,,2017_Aug_28_1146,60.0039838513,MAFE4ImagesEEG,001,101474,
AFNE23.JPG,AFNE24.JPG,AFNE22.JPG,AFSA24.JPG,AFSA22.JPG,AFSA23.JPG,,,,,,,,,,,,,0,5,5,8,,,,,,,,,,,AFNE20.jpg,AFSA20.jpg,AFSA06.jpg,AFNE04.jpg,AFNE04.jpg,FN,3,num_4,32,num_8,1.09999919817,,,2017_Aug_28_1146,60.0039838513,MAFE4ImagesEEG,001,101474,
AFSA25.JPG,AFNE24.JPG,AFSA24.JPG,AFNE21.JPG,AFSA21.JPG,AFNE25.JPG,,,,,,,,,,,,,0,6,6,2,,,,,,,,,,,AFSA06.jpg,AFSA19.jpg,AFNE18.jpg,AFNE06.jpg,AFSA19.jpg,FS,4,num_6,16,num_6,1.13345232769,,,2017_Aug_28_1146,60.0039838513,MAFE4ImagesEEG,001,101474,
AMSA21.JPG,AMNE22.JPG,AMNE21.JPG,AMSA23.JPG,AMSA22.JPG,AMNE23.JPG,,,,,,,,,,,,,0,7,7,1,,,,,,,,,,,AFSA01.jpg,AFNE18.jpg,AFSA03.jpg,AFNE03.jpg,AFSA03.jpg,FS,4,num_2,32,num_8,1.83342939481,,,2017_Aug_28_1146,60.0039838513,MAFE4ImagesEEG,001,101474,
AMNE23.JPG,AMNE24.JPG,AMNE22.JPG,AMSA24.JPG,AMSA22.JPG,AMSA23.JPG,,,,,,,,,,,,,0,8,8,9,,,,,,,,,,,AFSA10.jpg,AFSA16.jpg,AFNE11.jpg,AFNE02.jpg,AFSA10.jpg,FS,4,num_8,32,num_2,1.4499077072,,,2017_Aug_28_1146,60.0039838513,MAFE4ImagesEEG,001,101474,
AFNE22.JPG,AFSA24.JPG,AFSA22.JPG,AFNE25.JPG,AFNE24.JPG,AFSA25.JPG,,,,,,,,,,,,,0,9,9,6,,,,,,,,,,,AFNE04.jpg,AFSA11.jpg,AFSA05.jpg,AFNE13.jpg,AFSA05.jpg,FS,4,num_2,32,num_8,1.33340229231,,,2017_Aug_28_1146,60.0039838513,MAFE4ImagesEEG,001,101474,
AMNE22.JPG,AMSA24.JPG,AMSA22.JPG,AMNE25.JPG,AMNE24.JPG,AMSA25.JPG,,,,,,,,,,,,,,,,,0,0,0,7,,,,,,,AMSA04.jpg,AMNE20.jpg,AMSA11.jpg,AMNE14.jpg,AMSA11.jpg,MS,2,num_2,32,num_4,1.51680594782,,,2017_Aug_28_1146,60.0039838513,MAFE4ImagesEEG,001,101474,
AMSA21.JPG,AMNE22.JPG,AMNE21.JPG,AMSA23.JPG,AMSA22.JPG,AMNE23.JPG,,,,,,,,,,,,,,,,,0,1,1,1,,,,,,,AMSA17.jpg,AMNE12.jpg,AMNE01.jpg,AMSA11.jpg,AMSA11.jpg,MS,2,num_4,16,num_4,1.83337326543,,,2017_Aug_28_1146,60.0039838513,MAFE4ImagesEEG,001,101474,
AMSA25.JPG,AMNE24.JPG,AMSA24.JPG,AMNE26.JPG,AMSA21.JPG,AMNE25.JPG,,,,,,,,,,,,,,,,,0,2,2,3,,,,,,,AMNE03.jpg,AMSA11.jpg,AMNE18.jpg,AMSA02.jpg,AMSA02.jpg,MS,2,num_4,32,num_8,1.46673145602,,,2017_Aug_28_1146,60.0039838513,MAFE4ImagesEEG,001,101474,
AFSA25.JPG,AFNE24.JPG,AFSA24.JPG,AFNE21.JPG,AFSA21.JPG,AFNE25.JPG,,,,,,,,,,,,,,,,,0,3,3,2,,,,,,,AMSA20.jpg,AMSA13.jpg,AMNE07.jpg,AMNE06.jpg,AMNE06.jpg,MN,1,num_4,32,num_2,1.98337671335,,,2017_Aug_28_1146,60.0039838513,MAFE4ImagesEEG,001,101474,
AFNE22.JPG,AFSA24.JPG,AFSA22.JPG,AFNE25.JPG,AFNE24.JPG,AFSA25.JPG,,,,,,,,,,,,,,,,,0,4,4,6,,,,,,,AMNE06.jpg,AMSA12.jpg,AMSA09.jpg,AMNE09.jpg,AMNE06.jpg,MN,1,num_8,32,num_2,1.21679424081,,,2017_Aug_28_1146,60.0039838513,MAFE4ImagesEEG,001,101474,
AMNE23.JPG,AMNE24.JPG,AMNE22.JPG,AMSA24.JPG,AMSA22.JPG,AMSA23.JPG,,,,,,,,,,,,,,,,,0,5,5,9,,,,,,,AMNE11.jpg,AMSA06.jpg,AMSA08.jpg,AMNE09.jpg,AMNE09.jpg,MN,1,num_4,32,num_8,1.68333293241,,,2017_Aug_28_1146,60.0039838513,MAFE4ImagesEEG,001,101474,
AFSA21.JPG,AFNE23.JPG,AFNE21.JPG,AFSA25.JPG,AFNE25.JPG,AFSA23.JPG,,,,,,,,,,,,,,,,,0,6,6,4,,,,,,,AMSA16.jpg,AMSA05.jpg,AMNE10.jpg,AMNE15.jpg,AMSA16.jpg,MS,2,num_8,32,num_2,0.0668449978402,,,2017_Aug_28_1146,60.0039838513,MAFE4ImagesEEG,001,101474,
AFSA21.JPG,AFNE22.JPG,AFNE21.JPG,AFSA23.JPG,AFSA22.JPG,AFNE23.JPG,,,,,,,,,,,,,,,,,0,7,7,0,,,,,,,AMSA09.jpg,AMSA13.jpg,AMNE03.jpg,AMNE01.jpg,AMNE01.jpg,MN,1,num_4,16,num_4,2.63337486912,,,2017_Aug_28_1146,60.0039838513,MAFE4ImagesEEG,001,101474,
AFNE23.JPG,AFNE24.JPG,AFNE22.JPG,AFSA24.JPG,AFSA22.JPG,AFSA23.JPG,,,,,,,,,,,,,,,,,0,8,8,8,,,,,,,AMNE03.jpg,AMNE19.jpg,AMSA06.jpg,AMSA20.jpg,AMNE19.jpg,MN,1,num_6,32,num_8,1.01675478986,,,2017_Aug_28_1146,60.0039838513,MAFE4ImagesEEG,001,101474,
AMSA21.JPG,AMNE23.JPG,AMNE21.JPG,AMSA25.JPG,AMNE25.JPG,AMSA23.JPG,,,,,,,,,,,,,,,,,0,9,9,5,,,,,,,AMNE18.jpg,AMSA17.jpg,AMNE08.jpg,AMSA16.jpg,AMSA17.jpg,MS,2,num_6,16,num_6,1.38340044807,,,2017_Aug_28_1146,60.0039838513,MAFE4ImagesEEG,001,101474,
AMSA21.JPG,AMNE23.JPG,AMNE21.JPG,AMSA25.JPG,AMNE25.JPG,AMSA23.JPG,,,,,,,,,,,,,,,,,,,,,0,0,0,5,,,AFNE19.jpg,AFSA14.jpg,AFSA16.jpg,AFNE17.jpg,AFNE19.jpg,FN,3,num_8,16,num_8,1.30007360972,,,2017_Aug_28_1146,60.0039838513,MAFE4ImagesEEG,001,101474,
AMSA21.JPG,AMNE22.JPG,AMNE21.JPG,AMSA23.JPG,AMSA22.JPG,AMNE23.JPG,,,,,,,,,,,,,,,,,,,,,0,1,1,1,,,AFSA10.jpg,AFNE01.jpg,AFNE08.jpg,AFSA06.jpg,AFSA10.jpg,FS,4,num_8,32,num_4,1.4001177114,,,2017_Aug_28_1146,60.0039838513,MAFE4ImagesEEG,001,101474,
AMNE23.JPG,AMNE24.JPG,AMNE22.JPG,AMSA24.JPG,AMSA22.JPG,AMSA23.JPG,,,,,,,,,,,,,,,,,,,,,0,2,2,9,,,AFNE18.jpg,AFSA14.jpg,AFNE01.jpg,AFSA03.jpg,AFSA14.jpg,FS,4,num_6,32,num_2,2.38331833875,,,2017_Aug_28_1146,60.0039838513,MAFE4ImagesEEG,001,101474,
AMNE22.JPG,AMSA24.JPG,AMSA22.JPG,AMNE25.JPG,AMNE24.JPG,AMSA25.JPG,,,,,,,,,,,,,,,,,,,,,0,3,3,7,,,AFNE08.jpg,AFSA16.jpg,AFNE09.jpg,AFSA05.jpg,AFNE09.jpg,FN,3,num_2,32,num_8,0.983500518807,,,2017_Aug_28_1146,60.0039838513,MAFE4ImagesEEG,001,101474,
AFSA21.JPG,AFNE22.JPG,AFNE21.JPG,AFSA23.JPG,AFSA22.JPG,AFNE23.JPG,,,,,,,,,,,,,,,,,,,,,0,4,4,0,,,AFSA09.jpg,AFSA19.jpg,AFNE13.jpg,AFNE04.jpg,AFSA19.jpg,FS,4,num_6,32,num_4,1.53339683975,,,2017_Aug_28_1146,60.0039838513,MAFE4ImagesEEG,001,101474,
AFSA25.JPG,AFNE24.JPG,AFSA24.JPG,AFNE21.JPG,AFSA21.JPG,AFNE25.JPG,,,,,,,,,,,,,,,,,,,,,0,5,5,2,,,AFNE09.jpg,AFSA01.jpg,AFSA18.jpg,AFNE14.jpg,AFSA18.jpg,FS,4,num_2,32,num_6,1.30007874154,,,2017_Aug_28_1146,60.0039838513,MAFE4ImagesEEG,001,101474,
AMSA25.JPG,AMNE24.JPG,AMSA24.JPG,AMNE26.JPG,AMSA21.JPG,AMNE25.JPG,,,,,,,,,,,,,,,,,,,,,0,6,6,3,,,AFNE12.jpg,AFNE13.jpg,AFSA05.jpg,AFSA09.jpg,AFSA05.jpg,FS,4,num_2,32,num_4,1.43350508931,,,2017_Aug_28_1146,60.0039838513,MAFE4ImagesEEG,001,101474,
AFNE22.JPG,AFSA24.JPG,AFSA22.JPG,AFNE25.JPG,AFNE24.JPG,AFSA25.JPG,,,,,,,,,,,,,,,,,,,,,0,7,7,6,,,AFSA07.jpg,AFSA18.jpg,AFNE20.jpg,AFNE05.jpg,AFSA18.jpg,FS,4,num_6,16,num_6,1.36671044762,,,2017_Aug_28_1146,60.0039838513,MAFE4ImagesEEG,001,101474,
AFNE23.JPG,AFNE24.JPG,AFNE22.JPG,AFSA24.JPG,AFSA22.JPG,AFSA23.JPG,,,,,,,,,,,,,,,,,,,,,0,8,8,8,,,AFNE02.jpg,AFSA03.jpg,AFSA20.jpg,AFNE16.jpg,AFNE02.jpg,FN,3,num_8,16,num_8,0.866766737396,,,2017_Aug_28_1146,60.0039838513,MAFE4ImagesEEG,001,101474,
AFSA21.JPG,AFNE23.JPG,AFNE21.JPG,AFSA25.JPG,AFNE25.JPG,AFSA23.JPG,,,,,,,,,,,,,,,,,,,,,0,9,9,4,,,AFNE15.jpg,AFNE13.jpg,AFSA03.jpg,AFSA18.jpg,AFNE15.jpg,FN,3,num_8,32,num_4,1.65007930284,,,2017_Aug_28_1146,60.0039838513,MAFE4ImagesEEG,001,101474,
,,,,,,,,,,,,,,,,,,,,,,,,,,,,,,,,,,,,,,,,,,,space,17.8653602947,2017_Aug_28_1146,60.0039838513,MAFE4ImagesEEG,001,101474,
AFNE01.JPG,AFNE01.JPG,AFNE01.JPG,AFNE01.JPG,AFNE01.JPG,AFNE01.JPG,0,0,0,4,,,,,,,,,,,,,,,,,,,,,,,AMNE02.jpg,AMSA01.jpg,AMSA18.jpg,AMNE15.jpg,AMSA18.jpg,MS,2,num_2,32,num_6,2.18306431308,,,2017_Aug_28_1146,60.0039838513,MAFE4ImagesEEG,001,101474,
AFNE01.JPG,AFNE01.JPG,AFNE01.JPG,AFNE01.JPG,AFNE01.JPG,AFNE01.JPG,0,1,1,5,,,,,,,,,,,,,,,,,,,,,,,AMNE18.jpg,AMSA05.jpg,AMSA04.jpg,AMNE19.jpg,AMSA04.jpg,MS,2,num_2,16,num_2,1.51674661099,,,2017_Aug_28_1146,60.0039838513,MAFE4ImagesEEG,001,101474,
AFNE01.JPG,AFNE01.JPG,AFNE01.JPG,AFNE01.JPG,AFNE01.JPG,AFNE01.JPG,0,2,2,6,,,,,,,,,,,,,,,,,,,,,,,AMSA15.jpg,AMNE07.jpg,AMSA09.jpg,AMNE03.jpg,AMNE07.jpg,MN,1,num_6,32,num_4,1.08343300314,,,2017_Aug_28_1146,60.0039838513,MAFE4ImagesEEG,001,101474,
AFNE01.JPG,AFNE01.JPG,AFNE01.JPG,AFNE01.JPG,AFNE01.JPG,AFNE01.JPG,0,3,3,9,,,,,,,,,,,,,,,,,,,,,,,AMNE02.jpg,AMNE12.jpg,AMSA18.jpg,AMSA13.jpg,AMNE12.jpg,MN,1,num_6,32,num_4,1.16675278524,,,2017_Aug_28_1146,60.0039838513,MAFE4ImagesEEG,001,101474,
AFNE01.JPG,AFNE01.JPG,AFNE01.JPG,AFNE01.JPG,AFNE01.JPG,AFNE01.JPG,0,4,4,0,,,,,,,,,,,,,,,,,,,,,,,AMNE07.jpg,AMSA11.jpg,AMSA05.jpg,AMNE02.jpg,AMNE07.jpg,MN,1,num_8,32,num_4,1.30008483562,,,2017_Aug_28_1146,60.0039838513,MAFE4ImagesEEG,001,101474,
AFNE01.JPG,AFNE01.JPG,AFNE01.JPG,AFNE01.JPG,AFNE01.JPG,AFNE01.JPG,0,5,5,7,,,,,,,,,,,,,,,,,,,,,,,AMSA10.jpg,AMNE01.jpg,AMSA16.jpg,AMNE03.jpg,AMNE01.jpg,MN,1,num_6,32,num_8,0.883424663916,,,2017_Aug_28_1146,60.0039838513,MAFE4ImagesEEG,001,101474,
AFNE01.JPG,AFNE01.JPG,AFNE01.JPG,AFNE01.JPG,AFNE01.JPG,AFNE01.JPG,0,6,6,3,,,,,,,,,,,,,,,,,,,,,,,AMSA07.jpg,AMNE09.jpg,AMSA20.jpg,AMNE17.jpg,AMSA07.jpg,MS,2,num_8,32,num_4,0.98336099711,,,2017_Aug_28_1146,60.0039838513,MAFE4ImagesEEG,001,101474,
AFNE01.JPG,AFNE01.JPG,AFNE01.JPG,AFNE01.JPG,AFNE01.JPG,AFNE01.JPG,0,7,7,1,,,,,,,,,,,,,,,,,,,,,,,AMNE04.jpg,AMSA17.jpg,AMSA10.jpg,AMNE20.jpg,AMNE04.jpg,MN,1,num_8,32,num_4,1.15010993346,,,2017_Aug_28_1146,60.0039838513,MAFE4ImagesEEG,001,101474,
AFNE01.JPG,AFNE01.JPG,AFNE01.JPG,AFNE01.JPG,AFNE01.JPG,AFNE01.JPG,0,8,8,2,,,,,,,,,,,,,,,,,,,,,,,AMNE14.jpg,AMNE06.jpg,AMSA16.jpg,AMSA07.jpg,AMSA16.jpg,MS,2,num_2,32,num_8,0.800107447751,,,2017_Aug_28_1146,60.0039838513,MAFE4ImagesEEG,001,101474,
AFNE01.JPG,AFNE01.JPG,AFNE01.JPG,AFNE01.JPG,AFNE01.JPG,AFNE01.JPG,0,9,9,8,,,,,,,,,,,,,,,,,,,,,,,AMSA03.jpg,AMSA04.jpg,AMNE07.jpg,AMNE11.jpg,AMSA03.jpg,MS,2,num_8,32,num_2,1.06673722935,,,2017_Aug_28_1146,60.0039838513,MAFE4ImagesEEG,001,101474,
AFNE01.JPG,AFNE01.JPG,AFNE01.JPG,AFNE01.JPG,AFNE01.JPG,AFNE01.JPG,1,0,10,9,,,,,,,,,,,,,,,,,,,,,,,AMNE12.jpg,AMSA01.jpg,AMNE11.jpg,AMSA12.jpg,AMNE11.jpg,MN,1,num_2,32,num_6,1.41676152538,,,2017_Aug_28_1146,60.0039838513,MAFE4ImagesEEG,001,101474,
AFNE01.JPG,AFNE01.JPG,AFNE01.JPG,AFNE01.JPG,AFNE01.JPG,AFNE01.JPG,1,1,11,5,,,,,,,,,,,,,,,,,,,,,,,AMNE02.jpg,AMSA02.jpg,AMSA12.jpg,AMNE05.jpg,AMSA12.jpg,MS,2,num_2,32,num_4,1.00008563747,,,2017_Aug_28_1146,60.0039838513,MAFE4ImagesEEG,001,101474,
AFNE01.JPG,AFNE01.JPG,AFNE01.JPG,AFNE01.JPG,AFNE01.JPG,AFNE01.JPG,1,2,12,6,,,,,,,,,,,,,,,,,,,,,,,AMNE16.jpg,AMSA02.jpg,AMNE15.jpg,AMSA07.jpg,AMNE15.jpg,MN,1,num_2,32,num_8,1.08344230457,,,2017_Aug_28_1146,60.0039838513,MAFE4ImagesEEG,001,101474,
AFNE01.JPG,AFNE01.JPG,AFNE01.JPG,AFNE01.JPG,AFNE01.JPG,AFNE01.JPG,1,3,13,7,,,,,,,,,,,,,,,,,,,,,,,AMSA12.jpg,AMNE10.jpg,AMNE19.jpg,AMSA13.jpg,AMNE19.jpg,MN,1,num_2,16,num_2,1.28345064379,,,2017_Aug_28_1146,60.0039838513,MAFE4ImagesEEG,001,101474,
AFNE01.JPG,AFNE01.JPG,AFNE01.JPG,AFNE01.JPG,AFNE01.JPG,AFNE01.JPG,1,4,14,3,,,,,,,,,,,,,,,,,,,,,,,AMSA05.jpg,AMNE19.jpg,AMNE06.jpg,AMSA04.jpg,AMSA04.jpg,MS,2,num_4,32,num_8,0.800154596451,,,2017_Aug_28_1146,60.0039838513,MAFE4ImagesEEG,001,101474,
AFNE01.JPG,AFNE01.JPG,AFNE01.JPG,AFNE01.JPG,AFNE01.JPG,AFNE01.JPG,1,5,15,8,,,,,,,,,,,,,,,,,,,,,,,AMNE02.jpg,AMSA10.jpg,AMSA04.jpg,AMNE01.jpg,AMNE01.jpg,MN,1,num_4,16,num_4,1.35010287719,,,2017_Aug_28_1146,60.0039838513,MAFE4ImagesEEG,001,101474,
AFNE01.JPG,AFNE01.JPG,AFNE01.JPG,AFNE01.JPG,AFNE01.JPG,AFNE01.JPG,1,6,16,4,,,,,,,,,,,,,,,,,,,,,,,AMSA07.jpg,AMNE18.jpg,AMNE01.jpg,AMSA12.jpg,AMNE01.jpg,MN,1,num_2,16,num_2,1.13339683975,,,2017_Aug_28_1146,60.0039838513,MAFE4ImagesEEG,001,101474,
AFNE01.JPG,AFNE01.JPG,AFNE01.JPG,AFNE01.JPG,AFNE01.JPG,AFNE01.JPG,1,7,17,1,,,,,,,,,,,,,,,,,,,,,,,AMSA20.jpg,AMSA08.jpg,AMNE18.jpg,AMNE16.jpg,AMNE18.jpg,MN,1,num_2,32,num_4,1.30009092964,,,2017_Aug_28_1146,60.0039838513,MAFE4ImagesEEG,001,101474,
AFNE01.JPG,AFNE01.JPG,AFNE01.JPG,AFNE01.JPG,AFNE01.JPG,AFNE01.JPG,1,8,18,0,,,,,,,,,,,,,,,,,,,,,,,AMSA01.jpg,AMSA03.jpg,AMNE18.jpg,AMNE12.jpg,AMNE12.jpg,MN,1,num_4,16,num_4,0.966796405788,,,2017_Aug_28_1146,60.0039838513,MAFE4ImagesEEG,001,101474,
AFNE01.JPG,AFNE01.JPG,AFNE01.JPG,AFNE01.JPG,AFNE01.JPG,AFNE01.JPG,1,9,19,2,,,,,,,,,,,,,,,,,,,,,,,AMNE09.jpg,AMSA07.jpg,AMNE11.jpg,AMSA04.jpg,AMSA04.jpg,MS,2,num_4,32,num_2,1.01665343618,,,2017_Aug_28_1146,60.0039838513,MAFE4ImagesEEG,001,101474,
AFNE01.JPG,AFNE01.JPG,AFNE01.JPG,AFNE01.JPG,AFNE01.JPG,AFNE01.JPG,2,0,20,9,,,,,,,,,,,,,,,,,,,,,,,AMSA18.jpg,AMNE20.jpg,AMSA15.jpg,AMNE10.jpg,AMSA18.jpg,MS,2,num_8,16,num_8,1.03341977263,,,2017_Aug_28_1146,60.0039838513,MAFE4ImagesEEG,001,101474,
AFNE01.JPG,AFNE01.JPG,AFNE01.JPG,AFNE01.JPG,AFNE01.JPG,AFNE01.JPG,2,1,21,1,,,,,,,,,,,,,,,,,,,,,,,AMNE09.jpg,AMSA15.jpg,AMNE14.jpg,AMSA04.jpg,AMSA04.jpg,MS,2,num_4,16,num_4,1.4001363143,,,2017_Aug_28_1146,60.0039838513,MAFE4ImagesEEG,001,101474,
AFNE01.JPG,AFNE01.JPG,AFNE01.JPG,AFNE01.JPG,AFNE01.JPG,AFNE01.JPG,2,2,22,6,,,,,,,,,,,,,,,,,,,,,,,AMSA19.jpg,AMSA17.jpg,AMNE05.jpg,AMNE13.jpg,AMSA17.jpg,MS,2,num_6,16,num_6,1.16678229326,,,2017_Aug_28_1146,60.0039838513,MAFE4ImagesEEG,001,101474,
AFNE01.JPG,AFNE01.JPG,AFNE01.JPG,AFNE01.JPG,AFNE01.JPG,AFNE01.JPG,2,3,23,8,,,,,,,,,,,,,,,,,,,,,,,AMSA04.jpg,AMNE20.jpg,AMSA13.jpg,AMNE05.jpg,AMSA04.jpg,MS,2,num_8,16,num_8,1.06691491904,,,2017_Aug_28_1146,60.0039838513,MAFE4ImagesEEG,001,101474,
AFNE01.JPG,AFNE01.JPG,AFNE01.JPG,AFNE01.JPG,AFNE01.JPG,AFNE01.JPG,2,4,24,5,,,,,,,,,,,,,,,,,,,,,,,AMSA17.jpg,AMNE19.jpg,AMSA10.jpg,AMNE14.jpg,AMNE19.jpg,MN,1,num_6,16,num_6,1.05009149094,,,2017_Aug_28_1146,60.0039838513,MAFE4ImagesEEG,001,101474,
AFNE01.JPG,AFNE01.JPG,AFNE01.JPG,AFNE01.JPG,AFNE01.JPG,AFNE01.JPG,2,5,25,2,,,,,,,,,,,,,,,,,,,,,,,AMNE14.jpg,AMSA18.jpg,AMSA06.jpg,AMNE12.jpg,AMSA06.jpg,MS,2,num_2,32,num_4,1.05013254558,,,2017_Aug_28_1146,60.0039838513,MAFE4ImagesEEG,001,101474,
AFNE01.JPG,AFNE01.JPG,AFNE01.JPG,AFNE01.JPG,AFNE01.JPG,AFNE01.JPG,2,6,26,4,,,,,,,,,,,,,,,,,,,,,,,AMSA13.jpg,AMSA12.jpg,AMNE01.jpg,AMNE08.jpg,AMSA13.jpg,MS,2,num_8,16,num_8,1.13343180038,,,2017_Aug_28_1146,60.0039838513,MAFE4ImagesEEG,001,101474,
AFNE01.JPG,AFNE01.JPG,AFNE01.JPG,AFNE01.JPG,AFNE01.JPG,AFNE01.JPG,2,7,27,0,,,,,,,,,,,,,,,,,,,,,,,AMNE14.jpg,AMSA09.jpg,AMNE04.jpg,AMSA01.jpg,AMSA01.jpg,MS,2,num_4,32,num_2,1.1834257865,,,2017_Aug_28_1146,60.0039838513,MAFE4ImagesEEG,001,101474,
AFNE01.JPG,AFNE01.JPG,AFNE01.JPG,AFNE01.JPG,AFNE01.JPG,AFNE01.JPG,2,8,28,3,,,,,,,,,,,,,,,,,,,,,,,AMSA09.jpg,AMSA17.jpg,AMNE02.jpg,AMNE06.jpg,AMSA09.jpg,MS,2,num_8,16,num_8,1.56667773219,,,2017_Aug_28_1146,60.0039838513,MAFE4ImagesEEG,001,101474,
AFNE01.JPG,AFNE01.JPG,AFNE01.JPG,AFNE01.JPG,AFNE01.JPG,AFNE01.JPG,2,9,29,7,,,,,,,,,,,,,,,,,,,,,,,AMNE04.jpg,AMNE12.jpg,AMSA03.jpg,AMSA18.jpg,AMNE12.jpg,MN,1,num_6,16,num_6,0.916650709871,,,2017_Aug_28_1146,60.0039838513,MAFE4ImagesEEG,001,101474,
AFNE01.JPG,AFNE01.JPG,AFNE01.JPG,AFNE01.JPG,AFNE01.JPG,AFNE01.JPG,3,0,30,4,,,,,,,,,,,,,,,,,,,,,,,AMNE13.jpg,AMSA18.jpg,AMNE11.jpg,AMSA03.jpg,AMNE11.jpg,MN,1,num_2,16,num_2,1.20007729824,,,2017_Aug_28_1146,60.0039838513,MAFE4ImagesEEG,001,101474,
AFNE01.JPG,AFNE01.JPG,AFNE01.JPG,AFNE01.JPG,AFNE01.JPG,AFNE01.JPG,3,1,31,1,,,,,,,,,,,,,,,,,,,,,,,AMSA14.jpg,AMSA11.jpg,AMNE10.jpg,AMNE05.jpg,AMNE10.jpg,MN,1,num_2,32,num_4,0.816745809134,,,2017_Aug_28_1146,60.0039838513,MAFE4ImagesEEG,001,101474,
AFNE01.JPG,AFNE01.JPG,AFNE01.JPG,AFNE01.JPG,AFNE01.JPG,AFNE01.JPG,3,2,32,0,,,,,,,,,,,,,,,,,,,,,,,AMSA12.jpg,AMNE15.jpg,AMNE06.jpg,AMSA02.jpg,AMSA12.jpg,MS,2,num_8,16,num_8,1.00001347106,,,2017_Aug_28_1146,60.0039838513,MAFE4ImagesEEG,001,101474,
AFNE01.JPG,AFNE01.JPG,AFNE01.JPG,AFNE01.JPG,AFNE01.JPG,AFNE01.JPG,3,3,33,9,,,,,,,,,,,,,,,,,,,,,,,AMNE19.jpg,AMSA17.jpg,AMSA12.jpg,AMNE06.jpg,AMSA12.jpg,MS,2,num_2,32,num_4,1.58344952122,,,2017_Aug_28_1146,60.0039838513,MAFE4ImagesEEG,001,101474,
AFNE01.JPG,AFNE01.JPG,AFNE01.JPG,AFNE01.JPG,AFNE01.JPG,AFNE01.JPG,3,4,34,6,,,,,,,,,,,,,,,,,,,,,,,AMNE18.jpg,AMSA12.jpg,AMSA03.jpg,AMNE11.jpg,AMNE18.jpg,MN,1,num_8,16,num_8,1.15010961273,,,2017_Aug_28_1146,60.0039838513,MAFE4ImagesEEG,001,101474,
AFNE01.JPG,AFNE01.JPG,AFNE01.JPG,AFNE01.JPG,AFNE01.JPG,AFNE01.JPG,3,5,35,7,,,,,,,,,,,,,,,,,,,,,,,AMNE01.jpg,AMSA18.jpg,AMNE16.jpg,AMSA01.jpg,AMSA18.jpg,MS,2,num_6,16,num_6,1.85027912355,,,2017_Aug_28_1146,60.0039838513,MAFE4ImagesEEG,001,101474,
AFNE01.JPG,AFNE01.JPG,AFNE01.JPG,AFNE01.JPG,AFNE01.JPG,AFNE01.JPG,3,6,36,3,,,,,,,,,,,,,,,,,,,,,,,AMNE17.jpg,AMSA20.jpg,AMSA05.jpg,AMNE01.jpg,AMSA05.jpg,MS,2,num_2,16,num_2,1.16658728363,,,2017_Aug_28_1146,60.0039838513,MAFE4ImagesEEG,001,101474,
AFNE01.JPG,AFNE01.JPG,AFNE01.JPG,AFNE01.JPG,AFNE01.JPG,AFNE01.JPG,3,7,37,5,,,,,,,,,,,,,,,,,,,,,,,AMNE20.jpg,AMNE19.jpg,AMSA02.jpg,AMSA03.jpg,AMSA03.jpg,MS,2,num_4,16,num_4,1.8332327815,,,2017_Aug_28_1146,60.0039838513,MAFE4ImagesEEG,001,101474,
AFNE01.JPG,AFNE01.JPG,AFNE01.JPG,AFNE01.JPG,AFNE01.JPG,AFNE01.JPG,3,8,38,2,,,,,,,,,,,,,,,,,,,,,,,AMNE04.jpg,AMNE17.jpg,AMSA05.jpg,AMSA10.jpg,AMNE04.jpg,MN,1,num_8,16,num_8,1.50008515632,,,2017_Aug_28_1146,60.0039838513,MAFE4ImagesEEG,001,101474,
AFNE01.JPG,AFNE01.JPG,AFNE01.JPG,AFNE01.JPG,AFNE01.JPG,AFNE01.JPG,3,9,39,8,,,,,,,,,,,,,,,,,,,,,,,AMNE09.jpg,AMSA04.jpg,AMNE08.jpg,AMSA06.jpg,AMNE08.jpg,MN,1,num_2,16,num_2,1.43340854676,,,2017_Aug_28_1146,60.0039838513,MAFE4ImagesEEG,001,101474,
AFNE01.JPG,AFNE01.JPG,AFNE01.JPG,AFNE01.JPG,AFNE01.JPG,AFNE01.JPG,4,0,40,8,,,,,,,,,,,,,,,,,,,,,,,AMNE15.jpg,AMNE16.jpg,AMSA04.jpg,AMSA06.jpg,AMSA06.jpg,MS,2,num_4,16,num_4,1.61673009291,,,2017_Aug_28_1146,60.0039838513,MAFE4ImagesEEG,001,101474,
AFNE01.JPG,AFNE01.JPG,AFNE01.JPG,AFNE01.JPG,AFNE01.JPG,AFNE01.JPG,4,1,41,3,,,,,,,,,,,,,,,,,,,,,,,AMNE19.jpg,AMNE05.jpg,AMSA09.jpg,AMSA18.jpg,AMSA18.jpg,MS,2,num_4,16,num_4,1.11675655391,,,2017_Aug_28_1146,60.0039838513,MAFE4ImagesEEG,001,101474,
AFNE01.JPG,AFNE01.JPG,AFNE01.JPG,AFNE01.JPG,AFNE01.JPG,AFNE01.JPG,4,2,42,0,,,,,,,,,,,,,,,,,,,,,,,AMNE04.jpg,AMSA05.jpg,AMSA08.jpg,AMNE15.jpg,AMNE15.jpg,MN,1,num_4,32,num_8,1.63311186273,,,2017_Aug_28_1146,60.0039838513,MAFE4ImagesEEG,001,101474,
AFNE01.JPG,AFNE01.JPG,AFNE01.JPG,AFNE01.JPG,AFNE01.JPG,AFNE01.JPG,4,3,43,7,,,,,,,,,,,,,,,,,,,,,,,AMSA20.jpg,AMSA02.jpg,AMNE01.jpg,AMNE05.jpg,AMSA20.jpg,MS,2,num_8,32,num_6,1.00011257958,,,2017_Aug_28_1146,60.0039838513,MAFE4ImagesEEG,001,101474,
AFNE01.JPG,AFNE01.JPG,AFNE01.JPG,AFNE01.JPG,AFNE01.JPG,AFNE01.JPG,4,4,44,9,,,,,,,,,,,,,,,,,,,,,,,AMSA02.jpg,AMNE04.jpg,AMNE18.jpg,AMSA20.jpg,AMNE04.jpg,MN,1,num_6,32,num_8,1.64994555447,,,2017_Aug_28_1146,60.0039838513,MAFE4ImagesEEG,001,101474,
AFNE01.JPG,AFNE01.JPG,AFNE01.JPG,AFNE01.JPG,AFNE01.JPG,AFNE01.JPG,4,5,45,2,,,,,,,,,,,,,,,,,,,,,,,AMSA03.jpg,AMSA18.jpg,AMNE04.jpg,AMNE11.jpg,AMNE11.jpg,MN,1,num_4,16,num_4,0.967061015865,,,2017_Aug_28_1146,60.0039838513,MAFE4ImagesEEG,001,101474,
AFNE01.JPG,AFNE01.JPG,AFNE01.JPG,AFNE01.JPG,AFNE01.JPG,AFNE01.JPG,4,6,46,4,,,,,,,,,,,,,,,,,,,,,,,AMSA01.jpg,AMNE02.jpg,AMSA09.jpg,AMNE08.jpg,AMSA01.jpg,MS,2,num_8,16,num_8,1.30009830667,,,2017_Aug_28_1146,60.0039838513,MAFE4ImagesEEG,001,101474,
AFNE01.JPG,AFNE01.JPG,AFNE01.JPG,AFNE01.JPG,AFNE01.JPG,AFNE01.JPG,4,7,47,6,,,,,,,,,,,,,,,,,,,,,,,AMNE11.jpg,AMNE18.jpg,AMSA20.jpg,AMSA07.jpg,AMSA07.jpg,MS,2,num_4,16,num_4,1.31672640439,,,2017_Aug_28_1146,60.0039838513,MAFE4ImagesEEG,001,101474,
AFNE01.JPG,AFNE01.JPG,AFNE01.JPG,AFNE01.JPG,AFNE01.JPG,AFNE01.JPG,4,8,48,5,,,,,,,,,,,,,,,,,,,,,,,AMSA12.jpg,AMSA02.jpg,AMNE17.jpg,AMNE03.jpg,AMNE03.jpg,MN,1,num_4,32,num_6,1.21675639355,,,2017_Aug_28_1146,60.0039838513,MAFE4ImagesEEG,001,101474,
AFNE01.JPG,AFNE01.JPG,AFNE01.JPG,AFNE01.JPG,AFNE01.JPG,AFNE01.JPG,4,9,49,1,,,,,,,,,,,,,,,,,,,,,,,AMNE10.jpg,AMNE07.jpg,AMSA18.jpg,AMSA05.jpg,AMNE10.jpg,MN,1,num_8,32,num_2,1.5665690015,,,2017_Aug_28_1146,60.0039838513,MAFE4ImagesEEG,001,101474,
AFNE01.JPG,AFNE01.JPG,AFNE01.JPG,AFNE01.JPG,AFNE01.JPG,AFNE01.JPG,5,0,50,8,,,,,,,,,,,,,,,,,,,,,,,AMNE15.jpg,AMNE18.jpg,AMSA07.jpg,AMSA06.jpg,AMSA06.jpg,MS,2,num_4,32,num_8,1.36669858024,,,2017_Aug_28_1146,60.0039838513,MAFE4ImagesEEG,001,101474,
AFNE01.JPG,AFNE01.JPG,AFNE01.JPG,AFNE01.JPG,AFNE01.JPG,AFNE01.JPG,5,1,51,9,,,,,,,,,,,,,,,,,,,,,,,AMNE18.jpg,AMSA15.jpg,AMSA20.jpg,AMNE12.jpg,AMSA20.jpg,MS,2,num_2,32,num_4,0.966703391343,,,2017_Aug_28_1146,60.0039838513,MAFE4ImagesEEG,001,101474,
AFNE01.JPG,AFNE01.JPG,AFNE01.JPG,AFNE01.JPG,AFNE01.JPG,AFNE01.JPG,5,2,52,6,,,,,,,,,,,,,,,,,,,,,,,AMSA13.jpg,AMNE03.jpg,AMSA02.jpg,AMNE04.jpg,AMNE03.jpg,MN,1,num_6,32,num_4,1.43341720672,,,2017_Aug_28_1146,60.0039838513,MAFE4ImagesEEG,001,101474,
AFNE01.JPG,AFNE01.JPG,AFNE01.JPG,AFNE01.JPG,AFNE01.JPG,AFNE01.JPG,5,3,53,3,,,,,,,,,,,,,,,,,,,,,,,AMNE02.jpg,AMNE09.jpg,AMSA16.jpg,AMSA12.jpg,AMSA16.jpg,MS,2,num_2,32,num_4,1.55014489408,,,2017_Aug_28_1146,60.0039838513,MAFE4ImagesEEG,001,101474,
AFNE01.JPG,AFNE01.JPG,AFNE01.JPG,AFNE01.JPG,AFNE01.JPG,AFNE01.JPG,5,4,54,4,,,,,,,,,,,,,,,,,,,,,,,AMNE09.jpg,AMSA20.jpg,AMNE06.jpg,AMSA09.jpg,AMNE06.jpg,MN,1,num_2,32,num_8,1.43336396397,,,2017_Aug_28_1146,60.0039838513,MAFE4ImagesEEG,001,101474,
AFNE01.JPG,AFNE01.JPG,AFNE01.JPG,AFNE01.JPG,AFNE01.JPG,AFNE01.JPG,5,5,55,0,,,,,,,,,,,,,,,,,,,,,,,AMNE20.jpg,AMSA11.jpg,AMNE18.jpg,AMSA05.jpg,AMSA05.jpg,MS,2,num_4,32,num_6,1.55006567141,,,2017_Aug_28_1146,60.0039838513,MAFE4ImagesEEG,001,101474,
AFNE01.JPG,AFNE01.JPG,AFNE01.JPG,AFNE01.JPG,AFNE01.JPG,AFNE01.JPG,5,6,56,7,,,,,,,,,,,,,,,,,,,,,,,AMNE18.jpg,AMSA07.jpg,AMNE07.jpg,AMSA19.jpg,AMSA19.jpg,MS,2,num_4,16,num_4,1.56669537284,,,2017_Aug_28_1146,60.0039838513,MAFE4ImagesEEG,001,101474,
AFNE01.JPG,AFNE01.JPG,AFNE01.JPG,AFNE01.JPG,AFNE01.JPG,AFNE01.JPG,5,7,57,1,,,,,,,,,,,,,,,,,,,,,,,AMSA08.jpg,AMNE07.jpg,AMNE08.jpg,AMSA04.jpg,AMNE08.jpg,MN,1,num_2,32,num_8,1.43337037874,,,2017_Aug_28_1146,60.0039838513,MAFE4ImagesEEG,001,101474,
AFNE01.JPG,AFNE01.JPG,AFNE01.JPG,AFNE01.JPG,AFNE01.JPG,AFNE01.JPG,5,8,58,5,,,,,,,,,,,,,,,,,,,,,,,AMSA19.jpg,AMNE16.jpg,AMSA11.jpg,AMNE18.jpg,AMSA19.jpg,MS,2,num_8,32,num_2,1.2667231168,,,2017_Aug_28_1146,60.0039838513,MAFE4ImagesEEG,001,101474,
AFNE01.JPG,AFNE01.JPG,AFNE01.JPG,AFNE01.JPG,AFNE01.JPG,AFNE01.JPG,5,9,59,2,,,,,,,,,,,,,,,,,,,,,,,AMNE17.jpg,AMNE08.jpg,AMSA18.jpg,AMSA16.jpg,AMSA16.jpg,MS,2,num_4,32,num_8,1.35008684022,,,2017_Aug_28_1146,60.0039838513,MAFE4ImagesEEG,001,101474,
,,,,,,,,,,,,,,,,,,,,,,,,,,,,,,,,,,,,,,,,,,,space,20.414926254,2017_Aug_28_1146,60.0039838513,MAFE4ImagesEEG,001,101474,
AFNE01.JPG,AFNE01.JPG,AFNE01.JPG,AFNE01.JPG,AFNE01.JPG,AFNE01.JPG,,,,,0,0,0,0,,,,,,,,,,,,,,,,,,,AFNE04.jpg,AFSA12.jpg,AFSA01.jpg,AFNE01.jpg,AFNE01.jpg,FN,3,num_4,16,num_4,1.35010832976,,,2017_Aug_28_1146,60.0039838513,MAFE4ImagesEEG,001,101474,
AFNE01.JPG,AFNE01.JPG,AFNE01.JPG,AFNE01.JPG,AFNE01.JPG,AFNE01.JPG,,,,,0,1,1,5,,,,,,,,,,,,,,,,,,,AFSA14.jpg,AFSA13.jpg,AFNE02.jpg,AFNE01.jpg,AFSA13.jpg,FS,4,num_6,32,num_2,1.316746611,,,2017_Aug_28_1146,60.0039838513,MAFE4ImagesEEG,001,101474,
AFNE01.JPG,AFNE01.JPG,AFNE01.JPG,AFNE01.JPG,AFNE01.JPG,AFNE01.JPG,,,,,0,2,2,4,,,,,,,,,,,,,,,,,,,AFNE09.jpg,AFNE14.jpg,AFSA06.jpg,AFSA13.jpg,AFSA13.jpg,FS,4,num_4,16,num_4,1.08342883352,,,2017_Aug_28_1146,60.0039838513,MAFE4ImagesEEG,001,101474,
AFNE01.JPG,AFNE01.JPG,AFNE01.JPG,AFNE01.JPG,AFNE01.JPG,AFNE01.JPG,,,,,0,3,3,8,,,,,,,,,,,,,,,,,,,AFNE20.jpg,AFNE04.jpg,AFSA10.jpg,AFSA03.jpg,AFSA03.jpg,FS,4,num_4,32,num_8,1.03343548888,,,2017_Aug_28_1146,60.0039838513,MAFE4ImagesEEG,001,101474,
AFNE01.JPG,AFNE01.JPG,AFNE01.JPG,AFNE01.JPG,AFNE01.JPG,AFNE01.JPG,,,,,0,4,4,3,,,,,,,,,,,,,,,,,,,AFNE10.jpg,AFNE09.jpg,AFSA17.jpg,AFSA05.jpg,AFSA17.jpg,FS,4,num_2,16,num_2,1.41671341442,,,2017_Aug_28_1146,60.0039838513,MAFE4ImagesEEG,001,101474,
AFNE01.JPG,AFNE01.JPG,AFNE01.JPG,AFNE01.JPG,AFNE01.JPG,AFNE01.JPG,,,,,0,5,5,7,,,,,,,,,,,,,,,,,,,AFSA14.jpg,AFNE17.jpg,AFNE18.jpg,AFSA06.jpg,AFSA06.jpg,FS,4,num_4,16,num_4,1.15004738924,,,2017_Aug_28_1146,60.0039838513,MAFE4ImagesEEG,001,101474,
AFNE01.JPG,AFNE01.JPG,AFNE01.JPG,AFNE01.JPG,AFNE01.JPG,AFNE01.JPG,,,,,0,6,6,9,,,,,,,,,,,,,,,,,,,AFNE17.jpg,AFSA10.jpg,AFSA19.jpg,AFNE05.jpg,AFSA19.jpg,FS,4,num_2,32,num_8,1.01672528181,,,2017_Aug_28_1146,60.0039838513,MAFE4ImagesEEG,001,101474,
AFNE01.JPG,AFNE01.JPG,AFNE01.JPG,AFNE01.JPG,AFNE01.JPG,AFNE01.JPG,,,,,0,7,7,6,,,,,,,,,,,,,,,,,,,AFNE04.jpg,AFNE06.jpg,AFSA06.jpg,AFSA12.jpg,AFSA12.jpg,FS,4,num_4,16,num_4,1.850021249,,,2017_Aug_28_1146,60.0039838513,MAFE4ImagesEEG,001,101474,
AFNE01.JPG,AFNE01.JPG,AFNE01.JPG,AFNE01.JPG,AFNE01.JPG,AFNE01.JPG,,,,,0,8,8,2,,,,,,,,,,,,,,,,,,,AFSA08.jpg,AFSA13.jpg,AFNE11.jpg,AFNE13.jpg,AFNE13.jpg,FN,3,num_4,32,num_2,1.46676994479,,,2017_Aug_28_1146,60.0039838513,MAFE4ImagesEEG,001,101474,
AFNE01.JPG,AFNE01.JPG,AFNE01.JPG,AFNE01.JPG,AFNE01.JPG,AFNE01.JPG,,,,,0,9,9,1,,,,,,,,,,,,,,,,,,,AFNE02.jpg,AFSA11.jpg,AFNE01.jpg,AFSA17.jpg,AFNE02.jpg,FN,3,num_8,32,num_2,0.0833678930067,,,2017_Aug_28_1146,60.0039838513,MAFE4ImagesEEG,001,101474,
AFNE01.JPG,AFNE01.JPG,AFNE01.JPG,AFNE01.JPG,AFNE01.JPG,AFNE01.JPG,,,,,1,0,10,9,,,,,,,,,,,,,,,,,,,AFSA19.jpg,AFNE02.jpg,AFSA05.jpg,AFNE05.jpg,AFNE02.jpg,FN,3,num_6,32,num_8,1.95003840857,,,2017_Aug_28_1146,60.0039838513,MAFE4ImagesEEG,001,101474,
AFNE01.JPG,AFNE01.JPG,AFNE01.JPG,AFNE01.JPG,AFNE01.JPG,AFNE01.JPG,,,,,1,1,11,7,,,,,,,,,,,,,,,,,,,AFSA16.jpg,AFNE01.jpg,AFNE09.jpg,AFSA05.jpg,AFNE09.jpg,FN,3,num_2,32,num_6,1.08346860521,,,2017_Aug_28_1146,60.0039838513,MAFE4ImagesEEG,001,101474,
AFNE01.JPG,AFNE01.JPG,AFNE01.JPG,AFNE01.JPG,AFNE01.JPG,AFNE01.JPG,,,,,1,2,12,2,,,,,,,,,,,,,,,,,,,AFNE10.jpg,AFSA01.jpg,AFSA12.jpg,AFNE15.jpg,AFSA01.jpg,FS,4,num_6,32,num_2,1.93338625535,,,2017_Aug_28_1146,60.0039838513,MAFE4ImagesEEG,001,101474,
AFNE01.JPG,AFNE01.JPG,AFNE01.JPG,AFNE01.JPG,AFNE01.JPG,AFNE01.JPG,,,,,1,3,13,1,,,,,,,,,,,,,,,,,,,AFNE04.jpg,AFNE10.jpg,AFSA19.jpg,AFSA20.jpg,AFSA19.jpg,FS,4,num_2,16,num_2,1.18348993437,,,2017_Aug_28_1146,60.0039838513,MAFE4ImagesEEG,001,101474,
AFNE01.JPG,AFNE01.JPG,AFNE01.JPG,AFNE01.JPG,AFNE01.JPG,AFNE01.JPG,,,,,1,4,14,5,,,,,,,,,,,,,,,,,,,AFSA16.jpg,AFNE19.jpg,AFNE08.jpg,AFSA01.jpg,AFNE08.jpg,FN,3,num_2,32,num_6,1.10007232678,,,2017_Aug_28_1146,60.0039838513,MAFE4ImagesEEG,001,101474,
AFNE01.JPG,AFNE01.JPG,AFNE01.JPG,AFNE01.JPG,AFNE01.JPG,AFNE01.JPG,,,,,1,5,15,3,,,,,,,,,,,,,,,,,,,AFSA07.jpg,AFNE11.jpg,AFSA10.jpg,AFNE05.jpg,AFSA07.jpg,FS,4,num_8,32,num_6,1.76670499501,,,2017_Aug_28_1146,60.0039838513,MAFE4ImagesEEG,001,101474,
AFNE01.JPG,AFNE01.JPG,AFNE01.JPG,AFNE01.JPG,AFNE01.JPG,AFNE01.JPG,,,,,1,6,16,4,,,,,,,,,,,,,,,,,,,AFSA05.jpg,AFNE17.jpg,AFNE15.jpg,AFSA01.jpg,AFSA05.jpg,FS,4,num_8,16,num_8,1.16681083906,,,2017_Aug_28_1146,60.0039838513,MAFE4ImagesEEG,001,101474,
AFNE01.JPG,AFNE01.JPG,AFNE01.JPG,AFNE01.JPG,AFNE01.JPG,AFNE01.JPG,,,,,1,7,17,8,,,,,,,,,,,,,,,,,,,AFNE07.jpg,AFNE03.jpg,AFSA07.jpg,AFSA16.jpg,AFNE03.jpg,FN,3,num_6,32,num_4,1.21672977216,,,2017_Aug_28_1146,60.0039838513,MAFE4ImagesEEG,001,101474,
AFNE01.JPG,AFNE01.JPG,AFNE01.JPG,AFNE01.JPG,AFNE01.JPG,AFNE01.JPG,,,,,1,8,18,6,,,,,,,,,,,,,,,,,,,AFNE06.jpg,AFNE04.jpg,AFSA19.jpg,AFSA18.jpg,AFSA19.jpg,FS,4,num_2,32,num_8,1.28340221214,,,2017_Aug_28_1146,60.0039838513,MAFE4ImagesEEG,001,101474,
AFNE01.JPG,AFNE01.JPG,AFNE01.JPG,AFNE01.JPG,AFNE01.JPG,AFNE01.JPG,,,,,1,9,19,0,,,,,,,,,,,,,,,,,,,AFNE17.jpg,AFNE05.jpg,AFSA12.jpg,AFSA10.jpg,AFNE05.jpg,FN,3,num_6,32,num_8,1.93306872327,,,2017_Aug_28_1146,60.0039838513,MAFE4ImagesEEG,001,101474,
AFNE01.JPG,AFNE01.JPG,AFNE01.JPG,AFNE01.JPG,AFNE01.JPG,AFNE01.JPG,,,,,2,0,20,2,,,,,,,,,,,,,,,,,,,AFNE10.jpg,AFNE02.jpg,AFSA11.jpg,AFSA06.jpg,AFNE10.jpg,FN,3,num_8,32,num_6,0.950141686655,,,2017_Aug_28_1146,60.0039838513,MAFE4ImagesEEG,001,101474,
AFNE01.JPG,AFNE01.JPG,AFNE01.JPG,AFNE01.JPG,AFNE01.JPG,AFNE01.JPG,,,,,2,1,21,3,,,,,,,,,,,,,,,,,,,AFNE12.jpg,AFNE17.jpg,AFSA09.jpg,AFSA16.jpg,AFSA16.jpg,FS,4,num_4,16,num_4,1.45009854721,,,2017_Aug_28_1146,60.0039838513,MAFE4ImagesEEG,001,101474,
AFNE01.JPG,AFNE01.JPG,AFNE01.JPG,AFNE01.JPG,AFNE01.JPG,AFNE01.JPG,,,,,2,2,22,8,,,,,,,,,,,,,,,,,,,AFNE15.jpg,AFNE13.jpg,AFSA20.jpg,AFSA17.jpg,AFNE13.jpg,FN,3,num_6,32,num_8,0.917036559491,,,2017_Aug_28_1146,60.0039838513,MAFE4ImagesEEG,001,101474,
AFNE01.JPG,AFNE01.JPG,AFNE01.JPG,AFNE01.JPG,AFNE01.JPG,AFNE01.JPG,,,,,2,3,23,0,,,,,,,,,,,,,,,,,,,AFSA19.jpg,AFNE06.jpg,AFSA16.jpg,AFNE03.jpg,AFNE06.jpg,FN,3,num_6,32,num_4,1.00010295739,,,2017_Aug_28_1146,60.0039838513,MAFE4ImagesEEG,001,101474,
AFNE01.JPG,AFNE01.JPG,AFNE01.JPG,AFNE01.JPG,AFNE01.JPG,AFNE01.JPG,,,,,2,4,24,4,,,,,,,,,,,,,,,,,,,AFNE01.jpg,AFSA19.jpg,AFNE17.jpg,AFSA02.jpg,AFSA19.jpg,FS,4,num_6,32,num_8,1.7833892222,,,2017_Aug_28_1146,60.0039838513,MAFE4ImagesEEG,001,101474,
AFNE01.JPG,AFNE01.JPG,AFNE01.JPG,AFNE01.JPG,AFNE01.JPG,AFNE01.JPG,,,,,2,5,25,7,,,,,,,,,,,,,,,,,,,AFSA10.jpg,AFNE16.jpg,AFNE08.jpg,AFSA17.jpg,AFSA17.jpg,FS,4,num_4,16,num_4,1.18349442474,,,2017_Aug_28_1146,60.0039838513,MAFE4ImagesEEG,001,101474,
AFNE01.JPG,AFNE01.JPG,AFNE01.JPG,AFNE01.JPG,AFNE01.JPG,AFNE01.JPG,,,,,2,6,26,6,,,,,,,,,,,,,,,,,,,AFNE18.jpg,AFSA11.jpg,AFNE20.jpg,AFSA16.jpg,AFSA16.jpg,FS,4,num_4,32,num_6,1.40010039147,,,2017_Aug_28_1146,60.0039838513,MAFE4ImagesEEG,001,101474,
AFNE01.JPG,AFNE01.JPG,AFNE01.JPG,AFNE01.JPG,AFNE01.JPG,AFNE01.JPG,,,,,2,7,27,5,,,,,,,,,,,,,,,,,,,AFNE18.jpg,AFSA06.jpg,AFNE08.jpg,AFSA05.jpg,AFSA05.jpg,FS,4,num_4,32,num_2,2.03339411344,,,2017_Aug_28_1146,60.0039838513,MAFE4ImagesEEG,001,101474,
AFNE01.JPG,AFNE01.JPG,AFNE01.JPG,AFNE01.JPG,AFNE01.JPG,AFNE01.JPG,,,,,2,8,28,1,,,,,,,,,,,,,,,,,,,AFNE08.jpg,AFNE06.jpg,AFSA10.jpg,AFSA13.jpg,AFNE06.jpg,FN,3,num_6,32,num_2,1.28340702323,,,2017_Aug_28_1146,60.0039838513,MAFE4ImagesEEG,001,101474,
AFNE01.JPG,AFNE01.JPG,AFNE01.JPG,AFNE01.JPG,AFNE01.JPG,AFNE01.JPG,,,,,2,9,29,9,,,,,,,,,,,,,,,,,,,AFNE12.jpg,AFSA18.jpg,AFSA14.jpg,AFNE09.jpg,AFNE09.jpg,FN,3,num_4,32,num_8,1.48336757228,,,2017_Aug_28_1146,60.0039838513,MAFE4ImagesEEG,001,101474,
AFNE01.JPG,AFNE01.JPG,AFNE01.JPG,AFNE01.JPG,AFNE01.JPG,AFNE01.JPG,,,,,3,0,30,1,,,,,,,,,,,,,,,,,,,AFSA19.jpg,AFNE20.jpg,AFSA04.jpg,AFNE16.jpg,AFSA04.jpg,FS,4,num_2,32,num_6,1.23340309417,,,2017_Aug_28_1146,60.0039838513,MAFE4ImagesEEG,001,101474,
AFNE01.JPG,AFNE01.JPG,AFNE01.JPG,AFNE01.JPG,AFNE01.JPG,AFNE01.JPG,,,,,3,1,31,8,,,,,,,,,,,,,,,,,,,AFSA18.jpg,AFNE04.jpg,AFNE03.jpg,AFSA11.jpg,AFSA11.jpg,FS,4,num_4,32,num_8,1.00010295739,,,2017_Aug_28_1146,60.0039838513,MAFE4ImagesEEG,001,101474,
AFNE01.JPG,AFNE01.JPG,AFNE01.JPG,AFNE01.JPG,AFNE01.JPG,AFNE01.JPG,,,,,3,2,32,9,,,,,,,,,,,,,,,,,,,AFNE08.jpg,AFNE15.jpg,AFSA08.jpg,AFSA17.jpg,AFSA17.jpg,FS,4,num_4,16,num_4,1.88340670249,,,2017_Aug_28_1146,60.0039838513,MAFE4ImagesEEG,001,101474,
AFNE01.JPG,AFNE01.JPG,AFNE01.JPG,AFNE01.JPG,AFNE01.JPG,AFNE01.JPG,,,,,3,3,33,6,,,,,,,,,,,,,,,,,,,AFNE08.jpg,AFSA09.jpg,AFSA04.jpg,AFNE06.jpg,AFNE06.jpg,FN,3,num_4,16,num_4,1.20017352008,,,2017_Aug_28_1146,60.0039838513,MAFE4ImagesEEG,001,101474,
AFNE01.JPG,AFNE01.JPG,AFNE01.JPG,AFNE01.JPG,AFNE01.JPG,AFNE01.JPG,,,,,3,4,34,0,,,,,,,,,,,,,,,,,,,AFNE08.jpg,AFSA09.jpg,AFSA05.jpg,AFNE05.jpg,AFSA09.jpg,FS,4,num_6,16,num_6,1.06681035797,,,2017_Aug_28_1146,60.0039838513,MAFE4ImagesEEG,001,101474,
AFNE01.JPG,AFNE01.JPG,AFNE01.JPG,AFNE01.JPG,AFNE01.JPG,AFNE01.JPG,,,,,3,5,35,2,,,,,,,,,,,,,,,,,,,AFNE06.jpg,AFSA12.jpg,AFNE13.jpg,AFSA09.jpg,AFSA09.jpg,FS,4,num_4,32,num_6,1.916699783,,,2017_Aug_28_1146,60.0039838513,MAFE4ImagesEEG,001,101474,
AFNE01.JPG,AFNE01.JPG,AFNE01.JPG,AFNE01.JPG,AFNE01.JPG,AFNE01.JPG,,,,,3,6,36,4,,,,,,,,,,,,,,,,,,,AFNE15.jpg,AFNE04.jpg,AFSA10.jpg,AFSA18.jpg,AFNE15.jpg,FN,3,num_8,16,num_8,1.08342081503,,,2017_Aug_28_1146,60.0039838513,MAFE4ImagesEEG,001,101474,
AFNE01.JPG,AFNE01.JPG,AFNE01.JPG,AFNE01.JPG,AFNE01.JPG,AFNE01.JPG,,,,,3,7,37,5,,,,,,,,,,,,,,,,,,,AFNE03.jpg,AFSA02.jpg,AFSA10.jpg,AFNE10.jpg,AFSA10.jpg,FS,4,num_2,32,num_6,1.28329765107,,,2017_Aug_28_1146,60.0039838513,MAFE4ImagesEEG,001,101474,
AFNE01.JPG,AFNE01.JPG,AFNE01.JPG,AFNE01.JPG,AFNE01.JPG,AFNE01.JPG,,,,,3,8,38,3,,,,,,,,,,,,,,,,,,,AFNE07.jpg,AFSA05.jpg,AFNE18.jpg,AFSA17.jpg,AFSA05.jpg,FS,4,num_6,32,num_4,1.40012572988,,,2017_Aug_28_1146,60.0039838513,MAFE4ImagesEEG,001,101474,
AFNE01.JPG,AFNE01.JPG,AFNE01.JPG,AFNE01.JPG,AFNE01.JPG,AFNE01.JPG,,,,,3,9,39,7,,,,,,,,,,,,,,,,,,,AFSA09.jpg,AFNE10.jpg,AFNE20.jpg,AFSA12.jpg,AFSA12.jpg,FS,4,num_4,16,num_4,1.08344711567,,,2017_Aug_28_1146,60.0039838513,MAFE4ImagesEEG,001,101474,
AFNE01.JPG,AFNE01.JPG,AFNE01.JPG,AFNE01.JPG,AFNE01.JPG,AFNE01.JPG,,,,,4,0,40,7,,,,,,,,,,,,,,,,,,,AFSA05.jpg,AFSA18.jpg,AFNE10.jpg,AFNE01.jpg,AFSA05.jpg,FS,4,num_8,16,num_8,0.95012757415,,,2017_Aug_28_1146,60.0039838513,MAFE4ImagesEEG,001,101474,
AFNE01.JPG,AFNE01.JPG,AFNE01.JPG,AFNE01.JPG,AFNE01.JPG,AFNE01.JPG,,,,,4,1,41,6,,,,,,,,,,,,,,,,,,,AFSA01.jpg,AFSA14.jpg,AFNE20.jpg,AFNE16.jpg,AFSA14.jpg,FS,4,num_6,32,num_2,1.63339732087,,,2017_Aug_28_1146,60.0039838513,MAFE4ImagesEEG,001,101474,
AFNE01.JPG,AFNE01.JPG,AFNE01.JPG,AFNE01.JPG,AFNE01.JPG,AFNE01.JPG,,,,,4,2,42,1,,,,,,,,,,,,,,,,,,,AFSA09.jpg,AFNE13.jpg,AFSA20.jpg,AFNE04.jpg,AFSA09.jpg,FS,4,num_8,16,num_8,0.933591207897,,,2017_Aug_28_1146,60.0039838513,MAFE4ImagesEEG,001,101474,
AFNE01.JPG,AFNE01.JPG,AFNE01.JPG,AFNE01.JPG,AFNE01.JPG,AFNE01.JPG,,,,,4,3,43,2,,,,,,,,,,,,,,,,,,,AFSA05.jpg,AFNE04.jpg,AFNE14.jpg,AFSA02.jpg,AFSA05.jpg,FS,4,num_8,32,num_2,1.26674139898,,,2017_Aug_28_1146,60.0039838513,MAFE4ImagesEEG,001,101474,
AFNE01.JPG,AFNE01.JPG,AFNE01.JPG,AFNE01.JPG,AFNE01.JPG,AFNE01.JPG,,,,,4,4,44,4,,,,,,,,,,,,,,,,,,,AFSA16.jpg,AFSA08.jpg,AFNE10.jpg,AFNE12.jpg,AFNE10.jpg,FN,3,num_2,16,num_2,1.31672929105,,,2017_Aug_28_1146,60.0039838513,MAFE4ImagesEEG,001,101474,
AFNE01.JPG,AFNE01.JPG,AFNE01.JPG,AFNE01.JPG,AFNE01.JPG,AFNE01.JPG,,,,,4,5,45,3,,,,,,,,,,,,,,,,,,,AFSA17.jpg,AFNE17.jpg,AFNE07.jpg,AFSA06.jpg,AFNE17.jpg,FN,3,num_6,32,num_4,1.50008868446,,,2017_Aug_28_1146,60.0039838513,MAFE4ImagesEEG,001,101474,
AFNE01.JPG,AFNE01.JPG,AFNE01.JPG,AFNE01.JPG,AFNE01.JPG,AFNE01.JPG,,,,,4,6,46,5,,,,,,,,,,,,,,,,,,,AFSA19.jpg,AFNE07.jpg,AFNE14.jpg,AFSA14.jpg,AFSA19.jpg,FS,4,num_8,32,num_2,1.68338393001,,,2017_Aug_28_1146,60.0039838513,MAFE4ImagesEEG,001,101474,
AFNE01.JPG,AFNE01.JPG,AFNE01.JPG,AFNE01.JPG,AFNE01.JPG,AFNE01.JPG,,,,,4,7,47,0,,,,,,,,,,,,,,,,,,,AFSA07.jpg,AFSA18.jpg,AFNE06.jpg,AFNE16.jpg,AFSA07.jpg,FS,4,num_8,16,num_8,1.05008924575,,,2017_Aug_28_1146,60.0039838513,MAFE4ImagesEEG,001,101474,
AFNE01.JPG,AFNE01.JPG,AFNE01.JPG,AFNE01.JPG,AFNE01.JPG,AFNE01.JPG,,,,,4,8,48,8,,,,,,,,,,,,,,,,,,,AFNE06.jpg,AFSA10.jpg,AFNE13.jpg,AFSA04.jpg,AFNE06.jpg,FN,3,num_8,32,num_2,1.01673939434,,,2017_Aug_28_1146,60.0039838513,MAFE4ImagesEEG,001,101474,
AFNE01.JPG,AFNE01.JPG,AFNE01.JPG,AFNE01.JPG,AFNE01.JPG,AFNE01.JPG,,,,,4,9,49,9,,,,,,,,,,,,,,,,,,,AFNE08.jpg,AFSA05.jpg,AFSA07.jpg,AFNE15.jpg,AFNE15.jpg,FN,3,num_4,32,num_8,0.90008964669,,,2017_Aug_28_1146,60.0039838513,MAFE4ImagesEEG,001,101474,
AFNE01.JPG,AFNE01.JPG,AFNE01.JPG,AFNE01.JPG,AFNE01.JPG,AFNE01.JPG,,,,,5,0,50,1,,,,,,,,,,,,,,,,,,,AFNE17.jpg,AFSA01.jpg,AFNE04.jpg,AFSA20.jpg,AFNE04.jpg,FN,3,num_2,32,num_4,0.533465478016,,,2017_Aug_28_1146,60.0039838513,MAFE4ImagesEEG,001,101474,
AFNE01.JPG,AFNE01.JPG,AFNE01.JPG,AFNE01.JPG,AFNE01.JPG,AFNE01.JPG,,,,,5,1,51,3,,,,,,,,,,,,,,,,,,,AFSA08.jpg,AFNE14.jpg,AFSA10.jpg,AFNE17.jpg,AFNE14.jpg,FN,3,num_6,32,num_4,1.85004145559,,,2017_Aug_28_1146,60.0039838513,MAFE4ImagesEEG,001,101474,
AFNE01.JPG,AFNE01.JPG,AFNE01.JPG,AFNE01.JPG,AFNE01.JPG,AFNE01.JPG,,,,,5,2,52,8,,,,,,,,,,,,,,,,,,,AFNE02.jpg,AFSA08.jpg,AFNE14.jpg,AFSA20.jpg,AFSA20.jpg,FS,4,num_4,32,num_2,1.200114504,,,2017_Aug_28_1146,60.0039838513,MAFE4ImagesEEG,001,101474,
AFNE01.JPG,AFNE01.JPG,AFNE01.JPG,AFNE01.JPG,AFNE01.JPG,AFNE01.JPG,,,,,5,3,53,9,,,,,,,,,,,,,,,,,,,AFNE20.jpg,AFSA05.jpg,AFNE06.jpg,AFSA16.jpg,AFSA05.jpg,FS,4,num_6,32,num_8,1.15011506531,,,2017_Aug_28_1146,60.0039838513,MAFE4ImagesEEG,001,101474,
AFNE01.JPG,AFNE01.JPG,AFNE01.JPG,AFNE01.JPG,AFNE01.JPG,AFNE01.JPG,,,,,5,4,54,7,,,,,,,,,,,,,,,,,,,AFSA15.jpg,AFNE06.jpg,AFNE10.jpg,AFSA06.jpg,AFNE06.jpg,FN,3,num_6,32,num_2,1.16674316305,,,2017_Aug_28_1146,60.0039838513,MAFE4ImagesEEG,001,101474,
AFNE01.JPG,AFNE01.JPG,AFNE01.JPG,AFNE01.JPG,AFNE01.JPG,AFNE01.JPG,,,,,5,5,55,0,,,,,,,,,,,,,,,,,,,AFNE19.jpg,AFSA06.jpg,AFNE10.jpg,AFSA18.jpg,AFNE10.jpg,FN,3,num_2,32,num_6,2.06669938209,,,2017_Aug_28_1146,60.0039838513,MAFE4ImagesEEG,001,101474,
AFNE01.JPG,AFNE01.JPG,AFNE01.JPG,AFNE01.JPG,AFNE01.JPG,AFNE01.JPG,,,,,5,6,56,5,,,,,,,,,,,,,,,,,,,AFNE12.jpg,AFNE19.jpg,AFSA11.jpg,AFSA02.jpg,AFNE12.jpg,FN,3,num_8,16,num_8,1.10015219089,,,2017_Aug_28_1146,60.0039838513,MAFE4ImagesEEG,001,101474,
AFNE01.JPG,AFNE01.JPG,AFNE01.JPG,AFNE01.JPG,AFNE01.JPG,AFNE01.JPG,,,,,5,7,57,4,,,,,,,,,,,,,,,,,,,AFNE12.jpg,AFNE07.jpg,AFSA07.jpg,AFSA20.jpg,AFSA20.jpg,FS,4,num_4,32,num_2,0.983428352396,,,2017_Aug_28_1146,60.0039838513,MAFE4ImagesEEG,001,101474,
AFNE01.JPG,AFNE01.JPG,AFNE01.JPG,AFNE01.JPG,AFNE01.JPG,AFNE01.JPG,,,,,5,8,58,2,,,,,,,,,,,,,,,,,,,AFNE06.jpg,AFSA10.jpg,AFSA11.jpg,AFNE09.jpg,AFSA10.jpg,FS,4,num_6,32,num_8,1.13338401017,,,2017_Aug_28_1146,60.0039838513,MAFE4ImagesEEG,001,101474,
AFNE01.JPG,AFNE01.JPG,AFNE01.JPG,AFNE01.JPG,AFNE01.JPG,AFNE01.JPG,,,,,5,9,59,6,,,,,,,,,,,,,,,,,,,AFSA19.jpg,AFNE19.jpg,AFNE05.jpg,AFSA13.jpg,AFNE05.jpg,FN,3,num_2,32,num_6,0.883426267595,,,2017_Aug_28_1146,60.0039838513,MAFE4ImagesEEG,001,101474,
,,,,,,,,,,,,,,,,,,,,,,,,,,,,,,,,,,,,,,,,,,,space,29.2478411826,2017_Aug_28_1146,60.0039838513,MAFE4ImagesEEG,001,101474,
AFNE01.JPG,AFNE01.JPG,AFNE01.JPG,AFNE01.JPG,AFNE01.JPG,AFNE01.JPG,,,,,,,,,0,0,0,8,,,,,,,,,,,,,,,AMSA15.jpg,AMNE16.jpg,AMNE17.jpg,AMSA20.jpg,AMSA20.jpg,MS,2,num_4,32,num_8,1.63375719058,,,2017_Aug_28_1146,60.0039838513,MAFE4ImagesEEG,001,101474,
AFNE01.JPG,AFNE01.JPG,AFNE01.JPG,AFNE01.JPG,AFNE01.JPG,AFNE01.JPG,,,,,,,,,0,1,1,5,,,,,,,,,,,,,,,AMNE02.jpg,AMSA10.jpg,AMSA16.jpg,AMNE01.jpg,AMNE02.jpg,MN,1,num_8,32,num_2,1.33343853589,,,2017_Aug_28_1146,60.0039838513,MAFE4ImagesEEG,001,101474,
AFNE01.JPG,AFNE01.JPG,AFNE01.JPG,AFNE01.JPG,AFNE01.JPG,AFNE01.JPG,,,,,,,,,0,2,2,6,,,,,,,,,,,,,,,AMSA16.jpg,AMNE02.jpg,AMNE03.jpg,AMSA08.jpg,AMNE03.jpg,MN,1,num_2,32,num_4,0.900012989965,,,2017_Aug_28_1146,60.0039838513,MAFE4ImagesEEG,001,101474,
AFNE01.JPG,AFNE01.JPG,AFNE01.JPG,AFNE01.JPG,AFNE01.JPG,AFNE01.JPG,,,,,,,,,0,3,3,2,,,,,,,,,,,,,,,AMSA05.jpg,AMNE05.jpg,AMSA17.jpg,AMNE06.jpg,AMNE06.jpg,MN,1,num_4,32,num_2,0.98344759678,,,2017_Aug_28_1146,60.0039838513,MAFE4ImagesEEG,001,101474,
AFNE01.JPG,AFNE01.JPG,AFNE01.JPG,AFNE01.JPG,AFNE01.JPG,AFNE01.JPG,,,,,,,,,0,4,4,0,,,,,,,,,,,,,,,AMSA01.jpg,AMNE07.jpg,AMNE03.jpg,AMSA05.jpg,AMNE03.jpg,MN,1,num_2,32,num_4,0.950120517868,,,2017_Aug_28_1146,60.0039838513,MAFE4ImagesEEG,001,101474,
AFNE01.JPG,AFNE01.JPG,AFNE01.JPG,AFNE01.JPG,AFNE01.JPG,AFNE01.JPG,,,,,,,,,0,5,5,9,,,,,,,,,,,,,,,AMNE12.jpg,AMNE16.jpg,AMSA20.jpg,AMSA04.jpg,AMSA20.jpg,MS,2,num_2,16,num_2,1.34978342065,,,2017_Aug_28_1146,60.0039838513,MAFE4ImagesEEG,001,101474,
AFNE01.JPG,AFNE01.JPG,AFNE01.JPG,AFNE01.JPG,AFNE01.JPG,AFNE01.JPG,,,,,,,,,0,6,6,4,,,,,,,,,,,,,,,AMNE18.jpg,AMSA13.jpg,AMNE09.jpg,AMSA15.jpg,AMNE09.jpg,MN,1,num_2,32,num_8,1.00009782554,,,2017_Aug_28_1146,60.0039838513,MAFE4ImagesEEG,001,101474,
AFNE01.JPG,AFNE01.JPG,AFNE01.JPG,AFNE01.JPG,AFNE01.JPG,AFNE01.JPG,,,,,,,,,0,7,7,3,,,,,,,,,,,,,,,AMNE13.jpg,AMNE15.jpg,AMSA07.jpg,AMSA06.jpg,AMSA06.jpg,MS,2,num_4,16,num_4,1.25011169753,,,2017_Aug_28_1146,60.0039838513,MAFE4ImagesEEG,001,101474,
AFNE01.JPG,AFNE01.JPG,AFNE01.JPG,AFNE01.JPG,AFNE01.JPG,AFNE01.JPG,,,,,,,,,0,8,8,1,,,,,,,,,,,,,,,AMNE17.jpg,AMSA10.jpg,AMSA04.jpg,AMNE15.jpg,AMSA04.jpg,MS,2,num_2,16,num_2,1.05011426343,,,2017_Aug_28_1146,60.0039838513,MAFE4ImagesEEG,001,101474,
AFNE01.JPG,AFNE01.JPG,AFNE01.JPG,AFNE01.JPG,AFNE01.JPG,AFNE01.JPG,,,,,,,,,0,9,9,7,,,,,,,,,,,,,,,AMNE13.jpg,AMSA01.jpg,AMSA20.jpg,AMNE17.jpg,AMNE13.jpg,MN,1,num_8,16,num_8,1.20014304982,,,2017_Aug_28_1146,60.0039838513,MAFE4ImagesEEG,001,101474,
AFNE01.JPG,AFNE01.JPG,AFNE01.JPG,AFNE01.JPG,AFNE01.JPG,AFNE01.JPG,,,,,,,,,1,0,10,9,,,,,,,,,,,,,,,AMSA11.jpg,AMNE15.jpg,AMNE03.jpg,AMSA08.jpg,AMNE03.jpg,MN,1,num_2,32,num_4,0.883522810211,,,2017_Aug_28_1146,60.0039838513,MAFE4ImagesEEG,001,101474,
AFNE01.JPG,AFNE01.JPG,AFNE01.JPG,AFNE01.JPG,AFNE01.JPG,AFNE01.JPG,,,,,,,,,1,1,11,2,,,,,,,,,,,,,,,AMNE07.jpg,AMSA10.jpg,AMNE08.jpg,AMSA16.jpg,AMNE08.jpg,MN,1,num_2,32,num_8,0.900101193314,,,2017_Aug_28_1146,60.0039838513,MAFE4ImagesEEG,001,101474,
AFNE01.JPG,AFNE01.JPG,AFNE01.JPG,AFNE01.JPG,AFNE01.JPG,AFNE01.JPG,,,,,,,,,1,2,12,5,,,,,,,,,,,,,,,AMSA17.jpg,AMNE09.jpg,AMSA19.jpg,AMNE07.jpg,AMNE09.jpg,MN,1,num_6,32,num_2,1.15010480161,,,2017_Aug_28_1146,60.0039838513,MAFE4ImagesEEG,001,101474,
AFNE01.JPG,AFNE01.JPG,AFNE01.JPG,AFNE01.JPG,AFNE01.JPG,AFNE01.JPG,,,,,,,,,1,3,13,3,,,,,,,,,,,,,,,AMNE01.jpg,AMSA11.jpg,AMNE20.jpg,AMSA09.jpg,AMNE20.jpg,MN,1,num_2,32,num_8,0.666753266327,,,2017_Aug_28_1146,60.0039838513,MAFE4ImagesEEG,001,101474,
AFNE01.JPG,AFNE01.JPG,AFNE01.JPG,AFNE01.JPG,AFNE01.JPG,AFNE01.JPG,,,,,,,,,1,4,14,4,,,,,,,,,,,,,,,AMSA10.jpg,AMSA13.jpg,AMNE18.jpg,AMNE17.jpg,AMNE17.jpg,MN,1,num_4,16,num_4,0.716596184182,,,2017_Aug_28_1146,60.0039838513,MAFE4ImagesEEG,001,101474,
AFNE01.JPG,AFNE01.JPG,AFNE01.JPG,AFNE01.JPG,AFNE01.JPG,AFNE01.JPG,,,,,,,,,1,5,15,1,,,,,,,,,,,,,,,AMSA17.jpg,AMNE14.jpg,AMNE20.jpg,AMSA11.jpg,AMSA11.jpg,MS,2,num_4,16,num_4,0.883491057,,,2017_Aug_28_1146,60.0039838513,MAFE4ImagesEEG,001,101474,
AFNE01.JPG,AFNE01.JPG,AFNE01.JPG,AFNE01.JPG,AFNE01.JPG,AFNE01.JPG,,,,,,,,,1,6,16,0,,,,,,,,,,,,,,,AMSA03.jpg,AMNE08.jpg,AMNE10.jpg,AMSA17.jpg,AMSA03.jpg,MS,2,num_8,32,num_4,0.90013679539,,,2017_Aug_28_1146,60.0039838513,MAFE4ImagesEEG,001,101474,
AFNE01.JPG,AFNE01.JPG,AFNE01.JPG,AFNE01.JPG,AFNE01.JPG,AFNE01.JPG,,,,,,,,,1,7,17,7,,,,,,,,,,,,,,,AMSA07.jpg,AMSA04.jpg,AMNE06.jpg,AMNE02.jpg,AMNE06.jpg,MN,1,num_2,16,num_2,2.61663419177,,,2017_Aug_28_1146,60.0039838513,MAFE4ImagesEEG,001,101474,
AFNE01.JPG,AFNE01.JPG,AFNE01.JPG,AFNE01.JPG,AFNE01.JPG,AFNE01.JPG,,,,,,,,,1,8,18,8,,,,,,,,,,,,,,,AMSA07.jpg,AMNE03.jpg,AMSA03.jpg,AMNE15.jpg,AMNE03.jpg,MN,1,num_6,32,num_4,1.15010512239,,,2017_Aug_28_1146,60.0039838513,MAFE4ImagesEEG,001,101474,
AFNE01.JPG,AFNE01.JPG,AFNE01.JPG,AFNE01.JPG,AFNE01.JPG,AFNE01.JPG,,,,,,,,,1,9,19,6,,,,,,,,,,,,,,,AMNE09.jpg,AMNE01.jpg,AMSA09.jpg,AMSA11.jpg,AMNE01.jpg,MN,1,num_6,32,num_8,1.06699382095,,,2017_Aug_28_1146,60.0039838513,MAFE4ImagesEEG,001,101474,
AFNE01.JPG,AFNE01.JPG,AFNE01.JPG,AFNE01.JPG,AFNE01.JPG,AFNE01.JPG,,,,,,,,,2,0,20,1,,,,,,,,,,,,,,,AMSA17.jpg,AMSA19.jpg,AMNE08.jpg,AMNE01.jpg,AMSA19.jpg,MS,2,num_6,32,num_8,1.16674348377,,,2017_Aug_28_1146,60.0039838513,MAFE4ImagesEEG,001,101474,
AFNE01.JPG,AFNE01.JPG,AFNE01.JPG,AFNE01.JPG,AFNE01.JPG,AFNE01.JPG,,,,,,,,,2,1,21,0,,,,,,,,,,,,,,,AMSA15.jpg,AMNE03.jpg,AMNE04.jpg,AMSA19.jpg,AMNE03.jpg,MN,1,num_6,32,num_4,1.01676120464,,,2017_Aug_28_1146,60.0039838513,MAFE4ImagesEEG,001,101474,
AFNE01.JPG,AFNE01.JPG,AFNE01.JPG,AFNE01.JPG,AFNE01.JPG,AFNE01.JPG,,,,,,,,,2,2,22,6,,,,,,,,,,,,,,,AMSA19.jpg,AMSA10.jpg,AMNE16.jpg,AMNE19.jpg,AMNE16.jpg,MN,1,num_2,16,num_2,1.46674396488,,,2017_Aug_28_1146,60.0039838513,MAFE4ImagesEEG,001,101474,
AFNE01.JPG,AFNE01.JPG,AFNE01.JPG,AFNE01.JPG,AFNE01.JPG,AFNE01.JPG,,,,,,,,,2,3,23,9,,,,,,,,,,,,,,,AMNE18.jpg,AMSA07.jpg,AMSA11.jpg,AMNE07.jpg,AMNE18.jpg,MN,1,num_8,32,num_6,1.03346563838,,,2017_Aug_28_1146,60.0039838513,MAFE4ImagesEEG,001,101474,
AFNE01.JPG,AFNE01.JPG,AFNE01.JPG,AFNE01.JPG,AFNE01.JPG,AFNE01.JPG,,,,,,,,,2,4,24,3,,,,,,,,,,,,,,,AMNE04.jpg,AMSA11.jpg,AMSA14.jpg,AMNE10.jpg,AMNE10.jpg,MN,1,num_4,16,num_4,0.583529706113,,,2017_Aug_28_1146,60.0039838513,MAFE4ImagesEEG,001,101474,
AFNE01.JPG,AFNE01.JPG,AFNE01.JPG,AFNE01.JPG,AFNE01.JPG,AFNE01.JPG,,,,,,,,,2,5,25,5,,,,,,,,,,,,,,,AMNE06.jpg,AMSA15.jpg,AMNE12.jpg,AMSA17.jpg,AMNE12.jpg,MN,1,num_2,32,num_8,1.08347213335,,,2017_Aug_28_1146,60.0039838513,MAFE4ImagesEEG,001,101474,
AFNE01.JPG,AFNE01.JPG,AFNE01.JPG,AFNE01.JPG,AFNE01.JPG,AFNE01.JPG,,,,,,,,,2,6,26,8,,,,,,,,,,,,,,,AMNE08.jpg,AMSA07.jpg,AMSA15.jpg,AMNE16.jpg,AMSA07.jpg,MS,2,num_6,16,num_6,1.2164629169,,,2017_Aug_28_1146,60.0039838513,MAFE4ImagesEEG,001,101474,
AFNE01.JPG,AFNE01.JPG,AFNE01.JPG,AFNE01.JPG,AFNE01.JPG,AFNE01.JPG,,,,,,,,,2,7,27,2,,,,,,,,,,,,,,,AMSA10.jpg,AMNE10.jpg,AMNE19.jpg,AMSA19.jpg,AMSA10.jpg,MS,2,num_8,16,num_8,1.11676040277,,,2017_Aug_28_1146,60.0039838513,MAFE4ImagesEEG,001,101474,
AFNE01.JPG,AFNE01.JPG,AFNE01.JPG,AFNE01.JPG,AFNE01.JPG,AFNE01.JPG,,,,,,,,,2,8,28,7,,,,,,,,,,,,,,,AMNE06.jpg,AMSA11.jpg,AMNE16.jpg,AMSA06.jpg,AMSA06.jpg,MS,2,num_4,16,num_4,1.06680715055,,,2017_Aug_28_1146,60.0039838513,MAFE4ImagesEEG,001,101474,
AFNE01.JPG,AFNE01.JPG,AFNE01.JPG,AFNE01.JPG,AFNE01.JPG,AFNE01.JPG,,,,,,,,,2,9,29,4,,,,,,,,,,,,,,,AMSA04.jpg,AMNE08.jpg,AMNE05.jpg,AMSA14.jpg,AMNE05.jpg,MN,1,num_2,32,num_8,1.00020944289,,,2017_Aug_28_1146,60.0039838513,MAFE4ImagesEEG,001,101474,
AFNE01.JPG,AFNE01.JPG,AFNE01.JPG,AFNE01.JPG,AFNE01.JPG,AFNE01.JPG,,,,,,,,,3,0,30,8,,,,,,,,,,,,,,,AMNE04.jpg,AMNE19.jpg,AMSA15.jpg,AMSA08.jpg,AMSA15.jpg,MS,2,num_2,16,num_2,1.18346042637,,,2017_Aug_28_1146,60.0039838513,MAFE4ImagesEEG,001,101474,
AFNE01.JPG,AFNE01.JPG,AFNE01.JPG,AFNE01.JPG,AFNE01.JPG,AFNE01.JPG,,,,,,,,,3,1,31,7,,,,,,,,,,,,,,,AMNE10.jpg,AMSA10.jpg,AMSA20.jpg,AMNE08.jpg,AMSA10.jpg,MS,2,num_6,16,num_6,1.51674885614,,,2017_Aug_28_1146,60.0039838513,MAFE4ImagesEEG,001,101474,
AFNE01.JPG,AFNE01.JPG,AFNE01.JPG,AFNE01.JPG,AFNE01.JPG,AFNE01.JPG,,,,,,,,,3,2,32,5,,,,,,,,,,,,,,,AMNE02.jpg,AMSA07.jpg,AMNE05.jpg,AMSA04.jpg,AMSA04.jpg,MS,2,num_4,32,num_8,1.2834692467,,,2017_Aug_28_1146,60.0039838513,MAFE4ImagesEEG,001,101474,
AFNE01.JPG,AFNE01.JPG,AFNE01.JPG,AFNE01.JPG,AFNE01.JPG,AFNE01.JPG,,,,,,,,,3,3,33,4,,,,,,,,,,,,,,,AMSA09.jpg,AMNE19.jpg,AMNE16.jpg,AMSA18.jpg,AMNE19.jpg,MN,1,num_6,32,num_2,1.96669793877,,,2017_Aug_28_1146,60.0039838513,MAFE4ImagesEEG,001,101474,
AFNE01.JPG,AFNE01.JPG,AFNE01.JPG,AFNE01.JPG,AFNE01.JPG,AFNE01.JPG,,,,,,,,,3,4,34,2,,,,,,,,,,,,,,,AMNE19.jpg,AMSA08.jpg,AMSA19.jpg,AMNE07.jpg,AMNE19.jpg,MN,1,num_8,16,num_8,1.75006278476,,,2017_Aug_28_1146,60.0039838513,MAFE4ImagesEEG,001,101474,
AFNE01.JPG,AFNE01.JPG,AFNE01.JPG,AFNE01.JPG,AFNE01.JPG,AFNE01.JPG,,,,,,,,,3,5,35,9,,,,,,,,,,,,,,,AMSA17.jpg,AMNE15.jpg,AMSA16.jpg,AMNE14.jpg,AMNE15.jpg,MN,1,num_6,32,num_4,0.900147059059,,,2017_Aug_28_1146,60.0039838513,MAFE4ImagesEEG,001,101474,
AFNE01.JPG,AFNE01.JPG,AFNE01.JPG,AFNE01.JPG,AFNE01.JPG,AFNE01.JPG,,,,,,,,,3,6,36,3,,,,,,,,,,,,,,,AMNE02.jpg,AMSA20.jpg,AMSA02.jpg,AMNE04.jpg,AMNE04.jpg,MN,1,num_4,32,num_8,0.700141927227,,,2017_Aug_28_1146,60.0039838513,MAFE4ImagesEEG,001,101474,
AFNE01.JPG,AFNE01.JPG,AFNE01.JPG,AFNE01.JPG,AFNE01.JPG,AFNE01.JPG,,,,,,,,,3,7,37,1,,,,,,,,,,,,,,,AMSA04.jpg,AMNE08.jpg,AMSA15.jpg,AMNE13.jpg,AMNE13.jpg,MN,1,num_4,16,num_4,1.08344647419,,,2017_Aug_28_1146,60.0039838513,MAFE4ImagesEEG,001,101474,
AFNE01.JPG,AFNE01.JPG,AFNE01.JPG,AFNE01.JPG,AFNE01.JPG,AFNE01.JPG,,,,,,,,,3,8,38,0,,,,,,,,,,,,,,,AMNE16.jpg,AMSA13.jpg,AMNE20.jpg,AMSA12.jpg,AMNE16.jpg,MN,1,num_8,16,num_8,1.06676288851,,,2017_Aug_28_1146,60.0039838513,MAFE4ImagesEEG,001,101474,
AFNE01.JPG,AFNE01.JPG,AFNE01.JPG,AFNE01.JPG,AFNE01.JPG,AFNE01.JPG,,,,,,,,,3,9,39,6,,,,,,,,,,,,,,,AMSA09.jpg,AMNE18.jpg,AMNE04.jpg,AMSA06.jpg,AMSA09.jpg,MS,2,num_8,32,num_4,0.766770425893,,,2017_Aug_28_1146,60.0039838513,MAFE4ImagesEEG,001,101474,
AFNE01.JPG,AFNE01.JPG,AFNE01.JPG,AFNE01.JPG,AFNE01.JPG,AFNE01.JPG,,,,,,,,,4,0,40,7,,,,,,,,,,,,,,,AMNE11.jpg,AMSA04.jpg,AMNE06.jpg,AMSA02.jpg,AMSA02.jpg,MS,2,num_4,32,num_2,1.86676385073,,,2017_Aug_28_1146,60.0039838513,MAFE4ImagesEEG,001,101474,
AFNE01.JPG,AFNE01.JPG,AFNE01.JPG,AFNE01.JPG,AFNE01.JPG,AFNE01.JPG,,,,,,,,,4,1,41,4,,,,,,,,,,,,,,,AMNE16.jpg,AMNE01.jpg,AMSA13.jpg,AMSA06.jpg,AMSA13.jpg,MS,2,num_2,32,num_8,0.9667460497,,,2017_Aug_28_1146,60.0039838513,MAFE4ImagesEEG,001,101474,
AFNE01.JPG,AFNE01.JPG,AFNE01.JPG,AFNE01.JPG,AFNE01.JPG,AFNE01.JPG,,,,,,,,,4,2,42,9,,,,,,,,,,,,,,,AMNE20.jpg,AMNE03.jpg,AMSA09.jpg,AMSA13.jpg,AMNE20.jpg,MN,1,num_8,16,num_8,0.983510782477,,,2017_Aug_28_1146,60.0039838513,MAFE4ImagesEEG,001,101474,
AFNE01.JPG,AFNE01.JPG,AFNE01.JPG,AFNE01.JPG,AFNE01.JPG,AFNE01.JPG,,,,,,,,,4,3,43,1,,,,,,,,,,,,,,,AMSA10.jpg,AMSA18.jpg,AMNE19.jpg,AMNE06.jpg,AMNE06.jpg,MN,1,num_4,16,num_4,0.983457218972,,,2017_Aug_28_1146,60.0039838513,MAFE4ImagesEEG,001,101474,
AFNE01.JPG,AFNE01.JPG,AFNE01.JPG,AFNE01.JPG,AFNE01.JPG,AFNE01.JPG,,,,,,,,,4,4,44,8,,,,,,,,,,,,,,,AMNE09.jpg,AMSA05.jpg,AMNE04.jpg,AMSA11.jpg,AMSA05.jpg,MS,2,num_6,32,num_8,1.45008603836,,,2017_Aug_28_1146,60.0039838513,MAFE4ImagesEEG,001,101474,
AFNE01.JPG,AFNE01.JPG,AFNE01.JPG,AFNE01.JPG,AFNE01.JPG,AFNE01.JPG,,,,,,,,,4,5,45,2,,,,,,,,,,,,,,,AMNE01.jpg,AMNE06.jpg,AMSA05.jpg,AMSA11.jpg,AMSA05.jpg,MS,2,num_2,16,num_2,2.33331376823,,,2017_Aug_28_1146,60.0039838513,MAFE4ImagesEEG,001,101474,
AFNE01.JPG,AFNE01.JPG,AFNE01.JPG,AFNE01.JPG,AFNE01.JPG,AFNE01.JPG,,,,,,,,,4,6,46,5,,,,,,,,,,,,,,,AMNE10.jpg,AMSA02.jpg,AMNE16.jpg,AMSA12.jpg,AMSA12.jpg,MS,2,num_4,32,num_8,0.866751983383,,,2017_Aug_28_1146,60.0039838513,MAFE4ImagesEEG,001,101474,
AFNE01.JPG,AFNE01.JPG,AFNE01.JPG,AFNE01.JPG,AFNE01.JPG,AFNE01.JPG,,,,,,,,,4,7,47,6,,,,,,,,,,,,,,,AMNE07.jpg,AMSA12.jpg,AMNE14.jpg,AMSA17.jpg,AMNE07.jpg,MN,1,num_8,16,num_8,1.08345802082,,,2017_Aug_28_1146,60.0039838513,MAFE4ImagesEEG,001,101474,
AFNE01.JPG,AFNE01.JPG,AFNE01.JPG,AFNE01.JPG,AFNE01.JPG,AFNE01.JPG,,,,,,,,,4,8,48,0,,,,,,,,,,,,,,,AMNE08.jpg,AMSA10.jpg,AMSA13.jpg,AMNE03.jpg,AMSA10.jpg,MS,2,num_6,32,num_2,1.03347846796,,,2017_Aug_28_1146,60.0039838513,MAFE4ImagesEEG,001,101474,
AFNE01.JPG,AFNE01.JPG,AFNE01.JPG,AFNE01.JPG,AFNE01.JPG,AFNE01.JPG,,,,,,,,,4,9,49,3,,,,,,,,,,,,,,,AMNE20.jpg,AMSA12.jpg,AMSA04.jpg,AMNE06.jpg,AMSA04.jpg,MS,2,num_2,32,num_8,1.31675045984,,,2017_Aug_28_1146,60.0039838513,MAFE4ImagesEEG,001,101474,
AFNE01.JPG,AFNE01.JPG,AFNE01.JPG,AFNE01.JPG,AFNE01.JPG,AFNE01.JPG,,,,,,,,,5,0,50,8,,,,,,,,,,,,,,,AMSA15.jpg,AMSA11.jpg,AMNE03.jpg,AMNE08.jpg,AMSA11.jpg,MS,2,num_6,32,num_4,0.833473015373,,,2017_Aug_28_1146,60.0039838513,MAFE4ImagesEEG,001,101474,
AFNE01.JPG,AFNE01.JPG,AFNE01.JPG,AFNE01.JPG,AFNE01.JPG,AFNE01.JPG,,,,,,,,,5,1,51,1,,,,,,,,,,,,,,,AMSA08.jpg,AMNE19.jpg,AMSA20.jpg,AMNE16.jpg,AMNE19.jpg,MN,1,num_6,16,num_6,1.06674941746,,,2017_Aug_28_1146,60.0039838513,MAFE4ImagesEEG,001,101474,
AFNE01.JPG,AFNE01.JPG,AFNE01.JPG,AFNE01.JPG,AFNE01.JPG,AFNE01.JPG,,,,,,,,,5,2,52,2,,,,,,,,,,,,,,,AMSA15.jpg,AMSA05.jpg,AMNE17.jpg,AMNE08.jpg,AMSA15.jpg,MS,2,num_8,32,num_4,1.16681308424,,,2017_Aug_28_1146,60.0039838513,MAFE4ImagesEEG,001,101474,
AFNE01.JPG,AFNE01.JPG,AFNE01.JPG,AFNE01.JPG,AFNE01.JPG,AFNE01.JPG,,,,,,,,,5,3,53,6,,,,,,,,,,,,,,,AMNE18.jpg,AMSA16.jpg,AMSA06.jpg,AMNE19.jpg,AMNE19.jpg,MN,1,num_4,32,num_8,1.20012508839,,,2017_Aug_28_1146,60.0039838513,MAFE4ImagesEEG,001,101474,
AFNE01.JPG,AFNE01.JPG,AFNE01.JPG,AFNE01.JPG,AFNE01.JPG,AFNE01.JPG,,,,,,,,,5,4,54,5,,,,,,,,,,,,,,,AMNE19.jpg,AMNE10.jpg,AMSA03.jpg,AMSA01.jpg,AMNE19.jpg,MN,1,num_8,16,num_8,0.950064709206,,,2017_Aug_28_1146,60.0039838513,MAFE4ImagesEEG,001,101474,
AFNE01.JPG,AFNE01.JPG,AFNE01.JPG,AFNE01.JPG,AFNE01.JPG,AFNE01.JPG,,,,,,,,,5,5,55,3,,,,,,,,,,,,,,,AMSA10.jpg,AMNE20.jpg,AMNE18.jpg,AMSA14.jpg,AMNE20.jpg,MN,1,num_6,16,num_6,0.950114103092,,,2017_Aug_28_1146,60.0039838513,MAFE4ImagesEEG,001,101474,
AFNE01.JPG,AFNE01.JPG,AFNE01.JPG,AFNE01.JPG,AFNE01.JPG,AFNE01.JPG,,,,,,,,,5,6,56,9,,,,,,,,,,,,,,,AMSA15.jpg,AMSA03.jpg,AMNE13.jpg,AMNE19.jpg,AMSA03.jpg,MS,2,num_6,16,num_6,1.08343396537,,,2017_Aug_28_1146,60.0039838513,MAFE4ImagesEEG,001,101474,
AFNE01.JPG,AFNE01.JPG,AFNE01.JPG,AFNE01.JPG,AFNE01.JPG,AFNE01.JPG,,,,,,,,,5,7,57,4,,,,,,,,,,,,,,,AMSA16.jpg,AMNE03.jpg,AMSA07.jpg,AMNE13.jpg,AMNE13.jpg,MN,1,num_4,16,num_4,1.05005653034,,,2017_Aug_28_1146,60.0039838513,MAFE4ImagesEEG,001,101474,
AFNE01.JPG,AFNE01.JPG,AFNE01.JPG,AFNE01.JPG,AFNE01.JPG,AFNE01.JPG,,,,,,,,,5,8,58,7,,,,,,,,,,,,,,,AMNE17.jpg,AMSA16.jpg,AMSA03.jpg,AMNE05.jpg,AMSA16.jpg,MS,2,num_6,16,num_6,1.06674300265,,,2017_Aug_28_1146,60.0039838513,MAFE4ImagesEEG,001,101474,
AFNE01.JPG,AFNE01.JPG,AFNE01.JPG,AFNE01.JPG,AFNE01.JPG,AFNE01.JPG,,,,,,,,,5,9,59,0,,,,,,,,,,,,,,,AMNE20.jpg,AMNE07.jpg,AMSA11.jpg,AMSA18.jpg,AMSA18.jpg,MS,2,num_4,16,num_4,1.03349033531,,,2017_Aug_28_1146,60.0039838513,MAFE4ImagesEEG,001,101474,
,,,,,,,,,,,,,,,,,,,,,,,,,,,,,,,,,,,,,,,,,,,space,37.9141527907,2017_Aug_28_1146,60.0039838513,MAFE4ImagesEEG,001,101474,
AFNE01.JPG,AFNE01.JPG,AFNE01.JPG,AFNE01.JPG,AFNE01.JPG,AFNE01.JPG,,,,,,,,,,,,,0,0,0,6,,,,,,,,,,,AFNE16.jpg,AFSA18.jpg,AFSA10.jpg,AFNE01.jpg,AFSA10.jpg,FS,4,num_2,32,num_8,0.883476302959,,,2017_Aug_28_1146,60.0039838513,MAFE4ImagesEEG,001,101474,
AFNE01.JPG,AFNE01.JPG,AFNE01.JPG,AFNE01.JPG,AFNE01.JPG,AFNE01.JPG,,,,,,,,,,,,,0,1,1,3,,,,,,,,,,,AFSA18.jpg,AFSA17.jpg,AFNE09.jpg,AFNE19.jpg,AFSA17.jpg,FS,4,num_6,32,num_8,0.833477826469,,,2017_Aug_28_1146,60.0039838513,MAFE4ImagesEEG,001,101474,
AFNE01.JPG,AFNE01.JPG,AFNE01.JPG,AFNE01.JPG,AFNE01.JPG,AFNE01.JPG,,,,,,,,,,,,,0,2,2,0,,,,,,,,,,,AFSA17.jpg,AFNE06.jpg,AFSA13.jpg,AFNE08.jpg,AFNE06.jpg,FN,3,num_6,32,num_4,0.800151389034,,,2017_Aug_28_1146,60.0039838513,MAFE4ImagesEEG,001,101474,
AFNE01.JPG,AFNE01.JPG,AFNE01.JPG,AFNE01.JPG,AFNE01.JPG,AFNE01.JPG,,,,,,,,,,,,,0,3,3,9,,,,,,,,,,,AFNE08.jpg,AFSA14.jpg,AFNE03.jpg,AFSA05.jpg,AFNE08.jpg,FN,3,num_8,16,num_8,0.883442625316,,,2017_Aug_28_1146,60.0039838513,MAFE4ImagesEEG,001,101474,
AFNE01.JPG,AFNE01.JPG,AFNE01.JPG,AFNE01.JPG,AFNE01.JPG,AFNE01.JPG,,,,,,,,,,,,,0,4,4,1,,,,,,,,,,,AFSA14.jpg,AFNE12.jpg,AFNE09.jpg,AFSA16.jpg,AFSA16.jpg,FS,4,num_4,16,num_4,0.900147379783,,,2017_Aug_28_1146,60.0039838513,MAFE4ImagesEEG,001,101474,
AFNE01.JPG,AFNE01.JPG,AFNE01.JPG,AFNE01.JPG,AFNE01.JPG,AFNE01.JPG,,,,,,,,,,,,,0,5,5,4,,,,,,,,,,,AFNE17.jpg,AFSA15.jpg,AFSA01.jpg,AFNE06.jpg,AFNE06.jpg,FN,3,num_4,32,num_8,0.850149865524,,,2017_Aug_28_1146,60.0039838513,MAFE4ImagesEEG,001,101474,
AFNE01.JPG,AFNE01.JPG,AFNE01.JPG,AFNE01.JPG,AFNE01.JPG,AFNE01.JPG,,,,,,,,,,,,,0,6,6,7,,,,,,,,,,,AFNE20.jpg,AFSA01.jpg,AFNE15.jpg,AFSA02.jpg,AFNE20.jpg,FN,3,num_8,16,num_8,0.933142814058,,,2017_Aug_28_1146,60.0039838513,MAFE4ImagesEEG,001,101474,
AFNE01.JPG,AFNE01.JPG,AFNE01.JPG,AFNE01.JPG,AFNE01.JPG,AFNE01.JPG,,,,,,,,,,,,,0,7,7,2,,,,,,,,,,,AFNE02.jpg,AFSA03.jpg,AFSA09.jpg,AFNE14.jpg,AFSA03.jpg,FS,4,num_6,16,num_6,3.89981028257,,,2017_Aug_28_1146,60.0039838513,MAFE4ImagesEEG,001,101474,
AFNE01.JPG,AFNE01.JPG,AFNE01.JPG,AFNE01.JPG,AFNE01.JPG,AFNE01.JPG,,,,,,,,,,,,,0,8,8,8,,,,,,,,,,,AFNE11.jpg,AFSA11.jpg,AFNE09.jpg,AFSA09.jpg,AFSA09.jpg,FS,4,num_4,32,num_8,1.00008243005,,,2017_Aug_28_1146,60.0039838513,MAFE4ImagesEEG,001,101474,
AFNE01.JPG,AFNE01.JPG,AFNE01.JPG,AFNE01.JPG,AFNE01.JPG,AFNE01.JPG,,,,,,,,,,,,,0,9,9,5,,,,,,,,,,,AFSA18.jpg,AFNE04.jpg,AFNE15.jpg,AFSA14.jpg,AFSA18.jpg,FS,4,num_8,16,num_8,0.783511103218,,,2017_Aug_28_1146,60.0039838513,MAFE4ImagesEEG,001,101474,
AFNE01.JPG,AFNE01.JPG,AFNE01.JPG,AFNE01.JPG,AFNE01.JPG,AFNE01.JPG,,,,,,,,,,,,,1,0,10,3,,,,,,,,,,,AFSA10.jpg,AFSA02.jpg,AFNE04.jpg,AFNE03.jpg,AFSA10.jpg,FS,4,num_8,16,num_8,1.38344021977,,,2017_Aug_28_1146,60.0039838513,MAFE4ImagesEEG,001,101474,
AFNE01.JPG,AFNE01.JPG,AFNE01.JPG,AFNE01.JPG,AFNE01.JPG,AFNE01.JPG,,,,,,,,,,,,,1,1,11,4,,,,,,,,,,,AFSA05.jpg,AFNE19.jpg,AFSA11.jpg,AFNE15.jpg,AFSA11.jpg,FS,4,num_2,16,num_2,1.20006895901,,,2017_Aug_28_1146,60.0039838513,MAFE4ImagesEEG,001,101474,
AFNE01.JPG,AFNE01.JPG,AFNE01.JPG,AFNE01.JPG,AFNE01.JPG,AFNE01.JPG,,,,,,,,,,,,,1,2,12,8,,,,,,,,,,,AFNE09.jpg,AFNE10.jpg,AFSA12.jpg,AFSA15.jpg,AFNE09.jpg,FN,3,num_8,32,num_4,0.900105683686,,,2017_Aug_28_1146,60.0039838513,MAFE4ImagesEEG,001,101474,
AFNE01.JPG,AFNE01.JPG,AFNE01.JPG,AFNE01.JPG,AFNE01.JPG,AFNE01.JPG,,,,,,,,,,,,,1,3,13,7,,,,,,,,,,,AFNE17.jpg,AFSA04.jpg,AFSA07.jpg,AFNE20.jpg,AFNE17.jpg,FN,3,num_8,16,num_8,1.28341247581,,,2017_Aug_28_1146,60.0039838513,MAFE4ImagesEEG,001,101474,
AFNE01.JPG,AFNE01.JPG,AFNE01.JPG,AFNE01.JPG,AFNE01.JPG,AFNE01.JPG,,,,,,,,,,,,,1,4,14,6,,,,,,,,,,,AFSA12.jpg,AFSA02.jpg,AFNE16.jpg,AFNE19.jpg,AFSA12.jpg,FS,4,num_8,32,num_4,1.70017817078,,,2017_Aug_28_1146,60.0039838513,MAFE4ImagesEEG,001,101474,
AFNE01.JPG,AFNE01.JPG,AFNE01.JPG,AFNE01.JPG,AFNE01.JPG,AFNE01.JPG,,,,,,,,,,,,,1,5,15,5,,,,,,,,,,,AFSA17.jpg,AFNE16.jpg,AFSA03.jpg,AFNE13.jpg,AFNE13.jpg,FN,3,num_4,32,num_8,1.60003560208,,,2017_Aug_28_1146,60.0039838513,MAFE4ImagesEEG,001,101474,
AFNE01.JPG,AFNE01.JPG,AFNE01.JPG,AFNE01.JPG,AFNE01.JPG,AFNE01.JPG,,,,,,,,,,,,,1,6,16,9,,,,,,,,,,,AFNE20.jpg,AFNE18.jpg,AFSA11.jpg,AFSA05.jpg,AFNE18.jpg,FN,3,num_6,32,num_8,0.866759039636,,,2017_Aug_28_1146,60.0039838513,MAFE4ImagesEEG,001,101474,
AFNE01.JPG,AFNE01.JPG,AFNE01.JPG,AFNE01.JPG,AFNE01.JPG,AFNE01.JPG,,,,,,,,,,,,,1,7,17,2,,,,,,,,,,,AFSA15.jpg,AFSA16.jpg,AFNE08.jpg,AFNE03.jpg,AFSA15.jpg,FS,4,num_8,16,num_8,0.950135592633,,,2017_Aug_28_1146,60.0039838513,MAFE4ImagesEEG,001,101474,
AFNE01.JPG,AFNE01.JPG,AFNE01.JPG,AFNE01.JPG,AFNE01.JPG,AFNE01.JPG,,,,,,,,,,,,,1,8,18,1,,,,,,,,,,,AFNE17.jpg,AFSA16.jpg,AFNE11.jpg,AFSA09.jpg,AFSA09.jpg,FS,4,num_4,32,num_8,0.950084915792,,,2017_Aug_28_1146,60.0039838513,MAFE4ImagesEEG,001,101474,
AFNE01.JPG,AFNE01.JPG,AFNE01.JPG,AFNE01.JPG,AFNE01.JPG,AFNE01.JPG,,,,,,,,,,,,,1,9,19,0,,,,,,,,,,,AFSA08.jpg,AFNE06.jpg,AFNE11.jpg,AFSA01.jpg,AFSA08.jpg,FS,4,num_8,32,num_4,0.666837300058,,,2017_Aug_28_1146,60.0039838513,MAFE4ImagesEEG,001,101474,
AFNE01.JPG,AFNE01.JPG,AFNE01.JPG,AFNE01.JPG,AFNE01.JPG,AFNE01.JPG,,,,,,,,,,,,,2,0,20,2,,,,,,,,,,,AFNE13.jpg,AFSA14.jpg,AFSA01.jpg,AFNE07.jpg,AFSA14.jpg,FS,4,num_6,16,num_6,0.766747332644,,,2017_Aug_28_1146,60.0039838513,MAFE4ImagesEEG,001,101474,
AFNE01.JPG,AFNE01.JPG,AFNE01.JPG,AFNE01.JPG,AFNE01.JPG,AFNE01.JPG,,,,,,,,,,,,,2,1,21,6,,,,,,,,,,,AFNE11.jpg,AFSA16.jpg,AFSA19.jpg,AFNE18.jpg,AFSA16.jpg,FS,4,num_6,32,num_2,1.00012380545,,,2017_Aug_28_1146,60.0039838513,MAFE4ImagesEEG,001,101474,
AFNE01.JPG,AFNE01.JPG,AFNE01.JPG,AFNE01.JPG,AFNE01.JPG,AFNE01.JPG,,,,,,,,,,,,,2,2,22,9,,,,,,,,,,,AFNE20.jpg,AFSA02.jpg,AFNE18.jpg,AFSA19.jpg,AFNE20.jpg,FN,3,num_8,32,num_4,0.63344382809,,,2017_Aug_28_1146,60.0039838513,MAFE4ImagesEEG,001,101474,
AFNE01.JPG,AFNE01.JPG,AFNE01.JPG,AFNE01.JPG,AFNE01.JPG,AFNE01.JPG,,,,,,,,,,,,,2,3,23,4,,,,,,,,,,,AFNE13.jpg,AFNE10.jpg,AFSA05.jpg,AFSA01.jpg,AFSA01.jpg,FS,4,num_4,32,num_8,0.900082269683,,,2017_Aug_28_1146,60.0039838513,MAFE4ImagesEEG,001,101474,
AFNE01.JPG,AFNE01.JPG,AFNE01.JPG,AFNE01.JPG,AFNE01.JPG,AFNE01.JPG,,,,,,,,,,,,,2,4,24,3,,,,,,,,,,,AFSA18.jpg,AFSA15.jpg,AFNE08.jpg,AFNE17.jpg,AFSA18.jpg,FS,4,num_8,32,num_4,1.00002116882,,,2017_Aug_28_1146,60.0039838513,MAFE4ImagesEEG,001,101474,
AFNE01.JPG,AFNE01.JPG,AFNE01.JPG,AFNE01.JPG,AFNE01.JPG,AFNE01.JPG,,,,,,,,,,,,,2,5,25,1,,,,,,,,,,,AFNE07.jpg,AFSA03.jpg,AFNE01.jpg,AFSA17.jpg,AFNE07.jpg,FN,3,num_8,16,num_8,1.20004458277,,,2017_Aug_28_1146,60.0039838513,MAFE4ImagesEEG,001,101474,
AFNE01.JPG,AFNE01.JPG,AFNE01.JPG,AFNE01.JPG,AFNE01.JPG,AFNE01.JPG,,,,,,,,,,,,,2,6,26,7,,,,,,,,,,,AFSA13.jpg,AFNE12.jpg,AFSA17.jpg,AFNE16.jpg,AFNE12.jpg,FN,3,num_6,16,num_6,0.816817013314,,,2017_Aug_28_1146,60.0039838513,MAFE4ImagesEEG,001,101474,
AFNE01.JPG,AFNE01.JPG,AFNE01.JPG,AFNE01.JPG,AFNE01.JPG,AFNE01.JPG,,,,,,,,,,,,,2,7,27,5,,,,,,,,,,,AFNE13.jpg,AFSA17.jpg,AFSA09.jpg,AFNE14.jpg,AFNE13.jpg,FN,3,num_8,16,num_8,0.75009774536,,,2017_Aug_28_1146,60.0039838513,MAFE4ImagesEEG,001,101474,
AFNE01.JPG,AFNE01.JPG,AFNE01.JPG,AFNE01.JPG,AFNE01.JPG,AFNE01.JPG,,,,,,,,,,,,,2,8,28,0,,,,,,,,,,,AFNE20.jpg,AFNE11.jpg,AFSA01.jpg,AFSA20.jpg,AFSA01.jpg,FS,4,num_2,16,num_2,0.933469647629,,,2017_Aug_28_1146,60.0039838513,MAFE4ImagesEEG,001,101474,
AFNE01.JPG,AFNE01.JPG,AFNE01.JPG,AFNE01.JPG,AFNE01.JPG,AFNE01.JPG,,,,,,,,,,,,,2,9,29,8,,,,,,,,,,,AFSA13.jpg,AFNE13.jpg,AFNE01.jpg,AFSA06.jpg,AFSA06.jpg,FS,4,num_4,16,num_4,0.950095179462,,,2017_Aug_28_1146,60.0039838513,MAFE4ImagesEEG,001,101474,
AFNE01.JPG,AFNE01.JPG,AFNE01.JPG,AFNE01.JPG,AFNE01.JPG,AFNE01.JPG,,,,,,,,,,,,,3,0,30,3,,,,,,,,,,,AFSA03.jpg,AFNE15.jpg,AFSA13.jpg,AFNE04.jpg,AFNE04.jpg,FN,3,num_4,32,num_8,0.883452247508,,,2017_Aug_28_1146,60.0039838513,MAFE4ImagesEEG,001,101474,
AFNE01.JPG,AFNE01.JPG,AFNE01.JPG,AFNE01.JPG,AFNE01.JPG,AFNE01.JPG,,,,,,,,,,,,,3,1,31,0,,,,,,,,,,,AFSA11.jpg,AFSA18.jpg,AFNE06.jpg,AFNE01.jpg,AFSA18.jpg,FS,4,num_6,32,num_2,1.59996792604,,,2017_Aug_28_1146,60.0039838513,MAFE4ImagesEEG,001,101474,
AFNE01.JPG,AFNE01.JPG,AFNE01.JPG,AFNE01.JPG,AFNE01.JPG,AFNE01.JPG,,,,,,,,,,,,,3,2,32,7,,,,,,,,,,,AFNE18.jpg,AFNE09.jpg,AFSA15.jpg,AFSA19.jpg,AFSA15.jpg,FS,4,num_2,32,num_8,1.08341023064,,,2017_Aug_28_1146,60.0039838513,MAFE4ImagesEEG,001,101474,
AFNE01.JPG,AFNE01.JPG,AFNE01.JPG,AFNE01.JPG,AFNE01.JPG,AFNE01.JPG,,,,,,,,,,,,,3,3,33,1,,,,,,,,,,,AFNE04.jpg,AFSA03.jpg,AFSA04.jpg,AFNE09.jpg,AFNE04.jpg,FN,3,num_8,16,num_8,0.983445993072,,,2017_Aug_28_1146,60.0039838513,MAFE4ImagesEEG,001,101474,
AFNE01.JPG,AFNE01.JPG,AFNE01.JPG,AFNE01.JPG,AFNE01.JPG,AFNE01.JPG,,,,,,,,,,,,,3,4,34,8,,,,,,,,,,,AFSA07.jpg,AFSA19.jpg,AFNE02.jpg,AFNE14.jpg,AFSA19.jpg,FS,4,num_6,32,num_4,1.2167974482,,,2017_Aug_28_1146,60.0039838513,MAFE4ImagesEEG,001,101474,
AFNE01.JPG,AFNE01.JPG,AFNE01.JPG,AFNE01.JPG,AFNE01.JPG,AFNE01.JPG,,,,,,,,,,,,,3,5,35,4,,,,,,,,,,,AFNE07.jpg,AFNE01.jpg,AFSA12.jpg,AFSA17.jpg,AFSA17.jpg,FS,4,num_4,32,num_6,1.63342298003,,,2017_Aug_28_1146,60.0039838513,MAFE4ImagesEEG,001,101474,
AFNE01.JPG,AFNE01.JPG,AFNE01.JPG,AFNE01.JPG,AFNE01.JPG,AFNE01.JPG,,,,,,,,,,,,,3,6,36,5,,,,,,,,,,,AFSA02.jpg,AFNE03.jpg,AFSA20.jpg,AFNE04.jpg,AFNE03.jpg,FN,3,num_6,32,num_8,0.816803221504,,,2017_Aug_28_1146,60.0039838513,MAFE4ImagesEEG,001,101474,
AFNE01.JPG,AFNE01.JPG,AFNE01.JPG,AFNE01.JPG,AFNE01.JPG,AFNE01.JPG,,,,,,,,,,,,,3,7,37,9,,,,,,,,,,,AFSA06.jpg,AFNE11.jpg,AFSA09.jpg,AFNE14.jpg,AFSA06.jpg,FS,4,num_8,16,num_8,0.833479430177,,,2017_Aug_28_1146,60.0039838513,MAFE4ImagesEEG,001,101474,
AFNE01.JPG,AFNE01.JPG,AFNE01.JPG,AFNE01.JPG,AFNE01.JPG,AFNE01.JPG,,,,,,,,,,,,,3,8,38,2,,,,,,,,,,,AFNE04.jpg,AFSA12.jpg,AFSA03.jpg,AFNE10.jpg,AFNE04.jpg,FN,3,num_8,32,num_6,0.950178892439,,,2017_Aug_28_1146,60.0039838513,MAFE4ImagesEEG,001,101474,
AFNE01.JPG,AFNE01.JPG,AFNE01.JPG,AFNE01.JPG,AFNE01.JPG,AFNE01.JPG,,,,,,,,,,,,,3,9,39,6,,,,,,,,,,,AFNE16.jpg,AFSA01.jpg,AFNE10.jpg,AFSA12.jpg,AFSA12.jpg,FS,4,num_4,32,num_8,1.05010079237,,,2017_Aug_28_1146,60.0039838513,MAFE4ImagesEEG,001,101474,
AFNE01.JPG,AFNE01.JPG,AFNE01.JPG,AFNE01.JPG,AFNE01.JPG,AFNE01.JPG,,,,,,,,,,,,,4,0,40,7,,,,,,,,,,,AFSA16.jpg,AFNE12.jpg,AFSA10.jpg,AFNE02.jpg,AFSA16.jpg,FS,4,num_8,32,num_6,0.766748294845,,,2017_Aug_28_1146,60.0039838513,MAFE4ImagesEEG,001,101474,
AFNE01.JPG,AFNE01.JPG,AFNE01.JPG,AFNE01.JPG,AFNE01.JPG,AFNE01.JPG,,,,,,,,,,,,,4,1,41,8,,,,,,,,,,,AFNE04.jpg,AFSA16.jpg,AFNE18.jpg,AFSA03.jpg,AFNE04.jpg,FN,3,num_8,16,num_8,0.700151870173,,,2017_Aug_28_1146,60.0039838513,MAFE4ImagesEEG,001,101474,
AFNE01.JPG,AFNE01.JPG,AFNE01.JPG,AFNE01.JPG,AFNE01.JPG,AFNE01.JPG,,,,,,,,,,,,,4,2,42,9,,,,,,,,,,,AFNE09.jpg,AFSA02.jpg,AFNE17.jpg,AFSA08.jpg,AFSA02.jpg,FS,4,num_6,32,num_4,1.15013334746,,,2017_Aug_28_1146,60.0039838513,MAFE4ImagesEEG,001,101474,
AFNE01.JPG,AFNE01.JPG,AFNE01.JPG,AFNE01.JPG,AFNE01.JPG,AFNE01.JPG,,,,,,,,,,,,,4,3,43,5,,,,,,,,,,,AFSA02.jpg,AFNE10.jpg,AFNE11.jpg,AFSA15.jpg,AFNE10.jpg,FN,3,num_6,32,num_8,0.600129578757,,,2017_Aug_28_1146,60.0039838513,MAFE4ImagesEEG,001,101474,
AFNE01.JPG,AFNE01.JPG,AFNE01.JPG,AFNE01.JPG,AFNE01.JPG,AFNE01.JPG,,,,,,,,,,,,,4,4,44,6,,,,,,,,,,,AFSA04.jpg,AFNE17.jpg,AFSA11.jpg,AFNE14.jpg,AFSA11.jpg,FS,4,num_2,16,num_2,0.633465959138,,,2017_Aug_28_1146,60.0039838513,MAFE4ImagesEEG,001,101474,
AFNE01.JPG,AFNE01.JPG,AFNE01.JPG,AFNE01.JPG,AFNE01.JPG,AFNE01.JPG,,,,,,,,,,,,,4,5,45,3,,,,,,,,,,,AFNE11.jpg,AFNE17.jpg,AFSA02.jpg,AFSA05.jpg,AFNE17.jpg,FN,3,num_6,32,num_8,1.25006679402,,,2017_Aug_28_1146,60.0039838513,MAFE4ImagesEEG,001,101474,
AFNE01.JPG,AFNE01.JPG,AFNE01.JPG,AFNE01.JPG,AFNE01.JPG,AFNE01.JPG,,,,,,,,,,,,,4,6,46,2,,,,,,,,,,,AFNE19.jpg,AFNE01.jpg,AFSA11.jpg,AFSA08.jpg,AFNE19.jpg,FN,3,num_8,16,num_8,1.48342466389,,,2017_Aug_28_1146,60.0039838513,MAFE4ImagesEEG,001,101474,
AFNE01.JPG,AFNE01.JPG,AFNE01.JPG,AFNE01.JPG,AFNE01.JPG,AFNE01.JPG,,,,,,,,,,,,,4,7,47,0,,,,,,,,,,,AFSA13.jpg,AFNE02.jpg,AFSA10.jpg,AFNE14.jpg,AFNE14.jpg,FN,3,num_4,16,num_4,1.36673097493,,,2017_Aug_28_1146,60.0039838513,MAFE4ImagesEEG,001,101474,
AFNE01.JPG,AFNE01.JPG,AFNE01.JPG,AFNE01.JPG,AFNE01.JPG,AFNE01.JPG,,,,,,,,,,,,,4,8,48,4,,,,,,,,,,,AFNE06.jpg,AFSA15.jpg,AFNE18.jpg,AFSA10.jpg,AFNE06.jpg,FN,3,num_8,32,num_6,1.53339010425,,,2017_Aug_28_1146,60.0039838513,MAFE4ImagesEEG,001,101474,
AFNE01.JPG,AFNE01.JPG,AFNE01.JPG,AFNE01.JPG,AFNE01.JPG,AFNE01.JPG,,,,,,,,,,,,,4,9,49,1,,,,,,,,,,,AFSA06.jpg,AFNE20.jpg,AFSA07.jpg,AFNE16.jpg,AFSA06.jpg,FS,4,num_8,16,num_8,1.36670050467,,,2017_Aug_28_1146,60.0039838513,MAFE4ImagesEEG,001,101474,
AFNE01.JPG,AFNE01.JPG,AFNE01.JPG,AFNE01.JPG,AFNE01.JPG,AFNE01.JPG,,,,,,,,,,,,,5,0,50,9,,,,,,,,,,,AFNE17.jpg,AFSA20.jpg,AFSA04.jpg,AFNE02.jpg,AFSA04.jpg,FS,4,num_2,32,num_4,1.45010303758,,,2017_Aug_28_1146,60.0039838513,MAFE4ImagesEEG,001,101474,
AFNE01.JPG,AFNE01.JPG,AFNE01.JPG,AFNE01.JPG,AFNE01.JPG,AFNE01.JPG,,,,,,,,,,,,,5,1,51,8,,,,,,,,,,,AFSA17.jpg,AFNE15.jpg,AFSA07.jpg,AFNE19.jpg,AFNE15.jpg,FN,3,num_6,16,num_6,1.31674436582,,,2017_Aug_28_1146,60.0039838513,MAFE4ImagesEEG,001,101474,
AFNE01.JPG,AFNE01.JPG,AFNE01.JPG,AFNE01.JPG,AFNE01.JPG,AFNE01.JPG,,,,,,,,,,,,,5,2,52,4,,,,,,,,,,,AFSA10.jpg,AFNE19.jpg,AFSA20.jpg,AFNE01.jpg,AFSA20.jpg,FS,4,num_2,16,num_2,1.35012853635,,,2017_Aug_28_1146,60.0039838513,MAFE4ImagesEEG,001,101474,
AFNE01.JPG,AFNE01.JPG,AFNE01.JPG,AFNE01.JPG,AFNE01.JPG,AFNE01.JPG,,,,,,,,,,,,,5,3,53,2,,,,,,,,,,,AFNE15.jpg,AFSA11.jpg,AFNE06.jpg,AFSA07.jpg,AFSA07.jpg,FS,4,num_4,16,num_4,1.25012260268,,,2017_Aug_28_1146,60.0039838513,MAFE4ImagesEEG,001,101474,
AFNE01.JPG,AFNE01.JPG,AFNE01.JPG,AFNE01.JPG,AFNE01.JPG,AFNE01.JPG,,,,,,,,,,,,,5,4,54,6,,,,,,,,,,,AFNE12.jpg,AFSA05.jpg,AFNE10.jpg,AFSA14.jpg,AFNE10.jpg,FN,3,num_2,16,num_2,1.26670451392,,,2017_Aug_28_1146,60.0039838513,MAFE4ImagesEEG,001,101474,
AFNE01.JPG,AFNE01.JPG,AFNE01.JPG,AFNE01.JPG,AFNE01.JPG,AFNE01.JPG,,,,,,,,,,,,,5,5,55,0,,,,,,,,,,,AFNE16.jpg,AFSA07.jpg,AFNE05.jpg,AFSA11.jpg,AFSA11.jpg,FS,4,num_4,16,num_4,1.09985358242,,,2017_Aug_28_1146,60.0039838513,MAFE4ImagesEEG,001,101474,
AFNE01.JPG,AFNE01.JPG,AFNE01.JPG,AFNE01.JPG,AFNE01.JPG,AFNE01.JPG,,,,,,,,,,,,,5,6,56,7,,,,,,,,,,,AFNE14.jpg,AFSA08.jpg,AFNE18.jpg,AFSA20.jpg,AFNE14.jpg,FN,3,num_8,16,num_8,1.15009485872,,,2017_Aug_28_1146,60.0039838513,MAFE4ImagesEEG,001,101474,
AFNE01.JPG,AFNE01.JPG,AFNE01.JPG,AFNE01.JPG,AFNE01.JPG,AFNE01.JPG,,,,,,,,,,,,,5,7,57,3,,,,,,,,,,,AFSA20.jpg,AFNE19.jpg,AFNE14.jpg,AFSA07.jpg,AFSA07.jpg,FS,4,num_4,32,num_6,1.16676144517,,,2017_Aug_28_1146,60.0039838513,MAFE4ImagesEEG,001,101474,
AFNE01.JPG,AFNE01.JPG,AFNE01.JPG,AFNE01.JPG,AFNE01.JPG,AFNE01.JPG,,,,,,,,,,,,,5,8,58,5,,,,,,,,,,,AFSA13.jpg,AFNE15.jpg,AFNE03.jpg,AFSA16.jpg,AFSA13.jpg,FS,4,num_8,16,num_8,1.46670740057,,,2017_Aug_28_1146,60.0039838513,MAFE4ImagesEEG,001,101474,
AFNE01.JPG,AFNE01.JPG,AFNE01.JPG,AFNE01.JPG,AFNE01.JPG,AFNE01.JPG,,,,,,,,,,,,,5,9,59,1,,,,,,,,,,,AFNE13.jpg,AFSA12.jpg,AFNE18.jpg,AFSA15.jpg,AFNE18.jpg,FN,3,num_2,16,num_2,1.16661390502,,,2017_Aug_28_1146,60.0039838513,MAFE4ImagesEEG,001,101474,
,,,,,,,,,,,,,,,,,,,,,,,,,,,,,,,,,,,,,,,,,,,space,24.9648382912,2017_Aug_28_1146,60.0039838513,MAFE4ImagesEEG,001,101474,
AFNE01.JPG,AFNE01.JPG,AFNE01.JPG,AFNE01.JPG,AFNE01.JPG,AFNE01.JPG,,,,,,,,,,,,,,,,,0,0,0,9,,,,,,,AMSA15.jpg,AMNE09.jpg,AMNE01.jpg,AMSA03.jpg,AMNE01.jpg,MN,1,num_2,16,num_2,1.26677251069,,,2017_Aug_28_1146,60.0039838513,MAFE4ImagesEEG,001,101474,
AFNE01.JPG,AFNE01.JPG,AFNE01.JPG,AFNE01.JPG,AFNE01.JPG,AFNE01.JPG,,,,,,,,,,,,,,,,,0,1,1,4,,,,,,,AMSA12.jpg,AMNE20.jpg,AMNE06.jpg,AMSA07.jpg,AMNE20.jpg,MN,1,num_6,16,num_6,1.23346082729,,,2017_Aug_28_1146,60.0039838513,MAFE4ImagesEEG,001,101474,
AFNE01.JPG,AFNE01.JPG,AFNE01.JPG,AFNE01.JPG,AFNE01.JPG,AFNE01.JPG,,,,,,,,,,,,,,,,,0,2,2,0,,,,,,,AMSA18.jpg,AMSA10.jpg,AMNE01.jpg,AMNE10.jpg,AMSA18.jpg,MS,2,num_8,16,num_8,1.16679672652,,,2017_Aug_28_1146,60.0039838513,MAFE4ImagesEEG,001,101474,
AFNE01.JPG,AFNE01.JPG,AFNE01.JPG,AFNE01.JPG,AFNE01.JPG,AFNE01.JPG,,,,,,,,,,,,,,,,,0,3,3,8,,,,,,,AMNE06.jpg,AMNE13.jpg,AMSA17.jpg,AMSA16.jpg,AMSA17.jpg,MS,2,num_2,16,num_2,1.1834248243,,,2017_Aug_28_1146,60.0039838513,MAFE4ImagesEEG,001,101474,
AFNE01.JPG,AFNE01.JPG,AFNE01.JPG,AFNE01.JPG,AFNE01.JPG,AFNE01.JPG,,,,,,,,,,,,,,,,,0,4,4,7,,,,,,,AMSA19.jpg,AMSA09.jpg,AMNE08.jpg,AMNE14.jpg,AMSA19.jpg,MS,2,num_8,16,num_8,1.16679383986,,,2017_Aug_28_1146,60.0039838513,MAFE4ImagesEEG,001,101474,
AFNE01.JPG,AFNE01.JPG,AFNE01.JPG,AFNE01.JPG,AFNE01.JPG,AFNE01.JPG,,,,,,,,,,,,,,,,,0,5,5,6,,,,,,,AMNE16.jpg,AMSA02.jpg,AMNE03.jpg,AMSA17.jpg,AMSA02.jpg,MS,2,num_6,16,num_6,1.30018683075,,,2017_Aug_28_1146,60.0039838513,MAFE4ImagesEEG,001,101474,
AFNE01.JPG,AFNE01.JPG,AFNE01.JPG,AFNE01.JPG,AFNE01.JPG,AFNE01.JPG,,,,,,,,,,,,,,,,,0,6,6,3,,,,,,,AMNE18.jpg,AMSA09.jpg,AMSA04.jpg,AMNE16.jpg,AMSA04.jpg,MS,2,num_2,16,num_2,1.30010792884,,,2017_Aug_28_1146,60.0039838513,MAFE4ImagesEEG,001,101474,
AFNE01.JPG,AFNE01.JPG,AFNE01.JPG,AFNE01.JPG,AFNE01.JPG,AFNE01.JPG,,,,,,,,,,,,,,,,,0,7,7,1,,,,,,,AMSA17.jpg,AMNE06.jpg,AMSA12.jpg,AMNE18.jpg,AMSA17.jpg,MS,2,num_8,16,num_8,1.21669898115,,,2017_Aug_28_1146,60.0039838513,MAFE4ImagesEEG,001,101474,
AFNE01.JPG,AFNE01.JPG,AFNE01.JPG,AFNE01.JPG,AFNE01.JPG,AFNE01.JPG,,,,,,,,,,,,,,,,,0,8,8,2,,,,,,,AMSA10.jpg,AMSA17.jpg,AMNE03.jpg,AMNE01.jpg,AMNE03.jpg,MN,1,num_2,32,num_4,1.38344663457,,,2017_Aug_28_1146,60.0039838513,MAFE4ImagesEEG,001,101474,
AFNE01.JPG,AFNE01.JPG,AFNE01.JPG,AFNE01.JPG,AFNE01.JPG,AFNE01.JPG,,,,,,,,,,,,,,,,,0,9,9,5,,,,,,,AMSA09.jpg,AMNE20.jpg,AMSA12.jpg,AMNE18.jpg,AMNE18.jpg,MN,1,num_4,16,num_4,1.21674420545,,,2017_Aug_28_1146,60.0039838513,MAFE4ImagesEEG,001,101474,
AFNE01.JPG,AFNE01.JPG,AFNE01.JPG,AFNE01.JPG,AFNE01.JPG,AFNE01.JPG,,,,,,,,,,,,,,,,,1,0,10,0,,,,,,,AMSA11.jpg,AMSA18.jpg,AMNE03.jpg,AMNE04.jpg,AMSA18.jpg,MS,2,num_6,16,num_6,1.45005877552,,,2017_Aug_28_1146,60.0039838513,MAFE4ImagesEEG,001,101474,
AFNE01.JPG,AFNE01.JPG,AFNE01.JPG,AFNE01.JPG,AFNE01.JPG,AFNE01.JPG,,,,,,,,,,,,,,,,,1,1,11,8,,,,,,,AMSA06.jpg,AMNE08.jpg,AMSA03.jpg,AMNE09.jpg,AMNE09.jpg,MN,1,num_4,32,num_6,1.28340862694,,,2017_Aug_28_1146,60.0039838513,MAFE4ImagesEEG,001,101474,
AFNE01.JPG,AFNE01.JPG,AFNE01.JPG,AFNE01.JPG,AFNE01.JPG,AFNE01.JPG,,,,,,,,,,,,,,,,,1,2,12,3,,,,,,,AMNE17.jpg,AMSA17.jpg,AMSA09.jpg,AMNE07.jpg,AMSA17.jpg,MS,2,num_6,16,num_6,1.55004289892,,,2017_Aug_28_1146,60.0039838513,MAFE4ImagesEEG,001,101474,
AFNE01.JPG,AFNE01.JPG,AFNE01.JPG,AFNE01.JPG,AFNE01.JPG,AFNE01.JPG,,,,,,,,,,,,,,,,,1,3,13,4,,,,,,,AMSA13.jpg,AMSA19.jpg,AMNE12.jpg,AMNE02.jpg,AMNE12.jpg,MN,1,num_2,32,num_8,1.33373489921,,,2017_Aug_28_1146,60.0039838513,MAFE4ImagesEEG,001,101474,
AFNE01.JPG,AFNE01.JPG,AFNE01.JPG,AFNE01.JPG,AFNE01.JPG,AFNE01.JPG,,,,,,,,,,,,,,,,,1,4,14,9,,,,,,,AMNE03.jpg,AMSA16.jpg,AMSA14.jpg,AMNE20.jpg,AMNE20.jpg,MN,1,num_4,16,num_4,1.08349201918,,,2017_Aug_28_1146,60.0039838513,MAFE4ImagesEEG,001,101474,
AFNE01.JPG,AFNE01.JPG,AFNE01.JPG,AFNE01.JPG,AFNE01.JPG,AFNE01.JPG,,,,,,,,,,,,,,,,,1,5,15,2,,,,,,,AMSA10.jpg,AMSA09.jpg,AMNE16.jpg,AMNE05.jpg,AMSA09.jpg,MS,2,num_6,32,num_8,1.50007200602,,,2017_Aug_28_1146,60.0039838513,MAFE4ImagesEEG,001,101474,
AFNE01.JPG,AFNE01.JPG,AFNE01.JPG,AFNE01.JPG,AFNE01.JPG,AFNE01.JPG,,,,,,,,,,,,,,,,,1,6,16,5,,,,,,,AMSA02.jpg,AMSA05.jpg,AMNE10.jpg,AMNE09.jpg,AMNE09.jpg,MN,1,num_4,16,num_4,1.13343629072,,,2017_Aug_28_1146,60.0039838513,MAFE4ImagesEEG,001,101474,
AFNE01.JPG,AFNE01.JPG,AFNE01.JPG,AFNE01.JPG,AFNE01.JPG,AFNE01.JPG,,,,,,,,,,,,,,,,,1,7,17,1,,,,,,,AMSA18.jpg,AMSA17.jpg,AMNE02.jpg,AMNE03.jpg,AMSA18.jpg,MS,2,num_8,16,num_8,1.60009461816,,,2017_Aug_28_1146,60.0039838513,MAFE4ImagesEEG,001,101474,
AFNE01.JPG,AFNE01.JPG,AFNE01.JPG,AFNE01.JPG,AFNE01.JPG,AFNE01.JPG,,,,,,,,,,,,,,,,,1,8,18,7,,,,,,,AMSA02.jpg,AMNE18.jpg,AMSA03.jpg,AMNE07.jpg,AMNE18.jpg,MN,1,num_6,32,num_4,1.11676457239,,,2017_Aug_28_1146,60.0039838513,MAFE4ImagesEEG,001,101474,
AFNE01.JPG,AFNE01.JPG,AFNE01.JPG,AFNE01.JPG,AFNE01.JPG,AFNE01.JPG,,,,,,,,,,,,,,,,,1,9,19,6,,,,,,,AMNE09.jpg,AMSA15.jpg,AMSA09.jpg,AMNE15.jpg,AMSA15.jpg,MS,2,num_6,16,num_6,1.35012468748,,,2017_Aug_28_1146,60.0039838513,MAFE4ImagesEEG,001,101474,
AFNE01.JPG,AFNE01.JPG,AFNE01.JPG,AFNE01.JPG,AFNE01.JPG,AFNE01.JPG,,,,,,,,,,,,,,,,,2,0,20,4,,,,,,,AMSA01.jpg,AMNE12.jpg,AMSA11.jpg,AMNE19.jpg,AMSA11.jpg,MS,2,num_2,16,num_2,1.63336941652,,,2017_Aug_28_1146,60.0039838513,MAFE4ImagesEEG,001,101474,
AFNE01.JPG,AFNE01.JPG,AFNE01.JPG,AFNE01.JPG,AFNE01.JPG,AFNE01.JPG,,,,,,,,,,,,,,,,,2,1,21,5,,,,,,,AMNE17.jpg,AMSA08.jpg,AMNE19.jpg,AMSA02.jpg,AMSA02.jpg,MS,2,num_4,16,num_4,1.39983642285,,,2017_Aug_28_1146,60.0039838513,MAFE4ImagesEEG,001,101474,
AFNE01.JPG,AFNE01.JPG,AFNE01.JPG,AFNE01.JPG,AFNE01.JPG,AFNE01.JPG,,,,,,,,,,,,,,,,,2,2,22,2,,,,,,,AMNE12.jpg,AMSA11.jpg,AMSA03.jpg,AMNE02.jpg,AMNE12.jpg,MN,1,num_8,16,num_8,1.3334289137,,,2017_Aug_28_1146,60.0039838513,MAFE4ImagesEEG,001,101474,
AFNE01.JPG,AFNE01.JPG,AFNE01.JPG,AFNE01.JPG,AFNE01.JPG,AFNE01.JPG,,,,,,,,,,,,,,,,,2,3,23,3,,,,,,,AMSA12.jpg,AMNE03.jpg,AMNE04.jpg,AMSA15.jpg,AMSA12.jpg,MS,2,num_8,32,num_4,1.2999469176,,,2017_Aug_28_1146,60.0039838513,MAFE4ImagesEEG,001,101474,
AFNE01.JPG,AFNE01.JPG,AFNE01.JPG,AFNE01.JPG,AFNE01.JPG,AFNE01.JPG,,,,,,,,,,,,,,,,,2,4,24,9,,,,,,,AMNE03.jpg,AMSA12.jpg,AMSA08.jpg,AMNE04.jpg,AMNE03.jpg,MN,1,num_8,32,num_6,1.13344976178,,,2017_Aug_28_1146,60.0039838513,MAFE4ImagesEEG,001,101474,
AFNE01.JPG,AFNE01.JPG,AFNE01.JPG,AFNE01.JPG,AFNE01.JPG,AFNE01.JPG,,,,,,,,,,,,,,,,,2,5,25,8,,,,,,,AMSA07.jpg,AMSA18.jpg,AMNE20.jpg,AMNE02.jpg,AMSA07.jpg,MS,2,num_8,16,num_8,1.16673674824,,,2017_Aug_28_1146,60.0039838513,MAFE4ImagesEEG,001,101474,
AFNE01.JPG,AFNE01.JPG,AFNE01.JPG,AFNE01.JPG,AFNE01.JPG,AFNE01.JPG,,,,,,,,,,,,,,,,,2,6,26,6,,,,,,,AMNE11.jpg,AMSA03.jpg,AMNE18.jpg,AMSA01.jpg,AMSA01.jpg,MS,2,num_4,16,num_4,1.25012869673,,,2017_Aug_28_1146,60.0039838513,MAFE4ImagesEEG,001,101474,
AFNE01.JPG,AFNE01.JPG,AFNE01.JPG,AFNE01.JPG,AFNE01.JPG,AFNE01.JPG,,,,,,,,,,,,,,,,,2,7,27,1,,,,,,,AMNE02.jpg,AMNE18.jpg,AMSA16.jpg,AMSA17.jpg,AMSA17.jpg,MS,2,num_4,32,num_8,1.48340477806,,,2017_Aug_28_1146,60.0039838513,MAFE4ImagesEEG,001,101474,
AFNE01.JPG,AFNE01.JPG,AFNE01.JPG,AFNE01.JPG,AFNE01.JPG,AFNE01.JPG,,,,,,,,,,,,,,,,,2,8,28,7,,,,,,,AMSA04.jpg,AMNE11.jpg,AMSA10.jpg,AMNE15.jpg,AMSA10.jpg,MS,2,num_2,32,num_4,0.683425305382,,,2017_Aug_28_1146,60.0039838513,MAFE4ImagesEEG,001,101474,
AFNE01.JPG,AFNE01.JPG,AFNE01.JPG,AFNE01.JPG,AFNE01.JPG,AFNE01.JPG,,,,,,,,,,,,,,,,,2,9,29,0,,,,,,,AMNE01.jpg,AMNE16.jpg,AMSA15.jpg,AMSA10.jpg,AMSA10.jpg,MS,2,num_4,32,num_2,1.18314642238,,,2017_Aug_28_1146,60.0039838513,MAFE4ImagesEEG,001,101474,
AFNE01.JPG,AFNE01.JPG,AFNE01.JPG,AFNE01.JPG,AFNE01.JPG,AFNE01.JPG,,,,,,,,,,,,,,,,,3,0,30,6,,,,,,,AMNE15.jpg,AMSA09.jpg,AMNE08.jpg,AMSA07.jpg,AMSA07.jpg,MS,2,num_4,32,num_2,0.983479991468,,,2017_Aug_28_1146,60.0039838513,MAFE4ImagesEEG,001,101474,
AFNE01.JPG,AFNE01.JPG,AFNE01.JPG,AFNE01.JPG,AFNE01.JPG,AFNE01.JPG,,,,,,,,,,,,,,,,,3,1,31,1,,,,,,,AMSA15.jpg,AMNE17.jpg,AMSA20.jpg,AMNE12.jpg,AMSA20.jpg,MS,2,num_2,16,num_2,1.51658303384,,,2017_Aug_28_1146,60.0039838513,MAFE4ImagesEEG,001,101474,
AFNE01.JPG,AFNE01.JPG,AFNE01.JPG,AFNE01.JPG,AFNE01.JPG,AFNE01.JPG,,,,,,,,,,,,,,,,,3,2,32,0,,,,,,,AMNE03.jpg,AMSA16.jpg,AMSA12.jpg,AMNE04.jpg,AMNE04.jpg,MN,1,num_4,32,num_8,1.46671670204,,,2017_Aug_28_1146,60.0039838513,MAFE4ImagesEEG,001,101474,
AFNE01.JPG,AFNE01.JPG,AFNE01.JPG,AFNE01.JPG,AFNE01.JPG,AFNE01.JPG,,,,,,,,,,,,,,,,,3,3,33,8,,,,,,,AMSA14.jpg,AMSA06.jpg,AMNE05.jpg,AMNE07.jpg,AMNE07.jpg,MN,1,num_4,16,num_4,1.31672864957,,,2017_Aug_28_1146,60.0039838513,MAFE4ImagesEEG,001,101474,
AFNE01.JPG,AFNE01.JPG,AFNE01.JPG,AFNE01.JPG,AFNE01.JPG,AFNE01.JPG,,,,,,,,,,,,,,,,,3,4,34,3,,,,,,,AMSA16.jpg,AMSA06.jpg,AMNE14.jpg,AMNE19.jpg,AMSA16.jpg,MS,2,num_8,32,num_4,1.26670258949,,,2017_Aug_28_1146,60.0039838513,MAFE4ImagesEEG,001,101474,
AFNE01.JPG,AFNE01.JPG,AFNE01.JPG,AFNE01.JPG,AFNE01.JPG,AFNE01.JPG,,,,,,,,,,,,,,,,,3,5,35,5,,,,,,,AMNE13.jpg,AMSA12.jpg,AMSA04.jpg,AMNE20.jpg,AMNE20.jpg,MN,1,num_4,32,num_6,1.21675222393,,,2017_Aug_28_1146,60.0039838513,MAFE4ImagesEEG,001,101474,
AFNE01.JPG,AFNE01.JPG,AFNE01.JPG,AFNE01.JPG,AFNE01.JPG,AFNE01.JPG,,,,,,,,,,,,,,,,,3,6,36,2,,,,,,,AMNE12.jpg,AMNE14.jpg,AMSA14.jpg,AMSA03.jpg,AMNE12.jpg,MN,1,num_8,16,num_8,1.20009718408,,,2017_Aug_28_1146,60.0039838513,MAFE4ImagesEEG,001,101474,
AFNE01.JPG,AFNE01.JPG,AFNE01.JPG,AFNE01.JPG,AFNE01.JPG,AFNE01.JPG,,,,,,,,,,,,,,,,,3,7,37,7,,,,,,,AMSA17.jpg,AMNE09.jpg,AMNE16.jpg,AMSA10.jpg,AMSA17.jpg,MS,2,num_8,32,num_2,1.61670154709,,,2017_Aug_28_1146,60.0039838513,MAFE4ImagesEEG,001,101474,
AFNE01.JPG,AFNE01.JPG,AFNE01.JPG,AFNE01.JPG,AFNE01.JPG,AFNE01.JPG,,,,,,,,,,,,,,,,,3,8,38,9,,,,,,,AMSA16.jpg,AMNE15.jpg,AMNE14.jpg,AMSA05.jpg,AMSA16.jpg,MS,2,num_8,16,num_8,1.40024247905,,,2017_Aug_28_1146,60.0039838513,MAFE4ImagesEEG,001,101474,
AFNE01.JPG,AFNE01.JPG,AFNE01.JPG,AFNE01.JPG,AFNE01.JPG,AFNE01.JPG,,,,,,,,,,,,,,,,,3,9,39,4,,,,,,,AMSA14.jpg,AMSA10.jpg,AMNE12.jpg,AMNE03.jpg,AMNE03.jpg,MN,1,num_4,32,num_6,1.96672071127,,,2017_Aug_28_1146,60.0039838513,MAFE4ImagesEEG,001,101474,
AFNE01.JPG,AFNE01.JPG,AFNE01.JPG,AFNE01.JPG,AFNE01.JPG,AFNE01.JPG,,,,,,,,,,,,,,,,,4,0,40,9,,,,,,,AMNE04.jpg,AMSA17.jpg,AMNE19.jpg,AMSA11.jpg,AMNE19.jpg,MN,1,num_2,16,num_2,1.35012564968,,,2017_Aug_28_1146,60.0039838513,MAFE4ImagesEEG,001,101474,
AFNE01.JPG,AFNE01.JPG,AFNE01.JPG,AFNE01.JPG,AFNE01.JPG,AFNE01.JPG,,,,,,,,,,,,,,,,,4,1,41,1,,,,,,,AMSA19.jpg,AMNE02.jpg,AMNE13.jpg,AMSA16.jpg,AMNE02.jpg,MN,1,num_6,32,num_8,1.71671870665,,,2017_Aug_28_1146,60.0039838513,MAFE4ImagesEEG,001,101474,
AFNE01.JPG,AFNE01.JPG,AFNE01.JPG,AFNE01.JPG,AFNE01.JPG,AFNE01.JPG,,,,,,,,,,,,,,,,,4,2,42,2,,,,,,,AMNE12.jpg,AMNE10.jpg,AMSA18.jpg,AMSA14.jpg,AMNE10.jpg,MN,1,num_6,32,num_8,1.65006422807,,,2017_Aug_28_1146,60.0039838513,MAFE4ImagesEEG,001,101474,
AFNE01.JPG,AFNE01.JPG,AFNE01.JPG,AFNE01.JPG,AFNE01.JPG,AFNE01.JPG,,,,,,,,,,,,,,,,,4,3,43,8,,,,,,,AMSA16.jpg,AMNE06.jpg,AMNE07.jpg,AMSA07.jpg,AMNE07.jpg,MN,1,num_2,32,num_6,1.26676577516,,,2017_Aug_28_1146,60.0039838513,MAFE4ImagesEEG,001,101474,
AFNE01.JPG,AFNE01.JPG,AFNE01.JPG,AFNE01.JPG,AFNE01.JPG,AFNE01.JPG,,,,,,,,,,,,,,,,,4,4,44,0,,,,,,,AMSA13.jpg,AMNE19.jpg,AMSA15.jpg,AMNE04.jpg,AMSA13.jpg,MS,2,num_8,16,num_8,1.60008467524,,,2017_Aug_28_1146,60.0039838513,MAFE4ImagesEEG,001,101474,
AFNE01.JPG,AFNE01.JPG,AFNE01.JPG,AFNE01.JPG,AFNE01.JPG,AFNE01.JPG,,,,,,,,,,,,,,,,,4,5,45,3,,,,,,,AMNE04.jpg,AMSA13.jpg,AMNE17.jpg,AMSA20.jpg,AMSA20.jpg,MS,2,num_4,32,num_2,2.9499941465,,,2017_Aug_28_1146,60.0039838513,MAFE4ImagesEEG,001,101474,
AFNE01.JPG,AFNE01.JPG,AFNE01.JPG,AFNE01.JPG,AFNE01.JPG,AFNE01.JPG,,,,,,,,,,,,,,,,,4,6,46,7,,,,,,,AMSA09.jpg,AMNE14.jpg,AMSA10.jpg,AMNE16.jpg,AMNE16.jpg,MN,1,num_4,32,num_8,1.83342169708,,,2017_Aug_28_1146,60.0039838513,MAFE4ImagesEEG,001,101474,
AFNE01.JPG,AFNE01.JPG,AFNE01.JPG,AFNE01.JPG,AFNE01.JPG,AFNE01.JPG,,,,,,,,,,,,,,,,,4,7,47,5,,,,,,,AMSA09.jpg,AMNE06.jpg,AMSA15.jpg,AMNE18.jpg,AMNE06.jpg,MN,1,num_6,16,num_6,1.70009670296,,,2017_Aug_28_1146,60.0039838513,MAFE4ImagesEEG,001,101474,
AFNE01.JPG,AFNE01.JPG,AFNE01.JPG,AFNE01.JPG,AFNE01.JPG,AFNE01.JPG,,,,,,,,,,,,,,,,,4,8,48,6,,,,,,,AMSA04.jpg,AMNE12.jpg,AMSA18.jpg,AMNE14.jpg,AMNE14.jpg,MN,1,num_4,32,num_8,1.40009076928,,,2017_Aug_28_1146,60.0039838513,MAFE4ImagesEEG,001,101474,
AFNE01.JPG,AFNE01.JPG,AFNE01.JPG,AFNE01.JPG,AFNE01.JPG,AFNE01.JPG,,,,,,,,,,,,,,,,,4,9,49,4,,,,,,,AMSA05.jpg,AMNE09.jpg,AMSA09.jpg,AMNE03.jpg,AMNE09.jpg,MN,1,num_6,16,num_6,1.44992983824,,,2017_Aug_28_1146,60.0039838513,MAFE4ImagesEEG,001,101474,
AFNE01.JPG,AFNE01.JPG,AFNE01.JPG,AFNE01.JPG,AFNE01.JPG,AFNE01.JPG,,,,,,,,,,,,,,,,,5,0,50,0,,,,,,,AMNE07.jpg,AMSA20.jpg,AMSA04.jpg,AMNE13.jpg,AMNE07.jpg,MN,1,num_8,32,num_4,1.21678333564,,,2017_Aug_28_1146,60.0039838513,MAFE4ImagesEEG,001,101474,
AFNE01.JPG,AFNE01.JPG,AFNE01.JPG,AFNE01.JPG,AFNE01.JPG,AFNE01.JPG,,,,,,,,,,,,,,,,,5,1,51,5,,,,,,,AMSA07.jpg,AMNE01.jpg,AMNE16.jpg,AMSA20.jpg,AMSA20.jpg,MS,2,num_4,16,num_4,1.86642611204,,,2017_Aug_28_1146,60.0039838513,MAFE4ImagesEEG,001,101474,
AFNE01.JPG,AFNE01.JPG,AFNE01.JPG,AFNE01.JPG,AFNE01.JPG,AFNE01.JPG,,,,,,,,,,,,,,,,,5,2,52,8,,,,,,,AMNE03.jpg,AMNE15.jpg,AMSA03.jpg,AMSA04.jpg,AMSA04.jpg,MS,2,num_4,16,num_4,1.45007866138,,,2017_Aug_28_1146,60.0039838513,MAFE4ImagesEEG,001,101474,
AFNE01.JPG,AFNE01.JPG,AFNE01.JPG,AFNE01.JPG,AFNE01.JPG,AFNE01.JPG,,,,,,,,,,,,,,,,,5,3,53,3,,,,,,,AMNE06.jpg,AMSA06.jpg,AMNE20.jpg,AMSA05.jpg,AMSA05.jpg,MS,2,num_4,32,num_2,1.43343709255,,,2017_Aug_28_1146,60.0039838513,MAFE4ImagesEEG,001,101474,
AFNE01.JPG,AFNE01.JPG,AFNE01.JPG,AFNE01.JPG,AFNE01.JPG,AFNE01.JPG,,,,,,,,,,,,,,,,,5,4,54,1,,,,,,,AMSA12.jpg,AMNE12.jpg,AMSA15.jpg,AMNE20.jpg,AMSA15.jpg,MS,2,num_2,16,num_2,1.25010207534,,,2017_Aug_28_1146,60.0039838513,MAFE4ImagesEEG,001,101474,
AFNE01.JPG,AFNE01.JPG,AFNE01.JPG,AFNE01.JPG,AFNE01.JPG,AFNE01.JPG,,,,,,,,,,,,,,,,,5,5,55,4,,,,,,,AMNE19.jpg,AMSA18.jpg,AMNE14.jpg,AMSA05.jpg,AMNE14.jpg,MN,1,num_2,32,num_8,1.28347726518,,,2017_Aug_28_1146,60.0039838513,MAFE4ImagesEEG,001,101474,
AFNE01.JPG,AFNE01.JPG,AFNE01.JPG,AFNE01.JPG,AFNE01.JPG,AFNE01.JPG,,,,,,,,,,,,,,,,,5,6,56,7,,,,,,,AMNE09.jpg,AMSA15.jpg,AMSA07.jpg,AMNE19.jpg,AMNE19.jpg,MN,1,num_4,32,num_2,1.13343436629,,,2017_Aug_28_1146,60.0039838513,MAFE4ImagesEEG,001,101474,
AFNE01.JPG,AFNE01.JPG,AFNE01.JPG,AFNE01.JPG,AFNE01.JPG,AFNE01.JPG,,,,,,,,,,,,,,,,,5,7,57,2,,,,,,,AMNE18.jpg,AMSA18.jpg,AMNE10.jpg,AMSA03.jpg,AMNE10.jpg,MN,1,num_2,32,num_8,1.3168287203,,,2017_Aug_28_1146,60.0039838513,MAFE4ImagesEEG,001,101474,
AFNE01.JPG,AFNE01.JPG,AFNE01.JPG,AFNE01.JPG,AFNE01.JPG,AFNE01.JPG,,,,,,,,,,,,,,,,,5,8,58,9,,,,,,,AMSA04.jpg,AMNE07.jpg,AMSA16.jpg,AMNE20.jpg,AMNE20.jpg,MN,1,num_4,32,num_2,1.90001170698,,,2017_Aug_28_1146,60.0039838513,MAFE4ImagesEEG,001,101474,
AFNE01.JPG,AFNE01.JPG,AFNE01.JPG,AFNE01.JPG,AFNE01.JPG,AFNE01.JPG,,,,,,,,,,,,,,,,,5,9,59,6,,,,,,,AMNE19.jpg,AMNE03.jpg,AMSA19.jpg,AMSA03.jpg,AMNE03.jpg,MN,1,num_6,32,num_8,1.96666714776,,,2017_Aug_28_1146,60.0039838513,MAFE4ImagesEEG,001,101474,
,,,,,,,,,,,,,,,,,,,,,,,,,,,,,,,,,,,,,,,,,,,space,27.1313036938,2017_Aug_28_1146,60.0039838513,MAFE4ImagesEEG,001,101474,
AFNE01.JPG,AFNE01.JPG,AFNE01.JPG,AFNE01.JPG,AFNE01.JPG,AFNE01.JPG,,,,,,,,,,,,,,,,,,,,,0,0,0,3,,,AFNE19.jpg,AFSA15.jpg,AFSA07.jpg,AFNE04.jpg,AFNE04.jpg,FN,3,num_4,32,num_8,1.20009654257,,,2017_Aug_28_1146,60.0039838513,MAFE4ImagesEEG,001,101474,
AFNE01.JPG,AFNE01.JPG,AFNE01.JPG,AFNE01.JPG,AFNE01.JPG,AFNE01.JPG,,,,,,,,,,,,,,,,,,,,,0,1,1,4,,,AFNE20.jpg,AFSA04.jpg,AFSA07.jpg,AFNE06.jpg,AFSA04.jpg,FS,4,num_6,16,num_6,1.16679768873,,,2017_Aug_28_1146,60.0039838513,MAFE4ImagesEEG,001,101474,
AFNE01.JPG,AFNE01.JPG,AFNE01.JPG,AFNE01.JPG,AFNE01.JPG,AFNE01.JPG,,,,,,,,,,,,,,,,,,,,,0,2,2,7,,,AFNE03.jpg,AFNE19.jpg,AFSA03.jpg,AFSA02.jpg,AFNE19.jpg,FN,3,num_6,32,num_4,1.10013711615,,,2017_Aug_28_1146,60.0039838513,MAFE4ImagesEEG,001,101474,
AFNE01.JPG,AFNE01.JPG,AFNE01.JPG,AFNE01.JPG,AFNE01.JPG,AFNE01.JPG,,,,,,,,,,,,,,,,,,,,,0,3,3,5,,,AFNE15.jpg,AFNE17.jpg,AFSA14.jpg,AFSA11.jpg,AFSA11.jpg,FS,4,num_4,32,num_8,1.08346058673,,,2017_Aug_28_1146,60.0039838513,MAFE4ImagesEEG,001,101474,
AFNE01.JPG,AFNE01.JPG,AFNE01.JPG,AFNE01.JPG,AFNE01.JPG,AFNE01.JPG,,,,,,,,,,,,,,,,,,,,,0,4,4,1,,,AFSA11.jpg,AFSA10.jpg,AFNE16.jpg,AFNE09.jpg,AFNE16.jpg,FN,3,num_2,16,num_2,1.0334868072,,,2017_Aug_28_1146,60.0039838513,MAFE4ImagesEEG,001,101474,
AFNE01.JPG,AFNE01.JPG,AFNE01.JPG,AFNE01.JPG,AFNE01.JPG,AFNE01.JPG,,,,,,,,,,,,,,,,,,,,,0,5,5,8,,,AFSA16.jpg,AFNE06.jpg,AFNE01.jpg,AFSA09.jpg,AFNE01.jpg,FN,3,num_2,32,num_4,1.13340325456,,,2017_Aug_28_1146,60.0039838513,MAFE4ImagesEEG,001,101474,
AFNE01.JPG,AFNE01.JPG,AFNE01.JPG,AFNE01.JPG,AFNE01.JPG,AFNE01.JPG,,,,,,,,,,,,,,,,,,,,,0,6,6,2,,,AFSA10.jpg,AFSA17.jpg,AFNE16.jpg,AFNE05.jpg,AFSA17.jpg,FS,4,num_6,16,num_6,1.29975543614,,,2017_Aug_28_1146,60.0039838513,MAFE4ImagesEEG,001,101474,
AFNE01.JPG,AFNE01.JPG,AFNE01.JPG,AFNE01.JPG,AFNE01.JPG,AFNE01.JPG,,,,,,,,,,,,,,,,,,,,,0,7,7,9,,,AFNE02.jpg,AFSA15.jpg,AFSA16.jpg,AFNE05.jpg,AFNE05.jpg,FN,3,num_4,32,num_2,1.10022082916,,,2017_Aug_28_1146,60.0039838513,MAFE4ImagesEEG,001,101474,
AFNE01.JPG,AFNE01.JPG,AFNE01.JPG,AFNE01.JPG,AFNE01.JPG,AFNE01.JPG,,,,,,,,,,,,,,,,,,,,,0,8,8,6,,,AFSA04.jpg,AFNE02.jpg,AFNE11.jpg,AFSA09.jpg,AFNE11.jpg,FN,3,num_2,16,num_2,1.21662424886,,,2017_Aug_28_1146,60.0039838513,MAFE4ImagesEEG,001,101474,
AFNE01.JPG,AFNE01.JPG,AFNE01.JPG,AFNE01.JPG,AFNE01.JPG,AFNE01.JPG,,,,,,,,,,,,,,,,,,,,,0,9,9,0,,,AFNE08.jpg,AFNE18.jpg,AFSA13.jpg,AFSA11.jpg,AFNE18.jpg,FN,3,num_6,32,num_8,1.18346331301,,,2017_Aug_28_1146,60.0039838513,MAFE4ImagesEEG,001,101474,
AFNE01.JPG,AFNE01.JPG,AFNE01.JPG,AFNE01.JPG,AFNE01.JPG,AFNE01.JPG,,,,,,,,,,,,,,,,,,,,,1,0,10,9,,,AFSA16.jpg,AFNE12.jpg,AFNE18.jpg,AFSA14.jpg,AFSA14.jpg,FS,4,num_4,32,num_8,1.60010905145,,,2017_Aug_28_1146,60.0039838513,MAFE4ImagesEEG,001,101474,
AFNE01.JPG,AFNE01.JPG,AFNE01.JPG,AFNE01.JPG,AFNE01.JPG,AFNE01.JPG,,,,,,,,,,,,,,,,,,,,,1,1,11,1,,,AFNE12.jpg,AFSA12.jpg,AFNE04.jpg,AFSA03.jpg,AFNE04.jpg,FN,3,num_2,16,num_2,1.43341367858,,,2017_Aug_28_1146,60.0039838513,MAFE4ImagesEEG,001,101474,
AFNE01.JPG,AFNE01.JPG,AFNE01.JPG,AFNE01.JPG,AFNE01.JPG,AFNE01.JPG,,,,,,,,,,,,,,,,,,,,,1,2,12,5,,,AFNE01.jpg,AFSA11.jpg,AFSA14.jpg,AFNE18.jpg,AFSA14.jpg,FS,4,num_2,16,num_2,1.3500704825,,,2017_Aug_28_1146,60.0039838513,MAFE4ImagesEEG,001,101474,
AFNE01.JPG,AFNE01.JPG,AFNE01.JPG,AFNE01.JPG,AFNE01.JPG,AFNE01.JPG,,,,,,,,,,,,,,,,,,,,,1,3,13,6,,,AFSA14.jpg,AFNE01.jpg,AFNE14.jpg,AFSA18.jpg,AFSA14.jpg,FS,4,num_8,32,num_2,2.39987811897,,,2017_Aug_28_1146,60.0039838513,MAFE4ImagesEEG,001,101474,
AFNE01.JPG,AFNE01.JPG,AFNE01.JPG,AFNE01.JPG,AFNE01.JPG,AFNE01.JPG,,,,,,,,,,,,,,,,,,,,,1,4,14,4,,,AFNE16.jpg,AFNE02.jpg,AFSA19.jpg,AFSA13.jpg,AFNE16.jpg,FN,3,num_8,16,num_8,1.5500566907,,,2017_Aug_28_1146,60.0039838513,MAFE4ImagesEEG,001,101474,
AFNE01.JPG,AFNE01.JPG,AFNE01.JPG,AFNE01.JPG,AFNE01.JPG,AFNE01.JPG,,,,,,,,,,,,,,,,,,,,,1,5,15,8,,,AFSA16.jpg,AFSA12.jpg,AFNE10.jpg,AFNE08.jpg,AFNE08.jpg,FN,3,num_4,32,num_8,1.36671942833,,,2017_Aug_28_1146,60.0039838513,MAFE4ImagesEEG,001,101474,
AFNE01.JPG,AFNE01.JPG,AFNE01.JPG,AFNE01.JPG,AFNE01.JPG,AFNE01.JPG,,,,,,,,,,,,,,,,,,,,,1,6,16,7,,,AFSA02.jpg,AFNE19.jpg,AFNE04.jpg,AFSA12.jpg,AFSA02.jpg,FS,4,num_8,32,num_2,1.44980699502,,,2017_Aug_28_1146,60.0039838513,MAFE4ImagesEEG,001,101474,
AFNE01.JPG,AFNE01.JPG,AFNE01.JPG,AFNE01.JPG,AFNE01.JPG,AFNE01.JPG,,,,,,,,,,,,,,,,,,,,,1,7,17,0,,,AFNE07.jpg,AFSA13.jpg,AFSA19.jpg,AFNE10.jpg,AFSA19.jpg,FS,4,num_2,32,num_6,1.18346684115,,,2017_Aug_28_1146,60.0039838513,MAFE4ImagesEEG,001,101474,
AFNE01.JPG,AFNE01.JPG,AFNE01.JPG,AFNE01.JPG,AFNE01.JPG,AFNE01.JPG,,,,,,,,,,,,,,,,,,,,,1,8,18,2,,,AFSA01.jpg,AFSA07.jpg,AFNE20.jpg,AFNE10.jpg,AFNE20.jpg,FN,3,num_2,16,num_2,1.30008194892,,,2017_Aug_28_1146,60.0039838513,MAFE4ImagesEEG,001,101474,
AFNE01.JPG,AFNE01.JPG,AFNE01.JPG,AFNE01.JPG,AFNE01.JPG,AFNE01.JPG,,,,,,,,,,,,,,,,,,,,,1,9,19,3,,,AFSA14.jpg,AFNE09.jpg,AFNE02.jpg,AFSA20.jpg,AFSA20.jpg,FS,4,num_4,16,num_4,1.4503589877,,,2017_Aug_28_1146,60.0039838513,MAFE4ImagesEEG,001,101474,
AFNE01.JPG,AFNE01.JPG,AFNE01.JPG,AFNE01.JPG,AFNE01.JPG,AFNE01.JPG,,,,,,,,,,,,,,,,,,,,,2,0,20,5,,,AFNE08.jpg,AFNE19.jpg,AFSA18.jpg,AFSA03.jpg,AFSA18.jpg,FS,4,num_2,32,num_4,1.1000944578,,,2017_Aug_28_1146,60.0039838513,MAFE4ImagesEEG,001,101474,
AFNE01.JPG,AFNE01.JPG,AFNE01.JPG,AFNE01.JPG,AFNE01.JPG,AFNE01.JPG,,,,,,,,,,,,,,,,,,,,,2,1,21,3,,,AFNE05.jpg,AFSA08.jpg,AFNE17.jpg,AFSA04.jpg,AFNE17.jpg,FN,3,num_2,32,num_8,1.35008876465,,,2017_Aug_28_1146,60.0039838513,MAFE4ImagesEEG,001,101474,
AFNE01.JPG,AFNE01.JPG,AFNE01.JPG,AFNE01.JPG,AFNE01.JPG,AFNE01.JPG,,,,,,,,,,,,,,,,,,,,,2,2,22,0,,,AFNE01.jpg,AFSA13.jpg,AFNE14.jpg,AFSA04.jpg,AFSA13.jpg,FS,4,num_6,32,num_2,1.18344887972,,,2017_Aug_28_1146,60.0039838513,MAFE4ImagesEEG,001,101474,
AFNE01.JPG,AFNE01.JPG,AFNE01.JPG,AFNE01.JPG,AFNE01.JPG,AFNE01.JPG,,,,,,,,,,,,,,,,,,,,,2,3,23,6,,,AFNE02.jpg,AFNE16.jpg,AFSA14.jpg,AFSA01.jpg,AFNE16.jpg,FN,3,num_6,32,num_4,1.0167592802,,,2017_Aug_28_1146,60.0039838513,MAFE4ImagesEEG,001,101474,
AFNE01.JPG,AFNE01.JPG,AFNE01.JPG,AFNE01.JPG,AFNE01.JPG,AFNE01.JPG,,,,,,,,,,,,,,,,,,,,,2,4,24,1,,,AFNE17.jpg,AFSA20.jpg,AFSA15.jpg,AFNE10.jpg,AFNE17.jpg,FN,3,num_8,32,num_2,1.10012043768,,,2017_Aug_28_1146,60.0039838513,MAFE4ImagesEEG,001,101474,
AFNE01.JPG,AFNE01.JPG,AFNE01.JPG,AFNE01.JPG,AFNE01.JPG,AFNE01.JPG,,,,,,,,,,,,,,,,,,,,,2,5,25,7,,,AFSA01.jpg,AFSA14.jpg,AFNE05.jpg,AFNE01.jpg,AFNE05.jpg,FN,3,num_2,32,num_8,1.99999454743,,,2017_Aug_28_1146,60.0039838513,MAFE4ImagesEEG,001,101474,
AFNE01.JPG,AFNE01.JPG,AFNE01.JPG,AFNE01.JPG,AFNE01.JPG,AFNE01.JPG,,,,,,,,,,,,,,,,,,,,,2,6,26,9,,,AFSA16.jpg,AFNE12.jpg,AFNE13.jpg,AFSA19.jpg,AFNE12.jpg,FN,3,num_6,16,num_6,1.16675631335,,,2017_Aug_28_1146,60.0039838513,MAFE4ImagesEEG,001,101474,
AFNE01.JPG,AFNE01.JPG,AFNE01.JPG,AFNE01.JPG,AFNE01.JPG,AFNE01.JPG,,,,,,,,,,,,,,,,,,,,,2,7,27,2,,,AFSA11.jpg,AFNE07.jpg,AFNE12.jpg,AFSA12.jpg,AFSA12.jpg,FS,4,num_4,32,num_2,2.0000452243,,,2017_Aug_28_1146,60.0039838513,MAFE4ImagesEEG,001,101474,
AFNE01.JPG,AFNE01.JPG,AFNE01.JPG,AFNE01.JPG,AFNE01.JPG,AFNE01.JPG,,,,,,,,,,,,,,,,,,,,,2,8,28,4,,,AFNE17.jpg,AFSA15.jpg,AFSA03.jpg,AFNE15.jpg,AFNE15.jpg,FN,3,num_4,32,num_8,1.35006214326,,,2017_Aug_28_1146,60.0039838513,MAFE4ImagesEEG,001,101474,
AFNE01.JPG,AFNE01.JPG,AFNE01.JPG,AFNE01.JPG,AFNE01.JPG,AFNE01.JPG,,,,,,,,,,,,,,,,,,,,,2,9,29,8,,,AFSA16.jpg,AFNE18.jpg,AFNE02.jpg,AFSA09.jpg,AFNE02.jpg,FN,3,num_2,32,num_8,1.0667490967,,,2017_Aug_28_1146,60.0039838513,MAFE4ImagesEEG,001,101474,
AFNE01.JPG,AFNE01.JPG,AFNE01.JPG,AFNE01.JPG,AFNE01.JPG,AFNE01.JPG,,,,,,,,,,,,,,,,,,,,,3,0,30,0,,,AFSA19.jpg,AFSA04.jpg,AFNE07.jpg,AFNE08.jpg,AFSA04.jpg,FS,4,num_6,32,num_8,1.26670034431,,,2017_Aug_28_1146,60.0039838513,MAFE4ImagesEEG,001,101474,
AFNE01.JPG,AFNE01.JPG,AFNE01.JPG,AFNE01.JPG,AFNE01.JPG,AFNE01.JPG,,,,,,,,,,,,,,,,,,,,,3,1,31,7,,,AFNE09.jpg,AFSA09.jpg,AFNE16.jpg,AFSA11.jpg,AFSA11.jpg,FS,4,num_4,16,num_4,1.3000758549,,,2017_Aug_28_1146,60.0039838513,MAFE4ImagesEEG,001,101474,
AFNE01.JPG,AFNE01.JPG,AFNE01.JPG,AFNE01.JPG,AFNE01.JPG,AFNE01.JPG,,,,,,,,,,,,,,,,,,,,,3,2,32,4,,,AFNE13.jpg,AFSA13.jpg,AFSA18.jpg,AFNE08.jpg,AFNE08.jpg,FN,3,num_4,32,num_8,2.41660243858,,,2017_Aug_28_1146,60.0039838513,MAFE4ImagesEEG,001,101474,
AFNE01.JPG,AFNE01.JPG,AFNE01.JPG,AFNE01.JPG,AFNE01.JPG,AFNE01.JPG,,,,,,,,,,,,,,,,,,,,,3,3,33,5,,,AFSA17.jpg,AFSA05.jpg,AFNE05.jpg,AFNE13.jpg,AFNE05.jpg,FN,3,num_2,32,num_4,1.31662376775,,,2017_Aug_28_1146,60.0039838513,MAFE4ImagesEEG,001,101474,
AFNE01.JPG,AFNE01.JPG,AFNE01.JPG,AFNE01.JPG,AFNE01.JPG,AFNE01.JPG,,,,,,,,,,,,,,,,,,,,,3,4,34,3,,,AFSA03.jpg,AFSA17.jpg,AFNE09.jpg,AFNE04.jpg,AFSA03.jpg,FS,4,num_8,16,num_8,1.31706702974,,,2017_Aug_28_1146,60.0039838513,MAFE4ImagesEEG,001,101474,
AFNE01.JPG,AFNE01.JPG,AFNE01.JPG,AFNE01.JPG,AFNE01.JPG,AFNE01.JPG,,,,,,,,,,,,,,,,,,,,,3,5,35,6,,,AFNE15.jpg,AFSA01.jpg,AFSA05.jpg,AFNE18.jpg,AFNE15.jpg,FN,3,num_8,32,num_2,1.50006430829,,,2017_Aug_28_1146,60.0039838513,MAFE4ImagesEEG,001,101474,
AFNE01.JPG,AFNE01.JPG,AFNE01.JPG,AFNE01.JPG,AFNE01.JPG,AFNE01.JPG,,,,,,,,,,,,,,,,,,,,,3,6,36,1,,,AFNE18.jpg,AFSA18.jpg,AFSA03.jpg,AFNE03.jpg,AFNE03.jpg,FN,3,num_4,16,num_4,1.21677050609,,,2017_Aug_28_1146,60.0039838513,MAFE4ImagesEEG,001,101474,
AFNE01.JPG,AFNE01.JPG,AFNE01.JPG,AFNE01.JPG,AFNE01.JPG,AFNE01.JPG,,,,,,,,,,,,,,,,,,,,,3,7,37,8,,,AFNE19.jpg,AFSA02.jpg,AFNE04.jpg,AFSA17.jpg,AFNE04.jpg,FN,3,num_2,32,num_8,1.55007657656,,,2017_Aug_28_1146,60.0039838513,MAFE4ImagesEEG,001,101474,
AFNE01.JPG,AFNE01.JPG,AFNE01.JPG,AFNE01.JPG,AFNE01.JPG,AFNE01.JPG,,,,,,,,,,,,,,,,,,,,,3,8,38,2,,,AFSA03.jpg,AFNE15.jpg,AFNE01.jpg,AFSA05.jpg,AFSA03.jpg,FS,4,num_8,32,num_4,1.3500884439,,,2017_Aug_28_1146,60.0039838513,MAFE4ImagesEEG,001,101474,
AFNE01.JPG,AFNE01.JPG,AFNE01.JPG,AFNE01.JPG,AFNE01.JPG,AFNE01.JPG,,,,,,,,,,,,,,,,,,,,,3,9,39,9,,,AFNE10.jpg,AFNE05.jpg,AFSA17.jpg,AFSA04.jpg,AFSA04.jpg,FS,4,num_4,16,num_4,1.30008900521,,,2017_Aug_28_1146,60.0039838513,MAFE4ImagesEEG,001,101474,
