IPosition2,IPosition3,IPosition1,IPosition6,IPosition4,IPosition5,TrialsM1.thisRepN,TrialsM1.thisTrialN,TrialsM1.thisN,TrialsM1.thisIndex,TrialsF1.thisRepN,TrialsF1.thisTrialN,TrialsF1.thisN,TrialsF1.thisIndex,TrialsM2.thisRepN,TrialsM2.thisTrialN,TrialsM2.thisN,TrialsM2.thisIndex,TrialsF2.thisRepN,TrialsF2.thisTrialN,TrialsF2.thisN,TrialsF2.thisIndex,TrialsM3.thisRepN,TrialsM3.thisTrialN,TrialsM3.thisN,TrialsM3.thisIndex,TrialsF3.thisRepN,TrialsF3.thisTrialN,TrialsF3.thisN,TrialsF3.thisIndex,InstrKey_resp.keys,InstrKey_resp.rt,Image0 _Position,Image1 _Position,Image2 _Position,Image3 _Position,Center_image,condition,code,correct_answer,accuracy,Key_Resp.keys,Key_Resp.rt,BreakKey_resp.keys,BreakKey_resp.rt,date,frameRate,expName,session,participant,
,,,,,,,,,,,,,,,,,,,,,,,,,,,,,,space,14.5660917836,,,,,,,,,,,,,,2017_Sep_13_1410,60.0120301633,MAFE4ImagesEEG,001,101498,
AMSA21.JPG,AMNE23.JPG,AMNE21.JPG,AMSA25.JPG,AMNE25.JPG,AMSA23.JPG,0,0,0,5,,,,,,,,,,,,,,,,,,,,,,,AMSA10.jpg,AMNE03.jpg,AMNE05.jpg,AMSA17.jpg,AMNE05.jpg,MN,1,num_2,48,None,,,,2017_Sep_13_1410,60.0120301633,MAFE4ImagesEEG,001,101498,
AFNE23.JPG,AFNE24.JPG,AFNE22.JPG,AFSA24.JPG,AFSA22.JPG,AFSA23.JPG,0,1,1,8,,,,,,,,,,,,,,,,,,,,,,,AMNE08.jpg,AMSA16.jpg,AMSA15.jpg,AMNE16.jpg,AMNE08.jpg,MN,1,num_8,32,num_4,2.84998202254,,,2017_Sep_13_1410,60.0120301633,MAFE4ImagesEEG,001,101498,
AMNE23.JPG,AMNE24.JPG,AMNE22.JPG,AMSA24.JPG,AMSA22.JPG,AMSA23.JPG,0,2,2,9,,,,,,,,,,,,,,,,,,,,,,,AMSA04.jpg,AMNE10.jpg,AMSA07.jpg,AMNE16.jpg,AMNE10.jpg,MN,1,num_6,32,num_2,2.56659342046,,,2017_Sep_13_1410,60.0120301633,MAFE4ImagesEEG,001,101498,
AMSA25.JPG,AMNE24.JPG,AMSA24.JPG,AMNE26.JPG,AMSA21.JPG,AMNE25.JPG,0,3,3,3,,,,,,,,,,,,,,,,,,,,,,,AMNE11.jpg,AMSA18.jpg,AMSA04.jpg,AMNE17.jpg,AMSA04.jpg,MS,2,num_2,16,num_2,1.21677160729,,,2017_Sep_13_1410,60.0120301633,MAFE4ImagesEEG,001,101498,
AFSA21.JPG,AFNE22.JPG,AFNE21.JPG,AFSA23.JPG,AFSA22.JPG,AFNE23.JPG,0,4,4,0,,,,,,,,,,,,,,,,,,,,,,,AMSA18.jpg,AMNE03.jpg,AMSA11.jpg,AMNE18.jpg,AMNE18.jpg,MN,1,num_4,16,num_4,2.10005250503,,,2017_Sep_13_1410,60.0120301633,MAFE4ImagesEEG,001,101498,
AMNE22.JPG,AMSA24.JPG,AMSA22.JPG,AMNE25.JPG,AMNE24.JPG,AMSA25.JPG,0,5,5,7,,,,,,,,,,,,,,,,,,,,,,,AMSA08.jpg,AMNE11.jpg,AMNE02.jpg,AMSA16.jpg,AMSA16.jpg,MS,2,num_4,32,num_8,2.26668030885,,,2017_Sep_13_1410,60.0120301633,MAFE4ImagesEEG,001,101498,
AFSA25.JPG,AFNE24.JPG,AFSA24.JPG,AFNE21.JPG,AFSA21.JPG,AFNE25.JPG,0,6,6,2,,,,,,,,,,,,,,,,,,,,,,,AMSA05.jpg,AMSA10.jpg,AMNE17.jpg,AMNE02.jpg,AMSA10.jpg,MS,2,num_6,32,num_2,2.64999472373,,,2017_Sep_13_1410,60.0120301633,MAFE4ImagesEEG,001,101498,
AFNE22.JPG,AFSA24.JPG,AFSA22.JPG,AFNE25.JPG,AFNE24.JPG,AFSA25.JPG,0,7,7,6,,,,,,,,,,,,,,,,,,,,,,,AMNE03.jpg,AMSA16.jpg,AMSA19.jpg,AMNE20.jpg,AMSA16.jpg,MS,2,num_6,32,num_2,1.35033146851,,,2017_Sep_13_1410,60.0120301633,MAFE4ImagesEEG,001,101498,
AFSA21.JPG,AFNE23.JPG,AFNE21.JPG,AFSA25.JPG,AFNE25.JPG,AFSA23.JPG,0,8,8,4,,,,,,,,,,,,,,,,,,,,,,,AMNE05.jpg,AMSA07.jpg,AMSA16.jpg,AMNE02.jpg,AMNE02.jpg,MN,1,num_4,16,num_4,1.15010040766,,,2017_Sep_13_1410,60.0120301633,MAFE4ImagesEEG,001,101498,
AMSA21.JPG,AMNE22.JPG,AMNE21.JPG,AMSA23.JPG,AMSA22.JPG,AMNE23.JPG,0,9,9,1,,,,,,,,,,,,,,,,,,,,,,,AMNE16.jpg,AMSA19.jpg,AMNE04.jpg,AMSA11.jpg,AMNE04.jpg,MN,1,num_2,32,num_6,1.76670484548,,,2017_Sep_13_1410,60.0120301633,MAFE4ImagesEEG,001,101498,
AMNE23.JPG,AMNE24.JPG,AMNE22.JPG,AMSA24.JPG,AMSA22.JPG,AMSA23.JPG,,,,,0,0,0,9,,,,,,,,,,,,,,,,,,,AFSA05.jpg,AFSA14.jpg,AFNE16.jpg,AFNE03.jpg,AFSA05.jpg,FS,4,num_8,16,num_8,1.8166716008,,,2017_Sep_13_1410,60.0120301633,MAFE4ImagesEEG,001,101498,
AFSA25.JPG,AFNE24.JPG,AFSA24.JPG,AFNE21.JPG,AFSA21.JPG,AFNE25.JPG,,,,,0,1,1,2,,,,,,,,,,,,,,,,,,,AFSA17.jpg,AFSA19.jpg,AFNE19.jpg,AFNE05.jpg,AFNE19.jpg,FN,3,num_2,32,num_4,2.53335997625,,,2017_Sep_13_1410,60.0120301633,MAFE4ImagesEEG,001,101498,
AFSA21.JPG,AFNE22.JPG,AFNE21.JPG,AFSA23.JPG,AFSA22.JPG,AFNE23.JPG,,,,,0,2,2,0,,,,,,,,,,,,,,,,,,,AFNE02.jpg,AFSA05.jpg,AFSA17.jpg,AFNE10.jpg,AFSA17.jpg,FS,4,num_2,32,num_6,1.85004969849,,,2017_Sep_13_1410,60.0120301633,MAFE4ImagesEEG,001,101498,
AFNE22.JPG,AFSA24.JPG,AFSA22.JPG,AFNE25.JPG,AFNE24.JPG,AFSA25.JPG,,,,,0,3,3,6,,,,,,,,,,,,,,,,,,,AFNE05.jpg,AFSA01.jpg,AFSA10.jpg,AFNE10.jpg,AFNE05.jpg,FN,3,num_8,16,num_8,1.93336119479,,,2017_Sep_13_1410,60.0120301633,MAFE4ImagesEEG,001,101498,
AMNE22.JPG,AMSA24.JPG,AMSA22.JPG,AMNE25.JPG,AMNE24.JPG,AMSA25.JPG,,,,,0,4,4,7,,,,,,,,,,,,,,,,,,,AFSA20.jpg,AFNE18.jpg,AFSA12.jpg,AFNE17.jpg,AFSA12.jpg,FS,4,num_2,16,num_2,1.58343963162,,,2017_Sep_13_1410,60.0120301633,MAFE4ImagesEEG,001,101498,
AFNE23.JPG,AFNE24.JPG,AFNE22.JPG,AFSA24.JPG,AFSA22.JPG,AFSA23.JPG,,,,,0,5,5,8,,,,,,,,,,,,,,,,,,,AFSA10.jpg,AFNE20.jpg,AFNE11.jpg,AFSA16.jpg,AFNE20.jpg,FN,3,num_6,32,num_4,1.33341276972,,,2017_Sep_13_1410,60.0120301633,MAFE4ImagesEEG,001,101498,
AMSA21.JPG,AMNE22.JPG,AMNE21.JPG,AMSA23.JPG,AMSA22.JPG,AMNE23.JPG,,,,,0,6,6,1,,,,,,,,,,,,,,,,,,,AFSA05.jpg,AFSA07.jpg,AFNE07.jpg,AFNE09.jpg,AFSA05.jpg,FS,4,num_8,16,num_8,0.933766609989,,,2017_Sep_13_1410,60.0120301633,MAFE4ImagesEEG,001,101498,
AFSA21.JPG,AFNE23.JPG,AFNE21.JPG,AFSA25.JPG,AFNE25.JPG,AFSA23.JPG,,,,,0,7,7,4,,,,,,,,,,,,,,,,,,,AFNE12.jpg,AFSA18.jpg,AFSA11.jpg,AFNE07.jpg,AFNE07.jpg,FN,3,num_4,32,num_6,1.56670535868,,,2017_Sep_13_1410,60.0120301633,MAFE4ImagesEEG,001,101498,
AMSA21.JPG,AMNE23.JPG,AMNE21.JPG,AMSA25.JPG,AMNE25.JPG,AMSA23.JPG,,,,,0,8,8,5,,,,,,,,,,,,,,,,,,,AFNE02.jpg,AFSA03.jpg,AFSA12.jpg,AFNE12.jpg,AFSA03.jpg,FS,4,num_6,32,num_4,1.60006485367,,,2017_Sep_13_1410,60.0120301633,MAFE4ImagesEEG,001,101498,
AMSA25.JPG,AMNE24.JPG,AMSA24.JPG,AMNE26.JPG,AMSA21.JPG,AMNE25.JPG,,,,,0,9,9,3,,,,,,,,,,,,,,,,,,,AFNE16.jpg,AFSA03.jpg,AFNE17.jpg,AFSA07.jpg,AFNE17.jpg,FN,3,num_2,16,num_2,2.36668534437,,,2017_Sep_13_1410,60.0120301633,MAFE4ImagesEEG,001,101498,
AFSA21.JPG,AFNE23.JPG,AFNE21.JPG,AFSA25.JPG,AFNE25.JPG,AFSA23.JPG,,,,,,,,,0,0,0,4,,,,,,,,,,,,,,,AMSA13.jpg,AMSA15.jpg,AMNE06.jpg,AMNE01.jpg,AMSA15.jpg,MS,2,num_6,16,num_6,1.05012712535,,,2017_Sep_13_1410,60.0120301633,MAFE4ImagesEEG,001,101498,
AMNE23.JPG,AMNE24.JPG,AMNE22.JPG,AMSA24.JPG,AMSA22.JPG,AMSA23.JPG,,,,,,,,,0,1,1,9,,,,,,,,,,,,,,,AMSA17.jpg,AMNE09.jpg,AMNE11.jpg,AMSA01.jpg,AMNE11.jpg,MN,1,num_2,32,num_8,1.40008076234,,,2017_Sep_13_1410,60.0120301633,MAFE4ImagesEEG,001,101498,
AMSA21.JPG,AMNE23.JPG,AMNE21.JPG,AMSA25.JPG,AMNE25.JPG,AMSA23.JPG,,,,,,,,,0,2,2,5,,,,,,,,,,,,,,,AMSA17.jpg,AMNE17.jpg,AMSA11.jpg,AMNE14.jpg,AMSA17.jpg,MS,2,num_8,32,num_6,0.916825459572,,,2017_Sep_13_1410,60.0120301633,MAFE4ImagesEEG,001,101498,
AFNE23.JPG,AFNE24.JPG,AFNE22.JPG,AFSA24.JPG,AFSA22.JPG,AFSA23.JPG,,,,,,,,,0,3,3,8,,,,,,,,,,,,,,,AMNE17.jpg,AMSA19.jpg,AMSA07.jpg,AMNE02.jpg,AMSA07.jpg,MS,2,num_2,32,num_4,1.41668128711,,,2017_Sep_13_1410,60.0120301633,MAFE4ImagesEEG,001,101498,
AFSA25.JPG,AFNE24.JPG,AFSA24.JPG,AFNE21.JPG,AFSA21.JPG,AFNE25.JPG,,,,,,,,,0,4,4,2,,,,,,,,,,,,,,,AMNE19.jpg,AMSA05.jpg,AMSA06.jpg,AMNE13.jpg,AMSA05.jpg,MS,2,num_6,16,num_6,1.05015278445,,,2017_Sep_13_1410,60.0120301633,MAFE4ImagesEEG,001,101498,
AFNE22.JPG,AFSA24.JPG,AFSA22.JPG,AFNE25.JPG,AFNE24.JPG,AFSA25.JPG,,,,,,,,,0,5,5,6,,,,,,,,,,,,,,,AMSA15.jpg,AMSA16.jpg,AMNE07.jpg,AMNE06.jpg,AMSA15.jpg,MS,2,num_8,16,num_8,1.18342718715,,,2017_Sep_13_1410,60.0120301633,MAFE4ImagesEEG,001,101498,
AFSA21.JPG,AFNE22.JPG,AFNE21.JPG,AFSA23.JPG,AFSA22.JPG,AFNE23.JPG,,,,,,,,,0,6,6,0,,,,,,,,,,,,,,,AMSA13.jpg,AMNE19.jpg,AMSA16.jpg,AMNE12.jpg,AMSA13.jpg,MS,2,num_8,16,num_8,1.15011035046,,,2017_Sep_13_1410,60.0120301633,MAFE4ImagesEEG,001,101498,
AMNE22.JPG,AMSA24.JPG,AMSA22.JPG,AMNE25.JPG,AMNE24.JPG,AMSA25.JPG,,,,,,,,,0,7,7,7,,,,,,,,,,,,,,,AMSA18.jpg,AMNE20.jpg,AMSA16.jpg,AMNE11.jpg,AMSA18.jpg,MS,2,num_8,16,num_8,1.0003913024,,,2017_Sep_13_1410,60.0120301633,MAFE4ImagesEEG,001,101498,
AMSA21.JPG,AMNE22.JPG,AMNE21.JPG,AMSA23.JPG,AMSA22.JPG,AMNE23.JPG,,,,,,,,,0,8,8,1,,,,,,,,,,,,,,,AMSA02.jpg,AMNE12.jpg,AMNE05.jpg,AMSA04.jpg,AMNE12.jpg,MN,1,num_6,16,num_6,0.916763877496,,,2017_Sep_13_1410,60.0120301633,MAFE4ImagesEEG,001,101498,
AMSA25.JPG,AMNE24.JPG,AMSA24.JPG,AMNE26.JPG,AMSA21.JPG,AMNE25.JPG,,,,,,,,,0,9,9,3,,,,,,,,,,,,,,,AMNE01.jpg,AMSA05.jpg,AMSA11.jpg,AMNE08.jpg,AMNE01.jpg,MN,1,num_8,32,num_4,1.61670290492,,,2017_Sep_13_1410,60.0120301633,MAFE4ImagesEEG,001,101498,
AMNE23.JPG,AMNE24.JPG,AMNE22.JPG,AMSA24.JPG,AMSA22.JPG,AMSA23.JPG,,,,,,,,,,,,,0,0,0,9,,,,,,,,,,,AFNE14.jpg,AFNE06.jpg,AFSA05.jpg,AFSA09.jpg,AFNE06.jpg,FN,3,num_6,32,num_8,0.916881588986,,,2017_Sep_13_1410,60.0120301633,MAFE4ImagesEEG,001,101498,
AFSA21.JPG,AFNE22.JPG,AFNE21.JPG,AFSA23.JPG,AFSA22.JPG,AFNE23.JPG,,,,,,,,,,,,,0,1,1,0,,,,,,,,,,,AFSA17.jpg,AFSA06.jpg,AFNE05.jpg,AFNE02.jpg,AFNE05.jpg,FN,3,num_2,32,num_6,1.03347271611,,,2017_Sep_13_1410,60.0120301633,MAFE4ImagesEEG,001,101498,
AMSA21.JPG,AMNE23.JPG,AMNE21.JPG,AMSA25.JPG,AMNE25.JPG,AMSA23.JPG,,,,,,,,,,,,,0,2,2,5,,,,,,,,,,,AFSA01.jpg,AFSA18.jpg,AFNE18.jpg,AFNE11.jpg,AFNE18.jpg,FN,3,num_2,16,num_2,0.766778294696,,,2017_Sep_13_1410,60.0120301633,MAFE4ImagesEEG,001,101498,
AMSA21.JPG,AMNE22.JPG,AMNE21.JPG,AMSA23.JPG,AMSA22.JPG,AMNE23.JPG,,,,,,,,,,,,,0,3,3,1,,,,,,,,,,,AFSA19.jpg,AFNE03.jpg,AFSA01.jpg,AFNE20.jpg,AFNE20.jpg,FN,3,num_4,16,num_4,1.63349811872,,,2017_Sep_13_1410,60.0120301633,MAFE4ImagesEEG,001,101498,
AMNE22.JPG,AMSA24.JPG,AMSA22.JPG,AMNE25.JPG,AMNE24.JPG,AMSA25.JPG,,,,,,,,,,,,,0,4,4,7,,,,,,,,,,,AFSA09.jpg,AFNE05.jpg,AFNE15.jpg,AFSA16.jpg,AFNE15.jpg,FN,3,num_2,16,num_2,2.10006437241,,,2017_Sep_13_1410,60.0120301633,MAFE4ImagesEEG,001,101498,
AFNE22.JPG,AFSA24.JPG,AFSA22.JPG,AFNE25.JPG,AFNE24.JPG,AFSA25.JPG,,,,,,,,,,,,,0,5,5,6,,,,,,,,,,,AFSA05.jpg,AFNE20.jpg,AFSA16.jpg,AFNE16.jpg,AFNE20.jpg,FN,3,num_6,16,num_6,1.00004329975,,,2017_Sep_13_1410,60.0120301633,MAFE4ImagesEEG,001,101498,
AFNE23.JPG,AFNE24.JPG,AFNE22.JPG,AFSA24.JPG,AFSA22.JPG,AFSA23.JPG,,,,,,,,,,,,,0,6,6,8,,,,,,,,,,,AFNE16.jpg,AFSA11.jpg,AFNE15.jpg,AFSA10.jpg,AFSA11.jpg,FS,4,num_6,16,num_6,1.16678368323,,,2017_Sep_13_1410,60.0120301633,MAFE4ImagesEEG,001,101498,
AFSA21.JPG,AFNE23.JPG,AFNE21.JPG,AFSA25.JPG,AFNE25.JPG,AFSA23.JPG,,,,,,,,,,,,,0,7,7,4,,,,,,,,,,,AFSA02.jpg,AFNE18.jpg,AFSA08.jpg,AFNE16.jpg,AFNE16.jpg,FN,3,num_4,32,num_2,1.38343757926,,,2017_Sep_13_1410,60.0120301633,MAFE4ImagesEEG,001,101498,
AMSA25.JPG,AMNE24.JPG,AMSA24.JPG,AMNE26.JPG,AMSA21.JPG,AMNE25.JPG,,,,,,,,,,,,,0,8,8,3,,,,,,,,,,,AFSA15.jpg,AFNE05.jpg,AFSA05.jpg,AFNE13.jpg,AFSA15.jpg,FS,4,num_8,32,num_4,1.15010618092,,,2017_Sep_13_1410,60.0120301633,MAFE4ImagesEEG,001,101498,
AFSA25.JPG,AFNE24.JPG,AFSA24.JPG,AFNE21.JPG,AFSA21.JPG,AFNE25.JPG,,,,,,,,,,,,,0,9,9,2,,,,,,,,,,,AFSA18.jpg,AFNE03.jpg,AFSA07.jpg,AFNE14.jpg,AFNE14.jpg,FN,3,num_4,16,num_4,0.983436680865,,,2017_Sep_13_1410,60.0120301633,MAFE4ImagesEEG,001,101498,
AMSA21.JPG,AMNE23.JPG,AMNE21.JPG,AMSA25.JPG,AMNE25.JPG,AMSA23.JPG,,,,,,,,,,,,,,,,,0,0,0,5,,,,,,,AMSA02.jpg,AMSA16.jpg,AMNE12.jpg,AMNE14.jpg,AMSA02.jpg,MS,2,num_8,16,num_8,0.850161636714,,,2017_Sep_13_1410,60.0120301633,MAFE4ImagesEEG,001,101498,
AFSA25.JPG,AFNE24.JPG,AFSA24.JPG,AFNE21.JPG,AFSA21.JPG,AFNE25.JPG,,,,,,,,,,,,,,,,,0,1,1,2,,,,,,,AMNE12.jpg,AMSA08.jpg,AMNE01.jpg,AMSA18.jpg,AMNE12.jpg,MN,1,num_8,32,num_6,1.11662191804,,,2017_Sep_13_1410,60.0120301633,MAFE4ImagesEEG,001,101498,
AMNE23.JPG,AMNE24.JPG,AMNE22.JPG,AMSA24.JPG,AMSA22.JPG,AMSA23.JPG,,,,,,,,,,,,,,,,,0,2,2,9,,,,,,,AMSA03.jpg,AMNE07.jpg,AMSA05.jpg,AMNE12.jpg,AMNE07.jpg,MN,1,num_6,16,num_6,0.816762049217,,,2017_Sep_13_1410,60.0120301633,MAFE4ImagesEEG,001,101498,
AMNE22.JPG,AMSA24.JPG,AMSA22.JPG,AMNE25.JPG,AMNE24.JPG,AMSA25.JPG,,,,,,,,,,,,,,,,,0,3,3,7,,,,,,,AMSA12.jpg,AMNE15.jpg,AMSA04.jpg,AMNE11.jpg,AMSA12.jpg,MS,2,num_8,32,num_2,1.40014298563,,,2017_Sep_13_1410,60.0120301633,MAFE4ImagesEEG,001,101498,
AFSA21.JPG,AFNE23.JPG,AFNE21.JPG,AFSA25.JPG,AFNE25.JPG,AFSA23.JPG,,,,,,,,,,,,,,,,,0,4,4,4,,,,,,,AMSA05.jpg,AMNE15.jpg,AMNE19.jpg,AMSA09.jpg,AMNE19.jpg,MN,1,num_2,16,num_2,0.983497300651,,,2017_Sep_13_1410,60.0120301633,MAFE4ImagesEEG,001,101498,
AMSA25.JPG,AMNE24.JPG,AMSA24.JPG,AMNE26.JPG,AMSA21.JPG,AMNE25.JPG,,,,,,,,,,,,,,,,,0,5,5,3,,,,,,,AMNE18.jpg,AMSA07.jpg,AMSA17.jpg,AMNE15.jpg,AMNE18.jpg,MN,1,num_8,16,num_8,1.53304565116,,,2017_Sep_13_1410,60.0120301633,MAFE4ImagesEEG,001,101498,
AFNE23.JPG,AFNE24.JPG,AFNE22.JPG,AFSA24.JPG,AFSA22.JPG,AFSA23.JPG,,,,,,,,,,,,,,,,,0,6,6,8,,,,,,,AMSA11.jpg,AMNE18.jpg,AMNE02.jpg,AMSA06.jpg,AMNE02.jpg,MN,1,num_2,16,num_2,1.9000401888,,,2017_Sep_13_1410,60.0120301633,MAFE4ImagesEEG,001,101498,
AFNE22.JPG,AFSA24.JPG,AFSA22.JPG,AFNE25.JPG,AFNE24.JPG,AFSA25.JPG,,,,,,,,,,,,,,,,,0,7,7,6,,,,,,,AMNE19.jpg,AMSA09.jpg,AMSA10.jpg,AMNE08.jpg,AMSA10.jpg,MS,2,num_2,32,num_6,0.98343892605,,,2017_Sep_13_1410,60.0120301633,MAFE4ImagesEEG,001,101498,
AMSA21.JPG,AMNE22.JPG,AMNE21.JPG,AMSA23.JPG,AMSA22.JPG,AMNE23.JPG,,,,,,,,,,,,,,,,,0,8,8,1,,,,,,,AMSA16.jpg,AMNE11.jpg,AMNE16.jpg,AMSA13.jpg,AMNE11.jpg,MN,1,num_6,16,num_6,1.73356409487,,,2017_Sep_13_1410,60.0120301633,MAFE4ImagesEEG,001,101498,
AFSA21.JPG,AFNE22.JPG,AFNE21.JPG,AFSA23.JPG,AFSA22.JPG,AFNE23.JPG,,,,,,,,,,,,,,,,,0,9,9,0,,,,,,,AMSA20.jpg,AMSA07.jpg,AMNE15.jpg,AMNE14.jpg,AMSA20.jpg,MS,2,num_8,16,num_8,0.850000304636,,,2017_Sep_13_1410,60.0120301633,MAFE4ImagesEEG,001,101498,
AFNE23.JPG,AFNE24.JPG,AFNE22.JPG,AFSA24.JPG,AFSA22.JPG,AFSA23.JPG,,,,,,,,,,,,,,,,,,,,,0,0,0,8,,,AFNE11.jpg,AFSA18.jpg,AFNE17.jpg,AFSA02.jpg,AFNE17.jpg,FN,3,num_2,16,num_2,1.5500406858,,,2017_Sep_13_1410,60.0120301633,MAFE4ImagesEEG,001,101498,
AMNE23.JPG,AMNE24.JPG,AMNE22.JPG,AMSA24.JPG,AMSA22.JPG,AMSA23.JPG,,,,,,,,,,,,,,,,,,,,,0,1,1,9,,,AFSA05.jpg,AFNE04.jpg,AFSA03.jpg,AFNE07.jpg,AFNE07.jpg,FN,3,num_4,16,num_4,0.900105940178,,,2017_Sep_13_1410,60.0120301633,MAFE4ImagesEEG,001,101498,
AMNE22.JPG,AMSA24.JPG,AMSA22.JPG,AMNE25.JPG,AMNE24.JPG,AMSA25.JPG,,,,,,,,,,,,,,,,,,,,,0,2,2,7,,,AFSA08.jpg,AFNE14.jpg,AFNE09.jpg,AFSA12.jpg,AFSA12.jpg,FS,4,num_4,16,num_4,0.766742692795,,,2017_Sep_13_1410,60.0120301633,MAFE4ImagesEEG,001,101498,
AFNE22.JPG,AFSA24.JPG,AFSA22.JPG,AFNE25.JPG,AFNE24.JPG,AFSA25.JPG,,,,,,,,,,,,,,,,,,,,,0,3,3,6,,,AFNE20.jpg,AFSA18.jpg,AFSA05.jpg,AFNE13.jpg,AFSA05.jpg,FS,4,num_2,16,num_2,0.683495344361,,,2017_Sep_13_1410,60.0120301633,MAFE4ImagesEEG,001,101498,
AFSA21.JPG,AFNE23.JPG,AFNE21.JPG,AFSA25.JPG,AFNE25.JPG,AFSA23.JPG,,,,,,,,,,,,,,,,,,,,,0,4,4,4,,,AFSA05.jpg,AFSA02.jpg,AFNE06.jpg,AFNE09.jpg,AFSA05.jpg,FS,4,num_8,16,num_8,0.833469380392,,,2017_Sep_13_1410,60.0120301633,MAFE4ImagesEEG,001,101498,
AMSA21.JPG,AMNE22.JPG,AMNE21.JPG,AMSA23.JPG,AMSA22.JPG,AMNE23.JPG,,,,,,,,,,,,,,,,,,,,,0,5,5,1,,,AFNE20.jpg,AFSA06.jpg,AFSA16.jpg,AFNE12.jpg,AFSA16.jpg,FS,4,num_2,32,num_6,1.80006081215,,,2017_Sep_13_1410,60.0120301633,MAFE4ImagesEEG,001,101498,
AMSA21.JPG,AMNE23.JPG,AMNE21.JPG,AMSA25.JPG,AMNE25.JPG,AMSA23.JPG,,,,,,,,,,,,,,,,,,,,,0,6,6,5,,,AFNE14.jpg,AFSA14.jpg,AFNE03.jpg,AFSA07.jpg,AFSA07.jpg,FS,4,num_4,32,num_2,1.98340428644,,,2017_Sep_13_1410,60.0120301633,MAFE4ImagesEEG,001,101498,
AFSA25.JPG,AFNE24.JPG,AFSA24.JPG,AFNE21.JPG,AFSA21.JPG,AFNE25.JPG,,,,,,,,,,,,,,,,,,,,,0,7,7,2,,,AFSA10.jpg,AFNE16.jpg,AFSA16.jpg,AFNE11.jpg,AFSA16.jpg,FS,4,num_2,16,num_2,1.18345637457,,,2017_Sep_13_1410,60.0120301633,MAFE4ImagesEEG,001,101498,
AMSA25.JPG,AMNE24.JPG,AMSA24.JPG,AMNE26.JPG,AMSA21.JPG,AMNE25.JPG,,,,,,,,,,,,,,,,,,,,,0,8,8,3,,,AFNE17.jpg,AFSA06.jpg,AFSA19.jpg,AFNE18.jpg,AFSA06.jpg,FS,4,num_6,32,num_8,1.00041856547,,,2017_Sep_13_1410,60.0120301633,MAFE4ImagesEEG,001,101498,
AFSA21.JPG,AFNE22.JPG,AFNE21.JPG,AFSA23.JPG,AFSA22.JPG,AFNE23.JPG,,,,,,,,,,,,,,,,,,,,,0,9,9,0,,,AFNE09.jpg,AFSA17.jpg,AFNE20.jpg,AFSA15.jpg,AFNE09.jpg,FN,3,num_8,16,num_8,1.68342670589,,,2017_Sep_13_1410,60.0120301633,MAFE4ImagesEEG,001,101498,
,,,,,,,,,,,,,,,,,,,,,,,,,,,,,,,,,,,,,,,,,,,space,5.66638099449,2017_Sep_13_1410,60.0120301633,MAFE4ImagesEEG,001,101498,
AFNE01.JPG,AFNE01.JPG,AFNE01.JPG,AFNE01.JPG,AFNE01.JPG,AFNE01.JPG,0,0,0,6,,,,,,,,,,,,,,,,,,,,,,,AMSA14.jpg,AMNE12.jpg,AMSA08.jpg,AMNE15.jpg,AMSA14.jpg,MS,2,num_8,32,num_4,1.8667085981,,,2017_Sep_13_1410,60.0120301633,MAFE4ImagesEEG,001,101498,
AFNE01.JPG,AFNE01.JPG,AFNE01.JPG,AFNE01.JPG,AFNE01.JPG,AFNE01.JPG,0,1,1,2,,,,,,,,,,,,,,,,,,,,,,,AMNE06.jpg,AMNE16.jpg,AMSA20.jpg,AMSA06.jpg,AMSA06.jpg,MS,2,num_4,16,num_4,2.60002155369,,,2017_Sep_13_1410,60.0120301633,MAFE4ImagesEEG,001,101498,
AFNE01.JPG,AFNE01.JPG,AFNE01.JPG,AFNE01.JPG,AFNE01.JPG,AFNE01.JPG,0,2,2,0,,,,,,,,,,,,,,,,,,,,,,,AMNE17.jpg,AMSA05.jpg,AMNE09.jpg,AMSA10.jpg,AMSA10.jpg,MS,2,num_4,32,num_6,1.41674318979,,,2017_Sep_13_1410,60.0120301633,MAFE4ImagesEEG,001,101498,
AFNE01.JPG,AFNE01.JPG,AFNE01.JPG,AFNE01.JPG,AFNE01.JPG,AFNE01.JPG,0,3,3,1,,,,,,,,,,,,,,,,,,,,,,,AMSA09.jpg,AMNE01.jpg,AMNE19.jpg,AMSA17.jpg,AMNE01.jpg,MN,1,num_6,32,num_8,2.45001961314,,,2017_Sep_13_1410,60.0120301633,MAFE4ImagesEEG,001,101498,
AFNE01.JPG,AFNE01.JPG,AFNE01.JPG,AFNE01.JPG,AFNE01.JPG,AFNE01.JPG,0,4,4,3,,,,,,,,,,,,,,,,,,,,,,,AMNE07.jpg,AMNE20.jpg,AMSA05.jpg,AMSA02.jpg,AMNE07.jpg,MN,1,num_8,32,num_2,1.7997682977,,,2017_Sep_13_1410,60.0120301633,MAFE4ImagesEEG,001,101498,
AFNE01.JPG,AFNE01.JPG,AFNE01.JPG,AFNE01.JPG,AFNE01.JPG,AFNE01.JPG,0,5,5,7,,,,,,,,,,,,,,,,,,,,,,,AMNE05.jpg,AMSA07.jpg,AMSA09.jpg,AMNE03.jpg,AMNE03.jpg,MN,1,num_4,16,num_4,1.60014600074,,,2017_Sep_13_1410,60.0120301633,MAFE4ImagesEEG,001,101498,
AFNE01.JPG,AFNE01.JPG,AFNE01.JPG,AFNE01.JPG,AFNE01.JPG,AFNE01.JPG,0,6,6,9,,,,,,,,,,,,,,,,,,,,,,,AMNE20.jpg,AMNE06.jpg,AMSA11.jpg,AMSA20.jpg,AMSA20.jpg,MS,2,num_4,16,num_4,0.933430795325,,,2017_Sep_13_1410,60.0120301633,MAFE4ImagesEEG,001,101498,
AFNE01.JPG,AFNE01.JPG,AFNE01.JPG,AFNE01.JPG,AFNE01.JPG,AFNE01.JPG,0,7,7,5,,,,,,,,,,,,,,,,,,,,,,,AMSA14.jpg,AMSA03.jpg,AMNE15.jpg,AMNE11.jpg,AMSA03.jpg,MS,2,num_6,32,num_4,2.75023871055,,,2017_Sep_13_1410,60.0120301633,MAFE4ImagesEEG,001,101498,
AFNE01.JPG,AFNE01.JPG,AFNE01.JPG,AFNE01.JPG,AFNE01.JPG,AFNE01.JPG,0,8,8,4,,,,,,,,,,,,,,,,,,,,,,,AMNE09.jpg,AMSA10.jpg,AMSA19.jpg,AMNE11.jpg,AMSA10.jpg,MS,2,num_6,16,num_6,1.36672704061,,,2017_Sep_13_1410,60.0120301633,MAFE4ImagesEEG,001,101498,
AFNE01.JPG,AFNE01.JPG,AFNE01.JPG,AFNE01.JPG,AFNE01.JPG,AFNE01.JPG,0,9,9,8,,,,,,,,,,,,,,,,,,,,,,,AMSA11.jpg,AMNE19.jpg,AMSA06.jpg,AMNE10.jpg,AMSA06.jpg,MS,2,num_2,32,num_8,1.81667512865,,,2017_Sep_13_1410,60.0120301633,MAFE4ImagesEEG,001,101498,
AFNE01.JPG,AFNE01.JPG,AFNE01.JPG,AFNE01.JPG,AFNE01.JPG,AFNE01.JPG,1,0,10,9,,,,,,,,,,,,,,,,,,,,,,,AMNE04.jpg,AMSA04.jpg,AMSA18.jpg,AMNE11.jpg,AMNE04.jpg,MN,1,num_8,32,num_4,1.31660793372,,,2017_Sep_13_1410,60.0120301633,MAFE4ImagesEEG,001,101498,
AFNE01.JPG,AFNE01.JPG,AFNE01.JPG,AFNE01.JPG,AFNE01.JPG,AFNE01.JPG,1,1,11,3,,,,,,,,,,,,,,,,,,,,,,,AMNE07.jpg,AMSA15.jpg,AMNE17.jpg,AMSA01.jpg,AMNE17.jpg,MN,1,num_2,32,num_8,2.15006159805,,,2017_Sep_13_1410,60.0120301633,MAFE4ImagesEEG,001,101498,
AFNE01.JPG,AFNE01.JPG,AFNE01.JPG,AFNE01.JPG,AFNE01.JPG,AFNE01.JPG,1,2,12,7,,,,,,,,,,,,,,,,,,,,,,,AMNE09.jpg,AMNE17.jpg,AMSA17.jpg,AMSA01.jpg,AMNE17.jpg,MN,1,num_6,16,num_6,1.31676894519,,,2017_Sep_13_1410,60.0120301633,MAFE4ImagesEEG,001,101498,
AFNE01.JPG,AFNE01.JPG,AFNE01.JPG,AFNE01.JPG,AFNE01.JPG,AFNE01.JPG,1,3,13,6,,,,,,,,,,,,,,,,,,,,,,,AMNE10.jpg,AMNE08.jpg,AMSA05.jpg,AMSA16.jpg,AMSA05.jpg,MS,2,num_2,16,num_2,0.983481905423,,,2017_Sep_13_1410,60.0120301633,MAFE4ImagesEEG,001,101498,
AFNE01.JPG,AFNE01.JPG,AFNE01.JPG,AFNE01.JPG,AFNE01.JPG,AFNE01.JPG,1,4,14,0,,,,,,,,,,,,,,,,,,,,,,,AMSA16.jpg,AMNE08.jpg,AMSA20.jpg,AMNE19.jpg,AMSA16.jpg,MS,2,num_8,32,num_4,2.58335303213,,,2017_Sep_13_1410,60.0120301633,MAFE4ImagesEEG,001,101498,
AFNE01.JPG,AFNE01.JPG,AFNE01.JPG,AFNE01.JPG,AFNE01.JPG,AFNE01.JPG,1,5,15,8,,,,,,,,,,,,,,,,,,,,,,,AMNE12.jpg,AMSA16.jpg,AMSA04.jpg,AMNE16.jpg,AMNE16.jpg,MN,1,num_4,32,num_8,1.0667738365,,,2017_Sep_13_1410,60.0120301633,MAFE4ImagesEEG,001,101498,
AFNE01.JPG,AFNE01.JPG,AFNE01.JPG,AFNE01.JPG,AFNE01.JPG,AFNE01.JPG,1,6,16,2,,,,,,,,,,,,,,,,,,,,,,,AMSA16.jpg,AMNE03.jpg,AMSA11.jpg,AMNE13.jpg,AMSA16.jpg,MS,2,num_8,32,num_2,1.96700807265,,,2017_Sep_13_1410,60.0120301633,MAFE4ImagesEEG,001,101498,
AFNE01.JPG,AFNE01.JPG,AFNE01.JPG,AFNE01.JPG,AFNE01.JPG,AFNE01.JPG,1,7,17,4,,,,,,,,,,,,,,,,,,,,,,,AMNE01.jpg,AMSA20.jpg,AMNE18.jpg,AMSA14.jpg,AMSA20.jpg,MS,2,num_6,16,num_6,1.21677160729,,,2017_Sep_13_1410,60.0120301633,MAFE4ImagesEEG,001,101498,
AFNE01.JPG,AFNE01.JPG,AFNE01.JPG,AFNE01.JPG,AFNE01.JPG,AFNE01.JPG,1,8,18,1,,,,,,,,,,,,,,,,,,,,,,,AMSA20.jpg,AMSA15.jpg,AMNE13.jpg,AMNE05.jpg,AMNE05.jpg,MN,1,num_4,16,num_4,1.4834259362,,,2017_Sep_13_1410,60.0120301633,MAFE4ImagesEEG,001,101498,
AFNE01.JPG,AFNE01.JPG,AFNE01.JPG,AFNE01.JPG,AFNE01.JPG,AFNE01.JPG,1,9,19,5,,,,,,,,,,,,,,,,,,,,,,,AMNE04.jpg,AMSA15.jpg,AMNE08.jpg,AMSA05.jpg,AMNE08.jpg,MN,1,num_2,32,num_8,1.55004228954,,,2017_Sep_13_1410,60.0120301633,MAFE4ImagesEEG,001,101498,
AFNE01.JPG,AFNE01.JPG,AFNE01.JPG,AFNE01.JPG,AFNE01.JPG,AFNE01.JPG,2,0,20,0,,,,,,,,,,,,,,,,,,,,,,,AMNE14.jpg,AMSA10.jpg,AMSA19.jpg,AMNE01.jpg,AMSA19.jpg,MS,2,num_2,16,num_2,1.95005313051,,,2017_Sep_13_1410,60.0120301633,MAFE4ImagesEEG,001,101498,
AFNE01.JPG,AFNE01.JPG,AFNE01.JPG,AFNE01.JPG,AFNE01.JPG,AFNE01.JPG,2,1,21,2,,,,,,,,,,,,,,,,,,,,,,,AMNE18.jpg,AMSA11.jpg,AMSA10.jpg,AMNE17.jpg,AMSA10.jpg,MS,2,num_2,32,num_8,1.36672704061,,,2017_Sep_13_1410,60.0120301633,MAFE4ImagesEEG,001,101498,
AFNE01.JPG,AFNE01.JPG,AFNE01.JPG,AFNE01.JPG,AFNE01.JPG,AFNE01.JPG,2,2,22,9,,,,,,,,,,,,,,,,,,,,,,,AMSA03.jpg,AMSA02.jpg,AMNE16.jpg,AMNE08.jpg,AMNE16.jpg,MN,1,num_2,32,num_4,1.50005981815,,,2017_Sep_13_1410,60.0120301633,MAFE4ImagesEEG,001,101498,
AFNE01.JPG,AFNE01.JPG,AFNE01.JPG,AFNE01.JPG,AFNE01.JPG,AFNE01.JPG,2,3,23,1,,,,,,,,,,,,,,,,,,,,,,,AMNE05.jpg,AMSA14.jpg,AMSA01.jpg,AMNE15.jpg,AMNE05.jpg,MN,1,num_8,32,num_2,2.31661146204,,,2017_Sep_13_1410,60.0120301633,MAFE4ImagesEEG,001,101498,
AFNE01.JPG,AFNE01.JPG,AFNE01.JPG,AFNE01.JPG,AFNE01.JPG,AFNE01.JPG,2,4,24,3,,,,,,,,,,,,,,,,,,,,,,,AMSA08.jpg,AMNE04.jpg,AMNE13.jpg,AMSA06.jpg,AMSA06.jpg,MS,2,num_4,16,num_4,1.93336087419,,,2017_Sep_13_1410,60.0120301633,MAFE4ImagesEEG,001,101498,
AFNE01.JPG,AFNE01.JPG,AFNE01.JPG,AFNE01.JPG,AFNE01.JPG,AFNE01.JPG,2,5,25,4,,,,,,,,,,,,,,,,,,,,,,,AMSA13.jpg,AMNE07.jpg,AMSA02.jpg,AMNE06.jpg,AMSA13.jpg,MS,2,num_8,16,num_8,2.53333592066,,,2017_Sep_13_1410,60.0120301633,MAFE4ImagesEEG,001,101498,
AFNE01.JPG,AFNE01.JPG,AFNE01.JPG,AFNE01.JPG,AFNE01.JPG,AFNE01.JPG,2,6,26,5,,,,,,,,,,,,,,,,,,,,,,,AMSA04.jpg,AMNE08.jpg,AMSA09.jpg,AMNE09.jpg,AMSA04.jpg,MS,2,num_8,32,num_4,1.50010953262,,,2017_Sep_13_1410,60.0120301633,MAFE4ImagesEEG,001,101498,
AFNE01.JPG,AFNE01.JPG,AFNE01.JPG,AFNE01.JPG,AFNE01.JPG,AFNE01.JPG,2,7,27,6,,,,,,,,,,,,,,,,,,,,,,,AMSA14.jpg,AMSA04.jpg,AMNE20.jpg,AMNE02.jpg,AMSA04.jpg,MS,2,num_6,16,num_6,0.833445004188,,,2017_Sep_13_1410,60.0120301633,MAFE4ImagesEEG,001,101498,
AFNE01.JPG,AFNE01.JPG,AFNE01.JPG,AFNE01.JPG,AFNE01.JPG,AFNE01.JPG,2,8,28,7,,,,,,,,,,,,,,,,,,,,,,,AMNE01.jpg,AMNE04.jpg,AMSA07.jpg,AMSA20.jpg,AMNE04.jpg,MN,1,num_6,32,num_8,2.10000439407,,,2017_Sep_13_1410,60.0120301633,MAFE4ImagesEEG,001,101498,
AFNE01.JPG,AFNE01.JPG,AFNE01.JPG,AFNE01.JPG,AFNE01.JPG,AFNE01.JPG,2,9,29,8,,,,,,,,,,,,,,,,,,,,,,,AMSA03.jpg,AMNE17.jpg,AMSA13.jpg,AMNE02.jpg,AMSA03.jpg,MS,2,num_8,32,num_4,1.05010467325,,,2017_Sep_13_1410,60.0120301633,MAFE4ImagesEEG,001,101498,
AFNE01.JPG,AFNE01.JPG,AFNE01.JPG,AFNE01.JPG,AFNE01.JPG,AFNE01.JPG,3,0,30,8,,,,,,,,,,,,,,,,,,,,,,,AMSA03.jpg,AMNE08.jpg,AMSA06.jpg,AMNE06.jpg,AMSA06.jpg,MS,2,num_2,32,num_6,2.38337824214,,,2017_Sep_13_1410,60.0120301633,MAFE4ImagesEEG,001,101498,
AFNE01.JPG,AFNE01.JPG,AFNE01.JPG,AFNE01.JPG,AFNE01.JPG,AFNE01.JPG,3,1,31,1,,,,,,,,,,,,,,,,,,,,,,,AMSA18.jpg,AMNE09.jpg,AMNE03.jpg,AMSA15.jpg,AMNE03.jpg,MN,1,num_2,16,num_2,0.916774461977,,,2017_Sep_13_1410,60.0120301633,MAFE4ImagesEEG,001,101498,
AFNE01.JPG,AFNE01.JPG,AFNE01.JPG,AFNE01.JPG,AFNE01.JPG,AFNE01.JPG,3,2,32,5,,,,,,,,,,,,,,,,,,,,,,,AMSA13.jpg,AMNE20.jpg,AMSA08.jpg,AMNE05.jpg,AMSA13.jpg,MS,2,num_8,32,num_4,1.51675913064,,,2017_Sep_13_1410,60.0120301633,MAFE4ImagesEEG,001,101498,
AFNE01.JPG,AFNE01.JPG,AFNE01.JPG,AFNE01.JPG,AFNE01.JPG,AFNE01.JPG,3,3,33,4,,,,,,,,,,,,,,,,,,,,,,,AMSA16.jpg,AMNE20.jpg,AMNE14.jpg,AMSA14.jpg,AMNE14.jpg,MN,1,num_2,32,num_6,1.14983804268,,,2017_Sep_13_1410,60.0120301633,MAFE4ImagesEEG,001,101498,
AFNE01.JPG,AFNE01.JPG,AFNE01.JPG,AFNE01.JPG,AFNE01.JPG,AFNE01.JPG,3,4,34,7,,,,,,,,,,,,,,,,,,,,,,,AMNE04.jpg,AMSA10.jpg,AMNE13.jpg,AMSA08.jpg,AMNE13.jpg,MN,1,num_2,32,num_6,2.1333398337,,,2017_Sep_13_1410,60.0120301633,MAFE4ImagesEEG,001,101498,
AFNE01.JPG,AFNE01.JPG,AFNE01.JPG,AFNE01.JPG,AFNE01.JPG,AFNE01.JPG,3,5,35,2,,,,,,,,,,,,,,,,,,,,,,,AMNE07.jpg,AMNE14.jpg,AMSA12.jpg,AMSA16.jpg,AMNE14.jpg,MN,1,num_6,16,num_6,1.06676742155,,,2017_Sep_13_1410,60.0120301633,MAFE4ImagesEEG,001,101498,
AFNE01.JPG,AFNE01.JPG,AFNE01.JPG,AFNE01.JPG,AFNE01.JPG,AFNE01.JPG,3,6,36,0,,,,,,,,,,,,,,,,,,,,,,,AMSA04.jpg,AMSA03.jpg,AMNE07.jpg,AMNE10.jpg,AMSA04.jpg,MS,2,num_8,32,num_4,2.2166766685,,,2017_Sep_13_1410,60.0120301633,MAFE4ImagesEEG,001,101498,
AFNE01.JPG,AFNE01.JPG,AFNE01.JPG,AFNE01.JPG,AFNE01.JPG,AFNE01.JPG,3,7,37,6,,,,,,,,,,,,,,,,,,,,,,,AMSA08.jpg,AMNE05.jpg,AMNE09.jpg,AMSA05.jpg,AMNE09.jpg,MN,1,num_2,16,num_2,1.68328301469,,,2017_Sep_13_1410,60.0120301633,MAFE4ImagesEEG,001,101498,
AFNE01.JPG,AFNE01.JPG,AFNE01.JPG,AFNE01.JPG,AFNE01.JPG,AFNE01.JPG,3,8,38,3,,,,,,,,,,,,,,,,,,,,,,,AMSA14.jpg,AMSA06.jpg,AMNE17.jpg,AMNE18.jpg,AMNE18.jpg,MN,1,num_4,16,num_4,1.26678519067,,,2017_Sep_13_1410,60.0120301633,MAFE4ImagesEEG,001,101498,
AFNE01.JPG,AFNE01.JPG,AFNE01.JPG,AFNE01.JPG,AFNE01.JPG,AFNE01.JPG,3,9,39,9,,,,,,,,,,,,,,,,,,,,,,,AMNE13.jpg,AMNE17.jpg,AMSA20.jpg,AMSA19.jpg,AMSA20.jpg,MS,2,num_2,16,num_2,1.36675847298,,,2017_Sep_13_1410,60.0120301633,MAFE4ImagesEEG,001,101498,
AFNE01.JPG,AFNE01.JPG,AFNE01.JPG,AFNE01.JPG,AFNE01.JPG,AFNE01.JPG,4,0,40,1,,,,,,,,,,,,,,,,,,,,,,,AMSA05.jpg,AMSA08.jpg,AMNE11.jpg,AMNE15.jpg,AMSA08.jpg,MS,2,num_6,32,num_4,1.68341131043,,,2017_Sep_13_1410,60.0120301633,MAFE4ImagesEEG,001,101498,
AFNE01.JPG,AFNE01.JPG,AFNE01.JPG,AFNE01.JPG,AFNE01.JPG,AFNE01.JPG,4,1,41,0,,,,,,,,,,,,,,,,,,,,,,,AMSA09.jpg,AMNE18.jpg,AMNE03.jpg,AMSA03.jpg,AMNE18.jpg,MN,1,num_6,16,num_6,1.76669105375,,,2017_Sep_13_1410,60.0120301633,MAFE4ImagesEEG,001,101498,
AFNE01.JPG,AFNE01.JPG,AFNE01.JPG,AFNE01.JPG,AFNE01.JPG,AFNE01.JPG,4,2,42,6,,,,,,,,,,,,,,,,,,,,,,,AMNE04.jpg,AMNE17.jpg,AMSA06.jpg,AMSA13.jpg,AMSA13.jpg,MS,2,num_4,32,num_2,1.53340872866,,,2017_Sep_13_1410,60.0120301633,MAFE4ImagesEEG,001,101498,
AFNE01.JPG,AFNE01.JPG,AFNE01.JPG,AFNE01.JPG,AFNE01.JPG,AFNE01.JPG,4,3,43,4,,,,,,,,,,,,,,,,,,,,,,,AMSA03.jpg,AMNE17.jpg,AMSA15.jpg,AMNE16.jpg,AMNE16.jpg,MN,1,num_4,16,num_4,1.83352486836,,,2017_Sep_13_1410,60.0120301633,MAFE4ImagesEEG,001,101498,
AFNE01.JPG,AFNE01.JPG,AFNE01.JPG,AFNE01.JPG,AFNE01.JPG,AFNE01.JPG,4,4,44,2,,,,,,,,,,,,,,,,,,,,,,,AMNE14.jpg,AMSA12.jpg,AMSA05.jpg,AMNE12.jpg,AMSA05.jpg,MS,2,num_2,32,num_6,1.01675447985,,,2017_Sep_13_1410,60.0120301633,MAFE4ImagesEEG,001,101498,
AFNE01.JPG,AFNE01.JPG,AFNE01.JPG,AFNE01.JPG,AFNE01.JPG,AFNE01.JPG,4,5,45,9,,,,,,,,,,,,,,,,,,,,,,,AMNE17.jpg,AMNE12.jpg,AMSA04.jpg,AMSA20.jpg,AMNE12.jpg,MN,1,num_6,16,num_6,1.76675520139,,,2017_Sep_13_1410,60.0120301633,MAFE4ImagesEEG,001,101498,
AFNE01.JPG,AFNE01.JPG,AFNE01.JPG,AFNE01.JPG,AFNE01.JPG,AFNE01.JPG,4,6,46,8,,,,,,,,,,,,,,,,,,,,,,,AMNE02.jpg,AMSA02.jpg,AMNE13.jpg,AMSA05.jpg,AMNE02.jpg,MN,1,num_8,32,num_4,2.04991255049,,,2017_Sep_13_1410,60.0120301633,MAFE4ImagesEEG,001,101498,
AFNE01.JPG,AFNE01.JPG,AFNE01.JPG,AFNE01.JPG,AFNE01.JPG,AFNE01.JPG,4,7,47,7,,,,,,,,,,,,,,,,,,,,,,,AMNE04.jpg,AMSA01.jpg,AMSA17.jpg,AMNE06.jpg,AMNE04.jpg,MN,1,num_8,32,num_6,2.40000346396,,,2017_Sep_13_1410,60.0120301633,MAFE4ImagesEEG,001,101498,
AFNE01.JPG,AFNE01.JPG,AFNE01.JPG,AFNE01.JPG,AFNE01.JPG,AFNE01.JPG,4,8,48,5,,,,,,,,,,,,,,,,,,,,,,,AMNE16.jpg,AMNE10.jpg,AMSA04.jpg,AMSA17.jpg,AMSA04.jpg,MS,2,num_2,16,num_2,1.00009975,,,2017_Sep_13_1410,60.0120301633,MAFE4ImagesEEG,001,101498,
AFNE01.JPG,AFNE01.JPG,AFNE01.JPG,AFNE01.JPG,AFNE01.JPG,AFNE01.JPG,4,9,49,3,,,,,,,,,,,,,,,,,,,,,,,AMSA11.jpg,AMNE19.jpg,AMNE04.jpg,AMSA01.jpg,AMSA11.jpg,MS,2,num_8,16,num_8,1.08344492386,,,2017_Sep_13_1410,60.0120301633,MAFE4ImagesEEG,001,101498,
AFNE01.JPG,AFNE01.JPG,AFNE01.JPG,AFNE01.JPG,AFNE01.JPG,AFNE01.JPG,5,0,50,0,,,,,,,,,,,,,,,,,,,,,,,AMSA06.jpg,AMNE15.jpg,AMSA01.jpg,AMNE18.jpg,AMNE15.jpg,MN,1,num_6,16,num_6,0.88346596458,,,2017_Sep_13_1410,60.0120301633,MAFE4ImagesEEG,001,101498,
AFNE01.JPG,AFNE01.JPG,AFNE01.JPG,AFNE01.JPG,AFNE01.JPG,AFNE01.JPG,5,1,51,6,,,,,,,,,,,,,,,,,,,,,,,AMSA16.jpg,AMSA09.jpg,AMNE07.jpg,AMNE11.jpg,AMSA09.jpg,MS,2,num_6,32,num_2,1.61653355439,,,2017_Sep_13_1410,60.0120301633,MAFE4ImagesEEG,001,101498,
AFNE01.JPG,AFNE01.JPG,AFNE01.JPG,AFNE01.JPG,AFNE01.JPG,AFNE01.JPG,5,2,52,7,,,,,,,,,,,,,,,,,,,,,,,AMSA10.jpg,AMSA04.jpg,AMNE18.jpg,AMNE13.jpg,AMSA04.jpg,MS,2,num_6,16,num_6,2.66652019555,,,2017_Sep_13_1410,60.0120301633,MAFE4ImagesEEG,001,101498,
AFNE01.JPG,AFNE01.JPG,AFNE01.JPG,AFNE01.JPG,AFNE01.JPG,AFNE01.JPG,5,3,53,1,,,,,,,,,,,,,,,,,,,,,,,AMNE18.jpg,AMSA07.jpg,AMNE09.jpg,AMSA10.jpg,AMNE18.jpg,MN,1,num_8,32,num_6,2.29998078756,,,2017_Sep_13_1410,60.0120301633,MAFE4ImagesEEG,001,101498,
AFNE01.JPG,AFNE01.JPG,AFNE01.JPG,AFNE01.JPG,AFNE01.JPG,AFNE01.JPG,5,4,54,3,,,,,,,,,,,,,,,,,,,,,,,AMSA17.jpg,AMNE05.jpg,AMNE19.jpg,AMSA09.jpg,AMSA09.jpg,MS,2,num_4,16,num_4,1.35010213964,,,2017_Sep_13_1410,60.0120301633,MAFE4ImagesEEG,001,101498,
AFNE01.JPG,AFNE01.JPG,AFNE01.JPG,AFNE01.JPG,AFNE01.JPG,AFNE01.JPG,5,5,55,9,,,,,,,,,,,,,,,,,,,,,,,AMNE07.jpg,AMSA08.jpg,AMSA15.jpg,AMNE01.jpg,AMSA15.jpg,MS,2,num_2,16,num_2,0.966784517048,,,2017_Sep_13_1410,60.0120301633,MAFE4ImagesEEG,001,101498,
AFNE01.JPG,AFNE01.JPG,AFNE01.JPG,AFNE01.JPG,AFNE01.JPG,AFNE01.JPG,5,6,56,2,,,,,,,,,,,,,,,,,,,,,,,AMNE04.jpg,AMSA16.jpg,AMSA13.jpg,AMNE02.jpg,AMSA16.jpg,MS,2,num_6,16,num_6,1.61668013246,,,2017_Sep_13_1410,60.0120301633,MAFE4ImagesEEG,001,101498,
AFNE01.JPG,AFNE01.JPG,AFNE01.JPG,AFNE01.JPG,AFNE01.JPG,AFNE01.JPG,5,7,57,4,,,,,,,,,,,,,,,,,,,,,,,AMSA20.jpg,AMNE11.jpg,AMSA14.jpg,AMNE09.jpg,AMSA14.jpg,MS,2,num_2,16,num_2,0.683461345732,,,2017_Sep_13_1410,60.0120301633,MAFE4ImagesEEG,001,101498,
AFNE01.JPG,AFNE01.JPG,AFNE01.JPG,AFNE01.JPG,AFNE01.JPG,AFNE01.JPG,5,8,58,5,,,,,,,,,,,,,,,,,,,,,,,AMNE17.jpg,AMSA18.jpg,AMSA15.jpg,AMNE07.jpg,AMSA18.jpg,MS,2,num_6,32,num_4,2.58335239068,,,2017_Sep_13_1410,60.0120301633,MAFE4ImagesEEG,001,101498,
AFNE01.JPG,AFNE01.JPG,AFNE01.JPG,AFNE01.JPG,AFNE01.JPG,AFNE01.JPG,5,9,59,8,,,,,,,,,,,,,,,,,,,,,,,AMNE01.jpg,AMSA13.jpg,AMSA04.jpg,AMNE19.jpg,AMSA13.jpg,MS,2,num_6,16,num_6,1.13346780883,,,2017_Sep_13_1410,60.0120301633,MAFE4ImagesEEG,001,101498,
,,,,,,,,,,,,,,,,,,,,,,,,,,,,,,,,,,,,,,,,,,,space,6.6830257813,2017_Sep_13_1410,60.0120301633,MAFE4ImagesEEG,001,101498,
AFNE01.JPG,AFNE01.JPG,AFNE01.JPG,AFNE01.JPG,AFNE01.JPG,AFNE01.JPG,,,,,0,0,0,0,,,,,,,,,,,,,,,,,,,AFNE12.jpg,AFSA05.jpg,AFNE10.jpg,AFSA02.jpg,AFSA02.jpg,FS,4,num_4,16,num_4,1.25011731056,,,2017_Sep_13_1410,60.0120301633,MAFE4ImagesEEG,001,101498,
AFNE01.JPG,AFNE01.JPG,AFNE01.JPG,AFNE01.JPG,AFNE01.JPG,AFNE01.JPG,,,,,0,1,1,8,,,,,,,,,,,,,,,,,,,AFNE02.jpg,AFNE17.jpg,AFSA12.jpg,AFSA06.jpg,AFNE17.jpg,FN,3,num_6,16,num_6,1.69975652639,,,2017_Sep_13_1410,60.0120301633,MAFE4ImagesEEG,001,101498,
AFNE01.JPG,AFNE01.JPG,AFNE01.JPG,AFNE01.JPG,AFNE01.JPG,AFNE01.JPG,,,,,0,2,2,1,,,,,,,,,,,,,,,,,,,AFNE02.jpg,AFNE05.jpg,AFSA12.jpg,AFSA10.jpg,AFSA10.jpg,FS,4,num_4,32,num_8,1.45010974118,,,2017_Sep_13_1410,60.0120301633,MAFE4ImagesEEG,001,101498,
AFNE01.JPG,AFNE01.JPG,AFNE01.JPG,AFNE01.JPG,AFNE01.JPG,AFNE01.JPG,,,,,0,3,3,3,,,,,,,,,,,,,,,,,,,AFNE19.jpg,AFSA14.jpg,AFSA17.jpg,AFNE07.jpg,AFNE07.jpg,FN,3,num_4,16,num_4,1.46673656674,,,2017_Sep_13_1410,60.0120301633,MAFE4ImagesEEG,001,101498,
AFNE01.JPG,AFNE01.JPG,AFNE01.JPG,AFNE01.JPG,AFNE01.JPG,AFNE01.JPG,,,,,0,4,4,5,,,,,,,,,,,,,,,,,,,AFSA05.jpg,AFSA15.jpg,AFNE14.jpg,AFNE04.jpg,AFNE04.jpg,FN,3,num_4,32,num_2,1.26672809897,,,2017_Sep_13_1410,60.0120301633,MAFE4ImagesEEG,001,101498,
AFNE01.JPG,AFNE01.JPG,AFNE01.JPG,AFNE01.JPG,AFNE01.JPG,AFNE01.JPG,,,,,0,5,5,2,,,,,,,,,,,,,,,,,,,AFSA14.jpg,AFSA17.jpg,AFNE15.jpg,AFNE04.jpg,AFNE15.jpg,FN,3,num_2,16,num_2,0.883477190509,,,2017_Sep_13_1410,60.0120301633,MAFE4ImagesEEG,001,101498,
AFNE01.JPG,AFNE01.JPG,AFNE01.JPG,AFNE01.JPG,AFNE01.JPG,AFNE01.JPG,,,,,0,6,6,9,,,,,,,,,,,,,,,,,,,AFNE14.jpg,AFSA11.jpg,AFNE02.jpg,AFSA10.jpg,AFNE02.jpg,FN,3,num_2,32,num_6,1.56670920737,,,2017_Sep_13_1410,60.0120301633,MAFE4ImagesEEG,001,101498,
AFNE01.JPG,AFNE01.JPG,AFNE01.JPG,AFNE01.JPG,AFNE01.JPG,AFNE01.JPG,,,,,0,7,7,6,,,,,,,,,,,,,,,,,,,AFNE13.jpg,AFNE08.jpg,AFSA05.jpg,AFSA16.jpg,AFSA05.jpg,FS,4,num_2,16,num_2,1.400113157,,,2017_Sep_13_1410,60.0120301633,MAFE4ImagesEEG,001,101498,
AFNE01.JPG,AFNE01.JPG,AFNE01.JPG,AFNE01.JPG,AFNE01.JPG,AFNE01.JPG,,,,,0,8,8,7,,,,,,,,,,,,,,,,,,,AFSA04.jpg,AFNE08.jpg,AFNE11.jpg,AFSA18.jpg,AFNE08.jpg,FN,3,num_6,32,num_4,1.88336493168,,,2017_Sep_13_1410,60.0120301633,MAFE4ImagesEEG,001,101498,
AFNE01.JPG,AFNE01.JPG,AFNE01.JPG,AFNE01.JPG,AFNE01.JPG,AFNE01.JPG,,,,,0,9,9,4,,,,,,,,,,,,,,,,,,,AFSA01.jpg,AFSA07.jpg,AFNE18.jpg,AFNE12.jpg,AFNE18.jpg,FN,3,num_2,16,num_2,2.06671385816,,,2017_Sep_13_1410,60.0120301633,MAFE4ImagesEEG,001,101498,
AFNE01.JPG,AFNE01.JPG,AFNE01.JPG,AFNE01.JPG,AFNE01.JPG,AFNE01.JPG,,,,,1,0,10,8,,,,,,,,,,,,,,,,,,,AFSA14.jpg,AFNE13.jpg,AFNE06.jpg,AFSA08.jpg,AFNE06.jpg,FN,3,num_2,32,num_8,2.13339018985,,,2017_Sep_13_1410,60.0120301633,MAFE4ImagesEEG,001,101498,
AFNE01.JPG,AFNE01.JPG,AFNE01.JPG,AFNE01.JPG,AFNE01.JPG,AFNE01.JPG,,,,,1,1,11,3,,,,,,,,,,,,,,,,,,,AFSA16.jpg,AFSA01.jpg,AFNE17.jpg,AFNE14.jpg,AFSA01.jpg,FS,4,num_6,32,num_2,1.45004976285,,,2017_Sep_13_1410,60.0120301633,MAFE4ImagesEEG,001,101498,
AFNE01.JPG,AFNE01.JPG,AFNE01.JPG,AFNE01.JPG,AFNE01.JPG,AFNE01.JPG,,,,,1,2,12,5,,,,,,,,,,,,,,,,,,,AFSA13.jpg,AFSA18.jpg,AFNE16.jpg,AFNE15.jpg,AFSA13.jpg,FS,4,num_8,32,num_2,1.68340232968,,,2017_Sep_13_1410,60.0120301633,MAFE4ImagesEEG,001,101498,
AFNE01.JPG,AFNE01.JPG,AFNE01.JPG,AFNE01.JPG,AFNE01.JPG,AFNE01.JPG,,,,,1,3,13,2,,,,,,,,,,,,,,,,,,,AFSA19.jpg,AFSA14.jpg,AFNE20.jpg,AFNE07.jpg,AFNE07.jpg,FN,3,num_4,16,num_4,1.21678860672,,,2017_Sep_13_1410,60.0120301633,MAFE4ImagesEEG,001,101498,
AFNE01.JPG,AFNE01.JPG,AFNE01.JPG,AFNE01.JPG,AFNE01.JPG,AFNE01.JPG,,,,,1,4,14,7,,,,,,,,,,,,,,,,,,,AFSA02.jpg,AFSA11.jpg,AFNE04.jpg,AFNE18.jpg,AFNE04.jpg,FN,3,num_2,32,num_4,2.41667294782,,,2017_Sep_13_1410,60.0120301633,MAFE4ImagesEEG,001,101498,
AFNE01.JPG,AFNE01.JPG,AFNE01.JPG,AFNE01.JPG,AFNE01.JPG,AFNE01.JPG,,,,,1,5,15,4,,,,,,,,,,,,,,,,,,,AFNE08.jpg,AFNE19.jpg,AFSA15.jpg,AFSA18.jpg,AFSA15.jpg,FS,4,num_2,32,num_6,2.41666492936,,,2017_Sep_13_1410,60.0120301633,MAFE4ImagesEEG,001,101498,
AFNE01.JPG,AFNE01.JPG,AFNE01.JPG,AFNE01.JPG,AFNE01.JPG,AFNE01.JPG,,,,,1,6,16,9,,,,,,,,,,,,,,,,,,,AFNE11.jpg,AFSA01.jpg,AFNE16.jpg,AFSA20.jpg,AFSA20.jpg,FS,4,num_4,32,num_2,3.38323134347,,,2017_Sep_13_1410,60.0120301633,MAFE4ImagesEEG,001,101498,
AFNE01.JPG,AFNE01.JPG,AFNE01.JPG,AFNE01.JPG,AFNE01.JPG,AFNE01.JPG,,,,,1,7,17,1,,,,,,,,,,,,,,,,,,,AFSA05.jpg,AFNE04.jpg,AFNE07.jpg,AFSA16.jpg,AFNE04.jpg,FN,3,num_6,32,num_8,1.53341482254,,,2017_Sep_13_1410,60.0120301633,MAFE4ImagesEEG,001,101498,
AFNE01.JPG,AFNE01.JPG,AFNE01.JPG,AFNE01.JPG,AFNE01.JPG,AFNE01.JPG,,,,,1,8,18,0,,,,,,,,,,,,,,,,,,,AFSA19.jpg,AFNE16.jpg,AFSA02.jpg,AFNE06.jpg,AFSA02.jpg,FS,4,num_2,32,num_6,2.21664042468,,,2017_Sep_13_1410,60.0120301633,MAFE4ImagesEEG,001,101498,
AFNE01.JPG,AFNE01.JPG,AFNE01.JPG,AFNE01.JPG,AFNE01.JPG,AFNE01.JPG,,,,,1,9,19,6,,,,,,,,,,,,,,,,,,,AFNE08.jpg,AFNE07.jpg,AFSA16.jpg,AFSA08.jpg,AFNE08.jpg,FN,3,num_8,32,num_4,1.43342550332,,,2017_Sep_13_1410,60.0120301633,MAFE4ImagesEEG,001,101498,
AFNE01.JPG,AFNE01.JPG,AFNE01.JPG,AFNE01.JPG,AFNE01.JPG,AFNE01.JPG,,,,,2,0,20,6,,,,,,,,,,,,,,,,,,,AFSA04.jpg,AFSA19.jpg,AFNE02.jpg,AFNE07.jpg,AFSA19.jpg,FS,4,num_6,32,num_8,2.01637793146,,,2017_Sep_13_1410,60.0120301633,MAFE4ImagesEEG,001,101498,
AFNE01.JPG,AFNE01.JPG,AFNE01.JPG,AFNE01.JPG,AFNE01.JPG,AFNE01.JPG,,,,,2,1,21,2,,,,,,,,,,,,,,,,,,,AFNE05.jpg,AFSA04.jpg,AFSA01.jpg,AFNE16.jpg,AFNE05.jpg,FN,3,num_8,32,num_4,1.56677175174,,,2017_Sep_13_1410,60.0120301633,MAFE4ImagesEEG,001,101498,
AFNE01.JPG,AFNE01.JPG,AFNE01.JPG,AFNE01.JPG,AFNE01.JPG,AFNE01.JPG,,,,,2,2,22,4,,,,,,,,,,,,,,,,,,,AFSA11.jpg,AFNE20.jpg,AFSA18.jpg,AFNE11.jpg,AFNE20.jpg,FN,3,num_6,32,num_4,2.08367649815,,,2017_Sep_13_1410,60.0120301633,MAFE4ImagesEEG,001,101498,
AFNE01.JPG,AFNE01.JPG,AFNE01.JPG,AFNE01.JPG,AFNE01.JPG,AFNE01.JPG,,,,,2,3,23,3,,,,,,,,,,,,,,,,,,,AFNE07.jpg,AFNE10.jpg,AFSA13.jpg,AFSA19.jpg,AFSA19.jpg,FS,4,num_4,32,num_2,1.50011113635,,,2017_Sep_13_1410,60.0120301633,MAFE4ImagesEEG,001,101498,
AFNE01.JPG,AFNE01.JPG,AFNE01.JPG,AFNE01.JPG,AFNE01.JPG,AFNE01.JPG,,,,,2,4,24,9,,,,,,,,,,,,,,,,,,,AFNE09.jpg,AFSA02.jpg,AFSA09.jpg,AFNE07.jpg,AFSA09.jpg,FS,4,num_2,32,num_6,2.38334584748,,,2017_Sep_13_1410,60.0120301633,MAFE4ImagesEEG,001,101498,
AFNE01.JPG,AFNE01.JPG,AFNE01.JPG,AFNE01.JPG,AFNE01.JPG,AFNE01.JPG,,,,,2,5,25,7,,,,,,,,,,,,,,,,,,,AFNE06.jpg,AFSA14.jpg,AFSA12.jpg,AFNE16.jpg,AFNE16.jpg,FN,3,num_4,16,num_4,2.31663455535,,,2017_Sep_13_1410,60.0120301633,MAFE4ImagesEEG,001,101498,
AFNE01.JPG,AFNE01.JPG,AFNE01.JPG,AFNE01.JPG,AFNE01.JPG,AFNE01.JPG,,,,,2,6,26,0,,,,,,,,,,,,,,,,,,,AFNE13.jpg,AFSA12.jpg,AFNE11.jpg,AFSA09.jpg,AFNE13.jpg,FN,3,num_8,16,num_8,1.88343453221,,,2017_Sep_13_1410,60.0120301633,MAFE4ImagesEEG,001,101498,
AFNE01.JPG,AFNE01.JPG,AFNE01.JPG,AFNE01.JPG,AFNE01.JPG,AFNE01.JPG,,,,,2,7,27,1,,,,,,,,,,,,,,,,,,,AFSA13.jpg,AFSA20.jpg,AFNE17.jpg,AFNE20.jpg,AFNE17.jpg,FN,3,num_2,16,num_2,1.45009787357,,,2017_Sep_13_1410,60.0120301633,MAFE4ImagesEEG,001,101498,
AFNE01.JPG,AFNE01.JPG,AFNE01.JPG,AFNE01.JPG,AFNE01.JPG,AFNE01.JPG,,,,,2,8,28,5,,,,,,,,,,,,,,,,,,,AFSA13.jpg,AFNE20.jpg,AFSA14.jpg,AFNE14.jpg,AFSA14.jpg,FS,4,num_2,32,num_4,1.7167400145,,,2017_Sep_13_1410,60.0120301633,MAFE4ImagesEEG,001,101498,
AFNE01.JPG,AFNE01.JPG,AFNE01.JPG,AFNE01.JPG,AFNE01.JPG,AFNE01.JPG,,,,,2,9,29,8,,,,,,,,,,,,,,,,,,,AFSA02.jpg,AFSA04.jpg,AFNE12.jpg,AFNE02.jpg,AFNE12.jpg,FN,3,num_2,16,num_2,0.783342255279,,,2017_Sep_13_1410,60.0120301633,MAFE4ImagesEEG,001,101498,
AFNE01.JPG,AFNE01.JPG,AFNE01.JPG,AFNE01.JPG,AFNE01.JPG,AFNE01.JPG,,,,,3,0,30,8,,,,,,,,,,,,,,,,,,,AFNE08.jpg,AFSA13.jpg,AFNE12.jpg,AFSA05.jpg,AFSA05.jpg,FS,4,num_4,32,num_8,1.36673826654,,,2017_Sep_13_1410,60.0120301633,MAFE4ImagesEEG,001,101498,
AFNE01.JPG,AFNE01.JPG,AFNE01.JPG,AFNE01.JPG,AFNE01.JPG,AFNE01.JPG,,,,,3,1,31,5,,,,,,,,,,,,,,,,,,,AFSA02.jpg,AFSA13.jpg,AFNE15.jpg,AFNE12.jpg,AFNE15.jpg,FN,3,num_2,16,num_2,1.78340736544,,,2017_Sep_13_1410,60.0120301633,MAFE4ImagesEEG,001,101498,
AFNE01.JPG,AFNE01.JPG,AFNE01.JPG,AFNE01.JPG,AFNE01.JPG,AFNE01.JPG,,,,,3,2,32,9,,,,,,,,,,,,,,,,,,,AFSA03.jpg,AFSA12.jpg,AFNE02.jpg,AFNE01.jpg,AFSA03.jpg,FS,4,num_8,32,num_2,1.28346750396,,,2017_Sep_13_1410,60.0120301633,MAFE4ImagesEEG,001,101498,
AFNE01.JPG,AFNE01.JPG,AFNE01.JPG,AFNE01.JPG,AFNE01.JPG,AFNE01.JPG,,,,,3,3,33,7,,,,,,,,,,,,,,,,,,,AFSA03.jpg,AFNE11.jpg,AFNE03.jpg,AFSA11.jpg,AFNE03.jpg,FN,3,num_2,32,num_8,1.66675112816,,,2017_Sep_13_1410,60.0120301633,MAFE4ImagesEEG,001,101498,
AFNE01.JPG,AFNE01.JPG,AFNE01.JPG,AFNE01.JPG,AFNE01.JPG,AFNE01.JPG,,,,,3,4,34,3,,,,,,,,,,,,,,,,,,,AFNE18.jpg,AFSA20.jpg,AFNE01.jpg,AFSA15.jpg,AFSA15.jpg,FS,4,num_4,16,num_4,1.55008591013,,,2017_Sep_13_1410,60.0120301633,MAFE4ImagesEEG,001,101498,
AFNE01.JPG,AFNE01.JPG,AFNE01.JPG,AFNE01.JPG,AFNE01.JPG,AFNE01.JPG,,,,,3,5,35,2,,,,,,,,,,,,,,,,,,,AFNE09.jpg,AFSA17.jpg,AFNE17.jpg,AFSA12.jpg,AFNE17.jpg,FN,3,num_2,16,num_2,1.76669778908,,,2017_Sep_13_1410,60.0120301633,MAFE4ImagesEEG,001,101498,
AFNE01.JPG,AFNE01.JPG,AFNE01.JPG,AFNE01.JPG,AFNE01.JPG,AFNE01.JPG,,,,,3,6,36,6,,,,,,,,,,,,,,,,,,,AFSA01.jpg,AFNE05.jpg,AFNE11.jpg,AFSA14.jpg,AFNE11.jpg,FN,3,num_2,16,num_2,1.31662140484,,,2017_Sep_13_1410,60.0120301633,MAFE4ImagesEEG,001,101498,
AFNE01.JPG,AFNE01.JPG,AFNE01.JPG,AFNE01.JPG,AFNE01.JPG,AFNE01.JPG,,,,,3,7,37,0,,,,,,,,,,,,,,,,,,,AFSA16.jpg,AFSA02.jpg,AFNE05.jpg,AFNE10.jpg,AFNE05.jpg,FN,3,num_2,32,num_4,1.46673656651,,,2017_Sep_13_1410,60.0120301633,MAFE4ImagesEEG,001,101498,
AFNE01.JPG,AFNE01.JPG,AFNE01.JPG,AFNE01.JPG,AFNE01.JPG,AFNE01.JPG,,,,,3,8,38,4,,,,,,,,,,,,,,,,,,,AFSA10.jpg,AFNE18.jpg,AFSA09.jpg,AFNE20.jpg,AFNE18.jpg,FN,3,num_6,16,num_6,0.833427363541,,,2017_Sep_13_1410,60.0120301633,MAFE4ImagesEEG,001,101498,
AFNE01.JPG,AFNE01.JPG,AFNE01.JPG,AFNE01.JPG,AFNE01.JPG,AFNE01.JPG,,,,,3,9,39,1,,,,,,,,,,,,,,,,,,,AFNE02.jpg,AFNE10.jpg,AFSA13.jpg,AFSA04.jpg,AFSA13.jpg,FS,4,num_2,16,num_2,0.783521869453,,,2017_Sep_13_1410,60.0120301633,MAFE4ImagesEEG,001,101498,
AFNE01.JPG,AFNE01.JPG,AFNE01.JPG,AFNE01.JPG,AFNE01.JPG,AFNE01.JPG,,,,,4,0,40,5,,,,,,,,,,,,,,,,,,,AFSA04.jpg,AFSA03.jpg,AFNE16.jpg,AFNE02.jpg,AFNE02.jpg,FN,3,num_4,16,num_4,1.23341543204,,,2017_Sep_13_1410,60.0120301633,MAFE4ImagesEEG,001,101498,
AFNE01.JPG,AFNE01.JPG,AFNE01.JPG,AFNE01.JPG,AFNE01.JPG,AFNE01.JPG,,,,,4,1,41,4,,,,,,,,,,,,,,,,,,,AFSA01.jpg,AFSA16.jpg,AFNE11.jpg,AFNE13.jpg,AFNE11.jpg,FN,3,num_2,32,num_8,1.2334491096,,,2017_Sep_13_1410,60.0120301633,MAFE4ImagesEEG,001,101498,
AFNE01.JPG,AFNE01.JPG,AFNE01.JPG,AFNE01.JPG,AFNE01.JPG,AFNE01.JPG,,,,,4,2,42,0,,,,,,,,,,,,,,,,,,,AFSA13.jpg,AFNE07.jpg,AFSA12.jpg,AFNE03.jpg,AFSA13.jpg,FS,4,num_8,32,num_4,1.85033836449,,,2017_Sep_13_1410,60.0120301633,MAFE4ImagesEEG,001,101498,
AFNE01.JPG,AFNE01.JPG,AFNE01.JPG,AFNE01.JPG,AFNE01.JPG,AFNE01.JPG,,,,,4,3,43,6,,,,,,,,,,,,,,,,,,,AFNE04.jpg,AFSA14.jpg,AFNE14.jpg,AFSA06.jpg,AFNE04.jpg,FN,3,num_8,32,num_2,1.43343897443,,,2017_Sep_13_1410,60.0120301633,MAFE4ImagesEEG,001,101498,
AFNE01.JPG,AFNE01.JPG,AFNE01.JPG,AFNE01.JPG,AFNE01.JPG,AFNE01.JPG,,,,,4,4,44,1,,,,,,,,,,,,,,,,,,,AFNE06.jpg,AFNE13.jpg,AFSA15.jpg,AFSA13.jpg,AFSA15.jpg,FS,4,num_2,32,num_6,1.46674971678,,,2017_Sep_13_1410,60.0120301633,MAFE4ImagesEEG,001,101498,
AFNE01.JPG,AFNE01.JPG,AFNE01.JPG,AFNE01.JPG,AFNE01.JPG,AFNE01.JPG,,,,,4,5,45,9,,,,,,,,,,,,,,,,,,,AFSA02.jpg,AFNE03.jpg,AFSA16.jpg,AFNE12.jpg,AFNE12.jpg,FN,3,num_4,16,num_4,0.850136619061,,,2017_Sep_13_1410,60.0120301633,MAFE4ImagesEEG,001,101498,
AFNE01.JPG,AFNE01.JPG,AFNE01.JPG,AFNE01.JPG,AFNE01.JPG,AFNE01.JPG,,,,,4,6,46,2,,,,,,,,,,,,,,,,,,,AFSA19.jpg,AFNE10.jpg,AFSA17.jpg,AFNE14.jpg,AFNE10.jpg,FN,3,num_6,16,num_6,1.65008228598,,,2017_Sep_13_1410,60.0120301633,MAFE4ImagesEEG,001,101498,
AFNE01.JPG,AFNE01.JPG,AFNE01.JPG,AFNE01.JPG,AFNE01.JPG,AFNE01.JPG,,,,,4,7,47,7,,,,,,,,,,,,,,,,,,,AFSA19.jpg,AFNE02.jpg,AFSA07.jpg,AFNE03.jpg,AFSA07.jpg,FS,4,num_2,16,num_2,1.16678977734,,,2017_Sep_13_1410,60.0120301633,MAFE4ImagesEEG,001,101498,
AFNE01.JPG,AFNE01.JPG,AFNE01.JPG,AFNE01.JPG,AFNE01.JPG,AFNE01.JPG,,,,,4,8,48,3,,,,,,,,,,,,,,,,,,,AFSA07.jpg,AFNE15.jpg,AFNE02.jpg,AFSA03.jpg,AFNE02.jpg,FN,3,num_2,16,num_2,0.916768688476,,,2017_Sep_13_1410,60.0120301633,MAFE4ImagesEEG,001,101498,
AFNE01.JPG,AFNE01.JPG,AFNE01.JPG,AFNE01.JPG,AFNE01.JPG,AFNE01.JPG,,,,,4,9,49,8,,,,,,,,,,,,,,,,,,,AFNE01.jpg,AFNE14.jpg,AFSA05.jpg,AFSA12.jpg,AFSA05.jpg,FS,4,num_2,32,num_4,2.46672501997,,,2017_Sep_13_1410,60.0120301633,MAFE4ImagesEEG,001,101498,
AFNE01.JPG,AFNE01.JPG,AFNE01.JPG,AFNE01.JPG,AFNE01.JPG,AFNE01.JPG,,,,,5,0,50,5,,,,,,,,,,,,,,,,,,,AFNE19.jpg,AFSA11.jpg,AFNE14.jpg,AFSA19.jpg,AFNE19.jpg,FN,3,num_8,16,num_8,1.71674610861,,,2017_Sep_13_1410,60.0120301633,MAFE4ImagesEEG,001,101498,
AFNE01.JPG,AFNE01.JPG,AFNE01.JPG,AFNE01.JPG,AFNE01.JPG,AFNE01.JPG,,,,,5,1,51,7,,,,,,,,,,,,,,,,,,,AFSA12.jpg,AFSA13.jpg,AFNE18.jpg,AFNE06.jpg,AFSA13.jpg,FS,4,num_6,32,num_2,1.46675388655,,,2017_Sep_13_1410,60.0120301633,MAFE4ImagesEEG,001,101498,
AFNE01.JPG,AFNE01.JPG,AFNE01.JPG,AFNE01.JPG,AFNE01.JPG,AFNE01.JPG,,,,,5,2,52,2,,,,,,,,,,,,,,,,,,,AFSA02.jpg,AFSA12.jpg,AFNE09.jpg,AFNE19.jpg,AFSA02.jpg,FS,4,num_8,32,num_6,1.01678495016,,,2017_Sep_13_1410,60.0120301633,MAFE4ImagesEEG,001,101498,
AFNE01.JPG,AFNE01.JPG,AFNE01.JPG,AFNE01.JPG,AFNE01.JPG,AFNE01.JPG,,,,,5,3,53,0,,,,,,,,,,,,,,,,,,,AFNE16.jpg,AFSA20.jpg,AFNE07.jpg,AFSA07.jpg,AFSA07.jpg,FS,4,num_4,16,num_4,1.38343886216,,,2017_Sep_13_1410,60.0120301633,MAFE4ImagesEEG,001,101498,
AFNE01.JPG,AFNE01.JPG,AFNE01.JPG,AFNE01.JPG,AFNE01.JPG,AFNE01.JPG,,,,,5,4,54,9,,,,,,,,,,,,,,,,,,,AFNE18.jpg,AFSA10.jpg,AFSA16.jpg,AFNE11.jpg,AFSA16.jpg,FS,4,num_2,16,num_2,0.816778727807,,,2017_Sep_13_1410,60.0120301633,MAFE4ImagesEEG,001,101498,
AFNE01.JPG,AFNE01.JPG,AFNE01.JPG,AFNE01.JPG,AFNE01.JPG,AFNE01.JPG,,,,,5,5,55,4,,,,,,,,,,,,,,,,,,,AFNE13.jpg,AFNE15.jpg,AFSA07.jpg,AFSA20.jpg,AFNE13.jpg,FN,3,num_8,32,num_4,1.71672141156,,,2017_Sep_13_1410,60.0120301633,MAFE4ImagesEEG,001,101498,
AFNE01.JPG,AFNE01.JPG,AFNE01.JPG,AFNE01.JPG,AFNE01.JPG,AFNE01.JPG,,,,,5,6,56,8,,,,,,,,,,,,,,,,,,,AFNE03.jpg,AFSA18.jpg,AFNE12.jpg,AFSA07.jpg,AFSA18.jpg,FS,4,num_6,32,num_8,1.24997009104,,,2017_Sep_13_1410,60.0120301633,MAFE4ImagesEEG,001,101498,
AFNE01.JPG,AFNE01.JPG,AFNE01.JPG,AFNE01.JPG,AFNE01.JPG,AFNE01.JPG,,,,,5,7,57,1,,,,,,,,,,,,,,,,,,,AFSA17.jpg,AFNE04.jpg,AFNE14.jpg,AFSA06.jpg,AFNE04.jpg,FN,3,num_6,16,num_6,1.2001223301,,,2017_Sep_13_1410,60.0120301633,MAFE4ImagesEEG,001,101498,
AFNE01.JPG,AFNE01.JPG,AFNE01.JPG,AFNE01.JPG,AFNE01.JPG,AFNE01.JPG,,,,,5,8,58,3,,,,,,,,,,,,,,,,,,,AFSA13.jpg,AFNE06.jpg,AFNE08.jpg,AFSA08.jpg,AFSA13.jpg,FS,4,num_8,32,num_4,1.06673631002,,,2017_Sep_13_1410,60.0120301633,MAFE4ImagesEEG,001,101498,
AFNE01.JPG,AFNE01.JPG,AFNE01.JPG,AFNE01.JPG,AFNE01.JPG,AFNE01.JPG,,,,,5,9,59,6,,,,,,,,,,,,,,,,,,,AFSA09.jpg,AFNE20.jpg,AFSA04.jpg,AFNE07.jpg,AFSA04.jpg,FS,4,num_2,16,num_2,1.40005638613,,,2017_Sep_13_1410,60.0120301633,MAFE4ImagesEEG,001,101498,
,,,,,,,,,,,,,,,,,,,,,,,,,,,,,,,,,,,,,,,,,,,space,4.8661363984,2017_Sep_13_1410,60.0120301633,MAFE4ImagesEEG,001,101498,
AFNE01.JPG,AFNE01.JPG,AFNE01.JPG,AFNE01.JPG,AFNE01.JPG,AFNE01.JPG,,,,,,,,,0,0,0,4,,,,,,,,,,,,,,,AMSA17.jpg,AMNE16.jpg,AMNE09.jpg,AMSA11.jpg,AMNE09.jpg,MN,1,num_2,32,num_6,1.05015727482,,,2017_Sep_13_1410,60.0120301633,MAFE4ImagesEEG,001,101498,
AFNE01.JPG,AFNE01.JPG,AFNE01.JPG,AFNE01.JPG,AFNE01.JPG,AFNE01.JPG,,,,,,,,,0,1,1,1,,,,,,,,,,,,,,,AMNE11.jpg,AMNE06.jpg,AMSA16.jpg,AMSA18.jpg,AMSA16.jpg,MS,2,num_2,32,num_4,0.683478666004,,,2017_Sep_13_1410,60.0120301633,MAFE4ImagesEEG,001,101498,
AFNE01.JPG,AFNE01.JPG,AFNE01.JPG,AFNE01.JPG,AFNE01.JPG,AFNE01.JPG,,,,,,,,,0,2,2,7,,,,,,,,,,,,,,,AMSA08.jpg,AMNE14.jpg,AMNE10.jpg,AMSA09.jpg,AMSA09.jpg,MS,2,num_4,32,num_2,1.05010467349,,,2017_Sep_13_1410,60.0120301633,MAFE4ImagesEEG,001,101498,
AFNE01.JPG,AFNE01.JPG,AFNE01.JPG,AFNE01.JPG,AFNE01.JPG,AFNE01.JPG,,,,,,,,,0,3,3,2,,,,,,,,,,,,,,,AMSA08.jpg,AMNE06.jpg,AMNE04.jpg,AMSA02.jpg,AMSA08.jpg,MS,2,num_8,32,num_4,1.18344162032,,,2017_Sep_13_1410,60.0120301633,MAFE4ImagesEEG,001,101498,
AFNE01.JPG,AFNE01.JPG,AFNE01.JPG,AFNE01.JPG,AFNE01.JPG,AFNE01.JPG,,,,,,,,,0,4,4,8,,,,,,,,,,,,,,,AMSA16.jpg,AMSA07.jpg,AMNE04.jpg,AMNE18.jpg,AMNE18.jpg,MN,1,num_4,16,num_4,1.68340649945,,,2017_Sep_13_1410,60.0120301633,MAFE4ImagesEEG,001,101498,
AFNE01.JPG,AFNE01.JPG,AFNE01.JPG,AFNE01.JPG,AFNE01.JPG,AFNE01.JPG,,,,,,,,,0,5,5,6,,,,,,,,,,,,,,,AMSA14.jpg,AMSA01.jpg,AMNE09.jpg,AMNE17.jpg,AMNE09.jpg,MN,1,num_2,32,num_6,1.20014478196,,,2017_Sep_13_1410,60.0120301633,MAFE4ImagesEEG,001,101498,
AFNE01.JPG,AFNE01.JPG,AFNE01.JPG,AFNE01.JPG,AFNE01.JPG,AFNE01.JPG,,,,,,,,,0,6,6,0,,,,,,,,,,,,,,,AMNE03.jpg,AMNE02.jpg,AMSA16.jpg,AMSA13.jpg,AMSA13.jpg,MS,2,num_4,16,num_4,1.41681214888,,,2017_Sep_13_1410,60.0120301633,MAFE4ImagesEEG,001,101498,
AFNE01.JPG,AFNE01.JPG,AFNE01.JPG,AFNE01.JPG,AFNE01.JPG,AFNE01.JPG,,,,,,,,,0,7,7,3,,,,,,,,,,,,,,,AMNE14.jpg,AMNE19.jpg,AMSA04.jpg,AMSA15.jpg,AMNE19.jpg,MN,1,num_6,16,num_6,1.43343704985,,,2017_Sep_13_1410,60.0120301633,MAFE4ImagesEEG,001,101498,
AFNE01.JPG,AFNE01.JPG,AFNE01.JPG,AFNE01.JPG,AFNE01.JPG,AFNE01.JPG,,,,,,,,,0,8,8,9,,,,,,,,,,,,,,,AMNE03.jpg,AMSA12.jpg,AMNE02.jpg,AMSA17.jpg,AMNE02.jpg,MN,1,num_2,16,num_2,1.3834420694,,,2017_Sep_13_1410,60.0120301633,MAFE4ImagesEEG,001,101498,
AFNE01.JPG,AFNE01.JPG,AFNE01.JPG,AFNE01.JPG,AFNE01.JPG,AFNE01.JPG,,,,,,,,,0,9,9,5,,,,,,,,,,,,,,,AMNE17.jpg,AMNE18.jpg,AMSA08.jpg,AMSA10.jpg,AMNE18.jpg,MN,1,num_6,16,num_6,1.41675794381,,,2017_Sep_13_1410,60.0120301633,MAFE4ImagesEEG,001,101498,
AFNE01.JPG,AFNE01.JPG,AFNE01.JPG,AFNE01.JPG,AFNE01.JPG,AFNE01.JPG,,,,,,,,,1,0,10,3,,,,,,,,,,,,,,,AMSA13.jpg,AMNE03.jpg,AMNE11.jpg,AMSA16.jpg,AMNE11.jpg,MN,1,num_2,32,num_6,1.41660206439,,,2017_Sep_13_1410,60.0120301633,MAFE4ImagesEEG,001,101498,
AFNE01.JPG,AFNE01.JPG,AFNE01.JPG,AFNE01.JPG,AFNE01.JPG,AFNE01.JPG,,,,,,,,,1,1,11,5,,,,,,,,,,,,,,,AMNE12.jpg,AMSA05.jpg,AMSA06.jpg,AMNE15.jpg,AMSA05.jpg,MS,2,num_6,32,num_2,1.56673326297,,,2017_Sep_13_1410,60.0120301633,MAFE4ImagesEEG,001,101498,
AFNE01.JPG,AFNE01.JPG,AFNE01.JPG,AFNE01.JPG,AFNE01.JPG,AFNE01.JPG,,,,,,,,,1,2,12,6,,,,,,,,,,,,,,,AMSA08.jpg,AMNE07.jpg,AMSA16.jpg,AMNE14.jpg,AMNE14.jpg,MN,1,num_4,16,num_4,1.75031729182,,,2017_Sep_13_1410,60.0120301633,MAFE4ImagesEEG,001,101498,
AFNE01.JPG,AFNE01.JPG,AFNE01.JPG,AFNE01.JPG,AFNE01.JPG,AFNE01.JPG,,,,,,,,,1,3,13,8,,,,,,,,,,,,,,,AMSA19.jpg,AMSA08.jpg,AMNE13.jpg,AMNE10.jpg,AMSA08.jpg,MS,2,num_6,32,num_2,2.43339984398,,,2017_Sep_13_1410,60.0120301633,MAFE4ImagesEEG,001,101498,
AFNE01.JPG,AFNE01.JPG,AFNE01.JPG,AFNE01.JPG,AFNE01.JPG,AFNE01.JPG,,,,,,,,,1,4,14,1,,,,,,,,,,,,,,,AMNE09.jpg,AMSA02.jpg,AMSA12.jpg,AMNE11.jpg,AMNE11.jpg,MN,1,num_4,32,num_8,1.63335635187,,,2017_Sep_13_1410,60.0120301633,MAFE4ImagesEEG,001,101498,
AFNE01.JPG,AFNE01.JPG,AFNE01.JPG,AFNE01.JPG,AFNE01.JPG,AFNE01.JPG,,,,,,,,,1,5,15,2,,,,,,,,,,,,,,,AMNE08.jpg,AMSA01.jpg,AMNE03.jpg,AMSA14.jpg,AMNE08.jpg,MN,1,num_8,32,num_2,1.05011461629,,,2017_Sep_13_1410,60.0120301633,MAFE4ImagesEEG,001,101498,
AFNE01.JPG,AFNE01.JPG,AFNE01.JPG,AFNE01.JPG,AFNE01.JPG,AFNE01.JPG,,,,,,,,,1,6,16,0,,,,,,,,,,,,,,,AMSA16.jpg,AMNE15.jpg,AMNE16.jpg,AMSA02.jpg,AMNE16.jpg,MN,1,num_2,16,num_2,1.33340122318,,,2017_Sep_13_1410,60.0120301633,MAFE4ImagesEEG,001,101498,
AFNE01.JPG,AFNE01.JPG,AFNE01.JPG,AFNE01.JPG,AFNE01.JPG,AFNE01.JPG,,,,,,,,,1,7,17,9,,,,,,,,,,,,,,,AMNE08.jpg,AMSA09.jpg,AMSA12.jpg,AMNE16.jpg,AMNE08.jpg,MN,1,num_8,32,num_6,1.13345369627,,,2017_Sep_13_1410,60.0120301633,MAFE4ImagesEEG,001,101498,
AFNE01.JPG,AFNE01.JPG,AFNE01.JPG,AFNE01.JPG,AFNE01.JPG,AFNE01.JPG,,,,,,,,,1,8,18,4,,,,,,,,,,,,,,,AMSA01.jpg,AMNE19.jpg,AMNE12.jpg,AMSA03.jpg,AMNE12.jpg,MN,1,num_2,32,num_6,1.40009872359,,,2017_Sep_13_1410,60.0120301633,MAFE4ImagesEEG,001,101498,
AFNE01.JPG,AFNE01.JPG,AFNE01.JPG,AFNE01.JPG,AFNE01.JPG,AFNE01.JPG,,,,,,,,,1,9,19,7,,,,,,,,,,,,,,,AMSA10.jpg,AMNE20.jpg,AMSA12.jpg,AMNE01.jpg,AMSA10.jpg,MS,2,num_8,32,num_2,2.34972976078,,,2017_Sep_13_1410,60.0120301633,MAFE4ImagesEEG,001,101498,
AFNE01.JPG,AFNE01.JPG,AFNE01.JPG,AFNE01.JPG,AFNE01.JPG,AFNE01.JPG,,,,,,,,,2,0,20,6,,,,,,,,,,,,,,,AMSA11.jpg,AMNE13.jpg,AMNE15.jpg,AMSA09.jpg,AMSA11.jpg,MS,2,num_8,16,num_8,1.63337527541,,,2017_Sep_13_1410,60.0120301633,MAFE4ImagesEEG,001,101498,
AFNE01.JPG,AFNE01.JPG,AFNE01.JPG,AFNE01.JPG,AFNE01.JPG,AFNE01.JPG,,,,,,,,,2,1,21,0,,,,,,,,,,,,,,,AMSA12.jpg,AMSA16.jpg,AMNE02.jpg,AMNE15.jpg,AMNE15.jpg,MN,1,num_4,16,num_4,1.06678474159,,,2017_Sep_13_1410,60.0120301633,MAFE4ImagesEEG,001,101498,
AFNE01.JPG,AFNE01.JPG,AFNE01.JPG,AFNE01.JPG,AFNE01.JPG,AFNE01.JPG,,,,,,,,,2,2,22,4,,,,,,,,,,,,,,,AMNE20.jpg,AMSA07.jpg,AMNE11.jpg,AMSA10.jpg,AMNE11.jpg,MN,1,num_2,32,num_8,1.31673462596,,,2017_Sep_13_1410,60.0120301633,MAFE4ImagesEEG,001,101498,
AFNE01.JPG,AFNE01.JPG,AFNE01.JPG,AFNE01.JPG,AFNE01.JPG,AFNE01.JPG,,,,,,,,,2,3,23,1,,,,,,,,,,,,,,,AMNE07.jpg,AMSA05.jpg,AMSA19.jpg,AMNE17.jpg,AMSA05.jpg,MS,2,num_6,32,num_4,1.25014393195,,,2017_Sep_13_1410,60.0120301633,MAFE4ImagesEEG,001,101498,
AFNE01.JPG,AFNE01.JPG,AFNE01.JPG,AFNE01.JPG,AFNE01.JPG,AFNE01.JPG,,,,,,,,,2,4,24,5,,,,,,,,,,,,,,,AMNE01.jpg,AMSA15.jpg,AMSA14.jpg,AMNE04.jpg,AMSA14.jpg,MS,2,num_2,16,num_2,0.683496627258,,,2017_Sep_13_1410,60.0120301633,MAFE4ImagesEEG,001,101498,
AFNE01.JPG,AFNE01.JPG,AFNE01.JPG,AFNE01.JPG,AFNE01.JPG,AFNE01.JPG,,,,,,,,,2,5,25,8,,,,,,,,,,,,,,,AMNE17.jpg,AMNE01.jpg,AMSA12.jpg,AMSA10.jpg,AMNE17.jpg,MN,1,num_8,16,num_8,1.2668804503,,,2017_Sep_13_1410,60.0120301633,MAFE4ImagesEEG,001,101498,
AFNE01.JPG,AFNE01.JPG,AFNE01.JPG,AFNE01.JPG,AFNE01.JPG,AFNE01.JPG,,,,,,,,,2,6,26,3,,,,,,,,,,,,,,,AMSA01.jpg,AMNE11.jpg,AMNE19.jpg,AMSA04.jpg,AMSA01.jpg,MS,2,num_8,32,num_4,1.15011484083,,,2017_Sep_13_1410,60.0120301633,MAFE4ImagesEEG,001,101498,
AFNE01.JPG,AFNE01.JPG,AFNE01.JPG,AFNE01.JPG,AFNE01.JPG,AFNE01.JPG,,,,,,,,,2,7,27,7,,,,,,,,,,,,,,,AMSA02.jpg,AMNE19.jpg,AMNE08.jpg,AMSA16.jpg,AMSA16.jpg,MS,2,num_4,32,num_2,1.3334464475,,,2017_Sep_13_1410,60.0120301633,MAFE4ImagesEEG,001,101498,
AFNE01.JPG,AFNE01.JPG,AFNE01.JPG,AFNE01.JPG,AFNE01.JPG,AFNE01.JPG,,,,,,,,,2,8,28,9,,,,,,,,,,,,,,,AMSA06.jpg,AMNE02.jpg,AMSA09.jpg,AMNE11.jpg,AMSA09.jpg,MS,2,num_2,32,num_8,0.983461057302,,,2017_Sep_13_1410,60.0120301633,MAFE4ImagesEEG,001,101498,
AFNE01.JPG,AFNE01.JPG,AFNE01.JPG,AFNE01.JPG,AFNE01.JPG,AFNE01.JPG,,,,,,,,,2,9,29,2,,,,,,,,,,,,,,,AMSA09.jpg,AMNE14.jpg,AMNE02.jpg,AMSA08.jpg,AMSA09.jpg,MS,2,num_8,32,num_2,0.883468851214,,,2017_Sep_13_1410,60.0120301633,MAFE4ImagesEEG,001,101498,
AFNE01.JPG,AFNE01.JPG,AFNE01.JPG,AFNE01.JPG,AFNE01.JPG,AFNE01.JPG,,,,,,,,,3,0,30,5,,,,,,,,,,,,,,,AMNE14.jpg,AMNE16.jpg,AMSA10.jpg,AMSA14.jpg,AMNE14.jpg,MN,1,num_8,32,num_4,1.86672463501,,,2017_Sep_13_1410,60.0120301633,MAFE4ImagesEEG,001,101498,
AFNE01.JPG,AFNE01.JPG,AFNE01.JPG,AFNE01.JPG,AFNE01.JPG,AFNE01.JPG,,,,,,,,,3,1,31,4,,,,,,,,,,,,,,,AMNE04.jpg,AMSA05.jpg,AMNE02.jpg,AMSA17.jpg,AMSA05.jpg,MS,2,num_6,16,num_6,1.70005738013,,,2017_Sep_13_1410,60.0120301633,MAFE4ImagesEEG,001,101498,
AFNE01.JPG,AFNE01.JPG,AFNE01.JPG,AFNE01.JPG,AFNE01.JPG,AFNE01.JPG,,,,,,,,,3,2,32,6,,,,,,,,,,,,,,,AMSA02.jpg,AMNE10.jpg,AMSA15.jpg,AMNE08.jpg,AMSA02.jpg,MS,2,num_8,16,num_8,0.883526584366,,,2017_Sep_13_1410,60.0120301633,MAFE4ImagesEEG,001,101498,
AFNE01.JPG,AFNE01.JPG,AFNE01.JPG,AFNE01.JPG,AFNE01.JPG,AFNE01.JPG,,,,,,,,,3,3,33,0,,,,,,,,,,,,,,,AMNE06.jpg,AMSA15.jpg,AMSA10.jpg,AMNE04.jpg,AMSA10.jpg,MS,2,num_2,16,num_2,0.916834440315,,,2017_Sep_13_1410,60.0120301633,MAFE4ImagesEEG,001,101498,
AFNE01.JPG,AFNE01.JPG,AFNE01.JPG,AFNE01.JPG,AFNE01.JPG,AFNE01.JPG,,,,,,,,,3,4,34,8,,,,,,,,,,,,,,,AMSA09.jpg,AMSA12.jpg,AMNE15.jpg,AMNE13.jpg,AMNE13.jpg,MN,1,num_4,32,num_8,1.56670984882,,,2017_Sep_13_1410,60.0120301633,MAFE4ImagesEEG,001,101498,
AFNE01.JPG,AFNE01.JPG,AFNE01.JPG,AFNE01.JPG,AFNE01.JPG,AFNE01.JPG,,,,,,,,,3,5,35,2,,,,,,,,,,,,,,,AMSA15.jpg,AMNE13.jpg,AMSA07.jpg,AMNE16.jpg,AMNE16.jpg,MN,1,num_4,16,num_4,0.916784404777,,,2017_Sep_13_1410,60.0120301633,MAFE4ImagesEEG,001,101498,
AFNE01.JPG,AFNE01.JPG,AFNE01.JPG,AFNE01.JPG,AFNE01.JPG,AFNE01.JPG,,,,,,,,,3,6,36,9,,,,,,,,,,,,,,,AMNE10.jpg,AMSA06.jpg,AMNE02.jpg,AMSA10.jpg,AMSA10.jpg,MS,2,num_4,32,num_6,1.43342550332,,,2017_Sep_13_1410,60.0120301633,MAFE4ImagesEEG,001,101498,
AFNE01.JPG,AFNE01.JPG,AFNE01.JPG,AFNE01.JPG,AFNE01.JPG,AFNE01.JPG,,,,,,,,,3,7,37,3,,,,,,,,,,,,,,,AMNE12.jpg,AMSA20.jpg,AMNE03.jpg,AMSA16.jpg,AMSA16.jpg,MS,2,num_4,32,num_2,0.983487678692,,,2017_Sep_13_1410,60.0120301633,MAFE4ImagesEEG,001,101498,
AFNE01.JPG,AFNE01.JPG,AFNE01.JPG,AFNE01.JPG,AFNE01.JPG,AFNE01.JPG,,,,,,,,,3,8,38,7,,,,,,,,,,,,,,,AMSA04.jpg,AMNE20.jpg,AMSA02.jpg,AMNE18.jpg,AMNE18.jpg,MN,1,num_4,16,num_4,0.850018586963,,,2017_Sep_13_1410,60.0120301633,MAFE4ImagesEEG,001,101498,
AFNE01.JPG,AFNE01.JPG,AFNE01.JPG,AFNE01.JPG,AFNE01.JPG,AFNE01.JPG,,,,,,,,,3,9,39,1,,,,,,,,,,,,,,,AMSA20.jpg,AMNE20.jpg,AMSA18.jpg,AMNE13.jpg,AMSA18.jpg,MS,2,num_2,32,num_4,2.21667827223,,,2017_Sep_13_1410,60.0120301633,MAFE4ImagesEEG,001,101498,
AFNE01.JPG,AFNE01.JPG,AFNE01.JPG,AFNE01.JPG,AFNE01.JPG,AFNE01.JPG,,,,,,,,,4,0,40,7,,,,,,,,,,,,,,,AMSA10.jpg,AMNE04.jpg,AMNE18.jpg,AMSA16.jpg,AMSA16.jpg,MS,2,num_4,16,num_4,1.29977743863,,,2017_Sep_13_1410,60.0120301633,MAFE4ImagesEEG,001,101498,
AFNE01.JPG,AFNE01.JPG,AFNE01.JPG,AFNE01.JPG,AFNE01.JPG,AFNE01.JPG,,,,,,,,,4,1,41,5,,,,,,,,,,,,,,,AMNE10.jpg,AMSA06.jpg,AMSA04.jpg,AMNE09.jpg,AMNE09.jpg,MN,1,num_4,32,num_6,0.966777781723,,,2017_Sep_13_1410,60.0120301633,MAFE4ImagesEEG,001,101498,
AFNE01.JPG,AFNE01.JPG,AFNE01.JPG,AFNE01.JPG,AFNE01.JPG,AFNE01.JPG,,,,,,,,,4,2,42,2,,,,,,,,,,,,,,,AMSA08.jpg,AMSA03.jpg,AMNE14.jpg,AMNE07.jpg,AMSA08.jpg,MS,2,num_8,16,num_8,0.950148069533,,,2017_Sep_13_1410,60.0120301633,MAFE4ImagesEEG,001,101498,
AFNE01.JPG,AFNE01.JPG,AFNE01.JPG,AFNE01.JPG,AFNE01.JPG,AFNE01.JPG,,,,,,,,,4,3,43,9,,,,,,,,,,,,,,,AMNE16.jpg,AMNE09.jpg,AMSA17.jpg,AMSA11.jpg,AMNE09.jpg,MN,1,num_6,32,num_2,1.14978447906,,,2017_Sep_13_1410,60.0120301633,MAFE4ImagesEEG,001,101498,
AFNE01.JPG,AFNE01.JPG,AFNE01.JPG,AFNE01.JPG,AFNE01.JPG,AFNE01.JPG,,,,,,,,,4,4,44,1,,,,,,,,,,,,,,,AMNE02.jpg,AMSA11.jpg,AMNE12.jpg,AMSA02.jpg,AMNE12.jpg,MN,1,num_2,16,num_2,0.933458699612,,,2017_Sep_13_1410,60.0120301633,MAFE4ImagesEEG,001,101498,
AFNE01.JPG,AFNE01.JPG,AFNE01.JPG,AFNE01.JPG,AFNE01.JPG,AFNE01.JPG,,,,,,,,,4,5,45,4,,,,,,,,,,,,,,,AMSA19.jpg,AMNE17.jpg,AMSA20.jpg,AMNE08.jpg,AMSA19.jpg,MS,2,num_8,16,num_8,1.95038541686,,,2017_Sep_13_1410,60.0120301633,MAFE4ImagesEEG,001,101498,
AFNE01.JPG,AFNE01.JPG,AFNE01.JPG,AFNE01.JPG,AFNE01.JPG,AFNE01.JPG,,,,,,,,,4,6,46,0,,,,,,,,,,,,,,,AMSA13.jpg,AMNE04.jpg,AMSA09.jpg,AMNE15.jpg,AMSA13.jpg,MS,2,num_8,32,num_6,1.166756741,,,2017_Sep_13_1410,60.0120301633,MAFE4ImagesEEG,001,101498,
AFNE01.JPG,AFNE01.JPG,AFNE01.JPG,AFNE01.JPG,AFNE01.JPG,AFNE01.JPG,,,,,,,,,4,7,47,3,,,,,,,,,,,,,,,AMNE20.jpg,AMNE05.jpg,AMSA04.jpg,AMSA12.jpg,AMSA04.jpg,MS,2,num_2,16,num_2,0.766755201621,,,2017_Sep_13_1410,60.0120301633,MAFE4ImagesEEG,001,101498,
AFNE01.JPG,AFNE01.JPG,AFNE01.JPG,AFNE01.JPG,AFNE01.JPG,AFNE01.JPG,,,,,,,,,4,8,48,8,,,,,,,,,,,,,,,AMSA18.jpg,AMNE16.jpg,AMNE09.jpg,AMSA15.jpg,AMSA15.jpg,MS,2,num_4,16,num_4,0.750144413207,,,2017_Sep_13_1410,60.0120301633,MAFE4ImagesEEG,001,101498,
AFNE01.JPG,AFNE01.JPG,AFNE01.JPG,AFNE01.JPG,AFNE01.JPG,AFNE01.JPG,,,,,,,,,4,9,49,6,,,,,,,,,,,,,,,AMSA10.jpg,AMNE09.jpg,AMSA16.jpg,AMNE16.jpg,AMNE09.jpg,MN,1,num_6,16,num_6,1.48340669181,,,2017_Sep_13_1410,60.0120301633,MAFE4ImagesEEG,001,101498,
AFNE01.JPG,AFNE01.JPG,AFNE01.JPG,AFNE01.JPG,AFNE01.JPG,AFNE01.JPG,,,,,,,,,5,0,50,7,,,,,,,,,,,,,,,AMNE06.jpg,AMSA06.jpg,AMNE17.jpg,AMSA08.jpg,AMNE06.jpg,MN,1,num_8,32,num_2,0.916791140335,,,2017_Sep_13_1410,60.0120301633,MAFE4ImagesEEG,001,101498,
AFNE01.JPG,AFNE01.JPG,AFNE01.JPG,AFNE01.JPG,AFNE01.JPG,AFNE01.JPG,,,,,,,,,5,1,51,9,,,,,,,,,,,,,,,AMSA12.jpg,AMNE12.jpg,AMNE10.jpg,AMSA11.jpg,AMNE10.jpg,MN,1,num_2,16,num_2,1.23345167539,,,2017_Sep_13_1410,60.0120301633,MAFE4ImagesEEG,001,101498,
AFNE01.JPG,AFNE01.JPG,AFNE01.JPG,AFNE01.JPG,AFNE01.JPG,AFNE01.JPG,,,,,,,,,5,2,52,6,,,,,,,,,,,,,,,AMNE06.jpg,AMSA08.jpg,AMNE09.jpg,AMSA01.jpg,AMSA01.jpg,MS,2,num_4,16,num_4,1.60003277962,,,2017_Sep_13_1410,60.0120301633,MAFE4ImagesEEG,001,101498,
AFNE01.JPG,AFNE01.JPG,AFNE01.JPG,AFNE01.JPG,AFNE01.JPG,AFNE01.JPG,,,,,,,,,5,3,53,1,,,,,,,,,,,,,,,AMSA10.jpg,AMNE10.jpg,AMSA18.jpg,AMNE13.jpg,AMNE13.jpg,MN,1,num_4,32,num_6,1.21683671745,,,2017_Sep_13_1410,60.0120301633,MAFE4ImagesEEG,001,101498,
AFNE01.JPG,AFNE01.JPG,AFNE01.JPG,AFNE01.JPG,AFNE01.JPG,AFNE01.JPG,,,,,,,,,5,4,54,3,,,,,,,,,,,,,,,AMNE15.jpg,AMNE06.jpg,AMSA02.jpg,AMSA18.jpg,AMNE06.jpg,MN,1,num_6,16,num_6,1.83339753468,,,2017_Sep_13_1410,60.0120301633,MAFE4ImagesEEG,001,101498,
AFNE01.JPG,AFNE01.JPG,AFNE01.JPG,AFNE01.JPG,AFNE01.JPG,AFNE01.JPG,,,,,,,,,5,5,55,2,,,,,,,,,,,,,,,AMNE12.jpg,AMNE07.jpg,AMSA07.jpg,AMSA13.jpg,AMSA07.jpg,MS,2,num_2,32,num_4,1.20009955764,,,2017_Sep_13_1410,60.0120301633,MAFE4ImagesEEG,001,101498,
AFNE01.JPG,AFNE01.JPG,AFNE01.JPG,AFNE01.JPG,AFNE01.JPG,AFNE01.JPG,,,,,,,,,5,6,56,0,,,,,,,,,,,,,,,AMSA10.jpg,AMSA20.jpg,AMNE16.jpg,AMNE11.jpg,AMSA10.jpg,MS,2,num_8,16,num_8,1.15012285928,,,2017_Sep_13_1410,60.0120301633,MAFE4ImagesEEG,001,101498,
AFNE01.JPG,AFNE01.JPG,AFNE01.JPG,AFNE01.JPG,AFNE01.JPG,AFNE01.JPG,,,,,,,,,5,7,57,8,,,,,,,,,,,,,,,AMNE18.jpg,AMSA09.jpg,AMNE02.jpg,AMSA06.jpg,AMNE02.jpg,MN,1,num_2,16,num_2,1.38339299639,,,2017_Sep_13_1410,60.0120301633,MAFE4ImagesEEG,001,101498,
AFNE01.JPG,AFNE01.JPG,AFNE01.JPG,AFNE01.JPG,AFNE01.JPG,AFNE01.JPG,,,,,,,,,5,8,58,4,,,,,,,,,,,,,,,AMSA19.jpg,AMNE15.jpg,AMSA09.jpg,AMNE01.jpg,AMNE15.jpg,MN,1,num_6,16,num_6,0.750181939453,,,2017_Sep_13_1410,60.0120301633,MAFE4ImagesEEG,001,101498,
AFNE01.JPG,AFNE01.JPG,AFNE01.JPG,AFNE01.JPG,AFNE01.JPG,AFNE01.JPG,,,,,,,,,5,9,59,5,,,,,,,,,,,,,,,AMNE17.jpg,AMSA10.jpg,AMSA12.jpg,AMNE08.jpg,AMNE17.jpg,MN,1,num_8,32,num_4,2.15002182638,,,2017_Sep_13_1410,60.0120301633,MAFE4ImagesEEG,001,101498,
,,,,,,,,,,,,,,,,,,,,,,,,,,,,,,,,,,,,,,,,,,,space,9.66580622899,2017_Sep_13_1410,60.0120301633,MAFE4ImagesEEG,001,101498,
AFNE01.JPG,AFNE01.JPG,AFNE01.JPG,AFNE01.JPG,AFNE01.JPG,AFNE01.JPG,,,,,,,,,,,,,0,0,0,4,,,,,,,,,,,AFSA01.jpg,AFSA18.jpg,AFNE06.jpg,AFNE05.jpg,AFNE05.jpg,FN,3,num_4,16,num_4,1.06678474159,,,2017_Sep_13_1410,60.0120301633,MAFE4ImagesEEG,001,101498,
AFNE01.JPG,AFNE01.JPG,AFNE01.JPG,AFNE01.JPG,AFNE01.JPG,AFNE01.JPG,,,,,,,,,,,,,0,1,1,7,,,,,,,,,,,AFNE01.jpg,AFSA07.jpg,AFNE14.jpg,AFSA12.jpg,AFSA07.jpg,FS,4,num_6,16,num_6,2.13333598478,,,2017_Sep_13_1410,60.0120301633,MAFE4ImagesEEG,001,101498,
AFNE01.JPG,AFNE01.JPG,AFNE01.JPG,AFNE01.JPG,AFNE01.JPG,AFNE01.JPG,,,,,,,,,,,,,0,2,2,8,,,,,,,,,,,AFSA15.jpg,AFNE06.jpg,AFSA14.jpg,AFNE12.jpg,AFNE12.jpg,FN,3,num_4,16,num_4,0.683482514694,,,2017_Sep_13_1410,60.0120301633,MAFE4ImagesEEG,001,101498,
AFNE01.JPG,AFNE01.JPG,AFNE01.JPG,AFNE01.JPG,AFNE01.JPG,AFNE01.JPG,,,,,,,,,,,,,0,3,3,9,,,,,,,,,,,AFSA19.jpg,AFNE17.jpg,AFSA03.jpg,AFNE06.jpg,AFNE17.jpg,FN,3,num_6,32,num_8,1.33346056007,,,2017_Sep_13_1410,60.0120301633,MAFE4ImagesEEG,001,101498,
AFNE01.JPG,AFNE01.JPG,AFNE01.JPG,AFNE01.JPG,AFNE01.JPG,AFNE01.JPG,,,,,,,,,,,,,0,4,4,5,,,,,,,,,,,AFSA12.jpg,AFSA20.jpg,AFNE06.jpg,AFNE05.jpg,AFNE05.jpg,FN,3,num_4,32,num_6,1.10013044486,,,2017_Sep_13_1410,60.0120301633,MAFE4ImagesEEG,001,101498,
AFNE01.JPG,AFNE01.JPG,AFNE01.JPG,AFNE01.JPG,AFNE01.JPG,AFNE01.JPG,,,,,,,,,,,,,0,5,5,0,,,,,,,,,,,AFSA12.jpg,AFNE09.jpg,AFNE07.jpg,AFSA07.jpg,AFNE07.jpg,FN,3,num_2,32,num_8,1.78332012403,,,2017_Sep_13_1410,60.0120301633,MAFE4ImagesEEG,001,101498,
AFNE01.JPG,AFNE01.JPG,AFNE01.JPG,AFNE01.JPG,AFNE01.JPG,AFNE01.JPG,,,,,,,,,,,,,0,6,6,1,,,,,,,,,,,AFNE13.jpg,AFNE03.jpg,AFSA08.jpg,AFSA18.jpg,AFSA18.jpg,FS,4,num_4,16,num_4,1.00011578691,,,2017_Sep_13_1410,60.0120301633,MAFE4ImagesEEG,001,101498,
AFNE01.JPG,AFNE01.JPG,AFNE01.JPG,AFNE01.JPG,AFNE01.JPG,AFNE01.JPG,,,,,,,,,,,,,0,7,7,6,,,,,,,,,,,AFSA13.jpg,AFSA05.jpg,AFNE03.jpg,AFNE19.jpg,AFSA05.jpg,FS,4,num_6,16,num_6,0.850168051431,,,2017_Sep_13_1410,60.0120301633,MAFE4ImagesEEG,001,101498,
AFNE01.JPG,AFNE01.JPG,AFNE01.JPG,AFNE01.JPG,AFNE01.JPG,AFNE01.JPG,,,,,,,,,,,,,0,8,8,2,,,,,,,,,,,AFSA12.jpg,AFNE08.jpg,AFSA02.jpg,AFNE18.jpg,AFNE18.jpg,FN,3,num_4,32,num_2,0.900140900863,,,2017_Sep_13_1410,60.0120301633,MAFE4ImagesEEG,001,101498,
AFNE01.JPG,AFNE01.JPG,AFNE01.JPG,AFNE01.JPG,AFNE01.JPG,AFNE01.JPG,,,,,,,,,,,,,0,9,9,3,,,,,,,,,,,AFSA11.jpg,AFSA13.jpg,AFNE09.jpg,AFNE15.jpg,AFSA11.jpg,FS,4,num_8,32,num_6,0.96675276407,,,2017_Sep_13_1410,60.0120301633,MAFE4ImagesEEG,001,101498,
AFNE01.JPG,AFNE01.JPG,AFNE01.JPG,AFNE01.JPG,AFNE01.JPG,AFNE01.JPG,,,,,,,,,,,,,1,0,10,9,,,,,,,,,,,AFNE09.jpg,AFSA07.jpg,AFSA13.jpg,AFNE14.jpg,AFSA13.jpg,FS,4,num_2,16,num_2,1.61673337524,,,2017_Sep_13_1410,60.0120301633,MAFE4ImagesEEG,001,101498,
AFNE01.JPG,AFNE01.JPG,AFNE01.JPG,AFNE01.JPG,AFNE01.JPG,AFNE01.JPG,,,,,,,,,,,,,1,1,11,5,,,,,,,,,,,AFSA02.jpg,AFNE14.jpg,AFSA04.jpg,AFNE01.jpg,AFNE01.jpg,FN,3,num_4,32,num_8,0.98340877681,,,2017_Sep_13_1410,60.0120301633,MAFE4ImagesEEG,001,101498,
AFNE01.JPG,AFNE01.JPG,AFNE01.JPG,AFNE01.JPG,AFNE01.JPG,AFNE01.JPG,,,,,,,,,,,,,1,2,12,2,,,,,,,,,,,AFNE11.jpg,AFNE16.jpg,AFSA01.jpg,AFSA03.jpg,AFNE16.jpg,FN,3,num_6,16,num_6,1.81661771634,,,2017_Sep_13_1410,60.0120301633,MAFE4ImagesEEG,001,101498,
AFNE01.JPG,AFNE01.JPG,AFNE01.JPG,AFNE01.JPG,AFNE01.JPG,AFNE01.JPG,,,,,,,,,,,,,1,3,13,3,,,,,,,,,,,AFSA01.jpg,AFNE14.jpg,AFSA20.jpg,AFNE08.jpg,AFSA01.jpg,FS,4,num_8,32,num_2,1.05010339036,,,2017_Sep_13_1410,60.0120301633,MAFE4ImagesEEG,001,101498,
AFNE01.JPG,AFNE01.JPG,AFNE01.JPG,AFNE01.JPG,AFNE01.JPG,AFNE01.JPG,,,,,,,,,,,,,1,4,14,1,,,,,,,,,,,AFNE19.jpg,AFSA20.jpg,AFNE05.jpg,AFSA01.jpg,AFNE19.jpg,FN,3,num_8,32,num_6,1.23344686441,,,2017_Sep_13_1410,60.0120301633,MAFE4ImagesEEG,001,101498,
AFNE01.JPG,AFNE01.JPG,AFNE01.JPG,AFNE01.JPG,AFNE01.JPG,AFNE01.JPG,,,,,,,,,,,,,1,5,15,6,,,,,,,,,,,AFSA14.jpg,AFNE09.jpg,AFNE16.jpg,AFSA18.jpg,AFNE16.jpg,FN,3,num_2,32,num_8,1.25010063197,,,2017_Sep_13_1410,60.0120301633,MAFE4ImagesEEG,001,101498,
AFNE01.JPG,AFNE01.JPG,AFNE01.JPG,AFNE01.JPG,AFNE01.JPG,AFNE01.JPG,,,,,,,,,,,,,1,6,16,4,,,,,,,,,,,AFSA12.jpg,AFSA02.jpg,AFNE06.jpg,AFNE19.jpg,AFSA12.jpg,FS,4,num_8,32,num_6,1.08346545137,,,2017_Sep_13_1410,60.0120301633,MAFE4ImagesEEG,001,101498,
AFNE01.JPG,AFNE01.JPG,AFNE01.JPG,AFNE01.JPG,AFNE01.JPG,AFNE01.JPG,,,,,,,,,,,,,1,7,17,0,,,,,,,,,,,AFSA08.jpg,AFNE04.jpg,AFSA15.jpg,AFNE03.jpg,AFNE03.jpg,FN,3,num_4,16,num_4,1.08352542948,,,2017_Sep_13_1410,60.0120301633,MAFE4ImagesEEG,001,101498,
AFNE01.JPG,AFNE01.JPG,AFNE01.JPG,AFNE01.JPG,AFNE01.JPG,AFNE01.JPG,,,,,,,,,,,,,1,8,18,7,,,,,,,,,,,AFSA07.jpg,AFSA17.jpg,AFNE03.jpg,AFNE14.jpg,AFNE14.jpg,FN,3,num_4,32,num_2,1.25007208623,,,2017_Sep_13_1410,60.0120301633,MAFE4ImagesEEG,001,101498,
AFNE01.JPG,AFNE01.JPG,AFNE01.JPG,AFNE01.JPG,AFNE01.JPG,AFNE01.JPG,,,,,,,,,,,,,1,9,19,8,,,,,,,,,,,AFNE20.jpg,AFSA15.jpg,AFNE17.jpg,AFSA09.jpg,AFSA09.jpg,FS,4,num_4,16,num_4,1.16691294149,,,2017_Sep_13_1410,60.0120301633,MAFE4ImagesEEG,001,101498,
AFNE01.JPG,AFNE01.JPG,AFNE01.JPG,AFNE01.JPG,AFNE01.JPG,AFNE01.JPG,,,,,,,,,,,,,2,0,20,9,,,,,,,,,,,AFNE03.jpg,AFNE02.jpg,AFSA20.jpg,AFSA08.jpg,AFNE03.jpg,FN,3,num_8,32,num_6,1.1665062434,,,2017_Sep_13_1410,60.0120301633,MAFE4ImagesEEG,001,101498,
AFNE01.JPG,AFNE01.JPG,AFNE01.JPG,AFNE01.JPG,AFNE01.JPG,AFNE01.JPG,,,,,,,,,,,,,2,1,21,0,,,,,,,,,,,AFNE02.jpg,AFNE08.jpg,AFSA11.jpg,AFSA10.jpg,AFNE08.jpg,FN,3,num_6,32,num_8,1.13341777329,,,2017_Sep_13_1410,60.0120301633,MAFE4ImagesEEG,001,101498,
AFNE01.JPG,AFNE01.JPG,AFNE01.JPG,AFNE01.JPG,AFNE01.JPG,AFNE01.JPG,,,,,,,,,,,,,2,2,22,4,,,,,,,,,,,AFNE08.jpg,AFNE19.jpg,AFSA01.jpg,AFSA07.jpg,AFSA01.jpg,FS,4,num_2,32,num_6,1.45006515831,,,2017_Sep_13_1410,60.0120301633,MAFE4ImagesEEG,001,101498,
AFNE01.JPG,AFNE01.JPG,AFNE01.JPG,AFNE01.JPG,AFNE01.JPG,AFNE01.JPG,,,,,,,,,,,,,2,3,23,2,,,,,,,,,,,AFNE10.jpg,AFSA10.jpg,AFSA19.jpg,AFNE07.jpg,AFNE10.jpg,FN,3,num_8,32,num_4,1.40009070514,,,2017_Sep_13_1410,60.0120301633,MAFE4ImagesEEG,001,101498,
AFNE01.JPG,AFNE01.JPG,AFNE01.JPG,AFNE01.JPG,AFNE01.JPG,AFNE01.JPG,,,,,,,,,,,,,2,4,24,8,,,,,,,,,,,AFNE09.jpg,AFNE14.jpg,AFSA11.jpg,AFSA05.jpg,AFSA05.jpg,FS,4,num_4,32,num_2,1.15009046462,,,2017_Sep_13_1410,60.0120301633,MAFE4ImagesEEG,001,101498,
AFNE01.JPG,AFNE01.JPG,AFNE01.JPG,AFNE01.JPG,AFNE01.JPG,AFNE01.JPG,,,,,,,,,,,,,2,5,25,7,,,,,,,,,,,AFNE17.jpg,AFSA14.jpg,AFNE04.jpg,AFSA07.jpg,AFNE04.jpg,FN,3,num_2,32,num_8,1.20008704881,,,2017_Sep_13_1410,60.0120301633,MAFE4ImagesEEG,001,101498,
AFNE01.JPG,AFNE01.JPG,AFNE01.JPG,AFNE01.JPG,AFNE01.JPG,AFNE01.JPG,,,,,,,,,,,,,2,6,26,6,,,,,,,,,,,AFNE19.jpg,AFSA01.jpg,AFSA05.jpg,AFNE08.jpg,AFNE19.jpg,FN,3,num_8,32,num_6,1.23347092001,,,2017_Sep_13_1410,60.0120301633,MAFE4ImagesEEG,001,101498,
AFNE01.JPG,AFNE01.JPG,AFNE01.JPG,AFNE01.JPG,AFNE01.JPG,AFNE01.JPG,,,,,,,,,,,,,2,7,27,5,,,,,,,,,,,AFNE01.jpg,AFSA20.jpg,AFSA09.jpg,AFNE02.jpg,AFNE02.jpg,FN,3,num_4,16,num_4,1.33342752396,,,2017_Sep_13_1410,60.0120301633,MAFE4ImagesEEG,001,101498,
AFNE01.JPG,AFNE01.JPG,AFNE01.JPG,AFNE01.JPG,AFNE01.JPG,AFNE01.JPG,,,,,,,,,,,,,2,8,28,1,,,,,,,,,,,AFSA13.jpg,AFSA01.jpg,AFNE01.jpg,AFNE05.jpg,AFNE05.jpg,FN,3,num_4,32,num_2,1.06679468439,,,2017_Sep_13_1410,60.0120301633,MAFE4ImagesEEG,001,101498,
AFNE01.JPG,AFNE01.JPG,AFNE01.JPG,AFNE01.JPG,AFNE01.JPG,AFNE01.JPG,,,,,,,,,,,,,2,9,29,3,,,,,,,,,,,AFSA18.jpg,AFSA15.jpg,AFNE07.jpg,AFNE19.jpg,AFSA15.jpg,FS,4,num_6,32,num_8,1.48347917898,,,2017_Sep_13_1410,60.0120301633,MAFE4ImagesEEG,001,101498,
AFNE01.JPG,AFNE01.JPG,AFNE01.JPG,AFNE01.JPG,AFNE01.JPG,AFNE01.JPG,,,,,,,,,,,,,3,0,30,6,,,,,,,,,,,AFSA03.jpg,AFNE15.jpg,AFSA16.jpg,AFNE06.jpg,AFSA03.jpg,FS,4,num_8,32,num_2,1.03345635836,,,2017_Sep_13_1410,60.0120301633,MAFE4ImagesEEG,001,101498,
AFNE01.JPG,AFNE01.JPG,AFNE01.JPG,AFNE01.JPG,AFNE01.JPG,AFNE01.JPG,,,,,,,,,,,,,3,1,31,8,,,,,,,,,,,AFNE03.jpg,AFNE20.jpg,AFSA02.jpg,AFSA19.jpg,AFSA19.jpg,FS,4,num_4,32,num_8,1.33341982611,,,2017_Sep_13_1410,60.0120301633,MAFE4ImagesEEG,001,101498,
AFNE01.JPG,AFNE01.JPG,AFNE01.JPG,AFNE01.JPG,AFNE01.JPG,AFNE01.JPG,,,,,,,,,,,,,3,2,32,4,,,,,,,,,,,AFSA01.jpg,AFNE03.jpg,AFNE05.jpg,AFSA06.jpg,AFNE03.jpg,FN,3,num_6,32,num_2,1.03348201746,,,2017_Sep_13_1410,60.0120301633,MAFE4ImagesEEG,001,101498,
AFNE01.JPG,AFNE01.JPG,AFNE01.JPG,AFNE01.JPG,AFNE01.JPG,AFNE01.JPG,,,,,,,,,,,,,3,3,33,9,,,,,,,,,,,AFNE06.jpg,AFSA05.jpg,AFNE14.jpg,AFSA06.jpg,AFNE06.jpg,FN,3,num_8,32,num_2,1.23343820451,,,2017_Sep_13_1410,60.0120301633,MAFE4ImagesEEG,001,101498,
AFNE01.JPG,AFNE01.JPG,AFNE01.JPG,AFNE01.JPG,AFNE01.JPG,AFNE01.JPG,,,,,,,,,,,,,3,4,34,5,,,,,,,,,,,AFSA01.jpg,AFNE04.jpg,AFNE11.jpg,AFSA12.jpg,AFSA01.jpg,FS,4,num_8,16,num_8,1.21675557038,,,2017_Sep_13_1410,60.0120301633,MAFE4ImagesEEG,001,101498,
AFNE01.JPG,AFNE01.JPG,AFNE01.JPG,AFNE01.JPG,AFNE01.JPG,AFNE01.JPG,,,,,,,,,,,,,3,5,35,7,,,,,,,,,,,AFNE15.jpg,AFSA08.jpg,AFSA05.jpg,AFNE08.jpg,AFNE15.jpg,FN,3,num_8,32,num_4,1.35006621666,,,2017_Sep_13_1410,60.0120301633,MAFE4ImagesEEG,001,101498,
AFNE01.JPG,AFNE01.JPG,AFNE01.JPG,AFNE01.JPG,AFNE01.JPG,AFNE01.JPG,,,,,,,,,,,,,3,6,36,0,,,,,,,,,,,AFSA09.jpg,AFNE13.jpg,AFNE07.jpg,AFSA07.jpg,AFSA09.jpg,FS,4,num_8,32,num_4,2.0000740909,,,2017_Sep_13_1410,60.0120301633,MAFE4ImagesEEG,001,101498,
AFNE01.JPG,AFNE01.JPG,AFNE01.JPG,AFNE01.JPG,AFNE01.JPG,AFNE01.JPG,,,,,,,,,,,,,3,7,37,2,,,,,,,,,,,AFSA20.jpg,AFSA15.jpg,AFNE08.jpg,AFNE10.jpg,AFNE10.jpg,FN,3,num_4,32,num_6,1.71672526048,,,2017_Sep_13_1410,60.0120301633,MAFE4ImagesEEG,001,101498,
AFNE01.JPG,AFNE01.JPG,AFNE01.JPG,AFNE01.JPG,AFNE01.JPG,AFNE01.JPG,,,,,,,,,,,,,3,8,38,1,,,,,,,,,,,AFSA01.jpg,AFNE13.jpg,AFNE03.jpg,AFSA20.jpg,AFSA20.jpg,FS,4,num_4,16,num_4,1.56670952798,,,2017_Sep_13_1410,60.0120301633,MAFE4ImagesEEG,001,101498,
AFNE01.JPG,AFNE01.JPG,AFNE01.JPG,AFNE01.JPG,AFNE01.JPG,AFNE01.JPG,,,,,,,,,,,,,3,9,39,3,,,,,,,,,,,AFSA13.jpg,AFNE20.jpg,AFNE13.jpg,AFSA18.jpg,AFSA18.jpg,FS,4,num_4,32,num_8,1.56670247205,,,2017_Sep_13_1410,60.0120301633,MAFE4ImagesEEG,001,101498,
AFNE01.JPG,AFNE01.JPG,AFNE01.JPG,AFNE01.JPG,AFNE01.JPG,AFNE01.JPG,,,,,,,,,,,,,4,0,40,1,,,,,,,,,,,AFSA14.jpg,AFNE12.jpg,AFSA15.jpg,AFNE18.jpg,AFNE18.jpg,FN,3,num_4,16,num_4,1.50006687432,,,2017_Sep_13_1410,60.0120301633,MAFE4ImagesEEG,001,101498,
AFNE01.JPG,AFNE01.JPG,AFNE01.JPG,AFNE01.JPG,AFNE01.JPG,AFNE01.JPG,,,,,,,,,,,,,4,1,41,3,,,,,,,,,,,AFNE05.jpg,AFSA08.jpg,AFNE20.jpg,AFSA04.jpg,AFSA04.jpg,FS,4,num_4,32,num_2,1.25009999052,,,2017_Sep_13_1410,60.0120301633,MAFE4ImagesEEG,001,101498,
AFNE01.JPG,AFNE01.JPG,AFNE01.JPG,AFNE01.JPG,AFNE01.JPG,AFNE01.JPG,,,,,,,,,,,,,4,2,42,7,,,,,,,,,,,AFSA03.jpg,AFNE01.jpg,AFSA04.jpg,AFNE08.jpg,AFNE01.jpg,FN,3,num_6,16,num_6,1.26676626713,,,2017_Sep_13_1410,60.0120301633,MAFE4ImagesEEG,001,101498,
AFNE01.JPG,AFNE01.JPG,AFNE01.JPG,AFNE01.JPG,AFNE01.JPG,AFNE01.JPG,,,,,,,,,,,,,4,3,43,9,,,,,,,,,,,AFSA15.jpg,AFNE09.jpg,AFSA16.jpg,AFNE18.jpg,AFNE18.jpg,FN,3,num_4,16,num_4,0.849943213165,,,2017_Sep_13_1410,60.0120301633,MAFE4ImagesEEG,001,101498,
AFNE01.JPG,AFNE01.JPG,AFNE01.JPG,AFNE01.JPG,AFNE01.JPG,AFNE01.JPG,,,,,,,,,,,,,4,4,44,2,,,,,,,,,,,AFNE01.jpg,AFSA07.jpg,AFSA11.jpg,AFNE15.jpg,AFSA07.jpg,FS,4,num_6,32,num_8,1.2667505506,,,2017_Sep_13_1410,60.0120301633,MAFE4ImagesEEG,001,101498,
AFNE01.JPG,AFNE01.JPG,AFNE01.JPG,AFNE01.JPG,AFNE01.JPG,AFNE01.JPG,,,,,,,,,,,,,4,5,45,0,,,,,,,,,,,AFNE16.jpg,AFSA11.jpg,AFNE05.jpg,AFSA18.jpg,AFNE05.jpg,FN,3,num_2,32,num_8,1.33340378921,,,2017_Sep_13_1410,60.0120301633,MAFE4ImagesEEG,001,101498,
AFNE01.JPG,AFNE01.JPG,AFNE01.JPG,AFNE01.JPG,AFNE01.JPG,AFNE01.JPG,,,,,,,,,,,,,4,6,46,5,,,,,,,,,,,AFSA08.jpg,AFSA19.jpg,AFNE12.jpg,AFNE03.jpg,AFNE03.jpg,FN,3,num_4,16,num_4,0.933459020453,,,2017_Sep_13_1410,60.0120301633,MAFE4ImagesEEG,001,101498,
AFNE01.JPG,AFNE01.JPG,AFNE01.JPG,AFNE01.JPG,AFNE01.JPG,AFNE01.JPG,,,,,,,,,,,,,4,7,47,8,,,,,,,,,,,AFSA08.jpg,AFNE10.jpg,AFNE11.jpg,AFSA05.jpg,AFNE11.jpg,FN,3,num_2,32,num_6,1.03351601609,,,2017_Sep_13_1410,60.0120301633,MAFE4ImagesEEG,001,101498,
AFNE01.JPG,AFNE01.JPG,AFNE01.JPG,AFNE01.JPG,AFNE01.JPG,AFNE01.JPG,,,,,,,,,,,,,4,8,48,4,,,,,,,,,,,AFNE17.jpg,AFNE06.jpg,AFSA13.jpg,AFSA10.jpg,AFNE17.jpg,FN,3,num_8,32,num_4,2.29981913487,,,2017_Sep_13_1410,60.0120301633,MAFE4ImagesEEG,001,101498,
AFNE01.JPG,AFNE01.JPG,AFNE01.JPG,AFNE01.JPG,AFNE01.JPG,AFNE01.JPG,,,,,,,,,,,,,4,9,49,6,,,,,,,,,,,AFSA07.jpg,AFNE04.jpg,AFSA16.jpg,AFNE05.jpg,AFSA07.jpg,FS,4,num_8,32,num_6,1.41678007483,,,2017_Sep_13_1410,60.0120301633,MAFE4ImagesEEG,001,101498,
AFNE01.JPG,AFNE01.JPG,AFNE01.JPG,AFNE01.JPG,AFNE01.JPG,AFNE01.JPG,,,,,,,,,,,,,5,0,50,4,,,,,,,,,,,AFSA04.jpg,AFSA19.jpg,AFNE08.jpg,AFNE03.jpg,AFNE03.jpg,FN,3,num_4,16,num_4,1.18343680934,,,2017_Sep_13_1410,60.0120301633,MAFE4ImagesEEG,001,101498,
AFNE01.JPG,AFNE01.JPG,AFNE01.JPG,AFNE01.JPG,AFNE01.JPG,AFNE01.JPG,,,,,,,,,,,,,5,1,51,8,,,,,,,,,,,AFSA13.jpg,AFNE08.jpg,AFSA17.jpg,AFNE18.jpg,AFNE08.jpg,FN,3,num_6,32,num_4,1.26686377195,,,2017_Sep_13_1410,60.0120301633,MAFE4ImagesEEG,001,101498,
AFNE01.JPG,AFNE01.JPG,AFNE01.JPG,AFNE01.JPG,AFNE01.JPG,AFNE01.JPG,,,,,,,,,,,,,5,2,52,1,,,,,,,,,,,AFNE18.jpg,AFSA12.jpg,AFNE20.jpg,AFSA01.jpg,AFNE18.jpg,FN,3,num_8,32,num_2,1.24999927846,,,2017_Sep_13_1410,60.0120301633,MAFE4ImagesEEG,001,101498,
AFNE01.JPG,AFNE01.JPG,AFNE01.JPG,AFNE01.JPG,AFNE01.JPG,AFNE01.JPG,,,,,,,,,,,,,5,3,53,0,,,,,,,,,,,AFNE13.jpg,AFSA15.jpg,AFNE07.jpg,AFSA12.jpg,AFSA15.jpg,FS,4,num_6,32,num_4,1.8834954726,,,2017_Sep_13_1410,60.0120301633,MAFE4ImagesEEG,001,101498,
AFNE01.JPG,AFNE01.JPG,AFNE01.JPG,AFNE01.JPG,AFNE01.JPG,AFNE01.JPG,,,,,,,,,,,,,5,4,54,6,,,,,,,,,,,AFSA13.jpg,AFNE13.jpg,AFNE12.jpg,AFSA15.jpg,AFNE12.jpg,FN,3,num_2,16,num_2,0.833461682778,,,2017_Sep_13_1410,60.0120301633,MAFE4ImagesEEG,001,101498,
AFNE01.JPG,AFNE01.JPG,AFNE01.JPG,AFNE01.JPG,AFNE01.JPG,AFNE01.JPG,,,,,,,,,,,,,5,5,55,7,,,,,,,,,,,AFNE04.jpg,AFNE07.jpg,AFSA10.jpg,AFSA18.jpg,AFNE04.jpg,FN,3,num_8,16,num_8,1.31676702085,,,2017_Sep_13_1410,60.0120301633,MAFE4ImagesEEG,001,101498,
AFNE01.JPG,AFNE01.JPG,AFNE01.JPG,AFNE01.JPG,AFNE01.JPG,AFNE01.JPG,,,,,,,,,,,,,5,6,56,3,,,,,,,,,,,AFSA15.jpg,AFNE20.jpg,AFSA08.jpg,AFNE01.jpg,AFSA08.jpg,FS,4,num_2,16,num_2,1.36670362647,,,2017_Sep_13_1410,60.0120301633,MAFE4ImagesEEG,001,101498,
AFNE01.JPG,AFNE01.JPG,AFNE01.JPG,AFNE01.JPG,AFNE01.JPG,AFNE01.JPG,,,,,,,,,,,,,5,7,57,9,,,,,,,,,,,AFSA09.jpg,AFNE18.jpg,AFSA17.jpg,AFNE11.jpg,AFNE18.jpg,FN,3,num_6,16,num_6,1.08340451098,,,2017_Sep_13_1410,60.0120301633,MAFE4ImagesEEG,001,101498,
AFNE01.JPG,AFNE01.JPG,AFNE01.JPG,AFNE01.JPG,AFNE01.JPG,AFNE01.JPG,,,,,,,,,,,,,5,8,58,5,,,,,,,,,,,AFNE16.jpg,AFNE09.jpg,AFSA19.jpg,AFSA09.jpg,AFSA19.jpg,FS,4,num_2,16,num_2,1.81671393849,,,2017_Sep_13_1410,60.0120301633,MAFE4ImagesEEG,001,101498,
AFNE01.JPG,AFNE01.JPG,AFNE01.JPG,AFNE01.JPG,AFNE01.JPG,AFNE01.JPG,,,,,,,,,,,,,5,9,59,2,,,,,,,,,,,AFSA19.jpg,AFNE14.jpg,AFNE19.jpg,AFSA09.jpg,AFSA19.jpg,FS,4,num_8,16,num_8,1.10011857748,,,2017_Sep_13_1410,60.0120301633,MAFE4ImagesEEG,001,101498,
,,,,,,,,,,,,,,,,,,,,,,,,,,,,,,,,,,,,,,,,,,,space,6.23303407244,2017_Sep_13_1410,60.0120301633,MAFE4ImagesEEG,001,101498,
AFNE01.JPG,AFNE01.JPG,AFNE01.JPG,AFNE01.JPG,AFNE01.JPG,AFNE01.JPG,,,,,,,,,,,,,,,,,0,0,0,7,,,,,,,AMSA07.jpg,AMNE16.jpg,AMNE08.jpg,AMSA18.jpg,AMSA07.jpg,MS,2,num_8,32,num_6,1.41676532081,,,2017_Sep_13_1410,60.0120301633,MAFE4ImagesEEG,001,101498,
AFNE01.JPG,AFNE01.JPG,AFNE01.JPG,AFNE01.JPG,AFNE01.JPG,AFNE01.JPG,,,,,,,,,,,,,,,,,0,1,1,4,,,,,,,AMNE18.jpg,AMNE14.jpg,AMSA13.jpg,AMSA20.jpg,AMSA13.jpg,MS,2,num_2,16,num_2,1.1334892984,,,2017_Sep_13_1410,60.0120301633,MAFE4ImagesEEG,001,101498,
AFNE01.JPG,AFNE01.JPG,AFNE01.JPG,AFNE01.JPG,AFNE01.JPG,AFNE01.JPG,,,,,,,,,,,,,,,,,0,2,2,1,,,,,,,AMSA12.jpg,AMSA18.jpg,AMNE08.jpg,AMNE10.jpg,AMSA18.jpg,MS,2,num_6,16,num_6,0.983498263173,,,2017_Sep_13_1410,60.0120301633,MAFE4ImagesEEG,001,101498,
AFNE01.JPG,AFNE01.JPG,AFNE01.JPG,AFNE01.JPG,AFNE01.JPG,AFNE01.JPG,,,,,,,,,,,,,,,,,0,3,3,8,,,,,,,AMNE19.jpg,AMSA18.jpg,AMSA10.jpg,AMNE20.jpg,AMNE19.jpg,MN,1,num_8,32,num_4,0.833490228513,,,2017_Sep_13_1410,60.0120301633,MAFE4ImagesEEG,001,101498,
AFNE01.JPG,AFNE01.JPG,AFNE01.JPG,AFNE01.JPG,AFNE01.JPG,AFNE01.JPG,,,,,,,,,,,,,,,,,0,4,4,5,,,,,,,AMSA03.jpg,AMSA01.jpg,AMNE10.jpg,AMNE20.jpg,AMNE10.jpg,MN,1,num_2,16,num_2,1.11680730572,,,2017_Sep_13_1410,60.0120301633,MAFE4ImagesEEG,001,101498,
AFNE01.JPG,AFNE01.JPG,AFNE01.JPG,AFNE01.JPG,AFNE01.JPG,AFNE01.JPG,,,,,,,,,,,,,,,,,0,5,5,9,,,,,,,AMSA20.jpg,AMNE10.jpg,AMNE03.jpg,AMSA18.jpg,AMSA20.jpg,MS,2,num_8,32,num_6,1.20012649987,,,2017_Sep_13_1410,60.0120301633,MAFE4ImagesEEG,001,101498,
AFNE01.JPG,AFNE01.JPG,AFNE01.JPG,AFNE01.JPG,AFNE01.JPG,AFNE01.JPG,,,,,,,,,,,,,,,,,0,6,6,3,,,,,,,AMSA15.jpg,AMNE05.jpg,AMSA09.jpg,AMNE03.jpg,AMNE05.jpg,MN,1,num_6,32,num_4,1.01675512129,,,2017_Sep_13_1410,60.0120301633,MAFE4ImagesEEG,001,101498,
AFNE01.JPG,AFNE01.JPG,AFNE01.JPG,AFNE01.JPG,AFNE01.JPG,AFNE01.JPG,,,,,,,,,,,,,,,,,0,7,7,2,,,,,,,AMSA10.jpg,AMNE02.jpg,AMNE07.jpg,AMSA08.jpg,AMSA08.jpg,MS,2,num_4,32,num_6,1.43342678621,,,2017_Sep_13_1410,60.0120301633,MAFE4ImagesEEG,001,101498,
AFNE01.JPG,AFNE01.JPG,AFNE01.JPG,AFNE01.JPG,AFNE01.JPG,AFNE01.JPG,,,,,,,,,,,,,,,,,0,8,8,6,,,,,,,AMNE19.jpg,AMSA12.jpg,AMNE04.jpg,AMSA15.jpg,AMSA15.jpg,MS,2,num_4,16,num_4,1.01675576274,,,2017_Sep_13_1410,60.0120301633,MAFE4ImagesEEG,001,101498,
AFNE01.JPG,AFNE01.JPG,AFNE01.JPG,AFNE01.JPG,AFNE01.JPG,AFNE01.JPG,,,,,,,,,,,,,,,,,0,9,9,0,,,,,,,AMSA19.jpg,AMNE04.jpg,AMNE18.jpg,AMSA14.jpg,AMNE04.jpg,MN,1,num_6,16,num_6,1.10013750102,,,2017_Sep_13_1410,60.0120301633,MAFE4ImagesEEG,001,101498,
AFNE01.JPG,AFNE01.JPG,AFNE01.JPG,AFNE01.JPG,AFNE01.JPG,AFNE01.JPG,,,,,,,,,,,,,,,,,1,0,10,2,,,,,,,AMSA05.jpg,AMNE13.jpg,AMSA02.jpg,AMNE16.jpg,AMNE16.jpg,MN,1,num_4,32,num_6,1.26663925406,,,2017_Sep_13_1410,60.0120301633,MAFE4ImagesEEG,001,101498,
AFNE01.JPG,AFNE01.JPG,AFNE01.JPG,AFNE01.JPG,AFNE01.JPG,AFNE01.JPG,,,,,,,,,,,,,,,,,1,1,11,6,,,,,,,AMSA20.jpg,AMNE19.jpg,AMSA06.jpg,AMNE05.jpg,AMSA06.jpg,MS,2,num_2,32,num_8,1.65004924964,,,2017_Sep_13_1410,60.0120301633,MAFE4ImagesEEG,001,101498,
AFNE01.JPG,AFNE01.JPG,AFNE01.JPG,AFNE01.JPG,AFNE01.JPG,AFNE01.JPG,,,,,,,,,,,,,,,,,1,2,12,1,,,,,,,AMNE18.jpg,AMNE07.jpg,AMSA14.jpg,AMSA04.jpg,AMNE07.jpg,MN,1,num_6,16,num_6,1.1834364885,,,2017_Sep_13_1410,60.0120301633,MAFE4ImagesEEG,001,101498,
AFNE01.JPG,AFNE01.JPG,AFNE01.JPG,AFNE01.JPG,AFNE01.JPG,AFNE01.JPG,,,,,,,,,,,,,,,,,1,3,13,4,,,,,,,AMSA05.jpg,AMNE13.jpg,AMNE01.jpg,AMSA18.jpg,AMNE01.jpg,MN,1,num_2,16,num_2,1.16711757309,,,2017_Sep_13_1410,60.0120301633,MAFE4ImagesEEG,001,101498,
AFNE01.JPG,AFNE01.JPG,AFNE01.JPG,AFNE01.JPG,AFNE01.JPG,AFNE01.JPG,,,,,,,,,,,,,,,,,1,4,14,3,,,,,,,AMNE02.jpg,AMSA08.jpg,AMNE01.jpg,AMSA12.jpg,AMNE02.jpg,MN,1,num_8,32,num_2,1.05011942727,,,2017_Sep_13_1410,60.0120301633,MAFE4ImagesEEG,001,101498,
AFNE01.JPG,AFNE01.JPG,AFNE01.JPG,AFNE01.JPG,AFNE01.JPG,AFNE01.JPG,,,,,,,,,,,,,,,,,1,5,15,5,,,,,,,AMNE08.jpg,AMNE15.jpg,AMSA10.jpg,AMSA12.jpg,AMSA10.jpg,MS,2,num_2,32,num_6,1.33330885042,,,2017_Sep_13_1410,60.0120301633,MAFE4ImagesEEG,001,101498,
AFNE01.JPG,AFNE01.JPG,AFNE01.JPG,AFNE01.JPG,AFNE01.JPG,AFNE01.JPG,,,,,,,,,,,,,,,,,1,6,16,9,,,,,,,AMNE17.jpg,AMSA01.jpg,AMSA04.jpg,AMNE20.jpg,AMNE17.jpg,MN,1,num_8,32,num_2,0.966802478535,,,2017_Sep_13_1410,60.0120301633,MAFE4ImagesEEG,001,101498,
AFNE01.JPG,AFNE01.JPG,AFNE01.JPG,AFNE01.JPG,AFNE01.JPG,AFNE01.JPG,,,,,,,,,,,,,,,,,1,7,17,7,,,,,,,AMNE14.jpg,AMNE03.jpg,AMSA06.jpg,AMSA11.jpg,AMNE14.jpg,MN,1,num_8,32,num_2,1.7166902998,,,2017_Sep_13_1410,60.0120301633,MAFE4ImagesEEG,001,101498,
AFNE01.JPG,AFNE01.JPG,AFNE01.JPG,AFNE01.JPG,AFNE01.JPG,AFNE01.JPG,,,,,,,,,,,,,,,,,1,8,18,8,,,,,,,AMSA09.jpg,AMNE01.jpg,AMNE07.jpg,AMSA04.jpg,AMNE01.jpg,MN,1,num_6,32,num_2,1.06676293118,,,2017_Sep_13_1410,60.0120301633,MAFE4ImagesEEG,001,101498,
AFNE01.JPG,AFNE01.JPG,AFNE01.JPG,AFNE01.JPG,AFNE01.JPG,AFNE01.JPG,,,,,,,,,,,,,,,,,1,9,19,0,,,,,,,AMNE04.jpg,AMNE13.jpg,AMSA18.jpg,AMSA01.jpg,AMNE04.jpg,MN,1,num_8,16,num_8,0.966782272095,,,2017_Sep_13_1410,60.0120301633,MAFE4ImagesEEG,001,101498,
AFNE01.JPG,AFNE01.JPG,AFNE01.JPG,AFNE01.JPG,AFNE01.JPG,AFNE01.JPG,,,,,,,,,,,,,,,,,2,0,20,2,,,,,,,AMNE17.jpg,AMSA09.jpg,AMNE14.jpg,AMSA05.jpg,AMSA05.jpg,MS,2,num_4,16,num_4,1.18344707298,,,2017_Sep_13_1410,60.0120301633,MAFE4ImagesEEG,001,101498,
AFNE01.JPG,AFNE01.JPG,AFNE01.JPG,AFNE01.JPG,AFNE01.JPG,AFNE01.JPG,,,,,,,,,,,,,,,,,2,1,21,5,,,,,,,AMNE10.jpg,AMSA11.jpg,AMSA02.jpg,AMNE07.jpg,AMNE10.jpg,MN,1,num_8,32,num_4,0.950003416045,,,2017_Sep_13_1410,60.0120301633,MAFE4ImagesEEG,001,101498,
AFNE01.JPG,AFNE01.JPG,AFNE01.JPG,AFNE01.JPG,AFNE01.JPG,AFNE01.JPG,,,,,,,,,,,,,,,,,2,2,22,9,,,,,,,AMSA04.jpg,AMNE03.jpg,AMNE11.jpg,AMSA14.jpg,AMNE11.jpg,MN,1,num_2,32,num_8,1.68344402593,,,2017_Sep_13_1410,60.0120301633,MAFE4ImagesEEG,001,101498,
AFNE01.JPG,AFNE01.JPG,AFNE01.JPG,AFNE01.JPG,AFNE01.JPG,AFNE01.JPG,,,,,,,,,,,,,,,,,2,3,23,8,,,,,,,AMNE13.jpg,AMSA14.jpg,AMSA05.jpg,AMNE01.jpg,AMSA14.jpg,MS,2,num_6,32,num_4,1.13343509333,,,2017_Sep_13_1410,60.0120301633,MAFE4ImagesEEG,001,101498,
AFNE01.JPG,AFNE01.JPG,AFNE01.JPG,AFNE01.JPG,AFNE01.JPG,AFNE01.JPG,,,,,,,,,,,,,,,,,2,4,24,0,,,,,,,AMNE20.jpg,AMSA03.jpg,AMSA04.jpg,AMNE12.jpg,AMNE20.jpg,MN,1,num_8,16,num_8,1.28363717534,,,2017_Sep_13_1410,60.0120301633,MAFE4ImagesEEG,001,101498,
AFNE01.JPG,AFNE01.JPG,AFNE01.JPG,AFNE01.JPG,AFNE01.JPG,AFNE01.JPG,,,,,,,,,,,,,,,,,2,5,25,6,,,,,,,AMNE13.jpg,AMSA12.jpg,AMNE11.jpg,AMSA14.jpg,AMSA12.jpg,MS,2,num_6,16,num_6,1.13344599842,,,2017_Sep_13_1410,60.0120301633,MAFE4ImagesEEG,001,101498,
AFNE01.JPG,AFNE01.JPG,AFNE01.JPG,AFNE01.JPG,AFNE01.JPG,AFNE01.JPG,,,,,,,,,,,,,,,,,2,6,26,3,,,,,,,AMSA04.jpg,AMSA09.jpg,AMNE16.jpg,AMNE06.jpg,AMSA04.jpg,MS,2,num_8,32,num_4,1.21674915566,,,2017_Sep_13_1410,60.0120301633,MAFE4ImagesEEG,001,101498,
AFNE01.JPG,AFNE01.JPG,AFNE01.JPG,AFNE01.JPG,AFNE01.JPG,AFNE01.JPG,,,,,,,,,,,,,,,,,2,7,27,1,,,,,,,AMSA05.jpg,AMNE10.jpg,AMNE17.jpg,AMSA10.jpg,AMSA05.jpg,MS,2,num_8,16,num_8,1.11677202419,,,2017_Sep_13_1410,60.0120301633,MAFE4ImagesEEG,001,101498,
AFNE01.JPG,AFNE01.JPG,AFNE01.JPG,AFNE01.JPG,AFNE01.JPG,AFNE01.JPG,,,,,,,,,,,,,,,,,2,8,28,4,,,,,,,AMNE13.jpg,AMNE19.jpg,AMSA13.jpg,AMSA10.jpg,AMSA10.jpg,MS,2,num_4,32,num_2,1.1167450822,,,2017_Sep_13_1410,60.0120301633,MAFE4ImagesEEG,001,101498,
AFNE01.JPG,AFNE01.JPG,AFNE01.JPG,AFNE01.JPG,AFNE01.JPG,AFNE01.JPG,,,,,,,,,,,,,,,,,2,9,29,7,,,,,,,AMSA10.jpg,AMNE17.jpg,AMNE04.jpg,AMSA19.jpg,AMNE17.jpg,MN,1,num_6,16,num_6,0.966780668357,,,2017_Sep_13_1410,60.0120301633,MAFE4ImagesEEG,001,101498,
AFNE01.JPG,AFNE01.JPG,AFNE01.JPG,AFNE01.JPG,AFNE01.JPG,AFNE01.JPG,,,,,,,,,,,,,,,,,3,0,30,7,,,,,,,AMSA06.jpg,AMNE02.jpg,AMNE19.jpg,AMSA17.jpg,AMNE19.jpg,MN,1,num_2,32,num_4,0.916764198337,,,2017_Sep_13_1410,60.0120301633,MAFE4ImagesEEG,001,101498,
AFNE01.JPG,AFNE01.JPG,AFNE01.JPG,AFNE01.JPG,AFNE01.JPG,AFNE01.JPG,,,,,,,,,,,,,,,,,3,1,31,5,,,,,,,AMSA08.jpg,AMNE15.jpg,AMSA10.jpg,AMNE01.jpg,AMSA08.jpg,MS,2,num_8,32,num_4,1.88339379826,,,2017_Sep_13_1410,60.0120301633,MAFE4ImagesEEG,001,101498,
AFNE01.JPG,AFNE01.JPG,AFNE01.JPG,AFNE01.JPG,AFNE01.JPG,AFNE01.JPG,,,,,,,,,,,,,,,,,3,2,32,0,,,,,,,AMNE05.jpg,AMSA09.jpg,AMNE13.jpg,AMSA17.jpg,AMSA17.jpg,MS,2,num_4,32,num_8,1.4667689614,,,2017_Sep_13_1410,60.0120301633,MAFE4ImagesEEG,001,101498,
AFNE01.JPG,AFNE01.JPG,AFNE01.JPG,AFNE01.JPG,AFNE01.JPG,AFNE01.JPG,,,,,,,,,,,,,,,,,3,3,33,1,,,,,,,AMSA02.jpg,AMNE14.jpg,AMNE06.jpg,AMSA17.jpg,AMNE14.jpg,MN,1,num_6,32,num_2,1.0167794975,,,2017_Sep_13_1410,60.0120301633,MAFE4ImagesEEG,001,101498,
AFNE01.JPG,AFNE01.JPG,AFNE01.JPG,AFNE01.JPG,AFNE01.JPG,AFNE01.JPG,,,,,,,,,,,,,,,,,3,4,34,2,,,,,,,AMNE16.jpg,AMSA09.jpg,AMNE04.jpg,AMSA01.jpg,AMSA09.jpg,MS,2,num_6,32,num_4,0.95043288637,,,2017_Sep_13_1410,60.0120301633,MAFE4ImagesEEG,001,101498,
AFNE01.JPG,AFNE01.JPG,AFNE01.JPG,AFNE01.JPG,AFNE01.JPG,AFNE01.JPG,,,,,,,,,,,,,,,,,3,5,35,6,,,,,,,AMNE05.jpg,AMSA17.jpg,AMNE11.jpg,AMSA08.jpg,AMSA17.jpg,MS,2,num_6,16,num_6,0.933460303582,,,2017_Sep_13_1410,60.0120301633,MAFE4ImagesEEG,001,101498,
AFNE01.JPG,AFNE01.JPG,AFNE01.JPG,AFNE01.JPG,AFNE01.JPG,AFNE01.JPG,,,,,,,,,,,,,,,,,3,6,36,9,,,,,,,AMNE17.jpg,AMSA15.jpg,AMNE11.jpg,AMSA08.jpg,AMNE17.jpg,MN,1,num_8,16,num_8,0.900136731332,,,2017_Sep_13_1410,60.0120301633,MAFE4ImagesEEG,001,101498,
AFNE01.JPG,AFNE01.JPG,AFNE01.JPG,AFNE01.JPG,AFNE01.JPG,AFNE01.JPG,,,,,,,,,,,,,,,,,3,7,37,4,,,,,,,AMNE12.jpg,AMNE09.jpg,AMSA12.jpg,AMSA10.jpg,AMNE12.jpg,MN,1,num_8,32,num_4,1.71668965835,,,2017_Sep_13_1410,60.0120301633,MAFE4ImagesEEG,001,101498,
AFNE01.JPG,AFNE01.JPG,AFNE01.JPG,AFNE01.JPG,AFNE01.JPG,AFNE01.JPG,,,,,,,,,,,,,,,,,3,8,38,8,,,,,,,AMSA04.jpg,AMSA08.jpg,AMNE12.jpg,AMNE19.jpg,AMNE19.jpg,MN,1,num_4,32,num_8,1.20008448302,,,2017_Sep_13_1410,60.0120301633,MAFE4ImagesEEG,001,101498,
AFNE01.JPG,AFNE01.JPG,AFNE01.JPG,AFNE01.JPG,AFNE01.JPG,AFNE01.JPG,,,,,,,,,,,,,,,,,3,9,39,3,,,,,,,AMSA01.jpg,AMNE11.jpg,AMSA18.jpg,AMNE04.jpg,AMSA01.jpg,MS,2,num_8,16,num_8,2.10002043098,,,2017_Sep_13_1410,60.0120301633,MAFE4ImagesEEG,001,101498,
AFNE01.JPG,AFNE01.JPG,AFNE01.JPG,AFNE01.JPG,AFNE01.JPG,AFNE01.JPG,,,,,,,,,,,,,,,,,4,0,40,8,,,,,,,AMSA04.jpg,AMSA06.jpg,AMNE15.jpg,AMNE09.jpg,AMSA04.jpg,MS,2,num_8,32,num_2,0.783462853404,,,2017_Sep_13_1410,60.0120301633,MAFE4ImagesEEG,001,101498,
AFNE01.JPG,AFNE01.JPG,AFNE01.JPG,AFNE01.JPG,AFNE01.JPG,AFNE01.JPG,,,,,,,,,,,,,,,,,4,1,41,1,,,,,,,AMSA07.jpg,AMSA06.jpg,AMNE13.jpg,AMNE17.jpg,AMNE13.jpg,MN,1,num_2,32,num_8,1.70005513495,,,2017_Sep_13_1410,60.0120301633,MAFE4ImagesEEG,001,101498,
AFNE01.JPG,AFNE01.JPG,AFNE01.JPG,AFNE01.JPG,AFNE01.JPG,AFNE01.JPG,,,,,,,,,,,,,,,,,4,2,42,5,,,,,,,AMSA09.jpg,AMNE17.jpg,AMNE03.jpg,AMSA20.jpg,AMSA09.jpg,MS,2,num_8,32,num_2,1.66642269073,,,2017_Sep_13_1410,60.0120301633,MAFE4ImagesEEG,001,101498,
AFNE01.JPG,AFNE01.JPG,AFNE01.JPG,AFNE01.JPG,AFNE01.JPG,AFNE01.JPG,,,,,,,,,,,,,,,,,4,3,43,3,,,,,,,AMNE20.jpg,AMNE15.jpg,AMSA17.jpg,AMSA13.jpg,AMSA13.jpg,MS,2,num_4,32,num_8,1.63338778424,,,2017_Sep_13_1410,60.0120301633,MAFE4ImagesEEG,001,101498,
AFNE01.JPG,AFNE01.JPG,AFNE01.JPG,AFNE01.JPG,AFNE01.JPG,AFNE01.JPG,,,,,,,,,,,,,,,,,4,4,44,7,,,,,,,AMSA17.jpg,AMNE13.jpg,AMNE14.jpg,AMSA05.jpg,AMSA05.jpg,MS,2,num_4,16,num_4,1.06677768542,,,2017_Sep_13_1410,60.0120301633,MAFE4ImagesEEG,001,101498,
AFNE01.JPG,AFNE01.JPG,AFNE01.JPG,AFNE01.JPG,AFNE01.JPG,AFNE01.JPG,,,,,,,,,,,,,,,,,4,5,45,6,,,,,,,AMSA05.jpg,AMSA16.jpg,AMNE12.jpg,AMNE05.jpg,AMNE05.jpg,MN,1,num_4,32,num_2,1.1835006366,,,2017_Sep_13_1410,60.0120301633,MAFE4ImagesEEG,001,101498,
AFNE01.JPG,AFNE01.JPG,AFNE01.JPG,AFNE01.JPG,AFNE01.JPG,AFNE01.JPG,,,,,,,,,,,,,,,,,4,6,46,9,,,,,,,AMSA18.jpg,AMSA09.jpg,AMNE08.jpg,AMNE13.jpg,AMNE13.jpg,MN,1,num_4,32,num_2,1.35008770623,,,2017_Sep_13_1410,60.0120301633,MAFE4ImagesEEG,001,101498,
AFNE01.JPG,AFNE01.JPG,AFNE01.JPG,AFNE01.JPG,AFNE01.JPG,AFNE01.JPG,,,,,,,,,,,,,,,,,4,7,47,2,,,,,,,AMSA19.jpg,AMNE17.jpg,AMSA10.jpg,AMNE19.jpg,AMSA19.jpg,MS,2,num_8,16,num_8,1.25012372527,,,2017_Sep_13_1410,60.0120301633,MAFE4ImagesEEG,001,101498,
AFNE01.JPG,AFNE01.JPG,AFNE01.JPG,AFNE01.JPG,AFNE01.JPG,AFNE01.JPG,,,,,,,,,,,,,,,,,4,8,48,0,,,,,,,AMNE04.jpg,AMNE08.jpg,AMSA11.jpg,AMSA10.jpg,AMSA10.jpg,MS,2,num_4,32,num_2,0.716805124655,,,2017_Sep_13_1410,60.0120301633,MAFE4ImagesEEG,001,101498,
AFNE01.JPG,AFNE01.JPG,AFNE01.JPG,AFNE01.JPG,AFNE01.JPG,AFNE01.JPG,,,,,,,,,,,,,,,,,4,9,49,4,,,,,,,AMSA16.jpg,AMNE12.jpg,AMSA17.jpg,AMNE10.jpg,AMNE10.jpg,MN,1,num_4,32,num_6,1.06678987364,,,2017_Sep_13_1410,60.0120301633,MAFE4ImagesEEG,001,101498,
AFNE01.JPG,AFNE01.JPG,AFNE01.JPG,AFNE01.JPG,AFNE01.JPG,AFNE01.JPG,,,,,,,,,,,,,,,,,5,0,50,0,,,,,,,AMSA14.jpg,AMNE20.jpg,AMNE04.jpg,AMSA03.jpg,AMSA14.jpg,MS,2,num_8,16,num_8,1.46672983118,,,2017_Sep_13_1410,60.0120301633,MAFE4ImagesEEG,001,101498,
AFNE01.JPG,AFNE01.JPG,AFNE01.JPG,AFNE01.JPG,AFNE01.JPG,AFNE01.JPG,,,,,,,,,,,,,,,,,5,1,51,2,,,,,,,AMSA15.jpg,AMNE07.jpg,AMNE08.jpg,AMSA02.jpg,AMNE07.jpg,MN,1,num_6,32,num_2,1.11686151079,,,2017_Sep_13_1410,60.0120301633,MAFE4ImagesEEG,001,101498,
AFNE01.JPG,AFNE01.JPG,AFNE01.JPG,AFNE01.JPG,AFNE01.JPG,AFNE01.JPG,,,,,,,,,,,,,,,,,5,2,52,8,,,,,,,AMNE13.jpg,AMSA16.jpg,AMSA15.jpg,AMNE05.jpg,AMNE13.jpg,MN,1,num_8,32,num_4,1.38341833465,,,2017_Sep_13_1410,60.0120301633,MAFE4ImagesEEG,001,101498,
AFNE01.JPG,AFNE01.JPG,AFNE01.JPG,AFNE01.JPG,AFNE01.JPG,AFNE01.JPG,,,,,,,,,,,,,,,,,5,3,53,5,,,,,,,AMSA13.jpg,AMNE09.jpg,AMSA14.jpg,AMNE16.jpg,AMSA14.jpg,MS,2,num_2,16,num_2,1.00004105479,,,2017_Sep_13_1410,60.0120301633,MAFE4ImagesEEG,001,101498,
AFNE01.JPG,AFNE01.JPG,AFNE01.JPG,AFNE01.JPG,AFNE01.JPG,AFNE01.JPG,,,,,,,,,,,,,,,,,5,4,54,9,,,,,,,AMNE14.jpg,AMSA07.jpg,AMNE17.jpg,AMSA18.jpg,AMSA18.jpg,MS,2,num_4,32,num_6,1.31675419118,,,2017_Sep_13_1410,60.0120301633,MAFE4ImagesEEG,001,101498,
AFNE01.JPG,AFNE01.JPG,AFNE01.JPG,AFNE01.JPG,AFNE01.JPG,AFNE01.JPG,,,,,,,,,,,,,,,,,5,5,55,6,,,,,,,AMNE11.jpg,AMSA03.jpg,AMNE05.jpg,AMSA20.jpg,AMNE05.jpg,MN,1,num_2,16,num_2,1.30010202737,,,2017_Sep_13_1410,60.0120301633,MAFE4ImagesEEG,001,101498,
AFNE01.JPG,AFNE01.JPG,AFNE01.JPG,AFNE01.JPG,AFNE01.JPG,AFNE01.JPG,,,,,,,,,,,,,,,,,5,6,56,1,,,,,,,AMNE17.jpg,AMSA10.jpg,AMNE02.jpg,AMSA07.jpg,AMNE17.jpg,MN,1,num_8,16,num_8,0.866834327811,,,2017_Sep_13_1410,60.0120301633,MAFE4ImagesEEG,001,101498,
AFNE01.JPG,AFNE01.JPG,AFNE01.JPG,AFNE01.JPG,AFNE01.JPG,AFNE01.JPG,,,,,,,,,,,,,,,,,5,7,57,4,,,,,,,AMNE01.jpg,AMSA09.jpg,AMSA04.jpg,AMNE19.jpg,AMNE19.jpg,MN,1,num_4,16,num_4,1.00010648556,,,2017_Sep_13_1410,60.0120301633,MAFE4ImagesEEG,001,101498,
AFNE01.JPG,AFNE01.JPG,AFNE01.JPG,AFNE01.JPG,AFNE01.JPG,AFNE01.JPG,,,,,,,,,,,,,,,,,5,8,58,7,,,,,,,AMNE01.jpg,AMNE17.jpg,AMSA14.jpg,AMSA19.jpg,AMNE17.jpg,MN,1,num_6,16,num_6,0.916784084169,,,2017_Sep_13_1410,60.0120301633,MAFE4ImagesEEG,001,101498,
AFNE01.JPG,AFNE01.JPG,AFNE01.JPG,AFNE01.JPG,AFNE01.JPG,AFNE01.JPG,,,,,,,,,,,,,,,,,5,9,59,3,,,,,,,AMNE03.jpg,AMSA13.jpg,AMNE16.jpg,AMSA06.jpg,AMSA13.jpg,MS,2,num_6,32,num_2,0.966615487356,,,2017_Sep_13_1410,60.0120301633,MAFE4ImagesEEG,001,101498,
,,,,,,,,,,,,,,,,,,,,,,,,,,,,,,,,,,,,,,,,,,,space,10.2993604771,2017_Sep_13_1410,60.0120301633,MAFE4ImagesEEG,001,101498,
AFNE01.JPG,AFNE01.JPG,AFNE01.JPG,AFNE01.JPG,AFNE01.JPG,AFNE01.JPG,,,,,,,,,,,,,,,,,,,,,0,0,0,8,,,AFSA15.jpg,AFNE09.jpg,AFNE04.jpg,AFSA03.jpg,AFNE04.jpg,FN,3,num_2,32,num_6,0.950143258553,,,2017_Sep_13_1410,60.0120301633,MAFE4ImagesEEG,001,101498,
AFNE01.JPG,AFNE01.JPG,AFNE01.JPG,AFNE01.JPG,AFNE01.JPG,AFNE01.JPG,,,,,,,,,,,,,,,,,,,,,0,1,1,3,,,AFNE07.jpg,AFSA11.jpg,AFNE13.jpg,AFSA03.jpg,AFSA11.jpg,FS,4,num_6,16,num_6,0.866775953211,,,2017_Sep_13_1410,60.0120301633,MAFE4ImagesEEG,001,101498,
AFNE01.JPG,AFNE01.JPG,AFNE01.JPG,AFNE01.JPG,AFNE01.JPG,AFNE01.JPG,,,,,,,,,,,,,,,,,,,,,0,2,2,7,,,AFSA01.jpg,AFSA06.jpg,AFNE11.jpg,AFNE18.jpg,AFNE11.jpg,FN,3,num_2,16,num_2,0.816816895735,,,2017_Sep_13_1410,60.0120301633,MAFE4ImagesEEG,001,101498,
AFNE01.JPG,AFNE01.JPG,AFNE01.JPG,AFNE01.JPG,AFNE01.JPG,AFNE01.JPG,,,,,,,,,,,,,,,,,,,,,0,3,3,0,,,AFSA08.jpg,AFNE18.jpg,AFNE20.jpg,AFSA03.jpg,AFNE20.jpg,FN,3,num_2,32,num_8,0.866810593288,,,2017_Sep_13_1410,60.0120301633,MAFE4ImagesEEG,001,101498,
AFNE01.JPG,AFNE01.JPG,AFNE01.JPG,AFNE01.JPG,AFNE01.JPG,AFNE01.JPG,,,,,,,,,,,,,,,,,,,,,0,4,4,2,,,AFSA10.jpg,AFSA17.jpg,AFNE05.jpg,AFNE18.jpg,AFSA17.jpg,FS,4,num_6,32,num_4,1.31674970081,,,2017_Sep_13_1410,60.0120301633,MAFE4ImagesEEG,001,101498,
AFNE01.JPG,AFNE01.JPG,AFNE01.JPG,AFNE01.JPG,AFNE01.JPG,AFNE01.JPG,,,,,,,,,,,,,,,,,,,,,0,5,5,1,,,AFNE03.jpg,AFSA18.jpg,AFSA15.jpg,AFNE20.jpg,AFSA18.jpg,FS,4,num_6,16,num_6,4.03329470544,,,2017_Sep_13_1410,60.0120301633,MAFE4ImagesEEG,001,101498,
AFNE01.JPG,AFNE01.JPG,AFNE01.JPG,AFNE01.JPG,AFNE01.JPG,AFNE01.JPG,,,,,,,,,,,,,,,,,,,,,0,6,6,5,,,AFNE04.jpg,AFSA07.jpg,AFSA04.jpg,AFNE14.jpg,AFSA04.jpg,FS,4,num_2,16,num_2,0.966640504776,,,2017_Sep_13_1410,60.0120301633,MAFE4ImagesEEG,001,101498,
AFNE01.JPG,AFNE01.JPG,AFNE01.JPG,AFNE01.JPG,AFNE01.JPG,AFNE01.JPG,,,,,,,,,,,,,,,,,,,,,0,7,7,6,,,AFNE07.jpg,AFSA04.jpg,AFSA05.jpg,AFNE03.jpg,AFNE03.jpg,FN,3,num_4,16,num_4,1.41685480718,,,2017_Sep_13_1410,60.0120301633,MAFE4ImagesEEG,001,101498,
AFNE01.JPG,AFNE01.JPG,AFNE01.JPG,AFNE01.JPG,AFNE01.JPG,AFNE01.JPG,,,,,,,,,,,,,,,,,,,,,0,8,8,4,,,AFNE17.jpg,AFSA08.jpg,AFNE03.jpg,AFSA16.jpg,AFNE03.jpg,FN,3,num_2,32,num_6,1.05014829407,,,2017_Sep_13_1410,60.0120301633,MAFE4ImagesEEG,001,101498,
AFNE01.JPG,AFNE01.JPG,AFNE01.JPG,AFNE01.JPG,AFNE01.JPG,AFNE01.JPG,,,,,,,,,,,,,,,,,,,,,0,9,9,9,,,AFSA02.jpg,AFNE07.jpg,AFNE14.jpg,AFSA13.jpg,AFSA02.jpg,FS,4,num_8,16,num_8,0.833605053136,,,2017_Sep_13_1410,60.0120301633,MAFE4ImagesEEG,001,101498,
AFNE01.JPG,AFNE01.JPG,AFNE01.JPG,AFNE01.JPG,AFNE01.JPG,AFNE01.JPG,,,,,,,,,,,,,,,,,,,,,1,0,10,9,,,AFSA03.jpg,AFSA09.jpg,AFNE11.jpg,AFNE02.jpg,AFNE11.jpg,FN,3,num_2,32,num_6,1.06684985175,,,2017_Sep_13_1410,60.0120301633,MAFE4ImagesEEG,001,101498,
AFNE01.JPG,AFNE01.JPG,AFNE01.JPG,AFNE01.JPG,AFNE01.JPG,AFNE01.JPG,,,,,,,,,,,,,,,,,,,,,1,1,11,1,,,AFSA12.jpg,AFSA10.jpg,AFNE16.jpg,AFNE06.jpg,AFNE06.jpg,FN,3,num_4,32,num_6,1.65009190794,,,2017_Sep_13_1410,60.0120301633,MAFE4ImagesEEG,001,101498,
AFNE01.JPG,AFNE01.JPG,AFNE01.JPG,AFNE01.JPG,AFNE01.JPG,AFNE01.JPG,,,,,,,,,,,,,,,,,,,,,1,2,12,5,,,AFSA03.jpg,AFSA18.jpg,AFNE20.jpg,AFNE16.jpg,AFSA03.jpg,FS,4,num_8,32,num_4,1.23344365694,,,2017_Sep_13_1410,60.0120301633,MAFE4ImagesEEG,001,101498,
AFNE01.JPG,AFNE01.JPG,AFNE01.JPG,AFNE01.JPG,AFNE01.JPG,AFNE01.JPG,,,,,,,,,,,,,,,,,,,,,1,3,13,7,,,AFSA19.jpg,AFSA08.jpg,AFNE06.jpg,AFNE14.jpg,AFNE14.jpg,FN,3,num_4,16,num_4,0.916816478828,,,2017_Sep_13_1410,60.0120301633,MAFE4ImagesEEG,001,101498,
AFNE01.JPG,AFNE01.JPG,AFNE01.JPG,AFNE01.JPG,AFNE01.JPG,AFNE01.JPG,,,,,,,,,,,,,,,,,,,,,1,4,14,4,,,AFSA17.jpg,AFSA20.jpg,AFNE10.jpg,AFNE05.jpg,AFNE10.jpg,FN,3,num_2,16,num_2,1.21677289018,,,2017_Sep_13_1410,60.0120301633,MAFE4ImagesEEG,001,101498,
AFNE01.JPG,AFNE01.JPG,AFNE01.JPG,AFNE01.JPG,AFNE01.JPG,AFNE01.JPG,,,,,,,,,,,,,,,,,,,,,1,5,15,8,,,AFNE11.jpg,AFNE16.jpg,AFSA02.jpg,AFSA11.jpg,AFNE16.jpg,FN,3,num_6,16,num_6,1.15012863255,,,2017_Sep_13_1410,60.0120301633,MAFE4ImagesEEG,001,101498,
AFNE01.JPG,AFNE01.JPG,AFNE01.JPG,AFNE01.JPG,AFNE01.JPG,AFNE01.JPG,,,,,,,,,,,,,,,,,,,,,1,6,16,6,,,AFSA13.jpg,AFNE02.jpg,AFSA04.jpg,AFNE20.jpg,AFNE02.jpg,FN,3,num_6,16,num_6,2.50003415882,,,2017_Sep_13_1410,60.0120301633,MAFE4ImagesEEG,001,101498,
AFNE01.JPG,AFNE01.JPG,AFNE01.JPG,AFNE01.JPG,AFNE01.JPG,AFNE01.JPG,,,,,,,,,,,,,,,,,,,,,1,7,17,2,,,AFNE15.jpg,AFSA09.jpg,AFSA04.jpg,AFNE18.jpg,AFNE15.jpg,FN,3,num_8,16,num_8,1.20010853838,,,2017_Sep_13_1410,60.0120301633,MAFE4ImagesEEG,001,101498,
AFNE01.JPG,AFNE01.JPG,AFNE01.JPG,AFNE01.JPG,AFNE01.JPG,AFNE01.JPG,,,,,,,,,,,,,,,,,,,,,1,8,18,3,,,AFNE01.jpg,AFSA03.jpg,AFNE12.jpg,AFSA15.jpg,AFNE12.jpg,FN,3,num_2,16,num_2,0.766764182365,,,2017_Sep_13_1410,60.0120301633,MAFE4ImagesEEG,001,101498,
AFNE01.JPG,AFNE01.JPG,AFNE01.JPG,AFNE01.JPG,AFNE01.JPG,AFNE01.JPG,,,,,,,,,,,,,,,,,,,,,1,9,19,0,,,AFNE18.jpg,AFSA06.jpg,AFNE08.jpg,AFSA19.jpg,AFNE08.jpg,FN,3,num_2,32,num_4,2.66662988835,,,2017_Sep_13_1410,60.0120301633,MAFE4ImagesEEG,001,101498,
AFNE01.JPG,AFNE01.JPG,AFNE01.JPG,AFNE01.JPG,AFNE01.JPG,AFNE01.JPG,,,,,,,,,,,,,,,,,,,,,2,0,20,9,,,AFSA03.jpg,AFNE05.jpg,AFNE20.jpg,AFSA11.jpg,AFNE05.jpg,FN,3,num_6,32,num_4,1.25021449476,,,2017_Sep_13_1410,60.0120301633,MAFE4ImagesEEG,001,101498,
AFNE01.JPG,AFNE01.JPG,AFNE01.JPG,AFNE01.JPG,AFNE01.JPG,AFNE01.JPG,,,,,,,,,,,,,,,,,,,,,2,1,21,4,,,AFSA19.jpg,AFNE16.jpg,AFSA04.jpg,AFNE09.jpg,AFSA04.jpg,FS,4,num_2,32,num_8,2.116728083,,,2017_Sep_13_1410,60.0120301633,MAFE4ImagesEEG,001,101498,
AFNE01.JPG,AFNE01.JPG,AFNE01.JPG,AFNE01.JPG,AFNE01.JPG,AFNE01.JPG,,,,,,,,,,,,,,,,,,,,,2,2,22,3,,,AFNE09.jpg,AFSA13.jpg,AFSA01.jpg,AFNE02.jpg,AFNE09.jpg,FN,3,num_8,32,num_4,0.983469075756,,,2017_Sep_13_1410,60.0120301633,MAFE4ImagesEEG,001,101498,
AFNE01.JPG,AFNE01.JPG,AFNE01.JPG,AFNE01.JPG,AFNE01.JPG,AFNE01.JPG,,,,,,,,,,,,,,,,,,,,,2,3,23,1,,,AFSA03.jpg,AFNE20.jpg,AFSA19.jpg,AFNE01.jpg,AFNE01.jpg,FN,3,num_4,32,num_6,0.866809310392,,,2017_Sep_13_1410,60.0120301633,MAFE4ImagesEEG,001,101498,
AFNE01.JPG,AFNE01.JPG,AFNE01.JPG,AFNE01.JPG,AFNE01.JPG,AFNE01.JPG,,,,,,,,,,,,,,,,,,,,,2,4,24,6,,,AFNE02.jpg,AFSA16.jpg,AFSA08.jpg,AFNE03.jpg,AFSA08.jpg,FS,4,num_2,16,num_2,0.983511734055,,,2017_Sep_13_1410,60.0120301633,MAFE4ImagesEEG,001,101498,
AFNE01.JPG,AFNE01.JPG,AFNE01.JPG,AFNE01.JPG,AFNE01.JPG,AFNE01.JPG,,,,,,,,,,,,,,,,,,,,,2,5,25,0,,,AFSA16.jpg,AFSA13.jpg,AFNE19.jpg,AFNE14.jpg,AFNE14.jpg,FN,3,num_4,32,num_8,1.8666941647,,,2017_Sep_13_1410,60.0120301633,MAFE4ImagesEEG,001,101498,
AFNE01.JPG,AFNE01.JPG,AFNE01.JPG,AFNE01.JPG,AFNE01.JPG,AFNE01.JPG,,,,,,,,,,,,,,,,,,,,,2,6,26,5,,,AFNE02.jpg,AFNE05.jpg,AFSA12.jpg,AFSA17.jpg,AFSA12.jpg,FS,4,num_2,16,num_2,0.883465964347,,,2017_Sep_13_1410,60.0120301633,MAFE4ImagesEEG,001,101498,
AFNE01.JPG,AFNE01.JPG,AFNE01.JPG,AFNE01.JPG,AFNE01.JPG,AFNE01.JPG,,,,,,,,,,,,,,,,,,,,,2,7,27,2,,,AFSA12.jpg,AFNE10.jpg,AFNE16.jpg,AFSA02.jpg,AFNE10.jpg,FN,3,num_6,32,num_2,1.81672580563,,,2017_Sep_13_1410,60.0120301633,MAFE4ImagesEEG,001,101498,
AFNE01.JPG,AFNE01.JPG,AFNE01.JPG,AFNE01.JPG,AFNE01.JPG,AFNE01.JPG,,,,,,,,,,,,,,,,,,,,,2,8,28,7,,,AFSA16.jpg,AFSA19.jpg,AFNE17.jpg,AFNE10.jpg,AFSA19.jpg,FS,4,num_6,16,num_6,1.44993622089,,,2017_Sep_13_1410,60.0120301633,MAFE4ImagesEEG,001,101498,
AFNE01.JPG,AFNE01.JPG,AFNE01.JPG,AFNE01.JPG,AFNE01.JPG,AFNE01.JPG,,,,,,,,,,,,,,,,,,,,,2,9,29,8,,,AFSA02.jpg,AFNE08.jpg,AFNE03.jpg,AFSA14.jpg,AFNE08.jpg,FN,3,num_6,16,num_6,1.15017802641,,,2017_Sep_13_1410,60.0120301633,MAFE4ImagesEEG,001,101498,
AFNE01.JPG,AFNE01.JPG,AFNE01.JPG,AFNE01.JPG,AFNE01.JPG,AFNE01.JPG,,,,,,,,,,,,,,,,,,,,,3,0,30,7,,,AFNE05.jpg,AFSA13.jpg,AFSA05.jpg,AFNE09.jpg,AFSA05.jpg,FS,4,num_2,16,num_2,0.816779369256,,,2017_Sep_13_1410,60.0120301633,MAFE4ImagesEEG,001,101498,
AFNE01.JPG,AFNE01.JPG,AFNE01.JPG,AFNE01.JPG,AFNE01.JPG,AFNE01.JPG,,,,,,,,,,,,,,,,,,,,,3,1,31,9,,,AFNE14.jpg,AFNE20.jpg,AFSA15.jpg,AFSA17.jpg,AFNE20.jpg,FN,3,num_6,32,num_4,1.36675783154,,,2017_Sep_13_1410,60.0120301633,MAFE4ImagesEEG,001,101498,
AFNE01.JPG,AFNE01.JPG,AFNE01.JPG,AFNE01.JPG,AFNE01.JPG,AFNE01.JPG,,,,,,,,,,,,,,,,,,,,,3,2,32,0,,,AFNE15.jpg,AFNE19.jpg,AFSA11.jpg,AFSA13.jpg,AFSA11.jpg,FS,4,num_2,16,num_2,0.716824369039,,,2017_Sep_13_1410,60.0120301633,MAFE4ImagesEEG,001,101498,
AFNE01.JPG,AFNE01.JPG,AFNE01.JPG,AFNE01.JPG,AFNE01.JPG,AFNE01.JPG,,,,,,,,,,,,,,,,,,,,,3,3,33,4,,,AFSA18.jpg,AFNE18.jpg,AFSA09.jpg,AFNE12.jpg,AFSA18.jpg,FS,4,num_8,32,num_6,0.916664768942,,,2017_Sep_13_1410,60.0120301633,MAFE4ImagesEEG,001,101498,
AFNE01.JPG,AFNE01.JPG,AFNE01.JPG,AFNE01.JPG,AFNE01.JPG,AFNE01.JPG,,,,,,,,,,,,,,,,,,,,,3,4,34,8,,,AFNE08.jpg,AFSA03.jpg,AFSA12.jpg,AFNE18.jpg,AFNE08.jpg,FN,3,num_8,32,num_4,0.916791461175,,,2017_Sep_13_1410,60.0120301633,MAFE4ImagesEEG,001,101498,
AFNE01.JPG,AFNE01.JPG,AFNE01.JPG,AFNE01.JPG,AFNE01.JPG,AFNE01.JPG,,,,,,,,,,,,,,,,,,,,,3,5,35,3,,,AFNE18.jpg,AFSA01.jpg,AFNE02.jpg,AFSA10.jpg,AFNE18.jpg,FN,3,num_8,16,num_8,1.2333240211,,,2017_Sep_13_1410,60.0120301633,MAFE4ImagesEEG,001,101498,
AFNE01.JPG,AFNE01.JPG,AFNE01.JPG,AFNE01.JPG,AFNE01.JPG,AFNE01.JPG,,,,,,,,,,,,,,,,,,,,,3,6,36,5,,,AFSA12.jpg,AFNE01.jpg,AFSA20.jpg,AFNE20.jpg,AFNE20.jpg,FN,3,num_4,32,num_2,1.71673231688,,,2017_Sep_13_1410,60.0120301633,MAFE4ImagesEEG,001,101498,
AFNE01.JPG,AFNE01.JPG,AFNE01.JPG,AFNE01.JPG,AFNE01.JPG,AFNE01.JPG,,,,,,,,,,,,,,,,,,,,,3,7,37,6,,,AFSA14.jpg,AFNE11.jpg,AFSA15.jpg,AFNE09.jpg,AFSA14.jpg,FS,4,num_8,16,num_8,1.13344567781,,,2017_Sep_13_1410,60.0120301633,MAFE4ImagesEEG,001,101498,
AFNE01.JPG,AFNE01.JPG,AFNE01.JPG,AFNE01.JPG,AFNE01.JPG,AFNE01.JPG,,,,,,,,,,,,,,,,,,,,,3,8,38,2,,,AFSA20.jpg,AFNE16.jpg,AFSA11.jpg,AFNE10.jpg,AFNE10.jpg,FN,3,num_4,32,num_6,1.10004384513,,,2017_Sep_13_1410,60.0120301633,MAFE4ImagesEEG,001,101498,
AFNE01.JPG,AFNE01.JPG,AFNE01.JPG,AFNE01.JPG,AFNE01.JPG,AFNE01.JPG,,,,,,,,,,,,,,,,,,,,,3,9,39,1,,,AFSA15.jpg,AFNE03.jpg,AFSA12.jpg,AFNE18.jpg,AFNE03.jpg,FN,3,num_6,32,num_2,1.46684305207,,,2017_Sep_13_1410,60.0120301633,MAFE4ImagesEEG,001,101498,
