IPosition2,IPosition3,IPosition1,IPosition6,IPosition4,IPosition5,TrialsM1.thisRepN,TrialsM1.thisTrialN,TrialsM1.thisN,TrialsM1.thisIndex,TrialsF1.thisRepN,TrialsF1.thisTrialN,TrialsF1.thisN,TrialsF1.thisIndex,TrialsM2.thisRepN,TrialsM2.thisTrialN,TrialsM2.thisN,TrialsM2.thisIndex,TrialsF2.thisRepN,TrialsF2.thisTrialN,TrialsF2.thisN,TrialsF2.thisIndex,TrialsM3.thisRepN,TrialsM3.thisTrialN,TrialsM3.thisN,TrialsM3.thisIndex,TrialsF3.thisRepN,TrialsF3.thisTrialN,TrialsF3.thisN,TrialsF3.thisIndex,InstrKey_resp.keys,InstrKey_resp.rt,Image0 _Position,Image1 _Position,Image2 _Position,Image3 _Position,Center_image,condition,code,correct_answer,accuracy,Key_Resp.keys,Key_Resp.rt,BreakKey_resp.keys,BreakKey_resp.rt,date,frameRate,expName,session,participant,
,,,,,,,,,,,,,,,,,,,,,,,,,,,,,,space,16.0159625633,,,,,,,,,,,,,,2017_Aug_30_1208,60.0029445325,MAFE4ImagesEEG,001,101459,
AFNE22.JPG,AFSA24.JPG,AFSA22.JPG,AFNE25.JPG,AFNE24.JPG,AFSA25.JPG,0,0,0,6,,,,,,,,,,,,,,,,,,,,,,,AMNE10.jpg,AMNE06.jpg,AMSA14.jpg,AMSA17.jpg,AMSA17.jpg,MS,2,num_4,32,num_8,1.31686432235,,,2017_Aug_30_1208,60.0029445325,MAFE4ImagesEEG,001,101459,
AMSA25.JPG,AMNE24.JPG,AMSA24.JPG,AMNE26.JPG,AMSA21.JPG,AMNE25.JPG,0,1,1,3,,,,,,,,,,,,,,,,,,,,,,,AMSA14.jpg,AMNE10.jpg,AMNE09.jpg,AMSA09.jpg,AMNE10.jpg,MN,1,num_6,16,num_6,0.866740436759,,,2017_Aug_30_1208,60.0029445325,MAFE4ImagesEEG,001,101459,
AMNE23.JPG,AMNE24.JPG,AMNE22.JPG,AMSA24.JPG,AMSA22.JPG,AMSA23.JPG,0,2,2,9,,,,,,,,,,,,,,,,,,,,,,,AMNE03.jpg,AMSA06.jpg,AMSA15.jpg,AMNE17.jpg,AMSA15.jpg,MS,2,num_2,16,num_2,1.93338593462,,,2017_Aug_30_1208,60.0029445325,MAFE4ImagesEEG,001,101459,
AFSA21.JPG,AFNE22.JPG,AFNE21.JPG,AFSA23.JPG,AFSA22.JPG,AFNE23.JPG,0,3,3,0,,,,,,,,,,,,,,,,,,,,,,,AMNE11.jpg,AMSA18.jpg,AMNE06.jpg,AMSA20.jpg,AMSA20.jpg,MS,2,num_4,32,num_8,2.06667725107,,,2017_Aug_30_1208,60.0029445325,MAFE4ImagesEEG,001,101459,
AFSA21.JPG,AFNE23.JPG,AFNE21.JPG,AFSA25.JPG,AFNE25.JPG,AFSA23.JPG,0,4,4,4,,,,,,,,,,,,,,,,,,,,,,,AMNE06.jpg,AMSA06.jpg,AMNE02.jpg,AMSA10.jpg,AMSA06.jpg,MS,2,num_6,16,num_6,1.6167220744,,,2017_Aug_30_1208,60.0029445325,MAFE4ImagesEEG,001,101459,
AFNE23.JPG,AFNE24.JPG,AFNE22.JPG,AFSA24.JPG,AFSA22.JPG,AFSA23.JPG,0,5,5,8,,,,,,,,,,,,,,,,,,,,,,,AMNE05.jpg,AMNE20.jpg,AMSA06.jpg,AMSA10.jpg,AMNE20.jpg,MN,1,num_6,32,num_2,2.13308476022,,,2017_Aug_30_1208,60.0029445325,MAFE4ImagesEEG,001,101459,
AFSA25.JPG,AFNE24.JPG,AFSA24.JPG,AFNE21.JPG,AFSA21.JPG,AFNE25.JPG,0,6,6,2,,,,,,,,,,,,,,,,,,,,,,,AMSA19.jpg,AMSA12.jpg,AMNE04.jpg,AMNE10.jpg,AMSA19.jpg,MS,2,num_8,16,num_8,1.1500964624,,,2017_Aug_30_1208,60.0029445325,MAFE4ImagesEEG,001,101459,
AMNE22.JPG,AMSA24.JPG,AMSA22.JPG,AMNE25.JPG,AMNE24.JPG,AMSA25.JPG,0,7,7,7,,,,,,,,,,,,,,,,,,,,,,,AMNE13.jpg,AMSA03.jpg,AMSA10.jpg,AMNE06.jpg,AMNE06.jpg,MN,1,num_4,32,num_6,1.25005749252,,,2017_Aug_30_1208,60.0029445325,MAFE4ImagesEEG,001,101459,
AMSA21.JPG,AMNE23.JPG,AMNE21.JPG,AMSA25.JPG,AMNE25.JPG,AMSA23.JPG,0,8,8,5,,,,,,,,,,,,,,,,,,,,,,,AMSA14.jpg,AMNE16.jpg,AMSA01.jpg,AMNE02.jpg,AMNE02.jpg,MN,1,num_4,16,num_4,1.2667157398,,,2017_Aug_30_1208,60.0029445325,MAFE4ImagesEEG,001,101459,
AMSA21.JPG,AMNE22.JPG,AMNE21.JPG,AMSA23.JPG,AMSA22.JPG,AMNE23.JPG,0,9,9,1,,,,,,,,,,,,,,,,,,,,,,,AMNE13.jpg,AMNE16.jpg,AMSA14.jpg,AMSA17.jpg,AMNE13.jpg,MN,1,num_8,16,num_8,1.65010816942,,,2017_Aug_30_1208,60.0029445325,MAFE4ImagesEEG,001,101459,
AMNE23.JPG,AMNE24.JPG,AMNE22.JPG,AMSA24.JPG,AMSA22.JPG,AMSA23.JPG,,,,,0,0,0,9,,,,,,,,,,,,,,,,,,,AFNE18.jpg,AFSA02.jpg,AFSA05.jpg,AFNE03.jpg,AFNE03.jpg,FN,3,num_4,32,num_2,1.43342682888,,,2017_Aug_30_1208,60.0029445325,MAFE4ImagesEEG,001,101459,
AFNE22.JPG,AFSA24.JPG,AFSA22.JPG,AFNE25.JPG,AFNE24.JPG,AFSA25.JPG,,,,,0,1,1,6,,,,,,,,,,,,,,,,,,,AFSA05.jpg,AFNE04.jpg,AFSA10.jpg,AFNE07.jpg,AFNE07.jpg,FN,3,num_4,16,num_4,1.01675062021,,,2017_Aug_30_1208,60.0029445325,MAFE4ImagesEEG,001,101459,
AMSA25.JPG,AMNE24.JPG,AMSA24.JPG,AMNE26.JPG,AMSA21.JPG,AMNE25.JPG,,,,,0,2,2,3,,,,,,,,,,,,,,,,,,,AFNE05.jpg,AFSA20.jpg,AFSA17.jpg,AFNE07.jpg,AFNE05.jpg,FN,3,num_8,32,num_6,1.10012300359,,,2017_Aug_30_1208,60.0029445325,MAFE4ImagesEEG,001,101459,
AMSA21.JPG,AMNE22.JPG,AMNE21.JPG,AMSA23.JPG,AMSA22.JPG,AMNE23.JPG,,,,,0,3,3,1,,,,,,,,,,,,,,,,,,,AFSA06.jpg,AFNE14.jpg,AFNE01.jpg,AFSA15.jpg,AFNE01.jpg,FN,3,num_2,16,num_2,1.91672255553,,,2017_Aug_30_1208,60.0029445325,MAFE4ImagesEEG,001,101459,
AMNE22.JPG,AMSA24.JPG,AMSA22.JPG,AMNE25.JPG,AMNE24.JPG,AMSA25.JPG,,,,,0,4,4,7,,,,,,,,,,,,,,,,,,,AFSA14.jpg,AFSA08.jpg,AFNE20.jpg,AFNE01.jpg,AFSA08.jpg,FS,4,num_6,16,num_6,1.48346668074,,,2017_Aug_30_1208,60.0029445325,MAFE4ImagesEEG,001,101459,
AFSA25.JPG,AFNE24.JPG,AFSA24.JPG,AFNE21.JPG,AFSA21.JPG,AFNE25.JPG,,,,,0,5,5,2,,,,,,,,,,,,,,,,,,,AFNE13.jpg,AFSA17.jpg,AFNE06.jpg,AFSA11.jpg,AFNE13.jpg,FN,3,num_8,32,num_2,1.51668599126,,,2017_Aug_30_1208,60.0029445325,MAFE4ImagesEEG,001,101459,
AMSA21.JPG,AMNE23.JPG,AMNE21.JPG,AMSA25.JPG,AMNE25.JPG,AMSA23.JPG,,,,,0,6,6,5,,,,,,,,,,,,,,,,,,,AFNE16.jpg,AFSA13.jpg,AFNE20.jpg,AFSA14.jpg,AFNE20.jpg,FN,3,num_2,16,num_2,1.9333631621,,,2017_Aug_30_1208,60.0029445325,MAFE4ImagesEEG,001,101459,
AFNE23.JPG,AFNE24.JPG,AFNE22.JPG,AFSA24.JPG,AFSA22.JPG,AFSA23.JPG,,,,,0,7,7,8,,,,,,,,,,,,,,,,,,,AFSA07.jpg,AFNE18.jpg,AFSA06.jpg,AFNE06.jpg,AFNE18.jpg,FN,3,num_6,16,num_6,0.733512626728,,,2017_Aug_30_1208,60.0029445325,MAFE4ImagesEEG,001,101459,
AFSA21.JPG,AFNE22.JPG,AFNE21.JPG,AFSA23.JPG,AFSA22.JPG,AFNE23.JPG,,,,,0,8,8,0,,,,,,,,,,,,,,,,,,,AFSA07.jpg,AFSA04.jpg,AFNE10.jpg,AFNE02.jpg,AFSA07.jpg,FS,4,num_8,16,num_8,0.916777722712,,,2017_Aug_30_1208,60.0029445325,MAFE4ImagesEEG,001,101459,
AFSA21.JPG,AFNE23.JPG,AFNE21.JPG,AFSA25.JPG,AFNE25.JPG,AFSA23.JPG,,,,,0,9,9,4,,,,,,,,,,,,,,,,,,,AFNE01.jpg,AFNE07.jpg,AFSA15.jpg,AFSA12.jpg,AFNE01.jpg,FN,3,num_8,16,num_8,1.1499146031,,,2017_Aug_30_1208,60.0029445325,MAFE4ImagesEEG,001,101459,
AFNE23.JPG,AFNE24.JPG,AFNE22.JPG,AFSA24.JPG,AFSA22.JPG,AFSA23.JPG,,,,,,,,,0,0,0,8,,,,,,,,,,,,,,,AMSA13.jpg,AMNE04.jpg,AMSA14.jpg,AMNE14.jpg,AMNE14.jpg,MN,1,num_4,32,num_6,1.78335746902,,,2017_Aug_30_1208,60.0029445325,MAFE4ImagesEEG,001,101459,
AMNE23.JPG,AMNE24.JPG,AMNE22.JPG,AMSA24.JPG,AMSA22.JPG,AMSA23.JPG,,,,,,,,,0,1,1,9,,,,,,,,,,,,,,,AMSA08.jpg,AMNE19.jpg,AMSA17.jpg,AMNE08.jpg,AMSA17.jpg,MS,2,num_2,16,num_2,1.15018145839,,,2017_Aug_30_1208,60.0029445325,MAFE4ImagesEEG,001,101459,
AFSA21.JPG,AFNE23.JPG,AFNE21.JPG,AFSA25.JPG,AFNE25.JPG,AFSA23.JPG,,,,,,,,,0,2,2,4,,,,,,,,,,,,,,,AMNE13.jpg,AMSA20.jpg,AMSA08.jpg,AMNE12.jpg,AMSA08.jpg,MS,2,num_2,16,num_2,0.983411353256,,,2017_Aug_30_1208,60.0029445325,MAFE4ImagesEEG,001,101459,
AFSA21.JPG,AFNE22.JPG,AFNE21.JPG,AFSA23.JPG,AFSA22.JPG,AFNE23.JPG,,,,,,,,,0,3,3,0,,,,,,,,,,,,,,,AMSA12.jpg,AMNE19.jpg,AMNE10.jpg,AMSA06.jpg,AMNE19.jpg,MN,1,num_6,32,num_8,1.06673979526,,,2017_Aug_30_1208,60.0029445325,MAFE4ImagesEEG,001,101459,
AFNE22.JPG,AFSA24.JPG,AFSA22.JPG,AFNE25.JPG,AFNE24.JPG,AFSA25.JPG,,,,,,,,,0,4,4,6,,,,,,,,,,,,,,,AMSA05.jpg,AMNE07.jpg,AMNE17.jpg,AMSA15.jpg,AMNE07.jpg,MN,1,num_6,16,num_6,0.700072647538,,,2017_Aug_30_1208,60.0029445325,MAFE4ImagesEEG,001,101459,
AMNE22.JPG,AMSA24.JPG,AMSA22.JPG,AMNE25.JPG,AMNE24.JPG,AMSA25.JPG,,,,,,,,,0,5,5,7,,,,,,,,,,,,,,,AMSA18.jpg,AMNE02.jpg,AMNE18.jpg,AMSA07.jpg,AMSA07.jpg,MS,2,num_4,32,num_2,1.38325515308,,,2017_Aug_30_1208,60.0029445325,MAFE4ImagesEEG,001,101459,
AMSA21.JPG,AMNE22.JPG,AMNE21.JPG,AMSA23.JPG,AMSA22.JPG,AMNE23.JPG,,,,,,,,,0,6,6,1,,,,,,,,,,,,,,,AMSA20.jpg,AMNE05.jpg,AMNE16.jpg,AMSA06.jpg,AMSA20.jpg,MS,2,num_8,32,num_4,1.28342017357,,,2017_Aug_30_1208,60.0029445325,MAFE4ImagesEEG,001,101459,
AFSA25.JPG,AFNE24.JPG,AFSA24.JPG,AFNE21.JPG,AFSA21.JPG,AFNE25.JPG,,,,,,,,,0,7,7,2,,,,,,,,,,,,,,,AMNE17.jpg,AMNE18.jpg,AMSA13.jpg,AMSA14.jpg,AMSA14.jpg,MS,2,num_4,32,num_2,1.2500437008,,,2017_Aug_30_1208,60.0029445325,MAFE4ImagesEEG,001,101459,
AMSA21.JPG,AMNE23.JPG,AMNE21.JPG,AMSA25.JPG,AMNE25.JPG,AMSA23.JPG,,,,,,,,,0,8,8,5,,,,,,,,,,,,,,,AMNE14.jpg,AMNE06.jpg,AMSA17.jpg,AMSA06.jpg,AMSA06.jpg,MS,2,num_4,32,num_8,1.46673338045,,,2017_Aug_30_1208,60.0029445325,MAFE4ImagesEEG,001,101459,
AMSA25.JPG,AMNE24.JPG,AMSA24.JPG,AMNE26.JPG,AMSA21.JPG,AMNE25.JPG,,,,,,,,,0,9,9,3,,,,,,,,,,,,,,,AMSA16.jpg,AMNE20.jpg,AMNE09.jpg,AMSA11.jpg,AMSA11.jpg,MS,2,num_4,32,num_8,1.49992061697,,,2017_Aug_30_1208,60.0029445325,MAFE4ImagesEEG,001,101459,
AFSA21.JPG,AFNE22.JPG,AFNE21.JPG,AFSA23.JPG,AFSA22.JPG,AFNE23.JPG,,,,,,,,,,,,,0,0,0,0,,,,,,,,,,,AFNE05.jpg,AFSA13.jpg,AFNE01.jpg,AFSA08.jpg,AFSA13.jpg,FS,4,num_6,32,num_4,1.18344759673,,,2017_Aug_30_1208,60.0029445325,MAFE4ImagesEEG,001,101459,
AMSA25.JPG,AMNE24.JPG,AMSA24.JPG,AMNE26.JPG,AMSA21.JPG,AMNE25.JPG,,,,,,,,,,,,,0,1,1,3,,,,,,,,,,,AFSA10.jpg,AFNE13.jpg,AFSA07.jpg,AFNE17.jpg,AFNE17.jpg,FN,3,num_4,32,num_6,1.31675976131,,,2017_Aug_30_1208,60.0029445325,MAFE4ImagesEEG,001,101459,
AFNE22.JPG,AFSA24.JPG,AFSA22.JPG,AFNE25.JPG,AFNE24.JPG,AFSA25.JPG,,,,,,,,,,,,,0,2,2,6,,,,,,,,,,,AFNE07.jpg,AFSA17.jpg,AFSA08.jpg,AFNE05.jpg,AFNE07.jpg,FN,3,num_8,16,num_8,0.733463232871,,,2017_Aug_30_1208,60.0029445325,MAFE4ImagesEEG,001,101459,
AFNE23.JPG,AFNE24.JPG,AFNE22.JPG,AFSA24.JPG,AFSA22.JPG,AFSA23.JPG,,,,,,,,,,,,,0,3,3,8,,,,,,,,,,,AFSA20.jpg,AFNE19.jpg,AFSA12.jpg,AFNE10.jpg,AFNE10.jpg,FN,3,num_4,32,num_6,1.20011354174,,,2017_Aug_30_1208,60.0029445325,MAFE4ImagesEEG,001,101459,
AMNE22.JPG,AMSA24.JPG,AMSA22.JPG,AMNE25.JPG,AMNE24.JPG,AMSA25.JPG,,,,,,,,,,,,,0,4,4,7,,,,,,,,,,,AFNE15.jpg,AFSA01.jpg,AFSA05.jpg,AFNE14.jpg,AFSA05.jpg,FS,4,num_2,16,num_2,0.949980033969,,,2017_Aug_30_1208,60.0029445325,MAFE4ImagesEEG,001,101459,
AFSA21.JPG,AFNE23.JPG,AFNE21.JPG,AFSA25.JPG,AFNE25.JPG,AFSA23.JPG,,,,,,,,,,,,,0,5,5,4,,,,,,,,,,,AFNE20.jpg,AFNE05.jpg,AFSA01.jpg,AFSA02.jpg,AFNE05.jpg,FN,3,num_6,32,num_4,1.40016742598,,,2017_Aug_30_1208,60.0029445325,MAFE4ImagesEEG,001,101459,
AMSA21.JPG,AMNE23.JPG,AMNE21.JPG,AMSA25.JPG,AMNE25.JPG,AMSA23.JPG,,,,,,,,,,,,,0,6,6,5,,,,,,,,,,,AFSA04.jpg,AFSA02.jpg,AFNE05.jpg,AFNE07.jpg,AFNE05.jpg,FN,3,num_2,16,num_2,0.883497471747,,,2017_Aug_30_1208,60.0029445325,MAFE4ImagesEEG,001,101459,
AMSA21.JPG,AMNE22.JPG,AMNE21.JPG,AMSA23.JPG,AMSA22.JPG,AMNE23.JPG,,,,,,,,,,,,,0,7,7,1,,,,,,,,,,,AFSA01.jpg,AFNE05.jpg,AFSA11.jpg,AFNE01.jpg,AFSA01.jpg,FS,4,num_8,32,num_2,1.26693031454,,,2017_Aug_30_1208,60.0029445325,MAFE4ImagesEEG,001,101459,
AFSA25.JPG,AFNE24.JPG,AFSA24.JPG,AFNE21.JPG,AFSA21.JPG,AFNE25.JPG,,,,,,,,,,,,,0,8,8,2,,,,,,,,,,,AFNE19.jpg,AFNE06.jpg,AFSA19.jpg,AFSA13.jpg,AFSA19.jpg,FS,4,num_2,16,num_2,0.850105924183,,,2017_Aug_30_1208,60.0029445325,MAFE4ImagesEEG,001,101459,
AMNE23.JPG,AMNE24.JPG,AMNE22.JPG,AMSA24.JPG,AMSA22.JPG,AMSA23.JPG,,,,,,,,,,,,,0,9,9,9,,,,,,,,,,,AFNE07.jpg,AFSA17.jpg,AFSA14.jpg,AFNE18.jpg,AFSA17.jpg,FS,4,num_6,16,num_6,0.783524574304,,,2017_Aug_30_1208,60.0029445325,MAFE4ImagesEEG,001,101459,
AFSA21.JPG,AFNE22.JPG,AFNE21.JPG,AFSA23.JPG,AFSA22.JPG,AFNE23.JPG,,,,,,,,,,,,,,,,,0,0,0,0,,,,,,,AMNE06.jpg,AMSA09.jpg,AMSA14.jpg,AMNE19.jpg,AMNE06.jpg,MN,1,num_8,16,num_8,1.41674773354,,,2017_Aug_30_1208,60.0029445325,MAFE4ImagesEEG,001,101459,
AFNE22.JPG,AFSA24.JPG,AFSA22.JPG,AFNE25.JPG,AFNE24.JPG,AFSA25.JPG,,,,,,,,,,,,,,,,,0,1,1,6,,,,,,,AMNE08.jpg,AMSA12.jpg,AMSA03.jpg,AMNE09.jpg,AMNE08.jpg,MN,1,num_8,16,num_8,0.766762086714,,,2017_Aug_30_1208,60.0029445325,MAFE4ImagesEEG,001,101459,
AMSA21.JPG,AMNE22.JPG,AMNE21.JPG,AMSA23.JPG,AMSA22.JPG,AMNE23.JPG,,,,,,,,,,,,,,,,,0,2,2,1,,,,,,,AMSA03.jpg,AMSA12.jpg,AMNE07.jpg,AMNE10.jpg,AMNE10.jpg,MN,1,num_4,32,num_2,1.48342947499,,,2017_Aug_30_1208,60.0029445325,MAFE4ImagesEEG,001,101459,
AFSA21.JPG,AFNE23.JPG,AFNE21.JPG,AFSA25.JPG,AFNE25.JPG,AFSA23.JPG,,,,,,,,,,,,,,,,,0,3,3,4,,,,,,,AMSA06.jpg,AMNE12.jpg,AMNE03.jpg,AMSA12.jpg,AMSA06.jpg,MS,2,num_8,16,num_8,0.916805947782,,,2017_Aug_30_1208,60.0029445325,MAFE4ImagesEEG,001,101459,
AMNE22.JPG,AMSA24.JPG,AMSA22.JPG,AMNE25.JPG,AMNE24.JPG,AMSA25.JPG,,,,,,,,,,,,,,,,,0,4,4,7,,,,,,,AMSA10.jpg,AMSA05.jpg,AMNE12.jpg,AMNE19.jpg,AMSA05.jpg,MS,2,num_6,16,num_6,1.01674003585,,,2017_Aug_30_1208,60.0029445325,MAFE4ImagesEEG,001,101459,
AMSA25.JPG,AMNE24.JPG,AMSA24.JPG,AMNE26.JPG,AMSA21.JPG,AMNE25.JPG,,,,,,,,,,,,,,,,,0,5,5,3,,,,,,,AMNE06.jpg,AMSA01.jpg,AMNE04.jpg,AMSA18.jpg,AMNE04.jpg,MN,1,num_2,16,num_2,1.50005981792,,,2017_Aug_30_1208,60.0029445325,MAFE4ImagesEEG,001,101459,
AMNE23.JPG,AMNE24.JPG,AMNE22.JPG,AMSA24.JPG,AMSA22.JPG,AMSA23.JPG,,,,,,,,,,,,,,,,,0,6,6,9,,,,,,,AMNE15.jpg,AMSA16.jpg,AMSA17.jpg,AMNE01.jpg,AMSA16.jpg,MS,2,num_6,16,num_6,1.1667624074,,,2017_Aug_30_1208,60.0029445325,MAFE4ImagesEEG,001,101459,
AMSA21.JPG,AMNE23.JPG,AMNE21.JPG,AMSA25.JPG,AMNE25.JPG,AMSA23.JPG,,,,,,,,,,,,,,,,,0,7,7,5,,,,,,,AMSA07.jpg,AMNE17.jpg,AMSA17.jpg,AMNE05.jpg,AMNE05.jpg,MN,1,num_4,32,num_6,1.13315083261,,,2017_Aug_30_1208,60.0029445325,MAFE4ImagesEEG,001,101459,
AFNE23.JPG,AFNE24.JPG,AFNE22.JPG,AFSA24.JPG,AFSA22.JPG,AFSA23.JPG,,,,,,,,,,,,,,,,,0,8,8,8,,,,,,,AMSA02.jpg,AMNE20.jpg,AMSA03.jpg,AMNE18.jpg,AMSA03.jpg,MS,2,num_2,16,num_2,0.866678854742,,,2017_Aug_30_1208,60.0029445325,MAFE4ImagesEEG,001,101459,
AFSA25.JPG,AFNE24.JPG,AFSA24.JPG,AFNE21.JPG,AFSA21.JPG,AFNE25.JPG,,,,,,,,,,,,,,,,,0,9,9,2,,,,,,,AMNE10.jpg,AMSA18.jpg,AMNE08.jpg,AMSA02.jpg,AMNE10.jpg,MN,1,num_8,16,num_8,1.08345320972,,,2017_Aug_30_1208,60.0029445325,MAFE4ImagesEEG,001,101459,
AMNE23.JPG,AMNE24.JPG,AMNE22.JPG,AMSA24.JPG,AMSA22.JPG,AMSA23.JPG,,,,,,,,,,,,,,,,,,,,,0,0,0,9,,,AFNE15.jpg,AFSA06.jpg,AFSA12.jpg,AFNE20.jpg,AFNE15.jpg,FN,3,num_8,16,num_8,0.716771949374,,,2017_Aug_30_1208,60.0029445325,MAFE4ImagesEEG,001,101459,
AFSA21.JPG,AFNE23.JPG,AFNE21.JPG,AFSA25.JPG,AFNE25.JPG,AFSA23.JPG,,,,,,,,,,,,,,,,,,,,,0,1,1,4,,,AFSA03.jpg,AFNE08.jpg,AFSA13.jpg,AFNE17.jpg,AFNE08.jpg,FN,3,num_6,16,num_6,0.716779647162,,,2017_Aug_30_1208,60.0029445325,MAFE4ImagesEEG,001,101459,
AMSA21.JPG,AMNE22.JPG,AMNE21.JPG,AMSA23.JPG,AMSA22.JPG,AMNE23.JPG,,,,,,,,,,,,,,,,,,,,,0,2,2,1,,,AFSA17.jpg,AFNE14.jpg,AFSA16.jpg,AFNE11.jpg,AFSA16.jpg,FS,4,num_2,16,num_2,1.18343765388,,,2017_Aug_30_1208,60.0029445325,MAFE4ImagesEEG,001,101459,
AMSA25.JPG,AMNE24.JPG,AMSA24.JPG,AMNE26.JPG,AMSA21.JPG,AMNE25.JPG,,,,,,,,,,,,,,,,,,,,,0,3,3,3,,,AFSA03.jpg,AFNE11.jpg,AFNE01.jpg,AFSA20.jpg,AFNE01.jpg,FN,3,num_2,16,num_2,1.0833380642,,,2017_Aug_30_1208,60.0029445325,MAFE4ImagesEEG,001,101459,
AFNE22.JPG,AFSA24.JPG,AFSA22.JPG,AFNE25.JPG,AFNE24.JPG,AFSA25.JPG,,,,,,,,,,,,,,,,,,,,,0,4,4,6,,,AFSA11.jpg,AFNE08.jpg,AFSA04.jpg,AFNE05.jpg,AFSA04.jpg,FS,4,num_2,16,num_2,1.46656210558,,,2017_Aug_30_1208,60.0029445325,MAFE4ImagesEEG,001,101459,
AMNE22.JPG,AMSA24.JPG,AMSA22.JPG,AMNE25.JPG,AMNE24.JPG,AMSA25.JPG,,,,,,,,,,,,,,,,,,,,,0,5,5,7,,,AFSA01.jpg,AFNE16.jpg,AFSA12.jpg,AFNE02.jpg,AFNE02.jpg,FN,3,num_4,32,num_2,1.26676064334,,,2017_Aug_30_1208,60.0029445325,MAFE4ImagesEEG,001,101459,
AFSA21.JPG,AFNE22.JPG,AFNE21.JPG,AFSA23.JPG,AFSA22.JPG,AFNE23.JPG,,,,,,,,,,,,,,,,,,,,,0,6,6,0,,,AFNE20.jpg,AFNE06.jpg,AFSA20.jpg,AFSA06.jpg,AFNE06.jpg,FN,3,num_6,16,num_6,0.933440139575,,,2017_Aug_30_1208,60.0029445325,MAFE4ImagesEEG,001,101459,
AMSA21.JPG,AMNE23.JPG,AMNE21.JPG,AMSA25.JPG,AMNE25.JPG,AMSA23.JPG,,,,,,,,,,,,,,,,,,,,,0,7,7,5,,,AFSA17.jpg,AFNE10.jpg,AFSA16.jpg,AFNE08.jpg,AFNE10.jpg,FN,3,num_6,32,num_4,1.06676160556,,,2017_Aug_30_1208,60.0029445325,MAFE4ImagesEEG,001,101459,
AFNE23.JPG,AFNE24.JPG,AFNE22.JPG,AFSA24.JPG,AFSA22.JPG,AFSA23.JPG,,,,,,,,,,,,,,,,,,,,,0,8,8,8,,,AFSA16.jpg,AFSA12.jpg,AFNE04.jpg,AFNE11.jpg,AFNE11.jpg,FN,3,num_4,32,num_8,1.24963860679,,,2017_Aug_30_1208,60.0029445325,MAFE4ImagesEEG,001,101459,
AFSA25.JPG,AFNE24.JPG,AFSA24.JPG,AFNE21.JPG,AFSA21.JPG,AFNE25.JPG,,,,,,,,,,,,,,,,,,,,,0,9,9,2,,,AFNE02.jpg,AFSA07.jpg,AFSA05.jpg,AFNE01.jpg,AFSA07.jpg,FS,4,num_6,32,num_4,1.43339700013,,,2017_Aug_30_1208,60.0029445325,MAFE4ImagesEEG,001,101459,
,,,,,,,,,,,,,,,,,,,,,,,,,,,,,,,,,,,,,,,,,,,space,16.5158575212,2017_Aug_30_1208,60.0029445325,MAFE4ImagesEEG,001,101459,
AFNE01.JPG,AFNE01.JPG,AFNE01.JPG,AFNE01.JPG,AFNE01.JPG,AFNE01.JPG,0,0,0,8,,,,,,,,,,,,,,,,,,,,,,,AMNE15.jpg,AMSA03.jpg,AMSA13.jpg,AMNE10.jpg,AMSA13.jpg,MS,2,num_2,32,num_8,1.5167199896,,,2017_Aug_30_1208,60.0029445325,MAFE4ImagesEEG,001,101459,
AFNE01.JPG,AFNE01.JPG,AFNE01.JPG,AFNE01.JPG,AFNE01.JPG,AFNE01.JPG,0,1,1,9,,,,,,,,,,,,,,,,,,,,,,,AMSA04.jpg,AMNE14.jpg,AMNE02.jpg,AMSA05.jpg,AMSA04.jpg,MS,2,num_8,16,num_8,1.96669729723,,,2017_Aug_30_1208,60.0029445325,MAFE4ImagesEEG,001,101459,
AFNE01.JPG,AFNE01.JPG,AFNE01.JPG,AFNE01.JPG,AFNE01.JPG,AFNE01.JPG,0,2,2,5,,,,,,,,,,,,,,,,,,,,,,,AMNE11.jpg,AMSA16.jpg,AMSA18.jpg,AMNE15.jpg,AMSA18.jpg,MS,2,num_2,32,num_6,1.03342939483,,,2017_Aug_30_1208,60.0029445325,MAFE4ImagesEEG,001,101459,
AFNE01.JPG,AFNE01.JPG,AFNE01.JPG,AFNE01.JPG,AFNE01.JPG,AFNE01.JPG,0,3,3,4,,,,,,,,,,,,,,,,,,,,,,,AMNE15.jpg,AMSA11.jpg,AMNE13.jpg,AMSA16.jpg,AMSA11.jpg,MS,2,num_6,32,num_2,1.13340068859,,,2017_Aug_30_1208,60.0029445325,MAFE4ImagesEEG,001,101459,
AFNE01.JPG,AFNE01.JPG,AFNE01.JPG,AFNE01.JPG,AFNE01.JPG,AFNE01.JPG,0,4,4,2,,,,,,,,,,,,,,,,,,,,,,,AMNE17.jpg,AMNE20.jpg,AMSA03.jpg,AMSA09.jpg,AMSA03.jpg,MS,2,num_2,16,num_2,0.916862718703,,,2017_Aug_30_1208,60.0029445325,MAFE4ImagesEEG,001,101459,
AFNE01.JPG,AFNE01.JPG,AFNE01.JPG,AFNE01.JPG,AFNE01.JPG,AFNE01.JPG,0,5,5,7,,,,,,,,,,,,,,,,,,,,,,,AMNE02.jpg,AMSA06.jpg,AMSA04.jpg,AMNE20.jpg,AMNE02.jpg,MN,1,num_8,16,num_8,1.06651816424,,,2017_Aug_30_1208,60.0029445325,MAFE4ImagesEEG,001,101459,
AFNE01.JPG,AFNE01.JPG,AFNE01.JPG,AFNE01.JPG,AFNE01.JPG,AFNE01.JPG,0,6,6,6,,,,,,,,,,,,,,,,,,,,,,,AMSA06.jpg,AMNE20.jpg,AMNE16.jpg,AMSA13.jpg,AMNE20.jpg,MN,1,num_6,32,num_2,0.95008042542,,,2017_Aug_30_1208,60.0029445325,MAFE4ImagesEEG,001,101459,
AFNE01.JPG,AFNE01.JPG,AFNE01.JPG,AFNE01.JPG,AFNE01.JPG,AFNE01.JPG,0,7,7,1,,,,,,,,,,,,,,,,,,,,,,,AMNE16.jpg,AMSA16.jpg,AMSA06.jpg,AMNE18.jpg,AMNE18.jpg,MN,1,num_4,16,num_4,1.06678598176,,,2017_Aug_30_1208,60.0029445325,MAFE4ImagesEEG,001,101459,
AFNE01.JPG,AFNE01.JPG,AFNE01.JPG,AFNE01.JPG,AFNE01.JPG,AFNE01.JPG,0,8,8,3,,,,,,,,,,,,,,,,,,,,,,,AMNE07.jpg,AMSA04.jpg,AMSA13.jpg,AMNE17.jpg,AMNE17.jpg,MN,1,num_4,32,num_2,0.883500358439,,,2017_Aug_30_1208,60.0029445325,MAFE4ImagesEEG,001,101459,
AFNE01.JPG,AFNE01.JPG,AFNE01.JPG,AFNE01.JPG,AFNE01.JPG,AFNE01.JPG,0,9,9,0,,,,,,,,,,,,,,,,,,,,,,,AMNE18.jpg,AMNE07.jpg,AMSA13.jpg,AMSA02.jpg,AMSA13.jpg,MS,2,num_2,16,num_2,0.783593853994,,,2017_Aug_30_1208,60.0029445325,MAFE4ImagesEEG,001,101459,
AFNE01.JPG,AFNE01.JPG,AFNE01.JPG,AFNE01.JPG,AFNE01.JPG,AFNE01.JPG,1,0,10,9,,,,,,,,,,,,,,,,,,,,,,,AMSA01.jpg,AMNE09.jpg,AMNE16.jpg,AMSA16.jpg,AMSA16.jpg,MS,2,num_4,32,num_6,0.916752063553,,,2017_Aug_30_1208,60.0029445325,MAFE4ImagesEEG,001,101459,
AFNE01.JPG,AFNE01.JPG,AFNE01.JPG,AFNE01.JPG,AFNE01.JPG,AFNE01.JPG,1,1,11,3,,,,,,,,,,,,,,,,,,,,,,,AMSA02.jpg,AMSA05.jpg,AMNE20.jpg,AMNE18.jpg,AMSA02.jpg,MS,2,num_8,16,num_8,0.800003528129,,,2017_Aug_30_1208,60.0029445325,MAFE4ImagesEEG,001,101459,
AFNE01.JPG,AFNE01.JPG,AFNE01.JPG,AFNE01.JPG,AFNE01.JPG,AFNE01.JPG,1,2,12,5,,,,,,,,,,,,,,,,,,,,,,,AMNE20.jpg,AMSA06.jpg,AMSA03.jpg,AMNE12.jpg,AMSA06.jpg,MS,2,num_6,32,num_4,1.10008579784,,,2017_Aug_30_1208,60.0029445325,MAFE4ImagesEEG,001,101459,
AFNE01.JPG,AFNE01.JPG,AFNE01.JPG,AFNE01.JPG,AFNE01.JPG,AFNE01.JPG,1,3,13,6,,,,,,,,,,,,,,,,,,,,,,,AMSA08.jpg,AMSA20.jpg,AMNE05.jpg,AMNE17.jpg,AMNE05.jpg,MN,1,num_2,16,num_2,0.833439979237,,,2017_Aug_30_1208,60.0029445325,MAFE4ImagesEEG,001,101459,
AFNE01.JPG,AFNE01.JPG,AFNE01.JPG,AFNE01.JPG,AFNE01.JPG,AFNE01.JPG,1,4,14,1,,,,,,,,,,,,,,,,,,,,,,,AMNE03.jpg,AMSA11.jpg,AMNE15.jpg,AMSA10.jpg,AMSA11.jpg,MS,2,num_6,32,num_8,1.26675551152,,,2017_Aug_30_1208,60.0029445325,MAFE4ImagesEEG,001,101459,
AFNE01.JPG,AFNE01.JPG,AFNE01.JPG,AFNE01.JPG,AFNE01.JPG,AFNE01.JPG,1,5,15,2,,,,,,,,,,,,,,,,,,,,,,,AMNE19.jpg,AMNE08.jpg,AMSA11.jpg,AMSA04.jpg,AMNE19.jpg,MN,1,num_8,32,num_6,1.13339363236,,,2017_Aug_30_1208,60.0029445325,MAFE4ImagesEEG,001,101459,
AFNE01.JPG,AFNE01.JPG,AFNE01.JPG,AFNE01.JPG,AFNE01.JPG,AFNE01.JPG,1,6,16,8,,,,,,,,,,,,,,,,,,,,,,,AMNE19.jpg,AMSA13.jpg,AMNE15.jpg,AMSA08.jpg,AMNE19.jpg,MN,1,num_8,16,num_8,0.833422338532,,,2017_Aug_30_1208,60.0029445325,MAFE4ImagesEEG,001,101459,
AFNE01.JPG,AFNE01.JPG,AFNE01.JPG,AFNE01.JPG,AFNE01.JPG,AFNE01.JPG,1,7,17,0,,,,,,,,,,,,,,,,,,,,,,,AMNE03.jpg,AMNE18.jpg,AMSA06.jpg,AMSA15.jpg,AMNE03.jpg,MN,1,num_8,32,num_2,1.55006727506,,,2017_Aug_30_1208,60.0029445325,MAFE4ImagesEEG,001,101459,
AFNE01.JPG,AFNE01.JPG,AFNE01.JPG,AFNE01.JPG,AFNE01.JPG,AFNE01.JPG,1,8,18,4,,,,,,,,,,,,,,,,,,,,,,,AMSA06.jpg,AMNE19.jpg,AMNE12.jpg,AMSA19.jpg,AMNE12.jpg,MN,1,num_2,32,num_6,1.21660019341,,,2017_Aug_30_1208,60.0029445325,MAFE4ImagesEEG,001,101459,
AFNE01.JPG,AFNE01.JPG,AFNE01.JPG,AFNE01.JPG,AFNE01.JPG,AFNE01.JPG,1,9,19,7,,,,,,,,,,,,,,,,,,,,,,,AMNE18.jpg,AMSA03.jpg,AMNE20.jpg,AMSA15.jpg,AMSA15.jpg,MS,2,num_4,16,num_4,1.41675895941,,,2017_Aug_30_1208,60.0029445325,MAFE4ImagesEEG,001,101459,
AFNE01.JPG,AFNE01.JPG,AFNE01.JPG,AFNE01.JPG,AFNE01.JPG,AFNE01.JPG,2,0,20,6,,,,,,,,,,,,,,,,,,,,,,,AMSA08.jpg,AMNE19.jpg,AMSA04.jpg,AMNE15.jpg,AMNE15.jpg,MN,1,num_4,32,num_6,1.70011081547,,,2017_Aug_30_1208,60.0029445325,MAFE4ImagesEEG,001,101459,
AFNE01.JPG,AFNE01.JPG,AFNE01.JPG,AFNE01.JPG,AFNE01.JPG,AFNE01.JPG,2,1,21,4,,,,,,,,,,,,,,,,,,,,,,,AMNE06.jpg,AMSA18.jpg,AMNE08.jpg,AMSA02.jpg,AMNE06.jpg,MN,1,num_8,16,num_8,0.750119876349,,,2017_Aug_30_1208,60.0029445325,MAFE4ImagesEEG,001,101459,
AFNE01.JPG,AFNE01.JPG,AFNE01.JPG,AFNE01.JPG,AFNE01.JPG,AFNE01.JPG,2,2,22,2,,,,,,,,,,,,,,,,,,,,,,,AMSA17.jpg,AMNE12.jpg,AMSA12.jpg,AMNE05.jpg,AMNE05.jpg,MN,1,num_4,32,num_8,1.36669248622,,,2017_Aug_30_1208,60.0029445325,MAFE4ImagesEEG,001,101459,
AFNE01.JPG,AFNE01.JPG,AFNE01.JPG,AFNE01.JPG,AFNE01.JPG,AFNE01.JPG,2,3,23,8,,,,,,,,,,,,,,,,,,,,,,,AMNE16.jpg,AMSA16.jpg,AMSA07.jpg,AMNE03.jpg,AMSA07.jpg,MS,2,num_2,32,num_4,1.41677627939,,,2017_Aug_30_1208,60.0029445325,MAFE4ImagesEEG,001,101459,
AFNE01.JPG,AFNE01.JPG,AFNE01.JPG,AFNE01.JPG,AFNE01.JPG,AFNE01.JPG,2,4,24,5,,,,,,,,,,,,,,,,,,,,,,,AMSA16.jpg,AMNE04.jpg,AMSA01.jpg,AMNE03.jpg,AMSA16.jpg,MS,2,num_8,32,num_4,0.983490575862,,,2017_Aug_30_1208,60.0029445325,MAFE4ImagesEEG,001,101459,
AFNE01.JPG,AFNE01.JPG,AFNE01.JPG,AFNE01.JPG,AFNE01.JPG,AFNE01.JPG,2,5,25,0,,,,,,,,,,,,,,,,,,,,,,,AMNE12.jpg,AMSA19.jpg,AMNE14.jpg,AMSA07.jpg,AMNE14.jpg,MN,1,num_2,16,num_2,1.18346299225,,,2017_Aug_30_1208,60.0029445325,MAFE4ImagesEEG,001,101459,
AFNE01.JPG,AFNE01.JPG,AFNE01.JPG,AFNE01.JPG,AFNE01.JPG,AFNE01.JPG,2,6,26,7,,,,,,,,,,,,,,,,,,,,,,,AMSA20.jpg,AMNE09.jpg,AMNE14.jpg,AMSA17.jpg,AMSA20.jpg,MS,2,num_8,32,num_2,1.06683730008,,,2017_Aug_30_1208,60.0029445325,MAFE4ImagesEEG,001,101459,
AFNE01.JPG,AFNE01.JPG,AFNE01.JPG,AFNE01.JPG,AFNE01.JPG,AFNE01.JPG,2,7,27,3,,,,,,,,,,,,,,,,,,,,,,,AMNE10.jpg,AMSA13.jpg,AMNE16.jpg,AMSA14.jpg,AMNE10.jpg,MN,1,num_8,32,num_6,2.13332499412,,,2017_Aug_30_1208,60.0029445325,MAFE4ImagesEEG,001,101459,
AFNE01.JPG,AFNE01.JPG,AFNE01.JPG,AFNE01.JPG,AFNE01.JPG,AFNE01.JPG,2,8,28,9,,,,,,,,,,,,,,,,,,,,,,,AMSA10.jpg,AMNE10.jpg,AMSA20.jpg,AMNE02.jpg,AMNE10.jpg,MN,1,num_6,32,num_8,1.08341824915,,,2017_Aug_30_1208,60.0029445325,MAFE4ImagesEEG,001,101459,
AFNE01.JPG,AFNE01.JPG,AFNE01.JPG,AFNE01.JPG,AFNE01.JPG,AFNE01.JPG,2,9,29,1,,,,,,,,,,,,,,,,,,,,,,,AMSA11.jpg,AMSA17.jpg,AMNE11.jpg,AMNE20.jpg,AMNE20.jpg,MN,1,num_4,32,num_2,1.30005693127,,,2017_Aug_30_1208,60.0029445325,MAFE4ImagesEEG,001,101459,
AFNE01.JPG,AFNE01.JPG,AFNE01.JPG,AFNE01.JPG,AFNE01.JPG,AFNE01.JPG,3,0,30,9,,,,,,,,,,,,,,,,,,,,,,,AMSA05.jpg,AMNE11.jpg,AMSA20.jpg,AMNE19.jpg,AMNE11.jpg,MN,1,num_6,32,num_8,1.18347806699,,,2017_Aug_30_1208,60.0029445325,MAFE4ImagesEEG,001,101459,
AFNE01.JPG,AFNE01.JPG,AFNE01.JPG,AFNE01.JPG,AFNE01.JPG,AFNE01.JPG,3,1,31,1,,,,,,,,,,,,,,,,,,,,,,,AMNE14.jpg,AMNE11.jpg,AMSA19.jpg,AMSA01.jpg,AMNE11.jpg,MN,1,num_6,16,num_6,1.3000748927,,,2017_Aug_30_1208,60.0029445325,MAFE4ImagesEEG,001,101459,
AFNE01.JPG,AFNE01.JPG,AFNE01.JPG,AFNE01.JPG,AFNE01.JPG,AFNE01.JPG,3,2,32,7,,,,,,,,,,,,,,,,,,,,,,,AMSA16.jpg,AMNE14.jpg,AMSA09.jpg,AMNE01.jpg,AMSA09.jpg,MS,2,num_2,16,num_2,1.60003848874,,,2017_Aug_30_1208,60.0029445325,MAFE4ImagesEEG,001,101459,
AFNE01.JPG,AFNE01.JPG,AFNE01.JPG,AFNE01.JPG,AFNE01.JPG,AFNE01.JPG,3,3,33,3,,,,,,,,,,,,,,,,,,,,,,,AMSA01.jpg,AMNE02.jpg,AMSA15.jpg,AMNE20.jpg,AMSA01.jpg,MS,2,num_8,16,num_8,1.01674805436,,,2017_Aug_30_1208,60.0029445325,MAFE4ImagesEEG,001,101459,
AFNE01.JPG,AFNE01.JPG,AFNE01.JPG,AFNE01.JPG,AFNE01.JPG,AFNE01.JPG,3,4,34,6,,,,,,,,,,,,,,,,,,,,,,,AMNE14.jpg,AMSA12.jpg,AMNE12.jpg,AMSA03.jpg,AMNE12.jpg,MN,1,num_2,16,num_2,0.916800815961,,,2017_Aug_30_1208,60.0029445325,MAFE4ImagesEEG,001,101459,
AFNE01.JPG,AFNE01.JPG,AFNE01.JPG,AFNE01.JPG,AFNE01.JPG,AFNE01.JPG,3,5,35,0,,,,,,,,,,,,,,,,,,,,,,,AMNE11.jpg,AMNE12.jpg,AMSA01.jpg,AMSA12.jpg,AMNE11.jpg,MN,1,num_8,16,num_8,0.950143611117,,,2017_Aug_30_1208,60.0029445325,MAFE4ImagesEEG,001,101459,
AFNE01.JPG,AFNE01.JPG,AFNE01.JPG,AFNE01.JPG,AFNE01.JPG,AFNE01.JPG,3,6,36,4,,,,,,,,,,,,,,,,,,,,,,,AMNE20.jpg,AMNE15.jpg,AMSA03.jpg,AMSA15.jpg,AMSA03.jpg,MS,2,num_2,16,num_2,0.90014288947,,,2017_Aug_30_1208,60.0029445325,MAFE4ImagesEEG,001,101459,
AFNE01.JPG,AFNE01.JPG,AFNE01.JPG,AFNE01.JPG,AFNE01.JPG,AFNE01.JPG,3,7,37,8,,,,,,,,,,,,,,,,,,,,,,,AMNE13.jpg,AMSA06.jpg,AMNE06.jpg,AMSA16.jpg,AMSA06.jpg,MS,2,num_6,32,num_4,1.16637014301,,,2017_Aug_30_1208,60.0029445325,MAFE4ImagesEEG,001,101459,
AFNE01.JPG,AFNE01.JPG,AFNE01.JPG,AFNE01.JPG,AFNE01.JPG,AFNE01.JPG,3,8,38,2,,,,,,,,,,,,,,,,,,,,,,,AMNE15.jpg,AMSA15.jpg,AMNE16.jpg,AMSA18.jpg,AMNE15.jpg,MN,1,num_8,32,num_2,1.03345088434,,,2017_Aug_30_1208,60.0029445325,MAFE4ImagesEEG,001,101459,
AFNE01.JPG,AFNE01.JPG,AFNE01.JPG,AFNE01.JPG,AFNE01.JPG,AFNE01.JPG,3,9,39,5,,,,,,,,,,,,,,,,,,,,,,,AMSA18.jpg,AMSA16.jpg,AMNE18.jpg,AMNE11.jpg,AMSA16.jpg,MS,2,num_6,32,num_2,1.13328361872,,,2017_Aug_30_1208,60.0029445325,MAFE4ImagesEEG,001,101459,
AFNE01.JPG,AFNE01.JPG,AFNE01.JPG,AFNE01.JPG,AFNE01.JPG,AFNE01.JPG,4,0,40,5,,,,,,,,,,,,,,,,,,,,,,,AMNE04.jpg,AMSA19.jpg,AMSA03.jpg,AMNE13.jpg,AMNE13.jpg,MN,1,num_4,32,num_8,0.933475741709,,,2017_Aug_30_1208,60.0029445325,MAFE4ImagesEEG,001,101459,
AFNE01.JPG,AFNE01.JPG,AFNE01.JPG,AFNE01.JPG,AFNE01.JPG,AFNE01.JPG,4,1,41,9,,,,,,,,,,,,,,,,,,,,,,,AMSA12.jpg,AMNE17.jpg,AMNE06.jpg,AMSA14.jpg,AMNE06.jpg,MN,1,num_2,16,num_2,0.850093415356,,,2017_Aug_30_1208,60.0029445325,MAFE4ImagesEEG,001,101459,
AFNE01.JPG,AFNE01.JPG,AFNE01.JPG,AFNE01.JPG,AFNE01.JPG,AFNE01.JPG,4,2,42,1,,,,,,,,,,,,,,,,,,,,,,,AMSA09.jpg,AMSA13.jpg,AMNE08.jpg,AMNE06.jpg,AMNE08.jpg,MN,1,num_2,16,num_2,1.23332290933,,,2017_Aug_30_1208,60.0029445325,MAFE4ImagesEEG,001,101459,
AFNE01.JPG,AFNE01.JPG,AFNE01.JPG,AFNE01.JPG,AFNE01.JPG,AFNE01.JPG,4,3,43,4,,,,,,,,,,,,,,,,,,,,,,,AMNE05.jpg,AMSA07.jpg,AMSA02.jpg,AMNE13.jpg,AMNE05.jpg,MN,1,num_8,16,num_8,1.60008275078,,,2017_Aug_30_1208,60.0029445325,MAFE4ImagesEEG,001,101459,
AFNE01.JPG,AFNE01.JPG,AFNE01.JPG,AFNE01.JPG,AFNE01.JPG,AFNE01.JPG,4,4,44,0,,,,,,,,,,,,,,,,,,,,,,,AMNE05.jpg,AMSA02.jpg,AMNE20.jpg,AMSA10.jpg,AMNE05.jpg,MN,1,num_8,16,num_8,0.900155398296,,,2017_Aug_30_1208,60.0029445325,MAFE4ImagesEEG,001,101459,
AFNE01.JPG,AFNE01.JPG,AFNE01.JPG,AFNE01.JPG,AFNE01.JPG,AFNE01.JPG,4,5,45,6,,,,,,,,,,,,,,,,,,,,,,,AMNE19.jpg,AMSA06.jpg,AMNE15.jpg,AMSA04.jpg,AMNE15.jpg,MN,1,num_2,16,num_2,1.05008603836,,,2017_Aug_30_1208,60.0029445325,MAFE4ImagesEEG,001,101459,
AFNE01.JPG,AFNE01.JPG,AFNE01.JPG,AFNE01.JPG,AFNE01.JPG,AFNE01.JPG,4,6,46,7,,,,,,,,,,,,,,,,,,,,,,,AMSA02.jpg,AMNE11.jpg,AMSA14.jpg,AMNE01.jpg,AMNE01.jpg,MN,1,num_4,16,num_4,1.05007673689,,,2017_Aug_30_1208,60.0029445325,MAFE4ImagesEEG,001,101459,
AFNE01.JPG,AFNE01.JPG,AFNE01.JPG,AFNE01.JPG,AFNE01.JPG,AFNE01.JPG,4,7,47,3,,,,,,,,,,,,,,,,,,,,,,,AMSA03.jpg,AMNE15.jpg,AMNE12.jpg,AMSA07.jpg,AMNE12.jpg,MN,1,num_2,32,num_6,1.85010079242,,,2017_Aug_30_1208,60.0029445325,MAFE4ImagesEEG,001,101459,
AFNE01.JPG,AFNE01.JPG,AFNE01.JPG,AFNE01.JPG,AFNE01.JPG,AFNE01.JPG,4,8,48,8,,,,,,,,,,,,,,,,,,,,,,,AMNE10.jpg,AMNE07.jpg,AMSA19.jpg,AMSA04.jpg,AMNE10.jpg,MN,1,num_8,16,num_8,1.51673538511,,,2017_Aug_30_1208,60.0029445325,MAFE4ImagesEEG,001,101459,
AFNE01.JPG,AFNE01.JPG,AFNE01.JPG,AFNE01.JPG,AFNE01.JPG,AFNE01.JPG,4,9,49,2,,,,,,,,,,,,,,,,,,,,,,,AMSA06.jpg,AMNE12.jpg,AMSA20.jpg,AMNE04.jpg,AMSA06.jpg,MS,2,num_8,32,num_2,1.31673378142,,,2017_Aug_30_1208,60.0029445325,MAFE4ImagesEEG,001,101459,
AFNE01.JPG,AFNE01.JPG,AFNE01.JPG,AFNE01.JPG,AFNE01.JPG,AFNE01.JPG,5,0,50,9,,,,,,,,,,,,,,,,,,,,,,,AMNE18.jpg,AMSA06.jpg,AMSA10.jpg,AMNE17.jpg,AMNE17.jpg,MN,1,num_4,32,num_8,1.05020952306,,,2017_Aug_30_1208,60.0029445325,MAFE4ImagesEEG,001,101459,
AFNE01.JPG,AFNE01.JPG,AFNE01.JPG,AFNE01.JPG,AFNE01.JPG,AFNE01.JPG,5,1,51,4,,,,,,,,,,,,,,,,,,,,,,,AMNE18.jpg,AMSA16.jpg,AMSA08.jpg,AMNE15.jpg,AMSA08.jpg,MS,2,num_2,32,num_4,1.4334252252,,,2017_Aug_30_1208,60.0029445325,MAFE4ImagesEEG,001,101459,
AFNE01.JPG,AFNE01.JPG,AFNE01.JPG,AFNE01.JPG,AFNE01.JPG,AFNE01.JPG,5,2,52,6,,,,,,,,,,,,,,,,,,,,,,,AMNE15.jpg,AMSA13.jpg,AMNE06.jpg,AMSA15.jpg,AMSA15.jpg,MS,2,num_4,32,num_2,0.883472774876,,,2017_Aug_30_1208,60.0029445325,MAFE4ImagesEEG,001,101459,
AFNE01.JPG,AFNE01.JPG,AFNE01.JPG,AFNE01.JPG,AFNE01.JPG,AFNE01.JPG,5,3,53,0,,,,,,,,,,,,,,,,,,,,,,,AMNE11.jpg,AMNE09.jpg,AMSA06.jpg,AMSA10.jpg,AMNE09.jpg,MN,1,num_6,16,num_6,0.916758799052,,,2017_Aug_30_1208,60.0029445325,MAFE4ImagesEEG,001,101459,
AFNE01.JPG,AFNE01.JPG,AFNE01.JPG,AFNE01.JPG,AFNE01.JPG,AFNE01.JPG,5,4,54,8,,,,,,,,,,,,,,,,,,,,,,,AMNE14.jpg,AMSA04.jpg,AMSA09.jpg,AMNE17.jpg,AMNE14.jpg,MN,1,num_8,32,num_2,2.40001250885,,,2017_Aug_30_1208,60.0029445325,MAFE4ImagesEEG,001,101459,
AFNE01.JPG,AFNE01.JPG,AFNE01.JPG,AFNE01.JPG,AFNE01.JPG,AFNE01.JPG,5,5,55,5,,,,,,,,,,,,,,,,,,,,,,,AMSA07.jpg,AMSA13.jpg,AMNE05.jpg,AMNE01.jpg,AMNE01.jpg,MN,1,num_4,16,num_4,1.5999541342,,,2017_Aug_30_1208,60.0029445325,MAFE4ImagesEEG,001,101459,
AFNE01.JPG,AFNE01.JPG,AFNE01.JPG,AFNE01.JPG,AFNE01.JPG,AFNE01.JPG,5,6,56,7,,,,,,,,,,,,,,,,,,,,,,,AMNE15.jpg,AMNE07.jpg,AMSA03.jpg,AMSA09.jpg,AMSA03.jpg,MS,2,num_2,32,num_6,1.63335370034,,,2017_Aug_30_1208,60.0029445325,MAFE4ImagesEEG,001,101459,
AFNE01.JPG,AFNE01.JPG,AFNE01.JPG,AFNE01.JPG,AFNE01.JPG,AFNE01.JPG,5,7,57,3,,,,,,,,,,,,,,,,,,,,,,,AMNE19.jpg,AMSA09.jpg,AMSA18.jpg,AMNE18.jpg,AMSA09.jpg,MS,2,num_6,32,num_4,2.06672824867,,,2017_Aug_30_1208,60.0029445325,MAFE4ImagesEEG,001,101459,
AFNE01.JPG,AFNE01.JPG,AFNE01.JPG,AFNE01.JPG,AFNE01.JPG,AFNE01.JPG,5,8,58,2,,,,,,,,,,,,,,,,,,,,,,,AMNE04.jpg,AMSA03.jpg,AMSA05.jpg,AMNE20.jpg,AMNE04.jpg,MN,1,num_8,32,num_6,0.900125569548,,,2017_Aug_30_1208,60.0029445325,MAFE4ImagesEEG,001,101459,
AFNE01.JPG,AFNE01.JPG,AFNE01.JPG,AFNE01.JPG,AFNE01.JPG,AFNE01.JPG,5,9,59,1,,,,,,,,,,,,,,,,,,,,,,,AMNE20.jpg,AMSA10.jpg,AMNE16.jpg,AMSA05.jpg,AMNE16.jpg,MN,1,num_2,32,num_6,2.48333838501,,,2017_Aug_30_1208,60.0029445325,MAFE4ImagesEEG,001,101459,
,,,,,,,,,,,,,,,,,,,,,,,,,,,,,,,,,,,,,,,,,,,space,13.8660017737,2017_Aug_30_1208,60.0029445325,MAFE4ImagesEEG,001,101459,
AFNE01.JPG,AFNE01.JPG,AFNE01.JPG,AFNE01.JPG,AFNE01.JPG,AFNE01.JPG,,,,,0,0,0,2,,,,,,,,,,,,,,,,,,,AFNE03.jpg,AFSA16.jpg,AFSA19.jpg,AFNE10.jpg,AFNE03.jpg,FN,3,num_8,16,num_8,1.46671221167,,,2017_Aug_30_1208,60.0029445325,MAFE4ImagesEEG,001,101459,
AFNE01.JPG,AFNE01.JPG,AFNE01.JPG,AFNE01.JPG,AFNE01.JPG,AFNE01.JPG,,,,,0,1,1,6,,,,,,,,,,,,,,,,,,,AFNE06.jpg,AFSA06.jpg,AFSA01.jpg,AFNE15.jpg,AFNE06.jpg,FN,3,num_8,16,num_8,0.800129578798,,,2017_Aug_30_1208,60.0029445325,MAFE4ImagesEEG,001,101459,
AFNE01.JPG,AFNE01.JPG,AFNE01.JPG,AFNE01.JPG,AFNE01.JPG,AFNE01.JPG,,,,,0,2,2,7,,,,,,,,,,,,,,,,,,,AFNE01.jpg,AFSA04.jpg,AFNE07.jpg,AFSA15.jpg,AFSA04.jpg,FS,4,num_6,32,num_2,1.33323230041,,,2017_Aug_30_1208,60.0029445325,MAFE4ImagesEEG,001,101459,
AFNE01.JPG,AFNE01.JPG,AFNE01.JPG,AFNE01.JPG,AFNE01.JPG,AFNE01.JPG,,,,,0,3,3,8,,,,,,,,,,,,,,,,,,,AFNE20.jpg,AFSA15.jpg,AFSA11.jpg,AFNE10.jpg,AFNE10.jpg,FN,3,num_4,16,num_4,0.850101113145,,,2017_Aug_30_1208,60.0029445325,MAFE4ImagesEEG,001,101459,
AFNE01.JPG,AFNE01.JPG,AFNE01.JPG,AFNE01.JPG,AFNE01.JPG,AFNE01.JPG,,,,,0,4,4,1,,,,,,,,,,,,,,,,,,,AFNE15.jpg,AFNE01.jpg,AFSA11.jpg,AFSA18.jpg,AFSA18.jpg,FS,4,num_4,16,num_4,1.05009854725,,,2017_Aug_30_1208,60.0029445325,MAFE4ImagesEEG,001,101459,
AFNE01.JPG,AFNE01.JPG,AFNE01.JPG,AFNE01.JPG,AFNE01.JPG,AFNE01.JPG,,,,,0,5,5,3,,,,,,,,,,,,,,,,,,,AFSA20.jpg,AFNE10.jpg,AFNE11.jpg,AFSA18.jpg,AFNE10.jpg,FN,3,num_6,16,num_6,1.11681685294,,,2017_Aug_30_1208,60.0029445325,MAFE4ImagesEEG,001,101459,
AFNE01.JPG,AFNE01.JPG,AFNE01.JPG,AFNE01.JPG,AFNE01.JPG,AFNE01.JPG,,,,,0,6,6,4,,,,,,,,,,,,,,,,,,,AFNE14.jpg,AFSA06.jpg,AFSA01.jpg,AFNE17.jpg,AFSA06.jpg,FS,4,num_6,32,num_2,0.733463553537,,,2017_Aug_30_1208,60.0029445325,MAFE4ImagesEEG,001,101459,
AFNE01.JPG,AFNE01.JPG,AFNE01.JPG,AFNE01.JPG,AFNE01.JPG,AFNE01.JPG,,,,,0,7,7,0,,,,,,,,,,,,,,,,,,,AFSA12.jpg,AFSA09.jpg,AFNE12.jpg,AFNE03.jpg,AFNE03.jpg,FN,3,num_4,32,num_6,1.0667583982,,,2017_Aug_30_1208,60.0029445325,MAFE4ImagesEEG,001,101459,
AFNE01.JPG,AFNE01.JPG,AFNE01.JPG,AFNE01.JPG,AFNE01.JPG,AFNE01.JPG,,,,,0,8,8,5,,,,,,,,,,,,,,,,,,,AFSA18.jpg,AFNE07.jpg,AFSA02.jpg,AFNE18.jpg,AFNE07.jpg,FN,3,num_6,32,num_2,0.983471331536,,,2017_Aug_30_1208,60.0029445325,MAFE4ImagesEEG,001,101459,
AFNE01.JPG,AFNE01.JPG,AFNE01.JPG,AFNE01.JPG,AFNE01.JPG,AFNE01.JPG,,,,,0,9,9,9,,,,,,,,,,,,,,,,,,,AFNE14.jpg,AFSA01.jpg,AFSA15.jpg,AFNE13.jpg,AFSA01.jpg,FS,4,num_6,16,num_6,1.11673923401,,,2017_Aug_30_1208,60.0029445325,MAFE4ImagesEEG,001,101459,
AFNE01.JPG,AFNE01.JPG,AFNE01.JPG,AFNE01.JPG,AFNE01.JPG,AFNE01.JPG,,,,,1,0,10,9,,,,,,,,,,,,,,,,,,,AFNE17.jpg,AFSA12.jpg,AFNE04.jpg,AFSA02.jpg,AFNE17.jpg,FN,3,num_8,32,num_2,1.13342987595,,,2017_Aug_30_1208,60.0029445325,MAFE4ImagesEEG,001,101459,
AFNE01.JPG,AFNE01.JPG,AFNE01.JPG,AFNE01.JPG,AFNE01.JPG,AFNE01.JPG,,,,,1,1,11,1,,,,,,,,,,,,,,,,,,,AFSA14.jpg,AFNE06.jpg,AFNE16.jpg,AFSA15.jpg,AFNE16.jpg,FN,3,num_2,32,num_6,1.25006775622,,,2017_Aug_30_1208,60.0029445325,MAFE4ImagesEEG,001,101459,
AFNE01.JPG,AFNE01.JPG,AFNE01.JPG,AFNE01.JPG,AFNE01.JPG,AFNE01.JPG,,,,,1,2,12,0,,,,,,,,,,,,,,,,,,,AFSA01.jpg,AFNE11.jpg,AFNE14.jpg,AFSA10.jpg,AFSA01.jpg,FS,4,num_8,32,num_6,1.15009550023,,,2017_Aug_30_1208,60.0029445325,MAFE4ImagesEEG,001,101459,
AFNE01.JPG,AFNE01.JPG,AFNE01.JPG,AFNE01.JPG,AFNE01.JPG,AFNE01.JPG,,,,,1,3,13,3,,,,,,,,,,,,,,,,,,,AFNE02.jpg,AFNE15.jpg,AFSA08.jpg,AFSA12.jpg,AFNE15.jpg,FN,3,num_6,16,num_6,0.683479831088,,,2017_Aug_30_1208,60.0029445325,MAFE4ImagesEEG,001,101459,
AFNE01.JPG,AFNE01.JPG,AFNE01.JPG,AFNE01.JPG,AFNE01.JPG,AFNE01.JPG,,,,,1,4,14,2,,,,,,,,,,,,,,,,,,,AFNE07.jpg,AFNE16.jpg,AFSA07.jpg,AFSA14.jpg,AFSA14.jpg,FS,4,num_4,32,num_6,1.11680691002,,,2017_Aug_30_1208,60.0029445325,MAFE4ImagesEEG,001,101459,
AFNE01.JPG,AFNE01.JPG,AFNE01.JPG,AFNE01.JPG,AFNE01.JPG,AFNE01.JPG,,,,,1,5,15,7,,,,,,,,,,,,,,,,,,,AFSA01.jpg,AFNE10.jpg,AFNE12.jpg,AFSA05.jpg,AFSA05.jpg,FS,4,num_4,16,num_4,1.13346098765,,,2017_Aug_30_1208,60.0029445325,MAFE4ImagesEEG,001,101459,
AFNE01.JPG,AFNE01.JPG,AFNE01.JPG,AFNE01.JPG,AFNE01.JPG,AFNE01.JPG,,,,,1,6,16,5,,,,,,,,,,,,,,,,,,,AFSA07.jpg,AFNE13.jpg,AFSA02.jpg,AFNE11.jpg,AFSA02.jpg,FS,4,num_2,16,num_2,0.966727767547,,,2017_Aug_30_1208,60.0029445325,MAFE4ImagesEEG,001,101459,
AFNE01.JPG,AFNE01.JPG,AFNE01.JPG,AFNE01.JPG,AFNE01.JPG,AFNE01.JPG,,,,,1,7,17,8,,,,,,,,,,,,,,,,,,,AFSA14.jpg,AFSA01.jpg,AFNE12.jpg,AFNE06.jpg,AFSA01.jpg,FS,4,num_6,16,num_6,0.766741880099,,,2017_Aug_30_1208,60.0029445325,MAFE4ImagesEEG,001,101459,
AFNE01.JPG,AFNE01.JPG,AFNE01.JPG,AFNE01.JPG,AFNE01.JPG,AFNE01.JPG,,,,,1,8,18,6,,,,,,,,,,,,,,,,,,,AFNE07.jpg,AFNE13.jpg,AFSA17.jpg,AFSA01.jpg,AFSA17.jpg,FS,4,num_2,32,num_6,1.53344944102,,,2017_Aug_30_1208,60.0029445325,MAFE4ImagesEEG,001,101459,
AFNE01.JPG,AFNE01.JPG,AFNE01.JPG,AFNE01.JPG,AFNE01.JPG,AFNE01.JPG,,,,,1,9,19,4,,,,,,,,,,,,,,,,,,,AFSA10.jpg,AFNE18.jpg,AFNE05.jpg,AFSA03.jpg,AFSA10.jpg,FS,4,num_8,16,num_8,0.950138158514,,,2017_Aug_30_1208,60.0029445325,MAFE4ImagesEEG,001,101459,
AFNE01.JPG,AFNE01.JPG,AFNE01.JPG,AFNE01.JPG,AFNE01.JPG,AFNE01.JPG,,,,,2,0,20,6,,,,,,,,,,,,,,,,,,,AFNE16.jpg,AFSA08.jpg,AFSA20.jpg,AFNE06.jpg,AFNE06.jpg,FN,3,num_4,32,num_2,1.88339291071,,,2017_Aug_30_1208,60.0029445325,MAFE4ImagesEEG,001,101459,
AFNE01.JPG,AFNE01.JPG,AFNE01.JPG,AFNE01.JPG,AFNE01.JPG,AFNE01.JPG,,,,,2,1,21,3,,,,,,,,,,,,,,,,,,,AFSA11.jpg,AFNE13.jpg,AFSA08.jpg,AFNE02.jpg,AFNE13.jpg,FN,3,num_6,16,num_6,1.05010816944,,,2017_Aug_30_1208,60.0029445325,MAFE4ImagesEEG,001,101459,
AFNE01.JPG,AFNE01.JPG,AFNE01.JPG,AFNE01.JPG,AFNE01.JPG,AFNE01.JPG,,,,,2,2,22,2,,,,,,,,,,,,,,,,,,,AFNE17.jpg,AFSA16.jpg,AFNE12.jpg,AFSA01.jpg,AFNE17.jpg,FN,3,num_8,32,num_4,1.78340493847,,,2017_Aug_30_1208,60.0029445325,MAFE4ImagesEEG,001,101459,
AFNE01.JPG,AFNE01.JPG,AFNE01.JPG,AFNE01.JPG,AFNE01.JPG,AFNE01.JPG,,,,,2,3,23,4,,,,,,,,,,,,,,,,,,,AFNE15.jpg,AFSA03.jpg,AFNE07.jpg,AFSA08.jpg,AFSA03.jpg,FS,4,num_6,32,num_2,1.10014609684,,,2017_Aug_30_1208,60.0029445325,MAFE4ImagesEEG,001,101459,
AFNE01.JPG,AFNE01.JPG,AFNE01.JPG,AFNE01.JPG,AFNE01.JPG,AFNE01.JPG,,,,,2,4,24,0,,,,,,,,,,,,,,,,,,,AFSA10.jpg,AFSA11.jpg,AFNE02.jpg,AFNE08.jpg,AFNE02.jpg,FN,3,num_2,32,num_4,0.866760001867,,,2017_Aug_30_1208,60.0029445325,MAFE4ImagesEEG,001,101459,
AFNE01.JPG,AFNE01.JPG,AFNE01.JPG,AFNE01.JPG,AFNE01.JPG,AFNE01.JPG,,,,,2,5,25,8,,,,,,,,,,,,,,,,,,,AFNE05.jpg,AFNE18.jpg,AFSA20.jpg,AFSA08.jpg,AFSA20.jpg,FS,4,num_2,16,num_2,0.866733701201,,,2017_Aug_30_1208,60.0029445325,MAFE4ImagesEEG,001,101459,
AFNE01.JPG,AFNE01.JPG,AFNE01.JPG,AFNE01.JPG,AFNE01.JPG,AFNE01.JPG,,,,,2,6,26,1,,,,,,,,,,,,,,,,,,,AFNE10.jpg,AFSA01.jpg,AFSA20.jpg,AFNE11.jpg,AFSA20.jpg,FS,4,num_2,16,num_2,0.93344302621,,,2017_Aug_30_1208,60.0029445325,MAFE4ImagesEEG,001,101459,
AFNE01.JPG,AFNE01.JPG,AFNE01.JPG,AFNE01.JPG,AFNE01.JPG,AFNE01.JPG,,,,,2,7,27,9,,,,,,,,,,,,,,,,,,,AFNE05.jpg,AFSA09.jpg,AFNE09.jpg,AFSA02.jpg,AFNE05.jpg,FN,3,num_8,32,num_6,1.11679600488,,,2017_Aug_30_1208,60.0029445325,MAFE4ImagesEEG,001,101459,
AFNE01.JPG,AFNE01.JPG,AFNE01.JPG,AFNE01.JPG,AFNE01.JPG,AFNE01.JPG,,,,,2,8,28,7,,,,,,,,,,,,,,,,,,,AFNE11.jpg,AFNE05.jpg,AFSA14.jpg,AFSA20.jpg,AFNE11.jpg,FN,3,num_8,32,num_2,1.2000814678,,,2017_Aug_30_1208,60.0029445325,MAFE4ImagesEEG,001,101459,
AFNE01.JPG,AFNE01.JPG,AFNE01.JPG,AFNE01.JPG,AFNE01.JPG,AFNE01.JPG,,,,,2,9,29,5,,,,,,,,,,,,,,,,,,,AFNE05.jpg,AFSA20.jpg,AFNE19.jpg,AFSA17.jpg,AFNE05.jpg,FN,3,num_8,16,num_8,1.20008467522,,,2017_Aug_30_1208,60.0029445325,MAFE4ImagesEEG,001,101459,
AFNE01.JPG,AFNE01.JPG,AFNE01.JPG,AFNE01.JPG,AFNE01.JPG,AFNE01.JPG,,,,,3,0,30,1,,,,,,,,,,,,,,,,,,,AFSA19.jpg,AFNE16.jpg,AFSA11.jpg,AFNE14.jpg,AFNE16.jpg,FN,3,num_6,32,num_4,2.31663210696,,,2017_Aug_30_1208,60.0029445325,MAFE4ImagesEEG,001,101459,
AFNE01.JPG,AFNE01.JPG,AFNE01.JPG,AFNE01.JPG,AFNE01.JPG,AFNE01.JPG,,,,,3,1,31,4,,,,,,,,,,,,,,,,,,,AFSA19.jpg,AFNE10.jpg,AFSA11.jpg,AFNE19.jpg,AFSA19.jpg,FS,4,num_8,16,num_8,1.7333852931,,,2017_Aug_30_1208,60.0029445325,MAFE4ImagesEEG,001,101459,
AFNE01.JPG,AFNE01.JPG,AFNE01.JPG,AFNE01.JPG,AFNE01.JPG,AFNE01.JPG,,,,,3,2,32,7,,,,,,,,,,,,,,,,,,,AFSA16.jpg,AFNE04.jpg,AFSA09.jpg,AFNE08.jpg,AFSA16.jpg,FS,4,num_8,32,num_4,0.850135752989,,,2017_Aug_30_1208,60.0029445325,MAFE4ImagesEEG,001,101459,
AFNE01.JPG,AFNE01.JPG,AFNE01.JPG,AFNE01.JPG,AFNE01.JPG,AFNE01.JPG,,,,,3,3,33,3,,,,,,,,,,,,,,,,,,,AFSA06.jpg,AFNE19.jpg,AFNE15.jpg,AFSA19.jpg,AFNE19.jpg,FN,3,num_6,16,num_6,0.550138158549,,,2017_Aug_30_1208,60.0029445325,MAFE4ImagesEEG,001,101459,
AFNE01.JPG,AFNE01.JPG,AFNE01.JPG,AFNE01.JPG,AFNE01.JPG,AFNE01.JPG,,,,,3,4,34,0,,,,,,,,,,,,,,,,,,,AFNE07.jpg,AFSA18.jpg,AFSA06.jpg,AFNE13.jpg,AFNE13.jpg,FN,3,num_4,16,num_4,1.05013799819,,,2017_Aug_30_1208,60.0029445325,MAFE4ImagesEEG,001,101459,
AFNE01.JPG,AFNE01.JPG,AFNE01.JPG,AFNE01.JPG,AFNE01.JPG,AFNE01.JPG,,,,,3,5,35,5,,,,,,,,,,,,,,,,,,,AFNE01.jpg,AFNE14.jpg,AFSA19.jpg,AFSA09.jpg,AFSA19.jpg,FS,4,num_2,32,num_4,1.88337142114,,,2017_Aug_30_1208,60.0029445325,MAFE4ImagesEEG,001,101459,
AFNE01.JPG,AFNE01.JPG,AFNE01.JPG,AFNE01.JPG,AFNE01.JPG,AFNE01.JPG,,,,,3,6,36,6,,,,,,,,,,,,,,,,,,,AFSA20.jpg,AFSA08.jpg,AFNE02.jpg,AFNE07.jpg,AFSA08.jpg,FS,4,num_6,16,num_6,1.45004145562,,,2017_Aug_30_1208,60.0029445325,MAFE4ImagesEEG,001,101459,
AFNE01.JPG,AFNE01.JPG,AFNE01.JPG,AFNE01.JPG,AFNE01.JPG,AFNE01.JPG,,,,,3,7,37,2,,,,,,,,,,,,,,,,,,,AFSA04.jpg,AFSA02.jpg,AFNE06.jpg,AFNE03.jpg,AFNE03.jpg,FN,3,num_4,32,num_2,1.54978342069,,,2017_Aug_30_1208,60.0029445325,MAFE4ImagesEEG,001,101459,
AFNE01.JPG,AFNE01.JPG,AFNE01.JPG,AFNE01.JPG,AFNE01.JPG,AFNE01.JPG,,,,,3,8,38,8,,,,,,,,,,,,,,,,,,,AFSA08.jpg,AFSA04.jpg,AFNE11.jpg,AFNE20.jpg,AFNE20.jpg,FN,3,num_4,32,num_2,1.51682294701,,,2017_Aug_30_1208,60.0029445325,MAFE4ImagesEEG,001,101459,
AFNE01.JPG,AFNE01.JPG,AFNE01.JPG,AFNE01.JPG,AFNE01.JPG,AFNE01.JPG,,,,,3,9,39,9,,,,,,,,,,,,,,,,,,,AFSA13.jpg,AFSA16.jpg,AFNE08.jpg,AFNE14.jpg,AFSA13.jpg,FS,4,num_8,32,num_6,1.05009501905,,,2017_Aug_30_1208,60.0029445325,MAFE4ImagesEEG,001,101459,
AFNE01.JPG,AFNE01.JPG,AFNE01.JPG,AFNE01.JPG,AFNE01.JPG,AFNE01.JPG,,,,,4,0,40,9,,,,,,,,,,,,,,,,,,,AFNE10.jpg,AFNE19.jpg,AFSA06.jpg,AFSA03.jpg,AFNE19.jpg,FN,3,num_6,32,num_2,1.06674941746,,,2017_Aug_30_1208,60.0029445325,MAFE4ImagesEEG,001,101459,
AFNE01.JPG,AFNE01.JPG,AFNE01.JPG,AFNE01.JPG,AFNE01.JPG,AFNE01.JPG,,,,,4,1,41,2,,,,,,,,,,,,,,,,,,,AFSA05.jpg,AFNE07.jpg,AFSA18.jpg,AFNE03.jpg,AFSA18.jpg,FS,4,num_2,16,num_2,0.866732097522,,,2017_Aug_30_1208,60.0029445325,MAFE4ImagesEEG,001,101459,
AFNE01.JPG,AFNE01.JPG,AFNE01.JPG,AFNE01.JPG,AFNE01.JPG,AFNE01.JPG,,,,,4,2,42,5,,,,,,,,,,,,,,,,,,,AFSA16.jpg,AFSA01.jpg,AFNE20.jpg,AFNE07.jpg,AFSA01.jpg,FS,4,num_6,16,num_6,1.50007104379,,,2017_Aug_30_1208,60.0029445325,MAFE4ImagesEEG,001,101459,
AFNE01.JPG,AFNE01.JPG,AFNE01.JPG,AFNE01.JPG,AFNE01.JPG,AFNE01.JPG,,,,,4,3,43,0,,,,,,,,,,,,,,,,,,,AFSA07.jpg,AFSA06.jpg,AFNE04.jpg,AFNE20.jpg,AFNE04.jpg,FN,3,num_2,16,num_2,1.98335329932,,,2017_Aug_30_1208,60.0029445325,MAFE4ImagesEEG,001,101459,
AFNE01.JPG,AFNE01.JPG,AFNE01.JPG,AFNE01.JPG,AFNE01.JPG,AFNE01.JPG,,,,,4,4,44,4,,,,,,,,,,,,,,,,,,,AFSA18.jpg,AFNE05.jpg,AFNE17.jpg,AFSA01.jpg,AFNE17.jpg,FN,3,num_2,32,num_8,0.833452488005,,,2017_Aug_30_1208,60.0029445325,MAFE4ImagesEEG,001,101459,
AFNE01.JPG,AFNE01.JPG,AFNE01.JPG,AFNE01.JPG,AFNE01.JPG,AFNE01.JPG,,,,,4,5,45,7,,,,,,,,,,,,,,,,,,,AFSA11.jpg,AFSA16.jpg,AFNE12.jpg,AFNE04.jpg,AFSA16.jpg,FS,4,num_6,16,num_6,0.700117871747,,,2017_Aug_30_1208,60.0029445325,MAFE4ImagesEEG,001,101459,
AFNE01.JPG,AFNE01.JPG,AFNE01.JPG,AFNE01.JPG,AFNE01.JPG,AFNE01.JPG,,,,,4,6,46,3,,,,,,,,,,,,,,,,,,,AFNE03.jpg,AFNE06.jpg,AFSA09.jpg,AFSA17.jpg,AFSA17.jpg,FS,4,num_4,16,num_4,0.966793839878,,,2017_Aug_30_1208,60.0029445325,MAFE4ImagesEEG,001,101459,
AFNE01.JPG,AFNE01.JPG,AFNE01.JPG,AFNE01.JPG,AFNE01.JPG,AFNE01.JPG,,,,,4,7,47,6,,,,,,,,,,,,,,,,,,,AFNE13.jpg,AFSA18.jpg,AFNE06.jpg,AFSA13.jpg,AFSA18.jpg,FS,4,num_6,16,num_6,1.20008916559,,,2017_Aug_30_1208,60.0029445325,MAFE4ImagesEEG,001,101459,
AFNE01.JPG,AFNE01.JPG,AFNE01.JPG,AFNE01.JPG,AFNE01.JPG,AFNE01.JPG,,,,,4,8,48,8,,,,,,,,,,,,,,,,,,,AFNE10.jpg,AFSA19.jpg,AFSA02.jpg,AFNE05.jpg,AFSA02.jpg,FS,4,num_2,32,num_6,0.916745007271,,,2017_Aug_30_1208,60.0029445325,MAFE4ImagesEEG,001,101459,
AFNE01.JPG,AFNE01.JPG,AFNE01.JPG,AFNE01.JPG,AFNE01.JPG,AFNE01.JPG,,,,,4,9,49,1,,,,,,,,,,,,,,,,,,,AFNE14.jpg,AFSA03.jpg,AFSA18.jpg,AFNE07.jpg,AFNE07.jpg,FN,3,num_4,32,num_8,1.10001010331,,,2017_Aug_30_1208,60.0029445325,MAFE4ImagesEEG,001,101459,
AFNE01.JPG,AFNE01.JPG,AFNE01.JPG,AFNE01.JPG,AFNE01.JPG,AFNE01.JPG,,,,,5,0,50,4,,,,,,,,,,,,,,,,,,,AFSA04.jpg,AFNE17.jpg,AFNE03.jpg,AFSA15.jpg,AFNE17.jpg,FN,3,num_6,16,num_6,0.916814607743,,,2017_Aug_30_1208,60.0029445325,MAFE4ImagesEEG,001,101459,
AFNE01.JPG,AFNE01.JPG,AFNE01.JPG,AFNE01.JPG,AFNE01.JPG,AFNE01.JPG,,,,,5,1,51,6,,,,,,,,,,,,,,,,,,,AFNE19.jpg,AFSA08.jpg,AFNE17.jpg,AFSA20.jpg,AFSA08.jpg,FS,4,num_6,16,num_6,1.15010993346,,,2017_Aug_30_1208,60.0029445325,MAFE4ImagesEEG,001,101459,
AFNE01.JPG,AFNE01.JPG,AFNE01.JPG,AFNE01.JPG,AFNE01.JPG,AFNE01.JPG,,,,,5,2,52,7,,,,,,,,,,,,,,,,,,,AFSA04.jpg,AFNE11.jpg,AFSA12.jpg,AFNE02.jpg,AFSA04.jpg,FS,4,num_8,32,num_6,1.78341840947,,,2017_Aug_30_1208,60.0029445325,MAFE4ImagesEEG,001,101459,
AFNE01.JPG,AFNE01.JPG,AFNE01.JPG,AFNE01.JPG,AFNE01.JPG,AFNE01.JPG,,,,,5,3,53,9,,,,,,,,,,,,,,,,,,,AFSA15.jpg,AFNE18.jpg,AFNE10.jpg,AFSA06.jpg,AFSA06.jpg,FS,4,num_4,32,num_8,1.85007417103,,,2017_Aug_30_1208,60.0029445325,MAFE4ImagesEEG,001,101459,
AFNE01.JPG,AFNE01.JPG,AFNE01.JPG,AFNE01.JPG,AFNE01.JPG,AFNE01.JPG,,,,,5,4,54,8,,,,,,,,,,,,,,,,,,,AFSA05.jpg,AFNE09.jpg,AFNE07.jpg,AFSA01.jpg,AFNE07.jpg,FN,3,num_2,16,num_2,1.13342666853,,,2017_Aug_30_1208,60.0029445325,MAFE4ImagesEEG,001,101459,
AFNE01.JPG,AFNE01.JPG,AFNE01.JPG,AFNE01.JPG,AFNE01.JPG,AFNE01.JPG,,,,,5,5,55,2,,,,,,,,,,,,,,,,,,,AFSA08.jpg,AFNE09.jpg,AFSA02.jpg,AFNE18.jpg,AFSA02.jpg,FS,4,num_2,16,num_2,0.683519602811,,,2017_Aug_30_1208,60.0029445325,MAFE4ImagesEEG,001,101459,
AFNE01.JPG,AFNE01.JPG,AFNE01.JPG,AFNE01.JPG,AFNE01.JPG,AFNE01.JPG,,,,,5,6,56,1,,,,,,,,,,,,,,,,,,,AFNE16.jpg,AFSA07.jpg,AFSA12.jpg,AFNE08.jpg,AFNE16.jpg,FN,3,num_8,16,num_8,1.03347397764,,,2017_Aug_30_1208,60.0029445325,MAFE4ImagesEEG,001,101459,
AFNE01.JPG,AFNE01.JPG,AFNE01.JPG,AFNE01.JPG,AFNE01.JPG,AFNE01.JPG,,,,,5,7,57,5,,,,,,,,,,,,,,,,,,,AFNE11.jpg,AFSA09.jpg,AFNE03.jpg,AFSA04.jpg,AFNE11.jpg,FN,3,num_8,16,num_8,0.933488891984,,,2017_Aug_30_1208,60.0029445325,MAFE4ImagesEEG,001,101459,
AFNE01.JPG,AFNE01.JPG,AFNE01.JPG,AFNE01.JPG,AFNE01.JPG,AFNE01.JPG,,,,,5,8,58,0,,,,,,,,,,,,,,,,,,,AFNE10.jpg,AFSA04.jpg,AFSA12.jpg,AFNE19.jpg,AFSA04.jpg,FS,4,num_6,16,num_6,0.433497070859,,,2017_Aug_30_1208,60.0029445325,MAFE4ImagesEEG,001,101459,
AFNE01.JPG,AFNE01.JPG,AFNE01.JPG,AFNE01.JPG,AFNE01.JPG,AFNE01.JPG,,,,,5,9,59,3,,,,,,,,,,,,,,,,,,,AFSA06.jpg,AFNE08.jpg,AFSA11.jpg,AFNE20.jpg,AFSA06.jpg,FS,4,num_8,16,num_8,1.58346716192,,,2017_Aug_30_1208,60.0029445325,MAFE4ImagesEEG,001,101459,
,,,,,,,,,,,,,,,,,,,,,,,,,,,,,,,,,,,,,,,,,,,space,38.9307433619,2017_Aug_30_1208,60.0029445325,MAFE4ImagesEEG,001,101459,
AFNE01.JPG,AFNE01.JPG,AFNE01.JPG,AFNE01.JPG,AFNE01.JPG,AFNE01.JPG,,,,,,,,,0,0,0,8,,,,,,,,,,,,,,,AMSA12.jpg,AMNE07.jpg,AMSA11.jpg,AMNE16.jpg,AMSA11.jpg,MS,2,num_2,32,num_6,1.10010472144,,,2017_Aug_30_1208,60.0029445325,MAFE4ImagesEEG,001,101459,
AFNE01.JPG,AFNE01.JPG,AFNE01.JPG,AFNE01.JPG,AFNE01.JPG,AFNE01.JPG,,,,,,,,,0,1,1,1,,,,,,,,,,,,,,,AMSA05.jpg,AMNE12.jpg,AMNE15.jpg,AMSA04.jpg,AMNE15.jpg,MN,1,num_2,32,num_6,1.583410391,,,2017_Aug_30_1208,60.0029445325,MAFE4ImagesEEG,001,101459,
AFNE01.JPG,AFNE01.JPG,AFNE01.JPG,AFNE01.JPG,AFNE01.JPG,AFNE01.JPG,,,,,,,,,0,2,2,2,,,,,,,,,,,,,,,AMSA10.jpg,AMSA17.jpg,AMNE11.jpg,AMNE05.jpg,AMSA17.jpg,MS,2,num_6,32,num_2,1.15011506528,,,2017_Aug_30_1208,60.0029445325,MAFE4ImagesEEG,001,101459,
AFNE01.JPG,AFNE01.JPG,AFNE01.JPG,AFNE01.JPG,AFNE01.JPG,AFNE01.JPG,,,,,,,,,0,3,3,6,,,,,,,,,,,,,,,AMNE16.jpg,AMSA06.jpg,AMNE18.jpg,AMSA10.jpg,AMNE18.jpg,MN,1,num_2,16,num_2,1.10012589023,,,2017_Aug_30_1208,60.0029445325,MAFE4ImagesEEG,001,101459,
AFNE01.JPG,AFNE01.JPG,AFNE01.JPG,AFNE01.JPG,AFNE01.JPG,AFNE01.JPG,,,,,,,,,0,4,4,0,,,,,,,,,,,,,,,AMNE02.jpg,AMNE04.jpg,AMSA05.jpg,AMSA12.jpg,AMSA12.jpg,MS,2,num_4,16,num_4,1.11672383844,,,2017_Aug_30_1208,60.0029445325,MAFE4ImagesEEG,001,101459,
AFNE01.JPG,AFNE01.JPG,AFNE01.JPG,AFNE01.JPG,AFNE01.JPG,AFNE01.JPG,,,,,,,,,0,5,5,7,,,,,,,,,,,,,,,AMNE11.jpg,AMNE01.jpg,AMSA08.jpg,AMSA01.jpg,AMNE01.jpg,MN,1,num_6,32,num_2,1.35045440769,,,2017_Aug_30_1208,60.0029445325,MAFE4ImagesEEG,001,101459,
AFNE01.JPG,AFNE01.JPG,AFNE01.JPG,AFNE01.JPG,AFNE01.JPG,AFNE01.JPG,,,,,,,,,0,6,6,5,,,,,,,,,,,,,,,AMNE11.jpg,AMSA17.jpg,AMNE14.jpg,AMSA10.jpg,AMNE11.jpg,MN,1,num_8,32,num_6,1.05007769912,,,2017_Aug_30_1208,60.0029445325,MAFE4ImagesEEG,001,101459,
AFNE01.JPG,AFNE01.JPG,AFNE01.JPG,AFNE01.JPG,AFNE01.JPG,AFNE01.JPG,,,,,,,,,0,7,7,9,,,,,,,,,,,,,,,AMNE15.jpg,AMNE10.jpg,AMSA14.jpg,AMSA04.jpg,AMSA04.jpg,MS,2,num_4,16,num_4,0.983494104003,,,2017_Aug_30_1208,60.0029445325,MAFE4ImagesEEG,001,101459,
AFNE01.JPG,AFNE01.JPG,AFNE01.JPG,AFNE01.JPG,AFNE01.JPG,AFNE01.JPG,,,,,,,,,0,8,8,4,,,,,,,,,,,,,,,AMSA04.jpg,AMNE08.jpg,AMSA07.jpg,AMNE02.jpg,AMNE08.jpg,MN,1,num_6,16,num_6,1.00014593644,,,2017_Aug_30_1208,60.0029445325,MAFE4ImagesEEG,001,101459,
AFNE01.JPG,AFNE01.JPG,AFNE01.JPG,AFNE01.JPG,AFNE01.JPG,AFNE01.JPG,,,,,,,,,0,9,9,3,,,,,,,,,,,,,,,AMSA13.jpg,AMSA12.jpg,AMNE04.jpg,AMNE02.jpg,AMNE04.jpg,MN,1,num_2,16,num_2,1.23343645112,,,2017_Aug_30_1208,60.0029445325,MAFE4ImagesEEG,001,101459,
AFNE01.JPG,AFNE01.JPG,AFNE01.JPG,AFNE01.JPG,AFNE01.JPG,AFNE01.JPG,,,,,,,,,1,0,10,3,,,,,,,,,,,,,,,AMNE02.jpg,AMSA02.jpg,AMNE19.jpg,AMSA07.jpg,AMNE19.jpg,MN,1,num_2,32,num_4,1.41677692084,,,2017_Aug_30_1208,60.0029445325,MAFE4ImagesEEG,001,101459,
AFNE01.JPG,AFNE01.JPG,AFNE01.JPG,AFNE01.JPG,AFNE01.JPG,AFNE01.JPG,,,,,,,,,1,1,11,6,,,,,,,,,,,,,,,AMSA05.jpg,AMNE09.jpg,AMSA15.jpg,AMNE03.jpg,AMNE03.jpg,MN,1,num_4,32,num_6,0.8334900146,,,2017_Aug_30_1208,60.0029445325,MAFE4ImagesEEG,001,101459,
AFNE01.JPG,AFNE01.JPG,AFNE01.JPG,AFNE01.JPG,AFNE01.JPG,AFNE01.JPG,,,,,,,,,1,2,12,9,,,,,,,,,,,,,,,AMSA10.jpg,AMNE20.jpg,AMNE16.jpg,AMSA06.jpg,AMSA10.jpg,MS,2,num_8,32,num_4,0.983475180401,,,2017_Aug_30_1208,60.0029445325,MAFE4ImagesEEG,001,101459,
AFNE01.JPG,AFNE01.JPG,AFNE01.JPG,AFNE01.JPG,AFNE01.JPG,AFNE01.JPG,,,,,,,,,1,3,13,0,,,,,,,,,,,,,,,AMNE17.jpg,AMSA18.jpg,AMNE04.jpg,AMSA14.jpg,AMSA14.jpg,MS,2,num_4,16,num_4,1.4667375501,,,2017_Aug_30_1208,60.0029445325,MAFE4ImagesEEG,001,101459,
AFNE01.JPG,AFNE01.JPG,AFNE01.JPG,AFNE01.JPG,AFNE01.JPG,AFNE01.JPG,,,,,,,,,1,4,14,1,,,,,,,,,,,,,,,AMNE17.jpg,AMNE14.jpg,AMSA09.jpg,AMSA12.jpg,AMNE17.jpg,MN,1,num_8,16,num_8,1.80015170976,,,2017_Aug_30_1208,60.0029445325,MAFE4ImagesEEG,001,101459,
AFNE01.JPG,AFNE01.JPG,AFNE01.JPG,AFNE01.JPG,AFNE01.JPG,AFNE01.JPG,,,,,,,,,1,5,15,7,,,,,,,,,,,,,,,AMNE11.jpg,AMNE13.jpg,AMSA09.jpg,AMSA17.jpg,AMNE13.jpg,MN,1,num_6,16,num_6,1.31679055234,,,2017_Aug_30_1208,60.0029445325,MAFE4ImagesEEG,001,101459,
AFNE01.JPG,AFNE01.JPG,AFNE01.JPG,AFNE01.JPG,AFNE01.JPG,AFNE01.JPG,,,,,,,,,1,6,16,8,,,,,,,,,,,,,,,AMSA07.jpg,AMNE14.jpg,AMNE08.jpg,AMSA08.jpg,AMNE08.jpg,MN,1,num_2,16,num_2,1.00016614306,,,2017_Aug_30_1208,60.0029445325,MAFE4ImagesEEG,001,101459,
AFNE01.JPG,AFNE01.JPG,AFNE01.JPG,AFNE01.JPG,AFNE01.JPG,AFNE01.JPG,,,,,,,,,1,7,17,2,,,,,,,,,,,,,,,AMNE04.jpg,AMSA07.jpg,AMNE08.jpg,AMSA04.jpg,AMNE08.jpg,MN,1,num_2,32,num_6,1.2001019952,,,2017_Aug_30_1208,60.0029445325,MAFE4ImagesEEG,001,101459,
AFNE01.JPG,AFNE01.JPG,AFNE01.JPG,AFNE01.JPG,AFNE01.JPG,AFNE01.JPG,,,,,,,,,1,8,18,4,,,,,,,,,,,,,,,AMSA17.jpg,AMNE06.jpg,AMNE17.jpg,AMSA16.jpg,AMSA17.jpg,MS,2,num_8,32,num_2,1.08347790665,,,2017_Aug_30_1208,60.0029445325,MAFE4ImagesEEG,001,101459,
AFNE01.JPG,AFNE01.JPG,AFNE01.JPG,AFNE01.JPG,AFNE01.JPG,AFNE01.JPG,,,,,,,,,1,9,19,5,,,,,,,,,,,,,,,AMNE05.jpg,AMSA11.jpg,AMSA14.jpg,AMNE07.jpg,AMSA14.jpg,MS,2,num_2,16,num_2,0.866764492239,,,2017_Aug_30_1208,60.0029445325,MAFE4ImagesEEG,001,101459,
AFNE01.JPG,AFNE01.JPG,AFNE01.JPG,AFNE01.JPG,AFNE01.JPG,AFNE01.JPG,,,,,,,,,2,0,20,2,,,,,,,,,,,,,,,AMNE01.jpg,AMSA09.jpg,AMNE19.jpg,AMSA08.jpg,AMSA08.jpg,MS,2,num_4,32,num_8,1.41668839677,,,2017_Aug_30_1208,60.0029445325,MAFE4ImagesEEG,001,101459,
AFNE01.JPG,AFNE01.JPG,AFNE01.JPG,AFNE01.JPG,AFNE01.JPG,AFNE01.JPG,,,,,,,,,2,1,21,5,,,,,,,,,,,,,,,AMSA14.jpg,AMNE19.jpg,AMSA04.jpg,AMNE12.jpg,AMNE19.jpg,MN,1,num_6,16,num_6,0.633568275021,,,2017_Aug_30_1208,60.0029445325,MAFE4ImagesEEG,001,101459,
AFNE01.JPG,AFNE01.JPG,AFNE01.JPG,AFNE01.JPG,AFNE01.JPG,AFNE01.JPG,,,,,,,,,2,2,22,0,,,,,,,,,,,,,,,AMNE14.jpg,AMNE05.jpg,AMSA20.jpg,AMSA02.jpg,AMNE05.jpg,MN,1,num_6,32,num_4,2.39974020101,,,2017_Aug_30_1208,60.0029445325,MAFE4ImagesEEG,001,101459,
AFNE01.JPG,AFNE01.JPG,AFNE01.JPG,AFNE01.JPG,AFNE01.JPG,AFNE01.JPG,,,,,,,,,2,3,23,4,,,,,,,,,,,,,,,AMNE08.jpg,AMSA12.jpg,AMNE17.jpg,AMSA06.jpg,AMSA12.jpg,MS,2,num_6,16,num_6,1.81667620869,,,2017_Aug_30_1208,60.0029445325,MAFE4ImagesEEG,001,101459,
AFNE01.JPG,AFNE01.JPG,AFNE01.JPG,AFNE01.JPG,AFNE01.JPG,AFNE01.JPG,,,,,,,,,2,4,24,1,,,,,,,,,,,,,,,AMNE18.jpg,AMSA09.jpg,AMSA15.jpg,AMNE20.jpg,AMNE18.jpg,MN,1,num_8,16,num_8,0.733490174927,,,2017_Aug_30_1208,60.0029445325,MAFE4ImagesEEG,001,101459,
AFNE01.JPG,AFNE01.JPG,AFNE01.JPG,AFNE01.JPG,AFNE01.JPG,AFNE01.JPG,,,,,,,,,2,5,25,8,,,,,,,,,,,,,,,AMSA12.jpg,AMNE08.jpg,AMSA04.jpg,AMNE07.jpg,AMNE08.jpg,MN,1,num_6,16,num_6,0.950123083778,,,2017_Aug_30_1208,60.0029445325,MAFE4ImagesEEG,001,101459,
AFNE01.JPG,AFNE01.JPG,AFNE01.JPG,AFNE01.JPG,AFNE01.JPG,AFNE01.JPG,,,,,,,,,2,6,26,9,,,,,,,,,,,,,,,AMNE13.jpg,AMSA06.jpg,AMSA19.jpg,AMNE11.jpg,AMNE13.jpg,MN,1,num_8,32,num_6,1.21669737744,,,2017_Aug_30_1208,60.0029445325,MAFE4ImagesEEG,001,101459,
AFNE01.JPG,AFNE01.JPG,AFNE01.JPG,AFNE01.JPG,AFNE01.JPG,AFNE01.JPG,,,,,,,,,2,7,27,7,,,,,,,,,,,,,,,AMNE14.jpg,AMSA13.jpg,AMNE15.jpg,AMSA18.jpg,AMNE15.jpg,MN,1,num_2,32,num_4,1.01678109047,,,2017_Aug_30_1208,60.0029445325,MAFE4ImagesEEG,001,101459,
AFNE01.JPG,AFNE01.JPG,AFNE01.JPG,AFNE01.JPG,AFNE01.JPG,AFNE01.JPG,,,,,,,,,2,8,28,6,,,,,,,,,,,,,,,AMSA04.jpg,AMNE19.jpg,AMNE07.jpg,AMSA03.jpg,AMNE07.jpg,MN,1,num_2,16,num_2,1.70006559126,,,2017_Aug_30_1208,60.0029445325,MAFE4ImagesEEG,001,101459,
AFNE01.JPG,AFNE01.JPG,AFNE01.JPG,AFNE01.JPG,AFNE01.JPG,AFNE01.JPG,,,,,,,,,2,9,29,3,,,,,,,,,,,,,,,AMNE10.jpg,AMSA10.jpg,AMSA12.jpg,AMNE03.jpg,AMNE03.jpg,MN,1,num_4,16,num_4,2.11659297673,,,2017_Aug_30_1208,60.0029445325,MAFE4ImagesEEG,001,101459,
AFNE01.JPG,AFNE01.JPG,AFNE01.JPG,AFNE01.JPG,AFNE01.JPG,AFNE01.JPG,,,,,,,,,3,0,30,7,,,,,,,,,,,,,,,AMSA08.jpg,AMNE09.jpg,AMSA07.jpg,AMNE15.jpg,AMSA08.jpg,MS,2,num_8,32,num_4,1.36675086076,,,2017_Aug_30_1208,60.0029445325,MAFE4ImagesEEG,001,101459,
AFNE01.JPG,AFNE01.JPG,AFNE01.JPG,AFNE01.JPG,AFNE01.JPG,AFNE01.JPG,,,,,,,,,3,1,31,9,,,,,,,,,,,,,,,AMSA13.jpg,AMNE18.jpg,AMNE10.jpg,AMSA02.jpg,AMNE18.jpg,MN,1,num_6,16,num_6,0.600151709747,,,2017_Aug_30_1208,60.0029445325,MAFE4ImagesEEG,001,101459,
AFNE01.JPG,AFNE01.JPG,AFNE01.JPG,AFNE01.JPG,AFNE01.JPG,AFNE01.JPG,,,,,,,,,3,2,32,1,,,,,,,,,,,,,,,AMNE10.jpg,AMSA04.jpg,AMSA15.jpg,AMNE20.jpg,AMSA15.jpg,MS,2,num_2,32,num_8,1.03345056361,,,2017_Aug_30_1208,60.0029445325,MAFE4ImagesEEG,001,101459,
AFNE01.JPG,AFNE01.JPG,AFNE01.JPG,AFNE01.JPG,AFNE01.JPG,AFNE01.JPG,,,,,,,,,3,3,33,8,,,,,,,,,,,,,,,AMSA15.jpg,AMSA10.jpg,AMNE09.jpg,AMNE05.jpg,AMSA15.jpg,MS,2,num_8,16,num_8,0.650120999024,,,2017_Aug_30_1208,60.0029445325,MAFE4ImagesEEG,001,101459,
AFNE01.JPG,AFNE01.JPG,AFNE01.JPG,AFNE01.JPG,AFNE01.JPG,AFNE01.JPG,,,,,,,,,3,4,34,6,,,,,,,,,,,,,,,AMNE04.jpg,AMSA06.jpg,AMSA03.jpg,AMNE03.jpg,AMNE03.jpg,MN,1,num_4,16,num_4,0.90007777937,,,2017_Aug_30_1208,60.0029445325,MAFE4ImagesEEG,001,101459,
AFNE01.JPG,AFNE01.JPG,AFNE01.JPG,AFNE01.JPG,AFNE01.JPG,AFNE01.JPG,,,,,,,,,3,5,35,5,,,,,,,,,,,,,,,AMNE15.jpg,AMSA08.jpg,AMSA07.jpg,AMNE16.jpg,AMSA08.jpg,MS,2,num_6,16,num_6,1.00010680623,,,2017_Aug_30_1208,60.0029445325,MAFE4ImagesEEG,001,101459,
AFNE01.JPG,AFNE01.JPG,AFNE01.JPG,AFNE01.JPG,AFNE01.JPG,AFNE01.JPG,,,,,,,,,3,6,36,2,,,,,,,,,,,,,,,AMNE15.jpg,AMSA02.jpg,AMSA03.jpg,AMNE09.jpg,AMNE15.jpg,MN,1,num_8,16,num_8,0.766814046481,,,2017_Aug_30_1208,60.0029445325,MAFE4ImagesEEG,001,101459,
AFNE01.JPG,AFNE01.JPG,AFNE01.JPG,AFNE01.JPG,AFNE01.JPG,AFNE01.JPG,,,,,,,,,3,7,37,3,,,,,,,,,,,,,,,AMNE08.jpg,AMNE17.jpg,AMSA11.jpg,AMSA12.jpg,AMSA12.jpg,MS,2,num_4,32,num_8,1.70006270456,,,2017_Aug_30_1208,60.0029445325,MAFE4ImagesEEG,001,101459,
AFNE01.JPG,AFNE01.JPG,AFNE01.JPG,AFNE01.JPG,AFNE01.JPG,AFNE01.JPG,,,,,,,,,3,8,38,4,,,,,,,,,,,,,,,AMNE10.jpg,AMSA14.jpg,AMNE18.jpg,AMSA08.jpg,AMSA08.jpg,MS,2,num_4,32,num_6,0.866844997799,,,2017_Aug_30_1208,60.0029445325,MAFE4ImagesEEG,001,101459,
AFNE01.JPG,AFNE01.JPG,AFNE01.JPG,AFNE01.JPG,AFNE01.JPG,AFNE01.JPG,,,,,,,,,3,9,39,0,,,,,,,,,,,,,,,AMSA07.jpg,AMNE16.jpg,AMSA20.jpg,AMNE15.jpg,AMNE16.jpg,MN,1,num_6,16,num_6,0.983477104804,,,2017_Aug_30_1208,60.0029445325,MAFE4ImagesEEG,001,101459,
AFNE01.JPG,AFNE01.JPG,AFNE01.JPG,AFNE01.JPG,AFNE01.JPG,AFNE01.JPG,,,,,,,,,4,0,40,7,,,,,,,,,,,,,,,AMNE07.jpg,AMNE02.jpg,AMSA10.jpg,AMSA02.jpg,AMNE02.jpg,MN,1,num_6,16,num_6,0.733473817236,,,2017_Aug_30_1208,60.0029445325,MAFE4ImagesEEG,001,101459,
AFNE01.JPG,AFNE01.JPG,AFNE01.JPG,AFNE01.JPG,AFNE01.JPG,AFNE01.JPG,,,,,,,,,4,1,41,9,,,,,,,,,,,,,,,AMNE18.jpg,AMSA11.jpg,AMNE14.jpg,AMSA15.jpg,AMSA15.jpg,MS,2,num_4,16,num_4,0.916812041891,,,2017_Aug_30_1208,60.0029445325,MAFE4ImagesEEG,001,101459,
AFNE01.JPG,AFNE01.JPG,AFNE01.JPG,AFNE01.JPG,AFNE01.JPG,AFNE01.JPG,,,,,,,,,4,2,42,1,,,,,,,,,,,,,,,AMSA06.jpg,AMNE01.jpg,AMNE11.jpg,AMSA20.jpg,AMSA06.jpg,MS,2,num_8,32,num_6,1.21670475445,,,2017_Aug_30_1208,60.0029445325,MAFE4ImagesEEG,001,101459,
AFNE01.JPG,AFNE01.JPG,AFNE01.JPG,AFNE01.JPG,AFNE01.JPG,AFNE01.JPG,,,,,,,,,4,3,43,3,,,,,,,,,,,,,,,AMSA20.jpg,AMSA13.jpg,AMNE06.jpg,AMNE15.jpg,AMSA20.jpg,MS,2,num_8,16,num_8,0.633518881106,,,2017_Aug_30_1208,60.0029445325,MAFE4ImagesEEG,001,101459,
AFNE01.JPG,AFNE01.JPG,AFNE01.JPG,AFNE01.JPG,AFNE01.JPG,AFNE01.JPG,,,,,,,,,4,4,44,2,,,,,,,,,,,,,,,AMSA18.jpg,AMSA17.jpg,AMNE13.jpg,AMNE03.jpg,AMSA17.jpg,MS,2,num_6,16,num_6,0.466861676308,,,2017_Aug_30_1208,60.0029445325,MAFE4ImagesEEG,001,101459,
AFNE01.JPG,AFNE01.JPG,AFNE01.JPG,AFNE01.JPG,AFNE01.JPG,AFNE01.JPG,,,,,,,,,4,5,45,8,,,,,,,,,,,,,,,AMNE10.jpg,AMNE13.jpg,AMSA09.jpg,AMSA03.jpg,AMSA09.jpg,MS,2,num_2,16,num_2,1.2666355549,,,2017_Aug_30_1208,60.0029445325,MAFE4ImagesEEG,001,101459,
AFNE01.JPG,AFNE01.JPG,AFNE01.JPG,AFNE01.JPG,AFNE01.JPG,AFNE01.JPG,,,,,,,,,4,6,46,4,,,,,,,,,,,,,,,AMNE11.jpg,AMSA18.jpg,AMSA15.jpg,AMNE10.jpg,AMNE11.jpg,MN,1,num_8,16,num_8,0.650176486932,,,2017_Aug_30_1208,60.0029445325,MAFE4ImagesEEG,001,101459,
AFNE01.JPG,AFNE01.JPG,AFNE01.JPG,AFNE01.JPG,AFNE01.JPG,AFNE01.JPG,,,,,,,,,4,7,47,5,,,,,,,,,,,,,,,AMNE07.jpg,AMSA09.jpg,AMSA13.jpg,AMNE16.jpg,AMSA09.jpg,MS,2,num_6,16,num_6,0.983492821048,,,2017_Aug_30_1208,60.0029445325,MAFE4ImagesEEG,001,101459,
AFNE01.JPG,AFNE01.JPG,AFNE01.JPG,AFNE01.JPG,AFNE01.JPG,AFNE01.JPG,,,,,,,,,4,8,48,6,,,,,,,,,,,,,,,AMNE03.jpg,AMSA10.jpg,AMSA06.jpg,AMNE17.jpg,AMNE17.jpg,MN,1,num_4,32,num_8,1.06674396485,,,2017_Aug_30_1208,60.0029445325,MAFE4ImagesEEG,001,101459,
AFNE01.JPG,AFNE01.JPG,AFNE01.JPG,AFNE01.JPG,AFNE01.JPG,AFNE01.JPG,,,,,,,,,4,9,49,0,,,,,,,,,,,,,,,AMNE10.jpg,AMNE15.jpg,AMSA20.jpg,AMSA11.jpg,AMSA11.jpg,MS,2,num_4,16,num_4,0.9832933211,,,2017_Aug_30_1208,60.0029445325,MAFE4ImagesEEG,001,101459,
AFNE01.JPG,AFNE01.JPG,AFNE01.JPG,AFNE01.JPG,AFNE01.JPG,AFNE01.JPG,,,,,,,,,5,0,50,6,,,,,,,,,,,,,,,AMNE15.jpg,AMSA10.jpg,AMSA18.jpg,AMNE11.jpg,AMNE11.jpg,MN,1,num_4,16,num_4,1.41668807605,,,2017_Aug_30_1208,60.0029445325,MAFE4ImagesEEG,001,101459,
AFNE01.JPG,AFNE01.JPG,AFNE01.JPG,AFNE01.JPG,AFNE01.JPG,AFNE01.JPG,,,,,,,,,5,1,51,8,,,,,,,,,,,,,,,AMNE07.jpg,AMSA04.jpg,AMNE09.jpg,AMSA03.jpg,AMNE09.jpg,MN,1,num_2,16,num_2,1.0667237583,,,2017_Aug_30_1208,60.0029445325,MAFE4ImagesEEG,001,101459,
AFNE01.JPG,AFNE01.JPG,AFNE01.JPG,AFNE01.JPG,AFNE01.JPG,AFNE01.JPG,,,,,,,,,5,2,52,4,,,,,,,,,,,,,,,AMSA06.jpg,AMNE15.jpg,AMSA07.jpg,AMNE11.jpg,AMSA07.jpg,MS,2,num_2,16,num_2,1.35008972691,,,2017_Aug_30_1208,60.0029445325,MAFE4ImagesEEG,001,101459,
AFNE01.JPG,AFNE01.JPG,AFNE01.JPG,AFNE01.JPG,AFNE01.JPG,AFNE01.JPG,,,,,,,,,5,3,53,7,,,,,,,,,,,,,,,AMSA03.jpg,AMSA08.jpg,AMNE07.jpg,AMNE09.jpg,AMNE07.jpg,MN,1,num_2,16,num_2,1.01673682843,,,2017_Aug_30_1208,60.0029445325,MAFE4ImagesEEG,001,101459,
AFNE01.JPG,AFNE01.JPG,AFNE01.JPG,AFNE01.JPG,AFNE01.JPG,AFNE01.JPG,,,,,,,,,5,4,54,9,,,,,,,,,,,,,,,AMNE02.jpg,AMSA07.jpg,AMNE12.jpg,AMSA12.jpg,AMSA12.jpg,MS,2,num_4,32,num_6,1.53339491534,,,2017_Aug_30_1208,60.0029445325,MAFE4ImagesEEG,001,101459,
AFNE01.JPG,AFNE01.JPG,AFNE01.JPG,AFNE01.JPG,AFNE01.JPG,AFNE01.JPG,,,,,,,,,5,5,55,0,,,,,,,,,,,,,,,AMNE11.jpg,AMNE12.jpg,AMSA17.jpg,AMSA06.jpg,AMNE12.jpg,MN,1,num_6,32,num_2,1.23343837552,,,2017_Aug_30_1208,60.0029445325,MAFE4ImagesEEG,001,101459,
AFNE01.JPG,AFNE01.JPG,AFNE01.JPG,AFNE01.JPG,AFNE01.JPG,AFNE01.JPG,,,,,,,,,5,6,56,3,,,,,,,,,,,,,,,AMNE11.jpg,AMNE13.jpg,AMSA12.jpg,AMSA04.jpg,AMNE11.jpg,MN,1,num_8,16,num_8,0.916807230795,,,2017_Aug_30_1208,60.0029445325,MAFE4ImagesEEG,001,101459,
AFNE01.JPG,AFNE01.JPG,AFNE01.JPG,AFNE01.JPG,AFNE01.JPG,AFNE01.JPG,,,,,,,,,5,7,57,5,,,,,,,,,,,,,,,AMNE12.jpg,AMSA03.jpg,AMSA13.jpg,AMNE04.jpg,AMSA03.jpg,MS,2,num_6,16,num_6,1.50005917641,,,2017_Aug_30_1208,60.0029445325,MAFE4ImagesEEG,001,101459,
AFNE01.JPG,AFNE01.JPG,AFNE01.JPG,AFNE01.JPG,AFNE01.JPG,AFNE01.JPG,,,,,,,,,5,8,58,2,,,,,,,,,,,,,,,AMSA05.jpg,AMNE13.jpg,AMSA02.jpg,AMNE02.jpg,AMNE02.jpg,MN,1,num_4,16,num_4,1.21673586621,,,2017_Aug_30_1208,60.0029445325,MAFE4ImagesEEG,001,101459,
AFNE01.JPG,AFNE01.JPG,AFNE01.JPG,AFNE01.JPG,AFNE01.JPG,AFNE01.JPG,,,,,,,,,5,9,59,1,,,,,,,,,,,,,,,AMSA15.jpg,AMNE12.jpg,AMSA10.jpg,AMNE14.jpg,AMSA15.jpg,MS,2,num_8,16,num_8,0.816776920867,,,2017_Aug_30_1208,60.0029445325,MAFE4ImagesEEG,001,101459,
,,,,,,,,,,,,,,,,,,,,,,,,,,,,,,,,,,,,,,,,,,,space,15.1823080093,2017_Aug_30_1208,60.0029445325,MAFE4ImagesEEG,001,101459,
AFNE01.JPG,AFNE01.JPG,AFNE01.JPG,AFNE01.JPG,AFNE01.JPG,AFNE01.JPG,,,,,,,,,,,,,0,0,0,8,,,,,,,,,,,AFNE20.jpg,AFSA19.jpg,AFSA12.jpg,AFNE04.jpg,AFSA19.jpg,FS,4,num_6,32,num_2,1.00008852413,,,2017_Aug_30_1208,60.0029445325,MAFE4ImagesEEG,001,101459,
AFNE01.JPG,AFNE01.JPG,AFNE01.JPG,AFNE01.JPG,AFNE01.JPG,AFNE01.JPG,,,,,,,,,,,,,0,1,1,0,,,,,,,,,,,AFSA14.jpg,AFNE13.jpg,AFNE10.jpg,AFSA16.jpg,AFNE13.jpg,FN,3,num_6,16,num_6,0.833448318415,,,2017_Aug_30_1208,60.0029445325,MAFE4ImagesEEG,001,101459,
AFNE01.JPG,AFNE01.JPG,AFNE01.JPG,AFNE01.JPG,AFNE01.JPG,AFNE01.JPG,,,,,,,,,,,,,0,2,2,7,,,,,,,,,,,AFNE17.jpg,AFSA03.jpg,AFNE19.jpg,AFSA13.jpg,AFSA03.jpg,FS,4,num_6,32,num_2,0.783480953716,,,2017_Aug_30_1208,60.0029445325,MAFE4ImagesEEG,001,101459,
AFNE01.JPG,AFNE01.JPG,AFNE01.JPG,AFNE01.JPG,AFNE01.JPG,AFNE01.JPG,,,,,,,,,,,,,0,3,3,1,,,,,,,,,,,AFSA17.jpg,AFNE19.jpg,AFNE15.jpg,AFSA16.jpg,AFNE19.jpg,FN,3,num_6,16,num_6,0.950087160978,,,2017_Aug_30_1208,60.0029445325,MAFE4ImagesEEG,001,101459,
AFNE01.JPG,AFNE01.JPG,AFNE01.JPG,AFNE01.JPG,AFNE01.JPG,AFNE01.JPG,,,,,,,,,,,,,0,4,4,4,,,,,,,,,,,AFSA05.jpg,AFNE20.jpg,AFNE16.jpg,AFSA17.jpg,AFNE20.jpg,FN,3,num_6,32,num_8,1.20011161733,,,2017_Aug_30_1208,60.0029445325,MAFE4ImagesEEG,001,101459,
AFNE01.JPG,AFNE01.JPG,AFNE01.JPG,AFNE01.JPG,AFNE01.JPG,AFNE01.JPG,,,,,,,,,,,,,0,5,5,3,,,,,,,,,,,AFNE03.jpg,AFNE14.jpg,AFSA18.jpg,AFSA20.jpg,AFNE03.jpg,FN,3,num_8,16,num_8,1.1334208952,,,2017_Aug_30_1208,60.0029445325,MAFE4ImagesEEG,001,101459,
AFNE01.JPG,AFNE01.JPG,AFNE01.JPG,AFNE01.JPG,AFNE01.JPG,AFNE01.JPG,,,,,,,,,,,,,0,6,6,6,,,,,,,,,,,AFNE20.jpg,AFSA03.jpg,AFNE12.jpg,AFSA10.jpg,AFSA03.jpg,FS,4,num_6,32,num_8,0.750112178677,,,2017_Aug_30_1208,60.0029445325,MAFE4ImagesEEG,001,101459,
AFNE01.JPG,AFNE01.JPG,AFNE01.JPG,AFNE01.JPG,AFNE01.JPG,AFNE01.JPG,,,,,,,,,,,,,0,7,7,5,,,,,,,,,,,AFNE13.jpg,AFSA02.jpg,AFNE02.jpg,AFSA18.jpg,AFNE13.jpg,FN,3,num_8,16,num_8,0.983431239089,,,2017_Aug_30_1208,60.0029445325,MAFE4ImagesEEG,001,101459,
AFNE01.JPG,AFNE01.JPG,AFNE01.JPG,AFNE01.JPG,AFNE01.JPG,AFNE01.JPG,,,,,,,,,,,,,0,8,8,9,,,,,,,,,,,AFNE09.jpg,AFNE05.jpg,AFSA10.jpg,AFSA20.jpg,AFNE09.jpg,FN,3,num_8,16,num_8,1.41670988634,,,2017_Aug_30_1208,60.0029445325,MAFE4ImagesEEG,001,101459,
AFNE01.JPG,AFNE01.JPG,AFNE01.JPG,AFNE01.JPG,AFNE01.JPG,AFNE01.JPG,,,,,,,,,,,,,0,9,9,2,,,,,,,,,,,AFNE20.jpg,AFNE17.jpg,AFSA06.jpg,AFSA19.jpg,AFNE20.jpg,FN,3,num_8,16,num_8,0.88346090744,,,2017_Aug_30_1208,60.0029445325,MAFE4ImagesEEG,001,101459,
AFNE01.JPG,AFNE01.JPG,AFNE01.JPG,AFNE01.JPG,AFNE01.JPG,AFNE01.JPG,,,,,,,,,,,,,1,0,10,1,,,,,,,,,,,AFNE18.jpg,AFSA04.jpg,AFNE10.jpg,AFSA09.jpg,AFNE10.jpg,FN,3,num_2,16,num_2,1.26670002355,,,2017_Aug_30_1208,60.0029445325,MAFE4ImagesEEG,001,101459,
AFNE01.JPG,AFNE01.JPG,AFNE01.JPG,AFNE01.JPG,AFNE01.JPG,AFNE01.JPG,,,,,,,,,,,,,1,1,11,6,,,,,,,,,,,AFSA08.jpg,AFNE06.jpg,AFNE09.jpg,AFSA01.jpg,AFNE06.jpg,FN,3,num_6,16,num_6,1.11682134331,,,2017_Aug_30_1208,60.0029445325,MAFE4ImagesEEG,001,101459,
AFNE01.JPG,AFNE01.JPG,AFNE01.JPG,AFNE01.JPG,AFNE01.JPG,AFNE01.JPG,,,,,,,,,,,,,1,2,12,5,,,,,,,,,,,AFNE16.jpg,AFNE19.jpg,AFSA07.jpg,AFSA19.jpg,AFNE16.jpg,FN,3,num_8,16,num_8,1.10008066596,,,2017_Aug_30_1208,60.0029445325,MAFE4ImagesEEG,001,101459,
AFNE01.JPG,AFNE01.JPG,AFNE01.JPG,AFNE01.JPG,AFNE01.JPG,AFNE01.JPG,,,,,,,,,,,,,1,3,13,0,,,,,,,,,,,AFSA20.jpg,AFNE15.jpg,AFNE17.jpg,AFSA17.jpg,AFNE15.jpg,FN,3,num_6,32,num_8,1.23348873161,,,2017_Aug_30_1208,60.0029445325,MAFE4ImagesEEG,001,101459,
AFNE01.JPG,AFNE01.JPG,AFNE01.JPG,AFNE01.JPG,AFNE01.JPG,AFNE01.JPG,,,,,,,,,,,,,1,4,14,9,,,,,,,,,,,AFSA04.jpg,AFNE13.jpg,AFSA19.jpg,AFNE15.jpg,AFNE13.jpg,FN,3,num_6,32,num_2,2.31667380308,,,2017_Aug_30_1208,60.0029445325,MAFE4ImagesEEG,001,101459,
AFNE01.JPG,AFNE01.JPG,AFNE01.JPG,AFNE01.JPG,AFNE01.JPG,AFNE01.JPG,,,,,,,,,,,,,1,5,15,2,,,,,,,,,,,AFNE01.jpg,AFSA12.jpg,AFSA08.jpg,AFNE04.jpg,AFSA12.jpg,FS,4,num_6,16,num_6,0.750191722065,,,2017_Aug_30_1208,60.0029445325,MAFE4ImagesEEG,001,101459,
AFNE01.JPG,AFNE01.JPG,AFNE01.JPG,AFNE01.JPG,AFNE01.JPG,AFNE01.JPG,,,,,,,,,,,,,1,6,16,8,,,,,,,,,,,AFSA12.jpg,AFSA06.jpg,AFNE10.jpg,AFNE19.jpg,AFNE19.jpg,FN,3,num_4,32,num_2,1.0667067591,,,2017_Aug_30_1208,60.0029445325,MAFE4ImagesEEG,001,101459,
AFNE01.JPG,AFNE01.JPG,AFNE01.JPG,AFNE01.JPG,AFNE01.JPG,AFNE01.JPG,,,,,,,,,,,,,1,7,17,7,,,,,,,,,,,AFNE06.jpg,AFSA09.jpg,AFNE15.jpg,AFSA14.jpg,AFNE15.jpg,FN,3,num_2,16,num_2,1.35009517946,,,2017_Aug_30_1208,60.0029445325,MAFE4ImagesEEG,001,101459,
AFNE01.JPG,AFNE01.JPG,AFNE01.JPG,AFNE01.JPG,AFNE01.JPG,AFNE01.JPG,,,,,,,,,,,,,1,8,18,4,,,,,,,,,,,AFSA18.jpg,AFSA20.jpg,AFNE15.jpg,AFNE18.jpg,AFSA18.jpg,FS,4,num_8,16,num_8,0.83344960137,,,2017_Aug_30_1208,60.0029445325,MAFE4ImagesEEG,001,101459,
AFNE01.JPG,AFNE01.JPG,AFNE01.JPG,AFNE01.JPG,AFNE01.JPG,AFNE01.JPG,,,,,,,,,,,,,1,9,19,3,,,,,,,,,,,AFNE07.jpg,AFSA02.jpg,AFNE02.jpg,AFSA11.jpg,AFNE07.jpg,FN,3,num_8,16,num_8,0.633465638384,,,2017_Aug_30_1208,60.0029445325,MAFE4ImagesEEG,001,101459,
AFNE01.JPG,AFNE01.JPG,AFNE01.JPG,AFNE01.JPG,AFNE01.JPG,AFNE01.JPG,,,,,,,,,,,,,2,0,20,5,,,,,,,,,,,AFNE09.jpg,AFNE10.jpg,AFSA16.jpg,AFSA04.jpg,AFNE09.jpg,FN,3,num_8,32,num_2,1.11678060942,,,2017_Aug_30_1208,60.0029445325,MAFE4ImagesEEG,001,101459,
AFNE01.JPG,AFNE01.JPG,AFNE01.JPG,AFNE01.JPG,AFNE01.JPG,AFNE01.JPG,,,,,,,,,,,,,2,1,21,4,,,,,,,,,,,AFSA11.jpg,AFSA02.jpg,AFNE03.jpg,AFNE20.jpg,AFNE20.jpg,FN,3,num_4,32,num_6,0.583611173905,,,2017_Aug_30_1208,60.0029445325,MAFE4ImagesEEG,001,101459,
AFNE01.JPG,AFNE01.JPG,AFNE01.JPG,AFNE01.JPG,AFNE01.JPG,AFNE01.JPG,,,,,,,,,,,,,2,2,22,3,,,,,,,,,,,AFNE10.jpg,AFSA07.jpg,AFNE19.jpg,AFSA15.jpg,AFSA15.jpg,FS,4,num_4,32,num_8,0.850085717626,,,2017_Aug_30_1208,60.0029445325,MAFE4ImagesEEG,001,101459,
AFNE01.JPG,AFNE01.JPG,AFNE01.JPG,AFNE01.JPG,AFNE01.JPG,AFNE01.JPG,,,,,,,,,,,,,2,3,23,2,,,,,,,,,,,AFNE16.jpg,AFSA11.jpg,AFSA10.jpg,AFNE15.jpg,AFNE16.jpg,FN,3,num_8,32,num_4,0.783510782465,,,2017_Aug_30_1208,60.0029445325,MAFE4ImagesEEG,001,101459,
AFNE01.JPG,AFNE01.JPG,AFNE01.JPG,AFNE01.JPG,AFNE01.JPG,AFNE01.JPG,,,,,,,,,,,,,2,4,24,1,,,,,,,,,,,AFNE12.jpg,AFSA18.jpg,AFNE19.jpg,AFSA17.jpg,AFNE12.jpg,FN,3,num_8,32,num_2,0.850128696708,,,2017_Aug_30_1208,60.0029445325,MAFE4ImagesEEG,001,101459,
AFNE01.JPG,AFNE01.JPG,AFNE01.JPG,AFNE01.JPG,AFNE01.JPG,AFNE01.JPG,,,,,,,,,,,,,2,5,25,9,,,,,,,,,,,AFSA16.jpg,AFSA13.jpg,AFNE11.jpg,AFNE12.jpg,AFNE12.jpg,FN,3,num_4,32,num_6,0.966565794079,,,2017_Aug_30_1208,60.0029445325,MAFE4ImagesEEG,001,101459,
AFNE01.JPG,AFNE01.JPG,AFNE01.JPG,AFNE01.JPG,AFNE01.JPG,AFNE01.JPG,,,,,,,,,,,,,2,6,26,7,,,,,,,,,,,AFNE16.jpg,AFSA06.jpg,AFSA09.jpg,AFNE13.jpg,AFSA09.jpg,FS,4,num_2,32,num_6,0.750139120733,,,2017_Aug_30_1208,60.0029445325,MAFE4ImagesEEG,001,101459,
AFNE01.JPG,AFNE01.JPG,AFNE01.JPG,AFNE01.JPG,AFNE01.JPG,AFNE01.JPG,,,,,,,,,,,,,2,7,27,0,,,,,,,,,,,AFSA11.jpg,AFNE01.jpg,AFSA06.jpg,AFNE03.jpg,AFSA11.jpg,FS,4,num_8,32,num_2,0.933276883152,,,2017_Aug_30_1208,60.0029445325,MAFE4ImagesEEG,001,101459,
AFNE01.JPG,AFNE01.JPG,AFNE01.JPG,AFNE01.JPG,AFNE01.JPG,AFNE01.JPG,,,,,,,,,,,,,2,8,28,8,,,,,,,,,,,AFSA15.jpg,AFSA02.jpg,AFNE14.jpg,AFNE16.jpg,AFSA02.jpg,FS,4,num_6,32,num_8,0.750149063708,,,2017_Aug_30_1208,60.0029445325,MAFE4ImagesEEG,001,101459,
AFNE01.JPG,AFNE01.JPG,AFNE01.JPG,AFNE01.JPG,AFNE01.JPG,AFNE01.JPG,,,,,,,,,,,,,2,9,29,6,,,,,,,,,,,AFNE05.jpg,AFNE07.jpg,AFSA19.jpg,AFSA16.jpg,AFSA19.jpg,FS,4,num_2,16,num_2,0.966762407392,,,2017_Aug_30_1208,60.0029445325,MAFE4ImagesEEG,001,101459,
AFNE01.JPG,AFNE01.JPG,AFNE01.JPG,AFNE01.JPG,AFNE01.JPG,AFNE01.JPG,,,,,,,,,,,,,3,0,30,3,,,,,,,,,,,AFSA11.jpg,AFNE03.jpg,AFSA13.jpg,AFNE11.jpg,AFNE03.jpg,FN,3,num_6,16,num_6,1.10010087257,,,2017_Aug_30_1208,60.0029445325,MAFE4ImagesEEG,001,101459,
AFNE01.JPG,AFNE01.JPG,AFNE01.JPG,AFNE01.JPG,AFNE01.JPG,AFNE01.JPG,,,,,,,,,,,,,3,1,31,0,,,,,,,,,,,AFSA07.jpg,AFNE18.jpg,AFSA16.jpg,AFNE11.jpg,AFSA16.jpg,FS,4,num_2,16,num_2,0.950148422213,,,2017_Aug_30_1208,60.0029445325,MAFE4ImagesEEG,001,101459,
AFNE01.JPG,AFNE01.JPG,AFNE01.JPG,AFNE01.JPG,AFNE01.JPG,AFNE01.JPG,,,,,,,,,,,,,3,2,32,6,,,,,,,,,,,AFNE06.jpg,AFSA01.jpg,AFNE01.jpg,AFSA19.jpg,AFNE06.jpg,FN,3,num_8,16,num_8,0.766770425893,,,2017_Aug_30_1208,60.0029445325,MAFE4ImagesEEG,001,101459,
AFNE01.JPG,AFNE01.JPG,AFNE01.JPG,AFNE01.JPG,AFNE01.JPG,AFNE01.JPG,,,,,,,,,,,,,3,3,33,8,,,,,,,,,,,AFNE18.jpg,AFSA16.jpg,AFNE08.jpg,AFSA05.jpg,AFNE18.jpg,FN,3,num_8,32,num_6,0.983460105606,,,2017_Aug_30_1208,60.0029445325,MAFE4ImagesEEG,001,101459,
AFNE01.JPG,AFNE01.JPG,AFNE01.JPG,AFNE01.JPG,AFNE01.JPG,AFNE01.JPG,,,,,,,,,,,,,3,4,34,7,,,,,,,,,,,AFSA13.jpg,AFNE01.jpg,AFNE11.jpg,AFSA15.jpg,AFSA13.jpg,FS,4,num_8,32,num_6,1.216757035,,,2017_Aug_30_1208,60.0029445325,MAFE4ImagesEEG,001,101459,
AFNE01.JPG,AFNE01.JPG,AFNE01.JPG,AFNE01.JPG,AFNE01.JPG,AFNE01.JPG,,,,,,,,,,,,,3,5,35,4,,,,,,,,,,,AFSA07.jpg,AFSA03.jpg,AFNE19.jpg,AFNE02.jpg,AFSA03.jpg,FS,4,num_6,16,num_6,0.466800415015,,,2017_Aug_30_1208,60.0029445325,MAFE4ImagesEEG,001,101459,
AFNE01.JPG,AFNE01.JPG,AFNE01.JPG,AFNE01.JPG,AFNE01.JPG,AFNE01.JPG,,,,,,,,,,,,,3,6,36,5,,,,,,,,,,,AFNE03.jpg,AFSA06.jpg,AFSA13.jpg,AFNE06.jpg,AFNE03.jpg,FN,3,num_8,16,num_8,0.483525055402,,,2017_Aug_30_1208,60.0029445325,MAFE4ImagesEEG,001,101459,
AFNE01.JPG,AFNE01.JPG,AFNE01.JPG,AFNE01.JPG,AFNE01.JPG,AFNE01.JPG,,,,,,,,,,,,,3,7,37,2,,,,,,,,,,,AFSA19.jpg,AFSA03.jpg,AFNE19.jpg,AFNE11.jpg,AFSA03.jpg,FS,4,num_6,16,num_6,1.43343035702,,,2017_Aug_30_1208,60.0029445325,MAFE4ImagesEEG,001,101459,
AFNE01.JPG,AFNE01.JPG,AFNE01.JPG,AFNE01.JPG,AFNE01.JPG,AFNE01.JPG,,,,,,,,,,,,,3,8,38,9,,,,,,,,,,,AFSA17.jpg,AFNE03.jpg,AFSA03.jpg,AFNE16.jpg,AFNE03.jpg,FN,3,num_6,16,num_6,0.633424583764,,,2017_Aug_30_1208,60.0029445325,MAFE4ImagesEEG,001,101459,
AFNE01.JPG,AFNE01.JPG,AFNE01.JPG,AFNE01.JPG,AFNE01.JPG,AFNE01.JPG,,,,,,,,,,,,,3,9,39,1,,,,,,,,,,,AFNE19.jpg,AFSA10.jpg,AFNE07.jpg,AFSA02.jpg,AFSA10.jpg,FS,4,num_6,32,num_4,0.850125810073,,,2017_Aug_30_1208,60.0029445325,MAFE4ImagesEEG,001,101459,
AFNE01.JPG,AFNE01.JPG,AFNE01.JPG,AFNE01.JPG,AFNE01.JPG,AFNE01.JPG,,,,,,,,,,,,,4,0,40,7,,,,,,,,,,,AFSA16.jpg,AFNE06.jpg,AFNE05.jpg,AFSA20.jpg,AFSA20.jpg,FS,4,num_4,16,num_4,0.966809556121,,,2017_Aug_30_1208,60.0029445325,MAFE4ImagesEEG,001,101459,
AFNE01.JPG,AFNE01.JPG,AFNE01.JPG,AFNE01.JPG,AFNE01.JPG,AFNE01.JPG,,,,,,,,,,,,,4,1,41,0,,,,,,,,,,,AFSA17.jpg,AFNE03.jpg,AFSA11.jpg,AFNE04.jpg,AFSA11.jpg,FS,4,num_2,16,num_2,0.683475019992,,,2017_Aug_30_1208,60.0029445325,MAFE4ImagesEEG,001,101459,
AFNE01.JPG,AFNE01.JPG,AFNE01.JPG,AFNE01.JPG,AFNE01.JPG,AFNE01.JPG,,,,,,,,,,,,,4,2,42,2,,,,,,,,,,,AFSA19.jpg,AFSA08.jpg,AFNE12.jpg,AFNE16.jpg,AFSA19.jpg,FS,4,num_8,32,num_6,0.833458582114,,,2017_Aug_30_1208,60.0029445325,MAFE4ImagesEEG,001,101459,
AFNE01.JPG,AFNE01.JPG,AFNE01.JPG,AFNE01.JPG,AFNE01.JPG,AFNE01.JPG,,,,,,,,,,,,,4,3,43,9,,,,,,,,,,,AFNE11.jpg,AFNE08.jpg,AFSA11.jpg,AFSA16.jpg,AFNE08.jpg,FN,3,num_6,16,num_6,0.700165982707,,,2017_Aug_30_1208,60.0029445325,MAFE4ImagesEEG,001,101459,
AFNE01.JPG,AFNE01.JPG,AFNE01.JPG,AFNE01.JPG,AFNE01.JPG,AFNE01.JPG,,,,,,,,,,,,,4,4,44,4,,,,,,,,,,,AFSA09.jpg,AFSA08.jpg,AFNE15.jpg,AFNE14.jpg,AFNE14.jpg,FN,3,num_4,32,num_2,1.38337863778,,,2017_Aug_30_1208,60.0029445325,MAFE4ImagesEEG,001,101459,
AFNE01.JPG,AFNE01.JPG,AFNE01.JPG,AFNE01.JPG,AFNE01.JPG,AFNE01.JPG,,,,,,,,,,,,,4,5,45,1,,,,,,,,,,,AFSA19.jpg,AFNE18.jpg,AFNE09.jpg,AFSA20.jpg,AFNE18.jpg,FN,3,num_6,16,num_6,0.983394995506,,,2017_Aug_30_1208,60.0029445325,MAFE4ImagesEEG,001,101459,
AFNE01.JPG,AFNE01.JPG,AFNE01.JPG,AFNE01.JPG,AFNE01.JPG,AFNE01.JPG,,,,,,,,,,,,,4,6,46,3,,,,,,,,,,,AFSA03.jpg,AFSA16.jpg,AFNE04.jpg,AFNE18.jpg,AFNE18.jpg,FN,3,num_4,16,num_4,0.500168227882,,,2017_Aug_30_1208,60.0029445325,MAFE4ImagesEEG,001,101459,
AFNE01.JPG,AFNE01.JPG,AFNE01.JPG,AFNE01.JPG,AFNE01.JPG,AFNE01.JPG,,,,,,,,,,,,,4,7,47,5,,,,,,,,,,,AFNE01.jpg,AFNE15.jpg,AFSA13.jpg,AFSA08.jpg,AFSA13.jpg,FS,4,num_2,16,num_2,1.15009036835,,,2017_Aug_30_1208,60.0029445325,MAFE4ImagesEEG,001,101459,
AFNE01.JPG,AFNE01.JPG,AFNE01.JPG,AFNE01.JPG,AFNE01.JPG,AFNE01.JPG,,,,,,,,,,,,,4,8,48,8,,,,,,,,,,,AFSA01.jpg,AFSA11.jpg,AFNE13.jpg,AFNE03.jpg,AFSA01.jpg,FS,4,num_8,16,num_8,0.683478868857,,,2017_Aug_30_1208,60.0029445325,MAFE4ImagesEEG,001,101459,
AFNE01.JPG,AFNE01.JPG,AFNE01.JPG,AFNE01.JPG,AFNE01.JPG,AFNE01.JPG,,,,,,,,,,,,,4,9,49,6,,,,,,,,,,,AFSA07.jpg,AFNE05.jpg,AFSA17.jpg,AFNE13.jpg,AFSA17.jpg,FS,4,num_2,16,num_2,0.883782288467,,,2017_Aug_30_1208,60.0029445325,MAFE4ImagesEEG,001,101459,
AFNE01.JPG,AFNE01.JPG,AFNE01.JPG,AFNE01.JPG,AFNE01.JPG,AFNE01.JPG,,,,,,,,,,,,,5,0,50,3,,,,,,,,,,,AFSA18.jpg,AFNE10.jpg,AFNE15.jpg,AFSA01.jpg,AFSA01.jpg,FS,4,num_4,32,num_2,0.916748214688,,,2017_Aug_30_1208,60.0029445325,MAFE4ImagesEEG,001,101459,
AFNE01.JPG,AFNE01.JPG,AFNE01.JPG,AFNE01.JPG,AFNE01.JPG,AFNE01.JPG,,,,,,,,,,,,,5,1,51,5,,,,,,,,,,,AFNE17.jpg,AFNE06.jpg,AFSA15.jpg,AFSA07.jpg,AFNE06.jpg,FN,3,num_6,32,num_4,0.616743243241,,,2017_Aug_30_1208,60.0029445325,MAFE4ImagesEEG,001,101459,
AFNE01.JPG,AFNE01.JPG,AFNE01.JPG,AFNE01.JPG,AFNE01.JPG,AFNE01.JPG,,,,,,,,,,,,,5,2,52,0,,,,,,,,,,,AFSA11.jpg,AFNE12.jpg,AFNE08.jpg,AFSA05.jpg,AFSA05.jpg,FS,4,num_4,32,num_6,1.11684507801,,,2017_Aug_30_1208,60.0029445325,MAFE4ImagesEEG,001,101459,
AFNE01.JPG,AFNE01.JPG,AFNE01.JPG,AFNE01.JPG,AFNE01.JPG,AFNE01.JPG,,,,,,,,,,,,,5,3,53,4,,,,,,,,,,,AFSA05.jpg,AFSA03.jpg,AFNE02.jpg,AFNE18.jpg,AFSA05.jpg,FS,4,num_8,32,num_4,1.36674540822,,,2017_Aug_30_1208,60.0029445325,MAFE4ImagesEEG,001,101459,
AFNE01.JPG,AFNE01.JPG,AFNE01.JPG,AFNE01.JPG,AFNE01.JPG,AFNE01.JPG,,,,,,,,,,,,,5,4,54,1,,,,,,,,,,,AFNE04.jpg,AFNE01.jpg,AFSA20.jpg,AFSA15.jpg,AFNE01.jpg,FN,3,num_6,16,num_6,0.766762086656,,,2017_Aug_30_1208,60.0029445325,MAFE4ImagesEEG,001,101459,
AFNE01.JPG,AFNE01.JPG,AFNE01.JPG,AFNE01.JPG,AFNE01.JPG,AFNE01.JPG,,,,,,,,,,,,,5,5,55,9,,,,,,,,,,,AFSA06.jpg,AFNE20.jpg,AFSA18.jpg,AFNE16.jpg,AFSA18.jpg,FS,4,num_2,32,num_8,1.25007769914,,,2017_Aug_30_1208,60.0029445325,MAFE4ImagesEEG,001,101459,
AFNE01.JPG,AFNE01.JPG,AFNE01.JPG,AFNE01.JPG,AFNE01.JPG,AFNE01.JPG,,,,,,,,,,,,,5,6,56,8,,,,,,,,,,,AFSA20.jpg,AFNE09.jpg,AFNE12.jpg,AFSA01.jpg,AFNE12.jpg,FN,3,num_2,16,num_2,0.900114343618,,,2017_Aug_30_1208,60.0029445325,MAFE4ImagesEEG,001,101459,
AFNE01.JPG,AFNE01.JPG,AFNE01.JPG,AFNE01.JPG,AFNE01.JPG,AFNE01.JPG,,,,,,,,,,,,,5,7,57,6,,,,,,,,,,,AFSA17.jpg,AFNE12.jpg,AFSA19.jpg,AFNE18.jpg,AFSA17.jpg,FS,4,num_8,32,num_2,1.00009782554,,,2017_Aug_30_1208,60.0029445325,MAFE4ImagesEEG,001,101459,
AFNE01.JPG,AFNE01.JPG,AFNE01.JPG,AFNE01.JPG,AFNE01.JPG,AFNE01.JPG,,,,,,,,,,,,,5,8,58,7,,,,,,,,,,,AFSA03.jpg,AFNE10.jpg,AFSA17.jpg,AFNE07.jpg,AFSA17.jpg,FS,4,num_2,16,num_2,0.666893750255,,,2017_Aug_30_1208,60.0029445325,MAFE4ImagesEEG,001,101459,
AFNE01.JPG,AFNE01.JPG,AFNE01.JPG,AFNE01.JPG,AFNE01.JPG,AFNE01.JPG,,,,,,,,,,,,,5,9,59,2,,,,,,,,,,,AFNE10.jpg,AFSA12.jpg,AFSA11.jpg,AFNE04.jpg,AFSA11.jpg,FS,4,num_2,16,num_2,0.766824310122,,,2017_Aug_30_1208,60.0029445325,MAFE4ImagesEEG,001,101459,
,,,,,,,,,,,,,,,,,,,,,,,,,,,,,,,,,,,,,,,,,,,space,53.0960316506,2017_Aug_30_1208,60.0029445325,MAFE4ImagesEEG,001,101459,
AFNE01.JPG,AFNE01.JPG,AFNE01.JPG,AFNE01.JPG,AFNE01.JPG,AFNE01.JPG,,,,,,,,,,,,,,,,,0,0,0,1,,,,,,,AMNE11.jpg,AMSA16.jpg,AMSA01.jpg,AMNE10.jpg,AMSA16.jpg,MS,2,num_6,16,num_6,0.883714612399,,,2017_Aug_30_1208,60.0029445325,MAFE4ImagesEEG,001,101459,
AFNE01.JPG,AFNE01.JPG,AFNE01.JPG,AFNE01.JPG,AFNE01.JPG,AFNE01.JPG,,,,,,,,,,,,,,,,,0,1,1,4,,,,,,,AMSA17.jpg,AMSA12.jpg,AMNE15.jpg,AMNE13.jpg,AMSA12.jpg,MS,2,num_6,32,num_8,0.766769142938,,,2017_Aug_30_1208,60.0029445325,MAFE4ImagesEEG,001,101459,
AFNE01.JPG,AFNE01.JPG,AFNE01.JPG,AFNE01.JPG,AFNE01.JPG,AFNE01.JPG,,,,,,,,,,,,,,,,,0,2,2,0,,,,,,,AMSA18.jpg,AMNE20.jpg,AMNE08.jpg,AMSA13.jpg,AMNE20.jpg,MN,1,num_6,16,num_6,0.61680739111,,,2017_Aug_30_1208,60.0029445325,MAFE4ImagesEEG,001,101459,
AFNE01.JPG,AFNE01.JPG,AFNE01.JPG,AFNE01.JPG,AFNE01.JPG,AFNE01.JPG,,,,,,,,,,,,,,,,,0,3,3,9,,,,,,,AMNE16.jpg,AMSA11.jpg,AMNE14.jpg,AMSA02.jpg,AMSA11.jpg,MS,2,num_6,32,num_2,0.850139601855,,,2017_Aug_30_1208,60.0029445325,MAFE4ImagesEEG,001,101459,
AFNE01.JPG,AFNE01.JPG,AFNE01.JPG,AFNE01.JPG,AFNE01.JPG,AFNE01.JPG,,,,,,,,,,,,,,,,,0,4,4,5,,,,,,,AMNE10.jpg,AMNE02.jpg,AMSA11.jpg,AMSA02.jpg,AMNE02.jpg,MN,1,num_6,32,num_2,1.03347012872,,,2017_Aug_30_1208,60.0029445325,MAFE4ImagesEEG,001,101459,
AFNE01.JPG,AFNE01.JPG,AFNE01.JPG,AFNE01.JPG,AFNE01.JPG,AFNE01.JPG,,,,,,,,,,,,,,,,,0,5,5,7,,,,,,,AMSA03.jpg,AMNE16.jpg,AMNE04.jpg,AMSA04.jpg,AMSA04.jpg,MS,2,num_4,32,num_2,1.23346275173,,,2017_Aug_30_1208,60.0029445325,MAFE4ImagesEEG,001,101459,
AFNE01.JPG,AFNE01.JPG,AFNE01.JPG,AFNE01.JPG,AFNE01.JPG,AFNE01.JPG,,,,,,,,,,,,,,,,,0,6,6,8,,,,,,,AMSA19.jpg,AMNE10.jpg,AMNE12.jpg,AMSA16.jpg,AMNE10.jpg,MN,1,num_6,16,num_6,0.916741799854,,,2017_Aug_30_1208,60.0029445325,MAFE4ImagesEEG,001,101459,
AFNE01.JPG,AFNE01.JPG,AFNE01.JPG,AFNE01.JPG,AFNE01.JPG,AFNE01.JPG,,,,,,,,,,,,,,,,,0,7,7,6,,,,,,,AMNE12.jpg,AMNE02.jpg,AMSA09.jpg,AMSA17.jpg,AMSA09.jpg,MS,2,num_2,16,num_2,0.900175925577,,,2017_Aug_30_1208,60.0029445325,MAFE4ImagesEEG,001,101459,
AFNE01.JPG,AFNE01.JPG,AFNE01.JPG,AFNE01.JPG,AFNE01.JPG,AFNE01.JPG,,,,,,,,,,,,,,,,,0,8,8,3,,,,,,,AMSA19.jpg,AMNE18.jpg,AMSA10.jpg,AMNE07.jpg,AMNE07.jpg,MN,1,num_4,32,num_6,1.18311851809,,,2017_Aug_30_1208,60.0029445325,MAFE4ImagesEEG,001,101459,
AFNE01.JPG,AFNE01.JPG,AFNE01.JPG,AFNE01.JPG,AFNE01.JPG,AFNE01.JPG,,,,,,,,,,,,,,,,,0,9,9,2,,,,,,,AMSA10.jpg,AMNE18.jpg,AMSA06.jpg,AMNE01.jpg,AMSA06.jpg,MS,2,num_2,16,num_2,0.783474538883,,,2017_Aug_30_1208,60.0029445325,MAFE4ImagesEEG,001,101459,
AFNE01.JPG,AFNE01.JPG,AFNE01.JPG,AFNE01.JPG,AFNE01.JPG,AFNE01.JPG,,,,,,,,,,,,,,,,,1,0,10,6,,,,,,,AMSA14.jpg,AMNE13.jpg,AMSA05.jpg,AMNE17.jpg,AMSA14.jpg,MS,2,num_8,16,num_8,1.00023317756,,,2017_Aug_30_1208,60.0029445325,MAFE4ImagesEEG,001,101459,
AFNE01.JPG,AFNE01.JPG,AFNE01.JPG,AFNE01.JPG,AFNE01.JPG,AFNE01.JPG,,,,,,,,,,,,,,,,,1,1,11,8,,,,,,,AMNE10.jpg,AMSA05.jpg,AMNE20.jpg,AMSA02.jpg,AMSA05.jpg,MS,2,num_6,16,num_6,0.81695717643,,,2017_Aug_30_1208,60.0029445325,MAFE4ImagesEEG,001,101459,
AFNE01.JPG,AFNE01.JPG,AFNE01.JPG,AFNE01.JPG,AFNE01.JPG,AFNE01.JPG,,,,,,,,,,,,,,,,,1,2,12,4,,,,,,,AMNE01.jpg,AMSA09.jpg,AMSA05.jpg,AMNE08.jpg,AMSA05.jpg,MS,2,num_2,32,num_6,0.666747172247,,,2017_Aug_30_1208,60.0029445325,MAFE4ImagesEEG,001,101459,
AFNE01.JPG,AFNE01.JPG,AFNE01.JPG,AFNE01.JPG,AFNE01.JPG,AFNE01.JPG,,,,,,,,,,,,,,,,,1,3,13,1,,,,,,,AMSA12.jpg,AMNE19.jpg,AMSA17.jpg,AMNE16.jpg,AMNE16.jpg,MN,1,num_4,32,num_8,0.683462511166,,,2017_Aug_30_1208,60.0029445325,MAFE4ImagesEEG,001,101459,
AFNE01.JPG,AFNE01.JPG,AFNE01.JPG,AFNE01.JPG,AFNE01.JPG,AFNE01.JPG,,,,,,,,,,,,,,,,,1,4,14,2,,,,,,,AMNE14.jpg,AMNE18.jpg,AMSA08.jpg,AMSA09.jpg,AMNE18.jpg,MN,1,num_6,16,num_6,0.733449441032,,,2017_Aug_30_1208,60.0029445325,MAFE4ImagesEEG,001,101459,
AFNE01.JPG,AFNE01.JPG,AFNE01.JPG,AFNE01.JPG,AFNE01.JPG,AFNE01.JPG,,,,,,,,,,,,,,,,,1,5,15,7,,,,,,,AMNE03.jpg,AMSA11.jpg,AMNE14.jpg,AMSA01.jpg,AMNE14.jpg,MN,1,num_2,16,num_2,0.650141526305,,,2017_Aug_30_1208,60.0029445325,MAFE4ImagesEEG,001,101459,
AFNE01.JPG,AFNE01.JPG,AFNE01.JPG,AFNE01.JPG,AFNE01.JPG,AFNE01.JPG,,,,,,,,,,,,,,,,,1,6,16,3,,,,,,,AMSA11.jpg,AMNE13.jpg,AMNE01.jpg,AMSA01.jpg,AMNE01.jpg,MN,1,num_2,16,num_2,0.666770907003,,,2017_Aug_30_1208,60.0029445325,MAFE4ImagesEEG,001,101459,
AFNE01.JPG,AFNE01.JPG,AFNE01.JPG,AFNE01.JPG,AFNE01.JPG,AFNE01.JPG,,,,,,,,,,,,,,,,,1,7,17,9,,,,,,,AMNE16.jpg,AMSA02.jpg,AMSA12.jpg,AMNE03.jpg,AMNE16.jpg,MN,1,num_8,32,num_2,0.750153554021,,,2017_Aug_30_1208,60.0029445325,MAFE4ImagesEEG,001,101459,
AFNE01.JPG,AFNE01.JPG,AFNE01.JPG,AFNE01.JPG,AFNE01.JPG,AFNE01.JPG,,,,,,,,,,,,,,,,,1,8,18,5,,,,,,,AMNE07.jpg,AMNE05.jpg,AMSA01.jpg,AMSA06.jpg,AMSA06.jpg,MS,2,num_4,16,num_4,0.633520484844,,,2017_Aug_30_1208,60.0029445325,MAFE4ImagesEEG,001,101459,
AFNE01.JPG,AFNE01.JPG,AFNE01.JPG,AFNE01.JPG,AFNE01.JPG,AFNE01.JPG,,,,,,,,,,,,,,,,,1,9,19,0,,,,,,,AMSA11.jpg,AMNE03.jpg,AMSA15.jpg,AMNE05.jpg,AMSA15.jpg,MS,2,num_2,32,num_6,0.816760883899,,,2017_Aug_30_1208,60.0029445325,MAFE4ImagesEEG,001,101459,
AFNE01.JPG,AFNE01.JPG,AFNE01.JPG,AFNE01.JPG,AFNE01.JPG,AFNE01.JPG,,,,,,,,,,,,,,,,,2,0,20,7,,,,,,,AMNE16.jpg,AMSA01.jpg,AMNE01.jpg,AMSA11.jpg,AMSA11.jpg,MS,2,num_4,32,num_6,1.21671886707,,,2017_Aug_30_1208,60.0029445325,MAFE4ImagesEEG,001,101459,
AFNE01.JPG,AFNE01.JPG,AFNE01.JPG,AFNE01.JPG,AFNE01.JPG,AFNE01.JPG,,,,,,,,,,,,,,,,,2,1,21,1,,,,,,,AMNE13.jpg,AMNE17.jpg,AMSA11.jpg,AMSA17.jpg,AMNE13.jpg,MN,1,num_8,16,num_8,0.600157483073,,,2017_Aug_30_1208,60.0029445325,MAFE4ImagesEEG,001,101459,
AFNE01.JPG,AFNE01.JPG,AFNE01.JPG,AFNE01.JPG,AFNE01.JPG,AFNE01.JPG,,,,,,,,,,,,,,,,,2,2,22,0,,,,,,,AMSA16.jpg,AMNE04.jpg,AMSA02.jpg,AMNE06.jpg,AMSA16.jpg,MS,2,num_8,32,num_6,0.983516876528,,,2017_Aug_30_1208,60.0029445325,MAFE4ImagesEEG,001,101459,
AFNE01.JPG,AFNE01.JPG,AFNE01.JPG,AFNE01.JPG,AFNE01.JPG,AFNE01.JPG,,,,,,,,,,,,,,,,,2,3,23,2,,,,,,,AMSA17.jpg,AMNE01.jpg,AMNE19.jpg,AMSA08.jpg,AMNE01.jpg,MN,1,num_6,16,num_6,0.550142007414,,,2017_Aug_30_1208,60.0029445325,MAFE4ImagesEEG,001,101459,
AFNE01.JPG,AFNE01.JPG,AFNE01.JPG,AFNE01.JPG,AFNE01.JPG,AFNE01.JPG,,,,,,,,,,,,,,,,,2,4,24,6,,,,,,,AMNE06.jpg,AMNE04.jpg,AMSA04.jpg,AMSA06.jpg,AMNE04.jpg,MN,1,num_6,16,num_6,1.36667292105,,,2017_Aug_30_1208,60.0029445325,MAFE4ImagesEEG,001,101459,
AFNE01.JPG,AFNE01.JPG,AFNE01.JPG,AFNE01.JPG,AFNE01.JPG,AFNE01.JPG,,,,,,,,,,,,,,,,,2,5,25,9,,,,,,,AMNE01.jpg,AMSA20.jpg,AMSA19.jpg,AMNE06.jpg,AMNE06.jpg,MN,1,num_4,16,num_4,0.716856303916,,,2017_Aug_30_1208,60.0029445325,MAFE4ImagesEEG,001,101459,
AFNE01.JPG,AFNE01.JPG,AFNE01.JPG,AFNE01.JPG,AFNE01.JPG,AFNE01.JPG,,,,,,,,,,,,,,,,,2,6,26,4,,,,,,,AMNE13.jpg,AMSA10.jpg,AMNE08.jpg,AMSA08.jpg,AMNE08.jpg,MN,1,num_2,32,num_4,0.966423385777,,,2017_Aug_30_1208,60.0029445325,MAFE4ImagesEEG,001,101459,
AFNE01.JPG,AFNE01.JPG,AFNE01.JPG,AFNE01.JPG,AFNE01.JPG,AFNE01.JPG,,,,,,,,,,,,,,,,,2,7,27,8,,,,,,,AMSA17.jpg,AMNE13.jpg,AMNE05.jpg,AMSA15.jpg,AMSA17.jpg,MS,2,num_8,16,num_8,1.16670980613,,,2017_Aug_30_1208,60.0029445325,MAFE4ImagesEEG,001,101459,
AFNE01.JPG,AFNE01.JPG,AFNE01.JPG,AFNE01.JPG,AFNE01.JPG,AFNE01.JPG,,,,,,,,,,,,,,,,,2,8,28,5,,,,,,,AMNE13.jpg,AMSA09.jpg,AMSA04.jpg,AMNE19.jpg,AMNE19.jpg,MN,1,num_4,32,num_6,1.06661951798,,,2017_Aug_30_1208,60.0029445325,MAFE4ImagesEEG,001,101459,
AFNE01.JPG,AFNE01.JPG,AFNE01.JPG,AFNE01.JPG,AFNE01.JPG,AFNE01.JPG,,,,,,,,,,,,,,,,,2,9,29,3,,,,,,,AMNE04.jpg,AMSA13.jpg,AMNE17.jpg,AMSA06.jpg,AMSA06.jpg,MS,2,num_4,16,num_4,1.63338449132,,,2017_Aug_30_1208,60.0029445325,MAFE4ImagesEEG,001,101459,
AFNE01.JPG,AFNE01.JPG,AFNE01.JPG,AFNE01.JPG,AFNE01.JPG,AFNE01.JPG,,,,,,,,,,,,,,,,,3,0,30,1,,,,,,,AMNE02.jpg,AMSA09.jpg,AMNE08.jpg,AMSA13.jpg,AMNE02.jpg,MN,1,num_8,32,num_2,1.13376248273,,,2017_Aug_30_1208,60.0029445325,MAFE4ImagesEEG,001,101459,
AFNE01.JPG,AFNE01.JPG,AFNE01.JPG,AFNE01.JPG,AFNE01.JPG,AFNE01.JPG,,,,,,,,,,,,,,,,,3,1,31,6,,,,,,,AMSA11.jpg,AMNE20.jpg,AMSA16.jpg,AMNE02.jpg,AMSA11.jpg,MS,2,num_8,16,num_8,1.3500890854,,,2017_Aug_30_1208,60.0029445325,MAFE4ImagesEEG,001,101459,
AFNE01.JPG,AFNE01.JPG,AFNE01.JPG,AFNE01.JPG,AFNE01.JPG,AFNE01.JPG,,,,,,,,,,,,,,,,,3,2,32,9,,,,,,,AMSA07.jpg,AMNE11.jpg,AMSA02.jpg,AMNE04.jpg,AMSA02.jpg,MS,2,num_2,32,num_4,1.44996800623,,,2017_Aug_30_1208,60.0029445325,MAFE4ImagesEEG,001,101459,
AFNE01.JPG,AFNE01.JPG,AFNE01.JPG,AFNE01.JPG,AFNE01.JPG,AFNE01.JPG,,,,,,,,,,,,,,,,,3,3,33,5,,,,,,,AMSA05.jpg,AMNE04.jpg,AMNE18.jpg,AMSA13.jpg,AMNE18.jpg,MN,1,num_2,16,num_2,1.45014601666,,,2017_Aug_30_1208,60.0029445325,MAFE4ImagesEEG,001,101459,
AFNE01.JPG,AFNE01.JPG,AFNE01.JPG,AFNE01.JPG,AFNE01.JPG,AFNE01.JPG,,,,,,,,,,,,,,,,,3,4,34,7,,,,,,,AMSA04.jpg,AMNE11.jpg,AMSA12.jpg,AMNE10.jpg,AMSA12.jpg,MS,2,num_2,32,num_8,0.950181779102,,,2017_Aug_30_1208,60.0029445325,MAFE4ImagesEEG,001,101459,
AFNE01.JPG,AFNE01.JPG,AFNE01.JPG,AFNE01.JPG,AFNE01.JPG,AFNE01.JPG,,,,,,,,,,,,,,,,,3,5,35,8,,,,,,,AMNE05.jpg,AMSA14.jpg,AMNE09.jpg,AMSA07.jpg,AMNE05.jpg,MN,1,num_8,16,num_8,0.567105919414,,,2017_Aug_30_1208,60.0029445325,MAFE4ImagesEEG,001,101459,
AFNE01.JPG,AFNE01.JPG,AFNE01.JPG,AFNE01.JPG,AFNE01.JPG,AFNE01.JPG,,,,,,,,,,,,,,,,,3,6,36,4,,,,,,,AMNE12.jpg,AMNE17.jpg,AMSA13.jpg,AMSA02.jpg,AMSA13.jpg,MS,2,num_2,16,num_2,0.966779727314,,,2017_Aug_30_1208,60.0029445325,MAFE4ImagesEEG,001,101459,
AFNE01.JPG,AFNE01.JPG,AFNE01.JPG,AFNE01.JPG,AFNE01.JPG,AFNE01.JPG,,,,,,,,,,,,,,,,,3,7,37,2,,,,,,,AMNE04.jpg,AMNE01.jpg,AMSA07.jpg,AMSA02.jpg,AMSA02.jpg,MS,2,num_4,32,num_8,1.16662256501,,,2017_Aug_30_1208,60.0029445325,MAFE4ImagesEEG,001,101459,
AFNE01.JPG,AFNE01.JPG,AFNE01.JPG,AFNE01.JPG,AFNE01.JPG,AFNE01.JPG,,,,,,,,,,,,,,,,,3,8,38,0,,,,,,,AMNE07.jpg,AMNE02.jpg,AMSA13.jpg,AMSA03.jpg,AMNE02.jpg,MN,1,num_6,32,num_2,0.900168869353,,,2017_Aug_30_1208,60.0029445325,MAFE4ImagesEEG,001,101459,
AFNE01.JPG,AFNE01.JPG,AFNE01.JPG,AFNE01.JPG,AFNE01.JPG,AFNE01.JPG,,,,,,,,,,,,,,,,,3,9,39,3,,,,,,,AMSA12.jpg,AMNE02.jpg,AMNE07.jpg,AMSA07.jpg,AMNE02.jpg,MN,1,num_6,32,num_8,1.00012797501,,,2017_Aug_30_1208,60.0029445325,MAFE4ImagesEEG,001,101459,
AFNE01.JPG,AFNE01.JPG,AFNE01.JPG,AFNE01.JPG,AFNE01.JPG,AFNE01.JPG,,,,,,,,,,,,,,,,,4,0,40,8,,,,,,,AMNE20.jpg,AMSA19.jpg,AMNE06.jpg,AMSA13.jpg,AMNE20.jpg,MN,1,num_8,16,num_8,0.966728729778,,,2017_Aug_30_1208,60.0029445325,MAFE4ImagesEEG,001,101459,
AFNE01.JPG,AFNE01.JPG,AFNE01.JPG,AFNE01.JPG,AFNE01.JPG,AFNE01.JPG,,,,,,,,,,,,,,,,,4,1,41,1,,,,,,,AMSA18.jpg,AMNE01.jpg,AMNE04.jpg,AMSA12.jpg,AMNE01.jpg,MN,1,num_6,32,num_2,1.0501168294,,,2017_Aug_30_1208,60.0029445325,MAFE4ImagesEEG,001,101459,
AFNE01.JPG,AFNE01.JPG,AFNE01.JPG,AFNE01.JPG,AFNE01.JPG,AFNE01.JPG,,,,,,,,,,,,,,,,,4,2,42,3,,,,,,,AMSA17.jpg,AMNE19.jpg,AMSA13.jpg,AMNE13.jpg,AMSA17.jpg,MS,2,num_8,16,num_8,0.633500919736,,,2017_Aug_30_1208,60.0029445325,MAFE4ImagesEEG,001,101459,
AFNE01.JPG,AFNE01.JPG,AFNE01.JPG,AFNE01.JPG,AFNE01.JPG,AFNE01.JPG,,,,,,,,,,,,,,,,,4,3,43,2,,,,,,,AMNE11.jpg,AMSA18.jpg,AMNE17.jpg,AMSA20.jpg,AMNE11.jpg,MN,1,num_8,16,num_8,0.966763048898,,,2017_Aug_30_1208,60.0029445325,MAFE4ImagesEEG,001,101459,
AFNE01.JPG,AFNE01.JPG,AFNE01.JPG,AFNE01.JPG,AFNE01.JPG,AFNE01.JPG,,,,,,,,,,,,,,,,,4,4,44,6,,,,,,,AMNE04.jpg,AMNE20.jpg,AMSA12.jpg,AMSA08.jpg,AMSA08.jpg,MS,2,num_4,32,num_8,0.966730974964,,,2017_Aug_30_1208,60.0029445325,MAFE4ImagesEEG,001,101459,
AFNE01.JPG,AFNE01.JPG,AFNE01.JPG,AFNE01.JPG,AFNE01.JPG,AFNE01.JPG,,,,,,,,,,,,,,,,,4,5,45,7,,,,,,,AMNE14.jpg,AMNE12.jpg,AMSA04.jpg,AMSA10.jpg,AMNE12.jpg,MN,1,num_6,16,num_6,1.56668542989,,,2017_Aug_30_1208,60.0029445325,MAFE4ImagesEEG,001,101459,
AFNE01.JPG,AFNE01.JPG,AFNE01.JPG,AFNE01.JPG,AFNE01.JPG,AFNE01.JPG,,,,,,,,,,,,,,,,,4,6,46,0,,,,,,,AMSA17.jpg,AMSA04.jpg,AMNE03.jpg,AMNE20.jpg,AMNE20.jpg,MN,1,num_4,32,num_8,0.766795764328,,,2017_Aug_30_1208,60.0029445325,MAFE4ImagesEEG,001,101459,
AFNE01.JPG,AFNE01.JPG,AFNE01.JPG,AFNE01.JPG,AFNE01.JPG,AFNE01.JPG,,,,,,,,,,,,,,,,,4,7,47,9,,,,,,,AMNE03.jpg,AMSA20.jpg,AMSA13.jpg,AMNE01.jpg,AMSA13.jpg,MS,2,num_2,32,num_8,1.61672431958,,,2017_Aug_30_1208,60.0029445325,MAFE4ImagesEEG,001,101459,
AFNE01.JPG,AFNE01.JPG,AFNE01.JPG,AFNE01.JPG,AFNE01.JPG,AFNE01.JPG,,,,,,,,,,,,,,,,,4,8,48,5,,,,,,,AMNE01.jpg,AMSA18.jpg,AMNE02.jpg,AMSA10.jpg,AMNE01.jpg,MN,1,num_8,32,num_2,1.88345641713,,,2017_Aug_30_1208,60.0029445325,MAFE4ImagesEEG,001,101459,
AFNE01.JPG,AFNE01.JPG,AFNE01.JPG,AFNE01.JPG,AFNE01.JPG,AFNE01.JPG,,,,,,,,,,,,,,,,,4,9,49,4,,,,,,,AMSA14.jpg,AMNE01.jpg,AMNE03.jpg,AMSA17.jpg,AMNE01.jpg,MN,1,num_6,16,num_6,0.633425225213,,,2017_Aug_30_1208,60.0029445325,MAFE4ImagesEEG,001,101459,
AFNE01.JPG,AFNE01.JPG,AFNE01.JPG,AFNE01.JPG,AFNE01.JPG,AFNE01.JPG,,,,,,,,,,,,,,,,,5,0,50,7,,,,,,,AMSA19.jpg,AMNE02.jpg,AMSA17.jpg,AMNE18.jpg,AMNE02.jpg,MN,1,num_6,32,num_8,1.03345312958,,,2017_Aug_30_1208,60.0029445325,MAFE4ImagesEEG,001,101459,
AFNE01.JPG,AFNE01.JPG,AFNE01.JPG,AFNE01.JPG,AFNE01.JPG,AFNE01.JPG,,,,,,,,,,,,,,,,,5,1,51,3,,,,,,,AMSA09.jpg,AMSA20.jpg,AMNE09.jpg,AMNE13.jpg,AMNE13.jpg,MN,1,num_4,16,num_4,0.666861997044,,,2017_Aug_30_1208,60.0029445325,MAFE4ImagesEEG,001,101459,
AFNE01.JPG,AFNE01.JPG,AFNE01.JPG,AFNE01.JPG,AFNE01.JPG,AFNE01.JPG,,,,,,,,,,,,,,,,,5,2,52,5,,,,,,,AMNE11.jpg,AMSA13.jpg,AMNE13.jpg,AMSA05.jpg,AMSA13.jpg,MS,2,num_6,32,num_2,1.28353403608,,,2017_Aug_30_1208,60.0029445325,MAFE4ImagesEEG,001,101459,
AFNE01.JPG,AFNE01.JPG,AFNE01.JPG,AFNE01.JPG,AFNE01.JPG,AFNE01.JPG,,,,,,,,,,,,,,,,,5,3,53,6,,,,,,,AMSA04.jpg,AMNE02.jpg,AMSA09.jpg,AMNE17.jpg,AMSA09.jpg,MS,2,num_2,32,num_8,0.883454492665,,,2017_Aug_30_1208,60.0029445325,MAFE4ImagesEEG,001,101459,
AFNE01.JPG,AFNE01.JPG,AFNE01.JPG,AFNE01.JPG,AFNE01.JPG,AFNE01.JPG,,,,,,,,,,,,,,,,,5,4,54,0,,,,,,,AMNE15.jpg,AMSA04.jpg,AMSA02.jpg,AMNE13.jpg,AMNE13.jpg,MN,1,num_4,16,num_4,0.583454973821,,,2017_Aug_30_1208,60.0029445325,MAFE4ImagesEEG,001,101459,
AFNE01.JPG,AFNE01.JPG,AFNE01.JPG,AFNE01.JPG,AFNE01.JPG,AFNE01.JPG,,,,,,,,,,,,,,,,,5,5,55,1,,,,,,,AMNE03.jpg,AMNE18.jpg,AMSA07.jpg,AMSA13.jpg,AMSA07.jpg,MS,2,num_2,32,num_8,0.783472935203,,,2017_Aug_30_1208,60.0029445325,MAFE4ImagesEEG,001,101459,
AFNE01.JPG,AFNE01.JPG,AFNE01.JPG,AFNE01.JPG,AFNE01.JPG,AFNE01.JPG,,,,,,,,,,,,,,,,,5,6,56,8,,,,,,,AMSA14.jpg,AMSA10.jpg,AMNE13.jpg,AMNE07.jpg,AMSA10.jpg,MS,2,num_6,16,num_6,0.650010343874,,,2017_Aug_30_1208,60.0029445325,MAFE4ImagesEEG,001,101459,
AFNE01.JPG,AFNE01.JPG,AFNE01.JPG,AFNE01.JPG,AFNE01.JPG,AFNE01.JPG,,,,,,,,,,,,,,,,,5,7,57,9,,,,,,,AMNE06.jpg,AMSA09.jpg,AMSA01.jpg,AMNE08.jpg,AMNE06.jpg,MN,1,num_8,16,num_8,0.800095901126,,,2017_Aug_30_1208,60.0029445325,MAFE4ImagesEEG,001,101459,
AFNE01.JPG,AFNE01.JPG,AFNE01.JPG,AFNE01.JPG,AFNE01.JPG,AFNE01.JPG,,,,,,,,,,,,,,,,,5,8,58,4,,,,,,,AMNE03.jpg,AMNE17.jpg,AMSA17.jpg,AMSA04.jpg,AMNE17.jpg,MN,1,num_6,16,num_6,0.700160209381,,,2017_Aug_30_1208,60.0029445325,MAFE4ImagesEEG,001,101459,
AFNE01.JPG,AFNE01.JPG,AFNE01.JPG,AFNE01.JPG,AFNE01.JPG,AFNE01.JPG,,,,,,,,,,,,,,,,,5,9,59,2,,,,,,,AMSA10.jpg,AMSA03.jpg,AMNE10.jpg,AMNE11.jpg,AMSA03.jpg,MS,2,num_6,32,num_8,0.716732819215,,,2017_Aug_30_1208,60.0029445325,MAFE4ImagesEEG,001,101459,
,,,,,,,,,,,,,,,,,,,,,,,,,,,,,,,,,,,,,,,,,,,space,99.5423573391,2017_Aug_30_1208,60.0029445325,MAFE4ImagesEEG,001,101459,
AFNE01.JPG,AFNE01.JPG,AFNE01.JPG,AFNE01.JPG,AFNE01.JPG,AFNE01.JPG,,,,,,,,,,,,,,,,,,,,,0,0,0,1,,,AFSA01.jpg,AFNE16.jpg,AFSA12.jpg,AFNE07.jpg,AFNE07.jpg,FN,3,num_4,32,num_6,1.00015716231,,,2017_Aug_30_1208,60.0029445325,MAFE4ImagesEEG,001,101459,
AFNE01.JPG,AFNE01.JPG,AFNE01.JPG,AFNE01.JPG,AFNE01.JPG,AFNE01.JPG,,,,,,,,,,,,,,,,,,,,,0,1,1,2,,,AFNE12.jpg,AFSA19.jpg,AFSA13.jpg,AFNE10.jpg,AFNE12.jpg,FN,3,num_8,32,num_2,1.28345481341,,,2017_Aug_30_1208,60.0029445325,MAFE4ImagesEEG,001,101459,
AFNE01.JPG,AFNE01.JPG,AFNE01.JPG,AFNE01.JPG,AFNE01.JPG,AFNE01.JPG,,,,,,,,,,,,,,,,,,,,,0,2,2,8,,,AFSA14.jpg,AFNE04.jpg,AFNE15.jpg,AFSA19.jpg,AFNE04.jpg,FN,3,num_6,16,num_6,1.15006984101,,,2017_Aug_30_1208,60.0029445325,MAFE4ImagesEEG,001,101459,
AFNE01.JPG,AFNE01.JPG,AFNE01.JPG,AFNE01.JPG,AFNE01.JPG,AFNE01.JPG,,,,,,,,,,,,,,,,,,,,,0,3,3,4,,,AFNE12.jpg,AFSA01.jpg,AFNE10.jpg,AFSA14.jpg,AFSA14.jpg,FS,4,num_4,16,num_4,0.766713334247,,,2017_Aug_30_1208,60.0029445325,MAFE4ImagesEEG,001,101459,
AFNE01.JPG,AFNE01.JPG,AFNE01.JPG,AFNE01.JPG,AFNE01.JPG,AFNE01.JPG,,,,,,,,,,,,,,,,,,,,,0,4,4,0,,,AFSA12.jpg,AFSA10.jpg,AFNE20.jpg,AFNE11.jpg,AFSA10.jpg,FS,4,num_6,32,num_2,1.13342410262,,,2017_Aug_30_1208,60.0029445325,MAFE4ImagesEEG,001,101459,
AFNE01.JPG,AFNE01.JPG,AFNE01.JPG,AFNE01.JPG,AFNE01.JPG,AFNE01.JPG,,,,,,,,,,,,,,,,,,,,,0,5,5,5,,,AFNE20.jpg,AFNE15.jpg,AFSA12.jpg,AFSA20.jpg,AFNE20.jpg,FN,3,num_8,16,num_8,0.80010808917,,,2017_Aug_30_1208,60.0029445325,MAFE4ImagesEEG,001,101459,
AFNE01.JPG,AFNE01.JPG,AFNE01.JPG,AFNE01.JPG,AFNE01.JPG,AFNE01.JPG,,,,,,,,,,,,,,,,,,,,,0,6,6,9,,,AFNE07.jpg,AFSA01.jpg,AFNE05.jpg,AFSA04.jpg,AFNE07.jpg,FN,3,num_8,32,num_2,0.85013671522,,,2017_Aug_30_1208,60.0029445325,MAFE4ImagesEEG,001,101459,
AFNE01.JPG,AFNE01.JPG,AFNE01.JPG,AFNE01.JPG,AFNE01.JPG,AFNE01.JPG,,,,,,,,,,,,,,,,,,,,,0,7,7,6,,,AFNE02.jpg,AFSA07.jpg,AFNE20.jpg,AFSA09.jpg,AFNE02.jpg,FN,3,num_8,16,num_8,1.0667462101,,,2017_Aug_30_1208,60.0029445325,MAFE4ImagesEEG,001,101459,
AFNE01.JPG,AFNE01.JPG,AFNE01.JPG,AFNE01.JPG,AFNE01.JPG,AFNE01.JPG,,,,,,,,,,,,,,,,,,,,,0,8,8,7,,,AFSA12.jpg,AFNE17.jpg,AFNE06.jpg,AFSA19.jpg,AFSA19.jpg,FS,4,num_4,32,num_6,0.916827116569,,,2017_Aug_30_1208,60.0029445325,MAFE4ImagesEEG,001,101459,
AFNE01.JPG,AFNE01.JPG,AFNE01.JPG,AFNE01.JPG,AFNE01.JPG,AFNE01.JPG,,,,,,,,,,,,,,,,,,,,,0,9,9,3,,,AFSA03.jpg,AFNE01.jpg,AFNE14.jpg,AFSA12.jpg,AFSA03.jpg,FS,4,num_8,32,num_6,1.20009782555,,,2017_Aug_30_1208,60.0029445325,MAFE4ImagesEEG,001,101459,
AFNE01.JPG,AFNE01.JPG,AFNE01.JPG,AFNE01.JPG,AFNE01.JPG,AFNE01.JPG,,,,,,,,,,,,,,,,,,,,,1,0,10,7,,,AFNE13.jpg,AFSA08.jpg,AFSA17.jpg,AFNE05.jpg,AFNE13.jpg,FN,3,num_8,16,num_8,0.683470850403,,,2017_Aug_30_1208,60.0029445325,MAFE4ImagesEEG,001,101459,
AFNE01.JPG,AFNE01.JPG,AFNE01.JPG,AFNE01.JPG,AFNE01.JPG,AFNE01.JPG,,,,,,,,,,,,,,,,,,,,,1,1,11,3,,,AFSA12.jpg,AFNE06.jpg,AFSA15.jpg,AFNE19.jpg,AFNE19.jpg,FN,3,num_4,32,num_6,0.800135672849,,,2017_Aug_30_1208,60.0029445325,MAFE4ImagesEEG,001,101459,
AFNE01.JPG,AFNE01.JPG,AFNE01.JPG,AFNE01.JPG,AFNE01.JPG,AFNE01.JPG,,,,,,,,,,,,,,,,,,,,,1,2,12,0,,,AFSA13.jpg,AFNE19.jpg,AFSA11.jpg,AFNE09.jpg,AFSA13.jpg,FS,4,num_8,16,num_8,0.749991901335,,,2017_Aug_30_1208,60.0029445325,MAFE4ImagesEEG,001,101459,
AFNE01.JPG,AFNE01.JPG,AFNE01.JPG,AFNE01.JPG,AFNE01.JPG,AFNE01.JPG,,,,,,,,,,,,,,,,,,,,,1,3,13,2,,,AFNE20.jpg,AFNE07.jpg,AFSA09.jpg,AFSA07.jpg,AFSA09.jpg,FS,4,num_2,16,num_2,0.816774996463,,,2017_Aug_30_1208,60.0029445325,MAFE4ImagesEEG,001,101459,
AFNE01.JPG,AFNE01.JPG,AFNE01.JPG,AFNE01.JPG,AFNE01.JPG,AFNE01.JPG,,,,,,,,,,,,,,,,,,,,,1,4,14,4,,,AFNE06.jpg,AFNE14.jpg,AFSA14.jpg,AFSA07.jpg,AFSA07.jpg,FS,4,num_4,16,num_4,0.800182500796,,,2017_Aug_30_1208,60.0029445325,MAFE4ImagesEEG,001,101459,
AFNE01.JPG,AFNE01.JPG,AFNE01.JPG,AFNE01.JPG,AFNE01.JPG,AFNE01.JPG,,,,,,,,,,,,,,,,,,,,,1,5,15,1,,,AFSA18.jpg,AFNE12.jpg,AFNE05.jpg,AFSA13.jpg,AFNE05.jpg,FN,3,num_2,16,num_2,0.900145455322,,,2017_Aug_30_1208,60.0029445325,MAFE4ImagesEEG,001,101459,
AFNE01.JPG,AFNE01.JPG,AFNE01.JPG,AFNE01.JPG,AFNE01.JPG,AFNE01.JPG,,,,,,,,,,,,,,,,,,,,,1,6,16,5,,,AFNE06.jpg,AFSA15.jpg,AFSA03.jpg,AFNE03.jpg,AFSA15.jpg,FS,4,num_6,16,num_6,0.733450723987,,,2017_Aug_30_1208,60.0029445325,MAFE4ImagesEEG,001,101459,
AFNE01.JPG,AFNE01.JPG,AFNE01.JPG,AFNE01.JPG,AFNE01.JPG,AFNE01.JPG,,,,,,,,,,,,,,,,,,,,,1,7,17,9,,,AFNE13.jpg,AFSA07.jpg,AFNE17.jpg,AFSA11.jpg,AFSA07.jpg,FS,4,num_6,16,num_6,1.01685101172,,,2017_Aug_30_1208,60.0029445325,MAFE4ImagesEEG,001,101459,
AFNE01.JPG,AFNE01.JPG,AFNE01.JPG,AFNE01.JPG,AFNE01.JPG,AFNE01.JPG,,,,,,,,,,,,,,,,,,,,,1,8,18,6,,,AFSA14.jpg,AFNE02.jpg,AFSA20.jpg,AFNE20.jpg,AFNE20.jpg,FN,3,num_4,32,num_2,1.06682382902,,,2017_Aug_30_1208,60.0029445325,MAFE4ImagesEEG,001,101459,
AFNE01.JPG,AFNE01.JPG,AFNE01.JPG,AFNE01.JPG,AFNE01.JPG,AFNE01.JPG,,,,,,,,,,,,,,,,,,,,,1,9,19,8,,,AFNE12.jpg,AFSA01.jpg,AFNE18.jpg,AFSA06.jpg,AFSA01.jpg,FS,4,num_6,16,num_6,0.900097985927,,,2017_Aug_30_1208,60.0029445325,MAFE4ImagesEEG,001,101459,
AFNE01.JPG,AFNE01.JPG,AFNE01.JPG,AFNE01.JPG,AFNE01.JPG,AFNE01.JPG,,,,,,,,,,,,,,,,,,,,,2,0,20,6,,,AFSA04.jpg,AFNE08.jpg,AFSA03.jpg,AFNE18.jpg,AFNE08.jpg,FN,3,num_6,32,num_8,0.816729772137,,,2017_Aug_30_1208,60.0029445325,MAFE4ImagesEEG,001,101459,
AFNE01.JPG,AFNE01.JPG,AFNE01.JPG,AFNE01.JPG,AFNE01.JPG,AFNE01.JPG,,,,,,,,,,,,,,,,,,,,,2,1,21,1,,,AFSA18.jpg,AFNE04.jpg,AFSA01.jpg,AFNE16.jpg,AFNE16.jpg,FN,3,num_4,32,num_2,1.11677034572,,,2017_Aug_30_1208,60.0029445325,MAFE4ImagesEEG,001,101459,
AFNE01.JPG,AFNE01.JPG,AFNE01.JPG,AFNE01.JPG,AFNE01.JPG,AFNE01.JPG,,,,,,,,,,,,,,,,,,,,,2,2,22,3,,,AFNE20.jpg,AFNE19.jpg,AFSA11.jpg,AFSA19.jpg,AFSA19.jpg,FS,4,num_4,32,num_6,1.23352048488,,,2017_Aug_30_1208,60.0029445325,MAFE4ImagesEEG,001,101459,
AFNE01.JPG,AFNE01.JPG,AFNE01.JPG,AFNE01.JPG,AFNE01.JPG,AFNE01.JPG,,,,,,,,,,,,,,,,,,,,,2,3,23,2,,,AFNE18.jpg,AFNE04.jpg,AFSA01.jpg,AFSA05.jpg,AFNE04.jpg,FN,3,num_6,32,num_8,1.73339106649,,,2017_Aug_30_1208,60.0029445325,MAFE4ImagesEEG,001,101459,
AFNE01.JPG,AFNE01.JPG,AFNE01.JPG,AFNE01.JPG,AFNE01.JPG,AFNE01.JPG,,,,,,,,,,,,,,,,,,,,,2,4,24,7,,,AFSA11.jpg,AFNE16.jpg,AFSA06.jpg,AFNE07.jpg,AFSA06.jpg,FS,4,num_2,16,num_2,1.16659786802,,,2017_Aug_30_1208,60.0029445325,MAFE4ImagesEEG,001,101459,
AFNE01.JPG,AFNE01.JPG,AFNE01.JPG,AFNE01.JPG,AFNE01.JPG,AFNE01.JPG,,,,,,,,,,,,,,,,,,,,,2,5,25,0,,,AFSA05.jpg,AFSA15.jpg,AFNE10.jpg,AFNE19.jpg,AFSA15.jpg,FS,4,num_6,16,num_6,1.26675358706,,,2017_Aug_30_1208,60.0029445325,MAFE4ImagesEEG,001,101459,
AFNE01.JPG,AFNE01.JPG,AFNE01.JPG,AFNE01.JPG,AFNE01.JPG,AFNE01.JPG,,,,,,,,,,,,,,,,,,,,,2,6,26,9,,,AFNE13.jpg,AFNE18.jpg,AFSA10.jpg,AFSA13.jpg,AFSA13.jpg,FS,4,num_4,16,num_4,1.48308371782,,,2017_Aug_30_1208,60.0029445325,MAFE4ImagesEEG,001,101459,
AFNE01.JPG,AFNE01.JPG,AFNE01.JPG,AFNE01.JPG,AFNE01.JPG,AFNE01.JPG,,,,,,,,,,,,,,,,,,,,,2,7,27,8,,,AFNE14.jpg,AFSA14.jpg,AFSA20.jpg,AFNE16.jpg,AFNE16.jpg,FN,3,num_4,32,num_6,0.899998235924,,,2017_Aug_30_1208,60.0029445325,MAFE4ImagesEEG,001,101459,
AFNE01.JPG,AFNE01.JPG,AFNE01.JPG,AFNE01.JPG,AFNE01.JPG,AFNE01.JPG,,,,,,,,,,,,,,,,,,,,,2,8,28,5,,,AFSA06.jpg,AFNE19.jpg,AFNE17.jpg,AFSA20.jpg,AFSA06.jpg,FS,4,num_8,16,num_8,1.26684948819,,,2017_Aug_30_1208,60.0029445325,MAFE4ImagesEEG,001,101459,
AFNE01.JPG,AFNE01.JPG,AFNE01.JPG,AFNE01.JPG,AFNE01.JPG,AFNE01.JPG,,,,,,,,,,,,,,,,,,,,,2,9,29,4,,,AFSA18.jpg,AFSA16.jpg,AFNE18.jpg,AFNE10.jpg,AFSA16.jpg,FS,4,num_6,16,num_6,0.550394429418,,,2017_Aug_30_1208,60.0029445325,MAFE4ImagesEEG,001,101459,
AFNE01.JPG,AFNE01.JPG,AFNE01.JPG,AFNE01.JPG,AFNE01.JPG,AFNE01.JPG,,,,,,,,,,,,,,,,,,,,,3,0,30,6,,,AFNE01.jpg,AFSA10.jpg,AFSA20.jpg,AFNE05.jpg,AFSA10.jpg,FS,4,num_6,16,num_6,1.10005244089,,,2017_Aug_30_1208,60.0029445325,MAFE4ImagesEEG,001,101459,
AFNE01.JPG,AFNE01.JPG,AFNE01.JPG,AFNE01.JPG,AFNE01.JPG,AFNE01.JPG,,,,,,,,,,,,,,,,,,,,,3,1,31,2,,,AFNE17.jpg,AFSA16.jpg,AFSA02.jpg,AFNE14.jpg,AFSA16.jpg,FS,4,num_6,16,num_6,0.700167907111,,,2017_Aug_30_1208,60.0029445325,MAFE4ImagesEEG,001,101459,
AFNE01.JPG,AFNE01.JPG,AFNE01.JPG,AFNE01.JPG,AFNE01.JPG,AFNE01.JPG,,,,,,,,,,,,,,,,,,,,,3,2,32,1,,,AFNE15.jpg,AFSA14.jpg,AFSA12.jpg,AFNE03.jpg,AFSA14.jpg,FS,4,num_6,32,num_2,0.916753346508,,,2017_Aug_30_1208,60.0029445325,MAFE4ImagesEEG,001,101459,
AFNE01.JPG,AFNE01.JPG,AFNE01.JPG,AFNE01.JPG,AFNE01.JPG,AFNE01.JPG,,,,,,,,,,,,,,,,,,,,,3,3,33,9,,,AFNE11.jpg,AFNE09.jpg,AFSA16.jpg,AFSA18.jpg,AFNE09.jpg,FN,3,num_6,16,num_6,1.05011971598,,,2017_Aug_30_1208,60.0029445325,MAFE4ImagesEEG,001,101459,
AFNE01.JPG,AFNE01.JPG,AFNE01.JPG,AFNE01.JPG,AFNE01.JPG,AFNE01.JPG,,,,,,,,,,,,,,,,,,,,,3,4,34,3,,,AFNE05.jpg,AFSA07.jpg,AFSA18.jpg,AFNE13.jpg,AFSA07.jpg,FS,4,num_6,32,num_8,0.933437252941,,,2017_Aug_30_1208,60.0029445325,MAFE4ImagesEEG,001,101459,
AFNE01.JPG,AFNE01.JPG,AFNE01.JPG,AFNE01.JPG,AFNE01.JPG,AFNE01.JPG,,,,,,,,,,,,,,,,,,,,,3,5,35,8,,,AFSA11.jpg,AFNE03.jpg,AFSA08.jpg,AFNE08.jpg,AFNE03.jpg,FN,3,num_6,16,num_6,0.450133507838,,,2017_Aug_30_1208,60.0029445325,MAFE4ImagesEEG,001,101459,
AFNE01.JPG,AFNE01.JPG,AFNE01.JPG,AFNE01.JPG,AFNE01.JPG,AFNE01.JPG,,,,,,,,,,,,,,,,,,,,,3,6,36,0,,,AFNE14.jpg,AFNE16.jpg,AFSA03.jpg,AFSA06.jpg,AFNE16.jpg,FN,3,num_6,32,num_8,0.866763850732,,,2017_Aug_30_1208,60.0029445325,MAFE4ImagesEEG,001,101459,
AFNE01.JPG,AFNE01.JPG,AFNE01.JPG,AFNE01.JPG,AFNE01.JPG,AFNE01.JPG,,,,,,,,,,,,,,,,,,,,,3,7,37,7,,,AFSA14.jpg,AFNE07.jpg,AFSA05.jpg,AFNE12.jpg,AFSA05.jpg,FS,4,num_2,32,num_8,1.11631040525,,,2017_Aug_30_1208,60.0029445325,MAFE4ImagesEEG,001,101459,
AFNE01.JPG,AFNE01.JPG,AFNE01.JPG,AFNE01.JPG,AFNE01.JPG,AFNE01.JPG,,,,,,,,,,,,,,,,,,,,,3,8,38,5,,,AFNE05.jpg,AFSA16.jpg,AFSA15.jpg,AFNE09.jpg,AFNE05.jpg,FN,3,num_8,16,num_8,0.783474218159,,,2017_Aug_30_1208,60.0029445325,MAFE4ImagesEEG,001,101459,
