IPosition2,IPosition3,IPosition1,IPosition6,IPosition4,IPosition5,TrialsF1.thisRepN,TrialsF1.thisTrialN,TrialsF1.thisN,TrialsF1.thisIndex,TrialsM1.thisRepN,TrialsM1.thisTrialN,TrialsM1.thisN,TrialsM1.thisIndex,TrialsF2.thisRepN,TrialsF2.thisTrialN,TrialsF2.thisN,TrialsF2.thisIndex,TrialsM2.thisRepN,TrialsM2.thisTrialN,TrialsM2.thisN,TrialsM2.thisIndex,TrialsF3.thisRepN,TrialsF3.thisTrialN,TrialsF3.thisN,TrialsF3.thisIndex,TrialsM3.thisRepN,TrialsM3.thisTrialN,TrialsM3.thisN,TrialsM3.thisIndex,InstrKey_resp.keys,InstrKey_resp.rt,Image0 _Position,Image1 _Position,Image2 _Position,Image3 _Position,Center_image,condition,code,correct_answer,accuracy,Key_Resp.keys,Key_Resp.rt,BreakKey_resp.keys,BreakKey_resp.rt,date,frameRate,expName,session,participant,
,,,,,,,,,,,,,,,,,,,,,,,,,,,,,,space,11.1327657095,,,,,,,,,,,,,,2017_Aug_24_1637,60.0094889906,FEMA4ImagesEEG,001,101458,
AMNE23.JPG,AMNE24.JPG,AMNE22.JPG,AMSA24.JPG,AMSA22.JPG,AMSA23.JPG,0,0,0,9,,,,,,,,,,,,,,,,,,,,,,,AFNE11.jpg,AFNE17.jpg,AFSA18.jpg,AFSA09.jpg,AFSA09.jpg,FS,4,num_4,32,num_2,1.11668959423,,,2017_Aug_24_1637,60.0094889906,FEMA4ImagesEEG,001,101458,
AFSA21.JPG,AFNE23.JPG,AFNE21.JPG,AFSA25.JPG,AFNE25.JPG,AFSA23.JPG,0,1,1,4,,,,,,,,,,,,,,,,,,,,,,,AFSA11.jpg,AFSA01.jpg,AFNE04.jpg,AFNE12.jpg,AFSA01.jpg,FS,4,num_6,16,num_6,0.750104962033,,,2017_Aug_24_1637,60.0094889906,FEMA4ImagesEEG,001,101458,
AFNE22.JPG,AFSA24.JPG,AFSA22.JPG,AFNE25.JPG,AFNE24.JPG,AFSA25.JPG,0,2,2,6,,,,,,,,,,,,,,,,,,,,,,,AFSA20.jpg,AFSA15.jpg,AFNE18.jpg,AFNE15.jpg,AFSA20.jpg,FS,4,num_8,16,num_8,1.21678636142,,,2017_Aug_24_1637,60.0094889906,FEMA4ImagesEEG,001,101458,
AFSA25.JPG,AFNE24.JPG,AFSA24.JPG,AFNE21.JPG,AFSA21.JPG,AFNE25.JPG,0,3,3,2,,,,,,,,,,,,,,,,,,,,,,,AFSA03.jpg,AFSA16.jpg,AFNE17.jpg,AFNE13.jpg,AFNE13.jpg,FN,3,num_4,32,num_2,1.16671472427,,,2017_Aug_24_1637,60.0094889906,FEMA4ImagesEEG,001,101458,
AMNE22.JPG,AMSA24.JPG,AMSA22.JPG,AMNE25.JPG,AMNE24.JPG,AMSA25.JPG,0,4,4,7,,,,,,,,,,,,,,,,,,,,,,,AFNE07.jpg,AFNE08.jpg,AFSA06.jpg,AFSA11.jpg,AFNE08.jpg,FN,3,num_6,16,num_6,1.10010350274,,,2017_Aug_24_1637,60.0094889906,FEMA4ImagesEEG,001,101458,
AMSA21.JPG,AMNE22.JPG,AMNE21.JPG,AMSA23.JPG,AMSA22.JPG,AMNE23.JPG,0,5,5,1,,,,,,,,,,,,,,,,,,,,,,,AFNE07.jpg,AFSA04.jpg,AFSA06.jpg,AFNE17.jpg,AFNE17.jpg,FN,3,num_4,32,num_8,1.03350414871,,,2017_Aug_24_1637,60.0094889906,FEMA4ImagesEEG,001,101458,
AMSA21.JPG,AMNE23.JPG,AMNE21.JPG,AMSA25.JPG,AMNE25.JPG,AMSA23.JPG,0,6,6,5,,,,,,,,,,,,,,,,,,,,,,,AFSA20.jpg,AFNE02.jpg,AFNE15.jpg,AFSA08.jpg,AFNE02.jpg,FN,3,num_6,16,num_6,0.850210068515,,,2017_Aug_24_1637,60.0094889906,FEMA4ImagesEEG,001,101458,
AFSA21.JPG,AFNE22.JPG,AFNE21.JPG,AFSA23.JPG,AFSA22.JPG,AFNE23.JPG,0,7,7,0,,,,,,,,,,,,,,,,,,,,,,,AFNE15.jpg,AFSA12.jpg,AFNE17.jpg,AFSA03.jpg,AFSA12.jpg,FS,4,num_6,32,num_4,1.49977756699,,,2017_Aug_24_1637,60.0094889906,FEMA4ImagesEEG,001,101458,
AFNE23.JPG,AFNE24.JPG,AFNE22.JPG,AFSA24.JPG,AFSA22.JPG,AFSA23.JPG,0,8,8,8,,,,,,,,,,,,,,,,,,,,,,,AFSA02.jpg,AFSA17.jpg,AFNE14.jpg,AFNE16.jpg,AFSA17.jpg,FS,4,num_6,16,num_6,0.783455797122,,,2017_Aug_24_1637,60.0094889906,FEMA4ImagesEEG,001,101458,
AMSA25.JPG,AMNE24.JPG,AMSA24.JPG,AMNE26.JPG,AMSA21.JPG,AMNE25.JPG,0,9,9,3,,,,,,,,,,,,,,,,,,,,,,,AFNE18.jpg,AFSA01.jpg,AFSA09.jpg,AFNE17.jpg,AFSA01.jpg,FS,4,num_6,16,num_6,0.650138736004,,,2017_Aug_24_1637,60.0094889906,FEMA4ImagesEEG,001,101458,
AMSA21.JPG,AMNE23.JPG,AMNE21.JPG,AMSA25.JPG,AMNE25.JPG,AMSA23.JPG,,,,,0,0,0,5,,,,,,,,,,,,,,,,,,,AMSA07.jpg,AMSA12.jpg,AMNE07.jpg,AMNE19.jpg,AMSA07.jpg,MS,2,num_8,16,num_8,0.850116733229,,,2017_Aug_24_1637,60.0094889906,FEMA4ImagesEEG,001,101458,
AFSA25.JPG,AFNE24.JPG,AFSA24.JPG,AFNE21.JPG,AFSA21.JPG,AFNE25.JPG,,,,,0,1,1,2,,,,,,,,,,,,,,,,,,,AMNE18.jpg,AMNE06.jpg,AMSA13.jpg,AMSA07.jpg,AMSA07.jpg,MS,2,num_4,16,num_4,0.749988533556,,,2017_Aug_24_1637,60.0094889906,FEMA4ImagesEEG,001,101458,
AFNE23.JPG,AFNE24.JPG,AFNE22.JPG,AFSA24.JPG,AFSA22.JPG,AFSA23.JPG,,,,,0,2,2,8,,,,,,,,,,,,,,,,,,,AMSA17.jpg,AMNE13.jpg,AMNE01.jpg,AMSA11.jpg,AMSA17.jpg,MS,2,num_8,16,num_8,1.56679612782,,,2017_Aug_24_1637,60.0094889906,FEMA4ImagesEEG,001,101458,
AFSA21.JPG,AFNE23.JPG,AFNE21.JPG,AFSA25.JPG,AFNE25.JPG,AFSA23.JPG,,,,,0,3,3,4,,,,,,,,,,,,,,,,,,,AMSA14.jpg,AMNE11.jpg,AMSA18.jpg,AMNE20.jpg,AMSA18.jpg,MS,2,num_2,16,num_2,0.900124222506,,,2017_Aug_24_1637,60.0094889906,FEMA4ImagesEEG,001,101458,
AFSA21.JPG,AFNE22.JPG,AFNE21.JPG,AFSA23.JPG,AFSA22.JPG,AFNE23.JPG,,,,,0,4,4,0,,,,,,,,,,,,,,,,,,,AMNE20.jpg,AMSA08.jpg,AMNE19.jpg,AMSA07.jpg,AMNE19.jpg,MN,1,num_2,32,num_4,1.34994241118,,,2017_Aug_24_1637,60.0094889906,FEMA4ImagesEEG,001,101458,
AMSA21.JPG,AMNE22.JPG,AMNE21.JPG,AMSA23.JPG,AMSA22.JPG,AMNE23.JPG,,,,,0,5,5,1,,,,,,,,,,,,,,,,,,,AMNE19.jpg,AMSA07.jpg,AMNE15.jpg,AMSA03.jpg,AMSA07.jpg,MS,2,num_6,16,num_6,0.533475121716,,,2017_Aug_24_1637,60.0094889906,FEMA4ImagesEEG,001,101458,
AFNE22.JPG,AFSA24.JPG,AFSA22.JPG,AFNE25.JPG,AFNE24.JPG,AFSA25.JPG,,,,,0,6,6,6,,,,,,,,,,,,,,,,,,,AMSA10.jpg,AMSA14.jpg,AMNE17.jpg,AMNE12.jpg,AMNE12.jpg,MN,1,num_4,32,num_8,0.933518036618,,,2017_Aug_24_1637,60.0094889906,FEMA4ImagesEEG,001,101458,
AMSA25.JPG,AMNE24.JPG,AMSA24.JPG,AMNE26.JPG,AMSA21.JPG,AMNE25.JPG,,,,,0,7,7,3,,,,,,,,,,,,,,,,,,,AMNE18.jpg,AMSA17.jpg,AMNE06.jpg,AMSA18.jpg,AMNE06.jpg,MN,1,num_2,32,num_4,0.566759884241,,,2017_Aug_24_1637,60.0094889906,FEMA4ImagesEEG,001,101458,
AMNE23.JPG,AMNE24.JPG,AMNE22.JPG,AMSA24.JPG,AMSA22.JPG,AMSA23.JPG,,,,,0,8,8,9,,,,,,,,,,,,,,,,,,,AMNE08.jpg,AMSA08.jpg,AMNE03.jpg,AMSA01.jpg,AMNE03.jpg,MN,1,num_2,32,num_8,1.11674411991,,,2017_Aug_24_1637,60.0094889906,FEMA4ImagesEEG,001,101458,
AMNE22.JPG,AMSA24.JPG,AMSA22.JPG,AMNE25.JPG,AMNE24.JPG,AMSA25.JPG,,,,,0,9,9,7,,,,,,,,,,,,,,,,,,,AMNE18.jpg,AMSA08.jpg,AMSA11.jpg,AMNE01.jpg,AMSA11.jpg,MS,2,num_2,32,num_8,1.25014136604,,,2017_Aug_24_1637,60.0094889906,FEMA4ImagesEEG,001,101458,
AMSA21.JPG,AMNE22.JPG,AMNE21.JPG,AMSA23.JPG,AMSA22.JPG,AMNE23.JPG,,,,,,,,,0,0,0,1,,,,,,,,,,,,,,,AFSA14.jpg,AFNE20.jpg,AFSA04.jpg,AFNE05.jpg,AFNE20.jpg,FN,3,num_6,16,num_6,0.783443929744,,,2017_Aug_24_1637,60.0094889906,FEMA4ImagesEEG,001,101458,
AFSA21.JPG,AFNE22.JPG,AFNE21.JPG,AFSA23.JPG,AFSA22.JPG,AFNE23.JPG,,,,,,,,,0,1,1,0,,,,,,,,,,,,,,,AFSA08.jpg,AFSA09.jpg,AFNE16.jpg,AFNE14.jpg,AFSA09.jpg,FS,4,num_6,32,num_4,1.25026709598,,,2017_Aug_24_1637,60.0094889906,FEMA4ImagesEEG,001,101458,
AMSA21.JPG,AMNE23.JPG,AMNE21.JPG,AMSA25.JPG,AMNE25.JPG,AMSA23.JPG,,,,,,,,,0,2,2,5,,,,,,,,,,,,,,,AFSA12.jpg,AFSA16.jpg,AFNE01.jpg,AFNE06.jpg,AFNE01.jpg,FN,3,num_2,32,num_6,0.716799992719,,,2017_Aug_24_1637,60.0094889906,FEMA4ImagesEEG,001,101458,
AMNE22.JPG,AMSA24.JPG,AMSA22.JPG,AMNE25.JPG,AMNE24.JPG,AMSA25.JPG,,,,,,,,,0,3,3,7,,,,,,,,,,,,,,,AFSA02.jpg,AFNE16.jpg,AFNE18.jpg,AFSA19.jpg,AFNE16.jpg,FN,3,num_6,16,num_6,1.2500522004,,,2017_Aug_24_1637,60.0094889906,FEMA4ImagesEEG,001,101458,
AFNE23.JPG,AFNE24.JPG,AFNE22.JPG,AFSA24.JPG,AFSA22.JPG,AFSA23.JPG,,,,,,,,,0,4,4,8,,,,,,,,,,,,,,,AFNE07.jpg,AFSA10.jpg,AFNE18.jpg,AFSA16.jpg,AFNE07.jpg,FN,3,num_8,32,num_6,1.25005187967,,,2017_Aug_24_1637,60.0094889906,FEMA4ImagesEEG,001,101458,
AFSA25.JPG,AFNE24.JPG,AFSA24.JPG,AFNE21.JPG,AFSA21.JPG,AFNE25.JPG,,,,,,,,,0,5,5,2,,,,,,,,,,,,,,,AFSA17.jpg,AFSA09.jpg,AFNE13.jpg,AFNE04.jpg,AFSA09.jpg,FS,4,num_6,16,num_6,0.683464232599,,,2017_Aug_24_1637,60.0094889906,FEMA4ImagesEEG,001,101458,
AMSA25.JPG,AMNE24.JPG,AMSA24.JPG,AMNE26.JPG,AMSA21.JPG,AMNE25.JPG,,,,,,,,,0,6,6,3,,,,,,,,,,,,,,,AFNE11.jpg,AFSA07.jpg,AFSA13.jpg,AFNE20.jpg,AFSA13.jpg,FS,4,num_2,32,num_8,0.650090945768,,,2017_Aug_24_1637,60.0094889906,FEMA4ImagesEEG,001,101458,
AMNE23.JPG,AMNE24.JPG,AMNE22.JPG,AMSA24.JPG,AMSA22.JPG,AMSA23.JPG,,,,,,,,,0,7,7,9,,,,,,,,,,,,,,,AFNE15.jpg,AFSA07.jpg,AFNE03.jpg,AFSA17.jpg,AFNE03.jpg,FN,3,num_2,32,num_4,1.38333109347,,,2017_Aug_24_1637,60.0094889906,FEMA4ImagesEEG,001,101458,
AFSA21.JPG,AFNE23.JPG,AFNE21.JPG,AFSA25.JPG,AFNE25.JPG,AFSA23.JPG,,,,,,,,,0,8,8,4,,,,,,,,,,,,,,,AFNE07.jpg,AFSA02.jpg,AFNE09.jpg,AFSA01.jpg,AFNE09.jpg,FN,3,num_2,32,num_8,1.63339676498,,,2017_Aug_24_1637,60.0094889906,FEMA4ImagesEEG,001,101458,
AFNE22.JPG,AFSA24.JPG,AFSA22.JPG,AFNE25.JPG,AFNE24.JPG,AFSA25.JPG,,,,,,,,,0,9,9,6,,,,,,,,,,,,,,,AFNE08.jpg,AFSA14.jpg,AFSA03.jpg,AFNE14.jpg,AFSA14.jpg,FS,4,num_6,16,num_6,0.700107736397,,,2017_Aug_24_1637,60.0094889906,FEMA4ImagesEEG,001,101458,
AMSA21.JPG,AMNE23.JPG,AMNE21.JPG,AMSA25.JPG,AMNE25.JPG,AMSA23.JPG,,,,,,,,,,,,,0,0,0,5,,,,,,,,,,,AMNE16.jpg,AMNE08.jpg,AMSA02.jpg,AMSA15.jpg,AMSA02.jpg,MS,2,num_2,16,num_2,1.11677555239,,,2017_Aug_24_1637,60.0094889906,FEMA4ImagesEEG,001,101458,
AFNE23.JPG,AFNE24.JPG,AFNE22.JPG,AFSA24.JPG,AFSA22.JPG,AFSA23.JPG,,,,,,,,,,,,,0,1,1,8,,,,,,,,,,,AMNE17.jpg,AMSA06.jpg,AMNE07.jpg,AMSA18.jpg,AMSA06.jpg,MS,2,num_6,32,num_4,1.08354788146,,,2017_Aug_24_1637,60.0094889906,FEMA4ImagesEEG,001,101458,
AMSA21.JPG,AMNE22.JPG,AMNE21.JPG,AMSA23.JPG,AMSA22.JPG,AMNE23.JPG,,,,,,,,,,,,,0,2,2,1,,,,,,,,,,,AMSA06.jpg,AMNE03.jpg,AMNE17.jpg,AMSA09.jpg,AMSA09.jpg,MS,2,num_4,16,num_4,0.6834898917,,,2017_Aug_24_1637,60.0094889906,FEMA4ImagesEEG,001,101458,
AFSA25.JPG,AFNE24.JPG,AFSA24.JPG,AFNE21.JPG,AFSA21.JPG,AFNE25.JPG,,,,,,,,,,,,,0,3,3,2,,,,,,,,,,,AMSA09.jpg,AMNE12.jpg,AMSA19.jpg,AMNE06.jpg,AMNE12.jpg,MN,1,num_6,32,num_8,1.03342588816,,,2017_Aug_24_1637,60.0094889906,FEMA4ImagesEEG,001,101458,
AFNE22.JPG,AFSA24.JPG,AFSA22.JPG,AFNE25.JPG,AFNE24.JPG,AFSA25.JPG,,,,,,,,,,,,,0,4,4,6,,,,,,,,,,,AMNE15.jpg,AMSA03.jpg,AMNE01.jpg,AMSA20.jpg,AMNE15.jpg,MN,1,num_8,32,num_6,0.766867139726,,,2017_Aug_24_1637,60.0094889906,FEMA4ImagesEEG,001,101458,
AFSA21.JPG,AFNE22.JPG,AFNE21.JPG,AFSA23.JPG,AFSA22.JPG,AFNE23.JPG,,,,,,,,,,,,,0,5,5,0,,,,,,,,,,,AMNE13.jpg,AMSA04.jpg,AMSA14.jpg,AMNE05.jpg,AMNE05.jpg,MN,1,num_4,32,num_8,1.8501844093,,,2017_Aug_24_1637,60.0094889906,FEMA4ImagesEEG,001,101458,
AFSA21.JPG,AFNE23.JPG,AFNE21.JPG,AFSA25.JPG,AFNE25.JPG,AFSA23.JPG,,,,,,,,,,,,,0,6,6,4,,,,,,,,,,,AMSA10.jpg,AMSA12.jpg,AMNE13.jpg,AMNE08.jpg,AMNE08.jpg,MN,1,num_4,32,num_6,0.616706433124,,,2017_Aug_24_1637,60.0094889906,FEMA4ImagesEEG,001,101458,
AMSA25.JPG,AMNE24.JPG,AMSA24.JPG,AMNE26.JPG,AMSA21.JPG,AMNE25.JPG,,,,,,,,,,,,,0,7,7,3,,,,,,,,,,,AMNE08.jpg,AMNE11.jpg,AMSA09.jpg,AMSA07.jpg,AMSA07.jpg,MS,2,num_4,32,num_2,0.98345015198,,,2017_Aug_24_1637,60.0094889906,FEMA4ImagesEEG,001,101458,
AMNE23.JPG,AMNE24.JPG,AMNE22.JPG,AMSA24.JPG,AMSA22.JPG,AMSA23.JPG,,,,,,,,,,,,,0,8,8,9,,,,,,,,,,,AMSA14.jpg,AMNE18.jpg,AMNE14.jpg,AMSA17.jpg,AMSA17.jpg,MS,2,num_4,16,num_4,0.466775055276,,,2017_Aug_24_1637,60.0094889906,FEMA4ImagesEEG,001,101458,
AMNE22.JPG,AMSA24.JPG,AMSA22.JPG,AMNE25.JPG,AMNE24.JPG,AMSA25.JPG,,,,,,,,,,,,,0,9,9,7,,,,,,,,,,,AMSA04.jpg,AMNE06.jpg,AMNE15.jpg,AMSA19.jpg,AMSA19.jpg,MS,2,num_4,16,num_4,0.750089887297,,,2017_Aug_24_1637,60.0094889906,FEMA4ImagesEEG,001,101458,
AFNE22.JPG,AFSA24.JPG,AFSA22.JPG,AFNE25.JPG,AFNE24.JPG,AFSA25.JPG,,,,,,,,,,,,,,,,,0,0,0,6,,,,,,,AFSA20.jpg,AFSA08.jpg,AFNE06.jpg,AFNE18.jpg,AFSA08.jpg,FS,4,num_6,32,num_4,0.600099172676,,,2017_Aug_24_1637,60.0094889906,FEMA4ImagesEEG,001,101458,
AMNE22.JPG,AMSA24.JPG,AMSA22.JPG,AMNE25.JPG,AMNE24.JPG,AMSA25.JPG,,,,,,,,,,,,,,,,,0,1,1,7,,,,,,,AFNE08.jpg,AFSA14.jpg,AFNE02.jpg,AFSA12.jpg,AFSA14.jpg,FS,4,num_6,16,num_6,0.583453744417,,,2017_Aug_24_1637,60.0094889906,FEMA4ImagesEEG,001,101458,
AFNE23.JPG,AFNE24.JPG,AFNE22.JPG,AFSA24.JPG,AFSA22.JPG,AFSA23.JPG,,,,,,,,,,,,,,,,,0,2,2,8,,,,,,,AFSA03.jpg,AFNE11.jpg,AFSA09.jpg,AFNE19.jpg,AFNE11.jpg,FN,3,num_6,16,num_6,0.633438140387,,,2017_Aug_24_1637,60.0094889906,FEMA4ImagesEEG,001,101458,
AMSA21.JPG,AMNE22.JPG,AMNE21.JPG,AMSA23.JPG,AMSA22.JPG,AMNE23.JPG,,,,,,,,,,,,,,,,,0,3,3,1,,,,,,,AFSA16.jpg,AFNE16.jpg,AFNE02.jpg,AFSA04.jpg,AFSA16.jpg,FS,4,num_8,32,num_4,0.716774333618,,,2017_Aug_24_1637,60.0094889906,FEMA4ImagesEEG,001,101458,
AFSA21.JPG,AFNE23.JPG,AFNE21.JPG,AFSA25.JPG,AFNE25.JPG,AFSA23.JPG,,,,,,,,,,,,,,,,,0,4,4,4,,,,,,,AFNE18.jpg,AFNE01.jpg,AFSA17.jpg,AFSA12.jpg,AFSA17.jpg,FS,4,num_2,32,num_6,1.10031390795,,,2017_Aug_24_1637,60.0094889906,FEMA4ImagesEEG,001,101458,
AFSA25.JPG,AFNE24.JPG,AFSA24.JPG,AFNE21.JPG,AFSA21.JPG,AFNE25.JPG,,,,,,,,,,,,,,,,,0,5,5,2,,,,,,,AFSA08.jpg,AFNE07.jpg,AFNE12.jpg,AFSA16.jpg,AFNE12.jpg,FN,3,num_2,16,num_2,0.983436680981,,,2017_Aug_24_1637,60.0094889906,FEMA4ImagesEEG,001,101458,
AMSA25.JPG,AMNE24.JPG,AMSA24.JPG,AMNE26.JPG,AMSA21.JPG,AMNE25.JPG,,,,,,,,,,,,,,,,,0,6,6,3,,,,,,,AFSA02.jpg,AFNE19.jpg,AFSA04.jpg,AFNE07.jpg,AFNE19.jpg,FN,3,num_6,16,num_6,1.10007591918,,,2017_Aug_24_1637,60.0094889906,FEMA4ImagesEEG,001,101458,
AMSA21.JPG,AMNE23.JPG,AMNE21.JPG,AMSA25.JPG,AMNE25.JPG,AMSA23.JPG,,,,,,,,,,,,,,,,,0,7,7,5,,,,,,,AFNE10.jpg,AFNE12.jpg,AFSA20.jpg,AFSA04.jpg,AFSA20.jpg,FS,4,num_2,32,num_6,0.833474191488,,,2017_Aug_24_1637,60.0094889906,FEMA4ImagesEEG,001,101458,
AFSA21.JPG,AFNE22.JPG,AFNE21.JPG,AFSA23.JPG,AFSA22.JPG,AFNE23.JPG,,,,,,,,,,,,,,,,,0,8,8,0,,,,,,,AFNE13.jpg,AFSA08.jpg,AFSA19.jpg,AFNE02.jpg,AFSA19.jpg,FS,4,num_2,16,num_2,0.666759788059,,,2017_Aug_24_1637,60.0094889906,FEMA4ImagesEEG,001,101458,
AMNE23.JPG,AMNE24.JPG,AMNE22.JPG,AMSA24.JPG,AMSA22.JPG,AMSA23.JPG,,,,,,,,,,,,,,,,,0,9,9,9,,,,,,,AFNE17.jpg,AFSA06.jpg,AFSA04.jpg,AFNE09.jpg,AFSA06.jpg,FS,4,num_6,16,num_6,0.883445757907,,,2017_Aug_24_1637,60.0094889906,FEMA4ImagesEEG,001,101458,
AFNE22.JPG,AFSA24.JPG,AFSA22.JPG,AFNE25.JPG,AFNE24.JPG,AFSA25.JPG,,,,,,,,,,,,,,,,,,,,,0,0,0,6,,,AMSA09.jpg,AMSA04.jpg,AMNE10.jpg,AMNE09.jpg,AMNE10.jpg,MN,1,num_2,32,num_8,1.50008996751,,,2017_Aug_24_1637,60.0094889906,FEMA4ImagesEEG,001,101458,
AMSA21.JPG,AMNE22.JPG,AMNE21.JPG,AMSA23.JPG,AMSA22.JPG,AMNE23.JPG,,,,,,,,,,,,,,,,,,,,,0,1,1,1,,,AMNE15.jpg,AMNE03.jpg,AMSA15.jpg,AMSA17.jpg,AMNE03.jpg,MN,1,num_6,32,num_4,0.316799736232,,,2017_Aug_24_1637,60.0094889906,FEMA4ImagesEEG,001,101458,
AFSA25.JPG,AFNE24.JPG,AFSA24.JPG,AFNE21.JPG,AFSA21.JPG,AFNE25.JPG,,,,,,,,,,,,,,,,,,,,,0,2,2,2,,,AMSA06.jpg,AMNE03.jpg,AMSA05.jpg,AMNE05.jpg,AMNE05.jpg,MN,1,num_4,16,num_4,1.0667568373,,,2017_Aug_24_1637,60.0094889906,FEMA4ImagesEEG,001,101458,
AMSA25.JPG,AMNE24.JPG,AMSA24.JPG,AMNE26.JPG,AMSA21.JPG,AMNE25.JPG,,,,,,,,,,,,,,,,,,,,,0,3,3,3,,,AMSA09.jpg,AMSA03.jpg,AMNE17.jpg,AMNE07.jpg,AMSA09.jpg,MS,2,num_8,16,num_8,0.466845938819,,,2017_Aug_24_1637,60.0094889906,FEMA4ImagesEEG,001,101458,
AFSA21.JPG,AFNE23.JPG,AFNE21.JPG,AFSA25.JPG,AFNE25.JPG,AFSA23.JPG,,,,,,,,,,,,,,,,,,,,,0,4,4,4,,,AMNE11.jpg,AMSA15.jpg,AMSA02.jpg,AMNE14.jpg,AMNE11.jpg,MN,1,num_8,32,num_2,1.13344375335,,,2017_Aug_24_1637,60.0094889906,FEMA4ImagesEEG,001,101458,
AMNE23.JPG,AMNE24.JPG,AMNE22.JPG,AMSA24.JPG,AMSA22.JPG,AMSA23.JPG,,,,,,,,,,,,,,,,,,,,,0,5,5,9,,,AMSA17.jpg,AMNE12.jpg,AMNE17.jpg,AMSA10.jpg,AMSA10.jpg,MS,2,num_4,32,num_8,0.716779786278,,,2017_Aug_24_1637,60.0094889906,FEMA4ImagesEEG,001,101458,
AMNE22.JPG,AMSA24.JPG,AMSA22.JPG,AMNE25.JPG,AMNE24.JPG,AMSA25.JPG,,,,,,,,,,,,,,,,,,,,,0,6,6,7,,,AMNE18.jpg,AMNE10.jpg,AMSA18.jpg,AMSA03.jpg,AMSA03.jpg,MS,2,num_4,32,num_2,0.866776274052,,,2017_Aug_24_1637,60.0094889906,FEMA4ImagesEEG,001,101458,
AMSA21.JPG,AMNE23.JPG,AMNE21.JPG,AMSA25.JPG,AMNE25.JPG,AMSA23.JPG,,,,,,,,,,,,,,,,,,,,,0,7,7,5,,,AMSA15.jpg,AMNE04.jpg,AMNE13.jpg,AMSA06.jpg,AMSA15.jpg,MS,2,num_8,32,num_6,0.566818579682,,,2017_Aug_24_1637,60.0094889906,FEMA4ImagesEEG,001,101458,
AFNE23.JPG,AFNE24.JPG,AFNE22.JPG,AFSA24.JPG,AFSA22.JPG,AFSA23.JPG,,,,,,,,,,,,,,,,,,,,,0,8,8,8,,,AMNE16.jpg,AMNE07.jpg,AMSA14.jpg,AMSA17.jpg,AMNE07.jpg,MN,1,num_6,32,num_4,1.28336582961,,,2017_Aug_24_1637,60.0094889906,FEMA4ImagesEEG,001,101458,
AFSA21.JPG,AFNE22.JPG,AFNE21.JPG,AFSA23.JPG,AFSA22.JPG,AFNE23.JPG,,,,,,,,,,,,,,,,,,,,,0,9,9,0,,,AMSA15.jpg,AMSA05.jpg,AMNE11.jpg,AMNE19.jpg,AMSA05.jpg,MS,2,num_6,16,num_6,1.78332140716,,,2017_Aug_24_1637,60.0094889906,FEMA4ImagesEEG,001,101458,
,,,,,,,,,,,,,,,,,,,,,,,,,,,,,,,,,,,,,,,,,,,space,14.2990653965,2017_Aug_24_1637,60.0094889906,FEMA4ImagesEEG,001,101458,
AFNE01.JPG,AFNE01.JPG,AFNE01.JPG,AFNE01.JPG,AFNE01.JPG,AFNE01.JPG,0,0,0,5,,,,,,,,,,,,,,,,,,,,,,,AFNE20.jpg,AFSA04.jpg,AFNE11.jpg,AFSA10.jpg,AFSA10.jpg,FS,4,num_4,16,num_4,1.63344359293,,,2017_Aug_24_1637,60.0094889906,FEMA4ImagesEEG,001,101458,
AFNE01.JPG,AFNE01.JPG,AFNE01.JPG,AFNE01.JPG,AFNE01.JPG,AFNE01.JPG,0,1,1,2,,,,,,,,,,,,,,,,,,,,,,,AFSA15.jpg,AFNE03.jpg,AFSA10.jpg,AFNE19.jpg,AFSA15.jpg,FS,4,num_8,16,num_8,0.833449494559,,,2017_Aug_24_1637,60.0094889906,FEMA4ImagesEEG,001,101458,
AFNE01.JPG,AFNE01.JPG,AFNE01.JPG,AFNE01.JPG,AFNE01.JPG,AFNE01.JPG,0,2,2,3,,,,,,,,,,,,,,,,,,,,,,,AFSA08.jpg,AFNE16.jpg,AFNE13.jpg,AFSA07.jpg,AFNE16.jpg,FN,3,num_6,16,num_6,0.550115097431,,,2017_Aug_24_1637,60.0094889906,FEMA4ImagesEEG,001,101458,
AFNE01.JPG,AFNE01.JPG,AFNE01.JPG,AFNE01.JPG,AFNE01.JPG,AFNE01.JPG,0,3,3,7,,,,,,,,,,,,,,,,,,,,,,,AFNE13.jpg,AFNE06.jpg,AFSA07.jpg,AFSA03.jpg,AFSA03.jpg,FS,4,num_4,16,num_4,0.567037644912,,,2017_Aug_24_1637,60.0094889906,FEMA4ImagesEEG,001,101458,
AFNE01.JPG,AFNE01.JPG,AFNE01.JPG,AFNE01.JPG,AFNE01.JPG,AFNE01.JPG,0,4,4,6,,,,,,,,,,,,,,,,,,,,,,,AFNE03.jpg,AFSA08.jpg,AFSA12.jpg,AFNE01.jpg,AFSA08.jpg,FS,4,num_6,32,num_8,0.98354380799,,,2017_Aug_24_1637,60.0094889906,FEMA4ImagesEEG,001,101458,
AFNE01.JPG,AFNE01.JPG,AFNE01.JPG,AFNE01.JPG,AFNE01.JPG,AFNE01.JPG,0,5,5,0,,,,,,,,,,,,,,,,,,,,,,,AFNE13.jpg,AFSA16.jpg,AFSA13.jpg,AFNE04.jpg,AFSA13.jpg,FS,4,num_2,32,num_6,0.416788093396,,,2017_Aug_24_1637,60.0094889906,FEMA4ImagesEEG,001,101458,
AFNE01.JPG,AFNE01.JPG,AFNE01.JPG,AFNE01.JPG,AFNE01.JPG,AFNE01.JPG,0,6,6,9,,,,,,,,,,,,,,,,,,,,,,,AFSA13.jpg,AFNE18.jpg,AFNE08.jpg,AFSA15.jpg,AFNE08.jpg,FN,3,num_2,32,num_6,1.10007591906,,,2017_Aug_24_1637,60.0094889906,FEMA4ImagesEEG,001,101458,
AFNE01.JPG,AFNE01.JPG,AFNE01.JPG,AFNE01.JPG,AFNE01.JPG,AFNE01.JPG,0,7,7,1,,,,,,,,,,,,,,,,,,,,,,,AFSA09.jpg,AFNE20.jpg,AFSA19.jpg,AFNE13.jpg,AFNE13.jpg,FN,3,num_4,32,num_6,0.716724619037,,,2017_Aug_24_1637,60.0094889906,FEMA4ImagesEEG,001,101458,
AFNE01.JPG,AFNE01.JPG,AFNE01.JPG,AFNE01.JPG,AFNE01.JPG,AFNE01.JPG,0,8,8,8,,,,,,,,,,,,,,,,,,,,,,,AFSA10.jpg,AFNE10.jpg,AFNE12.jpg,AFSA19.jpg,AFSA19.jpg,FS,4,num_4,16,num_4,0.500176567235,,,2017_Aug_24_1637,60.0094889906,FEMA4ImagesEEG,001,101458,
AFNE01.JPG,AFNE01.JPG,AFNE01.JPG,AFNE01.JPG,AFNE01.JPG,AFNE01.JPG,0,9,9,4,,,,,,,,,,,,,,,,,,,,,,,AFSA12.jpg,AFSA19.jpg,AFNE15.jpg,AFNE02.jpg,AFNE02.jpg,FN,3,num_4,32,num_2,0.350545081077,,,2017_Aug_24_1637,60.0094889906,FEMA4ImagesEEG,001,101458,
AFNE01.JPG,AFNE01.JPG,AFNE01.JPG,AFNE01.JPG,AFNE01.JPG,AFNE01.JPG,1,0,10,6,,,,,,,,,,,,,,,,,,,,,,,AFSA12.jpg,AFSA07.jpg,AFNE06.jpg,AFNE10.jpg,AFNE10.jpg,FN,3,num_4,32,num_6,0.833466493757,,,2017_Aug_24_1637,60.0094889906,FEMA4ImagesEEG,001,101458,
AFNE01.JPG,AFNE01.JPG,AFNE01.JPG,AFNE01.JPG,AFNE01.JPG,AFNE01.JPG,1,1,11,1,,,,,,,,,,,,,,,,,,,,,,,AFNE05.jpg,AFNE15.jpg,AFSA03.jpg,AFSA09.jpg,AFSA03.jpg,FS,4,num_2,32,num_6,0.933458699845,,,2017_Aug_24_1637,60.0094889906,FEMA4ImagesEEG,001,101458,
AFNE01.JPG,AFNE01.JPG,AFNE01.JPG,AFNE01.JPG,AFNE01.JPG,AFNE01.JPG,1,2,12,2,,,,,,,,,,,,,,,,,,,,,,,AFNE15.jpg,AFNE13.jpg,AFSA11.jpg,AFSA12.jpg,AFSA12.jpg,FS,4,num_4,16,num_4,0.533441444044,,,2017_Aug_24_1637,60.0094889906,FEMA4ImagesEEG,001,101458,
AFNE01.JPG,AFNE01.JPG,AFNE01.JPG,AFNE01.JPG,AFNE01.JPG,AFNE01.JPG,1,3,13,4,,,,,,,,,,,,,,,,,,,,,,,AFSA05.jpg,AFNE15.jpg,AFSA13.jpg,AFNE14.jpg,AFSA05.jpg,FS,4,num_8,32,num_6,0.766768993344,,,2017_Aug_24_1637,60.0094889906,FEMA4ImagesEEG,001,101458,
AFNE01.JPG,AFNE01.JPG,AFNE01.JPG,AFNE01.JPG,AFNE01.JPG,AFNE01.JPG,1,4,14,9,,,,,,,,,,,,,,,,,,,,,,,AFSA18.jpg,AFNE11.jpg,AFNE07.jpg,AFSA13.jpg,AFNE11.jpg,FN,3,num_6,32,num_2,1.11680666427,,,2017_Aug_24_1637,60.0094889906,FEMA4ImagesEEG,001,101458,
AFNE01.JPG,AFNE01.JPG,AFNE01.JPG,AFNE01.JPG,AFNE01.JPG,AFNE01.JPG,1,5,15,3,,,,,,,,,,,,,,,,,,,,,,,AFSA12.jpg,AFNE13.jpg,AFSA06.jpg,AFNE18.jpg,AFSA12.jpg,FS,4,num_8,16,num_8,0.783430458629,,,2017_Aug_24_1637,60.0094889906,FEMA4ImagesEEG,001,101458,
AFNE01.JPG,AFNE01.JPG,AFNE01.JPG,AFNE01.JPG,AFNE01.JPG,AFNE01.JPG,1,6,16,8,,,,,,,,,,,,,,,,,,,,,,,AFNE12.jpg,AFSA03.jpg,AFNE17.jpg,AFSA01.jpg,AFSA03.jpg,FS,4,num_6,32,num_2,0.750115225674,,,2017_Aug_24_1637,60.0094889906,FEMA4ImagesEEG,001,101458,
AFNE01.JPG,AFNE01.JPG,AFNE01.JPG,AFNE01.JPG,AFNE01.JPG,AFNE01.JPG,1,7,17,0,,,,,,,,,,,,,,,,,,,,,,,AFNE17.jpg,AFSA16.jpg,AFSA15.jpg,AFNE20.jpg,AFNE20.jpg,FN,3,num_4,16,num_4,0.966749556479,,,2017_Aug_24_1637,60.0094889906,FEMA4ImagesEEG,001,101458,
AFNE01.JPG,AFNE01.JPG,AFNE01.JPG,AFNE01.JPG,AFNE01.JPG,AFNE01.JPG,1,8,18,5,,,,,,,,,,,,,,,,,,,,,,,AFSA02.jpg,AFSA09.jpg,AFNE16.jpg,AFNE07.jpg,AFSA02.jpg,FS,4,num_8,32,num_6,0.616741714417,,,2017_Aug_24_1637,60.0094889906,FEMA4ImagesEEG,001,101458,
AFNE01.JPG,AFNE01.JPG,AFNE01.JPG,AFNE01.JPG,AFNE01.JPG,AFNE01.JPG,1,9,19,7,,,,,,,,,,,,,,,,,,,,,,,AFSA05.jpg,AFNE07.jpg,AFSA02.jpg,AFNE17.jpg,AFNE17.jpg,FN,3,num_4,32,num_2,1.05014797323,,,2017_Aug_24_1637,60.0094889906,FEMA4ImagesEEG,001,101458,
AFNE01.JPG,AFNE01.JPG,AFNE01.JPG,AFNE01.JPG,AFNE01.JPG,AFNE01.JPG,2,0,20,8,,,,,,,,,,,,,,,,,,,,,,,AFSA12.jpg,AFSA17.jpg,AFNE05.jpg,AFNE16.jpg,AFNE05.jpg,FN,3,num_2,32,num_4,0.766760654049,,,2017_Aug_24_1637,60.0094889906,FEMA4ImagesEEG,001,101458,
AFNE01.JPG,AFNE01.JPG,AFNE01.JPG,AFNE01.JPG,AFNE01.JPG,AFNE01.JPG,2,1,21,4,,,,,,,,,,,,,,,,,,,,,,,AFNE12.jpg,AFSA03.jpg,AFSA06.jpg,AFNE10.jpg,AFNE10.jpg,FN,3,num_4,16,num_4,0.416806054767,,,2017_Aug_24_1637,60.0094889906,FEMA4ImagesEEG,001,101458,
AFNE01.JPG,AFNE01.JPG,AFNE01.JPG,AFNE01.JPG,AFNE01.JPG,AFNE01.JPG,2,2,22,6,,,,,,,,,,,,,,,,,,,,,,,AFSA08.jpg,AFNE02.jpg,AFSA20.jpg,AFNE11.jpg,AFSA20.jpg,FS,4,num_2,16,num_2,0.350178154884,,,2017_Aug_24_1637,60.0094889906,FEMA4ImagesEEG,001,101458,
AFNE01.JPG,AFNE01.JPG,AFNE01.JPG,AFNE01.JPG,AFNE01.JPG,AFNE01.JPG,2,3,23,2,,,,,,,,,,,,,,,,,,,,,,,AFNE18.jpg,AFSA17.jpg,AFSA07.jpg,AFNE13.jpg,AFNE18.jpg,FN,3,num_8,32,num_4,0.783144358895,,,2017_Aug_24_1637,60.0094889906,FEMA4ImagesEEG,001,101458,
AFNE01.JPG,AFNE01.JPG,AFNE01.JPG,AFNE01.JPG,AFNE01.JPG,AFNE01.JPG,2,4,24,3,,,,,,,,,,,,,,,,,,,,,,,AFSA18.jpg,AFNE09.jpg,AFNE17.jpg,AFSA12.jpg,AFNE09.jpg,FN,3,num_6,32,num_2,0.833746499498,,,2017_Aug_24_1637,60.0094889906,FEMA4ImagesEEG,001,101458,
AFNE01.JPG,AFNE01.JPG,AFNE01.JPG,AFNE01.JPG,AFNE01.JPG,AFNE01.JPG,2,5,25,9,,,,,,,,,,,,,,,,,,,,,,,AFSA02.jpg,AFNE17.jpg,AFSA16.jpg,AFNE10.jpg,AFSA02.jpg,FS,4,num_8,32,num_6,0.833441155264,,,2017_Aug_24_1637,60.0094889906,FEMA4ImagesEEG,001,101458,
AFNE01.JPG,AFNE01.JPG,AFNE01.JPG,AFNE01.JPG,AFNE01.JPG,AFNE01.JPG,2,6,26,7,,,,,,,,,,,,,,,,,,,,,,,AFSA17.jpg,AFNE19.jpg,AFSA13.jpg,AFNE10.jpg,AFSA13.jpg,FS,4,num_2,16,num_2,0.73350956908,,,2017_Aug_24_1637,60.0094889906,FEMA4ImagesEEG,001,101458,
AFNE01.JPG,AFNE01.JPG,AFNE01.JPG,AFNE01.JPG,AFNE01.JPG,AFNE01.JPG,2,7,27,0,,,,,,,,,,,,,,,,,,,,,,,AFSA10.jpg,AFNE07.jpg,AFNE03.jpg,AFSA08.jpg,AFSA08.jpg,FS,4,num_4,16,num_4,0.483477575355,,,2017_Aug_24_1637,60.0094889906,FEMA4ImagesEEG,001,101458,
AFNE01.JPG,AFNE01.JPG,AFNE01.JPG,AFNE01.JPG,AFNE01.JPG,AFNE01.JPG,2,8,28,5,,,,,,,,,,,,,,,,,,,,,,,AFSA08.jpg,AFNE08.jpg,AFNE10.jpg,AFSA10.jpg,AFNE08.jpg,FN,3,num_6,16,num_6,0.333518613945,,,2017_Aug_24_1637,60.0094889906,FEMA4ImagesEEG,001,101458,
AFNE01.JPG,AFNE01.JPG,AFNE01.JPG,AFNE01.JPG,AFNE01.JPG,AFNE01.JPG,2,9,29,1,,,,,,,,,,,,,,,,,,,,,,,AFNE17.jpg,AFSA10.jpg,AFNE06.jpg,AFSA16.jpg,AFSA10.jpg,FS,4,num_6,32,num_4,0.633469572873,,,2017_Aug_24_1637,60.0094889906,FEMA4ImagesEEG,001,101458,
AFNE01.JPG,AFNE01.JPG,AFNE01.JPG,AFNE01.JPG,AFNE01.JPG,AFNE01.JPG,3,0,30,7,,,,,,,,,,,,,,,,,,,,,,,AFNE06.jpg,AFSA19.jpg,AFNE03.jpg,AFSA03.jpg,AFNE06.jpg,FN,3,num_8,16,num_8,1.48343074741,,,2017_Aug_24_1637,60.0094889906,FEMA4ImagesEEG,001,101458,
AFNE01.JPG,AFNE01.JPG,AFNE01.JPG,AFNE01.JPG,AFNE01.JPG,AFNE01.JPG,3,1,31,0,,,,,,,,,,,,,,,,,,,,,,,AFSA08.jpg,AFNE08.jpg,AFSA07.jpg,AFNE04.jpg,AFNE08.jpg,FN,3,num_6,16,num_6,1.25017889263,,,2017_Aug_24_1637,60.0094889906,FEMA4ImagesEEG,001,101458,
AFNE01.JPG,AFNE01.JPG,AFNE01.JPG,AFNE01.JPG,AFNE01.JPG,AFNE01.JPG,3,2,32,6,,,,,,,,,,,,,,,,,,,,,,,AFSA08.jpg,AFSA18.jpg,AFNE03.jpg,AFNE08.jpg,AFSA18.jpg,FS,4,num_6,16,num_6,0.283462051535,,,2017_Aug_24_1637,60.0094889906,FEMA4ImagesEEG,001,101458,
AFNE01.JPG,AFNE01.JPG,AFNE01.JPG,AFNE01.JPG,AFNE01.JPG,AFNE01.JPG,3,3,33,2,,,,,,,,,,,,,,,,,,,,,,,AFSA16.jpg,AFNE07.jpg,AFNE01.jpg,AFSA20.jpg,AFSA16.jpg,FS,4,num_8,32,num_2,0.900142825325,,,2017_Aug_24_1637,60.0094889906,FEMA4ImagesEEG,001,101458,
AFNE01.JPG,AFNE01.JPG,AFNE01.JPG,AFNE01.JPG,AFNE01.JPG,AFNE01.JPG,3,4,34,8,,,,,,,,,,,,,,,,,,,,,,,AFSA02.jpg,AFNE16.jpg,AFNE15.jpg,AFSA07.jpg,AFNE15.jpg,FN,3,num_2,16,num_2,1.08350650605,,,2017_Aug_24_1637,60.0094889906,FEMA4ImagesEEG,001,101458,
AFNE01.JPG,AFNE01.JPG,AFNE01.JPG,AFNE01.JPG,AFNE01.JPG,AFNE01.JPG,3,5,35,9,,,,,,,,,,,,,,,,,,,,,,,AFNE07.jpg,AFSA09.jpg,AFSA10.jpg,AFNE20.jpg,AFNE20.jpg,FN,3,num_4,32,num_6,0.750115867238,,,2017_Aug_24_1637,60.0094889906,FEMA4ImagesEEG,001,101458,
AFNE01.JPG,AFNE01.JPG,AFNE01.JPG,AFNE01.JPG,AFNE01.JPG,AFNE01.JPG,3,6,36,1,,,,,,,,,,,,,,,,,,,,,,,AFNE01.jpg,AFSA12.jpg,AFSA05.jpg,AFNE16.jpg,AFSA05.jpg,FS,4,num_2,16,num_2,1.90004339605,,,2017_Aug_24_1637,60.0094889906,FEMA4ImagesEEG,001,101458,
AFNE01.JPG,AFNE01.JPG,AFNE01.JPG,AFNE01.JPG,AFNE01.JPG,AFNE01.JPG,3,7,37,4,,,,,,,,,,,,,,,,,,,,,,,AFSA19.jpg,AFNE07.jpg,AFNE16.jpg,AFSA13.jpg,AFSA13.jpg,FS,4,num_4,32,num_8,1.30037754274,,,2017_Aug_24_1637,60.0094889906,FEMA4ImagesEEG,001,101458,
AFNE01.JPG,AFNE01.JPG,AFNE01.JPG,AFNE01.JPG,AFNE01.JPG,AFNE01.JPG,3,8,38,5,,,,,,,,,,,,,,,,,,,,,,,AFNE01.jpg,AFSA19.jpg,AFSA04.jpg,AFNE08.jpg,AFSA19.jpg,FS,4,num_6,32,num_8,0.916797234444,,,2017_Aug_24_1637,60.0094889906,FEMA4ImagesEEG,001,101458,
AFNE01.JPG,AFNE01.JPG,AFNE01.JPG,AFNE01.JPG,AFNE01.JPG,AFNE01.JPG,3,9,39,3,,,,,,,,,,,,,,,,,,,,,,,AFNE05.jpg,AFSA11.jpg,AFSA19.jpg,AFNE18.jpg,AFNE18.jpg,FN,3,num_4,16,num_4,0.783512247377,,,2017_Aug_24_1637,60.0094889906,FEMA4ImagesEEG,001,101458,
AFNE01.JPG,AFNE01.JPG,AFNE01.JPG,AFNE01.JPG,AFNE01.JPG,AFNE01.JPG,4,0,40,4,,,,,,,,,,,,,,,,,,,,,,,AFNE02.jpg,AFSA03.jpg,AFSA08.jpg,AFNE08.jpg,AFSA08.jpg,FS,4,num_2,16,num_2,0.43346302968,,,2017_Aug_24_1637,60.0094889906,FEMA4ImagesEEG,001,101458,
AFNE01.JPG,AFNE01.JPG,AFNE01.JPG,AFNE01.JPG,AFNE01.JPG,AFNE01.JPG,4,1,41,3,,,,,,,,,,,,,,,,,,,,,,,AFNE19.jpg,AFNE16.jpg,AFSA15.jpg,AFSA01.jpg,AFSA15.jpg,FS,4,num_2,32,num_8,0.749983081012,,,2017_Aug_24_1637,60.0094889906,FEMA4ImagesEEG,001,101458,
AFNE01.JPG,AFNE01.JPG,AFNE01.JPG,AFNE01.JPG,AFNE01.JPG,AFNE01.JPG,4,2,42,9,,,,,,,,,,,,,,,,,,,,,,,AFNE13.jpg,AFSA11.jpg,AFNE04.jpg,AFSA06.jpg,AFSA11.jpg,FS,4,num_6,16,num_6,0.266794492141,,,2017_Aug_24_1637,60.0094889906,FEMA4ImagesEEG,001,101458,
AFNE01.JPG,AFNE01.JPG,AFNE01.JPG,AFNE01.JPG,AFNE01.JPG,AFNE01.JPG,4,3,43,7,,,,,,,,,,,,,,,,,,,,,,,AFSA17.jpg,AFNE20.jpg,AFNE17.jpg,AFSA19.jpg,AFNE20.jpg,FN,3,num_6,32,num_2,1.21671611944,,,2017_Aug_24_1637,60.0094889906,FEMA4ImagesEEG,001,101458,
AFNE01.JPG,AFNE01.JPG,AFNE01.JPG,AFNE01.JPG,AFNE01.JPG,AFNE01.JPG,4,4,44,0,,,,,,,,,,,,,,,,,,,,,,,AFNE06.jpg,AFNE05.jpg,AFSA13.jpg,AFSA15.jpg,AFSA15.jpg,FS,4,num_4,32,num_6,0.533343618386,,,2017_Aug_24_1637,60.0094889906,FEMA4ImagesEEG,001,101458,
AFNE01.JPG,AFNE01.JPG,AFNE01.JPG,AFNE01.JPG,AFNE01.JPG,AFNE01.JPG,4,5,45,5,,,,,,,,,,,,,,,,,,,,,,,AFNE06.jpg,AFSA11.jpg,AFNE19.jpg,AFSA13.jpg,AFNE19.jpg,FN,3,num_2,32,num_4,0.250181458541,,,2017_Aug_24_1637,60.0094889906,FEMA4ImagesEEG,001,101458,
AFNE01.JPG,AFNE01.JPG,AFNE01.JPG,AFNE01.JPG,AFNE01.JPG,AFNE01.JPG,4,6,46,1,,,,,,,,,,,,,,,,,,,,,,,AFSA20.jpg,AFNE03.jpg,AFNE13.jpg,AFSA05.jpg,AFSA05.jpg,FS,4,num_4,16,num_4,0.549839582061,,,2017_Aug_24_1637,60.0094889906,FEMA4ImagesEEG,001,101458,
AFNE01.JPG,AFNE01.JPG,AFNE01.JPG,AFNE01.JPG,AFNE01.JPG,AFNE01.JPG,4,7,47,6,,,,,,,,,,,,,,,,,,,,,,,AFSA11.jpg,AFNE18.jpg,AFNE01.jpg,AFSA08.jpg,AFSA08.jpg,FS,4,num_4,16,num_4,0.450140211382,,,2017_Aug_24_1637,60.0094889906,FEMA4ImagesEEG,001,101458,
AFNE01.JPG,AFNE01.JPG,AFNE01.JPG,AFNE01.JPG,AFNE01.JPG,AFNE01.JPG,4,8,48,8,,,,,,,,,,,,,,,,,,,,,,,AFSA13.jpg,AFSA05.jpg,AFNE04.jpg,AFNE14.jpg,AFNE04.jpg,FN,3,num_2,32,num_6,0.700109981699,,,2017_Aug_24_1637,60.0094889906,FEMA4ImagesEEG,001,101458,
AFNE01.JPG,AFNE01.JPG,AFNE01.JPG,AFNE01.JPG,AFNE01.JPG,AFNE01.JPG,4,9,49,2,,,,,,,,,,,,,,,,,,,,,,,AFSA17.jpg,AFNE10.jpg,AFSA09.jpg,AFNE11.jpg,AFNE11.jpg,FN,3,num_4,16,num_4,0.766798501369,,,2017_Aug_24_1637,60.0094889906,FEMA4ImagesEEG,001,101458,
AFNE01.JPG,AFNE01.JPG,AFNE01.JPG,AFNE01.JPG,AFNE01.JPG,AFNE01.JPG,5,0,50,1,,,,,,,,,,,,,,,,,,,,,,,AFSA12.jpg,AFNE15.jpg,AFNE09.jpg,AFSA14.jpg,AFNE09.jpg,FN,3,num_2,32,num_8,0.916777027887,,,2017_Aug_24_1637,60.0094889906,FEMA4ImagesEEG,001,101458,
AFNE01.JPG,AFNE01.JPG,AFNE01.JPG,AFNE01.JPG,AFNE01.JPG,AFNE01.JPG,5,1,51,4,,,,,,,,,,,,,,,,,,,,,,,AFSA03.jpg,AFNE03.jpg,AFSA17.jpg,AFNE08.jpg,AFSA03.jpg,FS,4,num_8,32,num_2,0.650137452991,,,2017_Aug_24_1637,60.0094889906,FEMA4ImagesEEG,001,101458,
AFNE01.JPG,AFNE01.JPG,AFNE01.JPG,AFNE01.JPG,AFNE01.JPG,AFNE01.JPG,5,2,52,5,,,,,,,,,,,,,,,,,,,,,,,AFSA16.jpg,AFNE07.jpg,AFNE10.jpg,AFSA18.jpg,AFNE10.jpg,FN,3,num_2,32,num_6,0.916781518259,,,2017_Aug_24_1637,60.0094889906,FEMA4ImagesEEG,001,101458,
AFNE01.JPG,AFNE01.JPG,AFNE01.JPG,AFNE01.JPG,AFNE01.JPG,AFNE01.JPG,5,3,53,8,,,,,,,,,,,,,,,,,,,,,,,AFNE18.jpg,AFNE10.jpg,AFSA07.jpg,AFSA18.jpg,AFSA07.jpg,FS,4,num_2,32,num_8,0.46684241062,,,2017_Aug_24_1637,60.0094889906,FEMA4ImagesEEG,001,101458,
AFNE01.JPG,AFNE01.JPG,AFNE01.JPG,AFNE01.JPG,AFNE01.JPG,AFNE01.JPG,5,4,54,2,,,,,,,,,,,,,,,,,,,,,,,AFSA05.jpg,AFNE01.jpg,AFSA16.jpg,AFNE07.jpg,AFSA16.jpg,FS,4,num_2,16,num_2,0.566798052401,,,2017_Aug_24_1637,60.0094889906,FEMA4ImagesEEG,001,101458,
AFNE01.JPG,AFNE01.JPG,AFNE01.JPG,AFNE01.JPG,AFNE01.JPG,AFNE01.JPG,5,5,55,7,,,,,,,,,,,,,,,,,,,,,,,AFSA11.jpg,AFNE05.jpg,AFSA03.jpg,AFNE17.jpg,AFNE05.jpg,FN,3,num_6,16,num_6,0.266823037993,,,2017_Aug_24_1637,60.0094889906,FEMA4ImagesEEG,001,101458,
AFNE01.JPG,AFNE01.JPG,AFNE01.JPG,AFNE01.JPG,AFNE01.JPG,AFNE01.JPG,5,6,56,0,,,,,,,,,,,,,,,,,,,,,,,AFNE01.jpg,AFSA20.jpg,AFSA18.jpg,AFNE06.jpg,AFSA20.jpg,FS,4,num_6,32,num_2,0.316787868855,,,2017_Aug_24_1637,60.0094889906,FEMA4ImagesEEG,001,101458,
AFNE01.JPG,AFNE01.JPG,AFNE01.JPG,AFNE01.JPG,AFNE01.JPG,AFNE01.JPG,5,7,57,6,,,,,,,,,,,,,,,,,,,,,,,AFNE02.jpg,AFSA01.jpg,AFNE08.jpg,AFSA16.jpg,AFNE08.jpg,FN,3,num_2,32,num_8,1.26671815605,,,2017_Aug_24_1637,60.0094889906,FEMA4ImagesEEG,001,101458,
AFNE01.JPG,AFNE01.JPG,AFNE01.JPG,AFNE01.JPG,AFNE01.JPG,AFNE01.JPG,5,8,58,3,,,,,,,,,,,,,,,,,,,,,,,AFSA16.jpg,AFSA05.jpg,AFNE12.jpg,AFNE06.jpg,AFNE06.jpg,FN,3,num_4,32,num_8,0.599895502906,,,2017_Aug_24_1637,60.0094889906,FEMA4ImagesEEG,001,101458,
AFNE01.JPG,AFNE01.JPG,AFNE01.JPG,AFNE01.JPG,AFNE01.JPG,AFNE01.JPG,5,9,59,9,,,,,,,,,,,,,,,,,,,,,,,AFSA08.jpg,AFSA05.jpg,AFNE01.jpg,AFNE20.jpg,AFNE20.jpg,FN,3,num_4,32,num_2,0.283573348192,,,2017_Aug_24_1637,60.0094889906,FEMA4ImagesEEG,001,101458,
,,,,,,,,,,,,,,,,,,,,,,,,,,,,,,,,,,,,,,,,,,,space,12.4328077586,2017_Aug_24_1637,60.0094889906,FEMA4ImagesEEG,001,101458,
AFNE01.JPG,AFNE01.JPG,AFNE01.JPG,AFNE01.JPG,AFNE01.JPG,AFNE01.JPG,,,,,0,0,0,1,,,,,,,,,,,,,,,,,,,AMSA11.jpg,AMNE13.jpg,AMNE04.jpg,AMSA10.jpg,AMSA11.jpg,MS,2,num_8,32,num_4,1.31671698531,,,2017_Aug_24_1637,60.0094889906,FEMA4ImagesEEG,001,101458,
AFNE01.JPG,AFNE01.JPG,AFNE01.JPG,AFNE01.JPG,AFNE01.JPG,AFNE01.JPG,,,,,0,1,1,5,,,,,,,,,,,,,,,,,,,AMSA08.jpg,AMNE01.jpg,AMSA05.jpg,AMNE07.jpg,AMSA05.jpg,MS,2,num_2,32,num_4,0.616755506257,,,2017_Aug_24_1637,60.0094889906,FEMA4ImagesEEG,001,101458,
AFNE01.JPG,AFNE01.JPG,AFNE01.JPG,AFNE01.JPG,AFNE01.JPG,AFNE01.JPG,,,,,0,2,2,0,,,,,,,,,,,,,,,,,,,AMNE08.jpg,AMNE18.jpg,AMSA18.jpg,AMSA20.jpg,AMNE18.jpg,MN,1,num_6,16,num_6,0.50014160655,,,2017_Aug_24_1637,60.0094889906,FEMA4ImagesEEG,001,101458,
AFNE01.JPG,AFNE01.JPG,AFNE01.JPG,AFNE01.JPG,AFNE01.JPG,AFNE01.JPG,,,,,0,3,3,3,,,,,,,,,,,,,,,,,,,AMNE08.jpg,AMSA10.jpg,AMSA03.jpg,AMNE10.jpg,AMNE10.jpg,MN,1,num_4,32,num_2,0.300100744353,,,2017_Aug_24_1637,60.0094889906,FEMA4ImagesEEG,001,101458,
AFNE01.JPG,AFNE01.JPG,AFNE01.JPG,AFNE01.JPG,AFNE01.JPG,AFNE01.JPG,,,,,0,4,4,6,,,,,,,,,,,,,,,,,,,AMSA17.jpg,AMNE17.jpg,AMNE08.jpg,AMSA01.jpg,AMNE17.jpg,MN,1,num_6,32,num_4,0.366893825238,,,2017_Aug_24_1637,60.0094889906,FEMA4ImagesEEG,001,101458,
AFNE01.JPG,AFNE01.JPG,AFNE01.JPG,AFNE01.JPG,AFNE01.JPG,AFNE01.JPG,,,,,0,5,5,9,,,,,,,,,,,,,,,,,,,AMNE17.jpg,AMSA05.jpg,AMNE16.jpg,AMSA08.jpg,AMNE16.jpg,MN,1,num_2,32,num_8,0.333427523845,,,2017_Aug_24_1637,60.0094889906,FEMA4ImagesEEG,001,101458,
AFNE01.JPG,AFNE01.JPG,AFNE01.JPG,AFNE01.JPG,AFNE01.JPG,AFNE01.JPG,,,,,0,6,6,7,,,,,,,,,,,,,,,,,,,AMNE03.jpg,AMSA20.jpg,AMSA06.jpg,AMNE02.jpg,AMNE03.jpg,MN,1,num_8,16,num_8,0.433496386744,,,2017_Aug_24_1637,60.0094889906,FEMA4ImagesEEG,001,101458,
AFNE01.JPG,AFNE01.JPG,AFNE01.JPG,AFNE01.JPG,AFNE01.JPG,AFNE01.JPG,,,,,0,7,7,8,,,,,,,,,,,,,,,,,,,AMSA08.jpg,AMSA12.jpg,AMNE17.jpg,AMNE15.jpg,AMNE15.jpg,MN,1,num_4,16,num_4,0.316825074726,,,2017_Aug_24_1637,60.0094889906,FEMA4ImagesEEG,001,101458,
AFNE01.JPG,AFNE01.JPG,AFNE01.JPG,AFNE01.JPG,AFNE01.JPG,AFNE01.JPG,,,,,0,8,8,4,,,,,,,,,,,,,,,,,,,AMSA03.jpg,AMNE05.jpg,AMSA04.jpg,AMNE17.jpg,AMNE05.jpg,MN,1,num_6,16,num_6,0.300142761203,,,2017_Aug_24_1637,60.0094889906,FEMA4ImagesEEG,001,101458,
AFNE01.JPG,AFNE01.JPG,AFNE01.JPG,AFNE01.JPG,AFNE01.JPG,AFNE01.JPG,,,,,0,9,9,2,,,,,,,,,,,,,,,,,,,AMSA15.jpg,AMNE05.jpg,AMSA12.jpg,AMNE20.jpg,AMSA12.jpg,MS,2,num_2,32,num_8,0.783428855008,,,2017_Aug_24_1637,60.0094889906,FEMA4ImagesEEG,001,101458,
AFNE01.JPG,AFNE01.JPG,AFNE01.JPG,AFNE01.JPG,AFNE01.JPG,AFNE01.JPG,,,,,1,0,10,9,,,,,,,,,,,,,,,,,,,AMSA06.jpg,AMSA13.jpg,AMNE18.jpg,AMNE19.jpg,AMNE19.jpg,MN,1,num_4,16,num_4,0.733539077104,,,2017_Aug_24_1637,60.0094889906,FEMA4ImagesEEG,001,101458,
AFNE01.JPG,AFNE01.JPG,AFNE01.JPG,AFNE01.JPG,AFNE01.JPG,AFNE01.JPG,,,,,1,1,11,4,,,,,,,,,,,,,,,,,,,AMNE05.jpg,AMSA16.jpg,AMSA05.jpg,AMNE19.jpg,AMNE05.jpg,MN,1,num_8,32,num_6,0.633469252149,,,2017_Aug_24_1637,60.0094889906,FEMA4ImagesEEG,001,101458,
AFNE01.JPG,AFNE01.JPG,AFNE01.JPG,AFNE01.JPG,AFNE01.JPG,AFNE01.JPG,,,,,1,2,12,8,,,,,,,,,,,,,,,,,,,AMNE16.jpg,AMSA14.jpg,AMNE14.jpg,AMSA12.jpg,AMNE14.jpg,MN,1,num_2,32,num_8,0.966737689101,,,2017_Aug_24_1637,60.0094889906,FEMA4ImagesEEG,001,101458,
AFNE01.JPG,AFNE01.JPG,AFNE01.JPG,AFNE01.JPG,AFNE01.JPG,AFNE01.JPG,,,,,1,3,13,5,,,,,,,,,,,,,,,,,,,AMSA05.jpg,AMNE03.jpg,AMNE05.jpg,AMSA15.jpg,AMNE05.jpg,MN,1,num_2,16,num_2,1.1334309238,,,2017_Aug_24_1637,60.0094889906,FEMA4ImagesEEG,001,101458,
AFNE01.JPG,AFNE01.JPG,AFNE01.JPG,AFNE01.JPG,AFNE01.JPG,AFNE01.JPG,,,,,1,4,14,7,,,,,,,,,,,,,,,,,,,AMSA12.jpg,AMNE16.jpg,AMSA09.jpg,AMNE09.jpg,AMSA09.jpg,MS,2,num_2,32,num_8,1.20009282208,,,2017_Aug_24_1637,60.0094889906,FEMA4ImagesEEG,001,101458,
AFNE01.JPG,AFNE01.JPG,AFNE01.JPG,AFNE01.JPG,AFNE01.JPG,AFNE01.JPG,,,,,1,5,15,6,,,,,,,,,,,,,,,,,,,AMNE13.jpg,AMNE11.jpg,AMSA16.jpg,AMSA17.jpg,AMSA17.jpg,MS,2,num_4,16,num_4,0.683428309741,,,2017_Aug_24_1637,60.0094889906,FEMA4ImagesEEG,001,101458,
AFNE01.JPG,AFNE01.JPG,AFNE01.JPG,AFNE01.JPG,AFNE01.JPG,AFNE01.JPG,,,,,1,6,16,1,,,,,,,,,,,,,,,,,,,AMNE13.jpg,AMNE20.jpg,AMSA06.jpg,AMSA02.jpg,AMSA06.jpg,MS,2,num_2,16,num_2,1.46678275301,,,2017_Aug_24_1637,60.0094889906,FEMA4ImagesEEG,001,101458,
AFNE01.JPG,AFNE01.JPG,AFNE01.JPG,AFNE01.JPG,AFNE01.JPG,AFNE01.JPG,,,,,1,7,17,0,,,,,,,,,,,,,,,,,,,AMNE10.jpg,AMSA18.jpg,AMNE01.jpg,AMSA13.jpg,AMNE01.jpg,MN,1,num_2,32,num_6,0.450214943732,,,2017_Aug_24_1637,60.0094889906,FEMA4ImagesEEG,001,101458,
AFNE01.JPG,AFNE01.JPG,AFNE01.JPG,AFNE01.JPG,AFNE01.JPG,AFNE01.JPG,,,,,1,8,18,3,,,,,,,,,,,,,,,,,,,AMSA06.jpg,AMSA17.jpg,AMNE18.jpg,AMNE02.jpg,AMNE02.jpg,MN,1,num_4,16,num_4,0.550165453576,,,2017_Aug_24_1637,60.0094889906,FEMA4ImagesEEG,001,101458,
AFNE01.JPG,AFNE01.JPG,AFNE01.JPG,AFNE01.JPG,AFNE01.JPG,AFNE01.JPG,,,,,1,9,19,2,,,,,,,,,,,,,,,,,,,AMNE12.jpg,AMSA13.jpg,AMSA19.jpg,AMNE18.jpg,AMSA19.jpg,MS,2,num_2,32,num_6,0.650189412874,,,2017_Aug_24_1637,60.0094889906,FEMA4ImagesEEG,001,101458,
AFNE01.JPG,AFNE01.JPG,AFNE01.JPG,AFNE01.JPG,AFNE01.JPG,AFNE01.JPG,,,,,2,0,20,4,,,,,,,,,,,,,,,,,,,AMSA02.jpg,AMNE16.jpg,AMNE11.jpg,AMSA16.jpg,AMSA16.jpg,MS,2,num_4,32,num_8,0.266849017935,,,2017_Aug_24_1637,60.0094889906,FEMA4ImagesEEG,001,101458,
AFNE01.JPG,AFNE01.JPG,AFNE01.JPG,AFNE01.JPG,AFNE01.JPG,AFNE01.JPG,,,,,2,1,21,6,,,,,,,,,,,,,,,,,,,AMNE10.jpg,AMSA18.jpg,AMSA20.jpg,AMNE12.jpg,AMSA18.jpg,MS,2,num_6,32,num_2,0.366677646642,,,2017_Aug_24_1637,60.0094889906,FEMA4ImagesEEG,001,101458,
AFNE01.JPG,AFNE01.JPG,AFNE01.JPG,AFNE01.JPG,AFNE01.JPG,AFNE01.JPG,,,,,2,2,22,2,,,,,,,,,,,,,,,,,,,AMNE16.jpg,AMSA02.jpg,AMNE04.jpg,AMSA06.jpg,AMNE16.jpg,MN,1,num_8,32,num_6,1.00011354184,,,2017_Aug_24_1637,60.0094889906,FEMA4ImagesEEG,001,101458,
AFNE01.JPG,AFNE01.JPG,AFNE01.JPG,AFNE01.JPG,AFNE01.JPG,AFNE01.JPG,,,,,2,3,23,3,,,,,,,,,,,,,,,,,,,AMSA19.jpg,AMSA02.jpg,AMNE12.jpg,AMNE05.jpg,AMSA19.jpg,MS,2,num_8,32,num_4,0.783462211839,,,2017_Aug_24_1637,60.0094889906,FEMA4ImagesEEG,001,101458,
AFNE01.JPG,AFNE01.JPG,AFNE01.JPG,AFNE01.JPG,AFNE01.JPG,AFNE01.JPG,,,,,2,4,24,0,,,,,,,,,,,,,,,,,,,AMNE04.jpg,AMSA20.jpg,AMSA17.jpg,AMNE01.jpg,AMNE04.jpg,MN,1,num_8,16,num_8,0.466766074533,,,2017_Aug_24_1637,60.0094889906,FEMA4ImagesEEG,001,101458,
AFNE01.JPG,AFNE01.JPG,AFNE01.JPG,AFNE01.JPG,AFNE01.JPG,AFNE01.JPG,,,,,2,5,25,1,,,,,,,,,,,,,,,,,,,AMNE06.jpg,AMSA03.jpg,AMSA18.jpg,AMNE20.jpg,AMSA18.jpg,MS,2,num_2,16,num_2,0.283471353003,,,2017_Aug_24_1637,60.0094889906,FEMA4ImagesEEG,001,101458,
AFNE01.JPG,AFNE01.JPG,AFNE01.JPG,AFNE01.JPG,AFNE01.JPG,AFNE01.JPG,,,,,2,6,26,7,,,,,,,,,,,,,,,,,,,AMSA04.jpg,AMNE14.jpg,AMNE02.jpg,AMSA06.jpg,AMNE14.jpg,MN,1,num_6,32,num_4,0.633318183711,,,2017_Aug_24_1637,60.0094889906,FEMA4ImagesEEG,001,101458,
AFNE01.JPG,AFNE01.JPG,AFNE01.JPG,AFNE01.JPG,AFNE01.JPG,AFNE01.JPG,,,,,2,7,27,9,,,,,,,,,,,,,,,,,,,AMNE15.jpg,AMSA06.jpg,AMSA04.jpg,AMNE17.jpg,AMNE15.jpg,MN,1,num_8,32,num_6,0.283337604487,,,2017_Aug_24_1637,60.0094889906,FEMA4ImagesEEG,001,101458,
AFNE01.JPG,AFNE01.JPG,AFNE01.JPG,AFNE01.JPG,AFNE01.JPG,AFNE01.JPG,,,,,2,8,28,5,,,,,,,,,,,,,,,,,,,AMSA10.jpg,AMNE07.jpg,AMNE15.jpg,AMSA13.jpg,AMSA13.jpg,MS,2,num_4,32,num_8,0.283489955938,,,2017_Aug_24_1637,60.0094889906,FEMA4ImagesEEG,001,101458,
AFNE01.JPG,AFNE01.JPG,AFNE01.JPG,AFNE01.JPG,AFNE01.JPG,AFNE01.JPG,,,,,2,9,29,8,,,,,,,,,,,,,,,,,,,AMNE05.jpg,AMNE01.jpg,AMSA02.jpg,AMSA08.jpg,AMSA08.jpg,MS,2,num_4,16,num_4,0.316792679951,,,2017_Aug_24_1637,60.0094889906,FEMA4ImagesEEG,001,101458,
AFNE01.JPG,AFNE01.JPG,AFNE01.JPG,AFNE01.JPG,AFNE01.JPG,AFNE01.JPG,,,,,3,0,30,6,,,,,,,,,,,,,,,,,,,AMSA18.jpg,AMSA10.jpg,AMNE04.jpg,AMNE16.jpg,AMNE16.jpg,MN,1,num_4,16,num_4,0.583466253243,,,2017_Aug_24_1637,60.0094889906,FEMA4ImagesEEG,001,101458,
AFNE01.JPG,AFNE01.JPG,AFNE01.JPG,AFNE01.JPG,AFNE01.JPG,AFNE01.JPG,,,,,3,1,31,7,,,,,,,,,,,,,,,,,,,AMNE02.jpg,AMNE08.jpg,AMSA18.jpg,AMSA17.jpg,AMSA17.jpg,MS,2,num_4,16,num_4,0.50013936148,,,2017_Aug_24_1637,60.0094889906,FEMA4ImagesEEG,001,101458,
AFNE01.JPG,AFNE01.JPG,AFNE01.JPG,AFNE01.JPG,AFNE01.JPG,AFNE01.JPG,,,,,3,2,32,4,,,,,,,,,,,,,,,,,,,AMNE08.jpg,AMNE12.jpg,AMSA02.jpg,AMSA05.jpg,AMNE08.jpg,MN,1,num_8,16,num_8,1.2668608852,,,2017_Aug_24_1637,60.0094889906,FEMA4ImagesEEG,001,101458,
AFNE01.JPG,AFNE01.JPG,AFNE01.JPG,AFNE01.JPG,AFNE01.JPG,AFNE01.JPG,,,,,3,3,33,2,,,,,,,,,,,,,,,,,,,AMSA09.jpg,AMSA04.jpg,AMNE13.jpg,AMNE05.jpg,AMSA04.jpg,MS,2,num_6,32,num_2,0.900121015147,,,2017_Aug_24_1637,60.0094889906,FEMA4ImagesEEG,001,101458,
AFNE01.JPG,AFNE01.JPG,AFNE01.JPG,AFNE01.JPG,AFNE01.JPG,AFNE01.JPG,,,,,3,4,34,3,,,,,,,,,,,,,,,,,,,AMNE06.jpg,AMNE19.jpg,AMSA17.jpg,AMSA10.jpg,AMSA17.jpg,MS,2,num_2,32,num_6,0.533565890975,,,2017_Aug_24_1637,60.0094889906,FEMA4ImagesEEG,001,101458,
AFNE01.JPG,AFNE01.JPG,AFNE01.JPG,AFNE01.JPG,AFNE01.JPG,AFNE01.JPG,,,,,3,5,35,9,,,,,,,,,,,,,,,,,,,AMNE05.jpg,AMNE03.jpg,AMSA18.jpg,AMSA16.jpg,AMNE03.jpg,MN,1,num_6,32,num_2,0.216798228677,,,2017_Aug_24_1637,60.0094889906,FEMA4ImagesEEG,001,101458,
AFNE01.JPG,AFNE01.JPG,AFNE01.JPG,AFNE01.JPG,AFNE01.JPG,AFNE01.JPG,,,,,3,6,36,8,,,,,,,,,,,,,,,,,,,AMNE18.jpg,AMSA16.jpg,AMSA08.jpg,AMNE04.jpg,AMSA16.jpg,MS,2,num_6,16,num_6,0.383530914318,,,2017_Aug_24_1637,60.0094889906,FEMA4ImagesEEG,001,101458,
AFNE01.JPG,AFNE01.JPG,AFNE01.JPG,AFNE01.JPG,AFNE01.JPG,AFNE01.JPG,,,,,3,7,37,1,,,,,,,,,,,,,,,,,,,AMSA10.jpg,AMNE05.jpg,AMNE12.jpg,AMSA15.jpg,AMSA15.jpg,MS,2,num_4,16,num_4,1.35007006559,,,2017_Aug_24_1637,60.0094889906,FEMA4ImagesEEG,001,101458,
AFNE01.JPG,AFNE01.JPG,AFNE01.JPG,AFNE01.JPG,AFNE01.JPG,AFNE01.JPG,,,,,3,8,38,0,,,,,,,,,,,,,,,,,,,AMNE18.jpg,AMNE11.jpg,AMSA10.jpg,AMSA15.jpg,AMNE11.jpg,MN,1,num_6,32,num_8,0.866636431543,,,2017_Aug_24_1637,60.0094889906,FEMA4ImagesEEG,001,101458,
AFNE01.JPG,AFNE01.JPG,AFNE01.JPG,AFNE01.JPG,AFNE01.JPG,AFNE01.JPG,,,,,3,9,39,5,,,,,,,,,,,,,,,,,,,AMSA02.jpg,AMSA05.jpg,AMNE14.jpg,AMNE17.jpg,AMSA05.jpg,MS,2,num_6,16,num_6,1.45007093158,,,2017_Aug_24_1637,60.0094889906,FEMA4ImagesEEG,001,101458,
AFNE01.JPG,AFNE01.JPG,AFNE01.JPG,AFNE01.JPG,AFNE01.JPG,AFNE01.JPG,,,,,4,0,40,3,,,,,,,,,,,,,,,,,,,AMNE19.jpg,AMSA02.jpg,AMNE13.jpg,AMSA05.jpg,AMNE19.jpg,MN,1,num_8,32,num_2,0.333496162202,,,2017_Aug_24_1637,60.0094889906,FEMA4ImagesEEG,001,101458,
AFNE01.JPG,AFNE01.JPG,AFNE01.JPG,AFNE01.JPG,AFNE01.JPG,AFNE01.JPG,,,,,4,1,41,1,,,,,,,,,,,,,,,,,,,AMSA09.jpg,AMSA06.jpg,AMNE11.jpg,AMNE18.jpg,AMSA09.jpg,MS,2,num_8,16,num_8,0.466870315024,,,2017_Aug_24_1637,60.0094889906,FEMA4ImagesEEG,001,101458,
AFNE01.JPG,AFNE01.JPG,AFNE01.JPG,AFNE01.JPG,AFNE01.JPG,AFNE01.JPG,,,,,4,2,42,5,,,,,,,,,,,,,,,,,,,AMNE12.jpg,AMSA07.jpg,AMNE11.jpg,AMSA13.jpg,AMSA13.jpg,MS,2,num_4,16,num_4,1.10015578324,,,2017_Aug_24_1637,60.0094889906,FEMA4ImagesEEG,001,101458,
AFNE01.JPG,AFNE01.JPG,AFNE01.JPG,AFNE01.JPG,AFNE01.JPG,AFNE01.JPG,,,,,4,3,43,9,,,,,,,,,,,,,,,,,,,AMSA07.jpg,AMSA13.jpg,AMNE01.jpg,AMNE04.jpg,AMNE01.jpg,MN,1,num_2,16,num_2,0.900112996693,,,2017_Aug_24_1637,60.0094889906,FEMA4ImagesEEG,001,101458,
AFNE01.JPG,AFNE01.JPG,AFNE01.JPG,AFNE01.JPG,AFNE01.JPG,AFNE01.JPG,,,,,4,4,44,7,,,,,,,,,,,,,,,,,,,AMNE07.jpg,AMSA16.jpg,AMSA08.jpg,AMNE01.jpg,AMNE07.jpg,MN,1,num_8,32,num_6,0.883448323817,,,2017_Aug_24_1637,60.0094889906,FEMA4ImagesEEG,001,101458,
AFNE01.JPG,AFNE01.JPG,AFNE01.JPG,AFNE01.JPG,AFNE01.JPG,AFNE01.JPG,,,,,4,5,45,8,,,,,,,,,,,,,,,,,,,AMSA10.jpg,AMSA04.jpg,AMNE07.jpg,AMNE01.jpg,AMNE01.jpg,MN,1,num_4,32,num_8,0.700134678627,,,2017_Aug_24_1637,60.0094889906,FEMA4ImagesEEG,001,101458,
AFNE01.JPG,AFNE01.JPG,AFNE01.JPG,AFNE01.JPG,AFNE01.JPG,AFNE01.JPG,,,,,4,6,46,4,,,,,,,,,,,,,,,,,,,AMSA01.jpg,AMNE08.jpg,AMNE17.jpg,AMSA08.jpg,AMNE08.jpg,MN,1,num_6,32,num_2,0.983388249297,,,2017_Aug_24_1637,60.0094889906,FEMA4ImagesEEG,001,101458,
AFNE01.JPG,AFNE01.JPG,AFNE01.JPG,AFNE01.JPG,AFNE01.JPG,AFNE01.JPG,,,,,4,7,47,6,,,,,,,,,,,,,,,,,,,AMSA14.jpg,AMNE15.jpg,AMSA15.jpg,AMNE13.jpg,AMSA15.jpg,MS,2,num_2,32,num_6,0.816757238237,,,2017_Aug_24_1637,60.0094889906,FEMA4ImagesEEG,001,101458,
AFNE01.JPG,AFNE01.JPG,AFNE01.JPG,AFNE01.JPG,AFNE01.JPG,AFNE01.JPG,,,,,4,8,48,0,,,,,,,,,,,,,,,,,,,AMNE14.jpg,AMSA02.jpg,AMNE09.jpg,AMSA05.jpg,AMSA02.jpg,MS,2,num_6,32,num_8,0.300120309461,,,2017_Aug_24_1637,60.0094889906,FEMA4ImagesEEG,001,101458,
AFNE01.JPG,AFNE01.JPG,AFNE01.JPG,AFNE01.JPG,AFNE01.JPG,AFNE01.JPG,,,,,4,9,49,2,,,,,,,,,,,,,,,,,,,AMNE10.jpg,AMSA03.jpg,AMSA13.jpg,AMNE15.jpg,AMSA13.jpg,MS,2,num_2,32,num_8,0.833458475303,,,2017_Aug_24_1637,60.0094889906,FEMA4ImagesEEG,001,101458,
AFNE01.JPG,AFNE01.JPG,AFNE01.JPG,AFNE01.JPG,AFNE01.JPG,AFNE01.JPG,,,,,5,0,50,1,,,,,,,,,,,,,,,,,,,AMNE12.jpg,AMSA16.jpg,AMSA19.jpg,AMNE04.jpg,AMNE04.jpg,MN,1,num_4,32,num_2,0.400171531597,,,2017_Aug_24_1637,60.0094889906,FEMA4ImagesEEG,001,101458,
AFNE01.JPG,AFNE01.JPG,AFNE01.JPG,AFNE01.JPG,AFNE01.JPG,AFNE01.JPG,,,,,5,1,51,0,,,,,,,,,,,,,,,,,,,AMSA02.jpg,AMNE13.jpg,AMNE02.jpg,AMSA19.jpg,AMNE13.jpg,MN,1,num_6,16,num_6,1.43341940921,,,2017_Aug_24_1637,60.0094889906,FEMA4ImagesEEG,001,101458,
AFNE01.JPG,AFNE01.JPG,AFNE01.JPG,AFNE01.JPG,AFNE01.JPG,AFNE01.JPG,,,,,5,2,52,5,,,,,,,,,,,,,,,,,,,AMNE09.jpg,AMNE01.jpg,AMSA12.jpg,AMSA13.jpg,AMSA12.jpg,MS,2,num_2,32,num_4,0.700126980781,,,2017_Aug_24_1637,60.0094889906,FEMA4ImagesEEG,001,101458,
AFNE01.JPG,AFNE01.JPG,AFNE01.JPG,AFNE01.JPG,AFNE01.JPG,AFNE01.JPG,,,,,5,3,53,4,,,,,,,,,,,,,,,,,,,AMSA10.jpg,AMSA16.jpg,AMNE05.jpg,AMNE16.jpg,AMNE16.jpg,MN,1,num_4,32,num_8,0.250157723785,,,2017_Aug_24_1637,60.0094889906,FEMA4ImagesEEG,001,101458,
AFNE01.JPG,AFNE01.JPG,AFNE01.JPG,AFNE01.JPG,AFNE01.JPG,AFNE01.JPG,,,,,5,4,54,7,,,,,,,,,,,,,,,,,,,AMNE14.jpg,AMNE09.jpg,AMSA19.jpg,AMSA09.jpg,AMSA09.jpg,MS,2,num_4,32,num_2,1.03345122654,,,2017_Aug_24_1637,60.0094889906,FEMA4ImagesEEG,001,101458,
AFNE01.JPG,AFNE01.JPG,AFNE01.JPG,AFNE01.JPG,AFNE01.JPG,AFNE01.JPG,,,,,5,5,55,6,,,,,,,,,,,,,,,,,,,AMNE05.jpg,AMNE02.jpg,AMSA12.jpg,AMSA03.jpg,AMNE05.jpg,MN,1,num_8,16,num_8,0.450155286118,,,2017_Aug_24_1637,60.0094889906,FEMA4ImagesEEG,001,101458,
AFNE01.JPG,AFNE01.JPG,AFNE01.JPG,AFNE01.JPG,AFNE01.JPG,AFNE01.JPG,,,,,5,6,56,3,,,,,,,,,,,,,,,,,,,AMNE19.jpg,AMSA19.jpg,AMNE07.jpg,AMSA10.jpg,AMNE07.jpg,MN,1,num_2,32,num_4,0.316808075411,,,2017_Aug_24_1637,60.0094889906,FEMA4ImagesEEG,001,101458,
AFNE01.JPG,AFNE01.JPG,AFNE01.JPG,AFNE01.JPG,AFNE01.JPG,AFNE01.JPG,,,,,5,7,57,9,,,,,,,,,,,,,,,,,,,AMNE19.jpg,AMSA13.jpg,AMSA02.jpg,AMNE05.jpg,AMNE19.jpg,MN,1,num_8,32,num_2,0.483335808385,,,2017_Aug_24_1637,60.0094889906,FEMA4ImagesEEG,001,101458,
AFNE01.JPG,AFNE01.JPG,AFNE01.JPG,AFNE01.JPG,AFNE01.JPG,AFNE01.JPG,,,,,5,8,58,2,,,,,,,,,,,,,,,,,,,AMNE04.jpg,AMSA09.jpg,AMNE08.jpg,AMSA01.jpg,AMNE08.jpg,MN,1,num_2,32,num_4,0.266823037993,,,2017_Aug_24_1637,60.0094889906,FEMA4ImagesEEG,001,101458,
AFNE01.JPG,AFNE01.JPG,AFNE01.JPG,AFNE01.JPG,AFNE01.JPG,AFNE01.JPG,,,,,5,9,59,8,,,,,,,,,,,,,,,,,,,AMSA08.jpg,AMNE03.jpg,AMSA04.jpg,AMNE17.jpg,AMSA08.jpg,MS,2,num_8,32,num_6,0.300196645549,,,2017_Aug_24_1637,60.0094889906,FEMA4ImagesEEG,001,101458,
,,,,,,,,,,,,,,,,,,,,,,,,,,,,,,,,,,,,,,,,,,,space,12.3825683744,2017_Aug_24_1637,60.0094889906,FEMA4ImagesEEG,001,101458,
AFNE01.JPG,AFNE01.JPG,AFNE01.JPG,AFNE01.JPG,AFNE01.JPG,AFNE01.JPG,,,,,,,,,0,0,0,1,,,,,,,,,,,,,,,AFNE19.jpg,AFSA11.jpg,AFSA07.jpg,AFNE03.jpg,AFNE19.jpg,FN,3,num_8,32,num_6,0.566780090914,,,2017_Aug_24_1637,60.0094889906,FEMA4ImagesEEG,001,101458,
AFNE01.JPG,AFNE01.JPG,AFNE01.JPG,AFNE01.JPG,AFNE01.JPG,AFNE01.JPG,,,,,,,,,0,1,1,4,,,,,,,,,,,,,,,AFNE10.jpg,AFNE07.jpg,AFSA14.jpg,AFSA18.jpg,AFNE07.jpg,FN,3,num_6,32,num_2,0.683438573382,,,2017_Aug_24_1637,60.0094889906,FEMA4ImagesEEG,001,101458,
AFNE01.JPG,AFNE01.JPG,AFNE01.JPG,AFNE01.JPG,AFNE01.JPG,AFNE01.JPG,,,,,,,,,0,2,2,5,,,,,,,,,,,,,,,AFSA15.jpg,AFNE02.jpg,AFNE14.jpg,AFSA04.jpg,AFNE02.jpg,FN,3,num_6,32,num_2,0.516796336276,,,2017_Aug_24_1637,60.0094889906,FEMA4ImagesEEG,001,101458,
AFNE01.JPG,AFNE01.JPG,AFNE01.JPG,AFNE01.JPG,AFNE01.JPG,AFNE01.JPG,,,,,,,,,0,3,3,0,,,,,,,,,,,,,,,AFSA12.jpg,AFNE05.jpg,AFSA03.jpg,AFNE13.jpg,AFNE13.jpg,FN,3,num_4,32,num_8,0.266777813667,,,2017_Aug_24_1637,60.0094889906,FEMA4ImagesEEG,001,101458,
AFNE01.JPG,AFNE01.JPG,AFNE01.JPG,AFNE01.JPG,AFNE01.JPG,AFNE01.JPG,,,,,,,,,0,4,4,2,,,,,,,,,,,,,,,AFNE13.jpg,AFSA18.jpg,AFSA09.jpg,AFNE14.jpg,AFNE13.jpg,FN,3,num_8,32,num_6,0.350198682281,,,2017_Aug_24_1637,60.0094889906,FEMA4ImagesEEG,001,101458,
AFNE01.JPG,AFNE01.JPG,AFNE01.JPG,AFNE01.JPG,AFNE01.JPG,AFNE01.JPG,,,,,,,,,0,5,5,6,,,,,,,,,,,,,,,AFNE10.jpg,AFNE11.jpg,AFSA17.jpg,AFSA10.jpg,AFNE10.jpg,FN,3,num_8,32,num_4,0.333514765138,,,2017_Aug_24_1637,60.0094889906,FEMA4ImagesEEG,001,101458,
AFNE01.JPG,AFNE01.JPG,AFNE01.JPG,AFNE01.JPG,AFNE01.JPG,AFNE01.JPG,,,,,,,,,0,6,6,7,,,,,,,,,,,,,,,AFSA14.jpg,AFNE06.jpg,AFSA16.jpg,AFNE18.jpg,AFNE18.jpg,FN,3,num_4,32,num_8,0.700208448805,,,2017_Aug_24_1637,60.0094889906,FEMA4ImagesEEG,001,101458,
AFNE01.JPG,AFNE01.JPG,AFNE01.JPG,AFNE01.JPG,AFNE01.JPG,AFNE01.JPG,,,,,,,,,0,7,7,9,,,,,,,,,,,,,,,AFSA12.jpg,AFSA10.jpg,AFNE12.jpg,AFNE19.jpg,AFSA10.jpg,FS,4,num_6,16,num_6,0.500134550268,,,2017_Aug_24_1637,60.0094889906,FEMA4ImagesEEG,001,101458,
AFNE01.JPG,AFNE01.JPG,AFNE01.JPG,AFNE01.JPG,AFNE01.JPG,AFNE01.JPG,,,,,,,,,0,8,8,8,,,,,,,,,,,,,,,AFSA06.jpg,AFNE17.jpg,AFNE02.jpg,AFSA07.jpg,AFSA07.jpg,FS,4,num_4,32,num_2,0.749956780346,,,2017_Aug_24_1637,60.0094889906,FEMA4ImagesEEG,001,101458,
AFNE01.JPG,AFNE01.JPG,AFNE01.JPG,AFNE01.JPG,AFNE01.JPG,AFNE01.JPG,,,,,,,,,0,9,9,3,,,,,,,,,,,,,,,AFSA04.jpg,AFNE15.jpg,AFSA11.jpg,AFNE19.jpg,AFSA11.jpg,FS,4,num_2,16,num_2,0.666638869327,,,2017_Aug_24_1637,60.0094889906,FEMA4ImagesEEG,001,101458,
AFNE01.JPG,AFNE01.JPG,AFNE01.JPG,AFNE01.JPG,AFNE01.JPG,AFNE01.JPG,,,,,,,,,1,0,10,1,,,,,,,,,,,,,,,AFSA12.jpg,AFSA01.jpg,AFNE04.jpg,AFNE15.jpg,AFNE04.jpg,FN,3,num_2,32,num_8,0.71673584485,,,2017_Aug_24_1637,60.0094889906,FEMA4ImagesEEG,001,101458,
AFNE01.JPG,AFNE01.JPG,AFNE01.JPG,AFNE01.JPG,AFNE01.JPG,AFNE01.JPG,,,,,,,,,1,1,11,9,,,,,,,,,,,,,,,AFSA03.jpg,AFNE07.jpg,AFNE15.jpg,AFSA18.jpg,AFSA03.jpg,FS,4,num_8,16,num_8,0.533492762363,,,2017_Aug_24_1637,60.0094889906,FEMA4ImagesEEG,001,101458,
AFNE01.JPG,AFNE01.JPG,AFNE01.JPG,AFNE01.JPG,AFNE01.JPG,AFNE01.JPG,,,,,,,,,1,2,12,6,,,,,,,,,,,,,,,AFSA05.jpg,AFSA01.jpg,AFNE10.jpg,AFNE12.jpg,AFSA05.jpg,FS,4,num_8,32,num_2,0.283497974393,,,2017_Aug_24_1637,60.0094889906,FEMA4ImagesEEG,001,101458,
AFNE01.JPG,AFNE01.JPG,AFNE01.JPG,AFNE01.JPG,AFNE01.JPG,AFNE01.JPG,,,,,,,,,1,3,13,5,,,,,,,,,,,,,,,AFNE06.jpg,AFNE19.jpg,AFSA07.jpg,AFSA05.jpg,AFSA05.jpg,FS,4,num_4,16,num_4,0.400133363553,,,2017_Aug_24_1637,60.0094889906,FEMA4ImagesEEG,001,101458,
AFNE01.JPG,AFNE01.JPG,AFNE01.JPG,AFNE01.JPG,AFNE01.JPG,AFNE01.JPG,,,,,,,,,1,4,14,0,,,,,,,,,,,,,,,AFNE20.jpg,AFSA07.jpg,AFNE12.jpg,AFSA12.jpg,AFSA12.jpg,FS,4,num_4,16,num_4,0.466787243378,,,2017_Aug_24_1637,60.0094889906,FEMA4ImagesEEG,001,101458,
AFNE01.JPG,AFNE01.JPG,AFNE01.JPG,AFNE01.JPG,AFNE01.JPG,AFNE01.JPG,,,,,,,,,1,5,15,2,,,,,,,,,,,,,,,AFNE03.jpg,AFNE16.jpg,AFSA06.jpg,AFSA03.jpg,AFSA06.jpg,FS,4,num_2,32,num_8,0.516743093613,,,2017_Aug_24_1637,60.0094889906,FEMA4ImagesEEG,001,101458,
AFNE01.JPG,AFNE01.JPG,AFNE01.JPG,AFNE01.JPG,AFNE01.JPG,AFNE01.JPG,,,,,,,,,1,6,16,3,,,,,,,,,,,,,,,AFSA18.jpg,AFSA06.jpg,AFNE15.jpg,AFNE05.jpg,AFSA18.jpg,FS,4,num_8,32,num_2,0.450169077842,,,2017_Aug_24_1637,60.0094889906,FEMA4ImagesEEG,001,101458,
AFNE01.JPG,AFNE01.JPG,AFNE01.JPG,AFNE01.JPG,AFNE01.JPG,AFNE01.JPG,,,,,,,,,1,7,17,8,,,,,,,,,,,,,,,AFSA07.jpg,AFNE20.jpg,AFNE04.jpg,AFSA13.jpg,AFNE20.jpg,FN,3,num_6,16,num_6,0.533495969838,,,2017_Aug_24_1637,60.0094889906,FEMA4ImagesEEG,001,101458,
AFNE01.JPG,AFNE01.JPG,AFNE01.JPG,AFNE01.JPG,AFNE01.JPG,AFNE01.JPG,,,,,,,,,1,8,18,4,,,,,,,,,,,,,,,AFNE09.jpg,AFSA01.jpg,AFNE05.jpg,AFSA02.jpg,AFSA01.jpg,FS,4,num_6,32,num_8,0.266827528365,,,2017_Aug_24_1637,60.0094889906,FEMA4ImagesEEG,001,101458,
AFNE01.JPG,AFNE01.JPG,AFNE01.JPG,AFNE01.JPG,AFNE01.JPG,AFNE01.JPG,,,,,,,,,1,9,19,7,,,,,,,,,,,,,,,AFSA20.jpg,AFNE05.jpg,AFSA05.jpg,AFNE03.jpg,AFSA05.jpg,FS,4,num_2,32,num_6,0.400132722105,,,2017_Aug_24_1637,60.0094889906,FEMA4ImagesEEG,001,101458,
AFNE01.JPG,AFNE01.JPG,AFNE01.JPG,AFNE01.JPG,AFNE01.JPG,AFNE01.JPG,,,,,,,,,2,0,20,8,,,,,,,,,,,,,,,AFNE20.jpg,AFNE01.jpg,AFSA14.jpg,AFSA04.jpg,AFSA04.jpg,FS,4,num_4,16,num_4,0.466672418639,,,2017_Aug_24_1637,60.0094889906,FEMA4ImagesEEG,001,101458,
AFNE01.JPG,AFNE01.JPG,AFNE01.JPG,AFNE01.JPG,AFNE01.JPG,AFNE01.JPG,,,,,,,,,2,1,21,9,,,,,,,,,,,,,,,AFSA20.jpg,AFNE07.jpg,AFNE12.jpg,AFSA03.jpg,AFSA20.jpg,FS,4,num_8,32,num_6,0.500189396786,,,2017_Aug_24_1637,60.0094889906,FEMA4ImagesEEG,001,101458,
AFNE01.JPG,AFNE01.JPG,AFNE01.JPG,AFNE01.JPG,AFNE01.JPG,AFNE01.JPG,,,,,,,,,2,2,22,2,,,,,,,,,,,,,,,AFNE04.jpg,AFSA16.jpg,AFSA03.jpg,AFNE13.jpg,AFNE13.jpg,FN,3,num_4,32,num_2,0.316839828738,,,2017_Aug_24_1637,60.0094889906,FEMA4ImagesEEG,001,101458,
AFNE01.JPG,AFNE01.JPG,AFNE01.JPG,AFNE01.JPG,AFNE01.JPG,AFNE01.JPG,,,,,,,,,2,3,23,0,,,,,,,,,,,,,,,AFNE05.jpg,AFSA19.jpg,AFNE15.jpg,AFSA11.jpg,AFSA19.jpg,FS,4,num_6,32,num_8,0.266782304039,,,2017_Aug_24_1637,60.0094889906,FEMA4ImagesEEG,001,101458,
AFNE01.JPG,AFNE01.JPG,AFNE01.JPG,AFNE01.JPG,AFNE01.JPG,AFNE01.JPG,,,,,,,,,2,4,24,7,,,,,,,,,,,,,,,AFSA13.jpg,AFNE20.jpg,AFNE08.jpg,AFSA18.jpg,AFNE08.jpg,FN,3,num_2,32,num_4,0.4334909342,,,2017_Aug_24_1637,60.0094889906,FEMA4ImagesEEG,001,101458,
AFNE01.JPG,AFNE01.JPG,AFNE01.JPG,AFNE01.JPG,AFNE01.JPG,AFNE01.JPG,,,,,,,,,2,5,25,4,,,,,,,,,,,,,,,AFNE14.jpg,AFSA02.jpg,AFNE08.jpg,AFSA12.jpg,AFNE08.jpg,FN,3,num_2,32,num_6,0.31676605856,,,2017_Aug_24_1637,60.0094889906,FEMA4ImagesEEG,001,101458,
AFNE01.JPG,AFNE01.JPG,AFNE01.JPG,AFNE01.JPG,AFNE01.JPG,AFNE01.JPG,,,,,,,,,2,6,26,3,,,,,,,,,,,,,,,AFNE02.jpg,AFSA01.jpg,AFNE13.jpg,AFSA09.jpg,AFNE02.jpg,FN,3,num_8,16,num_8,0.283456598991,,,2017_Aug_24_1637,60.0094889906,FEMA4ImagesEEG,001,101458,
AFNE01.JPG,AFNE01.JPG,AFNE01.JPG,AFNE01.JPG,AFNE01.JPG,AFNE01.JPG,,,,,,,,,2,7,27,1,,,,,,,,,,,,,,,AFNE10.jpg,AFSA18.jpg,AFNE18.jpg,AFSA02.jpg,AFNE10.jpg,FN,3,num_8,32,num_2,0.350196116371,,,2017_Aug_24_1637,60.0094889906,FEMA4ImagesEEG,001,101458,
AFNE01.JPG,AFNE01.JPG,AFNE01.JPG,AFNE01.JPG,AFNE01.JPG,AFNE01.JPG,,,,,,,,,2,8,28,5,,,,,,,,,,,,,,,AFNE05.jpg,AFSA14.jpg,AFSA15.jpg,AFNE06.jpg,AFSA15.jpg,FS,4,num_2,32,num_8,0.583443801501,,,2017_Aug_24_1637,60.0094889906,FEMA4ImagesEEG,001,101458,
AFNE01.JPG,AFNE01.JPG,AFNE01.JPG,AFNE01.JPG,AFNE01.JPG,AFNE01.JPG,,,,,,,,,2,9,29,6,,,,,,,,,,,,,,,AFSA06.jpg,AFNE12.jpg,AFNE10.jpg,AFSA04.jpg,AFNE12.jpg,FN,3,num_6,32,num_4,0.733145529521,,,2017_Aug_24_1637,60.0094889906,FEMA4ImagesEEG,001,101458,
AFNE01.JPG,AFNE01.JPG,AFNE01.JPG,AFNE01.JPG,AFNE01.JPG,AFNE01.JPG,,,,,,,,,3,0,30,6,,,,,,,,,,,,,,,AFSA11.jpg,AFSA15.jpg,AFNE02.jpg,AFNE13.jpg,AFSA15.jpg,FS,4,num_6,16,num_6,0.550001555588,,,2017_Aug_24_1637,60.0094889906,FEMA4ImagesEEG,001,101458,
AFNE01.JPG,AFNE01.JPG,AFNE01.JPG,AFNE01.JPG,AFNE01.JPG,AFNE01.JPG,,,,,,,,,3,1,31,4,,,,,,,,,,,,,,,AFSA20.jpg,AFNE04.jpg,AFNE02.jpg,AFSA16.jpg,AFSA20.jpg,FS,4,num_8,32,num_6,0.58345470659,,,2017_Aug_24_1637,60.0094889906,FEMA4ImagesEEG,001,101458,
AFNE01.JPG,AFNE01.JPG,AFNE01.JPG,AFNE01.JPG,AFNE01.JPG,AFNE01.JPG,,,,,,,,,3,2,32,7,,,,,,,,,,,,,,,AFSA06.jpg,AFNE09.jpg,AFNE15.jpg,AFSA10.jpg,AFNE09.jpg,FN,3,num_6,32,num_2,1.10011184192,,,2017_Aug_24_1637,60.0094889906,FEMA4ImagesEEG,001,101458,
AFNE01.JPG,AFNE01.JPG,AFNE01.JPG,AFNE01.JPG,AFNE01.JPG,AFNE01.JPG,,,,,,,,,3,3,33,2,,,,,,,,,,,,,,,AFNE08.jpg,AFSA02.jpg,AFNE12.jpg,AFSA19.jpg,AFSA02.jpg,FS,4,num_6,32,num_8,0.983388890862,,,2017_Aug_24_1637,60.0094889906,FEMA4ImagesEEG,001,101458,
AFNE01.JPG,AFNE01.JPG,AFNE01.JPG,AFNE01.JPG,AFNE01.JPG,AFNE01.JPG,,,,,,,,,3,4,34,3,,,,,,,,,,,,,,,AFSA04.jpg,AFNE09.jpg,AFSA12.jpg,AFNE17.jpg,AFSA12.jpg,FS,4,num_2,16,num_2,0.716934061958,,,2017_Aug_24_1637,60.0094889906,FEMA4ImagesEEG,001,101458,
AFNE01.JPG,AFNE01.JPG,AFNE01.JPG,AFNE01.JPG,AFNE01.JPG,AFNE01.JPG,,,,,,,,,3,5,35,8,,,,,,,,,,,,,,,AFNE20.jpg,AFSA15.jpg,AFNE10.jpg,AFSA12.jpg,AFNE10.jpg,FN,3,num_2,32,num_6,0.483468594612,,,2017_Aug_24_1637,60.0094889906,FEMA4ImagesEEG,001,101458,
AFNE01.JPG,AFNE01.JPG,AFNE01.JPG,AFNE01.JPG,AFNE01.JPG,AFNE01.JPG,,,,,,,,,3,6,36,0,,,,,,,,,,,,,,,AFSA06.jpg,AFSA11.jpg,AFNE06.jpg,AFNE13.jpg,AFSA11.jpg,FS,4,num_6,32,num_4,0.583494478255,,,2017_Aug_24_1637,60.0094889906,FEMA4ImagesEEG,001,101458,
AFNE01.JPG,AFNE01.JPG,AFNE01.JPG,AFNE01.JPG,AFNE01.JPG,AFNE01.JPG,,,,,,,,,3,7,37,1,,,,,,,,,,,,,,,AFNE13.jpg,AFNE12.jpg,AFSA17.jpg,AFSA01.jpg,AFSA17.jpg,FS,4,num_2,32,num_4,0.633466686239,,,2017_Aug_24_1637,60.0094889906,FEMA4ImagesEEG,001,101458,
AFNE01.JPG,AFNE01.JPG,AFNE01.JPG,AFNE01.JPG,AFNE01.JPG,AFNE01.JPG,,,,,,,,,3,8,38,9,,,,,,,,,,,,,,,AFNE02.jpg,AFSA05.jpg,AFSA20.jpg,AFNE01.jpg,AFSA05.jpg,FS,4,num_6,32,num_8,0.350148005411,,,2017_Aug_24_1637,60.0094889906,FEMA4ImagesEEG,001,101458,
AFNE01.JPG,AFNE01.JPG,AFNE01.JPG,AFNE01.JPG,AFNE01.JPG,AFNE01.JPG,,,,,,,,,3,9,39,5,,,,,,,,,,,,,,,AFNE07.jpg,AFSA18.jpg,AFNE14.jpg,AFSA14.jpg,AFSA14.jpg,FS,4,num_4,32,num_6,0.283531972789,,,2017_Aug_24_1637,60.0094889906,FEMA4ImagesEEG,001,101458,
AFNE01.JPG,AFNE01.JPG,AFNE01.JPG,AFNE01.JPG,AFNE01.JPG,AFNE01.JPG,,,,,,,,,4,0,40,5,,,,,,,,,,,,,,,AFSA11.jpg,AFNE12.jpg,AFNE02.jpg,AFSA03.jpg,AFNE02.jpg,FN,3,num_2,16,num_2,1.30009015987,,,2017_Aug_24_1637,60.0094889906,FEMA4ImagesEEG,001,101458,
AFNE01.JPG,AFNE01.JPG,AFNE01.JPG,AFNE01.JPG,AFNE01.JPG,AFNE01.JPG,,,,,,,,,4,1,41,6,,,,,,,,,,,,,,,AFSA11.jpg,AFSA19.jpg,AFNE17.jpg,AFNE08.jpg,AFNE08.jpg,FN,3,num_4,32,num_8,0.466812581872,,,2017_Aug_24_1637,60.0094889906,FEMA4ImagesEEG,001,101458,
AFNE01.JPG,AFNE01.JPG,AFNE01.JPG,AFNE01.JPG,AFNE01.JPG,AFNE01.JPG,,,,,,,,,4,2,42,8,,,,,,,,,,,,,,,AFNE20.jpg,AFNE01.jpg,AFSA07.jpg,AFSA20.jpg,AFNE20.jpg,FN,3,num_8,32,num_6,0.766782785067,,,2017_Aug_24_1637,60.0094889906,FEMA4ImagesEEG,001,101458,
AFNE01.JPG,AFNE01.JPG,AFNE01.JPG,AFNE01.JPG,AFNE01.JPG,AFNE01.JPG,,,,,,,,,4,3,43,4,,,,,,,,,,,,,,,AFNE10.jpg,AFNE09.jpg,AFSA19.jpg,AFSA18.jpg,AFNE09.jpg,FN,3,num_6,32,num_4,1.48344518058,,,2017_Aug_24_1637,60.0094889906,FEMA4ImagesEEG,001,101458,
AFNE01.JPG,AFNE01.JPG,AFNE01.JPG,AFNE01.JPG,AFNE01.JPG,AFNE01.JPG,,,,,,,,,4,4,44,9,,,,,,,,,,,,,,,AFNE12.jpg,AFNE09.jpg,AFSA04.jpg,AFSA19.jpg,AFSA19.jpg,FS,4,num_4,32,num_8,0.450137966196,,,2017_Aug_24_1637,60.0094889906,FEMA4ImagesEEG,001,101458,
AFNE01.JPG,AFNE01.JPG,AFNE01.JPG,AFNE01.JPG,AFNE01.JPG,AFNE01.JPG,,,,,,,,,4,5,45,2,,,,,,,,,,,,,,,AFSA02.jpg,AFNE13.jpg,AFNE18.jpg,AFSA09.jpg,AFNE13.jpg,FN,3,num_6,32,num_2,0.683531908668,,,2017_Aug_24_1637,60.0094889906,FEMA4ImagesEEG,001,101458,
AFNE01.JPG,AFNE01.JPG,AFNE01.JPG,AFNE01.JPG,AFNE01.JPG,AFNE01.JPG,,,,,,,,,4,6,46,1,,,,,,,,,,,,,,,AFSA08.jpg,AFNE12.jpg,AFNE05.jpg,AFSA15.jpg,AFNE12.jpg,FN,3,num_6,16,num_6,0.450174530502,,,2017_Aug_24_1637,60.0094889906,FEMA4ImagesEEG,001,101458,
AFNE01.JPG,AFNE01.JPG,AFNE01.JPG,AFNE01.JPG,AFNE01.JPG,AFNE01.JPG,,,,,,,,,4,7,47,7,,,,,,,,,,,,,,,AFNE08.jpg,AFSA07.jpg,AFSA15.jpg,AFNE10.jpg,AFNE10.jpg,FN,3,num_4,32,num_2,0.466827015043,,,2017_Aug_24_1637,60.0094889906,FEMA4ImagesEEG,001,101458,
AFNE01.JPG,AFNE01.JPG,AFNE01.JPG,AFNE01.JPG,AFNE01.JPG,AFNE01.JPG,,,,,,,,,4,8,48,3,,,,,,,,,,,,,,,AFNE09.jpg,AFSA14.jpg,AFNE17.jpg,AFSA11.jpg,AFNE17.jpg,FN,3,num_2,32,num_6,0.316933484748,,,2017_Aug_24_1637,60.0094889906,FEMA4ImagesEEG,001,101458,
AFNE01.JPG,AFNE01.JPG,AFNE01.JPG,AFNE01.JPG,AFNE01.JPG,AFNE01.JPG,,,,,,,,,4,9,49,0,,,,,,,,,,,,,,,AFSA07.jpg,AFNE17.jpg,AFNE07.jpg,AFSA09.jpg,AFSA07.jpg,FS,4,num_8,32,num_2,0.350246793241,,,2017_Aug_24_1637,60.0094889906,FEMA4ImagesEEG,001,101458,
AFNE01.JPG,AFNE01.JPG,AFNE01.JPG,AFNE01.JPG,AFNE01.JPG,AFNE01.JPG,,,,,,,,,5,0,50,3,,,,,,,,,,,,,,,AFSA17.jpg,AFNE09.jpg,AFNE04.jpg,AFSA16.jpg,AFSA17.jpg,FS,4,num_8,16,num_8,0.250024616835,,,2017_Aug_24_1637,60.0094889906,FEMA4ImagesEEG,001,101458,
AFNE01.JPG,AFNE01.JPG,AFNE01.JPG,AFNE01.JPG,AFNE01.JPG,AFNE01.JPG,,,,,,,,,5,1,51,4,,,,,,,,,,,,,,,AFNE19.jpg,AFNE07.jpg,AFSA20.jpg,AFSA18.jpg,AFSA20.jpg,FS,4,num_2,32,num_6,0.350131647545,,,2017_Aug_24_1637,60.0094889906,FEMA4ImagesEEG,001,101458,
AFNE01.JPG,AFNE01.JPG,AFNE01.JPG,AFNE01.JPG,AFNE01.JPG,AFNE01.JPG,,,,,,,,,5,2,52,7,,,,,,,,,,,,,,,AFNE13.jpg,AFSA14.jpg,AFNE01.jpg,AFSA05.jpg,AFSA14.jpg,FS,4,num_6,32,num_8,1.78343334526,,,2017_Aug_24_1637,60.0094889906,FEMA4ImagesEEG,001,101458,
AFNE01.JPG,AFNE01.JPG,AFNE01.JPG,AFNE01.JPG,AFNE01.JPG,AFNE01.JPG,,,,,,,,,5,3,53,6,,,,,,,,,,,,,,,AFNE08.jpg,AFNE07.jpg,AFSA20.jpg,AFSA07.jpg,AFSA20.jpg,FS,4,num_2,16,num_2,0.683485401329,,,2017_Aug_24_1637,60.0094889906,FEMA4ImagesEEG,001,101458,
AFNE01.JPG,AFNE01.JPG,AFNE01.JPG,AFNE01.JPG,AFNE01.JPG,AFNE01.JPG,,,,,,,,,5,4,54,5,,,,,,,,,,,,,,,AFNE12.jpg,AFSA08.jpg,AFSA09.jpg,AFNE13.jpg,AFNE12.jpg,FN,3,num_8,32,num_2,0.333520859131,,,2017_Aug_24_1637,60.0094889906,FEMA4ImagesEEG,001,101458,
AFNE01.JPG,AFNE01.JPG,AFNE01.JPG,AFNE01.JPG,AFNE01.JPG,AFNE01.JPG,,,,,,,,,5,5,55,1,,,,,,,,,,,,,,,AFNE13.jpg,AFSA10.jpg,AFSA20.jpg,AFNE20.jpg,AFSA10.jpg,FS,4,num_6,32,num_8,0.333736396278,,,2017_Aug_24_1637,60.0094889906,FEMA4ImagesEEG,001,101458,
AFNE01.JPG,AFNE01.JPG,AFNE01.JPG,AFNE01.JPG,AFNE01.JPG,AFNE01.JPG,,,,,,,,,5,6,56,2,,,,,,,,,,,,,,,AFNE06.jpg,AFSA14.jpg,AFSA06.jpg,AFNE02.jpg,AFSA06.jpg,FS,4,num_2,32,num_6,0.300229360932,,,2017_Aug_24_1637,60.0094889906,FEMA4ImagesEEG,001,101458,
AFNE01.JPG,AFNE01.JPG,AFNE01.JPG,AFNE01.JPG,AFNE01.JPG,AFNE01.JPG,,,,,,,,,5,7,57,9,,,,,,,,,,,,,,,AFNE07.jpg,AFSA18.jpg,AFNE17.jpg,AFSA19.jpg,AFSA19.jpg,FS,4,num_4,16,num_4,0.366871694219,,,2017_Aug_24_1637,60.0094889906,FEMA4ImagesEEG,001,101458,
AFNE01.JPG,AFNE01.JPG,AFNE01.JPG,AFNE01.JPG,AFNE01.JPG,AFNE01.JPG,,,,,,,,,5,8,58,8,,,,,,,,,,,,,,,AFSA10.jpg,AFSA09.jpg,AFNE06.jpg,AFNE05.jpg,AFNE05.jpg,FN,3,num_4,32,num_6,0.266734834528,,,2017_Aug_24_1637,60.0094889906,FEMA4ImagesEEG,001,101458,
AFNE01.JPG,AFNE01.JPG,AFNE01.JPG,AFNE01.JPG,AFNE01.JPG,AFNE01.JPG,,,,,,,,,5,9,59,0,,,,,,,,,,,,,,,AFNE04.jpg,AFSA05.jpg,AFNE12.jpg,AFSA19.jpg,AFNE12.jpg,FN,3,num_2,16,num_2,0.26679256768,,,2017_Aug_24_1637,60.0094889906,FEMA4ImagesEEG,001,101458,
,,,,,,,,,,,,,,,,,,,,,,,,,,,,,,,,,,,,,,,,,,,space,13.5990843523,2017_Aug_24_1637,60.0094889906,FEMA4ImagesEEG,001,101458,
AFNE01.JPG,AFNE01.JPG,AFNE01.JPG,AFNE01.JPG,AFNE01.JPG,AFNE01.JPG,,,,,,,,,,,,,0,0,0,5,,,,,,,,,,,AMNE19.jpg,AMSA10.jpg,AMNE04.jpg,AMSA12.jpg,AMNE19.jpg,MN,1,num_8,16,num_8,0.666827464127,,,2017_Aug_24_1637,60.0094889906,FEMA4ImagesEEG,001,101458,
AFNE01.JPG,AFNE01.JPG,AFNE01.JPG,AFNE01.JPG,AFNE01.JPG,AFNE01.JPG,,,,,,,,,,,,,0,1,1,3,,,,,,,,,,,AMNE15.jpg,AMSA15.jpg,AMSA03.jpg,AMNE11.jpg,AMNE15.jpg,MN,1,num_8,16,num_8,1.10012306785,,,2017_Aug_24_1637,60.0094889906,FEMA4ImagesEEG,001,101458,
AFNE01.JPG,AFNE01.JPG,AFNE01.JPG,AFNE01.JPG,AFNE01.JPG,AFNE01.JPG,,,,,,,,,,,,,0,2,2,6,,,,,,,,,,,AMSA14.jpg,AMSA09.jpg,AMNE02.jpg,AMNE11.jpg,AMSA14.jpg,MS,2,num_8,32,num_4,0.600169414654,,,2017_Aug_24_1637,60.0094889906,FEMA4ImagesEEG,001,101458,
AFNE01.JPG,AFNE01.JPG,AFNE01.JPG,AFNE01.JPG,AFNE01.JPG,AFNE01.JPG,,,,,,,,,,,,,0,3,3,0,,,,,,,,,,,AMNE20.jpg,AMSA01.jpg,AMNE11.jpg,AMSA09.jpg,AMNE11.jpg,MN,1,num_2,32,num_6,0.283525557956,,,2017_Aug_24_1637,60.0094889906,FEMA4ImagesEEG,001,101458,
AFNE01.JPG,AFNE01.JPG,AFNE01.JPG,AFNE01.JPG,AFNE01.JPG,AFNE01.JPG,,,,,,,,,,,,,0,4,4,7,,,,,,,,,,,AMNE11.jpg,AMSA10.jpg,AMSA15.jpg,AMNE06.jpg,AMNE11.jpg,MN,1,num_8,16,num_8,0.316881845589,,,2017_Aug_24_1637,60.0094889906,FEMA4ImagesEEG,001,101458,
AFNE01.JPG,AFNE01.JPG,AFNE01.JPG,AFNE01.JPG,AFNE01.JPG,AFNE01.JPG,,,,,,,,,,,,,0,5,5,4,,,,,,,,,,,AMSA16.jpg,AMSA07.jpg,AMNE11.jpg,AMNE14.jpg,AMSA07.jpg,MS,2,num_6,32,num_2,0.933471529279,,,2017_Aug_24_1637,60.0094889906,FEMA4ImagesEEG,001,101458,
AFNE01.JPG,AFNE01.JPG,AFNE01.JPG,AFNE01.JPG,AFNE01.JPG,AFNE01.JPG,,,,,,,,,,,,,0,6,6,9,,,,,,,,,,,AMNE03.jpg,AMNE19.jpg,AMSA16.jpg,AMSA03.jpg,AMNE03.jpg,MN,1,num_8,32,num_6,0.600016421871,,,2017_Aug_24_1637,60.0094889906,FEMA4ImagesEEG,001,101458,
AFNE01.JPG,AFNE01.JPG,AFNE01.JPG,AFNE01.JPG,AFNE01.JPG,AFNE01.JPG,,,,,,,,,,,,,0,7,7,8,,,,,,,,,,,AMSA01.jpg,AMNE15.jpg,AMNE17.jpg,AMSA03.jpg,AMNE15.jpg,MN,1,num_6,16,num_6,0.716839443892,,,2017_Aug_24_1637,60.0094889906,FEMA4ImagesEEG,001,101458,
AFNE01.JPG,AFNE01.JPG,AFNE01.JPG,AFNE01.JPG,AFNE01.JPG,AFNE01.JPG,,,,,,,,,,,,,0,8,8,2,,,,,,,,,,,AMSA15.jpg,AMNE07.jpg,AMSA19.jpg,AMNE20.jpg,AMSA15.jpg,MS,2,num_8,16,num_8,0.350191946723,,,2017_Aug_24_1637,60.0094889906,FEMA4ImagesEEG,001,101458,
AFNE01.JPG,AFNE01.JPG,AFNE01.JPG,AFNE01.JPG,AFNE01.JPG,AFNE01.JPG,,,,,,,,,,,,,0,9,9,1,,,,,,,,,,,AMNE08.jpg,AMNE11.jpg,AMSA13.jpg,AMSA15.jpg,AMNE08.jpg,MN,1,num_8,32,num_4,1.21673696744,,,2017_Aug_24_1637,60.0094889906,FEMA4ImagesEEG,001,101458,
AFNE01.JPG,AFNE01.JPG,AFNE01.JPG,AFNE01.JPG,AFNE01.JPG,AFNE01.JPG,,,,,,,,,,,,,1,0,10,2,,,,,,,,,,,AMNE12.jpg,AMNE15.jpg,AMSA01.jpg,AMSA10.jpg,AMSA01.jpg,MS,2,num_2,32,num_6,0.383475105627,,,2017_Aug_24_1637,60.0094889906,FEMA4ImagesEEG,001,101458,
AFNE01.JPG,AFNE01.JPG,AFNE01.JPG,AFNE01.JPG,AFNE01.JPG,AFNE01.JPG,,,,,,,,,,,,,1,1,11,4,,,,,,,,,,,AMSA18.jpg,AMNE05.jpg,AMSA01.jpg,AMNE03.jpg,AMSA01.jpg,MS,2,num_2,32,num_4,0.266874356312,,,2017_Aug_24_1637,60.0094889906,FEMA4ImagesEEG,001,101458,
AFNE01.JPG,AFNE01.JPG,AFNE01.JPG,AFNE01.JPG,AFNE01.JPG,AFNE01.JPG,,,,,,,,,,,,,1,2,12,5,,,,,,,,,,,AMNE06.jpg,AMNE11.jpg,AMSA12.jpg,AMSA13.jpg,AMSA12.jpg,MS,2,num_2,16,num_2,0.55052724795,,,2017_Aug_24_1637,60.0094889906,FEMA4ImagesEEG,001,101458,
AFNE01.JPG,AFNE01.JPG,AFNE01.JPG,AFNE01.JPG,AFNE01.JPG,AFNE01.JPG,,,,,,,,,,,,,1,3,13,1,,,,,,,,,,,AMNE12.jpg,AMSA13.jpg,AMNE16.jpg,AMSA19.jpg,AMNE16.jpg,MN,1,num_2,32,num_8,0.583485497627,,,2017_Aug_24_1637,60.0094889906,FEMA4ImagesEEG,001,101458,
AFNE01.JPG,AFNE01.JPG,AFNE01.JPG,AFNE01.JPG,AFNE01.JPG,AFNE01.JPG,,,,,,,,,,,,,1,4,14,0,,,,,,,,,,,AMSA03.jpg,AMNE13.jpg,AMSA08.jpg,AMNE18.jpg,AMSA08.jpg,MS,2,num_2,32,num_6,0.88317986473,,,2017_Aug_24_1637,60.0094889906,FEMA4ImagesEEG,001,101458,
AFNE01.JPG,AFNE01.JPG,AFNE01.JPG,AFNE01.JPG,AFNE01.JPG,AFNE01.JPG,,,,,,,,,,,,,1,5,15,6,,,,,,,,,,,AMNE18.jpg,AMSA14.jpg,AMNE06.jpg,AMSA10.jpg,AMSA10.jpg,MS,2,num_4,16,num_4,0.783511926536,,,2017_Aug_24_1637,60.0094889906,FEMA4ImagesEEG,001,101458,
AFNE01.JPG,AFNE01.JPG,AFNE01.JPG,AFNE01.JPG,AFNE01.JPG,AFNE01.JPG,,,,,,,,,,,,,1,6,16,9,,,,,,,,,,,AMNE17.jpg,AMSA10.jpg,AMNE01.jpg,AMSA15.jpg,AMNE01.jpg,MN,1,num_2,16,num_2,1.13341937703,,,2017_Aug_24_1637,60.0094889906,FEMA4ImagesEEG,001,101458,
AFNE01.JPG,AFNE01.JPG,AFNE01.JPG,AFNE01.JPG,AFNE01.JPG,AFNE01.JPG,,,,,,,,,,,,,1,7,17,7,,,,,,,,,,,AMNE11.jpg,AMSA15.jpg,AMSA09.jpg,AMNE07.jpg,AMNE07.jpg,MN,1,num_4,32,num_6,0.533423803281,,,2017_Aug_24_1637,60.0094889906,FEMA4ImagesEEG,001,101458,
AFNE01.JPG,AFNE01.JPG,AFNE01.JPG,AFNE01.JPG,AFNE01.JPG,AFNE01.JPG,,,,,,,,,,,,,1,8,18,8,,,,,,,,,,,AMSA04.jpg,AMNE09.jpg,AMNE06.jpg,AMSA01.jpg,AMSA04.jpg,MS,2,num_8,16,num_8,0.51720624161,,,2017_Aug_24_1637,60.0094889906,FEMA4ImagesEEG,001,101458,
AFNE01.JPG,AFNE01.JPG,AFNE01.JPG,AFNE01.JPG,AFNE01.JPG,AFNE01.JPG,,,,,,,,,,,,,1,9,19,3,,,,,,,,,,,AMNE06.jpg,AMNE12.jpg,AMSA01.jpg,AMSA02.jpg,AMSA02.jpg,MS,2,num_4,16,num_4,0.350203814101,,,2017_Aug_24_1637,60.0094889906,FEMA4ImagesEEG,001,101458,
AFNE01.JPG,AFNE01.JPG,AFNE01.JPG,AFNE01.JPG,AFNE01.JPG,AFNE01.JPG,,,,,,,,,,,,,2,0,20,2,,,,,,,,,,,AMSA11.jpg,AMSA10.jpg,AMNE19.jpg,AMNE07.jpg,AMSA11.jpg,MS,2,num_8,32,num_6,0.700177016319,,,2017_Aug_24_1637,60.0094889906,FEMA4ImagesEEG,001,101458,
AFNE01.JPG,AFNE01.JPG,AFNE01.JPG,AFNE01.JPG,AFNE01.JPG,AFNE01.JPG,,,,,,,,,,,,,2,1,21,9,,,,,,,,,,,AMSA05.jpg,AMNE16.jpg,AMSA13.jpg,AMNE01.jpg,AMNE01.jpg,MN,1,num_4,32,num_8,0.350159551948,,,2017_Aug_24_1637,60.0094889906,FEMA4ImagesEEG,001,101458,
AFNE01.JPG,AFNE01.JPG,AFNE01.JPG,AFNE01.JPG,AFNE01.JPG,AFNE01.JPG,,,,,,,,,,,,,2,2,22,5,,,,,,,,,,,AMNE17.jpg,AMNE08.jpg,AMSA12.jpg,AMSA10.jpg,AMNE08.jpg,MN,1,num_6,32,num_4,0.300147251575,,,2017_Aug_24_1637,60.0094889906,FEMA4ImagesEEG,001,101458,
AFNE01.JPG,AFNE01.JPG,AFNE01.JPG,AFNE01.JPG,AFNE01.JPG,AFNE01.JPG,,,,,,,,,,,,,2,3,23,7,,,,,,,,,,,AMNE11.jpg,AMSA06.jpg,AMNE19.jpg,AMSA15.jpg,AMSA06.jpg,MS,2,num_6,16,num_6,0.300151741947,,,2017_Aug_24_1637,60.0094889906,FEMA4ImagesEEG,001,101458,
AFNE01.JPG,AFNE01.JPG,AFNE01.JPG,AFNE01.JPG,AFNE01.JPG,AFNE01.JPG,,,,,,,,,,,,,2,4,24,8,,,,,,,,,,,AMNE20.jpg,AMSA18.jpg,AMSA11.jpg,AMNE07.jpg,AMSA18.jpg,MS,2,num_6,32,num_8,0.250167025137,,,2017_Aug_24_1637,60.0094889906,FEMA4ImagesEEG,001,101458,
AFNE01.JPG,AFNE01.JPG,AFNE01.JPG,AFNE01.JPG,AFNE01.JPG,AFNE01.JPG,,,,,,,,,,,,,2,5,25,6,,,,,,,,,,,AMSA14.jpg,AMSA05.jpg,AMNE07.jpg,AMNE06.jpg,AMSA14.jpg,MS,2,num_8,32,num_6,0.266825603903,,,2017_Aug_24_1637,60.0094889906,FEMA4ImagesEEG,001,101458,
AFNE01.JPG,AFNE01.JPG,AFNE01.JPG,AFNE01.JPG,AFNE01.JPG,AFNE01.JPG,,,,,,,,,,,,,2,6,26,3,,,,,,,,,,,AMNE18.jpg,AMSA09.jpg,AMSA18.jpg,AMNE04.jpg,AMNE18.jpg,MN,1,num_8,32,num_4,0.283504709834,,,2017_Aug_24_1637,60.0094889906,FEMA4ImagesEEG,001,101458,
AFNE01.JPG,AFNE01.JPG,AFNE01.JPG,AFNE01.JPG,AFNE01.JPG,AFNE01.JPG,,,,,,,,,,,,,2,7,27,4,,,,,,,,,,,AMSA17.jpg,AMSA10.jpg,AMNE09.jpg,AMNE08.jpg,AMNE09.jpg,MN,1,num_2,32,num_4,0.266666196287,,,2017_Aug_24_1637,60.0094889906,FEMA4ImagesEEG,001,101458,
AFNE01.JPG,AFNE01.JPG,AFNE01.JPG,AFNE01.JPG,AFNE01.JPG,AFNE01.JPG,,,,,,,,,,,,,2,8,28,0,,,,,,,,,,,AMSA18.jpg,AMSA04.jpg,AMNE12.jpg,AMNE09.jpg,AMNE09.jpg,MN,1,num_4,16,num_4,0.433484519366,,,2017_Aug_24_1637,60.0094889906,FEMA4ImagesEEG,001,101458,
AFNE01.JPG,AFNE01.JPG,AFNE01.JPG,AFNE01.JPG,AFNE01.JPG,AFNE01.JPG,,,,,,,,,,,,,2,9,29,1,,,,,,,,,,,AMSA15.jpg,AMNE19.jpg,AMNE18.jpg,AMSA03.jpg,AMSA03.jpg,MS,2,num_4,16,num_4,0.600148566649,,,2017_Aug_24_1637,60.0094889906,FEMA4ImagesEEG,001,101458,
AFNE01.JPG,AFNE01.JPG,AFNE01.JPG,AFNE01.JPG,AFNE01.JPG,AFNE01.JPG,,,,,,,,,,,,,3,0,30,1,,,,,,,,,,,AMNE12.jpg,AMSA04.jpg,AMNE06.jpg,AMSA20.jpg,AMNE12.jpg,MN,1,num_8,32,num_2,1.70006571955,,,2017_Aug_24_1637,60.0094889906,FEMA4ImagesEEG,001,101458,
AFNE01.JPG,AFNE01.JPG,AFNE01.JPG,AFNE01.JPG,AFNE01.JPG,AFNE01.JPG,,,,,,,,,,,,,3,1,31,6,,,,,,,,,,,AMSA03.jpg,AMNE06.jpg,AMNE17.jpg,AMSA20.jpg,AMSA20.jpg,MS,2,num_4,32,num_6,0.633449366316,,,2017_Aug_24_1637,60.0094889906,FEMA4ImagesEEG,001,101458,
AFNE01.JPG,AFNE01.JPG,AFNE01.JPG,AFNE01.JPG,AFNE01.JPG,AFNE01.JPG,,,,,,,,,,,,,3,2,32,4,,,,,,,,,,,AMNE10.jpg,AMSA13.jpg,AMSA18.jpg,AMNE20.jpg,AMSA18.jpg,MS,2,num_2,32,num_8,0.383495953633,,,2017_Aug_24_1637,60.0094889906,FEMA4ImagesEEG,001,101458,
AFNE01.JPG,AFNE01.JPG,AFNE01.JPG,AFNE01.JPG,AFNE01.JPG,AFNE01.JPG,,,,,,,,,,,,,3,3,33,0,,,,,,,,,,,AMNE19.jpg,AMSA02.jpg,AMSA03.jpg,AMNE07.jpg,AMNE19.jpg,MN,1,num_8,32,num_2,0.283505992847,,,2017_Aug_24_1637,60.0094889906,FEMA4ImagesEEG,001,101458,
AFNE01.JPG,AFNE01.JPG,AFNE01.JPG,AFNE01.JPG,AFNE01.JPG,AFNE01.JPG,,,,,,,,,,,,,3,4,34,5,,,,,,,,,,,AMNE19.jpg,AMSA17.jpg,AMSA04.jpg,AMNE12.jpg,AMSA04.jpg,MS,2,num_2,32,num_6,0.250134951202,,,2017_Aug_24_1637,60.0094889906,FEMA4ImagesEEG,001,101458,
AFNE01.JPG,AFNE01.JPG,AFNE01.JPG,AFNE01.JPG,AFNE01.JPG,AFNE01.JPG,,,,,,,,,,,,,3,5,35,7,,,,,,,,,,,AMNE01.jpg,AMSA02.jpg,AMNE10.jpg,AMSA19.jpg,AMNE10.jpg,MN,1,num_2,32,num_8,0.350178475608,,,2017_Aug_24_1637,60.0094889906,FEMA4ImagesEEG,001,101458,
AFNE01.JPG,AFNE01.JPG,AFNE01.JPG,AFNE01.JPG,AFNE01.JPG,AFNE01.JPG,,,,,,,,,,,,,3,6,36,3,,,,,,,,,,,AMSA13.jpg,AMSA09.jpg,AMNE19.jpg,AMNE10.jpg,AMNE19.jpg,MN,1,num_2,32,num_6,0.333477559267,,,2017_Aug_24_1637,60.0094889906,FEMA4ImagesEEG,001,101458,
AFNE01.JPG,AFNE01.JPG,AFNE01.JPG,AFNE01.JPG,AFNE01.JPG,AFNE01.JPG,,,,,,,,,,,,,3,7,37,8,,,,,,,,,,,AMNE11.jpg,AMSA12.jpg,AMSA17.jpg,AMNE09.jpg,AMNE11.jpg,MN,1,num_8,16,num_8,0.316775680752,,,2017_Aug_24_1637,60.0094889906,FEMA4ImagesEEG,001,101458,
AFNE01.JPG,AFNE01.JPG,AFNE01.JPG,AFNE01.JPG,AFNE01.JPG,AFNE01.JPG,,,,,,,,,,,,,3,8,38,2,,,,,,,,,,,AMSA16.jpg,AMNE14.jpg,AMSA12.jpg,AMNE15.jpg,AMSA16.jpg,MS,2,num_8,32,num_4,0.250128857209,,,2017_Aug_24_1637,60.0094889906,FEMA4ImagesEEG,001,101458,
AFNE01.JPG,AFNE01.JPG,AFNE01.JPG,AFNE01.JPG,AFNE01.JPG,AFNE01.JPG,,,,,,,,,,,,,3,9,39,9,,,,,,,,,,,AMNE05.jpg,AMNE10.jpg,AMSA06.jpg,AMSA01.jpg,AMNE05.jpg,MN,1,num_8,32,num_6,0.733457288588,,,2017_Aug_24_1637,60.0094889906,FEMA4ImagesEEG,001,101458,
AFNE01.JPG,AFNE01.JPG,AFNE01.JPG,AFNE01.JPG,AFNE01.JPG,AFNE01.JPG,,,,,,,,,,,,,4,0,40,3,,,,,,,,,,,AMSA10.jpg,AMNE02.jpg,AMNE07.jpg,AMSA05.jpg,AMSA05.jpg,MS,2,num_4,32,num_8,0.766771879978,,,2017_Aug_24_1637,60.0094889906,FEMA4ImagesEEG,001,101458,
AFNE01.JPG,AFNE01.JPG,AFNE01.JPG,AFNE01.JPG,AFNE01.JPG,AFNE01.JPG,,,,,,,,,,,,,4,1,41,9,,,,,,,,,,,AMNE01.jpg,AMSA12.jpg,AMSA03.jpg,AMNE13.jpg,AMNE13.jpg,MN,1,num_4,16,num_4,0.400013727602,,,2017_Aug_24_1637,60.0094889906,FEMA4ImagesEEG,001,101458,
AFNE01.JPG,AFNE01.JPG,AFNE01.JPG,AFNE01.JPG,AFNE01.JPG,AFNE01.JPG,,,,,,,,,,,,,4,2,42,7,,,,,,,,,,,AMSA03.jpg,AMNE10.jpg,AMNE16.jpg,AMSA05.jpg,AMSA05.jpg,MS,2,num_4,16,num_4,0.333493596292,,,2017_Aug_24_1637,60.0094889906,FEMA4ImagesEEG,001,101458,
AFNE01.JPG,AFNE01.JPG,AFNE01.JPG,AFNE01.JPG,AFNE01.JPG,AFNE01.JPG,,,,,,,,,,,,,4,3,43,6,,,,,,,,,,,AMNE06.jpg,AMSA07.jpg,AMNE20.jpg,AMSA04.jpg,AMSA04.jpg,MS,2,num_4,32,num_2,0.333489747485,,,2017_Aug_24_1637,60.0094889906,FEMA4ImagesEEG,001,101458,
AFNE01.JPG,AFNE01.JPG,AFNE01.JPG,AFNE01.JPG,AFNE01.JPG,AFNE01.JPG,,,,,,,,,,,,,4,4,44,1,,,,,,,,,,,AMNE19.jpg,AMNE14.jpg,AMSA10.jpg,AMSA05.jpg,AMSA05.jpg,MS,2,num_4,16,num_4,0.749995589838,,,2017_Aug_24_1637,60.0094889906,FEMA4ImagesEEG,001,101458,
AFNE01.JPG,AFNE01.JPG,AFNE01.JPG,AFNE01.JPG,AFNE01.JPG,AFNE01.JPG,,,,,,,,,,,,,4,5,45,0,,,,,,,,,,,AMNE07.jpg,AMNE02.jpg,AMSA02.jpg,AMSA06.jpg,AMSA02.jpg,MS,2,num_2,32,num_8,0.733446383383,,,2017_Aug_24_1637,60.0094889906,FEMA4ImagesEEG,001,101458,
AFNE01.JPG,AFNE01.JPG,AFNE01.JPG,AFNE01.JPG,AFNE01.JPG,AFNE01.JPG,,,,,,,,,,,,,4,6,46,2,,,,,,,,,,,AMNE03.jpg,AMSA11.jpg,AMSA13.jpg,AMNE01.jpg,AMSA13.jpg,MS,2,num_2,32,num_6,1.16676957067,,,2017_Aug_24_1637,60.0094889906,FEMA4ImagesEEG,001,101458,
AFNE01.JPG,AFNE01.JPG,AFNE01.JPG,AFNE01.JPG,AFNE01.JPG,AFNE01.JPG,,,,,,,,,,,,,4,7,47,4,,,,,,,,,,,AMNE14.jpg,AMSA19.jpg,AMNE05.jpg,AMSA14.jpg,AMNE14.jpg,MN,1,num_8,32,num_4,0.633465082501,,,2017_Aug_24_1637,60.0094889906,FEMA4ImagesEEG,001,101458,
AFNE01.JPG,AFNE01.JPG,AFNE01.JPG,AFNE01.JPG,AFNE01.JPG,AFNE01.JPG,,,,,,,,,,,,,4,8,48,8,,,,,,,,,,,AMNE02.jpg,AMSA10.jpg,AMNE08.jpg,AMSA01.jpg,AMNE08.jpg,MN,1,num_2,32,num_4,0.300149817485,,,2017_Aug_24_1637,60.0094889906,FEMA4ImagesEEG,001,101458,
AFNE01.JPG,AFNE01.JPG,AFNE01.JPG,AFNE01.JPG,AFNE01.JPG,AFNE01.JPG,,,,,,,,,,,,,4,9,49,5,,,,,,,,,,,AMNE01.jpg,AMSA14.jpg,AMNE04.jpg,AMSA04.jpg,AMSA04.jpg,MS,2,num_4,32,num_2,1.18340954639,,,2017_Aug_24_1637,60.0094889906,FEMA4ImagesEEG,001,101458,
AFNE01.JPG,AFNE01.JPG,AFNE01.JPG,AFNE01.JPG,AFNE01.JPG,AFNE01.JPG,,,,,,,,,,,,,5,0,50,4,,,,,,,,,,,AMSA17.jpg,AMNE03.jpg,AMNE08.jpg,AMSA10.jpg,AMNE08.jpg,MN,1,num_2,32,num_6,0.266820792807,,,2017_Aug_24_1637,60.0094889906,FEMA4ImagesEEG,001,101458,
AFNE01.JPG,AFNE01.JPG,AFNE01.JPG,AFNE01.JPG,AFNE01.JPG,AFNE01.JPG,,,,,,,,,,,,,5,1,51,2,,,,,,,,,,,AMSA03.jpg,AMNE19.jpg,AMNE13.jpg,AMSA05.jpg,AMSA03.jpg,MS,2,num_8,16,num_8,0.300147572299,,,2017_Aug_24_1637,60.0094889906,FEMA4ImagesEEG,001,101458,
AFNE01.JPG,AFNE01.JPG,AFNE01.JPG,AFNE01.JPG,AFNE01.JPG,AFNE01.JPG,,,,,,,,,,,,,5,2,52,0,,,,,,,,,,,AMNE04.jpg,AMSA15.jpg,AMNE12.jpg,AMSA01.jpg,AMNE04.jpg,MN,1,num_8,32,num_4,0.266827207641,,,2017_Aug_24_1637,60.0094889906,FEMA4ImagesEEG,001,101458,
AFNE01.JPG,AFNE01.JPG,AFNE01.JPG,AFNE01.JPG,AFNE01.JPG,AFNE01.JPG,,,,,,,,,,,,,5,3,53,6,,,,,,,,,,,AMNE20.jpg,AMSA13.jpg,AMSA11.jpg,AMNE13.jpg,AMNE13.jpg,MN,1,num_4,32,num_2,0.366887731128,,,2017_Aug_24_1637,60.0094889906,FEMA4ImagesEEG,001,101458,
AFNE01.JPG,AFNE01.JPG,AFNE01.JPG,AFNE01.JPG,AFNE01.JPG,AFNE01.JPG,,,,,,,,,,,,,5,4,54,1,,,,,,,,,,,AMSA12.jpg,AMNE03.jpg,AMNE12.jpg,AMSA16.jpg,AMSA12.jpg,MS,2,num_8,32,num_4,0.333829089999,,,2017_Aug_24_1637,60.0094889906,FEMA4ImagesEEG,001,101458,
AFNE01.JPG,AFNE01.JPG,AFNE01.JPG,AFNE01.JPG,AFNE01.JPG,AFNE01.JPG,,,,,,,,,,,,,5,5,55,8,,,,,,,,,,,AMNE07.jpg,AMSA08.jpg,AMSA06.jpg,AMNE02.jpg,AMSA06.jpg,MS,2,num_2,32,num_6,0.666622511577,,,2017_Aug_24_1637,60.0094889906,FEMA4ImagesEEG,001,101458,
AFNE01.JPG,AFNE01.JPG,AFNE01.JPG,AFNE01.JPG,AFNE01.JPG,AFNE01.JPG,,,,,,,,,,,,,5,6,56,9,,,,,,,,,,,AMSA19.jpg,AMSA10.jpg,AMNE20.jpg,AMNE17.jpg,AMNE20.jpg,MN,1,num_2,32,num_8,0.466775696841,,,2017_Aug_24_1637,60.0094889906,FEMA4ImagesEEG,001,101458,
AFNE01.JPG,AFNE01.JPG,AFNE01.JPG,AFNE01.JPG,AFNE01.JPG,AFNE01.JPG,,,,,,,,,,,,,5,7,57,5,,,,,,,,,,,AMNE09.jpg,AMNE03.jpg,AMSA14.jpg,AMSA16.jpg,AMNE03.jpg,MN,1,num_6,32,num_8,0.350253207958,,,2017_Aug_24_1637,60.0094889906,FEMA4ImagesEEG,001,101458,
AFNE01.JPG,AFNE01.JPG,AFNE01.JPG,AFNE01.JPG,AFNE01.JPG,AFNE01.JPG,,,,,,,,,,,,,5,8,58,3,,,,,,,,,,,AMNE02.jpg,AMSA11.jpg,AMNE18.jpg,AMSA10.jpg,AMNE02.jpg,MN,1,num_8,32,num_6,0.450191529817,,,2017_Aug_24_1637,60.0094889906,FEMA4ImagesEEG,001,101458,
AFNE01.JPG,AFNE01.JPG,AFNE01.JPG,AFNE01.JPG,AFNE01.JPG,AFNE01.JPG,,,,,,,,,,,,,5,9,59,7,,,,,,,,,,,AMNE19.jpg,AMSA15.jpg,AMSA09.jpg,AMNE02.jpg,AMNE02.jpg,MN,1,num_4,32,num_8,1.066733744,,,2017_Aug_24_1637,60.0094889906,FEMA4ImagesEEG,001,101458,
,,,,,,,,,,,,,,,,,,,,,,,,,,,,,,,,,,,,,,,,,,,space,30.2308520803,2017_Aug_24_1637,60.0094889906,FEMA4ImagesEEG,001,101458,
AFNE01.JPG,AFNE01.JPG,AFNE01.JPG,AFNE01.JPG,AFNE01.JPG,AFNE01.JPG,,,,,,,,,,,,,,,,,0,0,0,1,,,,,,,AFNE16.jpg,AFSA09.jpg,AFNE12.jpg,AFSA14.jpg,AFNE12.jpg,FN,3,num_2,32,num_6,0.283488993649,,,2017_Aug_24_1637,60.0094889906,FEMA4ImagesEEG,001,101458,
AFNE01.JPG,AFNE01.JPG,AFNE01.JPG,AFNE01.JPG,AFNE01.JPG,AFNE01.JPG,,,,,,,,,,,,,,,,,0,1,1,9,,,,,,,AFSA03.jpg,AFNE05.jpg,AFNE12.jpg,AFSA16.jpg,AFSA03.jpg,FS,4,num_8,32,num_2,1.43342005066,,,2017_Aug_24_1637,60.0094889906,FEMA4ImagesEEG,001,101458,
AFNE01.JPG,AFNE01.JPG,AFNE01.JPG,AFNE01.JPG,AFNE01.JPG,AFNE01.JPG,,,,,,,,,,,,,,,,,0,2,2,7,,,,,,,AFSA05.jpg,AFNE17.jpg,AFNE16.jpg,AFSA01.jpg,AFNE17.jpg,FN,3,num_6,32,num_8,0.733508286066,,,2017_Aug_24_1637,60.0094889906,FEMA4ImagesEEG,001,101458,
AFNE01.JPG,AFNE01.JPG,AFNE01.JPG,AFNE01.JPG,AFNE01.JPG,AFNE01.JPG,,,,,,,,,,,,,,,,,0,3,3,8,,,,,,,AFNE11.jpg,AFNE20.jpg,AFSA11.jpg,AFSA13.jpg,AFSA13.jpg,FS,4,num_4,32,num_2,0.60028937133,,,2017_Aug_24_1637,60.0094889906,FEMA4ImagesEEG,001,101458,
AFNE01.JPG,AFNE01.JPG,AFNE01.JPG,AFNE01.JPG,AFNE01.JPG,AFNE01.JPG,,,,,,,,,,,,,,,,,0,4,4,2,,,,,,,AFSA16.jpg,AFNE03.jpg,AFSA18.jpg,AFNE08.jpg,AFSA18.jpg,FS,4,num_2,32,num_6,0.616824465222,,,2017_Aug_24_1637,60.0094889906,FEMA4ImagesEEG,001,101458,
AFNE01.JPG,AFNE01.JPG,AFNE01.JPG,AFNE01.JPG,AFNE01.JPG,AFNE01.JPG,,,,,,,,,,,,,,,,,0,5,5,3,,,,,,,AFNE10.jpg,AFSA18.jpg,AFSA01.jpg,AFNE08.jpg,AFNE10.jpg,FN,3,num_8,32,num_4,0.450144701754,,,2017_Aug_24_1637,60.0094889906,FEMA4ImagesEEG,001,101458,
AFNE01.JPG,AFNE01.JPG,AFNE01.JPG,AFNE01.JPG,AFNE01.JPG,AFNE01.JPG,,,,,,,,,,,,,,,,,0,6,6,0,,,,,,,AFNE17.jpg,AFNE05.jpg,AFSA19.jpg,AFSA03.jpg,AFSA03.jpg,FS,4,num_4,32,num_6,0.533469348331,,,2017_Aug_24_1637,60.0094889906,FEMA4ImagesEEG,001,101458,
AFNE01.JPG,AFNE01.JPG,AFNE01.JPG,AFNE01.JPG,AFNE01.JPG,AFNE01.JPG,,,,,,,,,,,,,,,,,0,7,7,6,,,,,,,AFNE11.jpg,AFSA08.jpg,AFNE19.jpg,AFSA16.jpg,AFSA16.jpg,FS,4,num_4,32,num_2,0.316641611513,,,2017_Aug_24_1637,60.0094889906,FEMA4ImagesEEG,001,101458,
AFNE01.JPG,AFNE01.JPG,AFNE01.JPG,AFNE01.JPG,AFNE01.JPG,AFNE01.JPG,,,,,,,,,,,,,,,,,0,8,8,5,,,,,,,AFSA18.jpg,AFNE08.jpg,AFSA19.jpg,AFNE02.jpg,AFNE08.jpg,FN,3,num_6,32,num_8,0.29985666147,,,2017_Aug_24_1637,60.0094889906,FEMA4ImagesEEG,001,101458,
AFNE01.JPG,AFNE01.JPG,AFNE01.JPG,AFNE01.JPG,AFNE01.JPG,AFNE01.JPG,,,,,,,,,,,,,,,,,0,9,9,4,,,,,,,AFNE09.jpg,AFNE05.jpg,AFSA03.jpg,AFSA16.jpg,AFNE05.jpg,FN,3,num_6,32,num_2,0.333488785196,,,2017_Aug_24_1637,60.0094889906,FEMA4ImagesEEG,001,101458,
AFNE01.JPG,AFNE01.JPG,AFNE01.JPG,AFNE01.JPG,AFNE01.JPG,AFNE01.JPG,,,,,,,,,,,,,,,,,1,0,10,5,,,,,,,AFNE08.jpg,AFSA16.jpg,AFSA12.jpg,AFNE05.jpg,AFNE08.jpg,FN,3,num_8,32,num_4,0.600167169585,,,2017_Aug_24_1637,60.0094889906,FEMA4ImagesEEG,001,101458,
AFNE01.JPG,AFNE01.JPG,AFNE01.JPG,AFNE01.JPG,AFNE01.JPG,AFNE01.JPG,,,,,,,,,,,,,,,,,1,1,11,3,,,,,,,AFSA07.jpg,AFSA02.jpg,AFNE14.jpg,AFNE05.jpg,AFSA02.jpg,FS,4,num_6,16,num_6,0.817044620984,,,2017_Aug_24_1637,60.0094889906,FEMA4ImagesEEG,001,101458,
AFNE01.JPG,AFNE01.JPG,AFNE01.JPG,AFNE01.JPG,AFNE01.JPG,AFNE01.JPG,,,,,,,,,,,,,,,,,1,2,12,8,,,,,,,AFNE13.jpg,AFSA07.jpg,AFNE16.jpg,AFSA02.jpg,AFNE16.jpg,FN,3,num_2,32,num_8,0.600121303694,,,2017_Aug_24_1637,60.0094889906,FEMA4ImagesEEG,001,101458,
AFNE01.JPG,AFNE01.JPG,AFNE01.JPG,AFNE01.JPG,AFNE01.JPG,AFNE01.JPG,,,,,,,,,,,,,,,,,1,3,13,7,,,,,,,AFNE12.jpg,AFSA03.jpg,AFSA20.jpg,AFNE05.jpg,AFSA03.jpg,FS,4,num_6,16,num_6,0.833437306457,,,2017_Aug_24_1637,60.0094889906,FEMA4ImagesEEG,001,101458,
AFNE01.JPG,AFNE01.JPG,AFNE01.JPG,AFNE01.JPG,AFNE01.JPG,AFNE01.JPG,,,,,,,,,,,,,,,,,1,4,14,4,,,,,,,AFSA05.jpg,AFNE18.jpg,AFNE15.jpg,AFSA13.jpg,AFSA13.jpg,FS,4,num_4,16,num_4,0.616781165358,,,2017_Aug_24_1637,60.0094889906,FEMA4ImagesEEG,001,101458,
AFNE01.JPG,AFNE01.JPG,AFNE01.JPG,AFNE01.JPG,AFNE01.JPG,AFNE01.JPG,,,,,,,,,,,,,,,,,1,5,15,6,,,,,,,AFNE02.jpg,AFNE12.jpg,AFSA10.jpg,AFSA19.jpg,AFNE02.jpg,FN,3,num_8,16,num_8,0.250196212553,,,2017_Aug_24_1637,60.0094889906,FEMA4ImagesEEG,001,101458,
AFNE01.JPG,AFNE01.JPG,AFNE01.JPG,AFNE01.JPG,AFNE01.JPG,AFNE01.JPG,,,,,,,,,,,,,,,,,1,6,16,9,,,,,,,AFNE20.jpg,AFSA17.jpg,AFNE03.jpg,AFSA07.jpg,AFSA17.jpg,FS,4,num_6,16,num_6,0.350187777076,,,2017_Aug_24_1637,60.0094889906,FEMA4ImagesEEG,001,101458,
AFNE01.JPG,AFNE01.JPG,AFNE01.JPG,AFNE01.JPG,AFNE01.JPG,AFNE01.JPG,,,,,,,,,,,,,,,,,1,7,17,2,,,,,,,AFSA07.jpg,AFNE15.jpg,AFSA12.jpg,AFNE09.jpg,AFNE09.jpg,FN,3,num_4,32,num_8,4.34983047307,,,2017_Aug_24_1637,60.0094889906,FEMA4ImagesEEG,001,101458,
AFNE01.JPG,AFNE01.JPG,AFNE01.JPG,AFNE01.JPG,AFNE01.JPG,AFNE01.JPG,,,,,,,,,,,,,,,,,1,8,18,0,,,,,,,AFSA18.jpg,AFNE19.jpg,AFNE10.jpg,AFSA01.jpg,AFNE19.jpg,FN,3,num_6,32,num_2,0.533462933614,,,2017_Aug_24_1637,60.0094889906,FEMA4ImagesEEG,001,101458,
AFNE01.JPG,AFNE01.JPG,AFNE01.JPG,AFNE01.JPG,AFNE01.JPG,AFNE01.JPG,,,,,,,,,,,,,,,,,1,9,19,1,,,,,,,AFNE09.jpg,AFSA20.jpg,AFSA03.jpg,AFNE04.jpg,AFSA03.jpg,FS,4,num_2,32,num_6,1.43339022191,,,2017_Aug_24_1637,60.0094889906,FEMA4ImagesEEG,001,101458,
AFNE01.JPG,AFNE01.JPG,AFNE01.JPG,AFNE01.JPG,AFNE01.JPG,AFNE01.JPG,,,,,,,,,,,,,,,,,2,0,20,5,,,,,,,AFSA02.jpg,AFNE06.jpg,AFNE16.jpg,AFSA03.jpg,AFNE06.jpg,FN,3,num_6,32,num_2,0.53345395287,,,2017_Aug_24_1637,60.0094889906,FEMA4ImagesEEG,001,101458,
AFNE01.JPG,AFNE01.JPG,AFNE01.JPG,AFNE01.JPG,AFNE01.JPG,AFNE01.JPG,,,,,,,,,,,,,,,,,2,1,21,0,,,,,,,AFNE04.jpg,AFNE05.jpg,AFSA07.jpg,AFSA04.jpg,AFSA04.jpg,FS,4,num_4,16,num_4,0.116798966425,,,2017_Aug_24_1637,60.0094889906,FEMA4ImagesEEG,001,101458,
AFNE01.JPG,AFNE01.JPG,AFNE01.JPG,AFNE01.JPG,AFNE01.JPG,AFNE01.JPG,,,,,,,,,,,,,,,,,2,2,22,1,,,,,,,AFSA16.jpg,AFNE17.jpg,AFSA19.jpg,AFNE08.jpg,AFNE08.jpg,FN,3,num_4,32,num_2,0.350167570519,,,2017_Aug_24_1637,60.0094889906,FEMA4ImagesEEG,001,101458,
AFNE01.JPG,AFNE01.JPG,AFNE01.JPG,AFNE01.JPG,AFNE01.JPG,AFNE01.JPG,,,,,,,,,,,,,,,,,2,3,23,4,,,,,,,AFNE04.jpg,AFNE13.jpg,AFSA20.jpg,AFSA16.jpg,AFNE04.jpg,FN,3,num_8,32,num_4,0.350160834845,,,2017_Aug_24_1637,60.0094889906,FEMA4ImagesEEG,001,101458,
AFNE01.JPG,AFNE01.JPG,AFNE01.JPG,AFNE01.JPG,AFNE01.JPG,AFNE01.JPG,,,,,,,,,,,,,,,,,2,4,24,3,,,,,,,AFSA05.jpg,AFNE20.jpg,AFSA14.jpg,AFNE19.jpg,AFSA05.jpg,FS,4,num_8,32,num_6,0.516795694944,,,2017_Aug_24_1637,60.0094889906,FEMA4ImagesEEG,001,101458,
AFNE01.JPG,AFNE01.JPG,AFNE01.JPG,AFNE01.JPG,AFNE01.JPG,AFNE01.JPG,,,,,,,,,,,,,,,,,2,5,25,7,,,,,,,AFNE01.jpg,AFSA17.jpg,AFNE11.jpg,AFSA20.jpg,AFNE01.jpg,FN,3,num_8,32,num_4,0.350131647545,,,2017_Aug_24_1637,60.0094889906,FEMA4ImagesEEG,001,101458,
AFNE01.JPG,AFNE01.JPG,AFNE01.JPG,AFNE01.JPG,AFNE01.JPG,AFNE01.JPG,,,,,,,,,,,,,,,,,2,6,26,2,,,,,,,AFNE03.jpg,AFSA12.jpg,AFNE09.jpg,AFSA04.jpg,AFSA12.jpg,FS,4,num_6,32,num_8,0.333476917818,,,2017_Aug_24_1637,60.0094889906,FEMA4ImagesEEG,001,101458,
AFNE01.JPG,AFNE01.JPG,AFNE01.JPG,AFNE01.JPG,AFNE01.JPG,AFNE01.JPG,,,,,,,,,,,,,,,,,2,7,27,9,,,,,,,AFSA01.jpg,AFNE12.jpg,AFSA20.jpg,AFNE04.jpg,AFSA20.jpg,FS,4,num_2,32,num_6,0.583485176903,,,2017_Aug_24_1637,60.0094889906,FEMA4ImagesEEG,001,101458,
AFNE01.JPG,AFNE01.JPG,AFNE01.JPG,AFNE01.JPG,AFNE01.JPG,AFNE01.JPG,,,,,,,,,,,,,,,,,2,8,28,6,,,,,,,AFNE11.jpg,AFNE16.jpg,AFSA04.jpg,AFSA10.jpg,AFSA10.jpg,FS,4,num_4,16,num_4,0.283513049129,,,2017_Aug_24_1637,60.0094889906,FEMA4ImagesEEG,001,101458,
AFNE01.JPG,AFNE01.JPG,AFNE01.JPG,AFNE01.JPG,AFNE01.JPG,AFNE01.JPG,,,,,,,,,,,,,,,,,2,9,29,8,,,,,,,AFSA04.jpg,AFNE12.jpg,AFSA19.jpg,AFNE11.jpg,AFSA19.jpg,FS,4,num_2,32,num_6,0.550240827375,,,2017_Aug_24_1637,60.0094889906,FEMA4ImagesEEG,001,101458,
AFNE01.JPG,AFNE01.JPG,AFNE01.JPG,AFNE01.JPG,AFNE01.JPG,AFNE01.JPG,,,,,,,,,,,,,,,,,3,0,30,9,,,,,,,AFSA17.jpg,AFNE11.jpg,AFSA15.jpg,AFNE15.jpg,AFNE11.jpg,FN,3,num_6,32,num_8,0.700118320878,,,2017_Aug_24_1637,60.0094889906,FEMA4ImagesEEG,001,101458,
AFNE01.JPG,AFNE01.JPG,AFNE01.JPG,AFNE01.JPG,AFNE01.JPG,AFNE01.JPG,,,,,,,,,,,,,,,,,3,1,31,4,,,,,,,AFNE20.jpg,AFSA17.jpg,AFSA11.jpg,AFNE17.jpg,AFSA11.jpg,FS,4,num_2,16,num_2,0.333502576919,,,2017_Aug_24_1637,60.0094889906,FEMA4ImagesEEG,001,101458,
AFNE01.JPG,AFNE01.JPG,AFNE01.JPG,AFNE01.JPG,AFNE01.JPG,AFNE01.JPG,,,,,,,,,,,,,,,,,3,2,32,5,,,,,,,AFSA02.jpg,AFNE05.jpg,AFSA17.jpg,AFNE03.jpg,AFNE03.jpg,FN,3,num_4,32,num_6,0.600124511169,,,2017_Aug_24_1637,60.0094889906,FEMA4ImagesEEG,001,101458,
AFNE01.JPG,AFNE01.JPG,AFNE01.JPG,AFNE01.JPG,AFNE01.JPG,AFNE01.JPG,,,,,,,,,,,,,,,,,3,3,33,6,,,,,,,AFSA19.jpg,AFNE14.jpg,AFNE08.jpg,AFSA20.jpg,AFNE08.jpg,FN,3,num_2,32,num_8,1.03356220259,,,2017_Aug_24_1637,60.0094889906,FEMA4ImagesEEG,001,101458,
AFNE01.JPG,AFNE01.JPG,AFNE01.JPG,AFNE01.JPG,AFNE01.JPG,AFNE01.JPG,,,,,,,,,,,,,,,,,3,4,34,2,,,,,,,AFSA05.jpg,AFSA17.jpg,AFNE13.jpg,AFNE18.jpg,AFNE18.jpg,FN,3,num_4,16,num_4,0.866763765225,,,2017_Aug_24_1637,60.0094889906,FEMA4ImagesEEG,001,101458,
AFNE01.JPG,AFNE01.JPG,AFNE01.JPG,AFNE01.JPG,AFNE01.JPG,AFNE01.JPG,,,,,,,,,,,,,,,,,3,5,35,1,,,,,,,AFSA18.jpg,AFSA14.jpg,AFNE20.jpg,AFNE04.jpg,AFNE20.jpg,FN,3,num_2,32,num_6,1.08357803093,,,2017_Aug_24_1637,60.0094889906,FEMA4ImagesEEG,001,101458,
AFNE01.JPG,AFNE01.JPG,AFNE01.JPG,AFNE01.JPG,AFNE01.JPG,AFNE01.JPG,,,,,,,,,,,,,,,,,3,6,36,7,,,,,,,AFNE15.jpg,AFSA13.jpg,AFNE17.jpg,AFSA09.jpg,AFNE15.jpg,FN,3,num_8,16,num_8,0.500256110681,,,2017_Aug_24_1637,60.0094889906,FEMA4ImagesEEG,001,101458,
AFNE01.JPG,AFNE01.JPG,AFNE01.JPG,AFNE01.JPG,AFNE01.JPG,AFNE01.JPG,,,,,,,,,,,,,,,,,3,7,37,3,,,,,,,AFSA15.jpg,AFSA01.jpg,AFNE03.jpg,AFNE17.jpg,AFSA01.jpg,FS,4,num_6,32,num_8,0.550023045158,,,2017_Aug_24_1637,60.0094889906,FEMA4ImagesEEG,001,101458,
AFNE01.JPG,AFNE01.JPG,AFNE01.JPG,AFNE01.JPG,AFNE01.JPG,AFNE01.JPG,,,,,,,,,,,,,,,,,3,8,38,8,,,,,,,AFSA07.jpg,AFNE05.jpg,AFSA05.jpg,AFNE14.jpg,AFSA05.jpg,FS,4,num_2,32,num_6,0.533471593517,,,2017_Aug_24_1637,60.0094889906,FEMA4ImagesEEG,001,101458,
AFNE01.JPG,AFNE01.JPG,AFNE01.JPG,AFNE01.JPG,AFNE01.JPG,AFNE01.JPG,,,,,,,,,,,,,,,,,3,9,39,0,,,,,,,AFNE16.jpg,AFSA16.jpg,AFSA09.jpg,AFNE11.jpg,AFSA09.jpg,FS,4,num_2,32,num_4,0.350199003005,,,2017_Aug_24_1637,60.0094889906,FEMA4ImagesEEG,001,101458,
AFNE01.JPG,AFNE01.JPG,AFNE01.JPG,AFNE01.JPG,AFNE01.JPG,AFNE01.JPG,,,,,,,,,,,,,,,,,4,0,40,6,,,,,,,AFNE13.jpg,AFSA04.jpg,AFNE04.jpg,AFSA16.jpg,AFSA16.jpg,FS,4,num_4,32,num_8,0.300189268426,,,2017_Aug_24_1637,60.0094889906,FEMA4ImagesEEG,001,101458,
AFNE01.JPG,AFNE01.JPG,AFNE01.JPG,AFNE01.JPG,AFNE01.JPG,AFNE01.JPG,,,,,,,,,,,,,,,,,4,1,41,8,,,,,,,AFSA14.jpg,AFNE03.jpg,AFSA06.jpg,AFNE16.jpg,AFNE03.jpg,FN,3,num_6,16,num_6,0.266826566076,,,2017_Aug_24_1637,60.0094889906,FEMA4ImagesEEG,001,101458,
AFNE01.JPG,AFNE01.JPG,AFNE01.JPG,AFNE01.JPG,AFNE01.JPG,AFNE01.JPG,,,,,,,,,,,,,,,,,4,2,42,0,,,,,,,AFNE05.jpg,AFNE02.jpg,AFSA01.jpg,AFSA08.jpg,AFSA01.jpg,FS,4,num_2,16,num_2,0.40014362731,,,2017_Aug_24_1637,60.0094889906,FEMA4ImagesEEG,001,101458,
AFNE01.JPG,AFNE01.JPG,AFNE01.JPG,AFNE01.JPG,AFNE01.JPG,AFNE01.JPG,,,,,,,,,,,,,,,,,4,3,43,7,,,,,,,AFNE11.jpg,AFSA17.jpg,AFNE20.jpg,AFSA13.jpg,AFSA13.jpg,FS,4,num_4,32,num_6,1.15006031503,,,2017_Aug_24_1637,60.0094889906,FEMA4ImagesEEG,001,101458,
AFNE01.JPG,AFNE01.JPG,AFNE01.JPG,AFNE01.JPG,AFNE01.JPG,AFNE01.JPG,,,,,,,,,,,,,,,,,4,4,44,3,,,,,,,AFNE08.jpg,AFSA03.jpg,AFSA15.jpg,AFNE14.jpg,AFSA03.jpg,FS,4,num_6,16,num_6,0.600116171874,,,2017_Aug_24_1637,60.0094889906,FEMA4ImagesEEG,001,101458,
AFNE01.JPG,AFNE01.JPG,AFNE01.JPG,AFNE01.JPG,AFNE01.JPG,AFNE01.JPG,,,,,,,,,,,,,,,,,4,5,45,2,,,,,,,AFNE06.jpg,AFSA07.jpg,AFNE03.jpg,AFSA12.jpg,AFSA07.jpg,FS,4,num_6,16,num_6,0.866990207578,,,2017_Aug_24_1637,60.0094889906,FEMA4ImagesEEG,001,101458,
AFNE01.JPG,AFNE01.JPG,AFNE01.JPG,AFNE01.JPG,AFNE01.JPG,AFNE01.JPG,,,,,,,,,,,,,,,,,4,6,46,5,,,,,,,AFSA11.jpg,AFSA04.jpg,AFNE20.jpg,AFNE03.jpg,AFNE03.jpg,FN,3,num_4,32,num_8,0.250130140106,,,2017_Aug_24_1637,60.0094889906,FEMA4ImagesEEG,001,101458,
AFNE01.JPG,AFNE01.JPG,AFNE01.JPG,AFNE01.JPG,AFNE01.JPG,AFNE01.JPG,,,,,,,,,,,,,,,,,4,7,47,9,,,,,,,AFNE10.jpg,AFSA07.jpg,AFSA20.jpg,AFNE19.jpg,AFNE10.jpg,FN,3,num_8,32,num_2,0.250264209229,,,2017_Aug_24_1637,60.0094889906,FEMA4ImagesEEG,001,101458,
AFNE01.JPG,AFNE01.JPG,AFNE01.JPG,AFNE01.JPG,AFNE01.JPG,AFNE01.JPG,,,,,,,,,,,,,,,,,4,8,48,4,,,,,,,AFNE07.jpg,AFSA09.jpg,AFNE09.jpg,AFSA12.jpg,AFSA09.jpg,FS,4,num_6,16,num_6,0.466822203947,,,2017_Aug_24_1637,60.0094889906,FEMA4ImagesEEG,001,101458,
AFNE01.JPG,AFNE01.JPG,AFNE01.JPG,AFNE01.JPG,AFNE01.JPG,AFNE01.JPG,,,,,,,,,,,,,,,,,4,9,49,1,,,,,,,AFNE16.jpg,AFSA13.jpg,AFSA04.jpg,AFNE01.jpg,AFSA04.jpg,FS,4,num_2,32,num_8,0.300142440479,,,2017_Aug_24_1637,60.0094889906,FEMA4ImagesEEG,001,101458,
AFNE01.JPG,AFNE01.JPG,AFNE01.JPG,AFNE01.JPG,AFNE01.JPG,AFNE01.JPG,,,,,,,,,,,,,,,,,5,0,50,1,,,,,,,AFNE05.jpg,AFNE14.jpg,AFSA14.jpg,AFSA17.jpg,AFSA14.jpg,FS,4,num_2,16,num_2,0.533493083087,,,2017_Aug_24_1637,60.0094889906,FEMA4ImagesEEG,001,101458,
AFNE01.JPG,AFNE01.JPG,AFNE01.JPG,AFNE01.JPG,AFNE01.JPG,AFNE01.JPG,,,,,,,,,,,,,,,,,5,1,51,5,,,,,,,AFNE09.jpg,AFNE12.jpg,AFSA08.jpg,AFSA18.jpg,AFNE12.jpg,FN,3,num_6,16,num_6,0.35014768457,,,2017_Aug_24_1637,60.0094889906,FEMA4ImagesEEG,001,101458,
AFNE01.JPG,AFNE01.JPG,AFNE01.JPG,AFNE01.JPG,AFNE01.JPG,AFNE01.JPG,,,,,,,,,,,,,,,,,5,2,52,8,,,,,,,AFSA15.jpg,AFNE02.jpg,AFSA04.jpg,AFNE03.jpg,AFSA04.jpg,FS,4,num_2,32,num_8,0.283391167992,,,2017_Aug_24_1637,60.0094889906,FEMA4ImagesEEG,001,101458,
AFNE01.JPG,AFNE01.JPG,AFNE01.JPG,AFNE01.JPG,AFNE01.JPG,AFNE01.JPG,,,,,,,,,,,,,,,,,5,3,53,9,,,,,,,AFSA19.jpg,AFNE10.jpg,AFSA11.jpg,AFNE15.jpg,AFNE10.jpg,FN,3,num_6,32,num_2,0.300153666409,,,2017_Aug_24_1637,60.0094889906,FEMA4ImagesEEG,001,101458,
AFNE01.JPG,AFNE01.JPG,AFNE01.JPG,AFNE01.JPG,AFNE01.JPG,AFNE01.JPG,,,,,,,,,,,,,,,,,5,4,54,4,,,,,,,AFSA19.jpg,AFNE08.jpg,AFNE15.jpg,AFSA05.jpg,AFNE08.jpg,FN,3,num_6,32,num_2,0.0668104008073,,,2017_Aug_24_1637,60.0094889906,FEMA4ImagesEEG,001,101458,
AFNE01.JPG,AFNE01.JPG,AFNE01.JPG,AFNE01.JPG,AFNE01.JPG,AFNE01.JPG,,,,,,,,,,,,,,,,,5,5,55,0,,,,,,,AFNE06.jpg,AFNE12.jpg,AFSA11.jpg,AFSA20.jpg,AFNE12.jpg,FN,3,num_6,32,num_8,0.500116909621,,,2017_Aug_24_1637,60.0094889906,FEMA4ImagesEEG,001,101458,
AFNE01.JPG,AFNE01.JPG,AFNE01.JPG,AFNE01.JPG,AFNE01.JPG,AFNE01.JPG,,,,,,,,,,,,,,,,,5,6,56,7,,,,,,,AFNE17.jpg,AFNE09.jpg,AFSA06.jpg,AFSA12.jpg,AFNE17.jpg,FN,3,num_8,32,num_4,0.533500139369,,,2017_Aug_24_1637,60.0094889906,FEMA4ImagesEEG,001,101458,
AFNE01.JPG,AFNE01.JPG,AFNE01.JPG,AFNE01.JPG,AFNE01.JPG,AFNE01.JPG,,,,,,,,,,,,,,,,,5,7,57,2,,,,,,,AFSA20.jpg,AFSA06.jpg,AFNE09.jpg,AFNE01.jpg,AFNE09.jpg,FN,3,num_2,32,num_6,0.316781454138,,,2017_Aug_24_1637,60.0094889906,FEMA4ImagesEEG,001,101458,
AFNE01.JPG,AFNE01.JPG,AFNE01.JPG,AFNE01.JPG,AFNE01.JPG,AFNE01.JPG,,,,,,,,,,,,,,,,,5,8,58,6,,,,,,,AFSA19.jpg,AFNE03.jpg,AFSA02.jpg,AFNE01.jpg,AFNE03.jpg,FN,3,num_6,32,num_8,0.616721828468,,,2017_Aug_24_1637,60.0094889906,FEMA4ImagesEEG,001,101458,
AFNE01.JPG,AFNE01.JPG,AFNE01.JPG,AFNE01.JPG,AFNE01.JPG,AFNE01.JPG,,,,,,,,,,,,,,,,,5,9,59,3,,,,,,,AFNE05.jpg,AFNE08.jpg,AFSA14.jpg,AFSA07.jpg,AFNE08.jpg,FN,3,num_6,16,num_6,0.300106196897,,,2017_Aug_24_1637,60.0094889906,FEMA4ImagesEEG,001,101458,
,,,,,,,,,,,,,,,,,,,,,,,,,,,,,,,,,,,,,,,,,,,space,22.8986857049,2017_Aug_24_1637,60.0094889906,FEMA4ImagesEEG,001,101458,
AFNE01.JPG,AFNE01.JPG,AFNE01.JPG,AFNE01.JPG,AFNE01.JPG,AFNE01.JPG,,,,,,,,,,,,,,,,,,,,,0,0,0,9,,,AMNE05.jpg,AMNE04.jpg,AMSA14.jpg,AMSA04.jpg,AMNE05.jpg,MN,1,num_8,16,num_8,0.483344147564,,,2017_Aug_24_1637,60.0094889906,FEMA4ImagesEEG,001,101458,
AFNE01.JPG,AFNE01.JPG,AFNE01.JPG,AFNE01.JPG,AFNE01.JPG,AFNE01.JPG,,,,,,,,,,,,,,,,,,,,,0,1,1,6,,,AMSA09.jpg,AMNE07.jpg,AMSA16.jpg,AMNE14.jpg,AMSA16.jpg,MS,2,num_2,16,num_2,0.85009428137,,,2017_Aug_24_1637,60.0094889906,FEMA4ImagesEEG,001,101458,
AFNE01.JPG,AFNE01.JPG,AFNE01.JPG,AFNE01.JPG,AFNE01.JPG,AFNE01.JPG,,,,,,,,,,,,,,,,,,,,,0,2,2,8,,,AMNE04.jpg,AMSA01.jpg,AMNE14.jpg,AMSA20.jpg,AMSA20.jpg,MS,2,num_4,32,num_6,0.250191401341,,,2017_Aug_24_1637,60.0094889906,FEMA4ImagesEEG,001,101458,
AFNE01.JPG,AFNE01.JPG,AFNE01.JPG,AFNE01.JPG,AFNE01.JPG,AFNE01.JPG,,,,,,,,,,,,,,,,,,,,,0,3,3,7,,,AMSA05.jpg,AMNE07.jpg,AMSA03.jpg,AMNE19.jpg,AMNE19.jpg,MN,1,num_4,32,num_8,0.483487197547,,,2017_Aug_24_1637,60.0094889906,FEMA4ImagesEEG,001,101458,
AFNE01.JPG,AFNE01.JPG,AFNE01.JPG,AFNE01.JPG,AFNE01.JPG,AFNE01.JPG,,,,,,,,,,,,,,,,,,,,,0,4,4,5,,,AMSA16.jpg,AMSA09.jpg,AMNE12.jpg,AMNE04.jpg,AMNE04.jpg,MN,1,num_4,16,num_4,0.350124591263,,,2017_Aug_24_1637,60.0094889906,FEMA4ImagesEEG,001,101458,
AFNE01.JPG,AFNE01.JPG,AFNE01.JPG,AFNE01.JPG,AFNE01.JPG,AFNE01.JPG,,,,,,,,,,,,,,,,,,,,,0,5,5,1,,,AMSA19.jpg,AMSA13.jpg,AMNE16.jpg,AMNE08.jpg,AMNE08.jpg,MN,1,num_4,32,num_8,0.383472860442,,,2017_Aug_24_1637,60.0094889906,FEMA4ImagesEEG,001,101458,
AFNE01.JPG,AFNE01.JPG,AFNE01.JPG,AFNE01.JPG,AFNE01.JPG,AFNE01.JPG,,,,,,,,,,,,,,,,,,,,,0,6,6,4,,,AMNE06.jpg,AMSA02.jpg,AMNE01.jpg,AMSA17.jpg,AMSA02.jpg,MS,2,num_6,32,num_4,0.350146722398,,,2017_Aug_24_1637,60.0094889906,FEMA4ImagesEEG,001,101458,
AFNE01.JPG,AFNE01.JPG,AFNE01.JPG,AFNE01.JPG,AFNE01.JPG,AFNE01.JPG,,,,,,,,,,,,,,,,,,,,,0,7,7,0,,,AMNE19.jpg,AMSA13.jpg,AMSA01.jpg,AMNE04.jpg,AMNE04.jpg,MN,1,num_4,32,num_6,0.316772152553,,,2017_Aug_24_1637,60.0094889906,FEMA4ImagesEEG,001,101458,
AFNE01.JPG,AFNE01.JPG,AFNE01.JPG,AFNE01.JPG,AFNE01.JPG,AFNE01.JPG,,,,,,,,,,,,,,,,,,,,,0,8,8,3,,,AMSA04.jpg,AMNE10.jpg,AMNE16.jpg,AMSA09.jpg,AMNE16.jpg,MN,1,num_2,16,num_2,0.833519415813,,,2017_Aug_24_1637,60.0094889906,FEMA4ImagesEEG,001,101458,
AFNE01.JPG,AFNE01.JPG,AFNE01.JPG,AFNE01.JPG,AFNE01.JPG,AFNE01.JPG,,,,,,,,,,,,,,,,,,,,,0,9,9,2,,,AMNE15.jpg,AMNE12.jpg,AMSA09.jpg,AMSA01.jpg,AMSA09.jpg,MS,2,num_2,32,num_8,0.33349167183,,,2017_Aug_24_1637,60.0094889906,FEMA4ImagesEEG,001,101458,
AFNE01.JPG,AFNE01.JPG,AFNE01.JPG,AFNE01.JPG,AFNE01.JPG,AFNE01.JPG,,,,,,,,,,,,,,,,,,,,,1,0,10,4,,,AMNE07.jpg,AMSA16.jpg,AMSA09.jpg,AMNE01.jpg,AMNE01.jpg,MN,1,num_4,16,num_4,0.383473181166,,,2017_Aug_24_1637,60.0094889906,FEMA4ImagesEEG,001,101458,
AFNE01.JPG,AFNE01.JPG,AFNE01.JPG,AFNE01.JPG,AFNE01.JPG,AFNE01.JPG,,,,,,,,,,,,,,,,,,,,,1,1,11,9,,,AMNE20.jpg,AMSA15.jpg,AMNE14.jpg,AMSA20.jpg,AMNE14.jpg,MN,1,num_2,32,num_6,0.55013883207,,,2017_Aug_24_1637,60.0094889906,FEMA4ImagesEEG,001,101458,
AFNE01.JPG,AFNE01.JPG,AFNE01.JPG,AFNE01.JPG,AFNE01.JPG,AFNE01.JPG,,,,,,,,,,,,,,,,,,,,,1,2,12,1,,,AMSA16.jpg,AMNE10.jpg,AMSA04.jpg,AMNE01.jpg,AMNE01.jpg,MN,1,num_4,32,num_2,0.3501589105,,,2017_Aug_24_1637,60.0094889906,FEMA4ImagesEEG,001,101458,
AFNE01.JPG,AFNE01.JPG,AFNE01.JPG,AFNE01.JPG,AFNE01.JPG,AFNE01.JPG,,,,,,,,,,,,,,,,,,,,,1,3,13,5,,,AMNE03.jpg,AMSA02.jpg,AMNE06.jpg,AMSA09.jpg,AMNE03.jpg,MN,1,num_8,16,num_8,0.250268699718,,,2017_Aug_24_1637,60.0094889906,FEMA4ImagesEEG,001,101458,
AFNE01.JPG,AFNE01.JPG,AFNE01.JPG,AFNE01.JPG,AFNE01.JPG,AFNE01.JPG,,,,,,,,,,,,,,,,,,,,,1,4,14,2,,,AMSA13.jpg,AMNE20.jpg,AMNE07.jpg,AMSA07.jpg,AMNE20.jpg,MN,1,num_6,16,num_6,0.250231814571,,,2017_Aug_24_1637,60.0094889906,FEMA4ImagesEEG,001,101458,
AFNE01.JPG,AFNE01.JPG,AFNE01.JPG,AFNE01.JPG,AFNE01.JPG,AFNE01.JPG,,,,,,,,,,,,,,,,,,,,,1,5,15,6,,,AMNE14.jpg,AMNE18.jpg,AMSA04.jpg,AMSA14.jpg,AMSA04.jpg,MS,2,num_2,16,num_2,0.333480125177,,,2017_Aug_24_1637,60.0094889906,FEMA4ImagesEEG,001,101458,
AFNE01.JPG,AFNE01.JPG,AFNE01.JPG,AFNE01.JPG,AFNE01.JPG,AFNE01.JPG,,,,,,,,,,,,,,,,,,,,,1,6,16,0,,,AMNE12.jpg,AMNE14.jpg,AMSA02.jpg,AMSA19.jpg,AMSA02.jpg,MS,2,num_2,32,num_8,0.31650144828,,,2017_Aug_24_1637,60.0094889906,FEMA4ImagesEEG,001,101458,
AFNE01.JPG,AFNE01.JPG,AFNE01.JPG,AFNE01.JPG,AFNE01.JPG,AFNE01.JPG,,,,,,,,,,,,,,,,,,,,,1,7,17,8,,,AMNE15.jpg,AMSA10.jpg,AMNE06.jpg,AMSA20.jpg,AMNE15.jpg,MN,1,num_8,32,num_4,0.300153987133,,,2017_Aug_24_1637,60.0094889906,FEMA4ImagesEEG,001,101458,
AFNE01.JPG,AFNE01.JPG,AFNE01.JPG,AFNE01.JPG,AFNE01.JPG,AFNE01.JPG,,,,,,,,,,,,,,,,,,,,,1,8,18,7,,,AMNE10.jpg,AMNE17.jpg,AMSA20.jpg,AMSA15.jpg,AMSA20.jpg,MS,2,num_2,32,num_6,0.466782432399,,,2017_Aug_24_1637,60.0094889906,FEMA4ImagesEEG,001,101458,
AFNE01.JPG,AFNE01.JPG,AFNE01.JPG,AFNE01.JPG,AFNE01.JPG,AFNE01.JPG,,,,,,,,,,,,,,,,,,,,,1,9,19,3,,,AMSA08.jpg,AMSA07.jpg,AMNE10.jpg,AMNE15.jpg,AMSA08.jpg,MS,2,num_8,16,num_8,0.333512519952,,,2017_Aug_24_1637,60.0094889906,FEMA4ImagesEEG,001,101458,
AFNE01.JPG,AFNE01.JPG,AFNE01.JPG,AFNE01.JPG,AFNE01.JPG,AFNE01.JPG,,,,,,,,,,,,,,,,,,,,,2,0,20,5,,,AMNE13.jpg,AMNE05.jpg,AMSA01.jpg,AMSA14.jpg,AMNE05.jpg,MN,1,num_6,32,num_4,0.300162967877,,,2017_Aug_24_1637,60.0094889906,FEMA4ImagesEEG,001,101458,
AFNE01.JPG,AFNE01.JPG,AFNE01.JPG,AFNE01.JPG,AFNE01.JPG,AFNE01.JPG,,,,,,,,,,,,,,,,,,,,,2,1,21,4,,,AMSA18.jpg,AMNE15.jpg,AMNE14.jpg,AMSA16.jpg,AMNE15.jpg,MN,1,num_6,16,num_6,0.283487069188,,,2017_Aug_24_1637,60.0094889906,FEMA4ImagesEEG,001,101458,
AFNE01.JPG,AFNE01.JPG,AFNE01.JPG,AFNE01.JPG,AFNE01.JPG,AFNE01.JPG,,,,,,,,,,,,,,,,,,,,,2,2,22,1,,,AMSA17.jpg,AMNE08.jpg,AMSA02.jpg,AMNE06.jpg,AMNE08.jpg,MN,1,num_6,32,num_8,0.250231173239,,,2017_Aug_24_1637,60.0094889906,FEMA4ImagesEEG,001,101458,
AFNE01.JPG,AFNE01.JPG,AFNE01.JPG,AFNE01.JPG,AFNE01.JPG,AFNE01.JPG,,,,,,,,,,,,,,,,,,,,,2,3,23,3,,,AMNE10.jpg,AMSA08.jpg,AMSA06.jpg,AMNE08.jpg,AMNE08.jpg,MN,1,num_4,32,num_2,0.316841753083,,,2017_Aug_24_1637,60.0094889906,FEMA4ImagesEEG,001,101458,
AFNE01.JPG,AFNE01.JPG,AFNE01.JPG,AFNE01.JPG,AFNE01.JPG,AFNE01.JPG,,,,,,,,,,,,,,,,,,,,,2,4,24,9,,,AMSA02.jpg,AMNE05.jpg,AMSA16.jpg,AMNE15.jpg,AMNE05.jpg,MN,1,num_6,32,num_4,0.366796320421,,,2017_Aug_24_1637,60.0094889906,FEMA4ImagesEEG,001,101458,
AFNE01.JPG,AFNE01.JPG,AFNE01.JPG,AFNE01.JPG,AFNE01.JPG,AFNE01.JPG,,,,,,,,,,,,,,,,,,,,,2,5,25,0,,,AMSA07.jpg,AMNE02.jpg,AMNE16.jpg,AMSA03.jpg,AMSA03.jpg,MS,2,num_4,32,num_6,0.516770677292,,,2017_Aug_24_1637,60.0094889906,FEMA4ImagesEEG,001,101458,
AFNE01.JPG,AFNE01.JPG,AFNE01.JPG,AFNE01.JPG,AFNE01.JPG,AFNE01.JPG,,,,,,,,,,,,,,,,,,,,,2,6,26,6,,,AMNE03.jpg,AMSA20.jpg,AMSA15.jpg,AMNE09.jpg,AMNE03.jpg,MN,1,num_8,32,num_4,0.300147572299,,,2017_Aug_24_1637,60.0094889906,FEMA4ImagesEEG,001,101458,
AFNE01.JPG,AFNE01.JPG,AFNE01.JPG,AFNE01.JPG,AFNE01.JPG,AFNE01.JPG,,,,,,,,,,,,,,,,,,,,,2,7,27,8,,,AMSA20.jpg,AMNE02.jpg,AMNE18.jpg,AMSA13.jpg,AMNE02.jpg,MN,1,num_6,32,num_8,0.166787532158,,,2017_Aug_24_1637,60.0094889906,FEMA4ImagesEEG,001,101458,
AFNE01.JPG,AFNE01.JPG,AFNE01.JPG,AFNE01.JPG,AFNE01.JPG,AFNE01.JPG,,,,,,,,,,,,,,,,,,,,,2,8,28,7,,,AMNE19.jpg,AMNE01.jpg,AMSA08.jpg,AMSA11.jpg,AMSA11.jpg,MS,2,num_4,32,num_6,0.300016069086,,,2017_Aug_24_1637,60.0094889906,FEMA4ImagesEEG,001,101458,
AFNE01.JPG,AFNE01.JPG,AFNE01.JPG,AFNE01.JPG,AFNE01.JPG,AFNE01.JPG,,,,,,,,,,,,,,,,,,,,,2,9,29,2,,,AMSA13.jpg,AMNE09.jpg,AMSA04.jpg,AMNE16.jpg,AMNE09.jpg,MN,1,num_6,32,num_2,0.299823304405,,,2017_Aug_24_1637,60.0094889906,FEMA4ImagesEEG,001,101458,
AFNE01.JPG,AFNE01.JPG,AFNE01.JPG,AFNE01.JPG,AFNE01.JPG,AFNE01.JPG,,,,,,,,,,,,,,,,,,,,,3,0,30,5,,,AMSA07.jpg,AMNE18.jpg,AMNE05.jpg,AMSA05.jpg,AMSA07.jpg,MS,2,num_8,32,num_4,0.383531555766,,,2017_Aug_24_1637,60.0094889906,FEMA4ImagesEEG,001,101458,
AFNE01.JPG,AFNE01.JPG,AFNE01.JPG,AFNE01.JPG,AFNE01.JPG,AFNE01.JPG,,,,,,,,,,,,,,,,,,,,,3,1,31,9,,,AMNE08.jpg,AMSA10.jpg,AMSA12.jpg,AMNE02.jpg,AMNE08.jpg,MN,1,num_8,16,num_8,0.317039008136,,,2017_Aug_24_1637,60.0094889906,FEMA4ImagesEEG,001,101458,
AFNE01.JPG,AFNE01.JPG,AFNE01.JPG,AFNE01.JPG,AFNE01.JPG,AFNE01.JPG,,,,,,,,,,,,,,,,,,,,,3,2,32,6,,,AMNE03.jpg,AMNE10.jpg,AMSA02.jpg,AMSA09.jpg,AMNE03.jpg,MN,1,num_8,32,num_6,0.567086397321,,,2017_Aug_24_1637,60.0094889906,FEMA4ImagesEEG,001,101458,
AFNE01.JPG,AFNE01.JPG,AFNE01.JPG,AFNE01.JPG,AFNE01.JPG,AFNE01.JPG,,,,,,,,,,,,,,,,,,,,,3,3,33,1,,,AMNE19.jpg,AMSA06.jpg,AMSA07.jpg,AMNE18.jpg,AMNE19.jpg,MN,1,num_8,32,num_4,0.300144044217,,,2017_Aug_24_1637,60.0094889906,FEMA4ImagesEEG,001,101458,
AFNE01.JPG,AFNE01.JPG,AFNE01.JPG,AFNE01.JPG,AFNE01.JPG,AFNE01.JPG,,,,,,,,,,,,,,,,,,,,,3,4,34,7,,,AMNE12.jpg,AMSA05.jpg,AMSA08.jpg,AMNE01.jpg,AMNE01.jpg,MN,1,num_4,32,num_6,0.366799527663,,,2017_Aug_24_1637,60.0094889906,FEMA4ImagesEEG,001,101458,
AFNE01.JPG,AFNE01.JPG,AFNE01.JPG,AFNE01.JPG,AFNE01.JPG,AFNE01.JPG,,,,,,,,,,,,,,,,,,,,,3,5,35,2,,,AMNE18.jpg,AMSA08.jpg,AMSA18.jpg,AMNE11.jpg,AMSA18.jpg,MS,2,num_2,16,num_2,0.333508671029,,,2017_Aug_24_1637,60.0094889906,FEMA4ImagesEEG,001,101458,
AFNE01.JPG,AFNE01.JPG,AFNE01.JPG,AFNE01.JPG,AFNE01.JPG,AFNE01.JPG,,,,,,,,,,,,,,,,,,,,,3,6,36,4,,,AMNE05.jpg,AMNE14.jpg,AMSA11.jpg,AMSA07.jpg,AMSA07.jpg,MS,2,num_4,32,num_8,0.383517443202,,,2017_Aug_24_1637,60.0094889906,FEMA4ImagesEEG,001,101458,
AFNE01.JPG,AFNE01.JPG,AFNE01.JPG,AFNE01.JPG,AFNE01.JPG,AFNE01.JPG,,,,,,,,,,,,,,,,,,,,,3,7,37,0,,,AMNE15.jpg,AMSA14.jpg,AMSA17.jpg,AMNE11.jpg,AMSA14.jpg,MS,2,num_6,32,num_4,0.283485465567,,,2017_Aug_24_1637,60.0094889906,FEMA4ImagesEEG,001,101458,
AFNE01.JPG,AFNE01.JPG,AFNE01.JPG,AFNE01.JPG,AFNE01.JPG,AFNE01.JPG,,,,,,,,,,,,,,,,,,,,,3,8,38,3,,,AMSA03.jpg,AMNE01.jpg,AMSA18.jpg,AMNE20.jpg,AMNE20.jpg,MN,1,num_4,16,num_4,0.63347374252,,,2017_Aug_24_1637,60.0094889906,FEMA4ImagesEEG,001,101458,
