IPosition2,IPosition3,IPosition1,IPosition6,IPosition4,IPosition5,TrialsM1.thisRepN,TrialsM1.thisTrialN,TrialsM1.thisN,TrialsM1.thisIndex,TrialsF1.thisRepN,TrialsF1.thisTrialN,TrialsF1.thisN,TrialsF1.thisIndex,TrialsM2.thisRepN,TrialsM2.thisTrialN,TrialsM2.thisN,TrialsM2.thisIndex,TrialsF2.thisRepN,TrialsF2.thisTrialN,TrialsF2.thisN,TrialsF2.thisIndex,TrialsM3.thisRepN,TrialsM3.thisTrialN,TrialsM3.thisN,TrialsM3.thisIndex,TrialsF3.thisRepN,TrialsF3.thisTrialN,TrialsF3.thisN,TrialsF3.thisIndex,InstrKey_resp.keys,InstrKey_resp.rt,Image0 _Position,Image1 _Position,Image2 _Position,Image3 _Position,Center_image,condition,code,correct_answer,accuracy,Key_Resp.keys,Key_Resp.rt,BreakKey_resp.keys,BreakKey_resp.rt,date,frameRate,expName,session,participant,
,,,,,,,,,,,,,,,,,,,,,,,,,,,,,,space,10.4828097953,,,,,,,,,,,,,,2017_Sep_11_1733,60.0131852557,MAFE4ImagesEEG,001,101569,
AFNE23.JPG,AFNE24.JPG,AFNE22.JPG,AFSA24.JPG,AFSA22.JPG,AFSA23.JPG,0,0,0,8,,,,,,,,,,,,,,,,,,,,,,,AMNE07.jpg,AMNE03.jpg,AMSA07.jpg,AMSA16.jpg,AMNE03.jpg,MN,1,num_6,16,num_6,1.61681805062,,,2017_Sep_11_1733,60.0131852557,MAFE4ImagesEEG,001,101569,
AFSA25.JPG,AFNE24.JPG,AFSA24.JPG,AFNE21.JPG,AFSA21.JPG,AFNE25.JPG,0,1,1,2,,,,,,,,,,,,,,,,,,,,,,,AMSA03.jpg,AMSA04.jpg,AMNE01.jpg,AMNE08.jpg,AMSA04.jpg,MS,2,num_6,16,num_6,0.96676783869,,,2017_Sep_11_1733,60.0131852557,MAFE4ImagesEEG,001,101569,
AMNE22.JPG,AMSA24.JPG,AMSA22.JPG,AMNE25.JPG,AMNE24.JPG,AMSA25.JPG,0,2,2,7,,,,,,,,,,,,,,,,,,,,,,,AMNE05.jpg,AMSA09.jpg,AMSA07.jpg,AMNE03.jpg,AMNE05.jpg,MN,1,num_8,32,num_4,1.83339849696,,,2017_Sep_11_1733,60.0131852557,MAFE4ImagesEEG,001,101569,
AFSA21.JPG,AFNE23.JPG,AFNE21.JPG,AFSA25.JPG,AFNE25.JPG,AFSA23.JPG,0,3,3,4,,,,,,,,,,,,,,,,,,,,,,,AMSA18.jpg,AMSA06.jpg,AMNE19.jpg,AMNE09.jpg,AMNE19.jpg,MN,1,num_2,16,num_2,1.75034263032,,,2017_Sep_11_1733,60.0131852557,MAFE4ImagesEEG,001,101569,
AMNE23.JPG,AMNE24.JPG,AMNE22.JPG,AMSA24.JPG,AMSA22.JPG,AMSA23.JPG,0,4,4,9,,,,,,,,,,,,,,,,,,,,,,,AMNE11.jpg,AMSA05.jpg,AMNE10.jpg,AMSA04.jpg,AMSA04.jpg,MS,2,num_4,32,num_8,2.25003872928,,,2017_Sep_11_1733,60.0131852557,MAFE4ImagesEEG,001,101569,
AFSA21.JPG,AFNE22.JPG,AFNE21.JPG,AFSA23.JPG,AFSA22.JPG,AFNE23.JPG,0,5,5,0,,,,,,,,,,,,,,,,,,,,,,,AMSA14.jpg,AMNE13.jpg,AMNE05.jpg,AMSA03.jpg,AMSA03.jpg,MS,2,num_4,32,num_6,3.53449475323,,,2017_Sep_11_1733,60.0131852557,MAFE4ImagesEEG,001,101569,
AMSA25.JPG,AMNE24.JPG,AMSA24.JPG,AMNE26.JPG,AMSA21.JPG,AMNE25.JPG,0,6,6,3,,,,,,,,,,,,,,,,,,,,,,,AMNE08.jpg,AMSA06.jpg,AMNE19.jpg,AMSA03.jpg,AMNE19.jpg,MN,1,num_2,32,num_8,1.6833744254,,,2017_Sep_11_1733,60.0131852557,MAFE4ImagesEEG,001,101569,
AMSA21.JPG,AMNE22.JPG,AMNE21.JPG,AMSA23.JPG,AMSA22.JPG,AMNE23.JPG,0,7,7,1,,,,,,,,,,,,,,,,,,,,,,,AMNE01.jpg,AMSA05.jpg,AMNE08.jpg,AMSA04.jpg,AMSA05.jpg,MS,2,num_6,32,num_2,3.39996497543,,,2017_Sep_11_1733,60.0131852557,MAFE4ImagesEEG,001,101569,
AFNE22.JPG,AFSA24.JPG,AFSA22.JPG,AFNE25.JPG,AFNE24.JPG,AFSA25.JPG,0,8,8,6,,,,,,,,,,,,,,,,,,,,,,,AMNE03.jpg,AMSA09.jpg,AMSA15.jpg,AMNE16.jpg,AMNE03.jpg,MN,1,num_8,16,num_8,2.53360085166,,,2017_Sep_11_1733,60.0131852557,MAFE4ImagesEEG,001,101569,
AMSA21.JPG,AMNE23.JPG,AMNE21.JPG,AMSA25.JPG,AMNE25.JPG,AMSA23.JPG,0,9,9,5,,,,,,,,,,,,,,,,,,,,,,,AMSA06.jpg,AMSA11.jpg,AMNE13.jpg,AMNE09.jpg,AMNE13.jpg,MN,1,num_2,32,num_4,2.58329273295,,,2017_Sep_11_1733,60.0131852557,MAFE4ImagesEEG,001,101569,
AFNE22.JPG,AFSA24.JPG,AFSA22.JPG,AFNE25.JPG,AFNE24.JPG,AFSA25.JPG,,,,,0,0,0,6,,,,,,,,,,,,,,,,,,,AFSA09.jpg,AFNE16.jpg,AFSA04.jpg,AFNE18.jpg,AFSA09.jpg,FS,4,num_8,32,num_4,2.50000753743,,,2017_Sep_11_1733,60.0131852557,MAFE4ImagesEEG,001,101569,
AFNE23.JPG,AFNE24.JPG,AFNE22.JPG,AFSA24.JPG,AFSA22.JPG,AFSA23.JPG,,,,,0,1,1,8,,,,,,,,,,,,,,,,,,,AFNE11.jpg,AFSA06.jpg,AFNE17.jpg,AFSA12.jpg,AFNE11.jpg,FN,3,num_8,16,num_8,1.75005107792,,,2017_Sep_11_1733,60.0131852557,MAFE4ImagesEEG,001,101569,
AMSA21.JPG,AMNE22.JPG,AMNE21.JPG,AMSA23.JPG,AMSA22.JPG,AMNE23.JPG,,,,,0,2,2,1,,,,,,,,,,,,,,,,,,,AFSA03.jpg,AFNE10.jpg,AFNE14.jpg,AFSA20.jpg,AFNE10.jpg,FN,3,num_6,32,num_2,1.48342144582,,,2017_Sep_11_1733,60.0131852557,MAFE4ImagesEEG,001,101569,
AFSA21.JPG,AFNE22.JPG,AFNE21.JPG,AFSA23.JPG,AFSA22.JPG,AFNE23.JPG,,,,,0,3,3,0,,,,,,,,,,,,,,,,,,,AFSA08.jpg,AFSA17.jpg,AFNE06.jpg,AFNE20.jpg,AFNE06.jpg,FN,3,num_2,32,num_8,1.81674280507,,,2017_Sep_11_1733,60.0131852557,MAFE4ImagesEEG,001,101569,
AFSA25.JPG,AFNE24.JPG,AFSA24.JPG,AFNE21.JPG,AFSA21.JPG,AFNE25.JPG,,,,,0,4,4,2,,,,,,,,,,,,,,,,,,,AFNE05.jpg,AFSA06.jpg,AFSA19.jpg,AFNE13.jpg,AFNE13.jpg,FN,3,num_4,32,num_2,2.15000867611,,,2017_Sep_11_1733,60.0131852557,MAFE4ImagesEEG,001,101569,
AMNE22.JPG,AMSA24.JPG,AMSA22.JPG,AMNE25.JPG,AMNE24.JPG,AMSA25.JPG,,,,,0,5,5,7,,,,,,,,,,,,,,,,,,,AFSA03.jpg,AFNE18.jpg,AFNE10.jpg,AFSA02.jpg,AFNE18.jpg,FN,3,num_6,16,num_6,2.28346173069,,,2017_Sep_11_1733,60.0131852557,MAFE4ImagesEEG,001,101569,
AMSA25.JPG,AMNE24.JPG,AMSA24.JPG,AMNE26.JPG,AMSA21.JPG,AMNE25.JPG,,,,,0,6,6,3,,,,,,,,,,,,,,,,,,,AFSA20.jpg,AFSA11.jpg,AFNE05.jpg,AFNE13.jpg,AFSA20.jpg,FS,4,num_8,16,num_8,2.6667601089,,,2017_Sep_11_1733,60.0131852557,MAFE4ImagesEEG,001,101569,
AMSA21.JPG,AMNE23.JPG,AMNE21.JPG,AMSA25.JPG,AMNE25.JPG,AMSA23.JPG,,,,,0,7,7,5,,,,,,,,,,,,,,,,,,,AFNE13.jpg,AFSA13.jpg,AFNE12.jpg,AFSA08.jpg,AFNE12.jpg,FN,3,num_2,32,num_4,4.04989907914,,,2017_Sep_11_1733,60.0131852557,MAFE4ImagesEEG,001,101569,
AMNE23.JPG,AMNE24.JPG,AMNE22.JPG,AMSA24.JPG,AMSA22.JPG,AMSA23.JPG,,,,,0,8,8,9,,,,,,,,,,,,,,,,,,,AFNE02.jpg,AFSA08.jpg,AFSA03.jpg,AFNE07.jpg,AFSA08.jpg,FS,4,num_6,32,num_2,2.8666091687,,,2017_Sep_11_1733,60.0131852557,MAFE4ImagesEEG,001,101569,
AFSA21.JPG,AFNE23.JPG,AFNE21.JPG,AFSA25.JPG,AFNE25.JPG,AFSA23.JPG,,,,,0,9,9,4,,,,,,,,,,,,,,,,,,,AFSA13.jpg,AFSA03.jpg,AFNE13.jpg,AFNE05.jpg,AFSA13.jpg,FS,4,num_8,16,num_8,1.05018293392,,,2017_Sep_11_1733,60.0131852557,MAFE4ImagesEEG,001,101569,
AMNE22.JPG,AMSA24.JPG,AMSA22.JPG,AMNE25.JPG,AMNE24.JPG,AMSA25.JPG,,,,,,,,,0,0,0,7,,,,,,,,,,,,,,,AMSA13.jpg,AMNE18.jpg,AMSA04.jpg,AMNE12.jpg,AMNE12.jpg,MN,1,num_4,48,None,,,,2017_Sep_11_1733,60.0131852557,MAFE4ImagesEEG,001,101569,
AMSA21.JPG,AMNE23.JPG,AMNE21.JPG,AMSA25.JPG,AMNE25.JPG,AMSA23.JPG,,,,,,,,,0,1,1,5,,,,,,,,,,,,,,,AMSA06.jpg,AMSA08.jpg,AMNE14.jpg,AMNE01.jpg,AMSA06.jpg,MS,2,num_8,32,num_4,1.95002426393,,,2017_Sep_11_1733,60.0131852557,MAFE4ImagesEEG,001,101569,
AMSA21.JPG,AMNE22.JPG,AMNE21.JPG,AMSA23.JPG,AMSA22.JPG,AMNE23.JPG,,,,,,,,,0,2,2,1,,,,,,,,,,,,,,,AMSA13.jpg,AMNE04.jpg,AMNE14.jpg,AMSA16.jpg,AMNE04.jpg,MN,1,num_6,32,num_2,1.00007986417,,,2017_Sep_11_1733,60.0131852557,MAFE4ImagesEEG,001,101569,
AMNE23.JPG,AMNE24.JPG,AMNE22.JPG,AMSA24.JPG,AMSA22.JPG,AMSA23.JPG,,,,,,,,,0,3,3,9,,,,,,,,,,,,,,,AMSA16.jpg,AMNE02.jpg,AMSA07.jpg,AMNE01.jpg,AMNE02.jpg,MN,1,num_6,32,num_4,0.90013705194,,,2017_Sep_11_1733,60.0131852557,MAFE4ImagesEEG,001,101569,
AFSA25.JPG,AFNE24.JPG,AFSA24.JPG,AFNE21.JPG,AFSA21.JPG,AFNE25.JPG,,,,,,,,,0,4,4,2,,,,,,,,,,,,,,,AMSA03.jpg,AMNE10.jpg,AMNE20.jpg,AMSA10.jpg,AMNE10.jpg,MN,1,num_6,32,num_8,2.66660904046,,,2017_Sep_11_1733,60.0131852557,MAFE4ImagesEEG,001,101569,
AFSA21.JPG,AFNE23.JPG,AFNE21.JPG,AFSA25.JPG,AFNE25.JPG,AFSA23.JPG,,,,,,,,,0,5,5,4,,,,,,,,,,,,,,,AMNE12.jpg,AMNE15.jpg,AMSA18.jpg,AMSA01.jpg,AMNE12.jpg,MN,1,num_8,32,num_6,3.66679539019,,,2017_Sep_11_1733,60.0131852557,MAFE4ImagesEEG,001,101569,
AFNE23.JPG,AFNE24.JPG,AFNE22.JPG,AFSA24.JPG,AFSA22.JPG,AFSA23.JPG,,,,,,,,,0,6,6,8,,,,,,,,,,,,,,,AMSA05.jpg,AMNE07.jpg,AMNE14.jpg,AMSA01.jpg,AMNE14.jpg,MN,1,num_2,16,num_2,2.36665230826,,,2017_Sep_11_1733,60.0131852557,MAFE4ImagesEEG,001,101569,
AMSA25.JPG,AMNE24.JPG,AMSA24.JPG,AMNE26.JPG,AMSA21.JPG,AMNE25.JPG,,,,,,,,,0,7,7,3,,,,,,,,,,,,,,,AMSA08.jpg,AMNE06.jpg,AMSA10.jpg,AMNE09.jpg,AMNE09.jpg,MN,1,num_4,32,num_2,2.96683968441,,,2017_Sep_11_1733,60.0131852557,MAFE4ImagesEEG,001,101569,
AFNE22.JPG,AFSA24.JPG,AFSA22.JPG,AFNE25.JPG,AFNE24.JPG,AFSA25.JPG,,,,,,,,,0,8,8,6,,,,,,,,,,,,,,,AMNE07.jpg,AMSA07.jpg,AMNE10.jpg,AMSA19.jpg,AMNE07.jpg,MN,1,num_8,32,num_2,3.54993644543,,,2017_Sep_11_1733,60.0131852557,MAFE4ImagesEEG,001,101569,
AFSA21.JPG,AFNE22.JPG,AFNE21.JPG,AFSA23.JPG,AFSA22.JPG,AFNE23.JPG,,,,,,,,,0,9,9,0,,,,,,,,,,,,,,,AMNE09.jpg,AMNE11.jpg,AMSA01.jpg,AMSA11.jpg,AMSA01.jpg,MS,2,num_2,16,num_2,0.766761936946,,,2017_Sep_11_1733,60.0131852557,MAFE4ImagesEEG,001,101569,
AMNE23.JPG,AMNE24.JPG,AMNE22.JPG,AMSA24.JPG,AMSA22.JPG,AMSA23.JPG,,,,,,,,,,,,,0,0,0,9,,,,,,,,,,,AFSA16.jpg,AFSA11.jpg,AFNE17.jpg,AFNE04.jpg,AFNE17.jpg,FN,3,num_2,32,num_8,0.833451419137,,,2017_Sep_11_1733,60.0131852557,MAFE4ImagesEEG,001,101569,
AFNE23.JPG,AFNE24.JPG,AFNE22.JPG,AFSA24.JPG,AFSA22.JPG,AFSA23.JPG,,,,,,,,,,,,,0,1,1,8,,,,,,,,,,,AFNE01.jpg,AFSA13.jpg,AFNE20.jpg,AFSA17.jpg,AFSA13.jpg,FS,4,num_6,16,num_6,1.5334215581,,,2017_Sep_11_1733,60.0131852557,MAFE4ImagesEEG,001,101569,
AMSA25.JPG,AMNE24.JPG,AMSA24.JPG,AMNE26.JPG,AMSA21.JPG,AMNE25.JPG,,,,,,,,,,,,,0,2,2,3,,,,,,,,,,,AFSA16.jpg,AFSA07.jpg,AFNE19.jpg,AFNE09.jpg,AFNE09.jpg,FN,3,num_4,32,num_6,3.78308534273,,,2017_Sep_11_1733,60.0131852557,MAFE4ImagesEEG,001,101569,
AMSA21.JPG,AMNE22.JPG,AMNE21.JPG,AMSA23.JPG,AMSA22.JPG,AMNE23.JPG,,,,,,,,,,,,,0,3,3,1,,,,,,,,,,,AFSA07.jpg,AFNE11.jpg,AFNE09.jpg,AFSA13.jpg,AFNE11.jpg,FN,3,num_6,32,num_2,1.30010459339,,,2017_Sep_11_1733,60.0131852557,MAFE4ImagesEEG,001,101569,
AFSA25.JPG,AFNE24.JPG,AFSA24.JPG,AFNE21.JPG,AFSA21.JPG,AFNE25.JPG,,,,,,,,,,,,,0,4,4,2,,,,,,,,,,,AFNE03.jpg,AFSA06.jpg,AFSA05.jpg,AFNE09.jpg,AFNE09.jpg,FN,3,num_4,32,num_8,2.93331244239,,,2017_Sep_11_1733,60.0131852557,MAFE4ImagesEEG,001,101569,
AFSA21.JPG,AFNE23.JPG,AFNE21.JPG,AFSA25.JPG,AFNE25.JPG,AFSA23.JPG,,,,,,,,,,,,,0,5,5,4,,,,,,,,,,,AFSA15.jpg,AFSA11.jpg,AFNE06.jpg,AFNE09.jpg,AFSA15.jpg,FS,4,num_8,16,num_8,1.30010266858,,,2017_Sep_11_1733,60.0131852557,MAFE4ImagesEEG,001,101569,
AMNE22.JPG,AMSA24.JPG,AMSA22.JPG,AMNE25.JPG,AMNE24.JPG,AMSA25.JPG,,,,,,,,,,,,,0,6,6,7,,,,,,,,,,,AFSA04.jpg,AFNE05.jpg,AFSA19.jpg,AFNE04.jpg,AFSA04.jpg,FS,4,num_8,32,num_2,3.3499183557,,,2017_Sep_11_1733,60.0131852557,MAFE4ImagesEEG,001,101569,
AMSA21.JPG,AMNE23.JPG,AMNE21.JPG,AMSA25.JPG,AMNE25.JPG,AMSA23.JPG,,,,,,,,,,,,,0,7,7,5,,,,,,,,,,,AFSA02.jpg,AFSA13.jpg,AFNE15.jpg,AFNE11.jpg,AFNE11.jpg,FN,3,num_4,32,num_8,2.50005115778,,,2017_Sep_11_1733,60.0131852557,MAFE4ImagesEEG,001,101569,
AFNE22.JPG,AFSA24.JPG,AFSA22.JPG,AFNE25.JPG,AFNE24.JPG,AFSA25.JPG,,,,,,,,,,,,,0,8,8,6,,,,,,,,,,,AFNE07.jpg,AFNE17.jpg,AFSA19.jpg,AFSA01.jpg,AFNE17.jpg,FN,3,num_6,32,num_2,3.59986984381,,,2017_Sep_11_1733,60.0131852557,MAFE4ImagesEEG,001,101569,
AFSA21.JPG,AFNE22.JPG,AFNE21.JPG,AFSA23.JPG,AFSA22.JPG,AFNE23.JPG,,,,,,,,,,,,,0,9,9,0,,,,,,,,,,,AFNE20.jpg,AFSA05.jpg,AFSA01.jpg,AFNE06.jpg,AFNE20.jpg,FN,3,num_8,32,num_4,2.29998976854,,,2017_Sep_11_1733,60.0131852557,MAFE4ImagesEEG,001,101569,
AMNE22.JPG,AMSA24.JPG,AMSA22.JPG,AMNE25.JPG,AMNE24.JPG,AMSA25.JPG,,,,,,,,,,,,,,,,,0,0,0,7,,,,,,,AMNE08.jpg,AMNE12.jpg,AMSA04.jpg,AMSA20.jpg,AMSA20.jpg,MS,2,num_4,32,num_2,4.16662972816,,,2017_Sep_11_1733,60.0131852557,MAFE4ImagesEEG,001,101569,
AFSA21.JPG,AFNE23.JPG,AFNE21.JPG,AFSA25.JPG,AFNE25.JPG,AFSA23.JPG,,,,,,,,,,,,,,,,,0,1,1,4,,,,,,,AMSA01.jpg,AMNE17.jpg,AMNE10.jpg,AMSA07.jpg,AMNE17.jpg,MN,1,num_6,32,num_8,2.20052549988,,,2017_Sep_11_1733,60.0131852557,MAFE4ImagesEEG,001,101569,
AFNE23.JPG,AFNE24.JPG,AFNE22.JPG,AFSA24.JPG,AFSA22.JPG,AFSA23.JPG,,,,,,,,,,,,,,,,,0,2,2,8,,,,,,,AMSA10.jpg,AMSA20.jpg,AMNE14.jpg,AMNE06.jpg,AMNE14.jpg,MN,1,num_2,32,num_8,3.34993952443,,,2017_Sep_11_1733,60.0131852557,MAFE4ImagesEEG,001,101569,
AFSA21.JPG,AFNE22.JPG,AFNE21.JPG,AFSA23.JPG,AFSA22.JPG,AFNE23.JPG,,,,,,,,,,,,,,,,,0,3,3,0,,,,,,,AMNE05.jpg,AMNE01.jpg,AMSA01.jpg,AMSA14.jpg,AMNE05.jpg,MN,1,num_8,32,num_2,3.48340027709,,,2017_Sep_11_1733,60.0131852557,MAFE4ImagesEEG,001,101569,
AFSA25.JPG,AFNE24.JPG,AFSA24.JPG,AFNE21.JPG,AFSA21.JPG,AFNE25.JPG,,,,,,,,,,,,,,,,,0,4,4,2,,,,,,,AMSA14.jpg,AMSA11.jpg,AMNE04.jpg,AMNE05.jpg,AMNE04.jpg,MN,1,num_2,32,num_8,1.95004639495,,,2017_Sep_11_1733,60.0131852557,MAFE4ImagesEEG,001,101569,
AMSA21.JPG,AMNE22.JPG,AMNE21.JPG,AMSA23.JPG,AMSA22.JPG,AMNE23.JPG,,,,,,,,,,,,,,,,,0,5,5,1,,,,,,,AMSA11.jpg,AMNE03.jpg,AMSA08.jpg,AMNE16.jpg,AMNE03.jpg,MN,1,num_6,32,num_2,1.63340927381,,,2017_Sep_11_1733,60.0131852557,MAFE4ImagesEEG,001,101569,
AMNE23.JPG,AMNE24.JPG,AMNE22.JPG,AMSA24.JPG,AMSA22.JPG,AMSA23.JPG,,,,,,,,,,,,,,,,,0,6,6,9,,,,,,,AMSA09.jpg,AMSA15.jpg,AMNE06.jpg,AMNE17.jpg,AMSA09.jpg,MS,2,num_8,32,num_4,2.23334326549,,,2017_Sep_11_1733,60.0131852557,MAFE4ImagesEEG,001,101569,
AMSA21.JPG,AMNE23.JPG,AMNE21.JPG,AMSA25.JPG,AMNE25.JPG,AMSA23.JPG,,,,,,,,,,,,,,,,,0,7,7,5,,,,,,,AMNE07.jpg,AMSA04.jpg,AMSA12.jpg,AMNE12.jpg,AMNE12.jpg,MN,1,num_4,16,num_4,1.85002436,,,2017_Sep_11_1733,60.0131852557,MAFE4ImagesEEG,001,101569,
AMSA25.JPG,AMNE24.JPG,AMSA24.JPG,AMNE26.JPG,AMSA21.JPG,AMNE25.JPG,,,,,,,,,,,,,,,,,0,8,8,3,,,,,,,AMNE10.jpg,AMSA15.jpg,AMNE02.jpg,AMSA02.jpg,AMSA02.jpg,MS,2,num_4,16,num_4,1.41679130075,,,2017_Sep_11_1733,60.0131852557,MAFE4ImagesEEG,001,101569,
AFNE22.JPG,AFSA24.JPG,AFSA22.JPG,AFNE25.JPG,AFNE24.JPG,AFSA25.JPG,,,,,,,,,,,,,,,,,0,9,9,6,,,,,,,AMNE18.jpg,AMNE20.jpg,AMSA09.jpg,AMSA01.jpg,AMNE20.jpg,MN,1,num_6,32,num_2,1.85002211505,,,2017_Sep_11_1733,60.0131852557,MAFE4ImagesEEG,001,101569,
AMSA25.JPG,AMNE24.JPG,AMSA24.JPG,AMNE26.JPG,AMSA21.JPG,AMNE25.JPG,,,,,,,,,,,,,,,,,,,,,0,0,0,3,,,AFSA14.jpg,AFSA02.jpg,AFNE01.jpg,AFNE17.jpg,AFNE01.jpg,FN,3,num_2,16,num_2,2.75000809878,,,2017_Sep_11_1733,60.0131852557,MAFE4ImagesEEG,001,101569,
AFNE22.JPG,AFSA24.JPG,AFSA22.JPG,AFNE25.JPG,AFNE24.JPG,AFSA25.JPG,,,,,,,,,,,,,,,,,,,,,0,1,1,6,,,AFNE06.jpg,AFSA20.jpg,AFSA16.jpg,AFNE10.jpg,AFNE06.jpg,FN,3,num_8,16,num_8,1.55010290933,,,2017_Sep_11_1733,60.0131852557,MAFE4ImagesEEG,001,101569,
AMNE22.JPG,AMSA24.JPG,AMSA22.JPG,AMNE25.JPG,AMNE24.JPG,AMSA25.JPG,,,,,,,,,,,,,,,,,,,,,0,2,2,7,,,AFSA14.jpg,AFNE05.jpg,AFNE16.jpg,AFSA01.jpg,AFNE05.jpg,FN,3,num_6,32,num_4,3.7498878215,,,2017_Sep_11_1733,60.0131852557,MAFE4ImagesEEG,001,101569,
AFNE23.JPG,AFNE24.JPG,AFNE22.JPG,AFSA24.JPG,AFSA22.JPG,AFSA23.JPG,,,,,,,,,,,,,,,,,,,,,0,3,3,8,,,AFNE08.jpg,AFNE15.jpg,AFSA18.jpg,AFSA16.jpg,AFNE15.jpg,FN,3,num_6,16,num_6,0.933530866401,,,2017_Sep_11_1733,60.0131852557,MAFE4ImagesEEG,001,101569,
AMNE23.JPG,AMNE24.JPG,AMNE22.JPG,AMSA24.JPG,AMSA22.JPG,AMSA23.JPG,,,,,,,,,,,,,,,,,,,,,0,4,4,9,,,AFSA02.jpg,AFNE10.jpg,AFNE08.jpg,AFSA06.jpg,AFNE08.jpg,FN,3,num_2,32,num_8,0.983443416655,,,2017_Sep_11_1733,60.0131852557,MAFE4ImagesEEG,001,101569,
AMSA21.JPG,AMNE23.JPG,AMNE21.JPG,AMSA25.JPG,AMNE25.JPG,AMSA23.JPG,,,,,,,,,,,,,,,,,,,,,0,5,5,5,,,AFSA01.jpg,AFSA16.jpg,AFNE04.jpg,AFNE15.jpg,AFSA01.jpg,FS,4,num_8,16,num_8,1.95010861848,,,2017_Sep_11_1733,60.0131852557,MAFE4ImagesEEG,001,101569,
AFSA21.JPG,AFNE23.JPG,AFNE21.JPG,AFSA25.JPG,AFNE25.JPG,AFSA23.JPG,,,,,,,,,,,,,,,,,,,,,0,6,6,4,,,AFNE04.jpg,AFSA12.jpg,AFNE19.jpg,AFSA02.jpg,AFSA02.jpg,FS,4,num_4,16,num_4,0.899973474909,,,2017_Sep_11_1733,60.0131852557,MAFE4ImagesEEG,001,101569,
AFSA25.JPG,AFNE24.JPG,AFSA24.JPG,AFNE21.JPG,AFSA21.JPG,AFNE25.JPG,,,,,,,,,,,,,,,,,,,,,0,7,7,2,,,AFNE01.jpg,AFSA16.jpg,AFNE16.jpg,AFSA08.jpg,AFNE01.jpg,FN,3,num_8,32,num_4,0.700152639998,,,2017_Sep_11_1733,60.0131852557,MAFE4ImagesEEG,001,101569,
AMSA21.JPG,AMNE22.JPG,AMNE21.JPG,AMSA23.JPG,AMSA22.JPG,AMNE23.JPG,,,,,,,,,,,,,,,,,,,,,0,8,8,1,,,AFNE08.jpg,AFSA05.jpg,AFNE07.jpg,AFSA02.jpg,AFSA05.jpg,FS,4,num_6,32,num_2,0.716814426007,,,2017_Sep_11_1733,60.0131852557,MAFE4ImagesEEG,001,101569,
AFSA21.JPG,AFNE22.JPG,AFNE21.JPG,AFSA23.JPG,AFSA22.JPG,AFNE23.JPG,,,,,,,,,,,,,,,,,,,,,0,9,9,0,,,AFSA20.jpg,AFNE16.jpg,AFNE12.jpg,AFSA15.jpg,AFSA15.jpg,FS,4,num_4,16,num_4,1.21662021824,,,2017_Sep_11_1733,60.0131852557,MAFE4ImagesEEG,001,101569,
,,,,,,,,,,,,,,,,,,,,,,,,,,,,,,,,,,,,,,,,,,,space,8.84985853778,2017_Sep_11_1733,60.0131852557,MAFE4ImagesEEG,001,101569,
AFNE01.JPG,AFNE01.JPG,AFNE01.JPG,AFNE01.JPG,AFNE01.JPG,AFNE01.JPG,0,0,0,2,,,,,,,,,,,,,,,,,,,,,,,AMNE11.jpg,AMSA08.jpg,AMSA01.jpg,AMNE01.jpg,AMSA01.jpg,MS,2,num_2,16,num_2,2.9165791315,,,2017_Sep_11_1733,60.0131852557,MAFE4ImagesEEG,001,101569,
AFNE01.JPG,AFNE01.JPG,AFNE01.JPG,AFNE01.JPG,AFNE01.JPG,AFNE01.JPG,0,1,1,7,,,,,,,,,,,,,,,,,,,,,,,AMSA18.jpg,AMSA10.jpg,AMNE12.jpg,AMNE03.jpg,AMSA18.jpg,MS,2,num_8,16,num_8,1.93335028971,,,2017_Sep_11_1733,60.0131852557,MAFE4ImagesEEG,001,101569,
AFNE01.JPG,AFNE01.JPG,AFNE01.JPG,AFNE01.JPG,AFNE01.JPG,AFNE01.JPG,0,2,2,5,,,,,,,,,,,,,,,,,,,,,,,AMSA18.jpg,AMSA16.jpg,AMNE17.jpg,AMNE06.jpg,AMSA16.jpg,MS,2,num_6,32,num_2,1.58334116475,,,2017_Sep_11_1733,60.0131852557,MAFE4ImagesEEG,001,101569,
AFNE01.JPG,AFNE01.JPG,AFNE01.JPG,AFNE01.JPG,AFNE01.JPG,AFNE01.JPG,0,3,3,9,,,,,,,,,,,,,,,,,,,,,,,AMSA04.jpg,AMNE04.jpg,AMSA07.jpg,AMNE18.jpg,AMNE04.jpg,MN,1,num_6,16,num_6,2.00003239489,,,2017_Sep_11_1733,60.0131852557,MAFE4ImagesEEG,001,101569,
AFNE01.JPG,AFNE01.JPG,AFNE01.JPG,AFNE01.JPG,AFNE01.JPG,AFNE01.JPG,0,4,4,8,,,,,,,,,,,,,,,,,,,,,,,AMNE14.jpg,AMNE09.jpg,AMSA11.jpg,AMSA06.jpg,AMNE09.jpg,MN,1,num_6,32,num_4,1.21674466529,,,2017_Sep_11_1733,60.0131852557,MAFE4ImagesEEG,001,101569,
AFNE01.JPG,AFNE01.JPG,AFNE01.JPG,AFNE01.JPG,AFNE01.JPG,AFNE01.JPG,0,5,5,3,,,,,,,,,,,,,,,,,,,,,,,AMNE09.jpg,AMSA16.jpg,AMSA02.jpg,AMNE18.jpg,AMSA16.jpg,MS,2,num_6,32,num_2,4.28290460585,,,2017_Sep_11_1733,60.0131852557,MAFE4ImagesEEG,001,101569,
AFNE01.JPG,AFNE01.JPG,AFNE01.JPG,AFNE01.JPG,AFNE01.JPG,AFNE01.JPG,0,6,6,6,,,,,,,,,,,,,,,,,,,,,,,AMSA06.jpg,AMNE19.jpg,AMNE16.jpg,AMSA13.jpg,AMNE16.jpg,MN,1,num_2,32,num_6,1.55002881843,,,2017_Sep_11_1733,60.0131852557,MAFE4ImagesEEG,001,101569,
AFNE01.JPG,AFNE01.JPG,AFNE01.JPG,AFNE01.JPG,AFNE01.JPG,AFNE01.JPG,0,7,7,1,,,,,,,,,,,,,,,,,,,,,,,AMNE07.jpg,AMSA17.jpg,AMSA01.jpg,AMNE11.jpg,AMSA01.jpg,MS,2,num_2,16,num_2,1.58343674499,,,2017_Sep_11_1733,60.0131852557,MAFE4ImagesEEG,001,101569,
AFNE01.JPG,AFNE01.JPG,AFNE01.JPG,AFNE01.JPG,AFNE01.JPG,AFNE01.JPG,0,8,8,4,,,,,,,,,,,,,,,,,,,,,,,AMSA14.jpg,AMSA07.jpg,AMNE18.jpg,AMNE06.jpg,AMSA14.jpg,MS,2,num_8,32,num_2,1.90036060777,,,2017_Sep_11_1733,60.0131852557,MAFE4ImagesEEG,001,101569,
AFNE01.JPG,AFNE01.JPG,AFNE01.JPG,AFNE01.JPG,AFNE01.JPG,AFNE01.JPG,0,9,9,0,,,,,,,,,,,,,,,,,,,,,,,AMNE20.jpg,AMNE07.jpg,AMSA10.jpg,AMSA09.jpg,AMSA10.jpg,MS,2,num_2,16,num_2,2.13335362542,,,2017_Sep_11_1733,60.0131852557,MAFE4ImagesEEG,001,101569,
AFNE01.JPG,AFNE01.JPG,AFNE01.JPG,AFNE01.JPG,AFNE01.JPG,AFNE01.JPG,1,0,10,5,,,,,,,,,,,,,,,,,,,,,,,AMNE15.jpg,AMSA16.jpg,AMNE17.jpg,AMSA13.jpg,AMNE17.jpg,MN,1,num_2,32,num_8,0.683373783948,,,2017_Sep_11_1733,60.0131852557,MAFE4ImagesEEG,001,101569,
AFNE01.JPG,AFNE01.JPG,AFNE01.JPG,AFNE01.JPG,AFNE01.JPG,AFNE01.JPG,1,1,11,9,,,,,,,,,,,,,,,,,,,,,,,AMNE14.jpg,AMNE12.jpg,AMSA08.jpg,AMSA10.jpg,AMSA10.jpg,MS,2,num_4,32,num_6,1.50003447966,,,2017_Sep_11_1733,60.0131852557,MAFE4ImagesEEG,001,101569,
AFNE01.JPG,AFNE01.JPG,AFNE01.JPG,AFNE01.JPG,AFNE01.JPG,AFNE01.JPG,1,2,12,1,,,,,,,,,,,,,,,,,,,,,,,AMSA13.jpg,AMNE09.jpg,AMSA01.jpg,AMNE20.jpg,AMNE09.jpg,MN,1,num_6,16,num_6,2.20001616539,,,2017_Sep_11_1733,60.0131852557,MAFE4ImagesEEG,001,101569,
AFNE01.JPG,AFNE01.JPG,AFNE01.JPG,AFNE01.JPG,AFNE01.JPG,AFNE01.JPG,1,3,13,3,,,,,,,,,,,,,,,,,,,,,,,AMNE08.jpg,AMSA13.jpg,AMSA15.jpg,AMNE03.jpg,AMSA13.jpg,MS,2,num_6,16,num_6,3.01659988333,,,2017_Sep_11_1733,60.0131852557,MAFE4ImagesEEG,001,101569,
AFNE01.JPG,AFNE01.JPG,AFNE01.JPG,AFNE01.JPG,AFNE01.JPG,AFNE01.JPG,1,4,14,8,,,,,,,,,,,,,,,,,,,,,,,AMNE20.jpg,AMNE06.jpg,AMSA03.jpg,AMSA05.jpg,AMNE06.jpg,MN,1,num_6,32,num_8,1.59960587509,,,2017_Sep_11_1733,60.0131852557,MAFE4ImagesEEG,001,101569,
AFNE01.JPG,AFNE01.JPG,AFNE01.JPG,AFNE01.JPG,AFNE01.JPG,AFNE01.JPG,1,5,15,0,,,,,,,,,,,,,,,,,,,,,,,AMSA05.jpg,AMNE08.jpg,AMSA07.jpg,AMNE12.jpg,AMSA05.jpg,MS,2,num_8,32,num_4,1.33349199267,,,2017_Sep_11_1733,60.0131852557,MAFE4ImagesEEG,001,101569,
AFNE01.JPG,AFNE01.JPG,AFNE01.JPG,AFNE01.JPG,AFNE01.JPG,AFNE01.JPG,1,6,16,6,,,,,,,,,,,,,,,,,,,,,,,AMSA15.jpg,AMNE04.jpg,AMSA02.jpg,AMNE09.jpg,AMSA15.jpg,MS,2,num_8,16,num_8,1.98333179927,,,2017_Sep_11_1733,60.0131852557,MAFE4ImagesEEG,001,101569,
AFNE01.JPG,AFNE01.JPG,AFNE01.JPG,AFNE01.JPG,AFNE01.JPG,AFNE01.JPG,1,7,17,4,,,,,,,,,,,,,,,,,,,,,,,AMNE15.jpg,AMNE13.jpg,AMSA05.jpg,AMSA02.jpg,AMNE15.jpg,MN,1,num_8,32,num_6,0.966772970511,,,2017_Sep_11_1733,60.0131852557,MAFE4ImagesEEG,001,101569,
AFNE01.JPG,AFNE01.JPG,AFNE01.JPG,AFNE01.JPG,AFNE01.JPG,AFNE01.JPG,1,8,18,2,,,,,,,,,,,,,,,,,,,,,,,AMSA14.jpg,AMNE10.jpg,AMNE02.jpg,AMSA15.jpg,AMSA15.jpg,MS,2,num_4,16,num_4,0.700186638394,,,2017_Sep_11_1733,60.0131852557,MAFE4ImagesEEG,001,101569,
AFNE01.JPG,AFNE01.JPG,AFNE01.JPG,AFNE01.JPG,AFNE01.JPG,AFNE01.JPG,1,9,19,7,,,,,,,,,,,,,,,,,,,,,,,AMNE01.jpg,AMSA14.jpg,AMNE14.jpg,AMSA17.jpg,AMSA14.jpg,MS,2,num_6,16,num_6,0.933427908691,,,2017_Sep_11_1733,60.0131852557,MAFE4ImagesEEG,001,101569,
AFNE01.JPG,AFNE01.JPG,AFNE01.JPG,AFNE01.JPG,AFNE01.JPG,AFNE01.JPG,2,0,20,3,,,,,,,,,,,,,,,,,,,,,,,AMNE15.jpg,AMSA20.jpg,AMNE02.jpg,AMSA06.jpg,AMNE15.jpg,MN,1,num_8,16,num_8,1.38342410792,,,2017_Sep_11_1733,60.0131852557,MAFE4ImagesEEG,001,101569,
AFNE01.JPG,AFNE01.JPG,AFNE01.JPG,AFNE01.JPG,AFNE01.JPG,AFNE01.JPG,2,1,21,0,,,,,,,,,,,,,,,,,,,,,,,AMSA15.jpg,AMNE09.jpg,AMNE14.jpg,AMSA10.jpg,AMSA15.jpg,MS,2,num_8,32,num_4,1.41671304032,,,2017_Sep_11_1733,60.0131852557,MAFE4ImagesEEG,001,101569,
AFNE01.JPG,AFNE01.JPG,AFNE01.JPG,AFNE01.JPG,AFNE01.JPG,AFNE01.JPG,2,2,22,7,,,,,,,,,,,,,,,,,,,,,,,AMSA17.jpg,AMNE02.jpg,AMNE06.jpg,AMSA01.jpg,AMSA01.jpg,MS,2,num_4,32,num_6,1.55005447776,,,2017_Sep_11_1733,60.0131852557,MAFE4ImagesEEG,001,101569,
AFNE01.JPG,AFNE01.JPG,AFNE01.JPG,AFNE01.JPG,AFNE01.JPG,AFNE01.JPG,2,3,23,9,,,,,,,,,,,,,,,,,,,,,,,AMSA07.jpg,AMNE02.jpg,AMSA19.jpg,AMNE14.jpg,AMNE14.jpg,MN,1,num_4,32,num_2,3.14991598227,,,2017_Sep_11_1733,60.0131852557,MAFE4ImagesEEG,001,101569,
AFNE01.JPG,AFNE01.JPG,AFNE01.JPG,AFNE01.JPG,AFNE01.JPG,AFNE01.JPG,2,4,24,2,,,,,,,,,,,,,,,,,,,,,,,AMNE04.jpg,AMSA11.jpg,AMSA16.jpg,AMNE14.jpg,AMSA16.jpg,MS,2,num_2,32,num_6,2.06638734508,,,2017_Sep_11_1733,60.0131852557,MAFE4ImagesEEG,001,101569,
AFNE01.JPG,AFNE01.JPG,AFNE01.JPG,AFNE01.JPG,AFNE01.JPG,AFNE01.JPG,2,5,25,5,,,,,,,,,,,,,,,,,,,,,,,AMSA05.jpg,AMSA12.jpg,AMNE06.jpg,AMNE19.jpg,AMSA12.jpg,MS,2,num_6,32,num_8,1.56304154894,,,2017_Sep_11_1733,60.0131852557,MAFE4ImagesEEG,001,101569,
AFNE01.JPG,AFNE01.JPG,AFNE01.JPG,AFNE01.JPG,AFNE01.JPG,AFNE01.JPG,2,6,26,8,,,,,,,,,,,,,,,,,,,,,,,AMNE05.jpg,AMSA08.jpg,AMNE18.jpg,AMSA17.jpg,AMSA17.jpg,MS,2,num_4,16,num_4,1.68330065534,,,2017_Sep_11_1733,60.0131852557,MAFE4ImagesEEG,001,101569,
AFNE01.JPG,AFNE01.JPG,AFNE01.JPG,AFNE01.JPG,AFNE01.JPG,AFNE01.JPG,2,7,27,1,,,,,,,,,,,,,,,,,,,,,,,AMSA13.jpg,AMSA12.jpg,AMNE09.jpg,AMNE01.jpg,AMSA13.jpg,MS,2,num_8,16,num_8,2.73332065344,,,2017_Sep_11_1733,60.0131852557,MAFE4ImagesEEG,001,101569,
AFNE01.JPG,AFNE01.JPG,AFNE01.JPG,AFNE01.JPG,AFNE01.JPG,AFNE01.JPG,2,8,28,4,,,,,,,,,,,,,,,,,,,,,,,AMNE07.jpg,AMSA14.jpg,AMNE13.jpg,AMSA12.jpg,AMSA12.jpg,MS,2,num_4,32,num_8,1.58340370888,,,2017_Sep_11_1733,60.0131852557,MAFE4ImagesEEG,001,101569,
AFNE01.JPG,AFNE01.JPG,AFNE01.JPG,AFNE01.JPG,AFNE01.JPG,AFNE01.JPG,2,9,29,6,,,,,,,,,,,,,,,,,,,,,,,AMNE01.jpg,AMSA05.jpg,AMNE11.jpg,AMSA11.jpg,AMNE01.jpg,MN,1,num_8,32,num_2,1.38375286618,,,2017_Sep_11_1733,60.0131852557,MAFE4ImagesEEG,001,101569,
AFNE01.JPG,AFNE01.JPG,AFNE01.JPG,AFNE01.JPG,AFNE01.JPG,AFNE01.JPG,3,0,30,0,,,,,,,,,,,,,,,,,,,,,,,AMNE09.jpg,AMNE15.jpg,AMSA16.jpg,AMSA18.jpg,AMSA16.jpg,MS,2,num_2,32,num_8,1.3666821369,,,2017_Sep_11_1733,60.0131852557,MAFE4ImagesEEG,001,101569,
AFNE01.JPG,AFNE01.JPG,AFNE01.JPG,AFNE01.JPG,AFNE01.JPG,AFNE01.JPG,3,1,31,6,,,,,,,,,,,,,,,,,,,,,,,AMNE08.jpg,AMSA15.jpg,AMNE12.jpg,AMSA20.jpg,AMNE08.jpg,MN,1,num_8,16,num_8,1.58345631021,,,2017_Sep_11_1733,60.0131852557,MAFE4ImagesEEG,001,101569,
AFNE01.JPG,AFNE01.JPG,AFNE01.JPG,AFNE01.JPG,AFNE01.JPG,AFNE01.JPG,3,2,32,8,,,,,,,,,,,,,,,,,,,,,,,AMNE04.jpg,AMSA09.jpg,AMNE15.jpg,AMSA02.jpg,AMSA02.jpg,MS,2,num_4,16,num_4,2.4833095076,,,2017_Sep_11_1733,60.0131852557,MAFE4ImagesEEG,001,101569,
AFNE01.JPG,AFNE01.JPG,AFNE01.JPG,AFNE01.JPG,AFNE01.JPG,AFNE01.JPG,3,3,33,7,,,,,,,,,,,,,,,,,,,,,,,AMNE08.jpg,AMSA07.jpg,AMSA16.jpg,AMNE20.jpg,AMNE20.jpg,MN,1,num_4,16,num_4,0.600189621327,,,2017_Sep_11_1733,60.0131852557,MAFE4ImagesEEG,001,101569,
AFNE01.JPG,AFNE01.JPG,AFNE01.JPG,AFNE01.JPG,AFNE01.JPG,AFNE01.JPG,3,4,34,3,,,,,,,,,,,,,,,,,,,,,,,AMNE05.jpg,AMSA10.jpg,AMNE07.jpg,AMSA11.jpg,AMSA10.jpg,MS,2,num_6,32,num_2,1.90001517092,,,2017_Sep_11_1733,60.0131852557,MAFE4ImagesEEG,001,101569,
AFNE01.JPG,AFNE01.JPG,AFNE01.JPG,AFNE01.JPG,AFNE01.JPG,AFNE01.JPG,3,5,35,4,,,,,,,,,,,,,,,,,,,,,,,AMNE20.jpg,AMSA19.jpg,AMSA18.jpg,AMNE06.jpg,AMSA19.jpg,MS,2,num_6,32,num_4,2.83330804855,,,2017_Sep_11_1733,60.0131852557,MAFE4ImagesEEG,001,101569,
AFNE01.JPG,AFNE01.JPG,AFNE01.JPG,AFNE01.JPG,AFNE01.JPG,AFNE01.JPG,3,6,36,1,,,,,,,,,,,,,,,,,,,,,,,AMSA10.jpg,AMSA17.jpg,AMNE03.jpg,AMNE02.jpg,AMNE03.jpg,MN,1,num_2,32,num_6,3.98318842845,,,2017_Sep_11_1733,60.0131852557,MAFE4ImagesEEG,001,101569,
AFNE01.JPG,AFNE01.JPG,AFNE01.JPG,AFNE01.JPG,AFNE01.JPG,AFNE01.JPG,3,7,37,2,,,,,,,,,,,,,,,,,,,,,,,AMSA05.jpg,AMNE06.jpg,AMNE07.jpg,AMSA17.jpg,AMNE07.jpg,MN,1,num_2,16,num_2,2.66657889076,,,2017_Sep_11_1733,60.0131852557,MAFE4ImagesEEG,001,101569,
AFNE01.JPG,AFNE01.JPG,AFNE01.JPG,AFNE01.JPG,AFNE01.JPG,AFNE01.JPG,3,8,38,9,,,,,,,,,,,,,,,,,,,,,,,AMNE11.jpg,AMSA18.jpg,AMNE20.jpg,AMSA17.jpg,AMSA18.jpg,MS,2,num_6,16,num_6,1.43340080627,,,2017_Sep_11_1733,60.0131852557,MAFE4ImagesEEG,001,101569,
AFNE01.JPG,AFNE01.JPG,AFNE01.JPG,AFNE01.JPG,AFNE01.JPG,AFNE01.JPG,3,9,39,5,,,,,,,,,,,,,,,,,,,,,,,AMSA17.jpg,AMNE09.jpg,AMNE03.jpg,AMSA04.jpg,AMNE03.jpg,MN,1,num_2,32,num_8,3.18333224813,,,2017_Sep_11_1733,60.0131852557,MAFE4ImagesEEG,001,101569,
AFNE01.JPG,AFNE01.JPG,AFNE01.JPG,AFNE01.JPG,AFNE01.JPG,AFNE01.JPG,4,0,40,6,,,,,,,,,,,,,,,,,,,,,,,AMNE09.jpg,AMSA17.jpg,AMSA19.jpg,AMNE07.jpg,AMNE07.jpg,MN,1,num_4,32,num_2,2.43327732151,,,2017_Sep_11_1733,60.0131852557,MAFE4ImagesEEG,001,101569,
AFNE01.JPG,AFNE01.JPG,AFNE01.JPG,AFNE01.JPG,AFNE01.JPG,AFNE01.JPG,4,1,41,5,,,,,,,,,,,,,,,,,,,,,,,AMNE02.jpg,AMSA03.jpg,AMNE01.jpg,AMSA14.jpg,AMSA03.jpg,MS,2,num_6,32,num_4,3.64988150285,,,2017_Sep_11_1733,60.0131852557,MAFE4ImagesEEG,001,101569,
AFNE01.JPG,AFNE01.JPG,AFNE01.JPG,AFNE01.JPG,AFNE01.JPG,AFNE01.JPG,4,2,42,1,,,,,,,,,,,,,,,,,,,,,,,AMNE04.jpg,AMNE08.jpg,AMSA19.jpg,AMSA03.jpg,AMNE08.jpg,MN,1,num_6,16,num_6,0.816793161212,,,2017_Sep_11_1733,60.0131852557,MAFE4ImagesEEG,001,101569,
AFNE01.JPG,AFNE01.JPG,AFNE01.JPG,AFNE01.JPG,AFNE01.JPG,AFNE01.JPG,4,3,43,8,,,,,,,,,,,,,,,,,,,,,,,AMNE03.jpg,AMSA17.jpg,AMNE13.jpg,AMSA02.jpg,AMSA02.jpg,MS,2,num_4,32,num_8,2.86670442834,,,2017_Sep_11_1733,60.0131852557,MAFE4ImagesEEG,001,101569,
AFNE01.JPG,AFNE01.JPG,AFNE01.JPG,AFNE01.JPG,AFNE01.JPG,AFNE01.JPG,4,4,44,0,,,,,,,,,,,,,,,,,,,,,,,AMSA08.jpg,AMSA03.jpg,AMNE07.jpg,AMNE06.jpg,AMNE07.jpg,MN,1,num_2,32,num_4,1.21676294738,,,2017_Sep_11_1733,60.0131852557,MAFE4ImagesEEG,001,101569,
AFNE01.JPG,AFNE01.JPG,AFNE01.JPG,AFNE01.JPG,AFNE01.JPG,AFNE01.JPG,4,5,45,3,,,,,,,,,,,,,,,,,,,,,,,AMSA06.jpg,AMNE18.jpg,AMSA01.jpg,AMNE01.jpg,AMSA01.jpg,MS,2,num_2,16,num_2,1.06675715814,,,2017_Sep_11_1733,60.0131852557,MAFE4ImagesEEG,001,101569,
AFNE01.JPG,AFNE01.JPG,AFNE01.JPG,AFNE01.JPG,AFNE01.JPG,AFNE01.JPG,4,6,46,4,,,,,,,,,,,,,,,,,,,,,,,AMSA12.jpg,AMNE18.jpg,AMSA14.jpg,AMNE17.jpg,AMSA12.jpg,MS,2,num_8,32,num_4,1.13340815133,,,2017_Sep_11_1733,60.0131852557,MAFE4ImagesEEG,001,101569,
AFNE01.JPG,AFNE01.JPG,AFNE01.JPG,AFNE01.JPG,AFNE01.JPG,AFNE01.JPG,4,7,47,9,,,,,,,,,,,,,,,,,,,,,,,AMSA20.jpg,AMNE05.jpg,AMSA07.jpg,AMNE18.jpg,AMSA07.jpg,MS,2,num_2,32,num_6,3.31659029308,,,2017_Sep_11_1733,60.0131852557,MAFE4ImagesEEG,001,101569,
AFNE01.JPG,AFNE01.JPG,AFNE01.JPG,AFNE01.JPG,AFNE01.JPG,AFNE01.JPG,4,8,48,7,,,,,,,,,,,,,,,,,,,,,,,AMNE04.jpg,AMSA13.jpg,AMSA16.jpg,AMNE17.jpg,AMNE04.jpg,MN,1,num_8,32,num_6,1.53340295539,,,2017_Sep_11_1733,60.0131852557,MAFE4ImagesEEG,001,101569,
AFNE01.JPG,AFNE01.JPG,AFNE01.JPG,AFNE01.JPG,AFNE01.JPG,AFNE01.JPG,4,9,49,2,,,,,,,,,,,,,,,,,,,,,,,AMSA06.jpg,AMNE06.jpg,AMSA16.jpg,AMNE18.jpg,AMNE06.jpg,MN,1,num_6,32,num_8,2.8499403263,,,2017_Sep_11_1733,60.0131852557,MAFE4ImagesEEG,001,101569,
AFNE01.JPG,AFNE01.JPG,AFNE01.JPG,AFNE01.JPG,AFNE01.JPG,AFNE01.JPG,5,0,50,8,,,,,,,,,,,,,,,,,,,,,,,AMNE08.jpg,AMNE10.jpg,AMSA16.jpg,AMSA09.jpg,AMSA16.jpg,MS,2,num_2,32,num_4,2.56662870175,,,2017_Sep_11_1733,60.0131852557,MAFE4ImagesEEG,001,101569,
AFNE01.JPG,AFNE01.JPG,AFNE01.JPG,AFNE01.JPG,AFNE01.JPG,AFNE01.JPG,5,1,51,5,,,,,,,,,,,,,,,,,,,,,,,AMNE01.jpg,AMNE08.jpg,AMSA07.jpg,AMSA19.jpg,AMNE01.jpg,MN,1,num_8,16,num_8,1.55006698635,,,2017_Sep_11_1733,60.0131852557,MAFE4ImagesEEG,001,101569,
AFNE01.JPG,AFNE01.JPG,AFNE01.JPG,AFNE01.JPG,AFNE01.JPG,AFNE01.JPG,5,2,52,6,,,,,,,,,,,,,,,,,,,,,,,AMNE14.jpg,AMSA16.jpg,AMNE04.jpg,AMSA19.jpg,AMNE04.jpg,MN,1,num_2,16,num_2,0.916765481234,,,2017_Sep_11_1733,60.0131852557,MAFE4ImagesEEG,001,101569,
AFNE01.JPG,AFNE01.JPG,AFNE01.JPG,AFNE01.JPG,AFNE01.JPG,AFNE01.JPG,5,3,53,3,,,,,,,,,,,,,,,,,,,,,,,AMNE05.jpg,AMNE13.jpg,AMSA08.jpg,AMSA15.jpg,AMSA08.jpg,MS,2,num_2,32,num_6,4.31677856739,,,2017_Sep_11_1733,60.0131852557,MAFE4ImagesEEG,001,101569,
AFNE01.JPG,AFNE01.JPG,AFNE01.JPG,AFNE01.JPG,AFNE01.JPG,AFNE01.JPG,5,4,54,4,,,,,,,,,,,,,,,,,,,,,,,AMSA08.jpg,AMSA04.jpg,AMNE05.jpg,AMNE04.jpg,AMNE05.jpg,MN,1,num_2,16,num_2,1.63338842569,,,2017_Sep_11_1733,60.0131852557,MAFE4ImagesEEG,001,101569,
AFNE01.JPG,AFNE01.JPG,AFNE01.JPG,AFNE01.JPG,AFNE01.JPG,AFNE01.JPG,5,5,55,2,,,,,,,,,,,,,,,,,,,,,,,AMNE03.jpg,AMSA15.jpg,AMNE11.jpg,AMSA06.jpg,AMNE11.jpg,MN,1,num_2,16,num_2,1.20009731245,,,2017_Sep_11_1733,60.0131852557,MAFE4ImagesEEG,001,101569,
AFNE01.JPG,AFNE01.JPG,AFNE01.JPG,AFNE01.JPG,AFNE01.JPG,AFNE01.JPG,5,6,56,7,,,,,,,,,,,,,,,,,,,,,,,AMNE05.jpg,AMSA17.jpg,AMSA07.jpg,AMNE14.jpg,AMNE05.jpg,MN,1,num_8,16,num_8,1.43340241001,,,2017_Sep_11_1733,60.0131852557,MAFE4ImagesEEG,001,101569,
AFNE01.JPG,AFNE01.JPG,AFNE01.JPG,AFNE01.JPG,AFNE01.JPG,AFNE01.JPG,5,7,57,9,,,,,,,,,,,,,,,,,,,,,,,AMNE01.jpg,AMSA08.jpg,AMSA15.jpg,AMNE03.jpg,AMNE03.jpg,MN,1,num_4,32,num_8,3.6831810195,,,2017_Sep_11_1733,60.0131852557,MAFE4ImagesEEG,001,101569,
AFNE01.JPG,AFNE01.JPG,AFNE01.JPG,AFNE01.JPG,AFNE01.JPG,AFNE01.JPG,5,8,58,0,,,,,,,,,,,,,,,,,,,,,,,AMNE08.jpg,AMSA05.jpg,AMSA16.jpg,AMNE06.jpg,AMSA05.jpg,MS,2,num_6,32,num_2,1.56665885122,,,2017_Sep_11_1733,60.0131852557,MAFE4ImagesEEG,001,101569,
AFNE01.JPG,AFNE01.JPG,AFNE01.JPG,AFNE01.JPG,AFNE01.JPG,AFNE01.JPG,5,9,59,1,,,,,,,,,,,,,,,,,,,,,,,AMSA07.jpg,AMSA14.jpg,AMNE12.jpg,AMNE07.jpg,AMNE12.jpg,MN,1,num_2,32,num_6,2.63334512594,,,2017_Sep_11_1733,60.0131852557,MAFE4ImagesEEG,001,101569,
,,,,,,,,,,,,,,,,,,,,,,,,,,,,,,,,,,,,,,,,,,,space,5.89942693431,2017_Sep_11_1733,60.0131852557,MAFE4ImagesEEG,001,101569,
AFNE01.JPG,AFNE01.JPG,AFNE01.JPG,AFNE01.JPG,AFNE01.JPG,AFNE01.JPG,,,,,0,0,0,2,,,,,,,,,,,,,,,,,,,AFNE10.jpg,AFSA05.jpg,AFNE05.jpg,AFSA18.jpg,AFNE05.jpg,FN,3,num_2,32,num_6,2.81659558532,,,2017_Sep_11_1733,60.0131852557,MAFE4ImagesEEG,001,101569,
AFNE01.JPG,AFNE01.JPG,AFNE01.JPG,AFNE01.JPG,AFNE01.JPG,AFNE01.JPG,,,,,0,1,1,7,,,,,,,,,,,,,,,,,,,AFNE20.jpg,AFSA06.jpg,AFSA19.jpg,AFNE03.jpg,AFSA19.jpg,FS,4,num_2,32,num_8,4.38344880496,,,2017_Sep_11_1733,60.0131852557,MAFE4ImagesEEG,001,101569,
AFNE01.JPG,AFNE01.JPG,AFNE01.JPG,AFNE01.JPG,AFNE01.JPG,AFNE01.JPG,,,,,0,2,2,3,,,,,,,,,,,,,,,,,,,AFSA09.jpg,AFNE11.jpg,AFNE12.jpg,AFSA06.jpg,AFNE12.jpg,FN,3,num_2,16,num_2,0.96676399,,,2017_Sep_11_1733,60.0131852557,MAFE4ImagesEEG,001,101569,
AFNE01.JPG,AFNE01.JPG,AFNE01.JPG,AFNE01.JPG,AFNE01.JPG,AFNE01.JPG,,,,,0,3,3,9,,,,,,,,,,,,,,,,,,,AFNE17.jpg,AFSA02.jpg,AFNE13.jpg,AFSA08.jpg,AFSA08.jpg,FS,4,num_4,32,num_8,2.0166601825,,,2017_Sep_11_1733,60.0131852557,MAFE4ImagesEEG,001,101569,
AFNE01.JPG,AFNE01.JPG,AFNE01.JPG,AFNE01.JPG,AFNE01.JPG,AFNE01.JPG,,,,,0,4,4,8,,,,,,,,,,,,,,,,,,,AFSA06.jpg,AFNE17.jpg,AFSA19.jpg,AFNE03.jpg,AFSA06.jpg,FS,4,num_8,16,num_8,1.11678068433,,,2017_Sep_11_1733,60.0131852557,MAFE4ImagesEEG,001,101569,
AFNE01.JPG,AFNE01.JPG,AFNE01.JPG,AFNE01.JPG,AFNE01.JPG,AFNE01.JPG,,,,,0,5,5,5,,,,,,,,,,,,,,,,,,,AFSA10.jpg,AFNE04.jpg,AFSA06.jpg,AFNE03.jpg,AFNE04.jpg,FN,3,num_6,16,num_6,1.01675415901,,,2017_Sep_11_1733,60.0131852557,MAFE4ImagesEEG,001,101569,
AFNE01.JPG,AFNE01.JPG,AFNE01.JPG,AFNE01.JPG,AFNE01.JPG,AFNE01.JPG,,,,,0,6,6,0,,,,,,,,,,,,,,,,,,,AFNE20.jpg,AFSA17.jpg,AFSA05.jpg,AFNE03.jpg,AFSA17.jpg,FS,4,num_6,16,num_6,1.88337006327,,,2017_Sep_11_1733,60.0131852557,MAFE4ImagesEEG,001,101569,
AFNE01.JPG,AFNE01.JPG,AFNE01.JPG,AFNE01.JPG,AFNE01.JPG,AFNE01.JPG,,,,,0,7,7,4,,,,,,,,,,,,,,,,,,,AFSA20.jpg,AFNE11.jpg,AFSA04.jpg,AFNE13.jpg,AFSA20.jpg,FS,4,num_8,16,num_8,1.33339577075,,,2017_Sep_11_1733,60.0131852557,MAFE4ImagesEEG,001,101569,
AFNE01.JPG,AFNE01.JPG,AFNE01.JPG,AFNE01.JPG,AFNE01.JPG,AFNE01.JPG,,,,,0,8,8,1,,,,,,,,,,,,,,,,,,,AFNE01.jpg,AFNE14.jpg,AFSA19.jpg,AFSA15.jpg,AFSA15.jpg,FS,4,num_4,16,num_4,3.68321245187,,,2017_Sep_11_1733,60.0131852557,MAFE4ImagesEEG,001,101569,
AFNE01.JPG,AFNE01.JPG,AFNE01.JPG,AFNE01.JPG,AFNE01.JPG,AFNE01.JPG,,,,,0,9,9,6,,,,,,,,,,,,,,,,,,,AFNE13.jpg,AFNE19.jpg,AFSA18.jpg,AFSA11.jpg,AFNE19.jpg,FN,3,num_6,32,num_2,1.63340638718,,,2017_Sep_11_1733,60.0131852557,MAFE4ImagesEEG,001,101569,
AFNE01.JPG,AFNE01.JPG,AFNE01.JPG,AFNE01.JPG,AFNE01.JPG,AFNE01.JPG,,,,,1,0,10,5,,,,,,,,,,,,,,,,,,,AFSA05.jpg,AFSA19.jpg,AFNE10.jpg,AFNE08.jpg,AFNE08.jpg,FN,3,num_4,32,num_6,3.84988002735,,,2017_Sep_11_1733,60.0131852557,MAFE4ImagesEEG,001,101569,
AFNE01.JPG,AFNE01.JPG,AFNE01.JPG,AFNE01.JPG,AFNE01.JPG,AFNE01.JPG,,,,,1,1,11,2,,,,,,,,,,,,,,,,,,,AFNE08.jpg,AFSA02.jpg,AFSA07.jpg,AFNE13.jpg,AFNE13.jpg,FN,3,num_4,16,num_4,1.81665877113,,,2017_Sep_11_1733,60.0131852557,MAFE4ImagesEEG,001,101569,
AFNE01.JPG,AFNE01.JPG,AFNE01.JPG,AFNE01.JPG,AFNE01.JPG,AFNE01.JPG,,,,,1,2,12,3,,,,,,,,,,,,,,,,,,,AFNE12.jpg,AFNE17.jpg,AFSA14.jpg,AFSA02.jpg,AFNE17.jpg,FN,3,num_6,32,num_8,2.08329738374,,,2017_Sep_11_1733,60.0131852557,MAFE4ImagesEEG,001,101569,
AFNE01.JPG,AFNE01.JPG,AFNE01.JPG,AFNE01.JPG,AFNE01.JPG,AFNE01.JPG,,,,,1,3,13,0,,,,,,,,,,,,,,,,,,,AFNE13.jpg,AFNE14.jpg,AFSA11.jpg,AFSA19.jpg,AFSA19.jpg,FS,4,num_4,32,num_2,0.866733294912,,,2017_Sep_11_1733,60.0131852557,MAFE4ImagesEEG,001,101569,
AFNE01.JPG,AFNE01.JPG,AFNE01.JPG,AFNE01.JPG,AFNE01.JPG,AFNE01.JPG,,,,,1,4,14,9,,,,,,,,,,,,,,,,,,,AFSA01.jpg,AFNE18.jpg,AFNE03.jpg,AFSA05.jpg,AFSA05.jpg,FS,4,num_4,16,num_4,0.650191978784,,,2017_Sep_11_1733,60.0131852557,MAFE4ImagesEEG,001,101569,
AFNE01.JPG,AFNE01.JPG,AFNE01.JPG,AFNE01.JPG,AFNE01.JPG,AFNE01.JPG,,,,,1,5,15,1,,,,,,,,,,,,,,,,,,,AFSA10.jpg,AFSA08.jpg,AFNE07.jpg,AFNE15.jpg,AFNE07.jpg,FN,3,num_2,32,num_8,1.18353399355,,,2017_Sep_11_1733,60.0131852557,MAFE4ImagesEEG,001,101569,
AFNE01.JPG,AFNE01.JPG,AFNE01.JPG,AFNE01.JPG,AFNE01.JPG,AFNE01.JPG,,,,,1,6,16,4,,,,,,,,,,,,,,,,,,,AFSA05.jpg,AFNE06.jpg,AFSA17.jpg,AFNE04.jpg,AFNE04.jpg,FN,3,num_4,32,num_2,1.78335957532,,,2017_Sep_11_1733,60.0131852557,MAFE4ImagesEEG,001,101569,
AFNE01.JPG,AFNE01.JPG,AFNE01.JPG,AFNE01.JPG,AFNE01.JPG,AFNE01.JPG,,,,,1,7,17,7,,,,,,,,,,,,,,,,,,,AFNE13.jpg,AFSA15.jpg,AFSA18.jpg,AFNE19.jpg,AFNE19.jpg,FN,3,num_4,32,num_6,0.900128712878,,,2017_Sep_11_1733,60.0131852557,MAFE4ImagesEEG,001,101569,
AFNE01.JPG,AFNE01.JPG,AFNE01.JPG,AFNE01.JPG,AFNE01.JPG,AFNE01.JPG,,,,,1,8,18,6,,,,,,,,,,,,,,,,,,,AFSA15.jpg,AFNE05.jpg,AFSA19.jpg,AFNE09.jpg,AFNE05.jpg,FN,3,num_6,16,num_6,2.68330322136,,,2017_Sep_11_1733,60.0131852557,MAFE4ImagesEEG,001,101569,
AFNE01.JPG,AFNE01.JPG,AFNE01.JPG,AFNE01.JPG,AFNE01.JPG,AFNE01.JPG,,,,,1,9,19,8,,,,,,,,,,,,,,,,,,,AFNE20.jpg,AFSA17.jpg,AFSA06.jpg,AFNE10.jpg,AFNE10.jpg,FN,3,num_4,16,num_4,3.15017834725,,,2017_Sep_11_1733,60.0131852557,MAFE4ImagesEEG,001,101569,
AFNE01.JPG,AFNE01.JPG,AFNE01.JPG,AFNE01.JPG,AFNE01.JPG,AFNE01.JPG,,,,,2,0,20,1,,,,,,,,,,,,,,,,,,,AFSA19.jpg,AFSA20.jpg,AFNE12.jpg,AFNE17.jpg,AFSA20.jpg,FS,4,num_6,48,None,,,,2017_Sep_11_1733,60.0131852557,MAFE4ImagesEEG,001,101569,
AFNE01.JPG,AFNE01.JPG,AFNE01.JPG,AFNE01.JPG,AFNE01.JPG,AFNE01.JPG,,,,,2,1,21,6,,,,,,,,,,,,,,,,,,,AFSA12.jpg,AFSA16.jpg,AFNE10.jpg,AFNE01.jpg,AFSA12.jpg,FS,4,num_8,16,num_8,0.916773820529,,,2017_Sep_11_1733,60.0131852557,MAFE4ImagesEEG,001,101569,
AFNE01.JPG,AFNE01.JPG,AFNE01.JPG,AFNE01.JPG,AFNE01.JPG,AFNE01.JPG,,,,,2,2,22,0,,,,,,,,,,,,,,,,,,,AFNE16.jpg,AFNE03.jpg,AFSA08.jpg,AFSA12.jpg,AFSA12.jpg,FS,4,num_4,16,num_4,0.550140435807,,,2017_Sep_11_1733,60.0131852557,MAFE4ImagesEEG,001,101569,
AFNE01.JPG,AFNE01.JPG,AFNE01.JPG,AFNE01.JPG,AFNE01.JPG,AFNE01.JPG,,,,,2,3,23,4,,,,,,,,,,,,,,,,,,,AFSA16.jpg,AFSA17.jpg,AFNE17.jpg,AFNE01.jpg,AFSA17.jpg,FS,4,num_6,32,num_8,0.750166544225,,,2017_Sep_11_1733,60.0131852557,MAFE4ImagesEEG,001,101569,
AFNE01.JPG,AFNE01.JPG,AFNE01.JPG,AFNE01.JPG,AFNE01.JPG,AFNE01.JPG,,,,,2,4,24,3,,,,,,,,,,,,,,,,,,,AFSA17.jpg,AFSA14.jpg,AFNE08.jpg,AFNE06.jpg,AFNE08.jpg,FN,3,num_2,16,num_2,1.18330530589,,,2017_Sep_11_1733,60.0131852557,MAFE4ImagesEEG,001,101569,
AFNE01.JPG,AFNE01.JPG,AFNE01.JPG,AFNE01.JPG,AFNE01.JPG,AFNE01.JPG,,,,,2,5,25,9,,,,,,,,,,,,,,,,,,,AFNE05.jpg,AFSA15.jpg,AFNE02.jpg,AFSA04.jpg,AFSA15.jpg,FS,4,num_6,16,num_6,1.66662347363,,,2017_Sep_11_1733,60.0131852557,MAFE4ImagesEEG,001,101569,
AFNE01.JPG,AFNE01.JPG,AFNE01.JPG,AFNE01.JPG,AFNE01.JPG,AFNE01.JPG,,,,,2,6,26,8,,,,,,,,,,,,,,,,,,,AFSA02.jpg,AFNE05.jpg,AFNE10.jpg,AFSA12.jpg,AFNE05.jpg,FN,3,num_6,32,num_4,2.34963353886,,,2017_Sep_11_1733,60.0131852557,MAFE4ImagesEEG,001,101569,
AFNE01.JPG,AFNE01.JPG,AFNE01.JPG,AFNE01.JPG,AFNE01.JPG,AFNE01.JPG,,,,,2,7,27,2,,,,,,,,,,,,,,,,,,,AFSA14.jpg,AFNE06.jpg,AFNE03.jpg,AFSA04.jpg,AFSA14.jpg,FS,4,num_8,32,num_2,1.86667812779,,,2017_Sep_11_1733,60.0131852557,MAFE4ImagesEEG,001,101569,
AFNE01.JPG,AFNE01.JPG,AFNE01.JPG,AFNE01.JPG,AFNE01.JPG,AFNE01.JPG,,,,,2,8,28,7,,,,,,,,,,,,,,,,,,,AFNE03.jpg,AFSA05.jpg,AFSA20.jpg,AFNE17.jpg,AFSA20.jpg,FS,4,num_2,32,num_8,4.08348373347,,,2017_Sep_11_1733,60.0131852557,MAFE4ImagesEEG,001,101569,
AFNE01.JPG,AFNE01.JPG,AFNE01.JPG,AFNE01.JPG,AFNE01.JPG,AFNE01.JPG,,,,,2,9,29,5,,,,,,,,,,,,,,,,,,,AFNE13.jpg,AFSA15.jpg,AFSA05.jpg,AFNE11.jpg,AFSA05.jpg,FS,4,num_2,16,num_2,0.950137485052,,,2017_Sep_11_1733,60.0131852557,MAFE4ImagesEEG,001,101569,
AFNE01.JPG,AFNE01.JPG,AFNE01.JPG,AFNE01.JPG,AFNE01.JPG,AFNE01.JPG,,,,,3,0,30,0,,,,,,,,,,,,,,,,,,,AFNE20.jpg,AFSA13.jpg,AFSA07.jpg,AFNE08.jpg,AFNE08.jpg,FN,3,num_4,32,num_8,1.10002844944,,,2017_Sep_11_1733,60.0131852557,MAFE4ImagesEEG,001,101569,
AFNE01.JPG,AFNE01.JPG,AFNE01.JPG,AFNE01.JPG,AFNE01.JPG,AFNE01.JPG,,,,,3,1,31,9,,,,,,,,,,,,,,,,,,,AFNE06.jpg,AFSA04.jpg,AFNE14.jpg,AFSA10.jpg,AFSA10.jpg,FS,4,num_4,16,num_4,2.44995450322,,,2017_Sep_11_1733,60.0131852557,MAFE4ImagesEEG,001,101569,
AFNE01.JPG,AFNE01.JPG,AFNE01.JPG,AFNE01.JPG,AFNE01.JPG,AFNE01.JPG,,,,,3,2,32,7,,,,,,,,,,,,,,,,,,,AFSA11.jpg,AFSA18.jpg,AFNE04.jpg,AFNE06.jpg,AFSA18.jpg,FS,4,num_6,32,num_2,2.63327456312,,,2017_Sep_11_1733,60.0131852557,MAFE4ImagesEEG,001,101569,
AFNE01.JPG,AFNE01.JPG,AFNE01.JPG,AFNE01.JPG,AFNE01.JPG,AFNE01.JPG,,,,,3,3,33,6,,,,,,,,,,,,,,,,,,,AFNE17.jpg,AFNE03.jpg,AFSA04.jpg,AFSA11.jpg,AFSA04.jpg,FS,4,num_2,32,num_8,4.49984171498,,,2017_Sep_11_1733,60.0131852557,MAFE4ImagesEEG,001,101569,
AFNE01.JPG,AFNE01.JPG,AFNE01.JPG,AFNE01.JPG,AFNE01.JPG,AFNE01.JPG,,,,,3,4,34,5,,,,,,,,,,,,,,,,,,,AFNE19.jpg,AFSA19.jpg,AFSA01.jpg,AFNE03.jpg,AFNE19.jpg,FN,3,num_8,16,num_8,1.96655069804,,,2017_Sep_11_1733,60.0131852557,MAFE4ImagesEEG,001,101569,
AFNE01.JPG,AFNE01.JPG,AFNE01.JPG,AFNE01.JPG,AFNE01.JPG,AFNE01.JPG,,,,,3,5,35,8,,,,,,,,,,,,,,,,,,,AFNE06.jpg,AFSA13.jpg,AFSA11.jpg,AFNE14.jpg,AFNE14.jpg,FN,3,num_4,16,num_4,1.91677734838,,,2017_Sep_11_1733,60.0131852557,MAFE4ImagesEEG,001,101569,
AFNE01.JPG,AFNE01.JPG,AFNE01.JPG,AFNE01.JPG,AFNE01.JPG,AFNE01.JPG,,,,,3,6,36,3,,,,,,,,,,,,,,,,,,,AFNE19.jpg,AFSA01.jpg,AFNE10.jpg,AFSA20.jpg,AFSA01.jpg,FS,4,num_6,32,num_2,3.29994390276,,,2017_Sep_11_1733,60.0131852557,MAFE4ImagesEEG,001,101569,
AFNE01.JPG,AFNE01.JPG,AFNE01.JPG,AFNE01.JPG,AFNE01.JPG,AFNE01.JPG,,,,,3,7,37,2,,,,,,,,,,,,,,,,,,,AFNE14.jpg,AFSA20.jpg,AFNE01.jpg,AFSA12.jpg,AFSA20.jpg,FS,4,num_6,32,num_2,1.85007696156,,,2017_Sep_11_1733,60.0131852557,MAFE4ImagesEEG,001,101569,
AFNE01.JPG,AFNE01.JPG,AFNE01.JPG,AFNE01.JPG,AFNE01.JPG,AFNE01.JPG,,,,,3,8,38,4,,,,,,,,,,,,,,,,,,,AFSA10.jpg,AFSA07.jpg,AFNE06.jpg,AFNE12.jpg,AFNE12.jpg,FN,3,num_4,32,num_6,1.66673156316,,,2017_Sep_11_1733,60.0131852557,MAFE4ImagesEEG,001,101569,
AFNE01.JPG,AFNE01.JPG,AFNE01.JPG,AFNE01.JPG,AFNE01.JPG,AFNE01.JPG,,,,,3,9,39,1,,,,,,,,,,,,,,,,,,,AFNE11.jpg,AFNE08.jpg,AFSA09.jpg,AFSA16.jpg,AFSA16.jpg,FS,4,num_4,16,num_4,0.566766299075,,,2017_Sep_11_1733,60.0131852557,MAFE4ImagesEEG,001,101569,
AFNE01.JPG,AFNE01.JPG,AFNE01.JPG,AFNE01.JPG,AFNE01.JPG,AFNE01.JPG,,,,,4,0,40,1,,,,,,,,,,,,,,,,,,,AFNE10.jpg,AFSA10.jpg,AFSA16.jpg,AFNE12.jpg,AFNE12.jpg,FN,3,num_4,32,num_8,1.88342587207,,,2017_Sep_11_1733,60.0131852557,MAFE4ImagesEEG,001,101569,
AFNE01.JPG,AFNE01.JPG,AFNE01.JPG,AFNE01.JPG,AFNE01.JPG,AFNE01.JPG,,,,,4,1,41,5,,,,,,,,,,,,,,,,,,,AFSA05.jpg,AFNE19.jpg,AFSA07.jpg,AFNE10.jpg,AFSA05.jpg,FS,4,num_8,32,num_6,3.16660823859,,,2017_Sep_11_1733,60.0131852557,MAFE4ImagesEEG,001,101569,
AFNE01.JPG,AFNE01.JPG,AFNE01.JPG,AFNE01.JPG,AFNE01.JPG,AFNE01.JPG,,,,,4,2,42,9,,,,,,,,,,,,,,,,,,,AFNE16.jpg,AFNE09.jpg,AFSA20.jpg,AFSA05.jpg,AFSA20.jpg,FS,4,num_2,16,num_2,1.3167336639,,,2017_Sep_11_1733,60.0131852557,MAFE4ImagesEEG,001,101569,
AFNE01.JPG,AFNE01.JPG,AFNE01.JPG,AFNE01.JPG,AFNE01.JPG,AFNE01.JPG,,,,,4,3,43,8,,,,,,,,,,,,,,,,,,,AFSA01.jpg,AFNE06.jpg,AFNE04.jpg,AFSA08.jpg,AFSA08.jpg,FS,4,num_4,32,num_8,2.81647338346,,,2017_Sep_11_1733,60.0131852557,MAFE4ImagesEEG,001,101569,
AFNE01.JPG,AFNE01.JPG,AFNE01.JPG,AFNE01.JPG,AFNE01.JPG,AFNE01.JPG,,,,,4,4,44,4,,,,,,,,,,,,,,,,,,,AFSA01.jpg,AFSA06.jpg,AFNE09.jpg,AFNE14.jpg,AFSA01.jpg,FS,4,num_8,32,num_6,1.13344599865,,,2017_Sep_11_1733,60.0131852557,MAFE4ImagesEEG,001,101569,
AFNE01.JPG,AFNE01.JPG,AFNE01.JPG,AFNE01.JPG,AFNE01.JPG,AFNE01.JPG,,,,,4,5,45,3,,,,,,,,,,,,,,,,,,,AFSA19.jpg,AFNE01.jpg,AFNE13.jpg,AFSA15.jpg,AFNE01.jpg,FN,3,num_6,32,num_4,1.383400694,,,2017_Sep_11_1733,60.0131852557,MAFE4ImagesEEG,001,101569,
AFNE01.JPG,AFNE01.JPG,AFNE01.JPG,AFNE01.JPG,AFNE01.JPG,AFNE01.JPG,,,,,4,6,46,2,,,,,,,,,,,,,,,,,,,AFSA16.jpg,AFSA06.jpg,AFNE18.jpg,AFNE05.jpg,AFSA06.jpg,FS,4,num_6,16,num_6,1.3334220713,,,2017_Sep_11_1733,60.0131852557,MAFE4ImagesEEG,001,101569,
AFNE01.JPG,AFNE01.JPG,AFNE01.JPG,AFNE01.JPG,AFNE01.JPG,AFNE01.JPG,,,,,4,7,47,0,,,,,,,,,,,,,,,,,,,AFNE02.jpg,AFSA05.jpg,AFSA07.jpg,AFNE20.jpg,AFSA07.jpg,FS,4,num_2,16,num_2,0.950120485853,,,2017_Sep_11_1733,60.0131852557,MAFE4ImagesEEG,001,101569,
AFNE01.JPG,AFNE01.JPG,AFNE01.JPG,AFNE01.JPG,AFNE01.JPG,AFNE01.JPG,,,,,4,8,48,7,,,,,,,,,,,,,,,,,,,AFNE07.jpg,AFSA11.jpg,AFNE10.jpg,AFSA06.jpg,AFSA06.jpg,FS,4,num_4,32,num_6,1.05019287695,,,2017_Sep_11_1733,60.0131852557,MAFE4ImagesEEG,001,101569,
AFNE01.JPG,AFNE01.JPG,AFNE01.JPG,AFNE01.JPG,AFNE01.JPG,AFNE01.JPG,,,,,4,9,49,6,,,,,,,,,,,,,,,,,,,AFSA20.jpg,AFSA10.jpg,AFNE14.jpg,AFNE07.jpg,AFNE14.jpg,FN,3,num_2,16,num_2,1.00012316415,,,2017_Sep_11_1733,60.0131852557,MAFE4ImagesEEG,001,101569,
AFNE01.JPG,AFNE01.JPG,AFNE01.JPG,AFNE01.JPG,AFNE01.JPG,AFNE01.JPG,,,,,5,0,50,8,,,,,,,,,,,,,,,,,,,AFNE08.jpg,AFSA18.jpg,AFSA11.jpg,AFNE03.jpg,AFSA18.jpg,FS,4,num_6,32,num_4,1.73339153687,,,2017_Sep_11_1733,60.0131852557,MAFE4ImagesEEG,001,101569,
AFNE01.JPG,AFNE01.JPG,AFNE01.JPG,AFNE01.JPG,AFNE01.JPG,AFNE01.JPG,,,,,5,1,51,2,,,,,,,,,,,,,,,,,,,AFNE19.jpg,AFNE20.jpg,AFSA06.jpg,AFSA08.jpg,AFNE19.jpg,FN,3,num_8,32,num_6,1.10010895529,,,2017_Sep_11_1733,60.0131852557,MAFE4ImagesEEG,001,101569,
AFNE01.JPG,AFNE01.JPG,AFNE01.JPG,AFNE01.JPG,AFNE01.JPG,AFNE01.JPG,,,,,5,2,52,0,,,,,,,,,,,,,,,,,,,AFNE09.jpg,AFSA20.jpg,AFSA16.jpg,AFNE06.jpg,AFSA16.jpg,FS,4,num_2,32,num_4,1.58340916154,,,2017_Sep_11_1733,60.0131852557,MAFE4ImagesEEG,001,101569,
AFNE01.JPG,AFNE01.JPG,AFNE01.JPG,AFNE01.JPG,AFNE01.JPG,AFNE01.JPG,,,,,5,3,53,7,,,,,,,,,,,,,,,,,,,AFNE12.jpg,AFNE17.jpg,AFSA12.jpg,AFSA15.jpg,AFSA12.jpg,FS,4,num_2,16,num_2,1.55005479837,,,2017_Sep_11_1733,60.0131852557,MAFE4ImagesEEG,001,101569,
AFNE01.JPG,AFNE01.JPG,AFNE01.JPG,AFNE01.JPG,AFNE01.JPG,AFNE01.JPG,,,,,5,4,54,1,,,,,,,,,,,,,,,,,,,AFNE08.jpg,AFSA07.jpg,AFSA02.jpg,AFNE04.jpg,AFSA02.jpg,FS,4,num_2,32,num_8,3.56656198786,,,2017_Sep_11_1733,60.0131852557,MAFE4ImagesEEG,001,101569,
AFNE01.JPG,AFNE01.JPG,AFNE01.JPG,AFNE01.JPG,AFNE01.JPG,AFNE01.JPG,,,,,5,5,55,6,,,,,,,,,,,,,,,,,,,AFNE09.jpg,AFSA12.jpg,AFNE14.jpg,AFSA08.jpg,AFSA08.jpg,FS,4,num_4,32,num_2,4.44986052625,,,2017_Sep_11_1733,60.0131852557,MAFE4ImagesEEG,001,101569,
AFNE01.JPG,AFNE01.JPG,AFNE01.JPG,AFNE01.JPG,AFNE01.JPG,AFNE01.JPG,,,,,5,6,56,5,,,,,,,,,,,,,,,,,,,AFSA08.jpg,AFNE16.jpg,AFSA03.jpg,AFNE04.jpg,AFNE16.jpg,FN,3,num_6,32,num_8,1.18331717351,,,2017_Sep_11_1733,60.0131852557,MAFE4ImagesEEG,001,101569,
AFNE01.JPG,AFNE01.JPG,AFNE01.JPG,AFNE01.JPG,AFNE01.JPG,AFNE01.JPG,,,,,5,7,57,3,,,,,,,,,,,,,,,,,,,AFSA08.jpg,AFSA12.jpg,AFNE01.jpg,AFNE03.jpg,AFSA08.jpg,FS,4,num_8,32,num_4,1.05006233579,,,2017_Sep_11_1733,60.0131852557,MAFE4ImagesEEG,001,101569,
AFNE01.JPG,AFNE01.JPG,AFNE01.JPG,AFNE01.JPG,AFNE01.JPG,AFNE01.JPG,,,,,5,8,58,9,,,,,,,,,,,,,,,,,,,AFNE01.jpg,AFNE06.jpg,AFSA03.jpg,AFSA08.jpg,AFSA03.jpg,FS,4,num_2,32,num_8,2.23336026492,,,2017_Sep_11_1733,60.0131852557,MAFE4ImagesEEG,001,101569,
AFNE01.JPG,AFNE01.JPG,AFNE01.JPG,AFNE01.JPG,AFNE01.JPG,AFNE01.JPG,,,,,5,9,59,4,,,,,,,,,,,,,,,,,,,AFNE01.jpg,AFNE15.jpg,AFSA17.jpg,AFSA01.jpg,AFNE15.jpg,FN,3,num_6,16,num_6,0.733479419723,,,2017_Sep_11_1733,60.0131852557,MAFE4ImagesEEG,001,101569,
,,,,,,,,,,,,,,,,,,,,,,,,,,,,,,,,,,,,,,,,,,,space,12.182589415,2017_Sep_11_1733,60.0131852557,MAFE4ImagesEEG,001,101569,
AFNE01.JPG,AFNE01.JPG,AFNE01.JPG,AFNE01.JPG,AFNE01.JPG,AFNE01.JPG,,,,,,,,,0,0,0,0,,,,,,,,,,,,,,,AMNE11.jpg,AMNE07.jpg,AMSA15.jpg,AMSA07.jpg,AMSA15.jpg,MS,2,num_2,32,num_6,2.66631492204,,,2017_Sep_11_1733,60.0131852557,MAFE4ImagesEEG,001,101569,
AFNE01.JPG,AFNE01.JPG,AFNE01.JPG,AFNE01.JPG,AFNE01.JPG,AFNE01.JPG,,,,,,,,,0,1,1,2,,,,,,,,,,,,,,,AMNE14.jpg,AMSA01.jpg,AMSA19.jpg,AMNE04.jpg,AMNE14.jpg,MN,1,num_8,32,num_2,3.28325902321,,,2017_Sep_11_1733,60.0131852557,MAFE4ImagesEEG,001,101569,
AFNE01.JPG,AFNE01.JPG,AFNE01.JPG,AFNE01.JPG,AFNE01.JPG,AFNE01.JPG,,,,,,,,,0,2,2,3,,,,,,,,,,,,,,,AMNE05.jpg,AMNE15.jpg,AMSA05.jpg,AMSA09.jpg,AMSA09.jpg,MS,2,num_4,16,num_4,0.600428893231,,,2017_Sep_11_1733,60.0131852557,MAFE4ImagesEEG,001,101569,
AFNE01.JPG,AFNE01.JPG,AFNE01.JPG,AFNE01.JPG,AFNE01.JPG,AFNE01.JPG,,,,,,,,,0,3,3,6,,,,,,,,,,,,,,,AMNE11.jpg,AMSA07.jpg,AMNE09.jpg,AMSA16.jpg,AMSA07.jpg,MS,2,num_6,16,num_6,0.700164828217,,,2017_Sep_11_1733,60.0131852557,MAFE4ImagesEEG,001,101569,
AFNE01.JPG,AFNE01.JPG,AFNE01.JPG,AFNE01.JPG,AFNE01.JPG,AFNE01.JPG,,,,,,,,,0,4,4,9,,,,,,,,,,,,,,,AMSA11.jpg,AMNE05.jpg,AMSA10.jpg,AMNE19.jpg,AMSA11.jpg,MS,2,num_8,32,num_2,1.34994690167,,,2017_Sep_11_1733,60.0131852557,MAFE4ImagesEEG,001,101569,
AFNE01.JPG,AFNE01.JPG,AFNE01.JPG,AFNE01.JPG,AFNE01.JPG,AFNE01.JPG,,,,,,,,,0,5,5,5,,,,,,,,,,,,,,,AMNE06.jpg,AMNE04.jpg,AMSA20.jpg,AMSA13.jpg,AMSA20.jpg,MS,2,num_2,32,num_4,1.05009152321,,,2017_Sep_11_1733,60.0131852557,MAFE4ImagesEEG,001,101569,
AFNE01.JPG,AFNE01.JPG,AFNE01.JPG,AFNE01.JPG,AFNE01.JPG,AFNE01.JPG,,,,,,,,,0,6,6,4,,,,,,,,,,,,,,,AMSA06.jpg,AMNE01.jpg,AMNE07.jpg,AMSA17.jpg,AMSA17.jpg,MS,2,num_4,32,num_8,1.21672125137,,,2017_Sep_11_1733,60.0131852557,MAFE4ImagesEEG,001,101569,
AFNE01.JPG,AFNE01.JPG,AFNE01.JPG,AFNE01.JPG,AFNE01.JPG,AFNE01.JPG,,,,,,,,,0,7,7,7,,,,,,,,,,,,,,,AMNE17.jpg,AMNE03.jpg,AMSA11.jpg,AMSA12.jpg,AMNE17.jpg,MN,1,num_8,32,num_6,0.850081772543,,,2017_Sep_11_1733,60.0131852557,MAFE4ImagesEEG,001,101569,
AFNE01.JPG,AFNE01.JPG,AFNE01.JPG,AFNE01.JPG,AFNE01.JPG,AFNE01.JPG,,,,,,,,,0,8,8,8,,,,,,,,,,,,,,,AMSA17.jpg,AMNE20.jpg,AMNE02.jpg,AMSA19.jpg,AMNE20.jpg,MN,1,num_6,32,num_8,0.83357105474,,,2017_Sep_11_1733,60.0131852557,MAFE4ImagesEEG,001,101569,
AFNE01.JPG,AFNE01.JPG,AFNE01.JPG,AFNE01.JPG,AFNE01.JPG,AFNE01.JPG,,,,,,,,,0,9,9,1,,,,,,,,,,,,,,,AMSA18.jpg,AMNE07.jpg,AMSA05.jpg,AMNE20.jpg,AMSA18.jpg,MS,2,num_8,32,num_2,2.11670210306,,,2017_Sep_11_1733,60.0131852557,MAFE4ImagesEEG,001,101569,
AFNE01.JPG,AFNE01.JPG,AFNE01.JPG,AFNE01.JPG,AFNE01.JPG,AFNE01.JPG,,,,,,,,,1,0,10,2,,,,,,,,,,,,,,,AMNE15.jpg,AMSA03.jpg,AMSA04.jpg,AMNE02.jpg,AMSA04.jpg,MS,2,num_2,32,num_6,1.88351503783,,,2017_Sep_11_1733,60.0131852557,MAFE4ImagesEEG,001,101569,
AFNE01.JPG,AFNE01.JPG,AFNE01.JPG,AFNE01.JPG,AFNE01.JPG,AFNE01.JPG,,,,,,,,,1,1,11,0,,,,,,,,,,,,,,,AMNE15.jpg,AMNE05.jpg,AMSA15.jpg,AMSA17.jpg,AMSA17.jpg,MS,2,num_4,32,num_8,1.05012904969,,,2017_Sep_11_1733,60.0131852557,MAFE4ImagesEEG,001,101569,
AFNE01.JPG,AFNE01.JPG,AFNE01.JPG,AFNE01.JPG,AFNE01.JPG,AFNE01.JPG,,,,,,,,,1,2,12,9,,,,,,,,,,,,,,,AMNE12.jpg,AMSA20.jpg,AMNE10.jpg,AMSA09.jpg,AMSA09.jpg,MS,2,num_4,16,num_4,0.933451001998,,,2017_Sep_11_1733,60.0131852557,MAFE4ImagesEEG,001,101569,
AFNE01.JPG,AFNE01.JPG,AFNE01.JPG,AFNE01.JPG,AFNE01.JPG,AFNE01.JPG,,,,,,,,,1,3,13,7,,,,,,,,,,,,,,,AMNE10.jpg,AMNE07.jpg,AMSA04.jpg,AMSA12.jpg,AMNE07.jpg,MN,1,num_6,32,num_8,1.2001220095,,,2017_Sep_11_1733,60.0131852557,MAFE4ImagesEEG,001,101569,
AFNE01.JPG,AFNE01.JPG,AFNE01.JPG,AFNE01.JPG,AFNE01.JPG,AFNE01.JPG,,,,,,,,,1,4,14,5,,,,,,,,,,,,,,,AMNE01.jpg,AMNE18.jpg,AMSA06.jpg,AMSA02.jpg,AMSA02.jpg,MS,2,num_4,32,num_2,2.58332673134,,,2017_Sep_11_1733,60.0131852557,MAFE4ImagesEEG,001,101569,
AFNE01.JPG,AFNE01.JPG,AFNE01.JPG,AFNE01.JPG,AFNE01.JPG,AFNE01.JPG,,,,,,,,,1,5,15,3,,,,,,,,,,,,,,,AMNE08.jpg,AMSA19.jpg,AMNE16.jpg,AMSA02.jpg,AMNE16.jpg,MN,1,num_2,32,num_6,1.43341876753,,,2017_Sep_11_1733,60.0131852557,MAFE4ImagesEEG,001,101569,
AFNE01.JPG,AFNE01.JPG,AFNE01.JPG,AFNE01.JPG,AFNE01.JPG,AFNE01.JPG,,,,,,,,,1,6,16,4,,,,,,,,,,,,,,,AMSA02.jpg,AMSA03.jpg,AMNE16.jpg,AMNE15.jpg,AMSA02.jpg,MS,2,num_8,32,num_6,0.950133956969,,,2017_Sep_11_1733,60.0131852557,MAFE4ImagesEEG,001,101569,
AFNE01.JPG,AFNE01.JPG,AFNE01.JPG,AFNE01.JPG,AFNE01.JPG,AFNE01.JPG,,,,,,,,,1,7,17,1,,,,,,,,,,,,,,,AMSA06.jpg,AMSA20.jpg,AMNE08.jpg,AMNE15.jpg,AMNE15.jpg,MN,1,num_4,32,num_2,2.1167877405,,,2017_Sep_11_1733,60.0131852557,MAFE4ImagesEEG,001,101569,
AFNE01.JPG,AFNE01.JPG,AFNE01.JPG,AFNE01.JPG,AFNE01.JPG,AFNE01.JPG,,,,,,,,,1,8,18,6,,,,,,,,,,,,,,,AMNE04.jpg,AMSA20.jpg,AMNE20.jpg,AMSA11.jpg,AMSA11.jpg,MS,2,num_4,32,num_6,3.3334121285,,,2017_Sep_11_1733,60.0131852557,MAFE4ImagesEEG,001,101569,
AFNE01.JPG,AFNE01.JPG,AFNE01.JPG,AFNE01.JPG,AFNE01.JPG,AFNE01.JPG,,,,,,,,,1,9,19,8,,,,,,,,,,,,,,,AMNE11.jpg,AMNE14.jpg,AMSA01.jpg,AMSA06.jpg,AMNE14.jpg,MN,1,num_6,16,num_6,0.88342779642,,,2017_Sep_11_1733,60.0131852557,MAFE4ImagesEEG,001,101569,
AFNE01.JPG,AFNE01.JPG,AFNE01.JPG,AFNE01.JPG,AFNE01.JPG,AFNE01.JPG,,,,,,,,,2,0,20,2,,,,,,,,,,,,,,,AMSA10.jpg,AMNE13.jpg,AMNE07.jpg,AMSA07.jpg,AMNE07.jpg,MN,1,num_2,32,num_8,0.916480343789,,,2017_Sep_11_1733,60.0131852557,MAFE4ImagesEEG,001,101569,
AFNE01.JPG,AFNE01.JPG,AFNE01.JPG,AFNE01.JPG,AFNE01.JPG,AFNE01.JPG,,,,,,,,,2,1,21,9,,,,,,,,,,,,,,,AMNE07.jpg,AMSA16.jpg,AMSA19.jpg,AMNE19.jpg,AMNE07.jpg,MN,1,num_8,32,num_4,1.90003088722,,,2017_Sep_11_1733,60.0131852557,MAFE4ImagesEEG,001,101569,
AFNE01.JPG,AFNE01.JPG,AFNE01.JPG,AFNE01.JPG,AFNE01.JPG,AFNE01.JPG,,,,,,,,,2,2,22,0,,,,,,,,,,,,,,,AMNE06.jpg,AMSA12.jpg,AMSA20.jpg,AMNE09.jpg,AMNE09.jpg,MN,1,num_4,32,num_6,0.90012710914,,,2017_Sep_11_1733,60.0131852557,MAFE4ImagesEEG,001,101569,
AFNE01.JPG,AFNE01.JPG,AFNE01.JPG,AFNE01.JPG,AFNE01.JPG,AFNE01.JPG,,,,,,,,,2,3,23,3,,,,,,,,,,,,,,,AMNE09.jpg,AMSA13.jpg,AMNE18.jpg,AMSA11.jpg,AMNE18.jpg,MN,1,num_2,16,num_2,0.966731915949,,,2017_Sep_11_1733,60.0131852557,MAFE4ImagesEEG,001,101569,
AFNE01.JPG,AFNE01.JPG,AFNE01.JPG,AFNE01.JPG,AFNE01.JPG,AFNE01.JPG,,,,,,,,,2,4,24,8,,,,,,,,,,,,,,,AMNE01.jpg,AMSA11.jpg,AMNE17.jpg,AMSA09.jpg,AMSA11.jpg,MS,2,num_6,16,num_6,0.933420852292,,,2017_Sep_11_1733,60.0131852557,MAFE4ImagesEEG,001,101569,
AFNE01.JPG,AFNE01.JPG,AFNE01.JPG,AFNE01.JPG,AFNE01.JPG,AFNE01.JPG,,,,,,,,,2,5,25,4,,,,,,,,,,,,,,,AMSA07.jpg,AMSA12.jpg,AMNE14.jpg,AMNE15.jpg,AMNE15.jpg,MN,1,num_4,32,num_8,2.23335769866,,,2017_Sep_11_1733,60.0131852557,MAFE4ImagesEEG,001,101569,
AFNE01.JPG,AFNE01.JPG,AFNE01.JPG,AFNE01.JPG,AFNE01.JPG,AFNE01.JPG,,,,,,,,,2,6,26,1,,,,,,,,,,,,,,,AMSA07.jpg,AMNE19.jpg,AMSA16.jpg,AMNE09.jpg,AMSA07.jpg,MS,2,num_8,32,num_2,2.08333779685,,,2017_Sep_11_1733,60.0131852557,MAFE4ImagesEEG,001,101569,
AFNE01.JPG,AFNE01.JPG,AFNE01.JPG,AFNE01.JPG,AFNE01.JPG,AFNE01.JPG,,,,,,,,,2,7,27,6,,,,,,,,,,,,,,,AMNE09.jpg,AMNE11.jpg,AMSA16.jpg,AMSA19.jpg,AMNE09.jpg,MN,1,num_8,16,num_8,0.966799912741,,,2017_Sep_11_1733,60.0131852557,MAFE4ImagesEEG,001,101569,
AFNE01.JPG,AFNE01.JPG,AFNE01.JPG,AFNE01.JPG,AFNE01.JPG,AFNE01.JPG,,,,,,,,,2,8,28,5,,,,,,,,,,,,,,,AMNE02.jpg,AMSA18.jpg,AMSA08.jpg,AMNE14.jpg,AMSA18.jpg,MS,2,num_6,16,num_6,1.2999041311,,,2017_Sep_11_1733,60.0131852557,MAFE4ImagesEEG,001,101569,
AFNE01.JPG,AFNE01.JPG,AFNE01.JPG,AFNE01.JPG,AFNE01.JPG,AFNE01.JPG,,,,,,,,,2,9,29,7,,,,,,,,,,,,,,,AMSA05.jpg,AMNE10.jpg,AMNE02.jpg,AMSA18.jpg,AMSA05.jpg,MS,2,num_8,16,num_8,0.883498038398,,,2017_Sep_11_1733,60.0131852557,MAFE4ImagesEEG,001,101569,
AFNE01.JPG,AFNE01.JPG,AFNE01.JPG,AFNE01.JPG,AFNE01.JPG,AFNE01.JPG,,,,,,,,,3,0,30,1,,,,,,,,,,,,,,,AMSA04.jpg,AMSA07.jpg,AMNE02.jpg,AMNE01.jpg,AMSA07.jpg,MS,2,num_6,16,num_6,2.00000096229,,,2017_Sep_11_1733,60.0131852557,MAFE4ImagesEEG,001,101569,
AFNE01.JPG,AFNE01.JPG,AFNE01.JPG,AFNE01.JPG,AFNE01.JPG,AFNE01.JPG,,,,,,,,,3,1,31,0,,,,,,,,,,,,,,,AMSA05.jpg,AMSA04.jpg,AMNE14.jpg,AMNE15.jpg,AMNE14.jpg,MN,1,num_2,32,num_8,1.43350472604,,,2017_Sep_11_1733,60.0131852557,MAFE4ImagesEEG,001,101569,
AFNE01.JPG,AFNE01.JPG,AFNE01.JPG,AFNE01.JPG,AFNE01.JPG,AFNE01.JPG,,,,,,,,,3,2,32,8,,,,,,,,,,,,,,,AMSA06.jpg,AMNE17.jpg,AMNE11.jpg,AMSA05.jpg,AMNE11.jpg,MN,1,num_2,16,num_2,1.19995554537,,,2017_Sep_11_1733,60.0131852557,MAFE4ImagesEEG,001,101569,
AFNE01.JPG,AFNE01.JPG,AFNE01.JPG,AFNE01.JPG,AFNE01.JPG,AFNE01.JPG,,,,,,,,,3,3,33,3,,,,,,,,,,,,,,,AMSA11.jpg,AMSA05.jpg,AMNE02.jpg,AMNE09.jpg,AMNE09.jpg,MN,1,num_4,32,num_6,1.15014563198,,,2017_Sep_11_1733,60.0131852557,MAFE4ImagesEEG,001,101569,
AFNE01.JPG,AFNE01.JPG,AFNE01.JPG,AFNE01.JPG,AFNE01.JPG,AFNE01.JPG,,,,,,,,,3,4,34,7,,,,,,,,,,,,,,,AMSA13.jpg,AMNE19.jpg,AMNE09.jpg,AMSA20.jpg,AMNE09.jpg,MN,1,num_2,16,num_2,1.73342425236,,,2017_Sep_11_1733,60.0131852557,MAFE4ImagesEEG,001,101569,
AFNE01.JPG,AFNE01.JPG,AFNE01.JPG,AFNE01.JPG,AFNE01.JPG,AFNE01.JPG,,,,,,,,,3,5,35,9,,,,,,,,,,,,,,,AMNE09.jpg,AMSA08.jpg,AMNE03.jpg,AMSA04.jpg,AMSA08.jpg,MS,2,num_6,32,num_4,0.616725035943,,,2017_Sep_11_1733,60.0131852557,MAFE4ImagesEEG,001,101569,
AFNE01.JPG,AFNE01.JPG,AFNE01.JPG,AFNE01.JPG,AFNE01.JPG,AFNE01.JPG,,,,,,,,,3,6,36,4,,,,,,,,,,,,,,,AMSA12.jpg,AMSA07.jpg,AMNE14.jpg,AMNE20.jpg,AMSA07.jpg,MS,2,num_6,16,num_6,0.900250273291,,,2017_Sep_11_1733,60.0131852557,MAFE4ImagesEEG,001,101569,
AFNE01.JPG,AFNE01.JPG,AFNE01.JPG,AFNE01.JPG,AFNE01.JPG,AFNE01.JPG,,,,,,,,,3,7,37,6,,,,,,,,,,,,,,,AMNE16.jpg,AMSA16.jpg,AMSA03.jpg,AMNE03.jpg,AMSA03.jpg,MS,2,num_2,16,num_2,1.18324212031,,,2017_Sep_11_1733,60.0131852557,MAFE4ImagesEEG,001,101569,
AFNE01.JPG,AFNE01.JPG,AFNE01.JPG,AFNE01.JPG,AFNE01.JPG,AFNE01.JPG,,,,,,,,,3,8,38,2,,,,,,,,,,,,,,,AMNE14.jpg,AMSA07.jpg,AMNE02.jpg,AMSA02.jpg,AMNE02.jpg,MN,1,num_2,32,num_4,1.06669076486,,,2017_Sep_11_1733,60.0131852557,MAFE4ImagesEEG,001,101569,
AFNE01.JPG,AFNE01.JPG,AFNE01.JPG,AFNE01.JPG,AFNE01.JPG,AFNE01.JPG,,,,,,,,,3,9,39,5,,,,,,,,,,,,,,,AMNE09.jpg,AMSA12.jpg,AMSA07.jpg,AMNE05.jpg,AMNE09.jpg,MN,1,num_8,16,num_8,1.1167681755,,,2017_Sep_11_1733,60.0131852557,MAFE4ImagesEEG,001,101569,
AFNE01.JPG,AFNE01.JPG,AFNE01.JPG,AFNE01.JPG,AFNE01.JPG,AFNE01.JPG,,,,,,,,,4,0,40,6,,,,,,,,,,,,,,,AMSA04.jpg,AMNE17.jpg,AMNE11.jpg,AMSA02.jpg,AMSA02.jpg,MS,2,num_4,16,num_4,2.41665530717,,,2017_Sep_11_1733,60.0131852557,MAFE4ImagesEEG,001,101569,
AFNE01.JPG,AFNE01.JPG,AFNE01.JPG,AFNE01.JPG,AFNE01.JPG,AFNE01.JPG,,,,,,,,,4,1,41,7,,,,,,,,,,,,,,,AMSA18.jpg,AMNE13.jpg,AMNE14.jpg,AMSA12.jpg,AMSA18.jpg,MS,2,num_8,32,num_2,2.33339897799,,,2017_Sep_11_1733,60.0131852557,MAFE4ImagesEEG,001,101569,
AFNE01.JPG,AFNE01.JPG,AFNE01.JPG,AFNE01.JPG,AFNE01.JPG,AFNE01.JPG,,,,,,,,,4,2,42,2,,,,,,,,,,,,,,,AMSA17.jpg,AMNE06.jpg,AMNE14.jpg,AMSA08.jpg,AMNE14.jpg,MN,1,num_2,16,num_2,0.850098450901,,,2017_Sep_11_1733,60.0131852557,MAFE4ImagesEEG,001,101569,
AFNE01.JPG,AFNE01.JPG,AFNE01.JPG,AFNE01.JPG,AFNE01.JPG,AFNE01.JPG,,,,,,,,,4,3,43,8,,,,,,,,,,,,,,,AMSA02.jpg,AMNE10.jpg,AMSA09.jpg,AMNE14.jpg,AMNE14.jpg,MN,1,num_4,32,num_8,1.23348150449,,,2017_Sep_11_1733,60.0131852557,MAFE4ImagesEEG,001,101569,
AFNE01.JPG,AFNE01.JPG,AFNE01.JPG,AFNE01.JPG,AFNE01.JPG,AFNE01.JPG,,,,,,,,,4,4,44,3,,,,,,,,,,,,,,,AMNE13.jpg,AMSA01.jpg,AMSA09.jpg,AMNE02.jpg,AMSA09.jpg,MS,2,num_2,32,num_6,1.31670255191,,,2017_Sep_11_1733,60.0131852557,MAFE4ImagesEEG,001,101569,
AFNE01.JPG,AFNE01.JPG,AFNE01.JPG,AFNE01.JPG,AFNE01.JPG,AFNE01.JPG,,,,,,,,,4,5,45,9,,,,,,,,,,,,,,,AMNE08.jpg,AMNE06.jpg,AMSA12.jpg,AMSA17.jpg,AMSA17.jpg,MS,2,num_4,32,num_8,2.38332948973,,,2017_Sep_11_1733,60.0131852557,MAFE4ImagesEEG,001,101569,
AFNE01.JPG,AFNE01.JPG,AFNE01.JPG,AFNE01.JPG,AFNE01.JPG,AFNE01.JPG,,,,,,,,,4,6,46,1,,,,,,,,,,,,,,,AMSA07.jpg,AMNE11.jpg,AMNE10.jpg,AMSA20.jpg,AMNE10.jpg,MN,1,num_2,32,num_4,1.53340969095,,,2017_Sep_11_1733,60.0131852557,MAFE4ImagesEEG,001,101569,
AFNE01.JPG,AFNE01.JPG,AFNE01.JPG,AFNE01.JPG,AFNE01.JPG,AFNE01.JPG,,,,,,,,,4,7,47,4,,,,,,,,,,,,,,,AMSA12.jpg,AMNE02.jpg,AMSA17.jpg,AMNE19.jpg,AMSA17.jpg,MS,2,num_2,32,num_8,1.35006172629,,,2017_Sep_11_1733,60.0131852557,MAFE4ImagesEEG,001,101569,
AFNE01.JPG,AFNE01.JPG,AFNE01.JPG,AFNE01.JPG,AFNE01.JPG,AFNE01.JPG,,,,,,,,,4,8,48,0,,,,,,,,,,,,,,,AMNE06.jpg,AMNE13.jpg,AMSA01.jpg,AMSA10.jpg,AMNE06.jpg,MN,1,num_8,32,num_6,1.41672715289,,,2017_Sep_11_1733,60.0131852557,MAFE4ImagesEEG,001,101569,
AFNE01.JPG,AFNE01.JPG,AFNE01.JPG,AFNE01.JPG,AFNE01.JPG,AFNE01.JPG,,,,,,,,,4,9,49,5,,,,,,,,,,,,,,,AMNE07.jpg,AMSA02.jpg,AMSA19.jpg,AMNE08.jpg,AMSA19.jpg,MS,2,num_2,32,num_8,0.950102203526,,,2017_Sep_11_1733,60.0131852557,MAFE4ImagesEEG,001,101569,
AFNE01.JPG,AFNE01.JPG,AFNE01.JPG,AFNE01.JPG,AFNE01.JPG,AFNE01.JPG,,,,,,,,,5,0,50,8,,,,,,,,,,,,,,,AMNE05.jpg,AMSA03.jpg,AMNE18.jpg,AMSA02.jpg,AMNE18.jpg,MN,1,num_2,32,num_6,4.54955348233,,,2017_Sep_11_1733,60.0131852557,MAFE4ImagesEEG,001,101569,
AFNE01.JPG,AFNE01.JPG,AFNE01.JPG,AFNE01.JPG,AFNE01.JPG,AFNE01.JPG,,,,,,,,,5,1,51,4,,,,,,,,,,,,,,,AMNE03.jpg,AMSA14.jpg,AMNE17.jpg,AMSA02.jpg,AMNE17.jpg,MN,1,num_2,32,num_8,2.98331832793,,,2017_Sep_11_1733,60.0131852557,MAFE4ImagesEEG,001,101569,
AFNE01.JPG,AFNE01.JPG,AFNE01.JPG,AFNE01.JPG,AFNE01.JPG,AFNE01.JPG,,,,,,,,,5,2,52,0,,,,,,,,,,,,,,,AMSA09.jpg,AMSA17.jpg,AMNE05.jpg,AMNE06.jpg,AMNE06.jpg,MN,1,num_4,32,num_2,1.10003358126,,,2017_Sep_11_1733,60.0131852557,MAFE4ImagesEEG,001,101569,
AFNE01.JPG,AFNE01.JPG,AFNE01.JPG,AFNE01.JPG,AFNE01.JPG,AFNE01.JPG,,,,,,,,,5,3,53,6,,,,,,,,,,,,,,,AMNE20.jpg,AMNE19.jpg,AMSA17.jpg,AMSA01.jpg,AMNE20.jpg,MN,1,num_8,16,num_8,1.98336034501,,,2017_Sep_11_1733,60.0131852557,MAFE4ImagesEEG,001,101569,
AFNE01.JPG,AFNE01.JPG,AFNE01.JPG,AFNE01.JPG,AFNE01.JPG,AFNE01.JPG,,,,,,,,,5,4,54,3,,,,,,,,,,,,,,,AMNE07.jpg,AMNE12.jpg,AMSA13.jpg,AMSA05.jpg,AMSA13.jpg,MS,2,num_2,32,num_6,1.216778022,,,2017_Sep_11_1733,60.0131852557,MAFE4ImagesEEG,001,101569,
AFNE01.JPG,AFNE01.JPG,AFNE01.JPG,AFNE01.JPG,AFNE01.JPG,AFNE01.JPG,,,,,,,,,5,5,55,1,,,,,,,,,,,,,,,AMNE08.jpg,AMSA11.jpg,AMNE20.jpg,AMSA06.jpg,AMNE08.jpg,MN,1,num_8,32,num_2,2.33333194326,,,2017_Sep_11_1733,60.0131852557,MAFE4ImagesEEG,001,101569,
AFNE01.JPG,AFNE01.JPG,AFNE01.JPG,AFNE01.JPG,AFNE01.JPG,AFNE01.JPG,,,,,,,,,5,6,56,9,,,,,,,,,,,,,,,AMSA13.jpg,AMNE17.jpg,AMSA03.jpg,AMNE19.jpg,AMSA03.jpg,MS,2,num_2,16,num_2,0.733491928549,,,2017_Sep_11_1733,60.0131852557,MAFE4ImagesEEG,001,101569,
AFNE01.JPG,AFNE01.JPG,AFNE01.JPG,AFNE01.JPG,AFNE01.JPG,AFNE01.JPG,,,,,,,,,5,7,57,5,,,,,,,,,,,,,,,AMSA08.jpg,AMSA18.jpg,AMNE13.jpg,AMNE16.jpg,AMNE13.jpg,MN,1,num_2,32,num_4,1.11671589478,,,2017_Sep_11_1733,60.0131852557,MAFE4ImagesEEG,001,101569,
AFNE01.JPG,AFNE01.JPG,AFNE01.JPG,AFNE01.JPG,AFNE01.JPG,AFNE01.JPG,,,,,,,,,5,8,58,2,,,,,,,,,,,,,,,AMSA05.jpg,AMNE03.jpg,AMSA14.jpg,AMNE04.jpg,AMNE04.jpg,MN,1,num_4,32,num_2,1.20009314269,,,2017_Sep_11_1733,60.0131852557,MAFE4ImagesEEG,001,101569,
AFNE01.JPG,AFNE01.JPG,AFNE01.JPG,AFNE01.JPG,AFNE01.JPG,AFNE01.JPG,,,,,,,,,5,9,59,7,,,,,,,,,,,,,,,AMSA06.jpg,AMNE12.jpg,AMSA03.jpg,AMNE15.jpg,AMNE15.jpg,MN,1,num_4,16,num_4,1.08340579388,,,2017_Sep_11_1733,60.0131852557,MAFE4ImagesEEG,001,101569,
,,,,,,,,,,,,,,,,,,,,,,,,,,,,,,,,,,,,,,,,,,,space,9.69910831167,2017_Sep_11_1733,60.0131852557,MAFE4ImagesEEG,001,101569,
AFNE01.JPG,AFNE01.JPG,AFNE01.JPG,AFNE01.JPG,AFNE01.JPG,AFNE01.JPG,,,,,,,,,,,,,0,0,0,4,,,,,,,,,,,AFNE20.jpg,AFSA04.jpg,AFSA17.jpg,AFNE03.jpg,AFSA04.jpg,FS,4,num_6,32,num_2,1.51686337101,,,2017_Sep_11_1733,60.0131852557,MAFE4ImagesEEG,001,101569,
AFNE01.JPG,AFNE01.JPG,AFNE01.JPG,AFNE01.JPG,AFNE01.JPG,AFNE01.JPG,,,,,,,,,,,,,0,1,1,8,,,,,,,,,,,AFNE03.jpg,AFSA20.jpg,AFNE06.jpg,AFSA01.jpg,AFSA20.jpg,FS,4,num_6,16,num_6,1.55004613847,,,2017_Sep_11_1733,60.0131852557,MAFE4ImagesEEG,001,101569,
AFNE01.JPG,AFNE01.JPG,AFNE01.JPG,AFNE01.JPG,AFNE01.JPG,AFNE01.JPG,,,,,,,,,,,,,0,2,2,7,,,,,,,,,,,AFNE16.jpg,AFNE09.jpg,AFSA18.jpg,AFSA11.jpg,AFSA11.jpg,FS,4,num_4,16,num_4,0.683459100779,,,2017_Sep_11_1733,60.0131852557,MAFE4ImagesEEG,001,101569,
AFNE01.JPG,AFNE01.JPG,AFNE01.JPG,AFNE01.JPG,AFNE01.JPG,AFNE01.JPG,,,,,,,,,,,,,0,3,3,0,,,,,,,,,,,AFNE03.jpg,AFNE02.jpg,AFSA13.jpg,AFSA17.jpg,AFSA13.jpg,FS,4,num_2,32,num_8,1.16673204419,,,2017_Sep_11_1733,60.0131852557,MAFE4ImagesEEG,001,101569,
AFNE01.JPG,AFNE01.JPG,AFNE01.JPG,AFNE01.JPG,AFNE01.JPG,AFNE01.JPG,,,,,,,,,,,,,0,4,4,3,,,,,,,,,,,AFNE14.jpg,AFSA02.jpg,AFNE13.jpg,AFSA03.jpg,AFSA02.jpg,FS,4,num_6,32,num_8,1.73338159383,,,2017_Sep_11_1733,60.0131852557,MAFE4ImagesEEG,001,101569,
AFNE01.JPG,AFNE01.JPG,AFNE01.JPG,AFNE01.JPG,AFNE01.JPG,AFNE01.JPG,,,,,,,,,,,,,0,5,5,1,,,,,,,,,,,AFNE10.jpg,AFNE11.jpg,AFSA14.jpg,AFSA20.jpg,AFSA20.jpg,FS,4,num_4,32,num_2,1.26673707971,,,2017_Sep_11_1733,60.0131852557,MAFE4ImagesEEG,001,101569,
AFNE01.JPG,AFNE01.JPG,AFNE01.JPG,AFNE01.JPG,AFNE01.JPG,AFNE01.JPG,,,,,,,,,,,,,0,6,6,6,,,,,,,,,,,AFSA12.jpg,AFNE20.jpg,AFSA18.jpg,AFNE10.jpg,AFSA12.jpg,FS,4,num_8,32,num_6,1.15011580312,,,2017_Sep_11_1733,60.0131852557,MAFE4ImagesEEG,001,101569,
AFNE01.JPG,AFNE01.JPG,AFNE01.JPG,AFNE01.JPG,AFNE01.JPG,AFNE01.JPG,,,,,,,,,,,,,0,7,7,5,,,,,,,,,,,AFSA11.jpg,AFNE06.jpg,AFSA18.jpg,AFNE13.jpg,AFNE13.jpg,FN,3,num_4,32,num_8,1.15012221783,,,2017_Sep_11_1733,60.0131852557,MAFE4ImagesEEG,001,101569,
AFNE01.JPG,AFNE01.JPG,AFNE01.JPG,AFNE01.JPG,AFNE01.JPG,AFNE01.JPG,,,,,,,,,,,,,0,8,8,2,,,,,,,,,,,AFNE19.jpg,AFSA04.jpg,AFNE09.jpg,AFSA10.jpg,AFNE09.jpg,FN,3,num_2,16,num_2,2.08310333616,,,2017_Sep_11_1733,60.0131852557,MAFE4ImagesEEG,001,101569,
AFNE01.JPG,AFNE01.JPG,AFNE01.JPG,AFNE01.JPG,AFNE01.JPG,AFNE01.JPG,,,,,,,,,,,,,0,9,9,9,,,,,,,,,,,AFNE12.jpg,AFSA17.jpg,AFSA03.jpg,AFNE14.jpg,AFSA03.jpg,FS,4,num_2,32,num_6,0.883435494266,,,2017_Sep_11_1733,60.0131852557,MAFE4ImagesEEG,001,101569,
AFNE01.JPG,AFNE01.JPG,AFNE01.JPG,AFNE01.JPG,AFNE01.JPG,AFNE01.JPG,,,,,,,,,,,,,1,0,10,2,,,,,,,,,,,AFNE14.jpg,AFNE04.jpg,AFSA10.jpg,AFSA05.jpg,AFNE04.jpg,FN,3,num_6,32,num_8,2.13335298398,,,2017_Sep_11_1733,60.0131852557,MAFE4ImagesEEG,001,101569,
AFNE01.JPG,AFNE01.JPG,AFNE01.JPG,AFNE01.JPG,AFNE01.JPG,AFNE01.JPG,,,,,,,,,,,,,1,1,11,6,,,,,,,,,,,AFNE17.jpg,AFNE05.jpg,AFSA14.jpg,AFSA17.jpg,AFNE17.jpg,FN,3,num_8,32,num_2,1.01671406673,,,2017_Sep_11_1733,60.0131852557,MAFE4ImagesEEG,001,101569,
AFNE01.JPG,AFNE01.JPG,AFNE01.JPG,AFNE01.JPG,AFNE01.JPG,AFNE01.JPG,,,,,,,,,,,,,1,2,12,1,,,,,,,,,,,AFNE16.jpg,AFSA20.jpg,AFSA02.jpg,AFNE20.jpg,AFNE20.jpg,FN,3,num_4,32,num_8,3.3332469475,,,2017_Sep_11_1733,60.0131852557,MAFE4ImagesEEG,001,101569,
AFNE01.JPG,AFNE01.JPG,AFNE01.JPG,AFNE01.JPG,AFNE01.JPG,AFNE01.JPG,,,,,,,,,,,,,1,3,13,3,,,,,,,,,,,AFSA14.jpg,AFSA18.jpg,AFNE09.jpg,AFNE11.jpg,AFSA18.jpg,FS,4,num_6,16,num_6,1.2834165066,,,2017_Sep_11_1733,60.0131852557,MAFE4ImagesEEG,001,101569,
AFNE01.JPG,AFNE01.JPG,AFNE01.JPG,AFNE01.JPG,AFNE01.JPG,AFNE01.JPG,,,,,,,,,,,,,1,4,14,9,,,,,,,,,,,AFSA14.jpg,AFNE08.jpg,AFNE06.jpg,AFSA03.jpg,AFSA03.jpg,FS,4,num_4,16,num_4,2.18340473529,,,2017_Sep_11_1733,60.0131852557,MAFE4ImagesEEG,001,101569,
AFNE01.JPG,AFNE01.JPG,AFNE01.JPG,AFNE01.JPG,AFNE01.JPG,AFNE01.JPG,,,,,,,,,,,,,1,5,15,5,,,,,,,,,,,AFNE14.jpg,AFSA03.jpg,AFNE01.jpg,AFSA02.jpg,AFSA03.jpg,FS,4,num_6,16,num_6,0.750115867238,,,2017_Sep_11_1733,60.0131852557,MAFE4ImagesEEG,001,101569,
AFNE01.JPG,AFNE01.JPG,AFNE01.JPG,AFNE01.JPG,AFNE01.JPG,AFNE01.JPG,,,,,,,,,,,,,1,6,16,7,,,,,,,,,,,AFNE09.jpg,AFSA04.jpg,AFNE20.jpg,AFSA08.jpg,AFNE09.jpg,FN,3,num_8,16,num_8,0.866761199431,,,2017_Sep_11_1733,60.0131852557,MAFE4ImagesEEG,001,101569,
AFNE01.JPG,AFNE01.JPG,AFNE01.JPG,AFNE01.JPG,AFNE01.JPG,AFNE01.JPG,,,,,,,,,,,,,1,7,17,0,,,,,,,,,,,AFSA18.jpg,AFSA16.jpg,AFNE19.jpg,AFNE04.jpg,AFNE19.jpg,FN,3,num_2,32,num_8,2.69998970418,,,2017_Sep_11_1733,60.0131852557,MAFE4ImagesEEG,001,101569,
AFNE01.JPG,AFNE01.JPG,AFNE01.JPG,AFNE01.JPG,AFNE01.JPG,AFNE01.JPG,,,,,,,,,,,,,1,8,18,8,,,,,,,,,,,AFSA15.jpg,AFNE14.jpg,AFSA11.jpg,AFNE11.jpg,AFSA15.jpg,FS,4,num_8,16,num_8,0.983394984854,,,2017_Sep_11_1733,60.0131852557,MAFE4ImagesEEG,001,101569,
AFNE01.JPG,AFNE01.JPG,AFNE01.JPG,AFNE01.JPG,AFNE01.JPG,AFNE01.JPG,,,,,,,,,,,,,1,9,19,4,,,,,,,,,,,AFNE18.jpg,AFSA05.jpg,AFSA10.jpg,AFNE05.jpg,AFSA05.jpg,FS,4,num_6,16,num_6,1.61672696029,,,2017_Sep_11_1733,60.0131852557,MAFE4ImagesEEG,001,101569,
AFNE01.JPG,AFNE01.JPG,AFNE01.JPG,AFNE01.JPG,AFNE01.JPG,AFNE01.JPG,,,,,,,,,,,,,2,0,20,5,,,,,,,,,,,AFSA07.jpg,AFSA09.jpg,AFNE09.jpg,AFNE13.jpg,AFNE13.jpg,FN,3,num_4,32,num_8,1.9000828471,,,2017_Sep_11_1733,60.0131852557,MAFE4ImagesEEG,001,101569,
AFNE01.JPG,AFNE01.JPG,AFNE01.JPG,AFNE01.JPG,AFNE01.JPG,AFNE01.JPG,,,,,,,,,,,,,2,1,21,7,,,,,,,,,,,AFNE17.jpg,AFSA01.jpg,AFNE11.jpg,AFSA06.jpg,AFSA06.jpg,FS,4,num_4,16,num_4,1.25010095281,,,2017_Sep_11_1733,60.0131852557,MAFE4ImagesEEG,001,101569,
AFNE01.JPG,AFNE01.JPG,AFNE01.JPG,AFNE01.JPG,AFNE01.JPG,AFNE01.JPG,,,,,,,,,,,,,2,2,22,8,,,,,,,,,,,AFNE17.jpg,AFSA20.jpg,AFSA05.jpg,AFNE15.jpg,AFSA05.jpg,FS,4,num_2,32,num_6,0.950102524599,,,2017_Sep_11_1733,60.0131852557,MAFE4ImagesEEG,001,101569,
AFNE01.JPG,AFNE01.JPG,AFNE01.JPG,AFNE01.JPG,AFNE01.JPG,AFNE01.JPG,,,,,,,,,,,,,2,3,23,4,,,,,,,,,,,AFNE07.jpg,AFSA08.jpg,AFNE11.jpg,AFSA18.jpg,AFNE11.jpg,FN,3,num_2,16,num_2,1.7833461042,,,2017_Sep_11_1733,60.0131852557,MAFE4ImagesEEG,001,101569,
AFNE01.JPG,AFNE01.JPG,AFNE01.JPG,AFNE01.JPG,AFNE01.JPG,AFNE01.JPG,,,,,,,,,,,,,2,4,24,6,,,,,,,,,,,AFSA09.jpg,AFSA03.jpg,AFNE16.jpg,AFNE04.jpg,AFSA09.jpg,FS,4,num_8,16,num_8,0.983422247693,,,2017_Sep_11_1733,60.0131852557,MAFE4ImagesEEG,001,101569,
AFNE01.JPG,AFNE01.JPG,AFNE01.JPG,AFNE01.JPG,AFNE01.JPG,AFNE01.JPG,,,,,,,,,,,,,2,5,25,3,,,,,,,,,,,AFSA09.jpg,AFSA03.jpg,AFNE06.jpg,AFNE15.jpg,AFSA09.jpg,FS,4,num_8,16,num_8,1.6167160552,,,2017_Sep_11_1733,60.0131852557,MAFE4ImagesEEG,001,101569,
AFNE01.JPG,AFNE01.JPG,AFNE01.JPG,AFNE01.JPG,AFNE01.JPG,AFNE01.JPG,,,,,,,,,,,,,2,6,26,2,,,,,,,,,,,AFNE12.jpg,AFSA09.jpg,AFNE09.jpg,AFSA01.jpg,AFSA01.jpg,FS,4,num_4,16,num_4,2.48339225864,,,2017_Sep_11_1733,60.0131852557,MAFE4ImagesEEG,001,101569,
AFNE01.JPG,AFNE01.JPG,AFNE01.JPG,AFNE01.JPG,AFNE01.JPG,AFNE01.JPG,,,,,,,,,,,,,2,7,27,9,,,,,,,,,,,AFSA07.jpg,AFSA11.jpg,AFNE13.jpg,AFNE18.jpg,AFNE13.jpg,FN,3,num_2,16,num_2,1.20007967181,,,2017_Sep_11_1733,60.0131852557,MAFE4ImagesEEG,001,101569,
AFNE01.JPG,AFNE01.JPG,AFNE01.JPG,AFNE01.JPG,AFNE01.JPG,AFNE01.JPG,,,,,,,,,,,,,2,8,28,1,,,,,,,,,,,AFSA06.jpg,AFNE09.jpg,AFNE15.jpg,AFSA04.jpg,AFNE15.jpg,FN,3,num_2,32,num_6,1.80007973569,,,2017_Sep_11_1733,60.0131852557,MAFE4ImagesEEG,001,101569,
AFNE01.JPG,AFNE01.JPG,AFNE01.JPG,AFNE01.JPG,AFNE01.JPG,AFNE01.JPG,,,,,,,,,,,,,2,9,29,0,,,,,,,,,,,AFNE10.jpg,AFNE14.jpg,AFSA13.jpg,AFSA15.jpg,AFSA15.jpg,FS,4,num_4,16,num_4,0.683477382874,,,2017_Sep_11_1733,60.0131852557,MAFE4ImagesEEG,001,101569,
AFNE01.JPG,AFNE01.JPG,AFNE01.JPG,AFNE01.JPG,AFNE01.JPG,AFNE01.JPG,,,,,,,,,,,,,3,0,30,8,,,,,,,,,,,AFSA07.jpg,AFSA11.jpg,AFNE14.jpg,AFNE15.jpg,AFSA11.jpg,FS,4,num_6,16,num_6,0.583787955111,,,2017_Sep_11_1733,60.0131852557,MAFE4ImagesEEG,001,101569,
AFNE01.JPG,AFNE01.JPG,AFNE01.JPG,AFNE01.JPG,AFNE01.JPG,AFNE01.JPG,,,,,,,,,,,,,3,1,31,7,,,,,,,,,,,AFSA17.jpg,AFSA01.jpg,AFNE11.jpg,AFNE19.jpg,AFSA01.jpg,FS,4,num_6,32,num_8,1.58343385858,,,2017_Sep_11_1733,60.0131852557,MAFE4ImagesEEG,001,101569,
AFNE01.JPG,AFNE01.JPG,AFNE01.JPG,AFNE01.JPG,AFNE01.JPG,AFNE01.JPG,,,,,,,,,,,,,3,2,32,6,,,,,,,,,,,AFSA16.jpg,AFSA02.jpg,AFNE19.jpg,AFNE16.jpg,AFNE16.jpg,FN,3,num_4,32,num_2,1.00007601525,,,2017_Sep_11_1733,60.0131852557,MAFE4ImagesEEG,001,101569,
AFNE01.JPG,AFNE01.JPG,AFNE01.JPG,AFNE01.JPG,AFNE01.JPG,AFNE01.JPG,,,,,,,,,,,,,3,3,33,0,,,,,,,,,,,AFSA15.jpg,AFSA12.jpg,AFNE05.jpg,AFNE01.jpg,AFSA15.jpg,FS,4,num_8,16,num_8,1.31671826844,,,2017_Sep_11_1733,60.0131852557,MAFE4ImagesEEG,001,101569,
AFNE01.JPG,AFNE01.JPG,AFNE01.JPG,AFNE01.JPG,AFNE01.JPG,AFNE01.JPG,,,,,,,,,,,,,3,4,34,3,,,,,,,,,,,AFNE11.jpg,AFNE20.jpg,AFSA15.jpg,AFSA01.jpg,AFSA01.jpg,FS,4,num_4,32,num_8,1.21672926983,,,2017_Sep_11_1733,60.0131852557,MAFE4ImagesEEG,001,101569,
AFNE01.JPG,AFNE01.JPG,AFNE01.JPG,AFNE01.JPG,AFNE01.JPG,AFNE01.JPG,,,,,,,,,,,,,3,5,35,1,,,,,,,,,,,AFSA17.jpg,AFNE11.jpg,AFNE05.jpg,AFSA08.jpg,AFNE11.jpg,FN,3,num_6,16,num_6,1.03321227548,,,2017_Sep_11_1733,60.0131852557,MAFE4ImagesEEG,001,101569,
AFNE01.JPG,AFNE01.JPG,AFNE01.JPG,AFNE01.JPG,AFNE01.JPG,AFNE01.JPG,,,,,,,,,,,,,3,6,36,9,,,,,,,,,,,AFSA02.jpg,AFNE16.jpg,AFNE20.jpg,AFSA19.jpg,AFSA02.jpg,FS,4,num_8,48,None,,,,2017_Sep_11_1733,60.0131852557,MAFE4ImagesEEG,001,101569,
AFNE01.JPG,AFNE01.JPG,AFNE01.JPG,AFNE01.JPG,AFNE01.JPG,AFNE01.JPG,,,,,,,,,,,,,3,7,37,4,,,,,,,,,,,AFSA10.jpg,AFNE14.jpg,AFNE05.jpg,AFSA09.jpg,AFNE05.jpg,FN,3,num_2,16,num_2,1.20013291459,,,2017_Sep_11_1733,60.0131852557,MAFE4ImagesEEG,001,101569,
AFNE01.JPG,AFNE01.JPG,AFNE01.JPG,AFNE01.JPG,AFNE01.JPG,AFNE01.JPG,,,,,,,,,,,,,3,8,38,5,,,,,,,,,,,AFSA15.jpg,AFNE20.jpg,AFSA03.jpg,AFNE03.jpg,AFNE03.jpg,FN,3,num_4,32,num_8,1.61671990412,,,2017_Sep_11_1733,60.0131852557,MAFE4ImagesEEG,001,101569,
AFNE01.JPG,AFNE01.JPG,AFNE01.JPG,AFNE01.JPG,AFNE01.JPG,AFNE01.JPG,,,,,,,,,,,,,3,9,39,2,,,,,,,,,,,AFNE15.jpg,AFSA01.jpg,AFNE13.jpg,AFSA05.jpg,AFNE15.jpg,FN,3,num_8,16,num_8,1.48359689047,,,2017_Sep_11_1733,60.0131852557,MAFE4ImagesEEG,001,101569,
AFNE01.JPG,AFNE01.JPG,AFNE01.JPG,AFNE01.JPG,AFNE01.JPG,AFNE01.JPG,,,,,,,,,,,,,4,0,40,1,,,,,,,,,,,AFNE12.jpg,AFSA02.jpg,AFNE11.jpg,AFSA05.jpg,AFSA02.jpg,FS,4,num_6,16,num_6,2.60031182319,,,2017_Sep_11_1733,60.0131852557,MAFE4ImagesEEG,001,101569,
AFNE01.JPG,AFNE01.JPG,AFNE01.JPG,AFNE01.JPG,AFNE01.JPG,AFNE01.JPG,,,,,,,,,,,,,4,1,41,6,,,,,,,,,,,AFNE03.jpg,AFSA18.jpg,AFSA05.jpg,AFNE16.jpg,AFNE16.jpg,FN,3,num_4,32,num_8,1.11673449771,,,2017_Sep_11_1733,60.0131852557,MAFE4ImagesEEG,001,101569,
AFNE01.JPG,AFNE01.JPG,AFNE01.JPG,AFNE01.JPG,AFNE01.JPG,AFNE01.JPG,,,,,,,,,,,,,4,2,42,5,,,,,,,,,,,AFNE07.jpg,AFSA12.jpg,AFSA06.jpg,AFNE08.jpg,AFNE07.jpg,FN,3,num_8,16,num_8,3.04995745374,,,2017_Sep_11_1733,60.0131852557,MAFE4ImagesEEG,001,101569,
AFNE01.JPG,AFNE01.JPG,AFNE01.JPG,AFNE01.JPG,AFNE01.JPG,AFNE01.JPG,,,,,,,,,,,,,4,3,43,8,,,,,,,,,,,AFNE04.jpg,AFSA12.jpg,AFSA09.jpg,AFNE08.jpg,AFNE08.jpg,FN,3,num_4,32,num_2,2.21666191425,,,2017_Sep_11_1733,60.0131852557,MAFE4ImagesEEG,001,101569,
AFNE01.JPG,AFNE01.JPG,AFNE01.JPG,AFNE01.JPG,AFNE01.JPG,AFNE01.JPG,,,,,,,,,,,,,4,4,44,4,,,,,,,,,,,AFNE18.jpg,AFNE11.jpg,AFSA17.jpg,AFSA03.jpg,AFNE11.jpg,FN,3,num_6,16,num_6,2.29995448701,,,2017_Sep_11_1733,60.0131852557,MAFE4ImagesEEG,001,101569,
AFNE01.JPG,AFNE01.JPG,AFNE01.JPG,AFNE01.JPG,AFNE01.JPG,AFNE01.JPG,,,,,,,,,,,,,4,5,45,7,,,,,,,,,,,AFNE17.jpg,AFNE13.jpg,AFSA07.jpg,AFSA02.jpg,AFSA02.jpg,FS,4,num_4,32,num_8,1.81669405242,,,2017_Sep_11_1733,60.0131852557,MAFE4ImagesEEG,001,101569,
AFNE01.JPG,AFNE01.JPG,AFNE01.JPG,AFNE01.JPG,AFNE01.JPG,AFNE01.JPG,,,,,,,,,,,,,4,6,46,0,,,,,,,,,,,AFNE02.jpg,AFNE10.jpg,AFSA10.jpg,AFSA03.jpg,AFNE02.jpg,FN,3,num_8,32,num_6,1.40010866662,,,2017_Sep_11_1733,60.0131852557,MAFE4ImagesEEG,001,101569,
AFNE01.JPG,AFNE01.JPG,AFNE01.JPG,AFNE01.JPG,AFNE01.JPG,AFNE01.JPG,,,,,,,,,,,,,4,7,47,2,,,,,,,,,,,AFNE06.jpg,AFSA04.jpg,AFNE07.jpg,AFSA19.jpg,AFNE06.jpg,FN,3,num_8,32,num_4,2.88328057714,,,2017_Sep_11_1733,60.0131852557,MAFE4ImagesEEG,001,101569,
AFNE01.JPG,AFNE01.JPG,AFNE01.JPG,AFNE01.JPG,AFNE01.JPG,AFNE01.JPG,,,,,,,,,,,,,4,8,48,9,,,,,,,,,,,AFSA07.jpg,AFNE02.jpg,AFSA15.jpg,AFNE05.jpg,AFSA15.jpg,FS,4,num_2,32,num_8,1.56670150976,,,2017_Sep_11_1733,60.0131852557,MAFE4ImagesEEG,001,101569,
AFNE01.JPG,AFNE01.JPG,AFNE01.JPG,AFNE01.JPG,AFNE01.JPG,AFNE01.JPG,,,,,,,,,,,,,4,9,49,3,,,,,,,,,,,AFSA13.jpg,AFNE15.jpg,AFNE14.jpg,AFSA16.jpg,AFNE14.jpg,FN,3,num_2,32,num_6,2.21664876398,,,2017_Sep_11_1733,60.0131852557,MAFE4ImagesEEG,001,101569,
AFNE01.JPG,AFNE01.JPG,AFNE01.JPG,AFNE01.JPG,AFNE01.JPG,AFNE01.JPG,,,,,,,,,,,,,5,0,50,3,,,,,,,,,,,AFNE05.jpg,AFSA09.jpg,AFSA20.jpg,AFNE06.jpg,AFSA20.jpg,FS,4,num_2,32,num_8,1.50011498504,,,2017_Sep_11_1733,60.0131852557,MAFE4ImagesEEG,001,101569,
AFNE01.JPG,AFNE01.JPG,AFNE01.JPG,AFNE01.JPG,AFNE01.JPG,AFNE01.JPG,,,,,,,,,,,,,5,1,51,5,,,,,,,,,,,AFSA13.jpg,AFNE16.jpg,AFSA03.jpg,AFNE20.jpg,AFNE16.jpg,FN,3,num_6,32,num_2,1.20009025629,,,2017_Sep_11_1733,60.0131852557,MAFE4ImagesEEG,001,101569,
AFNE01.JPG,AFNE01.JPG,AFNE01.JPG,AFNE01.JPG,AFNE01.JPG,AFNE01.JPG,,,,,,,,,,,,,5,2,52,9,,,,,,,,,,,AFNE01.jpg,AFSA16.jpg,AFSA17.jpg,AFNE02.jpg,AFSA17.jpg,FS,4,num_2,32,num_6,1.23342633713,,,2017_Sep_11_1733,60.0131852557,MAFE4ImagesEEG,001,101569,
AFNE01.JPG,AFNE01.JPG,AFNE01.JPG,AFNE01.JPG,AFNE01.JPG,AFNE01.JPG,,,,,,,,,,,,,5,3,53,6,,,,,,,,,,,AFNE10.jpg,AFNE02.jpg,AFSA01.jpg,AFSA10.jpg,AFNE02.jpg,FN,3,num_6,32,num_8,1.70004583383,,,2017_Sep_11_1733,60.0131852557,MAFE4ImagesEEG,001,101569,
AFNE01.JPG,AFNE01.JPG,AFNE01.JPG,AFNE01.JPG,AFNE01.JPG,AFNE01.JPG,,,,,,,,,,,,,5,4,54,0,,,,,,,,,,,AFSA19.jpg,AFNE04.jpg,AFSA04.jpg,AFNE02.jpg,AFNE04.jpg,FN,3,num_6,16,num_6,1.00008724141,,,2017_Sep_11_1733,60.0131852557,MAFE4ImagesEEG,001,101569,
AFNE01.JPG,AFNE01.JPG,AFNE01.JPG,AFNE01.JPG,AFNE01.JPG,AFNE01.JPG,,,,,,,,,,,,,5,5,55,8,,,,,,,,,,,AFSA02.jpg,AFNE16.jpg,AFSA06.jpg,AFNE10.jpg,AFSA02.jpg,FS,4,num_8,32,num_2,0.933425342897,,,2017_Sep_11_1733,60.0131852557,MAFE4ImagesEEG,001,101569,
AFNE01.JPG,AFNE01.JPG,AFNE01.JPG,AFNE01.JPG,AFNE01.JPG,AFNE01.JPG,,,,,,,,,,,,,5,6,56,4,,,,,,,,,,,AFSA06.jpg,AFSA09.jpg,AFNE03.jpg,AFNE05.jpg,AFNE05.jpg,FN,3,num_4,32,num_8,3.2662979872,,,2017_Sep_11_1733,60.0131852557,MAFE4ImagesEEG,001,101569,
AFNE01.JPG,AFNE01.JPG,AFNE01.JPG,AFNE01.JPG,AFNE01.JPG,AFNE01.JPG,,,,,,,,,,,,,5,7,57,1,,,,,,,,,,,AFSA13.jpg,AFNE17.jpg,AFNE06.jpg,AFSA04.jpg,AFSA04.jpg,FS,4,num_4,32,num_6,1.21673857118,,,2017_Sep_11_1733,60.0131852557,MAFE4ImagesEEG,001,101569,
AFNE01.JPG,AFNE01.JPG,AFNE01.JPG,AFNE01.JPG,AFNE01.JPG,AFNE01.JPG,,,,,,,,,,,,,5,8,58,2,,,,,,,,,,,AFSA17.jpg,AFNE17.jpg,AFSA03.jpg,AFNE20.jpg,AFNE20.jpg,FN,3,num_4,32,num_2,0.900126146851,,,2017_Sep_11_1733,60.0131852557,MAFE4ImagesEEG,001,101569,
AFNE01.JPG,AFNE01.JPG,AFNE01.JPG,AFNE01.JPG,AFNE01.JPG,AFNE01.JPG,,,,,,,,,,,,,5,9,59,7,,,,,,,,,,,AFSA09.jpg,AFNE12.jpg,AFSA15.jpg,AFNE06.jpg,AFSA09.jpg,FS,4,num_8,16,num_8,2.0504013577,,,2017_Sep_11_1733,60.0131852557,MAFE4ImagesEEG,001,101569,
,,,,,,,,,,,,,,,,,,,,,,,,,,,,,,,,,,,,,,,,,,,space,8.79955981695,2017_Sep_11_1733,60.0131852557,MAFE4ImagesEEG,001,101569,
AFNE01.JPG,AFNE01.JPG,AFNE01.JPG,AFNE01.JPG,AFNE01.JPG,AFNE01.JPG,,,,,,,,,,,,,,,,,0,0,0,6,,,,,,,AMSA09.jpg,AMNE02.jpg,AMSA02.jpg,AMNE11.jpg,AMSA09.jpg,MS,2,num_8,32,num_4,2.88329533092,,,2017_Sep_11_1733,60.0131852557,MAFE4ImagesEEG,001,101569,
AFNE01.JPG,AFNE01.JPG,AFNE01.JPG,AFNE01.JPG,AFNE01.JPG,AFNE01.JPG,,,,,,,,,,,,,,,,,0,1,1,9,,,,,,,AMNE18.jpg,AMSA05.jpg,AMNE05.jpg,AMSA04.jpg,AMSA04.jpg,MS,2,num_4,16,num_4,0.600117134163,,,2017_Sep_11_1733,60.0131852557,MAFE4ImagesEEG,001,101569,
AFNE01.JPG,AFNE01.JPG,AFNE01.JPG,AFNE01.JPG,AFNE01.JPG,AFNE01.JPG,,,,,,,,,,,,,,,,,0,2,2,3,,,,,,,AMSA17.jpg,AMSA10.jpg,AMNE08.jpg,AMNE10.jpg,AMNE08.jpg,MN,1,num_2,16,num_2,1.08349592169,,,2017_Sep_11_1733,60.0131852557,MAFE4ImagesEEG,001,101569,
AFNE01.JPG,AFNE01.JPG,AFNE01.JPG,AFNE01.JPG,AFNE01.JPG,AFNE01.JPG,,,,,,,,,,,,,,,,,0,3,3,4,,,,,,,AMSA17.jpg,AMSA19.jpg,AMNE14.jpg,AMNE15.jpg,AMNE15.jpg,MN,1,num_4,16,num_4,0.583493516082,,,2017_Sep_11_1733,60.0131852557,MAFE4ImagesEEG,001,101569,
AFNE01.JPG,AFNE01.JPG,AFNE01.JPG,AFNE01.JPG,AFNE01.JPG,AFNE01.JPG,,,,,,,,,,,,,,,,,0,4,4,2,,,,,,,AMSA14.jpg,AMNE02.jpg,AMSA16.jpg,AMNE10.jpg,AMSA14.jpg,MS,2,num_8,16,num_8,1.23342280881,,,2017_Sep_11_1733,60.0131852557,MAFE4ImagesEEG,001,101569,
AFNE01.JPG,AFNE01.JPG,AFNE01.JPG,AFNE01.JPG,AFNE01.JPG,AFNE01.JPG,,,,,,,,,,,,,,,,,0,5,5,5,,,,,,,AMSA04.jpg,AMNE01.jpg,AMSA15.jpg,AMNE07.jpg,AMNE01.jpg,MN,1,num_6,16,num_6,1.68338212301,,,2017_Sep_11_1733,60.0131852557,MAFE4ImagesEEG,001,101569,
AFNE01.JPG,AFNE01.JPG,AFNE01.JPG,AFNE01.JPG,AFNE01.JPG,AFNE01.JPG,,,,,,,,,,,,,,,,,0,6,6,8,,,,,,,AMSA09.jpg,AMNE12.jpg,AMSA04.jpg,AMNE04.jpg,AMNE12.jpg,MN,1,num_6,32,num_8,0.766806840664,,,2017_Sep_11_1733,60.0131852557,MAFE4ImagesEEG,001,101569,
AFNE01.JPG,AFNE01.JPG,AFNE01.JPG,AFNE01.JPG,AFNE01.JPG,AFNE01.JPG,,,,,,,,,,,,,,,,,0,7,7,7,,,,,,,AMNE13.jpg,AMSA16.jpg,AMSA10.jpg,AMNE04.jpg,AMSA10.jpg,MS,2,num_2,32,num_8,3.35034333589,,,2017_Sep_11_1733,60.0131852557,MAFE4ImagesEEG,001,101569,
AFNE01.JPG,AFNE01.JPG,AFNE01.JPG,AFNE01.JPG,AFNE01.JPG,AFNE01.JPG,,,,,,,,,,,,,,,,,0,8,8,1,,,,,,,AMNE17.jpg,AMSA02.jpg,AMNE06.jpg,AMSA06.jpg,AMNE17.jpg,MN,1,num_8,16,num_8,1.01672657533,,,2017_Sep_11_1733,60.0131852557,MAFE4ImagesEEG,001,101569,
AFNE01.JPG,AFNE01.JPG,AFNE01.JPG,AFNE01.JPG,AFNE01.JPG,AFNE01.JPG,,,,,,,,,,,,,,,,,0,9,9,0,,,,,,,AMSA17.jpg,AMSA09.jpg,AMNE06.jpg,AMNE20.jpg,AMNE20.jpg,MN,1,num_4,32,num_2,2.94993798505,,,2017_Sep_11_1733,60.0131852557,MAFE4ImagesEEG,001,101569,
AFNE01.JPG,AFNE01.JPG,AFNE01.JPG,AFNE01.JPG,AFNE01.JPG,AFNE01.JPG,,,,,,,,,,,,,,,,,1,0,10,5,,,,,,,AMSA11.jpg,AMNE03.jpg,AMSA02.jpg,AMNE07.jpg,AMNE07.jpg,MN,1,num_4,32,num_6,1.80005247309,,,2017_Sep_11_1733,60.0131852557,MAFE4ImagesEEG,001,101569,
AFNE01.JPG,AFNE01.JPG,AFNE01.JPG,AFNE01.JPG,AFNE01.JPG,AFNE01.JPG,,,,,,,,,,,,,,,,,1,1,11,9,,,,,,,AMSA07.jpg,AMSA11.jpg,AMNE05.jpg,AMNE12.jpg,AMSA11.jpg,MS,2,num_6,32,num_8,1.25006663357,,,2017_Sep_11_1733,60.0131852557,MAFE4ImagesEEG,001,101569,
AFNE01.JPG,AFNE01.JPG,AFNE01.JPG,AFNE01.JPG,AFNE01.JPG,AFNE01.JPG,,,,,,,,,,,,,,,,,1,2,12,7,,,,,,,AMNE13.jpg,AMSA09.jpg,AMSA18.jpg,AMNE03.jpg,AMSA18.jpg,MS,2,num_2,16,num_2,3.54996563285,,,2017_Sep_11_1733,60.0131852557,MAFE4ImagesEEG,001,101569,
AFNE01.JPG,AFNE01.JPG,AFNE01.JPG,AFNE01.JPG,AFNE01.JPG,AFNE01.JPG,,,,,,,,,,,,,,,,,1,3,13,3,,,,,,,AMSA15.jpg,AMNE20.jpg,AMNE06.jpg,AMSA04.jpg,AMSA15.jpg,MS,2,num_8,32,num_6,2.06667761458,,,2017_Sep_11_1733,60.0131852557,MAFE4ImagesEEG,001,101569,
AFNE01.JPG,AFNE01.JPG,AFNE01.JPG,AFNE01.JPG,AFNE01.JPG,AFNE01.JPG,,,,,,,,,,,,,,,,,1,4,14,2,,,,,,,AMSA10.jpg,AMNE08.jpg,AMSA08.jpg,AMNE20.jpg,AMSA08.jpg,MS,2,num_2,32,num_6,1.93334932765,,,2017_Sep_11_1733,60.0131852557,MAFE4ImagesEEG,001,101569,
AFNE01.JPG,AFNE01.JPG,AFNE01.JPG,AFNE01.JPG,AFNE01.JPG,AFNE01.JPG,,,,,,,,,,,,,,,,,1,5,15,1,,,,,,,AMNE01.jpg,AMNE11.jpg,AMSA18.jpg,AMSA14.jpg,AMNE11.jpg,MN,1,num_6,32,num_8,3.8165391353,,,2017_Sep_11_1733,60.0131852557,MAFE4ImagesEEG,001,101569,
AFNE01.JPG,AFNE01.JPG,AFNE01.JPG,AFNE01.JPG,AFNE01.JPG,AFNE01.JPG,,,,,,,,,,,,,,,,,1,6,16,8,,,,,,,AMNE17.jpg,AMNE12.jpg,AMSA18.jpg,AMSA08.jpg,AMSA18.jpg,MS,2,num_2,16,num_2,2.75020342926,,,2017_Sep_11_1733,60.0131852557,MAFE4ImagesEEG,001,101569,
AFNE01.JPG,AFNE01.JPG,AFNE01.JPG,AFNE01.JPG,AFNE01.JPG,AFNE01.JPG,,,,,,,,,,,,,,,,,1,7,17,0,,,,,,,AMSA07.jpg,AMNE16.jpg,AMNE10.jpg,AMSA05.jpg,AMSA05.jpg,MS,2,num_4,16,num_4,4.41654208605,,,2017_Sep_11_1733,60.0131852557,MAFE4ImagesEEG,001,101569,
AFNE01.JPG,AFNE01.JPG,AFNE01.JPG,AFNE01.JPG,AFNE01.JPG,AFNE01.JPG,,,,,,,,,,,,,,,,,1,8,18,4,,,,,,,AMNE17.jpg,AMNE14.jpg,AMSA06.jpg,AMSA12.jpg,AMSA12.jpg,MS,2,num_4,32,num_2,1.83343826863,,,2017_Sep_11_1733,60.0131852557,MAFE4ImagesEEG,001,101569,
AFNE01.JPG,AFNE01.JPG,AFNE01.JPG,AFNE01.JPG,AFNE01.JPG,AFNE01.JPG,,,,,,,,,,,,,,,,,1,9,19,6,,,,,,,AMNE02.jpg,AMSA04.jpg,AMNE06.jpg,AMSA12.jpg,AMSA12.jpg,MS,2,num_4,16,num_4,1.58340787841,,,2017_Sep_11_1733,60.0131852557,MAFE4ImagesEEG,001,101569,
AFNE01.JPG,AFNE01.JPG,AFNE01.JPG,AFNE01.JPG,AFNE01.JPG,AFNE01.JPG,,,,,,,,,,,,,,,,,2,0,20,2,,,,,,,AMSA12.jpg,AMNE04.jpg,AMNE07.jpg,AMSA13.jpg,AMSA13.jpg,MS,2,num_4,16,num_4,1.61670290492,,,2017_Sep_11_1733,60.0131852557,MAFE4ImagesEEG,001,101569,
AFNE01.JPG,AFNE01.JPG,AFNE01.JPG,AFNE01.JPG,AFNE01.JPG,AFNE01.JPG,,,,,,,,,,,,,,,,,2,1,21,0,,,,,,,AMSA13.jpg,AMSA06.jpg,AMNE10.jpg,AMNE08.jpg,AMNE10.jpg,MN,1,num_2,32,num_8,3.23325859034,,,2017_Sep_11_1733,60.0131852557,MAFE4ImagesEEG,001,101569,
AFNE01.JPG,AFNE01.JPG,AFNE01.JPG,AFNE01.JPG,AFNE01.JPG,AFNE01.JPG,,,,,,,,,,,,,,,,,2,2,22,9,,,,,,,AMNE01.jpg,AMSA10.jpg,AMSA05.jpg,AMNE13.jpg,AMNE01.jpg,MN,1,num_8,32,num_6,2.61665928434,,,2017_Sep_11_1733,60.0131852557,MAFE4ImagesEEG,001,101569,
AFNE01.JPG,AFNE01.JPG,AFNE01.JPG,AFNE01.JPG,AFNE01.JPG,AFNE01.JPG,,,,,,,,,,,,,,,,,2,3,23,4,,,,,,,AMSA12.jpg,AMSA13.jpg,AMNE03.jpg,AMNE19.jpg,AMSA13.jpg,MS,2,num_6,32,num_2,2.48336018459,,,2017_Sep_11_1733,60.0131852557,MAFE4ImagesEEG,001,101569,
AFNE01.JPG,AFNE01.JPG,AFNE01.JPG,AFNE01.JPG,AFNE01.JPG,AFNE01.JPG,,,,,,,,,,,,,,,,,2,4,24,8,,,,,,,AMSA19.jpg,AMNE18.jpg,AMSA12.jpg,AMNE17.jpg,AMNE18.jpg,MN,1,num_6,16,num_6,4.61648095306,,,2017_Sep_11_1733,60.0131852557,MAFE4ImagesEEG,001,101569,
AFNE01.JPG,AFNE01.JPG,AFNE01.JPG,AFNE01.JPG,AFNE01.JPG,AFNE01.JPG,,,,,,,,,,,,,,,,,2,5,25,3,,,,,,,AMNE09.jpg,AMSA01.jpg,AMSA13.jpg,AMNE17.jpg,AMSA13.jpg,MS,2,num_2,32,num_4,2.05001775292,,,2017_Sep_11_1733,60.0131852557,MAFE4ImagesEEG,001,101569,
AFNE01.JPG,AFNE01.JPG,AFNE01.JPG,AFNE01.JPG,AFNE01.JPG,AFNE01.JPG,,,,,,,,,,,,,,,,,2,6,26,6,,,,,,,AMSA12.jpg,AMSA08.jpg,AMNE20.jpg,AMNE04.jpg,AMNE20.jpg,MN,1,num_2,32,num_8,1.01674100873,,,2017_Sep_11_1733,60.0131852557,MAFE4ImagesEEG,001,101569,
AFNE01.JPG,AFNE01.JPG,AFNE01.JPG,AFNE01.JPG,AFNE01.JPG,AFNE01.JPG,,,,,,,,,,,,,,,,,2,7,27,1,,,,,,,AMNE07.jpg,AMNE12.jpg,AMSA14.jpg,AMSA13.jpg,AMSA13.jpg,MS,2,num_4,16,num_4,1.70001375955,,,2017_Sep_11_1733,60.0131852557,MAFE4ImagesEEG,001,101569,
AFNE01.JPG,AFNE01.JPG,AFNE01.JPG,AFNE01.JPG,AFNE01.JPG,AFNE01.JPG,,,,,,,,,,,,,,,,,2,8,28,5,,,,,,,AMSA02.jpg,AMNE03.jpg,AMNE10.jpg,AMSA08.jpg,AMSA02.jpg,MS,2,num_8,32,num_4,1.56664922903,,,2017_Sep_11_1733,60.0131852557,MAFE4ImagesEEG,001,101569,
AFNE01.JPG,AFNE01.JPG,AFNE01.JPG,AFNE01.JPG,AFNE01.JPG,AFNE01.JPG,,,,,,,,,,,,,,,,,2,9,29,7,,,,,,,AMNE05.jpg,AMSA18.jpg,AMSA19.jpg,AMNE01.jpg,AMSA18.jpg,MS,2,num_6,16,num_6,0.700146225281,,,2017_Sep_11_1733,60.0131852557,MAFE4ImagesEEG,001,101569,
AFNE01.JPG,AFNE01.JPG,AFNE01.JPG,AFNE01.JPG,AFNE01.JPG,AFNE01.JPG,,,,,,,,,,,,,,,,,3,0,30,9,,,,,,,AMNE20.jpg,AMSA16.jpg,AMNE18.jpg,AMSA14.jpg,AMNE20.jpg,MN,1,num_8,16,num_8,1.21668885648,,,2017_Sep_11_1733,60.0131852557,MAFE4ImagesEEG,001,101569,
AFNE01.JPG,AFNE01.JPG,AFNE01.JPG,AFNE01.JPG,AFNE01.JPG,AFNE01.JPG,,,,,,,,,,,,,,,,,3,1,31,2,,,,,,,AMSA16.jpg,AMNE05.jpg,AMNE12.jpg,AMSA12.jpg,AMSA16.jpg,MS,2,num_8,32,num_2,1.73337165103,,,2017_Sep_11_1733,60.0131852557,MAFE4ImagesEEG,001,101569,
AFNE01.JPG,AFNE01.JPG,AFNE01.JPG,AFNE01.JPG,AFNE01.JPG,AFNE01.JPG,,,,,,,,,,,,,,,,,3,2,32,6,,,,,,,AMNE13.jpg,AMSA16.jpg,AMSA12.jpg,AMNE08.jpg,AMSA12.jpg,MS,2,num_2,32,num_8,2.58332737302,,,2017_Sep_11_1733,60.0131852557,MAFE4ImagesEEG,001,101569,
AFNE01.JPG,AFNE01.JPG,AFNE01.JPG,AFNE01.JPG,AFNE01.JPG,AFNE01.JPG,,,,,,,,,,,,,,,,,3,3,33,8,,,,,,,AMSA11.jpg,AMNE10.jpg,AMSA12.jpg,AMNE01.jpg,AMNE01.jpg,MN,1,num_4,32,num_6,2.81688200613,,,2017_Sep_11_1733,60.0131852557,MAFE4ImagesEEG,001,101569,
AFNE01.JPG,AFNE01.JPG,AFNE01.JPG,AFNE01.JPG,AFNE01.JPG,AFNE01.JPG,,,,,,,,,,,,,,,,,3,4,34,0,,,,,,,AMNE11.jpg,AMNE16.jpg,AMSA02.jpg,AMSA07.jpg,AMNE11.jpg,MN,1,num_8,16,num_8,0.933603353333,,,2017_Sep_11_1733,60.0131852557,MAFE4ImagesEEG,001,101569,
AFNE01.JPG,AFNE01.JPG,AFNE01.JPG,AFNE01.JPG,AFNE01.JPG,AFNE01.JPG,,,,,,,,,,,,,,,,,3,5,35,5,,,,,,,AMNE13.jpg,AMNE06.jpg,AMSA02.jpg,AMSA09.jpg,AMNE13.jpg,MN,1,num_8,32,num_2,1.13358552032,,,2017_Sep_11_1733,60.0131852557,MAFE4ImagesEEG,001,101569,
AFNE01.JPG,AFNE01.JPG,AFNE01.JPG,AFNE01.JPG,AFNE01.JPG,AFNE01.JPG,,,,,,,,,,,,,,,,,3,6,36,1,,,,,,,AMNE16.jpg,AMSA19.jpg,AMNE09.jpg,AMSA09.jpg,AMSA09.jpg,MS,2,num_4,32,num_6,3.53321436024,,,2017_Sep_11_1733,60.0131852557,MAFE4ImagesEEG,001,101569,
AFNE01.JPG,AFNE01.JPG,AFNE01.JPG,AFNE01.JPG,AFNE01.JPG,AFNE01.JPG,,,,,,,,,,,,,,,,,3,7,37,3,,,,,,,AMNE09.jpg,AMSA09.jpg,AMNE08.jpg,AMSA02.jpg,AMSA09.jpg,MS,2,num_6,32,num_8,1.83319611032,,,2017_Sep_11_1733,60.0131852557,MAFE4ImagesEEG,001,101569,
AFNE01.JPG,AFNE01.JPG,AFNE01.JPG,AFNE01.JPG,AFNE01.JPG,AFNE01.JPG,,,,,,,,,,,,,,,,,3,8,38,4,,,,,,,AMSA01.jpg,AMSA09.jpg,AMNE20.jpg,AMNE14.jpg,AMSA09.jpg,MS,2,num_6,16,num_6,2.2665289198,,,2017_Sep_11_1733,60.0131852557,MAFE4ImagesEEG,001,101569,
AFNE01.JPG,AFNE01.JPG,AFNE01.JPG,AFNE01.JPG,AFNE01.JPG,AFNE01.JPG,,,,,,,,,,,,,,,,,3,9,39,7,,,,,,,AMNE20.jpg,AMSA05.jpg,AMSA20.jpg,AMNE17.jpg,AMNE20.jpg,MN,1,num_8,16,num_8,0.78343238309,,,2017_Sep_11_1733,60.0131852557,MAFE4ImagesEEG,001,101569,
AFNE01.JPG,AFNE01.JPG,AFNE01.JPG,AFNE01.JPG,AFNE01.JPG,AFNE01.JPG,,,,,,,,,,,,,,,,,4,0,40,6,,,,,,,AMNE12.jpg,AMNE04.jpg,AMSA03.jpg,AMSA19.jpg,AMSA03.jpg,MS,2,num_2,16,num_2,3.09993126546,,,2017_Sep_11_1733,60.0131852557,MAFE4ImagesEEG,001,101569,
AFNE01.JPG,AFNE01.JPG,AFNE01.JPG,AFNE01.JPG,AFNE01.JPG,AFNE01.JPG,,,,,,,,,,,,,,,,,4,1,41,0,,,,,,,AMNE05.jpg,AMNE11.jpg,AMSA18.jpg,AMSA05.jpg,AMSA05.jpg,MS,2,num_4,32,num_6,1.53339846479,,,2017_Sep_11_1733,60.0131852557,MAFE4ImagesEEG,001,101569,
AFNE01.JPG,AFNE01.JPG,AFNE01.JPG,AFNE01.JPG,AFNE01.JPG,AFNE01.JPG,,,,,,,,,,,,,,,,,4,2,42,2,,,,,,,AMNE19.jpg,AMSA10.jpg,AMSA11.jpg,AMNE06.jpg,AMSA11.jpg,MS,2,num_2,16,num_2,1.01673459401,,,2017_Sep_11_1733,60.0131852557,MAFE4ImagesEEG,001,101569,
AFNE01.JPG,AFNE01.JPG,AFNE01.JPG,AFNE01.JPG,AFNE01.JPG,AFNE01.JPG,,,,,,,,,,,,,,,,,4,3,43,8,,,,,,,AMNE11.jpg,AMSA18.jpg,AMNE12.jpg,AMSA05.jpg,AMNE12.jpg,MN,1,num_2,32,num_8,2.05007388233,,,2017_Sep_11_1733,60.0131852557,MAFE4ImagesEEG,001,101569,
AFNE01.JPG,AFNE01.JPG,AFNE01.JPG,AFNE01.JPG,AFNE01.JPG,AFNE01.JPG,,,,,,,,,,,,,,,,,4,4,44,5,,,,,,,AMNE02.jpg,AMSA02.jpg,AMNE17.jpg,AMSA19.jpg,AMSA02.jpg,MS,2,num_6,16,num_6,0.850178636145,,,2017_Sep_11_1733,60.0131852557,MAFE4ImagesEEG,001,101569,
AFNE01.JPG,AFNE01.JPG,AFNE01.JPG,AFNE01.JPG,AFNE01.JPG,AFNE01.JPG,,,,,,,,,,,,,,,,,4,5,45,4,,,,,,,AMSA13.jpg,AMNE08.jpg,AMSA09.jpg,AMNE12.jpg,AMSA13.jpg,MS,2,num_8,16,num_8,2.08334613615,,,2017_Sep_11_1733,60.0131852557,MAFE4ImagesEEG,001,101569,
AFNE01.JPG,AFNE01.JPG,AFNE01.JPG,AFNE01.JPG,AFNE01.JPG,AFNE01.JPG,,,,,,,,,,,,,,,,,4,6,46,3,,,,,,,AMSA07.jpg,AMSA04.jpg,AMNE05.jpg,AMNE16.jpg,AMNE16.jpg,MN,1,num_4,32,num_2,2.81660200004,,,2017_Sep_11_1733,60.0131852557,MAFE4ImagesEEG,001,101569,
AFNE01.JPG,AFNE01.JPG,AFNE01.JPG,AFNE01.JPG,AFNE01.JPG,AFNE01.JPG,,,,,,,,,,,,,,,,,4,7,47,7,,,,,,,AMSA01.jpg,AMSA16.jpg,AMNE13.jpg,AMNE06.jpg,AMSA01.jpg,MS,2,num_8,16,num_8,0.383520971518,,,2017_Sep_11_1733,60.0131852557,MAFE4ImagesEEG,001,101569,
AFNE01.JPG,AFNE01.JPG,AFNE01.JPG,AFNE01.JPG,AFNE01.JPG,AFNE01.JPG,,,,,,,,,,,,,,,,,4,8,48,9,,,,,,,AMNE06.jpg,AMSA15.jpg,AMNE03.jpg,AMSA14.jpg,AMNE06.jpg,MN,1,num_8,16,num_8,0.750137677416,,,2017_Sep_11_1733,60.0131852557,MAFE4ImagesEEG,001,101569,
AFNE01.JPG,AFNE01.JPG,AFNE01.JPG,AFNE01.JPG,AFNE01.JPG,AFNE01.JPG,,,,,,,,,,,,,,,,,4,9,49,1,,,,,,,AMSA01.jpg,AMNE06.jpg,AMSA16.jpg,AMNE01.jpg,AMSA16.jpg,MS,2,num_2,16,num_2,2.30000131507,,,2017_Sep_11_1733,60.0131852557,MAFE4ImagesEEG,001,101569,
AFNE01.JPG,AFNE01.JPG,AFNE01.JPG,AFNE01.JPG,AFNE01.JPG,AFNE01.JPG,,,,,,,,,,,,,,,,,5,0,50,7,,,,,,,AMNE20.jpg,AMSA16.jpg,AMSA19.jpg,AMNE11.jpg,AMSA19.jpg,MS,2,num_2,16,num_2,0.849990040995,,,2017_Sep_11_1733,60.0131852557,MAFE4ImagesEEG,001,101569,
AFNE01.JPG,AFNE01.JPG,AFNE01.JPG,AFNE01.JPG,AFNE01.JPG,AFNE01.JPG,,,,,,,,,,,,,,,,,5,1,51,9,,,,,,,AMSA15.jpg,AMSA01.jpg,AMNE13.jpg,AMNE05.jpg,AMNE05.jpg,MN,1,num_4,32,num_8,1.51680050604,,,2017_Sep_11_1733,60.0131852557,MAFE4ImagesEEG,001,101569,
AFNE01.JPG,AFNE01.JPG,AFNE01.JPG,AFNE01.JPG,AFNE01.JPG,AFNE01.JPG,,,,,,,,,,,,,,,,,5,2,52,0,,,,,,,AMNE16.jpg,AMSA10.jpg,AMNE10.jpg,AMSA03.jpg,AMNE16.jpg,MN,1,num_8,32,num_2,1.36672960641,,,2017_Sep_11_1733,60.0131852557,MAFE4ImagesEEG,001,101569,
AFNE01.JPG,AFNE01.JPG,AFNE01.JPG,AFNE01.JPG,AFNE01.JPG,AFNE01.JPG,,,,,,,,,,,,,,,,,5,3,53,8,,,,,,,AMNE14.jpg,AMSA07.jpg,AMNE09.jpg,AMSA03.jpg,AMSA07.jpg,MS,2,num_6,32,num_8,2.49994114414,,,2017_Sep_11_1733,60.0131852557,MAFE4ImagesEEG,001,101569,
AFNE01.JPG,AFNE01.JPG,AFNE01.JPG,AFNE01.JPG,AFNE01.JPG,AFNE01.JPG,,,,,,,,,,,,,,,,,5,4,54,4,,,,,,,AMSA15.jpg,AMNE15.jpg,AMNE01.jpg,AMSA14.jpg,AMSA14.jpg,MS,2,num_4,16,num_4,0.483474688604,,,2017_Sep_11_1733,60.0131852557,MAFE4ImagesEEG,001,101569,
AFNE01.JPG,AFNE01.JPG,AFNE01.JPG,AFNE01.JPG,AFNE01.JPG,AFNE01.JPG,,,,,,,,,,,,,,,,,5,5,55,2,,,,,,,AMNE12.jpg,AMNE07.jpg,AMSA19.jpg,AMSA18.jpg,AMSA19.jpg,MS,2,num_2,16,num_2,1.66668537655,,,2017_Sep_11_1733,60.0131852557,MAFE4ImagesEEG,001,101569,
AFNE01.JPG,AFNE01.JPG,AFNE01.JPG,AFNE01.JPG,AFNE01.JPG,AFNE01.JPG,,,,,,,,,,,,,,,,,5,6,56,1,,,,,,,AMNE06.jpg,AMSA13.jpg,AMSA14.jpg,AMNE18.jpg,AMNE18.jpg,MN,1,num_4,32,num_8,1.30006963271,,,2017_Sep_11_1733,60.0131852557,MAFE4ImagesEEG,001,101569,
AFNE01.JPG,AFNE01.JPG,AFNE01.JPG,AFNE01.JPG,AFNE01.JPG,AFNE01.JPG,,,,,,,,,,,,,,,,,5,7,57,6,,,,,,,AMNE03.jpg,AMNE06.jpg,AMSA13.jpg,AMSA01.jpg,AMNE03.jpg,MN,1,num_8,32,num_2,1.96671267133,,,2017_Sep_11_1733,60.0131852557,MAFE4ImagesEEG,001,101569,
AFNE01.JPG,AFNE01.JPG,AFNE01.JPG,AFNE01.JPG,AFNE01.JPG,AFNE01.JPG,,,,,,,,,,,,,,,,,5,8,58,3,,,,,,,AMSA15.jpg,AMNE01.jpg,AMSA01.jpg,AMNE10.jpg,AMSA01.jpg,MS,2,num_2,32,num_4,2.83332793415,,,2017_Sep_11_1733,60.0131852557,MAFE4ImagesEEG,001,101569,
AFNE01.JPG,AFNE01.JPG,AFNE01.JPG,AFNE01.JPG,AFNE01.JPG,AFNE01.JPG,,,,,,,,,,,,,,,,,5,9,59,5,,,,,,,AMNE05.jpg,AMNE20.jpg,AMSA17.jpg,AMSA12.jpg,AMNE05.jpg,MN,1,num_8,48,None,,,,2017_Sep_11_1733,60.0131852557,MAFE4ImagesEEG,001,101569,
,,,,,,,,,,,,,,,,,,,,,,,,,,,,,,,,,,,,,,,,,,,space,4.33321583574,2017_Sep_11_1733,60.0131852557,MAFE4ImagesEEG,001,101569,
AFNE01.JPG,AFNE01.JPG,AFNE01.JPG,AFNE01.JPG,AFNE01.JPG,AFNE01.JPG,,,,,,,,,,,,,,,,,,,,,0,0,0,3,,,AFSA15.jpg,AFNE10.jpg,AFNE18.jpg,AFSA06.jpg,AFSA06.jpg,FS,4,num_4,32,num_6,0.933751855977,,,2017_Sep_11_1733,60.0131852557,MAFE4ImagesEEG,001,101569,
AFNE01.JPG,AFNE01.JPG,AFNE01.JPG,AFNE01.JPG,AFNE01.JPG,AFNE01.JPG,,,,,,,,,,,,,,,,,,,,,0,1,1,4,,,AFNE15.jpg,AFNE08.jpg,AFSA09.jpg,AFSA06.jpg,AFSA09.jpg,FS,4,num_2,48,None,,,,2017_Sep_11_1733,60.0131852557,MAFE4ImagesEEG,001,101569,
AFNE01.JPG,AFNE01.JPG,AFNE01.JPG,AFNE01.JPG,AFNE01.JPG,AFNE01.JPG,,,,,,,,,,,,,,,,,,,,,0,2,2,7,,,AFNE15.jpg,AFSA19.jpg,AFNE07.jpg,AFSA20.jpg,AFNE15.jpg,FN,3,num_8,32,num_2,2.41662002588,,,2017_Sep_11_1733,60.0131852557,MAFE4ImagesEEG,001,101569,
AFNE01.JPG,AFNE01.JPG,AFNE01.JPG,AFNE01.JPG,AFNE01.JPG,AFNE01.JPG,,,,,,,,,,,,,,,,,,,,,0,3,3,6,,,AFNE16.jpg,AFNE13.jpg,AFSA14.jpg,AFSA11.jpg,AFSA11.jpg,FS,4,num_4,32,num_2,2.36661189515,,,2017_Sep_11_1733,60.0131852557,MAFE4ImagesEEG,001,101569,
AFNE01.JPG,AFNE01.JPG,AFNE01.JPG,AFNE01.JPG,AFNE01.JPG,AFNE01.JPG,,,,,,,,,,,,,,,,,,,,,0,4,4,9,,,AFSA07.jpg,AFSA04.jpg,AFNE20.jpg,AFNE14.jpg,AFSA07.jpg,FS,4,num_8,16,num_8,1.10012659593,,,2017_Sep_11_1733,60.0131852557,MAFE4ImagesEEG,001,101569,
AFNE01.JPG,AFNE01.JPG,AFNE01.JPG,AFNE01.JPG,AFNE01.JPG,AFNE01.JPG,,,,,,,,,,,,,,,,,,,,,0,5,5,8,,,AFNE06.jpg,AFNE10.jpg,AFSA15.jpg,AFSA17.jpg,AFSA17.jpg,FS,4,num_4,16,num_4,2.41661264864,,,2017_Sep_11_1733,60.0131852557,MAFE4ImagesEEG,001,101569,
AFNE01.JPG,AFNE01.JPG,AFNE01.JPG,AFNE01.JPG,AFNE01.JPG,AFNE01.JPG,,,,,,,,,,,,,,,,,,,,,0,6,6,2,,,AFSA03.jpg,AFNE15.jpg,AFSA05.jpg,AFNE02.jpg,AFNE02.jpg,FN,3,num_4,32,num_8,1.0334749613,,,2017_Sep_11_1733,60.0131852557,MAFE4ImagesEEG,001,101569,
AFNE01.JPG,AFNE01.JPG,AFNE01.JPG,AFNE01.JPG,AFNE01.JPG,AFNE01.JPG,,,,,,,,,,,,,,,,,,,,,0,7,7,5,,,AFNE05.jpg,AFSA12.jpg,AFSA15.jpg,AFNE14.jpg,AFNE05.jpg,FN,3,num_8,32,num_6,2.71664443403,,,2017_Sep_11_1733,60.0131852557,MAFE4ImagesEEG,001,101569,
AFNE01.JPG,AFNE01.JPG,AFNE01.JPG,AFNE01.JPG,AFNE01.JPG,AFNE01.JPG,,,,,,,,,,,,,,,,,,,,,0,8,8,1,,,AFSA18.jpg,AFNE16.jpg,AFNE05.jpg,AFSA10.jpg,AFNE05.jpg,FN,3,num_2,32,num_8,0.966785158496,,,2017_Sep_11_1733,60.0131852557,MAFE4ImagesEEG,001,101569,
AFNE01.JPG,AFNE01.JPG,AFNE01.JPG,AFNE01.JPG,AFNE01.JPG,AFNE01.JPG,,,,,,,,,,,,,,,,,,,,,0,9,9,0,,,AFNE15.jpg,AFSA16.jpg,AFSA11.jpg,AFNE10.jpg,AFSA11.jpg,FS,4,num_2,16,num_2,0.816794123268,,,2017_Sep_11_1733,60.0131852557,MAFE4ImagesEEG,001,101569,
AFNE01.JPG,AFNE01.JPG,AFNE01.JPG,AFNE01.JPG,AFNE01.JPG,AFNE01.JPG,,,,,,,,,,,,,,,,,,,,,1,0,10,0,,,AFSA06.jpg,AFSA18.jpg,AFNE11.jpg,AFNE14.jpg,AFNE11.jpg,FN,3,num_2,32,num_8,1.01677051676,,,2017_Sep_11_1733,60.0131852557,MAFE4ImagesEEG,001,101569,
AFNE01.JPG,AFNE01.JPG,AFNE01.JPG,AFNE01.JPG,AFNE01.JPG,AFNE01.JPG,,,,,,,,,,,,,,,,,,,,,1,1,11,6,,,AFNE07.jpg,AFSA16.jpg,AFSA08.jpg,AFNE18.jpg,AFNE18.jpg,FN,3,num_4,32,num_8,2.26663540537,,,2017_Sep_11_1733,60.0131852557,MAFE4ImagesEEG,001,101569,
AFNE01.JPG,AFNE01.JPG,AFNE01.JPG,AFNE01.JPG,AFNE01.JPG,AFNE01.JPG,,,,,,,,,,,,,,,,,,,,,1,2,12,5,,,AFNE06.jpg,AFSA15.jpg,AFNE07.jpg,AFSA02.jpg,AFNE07.jpg,FN,3,num_2,16,num_2,1.90001934045,,,2017_Sep_11_1733,60.0131852557,MAFE4ImagesEEG,001,101569,
AFNE01.JPG,AFNE01.JPG,AFNE01.JPG,AFNE01.JPG,AFNE01.JPG,AFNE01.JPG,,,,,,,,,,,,,,,,,,,,,1,3,13,1,,,AFSA09.jpg,AFNE07.jpg,AFNE10.jpg,AFSA20.jpg,AFSA09.jpg,FS,4,num_8,32,num_4,0.966723897262,,,2017_Sep_11_1733,60.0131852557,MAFE4ImagesEEG,001,101569,
AFNE01.JPG,AFNE01.JPG,AFNE01.JPG,AFNE01.JPG,AFNE01.JPG,AFNE01.JPG,,,,,,,,,,,,,,,,,,,,,1,4,14,3,,,AFNE19.jpg,AFSA06.jpg,AFSA02.jpg,AFNE13.jpg,AFNE19.jpg,FN,3,num_8,32,num_2,1.13340430218,,,2017_Sep_11_1733,60.0131852557,MAFE4ImagesEEG,001,101569,
AFNE01.JPG,AFNE01.JPG,AFNE01.JPG,AFNE01.JPG,AFNE01.JPG,AFNE01.JPG,,,,,,,,,,,,,,,,,,,,,1,5,15,9,,,AFNE08.jpg,AFSA02.jpg,AFSA09.jpg,AFNE13.jpg,AFNE08.jpg,FN,3,num_8,16,num_8,1.36673088931,,,2017_Sep_11_1733,60.0131852557,MAFE4ImagesEEG,001,101569,
AFNE01.JPG,AFNE01.JPG,AFNE01.JPG,AFNE01.JPG,AFNE01.JPG,AFNE01.JPG,,,,,,,,,,,,,,,,,,,,,1,6,16,4,,,AFNE17.jpg,AFSA02.jpg,AFNE07.jpg,AFSA08.jpg,AFNE07.jpg,FN,3,num_2,32,num_8,2.5499736513,,,2017_Sep_11_1733,60.0131852557,MAFE4ImagesEEG,001,101569,
AFNE01.JPG,AFNE01.JPG,AFNE01.JPG,AFNE01.JPG,AFNE01.JPG,AFNE01.JPG,,,,,,,,,,,,,,,,,,,,,1,7,17,2,,,AFSA04.jpg,AFSA11.jpg,AFNE05.jpg,AFNE12.jpg,AFNE05.jpg,FN,3,num_2,32,num_8,1.15009078523,,,2017_Sep_11_1733,60.0131852557,MAFE4ImagesEEG,001,101569,
AFNE01.JPG,AFNE01.JPG,AFNE01.JPG,AFNE01.JPG,AFNE01.JPG,AFNE01.JPG,,,,,,,,,,,,,,,,,,,,,1,8,18,7,,,AFSA07.jpg,AFSA17.jpg,AFNE06.jpg,AFNE18.jpg,AFSA17.jpg,FS,4,num_6,32,num_2,1.40011379845,,,2017_Sep_11_1733,60.0131852557,MAFE4ImagesEEG,001,101569,
AFNE01.JPG,AFNE01.JPG,AFNE01.JPG,AFNE01.JPG,AFNE01.JPG,AFNE01.JPG,,,,,,,,,,,,,,,,,,,,,1,9,19,8,,,AFNE19.jpg,AFNE05.jpg,AFSA17.jpg,AFSA03.jpg,AFSA17.jpg,FS,4,num_2,32,num_8,0.816753389547,,,2017_Sep_11_1733,60.0131852557,MAFE4ImagesEEG,001,101569,
AFNE01.JPG,AFNE01.JPG,AFNE01.JPG,AFNE01.JPG,AFNE01.JPG,AFNE01.JPG,,,,,,,,,,,,,,,,,,,,,2,0,20,4,,,AFSA11.jpg,AFNE11.jpg,AFNE08.jpg,AFSA05.jpg,AFNE08.jpg,FN,3,num_2,16,num_2,2.03338772012,,,2017_Sep_11_1733,60.0131852557,MAFE4ImagesEEG,001,101569,
AFNE01.JPG,AFNE01.JPG,AFNE01.JPG,AFNE01.JPG,AFNE01.JPG,AFNE01.JPG,,,,,,,,,,,,,,,,,,,,,2,1,21,3,,,AFNE17.jpg,AFSA12.jpg,AFNE10.jpg,AFSA08.jpg,AFSA12.jpg,FS,4,num_6,16,num_6,1.83340811916,,,2017_Sep_11_1733,60.0131852557,MAFE4ImagesEEG,001,101569,
AFNE01.JPG,AFNE01.JPG,AFNE01.JPG,AFNE01.JPG,AFNE01.JPG,AFNE01.JPG,,,,,,,,,,,,,,,,,,,,,2,2,22,1,,,AFNE08.jpg,AFSA16.jpg,AFSA10.jpg,AFNE04.jpg,AFNE08.jpg,FN,3,num_8,32,num_2,0.916757141938,,,2017_Sep_11_1733,60.0131852557,MAFE4ImagesEEG,001,101569,
AFNE01.JPG,AFNE01.JPG,AFNE01.JPG,AFNE01.JPG,AFNE01.JPG,AFNE01.JPG,,,,,,,,,,,,,,,,,,,,,2,3,23,5,,,AFSA07.jpg,AFSA06.jpg,AFNE09.jpg,AFNE01.jpg,AFNE09.jpg,FN,3,num_2,32,num_8,1.96663216571,,,2017_Sep_11_1733,60.0131852557,MAFE4ImagesEEG,001,101569,
AFNE01.JPG,AFNE01.JPG,AFNE01.JPG,AFNE01.JPG,AFNE01.JPG,AFNE01.JPG,,,,,,,,,,,,,,,,,,,,,2,4,24,6,,,AFSA03.jpg,AFSA19.jpg,AFNE07.jpg,AFNE06.jpg,AFSA19.jpg,FS,4,num_6,32,num_4,1.78332846332,,,2017_Sep_11_1733,60.0131852557,MAFE4ImagesEEG,001,101569,
AFNE01.JPG,AFNE01.JPG,AFNE01.JPG,AFNE01.JPG,AFNE01.JPG,AFNE01.JPG,,,,,,,,,,,,,,,,,,,,,2,5,25,0,,,AFSA13.jpg,AFNE15.jpg,AFSA06.jpg,AFNE04.jpg,AFNE04.jpg,FN,3,num_4,32,num_2,1.20008961461,,,2017_Sep_11_1733,60.0131852557,MAFE4ImagesEEG,001,101569,
AFNE01.JPG,AFNE01.JPG,AFNE01.JPG,AFNE01.JPG,AFNE01.JPG,AFNE01.JPG,,,,,,,,,,,,,,,,,,,,,2,6,26,2,,,AFSA05.jpg,AFSA02.jpg,AFNE09.jpg,AFNE02.jpg,AFSA05.jpg,FS,4,num_8,32,num_6,3.7329360866,,,2017_Sep_11_1733,60.0131852557,MAFE4ImagesEEG,001,101569,
AFNE01.JPG,AFNE01.JPG,AFNE01.JPG,AFNE01.JPG,AFNE01.JPG,AFNE01.JPG,,,,,,,,,,,,,,,,,,,,,2,7,27,9,,,AFNE14.jpg,AFNE16.jpg,AFSA17.jpg,AFSA15.jpg,AFSA15.jpg,FS,4,num_4,16,num_4,1.38340807101,,,2017_Sep_11_1733,60.0131852557,MAFE4ImagesEEG,001,101569,
AFNE01.JPG,AFNE01.JPG,AFNE01.JPG,AFNE01.JPG,AFNE01.JPG,AFNE01.JPG,,,,,,,,,,,,,,,,,,,,,2,8,28,8,,,AFNE15.jpg,AFNE13.jpg,AFSA13.jpg,AFSA02.jpg,AFNE13.jpg,FN,3,num_6,32,num_4,1.28342356277,,,2017_Sep_11_1733,60.0131852557,MAFE4ImagesEEG,001,101569,
AFNE01.JPG,AFNE01.JPG,AFNE01.JPG,AFNE01.JPG,AFNE01.JPG,AFNE01.JPG,,,,,,,,,,,,,,,,,,,,,2,9,29,7,,,AFNE05.jpg,AFSA05.jpg,AFNE18.jpg,AFSA03.jpg,AFSA03.jpg,FS,4,num_4,32,num_2,1.13343156525,,,2017_Sep_11_1733,60.0131852557,MAFE4ImagesEEG,001,101569,
AFNE01.JPG,AFNE01.JPG,AFNE01.JPG,AFNE01.JPG,AFNE01.JPG,AFNE01.JPG,,,,,,,,,,,,,,,,,,,,,3,0,30,2,,,AFSA06.jpg,AFNE14.jpg,AFSA14.jpg,AFNE20.jpg,AFNE20.jpg,FN,3,num_4,16,num_4,1.21670874231,,,2017_Sep_11_1733,60.0131852557,MAFE4ImagesEEG,001,101569,
AFNE01.JPG,AFNE01.JPG,AFNE01.JPG,AFNE01.JPG,AFNE01.JPG,AFNE01.JPG,,,,,,,,,,,,,,,,,,,,,3,1,31,8,,,AFSA15.jpg,AFNE07.jpg,AFNE17.jpg,AFSA17.jpg,AFSA17.jpg,FS,4,num_4,16,num_4,0.933461265638,,,2017_Sep_11_1733,60.0131852557,MAFE4ImagesEEG,001,101569,
AFNE01.JPG,AFNE01.JPG,AFNE01.JPG,AFNE01.JPG,AFNE01.JPG,AFNE01.JPG,,,,,,,,,,,,,,,,,,,,,3,2,32,0,,,AFNE02.jpg,AFSA08.jpg,AFNE01.jpg,AFSA02.jpg,AFNE02.jpg,FN,3,num_8,16,num_8,1.7833971018,,,2017_Sep_11_1733,60.0131852557,MAFE4ImagesEEG,001,101569,
AFNE01.JPG,AFNE01.JPG,AFNE01.JPG,AFNE01.JPG,AFNE01.JPG,AFNE01.JPG,,,,,,,,,,,,,,,,,,,,,3,3,33,1,,,AFNE10.jpg,AFNE12.jpg,AFSA12.jpg,AFSA17.jpg,AFNE10.jpg,FN,3,num_8,32,num_6,2.83328687935,,,2017_Sep_11_1733,60.0131852557,MAFE4ImagesEEG,001,101569,
AFNE01.JPG,AFNE01.JPG,AFNE01.JPG,AFNE01.JPG,AFNE01.JPG,AFNE01.JPG,,,,,,,,,,,,,,,,,,,,,3,4,34,7,,,AFSA17.jpg,AFNE16.jpg,AFNE05.jpg,AFSA08.jpg,AFSA17.jpg,FS,4,num_8,32,num_2,3.53320377576,,,2017_Sep_11_1733,60.0131852557,MAFE4ImagesEEG,001,101569,
AFNE01.JPG,AFNE01.JPG,AFNE01.JPG,AFNE01.JPG,AFNE01.JPG,AFNE01.JPG,,,,,,,,,,,,,,,,,,,,,3,5,35,4,,,AFSA06.jpg,AFSA19.jpg,AFNE20.jpg,AFNE03.jpg,AFNE20.jpg,FN,3,num_2,32,num_8,1.35016275942,,,2017_Sep_11_1733,60.0131852557,MAFE4ImagesEEG,001,101569,
AFNE01.JPG,AFNE01.JPG,AFNE01.JPG,AFNE01.JPG,AFNE01.JPG,AFNE01.JPG,,,,,,,,,,,,,,,,,,,,,3,6,36,9,,,AFSA05.jpg,AFSA01.jpg,AFNE09.jpg,AFNE20.jpg,AFSA01.jpg,FS,4,num_6,32,num_2,1.1499785264,,,2017_Sep_11_1733,60.0131852557,MAFE4ImagesEEG,001,101569,
AFNE01.JPG,AFNE01.JPG,AFNE01.JPG,AFNE01.JPG,AFNE01.JPG,AFNE01.JPG,,,,,,,,,,,,,,,,,,,,,3,7,37,3,,,AFSA11.jpg,AFSA20.jpg,AFNE20.jpg,AFNE02.jpg,AFNE20.jpg,FN,3,num_2,32,num_4,1.11684643594,,,2017_Sep_11_1733,60.0131852557,MAFE4ImagesEEG,001,101569,
AFNE01.JPG,AFNE01.JPG,AFNE01.JPG,AFNE01.JPG,AFNE01.JPG,AFNE01.JPG,,,,,,,,,,,,,,,,,,,,,3,8,38,6,,,AFNE08.jpg,AFSA20.jpg,AFNE13.jpg,AFSA12.jpg,AFSA12.jpg,FS,4,num_4,32,num_6,2.88351856591,,,2017_Sep_11_1733,60.0131852557,MAFE4ImagesEEG,001,101569,
AFNE01.JPG,AFNE01.JPG,AFNE01.JPG,AFNE01.JPG,AFNE01.JPG,AFNE01.JPG,,,,,,,,,,,,,,,,,,,,,3,9,39,5,,,AFSA12.jpg,AFSA16.jpg,AFNE12.jpg,AFNE07.jpg,AFNE07.jpg,FN,3,num_4,32,num_2,2.31664706394,,,2017_Sep_11_1733,60.0131852557,MAFE4ImagesEEG,001,101569,
