IPosition2,IPosition3,IPosition1,IPosition6,IPosition4,IPosition5,TrialsF1.thisRepN,TrialsF1.thisTrialN,TrialsF1.thisN,TrialsF1.thisIndex,TrialsM1.thisRepN,TrialsM1.thisTrialN,TrialsM1.thisN,TrialsM1.thisIndex,TrialsF2.thisRepN,TrialsF2.thisTrialN,TrialsF2.thisN,TrialsF2.thisIndex,TrialsM2.thisRepN,TrialsM2.thisTrialN,TrialsM2.thisN,TrialsM2.thisIndex,TrialsF3.thisRepN,TrialsF3.thisTrialN,TrialsF3.thisN,TrialsF3.thisIndex,TrialsM3.thisRepN,TrialsM3.thisTrialN,TrialsM3.thisN,TrialsM3.thisIndex,InstrKey_resp.keys,InstrKey_resp.rt,Image0 _Position,Image1 _Position,Image2 _Position,Image3 _Position,Center_image,condition,code,correct_answer,accuracy,Key_Resp.keys,Key_Resp.rt,BreakKey_resp.keys,BreakKey_resp.rt,date,frameRate,expName,session,participant,
,,,,,,,,,,,,,,,,,,,,,,,,,,,,,,space,9.79955308116,,,,,,,,,,,,,,2017_Sep_12_1443,59.9911297097,FEMA4ImagesEEG,001,101556,
AMSA21.JPG,AMNE22.JPG,AMNE21.JPG,AMSA23.JPG,AMSA22.JPG,AMNE23.JPG,0,0,0,1,,,,,,,,,,,,,,,,,,,,,,,AFSA20.jpg,AFNE08.jpg,AFSA17.jpg,AFNE05.jpg,AFNE05.jpg,FN,3,num_4,32,num_6,1.73336427403,,,2017_Sep_12_1443,59.9911297097,FEMA4ImagesEEG,001,101556,
AFSA21.JPG,AFNE22.JPG,AFNE21.JPG,AFSA23.JPG,AFSA22.JPG,AFNE23.JPG,0,1,1,0,,,,,,,,,,,,,,,,,,,,,,,AFNE09.jpg,AFSA16.jpg,AFSA12.jpg,AFNE10.jpg,AFNE09.jpg,FN,3,num_8,32,num_4,1.35007968778,,,2017_Sep_12_1443,59.9911297097,FEMA4ImagesEEG,001,101556,
AFNE22.JPG,AFSA24.JPG,AFSA22.JPG,AFNE25.JPG,AFNE24.JPG,AFSA25.JPG,0,2,2,6,,,,,,,,,,,,,,,,,,,,,,,AFNE13.jpg,AFSA01.jpg,AFSA13.jpg,AFNE01.jpg,AFSA13.jpg,FS,4,num_2,16,num_2,1.11671332899,,,2017_Sep_12_1443,59.9911297097,FEMA4ImagesEEG,001,101556,
AMSA21.JPG,AMNE23.JPG,AMNE21.JPG,AMSA25.JPG,AMNE25.JPG,AMSA23.JPG,0,3,3,5,,,,,,,,,,,,,,,,,,,,,,,AFNE19.jpg,AFNE02.jpg,AFSA06.jpg,AFSA01.jpg,AFSA06.jpg,FS,4,num_2,16,num_2,1.26673483453,,,2017_Sep_12_1443,59.9911297097,FEMA4ImagesEEG,001,101556,
AMNE23.JPG,AMNE24.JPG,AMNE22.JPG,AMSA24.JPG,AMSA22.JPG,AMSA23.JPG,0,4,4,9,,,,,,,,,,,,,,,,,,,,,,,AFNE14.jpg,AFSA10.jpg,AFNE15.jpg,AFSA09.jpg,AFNE14.jpg,FN,3,num_8,16,num_8,1.25014778087,,,2017_Sep_12_1443,59.9911297097,FEMA4ImagesEEG,001,101556,
AMSA25.JPG,AMNE24.JPG,AMSA24.JPG,AMNE26.JPG,AMSA21.JPG,AMNE25.JPG,0,5,5,3,,,,,,,,,,,,,,,,,,,,,,,AFNE07.jpg,AFNE19.jpg,AFSA20.jpg,AFSA15.jpg,AFSA15.jpg,FS,4,num_4,32,num_6,1.03346598055,,,2017_Sep_12_1443,59.9911297097,FEMA4ImagesEEG,001,101556,
AFSA25.JPG,AFNE24.JPG,AFSA24.JPG,AFNE21.JPG,AFSA21.JPG,AFNE25.JPG,0,6,6,2,,,,,,,,,,,,,,,,,,,,,,,AFSA13.jpg,AFSA07.jpg,AFNE01.jpg,AFNE19.jpg,AFNE19.jpg,FN,3,num_4,16,num_4,1.08346128184,,,2017_Sep_12_1443,59.9911297097,FEMA4ImagesEEG,001,101556,
AFNE23.JPG,AFNE24.JPG,AFNE22.JPG,AFSA24.JPG,AFSA22.JPG,AFSA23.JPG,0,7,7,8,,,,,,,,,,,,,,,,,,,,,,,AFSA08.jpg,AFSA03.jpg,AFNE19.jpg,AFNE15.jpg,AFSA03.jpg,FS,4,num_6,32,num_8,1.16684847255,,,2017_Sep_12_1443,59.9911297097,FEMA4ImagesEEG,001,101556,
AFSA21.JPG,AFNE23.JPG,AFNE21.JPG,AFSA25.JPG,AFNE25.JPG,AFSA23.JPG,0,8,8,4,,,,,,,,,,,,,,,,,,,,,,,AFNE16.jpg,AFSA09.jpg,AFSA02.jpg,AFNE17.jpg,AFNE16.jpg,FN,3,num_8,32,num_4,1.13356755883,,,2017_Sep_12_1443,59.9911297097,FEMA4ImagesEEG,001,101556,
AMNE22.JPG,AMSA24.JPG,AMSA22.JPG,AMNE25.JPG,AMNE24.JPG,AMSA25.JPG,0,9,9,7,,,,,,,,,,,,,,,,,,,,,,,AFNE16.jpg,AFSA07.jpg,AFSA14.jpg,AFNE17.jpg,AFSA07.jpg,FS,4,num_6,32,num_2,1.61668494367,,,2017_Sep_12_1443,59.9911297097,FEMA4ImagesEEG,001,101556,
AFSA21.JPG,AFNE22.JPG,AFNE21.JPG,AFSA23.JPG,AFSA22.JPG,AFNE23.JPG,,,,,0,0,0,0,,,,,,,,,,,,,,,,,,,AMSA12.jpg,AMNE02.jpg,AMSA04.jpg,AMNE11.jpg,AMSA04.jpg,MS,2,num_2,16,num_2,0.933399362955,,,2017_Sep_12_1443,59.9911297097,FEMA4ImagesEEG,001,101556,
AFNE22.JPG,AFSA24.JPG,AFSA22.JPG,AFNE25.JPG,AFNE24.JPG,AFSA25.JPG,,,,,0,1,1,6,,,,,,,,,,,,,,,,,,,AMSA08.jpg,AMSA01.jpg,AMNE01.jpg,AMNE19.jpg,AMSA01.jpg,MS,2,num_6,32,num_8,0.70018375176,,,2017_Sep_12_1443,59.9911297097,FEMA4ImagesEEG,001,101556,
AMNE22.JPG,AMSA24.JPG,AMSA22.JPG,AMNE25.JPG,AMNE24.JPG,AMSA25.JPG,,,,,0,2,2,7,,,,,,,,,,,,,,,,,,,AMNE09.jpg,AMNE13.jpg,AMSA19.jpg,AMSA13.jpg,AMNE13.jpg,MN,1,num_6,32,num_8,0.783347066492,,,2017_Sep_12_1443,59.9911297097,FEMA4ImagesEEG,001,101556,
AMNE23.JPG,AMNE24.JPG,AMNE22.JPG,AMSA24.JPG,AMSA22.JPG,AMSA23.JPG,,,,,0,3,3,9,,,,,,,,,,,,,,,,,,,AMSA14.jpg,AMNE17.jpg,AMNE07.jpg,AMSA03.jpg,AMNE17.jpg,MN,1,num_6,16,num_6,1.08348437492,,,2017_Sep_12_1443,59.9911297097,FEMA4ImagesEEG,001,101556,
AMSA21.JPG,AMNE22.JPG,AMNE21.JPG,AMSA23.JPG,AMSA22.JPG,AMNE23.JPG,,,,,0,4,4,1,,,,,,,,,,,,,,,,,,,AMNE12.jpg,AMSA02.jpg,AMNE15.jpg,AMSA09.jpg,AMNE15.jpg,MN,1,num_2,16,num_2,0.666809823597,,,2017_Sep_12_1443,59.9911297097,FEMA4ImagesEEG,001,101556,
AFSA21.JPG,AFNE23.JPG,AFNE21.JPG,AFSA25.JPG,AFNE25.JPG,AFSA23.JPG,,,,,0,5,5,4,,,,,,,,,,,,,,,,,,,AMNE19.jpg,AMNE08.jpg,AMSA04.jpg,AMSA09.jpg,AMSA09.jpg,MS,2,num_4,32,num_8,1.28330200259,,,2017_Sep_12_1443,59.9911297097,FEMA4ImagesEEG,001,101556,
AFSA25.JPG,AFNE24.JPG,AFSA24.JPG,AFNE21.JPG,AFSA21.JPG,AFNE25.JPG,,,,,0,6,6,2,,,,,,,,,,,,,,,,,,,AMSA16.jpg,AMNE10.jpg,AMNE17.jpg,AMSA03.jpg,AMSA16.jpg,MS,2,num_8,32,num_6,1.16676026909,,,2017_Sep_12_1443,59.9911297097,FEMA4ImagesEEG,001,101556,
AMSA25.JPG,AMNE24.JPG,AMSA24.JPG,AMNE26.JPG,AMSA21.JPG,AMNE25.JPG,,,,,0,7,7,3,,,,,,,,,,,,,,,,,,,AMSA07.jpg,AMSA11.jpg,AMNE04.jpg,AMNE16.jpg,AMNE16.jpg,MN,1,num_4,16,num_4,1.10005859914,,,2017_Sep_12_1443,59.9911297097,FEMA4ImagesEEG,001,101556,
AFNE23.JPG,AFNE24.JPG,AFNE22.JPG,AFSA24.JPG,AFSA22.JPG,AFSA23.JPG,,,,,0,8,8,8,,,,,,,,,,,,,,,,,,,AMSA01.jpg,AMNE05.jpg,AMSA07.jpg,AMNE02.jpg,AMSA01.jpg,MS,2,num_8,32,num_2,1.28342548711,,,2017_Sep_12_1443,59.9911297097,FEMA4ImagesEEG,001,101556,
AMSA21.JPG,AMNE23.JPG,AMNE21.JPG,AMSA25.JPG,AMNE25.JPG,AMSA23.JPG,,,,,0,9,9,5,,,,,,,,,,,,,,,,,,,AMNE01.jpg,AMNE04.jpg,AMSA16.jpg,AMSA10.jpg,AMNE04.jpg,MN,1,num_6,16,num_6,0.900130958064,,,2017_Sep_12_1443,59.9911297097,FEMA4ImagesEEG,001,101556,
AFSA21.JPG,AFNE22.JPG,AFNE21.JPG,AFSA23.JPG,AFSA22.JPG,AFNE23.JPG,,,,,,,,,0,0,0,0,,,,,,,,,,,,,,,AFSA04.jpg,AFSA20.jpg,AFNE02.jpg,AFNE09.jpg,AFNE09.jpg,FN,3,num_4,16,num_4,0.833460399648,,,2017_Sep_12_1443,59.9911297097,FEMA4ImagesEEG,001,101556,
AMSA21.JPG,AMNE23.JPG,AMNE21.JPG,AMSA25.JPG,AMNE25.JPG,AMSA23.JPG,,,,,,,,,0,1,1,5,,,,,,,,,,,,,,,AFNE07.jpg,AFSA07.jpg,AFNE11.jpg,AFSA13.jpg,AFSA13.jpg,FS,4,num_4,16,num_4,1.38367075683,,,2017_Sep_12_1443,59.9911297097,FEMA4ImagesEEG,001,101556,
AFSA25.JPG,AFNE24.JPG,AFSA24.JPG,AFNE21.JPG,AFSA21.JPG,AFNE25.JPG,,,,,,,,,0,2,2,2,,,,,,,,,,,,,,,AFNE17.jpg,AFNE13.jpg,AFSA09.jpg,AFSA07.jpg,AFSA09.jpg,FS,4,num_2,16,num_2,0.766762899235,,,2017_Sep_12_1443,59.9911297097,FEMA4ImagesEEG,001,101556,
AMNE22.JPG,AMSA24.JPG,AMSA22.JPG,AMNE25.JPG,AMNE24.JPG,AMSA25.JPG,,,,,,,,,0,3,3,7,,,,,,,,,,,,,,,AFSA18.jpg,AFNE10.jpg,AFSA20.jpg,AFNE03.jpg,AFSA20.jpg,FS,4,num_2,32,num_8,0.966536585242,,,2017_Sep_12_1443,59.9911297097,FEMA4ImagesEEG,001,101556,
AFNE23.JPG,AFNE24.JPG,AFNE22.JPG,AFSA24.JPG,AFSA22.JPG,AFSA23.JPG,,,,,,,,,0,4,4,8,,,,,,,,,,,,,,,AFSA11.jpg,AFNE13.jpg,AFNE19.jpg,AFSA13.jpg,AFNE19.jpg,FN,3,num_2,32,num_6,0.950091939885,,,2017_Sep_12_1443,59.9911297097,FEMA4ImagesEEG,001,101556,
AFSA21.JPG,AFNE23.JPG,AFNE21.JPG,AFSA25.JPG,AFNE25.JPG,AFSA23.JPG,,,,,,,,,0,5,5,4,,,,,,,,,,,,,,,AFSA03.jpg,AFNE10.jpg,AFSA01.jpg,AFNE13.jpg,AFNE10.jpg,FN,3,num_6,32,num_4,1.00008050562,,,2017_Sep_12_1443,59.9911297097,FEMA4ImagesEEG,001,101556,
AFNE22.JPG,AFSA24.JPG,AFSA22.JPG,AFNE25.JPG,AFNE24.JPG,AFSA25.JPG,,,,,,,,,0,6,6,6,,,,,,,,,,,,,,,AFNE13.jpg,AFSA03.jpg,AFNE10.jpg,AFSA17.jpg,AFSA03.jpg,FS,4,num_6,32,num_8,0.900103374384,,,2017_Sep_12_1443,59.9911297097,FEMA4ImagesEEG,001,101556,
AMNE23.JPG,AMNE24.JPG,AMNE22.JPG,AMSA24.JPG,AMSA22.JPG,AMSA23.JPG,,,,,,,,,0,7,7,9,,,,,,,,,,,,,,,AFSA05.jpg,AFNE20.jpg,AFSA18.jpg,AFNE10.jpg,AFSA05.jpg,FS,4,num_8,16,num_8,0.716815708904,,,2017_Sep_12_1443,59.9911297097,FEMA4ImagesEEG,001,101556,
AMSA21.JPG,AMNE22.JPG,AMNE21.JPG,AMSA23.JPG,AMSA22.JPG,AMNE23.JPG,,,,,,,,,0,8,8,1,,,,,,,,,,,,,,,AFNE19.jpg,AFNE12.jpg,AFSA11.jpg,AFSA09.jpg,AFNE19.jpg,FN,3,num_8,32,num_6,1.05040424434,,,2017_Sep_12_1443,59.9911297097,FEMA4ImagesEEG,001,101556,
AMSA25.JPG,AMNE24.JPG,AMSA24.JPG,AMNE26.JPG,AMSA21.JPG,AMNE25.JPG,,,,,,,,,0,9,9,3,,,,,,,,,,,,,,,AFNE20.jpg,AFSA15.jpg,AFSA02.jpg,AFNE19.jpg,AFSA15.jpg,FS,4,num_6,32,num_8,1.71673648641,,,2017_Sep_12_1443,59.9911297097,FEMA4ImagesEEG,001,101556,
AMSA21.JPG,AMNE22.JPG,AMNE21.JPG,AMSA23.JPG,AMSA22.JPG,AMNE23.JPG,,,,,,,,,,,,,0,0,0,1,,,,,,,,,,,AMNE02.jpg,AMSA16.jpg,AMSA05.jpg,AMNE09.jpg,AMSA05.jpg,MS,2,num_2,16,num_2,0.716842330527,,,2017_Sep_12_1443,59.9911297097,FEMA4ImagesEEG,001,101556,
AMNE22.JPG,AMSA24.JPG,AMSA22.JPG,AMNE25.JPG,AMNE24.JPG,AMSA25.JPG,,,,,,,,,,,,,0,1,1,7,,,,,,,,,,,AMSA02.jpg,AMNE14.jpg,AMSA17.jpg,AMNE07.jpg,AMSA02.jpg,MS,2,num_8,32,num_4,0.983426738298,,,2017_Sep_12_1443,59.9911297097,FEMA4ImagesEEG,001,101556,
AMSA25.JPG,AMNE24.JPG,AMSA24.JPG,AMNE26.JPG,AMSA21.JPG,AMNE25.JPG,,,,,,,,,,,,,0,2,2,3,,,,,,,,,,,AMNE12.jpg,AMNE06.jpg,AMSA04.jpg,AMSA14.jpg,AMNE06.jpg,MN,1,num_6,32,num_8,1.0667436868,,,2017_Sep_12_1443,59.9911297097,FEMA4ImagesEEG,001,101556,
AMNE23.JPG,AMNE24.JPG,AMNE22.JPG,AMSA24.JPG,AMSA22.JPG,AMSA23.JPG,,,,,,,,,,,,,0,3,3,9,,,,,,,,,,,AMSA16.jpg,AMNE16.jpg,AMNE20.jpg,AMSA14.jpg,AMSA16.jpg,MS,2,num_8,32,num_6,0.883487133309,,,2017_Sep_12_1443,59.9911297097,FEMA4ImagesEEG,001,101556,
AFSA25.JPG,AFNE24.JPG,AFSA24.JPG,AFNE21.JPG,AFSA21.JPG,AFNE25.JPG,,,,,,,,,,,,,0,4,4,2,,,,,,,,,,,AMSA12.jpg,AMNE07.jpg,AMNE19.jpg,AMSA04.jpg,AMNE19.jpg,MN,1,num_2,32,num_8,0.966740255011,,,2017_Sep_12_1443,59.9911297097,FEMA4ImagesEEG,001,101556,
AFSA21.JPG,AFNE23.JPG,AFNE21.JPG,AFSA25.JPG,AFNE25.JPG,AFSA23.JPG,,,,,,,,,,,,,0,5,5,4,,,,,,,,,,,AMNE10.jpg,AMSA04.jpg,AMSA15.jpg,AMNE02.jpg,AMSA04.jpg,MS,2,num_6,16,num_6,0.850117053837,,,2017_Sep_12_1443,59.9911297097,FEMA4ImagesEEG,001,101556,
AMSA21.JPG,AMNE23.JPG,AMNE21.JPG,AMSA25.JPG,AMNE25.JPG,AMSA23.JPG,,,,,,,,,,,,,0,6,6,5,,,,,,,,,,,AMNE15.jpg,AMSA10.jpg,AMSA17.jpg,AMNE12.jpg,AMSA17.jpg,MS,2,num_2,16,num_2,1.3335045015,,,2017_Sep_12_1443,59.9911297097,FEMA4ImagesEEG,001,101556,
AFSA21.JPG,AFNE22.JPG,AFNE21.JPG,AFSA23.JPG,AFSA22.JPG,AFNE23.JPG,,,,,,,,,,,,,0,7,7,0,,,,,,,,,,,AMNE16.jpg,AMSA10.jpg,AMNE06.jpg,AMSA08.jpg,AMSA08.jpg,MS,2,num_4,32,num_8,0.866728483932,,,2017_Sep_12_1443,59.9911297097,FEMA4ImagesEEG,001,101556,
AFNE23.JPG,AFNE24.JPG,AFNE22.JPG,AFSA24.JPG,AFSA22.JPG,AFSA23.JPG,,,,,,,,,,,,,0,8,8,8,,,,,,,,,,,AMNE19.jpg,AMNE15.jpg,AMSA16.jpg,AMSA13.jpg,AMNE15.jpg,MN,1,num_6,32,num_2,0.833451419137,,,2017_Sep_12_1443,59.9911297097,FEMA4ImagesEEG,001,101556,
AFNE22.JPG,AFSA24.JPG,AFSA22.JPG,AFNE25.JPG,AFNE24.JPG,AFSA25.JPG,,,,,,,,,,,,,0,9,9,6,,,,,,,,,,,AMNE18.jpg,AMNE20.jpg,AMSA13.jpg,AMSA01.jpg,AMNE20.jpg,MN,1,num_6,16,num_6,0.733510852093,,,2017_Sep_12_1443,59.9911297097,FEMA4ImagesEEG,001,101556,
AFNE23.JPG,AFNE24.JPG,AFNE22.JPG,AFSA24.JPG,AFSA22.JPG,AFSA23.JPG,,,,,,,,,,,,,,,,,0,0,0,8,,,,,,,AFNE15.jpg,AFSA17.jpg,AFSA11.jpg,AFNE04.jpg,AFSA17.jpg,FS,4,num_6,32,num_2,1.86673842673,,,2017_Sep_12_1443,59.9911297097,FEMA4ImagesEEG,001,101556,
AMSA21.JPG,AMNE22.JPG,AMNE21.JPG,AMSA23.JPG,AMSA22.JPG,AMNE23.JPG,,,,,,,,,,,,,,,,,0,1,1,1,,,,,,,AFSA19.jpg,AFNE20.jpg,AFSA11.jpg,AFNE09.jpg,AFSA19.jpg,FS,4,num_8,16,num_8,0.916633336339,,,2017_Sep_12_1443,59.9911297097,FEMA4ImagesEEG,001,101556,
AFSA25.JPG,AFNE24.JPG,AFSA24.JPG,AFNE21.JPG,AFSA21.JPG,AFNE25.JPG,,,,,,,,,,,,,,,,,0,2,2,2,,,,,,,AFSA06.jpg,AFSA14.jpg,AFNE19.jpg,AFNE14.jpg,AFNE19.jpg,FN,3,num_2,32,num_6,0.816862440901,,,2017_Sep_12_1443,59.9911297097,FEMA4ImagesEEG,001,101556,
AFNE22.JPG,AFSA24.JPG,AFSA22.JPG,AFNE25.JPG,AFNE24.JPG,AFSA25.JPG,,,,,,,,,,,,,,,,,0,3,3,6,,,,,,,AFSA15.jpg,AFNE17.jpg,AFNE13.jpg,AFSA13.jpg,AFSA15.jpg,FS,4,num_8,16,num_8,0.700420778245,,,2017_Sep_12_1443,59.9911297097,FEMA4ImagesEEG,001,101556,
AMNE22.JPG,AMSA24.JPG,AMSA22.JPG,AMNE25.JPG,AMNE24.JPG,AMSA25.JPG,,,,,,,,,,,,,,,,,0,4,4,7,,,,,,,AFSA16.jpg,AFNE09.jpg,AFNE06.jpg,AFSA04.jpg,AFSA16.jpg,FS,4,num_8,16,num_8,0.733486155048,,,2017_Sep_12_1443,59.9911297097,FEMA4ImagesEEG,001,101556,
AFSA21.JPG,AFNE23.JPG,AFNE21.JPG,AFSA25.JPG,AFNE25.JPG,AFSA23.JPG,,,,,,,,,,,,,,,,,0,5,5,4,,,,,,,AFSA03.jpg,AFNE18.jpg,AFNE02.jpg,AFSA17.jpg,AFSA03.jpg,FS,4,num_8,32,num_4,1.45006451686,,,2017_Sep_12_1443,59.9911297097,FEMA4ImagesEEG,001,101556,
AFSA21.JPG,AFNE22.JPG,AFNE21.JPG,AFSA23.JPG,AFSA22.JPG,AFNE23.JPG,,,,,,,,,,,,,,,,,0,6,6,0,,,,,,,AFNE12.jpg,AFNE15.jpg,AFSA08.jpg,AFSA05.jpg,AFNE12.jpg,FN,3,num_8,16,num_8,0.733419761993,,,2017_Sep_12_1443,59.9911297097,FEMA4ImagesEEG,001,101556,
AMNE23.JPG,AMNE24.JPG,AMNE22.JPG,AMSA24.JPG,AMSA22.JPG,AMSA23.JPG,,,,,,,,,,,,,,,,,0,7,7,9,,,,,,,AFNE17.jpg,AFSA06.jpg,AFNE14.jpg,AFSA18.jpg,AFNE17.jpg,FN,3,num_8,16,num_8,0.783470551018,,,2017_Sep_12_1443,59.9911297097,FEMA4ImagesEEG,001,101556,
AMSA21.JPG,AMNE23.JPG,AMNE21.JPG,AMSA25.JPG,AMNE25.JPG,AMSA23.JPG,,,,,,,,,,,,,,,,,0,8,8,5,,,,,,,AFNE01.jpg,AFSA02.jpg,AFNE13.jpg,AFSA04.jpg,AFSA04.jpg,FS,4,num_4,16,num_4,1.11672006454,,,2017_Sep_12_1443,59.9911297097,FEMA4ImagesEEG,001,101556,
AMSA25.JPG,AMNE24.JPG,AMSA24.JPG,AMNE26.JPG,AMSA21.JPG,AMNE25.JPG,,,,,,,,,,,,,,,,,0,9,9,3,,,,,,,AFNE13.jpg,AFSA15.jpg,AFSA16.jpg,AFNE05.jpg,AFSA16.jpg,FS,4,num_2,16,num_2,0.783436552621,,,2017_Sep_12_1443,59.9911297097,FEMA4ImagesEEG,001,101556,
AFNE22.JPG,AFSA24.JPG,AFSA22.JPG,AFNE25.JPG,AFNE24.JPG,AFSA25.JPG,,,,,,,,,,,,,,,,,,,,,0,0,0,6,,,AMNE15.jpg,AMSA07.jpg,AMSA19.jpg,AMNE07.jpg,AMSA19.jpg,MS,2,num_2,16,num_2,0.833441155264,,,2017_Sep_12_1443,59.9911297097,FEMA4ImagesEEG,001,101556,
AFSA25.JPG,AFNE24.JPG,AFSA24.JPG,AFNE21.JPG,AFSA21.JPG,AFNE25.JPG,,,,,,,,,,,,,,,,,,,,,0,1,1,2,,,AMSA18.jpg,AMSA08.jpg,AMNE01.jpg,AMNE09.jpg,AMSA08.jpg,MS,2,num_6,32,num_8,1.16646679235,,,2017_Sep_12_1443,59.9911297097,FEMA4ImagesEEG,001,101556,
AFSA21.JPG,AFNE23.JPG,AFNE21.JPG,AFSA25.JPG,AFNE25.JPG,AFSA23.JPG,,,,,,,,,,,,,,,,,,,,,0,2,2,4,,,AMSA11.jpg,AMNE18.jpg,AMSA06.jpg,AMNE08.jpg,AMSA11.jpg,MS,2,num_8,32,num_2,0.950135881314,,,2017_Sep_12_1443,59.9911297097,FEMA4ImagesEEG,001,101556,
AMSA21.JPG,AMNE22.JPG,AMNE21.JPG,AMSA23.JPG,AMSA22.JPG,AMNE23.JPG,,,,,,,,,,,,,,,,,,,,,0,3,3,1,,,AMNE04.jpg,AMSA06.jpg,AMNE12.jpg,AMSA12.jpg,AMSA12.jpg,MS,2,num_4,16,num_4,1.03343166132,,,2017_Sep_12_1443,59.9911297097,FEMA4ImagesEEG,001,101556,
AFSA21.JPG,AFNE22.JPG,AFNE21.JPG,AFSA23.JPG,AFSA22.JPG,AFNE23.JPG,,,,,,,,,,,,,,,,,,,,,0,4,4,0,,,AMSA11.jpg,AMSA15.jpg,AMNE03.jpg,AMNE18.jpg,AMNE18.jpg,MN,1,num_4,32,num_8,0.783441684442,,,2017_Sep_12_1443,59.9911297097,FEMA4ImagesEEG,001,101556,
AMNE23.JPG,AMNE24.JPG,AMNE22.JPG,AMSA24.JPG,AMSA22.JPG,AMSA23.JPG,,,,,,,,,,,,,,,,,,,,,0,5,5,9,,,AMSA12.jpg,AMNE17.jpg,AMSA15.jpg,AMNE11.jpg,AMSA15.jpg,MS,2,num_2,16,num_2,0.633480477845,,,2017_Sep_12_1443,59.9911297097,FEMA4ImagesEEG,001,101556,
AMNE22.JPG,AMSA24.JPG,AMSA22.JPG,AMNE25.JPG,AMNE24.JPG,AMSA25.JPG,,,,,,,,,,,,,,,,,,,,,0,6,6,7,,,AMNE02.jpg,AMSA06.jpg,AMSA09.jpg,AMNE11.jpg,AMNE11.jpg,MN,1,num_4,16,num_4,1.01673555607,,,2017_Sep_12_1443,59.9911297097,FEMA4ImagesEEG,001,101556,
AMSA25.JPG,AMNE24.JPG,AMSA24.JPG,AMNE26.JPG,AMSA21.JPG,AMNE25.JPG,,,,,,,,,,,,,,,,,,,,,0,7,7,3,,,AMNE02.jpg,AMSA02.jpg,AMSA13.jpg,AMNE15.jpg,AMNE02.jpg,MN,1,num_8,32,num_6,1.46655695233,,,2017_Sep_12_1443,59.9911297097,FEMA4ImagesEEG,001,101556,
AFNE23.JPG,AFNE24.JPG,AFNE22.JPG,AFSA24.JPG,AFSA22.JPG,AFSA23.JPG,,,,,,,,,,,,,,,,,,,,,0,8,8,8,,,AMNE19.jpg,AMNE20.jpg,AMSA11.jpg,AMSA14.jpg,AMNE20.jpg,MN,1,num_6,16,num_6,0.783476965968,,,2017_Sep_12_1443,59.9911297097,FEMA4ImagesEEG,001,101556,
AMSA21.JPG,AMNE23.JPG,AMNE21.JPG,AMSA25.JPG,AMNE25.JPG,AMSA23.JPG,,,,,,,,,,,,,,,,,,,,,0,9,9,5,,,AMNE05.jpg,AMSA02.jpg,AMSA07.jpg,AMNE02.jpg,AMNE05.jpg,MN,1,num_8,16,num_8,0.750132866437,,,2017_Sep_12_1443,59.9911297097,FEMA4ImagesEEG,001,101556,
,,,,,,,,,,,,,,,,,,,,,,,,,,,,,,,,,,,,,,,,,,,space,3.4666281566,2017_Sep_12_1443,59.9911297097,FEMA4ImagesEEG,001,101556,
AFNE01.JPG,AFNE01.JPG,AFNE01.JPG,AFNE01.JPG,AFNE01.JPG,AFNE01.JPG,0,0,0,9,,,,,,,,,,,,,,,,,,,,,,,AFNE13.jpg,AFSA13.jpg,AFNE04.jpg,AFSA10.jpg,AFSA10.jpg,FS,4,num_4,32,num_8,0.700180865126,,,2017_Sep_12_1443,59.9911297097,FEMA4ImagesEEG,001,101556,
AFNE01.JPG,AFNE01.JPG,AFNE01.JPG,AFNE01.JPG,AFNE01.JPG,AFNE01.JPG,0,1,1,2,,,,,,,,,,,,,,,,,,,,,,,AFNE06.jpg,AFSA02.jpg,AFSA19.jpg,AFNE10.jpg,AFNE06.jpg,FN,3,num_8,32,num_6,0.750112339156,,,2017_Sep_12_1443,59.9911297097,FEMA4ImagesEEG,001,101556,
AFNE01.JPG,AFNE01.JPG,AFNE01.JPG,AFNE01.JPG,AFNE01.JPG,AFNE01.JPG,0,2,2,0,,,,,,,,,,,,,,,,,,,,,,,AFNE09.jpg,AFSA09.jpg,AFNE12.jpg,AFSA17.jpg,AFSA17.jpg,FS,4,num_4,16,num_4,0.64993346273,,,2017_Sep_12_1443,59.9911297097,FEMA4ImagesEEG,001,101556,
AFNE01.JPG,AFNE01.JPG,AFNE01.JPG,AFNE01.JPG,AFNE01.JPG,AFNE01.JPG,0,3,3,5,,,,,,,,,,,,,,,,,,,,,,,AFNE18.jpg,AFSA01.jpg,AFNE02.jpg,AFSA06.jpg,AFSA06.jpg,FS,4,num_4,32,num_8,0.850076640723,,,2017_Sep_12_1443,59.9911297097,FEMA4ImagesEEG,001,101556,
AFNE01.JPG,AFNE01.JPG,AFNE01.JPG,AFNE01.JPG,AFNE01.JPG,AFNE01.JPG,0,4,4,4,,,,,,,,,,,,,,,,,,,,,,,AFNE18.jpg,AFSA13.jpg,AFSA03.jpg,AFNE06.jpg,AFSA13.jpg,FS,4,num_6,32,num_2,0.916767726419,,,2017_Sep_12_1443,59.9911297097,FEMA4ImagesEEG,001,101556,
AFNE01.JPG,AFNE01.JPG,AFNE01.JPG,AFNE01.JPG,AFNE01.JPG,AFNE01.JPG,0,5,5,3,,,,,,,,,,,,,,,,,,,,,,,AFSA12.jpg,AFNE09.jpg,AFSA04.jpg,AFNE01.jpg,AFNE09.jpg,FN,3,num_6,16,num_6,0.88349739695,,,2017_Sep_12_1443,59.9911297097,FEMA4ImagesEEG,001,101556,
AFNE01.JPG,AFNE01.JPG,AFNE01.JPG,AFNE01.JPG,AFNE01.JPG,AFNE01.JPG,0,6,6,1,,,,,,,,,,,,,,,,,,,,,,,AFSA12.jpg,AFNE18.jpg,AFNE16.jpg,AFSA17.jpg,AFNE18.jpg,FN,3,num_6,32,num_2,0.883512471803,,,2017_Sep_12_1443,59.9911297097,FEMA4ImagesEEG,001,101556,
AFNE01.JPG,AFNE01.JPG,AFNE01.JPG,AFNE01.JPG,AFNE01.JPG,AFNE01.JPG,0,7,7,8,,,,,,,,,,,,,,,,,,,,,,,AFSA06.jpg,AFNE05.jpg,AFNE08.jpg,AFSA08.jpg,AFSA06.jpg,FS,4,num_8,16,num_8,0.766733711818,,,2017_Sep_12_1443,59.9911297097,FEMA4ImagesEEG,001,101556,
AFNE01.JPG,AFNE01.JPG,AFNE01.JPG,AFNE01.JPG,AFNE01.JPG,AFNE01.JPG,0,8,8,7,,,,,,,,,,,,,,,,,,,,,,,AFNE03.jpg,AFNE06.jpg,AFSA11.jpg,AFSA07.jpg,AFNE03.jpg,FN,3,num_8,32,num_4,1.10010157828,,,2017_Sep_12_1443,59.9911297097,FEMA4ImagesEEG,001,101556,
AFNE01.JPG,AFNE01.JPG,AFNE01.JPG,AFNE01.JPG,AFNE01.JPG,AFNE01.JPG,0,9,9,6,,,,,,,,,,,,,,,,,,,,,,,AFNE17.jpg,AFSA08.jpg,AFNE19.jpg,AFSA15.jpg,AFNE19.jpg,FN,3,num_2,32,num_6,1.03344481182,,,2017_Sep_12_1443,59.9911297097,FEMA4ImagesEEG,001,101556,
AFNE01.JPG,AFNE01.JPG,AFNE01.JPG,AFNE01.JPG,AFNE01.JPG,AFNE01.JPG,1,0,10,6,,,,,,,,,,,,,,,,,,,,,,,AFSA14.jpg,AFNE19.jpg,AFSA13.jpg,AFNE04.jpg,AFNE19.jpg,FN,3,num_6,16,num_6,0.833459437359,,,2017_Sep_12_1443,59.9911297097,FEMA4ImagesEEG,001,101556,
AFNE01.JPG,AFNE01.JPG,AFNE01.JPG,AFNE01.JPG,AFNE01.JPG,AFNE01.JPG,1,1,11,3,,,,,,,,,,,,,,,,,,,,,,,AFNE08.jpg,AFNE10.jpg,AFSA02.jpg,AFSA01.jpg,AFSA01.jpg,FS,4,num_4,16,num_4,1.083460961,,,2017_Sep_12_1443,59.9911297097,FEMA4ImagesEEG,001,101556,
AFNE01.JPG,AFNE01.JPG,AFNE01.JPG,AFNE01.JPG,AFNE01.JPG,AFNE01.JPG,1,2,12,5,,,,,,,,,,,,,,,,,,,,,,,AFSA13.jpg,AFNE17.jpg,AFSA11.jpg,AFNE13.jpg,AFSA11.jpg,FS,4,num_2,32,num_8,0.900155654876,,,2017_Sep_12_1443,59.9911297097,FEMA4ImagesEEG,001,101556,
AFNE01.JPG,AFNE01.JPG,AFNE01.JPG,AFNE01.JPG,AFNE01.JPG,AFNE01.JPG,1,3,13,4,,,,,,,,,,,,,,,,,,,,,,,AFNE10.jpg,AFNE19.jpg,AFSA14.jpg,AFSA04.jpg,AFSA14.jpg,FS,4,num_2,16,num_2,1.00011963584,,,2017_Sep_12_1443,59.9911297097,FEMA4ImagesEEG,001,101556,
AFNE01.JPG,AFNE01.JPG,AFNE01.JPG,AFNE01.JPG,AFNE01.JPG,AFNE01.JPG,1,4,14,8,,,,,,,,,,,,,,,,,,,,,,,AFSA09.jpg,AFNE17.jpg,AFNE08.jpg,AFSA15.jpg,AFNE17.jpg,FN,3,num_6,32,num_2,0.883467568317,,,2017_Sep_12_1443,59.9911297097,FEMA4ImagesEEG,001,101556,
AFNE01.JPG,AFNE01.JPG,AFNE01.JPG,AFNE01.JPG,AFNE01.JPG,AFNE01.JPG,1,5,15,1,,,,,,,,,,,,,,,,,,,,,,,AFSA20.jpg,AFSA18.jpg,AFNE14.jpg,AFNE18.jpg,AFSA20.jpg,FS,4,num_8,32,num_6,0.666807578178,,,2017_Sep_12_1443,59.9911297097,FEMA4ImagesEEG,001,101556,
AFNE01.JPG,AFNE01.JPG,AFNE01.JPG,AFNE01.JPG,AFNE01.JPG,AFNE01.JPG,1,6,16,0,,,,,,,,,,,,,,,,,,,,,,,AFSA07.jpg,AFSA20.jpg,AFNE15.jpg,AFNE08.jpg,AFSA20.jpg,FS,4,num_6,32,num_8,0.883442871273,,,2017_Sep_12_1443,59.9911297097,FEMA4ImagesEEG,001,101556,
AFNE01.JPG,AFNE01.JPG,AFNE01.JPG,AFNE01.JPG,AFNE01.JPG,AFNE01.JPG,1,7,17,7,,,,,,,,,,,,,,,,,,,,,,,AFSA11.jpg,AFSA18.jpg,AFNE03.jpg,AFNE20.jpg,AFSA18.jpg,FS,4,num_6,32,num_8,0.516777412733,,,2017_Sep_12_1443,59.9911297097,FEMA4ImagesEEG,001,101556,
AFNE01.JPG,AFNE01.JPG,AFNE01.JPG,AFNE01.JPG,AFNE01.JPG,AFNE01.JPG,1,8,18,2,,,,,,,,,,,,,,,,,,,,,,,AFSA16.jpg,AFNE15.jpg,AFSA17.jpg,AFNE04.jpg,AFSA17.jpg,FS,4,num_2,32,num_4,0.833446607925,,,2017_Sep_12_1443,59.9911297097,FEMA4ImagesEEG,001,101556,
AFNE01.JPG,AFNE01.JPG,AFNE01.JPG,AFNE01.JPG,AFNE01.JPG,AFNE01.JPG,1,9,19,9,,,,,,,,,,,,,,,,,,,,,,,AFSA12.jpg,AFNE08.jpg,AFNE18.jpg,AFSA08.jpg,AFNE18.jpg,FN,3,num_2,32,num_8,0.666761391796,,,2017_Sep_12_1443,59.9911297097,FEMA4ImagesEEG,001,101556,
AFNE01.JPG,AFNE01.JPG,AFNE01.JPG,AFNE01.JPG,AFNE01.JPG,AFNE01.JPG,2,0,20,0,,,,,,,,,,,,,,,,,,,,,,,AFSA08.jpg,AFNE03.jpg,AFNE07.jpg,AFSA14.jpg,AFSA08.jpg,FS,4,num_8,32,num_4,0.600171980681,,,2017_Sep_12_1443,59.9911297097,FEMA4ImagesEEG,001,101556,
AFNE01.JPG,AFNE01.JPG,AFNE01.JPG,AFNE01.JPG,AFNE01.JPG,AFNE01.JPG,2,1,21,3,,,,,,,,,,,,,,,,,,,,,,,AFNE15.jpg,AFSA12.jpg,AFNE18.jpg,AFSA20.jpg,AFSA20.jpg,FS,4,num_4,32,num_8,1.00005324278,,,2017_Sep_12_1443,59.9911297097,FEMA4ImagesEEG,001,101556,
AFNE01.JPG,AFNE01.JPG,AFNE01.JPG,AFNE01.JPG,AFNE01.JPG,AFNE01.JPG,2,2,22,7,,,,,,,,,,,,,,,,,,,,,,,AFNE05.jpg,AFSA14.jpg,AFSA15.jpg,AFNE09.jpg,AFSA15.jpg,FS,4,num_2,16,num_2,0.666772938333,,,2017_Sep_12_1443,59.9911297097,FEMA4ImagesEEG,001,101556,
AFNE01.JPG,AFNE01.JPG,AFNE01.JPG,AFNE01.JPG,AFNE01.JPG,AFNE01.JPG,2,3,23,6,,,,,,,,,,,,,,,,,,,,,,,AFSA08.jpg,AFNE07.jpg,AFNE08.jpg,AFSA03.jpg,AFNE08.jpg,FN,3,num_2,32,num_8,1.16671632789,,,2017_Sep_12_1443,59.9911297097,FEMA4ImagesEEG,001,101556,
AFNE01.JPG,AFNE01.JPG,AFNE01.JPG,AFNE01.JPG,AFNE01.JPG,AFNE01.JPG,2,4,24,2,,,,,,,,,,,,,,,,,,,,,,,AFSA02.jpg,AFNE13.jpg,AFNE09.jpg,AFSA12.jpg,AFSA02.jpg,FS,4,num_8,32,num_2,0.983451114269,,,2017_Sep_12_1443,59.9911297097,FEMA4ImagesEEG,001,101556,
AFNE01.JPG,AFNE01.JPG,AFNE01.JPG,AFNE01.JPG,AFNE01.JPG,AFNE01.JPG,2,5,25,9,,,,,,,,,,,,,,,,,,,,,,,AFNE09.jpg,AFNE05.jpg,AFSA01.jpg,AFSA19.jpg,AFSA01.jpg,FS,4,num_2,32,num_4,1.06679179799,,,2017_Sep_12_1443,59.9911297097,FEMA4ImagesEEG,001,101556,
AFNE01.JPG,AFNE01.JPG,AFNE01.JPG,AFNE01.JPG,AFNE01.JPG,AFNE01.JPG,2,6,26,8,,,,,,,,,,,,,,,,,,,,,,,AFSA07.jpg,AFNE13.jpg,AFNE04.jpg,AFSA05.jpg,AFNE13.jpg,FN,3,num_6,32,num_8,0.650191337336,,,2017_Sep_12_1443,59.9911297097,FEMA4ImagesEEG,001,101556,
AFNE01.JPG,AFNE01.JPG,AFNE01.JPG,AFNE01.JPG,AFNE01.JPG,AFNE01.JPG,2,7,27,4,,,,,,,,,,,,,,,,,,,,,,,AFSA13.jpg,AFSA15.jpg,AFNE15.jpg,AFNE13.jpg,AFSA13.jpg,FS,4,num_8,16,num_8,0.566884972621,,,2017_Sep_12_1443,59.9911297097,FEMA4ImagesEEG,001,101556,
AFNE01.JPG,AFNE01.JPG,AFNE01.JPG,AFNE01.JPG,AFNE01.JPG,AFNE01.JPG,2,8,28,5,,,,,,,,,,,,,,,,,,,,,,,AFSA09.jpg,AFNE18.jpg,AFSA15.jpg,AFNE14.jpg,AFSA15.jpg,FS,4,num_2,16,num_2,0.683479948901,,,2017_Sep_12_1443,59.9911297097,FEMA4ImagesEEG,001,101556,
AFNE01.JPG,AFNE01.JPG,AFNE01.JPG,AFNE01.JPG,AFNE01.JPG,AFNE01.JPG,2,9,29,1,,,,,,,,,,,,,,,,,,,,,,,AFSA16.jpg,AFSA14.jpg,AFNE02.jpg,AFNE16.jpg,AFNE16.jpg,FN,3,num_4,16,num_4,1.13344407408,,,2017_Sep_12_1443,59.9911297097,FEMA4ImagesEEG,001,101556,
AFNE01.JPG,AFNE01.JPG,AFNE01.JPG,AFNE01.JPG,AFNE01.JPG,AFNE01.JPG,3,0,30,9,,,,,,,,,,,,,,,,,,,,,,,AFSA02.jpg,AFNE10.jpg,AFNE16.jpg,AFSA08.jpg,AFSA02.jpg,FS,4,num_8,32,num_2,0.800142921507,,,2017_Sep_12_1443,59.9911297097,FEMA4ImagesEEG,001,101556,
AFNE01.JPG,AFNE01.JPG,AFNE01.JPG,AFNE01.JPG,AFNE01.JPG,AFNE01.JPG,3,1,31,2,,,,,,,,,,,,,,,,,,,,,,,AFSA18.jpg,AFNE09.jpg,AFNE17.jpg,AFSA12.jpg,AFSA12.jpg,FS,4,num_4,16,num_4,0.583502496826,,,2017_Sep_12_1443,59.9911297097,FEMA4ImagesEEG,001,101556,
AFNE01.JPG,AFNE01.JPG,AFNE01.JPG,AFNE01.JPG,AFNE01.JPG,AFNE01.JPG,3,2,32,5,,,,,,,,,,,,,,,,,,,,,,,AFNE15.jpg,AFNE18.jpg,AFSA11.jpg,AFSA08.jpg,AFSA08.jpg,FS,4,num_4,16,num_4,0.75011362182,,,2017_Sep_12_1443,59.9911297097,FEMA4ImagesEEG,001,101556,
AFNE01.JPG,AFNE01.JPG,AFNE01.JPG,AFNE01.JPG,AFNE01.JPG,AFNE01.JPG,3,3,33,6,,,,,,,,,,,,,,,,,,,,,,,AFNE18.jpg,AFNE16.jpg,AFSA16.jpg,AFSA18.jpg,AFSA16.jpg,FS,4,num_2,32,num_8,1.03343230276,,,2017_Sep_12_1443,59.9911297097,FEMA4ImagesEEG,001,101556,
AFNE01.JPG,AFNE01.JPG,AFNE01.JPG,AFNE01.JPG,AFNE01.JPG,AFNE01.JPG,3,4,34,7,,,,,,,,,,,,,,,,,,,,,,,AFSA20.jpg,AFNE16.jpg,AFNE20.jpg,AFSA04.jpg,AFNE16.jpg,FN,3,num_6,32,num_2,1.40006151795,,,2017_Sep_12_1443,59.9911297097,FEMA4ImagesEEG,001,101556,
AFNE01.JPG,AFNE01.JPG,AFNE01.JPG,AFNE01.JPG,AFNE01.JPG,AFNE01.JPG,3,5,35,8,,,,,,,,,,,,,,,,,,,,,,,AFNE05.jpg,AFSA09.jpg,AFSA02.jpg,AFNE13.jpg,AFSA02.jpg,FS,4,num_2,16,num_2,0.850137901958,,,2017_Sep_12_1443,59.9911297097,FEMA4ImagesEEG,001,101556,
AFNE01.JPG,AFNE01.JPG,AFNE01.JPG,AFNE01.JPG,AFNE01.JPG,AFNE01.JPG,3,6,36,3,,,,,,,,,,,,,,,,,,,,,,,AFNE11.jpg,AFSA01.jpg,AFNE05.jpg,AFSA03.jpg,AFNE05.jpg,FN,3,num_2,32,num_4,1.23339811224,,,2017_Sep_12_1443,59.9911297097,FEMA4ImagesEEG,001,101556,
AFNE01.JPG,AFNE01.JPG,AFNE01.JPG,AFNE01.JPG,AFNE01.JPG,AFNE01.JPG,3,7,37,4,,,,,,,,,,,,,,,,,,,,,,,AFNE05.jpg,AFSA07.jpg,AFNE12.jpg,AFSA16.jpg,AFSA07.jpg,FS,4,num_6,32,num_2,1.28339726198,,,2017_Sep_12_1443,59.9911297097,FEMA4ImagesEEG,001,101556,
AFNE01.JPG,AFNE01.JPG,AFNE01.JPG,AFNE01.JPG,AFNE01.JPG,AFNE01.JPG,3,8,38,1,,,,,,,,,,,,,,,,,,,,,,,AFSA02.jpg,AFNE07.jpg,AFSA07.jpg,AFNE05.jpg,AFNE05.jpg,FN,3,num_4,32,num_8,1.06704582367,,,2017_Sep_12_1443,59.9911297097,FEMA4ImagesEEG,001,101556,
AFNE01.JPG,AFNE01.JPG,AFNE01.JPG,AFNE01.JPG,AFNE01.JPG,AFNE01.JPG,3,9,39,0,,,,,,,,,,,,,,,,,,,,,,,AFSA17.jpg,AFNE01.jpg,AFSA08.jpg,AFNE12.jpg,AFNE12.jpg,FN,3,num_4,16,num_4,0.583461121423,,,2017_Sep_12_1443,59.9911297097,FEMA4ImagesEEG,001,101556,
AFNE01.JPG,AFNE01.JPG,AFNE01.JPG,AFNE01.JPG,AFNE01.JPG,AFNE01.JPG,4,0,40,5,,,,,,,,,,,,,,,,,,,,,,,AFNE11.jpg,AFNE13.jpg,AFSA10.jpg,AFSA02.jpg,AFNE13.jpg,FN,3,num_6,16,num_6,0.916760670021,,,2017_Sep_12_1443,59.9911297097,FEMA4ImagesEEG,001,101556,
AFNE01.JPG,AFNE01.JPG,AFNE01.JPG,AFNE01.JPG,AFNE01.JPG,AFNE01.JPG,4,1,41,0,,,,,,,,,,,,,,,,,,,,,,,AFSA06.jpg,AFNE06.jpg,AFNE07.jpg,AFSA15.jpg,AFNE07.jpg,FN,3,num_2,32,num_8,0.833432816202,,,2017_Sep_12_1443,59.9911297097,FEMA4ImagesEEG,001,101556,
AFNE01.JPG,AFNE01.JPG,AFNE01.JPG,AFNE01.JPG,AFNE01.JPG,AFNE01.JPG,4,2,42,9,,,,,,,,,,,,,,,,,,,,,,,AFSA15.jpg,AFNE19.jpg,AFNE03.jpg,AFSA19.jpg,AFNE03.jpg,FN,3,num_2,16,num_2,0.800107319606,,,2017_Sep_12_1443,59.9911297097,FEMA4ImagesEEG,001,101556,
AFNE01.JPG,AFNE01.JPG,AFNE01.JPG,AFNE01.JPG,AFNE01.JPG,AFNE01.JPG,4,3,43,4,,,,,,,,,,,,,,,,,,,,,,,AFNE07.jpg,AFSA12.jpg,AFNE13.jpg,AFSA13.jpg,AFSA12.jpg,FS,4,num_6,16,num_6,0.850128600607,,,2017_Sep_12_1443,59.9911297097,FEMA4ImagesEEG,001,101556,
AFNE01.JPG,AFNE01.JPG,AFNE01.JPG,AFNE01.JPG,AFNE01.JPG,AFNE01.JPG,4,4,44,7,,,,,,,,,,,,,,,,,,,,,,,AFNE18.jpg,AFSA04.jpg,AFNE02.jpg,AFSA11.jpg,AFNE18.jpg,FN,3,num_8,16,num_8,0.883465002291,,,2017_Sep_12_1443,59.9911297097,FEMA4ImagesEEG,001,101556,
AFNE01.JPG,AFNE01.JPG,AFNE01.JPG,AFNE01.JPG,AFNE01.JPG,AFNE01.JPG,4,5,45,2,,,,,,,,,,,,,,,,,,,,,,,AFSA14.jpg,AFSA11.jpg,AFNE02.jpg,AFNE16.jpg,AFNE16.jpg,FN,3,num_4,32,num_8,0.950114391744,,,2017_Sep_12_1443,59.9911297097,FEMA4ImagesEEG,001,101556,
AFNE01.JPG,AFNE01.JPG,AFNE01.JPG,AFNE01.JPG,AFNE01.JPG,AFNE01.JPG,4,6,46,3,,,,,,,,,,,,,,,,,,,,,,,AFNE12.jpg,AFNE16.jpg,AFSA14.jpg,AFSA04.jpg,AFSA14.jpg,FS,4,num_2,32,num_4,0.750114584342,,,2017_Sep_12_1443,59.9911297097,FEMA4ImagesEEG,001,101556,
AFNE01.JPG,AFNE01.JPG,AFNE01.JPG,AFNE01.JPG,AFNE01.JPG,AFNE01.JPG,4,7,47,1,,,,,,,,,,,,,,,,,,,,,,,AFSA20.jpg,AFSA06.jpg,AFNE19.jpg,AFNE09.jpg,AFNE19.jpg,FN,3,num_2,16,num_2,0.833453343483,,,2017_Sep_12_1443,59.9911297097,FEMA4ImagesEEG,001,101556,
AFNE01.JPG,AFNE01.JPG,AFNE01.JPG,AFNE01.JPG,AFNE01.JPG,AFNE01.JPG,4,8,48,8,,,,,,,,,,,,,,,,,,,,,,,AFSA14.jpg,AFNE20.jpg,AFSA07.jpg,AFNE10.jpg,AFNE20.jpg,FN,3,num_6,32,num_8,0.816816254286,,,2017_Sep_12_1443,59.9911297097,FEMA4ImagesEEG,001,101556,
AFNE01.JPG,AFNE01.JPG,AFNE01.JPG,AFNE01.JPG,AFNE01.JPG,AFNE01.JPG,4,9,49,6,,,,,,,,,,,,,,,,,,,,,,,AFSA14.jpg,AFNE06.jpg,AFNE11.jpg,AFSA06.jpg,AFNE06.jpg,FN,3,num_6,16,num_6,1.06672219746,,,2017_Sep_12_1443,59.9911297097,FEMA4ImagesEEG,001,101556,
AFNE01.JPG,AFNE01.JPG,AFNE01.JPG,AFNE01.JPG,AFNE01.JPG,AFNE01.JPG,5,0,50,8,,,,,,,,,,,,,,,,,,,,,,,AFSA11.jpg,AFSA07.jpg,AFNE16.jpg,AFNE14.jpg,AFNE16.jpg,FN,3,num_2,32,num_8,0.783746066503,,,2017_Sep_12_1443,59.9911297097,FEMA4ImagesEEG,001,101556,
AFNE01.JPG,AFNE01.JPG,AFNE01.JPG,AFNE01.JPG,AFNE01.JPG,AFNE01.JPG,5,1,51,3,,,,,,,,,,,,,,,,,,,,,,,AFNE05.jpg,AFNE02.jpg,AFSA05.jpg,AFSA10.jpg,AFSA10.jpg,FS,4,num_4,32,num_8,0.916773820529,,,2017_Sep_12_1443,59.9911297097,FEMA4ImagesEEG,001,101556,
AFNE01.JPG,AFNE01.JPG,AFNE01.JPG,AFNE01.JPG,AFNE01.JPG,AFNE01.JPG,5,2,52,6,,,,,,,,,,,,,,,,,,,,,,,AFNE19.jpg,AFSA16.jpg,AFNE04.jpg,AFSA09.jpg,AFNE04.jpg,FN,3,num_2,16,num_2,0.633516721427,,,2017_Sep_12_1443,59.9911297097,FEMA4ImagesEEG,001,101556,
AFNE01.JPG,AFNE01.JPG,AFNE01.JPG,AFNE01.JPG,AFNE01.JPG,AFNE01.JPG,5,3,53,4,,,,,,,,,,,,,,,,,,,,,,,AFNE02.jpg,AFNE11.jpg,AFSA11.jpg,AFSA03.jpg,AFSA11.jpg,FS,4,num_2,32,num_6,0.633497156436,,,2017_Sep_12_1443,59.9911297097,FEMA4ImagesEEG,001,101556,
AFNE01.JPG,AFNE01.JPG,AFNE01.JPG,AFNE01.JPG,AFNE01.JPG,AFNE01.JPG,5,4,54,5,,,,,,,,,,,,,,,,,,,,,,,AFNE06.jpg,AFSA07.jpg,AFSA09.jpg,AFNE10.jpg,AFSA07.jpg,FS,4,num_6,32,num_8,0.633460592246,,,2017_Sep_12_1443,59.9911297097,FEMA4ImagesEEG,001,101556,
AFNE01.JPG,AFNE01.JPG,AFNE01.JPG,AFNE01.JPG,AFNE01.JPG,AFNE01.JPG,5,5,55,9,,,,,,,,,,,,,,,,,,,,,,,AFNE06.jpg,AFSA18.jpg,AFNE12.jpg,AFSA20.jpg,AFSA20.jpg,FS,4,num_4,32,num_8,1.33345510741,,,2017_Sep_12_1443,59.9911297097,FEMA4ImagesEEG,001,101556,
AFNE01.JPG,AFNE01.JPG,AFNE01.JPG,AFNE01.JPG,AFNE01.JPG,AFNE01.JPG,5,6,56,7,,,,,,,,,,,,,,,,,,,,,,,AFSA15.jpg,AFSA11.jpg,AFNE18.jpg,AFNE17.jpg,AFSA11.jpg,FS,4,num_6,16,num_6,0.600132208783,,,2017_Sep_12_1443,59.9911297097,FEMA4ImagesEEG,001,101556,
AFNE01.JPG,AFNE01.JPG,AFNE01.JPG,AFNE01.JPG,AFNE01.JPG,AFNE01.JPG,5,7,57,2,,,,,,,,,,,,,,,,,,,,,,,AFSA09.jpg,AFSA06.jpg,AFNE17.jpg,AFNE11.jpg,AFSA09.jpg,FS,4,num_8,16,num_8,0.700135319959,,,2017_Sep_12_1443,59.9911297097,FEMA4ImagesEEG,001,101556,
AFNE01.JPG,AFNE01.JPG,AFNE01.JPG,AFNE01.JPG,AFNE01.JPG,AFNE01.JPG,5,8,58,1,,,,,,,,,,,,,,,,,,,,,,,AFNE05.jpg,AFNE13.jpg,AFSA05.jpg,AFSA03.jpg,AFNE13.jpg,FN,3,num_6,32,num_8,1.68337025587,,,2017_Sep_12_1443,59.9911297097,FEMA4ImagesEEG,001,101556,
AFNE01.JPG,AFNE01.JPG,AFNE01.JPG,AFNE01.JPG,AFNE01.JPG,AFNE01.JPG,5,9,59,0,,,,,,,,,,,,,,,,,,,,,,,AFSA20.jpg,AFSA16.jpg,AFNE10.jpg,AFNE12.jpg,AFNE10.jpg,FN,3,num_2,32,num_4,0.683466477785,,,2017_Sep_12_1443,59.9911297097,FEMA4ImagesEEG,001,101556,
,,,,,,,,,,,,,,,,,,,,,,,,,,,,,,,,,,,,,,,,,,,space,3.86650396604,2017_Sep_12_1443,59.9911297097,FEMA4ImagesEEG,001,101556,
AFNE01.JPG,AFNE01.JPG,AFNE01.JPG,AFNE01.JPG,AFNE01.JPG,AFNE01.JPG,,,,,0,0,0,2,,,,,,,,,,,,,,,,,,,AMNE02.jpg,AMSA15.jpg,AMNE08.jpg,AMSA07.jpg,AMNE02.jpg,MN,1,num_8,32,num_4,0.983778589638,,,2017_Sep_12_1443,59.9911297097,FEMA4ImagesEEG,001,101556,
AFNE01.JPG,AFNE01.JPG,AFNE01.JPG,AFNE01.JPG,AFNE01.JPG,AFNE01.JPG,,,,,0,1,1,4,,,,,,,,,,,,,,,,,,,AMNE10.jpg,AMSA18.jpg,AMNE05.jpg,AMSA14.jpg,AMSA18.jpg,MS,2,num_6,16,num_6,0.533320846036,,,2017_Sep_12_1443,59.9911297097,FEMA4ImagesEEG,001,101556,
AFNE01.JPG,AFNE01.JPG,AFNE01.JPG,AFNE01.JPG,AFNE01.JPG,AFNE01.JPG,,,,,0,2,2,1,,,,,,,,,,,,,,,,,,,AMNE18.jpg,AMSA11.jpg,AMSA19.jpg,AMNE05.jpg,AMNE05.jpg,MN,1,num_4,16,num_4,0.833458475303,,,2017_Sep_12_1443,59.9911297097,FEMA4ImagesEEG,001,101556,
AFNE01.JPG,AFNE01.JPG,AFNE01.JPG,AFNE01.JPG,AFNE01.JPG,AFNE01.JPG,,,,,0,3,3,0,,,,,,,,,,,,,,,,,,,AMNE01.jpg,AMNE17.jpg,AMSA03.jpg,AMSA18.jpg,AMNE17.jpg,MN,1,num_6,32,num_8,0.716630000854,,,2017_Sep_12_1443,59.9911297097,FEMA4ImagesEEG,001,101556,
AFNE01.JPG,AFNE01.JPG,AFNE01.JPG,AFNE01.JPG,AFNE01.JPG,AFNE01.JPG,,,,,0,4,4,9,,,,,,,,,,,,,,,,,,,AMSA19.jpg,AMNE16.jpg,AMSA02.jpg,AMNE03.jpg,AMSA02.jpg,MS,2,num_2,16,num_2,0.750068718335,,,2017_Sep_12_1443,59.9911297097,FEMA4ImagesEEG,001,101556,
AFNE01.JPG,AFNE01.JPG,AFNE01.JPG,AFNE01.JPG,AFNE01.JPG,AFNE01.JPG,,,,,0,5,5,5,,,,,,,,,,,,,,,,,,,AMNE11.jpg,AMSA04.jpg,AMSA14.jpg,AMNE16.jpg,AMSA14.jpg,MS,2,num_2,32,num_4,1.08350009122,,,2017_Sep_12_1443,59.9911297097,FEMA4ImagesEEG,001,101556,
AFNE01.JPG,AFNE01.JPG,AFNE01.JPG,AFNE01.JPG,AFNE01.JPG,AFNE01.JPG,,,,,0,6,6,8,,,,,,,,,,,,,,,,,,,AMNE15.jpg,AMNE06.jpg,AMSA12.jpg,AMSA08.jpg,AMNE15.jpg,MN,1,num_8,32,num_6,0.800152223092,,,2017_Sep_12_1443,59.9911297097,FEMA4ImagesEEG,001,101556,
AFNE01.JPG,AFNE01.JPG,AFNE01.JPG,AFNE01.JPG,AFNE01.JPG,AFNE01.JPG,,,,,0,7,7,6,,,,,,,,,,,,,,,,,,,AMSA10.jpg,AMNE07.jpg,AMNE19.jpg,AMSA02.jpg,AMSA02.jpg,MS,2,num_4,16,num_4,0.7501796945,,,2017_Sep_12_1443,59.9911297097,FEMA4ImagesEEG,001,101556,
AFNE01.JPG,AFNE01.JPG,AFNE01.JPG,AFNE01.JPG,AFNE01.JPG,AFNE01.JPG,,,,,0,8,8,7,,,,,,,,,,,,,,,,,,,AMNE16.jpg,AMSA04.jpg,AMNE19.jpg,AMSA14.jpg,AMNE19.jpg,MN,1,num_2,16,num_2,0.90009022411,,,2017_Sep_12_1443,59.9911297097,FEMA4ImagesEEG,001,101556,
AFNE01.JPG,AFNE01.JPG,AFNE01.JPG,AFNE01.JPG,AFNE01.JPG,AFNE01.JPG,,,,,0,9,9,3,,,,,,,,,,,,,,,,,,,AMSA18.jpg,AMNE13.jpg,AMSA15.jpg,AMNE01.jpg,AMSA18.jpg,MS,2,num_8,32,num_4,0.866749973269,,,2017_Sep_12_1443,59.9911297097,FEMA4ImagesEEG,001,101556,
AFNE01.JPG,AFNE01.JPG,AFNE01.JPG,AFNE01.JPG,AFNE01.JPG,AFNE01.JPG,,,,,1,0,10,4,,,,,,,,,,,,,,,,,,,AMNE10.jpg,AMSA15.jpg,AMNE13.jpg,AMSA19.jpg,AMSA15.jpg,MS,2,num_6,16,num_6,0.583315505646,,,2017_Sep_12_1443,59.9911297097,FEMA4ImagesEEG,001,101556,
AFNE01.JPG,AFNE01.JPG,AFNE01.JPG,AFNE01.JPG,AFNE01.JPG,AFNE01.JPG,,,,,1,1,11,6,,,,,,,,,,,,,,,,,,,AMNE02.jpg,AMSA14.jpg,AMSA18.jpg,AMNE18.jpg,AMNE18.jpg,MN,1,num_4,16,num_4,0.800163448788,,,2017_Sep_12_1443,59.9911297097,FEMA4ImagesEEG,001,101556,
AFNE01.JPG,AFNE01.JPG,AFNE01.JPG,AFNE01.JPG,AFNE01.JPG,AFNE01.JPG,,,,,1,2,12,2,,,,,,,,,,,,,,,,,,,AMNE08.jpg,AMNE17.jpg,AMSA06.jpg,AMSA09.jpg,AMNE08.jpg,MN,1,num_8,16,num_8,0.65021058172,,,2017_Sep_12_1443,59.9911297097,FEMA4ImagesEEG,001,101556,
AFNE01.JPG,AFNE01.JPG,AFNE01.JPG,AFNE01.JPG,AFNE01.JPG,AFNE01.JPG,,,,,1,3,13,1,,,,,,,,,,,,,,,,,,,AMSA14.jpg,AMSA09.jpg,AMNE18.jpg,AMNE07.jpg,AMNE07.jpg,MN,1,num_4,32,num_8,0.850113525754,,,2017_Sep_12_1443,59.9911297097,FEMA4ImagesEEG,001,101556,
AFNE01.JPG,AFNE01.JPG,AFNE01.JPG,AFNE01.JPG,AFNE01.JPG,AFNE01.JPG,,,,,1,4,14,9,,,,,,,,,,,,,,,,,,,AMSA03.jpg,AMNE03.jpg,AMSA11.jpg,AMNE01.jpg,AMSA03.jpg,MS,2,num_8,32,num_2,0.733530096477,,,2017_Sep_12_1443,59.9911297097,FEMA4ImagesEEG,001,101556,
AFNE01.JPG,AFNE01.JPG,AFNE01.JPG,AFNE01.JPG,AFNE01.JPG,AFNE01.JPG,,,,,1,5,15,5,,,,,,,,,,,,,,,,,,,AMNE19.jpg,AMNE18.jpg,AMSA02.jpg,AMSA17.jpg,AMNE18.jpg,MN,1,num_6,32,num_4,1.03349163989,,,2017_Sep_12_1443,59.9911297097,FEMA4ImagesEEG,001,101556,
AFNE01.JPG,AFNE01.JPG,AFNE01.JPG,AFNE01.JPG,AFNE01.JPG,AFNE01.JPG,,,,,1,6,16,8,,,,,,,,,,,,,,,,,,,AMNE17.jpg,AMNE16.jpg,AMSA03.jpg,AMSA17.jpg,AMNE16.jpg,MN,1,num_6,32,num_8,0.900108506205,,,2017_Sep_12_1443,59.9911297097,FEMA4ImagesEEG,001,101556,
AFNE01.JPG,AFNE01.JPG,AFNE01.JPG,AFNE01.JPG,AFNE01.JPG,AFNE01.JPG,,,,,1,7,17,7,,,,,,,,,,,,,,,,,,,AMNE02.jpg,AMSA14.jpg,AMNE15.jpg,AMSA19.jpg,AMNE02.jpg,MN,1,num_8,32,num_4,0.883490661392,,,2017_Sep_12_1443,59.9911297097,FEMA4ImagesEEG,001,101556,
AFNE01.JPG,AFNE01.JPG,AFNE01.JPG,AFNE01.JPG,AFNE01.JPG,AFNE01.JPG,,,,,1,8,18,0,,,,,,,,,,,,,,,,,,,AMNE05.jpg,AMSA05.jpg,AMSA17.jpg,AMNE10.jpg,AMSA17.jpg,MS,2,num_2,16,num_2,0.600165245123,,,2017_Sep_12_1443,59.9911297097,FEMA4ImagesEEG,001,101556,
AFNE01.JPG,AFNE01.JPG,AFNE01.JPG,AFNE01.JPG,AFNE01.JPG,AFNE01.JPG,,,,,1,9,19,3,,,,,,,,,,,,,,,,,,,AMSA11.jpg,AMNE13.jpg,AMSA10.jpg,AMNE06.jpg,AMNE06.jpg,MN,1,num_4,32,num_8,0.68345172354,,,2017_Sep_12_1443,59.9911297097,FEMA4ImagesEEG,001,101556,
AFNE01.JPG,AFNE01.JPG,AFNE01.JPG,AFNE01.JPG,AFNE01.JPG,AFNE01.JPG,,,,,2,0,20,3,,,,,,,,,,,,,,,,,,,AMNE20.jpg,AMSA20.jpg,AMSA11.jpg,AMNE12.jpg,AMNE12.jpg,MN,1,num_4,32,num_2,0.999958624598,,,2017_Sep_12_1443,59.9911297097,FEMA4ImagesEEG,001,101556,
AFNE01.JPG,AFNE01.JPG,AFNE01.JPG,AFNE01.JPG,AFNE01.JPG,AFNE01.JPG,,,,,2,1,21,9,,,,,,,,,,,,,,,,,,,AMSA16.jpg,AMNE19.jpg,AMSA20.jpg,AMNE11.jpg,AMNE11.jpg,MN,1,num_4,16,num_4,1.15010136971,,,2017_Sep_12_1443,59.9911297097,FEMA4ImagesEEG,001,101556,
AFNE01.JPG,AFNE01.JPG,AFNE01.JPG,AFNE01.JPG,AFNE01.JPG,AFNE01.JPG,,,,,2,2,22,4,,,,,,,,,,,,,,,,,,,AMSA03.jpg,AMNE14.jpg,AMSA01.jpg,AMNE19.jpg,AMSA01.jpg,MS,2,num_2,16,num_2,0.666797635378,,,2017_Sep_12_1443,59.9911297097,FEMA4ImagesEEG,001,101556,
AFNE01.JPG,AFNE01.JPG,AFNE01.JPG,AFNE01.JPG,AFNE01.JPG,AFNE01.JPG,,,,,2,3,23,7,,,,,,,,,,,,,,,,,,,AMSA02.jpg,AMNE09.jpg,AMSA08.jpg,AMNE18.jpg,AMSA08.jpg,MS,2,num_2,32,num_8,1.00014882325,,,2017_Sep_12_1443,59.9911297097,FEMA4ImagesEEG,001,101556,
AFNE01.JPG,AFNE01.JPG,AFNE01.JPG,AFNE01.JPG,AFNE01.JPG,AFNE01.JPG,,,,,2,4,24,5,,,,,,,,,,,,,,,,,,,AMNE06.jpg,AMNE02.jpg,AMSA13.jpg,AMSA02.jpg,AMNE06.jpg,MN,1,num_8,16,num_8,0.883443833329,,,2017_Sep_12_1443,59.9911297097,FEMA4ImagesEEG,001,101556,
AFNE01.JPG,AFNE01.JPG,AFNE01.JPG,AFNE01.JPG,AFNE01.JPG,AFNE01.JPG,,,,,2,5,25,8,,,,,,,,,,,,,,,,,,,AMSA07.jpg,AMSA08.jpg,AMNE08.jpg,AMNE20.jpg,AMSA07.jpg,MS,2,num_8,32,num_4,1.06660833489,,,2017_Sep_12_1443,59.9911297097,FEMA4ImagesEEG,001,101556,
AFNE01.JPG,AFNE01.JPG,AFNE01.JPG,AFNE01.JPG,AFNE01.JPG,AFNE01.JPG,,,,,2,6,26,6,,,,,,,,,,,,,,,,,,,AMNE07.jpg,AMSA06.jpg,AMSA02.jpg,AMNE12.jpg,AMSA06.jpg,MS,2,num_6,16,num_6,0.633496194379,,,2017_Sep_12_1443,59.9911297097,FEMA4ImagesEEG,001,101556,
AFNE01.JPG,AFNE01.JPG,AFNE01.JPG,AFNE01.JPG,AFNE01.JPG,AFNE01.JPG,,,,,2,7,27,2,,,,,,,,,,,,,,,,,,,AMNE19.jpg,AMSA19.jpg,AMNE02.jpg,AMSA14.jpg,AMSA14.jpg,MS,2,num_4,16,num_4,0.633480798686,,,2017_Sep_12_1443,59.9911297097,FEMA4ImagesEEG,001,101556,
AFNE01.JPG,AFNE01.JPG,AFNE01.JPG,AFNE01.JPG,AFNE01.JPG,AFNE01.JPG,,,,,2,8,28,0,,,,,,,,,,,,,,,,,,,AMSA02.jpg,AMSA08.jpg,AMNE05.jpg,AMNE12.jpg,AMSA08.jpg,MS,2,num_6,32,num_8,0.966595280683,,,2017_Sep_12_1443,59.9911297097,FEMA4ImagesEEG,001,101556,
AFNE01.JPG,AFNE01.JPG,AFNE01.JPG,AFNE01.JPG,AFNE01.JPG,AFNE01.JPG,,,,,2,9,29,1,,,,,,,,,,,,,,,,,,,AMSA13.jpg,AMNE09.jpg,AMSA03.jpg,AMNE04.jpg,AMNE04.jpg,MN,1,num_4,32,num_8,0.666838048724,,,2017_Sep_12_1443,59.9911297097,FEMA4ImagesEEG,001,101556,
AFNE01.JPG,AFNE01.JPG,AFNE01.JPG,AFNE01.JPG,AFNE01.JPG,AFNE01.JPG,,,,,3,0,30,5,,,,,,,,,,,,,,,,,,,AMSA01.jpg,AMNE10.jpg,AMNE06.jpg,AMSA02.jpg,AMSA02.jpg,MS,2,num_4,16,num_4,0.883419136517,,,2017_Sep_12_1443,59.9911297097,FEMA4ImagesEEG,001,101556,
AFNE01.JPG,AFNE01.JPG,AFNE01.JPG,AFNE01.JPG,AFNE01.JPG,AFNE01.JPG,,,,,3,1,31,9,,,,,,,,,,,,,,,,,,,AMSA19.jpg,AMNE20.jpg,AMNE04.jpg,AMSA12.jpg,AMSA19.jpg,MS,2,num_8,32,num_4,1.10000182828,,,2017_Sep_12_1443,59.9911297097,FEMA4ImagesEEG,001,101556,
AFNE01.JPG,AFNE01.JPG,AFNE01.JPG,AFNE01.JPG,AFNE01.JPG,AFNE01.JPG,,,,,3,2,32,1,,,,,,,,,,,,,,,,,,,AMSA18.jpg,AMNE17.jpg,AMSA12.jpg,AMNE07.jpg,AMNE17.jpg,MN,1,num_6,16,num_6,0.600120341638,,,2017_Sep_12_1443,59.9911297097,FEMA4ImagesEEG,001,101556,
AFNE01.JPG,AFNE01.JPG,AFNE01.JPG,AFNE01.JPG,AFNE01.JPG,AFNE01.JPG,,,,,3,3,33,2,,,,,,,,,,,,,,,,,,,AMSA11.jpg,AMNE20.jpg,AMNE18.jpg,AMSA08.jpg,AMNE18.jpg,MN,1,num_2,16,num_2,0.833434740547,,,2017_Sep_12_1443,59.9911297097,FEMA4ImagesEEG,001,101556,
AFNE01.JPG,AFNE01.JPG,AFNE01.JPG,AFNE01.JPG,AFNE01.JPG,AFNE01.JPG,,,,,3,4,34,4,,,,,,,,,,,,,,,,,,,AMNE02.jpg,AMNE11.jpg,AMSA16.jpg,AMSA04.jpg,AMSA04.jpg,MS,2,num_4,16,num_4,0.666744392598,,,2017_Sep_12_1443,59.9911297097,FEMA4ImagesEEG,001,101556,
AFNE01.JPG,AFNE01.JPG,AFNE01.JPG,AFNE01.JPG,AFNE01.JPG,AFNE01.JPG,,,,,3,5,35,7,,,,,,,,,,,,,,,,,,,AMSA10.jpg,AMNE03.jpg,AMSA12.jpg,AMNE14.jpg,AMNE14.jpg,MN,1,num_4,16,num_4,0.816843517357,,,2017_Sep_12_1443,59.9911297097,FEMA4ImagesEEG,001,101556,
AFNE01.JPG,AFNE01.JPG,AFNE01.JPG,AFNE01.JPG,AFNE01.JPG,AFNE01.JPG,,,,,3,6,36,8,,,,,,,,,,,,,,,,,,,AMSA10.jpg,AMNE20.jpg,AMSA16.jpg,AMNE13.jpg,AMSA16.jpg,MS,2,num_2,16,num_2,1.00010327809,,,2017_Sep_12_1443,59.9911297097,FEMA4ImagesEEG,001,101556,
AFNE01.JPG,AFNE01.JPG,AFNE01.JPG,AFNE01.JPG,AFNE01.JPG,AFNE01.JPG,,,,,3,7,37,3,,,,,,,,,,,,,,,,,,,AMSA05.jpg,AMNE09.jpg,AMNE07.jpg,AMSA06.jpg,AMSA05.jpg,MS,2,num_8,32,num_6,1.33343554242,,,2017_Sep_12_1443,59.9911297097,FEMA4ImagesEEG,001,101556,
AFNE01.JPG,AFNE01.JPG,AFNE01.JPG,AFNE01.JPG,AFNE01.JPG,AFNE01.JPG,,,,,3,8,38,6,,,,,,,,,,,,,,,,,,,AMSA04.jpg,AMNE17.jpg,AMNE01.jpg,AMSA14.jpg,AMSA14.jpg,MS,2,num_4,32,num_8,0.800174033269,,,2017_Sep_12_1443,59.9911297097,FEMA4ImagesEEG,001,101556,
AFNE01.JPG,AFNE01.JPG,AFNE01.JPG,AFNE01.JPG,AFNE01.JPG,AFNE01.JPG,,,,,3,9,39,0,,,,,,,,,,,,,,,,,,,AMNE16.jpg,AMNE12.jpg,AMSA20.jpg,AMSA16.jpg,AMSA20.jpg,MS,2,num_2,32,num_4,0.533468706999,,,2017_Sep_12_1443,59.9911297097,FEMA4ImagesEEG,001,101556,
AFNE01.JPG,AFNE01.JPG,AFNE01.JPG,AFNE01.JPG,AFNE01.JPG,AFNE01.JPG,,,,,4,0,40,4,,,,,,,,,,,,,,,,,,,AMSA04.jpg,AMNE04.jpg,AMSA13.jpg,AMNE17.jpg,AMNE04.jpg,MN,1,num_6,16,num_6,0.733473004773,,,2017_Sep_12_1443,59.9911297097,FEMA4ImagesEEG,001,101556,
AFNE01.JPG,AFNE01.JPG,AFNE01.JPG,AFNE01.JPG,AFNE01.JPG,AFNE01.JPG,,,,,4,1,41,9,,,,,,,,,,,,,,,,,,,AMNE11.jpg,AMSA16.jpg,AMNE18.jpg,AMSA03.jpg,AMSA16.jpg,MS,2,num_6,16,num_6,1.66669948888,,,2017_Sep_12_1443,59.9911297097,FEMA4ImagesEEG,001,101556,
AFNE01.JPG,AFNE01.JPG,AFNE01.JPG,AFNE01.JPG,AFNE01.JPG,AFNE01.JPG,,,,,4,2,42,3,,,,,,,,,,,,,,,,,,,AMSA09.jpg,AMSA12.jpg,AMNE05.jpg,AMNE12.jpg,AMNE05.jpg,MN,1,num_2,16,num_2,0.550181490602,,,2017_Sep_12_1443,59.9911297097,FEMA4ImagesEEG,001,101556,
AFNE01.JPG,AFNE01.JPG,AFNE01.JPG,AFNE01.JPG,AFNE01.JPG,AFNE01.JPG,,,,,4,3,43,5,,,,,,,,,,,,,,,,,,,AMNE10.jpg,AMSA14.jpg,AMNE04.jpg,AMSA12.jpg,AMSA12.jpg,MS,2,num_4,16,num_4,0.699856918072,,,2017_Sep_12_1443,59.9911297097,FEMA4ImagesEEG,001,101556,
AFNE01.JPG,AFNE01.JPG,AFNE01.JPG,AFNE01.JPG,AFNE01.JPG,AFNE01.JPG,,,,,4,4,44,0,,,,,,,,,,,,,,,,,,,AMNE05.jpg,AMSA20.jpg,AMNE12.jpg,AMSA16.jpg,AMSA16.jpg,MS,2,num_4,16,num_4,0.966791573213,,,2017_Sep_12_1443,59.9911297097,FEMA4ImagesEEG,001,101556,
AFNE01.JPG,AFNE01.JPG,AFNE01.JPG,AFNE01.JPG,AFNE01.JPG,AFNE01.JPG,,,,,4,5,45,8,,,,,,,,,,,,,,,,,,,AMSA11.jpg,AMNE02.jpg,AMNE16.jpg,AMSA06.jpg,AMSA06.jpg,MS,2,num_4,16,num_4,1.00010712701,,,2017_Sep_12_1443,59.9911297097,FEMA4ImagesEEG,001,101556,
AFNE01.JPG,AFNE01.JPG,AFNE01.JPG,AFNE01.JPG,AFNE01.JPG,AFNE01.JPG,,,,,4,6,46,6,,,,,,,,,,,,,,,,,,,AMSA11.jpg,AMNE03.jpg,AMNE18.jpg,AMSA20.jpg,AMNE18.jpg,MN,1,num_2,32,num_8,0.550099060405,,,2017_Sep_12_1443,59.9911297097,FEMA4ImagesEEG,001,101556,
AFNE01.JPG,AFNE01.JPG,AFNE01.JPG,AFNE01.JPG,AFNE01.JPG,AFNE01.JPG,,,,,4,7,47,1,,,,,,,,,,,,,,,,,,,AMSA09.jpg,AMNE11.jpg,AMNE13.jpg,AMSA18.jpg,AMNE11.jpg,MN,1,num_6,16,num_6,0.683604716556,,,2017_Sep_12_1443,59.9911297097,FEMA4ImagesEEG,001,101556,
AFNE01.JPG,AFNE01.JPG,AFNE01.JPG,AFNE01.JPG,AFNE01.JPG,AFNE01.JPG,,,,,4,8,48,7,,,,,,,,,,,,,,,,,,,AMSA03.jpg,AMNE18.jpg,AMSA10.jpg,AMNE12.jpg,AMNE12.jpg,MN,1,num_4,16,num_4,0.583438669564,,,2017_Sep_12_1443,59.9911297097,FEMA4ImagesEEG,001,101556,
AFNE01.JPG,AFNE01.JPG,AFNE01.JPG,AFNE01.JPG,AFNE01.JPG,AFNE01.JPG,,,,,4,9,49,2,,,,,,,,,,,,,,,,,,,AMNE13.jpg,AMNE04.jpg,AMSA08.jpg,AMSA09.jpg,AMSA09.jpg,MS,2,num_4,32,num_8,0.866773387417,,,2017_Sep_12_1443,59.9911297097,FEMA4ImagesEEG,001,101556,
AFNE01.JPG,AFNE01.JPG,AFNE01.JPG,AFNE01.JPG,AFNE01.JPG,AFNE01.JPG,,,,,5,0,50,4,,,,,,,,,,,,,,,,,,,AMNE10.jpg,AMNE11.jpg,AMSA12.jpg,AMSA18.jpg,AMNE11.jpg,MN,1,num_6,16,num_6,0.850087225204,,,2017_Sep_12_1443,59.9911297097,FEMA4ImagesEEG,001,101556,
AFNE01.JPG,AFNE01.JPG,AFNE01.JPG,AFNE01.JPG,AFNE01.JPG,AFNE01.JPG,,,,,5,1,51,8,,,,,,,,,,,,,,,,,,,AMSA06.jpg,AMNE11.jpg,AMSA03.jpg,AMNE02.jpg,AMNE11.jpg,MN,1,num_6,16,num_6,0.983422889374,,,2017_Sep_12_1443,59.9911297097,FEMA4ImagesEEG,001,101556,
AFNE01.JPG,AFNE01.JPG,AFNE01.JPG,AFNE01.JPG,AFNE01.JPG,AFNE01.JPG,,,,,5,2,52,2,,,,,,,,,,,,,,,,,,,AMSA07.jpg,AMNE10.jpg,AMSA02.jpg,AMNE16.jpg,AMSA07.jpg,MS,2,num_8,16,num_8,0.783458042191,,,2017_Sep_12_1443,59.9911297097,FEMA4ImagesEEG,001,101556,
AFNE01.JPG,AFNE01.JPG,AFNE01.JPG,AFNE01.JPG,AFNE01.JPG,AFNE01.JPG,,,,,5,3,53,9,,,,,,,,,,,,,,,,,,,AMSA09.jpg,AMNE03.jpg,AMNE17.jpg,AMSA12.jpg,AMSA09.jpg,MS,2,num_8,32,num_4,0.750140564051,,,2017_Sep_12_1443,59.9911297097,FEMA4ImagesEEG,001,101556,
AFNE01.JPG,AFNE01.JPG,AFNE01.JPG,AFNE01.JPG,AFNE01.JPG,AFNE01.JPG,,,,,5,4,54,7,,,,,,,,,,,,,,,,,,,AMSA01.jpg,AMNE02.jpg,AMNE08.jpg,AMSA08.jpg,AMNE02.jpg,MN,1,num_6,16,num_6,0.650138094556,,,2017_Sep_12_1443,59.9911297097,FEMA4ImagesEEG,001,101556,
AFNE01.JPG,AFNE01.JPG,AFNE01.JPG,AFNE01.JPG,AFNE01.JPG,AFNE01.JPG,,,,,5,5,55,3,,,,,,,,,,,,,,,,,,,AMNE02.jpg,AMSA05.jpg,AMSA08.jpg,AMNE03.jpg,AMNE02.jpg,MN,1,num_8,16,num_8,0.550109324278,,,2017_Sep_12_1443,59.9911297097,FEMA4ImagesEEG,001,101556,
AFNE01.JPG,AFNE01.JPG,AFNE01.JPG,AFNE01.JPG,AFNE01.JPG,AFNE01.JPG,,,,,5,6,56,5,,,,,,,,,,,,,,,,,,,AMSA02.jpg,AMSA07.jpg,AMNE18.jpg,AMNE11.jpg,AMSA02.jpg,MS,2,num_8,16,num_8,0.91675008554,,,2017_Sep_12_1443,59.9911297097,FEMA4ImagesEEG,001,101556,
AFNE01.JPG,AFNE01.JPG,AFNE01.JPG,AFNE01.JPG,AFNE01.JPG,AFNE01.JPG,,,,,5,7,57,6,,,,,,,,,,,,,,,,,,,AMSA18.jpg,AMNE07.jpg,AMSA02.jpg,AMNE09.jpg,AMSA18.jpg,MS,2,num_8,32,num_4,0.91680974327,,,2017_Sep_12_1443,59.9911297097,FEMA4ImagesEEG,001,101556,
AFNE01.JPG,AFNE01.JPG,AFNE01.JPG,AFNE01.JPG,AFNE01.JPG,AFNE01.JPG,,,,,5,8,58,1,,,,,,,,,,,,,,,,,,,AMNE08.jpg,AMSA01.jpg,AMNE19.jpg,AMSA13.jpg,AMSA13.jpg,MS,2,num_4,32,num_6,0.633436857257,,,2017_Sep_12_1443,59.9911297097,FEMA4ImagesEEG,001,101556,
AFNE01.JPG,AFNE01.JPG,AFNE01.JPG,AFNE01.JPG,AFNE01.JPG,AFNE01.JPG,,,,,5,9,59,0,,,,,,,,,,,,,,,,,,,AMNE04.jpg,AMSA01.jpg,AMNE14.jpg,AMSA09.jpg,AMNE14.jpg,MN,1,num_2,32,num_8,0.633480798686,,,2017_Sep_12_1443,59.9911297097,FEMA4ImagesEEG,001,101556,
,,,,,,,,,,,,,,,,,,,,,,,,,,,,,,,,,,,,,,,,,,,space,5.91635268927,2017_Sep_12_1443,59.9911297097,FEMA4ImagesEEG,001,101556,
AFNE01.JPG,AFNE01.JPG,AFNE01.JPG,AFNE01.JPG,AFNE01.JPG,AFNE01.JPG,,,,,,,,,0,0,0,1,,,,,,,,,,,,,,,AFNE07.jpg,AFSA12.jpg,AFSA02.jpg,AFNE19.jpg,AFSA12.jpg,FS,4,num_6,16,num_6,0.583480365807,,,2017_Sep_12_1443,59.9911297097,FEMA4ImagesEEG,001,101556,
AFNE01.JPG,AFNE01.JPG,AFNE01.JPG,AFNE01.JPG,AFNE01.JPG,AFNE01.JPG,,,,,,,,,0,1,1,8,,,,,,,,,,,,,,,AFNE03.jpg,AFNE12.jpg,AFSA14.jpg,AFSA15.jpg,AFNE12.jpg,FN,3,num_6,32,num_8,0.65019903495,,,2017_Sep_12_1443,59.9911297097,FEMA4ImagesEEG,001,101556,
AFNE01.JPG,AFNE01.JPG,AFNE01.JPG,AFNE01.JPG,AFNE01.JPG,AFNE01.JPG,,,,,,,,,0,2,2,4,,,,,,,,,,,,,,,AFSA12.jpg,AFNE13.jpg,AFSA05.jpg,AFNE05.jpg,AFSA12.jpg,FS,4,num_8,32,num_4,3.0666484274,,,2017_Sep_12_1443,59.9911297097,FEMA4ImagesEEG,001,101556,
AFNE01.JPG,AFNE01.JPG,AFNE01.JPG,AFNE01.JPG,AFNE01.JPG,AFNE01.JPG,,,,,,,,,0,3,3,9,,,,,,,,,,,,,,,AFSA17.jpg,AFNE16.jpg,AFSA18.jpg,AFNE10.jpg,AFSA17.jpg,FS,4,num_8,16,num_8,1.03343486879,,,2017_Sep_12_1443,59.9911297097,FEMA4ImagesEEG,001,101556,
AFNE01.JPG,AFNE01.JPG,AFNE01.JPG,AFNE01.JPG,AFNE01.JPG,AFNE01.JPG,,,,,,,,,0,4,4,6,,,,,,,,,,,,,,,AFSA02.jpg,AFSA01.jpg,AFNE19.jpg,AFNE11.jpg,AFSA01.jpg,FS,4,num_6,32,num_4,0.900125184562,,,2017_Sep_12_1443,59.9911297097,FEMA4ImagesEEG,001,101556,
AFNE01.JPG,AFNE01.JPG,AFNE01.JPG,AFNE01.JPG,AFNE01.JPG,AFNE01.JPG,,,,,,,,,0,5,5,3,,,,,,,,,,,,,,,AFNE09.jpg,AFNE16.jpg,AFSA18.jpg,AFSA13.jpg,AFNE16.jpg,FN,3,num_6,16,num_6,0.566806391347,,,2017_Sep_12_1443,59.9911297097,FEMA4ImagesEEG,001,101556,
AFNE01.JPG,AFNE01.JPG,AFNE01.JPG,AFNE01.JPG,AFNE01.JPG,AFNE01.JPG,,,,,,,,,0,6,6,0,,,,,,,,,,,,,,,AFNE06.jpg,AFNE19.jpg,AFSA13.jpg,AFSA07.jpg,AFNE06.jpg,FN,3,num_8,32,num_2,0.800188787514,,,2017_Sep_12_1443,59.9911297097,FEMA4ImagesEEG,001,101556,
AFNE01.JPG,AFNE01.JPG,AFNE01.JPG,AFNE01.JPG,AFNE01.JPG,AFNE01.JPG,,,,,,,,,0,7,7,7,,,,,,,,,,,,,,,AFSA04.jpg,AFSA15.jpg,AFNE04.jpg,AFNE19.jpg,AFNE19.jpg,FN,3,num_4,16,num_4,0.883416570723,,,2017_Sep_12_1443,59.9911297097,FEMA4ImagesEEG,001,101556,
AFNE01.JPG,AFNE01.JPG,AFNE01.JPG,AFNE01.JPG,AFNE01.JPG,AFNE01.JPG,,,,,,,,,0,8,8,5,,,,,,,,,,,,,,,AFNE15.jpg,AFSA19.jpg,AFNE14.jpg,AFSA08.jpg,AFSA19.jpg,FS,4,num_6,32,num_4,0.666777108097,,,2017_Sep_12_1443,59.9911297097,FEMA4ImagesEEG,001,101556,
AFNE01.JPG,AFNE01.JPG,AFNE01.JPG,AFNE01.JPG,AFNE01.JPG,AFNE01.JPG,,,,,,,,,0,9,9,2,,,,,,,,,,,,,,,AFNE08.jpg,AFNE06.jpg,AFSA18.jpg,AFSA02.jpg,AFSA18.jpg,FS,4,num_2,32,num_8,2.30001991801,,,2017_Sep_12_1443,59.9911297097,FEMA4ImagesEEG,001,101556,
AFNE01.JPG,AFNE01.JPG,AFNE01.JPG,AFNE01.JPG,AFNE01.JPG,AFNE01.JPG,,,,,,,,,1,0,10,2,,,,,,,,,,,,,,,AFNE18.jpg,AFSA08.jpg,AFNE04.jpg,AFSA10.jpg,AFNE18.jpg,FN,3,num_8,32,num_4,0.883456021547,,,2017_Sep_12_1443,59.9911297097,FEMA4ImagesEEG,001,101556,
AFNE01.JPG,AFNE01.JPG,AFNE01.JPG,AFNE01.JPG,AFNE01.JPG,AFNE01.JPG,,,,,,,,,1,1,11,4,,,,,,,,,,,,,,,AFSA05.jpg,AFSA16.jpg,AFNE06.jpg,AFNE20.jpg,AFSA16.jpg,FS,4,num_6,16,num_6,0.500088043045,,,2017_Sep_12_1443,59.9911297097,FEMA4ImagesEEG,001,101556,
AFNE01.JPG,AFNE01.JPG,AFNE01.JPG,AFNE01.JPG,AFNE01.JPG,AFNE01.JPG,,,,,,,,,1,2,12,3,,,,,,,,,,,,,,,AFNE02.jpg,AFSA17.jpg,AFSA08.jpg,AFNE10.jpg,AFSA08.jpg,FS,4,num_2,32,num_8,0.600180319976,,,2017_Sep_12_1443,59.9911297097,FEMA4ImagesEEG,001,101556,
AFNE01.JPG,AFNE01.JPG,AFNE01.JPG,AFNE01.JPG,AFNE01.JPG,AFNE01.JPG,,,,,,,,,1,3,13,8,,,,,,,,,,,,,,,AFNE08.jpg,AFSA14.jpg,AFNE15.jpg,AFSA12.jpg,AFSA14.jpg,FS,4,num_6,32,num_4,0.566807353869,,,2017_Sep_12_1443,59.9911297097,FEMA4ImagesEEG,001,101556,
AFNE01.JPG,AFNE01.JPG,AFNE01.JPG,AFNE01.JPG,AFNE01.JPG,AFNE01.JPG,,,,,,,,,1,4,14,5,,,,,,,,,,,,,,,AFNE05.jpg,AFSA16.jpg,AFSA07.jpg,AFNE20.jpg,AFNE05.jpg,FN,3,num_8,32,num_2,0.850129883736,,,2017_Sep_12_1443,59.9911297097,FEMA4ImagesEEG,001,101556,
AFNE01.JPG,AFNE01.JPG,AFNE01.JPG,AFNE01.JPG,AFNE01.JPG,AFNE01.JPG,,,,,,,,,1,5,15,9,,,,,,,,,,,,,,,AFSA16.jpg,AFNE01.jpg,AFSA15.jpg,AFNE18.jpg,AFNE18.jpg,FN,3,num_4,32,num_6,0.816751785809,,,2017_Sep_12_1443,59.9911297097,FEMA4ImagesEEG,001,101556,
AFNE01.JPG,AFNE01.JPG,AFNE01.JPG,AFNE01.JPG,AFNE01.JPG,AFNE01.JPG,,,,,,,,,1,6,16,0,,,,,,,,,,,,,,,AFSA02.jpg,AFNE11.jpg,AFSA10.jpg,AFNE07.jpg,AFSA10.jpg,FS,4,num_2,32,num_6,0.616652869387,,,2017_Sep_12_1443,59.9911297097,FEMA4ImagesEEG,001,101556,
AFNE01.JPG,AFNE01.JPG,AFNE01.JPG,AFNE01.JPG,AFNE01.JPG,AFNE01.JPG,,,,,,,,,1,7,17,7,,,,,,,,,,,,,,,AFSA03.jpg,AFSA09.jpg,AFNE13.jpg,AFNE08.jpg,AFSA09.jpg,FS,4,num_6,16,num_6,0.650155093754,,,2017_Sep_12_1443,59.9911297097,FEMA4ImagesEEG,001,101556,
AFNE01.JPG,AFNE01.JPG,AFNE01.JPG,AFNE01.JPG,AFNE01.JPG,AFNE01.JPG,,,,,,,,,1,8,18,6,,,,,,,,,,,,,,,AFNE07.jpg,AFNE19.jpg,AFSA08.jpg,AFSA06.jpg,AFNE07.jpg,FN,3,num_8,16,num_8,0.616863595555,,,2017_Sep_12_1443,59.9911297097,FEMA4ImagesEEG,001,101556,
AFNE01.JPG,AFNE01.JPG,AFNE01.JPG,AFNE01.JPG,AFNE01.JPG,AFNE01.JPG,,,,,,,,,1,9,19,1,,,,,,,,,,,,,,,AFNE04.jpg,AFSA02.jpg,AFNE17.jpg,AFSA18.jpg,AFSA02.jpg,FS,4,num_6,16,num_6,0.800139393425,,,2017_Sep_12_1443,59.9911297097,FEMA4ImagesEEG,001,101556,
AFNE01.JPG,AFNE01.JPG,AFNE01.JPG,AFNE01.JPG,AFNE01.JPG,AFNE01.JPG,,,,,,,,,2,0,20,8,,,,,,,,,,,,,,,AFSA20.jpg,AFSA01.jpg,AFNE19.jpg,AFNE14.jpg,AFNE19.jpg,FN,3,num_2,16,num_2,1.2001149531,,,2017_Sep_12_1443,59.9911297097,FEMA4ImagesEEG,001,101556,
AFNE01.JPG,AFNE01.JPG,AFNE01.JPG,AFNE01.JPG,AFNE01.JPG,AFNE01.JPG,,,,,,,,,2,1,21,9,,,,,,,,,,,,,,,AFNE06.jpg,AFNE11.jpg,AFSA03.jpg,AFSA01.jpg,AFNE06.jpg,FN,3,num_8,16,num_8,0.916745916009,,,2017_Sep_12_1443,59.9911297097,FEMA4ImagesEEG,001,101556,
AFNE01.JPG,AFNE01.JPG,AFNE01.JPG,AFNE01.JPG,AFNE01.JPG,AFNE01.JPG,,,,,,,,,2,2,22,7,,,,,,,,,,,,,,,AFSA13.jpg,AFNE03.jpg,AFSA16.jpg,AFNE19.jpg,AFNE19.jpg,FN,3,num_4,32,num_8,0.833477719687,,,2017_Sep_12_1443,59.9911297097,FEMA4ImagesEEG,001,101556,
AFNE01.JPG,AFNE01.JPG,AFNE01.JPG,AFNE01.JPG,AFNE01.JPG,AFNE01.JPG,,,,,,,,,2,3,23,4,,,,,,,,,,,,,,,AFSA15.jpg,AFNE03.jpg,AFNE17.jpg,AFSA10.jpg,AFSA15.jpg,FS,4,num_8,32,num_4,1.28339629993,,,2017_Sep_12_1443,59.9911297097,FEMA4ImagesEEG,001,101556,
AFNE01.JPG,AFNE01.JPG,AFNE01.JPG,AFNE01.JPG,AFNE01.JPG,AFNE01.JPG,,,,,,,,,2,4,24,6,,,,,,,,,,,,,,,AFNE20.jpg,AFSA05.jpg,AFNE07.jpg,AFSA19.jpg,AFNE07.jpg,FN,3,num_2,16,num_2,0.550177641679,,,2017_Sep_12_1443,59.9911297097,FEMA4ImagesEEG,001,101556,
AFNE01.JPG,AFNE01.JPG,AFNE01.JPG,AFNE01.JPG,AFNE01.JPG,AFNE01.JPG,,,,,,,,,2,5,25,2,,,,,,,,,,,,,,,AFNE20.jpg,AFSA02.jpg,AFSA15.jpg,AFNE10.jpg,AFSA02.jpg,FS,4,num_6,32,num_4,1.03347848938,,,2017_Sep_12_1443,59.9911297097,FEMA4ImagesEEG,001,101556,
AFNE01.JPG,AFNE01.JPG,AFNE01.JPG,AFNE01.JPG,AFNE01.JPG,AFNE01.JPG,,,,,,,,,2,6,26,1,,,,,,,,,,,,,,,AFNE02.jpg,AFNE08.jpg,AFSA04.jpg,AFSA14.jpg,AFNE08.jpg,FN,3,num_6,32,num_8,0.850108714541,,,2017_Sep_12_1443,59.9911297097,FEMA4ImagesEEG,001,101556,
AFNE01.JPG,AFNE01.JPG,AFNE01.JPG,AFNE01.JPG,AFNE01.JPG,AFNE01.JPG,,,,,,,,,2,7,27,3,,,,,,,,,,,,,,,AFSA18.jpg,AFNE07.jpg,AFNE12.jpg,AFSA12.jpg,AFSA12.jpg,FS,4,num_4,32,num_8,0.766858800547,,,2017_Sep_12_1443,59.9911297097,FEMA4ImagesEEG,001,101556,
AFNE01.JPG,AFNE01.JPG,AFNE01.JPG,AFNE01.JPG,AFNE01.JPG,AFNE01.JPG,,,,,,,,,2,8,28,0,,,,,,,,,,,,,,,AFSA16.jpg,AFSA10.jpg,AFNE12.jpg,AFNE07.jpg,AFSA16.jpg,FS,4,num_8,16,num_8,0.650179469725,,,2017_Sep_12_1443,59.9911297097,FEMA4ImagesEEG,001,101556,
AFNE01.JPG,AFNE01.JPG,AFNE01.JPG,AFNE01.JPG,AFNE01.JPG,AFNE01.JPG,,,,,,,,,2,9,29,5,,,,,,,,,,,,,,,AFNE15.jpg,AFNE01.jpg,AFSA14.jpg,AFSA12.jpg,AFNE01.jpg,FN,3,num_6,32,num_2,1.00018731202,,,2017_Sep_12_1443,59.9911297097,FEMA4ImagesEEG,001,101556,
AFNE01.JPG,AFNE01.JPG,AFNE01.JPG,AFNE01.JPG,AFNE01.JPG,AFNE01.JPG,,,,,,,,,3,0,30,9,,,,,,,,,,,,,,,AFSA09.jpg,AFSA02.jpg,AFNE20.jpg,AFNE15.jpg,AFNE15.jpg,FN,3,num_4,32,num_8,1.21681169979,,,2017_Sep_12_1443,59.9911297097,FEMA4ImagesEEG,001,101556,
AFNE01.JPG,AFNE01.JPG,AFNE01.JPG,AFNE01.JPG,AFNE01.JPG,AFNE01.JPG,,,,,,,,,3,1,31,8,,,,,,,,,,,,,,,AFNE11.jpg,AFSA07.jpg,AFNE14.jpg,AFSA19.jpg,AFNE11.jpg,FN,3,num_8,16,num_8,0.83344853227,,,2017_Sep_12_1443,59.9911297097,FEMA4ImagesEEG,001,101556,
AFNE01.JPG,AFNE01.JPG,AFNE01.JPG,AFNE01.JPG,AFNE01.JPG,AFNE01.JPG,,,,,,,,,3,2,32,6,,,,,,,,,,,,,,,AFSA03.jpg,AFSA08.jpg,AFNE06.jpg,AFNE01.jpg,AFSA08.jpg,FS,4,num_6,16,num_6,0.666741185123,,,2017_Sep_12_1443,59.9911297097,FEMA4ImagesEEG,001,101556,
AFNE01.JPG,AFNE01.JPG,AFNE01.JPG,AFNE01.JPG,AFNE01.JPG,AFNE01.JPG,,,,,,,,,3,3,33,7,,,,,,,,,,,,,,,AFNE20.jpg,AFSA20.jpg,AFSA09.jpg,AFNE03.jpg,AFNE03.jpg,FN,3,num_4,32,num_8,0.866804499179,,,2017_Sep_12_1443,59.9911297097,FEMA4ImagesEEG,001,101556,
AFNE01.JPG,AFNE01.JPG,AFNE01.JPG,AFNE01.JPG,AFNE01.JPG,AFNE01.JPG,,,,,,,,,3,4,34,2,,,,,,,,,,,,,,,AFSA12.jpg,AFSA08.jpg,AFNE13.jpg,AFNE12.jpg,AFNE12.jpg,FN,3,num_4,32,num_8,0.816761086928,,,2017_Sep_12_1443,59.9911297097,FEMA4ImagesEEG,001,101556,
AFNE01.JPG,AFNE01.JPG,AFNE01.JPG,AFNE01.JPG,AFNE01.JPG,AFNE01.JPG,,,,,,,,,3,5,35,3,,,,,,,,,,,,,,,AFSA14.jpg,AFSA05.jpg,AFNE15.jpg,AFNE18.jpg,AFNE18.jpg,FN,3,num_4,32,num_2,0.700112226652,,,2017_Sep_12_1443,59.9911297097,FEMA4ImagesEEG,001,101556,
AFNE01.JPG,AFNE01.JPG,AFNE01.JPG,AFNE01.JPG,AFNE01.JPG,AFNE01.JPG,,,,,,,,,3,6,36,5,,,,,,,,,,,,,,,AFSA19.jpg,AFSA16.jpg,AFNE05.jpg,AFNE09.jpg,AFSA19.jpg,FS,4,num_8,32,num_2,0.716790050035,,,2017_Sep_12_1443,59.9911297097,FEMA4ImagesEEG,001,101556,
AFNE01.JPG,AFNE01.JPG,AFNE01.JPG,AFNE01.JPG,AFNE01.JPG,AFNE01.JPG,,,,,,,,,3,7,37,4,,,,,,,,,,,,,,,AFSA02.jpg,AFSA10.jpg,AFNE11.jpg,AFNE13.jpg,AFNE11.jpg,FN,3,num_2,16,num_2,0.90017008828,,,2017_Sep_12_1443,59.9911297097,FEMA4ImagesEEG,001,101556,
AFNE01.JPG,AFNE01.JPG,AFNE01.JPG,AFNE01.JPG,AFNE01.JPG,AFNE01.JPG,,,,,,,,,3,8,38,0,,,,,,,,,,,,,,,AFSA02.jpg,AFNE09.jpg,AFNE05.jpg,AFSA12.jpg,AFSA12.jpg,FS,4,num_4,16,num_4,0.566637041047,,,2017_Sep_12_1443,59.9911297097,FEMA4ImagesEEG,001,101556,
AFNE01.JPG,AFNE01.JPG,AFNE01.JPG,AFNE01.JPG,AFNE01.JPG,AFNE01.JPG,,,,,,,,,3,9,39,1,,,,,,,,,,,,,,,AFNE17.jpg,AFSA06.jpg,AFSA01.jpg,AFNE15.jpg,AFSA06.jpg,FS,4,num_6,16,num_6,1.45008279895,,,2017_Sep_12_1443,59.9911297097,FEMA4ImagesEEG,001,101556,
AFNE01.JPG,AFNE01.JPG,AFNE01.JPG,AFNE01.JPG,AFNE01.JPG,AFNE01.JPG,,,,,,,,,4,0,40,6,,,,,,,,,,,,,,,AFSA05.jpg,AFSA16.jpg,AFNE17.jpg,AFNE19.jpg,AFSA05.jpg,FS,4,num_8,16,num_8,0.966852193233,,,2017_Sep_12_1443,59.9911297097,FEMA4ImagesEEG,001,101556,
AFNE01.JPG,AFNE01.JPG,AFNE01.JPG,AFNE01.JPG,AFNE01.JPG,AFNE01.JPG,,,,,,,,,4,1,41,5,,,,,,,,,,,,,,,AFSA08.jpg,AFSA11.jpg,AFNE15.jpg,AFNE11.jpg,AFNE11.jpg,FN,3,num_4,16,num_4,0.850262349006,,,2017_Sep_12_1443,59.9911297097,FEMA4ImagesEEG,001,101556,
AFNE01.JPG,AFNE01.JPG,AFNE01.JPG,AFNE01.JPG,AFNE01.JPG,AFNE01.JPG,,,,,,,,,4,2,42,2,,,,,,,,,,,,,,,AFNE07.jpg,AFSA06.jpg,AFNE12.jpg,AFSA05.jpg,AFSA05.jpg,FS,4,num_4,16,num_4,0.616753581678,,,2017_Sep_12_1443,59.9911297097,FEMA4ImagesEEG,001,101556,
AFNE01.JPG,AFNE01.JPG,AFNE01.JPG,AFNE01.JPG,AFNE01.JPG,AFNE01.JPG,,,,,,,,,4,3,43,3,,,,,,,,,,,,,,,AFSA14.jpg,AFSA20.jpg,AFNE17.jpg,AFNE08.jpg,AFSA20.jpg,FS,4,num_6,16,num_6,0.916721539805,,,2017_Sep_12_1443,59.9911297097,FEMA4ImagesEEG,001,101556,
AFNE01.JPG,AFNE01.JPG,AFNE01.JPG,AFNE01.JPG,AFNE01.JPG,AFNE01.JPG,,,,,,,,,4,4,44,9,,,,,,,,,,,,,,,AFSA14.jpg,AFNE06.jpg,AFSA06.jpg,AFNE17.jpg,AFNE06.jpg,FN,3,num_6,32,num_8,0.983486395795,,,2017_Sep_12_1443,59.9911297097,FEMA4ImagesEEG,001,101556,
AFNE01.JPG,AFNE01.JPG,AFNE01.JPG,AFNE01.JPG,AFNE01.JPG,AFNE01.JPG,,,,,,,,,4,5,45,8,,,,,,,,,,,,,,,AFSA07.jpg,AFSA19.jpg,AFNE08.jpg,AFNE13.jpg,AFNE08.jpg,FN,3,num_2,32,num_8,0.733494173735,,,2017_Sep_12_1443,59.9911297097,FEMA4ImagesEEG,001,101556,
AFNE01.JPG,AFNE01.JPG,AFNE01.JPG,AFNE01.JPG,AFNE01.JPG,AFNE01.JPG,,,,,,,,,4,6,46,7,,,,,,,,,,,,,,,AFSA15.jpg,AFNE15.jpg,AFSA08.jpg,AFNE14.jpg,AFSA15.jpg,FS,4,num_8,16,num_8,0.933417003602,,,2017_Sep_12_1443,59.9911297097,FEMA4ImagesEEG,001,101556,
AFNE01.JPG,AFNE01.JPG,AFNE01.JPG,AFNE01.JPG,AFNE01.JPG,AFNE01.JPG,,,,,,,,,4,7,47,1,,,,,,,,,,,,,,,AFNE05.jpg,AFNE07.jpg,AFSA09.jpg,AFSA11.jpg,AFNE05.jpg,FN,3,num_8,32,num_6,0.750111056026,,,2017_Sep_12_1443,59.9911297097,FEMA4ImagesEEG,001,101556,
AFNE01.JPG,AFNE01.JPG,AFNE01.JPG,AFNE01.JPG,AFNE01.JPG,AFNE01.JPG,,,,,,,,,4,8,48,4,,,,,,,,,,,,,,,AFSA06.jpg,AFNE18.jpg,AFSA19.jpg,AFNE20.jpg,AFSA06.jpg,FS,4,num_8,32,num_2,0.850125072524,,,2017_Sep_12_1443,59.9911297097,FEMA4ImagesEEG,001,101556,
AFNE01.JPG,AFNE01.JPG,AFNE01.JPG,AFNE01.JPG,AFNE01.JPG,AFNE01.JPG,,,,,,,,,4,9,49,0,,,,,,,,,,,,,,,AFNE10.jpg,AFNE17.jpg,AFSA02.jpg,AFSA20.jpg,AFSA02.jpg,FS,4,num_2,16,num_2,0.616749732988,,,2017_Sep_12_1443,59.9911297097,FEMA4ImagesEEG,001,101556,
AFNE01.JPG,AFNE01.JPG,AFNE01.JPG,AFNE01.JPG,AFNE01.JPG,AFNE01.JPG,,,,,,,,,5,0,50,4,,,,,,,,,,,,,,,AFNE04.jpg,AFSA20.jpg,AFNE09.jpg,AFSA04.jpg,AFNE09.jpg,FN,3,num_2,16,num_2,1.13321282063,,,2017_Sep_12_1443,59.9911297097,FEMA4ImagesEEG,001,101556,
AFNE01.JPG,AFNE01.JPG,AFNE01.JPG,AFNE01.JPG,AFNE01.JPG,AFNE01.JPG,,,,,,,,,5,1,51,1,,,,,,,,,,,,,,,AFNE19.jpg,AFNE20.jpg,AFSA04.jpg,AFSA15.jpg,AFSA15.jpg,FS,4,num_4,16,num_4,0.950102845207,,,2017_Sep_12_1443,59.9911297097,FEMA4ImagesEEG,001,101556,
AFNE01.JPG,AFNE01.JPG,AFNE01.JPG,AFNE01.JPG,AFNE01.JPG,AFNE01.JPG,,,,,,,,,5,2,52,8,,,,,,,,,,,,,,,AFNE14.jpg,AFSA11.jpg,AFSA07.jpg,AFNE19.jpg,AFSA07.jpg,FS,4,num_2,16,num_2,0.883411118062,,,2017_Sep_12_1443,59.9911297097,FEMA4ImagesEEG,001,101556,
AFNE01.JPG,AFNE01.JPG,AFNE01.JPG,AFNE01.JPG,AFNE01.JPG,AFNE01.JPG,,,,,,,,,5,3,53,2,,,,,,,,,,,,,,,AFNE10.jpg,AFNE12.jpg,AFSA02.jpg,AFSA06.jpg,AFNE12.jpg,FN,3,num_6,16,num_6,0.483518309193,,,2017_Sep_12_1443,59.9911297097,FEMA4ImagesEEG,001,101556,
AFNE01.JPG,AFNE01.JPG,AFNE01.JPG,AFNE01.JPG,AFNE01.JPG,AFNE01.JPG,,,,,,,,,5,4,54,0,,,,,,,,,,,,,,,AFNE04.jpg,AFNE06.jpg,AFSA08.jpg,AFSA01.jpg,AFNE06.jpg,FN,3,num_6,32,num_8,0.916879985249,,,2017_Sep_12_1443,59.9911297097,FEMA4ImagesEEG,001,101556,
AFNE01.JPG,AFNE01.JPG,AFNE01.JPG,AFNE01.JPG,AFNE01.JPG,AFNE01.JPG,,,,,,,,,5,5,55,5,,,,,,,,,,,,,,,AFNE10.jpg,AFSA14.jpg,AFSA05.jpg,AFNE17.jpg,AFNE10.jpg,FN,3,num_8,32,num_6,0.850098451134,,,2017_Sep_12_1443,59.9911297097,FEMA4ImagesEEG,001,101556,
AFNE01.JPG,AFNE01.JPG,AFNE01.JPG,AFNE01.JPG,AFNE01.JPG,AFNE01.JPG,,,,,,,,,5,6,56,9,,,,,,,,,,,,,,,AFSA08.jpg,AFNE18.jpg,AFNE02.jpg,AFSA06.jpg,AFSA08.jpg,FS,4,num_8,32,num_4,0.900098884013,,,2017_Sep_12_1443,59.9911297097,FEMA4ImagesEEG,001,101556,
AFNE01.JPG,AFNE01.JPG,AFNE01.JPG,AFNE01.JPG,AFNE01.JPG,AFNE01.JPG,,,,,,,,,5,7,57,7,,,,,,,,,,,,,,,AFNE15.jpg,AFNE19.jpg,AFSA13.jpg,AFSA02.jpg,AFNE19.jpg,FN,3,num_6,32,num_8,1.98333372362,,,2017_Sep_12_1443,59.9911297097,FEMA4ImagesEEG,001,101556,
AFNE01.JPG,AFNE01.JPG,AFNE01.JPG,AFNE01.JPG,AFNE01.JPG,AFNE01.JPG,,,,,,,,,5,8,58,3,,,,,,,,,,,,,,,AFNE18.jpg,AFSA15.jpg,AFNE11.jpg,AFSA07.jpg,AFNE18.jpg,FN,3,num_8,16,num_8,0.9502292166,,,2017_Sep_12_1443,59.9911297097,FEMA4ImagesEEG,001,101556,
AFNE01.JPG,AFNE01.JPG,AFNE01.JPG,AFNE01.JPG,AFNE01.JPG,AFNE01.JPG,,,,,,,,,5,9,59,6,,,,,,,,,,,,,,,AFNE03.jpg,AFSA19.jpg,AFSA04.jpg,AFNE16.jpg,AFNE03.jpg,FN,3,num_8,16,num_8,1.06665708707,,,2017_Sep_12_1443,59.9911297097,FEMA4ImagesEEG,001,101556,
,,,,,,,,,,,,,,,,,,,,,,,,,,,,,,,,,,,,,,,,,,,space,3.03324851906,2017_Sep_12_1443,59.9911297097,FEMA4ImagesEEG,001,101556,
AFNE01.JPG,AFNE01.JPG,AFNE01.JPG,AFNE01.JPG,AFNE01.JPG,AFNE01.JPG,,,,,,,,,,,,,0,0,0,6,,,,,,,,,,,AMSA04.jpg,AMSA07.jpg,AMNE20.jpg,AMNE12.jpg,AMSA07.jpg,MS,2,num_6,32,num_4,0.90011203452,,,2017_Sep_12_1443,59.9911297097,FEMA4ImagesEEG,001,101556,
AFNE01.JPG,AFNE01.JPG,AFNE01.JPG,AFNE01.JPG,AFNE01.JPG,AFNE01.JPG,,,,,,,,,,,,,0,1,1,7,,,,,,,,,,,AMNE02.jpg,AMNE05.jpg,AMSA17.jpg,AMSA12.jpg,AMNE02.jpg,MN,1,num_8,16,num_8,1.05018710368,,,2017_Sep_12_1443,59.9911297097,FEMA4ImagesEEG,001,101556,
AFNE01.JPG,AFNE01.JPG,AFNE01.JPG,AFNE01.JPG,AFNE01.JPG,AFNE01.JPG,,,,,,,,,,,,,0,2,2,3,,,,,,,,,,,AMNE20.jpg,AMNE09.jpg,AMSA10.jpg,AMSA02.jpg,AMNE20.jpg,MN,1,num_8,32,num_2,0.700143017806,,,2017_Sep_12_1443,59.9911297097,FEMA4ImagesEEG,001,101556,
AFNE01.JPG,AFNE01.JPG,AFNE01.JPG,AFNE01.JPG,AFNE01.JPG,AFNE01.JPG,,,,,,,,,,,,,0,3,3,0,,,,,,,,,,,AMSA18.jpg,AMNE04.jpg,AMSA02.jpg,AMNE12.jpg,AMSA02.jpg,MS,2,num_2,32,num_6,0.667065132409,,,2017_Sep_12_1443,59.9911297097,FEMA4ImagesEEG,001,101556,
AFNE01.JPG,AFNE01.JPG,AFNE01.JPG,AFNE01.JPG,AFNE01.JPG,AFNE01.JPG,,,,,,,,,,,,,0,4,4,8,,,,,,,,,,,AMSA15.jpg,AMNE20.jpg,AMSA13.jpg,AMNE16.jpg,AMNE20.jpg,MN,1,num_6,16,num_6,0.950187199749,,,2017_Sep_12_1443,59.9911297097,FEMA4ImagesEEG,001,101556,
AFNE01.JPG,AFNE01.JPG,AFNE01.JPG,AFNE01.JPG,AFNE01.JPG,AFNE01.JPG,,,,,,,,,,,,,0,5,5,5,,,,,,,,,,,AMNE05.jpg,AMNE18.jpg,AMSA12.jpg,AMSA19.jpg,AMSA12.jpg,MS,2,num_2,32,num_8,0.750151469139,,,2017_Sep_12_1443,59.9911297097,FEMA4ImagesEEG,001,101556,
AFNE01.JPG,AFNE01.JPG,AFNE01.JPG,AFNE01.JPG,AFNE01.JPG,AFNE01.JPG,,,,,,,,,,,,,0,6,6,9,,,,,,,,,,,AMSA10.jpg,AMNE02.jpg,AMNE07.jpg,AMSA01.jpg,AMNE07.jpg,MN,1,num_2,16,num_2,0.766897289082,,,2017_Sep_12_1443,59.9911297097,FEMA4ImagesEEG,001,101556,
AFNE01.JPG,AFNE01.JPG,AFNE01.JPG,AFNE01.JPG,AFNE01.JPG,AFNE01.JPG,,,,,,,,,,,,,0,7,7,4,,,,,,,,,,,AMSA14.jpg,AMSA01.jpg,AMNE08.jpg,AMNE12.jpg,AMNE08.jpg,MN,1,num_2,32,num_4,1.0001096928,,,2017_Sep_12_1443,59.9911297097,FEMA4ImagesEEG,001,101556,
AFNE01.JPG,AFNE01.JPG,AFNE01.JPG,AFNE01.JPG,AFNE01.JPG,AFNE01.JPG,,,,,,,,,,,,,0,8,8,1,,,,,,,,,,,AMNE16.jpg,AMSA09.jpg,AMSA03.jpg,AMNE10.jpg,AMSA09.jpg,MS,2,num_6,16,num_6,1.33340250631,,,2017_Sep_12_1443,59.9911297097,FEMA4ImagesEEG,001,101556,
AFNE01.JPG,AFNE01.JPG,AFNE01.JPG,AFNE01.JPG,AFNE01.JPG,AFNE01.JPG,,,,,,,,,,,,,0,9,9,2,,,,,,,,,,,AMSA05.jpg,AMNE16.jpg,AMSA14.jpg,AMNE13.jpg,AMNE16.jpg,MN,1,num_6,32,num_4,0.850090111839,,,2017_Sep_12_1443,59.9911297097,FEMA4ImagesEEG,001,101556,
AFNE01.JPG,AFNE01.JPG,AFNE01.JPG,AFNE01.JPG,AFNE01.JPG,AFNE01.JPG,,,,,,,,,,,,,1,0,10,2,,,,,,,,,,,AMNE19.jpg,AMSA05.jpg,AMNE08.jpg,AMSA15.jpg,AMSA05.jpg,MS,2,num_6,32,num_8,0.816763653187,,,2017_Sep_12_1443,59.9911297097,FEMA4ImagesEEG,001,101556,
AFNE01.JPG,AFNE01.JPG,AFNE01.JPG,AFNE01.JPG,AFNE01.JPG,AFNE01.JPG,,,,,,,,,,,,,1,1,11,1,,,,,,,,,,,AMNE20.jpg,AMSA10.jpg,AMSA11.jpg,AMNE19.jpg,AMNE19.jpg,MN,1,num_4,32,num_8,0.866625526454,,,2017_Sep_12_1443,59.9911297097,FEMA4ImagesEEG,001,101556,
AFNE01.JPG,AFNE01.JPG,AFNE01.JPG,AFNE01.JPG,AFNE01.JPG,AFNE01.JPG,,,,,,,,,,,,,1,2,12,4,,,,,,,,,,,AMNE13.jpg,AMSA02.jpg,AMSA04.jpg,AMNE02.jpg,AMSA04.jpg,MS,2,num_2,16,num_2,0.683313484769,,,2017_Sep_12_1443,59.9911297097,FEMA4ImagesEEG,001,101556,
AFNE01.JPG,AFNE01.JPG,AFNE01.JPG,AFNE01.JPG,AFNE01.JPG,AFNE01.JPG,,,,,,,,,,,,,1,3,13,3,,,,,,,,,,,AMSA16.jpg,AMSA05.jpg,AMNE09.jpg,AMNE18.jpg,AMSA05.jpg,MS,2,num_6,32,num_4,0.716798709705,,,2017_Sep_12_1443,59.9911297097,FEMA4ImagesEEG,001,101556,
AFNE01.JPG,AFNE01.JPG,AFNE01.JPG,AFNE01.JPG,AFNE01.JPG,AFNE01.JPG,,,,,,,,,,,,,1,4,14,0,,,,,,,,,,,AMSA09.jpg,AMNE04.jpg,AMNE11.jpg,AMSA03.jpg,AMNE04.jpg,MN,1,num_6,16,num_6,0.583476837724,,,2017_Sep_12_1443,59.9911297097,FEMA4ImagesEEG,001,101556,
AFNE01.JPG,AFNE01.JPG,AFNE01.JPG,AFNE01.JPG,AFNE01.JPG,AFNE01.JPG,,,,,,,,,,,,,1,5,15,6,,,,,,,,,,,AMNE05.jpg,AMNE01.jpg,AMSA16.jpg,AMSA09.jpg,AMSA16.jpg,MS,2,num_2,32,num_8,0.933727158932,,,2017_Sep_12_1443,59.9911297097,FEMA4ImagesEEG,001,101556,
AFNE01.JPG,AFNE01.JPG,AFNE01.JPG,AFNE01.JPG,AFNE01.JPG,AFNE01.JPG,,,,,,,,,,,,,1,6,16,7,,,,,,,,,,,AMSA12.jpg,AMNE15.jpg,AMSA17.jpg,AMNE16.jpg,AMNE16.jpg,MN,1,num_4,32,num_8,0.766765144421,,,2017_Sep_12_1443,59.9911297097,FEMA4ImagesEEG,001,101556,
AFNE01.JPG,AFNE01.JPG,AFNE01.JPG,AFNE01.JPG,AFNE01.JPG,AFNE01.JPG,,,,,,,,,,,,,1,7,17,5,,,,,,,,,,,AMNE02.jpg,AMSA01.jpg,AMSA05.jpg,AMNE17.jpg,AMNE02.jpg,MN,1,num_8,32,num_6,1.13337222836,,,2017_Sep_12_1443,59.9911297097,FEMA4ImagesEEG,001,101556,
AFNE01.JPG,AFNE01.JPG,AFNE01.JPG,AFNE01.JPG,AFNE01.JPG,AFNE01.JPG,,,,,,,,,,,,,1,8,18,8,,,,,,,,,,,AMSA09.jpg,AMSA03.jpg,AMNE03.jpg,AMNE04.jpg,AMSA03.jpg,MS,2,num_6,32,num_8,0.783425326692,,,2017_Sep_12_1443,59.9911297097,FEMA4ImagesEEG,001,101556,
AFNE01.JPG,AFNE01.JPG,AFNE01.JPG,AFNE01.JPG,AFNE01.JPG,AFNE01.JPG,,,,,,,,,,,,,1,9,19,9,,,,,,,,,,,AMSA05.jpg,AMNE20.jpg,AMSA09.jpg,AMNE07.jpg,AMNE07.jpg,MN,1,num_4,32,num_8,1.01675832877,,,2017_Sep_12_1443,59.9911297097,FEMA4ImagesEEG,001,101556,
AFNE01.JPG,AFNE01.JPG,AFNE01.JPG,AFNE01.JPG,AFNE01.JPG,AFNE01.JPG,,,,,,,,,,,,,2,0,20,3,,,,,,,,,,,AMNE14.jpg,AMSA20.jpg,AMNE11.jpg,AMSA16.jpg,AMSA16.jpg,MS,2,num_4,32,num_8,0.76675488078,,,2017_Sep_12_1443,59.9911297097,FEMA4ImagesEEG,001,101556,
AFNE01.JPG,AFNE01.JPG,AFNE01.JPG,AFNE01.JPG,AFNE01.JPG,AFNE01.JPG,,,,,,,,,,,,,2,1,21,1,,,,,,,,,,,AMSA09.jpg,AMSA14.jpg,AMNE16.jpg,AMNE04.jpg,AMNE16.jpg,MN,1,num_2,16,num_2,0.700107094832,,,2017_Sep_12_1443,59.9911297097,FEMA4ImagesEEG,001,101556,
AFNE01.JPG,AFNE01.JPG,AFNE01.JPG,AFNE01.JPG,AFNE01.JPG,AFNE01.JPG,,,,,,,,,,,,,2,2,22,5,,,,,,,,,,,AMNE09.jpg,AMNE14.jpg,AMSA08.jpg,AMSA16.jpg,AMSA08.jpg,MS,2,num_2,32,num_4,0.866774670547,,,2017_Sep_12_1443,59.9911297097,FEMA4ImagesEEG,001,101556,
AFNE01.JPG,AFNE01.JPG,AFNE01.JPG,AFNE01.JPG,AFNE01.JPG,AFNE01.JPG,,,,,,,,,,,,,2,3,23,7,,,,,,,,,,,AMNE02.jpg,AMSA12.jpg,AMNE14.jpg,AMSA13.jpg,AMSA13.jpg,MS,2,num_4,32,num_8,0.783512888709,,,2017_Sep_12_1443,59.9911297097,FEMA4ImagesEEG,001,101556,
AFNE01.JPG,AFNE01.JPG,AFNE01.JPG,AFNE01.JPG,AFNE01.JPG,AFNE01.JPG,,,,,,,,,,,,,2,4,24,6,,,,,,,,,,,AMNE08.jpg,AMSA11.jpg,AMNE15.jpg,AMSA14.jpg,AMSA11.jpg,MS,2,num_6,32,num_4,1.15008116327,,,2017_Sep_12_1443,59.9911297097,FEMA4ImagesEEG,001,101556,
AFNE01.JPG,AFNE01.JPG,AFNE01.JPG,AFNE01.JPG,AFNE01.JPG,AFNE01.JPG,,,,,,,,,,,,,2,5,25,9,,,,,,,,,,,AMNE16.jpg,AMSA02.jpg,AMNE02.jpg,AMSA07.jpg,AMNE16.jpg,MN,1,num_8,16,num_8,0.683496627258,,,2017_Sep_12_1443,59.9911297097,FEMA4ImagesEEG,001,101556,
AFNE01.JPG,AFNE01.JPG,AFNE01.JPG,AFNE01.JPG,AFNE01.JPG,AFNE01.JPG,,,,,,,,,,,,,2,6,26,2,,,,,,,,,,,AMNE14.jpg,AMSA07.jpg,AMSA06.jpg,AMNE03.jpg,AMNE03.jpg,MN,1,num_4,32,num_8,0.71678652172,,,2017_Sep_12_1443,59.9911297097,FEMA4ImagesEEG,001,101556,
AFNE01.JPG,AFNE01.JPG,AFNE01.JPG,AFNE01.JPG,AFNE01.JPG,AFNE01.JPG,,,,,,,,,,,,,2,7,27,0,,,,,,,,,,,AMNE15.jpg,AMSA12.jpg,AMSA15.jpg,AMNE10.jpg,AMNE15.jpg,MN,1,num_8,16,num_8,0.700181506574,,,2017_Sep_12_1443,59.9911297097,FEMA4ImagesEEG,001,101556,
AFNE01.JPG,AFNE01.JPG,AFNE01.JPG,AFNE01.JPG,AFNE01.JPG,AFNE01.JPG,,,,,,,,,,,,,2,8,28,8,,,,,,,,,,,AMSA17.jpg,AMNE09.jpg,AMSA07.jpg,AMNE12.jpg,AMNE12.jpg,MN,1,num_4,16,num_4,1.11675085546,,,2017_Sep_12_1443,59.9911297097,FEMA4ImagesEEG,001,101556,
AFNE01.JPG,AFNE01.JPG,AFNE01.JPG,AFNE01.JPG,AFNE01.JPG,AFNE01.JPG,,,,,,,,,,,,,2,9,29,4,,,,,,,,,,,AMSA17.jpg,AMNE18.jpg,AMNE02.jpg,AMSA15.jpg,AMSA15.jpg,MS,2,num_4,16,num_4,0.883481680648,,,2017_Sep_12_1443,59.9911297097,FEMA4ImagesEEG,001,101556,
AFNE01.JPG,AFNE01.JPG,AFNE01.JPG,AFNE01.JPG,AFNE01.JPG,AFNE01.JPG,,,,,,,,,,,,,3,0,30,9,,,,,,,,,,,AMNE16.jpg,AMSA13.jpg,AMNE13.jpg,AMSA20.jpg,AMSA13.jpg,MS,2,num_6,32,num_8,0.983128450112,,,2017_Sep_12_1443,59.9911297097,FEMA4ImagesEEG,001,101556,
AFNE01.JPG,AFNE01.JPG,AFNE01.JPG,AFNE01.JPG,AFNE01.JPG,AFNE01.JPG,,,,,,,,,,,,,3,1,31,1,,,,,,,,,,,AMSA19.jpg,AMNE12.jpg,AMSA12.jpg,AMNE19.jpg,AMSA19.jpg,MS,2,num_8,16,num_8,0.833497605519,,,2017_Sep_12_1443,59.9911297097,FEMA4ImagesEEG,001,101556,
AFNE01.JPG,AFNE01.JPG,AFNE01.JPG,AFNE01.JPG,AFNE01.JPG,AFNE01.JPG,,,,,,,,,,,,,3,2,32,8,,,,,,,,,,,AMNE06.jpg,AMSA03.jpg,AMNE13.jpg,AMSA02.jpg,AMSA03.jpg,MS,2,num_6,32,num_4,0.850087545812,,,2017_Sep_12_1443,59.9911297097,FEMA4ImagesEEG,001,101556,
AFNE01.JPG,AFNE01.JPG,AFNE01.JPG,AFNE01.JPG,AFNE01.JPG,AFNE01.JPG,,,,,,,,,,,,,3,3,33,6,,,,,,,,,,,AMSA16.jpg,AMNE09.jpg,AMNE06.jpg,AMSA14.jpg,AMNE09.jpg,MN,1,num_6,32,num_8,0.683443063637,,,2017_Sep_12_1443,59.9911297097,FEMA4ImagesEEG,001,101556,
AFNE01.JPG,AFNE01.JPG,AFNE01.JPG,AFNE01.JPG,AFNE01.JPG,AFNE01.JPG,,,,,,,,,,,,,3,4,34,2,,,,,,,,,,,AMSA04.jpg,AMSA19.jpg,AMNE02.jpg,AMNE18.jpg,AMSA04.jpg,MS,2,num_8,16,num_8,0.783328784164,,,2017_Sep_12_1443,59.9911297097,FEMA4ImagesEEG,001,101556,
AFNE01.JPG,AFNE01.JPG,AFNE01.JPG,AFNE01.JPG,AFNE01.JPG,AFNE01.JPG,,,,,,,,,,,,,3,5,35,5,,,,,,,,,,,AMSA12.jpg,AMNE14.jpg,AMSA14.jpg,AMNE19.jpg,AMSA12.jpg,MS,2,num_8,32,num_4,0.833576186793,,,2017_Sep_12_1443,59.9911297097,FEMA4ImagesEEG,001,101556,
AFNE01.JPG,AFNE01.JPG,AFNE01.JPG,AFNE01.JPG,AFNE01.JPG,AFNE01.JPG,,,,,,,,,,,,,3,6,36,3,,,,,,,,,,,AMSA11.jpg,AMNE02.jpg,AMNE06.jpg,AMSA19.jpg,AMSA19.jpg,MS,2,num_4,16,num_4,0.883459229022,,,2017_Sep_12_1443,59.9911297097,FEMA4ImagesEEG,001,101556,
AFNE01.JPG,AFNE01.JPG,AFNE01.JPG,AFNE01.JPG,AFNE01.JPG,AFNE01.JPG,,,,,,,,,,,,,3,7,37,4,,,,,,,,,,,AMSA06.jpg,AMNE04.jpg,AMSA20.jpg,AMNE13.jpg,AMNE04.jpg,MN,1,num_6,16,num_6,0.933437210275,,,2017_Sep_12_1443,59.9911297097,FEMA4ImagesEEG,001,101556,
AFNE01.JPG,AFNE01.JPG,AFNE01.JPG,AFNE01.JPG,AFNE01.JPG,AFNE01.JPG,,,,,,,,,,,,,3,8,38,7,,,,,,,,,,,AMNE05.jpg,AMSA06.jpg,AMNE20.jpg,AMSA05.jpg,AMSA05.jpg,MS,2,num_4,16,num_4,0.950091619277,,,2017_Sep_12_1443,59.9911297097,FEMA4ImagesEEG,001,101556,
AFNE01.JPG,AFNE01.JPG,AFNE01.JPG,AFNE01.JPG,AFNE01.JPG,AFNE01.JPG,,,,,,,,,,,,,3,9,39,0,,,,,,,,,,,AMSA07.jpg,AMNE07.jpg,AMSA15.jpg,AMNE05.jpg,AMSA15.jpg,MS,2,num_2,16,num_2,0.583521420602,,,2017_Sep_12_1443,59.9911297097,FEMA4ImagesEEG,001,101556,
AFNE01.JPG,AFNE01.JPG,AFNE01.JPG,AFNE01.JPG,AFNE01.JPG,AFNE01.JPG,,,,,,,,,,,,,4,0,40,9,,,,,,,,,,,AMSA10.jpg,AMNE11.jpg,AMNE02.jpg,AMSA05.jpg,AMSA05.jpg,MS,2,num_4,16,num_4,0.933469604934,,,2017_Sep_12_1443,59.9911297097,FEMA4ImagesEEG,001,101556,
AFNE01.JPG,AFNE01.JPG,AFNE01.JPG,AFNE01.JPG,AFNE01.JPG,AFNE01.JPG,,,,,,,,,,,,,4,1,41,3,,,,,,,,,,,AMNE16.jpg,AMSA20.jpg,AMSA13.jpg,AMNE19.jpg,AMSA20.jpg,MS,2,num_6,16,num_6,0.800123035675,,,2017_Sep_12_1443,59.9911297097,FEMA4ImagesEEG,001,101556,
AFNE01.JPG,AFNE01.JPG,AFNE01.JPG,AFNE01.JPG,AFNE01.JPG,AFNE01.JPG,,,,,,,,,,,,,4,2,42,1,,,,,,,,,,,AMNE17.jpg,AMNE05.jpg,AMSA10.jpg,AMSA05.jpg,AMSA10.jpg,MS,2,num_2,32,num_4,1.08329962892,,,2017_Sep_12_1443,59.9911297097,FEMA4ImagesEEG,001,101556,
AFNE01.JPG,AFNE01.JPG,AFNE01.JPG,AFNE01.JPG,AFNE01.JPG,AFNE01.JPG,,,,,,,,,,,,,4,3,43,2,,,,,,,,,,,AMNE13.jpg,AMSA09.jpg,AMNE19.jpg,AMSA14.jpg,AMSA09.jpg,MS,2,num_6,32,num_8,0.766783747356,,,2017_Sep_12_1443,59.9911297097,FEMA4ImagesEEG,001,101556,
AFNE01.JPG,AFNE01.JPG,AFNE01.JPG,AFNE01.JPG,AFNE01.JPG,AFNE01.JPG,,,,,,,,,,,,,4,4,44,5,,,,,,,,,,,AMNE14.jpg,AMNE05.jpg,AMSA17.jpg,AMSA18.jpg,AMSA18.jpg,MS,2,num_4,16,num_4,0.733431950212,,,2017_Sep_12_1443,59.9911297097,FEMA4ImagesEEG,001,101556,
AFNE01.JPG,AFNE01.JPG,AFNE01.JPG,AFNE01.JPG,AFNE01.JPG,AFNE01.JPG,,,,,,,,,,,,,4,5,45,8,,,,,,,,,,,AMSA04.jpg,AMSA12.jpg,AMNE04.jpg,AMNE12.jpg,AMNE04.jpg,MN,1,num_2,32,num_4,0.833441796713,,,2017_Sep_12_1443,59.9911297097,FEMA4ImagesEEG,001,101556,
AFNE01.JPG,AFNE01.JPG,AFNE01.JPG,AFNE01.JPG,AFNE01.JPG,AFNE01.JPG,,,,,,,,,,,,,4,6,46,7,,,,,,,,,,,AMSA07.jpg,AMSA09.jpg,AMNE13.jpg,AMNE12.jpg,AMNE12.jpg,MN,1,num_4,16,num_4,0.816427196842,,,2017_Sep_12_1443,59.9911297097,FEMA4ImagesEEG,001,101556,
AFNE01.JPG,AFNE01.JPG,AFNE01.JPG,AFNE01.JPG,AFNE01.JPG,AFNE01.JPG,,,,,,,,,,,,,4,7,47,0,,,,,,,,,,,AMNE08.jpg,AMNE02.jpg,AMSA17.jpg,AMSA12.jpg,AMNE02.jpg,MN,1,num_6,16,num_6,0.516845730133,,,2017_Sep_12_1443,59.9911297097,FEMA4ImagesEEG,001,101556,
AFNE01.JPG,AFNE01.JPG,AFNE01.JPG,AFNE01.JPG,AFNE01.JPG,AFNE01.JPG,,,,,,,,,,,,,4,8,48,4,,,,,,,,,,,AMNE15.jpg,AMSA03.jpg,AMNE19.jpg,AMSA16.jpg,AMNE15.jpg,MN,1,num_8,16,num_8,0.850166447926,,,2017_Sep_12_1443,59.9911297097,FEMA4ImagesEEG,001,101556,
AFNE01.JPG,AFNE01.JPG,AFNE01.JPG,AFNE01.JPG,AFNE01.JPG,AFNE01.JPG,,,,,,,,,,,,,4,9,49,6,,,,,,,,,,,AMSA01.jpg,AMNE14.jpg,AMSA05.jpg,AMNE12.jpg,AMSA01.jpg,MS,2,num_8,32,num_4,1.46676671598,,,2017_Sep_12_1443,59.9911297097,FEMA4ImagesEEG,001,101556,
AFNE01.JPG,AFNE01.JPG,AFNE01.JPG,AFNE01.JPG,AFNE01.JPG,AFNE01.JPG,,,,,,,,,,,,,5,0,50,5,,,,,,,,,,,AMNE03.jpg,AMNE14.jpg,AMSA20.jpg,AMSA11.jpg,AMSA11.jpg,MS,2,num_4,32,num_8,0.883468851214,,,2017_Sep_12_1443,59.9911297097,FEMA4ImagesEEG,001,101556,
AFNE01.JPG,AFNE01.JPG,AFNE01.JPG,AFNE01.JPG,AFNE01.JPG,AFNE01.JPG,,,,,,,,,,,,,5,1,51,9,,,,,,,,,,,AMSA16.jpg,AMNE16.jpg,AMSA07.jpg,AMNE19.jpg,AMNE16.jpg,MN,1,num_6,16,num_6,0.866715975106,,,2017_Sep_12_1443,59.9911297097,FEMA4ImagesEEG,001,101556,
AFNE01.JPG,AFNE01.JPG,AFNE01.JPG,AFNE01.JPG,AFNE01.JPG,AFNE01.JPG,,,,,,,,,,,,,5,2,52,4,,,,,,,,,,,AMNE13.jpg,AMNE09.jpg,AMSA11.jpg,AMSA05.jpg,AMNE09.jpg,MN,1,num_6,32,num_8,0.750157242641,,,2017_Sep_12_1443,59.9911297097,FEMA4ImagesEEG,001,101556,
AFNE01.JPG,AFNE01.JPG,AFNE01.JPG,AFNE01.JPG,AFNE01.JPG,AFNE01.JPG,,,,,,,,,,,,,5,3,53,0,,,,,,,,,,,AMSA19.jpg,AMSA15.jpg,AMNE07.jpg,AMNE09.jpg,AMSA19.jpg,MS,2,num_8,32,num_4,1.41672362457,,,2017_Sep_12_1443,59.9911297097,FEMA4ImagesEEG,001,101556,
AFNE01.JPG,AFNE01.JPG,AFNE01.JPG,AFNE01.JPG,AFNE01.JPG,AFNE01.JPG,,,,,,,,,,,,,5,4,54,8,,,,,,,,,,,AMSA05.jpg,AMSA04.jpg,AMNE13.jpg,AMNE16.jpg,AMSA05.jpg,MS,2,num_8,32,num_4,1.08340932196,,,2017_Sep_12_1443,59.9911297097,FEMA4ImagesEEG,001,101556,
AFNE01.JPG,AFNE01.JPG,AFNE01.JPG,AFNE01.JPG,AFNE01.JPG,AFNE01.JPG,,,,,,,,,,,,,5,5,55,1,,,,,,,,,,,AMSA11.jpg,AMNE04.jpg,AMSA16.jpg,AMNE16.jpg,AMSA11.jpg,MS,2,num_8,16,num_8,0.666762995534,,,2017_Sep_12_1443,59.9911297097,FEMA4ImagesEEG,001,101556,
AFNE01.JPG,AFNE01.JPG,AFNE01.JPG,AFNE01.JPG,AFNE01.JPG,AFNE01.JPG,,,,,,,,,,,,,5,6,56,7,,,,,,,,,,,AMSA15.jpg,AMSA18.jpg,AMNE13.jpg,AMNE16.jpg,AMSA15.jpg,MS,2,num_8,16,num_8,0.633482081583,,,2017_Sep_12_1443,59.9911297097,FEMA4ImagesEEG,001,101556,
AFNE01.JPG,AFNE01.JPG,AFNE01.JPG,AFNE01.JPG,AFNE01.JPG,AFNE01.JPG,,,,,,,,,,,,,5,7,57,6,,,,,,,,,,,AMSA17.jpg,AMNE07.jpg,AMNE03.jpg,AMSA10.jpg,AMSA10.jpg,MS,2,num_4,16,num_4,0.833473229315,,,2017_Sep_12_1443,59.9911297097,FEMA4ImagesEEG,001,101556,
AFNE01.JPG,AFNE01.JPG,AFNE01.JPG,AFNE01.JPG,AFNE01.JPG,AFNE01.JPG,,,,,,,,,,,,,5,8,58,2,,,,,,,,,,,AMNE10.jpg,AMNE05.jpg,AMSA17.jpg,AMSA11.jpg,AMSA17.jpg,MS,2,num_2,32,num_4,0.800140997162,,,2017_Sep_12_1443,59.9911297097,FEMA4ImagesEEG,001,101556,
AFNE01.JPG,AFNE01.JPG,AFNE01.JPG,AFNE01.JPG,AFNE01.JPG,AFNE01.JPG,,,,,,,,,,,,,5,9,59,3,,,,,,,,,,,AMSA06.jpg,AMNE02.jpg,AMSA05.jpg,AMNE15.jpg,AMSA06.jpg,MS,2,num_8,32,num_2,0.983474849025,,,2017_Sep_12_1443,59.9911297097,FEMA4ImagesEEG,001,101556,
,,,,,,,,,,,,,,,,,,,,,,,,,,,,,,,,,,,,,,,,,,,space,5.81640025484,2017_Sep_12_1443,59.9911297097,FEMA4ImagesEEG,001,101556,
AFNE01.JPG,AFNE01.JPG,AFNE01.JPG,AFNE01.JPG,AFNE01.JPG,AFNE01.JPG,,,,,,,,,,,,,,,,,0,0,0,7,,,,,,,AFNE01.jpg,AFSA06.jpg,AFSA14.jpg,AFNE09.jpg,AFNE09.jpg,FN,3,num_4,16,num_4,0.983423209749,,,2017_Sep_12_1443,59.9911297097,FEMA4ImagesEEG,001,101556,
AFNE01.JPG,AFNE01.JPG,AFNE01.JPG,AFNE01.JPG,AFNE01.JPG,AFNE01.JPG,,,,,,,,,,,,,,,,,0,1,1,8,,,,,,,AFSA08.jpg,AFNE20.jpg,AFNE09.jpg,AFSA18.jpg,AFSA08.jpg,FS,4,num_8,16,num_8,0.783456759294,,,2017_Sep_12_1443,59.9911297097,FEMA4ImagesEEG,001,101556,
AFNE01.JPG,AFNE01.JPG,AFNE01.JPG,AFNE01.JPG,AFNE01.JPG,AFNE01.JPG,,,,,,,,,,,,,,,,,0,2,2,0,,,,,,,AFSA11.jpg,AFNE17.jpg,AFSA12.jpg,AFNE16.jpg,AFSA11.jpg,FS,4,num_8,32,num_2,1.36674179463,,,2017_Sep_12_1443,59.9911297097,FEMA4ImagesEEG,001,101556,
AFNE01.JPG,AFNE01.JPG,AFNE01.JPG,AFNE01.JPG,AFNE01.JPG,AFNE01.JPG,,,,,,,,,,,,,,,,,0,3,3,3,,,,,,,AFSA16.jpg,AFNE14.jpg,AFNE09.jpg,AFSA02.jpg,AFSA02.jpg,FS,4,num_4,16,num_4,0.900176823838,,,2017_Sep_12_1443,59.9911297097,FEMA4ImagesEEG,001,101556,
AFNE01.JPG,AFNE01.JPG,AFNE01.JPG,AFNE01.JPG,AFNE01.JPG,AFNE01.JPG,,,,,,,,,,,,,,,,,0,4,4,9,,,,,,,AFSA08.jpg,AFNE07.jpg,AFNE05.jpg,AFSA04.jpg,AFNE05.jpg,FN,3,num_2,16,num_2,0.833443721291,,,2017_Sep_12_1443,59.9911297097,FEMA4ImagesEEG,001,101556,
AFNE01.JPG,AFNE01.JPG,AFNE01.JPG,AFNE01.JPG,AFNE01.JPG,AFNE01.JPG,,,,,,,,,,,,,,,,,0,5,5,2,,,,,,,AFNE19.jpg,AFSA04.jpg,AFSA06.jpg,AFNE04.jpg,AFNE04.jpg,FN,3,num_4,16,num_4,1.11678260867,,,2017_Sep_12_1443,59.9911297097,FEMA4ImagesEEG,001,101556,
AFNE01.JPG,AFNE01.JPG,AFNE01.JPG,AFNE01.JPG,AFNE01.JPG,AFNE01.JPG,,,,,,,,,,,,,,,,,0,6,6,5,,,,,,,AFNE15.jpg,AFNE02.jpg,AFSA15.jpg,AFSA11.jpg,AFNE02.jpg,FN,3,num_6,32,num_8,0.766789199784,,,2017_Sep_12_1443,59.9911297097,FEMA4ImagesEEG,001,101556,
AFNE01.JPG,AFNE01.JPG,AFNE01.JPG,AFNE01.JPG,AFNE01.JPG,AFNE01.JPG,,,,,,,,,,,,,,,,,0,7,7,4,,,,,,,AFNE07.jpg,AFNE14.jpg,AFSA11.jpg,AFSA15.jpg,AFNE07.jpg,FN,3,num_8,32,num_4,0.900108827045,,,2017_Sep_12_1443,59.9911297097,FEMA4ImagesEEG,001,101556,
AFNE01.JPG,AFNE01.JPG,AFNE01.JPG,AFNE01.JPG,AFNE01.JPG,AFNE01.JPG,,,,,,,,,,,,,,,,,0,8,8,6,,,,,,,AFNE07.jpg,AFNE13.jpg,AFSA10.jpg,AFSA15.jpg,AFSA15.jpg,FS,4,num_4,32,num_6,0.716783314478,,,2017_Sep_12_1443,59.9911297097,FEMA4ImagesEEG,001,101556,
AFNE01.JPG,AFNE01.JPG,AFNE01.JPG,AFNE01.JPG,AFNE01.JPG,AFNE01.JPG,,,,,,,,,,,,,,,,,0,9,9,1,,,,,,,AFSA05.jpg,AFNE19.jpg,AFSA15.jpg,AFNE12.jpg,AFSA05.jpg,FS,4,num_8,16,num_8,0.733521115733,,,2017_Sep_12_1443,59.9911297097,FEMA4ImagesEEG,001,101556,
AFNE01.JPG,AFNE01.JPG,AFNE01.JPG,AFNE01.JPG,AFNE01.JPG,AFNE01.JPG,,,,,,,,,,,,,,,,,1,0,10,3,,,,,,,AFSA04.jpg,AFNE11.jpg,AFSA17.jpg,AFNE19.jpg,AFSA04.jpg,FS,4,num_8,32,num_4,1.21674594819,,,2017_Sep_12_1443,59.9911297097,FEMA4ImagesEEG,001,101556,
AFNE01.JPG,AFNE01.JPG,AFNE01.JPG,AFNE01.JPG,AFNE01.JPG,AFNE01.JPG,,,,,,,,,,,,,,,,,1,1,11,9,,,,,,,AFSA12.jpg,AFNE02.jpg,AFSA11.jpg,AFNE15.jpg,AFNE15.jpg,FN,3,num_4,16,num_4,0.950006623287,,,2017_Sep_12_1443,59.9911297097,FEMA4ImagesEEG,001,101556,
AFNE01.JPG,AFNE01.JPG,AFNE01.JPG,AFNE01.JPG,AFNE01.JPG,AFNE01.JPG,,,,,,,,,,,,,,,,,1,2,12,2,,,,,,,AFSA15.jpg,AFNE09.jpg,AFSA04.jpg,AFNE20.jpg,AFNE20.jpg,FN,3,num_4,32,num_8,0.66676395759,,,2017_Sep_12_1443,59.9911297097,FEMA4ImagesEEG,001,101556,
AFNE01.JPG,AFNE01.JPG,AFNE01.JPG,AFNE01.JPG,AFNE01.JPG,AFNE01.JPG,,,,,,,,,,,,,,,,,1,3,13,5,,,,,,,AFSA15.jpg,AFSA14.jpg,AFNE09.jpg,AFNE13.jpg,AFNE13.jpg,FN,3,num_4,32,num_6,0.833438910078,,,2017_Sep_12_1443,59.9911297097,FEMA4ImagesEEG,001,101556,
AFNE01.JPG,AFNE01.JPG,AFNE01.JPG,AFNE01.JPG,AFNE01.JPG,AFNE01.JPG,,,,,,,,,,,,,,,,,1,4,14,4,,,,,,,AFNE01.jpg,AFSA01.jpg,AFNE13.jpg,AFSA10.jpg,AFNE13.jpg,FN,3,num_2,32,num_4,0.96676783869,,,2017_Sep_12_1443,59.9911297097,FEMA4ImagesEEG,001,101556,
AFNE01.JPG,AFNE01.JPG,AFNE01.JPG,AFNE01.JPG,AFNE01.JPG,AFNE01.JPG,,,,,,,,,,,,,,,,,1,5,15,6,,,,,,,AFSA05.jpg,AFSA01.jpg,AFNE03.jpg,AFNE19.jpg,AFNE03.jpg,FN,3,num_2,32,num_4,1.11673000734,,,2017_Sep_12_1443,59.9911297097,FEMA4ImagesEEG,001,101556,
AFNE01.JPG,AFNE01.JPG,AFNE01.JPG,AFNE01.JPG,AFNE01.JPG,AFNE01.JPG,,,,,,,,,,,,,,,,,1,6,16,0,,,,,,,AFNE18.jpg,AFSA08.jpg,AFNE16.jpg,AFSA15.jpg,AFSA15.jpg,FS,4,num_4,16,num_4,0.700129867299,,,2017_Sep_12_1443,59.9911297097,FEMA4ImagesEEG,001,101556,
AFNE01.JPG,AFNE01.JPG,AFNE01.JPG,AFNE01.JPG,AFNE01.JPG,AFNE01.JPG,,,,,,,,,,,,,,,,,1,7,17,1,,,,,,,AFNE20.jpg,AFSA08.jpg,AFSA03.jpg,AFNE06.jpg,AFNE06.jpg,FN,3,num_4,32,num_8,0.933463190217,,,2017_Sep_12_1443,59.9911297097,FEMA4ImagesEEG,001,101556,
AFNE01.JPG,AFNE01.JPG,AFNE01.JPG,AFNE01.JPG,AFNE01.JPG,AFNE01.JPG,,,,,,,,,,,,,,,,,1,8,18,8,,,,,,,AFNE11.jpg,AFSA10.jpg,AFNE06.jpg,AFSA20.jpg,AFSA10.jpg,FS,4,num_6,16,num_6,0.916728275595,,,2017_Sep_12_1443,59.9911297097,FEMA4ImagesEEG,001,101556,
AFNE01.JPG,AFNE01.JPG,AFNE01.JPG,AFNE01.JPG,AFNE01.JPG,AFNE01.JPG,,,,,,,,,,,,,,,,,1,9,19,7,,,,,,,AFSA09.jpg,AFNE10.jpg,AFNE20.jpg,AFSA06.jpg,AFNE10.jpg,FN,3,num_6,32,num_4,1.40020649228,,,2017_Sep_12_1443,59.9911297097,FEMA4ImagesEEG,001,101556,
AFNE01.JPG,AFNE01.JPG,AFNE01.JPG,AFNE01.JPG,AFNE01.JPG,AFNE01.JPG,,,,,,,,,,,,,,,,,2,0,20,8,,,,,,,AFSA20.jpg,AFNE17.jpg,AFSA10.jpg,AFNE19.jpg,AFNE19.jpg,FN,3,num_4,16,num_4,0.900146032684,,,2017_Sep_12_1443,59.9911297097,FEMA4ImagesEEG,001,101556,
AFNE01.JPG,AFNE01.JPG,AFNE01.JPG,AFNE01.JPG,AFNE01.JPG,AFNE01.JPG,,,,,,,,,,,,,,,,,2,1,21,7,,,,,,,AFNE07.jpg,AFSA01.jpg,AFSA16.jpg,AFNE01.jpg,AFSA16.jpg,FS,4,num_2,32,num_6,1.10017310316,,,2017_Sep_12_1443,59.9911297097,FEMA4ImagesEEG,001,101556,
AFNE01.JPG,AFNE01.JPG,AFNE01.JPG,AFNE01.JPG,AFNE01.JPG,AFNE01.JPG,,,,,,,,,,,,,,,,,2,2,22,5,,,,,,,AFSA08.jpg,AFSA02.jpg,AFNE09.jpg,AFNE14.jpg,AFNE09.jpg,FN,3,num_2,32,num_8,0.75013671536,,,2017_Sep_12_1443,59.9911297097,FEMA4ImagesEEG,001,101556,
AFNE01.JPG,AFNE01.JPG,AFNE01.JPG,AFNE01.JPG,AFNE01.JPG,AFNE01.JPG,,,,,,,,,,,,,,,,,2,3,23,0,,,,,,,AFNE05.jpg,AFNE02.jpg,AFSA19.jpg,AFSA11.jpg,AFNE02.jpg,FN,3,num_6,32,num_4,0.799954647431,,,2017_Sep_12_1443,59.9911297097,FEMA4ImagesEEG,001,101556,
AFNE01.JPG,AFNE01.JPG,AFNE01.JPG,AFNE01.JPG,AFNE01.JPG,AFNE01.JPG,,,,,,,,,,,,,,,,,2,4,24,9,,,,,,,AFSA16.jpg,AFNE04.jpg,AFSA09.jpg,AFNE10.jpg,AFNE10.jpg,FN,3,num_4,16,num_4,1.13341745269,,,2017_Sep_12_1443,59.9911297097,FEMA4ImagesEEG,001,101556,
AFNE01.JPG,AFNE01.JPG,AFNE01.JPG,AFNE01.JPG,AFNE01.JPG,AFNE01.JPG,,,,,,,,,,,,,,,,,2,5,25,1,,,,,,,AFSA14.jpg,AFNE04.jpg,AFNE09.jpg,AFSA19.jpg,AFSA14.jpg,FS,4,num_8,16,num_8,1.13340269867,,,2017_Sep_12_1443,59.9911297097,FEMA4ImagesEEG,001,101556,
AFNE01.JPG,AFNE01.JPG,AFNE01.JPG,AFNE01.JPG,AFNE01.JPG,AFNE01.JPG,,,,,,,,,,,,,,,,,2,6,26,2,,,,,,,AFSA19.jpg,AFNE08.jpg,AFNE03.jpg,AFSA06.jpg,AFNE03.jpg,FN,3,num_2,16,num_2,0.750118433265,,,2017_Sep_12_1443,59.9911297097,FEMA4ImagesEEG,001,101556,
AFNE01.JPG,AFNE01.JPG,AFNE01.JPG,AFNE01.JPG,AFNE01.JPG,AFNE01.JPG,,,,,,,,,,,,,,,,,2,7,27,4,,,,,,,AFNE20.jpg,AFSA02.jpg,AFSA15.jpg,AFNE02.jpg,AFNE02.jpg,FN,3,num_4,16,num_4,0.866892381804,,,2017_Sep_12_1443,59.9911297097,FEMA4ImagesEEG,001,101556,
AFNE01.JPG,AFNE01.JPG,AFNE01.JPG,AFNE01.JPG,AFNE01.JPG,AFNE01.JPG,,,,,,,,,,,,,,,,,2,8,28,6,,,,,,,AFSA12.jpg,AFSA18.jpg,AFNE17.jpg,AFNE01.jpg,AFNE01.jpg,FN,3,num_4,32,num_2,1.16671183752,,,2017_Sep_12_1443,59.9911297097,FEMA4ImagesEEG,001,101556,
AFNE01.JPG,AFNE01.JPG,AFNE01.JPG,AFNE01.JPG,AFNE01.JPG,AFNE01.JPG,,,,,,,,,,,,,,,,,2,9,29,3,,,,,,,AFSA16.jpg,AFNE12.jpg,AFNE18.jpg,AFSA01.jpg,AFSA01.jpg,FS,4,num_4,16,num_4,0.799998268019,,,2017_Sep_12_1443,59.9911297097,FEMA4ImagesEEG,001,101556,
AFNE01.JPG,AFNE01.JPG,AFNE01.JPG,AFNE01.JPG,AFNE01.JPG,AFNE01.JPG,,,,,,,,,,,,,,,,,3,0,30,3,,,,,,,AFNE12.jpg,AFSA15.jpg,AFSA14.jpg,AFNE02.jpg,AFNE12.jpg,FN,3,num_8,16,num_8,0.633468610467,,,2017_Sep_12_1443,59.9911297097,FEMA4ImagesEEG,001,101556,
AFNE01.JPG,AFNE01.JPG,AFNE01.JPG,AFNE01.JPG,AFNE01.JPG,AFNE01.JPG,,,,,,,,,,,,,,,,,3,1,31,6,,,,,,,AFNE03.jpg,AFSA10.jpg,AFNE18.jpg,AFSA12.jpg,AFSA12.jpg,FS,4,num_4,16,num_4,0.550178924808,,,2017_Sep_12_1443,59.9911297097,FEMA4ImagesEEG,001,101556,
AFNE01.JPG,AFNE01.JPG,AFNE01.JPG,AFNE01.JPG,AFNE01.JPG,AFNE01.JPG,,,,,,,,,,,,,,,,,3,2,32,5,,,,,,,AFNE01.jpg,AFNE18.jpg,AFSA09.jpg,AFSA17.jpg,AFNE01.jpg,FN,3,num_8,32,num_4,1.48340027709,,,2017_Sep_12_1443,59.9911297097,FEMA4ImagesEEG,001,101556,
AFNE01.JPG,AFNE01.JPG,AFNE01.JPG,AFNE01.JPG,AFNE01.JPG,AFNE01.JPG,,,,,,,,,,,,,,,,,3,3,33,0,,,,,,,AFNE05.jpg,AFSA09.jpg,AFNE09.jpg,AFSA18.jpg,AFNE09.jpg,FN,3,num_2,32,num_8,0.766707731877,,,2017_Sep_12_1443,59.9911297097,FEMA4ImagesEEG,001,101556,
AFNE01.JPG,AFNE01.JPG,AFNE01.JPG,AFNE01.JPG,AFNE01.JPG,AFNE01.JPG,,,,,,,,,,,,,,,,,3,4,34,7,,,,,,,AFSA12.jpg,AFNE17.jpg,AFSA03.jpg,AFNE14.jpg,AFSA03.jpg,FS,4,num_2,32,num_6,0.816747936886,,,2017_Sep_12_1443,59.9911297097,FEMA4ImagesEEG,001,101556,
AFNE01.JPG,AFNE01.JPG,AFNE01.JPG,AFNE01.JPG,AFNE01.JPG,AFNE01.JPG,,,,,,,,,,,,,,,,,3,5,35,8,,,,,,,AFSA10.jpg,AFNE08.jpg,AFNE13.jpg,AFSA12.jpg,AFNE08.jpg,FN,3,num_6,32,num_2,0.833451739745,,,2017_Sep_12_1443,59.9911297097,FEMA4ImagesEEG,001,101556,
AFNE01.JPG,AFNE01.JPG,AFNE01.JPG,AFNE01.JPG,AFNE01.JPG,AFNE01.JPG,,,,,,,,,,,,,,,,,3,6,36,4,,,,,,,AFSA19.jpg,AFSA01.jpg,AFNE10.jpg,AFNE03.jpg,AFSA19.jpg,FS,4,num_8,32,num_6,1.10011537001,,,2017_Sep_12_1443,59.9911297097,FEMA4ImagesEEG,001,101556,
AFNE01.JPG,AFNE01.JPG,AFNE01.JPG,AFNE01.JPG,AFNE01.JPG,AFNE01.JPG,,,,,,,,,,,,,,,,,3,7,37,1,,,,,,,AFSA06.jpg,AFNE12.jpg,AFNE01.jpg,AFSA14.jpg,AFNE12.jpg,FN,3,num_6,16,num_6,0.816627338761,,,2017_Sep_12_1443,59.9911297097,FEMA4ImagesEEG,001,101556,
AFNE01.JPG,AFNE01.JPG,AFNE01.JPG,AFNE01.JPG,AFNE01.JPG,AFNE01.JPG,,,,,,,,,,,,,,,,,3,8,38,2,,,,,,,AFNE05.jpg,AFNE13.jpg,AFSA05.jpg,AFSA01.jpg,AFNE13.jpg,FN,3,num_6,32,num_4,1.08342279308,,,2017_Sep_12_1443,59.9911297097,FEMA4ImagesEEG,001,101556,
AFNE01.JPG,AFNE01.JPG,AFNE01.JPG,AFNE01.JPG,AFNE01.JPG,AFNE01.JPG,,,,,,,,,,,,,,,,,3,9,39,9,,,,,,,AFNE04.jpg,AFSA04.jpg,AFSA08.jpg,AFNE06.jpg,AFNE06.jpg,FN,3,num_4,32,num_2,1.05008831574,,,2017_Sep_12_1443,59.9911297097,FEMA4ImagesEEG,001,101556,
AFNE01.JPG,AFNE01.JPG,AFNE01.JPG,AFNE01.JPG,AFNE01.JPG,AFNE01.JPG,,,,,,,,,,,,,,,,,4,0,40,1,,,,,,,AFSA11.jpg,AFNE13.jpg,AFNE15.jpg,AFSA02.jpg,AFNE13.jpg,FN,3,num_6,16,num_6,0.900126146851,,,2017_Sep_12_1443,59.9911297097,FEMA4ImagesEEG,001,101556,
AFNE01.JPG,AFNE01.JPG,AFNE01.JPG,AFNE01.JPG,AFNE01.JPG,AFNE01.JPG,,,,,,,,,,,,,,,,,4,1,41,5,,,,,,,AFSA14.jpg,AFNE20.jpg,AFSA17.jpg,AFNE10.jpg,AFNE20.jpg,FN,3,num_6,16,num_6,0.916801724816,,,2017_Sep_12_1443,59.9911297097,FEMA4ImagesEEG,001,101556,
AFNE01.JPG,AFNE01.JPG,AFNE01.JPG,AFNE01.JPG,AFNE01.JPG,AFNE01.JPG,,,,,,,,,,,,,,,,,4,2,42,3,,,,,,,AFSA11.jpg,AFNE19.jpg,AFNE10.jpg,AFSA07.jpg,AFNE19.jpg,FN,3,num_6,32,num_2,0.933437531115,,,2017_Sep_12_1443,59.9911297097,FEMA4ImagesEEG,001,101556,
AFNE01.JPG,AFNE01.JPG,AFNE01.JPG,AFNE01.JPG,AFNE01.JPG,AFNE01.JPG,,,,,,,,,,,,,,,,,4,3,43,6,,,,,,,AFSA12.jpg,AFNE17.jpg,AFSA20.jpg,AFNE07.jpg,AFSA12.jpg,FS,4,num_8,16,num_8,0.683557888493,,,2017_Sep_12_1443,59.9911297097,FEMA4ImagesEEG,001,101556,
AFNE01.JPG,AFNE01.JPG,AFNE01.JPG,AFNE01.JPG,AFNE01.JPG,AFNE01.JPG,,,,,,,,,,,,,,,,,4,4,44,8,,,,,,,AFNE18.jpg,AFNE09.jpg,AFSA08.jpg,AFSA14.jpg,AFSA08.jpg,FS,4,num_2,32,num_4,0.933432399062,,,2017_Sep_12_1443,59.9911297097,FEMA4ImagesEEG,001,101556,
AFNE01.JPG,AFNE01.JPG,AFNE01.JPG,AFNE01.JPG,AFNE01.JPG,AFNE01.JPG,,,,,,,,,,,,,,,,,4,5,45,4,,,,,,,AFNE01.jpg,AFSA05.jpg,AFSA14.jpg,AFNE12.jpg,AFNE01.jpg,FN,3,num_8,32,num_4,1.40011925087,,,2017_Sep_12_1443,59.9911297097,FEMA4ImagesEEG,001,101556,
AFNE01.JPG,AFNE01.JPG,AFNE01.JPG,AFNE01.JPG,AFNE01.JPG,AFNE01.JPG,,,,,,,,,,,,,,,,,4,6,46,9,,,,,,,AFSA07.jpg,AFNE16.jpg,AFNE02.jpg,AFSA12.jpg,AFSA07.jpg,FS,4,num_8,16,num_8,0.73345440207,,,2017_Sep_12_1443,59.9911297097,FEMA4ImagesEEG,001,101556,
AFNE01.JPG,AFNE01.JPG,AFNE01.JPG,AFNE01.JPG,AFNE01.JPG,AFNE01.JPG,,,,,,,,,,,,,,,,,4,7,47,0,,,,,,,AFNE11.jpg,AFNE16.jpg,AFSA06.jpg,AFSA11.jpg,AFSA06.jpg,FS,4,num_2,32,num_8,1.31675098371,,,2017_Sep_12_1443,59.9911297097,FEMA4ImagesEEG,001,101556,
AFNE01.JPG,AFNE01.JPG,AFNE01.JPG,AFNE01.JPG,AFNE01.JPG,AFNE01.JPG,,,,,,,,,,,,,,,,,4,8,48,2,,,,,,,AFSA06.jpg,AFNE15.jpg,AFSA11.jpg,AFNE17.jpg,AFNE15.jpg,FN,3,num_6,16,num_6,0.650126226945,,,2017_Sep_12_1443,59.9911297097,FEMA4ImagesEEG,001,101556,
AFNE01.JPG,AFNE01.JPG,AFNE01.JPG,AFNE01.JPG,AFNE01.JPG,AFNE01.JPG,,,,,,,,,,,,,,,,,4,9,49,7,,,,,,,AFNE06.jpg,AFSA17.jpg,AFSA18.jpg,AFNE14.jpg,AFSA17.jpg,FS,4,num_6,32,num_4,1.11658214638,,,2017_Sep_12_1443,59.9911297097,FEMA4ImagesEEG,001,101556,
AFNE01.JPG,AFNE01.JPG,AFNE01.JPG,AFNE01.JPG,AFNE01.JPG,AFNE01.JPG,,,,,,,,,,,,,,,,,5,0,50,5,,,,,,,AFSA15.jpg,AFSA05.jpg,AFNE09.jpg,AFNE16.jpg,AFNE16.jpg,FN,3,num_4,16,num_4,1.30012479983,,,2017_Sep_12_1443,59.9911297097,FEMA4ImagesEEG,001,101556,
AFNE01.JPG,AFNE01.JPG,AFNE01.JPG,AFNE01.JPG,AFNE01.JPG,AFNE01.JPG,,,,,,,,,,,,,,,,,5,1,51,4,,,,,,,AFNE15.jpg,AFSA12.jpg,AFSA17.jpg,AFNE17.jpg,AFSA12.jpg,FS,4,num_6,16,num_6,0.900129674934,,,2017_Sep_12_1443,59.9911297097,FEMA4ImagesEEG,001,101556,
AFNE01.JPG,AFNE01.JPG,AFNE01.JPG,AFNE01.JPG,AFNE01.JPG,AFNE01.JPG,,,,,,,,,,,,,,,,,5,2,52,6,,,,,,,AFNE08.jpg,AFNE05.jpg,AFSA04.jpg,AFSA07.jpg,AFSA07.jpg,FS,4,num_4,16,num_4,0.83348637959,,,2017_Sep_12_1443,59.9911297097,FEMA4ImagesEEG,001,101556,
AFNE01.JPG,AFNE01.JPG,AFNE01.JPG,AFNE01.JPG,AFNE01.JPG,AFNE01.JPG,,,,,,,,,,,,,,,,,5,3,53,9,,,,,,,AFSA14.jpg,AFNE13.jpg,AFNE17.jpg,AFSA17.jpg,AFSA14.jpg,FS,4,num_8,16,num_8,0.566814410035,,,2017_Sep_12_1443,59.9911297097,FEMA4ImagesEEG,001,101556,
AFNE01.JPG,AFNE01.JPG,AFNE01.JPG,AFNE01.JPG,AFNE01.JPG,AFNE01.JPG,,,,,,,,,,,,,,,,,5,4,54,0,,,,,,,AFSA12.jpg,AFNE18.jpg,AFNE10.jpg,AFSA19.jpg,AFNE10.jpg,FN,3,num_2,16,num_2,0.750092132483,,,2017_Sep_12_1443,59.9911297097,FEMA4ImagesEEG,001,101556,
AFNE01.JPG,AFNE01.JPG,AFNE01.JPG,AFNE01.JPG,AFNE01.JPG,AFNE01.JPG,,,,,,,,,,,,,,,,,5,5,55,8,,,,,,,AFSA06.jpg,AFSA03.jpg,AFNE05.jpg,AFNE19.jpg,AFNE05.jpg,FN,3,num_2,16,num_2,0.883454418043,,,2017_Sep_12_1443,59.9911297097,FEMA4ImagesEEG,001,101556,
AFNE01.JPG,AFNE01.JPG,AFNE01.JPG,AFNE01.JPG,AFNE01.JPG,AFNE01.JPG,,,,,,,,,,,,,,,,,5,6,56,2,,,,,,,AFSA14.jpg,AFNE10.jpg,AFNE09.jpg,AFSA11.jpg,AFSA14.jpg,FS,4,num_8,16,num_8,0.750146658393,,,2017_Sep_12_1443,59.9911297097,FEMA4ImagesEEG,001,101556,
AFNE01.JPG,AFNE01.JPG,AFNE01.JPG,AFNE01.JPG,AFNE01.JPG,AFNE01.JPG,,,,,,,,,,,,,,,,,5,7,57,3,,,,,,,AFNE06.jpg,AFSA11.jpg,AFSA03.jpg,AFNE05.jpg,AFSA03.jpg,FS,4,num_2,16,num_2,1.10013301065,,,2017_Sep_12_1443,59.9911297097,FEMA4ImagesEEG,001,101556,
AFNE01.JPG,AFNE01.JPG,AFNE01.JPG,AFNE01.JPG,AFNE01.JPG,AFNE01.JPG,,,,,,,,,,,,,,,,,5,8,58,1,,,,,,,AFSA10.jpg,AFSA19.jpg,AFNE14.jpg,AFNE04.jpg,AFNE04.jpg,FN,3,num_4,16,num_4,0.616793353343,,,2017_Sep_12_1443,59.9911297097,FEMA4ImagesEEG,001,101556,
AFNE01.JPG,AFNE01.JPG,AFNE01.JPG,AFNE01.JPG,AFNE01.JPG,AFNE01.JPG,,,,,,,,,,,,,,,,,5,9,59,7,,,,,,,AFSA10.jpg,AFNE07.jpg,AFSA06.jpg,AFNE08.jpg,AFNE08.jpg,FN,3,num_4,32,num_8,0.86665920401,,,2017_Sep_12_1443,59.9911297097,FEMA4ImagesEEG,001,101556,
,,,,,,,,,,,,,,,,,,,,,,,,,,,,,,,,,,,,,,,,,,,space,6.26637656824,2017_Sep_12_1443,59.9911297097,FEMA4ImagesEEG,001,101556,
AFNE01.JPG,AFNE01.JPG,AFNE01.JPG,AFNE01.JPG,AFNE01.JPG,AFNE01.JPG,,,,,,,,,,,,,,,,,,,,,0,0,0,1,,,AMNE02.jpg,AMSA08.jpg,AMSA14.jpg,AMNE11.jpg,AMNE02.jpg,MN,1,num_8,16,num_8,1.16675738269,,,2017_Sep_12_1443,59.9911297097,FEMA4ImagesEEG,001,101556,
AFNE01.JPG,AFNE01.JPG,AFNE01.JPG,AFNE01.JPG,AFNE01.JPG,AFNE01.JPG,,,,,,,,,,,,,,,,,,,,,0,1,1,2,,,AMSA11.jpg,AMNE07.jpg,AMNE15.jpg,AMSA15.jpg,AMNE07.jpg,MN,1,num_6,16,num_6,0.783428213326,,,2017_Sep_12_1443,59.9911297097,FEMA4ImagesEEG,001,101556,
AFNE01.JPG,AFNE01.JPG,AFNE01.JPG,AFNE01.JPG,AFNE01.JPG,AFNE01.JPG,,,,,,,,,,,,,,,,,,,,,0,2,2,3,,,AMSA20.jpg,AMSA13.jpg,AMNE17.jpg,AMNE06.jpg,AMNE06.jpg,MN,1,num_4,16,num_4,1.40034601395,,,2017_Sep_12_1443,59.9911297097,FEMA4ImagesEEG,001,101556,
AFNE01.JPG,AFNE01.JPG,AFNE01.JPG,AFNE01.JPG,AFNE01.JPG,AFNE01.JPG,,,,,,,,,,,,,,,,,,,,,0,3,3,6,,,AMSA12.jpg,AMNE07.jpg,AMSA11.jpg,AMNE17.jpg,AMNE07.jpg,MN,1,num_6,16,num_6,0.966767518083,,,2017_Sep_12_1443,59.9911297097,FEMA4ImagesEEG,001,101556,
AFNE01.JPG,AFNE01.JPG,AFNE01.JPG,AFNE01.JPG,AFNE01.JPG,AFNE01.JPG,,,,,,,,,,,,,,,,,,,,,0,4,4,5,,,AMNE13.jpg,AMSA19.jpg,AMSA03.jpg,AMNE20.jpg,AMNE13.jpg,MN,1,num_8,16,num_8,0.833463286282,,,2017_Sep_12_1443,59.9911297097,FEMA4ImagesEEG,001,101556,
AFNE01.JPG,AFNE01.JPG,AFNE01.JPG,AFNE01.JPG,AFNE01.JPG,AFNE01.JPG,,,,,,,,,,,,,,,,,,,,,0,5,5,9,,,AMSA17.jpg,AMNE03.jpg,AMNE15.jpg,AMSA10.jpg,AMSA10.jpg,MS,2,num_4,16,num_4,0.800106357317,,,2017_Sep_12_1443,59.9911297097,FEMA4ImagesEEG,001,101556,
AFNE01.JPG,AFNE01.JPG,AFNE01.JPG,AFNE01.JPG,AFNE01.JPG,AFNE01.JPG,,,,,,,,,,,,,,,,,,,,,0,6,6,0,,,AMSA12.jpg,AMSA08.jpg,AMNE11.jpg,AMNE02.jpg,AMNE02.jpg,MN,1,num_4,16,num_4,1.05010531493,,,2017_Sep_12_1443,59.9911297097,FEMA4ImagesEEG,001,101556,
AFNE01.JPG,AFNE01.JPG,AFNE01.JPG,AFNE01.JPG,AFNE01.JPG,AFNE01.JPG,,,,,,,,,,,,,,,,,,,,,0,7,7,7,,,AMNE14.jpg,AMNE20.jpg,AMSA07.jpg,AMSA09.jpg,AMNE14.jpg,MN,1,num_8,16,num_8,0.833434099099,,,2017_Sep_12_1443,59.9911297097,FEMA4ImagesEEG,001,101556,
AFNE01.JPG,AFNE01.JPG,AFNE01.JPG,AFNE01.JPG,AFNE01.JPG,AFNE01.JPG,,,,,,,,,,,,,,,,,,,,,0,8,8,8,,,AMSA16.jpg,AMNE03.jpg,AMNE08.jpg,AMSA08.jpg,AMSA08.jpg,MS,2,num_4,16,num_4,0.916794668417,,,2017_Sep_12_1443,59.9911297097,FEMA4ImagesEEG,001,101556,
AFNE01.JPG,AFNE01.JPG,AFNE01.JPG,AFNE01.JPG,AFNE01.JPG,AFNE01.JPG,,,,,,,,,,,,,,,,,,,,,0,9,9,4,,,AMSA19.jpg,AMSA03.jpg,AMNE04.jpg,AMNE03.jpg,AMSA19.jpg,MS,2,num_8,32,num_2,1.13342899946,,,2017_Sep_12_1443,59.9911297097,FEMA4ImagesEEG,001,101556,
AFNE01.JPG,AFNE01.JPG,AFNE01.JPG,AFNE01.JPG,AFNE01.JPG,AFNE01.JPG,,,,,,,,,,,,,,,,,,,,,1,0,10,5,,,AMNE05.jpg,AMSA04.jpg,AMSA02.jpg,AMNE13.jpg,AMNE13.jpg,MN,1,num_4,32,num_8,0.700128905475,,,2017_Sep_12_1443,59.9911297097,FEMA4ImagesEEG,001,101556,
AFNE01.JPG,AFNE01.JPG,AFNE01.JPG,AFNE01.JPG,AFNE01.JPG,AFNE01.JPG,,,,,,,,,,,,,,,,,,,,,1,1,11,7,,,AMSA16.jpg,AMNE19.jpg,AMNE02.jpg,AMSA12.jpg,AMNE02.jpg,MN,1,num_2,32,num_8,0.800121431937,,,2017_Sep_12_1443,59.9911297097,FEMA4ImagesEEG,001,101556,
AFNE01.JPG,AFNE01.JPG,AFNE01.JPG,AFNE01.JPG,AFNE01.JPG,AFNE01.JPG,,,,,,,,,,,,,,,,,,,,,1,2,12,3,,,AMNE10.jpg,AMSA12.jpg,AMNE03.jpg,AMSA03.jpg,AMNE10.jpg,MN,1,num_8,16,num_8,0.850125072524,,,2017_Sep_12_1443,59.9911297097,FEMA4ImagesEEG,001,101556,
AFNE01.JPG,AFNE01.JPG,AFNE01.JPG,AFNE01.JPG,AFNE01.JPG,AFNE01.JPG,,,,,,,,,,,,,,,,,,,,,1,3,13,0,,,AMNE03.jpg,AMSA17.jpg,AMNE09.jpg,AMSA06.jpg,AMNE03.jpg,MN,1,num_8,32,num_2,0.816689882893,,,2017_Sep_12_1443,59.9911297097,FEMA4ImagesEEG,001,101556,
AFNE01.JPG,AFNE01.JPG,AFNE01.JPG,AFNE01.JPG,AFNE01.JPG,AFNE01.JPG,,,,,,,,,,,,,,,,,,,,,1,4,14,8,,,AMNE20.jpg,AMSA17.jpg,AMNE14.jpg,AMSA20.jpg,AMNE14.jpg,MN,1,num_2,16,num_2,0.66679699393,,,2017_Sep_12_1443,59.9911297097,FEMA4ImagesEEG,001,101556,
AFNE01.JPG,AFNE01.JPG,AFNE01.JPG,AFNE01.JPG,AFNE01.JPG,AFNE01.JPG,,,,,,,,,,,,,,,,,,,,,1,5,15,9,,,AMNE12.jpg,AMNE04.jpg,AMSA04.jpg,AMSA13.jpg,AMSA04.jpg,MS,2,num_2,32,num_6,1.10007784353,,,2017_Sep_12_1443,59.9911297097,FEMA4ImagesEEG,001,101556,
AFNE01.JPG,AFNE01.JPG,AFNE01.JPG,AFNE01.JPG,AFNE01.JPG,AFNE01.JPG,,,,,,,,,,,,,,,,,,,,,1,6,16,1,,,AMSA17.jpg,AMNE19.jpg,AMSA06.jpg,AMNE17.jpg,AMNE17.jpg,MN,1,num_4,32,num_8,0.583481648704,,,2017_Sep_12_1443,59.9911297097,FEMA4ImagesEEG,001,101556,
AFNE01.JPG,AFNE01.JPG,AFNE01.JPG,AFNE01.JPG,AFNE01.JPG,AFNE01.JPG,,,,,,,,,,,,,,,,,,,,,1,7,17,4,,,AMNE05.jpg,AMNE03.jpg,AMSA12.jpg,AMSA10.jpg,AMSA10.jpg,MS,2,num_4,16,num_4,1.13348801527,,,2017_Sep_12_1443,59.9911297097,FEMA4ImagesEEG,001,101556,
AFNE01.JPG,AFNE01.JPG,AFNE01.JPG,AFNE01.JPG,AFNE01.JPG,AFNE01.JPG,,,,,,,,,,,,,,,,,,,,,1,8,18,6,,,AMNE01.jpg,AMSA08.jpg,AMSA09.jpg,AMNE07.jpg,AMNE01.jpg,MN,1,num_8,32,num_4,1.00013791816,,,2017_Sep_12_1443,59.9911297097,FEMA4ImagesEEG,001,101556,
AFNE01.JPG,AFNE01.JPG,AFNE01.JPG,AFNE01.JPG,AFNE01.JPG,AFNE01.JPG,,,,,,,,,,,,,,,,,,,,,1,9,19,2,,,AMNE07.jpg,AMSA10.jpg,AMSA12.jpg,AMNE18.jpg,AMNE18.jpg,MN,1,num_4,32,num_8,0.683498230996,,,2017_Sep_12_1443,59.9911297097,FEMA4ImagesEEG,001,101556,
AFNE01.JPG,AFNE01.JPG,AFNE01.JPG,AFNE01.JPG,AFNE01.JPG,AFNE01.JPG,,,,,,,,,,,,,,,,,,,,,2,0,20,5,,,AMNE01.jpg,AMSA17.jpg,AMSA15.jpg,AMNE07.jpg,AMNE07.jpg,MN,1,num_4,16,num_4,0.933513546363,,,2017_Sep_12_1443,59.9911297097,FEMA4ImagesEEG,001,101556,
AFNE01.JPG,AFNE01.JPG,AFNE01.JPG,AFNE01.JPG,AFNE01.JPG,AFNE01.JPG,,,,,,,,,,,,,,,,,,,,,2,1,21,8,,,AMSA01.jpg,AMNE16.jpg,AMNE06.jpg,AMSA19.jpg,AMSA01.jpg,MS,2,num_8,32,num_4,1.11672391347,,,2017_Sep_12_1443,59.9911297097,FEMA4ImagesEEG,001,101556,
AFNE01.JPG,AFNE01.JPG,AFNE01.JPG,AFNE01.JPG,AFNE01.JPG,AFNE01.JPG,,,,,,,,,,,,,,,,,,,,,2,2,22,0,,,AMSA17.jpg,AMSA10.jpg,AMNE16.jpg,AMNE01.jpg,AMNE16.jpg,MN,1,num_2,32,num_8,1.55011317297,,,2017_Sep_12_1443,59.9911297097,FEMA4ImagesEEG,001,101556,
AFNE01.JPG,AFNE01.JPG,AFNE01.JPG,AFNE01.JPG,AFNE01.JPG,AFNE01.JPG,,,,,,,,,,,,,,,,,,,,,2,3,23,3,,,AMNE02.jpg,AMSA06.jpg,AMSA15.jpg,AMNE16.jpg,AMSA06.jpg,MS,2,num_6,16,num_6,0.966763027711,,,2017_Sep_12_1443,59.9911297097,FEMA4ImagesEEG,001,101556,
AFNE01.JPG,AFNE01.JPG,AFNE01.JPG,AFNE01.JPG,AFNE01.JPG,AFNE01.JPG,,,,,,,,,,,,,,,,,,,,,2,4,24,9,,,AMNE15.jpg,AMNE02.jpg,AMSA01.jpg,AMSA09.jpg,AMSA01.jpg,MS,2,num_2,16,num_2,0.983421926852,,,2017_Sep_12_1443,59.9911297097,FEMA4ImagesEEG,001,101556,
AFNE01.JPG,AFNE01.JPG,AFNE01.JPG,AFNE01.JPG,AFNE01.JPG,AFNE01.JPG,,,,,,,,,,,,,,,,,,,,,2,5,25,7,,,AMNE13.jpg,AMSA07.jpg,AMSA04.jpg,AMNE15.jpg,AMNE13.jpg,MN,1,num_8,16,num_8,0.750107207336,,,2017_Sep_12_1443,59.9911297097,FEMA4ImagesEEG,001,101556,
AFNE01.JPG,AFNE01.JPG,AFNE01.JPG,AFNE01.JPG,AFNE01.JPG,AFNE01.JPG,,,,,,,,,,,,,,,,,,,,,2,6,26,2,,,AMNE18.jpg,AMSA10.jpg,AMSA04.jpg,AMNE02.jpg,AMSA10.jpg,MS,2,num_6,32,num_8,0.983472282998,,,2017_Sep_12_1443,59.9911297097,FEMA4ImagesEEG,001,101556,
AFNE01.JPG,AFNE01.JPG,AFNE01.JPG,AFNE01.JPG,AFNE01.JPG,AFNE01.JPG,,,,,,,,,,,,,,,,,,,,,2,7,27,6,,,AMNE05.jpg,AMSA06.jpg,AMNE19.jpg,AMSA20.jpg,AMSA06.jpg,MS,2,num_6,16,num_6,0.899990794947,,,2017_Sep_12_1443,59.9911297097,FEMA4ImagesEEG,001,101556,
AFNE01.JPG,AFNE01.JPG,AFNE01.JPG,AFNE01.JPG,AFNE01.JPG,AFNE01.JPG,,,,,,,,,,,,,,,,,,,,,2,8,28,1,,,AMNE03.jpg,AMSA13.jpg,AMNE06.jpg,AMSA10.jpg,AMNE03.jpg,MN,1,num_8,16,num_8,0.800139072584,,,2017_Sep_12_1443,59.9911297097,FEMA4ImagesEEG,001,101556,
AFNE01.JPG,AFNE01.JPG,AFNE01.JPG,AFNE01.JPG,AFNE01.JPG,AFNE01.JPG,,,,,,,,,,,,,,,,,,,,,2,9,29,4,,,AMSA06.jpg,AMNE18.jpg,AMSA11.jpg,AMNE12.jpg,AMSA11.jpg,MS,2,num_2,32,num_6,0.900119411526,,,2017_Sep_12_1443,59.9911297097,FEMA4ImagesEEG,001,101556,
AFNE01.JPG,AFNE01.JPG,AFNE01.JPG,AFNE01.JPG,AFNE01.JPG,AFNE01.JPG,,,,,,,,,,,,,,,,,,,,,3,0,30,5,,,AMNE10.jpg,AMSA12.jpg,AMNE09.jpg,AMSA02.jpg,AMSA12.jpg,MS,2,num_6,16,num_6,1.00001892354,,,2017_Sep_12_1443,59.9911297097,FEMA4ImagesEEG,001,101556,
AFNE01.JPG,AFNE01.JPG,AFNE01.JPG,AFNE01.JPG,AFNE01.JPG,AFNE01.JPG,,,,,,,,,,,,,,,,,,,,,3,1,31,4,,,AMSA10.jpg,AMNE01.jpg,AMNE16.jpg,AMSA01.jpg,AMSA10.jpg,MS,2,num_8,16,num_8,0.950141654583,,,2017_Sep_12_1443,59.9911297097,FEMA4ImagesEEG,001,101556,
AFNE01.JPG,AFNE01.JPG,AFNE01.JPG,AFNE01.JPG,AFNE01.JPG,AFNE01.JPG,,,,,,,,,,,,,,,,,,,,,3,2,32,1,,,AMNE17.jpg,AMNE02.jpg,AMSA01.jpg,AMSA07.jpg,AMNE02.jpg,MN,1,num_6,32,num_2,0.733504757984,,,2017_Sep_12_1443,59.9911297097,FEMA4ImagesEEG,001,101556,
AFNE01.JPG,AFNE01.JPG,AFNE01.JPG,AFNE01.JPG,AFNE01.JPG,AFNE01.JPG,,,,,,,,,,,,,,,,,,,,,3,3,33,7,,,AMSA19.jpg,AMNE16.jpg,AMSA11.jpg,AMNE05.jpg,AMNE05.jpg,MN,1,num_4,16,num_4,1.08341862331,,,2017_Sep_12_1443,59.9911297097,FEMA4ImagesEEG,001,101556,
AFNE01.JPG,AFNE01.JPG,AFNE01.JPG,AFNE01.JPG,AFNE01.JPG,AFNE01.JPG,,,,,,,,,,,,,,,,,,,,,3,4,34,0,,,AMSA12.jpg,AMSA08.jpg,AMNE12.jpg,AMNE01.jpg,AMNE12.jpg,MN,1,num_2,32,num_8,0.716833991231,,,2017_Sep_12_1443,59.9911297097,FEMA4ImagesEEG,001,101556,
AFNE01.JPG,AFNE01.JPG,AFNE01.JPG,AFNE01.JPG,AFNE01.JPG,AFNE01.JPG,,,,,,,,,,,,,,,,,,,,,3,5,35,2,,,AMSA11.jpg,AMNE15.jpg,AMSA05.jpg,AMNE18.jpg,AMNE18.jpg,MN,1,num_4,32,num_8,0.783473437652,,,2017_Sep_12_1443,59.9911297097,FEMA4ImagesEEG,001,101556,
AFNE01.JPG,AFNE01.JPG,AFNE01.JPG,AFNE01.JPG,AFNE01.JPG,AFNE01.JPG,,,,,,,,,,,,,,,,,,,,,3,6,36,8,,,AMSA19.jpg,AMNE10.jpg,AMNE19.jpg,AMSA18.jpg,AMNE10.jpg,MN,1,num_6,32,num_8,0.683501438471,,,2017_Sep_12_1443,59.9911297097,FEMA4ImagesEEG,001,101556,
AFNE01.JPG,AFNE01.JPG,AFNE01.JPG,AFNE01.JPG,AFNE01.JPG,AFNE01.JPG,,,,,,,,,,,,,,,,,,,,,3,7,37,9,,,AMSA11.jpg,AMNE02.jpg,AMSA08.jpg,AMNE09.jpg,AMNE09.jpg,MN,1,num_4,16,num_4,0.950120165013,,,2017_Sep_12_1443,59.9911297097,FEMA4ImagesEEG,001,101556,
AFNE01.JPG,AFNE01.JPG,AFNE01.JPG,AFNE01.JPG,AFNE01.JPG,AFNE01.JPG,,,,,,,,,,,,,,,,,,,,,3,8,38,3,,,AMSA09.jpg,AMNE11.jpg,AMNE16.jpg,AMSA04.jpg,AMSA09.jpg,MS,2,num_8,16,num_8,1.16677213646,,,2017_Sep_12_1443,59.9911297097,FEMA4ImagesEEG,001,101556,
