IPosition2,IPosition3,IPosition1,IPosition6,IPosition4,IPosition5,TrialsF1.thisRepN,TrialsF1.thisTrialN,TrialsF1.thisN,TrialsF1.thisIndex,TrialsM1.thisRepN,TrialsM1.thisTrialN,TrialsM1.thisN,TrialsM1.thisIndex,TrialsF2.thisRepN,TrialsF2.thisTrialN,TrialsF2.thisN,TrialsF2.thisIndex,TrialsM2.thisRepN,TrialsM2.thisTrialN,TrialsM2.thisN,TrialsM2.thisIndex,TrialsF3.thisRepN,TrialsF3.thisTrialN,TrialsF3.thisN,TrialsF3.thisIndex,TrialsM3.thisRepN,TrialsM3.thisTrialN,TrialsM3.thisN,TrialsM3.thisIndex,InstrKey_resp.keys,InstrKey_resp.rt,Image0 _Position,Image1 _Position,Image2 _Position,Image3 _Position,Center_image,condition,code,correct_answer,accuracy,Key_Resp.keys,Key_Resp.rt,BreakKey_resp.keys,BreakKey_resp.rt,date,frameRate,expName,session,participant,
,,,,,,,,,,,,,,,,,,,,,,,,,,,,,,space,21.1989288577,,,,,,,,,,,,,,2017_Sep_08_1545,60.0085649431,FEMA4ImagesEEG,001,101552,
AMSA21.JPG,AMNE22.JPG,AMNE21.JPG,AMSA23.JPG,AMSA22.JPG,AMNE23.JPG,0,0,0,1,,,,,,,,,,,,,,,,,,,,,,,AFNE20.jpg,AFSA17.jpg,AFSA09.jpg,AFNE10.jpg,AFNE10.jpg,FN,3,num_4,32,num_8,2.03334891063,,,2017_Sep_08_1545,60.0085649431,FEMA4ImagesEEG,001,101552,
AFNE23.JPG,AFNE24.JPG,AFNE22.JPG,AFSA24.JPG,AFSA22.JPG,AFSA23.JPG,0,1,1,8,,,,,,,,,,,,,,,,,,,,,,,AFSA04.jpg,AFNE12.jpg,AFNE02.jpg,AFSA06.jpg,AFSA04.jpg,FS,4,num_8,32,num_6,1.45009145897,,,2017_Sep_08_1545,60.0085649431,FEMA4ImagesEEG,001,101552,
AFSA25.JPG,AFNE24.JPG,AFSA24.JPG,AFNE21.JPG,AFSA21.JPG,AFNE25.JPG,0,2,2,2,,,,,,,,,,,,,,,,,,,,,,,AFSA11.jpg,AFNE20.jpg,AFNE19.jpg,AFSA19.jpg,AFSA19.jpg,FS,4,num_4,32,num_2,2.71659760608,,,2017_Sep_08_1545,60.0085649431,FEMA4ImagesEEG,001,101552,
AMSA21.JPG,AMNE23.JPG,AMNE21.JPG,AMSA25.JPG,AMNE25.JPG,AMSA23.JPG,0,3,3,5,,,,,,,,,,,,,,,,,,,,,,,AFSA05.jpg,AFNE02.jpg,AFNE10.jpg,AFSA07.jpg,AFNE02.jpg,FN,3,num_6,32,num_8,1.36676232191,,,2017_Sep_08_1545,60.0085649431,FEMA4ImagesEEG,001,101552,
AFSA21.JPG,AFNE23.JPG,AFNE21.JPG,AFSA25.JPG,AFNE25.JPG,AFSA23.JPG,0,4,4,4,,,,,,,,,,,,,,,,,,,,,,,AFSA13.jpg,AFNE06.jpg,AFSA10.jpg,AFNE05.jpg,AFNE06.jpg,FN,3,num_6,16,num_6,0.933222635416,,,2017_Sep_08_1545,60.0085649431,FEMA4ImagesEEG,001,101552,
AMSA25.JPG,AMNE24.JPG,AMSA24.JPG,AMNE26.JPG,AMSA21.JPG,AMNE25.JPG,0,5,5,3,,,,,,,,,,,,,,,,,,,,,,,AFNE14.jpg,AFSA19.jpg,AFNE04.jpg,AFSA17.jpg,AFSA19.jpg,FS,4,num_6,16,num_6,0.766745258588,,,2017_Sep_08_1545,60.0085649431,FEMA4ImagesEEG,001,101552,
AFNE22.JPG,AFSA24.JPG,AFSA22.JPG,AFNE25.JPG,AFNE24.JPG,AFSA25.JPG,0,6,6,6,,,,,,,,,,,,,,,,,,,,,,,AFNE17.jpg,AFSA16.jpg,AFSA01.jpg,AFNE16.jpg,AFSA01.jpg,FS,4,num_2,16,num_2,0.666766844457,,,2017_Sep_08_1545,60.0085649431,FEMA4ImagesEEG,001,101552,
AMNE23.JPG,AMNE24.JPG,AMNE22.JPG,AMSA24.JPG,AMSA22.JPG,AMSA23.JPG,0,7,7,9,,,,,,,,,,,,,,,,,,,,,,,AFNE19.jpg,AFNE04.jpg,AFSA13.jpg,AFSA18.jpg,AFSA18.jpg,FS,4,num_4,16,num_4,2.76690049667,,,2017_Sep_08_1545,60.0085649431,FEMA4ImagesEEG,001,101552,
AMNE22.JPG,AMSA24.JPG,AMSA22.JPG,AMNE25.JPG,AMNE24.JPG,AMSA25.JPG,0,8,8,7,,,,,,,,,,,,,,,,,,,,,,,AFSA12.jpg,AFSA10.jpg,AFNE19.jpg,AFNE10.jpg,AFNE19.jpg,FN,3,num_2,16,num_2,1.7167570137,,,2017_Sep_08_1545,60.0085649431,FEMA4ImagesEEG,001,101552,
AFSA21.JPG,AFNE22.JPG,AFNE21.JPG,AFSA23.JPG,AFSA22.JPG,AFNE23.JPG,0,9,9,0,,,,,,,,,,,,,,,,,,,,,,,AFNE02.jpg,AFSA13.jpg,AFSA04.jpg,AFNE01.jpg,AFNE01.jpg,FN,3,num_4,16,num_4,1.33341405285,,,2017_Sep_08_1545,60.0085649431,FEMA4ImagesEEG,001,101552,
AFNE23.JPG,AFNE24.JPG,AFNE22.JPG,AFSA24.JPG,AFSA22.JPG,AFSA23.JPG,,,,,0,0,0,8,,,,,,,,,,,,,,,,,,,AMSA09.jpg,AMNE08.jpg,AMSA19.jpg,AMNE19.jpg,AMNE08.jpg,MN,1,num_6,32,num_4,0.866772745969,,,2017_Sep_08_1545,60.0085649431,FEMA4ImagesEEG,001,101552,
AFSA25.JPG,AFNE24.JPG,AFSA24.JPG,AFNE21.JPG,AFSA21.JPG,AFNE25.JPG,,,,,0,1,1,2,,,,,,,,,,,,,,,,,,,AMNE05.jpg,AMSA07.jpg,AMNE14.jpg,AMSA05.jpg,AMSA07.jpg,MS,2,num_6,16,num_6,1.05011397484,,,2017_Sep_08_1545,60.0085649431,FEMA4ImagesEEG,001,101552,
AMSA25.JPG,AMNE24.JPG,AMSA24.JPG,AMNE26.JPG,AMSA21.JPG,AMNE25.JPG,,,,,0,2,2,3,,,,,,,,,,,,,,,,,,,AMSA08.jpg,AMNE14.jpg,AMSA17.jpg,AMNE16.jpg,AMSA08.jpg,MS,2,num_8,32,num_2,1.93341379613,,,2017_Sep_08_1545,60.0085649431,FEMA4ImagesEEG,001,101552,
AFSA21.JPG,AFNE23.JPG,AFNE21.JPG,AFSA25.JPG,AFNE25.JPG,AFSA23.JPG,,,,,0,3,3,4,,,,,,,,,,,,,,,,,,,AMSA12.jpg,AMNE09.jpg,AMNE07.jpg,AMSA03.jpg,AMNE09.jpg,MN,1,num_6,16,num_6,0.950124013936,,,2017_Sep_08_1545,60.0085649431,FEMA4ImagesEEG,001,101552,
AFNE22.JPG,AFSA24.JPG,AFSA22.JPG,AFNE25.JPG,AFNE24.JPG,AFSA25.JPG,,,,,0,4,4,6,,,,,,,,,,,,,,,,,,,AMNE02.jpg,AMSA07.jpg,AMNE01.jpg,AMSA06.jpg,AMNE02.jpg,MN,1,num_8,32,num_6,1.35007102776,,,2017_Sep_08_1545,60.0085649431,FEMA4ImagesEEG,001,101552,
AMSA21.JPG,AMNE23.JPG,AMNE21.JPG,AMSA25.JPG,AMNE25.JPG,AMSA23.JPG,,,,,0,5,5,5,,,,,,,,,,,,,,,,,,,AMNE13.jpg,AMSA13.jpg,AMNE06.jpg,AMSA12.jpg,AMSA13.jpg,MS,2,num_6,16,num_6,0.783481777064,,,2017_Sep_08_1545,60.0085649431,FEMA4ImagesEEG,001,101552,
AMSA21.JPG,AMNE22.JPG,AMNE21.JPG,AMSA23.JPG,AMSA22.JPG,AMNE23.JPG,,,,,0,6,6,1,,,,,,,,,,,,,,,,,,,AMNE06.jpg,AMNE20.jpg,AMSA14.jpg,AMSA12.jpg,AMSA12.jpg,MS,2,num_4,32,num_6,1.21676519257,,,2017_Sep_08_1545,60.0085649431,FEMA4ImagesEEG,001,101552,
AMNE23.JPG,AMNE24.JPG,AMNE22.JPG,AMSA24.JPG,AMSA22.JPG,AMSA23.JPG,,,,,0,7,7,9,,,,,,,,,,,,,,,,,,,AMSA19.jpg,AMNE12.jpg,AMNE19.jpg,AMSA17.jpg,AMNE19.jpg,MN,1,num_2,16,num_2,1.34987184848,,,2017_Sep_08_1545,60.0085649431,FEMA4ImagesEEG,001,101552,
AFSA21.JPG,AFNE22.JPG,AFNE21.JPG,AFSA23.JPG,AFSA22.JPG,AFNE23.JPG,,,,,0,8,8,0,,,,,,,,,,,,,,,,,,,AMNE06.jpg,AMNE11.jpg,AMSA19.jpg,AMSA11.jpg,AMNE11.jpg,MN,1,num_6,32,num_8,1.1501315193,,,2017_Sep_08_1545,60.0085649431,FEMA4ImagesEEG,001,101552,
AMNE22.JPG,AMSA24.JPG,AMSA22.JPG,AMNE25.JPG,AMNE24.JPG,AMSA25.JPG,,,,,0,9,9,7,,,,,,,,,,,,,,,,,,,AMNE01.jpg,AMNE10.jpg,AMSA07.jpg,AMSA01.jpg,AMNE10.jpg,MN,1,num_6,16,num_6,1.10014295368,,,2017_Sep_08_1545,60.0085649431,FEMA4ImagesEEG,001,101552,
AMNE23.JPG,AMNE24.JPG,AMNE22.JPG,AMSA24.JPG,AMSA22.JPG,AMSA23.JPG,,,,,,,,,0,0,0,9,,,,,,,,,,,,,,,AFSA13.jpg,AFSA03.jpg,AFNE13.jpg,AFNE14.jpg,AFNE14.jpg,FN,3,num_4,32,num_2,1.4500433479,,,2017_Sep_08_1545,60.0085649431,FEMA4ImagesEEG,001,101552,
AFNE22.JPG,AFSA24.JPG,AFSA22.JPG,AFNE25.JPG,AFNE24.JPG,AFSA25.JPG,,,,,,,,,0,1,1,6,,,,,,,,,,,,,,,AFSA16.jpg,AFNE01.jpg,AFSA03.jpg,AFNE16.jpg,AFNE16.jpg,FN,3,num_4,16,num_4,1.60010558751,,,2017_Sep_08_1545,60.0085649431,FEMA4ImagesEEG,001,101552,
AMNE22.JPG,AMSA24.JPG,AMSA22.JPG,AMNE25.JPG,AMNE24.JPG,AMSA25.JPG,,,,,,,,,0,2,2,7,,,,,,,,,,,,,,,AFSA10.jpg,AFSA19.jpg,AFNE17.jpg,AFNE10.jpg,AFSA19.jpg,FS,4,num_6,32,num_2,1.1499698665,,,2017_Sep_08_1545,60.0085649431,FEMA4ImagesEEG,001,101552,
AFSA21.JPG,AFNE22.JPG,AFNE21.JPG,AFSA23.JPG,AFSA22.JPG,AFNE23.JPG,,,,,,,,,0,3,3,0,,,,,,,,,,,,,,,AFSA06.jpg,AFSA15.jpg,AFNE02.jpg,AFNE08.jpg,AFNE08.jpg,FN,3,num_4,16,num_4,1.08341349161,,,2017_Sep_08_1545,60.0085649431,FEMA4ImagesEEG,001,101552,
AFNE23.JPG,AFNE24.JPG,AFNE22.JPG,AFSA24.JPG,AFSA22.JPG,AFSA23.JPG,,,,,,,,,0,4,4,8,,,,,,,,,,,,,,,AFSA14.jpg,AFNE17.jpg,AFNE16.jpg,AFSA12.jpg,AFNE16.jpg,FN,3,num_2,32,num_8,1.21676326811,,,2017_Sep_08_1545,60.0085649431,FEMA4ImagesEEG,001,101552,
AMSA21.JPG,AMNE23.JPG,AMNE21.JPG,AMSA25.JPG,AMNE25.JPG,AMSA23.JPG,,,,,,,,,0,5,5,5,,,,,,,,,,,,,,,AFNE07.jpg,AFNE02.jpg,AFSA11.jpg,AFSA08.jpg,AFSA11.jpg,FS,4,num_2,32,num_4,1.5001082496,,,2017_Sep_08_1545,60.0085649431,FEMA4ImagesEEG,001,101552,
AMSA21.JPG,AMNE22.JPG,AMNE21.JPG,AMSA23.JPG,AMSA22.JPG,AMNE23.JPG,,,,,,,,,0,6,6,1,,,,,,,,,,,,,,,AFNE10.jpg,AFSA20.jpg,AFNE09.jpg,AFSA01.jpg,AFSA20.jpg,FS,4,num_6,16,num_6,0.750073208823,,,2017_Sep_08_1545,60.0085649431,FEMA4ImagesEEG,001,101552,
AFSA21.JPG,AFNE23.JPG,AFNE21.JPG,AFSA25.JPG,AFNE25.JPG,AFSA23.JPG,,,,,,,,,0,7,7,4,,,,,,,,,,,,,,,AFNE12.jpg,AFSA01.jpg,AFSA08.jpg,AFNE18.jpg,AFSA08.jpg,FS,4,num_2,32,num_8,1.45008247811,,,2017_Sep_08_1545,60.0085649431,FEMA4ImagesEEG,001,101552,
AMSA25.JPG,AMNE24.JPG,AMSA24.JPG,AMNE26.JPG,AMSA21.JPG,AMNE25.JPG,,,,,,,,,0,8,8,3,,,,,,,,,,,,,,,AFSA16.jpg,AFSA09.jpg,AFNE09.jpg,AFNE18.jpg,AFNE18.jpg,FN,3,num_4,16,num_4,1.45004174428,,,2017_Sep_08_1545,60.0085649431,FEMA4ImagesEEG,001,101552,
AFSA25.JPG,AFNE24.JPG,AFSA24.JPG,AFNE21.JPG,AFSA21.JPG,AFNE25.JPG,,,,,,,,,0,9,9,2,,,,,,,,,,,,,,,AFSA12.jpg,AFNE06.jpg,AFNE14.jpg,AFSA11.jpg,AFNE06.jpg,FN,3,num_6,32,num_8,1.10017310316,,,2017_Sep_08_1545,60.0085649431,FEMA4ImagesEEG,001,101552,
AFNE23.JPG,AFNE24.JPG,AFNE22.JPG,AFSA24.JPG,AFSA22.JPG,AFSA23.JPG,,,,,,,,,,,,,0,0,0,8,,,,,,,,,,,AMNE10.jpg,AMSA05.jpg,AMNE20.jpg,AMSA19.jpg,AMNE20.jpg,MN,1,num_2,32,num_4,1.06679340173,,,2017_Sep_08_1545,60.0085649431,FEMA4ImagesEEG,001,101552,
AFSA21.JPG,AFNE22.JPG,AFNE21.JPG,AFSA23.JPG,AFSA22.JPG,AFNE23.JPG,,,,,,,,,,,,,0,1,1,0,,,,,,,,,,,AMSA02.jpg,AMNE05.jpg,AMSA01.jpg,AMNE12.jpg,AMNE05.jpg,MN,1,num_6,16,num_6,2.8999673808,,,2017_Sep_08_1545,60.0085649431,FEMA4ImagesEEG,001,101552,
AMSA21.JPG,AMNE22.JPG,AMNE21.JPG,AMSA23.JPG,AMSA22.JPG,AMNE23.JPG,,,,,,,,,,,,,0,2,2,1,,,,,,,,,,,AMSA06.jpg,AMSA20.jpg,AMNE09.jpg,AMNE14.jpg,AMNE09.jpg,MN,1,num_2,16,num_2,1.1501350475,,,2017_Sep_08_1545,60.0085649431,FEMA4ImagesEEG,001,101552,
AMNE23.JPG,AMNE24.JPG,AMNE22.JPG,AMSA24.JPG,AMSA22.JPG,AMSA23.JPG,,,,,,,,,,,,,0,3,3,9,,,,,,,,,,,AMNE11.jpg,AMNE07.jpg,AMSA04.jpg,AMSA12.jpg,AMNE07.jpg,MN,1,num_6,16,num_6,0.633526985301,,,2017_Sep_08_1545,60.0085649431,FEMA4ImagesEEG,001,101552,
AFNE22.JPG,AFSA24.JPG,AFSA22.JPG,AFNE25.JPG,AFNE24.JPG,AFSA25.JPG,,,,,,,,,,,,,0,4,4,6,,,,,,,,,,,AMNE07.jpg,AMSA11.jpg,AMSA20.jpg,AMNE02.jpg,AMNE07.jpg,MN,1,num_8,16,num_8,1.21661412413,,,2017_Sep_08_1545,60.0085649431,FEMA4ImagesEEG,001,101552,
AFSA25.JPG,AFNE24.JPG,AFSA24.JPG,AFNE21.JPG,AFSA21.JPG,AFNE25.JPG,,,,,,,,,,,,,0,5,5,2,,,,,,,,,,,AMSA16.jpg,AMNE01.jpg,AMNE18.jpg,AMSA06.jpg,AMNE18.jpg,MN,1,num_2,32,num_4,1.24980362703,,,2017_Sep_08_1545,60.0085649431,FEMA4ImagesEEG,001,101552,
AMNE22.JPG,AMSA24.JPG,AMSA22.JPG,AMNE25.JPG,AMNE24.JPG,AMSA25.JPG,,,,,,,,,,,,,0,6,6,7,,,,,,,,,,,AMNE04.jpg,AMSA01.jpg,AMNE14.jpg,AMSA14.jpg,AMSA14.jpg,MS,2,num_4,16,num_4,1.23341607349,,,2017_Sep_08_1545,60.0085649431,FEMA4ImagesEEG,001,101552,
AFSA21.JPG,AFNE23.JPG,AFNE21.JPG,AFSA25.JPG,AFNE25.JPG,AFSA23.JPG,,,,,,,,,,,,,0,7,7,4,,,,,,,,,,,AMSA20.jpg,AMNE16.jpg,AMNE15.jpg,AMSA16.jpg,AMNE16.jpg,MN,1,num_6,16,num_6,1.1333205892,,,2017_Sep_08_1545,60.0085649431,FEMA4ImagesEEG,001,101552,
AMSA21.JPG,AMNE23.JPG,AMNE21.JPG,AMSA25.JPG,AMNE25.JPG,AMSA23.JPG,,,,,,,,,,,,,0,8,8,5,,,,,,,,,,,AMSA04.jpg,AMNE02.jpg,AMNE07.jpg,AMSA01.jpg,AMSA01.jpg,MS,2,num_4,16,num_4,0.800157354912,,,2017_Sep_08_1545,60.0085649431,FEMA4ImagesEEG,001,101552,
AMSA25.JPG,AMNE24.JPG,AMSA24.JPG,AMNE26.JPG,AMSA21.JPG,AMNE25.JPG,,,,,,,,,,,,,0,9,9,3,,,,,,,,,,,AMNE02.jpg,AMNE20.jpg,AMSA13.jpg,AMSA18.jpg,AMNE02.jpg,MN,1,num_8,32,num_2,1.46677473455,,,2017_Sep_08_1545,60.0085649431,FEMA4ImagesEEG,001,101552,
AFNE23.JPG,AFNE24.JPG,AFNE22.JPG,AFSA24.JPG,AFSA22.JPG,AFSA23.JPG,,,,,,,,,,,,,,,,,0,0,0,8,,,,,,,AFNE03.jpg,AFNE05.jpg,AFSA15.jpg,AFSA17.jpg,AFNE05.jpg,FN,3,num_6,32,num_8,1.88338930777,,,2017_Sep_08_1545,60.0085649431,FEMA4ImagesEEG,001,101552,
AFNE22.JPG,AFSA24.JPG,AFSA22.JPG,AFNE25.JPG,AFNE24.JPG,AFSA25.JPG,,,,,,,,,,,,,,,,,0,1,1,6,,,,,,,AFNE15.jpg,AFSA15.jpg,AFSA02.jpg,AFNE03.jpg,AFNE15.jpg,FN,3,num_8,16,num_8,0.500170152402,,,2017_Sep_08_1545,60.0085649431,FEMA4ImagesEEG,001,101552,
AFSA25.JPG,AFNE24.JPG,AFSA24.JPG,AFNE21.JPG,AFSA21.JPG,AFNE25.JPG,,,,,,,,,,,,,,,,,0,2,2,2,,,,,,,AFSA16.jpg,AFNE12.jpg,AFNE13.jpg,AFSA15.jpg,AFSA16.jpg,FS,4,num_8,16,num_8,1.08343081153,,,2017_Sep_08_1545,60.0085649431,FEMA4ImagesEEG,001,101552,
AMSA25.JPG,AMNE24.JPG,AMSA24.JPG,AMNE26.JPG,AMSA21.JPG,AMNE25.JPG,,,,,,,,,,,,,,,,,0,3,3,3,,,,,,,AFNE03.jpg,AFSA02.jpg,AFNE20.jpg,AFSA06.jpg,AFNE20.jpg,FN,3,num_2,32,num_4,1.61669264117,,,2017_Sep_08_1545,60.0085649431,FEMA4ImagesEEG,001,101552,
AFSA21.JPG,AFNE22.JPG,AFNE21.JPG,AFSA23.JPG,AFSA22.JPG,AFNE23.JPG,,,,,,,,,,,,,,,,,0,4,4,0,,,,,,,AFSA07.jpg,AFNE10.jpg,AFNE15.jpg,AFSA16.jpg,AFNE10.jpg,FN,3,num_6,16,num_6,1.38341031619,,,2017_Sep_08_1545,60.0085649431,FEMA4ImagesEEG,001,101552,
AMSA21.JPG,AMNE23.JPG,AMNE21.JPG,AMSA25.JPG,AMNE25.JPG,AMSA23.JPG,,,,,,,,,,,,,,,,,0,5,5,5,,,,,,,AFNE04.jpg,AFSA17.jpg,AFNE14.jpg,AFSA02.jpg,AFSA02.jpg,FS,4,num_4,16,num_4,0.583552532247,,,2017_Sep_08_1545,60.0085649431,FEMA4ImagesEEG,001,101552,
AMSA21.JPG,AMNE22.JPG,AMNE21.JPG,AMSA23.JPG,AMSA22.JPG,AMNE23.JPG,,,,,,,,,,,,,,,,,0,6,6,1,,,,,,,AFSA09.jpg,AFNE20.jpg,AFSA05.jpg,AFNE08.jpg,AFSA05.jpg,FS,4,num_2,16,num_2,0.716754768509,,,2017_Sep_08_1545,60.0085649431,FEMA4ImagesEEG,001,101552,
AMNE23.JPG,AMNE24.JPG,AMNE22.JPG,AMSA24.JPG,AMSA22.JPG,AMSA23.JPG,,,,,,,,,,,,,,,,,0,7,7,9,,,,,,,AFSA12.jpg,AFSA16.jpg,AFNE15.jpg,AFNE10.jpg,AFNE15.jpg,FN,3,num_2,32,num_4,1.0000946183,,,2017_Sep_08_1545,60.0085649431,FEMA4ImagesEEG,001,101552,
AMNE22.JPG,AMSA24.JPG,AMSA22.JPG,AMNE25.JPG,AMNE24.JPG,AMSA25.JPG,,,,,,,,,,,,,,,,,0,8,8,7,,,,,,,AFNE13.jpg,AFNE06.jpg,AFSA01.jpg,AFSA18.jpg,AFSA01.jpg,FS,4,num_2,16,num_2,1.40008974297,,,2017_Sep_08_1545,60.0085649431,FEMA4ImagesEEG,001,101552,
AFSA21.JPG,AFNE23.JPG,AFNE21.JPG,AFSA25.JPG,AFNE25.JPG,AFSA23.JPG,,,,,,,,,,,,,,,,,0,9,9,4,,,,,,,AFNE06.jpg,AFSA17.jpg,AFSA14.jpg,AFNE16.jpg,AFNE06.jpg,FN,3,num_8,16,num_8,1.40004099056,,,2017_Sep_08_1545,60.0085649431,FEMA4ImagesEEG,001,101552,
AFSA21.JPG,AFNE22.JPG,AFNE21.JPG,AFSA23.JPG,AFSA22.JPG,AFNE23.JPG,,,,,,,,,,,,,,,,,,,,,0,0,0,0,,,AMSA07.jpg,AMNE17.jpg,AMNE06.jpg,AMSA04.jpg,AMSA04.jpg,MS,2,num_4,16,num_4,0.600125794066,,,2017_Sep_08_1545,60.0085649431,FEMA4ImagesEEG,001,101552,
AFSA25.JPG,AFNE24.JPG,AFSA24.JPG,AFNE21.JPG,AFSA21.JPG,AFNE25.JPG,,,,,,,,,,,,,,,,,,,,,0,1,1,2,,,AMSA13.jpg,AMNE14.jpg,AMSA05.jpg,AMNE07.jpg,AMSA05.jpg,MS,2,num_2,32,num_4,0.88314201741,,,2017_Sep_08_1545,60.0085649431,FEMA4ImagesEEG,001,101552,
AFNE22.JPG,AFSA24.JPG,AFSA22.JPG,AFNE25.JPG,AFNE24.JPG,AFSA25.JPG,,,,,,,,,,,,,,,,,,,,,0,2,2,6,,,AMSA18.jpg,AMNE20.jpg,AMSA20.jpg,AMNE12.jpg,AMSA20.jpg,MS,2,num_2,32,num_6,3.04990902217,,,2017_Sep_08_1545,60.0085649431,FEMA4ImagesEEG,001,101552,
AMSA21.JPG,AMNE23.JPG,AMNE21.JPG,AMSA25.JPG,AMNE25.JPG,AMSA23.JPG,,,,,,,,,,,,,,,,,,,,,0,3,3,5,,,AMNE03.jpg,AMNE14.jpg,AMSA11.jpg,AMSA05.jpg,AMSA05.jpg,MS,2,num_4,32,num_8,1.28349252173,,,2017_Sep_08_1545,60.0085649431,FEMA4ImagesEEG,001,101552,
AMNE23.JPG,AMNE24.JPG,AMNE22.JPG,AMSA24.JPG,AMSA22.JPG,AMSA23.JPG,,,,,,,,,,,,,,,,,,,,,0,4,4,9,,,AMSA08.jpg,AMSA19.jpg,AMNE18.jpg,AMNE20.jpg,AMNE20.jpg,MN,1,num_4,16,num_4,1.43340722111,,,2017_Sep_08_1545,60.0085649431,FEMA4ImagesEEG,001,101552,
AMSA21.JPG,AMNE22.JPG,AMNE21.JPG,AMSA23.JPG,AMSA22.JPG,AMNE23.JPG,,,,,,,,,,,,,,,,,,,,,0,5,5,1,,,AMNE10.jpg,AMSA10.jpg,AMSA06.jpg,AMNE09.jpg,AMSA06.jpg,MS,2,num_2,16,num_2,1.0997750652,,,2017_Sep_08_1545,60.0085649431,FEMA4ImagesEEG,001,101552,
AMSA25.JPG,AMNE24.JPG,AMSA24.JPG,AMNE26.JPG,AMSA21.JPG,AMNE25.JPG,,,,,,,,,,,,,,,,,,,,,0,6,6,3,,,AMSA02.jpg,AMNE01.jpg,AMNE15.jpg,AMSA07.jpg,AMSA07.jpg,MS,2,num_4,16,num_4,0.933437530883,,,2017_Sep_08_1545,60.0085649431,FEMA4ImagesEEG,001,101552,
AMNE22.JPG,AMSA24.JPG,AMSA22.JPG,AMNE25.JPG,AMNE24.JPG,AMSA25.JPG,,,,,,,,,,,,,,,,,,,,,0,7,7,7,,,AMSA09.jpg,AMNE16.jpg,AMSA13.jpg,AMNE04.jpg,AMSA09.jpg,MS,2,num_8,32,num_2,1.00014176697,,,2017_Sep_08_1545,60.0085649431,FEMA4ImagesEEG,001,101552,
AFNE23.JPG,AFNE24.JPG,AFNE22.JPG,AFSA24.JPG,AFSA22.JPG,AFSA23.JPG,,,,,,,,,,,,,,,,,,,,,0,8,8,8,,,AMSA20.jpg,AMNE06.jpg,AMNE20.jpg,AMSA03.jpg,AMNE06.jpg,MN,1,num_6,16,num_6,0.950158653897,,,2017_Sep_08_1545,60.0085649431,FEMA4ImagesEEG,001,101552,
AFSA21.JPG,AFNE23.JPG,AFNE21.JPG,AFSA25.JPG,AFNE25.JPG,AFSA23.JPG,,,,,,,,,,,,,,,,,,,,,0,9,9,4,,,AMNE14.jpg,AMNE04.jpg,AMSA11.jpg,AMSA18.jpg,AMSA18.jpg,MS,2,num_4,16,num_4,0.800067547709,,,2017_Sep_08_1545,60.0085649431,FEMA4ImagesEEG,001,101552,
,,,,,,,,,,,,,,,,,,,,,,,,,,,,,,,,,,,,,,,,,,,space,14.9990416298,2017_Sep_08_1545,60.0085649431,FEMA4ImagesEEG,001,101552,
AFNE01.JPG,AFNE01.JPG,AFNE01.JPG,AFNE01.JPG,AFNE01.JPG,AFNE01.JPG,0,0,0,1,,,,,,,,,,,,,,,,,,,,,,,AFSA17.jpg,AFNE06.jpg,AFSA04.jpg,AFNE20.jpg,AFNE06.jpg,FN,3,num_6,48,None,,,,2017_Sep_08_1545,60.0085649431,FEMA4ImagesEEG,001,101552,
AFNE01.JPG,AFNE01.JPG,AFNE01.JPG,AFNE01.JPG,AFNE01.JPG,AFNE01.JPG,0,1,1,6,,,,,,,,,,,,,,,,,,,,,,,AFSA17.jpg,AFNE01.jpg,AFSA11.jpg,AFNE16.jpg,AFNE01.jpg,FN,3,num_6,16,num_6,0.66680725757,,,2017_Sep_08_1545,60.0085649431,FEMA4ImagesEEG,001,101552,
AFNE01.JPG,AFNE01.JPG,AFNE01.JPG,AFNE01.JPG,AFNE01.JPG,AFNE01.JPG,0,2,2,9,,,,,,,,,,,,,,,,,,,,,,,AFNE02.jpg,AFSA16.jpg,AFNE17.jpg,AFSA19.jpg,AFSA19.jpg,FS,4,num_4,32,num_8,2.84995668405,,,2017_Sep_08_1545,60.0085649431,FEMA4ImagesEEG,001,101552,
AFNE01.JPG,AFNE01.JPG,AFNE01.JPG,AFNE01.JPG,AFNE01.JPG,AFNE01.JPG,0,3,3,0,,,,,,,,,,,,,,,,,,,,,,,AFNE20.jpg,AFSA15.jpg,AFNE11.jpg,AFSA10.jpg,AFSA15.jpg,FS,4,num_6,32,num_4,1.06678345858,,,2017_Sep_08_1545,60.0085649431,FEMA4ImagesEEG,001,101552,
AFNE01.JPG,AFNE01.JPG,AFNE01.JPG,AFNE01.JPG,AFNE01.JPG,AFNE01.JPG,0,4,4,7,,,,,,,,,,,,,,,,,,,,,,,AFNE06.jpg,AFNE20.jpg,AFSA02.jpg,AFSA19.jpg,AFSA19.jpg,FS,4,num_4,32,num_8,1.25007208623,,,2017_Sep_08_1545,60.0085649431,FEMA4ImagesEEG,001,101552,
AFNE01.JPG,AFNE01.JPG,AFNE01.JPG,AFNE01.JPG,AFNE01.JPG,AFNE01.JPG,0,5,5,4,,,,,,,,,,,,,,,,,,,,,,,AFNE05.jpg,AFSA16.jpg,AFNE09.jpg,AFSA07.jpg,AFNE09.jpg,FN,3,num_2,32,num_6,1.6499748379,,,2017_Sep_08_1545,60.0085649431,FEMA4ImagesEEG,001,101552,
AFNE01.JPG,AFNE01.JPG,AFNE01.JPG,AFNE01.JPG,AFNE01.JPG,AFNE01.JPG,0,6,6,3,,,,,,,,,,,,,,,,,,,,,,,AFNE05.jpg,AFSA18.jpg,AFNE20.jpg,AFSA11.jpg,AFSA11.jpg,FS,4,num_4,32,num_8,1.26674189081,,,2017_Sep_08_1545,60.0085649431,FEMA4ImagesEEG,001,101552,
AFNE01.JPG,AFNE01.JPG,AFNE01.JPG,AFNE01.JPG,AFNE01.JPG,AFNE01.JPG,0,7,7,8,,,,,,,,,,,,,,,,,,,,,,,AFSA12.jpg,AFNE20.jpg,AFSA05.jpg,AFNE19.jpg,AFNE19.jpg,FN,3,num_4,16,num_4,0.850104865851,,,2017_Sep_08_1545,60.0085649431,FEMA4ImagesEEG,001,101552,
AFNE01.JPG,AFNE01.JPG,AFNE01.JPG,AFNE01.JPG,AFNE01.JPG,AFNE01.JPG,0,8,8,2,,,,,,,,,,,,,,,,,,,,,,,AFNE01.jpg,AFNE05.jpg,AFSA11.jpg,AFSA01.jpg,AFNE05.jpg,FN,3,num_6,16,num_6,0.516772601637,,,2017_Sep_08_1545,60.0085649431,FEMA4ImagesEEG,001,101552,
AFNE01.JPG,AFNE01.JPG,AFNE01.JPG,AFNE01.JPG,AFNE01.JPG,AFNE01.JPG,0,9,9,5,,,,,,,,,,,,,,,,,,,,,,,AFSA12.jpg,AFNE03.jpg,AFNE10.jpg,AFSA09.jpg,AFSA12.jpg,FS,4,num_8,16,num_8,1.8001390727,,,2017_Sep_08_1545,60.0085649431,FEMA4ImagesEEG,001,101552,
AFNE01.JPG,AFNE01.JPG,AFNE01.JPG,AFNE01.JPG,AFNE01.JPG,AFNE01.JPG,1,0,10,2,,,,,,,,,,,,,,,,,,,,,,,AFNE04.jpg,AFNE16.jpg,AFSA19.jpg,AFSA13.jpg,AFSA19.jpg,FS,4,num_2,16,num_2,1.75004658743,,,2017_Sep_08_1545,60.0085649431,FEMA4ImagesEEG,001,101552,
AFNE01.JPG,AFNE01.JPG,AFNE01.JPG,AFNE01.JPG,AFNE01.JPG,AFNE01.JPG,1,1,11,1,,,,,,,,,,,,,,,,,,,,,,,AFSA15.jpg,AFNE13.jpg,AFNE03.jpg,AFSA04.jpg,AFSA15.jpg,FS,4,num_8,32,num_4,2.55005287391,,,2017_Sep_08_1545,60.0085649431,FEMA4ImagesEEG,001,101552,
AFNE01.JPG,AFNE01.JPG,AFNE01.JPG,AFNE01.JPG,AFNE01.JPG,AFNE01.JPG,1,2,12,0,,,,,,,,,,,,,,,,,,,,,,,AFSA03.jpg,AFSA14.jpg,AFNE05.jpg,AFNE16.jpg,AFSA03.jpg,FS,4,num_8,32,num_6,1.63337848277,,,2017_Sep_08_1545,60.0085649431,FEMA4ImagesEEG,001,101552,
AFNE01.JPG,AFNE01.JPG,AFNE01.JPG,AFNE01.JPG,AFNE01.JPG,AFNE01.JPG,1,3,13,7,,,,,,,,,,,,,,,,,,,,,,,AFSA15.jpg,AFNE18.jpg,AFNE07.jpg,AFSA12.jpg,AFNE18.jpg,FN,3,num_6,32,num_4,1.23349144729,,,2017_Sep_08_1545,60.0085649431,FEMA4ImagesEEG,001,101552,
AFNE01.JPG,AFNE01.JPG,AFNE01.JPG,AFNE01.JPG,AFNE01.JPG,AFNE01.JPG,1,4,14,4,,,,,,,,,,,,,,,,,,,,,,,AFSA15.jpg,AFSA08.jpg,AFNE18.jpg,AFNE14.jpg,AFSA08.jpg,FS,4,num_6,32,num_8,1.50008002459,,,2017_Sep_08_1545,60.0085649431,FEMA4ImagesEEG,001,101552,
AFNE01.JPG,AFNE01.JPG,AFNE01.JPG,AFNE01.JPG,AFNE01.JPG,AFNE01.JPG,1,5,15,5,,,,,,,,,,,,,,,,,,,,,,,AFSA19.jpg,AFNE09.jpg,AFNE04.jpg,AFSA18.jpg,AFSA18.jpg,FS,4,num_4,32,num_6,2.21697720152,,,2017_Sep_08_1545,60.0085649431,FEMA4ImagesEEG,001,101552,
AFNE01.JPG,AFNE01.JPG,AFNE01.JPG,AFNE01.JPG,AFNE01.JPG,AFNE01.JPG,1,6,16,8,,,,,,,,,,,,,,,,,,,,,,,AFNE15.jpg,AFNE16.jpg,AFSA16.jpg,AFSA02.jpg,AFSA02.jpg,FS,4,num_4,16,num_4,1.41910158878,,,2017_Sep_08_1545,60.0085649431,FEMA4ImagesEEG,001,101552,
AFNE01.JPG,AFNE01.JPG,AFNE01.JPG,AFNE01.JPG,AFNE01.JPG,AFNE01.JPG,1,7,17,6,,,,,,,,,,,,,,,,,,,,,,,AFNE09.jpg,AFSA12.jpg,AFNE15.jpg,AFSA06.jpg,AFNE15.jpg,FN,3,num_2,16,num_2,1.75011362205,,,2017_Sep_08_1545,60.0085649431,FEMA4ImagesEEG,001,101552,
AFNE01.JPG,AFNE01.JPG,AFNE01.JPG,AFNE01.JPG,AFNE01.JPG,AFNE01.JPG,1,8,18,3,,,,,,,,,,,,,,,,,,,,,,,AFNE15.jpg,AFNE19.jpg,AFSA04.jpg,AFSA13.jpg,AFSA13.jpg,FS,4,num_4,16,num_4,0.966732878122,,,2017_Sep_08_1545,60.0085649431,FEMA4ImagesEEG,001,101552,
AFNE01.JPG,AFNE01.JPG,AFNE01.JPG,AFNE01.JPG,AFNE01.JPG,AFNE01.JPG,1,9,19,9,,,,,,,,,,,,,,,,,,,,,,,AFSA02.jpg,AFNE14.jpg,AFNE17.jpg,AFSA19.jpg,AFNE14.jpg,FN,3,num_6,16,num_6,0.950122731039,,,2017_Sep_08_1545,60.0085649431,FEMA4ImagesEEG,001,101552,
AFNE01.JPG,AFNE01.JPG,AFNE01.JPG,AFNE01.JPG,AFNE01.JPG,AFNE01.JPG,2,0,20,3,,,,,,,,,,,,,,,,,,,,,,,AFNE20.jpg,AFSA11.jpg,AFNE03.jpg,AFSA13.jpg,AFNE03.jpg,FN,3,num_2,32,num_4,0.90013576916,,,2017_Sep_08_1545,60.0085649431,FEMA4ImagesEEG,001,101552,
AFNE01.JPG,AFNE01.JPG,AFNE01.JPG,AFNE01.JPG,AFNE01.JPG,AFNE01.JPG,2,1,21,8,,,,,,,,,,,,,,,,,,,,,,,AFNE11.jpg,AFNE16.jpg,AFSA14.jpg,AFSA11.jpg,AFSA11.jpg,FS,4,num_4,16,num_4,2.00005709159,,,2017_Sep_08_1545,60.0085649431,FEMA4ImagesEEG,001,101552,
AFNE01.JPG,AFNE01.JPG,AFNE01.JPG,AFNE01.JPG,AFNE01.JPG,AFNE01.JPG,2,2,22,0,,,,,,,,,,,,,,,,,,,,,,,AFSA02.jpg,AFNE20.jpg,AFSA14.jpg,AFNE14.jpg,AFSA14.jpg,FS,4,num_2,16,num_2,1.03340215341,,,2017_Sep_08_1545,60.0085649431,FEMA4ImagesEEG,001,101552,
AFNE01.JPG,AFNE01.JPG,AFNE01.JPG,AFNE01.JPG,AFNE01.JPG,AFNE01.JPG,2,3,23,7,,,,,,,,,,,,,,,,,,,,,,,AFNE09.jpg,AFSA15.jpg,AFNE19.jpg,AFSA04.jpg,AFSA04.jpg,FS,4,num_4,16,num_4,1.19977400685,,,2017_Sep_08_1545,60.0085649431,FEMA4ImagesEEG,001,101552,
AFNE01.JPG,AFNE01.JPG,AFNE01.JPG,AFNE01.JPG,AFNE01.JPG,AFNE01.JPG,2,4,24,2,,,,,,,,,,,,,,,,,,,,,,,AFNE07.jpg,AFSA04.jpg,AFSA17.jpg,AFNE16.jpg,AFSA04.jpg,FS,4,num_6,32,num_4,2.30004172819,,,2017_Sep_08_1545,60.0085649431,FEMA4ImagesEEG,001,101552,
AFNE01.JPG,AFNE01.JPG,AFNE01.JPG,AFNE01.JPG,AFNE01.JPG,AFNE01.JPG,2,5,25,9,,,,,,,,,,,,,,,,,,,,,,,AFNE16.jpg,AFNE08.jpg,AFSA02.jpg,AFSA06.jpg,AFSA06.jpg,FS,4,num_4,16,num_4,1.06681970228,,,2017_Sep_08_1545,60.0085649431,FEMA4ImagesEEG,001,101552,
AFNE01.JPG,AFNE01.JPG,AFNE01.JPG,AFNE01.JPG,AFNE01.JPG,AFNE01.JPG,2,6,26,1,,,,,,,,,,,,,,,,,,,,,,,AFSA15.jpg,AFNE03.jpg,AFSA10.jpg,AFNE01.jpg,AFNE01.jpg,FN,3,num_4,32,num_6,0.90010048775,,,2017_Sep_08_1545,60.0085649431,FEMA4ImagesEEG,001,101552,
AFNE01.JPG,AFNE01.JPG,AFNE01.JPG,AFNE01.JPG,AFNE01.JPG,AFNE01.JPG,2,7,27,6,,,,,,,,,,,,,,,,,,,,,,,AFNE15.jpg,AFSA01.jpg,AFNE19.jpg,AFSA08.jpg,AFSA08.jpg,FS,4,num_4,16,num_4,2.36664396897,,,2017_Sep_08_1545,60.0085649431,FEMA4ImagesEEG,001,101552,
AFNE01.JPG,AFNE01.JPG,AFNE01.JPG,AFNE01.JPG,AFNE01.JPG,AFNE01.JPG,2,8,28,4,,,,,,,,,,,,,,,,,,,,,,,AFNE17.jpg,AFSA20.jpg,AFSA16.jpg,AFNE20.jpg,AFSA20.jpg,FS,4,num_6,32,num_2,1.71663513267,,,2017_Sep_08_1545,60.0085649431,FEMA4ImagesEEG,001,101552,
AFNE01.JPG,AFNE01.JPG,AFNE01.JPG,AFNE01.JPG,AFNE01.JPG,AFNE01.JPG,2,9,29,5,,,,,,,,,,,,,,,,,,,,,,,AFNE14.jpg,AFSA14.jpg,AFNE16.jpg,AFSA11.jpg,AFSA14.jpg,FS,4,num_6,16,num_6,1.11679607979,,,2017_Sep_08_1545,60.0085649431,FEMA4ImagesEEG,001,101552,
AFNE01.JPG,AFNE01.JPG,AFNE01.JPG,AFNE01.JPG,AFNE01.JPG,AFNE01.JPG,3,0,30,5,,,,,,,,,,,,,,,,,,,,,,,AFSA19.jpg,AFNE01.jpg,AFSA10.jpg,AFNE17.jpg,AFSA19.jpg,FS,4,num_8,16,num_8,0.86675029411,,,2017_Sep_08_1545,60.0085649431,FEMA4ImagesEEG,001,101552,
AFNE01.JPG,AFNE01.JPG,AFNE01.JPG,AFNE01.JPG,AFNE01.JPG,AFNE01.JPG,3,1,31,2,,,,,,,,,,,,,,,,,,,,,,,AFNE18.jpg,AFSA14.jpg,AFSA11.jpg,AFNE20.jpg,AFNE18.jpg,FN,3,num_8,32,num_4,1.1667698914,,,2017_Sep_08_1545,60.0085649431,FEMA4ImagesEEG,001,101552,
AFNE01.JPG,AFNE01.JPG,AFNE01.JPG,AFNE01.JPG,AFNE01.JPG,AFNE01.JPG,3,2,32,9,,,,,,,,,,,,,,,,,,,,,,,AFSA09.jpg,AFNE06.jpg,AFSA11.jpg,AFNE19.jpg,AFNE19.jpg,FN,3,num_4,16,num_4,0.616837294889,,,2017_Sep_08_1545,60.0085649431,FEMA4ImagesEEG,001,101552,
AFNE01.JPG,AFNE01.JPG,AFNE01.JPG,AFNE01.JPG,AFNE01.JPG,AFNE01.JPG,3,3,33,0,,,,,,,,,,,,,,,,,,,,,,,AFNE01.jpg,AFSA13.jpg,AFSA08.jpg,AFNE06.jpg,AFNE06.jpg,FN,3,num_4,32,num_6,1.66648555559,,,2017_Sep_08_1545,60.0085649431,FEMA4ImagesEEG,001,101552,
AFNE01.JPG,AFNE01.JPG,AFNE01.JPG,AFNE01.JPG,AFNE01.JPG,AFNE01.JPG,3,4,34,3,,,,,,,,,,,,,,,,,,,,,,,AFSA07.jpg,AFNE05.jpg,AFSA18.jpg,AFNE18.jpg,AFSA07.jpg,FS,4,num_8,32,num_4,1.45009338332,,,2017_Sep_08_1545,60.0085649431,FEMA4ImagesEEG,001,101552,
AFNE01.JPG,AFNE01.JPG,AFNE01.JPG,AFNE01.JPG,AFNE01.JPG,AFNE01.JPG,3,5,35,6,,,,,,,,,,,,,,,,,,,,,,,AFNE16.jpg,AFSA02.jpg,AFNE07.jpg,AFSA09.jpg,AFNE16.jpg,FN,3,num_8,32,num_6,1.55019688606,,,2017_Sep_08_1545,60.0085649431,FEMA4ImagesEEG,001,101552,
AFNE01.JPG,AFNE01.JPG,AFNE01.JPG,AFNE01.JPG,AFNE01.JPG,AFNE01.JPG,3,6,36,4,,,,,,,,,,,,,,,,,,,,,,,AFSA18.jpg,AFNE09.jpg,AFNE11.jpg,AFSA07.jpg,AFNE09.jpg,FN,3,num_6,32,num_4,2.15004459885,,,2017_Sep_08_1545,60.0085649431,FEMA4ImagesEEG,001,101552,
AFNE01.JPG,AFNE01.JPG,AFNE01.JPG,AFNE01.JPG,AFNE01.JPG,AFNE01.JPG,3,7,37,1,,,,,,,,,,,,,,,,,,,,,,,AFSA05.jpg,AFNE07.jpg,AFSA10.jpg,AFNE01.jpg,AFSA05.jpg,FS,4,num_8,32,num_4,1.083460961,,,2017_Sep_08_1545,60.0085649431,FEMA4ImagesEEG,001,101552,
AFNE01.JPG,AFNE01.JPG,AFNE01.JPG,AFNE01.JPG,AFNE01.JPG,AFNE01.JPG,3,8,38,7,,,,,,,,,,,,,,,,,,,,,,,AFSA11.jpg,AFNE15.jpg,AFSA18.jpg,AFNE17.jpg,AFSA18.jpg,FS,4,num_2,16,num_2,1.13346588425,,,2017_Sep_08_1545,60.0085649431,FEMA4ImagesEEG,001,101552,
AFNE01.JPG,AFNE01.JPG,AFNE01.JPG,AFNE01.JPG,AFNE01.JPG,AFNE01.JPG,3,9,39,8,,,,,,,,,,,,,,,,,,,,,,,AFNE09.jpg,AFSA16.jpg,AFNE07.jpg,AFSA14.jpg,AFNE07.jpg,FN,3,num_2,32,num_4,1.09996879206,,,2017_Sep_08_1545,60.0085649431,FEMA4ImagesEEG,001,101552,
AFNE01.JPG,AFNE01.JPG,AFNE01.JPG,AFNE01.JPG,AFNE01.JPG,AFNE01.JPG,4,0,40,1,,,,,,,,,,,,,,,,,,,,,,,AFNE15.jpg,AFSA19.jpg,AFSA20.jpg,AFNE07.jpg,AFNE07.jpg,FN,3,num_4,32,num_8,1.11678421241,,,2017_Sep_08_1545,60.0085649431,FEMA4ImagesEEG,001,101552,
AFNE01.JPG,AFNE01.JPG,AFNE01.JPG,AFNE01.JPG,AFNE01.JPG,AFNE01.JPG,4,1,41,9,,,,,,,,,,,,,,,,,,,,,,,AFNE16.jpg,AFSA13.jpg,AFSA17.jpg,AFNE19.jpg,AFNE19.jpg,FN,3,num_4,16,num_4,1.08347026247,,,2017_Sep_08_1545,60.0085649431,FEMA4ImagesEEG,001,101552,
AFNE01.JPG,AFNE01.JPG,AFNE01.JPG,AFNE01.JPG,AFNE01.JPG,AFNE01.JPG,4,2,42,7,,,,,,,,,,,,,,,,,,,,,,,AFNE14.jpg,AFNE07.jpg,AFSA02.jpg,AFSA06.jpg,AFNE07.jpg,FN,3,num_6,16,num_6,0.883476548945,,,2017_Sep_08_1545,60.0085649431,FEMA4ImagesEEG,001,101552,
AFNE01.JPG,AFNE01.JPG,AFNE01.JPG,AFNE01.JPG,AFNE01.JPG,AFNE01.JPG,4,3,43,0,,,,,,,,,,,,,,,,,,,,,,,AFNE01.jpg,AFSA01.jpg,AFNE02.jpg,AFSA12.jpg,AFSA12.jpg,FS,4,num_4,16,num_4,0.583482610993,,,2017_Sep_08_1545,60.0085649431,FEMA4ImagesEEG,001,101552,
AFNE01.JPG,AFNE01.JPG,AFNE01.JPG,AFNE01.JPG,AFNE01.JPG,AFNE01.JPG,4,4,44,5,,,,,,,,,,,,,,,,,,,,,,,AFSA14.jpg,AFNE20.jpg,AFSA19.jpg,AFNE05.jpg,AFNE05.jpg,FN,3,num_4,16,num_4,0.733512135106,,,2017_Sep_08_1545,60.0085649431,FEMA4ImagesEEG,001,101552,
AFNE01.JPG,AFNE01.JPG,AFNE01.JPG,AFNE01.JPG,AFNE01.JPG,AFNE01.JPG,4,5,45,4,,,,,,,,,,,,,,,,,,,,,,,AFNE11.jpg,AFSA02.jpg,AFNE06.jpg,AFSA10.jpg,AFSA02.jpg,FS,4,num_6,16,num_6,1.30010234797,,,2017_Sep_08_1545,60.0085649431,FEMA4ImagesEEG,001,101552,
AFNE01.JPG,AFNE01.JPG,AFNE01.JPG,AFNE01.JPG,AFNE01.JPG,AFNE01.JPG,4,6,46,8,,,,,,,,,,,,,,,,,,,,,,,AFNE12.jpg,AFNE01.jpg,AFSA14.jpg,AFSA08.jpg,AFSA14.jpg,FS,4,num_2,16,num_2,1.68348026962,,,2017_Sep_08_1545,60.0085649431,FEMA4ImagesEEG,001,101552,
AFNE01.JPG,AFNE01.JPG,AFNE01.JPG,AFNE01.JPG,AFNE01.JPG,AFNE01.JPG,4,7,47,2,,,,,,,,,,,,,,,,,,,,,,,AFSA13.jpg,AFNE10.jpg,AFSA14.jpg,AFNE05.jpg,AFNE10.jpg,FN,3,num_6,32,num_2,1.0334945264,,,2017_Sep_08_1545,60.0085649431,FEMA4ImagesEEG,001,101552,
AFNE01.JPG,AFNE01.JPG,AFNE01.JPG,AFNE01.JPG,AFNE01.JPG,AFNE01.JPG,4,8,48,6,,,,,,,,,,,,,,,,,,,,,,,AFNE20.jpg,AFSA01.jpg,AFSA10.jpg,AFNE04.jpg,AFNE04.jpg,FN,3,num_4,16,num_4,0.816727088648,,,2017_Sep_08_1545,60.0085649431,FEMA4ImagesEEG,001,101552,
AFNE01.JPG,AFNE01.JPG,AFNE01.JPG,AFNE01.JPG,AFNE01.JPG,AFNE01.JPG,4,9,49,3,,,,,,,,,,,,,,,,,,,,,,,AFSA04.jpg,AFNE06.jpg,AFNE18.jpg,AFSA17.jpg,AFNE18.jpg,FN,3,num_2,16,num_2,1.2167520423,,,2017_Sep_08_1545,60.0085649431,FEMA4ImagesEEG,001,101552,
AFNE01.JPG,AFNE01.JPG,AFNE01.JPG,AFNE01.JPG,AFNE01.JPG,AFNE01.JPG,5,0,50,3,,,,,,,,,,,,,,,,,,,,,,,AFNE05.jpg,AFSA02.jpg,AFSA08.jpg,AFNE12.jpg,AFNE12.jpg,FN,3,num_4,32,num_8,1.68342189491,,,2017_Sep_08_1545,60.0085649431,FEMA4ImagesEEG,001,101552,
AFNE01.JPG,AFNE01.JPG,AFNE01.JPG,AFNE01.JPG,AFNE01.JPG,AFNE01.JPG,5,1,51,7,,,,,,,,,,,,,,,,,,,,,,,AFNE17.jpg,AFSA07.jpg,AFSA11.jpg,AFNE02.jpg,AFNE02.jpg,FN,3,num_4,16,num_4,0.966818836168,,,2017_Sep_08_1545,60.0085649431,FEMA4ImagesEEG,001,101552,
AFNE01.JPG,AFNE01.JPG,AFNE01.JPG,AFNE01.JPG,AFNE01.JPG,AFNE01.JPG,5,2,52,4,,,,,,,,,,,,,,,,,,,,,,,AFSA07.jpg,AFSA12.jpg,AFNE15.jpg,AFNE18.jpg,AFNE15.jpg,FN,3,num_2,16,num_2,1.06679276004,,,2017_Sep_08_1545,60.0085649431,FEMA4ImagesEEG,001,101552,
AFNE01.JPG,AFNE01.JPG,AFNE01.JPG,AFNE01.JPG,AFNE01.JPG,AFNE01.JPG,5,3,53,1,,,,,,,,,,,,,,,,,,,,,,,AFNE16.jpg,AFSA03.jpg,AFSA17.jpg,AFNE09.jpg,AFSA03.jpg,FS,4,num_6,32,num_4,1.28353101062,,,2017_Sep_08_1545,60.0085649431,FEMA4ImagesEEG,001,101552,
AFNE01.JPG,AFNE01.JPG,AFNE01.JPG,AFNE01.JPG,AFNE01.JPG,AFNE01.JPG,5,4,54,8,,,,,,,,,,,,,,,,,,,,,,,AFNE16.jpg,AFSA16.jpg,AFNE14.jpg,AFSA14.jpg,AFSA16.jpg,FS,4,num_6,16,num_6,0.983468434191,,,2017_Sep_08_1545,60.0085649431,FEMA4ImagesEEG,001,101552,
AFNE01.JPG,AFNE01.JPG,AFNE01.JPG,AFNE01.JPG,AFNE01.JPG,AFNE01.JPG,5,5,55,5,,,,,,,,,,,,,,,,,,,,,,,AFSA15.jpg,AFNE13.jpg,AFSA10.jpg,AFNE03.jpg,AFNE13.jpg,FN,3,num_6,32,num_4,2.96663761837,,,2017_Sep_08_1545,60.0085649431,FEMA4ImagesEEG,001,101552,
AFNE01.JPG,AFNE01.JPG,AFNE01.JPG,AFNE01.JPG,AFNE01.JPG,AFNE01.JPG,5,6,56,2,,,,,,,,,,,,,,,,,,,,,,,AFSA08.jpg,AFSA16.jpg,AFNE20.jpg,AFNE13.jpg,AFNE20.jpg,FN,3,num_2,16,num_2,1.63343172555,,,2017_Sep_08_1545,60.0085649431,FEMA4ImagesEEG,001,101552,
AFNE01.JPG,AFNE01.JPG,AFNE01.JPG,AFNE01.JPG,AFNE01.JPG,AFNE01.JPG,5,7,57,0,,,,,,,,,,,,,,,,,,,,,,,AFSA18.jpg,AFNE18.jpg,AFSA20.jpg,AFNE12.jpg,AFSA20.jpg,FS,4,num_2,32,num_4,1.00012765441,,,2017_Sep_08_1545,60.0085649431,FEMA4ImagesEEG,001,101552,
AFNE01.JPG,AFNE01.JPG,AFNE01.JPG,AFNE01.JPG,AFNE01.JPG,AFNE01.JPG,5,8,58,9,,,,,,,,,,,,,,,,,,,,,,,AFNE15.jpg,AFSA11.jpg,AFNE06.jpg,AFSA07.jpg,AFNE06.jpg,FN,3,num_2,32,num_4,1.8500384728,,,2017_Sep_08_1545,60.0085649431,FEMA4ImagesEEG,001,101552,
AFNE01.JPG,AFNE01.JPG,AFNE01.JPG,AFNE01.JPG,AFNE01.JPG,AFNE01.JPG,5,9,59,6,,,,,,,,,,,,,,,,,,,,,,,AFSA04.jpg,AFNE20.jpg,AFSA18.jpg,AFNE04.jpg,AFNE20.jpg,FN,3,num_6,32,num_4,0.883459549746,,,2017_Sep_08_1545,60.0085649431,FEMA4ImagesEEG,001,101552,
,,,,,,,,,,,,,,,,,,,,,,,,,,,,,,,,,,,,,,,,,,,space,25.7312631082,2017_Sep_08_1545,60.0085649431,FEMA4ImagesEEG,001,101552,
AFNE01.JPG,AFNE01.JPG,AFNE01.JPG,AFNE01.JPG,AFNE01.JPG,AFNE01.JPG,,,,,0,0,0,4,,,,,,,,,,,,,,,,,,,AMNE12.jpg,AMNE16.jpg,AMSA20.jpg,AMSA18.jpg,AMNE12.jpg,MN,1,num_8,16,num_8,1.2667258539,,,2017_Sep_08_1545,60.0085649431,FEMA4ImagesEEG,001,101552,
AFNE01.JPG,AFNE01.JPG,AFNE01.JPG,AFNE01.JPG,AFNE01.JPG,AFNE01.JPG,,,,,0,1,1,7,,,,,,,,,,,,,,,,,,,AMNE20.jpg,AMSA18.jpg,AMSA19.jpg,AMNE08.jpg,AMSA19.jpg,MS,2,num_2,16,num_2,1.38340967475,,,2017_Sep_08_1545,60.0085649431,FEMA4ImagesEEG,001,101552,
AFNE01.JPG,AFNE01.JPG,AFNE01.JPG,AFNE01.JPG,AFNE01.JPG,AFNE01.JPG,,,,,0,2,2,6,,,,,,,,,,,,,,,,,,,AMSA18.jpg,AMSA06.jpg,AMNE09.jpg,AMNE01.jpg,AMNE01.jpg,MN,1,num_4,16,num_4,0.650190054323,,,2017_Sep_08_1545,60.0085649431,FEMA4ImagesEEG,001,101552,
AFNE01.JPG,AFNE01.JPG,AFNE01.JPG,AFNE01.JPG,AFNE01.JPG,AFNE01.JPG,,,,,0,3,3,8,,,,,,,,,,,,,,,,,,,AMSA02.jpg,AMSA14.jpg,AMNE06.jpg,AMNE05.jpg,AMSA02.jpg,MS,2,num_8,16,num_8,1.26677909656,,,2017_Sep_08_1545,60.0085649431,FEMA4ImagesEEG,001,101552,
AFNE01.JPG,AFNE01.JPG,AFNE01.JPG,AFNE01.JPG,AFNE01.JPG,AFNE01.JPG,,,,,0,4,4,1,,,,,,,,,,,,,,,,,,,AMSA12.jpg,AMSA09.jpg,AMNE15.jpg,AMNE12.jpg,AMNE15.jpg,MN,1,num_2,16,num_2,2.23338688619,,,2017_Sep_08_1545,60.0085649431,FEMA4ImagesEEG,001,101552,
AFNE01.JPG,AFNE01.JPG,AFNE01.JPG,AFNE01.JPG,AFNE01.JPG,AFNE01.JPG,,,,,0,5,5,5,,,,,,,,,,,,,,,,,,,AMSA15.jpg,AMSA18.jpg,AMNE18.jpg,AMNE01.jpg,AMNE18.jpg,MN,1,num_2,32,num_8,1.08345839509,,,2017_Sep_08_1545,60.0085649431,FEMA4ImagesEEG,001,101552,
AFNE01.JPG,AFNE01.JPG,AFNE01.JPG,AFNE01.JPG,AFNE01.JPG,AFNE01.JPG,,,,,0,6,6,2,,,,,,,,,,,,,,,,,,,AMSA08.jpg,AMNE11.jpg,AMSA01.jpg,AMNE03.jpg,AMNE11.jpg,MN,1,num_6,16,num_6,0.93344426644,,,2017_Sep_08_1545,60.0085649431,FEMA4ImagesEEG,001,101552,
AFNE01.JPG,AFNE01.JPG,AFNE01.JPG,AFNE01.JPG,AFNE01.JPG,AFNE01.JPG,,,,,0,7,7,0,,,,,,,,,,,,,,,,,,,AMNE02.jpg,AMSA15.jpg,AMSA18.jpg,AMNE14.jpg,AMSA15.jpg,MS,2,num_6,32,num_8,1.10012531304,,,2017_Sep_08_1545,60.0085649431,FEMA4ImagesEEG,001,101552,
AFNE01.JPG,AFNE01.JPG,AFNE01.JPG,AFNE01.JPG,AFNE01.JPG,AFNE01.JPG,,,,,0,8,8,3,,,,,,,,,,,,,,,,,,,AMSA20.jpg,AMNE07.jpg,AMSA11.jpg,AMNE14.jpg,AMSA20.jpg,MS,2,num_8,32,num_2,1.6500694562,,,2017_Sep_08_1545,60.0085649431,FEMA4ImagesEEG,001,101552,
AFNE01.JPG,AFNE01.JPG,AFNE01.JPG,AFNE01.JPG,AFNE01.JPG,AFNE01.JPG,,,,,0,9,9,9,,,,,,,,,,,,,,,,,,,AMSA01.jpg,AMNE08.jpg,AMNE20.jpg,AMSA05.jpg,AMNE08.jpg,MN,1,num_6,32,num_4,0.683512022719,,,2017_Sep_08_1545,60.0085649431,FEMA4ImagesEEG,001,101552,
AFNE01.JPG,AFNE01.JPG,AFNE01.JPG,AFNE01.JPG,AFNE01.JPG,AFNE01.JPG,,,,,1,0,10,9,,,,,,,,,,,,,,,,,,,AMNE19.jpg,AMSA01.jpg,AMSA08.jpg,AMNE11.jpg,AMNE11.jpg,MN,1,num_4,16,num_4,1.80003194569,,,2017_Sep_08_1545,60.0085649431,FEMA4ImagesEEG,001,101552,
AFNE01.JPG,AFNE01.JPG,AFNE01.JPG,AFNE01.JPG,AFNE01.JPG,AFNE01.JPG,,,,,1,1,11,3,,,,,,,,,,,,,,,,,,,AMSA03.jpg,AMNE03.jpg,AMNE04.jpg,AMSA16.jpg,AMNE04.jpg,MN,1,num_2,16,num_2,1.65007939911,,,2017_Sep_08_1545,60.0085649431,FEMA4ImagesEEG,001,101552,
AFNE01.JPG,AFNE01.JPG,AFNE01.JPG,AFNE01.JPG,AFNE01.JPG,AFNE01.JPG,,,,,1,2,12,8,,,,,,,,,,,,,,,,,,,AMSA12.jpg,AMNE05.jpg,AMSA15.jpg,AMNE06.jpg,AMSA12.jpg,MS,2,num_8,16,num_8,1.06675587501,,,2017_Sep_08_1545,60.0085649431,FEMA4ImagesEEG,001,101552,
AFNE01.JPG,AFNE01.JPG,AFNE01.JPG,AFNE01.JPG,AFNE01.JPG,AFNE01.JPG,,,,,1,3,13,0,,,,,,,,,,,,,,,,,,,AMNE07.jpg,AMSA18.jpg,AMNE04.jpg,AMSA06.jpg,AMNE07.jpg,MN,1,num_8,32,num_4,0.883441267535,,,2017_Sep_08_1545,60.0085649431,FEMA4ImagesEEG,001,101552,
AFNE01.JPG,AFNE01.JPG,AFNE01.JPG,AFNE01.JPG,AFNE01.JPG,AFNE01.JPG,,,,,1,4,14,5,,,,,,,,,,,,,,,,,,,AMSA05.jpg,AMNE15.jpg,AMSA07.jpg,AMNE16.jpg,AMNE16.jpg,MN,1,num_4,32,num_6,1.06674913946,,,2017_Sep_08_1545,60.0085649431,FEMA4ImagesEEG,001,101552,
AFNE01.JPG,AFNE01.JPG,AFNE01.JPG,AFNE01.JPG,AFNE01.JPG,AFNE01.JPG,,,,,1,5,15,1,,,,,,,,,,,,,,,,,,,AMNE11.jpg,AMSA12.jpg,AMNE05.jpg,AMSA19.jpg,AMSA12.jpg,MS,2,num_6,16,num_6,0.866819573916,,,2017_Sep_08_1545,60.0085649431,FEMA4ImagesEEG,001,101552,
AFNE01.JPG,AFNE01.JPG,AFNE01.JPG,AFNE01.JPG,AFNE01.JPG,AFNE01.JPG,,,,,1,6,16,7,,,,,,,,,,,,,,,,,,,AMSA10.jpg,AMNE18.jpg,AMNE07.jpg,AMSA17.jpg,AMNE07.jpg,MN,1,num_2,16,num_2,1.06675170548,,,2017_Sep_08_1545,60.0085649431,FEMA4ImagesEEG,001,101552,
AFNE01.JPG,AFNE01.JPG,AFNE01.JPG,AFNE01.JPG,AFNE01.JPG,AFNE01.JPG,,,,,1,7,17,4,,,,,,,,,,,,,,,,,,,AMSA16.jpg,AMNE08.jpg,AMNE01.jpg,AMSA09.jpg,AMNE01.jpg,MN,1,num_2,32,num_4,1.70003717369,,,2017_Sep_08_1545,60.0085649431,FEMA4ImagesEEG,001,101552,
AFNE01.JPG,AFNE01.JPG,AFNE01.JPG,AFNE01.JPG,AFNE01.JPG,AFNE01.JPG,,,,,1,8,18,2,,,,,,,,,,,,,,,,,,,AMNE07.jpg,AMSA20.jpg,AMSA15.jpg,AMNE19.jpg,AMNE19.jpg,MN,1,num_4,16,num_4,1.18344290333,,,2017_Sep_08_1545,60.0085649431,FEMA4ImagesEEG,001,101552,
AFNE01.JPG,AFNE01.JPG,AFNE01.JPG,AFNE01.JPG,AFNE01.JPG,AFNE01.JPG,,,,,1,9,19,6,,,,,,,,,,,,,,,,,,,AMNE12.jpg,AMNE05.jpg,AMSA11.jpg,AMSA17.jpg,AMSA17.jpg,MS,2,num_4,16,num_4,3.71655975876,,,2017_Sep_08_1545,60.0085649431,FEMA4ImagesEEG,001,101552,
AFNE01.JPG,AFNE01.JPG,AFNE01.JPG,AFNE01.JPG,AFNE01.JPG,AFNE01.JPG,,,,,2,0,20,4,,,,,,,,,,,,,,,,,,,AMNE16.jpg,AMSA09.jpg,AMSA02.jpg,AMNE09.jpg,AMNE16.jpg,MN,1,num_8,32,num_6,4.58320773696,,,2017_Sep_08_1545,60.0085649431,FEMA4ImagesEEG,001,101552,
AFNE01.JPG,AFNE01.JPG,AFNE01.JPG,AFNE01.JPG,AFNE01.JPG,AFNE01.JPG,,,,,2,1,21,0,,,,,,,,,,,,,,,,,,,AMNE11.jpg,AMSA05.jpg,AMNE15.jpg,AMSA11.jpg,AMSA05.jpg,MS,2,num_6,32,num_2,3.09999188525,,,2017_Sep_08_1545,60.0085649431,FEMA4ImagesEEG,001,101552,
AFNE01.JPG,AFNE01.JPG,AFNE01.JPG,AFNE01.JPG,AFNE01.JPG,AFNE01.JPG,,,,,2,2,22,6,,,,,,,,,,,,,,,,,,,AMNE03.jpg,AMSA05.jpg,AMNE18.jpg,AMSA06.jpg,AMNE03.jpg,MN,1,num_8,16,num_8,1.10015033069,,,2017_Sep_08_1545,60.0085649431,FEMA4ImagesEEG,001,101552,
AFNE01.JPG,AFNE01.JPG,AFNE01.JPG,AFNE01.JPG,AFNE01.JPG,AFNE01.JPG,,,,,2,3,23,8,,,,,,,,,,,,,,,,,,,AMNE18.jpg,AMSA07.jpg,AMNE10.jpg,AMSA10.jpg,AMSA10.jpg,MS,2,num_4,16,num_4,0.933497830061,,,2017_Sep_08_1545,60.0085649431,FEMA4ImagesEEG,001,101552,
AFNE01.JPG,AFNE01.JPG,AFNE01.JPG,AFNE01.JPG,AFNE01.JPG,AFNE01.JPG,,,,,2,4,24,9,,,,,,,,,,,,,,,,,,,AMNE04.jpg,AMSA01.jpg,AMNE08.jpg,AMSA03.jpg,AMSA03.jpg,MS,2,num_4,32,num_2,1.51676522463,,,2017_Sep_08_1545,60.0085649431,FEMA4ImagesEEG,001,101552,
AFNE01.JPG,AFNE01.JPG,AFNE01.JPG,AFNE01.JPG,AFNE01.JPG,AFNE01.JPG,,,,,2,5,25,3,,,,,,,,,,,,,,,,,,,AMSA08.jpg,AMNE19.jpg,AMSA09.jpg,AMNE10.jpg,AMSA08.jpg,MS,2,num_8,16,num_8,0.716799030663,,,2017_Sep_08_1545,60.0085649431,FEMA4ImagesEEG,001,101552,
AFNE01.JPG,AFNE01.JPG,AFNE01.JPG,AFNE01.JPG,AFNE01.JPG,AFNE01.JPG,,,,,2,6,26,5,,,,,,,,,,,,,,,,,,,AMSA09.jpg,AMSA06.jpg,AMNE07.jpg,AMNE16.jpg,AMNE16.jpg,MN,1,num_4,16,num_4,0.950107014738,,,2017_Sep_08_1545,60.0085649431,FEMA4ImagesEEG,001,101552,
AFNE01.JPG,AFNE01.JPG,AFNE01.JPG,AFNE01.JPG,AFNE01.JPG,AFNE01.JPG,,,,,2,7,27,7,,,,,,,,,,,,,,,,,,,AMSA05.jpg,AMNE06.jpg,AMSA08.jpg,AMNE16.jpg,AMNE06.jpg,MN,1,num_6,32,num_8,1.1334395837,,,2017_Sep_08_1545,60.0085649431,FEMA4ImagesEEG,001,101552,
AFNE01.JPG,AFNE01.JPG,AFNE01.JPG,AFNE01.JPG,AFNE01.JPG,AFNE01.JPG,,,,,2,8,28,2,,,,,,,,,,,,,,,,,,,AMNE10.jpg,AMNE06.jpg,AMSA15.jpg,AMSA11.jpg,AMNE06.jpg,MN,1,num_6,16,num_6,1.21679309686,,,2017_Sep_08_1545,60.0085649431,FEMA4ImagesEEG,001,101552,
AFNE01.JPG,AFNE01.JPG,AFNE01.JPG,AFNE01.JPG,AFNE01.JPG,AFNE01.JPG,,,,,2,9,29,1,,,,,,,,,,,,,,,,,,,AMSA20.jpg,AMNE11.jpg,AMSA16.jpg,AMNE18.jpg,AMSA16.jpg,MS,2,num_2,32,num_4,0.899866347667,,,2017_Sep_08_1545,60.0085649431,FEMA4ImagesEEG,001,101552,
AFNE01.JPG,AFNE01.JPG,AFNE01.JPG,AFNE01.JPG,AFNE01.JPG,AFNE01.JPG,,,,,3,0,30,0,,,,,,,,,,,,,,,,,,,AMNE17.jpg,AMSA16.jpg,AMNE14.jpg,AMSA13.jpg,AMNE14.jpg,MN,1,num_2,16,num_2,2.61665479385,,,2017_Sep_08_1545,60.0085649431,FEMA4ImagesEEG,001,101552,
AFNE01.JPG,AFNE01.JPG,AFNE01.JPG,AFNE01.JPG,AFNE01.JPG,AFNE01.JPG,,,,,3,1,31,8,,,,,,,,,,,,,,,,,,,AMNE10.jpg,AMNE11.jpg,AMSA09.jpg,AMSA12.jpg,AMSA09.jpg,MS,2,num_2,32,num_4,2.08366687584,,,2017_Sep_08_1545,60.0085649431,FEMA4ImagesEEG,001,101552,
AFNE01.JPG,AFNE01.JPG,AFNE01.JPG,AFNE01.JPG,AFNE01.JPG,AFNE01.JPG,,,,,3,2,32,6,,,,,,,,,,,,,,,,,,,AMSA03.jpg,AMSA15.jpg,AMNE07.jpg,AMNE13.jpg,AMSA15.jpg,MS,2,num_6,16,num_6,0.916788253817,,,2017_Sep_08_1545,60.0085649431,FEMA4ImagesEEG,001,101552,
AFNE01.JPG,AFNE01.JPG,AFNE01.JPG,AFNE01.JPG,AFNE01.JPG,AFNE01.JPG,,,,,3,3,33,7,,,,,,,,,,,,,,,,,,,AMSA07.jpg,AMNE11.jpg,AMNE20.jpg,AMSA08.jpg,AMSA07.jpg,MS,2,num_8,32,num_4,1.08341701969,,,2017_Sep_08_1545,60.0085649431,FEMA4ImagesEEG,001,101552,
AFNE01.JPG,AFNE01.JPG,AFNE01.JPG,AFNE01.JPG,AFNE01.JPG,AFNE01.JPG,,,,,3,4,34,4,,,,,,,,,,,,,,,,,,,AMSA10.jpg,AMSA09.jpg,AMNE15.jpg,AMNE14.jpg,AMNE15.jpg,MN,1,num_2,16,num_2,1.60001449741,,,2017_Sep_08_1545,60.0085649431,FEMA4ImagesEEG,001,101552,
AFNE01.JPG,AFNE01.JPG,AFNE01.JPG,AFNE01.JPG,AFNE01.JPG,AFNE01.JPG,,,,,3,5,35,5,,,,,,,,,,,,,,,,,,,AMNE15.jpg,AMNE03.jpg,AMSA10.jpg,AMSA16.jpg,AMSA10.jpg,MS,2,num_2,32,num_4,2.01671663253,,,2017_Sep_08_1545,60.0085649431,FEMA4ImagesEEG,001,101552,
AFNE01.JPG,AFNE01.JPG,AFNE01.JPG,AFNE01.JPG,AFNE01.JPG,AFNE01.JPG,,,,,3,6,36,3,,,,,,,,,,,,,,,,,,,AMSA11.jpg,AMSA03.jpg,AMNE02.jpg,AMNE03.jpg,AMSA11.jpg,MS,2,num_8,16,num_8,2.78333776491,,,2017_Sep_08_1545,60.0085649431,FEMA4ImagesEEG,001,101552,
AFNE01.JPG,AFNE01.JPG,AFNE01.JPG,AFNE01.JPG,AFNE01.JPG,AFNE01.JPG,,,,,3,7,37,9,,,,,,,,,,,,,,,,,,,AMNE09.jpg,AMSA13.jpg,AMSA08.jpg,AMNE04.jpg,AMSA13.jpg,MS,2,num_6,16,num_6,0.80013650679,,,2017_Sep_08_1545,60.0085649431,FEMA4ImagesEEG,001,101552,
AFNE01.JPG,AFNE01.JPG,AFNE01.JPG,AFNE01.JPG,AFNE01.JPG,AFNE01.JPG,,,,,3,8,38,1,,,,,,,,,,,,,,,,,,,AMNE08.jpg,AMSA09.jpg,AMSA02.jpg,AMNE11.jpg,AMNE08.jpg,MN,1,num_8,16,num_8,1.81668122287,,,2017_Sep_08_1545,60.0085649431,FEMA4ImagesEEG,001,101552,
AFNE01.JPG,AFNE01.JPG,AFNE01.JPG,AFNE01.JPG,AFNE01.JPG,AFNE01.JPG,,,,,3,9,39,2,,,,,,,,,,,,,,,,,,,AMNE04.jpg,AMSA16.jpg,AMNE18.jpg,AMSA10.jpg,AMSA10.jpg,MS,2,num_4,32,num_8,2.38332820684,,,2017_Sep_08_1545,60.0085649431,FEMA4ImagesEEG,001,101552,
AFNE01.JPG,AFNE01.JPG,AFNE01.JPG,AFNE01.JPG,AFNE01.JPG,AFNE01.JPG,,,,,4,0,40,2,,,,,,,,,,,,,,,,,,,AMSA13.jpg,AMSA09.jpg,AMNE17.jpg,AMNE03.jpg,AMNE17.jpg,MN,1,num_2,32,num_4,2.08337083308,,,2017_Sep_08_1545,60.0085649431,FEMA4ImagesEEG,001,101552,
AFNE01.JPG,AFNE01.JPG,AFNE01.JPG,AFNE01.JPG,AFNE01.JPG,AFNE01.JPG,,,,,4,1,41,8,,,,,,,,,,,,,,,,,,,AMSA16.jpg,AMSA05.jpg,AMNE08.jpg,AMNE09.jpg,AMSA16.jpg,MS,2,num_8,32,num_6,1.20011142502,,,2017_Sep_08_1545,60.0085649431,FEMA4ImagesEEG,001,101552,
AFNE01.JPG,AFNE01.JPG,AFNE01.JPG,AFNE01.JPG,AFNE01.JPG,AFNE01.JPG,,,,,4,2,42,3,,,,,,,,,,,,,,,,,,,AMNE02.jpg,AMSA07.jpg,AMNE07.jpg,AMSA10.jpg,AMNE07.jpg,MN,1,num_2,16,num_2,3.8832135424,,,2017_Sep_08_1545,60.0085649431,FEMA4ImagesEEG,001,101552,
AFNE01.JPG,AFNE01.JPG,AFNE01.JPG,AFNE01.JPG,AFNE01.JPG,AFNE01.JPG,,,,,4,3,43,0,,,,,,,,,,,,,,,,,,,AMNE20.jpg,AMNE06.jpg,AMSA15.jpg,AMSA14.jpg,AMNE06.jpg,MN,1,num_6,32,num_8,1.41673164326,,,2017_Sep_08_1545,60.0085649431,FEMA4ImagesEEG,001,101552,
AFNE01.JPG,AFNE01.JPG,AFNE01.JPG,AFNE01.JPG,AFNE01.JPG,AFNE01.JPG,,,,,4,4,44,7,,,,,,,,,,,,,,,,,,,AMSA03.jpg,AMSA04.jpg,AMNE05.jpg,AMNE07.jpg,AMSA03.jpg,MS,2,num_8,32,num_6,0.866766651976,,,2017_Sep_08_1545,60.0085649431,FEMA4ImagesEEG,001,101552,
AFNE01.JPG,AFNE01.JPG,AFNE01.JPG,AFNE01.JPG,AFNE01.JPG,AFNE01.JPG,,,,,4,5,45,1,,,,,,,,,,,,,,,,,,,AMNE17.jpg,AMSA18.jpg,AMSA03.jpg,AMNE07.jpg,AMSA03.jpg,MS,2,num_2,16,num_2,0.983567863586,,,2017_Sep_08_1545,60.0085649431,FEMA4ImagesEEG,001,101552,
AFNE01.JPG,AFNE01.JPG,AFNE01.JPG,AFNE01.JPG,AFNE01.JPG,AFNE01.JPG,,,,,4,6,46,4,,,,,,,,,,,,,,,,,,,AMNE20.jpg,AMNE14.jpg,AMSA16.jpg,AMSA17.jpg,AMNE20.jpg,MN,1,num_8,16,num_8,1.50008162821,,,2017_Sep_08_1545,60.0085649431,FEMA4ImagesEEG,001,101552,
AFNE01.JPG,AFNE01.JPG,AFNE01.JPG,AFNE01.JPG,AFNE01.JPG,AFNE01.JPG,,,,,4,7,47,5,,,,,,,,,,,,,,,,,,,AMNE17.jpg,AMNE05.jpg,AMSA07.jpg,AMSA15.jpg,AMNE05.jpg,MN,1,num_6,32,num_4,1.10007431533,,,2017_Sep_08_1545,60.0085649431,FEMA4ImagesEEG,001,101552,
AFNE01.JPG,AFNE01.JPG,AFNE01.JPG,AFNE01.JPG,AFNE01.JPG,AFNE01.JPG,,,,,4,8,48,9,,,,,,,,,,,,,,,,,,,AMSA13.jpg,AMNE07.jpg,AMNE06.jpg,AMSA10.jpg,AMNE07.jpg,MN,1,num_6,32,num_2,1.56652542355,,,2017_Sep_08_1545,60.0085649431,FEMA4ImagesEEG,001,101552,
AFNE01.JPG,AFNE01.JPG,AFNE01.JPG,AFNE01.JPG,AFNE01.JPG,AFNE01.JPG,,,,,4,9,49,6,,,,,,,,,,,,,,,,,,,AMNE14.jpg,AMSA19.jpg,AMNE04.jpg,AMSA20.jpg,AMSA20.jpg,MS,2,num_4,16,num_4,1.03344384953,,,2017_Sep_08_1545,60.0085649431,FEMA4ImagesEEG,001,101552,
AFNE01.JPG,AFNE01.JPG,AFNE01.JPG,AFNE01.JPG,AFNE01.JPG,AFNE01.JPG,,,,,5,0,50,4,,,,,,,,,,,,,,,,,,,AMSA02.jpg,AMNE19.jpg,AMSA16.jpg,AMNE05.jpg,AMNE05.jpg,MN,1,num_4,32,num_2,1.33335760259,,,2017_Sep_08_1545,60.0085649431,FEMA4ImagesEEG,001,101552,
AFNE01.JPG,AFNE01.JPG,AFNE01.JPG,AFNE01.JPG,AFNE01.JPG,AFNE01.JPG,,,,,5,1,51,8,,,,,,,,,,,,,,,,,,,AMNE17.jpg,AMNE08.jpg,AMSA12.jpg,AMSA18.jpg,AMSA12.jpg,MS,2,num_2,16,num_2,0.933284858824,,,2017_Sep_08_1545,60.0085649431,FEMA4ImagesEEG,001,101552,
AFNE01.JPG,AFNE01.JPG,AFNE01.JPG,AFNE01.JPG,AFNE01.JPG,AFNE01.JPG,,,,,5,2,52,3,,,,,,,,,,,,,,,,,,,AMSA15.jpg,AMNE18.jpg,AMNE01.jpg,AMSA14.jpg,AMSA15.jpg,MS,2,num_8,16,num_8,2.38332082983,,,2017_Sep_08_1545,60.0085649431,FEMA4ImagesEEG,001,101552,
AFNE01.JPG,AFNE01.JPG,AFNE01.JPG,AFNE01.JPG,AFNE01.JPG,AFNE01.JPG,,,,,5,3,53,6,,,,,,,,,,,,,,,,,,,AMNE01.jpg,AMSA03.jpg,AMSA02.jpg,AMNE17.jpg,AMNE17.jpg,MN,1,num_4,16,num_4,1.46666856972,,,2017_Sep_08_1545,60.0085649431,FEMA4ImagesEEG,001,101552,
AFNE01.JPG,AFNE01.JPG,AFNE01.JPG,AFNE01.JPG,AFNE01.JPG,AFNE01.JPG,,,,,5,4,54,0,,,,,,,,,,,,,,,,,,,AMNE01.jpg,AMNE11.jpg,AMSA20.jpg,AMSA09.jpg,AMSA09.jpg,MS,2,num_4,32,num_2,1.00012348488,,,2017_Sep_08_1545,60.0085649431,FEMA4ImagesEEG,001,101552,
AFNE01.JPG,AFNE01.JPG,AFNE01.JPG,AFNE01.JPG,AFNE01.JPG,AFNE01.JPG,,,,,5,5,55,2,,,,,,,,,,,,,,,,,,,AMSA17.jpg,AMNE17.jpg,AMNE12.jpg,AMSA10.jpg,AMSA17.jpg,MS,2,num_8,32,num_2,3.78328740876,,,2017_Sep_08_1545,60.0085649431,FEMA4ImagesEEG,001,101552,
AFNE01.JPG,AFNE01.JPG,AFNE01.JPG,AFNE01.JPG,AFNE01.JPG,AFNE01.JPG,,,,,5,6,56,1,,,,,,,,,,,,,,,,,,,AMSA02.jpg,AMNE13.jpg,AMNE04.jpg,AMSA07.jpg,AMSA02.jpg,MS,2,num_8,32,num_2,1.48343523766,,,2017_Sep_08_1545,60.0085649431,FEMA4ImagesEEG,001,101552,
AFNE01.JPG,AFNE01.JPG,AFNE01.JPG,AFNE01.JPG,AFNE01.JPG,AFNE01.JPG,,,,,5,7,57,7,,,,,,,,,,,,,,,,,,,AMSA03.jpg,AMSA15.jpg,AMNE17.jpg,AMNE16.jpg,AMNE17.jpg,MN,1,num_2,32,num_8,1.95002715057,,,2017_Sep_08_1545,60.0085649431,FEMA4ImagesEEG,001,101552,
AFNE01.JPG,AFNE01.JPG,AFNE01.JPG,AFNE01.JPG,AFNE01.JPG,AFNE01.JPG,,,,,5,8,58,9,,,,,,,,,,,,,,,,,,,AMNE06.jpg,AMNE19.jpg,AMSA19.jpg,AMSA10.jpg,AMNE06.jpg,MN,1,num_8,16,num_8,1.03343935916,,,2017_Sep_08_1545,60.0085649431,FEMA4ImagesEEG,001,101552,
AFNE01.JPG,AFNE01.JPG,AFNE01.JPG,AFNE01.JPG,AFNE01.JPG,AFNE01.JPG,,,,,5,9,59,5,,,,,,,,,,,,,,,,,,,AMSA06.jpg,AMNE11.jpg,AMNE01.jpg,AMSA17.jpg,AMNE11.jpg,MN,1,num_6,16,num_6,0.933330083149,,,2017_Sep_08_1545,60.0085649431,FEMA4ImagesEEG,001,101552,
,,,,,,,,,,,,,,,,,,,,,,,,,,,,,,,,,,,,,,,,,,,space,73.5780364508,2017_Sep_08_1545,60.0085649431,FEMA4ImagesEEG,001,101552,
AFNE01.JPG,AFNE01.JPG,AFNE01.JPG,AFNE01.JPG,AFNE01.JPG,AFNE01.JPG,,,,,,,,,0,0,0,0,,,,,,,,,,,,,,,AFNE03.jpg,AFSA13.jpg,AFSA04.jpg,AFNE13.jpg,AFNE03.jpg,FN,3,num_8,16,num_8,0.933403211879,,,2017_Sep_08_1545,60.0085649431,FEMA4ImagesEEG,001,101552,
AFNE01.JPG,AFNE01.JPG,AFNE01.JPG,AFNE01.JPG,AFNE01.JPG,AFNE01.JPG,,,,,,,,,0,1,1,2,,,,,,,,,,,,,,,AFSA12.jpg,AFNE11.jpg,AFSA14.jpg,AFNE07.jpg,AFNE07.jpg,FN,3,num_4,16,num_4,0.966768159415,,,2017_Sep_08_1545,60.0085649431,FEMA4ImagesEEG,001,101552,
AFNE01.JPG,AFNE01.JPG,AFNE01.JPG,AFNE01.JPG,AFNE01.JPG,AFNE01.JPG,,,,,,,,,0,2,2,7,,,,,,,,,,,,,,,AFSA04.jpg,AFNE16.jpg,AFNE20.jpg,AFSA03.jpg,AFSA04.jpg,FS,4,num_8,32,num_4,1.28339533764,,,2017_Sep_08_1545,60.0085649431,FEMA4ImagesEEG,001,101552,
AFNE01.JPG,AFNE01.JPG,AFNE01.JPG,AFNE01.JPG,AFNE01.JPG,AFNE01.JPG,,,,,,,,,0,3,3,9,,,,,,,,,,,,,,,AFNE07.jpg,AFSA01.jpg,AFSA18.jpg,AFNE09.jpg,AFSA18.jpg,FS,4,num_2,16,num_2,1.36670106056,,,2017_Sep_08_1545,60.0085649431,FEMA4ImagesEEG,001,101552,
AFNE01.JPG,AFNE01.JPG,AFNE01.JPG,AFNE01.JPG,AFNE01.JPG,AFNE01.JPG,,,,,,,,,0,4,4,6,,,,,,,,,,,,,,,AFSA19.jpg,AFNE14.jpg,AFNE15.jpg,AFSA14.jpg,AFNE15.jpg,FN,3,num_2,16,num_2,0.96663473174,,,2017_Sep_08_1545,60.0085649431,FEMA4ImagesEEG,001,101552,
AFNE01.JPG,AFNE01.JPG,AFNE01.JPG,AFNE01.JPG,AFNE01.JPG,AFNE01.JPG,,,,,,,,,0,5,5,8,,,,,,,,,,,,,,,AFNE04.jpg,AFSA03.jpg,AFSA13.jpg,AFNE14.jpg,AFNE14.jpg,FN,3,num_4,16,num_4,0.8334889455,,,2017_Sep_08_1545,60.0085649431,FEMA4ImagesEEG,001,101552,
AFNE01.JPG,AFNE01.JPG,AFNE01.JPG,AFNE01.JPG,AFNE01.JPG,AFNE01.JPG,,,,,,,,,0,6,6,3,,,,,,,,,,,,,,,AFNE13.jpg,AFSA04.jpg,AFNE19.jpg,AFSA15.jpg,AFSA15.jpg,FS,4,num_4,16,num_4,0.950149673154,,,2017_Sep_08_1545,60.0085649431,FEMA4ImagesEEG,001,101552,
AFNE01.JPG,AFNE01.JPG,AFNE01.JPG,AFNE01.JPG,AFNE01.JPG,AFNE01.JPG,,,,,,,,,0,7,7,5,,,,,,,,,,,,,,,AFSA13.jpg,AFNE14.jpg,AFSA10.jpg,AFNE20.jpg,AFSA10.jpg,FS,4,num_2,32,num_8,1.58343353774,,,2017_Sep_08_1545,60.0085649431,FEMA4ImagesEEG,001,101552,
AFNE01.JPG,AFNE01.JPG,AFNE01.JPG,AFNE01.JPG,AFNE01.JPG,AFNE01.JPG,,,,,,,,,0,8,8,4,,,,,,,,,,,,,,,AFSA16.jpg,AFNE20.jpg,AFNE05.jpg,AFSA20.jpg,AFNE20.jpg,FN,3,num_6,16,num_6,0.883458266733,,,2017_Sep_08_1545,60.0085649431,FEMA4ImagesEEG,001,101552,
AFNE01.JPG,AFNE01.JPG,AFNE01.JPG,AFNE01.JPG,AFNE01.JPG,AFNE01.JPG,,,,,,,,,0,9,9,1,,,,,,,,,,,,,,,AFSA01.jpg,AFNE08.jpg,AFSA17.jpg,AFNE11.jpg,AFNE08.jpg,FN,3,num_6,32,num_2,1.18356478447,,,2017_Sep_08_1545,60.0085649431,FEMA4ImagesEEG,001,101552,
AFNE01.JPG,AFNE01.JPG,AFNE01.JPG,AFNE01.JPG,AFNE01.JPG,AFNE01.JPG,,,,,,,,,1,0,10,0,,,,,,,,,,,,,,,AFSA11.jpg,AFSA16.jpg,AFNE02.jpg,AFNE14.jpg,AFNE02.jpg,FN,3,num_2,16,num_2,0.933588278596,,,2017_Sep_08_1545,60.0085649431,FEMA4ImagesEEG,001,101552,
AFNE01.JPG,AFNE01.JPG,AFNE01.JPG,AFNE01.JPG,AFNE01.JPG,AFNE01.JPG,,,,,,,,,1,1,11,3,,,,,,,,,,,,,,,AFSA13.jpg,AFSA01.jpg,AFNE12.jpg,AFNE09.jpg,AFSA01.jpg,FS,4,num_6,32,num_8,1.61660668289,,,2017_Sep_08_1545,60.0085649431,FEMA4ImagesEEG,001,101552,
AFNE01.JPG,AFNE01.JPG,AFNE01.JPG,AFNE01.JPG,AFNE01.JPG,AFNE01.JPG,,,,,,,,,1,2,12,7,,,,,,,,,,,,,,,AFSA19.jpg,AFSA15.jpg,AFNE15.jpg,AFNE10.jpg,AFSA19.jpg,FS,4,num_8,16,num_8,0.616817088216,,,2017_Sep_08_1545,60.0085649431,FEMA4ImagesEEG,001,101552,
AFNE01.JPG,AFNE01.JPG,AFNE01.JPG,AFNE01.JPG,AFNE01.JPG,AFNE01.JPG,,,,,,,,,1,3,13,1,,,,,,,,,,,,,,,AFSA17.jpg,AFNE13.jpg,AFSA14.jpg,AFNE10.jpg,AFNE10.jpg,FN,3,num_4,16,num_4,1.55008558929,,,2017_Sep_08_1545,60.0085649431,FEMA4ImagesEEG,001,101552,
AFNE01.JPG,AFNE01.JPG,AFNE01.JPG,AFNE01.JPG,AFNE01.JPG,AFNE01.JPG,,,,,,,,,1,4,14,2,,,,,,,,,,,,,,,AFSA02.jpg,AFSA05.jpg,AFNE05.jpg,AFNE01.jpg,AFSA05.jpg,FS,4,num_6,32,num_2,1.18325462914,,,2017_Sep_08_1545,60.0085649431,FEMA4ImagesEEG,001,101552,
AFNE01.JPG,AFNE01.JPG,AFNE01.JPG,AFNE01.JPG,AFNE01.JPG,AFNE01.JPG,,,,,,,,,1,5,15,5,,,,,,,,,,,,,,,AFSA19.jpg,AFNE20.jpg,AFNE06.jpg,AFSA20.jpg,AFNE20.jpg,FN,3,num_6,16,num_6,1.00016325642,,,2017_Sep_08_1545,60.0085649431,FEMA4ImagesEEG,001,101552,
AFNE01.JPG,AFNE01.JPG,AFNE01.JPG,AFNE01.JPG,AFNE01.JPG,AFNE01.JPG,,,,,,,,,1,6,16,8,,,,,,,,,,,,,,,AFNE07.jpg,AFNE06.jpg,AFSA19.jpg,AFSA03.jpg,AFNE07.jpg,FN,3,num_8,32,num_2,1.56676245027,,,2017_Sep_08_1545,60.0085649431,FEMA4ImagesEEG,001,101552,
AFNE01.JPG,AFNE01.JPG,AFNE01.JPG,AFNE01.JPG,AFNE01.JPG,AFNE01.JPG,,,,,,,,,1,7,17,6,,,,,,,,,,,,,,,AFSA17.jpg,AFNE11.jpg,AFNE14.jpg,AFSA03.jpg,AFNE11.jpg,FN,3,num_6,32,num_8,1.81696411537,,,2017_Sep_08_1545,60.0085649431,FEMA4ImagesEEG,001,101552,
AFNE01.JPG,AFNE01.JPG,AFNE01.JPG,AFNE01.JPG,AFNE01.JPG,AFNE01.JPG,,,,,,,,,1,8,18,4,,,,,,,,,,,,,,,AFSA19.jpg,AFNE20.jpg,AFSA08.jpg,AFNE15.jpg,AFSA08.jpg,FS,4,num_2,16,num_2,1.13333790924,,,2017_Sep_08_1545,60.0085649431,FEMA4ImagesEEG,001,101552,
AFNE01.JPG,AFNE01.JPG,AFNE01.JPG,AFNE01.JPG,AFNE01.JPG,AFNE01.JPG,,,,,,,,,1,9,19,9,,,,,,,,,,,,,,,AFSA10.jpg,AFNE07.jpg,AFSA05.jpg,AFNE18.jpg,AFNE18.jpg,FN,3,num_4,16,num_4,0.9668031201,,,2017_Sep_08_1545,60.0085649431,FEMA4ImagesEEG,001,101552,
AFNE01.JPG,AFNE01.JPG,AFNE01.JPG,AFNE01.JPG,AFNE01.JPG,AFNE01.JPG,,,,,,,,,2,0,20,3,,,,,,,,,,,,,,,AFSA12.jpg,AFSA07.jpg,AFNE16.jpg,AFNE19.jpg,AFNE16.jpg,FN,3,num_2,16,num_2,1.23342922388,,,2017_Sep_08_1545,60.0085649431,FEMA4ImagesEEG,001,101552,
AFNE01.JPG,AFNE01.JPG,AFNE01.JPG,AFNE01.JPG,AFNE01.JPG,AFNE01.JPG,,,,,,,,,2,1,21,2,,,,,,,,,,,,,,,AFNE05.jpg,AFSA12.jpg,AFSA05.jpg,AFNE17.jpg,AFSA12.jpg,FS,4,num_6,16,num_6,1.46674009471,,,2017_Sep_08_1545,60.0085649431,FEMA4ImagesEEG,001,101552,
AFNE01.JPG,AFNE01.JPG,AFNE01.JPG,AFNE01.JPG,AFNE01.JPG,AFNE01.JPG,,,,,,,,,2,2,22,6,,,,,,,,,,,,,,,AFSA08.jpg,AFNE08.jpg,AFNE01.jpg,AFSA14.jpg,AFNE08.jpg,FN,3,num_6,32,num_2,1.36672479543,,,2017_Sep_08_1545,60.0085649431,FEMA4ImagesEEG,001,101552,
AFNE01.JPG,AFNE01.JPG,AFNE01.JPG,AFNE01.JPG,AFNE01.JPG,AFNE01.JPG,,,,,,,,,2,3,23,7,,,,,,,,,,,,,,,AFSA11.jpg,AFNE09.jpg,AFSA15.jpg,AFNE10.jpg,AFSA11.jpg,FS,4,num_8,32,num_4,3.34990969568,,,2017_Sep_08_1545,60.0085649431,FEMA4ImagesEEG,001,101552,
AFNE01.JPG,AFNE01.JPG,AFNE01.JPG,AFNE01.JPG,AFNE01.JPG,AFNE01.JPG,,,,,,,,,2,4,24,4,,,,,,,,,,,,,,,AFNE12.jpg,AFSA08.jpg,AFSA07.jpg,AFNE16.jpg,AFNE16.jpg,FN,3,num_4,32,num_2,1.23314087885,,,2017_Sep_08_1545,60.0085649431,FEMA4ImagesEEG,001,101552,
AFNE01.JPG,AFNE01.JPG,AFNE01.JPG,AFNE01.JPG,AFNE01.JPG,AFNE01.JPG,,,,,,,,,2,5,25,9,,,,,,,,,,,,,,,AFNE10.jpg,AFSA09.jpg,AFNE19.jpg,AFSA10.jpg,AFNE10.jpg,FN,3,num_8,32,num_6,1.28342195915,,,2017_Sep_08_1545,60.0085649431,FEMA4ImagesEEG,001,101552,
AFNE01.JPG,AFNE01.JPG,AFNE01.JPG,AFNE01.JPG,AFNE01.JPG,AFNE01.JPG,,,,,,,,,2,6,26,8,,,,,,,,,,,,,,,AFNE15.jpg,AFSA20.jpg,AFSA14.jpg,AFNE13.jpg,AFNE13.jpg,FN,3,num_4,16,num_4,0.733523681643,,,2017_Sep_08_1545,60.0085649431,FEMA4ImagesEEG,001,101552,
AFNE01.JPG,AFNE01.JPG,AFNE01.JPG,AFNE01.JPG,AFNE01.JPG,AFNE01.JPG,,,,,,,,,2,7,27,0,,,,,,,,,,,,,,,AFNE11.jpg,AFSA19.jpg,AFNE04.jpg,AFSA01.jpg,AFSA01.jpg,FS,4,num_4,16,num_4,2.51667445526,,,2017_Sep_08_1545,60.0085649431,FEMA4ImagesEEG,001,101552,
AFNE01.JPG,AFNE01.JPG,AFNE01.JPG,AFNE01.JPG,AFNE01.JPG,AFNE01.JPG,,,,,,,,,2,8,28,5,,,,,,,,,,,,,,,AFSA06.jpg,AFSA07.jpg,AFNE11.jpg,AFNE19.jpg,AFSA06.jpg,FS,4,num_8,16,num_8,1.08349688386,,,2017_Sep_08_1545,60.0085649431,FEMA4ImagesEEG,001,101552,
AFNE01.JPG,AFNE01.JPG,AFNE01.JPG,AFNE01.JPG,AFNE01.JPG,AFNE01.JPG,,,,,,,,,2,9,29,1,,,,,,,,,,,,,,,AFSA01.jpg,AFSA17.jpg,AFNE08.jpg,AFNE05.jpg,AFNE05.jpg,FN,3,num_4,16,num_4,1.41678648966,,,2017_Sep_08_1545,60.0085649431,FEMA4ImagesEEG,001,101552,
AFNE01.JPG,AFNE01.JPG,AFNE01.JPG,AFNE01.JPG,AFNE01.JPG,AFNE01.JPG,,,,,,,,,3,0,30,4,,,,,,,,,,,,,,,AFNE19.jpg,AFNE05.jpg,AFSA04.jpg,AFSA09.jpg,AFSA04.jpg,FS,4,num_2,16,num_2,0.600215921993,,,2017_Sep_08_1545,60.0085649431,FEMA4ImagesEEG,001,101552,
AFNE01.JPG,AFNE01.JPG,AFNE01.JPG,AFNE01.JPG,AFNE01.JPG,AFNE01.JPG,,,,,,,,,3,1,31,7,,,,,,,,,,,,,,,AFSA17.jpg,AFNE04.jpg,AFSA09.jpg,AFNE09.jpg,AFSA17.jpg,FS,4,num_8,32,num_4,1.20010468946,,,2017_Sep_08_1545,60.0085649431,FEMA4ImagesEEG,001,101552,
AFNE01.JPG,AFNE01.JPG,AFNE01.JPG,AFNE01.JPG,AFNE01.JPG,AFNE01.JPG,,,,,,,,,3,2,32,1,,,,,,,,,,,,,,,AFSA11.jpg,AFNE06.jpg,AFNE15.jpg,AFSA10.jpg,AFSA10.jpg,FS,4,num_4,16,num_4,4.06651307503,,,2017_Sep_08_1545,60.0085649431,FEMA4ImagesEEG,001,101552,
AFNE01.JPG,AFNE01.JPG,AFNE01.JPG,AFNE01.JPG,AFNE01.JPG,AFNE01.JPG,,,,,,,,,3,3,33,9,,,,,,,,,,,,,,,AFSA19.jpg,AFNE13.jpg,AFNE04.jpg,AFSA14.jpg,AFNE04.jpg,FN,3,num_2,16,num_2,1.46671443549,,,2017_Sep_08_1545,60.0085649431,FEMA4ImagesEEG,001,101552,
AFNE01.JPG,AFNE01.JPG,AFNE01.JPG,AFNE01.JPG,AFNE01.JPG,AFNE01.JPG,,,,,,,,,3,4,34,5,,,,,,,,,,,,,,,AFSA15.jpg,AFNE16.jpg,AFSA10.jpg,AFNE02.jpg,AFSA15.jpg,FS,4,num_8,16,num_8,2.0163638189,,,2017_Sep_08_1545,60.0085649431,FEMA4ImagesEEG,001,101552,
AFNE01.JPG,AFNE01.JPG,AFNE01.JPG,AFNE01.JPG,AFNE01.JPG,AFNE01.JPG,,,,,,,,,3,5,35,2,,,,,,,,,,,,,,,AFSA13.jpg,AFNE10.jpg,AFSA20.jpg,AFNE05.jpg,AFSA20.jpg,FS,4,num_2,32,num_4,1.16676155222,,,2017_Sep_08_1545,60.0085649431,FEMA4ImagesEEG,001,101552,
AFNE01.JPG,AFNE01.JPG,AFNE01.JPG,AFNE01.JPG,AFNE01.JPG,AFNE01.JPG,,,,,,,,,3,6,36,8,,,,,,,,,,,,,,,AFNE07.jpg,AFSA01.jpg,AFNE10.jpg,AFSA03.jpg,AFNE07.jpg,FN,3,num_8,32,num_2,2.68334010628,,,2017_Sep_08_1545,60.0085649431,FEMA4ImagesEEG,001,101552,
AFNE01.JPG,AFNE01.JPG,AFNE01.JPG,AFNE01.JPG,AFNE01.JPG,AFNE01.JPG,,,,,,,,,3,7,37,3,,,,,,,,,,,,,,,AFNE04.jpg,AFSA14.jpg,AFNE18.jpg,AFSA03.jpg,AFNE18.jpg,FN,3,num_2,32,num_8,2.21701536945,,,2017_Sep_08_1545,60.0085649431,FEMA4ImagesEEG,001,101552,
AFNE01.JPG,AFNE01.JPG,AFNE01.JPG,AFNE01.JPG,AFNE01.JPG,AFNE01.JPG,,,,,,,,,3,8,38,6,,,,,,,,,,,,,,,AFSA03.jpg,AFNE11.jpg,AFSA09.jpg,AFNE10.jpg,AFSA03.jpg,FS,4,num_8,32,num_4,1.23345584527,,,2017_Sep_08_1545,60.0085649431,FEMA4ImagesEEG,001,101552,
AFNE01.JPG,AFNE01.JPG,AFNE01.JPG,AFNE01.JPG,AFNE01.JPG,AFNE01.JPG,,,,,,,,,3,9,39,0,,,,,,,,,,,,,,,AFNE17.jpg,AFSA20.jpg,AFNE09.jpg,AFSA07.jpg,AFNE17.jpg,FN,3,num_8,16,num_8,1.25006919948,,,2017_Sep_08_1545,60.0085649431,FEMA4ImagesEEG,001,101552,
AFNE01.JPG,AFNE01.JPG,AFNE01.JPG,AFNE01.JPG,AFNE01.JPG,AFNE01.JPG,,,,,,,,,4,0,40,6,,,,,,,,,,,,,,,AFSA17.jpg,AFNE02.jpg,AFSA12.jpg,AFNE20.jpg,AFNE02.jpg,FN,3,num_6,32,num_4,1.01675961167,,,2017_Sep_08_1545,60.0085649431,FEMA4ImagesEEG,001,101552,
AFNE01.JPG,AFNE01.JPG,AFNE01.JPG,AFNE01.JPG,AFNE01.JPG,AFNE01.JPG,,,,,,,,,4,1,41,3,,,,,,,,,,,,,,,AFNE07.jpg,AFNE16.jpg,AFSA04.jpg,AFSA01.jpg,AFNE07.jpg,FN,3,num_8,16,num_8,1.53341899219,,,2017_Sep_08_1545,60.0085649431,FEMA4ImagesEEG,001,101552,
AFNE01.JPG,AFNE01.JPG,AFNE01.JPG,AFNE01.JPG,AFNE01.JPG,AFNE01.JPG,,,,,,,,,4,2,42,4,,,,,,,,,,,,,,,AFNE09.jpg,AFNE19.jpg,AFSA01.jpg,AFSA12.jpg,AFSA12.jpg,FS,4,num_4,32,num_6,1.56671209401,,,2017_Sep_08_1545,60.0085649431,FEMA4ImagesEEG,001,101552,
AFNE01.JPG,AFNE01.JPG,AFNE01.JPG,AFNE01.JPG,AFNE01.JPG,AFNE01.JPG,,,,,,,,,4,3,43,0,,,,,,,,,,,,,,,AFNE01.jpg,AFSA15.jpg,AFNE12.jpg,AFSA18.jpg,AFNE01.jpg,FN,3,num_8,32,num_2,1.68344178086,,,2017_Sep_08_1545,60.0085649431,FEMA4ImagesEEG,001,101552,
AFNE01.JPG,AFNE01.JPG,AFNE01.JPG,AFNE01.JPG,AFNE01.JPG,AFNE01.JPG,,,,,,,,,4,4,44,8,,,,,,,,,,,,,,,AFSA15.jpg,AFNE19.jpg,AFNE14.jpg,AFSA20.jpg,AFSA20.jpg,FS,4,num_4,16,num_4,1.63340446271,,,2017_Sep_08_1545,60.0085649431,FEMA4ImagesEEG,001,101552,
AFNE01.JPG,AFNE01.JPG,AFNE01.JPG,AFNE01.JPG,AFNE01.JPG,AFNE01.JPG,,,,,,,,,4,5,45,2,,,,,,,,,,,,,,,AFSA07.jpg,AFNE01.jpg,AFNE16.jpg,AFSA06.jpg,AFSA07.jpg,FS,4,num_8,32,num_2,0.783511285088,,,2017_Sep_08_1545,60.0085649431,FEMA4ImagesEEG,001,101552,
AFNE01.JPG,AFNE01.JPG,AFNE01.JPG,AFNE01.JPG,AFNE01.JPG,AFNE01.JPG,,,,,,,,,4,6,46,5,,,,,,,,,,,,,,,AFSA09.jpg,AFNE19.jpg,AFSA07.jpg,AFNE14.jpg,AFNE19.jpg,FN,3,num_6,32,num_4,0.967052976252,,,2017_Sep_08_1545,60.0085649431,FEMA4ImagesEEG,001,101552,
AFNE01.JPG,AFNE01.JPG,AFNE01.JPG,AFNE01.JPG,AFNE01.JPG,AFNE01.JPG,,,,,,,,,4,7,47,1,,,,,,,,,,,,,,,AFSA02.jpg,AFNE11.jpg,AFNE08.jpg,AFSA18.jpg,AFNE11.jpg,FN,3,num_6,32,num_4,0.916729237651,,,2017_Sep_08_1545,60.0085649431,FEMA4ImagesEEG,001,101552,
AFNE01.JPG,AFNE01.JPG,AFNE01.JPG,AFNE01.JPG,AFNE01.JPG,AFNE01.JPG,,,,,,,,,4,8,48,7,,,,,,,,,,,,,,,AFNE13.jpg,AFSA19.jpg,AFNE20.jpg,AFSA12.jpg,AFSA19.jpg,FS,4,num_6,16,num_6,0.800064019626,,,2017_Sep_08_1545,60.0085649431,FEMA4ImagesEEG,001,101552,
AFNE01.JPG,AFNE01.JPG,AFNE01.JPG,AFNE01.JPG,AFNE01.JPG,AFNE01.JPG,,,,,,,,,4,9,49,9,,,,,,,,,,,,,,,AFNE01.jpg,AFSA05.jpg,AFNE04.jpg,AFSA18.jpg,AFNE04.jpg,FN,3,num_2,32,num_8,1.60001834633,,,2017_Sep_08_1545,60.0085649431,FEMA4ImagesEEG,001,101552,
AFNE01.JPG,AFNE01.JPG,AFNE01.JPG,AFNE01.JPG,AFNE01.JPG,AFNE01.JPG,,,,,,,,,5,0,50,9,,,,,,,,,,,,,,,AFNE19.jpg,AFNE15.jpg,AFSA04.jpg,AFSA01.jpg,AFNE19.jpg,FN,3,num_8,32,num_6,1.98340460705,,,2017_Sep_08_1545,60.0085649431,FEMA4ImagesEEG,001,101552,
AFNE01.JPG,AFNE01.JPG,AFNE01.JPG,AFNE01.JPG,AFNE01.JPG,AFNE01.JPG,,,,,,,,,5,1,51,7,,,,,,,,,,,,,,,AFNE06.jpg,AFSA06.jpg,AFNE11.jpg,AFSA08.jpg,AFSA08.jpg,FS,4,num_4,32,num_2,1.23341350746,,,2017_Sep_08_1545,60.0085649431,FEMA4ImagesEEG,001,101552,
AFNE01.JPG,AFNE01.JPG,AFNE01.JPG,AFNE01.JPG,AFNE01.JPG,AFNE01.JPG,,,,,,,,,5,2,52,6,,,,,,,,,,,,,,,AFNE15.jpg,AFSA16.jpg,AFNE01.jpg,AFSA18.jpg,AFSA16.jpg,FS,4,num_6,48,None,,,,2017_Sep_08_1545,60.0085649431,FEMA4ImagesEEG,001,101552,
AFNE01.JPG,AFNE01.JPG,AFNE01.JPG,AFNE01.JPG,AFNE01.JPG,AFNE01.JPG,,,,,,,,,5,3,53,3,,,,,,,,,,,,,,,AFNE08.jpg,AFSA05.jpg,AFSA14.jpg,AFNE02.jpg,AFNE02.jpg,FN,3,num_4,16,num_4,1.38346997369,,,2017_Sep_08_1545,60.0085649431,FEMA4ImagesEEG,001,101552,
AFNE01.JPG,AFNE01.JPG,AFNE01.JPG,AFNE01.JPG,AFNE01.JPG,AFNE01.JPG,,,,,,,,,5,4,54,0,,,,,,,,,,,,,,,AFSA20.jpg,AFNE20.jpg,AFSA10.jpg,AFNE07.jpg,AFSA10.jpg,FS,4,num_2,32,num_4,0.833468418219,,,2017_Sep_08_1545,60.0085649431,FEMA4ImagesEEG,001,101552,
AFNE01.JPG,AFNE01.JPG,AFNE01.JPG,AFNE01.JPG,AFNE01.JPG,AFNE01.JPG,,,,,,,,,5,5,55,1,,,,,,,,,,,,,,,AFNE17.jpg,AFSA07.jpg,AFSA17.jpg,AFNE15.jpg,AFSA17.jpg,FS,4,num_2,16,num_2,1.08347058319,,,2017_Sep_08_1545,60.0085649431,FEMA4ImagesEEG,001,101552,
AFNE01.JPG,AFNE01.JPG,AFNE01.JPG,AFNE01.JPG,AFNE01.JPG,AFNE01.JPG,,,,,,,,,5,6,56,4,,,,,,,,,,,,,,,AFNE14.jpg,AFSA16.jpg,AFNE09.jpg,AFSA06.jpg,AFSA06.jpg,FS,4,num_4,16,num_4,1.06678826979,,,2017_Sep_08_1545,60.0085649431,FEMA4ImagesEEG,001,101552,
AFNE01.JPG,AFNE01.JPG,AFNE01.JPG,AFNE01.JPG,AFNE01.JPG,AFNE01.JPG,,,,,,,,,5,7,57,8,,,,,,,,,,,,,,,AFNE08.jpg,AFSA10.jpg,AFSA08.jpg,AFNE16.jpg,AFSA10.jpg,FS,4,num_6,16,num_6,1.61671669676,,,2017_Sep_08_1545,60.0085649431,FEMA4ImagesEEG,001,101552,
AFNE01.JPG,AFNE01.JPG,AFNE01.JPG,AFNE01.JPG,AFNE01.JPG,AFNE01.JPG,,,,,,,,,5,8,58,5,,,,,,,,,,,,,,,AFNE10.jpg,AFSA13.jpg,AFNE08.jpg,AFSA10.jpg,AFSA10.jpg,FS,4,num_4,16,num_4,0.666813672404,,,2017_Sep_08_1545,60.0085649431,FEMA4ImagesEEG,001,101552,
AFNE01.JPG,AFNE01.JPG,AFNE01.JPG,AFNE01.JPG,AFNE01.JPG,AFNE01.JPG,,,,,,,,,5,9,59,2,,,,,,,,,,,,,,,AFNE16.jpg,AFNE13.jpg,AFSA17.jpg,AFSA07.jpg,AFSA07.jpg,FS,4,num_4,32,num_8,1.36679952766,,,2017_Sep_08_1545,60.0085649431,FEMA4ImagesEEG,001,101552,
,,,,,,,,,,,,,,,,,,,,,,,,,,,,,,,,,,,,,,,,,,,space,3.21651982667,2017_Sep_08_1545,60.0085649431,FEMA4ImagesEEG,001,101552,
AFNE01.JPG,AFNE01.JPG,AFNE01.JPG,AFNE01.JPG,AFNE01.JPG,AFNE01.JPG,,,,,,,,,,,,,0,0,0,1,,,,,,,,,,,AMNE11.jpg,AMNE16.jpg,AMSA03.jpg,AMSA17.jpg,AMNE11.jpg,MN,1,num_8,32,num_2,1.65006913536,,,2017_Sep_08_1545,60.0085649431,FEMA4ImagesEEG,001,101552,
AFNE01.JPG,AFNE01.JPG,AFNE01.JPG,AFNE01.JPG,AFNE01.JPG,AFNE01.JPG,,,,,,,,,,,,,0,1,1,3,,,,,,,,,,,AMNE02.jpg,AMSA06.jpg,AMNE09.jpg,AMSA08.jpg,AMSA08.jpg,MS,2,num_4,16,num_4,0.916665731231,,,2017_Sep_08_1545,60.0085649431,FEMA4ImagesEEG,001,101552,
AFNE01.JPG,AFNE01.JPG,AFNE01.JPG,AFNE01.JPG,AFNE01.JPG,AFNE01.JPG,,,,,,,,,,,,,0,2,2,4,,,,,,,,,,,AMNE02.jpg,AMSA02.jpg,AMNE07.jpg,AMSA18.jpg,AMSA18.jpg,MS,2,num_4,32,num_2,1.18346888328,,,2017_Sep_08_1545,60.0085649431,FEMA4ImagesEEG,001,101552,
AFNE01.JPG,AFNE01.JPG,AFNE01.JPG,AFNE01.JPG,AFNE01.JPG,AFNE01.JPG,,,,,,,,,,,,,0,3,3,6,,,,,,,,,,,AMNE12.jpg,AMSA11.jpg,AMNE10.jpg,AMSA17.jpg,AMNE12.jpg,MN,1,num_8,32,num_6,1.71643787762,,,2017_Sep_08_1545,60.0085649431,FEMA4ImagesEEG,001,101552,
AFNE01.JPG,AFNE01.JPG,AFNE01.JPG,AFNE01.JPG,AFNE01.JPG,AFNE01.JPG,,,,,,,,,,,,,0,4,4,2,,,,,,,,,,,AMSA04.jpg,AMSA06.jpg,AMNE18.jpg,AMNE01.jpg,AMNE18.jpg,MN,1,num_2,16,num_2,1.33343810833,,,2017_Sep_08_1545,60.0085649431,FEMA4ImagesEEG,001,101552,
AFNE01.JPG,AFNE01.JPG,AFNE01.JPG,AFNE01.JPG,AFNE01.JPG,AFNE01.JPG,,,,,,,,,,,,,0,5,5,9,,,,,,,,,,,AMNE02.jpg,AMNE18.jpg,AMSA03.jpg,AMSA01.jpg,AMNE02.jpg,MN,1,num_8,32,num_4,2.93357031723,,,2017_Sep_08_1545,60.0085649431,FEMA4ImagesEEG,001,101552,
AFNE01.JPG,AFNE01.JPG,AFNE01.JPG,AFNE01.JPG,AFNE01.JPG,AFNE01.JPG,,,,,,,,,,,,,0,6,6,5,,,,,,,,,,,AMSA16.jpg,AMNE12.jpg,AMSA17.jpg,AMNE03.jpg,AMNE03.jpg,MN,1,num_4,16,num_4,1.06674913946,,,2017_Sep_08_1545,60.0085649431,FEMA4ImagesEEG,001,101552,
AFNE01.JPG,AFNE01.JPG,AFNE01.JPG,AFNE01.JPG,AFNE01.JPG,AFNE01.JPG,,,,,,,,,,,,,0,7,7,0,,,,,,,,,,,AMNE18.jpg,AMNE04.jpg,AMSA06.jpg,AMSA03.jpg,AMSA06.jpg,MS,2,num_2,16,num_2,1.13350116566,,,2017_Sep_08_1545,60.0085649431,FEMA4ImagesEEG,001,101552,
AFNE01.JPG,AFNE01.JPG,AFNE01.JPG,AFNE01.JPG,AFNE01.JPG,AFNE01.JPG,,,,,,,,,,,,,0,8,8,7,,,,,,,,,,,AMSA07.jpg,AMNE15.jpg,AMSA05.jpg,AMNE13.jpg,AMSA05.jpg,MS,2,num_2,32,num_6,3.58313428762,,,2017_Sep_08_1545,60.0085649431,FEMA4ImagesEEG,001,101552,
AFNE01.JPG,AFNE01.JPG,AFNE01.JPG,AFNE01.JPG,AFNE01.JPG,AFNE01.JPG,,,,,,,,,,,,,0,9,9,8,,,,,,,,,,,AMNE07.jpg,AMNE02.jpg,AMSA07.jpg,AMSA14.jpg,AMSA14.jpg,MS,2,num_4,16,num_4,1.16673717601,,,2017_Sep_08_1545,60.0085649431,FEMA4ImagesEEG,001,101552,
AFNE01.JPG,AFNE01.JPG,AFNE01.JPG,AFNE01.JPG,AFNE01.JPG,AFNE01.JPG,,,,,,,,,,,,,1,0,10,6,,,,,,,,,,,AMSA01.jpg,AMSA14.jpg,AMNE04.jpg,AMNE01.jpg,AMSA01.jpg,MS,2,num_8,32,num_4,0.833436344168,,,2017_Sep_08_1545,60.0085649431,FEMA4ImagesEEG,001,101552,
AFNE01.JPG,AFNE01.JPG,AFNE01.JPG,AFNE01.JPG,AFNE01.JPG,AFNE01.JPG,,,,,,,,,,,,,1,1,11,4,,,,,,,,,,,AMNE01.jpg,AMNE08.jpg,AMSA14.jpg,AMSA05.jpg,AMSA14.jpg,MS,2,num_2,16,num_2,0.950150956167,,,2017_Sep_08_1545,60.0085649431,FEMA4ImagesEEG,001,101552,
AFNE01.JPG,AFNE01.JPG,AFNE01.JPG,AFNE01.JPG,AFNE01.JPG,AFNE01.JPG,,,,,,,,,,,,,1,2,12,8,,,,,,,,,,,AMSA06.jpg,AMNE16.jpg,AMNE13.jpg,AMSA08.jpg,AMNE13.jpg,MN,1,num_2,32,num_4,0.949953380506,,,2017_Sep_08_1545,60.0085649431,FEMA4ImagesEEG,001,101552,
AFNE01.JPG,AFNE01.JPG,AFNE01.JPG,AFNE01.JPG,AFNE01.JPG,AFNE01.JPG,,,,,,,,,,,,,1,3,13,0,,,,,,,,,,,AMSA12.jpg,AMNE06.jpg,AMNE15.jpg,AMSA06.jpg,AMSA12.jpg,MS,2,num_8,32,num_2,1.28319359233,,,2017_Sep_08_1545,60.0085649431,FEMA4ImagesEEG,001,101552,
AFNE01.JPG,AFNE01.JPG,AFNE01.JPG,AFNE01.JPG,AFNE01.JPG,AFNE01.JPG,,,,,,,,,,,,,1,4,14,2,,,,,,,,,,,AMSA15.jpg,AMNE06.jpg,AMSA10.jpg,AMNE14.jpg,AMNE14.jpg,MN,1,num_4,16,num_4,1.05008574983,,,2017_Sep_08_1545,60.0085649431,FEMA4ImagesEEG,001,101552,
AFNE01.JPG,AFNE01.JPG,AFNE01.JPG,AFNE01.JPG,AFNE01.JPG,AFNE01.JPG,,,,,,,,,,,,,1,5,15,9,,,,,,,,,,,AMSA11.jpg,AMSA10.jpg,AMNE17.jpg,AMNE15.jpg,AMSA10.jpg,MS,2,num_6,32,num_2,1.16679811652,,,2017_Sep_08_1545,60.0085649431,FEMA4ImagesEEG,001,101552,
AFNE01.JPG,AFNE01.JPG,AFNE01.JPG,AFNE01.JPG,AFNE01.JPG,AFNE01.JPG,,,,,,,,,,,,,1,6,16,5,,,,,,,,,,,AMSA04.jpg,AMNE10.jpg,AMSA14.jpg,AMNE19.jpg,AMSA14.jpg,MS,2,num_2,16,num_2,0.817034677952,,,2017_Sep_08_1545,60.0085649431,FEMA4ImagesEEG,001,101552,
AFNE01.JPG,AFNE01.JPG,AFNE01.JPG,AFNE01.JPG,AFNE01.JPG,AFNE01.JPG,,,,,,,,,,,,,1,7,17,3,,,,,,,,,,,AMNE01.jpg,AMNE06.jpg,AMSA08.jpg,AMSA04.jpg,AMSA08.jpg,MS,2,num_2,32,num_4,0.800116941682,,,2017_Sep_08_1545,60.0085649431,FEMA4ImagesEEG,001,101552,
AFNE01.JPG,AFNE01.JPG,AFNE01.JPG,AFNE01.JPG,AFNE01.JPG,AFNE01.JPG,,,,,,,,,,,,,1,8,18,1,,,,,,,,,,,AMSA11.jpg,AMNE13.jpg,AMSA01.jpg,AMNE16.jpg,AMNE16.jpg,MN,1,num_4,16,num_4,1.63353404158,,,2017_Sep_08_1545,60.0085649431,FEMA4ImagesEEG,001,101552,
AFNE01.JPG,AFNE01.JPG,AFNE01.JPG,AFNE01.JPG,AFNE01.JPG,AFNE01.JPG,,,,,,,,,,,,,1,9,19,7,,,,,,,,,,,AMSA13.jpg,AMSA12.jpg,AMNE13.jpg,AMNE02.jpg,AMNE13.jpg,MN,1,num_2,16,num_2,1.58328984631,,,2017_Sep_08_1545,60.0085649431,FEMA4ImagesEEG,001,101552,
AFNE01.JPG,AFNE01.JPG,AFNE01.JPG,AFNE01.JPG,AFNE01.JPG,AFNE01.JPG,,,,,,,,,,,,,2,0,20,1,,,,,,,,,,,AMSA12.jpg,AMNE11.jpg,AMNE20.jpg,AMSA05.jpg,AMNE20.jpg,MN,1,num_2,16,num_2,1.25010800909,,,2017_Sep_08_1545,60.0085649431,FEMA4ImagesEEG,001,101552,
AFNE01.JPG,AFNE01.JPG,AFNE01.JPG,AFNE01.JPG,AFNE01.JPG,AFNE01.JPG,,,,,,,,,,,,,2,1,21,7,,,,,,,,,,,AMNE20.jpg,AMSA07.jpg,AMNE14.jpg,AMSA20.jpg,AMNE20.jpg,MN,1,num_8,32,num_4,0.683521324303,,,2017_Sep_08_1545,60.0085649431,FEMA4ImagesEEG,001,101552,
AFNE01.JPG,AFNE01.JPG,AFNE01.JPG,AFNE01.JPG,AFNE01.JPG,AFNE01.JPG,,,,,,,,,,,,,2,2,22,6,,,,,,,,,,,AMNE14.jpg,AMSA07.jpg,AMSA01.jpg,AMNE12.jpg,AMSA01.jpg,MS,2,num_2,16,num_2,0.800120469881,,,2017_Sep_08_1545,60.0085649431,FEMA4ImagesEEG,001,101552,
AFNE01.JPG,AFNE01.JPG,AFNE01.JPG,AFNE01.JPG,AFNE01.JPG,AFNE01.JPG,,,,,,,,,,,,,2,3,23,0,,,,,,,,,,,AMSA13.jpg,AMNE11.jpg,AMSA04.jpg,AMNE19.jpg,AMSA13.jpg,MS,2,num_8,32,num_4,0.916771254619,,,2017_Sep_08_1545,60.0085649431,FEMA4ImagesEEG,001,101552,
AFNE01.JPG,AFNE01.JPG,AFNE01.JPG,AFNE01.JPG,AFNE01.JPG,AFNE01.JPG,,,,,,,,,,,,,2,4,24,3,,,,,,,,,,,AMNE15.jpg,AMSA06.jpg,AMNE12.jpg,AMSA03.jpg,AMNE12.jpg,MN,1,num_2,32,num_8,1.85005996237,,,2017_Sep_08_1545,60.0085649431,FEMA4ImagesEEG,001,101552,
AFNE01.JPG,AFNE01.JPG,AFNE01.JPG,AFNE01.JPG,AFNE01.JPG,AFNE01.JPG,,,,,,,,,,,,,2,5,25,9,,,,,,,,,,,AMNE14.jpg,AMSA08.jpg,AMNE03.jpg,AMSA09.jpg,AMNE14.jpg,MN,1,num_8,16,num_8,1.1501241423,,,2017_Sep_08_1545,60.0085649431,FEMA4ImagesEEG,001,101552,
AFNE01.JPG,AFNE01.JPG,AFNE01.JPG,AFNE01.JPG,AFNE01.JPG,AFNE01.JPG,,,,,,,,,,,,,2,6,26,5,,,,,,,,,,,AMSA08.jpg,AMSA16.jpg,AMNE16.jpg,AMNE06.jpg,AMSA16.jpg,MS,2,num_6,32,num_2,0.966788686812,,,2017_Sep_08_1545,60.0085649431,FEMA4ImagesEEG,001,101552,
AFNE01.JPG,AFNE01.JPG,AFNE01.JPG,AFNE01.JPG,AFNE01.JPG,AFNE01.JPG,,,,,,,,,,,,,2,7,27,8,,,,,,,,,,,AMNE09.jpg,AMSA06.jpg,AMNE18.jpg,AMSA14.jpg,AMNE09.jpg,MN,1,num_8,32,num_4,2.7999482326,,,2017_Sep_08_1545,60.0085649431,FEMA4ImagesEEG,001,101552,
AFNE01.JPG,AFNE01.JPG,AFNE01.JPG,AFNE01.JPG,AFNE01.JPG,AFNE01.JPG,,,,,,,,,,,,,2,8,28,2,,,,,,,,,,,AMNE12.jpg,AMNE15.jpg,AMSA17.jpg,AMSA15.jpg,AMSA17.jpg,MS,2,num_2,16,num_2,1.20023394749,,,2017_Sep_08_1545,60.0085649431,FEMA4ImagesEEG,001,101552,
AFNE01.JPG,AFNE01.JPG,AFNE01.JPG,AFNE01.JPG,AFNE01.JPG,AFNE01.JPG,,,,,,,,,,,,,2,9,29,4,,,,,,,,,,,AMSA07.jpg,AMNE17.jpg,AMSA20.jpg,AMNE05.jpg,AMSA20.jpg,MS,2,num_2,32,num_4,1.30009015999,,,2017_Sep_08_1545,60.0085649431,FEMA4ImagesEEG,001,101552,
AFNE01.JPG,AFNE01.JPG,AFNE01.JPG,AFNE01.JPG,AFNE01.JPG,AFNE01.JPG,,,,,,,,,,,,,3,0,30,1,,,,,,,,,,,AMSA14.jpg,AMNE19.jpg,AMSA09.jpg,AMNE02.jpg,AMNE02.jpg,MN,1,num_4,16,num_4,0.950109580765,,,2017_Sep_08_1545,60.0085649431,FEMA4ImagesEEG,001,101552,
AFNE01.JPG,AFNE01.JPG,AFNE01.JPG,AFNE01.JPG,AFNE01.JPG,AFNE01.JPG,,,,,,,,,,,,,3,1,31,9,,,,,,,,,,,AMSA02.jpg,AMNE01.jpg,AMSA15.jpg,AMNE17.jpg,AMSA02.jpg,MS,2,num_8,32,num_4,0.783450986026,,,2017_Sep_08_1545,60.0085649431,FEMA4ImagesEEG,001,101552,
AFNE01.JPG,AFNE01.JPG,AFNE01.JPG,AFNE01.JPG,AFNE01.JPG,AFNE01.JPG,,,,,,,,,,,,,3,2,32,7,,,,,,,,,,,AMSA02.jpg,AMNE12.jpg,AMSA05.jpg,AMNE18.jpg,AMNE18.jpg,MN,1,num_4,16,num_4,0.666797635378,,,2017_Sep_08_1545,60.0085649431,FEMA4ImagesEEG,001,101552,
AFNE01.JPG,AFNE01.JPG,AFNE01.JPG,AFNE01.JPG,AFNE01.JPG,AFNE01.JPG,,,,,,,,,,,,,3,3,33,4,,,,,,,,,,,AMSA04.jpg,AMNE13.jpg,AMSA07.jpg,AMNE08.jpg,AMSA07.jpg,MS,2,num_2,32,num_8,3.31657457701,,,2017_Sep_08_1545,60.0085649431,FEMA4ImagesEEG,001,101552,
AFNE01.JPG,AFNE01.JPG,AFNE01.JPG,AFNE01.JPG,AFNE01.JPG,AFNE01.JPG,,,,,,,,,,,,,3,4,34,8,,,,,,,,,,,AMNE20.jpg,AMNE06.jpg,AMSA05.jpg,AMSA09.jpg,AMSA09.jpg,MS,2,num_4,32,num_8,1.56706009666,,,2017_Sep_08_1545,60.0085649431,FEMA4ImagesEEG,001,101552,
AFNE01.JPG,AFNE01.JPG,AFNE01.JPG,AFNE01.JPG,AFNE01.JPG,AFNE01.JPG,,,,,,,,,,,,,3,5,35,5,,,,,,,,,,,AMSA10.jpg,AMSA13.jpg,AMNE04.jpg,AMNE15.jpg,AMSA13.jpg,MS,2,num_6,16,num_6,0.816777444794,,,2017_Sep_08_1545,60.0085649431,FEMA4ImagesEEG,001,101552,
AFNE01.JPG,AFNE01.JPG,AFNE01.JPG,AFNE01.JPG,AFNE01.JPG,AFNE01.JPG,,,,,,,,,,,,,3,6,36,0,,,,,,,,,,,AMSA14.jpg,AMSA03.jpg,AMNE16.jpg,AMNE13.jpg,AMNE16.jpg,MN,1,num_2,16,num_2,1.8665860754,,,2017_Sep_08_1545,60.0085649431,FEMA4ImagesEEG,001,101552,
AFNE01.JPG,AFNE01.JPG,AFNE01.JPG,AFNE01.JPG,AFNE01.JPG,AFNE01.JPG,,,,,,,,,,,,,3,7,37,2,,,,,,,,,,,AMSA20.jpg,AMSA17.jpg,AMNE03.jpg,AMNE11.jpg,AMNE03.jpg,MN,1,num_2,32,num_6,1.48326043447,,,2017_Sep_08_1545,60.0085649431,FEMA4ImagesEEG,001,101552,
AFNE01.JPG,AFNE01.JPG,AFNE01.JPG,AFNE01.JPG,AFNE01.JPG,AFNE01.JPG,,,,,,,,,,,,,3,8,38,6,,,,,,,,,,,AMNE03.jpg,AMNE15.jpg,AMSA01.jpg,AMSA07.jpg,AMNE15.jpg,MN,1,num_6,16,num_6,2.83334044309,,,2017_Sep_08_1545,60.0085649431,FEMA4ImagesEEG,001,101552,
AFNE01.JPG,AFNE01.JPG,AFNE01.JPG,AFNE01.JPG,AFNE01.JPG,AFNE01.JPG,,,,,,,,,,,,,3,9,39,3,,,,,,,,,,,AMNE08.jpg,AMNE02.jpg,AMSA03.jpg,AMSA09.jpg,AMSA03.jpg,MS,2,num_2,16,num_2,0.950121448026,,,2017_Sep_08_1545,60.0085649431,FEMA4ImagesEEG,001,101552,
AFNE01.JPG,AFNE01.JPG,AFNE01.JPG,AFNE01.JPG,AFNE01.JPG,AFNE01.JPG,,,,,,,,,,,,,4,0,40,0,,,,,,,,,,,AMNE10.jpg,AMSA09.jpg,AMNE18.jpg,AMSA10.jpg,AMSA10.jpg,MS,2,num_4,16,num_4,0.766798822209,,,2017_Sep_08_1545,60.0085649431,FEMA4ImagesEEG,001,101552,
AFNE01.JPG,AFNE01.JPG,AFNE01.JPG,AFNE01.JPG,AFNE01.JPG,AFNE01.JPG,,,,,,,,,,,,,4,1,41,7,,,,,,,,,,,AMNE10.jpg,AMSA12.jpg,AMSA01.jpg,AMNE07.jpg,AMSA12.jpg,MS,2,num_6,32,num_2,2.73333348299,,,2017_Sep_08_1545,60.0085649431,FEMA4ImagesEEG,001,101552,
AFNE01.JPG,AFNE01.JPG,AFNE01.JPG,AFNE01.JPG,AFNE01.JPG,AFNE01.JPG,,,,,,,,,,,,,4,2,42,5,,,,,,,,,,,AMNE06.jpg,AMSA01.jpg,AMSA15.jpg,AMNE01.jpg,AMSA15.jpg,MS,2,num_2,32,num_8,2.23338143353,,,2017_Sep_08_1545,60.0085649431,FEMA4ImagesEEG,001,101552,
AFNE01.JPG,AFNE01.JPG,AFNE01.JPG,AFNE01.JPG,AFNE01.JPG,AFNE01.JPG,,,,,,,,,,,,,4,3,43,6,,,,,,,,,,,AMNE05.jpg,AMSA17.jpg,AMSA15.jpg,AMNE13.jpg,AMSA15.jpg,MS,2,num_2,16,num_2,0.833455588669,,,2017_Sep_08_1545,60.0085649431,FEMA4ImagesEEG,001,101552,
AFNE01.JPG,AFNE01.JPG,AFNE01.JPG,AFNE01.JPG,AFNE01.JPG,AFNE01.JPG,,,,,,,,,,,,,4,4,44,1,,,,,,,,,,,AMNE09.jpg,AMSA18.jpg,AMNE10.jpg,AMSA15.jpg,AMNE10.jpg,MN,1,num_2,32,num_8,1.10009420128,,,2017_Sep_08_1545,60.0085649431,FEMA4ImagesEEG,001,101552,
AFNE01.JPG,AFNE01.JPG,AFNE01.JPG,AFNE01.JPG,AFNE01.JPG,AFNE01.JPG,,,,,,,,,,,,,4,5,45,3,,,,,,,,,,,AMSA12.jpg,AMNE19.jpg,AMSA06.jpg,AMNE12.jpg,AMNE19.jpg,MN,1,num_6,16,num_6,2.61665511469,,,2017_Sep_08_1545,60.0085649431,FEMA4ImagesEEG,001,101552,
AFNE01.JPG,AFNE01.JPG,AFNE01.JPG,AFNE01.JPG,AFNE01.JPG,AFNE01.JPG,,,,,,,,,,,,,4,6,46,2,,,,,,,,,,,AMSA16.jpg,AMNE02.jpg,AMSA02.jpg,AMNE18.jpg,AMSA02.jpg,MS,2,num_2,32,num_6,0.96672229364,,,2017_Sep_08_1545,60.0085649431,FEMA4ImagesEEG,001,101552,
AFNE01.JPG,AFNE01.JPG,AFNE01.JPG,AFNE01.JPG,AFNE01.JPG,AFNE01.JPG,,,,,,,,,,,,,4,7,47,8,,,,,,,,,,,AMNE05.jpg,AMNE19.jpg,AMSA18.jpg,AMSA19.jpg,AMSA19.jpg,MS,2,num_4,16,num_4,0.816757238237,,,2017_Sep_08_1545,60.0085649431,FEMA4ImagesEEG,001,101552,
AFNE01.JPG,AFNE01.JPG,AFNE01.JPG,AFNE01.JPG,AFNE01.JPG,AFNE01.JPG,,,,,,,,,,,,,4,8,48,4,,,,,,,,,,,AMSA02.jpg,AMSA08.jpg,AMNE19.jpg,AMNE01.jpg,AMNE19.jpg,MN,1,num_2,16,num_2,0.550140435807,,,2017_Sep_08_1545,60.0085649431,FEMA4ImagesEEG,001,101552,
AFNE01.JPG,AFNE01.JPG,AFNE01.JPG,AFNE01.JPG,AFNE01.JPG,AFNE01.JPG,,,,,,,,,,,,,4,9,49,9,,,,,,,,,,,AMNE11.jpg,AMSA03.jpg,AMSA14.jpg,AMNE17.jpg,AMNE17.jpg,MN,1,num_4,16,num_4,1.4667740931,,,2017_Sep_08_1545,60.0085649431,FEMA4ImagesEEG,001,101552,
AFNE01.JPG,AFNE01.JPG,AFNE01.JPG,AFNE01.JPG,AFNE01.JPG,AFNE01.JPG,,,,,,,,,,,,,5,0,50,5,,,,,,,,,,,AMNE17.jpg,AMSA08.jpg,AMSA05.jpg,AMNE03.jpg,AMNE03.jpg,MN,1,num_4,32,num_8,1.30007668887,,,2017_Sep_08_1545,60.0085649431,FEMA4ImagesEEG,001,101552,
AFNE01.JPG,AFNE01.JPG,AFNE01.JPG,AFNE01.JPG,AFNE01.JPG,AFNE01.JPG,,,,,,,,,,,,,5,1,51,0,,,,,,,,,,,AMSA15.jpg,AMNE02.jpg,AMSA11.jpg,AMNE04.jpg,AMSA11.jpg,MS,2,num_2,32,num_8,1.43340882473,,,2017_Sep_08_1545,60.0085649431,FEMA4ImagesEEG,001,101552,
AFNE01.JPG,AFNE01.JPG,AFNE01.JPG,AFNE01.JPG,AFNE01.JPG,AFNE01.JPG,,,,,,,,,,,,,5,2,52,7,,,,,,,,,,,AMSA02.jpg,AMSA09.jpg,AMNE07.jpg,AMNE01.jpg,AMSA02.jpg,MS,2,num_8,16,num_8,1.46673367987,,,2017_Sep_08_1545,60.0085649431,FEMA4ImagesEEG,001,101552,
AFNE01.JPG,AFNE01.JPG,AFNE01.JPG,AFNE01.JPG,AFNE01.JPG,AFNE01.JPG,,,,,,,,,,,,,5,3,53,6,,,,,,,,,,,AMSA18.jpg,AMNE03.jpg,AMNE04.jpg,AMSA04.jpg,AMNE03.jpg,MN,1,num_6,16,num_6,1.06676998758,,,2017_Sep_08_1545,60.0085649431,FEMA4ImagesEEG,001,101552,
AFNE01.JPG,AFNE01.JPG,AFNE01.JPG,AFNE01.JPG,AFNE01.JPG,AFNE01.JPG,,,,,,,,,,,,,5,4,54,1,,,,,,,,,,,AMSA11.jpg,AMNE06.jpg,AMSA01.jpg,AMNE02.jpg,AMNE02.jpg,MN,1,num_4,16,num_4,0.800125601701,,,2017_Sep_08_1545,60.0085649431,FEMA4ImagesEEG,001,101552,
AFNE01.JPG,AFNE01.JPG,AFNE01.JPG,AFNE01.JPG,AFNE01.JPG,AFNE01.JPG,,,,,,,,,,,,,5,5,55,8,,,,,,,,,,,AMNE10.jpg,AMSA08.jpg,AMSA13.jpg,AMNE11.jpg,AMNE11.jpg,MN,1,num_4,32,num_8,1.48342657764,,,2017_Sep_08_1545,60.0085649431,FEMA4ImagesEEG,001,101552,
AFNE01.JPG,AFNE01.JPG,AFNE01.JPG,AFNE01.JPG,AFNE01.JPG,AFNE01.JPG,,,,,,,,,,,,,5,6,56,9,,,,,,,,,,,AMSA06.jpg,AMNE09.jpg,AMSA17.jpg,AMNE19.jpg,AMNE19.jpg,MN,1,num_4,32,num_6,0.98342385143,,,2017_Sep_08_1545,60.0085649431,FEMA4ImagesEEG,001,101552,
AFNE01.JPG,AFNE01.JPG,AFNE01.JPG,AFNE01.JPG,AFNE01.JPG,AFNE01.JPG,,,,,,,,,,,,,5,7,57,2,,,,,,,,,,,AMNE16.jpg,AMSA20.jpg,AMNE11.jpg,AMSA13.jpg,AMSA20.jpg,MS,2,num_6,32,num_2,2.10003903403,,,2017_Sep_08_1545,60.0085649431,FEMA4ImagesEEG,001,101552,
AFNE01.JPG,AFNE01.JPG,AFNE01.JPG,AFNE01.JPG,AFNE01.JPG,AFNE01.JPG,,,,,,,,,,,,,5,8,58,4,,,,,,,,,,,AMSA01.jpg,AMSA04.jpg,AMNE15.jpg,AMNE12.jpg,AMNE12.jpg,MN,1,num_4,16,num_4,0.966818836285,,,2017_Sep_08_1545,60.0085649431,FEMA4ImagesEEG,001,101552,
AFNE01.JPG,AFNE01.JPG,AFNE01.JPG,AFNE01.JPG,AFNE01.JPG,AFNE01.JPG,,,,,,,,,,,,,5,9,59,3,,,,,,,,,,,AMSA06.jpg,AMSA04.jpg,AMNE01.jpg,AMNE04.jpg,AMNE04.jpg,MN,1,num_4,16,num_4,0.800005324301,,,2017_Sep_08_1545,60.0085649431,FEMA4ImagesEEG,001,101552,
,,,,,,,,,,,,,,,,,,,,,,,,,,,,,,,,,,,,,,,,,,,space,33.9973269553,2017_Sep_08_1545,60.0085649431,FEMA4ImagesEEG,001,101552,
AFNE01.JPG,AFNE01.JPG,AFNE01.JPG,AFNE01.JPG,AFNE01.JPG,AFNE01.JPG,,,,,,,,,,,,,,,,,0,0,0,4,,,,,,,AFSA07.jpg,AFSA15.jpg,AFNE06.jpg,AFNE20.jpg,AFNE20.jpg,FN,3,num_4,32,num_8,1.61701562605,,,2017_Sep_08_1545,60.0085649431,FEMA4ImagesEEG,001,101552,
AFNE01.JPG,AFNE01.JPG,AFNE01.JPG,AFNE01.JPG,AFNE01.JPG,AFNE01.JPG,,,,,,,,,,,,,,,,,0,1,1,8,,,,,,,AFSA01.jpg,AFNE10.jpg,AFNE12.jpg,AFSA10.jpg,AFSA10.jpg,FS,4,num_4,16,num_4,0.816788991448,,,2017_Sep_08_1545,60.0085649431,FEMA4ImagesEEG,001,101552,
AFNE01.JPG,AFNE01.JPG,AFNE01.JPG,AFNE01.JPG,AFNE01.JPG,AFNE01.JPG,,,,,,,,,,,,,,,,,0,2,2,1,,,,,,,AFSA15.jpg,AFSA04.jpg,AFNE04.jpg,AFNE08.jpg,AFSA15.jpg,FS,4,num_8,32,num_2,1.30007059488,,,2017_Sep_08_1545,60.0085649431,FEMA4ImagesEEG,001,101552,
AFNE01.JPG,AFNE01.JPG,AFNE01.JPG,AFNE01.JPG,AFNE01.JPG,AFNE01.JPG,,,,,,,,,,,,,,,,,0,3,3,3,,,,,,,AFSA07.jpg,AFNE18.jpg,AFSA01.jpg,AFNE07.jpg,AFNE18.jpg,FN,3,num_6,32,num_4,1.7667102979,,,2017_Sep_08_1545,60.0085649431,FEMA4ImagesEEG,001,101552,
AFNE01.JPG,AFNE01.JPG,AFNE01.JPG,AFNE01.JPG,AFNE01.JPG,AFNE01.JPG,,,,,,,,,,,,,,,,,0,4,4,2,,,,,,,AFNE12.jpg,AFSA14.jpg,AFSA13.jpg,AFNE19.jpg,AFSA14.jpg,FS,4,num_6,32,num_4,1.43343352177,,,2017_Sep_08_1545,60.0085649431,FEMA4ImagesEEG,001,101552,
AFNE01.JPG,AFNE01.JPG,AFNE01.JPG,AFNE01.JPG,AFNE01.JPG,AFNE01.JPG,,,,,,,,,,,,,,,,,0,5,5,7,,,,,,,AFNE06.jpg,AFNE15.jpg,AFSA16.jpg,AFSA05.jpg,AFSA05.jpg,FS,4,num_4,32,num_2,1.01677276194,,,2017_Sep_08_1545,60.0085649431,FEMA4ImagesEEG,001,101552,
AFNE01.JPG,AFNE01.JPG,AFNE01.JPG,AFNE01.JPG,AFNE01.JPG,AFNE01.JPG,,,,,,,,,,,,,,,,,0,6,6,6,,,,,,,AFSA11.jpg,AFNE19.jpg,AFNE06.jpg,AFSA20.jpg,AFSA11.jpg,FS,4,num_8,16,num_8,1.73335016146,,,2017_Sep_08_1545,60.0085649431,FEMA4ImagesEEG,001,101552,
AFNE01.JPG,AFNE01.JPG,AFNE01.JPG,AFNE01.JPG,AFNE01.JPG,AFNE01.JPG,,,,,,,,,,,,,,,,,0,7,7,5,,,,,,,AFSA19.jpg,AFSA01.jpg,AFNE13.jpg,AFNE09.jpg,AFNE09.jpg,FN,3,num_4,16,num_4,0.816787387826,,,2017_Sep_08_1545,60.0085649431,FEMA4ImagesEEG,001,101552,
AFNE01.JPG,AFNE01.JPG,AFNE01.JPG,AFNE01.JPG,AFNE01.JPG,AFNE01.JPG,,,,,,,,,,,,,,,,,0,8,8,0,,,,,,,AFNE04.jpg,AFSA04.jpg,AFSA01.jpg,AFNE16.jpg,AFSA04.jpg,FS,4,num_6,16,num_6,2.0000256591,,,2017_Sep_08_1545,60.0085649431,FEMA4ImagesEEG,001,101552,
AFNE01.JPG,AFNE01.JPG,AFNE01.JPG,AFNE01.JPG,AFNE01.JPG,AFNE01.JPG,,,,,,,,,,,,,,,,,0,9,9,9,,,,,,,AFNE09.jpg,AFSA12.jpg,AFSA06.jpg,AFNE15.jpg,AFNE15.jpg,FN,3,num_4,16,num_4,0.733432591544,,,2017_Sep_08_1545,60.0085649431,FEMA4ImagesEEG,001,101552,
AFNE01.JPG,AFNE01.JPG,AFNE01.JPG,AFNE01.JPG,AFNE01.JPG,AFNE01.JPG,,,,,,,,,,,,,,,,,1,0,10,9,,,,,,,AFNE20.jpg,AFNE18.jpg,AFSA11.jpg,AFSA12.jpg,AFNE18.jpg,FN,3,num_6,16,num_6,2.06677062903,,,2017_Sep_08_1545,60.0085649431,FEMA4ImagesEEG,001,101552,
AFNE01.JPG,AFNE01.JPG,AFNE01.JPG,AFNE01.JPG,AFNE01.JPG,AFNE01.JPG,,,,,,,,,,,,,,,,,1,1,11,2,,,,,,,AFNE05.jpg,AFSA07.jpg,AFSA06.jpg,AFNE13.jpg,AFSA07.jpg,FS,4,num_6,32,num_2,0.866793273366,,,2017_Sep_08_1545,60.0085649431,FEMA4ImagesEEG,001,101552,
AFNE01.JPG,AFNE01.JPG,AFNE01.JPG,AFNE01.JPG,AFNE01.JPG,AFNE01.JPG,,,,,,,,,,,,,,,,,1,2,12,3,,,,,,,AFSA09.jpg,AFNE01.jpg,AFSA12.jpg,AFNE13.jpg,AFSA12.jpg,FS,4,num_2,16,num_2,1.58339248307,,,2017_Sep_08_1545,60.0085649431,FEMA4ImagesEEG,001,101552,
AFNE01.JPG,AFNE01.JPG,AFNE01.JPG,AFNE01.JPG,AFNE01.JPG,AFNE01.JPG,,,,,,,,,,,,,,,,,1,3,13,8,,,,,,,AFSA06.jpg,AFNE05.jpg,AFNE07.jpg,AFSA07.jpg,AFNE05.jpg,FN,3,num_6,16,num_6,0.500186510035,,,2017_Sep_08_1545,60.0085649431,FEMA4ImagesEEG,001,101552,
AFNE01.JPG,AFNE01.JPG,AFNE01.JPG,AFNE01.JPG,AFNE01.JPG,AFNE01.JPG,,,,,,,,,,,,,,,,,1,4,14,7,,,,,,,AFNE19.jpg,AFSA08.jpg,AFSA09.jpg,AFNE11.jpg,AFNE19.jpg,FN,3,num_8,16,num_8,1.73341976199,,,2017_Sep_08_1545,60.0085649431,FEMA4ImagesEEG,001,101552,
AFNE01.JPG,AFNE01.JPG,AFNE01.JPG,AFNE01.JPG,AFNE01.JPG,AFNE01.JPG,,,,,,,,,,,,,,,,,1,5,15,5,,,,,,,AFSA02.jpg,AFSA10.jpg,AFNE15.jpg,AFNE14.jpg,AFNE14.jpg,FN,3,num_4,16,num_4,0.81673157902,,,2017_Sep_08_1545,60.0085649431,FEMA4ImagesEEG,001,101552,
AFNE01.JPG,AFNE01.JPG,AFNE01.JPG,AFNE01.JPG,AFNE01.JPG,AFNE01.JPG,,,,,,,,,,,,,,,,,1,6,16,0,,,,,,,AFSA01.jpg,AFSA10.jpg,AFNE08.jpg,AFNE12.jpg,AFSA10.jpg,FS,4,num_6,32,num_4,2.90001452959,,,2017_Sep_08_1545,60.0085649431,FEMA4ImagesEEG,001,101552,
AFNE01.JPG,AFNE01.JPG,AFNE01.JPG,AFNE01.JPG,AFNE01.JPG,AFNE01.JPG,,,,,,,,,,,,,,,,,1,7,17,6,,,,,,,AFNE07.jpg,AFSA03.jpg,AFSA12.jpg,AFNE18.jpg,AFSA12.jpg,FS,4,num_2,32,num_6,1.46669390821,,,2017_Sep_08_1545,60.0085649431,FEMA4ImagesEEG,001,101552,
AFNE01.JPG,AFNE01.JPG,AFNE01.JPG,AFNE01.JPG,AFNE01.JPG,AFNE01.JPG,,,,,,,,,,,,,,,,,1,8,18,1,,,,,,,AFNE02.jpg,AFSA06.jpg,AFSA12.jpg,AFNE07.jpg,AFSA12.jpg,FS,4,num_2,16,num_2,0.933490773779,,,2017_Sep_08_1545,60.0085649431,FEMA4ImagesEEG,001,101552,
AFNE01.JPG,AFNE01.JPG,AFNE01.JPG,AFNE01.JPG,AFNE01.JPG,AFNE01.JPG,,,,,,,,,,,,,,,,,1,9,19,4,,,,,,,AFNE18.jpg,AFSA13.jpg,AFSA18.jpg,AFNE19.jpg,AFNE18.jpg,FN,3,num_8,16,num_8,2.16671023378,,,2017_Sep_08_1545,60.0085649431,FEMA4ImagesEEG,001,101552,
AFNE01.JPG,AFNE01.JPG,AFNE01.JPG,AFNE01.JPG,AFNE01.JPG,AFNE01.JPG,,,,,,,,,,,,,,,,,2,0,20,2,,,,,,,AFSA17.jpg,AFNE19.jpg,AFNE20.jpg,AFSA05.jpg,AFSA17.jpg,FS,4,num_8,32,num_4,0.983483508928,,,2017_Sep_08_1545,60.0085649431,FEMA4ImagesEEG,001,101552,
AFNE01.JPG,AFNE01.JPG,AFNE01.JPG,AFNE01.JPG,AFNE01.JPG,AFNE01.JPG,,,,,,,,,,,,,,,,,2,1,21,6,,,,,,,AFSA10.jpg,AFNE14.jpg,AFNE13.jpg,AFSA09.jpg,AFNE14.jpg,FN,3,num_6,32,num_2,0.900096638827,,,2017_Sep_08_1545,60.0085649431,FEMA4ImagesEEG,001,101552,
AFNE01.JPG,AFNE01.JPG,AFNE01.JPG,AFNE01.JPG,AFNE01.JPG,AFNE01.JPG,,,,,,,,,,,,,,,,,2,2,22,0,,,,,,,AFSA17.jpg,AFSA05.jpg,AFNE12.jpg,AFNE09.jpg,AFSA05.jpg,FS,4,num_6,32,num_2,1.61671573448,,,2017_Sep_08_1545,60.0085649431,FEMA4ImagesEEG,001,101552,
AFNE01.JPG,AFNE01.JPG,AFNE01.JPG,AFNE01.JPG,AFNE01.JPG,AFNE01.JPG,,,,,,,,,,,,,,,,,2,3,23,9,,,,,,,AFNE16.jpg,AFSA02.jpg,AFSA10.jpg,AFNE18.jpg,AFSA02.jpg,FS,4,num_6,16,num_6,1.58349800645,,,2017_Sep_08_1545,60.0085649431,FEMA4ImagesEEG,001,101552,
AFNE01.JPG,AFNE01.JPG,AFNE01.JPG,AFNE01.JPG,AFNE01.JPG,AFNE01.JPG,,,,,,,,,,,,,,,,,2,4,24,8,,,,,,,AFSA01.jpg,AFNE11.jpg,AFSA04.jpg,AFNE10.jpg,AFSA04.jpg,FS,4,num_2,16,num_2,0.866760237142,,,2017_Sep_08_1545,60.0085649431,FEMA4ImagesEEG,001,101552,
AFNE01.JPG,AFNE01.JPG,AFNE01.JPG,AFNE01.JPG,AFNE01.JPG,AFNE01.JPG,,,,,,,,,,,,,,,,,2,5,25,1,,,,,,,AFNE16.jpg,AFSA08.jpg,AFSA18.jpg,AFNE14.jpg,AFNE14.jpg,FN,3,num_4,16,num_4,1.05015053914,,,2017_Sep_08_1545,60.0085649431,FEMA4ImagesEEG,001,101552,
AFNE01.JPG,AFNE01.JPG,AFNE01.JPG,AFNE01.JPG,AFNE01.JPG,AFNE01.JPG,,,,,,,,,,,,,,,,,2,6,26,5,,,,,,,AFNE17.jpg,AFNE16.jpg,AFSA15.jpg,AFSA10.jpg,AFNE16.jpg,FN,3,num_6,16,num_6,1.8833713464,,,2017_Sep_08_1545,60.0085649431,FEMA4ImagesEEG,001,101552,
AFNE01.JPG,AFNE01.JPG,AFNE01.JPG,AFNE01.JPG,AFNE01.JPG,AFNE01.JPG,,,,,,,,,,,,,,,,,2,7,27,3,,,,,,,AFNE14.jpg,AFSA05.jpg,AFNE12.jpg,AFSA14.jpg,AFNE14.jpg,FN,3,num_8,32,num_2,1.10009484272,,,2017_Sep_08_1545,60.0085649431,FEMA4ImagesEEG,001,101552,
AFNE01.JPG,AFNE01.JPG,AFNE01.JPG,AFNE01.JPG,AFNE01.JPG,AFNE01.JPG,,,,,,,,,,,,,,,,,2,8,28,7,,,,,,,AFSA12.jpg,AFNE11.jpg,AFSA11.jpg,AFNE20.jpg,AFNE20.jpg,FN,3,num_4,16,num_4,1.3664572984,,,2017_Sep_08_1545,60.0085649431,FEMA4ImagesEEG,001,101552,
AFNE01.JPG,AFNE01.JPG,AFNE01.JPG,AFNE01.JPG,AFNE01.JPG,AFNE01.JPG,,,,,,,,,,,,,,,,,2,9,29,4,,,,,,,AFNE02.jpg,AFSA09.jpg,AFNE08.jpg,AFSA04.jpg,AFNE08.jpg,FN,3,num_2,32,num_4,1.06679179787,,,2017_Sep_08_1545,60.0085649431,FEMA4ImagesEEG,001,101552,
AFNE01.JPG,AFNE01.JPG,AFNE01.JPG,AFNE01.JPG,AFNE01.JPG,AFNE01.JPG,,,,,,,,,,,,,,,,,3,0,30,2,,,,,,,AFSA16.jpg,AFSA11.jpg,AFNE06.jpg,AFNE17.jpg,AFSA16.jpg,FS,4,num_8,32,num_2,1.01675672503,,,2017_Sep_08_1545,60.0085649431,FEMA4ImagesEEG,001,101552,
AFNE01.JPG,AFNE01.JPG,AFNE01.JPG,AFNE01.JPG,AFNE01.JPG,AFNE01.JPG,,,,,,,,,,,,,,,,,3,1,31,9,,,,,,,AFNE12.jpg,AFSA18.jpg,AFNE14.jpg,AFSA11.jpg,AFSA11.jpg,FS,4,num_4,16,num_4,0.583731504972,,,2017_Sep_08_1545,60.0085649431,FEMA4ImagesEEG,001,101552,
AFNE01.JPG,AFNE01.JPG,AFNE01.JPG,AFNE01.JPG,AFNE01.JPG,AFNE01.JPG,,,,,,,,,,,,,,,,,3,2,32,7,,,,,,,AFSA06.jpg,AFNE13.jpg,AFSA19.jpg,AFNE10.jpg,AFNE13.jpg,FN,3,num_6,32,num_2,1.33336145151,,,2017_Sep_08_1545,60.0085649431,FEMA4ImagesEEG,001,101552,
AFNE01.JPG,AFNE01.JPG,AFNE01.JPG,AFNE01.JPG,AFNE01.JPG,AFNE01.JPG,,,,,,,,,,,,,,,,,3,3,33,1,,,,,,,AFNE04.jpg,AFSA07.jpg,AFSA05.jpg,AFNE09.jpg,AFNE09.jpg,FN,3,num_4,16,num_4,0.816756596789,,,2017_Sep_08_1545,60.0085649431,FEMA4ImagesEEG,001,101552,
AFNE01.JPG,AFNE01.JPG,AFNE01.JPG,AFNE01.JPG,AFNE01.JPG,AFNE01.JPG,,,,,,,,,,,,,,,,,3,4,34,4,,,,,,,AFNE15.jpg,AFSA02.jpg,AFSA13.jpg,AFNE04.jpg,AFSA02.jpg,FS,4,num_6,32,num_2,1.43345757714,,,2017_Sep_08_1545,60.0085649431,FEMA4ImagesEEG,001,101552,
AFNE01.JPG,AFNE01.JPG,AFNE01.JPG,AFNE01.JPG,AFNE01.JPG,AFNE01.JPG,,,,,,,,,,,,,,,,,3,5,35,6,,,,,,,AFNE11.jpg,AFSA07.jpg,AFSA03.jpg,AFNE13.jpg,AFSA07.jpg,FS,4,num_6,16,num_6,1.21674883482,,,2017_Sep_08_1545,60.0085649431,FEMA4ImagesEEG,001,101552,
AFNE01.JPG,AFNE01.JPG,AFNE01.JPG,AFNE01.JPG,AFNE01.JPG,AFNE01.JPG,,,,,,,,,,,,,,,,,3,6,36,0,,,,,,,AFNE19.jpg,AFSA04.jpg,AFNE11.jpg,AFSA01.jpg,AFSA04.jpg,FS,4,num_6,32,num_2,2.26663797116,,,2017_Sep_08_1545,60.0085649431,FEMA4ImagesEEG,001,101552,
AFNE01.JPG,AFNE01.JPG,AFNE01.JPG,AFNE01.JPG,AFNE01.JPG,AFNE01.JPG,,,,,,,,,,,,,,,,,3,7,37,5,,,,,,,AFSA11.jpg,AFNE17.jpg,AFNE11.jpg,AFSA07.jpg,AFNE11.jpg,FN,3,num_2,16,num_2,1.50009157124,,,2017_Sep_08_1545,60.0085649431,FEMA4ImagesEEG,001,101552,
AFNE01.JPG,AFNE01.JPG,AFNE01.JPG,AFNE01.JPG,AFNE01.JPG,AFNE01.JPG,,,,,,,,,,,,,,,,,3,8,38,3,,,,,,,AFNE01.jpg,AFNE04.jpg,AFSA17.jpg,AFSA10.jpg,AFSA17.jpg,FS,4,num_2,48,None,,,,2017_Sep_08_1545,60.0085649431,FEMA4ImagesEEG,001,101552,
AFNE01.JPG,AFNE01.JPG,AFNE01.JPG,AFNE01.JPG,AFNE01.JPG,AFNE01.JPG,,,,,,,,,,,,,,,,,3,9,39,8,,,,,,,AFSA03.jpg,AFNE07.jpg,AFSA07.jpg,AFNE18.jpg,AFSA03.jpg,FS,4,num_8,32,num_4,0.750172317377,,,2017_Sep_08_1545,60.0085649431,FEMA4ImagesEEG,001,101552,
AFNE01.JPG,AFNE01.JPG,AFNE01.JPG,AFNE01.JPG,AFNE01.JPG,AFNE01.JPG,,,,,,,,,,,,,,,,,4,0,40,1,,,,,,,AFSA13.jpg,AFSA18.jpg,AFNE11.jpg,AFNE15.jpg,AFSA18.jpg,FS,4,num_6,32,num_2,1.30043399287,,,2017_Sep_08_1545,60.0085649431,FEMA4ImagesEEG,001,101552,
AFNE01.JPG,AFNE01.JPG,AFNE01.JPG,AFNE01.JPG,AFNE01.JPG,AFNE01.JPG,,,,,,,,,,,,,,,,,4,1,41,4,,,,,,,AFNE06.jpg,AFSA06.jpg,AFSA17.jpg,AFNE04.jpg,AFNE06.jpg,FN,3,num_8,16,num_8,0.966765914229,,,2017_Sep_08_1545,60.0085649431,FEMA4ImagesEEG,001,101552,
AFNE01.JPG,AFNE01.JPG,AFNE01.JPG,AFNE01.JPG,AFNE01.JPG,AFNE01.JPG,,,,,,,,,,,,,,,,,4,2,42,7,,,,,,,AFSA15.jpg,AFNE10.jpg,AFSA10.jpg,AFNE06.jpg,AFSA10.jpg,FS,4,num_2,16,num_2,0.566775600542,,,2017_Sep_08_1545,60.0085649431,FEMA4ImagesEEG,001,101552,
AFNE01.JPG,AFNE01.JPG,AFNE01.JPG,AFNE01.JPG,AFNE01.JPG,AFNE01.JPG,,,,,,,,,,,,,,,,,4,3,43,0,,,,,,,AFNE15.jpg,AFSA07.jpg,AFNE05.jpg,AFSA05.jpg,AFNE15.jpg,FN,3,num_8,32,num_6,1.5000925333,,,2017_Sep_08_1545,60.0085649431,FEMA4ImagesEEG,001,101552,
AFNE01.JPG,AFNE01.JPG,AFNE01.JPG,AFNE01.JPG,AFNE01.JPG,AFNE01.JPG,,,,,,,,,,,,,,,,,4,4,44,5,,,,,,,AFSA16.jpg,AFNE06.jpg,AFSA17.jpg,AFNE13.jpg,AFSA16.jpg,FS,4,num_8,32,num_4,2.31663615897,,,2017_Sep_08_1545,60.0085649431,FEMA4ImagesEEG,001,101552,
AFNE01.JPG,AFNE01.JPG,AFNE01.JPG,AFNE01.JPG,AFNE01.JPG,AFNE01.JPG,,,,,,,,,,,,,,,,,4,5,45,6,,,,,,,AFNE01.jpg,AFSA15.jpg,AFNE07.jpg,AFSA01.jpg,AFNE01.jpg,FN,3,num_8,32,num_6,0.816740559763,,,2017_Sep_08_1545,60.0085649431,FEMA4ImagesEEG,001,101552,
AFNE01.JPG,AFNE01.JPG,AFNE01.JPG,AFNE01.JPG,AFNE01.JPG,AFNE01.JPG,,,,,,,,,,,,,,,,,4,6,46,9,,,,,,,AFSA02.jpg,AFNE08.jpg,AFSA19.jpg,AFNE04.jpg,AFSA02.jpg,FS,4,num_8,16,num_8,1.19977593131,,,2017_Sep_08_1545,60.0085649431,FEMA4ImagesEEG,001,101552,
AFNE01.JPG,AFNE01.JPG,AFNE01.JPG,AFNE01.JPG,AFNE01.JPG,AFNE01.JPG,,,,,,,,,,,,,,,,,4,7,47,8,,,,,,,AFNE03.jpg,AFSA02.jpg,AFNE01.jpg,AFSA14.jpg,AFNE03.jpg,FN,3,num_8,32,num_6,1.53339750273,,,2017_Sep_08_1545,60.0085649431,FEMA4ImagesEEG,001,101552,
AFNE01.JPG,AFNE01.JPG,AFNE01.JPG,AFNE01.JPG,AFNE01.JPG,AFNE01.JPG,,,,,,,,,,,,,,,,,4,8,48,2,,,,,,,AFSA04.jpg,AFSA18.jpg,AFNE11.jpg,AFNE18.jpg,AFNE11.jpg,FN,3,num_2,16,num_2,0.966732878005,,,2017_Sep_08_1545,60.0085649431,FEMA4ImagesEEG,001,101552,
AFNE01.JPG,AFNE01.JPG,AFNE01.JPG,AFNE01.JPG,AFNE01.JPG,AFNE01.JPG,,,,,,,,,,,,,,,,,4,9,49,3,,,,,,,AFSA14.jpg,AFSA16.jpg,AFNE06.jpg,AFNE16.jpg,AFNE06.jpg,FN,3,num_2,32,num_8,2.53333207173,,,2017_Sep_08_1545,60.0085649431,FEMA4ImagesEEG,001,101552,
AFNE01.JPG,AFNE01.JPG,AFNE01.JPG,AFNE01.JPG,AFNE01.JPG,AFNE01.JPG,,,,,,,,,,,,,,,,,5,0,50,9,,,,,,,AFSA05.jpg,AFNE14.jpg,AFNE19.jpg,AFSA12.jpg,AFNE14.jpg,FN,3,num_6,16,num_6,0.866757350508,,,2017_Sep_08_1545,60.0085649431,FEMA4ImagesEEG,001,101552,
AFNE01.JPG,AFNE01.JPG,AFNE01.JPG,AFNE01.JPG,AFNE01.JPG,AFNE01.JPG,,,,,,,,,,,,,,,,,5,1,51,2,,,,,,,AFSA07.jpg,AFNE13.jpg,AFSA06.jpg,AFNE04.jpg,AFNE13.jpg,FN,3,num_6,32,num_2,1.10038222559,,,2017_Sep_08_1545,60.0085649431,FEMA4ImagesEEG,001,101552,
AFNE01.JPG,AFNE01.JPG,AFNE01.JPG,AFNE01.JPG,AFNE01.JPG,AFNE01.JPG,,,,,,,,,,,,,,,,,5,2,52,5,,,,,,,AFNE05.jpg,AFSA16.jpg,AFSA03.jpg,AFNE19.jpg,AFNE19.jpg,FN,3,num_4,16,num_4,0.933460624306,,,2017_Sep_08_1545,60.0085649431,FEMA4ImagesEEG,001,101552,
AFNE01.JPG,AFNE01.JPG,AFNE01.JPG,AFNE01.JPG,AFNE01.JPG,AFNE01.JPG,,,,,,,,,,,,,,,,,5,3,53,0,,,,,,,AFSA20.jpg,AFNE10.jpg,AFNE03.jpg,AFSA14.jpg,AFNE03.jpg,FN,3,num_2,16,num_2,1.03348426276,,,2017_Sep_08_1545,60.0085649431,FEMA4ImagesEEG,001,101552,
AFNE01.JPG,AFNE01.JPG,AFNE01.JPG,AFNE01.JPG,AFNE01.JPG,AFNE01.JPG,,,,,,,,,,,,,,,,,5,4,54,8,,,,,,,AFSA17.jpg,AFNE10.jpg,AFSA18.jpg,AFNE08.jpg,AFSA18.jpg,FS,4,num_2,16,num_2,1.21671579871,,,2017_Sep_08_1545,60.0085649431,FEMA4ImagesEEG,001,101552,
AFNE01.JPG,AFNE01.JPG,AFNE01.JPG,AFNE01.JPG,AFNE01.JPG,AFNE01.JPG,,,,,,,,,,,,,,,,,5,5,55,7,,,,,,,AFSA09.jpg,AFSA15.jpg,AFNE10.jpg,AFNE20.jpg,AFNE20.jpg,FN,3,num_4,16,num_4,0.950166672468,,,2017_Sep_08_1545,60.0085649431,FEMA4ImagesEEG,001,101552,
AFNE01.JPG,AFNE01.JPG,AFNE01.JPG,AFNE01.JPG,AFNE01.JPG,AFNE01.JPG,,,,,,,,,,,,,,,,,5,6,56,3,,,,,,,AFNE03.jpg,AFSA18.jpg,AFSA02.jpg,AFNE01.jpg,AFSA02.jpg,FS,4,num_2,16,num_2,1.03344930208,,,2017_Sep_08_1545,60.0085649431,FEMA4ImagesEEG,001,101552,
AFNE01.JPG,AFNE01.JPG,AFNE01.JPG,AFNE01.JPG,AFNE01.JPG,AFNE01.JPG,,,,,,,,,,,,,,,,,5,7,57,1,,,,,,,AFSA19.jpg,AFSA04.jpg,AFNE12.jpg,AFNE08.jpg,AFSA04.jpg,FS,4,num_6,16,num_6,1.23348407028,,,2017_Sep_08_1545,60.0085649431,FEMA4ImagesEEG,001,101552,
AFNE01.JPG,AFNE01.JPG,AFNE01.JPG,AFNE01.JPG,AFNE01.JPG,AFNE01.JPG,,,,,,,,,,,,,,,,,5,8,58,6,,,,,,,AFNE14.jpg,AFSA17.jpg,AFNE08.jpg,AFSA13.jpg,AFNE14.jpg,FN,3,num_8,16,num_8,0.983420964796,,,2017_Sep_08_1545,60.0085649431,FEMA4ImagesEEG,001,101552,
AFNE01.JPG,AFNE01.JPG,AFNE01.JPG,AFNE01.JPG,AFNE01.JPG,AFNE01.JPG,,,,,,,,,,,,,,,,,5,9,59,4,,,,,,,AFSA02.jpg,AFSA09.jpg,AFNE05.jpg,AFNE10.jpg,AFSA09.jpg,FS,4,num_6,32,num_2,2.48334960022,,,2017_Sep_08_1545,60.0085649431,FEMA4ImagesEEG,001,101552,
,,,,,,,,,,,,,,,,,,,,,,,,,,,,,,,,,,,,,,,,,,,space,48.6963720812,2017_Sep_08_1545,60.0085649431,FEMA4ImagesEEG,001,101552,
AFNE01.JPG,AFNE01.JPG,AFNE01.JPG,AFNE01.JPG,AFNE01.JPG,AFNE01.JPG,,,,,,,,,,,,,,,,,,,,,0,0,0,8,,,AMSA12.jpg,AMNE11.jpg,AMNE14.jpg,AMSA04.jpg,AMNE11.jpg,MN,1,num_6,32,num_2,2.53320217214,,,2017_Sep_08_1545,60.0085649431,FEMA4ImagesEEG,001,101552,
AFNE01.JPG,AFNE01.JPG,AFNE01.JPG,AFNE01.JPG,AFNE01.JPG,AFNE01.JPG,,,,,,,,,,,,,,,,,,,,,0,1,1,9,,,AMNE16.jpg,AMNE12.jpg,AMSA16.jpg,AMSA01.jpg,AMSA01.jpg,MS,2,num_4,16,num_4,0.466870315024,,,2017_Sep_08_1545,60.0085649431,FEMA4ImagesEEG,001,101552,
AFNE01.JPG,AFNE01.JPG,AFNE01.JPG,AFNE01.JPG,AFNE01.JPG,AFNE01.JPG,,,,,,,,,,,,,,,,,,,,,0,2,2,3,,,AMNE16.jpg,AMSA01.jpg,AMNE02.jpg,AMSA09.jpg,AMSA09.jpg,MS,2,num_4,16,num_4,0.683605678729,,,2017_Sep_08_1545,60.0085649431,FEMA4ImagesEEG,001,101552,
AFNE01.JPG,AFNE01.JPG,AFNE01.JPG,AFNE01.JPG,AFNE01.JPG,AFNE01.JPG,,,,,,,,,,,,,,,,,,,,,0,3,3,4,,,AMSA14.jpg,AMSA03.jpg,AMNE08.jpg,AMNE09.jpg,AMNE09.jpg,MN,1,num_4,32,num_2,1.73342553538,,,2017_Sep_08_1545,60.0085649431,FEMA4ImagesEEG,001,101552,
AFNE01.JPG,AFNE01.JPG,AFNE01.JPG,AFNE01.JPG,AFNE01.JPG,AFNE01.JPG,,,,,,,,,,,,,,,,,,,,,0,4,4,2,,,AMNE09.jpg,AMNE20.jpg,AMSA15.jpg,AMSA11.jpg,AMSA15.jpg,MS,2,num_2,32,num_8,2.48334414756,,,2017_Sep_08_1545,60.0085649431,FEMA4ImagesEEG,001,101552,
AFNE01.JPG,AFNE01.JPG,AFNE01.JPG,AFNE01.JPG,AFNE01.JPG,AFNE01.JPG,,,,,,,,,,,,,,,,,,,,,0,5,5,7,,,AMSA03.jpg,AMSA10.jpg,AMNE10.jpg,AMNE20.jpg,AMSA03.jpg,MS,2,num_8,32,num_6,0.90024995245,,,2017_Sep_08_1545,60.0085649431,FEMA4ImagesEEG,001,101552,
AFNE01.JPG,AFNE01.JPG,AFNE01.JPG,AFNE01.JPG,AFNE01.JPG,AFNE01.JPG,,,,,,,,,,,,,,,,,,,,,0,6,6,0,,,AMNE12.jpg,AMSA08.jpg,AMNE11.jpg,AMSA17.jpg,AMNE12.jpg,MN,1,num_8,16,num_8,1.28341586504,,,2017_Sep_08_1545,60.0085649431,FEMA4ImagesEEG,001,101552,
AFNE01.JPG,AFNE01.JPG,AFNE01.JPG,AFNE01.JPG,AFNE01.JPG,AFNE01.JPG,,,,,,,,,,,,,,,,,,,,,0,7,7,6,,,AMNE18.jpg,AMSA10.jpg,AMSA14.jpg,AMNE09.jpg,AMSA14.jpg,MS,2,num_2,16,num_2,0.650115963421,,,2017_Sep_08_1545,60.0085649431,FEMA4ImagesEEG,001,101552,
AFNE01.JPG,AFNE01.JPG,AFNE01.JPG,AFNE01.JPG,AFNE01.JPG,AFNE01.JPG,,,,,,,,,,,,,,,,,,,,,0,8,8,1,,,AMSA04.jpg,AMNE15.jpg,AMNE04.jpg,AMSA17.jpg,AMNE04.jpg,MN,1,num_2,16,num_2,0.800036756671,,,2017_Sep_08_1545,60.0085649431,FEMA4ImagesEEG,001,101552,
AFNE01.JPG,AFNE01.JPG,AFNE01.JPG,AFNE01.JPG,AFNE01.JPG,AFNE01.JPG,,,,,,,,,,,,,,,,,,,,,0,9,9,5,,,AMSA11.jpg,AMNE20.jpg,AMNE17.jpg,AMSA18.jpg,AMSA11.jpg,MS,2,num_8,32,num_4,1.41678969713,,,2017_Sep_08_1545,60.0085649431,FEMA4ImagesEEG,001,101552,
AFNE01.JPG,AFNE01.JPG,AFNE01.JPG,AFNE01.JPG,AFNE01.JPG,AFNE01.JPG,,,,,,,,,,,,,,,,,,,,,1,0,10,0,,,AMNE15.jpg,AMNE13.jpg,AMSA06.jpg,AMSA15.jpg,AMNE13.jpg,MN,1,num_6,32,num_2,1.33340892103,,,2017_Sep_08_1545,60.0085649431,FEMA4ImagesEEG,001,101552,
AFNE01.JPG,AFNE01.JPG,AFNE01.JPG,AFNE01.JPG,AFNE01.JPG,AFNE01.JPG,,,,,,,,,,,,,,,,,,,,,1,1,11,8,,,AMSA11.jpg,AMNE08.jpg,AMNE16.jpg,AMSA09.jpg,AMSA09.jpg,MS,2,num_4,16,num_4,0.816593981697,,,2017_Sep_08_1545,60.0085649431,FEMA4ImagesEEG,001,101552,
AFNE01.JPG,AFNE01.JPG,AFNE01.JPG,AFNE01.JPG,AFNE01.JPG,AFNE01.JPG,,,,,,,,,,,,,,,,,,,,,1,2,12,5,,,AMNE02.jpg,AMSA11.jpg,AMSA15.jpg,AMNE18.jpg,AMNE18.jpg,MN,1,num_4,32,num_2,1.33353304723,,,2017_Sep_08_1545,60.0085649431,FEMA4ImagesEEG,001,101552,
AFNE01.JPG,AFNE01.JPG,AFNE01.JPG,AFNE01.JPG,AFNE01.JPG,AFNE01.JPG,,,,,,,,,,,,,,,,,,,,,1,3,13,3,,,AMSA01.jpg,AMNE04.jpg,AMNE16.jpg,AMSA18.jpg,AMSA01.jpg,MS,2,num_8,32,num_4,1.13338858611,,,2017_Sep_08_1545,60.0085649431,FEMA4ImagesEEG,001,101552,
AFNE01.JPG,AFNE01.JPG,AFNE01.JPG,AFNE01.JPG,AFNE01.JPG,AFNE01.JPG,,,,,,,,,,,,,,,,,,,,,1,4,14,1,,,AMSA08.jpg,AMNE01.jpg,AMNE20.jpg,AMSA03.jpg,AMSA08.jpg,MS,2,num_8,16,num_8,1.2332935509,,,2017_Sep_08_1545,60.0085649431,FEMA4ImagesEEG,001,101552,
AFNE01.JPG,AFNE01.JPG,AFNE01.JPG,AFNE01.JPG,AFNE01.JPG,AFNE01.JPG,,,,,,,,,,,,,,,,,,,,,1,5,15,9,,,AMNE06.jpg,AMSA04.jpg,AMSA19.jpg,AMNE19.jpg,AMSA04.jpg,MS,2,num_6,32,num_4,1.05007003353,,,2017_Sep_08_1545,60.0085649431,FEMA4ImagesEEG,001,101552,
AFNE01.JPG,AFNE01.JPG,AFNE01.JPG,AFNE01.JPG,AFNE01.JPG,AFNE01.JPG,,,,,,,,,,,,,,,,,,,,,1,6,16,2,,,AMNE07.jpg,AMNE20.jpg,AMSA19.jpg,AMSA05.jpg,AMSA19.jpg,MS,2,num_2,16,num_2,1.31676830375,,,2017_Sep_08_1545,60.0085649431,FEMA4ImagesEEG,001,101552,
AFNE01.JPG,AFNE01.JPG,AFNE01.JPG,AFNE01.JPG,AFNE01.JPG,AFNE01.JPG,,,,,,,,,,,,,,,,,,,,,1,7,17,7,,,AMSA11.jpg,AMNE05.jpg,AMSA15.jpg,AMNE13.jpg,AMNE05.jpg,MN,1,num_6,32,num_4,0.783493002877,,,2017_Sep_08_1545,60.0085649431,FEMA4ImagesEEG,001,101552,
AFNE01.JPG,AFNE01.JPG,AFNE01.JPG,AFNE01.JPG,AFNE01.JPG,AFNE01.JPG,,,,,,,,,,,,,,,,,,,,,1,8,18,4,,,AMSA17.jpg,AMNE19.jpg,AMSA07.jpg,AMNE18.jpg,AMNE18.jpg,MN,1,num_4,32,num_2,1.18341499905,,,2017_Sep_08_1545,60.0085649431,FEMA4ImagesEEG,001,101552,
AFNE01.JPG,AFNE01.JPG,AFNE01.JPG,AFNE01.JPG,AFNE01.JPG,AFNE01.JPG,,,,,,,,,,,,,,,,,,,,,1,9,19,6,,,AMSA18.jpg,AMNE14.jpg,AMSA01.jpg,AMNE15.jpg,AMSA01.jpg,MS,2,num_2,16,num_2,0.816623168997,,,2017_Sep_08_1545,60.0085649431,FEMA4ImagesEEG,001,101552,
AFNE01.JPG,AFNE01.JPG,AFNE01.JPG,AFNE01.JPG,AFNE01.JPG,AFNE01.JPG,,,,,,,,,,,,,,,,,,,,,2,0,20,5,,,AMSA09.jpg,AMSA07.jpg,AMNE15.jpg,AMNE10.jpg,AMNE15.jpg,MN,1,num_2,32,num_4,0.949816103908,,,2017_Sep_08_1545,60.0085649431,FEMA4ImagesEEG,001,101552,
AFNE01.JPG,AFNE01.JPG,AFNE01.JPG,AFNE01.JPG,AFNE01.JPG,AFNE01.JPG,,,,,,,,,,,,,,,,,,,,,2,1,21,8,,,AMSA13.jpg,AMSA06.jpg,AMNE14.jpg,AMNE03.jpg,AMSA06.jpg,MS,2,num_6,32,num_2,1.71677561663,,,2017_Sep_08_1545,60.0085649431,FEMA4ImagesEEG,001,101552,
AFNE01.JPG,AFNE01.JPG,AFNE01.JPG,AFNE01.JPG,AFNE01.JPG,AFNE01.JPG,,,,,,,,,,,,,,,,,,,,,2,2,22,2,,,AMNE02.jpg,AMSA07.jpg,AMSA03.jpg,AMNE08.jpg,AMNE02.jpg,MN,1,num_8,32,num_4,1.03344930219,,,2017_Sep_08_1545,60.0085649431,FEMA4ImagesEEG,001,101552,
AFNE01.JPG,AFNE01.JPG,AFNE01.JPG,AFNE01.JPG,AFNE01.JPG,AFNE01.JPG,,,,,,,,,,,,,,,,,,,,,2,3,23,7,,,AMSA08.jpg,AMNE19.jpg,AMNE05.jpg,AMSA18.jpg,AMSA08.jpg,MS,2,num_8,16,num_8,1.03340856812,,,2017_Sep_08_1545,60.0085649431,FEMA4ImagesEEG,001,101552,
AFNE01.JPG,AFNE01.JPG,AFNE01.JPG,AFNE01.JPG,AFNE01.JPG,AFNE01.JPG,,,,,,,,,,,,,,,,,,,,,2,4,24,6,,,AMSA19.jpg,AMNE08.jpg,AMSA16.jpg,AMNE01.jpg,AMSA16.jpg,MS,2,num_2,16,num_2,1.41674800101,,,2017_Sep_08_1545,60.0085649431,FEMA4ImagesEEG,001,101552,
AFNE01.JPG,AFNE01.JPG,AFNE01.JPG,AFNE01.JPG,AFNE01.JPG,AFNE01.JPG,,,,,,,,,,,,,,,,,,,,,2,5,25,3,,,AMSA04.jpg,AMNE13.jpg,AMSA13.jpg,AMNE04.jpg,AMNE04.jpg,MN,1,num_4,16,num_4,1.76670901501,,,2017_Sep_08_1545,60.0085649431,FEMA4ImagesEEG,001,101552,
AFNE01.JPG,AFNE01.JPG,AFNE01.JPG,AFNE01.JPG,AFNE01.JPG,AFNE01.JPG,,,,,,,,,,,,,,,,,,,,,2,6,26,0,,,AMNE05.jpg,AMNE06.jpg,AMSA16.jpg,AMSA14.jpg,AMNE05.jpg,MN,1,num_8,16,num_8,1.88340502395,,,2017_Sep_08_1545,60.0085649431,FEMA4ImagesEEG,001,101552,
AFNE01.JPG,AFNE01.JPG,AFNE01.JPG,AFNE01.JPG,AFNE01.JPG,AFNE01.JPG,,,,,,,,,,,,,,,,,,,,,2,7,27,9,,,AMSA19.jpg,AMSA20.jpg,AMNE16.jpg,AMNE02.jpg,AMNE02.jpg,MN,1,num_4,16,num_4,0.800116620958,,,2017_Sep_08_1545,60.0085649431,FEMA4ImagesEEG,001,101552,
AFNE01.JPG,AFNE01.JPG,AFNE01.JPG,AFNE01.JPG,AFNE01.JPG,AFNE01.JPG,,,,,,,,,,,,,,,,,,,,,2,8,28,4,,,AMNE10.jpg,AMSA08.jpg,AMSA17.jpg,AMNE15.jpg,AMNE10.jpg,MN,1,num_8,32,num_4,2.63331176899,,,2017_Sep_08_1545,60.0085649431,FEMA4ImagesEEG,001,101552,
AFNE01.JPG,AFNE01.JPG,AFNE01.JPG,AFNE01.JPG,AFNE01.JPG,AFNE01.JPG,,,,,,,,,,,,,,,,,,,,,2,9,29,1,,,AMNE03.jpg,AMNE18.jpg,AMSA02.jpg,AMSA01.jpg,AMNE03.jpg,MN,1,num_8,32,num_2,1.10012146411,,,2017_Sep_08_1545,60.0085649431,FEMA4ImagesEEG,001,101552,
AFNE01.JPG,AFNE01.JPG,AFNE01.JPG,AFNE01.JPG,AFNE01.JPG,AFNE01.JPG,,,,,,,,,,,,,,,,,,,,,3,0,30,8,,,AMSA04.jpg,AMNE07.jpg,AMSA17.jpg,AMNE15.jpg,AMNE15.jpg,MN,1,num_4,16,num_4,1.54974881269,,,2017_Sep_08_1545,60.0085649431,FEMA4ImagesEEG,001,101552,
AFNE01.JPG,AFNE01.JPG,AFNE01.JPG,AFNE01.JPG,AFNE01.JPG,AFNE01.JPG,,,,,,,,,,,,,,,,,,,,,3,1,31,0,,,AMNE05.jpg,AMNE17.jpg,AMSA15.jpg,AMSA16.jpg,AMNE17.jpg,MN,1,num_6,32,num_8,3.16663165262,,,2017_Sep_08_1545,60.0085649431,FEMA4ImagesEEG,001,101552,
AFNE01.JPG,AFNE01.JPG,AFNE01.JPG,AFNE01.JPG,AFNE01.JPG,AFNE01.JPG,,,,,,,,,,,,,,,,,,,,,3,2,32,3,,,AMSA09.jpg,AMNE10.jpg,AMSA13.jpg,AMNE08.jpg,AMSA13.jpg,MS,2,num_2,16,num_2,0.850133411586,,,2017_Sep_08_1545,60.0085649431,FEMA4ImagesEEG,001,101552,
AFNE01.JPG,AFNE01.JPG,AFNE01.JPG,AFNE01.JPG,AFNE01.JPG,AFNE01.JPG,,,,,,,,,,,,,,,,,,,,,3,3,33,2,,,AMSA09.jpg,AMSA02.jpg,AMNE15.jpg,AMNE07.jpg,AMNE15.jpg,MN,1,num_2,32,num_4,0.866783651174,,,2017_Sep_08_1545,60.0085649431,FEMA4ImagesEEG,001,101552,
AFNE01.JPG,AFNE01.JPG,AFNE01.JPG,AFNE01.JPG,AFNE01.JPG,AFNE01.JPG,,,,,,,,,,,,,,,,,,,,,3,4,34,6,,,AMNE20.jpg,AMSA17.jpg,AMNE05.jpg,AMSA01.jpg,AMNE20.jpg,MN,1,num_8,16,num_8,0.800094810664,,,2017_Sep_08_1545,60.0085649431,FEMA4ImagesEEG,001,101552,
AFNE01.JPG,AFNE01.JPG,AFNE01.JPG,AFNE01.JPG,AFNE01.JPG,AFNE01.JPG,,,,,,,,,,,,,,,,,,,,,3,5,35,9,,,AMNE05.jpg,AMSA08.jpg,AMSA14.jpg,AMNE11.jpg,AMSA14.jpg,MS,2,num_2,16,num_2,1.01674357476,,,2017_Sep_08_1545,60.0085649431,FEMA4ImagesEEG,001,101552,
AFNE01.JPG,AFNE01.JPG,AFNE01.JPG,AFNE01.JPG,AFNE01.JPG,AFNE01.JPG,,,,,,,,,,,,,,,,,,,,,3,6,36,7,,,AMSA10.jpg,AMNE04.jpg,AMNE07.jpg,AMSA12.jpg,AMNE07.jpg,MN,1,num_2,16,num_2,1.13344247045,,,2017_Sep_08_1545,60.0085649431,FEMA4ImagesEEG,001,101552,
AFNE01.JPG,AFNE01.JPG,AFNE01.JPG,AFNE01.JPG,AFNE01.JPG,AFNE01.JPG,,,,,,,,,,,,,,,,,,,,,3,7,37,1,,,AMNE10.jpg,AMNE04.jpg,AMSA14.jpg,AMSA10.jpg,AMSA10.jpg,MS,2,num_4,16,num_4,0.700183431036,,,2017_Sep_08_1545,60.0085649431,FEMA4ImagesEEG,001,101552,
AFNE01.JPG,AFNE01.JPG,AFNE01.JPG,AFNE01.JPG,AFNE01.JPG,AFNE01.JPG,,,,,,,,,,,,,,,,,,,,,3,8,38,5,,,AMSA05.jpg,AMNE11.jpg,AMSA19.jpg,AMNE03.jpg,AMSA19.jpg,MS,2,num_2,16,num_2,0.73349064542,,,2017_Sep_08_1545,60.0085649431,FEMA4ImagesEEG,001,101552,
AFNE01.JPG,AFNE01.JPG,AFNE01.JPG,AFNE01.JPG,AFNE01.JPG,AFNE01.JPG,,,,,,,,,,,,,,,,,,,,,3,9,39,4,,,AMNE06.jpg,AMSA09.jpg,AMSA14.jpg,AMNE11.jpg,AMNE06.jpg,MN,1,num_8,32,num_4,1.26686665858,,,2017_Sep_08_1545,60.0085649431,FEMA4ImagesEEG,001,101552,
