IPosition2,IPosition3,IPosition1,IPosition6,IPosition4,IPosition5,TrialsF1.thisRepN,TrialsF1.thisTrialN,TrialsF1.thisN,TrialsF1.thisIndex,TrialsM1.thisRepN,TrialsM1.thisTrialN,TrialsM1.thisN,TrialsM1.thisIndex,TrialsF2.thisRepN,TrialsF2.thisTrialN,TrialsF2.thisN,TrialsF2.thisIndex,TrialsM2.thisRepN,TrialsM2.thisTrialN,TrialsM2.thisN,TrialsM2.thisIndex,TrialsF3.thisRepN,TrialsF3.thisTrialN,TrialsF3.thisN,TrialsF3.thisIndex,TrialsM3.thisRepN,TrialsM3.thisTrialN,TrialsM3.thisN,TrialsM3.thisIndex,InstrKey_resp.keys,InstrKey_resp.rt,Image0 _Position,Image1 _Position,Image2 _Position,Image3 _Position,Center_image,condition,code,correct_answer,accuracy,Key_Resp.keys,Key_Resp.rt,BreakKey_resp.keys,BreakKey_resp.rt,date,frameRate,expName,session,participant,
,,,,,,,,,,,,,,,,,,,,,,,,,,,,,,space,8.44957186049,,,,,,,,,,,,,,2017_Sep_15_1809,60.0033680098,FEMA4ImagesEEG,001,101602,
AMSA21.JPG,AMNE22.JPG,AMNE21.JPG,AMSA23.JPG,AMSA22.JPG,AMNE23.JPG,0,0,0,1,,,,,,,,,,,,,,,,,,,,,,,AFSA19.jpg,AFSA20.jpg,AFNE04.jpg,AFNE11.jpg,AFNE11.jpg,FN,3,num_4,32,num_2,1.91695503844,,,2017_Sep_15_1809,60.0033680098,FEMA4ImagesEEG,001,101602,
AMNE22.JPG,AMSA24.JPG,AMSA22.JPG,AMNE25.JPG,AMNE24.JPG,AMSA25.JPG,0,1,1,7,,,,,,,,,,,,,,,,,,,,,,,AFSA12.jpg,AFNE20.jpg,AFSA05.jpg,AFNE01.jpg,AFSA05.jpg,FS,4,num_2,16,num_2,1.03342620865,,,2017_Sep_15_1809,60.0033680098,FEMA4ImagesEEG,001,101602,
AFSA21.JPG,AFNE23.JPG,AFNE21.JPG,AFSA25.JPG,AFNE25.JPG,AFSA23.JPG,0,2,2,4,,,,,,,,,,,,,,,,,,,,,,,AFSA14.jpg,AFNE15.jpg,AFSA12.jpg,AFNE05.jpg,AFSA14.jpg,FS,4,num_8,32,num_4,2.16666885838,,,2017_Sep_15_1809,60.0033680098,FEMA4ImagesEEG,001,101602,
AFNE23.JPG,AFNE24.JPG,AFNE22.JPG,AFSA24.JPG,AFSA22.JPG,AFSA23.JPG,0,3,3,8,,,,,,,,,,,,,,,,,,,,,,,AFSA14.jpg,AFNE14.jpg,AFSA12.jpg,AFNE07.jpg,AFNE07.jpg,FN,3,num_4,32,num_8,1.26661712327,,,2017_Sep_15_1809,60.0033680098,FEMA4ImagesEEG,001,101602,
AMSA25.JPG,AMNE24.JPG,AMSA24.JPG,AMNE26.JPG,AMSA21.JPG,AMNE25.JPG,0,4,4,3,,,,,,,,,,,,,,,,,,,,,,,AFNE20.jpg,AFNE17.jpg,AFSA08.jpg,AFSA19.jpg,AFNE17.jpg,FN,3,num_6,16,num_6,1.3500521041,,,2017_Sep_15_1809,60.0033680098,FEMA4ImagesEEG,001,101602,
AFSA25.JPG,AFNE24.JPG,AFSA24.JPG,AFNE21.JPG,AFSA21.JPG,AFNE25.JPG,0,5,5,2,,,,,,,,,,,,,,,,,,,,,,,AFSA01.jpg,AFNE14.jpg,AFNE19.jpg,AFSA19.jpg,AFNE14.jpg,FN,3,num_6,16,num_6,0.88342170231,,,2017_Sep_15_1809,60.0033680098,FEMA4ImagesEEG,001,101602,
AFSA21.JPG,AFNE22.JPG,AFNE21.JPG,AFSA23.JPG,AFSA22.JPG,AFNE23.JPG,0,6,6,0,,,,,,,,,,,,,,,,,,,,,,,AFNE20.jpg,AFSA01.jpg,AFNE08.jpg,AFSA19.jpg,AFSA19.jpg,FS,4,num_4,32,num_6,0.666745354887,,,2017_Sep_15_1809,60.0033680098,FEMA4ImagesEEG,001,101602,
AMNE23.JPG,AMNE24.JPG,AMNE22.JPG,AMSA24.JPG,AMSA22.JPG,AMSA23.JPG,0,7,7,9,,,,,,,,,,,,,,,,,,,,,,,AFNE16.jpg,AFSA02.jpg,AFSA14.jpg,AFNE10.jpg,AFNE16.jpg,FN,3,num_8,32,num_4,0.950094185071,,,2017_Sep_15_1809,60.0033680098,FEMA4ImagesEEG,001,101602,
AFNE22.JPG,AFSA24.JPG,AFSA22.JPG,AFNE25.JPG,AFNE24.JPG,AFSA25.JPG,0,8,8,6,,,,,,,,,,,,,,,,,,,,,,,AFSA16.jpg,AFNE14.jpg,AFNE08.jpg,AFSA09.jpg,AFSA09.jpg,FS,4,num_4,16,num_4,0.866918682586,,,2017_Sep_15_1809,60.0033680098,FEMA4ImagesEEG,001,101602,
AMSA21.JPG,AMNE23.JPG,AMNE21.JPG,AMSA25.JPG,AMNE25.JPG,AMSA23.JPG,0,9,9,5,,,,,,,,,,,,,,,,,,,,,,,AFNE12.jpg,AFSA16.jpg,AFSA15.jpg,AFNE20.jpg,AFNE12.jpg,FN,3,num_8,32,num_2,2.48336082604,,,2017_Sep_15_1809,60.0033680098,FEMA4ImagesEEG,001,101602,
AMNE23.JPG,AMNE24.JPG,AMNE22.JPG,AMSA24.JPG,AMSA22.JPG,AMSA23.JPG,,,,,0,0,0,9,,,,,,,,,,,,,,,,,,,AMSA15.jpg,AMNE13.jpg,AMNE01.jpg,AMSA08.jpg,AMSA15.jpg,MS,2,num_8,16,num_8,1.56698953384,,,2017_Sep_15_1809,60.0033680098,FEMA4ImagesEEG,001,101602,
AFSA21.JPG,AFNE23.JPG,AFNE21.JPG,AFSA25.JPG,AFNE25.JPG,AFSA23.JPG,,,,,0,1,1,4,,,,,,,,,,,,,,,,,,,AMNE16.jpg,AMSA07.jpg,AMNE12.jpg,AMSA04.jpg,AMNE12.jpg,MN,1,num_2,32,num_6,2.00012123957,,,2017_Sep_15_1809,60.0033680098,FEMA4ImagesEEG,001,101602,
AFNE23.JPG,AFNE24.JPG,AFNE22.JPG,AFSA24.JPG,AFSA22.JPG,AFSA23.JPG,,,,,0,2,2,8,,,,,,,,,,,,,,,,,,,AMSA15.jpg,AMSA08.jpg,AMNE10.jpg,AMNE01.jpg,AMSA15.jpg,MS,2,num_8,16,num_8,0.95014454145,,,2017_Sep_15_1809,60.0033680098,FEMA4ImagesEEG,001,101602,
AFSA21.JPG,AFNE22.JPG,AFNE21.JPG,AFSA23.JPG,AFSA22.JPG,AFNE23.JPG,,,,,0,3,3,0,,,,,,,,,,,,,,,,,,,AMSA09.jpg,AMSA18.jpg,AMNE09.jpg,AMNE02.jpg,AMNE09.jpg,MN,1,num_2,16,num_2,1.60008409782,,,2017_Sep_15_1809,60.0033680098,FEMA4ImagesEEG,001,101602,
AMSA21.JPG,AMNE22.JPG,AMNE21.JPG,AMSA23.JPG,AMSA22.JPG,AMNE23.JPG,,,,,0,4,4,1,,,,,,,,,,,,,,,,,,,AMNE06.jpg,AMNE20.jpg,AMSA08.jpg,AMSA01.jpg,AMSA08.jpg,MS,2,num_2,32,num_4,1.03341305861,,,2017_Sep_15_1809,60.0033680098,FEMA4ImagesEEG,001,101602,
AFSA25.JPG,AFNE24.JPG,AFSA24.JPG,AFNE21.JPG,AFSA21.JPG,AFNE25.JPG,,,,,0,5,5,2,,,,,,,,,,,,,,,,,,,AMNE10.jpg,AMSA20.jpg,AMNE03.jpg,AMSA03.jpg,AMNE03.jpg,MN,1,num_2,32,num_4,1.16663197312,,,2017_Sep_15_1809,60.0033680098,FEMA4ImagesEEG,001,101602,
AMNE22.JPG,AMSA24.JPG,AMSA22.JPG,AMNE25.JPG,AMNE24.JPG,AMSA25.JPG,,,,,0,6,6,7,,,,,,,,,,,,,,,,,,,AMSA15.jpg,AMSA16.jpg,AMNE03.jpg,AMNE11.jpg,AMNE11.jpg,MN,1,num_4,32,num_8,1.31669677887,,,2017_Sep_15_1809,60.0033680098,FEMA4ImagesEEG,001,101602,
AMSA21.JPG,AMNE23.JPG,AMNE21.JPG,AMSA25.JPG,AMNE25.JPG,AMSA23.JPG,,,,,0,7,7,5,,,,,,,,,,,,,,,,,,,AMNE18.jpg,AMSA04.jpg,AMNE13.jpg,AMSA02.jpg,AMNE18.jpg,MN,1,num_8,16,num_8,0.88344960683,,,2017_Sep_15_1809,60.0033680098,FEMA4ImagesEEG,001,101602,
AMSA25.JPG,AMNE24.JPG,AMSA24.JPG,AMNE26.JPG,AMSA21.JPG,AMNE25.JPG,,,,,0,8,8,3,,,,,,,,,,,,,,,,,,,AMNE07.jpg,AMNE09.jpg,AMSA11.jpg,AMSA12.jpg,AMSA12.jpg,MS,2,num_4,16,num_4,1.01661271299,,,2017_Sep_15_1809,60.0033680098,FEMA4ImagesEEG,001,101602,
AFNE22.JPG,AFSA24.JPG,AFSA22.JPG,AFNE25.JPG,AFNE24.JPG,AFSA25.JPG,,,,,0,9,9,6,,,,,,,,,,,,,,,,,,,AMNE02.jpg,AMNE01.jpg,AMSA19.jpg,AMSA17.jpg,AMSA17.jpg,MS,2,num_4,16,num_4,0.683468722738,,,2017_Sep_15_1809,60.0033680098,FEMA4ImagesEEG,001,101602,
AFSA21.JPG,AFNE22.JPG,AFNE21.JPG,AFSA23.JPG,AFSA22.JPG,AFNE23.JPG,,,,,,,,,0,0,0,0,,,,,,,,,,,,,,,AFNE04.jpg,AFNE08.jpg,AFSA06.jpg,AFSA02.jpg,AFNE04.jpg,FN,3,num_8,16,num_8,1.18370751361,,,2017_Sep_15_1809,60.0033680098,FEMA4ImagesEEG,001,101602,
AMNE22.JPG,AMSA24.JPG,AMSA22.JPG,AMNE25.JPG,AMNE24.JPG,AMSA25.JPG,,,,,,,,,0,1,1,7,,,,,,,,,,,,,,,AFSA03.jpg,AFNE09.jpg,AFSA05.jpg,AFNE16.jpg,AFNE16.jpg,FN,3,num_4,32,num_6,1.45012706099,,,2017_Sep_15_1809,60.0033680098,FEMA4ImagesEEG,001,101602,
AMSA21.JPG,AMNE23.JPG,AMNE21.JPG,AMSA25.JPG,AMNE25.JPG,AMSA23.JPG,,,,,,,,,0,2,2,5,,,,,,,,,,,,,,,AFSA15.jpg,AFSA08.jpg,AFNE09.jpg,AFNE05.jpg,AFSA08.jpg,FS,4,num_6,32,num_2,1.35011272412,,,2017_Sep_15_1809,60.0033680098,FEMA4ImagesEEG,001,101602,
AMSA21.JPG,AMNE22.JPG,AMNE21.JPG,AMSA23.JPG,AMSA22.JPG,AMNE23.JPG,,,,,,,,,0,3,3,1,,,,,,,,,,,,,,,AFNE18.jpg,AFNE09.jpg,AFSA10.jpg,AFSA01.jpg,AFSA01.jpg,FS,4,num_4,16,num_4,1.23337277351,,,2017_Sep_15_1809,60.0033680098,FEMA4ImagesEEG,001,101602,
AFSA21.JPG,AFNE23.JPG,AFNE21.JPG,AFSA25.JPG,AFNE25.JPG,AFSA23.JPG,,,,,,,,,0,4,4,4,,,,,,,,,,,,,,,AFNE15.jpg,AFNE20.jpg,AFSA11.jpg,AFSA20.jpg,AFSA20.jpg,FS,4,num_4,16,num_4,1.43338958034,,,2017_Sep_15_1809,60.0033680098,FEMA4ImagesEEG,001,101602,
AMNE23.JPG,AMNE24.JPG,AMNE22.JPG,AMSA24.JPG,AMSA22.JPG,AMSA23.JPG,,,,,,,,,0,5,5,9,,,,,,,,,,,,,,,AFSA08.jpg,AFNE11.jpg,AFNE08.jpg,AFSA04.jpg,AFNE08.jpg,FN,3,num_2,32,num_4,1.78342757188,,,2017_Sep_15_1809,60.0033680098,FEMA4ImagesEEG,001,101602,
AFNE22.JPG,AFSA24.JPG,AFSA22.JPG,AFNE25.JPG,AFNE24.JPG,AFSA25.JPG,,,,,,,,,0,6,6,6,,,,,,,,,,,,,,,AFSA19.jpg,AFSA01.jpg,AFNE09.jpg,AFNE05.jpg,AFNE09.jpg,FN,3,num_2,32,num_4,0.966758537339,,,2017_Sep_15_1809,60.0033680098,FEMA4ImagesEEG,001,101602,
AMSA25.JPG,AMNE24.JPG,AMSA24.JPG,AMNE26.JPG,AMSA21.JPG,AMNE25.JPG,,,,,,,,,0,7,7,3,,,,,,,,,,,,,,,AFNE16.jpg,AFNE17.jpg,AFSA16.jpg,AFSA12.jpg,AFSA16.jpg,FS,4,num_2,32,num_8,2.46667562588,,,2017_Sep_15_1809,60.0033680098,FEMA4ImagesEEG,001,101602,
AFNE23.JPG,AFNE24.JPG,AFNE22.JPG,AFSA24.JPG,AFSA22.JPG,AFSA23.JPG,,,,,,,,,0,8,8,8,,,,,,,,,,,,,,,AFNE20.jpg,AFSA02.jpg,AFSA10.jpg,AFNE19.jpg,AFSA02.jpg,FS,4,num_6,16,num_6,0.983622068539,,,2017_Sep_15_1809,60.0033680098,FEMA4ImagesEEG,001,101602,
AFSA25.JPG,AFNE24.JPG,AFSA24.JPG,AFNE21.JPG,AFSA21.JPG,AFNE25.JPG,,,,,,,,,0,9,9,2,,,,,,,,,,,,,,,AFNE04.jpg,AFNE03.jpg,AFSA16.jpg,AFSA05.jpg,AFNE04.jpg,FN,3,num_8,16,num_8,1.16673877952,,,2017_Sep_15_1809,60.0033680098,FEMA4ImagesEEG,001,101602,
AFSA25.JPG,AFNE24.JPG,AFSA24.JPG,AFNE21.JPG,AFSA21.JPG,AFNE25.JPG,,,,,,,,,,,,,0,0,0,2,,,,,,,,,,,AMSA03.jpg,AMSA10.jpg,AMNE01.jpg,AMNE05.jpg,AMSA03.jpg,MS,2,num_8,32,num_6,1.6333958027,,,2017_Sep_15_1809,60.0033680098,FEMA4ImagesEEG,001,101602,
AFSA21.JPG,AFNE22.JPG,AFNE21.JPG,AFSA23.JPG,AFSA22.JPG,AFNE23.JPG,,,,,,,,,,,,,0,1,1,0,,,,,,,,,,,AMNE13.jpg,AMNE19.jpg,AMSA16.jpg,AMSA20.jpg,AMNE13.jpg,MN,1,num_8,32,num_2,1.60008056974,,,2017_Sep_15_1809,60.0033680098,FEMA4ImagesEEG,001,101602,
AMSA21.JPG,AMNE22.JPG,AMNE21.JPG,AMSA23.JPG,AMSA22.JPG,AMNE23.JPG,,,,,,,,,,,,,0,2,2,1,,,,,,,,,,,AMSA19.jpg,AMNE19.jpg,AMNE07.jpg,AMSA08.jpg,AMSA08.jpg,MS,2,num_4,32,num_8,2.59999204567,,,2017_Sep_15_1809,60.0033680098,FEMA4ImagesEEG,001,101602,
AFSA21.JPG,AFNE23.JPG,AFNE21.JPG,AFSA25.JPG,AFNE25.JPG,AFSA23.JPG,,,,,,,,,,,,,0,3,3,4,,,,,,,,,,,AMNE19.jpg,AMNE05.jpg,AMSA15.jpg,AMSA14.jpg,AMNE19.jpg,MN,1,num_8,32,num_2,1.31669485429,,,2017_Sep_15_1809,60.0033680098,FEMA4ImagesEEG,001,101602,
AMSA25.JPG,AMNE24.JPG,AMSA24.JPG,AMNE26.JPG,AMSA21.JPG,AMNE25.JPG,,,,,,,,,,,,,0,4,4,3,,,,,,,,,,,AMSA03.jpg,AMNE07.jpg,AMSA12.jpg,AMNE05.jpg,AMSA03.jpg,MS,2,num_8,16,num_8,1.31675707782,,,2017_Sep_15_1809,60.0033680098,FEMA4ImagesEEG,001,101602,
AFNE22.JPG,AFSA24.JPG,AFSA22.JPG,AFNE25.JPG,AFNE24.JPG,AFSA25.JPG,,,,,,,,,,,,,0,5,5,6,,,,,,,,,,,AMNE01.jpg,AMSA15.jpg,AMSA20.jpg,AMNE13.jpg,AMSA15.jpg,MS,2,num_6,16,num_6,0.800116620958,,,2017_Sep_15_1809,60.0033680098,FEMA4ImagesEEG,001,101602,
AMNE22.JPG,AMSA24.JPG,AMSA22.JPG,AMNE25.JPG,AMNE24.JPG,AMSA25.JPG,,,,,,,,,,,,,0,6,6,7,,,,,,,,,,,AMSA07.jpg,AMNE04.jpg,AMNE08.jpg,AMSA12.jpg,AMNE04.jpg,MN,1,num_6,16,num_6,0.683494061232,,,2017_Sep_15_1809,60.0033680098,FEMA4ImagesEEG,001,101602,
AFNE23.JPG,AFNE24.JPG,AFNE22.JPG,AFSA24.JPG,AFSA22.JPG,AFSA23.JPG,,,,,,,,,,,,,0,7,7,8,,,,,,,,,,,AMSA07.jpg,AMNE14.jpg,AMNE13.jpg,AMSA14.jpg,AMSA14.jpg,MS,2,num_4,16,num_4,0.566762450151,,,2017_Sep_15_1809,60.0033680098,FEMA4ImagesEEG,001,101602,
AMSA21.JPG,AMNE23.JPG,AMNE21.JPG,AMSA25.JPG,AMNE25.JPG,AMSA23.JPG,,,,,,,,,,,,,0,8,8,5,,,,,,,,,,,AMNE15.jpg,AMSA01.jpg,AMSA03.jpg,AMNE07.jpg,AMNE15.jpg,MN,1,num_8,16,num_8,1.24981549452,,,2017_Sep_15_1809,60.0033680098,FEMA4ImagesEEG,001,101602,
AMNE23.JPG,AMNE24.JPG,AMNE22.JPG,AMSA24.JPG,AMSA22.JPG,AMSA23.JPG,,,,,,,,,,,,,0,9,9,9,,,,,,,,,,,AMNE06.jpg,AMSA18.jpg,AMSA05.jpg,AMNE01.jpg,AMSA05.jpg,MS,2,num_2,32,num_4,1.13366217702,,,2017_Sep_15_1809,60.0033680098,FEMA4ImagesEEG,001,101602,
AMNE23.JPG,AMNE24.JPG,AMNE22.JPG,AMSA24.JPG,AMSA22.JPG,AMSA23.JPG,,,,,,,,,,,,,,,,,0,0,0,9,,,,,,,AFNE20.jpg,AFNE18.jpg,AFSA07.jpg,AFSA19.jpg,AFSA07.jpg,FS,4,num_2,32,num_4,3.10007559834,,,2017_Sep_15_1809,60.0033680098,FEMA4ImagesEEG,001,101602,
AMNE22.JPG,AMSA24.JPG,AMSA22.JPG,AMNE25.JPG,AMNE24.JPG,AMSA25.JPG,,,,,,,,,,,,,,,,,0,1,1,7,,,,,,,AFSA10.jpg,AFNE17.jpg,AFSA18.jpg,AFNE10.jpg,AFSA10.jpg,FS,4,num_8,32,num_4,0.916923926678,,,2017_Sep_15_1809,60.0033680098,FEMA4ImagesEEG,001,101602,
AFSA25.JPG,AFNE24.JPG,AFSA24.JPG,AFNE21.JPG,AFSA21.JPG,AFNE25.JPG,,,,,,,,,,,,,,,,,0,2,2,2,,,,,,,AFSA03.jpg,AFNE05.jpg,AFNE15.jpg,AFSA15.jpg,AFSA03.jpg,FS,4,num_8,16,num_8,1.55005800584,,,2017_Sep_15_1809,60.0033680098,FEMA4ImagesEEG,001,101602,
AMSA21.JPG,AMNE23.JPG,AMNE21.JPG,AMSA25.JPG,AMNE25.JPG,AMSA23.JPG,,,,,,,,,,,,,,,,,0,3,3,5,,,,,,,AFSA18.jpg,AFSA15.jpg,AFNE20.jpg,AFNE17.jpg,AFNE20.jpg,FN,3,num_2,16,num_2,3.09997616895,,,2017_Sep_15_1809,60.0033680098,FEMA4ImagesEEG,001,101602,
AFSA21.JPG,AFNE22.JPG,AFNE21.JPG,AFSA23.JPG,AFSA22.JPG,AFNE23.JPG,,,,,,,,,,,,,,,,,0,4,4,0,,,,,,,AFSA01.jpg,AFSA10.jpg,AFNE03.jpg,AFNE06.jpg,AFNE03.jpg,FN,3,num_2,32,num_8,1.00008756178,,,2017_Sep_15_1809,60.0033680098,FEMA4ImagesEEG,001,101602,
AFNE22.JPG,AFSA24.JPG,AFSA22.JPG,AFNE25.JPG,AFNE24.JPG,AFSA25.JPG,,,,,,,,,,,,,,,,,0,5,5,6,,,,,,,AFSA09.jpg,AFSA16.jpg,AFNE11.jpg,AFNE08.jpg,AFSA09.jpg,FS,4,num_8,16,num_8,0.883756875526,,,2017_Sep_15_1809,60.0033680098,FEMA4ImagesEEG,001,101602,
AFNE23.JPG,AFNE24.JPG,AFNE22.JPG,AFSA24.JPG,AFSA22.JPG,AFSA23.JPG,,,,,,,,,,,,,,,,,0,6,6,8,,,,,,,AFNE04.jpg,AFNE01.jpg,AFSA03.jpg,AFSA06.jpg,AFSA03.jpg,FS,4,num_2,32,num_4,0.533551136963,,,2017_Sep_15_1809,60.0033680098,FEMA4ImagesEEG,001,101602,
AMSA25.JPG,AMNE24.JPG,AMSA24.JPG,AMNE26.JPG,AMSA21.JPG,AMNE25.JPG,,,,,,,,,,,,,,,,,0,7,7,3,,,,,,,AFSA08.jpg,AFNE08.jpg,AFSA04.jpg,AFNE18.jpg,AFNE18.jpg,FN,3,num_4,16,num_4,1.31672307942,,,2017_Sep_15_1809,60.0033680098,FEMA4ImagesEEG,001,101602,
AMSA21.JPG,AMNE22.JPG,AMNE21.JPG,AMSA23.JPG,AMSA22.JPG,AMNE23.JPG,,,,,,,,,,,,,,,,,0,8,8,1,,,,,,,AFSA20.jpg,AFNE10.jpg,AFNE09.jpg,AFSA05.jpg,AFSA05.jpg,FS,4,num_4,32,num_8,0.983123318292,,,2017_Sep_15_1809,60.0033680098,FEMA4ImagesEEG,001,101602,
AFSA21.JPG,AFNE23.JPG,AFNE21.JPG,AFSA25.JPG,AFNE25.JPG,AFSA23.JPG,,,,,,,,,,,,,,,,,0,9,9,4,,,,,,,AFSA04.jpg,AFNE09.jpg,AFNE12.jpg,AFSA03.jpg,AFSA03.jpg,FS,4,num_4,16,num_4,1.03339221049,,,2017_Sep_15_1809,60.0033680098,FEMA4ImagesEEG,001,101602,
AFNE23.JPG,AFNE24.JPG,AFNE22.JPG,AFSA24.JPG,AFSA22.JPG,AFSA23.JPG,,,,,,,,,,,,,,,,,,,,,0,0,0,8,,,AMSA14.jpg,AMNE10.jpg,AMSA09.jpg,AMNE01.jpg,AMSA09.jpg,MS,2,num_2,32,num_6,1.19994431967,,,2017_Sep_15_1809,60.0033680098,FEMA4ImagesEEG,001,101602,
AMNE23.JPG,AMNE24.JPG,AMNE22.JPG,AMSA24.JPG,AMSA22.JPG,AMSA23.JPG,,,,,,,,,,,,,,,,,,,,,0,1,1,9,,,AMSA06.jpg,AMNE18.jpg,AMSA17.jpg,AMNE08.jpg,AMNE18.jpg,MN,1,num_6,32,num_8,1.70031172689,,,2017_Sep_15_1809,60.0033680098,FEMA4ImagesEEG,001,101602,
AFSA21.JPG,AFNE22.JPG,AFNE21.JPG,AFSA23.JPG,AFSA22.JPG,AFNE23.JPG,,,,,,,,,,,,,,,,,,,,,0,2,2,0,,,AMSA15.jpg,AMNE01.jpg,AMNE20.jpg,AMSA11.jpg,AMNE20.jpg,MN,1,num_2,32,num_8,1.08339809603,,,2017_Sep_15_1809,60.0033680098,FEMA4ImagesEEG,001,101602,
AMSA25.JPG,AMNE24.JPG,AMSA24.JPG,AMNE26.JPG,AMSA21.JPG,AMNE25.JPG,,,,,,,,,,,,,,,,,,,,,0,3,3,3,,,AMNE03.jpg,AMNE20.jpg,AMSA10.jpg,AMSA19.jpg,AMSA19.jpg,MS,2,num_4,32,num_8,0.46680552559,,,2017_Sep_15_1809,60.0033680098,FEMA4ImagesEEG,001,101602,
AMSA21.JPG,AMNE22.JPG,AMNE21.JPG,AMSA23.JPG,AMSA22.JPG,AMNE23.JPG,,,,,,,,,,,,,,,,,,,,,0,4,4,1,,,AMNE13.jpg,AMSA13.jpg,AMSA10.jpg,AMNE06.jpg,AMSA10.jpg,MS,2,num_2,16,num_2,1.81669790135,,,2017_Sep_15_1809,60.0033680098,FEMA4ImagesEEG,001,101602,
AMSA21.JPG,AMNE23.JPG,AMNE21.JPG,AMSA25.JPG,AMNE25.JPG,AMSA23.JPG,,,,,,,,,,,,,,,,,,,,,0,5,5,5,,,AMSA03.jpg,AMNE16.jpg,AMSA17.jpg,AMNE08.jpg,AMNE08.jpg,MN,1,num_4,32,num_6,1.03345315112,,,2017_Sep_15_1809,60.0033680098,FEMA4ImagesEEG,001,101602,
AFNE22.JPG,AFSA24.JPG,AFSA22.JPG,AFNE25.JPG,AFNE24.JPG,AFSA25.JPG,,,,,,,,,,,,,,,,,,,,,0,6,6,6,,,AMNE04.jpg,AMSA11.jpg,AMNE20.jpg,AMSA15.jpg,AMSA11.jpg,MS,2,num_6,32,num_2,3.63321650936,,,2017_Sep_15_1809,60.0033680098,FEMA4ImagesEEG,001,101602,
AFSA25.JPG,AFNE24.JPG,AFSA24.JPG,AFNE21.JPG,AFSA21.JPG,AFNE25.JPG,,,,,,,,,,,,,,,,,,,,,0,7,7,2,,,AMNE04.jpg,AMNE10.jpg,AMSA20.jpg,AMSA01.jpg,AMSA20.jpg,MS,2,num_2,32,num_6,1.74999302393,,,2017_Sep_15_1809,60.0033680098,FEMA4ImagesEEG,001,101602,
AFSA21.JPG,AFNE23.JPG,AFNE21.JPG,AFSA25.JPG,AFNE25.JPG,AFSA23.JPG,,,,,,,,,,,,,,,,,,,,,0,8,8,4,,,AMNE02.jpg,AMNE20.jpg,AMSA08.jpg,AMSA13.jpg,AMNE02.jpg,MN,1,num_8,16,num_8,0.966458645416,,,2017_Sep_15_1809,60.0033680098,FEMA4ImagesEEG,001,101602,
AMNE22.JPG,AMSA24.JPG,AMSA22.JPG,AMNE25.JPG,AMNE24.JPG,AMSA25.JPG,,,,,,,,,,,,,,,,,,,,,0,9,9,7,,,AMSA09.jpg,AMNE01.jpg,AMNE08.jpg,AMSA20.jpg,AMNE01.jpg,MN,1,num_6,16,num_6,0.566732942127,,,2017_Sep_15_1809,60.0033680098,FEMA4ImagesEEG,001,101602,
,,,,,,,,,,,,,,,,,,,,,,,,,,,,,,,,,,,,,,,,,,,space,20.0155314994,2017_Sep_15_1809,60.0033680098,FEMA4ImagesEEG,001,101602,
AFNE01.JPG,AFNE01.JPG,AFNE01.JPG,AFNE01.JPG,AFNE01.JPG,AFNE01.JPG,0,0,0,2,,,,,,,,,,,,,,,,,,,,,,,AFNE20.jpg,AFNE17.jpg,AFSA06.jpg,AFSA01.jpg,AFNE17.jpg,FN,3,num_6,16,num_6,0.916835402371,,,2017_Sep_15_1809,60.0033680098,FEMA4ImagesEEG,001,101602,
AFNE01.JPG,AFNE01.JPG,AFNE01.JPG,AFNE01.JPG,AFNE01.JPG,AFNE01.JPG,0,1,1,8,,,,,,,,,,,,,,,,,,,,,,,AFNE14.jpg,AFNE06.jpg,AFSA20.jpg,AFSA10.jpg,AFSA10.jpg,FS,4,num_4,16,num_4,0.650159583893,,,2017_Sep_15_1809,60.0033680098,FEMA4ImagesEEG,001,101602,
AFNE01.JPG,AFNE01.JPG,AFNE01.JPG,AFNE01.JPG,AFNE01.JPG,AFNE01.JPG,0,2,2,1,,,,,,,,,,,,,,,,,,,,,,,AFNE20.jpg,AFSA03.jpg,AFSA01.jpg,AFNE07.jpg,AFSA01.jpg,FS,4,num_2,16,num_2,1.73333572829,,,2017_Sep_15_1809,60.0033680098,FEMA4ImagesEEG,001,101602,
AFNE01.JPG,AFNE01.JPG,AFNE01.JPG,AFNE01.JPG,AFNE01.JPG,AFNE01.JPG,0,3,3,7,,,,,,,,,,,,,,,,,,,,,,,AFSA05.jpg,AFNE04.jpg,AFNE12.jpg,AFSA11.jpg,AFSA05.jpg,FS,4,num_8,16,num_8,1.08349495963,,,2017_Sep_15_1809,60.0033680098,FEMA4ImagesEEG,001,101602,
AFNE01.JPG,AFNE01.JPG,AFNE01.JPG,AFNE01.JPG,AFNE01.JPG,AFNE01.JPG,0,4,4,5,,,,,,,,,,,,,,,,,,,,,,,AFNE07.jpg,AFSA09.jpg,AFNE17.jpg,AFSA20.jpg,AFSA09.jpg,FS,4,num_6,16,num_6,0.53345780191,,,2017_Sep_15_1809,60.0033680098,FEMA4ImagesEEG,001,101602,
AFNE01.JPG,AFNE01.JPG,AFNE01.JPG,AFNE01.JPG,AFNE01.JPG,AFNE01.JPG,0,5,5,4,,,,,,,,,,,,,,,,,,,,,,,AFSA10.jpg,AFNE08.jpg,AFSA07.jpg,AFNE12.jpg,AFSA10.jpg,FS,4,num_8,32,num_4,0.783453552052,,,2017_Sep_15_1809,60.0033680098,FEMA4ImagesEEG,001,101602,
AFNE01.JPG,AFNE01.JPG,AFNE01.JPG,AFNE01.JPG,AFNE01.JPG,AFNE01.JPG,0,6,6,0,,,,,,,,,,,,,,,,,,,,,,,AFSA07.jpg,AFSA19.jpg,AFNE19.jpg,AFNE14.jpg,AFNE14.jpg,FN,3,num_4,16,num_4,0.733537794324,,,2017_Sep_15_1809,60.0033680098,FEMA4ImagesEEG,001,101602,
AFNE01.JPG,AFNE01.JPG,AFNE01.JPG,AFNE01.JPG,AFNE01.JPG,AFNE01.JPG,0,7,7,6,,,,,,,,,,,,,,,,,,,,,,,AFNE06.jpg,AFSA18.jpg,AFNE09.jpg,AFSA03.jpg,AFNE09.jpg,FN,3,num_2,16,num_2,1.95000983076,,,2017_Sep_15_1809,60.0033680098,FEMA4ImagesEEG,001,101602,
AFNE01.JPG,AFNE01.JPG,AFNE01.JPG,AFNE01.JPG,AFNE01.JPG,AFNE01.JPG,0,8,8,3,,,,,,,,,,,,,,,,,,,,,,,AFSA09.jpg,AFNE12.jpg,AFSA11.jpg,AFNE07.jpg,AFNE12.jpg,FN,3,num_6,16,num_6,0.850500017172,,,2017_Sep_15_1809,60.0033680098,FEMA4ImagesEEG,001,101602,
AFNE01.JPG,AFNE01.JPG,AFNE01.JPG,AFNE01.JPG,AFNE01.JPG,AFNE01.JPG,0,9,9,9,,,,,,,,,,,,,,,,,,,,,,,AFNE19.jpg,AFSA05.jpg,AFSA01.jpg,AFNE15.jpg,AFSA05.jpg,FS,4,num_6,16,num_6,1.36672287085,,,2017_Sep_15_1809,60.0033680098,FEMA4ImagesEEG,001,101602,
AFNE01.JPG,AFNE01.JPG,AFNE01.JPG,AFNE01.JPG,AFNE01.JPG,AFNE01.JPG,1,0,10,2,,,,,,,,,,,,,,,,,,,,,,,AFNE19.jpg,AFSA07.jpg,AFNE12.jpg,AFSA12.jpg,AFSA07.jpg,FS,4,num_6,16,num_6,2.79997998592,,,2017_Sep_15_1809,60.0033680098,FEMA4ImagesEEG,001,101602,
AFNE01.JPG,AFNE01.JPG,AFNE01.JPG,AFNE01.JPG,AFNE01.JPG,AFNE01.JPG,1,1,11,8,,,,,,,,,,,,,,,,,,,,,,,AFSA08.jpg,AFNE01.jpg,AFNE06.jpg,AFSA02.jpg,AFSA08.jpg,FS,4,num_8,32,num_4,1.13340494386,,,2017_Sep_15_1809,60.0033680098,FEMA4ImagesEEG,001,101602,
AFNE01.JPG,AFNE01.JPG,AFNE01.JPG,AFNE01.JPG,AFNE01.JPG,AFNE01.JPG,1,2,12,6,,,,,,,,,,,,,,,,,,,,,,,AFSA17.jpg,AFNE10.jpg,AFSA13.jpg,AFNE14.jpg,AFNE14.jpg,FN,3,num_4,16,num_4,1.43340208917,,,2017_Sep_15_1809,60.0033680098,FEMA4ImagesEEG,001,101602,
AFNE01.JPG,AFNE01.JPG,AFNE01.JPG,AFNE01.JPG,AFNE01.JPG,AFNE01.JPG,1,3,13,7,,,,,,,,,,,,,,,,,,,,,,,AFSA04.jpg,AFNE06.jpg,AFNE15.jpg,AFSA14.jpg,AFNE06.jpg,FN,3,num_6,32,num_8,1.88339508092,,,2017_Sep_15_1809,60.0033680098,FEMA4ImagesEEG,001,101602,
AFNE01.JPG,AFNE01.JPG,AFNE01.JPG,AFNE01.JPG,AFNE01.JPG,AFNE01.JPG,1,4,14,5,,,,,,,,,,,,,,,,,,,,,,,AFSA08.jpg,AFNE02.jpg,AFSA14.jpg,AFNE07.jpg,AFNE02.jpg,FN,3,num_6,16,num_6,1.73343066708,,,2017_Sep_15_1809,60.0033680098,FEMA4ImagesEEG,001,101602,
AFNE01.JPG,AFNE01.JPG,AFNE01.JPG,AFNE01.JPG,AFNE01.JPG,AFNE01.JPG,1,5,15,9,,,,,,,,,,,,,,,,,,,,,,,AFNE18.jpg,AFNE04.jpg,AFSA20.jpg,AFSA14.jpg,AFSA14.jpg,FS,4,num_4,16,num_4,0.583478120621,,,2017_Sep_15_1809,60.0033680098,FEMA4ImagesEEG,001,101602,
AFNE01.JPG,AFNE01.JPG,AFNE01.JPG,AFNE01.JPG,AFNE01.JPG,AFNE01.JPG,1,6,16,3,,,,,,,,,,,,,,,,,,,,,,,AFNE10.jpg,AFSA06.jpg,AFNE03.jpg,AFSA15.jpg,AFNE10.jpg,FN,3,num_8,32,num_2,2.6666193041,,,2017_Sep_15_1809,60.0033680098,FEMA4ImagesEEG,001,101602,
AFNE01.JPG,AFNE01.JPG,AFNE01.JPG,AFNE01.JPG,AFNE01.JPG,AFNE01.JPG,1,7,17,4,,,,,,,,,,,,,,,,,,,,,,,AFSA08.jpg,AFNE16.jpg,AFSA15.jpg,AFNE15.jpg,AFSA15.jpg,FS,4,num_2,32,num_8,1.03343743458,,,2017_Sep_15_1809,60.0033680098,FEMA4ImagesEEG,001,101602,
AFNE01.JPG,AFNE01.JPG,AFNE01.JPG,AFNE01.JPG,AFNE01.JPG,AFNE01.JPG,1,8,18,1,,,,,,,,,,,,,,,,,,,,,,,AFSA08.jpg,AFNE18.jpg,AFSA05.jpg,AFNE06.jpg,AFNE06.jpg,FN,3,num_4,32,num_8,1.7667869546,,,2017_Sep_15_1809,60.0033680098,FEMA4ImagesEEG,001,101602,
AFNE01.JPG,AFNE01.JPG,AFNE01.JPG,AFNE01.JPG,AFNE01.JPG,AFNE01.JPG,1,9,19,0,,,,,,,,,,,,,,,,,,,,,,,AFNE07.jpg,AFNE13.jpg,AFSA17.jpg,AFSA02.jpg,AFNE07.jpg,FN,3,num_8,32,num_6,1.28341233707,,,2017_Sep_15_1809,60.0033680098,FEMA4ImagesEEG,001,101602,
AFNE01.JPG,AFNE01.JPG,AFNE01.JPG,AFNE01.JPG,AFNE01.JPG,AFNE01.JPG,2,0,20,7,,,,,,,,,,,,,,,,,,,,,,,AFSA12.jpg,AFSA18.jpg,AFNE15.jpg,AFNE17.jpg,AFSA18.jpg,FS,4,num_6,16,num_6,1.51673699939,,,2017_Sep_15_1809,60.0033680098,FEMA4ImagesEEG,001,101602,
AFNE01.JPG,AFNE01.JPG,AFNE01.JPG,AFNE01.JPG,AFNE01.JPG,AFNE01.JPG,2,1,21,6,,,,,,,,,,,,,,,,,,,,,,,AFNE06.jpg,AFNE03.jpg,AFSA03.jpg,AFSA16.jpg,AFSA03.jpg,FS,4,num_2,32,num_4,0.783428213559,,,2017_Sep_15_1809,60.0033680098,FEMA4ImagesEEG,001,101602,
AFNE01.JPG,AFNE01.JPG,AFNE01.JPG,AFNE01.JPG,AFNE01.JPG,AFNE01.JPG,2,2,22,9,,,,,,,,,,,,,,,,,,,,,,,AFNE04.jpg,AFNE14.jpg,AFSA02.jpg,AFSA03.jpg,AFSA03.jpg,FS,4,num_4,16,num_4,0.61674812925,,,2017_Sep_15_1809,60.0033680098,FEMA4ImagesEEG,001,101602,
AFNE01.JPG,AFNE01.JPG,AFNE01.JPG,AFNE01.JPG,AFNE01.JPG,AFNE01.JPG,2,3,23,2,,,,,,,,,,,,,,,,,,,,,,,AFSA12.jpg,AFSA20.jpg,AFNE17.jpg,AFNE11.jpg,AFNE11.jpg,FN,3,num_4,16,num_4,0.700120886788,,,2017_Sep_15_1809,60.0033680098,FEMA4ImagesEEG,001,101602,
AFNE01.JPG,AFNE01.JPG,AFNE01.JPG,AFNE01.JPG,AFNE01.JPG,AFNE01.JPG,2,4,24,8,,,,,,,,,,,,,,,,,,,,,,,AFSA20.jpg,AFNE01.jpg,AFSA03.jpg,AFNE02.jpg,AFSA03.jpg,FS,4,num_2,32,num_4,1.24993480952,,,2017_Sep_15_1809,60.0033680098,FEMA4ImagesEEG,001,101602,
AFNE01.JPG,AFNE01.JPG,AFNE01.JPG,AFNE01.JPG,AFNE01.JPG,AFNE01.JPG,2,5,25,3,,,,,,,,,,,,,,,,,,,,,,,AFNE11.jpg,AFSA14.jpg,AFNE14.jpg,AFSA08.jpg,AFSA08.jpg,FS,4,num_4,16,num_4,0.700125056319,,,2017_Sep_15_1809,60.0033680098,FEMA4ImagesEEG,001,101602,
AFNE01.JPG,AFNE01.JPG,AFNE01.JPG,AFNE01.JPG,AFNE01.JPG,AFNE01.JPG,2,6,26,1,,,,,,,,,,,,,,,,,,,,,,,AFNE12.jpg,AFNE14.jpg,AFSA15.jpg,AFSA20.jpg,AFSA15.jpg,FS,4,num_2,16,num_2,1.95003773505,,,2017_Sep_15_1809,60.0033680098,FEMA4ImagesEEG,001,101602,
AFNE01.JPG,AFNE01.JPG,AFNE01.JPG,AFNE01.JPG,AFNE01.JPG,AFNE01.JPG,2,7,27,5,,,,,,,,,,,,,,,,,,,,,,,AFNE16.jpg,AFSA14.jpg,AFSA15.jpg,AFNE07.jpg,AFSA14.jpg,FS,4,num_6,32,num_8,2.86659409385,,,2017_Sep_15_1809,60.0033680098,FEMA4ImagesEEG,001,101602,
AFNE01.JPG,AFNE01.JPG,AFNE01.JPG,AFNE01.JPG,AFNE01.JPG,AFNE01.JPG,2,8,28,4,,,,,,,,,,,,,,,,,,,,,,,AFNE05.jpg,AFSA13.jpg,AFNE10.jpg,AFSA12.jpg,AFNE10.jpg,FN,3,num_2,16,num_2,0.917050939519,,,2017_Sep_15_1809,60.0033680098,FEMA4ImagesEEG,001,101602,
AFNE01.JPG,AFNE01.JPG,AFNE01.JPG,AFNE01.JPG,AFNE01.JPG,AFNE01.JPG,2,9,29,0,,,,,,,,,,,,,,,,,,,,,,,AFSA16.jpg,AFSA20.jpg,AFNE20.jpg,AFNE11.jpg,AFSA16.jpg,FS,4,num_8,16,num_8,0.800147411879,,,2017_Sep_15_1809,60.0033680098,FEMA4ImagesEEG,001,101602,
AFNE01.JPG,AFNE01.JPG,AFNE01.JPG,AFNE01.JPG,AFNE01.JPG,AFNE01.JPG,3,0,30,2,,,,,,,,,,,,,,,,,,,,,,,AFNE03.jpg,AFSA14.jpg,AFNE04.jpg,AFSA05.jpg,AFNE04.jpg,FN,3,num_2,16,num_2,1.15011195419,,,2017_Sep_15_1809,60.0033680098,FEMA4ImagesEEG,001,101602,
AFNE01.JPG,AFNE01.JPG,AFNE01.JPG,AFNE01.JPG,AFNE01.JPG,AFNE01.JPG,3,1,31,0,,,,,,,,,,,,,,,,,,,,,,,AFNE07.jpg,AFSA11.jpg,AFNE16.jpg,AFSA09.jpg,AFNE16.jpg,FN,3,num_2,16,num_2,2.16666116077,,,2017_Sep_15_1809,60.0033680098,FEMA4ImagesEEG,001,101602,
AFNE01.JPG,AFNE01.JPG,AFNE01.JPG,AFNE01.JPG,AFNE01.JPG,AFNE01.JPG,3,2,32,7,,,,,,,,,,,,,,,,,,,,,,,AFSA06.jpg,AFNE16.jpg,AFSA09.jpg,AFNE12.jpg,AFSA09.jpg,FS,4,num_2,16,num_2,1.55009745667,,,2017_Sep_15_1809,60.0033680098,FEMA4ImagesEEG,001,101602,
AFNE01.JPG,AFNE01.JPG,AFNE01.JPG,AFNE01.JPG,AFNE01.JPG,AFNE01.JPG,3,3,33,4,,,,,,,,,,,,,,,,,,,,,,,AFSA18.jpg,AFNE04.jpg,AFSA06.jpg,AFNE02.jpg,AFNE04.jpg,FN,3,num_6,16,num_6,2.28337128228,,,2017_Sep_15_1809,60.0033680098,FEMA4ImagesEEG,001,101602,
AFNE01.JPG,AFNE01.JPG,AFNE01.JPG,AFNE01.JPG,AFNE01.JPG,AFNE01.JPG,3,4,34,1,,,,,,,,,,,,,,,,,,,,,,,AFNE08.jpg,AFSA12.jpg,AFNE11.jpg,AFSA19.jpg,AFSA12.jpg,FS,4,num_6,16,num_6,0.466829260113,,,2017_Sep_15_1809,60.0033680098,FEMA4ImagesEEG,001,101602,
AFNE01.JPG,AFNE01.JPG,AFNE01.JPG,AFNE01.JPG,AFNE01.JPG,AFNE01.JPG,3,5,35,6,,,,,,,,,,,,,,,,,,,,,,,AFSA03.jpg,AFSA06.jpg,AFNE15.jpg,AFNE02.jpg,AFNE15.jpg,FN,3,num_2,16,num_2,1.41674158606,,,2017_Sep_15_1809,60.0033680098,FEMA4ImagesEEG,001,101602,
AFNE01.JPG,AFNE01.JPG,AFNE01.JPG,AFNE01.JPG,AFNE01.JPG,AFNE01.JPG,3,6,36,3,,,,,,,,,,,,,,,,,,,,,,,AFSA20.jpg,AFNE07.jpg,AFSA08.jpg,AFNE10.jpg,AFSA08.jpg,FS,4,num_2,32,num_8,1.53344914154,,,2017_Sep_15_1809,60.0033680098,FEMA4ImagesEEG,001,101602,
AFNE01.JPG,AFNE01.JPG,AFNE01.JPG,AFNE01.JPG,AFNE01.JPG,AFNE01.JPG,3,7,37,5,,,,,,,,,,,,,,,,,,,,,,,AFNE17.jpg,AFSA19.jpg,AFSA18.jpg,AFNE19.jpg,AFNE19.jpg,FN,3,num_4,32,num_6,0.800308743957,,,2017_Sep_15_1809,60.0033680098,FEMA4ImagesEEG,001,101602,
AFNE01.JPG,AFNE01.JPG,AFNE01.JPG,AFNE01.JPG,AFNE01.JPG,AFNE01.JPG,3,8,38,9,,,,,,,,,,,,,,,,,,,,,,,AFNE04.jpg,AFNE02.jpg,AFSA14.jpg,AFSA07.jpg,AFNE04.jpg,FN,3,num_8,16,num_8,1.45016330457,,,2017_Sep_15_1809,60.0033680098,FEMA4ImagesEEG,001,101602,
AFNE01.JPG,AFNE01.JPG,AFNE01.JPG,AFNE01.JPG,AFNE01.JPG,AFNE01.JPG,3,9,39,8,,,,,,,,,,,,,,,,,,,,,,,AFNE03.jpg,AFSA08.jpg,AFNE08.jpg,AFSA02.jpg,AFNE08.jpg,FN,3,num_2,32,num_8,2.21667634766,,,2017_Sep_15_1809,60.0033680098,FEMA4ImagesEEG,001,101602,
AFNE01.JPG,AFNE01.JPG,AFNE01.JPG,AFNE01.JPG,AFNE01.JPG,AFNE01.JPG,4,0,40,3,,,,,,,,,,,,,,,,,,,,,,,AFNE20.jpg,AFSA01.jpg,AFNE18.jpg,AFSA11.jpg,AFNE18.jpg,FN,3,num_2,32,num_8,1.20010372717,,,2017_Sep_15_1809,60.0033680098,FEMA4ImagesEEG,001,101602,
AFNE01.JPG,AFNE01.JPG,AFNE01.JPG,AFNE01.JPG,AFNE01.JPG,AFNE01.JPG,4,1,41,5,,,,,,,,,,,,,,,,,,,,,,,AFNE18.jpg,AFNE05.jpg,AFSA01.jpg,AFSA07.jpg,AFSA01.jpg,FS,4,num_2,16,num_2,2.26665368746,,,2017_Sep_15_1809,60.0033680098,FEMA4ImagesEEG,001,101602,
AFNE01.JPG,AFNE01.JPG,AFNE01.JPG,AFNE01.JPG,AFNE01.JPG,AFNE01.JPG,4,2,42,9,,,,,,,,,,,,,,,,,,,,,,,AFNE15.jpg,AFSA08.jpg,AFSA07.jpg,AFNE20.jpg,AFSA07.jpg,FS,4,num_2,16,num_2,1.60004208097,,,2017_Sep_15_1809,60.0033680098,FEMA4ImagesEEG,001,101602,
AFNE01.JPG,AFNE01.JPG,AFNE01.JPG,AFNE01.JPG,AFNE01.JPG,AFNE01.JPG,4,3,43,0,,,,,,,,,,,,,,,,,,,,,,,AFNE13.jpg,AFNE04.jpg,AFSA08.jpg,AFSA20.jpg,AFSA20.jpg,FS,4,num_4,32,num_8,1.49989944813,,,2017_Sep_15_1809,60.0033680098,FEMA4ImagesEEG,001,101602,
AFNE01.JPG,AFNE01.JPG,AFNE01.JPG,AFNE01.JPG,AFNE01.JPG,AFNE01.JPG,4,4,44,7,,,,,,,,,,,,,,,,,,,,,,,AFSA02.jpg,AFNE13.jpg,AFSA04.jpg,AFNE16.jpg,AFNE16.jpg,FN,3,num_4,32,num_8,1.73331969115,,,2017_Sep_15_1809,60.0033680098,FEMA4ImagesEEG,001,101602,
AFNE01.JPG,AFNE01.JPG,AFNE01.JPG,AFNE01.JPG,AFNE01.JPG,AFNE01.JPG,4,5,45,1,,,,,,,,,,,,,,,,,,,,,,,AFSA11.jpg,AFNE15.jpg,AFSA02.jpg,AFNE09.jpg,AFSA11.jpg,FS,4,num_8,16,num_8,0.716780427843,,,2017_Sep_15_1809,60.0033680098,FEMA4ImagesEEG,001,101602,
AFNE01.JPG,AFNE01.JPG,AFNE01.JPG,AFNE01.JPG,AFNE01.JPG,AFNE01.JPG,4,6,46,8,,,,,,,,,,,,,,,,,,,,,,,AFNE01.jpg,AFSA19.jpg,AFNE10.jpg,AFSA10.jpg,AFNE01.jpg,FN,3,num_8,16,num_8,0.783369518118,,,2017_Sep_15_1809,60.0033680098,FEMA4ImagesEEG,001,101602,
AFNE01.JPG,AFNE01.JPG,AFNE01.JPG,AFNE01.JPG,AFNE01.JPG,AFNE01.JPG,4,7,47,4,,,,,,,,,,,,,,,,,,,,,,,AFNE15.jpg,AFNE11.jpg,AFSA20.jpg,AFSA15.jpg,AFSA20.jpg,FS,4,num_2,32,num_6,1.06676228996,,,2017_Sep_15_1809,60.0033680098,FEMA4ImagesEEG,001,101602,
AFNE01.JPG,AFNE01.JPG,AFNE01.JPG,AFNE01.JPG,AFNE01.JPG,AFNE01.JPG,4,8,48,6,,,,,,,,,,,,,,,,,,,,,,,AFSA11.jpg,AFNE08.jpg,AFSA09.jpg,AFNE01.jpg,AFSA09.jpg,FS,4,num_2,32,num_4,1.10010093683,,,2017_Sep_15_1809,60.0033680098,FEMA4ImagesEEG,001,101602,
AFNE01.JPG,AFNE01.JPG,AFNE01.JPG,AFNE01.JPG,AFNE01.JPG,AFNE01.JPG,4,9,49,2,,,,,,,,,,,,,,,,,,,,,,,AFSA14.jpg,AFSA11.jpg,AFNE04.jpg,AFNE19.jpg,AFSA14.jpg,FS,4,num_8,32,num_4,1.9333599119,,,2017_Sep_15_1809,60.0033680098,FEMA4ImagesEEG,001,101602,
AFNE01.JPG,AFNE01.JPG,AFNE01.JPG,AFNE01.JPG,AFNE01.JPG,AFNE01.JPG,5,0,50,0,,,,,,,,,,,,,,,,,,,,,,,AFNE14.jpg,AFSA05.jpg,AFSA11.jpg,AFNE17.jpg,AFSA11.jpg,FS,4,num_2,16,num_2,2.01668423787,,,2017_Sep_15_1809,60.0033680098,FEMA4ImagesEEG,001,101602,
AFNE01.JPG,AFNE01.JPG,AFNE01.JPG,AFNE01.JPG,AFNE01.JPG,AFNE01.JPG,5,1,51,5,,,,,,,,,,,,,,,,,,,,,,,AFNE13.jpg,AFNE08.jpg,AFSA16.jpg,AFSA06.jpg,AFSA06.jpg,FS,4,num_4,16,num_4,0.783450344577,,,2017_Sep_15_1809,60.0033680098,FEMA4ImagesEEG,001,101602,
AFNE01.JPG,AFNE01.JPG,AFNE01.JPG,AFNE01.JPG,AFNE01.JPG,AFNE01.JPG,5,2,52,9,,,,,,,,,,,,,,,,,,,,,,,AFNE11.jpg,AFSA03.jpg,AFSA06.jpg,AFNE03.jpg,AFSA03.jpg,FS,4,num_6,16,num_6,1.56675122445,,,2017_Sep_15_1809,60.0033680098,FEMA4ImagesEEG,001,101602,
AFNE01.JPG,AFNE01.JPG,AFNE01.JPG,AFNE01.JPG,AFNE01.JPG,AFNE01.JPG,5,3,53,4,,,,,,,,,,,,,,,,,,,,,,,AFNE07.jpg,AFSA09.jpg,AFSA07.jpg,AFNE14.jpg,AFNE07.jpg,FN,3,num_8,16,num_8,0.700107415905,,,2017_Sep_15_1809,60.0033680098,FEMA4ImagesEEG,001,101602,
AFNE01.JPG,AFNE01.JPG,AFNE01.JPG,AFNE01.JPG,AFNE01.JPG,AFNE01.JPG,5,4,54,8,,,,,,,,,,,,,,,,,,,,,,,AFSA12.jpg,AFNE09.jpg,AFNE02.jpg,AFSA18.jpg,AFSA12.jpg,FS,4,num_8,16,num_8,0.466770565137,,,2017_Sep_15_1809,60.0033680098,FEMA4ImagesEEG,001,101602,
AFNE01.JPG,AFNE01.JPG,AFNE01.JPG,AFNE01.JPG,AFNE01.JPG,AFNE01.JPG,5,5,55,2,,,,,,,,,,,,,,,,,,,,,,,AFSA10.jpg,AFNE01.jpg,AFNE10.jpg,AFSA14.jpg,AFSA14.jpg,FS,4,num_4,16,num_4,0.500135512557,,,2017_Sep_15_1809,60.0033680098,FEMA4ImagesEEG,001,101602,
AFNE01.JPG,AFNE01.JPG,AFNE01.JPG,AFNE01.JPG,AFNE01.JPG,AFNE01.JPG,5,6,56,1,,,,,,,,,,,,,,,,,,,,,,,AFSA19.jpg,AFNE03.jpg,AFSA13.jpg,AFNE20.jpg,AFNE03.jpg,FN,3,num_6,16,num_6,2.71632914688,,,2017_Sep_15_1809,60.0033680098,FEMA4ImagesEEG,001,101602,
AFNE01.JPG,AFNE01.JPG,AFNE01.JPG,AFNE01.JPG,AFNE01.JPG,AFNE01.JPG,5,7,57,3,,,,,,,,,,,,,,,,,,,,,,,AFNE15.jpg,AFNE12.jpg,AFSA04.jpg,AFSA20.jpg,AFSA20.jpg,FS,4,num_4,32,num_2,1.38327207742,,,2017_Sep_15_1809,60.0033680098,FEMA4ImagesEEG,001,101602,
AFNE01.JPG,AFNE01.JPG,AFNE01.JPG,AFNE01.JPG,AFNE01.JPG,AFNE01.JPG,5,8,58,6,,,,,,,,,,,,,,,,,,,,,,,AFNE06.jpg,AFNE03.jpg,AFSA20.jpg,AFSA12.jpg,AFNE03.jpg,FN,3,num_6,16,num_6,2.03364944365,,,2017_Sep_15_1809,60.0033680098,FEMA4ImagesEEG,001,101602,
AFNE01.JPG,AFNE01.JPG,AFNE01.JPG,AFNE01.JPG,AFNE01.JPG,AFNE01.JPG,5,9,59,7,,,,,,,,,,,,,,,,,,,,,,,AFSA13.jpg,AFNE14.jpg,AFNE03.jpg,AFSA18.jpg,AFNE03.jpg,FN,3,num_2,16,num_2,0.750151469372,,,2017_Sep_15_1809,60.0033680098,FEMA4ImagesEEG,001,101602,
,,,,,,,,,,,,,,,,,,,,,,,,,,,,,,,,,,,,,,,,,,,space,17.8988085482,2017_Sep_15_1809,60.0033680098,FEMA4ImagesEEG,001,101602,
AFNE01.JPG,AFNE01.JPG,AFNE01.JPG,AFNE01.JPG,AFNE01.JPG,AFNE01.JPG,,,,,0,0,0,4,,,,,,,,,,,,,,,,,,,AMSA11.jpg,AMSA16.jpg,AMNE06.jpg,AMNE10.jpg,AMNE10.jpg,MN,1,num_4,32,num_8,2.2833866775,,,2017_Sep_15_1809,60.0033680098,FEMA4ImagesEEG,001,101602,
AFNE01.JPG,AFNE01.JPG,AFNE01.JPG,AFNE01.JPG,AFNE01.JPG,AFNE01.JPG,,,,,0,1,1,0,,,,,,,,,,,,,,,,,,,AMNE17.jpg,AMSA07.jpg,AMSA02.jpg,AMNE12.jpg,AMNE12.jpg,MN,1,num_4,32,num_6,1.16673364793,,,2017_Sep_15_1809,60.0033680098,FEMA4ImagesEEG,001,101602,
AFNE01.JPG,AFNE01.JPG,AFNE01.JPG,AFNE01.JPG,AFNE01.JPG,AFNE01.JPG,,,,,0,2,2,8,,,,,,,,,,,,,,,,,,,AMNE16.jpg,AMNE02.jpg,AMSA17.jpg,AMSA06.jpg,AMSA17.jpg,MS,2,num_2,16,num_2,1.84973697737,,,2017_Sep_15_1809,60.0033680098,FEMA4ImagesEEG,001,101602,
AFNE01.JPG,AFNE01.JPG,AFNE01.JPG,AFNE01.JPG,AFNE01.JPG,AFNE01.JPG,,,,,0,3,3,5,,,,,,,,,,,,,,,,,,,AMSA05.jpg,AMNE02.jpg,AMSA09.jpg,AMNE03.jpg,AMNE03.jpg,MN,1,num_4,16,num_4,0.633504854282,,,2017_Sep_15_1809,60.0033680098,FEMA4ImagesEEG,001,101602,
AFNE01.JPG,AFNE01.JPG,AFNE01.JPG,AFNE01.JPG,AFNE01.JPG,AFNE01.JPG,,,,,0,4,4,2,,,,,,,,,,,,,,,,,,,AMNE16.jpg,AMSA14.jpg,AMSA03.jpg,AMNE20.jpg,AMSA14.jpg,MS,2,num_6,16,num_6,0.616866482189,,,2017_Sep_15_1809,60.0033680098,FEMA4ImagesEEG,001,101602,
AFNE01.JPG,AFNE01.JPG,AFNE01.JPG,AFNE01.JPG,AFNE01.JPG,AFNE01.JPG,,,,,0,5,5,3,,,,,,,,,,,,,,,,,,,AMNE06.jpg,AMSA13.jpg,AMNE14.jpg,AMSA01.jpg,AMNE06.jpg,MN,1,num_8,16,num_8,1.23349882429,,,2017_Sep_15_1809,60.0033680098,FEMA4ImagesEEG,001,101602,
AFNE01.JPG,AFNE01.JPG,AFNE01.JPG,AFNE01.JPG,AFNE01.JPG,AFNE01.JPG,,,,,0,6,6,1,,,,,,,,,,,,,,,,,,,AMNE07.jpg,AMSA05.jpg,AMNE01.jpg,AMSA20.jpg,AMSA05.jpg,MS,2,num_6,32,num_4,0.950100920629,,,2017_Sep_15_1809,60.0033680098,FEMA4ImagesEEG,001,101602,
AFNE01.JPG,AFNE01.JPG,AFNE01.JPG,AFNE01.JPG,AFNE01.JPG,AFNE01.JPG,,,,,0,7,7,7,,,,,,,,,,,,,,,,,,,AMNE02.jpg,AMNE10.jpg,AMSA20.jpg,AMSA11.jpg,AMNE10.jpg,MN,1,num_6,16,num_6,1.00014369143,,,2017_Sep_15_1809,60.0033680098,FEMA4ImagesEEG,001,101602,
AFNE01.JPG,AFNE01.JPG,AFNE01.JPG,AFNE01.JPG,AFNE01.JPG,AFNE01.JPG,,,,,0,8,8,9,,,,,,,,,,,,,,,,,,,AMSA02.jpg,AMNE18.jpg,AMNE12.jpg,AMSA08.jpg,AMSA08.jpg,MS,2,num_4,16,num_4,0.616566590499,,,2017_Sep_15_1809,60.0033680098,FEMA4ImagesEEG,001,101602,
AFNE01.JPG,AFNE01.JPG,AFNE01.JPG,AFNE01.JPG,AFNE01.JPG,AFNE01.JPG,,,,,0,9,9,6,,,,,,,,,,,,,,,,,,,AMSA05.jpg,AMSA13.jpg,AMNE15.jpg,AMNE18.jpg,AMSA05.jpg,MS,2,num_8,32,num_2,1.71669639391,,,2017_Sep_15_1809,60.0033680098,FEMA4ImagesEEG,001,101602,
AFNE01.JPG,AFNE01.JPG,AFNE01.JPG,AFNE01.JPG,AFNE01.JPG,AFNE01.JPG,,,,,1,0,10,0,,,,,,,,,,,,,,,,,,,AMSA13.jpg,AMNE16.jpg,AMSA19.jpg,AMNE19.jpg,AMNE19.jpg,MN,1,num_4,16,num_4,0.633450328605,,,2017_Sep_15_1809,60.0033680098,FEMA4ImagesEEG,001,101602,
AFNE01.JPG,AFNE01.JPG,AFNE01.JPG,AFNE01.JPG,AFNE01.JPG,AFNE01.JPG,,,,,1,1,11,9,,,,,,,,,,,,,,,,,,,AMNE20.jpg,AMSA03.jpg,AMSA06.jpg,AMNE16.jpg,AMNE20.jpg,MN,1,num_8,16,num_8,0.783452589763,,,2017_Sep_15_1809,60.0033680098,FEMA4ImagesEEG,001,101602,
AFNE01.JPG,AFNE01.JPG,AFNE01.JPG,AFNE01.JPG,AFNE01.JPG,AFNE01.JPG,,,,,1,2,12,1,,,,,,,,,,,,,,,,,,,AMSA07.jpg,AMNE18.jpg,AMSA10.jpg,AMNE02.jpg,AMNE02.jpg,MN,1,num_4,16,num_4,0.75013030041,,,2017_Sep_15_1809,60.0033680098,FEMA4ImagesEEG,001,101602,
AFNE01.JPG,AFNE01.JPG,AFNE01.JPG,AFNE01.JPG,AFNE01.JPG,AFNE01.JPG,,,,,1,3,13,7,,,,,,,,,,,,,,,,,,,AMSA03.jpg,AMSA20.jpg,AMNE16.jpg,AMNE11.jpg,AMNE16.jpg,MN,1,num_2,16,num_2,1.25007753866,,,2017_Sep_15_1809,60.0033680098,FEMA4ImagesEEG,001,101602,
AFNE01.JPG,AFNE01.JPG,AFNE01.JPG,AFNE01.JPG,AFNE01.JPG,AFNE01.JPG,,,,,1,4,14,2,,,,,,,,,,,,,,,,,,,AMNE04.jpg,AMSA15.jpg,AMNE02.jpg,AMSA17.jpg,AMNE02.jpg,MN,1,num_2,32,num_4,0.61675935518,,,2017_Sep_15_1809,60.0033680098,FEMA4ImagesEEG,001,101602,
AFNE01.JPG,AFNE01.JPG,AFNE01.JPG,AFNE01.JPG,AFNE01.JPG,AFNE01.JPG,,,,,1,5,15,5,,,,,,,,,,,,,,,,,,,AMNE13.jpg,AMSA11.jpg,AMNE05.jpg,AMSA16.jpg,AMSA16.jpg,MS,2,num_4,16,num_4,1.41673100181,,,2017_Sep_15_1809,60.0033680098,FEMA4ImagesEEG,001,101602,
AFNE01.JPG,AFNE01.JPG,AFNE01.JPG,AFNE01.JPG,AFNE01.JPG,AFNE01.JPG,,,,,1,6,16,3,,,,,,,,,,,,,,,,,,,AMSA08.jpg,AMNE01.jpg,AMSA13.jpg,AMNE15.jpg,AMNE01.jpg,MN,1,num_6,16,num_6,0.516824240563,,,2017_Sep_15_1809,60.0033680098,FEMA4ImagesEEG,001,101602,
AFNE01.JPG,AFNE01.JPG,AFNE01.JPG,AFNE01.JPG,AFNE01.JPG,AFNE01.JPG,,,,,1,7,17,6,,,,,,,,,,,,,,,,,,,AMSA11.jpg,AMSA18.jpg,AMNE13.jpg,AMNE12.jpg,AMSA11.jpg,MS,2,num_8,32,num_6,0.466866145376,,,2017_Sep_15_1809,60.0033680098,FEMA4ImagesEEG,001,101602,
AFNE01.JPG,AFNE01.JPG,AFNE01.JPG,AFNE01.JPG,AFNE01.JPG,AFNE01.JPG,,,,,1,8,18,8,,,,,,,,,,,,,,,,,,,AMSA12.jpg,AMSA04.jpg,AMNE15.jpg,AMNE06.jpg,AMSA12.jpg,MS,2,num_8,16,num_8,0.933593731141,,,2017_Sep_15_1809,60.0033680098,FEMA4ImagesEEG,001,101602,
AFNE01.JPG,AFNE01.JPG,AFNE01.JPG,AFNE01.JPG,AFNE01.JPG,AFNE01.JPG,,,,,1,9,19,4,,,,,,,,,,,,,,,,,,,AMSA05.jpg,AMNE13.jpg,AMNE17.jpg,AMSA03.jpg,AMNE13.jpg,MN,1,num_6,16,num_6,2.74996191217,,,2017_Sep_15_1809,60.0033680098,FEMA4ImagesEEG,001,101602,
AFNE01.JPG,AFNE01.JPG,AFNE01.JPG,AFNE01.JPG,AFNE01.JPG,AFNE01.JPG,,,,,2,0,20,5,,,,,,,,,,,,,,,,,,,AMNE06.jpg,AMNE01.jpg,AMSA07.jpg,AMSA19.jpg,AMNE06.jpg,MN,1,num_8,16,num_8,0.983407173073,,,2017_Sep_15_1809,60.0033680098,FEMA4ImagesEEG,001,101602,
AFNE01.JPG,AFNE01.JPG,AFNE01.JPG,AFNE01.JPG,AFNE01.JPG,AFNE01.JPG,,,,,2,1,21,3,,,,,,,,,,,,,,,,,,,AMNE01.jpg,AMSA15.jpg,AMSA02.jpg,AMNE08.jpg,AMSA15.jpg,MS,2,num_6,16,num_6,0.733514380176,,,2017_Sep_15_1809,60.0033680098,FEMA4ImagesEEG,001,101602,
AFNE01.JPG,AFNE01.JPG,AFNE01.JPG,AFNE01.JPG,AFNE01.JPG,AFNE01.JPG,,,,,2,2,22,2,,,,,,,,,,,,,,,,,,,AMSA06.jpg,AMSA01.jpg,AMNE01.jpg,AMNE16.jpg,AMSA01.jpg,MS,2,num_6,32,num_2,1.13341264147,,,2017_Sep_15_1809,60.0033680098,FEMA4ImagesEEG,001,101602,
AFNE01.JPG,AFNE01.JPG,AFNE01.JPG,AFNE01.JPG,AFNE01.JPG,AFNE01.JPG,,,,,2,3,23,6,,,,,,,,,,,,,,,,,,,AMNE08.jpg,AMSA18.jpg,AMNE01.jpg,AMSA08.jpg,AMSA08.jpg,MS,2,num_4,32,num_8,1.98342000251,,,2017_Sep_15_1809,60.0033680098,FEMA4ImagesEEG,001,101602,
AFNE01.JPG,AFNE01.JPG,AFNE01.JPG,AFNE01.JPG,AFNE01.JPG,AFNE01.JPG,,,,,2,4,24,7,,,,,,,,,,,,,,,,,,,AMSA08.jpg,AMNE17.jpg,AMNE07.jpg,AMSA10.jpg,AMNE17.jpg,MN,1,num_6,16,num_6,0.616778278723,,,2017_Sep_15_1809,60.0033680098,FEMA4ImagesEEG,001,101602,
AFNE01.JPG,AFNE01.JPG,AFNE01.JPG,AFNE01.JPG,AFNE01.JPG,AFNE01.JPG,,,,,2,5,25,0,,,,,,,,,,,,,,,,,,,AMNE09.jpg,AMSA16.jpg,AMNE13.jpg,AMSA18.jpg,AMNE13.jpg,MN,1,num_2,16,num_2,1.30011261161,,,2017_Sep_15_1809,60.0033680098,FEMA4ImagesEEG,001,101602,
AFNE01.JPG,AFNE01.JPG,AFNE01.JPG,AFNE01.JPG,AFNE01.JPG,AFNE01.JPG,,,,,2,6,26,8,,,,,,,,,,,,,,,,,,,AMSA11.jpg,AMSA19.jpg,AMNE12.jpg,AMNE08.jpg,AMSA11.jpg,MS,2,num_8,16,num_8,0.8501439963,,,2017_Sep_15_1809,60.0033680098,FEMA4ImagesEEG,001,101602,
AFNE01.JPG,AFNE01.JPG,AFNE01.JPG,AFNE01.JPG,AFNE01.JPG,AFNE01.JPG,,,,,2,7,27,9,,,,,,,,,,,,,,,,,,,AMSA11.jpg,AMNE16.jpg,AMNE10.jpg,AMSA03.jpg,AMNE16.jpg,MN,1,num_6,16,num_6,1.03371359152,,,2017_Sep_15_1809,60.0033680098,FEMA4ImagesEEG,001,101602,
AFNE01.JPG,AFNE01.JPG,AFNE01.JPG,AFNE01.JPG,AFNE01.JPG,AFNE01.JPG,,,,,2,8,28,1,,,,,,,,,,,,,,,,,,,AMSA04.jpg,AMNE11.jpg,AMNE09.jpg,AMSA06.jpg,AMNE09.jpg,MN,1,num_2,16,num_2,0.816859233426,,,2017_Sep_15_1809,60.0033680098,FEMA4ImagesEEG,001,101602,
AFNE01.JPG,AFNE01.JPG,AFNE01.JPG,AFNE01.JPG,AFNE01.JPG,AFNE01.JPG,,,,,2,9,29,4,,,,,,,,,,,,,,,,,,,AMSA10.jpg,AMNE15.jpg,AMSA17.jpg,AMNE18.jpg,AMNE15.jpg,MN,1,num_6,16,num_6,0.733462741133,,,2017_Sep_15_1809,60.0033680098,FEMA4ImagesEEG,001,101602,
AFNE01.JPG,AFNE01.JPG,AFNE01.JPG,AFNE01.JPG,AFNE01.JPG,AFNE01.JPG,,,,,3,0,30,1,,,,,,,,,,,,,,,,,,,AMSA05.jpg,AMNE18.jpg,AMSA09.jpg,AMNE14.jpg,AMNE18.jpg,MN,1,num_6,32,num_8,1.61679110816,,,2017_Sep_15_1809,60.0033680098,FEMA4ImagesEEG,001,101602,
AFNE01.JPG,AFNE01.JPG,AFNE01.JPG,AFNE01.JPG,AFNE01.JPG,AFNE01.JPG,,,,,3,1,31,6,,,,,,,,,,,,,,,,,,,AMSA15.jpg,AMNE10.jpg,AMSA09.jpg,AMNE03.jpg,AMNE10.jpg,MN,1,num_6,16,num_6,1.21678026742,,,2017_Sep_15_1809,60.0033680098,FEMA4ImagesEEG,001,101602,
AFNE01.JPG,AFNE01.JPG,AFNE01.JPG,AFNE01.JPG,AFNE01.JPG,AFNE01.JPG,,,,,3,2,32,9,,,,,,,,,,,,,,,,,,,AMNE11.jpg,AMSA08.jpg,AMNE17.jpg,AMSA01.jpg,AMSA01.jpg,MS,2,num_4,16,num_4,1.20008191699,,,2017_Sep_15_1809,60.0033680098,FEMA4ImagesEEG,001,101602,
AFNE01.JPG,AFNE01.JPG,AFNE01.JPG,AFNE01.JPG,AFNE01.JPG,AFNE01.JPG,,,,,3,3,33,7,,,,,,,,,,,,,,,,,,,AMSA20.jpg,AMNE17.jpg,AMSA06.jpg,AMNE03.jpg,AMNE03.jpg,MN,1,num_4,16,num_4,0.716767277336,,,2017_Sep_15_1809,60.0033680098,FEMA4ImagesEEG,001,101602,
AFNE01.JPG,AFNE01.JPG,AFNE01.JPG,AFNE01.JPG,AFNE01.JPG,AFNE01.JPG,,,,,3,4,34,8,,,,,,,,,,,,,,,,,,,AMNE04.jpg,AMSA02.jpg,AMSA14.jpg,AMNE03.jpg,AMNE04.jpg,MN,1,num_8,16,num_8,1.93335927045,,,2017_Sep_15_1809,60.0033680098,FEMA4ImagesEEG,001,101602,
AFNE01.JPG,AFNE01.JPG,AFNE01.JPG,AFNE01.JPG,AFNE01.JPG,AFNE01.JPG,,,,,3,5,35,3,,,,,,,,,,,,,,,,,,,AMNE02.jpg,AMSA09.jpg,AMNE06.jpg,AMSA20.jpg,AMNE06.jpg,MN,1,num_2,16,num_2,1.73346017511,,,2017_Sep_15_1809,60.0033680098,FEMA4ImagesEEG,001,101602,
AFNE01.JPG,AFNE01.JPG,AFNE01.JPG,AFNE01.JPG,AFNE01.JPG,AFNE01.JPG,,,,,3,6,36,5,,,,,,,,,,,,,,,,,,,AMSA10.jpg,AMSA12.jpg,AMNE14.jpg,AMNE02.jpg,AMSA10.jpg,MS,2,num_8,16,num_8,1.28339758306,,,2017_Sep_15_1809,60.0033680098,FEMA4ImagesEEG,001,101602,
AFNE01.JPG,AFNE01.JPG,AFNE01.JPG,AFNE01.JPG,AFNE01.JPG,AFNE01.JPG,,,,,3,7,37,0,,,,,,,,,,,,,,,,,,,AMNE02.jpg,AMNE08.jpg,AMSA07.jpg,AMSA11.jpg,AMSA07.jpg,MS,2,num_2,32,num_6,1.76697490807,,,2017_Sep_15_1809,60.0033680098,FEMA4ImagesEEG,001,101602,
AFNE01.JPG,AFNE01.JPG,AFNE01.JPG,AFNE01.JPG,AFNE01.JPG,AFNE01.JPG,,,,,3,8,38,2,,,,,,,,,,,,,,,,,,,AMSA19.jpg,AMSA06.jpg,AMNE07.jpg,AMNE11.jpg,AMSA19.jpg,MS,2,num_8,32,num_6,1.1668163985,,,2017_Sep_15_1809,60.0033680098,FEMA4ImagesEEG,001,101602,
AFNE01.JPG,AFNE01.JPG,AFNE01.JPG,AFNE01.JPG,AFNE01.JPG,AFNE01.JPG,,,,,3,9,39,4,,,,,,,,,,,,,,,,,,,AMNE05.jpg,AMSA01.jpg,AMSA04.jpg,AMNE11.jpg,AMSA01.jpg,MS,2,num_6,16,num_6,0.666756901424,,,2017_Sep_15_1809,60.0033680098,FEMA4ImagesEEG,001,101602,
AFNE01.JPG,AFNE01.JPG,AFNE01.JPG,AFNE01.JPG,AFNE01.JPG,AFNE01.JPG,,,,,4,0,40,0,,,,,,,,,,,,,,,,,,,AMSA18.jpg,AMSA11.jpg,AMNE10.jpg,AMNE12.jpg,AMSA11.jpg,MS,2,num_6,16,num_6,1.26675824844,,,2017_Sep_15_1809,60.0033680098,FEMA4ImagesEEG,001,101602,
AFNE01.JPG,AFNE01.JPG,AFNE01.JPG,AFNE01.JPG,AFNE01.JPG,AFNE01.JPG,,,,,4,1,41,5,,,,,,,,,,,,,,,,,,,AMNE12.jpg,AMSA17.jpg,AMNE10.jpg,AMSA03.jpg,AMNE10.jpg,MN,1,num_2,32,num_8,1.35008674418,,,2017_Sep_15_1809,60.0033680098,FEMA4ImagesEEG,001,101602,
AFNE01.JPG,AFNE01.JPG,AFNE01.JPG,AFNE01.JPG,AFNE01.JPG,AFNE01.JPG,,,,,4,2,42,8,,,,,,,,,,,,,,,,,,,AMNE04.jpg,AMNE15.jpg,AMSA10.jpg,AMSA09.jpg,AMNE04.jpg,MN,1,num_8,16,num_8,0.933414116967,,,2017_Sep_15_1809,60.0033680098,FEMA4ImagesEEG,001,101602,
AFNE01.JPG,AFNE01.JPG,AFNE01.JPG,AFNE01.JPG,AFNE01.JPG,AFNE01.JPG,,,,,4,3,43,7,,,,,,,,,,,,,,,,,,,AMNE11.jpg,AMSA10.jpg,AMSA17.jpg,AMNE07.jpg,AMSA10.jpg,MS,2,num_6,16,num_6,0.58348902571,,,2017_Sep_15_1809,60.0033680098,FEMA4ImagesEEG,001,101602,
AFNE01.JPG,AFNE01.JPG,AFNE01.JPG,AFNE01.JPG,AFNE01.JPG,AFNE01.JPG,,,,,4,4,44,6,,,,,,,,,,,,,,,,,,,AMSA15.jpg,AMNE15.jpg,AMNE07.jpg,AMSA11.jpg,AMNE07.jpg,MN,1,num_2,32,num_6,1.05010852241,,,2017_Sep_15_1809,60.0033680098,FEMA4ImagesEEG,001,101602,
AFNE01.JPG,AFNE01.JPG,AFNE01.JPG,AFNE01.JPG,AFNE01.JPG,AFNE01.JPG,,,,,4,5,45,2,,,,,,,,,,,,,,,,,,,AMSA07.jpg,AMNE14.jpg,AMNE15.jpg,AMSA03.jpg,AMSA07.jpg,MS,2,num_8,32,num_4,1.10032898257,,,2017_Sep_15_1809,60.0033680098,FEMA4ImagesEEG,001,101602,
AFNE01.JPG,AFNE01.JPG,AFNE01.JPG,AFNE01.JPG,AFNE01.JPG,AFNE01.JPG,,,,,4,6,46,1,,,,,,,,,,,,,,,,,,,AMSA04.jpg,AMSA20.jpg,AMNE07.jpg,AMNE08.jpg,AMNE08.jpg,MN,1,num_4,32,num_2,1.31675643637,,,2017_Sep_15_1809,60.0033680098,FEMA4ImagesEEG,001,101602,
AFNE01.JPG,AFNE01.JPG,AFNE01.JPG,AFNE01.JPG,AFNE01.JPG,AFNE01.JPG,,,,,4,7,47,9,,,,,,,,,,,,,,,,,,,AMNE12.jpg,AMSA08.jpg,AMNE10.jpg,AMSA06.jpg,AMSA06.jpg,MS,2,num_4,16,num_4,0.700132112717,,,2017_Sep_15_1809,60.0033680098,FEMA4ImagesEEG,001,101602,
AFNE01.JPG,AFNE01.JPG,AFNE01.JPG,AFNE01.JPG,AFNE01.JPG,AFNE01.JPG,,,,,4,8,48,4,,,,,,,,,,,,,,,,,,,AMSA01.jpg,AMSA07.jpg,AMNE05.jpg,AMNE06.jpg,AMNE05.jpg,MN,1,num_2,16,num_2,1.30004718085,,,2017_Sep_15_1809,60.0033680098,FEMA4ImagesEEG,001,101602,
AFNE01.JPG,AFNE01.JPG,AFNE01.JPG,AFNE01.JPG,AFNE01.JPG,AFNE01.JPG,,,,,4,9,49,3,,,,,,,,,,,,,,,,,,,AMNE10.jpg,AMNE09.jpg,AMSA07.jpg,AMSA17.jpg,AMNE10.jpg,MN,1,num_8,16,num_8,1.36671998445,,,2017_Sep_15_1809,60.0033680098,FEMA4ImagesEEG,001,101602,
AFNE01.JPG,AFNE01.JPG,AFNE01.JPG,AFNE01.JPG,AFNE01.JPG,AFNE01.JPG,,,,,5,0,50,3,,,,,,,,,,,,,,,,,,,AMNE03.jpg,AMSA10.jpg,AMNE01.jpg,AMSA16.jpg,AMNE01.jpg,MN,1,num_2,16,num_2,1.2502513798,,,2017_Sep_15_1809,60.0033680098,FEMA4ImagesEEG,001,101602,
AFNE01.JPG,AFNE01.JPG,AFNE01.JPG,AFNE01.JPG,AFNE01.JPG,AFNE01.JPG,,,,,5,1,51,0,,,,,,,,,,,,,,,,,,,AMSA03.jpg,AMNE01.jpg,AMSA19.jpg,AMNE05.jpg,AMSA03.jpg,MS,2,num_8,16,num_8,0.816757238237,,,2017_Sep_15_1809,60.0033680098,FEMA4ImagesEEG,001,101602,
AFNE01.JPG,AFNE01.JPG,AFNE01.JPG,AFNE01.JPG,AFNE01.JPG,AFNE01.JPG,,,,,5,2,52,6,,,,,,,,,,,,,,,,,,,AMSA01.jpg,AMNE11.jpg,AMSA15.jpg,AMNE01.jpg,AMSA15.jpg,MS,2,num_2,16,num_2,0.500140644377,,,2017_Sep_15_1809,60.0033680098,FEMA4ImagesEEG,001,101602,
AFNE01.JPG,AFNE01.JPG,AFNE01.JPG,AFNE01.JPG,AFNE01.JPG,AFNE01.JPG,,,,,5,3,53,7,,,,,,,,,,,,,,,,,,,AMSA02.jpg,AMSA01.jpg,AMNE11.jpg,AMNE03.jpg,AMNE11.jpg,MN,1,num_2,32,num_6,0.783442326123,,,2017_Sep_15_1809,60.0033680098,FEMA4ImagesEEG,001,101602,
AFNE01.JPG,AFNE01.JPG,AFNE01.JPG,AFNE01.JPG,AFNE01.JPG,AFNE01.JPG,,,,,5,4,54,1,,,,,,,,,,,,,,,,,,,AMSA05.jpg,AMNE02.jpg,AMSA06.jpg,AMNE05.jpg,AMSA05.jpg,MS,2,num_8,32,num_4,1.2000565785,,,2017_Sep_15_1809,60.0033680098,FEMA4ImagesEEG,001,101602,
AFNE01.JPG,AFNE01.JPG,AFNE01.JPG,AFNE01.JPG,AFNE01.JPG,AFNE01.JPG,,,,,5,5,55,2,,,,,,,,,,,,,,,,,,,AMNE09.jpg,AMSA16.jpg,AMNE14.jpg,AMSA12.jpg,AMNE09.jpg,MN,1,num_8,16,num_8,1.33341629803,,,2017_Sep_15_1809,60.0033680098,FEMA4ImagesEEG,001,101602,
AFNE01.JPG,AFNE01.JPG,AFNE01.JPG,AFNE01.JPG,AFNE01.JPG,AFNE01.JPG,,,,,5,6,56,8,,,,,,,,,,,,,,,,,,,AMSA04.jpg,AMNE17.jpg,AMNE19.jpg,AMSA02.jpg,AMSA04.jpg,MS,2,num_8,32,num_4,0.816763973795,,,2017_Sep_15_1809,60.0033680098,FEMA4ImagesEEG,001,101602,
AFNE01.JPG,AFNE01.JPG,AFNE01.JPG,AFNE01.JPG,AFNE01.JPG,AFNE01.JPG,,,,,5,7,57,9,,,,,,,,,,,,,,,,,,,AMNE14.jpg,AMNE03.jpg,AMSA18.jpg,AMSA03.jpg,AMSA03.jpg,MS,2,num_4,32,num_2,0.600285843248,,,2017_Sep_15_1809,60.0033680098,FEMA4ImagesEEG,001,101602,
AFNE01.JPG,AFNE01.JPG,AFNE01.JPG,AFNE01.JPG,AFNE01.JPG,AFNE01.JPG,,,,,5,8,58,5,,,,,,,,,,,,,,,,,,,AMSA08.jpg,AMNE13.jpg,AMNE05.jpg,AMSA09.jpg,AMSA09.jpg,MS,2,num_4,32,num_2,0.816766218981,,,2017_Sep_15_1809,60.0033680098,FEMA4ImagesEEG,001,101602,
AFNE01.JPG,AFNE01.JPG,AFNE01.JPG,AFNE01.JPG,AFNE01.JPG,AFNE01.JPG,,,,,5,9,59,4,,,,,,,,,,,,,,,,,,,AMSA05.jpg,AMNE01.jpg,AMSA16.jpg,AMNE03.jpg,AMSA16.jpg,MS,2,num_2,16,num_2,2.71670409152,,,2017_Sep_15_1809,60.0033680098,FEMA4ImagesEEG,001,101602,
,,,,,,,,,,,,,,,,,,,,,,,,,,,,,,,,,,,,,,,,,,,space,7.68312938046,2017_Sep_15_1809,60.0033680098,FEMA4ImagesEEG,001,101602,
AFNE01.JPG,AFNE01.JPG,AFNE01.JPG,AFNE01.JPG,AFNE01.JPG,AFNE01.JPG,,,,,,,,,0,0,0,8,,,,,,,,,,,,,,,AFSA14.jpg,AFSA09.jpg,AFNE11.jpg,AFNE18.jpg,AFNE11.jpg,FN,3,num_2,16,num_2,1.25006759609,,,2017_Sep_15_1809,60.0033680098,FEMA4ImagesEEG,001,101602,
AFNE01.JPG,AFNE01.JPG,AFNE01.JPG,AFNE01.JPG,AFNE01.JPG,AFNE01.JPG,,,,,,,,,0,1,1,3,,,,,,,,,,,,,,,AFNE05.jpg,AFSA08.jpg,AFNE16.jpg,AFSA12.jpg,AFSA12.jpg,FS,4,num_4,16,num_4,0.53354728804,,,2017_Sep_15_1809,60.0033680098,FEMA4ImagesEEG,001,101602,
AFNE01.JPG,AFNE01.JPG,AFNE01.JPG,AFNE01.JPG,AFNE01.JPG,AFNE01.JPG,,,,,,,,,0,2,2,5,,,,,,,,,,,,,,,AFSA16.jpg,AFSA17.jpg,AFNE10.jpg,AFNE13.jpg,AFSA16.jpg,FS,4,num_8,32,num_6,0.4835314597,,,2017_Sep_15_1809,60.0033680098,FEMA4ImagesEEG,001,101602,
AFNE01.JPG,AFNE01.JPG,AFNE01.JPG,AFNE01.JPG,AFNE01.JPG,AFNE01.JPG,,,,,,,,,0,3,3,9,,,,,,,,,,,,,,,AFNE04.jpg,AFNE17.jpg,AFSA01.jpg,AFSA17.jpg,AFSA17.jpg,FS,4,num_4,32,num_2,0.700094265398,,,2017_Sep_15_1809,60.0033680098,FEMA4ImagesEEG,001,101602,
AFNE01.JPG,AFNE01.JPG,AFNE01.JPG,AFNE01.JPG,AFNE01.JPG,AFNE01.JPG,,,,,,,,,0,4,4,6,,,,,,,,,,,,,,,AFNE16.jpg,AFNE05.jpg,AFSA15.jpg,AFSA08.jpg,AFNE16.jpg,FN,3,num_8,32,num_6,0.666635982459,,,2017_Sep_15_1809,60.0033680098,FEMA4ImagesEEG,001,101602,
AFNE01.JPG,AFNE01.JPG,AFNE01.JPG,AFNE01.JPG,AFNE01.JPG,AFNE01.JPG,,,,,,,,,0,5,5,7,,,,,,,,,,,,,,,AFSA05.jpg,AFSA18.jpg,AFNE12.jpg,AFNE06.jpg,AFSA18.jpg,FS,4,num_6,16,num_6,0.483515422558,,,2017_Sep_15_1809,60.0033680098,FEMA4ImagesEEG,001,101602,
AFNE01.JPG,AFNE01.JPG,AFNE01.JPG,AFNE01.JPG,AFNE01.JPG,AFNE01.JPG,,,,,,,,,0,6,6,2,,,,,,,,,,,,,,,AFSA13.jpg,AFNE06.jpg,AFNE02.jpg,AFSA03.jpg,AFNE06.jpg,FN,3,num_6,16,num_6,1.19996645069,,,2017_Sep_15_1809,60.0033680098,FEMA4ImagesEEG,001,101602,
AFNE01.JPG,AFNE01.JPG,AFNE01.JPG,AFNE01.JPG,AFNE01.JPG,AFNE01.JPG,,,,,,,,,0,7,7,4,,,,,,,,,,,,,,,AFSA07.jpg,AFNE13.jpg,AFNE05.jpg,AFSA18.jpg,AFSA07.jpg,FS,4,num_8,16,num_8,2.23335000128,,,2017_Sep_15_1809,60.0033680098,FEMA4ImagesEEG,001,101602,
AFNE01.JPG,AFNE01.JPG,AFNE01.JPG,AFNE01.JPG,AFNE01.JPG,AFNE01.JPG,,,,,,,,,0,8,8,0,,,,,,,,,,,,,,,AFSA03.jpg,AFNE09.jpg,AFSA14.jpg,AFNE16.jpg,AFSA14.jpg,FS,4,num_2,32,num_6,0.767089091707,,,2017_Sep_15_1809,60.0033680098,FEMA4ImagesEEG,001,101602,
AFNE01.JPG,AFNE01.JPG,AFNE01.JPG,AFNE01.JPG,AFNE01.JPG,AFNE01.JPG,,,,,,,,,0,9,9,1,,,,,,,,,,,,,,,AFNE10.jpg,AFSA09.jpg,AFSA13.jpg,AFNE12.jpg,AFSA13.jpg,FS,4,num_2,16,num_2,1.05013033259,,,2017_Sep_15_1809,60.0033680098,FEMA4ImagesEEG,001,101602,
AFNE01.JPG,AFNE01.JPG,AFNE01.JPG,AFNE01.JPG,AFNE01.JPG,AFNE01.JPG,,,,,,,,,1,0,10,7,,,,,,,,,,,,,,,AFSA16.jpg,AFNE14.jpg,AFSA10.jpg,AFNE11.jpg,AFSA16.jpg,FS,4,num_8,32,num_4,0.800103791524,,,2017_Sep_15_1809,60.0033680098,FEMA4ImagesEEG,001,101602,
AFNE01.JPG,AFNE01.JPG,AFNE01.JPG,AFNE01.JPG,AFNE01.JPG,AFNE01.JPG,,,,,,,,,1,1,11,9,,,,,,,,,,,,,,,AFSA03.jpg,AFNE05.jpg,AFNE14.jpg,AFSA19.jpg,AFNE05.jpg,FN,3,num_6,16,num_6,1.48344069021,,,2017_Sep_15_1809,60.0033680098,FEMA4ImagesEEG,001,101602,
AFNE01.JPG,AFNE01.JPG,AFNE01.JPG,AFNE01.JPG,AFNE01.JPG,AFNE01.JPG,,,,,,,,,1,2,12,8,,,,,,,,,,,,,,,AFSA19.jpg,AFNE06.jpg,AFNE09.jpg,AFSA07.jpg,AFNE06.jpg,FN,3,num_6,32,num_2,2.10004224139,,,2017_Sep_15_1809,60.0033680098,FEMA4ImagesEEG,001,101602,
AFNE01.JPG,AFNE01.JPG,AFNE01.JPG,AFNE01.JPG,AFNE01.JPG,AFNE01.JPG,,,,,,,,,1,3,13,1,,,,,,,,,,,,,,,AFSA13.jpg,AFNE02.jpg,AFSA19.jpg,AFNE17.jpg,AFNE02.jpg,FN,3,num_6,16,num_6,1.00011033448,,,2017_Sep_15_1809,60.0033680098,FEMA4ImagesEEG,001,101602,
AFNE01.JPG,AFNE01.JPG,AFNE01.JPG,AFNE01.JPG,AFNE01.JPG,AFNE01.JPG,,,,,,,,,1,4,14,5,,,,,,,,,,,,,,,AFSA13.jpg,AFNE05.jpg,AFSA12.jpg,AFNE02.jpg,AFSA13.jpg,FS,4,num_8,32,num_4,1.11675791186,,,2017_Sep_15_1809,60.0033680098,FEMA4ImagesEEG,001,101602,
AFNE01.JPG,AFNE01.JPG,AFNE01.JPG,AFNE01.JPG,AFNE01.JPG,AFNE01.JPG,,,,,,,,,1,5,15,3,,,,,,,,,,,,,,,AFSA11.jpg,AFNE20.jpg,AFNE15.jpg,AFSA14.jpg,AFSA14.jpg,FS,4,num_4,32,num_8,1.13342098077,,,2017_Sep_15_1809,60.0033680098,FEMA4ImagesEEG,001,101602,
AFNE01.JPG,AFNE01.JPG,AFNE01.JPG,AFNE01.JPG,AFNE01.JPG,AFNE01.JPG,,,,,,,,,1,6,16,4,,,,,,,,,,,,,,,AFNE03.jpg,AFSA12.jpg,AFSA17.jpg,AFNE11.jpg,AFNE03.jpg,FN,3,num_8,32,num_4,2.46640428016,,,2017_Sep_15_1809,60.0033680098,FEMA4ImagesEEG,001,101602,
AFNE01.JPG,AFNE01.JPG,AFNE01.JPG,AFNE01.JPG,AFNE01.JPG,AFNE01.JPG,,,,,,,,,1,7,17,0,,,,,,,,,,,,,,,AFNE10.jpg,AFSA08.jpg,AFNE16.jpg,AFSA15.jpg,AFNE16.jpg,FN,3,num_2,32,num_6,1.48346506641,,,2017_Sep_15_1809,60.0033680098,FEMA4ImagesEEG,001,101602,
AFNE01.JPG,AFNE01.JPG,AFNE01.JPG,AFNE01.JPG,AFNE01.JPG,AFNE01.JPG,,,,,,,,,1,8,18,6,,,,,,,,,,,,,,,AFNE14.jpg,AFSA01.jpg,AFSA19.jpg,AFNE01.jpg,AFSA19.jpg,FS,4,num_2,32,num_6,1.23338464089,,,2017_Sep_15_1809,60.0033680098,FEMA4ImagesEEG,001,101602,
AFNE01.JPG,AFNE01.JPG,AFNE01.JPG,AFNE01.JPG,AFNE01.JPG,AFNE01.JPG,,,,,,,,,1,9,19,2,,,,,,,,,,,,,,,AFSA20.jpg,AFNE12.jpg,AFNE04.jpg,AFSA08.jpg,AFNE04.jpg,FN,3,num_2,32,num_6,0.88345441781,,,2017_Sep_15_1809,60.0033680098,FEMA4ImagesEEG,001,101602,
AFNE01.JPG,AFNE01.JPG,AFNE01.JPG,AFNE01.JPG,AFNE01.JPG,AFNE01.JPG,,,,,,,,,2,0,20,3,,,,,,,,,,,,,,,AFSA15.jpg,AFNE15.jpg,AFNE06.jpg,AFSA12.jpg,AFNE06.jpg,FN,3,num_2,16,num_2,2.31669902406,,,2017_Sep_15_1809,60.0033680098,FEMA4ImagesEEG,001,101602,
AFNE01.JPG,AFNE01.JPG,AFNE01.JPG,AFNE01.JPG,AFNE01.JPG,AFNE01.JPG,,,,,,,,,2,1,21,9,,,,,,,,,,,,,,,AFSA12.jpg,AFSA06.jpg,AFNE12.jpg,AFNE11.jpg,AFNE11.jpg,FN,3,num_4,16,num_4,0.866784933954,,,2017_Sep_15_1809,60.0033680098,FEMA4ImagesEEG,001,101602,
AFNE01.JPG,AFNE01.JPG,AFNE01.JPG,AFNE01.JPG,AFNE01.JPG,AFNE01.JPG,,,,,,,,,2,2,22,7,,,,,,,,,,,,,,,AFNE10.jpg,AFSA13.jpg,AFSA18.jpg,AFNE05.jpg,AFNE05.jpg,FN,3,num_4,16,num_4,1.33344259858,,,2017_Sep_15_1809,60.0033680098,FEMA4ImagesEEG,001,101602,
AFNE01.JPG,AFNE01.JPG,AFNE01.JPG,AFNE01.JPG,AFNE01.JPG,AFNE01.JPG,,,,,,,,,2,3,23,1,,,,,,,,,,,,,,,AFSA19.jpg,AFNE19.jpg,AFSA17.jpg,AFNE16.jpg,AFNE16.jpg,FN,3,num_4,32,num_6,1.16672595008,,,2017_Sep_15_1809,60.0033680098,FEMA4ImagesEEG,001,101602,
AFNE01.JPG,AFNE01.JPG,AFNE01.JPG,AFNE01.JPG,AFNE01.JPG,AFNE01.JPG,,,,,,,,,2,4,24,5,,,,,,,,,,,,,,,AFNE02.jpg,AFSA20.jpg,AFNE12.jpg,AFSA15.jpg,AFSA15.jpg,FS,4,num_4,16,num_4,1.10007495689,,,2017_Sep_15_1809,60.0033680098,FEMA4ImagesEEG,001,101602,
AFNE01.JPG,AFNE01.JPG,AFNE01.JPG,AFNE01.JPG,AFNE01.JPG,AFNE01.JPG,,,,,,,,,2,5,25,2,,,,,,,,,,,,,,,AFSA19.jpg,AFNE02.jpg,AFSA08.jpg,AFNE13.jpg,AFSA08.jpg,FS,4,num_2,16,num_2,1.40005317866,,,2017_Sep_15_1809,60.0033680098,FEMA4ImagesEEG,001,101602,
AFNE01.JPG,AFNE01.JPG,AFNE01.JPG,AFNE01.JPG,AFNE01.JPG,AFNE01.JPG,,,,,,,,,2,6,26,0,,,,,,,,,,,,,,,AFNE17.jpg,AFSA15.jpg,AFSA08.jpg,AFNE07.jpg,AFSA15.jpg,FS,4,num_6,16,num_6,1.38315661112,,,2017_Sep_15_1809,60.0033680098,FEMA4ImagesEEG,001,101602,
AFNE01.JPG,AFNE01.JPG,AFNE01.JPG,AFNE01.JPG,AFNE01.JPG,AFNE01.JPG,,,,,,,,,2,7,27,8,,,,,,,,,,,,,,,AFSA13.jpg,AFNE13.jpg,AFSA11.jpg,AFNE11.jpg,AFSA11.jpg,FS,4,num_2,16,num_2,2.66665779287,,,2017_Sep_15_1809,60.0033680098,FEMA4ImagesEEG,001,101602,
AFNE01.JPG,AFNE01.JPG,AFNE01.JPG,AFNE01.JPG,AFNE01.JPG,AFNE01.JPG,,,,,,,,,2,8,28,4,,,,,,,,,,,,,,,AFSA05.jpg,AFNE05.jpg,AFNE07.jpg,AFSA09.jpg,AFNE05.jpg,FN,3,num_6,16,num_6,1.61671765894,,,2017_Sep_15_1809,60.0033680098,FEMA4ImagesEEG,001,101602,
AFNE01.JPG,AFNE01.JPG,AFNE01.JPG,AFNE01.JPG,AFNE01.JPG,AFNE01.JPG,,,,,,,,,2,9,29,6,,,,,,,,,,,,,,,AFNE16.jpg,AFSA10.jpg,AFNE05.jpg,AFSA05.jpg,AFSA05.jpg,FS,4,num_4,16,num_4,0.933427908923,,,2017_Sep_15_1809,60.0033680098,FEMA4ImagesEEG,001,101602,
AFNE01.JPG,AFNE01.JPG,AFNE01.JPG,AFNE01.JPG,AFNE01.JPG,AFNE01.JPG,,,,,,,,,3,0,30,1,,,,,,,,,,,,,,,AFSA06.jpg,AFSA07.jpg,AFNE15.jpg,AFNE07.jpg,AFNE07.jpg,FN,3,num_4,16,num_4,0.883432607632,,,2017_Sep_15_1809,60.0033680098,FEMA4ImagesEEG,001,101602,
AFNE01.JPG,AFNE01.JPG,AFNE01.JPG,AFNE01.JPG,AFNE01.JPG,AFNE01.JPG,,,,,,,,,3,1,31,0,,,,,,,,,,,,,,,AFNE01.jpg,AFSA10.jpg,AFSA02.jpg,AFNE10.jpg,AFNE01.jpg,FN,3,num_8,32,num_2,1.71669671452,,,2017_Sep_15_1809,60.0033680098,FEMA4ImagesEEG,001,101602,
AFNE01.JPG,AFNE01.JPG,AFNE01.JPG,AFNE01.JPG,AFNE01.JPG,AFNE01.JPG,,,,,,,,,3,2,32,2,,,,,,,,,,,,,,,AFNE12.jpg,AFSA10.jpg,AFSA14.jpg,AFNE19.jpg,AFSA10.jpg,FS,4,num_6,16,num_6,1.15010810527,,,2017_Sep_15_1809,60.0033680098,FEMA4ImagesEEG,001,101602,
AFNE01.JPG,AFNE01.JPG,AFNE01.JPG,AFNE01.JPG,AFNE01.JPG,AFNE01.JPG,,,,,,,,,3,3,33,9,,,,,,,,,,,,,,,AFNE12.jpg,AFNE14.jpg,AFSA09.jpg,AFSA17.jpg,AFNE12.jpg,FN,3,num_8,16,num_8,0.650132962735,,,2017_Sep_15_1809,60.0033680098,FEMA4ImagesEEG,001,101602,
AFNE01.JPG,AFNE01.JPG,AFNE01.JPG,AFNE01.JPG,AFNE01.JPG,AFNE01.JPG,,,,,,,,,3,4,34,7,,,,,,,,,,,,,,,AFSA09.jpg,AFNE07.jpg,AFNE19.jpg,AFSA08.jpg,AFSA09.jpg,FS,4,num_8,32,num_2,1.216743703,,,2017_Sep_15_1809,60.0033680098,FEMA4ImagesEEG,001,101602,
AFNE01.JPG,AFNE01.JPG,AFNE01.JPG,AFNE01.JPG,AFNE01.JPG,AFNE01.JPG,,,,,,,,,3,5,35,4,,,,,,,,,,,,,,,AFNE14.jpg,AFNE11.jpg,AFSA20.jpg,AFSA01.jpg,AFNE11.jpg,FN,3,num_6,16,num_6,0.783467664383,,,2017_Sep_15_1809,60.0033680098,FEMA4ImagesEEG,001,101602,
AFNE01.JPG,AFNE01.JPG,AFNE01.JPG,AFNE01.JPG,AFNE01.JPG,AFNE01.JPG,,,,,,,,,3,6,36,5,,,,,,,,,,,,,,,AFSA16.jpg,AFNE19.jpg,AFNE04.jpg,AFSA18.jpg,AFSA18.jpg,FS,4,num_4,16,num_4,1.61670835735,,,2017_Sep_15_1809,60.0033680098,FEMA4ImagesEEG,001,101602,
AFNE01.JPG,AFNE01.JPG,AFNE01.JPG,AFNE01.JPG,AFNE01.JPG,AFNE01.JPG,,,,,,,,,3,7,37,6,,,,,,,,,,,,,,,AFSA20.jpg,AFNE16.jpg,AFNE12.jpg,AFSA12.jpg,AFSA12.jpg,FS,4,num_4,16,num_4,0.750156280352,,,2017_Sep_15_1809,60.0033680098,FEMA4ImagesEEG,001,101602,
AFNE01.JPG,AFNE01.JPG,AFNE01.JPG,AFNE01.JPG,AFNE01.JPG,AFNE01.JPG,,,,,,,,,3,8,38,3,,,,,,,,,,,,,,,AFNE03.jpg,AFSA13.jpg,AFSA09.jpg,AFNE13.jpg,AFSA09.jpg,FS,4,num_2,16,num_2,0.983547336189,,,2017_Sep_15_1809,60.0033680098,FEMA4ImagesEEG,001,101602,
AFNE01.JPG,AFNE01.JPG,AFNE01.JPG,AFNE01.JPG,AFNE01.JPG,AFNE01.JPG,,,,,,,,,3,9,39,8,,,,,,,,,,,,,,,AFSA04.jpg,AFSA15.jpg,AFNE12.jpg,AFNE14.jpg,AFNE14.jpg,FN,3,num_4,16,num_4,1.68349213689,,,2017_Sep_15_1809,60.0033680098,FEMA4ImagesEEG,001,101602,
AFNE01.JPG,AFNE01.JPG,AFNE01.JPG,AFNE01.JPG,AFNE01.JPG,AFNE01.JPG,,,,,,,,,4,0,40,7,,,,,,,,,,,,,,,AFSA08.jpg,AFNE03.jpg,AFSA09.jpg,AFNE17.jpg,AFNE17.jpg,FN,3,num_4,32,num_6,2.15000675153,,,2017_Sep_15_1809,60.0033680098,FEMA4ImagesEEG,001,101602,
AFNE01.JPG,AFNE01.JPG,AFNE01.JPG,AFNE01.JPG,AFNE01.JPG,AFNE01.JPG,,,,,,,,,4,1,41,5,,,,,,,,,,,,,,,AFNE19.jpg,AFSA07.jpg,AFSA05.jpg,AFNE09.jpg,AFSA07.jpg,FS,4,num_6,16,num_6,1.99996664305,,,2017_Sep_15_1809,60.0033680098,FEMA4ImagesEEG,001,101602,
AFNE01.JPG,AFNE01.JPG,AFNE01.JPG,AFNE01.JPG,AFNE01.JPG,AFNE01.JPG,,,,,,,,,4,2,42,8,,,,,,,,,,,,,,,AFSA03.jpg,AFSA13.jpg,AFNE10.jpg,AFNE09.jpg,AFSA03.jpg,FS,4,num_8,16,num_8,3.09996013204,,,2017_Sep_15_1809,60.0033680098,FEMA4ImagesEEG,001,101602,
AFNE01.JPG,AFNE01.JPG,AFNE01.JPG,AFNE01.JPG,AFNE01.JPG,AFNE01.JPG,,,,,,,,,4,3,43,3,,,,,,,,,,,,,,,AFNE15.jpg,AFNE07.jpg,AFSA19.jpg,AFSA02.jpg,AFSA19.jpg,FS,4,num_2,32,num_4,3.04981600773,,,2017_Sep_15_1809,60.0033680098,FEMA4ImagesEEG,001,101602,
AFNE01.JPG,AFNE01.JPG,AFNE01.JPG,AFNE01.JPG,AFNE01.JPG,AFNE01.JPG,,,,,,,,,4,4,44,4,,,,,,,,,,,,,,,AFNE04.jpg,AFSA14.jpg,AFSA12.jpg,AFNE16.jpg,AFSA12.jpg,FS,4,num_2,16,num_2,1.26668993081,,,2017_Sep_15_1809,60.0033680098,FEMA4ImagesEEG,001,101602,
AFNE01.JPG,AFNE01.JPG,AFNE01.JPG,AFNE01.JPG,AFNE01.JPG,AFNE01.JPG,,,,,,,,,4,5,45,6,,,,,,,,,,,,,,,AFSA05.jpg,AFSA13.jpg,AFNE03.jpg,AFNE10.jpg,AFSA05.jpg,FS,4,num_8,32,num_2,0.900105940411,,,2017_Sep_15_1809,60.0033680098,FEMA4ImagesEEG,001,101602,
AFNE01.JPG,AFNE01.JPG,AFNE01.JPG,AFNE01.JPG,AFNE01.JPG,AFNE01.JPG,,,,,,,,,4,6,46,1,,,,,,,,,,,,,,,AFNE19.jpg,AFSA18.jpg,AFSA05.jpg,AFNE11.jpg,AFNE11.jpg,FN,3,num_4,16,num_4,1.08308377117,,,2017_Sep_15_1809,60.0033680098,FEMA4ImagesEEG,001,101602,
AFNE01.JPG,AFNE01.JPG,AFNE01.JPG,AFNE01.JPG,AFNE01.JPG,AFNE01.JPG,,,,,,,,,4,7,47,0,,,,,,,,,,,,,,,AFSA20.jpg,AFNE06.jpg,AFNE18.jpg,AFSA10.jpg,AFNE06.jpg,FN,3,num_6,32,num_8,1.70007919054,,,2017_Sep_15_1809,60.0033680098,FEMA4ImagesEEG,001,101602,
AFNE01.JPG,AFNE01.JPG,AFNE01.JPG,AFNE01.JPG,AFNE01.JPG,AFNE01.JPG,,,,,,,,,4,8,48,9,,,,,,,,,,,,,,,AFNE10.jpg,AFSA07.jpg,AFSA14.jpg,AFNE19.jpg,AFSA14.jpg,FS,4,num_2,16,num_2,3.68348251469,,,2017_Sep_15_1809,60.0033680098,FEMA4ImagesEEG,001,101602,
AFNE01.JPG,AFNE01.JPG,AFNE01.JPG,AFNE01.JPG,AFNE01.JPG,AFNE01.JPG,,,,,,,,,4,9,49,2,,,,,,,,,,,,,,,AFNE04.jpg,AFSA16.jpg,AFNE06.jpg,AFSA15.jpg,AFSA15.jpg,FS,4,num_4,32,num_2,2.69999002502,,,2017_Sep_15_1809,60.0033680098,FEMA4ImagesEEG,001,101602,
AFNE01.JPG,AFNE01.JPG,AFNE01.JPG,AFNE01.JPG,AFNE01.JPG,AFNE01.JPG,,,,,,,,,5,0,50,2,,,,,,,,,,,,,,,AFSA10.jpg,AFNE05.jpg,AFNE19.jpg,AFSA17.jpg,AFSA10.jpg,FS,4,num_8,16,num_8,2.23330509756,,,2017_Sep_15_1809,60.0033680098,FEMA4ImagesEEG,001,101602,
AFNE01.JPG,AFNE01.JPG,AFNE01.JPG,AFNE01.JPG,AFNE01.JPG,AFNE01.JPG,,,,,,,,,5,1,51,1,,,,,,,,,,,,,,,AFNE06.jpg,AFSA03.jpg,AFNE16.jpg,AFSA18.jpg,AFNE16.jpg,FN,3,num_2,16,num_2,2.11669312231,,,2017_Sep_15_1809,60.0033680098,FEMA4ImagesEEG,001,101602,
AFNE01.JPG,AFNE01.JPG,AFNE01.JPG,AFNE01.JPG,AFNE01.JPG,AFNE01.JPG,,,,,,,,,5,2,52,3,,,,,,,,,,,,,,,AFNE13.jpg,AFSA07.jpg,AFNE06.jpg,AFSA18.jpg,AFNE13.jpg,FN,3,num_8,16,num_8,1.35009668698,,,2017_Sep_15_1809,60.0033680098,FEMA4ImagesEEG,001,101602,
AFNE01.JPG,AFNE01.JPG,AFNE01.JPG,AFNE01.JPG,AFNE01.JPG,AFNE01.JPG,,,,,,,,,5,3,53,0,,,,,,,,,,,,,,,AFSA15.jpg,AFSA11.jpg,AFNE18.jpg,AFNE01.jpg,AFSA15.jpg,FS,4,num_8,16,num_8,1.13340494363,,,2017_Sep_15_1809,60.0033680098,FEMA4ImagesEEG,001,101602,
AFNE01.JPG,AFNE01.JPG,AFNE01.JPG,AFNE01.JPG,AFNE01.JPG,AFNE01.JPG,,,,,,,,,5,4,54,6,,,,,,,,,,,,,,,AFSA07.jpg,AFSA18.jpg,AFNE17.jpg,AFNE05.jpg,AFSA18.jpg,FS,4,num_6,16,num_6,2.64993859432,,,2017_Sep_15_1809,60.0033680098,FEMA4ImagesEEG,001,101602,
AFNE01.JPG,AFNE01.JPG,AFNE01.JPG,AFNE01.JPG,AFNE01.JPG,AFNE01.JPG,,,,,,,,,5,5,55,7,,,,,,,,,,,,,,,AFNE17.jpg,AFNE11.jpg,AFSA01.jpg,AFSA20.jpg,AFSA20.jpg,FS,4,num_4,32,num_2,1.56670664134,,,2017_Sep_15_1809,60.0033680098,FEMA4ImagesEEG,001,101602,
AFNE01.JPG,AFNE01.JPG,AFNE01.JPG,AFNE01.JPG,AFNE01.JPG,AFNE01.JPG,,,,,,,,,5,6,56,8,,,,,,,,,,,,,,,AFNE02.jpg,AFSA19.jpg,AFSA10.jpg,AFNE20.jpg,AFNE20.jpg,FN,3,num_4,16,num_4,2.00002116896,,,2017_Sep_15_1809,60.0033680098,FEMA4ImagesEEG,001,101602,
AFNE01.JPG,AFNE01.JPG,AFNE01.JPG,AFNE01.JPG,AFNE01.JPG,AFNE01.JPG,,,,,,,,,5,7,57,4,,,,,,,,,,,,,,,AFSA14.jpg,AFNE19.jpg,AFSA20.jpg,AFNE14.jpg,AFNE14.jpg,FN,3,num_4,16,num_4,2.13336132327,,,2017_Sep_15_1809,60.0033680098,FEMA4ImagesEEG,001,101602,
AFNE01.JPG,AFNE01.JPG,AFNE01.JPG,AFNE01.JPG,AFNE01.JPG,AFNE01.JPG,,,,,,,,,5,8,58,5,,,,,,,,,,,,,,,AFNE16.jpg,AFSA17.jpg,AFNE19.jpg,AFSA01.jpg,AFNE19.jpg,FN,3,num_2,32,num_8,1.14981077961,,,2017_Sep_15_1809,60.0033680098,FEMA4ImagesEEG,001,101602,
AFNE01.JPG,AFNE01.JPG,AFNE01.JPG,AFNE01.JPG,AFNE01.JPG,AFNE01.JPG,,,,,,,,,5,9,59,9,,,,,,,,,,,,,,,AFNE11.jpg,AFSA10.jpg,AFNE01.jpg,AFSA04.jpg,AFNE11.jpg,FN,3,num_8,16,num_8,2.00020751869,,,2017_Sep_15_1809,60.0033680098,FEMA4ImagesEEG,001,101602,
,,,,,,,,,,,,,,,,,,,,,,,,,,,,,,,,,,,,,,,,,,,space,40.5803297395,2017_Sep_15_1809,60.0033680098,FEMA4ImagesEEG,001,101602,
AFNE01.JPG,AFNE01.JPG,AFNE01.JPG,AFNE01.JPG,AFNE01.JPG,AFNE01.JPG,,,,,,,,,,,,,0,0,0,6,,,,,,,,,,,AMSA01.jpg,AMSA13.jpg,AMNE06.jpg,AMNE20.jpg,AMSA01.jpg,MS,2,num_8,16,num_8,0.566795807332,,,2017_Sep_15_1809,60.0033680098,FEMA4ImagesEEG,001,101602,
AFNE01.JPG,AFNE01.JPG,AFNE01.JPG,AFNE01.JPG,AFNE01.JPG,AFNE01.JPG,,,,,,,,,,,,,0,1,1,1,,,,,,,,,,,AMSA03.jpg,AMSA06.jpg,AMNE07.jpg,AMNE12.jpg,AMNE07.jpg,MN,1,num_2,32,num_4,1.06676517637,,,2017_Sep_15_1809,60.0033680098,FEMA4ImagesEEG,001,101602,
AFNE01.JPG,AFNE01.JPG,AFNE01.JPG,AFNE01.JPG,AFNE01.JPG,AFNE01.JPG,,,,,,,,,,,,,0,2,2,8,,,,,,,,,,,AMSA03.jpg,AMNE05.jpg,AMSA12.jpg,AMNE15.jpg,AMSA12.jpg,MS,2,num_2,32,num_6,0.983410701156,,,2017_Sep_15_1809,60.0033680098,FEMA4ImagesEEG,001,101602,
AFNE01.JPG,AFNE01.JPG,AFNE01.JPG,AFNE01.JPG,AFNE01.JPG,AFNE01.JPG,,,,,,,,,,,,,0,3,3,0,,,,,,,,,,,AMNE15.jpg,AMNE13.jpg,AMSA02.jpg,AMSA01.jpg,AMSA01.jpg,MS,2,num_4,16,num_4,0.533382107038,,,2017_Sep_15_1809,60.0033680098,FEMA4ImagesEEG,001,101602,
AFNE01.JPG,AFNE01.JPG,AFNE01.JPG,AFNE01.JPG,AFNE01.JPG,AFNE01.JPG,,,,,,,,,,,,,0,4,4,4,,,,,,,,,,,AMNE19.jpg,AMSA18.jpg,AMSA10.jpg,AMNE02.jpg,AMSA10.jpg,MS,2,num_2,16,num_2,1.08342247223,,,2017_Sep_15_1809,60.0033680098,FEMA4ImagesEEG,001,101602,
AFNE01.JPG,AFNE01.JPG,AFNE01.JPG,AFNE01.JPG,AFNE01.JPG,AFNE01.JPG,,,,,,,,,,,,,0,5,5,9,,,,,,,,,,,AMSA15.jpg,AMNE02.jpg,AMNE06.jpg,AMSA06.jpg,AMSA06.jpg,MS,2,num_4,32,num_2,1.11673866748,,,2017_Sep_15_1809,60.0033680098,FEMA4ImagesEEG,001,101602,
AFNE01.JPG,AFNE01.JPG,AFNE01.JPG,AFNE01.JPG,AFNE01.JPG,AFNE01.JPG,,,,,,,,,,,,,0,6,6,3,,,,,,,,,,,AMSA09.jpg,AMSA13.jpg,AMNE12.jpg,AMNE03.jpg,AMSA09.jpg,MS,2,num_8,16,num_8,0.766725693364,,,2017_Sep_15_1809,60.0033680098,FEMA4ImagesEEG,001,101602,
AFNE01.JPG,AFNE01.JPG,AFNE01.JPG,AFNE01.JPG,AFNE01.JPG,AFNE01.JPG,,,,,,,,,,,,,0,7,7,2,,,,,,,,,,,AMSA11.jpg,AMSA13.jpg,AMNE19.jpg,AMNE20.jpg,AMNE19.jpg,MN,1,num_2,16,num_2,1.20008704881,,,2017_Sep_15_1809,60.0033680098,FEMA4ImagesEEG,001,101602,
AFNE01.JPG,AFNE01.JPG,AFNE01.JPG,AFNE01.JPG,AFNE01.JPG,AFNE01.JPG,,,,,,,,,,,,,0,8,8,5,,,,,,,,,,,AMNE10.jpg,AMSA08.jpg,AMSA07.jpg,AMNE15.jpg,AMSA07.jpg,MS,2,num_2,32,num_6,0.733432270819,,,2017_Sep_15_1809,60.0033680098,FEMA4ImagesEEG,001,101602,
AFNE01.JPG,AFNE01.JPG,AFNE01.JPG,AFNE01.JPG,AFNE01.JPG,AFNE01.JPG,,,,,,,,,,,,,0,9,9,7,,,,,,,,,,,AMSA01.jpg,AMSA12.jpg,AMNE01.jpg,AMNE10.jpg,AMNE10.jpg,MN,1,num_4,32,num_6,0.833488624776,,,2017_Sep_15_1809,60.0033680098,FEMA4ImagesEEG,001,101602,
AFNE01.JPG,AFNE01.JPG,AFNE01.JPG,AFNE01.JPG,AFNE01.JPG,AFNE01.JPG,,,,,,,,,,,,,1,0,10,4,,,,,,,,,,,AMSA14.jpg,AMNE18.jpg,AMNE09.jpg,AMSA15.jpg,AMSA15.jpg,MS,2,num_4,16,num_4,0.766808123561,,,2017_Sep_15_1809,60.0033680098,FEMA4ImagesEEG,001,101602,
AFNE01.JPG,AFNE01.JPG,AFNE01.JPG,AFNE01.JPG,AFNE01.JPG,AFNE01.JPG,,,,,,,,,,,,,1,1,11,1,,,,,,,,,,,AMSA14.jpg,AMSA19.jpg,AMNE08.jpg,AMNE03.jpg,AMSA14.jpg,MS,2,num_8,16,num_8,1.61673946911,,,2017_Sep_15_1809,60.0033680098,FEMA4ImagesEEG,001,101602,
AFNE01.JPG,AFNE01.JPG,AFNE01.JPG,AFNE01.JPG,AFNE01.JPG,AFNE01.JPG,,,,,,,,,,,,,1,2,12,7,,,,,,,,,,,AMSA04.jpg,AMSA14.jpg,AMNE08.jpg,AMNE11.jpg,AMSA14.jpg,MS,2,num_6,16,num_6,0.683163699461,,,2017_Sep_15_1809,60.0033680098,FEMA4ImagesEEG,001,101602,
AFNE01.JPG,AFNE01.JPG,AFNE01.JPG,AFNE01.JPG,AFNE01.JPG,AFNE01.JPG,,,,,,,,,,,,,1,3,13,9,,,,,,,,,,,AMNE04.jpg,AMSA07.jpg,AMNE20.jpg,AMSA15.jpg,AMNE04.jpg,MN,1,num_8,16,num_8,1.08341028425,,,2017_Sep_15_1809,60.0033680098,FEMA4ImagesEEG,001,101602,
AFNE01.JPG,AFNE01.JPG,AFNE01.JPG,AFNE01.JPG,AFNE01.JPG,AFNE01.JPG,,,,,,,,,,,,,1,4,14,0,,,,,,,,,,,AMNE04.jpg,AMSA11.jpg,AMNE01.jpg,AMSA03.jpg,AMNE01.jpg,MN,1,num_2,16,num_2,1.51671422692,,,2017_Sep_15_1809,60.0033680098,FEMA4ImagesEEG,001,101602,
AFNE01.JPG,AFNE01.JPG,AFNE01.JPG,AFNE01.JPG,AFNE01.JPG,AFNE01.JPG,,,,,,,,,,,,,1,5,15,3,,,,,,,,,,,AMSA09.jpg,AMNE15.jpg,AMSA04.jpg,AMNE11.jpg,AMSA04.jpg,MS,2,num_2,16,num_2,0.850105186459,,,2017_Sep_15_1809,60.0033680098,FEMA4ImagesEEG,001,101602,
AFNE01.JPG,AFNE01.JPG,AFNE01.JPG,AFNE01.JPG,AFNE01.JPG,AFNE01.JPG,,,,,,,,,,,,,1,6,16,6,,,,,,,,,,,AMNE01.jpg,AMNE13.jpg,AMSA17.jpg,AMSA15.jpg,AMNE13.jpg,MN,1,num_6,16,num_6,1.35011464823,,,2017_Sep_15_1809,60.0033680098,FEMA4ImagesEEG,001,101602,
AFNE01.JPG,AFNE01.JPG,AFNE01.JPG,AFNE01.JPG,AFNE01.JPG,AFNE01.JPG,,,,,,,,,,,,,1,7,17,5,,,,,,,,,,,AMNE05.jpg,AMNE01.jpg,AMSA20.jpg,AMSA08.jpg,AMSA08.jpg,MS,2,num_4,16,num_4,1.1667310819,,,2017_Sep_15_1809,60.0033680098,FEMA4ImagesEEG,001,101602,
AFNE01.JPG,AFNE01.JPG,AFNE01.JPG,AFNE01.JPG,AFNE01.JPG,AFNE01.JPG,,,,,,,,,,,,,1,8,18,2,,,,,,,,,,,AMSA04.jpg,AMNE02.jpg,AMNE01.jpg,AMSA03.jpg,AMSA04.jpg,MS,2,num_8,32,num_2,1.05013097404,,,2017_Sep_15_1809,60.0033680098,FEMA4ImagesEEG,001,101602,
AFNE01.JPG,AFNE01.JPG,AFNE01.JPG,AFNE01.JPG,AFNE01.JPG,AFNE01.JPG,,,,,,,,,,,,,1,9,19,8,,,,,,,,,,,AMNE10.jpg,AMSA16.jpg,AMNE20.jpg,AMSA15.jpg,AMNE20.jpg,MN,1,num_2,16,num_2,0.783444892149,,,2017_Sep_15_1809,60.0033680098,FEMA4ImagesEEG,001,101602,
AFNE01.JPG,AFNE01.JPG,AFNE01.JPG,AFNE01.JPG,AFNE01.JPG,AFNE01.JPG,,,,,,,,,,,,,2,0,20,1,,,,,,,,,,,AMSA13.jpg,AMNE19.jpg,AMNE20.jpg,AMSA04.jpg,AMNE19.jpg,MN,1,num_6,16,num_6,1.15036598011,,,2017_Sep_15_1809,60.0033680098,FEMA4ImagesEEG,001,101602,
AFNE01.JPG,AFNE01.JPG,AFNE01.JPG,AFNE01.JPG,AFNE01.JPG,AFNE01.JPG,,,,,,,,,,,,,2,1,21,2,,,,,,,,,,,AMNE18.jpg,AMNE13.jpg,AMSA16.jpg,AMSA18.jpg,AMNE13.jpg,MN,1,num_6,32,num_8,1.78337817825,,,2017_Sep_15_1809,60.0033680098,FEMA4ImagesEEG,001,101602,
AFNE01.JPG,AFNE01.JPG,AFNE01.JPG,AFNE01.JPG,AFNE01.JPG,AFNE01.JPG,,,,,,,,,,,,,2,2,22,9,,,,,,,,,,,AMNE07.jpg,AMSA04.jpg,AMSA14.jpg,AMNE01.jpg,AMSA04.jpg,MS,2,num_6,16,num_6,0.816777765518,,,2017_Sep_15_1809,60.0033680098,FEMA4ImagesEEG,001,101602,
AFNE01.JPG,AFNE01.JPG,AFNE01.JPG,AFNE01.JPG,AFNE01.JPG,AFNE01.JPG,,,,,,,,,,,,,2,3,23,6,,,,,,,,,,,AMSA18.jpg,AMNE12.jpg,AMNE01.jpg,AMSA08.jpg,AMNE12.jpg,MN,1,num_6,16,num_6,0.950082638534,,,2017_Sep_15_1809,60.0033680098,FEMA4ImagesEEG,001,101602,
AFNE01.JPG,AFNE01.JPG,AFNE01.JPG,AFNE01.JPG,AFNE01.JPG,AFNE01.JPG,,,,,,,,,,,,,2,4,24,0,,,,,,,,,,,AMNE16.jpg,AMSA13.jpg,AMNE13.jpg,AMSA02.jpg,AMSA02.jpg,MS,2,num_4,16,num_4,0.683473213343,,,2017_Sep_15_1809,60.0033680098,FEMA4ImagesEEG,001,101602,
AFNE01.JPG,AFNE01.JPG,AFNE01.JPG,AFNE01.JPG,AFNE01.JPG,AFNE01.JPG,,,,,,,,,,,,,2,5,25,8,,,,,,,,,,,AMNE05.jpg,AMSA17.jpg,AMNE10.jpg,AMSA13.jpg,AMSA17.jpg,MS,2,num_6,16,num_6,0.850108393934,,,2017_Sep_15_1809,60.0033680098,FEMA4ImagesEEG,001,101602,
AFNE01.JPG,AFNE01.JPG,AFNE01.JPG,AFNE01.JPG,AFNE01.JPG,AFNE01.JPG,,,,,,,,,,,,,2,6,26,3,,,,,,,,,,,AMNE11.jpg,AMNE13.jpg,AMSA19.jpg,AMSA05.jpg,AMNE11.jpg,MN,1,num_8,16,num_8,1.15009944537,,,2017_Sep_15_1809,60.0033680098,FEMA4ImagesEEG,001,101602,
AFNE01.JPG,AFNE01.JPG,AFNE01.JPG,AFNE01.JPG,AFNE01.JPG,AFNE01.JPG,,,,,,,,,,,,,2,7,27,4,,,,,,,,,,,AMNE09.jpg,AMSA12.jpg,AMSA02.jpg,AMNE07.jpg,AMSA12.jpg,MS,2,num_6,32,num_8,2.78334065154,,,2017_Sep_15_1809,60.0033680098,FEMA4ImagesEEG,001,101602,
AFNE01.JPG,AFNE01.JPG,AFNE01.JPG,AFNE01.JPG,AFNE01.JPG,AFNE01.JPG,,,,,,,,,,,,,2,8,28,7,,,,,,,,,,,AMNE10.jpg,AMNE09.jpg,AMSA11.jpg,AMSA05.jpg,AMSA05.jpg,MS,2,num_4,16,num_4,1.35016564606,,,2017_Sep_15_1809,60.0033680098,FEMA4ImagesEEG,001,101602,
AFNE01.JPG,AFNE01.JPG,AFNE01.JPG,AFNE01.JPG,AFNE01.JPG,AFNE01.JPG,,,,,,,,,,,,,2,9,29,5,,,,,,,,,,,AMSA16.jpg,AMNE16.jpg,AMNE08.jpg,AMSA10.jpg,AMNE08.jpg,MN,1,num_2,32,num_6,1.20010180282,,,2017_Sep_15_1809,60.0033680098,FEMA4ImagesEEG,001,101602,
AFNE01.JPG,AFNE01.JPG,AFNE01.JPG,AFNE01.JPG,AFNE01.JPG,AFNE01.JPG,,,,,,,,,,,,,3,0,30,6,,,,,,,,,,,AMNE05.jpg,AMSA15.jpg,AMSA05.jpg,AMNE13.jpg,AMNE05.jpg,MN,1,num_8,16,num_8,1.26669345913,,,2017_Sep_15_1809,60.0033680098,FEMA4ImagesEEG,001,101602,
AFNE01.JPG,AFNE01.JPG,AFNE01.JPG,AFNE01.JPG,AFNE01.JPG,AFNE01.JPG,,,,,,,,,,,,,3,1,31,0,,,,,,,,,,,AMSA13.jpg,AMNE17.jpg,AMNE14.jpg,AMSA12.jpg,AMNE17.jpg,MN,1,num_6,32,num_2,2.2667223257,,,2017_Sep_15_1809,60.0033680098,FEMA4ImagesEEG,001,101602,
AFNE01.JPG,AFNE01.JPG,AFNE01.JPG,AFNE01.JPG,AFNE01.JPG,AFNE01.JPG,,,,,,,,,,,,,3,2,32,9,,,,,,,,,,,AMNE12.jpg,AMSA04.jpg,AMSA05.jpg,AMNE01.jpg,AMSA04.jpg,MS,2,num_6,16,num_6,1.53336959821,,,2017_Sep_15_1809,60.0033680098,FEMA4ImagesEEG,001,101602,
AFNE01.JPG,AFNE01.JPG,AFNE01.JPG,AFNE01.JPG,AFNE01.JPG,AFNE01.JPG,,,,,,,,,,,,,3,3,33,2,,,,,,,,,,,AMNE19.jpg,AMNE03.jpg,AMSA04.jpg,AMSA20.jpg,AMSA04.jpg,MS,2,num_2,16,num_2,0.366786377272,,,2017_Sep_15_1809,60.0033680098,FEMA4ImagesEEG,001,101602,
AFNE01.JPG,AFNE01.JPG,AFNE01.JPG,AFNE01.JPG,AFNE01.JPG,AFNE01.JPG,,,,,,,,,,,,,3,4,34,8,,,,,,,,,,,AMNE06.jpg,AMSA07.jpg,AMNE15.jpg,AMSA09.jpg,AMNE06.jpg,MN,1,num_8,16,num_8,0.98346169875,,,2017_Sep_15_1809,60.0033680098,FEMA4ImagesEEG,001,101602,
AFNE01.JPG,AFNE01.JPG,AFNE01.JPG,AFNE01.JPG,AFNE01.JPG,AFNE01.JPG,,,,,,,,,,,,,3,5,35,5,,,,,,,,,,,AMSA04.jpg,AMNE12.jpg,AMNE10.jpg,AMSA01.jpg,AMNE10.jpg,MN,1,num_2,32,num_6,1.5667448095,,,2017_Sep_15_1809,60.0033680098,FEMA4ImagesEEG,001,101602,
AFNE01.JPG,AFNE01.JPG,AFNE01.JPG,AFNE01.JPG,AFNE01.JPG,AFNE01.JPG,,,,,,,,,,,,,3,6,36,3,,,,,,,,,,,AMNE10.jpg,AMNE16.jpg,AMSA15.jpg,AMSA20.jpg,AMSA15.jpg,MS,2,num_2,16,num_2,0.766753597884,,,2017_Sep_15_1809,60.0033680098,FEMA4ImagesEEG,001,101602,
AFNE01.JPG,AFNE01.JPG,AFNE01.JPG,AFNE01.JPG,AFNE01.JPG,AFNE01.JPG,,,,,,,,,,,,,3,7,37,1,,,,,,,,,,,AMSA02.jpg,AMNE05.jpg,AMSA10.jpg,AMNE17.jpg,AMNE05.jpg,MN,1,num_6,16,num_6,0.883433890529,,,2017_Sep_15_1809,60.0033680098,FEMA4ImagesEEG,001,101602,
AFNE01.JPG,AFNE01.JPG,AFNE01.JPG,AFNE01.JPG,AFNE01.JPG,AFNE01.JPG,,,,,,,,,,,,,3,8,38,7,,,,,,,,,,,AMNE04.jpg,AMNE13.jpg,AMSA13.jpg,AMSA10.jpg,AMNE04.jpg,MN,1,num_8,16,num_8,1.4337350172,,,2017_Sep_15_1809,60.0033680098,FEMA4ImagesEEG,001,101602,
AFNE01.JPG,AFNE01.JPG,AFNE01.JPG,AFNE01.JPG,AFNE01.JPG,AFNE01.JPG,,,,,,,,,,,,,3,9,39,4,,,,,,,,,,,AMSA18.jpg,AMNE12.jpg,AMSA10.jpg,AMNE02.jpg,AMSA18.jpg,MS,2,num_8,16,num_8,0.566773676081,,,2017_Sep_15_1809,60.0033680098,FEMA4ImagesEEG,001,101602,
AFNE01.JPG,AFNE01.JPG,AFNE01.JPG,AFNE01.JPG,AFNE01.JPG,AFNE01.JPG,,,,,,,,,,,,,4,0,40,1,,,,,,,,,,,AMSA18.jpg,AMSA19.jpg,AMNE07.jpg,AMNE09.jpg,AMNE07.jpg,MN,1,num_2,32,num_4,1.21670810087,,,2017_Sep_15_1809,60.0033680098,FEMA4ImagesEEG,001,101602,
AFNE01.JPG,AFNE01.JPG,AFNE01.JPG,AFNE01.JPG,AFNE01.JPG,AFNE01.JPG,,,,,,,,,,,,,4,1,41,9,,,,,,,,,,,AMNE13.jpg,AMSA03.jpg,AMNE16.jpg,AMSA16.jpg,AMNE16.jpg,MN,1,num_2,16,num_2,1.15015236754,,,2017_Sep_15_1809,60.0033680098,FEMA4ImagesEEG,001,101602,
AFNE01.JPG,AFNE01.JPG,AFNE01.JPG,AFNE01.JPG,AFNE01.JPG,AFNE01.JPG,,,,,,,,,,,,,4,2,42,4,,,,,,,,,,,AMNE01.jpg,AMNE04.jpg,AMSA04.jpg,AMSA18.jpg,AMSA18.jpg,MS,2,num_4,16,num_4,0.533435349818,,,2017_Sep_15_1809,60.0033680098,FEMA4ImagesEEG,001,101602,
AFNE01.JPG,AFNE01.JPG,AFNE01.JPG,AFNE01.JPG,AFNE01.JPG,AFNE01.JPG,,,,,,,,,,,,,4,3,43,3,,,,,,,,,,,AMNE02.jpg,AMNE09.jpg,AMSA16.jpg,AMSA14.jpg,AMNE02.jpg,MN,1,num_8,32,num_2,1.0501450866,,,2017_Sep_15_1809,60.0033680098,FEMA4ImagesEEG,001,101602,
AFNE01.JPG,AFNE01.JPG,AFNE01.JPG,AFNE01.JPG,AFNE01.JPG,AFNE01.JPG,,,,,,,,,,,,,4,4,44,5,,,,,,,,,,,AMSA15.jpg,AMNE17.jpg,AMNE19.jpg,AMSA18.jpg,AMNE17.jpg,MN,1,num_6,16,num_6,0.500118513359,,,2017_Sep_15_1809,60.0033680098,FEMA4ImagesEEG,001,101602,
AFNE01.JPG,AFNE01.JPG,AFNE01.JPG,AFNE01.JPG,AFNE01.JPG,AFNE01.JPG,,,,,,,,,,,,,4,5,45,8,,,,,,,,,,,AMSA09.jpg,AMNE20.jpg,AMSA17.jpg,AMNE02.jpg,AMSA09.jpg,MS,2,num_8,16,num_8,0.966780988965,,,2017_Sep_15_1809,60.0033680098,FEMA4ImagesEEG,001,101602,
AFNE01.JPG,AFNE01.JPG,AFNE01.JPG,AFNE01.JPG,AFNE01.JPG,AFNE01.JPG,,,,,,,,,,,,,4,6,46,7,,,,,,,,,,,AMSA05.jpg,AMNE08.jpg,AMSA06.jpg,AMNE18.jpg,AMSA05.jpg,MS,2,num_8,16,num_8,1.05010659783,,,2017_Sep_15_1809,60.0033680098,FEMA4ImagesEEG,001,101602,
AFNE01.JPG,AFNE01.JPG,AFNE01.JPG,AFNE01.JPG,AFNE01.JPG,AFNE01.JPG,,,,,,,,,,,,,4,7,47,0,,,,,,,,,,,AMSA17.jpg,AMNE07.jpg,AMNE03.jpg,AMSA04.jpg,AMNE03.jpg,MN,1,num_2,32,num_6,0.900131599512,,,2017_Sep_15_1809,60.0033680098,FEMA4ImagesEEG,001,101602,
AFNE01.JPG,AFNE01.JPG,AFNE01.JPG,AFNE01.JPG,AFNE01.JPG,AFNE01.JPG,,,,,,,,,,,,,4,8,48,2,,,,,,,,,,,AMSA05.jpg,AMNE19.jpg,AMNE02.jpg,AMSA09.jpg,AMSA05.jpg,MS,2,num_8,16,num_8,2.00002533849,,,2017_Sep_15_1809,60.0033680098,FEMA4ImagesEEG,001,101602,
AFNE01.JPG,AFNE01.JPG,AFNE01.JPG,AFNE01.JPG,AFNE01.JPG,AFNE01.JPG,,,,,,,,,,,,,4,9,49,6,,,,,,,,,,,AMSA19.jpg,AMNE07.jpg,AMNE09.jpg,AMSA18.jpg,AMNE07.jpg,MN,1,num_6,16,num_6,0.850113525754,,,2017_Sep_15_1809,60.0033680098,FEMA4ImagesEEG,001,101602,
AFNE01.JPG,AFNE01.JPG,AFNE01.JPG,AFNE01.JPG,AFNE01.JPG,AFNE01.JPG,,,,,,,,,,,,,5,0,50,3,,,,,,,,,,,AMSA17.jpg,AMNE09.jpg,AMNE13.jpg,AMSA20.jpg,AMNE09.jpg,MN,1,num_6,16,num_6,1.01675480069,,,2017_Sep_15_1809,60.0033680098,FEMA4ImagesEEG,001,101602,
AFNE01.JPG,AFNE01.JPG,AFNE01.JPG,AFNE01.JPG,AFNE01.JPG,AFNE01.JPG,,,,,,,,,,,,,5,1,51,7,,,,,,,,,,,AMNE12.jpg,AMSA18.jpg,AMSA19.jpg,AMNE16.jpg,AMSA19.jpg,MS,2,num_2,16,num_2,1.13340077433,,,2017_Sep_15_1809,60.0033680098,FEMA4ImagesEEG,001,101602,
AFNE01.JPG,AFNE01.JPG,AFNE01.JPG,AFNE01.JPG,AFNE01.JPG,AFNE01.JPG,,,,,,,,,,,,,5,2,52,0,,,,,,,,,,,AMSA06.jpg,AMNE02.jpg,AMNE12.jpg,AMSA17.jpg,AMSA06.jpg,MS,2,num_8,16,num_8,1.08344299952,,,2017_Sep_15_1809,60.0033680098,FEMA4ImagesEEG,001,101602,
AFNE01.JPG,AFNE01.JPG,AFNE01.JPG,AFNE01.JPG,AFNE01.JPG,AFNE01.JPG,,,,,,,,,,,,,5,3,53,5,,,,,,,,,,,AMNE17.jpg,AMSA06.jpg,AMNE20.jpg,AMSA19.jpg,AMSA06.jpg,MS,2,num_6,16,num_6,1.23341767723,,,2017_Sep_15_1809,60.0033680098,FEMA4ImagesEEG,001,101602,
AFNE01.JPG,AFNE01.JPG,AFNE01.JPG,AFNE01.JPG,AFNE01.JPG,AFNE01.JPG,,,,,,,,,,,,,5,4,54,1,,,,,,,,,,,AMSA09.jpg,AMNE11.jpg,AMSA14.jpg,AMNE01.jpg,AMNE01.jpg,MN,1,num_4,16,num_4,0.816752106417,,,2017_Sep_15_1809,60.0033680098,FEMA4ImagesEEG,001,101602,
AFNE01.JPG,AFNE01.JPG,AFNE01.JPG,AFNE01.JPG,AFNE01.JPG,AFNE01.JPG,,,,,,,,,,,,,5,5,55,9,,,,,,,,,,,AMNE15.jpg,AMSA11.jpg,AMNE13.jpg,AMSA03.jpg,AMSA11.jpg,MS,2,num_6,16,num_6,1.15012189699,,,2017_Sep_15_1809,60.0033680098,FEMA4ImagesEEG,001,101602,
AFNE01.JPG,AFNE01.JPG,AFNE01.JPG,AFNE01.JPG,AFNE01.JPG,AFNE01.JPG,,,,,,,,,,,,,5,6,56,8,,,,,,,,,,,AMNE19.jpg,AMNE01.jpg,AMSA05.jpg,AMSA16.jpg,AMSA05.jpg,MS,2,num_2,16,num_2,0.816753710154,,,2017_Sep_15_1809,60.0033680098,FEMA4ImagesEEG,001,101602,
AFNE01.JPG,AFNE01.JPG,AFNE01.JPG,AFNE01.JPG,AFNE01.JPG,AFNE01.JPG,,,,,,,,,,,,,5,7,57,2,,,,,,,,,,,AMSA12.jpg,AMNE07.jpg,AMSA09.jpg,AMNE02.jpg,AMSA09.jpg,MS,2,num_2,32,num_6,1.15013119858,,,2017_Sep_15_1809,60.0033680098,FEMA4ImagesEEG,001,101602,
AFNE01.JPG,AFNE01.JPG,AFNE01.JPG,AFNE01.JPG,AFNE01.JPG,AFNE01.JPG,,,,,,,,,,,,,5,8,58,6,,,,,,,,,,,AMNE19.jpg,AMSA11.jpg,AMSA03.jpg,AMNE04.jpg,AMNE04.jpg,MN,1,num_4,16,num_4,0.950108939316,,,2017_Sep_15_1809,60.0033680098,FEMA4ImagesEEG,001,101602,
AFNE01.JPG,AFNE01.JPG,AFNE01.JPG,AFNE01.JPG,AFNE01.JPG,AFNE01.JPG,,,,,,,,,,,,,5,9,59,4,,,,,,,,,,,AMSA02.jpg,AMNE16.jpg,AMSA08.jpg,AMNE20.jpg,AMNE20.jpg,MN,1,num_4,16,num_4,0.699975271011,,,2017_Sep_15_1809,60.0033680098,FEMA4ImagesEEG,001,101602,
,,,,,,,,,,,,,,,,,,,,,,,,,,,,,,,,,,,,,,,,,,,space,23.9814474534,2017_Sep_15_1809,60.0033680098,FEMA4ImagesEEG,001,101602,
AFNE01.JPG,AFNE01.JPG,AFNE01.JPG,AFNE01.JPG,AFNE01.JPG,AFNE01.JPG,,,,,,,,,,,,,,,,,0,0,0,7,,,,,,,AFSA02.jpg,AFNE16.jpg,AFNE10.jpg,AFSA01.jpg,AFSA01.jpg,FS,4,num_4,16,num_4,0.483476292342,,,2017_Sep_15_1809,60.0033680098,FEMA4ImagesEEG,001,101602,
AFNE01.JPG,AFNE01.JPG,AFNE01.JPG,AFNE01.JPG,AFNE01.JPG,AFNE01.JPG,,,,,,,,,,,,,,,,,0,1,1,8,,,,,,,AFNE03.jpg,AFNE18.jpg,AFSA10.jpg,AFSA18.jpg,AFNE18.jpg,FN,3,num_6,32,num_2,0.683836290613,,,2017_Sep_15_1809,60.0033680098,FEMA4ImagesEEG,001,101602,
AFNE01.JPG,AFNE01.JPG,AFNE01.JPG,AFNE01.JPG,AFNE01.JPG,AFNE01.JPG,,,,,,,,,,,,,,,,,0,2,2,3,,,,,,,AFNE14.jpg,AFSA02.jpg,AFSA07.jpg,AFNE12.jpg,AFNE14.jpg,FN,3,num_8,16,num_8,0.86675029411,,,2017_Sep_15_1809,60.0033680098,FEMA4ImagesEEG,001,101602,
AFNE01.JPG,AFNE01.JPG,AFNE01.JPG,AFNE01.JPG,AFNE01.JPG,AFNE01.JPG,,,,,,,,,,,,,,,,,0,3,3,6,,,,,,,AFSA16.jpg,AFNE18.jpg,AFSA14.jpg,AFNE15.jpg,AFNE15.jpg,FN,3,num_4,16,num_4,1.76671639201,,,2017_Sep_15_1809,60.0033680098,FEMA4ImagesEEG,001,101602,
AFNE01.JPG,AFNE01.JPG,AFNE01.JPG,AFNE01.JPG,AFNE01.JPG,AFNE01.JPG,,,,,,,,,,,,,,,,,0,4,4,2,,,,,,,AFSA02.jpg,AFSA12.jpg,AFNE02.jpg,AFNE20.jpg,AFSA12.jpg,FS,4,num_6,16,num_6,0.566784581402,,,2017_Sep_15_1809,60.0033680098,FEMA4ImagesEEG,001,101602,
AFNE01.JPG,AFNE01.JPG,AFNE01.JPG,AFNE01.JPG,AFNE01.JPG,AFNE01.JPG,,,,,,,,,,,,,,,,,0,5,5,0,,,,,,,AFNE19.jpg,AFSA14.jpg,AFNE20.jpg,AFSA07.jpg,AFSA14.jpg,FS,4,num_6,32,num_8,3.23322074302,,,2017_Sep_15_1809,60.0033680098,FEMA4ImagesEEG,001,101602,
AFNE01.JPG,AFNE01.JPG,AFNE01.JPG,AFNE01.JPG,AFNE01.JPG,AFNE01.JPG,,,,,,,,,,,,,,,,,0,6,6,5,,,,,,,AFNE04.jpg,AFNE01.jpg,AFSA02.jpg,AFSA16.jpg,AFNE04.jpg,FN,3,num_8,32,num_6,1.93341892795,,,2017_Sep_15_1809,60.0033680098,FEMA4ImagesEEG,001,101602,
AFNE01.JPG,AFNE01.JPG,AFNE01.JPG,AFNE01.JPG,AFNE01.JPG,AFNE01.JPG,,,,,,,,,,,,,,,,,0,7,7,9,,,,,,,AFNE18.jpg,AFSA04.jpg,AFNE11.jpg,AFSA10.jpg,AFNE11.jpg,FN,3,num_2,16,num_2,3.64986963524,,,2017_Sep_15_1809,60.0033680098,FEMA4ImagesEEG,001,101602,
AFNE01.JPG,AFNE01.JPG,AFNE01.JPG,AFNE01.JPG,AFNE01.JPG,AFNE01.JPG,,,,,,,,,,,,,,,,,0,8,8,4,,,,,,,AFNE07.jpg,AFSA17.jpg,AFSA01.jpg,AFNE17.jpg,AFNE17.jpg,FN,3,num_4,16,num_4,1.7001029253,,,2017_Sep_15_1809,60.0033680098,FEMA4ImagesEEG,001,101602,
AFNE01.JPG,AFNE01.JPG,AFNE01.JPG,AFNE01.JPG,AFNE01.JPG,AFNE01.JPG,,,,,,,,,,,,,,,,,0,9,9,1,,,,,,,AFNE14.jpg,AFNE19.jpg,AFSA16.jpg,AFSA07.jpg,AFNE14.jpg,FN,3,num_8,16,num_8,1.2169999741,,,2017_Sep_15_1809,60.0033680098,FEMA4ImagesEEG,001,101602,
AFNE01.JPG,AFNE01.JPG,AFNE01.JPG,AFNE01.JPG,AFNE01.JPG,AFNE01.JPG,,,,,,,,,,,,,,,,,1,0,10,8,,,,,,,AFSA12.jpg,AFSA16.jpg,AFNE17.jpg,AFNE12.jpg,AFSA12.jpg,FS,4,num_8,16,num_8,0.583340843907,,,2017_Sep_15_1809,60.0033680098,FEMA4ImagesEEG,001,101602,
AFNE01.JPG,AFNE01.JPG,AFNE01.JPG,AFNE01.JPG,AFNE01.JPG,AFNE01.JPG,,,,,,,,,,,,,,,,,1,1,11,4,,,,,,,AFNE07.jpg,AFSA01.jpg,AFSA17.jpg,AFNE11.jpg,AFNE07.jpg,FN,3,num_8,16,num_8,0.933461907087,,,2017_Sep_15_1809,60.0033680098,FEMA4ImagesEEG,001,101602,
AFNE01.JPG,AFNE01.JPG,AFNE01.JPG,AFNE01.JPG,AFNE01.JPG,AFNE01.JPG,,,,,,,,,,,,,,,,,1,2,12,9,,,,,,,AFSA13.jpg,AFSA04.jpg,AFNE09.jpg,AFNE10.jpg,AFSA13.jpg,FS,4,num_8,16,num_8,0.81684063049,,,2017_Sep_15_1809,60.0033680098,FEMA4ImagesEEG,001,101602,
AFNE01.JPG,AFNE01.JPG,AFNE01.JPG,AFNE01.JPG,AFNE01.JPG,AFNE01.JPG,,,,,,,,,,,,,,,,,1,3,13,1,,,,,,,AFNE04.jpg,AFSA16.jpg,AFSA04.jpg,AFNE01.jpg,AFNE01.jpg,FN,3,num_4,16,num_4,1.45011294843,,,2017_Sep_15_1809,60.0033680098,FEMA4ImagesEEG,001,101602,
AFNE01.JPG,AFNE01.JPG,AFNE01.JPG,AFNE01.JPG,AFNE01.JPG,AFNE01.JPG,,,,,,,,,,,,,,,,,1,4,14,6,,,,,,,AFSA06.jpg,AFNE08.jpg,AFNE13.jpg,AFSA03.jpg,AFNE08.jpg,FN,3,num_6,16,num_6,0.800138110528,,,2017_Sep_15_1809,60.0033680098,FEMA4ImagesEEG,001,101602,
AFNE01.JPG,AFNE01.JPG,AFNE01.JPG,AFNE01.JPG,AFNE01.JPG,AFNE01.JPG,,,,,,,,,,,,,,,,,1,5,15,3,,,,,,,AFNE18.jpg,AFSA04.jpg,AFSA08.jpg,AFNE08.jpg,AFNE08.jpg,FN,3,num_4,32,num_8,2.13337896392,,,2017_Sep_15_1809,60.0033680098,FEMA4ImagesEEG,001,101602,
AFNE01.JPG,AFNE01.JPG,AFNE01.JPG,AFNE01.JPG,AFNE01.JPG,AFNE01.JPG,,,,,,,,,,,,,,,,,1,6,16,0,,,,,,,AFSA03.jpg,AFNE15.jpg,AFNE18.jpg,AFSA12.jpg,AFNE15.jpg,FN,3,num_6,16,num_6,1.35006685811,,,2017_Sep_15_1809,60.0033680098,FEMA4ImagesEEG,001,101602,
AFNE01.JPG,AFNE01.JPG,AFNE01.JPG,AFNE01.JPG,AFNE01.JPG,AFNE01.JPG,,,,,,,,,,,,,,,,,1,7,17,7,,,,,,,AFSA04.jpg,AFSA11.jpg,AFNE14.jpg,AFNE13.jpg,AFNE13.jpg,FN,3,num_4,32,num_8,1.61672439449,,,2017_Sep_15_1809,60.0033680098,FEMA4ImagesEEG,001,101602,
AFNE01.JPG,AFNE01.JPG,AFNE01.JPG,AFNE01.JPG,AFNE01.JPG,AFNE01.JPG,,,,,,,,,,,,,,,,,1,8,18,5,,,,,,,AFSA03.jpg,AFNE17.jpg,AFSA04.jpg,AFNE01.jpg,AFSA04.jpg,FS,4,num_2,16,num_2,1.65005438123,,,2017_Sep_15_1809,60.0033680098,FEMA4ImagesEEG,001,101602,
AFNE01.JPG,AFNE01.JPG,AFNE01.JPG,AFNE01.JPG,AFNE01.JPG,AFNE01.JPG,,,,,,,,,,,,,,,,,1,9,19,2,,,,,,,AFNE10.jpg,AFNE11.jpg,AFSA05.jpg,AFSA10.jpg,AFSA10.jpg,FS,4,num_4,16,num_4,1.25016862899,,,2017_Sep_15_1809,60.0033680098,FEMA4ImagesEEG,001,101602,
AFNE01.JPG,AFNE01.JPG,AFNE01.JPG,AFNE01.JPG,AFNE01.JPG,AFNE01.JPG,,,,,,,,,,,,,,,,,2,0,20,3,,,,,,,AFSA10.jpg,AFNE08.jpg,AFSA01.jpg,AFNE20.jpg,AFNE08.jpg,FN,3,num_6,32,num_4,1.16660086159,,,2017_Sep_15_1809,60.0033680098,FEMA4ImagesEEG,001,101602,
AFNE01.JPG,AFNE01.JPG,AFNE01.JPG,AFNE01.JPG,AFNE01.JPG,AFNE01.JPG,,,,,,,,,,,,,,,,,2,1,21,6,,,,,,,AFSA14.jpg,AFNE07.jpg,AFSA11.jpg,AFNE10.jpg,AFSA14.jpg,FS,4,num_8,32,num_4,1.15014114161,,,2017_Sep_15_1809,60.0033680098,FEMA4ImagesEEG,001,101602,
AFNE01.JPG,AFNE01.JPG,AFNE01.JPG,AFNE01.JPG,AFNE01.JPG,AFNE01.JPG,,,,,,,,,,,,,,,,,2,2,22,5,,,,,,,AFNE07.jpg,AFNE01.jpg,AFSA02.jpg,AFSA19.jpg,AFNE01.jpg,FN,3,num_6,16,num_6,2.56662870175,,,2017_Sep_15_1809,60.0033680098,FEMA4ImagesEEG,001,101602,
AFNE01.JPG,AFNE01.JPG,AFNE01.JPG,AFNE01.JPG,AFNE01.JPG,AFNE01.JPG,,,,,,,,,,,,,,,,,2,3,23,9,,,,,,,AFSA09.jpg,AFNE17.jpg,AFNE13.jpg,AFSA07.jpg,AFNE17.jpg,FN,3,num_6,16,num_6,0.816711372463,,,2017_Sep_15_1809,60.0033680098,FEMA4ImagesEEG,001,101602,
AFNE01.JPG,AFNE01.JPG,AFNE01.JPG,AFNE01.JPG,AFNE01.JPG,AFNE01.JPG,,,,,,,,,,,,,,,,,2,4,24,2,,,,,,,AFNE03.jpg,AFNE14.jpg,AFSA08.jpg,AFSA06.jpg,AFSA06.jpg,FS,4,num_4,32,num_2,1.08342920779,,,2017_Sep_15_1809,60.0033680098,FEMA4ImagesEEG,001,101602,
AFNE01.JPG,AFNE01.JPG,AFNE01.JPG,AFNE01.JPG,AFNE01.JPG,AFNE01.JPG,,,,,,,,,,,,,,,,,2,5,25,1,,,,,,,AFSA02.jpg,AFNE03.jpg,AFNE07.jpg,AFSA01.jpg,AFNE07.jpg,FN,3,num_2,16,num_2,1.08350618533,,,2017_Sep_15_1809,60.0033680098,FEMA4ImagesEEG,001,101602,
AFNE01.JPG,AFNE01.JPG,AFNE01.JPG,AFNE01.JPG,AFNE01.JPG,AFNE01.JPG,,,,,,,,,,,,,,,,,2,6,26,7,,,,,,,AFNE09.jpg,AFSA20.jpg,AFNE12.jpg,AFSA09.jpg,AFNE09.jpg,FN,3,num_8,32,num_2,1.56674897927,,,2017_Sep_15_1809,60.0033680098,FEMA4ImagesEEG,001,101602,
AFNE01.JPG,AFNE01.JPG,AFNE01.JPG,AFNE01.JPG,AFNE01.JPG,AFNE01.JPG,,,,,,,,,,,,,,,,,2,7,27,4,,,,,,,AFSA20.jpg,AFNE02.jpg,AFNE16.jpg,AFSA19.jpg,AFSA20.jpg,FS,4,num_8,32,num_4,1.21676775836,,,2017_Sep_15_1809,60.0033680098,FEMA4ImagesEEG,001,101602,
AFNE01.JPG,AFNE01.JPG,AFNE01.JPG,AFNE01.JPG,AFNE01.JPG,AFNE01.JPG,,,,,,,,,,,,,,,,,2,8,28,8,,,,,,,AFSA16.jpg,AFSA17.jpg,AFNE09.jpg,AFNE10.jpg,AFNE09.jpg,FN,3,num_2,16,num_2,1.05009184382,,,2017_Sep_15_1809,60.0033680098,FEMA4ImagesEEG,001,101602,
AFNE01.JPG,AFNE01.JPG,AFNE01.JPG,AFNE01.JPG,AFNE01.JPG,AFNE01.JPG,,,,,,,,,,,,,,,,,2,9,29,0,,,,,,,AFNE06.jpg,AFSA13.jpg,AFSA18.jpg,AFNE16.jpg,AFNE16.jpg,FN,3,num_4,32,num_8,2.01670412393,,,2017_Sep_15_1809,60.0033680098,FEMA4ImagesEEG,001,101602,
AFNE01.JPG,AFNE01.JPG,AFNE01.JPG,AFNE01.JPG,AFNE01.JPG,AFNE01.JPG,,,,,,,,,,,,,,,,,3,0,30,5,,,,,,,AFSA06.jpg,AFNE19.jpg,AFSA16.jpg,AFNE05.jpg,AFSA16.jpg,FS,4,num_2,16,num_2,0.650134245632,,,2017_Sep_15_1809,60.0033680098,FEMA4ImagesEEG,001,101602,
AFNE01.JPG,AFNE01.JPG,AFNE01.JPG,AFNE01.JPG,AFNE01.JPG,AFNE01.JPG,,,,,,,,,,,,,,,,,3,1,31,7,,,,,,,AFNE15.jpg,AFNE18.jpg,AFSA12.jpg,AFSA01.jpg,AFNE15.jpg,FN,3,num_8,16,num_8,1.40008525248,,,2017_Sep_15_1809,60.0033680098,FEMA4ImagesEEG,001,101602,
AFNE01.JPG,AFNE01.JPG,AFNE01.JPG,AFNE01.JPG,AFNE01.JPG,AFNE01.JPG,,,,,,,,,,,,,,,,,3,2,32,9,,,,,,,AFSA16.jpg,AFSA20.jpg,AFNE06.jpg,AFNE18.jpg,AFNE06.jpg,FN,3,num_2,32,num_8,1.01674357476,,,2017_Sep_15_1809,60.0033680098,FEMA4ImagesEEG,001,101602,
AFNE01.JPG,AFNE01.JPG,AFNE01.JPG,AFNE01.JPG,AFNE01.JPG,AFNE01.JPG,,,,,,,,,,,,,,,,,3,3,33,8,,,,,,,AFSA18.jpg,AFNE04.jpg,AFNE17.jpg,AFSA08.jpg,AFNE17.jpg,FN,3,num_2,32,num_4,1.18346278928,,,2017_Sep_15_1809,60.0033680098,FEMA4ImagesEEG,001,101602,
AFNE01.JPG,AFNE01.JPG,AFNE01.JPG,AFNE01.JPG,AFNE01.JPG,AFNE01.JPG,,,,,,,,,,,,,,,,,3,4,34,2,,,,,,,AFSA18.jpg,AFNE20.jpg,AFNE08.jpg,AFSA03.jpg,AFSA03.jpg,FS,4,num_4,16,num_4,0.600116492715,,,2017_Sep_15_1809,60.0033680098,FEMA4ImagesEEG,001,101602,
AFNE01.JPG,AFNE01.JPG,AFNE01.JPG,AFNE01.JPG,AFNE01.JPG,AFNE01.JPG,,,,,,,,,,,,,,,,,3,5,35,1,,,,,,,AFSA02.jpg,AFNE20.jpg,AFSA17.jpg,AFNE18.jpg,AFSA17.jpg,FS,4,num_2,16,num_2,0.566751545062,,,2017_Sep_15_1809,60.0033680098,FEMA4ImagesEEG,001,101602,
AFNE01.JPG,AFNE01.JPG,AFNE01.JPG,AFNE01.JPG,AFNE01.JPG,AFNE01.JPG,,,,,,,,,,,,,,,,,3,6,36,6,,,,,,,AFSA13.jpg,AFNE14.jpg,AFSA15.jpg,AFNE01.jpg,AFNE14.jpg,FN,3,num_6,16,num_6,0.950108618475,,,2017_Sep_15_1809,60.0033680098,FEMA4ImagesEEG,001,101602,
AFNE01.JPG,AFNE01.JPG,AFNE01.JPG,AFNE01.JPG,AFNE01.JPG,AFNE01.JPG,,,,,,,,,,,,,,,,,3,7,37,3,,,,,,,AFNE05.jpg,AFNE17.jpg,AFSA10.jpg,AFSA11.jpg,AFSA10.jpg,FS,4,num_2,16,num_2,1.74992021616,,,2017_Sep_15_1809,60.0033680098,FEMA4ImagesEEG,001,101602,
AFNE01.JPG,AFNE01.JPG,AFNE01.JPG,AFNE01.JPG,AFNE01.JPG,AFNE01.JPG,,,,,,,,,,,,,,,,,3,8,38,0,,,,,,,AFSA13.jpg,AFNE06.jpg,AFSA11.jpg,AFNE18.jpg,AFNE06.jpg,FN,3,num_6,16,num_6,0.900080601685,,,2017_Sep_15_1809,60.0033680098,FEMA4ImagesEEG,001,101602,
AFNE01.JPG,AFNE01.JPG,AFNE01.JPG,AFNE01.JPG,AFNE01.JPG,AFNE01.JPG,,,,,,,,,,,,,,,,,3,9,39,4,,,,,,,AFNE19.jpg,AFSA17.jpg,AFNE03.jpg,AFSA08.jpg,AFSA17.jpg,FS,4,num_6,16,num_6,0.483503234573,,,2017_Sep_15_1809,60.0033680098,FEMA4ImagesEEG,001,101602,
AFNE01.JPG,AFNE01.JPG,AFNE01.JPG,AFNE01.JPG,AFNE01.JPG,AFNE01.JPG,,,,,,,,,,,,,,,,,4,0,40,0,,,,,,,AFNE10.jpg,AFNE06.jpg,AFSA19.jpg,AFSA17.jpg,AFNE06.jpg,FN,3,num_6,32,num_8,1.56671947101,,,2017_Sep_15_1809,60.0033680098,FEMA4ImagesEEG,001,101602,
AFNE01.JPG,AFNE01.JPG,AFNE01.JPG,AFNE01.JPG,AFNE01.JPG,AFNE01.JPG,,,,,,,,,,,,,,,,,4,1,41,4,,,,,,,AFSA19.jpg,AFNE09.jpg,AFNE02.jpg,AFSA13.jpg,AFNE09.jpg,FN,3,num_6,16,num_6,0.550132096745,,,2017_Sep_15_1809,60.0033680098,FEMA4ImagesEEG,001,101602,
AFNE01.JPG,AFNE01.JPG,AFNE01.JPG,AFNE01.JPG,AFNE01.JPG,AFNE01.JPG,,,,,,,,,,,,,,,,,4,2,42,9,,,,,,,AFSA13.jpg,AFNE14.jpg,AFNE03.jpg,AFSA15.jpg,AFNE14.jpg,FN,3,num_6,16,num_6,0.966712671332,,,2017_Sep_15_1809,60.0033680098,FEMA4ImagesEEG,001,101602,
AFNE01.JPG,AFNE01.JPG,AFNE01.JPG,AFNE01.JPG,AFNE01.JPG,AFNE01.JPG,,,,,,,,,,,,,,,,,4,3,43,3,,,,,,,AFNE06.jpg,AFSA09.jpg,AFSA05.jpg,AFNE11.jpg,AFSA05.jpg,FS,4,num_2,16,num_2,1.26670115697,,,2017_Sep_15_1809,60.0033680098,FEMA4ImagesEEG,001,101602,
AFNE01.JPG,AFNE01.JPG,AFNE01.JPG,AFNE01.JPG,AFNE01.JPG,AFNE01.JPG,,,,,,,,,,,,,,,,,4,4,44,8,,,,,,,AFNE14.jpg,AFSA07.jpg,AFSA01.jpg,AFNE19.jpg,AFNE19.jpg,FN,3,num_4,32,num_6,2.483309187,,,2017_Sep_15_1809,60.0033680098,FEMA4ImagesEEG,001,101602,
AFNE01.JPG,AFNE01.JPG,AFNE01.JPG,AFNE01.JPG,AFNE01.JPG,AFNE01.JPG,,,,,,,,,,,,,,,,,4,5,45,7,,,,,,,AFSA19.jpg,AFNE01.jpg,AFNE12.jpg,AFSA01.jpg,AFSA19.jpg,FS,4,num_8,32,num_4,0.800146449823,,,2017_Sep_15_1809,60.0033680098,FEMA4ImagesEEG,001,101602,
AFNE01.JPG,AFNE01.JPG,AFNE01.JPG,AFNE01.JPG,AFNE01.JPG,AFNE01.JPG,,,,,,,,,,,,,,,,,4,6,46,1,,,,,,,AFSA14.jpg,AFSA18.jpg,AFNE16.jpg,AFNE09.jpg,AFNE09.jpg,FN,3,num_4,32,num_8,1.4334033723,,,2017_Sep_15_1809,60.0033680098,FEMA4ImagesEEG,001,101602,
AFNE01.JPG,AFNE01.JPG,AFNE01.JPG,AFNE01.JPG,AFNE01.JPG,AFNE01.JPG,,,,,,,,,,,,,,,,,4,7,47,2,,,,,,,AFSA14.jpg,AFNE13.jpg,AFSA03.jpg,AFNE08.jpg,AFNE13.jpg,FN,3,num_6,16,num_6,1.43340914557,,,2017_Sep_15_1809,60.0033680098,FEMA4ImagesEEG,001,101602,
AFNE01.JPG,AFNE01.JPG,AFNE01.JPG,AFNE01.JPG,AFNE01.JPG,AFNE01.JPG,,,,,,,,,,,,,,,,,4,8,48,6,,,,,,,AFNE05.jpg,AFSA17.jpg,AFSA04.jpg,AFNE17.jpg,AFNE17.jpg,FN,3,num_4,32,num_8,0.833247107919,,,2017_Sep_15_1809,60.0033680098,FEMA4ImagesEEG,001,101602,
AFNE01.JPG,AFNE01.JPG,AFNE01.JPG,AFNE01.JPG,AFNE01.JPG,AFNE01.JPG,,,,,,,,,,,,,,,,,4,9,49,5,,,,,,,AFSA19.jpg,AFSA11.jpg,AFNE17.jpg,AFNE18.jpg,AFSA11.jpg,FS,4,num_6,16,num_6,0.666781277629,,,2017_Sep_15_1809,60.0033680098,FEMA4ImagesEEG,001,101602,
AFNE01.JPG,AFNE01.JPG,AFNE01.JPG,AFNE01.JPG,AFNE01.JPG,AFNE01.JPG,,,,,,,,,,,,,,,,,5,0,50,6,,,,,,,AFNE07.jpg,AFSA15.jpg,AFSA18.jpg,AFNE11.jpg,AFSA15.jpg,FS,4,num_6,16,num_6,0.70011543436,,,2017_Sep_15_1809,60.0033680098,FEMA4ImagesEEG,001,101602,
AFNE01.JPG,AFNE01.JPG,AFNE01.JPG,AFNE01.JPG,AFNE01.JPG,AFNE01.JPG,,,,,,,,,,,,,,,,,5,1,51,0,,,,,,,AFNE18.jpg,AFSA18.jpg,AFNE17.jpg,AFSA15.jpg,AFNE17.jpg,FN,3,num_2,16,num_2,0.999954134226,,,2017_Sep_15_1809,60.0033680098,FEMA4ImagesEEG,001,101602,
AFNE01.JPG,AFNE01.JPG,AFNE01.JPG,AFNE01.JPG,AFNE01.JPG,AFNE01.JPG,,,,,,,,,,,,,,,,,5,2,52,7,,,,,,,AFNE13.jpg,AFNE17.jpg,AFSA13.jpg,AFSA11.jpg,AFSA13.jpg,FS,4,num_2,32,num_4,0.78347023041,,,2017_Sep_15_1809,60.0033680098,FEMA4ImagesEEG,001,101602,
AFNE01.JPG,AFNE01.JPG,AFNE01.JPG,AFNE01.JPG,AFNE01.JPG,AFNE01.JPG,,,,,,,,,,,,,,,,,5,3,53,2,,,,,,,AFSA17.jpg,AFNE20.jpg,AFNE03.jpg,AFSA01.jpg,AFSA17.jpg,FS,4,num_8,16,num_8,0.516802109778,,,2017_Sep_15_1809,60.0033680098,FEMA4ImagesEEG,001,101602,
AFNE01.JPG,AFNE01.JPG,AFNE01.JPG,AFNE01.JPG,AFNE01.JPG,AFNE01.JPG,,,,,,,,,,,,,,,,,5,4,54,4,,,,,,,AFSA16.jpg,AFNE17.jpg,AFNE15.jpg,AFSA04.jpg,AFNE17.jpg,FN,3,num_6,16,num_6,2.38345586136,,,2017_Sep_15_1809,60.0033680098,FEMA4ImagesEEG,001,101602,
AFNE01.JPG,AFNE01.JPG,AFNE01.JPG,AFNE01.JPG,AFNE01.JPG,AFNE01.JPG,,,,,,,,,,,,,,,,,5,5,55,1,,,,,,,AFSA08.jpg,AFNE01.jpg,AFNE04.jpg,AFSA14.jpg,AFSA08.jpg,FS,4,num_8,32,num_2,1.01672400953,,,2017_Sep_15_1809,60.0033680098,FEMA4ImagesEEG,001,101602,
AFNE01.JPG,AFNE01.JPG,AFNE01.JPG,AFNE01.JPG,AFNE01.JPG,AFNE01.JPG,,,,,,,,,,,,,,,,,5,6,56,5,,,,,,,AFSA18.jpg,AFNE19.jpg,AFSA05.jpg,AFNE13.jpg,AFNE13.jpg,FN,3,num_4,32,num_6,1.71670345031,,,2017_Sep_15_1809,60.0033680098,FEMA4ImagesEEG,001,101602,
AFNE01.JPG,AFNE01.JPG,AFNE01.JPG,AFNE01.JPG,AFNE01.JPG,AFNE01.JPG,,,,,,,,,,,,,,,,,5,7,57,8,,,,,,,AFSA15.jpg,AFNE07.jpg,AFNE18.jpg,AFSA19.jpg,AFNE18.jpg,FN,3,num_2,16,num_2,0.716811218532,,,2017_Sep_15_1809,60.0033680098,FEMA4ImagesEEG,001,101602,
AFNE01.JPG,AFNE01.JPG,AFNE01.JPG,AFNE01.JPG,AFNE01.JPG,AFNE01.JPG,,,,,,,,,,,,,,,,,5,8,58,9,,,,,,,AFNE04.jpg,AFNE19.jpg,AFSA11.jpg,AFSA02.jpg,AFNE04.jpg,FN,3,num_8,16,num_8,2.68343504518,,,2017_Sep_15_1809,60.0033680098,FEMA4ImagesEEG,001,101602,
AFNE01.JPG,AFNE01.JPG,AFNE01.JPG,AFNE01.JPG,AFNE01.JPG,AFNE01.JPG,,,,,,,,,,,,,,,,,5,9,59,3,,,,,,,AFNE12.jpg,AFNE10.jpg,AFSA11.jpg,AFSA15.jpg,AFSA15.jpg,FS,4,num_4,16,num_4,0.583508911543,,,2017_Sep_15_1809,60.0033680098,FEMA4ImagesEEG,001,101602,
,,,,,,,,,,,,,,,,,,,,,,,,,,,,,,,,,,,,,,,,,,,space,21.4321803916,2017_Sep_15_1809,60.0033680098,FEMA4ImagesEEG,001,101602,
AFNE01.JPG,AFNE01.JPG,AFNE01.JPG,AFNE01.JPG,AFNE01.JPG,AFNE01.JPG,,,,,,,,,,,,,,,,,,,,,0,0,0,8,,,AMNE07.jpg,AMNE12.jpg,AMSA14.jpg,AMSA08.jpg,AMSA14.jpg,MS,2,num_2,16,num_2,1.10009195609,,,2017_Sep_15_1809,60.0033680098,FEMA4ImagesEEG,001,101602,
AFNE01.JPG,AFNE01.JPG,AFNE01.JPG,AFNE01.JPG,AFNE01.JPG,AFNE01.JPG,,,,,,,,,,,,,,,,,,,,,0,1,1,1,,,AMNE18.jpg,AMNE12.jpg,AMSA11.jpg,AMSA04.jpg,AMNE18.jpg,MN,1,num_8,32,num_6,1.1000922767,,,2017_Sep_15_1809,60.0033680098,FEMA4ImagesEEG,001,101602,
AFNE01.JPG,AFNE01.JPG,AFNE01.JPG,AFNE01.JPG,AFNE01.JPG,AFNE01.JPG,,,,,,,,,,,,,,,,,,,,,0,2,2,0,,,AMNE12.jpg,AMSA04.jpg,AMNE20.jpg,AMSA13.jpg,AMNE12.jpg,MN,1,num_8,16,num_8,0.833476757398,,,2017_Sep_15_1809,60.0033680098,FEMA4ImagesEEG,001,101602,
AFNE01.JPG,AFNE01.JPG,AFNE01.JPG,AFNE01.JPG,AFNE01.JPG,AFNE01.JPG,,,,,,,,,,,,,,,,,,,,,0,3,3,5,,,AMSA02.jpg,AMNE13.jpg,AMNE18.jpg,AMSA11.jpg,AMSA02.jpg,MS,2,num_8,32,num_4,0.783436873462,,,2017_Sep_15_1809,60.0033680098,FEMA4ImagesEEG,001,101602,
AFNE01.JPG,AFNE01.JPG,AFNE01.JPG,AFNE01.JPG,AFNE01.JPG,AFNE01.JPG,,,,,,,,,,,,,,,,,,,,,0,4,4,6,,,AMSA01.jpg,AMNE04.jpg,AMSA08.jpg,AMNE03.jpg,AMNE04.jpg,MN,1,num_6,16,num_6,0.500221470604,,,2017_Sep_15_1809,60.0033680098,FEMA4ImagesEEG,001,101602,
AFNE01.JPG,AFNE01.JPG,AFNE01.JPG,AFNE01.JPG,AFNE01.JPG,AFNE01.JPG,,,,,,,,,,,,,,,,,,,,,0,5,5,4,,,AMNE09.jpg,AMSA05.jpg,AMSA19.jpg,AMNE08.jpg,AMSA19.jpg,MS,2,num_2,16,num_2,0.816756275948,,,2017_Sep_15_1809,60.0033680098,FEMA4ImagesEEG,001,101602,
AFNE01.JPG,AFNE01.JPG,AFNE01.JPG,AFNE01.JPG,AFNE01.JPG,AFNE01.JPG,,,,,,,,,,,,,,,,,,,,,0,6,6,2,,,AMSA14.jpg,AMSA17.jpg,AMNE17.jpg,AMNE13.jpg,AMNE17.jpg,MN,1,num_2,32,num_8,1.18329247646,,,2017_Sep_15_1809,60.0033680098,FEMA4ImagesEEG,001,101602,
AFNE01.JPG,AFNE01.JPG,AFNE01.JPG,AFNE01.JPG,AFNE01.JPG,AFNE01.JPG,,,,,,,,,,,,,,,,,,,,,0,7,7,7,,,AMSA14.jpg,AMNE11.jpg,AMSA15.jpg,AMNE12.jpg,AMNE12.jpg,MN,1,num_4,32,num_6,1.0168449285,,,2017_Sep_15_1809,60.0033680098,FEMA4ImagesEEG,001,101602,
AFNE01.JPG,AFNE01.JPG,AFNE01.JPG,AFNE01.JPG,AFNE01.JPG,AFNE01.JPG,,,,,,,,,,,,,,,,,,,,,0,8,8,9,,,AMNE02.jpg,AMSA08.jpg,AMNE18.jpg,AMSA06.jpg,AMNE02.jpg,MN,1,num_8,32,num_2,2.66657504207,,,2017_Sep_15_1809,60.0033680098,FEMA4ImagesEEG,001,101602,
AFNE01.JPG,AFNE01.JPG,AFNE01.JPG,AFNE01.JPG,AFNE01.JPG,AFNE01.JPG,,,,,,,,,,,,,,,,,,,,,0,9,9,3,,,AMSA19.jpg,AMSA01.jpg,AMNE10.jpg,AMNE13.jpg,AMSA19.jpg,MS,2,num_8,16,num_8,0.883479114855,,,2017_Sep_15_1809,60.0033680098,FEMA4ImagesEEG,001,101602,
AFNE01.JPG,AFNE01.JPG,AFNE01.JPG,AFNE01.JPG,AFNE01.JPG,AFNE01.JPG,,,,,,,,,,,,,,,,,,,,,1,0,10,2,,,AMNE15.jpg,AMSA14.jpg,AMSA13.jpg,AMNE14.jpg,AMNE15.jpg,MN,1,num_8,16,num_8,1.86669191951,,,2017_Sep_15_1809,60.0033680098,FEMA4ImagesEEG,001,101602,
AFNE01.JPG,AFNE01.JPG,AFNE01.JPG,AFNE01.JPG,AFNE01.JPG,AFNE01.JPG,,,,,,,,,,,,,,,,,,,,,1,1,11,0,,,AMNE17.jpg,AMNE06.jpg,AMSA16.jpg,AMSA19.jpg,AMNE06.jpg,MN,1,num_6,16,num_6,1.26673836261,,,2017_Sep_15_1809,60.0033680098,FEMA4ImagesEEG,001,101602,
AFNE01.JPG,AFNE01.JPG,AFNE01.JPG,AFNE01.JPG,AFNE01.JPG,AFNE01.JPG,,,,,,,,,,,,,,,,,,,,,1,2,12,3,,,AMNE09.jpg,AMSA04.jpg,AMSA02.jpg,AMNE19.jpg,AMNE09.jpg,MN,1,num_8,16,num_8,2.08335672063,,,2017_Sep_15_1809,60.0033680098,FEMA4ImagesEEG,001,101602,
AFNE01.JPG,AFNE01.JPG,AFNE01.JPG,AFNE01.JPG,AFNE01.JPG,AFNE01.JPG,,,,,,,,,,,,,,,,,,,,,1,3,13,5,,,AMSA14.jpg,AMNE08.jpg,AMSA03.jpg,AMNE19.jpg,AMNE08.jpg,MN,1,num_6,16,num_6,0.750134470174,,,2017_Sep_15_1809,60.0033680098,FEMA4ImagesEEG,001,101602,
AFNE01.JPG,AFNE01.JPG,AFNE01.JPG,AFNE01.JPG,AFNE01.JPG,AFNE01.JPG,,,,,,,,,,,,,,,,,,,,,1,4,14,4,,,AMSA16.jpg,AMNE12.jpg,AMNE14.jpg,AMSA19.jpg,AMSA19.jpg,MS,2,num_4,16,num_4,0.800089999568,,,2017_Sep_15_1809,60.0033680098,FEMA4ImagesEEG,001,101602,
AFNE01.JPG,AFNE01.JPG,AFNE01.JPG,AFNE01.JPG,AFNE01.JPG,AFNE01.JPG,,,,,,,,,,,,,,,,,,,,,1,5,15,1,,,AMNE11.jpg,AMNE17.jpg,AMSA09.jpg,AMSA16.jpg,AMNE17.jpg,MN,1,num_6,16,num_6,0.483489763457,,,2017_Sep_15_1809,60.0033680098,FEMA4ImagesEEG,001,101602,
AFNE01.JPG,AFNE01.JPG,AFNE01.JPG,AFNE01.JPG,AFNE01.JPG,AFNE01.JPG,,,,,,,,,,,,,,,,,,,,,1,6,16,7,,,AMNE09.jpg,AMSA17.jpg,AMNE07.jpg,AMSA10.jpg,AMSA10.jpg,MS,2,num_4,32,num_8,0.949921947904,,,2017_Sep_15_1809,60.0033680098,FEMA4ImagesEEG,001,101602,
AFNE01.JPG,AFNE01.JPG,AFNE01.JPG,AFNE01.JPG,AFNE01.JPG,AFNE01.JPG,,,,,,,,,,,,,,,,,,,,,1,7,17,9,,,AMNE14.jpg,AMSA03.jpg,AMNE17.jpg,AMSA09.jpg,AMSA09.jpg,MS,2,num_4,16,num_4,0.750139922602,,,2017_Sep_15_1809,60.0033680098,FEMA4ImagesEEG,001,101602,
AFNE01.JPG,AFNE01.JPG,AFNE01.JPG,AFNE01.JPG,AFNE01.JPG,AFNE01.JPG,,,,,,,,,,,,,,,,,,,,,1,8,18,6,,,AMSA12.jpg,AMNE20.jpg,AMNE16.jpg,AMSA14.jpg,AMNE16.jpg,MN,1,num_2,32,num_8,0.916759387357,,,2017_Sep_15_1809,60.0033680098,FEMA4ImagesEEG,001,101602,
AFNE01.JPG,AFNE01.JPG,AFNE01.JPG,AFNE01.JPG,AFNE01.JPG,AFNE01.JPG,,,,,,,,,,,,,,,,,,,,,1,9,19,8,,,AMNE16.jpg,AMSA07.jpg,AMNE17.jpg,AMSA11.jpg,AMSA07.jpg,MS,2,num_6,32,num_8,1.61672920571,,,2017_Sep_15_1809,60.0033680098,FEMA4ImagesEEG,001,101602,
AFNE01.JPG,AFNE01.JPG,AFNE01.JPG,AFNE01.JPG,AFNE01.JPG,AFNE01.JPG,,,,,,,,,,,,,,,,,,,,,2,0,20,5,,,AMNE12.jpg,AMSA15.jpg,AMNE08.jpg,AMSA13.jpg,AMNE12.jpg,MN,1,num_8,16,num_8,1.2169515423,,,2017_Sep_15_1809,60.0033680098,FEMA4ImagesEEG,001,101602,
AFNE01.JPG,AFNE01.JPG,AFNE01.JPG,AFNE01.JPG,AFNE01.JPG,AFNE01.JPG,,,,,,,,,,,,,,,,,,,,,2,1,21,2,,,AMSA03.jpg,AMNE16.jpg,AMNE20.jpg,AMSA07.jpg,AMNE20.jpg,MN,1,num_2,16,num_2,0.566828843439,,,2017_Sep_15_1809,60.0033680098,FEMA4ImagesEEG,001,101602,
AFNE01.JPG,AFNE01.JPG,AFNE01.JPG,AFNE01.JPG,AFNE01.JPG,AFNE01.JPG,,,,,,,,,,,,,,,,,,,,,2,2,22,7,,,AMSA18.jpg,AMNE01.jpg,AMSA05.jpg,AMNE13.jpg,AMNE01.jpg,MN,1,num_6,32,num_8,1.31678851042,,,2017_Sep_15_1809,60.0033680098,FEMA4ImagesEEG,001,101602,
AFNE01.JPG,AFNE01.JPG,AFNE01.JPG,AFNE01.JPG,AFNE01.JPG,AFNE01.JPG,,,,,,,,,,,,,,,,,,,,,2,3,23,3,,,AMSA05.jpg,AMNE20.jpg,AMNE10.jpg,AMSA03.jpg,AMSA05.jpg,MS,2,num_8,32,num_6,0.616787580075,,,2017_Sep_15_1809,60.0033680098,FEMA4ImagesEEG,001,101602,
AFNE01.JPG,AFNE01.JPG,AFNE01.JPG,AFNE01.JPG,AFNE01.JPG,AFNE01.JPG,,,,,,,,,,,,,,,,,,,,,2,4,24,4,,,AMSA14.jpg,AMNE17.jpg,AMNE01.jpg,AMSA19.jpg,AMSA14.jpg,MS,2,num_8,16,num_8,0.600139585789,,,2017_Sep_15_1809,60.0033680098,FEMA4ImagesEEG,001,101602,
AFNE01.JPG,AFNE01.JPG,AFNE01.JPG,AFNE01.JPG,AFNE01.JPG,AFNE01.JPG,,,,,,,,,,,,,,,,,,,,,2,5,25,8,,,AMNE10.jpg,AMNE04.jpg,AMSA07.jpg,AMSA18.jpg,AMNE10.jpg,MN,1,num_8,16,num_8,0.983448869083,,,2017_Sep_15_1809,60.0033680098,FEMA4ImagesEEG,001,101602,
AFNE01.JPG,AFNE01.JPG,AFNE01.JPG,AFNE01.JPG,AFNE01.JPG,AFNE01.JPG,,,,,,,,,,,,,,,,,,,,,2,6,26,6,,,AMNE12.jpg,AMSA20.jpg,AMSA13.jpg,AMNE06.jpg,AMNE12.jpg,MN,1,num_8,16,num_8,1.03346726368,,,2017_Sep_15_1809,60.0033680098,FEMA4ImagesEEG,001,101602,
AFNE01.JPG,AFNE01.JPG,AFNE01.JPG,AFNE01.JPG,AFNE01.JPG,AFNE01.JPG,,,,,,,,,,,,,,,,,,,,,2,7,27,9,,,AMSA07.jpg,AMNE10.jpg,AMNE12.jpg,AMSA01.jpg,AMNE10.jpg,MN,1,num_6,16,num_6,1.0002161786,,,2017_Sep_15_1809,60.0033680098,FEMA4ImagesEEG,001,101602,
AFNE01.JPG,AFNE01.JPG,AFNE01.JPG,AFNE01.JPG,AFNE01.JPG,AFNE01.JPG,,,,,,,,,,,,,,,,,,,,,2,8,28,1,,,AMNE19.jpg,AMSA03.jpg,AMSA17.jpg,AMNE11.jpg,AMSA03.jpg,MS,2,num_6,16,num_6,0.650105699897,,,2017_Sep_15_1809,60.0033680098,FEMA4ImagesEEG,001,101602,
AFNE01.JPG,AFNE01.JPG,AFNE01.JPG,AFNE01.JPG,AFNE01.JPG,AFNE01.JPG,,,,,,,,,,,,,,,,,,,,,2,9,29,0,,,AMNE16.jpg,AMSA05.jpg,AMNE03.jpg,AMSA08.jpg,AMSA05.jpg,MS,2,num_6,32,num_8,1.15010008682,,,2017_Sep_15_1809,60.0033680098,FEMA4ImagesEEG,001,101602,
AFNE01.JPG,AFNE01.JPG,AFNE01.JPG,AFNE01.JPG,AFNE01.JPG,AFNE01.JPG,,,,,,,,,,,,,,,,,,,,,3,0,30,9,,,AMNE03.jpg,AMNE04.jpg,AMSA20.jpg,AMSA01.jpg,AMSA20.jpg,MS,2,num_2,32,num_8,2.44999908609,,,2017_Sep_15_1809,60.0033680098,FEMA4ImagesEEG,001,101602,
AFNE01.JPG,AFNE01.JPG,AFNE01.JPG,AFNE01.JPG,AFNE01.JPG,AFNE01.JPG,,,,,,,,,,,,,,,,,,,,,3,1,31,6,,,AMSA06.jpg,AMNE18.jpg,AMNE03.jpg,AMSA04.jpg,AMSA04.jpg,MS,2,num_4,16,num_4,0.416787131224,,,2017_Sep_15_1809,60.0033680098,FEMA4ImagesEEG,001,101602,
AFNE01.JPG,AFNE01.JPG,AFNE01.JPG,AFNE01.JPG,AFNE01.JPG,AFNE01.JPG,,,,,,,,,,,,,,,,,,,,,3,2,32,1,,,AMSA02.jpg,AMNE12.jpg,AMNE06.jpg,AMSA07.jpg,AMNE06.jpg,MN,1,num_2,32,num_6,0.883489699336,,,2017_Sep_15_1809,60.0033680098,FEMA4ImagesEEG,001,101602,
AFNE01.JPG,AFNE01.JPG,AFNE01.JPG,AFNE01.JPG,AFNE01.JPG,AFNE01.JPG,,,,,,,,,,,,,,,,,,,,,3,3,33,8,,,AMSA19.jpg,AMSA08.jpg,AMNE06.jpg,AMNE04.jpg,AMSA19.jpg,MS,2,num_8,16,num_8,1.10010895529,,,2017_Sep_15_1809,60.0033680098,FEMA4ImagesEEG,001,101602,
AFNE01.JPG,AFNE01.JPG,AFNE01.JPG,AFNE01.JPG,AFNE01.JPG,AFNE01.JPG,,,,,,,,,,,,,,,,,,,,,3,4,34,0,,,AMSA09.jpg,AMNE03.jpg,AMSA17.jpg,AMNE19.jpg,AMSA09.jpg,MS,2,num_8,32,num_6,1.05013097404,,,2017_Sep_15_1809,60.0033680098,FEMA4ImagesEEG,001,101602,
AFNE01.JPG,AFNE01.JPG,AFNE01.JPG,AFNE01.JPG,AFNE01.JPG,AFNE01.JPG,,,,,,,,,,,,,,,,,,,,,3,5,35,2,,,AMNE11.jpg,AMNE14.jpg,AMSA04.jpg,AMSA14.jpg,AMNE11.jpg,MN,1,num_8,32,num_2,1.01675063092,,,2017_Sep_15_1809,60.0033680098,FEMA4ImagesEEG,001,101602,
AFNE01.JPG,AFNE01.JPG,AFNE01.JPG,AFNE01.JPG,AFNE01.JPG,AFNE01.JPG,,,,,,,,,,,,,,,,,,,,,3,6,36,7,,,AMNE16.jpg,AMSA11.jpg,AMNE20.jpg,AMSA15.jpg,AMNE20.jpg,MN,1,num_2,16,num_2,0.700115754968,,,2017_Sep_15_1809,60.0033680098,FEMA4ImagesEEG,001,101602,
AFNE01.JPG,AFNE01.JPG,AFNE01.JPG,AFNE01.JPG,AFNE01.JPG,AFNE01.JPG,,,,,,,,,,,,,,,,,,,,,3,7,37,5,,,AMNE13.jpg,AMSA03.jpg,AMSA10.jpg,AMNE12.jpg,AMSA03.jpg,MS,2,num_6,32,num_2,1.31672853208,,,2017_Sep_15_1809,60.0033680098,FEMA4ImagesEEG,001,101602,
AFNE01.JPG,AFNE01.JPG,AFNE01.JPG,AFNE01.JPG,AFNE01.JPG,AFNE01.JPG,,,,,,,,,,,,,,,,,,,,,3,8,38,3,,,AMNE08.jpg,AMNE01.jpg,AMSA14.jpg,AMSA10.jpg,AMNE08.jpg,MN,1,num_8,32,num_6,0.700163865928,,,2017_Sep_15_1809,60.0033680098,FEMA4ImagesEEG,001,101602,
