IPosition2,IPosition3,IPosition1,IPosition6,IPosition4,IPosition5,TrialsM1.thisRepN,TrialsM1.thisTrialN,TrialsM1.thisN,TrialsM1.thisIndex,TrialsF1.thisRepN,TrialsF1.thisTrialN,TrialsF1.thisN,TrialsF1.thisIndex,TrialsM2.thisRepN,TrialsM2.thisTrialN,TrialsM2.thisN,TrialsM2.thisIndex,TrialsF2.thisRepN,TrialsF2.thisTrialN,TrialsF2.thisN,TrialsF2.thisIndex,TrialsM3.thisRepN,TrialsM3.thisTrialN,TrialsM3.thisN,TrialsM3.thisIndex,TrialsF3.thisRepN,TrialsF3.thisTrialN,TrialsF3.thisN,TrialsF3.thisIndex,InstrKey_resp.keys,InstrKey_resp.rt,Image0 _Position,Image1 _Position,Image2 _Position,Image3 _Position,Center_image,condition,code,correct_answer,accuracy,Key_Resp.keys,Key_Resp.rt,BreakKey_resp.keys,BreakKey_resp.rt,date,frameRate,expName,session,participant,
,,,,,,,,,,,,,,,,,,,,,,,,,,,,,,space,17.8992351643,,,,,,,,,,,,,,2017_Sep_26_1612,60.0164391868,MAFE4ImagesEEG,001,101613,
AMSA21.JPG,AMNE22.JPG,AMNE21.JPG,AMSA23.JPG,AMSA22.JPG,AMNE23.JPG,0,0,0,1,,,,,,,,,,,,,,,,,,,,,,,AMNE06.jpg,AMNE15.jpg,AMSA15.jpg,AMSA02.jpg,AMSA15.jpg,MS,2,num_2,32,num_8,2.05000747327,,,2017_Sep_26_1612,60.0164391868,MAFE4ImagesEEG,001,101613,
AMSA21.JPG,AMNE23.JPG,AMNE21.JPG,AMSA25.JPG,AMNE25.JPG,AMSA23.JPG,0,1,1,5,,,,,,,,,,,,,,,,,,,,,,,AMNE05.jpg,AMNE08.jpg,AMSA14.jpg,AMSA01.jpg,AMSA14.jpg,MS,2,num_2,16,num_2,1.25016405829,,,2017_Sep_26_1612,60.0164391868,MAFE4ImagesEEG,001,101613,
AFNE22.JPG,AFSA24.JPG,AFSA22.JPG,AFNE25.JPG,AFNE24.JPG,AFSA25.JPG,0,2,2,6,,,,,,,,,,,,,,,,,,,,,,,AMNE06.jpg,AMNE02.jpg,AMSA01.jpg,AMSA10.jpg,AMSA10.jpg,MS,2,num_4,16,num_4,1.13449509494,,,2017_Sep_26_1612,60.0164391868,MAFE4ImagesEEG,001,101613,
AMNE23.JPG,AMNE24.JPG,AMNE22.JPG,AMSA24.JPG,AMSA22.JPG,AMSA23.JPG,0,3,3,9,,,,,,,,,,,,,,,,,,,,,,,AMNE17.jpg,AMSA15.jpg,AMSA20.jpg,AMNE14.jpg,AMNE14.jpg,MN,1,num_4,16,num_4,1.90003957925,,,2017_Sep_26_1612,60.0164391868,MAFE4ImagesEEG,001,101613,
AFNE23.JPG,AFNE24.JPG,AFNE22.JPG,AFSA24.JPG,AFSA22.JPG,AFSA23.JPG,0,4,4,8,,,,,,,,,,,,,,,,,,,,,,,AMSA10.jpg,AMSA02.jpg,AMNE01.jpg,AMNE13.jpg,AMSA02.jpg,MS,2,num_6,32,num_2,1.81673805258,,,2017_Sep_26_1612,60.0164391868,MAFE4ImagesEEG,001,101613,
AFSA21.JPG,AFNE22.JPG,AFNE21.JPG,AFSA23.JPG,AFSA22.JPG,AFNE23.JPG,0,5,5,0,,,,,,,,,,,,,,,,,,,,,,,AMSA12.jpg,AMSA18.jpg,AMNE02.jpg,AMNE06.jpg,AMSA18.jpg,MS,2,num_6,16,num_6,0.90005914442,,,2017_Sep_26_1612,60.0164391868,MAFE4ImagesEEG,001,101613,
AFSA25.JPG,AFNE24.JPG,AFSA24.JPG,AFNE21.JPG,AFSA21.JPG,AFNE25.JPG,0,6,6,2,,,,,,,,,,,,,,,,,,,,,,,AMSA10.jpg,AMNE15.jpg,AMNE18.jpg,AMSA09.jpg,AMSA09.jpg,MS,2,num_4,32,num_2,1.48354605853,,,2017_Sep_26_1612,60.0164391868,MAFE4ImagesEEG,001,101613,
AMNE22.JPG,AMSA24.JPG,AMSA22.JPG,AMNE25.JPG,AMNE24.JPG,AMSA25.JPG,0,7,7,7,,,,,,,,,,,,,,,,,,,,,,,AMSA14.jpg,AMSA09.jpg,AMNE14.jpg,AMNE16.jpg,AMNE14.jpg,MN,1,num_2,16,num_2,1.13348252,,,2017_Sep_26_1612,60.0164391868,MAFE4ImagesEEG,001,101613,
AFSA21.JPG,AFNE23.JPG,AFNE21.JPG,AFSA25.JPG,AFNE25.JPG,AFSA23.JPG,0,8,8,4,,,,,,,,,,,,,,,,,,,,,,,AMNE14.jpg,AMSA15.jpg,AMSA05.jpg,AMNE19.jpg,AMNE14.jpg,MN,1,num_8,32,num_4,1.16674738616,,,2017_Sep_26_1612,60.0164391868,MAFE4ImagesEEG,001,101613,
AMSA25.JPG,AMNE24.JPG,AMSA24.JPG,AMNE26.JPG,AMSA21.JPG,AMNE25.JPG,0,9,9,3,,,,,,,,,,,,,,,,,,,,,,,AMSA16.jpg,AMSA12.jpg,AMNE04.jpg,AMNE19.jpg,AMSA16.jpg,MS,2,num_8,32,num_4,1.00016999198,,,2017_Sep_26_1612,60.0164391868,MAFE4ImagesEEG,001,101613,
AMSA21.JPG,AMNE22.JPG,AMNE21.JPG,AMSA23.JPG,AMSA22.JPG,AMNE23.JPG,,,,,0,0,0,1,,,,,,,,,,,,,,,,,,,AFSA20.jpg,AFSA16.jpg,AFNE14.jpg,AFNE08.jpg,AFNE14.jpg,FN,3,num_2,16,num_2,1.71659769694,,,2017_Sep_26_1612,60.0164391868,MAFE4ImagesEEG,001,101613,
AFSA25.JPG,AFNE24.JPG,AFSA24.JPG,AFNE21.JPG,AFSA21.JPG,AFNE25.JPG,,,,,0,1,1,2,,,,,,,,,,,,,,,,,,,AFSA08.jpg,AFSA05.jpg,AFNE08.jpg,AFNE19.jpg,AFSA05.jpg,FS,4,num_6,16,num_6,1.20011809631,,,2017_Sep_26_1612,60.0164391868,MAFE4ImagesEEG,001,101613,
AMSA25.JPG,AMNE24.JPG,AMSA24.JPG,AMNE26.JPG,AMSA21.JPG,AMNE25.JPG,,,,,0,2,2,3,,,,,,,,,,,,,,,,,,,AFSA03.jpg,AFSA12.jpg,AFNE08.jpg,AFNE06.jpg,AFSA03.jpg,FS,4,num_8,16,num_8,0.58347665047,,,2017_Sep_26_1612,60.0164391868,MAFE4ImagesEEG,001,101613,
AMNE22.JPG,AMSA24.JPG,AMSA22.JPG,AMNE25.JPG,AMNE24.JPG,AMSA25.JPG,,,,,0,3,3,7,,,,,,,,,,,,,,,,,,,AFSA04.jpg,AFNE07.jpg,AFNE05.jpg,AFSA17.jpg,AFNE05.jpg,FN,3,num_2,32,num_4,1.70005106169,,,2017_Sep_26_1612,60.0164391868,MAFE4ImagesEEG,001,101613,
AMSA21.JPG,AMNE23.JPG,AMNE21.JPG,AMSA25.JPG,AMNE25.JPG,AMSA23.JPG,,,,,0,4,4,5,,,,,,,,,,,,,,,,,,,AFNE16.jpg,AFSA10.jpg,AFNE07.jpg,AFSA01.jpg,AFSA10.jpg,FS,4,num_6,16,num_6,0.783461639832,,,2017_Sep_26_1612,60.0164391868,MAFE4ImagesEEG,001,101613,
AMNE23.JPG,AMNE24.JPG,AMNE22.JPG,AMSA24.JPG,AMSA22.JPG,AMSA23.JPG,,,,,0,5,5,9,,,,,,,,,,,,,,,,,,,AFNE02.jpg,AFSA18.jpg,AFNE05.jpg,AFSA17.jpg,AFSA17.jpg,FS,4,num_4,16,num_4,0.900159856654,,,2017_Sep_26_1612,60.0164391868,MAFE4ImagesEEG,001,101613,
AFSA21.JPG,AFNE22.JPG,AFNE21.JPG,AFSA23.JPG,AFSA22.JPG,AFNE23.JPG,,,,,0,6,6,0,,,,,,,,,,,,,,,,,,,AFNE14.jpg,AFNE08.jpg,AFSA09.jpg,AFSA11.jpg,AFNE08.jpg,FN,3,num_6,16,num_6,1.26674084307,,,2017_Sep_26_1612,60.0164391868,MAFE4ImagesEEG,001,101613,
AFSA21.JPG,AFNE23.JPG,AFNE21.JPG,AFSA25.JPG,AFNE25.JPG,AFSA23.JPG,,,,,0,7,7,4,,,,,,,,,,,,,,,,,,,AFNE16.jpg,AFSA12.jpg,AFSA14.jpg,AFNE14.jpg,AFNE16.jpg,FN,3,num_8,32,num_6,1.13344371057,,,2017_Sep_26_1612,60.0164391868,MAFE4ImagesEEG,001,101613,
AFNE22.JPG,AFSA24.JPG,AFSA22.JPG,AFNE25.JPG,AFNE24.JPG,AFSA25.JPG,,,,,0,8,8,6,,,,,,,,,,,,,,,,,,,AFNE12.jpg,AFSA13.jpg,AFSA11.jpg,AFNE04.jpg,AFSA13.jpg,FS,4,num_6,16,num_6,1.11707316135,,,2017_Sep_26_1612,60.0164391868,MAFE4ImagesEEG,001,101613,
AFNE23.JPG,AFNE24.JPG,AFNE22.JPG,AFSA24.JPG,AFSA22.JPG,AFSA23.JPG,,,,,0,9,9,8,,,,,,,,,,,,,,,,,,,AFNE15.jpg,AFSA02.jpg,AFNE01.jpg,AFSA16.jpg,AFNE15.jpg,FN,3,num_8,16,num_8,1.21676865115,,,2017_Sep_26_1612,60.0164391868,MAFE4ImagesEEG,001,101613,
AMSA21.JPG,AMNE22.JPG,AMNE21.JPG,AMSA23.JPG,AMSA22.JPG,AMNE23.JPG,,,,,,,,,0,0,0,1,,,,,,,,,,,,,,,AMSA06.jpg,AMSA15.jpg,AMNE13.jpg,AMNE10.jpg,AMNE10.jpg,MN,1,num_4,16,num_4,0.716791423678,,,2017_Sep_26_1612,60.0164391868,MAFE4ImagesEEG,001,101613,
AMSA25.JPG,AMNE24.JPG,AMSA24.JPG,AMNE26.JPG,AMSA21.JPG,AMNE25.JPG,,,,,,,,,0,1,1,3,,,,,,,,,,,,,,,AMNE04.jpg,AMNE14.jpg,AMSA12.jpg,AMSA01.jpg,AMNE04.jpg,MN,1,num_8,16,num_8,0.916722849535,,,2017_Sep_26_1612,60.0164391868,MAFE4ImagesEEG,001,101613,
AFSA25.JPG,AFNE24.JPG,AFSA24.JPG,AFNE21.JPG,AFSA21.JPG,AFNE25.JPG,,,,,,,,,0,2,2,2,,,,,,,,,,,,,,,AMSA16.jpg,AMNE02.jpg,AMNE10.jpg,AMSA06.jpg,AMSA06.jpg,MS,2,num_4,16,num_4,1.06679241796,,,2017_Sep_26_1612,60.0164391868,MAFE4ImagesEEG,001,101613,
AMSA21.JPG,AMNE23.JPG,AMNE21.JPG,AMSA25.JPG,AMNE25.JPG,AMSA23.JPG,,,,,,,,,0,3,3,5,,,,,,,,,,,,,,,AMNE04.jpg,AMSA14.jpg,AMNE19.jpg,AMSA12.jpg,AMSA14.jpg,MS,2,num_6,16,num_6,0.650147187407,,,2017_Sep_26_1612,60.0164391868,MAFE4ImagesEEG,001,101613,
AFSA21.JPG,AFNE22.JPG,AFNE21.JPG,AFSA23.JPG,AFSA22.JPG,AFNE23.JPG,,,,,,,,,0,4,4,0,,,,,,,,,,,,,,,AMSA03.jpg,AMNE12.jpg,AMSA06.jpg,AMNE11.jpg,AMSA03.jpg,MS,2,num_8,16,num_8,0.766793444345,,,2017_Sep_26_1612,60.0164391868,MAFE4ImagesEEG,001,101613,
AMNE23.JPG,AMNE24.JPG,AMNE22.JPG,AMSA24.JPG,AMSA22.JPG,AMSA23.JPG,,,,,,,,,0,5,5,9,,,,,,,,,,,,,,,AMSA20.jpg,AMSA12.jpg,AMNE12.jpg,AMNE08.jpg,AMSA12.jpg,MS,2,num_6,32,num_8,0.850489801436,,,2017_Sep_26_1612,60.0164391868,MAFE4ImagesEEG,001,101613,
AFNE23.JPG,AFNE24.JPG,AFNE22.JPG,AFSA24.JPG,AFSA22.JPG,AFSA23.JPG,,,,,,,,,0,6,6,8,,,,,,,,,,,,,,,AMNE09.jpg,AMSA03.jpg,AMNE06.jpg,AMSA06.jpg,AMSA06.jpg,MS,2,num_4,32,num_6,1.31674927851,,,2017_Sep_26_1612,60.0164391868,MAFE4ImagesEEG,001,101613,
AMNE22.JPG,AMSA24.JPG,AMSA22.JPG,AMNE25.JPG,AMNE24.JPG,AMSA25.JPG,,,,,,,,,0,7,7,7,,,,,,,,,,,,,,,AMSA03.jpg,AMNE13.jpg,AMSA07.jpg,AMNE17.jpg,AMNE13.jpg,MN,1,num_6,32,num_4,1.10013554455,,,2017_Sep_26_1612,60.0164391868,MAFE4ImagesEEG,001,101613,
AFNE22.JPG,AFSA24.JPG,AFSA22.JPG,AFNE25.JPG,AFNE24.JPG,AFSA25.JPG,,,,,,,,,0,8,8,6,,,,,,,,,,,,,,,AMNE03.jpg,AMSA09.jpg,AMSA08.jpg,AMNE10.jpg,AMSA08.jpg,MS,2,num_2,16,num_2,0.666799987433,,,2017_Sep_26_1612,60.0164391868,MAFE4ImagesEEG,001,101613,
AFSA21.JPG,AFNE23.JPG,AFNE21.JPG,AFSA25.JPG,AFNE25.JPG,AFSA23.JPG,,,,,,,,,0,9,9,4,,,,,,,,,,,,,,,AMSA15.jpg,AMSA06.jpg,AMNE08.jpg,AMNE12.jpg,AMNE12.jpg,MN,1,num_4,16,num_4,1.13345397415,,,2017_Sep_26_1612,60.0164391868,MAFE4ImagesEEG,001,101613,
AMNE22.JPG,AMSA24.JPG,AMSA22.JPG,AMNE25.JPG,AMNE24.JPG,AMSA25.JPG,,,,,,,,,,,,,0,0,0,7,,,,,,,,,,,AFSA14.jpg,AFSA13.jpg,AFNE19.jpg,AFNE13.jpg,AFNE13.jpg,FN,3,num_4,32,num_2,1.76670652395,,,2017_Sep_26_1612,60.0164391868,MAFE4ImagesEEG,001,101613,
AFNE22.JPG,AFSA24.JPG,AFSA22.JPG,AFNE25.JPG,AFNE24.JPG,AFSA25.JPG,,,,,,,,,,,,,0,1,1,6,,,,,,,,,,,AFNE04.jpg,AFNE01.jpg,AFSA15.jpg,AFSA08.jpg,AFSA15.jpg,FS,4,num_2,32,num_4,1.11677840166,,,2017_Sep_26_1612,60.0164391868,MAFE4ImagesEEG,001,101613,
AFNE23.JPG,AFNE24.JPG,AFNE22.JPG,AFSA24.JPG,AFSA22.JPG,AFSA23.JPG,,,,,,,,,,,,,0,2,2,8,,,,,,,,,,,AFNE08.jpg,AFSA09.jpg,AFNE03.jpg,AFSA15.jpg,AFSA15.jpg,FS,4,num_4,32,num_6,0.583498781547,,,2017_Sep_26_1612,60.0164391868,MAFE4ImagesEEG,001,101613,
AFSA21.JPG,AFNE23.JPG,AFNE21.JPG,AFSA25.JPG,AFNE25.JPG,AFSA23.JPG,,,,,,,,,,,,,0,3,3,4,,,,,,,,,,,AFSA20.jpg,AFNE04.jpg,AFNE05.jpg,AFSA06.jpg,AFSA06.jpg,FS,4,num_4,32,num_8,1.35011389462,,,2017_Sep_26_1612,60.0164391868,MAFE4ImagesEEG,001,101613,
AFSA21.JPG,AFNE22.JPG,AFNE21.JPG,AFSA23.JPG,AFSA22.JPG,AFNE23.JPG,,,,,,,,,,,,,0,4,4,0,,,,,,,,,,,AFNE08.jpg,AFNE13.jpg,AFSA02.jpg,AFSA12.jpg,AFSA12.jpg,FS,4,num_4,16,num_4,0.550158862316,,,2017_Sep_26_1612,60.0164391868,MAFE4ImagesEEG,001,101613,
AMSA21.JPG,AMNE22.JPG,AMNE21.JPG,AMSA23.JPG,AMSA22.JPG,AMNE23.JPG,,,,,,,,,,,,,0,5,5,1,,,,,,,,,,,AFSA10.jpg,AFNE12.jpg,AFSA16.jpg,AFNE18.jpg,AFSA10.jpg,FS,4,num_8,32,num_6,0.816639264813,,,2017_Sep_26_1612,60.0164391868,MAFE4ImagesEEG,001,101613,
AMSA21.JPG,AMNE23.JPG,AMNE21.JPG,AMSA25.JPG,AMNE25.JPG,AMSA23.JPG,,,,,,,,,,,,,0,6,6,5,,,,,,,,,,,AFNE15.jpg,AFSA08.jpg,AFNE01.jpg,AFSA02.jpg,AFNE01.jpg,FN,3,num_2,16,num_2,1.21675421792,,,2017_Sep_26_1612,60.0164391868,MAFE4ImagesEEG,001,101613,
AMNE23.JPG,AMNE24.JPG,AMNE22.JPG,AMSA24.JPG,AMSA22.JPG,AMSA23.JPG,,,,,,,,,,,,,0,7,7,9,,,,,,,,,,,AFSA11.jpg,AFSA12.jpg,AFNE09.jpg,AFNE15.jpg,AFNE09.jpg,FN,3,num_2,32,num_4,0.883479152282,,,2017_Sep_26_1612,60.0164391868,MAFE4ImagesEEG,001,101613,
AFSA25.JPG,AFNE24.JPG,AFSA24.JPG,AFNE21.JPG,AFSA21.JPG,AFNE25.JPG,,,,,,,,,,,,,0,8,8,2,,,,,,,,,,,AFSA04.jpg,AFNE08.jpg,AFNE03.jpg,AFSA20.jpg,AFNE03.jpg,FN,3,num_2,32,num_4,0.683493200631,,,2017_Sep_26_1612,60.0164391868,MAFE4ImagesEEG,001,101613,
AMSA25.JPG,AMNE24.JPG,AMSA24.JPG,AMNE26.JPG,AMSA21.JPG,AMNE25.JPG,,,,,,,,,,,,,0,9,9,3,,,,,,,,,,,AFSA17.jpg,AFNE02.jpg,AFSA07.jpg,AFNE05.jpg,AFNE02.jpg,FN,3,num_6,16,num_6,1.1001313749,,,2017_Sep_26_1612,60.0164391868,MAFE4ImagesEEG,001,101613,
AMNE23.JPG,AMNE24.JPG,AMNE22.JPG,AMSA24.JPG,AMSA22.JPG,AMSA23.JPG,,,,,,,,,,,,,,,,,0,0,0,9,,,,,,,AMNE08.jpg,AMSA18.jpg,AMSA02.jpg,AMNE09.jpg,AMNE09.jpg,MN,1,num_4,16,num_4,1.66678587487,,,2017_Sep_26_1612,60.0164391868,MAFE4ImagesEEG,001,101613,
AMSA21.JPG,AMNE22.JPG,AMNE21.JPG,AMSA23.JPG,AMSA22.JPG,AMNE23.JPG,,,,,,,,,,,,,,,,,0,1,1,1,,,,,,,AMSA07.jpg,AMNE11.jpg,AMSA12.jpg,AMNE06.jpg,AMNE11.jpg,MN,1,num_6,32,num_4,0.550243216858,,,2017_Sep_26_1612,60.0164391868,MAFE4ImagesEEG,001,101613,
AFNE23.JPG,AFNE24.JPG,AFNE22.JPG,AFSA24.JPG,AFSA22.JPG,AFSA23.JPG,,,,,,,,,,,,,,,,,0,2,2,8,,,,,,,AMSA10.jpg,AMNE08.jpg,AMSA11.jpg,AMNE13.jpg,AMNE08.jpg,MN,1,num_6,16,num_6,0.850163288531,,,2017_Sep_26_1612,60.0164391868,MAFE4ImagesEEG,001,101613,
AMNE22.JPG,AMSA24.JPG,AMSA22.JPG,AMNE25.JPG,AMNE24.JPG,AMSA25.JPG,,,,,,,,,,,,,,,,,0,3,3,7,,,,,,,AMNE02.jpg,AMNE19.jpg,AMSA02.jpg,AMSA06.jpg,AMSA06.jpg,MS,2,num_4,16,num_4,0.633469048946,,,2017_Sep_26_1612,60.0164391868,MAFE4ImagesEEG,001,101613,
AFSA25.JPG,AFNE24.JPG,AFSA24.JPG,AFNE21.JPG,AFSA21.JPG,AFNE25.JPG,,,,,,,,,,,,,,,,,0,4,4,2,,,,,,,AMSA10.jpg,AMNE02.jpg,AMSA03.jpg,AMNE12.jpg,AMNE12.jpg,MN,1,num_4,16,num_4,1.4833943487,,,2017_Sep_26_1612,60.0164391868,MAFE4ImagesEEG,001,101613,
AFSA21.JPG,AFNE22.JPG,AFNE21.JPG,AFSA23.JPG,AFSA22.JPG,AFNE23.JPG,,,,,,,,,,,,,,,,,0,5,5,0,,,,,,,AMSA13.jpg,AMSA04.jpg,AMNE19.jpg,AMNE07.jpg,AMSA04.jpg,MS,2,num_6,16,num_6,1.55005173525,,,2017_Sep_26_1612,60.0164391868,MAFE4ImagesEEG,001,101613,
AMSA21.JPG,AMNE23.JPG,AMNE21.JPG,AMSA25.JPG,AMNE25.JPG,AMSA23.JPG,,,,,,,,,,,,,,,,,0,6,6,5,,,,,,,AMNE02.jpg,AMSA20.jpg,AMSA19.jpg,AMNE04.jpg,AMSA20.jpg,MS,2,num_6,16,num_6,1.38340762729,,,2017_Sep_26_1612,60.0164391868,MAFE4ImagesEEG,001,101613,
AMSA25.JPG,AMNE24.JPG,AMSA24.JPG,AMNE26.JPG,AMSA21.JPG,AMNE25.JPG,,,,,,,,,,,,,,,,,0,7,7,3,,,,,,,AMSA04.jpg,AMNE20.jpg,AMSA02.jpg,AMNE16.jpg,AMSA04.jpg,MS,2,num_8,32,num_6,0.633537366462,,,2017_Sep_26_1612,60.0164391868,MAFE4ImagesEEG,001,101613,
AFNE22.JPG,AFSA24.JPG,AFSA22.JPG,AFNE25.JPG,AFNE24.JPG,AFSA25.JPG,,,,,,,,,,,,,,,,,0,8,8,6,,,,,,,AMNE01.jpg,AMSA06.jpg,AMSA07.jpg,AMNE09.jpg,AMNE01.jpg,MN,1,num_8,16,num_8,0.583693791181,,,2017_Sep_26_1612,60.0164391868,MAFE4ImagesEEG,001,101613,
AFSA21.JPG,AFNE23.JPG,AFNE21.JPG,AFSA25.JPG,AFNE25.JPG,AFSA23.JPG,,,,,,,,,,,,,,,,,0,9,9,4,,,,,,,AMNE04.jpg,AMNE12.jpg,AMSA17.jpg,AMSA05.jpg,AMSA05.jpg,MS,2,num_4,16,num_4,0.850011578703,,,2017_Sep_26_1612,60.0164391868,MAFE4ImagesEEG,001,101613,
AMNE22.JPG,AMSA24.JPG,AMSA22.JPG,AMNE25.JPG,AMNE24.JPG,AMSA25.JPG,,,,,,,,,,,,,,,,,,,,,0,0,0,7,,,AFNE03.jpg,AFSA03.jpg,AFNE14.jpg,AFSA11.jpg,AFNE14.jpg,FN,3,num_2,32,num_8,0.900152158865,,,2017_Sep_26_1612,60.0164391868,MAFE4ImagesEEG,001,101613,
AFNE22.JPG,AFSA24.JPG,AFSA22.JPG,AFNE25.JPG,AFNE24.JPG,AFSA25.JPG,,,,,,,,,,,,,,,,,,,,,0,1,1,6,,,AFSA15.jpg,AFNE12.jpg,AFNE04.jpg,AFSA18.jpg,AFSA18.jpg,FS,4,num_4,16,num_4,0.73347309028,,,2017_Sep_26_1612,60.0164391868,MAFE4ImagesEEG,001,101613,
AMNE23.JPG,AMNE24.JPG,AMNE22.JPG,AMSA24.JPG,AMSA22.JPG,AMSA23.JPG,,,,,,,,,,,,,,,,,,,,,0,2,2,9,,,AFNE02.jpg,AFSA12.jpg,AFNE14.jpg,AFSA16.jpg,AFSA12.jpg,FS,4,num_6,16,num_6,0.583501026675,,,2017_Sep_26_1612,60.0164391868,MAFE4ImagesEEG,001,101613,
AMSA21.JPG,AMNE22.JPG,AMNE21.JPG,AMSA23.JPG,AMSA22.JPG,AMNE23.JPG,,,,,,,,,,,,,,,,,,,,,0,3,3,1,,,AFSA18.jpg,AFNE08.jpg,AFNE19.jpg,AFSA06.jpg,AFNE08.jpg,FN,3,num_6,16,num_6,0.88333898905,,,2017_Sep_26_1612,60.0164391868,MAFE4ImagesEEG,001,101613,
AMSA21.JPG,AMNE23.JPG,AMNE21.JPG,AMSA25.JPG,AMNE25.JPG,AMSA23.JPG,,,,,,,,,,,,,,,,,,,,,0,4,4,5,,,AFNE05.jpg,AFNE10.jpg,AFSA20.jpg,AFSA05.jpg,AFSA05.jpg,FS,4,num_4,16,num_4,1.20009339938,,,2017_Sep_26_1612,60.0164391868,MAFE4ImagesEEG,001,101613,
AFNE23.JPG,AFNE24.JPG,AFNE22.JPG,AFSA24.JPG,AFSA22.JPG,AFSA23.JPG,,,,,,,,,,,,,,,,,,,,,0,5,5,8,,,AFNE12.jpg,AFSA19.jpg,AFNE05.jpg,AFSA03.jpg,AFNE05.jpg,FN,3,num_2,32,num_4,0.533330296981,,,2017_Sep_26_1612,60.0164391868,MAFE4ImagesEEG,001,101613,
AFSA21.JPG,AFNE23.JPG,AFNE21.JPG,AFSA25.JPG,AFNE25.JPG,AFSA23.JPG,,,,,,,,,,,,,,,,,,,,,0,6,6,4,,,AFSA17.jpg,AFSA16.jpg,AFNE05.jpg,AFNE20.jpg,AFNE05.jpg,FN,3,num_2,32,num_6,0.950136218104,,,2017_Sep_26_1612,60.0164391868,MAFE4ImagesEEG,001,101613,
AFSA21.JPG,AFNE22.JPG,AFNE21.JPG,AFSA23.JPG,AFSA22.JPG,AFNE23.JPG,,,,,,,,,,,,,,,,,,,,,0,7,7,0,,,AFNE06.jpg,AFNE15.jpg,AFSA14.jpg,AFSA16.jpg,AFSA16.jpg,FS,4,num_4,32,num_2,0.766810443543,,,2017_Sep_26_1612,60.0164391868,MAFE4ImagesEEG,001,101613,
AFSA25.JPG,AFNE24.JPG,AFSA24.JPG,AFNE21.JPG,AFSA21.JPG,AFNE25.JPG,,,,,,,,,,,,,,,,,,,,,0,8,8,2,,,AFSA01.jpg,AFNE07.jpg,AFSA13.jpg,AFNE09.jpg,AFNE07.jpg,FN,3,num_6,16,num_6,0.583550741314,,,2017_Sep_26_1612,60.0164391868,MAFE4ImagesEEG,001,101613,
AMSA25.JPG,AMNE24.JPG,AMSA24.JPG,AMNE26.JPG,AMSA21.JPG,AMNE25.JPG,,,,,,,,,,,,,,,,,,,,,0,9,9,3,,,AFSA20.jpg,AFNE12.jpg,AFSA05.jpg,AFNE20.jpg,AFSA20.jpg,FS,4,num_8,16,num_8,1.11676204391,,,2017_Sep_26_1612,60.0164391868,MAFE4ImagesEEG,001,101613,
,,,,,,,,,,,,,,,,,,,,,,,,,,,,,,,,,,,,,,,,,,,space,7.59927371726,2017_Sep_26_1612,60.0164391868,MAFE4ImagesEEG,001,101613,
AFNE01.JPG,AFNE01.JPG,AFNE01.JPG,AFNE01.JPG,AFNE01.JPG,AFNE01.JPG,0,0,0,9,,,,,,,,,,,,,,,,,,,,,,,AMNE12.jpg,AMSA05.jpg,AMSA09.jpg,AMNE14.jpg,AMNE12.jpg,MN,1,num_8,32,num_2,1.10009513138,,,2017_Sep_26_1612,60.0164391868,MAFE4ImagesEEG,001,101613,
AFNE01.JPG,AFNE01.JPG,AFNE01.JPG,AFNE01.JPG,AFNE01.JPG,AFNE01.JPG,0,1,1,3,,,,,,,,,,,,,,,,,,,,,,,AMSA14.jpg,AMSA03.jpg,AMNE20.jpg,AMNE19.jpg,AMSA14.jpg,MS,2,num_8,32,num_6,0.733489768754,,,2017_Sep_26_1612,60.0164391868,MAFE4ImagesEEG,001,101613,
AFNE01.JPG,AFNE01.JPG,AFNE01.JPG,AFNE01.JPG,AFNE01.JPG,AFNE01.JPG,0,2,2,2,,,,,,,,,,,,,,,,,,,,,,,AMNE01.jpg,AMNE16.jpg,AMSA06.jpg,AMSA04.jpg,AMSA04.jpg,MS,2,num_4,32,num_6,0.716848515382,,,2017_Sep_26_1612,60.0164391868,MAFE4ImagesEEG,001,101613,
AFNE01.JPG,AFNE01.JPG,AFNE01.JPG,AFNE01.JPG,AFNE01.JPG,AFNE01.JPG,0,3,3,5,,,,,,,,,,,,,,,,,,,,,,,AMNE12.jpg,AMNE20.jpg,AMSA04.jpg,AMSA06.jpg,AMSA04.jpg,MS,2,num_2,16,num_2,1.41656664939,,,2017_Sep_26_1612,60.0164391868,MAFE4ImagesEEG,001,101613,
AFNE01.JPG,AFNE01.JPG,AFNE01.JPG,AFNE01.JPG,AFNE01.JPG,AFNE01.JPG,0,4,4,4,,,,,,,,,,,,,,,,,,,,,,,AMSA02.jpg,AMNE08.jpg,AMSA20.jpg,AMNE02.jpg,AMSA02.jpg,MS,2,num_8,16,num_8,1.21673048317,,,2017_Sep_26_1612,60.0164391868,MAFE4ImagesEEG,001,101613,
AFNE01.JPG,AFNE01.JPG,AFNE01.JPG,AFNE01.JPG,AFNE01.JPG,AFNE01.JPG,0,5,5,1,,,,,,,,,,,,,,,,,,,,,,,AMSA17.jpg,AMSA08.jpg,AMNE07.jpg,AMNE17.jpg,AMNE17.jpg,MN,1,num_4,32,num_6,0.816917666758,,,2017_Sep_26_1612,60.0164391868,MAFE4ImagesEEG,001,101613,
AFNE01.JPG,AFNE01.JPG,AFNE01.JPG,AFNE01.JPG,AFNE01.JPG,AFNE01.JPG,0,6,6,8,,,,,,,,,,,,,,,,,,,,,,,AMNE08.jpg,AMSA02.jpg,AMNE02.jpg,AMSA06.jpg,AMSA02.jpg,MS,2,num_6,32,num_4,4.51648441172,,,2017_Sep_26_1612,60.0164391868,MAFE4ImagesEEG,001,101613,
AFNE01.JPG,AFNE01.JPG,AFNE01.JPG,AFNE01.JPG,AFNE01.JPG,AFNE01.JPG,0,7,7,7,,,,,,,,,,,,,,,,,,,,,,,AMNE02.jpg,AMSA03.jpg,AMSA09.jpg,AMNE16.jpg,AMSA03.jpg,MS,2,num_6,16,num_6,0.483476778783,,,2017_Sep_26_1612,60.0164391868,MAFE4ImagesEEG,001,101613,
AFNE01.JPG,AFNE01.JPG,AFNE01.JPG,AFNE01.JPG,AFNE01.JPG,AFNE01.JPG,0,8,8,0,,,,,,,,,,,,,,,,,,,,,,,AMNE06.jpg,AMSA13.jpg,AMSA09.jpg,AMNE20.jpg,AMNE20.jpg,MN,1,num_4,16,num_4,0.68350859615,,,2017_Sep_26_1612,60.0164391868,MAFE4ImagesEEG,001,101613,
AFNE01.JPG,AFNE01.JPG,AFNE01.JPG,AFNE01.JPG,AFNE01.JPG,AFNE01.JPG,0,9,9,6,,,,,,,,,,,,,,,,,,,,,,,AMNE11.jpg,AMSA07.jpg,AMSA20.jpg,AMNE16.jpg,AMNE11.jpg,MN,1,num_8,16,num_8,0.816800596833,,,2017_Sep_26_1612,60.0164391868,MAFE4ImagesEEG,001,101613,
AFNE01.JPG,AFNE01.JPG,AFNE01.JPG,AFNE01.JPG,AFNE01.JPG,AFNE01.JPG,1,0,10,7,,,,,,,,,,,,,,,,,,,,,,,AMSA14.jpg,AMNE07.jpg,AMNE11.jpg,AMSA07.jpg,AMNE11.jpg,MN,1,num_2,16,num_2,1.0000311117,,,2017_Sep_26_1612,60.0164391868,MAFE4ImagesEEG,001,101613,
AFNE01.JPG,AFNE01.JPG,AFNE01.JPG,AFNE01.JPG,AFNE01.JPG,AFNE01.JPG,1,1,11,8,,,,,,,,,,,,,,,,,,,,,,,AMNE04.jpg,AMSA20.jpg,AMSA18.jpg,AMNE19.jpg,AMNE04.jpg,MN,1,num_8,16,num_8,0.483371896902,,,2017_Sep_26_1612,60.0164391868,MAFE4ImagesEEG,001,101613,
AFNE01.JPG,AFNE01.JPG,AFNE01.JPG,AFNE01.JPG,AFNE01.JPG,AFNE01.JPG,1,2,12,5,,,,,,,,,,,,,,,,,,,,,,,AMNE10.jpg,AMSA14.jpg,AMSA12.jpg,AMNE02.jpg,AMSA12.jpg,MS,2,num_2,16,num_2,1.46713477542,,,2017_Sep_26_1612,60.0164391868,MAFE4ImagesEEG,001,101613,
AFNE01.JPG,AFNE01.JPG,AFNE01.JPG,AFNE01.JPG,AFNE01.JPG,AFNE01.JPG,1,3,13,0,,,,,,,,,,,,,,,,,,,,,,,AMSA13.jpg,AMSA05.jpg,AMNE04.jpg,AMNE06.jpg,AMSA05.jpg,MS,2,num_6,16,num_6,0.516761851497,,,2017_Sep_26_1612,60.0164391868,MAFE4ImagesEEG,001,101613,
AFNE01.JPG,AFNE01.JPG,AFNE01.JPG,AFNE01.JPG,AFNE01.JPG,AFNE01.JPG,1,4,14,3,,,,,,,,,,,,,,,,,,,,,,,AMSA17.jpg,AMNE04.jpg,AMNE13.jpg,AMSA04.jpg,AMNE04.jpg,MN,1,num_6,16,num_6,0.583485631156,,,2017_Sep_26_1612,60.0164391868,MAFE4ImagesEEG,001,101613,
AFNE01.JPG,AFNE01.JPG,AFNE01.JPG,AFNE01.JPG,AFNE01.JPG,AFNE01.JPG,1,5,15,4,,,,,,,,,,,,,,,,,,,,,,,AMSA03.jpg,AMSA18.jpg,AMNE09.jpg,AMNE01.jpg,AMNE01.jpg,MN,1,num_4,16,num_4,0.516658252571,,,2017_Sep_26_1612,60.0164391868,MAFE4ImagesEEG,001,101613,
AFNE01.JPG,AFNE01.JPG,AFNE01.JPG,AFNE01.JPG,AFNE01.JPG,AFNE01.JPG,1,6,16,9,,,,,,,,,,,,,,,,,,,,,,,AMNE09.jpg,AMNE16.jpg,AMSA17.jpg,AMSA18.jpg,AMNE09.jpg,MN,1,num_8,16,num_8,0.516793604707,,,2017_Sep_26_1612,60.0164391868,MAFE4ImagesEEG,001,101613,
AFNE01.JPG,AFNE01.JPG,AFNE01.JPG,AFNE01.JPG,AFNE01.JPG,AFNE01.JPG,1,7,17,1,,,,,,,,,,,,,,,,,,,,,,,AMSA14.jpg,AMSA12.jpg,AMNE20.jpg,AMNE05.jpg,AMNE20.jpg,MN,1,num_2,32,num_4,2.9166567772,,,2017_Sep_26_1612,60.0164391868,MAFE4ImagesEEG,001,101613,
AFNE01.JPG,AFNE01.JPG,AFNE01.JPG,AFNE01.JPG,AFNE01.JPG,AFNE01.JPG,1,8,18,2,,,,,,,,,,,,,,,,,,,,,,,AMSA13.jpg,AMNE12.jpg,AMNE18.jpg,AMSA12.jpg,AMNE12.jpg,MN,1,num_6,32,num_8,1.15011543414,,,2017_Sep_26_1612,60.0164391868,MAFE4ImagesEEG,001,101613,
AFNE01.JPG,AFNE01.JPG,AFNE01.JPG,AFNE01.JPG,AFNE01.JPG,AFNE01.JPG,1,9,19,6,,,,,,,,,,,,,,,,,,,,,,,AMSA08.jpg,AMNE10.jpg,AMNE09.jpg,AMSA07.jpg,AMNE09.jpg,MN,1,num_2,32,num_4,0.53337904939,,,2017_Sep_26_1612,60.0164391868,MAFE4ImagesEEG,001,101613,
AFNE01.JPG,AFNE01.JPG,AFNE01.JPG,AFNE01.JPG,AFNE01.JPG,AFNE01.JPG,2,0,20,4,,,,,,,,,,,,,,,,,,,,,,,AMNE12.jpg,AMSA19.jpg,AMSA17.jpg,AMNE18.jpg,AMSA19.jpg,MS,2,num_6,16,num_6,2.86660728703,,,2017_Sep_26_1612,60.0164391868,MAFE4ImagesEEG,001,101613,
AFNE01.JPG,AFNE01.JPG,AFNE01.JPG,AFNE01.JPG,AFNE01.JPG,AFNE01.JPG,2,1,21,8,,,,,,,,,,,,,,,,,,,,,,,AMSA17.jpg,AMNE10.jpg,AMSA07.jpg,AMNE18.jpg,AMNE10.jpg,MN,1,num_6,32,num_2,0.883347007504,,,2017_Sep_26_1612,60.0164391868,MAFE4ImagesEEG,001,101613,
AFNE01.JPG,AFNE01.JPG,AFNE01.JPG,AFNE01.JPG,AFNE01.JPG,AFNE01.JPG,2,2,22,3,,,,,,,,,,,,,,,,,,,,,,,AMSA15.jpg,AMNE03.jpg,AMSA16.jpg,AMNE15.jpg,AMSA16.jpg,MS,2,num_2,16,num_2,1.26691275946,,,2017_Sep_26_1612,60.0164391868,MAFE4ImagesEEG,001,101613,
AFNE01.JPG,AFNE01.JPG,AFNE01.JPG,AFNE01.JPG,AFNE01.JPG,AFNE01.JPG,2,3,23,1,,,,,,,,,,,,,,,,,,,,,,,AMNE05.jpg,AMSA06.jpg,AMSA12.jpg,AMNE10.jpg,AMNE10.jpg,MN,1,num_4,16,num_4,1.65009715204,,,2017_Sep_26_1612,60.0164391868,MAFE4ImagesEEG,001,101613,
AFNE01.JPG,AFNE01.JPG,AFNE01.JPG,AFNE01.JPG,AFNE01.JPG,AFNE01.JPG,2,4,24,6,,,,,,,,,,,,,,,,,,,,,,,AMNE05.jpg,AMSA02.jpg,AMSA05.jpg,AMNE16.jpg,AMSA05.jpg,MS,2,num_2,32,num_8,0.950139746245,,,2017_Sep_26_1612,60.0164391868,MAFE4ImagesEEG,001,101613,
AFNE01.JPG,AFNE01.JPG,AFNE01.JPG,AFNE01.JPG,AFNE01.JPG,AFNE01.JPG,2,5,25,7,,,,,,,,,,,,,,,,,,,,,,,AMNE08.jpg,AMSA03.jpg,AMSA16.jpg,AMNE16.jpg,AMSA16.jpg,MS,2,num_2,32,num_4,1.08345740609,,,2017_Sep_26_1612,60.0164391868,MAFE4ImagesEEG,001,101613,
AFNE01.JPG,AFNE01.JPG,AFNE01.JPG,AFNE01.JPG,AFNE01.JPG,AFNE01.JPG,2,6,26,0,,,,,,,,,,,,,,,,,,,,,,,AMSA16.jpg,AMSA15.jpg,AMNE17.jpg,AMNE18.jpg,AMNE18.jpg,MN,1,num_4,32,num_2,1.0166178394,,,2017_Sep_26_1612,60.0164391868,MAFE4ImagesEEG,001,101613,
AFNE01.JPG,AFNE01.JPG,AFNE01.JPG,AFNE01.JPG,AFNE01.JPG,AFNE01.JPG,2,7,27,9,,,,,,,,,,,,,,,,,,,,,,,AMNE11.jpg,AMNE17.jpg,AMSA16.jpg,AMSA07.jpg,AMNE11.jpg,MN,1,num_8,16,num_8,0.616775835748,,,2017_Sep_26_1612,60.0164391868,MAFE4ImagesEEG,001,101613,
AFNE01.JPG,AFNE01.JPG,AFNE01.JPG,AFNE01.JPG,AFNE01.JPG,AFNE01.JPG,2,8,28,5,,,,,,,,,,,,,,,,,,,,,,,AMNE20.jpg,AMSA11.jpg,AMNE16.jpg,AMSA05.jpg,AMNE16.jpg,MN,1,num_2,16,num_2,1.23349393834,,,2017_Sep_26_1612,60.0164391868,MAFE4ImagesEEG,001,101613,
AFNE01.JPG,AFNE01.JPG,AFNE01.JPG,AFNE01.JPG,AFNE01.JPG,AFNE01.JPG,2,9,29,2,,,,,,,,,,,,,,,,,,,,,,,AMSA07.jpg,AMNE09.jpg,AMSA10.jpg,AMNE14.jpg,AMNE14.jpg,MN,1,num_4,16,num_4,0.850126082718,,,2017_Sep_26_1612,60.0164391868,MAFE4ImagesEEG,001,101613,
AFNE01.JPG,AFNE01.JPG,AFNE01.JPG,AFNE01.JPG,AFNE01.JPG,AFNE01.JPG,3,0,30,7,,,,,,,,,,,,,,,,,,,,,,,AMNE12.jpg,AMNE05.jpg,AMSA12.jpg,AMSA08.jpg,AMSA08.jpg,MS,2,num_4,16,num_4,0.816771730257,,,2017_Sep_26_1612,60.0164391868,MAFE4ImagesEEG,001,101613,
AFNE01.JPG,AFNE01.JPG,AFNE01.JPG,AFNE01.JPG,AFNE01.JPG,AFNE01.JPG,3,1,31,9,,,,,,,,,,,,,,,,,,,,,,,AMNE02.jpg,AMSA12.jpg,AMNE15.jpg,AMSA19.jpg,AMSA12.jpg,MS,2,num_6,32,num_4,0.783448810282,,,2017_Sep_26_1612,60.0164391868,MAFE4ImagesEEG,001,101613,
AFNE01.JPG,AFNE01.JPG,AFNE01.JPG,AFNE01.JPG,AFNE01.JPG,AFNE01.JPG,3,2,32,8,,,,,,,,,,,,,,,,,,,,,,,AMNE15.jpg,AMSA12.jpg,AMSA15.jpg,AMNE19.jpg,AMNE15.jpg,MN,1,num_8,32,num_6,1.98337061401,,,2017_Sep_26_1612,60.0164391868,MAFE4ImagesEEG,001,101613,
AFNE01.JPG,AFNE01.JPG,AFNE01.JPG,AFNE01.JPG,AFNE01.JPG,AFNE01.JPG,3,3,33,5,,,,,,,,,,,,,,,,,,,,,,,AMSA08.jpg,AMSA11.jpg,AMNE17.jpg,AMNE12.jpg,AMNE17.jpg,MN,1,num_2,32,num_6,0.816800917557,,,2017_Sep_26_1612,60.0164391868,MAFE4ImagesEEG,001,101613,
AFNE01.JPG,AFNE01.JPG,AFNE01.JPG,AFNE01.JPG,AFNE01.JPG,AFNE01.JPG,3,4,34,0,,,,,,,,,,,,,,,,,,,,,,,AMNE16.jpg,AMSA15.jpg,AMNE11.jpg,AMSA19.jpg,AMNE16.jpg,MN,1,num_8,32,num_2,1.25011979626,,,2017_Sep_26_1612,60.0164391868,MAFE4ImagesEEG,001,101613,
AFNE01.JPG,AFNE01.JPG,AFNE01.JPG,AFNE01.JPG,AFNE01.JPG,AFNE01.JPG,3,5,35,1,,,,,,,,,,,,,,,,,,,,,,,AMSA06.jpg,AMNE05.jpg,AMSA03.jpg,AMNE09.jpg,AMNE09.jpg,MN,1,num_4,16,num_4,0.83346718864,,,2017_Sep_26_1612,60.0164391868,MAFE4ImagesEEG,001,101613,
AFNE01.JPG,AFNE01.JPG,AFNE01.JPG,AFNE01.JPG,AFNE01.JPG,AFNE01.JPG,3,6,36,6,,,,,,,,,,,,,,,,,,,,,,,AMNE14.jpg,AMNE08.jpg,AMSA13.jpg,AMSA09.jpg,AMNE14.jpg,MN,1,num_8,16,num_8,0.616811758548,,,2017_Sep_26_1612,60.0164391868,MAFE4ImagesEEG,001,101613,
AFNE01.JPG,AFNE01.JPG,AFNE01.JPG,AFNE01.JPG,AFNE01.JPG,AFNE01.JPG,3,7,37,2,,,,,,,,,,,,,,,,,,,,,,,AMSA07.jpg,AMNE16.jpg,AMSA20.jpg,AMNE07.jpg,AMSA07.jpg,MS,2,num_8,16,num_8,0.633482840727,,,2017_Sep_26_1612,60.0164391868,MAFE4ImagesEEG,001,101613,
AFNE01.JPG,AFNE01.JPG,AFNE01.JPG,AFNE01.JPG,AFNE01.JPG,AFNE01.JPG,3,8,38,3,,,,,,,,,,,,,,,,,,,,,,,AMSA01.jpg,AMNE05.jpg,AMNE02.jpg,AMSA07.jpg,AMSA01.jpg,MS,2,num_8,16,num_8,1.08329286665,,,2017_Sep_26_1612,60.0164391868,MAFE4ImagesEEG,001,101613,
AFNE01.JPG,AFNE01.JPG,AFNE01.JPG,AFNE01.JPG,AFNE01.JPG,AFNE01.JPG,3,9,39,4,,,,,,,,,,,,,,,,,,,,,,,AMSA13.jpg,AMNE04.jpg,AMNE11.jpg,AMSA20.jpg,AMSA13.jpg,MS,2,num_8,32,num_4,0.700161716901,,,2017_Sep_26_1612,60.0164391868,MAFE4ImagesEEG,001,101613,
AFNE01.JPG,AFNE01.JPG,AFNE01.JPG,AFNE01.JPG,AFNE01.JPG,AFNE01.JPG,4,0,40,3,,,,,,,,,,,,,,,,,,,,,,,AMNE01.jpg,AMSA07.jpg,AMSA19.jpg,AMNE04.jpg,AMSA19.jpg,MS,2,num_2,32,num_6,0.649994194624,,,2017_Sep_26_1612,60.0164391868,MAFE4ImagesEEG,001,101613,
AFNE01.JPG,AFNE01.JPG,AFNE01.JPG,AFNE01.JPG,AFNE01.JPG,AFNE01.JPG,4,1,41,7,,,,,,,,,,,,,,,,,,,,,,,AMNE11.jpg,AMSA05.jpg,AMSA11.jpg,AMNE01.jpg,AMNE11.jpg,MN,1,num_8,32,num_2,0.750163096061,,,2017_Sep_26_1612,60.0164391868,MAFE4ImagesEEG,001,101613,
AFNE01.JPG,AFNE01.JPG,AFNE01.JPG,AFNE01.JPG,AFNE01.JPG,AFNE01.JPG,4,2,42,4,,,,,,,,,,,,,,,,,,,,,,,AMNE12.jpg,AMSA10.jpg,AMNE01.jpg,AMSA02.jpg,AMSA10.jpg,MS,2,num_6,32,num_8,1.96667098597,,,2017_Sep_26_1612,60.0164391868,MAFE4ImagesEEG,001,101613,
AFNE01.JPG,AFNE01.JPG,AFNE01.JPG,AFNE01.JPG,AFNE01.JPG,AFNE01.JPG,4,3,43,6,,,,,,,,,,,,,,,,,,,,,,,AMSA13.jpg,AMSA14.jpg,AMNE09.jpg,AMNE01.jpg,AMSA13.jpg,MS,2,num_8,16,num_8,0.533480723912,,,2017_Sep_26_1612,60.0164391868,MAFE4ImagesEEG,001,101613,
AFNE01.JPG,AFNE01.JPG,AFNE01.JPG,AFNE01.JPG,AFNE01.JPG,AFNE01.JPG,4,4,44,5,,,,,,,,,,,,,,,,,,,,,,,AMSA17.jpg,AMSA05.jpg,AMNE05.jpg,AMNE13.jpg,AMNE13.jpg,MN,1,num_4,16,num_4,1.18374626414,,,2017_Sep_26_1612,60.0164391868,MAFE4ImagesEEG,001,101613,
AFNE01.JPG,AFNE01.JPG,AFNE01.JPG,AFNE01.JPG,AFNE01.JPG,AFNE01.JPG,4,5,45,9,,,,,,,,,,,,,,,,,,,,,,,AMSA07.jpg,AMNE08.jpg,AMNE13.jpg,AMSA20.jpg,AMSA20.jpg,MS,2,num_4,16,num_4,0.800146193127,,,2017_Sep_26_1612,60.0164391868,MAFE4ImagesEEG,001,101613,
AFNE01.JPG,AFNE01.JPG,AFNE01.JPG,AFNE01.JPG,AFNE01.JPG,AFNE01.JPG,4,6,46,2,,,,,,,,,,,,,,,,,,,,,,,AMSA06.jpg,AMSA01.jpg,AMNE09.jpg,AMNE15.jpg,AMNE15.jpg,MN,1,num_4,16,num_4,0.683465937793,,,2017_Sep_26_1612,60.0164391868,MAFE4ImagesEEG,001,101613,
AFNE01.JPG,AFNE01.JPG,AFNE01.JPG,AFNE01.JPG,AFNE01.JPG,AFNE01.JPG,4,7,47,1,,,,,,,,,,,,,,,,,,,,,,,AMNE15.jpg,AMNE18.jpg,AMSA20.jpg,AMSA11.jpg,AMSA20.jpg,MS,2,num_2,16,num_2,1.43339810136,,,2017_Sep_26_1612,60.0164391868,MAFE4ImagesEEG,001,101613,
AFNE01.JPG,AFNE01.JPG,AFNE01.JPG,AFNE01.JPG,AFNE01.JPG,AFNE01.JPG,4,8,48,8,,,,,,,,,,,,,,,,,,,,,,,AMNE17.jpg,AMNE07.jpg,AMSA01.jpg,AMSA10.jpg,AMSA10.jpg,MS,2,num_4,16,num_4,1.71674106753,,,2017_Sep_26_1612,60.0164391868,MAFE4ImagesEEG,001,101613,
AFNE01.JPG,AFNE01.JPG,AFNE01.JPG,AFNE01.JPG,AFNE01.JPG,AFNE01.JPG,4,9,49,0,,,,,,,,,,,,,,,,,,,,,,,AMSA19.jpg,AMNE13.jpg,AMNE09.jpg,AMSA14.jpg,AMSA14.jpg,MS,2,num_4,16,num_4,0.483488004655,,,2017_Sep_26_1612,60.0164391868,MAFE4ImagesEEG,001,101613,
AFNE01.JPG,AFNE01.JPG,AFNE01.JPG,AFNE01.JPG,AFNE01.JPG,AFNE01.JPG,5,0,50,8,,,,,,,,,,,,,,,,,,,,,,,AMSA09.jpg,AMNE02.jpg,AMSA18.jpg,AMNE18.jpg,AMNE18.jpg,MN,1,num_4,32,num_8,0.816747033328,,,2017_Sep_26_1612,60.0164391868,MAFE4ImagesEEG,001,101613,
AFNE01.JPG,AFNE01.JPG,AFNE01.JPG,AFNE01.JPG,AFNE01.JPG,AFNE01.JPG,5,1,51,2,,,,,,,,,,,,,,,,,,,,,,,AMNE07.jpg,AMSA20.jpg,AMNE17.jpg,AMSA15.jpg,AMNE17.jpg,MN,1,num_2,32,num_8,0.716787574813,,,2017_Sep_26_1612,60.0164391868,MAFE4ImagesEEG,001,101613,
AFNE01.JPG,AFNE01.JPG,AFNE01.JPG,AFNE01.JPG,AFNE01.JPG,AFNE01.JPG,5,2,52,7,,,,,,,,,,,,,,,,,,,,,,,AMSA02.jpg,AMSA04.jpg,AMNE05.jpg,AMNE18.jpg,AMNE05.jpg,MN,1,num_2,32,num_8,0.900127461937,,,2017_Sep_26_1612,60.0164391868,MAFE4ImagesEEG,001,101613,
AFNE01.JPG,AFNE01.JPG,AFNE01.JPG,AFNE01.JPG,AFNE01.JPG,AFNE01.JPG,5,3,53,3,,,,,,,,,,,,,,,,,,,,,,,AMNE01.jpg,AMSA13.jpg,AMSA03.jpg,AMNE19.jpg,AMSA03.jpg,MS,2,num_2,16,num_2,1.43343049602,,,2017_Sep_26_1612,60.0164391868,MAFE4ImagesEEG,001,101613,
AFNE01.JPG,AFNE01.JPG,AFNE01.JPG,AFNE01.JPG,AFNE01.JPG,AFNE01.JPG,5,4,54,6,,,,,,,,,,,,,,,,,,,,,,,AMSA04.jpg,AMNE10.jpg,AMSA06.jpg,AMNE02.jpg,AMNE10.jpg,MN,1,num_6,32,num_8,1.11672515888,,,2017_Sep_26_1612,60.0164391868,MAFE4ImagesEEG,001,101613,
AFNE01.JPG,AFNE01.JPG,AFNE01.JPG,AFNE01.JPG,AFNE01.JPG,AFNE01.JPG,5,5,55,4,,,,,,,,,,,,,,,,,,,,,,,AMNE07.jpg,AMNE15.jpg,AMSA02.jpg,AMSA07.jpg,AMNE07.jpg,MN,1,num_8,32,num_2,1.56702719931,,,2017_Sep_26_1612,60.0164391868,MAFE4ImagesEEG,001,101613,
AFNE01.JPG,AFNE01.JPG,AFNE01.JPG,AFNE01.JPG,AFNE01.JPG,AFNE01.JPG,5,6,56,0,,,,,,,,,,,,,,,,,,,,,,,AMSA20.jpg,AMNE06.jpg,AMNE15.jpg,AMSA13.jpg,AMNE06.jpg,MN,1,num_6,32,num_8,0.883469850814,,,2017_Sep_26_1612,60.0164391868,MAFE4ImagesEEG,001,101613,
AFNE01.JPG,AFNE01.JPG,AFNE01.JPG,AFNE01.JPG,AFNE01.JPG,AFNE01.JPG,5,7,57,1,,,,,,,,,,,,,,,,,,,,,,,AMSA20.jpg,AMSA14.jpg,AMNE02.jpg,AMNE09.jpg,AMNE02.jpg,MN,1,num_2,16,num_2,1.35005936888,,,2017_Sep_26_1612,60.0164391868,MAFE4ImagesEEG,001,101613,
AFNE01.JPG,AFNE01.JPG,AFNE01.JPG,AFNE01.JPG,AFNE01.JPG,AFNE01.JPG,5,8,58,5,,,,,,,,,,,,,,,,,,,,,,,AMSA03.jpg,AMNE03.jpg,AMNE20.jpg,AMSA16.jpg,AMNE20.jpg,MN,1,num_2,32,num_4,0.716823497612,,,2017_Sep_26_1612,60.0164391868,MAFE4ImagesEEG,001,101613,
AFNE01.JPG,AFNE01.JPG,AFNE01.JPG,AFNE01.JPG,AFNE01.JPG,AFNE01.JPG,5,9,59,9,,,,,,,,,,,,,,,,,,,,,,,AMSA06.jpg,AMNE07.jpg,AMNE03.jpg,AMSA14.jpg,AMNE03.jpg,MN,1,num_2,32,num_8,1.11675113876,,,2017_Sep_26_1612,60.0164391868,MAFE4ImagesEEG,001,101613,
,,,,,,,,,,,,,,,,,,,,,,,,,,,,,,,,,,,,,,,,,,,space,6.88300670282,2017_Sep_26_1612,60.0164391868,MAFE4ImagesEEG,001,101613,
AFNE01.JPG,AFNE01.JPG,AFNE01.JPG,AFNE01.JPG,AFNE01.JPG,AFNE01.JPG,,,,,0,0,0,9,,,,,,,,,,,,,,,,,,,AFSA09.jpg,AFNE15.jpg,AFSA04.jpg,AFNE10.jpg,AFNE15.jpg,FN,3,num_6,32,num_8,0.96675726492,,,2017_Sep_26_1612,60.0164391868,MAFE4ImagesEEG,001,101613,
AFNE01.JPG,AFNE01.JPG,AFNE01.JPG,AFNE01.JPG,AFNE01.JPG,AFNE01.JPG,,,,,0,1,1,4,,,,,,,,,,,,,,,,,,,AFNE12.jpg,AFNE14.jpg,AFSA07.jpg,AFSA18.jpg,AFSA18.jpg,FS,4,num_4,16,num_4,0.566909487941,,,2017_Sep_26_1612,60.0164391868,MAFE4ImagesEEG,001,101613,
AFNE01.JPG,AFNE01.JPG,AFNE01.JPG,AFNE01.JPG,AFNE01.JPG,AFNE01.JPG,,,,,0,2,2,1,,,,,,,,,,,,,,,,,,,AFNE08.jpg,AFSA03.jpg,AFNE12.jpg,AFSA09.jpg,AFNE08.jpg,FN,3,num_8,16,num_8,1.08320145588,,,2017_Sep_26_1612,60.0164391868,MAFE4ImagesEEG,001,101613,
AFNE01.JPG,AFNE01.JPG,AFNE01.JPG,AFNE01.JPG,AFNE01.JPG,AFNE01.JPG,,,,,0,3,3,7,,,,,,,,,,,,,,,,,,,AFSA15.jpg,AFNE09.jpg,AFNE18.jpg,AFSA07.jpg,AFSA07.jpg,FS,4,num_4,16,num_4,0.633510424348,,,2017_Sep_26_1612,60.0164391868,MAFE4ImagesEEG,001,101613,
AFNE01.JPG,AFNE01.JPG,AFNE01.JPG,AFNE01.JPG,AFNE01.JPG,AFNE01.JPG,,,,,0,4,4,3,,,,,,,,,,,,,,,,,,,AFNE07.jpg,AFSA13.jpg,AFNE17.jpg,AFSA05.jpg,AFNE17.jpg,FN,3,num_2,32,num_6,0.866959779873,,,2017_Sep_26_1612,60.0164391868,MAFE4ImagesEEG,001,101613,
AFNE01.JPG,AFNE01.JPG,AFNE01.JPG,AFNE01.JPG,AFNE01.JPG,AFNE01.JPG,,,,,0,5,5,8,,,,,,,,,,,,,,,,,,,AFSA18.jpg,AFSA03.jpg,AFNE08.jpg,AFNE10.jpg,AFNE10.jpg,FN,3,num_4,16,num_4,0.600110526895,,,2017_Sep_26_1612,60.0164391868,MAFE4ImagesEEG,001,101613,
AFNE01.JPG,AFNE01.JPG,AFNE01.JPG,AFNE01.JPG,AFNE01.JPG,AFNE01.JPG,,,,,0,6,6,5,,,,,,,,,,,,,,,,,,,AFNE19.jpg,AFNE01.jpg,AFSA04.jpg,AFSA05.jpg,AFSA04.jpg,FS,4,num_2,32,num_4,1.21675774606,,,2017_Sep_26_1612,60.0164391868,MAFE4ImagesEEG,001,101613,
AFNE01.JPG,AFNE01.JPG,AFNE01.JPG,AFNE01.JPG,AFNE01.JPG,AFNE01.JPG,,,,,0,7,7,6,,,,,,,,,,,,,,,,,,,AFSA14.jpg,AFNE01.jpg,AFNE13.jpg,AFSA05.jpg,AFSA14.jpg,FS,4,num_8,16,num_8,0.516775643278,,,2017_Sep_26_1612,60.0164391868,MAFE4ImagesEEG,001,101613,
AFNE01.JPG,AFNE01.JPG,AFNE01.JPG,AFNE01.JPG,AFNE01.JPG,AFNE01.JPG,,,,,0,8,8,2,,,,,,,,,,,,,,,,,,,AFNE02.jpg,AFSA18.jpg,AFNE17.jpg,AFSA13.jpg,AFSA13.jpg,FS,4,num_4,16,num_4,0.883476586314,,,2017_Sep_26_1612,60.0164391868,MAFE4ImagesEEG,001,101613,
AFNE01.JPG,AFNE01.JPG,AFNE01.JPG,AFNE01.JPG,AFNE01.JPG,AFNE01.JPG,,,,,0,9,9,0,,,,,,,,,,,,,,,,,,,AFSA15.jpg,AFNE15.jpg,AFSA18.jpg,AFNE19.jpg,AFSA18.jpg,FS,4,num_2,32,num_6,1.91675235762,,,2017_Sep_26_1612,60.0164391868,MAFE4ImagesEEG,001,101613,
AFNE01.JPG,AFNE01.JPG,AFNE01.JPG,AFNE01.JPG,AFNE01.JPG,AFNE01.JPG,,,,,1,0,10,1,,,,,,,,,,,,,,,,,,,AFNE07.jpg,AFSA16.jpg,AFNE12.jpg,AFSA09.jpg,AFSA09.jpg,FS,4,num_4,16,num_4,0.883512509172,,,2017_Sep_26_1612,60.0164391868,MAFE4ImagesEEG,001,101613,
AFNE01.JPG,AFNE01.JPG,AFNE01.JPG,AFNE01.JPG,AFNE01.JPG,AFNE01.JPG,,,,,1,1,11,9,,,,,,,,,,,,,,,,,,,AFSA16.jpg,AFSA20.jpg,AFNE05.jpg,AFNE14.jpg,AFSA16.jpg,FS,4,num_8,32,num_2,0.833482904884,,,2017_Sep_26_1612,60.0164391868,MAFE4ImagesEEG,001,101613,
AFNE01.JPG,AFNE01.JPG,AFNE01.JPG,AFNE01.JPG,AFNE01.JPG,AFNE01.JPG,,,,,1,2,12,5,,,,,,,,,,,,,,,,,,,AFNE11.jpg,AFSA12.jpg,AFSA05.jpg,AFNE18.jpg,AFSA05.jpg,FS,4,num_2,32,num_4,0.816818558262,,,2017_Sep_26_1612,60.0164391868,MAFE4ImagesEEG,001,101613,
AFNE01.JPG,AFNE01.JPG,AFNE01.JPG,AFNE01.JPG,AFNE01.JPG,AFNE01.JPG,,,,,1,3,13,7,,,,,,,,,,,,,,,,,,,AFSA08.jpg,AFNE06.jpg,AFSA20.jpg,AFNE20.jpg,AFNE20.jpg,FN,3,num_4,16,num_4,0.550141221611,,,2017_Sep_26_1612,60.0164391868,MAFE4ImagesEEG,001,101613,
AFNE01.JPG,AFNE01.JPG,AFNE01.JPG,AFNE01.JPG,AFNE01.JPG,AFNE01.JPG,,,,,1,4,14,6,,,,,,,,,,,,,,,,,,,AFNE20.jpg,AFSA17.jpg,AFSA13.jpg,AFNE05.jpg,AFSA17.jpg,FS,4,num_6,32,num_4,0.966797998815,,,2017_Sep_26_1612,60.0164391868,MAFE4ImagesEEG,001,101613,
AFNE01.JPG,AFNE01.JPG,AFNE01.JPG,AFNE01.JPG,AFNE01.JPG,AFNE01.JPG,,,,,1,5,15,3,,,,,,,,,,,,,,,,,,,AFSA07.jpg,AFSA05.jpg,AFNE04.jpg,AFNE05.jpg,AFSA05.jpg,FS,4,num_6,32,num_4,0.850112290937,,,2017_Sep_26_1612,60.0164391868,MAFE4ImagesEEG,001,101613,
AFNE01.JPG,AFNE01.JPG,AFNE01.JPG,AFNE01.JPG,AFNE01.JPG,AFNE01.JPG,,,,,1,6,16,2,,,,,,,,,,,,,,,,,,,AFNE16.jpg,AFSA01.jpg,AFNE15.jpg,AFSA10.jpg,AFNE16.jpg,FN,3,num_8,16,num_8,0.666799345927,,,2017_Sep_26_1612,60.0164391868,MAFE4ImagesEEG,001,101613,
AFNE01.JPG,AFNE01.JPG,AFNE01.JPG,AFNE01.JPG,AFNE01.JPG,AFNE01.JPG,,,,,1,7,17,0,,,,,,,,,,,,,,,,,,,AFNE16.jpg,AFNE10.jpg,AFSA16.jpg,AFSA07.jpg,AFSA16.jpg,FS,4,num_2,32,num_8,0.516800340265,,,2017_Sep_26_1612,60.0164391868,MAFE4ImagesEEG,001,101613,
AFNE01.JPG,AFNE01.JPG,AFNE01.JPG,AFNE01.JPG,AFNE01.JPG,AFNE01.JPG,,,,,1,8,18,8,,,,,,,,,,,,,,,,,,,AFSA01.jpg,AFSA03.jpg,AFNE17.jpg,AFNE08.jpg,AFSA01.jpg,FS,4,num_8,32,num_6,1.50008210936,,,2017_Sep_26_1612,60.0164391868,MAFE4ImagesEEG,001,101613,
AFNE01.JPG,AFNE01.JPG,AFNE01.JPG,AFNE01.JPG,AFNE01.JPG,AFNE01.JPG,,,,,1,9,19,4,,,,,,,,,,,,,,,,,,,AFSA06.jpg,AFNE10.jpg,AFNE15.jpg,AFSA12.jpg,AFNE15.jpg,FN,3,num_2,32,num_8,0.75012268289,,,2017_Sep_26_1612,60.0164391868,MAFE4ImagesEEG,001,101613,
AFNE01.JPG,AFNE01.JPG,AFNE01.JPG,AFNE01.JPG,AFNE01.JPG,AFNE01.JPG,,,,,2,0,20,1,,,,,,,,,,,,,,,,,,,AFNE01.jpg,AFSA17.jpg,AFNE12.jpg,AFSA07.jpg,AFNE12.jpg,FN,3,num_2,16,num_2,1.13344467268,,,2017_Sep_26_1612,60.0164391868,MAFE4ImagesEEG,001,101613,
AFNE01.JPG,AFNE01.JPG,AFNE01.JPG,AFNE01.JPG,AFNE01.JPG,AFNE01.JPG,,,,,2,1,21,6,,,,,,,,,,,,,,,,,,,AFNE11.jpg,AFSA10.jpg,AFSA04.jpg,AFNE14.jpg,AFSA04.jpg,FS,4,num_2,32,num_4,0.966791904764,,,2017_Sep_26_1612,60.0164391868,MAFE4ImagesEEG,001,101613,
AFNE01.JPG,AFNE01.JPG,AFNE01.JPG,AFNE01.JPG,AFNE01.JPG,AFNE01.JPG,,,,,2,2,22,9,,,,,,,,,,,,,,,,,,,AFSA13.jpg,AFNE20.jpg,AFSA06.jpg,AFNE14.jpg,AFSA06.jpg,FS,4,num_2,32,num_8,0.800152607902,,,2017_Sep_26_1612,60.0164391868,MAFE4ImagesEEG,001,101613,
AFNE01.JPG,AFNE01.JPG,AFNE01.JPG,AFNE01.JPG,AFNE01.JPG,AFNE01.JPG,,,,,2,3,23,5,,,,,,,,,,,,,,,,,,,AFNE02.jpg,AFSA15.jpg,AFNE01.jpg,AFSA16.jpg,AFSA15.jpg,FS,4,num_6,32,num_4,2.25003929058,,,2017_Sep_26_1612,60.0164391868,MAFE4ImagesEEG,001,101613,
AFNE01.JPG,AFNE01.JPG,AFNE01.JPG,AFNE01.JPG,AFNE01.JPG,AFNE01.JPG,,,,,2,4,24,4,,,,,,,,,,,,,,,,,,,AFSA07.jpg,AFSA18.jpg,AFNE11.jpg,AFNE07.jpg,AFNE11.jpg,FN,3,num_2,32,num_6,0.616779363889,,,2017_Sep_26_1612,60.0164391868,MAFE4ImagesEEG,001,101613,
AFNE01.JPG,AFNE01.JPG,AFNE01.JPG,AFNE01.JPG,AFNE01.JPG,AFNE01.JPG,,,,,2,5,25,2,,,,,,,,,,,,,,,,,,,AFNE15.jpg,AFSA09.jpg,AFSA03.jpg,AFNE19.jpg,AFNE15.jpg,FN,3,num_8,32,num_4,0.850290301431,,,2017_Sep_26_1612,60.0164391868,MAFE4ImagesEEG,001,101613,
AFNE01.JPG,AFNE01.JPG,AFNE01.JPG,AFNE01.JPG,AFNE01.JPG,AFNE01.JPG,,,,,2,6,26,7,,,,,,,,,,,,,,,,,,,AFSA15.jpg,AFSA07.jpg,AFNE11.jpg,AFNE20.jpg,AFNE11.jpg,FN,3,num_2,32,num_4,1.1167649306,,,2017_Sep_26_1612,60.0164391868,MAFE4ImagesEEG,001,101613,
AFNE01.JPG,AFNE01.JPG,AFNE01.JPG,AFNE01.JPG,AFNE01.JPG,AFNE01.JPG,,,,,2,7,27,3,,,,,,,,,,,,,,,,,,,AFSA12.jpg,AFSA06.jpg,AFNE03.jpg,AFNE01.jpg,AFSA06.jpg,FS,4,num_6,32,num_4,1.06682352972,,,2017_Sep_26_1612,60.0164391868,MAFE4ImagesEEG,001,101613,
AFNE01.JPG,AFNE01.JPG,AFNE01.JPG,AFNE01.JPG,AFNE01.JPG,AFNE01.JPG,,,,,2,8,28,8,,,,,,,,,,,,,,,,,,,AFNE02.jpg,AFSA06.jpg,AFNE12.jpg,AFSA08.jpg,AFNE12.jpg,FN,3,num_2,32,num_8,0.766805311665,,,2017_Sep_26_1612,60.0164391868,MAFE4ImagesEEG,001,101613,
AFNE01.JPG,AFNE01.JPG,AFNE01.JPG,AFNE01.JPG,AFNE01.JPG,AFNE01.JPG,,,,,2,9,29,0,,,,,,,,,,,,,,,,,,,AFNE12.jpg,AFSA08.jpg,AFSA10.jpg,AFNE14.jpg,AFSA10.jpg,FS,4,num_2,16,num_2,0.700231958879,,,2017_Sep_26_1612,60.0164391868,MAFE4ImagesEEG,001,101613,
AFNE01.JPG,AFNE01.JPG,AFNE01.JPG,AFNE01.JPG,AFNE01.JPG,AFNE01.JPG,,,,,3,0,30,5,,,,,,,,,,,,,,,,,,,AFNE08.jpg,AFSA09.jpg,AFSA02.jpg,AFNE15.jpg,AFNE15.jpg,FN,3,num_4,16,num_4,0.866843351454,,,2017_Sep_26_1612,60.0164391868,MAFE4ImagesEEG,001,101613,
AFNE01.JPG,AFNE01.JPG,AFNE01.JPG,AFNE01.JPG,AFNE01.JPG,AFNE01.JPG,,,,,3,1,31,6,,,,,,,,,,,,,,,,,,,AFNE03.jpg,AFSA19.jpg,AFSA11.jpg,AFNE16.jpg,AFNE16.jpg,FN,3,num_4,16,num_4,0.666825967317,,,2017_Sep_26_1612,60.0164391868,MAFE4ImagesEEG,001,101613,
AFNE01.JPG,AFNE01.JPG,AFNE01.JPG,AFNE01.JPG,AFNE01.JPG,AFNE01.JPG,,,,,3,2,32,1,,,,,,,,,,,,,,,,,,,AFNE12.jpg,AFNE04.jpg,AFSA16.jpg,AFSA03.jpg,AFSA03.jpg,FS,4,num_4,16,num_4,1.86657713755,,,2017_Sep_26_1612,60.0164391868,MAFE4ImagesEEG,001,101613,
AFNE01.JPG,AFNE01.JPG,AFNE01.JPG,AFNE01.JPG,AFNE01.JPG,AFNE01.JPG,,,,,3,3,33,4,,,,,,,,,,,,,,,,,,,AFSA06.jpg,AFSA05.jpg,AFNE06.jpg,AFNE11.jpg,AFNE11.jpg,FN,3,num_4,32,num_8,0.333511129953,,,2017_Sep_26_1612,60.0164391868,MAFE4ImagesEEG,001,101613,
AFNE01.JPG,AFNE01.JPG,AFNE01.JPG,AFNE01.JPG,AFNE01.JPG,AFNE01.JPG,,,,,3,4,34,2,,,,,,,,,,,,,,,,,,,AFNE16.jpg,AFSA04.jpg,AFSA18.jpg,AFNE07.jpg,AFNE07.jpg,FN,3,num_4,16,num_4,0.850140195282,,,2017_Sep_26_1612,60.0164391868,MAFE4ImagesEEG,001,101613,
AFNE01.JPG,AFNE01.JPG,AFNE01.JPG,AFNE01.JPG,AFNE01.JPG,AFNE01.JPG,,,,,3,5,35,0,,,,,,,,,,,,,,,,,,,AFSA16.jpg,AFNE19.jpg,AFNE18.jpg,AFSA12.jpg,AFNE18.jpg,FN,3,num_2,32,num_8,1.6500541729,,,2017_Sep_26_1612,60.0164391868,MAFE4ImagesEEG,001,101613,
AFNE01.JPG,AFNE01.JPG,AFNE01.JPG,AFNE01.JPG,AFNE01.JPG,AFNE01.JPG,,,,,3,6,36,7,,,,,,,,,,,,,,,,,,,AFSA20.jpg,AFNE19.jpg,AFSA01.jpg,AFNE09.jpg,AFNE19.jpg,FN,3,num_6,32,num_8,4.06653101515,,,2017_Sep_26_1612,60.0164391868,MAFE4ImagesEEG,001,101613,
AFNE01.JPG,AFNE01.JPG,AFNE01.JPG,AFNE01.JPG,AFNE01.JPG,AFNE01.JPG,,,,,3,7,37,9,,,,,,,,,,,,,,,,,,,AFNE20.jpg,AFSA04.jpg,AFNE09.jpg,AFSA07.jpg,AFNE20.jpg,FN,3,num_8,16,num_8,4.41682195809,,,2017_Sep_26_1612,60.0164391868,MAFE4ImagesEEG,001,101613,
AFNE01.JPG,AFNE01.JPG,AFNE01.JPG,AFNE01.JPG,AFNE01.JPG,AFNE01.JPG,,,,,3,8,38,3,,,,,,,,,,,,,,,,,,,AFSA07.jpg,AFNE05.jpg,AFNE09.jpg,AFSA17.jpg,AFSA17.jpg,FS,4,num_4,16,num_4,0.383455738251,,,2017_Sep_26_1612,60.0164391868,MAFE4ImagesEEG,001,101613,
AFNE01.JPG,AFNE01.JPG,AFNE01.JPG,AFNE01.JPG,AFNE01.JPG,AFNE01.JPG,,,,,3,9,39,8,,,,,,,,,,,,,,,,,,,AFNE04.jpg,AFSA10.jpg,AFNE02.jpg,AFSA05.jpg,AFNE04.jpg,FN,3,num_8,16,num_8,0.566810379387,,,2017_Sep_26_1612,60.0164391868,MAFE4ImagesEEG,001,101613,
AFNE01.JPG,AFNE01.JPG,AFNE01.JPG,AFNE01.JPG,AFNE01.JPG,AFNE01.JPG,,,,,4,0,40,2,,,,,,,,,,,,,,,,,,,AFSA13.jpg,AFNE17.jpg,AFNE09.jpg,AFSA18.jpg,AFNE09.jpg,FN,3,num_2,16,num_2,0.750050516508,,,2017_Sep_26_1612,60.0164391868,MAFE4ImagesEEG,001,101613,
AFNE01.JPG,AFNE01.JPG,AFNE01.JPG,AFNE01.JPG,AFNE01.JPG,AFNE01.JPG,,,,,4,1,41,3,,,,,,,,,,,,,,,,,,,AFSA06.jpg,AFNE07.jpg,AFSA08.jpg,AFNE08.jpg,AFNE08.jpg,FN,3,num_4,16,num_4,0.650164186605,,,2017_Sep_26_1612,60.0164391868,MAFE4ImagesEEG,001,101613,
AFNE01.JPG,AFNE01.JPG,AFNE01.JPG,AFNE01.JPG,AFNE01.JPG,AFNE01.JPG,,,,,4,2,42,9,,,,,,,,,,,,,,,,,,,AFNE15.jpg,AFNE13.jpg,AFSA09.jpg,AFSA02.jpg,AFNE13.jpg,FN,3,num_6,32,num_8,1.33340464439,,,2017_Sep_26_1612,60.0164391868,MAFE4ImagesEEG,001,101613,
AFNE01.JPG,AFNE01.JPG,AFNE01.JPG,AFNE01.JPG,AFNE01.JPG,AFNE01.JPG,,,,,4,3,43,7,,,,,,,,,,,,,,,,,,,AFNE15.jpg,AFSA16.jpg,AFNE07.jpg,AFSA04.jpg,AFNE07.jpg,FN,3,num_2,16,num_2,0.983437969291,,,2017_Sep_26_1612,60.0164391868,MAFE4ImagesEEG,001,101613,
AFNE01.JPG,AFNE01.JPG,AFNE01.JPG,AFNE01.JPG,AFNE01.JPG,AFNE01.JPG,,,,,4,4,44,0,,,,,,,,,,,,,,,,,,,AFSA06.jpg,AFNE18.jpg,AFSA02.jpg,AFNE09.jpg,AFNE09.jpg,FN,3,num_4,16,num_4,0.55015918304,,,2017_Sep_26_1612,60.0164391868,MAFE4ImagesEEG,001,101613,
AFNE01.JPG,AFNE01.JPG,AFNE01.JPG,AFNE01.JPG,AFNE01.JPG,AFNE01.JPG,,,,,4,5,45,6,,,,,,,,,,,,,,,,,,,AFNE08.jpg,AFSA01.jpg,AFNE13.jpg,AFSA07.jpg,AFNE13.jpg,FN,3,num_2,32,num_8,0.650125697837,,,2017_Sep_26_1612,60.0164391868,MAFE4ImagesEEG,001,101613,
AFNE01.JPG,AFNE01.JPG,AFNE01.JPG,AFNE01.JPG,AFNE01.JPG,AFNE01.JPG,,,,,4,6,46,4,,,,,,,,,,,,,,,,,,,AFSA02.jpg,AFNE16.jpg,AFSA14.jpg,AFNE13.jpg,AFSA14.jpg,FS,4,num_2,16,num_2,0.750186189311,,,2017_Sep_26_1612,60.0164391868,MAFE4ImagesEEG,001,101613,
AFNE01.JPG,AFNE01.JPG,AFNE01.JPG,AFNE01.JPG,AFNE01.JPG,AFNE01.JPG,,,,,4,7,47,1,,,,,,,,,,,,,,,,,,,AFSA19.jpg,AFNE20.jpg,AFSA14.jpg,AFNE05.jpg,AFNE05.jpg,FN,3,num_4,32,num_6,0.733468920691,,,2017_Sep_26_1612,60.0164391868,MAFE4ImagesEEG,001,101613,
AFNE01.JPG,AFNE01.JPG,AFNE01.JPG,AFNE01.JPG,AFNE01.JPG,AFNE01.JPG,,,,,4,8,48,8,,,,,,,,,,,,,,,,,,,AFNE14.jpg,AFSA09.jpg,AFNE13.jpg,AFSA05.jpg,AFSA09.jpg,FS,4,num_6,32,num_4,0.666829816182,,,2017_Sep_26_1612,60.0164391868,MAFE4ImagesEEG,001,101613,
AFNE01.JPG,AFNE01.JPG,AFNE01.JPG,AFNE01.JPG,AFNE01.JPG,AFNE01.JPG,,,,,4,9,49,5,,,,,,,,,,,,,,,,,,,AFSA06.jpg,AFSA13.jpg,AFNE17.jpg,AFNE12.jpg,AFNE17.jpg,FN,3,num_2,32,num_8,0.800134967256,,,2017_Sep_26_1612,60.0164391868,MAFE4ImagesEEG,001,101613,
AFNE01.JPG,AFNE01.JPG,AFNE01.JPG,AFNE01.JPG,AFNE01.JPG,AFNE01.JPG,,,,,5,0,50,9,,,,,,,,,,,,,,,,,,,AFNE16.jpg,AFNE08.jpg,AFSA12.jpg,AFSA20.jpg,AFSA20.jpg,FS,4,num_4,16,num_4,0.650115754921,,,2017_Sep_26_1612,60.0164391868,MAFE4ImagesEEG,001,101613,
AFNE01.JPG,AFNE01.JPG,AFNE01.JPG,AFNE01.JPG,AFNE01.JPG,AFNE01.JPG,,,,,5,1,51,0,,,,,,,,,,,,,,,,,,,AFSA13.jpg,AFNE14.jpg,AFSA07.jpg,AFNE09.jpg,AFNE14.jpg,FN,3,num_6,32,num_4,0.716776348941,,,2017_Sep_26_1612,60.0164391868,MAFE4ImagesEEG,001,101613,
AFNE01.JPG,AFNE01.JPG,AFNE01.JPG,AFNE01.JPG,AFNE01.JPG,AFNE01.JPG,,,,,5,2,52,5,,,,,,,,,,,,,,,,,,,AFSA04.jpg,AFSA13.jpg,AFNE09.jpg,AFNE05.jpg,AFNE05.jpg,FN,3,num_4,32,num_8,1.20008987124,,,2017_Sep_26_1612,60.0164391868,MAFE4ImagesEEG,001,101613,
AFNE01.JPG,AFNE01.JPG,AFNE01.JPG,AFNE01.JPG,AFNE01.JPG,AFNE01.JPG,,,,,5,3,53,6,,,,,,,,,,,,,,,,,,,AFSA17.jpg,AFSA03.jpg,AFNE05.jpg,AFNE15.jpg,AFNE15.jpg,FN,3,num_4,16,num_4,0.899998524634,,,2017_Sep_26_1612,60.0164391868,MAFE4ImagesEEG,001,101613,
AFNE01.JPG,AFNE01.JPG,AFNE01.JPG,AFNE01.JPG,AFNE01.JPG,AFNE01.JPG,,,,,5,4,54,1,,,,,,,,,,,,,,,,,,,AFNE04.jpg,AFNE10.jpg,AFSA06.jpg,AFSA10.jpg,AFSA10.jpg,FS,4,num_4,16,num_4,3.28325315914,,,2017_Sep_26_1612,60.0164391868,MAFE4ImagesEEG,001,101613,
AFNE01.JPG,AFNE01.JPG,AFNE01.JPG,AFNE01.JPG,AFNE01.JPG,AFNE01.JPG,,,,,5,5,55,2,,,,,,,,,,,,,,,,,,,AFNE09.jpg,AFSA11.jpg,AFNE20.jpg,AFSA07.jpg,AFNE20.jpg,FN,3,num_2,32,num_6,2.5333796909,,,2017_Sep_26_1612,60.0164391868,MAFE4ImagesEEG,001,101613,
AFNE01.JPG,AFNE01.JPG,AFNE01.JPG,AFNE01.JPG,AFNE01.JPG,AFNE01.JPG,,,,,5,6,56,4,,,,,,,,,,,,,,,,,,,AFSA15.jpg,AFSA09.jpg,AFNE02.jpg,AFNE20.jpg,AFNE02.jpg,FN,3,num_2,32,num_4,0.599823785655,,,2017_Sep_26_1612,60.0164391868,MAFE4ImagesEEG,001,101613,
AFNE01.JPG,AFNE01.JPG,AFNE01.JPG,AFNE01.JPG,AFNE01.JPG,AFNE01.JPG,,,,,5,7,57,7,,,,,,,,,,,,,,,,,,,AFSA08.jpg,AFSA14.jpg,AFNE05.jpg,AFNE01.jpg,AFNE01.jpg,FN,3,num_4,32,num_2,0.833489640441,,,2017_Sep_26_1612,60.0164391868,MAFE4ImagesEEG,001,101613,
AFNE01.JPG,AFNE01.JPG,AFNE01.JPG,AFNE01.JPG,AFNE01.JPG,AFNE01.JPG,,,,,5,8,58,8,,,,,,,,,,,,,,,,,,,AFSA18.jpg,AFNE10.jpg,AFSA11.jpg,AFNE07.jpg,AFNE10.jpg,FN,3,num_6,16,num_6,0.96682237502,,,2017_Sep_26_1612,60.0164391868,MAFE4ImagesEEG,001,101613,
AFNE01.JPG,AFNE01.JPG,AFNE01.JPG,AFNE01.JPG,AFNE01.JPG,AFNE01.JPG,,,,,5,9,59,3,,,,,,,,,,,,,,,,,,,AFSA18.jpg,AFSA13.jpg,AFNE09.jpg,AFNE16.jpg,AFSA18.jpg,FS,4,num_8,32,num_2,0.883567676414,,,2017_Sep_26_1612,60.0164391868,MAFE4ImagesEEG,001,101613,
,,,,,,,,,,,,,,,,,,,,,,,,,,,,,,,,,,,,,,,,,,,space,2.41667922895,2017_Sep_26_1612,60.0164391868,MAFE4ImagesEEG,001,101613,
AFNE01.JPG,AFNE01.JPG,AFNE01.JPG,AFNE01.JPG,AFNE01.JPG,AFNE01.JPG,,,,,,,,,0,0,0,8,,,,,,,,,,,,,,,AMNE01.jpg,AMNE04.jpg,AMSA19.jpg,AMSA12.jpg,AMNE04.jpg,MN,1,num_6,16,num_6,1.28341994371,,,2017_Sep_26_1612,60.0164391868,MAFE4ImagesEEG,001,101613,
AFNE01.JPG,AFNE01.JPG,AFNE01.JPG,AFNE01.JPG,AFNE01.JPG,AFNE01.JPG,,,,,,,,,0,1,1,1,,,,,,,,,,,,,,,AMSA03.jpg,AMNE05.jpg,AMSA05.jpg,AMNE01.jpg,AMSA03.jpg,MS,2,num_8,32,num_4,0.566954712209,,,2017_Sep_26_1612,60.0164391868,MAFE4ImagesEEG,001,101613,
AFNE01.JPG,AFNE01.JPG,AFNE01.JPG,AFNE01.JPG,AFNE01.JPG,AFNE01.JPG,,,,,,,,,0,2,2,5,,,,,,,,,,,,,,,AMSA15.jpg,AMNE19.jpg,AMNE10.jpg,AMSA12.jpg,AMNE19.jpg,MN,1,num_6,32,num_4,0.616808230465,,,2017_Sep_26_1612,60.0164391868,MAFE4ImagesEEG,001,101613,
AFNE01.JPG,AFNE01.JPG,AFNE01.JPG,AFNE01.JPG,AFNE01.JPG,AFNE01.JPG,,,,,,,,,0,3,3,2,,,,,,,,,,,,,,,AMSA01.jpg,AMNE18.jpg,AMNE02.jpg,AMSA06.jpg,AMNE18.jpg,MN,1,num_6,16,num_6,0.600155109714,,,2017_Sep_26_1612,60.0164391868,MAFE4ImagesEEG,001,101613,
AFNE01.JPG,AFNE01.JPG,AFNE01.JPG,AFNE01.JPG,AFNE01.JPG,AFNE01.JPG,,,,,,,,,0,4,4,4,,,,,,,,,,,,,,,AMSA13.jpg,AMSA15.jpg,AMNE03.jpg,AMNE18.jpg,AMNE18.jpg,MN,1,num_4,16,num_4,0.716782442934,,,2017_Sep_26_1612,60.0164391868,MAFE4ImagesEEG,001,101613,
AFNE01.JPG,AFNE01.JPG,AFNE01.JPG,AFNE01.JPG,AFNE01.JPG,AFNE01.JPG,,,,,,,,,0,5,5,3,,,,,,,,,,,,,,,AMSA06.jpg,AMNE07.jpg,AMNE02.jpg,AMSA11.jpg,AMNE02.jpg,MN,1,num_2,16,num_2,0.816798351647,,,2017_Sep_26_1612,60.0164391868,MAFE4ImagesEEG,001,101613,
AFNE01.JPG,AFNE01.JPG,AFNE01.JPG,AFNE01.JPG,AFNE01.JPG,AFNE01.JPG,,,,,,,,,0,6,6,7,,,,,,,,,,,,,,,AMSA11.jpg,AMNE02.jpg,AMSA19.jpg,AMNE08.jpg,AMNE08.jpg,MN,1,num_4,16,num_4,1.08344650094,,,2017_Sep_26_1612,60.0164391868,MAFE4ImagesEEG,001,101613,
AFNE01.JPG,AFNE01.JPG,AFNE01.JPG,AFNE01.JPG,AFNE01.JPG,AFNE01.JPG,,,,,,,,,0,7,7,0,,,,,,,,,,,,,,,AMNE02.jpg,AMSA10.jpg,AMNE19.jpg,AMSA18.jpg,AMNE19.jpg,MN,1,num_2,16,num_2,0.849686028028,,,2017_Sep_26_1612,60.0164391868,MAFE4ImagesEEG,001,101613,
AFNE01.JPG,AFNE01.JPG,AFNE01.JPG,AFNE01.JPG,AFNE01.JPG,AFNE01.JPG,,,,,,,,,0,8,8,9,,,,,,,,,,,,,,,AMSA17.jpg,AMSA20.jpg,AMNE18.jpg,AMNE11.jpg,AMSA17.jpg,MS,2,num_8,32,num_6,0.900100840547,,,2017_Sep_26_1612,60.0164391868,MAFE4ImagesEEG,001,101613,
AFNE01.JPG,AFNE01.JPG,AFNE01.JPG,AFNE01.JPG,AFNE01.JPG,AFNE01.JPG,,,,,,,,,0,9,9,6,,,,,,,,,,,,,,,AMSA17.jpg,AMSA14.jpg,AMNE11.jpg,AMNE16.jpg,AMSA17.jpg,MS,2,num_8,32,num_4,0.667042145855,,,2017_Sep_26_1612,60.0164391868,MAFE4ImagesEEG,001,101613,
AFNE01.JPG,AFNE01.JPG,AFNE01.JPG,AFNE01.JPG,AFNE01.JPG,AFNE01.JPG,,,,,,,,,1,0,10,2,,,,,,,,,,,,,,,AMSA04.jpg,AMSA10.jpg,AMNE04.jpg,AMNE15.jpg,AMNE04.jpg,MN,1,num_2,32,num_8,0.816786484269,,,2017_Sep_26_1612,60.0164391868,MAFE4ImagesEEG,001,101613,
AFNE01.JPG,AFNE01.JPG,AFNE01.JPG,AFNE01.JPG,AFNE01.JPG,AFNE01.JPG,,,,,,,,,1,1,11,6,,,,,,,,,,,,,,,AMSA06.jpg,AMNE14.jpg,AMNE16.jpg,AMSA02.jpg,AMSA06.jpg,MS,2,num_8,16,num_8,0.933463211462,,,2017_Sep_26_1612,60.0164391868,MAFE4ImagesEEG,001,101613,
AFNE01.JPG,AFNE01.JPG,AFNE01.JPG,AFNE01.JPG,AFNE01.JPG,AFNE01.JPG,,,,,,,,,1,2,12,4,,,,,,,,,,,,,,,AMSA09.jpg,AMSA03.jpg,AMNE01.jpg,AMNE07.jpg,AMNE07.jpg,MN,1,num_4,32,num_2,1.05012678838,,,2017_Sep_26_1612,60.0164391868,MAFE4ImagesEEG,001,101613,
AFNE01.JPG,AFNE01.JPG,AFNE01.JPG,AFNE01.JPG,AFNE01.JPG,AFNE01.JPG,,,,,,,,,1,3,13,5,,,,,,,,,,,,,,,AMNE18.jpg,AMSA02.jpg,AMSA20.jpg,AMNE20.jpg,AMNE18.jpg,MN,1,num_8,16,num_8,1.06659965345,,,2017_Sep_26_1612,60.0164391868,MAFE4ImagesEEG,001,101613,
AFNE01.JPG,AFNE01.JPG,AFNE01.JPG,AFNE01.JPG,AFNE01.JPG,AFNE01.JPG,,,,,,,,,1,4,14,7,,,,,,,,,,,,,,,AMNE15.jpg,AMNE17.jpg,AMSA16.jpg,AMSA08.jpg,AMSA16.jpg,MS,2,num_2,32,num_6,1.08343591657,,,2017_Sep_26_1612,60.0164391868,MAFE4ImagesEEG,001,101613,
AFNE01.JPG,AFNE01.JPG,AFNE01.JPG,AFNE01.JPG,AFNE01.JPG,AFNE01.JPG,,,,,,,,,1,5,15,3,,,,,,,,,,,,,,,AMSA07.jpg,AMNE07.jpg,AMSA11.jpg,AMNE12.jpg,AMNE12.jpg,MN,1,num_4,16,num_4,0.933457758918,,,2017_Sep_26_1612,60.0164391868,MAFE4ImagesEEG,001,101613,
AFNE01.JPG,AFNE01.JPG,AFNE01.JPG,AFNE01.JPG,AFNE01.JPG,AFNE01.JPG,,,,,,,,,1,6,16,8,,,,,,,,,,,,,,,AMNE20.jpg,AMSA06.jpg,AMNE09.jpg,AMSA09.jpg,AMSA09.jpg,MS,2,num_4,32,num_6,2.98335682217,,,2017_Sep_26_1612,60.0164391868,MAFE4ImagesEEG,001,101613,
AFNE01.JPG,AFNE01.JPG,AFNE01.JPG,AFNE01.JPG,AFNE01.JPG,AFNE01.JPG,,,,,,,,,1,7,17,9,,,,,,,,,,,,,,,AMSA19.jpg,AMSA16.jpg,AMNE09.jpg,AMNE13.jpg,AMNE13.jpg,MN,1,num_4,16,num_4,0.833463339775,,,2017_Sep_26_1612,60.0164391868,MAFE4ImagesEEG,001,101613,
AFNE01.JPG,AFNE01.JPG,AFNE01.JPG,AFNE01.JPG,AFNE01.JPG,AFNE01.JPG,,,,,,,,,1,8,18,1,,,,,,,,,,,,,,,AMNE07.jpg,AMSA04.jpg,AMNE10.jpg,AMSA09.jpg,AMSA04.jpg,MS,2,num_6,16,num_6,0.783452017698,,,2017_Sep_26_1612,60.0164391868,MAFE4ImagesEEG,001,101613,
AFNE01.JPG,AFNE01.JPG,AFNE01.JPG,AFNE01.JPG,AFNE01.JPG,AFNE01.JPG,,,,,,,,,1,9,19,0,,,,,,,,,,,,,,,AMSA14.jpg,AMNE12.jpg,AMSA03.jpg,AMNE20.jpg,AMSA14.jpg,MS,2,num_8,16,num_8,0.783482487954,,,2017_Sep_26_1612,60.0164391868,MAFE4ImagesEEG,001,101613,
AFNE01.JPG,AFNE01.JPG,AFNE01.JPG,AFNE01.JPG,AFNE01.JPG,AFNE01.JPG,,,,,,,,,2,0,20,9,,,,,,,,,,,,,,,AMSA20.jpg,AMNE11.jpg,AMNE13.jpg,AMSA07.jpg,AMNE13.jpg,MN,1,num_2,32,num_4,4.70011681336,,,2017_Sep_26_1612,60.0164391868,MAFE4ImagesEEG,001,101613,
AFNE01.JPG,AFNE01.JPG,AFNE01.JPG,AFNE01.JPG,AFNE01.JPG,AFNE01.JPG,,,,,,,,,2,1,21,2,,,,,,,,,,,,,,,AMNE06.jpg,AMSA19.jpg,AMSA09.jpg,AMNE09.jpg,AMNE06.jpg,MN,1,num_8,32,num_4,0.70014118962,,,2017_Sep_26_1612,60.0164391868,MAFE4ImagesEEG,001,101613,
AFNE01.JPG,AFNE01.JPG,AFNE01.JPG,AFNE01.JPG,AFNE01.JPG,AFNE01.JPG,,,,,,,,,2,2,22,5,,,,,,,,,,,,,,,AMSA17.jpg,AMNE04.jpg,AMNE01.jpg,AMSA16.jpg,AMNE04.jpg,MN,1,num_6,16,num_6,0.850137950096,,,2017_Sep_26_1612,60.0164391868,MAFE4ImagesEEG,001,101613,
AFNE01.JPG,AFNE01.JPG,AFNE01.JPG,AFNE01.JPG,AFNE01.JPG,AFNE01.JPG,,,,,,,,,2,3,23,7,,,,,,,,,,,,,,,AMNE17.jpg,AMSA12.jpg,AMSA05.jpg,AMNE15.jpg,AMNE15.jpg,MN,1,num_4,32,num_2,0.750190358958,,,2017_Sep_26_1612,60.0164391868,MAFE4ImagesEEG,001,101613,
AFNE01.JPG,AFNE01.JPG,AFNE01.JPG,AFNE01.JPG,AFNE01.JPG,AFNE01.JPG,,,,,,,,,2,4,24,6,,,,,,,,,,,,,,,AMSA06.jpg,AMNE05.jpg,AMSA09.jpg,AMNE07.jpg,AMNE07.jpg,MN,1,num_4,32,num_8,0.150173808797,,,2017_Sep_26_1612,60.0164391868,MAFE4ImagesEEG,001,101613,
AFNE01.JPG,AFNE01.JPG,AFNE01.JPG,AFNE01.JPG,AFNE01.JPG,AFNE01.JPG,,,,,,,,,2,5,25,0,,,,,,,,,,,,,,,AMNE03.jpg,AMSA07.jpg,AMNE06.jpg,AMSA09.jpg,AMSA07.jpg,MS,2,num_6,16,num_6,0.600148053432,,,2017_Sep_26_1612,60.0164391868,MAFE4ImagesEEG,001,101613,
AFNE01.JPG,AFNE01.JPG,AFNE01.JPG,AFNE01.JPG,AFNE01.JPG,AFNE01.JPG,,,,,,,,,2,6,26,4,,,,,,,,,,,,,,,AMNE07.jpg,AMNE02.jpg,AMSA15.jpg,AMSA19.jpg,AMSA15.jpg,MS,2,num_2,16,num_2,0.650152319227,,,2017_Sep_26_1612,60.0164391868,MAFE4ImagesEEG,001,101613,
AFNE01.JPG,AFNE01.JPG,AFNE01.JPG,AFNE01.JPG,AFNE01.JPG,AFNE01.JPG,,,,,,,,,2,7,27,1,,,,,,,,,,,,,,,AMSA02.jpg,AMSA04.jpg,AMNE09.jpg,AMNE12.jpg,AMSA04.jpg,MS,2,num_6,32,num_8,0.583508082957,,,2017_Sep_26_1612,60.0164391868,MAFE4ImagesEEG,001,101613,
AFNE01.JPG,AFNE01.JPG,AFNE01.JPG,AFNE01.JPG,AFNE01.JPG,AFNE01.JPG,,,,,,,,,2,8,28,3,,,,,,,,,,,,,,,AMSA04.jpg,AMNE19.jpg,AMSA13.jpg,AMNE01.jpg,AMNE19.jpg,MN,1,num_6,16,num_6,0.76677580364,,,2017_Sep_26_1612,60.0164391868,MAFE4ImagesEEG,001,101613,
AFNE01.JPG,AFNE01.JPG,AFNE01.JPG,AFNE01.JPG,AFNE01.JPG,AFNE01.JPG,,,,,,,,,2,9,29,8,,,,,,,,,,,,,,,AMNE18.jpg,AMSA14.jpg,AMNE08.jpg,AMSA11.jpg,AMSA14.jpg,MS,2,num_6,16,num_6,0.966768170067,,,2017_Sep_26_1612,60.0164391868,MAFE4ImagesEEG,001,101613,
AFNE01.JPG,AFNE01.JPG,AFNE01.JPG,AFNE01.JPG,AFNE01.JPG,AFNE01.JPG,,,,,,,,,3,0,30,2,,,,,,,,,,,,,,,AMNE19.jpg,AMSA17.jpg,AMNE08.jpg,AMSA14.jpg,AMSA17.jpg,MS,2,num_6,32,num_8,2.05003730202,,,2017_Sep_26_1612,60.0164391868,MAFE4ImagesEEG,001,101613,
AFNE01.JPG,AFNE01.JPG,AFNE01.JPG,AFNE01.JPG,AFNE01.JPG,AFNE01.JPG,,,,,,,,,3,1,31,3,,,,,,,,,,,,,,,AMNE15.jpg,AMSA11.jpg,AMSA18.jpg,AMNE05.jpg,AMSA11.jpg,MS,2,num_6,32,num_8,0.516909391677,,,2017_Sep_26_1612,60.0164391868,MAFE4ImagesEEG,001,101613,
AFNE01.JPG,AFNE01.JPG,AFNE01.JPG,AFNE01.JPG,AFNE01.JPG,AFNE01.JPG,,,,,,,,,3,2,32,8,,,,,,,,,,,,,,,AMSA19.jpg,AMSA01.jpg,AMNE12.jpg,AMNE17.jpg,AMSA19.jpg,MS,2,num_8,32,num_2,1.05015982455,,,2017_Sep_26_1612,60.0164391868,MAFE4ImagesEEG,001,101613,
AFNE01.JPG,AFNE01.JPG,AFNE01.JPG,AFNE01.JPG,AFNE01.JPG,AFNE01.JPG,,,,,,,,,3,3,33,0,,,,,,,,,,,,,,,AMNE01.jpg,AMNE02.jpg,AMSA18.jpg,AMSA06.jpg,AMNE01.jpg,MN,1,num_8,16,num_8,0.650174771028,,,2017_Sep_26_1612,60.0164391868,MAFE4ImagesEEG,001,101613,
AFNE01.JPG,AFNE01.JPG,AFNE01.JPG,AFNE01.JPG,AFNE01.JPG,AFNE01.JPG,,,,,,,,,3,4,34,4,,,,,,,,,,,,,,,AMSA02.jpg,AMSA19.jpg,AMNE13.jpg,AMNE16.jpg,AMSA19.jpg,MS,2,num_6,32,num_8,0.566771890619,,,2017_Sep_26_1612,60.0164391868,MAFE4ImagesEEG,001,101613,
AFNE01.JPG,AFNE01.JPG,AFNE01.JPG,AFNE01.JPG,AFNE01.JPG,AFNE01.JPG,,,,,,,,,3,5,35,7,,,,,,,,,,,,,,,AMNE18.jpg,AMSA20.jpg,AMNE03.jpg,AMSA18.jpg,AMNE03.jpg,MN,1,num_2,32,num_4,0.316811181256,,,2017_Sep_26_1612,60.0164391868,MAFE4ImagesEEG,001,101613,
AFNE01.JPG,AFNE01.JPG,AFNE01.JPG,AFNE01.JPG,AFNE01.JPG,AFNE01.JPG,,,,,,,,,3,6,36,9,,,,,,,,,,,,,,,AMSA06.jpg,AMSA20.jpg,AMNE20.jpg,AMNE08.jpg,AMSA06.jpg,MS,2,num_8,32,num_6,1.58344425581,,,2017_Sep_26_1612,60.0164391868,MAFE4ImagesEEG,001,101613,
AFNE01.JPG,AFNE01.JPG,AFNE01.JPG,AFNE01.JPG,AFNE01.JPG,AFNE01.JPG,,,,,,,,,3,7,37,1,,,,,,,,,,,,,,,AMNE05.jpg,AMNE15.jpg,AMSA17.jpg,AMSA04.jpg,AMNE05.jpg,MN,1,num_8,32,num_4,0.850157515204,,,2017_Sep_26_1612,60.0164391868,MAFE4ImagesEEG,001,101613,
AFNE01.JPG,AFNE01.JPG,AFNE01.JPG,AFNE01.JPG,AFNE01.JPG,AFNE01.JPG,,,,,,,,,3,8,38,5,,,,,,,,,,,,,,,AMNE03.jpg,AMNE09.jpg,AMSA16.jpg,AMSA11.jpg,AMSA11.jpg,MS,2,num_4,32,num_8,0.550147957169,,,2017_Sep_26_1612,60.0164391868,MAFE4ImagesEEG,001,101613,
AFNE01.JPG,AFNE01.JPG,AFNE01.JPG,AFNE01.JPG,AFNE01.JPG,AFNE01.JPG,,,,,,,,,3,9,39,6,,,,,,,,,,,,,,,AMNE19.jpg,AMNE07.jpg,AMSA07.jpg,AMSA12.jpg,AMSA07.jpg,MS,2,num_2,16,num_2,0.950085541233,,,2017_Sep_26_1612,60.0164391868,MAFE4ImagesEEG,001,101613,
AFNE01.JPG,AFNE01.JPG,AFNE01.JPG,AFNE01.JPG,AFNE01.JPG,AFNE01.JPG,,,,,,,,,4,0,40,4,,,,,,,,,,,,,,,AMNE12.jpg,AMSA19.jpg,AMNE05.jpg,AMSA09.jpg,AMSA09.jpg,MS,2,num_4,16,num_4,0.73321297043,,,2017_Sep_26_1612,60.0164391868,MAFE4ImagesEEG,001,101613,
AFNE01.JPG,AFNE01.JPG,AFNE01.JPG,AFNE01.JPG,AFNE01.JPG,AFNE01.JPG,,,,,,,,,4,1,41,6,,,,,,,,,,,,,,,AMNE13.jpg,AMSA05.jpg,AMSA04.jpg,AMNE10.jpg,AMNE10.jpg,MN,1,num_4,32,num_2,0.516783020284,,,2017_Sep_26_1612,60.0164391868,MAFE4ImagesEEG,001,101613,
AFNE01.JPG,AFNE01.JPG,AFNE01.JPG,AFNE01.JPG,AFNE01.JPG,AFNE01.JPG,,,,,,,,,4,2,42,8,,,,,,,,,,,,,,,AMNE17.jpg,AMNE05.jpg,AMSA08.jpg,AMSA03.jpg,AMSA03.jpg,MS,2,num_4,32,num_6,1.21678180149,,,2017_Sep_26_1612,60.0164391868,MAFE4ImagesEEG,001,101613,
AFNE01.JPG,AFNE01.JPG,AFNE01.JPG,AFNE01.JPG,AFNE01.JPG,AFNE01.JPG,,,,,,,,,4,3,43,9,,,,,,,,,,,,,,,AMNE02.jpg,AMSA20.jpg,AMSA08.jpg,AMNE08.jpg,AMSA08.jpg,MS,2,num_2,32,num_8,0.416812977404,,,2017_Sep_26_1612,60.0164391868,MAFE4ImagesEEG,001,101613,
AFNE01.JPG,AFNE01.JPG,AFNE01.JPG,AFNE01.JPG,AFNE01.JPG,AFNE01.JPG,,,,,,,,,4,4,44,7,,,,,,,,,,,,,,,AMSA01.jpg,AMNE04.jpg,AMNE02.jpg,AMSA19.jpg,AMNE02.jpg,MN,1,num_2,32,num_8,0.300174418197,,,2017_Sep_26_1612,60.0164391868,MAFE4ImagesEEG,001,101613,
AFNE01.JPG,AFNE01.JPG,AFNE01.JPG,AFNE01.JPG,AFNE01.JPG,AFNE01.JPG,,,,,,,,,4,5,45,1,,,,,,,,,,,,,,,AMSA10.jpg,AMSA05.jpg,AMNE18.jpg,AMNE19.jpg,AMSA05.jpg,MS,2,num_6,32,num_4,0.8001404198,,,2017_Sep_26_1612,60.0164391868,MAFE4ImagesEEG,001,101613,
AFNE01.JPG,AFNE01.JPG,AFNE01.JPG,AFNE01.JPG,AFNE01.JPG,AFNE01.JPG,,,,,,,,,4,6,46,0,,,,,,,,,,,,,,,AMSA13.jpg,AMSA19.jpg,AMNE11.jpg,AMNE06.jpg,AMNE06.jpg,MN,1,num_4,32,num_6,0.933485342539,,,2017_Sep_26_1612,60.0164391868,MAFE4ImagesEEG,001,101613,
AFNE01.JPG,AFNE01.JPG,AFNE01.JPG,AFNE01.JPG,AFNE01.JPG,AFNE01.JPG,,,,,,,,,4,7,47,5,,,,,,,,,,,,,,,AMSA15.jpg,AMNE05.jpg,AMNE06.jpg,AMSA17.jpg,AMNE06.jpg,MN,1,num_2,32,num_6,0.733503881318,,,2017_Sep_26_1612,60.0164391868,MAFE4ImagesEEG,001,101613,
AFNE01.JPG,AFNE01.JPG,AFNE01.JPG,AFNE01.JPG,AFNE01.JPG,AFNE01.JPG,,,,,,,,,4,8,48,3,,,,,,,,,,,,,,,AMSA04.jpg,AMNE17.jpg,AMSA05.jpg,AMNE07.jpg,AMNE07.jpg,MN,1,num_4,32,num_6,0.783490185684,,,2017_Sep_26_1612,60.0164391868,MAFE4ImagesEEG,001,101613,
AFNE01.JPG,AFNE01.JPG,AFNE01.JPG,AFNE01.JPG,AFNE01.JPG,AFNE01.JPG,,,,,,,,,4,9,49,2,,,,,,,,,,,,,,,AMNE20.jpg,AMSA12.jpg,AMNE14.jpg,AMSA17.jpg,AMNE14.jpg,MN,1,num_2,16,num_2,0.68335496186,,,2017_Sep_26_1612,60.0164391868,MAFE4ImagesEEG,001,101613,
AFNE01.JPG,AFNE01.JPG,AFNE01.JPG,AFNE01.JPG,AFNE01.JPG,AFNE01.JPG,,,,,,,,,5,0,50,7,,,,,,,,,,,,,,,AMNE17.jpg,AMSA13.jpg,AMSA04.jpg,AMNE15.jpg,AMSA04.jpg,MS,2,num_2,32,num_4,1.53341336857,,,2017_Sep_26_1612,60.0164391868,MAFE4ImagesEEG,001,101613,
AFNE01.JPG,AFNE01.JPG,AFNE01.JPG,AFNE01.JPG,AFNE01.JPG,AFNE01.JPG,,,,,,,,,5,1,51,9,,,,,,,,,,,,,,,AMSA16.jpg,AMSA09.jpg,AMNE15.jpg,AMNE19.jpg,AMSA09.jpg,MS,2,num_6,16,num_6,0.516813490598,,,2017_Sep_26_1612,60.0164391868,MAFE4ImagesEEG,001,101613,
AFNE01.JPG,AFNE01.JPG,AFNE01.JPG,AFNE01.JPG,AFNE01.JPG,AFNE01.JPG,,,,,,,,,5,2,52,3,,,,,,,,,,,,,,,AMNE05.jpg,AMSA08.jpg,AMSA04.jpg,AMNE14.jpg,AMSA04.jpg,MS,2,num_2,16,num_2,0.416816505545,,,2017_Sep_26_1612,60.0164391868,MAFE4ImagesEEG,001,101613,
AFNE01.JPG,AFNE01.JPG,AFNE01.JPG,AFNE01.JPG,AFNE01.JPG,AFNE01.JPG,,,,,,,,,5,3,53,4,,,,,,,,,,,,,,,AMNE19.jpg,AMSA09.jpg,AMSA17.jpg,AMNE02.jpg,AMNE02.jpg,MN,1,num_4,16,num_4,1.03347238462,,,2017_Sep_26_1612,60.0164391868,MAFE4ImagesEEG,001,101613,
AFNE01.JPG,AFNE01.JPG,AFNE01.JPG,AFNE01.JPG,AFNE01.JPG,AFNE01.JPG,,,,,,,,,5,4,54,0,,,,,,,,,,,,,,,AMSA08.jpg,AMNE15.jpg,AMSA13.jpg,AMNE17.jpg,AMNE17.jpg,MN,1,num_4,32,num_8,0.483370293223,,,2017_Sep_26_1612,60.0164391868,MAFE4ImagesEEG,001,101613,
AFNE01.JPG,AFNE01.JPG,AFNE01.JPG,AFNE01.JPG,AFNE01.JPG,AFNE01.JPG,,,,,,,,,5,5,55,5,,,,,,,,,,,,,,,AMSA15.jpg,AMNE20.jpg,AMNE01.jpg,AMSA12.jpg,AMNE01.jpg,MN,1,num_2,32,num_6,0.317102733534,,,2017_Sep_26_1612,60.0164391868,MAFE4ImagesEEG,001,101613,
AFNE01.JPG,AFNE01.JPG,AFNE01.JPG,AFNE01.JPG,AFNE01.JPG,AFNE01.JPG,,,,,,,,,5,6,56,2,,,,,,,,,,,,,,,AMNE20.jpg,AMSA04.jpg,AMNE06.jpg,AMSA06.jpg,AMNE20.jpg,MN,1,num_8,32,num_4,0.916777375271,,,2017_Sep_26_1612,60.0164391868,MAFE4ImagesEEG,001,101613,
AFNE01.JPG,AFNE01.JPG,AFNE01.JPG,AFNE01.JPG,AFNE01.JPG,AFNE01.JPG,,,,,,,,,5,7,57,6,,,,,,,,,,,,,,,AMNE13.jpg,AMSA01.jpg,AMSA18.jpg,AMNE01.jpg,AMNE13.jpg,MN,1,num_8,16,num_8,0.516804830579,,,2017_Sep_26_1612,60.0164391868,MAFE4ImagesEEG,001,101613,
AFNE01.JPG,AFNE01.JPG,AFNE01.JPG,AFNE01.JPG,AFNE01.JPG,AFNE01.JPG,,,,,,,,,5,8,58,8,,,,,,,,,,,,,,,AMSA11.jpg,AMSA02.jpg,AMNE15.jpg,AMNE18.jpg,AMSA11.jpg,MS,2,num_8,32,num_2,1.16679389338,,,2017_Sep_26_1612,60.0164391868,MAFE4ImagesEEG,001,101613,
AFNE01.JPG,AFNE01.JPG,AFNE01.JPG,AFNE01.JPG,AFNE01.JPG,AFNE01.JPG,,,,,,,,,5,9,59,1,,,,,,,,,,,,,,,AMSA04.jpg,AMNE11.jpg,AMNE16.jpg,AMSA06.jpg,AMSA06.jpg,MS,2,num_4,32,num_6,0.583509045187,,,2017_Sep_26_1612,60.0164391868,MAFE4ImagesEEG,001,101613,
,,,,,,,,,,,,,,,,,,,,,,,,,,,,,,,,,,,,,,,,,,,space,2.2833371929,2017_Sep_26_1612,60.0164391868,MAFE4ImagesEEG,001,101613,
AFNE01.JPG,AFNE01.JPG,AFNE01.JPG,AFNE01.JPG,AFNE01.JPG,AFNE01.JPG,,,,,,,,,,,,,0,0,0,0,,,,,,,,,,,AFNE08.jpg,AFNE17.jpg,AFSA17.jpg,AFSA13.jpg,AFNE17.jpg,FN,3,num_6,32,num_8,0.450188498653,,,2017_Sep_26_1612,60.0164391868,MAFE4ImagesEEG,001,101613,
AFNE01.JPG,AFNE01.JPG,AFNE01.JPG,AFNE01.JPG,AFNE01.JPG,AFNE01.JPG,,,,,,,,,,,,,0,1,1,6,,,,,,,,,,,AFNE04.jpg,AFNE18.jpg,AFSA04.jpg,AFSA18.jpg,AFNE18.jpg,FN,3,num_6,32,num_8,0.783452338423,,,2017_Sep_26_1612,60.0164391868,MAFE4ImagesEEG,001,101613,
AFNE01.JPG,AFNE01.JPG,AFNE01.JPG,AFNE01.JPG,AFNE01.JPG,AFNE01.JPG,,,,,,,,,,,,,0,2,2,4,,,,,,,,,,,AFNE17.jpg,AFSA19.jpg,AFNE04.jpg,AFSA04.jpg,AFNE04.jpg,FN,3,num_2,32,num_8,0.583483706752,,,2017_Sep_26_1612,60.0164391868,MAFE4ImagesEEG,001,101613,
AFNE01.JPG,AFNE01.JPG,AFNE01.JPG,AFNE01.JPG,AFNE01.JPG,AFNE01.JPG,,,,,,,,,,,,,0,3,3,9,,,,,,,,,,,AFSA05.jpg,AFSA10.jpg,AFNE08.jpg,AFNE11.jpg,AFNE11.jpg,FN,3,num_4,32,num_6,0.733133427042,,,2017_Sep_26_1612,60.0164391868,MAFE4ImagesEEG,001,101613,
AFNE01.JPG,AFNE01.JPG,AFNE01.JPG,AFNE01.JPG,AFNE01.JPG,AFNE01.JPG,,,,,,,,,,,,,0,4,4,7,,,,,,,,,,,AFSA01.jpg,AFSA20.jpg,AFNE07.jpg,AFNE17.jpg,AFSA01.jpg,FS,4,num_8,16,num_8,0.95014199143,,,2017_Sep_26_1612,60.0164391868,MAFE4ImagesEEG,001,101613,
AFNE01.JPG,AFNE01.JPG,AFNE01.JPG,AFNE01.JPG,AFNE01.JPG,AFNE01.JPG,,,,,,,,,,,,,0,5,5,8,,,,,,,,,,,AFSA09.jpg,AFNE04.jpg,AFSA03.jpg,AFNE10.jpg,AFNE04.jpg,FN,3,num_6,32,num_4,0.833523959562,,,2017_Sep_26_1612,60.0164391868,MAFE4ImagesEEG,001,101613,
AFNE01.JPG,AFNE01.JPG,AFNE01.JPG,AFNE01.JPG,AFNE01.JPG,AFNE01.JPG,,,,,,,,,,,,,0,6,6,2,,,,,,,,,,,AFNE01.jpg,AFSA09.jpg,AFSA20.jpg,AFNE15.jpg,AFSA20.jpg,FS,4,num_2,32,num_8,0.733531785663,,,2017_Sep_26_1612,60.0164391868,MAFE4ImagesEEG,001,101613,
AFNE01.JPG,AFNE01.JPG,AFNE01.JPG,AFNE01.JPG,AFNE01.JPG,AFNE01.JPG,,,,,,,,,,,,,0,7,7,5,,,,,,,,,,,AFSA01.jpg,AFNE10.jpg,AFSA06.jpg,AFNE16.jpg,AFSA01.jpg,FS,4,num_8,16,num_8,0.633450125286,,,2017_Sep_26_1612,60.0164391868,MAFE4ImagesEEG,001,101613,
AFNE01.JPG,AFNE01.JPG,AFNE01.JPG,AFNE01.JPG,AFNE01.JPG,AFNE01.JPG,,,,,,,,,,,,,0,8,8,1,,,,,,,,,,,AFNE19.jpg,AFNE07.jpg,AFSA18.jpg,AFSA07.jpg,AFNE07.jpg,FN,3,num_6,32,num_8,0.583507762232,,,2017_Sep_26_1612,60.0164391868,MAFE4ImagesEEG,001,101613,
AFNE01.JPG,AFNE01.JPG,AFNE01.JPG,AFNE01.JPG,AFNE01.JPG,AFNE01.JPG,,,,,,,,,,,,,0,9,9,3,,,,,,,,,,,AFNE02.jpg,AFSA10.jpg,AFSA18.jpg,AFNE01.jpg,AFSA18.jpg,FS,4,num_2,32,num_6,0.76677580364,,,2017_Sep_26_1612,60.0164391868,MAFE4ImagesEEG,001,101613,
AFNE01.JPG,AFNE01.JPG,AFNE01.JPG,AFNE01.JPG,AFNE01.JPG,AFNE01.JPG,,,,,,,,,,,,,1,0,10,9,,,,,,,,,,,AFSA01.jpg,AFNE16.jpg,AFNE05.jpg,AFSA13.jpg,AFSA13.jpg,FS,4,num_4,16,num_4,0.600172108854,,,2017_Sep_26_1612,60.0164391868,MAFE4ImagesEEG,001,101613,
AFNE01.JPG,AFNE01.JPG,AFNE01.JPG,AFNE01.JPG,AFNE01.JPG,AFNE01.JPG,,,,,,,,,,,,,1,1,11,5,,,,,,,,,,,AFNE08.jpg,AFNE19.jpg,AFSA04.jpg,AFSA01.jpg,AFSA01.jpg,FS,4,num_4,16,num_4,3.61640409858,,,2017_Sep_26_1612,60.0164391868,MAFE4ImagesEEG,001,101613,
AFNE01.JPG,AFNE01.JPG,AFNE01.JPG,AFNE01.JPG,AFNE01.JPG,AFNE01.JPG,,,,,,,,,,,,,1,2,12,0,,,,,,,,,,,AFSA17.jpg,AFNE01.jpg,AFSA08.jpg,AFNE12.jpg,AFSA08.jpg,FS,4,num_2,32,num_6,1.91678026196,,,2017_Sep_26_1612,60.0164391868,MAFE4ImagesEEG,001,101613,
AFNE01.JPG,AFNE01.JPG,AFNE01.JPG,AFNE01.JPG,AFNE01.JPG,AFNE01.JPG,,,,,,,,,,,,,1,3,13,4,,,,,,,,,,,AFNE06.jpg,AFSA10.jpg,AFNE07.jpg,AFSA08.jpg,AFNE06.jpg,FN,3,num_8,16,num_8,0.783486657601,,,2017_Sep_26_1612,60.0164391868,MAFE4ImagesEEG,001,101613,
AFNE01.JPG,AFNE01.JPG,AFNE01.JPG,AFNE01.JPG,AFNE01.JPG,AFNE01.JPG,,,,,,,,,,,,,1,4,14,1,,,,,,,,,,,AFNE19.jpg,AFNE14.jpg,AFSA14.jpg,AFSA06.jpg,AFNE14.jpg,FN,3,num_6,32,num_8,0.75013743696,,,2017_Sep_26_1612,60.0164391868,MAFE4ImagesEEG,001,101613,
AFNE01.JPG,AFNE01.JPG,AFNE01.JPG,AFNE01.JPG,AFNE01.JPG,AFNE01.JPG,,,,,,,,,,,,,1,5,15,2,,,,,,,,,,,AFSA15.jpg,AFNE20.jpg,AFSA19.jpg,AFNE19.jpg,AFNE19.jpg,FN,3,num_4,16,num_4,0.583501668181,,,2017_Sep_26_1612,60.0164391868,MAFE4ImagesEEG,001,101613,
AFNE01.JPG,AFNE01.JPG,AFNE01.JPG,AFNE01.JPG,AFNE01.JPG,AFNE01.JPG,,,,,,,,,,,,,1,6,16,6,,,,,,,,,,,AFNE05.jpg,AFSA16.jpg,AFSA08.jpg,AFNE10.jpg,AFSA16.jpg,FS,4,num_6,32,num_8,1.61676172318,,,2017_Sep_26_1612,60.0164391868,MAFE4ImagesEEG,001,101613,
AFNE01.JPG,AFNE01.JPG,AFNE01.JPG,AFNE01.JPG,AFNE01.JPG,AFNE01.JPG,,,,,,,,,,,,,1,7,17,7,,,,,,,,,,,AFNE11.jpg,AFSA01.jpg,AFNE03.jpg,AFSA15.jpg,AFNE03.jpg,FN,3,num_2,32,num_6,0.950168292038,,,2017_Sep_26_1612,60.0164391868,MAFE4ImagesEEG,001,101613,
AFNE01.JPG,AFNE01.JPG,AFNE01.JPG,AFNE01.JPG,AFNE01.JPG,AFNE01.JPG,,,,,,,,,,,,,1,8,18,3,,,,,,,,,,,AFSA07.jpg,AFNE08.jpg,AFSA06.jpg,AFNE03.jpg,AFSA06.jpg,FS,4,num_2,32,num_4,1.16678908229,,,2017_Sep_26_1612,60.0164391868,MAFE4ImagesEEG,001,101613,
AFNE01.JPG,AFNE01.JPG,AFNE01.JPG,AFNE01.JPG,AFNE01.JPG,AFNE01.JPG,,,,,,,,,,,,,1,9,19,8,,,,,,,,,,,AFNE15.jpg,AFNE13.jpg,AFSA20.jpg,AFSA05.jpg,AFSA05.jpg,FS,4,num_4,32,num_8,0.366853935819,,,2017_Sep_26_1612,60.0164391868,MAFE4ImagesEEG,001,101613,
AFNE01.JPG,AFNE01.JPG,AFNE01.JPG,AFNE01.JPG,AFNE01.JPG,AFNE01.JPG,,,,,,,,,,,,,2,0,20,5,,,,,,,,,,,AFNE20.jpg,AFSA17.jpg,AFNE03.jpg,AFSA09.jpg,AFNE20.jpg,FN,3,num_8,32,num_4,0.750168869388,,,2017_Sep_26_1612,60.0164391868,MAFE4ImagesEEG,001,101613,
AFNE01.JPG,AFNE01.JPG,AFNE01.JPG,AFNE01.JPG,AFNE01.JPG,AFNE01.JPG,,,,,,,,,,,,,2,1,21,4,,,,,,,,,,,AFSA16.jpg,AFNE05.jpg,AFSA11.jpg,AFNE17.jpg,AFNE05.jpg,FN,3,num_6,16,num_6,0.583484989707,,,2017_Sep_26_1612,60.0164391868,MAFE4ImagesEEG,001,101613,
AFNE01.JPG,AFNE01.JPG,AFNE01.JPG,AFNE01.JPG,AFNE01.JPG,AFNE01.JPG,,,,,,,,,,,,,2,2,22,6,,,,,,,,,,,AFNE12.jpg,AFNE16.jpg,AFSA07.jpg,AFSA03.jpg,AFNE16.jpg,FN,3,num_6,16,num_6,0.916820033686,,,2017_Sep_26_1612,60.0164391868,MAFE4ImagesEEG,001,101613,
AFNE01.JPG,AFNE01.JPG,AFNE01.JPG,AFNE01.JPG,AFNE01.JPG,AFNE01.JPG,,,,,,,,,,,,,2,3,23,1,,,,,,,,,,,AFNE17.jpg,AFSA10.jpg,AFNE20.jpg,AFSA12.jpg,AFNE20.jpg,FN,3,num_2,16,num_2,0.71670738986,,,2017_Sep_26_1612,60.0164391868,MAFE4ImagesEEG,001,101613,
AFNE01.JPG,AFNE01.JPG,AFNE01.JPG,AFNE01.JPG,AFNE01.JPG,AFNE01.JPG,,,,,,,,,,,,,2,4,24,2,,,,,,,,,,,AFNE13.jpg,AFSA20.jpg,AFSA12.jpg,AFNE17.jpg,AFSA12.jpg,FS,4,num_2,16,num_2,0.516802906117,,,2017_Sep_26_1612,60.0164391868,MAFE4ImagesEEG,001,101613,
AFNE01.JPG,AFNE01.JPG,AFNE01.JPG,AFNE01.JPG,AFNE01.JPG,AFNE01.JPG,,,,,,,,,,,,,2,5,25,3,,,,,,,,,,,AFNE03.jpg,AFSA07.jpg,AFNE04.jpg,AFSA11.jpg,AFNE04.jpg,FN,3,num_2,16,num_2,0.733577972162,,,2017_Sep_26_1612,60.0164391868,MAFE4ImagesEEG,001,101613,
AFNE01.JPG,AFNE01.JPG,AFNE01.JPG,AFNE01.JPG,AFNE01.JPG,AFNE01.JPG,,,,,,,,,,,,,2,6,26,0,,,,,,,,,,,AFNE17.jpg,AFNE16.jpg,AFSA13.jpg,AFSA11.jpg,AFSA13.jpg,FS,4,num_2,32,num_8,1.13346872822,,,2017_Sep_26_1612,60.0164391868,MAFE4ImagesEEG,001,101613,
AFNE01.JPG,AFNE01.JPG,AFNE01.JPG,AFNE01.JPG,AFNE01.JPG,AFNE01.JPG,,,,,,,,,,,,,2,7,27,9,,,,,,,,,,,AFSA01.jpg,AFSA07.jpg,AFNE05.jpg,AFNE15.jpg,AFNE05.jpg,FN,3,num_2,32,num_4,0.78349499678,,,2017_Sep_26_1612,60.0164391868,MAFE4ImagesEEG,001,101613,
AFNE01.JPG,AFNE01.JPG,AFNE01.JPG,AFNE01.JPG,AFNE01.JPG,AFNE01.JPG,,,,,,,,,,,,,2,8,28,8,,,,,,,,,,,AFNE10.jpg,AFSA01.jpg,AFNE17.jpg,AFSA20.jpg,AFSA01.jpg,FS,4,num_6,32,num_8,0.500142408418,,,2017_Sep_26_1612,60.0164391868,MAFE4ImagesEEG,001,101613,
AFNE01.JPG,AFNE01.JPG,AFNE01.JPG,AFNE01.JPG,AFNE01.JPG,AFNE01.JPG,,,,,,,,,,,,,2,9,29,7,,,,,,,,,,,AFNE17.jpg,AFSA07.jpg,AFSA05.jpg,AFNE05.jpg,AFSA05.jpg,FS,4,num_2,32,num_8,0.58344746317,,,2017_Sep_26_1612,60.0164391868,MAFE4ImagesEEG,001,101613,
AFNE01.JPG,AFNE01.JPG,AFNE01.JPG,AFNE01.JPG,AFNE01.JPG,AFNE01.JPG,,,,,,,,,,,,,3,0,30,1,,,,,,,,,,,AFSA06.jpg,AFNE13.jpg,AFSA08.jpg,AFNE14.jpg,AFNE13.jpg,FN,3,num_6,32,num_4,0.583490442252,,,2017_Sep_26_1612,60.0164391868,MAFE4ImagesEEG,001,101613,
AFNE01.JPG,AFNE01.JPG,AFNE01.JPG,AFNE01.JPG,AFNE01.JPG,AFNE01.JPG,,,,,,,,,,,,,3,1,31,7,,,,,,,,,,,AFSA03.jpg,AFSA08.jpg,AFNE09.jpg,AFNE13.jpg,AFNE13.jpg,FN,3,num_4,16,num_4,0.666778818646,,,2017_Sep_26_1612,60.0164391868,MAFE4ImagesEEG,001,101613,
AFNE01.JPG,AFNE01.JPG,AFNE01.JPG,AFNE01.JPG,AFNE01.JPG,AFNE01.JPG,,,,,,,,,,,,,3,2,32,4,,,,,,,,,,,AFNE06.jpg,AFSA11.jpg,AFSA07.jpg,AFNE13.jpg,AFSA07.jpg,FS,4,num_2,16,num_2,0.78345394216,,,2017_Sep_26_1612,60.0164391868,MAFE4ImagesEEG,001,101613,
AFNE01.JPG,AFNE01.JPG,AFNE01.JPG,AFNE01.JPG,AFNE01.JPG,AFNE01.JPG,,,,,,,,,,,,,3,3,33,6,,,,,,,,,,,AFNE19.jpg,AFNE02.jpg,AFSA08.jpg,AFSA04.jpg,AFSA04.jpg,FS,4,num_4,32,num_2,0.516817339463,,,2017_Sep_26_1612,60.0164391868,MAFE4ImagesEEG,001,101613,
AFNE01.JPG,AFNE01.JPG,AFNE01.JPG,AFNE01.JPG,AFNE01.JPG,AFNE01.JPG,,,,,,,,,,,,,3,4,34,0,,,,,,,,,,,AFNE01.jpg,AFNE05.jpg,AFSA03.jpg,AFSA04.jpg,AFSA03.jpg,FS,4,num_2,32,num_4,0.550169767463,,,2017_Sep_26_1612,60.0164391868,MAFE4ImagesEEG,001,101613,
AFNE01.JPG,AFNE01.JPG,AFNE01.JPG,AFNE01.JPG,AFNE01.JPG,AFNE01.JPG,,,,,,,,,,,,,3,5,35,8,,,,,,,,,,,AFSA14.jpg,AFNE02.jpg,AFNE17.jpg,AFSA12.jpg,AFSA14.jpg,FS,4,num_8,16,num_8,1.05013641057,,,2017_Sep_26_1612,60.0164391868,MAFE4ImagesEEG,001,101613,
AFNE01.JPG,AFNE01.JPG,AFNE01.JPG,AFNE01.JPG,AFNE01.JPG,AFNE01.JPG,,,,,,,,,,,,,3,6,36,9,,,,,,,,,,,AFSA10.jpg,AFNE10.jpg,AFSA06.jpg,AFNE05.jpg,AFNE05.jpg,FN,3,num_4,16,num_4,2.11666197318,,,2017_Sep_26_1612,60.0164391868,MAFE4ImagesEEG,001,101613,
AFNE01.JPG,AFNE01.JPG,AFNE01.JPG,AFNE01.JPG,AFNE01.JPG,AFNE01.JPG,,,,,,,,,,,,,3,7,37,5,,,,,,,,,,,AFNE17.jpg,AFSA09.jpg,AFSA10.jpg,AFNE06.jpg,AFNE17.jpg,FN,3,num_8,32,num_4,0.783483770909,,,2017_Sep_26_1612,60.0164391868,MAFE4ImagesEEG,001,101613,
AFNE01.JPG,AFNE01.JPG,AFNE01.JPG,AFNE01.JPG,AFNE01.JPG,AFNE01.JPG,,,,,,,,,,,,,3,8,38,3,,,,,,,,,,,AFSA08.jpg,AFNE17.jpg,AFNE03.jpg,AFSA05.jpg,AFSA08.jpg,FS,4,num_8,16,num_8,0.28355080547,,,2017_Sep_26_1612,60.0164391868,MAFE4ImagesEEG,001,101613,
AFNE01.JPG,AFNE01.JPG,AFNE01.JPG,AFNE01.JPG,AFNE01.JPG,AFNE01.JPG,,,,,,,,,,,,,3,9,39,2,,,,,,,,,,,AFNE01.jpg,AFNE16.jpg,AFSA01.jpg,AFSA04.jpg,AFSA01.jpg,FS,4,num_2,32,num_4,1.21672855871,,,2017_Sep_26_1612,60.0164391868,MAFE4ImagesEEG,001,101613,
AFNE01.JPG,AFNE01.JPG,AFNE01.JPG,AFNE01.JPG,AFNE01.JPG,AFNE01.JPG,,,,,,,,,,,,,4,0,40,8,,,,,,,,,,,AFSA17.jpg,AFNE16.jpg,AFNE05.jpg,AFSA10.jpg,AFSA17.jpg,FS,4,num_8,16,num_8,1.93364731607,,,2017_Sep_26_1612,60.0164391868,MAFE4ImagesEEG,001,101613,
AFNE01.JPG,AFNE01.JPG,AFNE01.JPG,AFNE01.JPG,AFNE01.JPG,AFNE01.JPG,,,,,,,,,,,,,4,1,41,2,,,,,,,,,,,AFSA20.jpg,AFNE15.jpg,AFSA19.jpg,AFNE17.jpg,AFNE17.jpg,FN,3,num_4,16,num_4,0.266805632447,,,2017_Sep_26_1612,60.0164391868,MAFE4ImagesEEG,001,101613,
AFNE01.JPG,AFNE01.JPG,AFNE01.JPG,AFNE01.JPG,AFNE01.JPG,AFNE01.JPG,,,,,,,,,,,,,4,2,42,7,,,,,,,,,,,AFNE15.jpg,AFSA04.jpg,AFNE05.jpg,AFSA09.jpg,AFNE05.jpg,FN,3,num_2,32,num_8,0.833311309223,,,2017_Sep_26_1612,60.0164391868,MAFE4ImagesEEG,001,101613,
AFNE01.JPG,AFNE01.JPG,AFNE01.JPG,AFNE01.JPG,AFNE01.JPG,AFNE01.JPG,,,,,,,,,,,,,4,3,43,5,,,,,,,,,,,AFSA10.jpg,AFSA06.jpg,AFNE19.jpg,AFNE06.jpg,AFNE06.jpg,FN,3,num_4,16,num_4,1.11678770307,,,2017_Sep_26_1612,60.0164391868,MAFE4ImagesEEG,001,101613,
AFNE01.JPG,AFNE01.JPG,AFNE01.JPG,AFNE01.JPG,AFNE01.JPG,AFNE01.JPG,,,,,,,,,,,,,4,4,44,6,,,,,,,,,,,AFNE12.jpg,AFSA17.jpg,AFNE16.jpg,AFSA10.jpg,AFSA10.jpg,FS,4,num_4,32,num_8,3.21665029827,,,2017_Sep_26_1612,60.0164391868,MAFE4ImagesEEG,001,101613,
AFNE01.JPG,AFNE01.JPG,AFNE01.JPG,AFNE01.JPG,AFNE01.JPG,AFNE01.JPG,,,,,,,,,,,,,4,5,45,9,,,,,,,,,,,AFNE03.jpg,AFNE14.jpg,AFSA06.jpg,AFSA20.jpg,AFNE03.jpg,FN,3,num_8,32,num_2,1.13346167194,,,2017_Sep_26_1612,60.0164391868,MAFE4ImagesEEG,001,101613,
AFNE01.JPG,AFNE01.JPG,AFNE01.JPG,AFNE01.JPG,AFNE01.JPG,AFNE01.JPG,,,,,,,,,,,,,4,6,46,0,,,,,,,,,,,AFNE06.jpg,AFSA01.jpg,AFSA19.jpg,AFNE01.jpg,AFNE06.jpg,FN,3,num_8,32,num_4,0.700156264356,,,2017_Sep_26_1612,60.0164391868,MAFE4ImagesEEG,001,101613,
AFNE01.JPG,AFNE01.JPG,AFNE01.JPG,AFNE01.JPG,AFNE01.JPG,AFNE01.JPG,,,,,,,,,,,,,4,7,47,4,,,,,,,,,,,AFSA12.jpg,AFNE20.jpg,AFNE06.jpg,AFSA15.jpg,AFNE06.jpg,FN,3,num_2,32,num_4,0.816777503584,,,2017_Sep_26_1612,60.0164391868,MAFE4ImagesEEG,001,101613,
AFNE01.JPG,AFNE01.JPG,AFNE01.JPG,AFNE01.JPG,AFNE01.JPG,AFNE01.JPG,,,,,,,,,,,,,4,8,48,1,,,,,,,,,,,AFSA14.jpg,AFNE17.jpg,AFNE07.jpg,AFSA01.jpg,AFNE07.jpg,FN,3,num_2,32,num_8,2.00006446865,,,2017_Sep_26_1612,60.0164391868,MAFE4ImagesEEG,001,101613,
AFNE01.JPG,AFNE01.JPG,AFNE01.JPG,AFNE01.JPG,AFNE01.JPG,AFNE01.JPG,,,,,,,,,,,,,4,9,49,3,,,,,,,,,,,AFNE08.jpg,AFSA20.jpg,AFSA01.jpg,AFNE02.jpg,AFSA20.jpg,FS,4,num_6,32,num_2,0.95011697372,,,2017_Sep_26_1612,60.0164391868,MAFE4ImagesEEG,001,101613,
AFNE01.JPG,AFNE01.JPG,AFNE01.JPG,AFNE01.JPG,AFNE01.JPG,AFNE01.JPG,,,,,,,,,,,,,5,0,50,9,,,,,,,,,,,AFNE17.jpg,AFNE16.jpg,AFSA15.jpg,AFSA08.jpg,AFSA08.jpg,FS,4,num_4,32,num_6,0.66667265381,,,2017_Sep_26_1612,60.0164391868,MAFE4ImagesEEG,001,101613,
AFNE01.JPG,AFNE01.JPG,AFNE01.JPG,AFNE01.JPG,AFNE01.JPG,AFNE01.JPG,,,,,,,,,,,,,5,1,51,3,,,,,,,,,,,AFNE13.jpg,AFSA02.jpg,AFNE16.jpg,AFSA12.jpg,AFSA12.jpg,FS,4,num_4,16,num_4,0.383523735043,,,2017_Sep_26_1612,60.0164391868,MAFE4ImagesEEG,001,101613,
AFNE01.JPG,AFNE01.JPG,AFNE01.JPG,AFNE01.JPG,AFNE01.JPG,AFNE01.JPG,,,,,,,,,,,,,5,2,52,6,,,,,,,,,,,AFSA19.jpg,AFSA20.jpg,AFNE14.jpg,AFNE07.jpg,AFNE07.jpg,FN,3,num_4,32,num_6,0.833430945058,,,2017_Sep_26_1612,60.0164391868,MAFE4ImagesEEG,001,101613,
AFNE01.JPG,AFNE01.JPG,AFNE01.JPG,AFNE01.JPG,AFNE01.JPG,AFNE01.JPG,,,,,,,,,,,,,5,3,53,5,,,,,,,,,,,AFNE16.jpg,AFSA12.jpg,AFNE08.jpg,AFSA15.jpg,AFSA12.jpg,FS,4,num_6,16,num_6,1.0501094684,,,2017_Sep_26_1612,60.0164391868,MAFE4ImagesEEG,001,101613,
AFNE01.JPG,AFNE01.JPG,AFNE01.JPG,AFNE01.JPG,AFNE01.JPG,AFNE01.JPG,,,,,,,,,,,,,5,4,54,1,,,,,,,,,,,AFSA09.jpg,AFNE06.jpg,AFSA12.jpg,AFNE13.jpg,AFNE13.jpg,FN,3,num_4,16,num_4,0.733569312142,,,2017_Sep_26_1612,60.0164391868,MAFE4ImagesEEG,001,101613,
AFNE01.JPG,AFNE01.JPG,AFNE01.JPG,AFNE01.JPG,AFNE01.JPG,AFNE01.JPG,,,,,,,,,,,,,5,5,55,8,,,,,,,,,,,AFSA05.jpg,AFSA11.jpg,AFNE07.jpg,AFNE10.jpg,AFSA11.jpg,FS,4,num_6,16,num_6,0.483515588276,,,2017_Sep_26_1612,60.0164391868,MAFE4ImagesEEG,001,101613,
AFNE01.JPG,AFNE01.JPG,AFNE01.JPG,AFNE01.JPG,AFNE01.JPG,AFNE01.JPG,,,,,,,,,,,,,5,6,56,7,,,,,,,,,,,AFSA18.jpg,AFNE09.jpg,AFSA04.jpg,AFNE07.jpg,AFNE09.jpg,FN,3,num_6,32,num_4,0.966797036643,,,2017_Sep_26_1612,60.0164391868,MAFE4ImagesEEG,001,101613,
AFNE01.JPG,AFNE01.JPG,AFNE01.JPG,AFNE01.JPG,AFNE01.JPG,AFNE01.JPG,,,,,,,,,,,,,5,7,57,0,,,,,,,,,,,AFSA06.jpg,AFNE13.jpg,AFSA08.jpg,AFNE02.jpg,AFSA06.jpg,FS,4,num_8,32,num_2,0.883442908642,,,2017_Sep_26_1612,60.0164391868,MAFE4ImagesEEG,001,101613,
AFNE01.JPG,AFNE01.JPG,AFNE01.JPG,AFNE01.JPG,AFNE01.JPG,AFNE01.JPG,,,,,,,,,,,,,5,8,58,4,,,,,,,,,,,AFSA07.jpg,AFSA02.jpg,AFNE20.jpg,AFNE17.jpg,AFSA02.jpg,FS,4,num_6,32,num_8,0.433513888333,,,2017_Sep_26_1612,60.0164391868,MAFE4ImagesEEG,001,101613,
AFNE01.JPG,AFNE01.JPG,AFNE01.JPG,AFNE01.JPG,AFNE01.JPG,AFNE01.JPG,,,,,,,,,,,,,5,9,59,2,,,,,,,,,,,AFNE03.jpg,AFSA11.jpg,AFNE14.jpg,AFSA01.jpg,AFSA01.jpg,FS,4,num_4,16,num_4,0.316806690884,,,2017_Sep_26_1612,60.0164391868,MAFE4ImagesEEG,001,101613,
,,,,,,,,,,,,,,,,,,,,,,,,,,,,,,,,,,,,,,,,,,,space,13.6160423043,2017_Sep_26_1612,60.0164391868,MAFE4ImagesEEG,001,101613,
AFNE01.JPG,AFNE01.JPG,AFNE01.JPG,AFNE01.JPG,AFNE01.JPG,AFNE01.JPG,,,,,,,,,,,,,,,,,0,0,0,5,,,,,,,AMSA01.jpg,AMNE06.jpg,AMSA04.jpg,AMNE02.jpg,AMSA04.jpg,MS,2,num_2,16,num_2,0.833507281146,,,2017_Sep_26_1612,60.0164391868,MAFE4ImagesEEG,001,101613,
AFNE01.JPG,AFNE01.JPG,AFNE01.JPG,AFNE01.JPG,AFNE01.JPG,AFNE01.JPG,,,,,,,,,,,,,,,,,0,1,1,2,,,,,,,AMSA17.jpg,AMNE03.jpg,AMNE05.jpg,AMSA10.jpg,AMNE03.jpg,MN,1,num_6,32,num_8,0.483497947571,,,2017_Sep_26_1612,60.0164391868,MAFE4ImagesEEG,001,101613,
AFNE01.JPG,AFNE01.JPG,AFNE01.JPG,AFNE01.JPG,AFNE01.JPG,AFNE01.JPG,,,,,,,,,,,,,,,,,0,2,2,1,,,,,,,AMNE03.jpg,AMSA19.jpg,AMNE13.jpg,AMSA02.jpg,AMNE13.jpg,MN,1,num_2,32,num_4,0.350197607651,,,2017_Sep_26_1612,60.0164391868,MAFE4ImagesEEG,001,101613,
AFNE01.JPG,AFNE01.JPG,AFNE01.JPG,AFNE01.JPG,AFNE01.JPG,AFNE01.JPG,,,,,,,,,,,,,,,,,0,3,3,3,,,,,,,AMNE18.jpg,AMSA10.jpg,AMNE20.jpg,AMSA08.jpg,AMSA08.jpg,MS,2,num_4,16,num_4,0.800164796005,,,2017_Sep_26_1612,60.0164391868,MAFE4ImagesEEG,001,101613,
AFNE01.JPG,AFNE01.JPG,AFNE01.JPG,AFNE01.JPG,AFNE01.JPG,AFNE01.JPG,,,,,,,,,,,,,,,,,0,4,4,7,,,,,,,AMNE01.jpg,AMSA19.jpg,AMNE14.jpg,AMSA16.jpg,AMSA16.jpg,MS,2,num_4,16,num_4,0.883539451286,,,2017_Sep_26_1612,60.0164391868,MAFE4ImagesEEG,001,101613,
AFNE01.JPG,AFNE01.JPG,AFNE01.JPG,AFNE01.JPG,AFNE01.JPG,AFNE01.JPG,,,,,,,,,,,,,,,,,0,5,5,6,,,,,,,AMNE10.jpg,AMSA06.jpg,AMNE04.jpg,AMSA07.jpg,AMNE04.jpg,MN,1,num_2,32,num_4,0.766787991743,,,2017_Sep_26_1612,60.0164391868,MAFE4ImagesEEG,001,101613,
AFNE01.JPG,AFNE01.JPG,AFNE01.JPG,AFNE01.JPG,AFNE01.JPG,AFNE01.JPG,,,,,,,,,,,,,,,,,0,6,6,8,,,,,,,AMSA01.jpg,AMSA10.jpg,AMNE08.jpg,AMNE03.jpg,AMSA01.jpg,MS,2,num_8,16,num_8,0.516817018681,,,2017_Sep_26_1612,60.0164391868,MAFE4ImagesEEG,001,101613,
AFNE01.JPG,AFNE01.JPG,AFNE01.JPG,AFNE01.JPG,AFNE01.JPG,AFNE01.JPG,,,,,,,,,,,,,,,,,0,7,7,4,,,,,,,AMNE10.jpg,AMSA09.jpg,AMSA06.jpg,AMNE02.jpg,AMSA09.jpg,MS,2,num_6,32,num_8,0.533506703738,,,2017_Sep_26_1612,60.0164391868,MAFE4ImagesEEG,001,101613,
AFNE01.JPG,AFNE01.JPG,AFNE01.JPG,AFNE01.JPG,AFNE01.JPG,AFNE01.JPG,,,,,,,,,,,,,,,,,0,8,8,0,,,,,,,AMSA13.jpg,AMNE07.jpg,AMNE03.jpg,AMSA05.jpg,AMSA05.jpg,MS,2,num_4,32,num_8,0.566806530522,,,2017_Sep_26_1612,60.0164391868,MAFE4ImagesEEG,001,101613,
AFNE01.JPG,AFNE01.JPG,AFNE01.JPG,AFNE01.JPG,AFNE01.JPG,AFNE01.JPG,,,,,,,,,,,,,,,,,0,9,9,9,,,,,,,AMSA02.jpg,AMNE18.jpg,AMSA11.jpg,AMNE04.jpg,AMSA11.jpg,MS,2,num_2,32,num_4,0.816817596031,,,2017_Sep_26_1612,60.0164391868,MAFE4ImagesEEG,001,101613,
AFNE01.JPG,AFNE01.JPG,AFNE01.JPG,AFNE01.JPG,AFNE01.JPG,AFNE01.JPG,,,,,,,,,,,,,,,,,1,0,10,0,,,,,,,AMSA18.jpg,AMSA03.jpg,AMNE12.jpg,AMNE15.jpg,AMSA18.jpg,MS,2,num_8,16,num_8,0.783466771711,,,2017_Sep_26_1612,60.0164391868,MAFE4ImagesEEG,001,101613,
AFNE01.JPG,AFNE01.JPG,AFNE01.JPG,AFNE01.JPG,AFNE01.JPG,AFNE01.JPG,,,,,,,,,,,,,,,,,1,1,11,8,,,,,,,AMNE02.jpg,AMSA18.jpg,AMNE07.jpg,AMSA09.jpg,AMSA18.jpg,MS,2,num_6,32,num_8,0.650371705124,,,2017_Sep_26_1612,60.0164391868,MAFE4ImagesEEG,001,101613,
AFNE01.JPG,AFNE01.JPG,AFNE01.JPG,AFNE01.JPG,AFNE01.JPG,AFNE01.JPG,,,,,,,,,,,,,,,,,1,2,12,5,,,,,,,AMSA15.jpg,AMNE07.jpg,AMNE16.jpg,AMSA13.jpg,AMNE16.jpg,MN,1,num_2,32,num_8,1.56656405138,,,2017_Sep_26_1612,60.0164391868,MAFE4ImagesEEG,001,101613,
AFNE01.JPG,AFNE01.JPG,AFNE01.JPG,AFNE01.JPG,AFNE01.JPG,AFNE01.JPG,,,,,,,,,,,,,,,,,1,3,13,4,,,,,,,AMSA09.jpg,AMSA05.jpg,AMNE19.jpg,AMNE12.jpg,AMSA05.jpg,MS,2,num_6,32,num_8,0.250164699799,,,2017_Sep_26_1612,60.0164391868,MAFE4ImagesEEG,001,101613,
AFNE01.JPG,AFNE01.JPG,AFNE01.JPG,AFNE01.JPG,AFNE01.JPG,AFNE01.JPG,,,,,,,,,,,,,,,,,1,4,14,7,,,,,,,AMSA19.jpg,AMSA04.jpg,AMNE10.jpg,AMNE11.jpg,AMNE11.jpg,MN,1,num_4,16,num_4,0.950130765559,,,2017_Sep_26_1612,60.0164391868,MAFE4ImagesEEG,001,101613,
AFNE01.JPG,AFNE01.JPG,AFNE01.JPG,AFNE01.JPG,AFNE01.JPG,AFNE01.JPG,,,,,,,,,,,,,,,,,1,5,15,2,,,,,,,AMSA17.jpg,AMNE20.jpg,AMSA05.jpg,AMNE17.jpg,AMSA05.jpg,MS,2,num_2,16,num_2,0.933512284595,,,2017_Sep_26_1612,60.0164391868,MAFE4ImagesEEG,001,101613,
AFNE01.JPG,AFNE01.JPG,AFNE01.JPG,AFNE01.JPG,AFNE01.JPG,AFNE01.JPG,,,,,,,,,,,,,,,,,1,6,16,1,,,,,,,AMSA17.jpg,AMNE01.jpg,AMSA18.jpg,AMNE13.jpg,AMSA17.jpg,MS,2,num_8,32,num_4,0.91677384713,,,2017_Sep_26_1612,60.0164391868,MAFE4ImagesEEG,001,101613,
AFNE01.JPG,AFNE01.JPG,AFNE01.JPG,AFNE01.JPG,AFNE01.JPG,AFNE01.JPG,,,,,,,,,,,,,,,,,1,7,17,3,,,,,,,AMNE10.jpg,AMSA19.jpg,AMNE17.jpg,AMSA14.jpg,AMNE10.jpg,MN,1,num_8,16,num_8,0.700125152594,,,2017_Sep_26_1612,60.0164391868,MAFE4ImagesEEG,001,101613,
AFNE01.JPG,AFNE01.JPG,AFNE01.JPG,AFNE01.JPG,AFNE01.JPG,AFNE01.JPG,,,,,,,,,,,,,,,,,1,8,18,9,,,,,,,AMSA01.jpg,AMNE12.jpg,AMSA17.jpg,AMNE19.jpg,AMNE19.jpg,MN,1,num_4,32,num_8,0.583575759025,,,2017_Sep_26_1612,60.0164391868,MAFE4ImagesEEG,001,101613,
AFNE01.JPG,AFNE01.JPG,AFNE01.JPG,AFNE01.JPG,AFNE01.JPG,AFNE01.JPG,,,,,,,,,,,,,,,,,1,9,19,6,,,,,,,AMSA20.jpg,AMNE14.jpg,AMNE02.jpg,AMSA06.jpg,AMNE14.jpg,MN,1,num_6,32,num_2,1.00011835294,,,2017_Sep_26_1612,60.0164391868,MAFE4ImagesEEG,001,101613,
AFNE01.JPG,AFNE01.JPG,AFNE01.JPG,AFNE01.JPG,AFNE01.JPG,AFNE01.JPG,,,,,,,,,,,,,,,,,2,0,20,1,,,,,,,AMSA01.jpg,AMNE01.jpg,AMSA18.jpg,AMNE06.jpg,AMSA01.jpg,MS,2,num_8,32,num_2,1.16680672299,,,2017_Sep_26_1612,60.0164391868,MAFE4ImagesEEG,001,101613,
AFNE01.JPG,AFNE01.JPG,AFNE01.JPG,AFNE01.JPG,AFNE01.JPG,AFNE01.JPG,,,,,,,,,,,,,,,,,2,1,21,6,,,,,,,AMSA09.jpg,AMNE02.jpg,AMNE03.jpg,AMSA18.jpg,AMSA18.jpg,MS,2,num_4,16,num_4,0.483516550448,,,2017_Sep_26_1612,60.0164391868,MAFE4ImagesEEG,001,101613,
AFNE01.JPG,AFNE01.JPG,AFNE01.JPG,AFNE01.JPG,AFNE01.JPG,AFNE01.JPG,,,,,,,,,,,,,,,,,2,2,22,9,,,,,,,AMNE06.jpg,AMNE16.jpg,AMSA17.jpg,AMSA06.jpg,AMSA06.jpg,MS,2,num_4,16,num_4,0.916953140579,,,2017_Sep_26_1612,60.0164391868,MAFE4ImagesEEG,001,101613,
AFNE01.JPG,AFNE01.JPG,AFNE01.JPG,AFNE01.JPG,AFNE01.JPG,AFNE01.JPG,,,,,,,,,,,,,,,,,2,3,23,4,,,,,,,AMSA12.jpg,AMSA03.jpg,AMNE20.jpg,AMNE09.jpg,AMNE09.jpg,MN,1,num_4,16,num_4,0.866801013763,,,2017_Sep_26_1612,60.0164391868,MAFE4ImagesEEG,001,101613,
AFNE01.JPG,AFNE01.JPG,AFNE01.JPG,AFNE01.JPG,AFNE01.JPG,AFNE01.JPG,,,,,,,,,,,,,,,,,2,4,24,3,,,,,,,AMNE18.jpg,AMSA14.jpg,AMSA12.jpg,AMNE05.jpg,AMNE18.jpg,MN,1,num_8,16,num_8,1.5334021427,,,2017_Sep_26_1612,60.0164391868,MAFE4ImagesEEG,001,101613,
AFNE01.JPG,AFNE01.JPG,AFNE01.JPG,AFNE01.JPG,AFNE01.JPG,AFNE01.JPG,,,,,,,,,,,,,,,,,2,5,25,8,,,,,,,AMSA07.jpg,AMNE08.jpg,AMSA12.jpg,AMNE19.jpg,AMNE19.jpg,MN,1,num_4,32,num_8,0.616826191836,,,2017_Sep_26_1612,60.0164391868,MAFE4ImagesEEG,001,101613,
AFNE01.JPG,AFNE01.JPG,AFNE01.JPG,AFNE01.JPG,AFNE01.JPG,AFNE01.JPG,,,,,,,,,,,,,,,,,2,6,26,0,,,,,,,AMSA11.jpg,AMSA06.jpg,AMNE17.jpg,AMNE10.jpg,AMNE17.jpg,MN,1,num_2,32,num_4,0.750183623459,,,2017_Sep_26_1612,60.0164391868,MAFE4ImagesEEG,001,101613,
AFNE01.JPG,AFNE01.JPG,AFNE01.JPG,AFNE01.JPG,AFNE01.JPG,AFNE01.JPG,,,,,,,,,,,,,,,,,2,7,27,7,,,,,,,AMNE06.jpg,AMNE10.jpg,AMSA10.jpg,AMSA09.jpg,AMSA10.jpg,MS,2,num_2,32,num_4,2.39998409135,,,2017_Sep_26_1612,60.0164391868,MAFE4ImagesEEG,001,101613,
AFNE01.JPG,AFNE01.JPG,AFNE01.JPG,AFNE01.JPG,AFNE01.JPG,AFNE01.JPG,,,,,,,,,,,,,,,,,2,8,28,5,,,,,,,AMSA04.jpg,AMNE09.jpg,AMNE05.jpg,AMSA18.jpg,AMSA04.jpg,MS,2,num_8,32,num_4,0.433525434986,,,2017_Sep_26_1612,60.0164391868,MAFE4ImagesEEG,001,101613,
AFNE01.JPG,AFNE01.JPG,AFNE01.JPG,AFNE01.JPG,AFNE01.JPG,AFNE01.JPG,,,,,,,,,,,,,,,,,2,9,29,2,,,,,,,AMNE20.jpg,AMNE09.jpg,AMSA19.jpg,AMSA11.jpg,AMNE09.jpg,MN,1,num_6,32,num_2,0.300163192325,,,2017_Sep_26_1612,60.0164391868,MAFE4ImagesEEG,001,101613,
AFNE01.JPG,AFNE01.JPG,AFNE01.JPG,AFNE01.JPG,AFNE01.JPG,AFNE01.JPG,,,,,,,,,,,,,,,,,3,0,30,5,,,,,,,AMNE19.jpg,AMSA19.jpg,AMNE14.jpg,AMSA15.jpg,AMNE19.jpg,MN,1,num_8,48,None,,,,2017_Sep_26_1612,60.0164391868,MAFE4ImagesEEG,001,101613,
AFNE01.JPG,AFNE01.JPG,AFNE01.JPG,AFNE01.JPG,AFNE01.JPG,AFNE01.JPG,,,,,,,,,,,,,,,,,3,1,31,9,,,,,,,AMSA01.jpg,AMSA17.jpg,AMNE20.jpg,AMNE15.jpg,AMSA17.jpg,MS,2,num_6,32,num_4,0.383502245473,,,2017_Sep_26_1612,60.0164391868,MAFE4ImagesEEG,001,101613,
AFNE01.JPG,AFNE01.JPG,AFNE01.JPG,AFNE01.JPG,AFNE01.JPG,AFNE01.JPG,,,,,,,,,,,,,,,,,3,2,32,4,,,,,,,AMSA11.jpg,AMNE05.jpg,AMSA08.jpg,AMNE19.jpg,AMSA08.jpg,MS,2,num_2,16,num_2,0.433521265397,,,2017_Sep_26_1612,60.0164391868,MAFE4ImagesEEG,001,101613,
AFNE01.JPG,AFNE01.JPG,AFNE01.JPG,AFNE01.JPG,AFNE01.JPG,AFNE01.JPG,,,,,,,,,,,,,,,,,3,3,33,7,,,,,,,AMNE14.jpg,AMNE16.jpg,AMSA19.jpg,AMSA20.jpg,AMNE16.jpg,MN,1,num_6,32,num_4,0.633452049748,,,2017_Sep_26_1612,60.0164391868,MAFE4ImagesEEG,001,101613,
AFNE01.JPG,AFNE01.JPG,AFNE01.JPG,AFNE01.JPG,AFNE01.JPG,AFNE01.JPG,,,,,,,,,,,,,,,,,3,4,34,8,,,,,,,AMSA09.jpg,AMNE08.jpg,AMNE06.jpg,AMSA12.jpg,AMNE08.jpg,MN,1,num_6,32,num_2,1.88355292234,,,2017_Sep_26_1612,60.0164391868,MAFE4ImagesEEG,001,101613,
AFNE01.JPG,AFNE01.JPG,AFNE01.JPG,AFNE01.JPG,AFNE01.JPG,AFNE01.JPG,,,,,,,,,,,,,,,,,3,5,35,2,,,,,,,AMNE05.jpg,AMSA17.jpg,AMNE16.jpg,AMSA07.jpg,AMNE05.jpg,MN,1,num_8,16,num_8,1.71668237221,,,2017_Sep_26_1612,60.0164391868,MAFE4ImagesEEG,001,101613,
AFNE01.JPG,AFNE01.JPG,AFNE01.JPG,AFNE01.JPG,AFNE01.JPG,AFNE01.JPG,,,,,,,,,,,,,,,,,3,6,36,6,,,,,,,AMSA02.jpg,AMSA16.jpg,AMNE06.jpg,AMNE05.jpg,AMNE05.jpg,MN,1,num_4,16,num_4,0.60017178813,,,2017_Sep_26_1612,60.0164391868,MAFE4ImagesEEG,001,101613,
AFNE01.JPG,AFNE01.JPG,AFNE01.JPG,AFNE01.JPG,AFNE01.JPG,AFNE01.JPG,,,,,,,,,,,,,,,,,3,7,37,0,,,,,,,AMNE12.jpg,AMSA11.jpg,AMNE19.jpg,AMSA05.jpg,AMNE19.jpg,MN,1,num_2,32,num_4,0.550137693528,,,2017_Sep_26_1612,60.0164391868,MAFE4ImagesEEG,001,101613,
AFNE01.JPG,AFNE01.JPG,AFNE01.JPG,AFNE01.JPG,AFNE01.JPG,AFNE01.JPG,,,,,,,,,,,,,,,,,3,8,38,3,,,,,,,AMSA02.jpg,AMNE11.jpg,AMNE04.jpg,AMSA13.jpg,AMNE11.jpg,MN,1,num_6,32,num_4,0.583524440706,,,2017_Sep_26_1612,60.0164391868,MAFE4ImagesEEG,001,101613,
AFNE01.JPG,AFNE01.JPG,AFNE01.JPG,AFNE01.JPG,AFNE01.JPG,AFNE01.JPG,,,,,,,,,,,,,,,,,3,9,39,1,,,,,,,AMSA20.jpg,AMNE11.jpg,AMSA11.jpg,AMNE18.jpg,AMNE11.jpg,MN,1,num_6,32,num_8,0.666698633693,,,2017_Sep_26_1612,60.0164391868,MAFE4ImagesEEG,001,101613,
AFNE01.JPG,AFNE01.JPG,AFNE01.JPG,AFNE01.JPG,AFNE01.JPG,AFNE01.JPG,,,,,,,,,,,,,,,,,4,0,40,5,,,,,,,AMSA19.jpg,AMNE10.jpg,AMSA20.jpg,AMNE02.jpg,AMSA19.jpg,MS,2,num_8,16,num_8,0.633521008771,,,2017_Sep_26_1612,60.0164391868,MAFE4ImagesEEG,001,101613,
AFNE01.JPG,AFNE01.JPG,AFNE01.JPG,AFNE01.JPG,AFNE01.JPG,AFNE01.JPG,,,,,,,,,,,,,,,,,4,1,41,7,,,,,,,AMSA17.jpg,AMSA13.jpg,AMNE18.jpg,AMNE05.jpg,AMNE18.jpg,MN,1,num_2,16,num_2,0.366872538754,,,2017_Sep_26_1612,60.0164391868,MAFE4ImagesEEG,001,101613,
AFNE01.JPG,AFNE01.JPG,AFNE01.JPG,AFNE01.JPG,AFNE01.JPG,AFNE01.JPG,,,,,,,,,,,,,,,,,4,2,42,9,,,,,,,AMNE01.jpg,AMSA09.jpg,AMNE04.jpg,AMSA11.jpg,AMSA11.jpg,MS,2,num_4,32,num_6,0.816761787341,,,2017_Sep_26_1612,60.0164391868,MAFE4ImagesEEG,001,101613,
AFNE01.JPG,AFNE01.JPG,AFNE01.JPG,AFNE01.JPG,AFNE01.JPG,AFNE01.JPG,,,,,,,,,,,,,,,,,4,3,43,1,,,,,,,AMNE06.jpg,AMNE11.jpg,AMSA06.jpg,AMSA07.jpg,AMSA06.jpg,MS,2,num_2,32,num_4,0.266837064933,,,2017_Sep_26_1612,60.0164391868,MAFE4ImagesEEG,001,101613,
AFNE01.JPG,AFNE01.JPG,AFNE01.JPG,AFNE01.JPG,AFNE01.JPG,AFNE01.JPG,,,,,,,,,,,,,,,,,4,4,44,3,,,,,,,AMNE17.jpg,AMNE03.jpg,AMSA01.jpg,AMSA09.jpg,AMSA01.jpg,MS,2,num_2,32,num_4,0.550179389655,,,2017_Sep_26_1612,60.0164391868,MAFE4ImagesEEG,001,101613,
AFNE01.JPG,AFNE01.JPG,AFNE01.JPG,AFNE01.JPG,AFNE01.JPG,AFNE01.JPG,,,,,,,,,,,,,,,,,4,5,45,4,,,,,,,AMNE17.jpg,AMNE07.jpg,AMSA17.jpg,AMSA06.jpg,AMSA06.jpg,MS,2,num_4,32,num_2,0.28351392044,,,2017_Sep_26_1612,60.0164391868,MAFE4ImagesEEG,001,101613,
AFNE01.JPG,AFNE01.JPG,AFNE01.JPG,AFNE01.JPG,AFNE01.JPG,AFNE01.JPG,,,,,,,,,,,,,,,,,4,6,46,2,,,,,,,AMNE11.jpg,AMSA08.jpg,AMNE03.jpg,AMSA10.jpg,AMNE03.jpg,MN,1,num_2,32,num_4,0.63347193558,,,2017_Sep_26_1612,60.0164391868,MAFE4ImagesEEG,001,101613,
AFNE01.JPG,AFNE01.JPG,AFNE01.JPG,AFNE01.JPG,AFNE01.JPG,AFNE01.JPG,,,,,,,,,,,,,,,,,4,7,47,8,,,,,,,AMSA05.jpg,AMNE20.jpg,AMSA09.jpg,AMNE06.jpg,AMSA09.jpg,MS,2,num_2,16,num_2,0.450051222113,,,2017_Sep_26_1612,60.0164391868,MAFE4ImagesEEG,001,101613,
AFNE01.JPG,AFNE01.JPG,AFNE01.JPG,AFNE01.JPG,AFNE01.JPG,AFNE01.JPG,,,,,,,,,,,,,,,,,4,8,48,6,,,,,,,AMNE14.jpg,AMSA10.jpg,AMNE18.jpg,AMSA09.jpg,AMNE14.jpg,MN,1,num_8,16,num_8,1.3501215924,,,2017_Sep_26_1612,60.0164391868,MAFE4ImagesEEG,001,101613,
AFNE01.JPG,AFNE01.JPG,AFNE01.JPG,AFNE01.JPG,AFNE01.JPG,AFNE01.JPG,,,,,,,,,,,,,,,,,4,9,49,0,,,,,,,AMSA07.jpg,AMNE04.jpg,AMNE09.jpg,AMSA04.jpg,AMNE09.jpg,MN,1,num_2,16,num_2,2.88329408551,,,2017_Sep_26_1612,60.0164391868,MAFE4ImagesEEG,001,101613,
AFNE01.JPG,AFNE01.JPG,AFNE01.JPG,AFNE01.JPG,AFNE01.JPG,AFNE01.JPG,,,,,,,,,,,,,,,,,5,0,50,0,,,,,,,AMSA01.jpg,AMSA09.jpg,AMNE11.jpg,AMNE01.jpg,AMSA01.jpg,MS,2,num_8,16,num_8,0.233531144098,,,2017_Sep_26_1612,60.0164391868,MAFE4ImagesEEG,001,101613,
AFNE01.JPG,AFNE01.JPG,AFNE01.JPG,AFNE01.JPG,AFNE01.JPG,AFNE01.JPG,,,,,,,,,,,,,,,,,5,1,51,6,,,,,,,AMSA19.jpg,AMNE18.jpg,AMNE02.jpg,AMSA20.jpg,AMSA19.jpg,MS,2,num_8,32,num_4,0.633374430763,,,2017_Sep_26_1612,60.0164391868,MAFE4ImagesEEG,001,101613,
AFNE01.JPG,AFNE01.JPG,AFNE01.JPG,AFNE01.JPG,AFNE01.JPG,AFNE01.JPG,,,,,,,,,,,,,,,,,5,2,52,4,,,,,,,AMSA03.jpg,AMNE20.jpg,AMNE10.jpg,AMSA19.jpg,AMSA19.jpg,MS,2,num_4,16,num_4,0.883486208564,,,2017_Sep_26_1612,60.0164391868,MAFE4ImagesEEG,001,101613,
AFNE01.JPG,AFNE01.JPG,AFNE01.JPG,AFNE01.JPG,AFNE01.JPG,AFNE01.JPG,,,,,,,,,,,,,,,,,5,3,53,5,,,,,,,AMSA18.jpg,AMNE01.jpg,AMSA15.jpg,AMNE17.jpg,AMNE17.jpg,MN,1,num_4,32,num_2,1.01681252831,,,2017_Sep_26_1612,60.0164391868,MAFE4ImagesEEG,001,101613,
AFNE01.JPG,AFNE01.JPG,AFNE01.JPG,AFNE01.JPG,AFNE01.JPG,AFNE01.JPG,,,,,,,,,,,,,,,,,5,4,54,8,,,,,,,AMSA15.jpg,AMNE14.jpg,AMNE07.jpg,AMSA04.jpg,AMSA04.jpg,MS,2,num_4,16,num_4,3.14995153627,,,2017_Sep_26_1612,60.0164391868,MAFE4ImagesEEG,001,101613,
AFNE01.JPG,AFNE01.JPG,AFNE01.JPG,AFNE01.JPG,AFNE01.JPG,AFNE01.JPG,,,,,,,,,,,,,,,,,5,5,55,9,,,,,,,AMNE09.jpg,AMSA11.jpg,AMSA06.jpg,AMNE02.jpg,AMSA11.jpg,MS,2,num_6,16,num_6,0.833471999737,,,2017_Sep_26_1612,60.0164391868,MAFE4ImagesEEG,001,101613,
AFNE01.JPG,AFNE01.JPG,AFNE01.JPG,AFNE01.JPG,AFNE01.JPG,AFNE01.JPG,,,,,,,,,,,,,,,,,5,6,56,2,,,,,,,AMNE03.jpg,AMSA03.jpg,AMNE04.jpg,AMSA04.jpg,AMSA03.jpg,MS,2,num_6,32,num_4,0.750129739172,,,2017_Sep_26_1612,60.0164391868,MAFE4ImagesEEG,001,101613,
AFNE01.JPG,AFNE01.JPG,AFNE01.JPG,AFNE01.JPG,AFNE01.JPG,AFNE01.JPG,,,,,,,,,,,,,,,,,5,7,57,1,,,,,,,AMNE12.jpg,AMSA17.jpg,AMSA18.jpg,AMNE20.jpg,AMNE12.jpg,MN,1,num_8,32,num_6,0.900114953052,,,2017_Sep_26_1612,60.0164391868,MAFE4ImagesEEG,001,101613,
AFNE01.JPG,AFNE01.JPG,AFNE01.JPG,AFNE01.JPG,AFNE01.JPG,AFNE01.JPG,,,,,,,,,,,,,,,,,5,8,58,7,,,,,,,AMNE18.jpg,AMNE13.jpg,AMSA03.jpg,AMSA11.jpg,AMNE13.jpg,MN,1,num_6,16,num_6,0.983459458861,,,2017_Sep_26_1612,60.0164391868,MAFE4ImagesEEG,001,101613,
AFNE01.JPG,AFNE01.JPG,AFNE01.JPG,AFNE01.JPG,AFNE01.JPG,AFNE01.JPG,,,,,,,,,,,,,,,,,5,9,59,3,,,,,,,AMNE09.jpg,AMSA01.jpg,AMNE13.jpg,AMSA04.jpg,AMNE09.jpg,MN,1,num_8,16,num_8,0.45016604691,,,2017_Sep_26_1612,60.0164391868,MAFE4ImagesEEG,001,101613,
,,,,,,,,,,,,,,,,,,,,,,,,,,,,,,,,,,,,,,,,,,,space,21.1315972127,2017_Sep_26_1612,60.0164391868,MAFE4ImagesEEG,001,101613,
AFNE01.JPG,AFNE01.JPG,AFNE01.JPG,AFNE01.JPG,AFNE01.JPG,AFNE01.JPG,,,,,,,,,,,,,,,,,,,,,0,0,0,7,,,AFNE05.jpg,AFNE13.jpg,AFSA08.jpg,AFSA13.jpg,AFSA13.jpg,FS,4,num_4,32,num_8,0.266833536793,,,2017_Sep_26_1612,60.0164391868,MAFE4ImagesEEG,001,101613,
AFNE01.JPG,AFNE01.JPG,AFNE01.JPG,AFNE01.JPG,AFNE01.JPG,AFNE01.JPG,,,,,,,,,,,,,,,,,,,,,0,1,1,3,,,AFSA05.jpg,AFSA04.jpg,AFNE19.jpg,AFNE12.jpg,AFNE19.jpg,FN,3,num_2,32,num_4,0.166858682816,,,2017_Sep_26_1612,60.0164391868,MAFE4ImagesEEG,001,101613,
AFNE01.JPG,AFNE01.JPG,AFNE01.JPG,AFNE01.JPG,AFNE01.JPG,AFNE01.JPG,,,,,,,,,,,,,,,,,,,,,0,2,2,1,,,AFNE18.jpg,AFSA20.jpg,AFSA11.jpg,AFNE14.jpg,AFSA20.jpg,FS,4,num_6,16,num_6,0.100199371751,,,2017_Sep_26_1612,60.0164391868,MAFE4ImagesEEG,001,101613,
AFNE01.JPG,AFNE01.JPG,AFNE01.JPG,AFNE01.JPG,AFNE01.JPG,AFNE01.JPG,,,,,,,,,,,,,,,,,,,,,0,3,3,0,,,AFNE03.jpg,AFNE07.jpg,AFSA05.jpg,AFSA09.jpg,AFSA09.jpg,FS,4,num_4,32,num_2,0.11679572158,,,2017_Sep_26_1612,60.0164391868,MAFE4ImagesEEG,001,101613,
AFNE01.JPG,AFNE01.JPG,AFNE01.JPG,AFNE01.JPG,AFNE01.JPG,AFNE01.JPG,,,,,,,,,,,,,,,,,,,,,0,4,4,4,,,AFSA03.jpg,AFNE06.jpg,AFSA15.jpg,AFNE01.jpg,AFSA15.jpg,FS,4,num_2,32,num_8,0.300171210838,,,2017_Sep_26_1612,60.0164391868,MAFE4ImagesEEG,001,101613,
AFNE01.JPG,AFNE01.JPG,AFNE01.JPG,AFNE01.JPG,AFNE01.JPG,AFNE01.JPG,,,,,,,,,,,,,,,,,,,,,0,5,5,2,,,AFSA01.jpg,AFNE19.jpg,AFNE04.jpg,AFSA05.jpg,AFNE04.jpg,FN,3,num_2,32,num_6,0.0335779079469,,,2017_Sep_26_1612,60.0164391868,MAFE4ImagesEEG,001,101613,
AFNE01.JPG,AFNE01.JPG,AFNE01.JPG,AFNE01.JPG,AFNE01.JPG,AFNE01.JPG,,,,,,,,,,,,,,,,,,,,,0,6,6,6,,,AFNE03.jpg,AFSA18.jpg,AFSA07.jpg,AFNE07.jpg,AFSA18.jpg,FS,4,num_6,32,num_4,0.216788216261,,,2017_Sep_26_1612,60.0164391868,MAFE4ImagesEEG,001,101613,
AFNE01.JPG,AFNE01.JPG,AFNE01.JPG,AFNE01.JPG,AFNE01.JPG,AFNE01.JPG,,,,,,,,,,,,,,,,,,,,,0,7,7,8,,,AFNE01.jpg,AFNE07.jpg,AFSA16.jpg,AFSA13.jpg,AFNE01.jpg,FN,3,num_8,16,num_8,0.266837706382,,,2017_Sep_26_1612,60.0164391868,MAFE4ImagesEEG,001,101613,
AFNE01.JPG,AFNE01.JPG,AFNE01.JPG,AFNE01.JPG,AFNE01.JPG,AFNE01.JPG,,,,,,,,,,,,,,,,,,,,,0,8,8,9,,,AFSA02.jpg,AFNE03.jpg,AFSA15.jpg,AFNE05.jpg,AFNE03.jpg,FN,3,num_6,32,num_4,1.13348540664,,,2017_Sep_26_1612,60.0164391868,MAFE4ImagesEEG,001,101613,
AFNE01.JPG,AFNE01.JPG,AFNE01.JPG,AFNE01.JPG,AFNE01.JPG,AFNE01.JPG,,,,,,,,,,,,,,,,,,,,,0,9,9,5,,,AFNE17.jpg,AFSA06.jpg,AFSA20.jpg,AFNE03.jpg,AFSA06.jpg,FS,4,num_6,16,num_6,2.5000169992,,,2017_Sep_26_1612,60.0164391868,MAFE4ImagesEEG,001,101613,
AFNE01.JPG,AFNE01.JPG,AFNE01.JPG,AFNE01.JPG,AFNE01.JPG,AFNE01.JPG,,,,,,,,,,,,,,,,,,,,,1,0,10,9,,,AFSA07.jpg,AFNE01.jpg,AFNE20.jpg,AFSA01.jpg,AFNE01.jpg,FN,3,num_6,32,num_4,0.383542979427,,,2017_Sep_26_1612,60.0164391868,MAFE4ImagesEEG,001,101613,
AFNE01.JPG,AFNE01.JPG,AFNE01.JPG,AFNE01.JPG,AFNE01.JPG,AFNE01.JPG,,,,,,,,,,,,,,,,,,,,,1,1,11,5,,,AFNE15.jpg,AFNE11.jpg,AFSA14.jpg,AFSA11.jpg,AFSA14.jpg,FS,4,num_2,32,num_8,0.600145808246,,,2017_Sep_26_1612,60.0164391868,MAFE4ImagesEEG,001,101613,
AFNE01.JPG,AFNE01.JPG,AFNE01.JPG,AFNE01.JPG,AFNE01.JPG,AFNE01.JPG,,,,,,,,,,,,,,,,,,,,,1,2,12,4,,,AFNE20.jpg,AFNE12.jpg,AFSA02.jpg,AFSA08.jpg,AFNE12.jpg,FN,3,num_6,16,num_6,0.233596254257,,,2017_Sep_26_1612,60.0164391868,MAFE4ImagesEEG,001,101613,
AFNE01.JPG,AFNE01.JPG,AFNE01.JPG,AFNE01.JPG,AFNE01.JPG,AFNE01.JPG,,,,,,,,,,,,,,,,,,,,,1,3,13,2,,,AFSA01.jpg,AFNE11.jpg,AFNE18.jpg,AFSA04.jpg,AFSA04.jpg,FS,4,num_4,16,num_4,0.500265251612,,,2017_Sep_26_1612,60.0164391868,MAFE4ImagesEEG,001,101613,
AFNE01.JPG,AFNE01.JPG,AFNE01.JPG,AFNE01.JPG,AFNE01.JPG,AFNE01.JPG,,,,,,,,,,,,,,,,,,,,,1,4,14,0,,,AFNE03.jpg,AFNE18.jpg,AFSA16.jpg,AFSA05.jpg,AFNE03.jpg,FN,3,num_8,32,num_6,0.600173071085,,,2017_Sep_26_1612,60.0164391868,MAFE4ImagesEEG,001,101613,
AFNE01.JPG,AFNE01.JPG,AFNE01.JPG,AFNE01.JPG,AFNE01.JPG,AFNE01.JPG,,,,,,,,,,,,,,,,,,,,,1,5,15,8,,,AFSA19.jpg,AFSA07.jpg,AFNE16.jpg,AFNE18.jpg,AFNE18.jpg,FN,3,num_4,32,num_2,0.400178780255,,,2017_Sep_26_1612,60.0164391868,MAFE4ImagesEEG,001,101613,
AFNE01.JPG,AFNE01.JPG,AFNE01.JPG,AFNE01.JPG,AFNE01.JPG,AFNE01.JPG,,,,,,,,,,,,,,,,,,,,,1,6,16,6,,,AFNE10.jpg,AFNE08.jpg,AFSA07.jpg,AFSA18.jpg,AFSA18.jpg,FS,4,num_4,16,num_4,0.583472160099,,,2017_Sep_26_1612,60.0164391868,MAFE4ImagesEEG,001,101613,
AFNE01.JPG,AFNE01.JPG,AFNE01.JPG,AFNE01.JPG,AFNE01.JPG,AFNE01.JPG,,,,,,,,,,,,,,,,,,,,,1,7,17,7,,,AFSA01.jpg,AFSA08.jpg,AFNE13.jpg,AFNE14.jpg,AFSA08.jpg,FS,4,num_6,16,num_6,0.166831099137,,,2017_Sep_26_1612,60.0164391868,MAFE4ImagesEEG,001,101613,
AFNE01.JPG,AFNE01.JPG,AFNE01.JPG,AFNE01.JPG,AFNE01.JPG,AFNE01.JPG,,,,,,,,,,,,,,,,,,,,,1,8,18,3,,,AFSA14.jpg,AFNE12.jpg,AFSA07.jpg,AFNE01.jpg,AFSA07.jpg,FS,4,num_2,16,num_2,0.550170408911,,,2017_Sep_26_1612,60.0164391868,MAFE4ImagesEEG,001,101613,
AFNE01.JPG,AFNE01.JPG,AFNE01.JPG,AFNE01.JPG,AFNE01.JPG,AFNE01.JPG,,,,,,,,,,,,,,,,,,,,,1,9,19,1,,,AFSA08.jpg,AFSA12.jpg,AFNE11.jpg,AFNE19.jpg,AFNE19.jpg,FN,3,num_4,16,num_4,0.583482103073,,,2017_Sep_26_1612,60.0164391868,MAFE4ImagesEEG,001,101613,
AFNE01.JPG,AFNE01.JPG,AFNE01.JPG,AFNE01.JPG,AFNE01.JPG,AFNE01.JPG,,,,,,,,,,,,,,,,,,,,,2,0,20,4,,,AFNE18.jpg,AFSA14.jpg,AFNE20.jpg,AFSA08.jpg,AFSA14.jpg,FS,4,num_6,32,num_4,0.633503368066,,,2017_Sep_26_1612,60.0164391868,MAFE4ImagesEEG,001,101613,
AFNE01.JPG,AFNE01.JPG,AFNE01.JPG,AFNE01.JPG,AFNE01.JPG,AFNE01.JPG,,,,,,,,,,,,,,,,,,,,,2,1,21,5,,,AFNE07.jpg,AFSA03.jpg,AFNE18.jpg,AFSA09.jpg,AFNE07.jpg,FN,3,num_8,16,num_8,0.350187023287,,,2017_Sep_26_1612,60.0164391868,MAFE4ImagesEEG,001,101613,
AFNE01.JPG,AFNE01.JPG,AFNE01.JPG,AFNE01.JPG,AFNE01.JPG,AFNE01.JPG,,,,,,,,,,,,,,,,,,,,,2,2,22,8,,,AFSA17.jpg,AFNE01.jpg,AFSA16.jpg,AFNE13.jpg,AFNE13.jpg,FN,3,num_4,16,num_4,0.766851818946,,,2017_Sep_26_1612,60.0164391868,MAFE4ImagesEEG,001,101613,
AFNE01.JPG,AFNE01.JPG,AFNE01.JPG,AFNE01.JPG,AFNE01.JPG,AFNE01.JPG,,,,,,,,,,,,,,,,,,,,,2,3,23,7,,,AFSA03.jpg,AFSA01.jpg,AFNE12.jpg,AFNE09.jpg,AFNE12.jpg,FN,3,num_2,32,num_8,1.16675861203,,,2017_Sep_26_1612,60.0164391868,MAFE4ImagesEEG,001,101613,
AFNE01.JPG,AFNE01.JPG,AFNE01.JPG,AFNE01.JPG,AFNE01.JPG,AFNE01.JPG,,,,,,,,,,,,,,,,,,,,,2,4,24,6,,,AFNE12.jpg,AFSA02.jpg,AFNE10.jpg,AFSA08.jpg,AFSA08.jpg,FS,4,num_4,32,num_6,0.383511546941,,,2017_Sep_26_1612,60.0164391868,MAFE4ImagesEEG,001,101613,
AFNE01.JPG,AFNE01.JPG,AFNE01.JPG,AFNE01.JPG,AFNE01.JPG,AFNE01.JPG,,,,,,,,,,,,,,,,,,,,,2,5,25,2,,,AFNE15.jpg,AFSA01.jpg,AFSA12.jpg,AFNE16.jpg,AFSA12.jpg,FS,4,num_2,16,num_2,0.633501764387,,,2017_Sep_26_1612,60.0164391868,MAFE4ImagesEEG,001,101613,
AFNE01.JPG,AFNE01.JPG,AFNE01.JPG,AFNE01.JPG,AFNE01.JPG,AFNE01.JPG,,,,,,,,,,,,,,,,,,,,,2,6,26,9,,,AFSA14.jpg,AFNE03.jpg,AFSA07.jpg,AFNE02.jpg,AFNE02.jpg,FN,3,num_4,32,num_6,0.667076785699,,,2017_Sep_26_1612,60.0164391868,MAFE4ImagesEEG,001,101613,
AFNE01.JPG,AFNE01.JPG,AFNE01.JPG,AFNE01.JPG,AFNE01.JPG,AFNE01.JPG,,,,,,,,,,,,,,,,,,,,,2,7,27,0,,,AFSA11.jpg,AFNE16.jpg,AFNE11.jpg,AFSA03.jpg,AFSA03.jpg,FS,4,num_4,16,num_4,0.600149977836,,,2017_Sep_26_1612,60.0164391868,MAFE4ImagesEEG,001,101613,
AFNE01.JPG,AFNE01.JPG,AFNE01.JPG,AFNE01.JPG,AFNE01.JPG,AFNE01.JPG,,,,,,,,,,,,,,,,,,,,,2,8,28,3,,,AFNE01.jpg,AFNE09.jpg,AFSA17.jpg,AFSA09.jpg,AFNE09.jpg,FN,3,num_6,16,num_6,0.63348572742,,,2017_Sep_26_1612,60.0164391868,MAFE4ImagesEEG,001,101613,
AFNE01.JPG,AFNE01.JPG,AFNE01.JPG,AFNE01.JPG,AFNE01.JPG,AFNE01.JPG,,,,,,,,,,,,,,,,,,,,,2,9,29,1,,,AFNE01.jpg,AFSA08.jpg,AFSA15.jpg,AFNE13.jpg,AFNE01.jpg,FN,3,num_8,32,num_4,2.43329482322,,,2017_Sep_26_1612,60.0164391868,MAFE4ImagesEEG,001,101613,
AFNE01.JPG,AFNE01.JPG,AFNE01.JPG,AFNE01.JPG,AFNE01.JPG,AFNE01.JPG,,,,,,,,,,,,,,,,,,,,,3,0,30,5,,,AFSA12.jpg,AFNE09.jpg,AFNE13.jpg,AFSA08.jpg,AFNE13.jpg,FN,3,num_2,16,num_2,0.933465777372,,,2017_Sep_26_1612,60.0164391868,MAFE4ImagesEEG,001,101613,
AFNE01.JPG,AFNE01.JPG,AFNE01.JPG,AFNE01.JPG,AFNE01.JPG,AFNE01.JPG,,,,,,,,,,,,,,,,,,,,,3,1,31,7,,,AFSA20.jpg,AFNE12.jpg,AFSA01.jpg,AFNE20.jpg,AFSA01.jpg,FS,4,num_2,32,num_8,1.10014933639,,,2017_Sep_26_1612,60.0164391868,MAFE4ImagesEEG,001,101613,
AFNE01.JPG,AFNE01.JPG,AFNE01.JPG,AFNE01.JPG,AFNE01.JPG,AFNE01.JPG,,,,,,,,,,,,,,,,,,,,,3,2,32,3,,,AFSA09.jpg,AFNE02.jpg,AFNE01.jpg,AFSA05.jpg,AFNE01.jpg,FN,3,num_2,32,num_6,0.983473892149,,,2017_Sep_26_1612,60.0164391868,MAFE4ImagesEEG,001,101613,
AFNE01.JPG,AFNE01.JPG,AFNE01.JPG,AFNE01.JPG,AFNE01.JPG,AFNE01.JPG,,,,,,,,,,,,,,,,,,,,,3,3,33,6,,,AFSA15.jpg,AFNE13.jpg,AFSA08.jpg,AFNE09.jpg,AFSA15.jpg,FS,4,num_8,32,num_2,0.450161877263,,,2017_Sep_26_1612,60.0164391868,MAFE4ImagesEEG,001,101613,
AFNE01.JPG,AFNE01.JPG,AFNE01.JPG,AFNE01.JPG,AFNE01.JPG,AFNE01.JPG,,,,,,,,,,,,,,,,,,,,,3,4,34,1,,,AFSA08.jpg,AFSA20.jpg,AFNE10.jpg,AFNE16.jpg,AFSA08.jpg,FS,4,num_8,16,num_8,0.416787959693,,,2017_Sep_26_1612,60.0164391868,MAFE4ImagesEEG,001,101613,
AFNE01.JPG,AFNE01.JPG,AFNE01.JPG,AFNE01.JPG,AFNE01.JPG,AFNE01.JPG,,,,,,,,,,,,,,,,,,,,,3,5,35,4,,,AFSA04.jpg,AFNE03.jpg,AFNE13.jpg,AFSA13.jpg,AFNE03.jpg,FN,3,num_6,32,num_4,0.300201039587,,,2017_Sep_26_1612,60.0164391868,MAFE4ImagesEEG,001,101613,
AFNE01.JPG,AFNE01.JPG,AFNE01.JPG,AFNE01.JPG,AFNE01.JPG,AFNE01.JPG,,,,,,,,,,,,,,,,,,,,,3,6,36,0,,,AFSA05.jpg,AFSA12.jpg,AFNE08.jpg,AFNE03.jpg,AFSA05.jpg,FS,4,num_8,32,num_4,0.300178587844,,,2017_Sep_26_1612,60.0164391868,MAFE4ImagesEEG,001,101613,
AFNE01.JPG,AFNE01.JPG,AFNE01.JPG,AFNE01.JPG,AFNE01.JPG,AFNE01.JPG,,,,,,,,,,,,,,,,,,,,,3,7,37,9,,,AFSA10.jpg,AFSA05.jpg,AFNE19.jpg,AFNE09.jpg,AFSA10.jpg,FS,4,num_8,32,num_6,0.333505035902,,,2017_Sep_26_1612,60.0164391868,MAFE4ImagesEEG,001,101613,
AFNE01.JPG,AFNE01.JPG,AFNE01.JPG,AFNE01.JPG,AFNE01.JPG,AFNE01.JPG,,,,,,,,,,,,,,,,,,,,,3,8,38,2,,,AFSA11.jpg,AFNE03.jpg,AFSA07.jpg,AFNE13.jpg,AFSA11.jpg,FS,4,num_8,16,num_8,0.433522869076,,,2017_Sep_26_1612,60.0164391868,MAFE4ImagesEEG,001,101613,
