IPosition2,IPosition3,IPosition1,IPosition6,IPosition4,IPosition5,TrialsF1.thisRepN,TrialsF1.thisTrialN,TrialsF1.thisN,TrialsF1.thisIndex,TrialsM1.thisRepN,TrialsM1.thisTrialN,TrialsM1.thisN,TrialsM1.thisIndex,TrialsF2.thisRepN,TrialsF2.thisTrialN,TrialsF2.thisN,TrialsF2.thisIndex,TrialsM2.thisRepN,TrialsM2.thisTrialN,TrialsM2.thisN,TrialsM2.thisIndex,TrialsF3.thisRepN,TrialsF3.thisTrialN,TrialsF3.thisN,TrialsF3.thisIndex,TrialsM3.thisRepN,TrialsM3.thisTrialN,TrialsM3.thisN,TrialsM3.thisIndex,InstrKey_resp.keys,InstrKey_resp.rt,Image0 _Position,Image1 _Position,Image2 _Position,Image3 _Position,Center_image,condition,code,correct_answer,accuracy,Key_Resp.keys,Key_Resp.rt,BreakKey_resp.keys,BreakKey_resp.rt,date,frameRate,expName,session,participant,
,,,,,,,,,,,,,,,,,,,,,,,,,,,,,,space,7.63310025143,,,,,,,,,,,,,,2017_Oct_12_1134,60.0097585133,FEMA4ImagesEEG,001,101639,
AFSA21.JPG,AFNE23.JPG,AFNE21.JPG,AFSA25.JPG,AFNE25.JPG,AFSA23.JPG,0,0,0,4,,,,,,,,,,,,,,,,,,,,,,,AFSA09.jpg,AFNE17.jpg,AFSA03.jpg,AFNE05.jpg,AFSA09.jpg,FS,4,num_8,16,num_8,1.01676187827,,,2017_Oct_12_1134,60.0097585133,FEMA4ImagesEEG,001,101639,
AMSA21.JPG,AMNE22.JPG,AMNE21.JPG,AMSA23.JPG,AMSA22.JPG,AMNE23.JPG,0,1,1,1,,,,,,,,,,,,,,,,,,,,,,,AFNE04.jpg,AFNE02.jpg,AFSA10.jpg,AFSA16.jpg,AFSA10.jpg,FS,4,num_2,16,num_2,2.5166385537,,,2017_Oct_12_1134,60.0097585133,FEMA4ImagesEEG,001,101639,
AMNE23.JPG,AMNE24.JPG,AMNE22.JPG,AMSA24.JPG,AMSA22.JPG,AMSA23.JPG,0,2,2,9,,,,,,,,,,,,,,,,,,,,,,,AFNE20.jpg,AFSA19.jpg,AFNE03.jpg,AFSA18.jpg,AFNE20.jpg,FN,3,num_8,16,num_8,2.06654555525,,,2017_Oct_12_1134,60.0097585133,FEMA4ImagesEEG,001,101639,
AFNE23.JPG,AFNE24.JPG,AFNE22.JPG,AFSA24.JPG,AFSA22.JPG,AFSA23.JPG,0,3,3,8,,,,,,,,,,,,,,,,,,,,,,,AFNE06.jpg,AFSA03.jpg,AFSA05.jpg,AFNE17.jpg,AFNE06.jpg,FN,3,num_8,16,num_8,0.916781090782,,,2017_Oct_12_1134,60.0097585133,FEMA4ImagesEEG,001,101639,
AFSA21.JPG,AFNE22.JPG,AFNE21.JPG,AFSA23.JPG,AFSA22.JPG,AFNE23.JPG,0,4,4,0,,,,,,,,,,,,,,,,,,,,,,,AFNE20.jpg,AFSA13.jpg,AFSA07.jpg,AFNE18.jpg,AFSA07.jpg,FS,4,num_2,16,num_2,1.33339683979,,,2017_Oct_12_1134,60.0097585133,FEMA4ImagesEEG,001,101639,
AFSA25.JPG,AFNE24.JPG,AFSA24.JPG,AFNE21.JPG,AFSA21.JPG,AFNE25.JPG,0,5,5,2,,,,,,,,,,,,,,,,,,,,,,,AFSA18.jpg,AFNE10.jpg,AFSA09.jpg,AFNE17.jpg,AFSA09.jpg,FS,4,num_2,16,num_2,1.65011904272,,,2017_Oct_12_1134,60.0097585133,FEMA4ImagesEEG,001,101639,
AFNE22.JPG,AFSA24.JPG,AFSA22.JPG,AFNE25.JPG,AFNE24.JPG,AFSA25.JPG,0,6,6,6,,,,,,,,,,,,,,,,,,,,,,,AFNE08.jpg,AFSA04.jpg,AFSA07.jpg,AFNE16.jpg,AFSA07.jpg,FS,4,num_2,16,num_2,2.25004001241,,,2017_Oct_12_1134,60.0097585133,FEMA4ImagesEEG,001,101639,
AMSA21.JPG,AMNE23.JPG,AMNE21.JPG,AMSA25.JPG,AMNE25.JPG,AMSA23.JPG,0,7,7,5,,,,,,,,,,,,,,,,,,,,,,,AFNE20.jpg,AFNE04.jpg,AFSA13.jpg,AFSA07.jpg,AFNE04.jpg,FN,3,num_6,16,num_6,1.56673334853,,,2017_Oct_12_1134,60.0097585133,FEMA4ImagesEEG,001,101639,
AMSA25.JPG,AMNE24.JPG,AMSA24.JPG,AMNE26.JPG,AMSA21.JPG,AMNE25.JPG,0,8,8,3,,,,,,,,,,,,,,,,,,,,,,,AFSA12.jpg,AFNE20.jpg,AFSA15.jpg,AFNE14.jpg,AFNE20.jpg,FN,3,num_6,16,num_6,1.51678256609,,,2017_Oct_12_1134,60.0097585133,FEMA4ImagesEEG,001,101639,
AMNE22.JPG,AMSA24.JPG,AMSA22.JPG,AMNE25.JPG,AMNE24.JPG,AMSA25.JPG,0,9,9,7,,,,,,,,,,,,,,,,,,,,,,,AFSA11.jpg,AFNE15.jpg,AFSA06.jpg,AFNE01.jpg,AFNE01.jpg,FN,3,num_4,16,num_4,0.733762932592,,,2017_Oct_12_1134,60.0097585133,FEMA4ImagesEEG,001,101639,
AMSA21.JPG,AMNE23.JPG,AMNE21.JPG,AMSA25.JPG,AMNE25.JPG,AMSA23.JPG,,,,,0,0,0,5,,,,,,,,,,,,,,,,,,,AMSA03.jpg,AMSA06.jpg,AMNE10.jpg,AMNE05.jpg,AMNE10.jpg,MN,1,num_2,16,num_2,1.40011495329,,,2017_Oct_12_1134,60.0097585133,FEMA4ImagesEEG,001,101639,
AFSA21.JPG,AFNE23.JPG,AFNE21.JPG,AFSA25.JPG,AFNE25.JPG,AFSA23.JPG,,,,,0,1,1,4,,,,,,,,,,,,,,,,,,,AMSA16.jpg,AMSA01.jpg,AMNE12.jpg,AMNE08.jpg,AMNE08.jpg,MN,1,num_4,32,num_2,1.60007043451,,,2017_Oct_12_1134,60.0097585133,FEMA4ImagesEEG,001,101639,
AFSA21.JPG,AFNE22.JPG,AFNE21.JPG,AFSA23.JPG,AFSA22.JPG,AFNE23.JPG,,,,,0,2,2,0,,,,,,,,,,,,,,,,,,,AMSA14.jpg,AMSA15.jpg,AMNE08.jpg,AMNE12.jpg,AMNE12.jpg,MN,1,num_4,16,num_4,1.46676025866,,,2017_Oct_12_1134,60.0097585133,FEMA4ImagesEEG,001,101639,
AMNE22.JPG,AMSA24.JPG,AMSA22.JPG,AMNE25.JPG,AMNE24.JPG,AMSA25.JPG,,,,,0,3,3,7,,,,,,,,,,,,,,,,,,,AMSA14.jpg,AMNE01.jpg,AMNE09.jpg,AMSA19.jpg,AMSA19.jpg,MS,2,num_4,32,num_6,2.23332207545,,,2017_Oct_12_1134,60.0097585133,FEMA4ImagesEEG,001,101639,
AMNE23.JPG,AMNE24.JPG,AMNE22.JPG,AMSA24.JPG,AMSA22.JPG,AMSA23.JPG,,,,,0,4,4,9,,,,,,,,,,,,,,,,,,,AMNE19.jpg,AMSA15.jpg,AMSA11.jpg,AMNE03.jpg,AMSA11.jpg,MS,2,num_2,32,num_8,0.850196405197,,,2017_Oct_12_1134,60.0097585133,FEMA4ImagesEEG,001,101639,
AFNE23.JPG,AFNE24.JPG,AFNE22.JPG,AFSA24.JPG,AFSA22.JPG,AFSA23.JPG,,,,,0,5,5,8,,,,,,,,,,,,,,,,,,,AMNE06.jpg,AMSA13.jpg,AMNE09.jpg,AMSA18.jpg,AMNE09.jpg,MN,1,num_2,32,num_8,1.18344313873,,,2017_Oct_12_1134,60.0097585133,FEMA4ImagesEEG,001,101639,
AFNE22.JPG,AFSA24.JPG,AFSA22.JPG,AFNE25.JPG,AFNE24.JPG,AFSA25.JPG,,,,,0,6,6,6,,,,,,,,,,,,,,,,,,,AMSA16.jpg,AMNE19.jpg,AMNE11.jpg,AMSA09.jpg,AMSA16.jpg,MS,2,num_8,32,num_4,0.566686841194,,,2017_Oct_12_1134,60.0097585133,FEMA4ImagesEEG,001,101639,
AMSA25.JPG,AMNE24.JPG,AMSA24.JPG,AMNE26.JPG,AMSA21.JPG,AMNE25.JPG,,,,,0,7,7,3,,,,,,,,,,,,,,,,,,,AMSA19.jpg,AMSA07.jpg,AMNE06.jpg,AMNE03.jpg,AMNE03.jpg,MN,1,num_4,32,num_2,1.26633777982,,,2017_Oct_12_1134,60.0097585133,FEMA4ImagesEEG,001,101639,
AMSA21.JPG,AMNE22.JPG,AMNE21.JPG,AMSA23.JPG,AMSA22.JPG,AMNE23.JPG,,,,,0,8,8,1,,,,,,,,,,,,,,,,,,,AMSA13.jpg,AMSA08.jpg,AMNE13.jpg,AMNE05.jpg,AMSA13.jpg,MS,2,num_8,32,num_2,1.73341909924,,,2017_Oct_12_1134,60.0097585133,FEMA4ImagesEEG,001,101639,
AFSA25.JPG,AFNE24.JPG,AFSA24.JPG,AFNE21.JPG,AFSA21.JPG,AFNE25.JPG,,,,,0,9,9,2,,,,,,,,,,,,,,,,,,,AMSA10.jpg,AMNE06.jpg,AMSA03.jpg,AMNE08.jpg,AMSA03.jpg,MS,2,num_2,16,num_2,0.750138960662,,,2017_Oct_12_1134,60.0097585133,FEMA4ImagesEEG,001,101639,
AMNE22.JPG,AMSA24.JPG,AMSA22.JPG,AMNE25.JPG,AMNE24.JPG,AMSA25.JPG,,,,,,,,,0,0,0,7,,,,,,,,,,,,,,,AFNE04.jpg,AFSA13.jpg,AFNE15.jpg,AFSA14.jpg,AFSA13.jpg,FS,4,num_6,16,num_6,0.733485813136,,,2017_Oct_12_1134,60.0097585133,FEMA4ImagesEEG,001,101639,
AMSA21.JPG,AMNE23.JPG,AMNE21.JPG,AMSA25.JPG,AMNE25.JPG,AMSA23.JPG,,,,,,,,,0,1,1,5,,,,,,,,,,,,,,,AFSA05.jpg,AFSA17.jpg,AFNE18.jpg,AFNE16.jpg,AFNE18.jpg,FN,3,num_2,16,num_2,0.916776921134,,,2017_Oct_12_1134,60.0097585133,FEMA4ImagesEEG,001,101639,
AFSA25.JPG,AFNE24.JPG,AFSA24.JPG,AFNE21.JPG,AFSA21.JPG,AFNE25.JPG,,,,,,,,,0,2,2,2,,,,,,,,,,,,,,,AFNE02.jpg,AFSA07.jpg,AFNE13.jpg,AFSA08.jpg,AFNE13.jpg,FN,3,num_2,16,num_2,1.44990472414,,,2017_Oct_12_1134,60.0097585133,FEMA4ImagesEEG,001,101639,
AMSA21.JPG,AMNE22.JPG,AMNE21.JPG,AMSA23.JPG,AMSA22.JPG,AMNE23.JPG,,,,,,,,,0,3,3,1,,,,,,,,,,,,,,,AFSA06.jpg,AFSA03.jpg,AFNE10.jpg,AFNE02.jpg,AFNE10.jpg,FN,3,num_2,32,num_4,1.36671820958,,,2017_Oct_12_1134,60.0097585133,FEMA4ImagesEEG,001,101639,
AMNE23.JPG,AMNE24.JPG,AMNE22.JPG,AMSA24.JPG,AMSA22.JPG,AMSA23.JPG,,,,,,,,,0,4,4,9,,,,,,,,,,,,,,,AFNE12.jpg,AFNE14.jpg,AFSA15.jpg,AFSA01.jpg,AFSA01.jpg,FS,4,num_4,16,num_4,1.06673254666,,,2017_Oct_12_1134,60.0097585133,FEMA4ImagesEEG,001,101639,
AFNE22.JPG,AFSA24.JPG,AFSA22.JPG,AFNE25.JPG,AFNE24.JPG,AFSA25.JPG,,,,,,,,,0,5,5,6,,,,,,,,,,,,,,,AFSA16.jpg,AFNE19.jpg,AFSA02.jpg,AFNE09.jpg,AFSA16.jpg,FS,4,num_8,32,num_2,2.11671989353,,,2017_Oct_12_1134,60.0097585133,FEMA4ImagesEEG,001,101639,
AMSA25.JPG,AMNE24.JPG,AMSA24.JPG,AMNE26.JPG,AMSA21.JPG,AMNE25.JPG,,,,,,,,,0,6,6,3,,,,,,,,,,,,,,,AFNE08.jpg,AFSA11.jpg,AFNE01.jpg,AFSA01.jpg,AFNE08.jpg,FN,3,num_8,16,num_8,0.950012332527,,,2017_Oct_12_1134,60.0097585133,FEMA4ImagesEEG,001,101639,
AFSA21.JPG,AFNE23.JPG,AFNE21.JPG,AFSA25.JPG,AFNE25.JPG,AFSA23.JPG,,,,,,,,,0,7,7,4,,,,,,,,,,,,,,,AFNE07.jpg,AFSA04.jpg,AFSA18.jpg,AFNE16.jpg,AFNE16.jpg,FN,3,num_4,32,num_8,1.01672435179,,,2017_Oct_12_1134,60.0097585133,FEMA4ImagesEEG,001,101639,
AFSA21.JPG,AFNE22.JPG,AFNE21.JPG,AFSA23.JPG,AFSA22.JPG,AFNE23.JPG,,,,,,,,,0,8,8,0,,,,,,,,,,,,,,,AFNE13.jpg,AFNE12.jpg,AFSA15.jpg,AFSA09.jpg,AFNE13.jpg,FN,3,num_8,16,num_8,0.616820766241,,,2017_Oct_12_1134,60.0097585133,FEMA4ImagesEEG,001,101639,
AFNE23.JPG,AFNE24.JPG,AFNE22.JPG,AFSA24.JPG,AFSA22.JPG,AFSA23.JPG,,,,,,,,,0,9,9,8,,,,,,,,,,,,,,,AFSA06.jpg,AFSA18.jpg,AFNE20.jpg,AFNE01.jpg,AFSA06.jpg,FS,4,num_8,32,num_6,0.733493190142,,,2017_Oct_12_1134,60.0097585133,FEMA4ImagesEEG,001,101639,
AFSA25.JPG,AFNE24.JPG,AFSA24.JPG,AFNE21.JPG,AFSA21.JPG,AFNE25.JPG,,,,,,,,,,,,,0,0,0,2,,,,,,,,,,,AMNE17.jpg,AMNE16.jpg,AMSA17.jpg,AMSA08.jpg,AMNE17.jpg,MN,1,num_8,16,num_8,1.08342065488,,,2017_Oct_12_1134,60.0097585133,FEMA4ImagesEEG,001,101639,
AMSA21.JPG,AMNE23.JPG,AMNE21.JPG,AMSA25.JPG,AMNE25.JPG,AMSA23.JPG,,,,,,,,,,,,,0,1,1,5,,,,,,,,,,,AMNE16.jpg,AMSA06.jpg,AMNE15.jpg,AMSA10.jpg,AMNE16.jpg,MN,1,num_8,32,num_2,1.26677302411,,,2017_Oct_12_1134,60.0097585133,FEMA4ImagesEEG,001,101639,
AMNE22.JPG,AMSA24.JPG,AMSA22.JPG,AMNE25.JPG,AMNE24.JPG,AMSA25.JPG,,,,,,,,,,,,,0,2,2,7,,,,,,,,,,,AMSA18.jpg,AMNE07.jpg,AMSA12.jpg,AMNE19.jpg,AMSA12.jpg,MS,2,num_2,32,num_4,1.53339850775,,,2017_Oct_12_1134,60.0097585133,FEMA4ImagesEEG,001,101639,
AFSA21.JPG,AFNE22.JPG,AFNE21.JPG,AFSA23.JPG,AFSA22.JPG,AFNE23.JPG,,,,,,,,,,,,,0,3,3,0,,,,,,,,,,,AMNE18.jpg,AMSA13.jpg,AMSA16.jpg,AMNE11.jpg,AMSA13.jpg,MS,2,num_6,32,num_2,0.783513573231,,,2017_Oct_12_1134,60.0097585133,FEMA4ImagesEEG,001,101639,
AMSA21.JPG,AMNE22.JPG,AMNE21.JPG,AMSA23.JPG,AMSA22.JPG,AMNE23.JPG,,,,,,,,,,,,,0,4,4,1,,,,,,,,,,,AMNE03.jpg,AMNE10.jpg,AMSA18.jpg,AMSA03.jpg,AMNE10.jpg,MN,1,num_6,16,num_6,0.900128584704,,,2017_Oct_12_1134,60.0097585133,FEMA4ImagesEEG,001,101639,
AFNE22.JPG,AFSA24.JPG,AFSA22.JPG,AFNE25.JPG,AFNE24.JPG,AFSA25.JPG,,,,,,,,,,,,,0,5,5,6,,,,,,,,,,,AMSA20.jpg,AMNE19.jpg,AMNE20.jpg,AMSA15.jpg,AMNE19.jpg,MN,1,num_6,32,num_8,1.13345803705,,,2017_Oct_12_1134,60.0097585133,FEMA4ImagesEEG,001,101639,
AFNE23.JPG,AFNE24.JPG,AFNE22.JPG,AFSA24.JPG,AFSA22.JPG,AFSA23.JPG,,,,,,,,,,,,,0,6,6,8,,,,,,,,,,,AMSA03.jpg,AMSA02.jpg,AMNE17.jpg,AMNE16.jpg,AMNE17.jpg,MN,1,num_2,16,num_2,1.46672882617,,,2017_Oct_12_1134,60.0097585133,FEMA4ImagesEEG,001,101639,
AMNE23.JPG,AMNE24.JPG,AMNE22.JPG,AMSA24.JPG,AMSA22.JPG,AMSA23.JPG,,,,,,,,,,,,,0,7,7,9,,,,,,,,,,,AMSA19.jpg,AMNE03.jpg,AMNE14.jpg,AMSA16.jpg,AMNE14.jpg,MN,1,num_2,32,num_8,1.01676476502,,,2017_Oct_12_1134,60.0097585133,FEMA4ImagesEEG,001,101639,
AMSA25.JPG,AMNE24.JPG,AMSA24.JPG,AMNE26.JPG,AMSA21.JPG,AMNE25.JPG,,,,,,,,,,,,,0,8,8,3,,,,,,,,,,,AMNE15.jpg,AMNE08.jpg,AMSA06.jpg,AMSA12.jpg,AMSA06.jpg,MS,2,num_2,16,num_2,1.80008717719,,,2017_Oct_12_1134,60.0097585133,FEMA4ImagesEEG,001,101639,
AFSA21.JPG,AFNE23.JPG,AFNE21.JPG,AFSA25.JPG,AFNE25.JPG,AFSA23.JPG,,,,,,,,,,,,,0,9,9,4,,,,,,,,,,,AMSA06.jpg,AMNE05.jpg,AMSA15.jpg,AMNE11.jpg,AMNE05.jpg,MN,1,num_6,16,num_6,0.83351503266,,,2017_Oct_12_1134,60.0097585133,FEMA4ImagesEEG,001,101639,
AMSA21.JPG,AMNE23.JPG,AMNE21.JPG,AMSA25.JPG,AMNE25.JPG,AMSA23.JPG,,,,,,,,,,,,,,,,,0,0,0,5,,,,,,,AFNE11.jpg,AFSA02.jpg,AFSA04.jpg,AFNE16.jpg,AFNE11.jpg,FN,3,num_8,16,num_8,0.500171435648,,,2017_Oct_12_1134,60.0097585133,FEMA4ImagesEEG,001,101639,
AFSA21.JPG,AFNE22.JPG,AFNE21.JPG,AFSA23.JPG,AFSA22.JPG,AFNE23.JPG,,,,,,,,,,,,,,,,,0,1,1,0,,,,,,,AFSA07.jpg,AFNE16.jpg,AFSA10.jpg,AFNE11.jpg,AFSA07.jpg,FS,4,num_8,16,num_8,0.450121865259,,,2017_Oct_12_1134,60.0097585133,FEMA4ImagesEEG,001,101639,
AMNE22.JPG,AMSA24.JPG,AMSA22.JPG,AMNE25.JPG,AMNE24.JPG,AMSA25.JPG,,,,,,,,,,,,,,,,,0,2,2,7,,,,,,,AFNE15.jpg,AFNE16.jpg,AFSA04.jpg,AFSA14.jpg,AFNE15.jpg,FN,3,num_8,16,num_8,0.600157034351,,,2017_Oct_12_1134,60.0097585133,FEMA4ImagesEEG,001,101639,
AMSA21.JPG,AMNE22.JPG,AMNE21.JPG,AMSA23.JPG,AMSA22.JPG,AMNE23.JPG,,,,,,,,,,,,,,,,,0,3,3,1,,,,,,,AFNE13.jpg,AFNE03.jpg,AFSA02.jpg,AFSA20.jpg,AFSA20.jpg,FS,4,num_4,16,num_4,1.41673923412,,,2017_Oct_12_1134,60.0097585133,FEMA4ImagesEEG,001,101639,
AFNE23.JPG,AFNE24.JPG,AFNE22.JPG,AFSA24.JPG,AFSA22.JPG,AFSA23.JPG,,,,,,,,,,,,,,,,,0,4,4,8,,,,,,,AFSA14.jpg,AFSA09.jpg,AFNE12.jpg,AFNE05.jpg,AFSA14.jpg,FS,4,num_8,16,num_8,1.43340296601,,,2017_Oct_12_1134,60.0097585133,FEMA4ImagesEEG,001,101639,
AMNE23.JPG,AMNE24.JPG,AMNE22.JPG,AMSA24.JPG,AMSA22.JPG,AMSA23.JPG,,,,,,,,,,,,,,,,,0,5,5,9,,,,,,,AFSA13.jpg,AFNE08.jpg,AFSA02.jpg,AFNE04.jpg,AFNE04.jpg,FN,3,num_4,16,num_4,0.850191914826,,,2017_Oct_12_1134,60.0097585133,FEMA4ImagesEEG,001,101639,
AFSA25.JPG,AFNE24.JPG,AFSA24.JPG,AFNE21.JPG,AFSA21.JPG,AFNE25.JPG,,,,,,,,,,,,,,,,,0,6,6,2,,,,,,,AFNE07.jpg,AFSA08.jpg,AFSA19.jpg,AFNE14.jpg,AFNE07.jpg,FN,3,num_8,16,num_8,0.983450451633,,,2017_Oct_12_1134,60.0097585133,FEMA4ImagesEEG,001,101639,
AMSA25.JPG,AMNE24.JPG,AMSA24.JPG,AMNE26.JPG,AMSA21.JPG,AMNE25.JPG,,,,,,,,,,,,,,,,,0,7,7,3,,,,,,,AFNE10.jpg,AFNE11.jpg,AFSA01.jpg,AFSA02.jpg,AFSA02.jpg,FS,4,num_4,16,num_4,0.700168613112,,,2017_Oct_12_1134,60.0097585133,FEMA4ImagesEEG,001,101639,
AFNE22.JPG,AFSA24.JPG,AFSA22.JPG,AFNE25.JPG,AFNE24.JPG,AFSA25.JPG,,,,,,,,,,,,,,,,,0,8,8,6,,,,,,,AFSA07.jpg,AFSA11.jpg,AFNE15.jpg,AFNE01.jpg,AFNE15.jpg,FN,3,num_2,32,num_8,0.700174386497,,,2017_Oct_12_1134,60.0097585133,FEMA4ImagesEEG,001,101639,
AFSA21.JPG,AFNE23.JPG,AFNE21.JPG,AFSA25.JPG,AFNE25.JPG,AFSA23.JPG,,,,,,,,,,,,,,,,,0,9,9,4,,,,,,,AFSA05.jpg,AFNE13.jpg,AFSA17.jpg,AFNE19.jpg,AFSA05.jpg,FS,4,num_8,32,num_2,1.08346652065,,,2017_Oct_12_1134,60.0097585133,FEMA4ImagesEEG,001,101639,
AFNE22.JPG,AFSA24.JPG,AFSA22.JPG,AFNE25.JPG,AFNE24.JPG,AFSA25.JPG,,,,,,,,,,,,,,,,,,,,,0,0,0,6,,,AMSA18.jpg,AMNE04.jpg,AMSA02.jpg,AMNE08.jpg,AMNE08.jpg,MN,1,num_4,16,num_4,1.35012375761,,,2017_Oct_12_1134,60.0097585133,FEMA4ImagesEEG,001,101639,
AMNE23.JPG,AMNE24.JPG,AMNE22.JPG,AMSA24.JPG,AMSA22.JPG,AMSA23.JPG,,,,,,,,,,,,,,,,,,,,,0,1,1,9,,,AMSA19.jpg,AMNE11.jpg,AMNE15.jpg,AMSA08.jpg,AMSA08.jpg,MS,2,num_4,16,num_4,1.28344669892,,,2017_Oct_12_1134,60.0097585133,FEMA4ImagesEEG,001,101639,
AMSA21.JPG,AMNE22.JPG,AMNE21.JPG,AMSA23.JPG,AMSA22.JPG,AMNE23.JPG,,,,,,,,,,,,,,,,,,,,,0,2,2,1,,,AMNE08.jpg,AMSA14.jpg,AMNE06.jpg,AMSA04.jpg,AMSA14.jpg,MS,2,num_6,16,num_6,0.633149645524,,,2017_Oct_12_1134,60.0097585133,FEMA4ImagesEEG,001,101639,
AMNE22.JPG,AMSA24.JPG,AMSA22.JPG,AMNE25.JPG,AMNE24.JPG,AMSA25.JPG,,,,,,,,,,,,,,,,,,,,,0,3,3,7,,,AMNE10.jpg,AMSA16.jpg,AMSA12.jpg,AMNE13.jpg,AMSA16.jpg,MS,2,num_6,32,num_8,1.60011630028,,,2017_Oct_12_1134,60.0097585133,FEMA4ImagesEEG,001,101639,
AMSA21.JPG,AMNE23.JPG,AMNE21.JPG,AMSA25.JPG,AMNE25.JPG,AMSA23.JPG,,,,,,,,,,,,,,,,,,,,,0,4,4,5,,,AMNE10.jpg,AMNE16.jpg,AMSA19.jpg,AMSA02.jpg,AMSA02.jpg,MS,2,num_4,16,num_4,1.03343940212,,,2017_Oct_12_1134,60.0097585133,FEMA4ImagesEEG,001,101639,
AFSA21.JPG,AFNE23.JPG,AFNE21.JPG,AFSA25.JPG,AFNE25.JPG,AFSA23.JPG,,,,,,,,,,,,,,,,,,,,,0,5,5,4,,,AMNE07.jpg,AMSA04.jpg,AMNE08.jpg,AMSA10.jpg,AMNE08.jpg,MN,1,num_2,16,num_2,1.21673917002,,,2017_Oct_12_1134,60.0097585133,FEMA4ImagesEEG,001,101639,
AFNE23.JPG,AFNE24.JPG,AFNE22.JPG,AFSA24.JPG,AFSA22.JPG,AFSA23.JPG,,,,,,,,,,,,,,,,,,,,,0,6,6,8,,,AMSA10.jpg,AMSA13.jpg,AMNE06.jpg,AMNE01.jpg,AMSA10.jpg,MS,2,num_8,32,num_6,1.11684594431,,,2017_Oct_12_1134,60.0097585133,FEMA4ImagesEEG,001,101639,
AFSA25.JPG,AFNE24.JPG,AFSA24.JPG,AFNE21.JPG,AFSA21.JPG,AFNE25.JPG,,,,,,,,,,,,,,,,,,,,,0,7,7,2,,,AMNE18.jpg,AMNE04.jpg,AMSA12.jpg,AMSA16.jpg,AMSA12.jpg,MS,2,num_2,32,num_4,0.916793920216,,,2017_Oct_12_1134,60.0097585133,FEMA4ImagesEEG,001,101639,
AMSA25.JPG,AMNE24.JPG,AMSA24.JPG,AMNE26.JPG,AMSA21.JPG,AMNE25.JPG,,,,,,,,,,,,,,,,,,,,,0,8,8,3,,,AMSA18.jpg,AMNE05.jpg,AMNE02.jpg,AMSA06.jpg,AMSA18.jpg,MS,2,num_8,32,num_4,1.00012123981,,,2017_Oct_12_1134,60.0097585133,FEMA4ImagesEEG,001,101639,
AFSA21.JPG,AFNE22.JPG,AFNE21.JPG,AFSA23.JPG,AFSA22.JPG,AFNE23.JPG,,,,,,,,,,,,,,,,,,,,,0,9,9,0,,,AMSA06.jpg,AMNE15.jpg,AMSA16.jpg,AMNE01.jpg,AMNE15.jpg,MN,1,num_6,16,num_6,1.23350938759,,,2017_Oct_12_1134,60.0097585133,FEMA4ImagesEEG,001,101639,
,,,,,,,,,,,,,,,,,,,,,,,,,,,,,,,,,,,,,,,,,,,space,11.382284048,2017_Oct_12_1134,60.0097585133,FEMA4ImagesEEG,001,101639,
AFNE01.JPG,AFNE01.JPG,AFNE01.JPG,AFNE01.JPG,AFNE01.JPG,AFNE01.JPG,0,0,0,3,,,,,,,,,,,,,,,,,,,,,,,AFSA09.jpg,AFNE10.jpg,AFSA05.jpg,AFNE05.jpg,AFSA09.jpg,FS,4,num_8,32,num_2,1.05018107384,,,2017_Oct_12_1134,60.0097585133,FEMA4ImagesEEG,001,101639,
AFNE01.JPG,AFNE01.JPG,AFNE01.JPG,AFNE01.JPG,AFNE01.JPG,AFNE01.JPG,0,1,1,1,,,,,,,,,,,,,,,,,,,,,,,AFSA05.jpg,AFNE05.jpg,AFNE19.jpg,AFSA03.jpg,AFNE19.jpg,FN,3,num_2,32,num_8,1.18345115718,,,2017_Oct_12_1134,60.0097585133,FEMA4ImagesEEG,001,101639,
AFNE01.JPG,AFNE01.JPG,AFNE01.JPG,AFNE01.JPG,AFNE01.JPG,AFNE01.JPG,0,2,2,5,,,,,,,,,,,,,,,,,,,,,,,AFSA08.jpg,AFNE09.jpg,AFNE02.jpg,AFSA13.jpg,AFNE09.jpg,FN,3,num_6,32,num_2,1.03345447686,,,2017_Oct_12_1134,60.0097585133,FEMA4ImagesEEG,001,101639,
AFNE01.JPG,AFNE01.JPG,AFNE01.JPG,AFNE01.JPG,AFNE01.JPG,AFNE01.JPG,0,3,3,9,,,,,,,,,,,,,,,,,,,,,,,AFSA14.jpg,AFNE01.jpg,AFSA02.jpg,AFNE19.jpg,AFSA14.jpg,FS,4,num_8,32,num_6,0.983464243473,,,2017_Oct_12_1134,60.0097585133,FEMA4ImagesEEG,001,101639,
AFNE01.JPG,AFNE01.JPG,AFNE01.JPG,AFNE01.JPG,AFNE01.JPG,AFNE01.JPG,0,4,4,6,,,,,,,,,,,,,,,,,,,,,,,AFSA02.jpg,AFNE02.jpg,AFSA16.jpg,AFNE17.jpg,AFNE02.jpg,FN,3,num_6,32,num_8,0.800174739212,,,2017_Oct_12_1134,60.0097585133,FEMA4ImagesEEG,001,101639,
AFNE01.JPG,AFNE01.JPG,AFNE01.JPG,AFNE01.JPG,AFNE01.JPG,AFNE01.JPG,0,5,5,4,,,,,,,,,,,,,,,,,,,,,,,AFNE05.jpg,AFNE15.jpg,AFSA06.jpg,AFSA04.jpg,AFNE15.jpg,FN,3,num_6,16,num_6,0.58349330246,,,2017_Oct_12_1134,60.0097585133,FEMA4ImagesEEG,001,101639,
AFNE01.JPG,AFNE01.JPG,AFNE01.JPG,AFNE01.JPG,AFNE01.JPG,AFNE01.JPG,0,6,6,0,,,,,,,,,,,,,,,,,,,,,,,AFSA11.jpg,AFNE16.jpg,AFNE18.jpg,AFSA20.jpg,AFNE18.jpg,FN,3,num_2,16,num_2,1.16676593572,,,2017_Oct_12_1134,60.0097585133,FEMA4ImagesEEG,001,101639,
AFNE01.JPG,AFNE01.JPG,AFNE01.JPG,AFNE01.JPG,AFNE01.JPG,AFNE01.JPG,0,7,7,8,,,,,,,,,,,,,,,,,,,,,,,AFNE07.jpg,AFSA19.jpg,AFSA12.jpg,AFNE01.jpg,AFNE07.jpg,FN,3,num_8,16,num_8,0.733471700689,,,2017_Oct_12_1134,60.0097585133,FEMA4ImagesEEG,001,101639,
AFNE01.JPG,AFNE01.JPG,AFNE01.JPG,AFNE01.JPG,AFNE01.JPG,AFNE01.JPG,0,8,8,7,,,,,,,,,,,,,,,,,,,,,,,AFSA17.jpg,AFSA19.jpg,AFNE16.jpg,AFNE10.jpg,AFNE10.jpg,FN,3,num_4,16,num_4,2.70003101556,,,2017_Oct_12_1134,60.0097585133,FEMA4ImagesEEG,001,101639,
AFNE01.JPG,AFNE01.JPG,AFNE01.JPG,AFNE01.JPG,AFNE01.JPG,AFNE01.JPG,0,9,9,2,,,,,,,,,,,,,,,,,,,,,,,AFSA15.jpg,AFSA03.jpg,AFNE07.jpg,AFNE09.jpg,AFNE07.jpg,FN,3,num_2,32,num_8,1.10017579759,,,2017_Oct_12_1134,60.0097585133,FEMA4ImagesEEG,001,101639,
AFNE01.JPG,AFNE01.JPG,AFNE01.JPG,AFNE01.JPG,AFNE01.JPG,AFNE01.JPG,1,0,10,7,,,,,,,,,,,,,,,,,,,,,,,AFSA04.jpg,AFNE16.jpg,AFNE15.jpg,AFSA01.jpg,AFSA04.jpg,FS,4,num_8,16,num_8,0.933449633652,,,2017_Oct_12_1134,60.0097585133,FEMA4ImagesEEG,001,101639,
AFNE01.JPG,AFNE01.JPG,AFNE01.JPG,AFNE01.JPG,AFNE01.JPG,AFNE01.JPG,1,1,11,3,,,,,,,,,,,,,,,,,,,,,,,AFSA20.jpg,AFNE14.jpg,AFSA07.jpg,AFNE16.jpg,AFNE16.jpg,FN,3,num_4,16,num_4,1.03351573821,,,2017_Oct_12_1134,60.0097585133,FEMA4ImagesEEG,001,101639,
AFNE01.JPG,AFNE01.JPG,AFNE01.JPG,AFNE01.JPG,AFNE01.JPG,AFNE01.JPG,1,2,12,6,,,,,,,,,,,,,,,,,,,,,,,AFNE13.jpg,AFSA09.jpg,AFSA16.jpg,AFNE15.jpg,AFSA16.jpg,FS,4,num_2,16,num_2,1.35008462728,,,2017_Oct_12_1134,60.0097585133,FEMA4ImagesEEG,001,101639,
AFNE01.JPG,AFNE01.JPG,AFNE01.JPG,AFNE01.JPG,AFNE01.JPG,AFNE01.JPG,1,3,13,2,,,,,,,,,,,,,,,,,,,,,,,AFSA18.jpg,AFSA06.jpg,AFNE16.jpg,AFNE05.jpg,AFNE16.jpg,FN,3,num_2,32,num_8,1.38341401552,,,2017_Oct_12_1134,60.0097585133,FEMA4ImagesEEG,001,101639,
AFNE01.JPG,AFNE01.JPG,AFNE01.JPG,AFNE01.JPG,AFNE01.JPG,AFNE01.JPG,1,4,14,1,,,,,,,,,,,,,,,,,,,,,,,AFSA01.jpg,AFNE06.jpg,AFNE09.jpg,AFSA15.jpg,AFNE09.jpg,FN,3,num_2,16,num_2,2.13343237783,,,2017_Oct_12_1134,60.0097585133,FEMA4ImagesEEG,001,101639,
AFNE01.JPG,AFNE01.JPG,AFNE01.JPG,AFNE01.JPG,AFNE01.JPG,AFNE01.JPG,1,5,15,9,,,,,,,,,,,,,,,,,,,,,,,AFSA07.jpg,AFSA17.jpg,AFNE07.jpg,AFNE16.jpg,AFSA17.jpg,FS,4,num_6,16,num_6,1.30012229818,,,2017_Oct_12_1134,60.0097585133,FEMA4ImagesEEG,001,101639,
AFNE01.JPG,AFNE01.JPG,AFNE01.JPG,AFNE01.JPG,AFNE01.JPG,AFNE01.JPG,1,6,16,4,,,,,,,,,,,,,,,,,,,,,,,AFSA19.jpg,AFNE07.jpg,AFNE08.jpg,AFSA12.jpg,AFSA19.jpg,FS,4,num_8,32,num_2,1.30011075153,,,2017_Oct_12_1134,60.0097585133,FEMA4ImagesEEG,001,101639,
AFNE01.JPG,AFNE01.JPG,AFNE01.JPG,AFNE01.JPG,AFNE01.JPG,AFNE01.JPG,1,7,17,0,,,,,,,,,,,,,,,,,,,,,,,AFSA13.jpg,AFNE14.jpg,AFNE19.jpg,AFSA06.jpg,AFSA06.jpg,FS,4,num_4,32,num_8,0.950138383312,,,2017_Oct_12_1134,60.0097585133,FEMA4ImagesEEG,001,101639,
AFNE01.JPG,AFNE01.JPG,AFNE01.JPG,AFNE01.JPG,AFNE01.JPG,AFNE01.JPG,1,8,18,8,,,,,,,,,,,,,,,,,,,,,,,AFSA06.jpg,AFNE19.jpg,AFSA04.jpg,AFNE09.jpg,AFSA04.jpg,FS,4,num_2,32,num_4,1.25011185813,,,2017_Oct_12_1134,60.0097585133,FEMA4ImagesEEG,001,101639,
AFNE01.JPG,AFNE01.JPG,AFNE01.JPG,AFNE01.JPG,AFNE01.JPG,AFNE01.JPG,1,9,19,5,,,,,,,,,,,,,,,,,,,,,,,AFNE02.jpg,AFNE20.jpg,AFSA16.jpg,AFSA08.jpg,AFNE02.jpg,FN,3,num_8,16,num_8,1.03313341597,,,2017_Oct_12_1134,60.0097585133,FEMA4ImagesEEG,001,101639,
AFNE01.JPG,AFNE01.JPG,AFNE01.JPG,AFNE01.JPG,AFNE01.JPG,AFNE01.JPG,2,0,20,9,,,,,,,,,,,,,,,,,,,,,,,AFNE17.jpg,AFNE20.jpg,AFSA04.jpg,AFSA08.jpg,AFSA08.jpg,FS,4,num_4,32,num_2,3.53329330496,,,2017_Oct_12_1134,60.0097585133,FEMA4ImagesEEG,001,101639,
AFNE01.JPG,AFNE01.JPG,AFNE01.JPG,AFNE01.JPG,AFNE01.JPG,AFNE01.JPG,2,1,21,6,,,,,,,,,,,,,,,,,,,,,,,AFSA12.jpg,AFNE04.jpg,AFNE13.jpg,AFSA17.jpg,AFNE04.jpg,FN,3,num_6,16,num_6,0.817095383885,,,2017_Oct_12_1134,60.0097585133,FEMA4ImagesEEG,001,101639,
AFNE01.JPG,AFNE01.JPG,AFNE01.JPG,AFNE01.JPG,AFNE01.JPG,AFNE01.JPG,2,2,22,5,,,,,,,,,,,,,,,,,,,,,,,AFNE17.jpg,AFNE12.jpg,AFSA17.jpg,AFSA02.jpg,AFNE17.jpg,FN,3,num_8,16,num_8,1.63335299469,,,2017_Oct_12_1134,60.0097585133,FEMA4ImagesEEG,001,101639,
AFNE01.JPG,AFNE01.JPG,AFNE01.JPG,AFNE01.JPG,AFNE01.JPG,AFNE01.JPG,2,3,23,0,,,,,,,,,,,,,,,,,,,,,,,AFNE02.jpg,AFSA16.jpg,AFNE15.jpg,AFSA09.jpg,AFNE02.jpg,FN,3,num_8,16,num_8,1.16675535135,,,2017_Oct_12_1134,60.0097585133,FEMA4ImagesEEG,001,101639,
AFNE01.JPG,AFNE01.JPG,AFNE01.JPG,AFNE01.JPG,AFNE01.JPG,AFNE01.JPG,2,4,24,2,,,,,,,,,,,,,,,,,,,,,,,AFSA18.jpg,AFNE09.jpg,AFNE14.jpg,AFSA05.jpg,AFSA18.jpg,FS,4,num_8,32,num_4,0.883461966179,,,2017_Oct_12_1134,60.0097585133,FEMA4ImagesEEG,001,101639,
AFNE01.JPG,AFNE01.JPG,AFNE01.JPG,AFNE01.JPG,AFNE01.JPG,AFNE01.JPG,2,5,25,3,,,,,,,,,,,,,,,,,,,,,,,AFSA08.jpg,AFNE19.jpg,AFSA17.jpg,AFNE02.jpg,AFNE19.jpg,FN,3,num_6,16,num_6,0.716804119758,,,2017_Oct_12_1134,60.0097585133,FEMA4ImagesEEG,001,101639,
AFNE01.JPG,AFNE01.JPG,AFNE01.JPG,AFNE01.JPG,AFNE01.JPG,AFNE01.JPG,2,6,26,4,,,,,,,,,,,,,,,,,,,,,,,AFSA17.jpg,AFNE11.jpg,AFNE06.jpg,AFSA15.jpg,AFNE06.jpg,FN,3,num_2,32,num_8,0.950156024075,,,2017_Oct_12_1134,60.0097585133,FEMA4ImagesEEG,001,101639,
AFNE01.JPG,AFNE01.JPG,AFNE01.JPG,AFNE01.JPG,AFNE01.JPG,AFNE01.JPG,2,7,27,8,,,,,,,,,,,,,,,,,,,,,,,AFNE10.jpg,AFSA11.jpg,AFNE11.jpg,AFSA14.jpg,AFSA11.jpg,FS,4,num_6,32,num_2,0.400164026418,,,2017_Oct_12_1134,60.0097585133,FEMA4ImagesEEG,001,101639,
AFNE01.JPG,AFNE01.JPG,AFNE01.JPG,AFNE01.JPG,AFNE01.JPG,AFNE01.JPG,2,8,28,1,,,,,,,,,,,,,,,,,,,,,,,AFSA16.jpg,AFNE14.jpg,AFSA06.jpg,AFNE16.jpg,AFSA06.jpg,FS,4,num_2,32,num_8,0.833478468237,,,2017_Oct_12_1134,60.0097585133,FEMA4ImagesEEG,001,101639,
AFNE01.JPG,AFNE01.JPG,AFNE01.JPG,AFNE01.JPG,AFNE01.JPG,AFNE01.JPG,2,9,29,7,,,,,,,,,,,,,,,,,,,,,,,AFSA14.jpg,AFSA18.jpg,AFNE08.jpg,AFNE10.jpg,AFSA18.jpg,FS,4,num_6,16,num_6,0.700149368728,,,2017_Oct_12_1134,60.0097585133,FEMA4ImagesEEG,001,101639,
AFNE01.JPG,AFNE01.JPG,AFNE01.JPG,AFNE01.JPG,AFNE01.JPG,AFNE01.JPG,3,0,30,0,,,,,,,,,,,,,,,,,,,,,,,AFSA18.jpg,AFNE14.jpg,AFNE15.jpg,AFSA06.jpg,AFSA06.jpg,FS,4,num_4,32,num_8,0.783453274169,,,2017_Oct_12_1134,60.0097585133,FEMA4ImagesEEG,001,101639,
AFNE01.JPG,AFNE01.JPG,AFNE01.JPG,AFNE01.JPG,AFNE01.JPG,AFNE01.JPG,3,1,31,2,,,,,,,,,,,,,,,,,,,,,,,AFSA13.jpg,AFNE03.jpg,AFSA11.jpg,AFNE17.jpg,AFNE03.jpg,FN,3,num_6,16,num_6,0.833483279333,,,2017_Oct_12_1134,60.0097585133,FEMA4ImagesEEG,001,101639,
AFNE01.JPG,AFNE01.JPG,AFNE01.JPG,AFNE01.JPG,AFNE01.JPG,AFNE01.JPG,3,2,32,3,,,,,,,,,,,,,,,,,,,,,,,AFNE15.jpg,AFSA20.jpg,AFSA16.jpg,AFNE11.jpg,AFNE11.jpg,FN,3,num_4,16,num_4,1.03344421322,,,2017_Oct_12_1134,60.0097585133,FEMA4ImagesEEG,001,101639,
AFNE01.JPG,AFNE01.JPG,AFNE01.JPG,AFNE01.JPG,AFNE01.JPG,AFNE01.JPG,3,3,33,9,,,,,,,,,,,,,,,,,,,,,,,AFSA07.jpg,AFSA01.jpg,AFNE10.jpg,AFNE17.jpg,AFSA07.jpg,FS,4,num_8,16,num_8,0.583737385692,,,2017_Oct_12_1134,60.0097585133,FEMA4ImagesEEG,001,101639,
AFNE01.JPG,AFNE01.JPG,AFNE01.JPG,AFNE01.JPG,AFNE01.JPG,AFNE01.JPG,3,4,34,4,,,,,,,,,,,,,,,,,,,,,,,AFSA16.jpg,AFNE17.jpg,AFNE07.jpg,AFSA20.jpg,AFSA20.jpg,FS,4,num_4,16,num_4,0.566789798788,,,2017_Oct_12_1134,60.0097585133,FEMA4ImagesEEG,001,101639,
AFNE01.JPG,AFNE01.JPG,AFNE01.JPG,AFNE01.JPG,AFNE01.JPG,AFNE01.JPG,3,5,35,8,,,,,,,,,,,,,,,,,,,,,,,AFNE10.jpg,AFSA08.jpg,AFNE18.jpg,AFSA10.jpg,AFNE10.jpg,FN,3,num_8,16,num_8,0.80017024884,,,2017_Oct_12_1134,60.0097585133,FEMA4ImagesEEG,001,101639,
AFNE01.JPG,AFNE01.JPG,AFNE01.JPG,AFNE01.JPG,AFNE01.JPG,AFNE01.JPG,3,6,36,1,,,,,,,,,,,,,,,,,,,,,,,AFSA04.jpg,AFSA03.jpg,AFNE12.jpg,AFNE16.jpg,AFSA03.jpg,FS,4,num_6,32,num_4,1.75004787045,,,2017_Oct_12_1134,60.0097585133,FEMA4ImagesEEG,001,101639,
AFNE01.JPG,AFNE01.JPG,AFNE01.JPG,AFNE01.JPG,AFNE01.JPG,AFNE01.JPG,3,7,37,5,,,,,,,,,,,,,,,,,,,,,,,AFSA05.jpg,AFNE19.jpg,AFNE12.jpg,AFSA04.jpg,AFNE12.jpg,FN,3,num_2,32,num_8,1.03345768433,,,2017_Oct_12_1134,60.0097585133,FEMA4ImagesEEG,001,101639,
AFNE01.JPG,AFNE01.JPG,AFNE01.JPG,AFNE01.JPG,AFNE01.JPG,AFNE01.JPG,3,8,38,7,,,,,,,,,,,,,,,,,,,,,,,AFSA20.jpg,AFSA10.jpg,AFNE16.jpg,AFNE14.jpg,AFSA10.jpg,FS,4,num_6,16,num_6,0.833464034949,,,2017_Oct_12_1134,60.0097585133,FEMA4ImagesEEG,001,101639,
AFNE01.JPG,AFNE01.JPG,AFNE01.JPG,AFNE01.JPG,AFNE01.JPG,AFNE01.JPG,3,9,39,6,,,,,,,,,,,,,,,,,,,,,,,AFSA08.jpg,AFNE20.jpg,AFSA17.jpg,AFNE10.jpg,AFSA17.jpg,FS,4,num_2,16,num_2,0.816806076444,,,2017_Oct_12_1134,60.0097585133,FEMA4ImagesEEG,001,101639,
AFNE01.JPG,AFNE01.JPG,AFNE01.JPG,AFNE01.JPG,AFNE01.JPG,AFNE01.JPG,4,0,40,7,,,,,,,,,,,,,,,,,,,,,,,AFNE03.jpg,AFSA17.jpg,AFNE09.jpg,AFSA08.jpg,AFSA17.jpg,FS,4,num_6,32,num_4,1.43341194675,,,2017_Oct_12_1134,60.0097585133,FEMA4ImagesEEG,001,101639,
AFNE01.JPG,AFNE01.JPG,AFNE01.JPG,AFNE01.JPG,AFNE01.JPG,AFNE01.JPG,4,1,41,4,,,,,,,,,,,,,,,,,,,,,,,AFNE02.jpg,AFSA09.jpg,AFSA17.jpg,AFNE12.jpg,AFSA09.jpg,FS,4,num_6,32,num_8,1.00011225906,,,2017_Oct_12_1134,60.0097585133,FEMA4ImagesEEG,001,101639,
AFNE01.JPG,AFNE01.JPG,AFNE01.JPG,AFNE01.JPG,AFNE01.JPG,AFNE01.JPG,4,2,42,2,,,,,,,,,,,,,,,,,,,,,,,AFNE01.jpg,AFSA15.jpg,AFNE09.jpg,AFSA14.jpg,AFNE09.jpg,FN,3,num_2,16,num_2,1.25008491601,,,2017_Oct_12_1134,60.0097585133,FEMA4ImagesEEG,001,101639,
AFNE01.JPG,AFNE01.JPG,AFNE01.JPG,AFNE01.JPG,AFNE01.JPG,AFNE01.JPG,4,3,43,6,,,,,,,,,,,,,,,,,,,,,,,AFSA11.jpg,AFNE10.jpg,AFSA05.jpg,AFNE16.jpg,AFNE10.jpg,FN,3,num_6,16,num_6,0.700136218336,,,2017_Oct_12_1134,60.0097585133,FEMA4ImagesEEG,001,101639,
AFNE01.JPG,AFNE01.JPG,AFNE01.JPG,AFNE01.JPG,AFNE01.JPG,AFNE01.JPG,4,4,44,8,,,,,,,,,,,,,,,,,,,,,,,AFSA11.jpg,AFSA13.jpg,AFNE01.jpg,AFNE06.jpg,AFNE06.jpg,FN,3,num_4,32,num_2,1.31678442634,,,2017_Oct_12_1134,60.0097585133,FEMA4ImagesEEG,001,101639,
AFNE01.JPG,AFNE01.JPG,AFNE01.JPG,AFNE01.JPG,AFNE01.JPG,AFNE01.JPG,4,5,45,1,,,,,,,,,,,,,,,,,,,,,,,AFSA13.jpg,AFNE19.jpg,AFSA10.jpg,AFNE20.jpg,AFSA13.jpg,FS,4,num_8,16,num_8,0.98345430044,,,2017_Oct_12_1134,60.0097585133,FEMA4ImagesEEG,001,101639,
AFNE01.JPG,AFNE01.JPG,AFNE01.JPG,AFNE01.JPG,AFNE01.JPG,AFNE01.JPG,4,6,46,0,,,,,,,,,,,,,,,,,,,,,,,AFNE09.jpg,AFNE11.jpg,AFSA02.jpg,AFSA08.jpg,AFNE11.jpg,FN,3,num_6,32,num_4,1.13345066016,,,2017_Oct_12_1134,60.0097585133,FEMA4ImagesEEG,001,101639,
AFNE01.JPG,AFNE01.JPG,AFNE01.JPG,AFNE01.JPG,AFNE01.JPG,AFNE01.JPG,4,7,47,9,,,,,,,,,,,,,,,,,,,,,,,AFSA16.jpg,AFNE04.jpg,AFNE16.jpg,AFSA20.jpg,AFSA20.jpg,FS,4,num_4,16,num_4,0.616812106222,,,2017_Oct_12_1134,60.0097585133,FEMA4ImagesEEG,001,101639,
AFNE01.JPG,AFNE01.JPG,AFNE01.JPG,AFNE01.JPG,AFNE01.JPG,AFNE01.JPG,4,8,48,3,,,,,,,,,,,,,,,,,,,,,,,AFSA11.jpg,AFSA12.jpg,AFNE09.jpg,AFNE14.jpg,AFNE14.jpg,FN,3,num_4,16,num_4,0.950187777285,,,2017_Oct_12_1134,60.0097585133,FEMA4ImagesEEG,001,101639,
AFNE01.JPG,AFNE01.JPG,AFNE01.JPG,AFNE01.JPG,AFNE01.JPG,AFNE01.JPG,4,9,49,5,,,,,,,,,,,,,,,,,,,,,,,AFNE02.jpg,AFSA18.jpg,AFSA07.jpg,AFNE01.jpg,AFSA18.jpg,FS,4,num_6,16,num_6,1.14997326629,,,2017_Oct_12_1134,60.0097585133,FEMA4ImagesEEG,001,101639,
AFNE01.JPG,AFNE01.JPG,AFNE01.JPG,AFNE01.JPG,AFNE01.JPG,AFNE01.JPG,5,0,50,4,,,,,,,,,,,,,,,,,,,,,,,AFNE18.jpg,AFSA08.jpg,AFNE20.jpg,AFSA07.jpg,AFSA08.jpg,FS,4,num_6,32,num_8,1.10012800735,,,2017_Oct_12_1134,60.0097585133,FEMA4ImagesEEG,001,101639,
AFNE01.JPG,AFNE01.JPG,AFNE01.JPG,AFNE01.JPG,AFNE01.JPG,AFNE01.JPG,5,1,51,1,,,,,,,,,,,,,,,,,,,,,,,AFSA10.jpg,AFNE16.jpg,AFNE12.jpg,AFSA18.jpg,AFNE12.jpg,FN,3,num_2,32,num_6,0.883501737961,,,2017_Oct_12_1134,60.0097585133,FEMA4ImagesEEG,001,101639,
AFNE01.JPG,AFNE01.JPG,AFNE01.JPG,AFNE01.JPG,AFNE01.JPG,AFNE01.JPG,5,2,52,3,,,,,,,,,,,,,,,,,,,,,,,AFNE03.jpg,AFNE11.jpg,AFSA06.jpg,AFSA18.jpg,AFNE11.jpg,FN,3,num_6,16,num_6,1.00012252282,,,2017_Oct_12_1134,60.0097585133,FEMA4ImagesEEG,001,101639,
AFNE01.JPG,AFNE01.JPG,AFNE01.JPG,AFNE01.JPG,AFNE01.JPG,AFNE01.JPG,5,3,53,2,,,,,,,,,,,,,,,,,,,,,,,AFSA07.jpg,AFSA03.jpg,AFNE08.jpg,AFNE06.jpg,AFSA07.jpg,FS,4,num_8,32,num_4,1.2501041604,,,2017_Oct_12_1134,60.0097585133,FEMA4ImagesEEG,001,101639,
AFNE01.JPG,AFNE01.JPG,AFNE01.JPG,AFNE01.JPG,AFNE01.JPG,AFNE01.JPG,5,4,54,8,,,,,,,,,,,,,,,,,,,,,,,AFNE16.jpg,AFSA03.jpg,AFSA11.jpg,AFNE19.jpg,AFSA11.jpg,FS,4,num_2,32,num_8,0.833498033346,,,2017_Oct_12_1134,60.0097585133,FEMA4ImagesEEG,001,101639,
AFNE01.JPG,AFNE01.JPG,AFNE01.JPG,AFNE01.JPG,AFNE01.JPG,AFNE01.JPG,5,5,55,9,,,,,,,,,,,,,,,,,,,,,,,AFNE20.jpg,AFSA15.jpg,AFNE02.jpg,AFSA02.jpg,AFNE02.jpg,FN,3,num_2,16,num_2,1.3668869189,,,2017_Oct_12_1134,60.0097585133,FEMA4ImagesEEG,001,101639,
AFNE01.JPG,AFNE01.JPG,AFNE01.JPG,AFNE01.JPG,AFNE01.JPG,AFNE01.JPG,5,6,56,7,,,,,,,,,,,,,,,,,,,,,,,AFNE07.jpg,AFSA11.jpg,AFNE17.jpg,AFSA10.jpg,AFSA10.jpg,FS,4,num_4,32,num_8,0.600182693568,,,2017_Oct_12_1134,60.0097585133,FEMA4ImagesEEG,001,101639,
AFNE01.JPG,AFNE01.JPG,AFNE01.JPG,AFNE01.JPG,AFNE01.JPG,AFNE01.JPG,5,7,57,5,,,,,,,,,,,,,,,,,,,,,,,AFNE07.jpg,AFSA15.jpg,AFSA10.jpg,AFNE12.jpg,AFSA10.jpg,FS,4,num_2,32,num_6,1.53345592017,,,2017_Oct_12_1134,60.0097585133,FEMA4ImagesEEG,001,101639,
AFNE01.JPG,AFNE01.JPG,AFNE01.JPG,AFNE01.JPG,AFNE01.JPG,AFNE01.JPG,5,8,58,6,,,,,,,,,,,,,,,,,,,,,,,AFSA18.jpg,AFSA03.jpg,AFNE04.jpg,AFNE13.jpg,AFNE04.jpg,FN,3,num_2,32,num_4,0.800166399917,,,2017_Oct_12_1134,60.0097585133,FEMA4ImagesEEG,001,101639,
AFNE01.JPG,AFNE01.JPG,AFNE01.JPG,AFNE01.JPG,AFNE01.JPG,AFNE01.JPG,5,9,59,0,,,,,,,,,,,,,,,,,,,,,,,AFNE20.jpg,AFSA13.jpg,AFNE16.jpg,AFSA03.jpg,AFNE16.jpg,FN,3,num_2,16,num_2,1.15014742815,,,2017_Oct_12_1134,60.0097585133,FEMA4ImagesEEG,001,101639,
,,,,,,,,,,,,,,,,,,,,,,,,,,,,,,,,,,,,,,,,,,,space,9.53277049854,2017_Oct_12_1134,60.0097585133,FEMA4ImagesEEG,001,101639,
AFNE01.JPG,AFNE01.JPG,AFNE01.JPG,AFNE01.JPG,AFNE01.JPG,AFNE01.JPG,,,,,0,0,0,6,,,,,,,,,,,,,,,,,,,AMSA17.jpg,AMNE06.jpg,AMSA08.jpg,AMNE17.jpg,AMNE17.jpg,MN,1,num_4,32,num_8,1.01672852144,,,2017_Oct_12_1134,60.0097585133,FEMA4ImagesEEG,001,101639,
AFNE01.JPG,AFNE01.JPG,AFNE01.JPG,AFNE01.JPG,AFNE01.JPG,AFNE01.JPG,,,,,0,1,1,7,,,,,,,,,,,,,,,,,,,AMSA04.jpg,AMSA13.jpg,AMNE16.jpg,AMNE02.jpg,AMNE16.jpg,MN,1,num_2,16,num_2,0.783475405187,,,2017_Oct_12_1134,60.0097585133,FEMA4ImagesEEG,001,101639,
AFNE01.JPG,AFNE01.JPG,AFNE01.JPG,AFNE01.JPG,AFNE01.JPG,AFNE01.JPG,,,,,0,2,2,5,,,,,,,,,,,,,,,,,,,AMNE02.jpg,AMNE15.jpg,AMSA06.jpg,AMSA09.jpg,AMSA09.jpg,MS,2,num_4,16,num_4,1.06681914651,,,2017_Oct_12_1134,60.0097585133,FEMA4ImagesEEG,001,101639,
AFNE01.JPG,AFNE01.JPG,AFNE01.JPG,AFNE01.JPG,AFNE01.JPG,AFNE01.JPG,,,,,0,3,3,0,,,,,,,,,,,,,,,,,,,AMNE19.jpg,AMSA16.jpg,AMNE08.jpg,AMSA17.jpg,AMNE19.jpg,MN,1,num_8,16,num_8,1.00011995679,,,2017_Oct_12_1134,60.0097585133,FEMA4ImagesEEG,001,101639,
AFNE01.JPG,AFNE01.JPG,AFNE01.JPG,AFNE01.JPG,AFNE01.JPG,AFNE01.JPG,,,,,0,4,4,3,,,,,,,,,,,,,,,,,,,AMSA18.jpg,AMNE19.jpg,AMNE05.jpg,AMSA12.jpg,AMSA18.jpg,MS,2,num_8,32,num_4,1.08347293548,,,2017_Oct_12_1134,60.0097585133,FEMA4ImagesEEG,001,101639,
AFNE01.JPG,AFNE01.JPG,AFNE01.JPG,AFNE01.JPG,AFNE01.JPG,AFNE01.JPG,,,,,0,5,5,8,,,,,,,,,,,,,,,,,,,AMNE02.jpg,AMSA04.jpg,AMNE19.jpg,AMSA15.jpg,AMNE19.jpg,MN,1,num_2,32,num_8,1.90009843523,,,2017_Oct_12_1134,60.0097585133,FEMA4ImagesEEG,001,101639,
AFNE01.JPG,AFNE01.JPG,AFNE01.JPG,AFNE01.JPG,AFNE01.JPG,AFNE01.JPG,,,,,0,6,6,2,,,,,,,,,,,,,,,,,,,AMNE10.jpg,AMNE11.jpg,AMSA18.jpg,AMSA05.jpg,AMNE10.jpg,MN,1,num_8,16,num_8,1.00013182429,,,2017_Oct_12_1134,60.0097585133,FEMA4ImagesEEG,001,101639,
AFNE01.JPG,AFNE01.JPG,AFNE01.JPG,AFNE01.JPG,AFNE01.JPG,AFNE01.JPG,,,,,0,7,7,9,,,,,,,,,,,,,,,,,,,AMNE11.jpg,AMNE15.jpg,AMSA03.jpg,AMSA15.jpg,AMSA03.jpg,MS,2,num_2,16,num_2,1.45012282743,,,2017_Oct_12_1134,60.0097585133,FEMA4ImagesEEG,001,101639,
AFNE01.JPG,AFNE01.JPG,AFNE01.JPG,AFNE01.JPG,AFNE01.JPG,AFNE01.JPG,,,,,0,8,8,4,,,,,,,,,,,,,,,,,,,AMSA14.jpg,AMNE01.jpg,AMSA01.jpg,AMNE16.jpg,AMSA01.jpg,MS,2,num_2,32,num_6,1.23347506847,,,2017_Oct_12_1134,60.0097585133,FEMA4ImagesEEG,001,101639,
AFNE01.JPG,AFNE01.JPG,AFNE01.JPG,AFNE01.JPG,AFNE01.JPG,AFNE01.JPG,,,,,0,9,9,1,,,,,,,,,,,,,,,,,,,AMNE16.jpg,AMNE18.jpg,AMSA08.jpg,AMSA14.jpg,AMSA08.jpg,MS,2,num_2,16,num_2,1.28342553007,,,2017_Oct_12_1134,60.0097585133,FEMA4ImagesEEG,001,101639,
AFNE01.JPG,AFNE01.JPG,AFNE01.JPG,AFNE01.JPG,AFNE01.JPG,AFNE01.JPG,,,,,1,0,10,9,,,,,,,,,,,,,,,,,,,AMNE19.jpg,AMSA09.jpg,AMNE05.jpg,AMSA10.jpg,AMSA09.jpg,MS,2,num_6,32,num_2,1.0001103346,,,2017_Oct_12_1134,60.0097585133,FEMA4ImagesEEG,001,101639,
AFNE01.JPG,AFNE01.JPG,AFNE01.JPG,AFNE01.JPG,AFNE01.JPG,AFNE01.JPG,,,,,1,1,11,2,,,,,,,,,,,,,,,,,,,AMNE15.jpg,AMSA16.jpg,AMNE06.jpg,AMSA06.jpg,AMNE06.jpg,MN,1,num_2,16,num_2,1.10014179919,,,2017_Oct_12_1134,60.0097585133,FEMA4ImagesEEG,001,101639,
AFNE01.JPG,AFNE01.JPG,AFNE01.JPG,AFNE01.JPG,AFNE01.JPG,AFNE01.JPG,,,,,1,2,12,3,,,,,,,,,,,,,,,,,,,AMSA20.jpg,AMNE19.jpg,AMNE18.jpg,AMSA07.jpg,AMNE19.jpg,MN,1,num_6,16,num_6,0.916828560294,,,2017_Oct_12_1134,60.0097585133,FEMA4ImagesEEG,001,101639,
AFNE01.JPG,AFNE01.JPG,AFNE01.JPG,AFNE01.JPG,AFNE01.JPG,AFNE01.JPG,,,,,1,3,13,1,,,,,,,,,,,,,,,,,,,AMNE08.jpg,AMNE06.jpg,AMSA03.jpg,AMSA06.jpg,AMSA03.jpg,MS,2,num_2,16,num_2,1.23346737062,,,2017_Oct_12_1134,60.0097585133,FEMA4ImagesEEG,001,101639,
AFNE01.JPG,AFNE01.JPG,AFNE01.JPG,AFNE01.JPG,AFNE01.JPG,AFNE01.JPG,,,,,1,4,14,6,,,,,,,,,,,,,,,,,,,AMSA19.jpg,AMSA08.jpg,AMNE15.jpg,AMNE08.jpg,AMNE08.jpg,MN,1,num_4,16,num_4,0.716829779092,,,2017_Oct_12_1134,60.0097585133,FEMA4ImagesEEG,001,101639,
AFNE01.JPG,AFNE01.JPG,AFNE01.JPG,AFNE01.JPG,AFNE01.JPG,AFNE01.JPG,,,,,1,5,15,8,,,,,,,,,,,,,,,,,,,AMSA20.jpg,AMNE08.jpg,AMSA09.jpg,AMNE03.jpg,AMSA09.jpg,MS,2,num_2,16,num_2,0.583389382693,,,2017_Oct_12_1134,60.0097585133,FEMA4ImagesEEG,001,101639,
AFNE01.JPG,AFNE01.JPG,AFNE01.JPG,AFNE01.JPG,AFNE01.JPG,AFNE01.JPG,,,,,1,6,16,7,,,,,,,,,,,,,,,,,,,AMNE06.jpg,AMSA03.jpg,AMSA15.jpg,AMNE02.jpg,AMSA03.jpg,MS,2,num_6,16,num_6,0.91675735591,,,2017_Oct_12_1134,60.0097585133,FEMA4ImagesEEG,001,101639,
AFNE01.JPG,AFNE01.JPG,AFNE01.JPG,AFNE01.JPG,AFNE01.JPG,AFNE01.JPG,,,,,1,7,17,0,,,,,,,,,,,,,,,,,,,AMNE02.jpg,AMNE16.jpg,AMSA11.jpg,AMSA07.jpg,AMNE16.jpg,MN,1,num_6,16,num_6,1.16664950701,,,2017_Oct_12_1134,60.0097585133,FEMA4ImagesEEG,001,101639,
AFNE01.JPG,AFNE01.JPG,AFNE01.JPG,AFNE01.JPG,AFNE01.JPG,AFNE01.JPG,,,,,1,8,18,4,,,,,,,,,,,,,,,,,,,AMNE15.jpg,AMSA20.jpg,AMSA01.jpg,AMNE13.jpg,AMSA20.jpg,MS,2,num_6,16,num_6,0.550168404588,,,2017_Oct_12_1134,60.0097585133,FEMA4ImagesEEG,001,101639,
AFNE01.JPG,AFNE01.JPG,AFNE01.JPG,AFNE01.JPG,AFNE01.JPG,AFNE01.JPG,,,,,1,9,19,5,,,,,,,,,,,,,,,,,,,AMNE03.jpg,AMSA02.jpg,AMSA17.jpg,AMNE09.jpg,AMSA02.jpg,MS,2,num_6,16,num_6,2.18338412256,,,2017_Oct_12_1134,60.0097585133,FEMA4ImagesEEG,001,101639,
AFNE01.JPG,AFNE01.JPG,AFNE01.JPG,AFNE01.JPG,AFNE01.JPG,AFNE01.JPG,,,,,2,0,20,7,,,,,,,,,,,,,,,,,,,AMNE09.jpg,AMNE07.jpg,AMSA19.jpg,AMSA17.jpg,AMSA19.jpg,MS,2,num_2,32,num_6,1.06678322365,,,2017_Oct_12_1134,60.0097585133,FEMA4ImagesEEG,001,101639,
AFNE01.JPG,AFNE01.JPG,AFNE01.JPG,AFNE01.JPG,AFNE01.JPG,AFNE01.JPG,,,,,2,1,21,4,,,,,,,,,,,,,,,,,,,AMSA15.jpg,AMNE20.jpg,AMNE09.jpg,AMSA12.jpg,AMNE20.jpg,MN,1,num_6,32,num_8,1.76672379044,,,2017_Oct_12_1134,60.0097585133,FEMA4ImagesEEG,001,101639,
AFNE01.JPG,AFNE01.JPG,AFNE01.JPG,AFNE01.JPG,AFNE01.JPG,AFNE01.JPG,,,,,2,2,22,8,,,,,,,,,,,,,,,,,,,AMSA04.jpg,AMNE02.jpg,AMSA08.jpg,AMNE05.jpg,AMSA08.jpg,MS,2,num_2,16,num_2,0.749843879719,,,2017_Oct_12_1134,60.0097585133,FEMA4ImagesEEG,001,101639,
AFNE01.JPG,AFNE01.JPG,AFNE01.JPG,AFNE01.JPG,AFNE01.JPG,AFNE01.JPG,,,,,2,3,23,9,,,,,,,,,,,,,,,,,,,AMNE18.jpg,AMSA05.jpg,AMSA14.jpg,AMNE12.jpg,AMNE18.jpg,MN,1,num_8,16,num_8,1.11678436224,,,2017_Oct_12_1134,60.0097585133,FEMA4ImagesEEG,001,101639,
AFNE01.JPG,AFNE01.JPG,AFNE01.JPG,AFNE01.JPG,AFNE01.JPG,AFNE01.JPG,,,,,2,4,24,1,,,,,,,,,,,,,,,,,,,AMNE19.jpg,AMNE15.jpg,AMSA14.jpg,AMSA03.jpg,AMNE15.jpg,MN,1,num_6,16,num_6,0.499986368581,,,2017_Oct_12_1134,60.0097585133,FEMA4ImagesEEG,001,101639,
AFNE01.JPG,AFNE01.JPG,AFNE01.JPG,AFNE01.JPG,AFNE01.JPG,AFNE01.JPG,,,,,2,5,25,2,,,,,,,,,,,,,,,,,,,AMNE09.jpg,AMNE20.jpg,AMSA08.jpg,AMSA14.jpg,AMSA14.jpg,MS,2,num_4,16,num_4,0.866639147163,,,2017_Oct_12_1134,60.0097585133,FEMA4ImagesEEG,001,101639,
AFNE01.JPG,AFNE01.JPG,AFNE01.JPG,AFNE01.JPG,AFNE01.JPG,AFNE01.JPG,,,,,2,6,26,0,,,,,,,,,,,,,,,,,,,AMSA15.jpg,AMSA12.jpg,AMNE14.jpg,AMNE06.jpg,AMNE06.jpg,MN,1,num_4,32,num_8,0.800185323693,,,2017_Oct_12_1134,60.0097585133,FEMA4ImagesEEG,001,101639,
AFNE01.JPG,AFNE01.JPG,AFNE01.JPG,AFNE01.JPG,AFNE01.JPG,AFNE01.JPG,,,,,2,7,27,5,,,,,,,,,,,,,,,,,,,AMSA20.jpg,AMSA09.jpg,AMNE17.jpg,AMNE08.jpg,AMNE08.jpg,MN,1,num_4,16,num_4,1.06675211189,,,2017_Oct_12_1134,60.0097585133,FEMA4ImagesEEG,001,101639,
AFNE01.JPG,AFNE01.JPG,AFNE01.JPG,AFNE01.JPG,AFNE01.JPG,AFNE01.JPG,,,,,2,8,28,3,,,,,,,,,,,,,,,,,,,AMSA05.jpg,AMNE01.jpg,AMNE18.jpg,AMSA06.jpg,AMNE01.jpg,MN,1,num_6,16,num_6,0.450115450425,,,2017_Oct_12_1134,60.0097585133,FEMA4ImagesEEG,001,101639,
AFNE01.JPG,AFNE01.JPG,AFNE01.JPG,AFNE01.JPG,AFNE01.JPG,AFNE01.JPG,,,,,2,9,29,6,,,,,,,,,,,,,,,,,,,AMSA18.jpg,AMNE07.jpg,AMSA11.jpg,AMNE09.jpg,AMSA18.jpg,MS,2,num_8,16,num_8,0.900101321749,,,2017_Oct_12_1134,60.0097585133,FEMA4ImagesEEG,001,101639,
AFNE01.JPG,AFNE01.JPG,AFNE01.JPG,AFNE01.JPG,AFNE01.JPG,AFNE01.JPG,,,,,3,0,30,0,,,,,,,,,,,,,,,,,,,AMNE18.jpg,AMNE13.jpg,AMSA08.jpg,AMSA06.jpg,AMSA06.jpg,MS,2,num_4,32,num_8,0.900131471455,,,2017_Oct_12_1134,60.0097585133,FEMA4ImagesEEG,001,101639,
AFNE01.JPG,AFNE01.JPG,AFNE01.JPG,AFNE01.JPG,AFNE01.JPG,AFNE01.JPG,,,,,3,1,31,3,,,,,,,,,,,,,,,,,,,AMSA08.jpg,AMNE19.jpg,AMNE07.jpg,AMSA09.jpg,AMSA09.jpg,MS,2,num_4,32,num_8,0.716840042733,,,2017_Oct_12_1134,60.0097585133,FEMA4ImagesEEG,001,101639,
AFNE01.JPG,AFNE01.JPG,AFNE01.JPG,AFNE01.JPG,AFNE01.JPG,AFNE01.JPG,,,,,3,2,32,2,,,,,,,,,,,,,,,,,,,AMNE15.jpg,AMSA20.jpg,AMSA16.jpg,AMNE04.jpg,AMNE15.jpg,MN,1,num_8,16,num_8,0.633511761087,,,2017_Oct_12_1134,60.0097585133,FEMA4ImagesEEG,001,101639,
AFNE01.JPG,AFNE01.JPG,AFNE01.JPG,AFNE01.JPG,AFNE01.JPG,AFNE01.JPG,,,,,3,3,33,5,,,,,,,,,,,,,,,,,,,AMSA12.jpg,AMSA20.jpg,AMNE05.jpg,AMNE06.jpg,AMSA20.jpg,MS,2,num_6,16,num_6,1.1167461942,,,2017_Oct_12_1134,60.0097585133,FEMA4ImagesEEG,001,101639,
AFNE01.JPG,AFNE01.JPG,AFNE01.JPG,AFNE01.JPG,AFNE01.JPG,AFNE01.JPG,,,,,3,4,34,7,,,,,,,,,,,,,,,,,,,AMNE17.jpg,AMSA13.jpg,AMSA17.jpg,AMNE08.jpg,AMSA17.jpg,MS,2,num_2,32,num_6,0.966802756651,,,2017_Oct_12_1134,60.0097585133,FEMA4ImagesEEG,001,101639,
AFNE01.JPG,AFNE01.JPG,AFNE01.JPG,AFNE01.JPG,AFNE01.JPG,AFNE01.JPG,,,,,3,5,35,4,,,,,,,,,,,,,,,,,,,AMNE06.jpg,AMNE19.jpg,AMSA17.jpg,AMSA04.jpg,AMSA04.jpg,MS,2,num_4,16,num_4,0.816693496541,,,2017_Oct_12_1134,60.0097585133,FEMA4ImagesEEG,001,101639,
AFNE01.JPG,AFNE01.JPG,AFNE01.JPG,AFNE01.JPG,AFNE01.JPG,AFNE01.JPG,,,,,3,6,36,6,,,,,,,,,,,,,,,,,,,AMNE12.jpg,AMSA14.jpg,AMNE01.jpg,AMSA12.jpg,AMSA12.jpg,MS,2,num_4,16,num_4,1.83343067789,,,2017_Oct_12_1134,60.0097585133,FEMA4ImagesEEG,001,101639,
AFNE01.JPG,AFNE01.JPG,AFNE01.JPG,AFNE01.JPG,AFNE01.JPG,AFNE01.JPG,,,,,3,7,37,9,,,,,,,,,,,,,,,,,,,AMNE16.jpg,AMSA01.jpg,AMSA11.jpg,AMNE13.jpg,AMNE16.jpg,MN,1,num_8,32,num_4,1.43342060666,,,2017_Oct_12_1134,60.0097585133,FEMA4ImagesEEG,001,101639,
AFNE01.JPG,AFNE01.JPG,AFNE01.JPG,AFNE01.JPG,AFNE01.JPG,AFNE01.JPG,,,,,3,8,38,8,,,,,,,,,,,,,,,,,,,AMNE02.jpg,AMSA01.jpg,AMSA10.jpg,AMNE09.jpg,AMNE09.jpg,MN,1,num_4,16,num_4,0.816762455739,,,2017_Oct_12_1134,60.0097585133,FEMA4ImagesEEG,001,101639,
AFNE01.JPG,AFNE01.JPG,AFNE01.JPG,AFNE01.JPG,AFNE01.JPG,AFNE01.JPG,,,,,3,9,39,1,,,,,,,,,,,,,,,,,,,AMNE15.jpg,AMNE12.jpg,AMSA08.jpg,AMSA01.jpg,AMNE12.jpg,MN,1,num_6,16,num_6,0.766854010988,,,2017_Oct_12_1134,60.0097585133,FEMA4ImagesEEG,001,101639,
AFNE01.JPG,AFNE01.JPG,AFNE01.JPG,AFNE01.JPG,AFNE01.JPG,AFNE01.JPG,,,,,4,0,40,1,,,,,,,,,,,,,,,,,,,AMNE08.jpg,AMNE19.jpg,AMSA13.jpg,AMSA10.jpg,AMNE08.jpg,MN,1,num_8,16,num_8,0.816789077129,,,2017_Oct_12_1134,60.0097585133,FEMA4ImagesEEG,001,101639,
AFNE01.JPG,AFNE01.JPG,AFNE01.JPG,AFNE01.JPG,AFNE01.JPG,AFNE01.JPG,,,,,4,1,41,9,,,,,,,,,,,,,,,,,,,AMSA20.jpg,AMNE06.jpg,AMNE20.jpg,AMSA17.jpg,AMSA17.jpg,MS,2,num_4,32,num_2,1.16659947159,,,2017_Oct_12_1134,60.0097585133,FEMA4ImagesEEG,001,101639,
AFNE01.JPG,AFNE01.JPG,AFNE01.JPG,AFNE01.JPG,AFNE01.JPG,AFNE01.JPG,,,,,4,2,42,4,,,,,,,,,,,,,,,,,,,AMNE09.jpg,AMSA09.jpg,AMSA19.jpg,AMNE10.jpg,AMSA19.jpg,MS,2,num_2,16,num_2,1.25010287738,,,2017_Oct_12_1134,60.0097585133,FEMA4ImagesEEG,001,101639,
AFNE01.JPG,AFNE01.JPG,AFNE01.JPG,AFNE01.JPG,AFNE01.JPG,AFNE01.JPG,,,,,4,3,43,6,,,,,,,,,,,,,,,,,,,AMSA11.jpg,AMNE02.jpg,AMNE01.jpg,AMSA18.jpg,AMSA11.jpg,MS,2,num_8,32,num_6,1.00014850264,,,2017_Oct_12_1134,60.0097585133,FEMA4ImagesEEG,001,101639,
AFNE01.JPG,AFNE01.JPG,AFNE01.JPG,AFNE01.JPG,AFNE01.JPG,AFNE01.JPG,,,,,4,4,44,7,,,,,,,,,,,,,,,,,,,AMNE07.jpg,AMSA08.jpg,AMSA05.jpg,AMNE09.jpg,AMSA05.jpg,MS,2,num_2,32,num_4,0.816765021649,,,2017_Oct_12_1134,60.0097585133,FEMA4ImagesEEG,001,101639,
AFNE01.JPG,AFNE01.JPG,AFNE01.JPG,AFNE01.JPG,AFNE01.JPG,AFNE01.JPG,,,,,4,5,45,5,,,,,,,,,,,,,,,,,,,AMNE09.jpg,AMSA15.jpg,AMNE15.jpg,AMSA12.jpg,AMSA15.jpg,MS,2,num_6,32,num_8,0.83346563857,,,2017_Oct_12_1134,60.0097585133,FEMA4ImagesEEG,001,101639,
AFNE01.JPG,AFNE01.JPG,AFNE01.JPG,AFNE01.JPG,AFNE01.JPG,AFNE01.JPG,,,,,4,6,46,8,,,,,,,,,,,,,,,,,,,AMSA03.jpg,AMNE04.jpg,AMNE06.jpg,AMSA15.jpg,AMNE04.jpg,MN,1,num_6,32,num_2,1.11676832533,,,2017_Oct_12_1134,60.0097585133,FEMA4ImagesEEG,001,101639,
AFNE01.JPG,AFNE01.JPG,AFNE01.JPG,AFNE01.JPG,AFNE01.JPG,AFNE01.JPG,,,,,4,7,47,3,,,,,,,,,,,,,,,,,,,AMSA14.jpg,AMNE03.jpg,AMSA12.jpg,AMNE05.jpg,AMSA14.jpg,MS,2,num_8,16,num_8,0.8502050651,,,2017_Oct_12_1134,60.0097585133,FEMA4ImagesEEG,001,101639,
AFNE01.JPG,AFNE01.JPG,AFNE01.JPG,AFNE01.JPG,AFNE01.JPG,AFNE01.JPG,,,,,4,8,48,2,,,,,,,,,,,,,,,,,,,AMNE04.jpg,AMNE20.jpg,AMSA02.jpg,AMSA14.jpg,AMNE20.jpg,MN,1,num_6,16,num_6,1.03343972273,,,2017_Oct_12_1134,60.0097585133,FEMA4ImagesEEG,001,101639,
AFNE01.JPG,AFNE01.JPG,AFNE01.JPG,AFNE01.JPG,AFNE01.JPG,AFNE01.JPG,,,,,4,9,49,0,,,,,,,,,,,,,,,,,,,AMSA20.jpg,AMNE09.jpg,AMNE11.jpg,AMSA01.jpg,AMSA01.jpg,MS,2,num_4,16,num_4,0.7002122337,,,2017_Oct_12_1134,60.0097585133,FEMA4ImagesEEG,001,101639,
AFNE01.JPG,AFNE01.JPG,AFNE01.JPG,AFNE01.JPG,AFNE01.JPG,AFNE01.JPG,,,,,5,0,50,5,,,,,,,,,,,,,,,,,,,AMNE05.jpg,AMSA10.jpg,AMNE14.jpg,AMSA18.jpg,AMSA18.jpg,MS,2,num_4,16,num_4,0.750132225105,,,2017_Oct_12_1134,60.0097585133,FEMA4ImagesEEG,001,101639,
AFNE01.JPG,AFNE01.JPG,AFNE01.JPG,AFNE01.JPG,AFNE01.JPG,AFNE01.JPG,,,,,5,1,51,9,,,,,,,,,,,,,,,,,,,AMSA17.jpg,AMSA07.jpg,AMNE02.jpg,AMNE12.jpg,AMNE12.jpg,MN,1,num_4,32,num_6,1.28351694101,,,2017_Oct_12_1134,60.0097585133,FEMA4ImagesEEG,001,101639,
AFNE01.JPG,AFNE01.JPG,AFNE01.JPG,AFNE01.JPG,AFNE01.JPG,AFNE01.JPG,,,,,5,2,52,8,,,,,,,,,,,,,,,,,,,AMNE17.jpg,AMSA12.jpg,AMNE05.jpg,AMSA10.jpg,AMSA10.jpg,MS,2,num_4,16,num_4,1.53346169356,,,2017_Oct_12_1134,60.0097585133,FEMA4ImagesEEG,001,101639,
AFNE01.JPG,AFNE01.JPG,AFNE01.JPG,AFNE01.JPG,AFNE01.JPG,AFNE01.JPG,,,,,5,3,53,4,,,,,,,,,,,,,,,,,,,AMNE14.jpg,AMNE05.jpg,AMSA19.jpg,AMSA17.jpg,AMSA17.jpg,MS,2,num_4,32,num_8,0.883492757217,,,2017_Oct_12_1134,60.0097585133,FEMA4ImagesEEG,001,101639,
AFNE01.JPG,AFNE01.JPG,AFNE01.JPG,AFNE01.JPG,AFNE01.JPG,AFNE01.JPG,,,,,5,4,54,0,,,,,,,,,,,,,,,,,,,AMNE17.jpg,AMSA20.jpg,AMNE09.jpg,AMSA17.jpg,AMSA20.jpg,MS,2,num_6,16,num_6,0.666807792266,,,2017_Oct_12_1134,60.0097585133,FEMA4ImagesEEG,001,101639,
AFNE01.JPG,AFNE01.JPG,AFNE01.JPG,AFNE01.JPG,AFNE01.JPG,AFNE01.JPG,,,,,5,5,55,2,,,,,,,,,,,,,,,,,,,AMNE09.jpg,AMSA02.jpg,AMNE07.jpg,AMSA18.jpg,AMSA02.jpg,MS,2,num_6,32,num_4,1.01683821448,,,2017_Oct_12_1134,60.0097585133,FEMA4ImagesEEG,001,101639,
AFNE01.JPG,AFNE01.JPG,AFNE01.JPG,AFNE01.JPG,AFNE01.JPG,AFNE01.JPG,,,,,5,6,56,7,,,,,,,,,,,,,,,,,,,AMSA17.jpg,AMNE17.jpg,AMSA20.jpg,AMNE09.jpg,AMNE17.jpg,MN,1,num_6,16,num_6,0.800446726847,,,2017_Oct_12_1134,60.0097585133,FEMA4ImagesEEG,001,101639,
AFNE01.JPG,AFNE01.JPG,AFNE01.JPG,AFNE01.JPG,AFNE01.JPG,AFNE01.JPG,,,,,5,7,57,1,,,,,,,,,,,,,,,,,,,AMSA18.jpg,AMSA16.jpg,AMNE01.jpg,AMNE04.jpg,AMSA18.jpg,MS,2,num_8,16,num_8,1.21681037429,,,2017_Oct_12_1134,60.0097585133,FEMA4ImagesEEG,001,101639,
AFNE01.JPG,AFNE01.JPG,AFNE01.JPG,AFNE01.JPG,AFNE01.JPG,AFNE01.JPG,,,,,5,8,58,3,,,,,,,,,,,,,,,,,,,AMNE12.jpg,AMSA09.jpg,AMSA20.jpg,AMNE08.jpg,AMNE12.jpg,MN,1,num_8,32,num_4,0.666846922715,,,2017_Oct_12_1134,60.0097585133,FEMA4ImagesEEG,001,101639,
AFNE01.JPG,AFNE01.JPG,AFNE01.JPG,AFNE01.JPG,AFNE01.JPG,AFNE01.JPG,,,,,5,9,59,6,,,,,,,,,,,,,,,,,,,AMNE18.jpg,AMSA07.jpg,AMNE17.jpg,AMSA10.jpg,AMSA07.jpg,MS,2,num_6,16,num_6,0.700233723386,,,2017_Oct_12_1134,60.0097585133,FEMA4ImagesEEG,001,101639,
,,,,,,,,,,,,,,,,,,,,,,,,,,,,,,,,,,,,,,,,,,,space,17.7322025319,2017_Oct_12_1134,60.0097585133,FEMA4ImagesEEG,001,101639,
AFNE01.JPG,AFNE01.JPG,AFNE01.JPG,AFNE01.JPG,AFNE01.JPG,AFNE01.JPG,,,,,,,,,0,0,0,3,,,,,,,,,,,,,,,AFNE20.jpg,AFSA16.jpg,AFNE15.jpg,AFSA07.jpg,AFSA07.jpg,FS,4,num_4,32,num_8,2.84997669829,,,2017_Oct_12_1134,60.0097585133,FEMA4ImagesEEG,001,101639,
AFNE01.JPG,AFNE01.JPG,AFNE01.JPG,AFNE01.JPG,AFNE01.JPG,AFNE01.JPG,,,,,,,,,0,1,1,6,,,,,,,,,,,,,,,AFNE03.jpg,AFNE07.jpg,AFSA13.jpg,AFSA05.jpg,AFNE03.jpg,FN,3,num_8,32,num_4,0.933474651421,,,2017_Oct_12_1134,60.0097585133,FEMA4ImagesEEG,001,101639,
AFNE01.JPG,AFNE01.JPG,AFNE01.JPG,AFNE01.JPG,AFNE01.JPG,AFNE01.JPG,,,,,,,,,0,2,2,7,,,,,,,,,,,,,,,AFNE11.jpg,AFNE15.jpg,AFSA15.jpg,AFSA17.jpg,AFNE11.jpg,FN,3,num_8,16,num_8,0.816731343861,,,2017_Oct_12_1134,60.0097585133,FEMA4ImagesEEG,001,101639,
AFNE01.JPG,AFNE01.JPG,AFNE01.JPG,AFNE01.JPG,AFNE01.JPG,AFNE01.JPG,,,,,,,,,0,3,3,4,,,,,,,,,,,,,,,AFSA01.jpg,AFNE08.jpg,AFNE02.jpg,AFSA03.jpg,AFNE08.jpg,FN,3,num_6,16,num_6,0.816795171122,,,2017_Oct_12_1134,60.0097585133,FEMA4ImagesEEG,001,101639,
AFNE01.JPG,AFNE01.JPG,AFNE01.JPG,AFNE01.JPG,AFNE01.JPG,AFNE01.JPG,,,,,,,,,0,4,4,2,,,,,,,,,,,,,,,AFSA12.jpg,AFNE18.jpg,AFNE06.jpg,AFSA17.jpg,AFNE18.jpg,FN,3,num_6,32,num_2,0.766812635469,,,2017_Oct_12_1134,60.0097585133,FEMA4ImagesEEG,001,101639,
AFNE01.JPG,AFNE01.JPG,AFNE01.JPG,AFNE01.JPG,AFNE01.JPG,AFNE01.JPG,,,,,,,,,0,5,5,8,,,,,,,,,,,,,,,AFNE03.jpg,AFNE19.jpg,AFSA08.jpg,AFSA18.jpg,AFSA08.jpg,FS,4,num_2,16,num_2,1.05019743158,,,2017_Oct_12_1134,60.0097585133,FEMA4ImagesEEG,001,101639,
AFNE01.JPG,AFNE01.JPG,AFNE01.JPG,AFNE01.JPG,AFNE01.JPG,AFNE01.JPG,,,,,,,,,0,6,6,5,,,,,,,,,,,,,,,AFNE20.jpg,AFNE16.jpg,AFSA19.jpg,AFSA09.jpg,AFNE16.jpg,FN,3,num_6,32,num_8,0.816754757892,,,2017_Oct_12_1134,60.0097585133,FEMA4ImagesEEG,001,101639,
AFNE01.JPG,AFNE01.JPG,AFNE01.JPG,AFNE01.JPG,AFNE01.JPG,AFNE01.JPG,,,,,,,,,0,7,7,1,,,,,,,,,,,,,,,AFNE05.jpg,AFSA08.jpg,AFSA14.jpg,AFNE19.jpg,AFSA14.jpg,FS,4,num_2,32,num_6,1.13346605562,,,2017_Oct_12_1134,60.0097585133,FEMA4ImagesEEG,001,101639,
AFNE01.JPG,AFNE01.JPG,AFNE01.JPG,AFNE01.JPG,AFNE01.JPG,AFNE01.JPG,,,,,,,,,0,8,8,0,,,,,,,,,,,,,,,AFNE10.jpg,AFSA13.jpg,AFSA18.jpg,AFNE06.jpg,AFNE06.jpg,FN,3,num_4,16,num_4,1.1501224105,,,2017_Oct_12_1134,60.0097585133,FEMA4ImagesEEG,001,101639,
AFNE01.JPG,AFNE01.JPG,AFNE01.JPG,AFNE01.JPG,AFNE01.JPG,AFNE01.JPG,,,,,,,,,0,9,9,9,,,,,,,,,,,,,,,AFNE09.jpg,AFSA13.jpg,AFSA19.jpg,AFNE08.jpg,AFNE09.jpg,FN,3,num_8,16,num_8,1.34998744295,,,2017_Oct_12_1134,60.0097585133,FEMA4ImagesEEG,001,101639,
AFNE01.JPG,AFNE01.JPG,AFNE01.JPG,AFNE01.JPG,AFNE01.JPG,AFNE01.JPG,,,,,,,,,1,0,10,3,,,,,,,,,,,,,,,AFSA19.jpg,AFNE09.jpg,AFSA10.jpg,AFNE16.jpg,AFNE16.jpg,FN,3,num_4,32,num_6,0.933421087801,,,2017_Oct_12_1134,60.0097585133,FEMA4ImagesEEG,001,101639,
AFNE01.JPG,AFNE01.JPG,AFNE01.JPG,AFNE01.JPG,AFNE01.JPG,AFNE01.JPG,,,,,,,,,1,1,11,8,,,,,,,,,,,,,,,AFSA13.jpg,AFNE08.jpg,AFSA04.jpg,AFNE10.jpg,AFSA13.jpg,FS,4,num_8,16,num_8,0.83348712814,,,2017_Oct_12_1134,60.0097585133,FEMA4ImagesEEG,001,101639,
AFNE01.JPG,AFNE01.JPG,AFNE01.JPG,AFNE01.JPG,AFNE01.JPG,AFNE01.JPG,,,,,,,,,1,2,12,7,,,,,,,,,,,,,,,AFSA10.jpg,AFNE07.jpg,AFSA19.jpg,AFNE15.jpg,AFNE15.jpg,FN,3,num_4,16,num_4,0.650190567714,,,2017_Oct_12_1134,60.0097585133,FEMA4ImagesEEG,001,101639,
AFNE01.JPG,AFNE01.JPG,AFNE01.JPG,AFNE01.JPG,AFNE01.JPG,AFNE01.JPG,,,,,,,,,1,3,13,6,,,,,,,,,,,,,,,AFNE09.jpg,AFSA13.jpg,AFNE11.jpg,AFSA04.jpg,AFSA04.jpg,FS,4,num_4,32,num_8,0.866831912077,,,2017_Oct_12_1134,60.0097585133,FEMA4ImagesEEG,001,101639,
AFNE01.JPG,AFNE01.JPG,AFNE01.JPG,AFNE01.JPG,AFNE01.JPG,AFNE01.JPG,,,,,,,,,1,4,14,9,,,,,,,,,,,,,,,AFSA17.jpg,AFSA12.jpg,AFNE20.jpg,AFNE02.jpg,AFSA12.jpg,FS,4,num_6,32,num_8,1.15008584608,,,2017_Oct_12_1134,60.0097585133,FEMA4ImagesEEG,001,101639,
AFNE01.JPG,AFNE01.JPG,AFNE01.JPG,AFNE01.JPG,AFNE01.JPG,AFNE01.JPG,,,,,,,,,1,5,15,2,,,,,,,,,,,,,,,AFNE03.jpg,AFSA17.jpg,AFSA01.jpg,AFNE16.jpg,AFSA17.jpg,FS,4,num_6,16,num_6,0.783429218689,,,2017_Oct_12_1134,60.0097585133,FEMA4ImagesEEG,001,101639,
AFNE01.JPG,AFNE01.JPG,AFNE01.JPG,AFNE01.JPG,AFNE01.JPG,AFNE01.JPG,,,,,,,,,1,6,16,1,,,,,,,,,,,,,,,AFNE06.jpg,AFSA15.jpg,AFNE04.jpg,AFSA05.jpg,AFSA05.jpg,FS,4,num_4,16,num_4,0.733512755367,,,2017_Oct_12_1134,60.0097585133,FEMA4ImagesEEG,001,101639,
AFNE01.JPG,AFNE01.JPG,AFNE01.JPG,AFNE01.JPG,AFNE01.JPG,AFNE01.JPG,,,,,,,,,1,7,17,5,,,,,,,,,,,,,,,AFNE15.jpg,AFNE09.jpg,AFSA18.jpg,AFSA16.jpg,AFSA18.jpg,FS,4,num_2,16,num_2,0.916809315793,,,2017_Oct_12_1134,60.0097585133,FEMA4ImagesEEG,001,101639,
AFNE01.JPG,AFNE01.JPG,AFNE01.JPG,AFNE01.JPG,AFNE01.JPG,AFNE01.JPG,,,,,,,,,1,8,18,4,,,,,,,,,,,,,,,AFSA05.jpg,AFNE05.jpg,AFSA04.jpg,AFNE14.jpg,AFNE14.jpg,FN,3,num_4,32,num_2,1.23343176849,,,2017_Oct_12_1134,60.0097585133,FEMA4ImagesEEG,001,101639,
AFNE01.JPG,AFNE01.JPG,AFNE01.JPG,AFNE01.JPG,AFNE01.JPG,AFNE01.JPG,,,,,,,,,1,9,19,0,,,,,,,,,,,,,,,AFSA19.jpg,AFNE01.jpg,AFSA16.jpg,AFNE15.jpg,AFSA16.jpg,FS,4,num_2,16,num_2,0.849984075292,,,2017_Oct_12_1134,60.0097585133,FEMA4ImagesEEG,001,101639,
AFNE01.JPG,AFNE01.JPG,AFNE01.JPG,AFNE01.JPG,AFNE01.JPG,AFNE01.JPG,,,,,,,,,2,0,20,5,,,,,,,,,,,,,,,AFSA13.jpg,AFNE18.jpg,AFSA16.jpg,AFNE01.jpg,AFNE01.jpg,FN,3,num_4,32,num_8,0.983448527171,,,2017_Oct_12_1134,60.0097585133,FEMA4ImagesEEG,001,101639,
AFNE01.JPG,AFNE01.JPG,AFNE01.JPG,AFNE01.JPG,AFNE01.JPG,AFNE01.JPG,,,,,,,,,2,1,21,7,,,,,,,,,,,,,,,AFSA19.jpg,AFSA15.jpg,AFNE01.jpg,AFNE06.jpg,AFNE01.jpg,FN,3,num_2,32,num_8,1.0834344466,,,2017_Oct_12_1134,60.0097585133,FEMA4ImagesEEG,001,101639,
AFNE01.JPG,AFNE01.JPG,AFNE01.JPG,AFNE01.JPG,AFNE01.JPG,AFNE01.JPG,,,,,,,,,2,2,22,8,,,,,,,,,,,,,,,AFSA01.jpg,AFSA02.jpg,AFNE10.jpg,AFNE02.jpg,AFSA01.jpg,FS,4,num_8,32,num_6,0.866797592724,,,2017_Oct_12_1134,60.0097585133,FEMA4ImagesEEG,001,101639,
AFNE01.JPG,AFNE01.JPG,AFNE01.JPG,AFNE01.JPG,AFNE01.JPG,AFNE01.JPG,,,,,,,,,2,3,23,0,,,,,,,,,,,,,,,AFSA07.jpg,AFNE13.jpg,AFNE14.jpg,AFSA18.jpg,AFNE13.jpg,FN,3,num_6,32,num_8,0.816787794116,,,2017_Oct_12_1134,60.0097585133,FEMA4ImagesEEG,001,101639,
AFNE01.JPG,AFNE01.JPG,AFNE01.JPG,AFNE01.JPG,AFNE01.JPG,AFNE01.JPG,,,,,,,,,2,4,24,6,,,,,,,,,,,,,,,AFSA09.jpg,AFNE11.jpg,AFSA11.jpg,AFNE02.jpg,AFSA09.jpg,FS,4,num_8,16,num_8,0.900153602473,,,2017_Oct_12_1134,60.0097585133,FEMA4ImagesEEG,001,101639,
AFNE01.JPG,AFNE01.JPG,AFNE01.JPG,AFNE01.JPG,AFNE01.JPG,AFNE01.JPG,,,,,,,,,2,5,25,9,,,,,,,,,,,,,,,AFSA18.jpg,AFSA02.jpg,AFNE09.jpg,AFNE12.jpg,AFNE09.jpg,FN,3,num_2,16,num_2,1.38340599695,,,2017_Oct_12_1134,60.0097585133,FEMA4ImagesEEG,001,101639,
AFNE01.JPG,AFNE01.JPG,AFNE01.JPG,AFNE01.JPG,AFNE01.JPG,AFNE01.JPG,,,,,,,,,2,6,26,2,,,,,,,,,,,,,,,AFNE13.jpg,AFNE04.jpg,AFSA13.jpg,AFSA06.jpg,AFSA13.jpg,FS,4,num_2,16,num_2,0.733531037578,,,2017_Oct_12_1134,60.0097585133,FEMA4ImagesEEG,001,101639,
AFNE01.JPG,AFNE01.JPG,AFNE01.JPG,AFNE01.JPG,AFNE01.JPG,AFNE01.JPG,,,,,,,,,2,7,27,1,,,,,,,,,,,,,,,AFSA06.jpg,AFSA03.jpg,AFNE19.jpg,AFNE17.jpg,AFNE19.jpg,FN,3,num_2,32,num_4,0.833497712621,,,2017_Oct_12_1134,60.0097585133,FEMA4ImagesEEG,001,101639,
AFNE01.JPG,AFNE01.JPG,AFNE01.JPG,AFNE01.JPG,AFNE01.JPG,AFNE01.JPG,,,,,,,,,2,8,28,3,,,,,,,,,,,,,,,AFSA09.jpg,AFNE15.jpg,AFNE08.jpg,AFSA04.jpg,AFNE08.jpg,FN,3,num_2,16,num_2,0.833463393501,,,2017_Oct_12_1134,60.0097585133,FEMA4ImagesEEG,001,101639,
AFNE01.JPG,AFNE01.JPG,AFNE01.JPG,AFNE01.JPG,AFNE01.JPG,AFNE01.JPG,,,,,,,,,2,9,29,4,,,,,,,,,,,,,,,AFNE07.jpg,AFNE17.jpg,AFSA01.jpg,AFSA19.jpg,AFNE07.jpg,FN,3,num_8,32,num_6,0.98351139226,,,2017_Oct_12_1134,60.0097585133,FEMA4ImagesEEG,001,101639,
AFNE01.JPG,AFNE01.JPG,AFNE01.JPG,AFNE01.JPG,AFNE01.JPG,AFNE01.JPG,,,,,,,,,3,0,30,5,,,,,,,,,,,,,,,AFSA16.jpg,AFSA01.jpg,AFNE13.jpg,AFNE14.jpg,AFSA01.jpg,FS,4,num_6,16,num_6,1.36678107467,,,2017_Oct_12_1134,60.0097585133,FEMA4ImagesEEG,001,101639,
AFNE01.JPG,AFNE01.JPG,AFNE01.JPG,AFNE01.JPG,AFNE01.JPG,AFNE01.JPG,,,,,,,,,3,1,31,2,,,,,,,,,,,,,,,AFSA02.jpg,AFNE04.jpg,AFSA05.jpg,AFNE16.jpg,AFSA02.jpg,FS,4,num_8,32,num_2,0.766729884432,,,2017_Oct_12_1134,60.0097585133,FEMA4ImagesEEG,001,101639,
AFNE01.JPG,AFNE01.JPG,AFNE01.JPG,AFNE01.JPG,AFNE01.JPG,AFNE01.JPG,,,,,,,,,3,2,32,1,,,,,,,,,,,,,,,AFSA17.jpg,AFNE20.jpg,AFSA10.jpg,AFNE07.jpg,AFSA17.jpg,FS,4,num_8,16,num_8,0.683509692317,,,2017_Oct_12_1134,60.0097585133,FEMA4ImagesEEG,001,101639,
AFNE01.JPG,AFNE01.JPG,AFNE01.JPG,AFNE01.JPG,AFNE01.JPG,AFNE01.JPG,,,,,,,,,3,3,33,0,,,,,,,,,,,,,,,AFSA01.jpg,AFNE12.jpg,AFNE01.jpg,AFSA16.jpg,AFSA01.jpg,FS,4,num_8,16,num_8,1.51672900247,,,2017_Oct_12_1134,60.0097585133,FEMA4ImagesEEG,001,101639,
AFNE01.JPG,AFNE01.JPG,AFNE01.JPG,AFNE01.JPG,AFNE01.JPG,AFNE01.JPG,,,,,,,,,3,4,34,3,,,,,,,,,,,,,,,AFSA18.jpg,AFNE17.jpg,AFNE09.jpg,AFSA12.jpg,AFNE09.jpg,FN,3,num_2,16,num_2,1.03344068513,,,2017_Oct_12_1134,60.0097585133,FEMA4ImagesEEG,001,101639,
AFNE01.JPG,AFNE01.JPG,AFNE01.JPG,AFNE01.JPG,AFNE01.JPG,AFNE01.JPG,,,,,,,,,3,5,35,8,,,,,,,,,,,,,,,AFNE01.jpg,AFSA04.jpg,AFSA14.jpg,AFNE13.jpg,AFSA14.jpg,FS,4,num_2,32,num_8,0.433516828809,,,2017_Oct_12_1134,60.0097585133,FEMA4ImagesEEG,001,101639,
AFNE01.JPG,AFNE01.JPG,AFNE01.JPG,AFNE01.JPG,AFNE01.JPG,AFNE01.JPG,,,,,,,,,3,6,36,7,,,,,,,,,,,,,,,AFSA02.jpg,AFNE15.jpg,AFNE01.jpg,AFSA20.jpg,AFNE15.jpg,FN,3,num_6,16,num_6,0.56651941489,,,2017_Oct_12_1134,60.0097585133,FEMA4ImagesEEG,001,101639,
AFNE01.JPG,AFNE01.JPG,AFNE01.JPG,AFNE01.JPG,AFNE01.JPG,AFNE01.JPG,,,,,,,,,3,7,37,9,,,,,,,,,,,,,,,AFSA18.jpg,AFNE05.jpg,AFNE01.jpg,AFSA15.jpg,AFNE01.jpg,FN,3,num_2,32,num_8,0.966757211601,,,2017_Oct_12_1134,60.0097585133,FEMA4ImagesEEG,001,101639,
AFNE01.JPG,AFNE01.JPG,AFNE01.JPG,AFNE01.JPG,AFNE01.JPG,AFNE01.JPG,,,,,,,,,3,8,38,6,,,,,,,,,,,,,,,AFNE11.jpg,AFNE03.jpg,AFSA09.jpg,AFSA13.jpg,AFNE11.jpg,FN,3,num_8,32,num_4,1.31675812567,,,2017_Oct_12_1134,60.0097585133,FEMA4ImagesEEG,001,101639,
AFNE01.JPG,AFNE01.JPG,AFNE01.JPG,AFNE01.JPG,AFNE01.JPG,AFNE01.JPG,,,,,,,,,3,9,39,4,,,,,,,,,,,,,,,AFSA16.jpg,AFNE07.jpg,AFSA13.jpg,AFNE03.jpg,AFSA13.jpg,FS,4,num_2,32,num_8,1.56674617808,,,2017_Oct_12_1134,60.0097585133,FEMA4ImagesEEG,001,101639,
AFNE01.JPG,AFNE01.JPG,AFNE01.JPG,AFNE01.JPG,AFNE01.JPG,AFNE01.JPG,,,,,,,,,4,0,40,7,,,,,,,,,,,,,,,AFNE02.jpg,AFSA02.jpg,AFSA08.jpg,AFNE20.jpg,AFNE02.jpg,FN,3,num_8,32,num_6,1.10015494958,,,2017_Oct_12_1134,60.0097585133,FEMA4ImagesEEG,001,101639,
AFNE01.JPG,AFNE01.JPG,AFNE01.JPG,AFNE01.JPG,AFNE01.JPG,AFNE01.JPG,,,,,,,,,4,1,41,2,,,,,,,,,,,,,,,AFSA18.jpg,AFSA07.jpg,AFNE06.jpg,AFNE05.jpg,AFNE06.jpg,FN,3,num_2,32,num_4,1.05013424577,,,2017_Oct_12_1134,60.0097585133,FEMA4ImagesEEG,001,101639,
AFNE01.JPG,AFNE01.JPG,AFNE01.JPG,AFNE01.JPG,AFNE01.JPG,AFNE01.JPG,,,,,,,,,4,2,42,0,,,,,,,,,,,,,,,AFNE15.jpg,AFSA05.jpg,AFNE10.jpg,AFSA11.jpg,AFNE10.jpg,FN,3,num_2,32,num_8,0.866766801686,,,2017_Oct_12_1134,60.0097585133,FEMA4ImagesEEG,001,101639,
AFNE01.JPG,AFNE01.JPG,AFNE01.JPG,AFNE01.JPG,AFNE01.JPG,AFNE01.JPG,,,,,,,,,4,3,43,3,,,,,,,,,,,,,,,AFSA10.jpg,AFNE09.jpg,AFSA03.jpg,AFNE01.jpg,AFSA03.jpg,FS,4,num_2,32,num_4,0.85011493729,,,2017_Oct_12_1134,60.0097585133,FEMA4ImagesEEG,001,101639,
AFNE01.JPG,AFNE01.JPG,AFNE01.JPG,AFNE01.JPG,AFNE01.JPG,AFNE01.JPG,,,,,,,,,4,4,44,8,,,,,,,,,,,,,,,AFNE20.jpg,AFSA14.jpg,AFSA03.jpg,AFNE08.jpg,AFSA03.jpg,FS,4,num_2,16,num_2,0.583524093498,,,2017_Oct_12_1134,60.0097585133,FEMA4ImagesEEG,001,101639,
AFNE01.JPG,AFNE01.JPG,AFNE01.JPG,AFNE01.JPG,AFNE01.JPG,AFNE01.JPG,,,,,,,,,4,5,45,1,,,,,,,,,,,,,,,AFSA18.jpg,AFSA14.jpg,AFNE14.jpg,AFNE03.jpg,AFNE14.jpg,FN,3,num_2,16,num_2,0.750152431661,,,2017_Oct_12_1134,60.0097585133,FEMA4ImagesEEG,001,101639,
AFNE01.JPG,AFNE01.JPG,AFNE01.JPG,AFNE01.JPG,AFNE01.JPG,AFNE01.JPG,,,,,,,,,4,6,46,6,,,,,,,,,,,,,,,AFSA01.jpg,AFSA04.jpg,AFNE01.jpg,AFNE12.jpg,AFSA01.jpg,FS,4,num_8,32,num_2,0.816769832629,,,2017_Oct_12_1134,60.0097585133,FEMA4ImagesEEG,001,101639,
AFNE01.JPG,AFNE01.JPG,AFNE01.JPG,AFNE01.JPG,AFNE01.JPG,AFNE01.JPG,,,,,,,,,4,7,47,5,,,,,,,,,,,,,,,AFNE15.jpg,AFNE01.jpg,AFSA11.jpg,AFSA14.jpg,AFNE01.jpg,FN,3,num_6,32,num_8,0.716805723496,,,2017_Oct_12_1134,60.0097585133,FEMA4ImagesEEG,001,101639,
AFNE01.JPG,AFNE01.JPG,AFNE01.JPG,AFNE01.JPG,AFNE01.JPG,AFNE01.JPG,,,,,,,,,4,8,48,4,,,,,,,,,,,,,,,AFNE13.jpg,AFSA20.jpg,AFNE02.jpg,AFSA07.jpg,AFNE02.jpg,FN,3,num_2,16,num_2,1.08351014135,,,2017_Oct_12_1134,60.0097585133,FEMA4ImagesEEG,001,101639,
AFNE01.JPG,AFNE01.JPG,AFNE01.JPG,AFNE01.JPG,AFNE01.JPG,AFNE01.JPG,,,,,,,,,4,9,49,9,,,,,,,,,,,,,,,AFSA19.jpg,AFSA01.jpg,AFNE01.jpg,AFNE05.jpg,AFNE05.jpg,FN,3,num_4,32,num_8,0.800163834123,,,2017_Oct_12_1134,60.0097585133,FEMA4ImagesEEG,001,101639,
AFNE01.JPG,AFNE01.JPG,AFNE01.JPG,AFNE01.JPG,AFNE01.JPG,AFNE01.JPG,,,,,,,,,5,0,50,1,,,,,,,,,,,,,,,AFNE19.jpg,AFNE08.jpg,AFSA10.jpg,AFSA04.jpg,AFSA10.jpg,FS,4,num_2,16,num_2,0.833469808218,,,2017_Oct_12_1134,60.0097585133,FEMA4ImagesEEG,001,101639,
AFNE01.JPG,AFNE01.JPG,AFNE01.JPG,AFNE01.JPG,AFNE01.JPG,AFNE01.JPG,,,,,,,,,5,1,51,9,,,,,,,,,,,,,,,AFNE18.jpg,AFSA13.jpg,AFSA02.jpg,AFNE14.jpg,AFNE14.jpg,FN,3,num_4,32,num_2,1.11673977936,,,2017_Oct_12_1134,60.0097585133,FEMA4ImagesEEG,001,101639,
AFNE01.JPG,AFNE01.JPG,AFNE01.JPG,AFNE01.JPG,AFNE01.JPG,AFNE01.JPG,,,,,,,,,5,2,52,5,,,,,,,,,,,,,,,AFSA12.jpg,AFNE11.jpg,AFNE06.jpg,AFSA10.jpg,AFNE11.jpg,FN,3,num_6,16,num_6,0.516920163645,,,2017_Oct_12_1134,60.0097585133,FEMA4ImagesEEG,001,101639,
AFNE01.JPG,AFNE01.JPG,AFNE01.JPG,AFNE01.JPG,AFNE01.JPG,AFNE01.JPG,,,,,,,,,5,3,53,8,,,,,,,,,,,,,,,AFSA20.jpg,AFNE01.jpg,AFNE07.jpg,AFSA09.jpg,AFNE01.jpg,FN,3,num_6,32,num_8,1.01678048121,,,2017_Oct_12_1134,60.0097585133,FEMA4ImagesEEG,001,101639,
AFNE01.JPG,AFNE01.JPG,AFNE01.JPG,AFNE01.JPG,AFNE01.JPG,AFNE01.JPG,,,,,,,,,5,4,54,7,,,,,,,,,,,,,,,AFNE13.jpg,AFNE06.jpg,AFSA19.jpg,AFSA02.jpg,AFNE06.jpg,FN,3,num_6,32,num_8,0.733467531041,,,2017_Oct_12_1134,60.0097585133,FEMA4ImagesEEG,001,101639,
AFNE01.JPG,AFNE01.JPG,AFNE01.JPG,AFNE01.JPG,AFNE01.JPG,AFNE01.JPG,,,,,,,,,5,5,55,4,,,,,,,,,,,,,,,AFNE06.jpg,AFSA10.jpg,AFSA17.jpg,AFNE04.jpg,AFSA10.jpg,FS,4,num_6,16,num_6,0.866753972135,,,2017_Oct_12_1134,60.0097585133,FEMA4ImagesEEG,001,101639,
AFNE01.JPG,AFNE01.JPG,AFNE01.JPG,AFNE01.JPG,AFNE01.JPG,AFNE01.JPG,,,,,,,,,5,6,56,0,,,,,,,,,,,,,,,AFSA13.jpg,AFSA08.jpg,AFNE20.jpg,AFNE16.jpg,AFNE16.jpg,FN,3,num_4,32,num_8,0.650171002606,,,2017_Oct_12_1134,60.0097585133,FEMA4ImagesEEG,001,101639,
AFNE01.JPG,AFNE01.JPG,AFNE01.JPG,AFNE01.JPG,AFNE01.JPG,AFNE01.JPG,,,,,,,,,5,7,57,2,,,,,,,,,,,,,,,AFSA01.jpg,AFSA18.jpg,AFNE20.jpg,AFNE09.jpg,AFNE09.jpg,FN,3,num_4,32,num_8,0.83349065634,,,2017_Oct_12_1134,60.0097585133,FEMA4ImagesEEG,001,101639,
AFNE01.JPG,AFNE01.JPG,AFNE01.JPG,AFNE01.JPG,AFNE01.JPG,AFNE01.JPG,,,,,,,,,5,8,58,6,,,,,,,,,,,,,,,AFSA07.jpg,AFNE02.jpg,AFNE08.jpg,AFSA08.jpg,AFNE08.jpg,FN,3,num_2,32,num_8,1.65006612055,,,2017_Oct_12_1134,60.0097585133,FEMA4ImagesEEG,001,101639,
AFNE01.JPG,AFNE01.JPG,AFNE01.JPG,AFNE01.JPG,AFNE01.JPG,AFNE01.JPG,,,,,,,,,5,9,59,3,,,,,,,,,,,,,,,AFSA19.jpg,AFNE04.jpg,AFSA09.jpg,AFNE03.jpg,AFSA19.jpg,FS,4,num_8,16,num_8,0.53338247072,,,2017_Oct_12_1134,60.0097585133,FEMA4ImagesEEG,001,101639,
,,,,,,,,,,,,,,,,,,,,,,,,,,,,,,,,,,,,,,,,,,,space,10.7830481792,2017_Oct_12_1134,60.0097585133,FEMA4ImagesEEG,001,101639,
AFNE01.JPG,AFNE01.JPG,AFNE01.JPG,AFNE01.JPG,AFNE01.JPG,AFNE01.JPG,,,,,,,,,,,,,0,0,0,6,,,,,,,,,,,AMNE04.jpg,AMSA14.jpg,AMSA11.jpg,AMNE12.jpg,AMNE04.jpg,MN,1,num_8,16,num_8,0.616803767043,,,2017_Oct_12_1134,60.0097585133,FEMA4ImagesEEG,001,101639,
AFNE01.JPG,AFNE01.JPG,AFNE01.JPG,AFNE01.JPG,AFNE01.JPG,AFNE01.JPG,,,,,,,,,,,,,0,1,1,1,,,,,,,,,,,AMNE13.jpg,AMSA06.jpg,AMSA13.jpg,AMNE02.jpg,AMNE13.jpg,MN,1,num_8,16,num_8,0.616783239646,,,2017_Oct_12_1134,60.0097585133,FEMA4ImagesEEG,001,101639,
AFNE01.JPG,AFNE01.JPG,AFNE01.JPG,AFNE01.JPG,AFNE01.JPG,AFNE01.JPG,,,,,,,,,,,,,0,2,2,2,,,,,,,,,,,AMNE16.jpg,AMSA16.jpg,AMSA10.jpg,AMNE03.jpg,AMSA16.jpg,MS,2,num_6,16,num_6,0.716771404375,,,2017_Oct_12_1134,60.0097585133,FEMA4ImagesEEG,001,101639,
AFNE01.JPG,AFNE01.JPG,AFNE01.JPG,AFNE01.JPG,AFNE01.JPG,AFNE01.JPG,,,,,,,,,,,,,0,3,3,5,,,,,,,,,,,AMNE19.jpg,AMSA02.jpg,AMSA08.jpg,AMNE17.jpg,AMSA08.jpg,MS,2,num_2,16,num_2,2.18333921896,,,2017_Oct_12_1134,60.0097585133,FEMA4ImagesEEG,001,101639,
AFNE01.JPG,AFNE01.JPG,AFNE01.JPG,AFNE01.JPG,AFNE01.JPG,AFNE01.JPG,,,,,,,,,,,,,0,4,4,7,,,,,,,,,,,AMNE06.jpg,AMNE01.jpg,AMSA20.jpg,AMSA10.jpg,AMSA10.jpg,MS,2,num_4,32,num_8,0.733500887989,,,2017_Oct_12_1134,60.0097585133,FEMA4ImagesEEG,001,101639,
AFNE01.JPG,AFNE01.JPG,AFNE01.JPG,AFNE01.JPG,AFNE01.JPG,AFNE01.JPG,,,,,,,,,,,,,0,5,5,8,,,,,,,,,,,AMSA05.jpg,AMNE10.jpg,AMNE02.jpg,AMSA04.jpg,AMNE10.jpg,MN,1,num_6,16,num_6,0.633489630069,,,2017_Oct_12_1134,60.0097585133,FEMA4ImagesEEG,001,101639,
AFNE01.JPG,AFNE01.JPG,AFNE01.JPG,AFNE01.JPG,AFNE01.JPG,AFNE01.JPG,,,,,,,,,,,,,0,6,6,0,,,,,,,,,,,AMNE07.jpg,AMSA08.jpg,AMSA10.jpg,AMNE06.jpg,AMNE07.jpg,MN,1,num_8,16,num_8,0.7667876177,,,2017_Oct_12_1134,60.0097585133,FEMA4ImagesEEG,001,101639,
AFNE01.JPG,AFNE01.JPG,AFNE01.JPG,AFNE01.JPG,AFNE01.JPG,AFNE01.JPG,,,,,,,,,,,,,0,7,7,9,,,,,,,,,,,AMSA01.jpg,AMNE03.jpg,AMSA20.jpg,AMNE20.jpg,AMNE03.jpg,MN,1,num_6,32,num_8,0.783479574719,,,2017_Oct_12_1134,60.0097585133,FEMA4ImagesEEG,001,101639,
AFNE01.JPG,AFNE01.JPG,AFNE01.JPG,AFNE01.JPG,AFNE01.JPG,AFNE01.JPG,,,,,,,,,,,,,0,8,8,3,,,,,,,,,,,AMSA10.jpg,AMNE02.jpg,AMNE17.jpg,AMSA04.jpg,AMSA04.jpg,MS,2,num_4,32,num_6,0.766817767289,,,2017_Oct_12_1134,60.0097585133,FEMA4ImagesEEG,001,101639,
AFNE01.JPG,AFNE01.JPG,AFNE01.JPG,AFNE01.JPG,AFNE01.JPG,AFNE01.JPG,,,,,,,,,,,,,0,9,9,4,,,,,,,,,,,AMNE01.jpg,AMSA05.jpg,AMNE19.jpg,AMSA03.jpg,AMSA03.jpg,MS,2,num_4,16,num_4,1.13346348959,,,2017_Oct_12_1134,60.0097585133,FEMA4ImagesEEG,001,101639,
AFNE01.JPG,AFNE01.JPG,AFNE01.JPG,AFNE01.JPG,AFNE01.JPG,AFNE01.JPG,,,,,,,,,,,,,1,0,10,4,,,,,,,,,,,AMSA15.jpg,AMNE07.jpg,AMSA12.jpg,AMNE20.jpg,AMNE20.jpg,MN,1,num_4,32,num_8,1.1835653407,,,2017_Oct_12_1134,60.0097585133,FEMA4ImagesEEG,001,101639,
AFNE01.JPG,AFNE01.JPG,AFNE01.JPG,AFNE01.JPG,AFNE01.JPG,AFNE01.JPG,,,,,,,,,,,,,1,1,11,9,,,,,,,,,,,AMSA03.jpg,AMNE14.jpg,AMSA05.jpg,AMNE02.jpg,AMSA03.jpg,MS,2,num_8,32,num_4,0.833414640976,,,2017_Oct_12_1134,60.0097585133,FEMA4ImagesEEG,001,101639,
AFNE01.JPG,AFNE01.JPG,AFNE01.JPG,AFNE01.JPG,AFNE01.JPG,AFNE01.JPG,,,,,,,,,,,,,1,2,12,7,,,,,,,,,,,AMSA09.jpg,AMSA13.jpg,AMNE03.jpg,AMNE13.jpg,AMNE03.jpg,MN,1,num_2,32,num_8,0.98344948946,,,2017_Oct_12_1134,60.0097585133,FEMA4ImagesEEG,001,101639,
AFNE01.JPG,AFNE01.JPG,AFNE01.JPG,AFNE01.JPG,AFNE01.JPG,AFNE01.JPG,,,,,,,,,,,,,1,3,13,8,,,,,,,,,,,AMSA05.jpg,AMNE15.jpg,AMSA04.jpg,AMNE18.jpg,AMNE15.jpg,MN,1,num_6,16,num_6,0.633514968446,,,2017_Oct_12_1134,60.0097585133,FEMA4ImagesEEG,001,101639,
AFNE01.JPG,AFNE01.JPG,AFNE01.JPG,AFNE01.JPG,AFNE01.JPG,AFNE01.JPG,,,,,,,,,,,,,1,4,14,1,,,,,,,,,,,AMSA12.jpg,AMNE19.jpg,AMSA05.jpg,AMNE17.jpg,AMSA12.jpg,MS,2,num_8,16,num_8,1.00010199531,,,2017_Oct_12_1134,60.0097585133,FEMA4ImagesEEG,001,101639,
AFNE01.JPG,AFNE01.JPG,AFNE01.JPG,AFNE01.JPG,AFNE01.JPG,AFNE01.JPG,,,,,,,,,,,,,1,5,15,3,,,,,,,,,,,AMSA11.jpg,AMNE07.jpg,AMNE18.jpg,AMSA20.jpg,AMNE18.jpg,MN,1,num_2,16,num_2,1.1667316166,,,2017_Oct_12_1134,60.0097585133,FEMA4ImagesEEG,001,101639,
AFNE01.JPG,AFNE01.JPG,AFNE01.JPG,AFNE01.JPG,AFNE01.JPG,AFNE01.JPG,,,,,,,,,,,,,1,6,16,5,,,,,,,,,,,AMNE15.jpg,AMSA16.jpg,AMSA01.jpg,AMNE17.jpg,AMSA16.jpg,MS,2,num_6,16,num_6,0.949984107283,,,2017_Oct_12_1134,60.0097585133,FEMA4ImagesEEG,001,101639,
AFNE01.JPG,AFNE01.JPG,AFNE01.JPG,AFNE01.JPG,AFNE01.JPG,AFNE01.JPG,,,,,,,,,,,,,1,7,17,2,,,,,,,,,,,AMSA15.jpg,AMSA04.jpg,AMNE11.jpg,AMNE03.jpg,AMSA04.jpg,MS,2,num_6,16,num_6,0.583495226922,,,2017_Oct_12_1134,60.0097585133,FEMA4ImagesEEG,001,101639,
AFNE01.JPG,AFNE01.JPG,AFNE01.JPG,AFNE01.JPG,AFNE01.JPG,AFNE01.JPG,,,,,,,,,,,,,1,8,18,0,,,,,,,,,,,AMNE18.jpg,AMSA17.jpg,AMSA08.jpg,AMNE01.jpg,AMNE01.jpg,MN,1,num_4,16,num_4,0.900138207013,,,2017_Oct_12_1134,60.0097585133,FEMA4ImagesEEG,001,101639,
AFNE01.JPG,AFNE01.JPG,AFNE01.JPG,AFNE01.JPG,AFNE01.JPG,AFNE01.JPG,,,,,,,,,,,,,1,9,19,6,,,,,,,,,,,AMNE09.jpg,AMSA19.jpg,AMNE01.jpg,AMSA11.jpg,AMSA19.jpg,MS,2,num_6,16,num_6,1.11676479713,,,2017_Oct_12_1134,60.0097585133,FEMA4ImagesEEG,001,101639,
AFNE01.JPG,AFNE01.JPG,AFNE01.JPG,AFNE01.JPG,AFNE01.JPG,AFNE01.JPG,,,,,,,,,,,,,2,0,20,6,,,,,,,,,,,AMNE02.jpg,AMNE20.jpg,AMSA04.jpg,AMSA10.jpg,AMSA04.jpg,MS,2,num_2,32,num_6,1.09998495725,,,2017_Oct_12_1134,60.0097585133,FEMA4ImagesEEG,001,101639,
AFNE01.JPG,AFNE01.JPG,AFNE01.JPG,AFNE01.JPG,AFNE01.JPG,AFNE01.JPG,,,,,,,,,,,,,2,1,21,3,,,,,,,,,,,AMNE05.jpg,AMSA17.jpg,AMNE20.jpg,AMSA10.jpg,AMSA17.jpg,MS,2,num_6,16,num_6,1.00044390431,,,2017_Oct_12_1134,60.0097585133,FEMA4ImagesEEG,001,101639,
AFNE01.JPG,AFNE01.JPG,AFNE01.JPG,AFNE01.JPG,AFNE01.JPG,AFNE01.JPG,,,,,,,,,,,,,2,2,22,4,,,,,,,,,,,AMSA05.jpg,AMNE19.jpg,AMNE07.jpg,AMSA02.jpg,AMSA02.jpg,MS,2,num_4,32,num_6,0.866767763859,,,2017_Oct_12_1134,60.0097585133,FEMA4ImagesEEG,001,101639,
AFNE01.JPG,AFNE01.JPG,AFNE01.JPG,AFNE01.JPG,AFNE01.JPG,AFNE01.JPG,,,,,,,,,,,,,2,3,23,9,,,,,,,,,,,AMSA20.jpg,AMNE11.jpg,AMSA15.jpg,AMNE20.jpg,AMNE11.jpg,MN,1,num_6,32,num_8,1.06674601778,,,2017_Oct_12_1134,60.0097585133,FEMA4ImagesEEG,001,101639,
AFNE01.JPG,AFNE01.JPG,AFNE01.JPG,AFNE01.JPG,AFNE01.JPG,AFNE01.JPG,,,,,,,,,,,,,2,4,24,8,,,,,,,,,,,AMSA12.jpg,AMNE11.jpg,AMNE15.jpg,AMSA09.jpg,AMNE15.jpg,MN,1,num_2,32,num_8,0.633512723376,,,2017_Oct_12_1134,60.0097585133,FEMA4ImagesEEG,001,101639,
AFNE01.JPG,AFNE01.JPG,AFNE01.JPG,AFNE01.JPG,AFNE01.JPG,AFNE01.JPG,,,,,,,,,,,,,2,5,25,5,,,,,,,,,,,AMSA17.jpg,AMSA14.jpg,AMNE02.jpg,AMNE01.jpg,AMSA14.jpg,MS,2,num_6,16,num_6,0.750113942893,,,2017_Oct_12_1134,60.0097585133,FEMA4ImagesEEG,001,101639,
AFNE01.JPG,AFNE01.JPG,AFNE01.JPG,AFNE01.JPG,AFNE01.JPG,AFNE01.JPG,,,,,,,,,,,,,2,6,26,2,,,,,,,,,,,AMNE03.jpg,AMNE02.jpg,AMSA17.jpg,AMSA02.jpg,AMSA17.jpg,MS,2,num_2,32,num_6,0.850137068308,,,2017_Oct_12_1134,60.0097585133,FEMA4ImagesEEG,001,101639,
AFNE01.JPG,AFNE01.JPG,AFNE01.JPG,AFNE01.JPG,AFNE01.JPG,AFNE01.JPG,,,,,,,,,,,,,2,7,27,1,,,,,,,,,,,AMSA05.jpg,AMNE10.jpg,AMNE16.jpg,AMSA16.jpg,AMNE16.jpg,MN,1,num_2,16,num_2,1.25010383956,,,2017_Oct_12_1134,60.0097585133,FEMA4ImagesEEG,001,101639,
AFNE01.JPG,AFNE01.JPG,AFNE01.JPG,AFNE01.JPG,AFNE01.JPG,AFNE01.JPG,,,,,,,,,,,,,2,8,28,0,,,,,,,,,,,AMNE18.jpg,AMNE16.jpg,AMSA07.jpg,AMSA01.jpg,AMNE16.jpg,MN,1,num_6,16,num_6,0.700130124227,,,2017_Oct_12_1134,60.0097585133,FEMA4ImagesEEG,001,101639,
AFNE01.JPG,AFNE01.JPG,AFNE01.JPG,AFNE01.JPG,AFNE01.JPG,AFNE01.JPG,,,,,,,,,,,,,2,9,29,7,,,,,,,,,,,AMNE19.jpg,AMNE03.jpg,AMSA19.jpg,AMSA14.jpg,AMNE03.jpg,MN,1,num_6,16,num_6,0.583577977843,,,2017_Oct_12_1134,60.0097585133,FEMA4ImagesEEG,001,101639,
AFNE01.JPG,AFNE01.JPG,AFNE01.JPG,AFNE01.JPG,AFNE01.JPG,AFNE01.JPG,,,,,,,,,,,,,3,0,30,0,,,,,,,,,,,AMNE10.jpg,AMNE06.jpg,AMSA20.jpg,AMSA08.jpg,AMSA20.jpg,MS,2,num_2,32,num_6,0.850131615764,,,2017_Oct_12_1134,60.0097585133,FEMA4ImagesEEG,001,101639,
AFNE01.JPG,AFNE01.JPG,AFNE01.JPG,AFNE01.JPG,AFNE01.JPG,AFNE01.JPG,,,,,,,,,,,,,3,1,31,6,,,,,,,,,,,AMNE19.jpg,AMNE05.jpg,AMSA11.jpg,AMSA19.jpg,AMSA19.jpg,MS,2,num_4,16,num_4,0.700139746536,,,2017_Oct_12_1134,60.0097585133,FEMA4ImagesEEG,001,101639,
AFNE01.JPG,AFNE01.JPG,AFNE01.JPG,AFNE01.JPG,AFNE01.JPG,AFNE01.JPG,,,,,,,,,,,,,3,2,32,9,,,,,,,,,,,AMNE10.jpg,AMSA08.jpg,AMSA05.jpg,AMNE19.jpg,AMSA08.jpg,MS,2,num_6,16,num_6,0.433463585912,,,2017_Oct_12_1134,60.0097585133,FEMA4ImagesEEG,001,101639,
AFNE01.JPG,AFNE01.JPG,AFNE01.JPG,AFNE01.JPG,AFNE01.JPG,AFNE01.JPG,,,,,,,,,,,,,3,3,33,8,,,,,,,,,,,AMNE04.jpg,AMSA09.jpg,AMNE05.jpg,AMSA11.jpg,AMNE05.jpg,MN,1,num_2,32,num_8,0.733474587323,,,2017_Oct_12_1134,60.0097585133,FEMA4ImagesEEG,001,101639,
AFNE01.JPG,AFNE01.JPG,AFNE01.JPG,AFNE01.JPG,AFNE01.JPG,AFNE01.JPG,,,,,,,,,,,,,3,4,34,3,,,,,,,,,,,AMNE01.jpg,AMNE11.jpg,AMSA17.jpg,AMSA14.jpg,AMNE11.jpg,MN,1,num_6,16,num_6,1.11676640075,,,2017_Oct_12_1134,60.0097585133,FEMA4ImagesEEG,001,101639,
AFNE01.JPG,AFNE01.JPG,AFNE01.JPG,AFNE01.JPG,AFNE01.JPG,AFNE01.JPG,,,,,,,,,,,,,3,5,35,5,,,,,,,,,,,AMNE07.jpg,AMSA16.jpg,AMNE03.jpg,AMSA09.jpg,AMNE03.jpg,MN,1,num_2,32,num_8,0.916780449217,,,2017_Oct_12_1134,60.0097585133,FEMA4ImagesEEG,001,101639,
AFNE01.JPG,AFNE01.JPG,AFNE01.JPG,AFNE01.JPG,AFNE01.JPG,AFNE01.JPG,,,,,,,,,,,,,3,6,36,7,,,,,,,,,,,AMNE19.jpg,AMSA20.jpg,AMSA08.jpg,AMNE06.jpg,AMNE06.jpg,MN,1,num_4,32,num_8,1.01677182131,,,2017_Oct_12_1134,60.0097585133,FEMA4ImagesEEG,001,101639,
AFNE01.JPG,AFNE01.JPG,AFNE01.JPG,AFNE01.JPG,AFNE01.JPG,AFNE01.JPG,,,,,,,,,,,,,3,7,37,4,,,,,,,,,,,AMNE15.jpg,AMSA04.jpg,AMSA17.jpg,AMNE01.jpg,AMNE01.jpg,MN,1,num_4,16,num_4,1.00009076949,,,2017_Oct_12_1134,60.0097585133,FEMA4ImagesEEG,001,101639,
AFNE01.JPG,AFNE01.JPG,AFNE01.JPG,AFNE01.JPG,AFNE01.JPG,AFNE01.JPG,,,,,,,,,,,,,3,8,38,1,,,,,,,,,,,AMSA07.jpg,AMSA01.jpg,AMNE18.jpg,AMNE10.jpg,AMSA07.jpg,MS,2,num_8,32,num_4,0.750101113343,,,2017_Oct_12_1134,60.0097585133,FEMA4ImagesEEG,001,101639,
AFNE01.JPG,AFNE01.JPG,AFNE01.JPG,AFNE01.JPG,AFNE01.JPG,AFNE01.JPG,,,,,,,,,,,,,3,9,39,2,,,,,,,,,,,AMSA13.jpg,AMNE18.jpg,AMNE11.jpg,AMSA20.jpg,AMNE18.jpg,MN,1,num_6,32,num_8,0.95010470564,,,2017_Oct_12_1134,60.0097585133,FEMA4ImagesEEG,001,101639,
AFNE01.JPG,AFNE01.JPG,AFNE01.JPG,AFNE01.JPG,AFNE01.JPG,AFNE01.JPG,,,,,,,,,,,,,4,0,40,4,,,,,,,,,,,AMNE09.jpg,AMNE08.jpg,AMSA10.jpg,AMSA03.jpg,AMSA03.jpg,MS,2,num_4,16,num_4,0.783476367476,,,2017_Oct_12_1134,60.0097585133,FEMA4ImagesEEG,001,101639,
AFNE01.JPG,AFNE01.JPG,AFNE01.JPG,AFNE01.JPG,AFNE01.JPG,AFNE01.JPG,,,,,,,,,,,,,4,1,41,1,,,,,,,,,,,AMNE08.jpg,AMSA18.jpg,AMSA11.jpg,AMNE01.jpg,AMSA11.jpg,MS,2,num_2,32,num_8,1.6997696124,,,2017_Oct_12_1134,60.0097585133,FEMA4ImagesEEG,001,101639,
AFNE01.JPG,AFNE01.JPG,AFNE01.JPG,AFNE01.JPG,AFNE01.JPG,AFNE01.JPG,,,,,,,,,,,,,4,2,42,3,,,,,,,,,,,AMNE19.jpg,AMSA13.jpg,AMNE13.jpg,AMSA15.jpg,AMSA13.jpg,MS,2,num_6,16,num_6,0.933232492651,,,2017_Oct_12_1134,60.0097585133,FEMA4ImagesEEG,001,101639,
AFNE01.JPG,AFNE01.JPG,AFNE01.JPG,AFNE01.JPG,AFNE01.JPG,AFNE01.JPG,,,,,,,,,,,,,4,3,43,6,,,,,,,,,,,AMSA18.jpg,AMNE09.jpg,AMNE02.jpg,AMSA06.jpg,AMNE09.jpg,MN,1,num_6,32,num_4,0.949990522116,,,2017_Oct_12_1134,60.0097585133,FEMA4ImagesEEG,001,101639,
AFNE01.JPG,AFNE01.JPG,AFNE01.JPG,AFNE01.JPG,AFNE01.JPG,AFNE01.JPG,,,,,,,,,,,,,4,4,44,5,,,,,,,,,,,AMNE09.jpg,AMNE20.jpg,AMSA17.jpg,AMSA04.jpg,AMSA04.jpg,MS,2,num_4,16,num_4,0.566801345441,,,2017_Oct_12_1134,60.0097585133,FEMA4ImagesEEG,001,101639,
AFNE01.JPG,AFNE01.JPG,AFNE01.JPG,AFNE01.JPG,AFNE01.JPG,AFNE01.JPG,,,,,,,,,,,,,4,5,45,7,,,,,,,,,,,AMNE17.jpg,AMNE11.jpg,AMSA02.jpg,AMSA12.jpg,AMSA12.jpg,MS,2,num_4,16,num_4,1.2501041604,,,2017_Oct_12_1134,60.0097585133,FEMA4ImagesEEG,001,101639,
AFNE01.JPG,AFNE01.JPG,AFNE01.JPG,AFNE01.JPG,AFNE01.JPG,AFNE01.JPG,,,,,,,,,,,,,4,6,46,0,,,,,,,,,,,AMNE20.jpg,AMSA03.jpg,AMSA17.jpg,AMNE03.jpg,AMSA17.jpg,MS,2,num_2,32,num_8,0.983404264902,,,2017_Oct_12_1134,60.0097585133,FEMA4ImagesEEG,001,101639,
AFNE01.JPG,AFNE01.JPG,AFNE01.JPG,AFNE01.JPG,AFNE01.JPG,AFNE01.JPG,,,,,,,,,,,,,4,7,47,8,,,,,,,,,,,AMNE16.jpg,AMNE19.jpg,AMSA05.jpg,AMSA16.jpg,AMSA05.jpg,MS,2,num_2,16,num_2,1.0834973118,,,2017_Oct_12_1134,60.0097585133,FEMA4ImagesEEG,001,101639,
AFNE01.JPG,AFNE01.JPG,AFNE01.JPG,AFNE01.JPG,AFNE01.JPG,AFNE01.JPG,,,,,,,,,,,,,4,8,48,9,,,,,,,,,,,AMSA03.jpg,AMSA18.jpg,AMNE12.jpg,AMNE17.jpg,AMNE12.jpg,MN,1,num_2,16,num_2,0.750175845693,,,2017_Oct_12_1134,60.0097585133,FEMA4ImagesEEG,001,101639,
AFNE01.JPG,AFNE01.JPG,AFNE01.JPG,AFNE01.JPG,AFNE01.JPG,AFNE01.JPG,,,,,,,,,,,,,4,9,49,2,,,,,,,,,,,AMNE07.jpg,AMNE06.jpg,AMSA04.jpg,AMSA19.jpg,AMSA04.jpg,MS,2,num_2,16,num_2,1.08342450368,,,2017_Oct_12_1134,60.0097585133,FEMA4ImagesEEG,001,101639,
AFNE01.JPG,AFNE01.JPG,AFNE01.JPG,AFNE01.JPG,AFNE01.JPG,AFNE01.JPG,,,,,,,,,,,,,5,0,50,5,,,,,,,,,,,AMSA09.jpg,AMSA11.jpg,AMNE07.jpg,AMNE09.jpg,AMSA11.jpg,MS,2,num_6,16,num_6,0.733488379163,,,2017_Oct_12_1134,60.0097585133,FEMA4ImagesEEG,001,101639,
AFNE01.JPG,AFNE01.JPG,AFNE01.JPG,AFNE01.JPG,AFNE01.JPG,AFNE01.JPG,,,,,,,,,,,,,5,1,51,2,,,,,,,,,,,AMSA17.jpg,AMNE07.jpg,AMNE15.jpg,AMSA18.jpg,AMNE07.jpg,MN,1,num_6,32,num_8,1.00016999221,,,2017_Oct_12_1134,60.0097585133,FEMA4ImagesEEG,001,101639,
AFNE01.JPG,AFNE01.JPG,AFNE01.JPG,AFNE01.JPG,AFNE01.JPG,AFNE01.JPG,,,,,,,,,,,,,5,2,52,3,,,,,,,,,,,AMSA01.jpg,AMNE18.jpg,AMNE04.jpg,AMSA17.jpg,AMNE18.jpg,MN,1,num_6,32,num_2,0.833495788276,,,2017_Oct_12_1134,60.0097585133,FEMA4ImagesEEG,001,101639,
AFNE01.JPG,AFNE01.JPG,AFNE01.JPG,AFNE01.JPG,AFNE01.JPG,AFNE01.JPG,,,,,,,,,,,,,5,3,53,6,,,,,,,,,,,AMNE11.jpg,AMSA16.jpg,AMNE08.jpg,AMSA04.jpg,AMSA04.jpg,MS,2,num_4,32,num_8,1.23344940913,,,2017_Oct_12_1134,60.0097585133,FEMA4ImagesEEG,001,101639,
AFNE01.JPG,AFNE01.JPG,AFNE01.JPG,AFNE01.JPG,AFNE01.JPG,AFNE01.JPG,,,,,,,,,,,,,5,4,54,9,,,,,,,,,,,AMNE17.jpg,AMSA15.jpg,AMSA10.jpg,AMNE12.jpg,AMSA15.jpg,MS,2,num_6,16,num_6,0.683557482553,,,2017_Oct_12_1134,60.0097585133,FEMA4ImagesEEG,001,101639,
AFNE01.JPG,AFNE01.JPG,AFNE01.JPG,AFNE01.JPG,AFNE01.JPG,AFNE01.JPG,,,,,,,,,,,,,5,5,55,0,,,,,,,,,,,AMNE19.jpg,AMSA20.jpg,AMNE15.jpg,AMSA15.jpg,AMNE19.jpg,MN,1,num_8,32,num_2,0.833448960213,,,2017_Oct_12_1134,60.0097585133,FEMA4ImagesEEG,001,101639,
AFNE01.JPG,AFNE01.JPG,AFNE01.JPG,AFNE01.JPG,AFNE01.JPG,AFNE01.JPG,,,,,,,,,,,,,5,6,56,8,,,,,,,,,,,AMNE11.jpg,AMNE15.jpg,AMSA06.jpg,AMSA12.jpg,AMSA06.jpg,MS,2,num_2,16,num_2,1.15007590316,,,2017_Oct_12_1134,60.0097585133,FEMA4ImagesEEG,001,101639,
AFNE01.JPG,AFNE01.JPG,AFNE01.JPG,AFNE01.JPG,AFNE01.JPG,AFNE01.JPG,,,,,,,,,,,,,5,7,57,7,,,,,,,,,,,AMSA01.jpg,AMNE09.jpg,AMNE19.jpg,AMSA02.jpg,AMNE09.jpg,MN,1,num_6,16,num_6,0.850026412983,,,2017_Oct_12_1134,60.0097585133,FEMA4ImagesEEG,001,101639,
AFNE01.JPG,AFNE01.JPG,AFNE01.JPG,AFNE01.JPG,AFNE01.JPG,AFNE01.JPG,,,,,,,,,,,,,5,8,58,4,,,,,,,,,,,AMNE10.jpg,AMSA08.jpg,AMNE15.jpg,AMSA20.jpg,AMNE15.jpg,MN,1,num_2,32,num_4,1.11670674314,,,2017_Oct_12_1134,60.0097585133,FEMA4ImagesEEG,001,101639,
AFNE01.JPG,AFNE01.JPG,AFNE01.JPG,AFNE01.JPG,AFNE01.JPG,AFNE01.JPG,,,,,,,,,,,,,5,9,59,1,,,,,,,,,,,AMSA18.jpg,AMNE13.jpg,AMSA08.jpg,AMNE01.jpg,AMNE01.jpg,MN,1,num_4,16,num_4,0.716791931656,,,2017_Oct_12_1134,60.0097585133,FEMA4ImagesEEG,001,101639,
,,,,,,,,,,,,,,,,,,,,,,,,,,,,,,,,,,,,,,,,,,,space,11.0993123653,2017_Oct_12_1134,60.0097585133,FEMA4ImagesEEG,001,101639,
AFNE01.JPG,AFNE01.JPG,AFNE01.JPG,AFNE01.JPG,AFNE01.JPG,AFNE01.JPG,,,,,,,,,,,,,,,,,0,0,0,0,,,,,,,AFNE06.jpg,AFSA13.jpg,AFNE19.jpg,AFSA07.jpg,AFNE06.jpg,FN,3,num_8,16,num_8,0.816779134097,,,2017_Oct_12_1134,60.0097585133,FEMA4ImagesEEG,001,101639,
AFNE01.JPG,AFNE01.JPG,AFNE01.JPG,AFNE01.JPG,AFNE01.JPG,AFNE01.JPG,,,,,,,,,,,,,,,,,0,1,1,5,,,,,,,AFNE13.jpg,AFNE03.jpg,AFSA10.jpg,AFSA02.jpg,AFNE13.jpg,FN,3,num_8,32,num_6,1.16630503221,,,2017_Oct_12_1134,60.0097585133,FEMA4ImagesEEG,001,101639,
AFNE01.JPG,AFNE01.JPG,AFNE01.JPG,AFNE01.JPG,AFNE01.JPG,AFNE01.JPG,,,,,,,,,,,,,,,,,0,2,2,8,,,,,,,AFSA19.jpg,AFNE14.jpg,AFNE04.jpg,AFSA04.jpg,AFNE14.jpg,FN,3,num_6,32,num_8,0.950102781178,,,2017_Oct_12_1134,60.0097585133,FEMA4ImagesEEG,001,101639,
AFNE01.JPG,AFNE01.JPG,AFNE01.JPG,AFNE01.JPG,AFNE01.JPG,AFNE01.JPG,,,,,,,,,,,,,,,,,0,3,3,6,,,,,,,AFNE02.jpg,AFSA07.jpg,AFNE13.jpg,AFSA20.jpg,AFSA20.jpg,FS,4,num_4,16,num_4,0.633466216037,,,2017_Oct_12_1134,60.0097585133,FEMA4ImagesEEG,001,101639,
AFNE01.JPG,AFNE01.JPG,AFNE01.JPG,AFNE01.JPG,AFNE01.JPG,AFNE01.JPG,,,,,,,,,,,,,,,,,0,4,4,4,,,,,,,AFSA06.jpg,AFNE17.jpg,AFSA10.jpg,AFNE04.jpg,AFSA06.jpg,FS,4,num_8,16,num_8,0.76678248588,,,2017_Oct_12_1134,60.0097585133,FEMA4ImagesEEG,001,101639,
AFNE01.JPG,AFNE01.JPG,AFNE01.JPG,AFNE01.JPG,AFNE01.JPG,AFNE01.JPG,,,,,,,,,,,,,,,,,0,5,5,2,,,,,,,AFNE20.jpg,AFSA06.jpg,AFSA09.jpg,AFNE19.jpg,AFNE19.jpg,FN,3,num_4,16,num_4,0.450157146668,,,2017_Oct_12_1134,60.0097585133,FEMA4ImagesEEG,001,101639,
AFNE01.JPG,AFNE01.JPG,AFNE01.JPG,AFNE01.JPG,AFNE01.JPG,AFNE01.JPG,,,,,,,,,,,,,,,,,0,6,6,9,,,,,,,AFSA12.jpg,AFSA08.jpg,AFNE18.jpg,AFNE08.jpg,AFSA12.jpg,FS,4,num_8,32,num_4,0.800153249642,,,2017_Oct_12_1134,60.0097585133,FEMA4ImagesEEG,001,101639,
AFNE01.JPG,AFNE01.JPG,AFNE01.JPG,AFNE01.JPG,AFNE01.JPG,AFNE01.JPG,,,,,,,,,,,,,,,,,0,7,7,3,,,,,,,AFSA08.jpg,AFSA17.jpg,AFNE01.jpg,AFNE02.jpg,AFSA17.jpg,FS,4,num_6,32,num_4,0.633453707094,,,2017_Oct_12_1134,60.0097585133,FEMA4ImagesEEG,001,101639,
AFNE01.JPG,AFNE01.JPG,AFNE01.JPG,AFNE01.JPG,AFNE01.JPG,AFNE01.JPG,,,,,,,,,,,,,,,,,0,8,8,1,,,,,,,AFSA05.jpg,AFSA10.jpg,AFNE13.jpg,AFNE03.jpg,AFNE03.jpg,FN,3,num_4,16,num_4,0.550505181658,,,2017_Oct_12_1134,60.0097585133,FEMA4ImagesEEG,001,101639,
AFNE01.JPG,AFNE01.JPG,AFNE01.JPG,AFNE01.JPG,AFNE01.JPG,AFNE01.JPG,,,,,,,,,,,,,,,,,0,9,9,7,,,,,,,AFNE15.jpg,AFSA07.jpg,AFSA04.jpg,AFNE19.jpg,AFSA07.jpg,FS,4,num_6,32,num_4,0.616892932798,,,2017_Oct_12_1134,60.0097585133,FEMA4ImagesEEG,001,101639,
AFNE01.JPG,AFNE01.JPG,AFNE01.JPG,AFNE01.JPG,AFNE01.JPG,AFNE01.JPG,,,,,,,,,,,,,,,,,1,0,10,7,,,,,,,AFNE17.jpg,AFNE04.jpg,AFSA13.jpg,AFSA08.jpg,AFNE04.jpg,FN,3,num_6,16,num_6,1.11681034218,,,2017_Oct_12_1134,60.0097585133,FEMA4ImagesEEG,001,101639,
AFNE01.JPG,AFNE01.JPG,AFNE01.JPG,AFNE01.JPG,AFNE01.JPG,AFNE01.JPG,,,,,,,,,,,,,,,,,1,1,11,4,,,,,,,AFNE17.jpg,AFSA14.jpg,AFSA07.jpg,AFNE10.jpg,AFNE17.jpg,FN,3,num_8,16,num_8,0.466859367327,,,2017_Oct_12_1134,60.0097585133,FEMA4ImagesEEG,001,101639,
AFNE01.JPG,AFNE01.JPG,AFNE01.JPG,AFNE01.JPG,AFNE01.JPG,AFNE01.JPG,,,,,,,,,,,,,,,,,1,2,12,2,,,,,,,AFNE04.jpg,AFSA19.jpg,AFSA10.jpg,AFNE08.jpg,AFNE08.jpg,FN,3,num_4,32,num_8,0.683493013727,,,2017_Oct_12_1134,60.0097585133,FEMA4ImagesEEG,001,101639,
AFNE01.JPG,AFNE01.JPG,AFNE01.JPG,AFNE01.JPG,AFNE01.JPG,AFNE01.JPG,,,,,,,,,,,,,,,,,1,3,13,9,,,,,,,AFSA07.jpg,AFNE04.jpg,AFSA19.jpg,AFNE12.jpg,AFSA07.jpg,FS,4,num_8,16,num_8,0.866812988301,,,2017_Oct_12_1134,60.0097585133,FEMA4ImagesEEG,001,101639,
AFNE01.JPG,AFNE01.JPG,AFNE01.JPG,AFNE01.JPG,AFNE01.JPG,AFNE01.JPG,,,,,,,,,,,,,,,,,1,4,14,1,,,,,,,AFNE11.jpg,AFNE04.jpg,AFSA10.jpg,AFSA07.jpg,AFNE04.jpg,FN,3,num_6,16,num_6,1.05012205767,,,2017_Oct_12_1134,60.0097585133,FEMA4ImagesEEG,001,101639,
AFNE01.JPG,AFNE01.JPG,AFNE01.JPG,AFNE01.JPG,AFNE01.JPG,AFNE01.JPG,,,,,,,,,,,,,,,,,1,5,15,3,,,,,,,AFNE18.jpg,AFNE14.jpg,AFSA01.jpg,AFSA08.jpg,AFNE14.jpg,FN,3,num_6,32,num_4,1.8167037603,,,2017_Oct_12_1134,60.0097585133,FEMA4ImagesEEG,001,101639,
AFNE01.JPG,AFNE01.JPG,AFNE01.JPG,AFNE01.JPG,AFNE01.JPG,AFNE01.JPG,,,,,,,,,,,,,,,,,1,6,16,8,,,,,,,AFSA17.jpg,AFNE18.jpg,AFSA03.jpg,AFNE15.jpg,AFNE15.jpg,FN,3,num_4,32,num_6,1.03344004357,,,2017_Oct_12_1134,60.0097585133,FEMA4ImagesEEG,001,101639,
AFNE01.JPG,AFNE01.JPG,AFNE01.JPG,AFNE01.JPG,AFNE01.JPG,AFNE01.JPG,,,,,,,,,,,,,,,,,1,7,17,0,,,,,,,AFNE17.jpg,AFSA14.jpg,AFSA11.jpg,AFNE08.jpg,AFSA14.jpg,FS,4,num_6,32,num_8,1.91672592342,,,2017_Oct_12_1134,60.0097585133,FEMA4ImagesEEG,001,101639,
AFNE01.JPG,AFNE01.JPG,AFNE01.JPG,AFNE01.JPG,AFNE01.JPG,AFNE01.JPG,,,,,,,,,,,,,,,,,1,8,18,6,,,,,,,AFNE15.jpg,AFSA10.jpg,AFSA20.jpg,AFNE01.jpg,AFSA20.jpg,FS,4,num_2,16,num_2,1.16674765351,,,2017_Oct_12_1134,60.0097585133,FEMA4ImagesEEG,001,101639,
AFNE01.JPG,AFNE01.JPG,AFNE01.JPG,AFNE01.JPG,AFNE01.JPG,AFNE01.JPG,,,,,,,,,,,,,,,,,1,9,19,5,,,,,,,AFSA01.jpg,AFSA04.jpg,AFNE04.jpg,AFNE15.jpg,AFSA04.jpg,FS,4,num_6,16,num_6,0.7501697517,,,2017_Oct_12_1134,60.0097585133,FEMA4ImagesEEG,001,101639,
AFNE01.JPG,AFNE01.JPG,AFNE01.JPG,AFNE01.JPG,AFNE01.JPG,AFNE01.JPG,,,,,,,,,,,,,,,,,2,0,20,3,,,,,,,AFSA05.jpg,AFSA02.jpg,AFNE09.jpg,AFNE05.jpg,AFSA02.jpg,FS,4,num_6,16,num_6,0.600180448382,,,2017_Oct_12_1134,60.0097585133,FEMA4ImagesEEG,001,101639,
AFNE01.JPG,AFNE01.JPG,AFNE01.JPG,AFNE01.JPG,AFNE01.JPG,AFNE01.JPG,,,,,,,,,,,,,,,,,2,1,21,5,,,,,,,AFNE04.jpg,AFSA14.jpg,AFNE13.jpg,AFSA10.jpg,AFSA10.jpg,FS,4,num_4,32,num_8,0.633517855196,,,2017_Oct_12_1134,60.0097585133,FEMA4ImagesEEG,001,101639,
AFNE01.JPG,AFNE01.JPG,AFNE01.JPG,AFNE01.JPG,AFNE01.JPG,AFNE01.JPG,,,,,,,,,,,,,,,,,2,2,22,2,,,,,,,AFNE10.jpg,AFNE01.jpg,AFSA17.jpg,AFSA18.jpg,AFSA18.jpg,FS,4,num_4,32,num_8,1.23347025737,,,2017_Oct_12_1134,60.0097585133,FEMA4ImagesEEG,001,101639,
AFNE01.JPG,AFNE01.JPG,AFNE01.JPG,AFNE01.JPG,AFNE01.JPG,AFNE01.JPG,,,,,,,,,,,,,,,,,2,3,23,0,,,,,,,AFSA11.jpg,AFNE01.jpg,AFSA18.jpg,AFNE13.jpg,AFNE01.jpg,FN,3,num_6,16,num_6,0.933481707703,,,2017_Oct_12_1134,60.0097585133,FEMA4ImagesEEG,001,101639,
AFNE01.JPG,AFNE01.JPG,AFNE01.JPG,AFNE01.JPG,AFNE01.JPG,AFNE01.JPG,,,,,,,,,,,,,,,,,2,4,24,8,,,,,,,AFSA03.jpg,AFNE07.jpg,AFSA08.jpg,AFNE17.jpg,AFNE07.jpg,FN,3,num_6,32,num_8,1.21676001803,,,2017_Oct_12_1134,60.0097585133,FEMA4ImagesEEG,001,101639,
AFNE01.JPG,AFNE01.JPG,AFNE01.JPG,AFNE01.JPG,AFNE01.JPG,AFNE01.JPG,,,,,,,,,,,,,,,,,2,5,25,7,,,,,,,AFSA05.jpg,AFNE07.jpg,AFNE05.jpg,AFSA13.jpg,AFSA05.jpg,FS,4,num_8,16,num_8,1.11682830355,,,2017_Oct_12_1134,60.0097585133,FEMA4ImagesEEG,001,101639,
AFNE01.JPG,AFNE01.JPG,AFNE01.JPG,AFNE01.JPG,AFNE01.JPG,AFNE01.JPG,,,,,,,,,,,,,,,,,2,6,26,9,,,,,,,AFSA06.jpg,AFNE01.jpg,AFSA12.jpg,AFNE18.jpg,AFSA12.jpg,FS,4,num_2,16,num_2,1.26699176885,,,2017_Oct_12_1134,60.0097585133,FEMA4ImagesEEG,001,101639,
AFNE01.JPG,AFNE01.JPG,AFNE01.JPG,AFNE01.JPG,AFNE01.JPG,AFNE01.JPG,,,,,,,,,,,,,,,,,2,7,27,1,,,,,,,AFSA17.jpg,AFNE14.jpg,AFSA20.jpg,AFNE10.jpg,AFNE10.jpg,FN,3,num_4,16,num_4,1.28332834574,,,2017_Oct_12_1134,60.0097585133,FEMA4ImagesEEG,001,101639,
AFNE01.JPG,AFNE01.JPG,AFNE01.JPG,AFNE01.JPG,AFNE01.JPG,AFNE01.JPG,,,,,,,,,,,,,,,,,2,8,28,6,,,,,,,AFSA18.jpg,AFSA01.jpg,AFNE07.jpg,AFNE18.jpg,AFNE07.jpg,FN,3,num_2,16,num_2,1.20009436179,,,2017_Oct_12_1134,60.0097585133,FEMA4ImagesEEG,001,101639,
AFNE01.JPG,AFNE01.JPG,AFNE01.JPG,AFNE01.JPG,AFNE01.JPG,AFNE01.JPG,,,,,,,,,,,,,,,,,2,9,29,4,,,,,,,AFNE09.jpg,AFNE15.jpg,AFSA12.jpg,AFSA04.jpg,AFNE09.jpg,FN,3,num_8,16,num_8,1.01682730927,,,2017_Oct_12_1134,60.0097585133,FEMA4ImagesEEG,001,101639,
AFNE01.JPG,AFNE01.JPG,AFNE01.JPG,AFNE01.JPG,AFNE01.JPG,AFNE01.JPG,,,,,,,,,,,,,,,,,3,0,30,7,,,,,,,AFNE19.jpg,AFNE04.jpg,AFSA16.jpg,AFSA01.jpg,AFNE04.jpg,FN,3,num_6,32,num_4,1.13344360387,,,2017_Oct_12_1134,60.0097585133,FEMA4ImagesEEG,001,101639,
AFNE01.JPG,AFNE01.JPG,AFNE01.JPG,AFNE01.JPG,AFNE01.JPG,AFNE01.JPG,,,,,,,,,,,,,,,,,3,1,31,1,,,,,,,AFNE18.jpg,AFNE01.jpg,AFSA16.jpg,AFSA03.jpg,AFSA03.jpg,FS,4,num_4,32,num_2,1.08343572961,,,2017_Oct_12_1134,60.0097585133,FEMA4ImagesEEG,001,101639,
AFNE01.JPG,AFNE01.JPG,AFNE01.JPG,AFNE01.JPG,AFNE01.JPG,AFNE01.JPG,,,,,,,,,,,,,,,,,3,2,32,9,,,,,,,AFSA18.jpg,AFNE07.jpg,AFSA02.jpg,AFNE16.jpg,AFNE16.jpg,FN,3,num_4,16,num_4,1.28343451081,,,2017_Oct_12_1134,60.0097585133,FEMA4ImagesEEG,001,101639,
AFNE01.JPG,AFNE01.JPG,AFNE01.JPG,AFNE01.JPG,AFNE01.JPG,AFNE01.JPG,,,,,,,,,,,,,,,,,3,3,33,4,,,,,,,AFNE11.jpg,AFSA04.jpg,AFSA10.jpg,AFNE18.jpg,AFNE11.jpg,FN,3,num_8,16,num_8,0.750138960662,,,2017_Oct_12_1134,60.0097585133,FEMA4ImagesEEG,001,101639,
AFNE01.JPG,AFNE01.JPG,AFNE01.JPG,AFNE01.JPG,AFNE01.JPG,AFNE01.JPG,,,,,,,,,,,,,,,,,3,4,34,3,,,,,,,AFNE07.jpg,AFNE10.jpg,AFSA03.jpg,AFSA09.jpg,AFSA09.jpg,FS,4,num_4,16,num_4,0.683529898874,,,2017_Oct_12_1134,60.0097585133,FEMA4ImagesEEG,001,101639,
AFNE01.JPG,AFNE01.JPG,AFNE01.JPG,AFNE01.JPG,AFNE01.JPG,AFNE01.JPG,,,,,,,,,,,,,,,,,3,5,35,6,,,,,,,AFSA04.jpg,AFNE18.jpg,AFNE12.jpg,AFSA12.jpg,AFSA04.jpg,FS,4,num_8,16,num_8,1.13346765924,,,2017_Oct_12_1134,60.0097585133,FEMA4ImagesEEG,001,101639,
AFNE01.JPG,AFNE01.JPG,AFNE01.JPG,AFNE01.JPG,AFNE01.JPG,AFNE01.JPG,,,,,,,,,,,,,,,,,3,6,36,8,,,,,,,AFSA04.jpg,AFSA16.jpg,AFNE04.jpg,AFNE10.jpg,AFNE10.jpg,FN,3,num_4,16,num_4,0.86683287425,,,2017_Oct_12_1134,60.0097585133,FEMA4ImagesEEG,001,101639,
AFNE01.JPG,AFNE01.JPG,AFNE01.JPG,AFNE01.JPG,AFNE01.JPG,AFNE01.JPG,,,,,,,,,,,,,,,,,3,7,37,5,,,,,,,AFSA19.jpg,AFNE04.jpg,AFSA17.jpg,AFNE15.jpg,AFSA19.jpg,FS,4,num_8,16,num_8,0.950151212863,,,2017_Oct_12_1134,60.0097585133,FEMA4ImagesEEG,001,101639,
AFNE01.JPG,AFNE01.JPG,AFNE01.JPG,AFNE01.JPG,AFNE01.JPG,AFNE01.JPG,,,,,,,,,,,,,,,,,3,8,38,0,,,,,,,AFNE12.jpg,AFSA16.jpg,AFNE08.jpg,AFSA18.jpg,AFSA18.jpg,FS,4,num_4,16,num_4,0.983445961261,,,2017_Oct_12_1134,60.0097585133,FEMA4ImagesEEG,001,101639,
AFNE01.JPG,AFNE01.JPG,AFNE01.JPG,AFNE01.JPG,AFNE01.JPG,AFNE01.JPG,,,,,,,,,,,,,,,,,3,9,39,2,,,,,,,AFNE20.jpg,AFSA12.jpg,AFNE16.jpg,AFSA15.jpg,AFSA12.jpg,FS,4,num_6,32,num_4,0.81665115885,,,2017_Oct_12_1134,60.0097585133,FEMA4ImagesEEG,001,101639,
AFNE01.JPG,AFNE01.JPG,AFNE01.JPG,AFNE01.JPG,AFNE01.JPG,AFNE01.JPG,,,,,,,,,,,,,,,,,4,0,40,2,,,,,,,AFNE03.jpg,AFNE04.jpg,AFSA14.jpg,AFSA02.jpg,AFSA14.jpg,FS,4,num_2,16,num_2,1.21672634035,,,2017_Oct_12_1134,60.0097585133,FEMA4ImagesEEG,001,101639,
AFNE01.JPG,AFNE01.JPG,AFNE01.JPG,AFNE01.JPG,AFNE01.JPG,AFNE01.JPG,,,,,,,,,,,,,,,,,4,1,41,8,,,,,,,AFSA05.jpg,AFNE02.jpg,AFNE05.jpg,AFSA02.jpg,AFSA05.jpg,FS,4,num_8,32,num_2,0.933342827135,,,2017_Oct_12_1134,60.0097585133,FEMA4ImagesEEG,001,101639,
AFNE01.JPG,AFNE01.JPG,AFNE01.JPG,AFNE01.JPG,AFNE01.JPG,AFNE01.JPG,,,,,,,,,,,,,,,,,4,2,42,0,,,,,,,AFNE16.jpg,AFSA04.jpg,AFNE20.jpg,AFSA13.jpg,AFNE16.jpg,FN,3,num_8,16,num_8,1.50008451508,,,2017_Oct_12_1134,60.0097585133,FEMA4ImagesEEG,001,101639,
AFNE01.JPG,AFNE01.JPG,AFNE01.JPG,AFNE01.JPG,AFNE01.JPG,AFNE01.JPG,,,,,,,,,,,,,,,,,4,3,43,9,,,,,,,AFSA02.jpg,AFNE20.jpg,AFSA17.jpg,AFNE15.jpg,AFNE15.jpg,FN,3,num_4,16,num_4,0.750133187277,,,2017_Oct_12_1134,60.0097585133,FEMA4ImagesEEG,001,101639,
AFNE01.JPG,AFNE01.JPG,AFNE01.JPG,AFNE01.JPG,AFNE01.JPG,AFNE01.JPG,,,,,,,,,,,,,,,,,4,4,44,7,,,,,,,AFSA10.jpg,AFSA19.jpg,AFNE19.jpg,AFNE05.jpg,AFNE19.jpg,FN,3,num_2,16,num_2,1.06673864077,,,2017_Oct_12_1134,60.0097585133,FEMA4ImagesEEG,001,101639,
AFNE01.JPG,AFNE01.JPG,AFNE01.JPG,AFNE01.JPG,AFNE01.JPG,AFNE01.JPG,,,,,,,,,,,,,,,,,4,5,45,1,,,,,,,AFSA16.jpg,AFNE12.jpg,AFNE19.jpg,AFSA01.jpg,AFNE12.jpg,FN,3,num_6,16,num_6,0.83347461943,,,2017_Oct_12_1134,60.0097585133,FEMA4ImagesEEG,001,101639,
AFNE01.JPG,AFNE01.JPG,AFNE01.JPG,AFNE01.JPG,AFNE01.JPG,AFNE01.JPG,,,,,,,,,,,,,,,,,4,6,46,5,,,,,,,AFNE08.jpg,AFSA12.jpg,AFNE15.jpg,AFSA02.jpg,AFNE08.jpg,FN,3,num_8,16,num_8,0.566793006146,,,2017_Oct_12_1134,60.0097585133,FEMA4ImagesEEG,001,101639,
AFNE01.JPG,AFNE01.JPG,AFNE01.JPG,AFNE01.JPG,AFNE01.JPG,AFNE01.JPG,,,,,,,,,,,,,,,,,4,7,47,3,,,,,,,AFNE10.jpg,AFSA09.jpg,AFNE17.jpg,AFSA16.jpg,AFNE10.jpg,FN,3,num_8,32,num_6,0.750119074713,,,2017_Oct_12_1134,60.0097585133,FEMA4ImagesEEG,001,101639,
AFNE01.JPG,AFNE01.JPG,AFNE01.JPG,AFNE01.JPG,AFNE01.JPG,AFNE01.JPG,,,,,,,,,,,,,,,,,4,8,48,4,,,,,,,AFSA10.jpg,AFNE17.jpg,AFSA09.jpg,AFNE10.jpg,AFSA09.jpg,FS,4,num_2,32,num_6,1.18350440008,,,2017_Oct_12_1134,60.0097585133,FEMA4ImagesEEG,001,101639,
AFNE01.JPG,AFNE01.JPG,AFNE01.JPG,AFNE01.JPG,AFNE01.JPG,AFNE01.JPG,,,,,,,,,,,,,,,,,4,9,49,6,,,,,,,AFNE06.jpg,AFSA19.jpg,AFNE20.jpg,AFSA10.jpg,AFSA10.jpg,FS,4,num_4,16,num_4,0.950138383312,,,2017_Oct_12_1134,60.0097585133,FEMA4ImagesEEG,001,101639,
AFNE01.JPG,AFNE01.JPG,AFNE01.JPG,AFNE01.JPG,AFNE01.JPG,AFNE01.JPG,,,,,,,,,,,,,,,,,5,0,50,0,,,,,,,AFNE06.jpg,AFNE04.jpg,AFSA17.jpg,AFSA07.jpg,AFSA17.jpg,FS,4,num_2,16,num_2,0.600154789165,,,2017_Oct_12_1134,60.0097585133,FEMA4ImagesEEG,001,101639,
AFNE01.JPG,AFNE01.JPG,AFNE01.JPG,AFNE01.JPG,AFNE01.JPG,AFNE01.JPG,,,,,,,,,,,,,,,,,5,1,51,1,,,,,,,AFNE18.jpg,AFSA08.jpg,AFNE08.jpg,AFSA10.jpg,AFNE18.jpg,FN,3,num_8,16,num_8,0.750121961348,,,2017_Oct_12_1134,60.0097585133,FEMA4ImagesEEG,001,101639,
AFNE01.JPG,AFNE01.JPG,AFNE01.JPG,AFNE01.JPG,AFNE01.JPG,AFNE01.JPG,,,,,,,,,,,,,,,,,5,2,52,2,,,,,,,AFSA02.jpg,AFNE17.jpg,AFSA19.jpg,AFNE06.jpg,AFSA02.jpg,FS,4,num_8,32,num_6,0.750136394636,,,2017_Oct_12_1134,60.0097585133,FEMA4ImagesEEG,001,101639,
AFNE01.JPG,AFNE01.JPG,AFNE01.JPG,AFNE01.JPG,AFNE01.JPG,AFNE01.JPG,,,,,,,,,,,,,,,,,5,3,53,4,,,,,,,AFNE09.jpg,AFNE20.jpg,AFSA20.jpg,AFSA18.jpg,AFNE20.jpg,FN,3,num_6,16,num_6,0.716768838349,,,2017_Oct_12_1134,60.0097585133,FEMA4ImagesEEG,001,101639,
AFNE01.JPG,AFNE01.JPG,AFNE01.JPG,AFNE01.JPG,AFNE01.JPG,AFNE01.JPG,,,,,,,,,,,,,,,,,5,4,54,7,,,,,,,AFSA16.jpg,AFSA04.jpg,AFNE03.jpg,AFNE01.jpg,AFNE01.jpg,FN,3,num_4,32,num_2,0.83350476902,,,2017_Oct_12_1134,60.0097585133,FEMA4ImagesEEG,001,101639,
AFNE01.JPG,AFNE01.JPG,AFNE01.JPG,AFNE01.JPG,AFNE01.JPG,AFNE01.JPG,,,,,,,,,,,,,,,,,5,5,55,9,,,,,,,AFSA18.jpg,AFSA04.jpg,AFNE01.jpg,AFNE15.jpg,AFNE01.jpg,FN,3,num_2,32,num_6,1.0501419435,,,2017_Oct_12_1134,60.0097585133,FEMA4ImagesEEG,001,101639,
AFNE01.JPG,AFNE01.JPG,AFNE01.JPG,AFNE01.JPG,AFNE01.JPG,AFNE01.JPG,,,,,,,,,,,,,,,,,5,6,56,8,,,,,,,AFSA20.jpg,AFNE13.jpg,AFSA01.jpg,AFNE18.jpg,AFNE18.jpg,FN,3,num_4,16,num_4,0.766824502964,,,2017_Oct_12_1134,60.0097585133,FEMA4ImagesEEG,001,101639,
AFNE01.JPG,AFNE01.JPG,AFNE01.JPG,AFNE01.JPG,AFNE01.JPG,AFNE01.JPG,,,,,,,,,,,,,,,,,5,7,57,6,,,,,,,AFSA01.jpg,AFNE09.jpg,AFNE18.jpg,AFSA18.jpg,AFSA18.jpg,FS,4,num_4,32,num_8,0.566539300838,,,2017_Oct_12_1134,60.0097585133,FEMA4ImagesEEG,001,101639,
AFNE01.JPG,AFNE01.JPG,AFNE01.JPG,AFNE01.JPG,AFNE01.JPG,AFNE01.JPG,,,,,,,,,,,,,,,,,5,8,58,5,,,,,,,AFNE02.jpg,AFSA08.jpg,AFNE20.jpg,AFSA06.jpg,AFNE20.jpg,FN,3,num_2,16,num_2,1.08342129632,,,2017_Oct_12_1134,60.0097585133,FEMA4ImagesEEG,001,101639,
AFNE01.JPG,AFNE01.JPG,AFNE01.JPG,AFNE01.JPG,AFNE01.JPG,AFNE01.JPG,,,,,,,,,,,,,,,,,5,9,59,3,,,,,,,AFSA02.jpg,AFNE10.jpg,AFSA11.jpg,AFNE18.jpg,AFSA11.jpg,FS,4,num_2,16,num_2,0.633370635449,,,2017_Oct_12_1134,60.0097585133,FEMA4ImagesEEG,001,101639,
,,,,,,,,,,,,,,,,,,,,,,,,,,,,,,,,,,,,,,,,,,,space,15.3826561066,2017_Oct_12_1134,60.0097585133,FEMA4ImagesEEG,001,101639,
AFNE01.JPG,AFNE01.JPG,AFNE01.JPG,AFNE01.JPG,AFNE01.JPG,AFNE01.JPG,,,,,,,,,,,,,,,,,,,,,0,0,0,7,,,AMNE08.jpg,AMSA07.jpg,AMSA18.jpg,AMNE11.jpg,AMSA07.jpg,MS,2,num_6,32,num_8,0.883507511346,,,2017_Oct_12_1134,60.0097585133,FEMA4ImagesEEG,001,101639,
AFNE01.JPG,AFNE01.JPG,AFNE01.JPG,AFNE01.JPG,AFNE01.JPG,AFNE01.JPG,,,,,,,,,,,,,,,,,,,,,0,1,1,4,,,AMSA11.jpg,AMNE09.jpg,AMSA08.jpg,AMNE12.jpg,AMNE12.jpg,MN,1,num_4,16,num_4,0.966747268685,,,2017_Oct_12_1134,60.0097585133,FEMA4ImagesEEG,001,101639,
AFNE01.JPG,AFNE01.JPG,AFNE01.JPG,AFNE01.JPG,AFNE01.JPG,AFNE01.JPG,,,,,,,,,,,,,,,,,,,,,0,2,2,5,,,AMSA18.jpg,AMSA15.jpg,AMNE02.jpg,AMNE03.jpg,AMNE02.jpg,MN,1,num_2,32,num_4,0.750120037002,,,2017_Oct_12_1134,60.0097585133,FEMA4ImagesEEG,001,101639,
AFNE01.JPG,AFNE01.JPG,AFNE01.JPG,AFNE01.JPG,AFNE01.JPG,AFNE01.JPG,,,,,,,,,,,,,,,,,,,,,0,3,3,1,,,AMNE15.jpg,AMSA08.jpg,AMNE08.jpg,AMSA14.jpg,AMSA14.jpg,MS,2,num_4,16,num_4,0.416814928758,,,2017_Oct_12_1134,60.0097585133,FEMA4ImagesEEG,001,101639,
AFNE01.JPG,AFNE01.JPG,AFNE01.JPG,AFNE01.JPG,AFNE01.JPG,AFNE01.JPG,,,,,,,,,,,,,,,,,,,,,0,4,4,6,,,AMNE03.jpg,AMNE10.jpg,AMSA04.jpg,AMSA01.jpg,AMNE10.jpg,MN,1,num_6,16,num_6,0.750157884322,,,2017_Oct_12_1134,60.0097585133,FEMA4ImagesEEG,001,101639,
AFNE01.JPG,AFNE01.JPG,AFNE01.JPG,AFNE01.JPG,AFNE01.JPG,AFNE01.JPG,,,,,,,,,,,,,,,,,,,,,0,5,5,9,,,AMNE03.jpg,AMNE15.jpg,AMSA03.jpg,AMSA15.jpg,AMNE03.jpg,MN,1,num_8,16,num_8,0.7498060324,,,2017_Oct_12_1134,60.0097585133,FEMA4ImagesEEG,001,101639,
AFNE01.JPG,AFNE01.JPG,AFNE01.JPG,AFNE01.JPG,AFNE01.JPG,AFNE01.JPG,,,,,,,,,,,,,,,,,,,,,0,6,6,0,,,AMSA06.jpg,AMNE15.jpg,AMNE02.jpg,AMSA02.jpg,AMSA06.jpg,MS,2,num_8,16,num_8,0.833483600058,,,2017_Oct_12_1134,60.0097585133,FEMA4ImagesEEG,001,101639,
AFNE01.JPG,AFNE01.JPG,AFNE01.JPG,AFNE01.JPG,AFNE01.JPG,AFNE01.JPG,,,,,,,,,,,,,,,,,,,,,0,7,7,2,,,AMSA15.jpg,AMNE11.jpg,AMNE06.jpg,AMSA20.jpg,AMSA15.jpg,MS,2,num_8,32,num_2,1.00013342791,,,2017_Oct_12_1134,60.0097585133,FEMA4ImagesEEG,001,101639,
AFNE01.JPG,AFNE01.JPG,AFNE01.JPG,AFNE01.JPG,AFNE01.JPG,AFNE01.JPG,,,,,,,,,,,,,,,,,,,,,0,8,8,8,,,AMNE09.jpg,AMSA17.jpg,AMSA14.jpg,AMNE18.jpg,AMSA17.jpg,MS,2,num_6,16,num_6,0.550037542591,,,2017_Oct_12_1134,60.0097585133,FEMA4ImagesEEG,001,101639,
AFNE01.JPG,AFNE01.JPG,AFNE01.JPG,AFNE01.JPG,AFNE01.JPG,AFNE01.JPG,,,,,,,,,,,,,,,,,,,,,0,9,9,3,,,AMNE02.jpg,AMSA15.jpg,AMSA17.jpg,AMNE12.jpg,AMNE02.jpg,MN,1,num_8,16,num_8,0.716735481517,,,2017_Oct_12_1134,60.0097585133,FEMA4ImagesEEG,001,101639,
AFNE01.JPG,AFNE01.JPG,AFNE01.JPG,AFNE01.JPG,AFNE01.JPG,AFNE01.JPG,,,,,,,,,,,,,,,,,,,,,1,0,10,1,,,AMNE17.jpg,AMSA03.jpg,AMNE08.jpg,AMSA02.jpg,AMSA03.jpg,MS,2,num_6,16,num_6,0.65012321237,,,2017_Oct_12_1134,60.0097585133,FEMA4ImagesEEG,001,101639,
AFNE01.JPG,AFNE01.JPG,AFNE01.JPG,AFNE01.JPG,AFNE01.JPG,AFNE01.JPG,,,,,,,,,,,,,,,,,,,,,1,1,11,7,,,AMSA04.jpg,AMNE07.jpg,AMNE01.jpg,AMSA19.jpg,AMSA04.jpg,MS,2,num_8,16,num_8,1.05007907853,,,2017_Oct_12_1134,60.0097585133,FEMA4ImagesEEG,001,101639,
AFNE01.JPG,AFNE01.JPG,AFNE01.JPG,AFNE01.JPG,AFNE01.JPG,AFNE01.JPG,,,,,,,,,,,,,,,,,,,,,1,2,12,6,,,AMNE12.jpg,AMSA09.jpg,AMSA12.jpg,AMNE07.jpg,AMSA09.jpg,MS,2,num_6,16,num_6,0.566807439434,,,2017_Oct_12_1134,60.0097585133,FEMA4ImagesEEG,001,101639,
AFNE01.JPG,AFNE01.JPG,AFNE01.JPG,AFNE01.JPG,AFNE01.JPG,AFNE01.JPG,,,,,,,,,,,,,,,,,,,,,1,3,13,3,,,AMNE08.jpg,AMSA07.jpg,AMNE06.jpg,AMSA05.jpg,AMNE06.jpg,MN,1,num_2,32,num_8,0.916734262602,,,2017_Oct_12_1134,60.0097585133,FEMA4ImagesEEG,001,101639,
AFNE01.JPG,AFNE01.JPG,AFNE01.JPG,AFNE01.JPG,AFNE01.JPG,AFNE01.JPG,,,,,,,,,,,,,,,,,,,,,1,4,14,4,,,AMNE09.jpg,AMNE10.jpg,AMSA16.jpg,AMSA10.jpg,AMSA10.jpg,MS,2,num_4,16,num_4,0.983509467798,,,2017_Oct_12_1134,60.0097585133,FEMA4ImagesEEG,001,101639,
AFNE01.JPG,AFNE01.JPG,AFNE01.JPG,AFNE01.JPG,AFNE01.JPG,AFNE01.JPG,,,,,,,,,,,,,,,,,,,,,1,5,15,9,,,AMSA04.jpg,AMNE15.jpg,AMNE13.jpg,AMSA17.jpg,AMNE13.jpg,MN,1,num_2,16,num_2,1.15008071426,,,2017_Oct_12_1134,60.0097585133,FEMA4ImagesEEG,001,101639,
AFNE01.JPG,AFNE01.JPG,AFNE01.JPG,AFNE01.JPG,AFNE01.JPG,AFNE01.JPG,,,,,,,,,,,,,,,,,,,,,1,6,16,2,,,AMNE14.jpg,AMNE10.jpg,AMSA11.jpg,AMSA06.jpg,AMNE14.jpg,MN,1,num_8,16,num_8,0.933527573477,,,2017_Oct_12_1134,60.0097585133,FEMA4ImagesEEG,001,101639,
AFNE01.JPG,AFNE01.JPG,AFNE01.JPG,AFNE01.JPG,AFNE01.JPG,AFNE01.JPG,,,,,,,,,,,,,,,,,,,,,1,7,17,8,,,AMSA17.jpg,AMSA02.jpg,AMNE01.jpg,AMNE10.jpg,AMSA02.jpg,MS,2,num_6,32,num_8,0.716734519345,,,2017_Oct_12_1134,60.0097585133,FEMA4ImagesEEG,001,101639,
AFNE01.JPG,AFNE01.JPG,AFNE01.JPG,AFNE01.JPG,AFNE01.JPG,AFNE01.JPG,,,,,,,,,,,,,,,,,,,,,1,8,18,0,,,AMNE08.jpg,AMNE06.jpg,AMSA01.jpg,AMSA13.jpg,AMSA01.jpg,MS,2,num_2,16,num_2,1.41677708144,,,2017_Oct_12_1134,60.0097585133,FEMA4ImagesEEG,001,101639,
AFNE01.JPG,AFNE01.JPG,AFNE01.JPG,AFNE01.JPG,AFNE01.JPG,AFNE01.JPG,,,,,,,,,,,,,,,,,,,,,1,9,19,5,,,AMNE01.jpg,AMNE06.jpg,AMSA04.jpg,AMSA19.jpg,AMSA04.jpg,MS,2,num_2,16,num_2,0.816863168147,,,2017_Oct_12_1134,60.0097585133,FEMA4ImagesEEG,001,101639,
AFNE01.JPG,AFNE01.JPG,AFNE01.JPG,AFNE01.JPG,AFNE01.JPG,AFNE01.JPG,,,,,,,,,,,,,,,,,,,,,2,0,20,6,,,AMSA05.jpg,AMNE05.jpg,AMSA09.jpg,AMNE07.jpg,AMSA09.jpg,MS,2,num_2,32,num_8,0.750125168823,,,2017_Oct_12_1134,60.0097585133,FEMA4ImagesEEG,001,101639,
AFNE01.JPG,AFNE01.JPG,AFNE01.JPG,AFNE01.JPG,AFNE01.JPG,AFNE01.JPG,,,,,,,,,,,,,,,,,,,,,2,1,21,3,,,AMNE02.jpg,AMNE15.jpg,AMSA10.jpg,AMSA12.jpg,AMNE02.jpg,MN,1,num_8,16,num_8,0.683500711573,,,2017_Oct_12_1134,60.0097585133,FEMA4ImagesEEG,001,101639,
AFNE01.JPG,AFNE01.JPG,AFNE01.JPG,AFNE01.JPG,AFNE01.JPG,AFNE01.JPG,,,,,,,,,,,,,,,,,,,,,2,2,22,9,,,AMNE06.jpg,AMNE02.jpg,AMSA08.jpg,AMSA05.jpg,AMNE02.jpg,MN,1,num_6,16,num_6,1.13343975495,,,2017_Oct_12_1134,60.0097585133,FEMA4ImagesEEG,001,101639,
AFNE01.JPG,AFNE01.JPG,AFNE01.JPG,AFNE01.JPG,AFNE01.JPG,AFNE01.JPG,,,,,,,,,,,,,,,,,,,,,2,3,23,4,,,AMSA18.jpg,AMSA14.jpg,AMNE18.jpg,AMNE20.jpg,AMNE18.jpg,MN,1,num_2,32,num_8,1.01676733105,,,2017_Oct_12_1134,60.0097585133,FEMA4ImagesEEG,001,101639,
AFNE01.JPG,AFNE01.JPG,AFNE01.JPG,AFNE01.JPG,AFNE01.JPG,AFNE01.JPG,,,,,,,,,,,,,,,,,,,,,2,4,24,1,,,AMNE13.jpg,AMNE16.jpg,AMSA06.jpg,AMSA13.jpg,AMNE13.jpg,MN,1,num_8,16,num_8,0.533518464537,,,2017_Oct_12_1134,60.0097585133,FEMA4ImagesEEG,001,101639,
AFNE01.JPG,AFNE01.JPG,AFNE01.JPG,AFNE01.JPG,AFNE01.JPG,AFNE01.JPG,,,,,,,,,,,,,,,,,,,,,2,5,25,7,,,AMNE19.jpg,AMSA01.jpg,AMSA02.jpg,AMNE17.jpg,AMNE19.jpg,MN,1,num_8,16,num_8,0.716783271753,,,2017_Oct_12_1134,60.0097585133,FEMA4ImagesEEG,001,101639,
AFNE01.JPG,AFNE01.JPG,AFNE01.JPG,AFNE01.JPG,AFNE01.JPG,AFNE01.JPG,,,,,,,,,,,,,,,,,,,,,2,6,26,0,,,AMSA03.jpg,AMSA19.jpg,AMNE08.jpg,AMNE20.jpg,AMNE20.jpg,MN,1,num_4,32,num_8,0.616819483228,,,2017_Oct_12_1134,60.0097585133,FEMA4ImagesEEG,001,101639,
AFNE01.JPG,AFNE01.JPG,AFNE01.JPG,AFNE01.JPG,AFNE01.JPG,AFNE01.JPG,,,,,,,,,,,,,,,,,,,,,2,7,27,2,,,AMSA11.jpg,AMSA10.jpg,AMNE03.jpg,AMNE15.jpg,AMNE15.jpg,MN,1,num_4,32,num_8,0.650165550062,,,2017_Oct_12_1134,60.0097585133,FEMA4ImagesEEG,001,101639,
AFNE01.JPG,AFNE01.JPG,AFNE01.JPG,AFNE01.JPG,AFNE01.JPG,AFNE01.JPG,,,,,,,,,,,,,,,,,,,,,2,8,28,8,,,AMSA13.jpg,AMNE13.jpg,AMNE10.jpg,AMSA06.jpg,AMNE13.jpg,MN,1,num_6,32,num_8,0.700123388786,,,2017_Oct_12_1134,60.0097585133,FEMA4ImagesEEG,001,101639,
AFNE01.JPG,AFNE01.JPG,AFNE01.JPG,AFNE01.JPG,AFNE01.JPG,AFNE01.JPG,,,,,,,,,,,,,,,,,,,,,2,9,29,5,,,AMSA18.jpg,AMNE05.jpg,AMNE15.jpg,AMSA19.jpg,AMNE05.jpg,MN,1,num_6,16,num_6,0.916803221684,,,2017_Oct_12_1134,60.0097585133,FEMA4ImagesEEG,001,101639,
AFNE01.JPG,AFNE01.JPG,AFNE01.JPG,AFNE01.JPG,AFNE01.JPG,AFNE01.JPG,,,,,,,,,,,,,,,,,,,,,3,0,30,8,,,AMNE01.jpg,AMNE19.jpg,AMSA11.jpg,AMSA02.jpg,AMNE19.jpg,MN,1,num_6,16,num_6,0.483556456282,,,2017_Oct_12_1134,60.0097585133,FEMA4ImagesEEG,001,101639,
AFNE01.JPG,AFNE01.JPG,AFNE01.JPG,AFNE01.JPG,AFNE01.JPG,AFNE01.JPG,,,,,,,,,,,,,,,,,,,,,3,1,31,7,,,AMSA13.jpg,AMNE20.jpg,AMSA05.jpg,AMNE08.jpg,AMSA13.jpg,MS,2,num_8,16,num_8,0.550163593492,,,2017_Oct_12_1134,60.0097585133,FEMA4ImagesEEG,001,101639,
AFNE01.JPG,AFNE01.JPG,AFNE01.JPG,AFNE01.JPG,AFNE01.JPG,AFNE01.JPG,,,,,,,,,,,,,,,,,,,,,3,2,32,3,,,AMSA07.jpg,AMNE14.jpg,AMSA17.jpg,AMNE08.jpg,AMNE14.jpg,MN,1,num_6,32,num_8,0.633504384081,,,2017_Oct_12_1134,60.0097585133,FEMA4ImagesEEG,001,101639,
AFNE01.JPG,AFNE01.JPG,AFNE01.JPG,AFNE01.JPG,AFNE01.JPG,AFNE01.JPG,,,,,,,,,,,,,,,,,,,,,3,3,33,9,,,AMNE10.jpg,AMNE13.jpg,AMSA04.jpg,AMSA06.jpg,AMNE13.jpg,MN,1,num_6,32,num_8,0.566799741704,,,2017_Oct_12_1134,60.0097585133,FEMA4ImagesEEG,001,101639,
AFNE01.JPG,AFNE01.JPG,AFNE01.JPG,AFNE01.JPG,AFNE01.JPG,AFNE01.JPG,,,,,,,,,,,,,,,,,,,,,3,4,34,5,,,AMNE04.jpg,AMSA05.jpg,AMSA01.jpg,AMNE18.jpg,AMNE04.jpg,MN,1,num_8,32,num_2,0.883495002403,,,2017_Oct_12_1134,60.0097585133,FEMA4ImagesEEG,001,101639,
AFNE01.JPG,AFNE01.JPG,AFNE01.JPG,AFNE01.JPG,AFNE01.JPG,AFNE01.JPG,,,,,,,,,,,,,,,,,,,,,3,5,35,1,,,AMNE15.jpg,AMSA19.jpg,AMNE10.jpg,AMSA01.jpg,AMSA01.jpg,MS,2,num_4,16,num_4,0.616835840978,,,2017_Oct_12_1134,60.0097585133,FEMA4ImagesEEG,001,101639,
AFNE01.JPG,AFNE01.JPG,AFNE01.JPG,AFNE01.JPG,AFNE01.JPG,AFNE01.JPG,,,,,,,,,,,,,,,,,,,,,3,6,36,2,,,AMNE05.jpg,AMSA09.jpg,AMNE06.jpg,AMSA19.jpg,AMSA09.jpg,MS,2,num_6,16,num_6,0.749881727039,,,2017_Oct_12_1134,60.0097585133,FEMA4ImagesEEG,001,101639,
AFNE01.JPG,AFNE01.JPG,AFNE01.JPG,AFNE01.JPG,AFNE01.JPG,AFNE01.JPG,,,,,,,,,,,,,,,,,,,,,3,7,37,0,,,AMSA04.jpg,AMSA18.jpg,AMNE20.jpg,AMNE19.jpg,AMSA04.jpg,MS,2,num_8,16,num_8,0.566884096479,,,2017_Oct_12_1134,60.0097585133,FEMA4ImagesEEG,001,101639,
AFNE01.JPG,AFNE01.JPG,AFNE01.JPG,AFNE01.JPG,AFNE01.JPG,AFNE01.JPG,,,,,,,,,,,,,,,,,,,,,3,8,38,4,,,AMNE20.jpg,AMSA02.jpg,AMSA11.jpg,AMNE02.jpg,AMSA02.jpg,MS,2,num_6,32,num_4,0.766871331027,,,2017_Oct_12_1134,60.0097585133,FEMA4ImagesEEG,001,101639,
