IPosition2,IPosition3,IPosition1,IPosition6,IPosition4,IPosition5,TrialsF1.thisRepN,TrialsF1.thisTrialN,TrialsF1.thisN,TrialsF1.thisIndex,TrialsM1.thisRepN,TrialsM1.thisTrialN,TrialsM1.thisN,TrialsM1.thisIndex,TrialsF2.thisRepN,TrialsF2.thisTrialN,TrialsF2.thisN,TrialsF2.thisIndex,TrialsM2.thisRepN,TrialsM2.thisTrialN,TrialsM2.thisN,TrialsM2.thisIndex,TrialsF3.thisRepN,TrialsF3.thisTrialN,TrialsF3.thisN,TrialsF3.thisIndex,TrialsM3.thisRepN,TrialsM3.thisTrialN,TrialsM3.thisN,TrialsM3.thisIndex,InstrKey_resp.keys,InstrKey_resp.rt,Image0 _Position,Image1 _Position,Image2 _Position,Image3 _Position,Center_image,condition,code,correct_answer,accuracy,Key_Resp.keys,Key_Resp.rt,BreakKey_resp.keys,BreakKey_resp.rt,date,frameRate,expName,session,participant,
,,,,,,,,,,,,,,,,,,,,,,,,,,,,,,space,2.93341832934,,,,,,,,,,,,,,2017_Nov_01_1534,60.0064090407,FEMA4ImagesEEG,001,101659,
AMSA21.JPG,AMNE22.JPG,AMNE21.JPG,AMSA23.JPG,AMSA22.JPG,AMNE23.JPG,0,0,0,1,,,,,,,,,,,,,,,,,,,,,,,AFSA02.jpg,AFSA07.jpg,AFNE20.jpg,AFNE13.jpg,AFSA07.jpg,FS,4,num_6,16,num_6,0.666775718099,,,2017_Nov_01_1534,60.0064090407,FEMA4ImagesEEG,001,101659,
AMNE22.JPG,AMSA24.JPG,AMSA22.JPG,AMNE25.JPG,AMNE24.JPG,AMSA25.JPG,0,1,1,7,,,,,,,,,,,,,,,,,,,,,,,AFNE02.jpg,AFSA10.jpg,AFNE04.jpg,AFSA15.jpg,AFSA10.jpg,FS,4,num_6,16,num_6,0.600203027949,,,2017_Nov_01_1534,60.0064090407,FEMA4ImagesEEG,001,101659,
AMSA25.JPG,AMNE24.JPG,AMSA24.JPG,AMNE26.JPG,AMSA21.JPG,AMNE25.JPG,0,2,2,3,,,,,,,,,,,,,,,,,,,,,,,AFNE18.jpg,AFSA20.jpg,AFSA01.jpg,AFNE15.jpg,AFNE18.jpg,FN,3,num_8,16,num_8,2.00014850241,,,2017_Nov_01_1534,60.0064090407,FEMA4ImagesEEG,001,101659,
AMNE23.JPG,AMNE24.JPG,AMNE22.JPG,AMSA24.JPG,AMSA22.JPG,AMSA23.JPG,0,3,3,9,,,,,,,,,,,,,,,,,,,,,,,AFSA13.jpg,AFSA07.jpg,AFNE20.jpg,AFNE04.jpg,AFSA13.jpg,FS,4,num_8,16,num_8,1.7166731616,,,2017_Nov_01_1534,60.0064090407,FEMA4ImagesEEG,001,101659,
AFSA21.JPG,AFNE22.JPG,AFNE21.JPG,AFSA23.JPG,AFSA22.JPG,AFNE23.JPG,0,4,4,0,,,,,,,,,,,,,,,,,,,,,,,AFNE06.jpg,AFSA18.jpg,AFSA20.jpg,AFNE02.jpg,AFNE06.jpg,FN,3,num_8,32,num_2,1.86668494879,,,2017_Nov_01_1534,60.0064090407,FEMA4ImagesEEG,001,101659,
AFSA25.JPG,AFNE24.JPG,AFSA24.JPG,AFNE21.JPG,AFSA21.JPG,AFNE25.JPG,0,5,5,2,,,,,,,,,,,,,,,,,,,,,,,AFSA09.jpg,AFNE09.jpg,AFNE18.jpg,AFSA20.jpg,AFSA09.jpg,FS,4,num_8,32,num_4,0.933529305272,,,2017_Nov_01_1534,60.0064090407,FEMA4ImagesEEG,001,101659,
AFNE22.JPG,AFSA24.JPG,AFSA22.JPG,AFNE25.JPG,AFNE24.JPG,AFSA25.JPG,0,6,6,6,,,,,,,,,,,,,,,,,,,,,,,AFNE14.jpg,AFSA19.jpg,AFNE04.jpg,AFSA04.jpg,AFNE14.jpg,FN,3,num_8,16,num_8,2.51666097366,,,2017_Nov_01_1534,60.0064090407,FEMA4ImagesEEG,001,101659,
AFNE23.JPG,AFNE24.JPG,AFNE22.JPG,AFSA24.JPG,AFSA22.JPG,AFSA23.JPG,0,7,7,8,,,,,,,,,,,,,,,,,,,,,,,AFSA02.jpg,AFNE09.jpg,AFSA18.jpg,AFNE11.jpg,AFNE11.jpg,FN,3,num_4,32,num_8,1.18344599311,,,2017_Nov_01_1534,60.0064090407,FEMA4ImagesEEG,001,101659,
AFSA21.JPG,AFNE23.JPG,AFNE21.JPG,AFSA25.JPG,AFNE25.JPG,AFSA23.JPG,0,8,8,4,,,,,,,,,,,,,,,,,,,,,,,AFNE05.jpg,AFSA15.jpg,AFNE15.jpg,AFSA12.jpg,AFNE05.jpg,FN,3,num_8,16,num_8,0.883420173544,,,2017_Nov_01_1534,60.0064090407,FEMA4ImagesEEG,001,101659,
AMSA21.JPG,AMNE23.JPG,AMNE21.JPG,AMSA25.JPG,AMNE25.JPG,AMSA23.JPG,0,9,9,5,,,,,,,,,,,,,,,,,,,,,,,AFNE13.jpg,AFSA14.jpg,AFSA03.jpg,AFNE12.jpg,AFSA14.jpg,FS,4,num_6,16,num_6,1.8500802652,,,2017_Nov_01_1534,60.0064090407,FEMA4ImagesEEG,001,101659,
AMSA21.JPG,AMNE22.JPG,AMNE21.JPG,AMSA23.JPG,AMSA22.JPG,AMNE23.JPG,,,,,0,0,0,1,,,,,,,,,,,,,,,,,,,AMNE07.jpg,AMSA05.jpg,AMSA20.jpg,AMNE06.jpg,AMNE06.jpg,MN,1,num_4,32,num_8,2.01666337904,,,2017_Nov_01_1534,60.0064090407,FEMA4ImagesEEG,001,101659,
AFSA21.JPG,AFNE22.JPG,AFNE21.JPG,AFSA23.JPG,AFSA22.JPG,AFNE23.JPG,,,,,0,1,1,0,,,,,,,,,,,,,,,,,,,AMSA17.jpg,AMNE02.jpg,AMSA14.jpg,AMNE03.jpg,AMNE03.jpg,MN,1,num_4,32,num_6,1.35008748178,,,2017_Nov_01_1534,60.0064090407,FEMA4ImagesEEG,001,101659,
AMSA21.JPG,AMNE23.JPG,AMNE21.JPG,AMSA25.JPG,AMNE25.JPG,AMSA23.JPG,,,,,0,2,2,5,,,,,,,,,,,,,,,,,,,AMSA17.jpg,AMSA18.jpg,AMNE05.jpg,AMNE20.jpg,AMSA18.jpg,MS,2,num_6,32,num_8,3.38328049146,,,2017_Nov_01_1534,60.0064090407,FEMA4ImagesEEG,001,101659,
AMSA25.JPG,AMNE24.JPG,AMSA24.JPG,AMNE26.JPG,AMSA21.JPG,AMNE25.JPG,,,,,0,3,3,3,,,,,,,,,,,,,,,,,,,AMNE14.jpg,AMSA08.jpg,AMSA10.jpg,AMNE10.jpg,AMNE14.jpg,MN,1,num_8,32,num_4,1.23347622296,,,2017_Nov_01_1534,60.0064090407,FEMA4ImagesEEG,001,101659,
AMNE23.JPG,AMNE24.JPG,AMNE22.JPG,AMSA24.JPG,AMSA22.JPG,AMSA23.JPG,,,,,0,4,4,9,,,,,,,,,,,,,,,,,,,AMNE08.jpg,AMSA09.jpg,AMNE01.jpg,AMSA05.jpg,AMSA05.jpg,MS,2,num_4,32,num_2,1.80007697758,,,2017_Nov_01_1534,60.0064090407,FEMA4ImagesEEG,001,101659,
AFSA25.JPG,AFNE24.JPG,AFSA24.JPG,AFNE21.JPG,AFSA21.JPG,AFNE25.JPG,,,,,0,5,5,2,,,,,,,,,,,,,,,,,,,AMSA19.jpg,AMNE11.jpg,AMNE14.jpg,AMSA07.jpg,AMSA19.jpg,MS,2,num_8,48,None,,,,2017_Nov_01_1534,60.0064090407,FEMA4ImagesEEG,001,101659,
AFNE23.JPG,AFNE24.JPG,AFNE22.JPG,AFSA24.JPG,AFSA22.JPG,AFSA23.JPG,,,,,0,6,6,8,,,,,,,,,,,,,,,,,,,AMSA07.jpg,AMNE13.jpg,AMNE09.jpg,AMSA13.jpg,AMSA13.jpg,MS,2,num_4,32,num_2,3.96649009967,,,2017_Nov_01_1534,60.0064090407,FEMA4ImagesEEG,001,101659,
AFSA21.JPG,AFNE23.JPG,AFNE21.JPG,AFSA25.JPG,AFNE25.JPG,AFSA23.JPG,,,,,0,7,7,4,,,,,,,,,,,,,,,,,,,AMNE18.jpg,AMNE02.jpg,AMSA11.jpg,AMSA18.jpg,AMNE02.jpg,MN,1,num_6,16,num_6,1.16670916462,,,2017_Nov_01_1534,60.0064090407,FEMA4ImagesEEG,001,101659,
AMNE22.JPG,AMSA24.JPG,AMSA22.JPG,AMNE25.JPG,AMNE24.JPG,AMSA25.JPG,,,,,0,8,8,7,,,,,,,,,,,,,,,,,,,AMNE10.jpg,AMNE05.jpg,AMSA12.jpg,AMSA10.jpg,AMSA12.jpg,MS,2,num_2,16,num_2,1.75005733222,,,2017_Nov_01_1534,60.0064090407,FEMA4ImagesEEG,001,101659,
AFNE22.JPG,AFSA24.JPG,AFSA22.JPG,AFNE25.JPG,AFNE24.JPG,AFSA25.JPG,,,,,0,9,9,6,,,,,,,,,,,,,,,,,,,AMNE07.jpg,AMSA20.jpg,AMNE19.jpg,AMSA04.jpg,AMNE19.jpg,MN,1,num_2,32,num_8,1.61700624973,,,2017_Nov_01_1534,60.0064090407,FEMA4ImagesEEG,001,101659,
AMNE22.JPG,AMSA24.JPG,AMSA22.JPG,AMNE25.JPG,AMNE24.JPG,AMSA25.JPG,,,,,,,,,0,0,0,7,,,,,,,,,,,,,,,AFSA04.jpg,AFNE10.jpg,AFSA07.jpg,AFNE17.jpg,AFNE10.jpg,FN,3,num_6,32,num_8,2.21664349316,,,2017_Nov_01_1534,60.0064090407,FEMA4ImagesEEG,001,101659,
AMSA25.JPG,AMNE24.JPG,AMSA24.JPG,AMNE26.JPG,AMSA21.JPG,AMNE25.JPG,,,,,,,,,0,1,1,3,,,,,,,,,,,,,,,AFNE06.jpg,AFSA01.jpg,AFSA05.jpg,AFNE04.jpg,AFNE06.jpg,FN,3,num_8,32,num_6,1.23344126227,,,2017_Nov_01_1534,60.0064090407,FEMA4ImagesEEG,001,101659,
AFNE23.JPG,AFNE24.JPG,AFNE22.JPG,AFSA24.JPG,AFSA22.JPG,AFSA23.JPG,,,,,,,,,0,2,2,8,,,,,,,,,,,,,,,AFSA12.jpg,AFNE14.jpg,AFNE10.jpg,AFSA19.jpg,AFNE14.jpg,FN,3,num_6,16,num_6,1.41672047065,,,2017_Nov_01_1534,60.0064090407,FEMA4ImagesEEG,001,101659,
AMNE23.JPG,AMNE24.JPG,AMNE22.JPG,AMSA24.JPG,AMSA22.JPG,AMSA23.JPG,,,,,,,,,0,3,3,9,,,,,,,,,,,,,,,AFSA12.jpg,AFSA18.jpg,AFNE02.jpg,AFNE20.jpg,AFSA12.jpg,FS,4,num_8,32,num_6,2.56662128214,,,2017_Nov_01_1534,60.0064090407,FEMA4ImagesEEG,001,101659,
AFSA21.JPG,AFNE23.JPG,AFNE21.JPG,AFSA25.JPG,AFNE25.JPG,AFSA23.JPG,,,,,,,,,0,4,4,4,,,,,,,,,,,,,,,AFNE01.jpg,AFSA11.jpg,AFSA17.jpg,AFNE17.jpg,AFSA11.jpg,FS,4,num_6,32,num_2,4.06651816424,,,2017_Nov_01_1534,60.0064090407,FEMA4ImagesEEG,001,101659,
AFSA21.JPG,AFNE22.JPG,AFNE21.JPG,AFSA23.JPG,AFSA22.JPG,AFNE23.JPG,,,,,,,,,0,5,5,0,,,,,,,,,,,,,,,AFNE20.jpg,AFSA04.jpg,AFNE09.jpg,AFSA11.jpg,AFNE20.jpg,FN,3,num_8,16,num_8,1.75003840844,,,2017_Nov_01_1534,60.0064090407,FEMA4ImagesEEG,001,101659,
AMSA21.JPG,AMNE23.JPG,AMNE21.JPG,AMSA25.JPG,AMNE25.JPG,AMSA23.JPG,,,,,,,,,0,6,6,5,,,,,,,,,,,,,,,AFSA06.jpg,AFNE11.jpg,AFSA17.jpg,AFNE03.jpg,AFSA06.jpg,FS,4,num_8,32,num_6,1.26664613932,,,2017_Nov_01_1534,60.0064090407,FEMA4ImagesEEG,001,101659,
AFNE22.JPG,AFSA24.JPG,AFSA22.JPG,AFNE25.JPG,AFNE24.JPG,AFSA25.JPG,,,,,,,,,0,7,7,6,,,,,,,,,,,,,,,AFNE03.jpg,AFSA09.jpg,AFSA03.jpg,AFNE12.jpg,AFNE03.jpg,FN,3,num_8,32,num_2,1.9833395076,,,2017_Nov_01_1534,60.0064090407,FEMA4ImagesEEG,001,101659,
AFSA25.JPG,AFNE24.JPG,AFSA24.JPG,AFNE21.JPG,AFSA21.JPG,AFNE25.JPG,,,,,,,,,0,8,8,2,,,,,,,,,,,,,,,AFSA09.jpg,AFNE15.jpg,AFNE02.jpg,AFSA19.jpg,AFNE02.jpg,FN,3,num_2,32,num_4,1.46672600345,,,2017_Nov_01_1534,60.0064090407,FEMA4ImagesEEG,001,101659,
AMSA21.JPG,AMNE22.JPG,AMNE21.JPG,AMSA23.JPG,AMSA22.JPG,AMNE23.JPG,,,,,,,,,0,9,9,1,,,,,,,,,,,,,,,AFNE07.jpg,AFNE13.jpg,AFSA08.jpg,AFSA13.jpg,AFNE13.jpg,FN,3,num_6,32,num_2,2.78327119001,,,2017_Nov_01_1534,60.0064090407,FEMA4ImagesEEG,001,101659,
AMNE23.JPG,AMNE24.JPG,AMNE22.JPG,AMSA24.JPG,AMSA22.JPG,AMSA23.JPG,,,,,,,,,,,,,0,0,0,9,,,,,,,,,,,AMSA13.jpg,AMNE15.jpg,AMNE10.jpg,AMSA15.jpg,AMSA15.jpg,MS,2,num_4,16,num_4,0.55011763121,,,2017_Nov_01_1534,60.0064090407,FEMA4ImagesEEG,001,101659,
AFNE22.JPG,AFSA24.JPG,AFSA22.JPG,AFNE25.JPG,AFNE24.JPG,AFSA25.JPG,,,,,,,,,,,,,0,1,1,6,,,,,,,,,,,AMSA17.jpg,AMNE07.jpg,AMSA07.jpg,AMNE06.jpg,AMNE07.jpg,MN,1,num_6,32,num_8,1.30008483562,,,2017_Nov_01_1534,60.0064090407,FEMA4ImagesEEG,001,101659,
AFSA21.JPG,AFNE23.JPG,AFNE21.JPG,AFSA25.JPG,AFNE25.JPG,AFSA23.JPG,,,,,,,,,,,,,0,2,2,4,,,,,,,,,,,AMSA02.jpg,AMSA03.jpg,AMNE01.jpg,AMNE06.jpg,AMNE01.jpg,MN,1,num_2,16,num_2,1.00012829574,,,2017_Nov_01_1534,60.0064090407,FEMA4ImagesEEG,001,101659,
AMSA25.JPG,AMNE24.JPG,AMSA24.JPG,AMNE26.JPG,AMSA21.JPG,AMNE25.JPG,,,,,,,,,,,,,0,3,3,3,,,,,,,,,,,AMSA11.jpg,AMSA05.jpg,AMNE02.jpg,AMNE04.jpg,AMSA11.jpg,MS,2,num_8,16,num_8,1.2500802651,,,2017_Nov_01_1534,60.0064090407,FEMA4ImagesEEG,001,101659,
AMSA21.JPG,AMNE23.JPG,AMNE21.JPG,AMSA25.JPG,AMNE25.JPG,AMSA23.JPG,,,,,,,,,,,,,0,4,4,5,,,,,,,,,,,AMSA01.jpg,AMSA15.jpg,AMNE06.jpg,AMNE18.jpg,AMSA15.jpg,MS,2,num_6,16,num_6,0.700093816267,,,2017_Nov_01_1534,60.0064090407,FEMA4ImagesEEG,001,101659,
AFSA21.JPG,AFNE22.JPG,AFNE21.JPG,AFSA23.JPG,AFSA22.JPG,AFNE23.JPG,,,,,,,,,,,,,0,5,5,0,,,,,,,,,,,AMNE09.jpg,AMNE17.jpg,AMSA01.jpg,AMSA19.jpg,AMSA19.jpg,MS,2,num_4,32,num_8,1.76667805295,,,2017_Nov_01_1534,60.0064090407,FEMA4ImagesEEG,001,101659,
AFNE23.JPG,AFNE24.JPG,AFNE22.JPG,AFSA24.JPG,AFSA22.JPG,AFSA23.JPG,,,,,,,,,,,,,0,6,6,8,,,,,,,,,,,AMNE20.jpg,AMNE06.jpg,AMSA17.jpg,AMSA06.jpg,AMNE20.jpg,MN,1,num_8,32,num_6,2.14968174626,,,2017_Nov_01_1534,60.0064090407,FEMA4ImagesEEG,001,101659,
AFSA25.JPG,AFNE24.JPG,AFSA24.JPG,AFNE21.JPG,AFSA21.JPG,AFNE25.JPG,,,,,,,,,,,,,0,7,7,2,,,,,,,,,,,AMSA11.jpg,AMNE08.jpg,AMNE15.jpg,AMSA05.jpg,AMNE15.jpg,MN,1,num_2,16,num_2,2.3166718788,,,2017_Nov_01_1534,60.0064090407,FEMA4ImagesEEG,001,101659,
AMSA21.JPG,AMNE22.JPG,AMNE21.JPG,AMSA23.JPG,AMSA22.JPG,AMNE23.JPG,,,,,,,,,,,,,0,8,8,1,,,,,,,,,,,AMSA20.jpg,AMSA18.jpg,AMNE02.jpg,AMNE11.jpg,AMNE11.jpg,MN,1,num_4,16,num_4,1.66702172533,,,2017_Nov_01_1534,60.0064090407,FEMA4ImagesEEG,001,101659,
AMNE22.JPG,AMSA24.JPG,AMSA22.JPG,AMNE25.JPG,AMNE24.JPG,AMSA25.JPG,,,,,,,,,,,,,0,9,9,7,,,,,,,,,,,AMNE10.jpg,AMNE08.jpg,AMSA20.jpg,AMSA07.jpg,AMSA07.jpg,MS,2,num_4,32,num_6,1.98338761856,,,2017_Nov_01_1534,60.0064090407,FEMA4ImagesEEG,001,101659,
AFSA25.JPG,AFNE24.JPG,AFSA24.JPG,AFNE21.JPG,AFSA21.JPG,AFNE25.JPG,,,,,,,,,,,,,,,,,0,0,0,2,,,,,,,AFNE06.jpg,AFNE15.jpg,AFSA18.jpg,AFSA14.jpg,AFSA14.jpg,FS,4,num_4,32,num_8,1.03342650807,,,2017_Nov_01_1534,60.0064090407,FEMA4ImagesEEG,001,101659,
AMNE23.JPG,AMNE24.JPG,AMNE22.JPG,AMSA24.JPG,AMSA22.JPG,AMSA23.JPG,,,,,,,,,,,,,,,,,0,1,1,9,,,,,,,AFNE08.jpg,AFNE07.jpg,AFSA09.jpg,AFSA18.jpg,AFNE07.jpg,FN,3,num_6,16,num_6,2.08335698792,,,2017_Nov_01_1534,60.0064090407,FEMA4ImagesEEG,001,101659,
AFSA21.JPG,AFNE22.JPG,AFNE21.JPG,AFSA23.JPG,AFSA22.JPG,AFNE23.JPG,,,,,,,,,,,,,,,,,0,2,2,0,,,,,,,AFNE07.jpg,AFSA18.jpg,AFSA05.jpg,AFNE20.jpg,AFNE07.jpg,FN,3,num_8,16,num_8,0.583472293569,,,2017_Nov_01_1534,60.0064090407,FEMA4ImagesEEG,001,101659,
AFNE22.JPG,AFSA24.JPG,AFSA22.JPG,AFNE25.JPG,AFNE24.JPG,AFSA25.JPG,,,,,,,,,,,,,,,,,0,3,3,6,,,,,,,AFSA02.jpg,AFNE19.jpg,AFSA06.jpg,AFNE04.jpg,AFNE19.jpg,FN,3,num_6,32,num_2,1.11667797272,,,2017_Nov_01_1534,60.0064090407,FEMA4ImagesEEG,001,101659,
AMNE22.JPG,AMSA24.JPG,AMSA22.JPG,AMNE25.JPG,AMNE24.JPG,AMSA25.JPG,,,,,,,,,,,,,,,,,0,4,4,7,,,,,,,AFNE13.jpg,AFSA02.jpg,AFSA14.jpg,AFNE14.jpg,AFSA02.jpg,FS,4,num_6,16,num_6,0.533474779455,,,2017_Nov_01_1534,60.0064090407,FEMA4ImagesEEG,001,101659,
AMSA25.JPG,AMNE24.JPG,AMSA24.JPG,AMNE26.JPG,AMSA21.JPG,AMNE25.JPG,,,,,,,,,,,,,,,,,0,5,5,3,,,,,,,AFNE02.jpg,AFSA10.jpg,AFNE09.jpg,AFSA12.jpg,AFNE02.jpg,FN,3,num_8,16,num_8,1.65007192595,,,2017_Nov_01_1534,60.0064090407,FEMA4ImagesEEG,001,101659,
AFNE23.JPG,AFNE24.JPG,AFNE22.JPG,AFSA24.JPG,AFSA22.JPG,AFSA23.JPG,,,,,,,,,,,,,,,,,0,6,6,8,,,,,,,AFSA16.jpg,AFNE02.jpg,AFSA07.jpg,AFNE20.jpg,AFNE20.jpg,FN,3,num_4,32,num_2,1.16672071139,,,2017_Nov_01_1534,60.0064090407,FEMA4ImagesEEG,001,101659,
AFSA21.JPG,AFNE23.JPG,AFNE21.JPG,AFSA25.JPG,AFNE25.JPG,AFSA23.JPG,,,,,,,,,,,,,,,,,0,7,7,4,,,,,,,AFNE14.jpg,AFSA13.jpg,AFNE19.jpg,AFSA04.jpg,AFSA13.jpg,FS,4,num_6,32,num_8,1.06677218992,,,2017_Nov_01_1534,60.0064090407,FEMA4ImagesEEG,001,101659,
AMSA21.JPG,AMNE23.JPG,AMNE21.JPG,AMSA25.JPG,AMNE25.JPG,AMSA23.JPG,,,,,,,,,,,,,,,,,0,8,8,5,,,,,,,AFNE03.jpg,AFSA15.jpg,AFSA17.jpg,AFNE09.jpg,AFNE03.jpg,FN,3,num_8,16,num_8,1.25010945229,,,2017_Nov_01_1534,60.0064090407,FEMA4ImagesEEG,001,101659,
AMSA21.JPG,AMNE22.JPG,AMNE21.JPG,AMSA23.JPG,AMSA22.JPG,AMNE23.JPG,,,,,,,,,,,,,,,,,0,9,9,1,,,,,,,AFSA16.jpg,AFSA20.jpg,AFNE18.jpg,AFNE04.jpg,AFSA20.jpg,FS,4,num_6,32,num_8,4.18346716184,,,2017_Nov_01_1534,60.0064090407,FEMA4ImagesEEG,001,101659,
AMNE23.JPG,AMNE24.JPG,AMNE22.JPG,AMSA24.JPG,AMSA22.JPG,AMSA23.JPG,,,,,,,,,,,,,,,,,,,,,0,0,0,9,,,AMNE20.jpg,AMSA10.jpg,AMSA01.jpg,AMNE03.jpg,AMSA10.jpg,MS,2,num_6,16,num_6,1.38339435402,,,2017_Nov_01_1534,60.0064090407,FEMA4ImagesEEG,001,101659,
AMSA21.JPG,AMNE22.JPG,AMNE21.JPG,AMSA23.JPG,AMSA22.JPG,AMNE23.JPG,,,,,,,,,,,,,,,,,,,,,0,1,1,1,,,AMNE02.jpg,AMNE03.jpg,AMSA02.jpg,AMSA17.jpg,AMSA17.jpg,MS,2,num_4,32,num_8,0.933583189268,,,2017_Nov_01_1534,60.0064090407,FEMA4ImagesEEG,001,101659,
AFSA21.JPG,AFNE22.JPG,AFNE21.JPG,AFSA23.JPG,AFSA22.JPG,AFNE23.JPG,,,,,,,,,,,,,,,,,,,,,0,2,2,0,,,AMSA04.jpg,AMNE02.jpg,AMSA10.jpg,AMNE13.jpg,AMNE13.jpg,MN,1,num_4,32,num_6,1.36674957769,,,2017_Nov_01_1534,60.0064090407,FEMA4ImagesEEG,001,101659,
AFSA21.JPG,AFNE23.JPG,AFNE21.JPG,AFSA25.JPG,AFNE25.JPG,AFSA23.JPG,,,,,,,,,,,,,,,,,,,,,0,3,3,4,,,AMSA17.jpg,AMSA05.jpg,AMNE07.jpg,AMNE05.jpg,AMSA17.jpg,MS,2,num_8,32,num_4,0.950125328964,,,2017_Nov_01_1534,60.0064090407,FEMA4ImagesEEG,001,101659,
AFSA25.JPG,AFNE24.JPG,AFSA24.JPG,AFNE21.JPG,AFSA21.JPG,AFNE25.JPG,,,,,,,,,,,,,,,,,,,,,0,4,4,2,,,AMSA06.jpg,AMNE17.jpg,AMNE20.jpg,AMSA19.jpg,AMSA19.jpg,MS,2,num_4,32,num_2,0.950113782426,,,2017_Nov_01_1534,60.0064090407,FEMA4ImagesEEG,001,101659,
AMSA25.JPG,AMNE24.JPG,AMSA24.JPG,AMNE26.JPG,AMSA21.JPG,AMNE25.JPG,,,,,,,,,,,,,,,,,,,,,0,5,5,3,,,AMNE08.jpg,AMNE11.jpg,AMSA02.jpg,AMSA03.jpg,AMNE11.jpg,MN,1,num_6,32,num_8,1.53339363215,,,2017_Nov_01_1534,60.0064090407,FEMA4ImagesEEG,001,101659,
AMNE22.JPG,AMSA24.JPG,AMSA22.JPG,AMNE25.JPG,AMNE24.JPG,AMSA25.JPG,,,,,,,,,,,,,,,,,,,,,0,6,6,7,,,AMSA16.jpg,AMNE07.jpg,AMSA13.jpg,AMNE16.jpg,AMSA16.jpg,MS,2,num_8,32,num_2,2.51661606994,,,2017_Nov_01_1534,60.0064090407,FEMA4ImagesEEG,001,101659,
AMSA21.JPG,AMNE23.JPG,AMNE21.JPG,AMSA25.JPG,AMNE25.JPG,AMSA23.JPG,,,,,,,,,,,,,,,,,,,,,0,7,7,5,,,AMSA08.jpg,AMNE11.jpg,AMNE09.jpg,AMSA02.jpg,AMNE09.jpg,MN,1,num_2,32,num_8,1.93321081088,,,2017_Nov_01_1534,60.0064090407,FEMA4ImagesEEG,001,101659,
AFNE23.JPG,AFNE24.JPG,AFNE22.JPG,AFSA24.JPG,AFSA22.JPG,AFSA23.JPG,,,,,,,,,,,,,,,,,,,,,0,8,8,8,,,AMSA13.jpg,AMSA07.jpg,AMNE14.jpg,AMNE09.jpg,AMSA13.jpg,MS,2,num_8,16,num_8,0.8834538511,,,2017_Nov_01_1534,60.0064090407,FEMA4ImagesEEG,001,101659,
AFNE22.JPG,AFSA24.JPG,AFSA22.JPG,AFNE25.JPG,AFNE24.JPG,AFSA25.JPG,,,,,,,,,,,,,,,,,,,,,0,9,9,6,,,AMNE06.jpg,AMSA03.jpg,AMSA07.jpg,AMNE07.jpg,AMNE06.jpg,MN,1,num_8,32,num_2,1.10011915467,,,2017_Nov_01_1534,60.0064090407,FEMA4ImagesEEG,001,101659,
,,,,,,,,,,,,,,,,,,,,,,,,,,,,,,,,,,,,,,,,,,,space,6.08304138016,2017_Nov_01_1534,60.0064090407,FEMA4ImagesEEG,001,101659,
AFNE01.JPG,AFNE01.JPG,AFNE01.JPG,AFNE01.JPG,AFNE01.JPG,AFNE01.JPG,0,0,0,6,,,,,,,,,,,,,,,,,,,,,,,AFSA02.jpg,AFSA16.jpg,AFNE20.jpg,AFNE19.jpg,AFNE19.jpg,FN,3,num_4,32,num_8,2.49998861365,,,2017_Nov_01_1534,60.0064090407,FEMA4ImagesEEG,001,101659,
AFNE01.JPG,AFNE01.JPG,AFNE01.JPG,AFNE01.JPG,AFNE01.JPG,AFNE01.JPG,0,1,1,5,,,,,,,,,,,,,,,,,,,,,,,AFNE14.jpg,AFSA11.jpg,AFSA04.jpg,AFNE06.jpg,AFNE14.jpg,FN,3,num_8,32,num_2,1.33324288484,,,2017_Nov_01_1534,60.0064090407,FEMA4ImagesEEG,001,101659,
AFNE01.JPG,AFNE01.JPG,AFNE01.JPG,AFNE01.JPG,AFNE01.JPG,AFNE01.JPG,0,2,2,1,,,,,,,,,,,,,,,,,,,,,,,AFSA03.jpg,AFNE14.jpg,AFNE08.jpg,AFSA13.jpg,AFSA13.jpg,FS,4,num_4,32,num_8,0.716777722584,,,2017_Nov_01_1534,60.0064090407,FEMA4ImagesEEG,001,101659,
AFNE01.JPG,AFNE01.JPG,AFNE01.JPG,AFNE01.JPG,AFNE01.JPG,AFNE01.JPG,0,3,3,3,,,,,,,,,,,,,,,,,,,,,,,AFNE11.jpg,AFSA17.jpg,AFSA03.jpg,AFNE05.jpg,AFSA03.jpg,FS,4,num_2,16,num_2,1.10014192737,,,2017_Nov_01_1534,60.0064090407,FEMA4ImagesEEG,001,101659,
AFNE01.JPG,AFNE01.JPG,AFNE01.JPG,AFNE01.JPG,AFNE01.JPG,AFNE01.JPG,0,4,4,4,,,,,,,,,,,,,,,,,,,,,,,AFSA16.jpg,AFNE20.jpg,AFSA19.jpg,AFNE07.jpg,AFNE07.jpg,FN,3,num_4,16,num_4,0.533480552956,,,2017_Nov_01_1534,60.0064090407,FEMA4ImagesEEG,001,101659,
AFNE01.JPG,AFNE01.JPG,AFNE01.JPG,AFNE01.JPG,AFNE01.JPG,AFNE01.JPG,0,5,5,2,,,,,,,,,,,,,,,,,,,,,,,AFSA11.jpg,AFNE12.jpg,AFSA18.jpg,AFNE06.jpg,AFNE12.jpg,FN,3,num_6,16,num_6,0.566802178975,,,2017_Nov_01_1534,60.0064090407,FEMA4ImagesEEG,001,101659,
AFNE01.JPG,AFNE01.JPG,AFNE01.JPG,AFNE01.JPG,AFNE01.JPG,AFNE01.JPG,0,6,6,8,,,,,,,,,,,,,,,,,,,,,,,AFSA04.jpg,AFNE20.jpg,AFNE05.jpg,AFSA19.jpg,AFSA19.jpg,FS,4,num_4,32,num_8,0.75012532901,,,2017_Nov_01_1534,60.0064090407,FEMA4ImagesEEG,001,101659,
AFNE01.JPG,AFNE01.JPG,AFNE01.JPG,AFNE01.JPG,AFNE01.JPG,AFNE01.JPG,0,7,7,9,,,,,,,,,,,,,,,,,,,,,,,AFNE18.jpg,AFNE20.jpg,AFSA13.jpg,AFSA03.jpg,AFSA03.jpg,FS,4,num_4,32,num_2,1.08343556896,,,2017_Nov_01_1534,60.0064090407,FEMA4ImagesEEG,001,101659,
AFNE01.JPG,AFNE01.JPG,AFNE01.JPG,AFNE01.JPG,AFNE01.JPG,AFNE01.JPG,0,8,8,7,,,,,,,,,,,,,,,,,,,,,,,AFNE17.jpg,AFSA06.jpg,AFNE13.jpg,AFSA08.jpg,AFNE17.jpg,FN,3,num_8,16,num_8,0.983767374186,,,2017_Nov_01_1534,60.0064090407,FEMA4ImagesEEG,001,101659,
AFNE01.JPG,AFNE01.JPG,AFNE01.JPG,AFNE01.JPG,AFNE01.JPG,AFNE01.JPG,0,9,9,0,,,,,,,,,,,,,,,,,,,,,,,AFSA18.jpg,AFNE11.jpg,AFNE02.jpg,AFSA17.jpg,AFSA17.jpg,FS,4,num_4,32,num_6,1.06658936851,,,2017_Nov_01_1534,60.0064090407,FEMA4ImagesEEG,001,101659,
AFNE01.JPG,AFNE01.JPG,AFNE01.JPG,AFNE01.JPG,AFNE01.JPG,AFNE01.JPG,1,0,10,1,,,,,,,,,,,,,,,,,,,,,,,AFSA05.jpg,AFNE10.jpg,AFNE19.jpg,AFSA17.jpg,AFSA17.jpg,FS,4,num_4,16,num_4,1.18344438937,,,2017_Nov_01_1534,60.0064090407,FEMA4ImagesEEG,001,101659,
AFNE01.JPG,AFNE01.JPG,AFNE01.JPG,AFNE01.JPG,AFNE01.JPG,AFNE01.JPG,1,1,11,5,,,,,,,,,,,,,,,,,,,,,,,AFNE04.jpg,AFSA02.jpg,AFSA08.jpg,AFNE01.jpg,AFSA02.jpg,FS,4,num_6,32,num_8,1.06669745781,,,2017_Nov_01_1534,60.0064090407,FEMA4ImagesEEG,001,101659,
AFNE01.JPG,AFNE01.JPG,AFNE01.JPG,AFNE01.JPG,AFNE01.JPG,AFNE01.JPG,1,2,12,8,,,,,,,,,,,,,,,,,,,,,,,AFNE04.jpg,AFNE17.jpg,AFSA19.jpg,AFSA11.jpg,AFSA19.jpg,FS,4,num_2,32,num_4,1.15010416019,,,2017_Nov_01_1534,60.0064090407,FEMA4ImagesEEG,001,101659,
AFNE01.JPG,AFNE01.JPG,AFNE01.JPG,AFNE01.JPG,AFNE01.JPG,AFNE01.JPG,1,3,13,3,,,,,,,,,,,,,,,,,,,,,,,AFSA01.jpg,AFSA15.jpg,AFNE17.jpg,AFNE12.jpg,AFSA15.jpg,FS,4,num_6,16,num_6,1.00010584388,,,2017_Nov_01_1534,60.0064090407,FEMA4ImagesEEG,001,101659,
AFNE01.JPG,AFNE01.JPG,AFNE01.JPG,AFNE01.JPG,AFNE01.JPG,AFNE01.JPG,1,4,14,2,,,,,,,,,,,,,,,,,,,,,,,AFNE04.jpg,AFNE09.jpg,AFSA20.jpg,AFSA03.jpg,AFNE09.jpg,FN,3,num_6,32,num_8,1.26672311686,,,2017_Nov_01_1534,60.0064090407,FEMA4ImagesEEG,001,101659,
AFNE01.JPG,AFNE01.JPG,AFNE01.JPG,AFNE01.JPG,AFNE01.JPG,AFNE01.JPG,1,5,15,9,,,,,,,,,,,,,,,,,,,,,,,AFNE05.jpg,AFSA19.jpg,AFNE09.jpg,AFSA16.jpg,AFNE05.jpg,FN,3,num_8,16,num_8,0.550163496984,,,2017_Nov_01_1534,60.0064090407,FEMA4ImagesEEG,001,101659,
AFNE01.JPG,AFNE01.JPG,AFNE01.JPG,AFNE01.JPG,AFNE01.JPG,AFNE01.JPG,1,6,16,7,,,,,,,,,,,,,,,,,,,,,,,AFSA18.jpg,AFNE06.jpg,AFNE20.jpg,AFSA07.jpg,AFNE20.jpg,FN,3,num_2,16,num_2,1.45013831882,,,2017_Nov_01_1534,60.0064090407,FEMA4ImagesEEG,001,101659,
AFNE01.JPG,AFNE01.JPG,AFNE01.JPG,AFNE01.JPG,AFNE01.JPG,AFNE01.JPG,1,7,17,6,,,,,,,,,,,,,,,,,,,,,,,AFSA10.jpg,AFNE07.jpg,AFNE20.jpg,AFSA16.jpg,AFSA16.jpg,FS,4,num_4,32,num_2,0.950060219038,,,2017_Nov_01_1534,60.0064090407,FEMA4ImagesEEG,001,101659,
AFNE01.JPG,AFNE01.JPG,AFNE01.JPG,AFNE01.JPG,AFNE01.JPG,AFNE01.JPG,1,8,18,4,,,,,,,,,,,,,,,,,,,,,,,AFSA02.jpg,AFNE01.jpg,AFSA03.jpg,AFNE08.jpg,AFSA03.jpg,FS,4,num_2,32,num_8,1.06676160567,,,2017_Nov_01_1534,60.0064090407,FEMA4ImagesEEG,001,101659,
AFNE01.JPG,AFNE01.JPG,AFNE01.JPG,AFNE01.JPG,AFNE01.JPG,AFNE01.JPG,1,9,19,0,,,,,,,,,,,,,,,,,,,,,,,AFNE20.jpg,AFSA19.jpg,AFSA12.jpg,AFNE16.jpg,AFSA19.jpg,FS,4,num_6,16,num_6,0.950120517751,,,2017_Nov_01_1534,60.0064090407,FEMA4ImagesEEG,001,101659,
AFNE01.JPG,AFNE01.JPG,AFNE01.JPG,AFNE01.JPG,AFNE01.JPG,AFNE01.JPG,2,0,20,1,,,,,,,,,,,,,,,,,,,,,,,AFNE11.jpg,AFSA01.jpg,AFNE07.jpg,AFSA18.jpg,AFSA18.jpg,FS,4,num_4,16,num_4,2.48333164933,,,2017_Nov_01_1534,60.0064090407,FEMA4ImagesEEG,001,101659,
AFNE01.JPG,AFNE01.JPG,AFNE01.JPG,AFNE01.JPG,AFNE01.JPG,AFNE01.JPG,2,1,21,2,,,,,,,,,,,,,,,,,,,,,,,AFNE10.jpg,AFNE03.jpg,AFSA06.jpg,AFSA07.jpg,AFNE10.jpg,FN,3,num_8,32,num_4,1.93337470875,,,2017_Nov_01_1534,60.0064090407,FEMA4ImagesEEG,001,101659,
AFNE01.JPG,AFNE01.JPG,AFNE01.JPG,AFNE01.JPG,AFNE01.JPG,AFNE01.JPG,2,2,22,6,,,,,,,,,,,,,,,,,,,,,,,AFNE04.jpg,AFSA15.jpg,AFNE19.jpg,AFSA19.jpg,AFNE19.jpg,FN,3,num_2,32,num_4,0.750131102279,,,2017_Nov_01_1534,60.0064090407,FEMA4ImagesEEG,001,101659,
AFNE01.JPG,AFNE01.JPG,AFNE01.JPG,AFNE01.JPG,AFNE01.JPG,AFNE01.JPG,2,3,23,3,,,,,,,,,,,,,,,,,,,,,,,AFSA06.jpg,AFNE16.jpg,AFSA05.jpg,AFNE03.jpg,AFSA06.jpg,FS,4,num_8,32,num_6,1.56676561479,,,2017_Nov_01_1534,60.0064090407,FEMA4ImagesEEG,001,101659,
AFNE01.JPG,AFNE01.JPG,AFNE01.JPG,AFNE01.JPG,AFNE01.JPG,AFNE01.JPG,2,4,24,9,,,,,,,,,,,,,,,,,,,,,,,AFSA02.jpg,AFSA18.jpg,AFNE05.jpg,AFNE06.jpg,AFSA02.jpg,FS,4,num_8,16,num_8,2.98327183165,,,2017_Nov_01_1534,60.0064090407,FEMA4ImagesEEG,001,101659,
AFNE01.JPG,AFNE01.JPG,AFNE01.JPG,AFNE01.JPG,AFNE01.JPG,AFNE01.JPG,2,5,25,0,,,,,,,,,,,,,,,,,,,,,,,AFSA12.jpg,AFSA07.jpg,AFNE20.jpg,AFNE11.jpg,AFNE11.jpg,FN,3,num_4,16,num_4,0.450037927367,,,2017_Nov_01_1534,60.0064090407,FEMA4ImagesEEG,001,101659,
AFNE01.JPG,AFNE01.JPG,AFNE01.JPG,AFNE01.JPG,AFNE01.JPG,AFNE01.JPG,2,6,26,8,,,,,,,,,,,,,,,,,,,,,,,AFSA01.jpg,AFNE19.jpg,AFSA15.jpg,AFNE11.jpg,AFSA01.jpg,FS,4,num_8,32,num_6,0.816853256896,,,2017_Nov_01_1534,60.0064090407,FEMA4ImagesEEG,001,101659,
AFNE01.JPG,AFNE01.JPG,AFNE01.JPG,AFNE01.JPG,AFNE01.JPG,AFNE01.JPG,2,7,27,4,,,,,,,,,,,,,,,,,,,,,,,AFNE05.jpg,AFNE20.jpg,AFSA16.jpg,AFSA05.jpg,AFNE20.jpg,FN,3,num_6,32,num_2,1.66670868336,,,2017_Nov_01_1534,60.0064090407,FEMA4ImagesEEG,001,101659,
AFNE01.JPG,AFNE01.JPG,AFNE01.JPG,AFNE01.JPG,AFNE01.JPG,AFNE01.JPG,2,8,28,7,,,,,,,,,,,,,,,,,,,,,,,AFNE18.jpg,AFSA12.jpg,AFSA03.jpg,AFNE03.jpg,AFSA12.jpg,FS,4,num_6,16,num_6,0.550230852328,,,2017_Nov_01_1534,60.0064090407,FEMA4ImagesEEG,001,101659,
AFNE01.JPG,AFNE01.JPG,AFNE01.JPG,AFNE01.JPG,AFNE01.JPG,AFNE01.JPG,2,9,29,5,,,,,,,,,,,,,,,,,,,,,,,AFNE06.jpg,AFNE12.jpg,AFSA09.jpg,AFSA12.jpg,AFNE06.jpg,FN,3,num_8,16,num_8,1.53369063721,,,2017_Nov_01_1534,60.0064090407,FEMA4ImagesEEG,001,101659,
AFNE01.JPG,AFNE01.JPG,AFNE01.JPG,AFNE01.JPG,AFNE01.JPG,AFNE01.JPG,3,0,30,7,,,,,,,,,,,,,,,,,,,,,,,AFSA15.jpg,AFSA06.jpg,AFNE14.jpg,AFNE02.jpg,AFNE14.jpg,FN,3,num_2,16,num_2,0.716742762132,,,2017_Nov_01_1534,60.0064090407,FEMA4ImagesEEG,001,101659,
AFNE01.JPG,AFNE01.JPG,AFNE01.JPG,AFNE01.JPG,AFNE01.JPG,AFNE01.JPG,3,1,31,0,,,,,,,,,,,,,,,,,,,,,,,AFNE08.jpg,AFNE02.jpg,AFSA08.jpg,AFSA04.jpg,AFNE02.jpg,FN,3,num_6,16,num_6,1.01672913064,,,2017_Nov_01_1534,60.0064090407,FEMA4ImagesEEG,001,101659,
AFNE01.JPG,AFNE01.JPG,AFNE01.JPG,AFNE01.JPG,AFNE01.JPG,AFNE01.JPG,3,2,32,6,,,,,,,,,,,,,,,,,,,,,,,AFNE16.jpg,AFSA14.jpg,AFNE15.jpg,AFSA18.jpg,AFSA14.jpg,FS,4,num_6,32,num_8,1.26680105645,,,2017_Nov_01_1534,60.0064090407,FEMA4ImagesEEG,001,101659,
AFNE01.JPG,AFNE01.JPG,AFNE01.JPG,AFNE01.JPG,AFNE01.JPG,AFNE01.JPG,3,3,33,1,,,,,,,,,,,,,,,,,,,,,,,AFSA12.jpg,AFNE19.jpg,AFSA05.jpg,AFNE03.jpg,AFSA12.jpg,FS,4,num_8,16,num_8,0.866801377153,,,2017_Nov_01_1534,60.0064090407,FEMA4ImagesEEG,001,101659,
AFNE01.JPG,AFNE01.JPG,AFNE01.JPG,AFNE01.JPG,AFNE01.JPG,AFNE01.JPG,3,4,34,5,,,,,,,,,,,,,,,,,,,,,,,AFNE08.jpg,AFSA08.jpg,AFSA14.jpg,AFNE11.jpg,AFSA08.jpg,FS,4,num_6,16,num_6,0.950123083778,,,2017_Nov_01_1534,60.0064090407,FEMA4ImagesEEG,001,101659,
AFNE01.JPG,AFNE01.JPG,AFNE01.JPG,AFNE01.JPG,AFNE01.JPG,AFNE01.JPG,3,5,35,8,,,,,,,,,,,,,,,,,,,,,,,AFNE11.jpg,AFSA05.jpg,AFSA15.jpg,AFNE10.jpg,AFSA05.jpg,FS,4,num_6,16,num_6,0.566900004633,,,2017_Nov_01_1534,60.0064090407,FEMA4ImagesEEG,001,101659,
AFNE01.JPG,AFNE01.JPG,AFNE01.JPG,AFNE01.JPG,AFNE01.JPG,AFNE01.JPG,3,6,36,3,,,,,,,,,,,,,,,,,,,,,,,AFSA10.jpg,AFNE13.jpg,AFSA18.jpg,AFNE10.jpg,AFSA10.jpg,FS,4,num_8,16,num_8,0.933421536582,,,2017_Nov_01_1534,60.0064090407,FEMA4ImagesEEG,001,101659,
AFNE01.JPG,AFNE01.JPG,AFNE01.JPG,AFNE01.JPG,AFNE01.JPG,AFNE01.JPG,3,7,37,2,,,,,,,,,,,,,,,,,,,,,,,AFNE16.jpg,AFSA20.jpg,AFSA06.jpg,AFNE03.jpg,AFSA20.jpg,FS,4,num_6,32,num_8,1.30010568374,,,2017_Nov_01_1534,60.0064090407,FEMA4ImagesEEG,001,101659,
AFNE01.JPG,AFNE01.JPG,AFNE01.JPG,AFNE01.JPG,AFNE01.JPG,AFNE01.JPG,3,8,38,9,,,,,,,,,,,,,,,,,,,,,,,AFSA06.jpg,AFSA05.jpg,AFNE10.jpg,AFNE07.jpg,AFSA06.jpg,FS,4,num_8,16,num_8,1.01677339291,,,2017_Nov_01_1534,60.0064090407,FEMA4ImagesEEG,001,101659,
AFNE01.JPG,AFNE01.JPG,AFNE01.JPG,AFNE01.JPG,AFNE01.JPG,AFNE01.JPG,3,9,39,4,,,,,,,,,,,,,,,,,,,,,,,AFNE02.jpg,AFSA08.jpg,AFNE15.jpg,AFSA04.jpg,AFSA04.jpg,FS,4,num_4,16,num_4,1.06675807736,,,2017_Nov_01_1534,60.0064090407,FEMA4ImagesEEG,001,101659,
AFNE01.JPG,AFNE01.JPG,AFNE01.JPG,AFNE01.JPG,AFNE01.JPG,AFNE01.JPG,4,0,40,5,,,,,,,,,,,,,,,,,,,,,,,AFNE19.jpg,AFSA10.jpg,AFSA06.jpg,AFNE01.jpg,AFNE19.jpg,FN,3,num_8,16,num_8,0.900113381213,,,2017_Nov_01_1534,60.0064090407,FEMA4ImagesEEG,001,101659,
AFNE01.JPG,AFNE01.JPG,AFNE01.JPG,AFNE01.JPG,AFNE01.JPG,AFNE01.JPG,4,1,41,1,,,,,,,,,,,,,,,,,,,,,,,AFSA05.jpg,AFNE16.jpg,AFNE02.jpg,AFSA16.jpg,AFSA05.jpg,FS,4,num_8,32,num_6,1.00008339225,,,2017_Nov_01_1534,60.0064090407,FEMA4ImagesEEG,001,101659,
AFNE01.JPG,AFNE01.JPG,AFNE01.JPG,AFNE01.JPG,AFNE01.JPG,AFNE01.JPG,4,2,42,6,,,,,,,,,,,,,,,,,,,,,,,AFSA18.jpg,AFSA01.jpg,AFNE18.jpg,AFNE06.jpg,AFSA01.jpg,FS,4,num_6,16,num_6,0.850145695964,,,2017_Nov_01_1534,60.0064090407,FEMA4ImagesEEG,001,101659,
AFNE01.JPG,AFNE01.JPG,AFNE01.JPG,AFNE01.JPG,AFNE01.JPG,AFNE01.JPG,4,3,43,2,,,,,,,,,,,,,,,,,,,,,,,AFSA19.jpg,AFSA11.jpg,AFNE12.jpg,AFNE10.jpg,AFNE12.jpg,FN,3,num_2,16,num_2,2.48340189154,,,2017_Nov_01_1534,60.0064090407,FEMA4ImagesEEG,001,101659,
AFNE01.JPG,AFNE01.JPG,AFNE01.JPG,AFNE01.JPG,AFNE01.JPG,AFNE01.JPG,4,4,44,0,,,,,,,,,,,,,,,,,,,,,,,AFSA09.jpg,AFSA16.jpg,AFNE18.jpg,AFNE19.jpg,AFSA09.jpg,FS,4,num_8,16,num_8,1.56668863725,,,2017_Nov_01_1534,60.0064090407,FEMA4ImagesEEG,001,101659,
AFNE01.JPG,AFNE01.JPG,AFNE01.JPG,AFNE01.JPG,AFNE01.JPG,AFNE01.JPG,4,5,45,7,,,,,,,,,,,,,,,,,,,,,,,AFSA11.jpg,AFNE16.jpg,AFSA03.jpg,AFNE05.jpg,AFNE16.jpg,FN,3,num_6,32,num_2,1.35011057486,,,2017_Nov_01_1534,60.0064090407,FEMA4ImagesEEG,001,101659,
AFNE01.JPG,AFNE01.JPG,AFNE01.JPG,AFNE01.JPG,AFNE01.JPG,AFNE01.JPG,4,6,46,3,,,,,,,,,,,,,,,,,,,,,,,AFSA03.jpg,AFNE01.jpg,AFNE12.jpg,AFSA19.jpg,AFSA03.jpg,FS,4,num_8,32,num_6,0.933445592178,,,2017_Nov_01_1534,60.0064090407,FEMA4ImagesEEG,001,101659,
AFNE01.JPG,AFNE01.JPG,AFNE01.JPG,AFNE01.JPG,AFNE01.JPG,AFNE01.JPG,4,7,47,4,,,,,,,,,,,,,,,,,,,,,,,AFSA08.jpg,AFNE05.jpg,AFSA05.jpg,AFNE02.jpg,AFNE05.jpg,FN,3,num_6,32,num_8,0.833432281623,,,2017_Nov_01_1534,60.0064090407,FEMA4ImagesEEG,001,101659,
AFNE01.JPG,AFNE01.JPG,AFNE01.JPG,AFNE01.JPG,AFNE01.JPG,AFNE01.JPG,4,8,48,8,,,,,,,,,,,,,,,,,,,,,,,AFSA12.jpg,AFNE18.jpg,AFNE14.jpg,AFSA05.jpg,AFNE14.jpg,FN,3,num_2,32,num_8,1.18347133137,,,2017_Nov_01_1534,60.0064090407,FEMA4ImagesEEG,001,101659,
AFNE01.JPG,AFNE01.JPG,AFNE01.JPG,AFNE01.JPG,AFNE01.JPG,AFNE01.JPG,4,9,49,9,,,,,,,,,,,,,,,,,,,,,,,AFSA07.jpg,AFSA20.jpg,AFNE20.jpg,AFNE19.jpg,AFNE20.jpg,FN,3,num_2,32,num_6,0.81677243067,,,2017_Nov_01_1534,60.0064090407,FEMA4ImagesEEG,001,101659,
AFNE01.JPG,AFNE01.JPG,AFNE01.JPG,AFNE01.JPG,AFNE01.JPG,AFNE01.JPG,5,0,50,5,,,,,,,,,,,,,,,,,,,,,,,AFSA03.jpg,AFNE17.jpg,AFNE16.jpg,AFSA09.jpg,AFNE16.jpg,FN,3,num_2,32,num_8,1.11690120748,,,2017_Nov_01_1534,60.0064090407,FEMA4ImagesEEG,001,101659,
AFNE01.JPG,AFNE01.JPG,AFNE01.JPG,AFNE01.JPG,AFNE01.JPG,AFNE01.JPG,5,1,51,2,,,,,,,,,,,,,,,,,,,,,,,AFSA14.jpg,AFNE04.jpg,AFNE01.jpg,AFSA07.jpg,AFNE01.jpg,FN,3,num_2,16,num_2,1.11674019601,,,2017_Nov_01_1534,60.0064090407,FEMA4ImagesEEG,001,101659,
AFNE01.JPG,AFNE01.JPG,AFNE01.JPG,AFNE01.JPG,AFNE01.JPG,AFNE01.JPG,5,2,52,7,,,,,,,,,,,,,,,,,,,,,,,AFNE08.jpg,AFSA02.jpg,AFNE05.jpg,AFSA15.jpg,AFNE08.jpg,FN,3,num_8,16,num_8,0.633465959225,,,2017_Nov_01_1534,60.0064090407,FEMA4ImagesEEG,001,101659,
AFNE01.JPG,AFNE01.JPG,AFNE01.JPG,AFNE01.JPG,AFNE01.JPG,AFNE01.JPG,5,3,53,4,,,,,,,,,,,,,,,,,,,,,,,AFNE16.jpg,AFSA04.jpg,AFNE05.jpg,AFSA20.jpg,AFNE05.jpg,FN,3,num_2,16,num_2,0.850146016572,,,2017_Nov_01_1534,60.0064090407,FEMA4ImagesEEG,001,101659,
AFNE01.JPG,AFNE01.JPG,AFNE01.JPG,AFNE01.JPG,AFNE01.JPG,AFNE01.JPG,5,4,54,1,,,,,,,,,,,,,,,,,,,,,,,AFNE13.jpg,AFNE06.jpg,AFSA05.jpg,AFSA08.jpg,AFNE13.jpg,FN,3,num_8,16,num_8,0.866805867525,,,2017_Nov_01_1534,60.0064090407,FEMA4ImagesEEG,001,101659,
AFNE01.JPG,AFNE01.JPG,AFNE01.JPG,AFNE01.JPG,AFNE01.JPG,AFNE01.JPG,5,5,55,8,,,,,,,,,,,,,,,,,,,,,,,AFNE13.jpg,AFNE14.jpg,AFSA15.jpg,AFSA17.jpg,AFNE13.jpg,FN,3,num_8,16,num_8,1.13353347476,,,2017_Nov_01_1534,60.0064090407,FEMA4ImagesEEG,001,101659,
AFNE01.JPG,AFNE01.JPG,AFNE01.JPG,AFNE01.JPG,AFNE01.JPG,AFNE01.JPG,5,6,56,3,,,,,,,,,,,,,,,,,,,,,,,AFSA10.jpg,AFSA12.jpg,AFNE05.jpg,AFNE09.jpg,AFNE09.jpg,FN,3,num_4,16,num_4,0.850073529407,,,2017_Nov_01_1534,60.0064090407,FEMA4ImagesEEG,001,101659,
AFNE01.JPG,AFNE01.JPG,AFNE01.JPG,AFNE01.JPG,AFNE01.JPG,AFNE01.JPG,5,7,57,0,,,,,,,,,,,,,,,,,,,,,,,AFNE11.jpg,AFNE14.jpg,AFSA17.jpg,AFSA04.jpg,AFSA17.jpg,FS,4,num_2,32,num_8,0.816767298616,,,2017_Nov_01_1534,60.0064090407,FEMA4ImagesEEG,001,101659,
AFNE01.JPG,AFNE01.JPG,AFNE01.JPG,AFNE01.JPG,AFNE01.JPG,AFNE01.JPG,5,8,58,6,,,,,,,,,,,,,,,,,,,,,,,AFNE01.jpg,AFNE08.jpg,AFSA17.jpg,AFSA14.jpg,AFNE01.jpg,FN,3,num_8,16,num_8,0.833444790216,,,2017_Nov_01_1534,60.0064090407,FEMA4ImagesEEG,001,101659,
AFNE01.JPG,AFNE01.JPG,AFNE01.JPG,AFNE01.JPG,AFNE01.JPG,AFNE01.JPG,5,9,59,9,,,,,,,,,,,,,,,,,,,,,,,AFSA14.jpg,AFSA06.jpg,AFNE03.jpg,AFNE06.jpg,AFNE03.jpg,FN,3,num_2,16,num_2,0.600174161606,,,2017_Nov_01_1534,60.0064090407,FEMA4ImagesEEG,001,101659,
,,,,,,,,,,,,,,,,,,,,,,,,,,,,,,,,,,,,,,,,,,,space,5.63307112874,2017_Nov_01_1534,60.0064090407,FEMA4ImagesEEG,001,101659,
AFNE01.JPG,AFNE01.JPG,AFNE01.JPG,AFNE01.JPG,AFNE01.JPG,AFNE01.JPG,,,,,0,0,0,2,,,,,,,,,,,,,,,,,,,AMNE12.jpg,AMSA08.jpg,AMSA07.jpg,AMNE10.jpg,AMSA07.jpg,MS,2,num_2,32,num_6,0.91678766557,,,2017_Nov_01_1534,60.0064090407,FEMA4ImagesEEG,001,101659,
AFNE01.JPG,AFNE01.JPG,AFNE01.JPG,AFNE01.JPG,AFNE01.JPG,AFNE01.JPG,,,,,0,1,1,7,,,,,,,,,,,,,,,,,,,AMSA20.jpg,AMSA06.jpg,AMNE19.jpg,AMNE12.jpg,AMSA20.jpg,MS,2,num_8,32,num_4,0.666793679586,,,2017_Nov_01_1534,60.0064090407,FEMA4ImagesEEG,001,101659,
AFNE01.JPG,AFNE01.JPG,AFNE01.JPG,AFNE01.JPG,AFNE01.JPG,AFNE01.JPG,,,,,0,2,2,6,,,,,,,,,,,,,,,,,,,AMSA01.jpg,AMNE06.jpg,AMNE19.jpg,AMSA15.jpg,AMNE06.jpg,MN,1,num_6,32,num_8,0.86679784907,,,2017_Nov_01_1534,60.0064090407,FEMA4ImagesEEG,001,101659,
AFNE01.JPG,AFNE01.JPG,AFNE01.JPG,AFNE01.JPG,AFNE01.JPG,AFNE01.JPG,,,,,0,3,3,3,,,,,,,,,,,,,,,,,,,AMSA11.jpg,AMNE15.jpg,AMNE02.jpg,AMSA10.jpg,AMSA11.jpg,MS,2,num_8,16,num_8,0.783324111952,,,2017_Nov_01_1534,60.0064090407,FEMA4ImagesEEG,001,101659,
AFNE01.JPG,AFNE01.JPG,AFNE01.JPG,AFNE01.JPG,AFNE01.JPG,AFNE01.JPG,,,,,0,4,4,4,,,,,,,,,,,,,,,,,,,AMSA01.jpg,AMNE01.jpg,AMSA20.jpg,AMNE07.jpg,AMSA20.jpg,MS,2,num_2,16,num_2,1.96668863739,,,2017_Nov_01_1534,60.0064090407,FEMA4ImagesEEG,001,101659,
AFNE01.JPG,AFNE01.JPG,AFNE01.JPG,AFNE01.JPG,AFNE01.JPG,AFNE01.JPG,,,,,0,5,5,1,,,,,,,,,,,,,,,,,,,AMSA02.jpg,AMSA17.jpg,AMNE16.jpg,AMNE02.jpg,AMSA17.jpg,MS,2,num_6,32,num_8,1.33340389607,,,2017_Nov_01_1534,60.0064090407,FEMA4ImagesEEG,001,101659,
AFNE01.JPG,AFNE01.JPG,AFNE01.JPG,AFNE01.JPG,AFNE01.JPG,AFNE01.JPG,,,,,0,6,6,5,,,,,,,,,,,,,,,,,,,AMNE07.jpg,AMNE06.jpg,AMSA17.jpg,AMSA09.jpg,AMNE07.jpg,MN,1,num_8,16,num_8,0.650144092273,,,2017_Nov_01_1534,60.0064090407,FEMA4ImagesEEG,001,101659,
AFNE01.JPG,AFNE01.JPG,AFNE01.JPG,AFNE01.JPG,AFNE01.JPG,AFNE01.JPG,,,,,0,7,7,8,,,,,,,,,,,,,,,,,,,AMNE11.jpg,AMSA16.jpg,AMNE14.jpg,AMSA06.jpg,AMSA16.jpg,MS,2,num_6,32,num_2,2.16683970555,,,2017_Nov_01_1534,60.0064090407,FEMA4ImagesEEG,001,101659,
AFNE01.JPG,AFNE01.JPG,AFNE01.JPG,AFNE01.JPG,AFNE01.JPG,AFNE01.JPG,,,,,0,8,8,0,,,,,,,,,,,,,,,,,,,AMNE05.jpg,AMSA06.jpg,AMSA14.jpg,AMNE12.jpg,AMSA14.jpg,MS,2,num_2,16,num_2,0.88342209789,,,2017_Nov_01_1534,60.0064090407,FEMA4ImagesEEG,001,101659,
AFNE01.JPG,AFNE01.JPG,AFNE01.JPG,AFNE01.JPG,AFNE01.JPG,AFNE01.JPG,,,,,0,9,9,9,,,,,,,,,,,,,,,,,,,AMNE17.jpg,AMNE11.jpg,AMSA17.jpg,AMSA13.jpg,AMNE11.jpg,MN,1,num_6,32,num_8,0.700149304233,,,2017_Nov_01_1534,60.0064090407,FEMA4ImagesEEG,001,101659,
AFNE01.JPG,AFNE01.JPG,AFNE01.JPG,AFNE01.JPG,AFNE01.JPG,AFNE01.JPG,,,,,1,0,10,2,,,,,,,,,,,,,,,,,,,AMNE03.jpg,AMNE20.jpg,AMSA19.jpg,AMSA14.jpg,AMNE03.jpg,MN,1,num_8,32,num_2,1.46676609595,,,2017_Nov_01_1534,60.0064090407,FEMA4ImagesEEG,001,101659,
AFNE01.JPG,AFNE01.JPG,AFNE01.JPG,AFNE01.JPG,AFNE01.JPG,AFNE01.JPG,,,,,1,1,11,6,,,,,,,,,,,,,,,,,,,AMNE15.jpg,AMNE06.jpg,AMSA20.jpg,AMSA06.jpg,AMNE06.jpg,MN,1,num_6,32,num_8,0.916744686663,,,2017_Nov_01_1534,60.0064090407,FEMA4ImagesEEG,001,101659,
AFNE01.JPG,AFNE01.JPG,AFNE01.JPG,AFNE01.JPG,AFNE01.JPG,AFNE01.JPG,,,,,1,2,12,8,,,,,,,,,,,,,,,,,,,AMNE11.jpg,AMSA17.jpg,AMNE02.jpg,AMSA15.jpg,AMNE02.jpg,MN,1,num_2,32,num_6,1.01674516755,,,2017_Nov_01_1534,60.0064090407,FEMA4ImagesEEG,001,101659,
AFNE01.JPG,AFNE01.JPG,AFNE01.JPG,AFNE01.JPG,AFNE01.JPG,AFNE01.JPG,,,,,1,3,13,3,,,,,,,,,,,,,,,,,,,AMSA19.jpg,AMSA14.jpg,AMNE01.jpg,AMNE19.jpg,AMSA19.jpg,MS,2,num_8,16,num_8,0.866749738343,,,2017_Nov_01_1534,60.0064090407,FEMA4ImagesEEG,001,101659,
AFNE01.JPG,AFNE01.JPG,AFNE01.JPG,AFNE01.JPG,AFNE01.JPG,AFNE01.JPG,,,,,1,4,14,1,,,,,,,,,,,,,,,,,,,AMNE18.jpg,AMSA16.jpg,AMSA14.jpg,AMNE12.jpg,AMNE18.jpg,MN,1,num_8,32,num_2,1.20004746947,,,2017_Nov_01_1534,60.0064090407,FEMA4ImagesEEG,001,101659,
AFNE01.JPG,AFNE01.JPG,AFNE01.JPG,AFNE01.JPG,AFNE01.JPG,AFNE01.JPG,,,,,1,5,15,9,,,,,,,,,,,,,,,,,,,AMNE09.jpg,AMSA06.jpg,AMSA04.jpg,AMNE16.jpg,AMNE09.jpg,MN,1,num_8,16,num_8,0.850146016805,,,2017_Nov_01_1534,60.0064090407,FEMA4ImagesEEG,001,101659,
AFNE01.JPG,AFNE01.JPG,AFNE01.JPG,AFNE01.JPG,AFNE01.JPG,AFNE01.JPG,,,,,1,6,16,5,,,,,,,,,,,,,,,,,,,AMSA12.jpg,AMNE02.jpg,AMSA02.jpg,AMNE01.jpg,AMNE02.jpg,MN,1,num_6,32,num_8,1.05007545394,,,2017_Nov_01_1534,60.0064090407,FEMA4ImagesEEG,001,101659,
AFNE01.JPG,AFNE01.JPG,AFNE01.JPG,AFNE01.JPG,AFNE01.JPG,AFNE01.JPG,,,,,1,7,17,7,,,,,,,,,,,,,,,,,,,AMSA01.jpg,AMSA20.jpg,AMNE15.jpg,AMNE13.jpg,AMNE15.jpg,MN,1,num_2,16,num_2,1.0501065657,,,2017_Nov_01_1534,60.0064090407,FEMA4ImagesEEG,001,101659,
AFNE01.JPG,AFNE01.JPG,AFNE01.JPG,AFNE01.JPG,AFNE01.JPG,AFNE01.JPG,,,,,1,8,18,0,,,,,,,,,,,,,,,,,,,AMSA01.jpg,AMSA19.jpg,AMNE03.jpg,AMNE10.jpg,AMNE03.jpg,MN,1,num_2,32,num_8,0.799989094725,,,2017_Nov_01_1534,60.0064090407,FEMA4ImagesEEG,001,101659,
AFNE01.JPG,AFNE01.JPG,AFNE01.JPG,AFNE01.JPG,AFNE01.JPG,AFNE01.JPG,,,,,1,9,19,4,,,,,,,,,,,,,,,,,,,AMNE19.jpg,AMNE14.jpg,AMSA10.jpg,AMSA04.jpg,AMNE19.jpg,MN,1,num_8,32,num_2,0.916750139091,,,2017_Nov_01_1534,60.0064090407,FEMA4ImagesEEG,001,101659,
AFNE01.JPG,AFNE01.JPG,AFNE01.JPG,AFNE01.JPG,AFNE01.JPG,AFNE01.JPG,,,,,2,0,20,4,,,,,,,,,,,,,,,,,,,AMSA10.jpg,AMNE06.jpg,AMSA19.jpg,AMNE13.jpg,AMSA19.jpg,MS,2,num_2,16,num_2,1.26670707972,,,2017_Nov_01_1534,60.0064090407,FEMA4ImagesEEG,001,101659,
AFNE01.JPG,AFNE01.JPG,AFNE01.JPG,AFNE01.JPG,AFNE01.JPG,AFNE01.JPG,,,,,2,1,21,0,,,,,,,,,,,,,,,,,,,AMNE13.jpg,AMNE17.jpg,AMSA08.jpg,AMSA19.jpg,AMSA08.jpg,MS,2,num_2,16,num_2,0.833489693934,,,2017_Nov_01_1534,60.0064090407,FEMA4ImagesEEG,001,101659,
AFNE01.JPG,AFNE01.JPG,AFNE01.JPG,AFNE01.JPG,AFNE01.JPG,AFNE01.JPG,,,,,2,2,22,7,,,,,,,,,,,,,,,,,,,AMNE06.jpg,AMSA17.jpg,AMSA06.jpg,AMNE14.jpg,AMSA06.jpg,MS,2,num_2,32,num_8,1.68335859152,,,2017_Nov_01_1534,60.0064090407,FEMA4ImagesEEG,001,101659,
AFNE01.JPG,AFNE01.JPG,AFNE01.JPG,AFNE01.JPG,AFNE01.JPG,AFNE01.JPG,,,,,2,3,23,8,,,,,,,,,,,,,,,,,,,AMNE05.jpg,AMSA02.jpg,AMNE13.jpg,AMSA05.jpg,AMNE13.jpg,MN,1,num_2,32,num_6,0.566774595529,,,2017_Nov_01_1534,60.0064090407,FEMA4ImagesEEG,001,101659,
AFNE01.JPG,AFNE01.JPG,AFNE01.JPG,AFNE01.JPG,AFNE01.JPG,AFNE01.JPG,,,,,2,4,24,2,,,,,,,,,,,,,,,,,,,AMSA06.jpg,AMNE16.jpg,AMNE08.jpg,AMSA18.jpg,AMSA18.jpg,MS,2,num_4,16,num_4,0.633448318578,,,2017_Nov_01_1534,60.0064090407,FEMA4ImagesEEG,001,101659,
AFNE01.JPG,AFNE01.JPG,AFNE01.JPG,AFNE01.JPG,AFNE01.JPG,AFNE01.JPG,,,,,2,5,25,9,,,,,,,,,,,,,,,,,,,AMSA10.jpg,AMNE20.jpg,AMNE04.jpg,AMSA12.jpg,AMSA12.jpg,MS,2,num_4,16,num_4,1.55008299137,,,2017_Nov_01_1534,60.0064090407,FEMA4ImagesEEG,001,101659,
AFNE01.JPG,AFNE01.JPG,AFNE01.JPG,AFNE01.JPG,AFNE01.JPG,AFNE01.JPG,,,,,2,6,26,1,,,,,,,,,,,,,,,,,,,AMNE14.jpg,AMNE17.jpg,AMSA07.jpg,AMSA12.jpg,AMNE17.jpg,MN,1,num_6,32,num_8,2.33337887842,,,2017_Nov_01_1534,60.0064090407,FEMA4ImagesEEG,001,101659,
AFNE01.JPG,AFNE01.JPG,AFNE01.JPG,AFNE01.JPG,AFNE01.JPG,AFNE01.JPG,,,,,2,7,27,5,,,,,,,,,,,,,,,,,,,AMNE09.jpg,AMSA12.jpg,AMNE06.jpg,AMSA06.jpg,AMSA06.jpg,MS,2,num_4,32,num_2,1.28347694455,,,2017_Nov_01_1534,60.0064090407,FEMA4ImagesEEG,001,101659,
AFNE01.JPG,AFNE01.JPG,AFNE01.JPG,AFNE01.JPG,AFNE01.JPG,AFNE01.JPG,,,,,2,8,28,3,,,,,,,,,,,,,,,,,,,AMNE06.jpg,AMNE16.jpg,AMSA19.jpg,AMSA08.jpg,AMNE06.jpg,MN,1,num_8,32,num_2,1.16678453842,,,2017_Nov_01_1534,60.0064090407,FEMA4ImagesEEG,001,101659,
AFNE01.JPG,AFNE01.JPG,AFNE01.JPG,AFNE01.JPG,AFNE01.JPG,AFNE01.JPG,,,,,2,9,29,6,,,,,,,,,,,,,,,,,,,AMSA10.jpg,AMNE15.jpg,AMNE18.jpg,AMSA15.jpg,AMNE18.jpg,MN,1,num_2,32,num_8,0.849778770003,,,2017_Nov_01_1534,60.0064090407,FEMA4ImagesEEG,001,101659,
AFNE01.JPG,AFNE01.JPG,AFNE01.JPG,AFNE01.JPG,AFNE01.JPG,AFNE01.JPG,,,,,3,0,30,6,,,,,,,,,,,,,,,,,,,AMNE20.jpg,AMSA12.jpg,AMNE16.jpg,AMSA09.jpg,AMSA09.jpg,MS,2,num_4,16,num_4,0.966754388995,,,2017_Nov_01_1534,60.0064090407,FEMA4ImagesEEG,001,101659,
AFNE01.JPG,AFNE01.JPG,AFNE01.JPG,AFNE01.JPG,AFNE01.JPG,AFNE01.JPG,,,,,3,1,31,4,,,,,,,,,,,,,,,,,,,AMSA11.jpg,AMSA03.jpg,AMNE09.jpg,AMNE03.jpg,AMSA11.jpg,MS,2,num_8,32,num_6,0.83342747041,,,2017_Nov_01_1534,60.0064090407,FEMA4ImagesEEG,001,101659,
AFNE01.JPG,AFNE01.JPG,AFNE01.JPG,AFNE01.JPG,AFNE01.JPG,AFNE01.JPG,,,,,3,2,32,3,,,,,,,,,,,,,,,,,,,AMNE08.jpg,AMNE06.jpg,AMSA06.jpg,AMSA01.jpg,AMSA06.jpg,MS,2,num_2,32,num_6,0.633489693981,,,2017_Nov_01_1534,60.0064090407,FEMA4ImagesEEG,001,101659,
AFNE01.JPG,AFNE01.JPG,AFNE01.JPG,AFNE01.JPG,AFNE01.JPG,AFNE01.JPG,,,,,3,3,33,8,,,,,,,,,,,,,,,,,,,AMNE09.jpg,AMSA09.jpg,AMNE15.jpg,AMSA16.jpg,AMNE15.jpg,MN,1,num_2,16,num_2,1.26673017303,,,2017_Nov_01_1534,60.0064090407,FEMA4ImagesEEG,001,101659,
AFNE01.JPG,AFNE01.JPG,AFNE01.JPG,AFNE01.JPG,AFNE01.JPG,AFNE01.JPG,,,,,3,4,34,2,,,,,,,,,,,,,,,,,,,AMSA04.jpg,AMNE18.jpg,AMNE05.jpg,AMSA01.jpg,AMSA01.jpg,MS,2,num_4,16,num_4,1.08341407962,,,2017_Nov_01_1534,60.0064090407,FEMA4ImagesEEG,001,101659,
AFNE01.JPG,AFNE01.JPG,AFNE01.JPG,AFNE01.JPG,AFNE01.JPG,AFNE01.JPG,,,,,3,5,35,5,,,,,,,,,,,,,,,,,,,AMSA19.jpg,AMNE08.jpg,AMSA12.jpg,AMNE20.jpg,AMNE20.jpg,MN,1,num_4,32,num_8,0.983463633573,,,2017_Nov_01_1534,60.0064090407,FEMA4ImagesEEG,001,101659,
AFNE01.JPG,AFNE01.JPG,AFNE01.JPG,AFNE01.JPG,AFNE01.JPG,AFNE01.JPG,,,,,3,6,36,9,,,,,,,,,,,,,,,,,,,AMNE18.jpg,AMNE16.jpg,AMSA06.jpg,AMSA12.jpg,AMNE16.jpg,MN,1,num_6,32,num_8,0.750123725273,,,2017_Nov_01_1534,60.0064090407,FEMA4ImagesEEG,001,101659,
AFNE01.JPG,AFNE01.JPG,AFNE01.JPG,AFNE01.JPG,AFNE01.JPG,AFNE01.JPG,,,,,3,7,37,7,,,,,,,,,,,,,,,,,,,AMSA04.jpg,AMNE09.jpg,AMSA18.jpg,AMNE20.jpg,AMNE09.jpg,MN,1,num_6,16,num_6,0.583485444076,,,2017_Nov_01_1534,60.0064090407,FEMA4ImagesEEG,001,101659,
AFNE01.JPG,AFNE01.JPG,AFNE01.JPG,AFNE01.JPG,AFNE01.JPG,AFNE01.JPG,,,,,3,8,38,0,,,,,,,,,,,,,,,,,,,AMNE04.jpg,AMSA07.jpg,AMNE10.jpg,AMSA10.jpg,AMNE10.jpg,MN,1,num_2,16,num_2,1.60011033434,,,2017_Nov_01_1534,60.0064090407,FEMA4ImagesEEG,001,101659,
AFNE01.JPG,AFNE01.JPG,AFNE01.JPG,AFNE01.JPG,AFNE01.JPG,AFNE01.JPG,,,,,3,9,39,1,,,,,,,,,,,,,,,,,,,AMNE16.jpg,AMNE02.jpg,AMSA16.jpg,AMSA02.jpg,AMNE16.jpg,MN,1,num_8,32,num_2,1.85002638097,,,2017_Nov_01_1534,60.0064090407,FEMA4ImagesEEG,001,101659,
AFNE01.JPG,AFNE01.JPG,AFNE01.JPG,AFNE01.JPG,AFNE01.JPG,AFNE01.JPG,,,,,4,0,40,0,,,,,,,,,,,,,,,,,,,AMSA16.jpg,AMNE06.jpg,AMSA19.jpg,AMNE05.jpg,AMSA19.jpg,MS,2,num_2,32,num_8,0.950087161036,,,2017_Nov_01_1534,60.0064090407,FEMA4ImagesEEG,001,101659,
AFNE01.JPG,AFNE01.JPG,AFNE01.JPG,AFNE01.JPG,AFNE01.JPG,AFNE01.JPG,,,,,4,1,41,9,,,,,,,,,,,,,,,,,,,AMNE05.jpg,AMNE06.jpg,AMSA15.jpg,AMSA05.jpg,AMNE05.jpg,MN,1,num_8,32,num_6,0.816830484197,,,2017_Nov_01_1534,60.0064090407,FEMA4ImagesEEG,001,101659,
AFNE01.JPG,AFNE01.JPG,AFNE01.JPG,AFNE01.JPG,AFNE01.JPG,AFNE01.JPG,,,,,4,2,42,6,,,,,,,,,,,,,,,,,,,AMNE06.jpg,AMSA17.jpg,AMSA02.jpg,AMNE09.jpg,AMSA02.jpg,MS,2,num_2,16,num_2,1.03343324363,,,2017_Nov_01_1534,60.0064090407,FEMA4ImagesEEG,001,101659,
AFNE01.JPG,AFNE01.JPG,AFNE01.JPG,AFNE01.JPG,AFNE01.JPG,AFNE01.JPG,,,,,4,3,43,7,,,,,,,,,,,,,,,,,,,AMNE05.jpg,AMNE19.jpg,AMSA15.jpg,AMSA08.jpg,AMNE19.jpg,MN,1,num_6,32,num_8,1.06662272546,,,2017_Nov_01_1534,60.0064090407,FEMA4ImagesEEG,001,101659,
AFNE01.JPG,AFNE01.JPG,AFNE01.JPG,AFNE01.JPG,AFNE01.JPG,AFNE01.JPG,,,,,4,4,44,5,,,,,,,,,,,,,,,,,,,AMSA14.jpg,AMSA11.jpg,AMNE08.jpg,AMNE12.jpg,AMSA14.jpg,MS,2,num_8,16,num_8,0.650403570384,,,2017_Nov_01_1534,60.0064090407,FEMA4ImagesEEG,001,101659,
AFNE01.JPG,AFNE01.JPG,AFNE01.JPG,AFNE01.JPG,AFNE01.JPG,AFNE01.JPG,,,,,4,5,45,3,,,,,,,,,,,,,,,,,,,AMNE17.jpg,AMNE18.jpg,AMSA02.jpg,AMSA18.jpg,AMSA02.jpg,MS,2,num_2,32,num_6,1.00011225883,,,2017_Nov_01_1534,60.0064090407,FEMA4ImagesEEG,001,101659,
AFNE01.JPG,AFNE01.JPG,AFNE01.JPG,AFNE01.JPG,AFNE01.JPG,AFNE01.JPG,,,,,4,6,46,2,,,,,,,,,,,,,,,,,,,AMSA01.jpg,AMNE03.jpg,AMNE07.jpg,AMSA15.jpg,AMSA15.jpg,MS,2,num_4,16,num_4,1.20010905131,,,2017_Nov_01_1534,60.0064090407,FEMA4ImagesEEG,001,101659,
AFNE01.JPG,AFNE01.JPG,AFNE01.JPG,AFNE01.JPG,AFNE01.JPG,AFNE01.JPG,,,,,4,7,47,1,,,,,,,,,,,,,,,,,,,AMNE06.jpg,AMSA16.jpg,AMNE14.jpg,AMSA11.jpg,AMSA11.jpg,MS,2,num_4,32,num_8,1.95000601374,,,2017_Nov_01_1534,60.0064090407,FEMA4ImagesEEG,001,101659,
AFNE01.JPG,AFNE01.JPG,AFNE01.JPG,AFNE01.JPG,AFNE01.JPG,AFNE01.JPG,,,,,4,8,48,4,,,,,,,,,,,,,,,,,,,AMSA20.jpg,AMSA16.jpg,AMNE17.jpg,AMNE02.jpg,AMSA20.jpg,MS,2,num_8,32,num_6,1.1834241827,,,2017_Nov_01_1534,60.0064090407,FEMA4ImagesEEG,001,101659,
AFNE01.JPG,AFNE01.JPG,AFNE01.JPG,AFNE01.JPG,AFNE01.JPG,AFNE01.JPG,,,,,4,9,49,8,,,,,,,,,,,,,,,,,,,AMNE18.jpg,AMSA15.jpg,AMSA08.jpg,AMNE15.jpg,AMSA15.jpg,MS,2,num_6,16,num_6,0.600191481411,,,2017_Nov_01_1534,60.0064090407,FEMA4ImagesEEG,001,101659,
AFNE01.JPG,AFNE01.JPG,AFNE01.JPG,AFNE01.JPG,AFNE01.JPG,AFNE01.JPG,,,,,5,0,50,7,,,,,,,,,,,,,,,,,,,AMNE04.jpg,AMSA14.jpg,AMSA06.jpg,AMNE08.jpg,AMSA06.jpg,MS,2,num_2,32,num_8,1.13344046031,,,2017_Nov_01_1534,60.0064090407,FEMA4ImagesEEG,001,101659,
AFNE01.JPG,AFNE01.JPG,AFNE01.JPG,AFNE01.JPG,AFNE01.JPG,AFNE01.JPG,,,,,5,1,51,9,,,,,,,,,,,,,,,,,,,AMSA12.jpg,AMNE11.jpg,AMSA18.jpg,AMNE03.jpg,AMSA12.jpg,MS,2,num_8,16,num_8,0.900084194262,,,2017_Nov_01_1534,60.0064090407,FEMA4ImagesEEG,001,101659,
AFNE01.JPG,AFNE01.JPG,AFNE01.JPG,AFNE01.JPG,AFNE01.JPG,AFNE01.JPG,,,,,5,2,52,3,,,,,,,,,,,,,,,,,,,AMSA07.jpg,AMNE14.jpg,AMNE15.jpg,AMSA14.jpg,AMNE15.jpg,MN,1,num_2,16,num_2,1.2167535068,,,2017_Nov_01_1534,60.0064090407,FEMA4ImagesEEG,001,101659,
AFNE01.JPG,AFNE01.JPG,AFNE01.JPG,AFNE01.JPG,AFNE01.JPG,AFNE01.JPG,,,,,5,3,53,6,,,,,,,,,,,,,,,,,,,AMNE07.jpg,AMSA13.jpg,AMNE09.jpg,AMSA15.jpg,AMNE09.jpg,MN,1,num_2,16,num_2,0.566796726547,,,2017_Nov_01_1534,60.0064090407,FEMA4ImagesEEG,001,101659,
AFNE01.JPG,AFNE01.JPG,AFNE01.JPG,AFNE01.JPG,AFNE01.JPG,AFNE01.JPG,,,,,5,4,54,4,,,,,,,,,,,,,,,,,,,AMSA14.jpg,AMSA01.jpg,AMNE14.jpg,AMNE04.jpg,AMSA14.jpg,MS,2,num_8,16,num_8,1.86678822688,,,2017_Nov_01_1534,60.0064090407,FEMA4ImagesEEG,001,101659,
AFNE01.JPG,AFNE01.JPG,AFNE01.JPG,AFNE01.JPG,AFNE01.JPG,AFNE01.JPG,,,,,5,5,55,8,,,,,,,,,,,,,,,,,,,AMNE05.jpg,AMSA01.jpg,AMNE07.jpg,AMSA18.jpg,AMSA01.jpg,MS,2,num_6,16,num_6,0.550145535497,,,2017_Nov_01_1534,60.0064090407,FEMA4ImagesEEG,001,101659,
AFNE01.JPG,AFNE01.JPG,AFNE01.JPG,AFNE01.JPG,AFNE01.JPG,AFNE01.JPG,,,,,5,6,56,2,,,,,,,,,,,,,,,,,,,AMNE15.jpg,AMSA02.jpg,AMNE11.jpg,AMSA16.jpg,AMSA02.jpg,MS,2,num_6,16,num_6,0.466786623234,,,2017_Nov_01_1534,60.0064090407,FEMA4ImagesEEG,001,101659,
AFNE01.JPG,AFNE01.JPG,AFNE01.JPG,AFNE01.JPG,AFNE01.JPG,AFNE01.JPG,,,,,5,7,57,1,,,,,,,,,,,,,,,,,,,AMNE07.jpg,AMSA13.jpg,AMSA10.jpg,AMNE10.jpg,AMNE07.jpg,MN,1,num_8,16,num_8,0.816764411982,,,2017_Nov_01_1534,60.0064090407,FEMA4ImagesEEG,001,101659,
AFNE01.JPG,AFNE01.JPG,AFNE01.JPG,AFNE01.JPG,AFNE01.JPG,AFNE01.JPG,,,,,5,8,58,0,,,,,,,,,,,,,,,,,,,AMNE09.jpg,AMSA17.jpg,AMNE10.jpg,AMSA16.jpg,AMSA17.jpg,MS,2,num_6,16,num_6,2.01669705682,,,2017_Nov_01_1534,60.0064090407,FEMA4ImagesEEG,001,101659,
AFNE01.JPG,AFNE01.JPG,AFNE01.JPG,AFNE01.JPG,AFNE01.JPG,AFNE01.JPG,,,,,5,9,59,5,,,,,,,,,,,,,,,,,,,AMSA16.jpg,AMNE11.jpg,AMNE07.jpg,AMSA06.jpg,AMNE07.jpg,MN,1,num_2,32,num_8,0.983485764591,,,2017_Nov_01_1534,60.0064090407,FEMA4ImagesEEG,001,101659,
,,,,,,,,,,,,,,,,,,,,,,,,,,,,,,,,,,,,,,,,,,,space,3.06663780008,2017_Nov_01_1534,60.0064090407,FEMA4ImagesEEG,001,101659,
AFNE01.JPG,AFNE01.JPG,AFNE01.JPG,AFNE01.JPG,AFNE01.JPG,AFNE01.JPG,,,,,,,,,0,0,0,6,,,,,,,,,,,,,,,AFSA17.jpg,AFSA14.jpg,AFNE13.jpg,AFNE15.jpg,AFSA14.jpg,FS,4,num_6,32,num_8,0.733442705357,,,2017_Nov_01_1534,60.0064090407,FEMA4ImagesEEG,001,101659,
AFNE01.JPG,AFNE01.JPG,AFNE01.JPG,AFNE01.JPG,AFNE01.JPG,AFNE01.JPG,,,,,,,,,0,1,1,9,,,,,,,,,,,,,,,AFSA10.jpg,AFSA09.jpg,AFNE01.jpg,AFNE10.jpg,AFNE01.jpg,FN,3,num_2,32,num_6,0.800091410754,,,2017_Nov_01_1534,60.0064090407,FEMA4ImagesEEG,001,101659,
AFNE01.JPG,AFNE01.JPG,AFNE01.JPG,AFNE01.JPG,AFNE01.JPG,AFNE01.JPG,,,,,,,,,0,2,2,0,,,,,,,,,,,,,,,AFSA19.jpg,AFSA18.jpg,AFNE17.jpg,AFNE11.jpg,AFNE17.jpg,FN,3,num_2,32,num_8,0.699852620251,,,2017_Nov_01_1534,60.0064090407,FEMA4ImagesEEG,001,101659,
AFNE01.JPG,AFNE01.JPG,AFNE01.JPG,AFNE01.JPG,AFNE01.JPG,AFNE01.JPG,,,,,,,,,0,3,3,7,,,,,,,,,,,,,,,AFNE20.jpg,AFSA06.jpg,AFNE10.jpg,AFSA07.jpg,AFNE20.jpg,FN,3,num_8,16,num_8,0.816777883098,,,2017_Nov_01_1534,60.0064090407,FEMA4ImagesEEG,001,101659,
AFNE01.JPG,AFNE01.JPG,AFNE01.JPG,AFNE01.JPG,AFNE01.JPG,AFNE01.JPG,,,,,,,,,0,4,4,4,,,,,,,,,,,,,,,AFSA18.jpg,AFSA09.jpg,AFNE09.jpg,AFNE17.jpg,AFNE17.jpg,FN,3,num_4,32,num_6,0.766718786675,,,2017_Nov_01_1534,60.0064090407,FEMA4ImagesEEG,001,101659,
AFNE01.JPG,AFNE01.JPG,AFNE01.JPG,AFNE01.JPG,AFNE01.JPG,AFNE01.JPG,,,,,,,,,0,5,5,1,,,,,,,,,,,,,,,AFSA10.jpg,AFSA07.jpg,AFNE18.jpg,AFNE12.jpg,AFSA10.jpg,FS,4,num_8,32,num_6,1.20009493874,,,2017_Nov_01_1534,60.0064090407,FEMA4ImagesEEG,001,101659,
AFNE01.JPG,AFNE01.JPG,AFNE01.JPG,AFNE01.JPG,AFNE01.JPG,AFNE01.JPG,,,,,,,,,0,6,6,5,,,,,,,,,,,,,,,AFNE03.jpg,AFNE12.jpg,AFSA09.jpg,AFSA14.jpg,AFNE03.jpg,FN,3,num_8,16,num_8,0.616759601049,,,2017_Nov_01_1534,60.0064090407,FEMA4ImagesEEG,001,101659,
AFNE01.JPG,AFNE01.JPG,AFNE01.JPG,AFNE01.JPG,AFNE01.JPG,AFNE01.JPG,,,,,,,,,0,7,7,2,,,,,,,,,,,,,,,AFNE01.jpg,AFSA11.jpg,AFNE15.jpg,AFSA14.jpg,AFNE15.jpg,FN,3,num_2,32,num_8,0.866771227913,,,2017_Nov_01_1534,60.0064090407,FEMA4ImagesEEG,001,101659,
AFNE01.JPG,AFNE01.JPG,AFNE01.JPG,AFNE01.JPG,AFNE01.JPG,AFNE01.JPG,,,,,,,,,0,8,8,3,,,,,,,,,,,,,,,AFSA18.jpg,AFSA12.jpg,AFNE07.jpg,AFNE17.jpg,AFNE07.jpg,FN,3,num_2,16,num_2,0.866763209226,,,2017_Nov_01_1534,60.0064090407,FEMA4ImagesEEG,001,101659,
AFNE01.JPG,AFNE01.JPG,AFNE01.JPG,AFNE01.JPG,AFNE01.JPG,AFNE01.JPG,,,,,,,,,0,9,9,8,,,,,,,,,,,,,,,AFNE08.jpg,AFSA06.jpg,AFNE20.jpg,AFSA05.jpg,AFSA06.jpg,FS,4,num_6,32,num_4,0.450139601715,,,2017_Nov_01_1534,60.0064090407,FEMA4ImagesEEG,001,101659,
AFNE01.JPG,AFNE01.JPG,AFNE01.JPG,AFNE01.JPG,AFNE01.JPG,AFNE01.JPG,,,,,,,,,1,0,10,6,,,,,,,,,,,,,,,AFNE19.jpg,AFSA04.jpg,AFNE17.jpg,AFSA10.jpg,AFSA10.jpg,FS,4,num_4,16,num_4,0.650152431335,,,2017_Nov_01_1534,60.0064090407,FEMA4ImagesEEG,001,101659,
AFNE01.JPG,AFNE01.JPG,AFNE01.JPG,AFNE01.JPG,AFNE01.JPG,AFNE01.JPG,,,,,,,,,1,1,11,8,,,,,,,,,,,,,,,AFSA13.jpg,AFSA15.jpg,AFNE01.jpg,AFNE06.jpg,AFNE06.jpg,FN,3,num_4,32,num_8,0.566466685617,,,2017_Nov_01_1534,60.0064090407,FEMA4ImagesEEG,001,101659,
AFNE01.JPG,AFNE01.JPG,AFNE01.JPG,AFNE01.JPG,AFNE01.JPG,AFNE01.JPG,,,,,,,,,1,2,12,0,,,,,,,,,,,,,,,AFSA15.jpg,AFNE18.jpg,AFNE03.jpg,AFSA09.jpg,AFNE18.jpg,FN,3,num_6,16,num_6,1.00008082646,,,2017_Nov_01_1534,60.0064090407,FEMA4ImagesEEG,001,101659,
AFNE01.JPG,AFNE01.JPG,AFNE01.JPG,AFNE01.JPG,AFNE01.JPG,AFNE01.JPG,,,,,,,,,1,3,13,7,,,,,,,,,,,,,,,AFSA16.jpg,AFSA03.jpg,AFNE12.jpg,AFNE11.jpg,AFSA16.jpg,FS,4,num_8,16,num_8,2.09999823594,,,2017_Nov_01_1534,60.0064090407,FEMA4ImagesEEG,001,101659,
AFNE01.JPG,AFNE01.JPG,AFNE01.JPG,AFNE01.JPG,AFNE01.JPG,AFNE01.JPG,,,,,,,,,1,4,14,1,,,,,,,,,,,,,,,AFNE11.jpg,AFSA11.jpg,AFSA12.jpg,AFNE05.jpg,AFNE11.jpg,FN,3,num_8,16,num_8,0.716732819099,,,2017_Nov_01_1534,60.0064090407,FEMA4ImagesEEG,001,101659,
AFNE01.JPG,AFNE01.JPG,AFNE01.JPG,AFNE01.JPG,AFNE01.JPG,AFNE01.JPG,,,,,,,,,1,5,15,2,,,,,,,,,,,,,,,AFSA20.jpg,AFNE19.jpg,AFSA16.jpg,AFNE07.jpg,AFSA16.jpg,FS,4,num_2,32,num_8,1.28341119294,,,2017_Nov_01_1534,60.0064090407,FEMA4ImagesEEG,001,101659,
AFNE01.JPG,AFNE01.JPG,AFNE01.JPG,AFNE01.JPG,AFNE01.JPG,AFNE01.JPG,,,,,,,,,1,6,16,3,,,,,,,,,,,,,,,AFSA14.jpg,AFSA01.jpg,AFNE20.jpg,AFNE19.jpg,AFSA01.jpg,FS,4,num_6,32,num_4,0.983782128198,,,2017_Nov_01_1534,60.0064090407,FEMA4ImagesEEG,001,101659,
AFNE01.JPG,AFNE01.JPG,AFNE01.JPG,AFNE01.JPG,AFNE01.JPG,AFNE01.JPG,,,,,,,,,1,7,17,4,,,,,,,,,,,,,,,AFSA03.jpg,AFNE05.jpg,AFSA01.jpg,AFNE01.jpg,AFNE01.jpg,FN,3,num_4,32,num_6,0.883453530492,,,2017_Nov_01_1534,60.0064090407,FEMA4ImagesEEG,001,101659,
AFNE01.JPG,AFNE01.JPG,AFNE01.JPG,AFNE01.JPG,AFNE01.JPG,AFNE01.JPG,,,,,,,,,1,8,18,9,,,,,,,,,,,,,,,AFNE05.jpg,AFSA16.jpg,AFSA06.jpg,AFNE13.jpg,AFNE13.jpg,FN,3,num_4,16,num_4,1.70007008151,,,2017_Nov_01_1534,60.0064090407,FEMA4ImagesEEG,001,101659,
AFNE01.JPG,AFNE01.JPG,AFNE01.JPG,AFNE01.JPG,AFNE01.JPG,AFNE01.JPG,,,,,,,,,1,9,19,5,,,,,,,,,,,,,,,AFSA17.jpg,AFSA01.jpg,AFNE12.jpg,AFNE06.jpg,AFNE06.jpg,FN,3,num_4,16,num_4,0.73346419516,,,2017_Nov_01_1534,60.0064090407,FEMA4ImagesEEG,001,101659,
AFNE01.JPG,AFNE01.JPG,AFNE01.JPG,AFNE01.JPG,AFNE01.JPG,AFNE01.JPG,,,,,,,,,2,0,20,7,,,,,,,,,,,,,,,AFSA16.jpg,AFNE06.jpg,AFNE13.jpg,AFSA19.jpg,AFSA19.jpg,FS,4,num_4,16,num_4,0.533496268792,,,2017_Nov_01_1534,60.0064090407,FEMA4ImagesEEG,001,101659,
AFNE01.JPG,AFNE01.JPG,AFNE01.JPG,AFNE01.JPG,AFNE01.JPG,AFNE01.JPG,,,,,,,,,2,1,21,2,,,,,,,,,,,,,,,AFNE08.jpg,AFNE19.jpg,AFSA06.jpg,AFSA07.jpg,AFSA07.jpg,FS,4,num_4,32,num_8,1.70007489272,,,2017_Nov_01_1534,60.0064090407,FEMA4ImagesEEG,001,101659,
AFNE01.JPG,AFNE01.JPG,AFNE01.JPG,AFNE01.JPG,AFNE01.JPG,AFNE01.JPG,,,,,,,,,2,2,22,0,,,,,,,,,,,,,,,AFNE16.jpg,AFSA18.jpg,AFSA05.jpg,AFNE11.jpg,AFSA05.jpg,FS,4,num_2,16,num_2,0.833488731645,,,2017_Nov_01_1534,60.0064090407,FEMA4ImagesEEG,001,101659,
AFNE01.JPG,AFNE01.JPG,AFNE01.JPG,AFNE01.JPG,AFNE01.JPG,AFNE01.JPG,,,,,,,,,2,3,23,4,,,,,,,,,,,,,,,AFSA18.jpg,AFNE18.jpg,AFNE01.jpg,AFSA17.jpg,AFNE18.jpg,FN,3,num_6,16,num_6,0.783488330664,,,2017_Nov_01_1534,60.0064090407,FEMA4ImagesEEG,001,101659,
AFNE01.JPG,AFNE01.JPG,AFNE01.JPG,AFNE01.JPG,AFNE01.JPG,AFNE01.JPG,,,,,,,,,2,4,24,1,,,,,,,,,,,,,,,AFSA04.jpg,AFNE07.jpg,AFNE05.jpg,AFSA17.jpg,AFSA04.jpg,FS,4,num_8,16,num_8,0.583454653155,,,2017_Nov_01_1534,60.0064090407,FEMA4ImagesEEG,001,101659,
AFNE01.JPG,AFNE01.JPG,AFNE01.JPG,AFNE01.JPG,AFNE01.JPG,AFNE01.JPG,,,,,,,,,2,5,25,6,,,,,,,,,,,,,,,AFSA07.jpg,AFNE20.jpg,AFNE02.jpg,AFSA04.jpg,AFSA07.jpg,FS,4,num_8,32,num_6,0.866730172886,,,2017_Nov_01_1534,60.0064090407,FEMA4ImagesEEG,001,101659,
AFNE01.JPG,AFNE01.JPG,AFNE01.JPG,AFNE01.JPG,AFNE01.JPG,AFNE01.JPG,,,,,,,,,2,6,26,3,,,,,,,,,,,,,,,AFSA01.jpg,AFSA12.jpg,AFNE15.jpg,AFNE16.jpg,AFNE15.jpg,FN,3,num_2,16,num_2,1.10010728729,,,2017_Nov_01_1534,60.0064090407,FEMA4ImagesEEG,001,101659,
AFNE01.JPG,AFNE01.JPG,AFNE01.JPG,AFNE01.JPG,AFNE01.JPG,AFNE01.JPG,,,,,,,,,2,7,27,8,,,,,,,,,,,,,,,AFNE07.jpg,AFSA01.jpg,AFNE20.jpg,AFSA12.jpg,AFSA01.jpg,FS,4,num_6,16,num_6,0.950145535404,,,2017_Nov_01_1534,60.0064090407,FEMA4ImagesEEG,001,101659,
AFNE01.JPG,AFNE01.JPG,AFNE01.JPG,AFNE01.JPG,AFNE01.JPG,AFNE01.JPG,,,,,,,,,2,8,28,9,,,,,,,,,,,,,,,AFSA11.jpg,AFSA09.jpg,AFNE04.jpg,AFNE07.jpg,AFSA09.jpg,FS,4,num_6,32,num_8,0.800121239386,,,2017_Nov_01_1534,60.0064090407,FEMA4ImagesEEG,001,101659,
AFNE01.JPG,AFNE01.JPG,AFNE01.JPG,AFNE01.JPG,AFNE01.JPG,AFNE01.JPG,,,,,,,,,2,9,29,5,,,,,,,,,,,,,,,AFNE17.jpg,AFSA20.jpg,AFNE20.jpg,AFSA13.jpg,AFNE17.jpg,FN,3,num_8,32,num_6,0.633471411886,,,2017_Nov_01_1534,60.0064090407,FEMA4ImagesEEG,001,101659,
AFNE01.JPG,AFNE01.JPG,AFNE01.JPG,AFNE01.JPG,AFNE01.JPG,AFNE01.JPG,,,,,,,,,3,0,30,4,,,,,,,,,,,,,,,AFNE03.jpg,AFSA18.jpg,AFSA03.jpg,AFNE19.jpg,AFSA18.jpg,FS,4,num_6,16,num_6,1.18344599311,,,2017_Nov_01_1534,60.0064090407,FEMA4ImagesEEG,001,101659,
AFNE01.JPG,AFNE01.JPG,AFNE01.JPG,AFNE01.JPG,AFNE01.JPG,AFNE01.JPG,,,,,,,,,3,1,31,0,,,,,,,,,,,,,,,AFNE20.jpg,AFSA08.jpg,AFSA13.jpg,AFNE04.jpg,AFSA08.jpg,FS,4,num_6,32,num_2,0.516775798285,,,2017_Nov_01_1534,60.0064090407,FEMA4ImagesEEG,001,101659,
AFNE01.JPG,AFNE01.JPG,AFNE01.JPG,AFNE01.JPG,AFNE01.JPG,AFNE01.JPG,,,,,,,,,3,2,32,2,,,,,,,,,,,,,,,AFNE14.jpg,AFSA01.jpg,AFSA11.jpg,AFNE17.jpg,AFSA11.jpg,FS,4,num_2,16,num_2,0.566642771475,,,2017_Nov_01_1534,60.0064090407,FEMA4ImagesEEG,001,101659,
AFNE01.JPG,AFNE01.JPG,AFNE01.JPG,AFNE01.JPG,AFNE01.JPG,AFNE01.JPG,,,,,,,,,3,3,33,7,,,,,,,,,,,,,,,AFSA03.jpg,AFNE04.jpg,AFNE03.jpg,AFSA08.jpg,AFSA03.jpg,FS,4,num_8,16,num_8,0.516761044273,,,2017_Nov_01_1534,60.0064090407,FEMA4ImagesEEG,001,101659,
AFNE01.JPG,AFNE01.JPG,AFNE01.JPG,AFNE01.JPG,AFNE01.JPG,AFNE01.JPG,,,,,,,,,3,4,34,1,,,,,,,,,,,,,,,AFSA05.jpg,AFSA07.jpg,AFNE10.jpg,AFNE15.jpg,AFNE10.jpg,FN,3,num_2,32,num_6,0.850146337179,,,2017_Nov_01_1534,60.0064090407,FEMA4ImagesEEG,001,101659,
AFNE01.JPG,AFNE01.JPG,AFNE01.JPG,AFNE01.JPG,AFNE01.JPG,AFNE01.JPG,,,,,,,,,3,5,35,9,,,,,,,,,,,,,,,AFSA11.jpg,AFNE18.jpg,AFNE11.jpg,AFSA10.jpg,AFSA11.jpg,FS,4,num_8,16,num_8,0.783437012462,,,2017_Nov_01_1534,60.0064090407,FEMA4ImagesEEG,001,101659,
AFNE01.JPG,AFNE01.JPG,AFNE01.JPG,AFNE01.JPG,AFNE01.JPG,AFNE01.JPG,,,,,,,,,3,6,36,6,,,,,,,,,,,,,,,AFNE02.jpg,AFSA14.jpg,AFNE17.jpg,AFSA08.jpg,AFNE17.jpg,FN,3,num_2,32,num_8,0.766476949211,,,2017_Nov_01_1534,60.0064090407,FEMA4ImagesEEG,001,101659,
AFNE01.JPG,AFNE01.JPG,AFNE01.JPG,AFNE01.JPG,AFNE01.JPG,AFNE01.JPG,,,,,,,,,3,7,37,5,,,,,,,,,,,,,,,AFNE08.jpg,AFNE16.jpg,AFSA10.jpg,AFSA06.jpg,AFSA06.jpg,FS,4,num_4,32,num_6,0.516793118091,,,2017_Nov_01_1534,60.0064090407,FEMA4ImagesEEG,001,101659,
AFNE01.JPG,AFNE01.JPG,AFNE01.JPG,AFNE01.JPG,AFNE01.JPG,AFNE01.JPG,,,,,,,,,3,8,38,8,,,,,,,,,,,,,,,AFSA14.jpg,AFNE16.jpg,AFSA20.jpg,AFNE06.jpg,AFNE16.jpg,FN,3,num_6,16,num_6,0.833440299844,,,2017_Nov_01_1534,60.0064090407,FEMA4ImagesEEG,001,101659,
AFNE01.JPG,AFNE01.JPG,AFNE01.JPG,AFNE01.JPG,AFNE01.JPG,AFNE01.JPG,,,,,,,,,3,9,39,3,,,,,,,,,,,,,,,AFSA07.jpg,AFSA05.jpg,AFNE12.jpg,AFNE03.jpg,AFSA05.jpg,FS,4,num_6,16,num_6,0.533469006186,,,2017_Nov_01_1534,60.0064090407,FEMA4ImagesEEG,001,101659,
AFNE01.JPG,AFNE01.JPG,AFNE01.JPG,AFNE01.JPG,AFNE01.JPG,AFNE01.JPG,,,,,,,,,4,0,40,1,,,,,,,,,,,,,,,AFSA07.jpg,AFSA17.jpg,AFNE09.jpg,AFNE08.jpg,AFSA07.jpg,FS,4,num_8,16,num_8,0.800138880266,,,2017_Nov_01_1534,60.0064090407,FEMA4ImagesEEG,001,101659,
AFNE01.JPG,AFNE01.JPG,AFNE01.JPG,AFNE01.JPG,AFNE01.JPG,AFNE01.JPG,,,,,,,,,4,1,41,6,,,,,,,,,,,,,,,AFSA12.jpg,AFSA04.jpg,AFNE17.jpg,AFNE12.jpg,AFSA04.jpg,FS,4,num_6,32,num_8,0.783412315417,,,2017_Nov_01_1534,60.0064090407,FEMA4ImagesEEG,001,101659,
AFNE01.JPG,AFNE01.JPG,AFNE01.JPG,AFNE01.JPG,AFNE01.JPG,AFNE01.JPG,,,,,,,,,4,2,42,9,,,,,,,,,,,,,,,AFNE13.jpg,AFSA14.jpg,AFNE09.jpg,AFSA05.jpg,AFSA05.jpg,FS,4,num_4,16,num_4,0.600147540215,,,2017_Nov_01_1534,60.0064090407,FEMA4ImagesEEG,001,101659,
AFNE01.JPG,AFNE01.JPG,AFNE01.JPG,AFNE01.JPG,AFNE01.JPG,AFNE01.JPG,,,,,,,,,4,3,43,2,,,,,,,,,,,,,,,AFNE17.jpg,AFSA01.jpg,AFSA03.jpg,AFNE15.jpg,AFSA01.jpg,FS,4,num_6,32,num_8,0.600157483015,,,2017_Nov_01_1534,60.0064090407,FEMA4ImagesEEG,001,101659,
AFNE01.JPG,AFNE01.JPG,AFNE01.JPG,AFNE01.JPG,AFNE01.JPG,AFNE01.JPG,,,,,,,,,4,4,44,5,,,,,,,,,,,,,,,AFSA02.jpg,AFNE08.jpg,AFNE16.jpg,AFSA05.jpg,AFNE08.jpg,FN,3,num_6,16,num_6,0.783504688414,,,2017_Nov_01_1534,60.0064090407,FEMA4ImagesEEG,001,101659,
AFNE01.JPG,AFNE01.JPG,AFNE01.JPG,AFNE01.JPG,AFNE01.JPG,AFNE01.JPG,,,,,,,,,4,5,45,3,,,,,,,,,,,,,,,AFNE08.jpg,AFSA04.jpg,AFNE09.jpg,AFSA19.jpg,AFSA19.jpg,FS,4,num_4,32,num_6,0.800000962336,,,2017_Nov_01_1534,60.0064090407,FEMA4ImagesEEG,001,101659,
AFNE01.JPG,AFNE01.JPG,AFNE01.JPG,AFNE01.JPG,AFNE01.JPG,AFNE01.JPG,,,,,,,,,4,6,46,7,,,,,,,,,,,,,,,AFSA09.jpg,AFNE01.jpg,AFSA12.jpg,AFNE06.jpg,AFSA09.jpg,FS,4,num_8,32,num_2,1.26682190457,,,2017_Nov_01_1534,60.0064090407,FEMA4ImagesEEG,001,101659,
AFNE01.JPG,AFNE01.JPG,AFNE01.JPG,AFNE01.JPG,AFNE01.JPG,AFNE01.JPG,,,,,,,,,4,7,47,4,,,,,,,,,,,,,,,AFSA19.jpg,AFSA17.jpg,AFNE16.jpg,AFNE09.jpg,AFSA19.jpg,FS,4,num_8,16,num_8,0.833499636734,,,2017_Nov_01_1534,60.0064090407,FEMA4ImagesEEG,001,101659,
AFNE01.JPG,AFNE01.JPG,AFNE01.JPG,AFNE01.JPG,AFNE01.JPG,AFNE01.JPG,,,,,,,,,4,8,48,8,,,,,,,,,,,,,,,AFSA11.jpg,AFNE19.jpg,AFNE14.jpg,AFSA16.jpg,AFNE14.jpg,FN,3,num_2,16,num_2,0.850121640367,,,2017_Nov_01_1534,60.0064090407,FEMA4ImagesEEG,001,101659,
AFNE01.JPG,AFNE01.JPG,AFNE01.JPG,AFNE01.JPG,AFNE01.JPG,AFNE01.JPG,,,,,,,,,4,9,49,0,,,,,,,,,,,,,,,AFSA11.jpg,AFSA04.jpg,AFNE19.jpg,AFNE18.jpg,AFNE18.jpg,FN,3,num_4,32,num_6,0.933445913019,,,2017_Nov_01_1534,60.0064090407,FEMA4ImagesEEG,001,101659,
AFNE01.JPG,AFNE01.JPG,AFNE01.JPG,AFNE01.JPG,AFNE01.JPG,AFNE01.JPG,,,,,,,,,5,0,50,3,,,,,,,,,,,,,,,AFSA07.jpg,AFNE19.jpg,AFNE18.jpg,AFSA14.jpg,AFNE19.jpg,FN,3,num_6,32,num_4,1.75003135228,,,2017_Nov_01_1534,60.0064090407,FEMA4ImagesEEG,001,101659,
AFNE01.JPG,AFNE01.JPG,AFNE01.JPG,AFNE01.JPG,AFNE01.JPG,AFNE01.JPG,,,,,,,,,5,1,51,0,,,,,,,,,,,,,,,AFNE04.jpg,AFNE12.jpg,AFSA20.jpg,AFSA15.jpg,AFSA20.jpg,FS,4,num_2,32,num_8,0.816769543802,,,2017_Nov_01_1534,60.0064090407,FEMA4ImagesEEG,001,101659,
AFNE01.JPG,AFNE01.JPG,AFNE01.JPG,AFNE01.JPG,AFNE01.JPG,AFNE01.JPG,,,,,,,,,5,2,52,7,,,,,,,,,,,,,,,AFSA14.jpg,AFNE07.jpg,AFNE11.jpg,AFSA02.jpg,AFNE11.jpg,FN,3,num_2,32,num_4,0.716768421233,,,2017_Nov_01_1534,60.0064090407,FEMA4ImagesEEG,001,101659,
AFNE01.JPG,AFNE01.JPG,AFNE01.JPG,AFNE01.JPG,AFNE01.JPG,AFNE01.JPG,,,,,,,,,5,3,53,1,,,,,,,,,,,,,,,AFNE19.jpg,AFNE20.jpg,AFSA05.jpg,AFSA18.jpg,AFSA18.jpg,FS,4,num_4,16,num_4,1.31671261252,,,2017_Nov_01_1534,60.0064090407,FEMA4ImagesEEG,001,101659,
AFNE01.JPG,AFNE01.JPG,AFNE01.JPG,AFNE01.JPG,AFNE01.JPG,AFNE01.JPG,,,,,,,,,5,4,54,9,,,,,,,,,,,,,,,AFNE19.jpg,AFSA04.jpg,AFNE06.jpg,AFSA07.jpg,AFNE06.jpg,FN,3,num_2,16,num_2,0.717175118858,,,2017_Nov_01_1534,60.0064090407,FEMA4ImagesEEG,001,101659,
AFNE01.JPG,AFNE01.JPG,AFNE01.JPG,AFNE01.JPG,AFNE01.JPG,AFNE01.JPG,,,,,,,,,5,5,55,2,,,,,,,,,,,,,,,AFNE08.jpg,AFSA15.jpg,AFSA08.jpg,AFNE05.jpg,AFNE08.jpg,FN,3,num_8,32,num_4,1.14996175189,,,2017_Nov_01_1534,60.0064090407,FEMA4ImagesEEG,001,101659,
AFNE01.JPG,AFNE01.JPG,AFNE01.JPG,AFNE01.JPG,AFNE01.JPG,AFNE01.JPG,,,,,,,,,5,6,56,4,,,,,,,,,,,,,,,AFSA14.jpg,AFNE08.jpg,AFSA07.jpg,AFNE12.jpg,AFNE08.jpg,FN,3,num_6,32,num_8,0.71674340358,,,2017_Nov_01_1534,60.0064090407,FEMA4ImagesEEG,001,101659,
AFNE01.JPG,AFNE01.JPG,AFNE01.JPG,AFNE01.JPG,AFNE01.JPG,AFNE01.JPG,,,,,,,,,5,7,57,6,,,,,,,,,,,,,,,AFSA18.jpg,AFNE02.jpg,AFSA09.jpg,AFNE10.jpg,AFNE10.jpg,FN,3,num_4,32,num_8,0.86672824854,,,2017_Nov_01_1534,60.0064090407,FEMA4ImagesEEG,001,101659,
AFNE01.JPG,AFNE01.JPG,AFNE01.JPG,AFNE01.JPG,AFNE01.JPG,AFNE01.JPG,,,,,,,,,5,8,58,8,,,,,,,,,,,,,,,AFSA05.jpg,AFNE18.jpg,AFNE17.jpg,AFSA01.jpg,AFSA01.jpg,FS,4,num_4,32,num_8,0.816793278558,,,2017_Nov_01_1534,60.0064090407,FEMA4ImagesEEG,001,101659,
AFNE01.JPG,AFNE01.JPG,AFNE01.JPG,AFNE01.JPG,AFNE01.JPG,AFNE01.JPG,,,,,,,,,5,9,59,5,,,,,,,,,,,,,,,AFNE13.jpg,AFSA15.jpg,AFNE18.jpg,AFSA03.jpg,AFSA03.jpg,FS,4,num_4,16,num_4,0.550141365966,,,2017_Nov_01_1534,60.0064090407,FEMA4ImagesEEG,001,101659,
,,,,,,,,,,,,,,,,,,,,,,,,,,,,,,,,,,,,,,,,,,,space,7.36621137708,2017_Nov_01_1534,60.0064090407,FEMA4ImagesEEG,001,101659,
AFNE01.JPG,AFNE01.JPG,AFNE01.JPG,AFNE01.JPG,AFNE01.JPG,AFNE01.JPG,,,,,,,,,,,,,0,0,0,1,,,,,,,,,,,AMSA20.jpg,AMNE08.jpg,AMSA06.jpg,AMNE14.jpg,AMNE14.jpg,MN,1,num_4,16,num_4,1.06658680248,,,2017_Nov_01_1534,60.0064090407,FEMA4ImagesEEG,001,101659,
AFNE01.JPG,AFNE01.JPG,AFNE01.JPG,AFNE01.JPG,AFNE01.JPG,AFNE01.JPG,,,,,,,,,,,,,0,1,1,7,,,,,,,,,,,AMSA16.jpg,AMNE06.jpg,AMNE16.jpg,AMSA12.jpg,AMNE16.jpg,MN,1,num_2,32,num_6,0.783476463519,,,2017_Nov_01_1534,60.0064090407,FEMA4ImagesEEG,001,101659,
AFNE01.JPG,AFNE01.JPG,AFNE01.JPG,AFNE01.JPG,AFNE01.JPG,AFNE01.JPG,,,,,,,,,,,,,0,2,2,4,,,,,,,,,,,AMNE09.jpg,AMSA05.jpg,AMSA19.jpg,AMNE06.jpg,AMSA19.jpg,MS,2,num_2,32,num_6,0.683501962107,,,2017_Nov_01_1534,60.0064090407,FEMA4ImagesEEG,001,101659,
AFNE01.JPG,AFNE01.JPG,AFNE01.JPG,AFNE01.JPG,AFNE01.JPG,AFNE01.JPG,,,,,,,,,,,,,0,3,3,8,,,,,,,,,,,AMSA02.jpg,AMNE03.jpg,AMSA01.jpg,AMNE10.jpg,AMSA02.jpg,MS,2,num_8,32,num_6,0.749954054132,,,2017_Nov_01_1534,60.0064090407,FEMA4ImagesEEG,001,101659,
AFNE01.JPG,AFNE01.JPG,AFNE01.JPG,AFNE01.JPG,AFNE01.JPG,AFNE01.JPG,,,,,,,,,,,,,0,4,4,6,,,,,,,,,,,AMSA13.jpg,AMNE05.jpg,AMSA16.jpg,AMNE15.jpg,AMSA16.jpg,MS,2,num_2,32,num_8,0.983445351711,,,2017_Nov_01_1534,60.0064090407,FEMA4ImagesEEG,001,101659,
AFNE01.JPG,AFNE01.JPG,AFNE01.JPG,AFNE01.JPG,AFNE01.JPG,AFNE01.JPG,,,,,,,,,,,,,0,5,5,2,,,,,,,,,,,AMNE05.jpg,AMSA19.jpg,AMNE20.jpg,AMSA17.jpg,AMNE05.jpg,MN,1,num_8,16,num_8,0.833476543659,,,2017_Nov_01_1534,60.0064090407,FEMA4ImagesEEG,001,101659,
AFNE01.JPG,AFNE01.JPG,AFNE01.JPG,AFNE01.JPG,AFNE01.JPG,AFNE01.JPG,,,,,,,,,,,,,0,6,6,3,,,,,,,,,,,AMNE09.jpg,AMNE20.jpg,AMSA09.jpg,AMSA13.jpg,AMNE20.jpg,MN,1,num_6,16,num_6,0.58356883633,,,2017_Nov_01_1534,60.0064090407,FEMA4ImagesEEG,001,101659,
AFNE01.JPG,AFNE01.JPG,AFNE01.JPG,AFNE01.JPG,AFNE01.JPG,AFNE01.JPG,,,,,,,,,,,,,0,7,7,0,,,,,,,,,,,AMNE14.jpg,AMSA18.jpg,AMSA05.jpg,AMNE20.jpg,AMSA18.jpg,MS,2,num_6,32,num_8,0.716805306263,,,2017_Nov_01_1534,60.0064090407,FEMA4ImagesEEG,001,101659,
AFNE01.JPG,AFNE01.JPG,AFNE01.JPG,AFNE01.JPG,AFNE01.JPG,AFNE01.JPG,,,,,,,,,,,,,0,8,8,9,,,,,,,,,,,AMSA07.jpg,AMSA15.jpg,AMNE20.jpg,AMNE07.jpg,AMSA07.jpg,MS,2,num_8,16,num_8,0.983442464843,,,2017_Nov_01_1534,60.0064090407,FEMA4ImagesEEG,001,101659,
AFNE01.JPG,AFNE01.JPG,AFNE01.JPG,AFNE01.JPG,AFNE01.JPG,AFNE01.JPG,,,,,,,,,,,,,0,9,9,5,,,,,,,,,,,AMSA01.jpg,AMSA02.jpg,AMNE09.jpg,AMNE12.jpg,AMNE09.jpg,MN,1,num_2,32,num_4,0.650139281061,,,2017_Nov_01_1534,60.0064090407,FEMA4ImagesEEG,001,101659,
AFNE01.JPG,AFNE01.JPG,AFNE01.JPG,AFNE01.JPG,AFNE01.JPG,AFNE01.JPG,,,,,,,,,,,,,1,0,10,6,,,,,,,,,,,AMNE01.jpg,AMSA05.jpg,AMSA11.jpg,AMNE15.jpg,AMNE15.jpg,MN,1,num_4,16,num_4,0.433434526436,,,2017_Nov_01_1534,60.0064090407,FEMA4ImagesEEG,001,101659,
AFNE01.JPG,AFNE01.JPG,AFNE01.JPG,AFNE01.JPG,AFNE01.JPG,AFNE01.JPG,,,,,,,,,,,,,1,1,11,2,,,,,,,,,,,AMNE02.jpg,AMSA11.jpg,AMNE09.jpg,AMSA02.jpg,AMSA02.jpg,MS,2,num_4,16,num_4,0.466816451866,,,2017_Nov_01_1534,60.0064090407,FEMA4ImagesEEG,001,101659,
AFNE01.JPG,AFNE01.JPG,AFNE01.JPG,AFNE01.JPG,AFNE01.JPG,AFNE01.JPG,,,,,,,,,,,,,1,2,12,3,,,,,,,,,,,AMSA18.jpg,AMNE01.jpg,AMSA12.jpg,AMNE11.jpg,AMSA18.jpg,MS,2,num_8,16,num_8,0.733457459603,,,2017_Nov_01_1534,60.0064090407,FEMA4ImagesEEG,001,101659,
AFNE01.JPG,AFNE01.JPG,AFNE01.JPG,AFNE01.JPG,AFNE01.JPG,AFNE01.JPG,,,,,,,,,,,,,1,3,13,9,,,,,,,,,,,AMSA03.jpg,AMNE10.jpg,AMSA17.jpg,AMNE12.jpg,AMNE10.jpg,MN,1,num_6,16,num_6,0.60014529503,,,2017_Nov_01_1534,60.0064090407,FEMA4ImagesEEG,001,101659,
AFNE01.JPG,AFNE01.JPG,AFNE01.JPG,AFNE01.JPG,AFNE01.JPG,AFNE01.JPG,,,,,,,,,,,,,1,4,14,8,,,,,,,,,,,AMSA09.jpg,AMSA11.jpg,AMNE20.jpg,AMNE16.jpg,AMSA11.jpg,MS,2,num_6,16,num_6,0.750127574196,,,2017_Nov_01_1534,60.0064090407,FEMA4ImagesEEG,001,101659,
AFNE01.JPG,AFNE01.JPG,AFNE01.JPG,AFNE01.JPG,AFNE01.JPG,AFNE01.JPG,,,,,,,,,,,,,1,5,15,0,,,,,,,,,,,AMSA20.jpg,AMNE07.jpg,AMSA04.jpg,AMNE08.jpg,AMNE08.jpg,MN,1,num_4,16,num_4,1.75004321965,,,2017_Nov_01_1534,60.0064090407,FEMA4ImagesEEG,001,101659,
AFNE01.JPG,AFNE01.JPG,AFNE01.JPG,AFNE01.JPG,AFNE01.JPG,AFNE01.JPG,,,,,,,,,,,,,1,6,16,5,,,,,,,,,,,AMSA15.jpg,AMNE16.jpg,AMNE19.jpg,AMSA19.jpg,AMNE19.jpg,MN,1,num_2,16,num_2,0.616757355863,,,2017_Nov_01_1534,60.0064090407,FEMA4ImagesEEG,001,101659,
AFNE01.JPG,AFNE01.JPG,AFNE01.JPG,AFNE01.JPG,AFNE01.JPG,AFNE01.JPG,,,,,,,,,,,,,1,7,17,4,,,,,,,,,,,AMSA06.jpg,AMNE17.jpg,AMNE10.jpg,AMSA14.jpg,AMSA14.jpg,MS,2,num_4,16,num_4,0.433489052346,,,2017_Nov_01_1534,60.0064090407,FEMA4ImagesEEG,001,101659,
AFNE01.JPG,AFNE01.JPG,AFNE01.JPG,AFNE01.JPG,AFNE01.JPG,AFNE01.JPG,,,,,,,,,,,,,1,8,18,7,,,,,,,,,,,AMNE11.jpg,AMSA10.jpg,AMNE01.jpg,AMSA08.jpg,AMNE01.jpg,MN,1,num_2,16,num_2,0.700158284977,,,2017_Nov_01_1534,60.0064090407,FEMA4ImagesEEG,001,101659,
AFNE01.JPG,AFNE01.JPG,AFNE01.JPG,AFNE01.JPG,AFNE01.JPG,AFNE01.JPG,,,,,,,,,,,,,1,9,19,1,,,,,,,,,,,AMNE07.jpg,AMNE11.jpg,AMSA09.jpg,AMSA10.jpg,AMNE07.jpg,MN,1,num_8,16,num_8,0.616759921657,,,2017_Nov_01_1534,60.0064090407,FEMA4ImagesEEG,001,101659,
AFNE01.JPG,AFNE01.JPG,AFNE01.JPG,AFNE01.JPG,AFNE01.JPG,AFNE01.JPG,,,,,,,,,,,,,2,0,20,9,,,,,,,,,,,AMNE05.jpg,AMSA08.jpg,AMSA12.jpg,AMNE07.jpg,AMSA08.jpg,MS,2,num_6,16,num_6,0.516815249342,,,2017_Nov_01_1534,60.0064090407,FEMA4ImagesEEG,001,101659,
AFNE01.JPG,AFNE01.JPG,AFNE01.JPG,AFNE01.JPG,AFNE01.JPG,AFNE01.JPG,,,,,,,,,,,,,2,1,21,4,,,,,,,,,,,AMSA05.jpg,AMNE15.jpg,AMNE12.jpg,AMSA20.jpg,AMSA05.jpg,MS,2,num_8,16,num_8,1.13345361059,,,2017_Nov_01_1534,60.0064090407,FEMA4ImagesEEG,001,101659,
AFNE01.JPG,AFNE01.JPG,AFNE01.JPG,AFNE01.JPG,AFNE01.JPG,AFNE01.JPG,,,,,,,,,,,,,2,2,22,0,,,,,,,,,,,AMSA17.jpg,AMNE19.jpg,AMNE15.jpg,AMSA04.jpg,AMSA04.jpg,MS,2,num_4,16,num_4,1.33339908486,,,2017_Nov_01_1534,60.0064090407,FEMA4ImagesEEG,001,101659,
AFNE01.JPG,AFNE01.JPG,AFNE01.JPG,AFNE01.JPG,AFNE01.JPG,AFNE01.JPG,,,,,,,,,,,,,2,3,23,6,,,,,,,,,,,AMSA01.jpg,AMNE16.jpg,AMNE02.jpg,AMSA07.jpg,AMSA07.jpg,MS,2,num_4,32,num_6,0.88348207646,,,2017_Nov_01_1534,60.0064090407,FEMA4ImagesEEG,001,101659,
AFNE01.JPG,AFNE01.JPG,AFNE01.JPG,AFNE01.JPG,AFNE01.JPG,AFNE01.JPG,,,,,,,,,,,,,2,4,24,7,,,,,,,,,,,AMSA17.jpg,AMNE04.jpg,AMNE07.jpg,AMSA18.jpg,AMSA18.jpg,MS,2,num_4,32,num_2,1.51671004668,,,2017_Nov_01_1534,60.0064090407,FEMA4ImagesEEG,001,101659,
AFNE01.JPG,AFNE01.JPG,AFNE01.JPG,AFNE01.JPG,AFNE01.JPG,AFNE01.JPG,,,,,,,,,,,,,2,5,25,1,,,,,,,,,,,AMNE08.jpg,AMSA18.jpg,AMSA16.jpg,AMNE11.jpg,AMSA16.jpg,MS,2,num_2,32,num_8,1.40006927983,,,2017_Nov_01_1534,60.0064090407,FEMA4ImagesEEG,001,101659,
AFNE01.JPG,AFNE01.JPG,AFNE01.JPG,AFNE01.JPG,AFNE01.JPG,AFNE01.JPG,,,,,,,,,,,,,2,6,26,8,,,,,,,,,,,AMSA08.jpg,AMSA03.jpg,AMNE08.jpg,AMNE20.jpg,AMSA03.jpg,MS,2,num_6,16,num_6,0.700077458518,,,2017_Nov_01_1534,60.0064090407,FEMA4ImagesEEG,001,101659,
AFNE01.JPG,AFNE01.JPG,AFNE01.JPG,AFNE01.JPG,AFNE01.JPG,AFNE01.JPG,,,,,,,,,,,,,2,7,27,5,,,,,,,,,,,AMSA04.jpg,AMSA08.jpg,AMNE19.jpg,AMNE13.jpg,AMSA08.jpg,MS,2,num_6,16,num_6,0.833412716398,,,2017_Nov_01_1534,60.0064090407,FEMA4ImagesEEG,001,101659,
AFNE01.JPG,AFNE01.JPG,AFNE01.JPG,AFNE01.JPG,AFNE01.JPG,AFNE01.JPG,,,,,,,,,,,,,2,8,28,2,,,,,,,,,,,AMNE08.jpg,AMNE20.jpg,AMSA17.jpg,AMSA19.jpg,AMNE20.jpg,MN,1,num_6,16,num_6,0.583487368422,,,2017_Nov_01_1534,60.0064090407,FEMA4ImagesEEG,001,101659,
AFNE01.JPG,AFNE01.JPG,AFNE01.JPG,AFNE01.JPG,AFNE01.JPG,AFNE01.JPG,,,,,,,,,,,,,2,9,29,3,,,,,,,,,,,AMSA10.jpg,AMSA12.jpg,AMNE16.jpg,AMNE15.jpg,AMSA10.jpg,MS,2,num_8,16,num_8,0.916731856996,,,2017_Nov_01_1534,60.0064090407,FEMA4ImagesEEG,001,101659,
AFNE01.JPG,AFNE01.JPG,AFNE01.JPG,AFNE01.JPG,AFNE01.JPG,AFNE01.JPG,,,,,,,,,,,,,3,0,30,2,,,,,,,,,,,AMSA13.jpg,AMNE19.jpg,AMNE10.jpg,AMSA02.jpg,AMSA13.jpg,MS,2,num_8,16,num_8,0.566623848164,,,2017_Nov_01_1534,60.0064090407,FEMA4ImagesEEG,001,101659,
AFNE01.JPG,AFNE01.JPG,AFNE01.JPG,AFNE01.JPG,AFNE01.JPG,AFNE01.JPG,,,,,,,,,,,,,3,1,31,3,,,,,,,,,,,AMNE13.jpg,AMSA02.jpg,AMNE09.jpg,AMSA04.jpg,AMSA02.jpg,MS,2,num_6,16,num_6,0.566787104122,,,2017_Nov_01_1534,60.0064090407,FEMA4ImagesEEG,001,101659,
AFNE01.JPG,AFNE01.JPG,AFNE01.JPG,AFNE01.JPG,AFNE01.JPG,AFNE01.JPG,,,,,,,,,,,,,3,2,32,8,,,,,,,,,,,AMNE06.jpg,AMNE07.jpg,AMSA18.jpg,AMSA07.jpg,AMNE06.jpg,MN,1,num_8,16,num_8,0.78358551464,,,2017_Nov_01_1534,60.0064090407,FEMA4ImagesEEG,001,101659,
AFNE01.JPG,AFNE01.JPG,AFNE01.JPG,AFNE01.JPG,AFNE01.JPG,AFNE01.JPG,,,,,,,,,,,,,3,3,33,9,,,,,,,,,,,AMSA14.jpg,AMNE15.jpg,AMNE05.jpg,AMSA07.jpg,AMNE05.jpg,MN,1,num_2,16,num_2,1.00015203049,,,2017_Nov_01_1534,60.0064090407,FEMA4ImagesEEG,001,101659,
AFNE01.JPG,AFNE01.JPG,AFNE01.JPG,AFNE01.JPG,AFNE01.JPG,AFNE01.JPG,,,,,,,,,,,,,3,4,34,0,,,,,,,,,,,AMSA01.jpg,AMNE18.jpg,AMSA02.jpg,AMNE05.jpg,AMSA01.jpg,MS,2,num_8,16,num_8,0.650041455636,,,2017_Nov_01_1534,60.0064090407,FEMA4ImagesEEG,001,101659,
AFNE01.JPG,AFNE01.JPG,AFNE01.JPG,AFNE01.JPG,AFNE01.JPG,AFNE01.JPG,,,,,,,,,,,,,3,5,35,4,,,,,,,,,,,AMNE17.jpg,AMNE04.jpg,AMSA13.jpg,AMSA14.jpg,AMNE17.jpg,MN,1,num_8,32,num_6,0.617245842004,,,2017_Nov_01_1534,60.0064090407,FEMA4ImagesEEG,001,101659,
AFNE01.JPG,AFNE01.JPG,AFNE01.JPG,AFNE01.JPG,AFNE01.JPG,AFNE01.JPG,,,,,,,,,,,,,3,6,36,7,,,,,,,,,,,AMSA14.jpg,AMNE16.jpg,AMNE19.jpg,AMSA02.jpg,AMSA02.jpg,MS,2,num_4,32,num_8,0.733582227258,,,2017_Nov_01_1534,60.0064090407,FEMA4ImagesEEG,001,101659,
AFNE01.JPG,AFNE01.JPG,AFNE01.JPG,AFNE01.JPG,AFNE01.JPG,AFNE01.JPG,,,,,,,,,,,,,3,7,37,1,,,,,,,,,,,AMSA07.jpg,AMNE16.jpg,AMSA10.jpg,AMNE02.jpg,AMSA10.jpg,MS,2,num_2,32,num_6,0.650118112331,,,2017_Nov_01_1534,60.0064090407,FEMA4ImagesEEG,001,101659,
AFNE01.JPG,AFNE01.JPG,AFNE01.JPG,AFNE01.JPG,AFNE01.JPG,AFNE01.JPG,,,,,,,,,,,,,3,8,38,6,,,,,,,,,,,AMSA10.jpg,AMNE17.jpg,AMSA16.jpg,AMNE02.jpg,AMSA16.jpg,MS,2,num_2,32,num_8,0.666713173734,,,2017_Nov_01_1534,60.0064090407,FEMA4ImagesEEG,001,101659,
AFNE01.JPG,AFNE01.JPG,AFNE01.JPG,AFNE01.JPG,AFNE01.JPG,AFNE01.JPG,,,,,,,,,,,,,3,9,39,5,,,,,,,,,,,AMNE13.jpg,AMSA03.jpg,AMNE01.jpg,AMSA16.jpg,AMNE01.jpg,MN,1,num_2,16,num_2,0.999957662541,,,2017_Nov_01_1534,60.0064090407,FEMA4ImagesEEG,001,101659,
AFNE01.JPG,AFNE01.JPG,AFNE01.JPG,AFNE01.JPG,AFNE01.JPG,AFNE01.JPG,,,,,,,,,,,,,4,0,40,1,,,,,,,,,,,AMNE04.jpg,AMSA20.jpg,AMSA08.jpg,AMNE05.jpg,AMNE05.jpg,MN,1,num_4,32,num_8,0.68329829257,,,2017_Nov_01_1534,60.0064090407,FEMA4ImagesEEG,001,101659,
AFNE01.JPG,AFNE01.JPG,AFNE01.JPG,AFNE01.JPG,AFNE01.JPG,AFNE01.JPG,,,,,,,,,,,,,4,1,41,3,,,,,,,,,,,AMSA02.jpg,AMSA20.jpg,AMNE13.jpg,AMNE20.jpg,AMSA20.jpg,MS,2,num_6,16,num_6,0.70015026629,,,2017_Nov_01_1534,60.0064090407,FEMA4ImagesEEG,001,101659,
AFNE01.JPG,AFNE01.JPG,AFNE01.JPG,AFNE01.JPG,AFNE01.JPG,AFNE01.JPG,,,,,,,,,,,,,4,2,42,6,,,,,,,,,,,AMNE10.jpg,AMSA13.jpg,AMNE04.jpg,AMSA06.jpg,AMSA13.jpg,MS,2,num_6,16,num_6,1.21677307202,,,2017_Nov_01_1534,60.0064090407,FEMA4ImagesEEG,001,101659,
AFNE01.JPG,AFNE01.JPG,AFNE01.JPG,AFNE01.JPG,AFNE01.JPG,AFNE01.JPG,,,,,,,,,,,,,4,3,43,8,,,,,,,,,,,AMSA15.jpg,AMNE20.jpg,AMNE06.jpg,AMSA06.jpg,AMSA15.jpg,MS,2,num_8,32,num_4,0.516779326368,,,2017_Nov_01_1534,60.0064090407,FEMA4ImagesEEG,001,101659,
AFNE01.JPG,AFNE01.JPG,AFNE01.JPG,AFNE01.JPG,AFNE01.JPG,AFNE01.JPG,,,,,,,,,,,,,4,4,44,9,,,,,,,,,,,AMNE17.jpg,AMNE09.jpg,AMSA10.jpg,AMSA03.jpg,AMNE17.jpg,MN,1,num_8,16,num_8,0.533525135601,,,2017_Nov_01_1534,60.0064090407,FEMA4ImagesEEG,001,101659,
AFNE01.JPG,AFNE01.JPG,AFNE01.JPG,AFNE01.JPG,AFNE01.JPG,AFNE01.JPG,,,,,,,,,,,,,4,5,45,7,,,,,,,,,,,AMSA10.jpg,AMNE07.jpg,AMNE06.jpg,AMSA04.jpg,AMSA10.jpg,MS,2,num_8,32,num_4,0.850166544085,,,2017_Nov_01_1534,60.0064090407,FEMA4ImagesEEG,001,101659,
AFNE01.JPG,AFNE01.JPG,AFNE01.JPG,AFNE01.JPG,AFNE01.JPG,AFNE01.JPG,,,,,,,,,,,,,4,6,46,0,,,,,,,,,,,AMSA11.jpg,AMNE20.jpg,AMNE09.jpg,AMSA12.jpg,AMSA12.jpg,MS,2,num_4,32,num_2,2.69997610478,,,2017_Nov_01_1534,60.0064090407,FEMA4ImagesEEG,001,101659,
AFNE01.JPG,AFNE01.JPG,AFNE01.JPG,AFNE01.JPG,AFNE01.JPG,AFNE01.JPG,,,,,,,,,,,,,4,7,47,2,,,,,,,,,,,AMSA18.jpg,AMNE16.jpg,AMSA08.jpg,AMNE19.jpg,AMSA08.jpg,MS,2,num_2,32,num_8,0.683428192046,,,2017_Nov_01_1534,60.0064090407,FEMA4ImagesEEG,001,101659,
AFNE01.JPG,AFNE01.JPG,AFNE01.JPG,AFNE01.JPG,AFNE01.JPG,AFNE01.JPG,,,,,,,,,,,,,4,8,48,5,,,,,,,,,,,AMNE04.jpg,AMSA20.jpg,AMNE20.jpg,AMSA19.jpg,AMNE20.jpg,MN,1,num_2,32,num_6,0.666790792719,,,2017_Nov_01_1534,60.0064090407,FEMA4ImagesEEG,001,101659,
AFNE01.JPG,AFNE01.JPG,AFNE01.JPG,AFNE01.JPG,AFNE01.JPG,AFNE01.JPG,,,,,,,,,,,,,4,9,49,4,,,,,,,,,,,AMSA08.jpg,AMSA19.jpg,AMNE10.jpg,AMNE08.jpg,AMNE08.jpg,MN,1,num_4,32,num_8,0.766751823016,,,2017_Nov_01_1534,60.0064090407,FEMA4ImagesEEG,001,101659,
AFNE01.JPG,AFNE01.JPG,AFNE01.JPG,AFNE01.JPG,AFNE01.JPG,AFNE01.JPG,,,,,,,,,,,,,5,0,50,4,,,,,,,,,,,AMNE02.jpg,AMNE01.jpg,AMSA14.jpg,AMSA17.jpg,AMNE02.jpg,MN,1,num_8,32,num_4,1.1000707231,,,2017_Nov_01_1534,60.0064090407,FEMA4ImagesEEG,001,101659,
AFNE01.JPG,AFNE01.JPG,AFNE01.JPG,AFNE01.JPG,AFNE01.JPG,AFNE01.JPG,,,,,,,,,,,,,5,1,51,7,,,,,,,,,,,AMSA01.jpg,AMSA08.jpg,AMNE20.jpg,AMNE14.jpg,AMNE14.jpg,MN,1,num_4,16,num_4,1.50008226978,,,2017_Nov_01_1534,60.0064090407,FEMA4ImagesEEG,001,101659,
AFNE01.JPG,AFNE01.JPG,AFNE01.JPG,AFNE01.JPG,AFNE01.JPG,AFNE01.JPG,,,,,,,,,,,,,5,2,52,5,,,,,,,,,,,AMSA17.jpg,AMNE01.jpg,AMSA12.jpg,AMNE04.jpg,AMSA12.jpg,MS,2,num_2,32,num_8,0.900116909528,,,2017_Nov_01_1534,60.0064090407,FEMA4ImagesEEG,001,101659,
AFNE01.JPG,AFNE01.JPG,AFNE01.JPG,AFNE01.JPG,AFNE01.JPG,AFNE01.JPG,,,,,,,,,,,,,5,3,53,6,,,,,,,,,,,AMNE16.jpg,AMNE15.jpg,AMSA14.jpg,AMSA17.jpg,AMNE15.jpg,MN,1,num_6,16,num_6,1.40008178842,,,2017_Nov_01_1534,60.0064090407,FEMA4ImagesEEG,001,101659,
AFNE01.JPG,AFNE01.JPG,AFNE01.JPG,AFNE01.JPG,AFNE01.JPG,AFNE01.JPG,,,,,,,,,,,,,5,4,54,3,,,,,,,,,,,AMNE05.jpg,AMNE12.jpg,AMSA04.jpg,AMSA06.jpg,AMSA06.jpg,MS,2,num_4,32,num_8,0.750128857093,,,2017_Nov_01_1534,60.0064090407,FEMA4ImagesEEG,001,101659,
AFNE01.JPG,AFNE01.JPG,AFNE01.JPG,AFNE01.JPG,AFNE01.JPG,AFNE01.JPG,,,,,,,,,,,,,5,5,55,2,,,,,,,,,,,AMSA02.jpg,AMNE10.jpg,AMNE06.jpg,AMSA17.jpg,AMSA17.jpg,MS,2,num_4,32,num_8,0.650005532894,,,2017_Nov_01_1534,60.0064090407,FEMA4ImagesEEG,001,101659,
AFNE01.JPG,AFNE01.JPG,AFNE01.JPG,AFNE01.JPG,AFNE01.JPG,AFNE01.JPG,,,,,,,,,,,,,5,6,56,8,,,,,,,,,,,AMNE07.jpg,AMNE08.jpg,AMSA04.jpg,AMSA06.jpg,AMNE08.jpg,MN,1,num_6,32,num_8,0.566841309192,,,2017_Nov_01_1534,60.0064090407,FEMA4ImagesEEG,001,101659,
AFNE01.JPG,AFNE01.JPG,AFNE01.JPG,AFNE01.JPG,AFNE01.JPG,AFNE01.JPG,,,,,,,,,,,,,5,7,57,1,,,,,,,,,,,AMSA18.jpg,AMSA12.jpg,AMNE06.jpg,AMNE15.jpg,AMSA12.jpg,MS,2,num_6,32,num_2,0.30020992388,,,2017_Nov_01_1534,60.0064090407,FEMA4ImagesEEG,001,101659,
AFNE01.JPG,AFNE01.JPG,AFNE01.JPG,AFNE01.JPG,AFNE01.JPG,AFNE01.JPG,,,,,,,,,,,,,5,8,58,0,,,,,,,,,,,AMSA15.jpg,AMNE15.jpg,AMNE02.jpg,AMSA14.jpg,AMSA14.jpg,MS,2,num_4,32,num_6,0.70012524887,,,2017_Nov_01_1534,60.0064090407,FEMA4ImagesEEG,001,101659,
AFNE01.JPG,AFNE01.JPG,AFNE01.JPG,AFNE01.JPG,AFNE01.JPG,AFNE01.JPG,,,,,,,,,,,,,5,9,59,9,,,,,,,,,,,AMNE20.jpg,AMSA17.jpg,AMSA03.jpg,AMNE02.jpg,AMNE02.jpg,MN,1,num_4,32,num_8,1.01693023439,,,2017_Nov_01_1534,60.0064090407,FEMA4ImagesEEG,001,101659,
,,,,,,,,,,,,,,,,,,,,,,,,,,,,,,,,,,,,,,,,,,,space,5.41645521903,2017_Nov_01_1534,60.0064090407,FEMA4ImagesEEG,001,101659,
AFNE01.JPG,AFNE01.JPG,AFNE01.JPG,AFNE01.JPG,AFNE01.JPG,AFNE01.JPG,,,,,,,,,,,,,,,,,0,0,0,7,,,,,,,AFSA14.jpg,AFNE02.jpg,AFNE11.jpg,AFSA04.jpg,AFNE02.jpg,FN,3,num_6,32,num_8,1.36673482368,,,2017_Nov_01_1534,60.0064090407,FEMA4ImagesEEG,001,101659,
AFNE01.JPG,AFNE01.JPG,AFNE01.JPG,AFNE01.JPG,AFNE01.JPG,AFNE01.JPG,,,,,,,,,,,,,,,,,0,1,1,2,,,,,,,AFSA07.jpg,AFSA10.jpg,AFNE19.jpg,AFNE17.jpg,AFSA10.jpg,FS,4,num_6,16,num_6,0.650009060977,,,2017_Nov_01_1534,60.0064090407,FEMA4ImagesEEG,001,101659,
AFNE01.JPG,AFNE01.JPG,AFNE01.JPG,AFNE01.JPG,AFNE01.JPG,AFNE01.JPG,,,,,,,,,,,,,,,,,0,2,2,6,,,,,,,AFSA05.jpg,AFSA14.jpg,AFNE19.jpg,AFNE02.jpg,AFNE02.jpg,FN,3,num_4,16,num_4,0.500126531813,,,2017_Nov_01_1534,60.0064090407,FEMA4ImagesEEG,001,101659,
AFNE01.JPG,AFNE01.JPG,AFNE01.JPG,AFNE01.JPG,AFNE01.JPG,AFNE01.JPG,,,,,,,,,,,,,,,,,0,3,3,8,,,,,,,AFNE09.jpg,AFSA16.jpg,AFNE06.jpg,AFSA09.jpg,AFNE06.jpg,FN,3,num_2,16,num_2,0.883477906696,,,2017_Nov_01_1534,60.0064090407,FEMA4ImagesEEG,001,101659,
AFNE01.JPG,AFNE01.JPG,AFNE01.JPG,AFNE01.JPG,AFNE01.JPG,AFNE01.JPG,,,,,,,,,,,,,,,,,0,4,4,3,,,,,,,AFSA20.jpg,AFSA13.jpg,AFNE20.jpg,AFNE17.jpg,AFNE17.jpg,FN,3,num_4,16,num_4,0.716767779784,,,2017_Nov_01_1534,60.0064090407,FEMA4ImagesEEG,001,101659,
AFNE01.JPG,AFNE01.JPG,AFNE01.JPG,AFNE01.JPG,AFNE01.JPG,AFNE01.JPG,,,,,,,,,,,,,,,,,0,5,5,5,,,,,,,AFSA12.jpg,AFSA17.jpg,AFNE07.jpg,AFNE13.jpg,AFSA17.jpg,FS,4,num_6,32,num_8,0.600233177654,,,2017_Nov_01_1534,60.0064090407,FEMA4ImagesEEG,001,101659,
AFNE01.JPG,AFNE01.JPG,AFNE01.JPG,AFNE01.JPG,AFNE01.JPG,AFNE01.JPG,,,,,,,,,,,,,,,,,0,6,6,4,,,,,,,AFNE09.jpg,AFSA10.jpg,AFSA17.jpg,AFNE08.jpg,AFSA17.jpg,FS,4,num_2,32,num_6,0.850089245941,,,2017_Nov_01_1534,60.0064090407,FEMA4ImagesEEG,001,101659,
AFNE01.JPG,AFNE01.JPG,AFNE01.JPG,AFNE01.JPG,AFNE01.JPG,AFNE01.JPG,,,,,,,,,,,,,,,,,0,7,7,1,,,,,,,AFSA14.jpg,AFSA16.jpg,AFNE18.jpg,AFNE02.jpg,AFNE02.jpg,FN,3,num_4,16,num_4,0.600111296633,,,2017_Nov_01_1534,60.0064090407,FEMA4ImagesEEG,001,101659,
AFNE01.JPG,AFNE01.JPG,AFNE01.JPG,AFNE01.JPG,AFNE01.JPG,AFNE01.JPG,,,,,,,,,,,,,,,,,0,8,8,0,,,,,,,AFNE06.jpg,AFSA17.jpg,AFSA19.jpg,AFNE09.jpg,AFSA17.jpg,FS,4,num_6,16,num_6,0.900359709281,,,2017_Nov_01_1534,60.0064090407,FEMA4ImagesEEG,001,101659,
AFNE01.JPG,AFNE01.JPG,AFNE01.JPG,AFNE01.JPG,AFNE01.JPG,AFNE01.JPG,,,,,,,,,,,,,,,,,0,9,9,9,,,,,,,AFSA20.jpg,AFNE04.jpg,AFSA14.jpg,AFNE17.jpg,AFSA14.jpg,FS,4,num_2,16,num_2,1.16687626997,,,2017_Nov_01_1534,60.0064090407,FEMA4ImagesEEG,001,101659,
AFNE01.JPG,AFNE01.JPG,AFNE01.JPG,AFNE01.JPG,AFNE01.JPG,AFNE01.JPG,,,,,,,,,,,,,,,,,1,0,10,9,,,,,,,AFSA16.jpg,AFNE13.jpg,AFNE12.jpg,AFSA11.jpg,AFNE13.jpg,FN,3,num_6,32,num_8,0.850175203755,,,2017_Nov_01_1534,60.0064090407,FEMA4ImagesEEG,001,101659,
AFNE01.JPG,AFNE01.JPG,AFNE01.JPG,AFNE01.JPG,AFNE01.JPG,AFNE01.JPG,,,,,,,,,,,,,,,,,1,1,11,6,,,,,,,AFSA08.jpg,AFNE17.jpg,AFNE05.jpg,AFSA02.jpg,AFNE05.jpg,FN,3,num_2,16,num_2,0.899990858976,,,2017_Nov_01_1534,60.0064090407,FEMA4ImagesEEG,001,101659,
AFNE01.JPG,AFNE01.JPG,AFNE01.JPG,AFNE01.JPG,AFNE01.JPG,AFNE01.JPG,,,,,,,,,,,,,,,,,1,2,12,4,,,,,,,AFNE01.jpg,AFSA13.jpg,AFSA12.jpg,AFNE07.jpg,AFSA13.jpg,FS,4,num_6,16,num_6,0.983440861339,,,2017_Nov_01_1534,60.0064090407,FEMA4ImagesEEG,001,101659,
AFNE01.JPG,AFNE01.JPG,AFNE01.JPG,AFNE01.JPG,AFNE01.JPG,AFNE01.JPG,,,,,,,,,,,,,,,,,1,3,13,3,,,,,,,AFNE16.jpg,AFNE09.jpg,AFSA17.jpg,AFSA16.jpg,AFSA17.jpg,FS,4,num_2,32,num_6,2.26665383694,,,2017_Nov_01_1534,60.0064090407,FEMA4ImagesEEG,001,101659,
AFNE01.JPG,AFNE01.JPG,AFNE01.JPG,AFNE01.JPG,AFNE01.JPG,AFNE01.JPG,,,,,,,,,,,,,,,,,1,4,14,5,,,,,,,AFNE04.jpg,AFNE11.jpg,AFSA07.jpg,AFSA18.jpg,AFSA18.jpg,FS,4,num_4,32,num_2,3.68323895591,,,2017_Nov_01_1534,60.0064090407,FEMA4ImagesEEG,001,101659,
AFNE01.JPG,AFNE01.JPG,AFNE01.JPG,AFNE01.JPG,AFNE01.JPG,AFNE01.JPG,,,,,,,,,,,,,,,,,1,5,15,8,,,,,,,AFNE06.jpg,AFNE08.jpg,AFSA10.jpg,AFSA18.jpg,AFSA18.jpg,FS,4,num_4,32,num_8,2.26635907753,,,2017_Nov_01_1534,60.0064090407,FEMA4ImagesEEG,001,101659,
AFNE01.JPG,AFNE01.JPG,AFNE01.JPG,AFNE01.JPG,AFNE01.JPG,AFNE01.JPG,,,,,,,,,,,,,,,,,1,6,16,1,,,,,,,AFNE01.jpg,AFSA05.jpg,AFNE09.jpg,AFSA18.jpg,AFSA18.jpg,FS,4,num_4,16,num_4,0.600132465363,,,2017_Nov_01_1534,60.0064090407,FEMA4ImagesEEG,001,101659,
AFNE01.JPG,AFNE01.JPG,AFNE01.JPG,AFNE01.JPG,AFNE01.JPG,AFNE01.JPG,,,,,,,,,,,,,,,,,1,7,17,2,,,,,,,AFNE15.jpg,AFSA14.jpg,AFNE20.jpg,AFSA12.jpg,AFNE20.jpg,FN,3,num_2,16,num_2,0.900117871817,,,2017_Nov_01_1534,60.0064090407,FEMA4ImagesEEG,001,101659,
AFNE01.JPG,AFNE01.JPG,AFNE01.JPG,AFNE01.JPG,AFNE01.JPG,AFNE01.JPG,,,,,,,,,,,,,,,,,1,8,18,0,,,,,,,AFNE04.jpg,AFSA19.jpg,AFNE19.jpg,AFSA10.jpg,AFNE04.jpg,FN,3,num_8,16,num_8,2.76658600057,,,2017_Nov_01_1534,60.0064090407,FEMA4ImagesEEG,001,101659,
AFNE01.JPG,AFNE01.JPG,AFNE01.JPG,AFNE01.JPG,AFNE01.JPG,AFNE01.JPG,,,,,,,,,,,,,,,,,1,9,19,7,,,,,,,AFSA07.jpg,AFNE18.jpg,AFSA02.jpg,AFNE15.jpg,AFNE15.jpg,FN,3,num_4,16,num_4,0.66676352988,,,2017_Nov_01_1534,60.0064090407,FEMA4ImagesEEG,001,101659,
AFNE01.JPG,AFNE01.JPG,AFNE01.JPG,AFNE01.JPG,AFNE01.JPG,AFNE01.JPG,,,,,,,,,,,,,,,,,2,0,20,2,,,,,,,AFNE07.jpg,AFNE06.jpg,AFSA17.jpg,AFSA13.jpg,AFNE07.jpg,FN,3,num_8,16,num_8,0.933436290827,,,2017_Nov_01_1534,60.0064090407,FEMA4ImagesEEG,001,101659,
AFNE01.JPG,AFNE01.JPG,AFNE01.JPG,AFNE01.JPG,AFNE01.JPG,AFNE01.JPG,,,,,,,,,,,,,,,,,2,1,21,7,,,,,,,AFSA14.jpg,AFSA01.jpg,AFNE08.jpg,AFNE11.jpg,AFNE08.jpg,FN,3,num_2,32,num_6,0.70016181306,,,2017_Nov_01_1534,60.0064090407,FEMA4ImagesEEG,001,101659,
AFNE01.JPG,AFNE01.JPG,AFNE01.JPG,AFNE01.JPG,AFNE01.JPG,AFNE01.JPG,,,,,,,,,,,,,,,,,2,2,22,4,,,,,,,AFSA05.jpg,AFSA19.jpg,AFNE17.jpg,AFNE07.jpg,AFNE07.jpg,FN,3,num_4,32,num_8,0.700188113609,,,2017_Nov_01_1534,60.0064090407,FEMA4ImagesEEG,001,101659,
AFNE01.JPG,AFNE01.JPG,AFNE01.JPG,AFNE01.JPG,AFNE01.JPG,AFNE01.JPG,,,,,,,,,,,,,,,,,2,3,23,1,,,,,,,AFNE14.jpg,AFSA06.jpg,AFNE09.jpg,AFSA17.jpg,AFSA06.jpg,FS,4,num_6,32,num_8,0.633458581986,,,2017_Nov_01_1534,60.0064090407,FEMA4ImagesEEG,001,101659,
AFNE01.JPG,AFNE01.JPG,AFNE01.JPG,AFNE01.JPG,AFNE01.JPG,AFNE01.JPG,,,,,,,,,,,,,,,,,2,4,24,5,,,,,,,AFNE04.jpg,AFNE13.jpg,AFSA13.jpg,AFSA01.jpg,AFSA01.jpg,FS,4,num_4,16,num_4,0.933463874273,,,2017_Nov_01_1534,60.0064090407,FEMA4ImagesEEG,001,101659,
AFNE01.JPG,AFNE01.JPG,AFNE01.JPG,AFNE01.JPG,AFNE01.JPG,AFNE01.JPG,,,,,,,,,,,,,,,,,2,5,25,3,,,,,,,AFNE11.jpg,AFNE18.jpg,AFSA18.jpg,AFSA19.jpg,AFNE11.jpg,FN,3,num_8,16,num_8,0.450137356762,,,2017_Nov_01_1534,60.0064090407,FEMA4ImagesEEG,001,101659,
AFNE01.JPG,AFNE01.JPG,AFNE01.JPG,AFNE01.JPG,AFNE01.JPG,AFNE01.JPG,,,,,,,,,,,,,,,,,2,6,26,0,,,,,,,AFSA11.jpg,AFNE13.jpg,AFSA03.jpg,AFNE16.jpg,AFSA11.jpg,FS,4,num_8,16,num_8,0.516810117289,,,2017_Nov_01_1534,60.0064090407,FEMA4ImagesEEG,001,101659,
AFNE01.JPG,AFNE01.JPG,AFNE01.JPG,AFNE01.JPG,AFNE01.JPG,AFNE01.JPG,,,,,,,,,,,,,,,,,2,7,27,9,,,,,,,AFNE12.jpg,AFSA03.jpg,AFSA01.jpg,AFNE19.jpg,AFSA01.jpg,FS,4,num_2,32,num_6,0.700103117619,,,2017_Nov_01_1534,60.0064090407,FEMA4ImagesEEG,001,101659,
AFNE01.JPG,AFNE01.JPG,AFNE01.JPG,AFNE01.JPG,AFNE01.JPG,AFNE01.JPG,,,,,,,,,,,,,,,,,2,8,28,8,,,,,,,AFSA18.jpg,AFNE07.jpg,AFNE10.jpg,AFSA02.jpg,AFSA18.jpg,FS,4,num_8,32,num_4,0.883426909102,,,2017_Nov_01_1534,60.0064090407,FEMA4ImagesEEG,001,101659,
AFNE01.JPG,AFNE01.JPG,AFNE01.JPG,AFNE01.JPG,AFNE01.JPG,AFNE01.JPG,,,,,,,,,,,,,,,,,2,9,29,6,,,,,,,AFSA04.jpg,AFNE20.jpg,AFSA08.jpg,AFNE19.jpg,AFNE19.jpg,FN,3,num_4,32,num_8,0.71678638272,,,2017_Nov_01_1534,60.0064090407,FEMA4ImagesEEG,001,101659,
AFNE01.JPG,AFNE01.JPG,AFNE01.JPG,AFNE01.JPG,AFNE01.JPG,AFNE01.JPG,,,,,,,,,,,,,,,,,3,0,30,3,,,,,,,AFSA14.jpg,AFNE07.jpg,AFSA01.jpg,AFNE03.jpg,AFNE07.jpg,FN,3,num_6,16,num_6,0.483549431665,,,2017_Nov_01_1534,60.0064090407,FEMA4ImagesEEG,001,101659,
AFNE01.JPG,AFNE01.JPG,AFNE01.JPG,AFNE01.JPG,AFNE01.JPG,AFNE01.JPG,,,,,,,,,,,,,,,,,3,1,31,6,,,,,,,AFNE14.jpg,AFNE04.jpg,AFSA09.jpg,AFSA08.jpg,AFNE04.jpg,FN,3,num_6,16,num_6,0.516652955208,,,2017_Nov_01_1534,60.0064090407,FEMA4ImagesEEG,001,101659,
AFNE01.JPG,AFNE01.JPG,AFNE01.JPG,AFNE01.JPG,AFNE01.JPG,AFNE01.JPG,,,,,,,,,,,,,,,,,3,2,32,8,,,,,,,AFNE02.jpg,AFSA03.jpg,AFNE10.jpg,AFSA18.jpg,AFSA03.jpg,FS,4,num_6,32,num_2,0.983463312965,,,2017_Nov_01_1534,60.0064090407,FEMA4ImagesEEG,001,101659,
AFNE01.JPG,AFNE01.JPG,AFNE01.JPG,AFNE01.JPG,AFNE01.JPG,AFNE01.JPG,,,,,,,,,,,,,,,,,3,3,33,0,,,,,,,AFNE15.jpg,AFSA15.jpg,AFNE02.jpg,AFSA20.jpg,AFSA20.jpg,FS,4,num_4,16,num_4,0.683462511282,,,2017_Nov_01_1534,60.0064090407,FEMA4ImagesEEG,001,101659,
AFNE01.JPG,AFNE01.JPG,AFNE01.JPG,AFNE01.JPG,AFNE01.JPG,AFNE01.JPG,,,,,,,,,,,,,,,,,3,4,34,1,,,,,,,AFNE12.jpg,AFSA19.jpg,AFSA03.jpg,AFNE11.jpg,AFSA19.jpg,FS,4,num_6,32,num_2,0.800114504062,,,2017_Nov_01_1534,60.0064090407,FEMA4ImagesEEG,001,101659,
AFNE01.JPG,AFNE01.JPG,AFNE01.JPG,AFNE01.JPG,AFNE01.JPG,AFNE01.JPG,,,,,,,,,,,,,,,,,3,5,35,5,,,,,,,AFSA04.jpg,AFNE11.jpg,AFNE08.jpg,AFSA17.jpg,AFNE11.jpg,FN,3,num_6,16,num_6,0.866747172317,,,2017_Nov_01_1534,60.0064090407,FEMA4ImagesEEG,001,101659,
AFNE01.JPG,AFNE01.JPG,AFNE01.JPG,AFNE01.JPG,AFNE01.JPG,AFNE01.JPG,,,,,,,,,,,,,,,,,3,6,36,2,,,,,,,AFSA08.jpg,AFSA01.jpg,AFNE13.jpg,AFNE19.jpg,AFSA01.jpg,FS,4,num_6,16,num_6,1.20018314221,,,2017_Nov_01_1534,60.0064090407,FEMA4ImagesEEG,001,101659,
AFNE01.JPG,AFNE01.JPG,AFNE01.JPG,AFNE01.JPG,AFNE01.JPG,AFNE01.JPG,,,,,,,,,,,,,,,,,3,7,37,7,,,,,,,AFSA03.jpg,AFSA10.jpg,AFNE17.jpg,AFNE19.jpg,AFNE19.jpg,FN,3,num_4,32,num_8,0.63352080551,,,2017_Nov_01_1534,60.0064090407,FEMA4ImagesEEG,001,101659,
AFNE01.JPG,AFNE01.JPG,AFNE01.JPG,AFNE01.JPG,AFNE01.JPG,AFNE01.JPG,,,,,,,,,,,,,,,,,3,8,38,4,,,,,,,AFNE09.jpg,AFNE19.jpg,AFSA02.jpg,AFSA08.jpg,AFSA08.jpg,FS,4,num_4,32,num_2,1.01680739108,,,2017_Nov_01_1534,60.0064090407,FEMA4ImagesEEG,001,101659,
AFNE01.JPG,AFNE01.JPG,AFNE01.JPG,AFNE01.JPG,AFNE01.JPG,AFNE01.JPG,,,,,,,,,,,,,,,,,3,9,39,9,,,,,,,AFSA08.jpg,AFNE13.jpg,AFNE01.jpg,AFSA11.jpg,AFNE13.jpg,FN,3,num_6,32,num_8,0.766790953232,,,2017_Nov_01_1534,60.0064090407,FEMA4ImagesEEG,001,101659,
AFNE01.JPG,AFNE01.JPG,AFNE01.JPG,AFNE01.JPG,AFNE01.JPG,AFNE01.JPG,,,,,,,,,,,,,,,,,4,0,40,0,,,,,,,AFNE14.jpg,AFSA06.jpg,AFNE12.jpg,AFSA04.jpg,AFNE12.jpg,FN,3,num_2,16,num_2,0.966752464417,,,2017_Nov_01_1534,60.0064090407,FEMA4ImagesEEG,001,101659,
AFNE01.JPG,AFNE01.JPG,AFNE01.JPG,AFNE01.JPG,AFNE01.JPG,AFNE01.JPG,,,,,,,,,,,,,,,,,4,1,41,3,,,,,,,AFSA07.jpg,AFNE20.jpg,AFSA13.jpg,AFNE06.jpg,AFNE20.jpg,FN,3,num_6,32,num_8,0.833416565321,,,2017_Nov_01_1534,60.0064090407,FEMA4ImagesEEG,001,101659,
AFNE01.JPG,AFNE01.JPG,AFNE01.JPG,AFNE01.JPG,AFNE01.JPG,AFNE01.JPG,,,,,,,,,,,,,,,,,4,2,42,6,,,,,,,AFNE04.jpg,AFNE10.jpg,AFSA18.jpg,AFSA15.jpg,AFSA15.jpg,FS,4,num_4,32,num_8,0.783493462484,,,2017_Nov_01_1534,60.0064090407,FEMA4ImagesEEG,001,101659,
AFNE01.JPG,AFNE01.JPG,AFNE01.JPG,AFNE01.JPG,AFNE01.JPG,AFNE01.JPG,,,,,,,,,,,,,,,,,4,3,43,1,,,,,,,AFSA17.jpg,AFNE13.jpg,AFNE17.jpg,AFSA08.jpg,AFSA08.jpg,FS,4,num_4,32,num_2,0.65012901742,,,2017_Nov_01_1534,60.0064090407,FEMA4ImagesEEG,001,101659,
AFNE01.JPG,AFNE01.JPG,AFNE01.JPG,AFNE01.JPG,AFNE01.JPG,AFNE01.JPG,,,,,,,,,,,,,,,,,4,4,44,7,,,,,,,AFSA16.jpg,AFNE06.jpg,AFSA06.jpg,AFNE10.jpg,AFNE06.jpg,FN,3,num_6,16,num_6,0.700140002649,,,2017_Nov_01_1534,60.0064090407,FEMA4ImagesEEG,001,101659,
AFNE01.JPG,AFNE01.JPG,AFNE01.JPG,AFNE01.JPG,AFNE01.JPG,AFNE01.JPG,,,,,,,,,,,,,,,,,4,5,45,9,,,,,,,AFNE14.jpg,AFNE04.jpg,AFSA07.jpg,AFSA02.jpg,AFSA02.jpg,FS,4,num_4,16,num_4,0.58347806707,,,2017_Nov_01_1534,60.0064090407,FEMA4ImagesEEG,001,101659,
AFNE01.JPG,AFNE01.JPG,AFNE01.JPG,AFNE01.JPG,AFNE01.JPG,AFNE01.JPG,,,,,,,,,,,,,,,,,4,6,46,4,,,,,,,AFNE19.jpg,AFSA07.jpg,AFNE10.jpg,AFSA17.jpg,AFNE19.jpg,FN,3,num_8,32,num_4,0.433501240332,,,2017_Nov_01_1534,60.0064090407,FEMA4ImagesEEG,001,101659,
AFNE01.JPG,AFNE01.JPG,AFNE01.JPG,AFNE01.JPG,AFNE01.JPG,AFNE01.JPG,,,,,,,,,,,,,,,,,4,7,47,2,,,,,,,AFSA16.jpg,AFSA10.jpg,AFNE05.jpg,AFNE09.jpg,AFSA10.jpg,FS,4,num_6,16,num_6,0.750155478483,,,2017_Nov_01_1534,60.0064090407,FEMA4ImagesEEG,001,101659,
AFNE01.JPG,AFNE01.JPG,AFNE01.JPG,AFNE01.JPG,AFNE01.JPG,AFNE01.JPG,,,,,,,,,,,,,,,,,4,8,48,5,,,,,,,AFSA19.jpg,AFSA04.jpg,AFNE13.jpg,AFNE07.jpg,AFSA04.jpg,FS,4,num_6,32,num_2,0.716761685675,,,2017_Nov_01_1534,60.0064090407,FEMA4ImagesEEG,001,101659,
AFNE01.JPG,AFNE01.JPG,AFNE01.JPG,AFNE01.JPG,AFNE01.JPG,AFNE01.JPG,,,,,,,,,,,,,,,,,4,9,49,8,,,,,,,AFNE09.jpg,AFNE11.jpg,AFSA14.jpg,AFSA09.jpg,AFNE11.jpg,FN,3,num_6,16,num_6,0.683495867997,,,2017_Nov_01_1534,60.0064090407,FEMA4ImagesEEG,001,101659,
AFNE01.JPG,AFNE01.JPG,AFNE01.JPG,AFNE01.JPG,AFNE01.JPG,AFNE01.JPG,,,,,,,,,,,,,,,,,5,0,50,4,,,,,,,AFNE05.jpg,AFNE12.jpg,AFSA09.jpg,AFSA05.jpg,AFSA09.jpg,FS,4,num_2,16,num_2,1.5168489269,,,2017_Nov_01_1534,60.0064090407,FEMA4ImagesEEG,001,101659,
AFNE01.JPG,AFNE01.JPG,AFNE01.JPG,AFNE01.JPG,AFNE01.JPG,AFNE01.JPG,,,,,,,,,,,,,,,,,5,1,51,7,,,,,,,AFNE09.jpg,AFNE03.jpg,AFSA20.jpg,AFSA17.jpg,AFSA17.jpg,FS,4,num_4,32,num_2,0.866788547719,,,2017_Nov_01_1534,60.0064090407,FEMA4ImagesEEG,001,101659,
AFNE01.JPG,AFNE01.JPG,AFNE01.JPG,AFNE01.JPG,AFNE01.JPG,AFNE01.JPG,,,,,,,,,,,,,,,,,5,2,52,8,,,,,,,AFSA01.jpg,AFNE09.jpg,AFNE08.jpg,AFSA02.jpg,AFSA02.jpg,FS,4,num_4,16,num_4,0.45020086295,,,2017_Nov_01_1534,60.0064090407,FEMA4ImagesEEG,001,101659,
AFNE01.JPG,AFNE01.JPG,AFNE01.JPG,AFNE01.JPG,AFNE01.JPG,AFNE01.JPG,,,,,,,,,,,,,,,,,5,3,53,9,,,,,,,AFSA11.jpg,AFNE15.jpg,AFSA16.jpg,AFNE16.jpg,AFSA11.jpg,FS,4,num_8,16,num_8,0.516765534645,,,2017_Nov_01_1534,60.0064090407,FEMA4ImagesEEG,001,101659,
AFNE01.JPG,AFNE01.JPG,AFNE01.JPG,AFNE01.JPG,AFNE01.JPG,AFNE01.JPG,,,,,,,,,,,,,,,,,5,4,54,6,,,,,,,AFNE10.jpg,AFSA16.jpg,AFSA18.jpg,AFNE16.jpg,AFSA18.jpg,FS,4,num_2,16,num_2,0.73343083798,,,2017_Nov_01_1534,60.0064090407,FEMA4ImagesEEG,001,101659,
AFNE01.JPG,AFNE01.JPG,AFNE01.JPG,AFNE01.JPG,AFNE01.JPG,AFNE01.JPG,,,,,,,,,,,,,,,,,5,5,55,1,,,,,,,AFSA05.jpg,AFNE08.jpg,AFSA03.jpg,AFNE20.jpg,AFNE08.jpg,FN,3,num_6,32,num_4,1.68343364471,,,2017_Nov_01_1534,60.0064090407,FEMA4ImagesEEG,001,101659,
AFNE01.JPG,AFNE01.JPG,AFNE01.JPG,AFNE01.JPG,AFNE01.JPG,AFNE01.JPG,,,,,,,,,,,,,,,,,5,6,56,2,,,,,,,AFSA07.jpg,AFSA16.jpg,AFNE18.jpg,AFNE07.jpg,AFNE18.jpg,FN,3,num_2,32,num_4,0.633534597466,,,2017_Nov_01_1534,60.0064090407,FEMA4ImagesEEG,001,101659,
AFNE01.JPG,AFNE01.JPG,AFNE01.JPG,AFNE01.JPG,AFNE01.JPG,AFNE01.JPG,,,,,,,,,,,,,,,,,5,7,57,3,,,,,,,AFSA14.jpg,AFNE06.jpg,AFNE16.jpg,AFSA20.jpg,AFSA20.jpg,FS,4,num_4,16,num_4,0.71679151454,,,2017_Nov_01_1534,60.0064090407,FEMA4ImagesEEG,001,101659,
AFNE01.JPG,AFNE01.JPG,AFNE01.JPG,AFNE01.JPG,AFNE01.JPG,AFNE01.JPG,,,,,,,,,,,,,,,,,5,8,58,5,,,,,,,AFNE03.jpg,AFSA05.jpg,AFNE10.jpg,AFSA19.jpg,AFSA05.jpg,FS,4,num_6,32,num_2,0.966735144611,,,2017_Nov_01_1534,60.0064090407,FEMA4ImagesEEG,001,101659,
AFNE01.JPG,AFNE01.JPG,AFNE01.JPG,AFNE01.JPG,AFNE01.JPG,AFNE01.JPG,,,,,,,,,,,,,,,,,5,9,59,0,,,,,,,AFNE02.jpg,AFSA18.jpg,AFNE12.jpg,AFSA03.jpg,AFSA03.jpg,FS,4,num_4,32,num_8,1.41670764121,,,2017_Nov_01_1534,60.0064090407,FEMA4ImagesEEG,001,101659,
,,,,,,,,,,,,,,,,,,,,,,,,,,,,,,,,,,,,,,,,,,,space,5.31641817372,2017_Nov_01_1534,60.0064090407,FEMA4ImagesEEG,001,101659,
AFNE01.JPG,AFNE01.JPG,AFNE01.JPG,AFNE01.JPG,AFNE01.JPG,AFNE01.JPG,,,,,,,,,,,,,,,,,,,,,0,0,0,8,,,AMNE01.jpg,AMSA18.jpg,AMNE11.jpg,AMSA02.jpg,AMSA02.jpg,MS,2,num_4,16,num_4,0.583473576698,,,2017_Nov_01_1534,60.0064090407,FEMA4ImagesEEG,001,101659,
AFNE01.JPG,AFNE01.JPG,AFNE01.JPG,AFNE01.JPG,AFNE01.JPG,AFNE01.JPG,,,,,,,,,,,,,,,,,,,,,0,1,1,6,,,AMSA16.jpg,AMSA12.jpg,AMNE18.jpg,AMNE03.jpg,AMNE03.jpg,MN,1,num_4,16,num_4,4.01651359373,,,2017_Nov_01_1534,60.0064090407,FEMA4ImagesEEG,001,101659,
AFNE01.JPG,AFNE01.JPG,AFNE01.JPG,AFNE01.JPG,AFNE01.JPG,AFNE01.JPG,,,,,,,,,,,,,,,,,,,,,0,2,2,9,,,AMSA11.jpg,AMNE20.jpg,AMSA17.jpg,AMNE06.jpg,AMNE20.jpg,MN,1,num_6,16,num_6,1.06658519898,,,2017_Nov_01_1534,60.0064090407,FEMA4ImagesEEG,001,101659,
AFNE01.JPG,AFNE01.JPG,AFNE01.JPG,AFNE01.JPG,AFNE01.JPG,AFNE01.JPG,,,,,,,,,,,,,,,,,,,,,0,3,3,3,,,AMSA17.jpg,AMNE17.jpg,AMSA05.jpg,AMNE13.jpg,AMSA05.jpg,MS,2,num_2,16,num_2,1.23349931603,,,2017_Nov_01_1534,60.0064090407,FEMA4ImagesEEG,001,101659,
AFNE01.JPG,AFNE01.JPG,AFNE01.JPG,AFNE01.JPG,AFNE01.JPG,AFNE01.JPG,,,,,,,,,,,,,,,,,,,,,0,4,4,0,,,AMNE14.jpg,AMSA05.jpg,AMSA14.jpg,AMNE09.jpg,AMNE09.jpg,MN,1,num_4,16,num_4,0.666844356339,,,2017_Nov_01_1534,60.0064090407,FEMA4ImagesEEG,001,101659,
AFNE01.JPG,AFNE01.JPG,AFNE01.JPG,AFNE01.JPG,AFNE01.JPG,AFNE01.JPG,,,,,,,,,,,,,,,,,,,,,0,5,5,2,,,AMSA08.jpg,AMSA18.jpg,AMNE15.jpg,AMNE12.jpg,AMNE12.jpg,MN,1,num_4,32,num_2,0.716787344776,,,2017_Nov_01_1534,60.0064090407,FEMA4ImagesEEG,001,101659,
AFNE01.JPG,AFNE01.JPG,AFNE01.JPG,AFNE01.JPG,AFNE01.JPG,AFNE01.JPG,,,,,,,,,,,,,,,,,,,,,0,6,6,1,,,AMNE10.jpg,AMSA17.jpg,AMNE06.jpg,AMSA18.jpg,AMNE06.jpg,MN,1,num_2,16,num_2,0.66677507665,,,2017_Nov_01_1534,60.0064090407,FEMA4ImagesEEG,001,101659,
AFNE01.JPG,AFNE01.JPG,AFNE01.JPG,AFNE01.JPG,AFNE01.JPG,AFNE01.JPG,,,,,,,,,,,,,,,,,,,,,0,7,7,4,,,AMNE14.jpg,AMNE10.jpg,AMSA16.jpg,AMSA10.jpg,AMNE10.jpg,MN,1,num_6,16,num_6,0.700167265721,,,2017_Nov_01_1534,60.0064090407,FEMA4ImagesEEG,001,101659,
AFNE01.JPG,AFNE01.JPG,AFNE01.JPG,AFNE01.JPG,AFNE01.JPG,AFNE01.JPG,,,,,,,,,,,,,,,,,,,,,0,8,8,5,,,AMSA17.jpg,AMNE03.jpg,AMSA07.jpg,AMNE05.jpg,AMSA17.jpg,MS,2,num_8,32,num_4,0.799761690665,,,2017_Nov_01_1534,60.0064090407,FEMA4ImagesEEG,001,101659,
AFNE01.JPG,AFNE01.JPG,AFNE01.JPG,AFNE01.JPG,AFNE01.JPG,AFNE01.JPG,,,,,,,,,,,,,,,,,,,,,0,9,9,7,,,AMSA16.jpg,AMNE06.jpg,AMNE13.jpg,AMSA12.jpg,AMNE06.jpg,MN,1,num_6,16,num_6,0.533354823012,,,2017_Nov_01_1534,60.0064090407,FEMA4ImagesEEG,001,101659,
AFNE01.JPG,AFNE01.JPG,AFNE01.JPG,AFNE01.JPG,AFNE01.JPG,AFNE01.JPG,,,,,,,,,,,,,,,,,,,,,1,0,10,2,,,AMNE11.jpg,AMNE20.jpg,AMSA14.jpg,AMSA09.jpg,AMSA09.jpg,MS,2,num_4,32,num_8,0.849877878325,,,2017_Nov_01_1534,60.0064090407,FEMA4ImagesEEG,001,101659,
AFNE01.JPG,AFNE01.JPG,AFNE01.JPG,AFNE01.JPG,AFNE01.JPG,AFNE01.JPG,,,,,,,,,,,,,,,,,,,,,1,1,11,0,,,AMNE17.jpg,AMSA12.jpg,AMSA14.jpg,AMNE11.jpg,AMNE17.jpg,MN,1,num_8,32,num_6,0.633492901223,,,2017_Nov_01_1534,60.0064090407,FEMA4ImagesEEG,001,101659,
AFNE01.JPG,AFNE01.JPG,AFNE01.JPG,AFNE01.JPG,AFNE01.JPG,AFNE01.JPG,,,,,,,,,,,,,,,,,,,,,1,2,12,3,,,AMNE15.jpg,AMSA15.jpg,AMSA13.jpg,AMNE10.jpg,AMNE10.jpg,MN,1,num_4,32,num_8,0.700131342746,,,2017_Nov_01_1534,60.0064090407,FEMA4ImagesEEG,001,101659,
AFNE01.JPG,AFNE01.JPG,AFNE01.JPG,AFNE01.JPG,AFNE01.JPG,AFNE01.JPG,,,,,,,,,,,,,,,,,,,,,1,3,13,9,,,AMSA20.jpg,AMSA08.jpg,AMNE08.jpg,AMNE07.jpg,AMSA20.jpg,MS,2,num_8,16,num_8,1.35011314088,,,2017_Nov_01_1534,60.0064090407,FEMA4ImagesEEG,001,101659,
AFNE01.JPG,AFNE01.JPG,AFNE01.JPG,AFNE01.JPG,AFNE01.JPG,AFNE01.JPG,,,,,,,,,,,,,,,,,,,,,1,4,14,4,,,AMNE18.jpg,AMSA04.jpg,AMNE03.jpg,AMSA06.jpg,AMSA06.jpg,MS,2,num_4,32,num_2,1.36671525869,,,2017_Nov_01_1534,60.0064090407,FEMA4ImagesEEG,001,101659,
AFNE01.JPG,AFNE01.JPG,AFNE01.JPG,AFNE01.JPG,AFNE01.JPG,AFNE01.JPG,,,,,,,,,,,,,,,,,,,,,1,5,15,5,,,AMNE13.jpg,AMSA09.jpg,AMSA17.jpg,AMNE11.jpg,AMSA17.jpg,MS,2,num_2,16,num_2,1.23344607325,,,2017_Nov_01_1534,60.0064090407,FEMA4ImagesEEG,001,101659,
AFNE01.JPG,AFNE01.JPG,AFNE01.JPG,AFNE01.JPG,AFNE01.JPG,AFNE01.JPG,,,,,,,,,,,,,,,,,,,,,1,6,16,6,,,AMNE01.jpg,AMSA10.jpg,AMNE04.jpg,AMSA07.jpg,AMNE04.jpg,MN,1,num_2,16,num_2,1.15010159416,,,2017_Nov_01_1534,60.0064090407,FEMA4ImagesEEG,001,101659,
AFNE01.JPG,AFNE01.JPG,AFNE01.JPG,AFNE01.JPG,AFNE01.JPG,AFNE01.JPG,,,,,,,,,,,,,,,,,,,,,1,7,17,1,,,AMNE12.jpg,AMNE02.jpg,AMSA05.jpg,AMSA04.jpg,AMSA05.jpg,MS,2,num_2,32,num_8,0.750129819149,,,2017_Nov_01_1534,60.0064090407,FEMA4ImagesEEG,001,101659,
AFNE01.JPG,AFNE01.JPG,AFNE01.JPG,AFNE01.JPG,AFNE01.JPG,AFNE01.JPG,,,,,,,,,,,,,,,,,,,,,1,8,18,7,,,AMNE20.jpg,AMNE11.jpg,AMSA05.jpg,AMSA09.jpg,AMSA05.jpg,MS,2,num_2,16,num_2,0.883457379416,,,2017_Nov_01_1534,60.0064090407,FEMA4ImagesEEG,001,101659,
AFNE01.JPG,AFNE01.JPG,AFNE01.JPG,AFNE01.JPG,AFNE01.JPG,AFNE01.JPG,,,,,,,,,,,,,,,,,,,,,1,9,19,8,,,AMNE02.jpg,AMSA07.jpg,AMSA05.jpg,AMNE12.jpg,AMSA07.jpg,MS,2,num_6,16,num_6,0.716755270958,,,2017_Nov_01_1534,60.0064090407,FEMA4ImagesEEG,001,101659,
AFNE01.JPG,AFNE01.JPG,AFNE01.JPG,AFNE01.JPG,AFNE01.JPG,AFNE01.JPG,,,,,,,,,,,,,,,,,,,,,2,0,20,9,,,AMSA01.jpg,AMSA20.jpg,AMNE17.jpg,AMNE05.jpg,AMNE05.jpg,MN,1,num_4,16,num_4,0.479474436259,,,2017_Nov_01_1534,60.0064090407,FEMA4ImagesEEG,001,101659,
AFNE01.JPG,AFNE01.JPG,AFNE01.JPG,AFNE01.JPG,AFNE01.JPG,AFNE01.JPG,,,,,,,,,,,,,,,,,,,,,2,1,21,8,,,AMSA10.jpg,AMSA01.jpg,AMNE13.jpg,AMNE09.jpg,AMSA10.jpg,MS,2,num_8,16,num_8,0.66675326624,,,2017_Nov_01_1534,60.0064090407,FEMA4ImagesEEG,001,101659,
AFNE01.JPG,AFNE01.JPG,AFNE01.JPG,AFNE01.JPG,AFNE01.JPG,AFNE01.JPG,,,,,,,,,,,,,,,,,,,,,2,2,22,0,,,AMNE13.jpg,AMSA03.jpg,AMSA18.jpg,AMNE09.jpg,AMSA03.jpg,MS,2,num_6,32,num_2,1.2501242063,,,2017_Nov_01_1534,60.0064090407,FEMA4ImagesEEG,001,101659,
AFNE01.JPG,AFNE01.JPG,AFNE01.JPG,AFNE01.JPG,AFNE01.JPG,AFNE01.JPG,,,,,,,,,,,,,,,,,,,,,2,3,23,4,,,AMNE05.jpg,AMSA12.jpg,AMSA17.jpg,AMNE07.jpg,AMSA12.jpg,MS,2,num_6,32,num_8,1.55008074618,,,2017_Nov_01_1534,60.0064090407,FEMA4ImagesEEG,001,101659,
AFNE01.JPG,AFNE01.JPG,AFNE01.JPG,AFNE01.JPG,AFNE01.JPG,AFNE01.JPG,,,,,,,,,,,,,,,,,,,,,2,4,24,1,,,AMNE14.jpg,AMSA13.jpg,AMSA19.jpg,AMNE19.jpg,AMNE19.jpg,MN,1,num_4,16,num_4,0.933325956343,,,2017_Nov_01_1534,60.0064090407,FEMA4ImagesEEG,001,101659,
AFNE01.JPG,AFNE01.JPG,AFNE01.JPG,AFNE01.JPG,AFNE01.JPG,AFNE01.JPG,,,,,,,,,,,,,,,,,,,,,2,5,25,7,,,AMNE14.jpg,AMSA03.jpg,AMSA09.jpg,AMNE09.jpg,AMNE14.jpg,MN,1,num_8,32,num_4,0.483480793191,,,2017_Nov_01_1534,60.0064090407,FEMA4ImagesEEG,001,101659,
AFNE01.JPG,AFNE01.JPG,AFNE01.JPG,AFNE01.JPG,AFNE01.JPG,AFNE01.JPG,,,,,,,,,,,,,,,,,,,,,2,6,26,3,,,AMNE05.jpg,AMSA05.jpg,AMSA13.jpg,AMNE17.jpg,AMNE17.jpg,MN,1,num_4,32,num_6,1.05011169752,,,2017_Nov_01_1534,60.0064090407,FEMA4ImagesEEG,001,101659,
AFNE01.JPG,AFNE01.JPG,AFNE01.JPG,AFNE01.JPG,AFNE01.JPG,AFNE01.JPG,,,,,,,,,,,,,,,,,,,,,2,7,27,5,,,AMNE08.jpg,AMNE14.jpg,AMSA01.jpg,AMSA07.jpg,AMSA01.jpg,MS,2,num_2,16,num_2,0.783461067826,,,2017_Nov_01_1534,60.0064090407,FEMA4ImagesEEG,001,101659,
AFNE01.JPG,AFNE01.JPG,AFNE01.JPG,AFNE01.JPG,AFNE01.JPG,AFNE01.JPG,,,,,,,,,,,,,,,,,,,,,2,8,28,2,,,AMNE17.jpg,AMNE03.jpg,AMSA04.jpg,AMSA11.jpg,AMNE03.jpg,MN,1,num_6,16,num_6,0.866805546917,,,2017_Nov_01_1534,60.0064090407,FEMA4ImagesEEG,001,101659,
AFNE01.JPG,AFNE01.JPG,AFNE01.JPG,AFNE01.JPG,AFNE01.JPG,AFNE01.JPG,,,,,,,,,,,,,,,,,,,,,2,9,29,6,,,AMSA07.jpg,AMNE08.jpg,AMNE12.jpg,AMSA03.jpg,AMNE08.jpg,MN,1,num_6,32,num_8,0.650281047914,,,2017_Nov_01_1534,60.0064090407,FEMA4ImagesEEG,001,101659,
AFNE01.JPG,AFNE01.JPG,AFNE01.JPG,AFNE01.JPG,AFNE01.JPG,AFNE01.JPG,,,,,,,,,,,,,,,,,,,,,3,0,30,7,,,AMSA03.jpg,AMNE20.jpg,AMNE10.jpg,AMSA04.jpg,AMSA04.jpg,MS,2,num_4,16,num_4,0.883540771669,,,2017_Nov_01_1534,60.0064090407,FEMA4ImagesEEG,001,101659,
AFNE01.JPG,AFNE01.JPG,AFNE01.JPG,AFNE01.JPG,AFNE01.JPG,AFNE01.JPG,,,,,,,,,,,,,,,,,,,,,3,1,31,2,,,AMNE06.jpg,AMSA07.jpg,AMSA20.jpg,AMNE20.jpg,AMNE20.jpg,MN,1,num_4,16,num_4,3.81651102798,,,2017_Nov_01_1534,60.0064090407,FEMA4ImagesEEG,001,101659,
AFNE01.JPG,AFNE01.JPG,AFNE01.JPG,AFNE01.JPG,AFNE01.JPG,AFNE01.JPG,,,,,,,,,,,,,,,,,,,,,3,2,32,8,,,AMSA05.jpg,AMNE08.jpg,AMSA17.jpg,AMNE02.jpg,AMSA05.jpg,MS,2,num_8,32,num_2,0.633239837829,,,2017_Nov_01_1534,60.0064090407,FEMA4ImagesEEG,001,101659,
AFNE01.JPG,AFNE01.JPG,AFNE01.JPG,AFNE01.JPG,AFNE01.JPG,AFNE01.JPG,,,,,,,,,,,,,,,,,,,,,3,3,33,3,,,AMNE12.jpg,AMNE07.jpg,AMSA01.jpg,AMSA03.jpg,AMSA01.jpg,MS,2,num_2,16,num_2,0.500155398389,,,2017_Nov_01_1534,60.0064090407,FEMA4ImagesEEG,001,101659,
AFNE01.JPG,AFNE01.JPG,AFNE01.JPG,AFNE01.JPG,AFNE01.JPG,AFNE01.JPG,,,,,,,,,,,,,,,,,,,,,3,4,34,5,,,AMNE17.jpg,AMSA08.jpg,AMNE06.jpg,AMSA20.jpg,AMSA08.jpg,MS,2,num_6,32,num_4,0.650128696812,,,2017_Nov_01_1534,60.0064090407,FEMA4ImagesEEG,001,101659,
AFNE01.JPG,AFNE01.JPG,AFNE01.JPG,AFNE01.JPG,AFNE01.JPG,AFNE01.JPG,,,,,,,,,,,,,,,,,,,,,3,5,35,9,,,AMNE09.jpg,AMNE11.jpg,AMSA12.jpg,AMSA16.jpg,AMSA16.jpg,MS,2,num_4,16,num_4,0.583455294371,,,2017_Nov_01_1534,60.0064090407,FEMA4ImagesEEG,001,101659,
AFNE01.JPG,AFNE01.JPG,AFNE01.JPG,AFNE01.JPG,AFNE01.JPG,AFNE01.JPG,,,,,,,,,,,,,,,,,,,,,3,6,36,0,,,AMSA01.jpg,AMNE05.jpg,AMNE11.jpg,AMSA13.jpg,AMNE05.jpg,MN,1,num_6,32,num_2,0.683491698466,,,2017_Nov_01_1534,60.0064090407,FEMA4ImagesEEG,001,101659,
AFNE01.JPG,AFNE01.JPG,AFNE01.JPG,AFNE01.JPG,AFNE01.JPG,AFNE01.JPG,,,,,,,,,,,,,,,,,,,,,3,7,37,6,,,AMNE04.jpg,AMNE18.jpg,AMSA15.jpg,AMSA16.jpg,AMNE04.jpg,MN,1,num_8,32,num_2,1.716680218,,,2017_Nov_01_1534,60.0064090407,FEMA4ImagesEEG,001,101659,
AFNE01.JPG,AFNE01.JPG,AFNE01.JPG,AFNE01.JPG,AFNE01.JPG,AFNE01.JPG,,,,,,,,,,,,,,,,,,,,,3,8,38,1,,,AMNE03.jpg,AMSA04.jpg,AMSA03.jpg,AMNE01.jpg,AMSA03.jpg,MS,2,num_2,16,num_2,1.53334038961,,,2017_Nov_01_1534,60.0064090407,FEMA4ImagesEEG,001,101659,
