IPosition2,IPosition3,IPosition1,IPosition6,IPosition4,IPosition5,TrialsF1.thisRepN,TrialsF1.thisTrialN,TrialsF1.thisN,TrialsF1.thisIndex,TrialsM1.thisRepN,TrialsM1.thisTrialN,TrialsM1.thisN,TrialsM1.thisIndex,TrialsF2.thisRepN,TrialsF2.thisTrialN,TrialsF2.thisN,TrialsF2.thisIndex,TrialsM2.thisRepN,TrialsM2.thisTrialN,TrialsM2.thisN,TrialsM2.thisIndex,TrialsF3.thisRepN,TrialsF3.thisTrialN,TrialsF3.thisN,TrialsF3.thisIndex,TrialsM3.thisRepN,TrialsM3.thisTrialN,TrialsM3.thisN,TrialsM3.thisIndex,InstrKey_resp.keys,InstrKey_resp.rt,Image0 _Position,Image1 _Position,Image2 _Position,Image3 _Position,Center_image,condition,code,correct_answer,accuracy,Key_Resp.keys,Key_Resp.rt,BreakKey_resp.keys,BreakKey_resp.rt,date,frameRate,expName,session,participant,
,,,,,,,,,,,,,,,,,,,,,,,,,,,,,,space,11.6324734732,,,,,,,,,,,,,,2017_Sep_29_1234,60.0010777365,FEMA4ImagesEEG,001,101615,
AMNE22.JPG,AMSA24.JPG,AMSA22.JPG,AMNE25.JPG,AMNE24.JPG,AMSA25.JPG,0,0,0,7,,,,,,,,,,,,,,,,,,,,,,,AFSA10.jpg,AFSA05.jpg,AFNE09.jpg,AFNE02.jpg,AFNE02.jpg,FN,3,num_4,16,num_4,1.73340092378,,,2017_Sep_29_1234,60.0010777365,FEMA4ImagesEEG,001,101615,
AFNE22.JPG,AFSA24.JPG,AFSA22.JPG,AFNE25.JPG,AFNE24.JPG,AFSA25.JPG,0,1,1,6,,,,,,,,,,,,,,,,,,,,,,,AFSA08.jpg,AFSA02.jpg,AFNE15.jpg,AFNE06.jpg,AFSA02.jpg,FS,4,num_6,32,num_4,0.733510937542,,,2017_Sep_29_1234,60.0010777365,FEMA4ImagesEEG,001,101615,
AMSA21.JPG,AMNE23.JPG,AMNE21.JPG,AMSA25.JPG,AMNE25.JPG,AMSA23.JPG,0,2,2,5,,,,,,,,,,,,,,,,,,,,,,,AFSA09.jpg,AFNE09.jpg,AFNE07.jpg,AFSA01.jpg,AFNE07.jpg,FN,3,num_2,16,num_2,3.14992395265,,,2017_Sep_29_1234,60.0010777365,FEMA4ImagesEEG,001,101615,
AFSA21.JPG,AFNE23.JPG,AFNE21.JPG,AFSA25.JPG,AFNE25.JPG,AFSA23.JPG,0,3,3,4,,,,,,,,,,,,,,,,,,,,,,,AFNE05.jpg,AFSA18.jpg,AFSA08.jpg,AFNE04.jpg,AFNE05.jpg,FN,3,num_8,32,num_4,1.0996852261,,,2017_Sep_29_1234,60.0010777365,FEMA4ImagesEEG,001,101615,
AMNE23.JPG,AMNE24.JPG,AMNE22.JPG,AMSA24.JPG,AMSA22.JPG,AMSA23.JPG,0,4,4,9,,,,,,,,,,,,,,,,,,,,,,,AFSA14.jpg,AFNE16.jpg,AFSA11.jpg,AFNE08.jpg,AFNE16.jpg,FN,3,num_6,16,num_6,0.850197607651,,,2017_Sep_29_1234,60.0010777365,FEMA4ImagesEEG,001,101615,
AFSA21.JPG,AFNE22.JPG,AFNE21.JPG,AFSA23.JPG,AFSA22.JPG,AFNE23.JPG,0,5,5,0,,,,,,,,,,,,,,,,,,,,,,,AFNE08.jpg,AFSA01.jpg,AFNE12.jpg,AFSA10.jpg,AFSA01.jpg,FS,4,num_6,16,num_6,2.29999736999,,,2017_Sep_29_1234,60.0010777365,FEMA4ImagesEEG,001,101615,
AMSA25.JPG,AMNE24.JPG,AMSA24.JPG,AMNE26.JPG,AMSA21.JPG,AMNE25.JPG,0,6,6,3,,,,,,,,,,,,,,,,,,,,,,,AFSA11.jpg,AFSA05.jpg,AFNE04.jpg,AFNE03.jpg,AFNE03.jpg,FN,3,num_4,16,num_4,1.04993081652,,,2017_Sep_29_1234,60.0010777365,FEMA4ImagesEEG,001,101615,
AFSA25.JPG,AFNE24.JPG,AFSA24.JPG,AFNE21.JPG,AFSA21.JPG,AFNE25.JPG,0,7,7,2,,,,,,,,,,,,,,,,,,,,,,,AFNE09.jpg,AFSA04.jpg,AFNE02.jpg,AFSA05.jpg,AFNE02.jpg,FN,3,num_2,16,num_2,0.983453685534,,,2017_Sep_29_1234,60.0010777365,FEMA4ImagesEEG,001,101615,
AMSA21.JPG,AMNE22.JPG,AMNE21.JPG,AMSA23.JPG,AMSA22.JPG,AMNE23.JPG,0,8,8,1,,,,,,,,,,,,,,,,,,,,,,,AFNE07.jpg,AFSA06.jpg,AFSA02.jpg,AFNE05.jpg,AFSA02.jpg,FS,4,num_2,16,num_2,1.2001120022,,,2017_Sep_29_1234,60.0010777365,FEMA4ImagesEEG,001,101615,
AFNE23.JPG,AFNE24.JPG,AFNE22.JPG,AFSA24.JPG,AFSA22.JPG,AFSA23.JPG,0,9,9,8,,,,,,,,,,,,,,,,,,,,,,,AFNE15.jpg,AFSA02.jpg,AFSA15.jpg,AFNE16.jpg,AFNE16.jpg,FN,3,num_4,16,num_4,0.933396497625,,,2017_Sep_29_1234,60.0010777365,FEMA4ImagesEEG,001,101615,
AFSA21.JPG,AFNE22.JPG,AFNE21.JPG,AFSA23.JPG,AFSA22.JPG,AFNE23.JPG,,,,,0,0,0,0,,,,,,,,,,,,,,,,,,,AMSA14.jpg,AMSA07.jpg,AMNE16.jpg,AMNE04.jpg,AMNE04.jpg,MN,1,num_4,16,num_4,0.816763070296,,,2017_Sep_29_1234,60.0010777365,FEMA4ImagesEEG,001,101615,
AMNE22.JPG,AMSA24.JPG,AMSA22.JPG,AMNE25.JPG,AMNE24.JPG,AMSA25.JPG,,,,,0,1,1,7,,,,,,,,,,,,,,,,,,,AMNE03.jpg,AMSA18.jpg,AMNE10.jpg,AMSA06.jpg,AMNE10.jpg,MN,1,num_2,16,num_2,0.916747867246,,,2017_Sep_29_1234,60.0010777365,FEMA4ImagesEEG,001,101615,
AFSA25.JPG,AFNE24.JPG,AFSA24.JPG,AFNE21.JPG,AFSA21.JPG,AFNE25.JPG,,,,,0,2,2,2,,,,,,,,,,,,,,,,,,,AMNE19.jpg,AMNE05.jpg,AMSA10.jpg,AMSA18.jpg,AMNE05.jpg,MN,1,num_6,16,num_6,1.36676220433,,,2017_Sep_29_1234,60.0010777365,FEMA4ImagesEEG,001,101615,
AFNE22.JPG,AFSA24.JPG,AFSA22.JPG,AFNE25.JPG,AFNE24.JPG,AFSA25.JPG,,,,,0,3,3,6,,,,,,,,,,,,,,,,,,,AMNE19.jpg,AMNE14.jpg,AMSA18.jpg,AMSA05.jpg,AMSA18.jpg,MS,2,num_2,16,num_2,1.96668958885,,,2017_Sep_29_1234,60.0010777365,FEMA4ImagesEEG,001,101615,
AFSA21.JPG,AFNE23.JPG,AFNE21.JPG,AFSA25.JPG,AFNE25.JPG,AFSA23.JPG,,,,,0,4,4,4,,,,,,,,,,,,,,,,,,,AMNE14.jpg,AMSA07.jpg,AMNE16.jpg,AMSA06.jpg,AMSA06.jpg,MS,2,num_4,16,num_4,1.78336541797,,,2017_Sep_29_1234,60.0010777365,FEMA4ImagesEEG,001,101615,
AMSA25.JPG,AMNE24.JPG,AMSA24.JPG,AMNE26.JPG,AMSA21.JPG,AMNE25.JPG,,,,,0,5,5,3,,,,,,,,,,,,,,,,,,,AMNE08.jpg,AMSA18.jpg,AMSA17.jpg,AMNE18.jpg,AMSA18.jpg,MS,2,num_6,16,num_6,1.05009792186,,,2017_Sep_29_1234,60.0010777365,FEMA4ImagesEEG,001,101615,
AMNE23.JPG,AMNE24.JPG,AMNE22.JPG,AMSA24.JPG,AMSA22.JPG,AMSA23.JPG,,,,,0,6,6,9,,,,,,,,,,,,,,,,,,,AMNE06.jpg,AMSA17.jpg,AMSA18.jpg,AMNE13.jpg,AMNE06.jpg,MN,1,num_8,16,num_8,1.01674581447,,,2017_Sep_29_1234,60.0010777365,FEMA4ImagesEEG,001,101615,
AFNE23.JPG,AFNE24.JPG,AFNE22.JPG,AFSA24.JPG,AFSA22.JPG,AFSA23.JPG,,,,,0,7,7,8,,,,,,,,,,,,,,,,,,,AMSA03.jpg,AMNE05.jpg,AMNE04.jpg,AMSA10.jpg,AMSA10.jpg,MS,2,num_4,16,num_4,1.21676095342,,,2017_Sep_29_1234,60.0010777365,FEMA4ImagesEEG,001,101615,
AMSA21.JPG,AMNE23.JPG,AMNE21.JPG,AMSA25.JPG,AMNE25.JPG,AMSA23.JPG,,,,,0,8,8,5,,,,,,,,,,,,,,,,,,,AMSA10.jpg,AMSA09.jpg,AMNE20.jpg,AMNE01.jpg,AMSA09.jpg,MS,2,num_6,32,num_2,1.4334410805,,,2017_Sep_29_1234,60.0010777365,FEMA4ImagesEEG,001,101615,
AMSA21.JPG,AMNE22.JPG,AMNE21.JPG,AMSA23.JPG,AMSA22.JPG,AMNE23.JPG,,,,,0,9,9,1,,,,,,,,,,,,,,,,,,,AMNE13.jpg,AMSA12.jpg,AMSA16.jpg,AMNE06.jpg,AMNE06.jpg,MN,1,num_4,32,num_8,1.08377974946,,,2017_Sep_29_1234,60.0010777365,FEMA4ImagesEEG,001,101615,
AFSA25.JPG,AFNE24.JPG,AFSA24.JPG,AFNE21.JPG,AFSA21.JPG,AFNE25.JPG,,,,,,,,,0,0,0,2,,,,,,,,,,,,,,,AFSA17.jpg,AFNE01.jpg,AFNE03.jpg,AFSA01.jpg,AFSA17.jpg,FS,4,num_8,16,num_8,1.96673609607,,,2017_Sep_29_1234,60.0010777365,FEMA4ImagesEEG,001,101615,
AMSA25.JPG,AMNE24.JPG,AMSA24.JPG,AMNE26.JPG,AMSA21.JPG,AMNE25.JPG,,,,,,,,,0,1,1,3,,,,,,,,,,,,,,,AFSA16.jpg,AFNE08.jpg,AFNE17.jpg,AFSA15.jpg,AFNE08.jpg,FN,3,num_6,32,num_8,1.28340839711,,,2017_Sep_29_1234,60.0010777365,FEMA4ImagesEEG,001,101615,
AMNE23.JPG,AMNE24.JPG,AMNE22.JPG,AMSA24.JPG,AMSA22.JPG,AMSA23.JPG,,,,,,,,,0,2,2,9,,,,,,,,,,,,,,,AFNE20.jpg,AFSA11.jpg,AFNE12.jpg,AFSA15.jpg,AFNE12.jpg,FN,3,num_2,16,num_2,1.31679450278,,,2017_Sep_29_1234,60.0010777365,FEMA4ImagesEEG,001,101615,
AMNE22.JPG,AMSA24.JPG,AMSA22.JPG,AMNE25.JPG,AMNE24.JPG,AMSA25.JPG,,,,,,,,,0,3,3,7,,,,,,,,,,,,,,,AFNE17.jpg,AFSA04.jpg,AFNE14.jpg,AFSA06.jpg,AFNE17.jpg,FN,3,num_8,32,num_6,0.916755885701,,,2017_Sep_29_1234,60.0010777365,FEMA4ImagesEEG,001,101615,
AMSA21.JPG,AMNE23.JPG,AMNE21.JPG,AMSA25.JPG,AMNE25.JPG,AMSA23.JPG,,,,,,,,,0,4,4,5,,,,,,,,,,,,,,,AFSA11.jpg,AFNE12.jpg,AFNE08.jpg,AFSA03.jpg,AFSA11.jpg,FS,4,num_8,32,num_4,0.916698473389,,,2017_Sep_29_1234,60.0010777365,FEMA4ImagesEEG,001,101615,
AMSA21.JPG,AMNE22.JPG,AMNE21.JPG,AMSA23.JPG,AMSA22.JPG,AMNE23.JPG,,,,,,,,,0,5,5,1,,,,,,,,,,,,,,,AFSA06.jpg,AFNE18.jpg,AFNE02.jpg,AFSA13.jpg,AFNE02.jpg,FN,3,num_2,32,num_6,0.766820065677,,,2017_Sep_29_1234,60.0010777365,FEMA4ImagesEEG,001,101615,
AFSA21.JPG,AFNE23.JPG,AFNE21.JPG,AFSA25.JPG,AFNE25.JPG,AFSA23.JPG,,,,,,,,,0,6,6,4,,,,,,,,,,,,,,,AFNE20.jpg,AFSA03.jpg,AFSA10.jpg,AFNE02.jpg,AFNE20.jpg,FN,3,num_8,16,num_8,1.0168372253,,,2017_Sep_29_1234,60.0010777365,FEMA4ImagesEEG,001,101615,
AFSA21.JPG,AFNE22.JPG,AFNE21.JPG,AFSA23.JPG,AFSA22.JPG,AFNE23.JPG,,,,,,,,,0,7,7,0,,,,,,,,,,,,,,,AFSA13.jpg,AFSA15.jpg,AFNE09.jpg,AFNE10.jpg,AFSA15.jpg,FS,4,num_6,16,num_6,1.16676278168,,,2017_Sep_29_1234,60.0010777365,FEMA4ImagesEEG,001,101615,
AFNE23.JPG,AFNE24.JPG,AFNE22.JPG,AFSA24.JPG,AFSA22.JPG,AFSA23.JPG,,,,,,,,,0,8,8,8,,,,,,,,,,,,,,,AFNE01.jpg,AFSA14.jpg,AFSA18.jpg,AFNE03.jpg,AFNE03.jpg,FN,3,num_4,32,num_2,3.23324408219,,,2017_Sep_29_1234,60.0010777365,FEMA4ImagesEEG,001,101615,
AFNE22.JPG,AFSA24.JPG,AFSA22.JPG,AFNE25.JPG,AFNE24.JPG,AFSA25.JPG,,,,,,,,,0,9,9,6,,,,,,,,,,,,,,,AFSA03.jpg,AFNE18.jpg,AFSA13.jpg,AFNE13.jpg,AFSA13.jpg,FS,4,num_2,16,num_2,0.651433032472,,,2017_Sep_29_1234,60.0010777365,FEMA4ImagesEEG,001,101615,
AMNE22.JPG,AMSA24.JPG,AMSA22.JPG,AMNE25.JPG,AMNE24.JPG,AMSA25.JPG,,,,,,,,,,,,,0,0,0,7,,,,,,,,,,,AMSA08.jpg,AMSA15.jpg,AMNE02.jpg,AMNE16.jpg,AMNE16.jpg,MN,1,num_4,32,num_8,1.05035387201,,,2017_Sep_29_1234,60.0010777365,FEMA4ImagesEEG,001,101615,
AFNE22.JPG,AFSA24.JPG,AFSA22.JPG,AFNE25.JPG,AFNE24.JPG,AFSA25.JPG,,,,,,,,,,,,,0,1,1,6,,,,,,,,,,,AMSA09.jpg,AMNE10.jpg,AMNE02.jpg,AMSA19.jpg,AMNE10.jpg,MN,1,num_6,16,num_6,1.83335685427,,,2017_Sep_29_1234,60.0010777365,FEMA4ImagesEEG,001,101615,
AMSA21.JPG,AMNE23.JPG,AMNE21.JPG,AMSA25.JPG,AMNE25.JPG,AMSA23.JPG,,,,,,,,,,,,,0,2,2,5,,,,,,,,,,,AMNE19.jpg,AMSA03.jpg,AMSA15.jpg,AMNE11.jpg,AMNE19.jpg,MN,1,num_8,32,num_2,2.33335011872,,,2017_Sep_29_1234,60.0010777365,FEMA4ImagesEEG,001,101615,
AFSA21.JPG,AFNE22.JPG,AFNE21.JPG,AFSA23.JPG,AFSA22.JPG,AFNE23.JPG,,,,,,,,,,,,,0,3,3,0,,,,,,,,,,,AMNE17.jpg,AMSA04.jpg,AMSA09.jpg,AMNE05.jpg,AMSA04.jpg,MS,2,num_6,16,num_6,0.849986240268,,,2017_Sep_29_1234,60.0010777365,FEMA4ImagesEEG,001,101615,
AFSA21.JPG,AFNE23.JPG,AFNE21.JPG,AFSA25.JPG,AFNE25.JPG,AFSA23.JPG,,,,,,,,,,,,,0,4,4,4,,,,,,,,,,,AMNE20.jpg,AMSA08.jpg,AMSA17.jpg,AMNE04.jpg,AMSA08.jpg,MS,2,num_6,16,num_6,0.83347071684,,,2017_Sep_29_1234,60.0010777365,FEMA4ImagesEEG,001,101615,
AMNE23.JPG,AMNE24.JPG,AMNE22.JPG,AMSA24.JPG,AMSA22.JPG,AMSA23.JPG,,,,,,,,,,,,,0,5,5,9,,,,,,,,,,,AMNE01.jpg,AMSA03.jpg,AMNE20.jpg,AMSA14.jpg,AMNE01.jpg,MN,1,num_8,32,num_6,0.966815960244,,,2017_Sep_29_1234,60.0010777365,FEMA4ImagesEEG,001,101615,
AMSA21.JPG,AMNE22.JPG,AMNE21.JPG,AMSA23.JPG,AMSA22.JPG,AMNE23.JPG,,,,,,,,,,,,,0,6,6,1,,,,,,,,,,,AMNE09.jpg,AMSA04.jpg,AMSA05.jpg,AMNE06.jpg,AMSA04.jpg,MS,2,num_6,16,num_6,0.566911412403,,,2017_Sep_29_1234,60.0010777365,FEMA4ImagesEEG,001,101615,
AMSA25.JPG,AMNE24.JPG,AMSA24.JPG,AMNE26.JPG,AMSA21.JPG,AMNE25.JPG,,,,,,,,,,,,,0,7,7,3,,,,,,,,,,,AMNE14.jpg,AMSA17.jpg,AMNE07.jpg,AMSA12.jpg,AMSA17.jpg,MS,2,num_6,32,num_4,1.73326460947,,,2017_Sep_29_1234,60.0010777365,FEMA4ImagesEEG,001,101615,
AFSA25.JPG,AFNE24.JPG,AFSA24.JPG,AFNE21.JPG,AFSA21.JPG,AFNE25.JPG,,,,,,,,,,,,,0,8,8,2,,,,,,,,,,,AMNE10.jpg,AMNE04.jpg,AMSA04.jpg,AMSA07.jpg,AMSA04.jpg,MS,2,num_2,32,num_4,0.900133555988,,,2017_Sep_29_1234,60.0010777365,FEMA4ImagesEEG,001,101615,
AFNE23.JPG,AFNE24.JPG,AFNE22.JPG,AFSA24.JPG,AFSA22.JPG,AFSA23.JPG,,,,,,,,,,,,,0,9,9,8,,,,,,,,,,,AMSA14.jpg,AMNE02.jpg,AMSA09.jpg,AMNE20.jpg,AMSA14.jpg,MS,2,num_8,32,num_4,2.20008538081,,,2017_Sep_29_1234,60.0010777365,FEMA4ImagesEEG,001,101615,
AFSA21.JPG,AFNE22.JPG,AFNE21.JPG,AFSA23.JPG,AFSA22.JPG,AFNE23.JPG,,,,,,,,,,,,,,,,,0,0,0,0,,,,,,,AFNE09.jpg,AFNE01.jpg,AFSA12.jpg,AFSA03.jpg,AFNE09.jpg,FN,3,num_8,32,num_6,0.950132369297,,,2017_Sep_29_1234,60.0010777365,FEMA4ImagesEEG,001,101615,
AMSA21.JPG,AMNE22.JPG,AMNE21.JPG,AMSA23.JPG,AMSA22.JPG,AMNE23.JPG,,,,,,,,,,,,,,,,,0,1,1,1,,,,,,,AFSA11.jpg,AFNE09.jpg,AFNE04.jpg,AFSA02.jpg,AFNE09.jpg,FN,3,num_6,16,num_6,0.950118898181,,,2017_Sep_29_1234,60.0010777365,FEMA4ImagesEEG,001,101615,
AFSA21.JPG,AFNE23.JPG,AFNE21.JPG,AFSA25.JPG,AFNE25.JPG,AFSA23.JPG,,,,,,,,,,,,,,,,,0,2,2,4,,,,,,,AFNE06.jpg,AFSA01.jpg,AFNE08.jpg,AFSA20.jpg,AFNE06.jpg,FN,3,num_8,16,num_8,2.36652517773,,,2017_Sep_29_1234,60.0010777365,FEMA4ImagesEEG,001,101615,
AFSA25.JPG,AFNE24.JPG,AFSA24.JPG,AFNE21.JPG,AFSA21.JPG,AFNE25.JPG,,,,,,,,,,,,,,,,,0,3,3,2,,,,,,,AFNE08.jpg,AFNE01.jpg,AFSA12.jpg,AFSA10.jpg,AFNE01.jpg,FN,3,num_6,16,num_6,1.01675607811,,,2017_Sep_29_1234,60.0010777365,FEMA4ImagesEEG,001,101615,
AMNE22.JPG,AMSA24.JPG,AMSA22.JPG,AMNE25.JPG,AMNE24.JPG,AMSA25.JPG,,,,,,,,,,,,,,,,,0,4,4,7,,,,,,,AFNE07.jpg,AFSA14.jpg,AFSA02.jpg,AFNE09.jpg,AFSA02.jpg,FS,4,num_2,32,num_4,0.916717076208,,,2017_Sep_29_1234,60.0010777365,FEMA4ImagesEEG,001,101615,
AMSA21.JPG,AMNE23.JPG,AMNE21.JPG,AMSA25.JPG,AMNE25.JPG,AMSA23.JPG,,,,,,,,,,,,,,,,,0,5,5,5,,,,,,,AFSA08.jpg,AFNE01.jpg,AFSA01.jpg,AFNE16.jpg,AFSA08.jpg,FS,4,num_8,16,num_8,0.916781224078,,,2017_Sep_29_1234,60.0010777365,FEMA4ImagesEEG,001,101615,
AFNE23.JPG,AFNE24.JPG,AFNE22.JPG,AFSA24.JPG,AFSA22.JPG,AFSA23.JPG,,,,,,,,,,,,,,,,,0,6,6,8,,,,,,,AFNE17.jpg,AFSA15.jpg,AFSA09.jpg,AFNE10.jpg,AFSA09.jpg,FS,4,num_2,16,num_2,0.583473763894,,,2017_Sep_29_1234,60.0010777365,FEMA4ImagesEEG,001,101615,
AMNE23.JPG,AMNE24.JPG,AMNE22.JPG,AMSA24.JPG,AMSA22.JPG,AMSA23.JPG,,,,,,,,,,,,,,,,,0,7,7,9,,,,,,,AFNE18.jpg,AFSA11.jpg,AFNE16.jpg,AFSA02.jpg,AFSA02.jpg,FS,4,num_4,16,num_4,1.01665151701,,,2017_Sep_29_1234,60.0010777365,FEMA4ImagesEEG,001,101615,
AMSA25.JPG,AMNE24.JPG,AMSA24.JPG,AMNE26.JPG,AMSA21.JPG,AMNE25.JPG,,,,,,,,,,,,,,,,,0,8,8,3,,,,,,,AFSA16.jpg,AFNE04.jpg,AFNE17.jpg,AFSA11.jpg,AFNE04.jpg,FN,3,num_6,16,num_6,1.06652171374,,,2017_Sep_29_1234,60.0010777365,FEMA4ImagesEEG,001,101615,
AFNE22.JPG,AFSA24.JPG,AFSA22.JPG,AFNE25.JPG,AFNE24.JPG,AFSA25.JPG,,,,,,,,,,,,,,,,,0,9,9,6,,,,,,,AFSA13.jpg,AFSA07.jpg,AFNE03.jpg,AFNE20.jpg,AFSA13.jpg,FS,4,num_8,16,num_8,2.03328828013,,,2017_Sep_29_1234,60.0010777365,FEMA4ImagesEEG,001,101615,
AFSA25.JPG,AFNE24.JPG,AFSA24.JPG,AFNE21.JPG,AFSA21.JPG,AFNE25.JPG,,,,,,,,,,,,,,,,,,,,,0,0,0,2,,,AMNE05.jpg,AMNE17.jpg,AMSA15.jpg,AMSA05.jpg,AMSA05.jpg,MS,2,num_4,16,num_4,2.26687972329,,,2017_Sep_29_1234,60.0010777365,FEMA4ImagesEEG,001,101615,
AFNE22.JPG,AFSA24.JPG,AFSA22.JPG,AFNE25.JPG,AFNE24.JPG,AFSA25.JPG,,,,,,,,,,,,,,,,,,,,,0,1,1,6,,,AMNE19.jpg,AMSA05.jpg,AMNE15.jpg,AMSA14.jpg,AMNE15.jpg,MN,1,num_2,16,num_2,0.916822920321,,,2017_Sep_29_1234,60.0010777365,FEMA4ImagesEEG,001,101615,
AMSA21.JPG,AMNE23.JPG,AMNE21.JPG,AMSA25.JPG,AMNE25.JPG,AMSA23.JPG,,,,,,,,,,,,,,,,,,,,,0,2,2,5,,,AMSA08.jpg,AMNE06.jpg,AMNE16.jpg,AMSA05.jpg,AMNE06.jpg,MN,1,num_6,32,num_2,1.11679668387,,,2017_Sep_29_1234,60.0010777365,FEMA4ImagesEEG,001,101615,
AMNE23.JPG,AMNE24.JPG,AMNE22.JPG,AMSA24.JPG,AMSA22.JPG,AMSA23.JPG,,,,,,,,,,,,,,,,,,,,,0,3,3,9,,,AMNE11.jpg,AMSA20.jpg,AMSA11.jpg,AMNE16.jpg,AMSA11.jpg,MS,2,num_2,32,num_6,0.81685191521,,,2017_Sep_29_1234,60.0010777365,FEMA4ImagesEEG,001,101615,
AFSA21.JPG,AFNE23.JPG,AFNE21.JPG,AFSA25.JPG,AFNE25.JPG,AFSA23.JPG,,,,,,,,,,,,,,,,,,,,,0,4,4,4,,,AMNE18.jpg,AMSA16.jpg,AMSA07.jpg,AMNE19.jpg,AMNE18.jpg,MN,1,num_8,32,num_4,0.916861408972,,,2017_Sep_29_1234,60.0010777365,FEMA4ImagesEEG,001,101615,
AFNE23.JPG,AFNE24.JPG,AFNE22.JPG,AFSA24.JPG,AFSA22.JPG,AFSA23.JPG,,,,,,,,,,,,,,,,,,,,,0,5,5,8,,,AMSA18.jpg,AMSA20.jpg,AMNE08.jpg,AMNE09.jpg,AMSA18.jpg,MS,2,num_8,16,num_8,1.41666030535,,,2017_Sep_29_1234,60.0010777365,FEMA4ImagesEEG,001,101615,
AMNE22.JPG,AMSA24.JPG,AMSA22.JPG,AMNE25.JPG,AMNE24.JPG,AMSA25.JPG,,,,,,,,,,,,,,,,,,,,,0,6,6,7,,,AMSA09.jpg,AMNE11.jpg,AMSA20.jpg,AMNE10.jpg,AMSA20.jpg,MS,2,num_2,16,num_2,1.88340602361,,,2017_Sep_29_1234,60.0010777365,FEMA4ImagesEEG,001,101615,
AMSA25.JPG,AMNE24.JPG,AMSA24.JPG,AMNE26.JPG,AMSA21.JPG,AMNE25.JPG,,,,,,,,,,,,,,,,,,,,,0,7,7,3,,,AMNE01.jpg,AMSA01.jpg,AMNE16.jpg,AMSA11.jpg,AMNE16.jpg,MN,1,num_2,16,num_2,1.2000998141,,,2017_Sep_29_1234,60.0010777365,FEMA4ImagesEEG,001,101615,
AFSA21.JPG,AFNE22.JPG,AFNE21.JPG,AFSA23.JPG,AFSA22.JPG,AFNE23.JPG,,,,,,,,,,,,,,,,,,,,,0,8,8,0,,,AMNE08.jpg,AMSA19.jpg,AMSA16.jpg,AMNE20.jpg,AMSA19.jpg,MS,2,num_6,32,num_4,2.5996682269,,,2017_Sep_29_1234,60.0010777365,FEMA4ImagesEEG,001,101615,
AMSA21.JPG,AMNE22.JPG,AMNE21.JPG,AMSA23.JPG,AMSA22.JPG,AMNE23.JPG,,,,,,,,,,,,,,,,,,,,,0,9,9,1,,,AMSA17.jpg,AMNE14.jpg,AMSA07.jpg,AMNE06.jpg,AMNE06.jpg,MN,1,num_4,16,num_4,1.20009179565,,,2017_Sep_29_1234,60.0010777365,FEMA4ImagesEEG,001,101615,
,,,,,,,,,,,,,,,,,,,,,,,,,,,,,,,,,,,,,,,,,,,space,10.1496449092,2017_Sep_29_1234,60.0010777365,FEMA4ImagesEEG,001,101615,
AFNE01.JPG,AFNE01.JPG,AFNE01.JPG,AFNE01.JPG,AFNE01.JPG,AFNE01.JPG,0,0,0,6,,,,,,,,,,,,,,,,,,,,,,,AFNE15.jpg,AFSA12.jpg,AFSA13.jpg,AFNE17.jpg,AFNE17.jpg,FN,3,num_4,16,num_4,2.24999534932,,,2017_Sep_29_1234,60.0010777365,FEMA4ImagesEEG,001,101615,
AFNE01.JPG,AFNE01.JPG,AFNE01.JPG,AFNE01.JPG,AFNE01.JPG,AFNE01.JPG,0,1,1,9,,,,,,,,,,,,,,,,,,,,,,,AFSA13.jpg,AFNE05.jpg,AFNE08.jpg,AFSA11.jpg,AFNE08.jpg,FN,3,num_2,32,num_6,1.55014539126,,,2017_Sep_29_1234,60.0010777365,FEMA4ImagesEEG,001,101615,
AFNE01.JPG,AFNE01.JPG,AFNE01.JPG,AFNE01.JPG,AFNE01.JPG,AFNE01.JPG,0,2,2,0,,,,,,,,,,,,,,,,,,,,,,,AFNE15.jpg,AFNE12.jpg,AFSA11.jpg,AFSA13.jpg,AFNE15.jpg,FN,3,num_8,16,num_8,1.80007370596,,,2017_Sep_29_1234,60.0010777365,FEMA4ImagesEEG,001,101615,
AFNE01.JPG,AFNE01.JPG,AFNE01.JPG,AFNE01.JPG,AFNE01.JPG,AFNE01.JPG,0,3,3,4,,,,,,,,,,,,,,,,,,,,,,,AFSA16.jpg,AFNE19.jpg,AFNE08.jpg,AFSA09.jpg,AFNE19.jpg,FN,3,num_6,16,num_6,2.00004201685,,,2017_Sep_29_1234,60.0010777365,FEMA4ImagesEEG,001,101615,
AFNE01.JPG,AFNE01.JPG,AFNE01.JPG,AFNE01.JPG,AFNE01.JPG,AFNE01.JPG,0,4,4,1,,,,,,,,,,,,,,,,,,,,,,,AFNE16.jpg,AFSA04.jpg,AFSA09.jpg,AFNE05.jpg,AFNE05.jpg,FN,3,num_4,16,num_4,1.76668567583,,,2017_Sep_29_1234,60.0010777365,FEMA4ImagesEEG,001,101615,
AFNE01.JPG,AFNE01.JPG,AFNE01.JPG,AFNE01.JPG,AFNE01.JPG,AFNE01.JPG,0,5,5,3,,,,,,,,,,,,,,,,,,,,,,,AFNE20.jpg,AFSA12.jpg,AFSA04.jpg,AFNE08.jpg,AFNE20.jpg,FN,3,num_8,32,num_2,0.850143402698,,,2017_Sep_29_1234,60.0010777365,FEMA4ImagesEEG,001,101615,
AFNE01.JPG,AFNE01.JPG,AFNE01.JPG,AFNE01.JPG,AFNE01.JPG,AFNE01.JPG,0,6,6,7,,,,,,,,,,,,,,,,,,,,,,,AFSA14.jpg,AFSA10.jpg,AFNE12.jpg,AFNE02.jpg,AFSA10.jpg,FS,4,num_6,32,num_2,2.60003419081,,,2017_Sep_29_1234,60.0010777365,FEMA4ImagesEEG,001,101615,
AFNE01.JPG,AFNE01.JPG,AFNE01.JPG,AFNE01.JPG,AFNE01.JPG,AFNE01.JPG,0,7,7,2,,,,,,,,,,,,,,,,,,,,,,,AFSA07.jpg,AFNE02.jpg,AFNE18.jpg,AFSA09.jpg,AFSA07.jpg,FS,4,num_8,32,num_6,0.750213131425,,,2017_Sep_29_1234,60.0010777365,FEMA4ImagesEEG,001,101615,
AFNE01.JPG,AFNE01.JPG,AFNE01.JPG,AFNE01.JPG,AFNE01.JPG,AFNE01.JPG,0,8,8,8,,,,,,,,,,,,,,,,,,,,,,,AFSA14.jpg,AFNE14.jpg,AFSA10.jpg,AFNE06.jpg,AFNE06.jpg,FN,3,num_4,32,num_8,0.783514882671,,,2017_Sep_29_1234,60.0010777365,FEMA4ImagesEEG,001,101615,
AFNE01.JPG,AFNE01.JPG,AFNE01.JPG,AFNE01.JPG,AFNE01.JPG,AFNE01.JPG,0,9,9,5,,,,,,,,,,,,,,,,,,,,,,,AFNE04.jpg,AFNE14.jpg,AFSA06.jpg,AFSA03.jpg,AFNE14.jpg,FN,3,num_6,32,num_4,0.950187215698,,,2017_Sep_29_1234,60.0010777365,FEMA4ImagesEEG,001,101615,
AFNE01.JPG,AFNE01.JPG,AFNE01.JPG,AFNE01.JPG,AFNE01.JPG,AFNE01.JPG,1,0,10,5,,,,,,,,,,,,,,,,,,,,,,,AFSA16.jpg,AFSA07.jpg,AFNE17.jpg,AFNE19.jpg,AFSA16.jpg,FS,4,num_8,32,num_2,0.733457374037,,,2017_Sep_29_1234,60.0010777365,FEMA4ImagesEEG,001,101615,
AFNE01.JPG,AFNE01.JPG,AFNE01.JPG,AFNE01.JPG,AFNE01.JPG,AFNE01.JPG,1,1,11,0,,,,,,,,,,,,,,,,,,,,,,,AFSA13.jpg,AFNE04.jpg,AFNE01.jpg,AFSA01.jpg,AFSA13.jpg,FS,4,num_8,16,num_8,1.21673016238,,,2017_Sep_29_1234,60.0010777365,FEMA4ImagesEEG,001,101615,
AFNE01.JPG,AFNE01.JPG,AFNE01.JPG,AFNE01.JPG,AFNE01.JPG,AFNE01.JPG,1,2,12,1,,,,,,,,,,,,,,,,,,,,,,,AFSA15.jpg,AFNE02.jpg,AFNE07.jpg,AFSA13.jpg,AFNE07.jpg,FN,3,num_2,32,num_4,0.483507890487,,,2017_Sep_29_1234,60.0010777365,FEMA4ImagesEEG,001,101615,
AFNE01.JPG,AFNE01.JPG,AFNE01.JPG,AFNE01.JPG,AFNE01.JPG,AFNE01.JPG,1,3,13,2,,,,,,,,,,,,,,,,,,,,,,,AFNE13.jpg,AFSA17.jpg,AFSA13.jpg,AFNE16.jpg,AFNE16.jpg,FN,3,num_4,32,num_2,0.416744980612,,,2017_Sep_29_1234,60.0010777365,FEMA4ImagesEEG,001,101615,
AFNE01.JPG,AFNE01.JPG,AFNE01.JPG,AFNE01.JPG,AFNE01.JPG,AFNE01.JPG,1,4,14,4,,,,,,,,,,,,,,,,,,,,,,,AFNE07.jpg,AFSA20.jpg,AFSA14.jpg,AFNE01.jpg,AFSA20.jpg,FS,4,num_6,32,num_4,0.583510969649,,,2017_Sep_29_1234,60.0010777365,FEMA4ImagesEEG,001,101615,
AFNE01.JPG,AFNE01.JPG,AFNE01.JPG,AFNE01.JPG,AFNE01.JPG,AFNE01.JPG,1,5,15,7,,,,,,,,,,,,,,,,,,,,,,,AFSA07.jpg,AFNE15.jpg,AFNE07.jpg,AFSA13.jpg,AFSA07.jpg,FS,4,num_8,32,num_2,1.55011844914,,,2017_Sep_29_1234,60.0010777365,FEMA4ImagesEEG,001,101615,
AFNE01.JPG,AFNE01.JPG,AFNE01.JPG,AFNE01.JPG,AFNE01.JPG,AFNE01.JPG,1,6,16,8,,,,,,,,,,,,,,,,,,,,,,,AFNE03.jpg,AFSA09.jpg,AFNE08.jpg,AFSA08.jpg,AFNE03.jpg,FN,3,num_8,32,num_2,1.41670424666,,,2017_Sep_29_1234,60.0010777365,FEMA4ImagesEEG,001,101615,
AFNE01.JPG,AFNE01.JPG,AFNE01.JPG,AFNE01.JPG,AFNE01.JPG,AFNE01.JPG,1,7,17,6,,,,,,,,,,,,,,,,,,,,,,,AFNE16.jpg,AFSA04.jpg,AFNE15.jpg,AFSA01.jpg,AFSA04.jpg,FS,4,num_6,16,num_6,1.65007726615,,,2017_Sep_29_1234,60.0010777365,FEMA4ImagesEEG,001,101615,
AFNE01.JPG,AFNE01.JPG,AFNE01.JPG,AFNE01.JPG,AFNE01.JPG,AFNE01.JPG,1,8,18,9,,,,,,,,,,,,,,,,,,,,,,,AFNE12.jpg,AFSA20.jpg,AFNE20.jpg,AFSA06.jpg,AFSA20.jpg,FS,4,num_6,16,num_6,1.41676807392,,,2017_Sep_29_1234,60.0010777365,FEMA4ImagesEEG,001,101615,
AFNE01.JPG,AFNE01.JPG,AFNE01.JPG,AFNE01.JPG,AFNE01.JPG,AFNE01.JPG,1,9,19,3,,,,,,,,,,,,,,,,,,,,,,,AFSA09.jpg,AFSA13.jpg,AFNE16.jpg,AFNE08.jpg,AFNE16.jpg,FN,3,num_2,32,num_4,0.866786901257,,,2017_Sep_29_1234,60.0010777365,FEMA4ImagesEEG,001,101615,
AFNE01.JPG,AFNE01.JPG,AFNE01.JPG,AFNE01.JPG,AFNE01.JPG,AFNE01.JPG,2,0,20,0,,,,,,,,,,,,,,,,,,,,,,,AFNE02.jpg,AFSA08.jpg,AFNE10.jpg,AFSA05.jpg,AFSA08.jpg,FS,4,num_6,32,num_4,1.1834874273,,,2017_Sep_29_1234,60.0010777365,FEMA4ImagesEEG,001,101615,
AFNE01.JPG,AFNE01.JPG,AFNE01.JPG,AFNE01.JPG,AFNE01.JPG,AFNE01.JPG,2,1,21,6,,,,,,,,,,,,,,,,,,,,,,,AFSA15.jpg,AFSA20.jpg,AFNE20.jpg,AFNE01.jpg,AFNE20.jpg,FN,3,num_2,16,num_2,1.25009702367,,,2017_Sep_29_1234,60.0010777365,FEMA4ImagesEEG,001,101615,
AFNE01.JPG,AFNE01.JPG,AFNE01.JPG,AFNE01.JPG,AFNE01.JPG,AFNE01.JPG,2,2,22,4,,,,,,,,,,,,,,,,,,,,,,,AFNE07.jpg,AFSA02.jpg,AFSA03.jpg,AFNE06.jpg,AFNE06.jpg,FN,3,num_4,32,num_2,1.28344560286,,,2017_Sep_29_1234,60.0010777365,FEMA4ImagesEEG,001,101615,
AFNE01.JPG,AFNE01.JPG,AFNE01.JPG,AFNE01.JPG,AFNE01.JPG,AFNE01.JPG,2,3,23,1,,,,,,,,,,,,,,,,,,,,,,,AFNE09.jpg,AFNE15.jpg,AFSA07.jpg,AFSA03.jpg,AFNE09.jpg,FN,3,num_8,32,num_2,0.933342292672,,,2017_Sep_29_1234,60.0010777365,FEMA4ImagesEEG,001,101615,
AFNE01.JPG,AFNE01.JPG,AFNE01.JPG,AFNE01.JPG,AFNE01.JPG,AFNE01.JPG,2,4,24,3,,,,,,,,,,,,,,,,,,,,,,,AFNE06.jpg,AFSA09.jpg,AFSA17.jpg,AFNE05.jpg,AFSA09.jpg,FS,4,num_6,32,num_8,1.31673580746,,,2017_Sep_29_1234,60.0010777365,FEMA4ImagesEEG,001,101615,
AFNE01.JPG,AFNE01.JPG,AFNE01.JPG,AFNE01.JPG,AFNE01.JPG,AFNE01.JPG,2,5,25,8,,,,,,,,,,,,,,,,,,,,,,,AFNE03.jpg,AFSA04.jpg,AFNE15.jpg,AFSA10.jpg,AFNE15.jpg,FN,3,num_2,16,num_2,1.10009994241,,,2017_Sep_29_1234,60.0010777365,FEMA4ImagesEEG,001,101615,
AFNE01.JPG,AFNE01.JPG,AFNE01.JPG,AFNE01.JPG,AFNE01.JPG,AFNE01.JPG,2,6,26,2,,,,,,,,,,,,,,,,,,,,,,,AFNE03.jpg,AFNE04.jpg,AFSA05.jpg,AFSA20.jpg,AFNE04.jpg,FN,3,num_6,32,num_8,0.383610013989,,,2017_Sep_29_1234,60.0010777365,FEMA4ImagesEEG,001,101615,
AFNE01.JPG,AFNE01.JPG,AFNE01.JPG,AFNE01.JPG,AFNE01.JPG,AFNE01.JPG,2,7,27,9,,,,,,,,,,,,,,,,,,,,,,,AFNE06.jpg,AFSA03.jpg,AFNE10.jpg,AFSA16.jpg,AFNE06.jpg,FN,3,num_8,32,num_2,0.933473795885,,,2017_Sep_29_1234,60.0010777365,FEMA4ImagesEEG,001,101615,
AFNE01.JPG,AFNE01.JPG,AFNE01.JPG,AFNE01.JPG,AFNE01.JPG,AFNE01.JPG,2,8,28,5,,,,,,,,,,,,,,,,,,,,,,,AFNE09.jpg,AFSA10.jpg,AFSA16.jpg,AFNE15.jpg,AFSA10.jpg,FS,4,num_6,16,num_6,1.58340865362,,,2017_Sep_29_1234,60.0010777365,FEMA4ImagesEEG,001,101615,
AFNE01.JPG,AFNE01.JPG,AFNE01.JPG,AFNE01.JPG,AFNE01.JPG,AFNE01.JPG,2,9,29,7,,,,,,,,,,,,,,,,,,,,,,,AFSA03.jpg,AFSA17.jpg,AFNE10.jpg,AFNE02.jpg,AFSA03.jpg,FS,4,num_8,32,num_2,0.333404323785,,,2017_Sep_29_1234,60.0010777365,FEMA4ImagesEEG,001,101615,
AFNE01.JPG,AFNE01.JPG,AFNE01.JPG,AFNE01.JPG,AFNE01.JPG,AFNE01.JPG,3,0,30,9,,,,,,,,,,,,,,,,,,,,,,,AFSA07.jpg,AFSA02.jpg,AFNE10.jpg,AFNE08.jpg,AFNE08.jpg,FN,3,num_4,16,num_4,0.350182212074,,,2017_Sep_29_1234,60.0010777365,FEMA4ImagesEEG,001,101615,
AFNE01.JPG,AFNE01.JPG,AFNE01.JPG,AFNE01.JPG,AFNE01.JPG,AFNE01.JPG,3,1,31,2,,,,,,,,,,,,,,,,,,,,,,,AFNE12.jpg,AFSA11.jpg,AFSA16.jpg,AFNE04.jpg,AFNE12.jpg,FN,3,num_8,16,num_8,1.08344072767,,,2017_Sep_29_1234,60.0010777365,FEMA4ImagesEEG,001,101615,
AFNE01.JPG,AFNE01.JPG,AFNE01.JPG,AFNE01.JPG,AFNE01.JPG,AFNE01.JPG,3,2,32,3,,,,,,,,,,,,,,,,,,,,,,,AFNE02.jpg,AFNE09.jpg,AFSA15.jpg,AFSA03.jpg,AFSA03.jpg,FS,4,num_4,32,num_6,1.26669593947,,,2017_Sep_29_1234,60.0010777365,FEMA4ImagesEEG,001,101615,
AFNE01.JPG,AFNE01.JPG,AFNE01.JPG,AFNE01.JPG,AFNE01.JPG,AFNE01.JPG,3,3,33,6,,,,,,,,,,,,,,,,,,,,,,,AFNE07.jpg,AFSA05.jpg,AFSA11.jpg,AFNE10.jpg,AFSA11.jpg,FS,4,num_2,16,num_2,1.45005924068,,,2017_Sep_29_1234,60.0010777365,FEMA4ImagesEEG,001,101615,
AFNE01.JPG,AFNE01.JPG,AFNE01.JPG,AFNE01.JPG,AFNE01.JPG,AFNE01.JPG,3,4,34,0,,,,,,,,,,,,,,,,,,,,,,,AFSA05.jpg,AFSA14.jpg,AFNE05.jpg,AFNE02.jpg,AFNE02.jpg,FN,3,num_4,16,num_4,0.900153121096,,,2017_Sep_29_1234,60.0010777365,FEMA4ImagesEEG,001,101615,
AFNE01.JPG,AFNE01.JPG,AFNE01.JPG,AFNE01.JPG,AFNE01.JPG,AFNE01.JPG,3,5,35,1,,,,,,,,,,,,,,,,,,,,,,,AFSA01.jpg,AFNE06.jpg,AFSA10.jpg,AFNE08.jpg,AFSA10.jpg,FS,4,num_2,16,num_2,1.05008701666,,,2017_Sep_29_1234,60.0010777365,FEMA4ImagesEEG,001,101615,
AFNE01.JPG,AFNE01.JPG,AFNE01.JPG,AFNE01.JPG,AFNE01.JPG,AFNE01.JPG,3,6,36,8,,,,,,,,,,,,,,,,,,,,,,,AFNE17.jpg,AFSA02.jpg,AFNE18.jpg,AFSA14.jpg,AFSA02.jpg,FS,4,num_6,16,num_6,1.55005333899,,,2017_Sep_29_1234,60.0010777365,FEMA4ImagesEEG,001,101615,
AFNE01.JPG,AFNE01.JPG,AFNE01.JPG,AFNE01.JPG,AFNE01.JPG,AFNE01.JPG,3,7,37,7,,,,,,,,,,,,,,,,,,,,,,,AFSA14.jpg,AFSA09.jpg,AFNE11.jpg,AFNE02.jpg,AFSA09.jpg,FS,4,num_6,32,num_4,0.750145134749,,,2017_Sep_29_1234,60.0010777365,FEMA4ImagesEEG,001,101615,
AFNE01.JPG,AFNE01.JPG,AFNE01.JPG,AFNE01.JPG,AFNE01.JPG,AFNE01.JPG,3,8,38,4,,,,,,,,,,,,,,,,,,,,,,,AFNE10.jpg,AFSA18.jpg,AFSA04.jpg,AFNE06.jpg,AFSA04.jpg,FS,4,num_2,32,num_6,0.716757104499,,,2017_Sep_29_1234,60.0010777365,FEMA4ImagesEEG,001,101615,
AFNE01.JPG,AFNE01.JPG,AFNE01.JPG,AFNE01.JPG,AFNE01.JPG,AFNE01.JPG,3,9,39,5,,,,,,,,,,,,,,,,,,,,,,,AFSA03.jpg,AFNE06.jpg,AFNE10.jpg,AFSA16.jpg,AFNE06.jpg,FN,3,num_6,32,num_2,0.616861473187,,,2017_Sep_29_1234,60.0010777365,FEMA4ImagesEEG,001,101615,
AFNE01.JPG,AFNE01.JPG,AFNE01.JPG,AFNE01.JPG,AFNE01.JPG,AFNE01.JPG,4,0,40,9,,,,,,,,,,,,,,,,,,,,,,,AFSA05.jpg,AFSA20.jpg,AFNE08.jpg,AFNE11.jpg,AFNE08.jpg,FN,3,num_2,32,num_8,0.916762300534,,,2017_Sep_29_1234,60.0010777365,FEMA4ImagesEEG,001,101615,
AFNE01.JPG,AFNE01.JPG,AFNE01.JPG,AFNE01.JPG,AFNE01.JPG,AFNE01.JPG,4,1,41,2,,,,,,,,,,,,,,,,,,,,,,,AFSA01.jpg,AFSA08.jpg,AFNE14.jpg,AFNE15.jpg,AFNE15.jpg,FN,3,num_4,32,num_6,0.366849445505,,,2017_Sep_29_1234,60.0010777365,FEMA4ImagesEEG,001,101615,
AFNE01.JPG,AFNE01.JPG,AFNE01.JPG,AFNE01.JPG,AFNE01.JPG,AFNE01.JPG,4,2,42,7,,,,,,,,,,,,,,,,,,,,,,,AFSA13.jpg,AFNE15.jpg,AFNE18.jpg,AFSA02.jpg,AFNE18.jpg,FN,3,num_2,16,num_2,0.200220412225,,,2017_Sep_29_1234,60.0010777365,FEMA4ImagesEEG,001,101615,
AFNE01.JPG,AFNE01.JPG,AFNE01.JPG,AFNE01.JPG,AFNE01.JPG,AFNE01.JPG,4,3,43,6,,,,,,,,,,,,,,,,,,,,,,,AFSA05.jpg,AFNE19.jpg,AFNE02.jpg,AFSA19.jpg,AFSA19.jpg,FS,4,num_4,16,num_4,0.100130412611,,,2017_Sep_29_1234,60.0010777365,FEMA4ImagesEEG,001,101615,
AFNE01.JPG,AFNE01.JPG,AFNE01.JPG,AFNE01.JPG,AFNE01.JPG,AFNE01.JPG,4,4,44,1,,,,,,,,,,,,,,,,,,,,,,,AFNE15.jpg,AFSA06.jpg,AFNE02.jpg,AFSA07.jpg,AFSA07.jpg,FS,4,num_4,32,num_8,1.16639008222,,,2017_Sep_29_1234,60.0010777365,FEMA4ImagesEEG,001,101615,
AFNE01.JPG,AFNE01.JPG,AFNE01.JPG,AFNE01.JPG,AFNE01.JPG,AFNE01.JPG,4,5,45,0,,,,,,,,,,,,,,,,,,,,,,,AFSA03.jpg,AFSA20.jpg,AFNE11.jpg,AFNE08.jpg,AFSA20.jpg,FS,4,num_6,16,num_6,0.583461896516,,,2017_Sep_29_1234,60.0010777365,FEMA4ImagesEEG,001,101615,
AFNE01.JPG,AFNE01.JPG,AFNE01.JPG,AFNE01.JPG,AFNE01.JPG,AFNE01.JPG,4,6,46,8,,,,,,,,,,,,,,,,,,,,,,,AFNE10.jpg,AFSA14.jpg,AFSA19.jpg,AFNE08.jpg,AFNE08.jpg,FN,3,num_4,32,num_6,0.700169735472,,,2017_Sep_29_1234,60.0010777365,FEMA4ImagesEEG,001,101615,
AFNE01.JPG,AFNE01.JPG,AFNE01.JPG,AFNE01.JPG,AFNE01.JPG,AFNE01.JPG,4,7,47,4,,,,,,,,,,,,,,,,,,,,,,,AFSA16.jpg,AFNE19.jpg,AFNE20.jpg,AFSA09.jpg,AFNE19.jpg,FN,3,num_6,32,num_8,1.28343341476,,,2017_Sep_29_1234,60.0010777365,FEMA4ImagesEEG,001,101615,
AFNE01.JPG,AFNE01.JPG,AFNE01.JPG,AFNE01.JPG,AFNE01.JPG,AFNE01.JPG,4,8,48,3,,,,,,,,,,,,,,,,,,,,,,,AFSA06.jpg,AFSA02.jpg,AFNE10.jpg,AFNE11.jpg,AFSA06.jpg,FS,4,num_8,32,num_2,0.43351356755,,,2017_Sep_29_1234,60.0010777365,FEMA4ImagesEEG,001,101615,
AFNE01.JPG,AFNE01.JPG,AFNE01.JPG,AFNE01.JPG,AFNE01.JPG,AFNE01.JPG,4,9,49,5,,,,,,,,,,,,,,,,,,,,,,,AFSA05.jpg,AFNE15.jpg,AFSA20.jpg,AFNE06.jpg,AFSA20.jpg,FS,4,num_2,32,num_4,0.566779588466,,,2017_Sep_29_1234,60.0010777365,FEMA4ImagesEEG,001,101615,
AFNE01.JPG,AFNE01.JPG,AFNE01.JPG,AFNE01.JPG,AFNE01.JPG,AFNE01.JPG,5,0,50,0,,,,,,,,,,,,,,,,,,,,,,,AFNE15.jpg,AFNE13.jpg,AFSA03.jpg,AFSA12.jpg,AFNE15.jpg,FN,3,num_8,16,num_8,1.41670168075,,,2017_Sep_29_1234,60.0010777365,FEMA4ImagesEEG,001,101615,
AFNE01.JPG,AFNE01.JPG,AFNE01.JPG,AFNE01.JPG,AFNE01.JPG,AFNE01.JPG,5,1,51,5,,,,,,,,,,,,,,,,,,,,,,,AFSA15.jpg,AFNE05.jpg,AFNE01.jpg,AFSA19.jpg,AFNE01.jpg,FN,3,num_2,32,num_6,0.78346163989,,,2017_Sep_29_1234,60.0010777365,FEMA4ImagesEEG,001,101615,
AFNE01.JPG,AFNE01.JPG,AFNE01.JPG,AFNE01.JPG,AFNE01.JPG,AFNE01.JPG,5,2,52,6,,,,,,,,,,,,,,,,,,,,,,,AFNE08.jpg,AFSA07.jpg,AFSA04.jpg,AFNE01.jpg,AFNE08.jpg,FN,3,num_8,32,num_2,0.266803708044,,,2017_Sep_29_1234,60.0010777365,FEMA4ImagesEEG,001,101615,
AFNE01.JPG,AFNE01.JPG,AFNE01.JPG,AFNE01.JPG,AFNE01.JPG,AFNE01.JPG,5,3,53,8,,,,,,,,,,,,,,,,,,,,,,,AFSA14.jpg,AFNE10.jpg,AFSA06.jpg,AFNE15.jpg,AFSA14.jpg,FS,4,num_8,32,num_6,0.483384405845,,,2017_Sep_29_1234,60.0010777365,FEMA4ImagesEEG,001,101615,
AFNE01.JPG,AFNE01.JPG,AFNE01.JPG,AFNE01.JPG,AFNE01.JPG,AFNE01.JPG,5,4,54,2,,,,,,,,,,,,,,,,,,,,,,,AFNE11.jpg,AFSA08.jpg,AFNE20.jpg,AFSA15.jpg,AFNE20.jpg,FN,3,num_2,32,num_4,0.633469690452,,,2017_Sep_29_1234,60.0010777365,FEMA4ImagesEEG,001,101615,
AFNE01.JPG,AFNE01.JPG,AFNE01.JPG,AFNE01.JPG,AFNE01.JPG,AFNE01.JPG,5,5,55,1,,,,,,,,,,,,,,,,,,,,,,,AFNE06.jpg,AFSA01.jpg,AFNE09.jpg,AFSA04.jpg,AFNE06.jpg,FN,3,num_8,32,num_2,0.28351712774,,,2017_Sep_29_1234,60.0010777365,FEMA4ImagesEEG,001,101615,
AFNE01.JPG,AFNE01.JPG,AFNE01.JPG,AFNE01.JPG,AFNE01.JPG,AFNE01.JPG,5,6,56,3,,,,,,,,,,,,,,,,,,,,,,,AFSA11.jpg,AFNE12.jpg,AFSA06.jpg,AFNE20.jpg,AFSA11.jpg,FS,4,num_8,16,num_8,0.483500834205,,,2017_Sep_29_1234,60.0010777365,FEMA4ImagesEEG,001,101615,
AFNE01.JPG,AFNE01.JPG,AFNE01.JPG,AFNE01.JPG,AFNE01.JPG,AFNE01.JPG,5,7,57,7,,,,,,,,,,,,,,,,,,,,,,,AFSA13.jpg,AFSA15.jpg,AFNE03.jpg,AFNE20.jpg,AFNE20.jpg,FN,3,num_4,16,num_4,0.51678686915,,,2017_Sep_29_1234,60.0010777365,FEMA4ImagesEEG,001,101615,
AFNE01.JPG,AFNE01.JPG,AFNE01.JPG,AFNE01.JPG,AFNE01.JPG,AFNE01.JPG,5,8,58,4,,,,,,,,,,,,,,,,,,,,,,,AFNE08.jpg,AFSA12.jpg,AFNE01.jpg,AFSA11.jpg,AFNE01.jpg,FN,3,num_2,16,num_2,0.300195907708,,,2017_Sep_29_1234,60.0010777365,FEMA4ImagesEEG,001,101615,
AFNE01.JPG,AFNE01.JPG,AFNE01.JPG,AFNE01.JPG,AFNE01.JPG,AFNE01.JPG,5,9,59,9,,,,,,,,,,,,,,,,,,,,,,,AFNE10.jpg,AFNE16.jpg,AFSA18.jpg,AFSA17.jpg,AFSA17.jpg,FS,4,num_4,32,num_2,0.366804541904,,,2017_Sep_29_1234,60.0010777365,FEMA4ImagesEEG,001,101615,
,,,,,,,,,,,,,,,,,,,,,,,,,,,,,,,,,,,,,,,,,,,space,15.981936908,2017_Sep_29_1234,60.0010777365,FEMA4ImagesEEG,001,101615,
AFNE01.JPG,AFNE01.JPG,AFNE01.JPG,AFNE01.JPG,AFNE01.JPG,AFNE01.JPG,,,,,0,0,0,6,,,,,,,,,,,,,,,,,,,AMNE13.jpg,AMSA07.jpg,AMNE09.jpg,AMSA11.jpg,AMNE09.jpg,MN,1,num_2,16,num_2,1.45012595446,,,2017_Sep_29_1234,60.0010777365,FEMA4ImagesEEG,001,101615,
AFNE01.JPG,AFNE01.JPG,AFNE01.JPG,AFNE01.JPG,AFNE01.JPG,AFNE01.JPG,,,,,0,1,1,2,,,,,,,,,,,,,,,,,,,AMSA04.jpg,AMSA16.jpg,AMNE06.jpg,AMNE12.jpg,AMNE06.jpg,MN,1,num_2,32,num_4,0.716783405165,,,2017_Sep_29_1234,60.0010777365,FEMA4ImagesEEG,001,101615,
AFNE01.JPG,AFNE01.JPG,AFNE01.JPG,AFNE01.JPG,AFNE01.JPG,AFNE01.JPG,,,,,0,2,2,0,,,,,,,,,,,,,,,,,,,AMSA15.jpg,AMSA10.jpg,AMNE04.jpg,AMNE19.jpg,AMSA10.jpg,MS,2,num_6,16,num_6,0.783463243512,,,2017_Sep_29_1234,60.0010777365,FEMA4ImagesEEG,001,101615,
AFNE01.JPG,AFNE01.JPG,AFNE01.JPG,AFNE01.JPG,AFNE01.JPG,AFNE01.JPG,,,,,0,3,3,4,,,,,,,,,,,,,,,,,,,AMSA08.jpg,AMSA06.jpg,AMNE09.jpg,AMNE15.jpg,AMNE09.jpg,MN,1,num_2,16,num_2,1.21672470984,,,2017_Sep_29_1234,60.0010777365,FEMA4ImagesEEG,001,101615,
AFNE01.JPG,AFNE01.JPG,AFNE01.JPG,AFNE01.JPG,AFNE01.JPG,AFNE01.JPG,,,,,0,4,4,3,,,,,,,,,,,,,,,,,,,AMSA10.jpg,AMSA20.jpg,AMNE03.jpg,AMNE01.jpg,AMSA10.jpg,MS,2,num_8,16,num_8,0.683514048695,,,2017_Sep_29_1234,60.0010777365,FEMA4ImagesEEG,001,101615,
AFNE01.JPG,AFNE01.JPG,AFNE01.JPG,AFNE01.JPG,AFNE01.JPG,AFNE01.JPG,,,,,0,5,5,8,,,,,,,,,,,,,,,,,,,AMNE03.jpg,AMSA10.jpg,AMSA04.jpg,AMNE19.jpg,AMSA10.jpg,MS,2,num_6,16,num_6,1.83336519357,,,2017_Sep_29_1234,60.0010777365,FEMA4ImagesEEG,001,101615,
AFNE01.JPG,AFNE01.JPG,AFNE01.JPG,AFNE01.JPG,AFNE01.JPG,AFNE01.JPG,,,,,0,6,6,9,,,,,,,,,,,,,,,,,,,AMNE06.jpg,AMNE01.jpg,AMSA17.jpg,AMSA14.jpg,AMNE06.jpg,MN,1,num_8,32,num_6,1.10007813212,,,2017_Sep_29_1234,60.0010777365,FEMA4ImagesEEG,001,101615,
AFNE01.JPG,AFNE01.JPG,AFNE01.JPG,AFNE01.JPG,AFNE01.JPG,AFNE01.JPG,,,,,0,7,7,1,,,,,,,,,,,,,,,,,,,AMSA11.jpg,AMNE15.jpg,AMNE08.jpg,AMSA04.jpg,AMSA04.jpg,MS,2,num_4,32,num_6,0.41680239304,,,2017_Sep_29_1234,60.0010777365,FEMA4ImagesEEG,001,101615,
AFNE01.JPG,AFNE01.JPG,AFNE01.JPG,AFNE01.JPG,AFNE01.JPG,AFNE01.JPG,,,,,0,8,8,5,,,,,,,,,,,,,,,,,,,AMSA20.jpg,AMNE08.jpg,AMNE06.jpg,AMSA12.jpg,AMSA12.jpg,MS,2,num_4,32,num_6,0.700141510344,,,2017_Sep_29_1234,60.0010777365,FEMA4ImagesEEG,001,101615,
AFNE01.JPG,AFNE01.JPG,AFNE01.JPG,AFNE01.JPG,AFNE01.JPG,AFNE01.JPG,,,,,0,9,9,7,,,,,,,,,,,,,,,,,,,AMSA17.jpg,AMSA20.jpg,AMNE12.jpg,AMNE16.jpg,AMNE16.jpg,MN,1,num_4,16,num_4,0.300164154614,,,2017_Sep_29_1234,60.0010777365,FEMA4ImagesEEG,001,101615,
AFNE01.JPG,AFNE01.JPG,AFNE01.JPG,AFNE01.JPG,AFNE01.JPG,AFNE01.JPG,,,,,1,0,10,0,,,,,,,,,,,,,,,,,,,AMSA06.jpg,AMSA10.jpg,AMNE20.jpg,AMNE08.jpg,AMSA06.jpg,MS,2,num_8,16,num_8,0.466816601809,,,2017_Sep_29_1234,60.0010777365,FEMA4ImagesEEG,001,101615,
AFNE01.JPG,AFNE01.JPG,AFNE01.JPG,AFNE01.JPG,AFNE01.JPG,AFNE01.JPG,,,,,1,1,11,7,,,,,,,,,,,,,,,,,,,AMSA12.jpg,AMNE03.jpg,AMNE06.jpg,AMSA01.jpg,AMSA01.jpg,MS,2,num_4,32,num_2,0.366913593374,,,2017_Sep_29_1234,60.0010777365,FEMA4ImagesEEG,001,101615,
AFNE01.JPG,AFNE01.JPG,AFNE01.JPG,AFNE01.JPG,AFNE01.JPG,AFNE01.JPG,,,,,1,2,12,5,,,,,,,,,,,,,,,,,,,AMNE20.jpg,AMSA15.jpg,AMNE02.jpg,AMSA10.jpg,AMSA15.jpg,MS,2,num_6,32,num_4,0.416868785978,,,2017_Sep_29_1234,60.0010777365,FEMA4ImagesEEG,001,101615,
AFNE01.JPG,AFNE01.JPG,AFNE01.JPG,AFNE01.JPG,AFNE01.JPG,AFNE01.JPG,,,,,1,3,13,6,,,,,,,,,,,,,,,,,,,AMSA16.jpg,AMSA12.jpg,AMNE05.jpg,AMNE10.jpg,AMNE05.jpg,MN,1,num_2,32,num_6,0.333484829287,,,2017_Sep_29_1234,60.0010777365,FEMA4ImagesEEG,001,101615,
AFNE01.JPG,AFNE01.JPG,AFNE01.JPG,AFNE01.JPG,AFNE01.JPG,AFNE01.JPG,,,,,1,4,14,9,,,,,,,,,,,,,,,,,,,AMSA17.jpg,AMNE05.jpg,AMSA03.jpg,AMNE01.jpg,AMNE01.jpg,MN,1,num_4,32,num_8,1.3666707935,,,2017_Sep_29_1234,60.0010777365,FEMA4ImagesEEG,001,101615,
AFNE01.JPG,AFNE01.JPG,AFNE01.JPG,AFNE01.JPG,AFNE01.JPG,AFNE01.JPG,,,,,1,5,15,8,,,,,,,,,,,,,,,,,,,AMNE20.jpg,AMSA13.jpg,AMNE12.jpg,AMSA07.jpg,AMSA13.jpg,MS,2,num_6,16,num_6,0.350206267671,,,2017_Sep_29_1234,60.0010777365,FEMA4ImagesEEG,001,101615,
AFNE01.JPG,AFNE01.JPG,AFNE01.JPG,AFNE01.JPG,AFNE01.JPG,AFNE01.JPG,,,,,1,6,16,4,,,,,,,,,,,,,,,,,,,AMNE20.jpg,AMSA15.jpg,AMNE09.jpg,AMSA09.jpg,AMSA09.jpg,MS,2,num_4,32,num_2,0.316800917499,,,2017_Sep_29_1234,60.0010777365,FEMA4ImagesEEG,001,101615,
AFNE01.JPG,AFNE01.JPG,AFNE01.JPG,AFNE01.JPG,AFNE01.JPG,AFNE01.JPG,,,,,1,7,17,1,,,,,,,,,,,,,,,,,,,AMNE10.jpg,AMNE09.jpg,AMSA03.jpg,AMSA15.jpg,AMNE10.jpg,MN,1,num_8,32,num_4,0.400072615361,,,2017_Sep_29_1234,60.0010777365,FEMA4ImagesEEG,001,101615,
AFNE01.JPG,AFNE01.JPG,AFNE01.JPG,AFNE01.JPG,AFNE01.JPG,AFNE01.JPG,,,,,1,8,18,3,,,,,,,,,,,,,,,,,,,AMSA07.jpg,AMSA20.jpg,AMNE04.jpg,AMNE07.jpg,AMSA20.jpg,MS,2,num_6,32,num_4,1.26671037276,,,2017_Sep_29_1234,60.0010777365,FEMA4ImagesEEG,001,101615,
AFNE01.JPG,AFNE01.JPG,AFNE01.JPG,AFNE01.JPG,AFNE01.JPG,AFNE01.JPG,,,,,1,9,19,2,,,,,,,,,,,,,,,,,,,AMSA05.jpg,AMNE17.jpg,AMNE02.jpg,AMSA04.jpg,AMNE02.jpg,MN,1,num_2,32,num_6,1.03345634765,,,2017_Sep_29_1234,60.0010777365,FEMA4ImagesEEG,001,101615,
AFNE01.JPG,AFNE01.JPG,AFNE01.JPG,AFNE01.JPG,AFNE01.JPG,AFNE01.JPG,,,,,2,0,20,7,,,,,,,,,,,,,,,,,,,AMNE02.jpg,AMSA03.jpg,AMSA10.jpg,AMNE01.jpg,AMNE01.jpg,MN,1,num_4,32,num_2,0.950112162624,,,2017_Sep_29_1234,60.0010777365,FEMA4ImagesEEG,001,101615,
AFNE01.JPG,AFNE01.JPG,AFNE01.JPG,AFNE01.JPG,AFNE01.JPG,AFNE01.JPG,,,,,2,1,21,0,,,,,,,,,,,,,,,,,,,AMSA19.jpg,AMSA02.jpg,AMNE07.jpg,AMNE08.jpg,AMNE07.jpg,MN,1,num_2,32,num_4,0.383515075082,,,2017_Sep_29_1234,60.0010777365,FEMA4ImagesEEG,001,101615,
AFNE01.JPG,AFNE01.JPG,AFNE01.JPG,AFNE01.JPG,AFNE01.JPG,AFNE01.JPG,,,,,2,2,22,2,,,,,,,,,,,,,,,,,,,AMNE15.jpg,AMSA13.jpg,AMNE10.jpg,AMSA02.jpg,AMSA13.jpg,MS,2,num_6,32,num_8,0.383472737507,,,2017_Sep_29_1234,60.0010777365,FEMA4ImagesEEG,001,101615,
AFNE01.JPG,AFNE01.JPG,AFNE01.JPG,AFNE01.JPG,AFNE01.JPG,AFNE01.JPG,,,,,2,3,23,6,,,,,,,,,,,,,,,,,,,AMSA14.jpg,AMNE18.jpg,AMNE05.jpg,AMSA10.jpg,AMSA14.jpg,MS,2,num_8,32,num_2,0.40018006321,,,2017_Sep_29_1234,60.0010777365,FEMA4ImagesEEG,001,101615,
AFNE01.JPG,AFNE01.JPG,AFNE01.JPG,AFNE01.JPG,AFNE01.JPG,AFNE01.JPG,,,,,2,4,24,5,,,,,,,,,,,,,,,,,,,AMSA19.jpg,AMNE14.jpg,AMNE08.jpg,AMSA07.jpg,AMSA07.jpg,MS,2,num_4,16,num_4,0.783492430812,,,2017_Sep_29_1234,60.0010777365,FEMA4ImagesEEG,001,101615,
AFNE01.JPG,AFNE01.JPG,AFNE01.JPG,AFNE01.JPG,AFNE01.JPG,AFNE01.JPG,,,,,2,5,25,9,,,,,,,,,,,,,,,,,,,AMNE19.jpg,AMSA10.jpg,AMSA01.jpg,AMNE02.jpg,AMNE19.jpg,MN,1,num_8,32,num_6,0.250186830759,,,2017_Sep_29_1234,60.0010777365,FEMA4ImagesEEG,001,101615,
AFNE01.JPG,AFNE01.JPG,AFNE01.JPG,AFNE01.JPG,AFNE01.JPG,AFNE01.JPG,,,,,2,6,26,3,,,,,,,,,,,,,,,,,,,AMNE04.jpg,AMSA13.jpg,AMSA18.jpg,AMNE15.jpg,AMNE04.jpg,MN,1,num_8,32,num_2,0.416791808559,,,2017_Sep_29_1234,60.0010777365,FEMA4ImagesEEG,001,101615,
AFNE01.JPG,AFNE01.JPG,AFNE01.JPG,AFNE01.JPG,AFNE01.JPG,AFNE01.JPG,,,,,2,7,27,1,,,,,,,,,,,,,,,,,,,AMSA03.jpg,AMNE12.jpg,AMSA04.jpg,AMNE04.jpg,AMSA03.jpg,MS,2,num_8,16,num_8,0.283586407546,,,2017_Sep_29_1234,60.0010777365,FEMA4ImagesEEG,001,101615,
AFNE01.JPG,AFNE01.JPG,AFNE01.JPG,AFNE01.JPG,AFNE01.JPG,AFNE01.JPG,,,,,2,8,28,4,,,,,,,,,,,,,,,,,,,AMNE03.jpg,AMSA17.jpg,AMNE04.jpg,AMSA12.jpg,AMSA17.jpg,MS,2,num_6,32,num_4,0.333634614712,,,2017_Sep_29_1234,60.0010777365,FEMA4ImagesEEG,001,101615,
AFNE01.JPG,AFNE01.JPG,AFNE01.JPG,AFNE01.JPG,AFNE01.JPG,AFNE01.JPG,,,,,2,9,29,8,,,,,,,,,,,,,,,,,,,AMSA15.jpg,AMSA10.jpg,AMNE08.jpg,AMNE17.jpg,AMSA10.jpg,MS,2,num_6,16,num_6,0.133484444348,,,2017_Sep_29_1234,60.0010777365,FEMA4ImagesEEG,001,101615,
AFNE01.JPG,AFNE01.JPG,AFNE01.JPG,AFNE01.JPG,AFNE01.JPG,AFNE01.JPG,,,,,3,0,30,8,,,,,,,,,,,,,,,,,,,AMNE04.jpg,AMSA07.jpg,AMNE02.jpg,AMSA16.jpg,AMSA07.jpg,MS,2,num_6,32,num_8,0.450215440826,,,2017_Sep_29_1234,60.0010777365,FEMA4ImagesEEG,001,101615,
AFNE01.JPG,AFNE01.JPG,AFNE01.JPG,AFNE01.JPG,AFNE01.JPG,AFNE01.JPG,,,,,3,1,31,9,,,,,,,,,,,,,,,,,,,AMNE09.jpg,AMSA05.jpg,AMSA19.jpg,AMNE01.jpg,AMNE01.jpg,MN,1,num_4,32,num_2,0.316869235132,,,2017_Sep_29_1234,60.0010777365,FEMA4ImagesEEG,001,101615,
AFNE01.JPG,AFNE01.JPG,AFNE01.JPG,AFNE01.JPG,AFNE01.JPG,AFNE01.JPG,,,,,3,2,32,2,,,,,,,,,,,,,,,,,,,AMNE18.jpg,AMNE02.jpg,AMSA03.jpg,AMSA18.jpg,AMSA03.jpg,MS,2,num_2,16,num_2,0.350018314202,,,2017_Sep_29_1234,60.0010777365,FEMA4ImagesEEG,001,101615,
AFNE01.JPG,AFNE01.JPG,AFNE01.JPG,AFNE01.JPG,AFNE01.JPG,AFNE01.JPG,,,,,3,3,33,0,,,,,,,,,,,,,,,,,,,AMNE17.jpg,AMSA11.jpg,AMNE03.jpg,AMSA08.jpg,AMNE03.jpg,MN,1,num_2,32,num_6,0.350194079569,,,2017_Sep_29_1234,60.0010777365,FEMA4ImagesEEG,001,101615,
AFNE01.JPG,AFNE01.JPG,AFNE01.JPG,AFNE01.JPG,AFNE01.JPG,AFNE01.JPG,,,,,3,4,34,6,,,,,,,,,,,,,,,,,,,AMSA04.jpg,AMNE08.jpg,AMSA17.jpg,AMNE06.jpg,AMNE08.jpg,MN,1,num_6,32,num_4,0.333446340635,,,2017_Sep_29_1234,60.0010777365,FEMA4ImagesEEG,001,101615,
AFNE01.JPG,AFNE01.JPG,AFNE01.JPG,AFNE01.JPG,AFNE01.JPG,AFNE01.JPG,,,,,3,5,35,1,,,,,,,,,,,,,,,,,,,AMSA10.jpg,AMSA02.jpg,AMNE08.jpg,AMNE03.jpg,AMNE08.jpg,MN,1,num_2,32,num_8,0.116859869449,,,2017_Sep_29_1234,60.0010777365,FEMA4ImagesEEG,001,101615,
AFNE01.JPG,AFNE01.JPG,AFNE01.JPG,AFNE01.JPG,AFNE01.JPG,AFNE01.JPG,,,,,3,6,36,4,,,,,,,,,,,,,,,,,,,AMNE01.jpg,AMSA19.jpg,AMNE05.jpg,AMSA07.jpg,AMNE05.jpg,MN,1,num_2,32,num_6,0.516780454433,,,2017_Sep_29_1234,60.0010777365,FEMA4ImagesEEG,001,101615,
AFNE01.JPG,AFNE01.JPG,AFNE01.JPG,AFNE01.JPG,AFNE01.JPG,AFNE01.JPG,,,,,3,7,37,5,,,,,,,,,,,,,,,,,,,AMNE17.jpg,AMSA20.jpg,AMSA04.jpg,AMNE03.jpg,AMSA20.jpg,MS,2,num_6,32,num_8,0.866845917306,,,2017_Sep_29_1234,60.0010777365,FEMA4ImagesEEG,001,101615,
AFNE01.JPG,AFNE01.JPG,AFNE01.JPG,AFNE01.JPG,AFNE01.JPG,AFNE01.JPG,,,,,3,8,38,7,,,,,,,,,,,,,,,,,,,AMSA13.jpg,AMNE16.jpg,AMSA20.jpg,AMNE04.jpg,AMSA20.jpg,MS,2,num_2,16,num_2,2.78360725567,,,2017_Sep_29_1234,60.0010777365,FEMA4ImagesEEG,001,101615,
AFNE01.JPG,AFNE01.JPG,AFNE01.JPG,AFNE01.JPG,AFNE01.JPG,AFNE01.JPG,,,,,3,9,39,3,,,,,,,,,,,,,,,,,,,AMNE06.jpg,AMNE20.jpg,AMSA09.jpg,AMSA05.jpg,AMNE06.jpg,MN,1,num_8,32,num_6,0.366820899653,,,2017_Sep_29_1234,60.0010777365,FEMA4ImagesEEG,001,101615,
AFNE01.JPG,AFNE01.JPG,AFNE01.JPG,AFNE01.JPG,AFNE01.JPG,AFNE01.JPG,,,,,4,0,40,0,,,,,,,,,,,,,,,,,,,AMSA20.jpg,AMSA08.jpg,AMNE15.jpg,AMNE08.jpg,AMNE08.jpg,MN,1,num_4,16,num_4,0.433509398019,,,2017_Sep_29_1234,60.0010777365,FEMA4ImagesEEG,001,101615,
AFNE01.JPG,AFNE01.JPG,AFNE01.JPG,AFNE01.JPG,AFNE01.JPG,AFNE01.JPG,,,,,4,1,41,7,,,,,,,,,,,,,,,,,,,AMNE16.jpg,AMSA08.jpg,AMSA19.jpg,AMNE02.jpg,AMNE16.jpg,MN,1,num_8,32,num_2,0.533502854872,,,2017_Sep_29_1234,60.0010777365,FEMA4ImagesEEG,001,101615,
AFNE01.JPG,AFNE01.JPG,AFNE01.JPG,AFNE01.JPG,AFNE01.JPG,AFNE01.JPG,,,,,4,2,42,3,,,,,,,,,,,,,,,,,,,AMNE08.jpg,AMSA11.jpg,AMNE04.jpg,AMSA10.jpg,AMNE08.jpg,MN,1,num_8,16,num_8,2.06665353768,,,2017_Sep_29_1234,60.0010777365,FEMA4ImagesEEG,001,101615,
AFNE01.JPG,AFNE01.JPG,AFNE01.JPG,AFNE01.JPG,AFNE01.JPG,AFNE01.JPG,,,,,4,3,43,9,,,,,,,,,,,,,,,,,,,AMSA10.jpg,AMNE11.jpg,AMSA09.jpg,AMNE13.jpg,AMNE11.jpg,MN,1,num_6,32,num_2,0.400172044756,,,2017_Sep_29_1234,60.0010777365,FEMA4ImagesEEG,001,101615,
AFNE01.JPG,AFNE01.JPG,AFNE01.JPG,AFNE01.JPG,AFNE01.JPG,AFNE01.JPG,,,,,4,4,44,8,,,,,,,,,,,,,,,,,,,AMSA06.jpg,AMSA20.jpg,AMNE16.jpg,AMNE03.jpg,AMNE16.jpg,MN,1,num_2,32,num_4,0.566770286998,,,2017_Sep_29_1234,60.0010777365,FEMA4ImagesEEG,001,101615,
AFNE01.JPG,AFNE01.JPG,AFNE01.JPG,AFNE01.JPG,AFNE01.JPG,AFNE01.JPG,,,,,4,5,45,6,,,,,,,,,,,,,,,,,,,AMSA02.jpg,AMSA07.jpg,AMNE13.jpg,AMNE05.jpg,AMSA07.jpg,MS,2,num_6,32,num_4,0.333491564845,,,2017_Sep_29_1234,60.0010777365,FEMA4ImagesEEG,001,101615,
AFNE01.JPG,AFNE01.JPG,AFNE01.JPG,AFNE01.JPG,AFNE01.JPG,AFNE01.JPG,,,,,4,6,46,1,,,,,,,,,,,,,,,,,,,AMNE18.jpg,AMSA12.jpg,AMSA11.jpg,AMNE10.jpg,AMNE10.jpg,MN,1,num_4,32,num_8,0.35016681673,,,2017_Sep_29_1234,60.0010777365,FEMA4ImagesEEG,001,101615,
AFNE01.JPG,AFNE01.JPG,AFNE01.JPG,AFNE01.JPG,AFNE01.JPG,AFNE01.JPG,,,,,4,7,47,2,,,,,,,,,,,,,,,,,,,AMNE01.jpg,AMSA07.jpg,AMNE10.jpg,AMSA04.jpg,AMNE10.jpg,MN,1,num_2,16,num_2,0.33351273369,,,2017_Sep_29_1234,60.0010777365,FEMA4ImagesEEG,001,101615,
AFNE01.JPG,AFNE01.JPG,AFNE01.JPG,AFNE01.JPG,AFNE01.JPG,AFNE01.JPG,,,,,4,8,48,4,,,,,,,,,,,,,,,,,,,AMNE14.jpg,AMNE09.jpg,AMSA09.jpg,AMSA08.jpg,AMNE14.jpg,MN,1,num_8,32,num_4,0.500131503213,,,2017_Sep_29_1234,60.0010777365,FEMA4ImagesEEG,001,101615,
AFNE01.JPG,AFNE01.JPG,AFNE01.JPG,AFNE01.JPG,AFNE01.JPG,AFNE01.JPG,,,,,4,9,49,5,,,,,,,,,,,,,,,,,,,AMNE12.jpg,AMSA12.jpg,AMSA04.jpg,AMNE04.jpg,AMSA04.jpg,MS,2,num_2,32,num_8,0.283630348975,,,2017_Sep_29_1234,60.0010777365,FEMA4ImagesEEG,001,101615,
AFNE01.JPG,AFNE01.JPG,AFNE01.JPG,AFNE01.JPG,AFNE01.JPG,AFNE01.JPG,,,,,5,0,50,2,,,,,,,,,,,,,,,,,,,AMNE04.jpg,AMSA18.jpg,AMNE12.jpg,AMSA01.jpg,AMSA18.jpg,MS,2,num_6,32,num_2,0.35019856994,,,2017_Sep_29_1234,60.0010777365,FEMA4ImagesEEG,001,101615,
AFNE01.JPG,AFNE01.JPG,AFNE01.JPG,AFNE01.JPG,AFNE01.JPG,AFNE01.JPG,,,,,5,1,51,1,,,,,,,,,,,,,,,,,,,AMNE08.jpg,AMNE01.jpg,AMSA14.jpg,AMSA18.jpg,AMSA14.jpg,MS,2,num_2,32,num_6,0.516810603905,,,2017_Sep_29_1234,60.0010777365,FEMA4ImagesEEG,001,101615,
AFNE01.JPG,AFNE01.JPG,AFNE01.JPG,AFNE01.JPG,AFNE01.JPG,AFNE01.JPG,,,,,5,2,52,9,,,,,,,,,,,,,,,,,,,AMSA03.jpg,AMNE18.jpg,AMSA13.jpg,AMNE11.jpg,AMSA03.jpg,MS,2,num_8,16,num_8,0.333492527017,,,2017_Sep_29_1234,60.0010777365,FEMA4ImagesEEG,001,101615,
AFNE01.JPG,AFNE01.JPG,AFNE01.JPG,AFNE01.JPG,AFNE01.JPG,AFNE01.JPG,,,,,5,3,53,5,,,,,,,,,,,,,,,,,,,AMNE13.jpg,AMSA13.jpg,AMSA02.jpg,AMNE04.jpg,AMSA13.jpg,MS,2,num_6,32,num_2,0.283505581203,,,2017_Sep_29_1234,60.0010777365,FEMA4ImagesEEG,001,101615,
AFNE01.JPG,AFNE01.JPG,AFNE01.JPG,AFNE01.JPG,AFNE01.JPG,AFNE01.JPG,,,,,5,4,54,0,,,,,,,,,,,,,,,,,,,AMSA08.jpg,AMNE19.jpg,AMSA17.jpg,AMNE15.jpg,AMSA17.jpg,MS,2,num_2,32,num_4,0.700245750719,,,2017_Sep_29_1234,60.0010777365,FEMA4ImagesEEG,001,101615,
AFNE01.JPG,AFNE01.JPG,AFNE01.JPG,AFNE01.JPG,AFNE01.JPG,AFNE01.JPG,,,,,5,5,55,7,,,,,,,,,,,,,,,,,,,AMNE11.jpg,AMNE07.jpg,AMSA16.jpg,AMSA04.jpg,AMNE07.jpg,MN,1,num_6,32,num_2,1.06680941721,,,2017_Sep_29_1234,60.0010777365,FEMA4ImagesEEG,001,101615,
AFNE01.JPG,AFNE01.JPG,AFNE01.JPG,AFNE01.JPG,AFNE01.JPG,AFNE01.JPG,,,,,5,6,56,3,,,,,,,,,,,,,,,,,,,AMSA16.jpg,AMNE03.jpg,AMSA03.jpg,AMNE18.jpg,AMNE03.jpg,MN,1,num_6,16,num_6,0.300147476024,,,2017_Sep_29_1234,60.0010777365,FEMA4ImagesEEG,001,101615,
AFNE01.JPG,AFNE01.JPG,AFNE01.JPG,AFNE01.JPG,AFNE01.JPG,AFNE01.JPG,,,,,5,7,57,4,,,,,,,,,,,,,,,,,,,AMSA07.jpg,AMNE13.jpg,AMSA05.jpg,AMNE08.jpg,AMSA05.jpg,MS,2,num_2,32,num_4,1.15013948968,,,2017_Sep_29_1234,60.0010777365,FEMA4ImagesEEG,001,101615,
AFNE01.JPG,AFNE01.JPG,AFNE01.JPG,AFNE01.JPG,AFNE01.JPG,AFNE01.JPG,,,,,5,8,58,8,,,,,,,,,,,,,,,,,,,AMSA19.jpg,AMNE16.jpg,AMNE19.jpg,AMSA13.jpg,AMNE19.jpg,MN,1,num_2,16,num_2,1.03345602693,,,2017_Sep_29_1234,60.0010777365,FEMA4ImagesEEG,001,101615,
AFNE01.JPG,AFNE01.JPG,AFNE01.JPG,AFNE01.JPG,AFNE01.JPG,AFNE01.JPG,,,,,5,9,59,6,,,,,,,,,,,,,,,,,,,AMSA05.jpg,AMNE01.jpg,AMNE08.jpg,AMSA18.jpg,AMNE01.jpg,MN,1,num_6,32,num_8,0.350023125298,,,2017_Sep_29_1234,60.0010777365,FEMA4ImagesEEG,001,101615,
,,,,,,,,,,,,,,,,,,,,,,,,,,,,,,,,,,,,,,,,,,,space,39.0308051141,2017_Sep_29_1234,60.0010777365,FEMA4ImagesEEG,001,101615,
AFNE01.JPG,AFNE01.JPG,AFNE01.JPG,AFNE01.JPG,AFNE01.JPG,AFNE01.JPG,,,,,,,,,0,0,0,4,,,,,,,,,,,,,,,AFNE01.jpg,AFSA10.jpg,AFSA17.jpg,AFNE05.jpg,AFNE05.jpg,FN,3,num_4,32,num_6,0.616763326922,,,2017_Sep_29_1234,60.0010777365,FEMA4ImagesEEG,001,101615,
AFNE01.JPG,AFNE01.JPG,AFNE01.JPG,AFNE01.JPG,AFNE01.JPG,AFNE01.JPG,,,,,,,,,0,1,1,2,,,,,,,,,,,,,,,AFSA11.jpg,AFSA08.jpg,AFNE19.jpg,AFNE02.jpg,AFNE19.jpg,FN,3,num_2,16,num_2,0.316808294505,,,2017_Sep_29_1234,60.0010777365,FEMA4ImagesEEG,001,101615,
AFNE01.JPG,AFNE01.JPG,AFNE01.JPG,AFNE01.JPG,AFNE01.JPG,AFNE01.JPG,,,,,,,,,0,2,2,5,,,,,,,,,,,,,,,AFNE20.jpg,AFSA20.jpg,AFSA14.jpg,AFNE08.jpg,AFNE20.jpg,FN,3,num_8,32,num_4,0.483434761874,,,2017_Sep_29_1234,60.0010777365,FEMA4ImagesEEG,001,101615,
AFNE01.JPG,AFNE01.JPG,AFNE01.JPG,AFNE01.JPG,AFNE01.JPG,AFNE01.JPG,,,,,,,,,0,3,3,7,,,,,,,,,,,,,,,AFNE14.jpg,AFNE02.jpg,AFSA03.jpg,AFSA18.jpg,AFNE02.jpg,FN,3,num_6,32,num_8,0.333453076077,,,2017_Sep_29_1234,60.0010777365,FEMA4ImagesEEG,001,101615,
AFNE01.JPG,AFNE01.JPG,AFNE01.JPG,AFNE01.JPG,AFNE01.JPG,AFNE01.JPG,,,,,,,,,0,4,4,8,,,,,,,,,,,,,,,AFNE05.jpg,AFNE09.jpg,AFSA17.jpg,AFSA03.jpg,AFSA17.jpg,FS,4,num_2,16,num_2,0.316832029261,,,2017_Sep_29_1234,60.0010777365,FEMA4ImagesEEG,001,101615,
AFNE01.JPG,AFNE01.JPG,AFNE01.JPG,AFNE01.JPG,AFNE01.JPG,AFNE01.JPG,,,,,,,,,0,5,5,9,,,,,,,,,,,,,,,AFSA08.jpg,AFNE03.jpg,AFNE11.jpg,AFSA02.jpg,AFNE11.jpg,FN,3,num_2,32,num_4,1.3837450454,,,2017_Sep_29_1234,60.0010777365,FEMA4ImagesEEG,001,101615,
AFNE01.JPG,AFNE01.JPG,AFNE01.JPG,AFNE01.JPG,AFNE01.JPG,AFNE01.JPG,,,,,,,,,0,6,6,3,,,,,,,,,,,,,,,AFNE01.jpg,AFSA07.jpg,AFNE19.jpg,AFSA20.jpg,AFSA07.jpg,FS,4,num_6,32,num_4,0.783486016095,,,2017_Sep_29_1234,60.0010777365,FEMA4ImagesEEG,001,101615,
AFNE01.JPG,AFNE01.JPG,AFNE01.JPG,AFNE01.JPG,AFNE01.JPG,AFNE01.JPG,,,,,,,,,0,7,7,1,,,,,,,,,,,,,,,AFSA04.jpg,AFNE16.jpg,AFSA09.jpg,AFNE10.jpg,AFNE10.jpg,FN,3,num_4,16,num_4,0.983503079391,,,2017_Sep_29_1234,60.0010777365,FEMA4ImagesEEG,001,101615,
AFNE01.JPG,AFNE01.JPG,AFNE01.JPG,AFNE01.JPG,AFNE01.JPG,AFNE01.JPG,,,,,,,,,0,8,8,6,,,,,,,,,,,,,,,AFSA18.jpg,AFNE07.jpg,AFSA15.jpg,AFNE12.jpg,AFSA18.jpg,FS,4,num_8,16,num_8,1.116759478,,,2017_Sep_29_1234,60.0010777365,FEMA4ImagesEEG,001,101615,
AFNE01.JPG,AFNE01.JPG,AFNE01.JPG,AFNE01.JPG,AFNE01.JPG,AFNE01.JPG,,,,,,,,,0,9,9,0,,,,,,,,,,,,,,,AFNE10.jpg,AFSA12.jpg,AFNE20.jpg,AFSA03.jpg,AFSA12.jpg,FS,4,num_6,16,num_6,0.616667105118,,,2017_Sep_29_1234,60.0010777365,FEMA4ImagesEEG,001,101615,
AFNE01.JPG,AFNE01.JPG,AFNE01.JPG,AFNE01.JPG,AFNE01.JPG,AFNE01.JPG,,,,,,,,,1,0,10,6,,,,,,,,,,,,,,,AFNE08.jpg,AFSA13.jpg,AFSA10.jpg,AFNE16.jpg,AFSA10.jpg,FS,4,num_2,16,num_2,1.25010183488,,,2017_Sep_29_1234,60.0010777365,FEMA4ImagesEEG,001,101615,
AFNE01.JPG,AFNE01.JPG,AFNE01.JPG,AFNE01.JPG,AFNE01.JPG,AFNE01.JPG,,,,,,,,,1,1,11,0,,,,,,,,,,,,,,,AFSA06.jpg,AFSA08.jpg,AFNE20.jpg,AFNE16.jpg,AFSA08.jpg,FS,4,num_6,32,num_4,1.08353855321,,,2017_Sep_29_1234,60.0010777365,FEMA4ImagesEEG,001,101615,
AFNE01.JPG,AFNE01.JPG,AFNE01.JPG,AFNE01.JPG,AFNE01.JPG,AFNE01.JPG,,,,,,,,,1,2,12,4,,,,,,,,,,,,,,,AFSA07.jpg,AFSA04.jpg,AFNE05.jpg,AFNE03.jpg,AFSA04.jpg,FS,4,num_6,32,num_4,0.933447174495,,,2017_Sep_29_1234,60.0010777365,FEMA4ImagesEEG,001,101615,
AFNE01.JPG,AFNE01.JPG,AFNE01.JPG,AFNE01.JPG,AFNE01.JPG,AFNE01.JPG,,,,,,,,,1,3,13,1,,,,,,,,,,,,,,,AFSA06.jpg,AFSA07.jpg,AFNE19.jpg,AFNE11.jpg,AFNE19.jpg,FN,3,num_2,32,num_8,1.15013692377,,,2017_Sep_29_1234,60.0010777365,FEMA4ImagesEEG,001,101615,
AFNE01.JPG,AFNE01.JPG,AFNE01.JPG,AFNE01.JPG,AFNE01.JPG,AFNE01.JPG,,,,,,,,,1,4,14,5,,,,,,,,,,,,,,,AFNE19.jpg,AFSA01.jpg,AFSA11.jpg,AFNE14.jpg,AFNE19.jpg,FN,3,num_8,32,num_4,0.950126275187,,,2017_Sep_29_1234,60.0010777365,FEMA4ImagesEEG,001,101615,
AFNE01.JPG,AFNE01.JPG,AFNE01.JPG,AFNE01.JPG,AFNE01.JPG,AFNE01.JPG,,,,,,,,,1,5,15,7,,,,,,,,,,,,,,,AFSA05.jpg,AFNE15.jpg,AFNE12.jpg,AFSA11.jpg,AFSA11.jpg,FS,4,num_4,16,num_4,1.18344348599,,,2017_Sep_29_1234,60.0010777365,FEMA4ImagesEEG,001,101615,
AFNE01.JPG,AFNE01.JPG,AFNE01.JPG,AFNE01.JPG,AFNE01.JPG,AFNE01.JPG,,,,,,,,,1,6,16,3,,,,,,,,,,,,,,,AFNE14.jpg,AFNE09.jpg,AFSA16.jpg,AFSA05.jpg,AFNE14.jpg,FN,3,num_8,32,num_6,1.23345256294,,,2017_Sep_29_1234,60.0010777365,FEMA4ImagesEEG,001,101615,
AFNE01.JPG,AFNE01.JPG,AFNE01.JPG,AFNE01.JPG,AFNE01.JPG,AFNE01.JPG,,,,,,,,,1,7,17,2,,,,,,,,,,,,,,,AFNE09.jpg,AFNE10.jpg,AFSA02.jpg,AFSA15.jpg,AFNE09.jpg,FN,3,num_8,16,num_8,0.366801975993,,,2017_Sep_29_1234,60.0010777365,FEMA4ImagesEEG,001,101615,
AFNE01.JPG,AFNE01.JPG,AFNE01.JPG,AFNE01.JPG,AFNE01.JPG,AFNE01.JPG,,,,,,,,,1,8,18,8,,,,,,,,,,,,,,,AFSA03.jpg,AFNE08.jpg,AFNE17.jpg,AFSA16.jpg,AFNE17.jpg,FN,3,num_2,16,num_2,0.383443870815,,,2017_Sep_29_1234,60.0010777365,FEMA4ImagesEEG,001,101615,
AFNE01.JPG,AFNE01.JPG,AFNE01.JPG,AFNE01.JPG,AFNE01.JPG,AFNE01.JPG,,,,,,,,,1,9,19,9,,,,,,,,,,,,,,,AFSA06.jpg,AFNE02.jpg,AFSA16.jpg,AFNE14.jpg,AFNE14.jpg,FN,3,num_4,32,num_6,0.366871255799,,,2017_Sep_29_1234,60.0010777365,FEMA4ImagesEEG,001,101615,
AFNE01.JPG,AFNE01.JPG,AFNE01.JPG,AFNE01.JPG,AFNE01.JPG,AFNE01.JPG,,,,,,,,,2,0,20,4,,,,,,,,,,,,,,,AFSA03.jpg,AFNE17.jpg,AFNE01.jpg,AFSA18.jpg,AFNE17.jpg,FN,3,num_6,32,num_8,0.316848066286,,,2017_Sep_29_1234,60.0010777365,FEMA4ImagesEEG,001,101615,
AFNE01.JPG,AFNE01.JPG,AFNE01.JPG,AFNE01.JPG,AFNE01.JPG,AFNE01.JPG,,,,,,,,,2,1,21,5,,,,,,,,,,,,,,,AFNE19.jpg,AFSA08.jpg,AFSA13.jpg,AFNE20.jpg,AFNE19.jpg,FN,3,num_8,32,num_2,0.483497306122,,,2017_Sep_29_1234,60.0010777365,FEMA4ImagesEEG,001,101615,
AFNE01.JPG,AFNE01.JPG,AFNE01.JPG,AFNE01.JPG,AFNE01.JPG,AFNE01.JPG,,,,,,,,,2,2,22,9,,,,,,,,,,,,,,,AFSA05.jpg,AFSA03.jpg,AFNE18.jpg,AFNE09.jpg,AFNE09.jpg,FN,3,num_4,32,num_6,0.350158798159,,,2017_Sep_29_1234,60.0010777365,FEMA4ImagesEEG,001,101615,
AFNE01.JPG,AFNE01.JPG,AFNE01.JPG,AFNE01.JPG,AFNE01.JPG,AFNE01.JPG,,,,,,,,,2,3,23,3,,,,,,,,,,,,,,,AFSA12.jpg,AFSA20.jpg,AFNE08.jpg,AFNE01.jpg,AFSA12.jpg,FS,4,num_8,32,num_4,0.166804798529,,,2017_Sep_29_1234,60.0010777365,FEMA4ImagesEEG,001,101615,
AFNE01.JPG,AFNE01.JPG,AFNE01.JPG,AFNE01.JPG,AFNE01.JPG,AFNE01.JPG,,,,,,,,,2,4,24,7,,,,,,,,,,,,,,,AFNE11.jpg,AFSA20.jpg,AFSA08.jpg,AFNE14.jpg,AFNE11.jpg,FN,3,num_8,32,num_4,0.0668142281938,,,2017_Sep_29_1234,60.0010777365,FEMA4ImagesEEG,001,101615,
AFNE01.JPG,AFNE01.JPG,AFNE01.JPG,AFNE01.JPG,AFNE01.JPG,AFNE01.JPG,,,,,,,,,2,5,25,0,,,,,,,,,,,,,,,AFNE15.jpg,AFSA09.jpg,AFSA03.jpg,AFNE06.jpg,AFNE06.jpg,FN,3,num_4,32,num_2,0.40027371922,,,2017_Sep_29_1234,60.0010777365,FEMA4ImagesEEG,001,101615,
AFNE01.JPG,AFNE01.JPG,AFNE01.JPG,AFNE01.JPG,AFNE01.JPG,AFNE01.JPG,,,,,,,,,2,6,26,2,,,,,,,,,,,,,,,AFSA09.jpg,AFSA03.jpg,AFNE15.jpg,AFNE19.jpg,AFNE19.jpg,FN,3,num_4,16,num_4,0.733498107991,,,2017_Sep_29_1234,60.0010777365,FEMA4ImagesEEG,001,101615,
AFNE01.JPG,AFNE01.JPG,AFNE01.JPG,AFNE01.JPG,AFNE01.JPG,AFNE01.JPG,,,,,,,,,2,7,27,1,,,,,,,,,,,,,,,AFNE03.jpg,AFSA13.jpg,AFNE12.jpg,AFSA01.jpg,AFNE03.jpg,FN,3,num_8,32,num_6,0.483479344752,,,2017_Sep_29_1234,60.0010777365,FEMA4ImagesEEG,001,101615,
AFNE01.JPG,AFNE01.JPG,AFNE01.JPG,AFNE01.JPG,AFNE01.JPG,AFNE01.JPG,,,,,,,,,2,8,28,6,,,,,,,,,,,,,,,AFNE09.jpg,AFNE18.jpg,AFSA02.jpg,AFSA01.jpg,AFNE09.jpg,FN,3,num_8,16,num_8,0.666779460153,,,2017_Sep_29_1234,60.0010777365,FEMA4ImagesEEG,001,101615,
AFNE01.JPG,AFNE01.JPG,AFNE01.JPG,AFNE01.JPG,AFNE01.JPG,AFNE01.JPG,,,,,,,,,2,9,29,8,,,,,,,,,,,,,,,AFNE17.jpg,AFSA17.jpg,AFSA14.jpg,AFNE19.jpg,AFNE17.jpg,FN,3,num_8,32,num_2,2.00000352808,,,2017_Sep_29_1234,60.0010777365,FEMA4ImagesEEG,001,101615,
AFNE01.JPG,AFNE01.JPG,AFNE01.JPG,AFNE01.JPG,AFNE01.JPG,AFNE01.JPG,,,,,,,,,3,0,30,2,,,,,,,,,,,,,,,AFSA16.jpg,AFNE10.jpg,AFSA17.jpg,AFNE08.jpg,AFSA16.jpg,FS,4,num_8,32,num_4,0.516803547624,,,2017_Sep_29_1234,60.0010777365,FEMA4ImagesEEG,001,101615,
AFNE01.JPG,AFNE01.JPG,AFNE01.JPG,AFNE01.JPG,AFNE01.JPG,AFNE01.JPG,,,,,,,,,3,1,31,9,,,,,,,,,,,,,,,AFSA03.jpg,AFNE07.jpg,AFNE14.jpg,AFSA12.jpg,AFSA12.jpg,FS,4,num_4,32,num_2,0.583488197182,,,2017_Sep_29_1234,60.0010777365,FEMA4ImagesEEG,001,101615,
AFNE01.JPG,AFNE01.JPG,AFNE01.JPG,AFNE01.JPG,AFNE01.JPG,AFNE01.JPG,,,,,,,,,3,2,32,3,,,,,,,,,,,,,,,AFSA09.jpg,AFNE10.jpg,AFNE18.jpg,AFSA16.jpg,AFSA16.jpg,FS,4,num_4,32,num_6,0.31681182282,,,2017_Sep_29_1234,60.0010777365,FEMA4ImagesEEG,001,101615,
AFNE01.JPG,AFNE01.JPG,AFNE01.JPG,AFNE01.JPG,AFNE01.JPG,AFNE01.JPG,,,,,,,,,3,3,33,8,,,,,,,,,,,,,,,AFSA02.jpg,AFNE19.jpg,AFSA19.jpg,AFNE17.jpg,AFSA02.jpg,FS,4,num_8,16,num_8,0.266816858319,,,2017_Sep_29_1234,60.0010777365,FEMA4ImagesEEG,001,101615,
AFNE01.JPG,AFNE01.JPG,AFNE01.JPG,AFNE01.JPG,AFNE01.JPG,AFNE01.JPG,,,,,,,,,3,4,34,7,,,,,,,,,,,,,,,AFSA07.jpg,AFNE01.jpg,AFNE09.jpg,AFSA14.jpg,AFNE09.jpg,FN,3,num_2,32,num_4,0.366783373058,,,2017_Sep_29_1234,60.0010777365,FEMA4ImagesEEG,001,101615,
AFNE01.JPG,AFNE01.JPG,AFNE01.JPG,AFNE01.JPG,AFNE01.JPG,AFNE01.JPG,,,,,,,,,3,5,35,6,,,,,,,,,,,,,,,AFSA06.jpg,AFSA20.jpg,AFNE19.jpg,AFNE17.jpg,AFNE19.jpg,FN,3,num_2,32,num_6,0.350209795753,,,2017_Sep_29_1234,60.0010777365,FEMA4ImagesEEG,001,101615,
AFNE01.JPG,AFNE01.JPG,AFNE01.JPG,AFNE01.JPG,AFNE01.JPG,AFNE01.JPG,,,,,,,,,3,6,36,0,,,,,,,,,,,,,,,AFNE01.jpg,AFNE19.jpg,AFSA17.jpg,AFSA15.jpg,AFSA17.jpg,FS,4,num_2,32,num_6,0.283494355273,,,2017_Sep_29_1234,60.0010777365,FEMA4ImagesEEG,001,101615,
AFNE01.JPG,AFNE01.JPG,AFNE01.JPG,AFNE01.JPG,AFNE01.JPG,AFNE01.JPG,,,,,,,,,3,7,37,4,,,,,,,,,,,,,,,AFSA11.jpg,AFNE06.jpg,AFSA06.jpg,AFNE18.jpg,AFSA11.jpg,FS,4,num_8,32,num_4,0.200206620386,,,2017_Sep_29_1234,60.0010777365,FEMA4ImagesEEG,001,101615,
AFNE01.JPG,AFNE01.JPG,AFNE01.JPG,AFNE01.JPG,AFNE01.JPG,AFNE01.JPG,,,,,,,,,3,8,38,1,,,,,,,,,,,,,,,AFSA11.jpg,AFSA12.jpg,AFNE14.jpg,AFNE08.jpg,AFSA12.jpg,FS,4,num_6,32,num_2,0.283487298992,,,2017_Sep_29_1234,60.0010777365,FEMA4ImagesEEG,001,101615,
AFNE01.JPG,AFNE01.JPG,AFNE01.JPG,AFNE01.JPG,AFNE01.JPG,AFNE01.JPG,,,,,,,,,3,9,39,5,,,,,,,,,,,,,,,AFSA01.jpg,AFNE19.jpg,AFNE03.jpg,AFSA17.jpg,AFNE19.jpg,FN,3,num_6,16,num_6,0.416849220986,,,2017_Sep_29_1234,60.0010777365,FEMA4ImagesEEG,001,101615,
AFNE01.JPG,AFNE01.JPG,AFNE01.JPG,AFNE01.JPG,AFNE01.JPG,AFNE01.JPG,,,,,,,,,4,0,40,0,,,,,,,,,,,,,,,AFNE04.jpg,AFNE10.jpg,AFSA07.jpg,AFSA16.jpg,AFSA07.jpg,FS,4,num_2,32,num_4,0.545505572227,,,2017_Sep_29_1234,60.0010777365,FEMA4ImagesEEG,001,101615,
AFNE01.JPG,AFNE01.JPG,AFNE01.JPG,AFNE01.JPG,AFNE01.JPG,AFNE01.JPG,,,,,,,,,4,1,41,1,,,,,,,,,,,,,,,AFSA17.jpg,AFSA10.jpg,AFNE01.jpg,AFNE02.jpg,AFSA10.jpg,FS,4,num_6,32,num_8,0.400193213602,,,2017_Sep_29_1234,60.0010777365,FEMA4ImagesEEG,001,101615,
AFNE01.JPG,AFNE01.JPG,AFNE01.JPG,AFNE01.JPG,AFNE01.JPG,AFNE01.JPG,,,,,,,,,4,2,42,7,,,,,,,,,,,,,,,AFNE07.jpg,AFNE13.jpg,AFSA09.jpg,AFSA18.jpg,AFNE07.jpg,FN,3,num_8,32,num_2,0.383543941658,,,2017_Sep_29_1234,60.0010777365,FEMA4ImagesEEG,001,101615,
AFNE01.JPG,AFNE01.JPG,AFNE01.JPG,AFNE01.JPG,AFNE01.JPG,AFNE01.JPG,,,,,,,,,4,3,43,9,,,,,,,,,,,,,,,AFNE19.jpg,AFSA09.jpg,AFSA03.jpg,AFNE03.jpg,AFSA03.jpg,FS,4,num_2,32,num_6,0.350233851233,,,2017_Sep_29_1234,60.0010777365,FEMA4ImagesEEG,001,101615,
AFNE01.JPG,AFNE01.JPG,AFNE01.JPG,AFNE01.JPG,AFNE01.JPG,AFNE01.JPG,,,,,,,,,4,4,44,8,,,,,,,,,,,,,,,AFNE13.jpg,AFNE02.jpg,AFSA19.jpg,AFSA03.jpg,AFNE02.jpg,FN,3,num_6,32,num_4,0.433511963929,,,2017_Sep_29_1234,60.0010777365,FEMA4ImagesEEG,001,101615,
AFNE01.JPG,AFNE01.JPG,AFNE01.JPG,AFNE01.JPG,AFNE01.JPG,AFNE01.JPG,,,,,,,,,4,5,45,2,,,,,,,,,,,,,,,AFSA01.jpg,AFNE08.jpg,AFNE05.jpg,AFSA08.jpg,AFNE05.jpg,FN,3,num_2,16,num_2,0.33355282608,,,2017_Sep_29_1234,60.0010777365,FEMA4ImagesEEG,001,101615,
AFNE01.JPG,AFNE01.JPG,AFNE01.JPG,AFNE01.JPG,AFNE01.JPG,AFNE01.JPG,,,,,,,,,4,6,46,5,,,,,,,,,,,,,,,AFSA15.jpg,AFNE10.jpg,AFNE01.jpg,AFSA19.jpg,AFNE10.jpg,FN,3,num_6,32,num_8,0.316801559064,,,2017_Sep_29_1234,60.0010777365,FEMA4ImagesEEG,001,101615,
AFNE01.JPG,AFNE01.JPG,AFNE01.JPG,AFNE01.JPG,AFNE01.JPG,AFNE01.JPG,,,,,,,,,4,7,47,6,,,,,,,,,,,,,,,AFNE15.jpg,AFSA20.jpg,AFNE02.jpg,AFSA19.jpg,AFNE15.jpg,FN,3,num_8,32,num_6,0.300228943932,,,2017_Sep_29_1234,60.0010777365,FEMA4ImagesEEG,001,101615,
AFNE01.JPG,AFNE01.JPG,AFNE01.JPG,AFNE01.JPG,AFNE01.JPG,AFNE01.JPG,,,,,,,,,4,8,48,4,,,,,,,,,,,,,,,AFNE10.jpg,AFSA03.jpg,AFNE01.jpg,AFSA02.jpg,AFSA02.jpg,FS,4,num_4,16,num_4,0.350156232249,,,2017_Sep_29_1234,60.0010777365,FEMA4ImagesEEG,001,101615,
AFNE01.JPG,AFNE01.JPG,AFNE01.JPG,AFNE01.JPG,AFNE01.JPG,AFNE01.JPG,,,,,,,,,4,9,49,3,,,,,,,,,,,,,,,AFSA18.jpg,AFSA09.jpg,AFNE15.jpg,AFNE04.jpg,AFSA18.jpg,FS,4,num_8,32,num_2,0.3500061261,,,2017_Sep_29_1234,60.0010777365,FEMA4ImagesEEG,001,101615,
AFNE01.JPG,AFNE01.JPG,AFNE01.JPG,AFNE01.JPG,AFNE01.JPG,AFNE01.JPG,,,,,,,,,5,0,50,6,,,,,,,,,,,,,,,AFSA04.jpg,AFNE19.jpg,AFSA17.jpg,AFNE14.jpg,AFSA17.jpg,FS,4,num_2,32,num_8,0.316763711744,,,2017_Sep_29_1234,60.0010777365,FEMA4ImagesEEG,001,101615,
AFNE01.JPG,AFNE01.JPG,AFNE01.JPG,AFNE01.JPG,AFNE01.JPG,AFNE01.JPG,,,,,,,,,5,1,51,5,,,,,,,,,,,,,,,AFNE15.jpg,AFNE09.jpg,AFSA17.jpg,AFSA03.jpg,AFNE15.jpg,FN,3,num_8,32,num_6,0.266861120355,,,2017_Sep_29_1234,60.0010777365,FEMA4ImagesEEG,001,101615,
AFNE01.JPG,AFNE01.JPG,AFNE01.JPG,AFNE01.JPG,AFNE01.JPG,AFNE01.JPG,,,,,,,,,5,2,52,9,,,,,,,,,,,,,,,AFSA11.jpg,AFSA06.jpg,AFNE13.jpg,AFNE10.jpg,AFNE10.jpg,FN,3,num_4,16,num_4,0.233572519501,,,2017_Sep_29_1234,60.0010777365,FEMA4ImagesEEG,001,101615,
AFNE01.JPG,AFNE01.JPG,AFNE01.JPG,AFNE01.JPG,AFNE01.JPG,AFNE01.JPG,,,,,,,,,5,3,53,1,,,,,,,,,,,,,,,AFSA04.jpg,AFSA13.jpg,AFNE06.jpg,AFNE02.jpg,AFNE02.jpg,FN,3,num_4,32,num_2,0.266701392131,,,2017_Sep_29_1234,60.0010777365,FEMA4ImagesEEG,001,101615,
AFNE01.JPG,AFNE01.JPG,AFNE01.JPG,AFNE01.JPG,AFNE01.JPG,AFNE01.JPG,,,,,,,,,5,4,54,3,,,,,,,,,,,,,,,AFNE05.jpg,AFSA08.jpg,AFSA15.jpg,AFNE14.jpg,AFSA15.jpg,FS,4,num_2,32,num_8,0.283511033747,,,2017_Sep_29_1234,60.0010777365,FEMA4ImagesEEG,001,101615,
AFNE01.JPG,AFNE01.JPG,AFNE01.JPG,AFNE01.JPG,AFNE01.JPG,AFNE01.JPG,,,,,,,,,5,5,55,4,,,,,,,,,,,,,,,AFNE03.jpg,AFNE13.jpg,AFSA09.jpg,AFSA15.jpg,AFSA15.jpg,FS,4,num_4,32,num_2,0.333697479684,,,2017_Sep_29_1234,60.0010777365,FEMA4ImagesEEG,001,101615,
AFNE01.JPG,AFNE01.JPG,AFNE01.JPG,AFNE01.JPG,AFNE01.JPG,AFNE01.JPG,,,,,,,,,5,6,56,8,,,,,,,,,,,,,,,AFNE17.jpg,AFNE01.jpg,AFSA09.jpg,AFSA15.jpg,AFNE01.jpg,FN,3,num_6,32,num_4,0.283508467837,,,2017_Sep_29_1234,60.0010777365,FEMA4ImagesEEG,001,101615,
AFNE01.JPG,AFNE01.JPG,AFNE01.JPG,AFNE01.JPG,AFNE01.JPG,AFNE01.JPG,,,,,,,,,5,7,57,7,,,,,,,,,,,,,,,AFNE05.jpg,AFSA18.jpg,AFNE02.jpg,AFSA12.jpg,AFSA12.jpg,FS,4,num_4,32,num_6,0.416831259499,,,2017_Sep_29_1234,60.0010777365,FEMA4ImagesEEG,001,101615,
AFNE01.JPG,AFNE01.JPG,AFNE01.JPG,AFNE01.JPG,AFNE01.JPG,AFNE01.JPG,,,,,,,,,5,8,58,0,,,,,,,,,,,,,,,AFNE12.jpg,AFSA10.jpg,AFNE06.jpg,AFSA07.jpg,AFSA10.jpg,FS,4,num_6,32,num_4,0.283478959813,,,2017_Sep_29_1234,60.0010777365,FEMA4ImagesEEG,001,101615,
AFNE01.JPG,AFNE01.JPG,AFNE01.JPG,AFNE01.JPG,AFNE01.JPG,AFNE01.JPG,,,,,,,,,5,9,59,2,,,,,,,,,,,,,,,AFNE10.jpg,AFSA06.jpg,AFSA14.jpg,AFNE06.jpg,AFNE06.jpg,FN,3,num_4,32,num_8,0.316809577518,,,2017_Sep_29_1234,60.0010777365,FEMA4ImagesEEG,001,101615,
,,,,,,,,,,,,,,,,,,,,,,,,,,,,,,,,,,,,,,,,,,,space,71.5777678062,2017_Sep_29_1234,60.0010777365,FEMA4ImagesEEG,001,101615,
AFNE01.JPG,AFNE01.JPG,AFNE01.JPG,AFNE01.JPG,AFNE01.JPG,AFNE01.JPG,,,,,,,,,,,,,0,0,0,6,,,,,,,,,,,AMSA11.jpg,AMSA12.jpg,AMNE06.jpg,AMNE20.jpg,AMSA11.jpg,MS,2,num_8,32,num_2,0.383491340443,,,2017_Sep_29_1234,60.0010777365,FEMA4ImagesEEG,001,101615,
AFNE01.JPG,AFNE01.JPG,AFNE01.JPG,AFNE01.JPG,AFNE01.JPG,AFNE01.JPG,,,,,,,,,,,,,0,1,1,3,,,,,,,,,,,AMNE03.jpg,AMSA05.jpg,AMNE20.jpg,AMSA14.jpg,AMSA14.jpg,MS,2,num_4,16,num_4,0.233492334723,,,2017_Sep_29_1234,60.0010777365,FEMA4ImagesEEG,001,101615,
AFNE01.JPG,AFNE01.JPG,AFNE01.JPG,AFNE01.JPG,AFNE01.JPG,AFNE01.JPG,,,,,,,,,,,,,0,2,2,7,,,,,,,,,,,AMSA03.jpg,AMSA17.jpg,AMNE02.jpg,AMNE15.jpg,AMNE15.jpg,MN,1,num_4,32,num_8,0.316791616031,,,2017_Sep_29_1234,60.0010777365,FEMA4ImagesEEG,001,101615,
AFNE01.JPG,AFNE01.JPG,AFNE01.JPG,AFNE01.JPG,AFNE01.JPG,AFNE01.JPG,,,,,,,,,,,,,0,3,3,9,,,,,,,,,,,AMSA04.jpg,AMSA06.jpg,AMNE10.jpg,AMNE07.jpg,AMSA04.jpg,MS,2,num_8,32,num_2,0.166802232619,,,2017_Sep_29_1234,60.0010777365,FEMA4ImagesEEG,001,101615,
AFNE01.JPG,AFNE01.JPG,AFNE01.JPG,AFNE01.JPG,AFNE01.JPG,AFNE01.JPG,,,,,,,,,,,,,0,4,4,1,,,,,,,,,,,AMNE06.jpg,AMSA03.jpg,AMSA10.jpg,AMNE16.jpg,AMSA03.jpg,MS,2,num_6,16,num_6,0.283563635079,,,2017_Sep_29_1234,60.0010777365,FEMA4ImagesEEG,001,101615,
AFNE01.JPG,AFNE01.JPG,AFNE01.JPG,AFNE01.JPG,AFNE01.JPG,AFNE01.JPG,,,,,,,,,,,,,0,5,5,2,,,,,,,,,,,AMNE16.jpg,AMSA15.jpg,AMNE19.jpg,AMSA11.jpg,AMSA11.jpg,MS,2,num_4,32,num_6,0.666466418188,,,2017_Sep_29_1234,60.0010777365,FEMA4ImagesEEG,001,101615,
AFNE01.JPG,AFNE01.JPG,AFNE01.JPG,AFNE01.JPG,AFNE01.JPG,AFNE01.JPG,,,,,,,,,,,,,0,6,6,0,,,,,,,,,,,AMSA03.jpg,AMSA20.jpg,AMNE19.jpg,AMNE17.jpg,AMSA03.jpg,MS,2,num_8,32,num_4,0.466807300225,,,2017_Sep_29_1234,60.0010777365,FEMA4ImagesEEG,001,101615,
AFNE01.JPG,AFNE01.JPG,AFNE01.JPG,AFNE01.JPG,AFNE01.JPG,AFNE01.JPG,,,,,,,,,,,,,0,7,7,8,,,,,,,,,,,AMSA12.jpg,AMSA13.jpg,AMNE04.jpg,AMNE15.jpg,AMSA13.jpg,MS,2,num_6,16,num_6,0.600157354842,,,2017_Sep_29_1234,60.0010777365,FEMA4ImagesEEG,001,101615,
AFNE01.JPG,AFNE01.JPG,AFNE01.JPG,AFNE01.JPG,AFNE01.JPG,AFNE01.JPG,,,,,,,,,,,,,0,8,8,5,,,,,,,,,,,AMNE06.jpg,AMNE07.jpg,AMSA17.jpg,AMSA12.jpg,AMSA12.jpg,MS,2,num_4,16,num_4,0.48352039943,,,2017_Sep_29_1234,60.0010777365,FEMA4ImagesEEG,001,101615,
AFNE01.JPG,AFNE01.JPG,AFNE01.JPG,AFNE01.JPG,AFNE01.JPG,AFNE01.JPG,,,,,,,,,,,,,0,9,9,4,,,,,,,,,,,AMSA07.jpg,AMSA04.jpg,AMNE19.jpg,AMNE18.jpg,AMNE18.jpg,MN,1,num_4,32,num_2,0.333511450794,,,2017_Sep_29_1234,60.0010777365,FEMA4ImagesEEG,001,101615,
AFNE01.JPG,AFNE01.JPG,AFNE01.JPG,AFNE01.JPG,AFNE01.JPG,AFNE01.JPG,,,,,,,,,,,,,1,0,10,7,,,,,,,,,,,AMNE14.jpg,AMNE09.jpg,AMSA07.jpg,AMSA10.jpg,AMSA07.jpg,MS,2,num_2,32,num_6,0.333647123538,,,2017_Sep_29_1234,60.0010777365,FEMA4ImagesEEG,001,101615,
AFNE01.JPG,AFNE01.JPG,AFNE01.JPG,AFNE01.JPG,AFNE01.JPG,AFNE01.JPG,,,,,,,,,,,,,1,1,11,6,,,,,,,,,,,AMSA10.jpg,AMNE11.jpg,AMNE04.jpg,AMSA09.jpg,AMNE04.jpg,MN,1,num_2,32,num_8,0.783483450185,,,2017_Sep_29_1234,60.0010777365,FEMA4ImagesEEG,001,101615,
AFNE01.JPG,AFNE01.JPG,AFNE01.JPG,AFNE01.JPG,AFNE01.JPG,AFNE01.JPG,,,,,,,,,,,,,1,2,12,2,,,,,,,,,,,AMNE19.jpg,AMNE01.jpg,AMSA17.jpg,AMSA12.jpg,AMSA17.jpg,MS,2,num_2,32,num_4,0.38335598819,,,2017_Sep_29_1234,60.0010777365,FEMA4ImagesEEG,001,101615,
AFNE01.JPG,AFNE01.JPG,AFNE01.JPG,AFNE01.JPG,AFNE01.JPG,AFNE01.JPG,,,,,,,,,,,,,1,3,13,1,,,,,,,,,,,AMSA20.jpg,AMNE12.jpg,AMNE01.jpg,AMSA02.jpg,AMNE12.jpg,MN,1,num_6,32,num_2,0.333527166978,,,2017_Sep_29_1234,60.0010777365,FEMA4ImagesEEG,001,101615,
AFNE01.JPG,AFNE01.JPG,AFNE01.JPG,AFNE01.JPG,AFNE01.JPG,AFNE01.JPG,,,,,,,,,,,,,1,4,14,9,,,,,,,,,,,AMSA09.jpg,AMSA11.jpg,AMNE14.jpg,AMNE05.jpg,AMSA09.jpg,MS,2,num_8,32,num_6,0.300173135241,,,2017_Sep_29_1234,60.0010777365,FEMA4ImagesEEG,001,101615,
AFNE01.JPG,AFNE01.JPG,AFNE01.JPG,AFNE01.JPG,AFNE01.JPG,AFNE01.JPG,,,,,,,,,,,,,1,5,15,8,,,,,,,,,,,AMSA18.jpg,AMNE02.jpg,AMNE11.jpg,AMSA16.jpg,AMSA16.jpg,MS,2,num_4,16,num_4,1.38344226719,,,2017_Sep_29_1234,60.0010777365,FEMA4ImagesEEG,001,101615,
AFNE01.JPG,AFNE01.JPG,AFNE01.JPG,AFNE01.JPG,AFNE01.JPG,AFNE01.JPG,,,,,,,,,,,,,1,6,16,5,,,,,,,,,,,AMSA11.jpg,AMNE18.jpg,AMSA15.jpg,AMNE14.jpg,AMSA15.jpg,MS,2,num_2,32,num_8,0.56680909649,,,2017_Sep_29_1234,60.0010777365,FEMA4ImagesEEG,001,101615,
AFNE01.JPG,AFNE01.JPG,AFNE01.JPG,AFNE01.JPG,AFNE01.JPG,AFNE01.JPG,,,,,,,,,,,,,1,7,17,4,,,,,,,,,,,AMSA09.jpg,AMNE15.jpg,AMSA06.jpg,AMNE17.jpg,AMSA06.jpg,MS,2,num_2,32,num_6,0.566809417098,,,2017_Sep_29_1234,60.0010777365,FEMA4ImagesEEG,001,101615,
AFNE01.JPG,AFNE01.JPG,AFNE01.JPG,AFNE01.JPG,AFNE01.JPG,AFNE01.JPG,,,,,,,,,,,,,1,8,18,3,,,,,,,,,,,AMSA12.jpg,AMNE20.jpg,AMSA07.jpg,AMNE13.jpg,AMNE20.jpg,MN,1,num_6,16,num_6,0.566830585944,,,2017_Sep_29_1234,60.0010777365,FEMA4ImagesEEG,001,101615,
AFNE01.JPG,AFNE01.JPG,AFNE01.JPG,AFNE01.JPG,AFNE01.JPG,AFNE01.JPG,,,,,,,,,,,,,1,9,19,0,,,,,,,,,,,AMSA02.jpg,AMNE17.jpg,AMSA01.jpg,AMNE15.jpg,AMSA02.jpg,MS,2,num_8,32,num_2,0.533516646712,,,2017_Sep_29_1234,60.0010777365,FEMA4ImagesEEG,001,101615,
AFNE01.JPG,AFNE01.JPG,AFNE01.JPG,AFNE01.JPG,AFNE01.JPG,AFNE01.JPG,,,,,,,,,,,,,2,0,20,9,,,,,,,,,,,AMNE13.jpg,AMNE11.jpg,AMSA02.jpg,AMSA19.jpg,AMNE13.jpg,MN,1,num_8,16,num_8,0.333503753063,,,2017_Sep_29_1234,60.0010777365,FEMA4ImagesEEG,001,101615,
AFNE01.JPG,AFNE01.JPG,AFNE01.JPG,AFNE01.JPG,AFNE01.JPG,AFNE01.JPG,,,,,,,,,,,,,2,1,21,1,,,,,,,,,,,AMSA15.jpg,AMNE10.jpg,AMNE17.jpg,AMSA04.jpg,AMSA04.jpg,MS,2,num_4,32,num_8,0.316818237538,,,2017_Sep_29_1234,60.0010777365,FEMA4ImagesEEG,001,101615,
AFNE01.JPG,AFNE01.JPG,AFNE01.JPG,AFNE01.JPG,AFNE01.JPG,AFNE01.JPG,,,,,,,,,,,,,2,2,22,2,,,,,,,,,,,AMNE16.jpg,AMSA20.jpg,AMNE19.jpg,AMSA11.jpg,AMNE16.jpg,MN,1,num_8,32,num_4,0.300174418255,,,2017_Sep_29_1234,60.0010777365,FEMA4ImagesEEG,001,101615,
AFNE01.JPG,AFNE01.JPG,AFNE01.JPG,AFNE01.JPG,AFNE01.JPG,AFNE01.JPG,,,,,,,,,,,,,2,3,23,5,,,,,,,,,,,AMNE06.jpg,AMSA02.jpg,AMSA03.jpg,AMNE04.jpg,AMSA03.jpg,MS,2,num_2,32,num_6,0.416712265112,,,2017_Sep_29_1234,60.0010777365,FEMA4ImagesEEG,001,101615,
AFNE01.JPG,AFNE01.JPG,AFNE01.JPG,AFNE01.JPG,AFNE01.JPG,AFNE01.JPG,,,,,,,,,,,,,2,4,24,4,,,,,,,,,,,AMSA05.jpg,AMSA13.jpg,AMNE05.jpg,AMNE11.jpg,AMNE05.jpg,MN,1,num_2,16,num_2,0.266788633191,,,2017_Sep_29_1234,60.0010777365,FEMA4ImagesEEG,001,101615,
AFNE01.JPG,AFNE01.JPG,AFNE01.JPG,AFNE01.JPG,AFNE01.JPG,AFNE01.JPG,,,,,,,,,,,,,2,5,25,3,,,,,,,,,,,AMNE01.jpg,AMSA14.jpg,AMNE12.jpg,AMSA07.jpg,AMSA07.jpg,MS,2,num_4,32,num_2,0.400149913621,,,2017_Sep_29_1234,60.0010777365,FEMA4ImagesEEG,001,101615,
AFNE01.JPG,AFNE01.JPG,AFNE01.JPG,AFNE01.JPG,AFNE01.JPG,AFNE01.JPG,,,,,,,,,,,,,2,6,26,6,,,,,,,,,,,AMSA16.jpg,AMNE01.jpg,AMNE15.jpg,AMSA06.jpg,AMSA06.jpg,MS,2,num_4,32,num_6,0.266863686265,,,2017_Sep_29_1234,60.0010777365,FEMA4ImagesEEG,001,101615,
AFNE01.JPG,AFNE01.JPG,AFNE01.JPG,AFNE01.JPG,AFNE01.JPG,AFNE01.JPG,,,,,,,,,,,,,2,7,27,7,,,,,,,,,,,AMNE04.jpg,AMNE02.jpg,AMSA14.jpg,AMSA16.jpg,AMSA16.jpg,MS,2,num_4,16,num_4,0.333458208013,,,2017_Sep_29_1234,60.0010777365,FEMA4ImagesEEG,001,101615,
AFNE01.JPG,AFNE01.JPG,AFNE01.JPG,AFNE01.JPG,AFNE01.JPG,AFNE01.JPG,,,,,,,,,,,,,2,8,28,0,,,,,,,,,,,AMSA08.jpg,AMSA09.jpg,AMNE11.jpg,AMNE17.jpg,AMNE11.jpg,MN,1,num_2,32,num_8,0.350160722621,,,2017_Sep_29_1234,60.0010777365,FEMA4ImagesEEG,001,101615,
AFNE01.JPG,AFNE01.JPG,AFNE01.JPG,AFNE01.JPG,AFNE01.JPG,AFNE01.JPG,,,,,,,,,,,,,2,9,29,8,,,,,,,,,,,AMNE12.jpg,AMNE16.jpg,AMSA17.jpg,AMSA02.jpg,AMNE16.jpg,MN,1,num_6,16,num_6,0.250228206278,,,2017_Sep_29_1234,60.0010777365,FEMA4ImagesEEG,001,101615,
AFNE01.JPG,AFNE01.JPG,AFNE01.JPG,AFNE01.JPG,AFNE01.JPG,AFNE01.JPG,,,,,,,,,,,,,3,0,30,4,,,,,,,,,,,AMSA04.jpg,AMSA03.jpg,AMNE16.jpg,AMNE18.jpg,AMNE18.jpg,MN,1,num_4,32,num_2,0.433519340935,,,2017_Sep_29_1234,60.0010777365,FEMA4ImagesEEG,001,101615,
AFNE01.JPG,AFNE01.JPG,AFNE01.JPG,AFNE01.JPG,AFNE01.JPG,AFNE01.JPG,,,,,,,,,,,,,3,1,31,0,,,,,,,,,,,AMNE15.jpg,AMNE11.jpg,AMSA11.jpg,AMSA01.jpg,AMSA01.jpg,MS,2,num_4,16,num_4,0.550115883234,,,2017_Sep_29_1234,60.0010777365,FEMA4ImagesEEG,001,101615,
AFNE01.JPG,AFNE01.JPG,AFNE01.JPG,AFNE01.JPG,AFNE01.JPG,AFNE01.JPG,,,,,,,,,,,,,3,2,32,3,,,,,,,,,,,AMSA10.jpg,AMNE02.jpg,AMSA17.jpg,AMNE18.jpg,AMNE02.jpg,MN,1,num_6,32,num_8,0.383497434319,,,2017_Sep_29_1234,60.0010777365,FEMA4ImagesEEG,001,101615,
AFNE01.JPG,AFNE01.JPG,AFNE01.JPG,AFNE01.JPG,AFNE01.JPG,AFNE01.JPG,,,,,,,,,,,,,3,3,33,6,,,,,,,,,,,AMSA13.jpg,AMSA08.jpg,AMNE08.jpg,AMNE17.jpg,AMNE17.jpg,MN,1,num_4,32,num_8,0.35016040178,,,2017_Sep_29_1234,60.0010777365,FEMA4ImagesEEG,001,101615,
AFNE01.JPG,AFNE01.JPG,AFNE01.JPG,AFNE01.JPG,AFNE01.JPG,AFNE01.JPG,,,,,,,,,,,,,3,4,34,5,,,,,,,,,,,AMNE08.jpg,AMNE18.jpg,AMSA11.jpg,AMSA10.jpg,AMSA10.jpg,MS,2,num_4,16,num_4,0.366825710749,,,2017_Sep_29_1234,60.0010777365,FEMA4ImagesEEG,001,101615,
AFNE01.JPG,AFNE01.JPG,AFNE01.JPG,AFNE01.JPG,AFNE01.JPG,AFNE01.JPG,,,,,,,,,,,,,3,5,35,8,,,,,,,,,,,AMSA09.jpg,AMNE14.jpg,AMNE11.jpg,AMSA01.jpg,AMNE14.jpg,MN,1,num_6,32,num_2,0.26685919601,,,2017_Sep_29_1234,60.0010777365,FEMA4ImagesEEG,001,101615,
AFNE01.JPG,AFNE01.JPG,AFNE01.JPG,AFNE01.JPG,AFNE01.JPG,AFNE01.JPG,,,,,,,,,,,,,3,6,36,1,,,,,,,,,,,AMSA15.jpg,AMNE05.jpg,AMNE09.jpg,AMSA04.jpg,AMSA04.jpg,MS,2,num_4,16,num_4,0.43350619066,,,2017_Sep_29_1234,60.0010777365,FEMA4ImagesEEG,001,101615,
AFNE01.JPG,AFNE01.JPG,AFNE01.JPG,AFNE01.JPG,AFNE01.JPG,AFNE01.JPG,,,,,,,,,,,,,3,7,37,9,,,,,,,,,,,AMSA04.jpg,AMNE14.jpg,AMSA10.jpg,AMNE17.jpg,AMSA10.jpg,MS,2,num_2,32,num_4,0.300145551562,,,2017_Sep_29_1234,60.0010777365,FEMA4ImagesEEG,001,101615,
AFNE01.JPG,AFNE01.JPG,AFNE01.JPG,AFNE01.JPG,AFNE01.JPG,AFNE01.JPG,,,,,,,,,,,,,3,8,38,2,,,,,,,,,,,AMSA13.jpg,AMSA05.jpg,AMNE06.jpg,AMNE03.jpg,AMNE06.jpg,MN,1,num_2,32,num_4,0.466773301829,,,2017_Sep_29_1234,60.0010777365,FEMA4ImagesEEG,001,101615,
AFNE01.JPG,AFNE01.JPG,AFNE01.JPG,AFNE01.JPG,AFNE01.JPG,AFNE01.JPG,,,,,,,,,,,,,3,9,39,7,,,,,,,,,,,AMNE18.jpg,AMSA14.jpg,AMSA16.jpg,AMNE09.jpg,AMNE09.jpg,MN,1,num_4,32,num_2,0.316790333134,,,2017_Sep_29_1234,60.0010777365,FEMA4ImagesEEG,001,101615,
AFNE01.JPG,AFNE01.JPG,AFNE01.JPG,AFNE01.JPG,AFNE01.JPG,AFNE01.JPG,,,,,,,,,,,,,4,0,40,9,,,,,,,,,,,AMSA12.jpg,AMNE19.jpg,AMSA04.jpg,AMNE04.jpg,AMNE19.jpg,MN,1,num_6,16,num_6,0.383503207704,,,2017_Sep_29_1234,60.0010777365,FEMA4ImagesEEG,001,101615,
AFNE01.JPG,AFNE01.JPG,AFNE01.JPG,AFNE01.JPG,AFNE01.JPG,AFNE01.JPG,,,,,,,,,,,,,4,1,41,0,,,,,,,,,,,AMNE06.jpg,AMSA03.jpg,AMNE19.jpg,AMSA10.jpg,AMNE19.jpg,MN,1,num_2,32,num_4,0.483528417768,,,2017_Sep_29_1234,60.0010777365,FEMA4ImagesEEG,001,101615,
AFNE01.JPG,AFNE01.JPG,AFNE01.JPG,AFNE01.JPG,AFNE01.JPG,AFNE01.JPG,,,,,,,,,,,,,4,2,42,2,,,,,,,,,,,AMSA05.jpg,AMSA06.jpg,AMNE20.jpg,AMNE04.jpg,AMSA05.jpg,MS,2,num_8,32,num_2,0.516774039599,,,2017_Sep_29_1234,60.0010777365,FEMA4ImagesEEG,001,101615,
AFNE01.JPG,AFNE01.JPG,AFNE01.JPG,AFNE01.JPG,AFNE01.JPG,AFNE01.JPG,,,,,,,,,,,,,4,3,43,8,,,,,,,,,,,AMNE17.jpg,AMSA18.jpg,AMNE14.jpg,AMSA15.jpg,AMSA18.jpg,MS,2,num_6,32,num_8,1.30011155328,,,2017_Sep_29_1234,60.0010777365,FEMA4ImagesEEG,001,101615,
AFNE01.JPG,AFNE01.JPG,AFNE01.JPG,AFNE01.JPG,AFNE01.JPG,AFNE01.JPG,,,,,,,,,,,,,4,4,44,3,,,,,,,,,,,AMNE18.jpg,AMSA11.jpg,AMSA02.jpg,AMNE04.jpg,AMSA11.jpg,MS,2,num_6,16,num_6,0.333500545588,,,2017_Sep_29_1234,60.0010777365,FEMA4ImagesEEG,001,101615,
AFNE01.JPG,AFNE01.JPG,AFNE01.JPG,AFNE01.JPG,AFNE01.JPG,AFNE01.JPG,,,,,,,,,,,,,4,5,45,1,,,,,,,,,,,AMSA09.jpg,AMSA19.jpg,AMNE08.jpg,AMNE16.jpg,AMNE16.jpg,MN,1,num_4,16,num_4,0.316815671627,,,2017_Sep_29_1234,60.0010777365,FEMA4ImagesEEG,001,101615,
AFNE01.JPG,AFNE01.JPG,AFNE01.JPG,AFNE01.JPG,AFNE01.JPG,AFNE01.JPG,,,,,,,,,,,,,4,6,46,6,,,,,,,,,,,AMNE13.jpg,AMNE09.jpg,AMSA13.jpg,AMSA03.jpg,AMNE13.jpg,MN,1,num_8,32,num_4,0.450195554993,,,2017_Sep_29_1234,60.0010777365,FEMA4ImagesEEG,001,101615,
AFNE01.JPG,AFNE01.JPG,AFNE01.JPG,AFNE01.JPG,AFNE01.JPG,AFNE01.JPG,,,,,,,,,,,,,4,7,47,5,,,,,,,,,,,AMNE10.jpg,AMSA17.jpg,AMNE11.jpg,AMSA18.jpg,AMSA17.jpg,MS,2,num_6,32,num_2,0.183551896014,,,2017_Sep_29_1234,60.0010777365,FEMA4ImagesEEG,001,101615,
AFNE01.JPG,AFNE01.JPG,AFNE01.JPG,AFNE01.JPG,AFNE01.JPG,AFNE01.JPG,,,,,,,,,,,,,4,8,48,4,,,,,,,,,,,AMSA11.jpg,AMNE11.jpg,AMNE06.jpg,AMSA16.jpg,AMSA16.jpg,MS,2,num_4,32,num_8,0.383187599946,,,2017_Sep_29_1234,60.0010777365,FEMA4ImagesEEG,001,101615,
AFNE01.JPG,AFNE01.JPG,AFNE01.JPG,AFNE01.JPG,AFNE01.JPG,AFNE01.JPG,,,,,,,,,,,,,4,9,49,7,,,,,,,,,,,AMNE09.jpg,AMSA10.jpg,AMSA14.jpg,AMNE08.jpg,AMNE08.jpg,MN,1,num_4,32,num_6,0.400172044756,,,2017_Sep_29_1234,60.0010777365,FEMA4ImagesEEG,001,101615,
AFNE01.JPG,AFNE01.JPG,AFNE01.JPG,AFNE01.JPG,AFNE01.JPG,AFNE01.JPG,,,,,,,,,,,,,5,0,50,8,,,,,,,,,,,AMSA01.jpg,AMNE01.jpg,AMNE04.jpg,AMSA10.jpg,AMSA10.jpg,MS,2,num_4,16,num_4,0.416818429949,,,2017_Sep_29_1234,60.0010777365,FEMA4ImagesEEG,001,101615,
AFNE01.JPG,AFNE01.JPG,AFNE01.JPG,AFNE01.JPG,AFNE01.JPG,AFNE01.JPG,,,,,,,,,,,,,5,1,51,4,,,,,,,,,,,AMSA06.jpg,AMSA16.jpg,AMNE11.jpg,AMNE05.jpg,AMSA06.jpg,MS,2,num_8,32,num_4,0.966643081512,,,2017_Sep_29_1234,60.0010777365,FEMA4ImagesEEG,001,101615,
AFNE01.JPG,AFNE01.JPG,AFNE01.JPG,AFNE01.JPG,AFNE01.JPG,AFNE01.JPG,,,,,,,,,,,,,5,2,52,7,,,,,,,,,,,AMSA16.jpg,AMNE15.jpg,AMNE09.jpg,AMSA13.jpg,AMNE09.jpg,MN,1,num_2,32,num_4,0.283476714627,,,2017_Sep_29_1234,60.0010777365,FEMA4ImagesEEG,001,101615,
AFNE01.JPG,AFNE01.JPG,AFNE01.JPG,AFNE01.JPG,AFNE01.JPG,AFNE01.JPG,,,,,,,,,,,,,5,3,53,5,,,,,,,,,,,AMSA15.jpg,AMSA06.jpg,AMNE16.jpg,AMNE15.jpg,AMNE15.jpg,MN,1,num_4,16,num_4,0.366816730006,,,2017_Sep_29_1234,60.0010777365,FEMA4ImagesEEG,001,101615,
AFNE01.JPG,AFNE01.JPG,AFNE01.JPG,AFNE01.JPG,AFNE01.JPG,AFNE01.JPG,,,,,,,,,,,,,5,4,54,6,,,,,,,,,,,AMSA04.jpg,AMNE04.jpg,AMNE08.jpg,AMSA05.jpg,AMSA05.jpg,MS,2,num_4,32,num_2,0.333507281146,,,2017_Sep_29_1234,60.0010777365,FEMA4ImagesEEG,001,101615,
AFNE01.JPG,AFNE01.JPG,AFNE01.JPG,AFNE01.JPG,AFNE01.JPG,AFNE01.JPG,,,,,,,,,,,,,5,5,55,3,,,,,,,,,,,AMNE09.jpg,AMSA13.jpg,AMSA09.jpg,AMNE19.jpg,AMSA09.jpg,MS,2,num_2,32,num_8,0.383516678819,,,2017_Sep_29_1234,60.0010777365,FEMA4ImagesEEG,001,101615,
AFNE01.JPG,AFNE01.JPG,AFNE01.JPG,AFNE01.JPG,AFNE01.JPG,AFNE01.JPG,,,,,,,,,,,,,5,6,56,0,,,,,,,,,,,AMSA10.jpg,AMNE09.jpg,AMNE05.jpg,AMSA03.jpg,AMNE05.jpg,MN,1,num_2,32,num_4,0.300183078158,,,2017_Sep_29_1234,60.0010777365,FEMA4ImagesEEG,001,101615,
AFNE01.JPG,AFNE01.JPG,AFNE01.JPG,AFNE01.JPG,AFNE01.JPG,AFNE01.JPG,,,,,,,,,,,,,5,7,57,2,,,,,,,,,,,AMNE16.jpg,AMSA20.jpg,AMNE11.jpg,AMSA16.jpg,AMSA20.jpg,MS,2,num_6,32,num_2,0.416820675135,,,2017_Sep_29_1234,60.0010777365,FEMA4ImagesEEG,001,101615,
AFNE01.JPG,AFNE01.JPG,AFNE01.JPG,AFNE01.JPG,AFNE01.JPG,AFNE01.JPG,,,,,,,,,,,,,5,8,58,1,,,,,,,,,,,AMNE03.jpg,AMNE18.jpg,AMSA10.jpg,AMSA15.jpg,AMNE18.jpg,MN,1,num_6,16,num_6,0.300176663324,,,2017_Sep_29_1234,60.0010777365,FEMA4ImagesEEG,001,101615,
AFNE01.JPG,AFNE01.JPG,AFNE01.JPG,AFNE01.JPG,AFNE01.JPG,AFNE01.JPG,,,,,,,,,,,,,5,9,59,9,,,,,,,,,,,AMSA02.jpg,AMSA13.jpg,AMNE08.jpg,AMNE03.jpg,AMSA02.jpg,MS,2,num_8,16,num_8,0.416668323916,,,2017_Sep_29_1234,60.0010777365,FEMA4ImagesEEG,001,101615,
,,,,,,,,,,,,,,,,,,,,,,,,,,,,,,,,,,,,,,,,,,,space,72.6611472728,2017_Sep_29_1234,60.0010777365,FEMA4ImagesEEG,001,101615,
AFNE01.JPG,AFNE01.JPG,AFNE01.JPG,AFNE01.JPG,AFNE01.JPG,AFNE01.JPG,,,,,,,,,,,,,,,,,0,0,0,4,,,,,,,AFNE01.jpg,AFSA13.jpg,AFNE16.jpg,AFSA03.jpg,AFNE01.jpg,FN,3,num_8,32,num_6,0.400162101723,,,2017_Sep_29_1234,60.0010777365,FEMA4ImagesEEG,001,101615,
AFNE01.JPG,AFNE01.JPG,AFNE01.JPG,AFNE01.JPG,AFNE01.JPG,AFNE01.JPG,,,,,,,,,,,,,,,,,0,1,1,3,,,,,,,AFSA20.jpg,AFNE05.jpg,AFSA09.jpg,AFNE11.jpg,AFSA20.jpg,FS,4,num_8,32,num_4,0.316826897557,,,2017_Sep_29_1234,60.0010777365,FEMA4ImagesEEG,001,101615,
AFNE01.JPG,AFNE01.JPG,AFNE01.JPG,AFNE01.JPG,AFNE01.JPG,AFNE01.JPG,,,,,,,,,,,,,,,,,0,2,2,2,,,,,,,AFSA10.jpg,AFSA03.jpg,AFNE20.jpg,AFNE02.jpg,AFSA10.jpg,FS,4,num_8,32,num_2,0.333477452281,,,2017_Sep_29_1234,60.0010777365,FEMA4ImagesEEG,001,101615,
AFNE01.JPG,AFNE01.JPG,AFNE01.JPG,AFNE01.JPG,AFNE01.JPG,AFNE01.JPG,,,,,,,,,,,,,,,,,0,3,3,5,,,,,,,AFSA12.jpg,AFNE19.jpg,AFNE18.jpg,AFSA01.jpg,AFNE19.jpg,FN,3,num_6,32,num_8,0.400136121898,,,2017_Sep_29_1234,60.0010777365,FEMA4ImagesEEG,001,101615,
AFNE01.JPG,AFNE01.JPG,AFNE01.JPG,AFNE01.JPG,AFNE01.JPG,AFNE01.JPG,,,,,,,,,,,,,,,,,0,4,4,1,,,,,,,AFSA14.jpg,AFNE07.jpg,AFSA19.jpg,AFNE02.jpg,AFSA19.jpg,FS,4,num_2,16,num_2,0.300173135241,,,2017_Sep_29_1234,60.0010777365,FEMA4ImagesEEG,001,101615,
AFNE01.JPG,AFNE01.JPG,AFNE01.JPG,AFNE01.JPG,AFNE01.JPG,AFNE01.JPG,,,,,,,,,,,,,,,,,0,5,5,7,,,,,,,AFNE17.jpg,AFSA14.jpg,AFNE09.jpg,AFSA15.jpg,AFNE09.jpg,FN,3,num_2,32,num_6,0.350144685595,,,2017_Sep_29_1234,60.0010777365,FEMA4ImagesEEG,001,101615,
AFNE01.JPG,AFNE01.JPG,AFNE01.JPG,AFNE01.JPG,AFNE01.JPG,AFNE01.JPG,,,,,,,,,,,,,,,,,0,6,6,6,,,,,,,AFNE14.jpg,AFSA13.jpg,AFSA06.jpg,AFNE06.jpg,AFNE06.jpg,FN,3,num_4,16,num_4,0.366846879595,,,2017_Sep_29_1234,60.0010777365,FEMA4ImagesEEG,001,101615,
AFNE01.JPG,AFNE01.JPG,AFNE01.JPG,AFNE01.JPG,AFNE01.JPG,AFNE01.JPG,,,,,,,,,,,,,,,,,0,7,7,9,,,,,,,AFSA10.jpg,AFNE13.jpg,AFNE02.jpg,AFSA09.jpg,AFNE13.jpg,FN,3,num_6,32,num_4,1.15011703793,,,2017_Sep_29_1234,60.0010777365,FEMA4ImagesEEG,001,101615,
AFNE01.JPG,AFNE01.JPG,AFNE01.JPG,AFNE01.JPG,AFNE01.JPG,AFNE01.JPG,,,,,,,,,,,,,,,,,0,8,8,8,,,,,,,AFNE04.jpg,AFSA09.jpg,AFSA01.jpg,AFNE11.jpg,AFNE04.jpg,FN,3,num_8,16,num_8,0.350163929979,,,2017_Sep_29_1234,60.0010777365,FEMA4ImagesEEG,001,101615,
AFNE01.JPG,AFNE01.JPG,AFNE01.JPG,AFNE01.JPG,AFNE01.JPG,AFNE01.JPG,,,,,,,,,,,,,,,,,0,9,9,0,,,,,,,AFSA19.jpg,AFSA04.jpg,AFNE12.jpg,AFNE20.jpg,AFSA19.jpg,FS,4,num_8,32,num_2,0.766796331038,,,2017_Sep_29_1234,60.0010777365,FEMA4ImagesEEG,001,101615,
AFNE01.JPG,AFNE01.JPG,AFNE01.JPG,AFNE01.JPG,AFNE01.JPG,AFNE01.JPG,,,,,,,,,,,,,,,,,1,0,10,9,,,,,,,AFNE13.jpg,AFSA19.jpg,AFNE11.jpg,AFSA18.jpg,AFSA19.jpg,FS,4,num_6,32,num_4,0.400302585796,,,2017_Sep_29_1234,60.0010777365,FEMA4ImagesEEG,001,101615,
AFNE01.JPG,AFNE01.JPG,AFNE01.JPG,AFNE01.JPG,AFNE01.JPG,AFNE01.JPG,,,,,,,,,,,,,,,,,1,1,11,3,,,,,,,AFSA08.jpg,AFSA10.jpg,AFNE12.jpg,AFNE07.jpg,AFSA10.jpg,FS,4,num_6,32,num_8,0.350155590801,,,2017_Sep_29_1234,60.0010777365,FEMA4ImagesEEG,001,101615,
AFNE01.JPG,AFNE01.JPG,AFNE01.JPG,AFNE01.JPG,AFNE01.JPG,AFNE01.JPG,,,,,,,,,,,,,,,,,1,2,12,6,,,,,,,AFNE10.jpg,AFSA14.jpg,AFSA10.jpg,AFNE02.jpg,AFNE10.jpg,FN,3,num_8,32,num_6,0.583476008964,,,2017_Sep_29_1234,60.0010777365,FEMA4ImagesEEG,001,101615,
AFNE01.JPG,AFNE01.JPG,AFNE01.JPG,AFNE01.JPG,AFNE01.JPG,AFNE01.JPG,,,,,,,,,,,,,,,,,1,3,13,0,,,,,,,AFNE17.jpg,AFSA18.jpg,AFNE12.jpg,AFSA03.jpg,AFNE12.jpg,FN,3,num_2,32,num_8,0.950147764757,,,2017_Sep_29_1234,60.0010777365,FEMA4ImagesEEG,001,101615,
AFNE01.JPG,AFNE01.JPG,AFNE01.JPG,AFNE01.JPG,AFNE01.JPG,AFNE01.JPG,,,,,,,,,,,,,,,,,1,4,14,2,,,,,,,AFSA01.jpg,AFNE13.jpg,AFNE10.jpg,AFSA18.jpg,AFSA18.jpg,FS,4,num_4,16,num_4,0.583443614305,,,2017_Sep_29_1234,60.0010777365,FEMA4ImagesEEG,001,101615,
AFNE01.JPG,AFNE01.JPG,AFNE01.JPG,AFNE01.JPG,AFNE01.JPG,AFNE01.JPG,,,,,,,,,,,,,,,,,1,5,15,5,,,,,,,AFSA01.jpg,AFNE16.jpg,AFNE12.jpg,AFSA18.jpg,AFNE12.jpg,FN,3,num_2,32,num_6,0.966745397542,,,2017_Sep_29_1234,60.0010777365,FEMA4ImagesEEG,001,101615,
AFNE01.JPG,AFNE01.JPG,AFNE01.JPG,AFNE01.JPG,AFNE01.JPG,AFNE01.JPG,,,,,,,,,,,,,,,,,1,6,16,7,,,,,,,AFSA06.jpg,AFSA08.jpg,AFNE01.jpg,AFNE08.jpg,AFSA08.jpg,FS,4,num_6,16,num_6,1.2334471104,,,2017_Sep_29_1234,60.0010777365,FEMA4ImagesEEG,001,101615,
AFNE01.JPG,AFNE01.JPG,AFNE01.JPG,AFNE01.JPG,AFNE01.JPG,AFNE01.JPG,,,,,,,,,,,,,,,,,1,7,17,1,,,,,,,AFSA02.jpg,AFNE20.jpg,AFNE03.jpg,AFSA14.jpg,AFSA02.jpg,FS,4,num_8,32,num_2,0.500195330358,,,2017_Sep_29_1234,60.0010777365,FEMA4ImagesEEG,001,101615,
AFNE01.JPG,AFNE01.JPG,AFNE01.JPG,AFNE01.JPG,AFNE01.JPG,AFNE01.JPG,,,,,,,,,,,,,,,,,1,8,18,4,,,,,,,AFNE06.jpg,AFNE10.jpg,AFSA12.jpg,AFSA04.jpg,AFSA12.jpg,FS,4,num_2,32,num_8,0.450146481744,,,2017_Sep_29_1234,60.0010777365,FEMA4ImagesEEG,001,101615,
AFNE01.JPG,AFNE01.JPG,AFNE01.JPG,AFNE01.JPG,AFNE01.JPG,AFNE01.JPG,,,,,,,,,,,,,,,,,1,9,19,8,,,,,,,AFNE11.jpg,AFSA01.jpg,AFNE14.jpg,AFSA13.jpg,AFSA13.jpg,FS,4,num_4,32,num_6,0.416812977404,,,2017_Sep_29_1234,60.0010777365,FEMA4ImagesEEG,001,101615,
AFNE01.JPG,AFNE01.JPG,AFNE01.JPG,AFNE01.JPG,AFNE01.JPG,AFNE01.JPG,,,,,,,,,,,,,,,,,2,0,20,3,,,,,,,AFNE20.jpg,AFNE05.jpg,AFSA06.jpg,AFSA16.jpg,AFNE20.jpg,FN,3,num_8,16,num_8,0.366808711551,,,2017_Sep_29_1234,60.0010777365,FEMA4ImagesEEG,001,101615,
AFNE01.JPG,AFNE01.JPG,AFNE01.JPG,AFNE01.JPG,AFNE01.JPG,AFNE01.JPG,,,,,,,,,,,,,,,,,2,1,21,8,,,,,,,AFNE14.jpg,AFSA11.jpg,AFSA10.jpg,AFNE11.jpg,AFSA10.jpg,FS,4,num_2,32,num_4,1.30013464647,,,2017_Sep_29_1234,60.0010777365,FEMA4ImagesEEG,001,101615,
AFNE01.JPG,AFNE01.JPG,AFNE01.JPG,AFNE01.JPG,AFNE01.JPG,AFNE01.JPG,,,,,,,,,,,,,,,,,2,2,22,9,,,,,,,AFSA05.jpg,AFSA02.jpg,AFNE13.jpg,AFNE05.jpg,AFNE05.jpg,FN,3,num_4,32,num_2,0.283539579483,,,2017_Sep_29_1234,60.0010777365,FEMA4ImagesEEG,001,101615,
AFNE01.JPG,AFNE01.JPG,AFNE01.JPG,AFNE01.JPG,AFNE01.JPG,AFNE01.JPG,,,,,,,,,,,,,,,,,2,3,23,6,,,,,,,AFNE08.jpg,AFSA19.jpg,AFNE12.jpg,AFSA08.jpg,AFSA19.jpg,FS,4,num_6,32,num_8,0.300229585497,,,2017_Sep_29_1234,60.0010777365,FEMA4ImagesEEG,001,101615,
AFNE01.JPG,AFNE01.JPG,AFNE01.JPG,AFNE01.JPG,AFNE01.JPG,AFNE01.JPG,,,,,,,,,,,,,,,,,2,4,24,5,,,,,,,AFNE19.jpg,AFSA11.jpg,AFNE14.jpg,AFSA16.jpg,AFNE19.jpg,FN,3,num_8,32,num_6,0.233557444881,,,2017_Sep_29_1234,60.0010777365,FEMA4ImagesEEG,001,101615,
AFNE01.JPG,AFNE01.JPG,AFNE01.JPG,AFNE01.JPG,AFNE01.JPG,AFNE01.JPG,,,,,,,,,,,,,,,,,2,5,25,0,,,,,,,AFNE14.jpg,AFSA17.jpg,AFNE15.jpg,AFSA18.jpg,AFNE14.jpg,FN,3,num_8,32,num_2,0.366769902059,,,2017_Sep_29_1234,60.0010777365,FEMA4ImagesEEG,001,101615,
AFNE01.JPG,AFNE01.JPG,AFNE01.JPG,AFNE01.JPG,AFNE01.JPG,AFNE01.JPG,,,,,,,,,,,,,,,,,2,6,26,4,,,,,,,AFSA12.jpg,AFNE20.jpg,AFSA17.jpg,AFNE15.jpg,AFSA12.jpg,FS,4,num_8,32,num_4,0.283507505665,,,2017_Sep_29_1234,60.0010777365,FEMA4ImagesEEG,001,101615,
AFNE01.JPG,AFNE01.JPG,AFNE01.JPG,AFNE01.JPG,AFNE01.JPG,AFNE01.JPG,,,,,,,,,,,,,,,,,2,7,27,1,,,,,,,AFSA06.jpg,AFSA05.jpg,AFNE14.jpg,AFNE13.jpg,AFNE13.jpg,FN,3,num_4,32,num_2,0.650159054785,,,2017_Sep_29_1234,60.0010777365,FEMA4ImagesEEG,001,101615,
AFNE01.JPG,AFNE01.JPG,AFNE01.JPG,AFNE01.JPG,AFNE01.JPG,AFNE01.JPG,,,,,,,,,,,,,,,,,2,8,28,2,,,,,,,AFSA15.jpg,AFSA18.jpg,AFNE01.jpg,AFNE16.jpg,AFSA18.jpg,FS,4,num_6,32,num_8,0.366794598987,,,2017_Sep_29_1234,60.0010777365,FEMA4ImagesEEG,001,101615,
AFNE01.JPG,AFNE01.JPG,AFNE01.JPG,AFNE01.JPG,AFNE01.JPG,AFNE01.JPG,,,,,,,,,,,,,,,,,2,9,29,7,,,,,,,AFSA11.jpg,AFSA19.jpg,AFNE11.jpg,AFNE15.jpg,AFNE11.jpg,FN,3,num_2,32,num_6,0.700186093105,,,2017_Sep_29_1234,60.0010777365,FEMA4ImagesEEG,001,101615,
AFNE01.JPG,AFNE01.JPG,AFNE01.JPG,AFNE01.JPG,AFNE01.JPG,AFNE01.JPG,,,,,,,,,,,,,,,,,3,0,30,3,,,,,,,AFNE08.jpg,AFSA09.jpg,AFSA17.jpg,AFNE13.jpg,AFSA17.jpg,FS,4,num_2,32,num_4,0.283499807818,,,2017_Sep_29_1234,60.0010777365,FEMA4ImagesEEG,001,101615,
AFNE01.JPG,AFNE01.JPG,AFNE01.JPG,AFNE01.JPG,AFNE01.JPG,AFNE01.JPG,,,,,,,,,,,,,,,,,3,1,31,2,,,,,,,AFNE13.jpg,AFSA16.jpg,AFSA11.jpg,AFNE02.jpg,AFSA11.jpg,FS,4,num_2,32,num_6,0.366808070103,,,2017_Sep_29_1234,60.0010777365,FEMA4ImagesEEG,001,101615,
AFNE01.JPG,AFNE01.JPG,AFNE01.JPG,AFNE01.JPG,AFNE01.JPG,AFNE01.JPG,,,,,,,,,,,,,,,,,3,2,32,6,,,,,,,AFNE07.jpg,AFSA08.jpg,AFNE20.jpg,AFSA15.jpg,AFNE20.jpg,FN,3,num_2,32,num_8,0.316828501178,,,2017_Sep_29_1234,60.0010777365,FEMA4ImagesEEG,001,101615,
AFNE01.JPG,AFNE01.JPG,AFNE01.JPG,AFNE01.JPG,AFNE01.JPG,AFNE01.JPG,,,,,,,,,,,,,,,,,3,3,33,0,,,,,,,AFSA16.jpg,AFNE18.jpg,AFNE04.jpg,AFSA14.jpg,AFSA16.jpg,FS,4,num_8,32,num_2,0.333523638779,,,2017_Sep_29_1234,60.0010777365,FEMA4ImagesEEG,001,101615,
AFNE01.JPG,AFNE01.JPG,AFNE01.JPG,AFNE01.JPG,AFNE01.JPG,AFNE01.JPG,,,,,,,,,,,,,,,,,3,4,34,5,,,,,,,AFSA05.jpg,AFSA15.jpg,AFNE07.jpg,AFNE05.jpg,AFNE07.jpg,FN,3,num_2,32,num_4,0.400171082583,,,2017_Sep_29_1234,60.0010777365,FEMA4ImagesEEG,001,101615,
AFNE01.JPG,AFNE01.JPG,AFNE01.JPG,AFNE01.JPG,AFNE01.JPG,AFNE01.JPG,,,,,,,,,,,,,,,,,3,5,35,9,,,,,,,AFNE20.jpg,AFSA20.jpg,AFNE16.jpg,AFSA18.jpg,AFSA20.jpg,FS,4,num_6,16,num_6,0.350716243614,,,2017_Sep_29_1234,60.0010777365,FEMA4ImagesEEG,001,101615,
AFNE01.JPG,AFNE01.JPG,AFNE01.JPG,AFNE01.JPG,AFNE01.JPG,AFNE01.JPG,,,,,,,,,,,,,,,,,3,6,36,8,,,,,,,AFNE11.jpg,AFSA15.jpg,AFSA18.jpg,AFNE06.jpg,AFSA18.jpg,FS,4,num_2,32,num_8,0.500176727539,,,2017_Sep_29_1234,60.0010777365,FEMA4ImagesEEG,001,101615,
AFNE01.JPG,AFNE01.JPG,AFNE01.JPG,AFNE01.JPG,AFNE01.JPG,AFNE01.JPG,,,,,,,,,,,,,,,,,3,7,37,7,,,,,,,AFSA14.jpg,AFNE08.jpg,AFSA12.jpg,AFNE09.jpg,AFNE09.jpg,FN,3,num_4,32,num_2,0.400189685402,,,2017_Sep_29_1234,60.0010777365,FEMA4ImagesEEG,001,101615,
AFNE01.JPG,AFNE01.JPG,AFNE01.JPG,AFNE01.JPG,AFNE01.JPG,AFNE01.JPG,,,,,,,,,,,,,,,,,3,8,38,1,,,,,,,AFNE18.jpg,AFSA07.jpg,AFSA05.jpg,AFNE15.jpg,AFNE18.jpg,FN,3,num_8,32,num_4,0.333496375941,,,2017_Sep_29_1234,60.0010777365,FEMA4ImagesEEG,001,101615,
AFNE01.JPG,AFNE01.JPG,AFNE01.JPG,AFNE01.JPG,AFNE01.JPG,AFNE01.JPG,,,,,,,,,,,,,,,,,3,9,39,4,,,,,,,AFNE02.jpg,AFSA01.jpg,AFNE20.jpg,AFSA03.jpg,AFSA03.jpg,FS,4,num_4,32,num_8,0.450164763955,,,2017_Sep_29_1234,60.0010777365,FEMA4ImagesEEG,001,101615,
AFNE01.JPG,AFNE01.JPG,AFNE01.JPG,AFNE01.JPG,AFNE01.JPG,AFNE01.JPG,,,,,,,,,,,,,,,,,4,0,40,3,,,,,,,AFNE17.jpg,AFSA14.jpg,AFNE09.jpg,AFSA12.jpg,AFNE17.jpg,FN,3,num_8,32,num_6,0.300174097531,,,2017_Sep_29_1234,60.0010777365,FEMA4ImagesEEG,001,101615,
AFNE01.JPG,AFNE01.JPG,AFNE01.JPG,AFNE01.JPG,AFNE01.JPG,AFNE01.JPG,,,,,,,,,,,,,,,,,4,1,41,0,,,,,,,AFSA19.jpg,AFSA20.jpg,AFNE14.jpg,AFNE06.jpg,AFSA20.jpg,FS,4,num_6,32,num_2,0.433480852167,,,2017_Sep_29_1234,60.0010777365,FEMA4ImagesEEG,001,101615,
AFNE01.JPG,AFNE01.JPG,AFNE01.JPG,AFNE01.JPG,AFNE01.JPG,AFNE01.JPG,,,,,,,,,,,,,,,,,4,2,42,1,,,,,,,AFNE15.jpg,AFSA17.jpg,AFSA05.jpg,AFNE03.jpg,AFSA05.jpg,FS,4,num_2,32,num_4,0.450185291236,,,2017_Sep_29_1234,60.0010777365,FEMA4ImagesEEG,001,101615,
AFNE01.JPG,AFNE01.JPG,AFNE01.JPG,AFNE01.JPG,AFNE01.JPG,AFNE01.JPG,,,,,,,,,,,,,,,,,4,3,43,5,,,,,,,AFSA09.jpg,AFSA05.jpg,AFNE15.jpg,AFNE02.jpg,AFSA05.jpg,FS,4,num_6,16,num_6,0.35017675953,,,2017_Sep_29_1234,60.0010777365,FEMA4ImagesEEG,001,101615,
AFNE01.JPG,AFNE01.JPG,AFNE01.JPG,AFNE01.JPG,AFNE01.JPG,AFNE01.JPG,,,,,,,,,,,,,,,,,4,4,44,4,,,,,,,AFSA17.jpg,AFNE13.jpg,AFNE12.jpg,AFSA18.jpg,AFSA18.jpg,FS,4,num_4,32,num_2,0.250131984241,,,2017_Sep_29_1234,60.0010777365,FEMA4ImagesEEG,001,101615,
AFNE01.JPG,AFNE01.JPG,AFNE01.JPG,AFNE01.JPG,AFNE01.JPG,AFNE01.JPG,,,,,,,,,,,,,,,,,4,5,45,6,,,,,,,AFNE04.jpg,AFSA08.jpg,AFSA17.jpg,AFNE19.jpg,AFSA17.jpg,FS,4,num_2,32,num_8,0.283547277329,,,2017_Sep_29_1234,60.0010777365,FEMA4ImagesEEG,001,101615,
AFNE01.JPG,AFNE01.JPG,AFNE01.JPG,AFNE01.JPG,AFNE01.JPG,AFNE01.JPG,,,,,,,,,,,,,,,,,4,6,46,7,,,,,,,AFNE09.jpg,AFSA12.jpg,AFSA05.jpg,AFNE08.jpg,AFSA12.jpg,FS,4,num_6,16,num_6,0.366819295916,,,2017_Sep_29_1234,60.0010777365,FEMA4ImagesEEG,001,101615,
AFNE01.JPG,AFNE01.JPG,AFNE01.JPG,AFNE01.JPG,AFNE01.JPG,AFNE01.JPG,,,,,,,,,,,,,,,,,4,7,47,8,,,,,,,AFNE07.jpg,AFNE19.jpg,AFSA19.jpg,AFSA03.jpg,AFNE19.jpg,FN,3,num_6,32,num_2,0.450173103134,,,2017_Sep_29_1234,60.0010777365,FEMA4ImagesEEG,001,101615,
AFNE01.JPG,AFNE01.JPG,AFNE01.JPG,AFNE01.JPG,AFNE01.JPG,AFNE01.JPG,,,,,,,,,,,,,,,,,4,8,48,9,,,,,,,AFNE01.jpg,AFNE20.jpg,AFSA03.jpg,AFSA13.jpg,AFSA13.jpg,FS,4,num_4,32,num_8,0.433491436532,,,2017_Sep_29_1234,60.0010777365,FEMA4ImagesEEG,001,101615,
AFNE01.JPG,AFNE01.JPG,AFNE01.JPG,AFNE01.JPG,AFNE01.JPG,AFNE01.JPG,,,,,,,,,,,,,,,,,4,9,49,2,,,,,,,AFSA14.jpg,AFNE10.jpg,AFSA04.jpg,AFNE12.jpg,AFNE12.jpg,FN,3,num_4,32,num_2,0.300147476024,,,2017_Sep_29_1234,60.0010777365,FEMA4ImagesEEG,001,101615,
AFNE01.JPG,AFNE01.JPG,AFNE01.JPG,AFNE01.JPG,AFNE01.JPG,AFNE01.JPG,,,,,,,,,,,,,,,,,5,0,50,5,,,,,,,AFSA16.jpg,AFNE14.jpg,AFSA11.jpg,AFNE20.jpg,AFSA16.jpg,FS,4,num_8,32,num_2,1.31672682671,,,2017_Sep_29_1234,60.0010777365,FEMA4ImagesEEG,001,101615,
AFNE01.JPG,AFNE01.JPG,AFNE01.JPG,AFNE01.JPG,AFNE01.JPG,AFNE01.JPG,,,,,,,,,,,,,,,,,5,1,51,7,,,,,,,AFSA08.jpg,AFSA06.jpg,AFNE04.jpg,AFNE13.jpg,AFSA08.jpg,FS,4,num_8,32,num_6,0.350166496006,,,2017_Sep_29_1234,60.0010777365,FEMA4ImagesEEG,001,101615,
AFNE01.JPG,AFNE01.JPG,AFNE01.JPG,AFNE01.JPG,AFNE01.JPG,AFNE01.JPG,,,,,,,,,,,,,,,,,5,2,52,4,,,,,,,AFNE13.jpg,AFSA03.jpg,AFSA09.jpg,AFNE03.jpg,AFSA03.jpg,FS,4,num_6,32,num_8,0.516761530773,,,2017_Sep_29_1234,60.0010777365,FEMA4ImagesEEG,001,101615,
AFNE01.JPG,AFNE01.JPG,AFNE01.JPG,AFNE01.JPG,AFNE01.JPG,AFNE01.JPG,,,,,,,,,,,,,,,,,5,3,53,3,,,,,,,AFNE09.jpg,AFNE08.jpg,AFSA13.jpg,AFSA06.jpg,AFNE08.jpg,FN,3,num_6,32,num_4,0.333524921676,,,2017_Sep_29_1234,60.0010777365,FEMA4ImagesEEG,001,101615,
AFNE01.JPG,AFNE01.JPG,AFNE01.JPG,AFNE01.JPG,AFNE01.JPG,AFNE01.JPG,,,,,,,,,,,,,,,,,5,4,54,6,,,,,,,AFSA10.jpg,AFNE09.jpg,AFSA13.jpg,AFNE11.jpg,AFSA10.jpg,FS,4,num_8,32,num_6,0.366780807148,,,2017_Sep_29_1234,60.0010777365,FEMA4ImagesEEG,001,101615,
AFNE01.JPG,AFNE01.JPG,AFNE01.JPG,AFNE01.JPG,AFNE01.JPG,AFNE01.JPG,,,,,,,,,,,,,,,,,5,5,55,9,,,,,,,AFSA15.jpg,AFSA04.jpg,AFNE08.jpg,AFNE04.jpg,AFSA04.jpg,FS,4,num_6,32,num_2,0.35001125792,,,2017_Sep_29_1234,60.0010777365,FEMA4ImagesEEG,001,101615,
AFNE01.JPG,AFNE01.JPG,AFNE01.JPG,AFNE01.JPG,AFNE01.JPG,AFNE01.JPG,,,,,,,,,,,,,,,,,5,6,56,2,,,,,,,AFSA18.jpg,AFSA10.jpg,AFNE01.jpg,AFNE10.jpg,AFNE01.jpg,FN,3,num_2,32,num_8,0.800125345122,,,2017_Sep_29_1234,60.0010777365,FEMA4ImagesEEG,001,101615,
AFNE01.JPG,AFNE01.JPG,AFNE01.JPG,AFNE01.JPG,AFNE01.JPG,AFNE01.JPG,,,,,,,,,,,,,,,,,5,7,57,0,,,,,,,AFNE11.jpg,AFNE19.jpg,AFSA04.jpg,AFSA01.jpg,AFNE11.jpg,FN,3,num_8,32,num_4,0.483529700898,,,2017_Sep_29_1234,60.0010777365,FEMA4ImagesEEG,001,101615,
AFNE01.JPG,AFNE01.JPG,AFNE01.JPG,AFNE01.JPG,AFNE01.JPG,AFNE01.JPG,,,,,,,,,,,,,,,,,5,8,58,8,,,,,,,AFSA02.jpg,AFNE12.jpg,AFNE06.jpg,AFSA20.jpg,AFSA20.jpg,FS,4,num_4,16,num_4,0.283540541888,,,2017_Sep_29_1234,60.0010777365,FEMA4ImagesEEG,001,101615,
AFNE01.JPG,AFNE01.JPG,AFNE01.JPG,AFNE01.JPG,AFNE01.JPG,AFNE01.JPG,,,,,,,,,,,,,,,,,5,9,59,1,,,,,,,AFNE15.jpg,AFSA04.jpg,AFSA11.jpg,AFNE08.jpg,AFSA11.jpg,FS,4,num_2,32,num_6,0.416809128481,,,2017_Sep_29_1234,60.0010777365,FEMA4ImagesEEG,001,101615,
,,,,,,,,,,,,,,,,,,,,,,,,,,,,,,,,,,,,,,,,,,,space,65.2120990034,2017_Sep_29_1234,60.0010777365,FEMA4ImagesEEG,001,101615,
AFNE01.JPG,AFNE01.JPG,AFNE01.JPG,AFNE01.JPG,AFNE01.JPG,AFNE01.JPG,,,,,,,,,,,,,,,,,,,,,0,0,0,9,,,AMSA03.jpg,AMSA13.jpg,AMNE06.jpg,AMNE12.jpg,AMSA03.jpg,MS,2,num_8,32,num_6,0.383472416666,,,2017_Sep_29_1234,60.0010777365,FEMA4ImagesEEG,001,101615,
AFNE01.JPG,AFNE01.JPG,AFNE01.JPG,AFNE01.JPG,AFNE01.JPG,AFNE01.JPG,,,,,,,,,,,,,,,,,,,,,0,1,1,5,,,AMSA06.jpg,AMNE16.jpg,AMSA13.jpg,AMNE10.jpg,AMNE10.jpg,MN,1,num_4,32,num_8,0.28348922357,,,2017_Sep_29_1234,60.0010777365,FEMA4ImagesEEG,001,101615,
AFNE01.JPG,AFNE01.JPG,AFNE01.JPG,AFNE01.JPG,AFNE01.JPG,AFNE01.JPG,,,,,,,,,,,,,,,,,,,,,0,2,2,0,,,AMSA14.jpg,AMNE01.jpg,AMNE04.jpg,AMSA13.jpg,AMNE04.jpg,MN,1,num_2,16,num_2,0.300174738979,,,2017_Sep_29_1234,60.0010777365,FEMA4ImagesEEG,001,101615,
AFNE01.JPG,AFNE01.JPG,AFNE01.JPG,AFNE01.JPG,AFNE01.JPG,AFNE01.JPG,,,,,,,,,,,,,,,,,,,,,0,3,3,8,,,AMSA20.jpg,AMNE20.jpg,AMNE15.jpg,AMSA06.jpg,AMNE20.jpg,MN,1,num_6,32,num_4,0.300193983363,,,2017_Sep_29_1234,60.0010777365,FEMA4ImagesEEG,001,101615,
AFNE01.JPG,AFNE01.JPG,AFNE01.JPG,AFNE01.JPG,AFNE01.JPG,AFNE01.JPG,,,,,,,,,,,,,,,,,,,,,0,4,4,2,,,AMSA11.jpg,AMNE11.jpg,AMSA19.jpg,AMNE10.jpg,AMSA11.jpg,MS,2,num_8,32,num_4,0.283537975862,,,2017_Sep_29_1234,60.0010777365,FEMA4ImagesEEG,001,101615,
AFNE01.JPG,AFNE01.JPG,AFNE01.JPG,AFNE01.JPG,AFNE01.JPG,AFNE01.JPG,,,,,,,,,,,,,,,,,,,,,0,5,5,1,,,AMNE17.jpg,AMSA05.jpg,AMSA06.jpg,AMNE16.jpg,AMNE17.jpg,MN,1,num_8,32,num_2,0.400131310802,,,2017_Sep_29_1234,60.0010777365,FEMA4ImagesEEG,001,101615,
AFNE01.JPG,AFNE01.JPG,AFNE01.JPG,AFNE01.JPG,AFNE01.JPG,AFNE01.JPG,,,,,,,,,,,,,,,,,,,,,0,6,6,7,,,AMNE14.jpg,AMNE13.jpg,AMSA10.jpg,AMSA16.jpg,AMSA16.jpg,MS,2,num_4,32,num_8,0.566803323105,,,2017_Sep_29_1234,60.0010777365,FEMA4ImagesEEG,001,101615,
AFNE01.JPG,AFNE01.JPG,AFNE01.JPG,AFNE01.JPG,AFNE01.JPG,AFNE01.JPG,,,,,,,,,,,,,,,,,,,,,0,7,7,6,,,AMSA12.jpg,AMSA18.jpg,AMNE11.jpg,AMNE17.jpg,AMSA12.jpg,MS,2,num_8,16,num_8,0.316921836347,,,2017_Sep_29_1234,60.0010777365,FEMA4ImagesEEG,001,101615,
AFNE01.JPG,AFNE01.JPG,AFNE01.JPG,AFNE01.JPG,AFNE01.JPG,AFNE01.JPG,,,,,,,,,,,,,,,,,,,,,0,8,8,3,,,AMSA20.jpg,AMSA18.jpg,AMNE02.jpg,AMNE10.jpg,AMSA20.jpg,MS,2,num_8,32,num_2,0.233468599967,,,2017_Sep_29_1234,60.0010777365,FEMA4ImagesEEG,001,101615,
AFNE01.JPG,AFNE01.JPG,AFNE01.JPG,AFNE01.JPG,AFNE01.JPG,AFNE01.JPG,,,,,,,,,,,,,,,,,,,,,0,9,9,4,,,AMNE13.jpg,AMNE02.jpg,AMSA09.jpg,AMSA16.jpg,AMNE13.jpg,MN,1,num_8,32,num_6,0.300188851426,,,2017_Sep_29_1234,60.0010777365,FEMA4ImagesEEG,001,101615,
AFNE01.JPG,AFNE01.JPG,AFNE01.JPG,AFNE01.JPG,AFNE01.JPG,AFNE01.JPG,,,,,,,,,,,,,,,,,,,,,1,0,10,2,,,AMNE15.jpg,AMNE05.jpg,AMSA07.jpg,AMSA16.jpg,AMSA07.jpg,MS,2,num_2,32,num_4,0.283508467837,,,2017_Sep_29_1234,60.0010777365,FEMA4ImagesEEG,001,101615,
AFNE01.JPG,AFNE01.JPG,AFNE01.JPG,AFNE01.JPG,AFNE01.JPG,AFNE01.JPG,,,,,,,,,,,,,,,,,,,,,1,1,11,7,,,AMSA09.jpg,AMSA13.jpg,AMNE04.jpg,AMNE01.jpg,AMNE04.jpg,MN,1,num_2,32,num_8,0.316857367754,,,2017_Sep_29_1234,60.0010777365,FEMA4ImagesEEG,001,101615,
AFNE01.JPG,AFNE01.JPG,AFNE01.JPG,AFNE01.JPG,AFNE01.JPG,AFNE01.JPG,,,,,,,,,,,,,,,,,,,,,1,2,12,6,,,AMSA02.jpg,AMSA09.jpg,AMNE14.jpg,AMNE10.jpg,AMNE14.jpg,MN,1,num_2,16,num_2,0.30014458939,,,2017_Sep_29_1234,60.0010777365,FEMA4ImagesEEG,001,101615,
AFNE01.JPG,AFNE01.JPG,AFNE01.JPG,AFNE01.JPG,AFNE01.JPG,AFNE01.JPG,,,,,,,,,,,,,,,,,,,,,1,3,13,4,,,AMNE08.jpg,AMSA14.jpg,AMSA12.jpg,AMNE04.jpg,AMNE04.jpg,MN,1,num_4,16,num_4,0.366848162492,,,2017_Sep_29_1234,60.0010777365,FEMA4ImagesEEG,001,101615,
AFNE01.JPG,AFNE01.JPG,AFNE01.JPG,AFNE01.JPG,AFNE01.JPG,AFNE01.JPG,,,,,,,,,,,,,,,,,,,,,1,4,14,1,,,AMSA18.jpg,AMSA19.jpg,AMNE07.jpg,AMNE01.jpg,AMNE01.jpg,MN,1,num_4,32,num_8,0.333504715236,,,2017_Sep_29_1234,60.0010777365,FEMA4ImagesEEG,001,101615,
AFNE01.JPG,AFNE01.JPG,AFNE01.JPG,AFNE01.JPG,AFNE01.JPG,AFNE01.JPG,,,,,,,,,,,,,,,,,,,,,1,5,15,5,,,AMSA11.jpg,AMNE12.jpg,AMNE19.jpg,AMSA01.jpg,AMSA01.jpg,MS,2,num_4,16,num_4,0.250190038118,,,2017_Sep_29_1234,60.0010777365,FEMA4ImagesEEG,001,101615,
AFNE01.JPG,AFNE01.JPG,AFNE01.JPG,AFNE01.JPG,AFNE01.JPG,AFNE01.JPG,,,,,,,,,,,,,,,,,,,,,1,6,16,0,,,AMNE04.jpg,AMSA12.jpg,AMSA16.jpg,AMNE03.jpg,AMNE03.jpg,MN,1,num_4,32,num_2,0.500125088496,,,2017_Sep_29_1234,60.0010777365,FEMA4ImagesEEG,001,101615,
AFNE01.JPG,AFNE01.JPG,AFNE01.JPG,AFNE01.JPG,AFNE01.JPG,AFNE01.JPG,,,,,,,,,,,,,,,,,,,,,1,7,17,9,,,AMNE17.jpg,AMNE13.jpg,AMSA18.jpg,AMSA12.jpg,AMNE13.jpg,MN,1,num_6,32,num_8,0.533529155538,,,2017_Sep_29_1234,60.0010777365,FEMA4ImagesEEG,001,101615,
AFNE01.JPG,AFNE01.JPG,AFNE01.JPG,AFNE01.JPG,AFNE01.JPG,AFNE01.JPG,,,,,,,,,,,,,,,,,,,,,1,8,18,8,,,AMNE13.jpg,AMSA16.jpg,AMNE15.jpg,AMSA01.jpg,AMSA16.jpg,MS,2,num_6,16,num_6,0.783467733883,,,2017_Sep_29_1234,60.0010777365,FEMA4ImagesEEG,001,101615,
AFNE01.JPG,AFNE01.JPG,AFNE01.JPG,AFNE01.JPG,AFNE01.JPG,AFNE01.JPG,,,,,,,,,,,,,,,,,,,,,1,9,19,3,,,AMNE03.jpg,AMSA13.jpg,AMNE18.jpg,AMSA07.jpg,AMNE03.jpg,MN,1,num_8,16,num_8,0.183585894294,,,2017_Sep_29_1234,60.0010777365,FEMA4ImagesEEG,001,101615,
AFNE01.JPG,AFNE01.JPG,AFNE01.JPG,AFNE01.JPG,AFNE01.JPG,AFNE01.JPG,,,,,,,,,,,,,,,,,,,,,2,0,20,2,,,AMSA17.jpg,AMSA08.jpg,AMNE04.jpg,AMNE03.jpg,AMSA08.jpg,MS,2,num_6,16,num_6,0.550048207166,,,2017_Sep_29_1234,60.0010777365,FEMA4ImagesEEG,001,101615,
AFNE01.JPG,AFNE01.JPG,AFNE01.JPG,AFNE01.JPG,AFNE01.JPG,AFNE01.JPG,,,,,,,,,,,,,,,,,,,,,2,1,21,7,,,AMNE13.jpg,AMSA05.jpg,AMSA18.jpg,AMNE01.jpg,AMSA05.jpg,MS,2,num_6,32,num_2,0.666833665106,,,2017_Sep_29_1234,60.0010777365,FEMA4ImagesEEG,001,101615,
AFNE01.JPG,AFNE01.JPG,AFNE01.JPG,AFNE01.JPG,AFNE01.JPG,AFNE01.JPG,,,,,,,,,,,,,,,,,,,,,2,2,22,8,,,AMSA04.jpg,AMSA18.jpg,AMNE15.jpg,AMNE03.jpg,AMNE03.jpg,MN,1,num_4,16,num_4,0.416787318187,,,2017_Sep_29_1234,60.0010777365,FEMA4ImagesEEG,001,101615,
AFNE01.JPG,AFNE01.JPG,AFNE01.JPG,AFNE01.JPG,AFNE01.JPG,AFNE01.JPG,,,,,,,,,,,,,,,,,,,,,2,3,23,6,,,AMNE02.jpg,AMNE17.jpg,AMSA05.jpg,AMSA17.jpg,AMSA05.jpg,MS,2,num_2,32,num_8,0.0168404326541,,,2017_Sep_29_1234,60.0010777365,FEMA4ImagesEEG,001,101615,
AFNE01.JPG,AFNE01.JPG,AFNE01.JPG,AFNE01.JPG,AFNE01.JPG,AFNE01.JPG,,,,,,,,,,,,,,,,,,,,,2,4,24,9,,,AMSA14.jpg,AMSA08.jpg,AMNE03.jpg,AMNE06.jpg,AMSA08.jpg,MS,2,num_6,16,num_6,0.333513054415,,,2017_Sep_29_1234,60.0010777365,FEMA4ImagesEEG,001,101615,
AFNE01.JPG,AFNE01.JPG,AFNE01.JPG,AFNE01.JPG,AFNE01.JPG,AFNE01.JPG,,,,,,,,,,,,,,,,,,,,,2,5,25,0,,,AMNE12.jpg,AMSA14.jpg,AMNE06.jpg,AMSA10.jpg,AMSA10.jpg,MS,2,num_4,32,num_6,0.266823273152,,,2017_Sep_29_1234,60.0010777365,FEMA4ImagesEEG,001,101615,
AFNE01.JPG,AFNE01.JPG,AFNE01.JPG,AFNE01.JPG,AFNE01.JPG,AFNE01.JPG,,,,,,,,,,,,,,,,,,,,,2,6,26,4,,,AMSA20.jpg,AMSA05.jpg,AMNE11.jpg,AMNE10.jpg,AMNE10.jpg,MN,1,num_4,16,num_4,0.166814099881,,,2017_Sep_29_1234,60.0010777365,FEMA4ImagesEEG,001,101615,
AFNE01.JPG,AFNE01.JPG,AFNE01.JPG,AFNE01.JPG,AFNE01.JPG,AFNE01.JPG,,,,,,,,,,,,,,,,,,,,,2,7,27,5,,,AMSA04.jpg,AMSA09.jpg,AMNE08.jpg,AMNE14.jpg,AMNE14.jpg,MN,1,num_4,32,num_6,0.266807236127,,,2017_Sep_29_1234,60.0010777365,FEMA4ImagesEEG,001,101615,
AFNE01.JPG,AFNE01.JPG,AFNE01.JPG,AFNE01.JPG,AFNE01.JPG,AFNE01.JPG,,,,,,,,,,,,,,,,,,,,,2,8,28,3,,,AMSA06.jpg,AMNE08.jpg,AMSA17.jpg,AMNE04.jpg,AMNE04.jpg,MN,1,num_4,32,num_2,0.366794598987,,,2017_Sep_29_1234,60.0010777365,FEMA4ImagesEEG,001,101615,
AFNE01.JPG,AFNE01.JPG,AFNE01.JPG,AFNE01.JPG,AFNE01.JPG,AFNE01.JPG,,,,,,,,,,,,,,,,,,,,,2,9,29,1,,,AMSA01.jpg,AMSA10.jpg,AMNE09.jpg,AMNE01.jpg,AMSA10.jpg,MS,2,num_6,32,num_2,0.36679075018,,,2017_Sep_29_1234,60.0010777365,FEMA4ImagesEEG,001,101615,
AFNE01.JPG,AFNE01.JPG,AFNE01.JPG,AFNE01.JPG,AFNE01.JPG,AFNE01.JPG,,,,,,,,,,,,,,,,,,,,,3,0,30,1,,,AMNE14.jpg,AMSA15.jpg,AMSA05.jpg,AMNE09.jpg,AMSA05.jpg,MS,2,num_2,32,num_8,0.666797421523,,,2017_Sep_29_1234,60.0010777365,FEMA4ImagesEEG,001,101615,
AFNE01.JPG,AFNE01.JPG,AFNE01.JPG,AFNE01.JPG,AFNE01.JPG,AFNE01.JPG,,,,,,,,,,,,,,,,,,,,,3,1,31,9,,,AMNE08.jpg,AMNE12.jpg,AMSA07.jpg,AMSA05.jpg,AMNE08.jpg,MN,1,num_8,16,num_8,0.900102123502,,,2017_Sep_29_1234,60.0010777365,FEMA4ImagesEEG,001,101615,
AFNE01.JPG,AFNE01.JPG,AFNE01.JPG,AFNE01.JPG,AFNE01.JPG,AFNE01.JPG,,,,,,,,,,,,,,,,,,,,,3,2,32,7,,,AMSA12.jpg,AMNE14.jpg,AMNE12.jpg,AMSA08.jpg,AMSA08.jpg,MS,2,num_4,32,num_6,0.283561710618,,,2017_Sep_29_1234,60.0010777365,FEMA4ImagesEEG,001,101615,
AFNE01.JPG,AFNE01.JPG,AFNE01.JPG,AFNE01.JPG,AFNE01.JPG,AFNE01.JPG,,,,,,,,,,,,,,,,,,,,,3,3,33,6,,,AMNE06.jpg,AMSA14.jpg,AMNE03.jpg,AMSA02.jpg,AMNE06.jpg,MN,1,num_8,32,num_2,0.317146995571,,,2017_Sep_29_1234,60.0010777365,FEMA4ImagesEEG,001,101615,
AFNE01.JPG,AFNE01.JPG,AFNE01.JPG,AFNE01.JPG,AFNE01.JPG,AFNE01.JPG,,,,,,,,,,,,,,,,,,,,,3,4,34,3,,,AMSA11.jpg,AMSA06.jpg,AMNE09.jpg,AMNE20.jpg,AMSA06.jpg,MS,2,num_6,32,num_4,0.400307396776,,,2017_Sep_29_1234,60.0010777365,FEMA4ImagesEEG,001,101615,
AFNE01.JPG,AFNE01.JPG,AFNE01.JPG,AFNE01.JPG,AFNE01.JPG,AFNE01.JPG,,,,,,,,,,,,,,,,,,,,,3,5,35,2,,,AMNE08.jpg,AMNE07.jpg,AMSA15.jpg,AMSA18.jpg,AMNE07.jpg,MN,1,num_6,32,num_8,0.300193662522,,,2017_Sep_29_1234,60.0010777365,FEMA4ImagesEEG,001,101615,
AFNE01.JPG,AFNE01.JPG,AFNE01.JPG,AFNE01.JPG,AFNE01.JPG,AFNE01.JPG,,,,,,,,,,,,,,,,,,,,,3,6,36,4,,,AMSA12.jpg,AMNE10.jpg,AMSA07.jpg,AMNE15.jpg,AMNE10.jpg,MN,1,num_6,32,num_8,0.366860671435,,,2017_Sep_29_1234,60.0010777365,FEMA4ImagesEEG,001,101615,
AFNE01.JPG,AFNE01.JPG,AFNE01.JPG,AFNE01.JPG,AFNE01.JPG,AFNE01.JPG,,,,,,,,,,,,,,,,,,,,,3,7,37,0,,,AMSA19.jpg,AMSA05.jpg,AMNE05.jpg,AMNE19.jpg,AMSA05.jpg,MS,2,num_6,32,num_2,0.250004009227,,,2017_Sep_29_1234,60.0010777365,FEMA4ImagesEEG,001,101615,
AFNE01.JPG,AFNE01.JPG,AFNE01.JPG,AFNE01.JPG,AFNE01.JPG,AFNE01.JPG,,,,,,,,,,,,,,,,,,,,,3,8,38,5,,,AMSA17.jpg,AMSA12.jpg,AMNE04.jpg,AMNE18.jpg,AMSA17.jpg,MS,2,num_8,32,num_6,0.350193438004,,,2017_Sep_29_1234,60.0010777365,FEMA4ImagesEEG,001,101615,
