IPosition2,IPosition3,IPosition1,IPosition6,IPosition4,IPosition5,TrialsF1.thisRepN,TrialsF1.thisTrialN,TrialsF1.thisN,TrialsF1.thisIndex,TrialsM1.thisRepN,TrialsM1.thisTrialN,TrialsM1.thisN,TrialsM1.thisIndex,TrialsF2.thisRepN,TrialsF2.thisTrialN,TrialsF2.thisN,TrialsF2.thisIndex,TrialsM2.thisRepN,TrialsM2.thisTrialN,TrialsM2.thisN,TrialsM2.thisIndex,TrialsF3.thisRepN,TrialsF3.thisTrialN,TrialsF3.thisN,TrialsF3.thisIndex,TrialsM3.thisRepN,TrialsM3.thisTrialN,TrialsM3.thisN,TrialsM3.thisIndex,InstrKey_resp.keys,InstrKey_resp.rt,Image0 _Position,Image1 _Position,Image2 _Position,Image3 _Position,Center_image,condition,code,correct_answer,accuracy,Key_Resp.keys,Key_Resp.rt,BreakKey_resp.keys,BreakKey_resp.rt,date,frameRate,expName,session,participant,
,,,,,,,,,,,,,,,,,,,,,,,,,,,,,,space,2.48313566693,,,,,,,,,,,,,,2017_Sep_12_1651,60.0064860869,FEMA4ImagesEEG,001,101603,
AFSA25.JPG,AFNE24.JPG,AFSA24.JPG,AFNE21.JPG,AFSA21.JPG,AFNE25.JPG,0,0,0,2,,,,,,,,,,,,,,,,,,,,,,,AFNE12.jpg,AFSA01.jpg,AFSA19.jpg,AFNE19.jpg,AFSA01.jpg,FS,4,num_6,16,num_6,2.69993229164,,,2017_Sep_12_1651,60.0064860869,FEMA4ImagesEEG,001,101603,
AFNE23.JPG,AFNE24.JPG,AFNE22.JPG,AFSA24.JPG,AFSA22.JPG,AFSA23.JPG,0,1,1,8,,,,,,,,,,,,,,,,,,,,,,,AFNE09.jpg,AFSA04.jpg,AFSA12.jpg,AFNE12.jpg,AFSA04.jpg,FS,4,num_6,16,num_6,1.78338202694,,,2017_Sep_12_1651,60.0064860869,FEMA4ImagesEEG,001,101603,
AMNE23.JPG,AMNE24.JPG,AMNE22.JPG,AMSA24.JPG,AMSA22.JPG,AMSA23.JPG,0,2,2,9,,,,,,,,,,,,,,,,,,,,,,,AFSA04.jpg,AFNE11.jpg,AFSA13.jpg,AFNE16.jpg,AFNE11.jpg,FN,3,num_6,32,num_4,1.93337755278,,,2017_Sep_12_1651,60.0064860869,FEMA4ImagesEEG,001,101603,
AMSA21.JPG,AMNE23.JPG,AMNE21.JPG,AMSA25.JPG,AMNE25.JPG,AMSA23.JPG,0,3,3,5,,,,,,,,,,,,,,,,,,,,,,,AFSA02.jpg,AFNE10.jpg,AFSA12.jpg,AFNE02.jpg,AFSA02.jpg,FS,4,num_8,32,num_6,0.850069584558,,,2017_Sep_12_1651,60.0064860869,FEMA4ImagesEEG,001,101603,
AMSA21.JPG,AMNE22.JPG,AMNE21.JPG,AMSA23.JPG,AMSA22.JPG,AMNE23.JPG,0,4,4,1,,,,,,,,,,,,,,,,,,,,,,,AFNE12.jpg,AFSA05.jpg,AFNE05.jpg,AFSA06.jpg,AFNE12.jpg,FN,3,num_8,16,num_8,1.3168032642,,,2017_Sep_12_1651,60.0064860869,FEMA4ImagesEEG,001,101603,
AMNE22.JPG,AMSA24.JPG,AMSA22.JPG,AMNE25.JPG,AMNE24.JPG,AMSA25.JPG,0,5,5,7,,,,,,,,,,,,,,,,,,,,,,,AFNE16.jpg,AFSA18.jpg,AFSA15.jpg,AFNE17.jpg,AFNE16.jpg,FN,3,num_8,16,num_8,1.18339992408,,,2017_Sep_12_1651,60.0064860869,FEMA4ImagesEEG,001,101603,
AFSA21.JPG,AFNE23.JPG,AFNE21.JPG,AFSA25.JPG,AFNE25.JPG,AFSA23.JPG,0,6,6,4,,,,,,,,,,,,,,,,,,,,,,,AFSA10.jpg,AFNE02.jpg,AFNE13.jpg,AFSA02.jpg,AFSA10.jpg,FS,4,num_8,32,num_4,1.65005983412,,,2017_Sep_12_1651,60.0064860869,FEMA4ImagesEEG,001,101603,
AFNE22.JPG,AFSA24.JPG,AFSA22.JPG,AFNE25.JPG,AFNE24.JPG,AFSA25.JPG,0,7,7,6,,,,,,,,,,,,,,,,,,,,,,,AFNE14.jpg,AFNE16.jpg,AFSA12.jpg,AFSA14.jpg,AFNE16.jpg,FN,3,num_6,32,num_8,1.30010331026,,,2017_Sep_12_1651,60.0064860869,FEMA4ImagesEEG,001,101603,
AFSA21.JPG,AFNE22.JPG,AFNE21.JPG,AFSA23.JPG,AFSA22.JPG,AFNE23.JPG,0,8,8,0,,,,,,,,,,,,,,,,,,,,,,,AFSA14.jpg,AFSA01.jpg,AFNE05.jpg,AFNE01.jpg,AFSA14.jpg,FS,4,num_8,32,num_2,2.76629814762,,,2017_Sep_12_1651,60.0064860869,FEMA4ImagesEEG,001,101603,
AMSA25.JPG,AMNE24.JPG,AMSA24.JPG,AMNE26.JPG,AMSA21.JPG,AMNE25.JPG,0,9,9,3,,,,,,,,,,,,,,,,,,,,,,,AFSA03.jpg,AFNE11.jpg,AFSA07.jpg,AFNE05.jpg,AFSA03.jpg,FS,4,num_8,32,num_6,3.21658525756,,,2017_Sep_12_1651,60.0064860869,FEMA4ImagesEEG,001,101603,
AFNE23.JPG,AFNE24.JPG,AFNE22.JPG,AFSA24.JPG,AFSA22.JPG,AFSA23.JPG,,,,,0,0,0,8,,,,,,,,,,,,,,,,,,,AMSA09.jpg,AMNE14.jpg,AMNE01.jpg,AMSA18.jpg,AMNE14.jpg,MN,1,num_6,32,num_8,1.2000822376,,,2017_Sep_12_1651,60.0064860869,FEMA4ImagesEEG,001,101603,
AFSA25.JPG,AFNE24.JPG,AFSA24.JPG,AFNE21.JPG,AFSA21.JPG,AFNE25.JPG,,,,,0,1,1,2,,,,,,,,,,,,,,,,,,,AMSA14.jpg,AMNE02.jpg,AMSA16.jpg,AMNE18.jpg,AMNE02.jpg,MN,1,num_6,32,num_8,1.43327347259,,,2017_Sep_12_1651,60.0064860869,FEMA4ImagesEEG,001,101603,
AMSA21.JPG,AMNE22.JPG,AMNE21.JPG,AMSA23.JPG,AMSA22.JPG,AMNE23.JPG,,,,,0,2,2,1,,,,,,,,,,,,,,,,,,,AMNE12.jpg,AMSA15.jpg,AMNE09.jpg,AMSA20.jpg,AMNE12.jpg,MN,1,num_8,16,num_8,0.900178748183,,,2017_Sep_12_1651,60.0064860869,FEMA4ImagesEEG,001,101603,
AMNE22.JPG,AMSA24.JPG,AMSA22.JPG,AMNE25.JPG,AMNE24.JPG,AMSA25.JPG,,,,,0,3,3,7,,,,,,,,,,,,,,,,,,,AMSA17.jpg,AMSA07.jpg,AMNE03.jpg,AMNE05.jpg,AMNE03.jpg,MN,1,num_2,16,num_2,3.09992934088,,,2017_Sep_12_1651,60.0064860869,FEMA4ImagesEEG,001,101603,
AFSA21.JPG,AFNE23.JPG,AFNE21.JPG,AFSA25.JPG,AFNE25.JPG,AFSA23.JPG,,,,,0,4,4,4,,,,,,,,,,,,,,,,,,,AMSA14.jpg,AMNE02.jpg,AMSA10.jpg,AMNE17.jpg,AMNE02.jpg,MN,1,num_6,32,num_8,1.35009540408,,,2017_Sep_12_1651,60.0064860869,FEMA4ImagesEEG,001,101603,
AFNE22.JPG,AFSA24.JPG,AFSA22.JPG,AFNE25.JPG,AFNE24.JPG,AFSA25.JPG,,,,,0,5,5,6,,,,,,,,,,,,,,,,,,,AMSA13.jpg,AMNE17.jpg,AMSA05.jpg,AMNE05.jpg,AMNE05.jpg,MN,1,num_4,32,num_8,1.083460961,,,2017_Sep_12_1651,60.0064860869,FEMA4ImagesEEG,001,101603,
AFSA21.JPG,AFNE22.JPG,AFNE21.JPG,AFSA23.JPG,AFSA22.JPG,AFNE23.JPG,,,,,0,6,6,0,,,,,,,,,,,,,,,,,,,AMSA05.jpg,AMNE10.jpg,AMNE15.jpg,AMSA06.jpg,AMNE10.jpg,MN,1,num_6,32,num_8,1.70006507798,,,2017_Sep_12_1651,60.0064860869,FEMA4ImagesEEG,001,101603,
AMSA25.JPG,AMNE24.JPG,AMSA24.JPG,AMNE26.JPG,AMSA21.JPG,AMNE25.JPG,,,,,0,7,7,3,,,,,,,,,,,,,,,,,,,AMNE17.jpg,AMNE04.jpg,AMSA05.jpg,AMSA03.jpg,AMNE04.jpg,MN,1,num_6,32,num_8,1.21679951181,,,2017_Sep_12_1651,60.0064860869,FEMA4ImagesEEG,001,101603,
AMSA21.JPG,AMNE23.JPG,AMNE21.JPG,AMSA25.JPG,AMNE25.JPG,AMSA23.JPG,,,,,0,8,8,5,,,,,,,,,,,,,,,,,,,AMNE08.jpg,AMSA02.jpg,AMNE09.jpg,AMSA18.jpg,AMSA02.jpg,MS,2,num_6,16,num_6,1.15008886089,,,2017_Sep_12_1651,60.0064860869,FEMA4ImagesEEG,001,101603,
AMNE23.JPG,AMNE24.JPG,AMNE22.JPG,AMSA24.JPG,AMSA22.JPG,AMSA23.JPG,,,,,0,9,9,9,,,,,,,,,,,,,,,,,,,AMSA08.jpg,AMSA10.jpg,AMNE08.jpg,AMNE09.jpg,AMNE09.jpg,MN,1,num_4,16,num_4,1.41670887056,,,2017_Sep_12_1651,60.0064860869,FEMA4ImagesEEG,001,101603,
AFSA21.JPG,AFNE23.JPG,AFNE21.JPG,AFSA25.JPG,AFNE25.JPG,AFSA23.JPG,,,,,,,,,0,0,0,4,,,,,,,,,,,,,,,AFSA03.jpg,AFSA01.jpg,AFNE01.jpg,AFNE02.jpg,AFSA03.jpg,FS,4,num_8,16,num_8,1.85006445274,,,2017_Sep_12_1651,60.0064860869,FEMA4ImagesEEG,001,101603,
AFNE23.JPG,AFNE24.JPG,AFNE22.JPG,AFSA24.JPG,AFSA22.JPG,AFSA23.JPG,,,,,,,,,0,1,1,8,,,,,,,,,,,,,,,AFNE11.jpg,AFSA01.jpg,AFSA06.jpg,AFNE09.jpg,AFSA06.jpg,FS,4,num_2,16,num_2,1.2834604478,,,2017_Sep_12_1651,60.0064860869,FEMA4ImagesEEG,001,101603,
AFSA21.JPG,AFNE22.JPG,AFNE21.JPG,AFSA23.JPG,AFSA22.JPG,AFNE23.JPG,,,,,,,,,0,2,2,0,,,,,,,,,,,,,,,AFNE06.jpg,AFNE16.jpg,AFSA07.jpg,AFSA16.jpg,AFNE16.jpg,FN,3,num_6,32,num_8,1.11678902362,,,2017_Sep_12_1651,60.0064860869,FEMA4ImagesEEG,001,101603,
AMSA21.JPG,AMNE23.JPG,AMNE21.JPG,AMSA25.JPG,AMNE25.JPG,AMSA23.JPG,,,,,,,,,0,3,3,5,,,,,,,,,,,,,,,AFSA04.jpg,AFSA20.jpg,AFNE17.jpg,AFNE04.jpg,AFNE17.jpg,FN,3,num_2,32,num_4,1.16673044045,,,2017_Sep_12_1651,60.0064860869,FEMA4ImagesEEG,001,101603,
AFSA25.JPG,AFNE24.JPG,AFSA24.JPG,AFNE21.JPG,AFSA21.JPG,AFNE25.JPG,,,,,,,,,0,4,4,2,,,,,,,,,,,,,,,AFNE10.jpg,AFNE15.jpg,AFSA07.jpg,AFSA09.jpg,AFSA09.jpg,FS,4,num_4,32,num_8,1.68341900827,,,2017_Sep_12_1651,60.0064860869,FEMA4ImagesEEG,001,101603,
AMSA21.JPG,AMNE22.JPG,AMNE21.JPG,AMSA23.JPG,AMSA22.JPG,AMNE23.JPG,,,,,,,,,0,5,5,1,,,,,,,,,,,,,,,AFNE05.jpg,AFSA09.jpg,AFNE13.jpg,AFSA13.jpg,AFSA09.jpg,FS,4,num_6,16,num_6,1.00012957887,,,2017_Sep_12_1651,60.0064860869,FEMA4ImagesEEG,001,101603,
AFNE22.JPG,AFSA24.JPG,AFSA22.JPG,AFNE25.JPG,AFNE24.JPG,AFSA25.JPG,,,,,,,,,0,6,6,6,,,,,,,,,,,,,,,AFNE18.jpg,AFSA02.jpg,AFSA01.jpg,AFNE07.jpg,AFSA02.jpg,FS,4,num_6,32,num_8,2.46665702295,,,2017_Sep_12_1651,60.0064860869,FEMA4ImagesEEG,001,101603,
AMNE22.JPG,AMSA24.JPG,AMSA22.JPG,AMNE25.JPG,AMNE24.JPG,AMSA25.JPG,,,,,,,,,0,7,7,7,,,,,,,,,,,,,,,AFSA15.jpg,AFNE15.jpg,AFNE07.jpg,AFSA18.jpg,AFSA18.jpg,FS,4,num_4,16,num_4,2.16664640675,,,2017_Sep_12_1651,60.0064860869,FEMA4ImagesEEG,001,101603,
AMNE23.JPG,AMNE24.JPG,AMNE22.JPG,AMSA24.JPG,AMSA22.JPG,AMSA23.JPG,,,,,,,,,0,8,8,9,,,,,,,,,,,,,,,AFNE04.jpg,AFNE14.jpg,AFSA14.jpg,AFSA01.jpg,AFSA01.jpg,FS,4,num_4,32,num_2,2.76664198027,,,2017_Sep_12_1651,60.0064860869,FEMA4ImagesEEG,001,101603,
AMSA25.JPG,AMNE24.JPG,AMSA24.JPG,AMNE26.JPG,AMSA21.JPG,AMNE25.JPG,,,,,,,,,0,9,9,3,,,,,,,,,,,,,,,AFNE06.jpg,AFSA10.jpg,AFSA08.jpg,AFNE12.jpg,AFSA10.jpg,FS,4,num_6,32,num_8,2.0166884074,,,2017_Sep_12_1651,60.0064860869,FEMA4ImagesEEG,001,101603,
AMSA21.JPG,AMNE23.JPG,AMNE21.JPG,AMSA25.JPG,AMNE25.JPG,AMSA23.JPG,,,,,,,,,,,,,0,0,0,5,,,,,,,,,,,AMNE12.jpg,AMSA02.jpg,AMNE20.jpg,AMSA20.jpg,AMNE20.jpg,MN,1,num_2,32,num_4,1.96666648495,,,2017_Sep_12_1651,60.0064860869,FEMA4ImagesEEG,001,101603,
AFSA21.JPG,AFNE23.JPG,AFNE21.JPG,AFSA25.JPG,AFNE25.JPG,AFSA23.JPG,,,,,,,,,,,,,0,1,1,4,,,,,,,,,,,AMNE18.jpg,AMNE13.jpg,AMSA10.jpg,AMSA07.jpg,AMNE18.jpg,MN,1,num_8,16,num_8,1.21671868535,,,2017_Sep_12_1651,60.0064860869,FEMA4ImagesEEG,001,101603,
AFSA21.JPG,AFNE22.JPG,AFNE21.JPG,AFSA23.JPG,AFSA22.JPG,AFNE23.JPG,,,,,,,,,,,,,0,2,2,0,,,,,,,,,,,AMSA10.jpg,AMNE17.jpg,AMSA09.jpg,AMNE11.jpg,AMSA09.jpg,MS,2,num_2,16,num_2,3.81664113048,,,2017_Sep_12_1651,60.0064860869,FEMA4ImagesEEG,001,101603,
AMNE23.JPG,AMNE24.JPG,AMNE22.JPG,AMSA24.JPG,AMSA22.JPG,AMSA23.JPG,,,,,,,,,,,,,0,3,3,9,,,,,,,,,,,AMSA07.jpg,AMNE11.jpg,AMSA18.jpg,AMNE08.jpg,AMNE08.jpg,MN,1,num_4,16,num_4,2.30003691697,,,2017_Sep_12_1651,60.0064860869,FEMA4ImagesEEG,001,101603,
AMSA21.JPG,AMNE22.JPG,AMNE21.JPG,AMSA23.JPG,AMSA22.JPG,AMNE23.JPG,,,,,,,,,,,,,0,4,4,1,,,,,,,,,,,AMNE17.jpg,AMNE06.jpg,AMSA20.jpg,AMSA14.jpg,AMSA14.jpg,MS,2,num_4,16,num_4,1.21663850034,,,2017_Sep_12_1651,60.0064860869,FEMA4ImagesEEG,001,101603,
AMNE22.JPG,AMSA24.JPG,AMSA22.JPG,AMNE25.JPG,AMNE24.JPG,AMSA25.JPG,,,,,,,,,,,,,0,5,5,7,,,,,,,,,,,AMNE10.jpg,AMNE16.jpg,AMSA05.jpg,AMSA08.jpg,AMNE16.jpg,MN,1,num_6,16,num_6,0.866636431543,,,2017_Sep_12_1651,60.0064860869,FEMA4ImagesEEG,001,101603,
AFNE23.JPG,AFNE24.JPG,AFNE22.JPG,AFSA24.JPG,AFSA22.JPG,AFSA23.JPG,,,,,,,,,,,,,0,6,6,8,,,,,,,,,,,AMSA06.jpg,AMNE11.jpg,AMSA15.jpg,AMNE03.jpg,AMSA15.jpg,MS,2,num_2,16,num_2,2.26642115111,,,2017_Sep_12_1651,60.0064860869,FEMA4ImagesEEG,001,101603,
AFSA25.JPG,AFNE24.JPG,AFSA24.JPG,AFNE21.JPG,AFSA21.JPG,AFNE25.JPG,,,,,,,,,,,,,0,7,7,2,,,,,,,,,,,AMNE14.jpg,AMSA06.jpg,AMNE11.jpg,AMSA18.jpg,AMNE11.jpg,MN,1,num_2,16,num_2,1.65001108171,,,2017_Sep_12_1651,60.0064860869,FEMA4ImagesEEG,001,101603,
AFNE22.JPG,AFSA24.JPG,AFSA22.JPG,AFNE25.JPG,AFNE24.JPG,AFSA25.JPG,,,,,,,,,,,,,0,8,8,6,,,,,,,,,,,AMSA03.jpg,AMNE18.jpg,AMNE03.jpg,AMSA02.jpg,AMSA02.jpg,MS,2,num_4,16,num_4,1.48341438943,,,2017_Sep_12_1651,60.0064860869,FEMA4ImagesEEG,001,101603,
AMSA25.JPG,AMNE24.JPG,AMSA24.JPG,AMNE26.JPG,AMSA21.JPG,AMNE25.JPG,,,,,,,,,,,,,0,9,9,3,,,,,,,,,,,AMNE02.jpg,AMNE11.jpg,AMSA14.jpg,AMSA05.jpg,AMNE11.jpg,MN,1,num_6,32,num_8,1.20008608652,,,2017_Sep_12_1651,60.0064860869,FEMA4ImagesEEG,001,101603,
AFSA21.JPG,AFNE22.JPG,AFNE21.JPG,AFSA23.JPG,AFSA22.JPG,AFNE23.JPG,,,,,,,,,,,,,,,,,0,0,0,0,,,,,,,AFNE12.jpg,AFSA08.jpg,AFSA12.jpg,AFNE08.jpg,AFNE12.jpg,FN,3,num_8,32,num_2,2.69998136489,,,2017_Sep_12_1651,60.0064860869,FEMA4ImagesEEG,001,101603,
AMSA21.JPG,AMNE22.JPG,AMNE21.JPG,AMSA23.JPG,AMSA22.JPG,AMNE23.JPG,,,,,,,,,,,,,,,,,0,1,1,1,,,,,,,AFNE14.jpg,AFNE07.jpg,AFSA01.jpg,AFSA10.jpg,AFNE07.jpg,FN,3,num_6,16,num_6,1.25011346163,,,2017_Sep_12_1651,60.0064860869,FEMA4ImagesEEG,001,101603,
AFNE23.JPG,AFNE24.JPG,AFNE22.JPG,AFSA24.JPG,AFSA22.JPG,AFSA23.JPG,,,,,,,,,,,,,,,,,0,2,2,8,,,,,,,AFSA07.jpg,AFNE14.jpg,AFNE18.jpg,AFSA15.jpg,AFNE14.jpg,FN,3,num_6,32,num_8,1.58339472837,,,2017_Sep_12_1651,60.0064860869,FEMA4ImagesEEG,001,101603,
AMNE22.JPG,AMSA24.JPG,AMSA22.JPG,AMNE25.JPG,AMNE24.JPG,AMSA25.JPG,,,,,,,,,,,,,,,,,0,3,3,7,,,,,,,AFSA06.jpg,AFNE09.jpg,AFNE10.jpg,AFSA13.jpg,AFNE09.jpg,FN,3,num_6,32,num_4,1.31673013582,,,2017_Sep_12_1651,60.0064860869,FEMA4ImagesEEG,001,101603,
AMNE23.JPG,AMNE24.JPG,AMNE22.JPG,AMSA24.JPG,AMSA22.JPG,AMSA23.JPG,,,,,,,,,,,,,,,,,0,4,4,9,,,,,,,AFNE12.jpg,AFSA12.jpg,AFSA05.jpg,AFNE10.jpg,AFNE12.jpg,FN,3,num_8,16,num_8,1.15008982318,,,2017_Sep_12_1651,60.0064860869,FEMA4ImagesEEG,001,101603,
AFSA25.JPG,AFNE24.JPG,AFSA24.JPG,AFNE21.JPG,AFSA21.JPG,AFNE25.JPG,,,,,,,,,,,,,,,,,0,5,5,2,,,,,,,AFSA07.jpg,AFNE03.jpg,AFNE10.jpg,AFSA20.jpg,AFNE10.jpg,FN,3,num_2,32,num_6,2.33334765956,,,2017_Sep_12_1651,60.0064860869,FEMA4ImagesEEG,001,101603,
AFSA21.JPG,AFNE23.JPG,AFNE21.JPG,AFSA25.JPG,AFNE25.JPG,AFSA23.JPG,,,,,,,,,,,,,,,,,0,6,6,4,,,,,,,AFNE15.jpg,AFSA12.jpg,AFNE13.jpg,AFSA18.jpg,AFNE15.jpg,FN,3,num_8,16,num_8,1.75003921031,,,2017_Sep_12_1651,60.0064860869,FEMA4ImagesEEG,001,101603,
AFNE22.JPG,AFSA24.JPG,AFSA22.JPG,AFNE25.JPG,AFNE24.JPG,AFSA25.JPG,,,,,,,,,,,,,,,,,0,7,7,6,,,,,,,AFNE18.jpg,AFSA05.jpg,AFSA19.jpg,AFNE20.jpg,AFNE18.jpg,FN,3,num_8,16,num_8,0.950145503506,,,2017_Sep_12_1651,60.0064860869,FEMA4ImagesEEG,001,101603,
AMSA25.JPG,AMNE24.JPG,AMSA24.JPG,AMNE26.JPG,AMSA21.JPG,AMNE25.JPG,,,,,,,,,,,,,,,,,0,8,8,3,,,,,,,AFSA19.jpg,AFNE13.jpg,AFSA12.jpg,AFNE01.jpg,AFNE01.jpg,FN,3,num_4,16,num_4,0.650090625044,,,2017_Sep_12_1651,60.0064860869,FEMA4ImagesEEG,001,101603,
AMSA21.JPG,AMNE23.JPG,AMNE21.JPG,AMSA25.JPG,AMNE25.JPG,AMSA23.JPG,,,,,,,,,,,,,,,,,0,9,9,5,,,,,,,AFNE08.jpg,AFNE05.jpg,AFSA18.jpg,AFSA20.jpg,AFSA18.jpg,FS,4,num_2,32,num_4,1.43340273062,,,2017_Sep_12_1651,60.0064860869,FEMA4ImagesEEG,001,101603,
AMSA21.JPG,AMNE22.JPG,AMNE21.JPG,AMSA23.JPG,AMSA22.JPG,AMNE23.JPG,,,,,,,,,,,,,,,,,,,,,0,0,0,1,,,AMSA03.jpg,AMNE08.jpg,AMSA12.jpg,AMNE11.jpg,AMNE08.jpg,MN,1,num_6,16,num_6,1.16674102494,,,2017_Sep_12_1651,60.0064860869,FEMA4ImagesEEG,001,101603,
AFNE22.JPG,AFSA24.JPG,AFSA22.JPG,AFNE25.JPG,AFNE24.JPG,AFSA25.JPG,,,,,,,,,,,,,,,,,,,,,0,1,1,6,,,AMSA09.jpg,AMNE14.jpg,AMNE15.jpg,AMSA16.jpg,AMNE15.jpg,MN,1,num_2,32,num_8,1.26672713668,,,2017_Sep_12_1651,60.0064860869,FEMA4ImagesEEG,001,101603,
AFNE23.JPG,AFNE24.JPG,AFNE22.JPG,AFSA24.JPG,AFSA22.JPG,AFSA23.JPG,,,,,,,,,,,,,,,,,,,,,0,2,2,8,,,AMNE12.jpg,AMSA20.jpg,AMSA15.jpg,AMNE09.jpg,AMNE12.jpg,MN,1,num_8,32,num_2,3.16643792577,,,2017_Sep_12_1651,60.0064860869,FEMA4ImagesEEG,001,101603,
AMSA25.JPG,AMNE24.JPG,AMSA24.JPG,AMNE26.JPG,AMSA21.JPG,AMNE25.JPG,,,,,,,,,,,,,,,,,,,,,0,3,3,3,,,AMNE17.jpg,AMSA17.jpg,AMSA05.jpg,AMNE20.jpg,AMSA17.jpg,MS,2,num_6,32,num_4,1.38343373034,,,2017_Sep_12_1651,60.0064860869,FEMA4ImagesEEG,001,101603,
AMNE23.JPG,AMNE24.JPG,AMNE22.JPG,AMSA24.JPG,AMSA22.JPG,AMSA23.JPG,,,,,,,,,,,,,,,,,,,,,0,4,4,9,,,AMSA09.jpg,AMNE11.jpg,AMNE17.jpg,AMSA12.jpg,AMNE11.jpg,MN,1,num_6,32,num_8,1.15010457719,,,2017_Sep_12_1651,60.0064860869,FEMA4ImagesEEG,001,101603,
AFSA25.JPG,AFNE24.JPG,AFSA24.JPG,AFNE21.JPG,AFSA21.JPG,AFNE25.JPG,,,,,,,,,,,,,,,,,,,,,0,5,5,2,,,AMNE01.jpg,AMSA02.jpg,AMSA17.jpg,AMNE17.jpg,AMSA17.jpg,MS,2,num_2,16,num_2,2.51665200363,,,2017_Sep_12_1651,60.0064860869,FEMA4ImagesEEG,001,101603,
AFSA21.JPG,AFNE22.JPG,AFNE21.JPG,AFSA23.JPG,AFSA22.JPG,AFNE23.JPG,,,,,,,,,,,,,,,,,,,,,0,6,6,0,,,AMSA18.jpg,AMSA19.jpg,AMNE12.jpg,AMNE09.jpg,AMSA18.jpg,MS,2,num_8,32,num_4,1.6502394483,,,2017_Sep_12_1651,60.0064860869,FEMA4ImagesEEG,001,101603,
AMNE22.JPG,AMSA24.JPG,AMSA22.JPG,AMNE25.JPG,AMNE24.JPG,AMSA25.JPG,,,,,,,,,,,,,,,,,,,,,0,7,7,7,,,AMSA04.jpg,AMNE11.jpg,AMSA12.jpg,AMNE07.jpg,AMNE11.jpg,MN,1,num_6,16,num_6,1.0167624983,,,2017_Sep_12_1651,60.0064860869,FEMA4ImagesEEG,001,101603,
AFSA21.JPG,AFNE23.JPG,AFNE21.JPG,AFSA25.JPG,AFNE25.JPG,AFSA23.JPG,,,,,,,,,,,,,,,,,,,,,0,8,8,4,,,AMNE11.jpg,AMNE17.jpg,AMSA01.jpg,AMSA02.jpg,AMSA02.jpg,MS,2,num_4,16,num_4,1.33371618972,,,2017_Sep_12_1651,60.0064860869,FEMA4ImagesEEG,001,101603,
AMSA21.JPG,AMNE23.JPG,AMNE21.JPG,AMSA25.JPG,AMNE25.JPG,AMSA23.JPG,,,,,,,,,,,,,,,,,,,,,0,9,9,5,,,AMSA07.jpg,AMNE17.jpg,AMSA11.jpg,AMNE04.jpg,AMSA07.jpg,MS,2,num_8,16,num_8,1.40008140379,,,2017_Sep_12_1651,60.0064860869,FEMA4ImagesEEG,001,101603,
,,,,,,,,,,,,,,,,,,,,,,,,,,,,,,,,,,,,,,,,,,,space,419.983821889,2017_Sep_12_1651,60.0064860869,FEMA4ImagesEEG,001,101603,
AFNE01.JPG,AFNE01.JPG,AFNE01.JPG,AFNE01.JPG,AFNE01.JPG,AFNE01.JPG,0,0,0,4,,,,,,,,,,,,,,,,,,,,,,,AFNE11.jpg,AFNE14.jpg,AFSA07.jpg,AFSA11.jpg,AFSA07.jpg,FS,4,num_2,32,num_8,1.20008223783,,,2017_Sep_12_1651,60.0064860869,FEMA4ImagesEEG,001,101603,
AFNE01.JPG,AFNE01.JPG,AFNE01.JPG,AFNE01.JPG,AFNE01.JPG,AFNE01.JPG,0,1,1,5,,,,,,,,,,,,,,,,,,,,,,,AFNE01.jpg,AFNE16.jpg,AFSA13.jpg,AFSA04.jpg,AFNE16.jpg,FN,3,num_6,16,num_6,1.21673536371,,,2017_Sep_12_1651,60.0064860869,FEMA4ImagesEEG,001,101603,
AFNE01.JPG,AFNE01.JPG,AFNE01.JPG,AFNE01.JPG,AFNE01.JPG,AFNE01.JPG,0,2,2,3,,,,,,,,,,,,,,,,,,,,,,,AFSA19.jpg,AFNE20.jpg,AFNE12.jpg,AFSA12.jpg,AFSA19.jpg,FS,4,num_8,16,num_8,1.04967295774,,,2017_Sep_12_1651,60.0064860869,FEMA4ImagesEEG,001,101603,
AFNE01.JPG,AFNE01.JPG,AFNE01.JPG,AFNE01.JPG,AFNE01.JPG,AFNE01.JPG,0,3,3,7,,,,,,,,,,,,,,,,,,,,,,,AFSA08.jpg,AFNE07.jpg,AFSA11.jpg,AFNE02.jpg,AFNE07.jpg,FN,3,num_6,16,num_6,1.15010714321,,,2017_Sep_12_1651,60.0064860869,FEMA4ImagesEEG,001,101603,
AFNE01.JPG,AFNE01.JPG,AFNE01.JPG,AFNE01.JPG,AFNE01.JPG,AFNE01.JPG,0,4,4,8,,,,,,,,,,,,,,,,,,,,,,,AFNE10.jpg,AFSA12.jpg,AFSA15.jpg,AFNE19.jpg,AFSA15.jpg,FS,4,num_2,16,num_2,1.86668742914,,,2017_Sep_12_1651,60.0064860869,FEMA4ImagesEEG,001,101603,
AFNE01.JPG,AFNE01.JPG,AFNE01.JPG,AFNE01.JPG,AFNE01.JPG,AFNE01.JPG,0,5,5,0,,,,,,,,,,,,,,,,,,,,,,,AFNE10.jpg,AFSA11.jpg,AFNE08.jpg,AFSA02.jpg,AFNE10.jpg,FN,3,num_8,16,num_8,0.716764070094,,,2017_Sep_12_1651,60.0064860869,FEMA4ImagesEEG,001,101603,
AFNE01.JPG,AFNE01.JPG,AFNE01.JPG,AFNE01.JPG,AFNE01.JPG,AFNE01.JPG,0,6,6,2,,,,,,,,,,,,,,,,,,,,,,,AFNE02.jpg,AFSA12.jpg,AFSA02.jpg,AFNE14.jpg,AFNE02.jpg,FN,3,num_8,32,num_2,2.00002309331,,,2017_Sep_12_1651,60.0064860869,FEMA4ImagesEEG,001,101603,
AFNE01.JPG,AFNE01.JPG,AFNE01.JPG,AFNE01.JPG,AFNE01.JPG,AFNE01.JPG,0,7,7,1,,,,,,,,,,,,,,,,,,,,,,,AFNE09.jpg,AFSA01.jpg,AFSA14.jpg,AFNE19.jpg,AFNE19.jpg,FN,3,num_4,32,num_8,1.20006331406,,,2017_Sep_12_1651,60.0064860869,FEMA4ImagesEEG,001,101603,
AFNE01.JPG,AFNE01.JPG,AFNE01.JPG,AFNE01.JPG,AFNE01.JPG,AFNE01.JPG,0,8,8,9,,,,,,,,,,,,,,,,,,,,,,,AFNE17.jpg,AFNE03.jpg,AFSA20.jpg,AFSA09.jpg,AFSA20.jpg,FS,4,num_2,16,num_2,1.96664499538,,,2017_Sep_12_1651,60.0064860869,FEMA4ImagesEEG,001,101603,
AFNE01.JPG,AFNE01.JPG,AFNE01.JPG,AFNE01.JPG,AFNE01.JPG,AFNE01.JPG,0,9,9,6,,,,,,,,,,,,,,,,,,,,,,,AFNE02.jpg,AFSA11.jpg,AFSA02.jpg,AFNE12.jpg,AFSA11.jpg,FS,4,num_6,16,num_6,1.3333864694,,,2017_Sep_12_1651,60.0064860869,FEMA4ImagesEEG,001,101603,
AFNE01.JPG,AFNE01.JPG,AFNE01.JPG,AFNE01.JPG,AFNE01.JPG,AFNE01.JPG,1,0,10,4,,,,,,,,,,,,,,,,,,,,,,,AFNE07.jpg,AFSA09.jpg,AFSA18.jpg,AFNE01.jpg,AFNE01.jpg,FN,3,num_4,32,num_8,0.950098675676,,,2017_Sep_12_1651,60.0064860869,FEMA4ImagesEEG,001,101603,
AFNE01.JPG,AFNE01.JPG,AFNE01.JPG,AFNE01.JPG,AFNE01.JPG,AFNE01.JPG,1,1,11,2,,,,,,,,,,,,,,,,,,,,,,,AFNE06.jpg,AFSA18.jpg,AFNE15.jpg,AFSA03.jpg,AFSA03.jpg,FS,4,num_4,16,num_4,1.89988430915,,,2017_Sep_12_1651,60.0064860869,FEMA4ImagesEEG,001,101603,
AFNE01.JPG,AFNE01.JPG,AFNE01.JPG,AFNE01.JPG,AFNE01.JPG,AFNE01.JPG,1,2,12,6,,,,,,,,,,,,,,,,,,,,,,,AFSA02.jpg,AFNE13.jpg,AFNE01.jpg,AFSA01.jpg,AFNE13.jpg,FN,3,num_6,16,num_6,0.800147411879,,,2017_Sep_12_1651,60.0064860869,FEMA4ImagesEEG,001,101603,
AFNE01.JPG,AFNE01.JPG,AFNE01.JPG,AFNE01.JPG,AFNE01.JPG,AFNE01.JPG,1,3,13,9,,,,,,,,,,,,,,,,,,,,,,,AFSA11.jpg,AFNE09.jpg,AFNE01.jpg,AFSA19.jpg,AFNE01.jpg,FN,3,num_2,32,num_8,1.26673740055,,,2017_Sep_12_1651,60.0064860869,FEMA4ImagesEEG,001,101603,
AFNE01.JPG,AFNE01.JPG,AFNE01.JPG,AFNE01.JPG,AFNE01.JPG,AFNE01.JPG,1,4,14,0,,,,,,,,,,,,,,,,,,,,,,,AFSA09.jpg,AFNE16.jpg,AFNE13.jpg,AFSA10.jpg,AFNE13.jpg,FN,3,num_2,16,num_2,1.00010873075,,,2017_Sep_12_1651,60.0064860869,FEMA4ImagesEEG,001,101603,
AFNE01.JPG,AFNE01.JPG,AFNE01.JPG,AFNE01.JPG,AFNE01.JPG,AFNE01.JPG,1,5,15,8,,,,,,,,,,,,,,,,,,,,,,,AFNE02.jpg,AFSA18.jpg,AFNE07.jpg,AFSA13.jpg,AFSA13.jpg,FS,4,num_4,16,num_4,1.63350453344,,,2017_Sep_12_1651,60.0064860869,FEMA4ImagesEEG,001,101603,
AFNE01.JPG,AFNE01.JPG,AFNE01.JPG,AFNE01.JPG,AFNE01.JPG,AFNE01.JPG,1,6,16,3,,,,,,,,,,,,,,,,,,,,,,,AFSA02.jpg,AFNE16.jpg,AFSA09.jpg,AFNE07.jpg,AFSA09.jpg,FS,4,num_2,16,num_2,1.50010664598,,,2017_Sep_12_1651,60.0064860869,FEMA4ImagesEEG,001,101603,
AFNE01.JPG,AFNE01.JPG,AFNE01.JPG,AFNE01.JPG,AFNE01.JPG,AFNE01.JPG,1,7,17,5,,,,,,,,,,,,,,,,,,,,,,,AFNE02.jpg,AFSA18.jpg,AFSA16.jpg,AFNE14.jpg,AFNE14.jpg,FN,3,num_4,32,num_8,1.56672524428,,,2017_Sep_12_1651,60.0064860869,FEMA4ImagesEEG,001,101603,
AFNE01.JPG,AFNE01.JPG,AFNE01.JPG,AFNE01.JPG,AFNE01.JPG,AFNE01.JPG,1,8,18,7,,,,,,,,,,,,,,,,,,,,,,,AFSA03.jpg,AFSA13.jpg,AFNE10.jpg,AFNE14.jpg,AFNE14.jpg,FN,3,num_4,16,num_4,1.30006610462,,,2017_Sep_12_1651,60.0064860869,FEMA4ImagesEEG,001,101603,
AFNE01.JPG,AFNE01.JPG,AFNE01.JPG,AFNE01.JPG,AFNE01.JPG,AFNE01.JPG,1,9,19,1,,,,,,,,,,,,,,,,,,,,,,,AFNE19.jpg,AFSA15.jpg,AFNE04.jpg,AFSA05.jpg,AFNE04.jpg,FN,3,num_2,32,num_8,1.28347552265,,,2017_Sep_12_1651,60.0064860869,FEMA4ImagesEEG,001,101603,
AFNE01.JPG,AFNE01.JPG,AFNE01.JPG,AFNE01.JPG,AFNE01.JPG,AFNE01.JPG,2,0,20,5,,,,,,,,,,,,,,,,,,,,,,,AFSA16.jpg,AFNE04.jpg,AFSA08.jpg,AFNE02.jpg,AFSA08.jpg,FS,4,num_2,16,num_2,2.0166871245,,,2017_Sep_12_1651,60.0064860869,FEMA4ImagesEEG,001,101603,
AFNE01.JPG,AFNE01.JPG,AFNE01.JPG,AFNE01.JPG,AFNE01.JPG,AFNE01.JPG,2,1,21,0,,,,,,,,,,,,,,,,,,,,,,,AFNE08.jpg,AFSA02.jpg,AFNE07.jpg,AFSA03.jpg,AFNE07.jpg,FN,3,num_2,32,num_8,1.13346267701,,,2017_Sep_12_1651,60.0064860869,FEMA4ImagesEEG,001,101603,
AFNE01.JPG,AFNE01.JPG,AFNE01.JPG,AFNE01.JPG,AFNE01.JPG,AFNE01.JPG,2,2,22,2,,,,,,,,,,,,,,,,,,,,,,,AFNE11.jpg,AFNE02.jpg,AFSA19.jpg,AFSA07.jpg,AFNE11.jpg,FN,3,num_8,32,num_4,3.11632363009,,,2017_Sep_12_1651,60.0064860869,FEMA4ImagesEEG,001,101603,
AFNE01.JPG,AFNE01.JPG,AFNE01.JPG,AFNE01.JPG,AFNE01.JPG,AFNE01.JPG,2,3,23,1,,,,,,,,,,,,,,,,,,,,,,,AFNE11.jpg,AFSA05.jpg,AFNE05.jpg,AFSA06.jpg,AFSA05.jpg,FS,4,num_6,16,num_6,0.533492120914,,,2017_Sep_12_1651,60.0064860869,FEMA4ImagesEEG,001,101603,
AFNE01.JPG,AFNE01.JPG,AFNE01.JPG,AFNE01.JPG,AFNE01.JPG,AFNE01.JPG,2,4,24,7,,,,,,,,,,,,,,,,,,,,,,,AFSA02.jpg,AFSA15.jpg,AFNE03.jpg,AFNE20.jpg,AFSA15.jpg,FS,4,num_6,16,num_6,0.400174739072,,,2017_Sep_12_1651,60.0064860869,FEMA4ImagesEEG,001,101603,
AFNE01.JPG,AFNE01.JPG,AFNE01.JPG,AFNE01.JPG,AFNE01.JPG,AFNE01.JPG,2,5,25,3,,,,,,,,,,,,,,,,,,,,,,,AFSA19.jpg,AFSA14.jpg,AFNE14.jpg,AFNE12.jpg,AFSA14.jpg,FS,4,num_6,16,num_6,0.61676929798,,,2017_Sep_12_1651,60.0064860869,FEMA4ImagesEEG,001,101603,
AFNE01.JPG,AFNE01.JPG,AFNE01.JPG,AFNE01.JPG,AFNE01.JPG,AFNE01.JPG,2,6,26,4,,,,,,,,,,,,,,,,,,,,,,,AFNE20.jpg,AFSA14.jpg,AFSA20.jpg,AFNE16.jpg,AFNE16.jpg,FN,3,num_4,32,num_2,1.58347266796,,,2017_Sep_12_1651,60.0064860869,FEMA4ImagesEEG,001,101603,
AFNE01.JPG,AFNE01.JPG,AFNE01.JPG,AFNE01.JPG,AFNE01.JPG,AFNE01.JPG,2,7,27,6,,,,,,,,,,,,,,,,,,,,,,,AFSA03.jpg,AFNE09.jpg,AFNE04.jpg,AFSA18.jpg,AFNE04.jpg,FN,3,num_2,32,num_6,1.20006908756,,,2017_Sep_12_1651,60.0064860869,FEMA4ImagesEEG,001,101603,
AFNE01.JPG,AFNE01.JPG,AFNE01.JPG,AFNE01.JPG,AFNE01.JPG,AFNE01.JPG,2,8,28,9,,,,,,,,,,,,,,,,,,,,,,,AFSA02.jpg,AFNE01.jpg,AFNE06.jpg,AFSA11.jpg,AFNE06.jpg,FN,3,num_2,32,num_6,0.933303141035,,,2017_Sep_12_1651,60.0064860869,FEMA4ImagesEEG,001,101603,
AFNE01.JPG,AFNE01.JPG,AFNE01.JPG,AFNE01.JPG,AFNE01.JPG,AFNE01.JPG,2,9,29,8,,,,,,,,,,,,,,,,,,,,,,,AFNE13.jpg,AFNE16.jpg,AFSA19.jpg,AFSA11.jpg,AFSA19.jpg,FS,4,num_2,16,num_2,1.08327012067,,,2017_Sep_12_1651,60.0064860869,FEMA4ImagesEEG,001,101603,
AFNE01.JPG,AFNE01.JPG,AFNE01.JPG,AFNE01.JPG,AFNE01.JPG,AFNE01.JPG,3,0,30,4,,,,,,,,,,,,,,,,,,,,,,,AFNE12.jpg,AFSA10.jpg,AFNE07.jpg,AFSA13.jpg,AFNE07.jpg,FN,3,num_2,32,num_8,1.35007359367,,,2017_Sep_12_1651,60.0064860869,FEMA4ImagesEEG,001,101603,
AFNE01.JPG,AFNE01.JPG,AFNE01.JPG,AFNE01.JPG,AFNE01.JPG,AFNE01.JPG,3,1,31,2,,,,,,,,,,,,,,,,,,,,,,,AFSA20.jpg,AFSA04.jpg,AFNE19.jpg,AFNE08.jpg,AFSA04.jpg,FS,4,num_6,16,num_6,1.18343616766,,,2017_Sep_12_1651,60.0064860869,FEMA4ImagesEEG,001,101603,
AFNE01.JPG,AFNE01.JPG,AFNE01.JPG,AFNE01.JPG,AFNE01.JPG,AFNE01.JPG,3,2,32,9,,,,,,,,,,,,,,,,,,,,,,,AFSA06.jpg,AFSA10.jpg,AFNE05.jpg,AFNE12.jpg,AFSA10.jpg,FS,4,num_6,32,num_4,2.00001090509,,,2017_Sep_12_1651,60.0064860869,FEMA4ImagesEEG,001,101603,
AFNE01.JPG,AFNE01.JPG,AFNE01.JPG,AFNE01.JPG,AFNE01.JPG,AFNE01.JPG,3,3,33,3,,,,,,,,,,,,,,,,,,,,,,,AFSA11.jpg,AFNE01.jpg,AFSA04.jpg,AFNE13.jpg,AFSA11.jpg,FS,4,num_8,32,num_6,1.46671603899,,,2017_Sep_12_1651,60.0064860869,FEMA4ImagesEEG,001,101603,
AFNE01.JPG,AFNE01.JPG,AFNE01.JPG,AFNE01.JPG,AFNE01.JPG,AFNE01.JPG,3,4,34,6,,,,,,,,,,,,,,,,,,,,,,,AFSA09.jpg,AFSA08.jpg,AFNE13.jpg,AFNE02.jpg,AFSA08.jpg,FS,4,num_6,32,num_8,1.30013827095,,,2017_Sep_12_1651,60.0064860869,FEMA4ImagesEEG,001,101603,
AFNE01.JPG,AFNE01.JPG,AFNE01.JPG,AFNE01.JPG,AFNE01.JPG,AFNE01.JPG,3,5,35,0,,,,,,,,,,,,,,,,,,,,,,,AFSA20.jpg,AFSA14.jpg,AFNE11.jpg,AFNE06.jpg,AFNE11.jpg,FN,3,num_2,32,num_6,0.866760237142,,,2017_Sep_12_1651,60.0064860869,FEMA4ImagesEEG,001,101603,
AFNE01.JPG,AFNE01.JPG,AFNE01.JPG,AFNE01.JPG,AFNE01.JPG,AFNE01.JPG,3,6,36,8,,,,,,,,,,,,,,,,,,,,,,,AFSA19.jpg,AFSA11.jpg,AFNE11.jpg,AFNE01.jpg,AFNE01.jpg,FN,3,num_4,16,num_4,1.43341588113,,,2017_Sep_12_1651,60.0064860869,FEMA4ImagesEEG,001,101603,
AFNE01.JPG,AFNE01.JPG,AFNE01.JPG,AFNE01.JPG,AFNE01.JPG,AFNE01.JPG,3,7,37,1,,,,,,,,,,,,,,,,,,,,,,,AFNE08.jpg,AFSA16.jpg,AFNE03.jpg,AFSA07.jpg,AFNE03.jpg,FN,3,num_2,32,num_8,1.2000908975,,,2017_Sep_12_1651,60.0064860869,FEMA4ImagesEEG,001,101603,
AFNE01.JPG,AFNE01.JPG,AFNE01.JPG,AFNE01.JPG,AFNE01.JPG,AFNE01.JPG,3,8,38,7,,,,,,,,,,,,,,,,,,,,,,,AFNE06.jpg,AFSA05.jpg,AFNE07.jpg,AFSA17.jpg,AFSA05.jpg,FS,4,num_6,16,num_6,1.13339724601,,,2017_Sep_12_1651,60.0064860869,FEMA4ImagesEEG,001,101603,
AFNE01.JPG,AFNE01.JPG,AFNE01.JPG,AFNE01.JPG,AFNE01.JPG,AFNE01.JPG,3,9,39,5,,,,,,,,,,,,,,,,,,,,,,,AFSA20.jpg,AFSA16.jpg,AFNE08.jpg,AFNE12.jpg,AFSA20.jpg,FS,4,num_8,32,num_4,1.60004272265,,,2017_Sep_12_1651,60.0064860869,FEMA4ImagesEEG,001,101603,
AFNE01.JPG,AFNE01.JPG,AFNE01.JPG,AFNE01.JPG,AFNE01.JPG,AFNE01.JPG,4,0,40,5,,,,,,,,,,,,,,,,,,,,,,,AFSA03.jpg,AFSA20.jpg,AFNE17.jpg,AFNE15.jpg,AFSA20.jpg,FS,4,num_6,16,num_6,0.899976040702,,,2017_Sep_12_1651,60.0064860869,FEMA4ImagesEEG,001,101603,
AFNE01.JPG,AFNE01.JPG,AFNE01.JPG,AFNE01.JPG,AFNE01.JPG,AFNE01.JPG,4,1,41,7,,,,,,,,,,,,,,,,,,,,,,,AFSA10.jpg,AFNE12.jpg,AFNE20.jpg,AFSA18.jpg,AFSA18.jpg,FS,4,num_4,32,num_8,1.76670869417,,,2017_Sep_12_1651,60.0064860869,FEMA4ImagesEEG,001,101603,
AFNE01.JPG,AFNE01.JPG,AFNE01.JPG,AFNE01.JPG,AFNE01.JPG,AFNE01.JPG,4,2,42,2,,,,,,,,,,,,,,,,,,,,,,,AFNE05.jpg,AFSA16.jpg,AFSA02.jpg,AFNE04.jpg,AFNE04.jpg,FN,3,num_4,16,num_4,0.883431645576,,,2017_Sep_12_1651,60.0064860869,FEMA4ImagesEEG,001,101603,
AFNE01.JPG,AFNE01.JPG,AFNE01.JPG,AFNE01.JPG,AFNE01.JPG,AFNE01.JPG,4,3,43,1,,,,,,,,,,,,,,,,,,,,,,,AFNE07.jpg,AFNE20.jpg,AFSA14.jpg,AFSA08.jpg,AFSA08.jpg,FS,4,num_4,16,num_4,0.666797955986,,,2017_Sep_12_1651,60.0064860869,FEMA4ImagesEEG,001,101603,
AFNE01.JPG,AFNE01.JPG,AFNE01.JPG,AFNE01.JPG,AFNE01.JPG,AFNE01.JPG,4,4,44,8,,,,,,,,,,,,,,,,,,,,,,,AFNE16.jpg,AFSA12.jpg,AFSA20.jpg,AFNE18.jpg,AFNE16.jpg,FN,3,num_8,16,num_8,1.66716135433,,,2017_Sep_12_1651,60.0064860869,FEMA4ImagesEEG,001,101603,
AFNE01.JPG,AFNE01.JPG,AFNE01.JPG,AFNE01.JPG,AFNE01.JPG,AFNE01.JPG,4,5,45,0,,,,,,,,,,,,,,,,,,,,,,,AFNE16.jpg,AFSA20.jpg,AFNE03.jpg,AFSA10.jpg,AFSA20.jpg,FS,4,num_6,16,num_6,1.2000639555,,,2017_Sep_12_1651,60.0064860869,FEMA4ImagesEEG,001,101603,
AFNE01.JPG,AFNE01.JPG,AFNE01.JPG,AFNE01.JPG,AFNE01.JPG,AFNE01.JPG,4,6,46,3,,,,,,,,,,,,,,,,,,,,,,,AFSA15.jpg,AFNE15.jpg,AFNE01.jpg,AFSA08.jpg,AFSA08.jpg,FS,4,num_4,16,num_4,1.06674657366,,,2017_Sep_12_1651,60.0064860869,FEMA4ImagesEEG,001,101603,
AFNE01.JPG,AFNE01.JPG,AFNE01.JPG,AFNE01.JPG,AFNE01.JPG,AFNE01.JPG,4,7,47,6,,,,,,,,,,,,,,,,,,,,,,,AFSA02.jpg,AFSA13.jpg,AFNE01.jpg,AFNE09.jpg,AFSA13.jpg,FS,4,num_6,32,num_8,1.18344450695,,,2017_Sep_12_1651,60.0064860869,FEMA4ImagesEEG,001,101603,
AFNE01.JPG,AFNE01.JPG,AFNE01.JPG,AFNE01.JPG,AFNE01.JPG,AFNE01.JPG,4,8,48,4,,,,,,,,,,,,,,,,,,,,,,,AFNE06.jpg,AFSA11.jpg,AFNE10.jpg,AFSA16.jpg,AFSA11.jpg,FS,4,num_6,48,None,,,,2017_Sep_12_1651,60.0064860869,FEMA4ImagesEEG,001,101603,
AFNE01.JPG,AFNE01.JPG,AFNE01.JPG,AFNE01.JPG,AFNE01.JPG,AFNE01.JPG,4,9,49,9,,,,,,,,,,,,,,,,,,,,,,,AFNE04.jpg,AFSA08.jpg,AFSA17.jpg,AFNE16.jpg,AFSA17.jpg,FS,4,num_2,32,num_8,0.966757254209,,,2017_Sep_12_1651,60.0064860869,FEMA4ImagesEEG,001,101603,
AFNE01.JPG,AFNE01.JPG,AFNE01.JPG,AFNE01.JPG,AFNE01.JPG,AFNE01.JPG,5,0,50,5,,,,,,,,,,,,,,,,,,,,,,,AFSA17.jpg,AFSA18.jpg,AFNE13.jpg,AFNE19.jpg,AFNE13.jpg,FN,3,num_2,32,num_6,1.06678891135,,,2017_Sep_12_1651,60.0064860869,FEMA4ImagesEEG,001,101603,
AFNE01.JPG,AFNE01.JPG,AFNE01.JPG,AFNE01.JPG,AFNE01.JPG,AFNE01.JPG,5,1,51,9,,,,,,,,,,,,,,,,,,,,,,,AFSA05.jpg,AFSA20.jpg,AFNE20.jpg,AFNE04.jpg,AFSA05.jpg,FS,4,num_8,32,num_2,2.53328588535,,,2017_Sep_12_1651,60.0064860869,FEMA4ImagesEEG,001,101603,
AFNE01.JPG,AFNE01.JPG,AFNE01.JPG,AFNE01.JPG,AFNE01.JPG,AFNE01.JPG,5,2,52,7,,,,,,,,,,,,,,,,,,,,,,,AFSA14.jpg,AFNE03.jpg,AFNE01.jpg,AFSA02.jpg,AFNE03.jpg,FN,3,num_6,16,num_6,1.38343373011,,,2017_Sep_12_1651,60.0064860869,FEMA4ImagesEEG,001,101603,
AFNE01.JPG,AFNE01.JPG,AFNE01.JPG,AFNE01.JPG,AFNE01.JPG,AFNE01.JPG,5,3,53,8,,,,,,,,,,,,,,,,,,,,,,,AFNE15.jpg,AFSA12.jpg,AFSA03.jpg,AFNE11.jpg,AFNE15.jpg,FN,3,num_8,16,num_8,0.950102845207,,,2017_Sep_12_1651,60.0064860869,FEMA4ImagesEEG,001,101603,
AFNE01.JPG,AFNE01.JPG,AFNE01.JPG,AFNE01.JPG,AFNE01.JPG,AFNE01.JPG,5,4,54,2,,,,,,,,,,,,,,,,,,,,,,,AFSA19.jpg,AFNE04.jpg,AFNE20.jpg,AFSA13.jpg,AFSA19.jpg,FS,4,num_8,32,num_2,1.50005404465,,,2017_Sep_12_1651,60.0064860869,FEMA4ImagesEEG,001,101603,
AFNE01.JPG,AFNE01.JPG,AFNE01.JPG,AFNE01.JPG,AFNE01.JPG,AFNE01.JPG,5,5,55,0,,,,,,,,,,,,,,,,,,,,,,,AFSA19.jpg,AFSA13.jpg,AFNE10.jpg,AFNE15.jpg,AFSA19.jpg,FS,4,num_8,32,num_6,0.966750198044,,,2017_Sep_12_1651,60.0064860869,FEMA4ImagesEEG,001,101603,
AFNE01.JPG,AFNE01.JPG,AFNE01.JPG,AFNE01.JPG,AFNE01.JPG,AFNE01.JPG,5,6,56,1,,,,,,,,,,,,,,,,,,,,,,,AFSA07.jpg,AFNE13.jpg,AFNE05.jpg,AFSA17.jpg,AFNE05.jpg,FN,3,num_2,32,num_4,1.71670441236,,,2017_Sep_12_1651,60.0064860869,FEMA4ImagesEEG,001,101603,
AFNE01.JPG,AFNE01.JPG,AFNE01.JPG,AFNE01.JPG,AFNE01.JPG,AFNE01.JPG,5,7,57,3,,,,,,,,,,,,,,,,,,,,,,,AFNE08.jpg,AFSA06.jpg,AFSA19.jpg,AFNE05.jpg,AFNE08.jpg,FN,3,num_8,16,num_8,0.966777460882,,,2017_Sep_12_1651,60.0064860869,FEMA4ImagesEEG,001,101603,
AFNE01.JPG,AFNE01.JPG,AFNE01.JPG,AFNE01.JPG,AFNE01.JPG,AFNE01.JPG,5,8,58,6,,,,,,,,,,,,,,,,,,,,,,,AFNE17.jpg,AFNE08.jpg,AFSA12.jpg,AFSA18.jpg,AFNE17.jpg,FN,3,num_8,16,num_8,1.29996924126,,,2017_Sep_12_1651,60.0064860869,FEMA4ImagesEEG,001,101603,
AFNE01.JPG,AFNE01.JPG,AFNE01.JPG,AFNE01.JPG,AFNE01.JPG,AFNE01.JPG,5,9,59,4,,,,,,,,,,,,,,,,,,,,,,,AFSA15.jpg,AFSA09.jpg,AFNE12.jpg,AFNE05.jpg,AFNE12.jpg,FN,3,num_2,32,num_4,1.78335027373,,,2017_Sep_12_1651,60.0064860869,FEMA4ImagesEEG,001,101603,
,,,,,,,,,,,,,,,,,,,,,,,,,,,,,,,,,,,,,,,,,,,space,4.51646244642,2017_Sep_12_1651,60.0064860869,FEMA4ImagesEEG,001,101603,
AFNE01.JPG,AFNE01.JPG,AFNE01.JPG,AFNE01.JPG,AFNE01.JPG,AFNE01.JPG,,,,,0,0,0,8,,,,,,,,,,,,,,,,,,,AMSA13.jpg,AMSA01.jpg,AMNE16.jpg,AMNE02.jpg,AMSA01.jpg,MS,2,num_6,16,num_6,0.866778839845,,,2017_Sep_12_1651,60.0064860869,FEMA4ImagesEEG,001,101603,
AFNE01.JPG,AFNE01.JPG,AFNE01.JPG,AFNE01.JPG,AFNE01.JPG,AFNE01.JPG,,,,,0,1,1,2,,,,,,,,,,,,,,,,,,,AMSA17.jpg,AMNE10.jpg,AMNE17.jpg,AMSA20.jpg,AMNE10.jpg,MN,1,num_6,16,num_6,1.3333864694,,,2017_Sep_12_1651,60.0064860869,FEMA4ImagesEEG,001,101603,
AFNE01.JPG,AFNE01.JPG,AFNE01.JPG,AFNE01.JPG,AFNE01.JPG,AFNE01.JPG,,,,,0,2,2,1,,,,,,,,,,,,,,,,,,,AMSA07.jpg,AMNE01.jpg,AMNE08.jpg,AMSA01.jpg,AMNE01.jpg,MN,1,num_6,16,num_6,0.800135223893,,,2017_Sep_12_1651,60.0064860869,FEMA4ImagesEEG,001,101603,
AFNE01.JPG,AFNE01.JPG,AFNE01.JPG,AFNE01.JPG,AFNE01.JPG,AFNE01.JPG,,,,,0,3,3,5,,,,,,,,,,,,,,,,,,,AMNE17.jpg,AMNE06.jpg,AMSA08.jpg,AMSA17.jpg,AMNE17.jpg,MN,1,num_8,32,num_4,1.11672519636,,,2017_Sep_12_1651,60.0064860869,FEMA4ImagesEEG,001,101603,
AFNE01.JPG,AFNE01.JPG,AFNE01.JPG,AFNE01.JPG,AFNE01.JPG,AFNE01.JPG,,,,,0,4,4,7,,,,,,,,,,,,,,,,,,,AMSA06.jpg,AMNE03.jpg,AMNE14.jpg,AMSA18.jpg,AMNE03.jpg,MN,1,num_6,32,num_8,1.45007542195,,,2017_Sep_12_1651,60.0064860869,FEMA4ImagesEEG,001,101603,
AFNE01.JPG,AFNE01.JPG,AFNE01.JPG,AFNE01.JPG,AFNE01.JPG,AFNE01.JPG,,,,,0,5,5,0,,,,,,,,,,,,,,,,,,,AMSA01.jpg,AMSA04.jpg,AMNE11.jpg,AMNE07.jpg,AMSA04.jpg,MS,2,num_6,16,num_6,1.65004828735,,,2017_Sep_12_1651,60.0064860869,FEMA4ImagesEEG,001,101603,
AFNE01.JPG,AFNE01.JPG,AFNE01.JPG,AFNE01.JPG,AFNE01.JPG,AFNE01.JPG,,,,,0,6,6,6,,,,,,,,,,,,,,,,,,,AMNE05.jpg,AMNE13.jpg,AMSA13.jpg,AMSA02.jpg,AMSA02.jpg,MS,2,num_4,32,num_8,1.0834279249,,,2017_Sep_12_1651,60.0064860869,FEMA4ImagesEEG,001,101603,
AFNE01.JPG,AFNE01.JPG,AFNE01.JPG,AFNE01.JPG,AFNE01.JPG,AFNE01.JPG,,,,,0,7,7,3,,,,,,,,,,,,,,,,,,,AMNE17.jpg,AMNE04.jpg,AMSA20.jpg,AMSA13.jpg,AMSA20.jpg,MS,2,num_2,32,num_6,2.08336313535,,,2017_Sep_12_1651,60.0064860869,FEMA4ImagesEEG,001,101603,
AFNE01.JPG,AFNE01.JPG,AFNE01.JPG,AFNE01.JPG,AFNE01.JPG,AFNE01.JPG,,,,,0,8,8,9,,,,,,,,,,,,,,,,,,,AMNE17.jpg,AMNE01.jpg,AMSA19.jpg,AMSA11.jpg,AMSA11.jpg,MS,2,num_4,32,num_8,1.11673546,,,2017_Sep_12_1651,60.0064860869,FEMA4ImagesEEG,001,101603,
AFNE01.JPG,AFNE01.JPG,AFNE01.JPG,AFNE01.JPG,AFNE01.JPG,AFNE01.JPG,,,,,0,9,9,4,,,,,,,,,,,,,,,,,,,AMNE02.jpg,AMNE04.jpg,AMSA09.jpg,AMSA03.jpg,AMNE04.jpg,MN,1,num_6,16,num_6,0.766734353499,,,2017_Sep_12_1651,60.0064860869,FEMA4ImagesEEG,001,101603,
AFNE01.JPG,AFNE01.JPG,AFNE01.JPG,AFNE01.JPG,AFNE01.JPG,AFNE01.JPG,,,,,1,0,10,6,,,,,,,,,,,,,,,,,,,AMSA18.jpg,AMNE14.jpg,AMNE13.jpg,AMSA14.jpg,AMNE14.jpg,MN,1,num_6,16,num_6,0.983472603839,,,2017_Sep_12_1651,60.0064860869,FEMA4ImagesEEG,001,101603,
AFNE01.JPG,AFNE01.JPG,AFNE01.JPG,AFNE01.JPG,AFNE01.JPG,AFNE01.JPG,,,,,1,1,11,7,,,,,,,,,,,,,,,,,,,AMSA14.jpg,AMNE03.jpg,AMNE04.jpg,AMSA10.jpg,AMSA14.jpg,MS,2,num_8,32,num_2,1.83340234589,,,2017_Sep_12_1651,60.0064860869,FEMA4ImagesEEG,001,101603,
AFNE01.JPG,AFNE01.JPG,AFNE01.JPG,AFNE01.JPG,AFNE01.JPG,AFNE01.JPG,,,,,1,2,12,4,,,,,,,,,,,,,,,,,,,AMNE15.jpg,AMNE09.jpg,AMSA02.jpg,AMSA11.jpg,AMNE09.jpg,MN,1,num_6,32,num_8,1.06673727231,,,2017_Sep_12_1651,60.0064860869,FEMA4ImagesEEG,001,101603,
AFNE01.JPG,AFNE01.JPG,AFNE01.JPG,AFNE01.JPG,AFNE01.JPG,AFNE01.JPG,,,,,1,3,13,3,,,,,,,,,,,,,,,,,,,AMSA05.jpg,AMNE10.jpg,AMNE13.jpg,AMSA19.jpg,AMNE10.jpg,MN,1,num_6,16,num_6,0.633466365514,,,2017_Sep_12_1651,60.0064860869,FEMA4ImagesEEG,001,101603,
AFNE01.JPG,AFNE01.JPG,AFNE01.JPG,AFNE01.JPG,AFNE01.JPG,AFNE01.JPG,,,,,1,4,14,1,,,,,,,,,,,,,,,,,,,AMSA07.jpg,AMNE07.jpg,AMNE19.jpg,AMSA14.jpg,AMSA07.jpg,MS,2,num_8,32,num_2,1.75009598141,,,2017_Sep_12_1651,60.0064860869,FEMA4ImagesEEG,001,101603,
AFNE01.JPG,AFNE01.JPG,AFNE01.JPG,AFNE01.JPG,AFNE01.JPG,AFNE01.JPG,,,,,1,5,15,8,,,,,,,,,,,,,,,,,,,AMSA11.jpg,AMSA20.jpg,AMNE13.jpg,AMNE08.jpg,AMSA20.jpg,MS,2,num_6,32,num_8,0.833446287317,,,2017_Sep_12_1651,60.0064860869,FEMA4ImagesEEG,001,101603,
AFNE01.JPG,AFNE01.JPG,AFNE01.JPG,AFNE01.JPG,AFNE01.JPG,AFNE01.JPG,,,,,1,6,16,2,,,,,,,,,,,,,,,,,,,AMSA08.jpg,AMNE06.jpg,AMSA12.jpg,AMNE19.jpg,AMSA12.jpg,MS,2,num_2,32,num_8,0.633488496533,,,2017_Sep_12_1651,60.0064860869,FEMA4ImagesEEG,001,101603,
AFNE01.JPG,AFNE01.JPG,AFNE01.JPG,AFNE01.JPG,AFNE01.JPG,AFNE01.JPG,,,,,1,7,17,0,,,,,,,,,,,,,,,,,,,AMNE07.jpg,AMSA17.jpg,AMSA07.jpg,AMNE12.jpg,AMSA07.jpg,MS,2,num_2,32,num_8,0.733459533658,,,2017_Sep_12_1651,60.0064860869,FEMA4ImagesEEG,001,101603,
AFNE01.JPG,AFNE01.JPG,AFNE01.JPG,AFNE01.JPG,AFNE01.JPG,AFNE01.JPG,,,,,1,8,18,5,,,,,,,,,,,,,,,,,,,AMSA09.jpg,AMSA10.jpg,AMNE13.jpg,AMNE08.jpg,AMNE08.jpg,MN,1,num_4,16,num_4,1.40007017786,,,2017_Sep_12_1651,60.0064860869,FEMA4ImagesEEG,001,101603,
AFNE01.JPG,AFNE01.JPG,AFNE01.JPG,AFNE01.JPG,AFNE01.JPG,AFNE01.JPG,,,,,1,9,19,9,,,,,,,,,,,,,,,,,,,AMNE07.jpg,AMSA13.jpg,AMNE02.jpg,AMSA02.jpg,AMSA13.jpg,MS,2,num_6,16,num_6,1.58337676688,,,2017_Sep_12_1651,60.0064860869,FEMA4ImagesEEG,001,101603,
AFNE01.JPG,AFNE01.JPG,AFNE01.JPG,AFNE01.JPG,AFNE01.JPG,AFNE01.JPG,,,,,2,0,20,3,,,,,,,,,,,,,,,,,,,AMNE16.jpg,AMNE15.jpg,AMSA02.jpg,AMSA06.jpg,AMSA06.jpg,MS,2,num_4,16,num_4,0.816768143326,,,2017_Sep_12_1651,60.0064860869,FEMA4ImagesEEG,001,101603,
AFNE01.JPG,AFNE01.JPG,AFNE01.JPG,AFNE01.JPG,AFNE01.JPG,AFNE01.JPG,,,,,2,1,21,7,,,,,,,,,,,,,,,,,,,AMSA02.jpg,AMSA07.jpg,AMNE16.jpg,AMNE13.jpg,AMNE16.jpg,MN,1,num_2,32,num_8,0.833434740547,,,2017_Sep_12_1651,60.0064860869,FEMA4ImagesEEG,001,101603,
AFNE01.JPG,AFNE01.JPG,AFNE01.JPG,AFNE01.JPG,AFNE01.JPG,AFNE01.JPG,,,,,2,2,22,6,,,,,,,,,,,,,,,,,,,AMSA04.jpg,AMNE18.jpg,AMSA05.jpg,AMNE08.jpg,AMNE18.jpg,MN,1,num_6,32,num_2,1.60015017027,,,2017_Sep_12_1651,60.0064860869,FEMA4ImagesEEG,001,101603,
AFNE01.JPG,AFNE01.JPG,AFNE01.JPG,AFNE01.JPG,AFNE01.JPG,AFNE01.JPG,,,,,2,3,23,5,,,,,,,,,,,,,,,,,,,AMNE18.jpg,AMSA20.jpg,AMSA13.jpg,AMNE10.jpg,AMSA20.jpg,MS,2,num_6,32,num_4,1.25011474453,,,2017_Sep_12_1651,60.0064860869,FEMA4ImagesEEG,001,101603,
AFNE01.JPG,AFNE01.JPG,AFNE01.JPG,AFNE01.JPG,AFNE01.JPG,AFNE01.JPG,,,,,2,4,24,4,,,,,,,,,,,,,,,,,,,AMNE11.jpg,AMSA19.jpg,AMSA09.jpg,AMNE13.jpg,AMNE11.jpg,MN,1,num_8,16,num_8,1.45008889283,,,2017_Sep_12_1651,60.0064860869,FEMA4ImagesEEG,001,101603,
AFNE01.JPG,AFNE01.JPG,AFNE01.JPG,AFNE01.JPG,AFNE01.JPG,AFNE01.JPG,,,,,2,5,25,1,,,,,,,,,,,,,,,,,,,AMSA13.jpg,AMNE19.jpg,AMNE17.jpg,AMSA02.jpg,AMSA02.jpg,MS,2,num_4,16,num_4,1.86665246869,,,2017_Sep_12_1651,60.0064860869,FEMA4ImagesEEG,001,101603,
AFNE01.JPG,AFNE01.JPG,AFNE01.JPG,AFNE01.JPG,AFNE01.JPG,AFNE01.JPG,,,,,2,6,26,0,,,,,,,,,,,,,,,,,,,AMSA04.jpg,AMNE11.jpg,AMNE06.jpg,AMSA13.jpg,AMSA04.jpg,MS,2,num_8,32,num_6,1.06668242556,,,2017_Sep_12_1651,60.0064860869,FEMA4ImagesEEG,001,101603,
AFNE01.JPG,AFNE01.JPG,AFNE01.JPG,AFNE01.JPG,AFNE01.JPG,AFNE01.JPG,,,,,2,7,27,9,,,,,,,,,,,,,,,,,,,AMNE03.jpg,AMSA10.jpg,AMSA11.jpg,AMNE20.jpg,AMNE03.jpg,MN,1,num_8,32,num_2,0.450117117958,,,2017_Sep_12_1651,60.0064860869,FEMA4ImagesEEG,001,101603,
AFNE01.JPG,AFNE01.JPG,AFNE01.JPG,AFNE01.JPG,AFNE01.JPG,AFNE01.JPG,,,,,2,8,28,8,,,,,,,,,,,,,,,,,,,AMNE11.jpg,AMSA04.jpg,AMNE15.jpg,AMSA11.jpg,AMNE11.jpg,MN,1,num_8,16,num_8,1.46668845555,,,2017_Sep_12_1651,60.0064860869,FEMA4ImagesEEG,001,101603,
AFNE01.JPG,AFNE01.JPG,AFNE01.JPG,AFNE01.JPG,AFNE01.JPG,AFNE01.JPG,,,,,2,9,29,2,,,,,,,,,,,,,,,,,,,AMSA14.jpg,AMNE08.jpg,AMSA18.jpg,AMNE12.jpg,AMNE12.jpg,MN,1,num_4,16,num_4,4.66660390864,,,2017_Sep_12_1651,60.0064860869,FEMA4ImagesEEG,001,101603,
AFNE01.JPG,AFNE01.JPG,AFNE01.JPG,AFNE01.JPG,AFNE01.JPG,AFNE01.JPG,,,,,3,0,30,0,,,,,,,,,,,,,,,,,,,AMNE07.jpg,AMNE02.jpg,AMSA06.jpg,AMSA05.jpg,AMNE02.jpg,MN,1,num_6,16,num_6,1.01677244133,,,2017_Sep_12_1651,60.0064860869,FEMA4ImagesEEG,001,101603,
AFNE01.JPG,AFNE01.JPG,AFNE01.JPG,AFNE01.JPG,AFNE01.JPG,AFNE01.JPG,,,,,3,1,31,9,,,,,,,,,,,,,,,,,,,AMNE15.jpg,AMSA04.jpg,AMNE12.jpg,AMSA16.jpg,AMSA04.jpg,MS,2,num_6,32,num_4,1.05013225717,,,2017_Sep_12_1651,60.0064860869,FEMA4ImagesEEG,001,101603,
AFNE01.JPG,AFNE01.JPG,AFNE01.JPG,AFNE01.JPG,AFNE01.JPG,AFNE01.JPG,,,,,3,2,32,1,,,,,,,,,,,,,,,,,,,AMSA03.jpg,AMSA12.jpg,AMNE13.jpg,AMNE18.jpg,AMSA03.jpg,MS,2,num_8,32,num_6,0.516798260855,,,2017_Sep_12_1651,60.0064860869,FEMA4ImagesEEG,001,101603,
AFNE01.JPG,AFNE01.JPG,AFNE01.JPG,AFNE01.JPG,AFNE01.JPG,AFNE01.JPG,,,,,3,3,33,6,,,,,,,,,,,,,,,,,,,AMNE09.jpg,AMNE07.jpg,AMSA16.jpg,AMSA12.jpg,AMSA12.jpg,MS,2,num_4,32,num_2,1.3667575107,,,2017_Sep_12_1651,60.0064860869,FEMA4ImagesEEG,001,101603,
AFNE01.JPG,AFNE01.JPG,AFNE01.JPG,AFNE01.JPG,AFNE01.JPG,AFNE01.JPG,,,,,3,4,34,2,,,,,,,,,,,,,,,,,,,AMSA05.jpg,AMSA20.jpg,AMNE03.jpg,AMNE02.jpg,AMSA05.jpg,MS,2,num_8,32,num_2,1.45008889306,,,2017_Sep_12_1651,60.0064860869,FEMA4ImagesEEG,001,101603,
AFNE01.JPG,AFNE01.JPG,AFNE01.JPG,AFNE01.JPG,AFNE01.JPG,AFNE01.JPG,,,,,3,5,35,3,,,,,,,,,,,,,,,,,,,AMNE11.jpg,AMNE13.jpg,AMSA16.jpg,AMSA18.jpg,AMNE13.jpg,MN,1,num_6,32,num_8,0.850138222799,,,2017_Sep_12_1651,60.0064860869,FEMA4ImagesEEG,001,101603,
AFNE01.JPG,AFNE01.JPG,AFNE01.JPG,AFNE01.JPG,AFNE01.JPG,AFNE01.JPG,,,,,3,6,36,4,,,,,,,,,,,,,,,,,,,AMSA18.jpg,AMNE15.jpg,AMNE03.jpg,AMSA10.jpg,AMNE03.jpg,MN,1,num_2,32,num_4,1.8000829434,,,2017_Sep_12_1651,60.0064860869,FEMA4ImagesEEG,001,101603,
AFNE01.JPG,AFNE01.JPG,AFNE01.JPG,AFNE01.JPG,AFNE01.JPG,AFNE01.JPG,,,,,3,7,37,5,,,,,,,,,,,,,,,,,,,AMSA09.jpg,AMNE08.jpg,AMNE16.jpg,AMSA08.jpg,AMSA09.jpg,MS,2,num_8,32,num_6,1.16671279981,,,2017_Sep_12_1651,60.0064860869,FEMA4ImagesEEG,001,101603,
AFNE01.JPG,AFNE01.JPG,AFNE01.JPG,AFNE01.JPG,AFNE01.JPG,AFNE01.JPG,,,,,3,8,38,8,,,,,,,,,,,,,,,,,,,AMSA06.jpg,AMSA18.jpg,AMNE09.jpg,AMNE03.jpg,AMNE03.jpg,MN,1,num_4,32,num_8,1.00010905135,,,2017_Sep_12_1651,60.0064860869,FEMA4ImagesEEG,001,101603,
AFNE01.JPG,AFNE01.JPG,AFNE01.JPG,AFNE01.JPG,AFNE01.JPG,AFNE01.JPG,,,,,3,9,39,7,,,,,,,,,,,,,,,,,,,AMNE11.jpg,AMSA17.jpg,AMNE08.jpg,AMSA19.jpg,AMNE11.jpg,MN,1,num_8,16,num_8,0.633467969252,,,2017_Sep_12_1651,60.0064860869,FEMA4ImagesEEG,001,101603,
AFNE01.JPG,AFNE01.JPG,AFNE01.JPG,AFNE01.JPG,AFNE01.JPG,AFNE01.JPG,,,,,4,0,40,6,,,,,,,,,,,,,,,,,,,AMNE14.jpg,AMNE05.jpg,AMSA12.jpg,AMSA19.jpg,AMSA12.jpg,MS,2,num_2,32,num_4,0.866753501585,,,2017_Sep_12_1651,60.0064860869,FEMA4ImagesEEG,001,101603,
AFNE01.JPG,AFNE01.JPG,AFNE01.JPG,AFNE01.JPG,AFNE01.JPG,AFNE01.JPG,,,,,4,1,41,0,,,,,,,,,,,,,,,,,,,AMSA15.jpg,AMNE15.jpg,AMSA07.jpg,AMNE11.jpg,AMNE11.jpg,MN,1,num_4,32,num_6,0.883449927438,,,2017_Sep_12_1651,60.0064860869,FEMA4ImagesEEG,001,101603,
AFNE01.JPG,AFNE01.JPG,AFNE01.JPG,AFNE01.JPG,AFNE01.JPG,AFNE01.JPG,,,,,4,2,42,5,,,,,,,,,,,,,,,,,,,AMSA19.jpg,AMNE19.jpg,AMNE09.jpg,AMSA18.jpg,AMNE19.jpg,MN,1,num_6,32,num_4,1.71666945168,,,2017_Sep_12_1651,60.0064860869,FEMA4ImagesEEG,001,101603,
AFNE01.JPG,AFNE01.JPG,AFNE01.JPG,AFNE01.JPG,AFNE01.JPG,AFNE01.JPG,,,,,4,3,43,3,,,,,,,,,,,,,,,,,,,AMSA08.jpg,AMSA06.jpg,AMNE20.jpg,AMNE17.jpg,AMSA08.jpg,MS,2,num_8,32,num_6,0.683407782344,,,2017_Sep_12_1651,60.0064860869,FEMA4ImagesEEG,001,101603,
AFNE01.JPG,AFNE01.JPG,AFNE01.JPG,AFNE01.JPG,AFNE01.JPG,AFNE01.JPG,,,,,4,4,44,1,,,,,,,,,,,,,,,,,,,AMNE16.jpg,AMSA01.jpg,AMNE15.jpg,AMSA12.jpg,AMSA01.jpg,MS,2,num_6,16,num_6,0.850122506497,,,2017_Sep_12_1651,60.0064860869,FEMA4ImagesEEG,001,101603,
AFNE01.JPG,AFNE01.JPG,AFNE01.JPG,AFNE01.JPG,AFNE01.JPG,AFNE01.JPG,,,,,4,5,45,8,,,,,,,,,,,,,,,,,,,AMNE10.jpg,AMSA20.jpg,AMNE13.jpg,AMSA17.jpg,AMSA20.jpg,MS,2,num_6,32,num_8,1.93338043941,,,2017_Sep_12_1651,60.0064860869,FEMA4ImagesEEG,001,101603,
AFNE01.JPG,AFNE01.JPG,AFNE01.JPG,AFNE01.JPG,AFNE01.JPG,AFNE01.JPG,,,,,4,6,46,9,,,,,,,,,,,,,,,,,,,AMSA10.jpg,AMNE12.jpg,AMSA18.jpg,AMNE07.jpg,AMSA10.jpg,MS,2,num_8,32,num_2,2.43331997981,,,2017_Sep_12_1651,60.0064860869,FEMA4ImagesEEG,001,101603,
AFNE01.JPG,AFNE01.JPG,AFNE01.JPG,AFNE01.JPG,AFNE01.JPG,AFNE01.JPG,,,,,4,7,47,2,,,,,,,,,,,,,,,,,,,AMSA15.jpg,AMNE14.jpg,AMSA18.jpg,AMNE03.jpg,AMNE03.jpg,MN,1,num_4,32,num_8,1.15013312316,,,2017_Sep_12_1651,60.0064860869,FEMA4ImagesEEG,001,101603,
AFNE01.JPG,AFNE01.JPG,AFNE01.JPG,AFNE01.JPG,AFNE01.JPG,AFNE01.JPG,,,,,4,8,48,4,,,,,,,,,,,,,,,,,,,AMNE11.jpg,AMNE10.jpg,AMSA14.jpg,AMSA12.jpg,AMNE10.jpg,MN,1,num_6,32,num_4,1.18346022326,,,2017_Sep_12_1651,60.0064860869,FEMA4ImagesEEG,001,101603,
AFNE01.JPG,AFNE01.JPG,AFNE01.JPG,AFNE01.JPG,AFNE01.JPG,AFNE01.JPG,,,,,4,9,49,7,,,,,,,,,,,,,,,,,,,AMNE02.jpg,AMSA14.jpg,AMNE01.jpg,AMSA05.jpg,AMSA05.jpg,MS,2,num_4,16,num_4,0.700262653874,,,2017_Sep_12_1651,60.0064860869,FEMA4ImagesEEG,001,101603,
AFNE01.JPG,AFNE01.JPG,AFNE01.JPG,AFNE01.JPG,AFNE01.JPG,AFNE01.JPG,,,,,5,0,50,9,,,,,,,,,,,,,,,,,,,AMNE10.jpg,AMSA09.jpg,AMNE04.jpg,AMSA20.jpg,AMNE10.jpg,MN,1,num_8,16,num_8,0.866724955849,,,2017_Sep_12_1651,60.0064860869,FEMA4ImagesEEG,001,101603,
AFNE01.JPG,AFNE01.JPG,AFNE01.JPG,AFNE01.JPG,AFNE01.JPG,AFNE01.JPG,,,,,5,1,51,1,,,,,,,,,,,,,,,,,,,AMNE02.jpg,AMSA06.jpg,AMNE03.jpg,AMSA02.jpg,AMSA02.jpg,MS,2,num_4,32,num_2,1.66662283218,,,2017_Sep_12_1651,60.0064860869,FEMA4ImagesEEG,001,101603,
AFNE01.JPG,AFNE01.JPG,AFNE01.JPG,AFNE01.JPG,AFNE01.JPG,AFNE01.JPG,,,,,5,2,52,8,,,,,,,,,,,,,,,,,,,AMNE09.jpg,AMSA06.jpg,AMSA09.jpg,AMNE06.jpg,AMSA06.jpg,MS,2,num_6,16,num_6,1.41669283365,,,2017_Sep_12_1651,60.0064860869,FEMA4ImagesEEG,001,101603,
AFNE01.JPG,AFNE01.JPG,AFNE01.JPG,AFNE01.JPG,AFNE01.JPG,AFNE01.JPG,,,,,5,3,53,4,,,,,,,,,,,,,,,,,,,AMNE17.jpg,AMSA11.jpg,AMSA09.jpg,AMNE16.jpg,AMNE17.jpg,MN,1,num_8,16,num_8,0.850141430041,,,2017_Sep_12_1651,60.0064860869,FEMA4ImagesEEG,001,101603,
AFNE01.JPG,AFNE01.JPG,AFNE01.JPG,AFNE01.JPG,AFNE01.JPG,AFNE01.JPG,,,,,5,4,54,6,,,,,,,,,,,,,,,,,,,AMSA04.jpg,AMNE15.jpg,AMSA13.jpg,AMNE11.jpg,AMSA13.jpg,MS,2,num_2,32,num_6,1.23346675048,,,2017_Sep_12_1651,60.0064860869,FEMA4ImagesEEG,001,101603,
AFNE01.JPG,AFNE01.JPG,AFNE01.JPG,AFNE01.JPG,AFNE01.JPG,AFNE01.JPG,,,,,5,5,55,2,,,,,,,,,,,,,,,,,,,AMSA14.jpg,AMNE08.jpg,AMSA05.jpg,AMNE20.jpg,AMSA05.jpg,MS,2,num_2,32,num_8,1.23341831868,,,2017_Sep_12_1651,60.0064860869,FEMA4ImagesEEG,001,101603,
AFNE01.JPG,AFNE01.JPG,AFNE01.JPG,AFNE01.JPG,AFNE01.JPG,AFNE01.JPG,,,,,5,6,56,5,,,,,,,,,,,,,,,,,,,AMSA06.jpg,AMNE12.jpg,AMNE14.jpg,AMSA16.jpg,AMNE14.jpg,MN,1,num_2,32,num_4,0.950107335579,,,2017_Sep_12_1651,60.0064860869,FEMA4ImagesEEG,001,101603,
AFNE01.JPG,AFNE01.JPG,AFNE01.JPG,AFNE01.JPG,AFNE01.JPG,AFNE01.JPG,,,,,5,7,57,3,,,,,,,,,,,,,,,,,,,AMSA09.jpg,AMSA20.jpg,AMNE14.jpg,AMNE09.jpg,AMSA09.jpg,MS,2,num_8,32,num_2,1.91671865317,,,2017_Sep_12_1651,60.0064860869,FEMA4ImagesEEG,001,101603,
AFNE01.JPG,AFNE01.JPG,AFNE01.JPG,AFNE01.JPG,AFNE01.JPG,AFNE01.JPG,,,,,5,8,58,0,,,,,,,,,,,,,,,,,,,AMNE14.jpg,AMNE03.jpg,AMSA02.jpg,AMSA01.jpg,AMSA02.jpg,MS,2,num_2,32,num_8,0.883445757907,,,2017_Sep_12_1651,60.0064860869,FEMA4ImagesEEG,001,101603,
AFNE01.JPG,AFNE01.JPG,AFNE01.JPG,AFNE01.JPG,AFNE01.JPG,AFNE01.JPG,,,,,5,9,59,7,,,,,,,,,,,,,,,,,,,AMSA20.jpg,AMSA02.jpg,AMNE10.jpg,AMNE03.jpg,AMSA20.jpg,MS,2,num_8,32,num_4,1.31672307965,,,2017_Sep_12_1651,60.0064860869,FEMA4ImagesEEG,001,101603,
,,,,,,,,,,,,,,,,,,,,,,,,,,,,,,,,,,,,,,,,,,,space,4.38312517875,2017_Sep_12_1651,60.0064860869,FEMA4ImagesEEG,001,101603,
AFNE01.JPG,AFNE01.JPG,AFNE01.JPG,AFNE01.JPG,AFNE01.JPG,AFNE01.JPG,,,,,,,,,0,0,0,0,,,,,,,,,,,,,,,AFSA11.jpg,AFSA17.jpg,AFNE15.jpg,AFNE01.jpg,AFSA11.jpg,FS,4,num_8,16,num_8,1.40004965034,,,2017_Sep_12_1651,60.0064860869,FEMA4ImagesEEG,001,101603,
AFNE01.JPG,AFNE01.JPG,AFNE01.JPG,AFNE01.JPG,AFNE01.JPG,AFNE01.JPG,,,,,,,,,0,1,1,6,,,,,,,,,,,,,,,AFSA18.jpg,AFNE08.jpg,AFNE17.jpg,AFSA12.jpg,AFNE17.jpg,FN,3,num_2,16,num_2,1.25007946324,,,2017_Sep_12_1651,60.0064860869,FEMA4ImagesEEG,001,101603,
AFNE01.JPG,AFNE01.JPG,AFNE01.JPG,AFNE01.JPG,AFNE01.JPG,AFNE01.JPG,,,,,,,,,0,2,2,1,,,,,,,,,,,,,,,AFSA08.jpg,AFNE19.jpg,AFNE04.jpg,AFSA02.jpg,AFNE04.jpg,FN,3,num_2,32,num_8,1.46667915396,,,2017_Sep_12_1651,60.0064860869,FEMA4ImagesEEG,001,101603,
AFNE01.JPG,AFNE01.JPG,AFNE01.JPG,AFNE01.JPG,AFNE01.JPG,AFNE01.JPG,,,,,,,,,0,3,3,8,,,,,,,,,,,,,,,AFSA02.jpg,AFNE13.jpg,AFNE01.jpg,AFSA07.jpg,AFNE13.jpg,FN,3,num_6,32,num_2,1.33350482211,,,2017_Sep_12_1651,60.0064860869,FEMA4ImagesEEG,001,101603,
AFNE01.JPG,AFNE01.JPG,AFNE01.JPG,AFNE01.JPG,AFNE01.JPG,AFNE01.JPG,,,,,,,,,0,4,4,3,,,,,,,,,,,,,,,AFNE12.jpg,AFSA18.jpg,AFNE06.jpg,AFSA10.jpg,AFSA18.jpg,FS,4,num_6,32,num_4,1.29975017579,,,2017_Sep_12_1651,60.0064860869,FEMA4ImagesEEG,001,101603,
AFNE01.JPG,AFNE01.JPG,AFNE01.JPG,AFNE01.JPG,AFNE01.JPG,AFNE01.JPG,,,,,,,,,0,5,5,7,,,,,,,,,,,,,,,AFNE08.jpg,AFSA02.jpg,AFNE03.jpg,AFSA04.jpg,AFNE03.jpg,FN,3,num_2,32,num_6,0.900107544148,,,2017_Sep_12_1651,60.0064860869,FEMA4ImagesEEG,001,101603,
AFNE01.JPG,AFNE01.JPG,AFNE01.JPG,AFNE01.JPG,AFNE01.JPG,AFNE01.JPG,,,,,,,,,0,6,6,9,,,,,,,,,,,,,,,AFSA07.jpg,AFSA03.jpg,AFNE02.jpg,AFNE16.jpg,AFSA03.jpg,FS,4,num_6,16,num_6,0.833584525855,,,2017_Sep_12_1651,60.0064860869,FEMA4ImagesEEG,001,101603,
AFNE01.JPG,AFNE01.JPG,AFNE01.JPG,AFNE01.JPG,AFNE01.JPG,AFNE01.JPG,,,,,,,,,0,7,7,5,,,,,,,,,,,,,,,AFNE08.jpg,AFNE19.jpg,AFSA18.jpg,AFSA20.jpg,AFSA20.jpg,FS,4,num_4,16,num_4,0.68355436041,,,2017_Sep_12_1651,60.0064860869,FEMA4ImagesEEG,001,101603,
AFNE01.JPG,AFNE01.JPG,AFNE01.JPG,AFNE01.JPG,AFNE01.JPG,AFNE01.JPG,,,,,,,,,0,8,8,4,,,,,,,,,,,,,,,AFNE10.jpg,AFSA14.jpg,AFNE11.jpg,AFSA05.jpg,AFSA14.jpg,FS,4,num_6,48,None,,,,2017_Sep_12_1651,60.0064860869,FEMA4ImagesEEG,001,101603,
AFNE01.JPG,AFNE01.JPG,AFNE01.JPG,AFNE01.JPG,AFNE01.JPG,AFNE01.JPG,,,,,,,,,0,9,9,2,,,,,,,,,,,,,,,AFSA04.jpg,AFNE04.jpg,AFNE09.jpg,AFSA06.jpg,AFNE09.jpg,FN,3,num_2,32,num_6,1.28345724056,,,2017_Sep_12_1651,60.0064860869,FEMA4ImagesEEG,001,101603,
AFNE01.JPG,AFNE01.JPG,AFNE01.JPG,AFNE01.JPG,AFNE01.JPG,AFNE01.JPG,,,,,,,,,1,0,10,4,,,,,,,,,,,,,,,AFNE05.jpg,AFSA20.jpg,AFSA15.jpg,AFNE16.jpg,AFSA20.jpg,FS,4,num_6,32,num_8,0.650161508471,,,2017_Sep_12_1651,60.0064860869,FEMA4ImagesEEG,001,101603,
AFNE01.JPG,AFNE01.JPG,AFNE01.JPG,AFNE01.JPG,AFNE01.JPG,AFNE01.JPG,,,,,,,,,1,1,11,6,,,,,,,,,,,,,,,AFNE12.jpg,AFSA17.jpg,AFSA03.jpg,AFNE03.jpg,AFSA17.jpg,FS,4,num_6,32,num_4,0.466813864652,,,2017_Sep_12_1651,60.0064860869,FEMA4ImagesEEG,001,101603,
AFNE01.JPG,AFNE01.JPG,AFNE01.JPG,AFNE01.JPG,AFNE01.JPG,AFNE01.JPG,,,,,,,,,1,2,12,1,,,,,,,,,,,,,,,AFNE19.jpg,AFNE01.jpg,AFSA11.jpg,AFSA15.jpg,AFSA11.jpg,FS,4,num_2,32,num_6,0.983503715601,,,2017_Sep_12_1651,60.0064860869,FEMA4ImagesEEG,001,101603,
AFNE01.JPG,AFNE01.JPG,AFNE01.JPG,AFNE01.JPG,AFNE01.JPG,AFNE01.JPG,,,,,,,,,1,3,13,9,,,,,,,,,,,,,,,AFNE18.jpg,AFSA09.jpg,AFNE19.jpg,AFSA12.jpg,AFNE19.jpg,FN,3,num_2,16,num_2,1.31669645803,,,2017_Sep_12_1651,60.0064860869,FEMA4ImagesEEG,001,101603,
AFNE01.JPG,AFNE01.JPG,AFNE01.JPG,AFNE01.JPG,AFNE01.JPG,AFNE01.JPG,,,,,,,,,1,4,14,0,,,,,,,,,,,,,,,AFNE17.jpg,AFSA03.jpg,AFSA06.jpg,AFNE09.jpg,AFSA06.jpg,FS,4,num_2,32,num_4,0.933415079257,,,2017_Sep_12_1651,60.0064860869,FEMA4ImagesEEG,001,101603,
AFNE01.JPG,AFNE01.JPG,AFNE01.JPG,AFNE01.JPG,AFNE01.JPG,AFNE01.JPG,,,,,,,,,1,5,15,7,,,,,,,,,,,,,,,AFSA03.jpg,AFSA09.jpg,AFNE11.jpg,AFNE20.jpg,AFNE20.jpg,FN,3,num_4,32,num_8,1.11676304368,,,2017_Sep_12_1651,60.0064860869,FEMA4ImagesEEG,001,101603,
AFNE01.JPG,AFNE01.JPG,AFNE01.JPG,AFNE01.JPG,AFNE01.JPG,AFNE01.JPG,,,,,,,,,1,6,16,5,,,,,,,,,,,,,,,AFNE02.jpg,AFSA16.jpg,AFSA05.jpg,AFNE13.jpg,AFNE02.jpg,FN,3,num_8,32,num_6,1.0334752819,,,2017_Sep_12_1651,60.0064860869,FEMA4ImagesEEG,001,101603,
AFNE01.JPG,AFNE01.JPG,AFNE01.JPG,AFNE01.JPG,AFNE01.JPG,AFNE01.JPG,,,,,,,,,1,7,17,8,,,,,,,,,,,,,,,AFNE15.jpg,AFSA14.jpg,AFNE02.jpg,AFSA03.jpg,AFNE02.jpg,FN,3,num_2,32,num_4,0.833465531701,,,2017_Sep_12_1651,60.0064860869,FEMA4ImagesEEG,001,101603,
AFNE01.JPG,AFNE01.JPG,AFNE01.JPG,AFNE01.JPG,AFNE01.JPG,AFNE01.JPG,,,,,,,,,1,8,18,3,,,,,,,,,,,,,,,AFNE10.jpg,AFNE08.jpg,AFSA01.jpg,AFSA04.jpg,AFSA01.jpg,FS,4,num_2,32,num_6,0.900210180786,,,2017_Sep_12_1651,60.0064860869,FEMA4ImagesEEG,001,101603,
AFNE01.JPG,AFNE01.JPG,AFNE01.JPG,AFNE01.JPG,AFNE01.JPG,AFNE01.JPG,,,,,,,,,1,9,19,2,,,,,,,,,,,,,,,AFSA02.jpg,AFNE15.jpg,AFSA10.jpg,AFNE18.jpg,AFNE15.jpg,FN,3,num_6,32,num_8,1.10009901226,,,2017_Sep_12_1651,60.0064860869,FEMA4ImagesEEG,001,101603,
AFNE01.JPG,AFNE01.JPG,AFNE01.JPG,AFNE01.JPG,AFNE01.JPG,AFNE01.JPG,,,,,,,,,2,0,20,7,,,,,,,,,,,,,,,AFNE09.jpg,AFNE07.jpg,AFSA12.jpg,AFSA03.jpg,AFSA03.jpg,FS,4,num_4,16,num_4,1.66667671641,,,2017_Sep_12_1651,60.0064860869,FEMA4ImagesEEG,001,101603,
AFNE01.JPG,AFNE01.JPG,AFNE01.JPG,AFNE01.JPG,AFNE01.JPG,AFNE01.JPG,,,,,,,,,2,1,21,5,,,,,,,,,,,,,,,AFSA11.jpg,AFSA13.jpg,AFNE20.jpg,AFNE01.jpg,AFSA11.jpg,FS,4,num_8,16,num_8,0.600142472656,,,2017_Sep_12_1651,60.0064860869,FEMA4ImagesEEG,001,101603,
AFNE01.JPG,AFNE01.JPG,AFNE01.JPG,AFNE01.JPG,AFNE01.JPG,AFNE01.JPG,,,,,,,,,2,2,22,3,,,,,,,,,,,,,,,AFNE04.jpg,AFNE15.jpg,AFSA08.jpg,AFSA12.jpg,AFSA08.jpg,FS,4,num_2,32,num_4,0.383525782498,,,2017_Sep_12_1651,60.0064860869,FEMA4ImagesEEG,001,101603,
AFNE01.JPG,AFNE01.JPG,AFNE01.JPG,AFNE01.JPG,AFNE01.JPG,AFNE01.JPG,,,,,,,,,2,3,23,6,,,,,,,,,,,,,,,AFNE07.jpg,AFNE18.jpg,AFSA18.jpg,AFSA03.jpg,AFNE18.jpg,FN,3,num_6,48,None,,,,2017_Sep_12_1651,60.0064860869,FEMA4ImagesEEG,001,101603,
AFNE01.JPG,AFNE01.JPG,AFNE01.JPG,AFNE01.JPG,AFNE01.JPG,AFNE01.JPG,,,,,,,,,2,4,24,8,,,,,,,,,,,,,,,AFNE02.jpg,AFSA03.jpg,AFSA20.jpg,AFNE20.jpg,AFNE20.jpg,FN,3,num_4,32,num_6,1.15010714298,,,2017_Sep_12_1651,60.0064860869,FEMA4ImagesEEG,001,101603,
AFNE01.JPG,AFNE01.JPG,AFNE01.JPG,AFNE01.JPG,AFNE01.JPG,AFNE01.JPG,,,,,,,,,2,5,25,4,,,,,,,,,,,,,,,AFNE05.jpg,AFNE14.jpg,AFSA06.jpg,AFSA20.jpg,AFSA20.jpg,FS,4,num_4,16,num_4,0.650125585729,,,2017_Sep_12_1651,60.0064860869,FEMA4ImagesEEG,001,101603,
AFNE01.JPG,AFNE01.JPG,AFNE01.JPG,AFNE01.JPG,AFNE01.JPG,AFNE01.JPG,,,,,,,,,2,6,26,0,,,,,,,,,,,,,,,AFSA13.jpg,AFSA05.jpg,AFNE15.jpg,AFNE14.jpg,AFSA05.jpg,FS,4,num_6,32,num_4,0.883401175262,,,2017_Sep_12_1651,60.0064860869,FEMA4ImagesEEG,001,101603,
AFNE01.JPG,AFNE01.JPG,AFNE01.JPG,AFNE01.JPG,AFNE01.JPG,AFNE01.JPG,,,,,,,,,2,7,27,9,,,,,,,,,,,,,,,AFSA11.jpg,AFNE13.jpg,AFNE10.jpg,AFSA18.jpg,AFSA11.jpg,FS,4,num_8,32,num_2,2.0334140209,,,2017_Sep_12_1651,60.0064860869,FEMA4ImagesEEG,001,101603,
AFNE01.JPG,AFNE01.JPG,AFNE01.JPG,AFNE01.JPG,AFNE01.JPG,AFNE01.JPG,,,,,,,,,2,8,28,1,,,,,,,,,,,,,,,AFNE10.jpg,AFSA08.jpg,AFSA17.jpg,AFNE19.jpg,AFNE10.jpg,FN,3,num_8,32,num_4,2.25000890065,,,2017_Sep_12_1651,60.0064860869,FEMA4ImagesEEG,001,101603,
AFNE01.JPG,AFNE01.JPG,AFNE01.JPG,AFNE01.JPG,AFNE01.JPG,AFNE01.JPG,,,,,,,,,2,9,29,2,,,,,,,,,,,,,,,AFSA16.jpg,AFNE10.jpg,AFNE06.jpg,AFSA02.jpg,AFSA02.jpg,FS,4,num_4,32,num_8,1.25005636993,,,2017_Sep_12_1651,60.0064860869,FEMA4ImagesEEG,001,101603,
AFNE01.JPG,AFNE01.JPG,AFNE01.JPG,AFNE01.JPG,AFNE01.JPG,AFNE01.JPG,,,,,,,,,3,0,30,2,,,,,,,,,,,,,,,AFSA06.jpg,AFNE07.jpg,AFSA16.jpg,AFNE03.jpg,AFSA16.jpg,FS,4,num_2,32,num_6,0.366760397563,,,2017_Sep_12_1651,60.0064860869,FEMA4ImagesEEG,001,101603,
AFNE01.JPG,AFNE01.JPG,AFNE01.JPG,AFNE01.JPG,AFNE01.JPG,AFNE01.JPG,,,,,,,,,3,1,31,0,,,,,,,,,,,,,,,AFNE16.jpg,AFSA11.jpg,AFNE13.jpg,AFSA17.jpg,AFSA11.jpg,FS,4,num_6,32,num_8,0.550144926412,,,2017_Sep_12_1651,60.0064860869,FEMA4ImagesEEG,001,101603,
AFNE01.JPG,AFNE01.JPG,AFNE01.JPG,AFNE01.JPG,AFNE01.JPG,AFNE01.JPG,,,,,,,,,3,2,32,4,,,,,,,,,,,,,,,AFSA08.jpg,AFSA19.jpg,AFNE20.jpg,AFNE10.jpg,AFSA19.jpg,FS,4,num_6,16,num_6,1.43340529664,,,2017_Sep_12_1651,60.0064860869,FEMA4ImagesEEG,001,101603,
AFNE01.JPG,AFNE01.JPG,AFNE01.JPG,AFNE01.JPG,AFNE01.JPG,AFNE01.JPG,,,,,,,,,3,3,33,5,,,,,,,,,,,,,,,AFSA10.jpg,AFNE04.jpg,AFSA05.jpg,AFNE03.jpg,AFNE04.jpg,FN,3,num_6,32,num_2,2.53335099528,,,2017_Sep_12_1651,60.0064860869,FEMA4ImagesEEG,001,101603,
AFNE01.JPG,AFNE01.JPG,AFNE01.JPG,AFNE01.JPG,AFNE01.JPG,AFNE01.JPG,,,,,,,,,3,4,34,1,,,,,,,,,,,,,,,AFNE18.jpg,AFSA04.jpg,AFSA15.jpg,AFNE02.jpg,AFNE18.jpg,FN,3,num_8,32,num_6,1.11674572364,,,2017_Sep_12_1651,60.0064860869,FEMA4ImagesEEG,001,101603,
AFNE01.JPG,AFNE01.JPG,AFNE01.JPG,AFNE01.JPG,AFNE01.JPG,AFNE01.JPG,,,,,,,,,3,5,35,7,,,,,,,,,,,,,,,AFNE08.jpg,AFNE09.jpg,AFSA10.jpg,AFSA14.jpg,AFNE09.jpg,FN,3,num_6,32,num_8,0.63343717833,,,2017_Sep_12_1651,60.0064860869,FEMA4ImagesEEG,001,101603,
AFNE01.JPG,AFNE01.JPG,AFNE01.JPG,AFNE01.JPG,AFNE01.JPG,AFNE01.JPG,,,,,,,,,3,6,36,6,,,,,,,,,,,,,,,AFNE13.jpg,AFSA20.jpg,AFNE03.jpg,AFSA08.jpg,AFNE13.jpg,FN,3,num_8,32,num_4,0.366849242477,,,2017_Sep_12_1651,60.0064860869,FEMA4ImagesEEG,001,101603,
AFNE01.JPG,AFNE01.JPG,AFNE01.JPG,AFNE01.JPG,AFNE01.JPG,AFNE01.JPG,,,,,,,,,3,7,37,9,,,,,,,,,,,,,,,AFNE06.jpg,AFSA20.jpg,AFSA16.jpg,AFNE08.jpg,AFSA16.jpg,FS,4,num_2,32,num_6,0.41668673954,,,2017_Sep_12_1651,60.0064860869,FEMA4ImagesEEG,001,101603,
AFNE01.JPG,AFNE01.JPG,AFNE01.JPG,AFNE01.JPG,AFNE01.JPG,AFNE01.JPG,,,,,,,,,3,8,38,3,,,,,,,,,,,,,,,AFSA03.jpg,AFNE06.jpg,AFNE02.jpg,AFSA15.jpg,AFSA15.jpg,FS,4,num_4,16,num_4,0.600164603675,,,2017_Sep_12_1651,60.0064860869,FEMA4ImagesEEG,001,101603,
AFNE01.JPG,AFNE01.JPG,AFNE01.JPG,AFNE01.JPG,AFNE01.JPG,AFNE01.JPG,,,,,,,,,3,9,39,8,,,,,,,,,,,,,,,AFNE06.jpg,AFSA02.jpg,AFNE08.jpg,AFSA15.jpg,AFNE08.jpg,FN,3,num_2,32,num_8,1.13343509333,,,2017_Sep_12_1651,60.0064860869,FEMA4ImagesEEG,001,101603,
AFNE01.JPG,AFNE01.JPG,AFNE01.JPG,AFNE01.JPG,AFNE01.JPG,AFNE01.JPG,,,,,,,,,4,0,40,3,,,,,,,,,,,,,,,AFNE08.jpg,AFSA01.jpg,AFNE17.jpg,AFSA10.jpg,AFSA10.jpg,FS,4,num_4,32,num_6,1.80005086935,,,2017_Sep_12_1651,60.0064860869,FEMA4ImagesEEG,001,101603,
AFNE01.JPG,AFNE01.JPG,AFNE01.JPG,AFNE01.JPG,AFNE01.JPG,AFNE01.JPG,,,,,,,,,4,1,41,6,,,,,,,,,,,,,,,AFSA09.jpg,AFNE18.jpg,AFSA04.jpg,AFNE20.jpg,AFSA04.jpg,FS,4,num_2,32,num_4,1.10007944726,,,2017_Sep_12_1651,60.0064860869,FEMA4ImagesEEG,001,101603,
AFNE01.JPG,AFNE01.JPG,AFNE01.JPG,AFNE01.JPG,AFNE01.JPG,AFNE01.JPG,,,,,,,,,4,2,42,1,,,,,,,,,,,,,,,AFSA15.jpg,AFNE02.jpg,AFNE05.jpg,AFSA06.jpg,AFSA15.jpg,FS,4,num_8,16,num_8,0.816764294403,,,2017_Sep_12_1651,60.0064860869,FEMA4ImagesEEG,001,101603,
AFNE01.JPG,AFNE01.JPG,AFNE01.JPG,AFNE01.JPG,AFNE01.JPG,AFNE01.JPG,,,,,,,,,4,3,43,8,,,,,,,,,,,,,,,AFNE04.jpg,AFSA20.jpg,AFSA14.jpg,AFNE15.jpg,AFSA20.jpg,FS,4,num_6,16,num_6,0.716802879469,,,2017_Sep_12_1651,60.0064860869,FEMA4ImagesEEG,001,101603,
AFNE01.JPG,AFNE01.JPG,AFNE01.JPG,AFNE01.JPG,AFNE01.JPG,AFNE01.JPG,,,,,,,,,4,4,44,7,,,,,,,,,,,,,,,AFSA07.jpg,AFNE05.jpg,AFSA11.jpg,AFNE01.jpg,AFNE01.jpg,FN,3,num_4,32,num_8,1.13344343263,,,2017_Sep_12_1651,60.0064860869,FEMA4ImagesEEG,001,101603,
AFNE01.JPG,AFNE01.JPG,AFNE01.JPG,AFNE01.JPG,AFNE01.JPG,AFNE01.JPG,,,,,,,,,4,5,45,0,,,,,,,,,,,,,,,AFNE18.jpg,AFSA02.jpg,AFNE17.jpg,AFSA20.jpg,AFNE18.jpg,FN,3,num_8,32,num_6,2.05002609221,,,2017_Sep_12_1651,60.0064860869,FEMA4ImagesEEG,001,101603,
AFNE01.JPG,AFNE01.JPG,AFNE01.JPG,AFNE01.JPG,AFNE01.JPG,AFNE01.JPG,,,,,,,,,4,6,46,9,,,,,,,,,,,,,,,AFSA01.jpg,AFSA13.jpg,AFNE02.jpg,AFNE07.jpg,AFNE07.jpg,FN,3,num_4,32,num_8,0.983445341,,,2017_Sep_12_1651,60.0064860869,FEMA4ImagesEEG,001,101603,
AFNE01.JPG,AFNE01.JPG,AFNE01.JPG,AFNE01.JPG,AFNE01.JPG,AFNE01.JPG,,,,,,,,,4,7,47,5,,,,,,,,,,,,,,,AFSA01.jpg,AFNE12.jpg,AFNE18.jpg,AFSA08.jpg,AFSA08.jpg,FS,4,num_4,16,num_4,0.766789199784,,,2017_Sep_12_1651,60.0064860869,FEMA4ImagesEEG,001,101603,
AFNE01.JPG,AFNE01.JPG,AFNE01.JPG,AFNE01.JPG,AFNE01.JPG,AFNE01.JPG,,,,,,,,,4,8,48,4,,,,,,,,,,,,,,,AFSA16.jpg,AFNE03.jpg,AFNE19.jpg,AFSA12.jpg,AFNE03.jpg,FN,3,num_6,32,num_2,2.21663208539,,,2017_Sep_12_1651,60.0064860869,FEMA4ImagesEEG,001,101603,
AFNE01.JPG,AFNE01.JPG,AFNE01.JPG,AFNE01.JPG,AFNE01.JPG,AFNE01.JPG,,,,,,,,,4,9,49,2,,,,,,,,,,,,,,,AFSA01.jpg,AFNE05.jpg,AFNE20.jpg,AFSA14.jpg,AFNE05.jpg,FN,3,num_6,32,num_4,1.23308699438,,,2017_Sep_12_1651,60.0064860869,FEMA4ImagesEEG,001,101603,
AFNE01.JPG,AFNE01.JPG,AFNE01.JPG,AFNE01.JPG,AFNE01.JPG,AFNE01.JPG,,,,,,,,,5,0,50,6,,,,,,,,,,,,,,,AFNE08.jpg,AFNE17.jpg,AFSA05.jpg,AFSA15.jpg,AFSA05.jpg,FS,4,num_2,16,num_2,1.6500332125,,,2017_Sep_12_1651,60.0064860869,FEMA4ImagesEEG,001,101603,
AFNE01.JPG,AFNE01.JPG,AFNE01.JPG,AFNE01.JPG,AFNE01.JPG,AFNE01.JPG,,,,,,,,,5,1,51,0,,,,,,,,,,,,,,,AFNE11.jpg,AFSA19.jpg,AFSA15.jpg,AFNE09.jpg,AFSA15.jpg,FS,4,num_2,16,num_2,0.883420740254,,,2017_Sep_12_1651,60.0064860869,FEMA4ImagesEEG,001,101603,
AFNE01.JPG,AFNE01.JPG,AFNE01.JPG,AFNE01.JPG,AFNE01.JPG,AFNE01.JPG,,,,,,,,,5,2,52,3,,,,,,,,,,,,,,,AFNE05.jpg,AFSA06.jpg,AFNE08.jpg,AFSA09.jpg,AFNE08.jpg,FN,3,num_2,32,num_8,1.18349903263,,,2017_Sep_12_1651,60.0064860869,FEMA4ImagesEEG,001,101603,
AFNE01.JPG,AFNE01.JPG,AFNE01.JPG,AFNE01.JPG,AFNE01.JPG,AFNE01.JPG,,,,,,,,,5,3,53,7,,,,,,,,,,,,,,,AFSA17.jpg,AFSA13.jpg,AFNE20.jpg,AFNE06.jpg,AFSA17.jpg,FS,4,num_8,32,num_4,1.14978191303,,,2017_Sep_12_1651,60.0064860869,FEMA4ImagesEEG,001,101603,
AFNE01.JPG,AFNE01.JPG,AFNE01.JPG,AFNE01.JPG,AFNE01.JPG,AFNE01.JPG,,,,,,,,,5,4,54,5,,,,,,,,,,,,,,,AFNE20.jpg,AFSA18.jpg,AFNE05.jpg,AFSA17.jpg,AFNE20.jpg,FN,3,num_8,16,num_8,1.23343563848,,,2017_Sep_12_1651,60.0064860869,FEMA4ImagesEEG,001,101603,
AFNE01.JPG,AFNE01.JPG,AFNE01.JPG,AFNE01.JPG,AFNE01.JPG,AFNE01.JPG,,,,,,,,,5,5,55,8,,,,,,,,,,,,,,,AFSA11.jpg,AFNE05.jpg,AFNE15.jpg,AFSA07.jpg,AFSA11.jpg,FS,4,num_8,32,num_2,1.95001977356,,,2017_Sep_12_1651,60.0064860869,FEMA4ImagesEEG,001,101603,
AFNE01.JPG,AFNE01.JPG,AFNE01.JPG,AFNE01.JPG,AFNE01.JPG,AFNE01.JPG,,,,,,,,,5,6,56,9,,,,,,,,,,,,,,,AFNE19.jpg,AFSA11.jpg,AFSA03.jpg,AFNE03.jpg,AFSA11.jpg,FS,4,num_6,16,num_6,0.750127734616,,,2017_Sep_12_1651,60.0064860869,FEMA4ImagesEEG,001,101603,
AFNE01.JPG,AFNE01.JPG,AFNE01.JPG,AFNE01.JPG,AFNE01.JPG,AFNE01.JPG,,,,,,,,,5,7,57,1,,,,,,,,,,,,,,,AFNE07.jpg,AFSA15.jpg,AFNE05.jpg,AFSA10.jpg,AFNE07.jpg,FN,3,num_8,16,num_8,1.01673170738,,,2017_Sep_12_1651,60.0064860869,FEMA4ImagesEEG,001,101603,
AFNE01.JPG,AFNE01.JPG,AFNE01.JPG,AFNE01.JPG,AFNE01.JPG,AFNE01.JPG,,,,,,,,,5,8,58,2,,,,,,,,,,,,,,,AFNE14.jpg,AFSA16.jpg,AFNE09.jpg,AFSA20.jpg,AFNE09.jpg,FN,3,num_2,32,num_4,1.08345230087,,,2017_Sep_12_1651,60.0064860869,FEMA4ImagesEEG,001,101603,
AFNE01.JPG,AFNE01.JPG,AFNE01.JPG,AFNE01.JPG,AFNE01.JPG,AFNE01.JPG,,,,,,,,,5,9,59,4,,,,,,,,,,,,,,,AFNE18.jpg,AFSA02.jpg,AFNE13.jpg,AFSA20.jpg,AFSA20.jpg,FS,4,num_4,32,num_6,0.70016226219,,,2017_Sep_12_1651,60.0064860869,FEMA4ImagesEEG,001,101603,
,,,,,,,,,,,,,,,,,,,,,,,,,,,,,,,,,,,,,,,,,,,space,13.5491464636,2017_Sep_12_1651,60.0064860869,FEMA4ImagesEEG,001,101603,
AFNE01.JPG,AFNE01.JPG,AFNE01.JPG,AFNE01.JPG,AFNE01.JPG,AFNE01.JPG,,,,,,,,,,,,,0,0,0,6,,,,,,,,,,,AMNE19.jpg,AMSA12.jpg,AMSA17.jpg,AMNE10.jpg,AMNE10.jpg,MN,1,num_4,16,num_4,1.85000351211,,,2017_Sep_12_1651,60.0064860869,FEMA4ImagesEEG,001,101603,
AFNE01.JPG,AFNE01.JPG,AFNE01.JPG,AFNE01.JPG,AFNE01.JPG,AFNE01.JPG,,,,,,,,,,,,,0,1,1,7,,,,,,,,,,,AMNE10.jpg,AMSA08.jpg,AMSA11.jpg,AMNE12.jpg,AMSA08.jpg,MS,2,num_6,16,num_6,0.666800201405,,,2017_Sep_12_1651,60.0064860869,FEMA4ImagesEEG,001,101603,
AFNE01.JPG,AFNE01.JPG,AFNE01.JPG,AFNE01.JPG,AFNE01.JPG,AFNE01.JPG,,,,,,,,,,,,,0,2,2,4,,,,,,,,,,,AMSA15.jpg,AMSA10.jpg,AMNE04.jpg,AMNE07.jpg,AMNE07.jpg,MN,1,num_4,32,num_8,0.900170408888,,,2017_Sep_12_1651,60.0064860869,FEMA4ImagesEEG,001,101603,
AFNE01.JPG,AFNE01.JPG,AFNE01.JPG,AFNE01.JPG,AFNE01.JPG,AFNE01.JPG,,,,,,,,,,,,,0,3,3,5,,,,,,,,,,,AMSA12.jpg,AMNE11.jpg,AMNE17.jpg,AMSA09.jpg,AMNE11.jpg,MN,1,num_6,32,num_8,1.10007207026,,,2017_Sep_12_1651,60.0064860869,FEMA4ImagesEEG,001,101603,
AFNE01.JPG,AFNE01.JPG,AFNE01.JPG,AFNE01.JPG,AFNE01.JPG,AFNE01.JPG,,,,,,,,,,,,,0,4,4,9,,,,,,,,,,,AMNE15.jpg,AMSA19.jpg,AMSA06.jpg,AMNE17.jpg,AMNE17.jpg,MN,1,num_4,32,num_6,1.05013418151,,,2017_Sep_12_1651,60.0064860869,FEMA4ImagesEEG,001,101603,
AFNE01.JPG,AFNE01.JPG,AFNE01.JPG,AFNE01.JPG,AFNE01.JPG,AFNE01.JPG,,,,,,,,,,,,,0,5,5,2,,,,,,,,,,,AMSA20.jpg,AMSA10.jpg,AMNE09.jpg,AMNE03.jpg,AMNE03.jpg,MN,1,num_4,32,num_2,1.43340144772,,,2017_Sep_12_1651,60.0064860869,FEMA4ImagesEEG,001,101603,
AFNE01.JPG,AFNE01.JPG,AFNE01.JPG,AFNE01.JPG,AFNE01.JPG,AFNE01.JPG,,,,,,,,,,,,,0,6,6,8,,,,,,,,,,,AMNE07.jpg,AMSA07.jpg,AMSA20.jpg,AMNE09.jpg,AMSA07.jpg,MS,2,num_6,16,num_6,0.516796657117,,,2017_Sep_12_1651,60.0064860869,FEMA4ImagesEEG,001,101603,
AFNE01.JPG,AFNE01.JPG,AFNE01.JPG,AFNE01.JPG,AFNE01.JPG,AFNE01.JPG,,,,,,,,,,,,,0,7,7,3,,,,,,,,,,,AMSA11.jpg,AMNE07.jpg,AMNE10.jpg,AMSA16.jpg,AMSA11.jpg,MS,2,num_8,16,num_8,0.950138447341,,,2017_Sep_12_1651,60.0064860869,FEMA4ImagesEEG,001,101603,
AFNE01.JPG,AFNE01.JPG,AFNE01.JPG,AFNE01.JPG,AFNE01.JPG,AFNE01.JPG,,,,,,,,,,,,,0,8,8,1,,,,,,,,,,,AMNE16.jpg,AMSA01.jpg,AMNE04.jpg,AMSA05.jpg,AMSA05.jpg,MS,2,num_4,32,num_2,4.28315959405,,,2017_Sep_12_1651,60.0064860869,FEMA4ImagesEEG,001,101603,
AFNE01.JPG,AFNE01.JPG,AFNE01.JPG,AFNE01.JPG,AFNE01.JPG,AFNE01.JPG,,,,,,,,,,,,,0,9,9,0,,,,,,,,,,,AMSA11.jpg,AMSA01.jpg,AMNE17.jpg,AMNE01.jpg,AMSA01.jpg,MS,2,num_6,16,num_6,0.766781823011,,,2017_Sep_12_1651,60.0064860869,FEMA4ImagesEEG,001,101603,
AFNE01.JPG,AFNE01.JPG,AFNE01.JPG,AFNE01.JPG,AFNE01.JPG,AFNE01.JPG,,,,,,,,,,,,,1,0,10,8,,,,,,,,,,,AMSA14.jpg,AMSA15.jpg,AMNE01.jpg,AMNE07.jpg,AMNE07.jpg,MN,1,num_4,16,num_4,1.36671805987,,,2017_Sep_12_1651,60.0064860869,FEMA4ImagesEEG,001,101603,
AFNE01.JPG,AFNE01.JPG,AFNE01.JPG,AFNE01.JPG,AFNE01.JPG,AFNE01.JPG,,,,,,,,,,,,,1,1,11,3,,,,,,,,,,,AMNE07.jpg,AMSA15.jpg,AMNE17.jpg,AMSA16.jpg,AMNE07.jpg,MN,1,num_8,16,num_8,0.733467231505,,,2017_Sep_12_1651,60.0064860869,FEMA4ImagesEEG,001,101603,
AFNE01.JPG,AFNE01.JPG,AFNE01.JPG,AFNE01.JPG,AFNE01.JPG,AFNE01.JPG,,,,,,,,,,,,,1,2,12,0,,,,,,,,,,,AMSA12.jpg,AMNE20.jpg,AMSA17.jpg,AMNE14.jpg,AMSA12.jpg,MS,2,num_8,32,num_2,1.46666119271,,,2017_Sep_12_1651,60.0064860869,FEMA4ImagesEEG,001,101603,
AFNE01.JPG,AFNE01.JPG,AFNE01.JPG,AFNE01.JPG,AFNE01.JPG,AFNE01.JPG,,,,,,,,,,,,,1,3,13,4,,,,,,,,,,,AMNE09.jpg,AMSA12.jpg,AMSA17.jpg,AMNE08.jpg,AMNE08.jpg,MN,1,num_4,32,num_8,0.816784180468,,,2017_Sep_12_1651,60.0064860869,FEMA4ImagesEEG,001,101603,
AFNE01.JPG,AFNE01.JPG,AFNE01.JPG,AFNE01.JPG,AFNE01.JPG,AFNE01.JPG,,,,,,,,,,,,,1,4,14,2,,,,,,,,,,,AMNE12.jpg,AMSA07.jpg,AMSA02.jpg,AMNE15.jpg,AMSA02.jpg,MS,2,num_2,32,num_6,0.96679927106,,,2017_Sep_12_1651,60.0064860869,FEMA4ImagesEEG,001,101603,
AFNE01.JPG,AFNE01.JPG,AFNE01.JPG,AFNE01.JPG,AFNE01.JPG,AFNE01.JPG,,,,,,,,,,,,,1,5,15,7,,,,,,,,,,,AMSA14.jpg,AMNE20.jpg,AMSA12.jpg,AMNE16.jpg,AMNE16.jpg,MN,1,num_4,16,num_4,0.699995156843,,,2017_Sep_12_1651,60.0064860869,FEMA4ImagesEEG,001,101603,
AFNE01.JPG,AFNE01.JPG,AFNE01.JPG,AFNE01.JPG,AFNE01.JPG,AFNE01.JPG,,,,,,,,,,,,,1,6,16,1,,,,,,,,,,,AMSA19.jpg,AMSA07.jpg,AMNE20.jpg,AMNE07.jpg,AMNE07.jpg,MN,1,num_4,16,num_4,0.283451146446,,,2017_Sep_12_1651,60.0064860869,FEMA4ImagesEEG,001,101603,
AFNE01.JPG,AFNE01.JPG,AFNE01.JPG,AFNE01.JPG,AFNE01.JPG,AFNE01.JPG,,,,,,,,,,,,,1,7,17,6,,,,,,,,,,,AMSA02.jpg,AMNE16.jpg,AMNE06.jpg,AMSA13.jpg,AMSA02.jpg,MS,2,num_8,32,num_4,1.06673246087,,,2017_Sep_12_1651,60.0064860869,FEMA4ImagesEEG,001,101603,
AFNE01.JPG,AFNE01.JPG,AFNE01.JPG,AFNE01.JPG,AFNE01.JPG,AFNE01.JPG,,,,,,,,,,,,,1,8,18,9,,,,,,,,,,,AMSA10.jpg,AMSA07.jpg,AMNE06.jpg,AMNE14.jpg,AMSA07.jpg,MS,2,num_6,16,num_6,0.683339144103,,,2017_Sep_12_1651,60.0064860869,FEMA4ImagesEEG,001,101603,
AFNE01.JPG,AFNE01.JPG,AFNE01.JPG,AFNE01.JPG,AFNE01.JPG,AFNE01.JPG,,,,,,,,,,,,,1,9,19,5,,,,,,,,,,,AMSA01.jpg,AMNE02.jpg,AMSA13.jpg,AMNE01.jpg,AMSA13.jpg,MS,2,num_2,32,num_8,0.450150795979,,,2017_Sep_12_1651,60.0064860869,FEMA4ImagesEEG,001,101603,
AFNE01.JPG,AFNE01.JPG,AFNE01.JPG,AFNE01.JPG,AFNE01.JPG,AFNE01.JPG,,,,,,,,,,,,,2,0,20,7,,,,,,,,,,,AMNE03.jpg,AMSA10.jpg,AMNE01.jpg,AMSA19.jpg,AMNE01.jpg,MN,1,num_2,16,num_2,2.00000833906,,,2017_Sep_12_1651,60.0064860869,FEMA4ImagesEEG,001,101603,
AFNE01.JPG,AFNE01.JPG,AFNE01.JPG,AFNE01.JPG,AFNE01.JPG,AFNE01.JPG,,,,,,,,,,,,,2,1,21,5,,,,,,,,,,,AMSA05.jpg,AMNE20.jpg,AMSA17.jpg,AMNE15.jpg,AMSA17.jpg,MS,2,num_2,32,num_8,0.900119732134,,,2017_Sep_12_1651,60.0064860869,FEMA4ImagesEEG,001,101603,
AFNE01.JPG,AFNE01.JPG,AFNE01.JPG,AFNE01.JPG,AFNE01.JPG,AFNE01.JPG,,,,,,,,,,,,,2,2,22,4,,,,,,,,,,,AMSA10.jpg,AMNE13.jpg,AMSA11.jpg,AMNE03.jpg,AMSA11.jpg,MS,2,num_2,32,num_6,4.03320169123,,,2017_Sep_12_1651,60.0064860869,FEMA4ImagesEEG,001,101603,
AFNE01.JPG,AFNE01.JPG,AFNE01.JPG,AFNE01.JPG,AFNE01.JPG,AFNE01.JPG,,,,,,,,,,,,,2,3,23,3,,,,,,,,,,,AMSA06.jpg,AMSA13.jpg,AMNE13.jpg,AMNE20.jpg,AMNE13.jpg,MN,1,num_2,32,num_8,1.08344909362,,,2017_Sep_12_1651,60.0064860869,FEMA4ImagesEEG,001,101603,
AFNE01.JPG,AFNE01.JPG,AFNE01.JPG,AFNE01.JPG,AFNE01.JPG,AFNE01.JPG,,,,,,,,,,,,,2,4,24,8,,,,,,,,,,,AMSA04.jpg,AMSA05.jpg,AMNE01.jpg,AMNE13.jpg,AMNE01.jpg,MN,1,num_2,16,num_2,0.966744745383,,,2017_Sep_12_1651,60.0064860869,FEMA4ImagesEEG,001,101603,
AFNE01.JPG,AFNE01.JPG,AFNE01.JPG,AFNE01.JPG,AFNE01.JPG,AFNE01.JPG,,,,,,,,,,,,,2,5,25,1,,,,,,,,,,,AMNE07.jpg,AMNE05.jpg,AMSA10.jpg,AMSA17.jpg,AMNE05.jpg,MN,1,num_6,16,num_6,1.69975043251,,,2017_Sep_12_1651,60.0064860869,FEMA4ImagesEEG,001,101603,
AFNE01.JPG,AFNE01.JPG,AFNE01.JPG,AFNE01.JPG,AFNE01.JPG,AFNE01.JPG,,,,,,,,,,,,,2,6,26,2,,,,,,,,,,,AMNE02.jpg,AMSA18.jpg,AMNE11.jpg,AMSA02.jpg,AMNE02.jpg,MN,1,num_8,32,num_4,1.28348546545,,,2017_Sep_12_1651,60.0064860869,FEMA4ImagesEEG,001,101603,
AFNE01.JPG,AFNE01.JPG,AFNE01.JPG,AFNE01.JPG,AFNE01.JPG,AFNE01.JPG,,,,,,,,,,,,,2,7,27,0,,,,,,,,,,,AMSA10.jpg,AMSA01.jpg,AMNE04.jpg,AMNE20.jpg,AMNE20.jpg,MN,1,num_4,16,num_4,1.05014187912,,,2017_Sep_12_1651,60.0064860869,FEMA4ImagesEEG,001,101603,
AFNE01.JPG,AFNE01.JPG,AFNE01.JPG,AFNE01.JPG,AFNE01.JPG,AFNE01.JPG,,,,,,,,,,,,,2,8,28,9,,,,,,,,,,,AMSA04.jpg,AMSA03.jpg,AMNE03.jpg,AMNE16.jpg,AMSA04.jpg,MS,2,num_8,16,num_8,1.16722373804,,,2017_Sep_12_1651,60.0064860869,FEMA4ImagesEEG,001,101603,
AFNE01.JPG,AFNE01.JPG,AFNE01.JPG,AFNE01.JPG,AFNE01.JPG,AFNE01.JPG,,,,,,,,,,,,,2,9,29,6,,,,,,,,,,,AMSA09.jpg,AMNE11.jpg,AMNE12.jpg,AMSA16.jpg,AMSA16.jpg,MS,2,num_4,32,num_8,0.88341143867,,,2017_Sep_12_1651,60.0064860869,FEMA4ImagesEEG,001,101603,
AFNE01.JPG,AFNE01.JPG,AFNE01.JPG,AFNE01.JPG,AFNE01.JPG,AFNE01.JPG,,,,,,,,,,,,,3,0,30,6,,,,,,,,,,,AMSA16.jpg,AMSA07.jpg,AMNE16.jpg,AMNE10.jpg,AMSA07.jpg,MS,2,num_6,32,num_8,0.950105090393,,,2017_Sep_12_1651,60.0064860869,FEMA4ImagesEEG,001,101603,
AFNE01.JPG,AFNE01.JPG,AFNE01.JPG,AFNE01.JPG,AFNE01.JPG,AFNE01.JPG,,,,,,,,,,,,,3,1,31,9,,,,,,,,,,,AMSA10.jpg,AMNE17.jpg,AMSA17.jpg,AMNE09.jpg,AMSA17.jpg,MS,2,num_2,32,num_4,0.399821283761,,,2017_Sep_12_1651,60.0064860869,FEMA4ImagesEEG,001,101603,
AFNE01.JPG,AFNE01.JPG,AFNE01.JPG,AFNE01.JPG,AFNE01.JPG,AFNE01.JPG,,,,,,,,,,,,,3,2,32,1,,,,,,,,,,,AMSA11.jpg,AMNE14.jpg,AMNE12.jpg,AMSA12.jpg,AMSA11.jpg,MS,2,num_8,32,num_6,0.566790675279,,,2017_Sep_12_1651,60.0064860869,FEMA4ImagesEEG,001,101603,
AFNE01.JPG,AFNE01.JPG,AFNE01.JPG,AFNE01.JPG,AFNE01.JPG,AFNE01.JPG,,,,,,,,,,,,,3,3,33,7,,,,,,,,,,,AMNE13.jpg,AMNE19.jpg,AMSA10.jpg,AMSA02.jpg,AMSA02.jpg,MS,2,num_4,32,num_8,1.10036009434,,,2017_Sep_12_1651,60.0064860869,FEMA4ImagesEEG,001,101603,
AFNE01.JPG,AFNE01.JPG,AFNE01.JPG,AFNE01.JPG,AFNE01.JPG,AFNE01.JPG,,,,,,,,,,,,,3,4,34,2,,,,,,,,,,,AMSA07.jpg,AMNE15.jpg,AMNE12.jpg,AMSA02.jpg,AMSA02.jpg,MS,2,num_4,32,num_6,1.70004487154,,,2017_Sep_12_1651,60.0064860869,FEMA4ImagesEEG,001,101603,
AFNE01.JPG,AFNE01.JPG,AFNE01.JPG,AFNE01.JPG,AFNE01.JPG,AFNE01.JPG,,,,,,,,,,,,,3,5,35,5,,,,,,,,,,,AMSA20.jpg,AMSA01.jpg,AMNE16.jpg,AMNE08.jpg,AMSA01.jpg,MS,2,num_6,16,num_6,0.483481424162,,,2017_Sep_12_1651,60.0064860869,FEMA4ImagesEEG,001,101603,
AFNE01.JPG,AFNE01.JPG,AFNE01.JPG,AFNE01.JPG,AFNE01.JPG,AFNE01.JPG,,,,,,,,,,,,,3,6,36,3,,,,,,,,,,,AMSA04.jpg,AMSA17.jpg,AMNE18.jpg,AMNE01.jpg,AMNE01.jpg,MN,1,num_4,32,num_2,3.26631242037,,,2017_Sep_12_1651,60.0064860869,FEMA4ImagesEEG,001,101603,
AFNE01.JPG,AFNE01.JPG,AFNE01.JPG,AFNE01.JPG,AFNE01.JPG,AFNE01.JPG,,,,,,,,,,,,,3,7,37,8,,,,,,,,,,,AMSA06.jpg,AMNE08.jpg,AMNE19.jpg,AMSA19.jpg,AMSA06.jpg,MS,2,num_8,16,num_8,1.28341233684,,,2017_Sep_12_1651,60.0064860869,FEMA4ImagesEEG,001,101603,
AFNE01.JPG,AFNE01.JPG,AFNE01.JPG,AFNE01.JPG,AFNE01.JPG,AFNE01.JPG,,,,,,,,,,,,,3,8,38,4,,,,,,,,,,,AMSA18.jpg,AMNE20.jpg,AMNE04.jpg,AMSA17.jpg,AMNE20.jpg,MN,1,num_6,32,num_2,1.80034466693,,,2017_Sep_12_1651,60.0064860869,FEMA4ImagesEEG,001,101603,
AFNE01.JPG,AFNE01.JPG,AFNE01.JPG,AFNE01.JPG,AFNE01.JPG,AFNE01.JPG,,,,,,,,,,,,,3,9,39,0,,,,,,,,,,,AMNE04.jpg,AMSA04.jpg,AMNE05.jpg,AMSA10.jpg,AMNE04.jpg,MN,1,num_8,16,num_8,3.34994433541,,,2017_Sep_12_1651,60.0064860869,FEMA4ImagesEEG,001,101603,
AFNE01.JPG,AFNE01.JPG,AFNE01.JPG,AFNE01.JPG,AFNE01.JPG,AFNE01.JPG,,,,,,,,,,,,,4,0,40,9,,,,,,,,,,,AMNE05.jpg,AMNE04.jpg,AMSA14.jpg,AMSA16.jpg,AMNE05.jpg,MN,1,num_8,32,num_4,1.30008599022,,,2017_Sep_12_1651,60.0064860869,FEMA4ImagesEEG,001,101603,
AFNE01.JPG,AFNE01.JPG,AFNE01.JPG,AFNE01.JPG,AFNE01.JPG,AFNE01.JPG,,,,,,,,,,,,,4,1,41,1,,,,,,,,,,,AMNE08.jpg,AMSA08.jpg,AMNE09.jpg,AMSA16.jpg,AMNE09.jpg,MN,1,num_2,32,num_6,2.08337436127,,,2017_Sep_12_1651,60.0064860869,FEMA4ImagesEEG,001,101603,
AFNE01.JPG,AFNE01.JPG,AFNE01.JPG,AFNE01.JPG,AFNE01.JPG,AFNE01.JPG,,,,,,,,,,,,,4,2,42,3,,,,,,,,,,,AMSA19.jpg,AMSA09.jpg,AMNE13.jpg,AMNE07.jpg,AMSA09.jpg,MS,2,num_6,32,num_2,2.53325669793,,,2017_Sep_12_1651,60.0064860869,FEMA4ImagesEEG,001,101603,
AFNE01.JPG,AFNE01.JPG,AFNE01.JPG,AFNE01.JPG,AFNE01.JPG,AFNE01.JPG,,,,,,,,,,,,,4,3,43,7,,,,,,,,,,,AMSA19.jpg,AMNE14.jpg,AMSA20.jpg,AMNE07.jpg,AMNE14.jpg,MN,1,num_6,16,num_6,1.86672174837,,,2017_Sep_12_1651,60.0064860869,FEMA4ImagesEEG,001,101603,
AFNE01.JPG,AFNE01.JPG,AFNE01.JPG,AFNE01.JPG,AFNE01.JPG,AFNE01.JPG,,,,,,,,,,,,,4,4,44,5,,,,,,,,,,,AMNE11.jpg,AMNE04.jpg,AMSA03.jpg,AMSA04.jpg,AMSA03.jpg,MS,2,num_2,32,num_4,2.71666399925,,,2017_Sep_12_1651,60.0064860869,FEMA4ImagesEEG,001,101603,
AFNE01.JPG,AFNE01.JPG,AFNE01.JPG,AFNE01.JPG,AFNE01.JPG,AFNE01.JPG,,,,,,,,,,,,,4,5,45,4,,,,,,,,,,,AMNE12.jpg,AMSA04.jpg,AMSA14.jpg,AMNE20.jpg,AMSA04.jpg,MS,2,num_6,16,num_6,1.80008262256,,,2017_Sep_12_1651,60.0064860869,FEMA4ImagesEEG,001,101603,
AFNE01.JPG,AFNE01.JPG,AFNE01.JPG,AFNE01.JPG,AFNE01.JPG,AFNE01.JPG,,,,,,,,,,,,,4,6,46,0,,,,,,,,,,,AMSA07.jpg,AMNE16.jpg,AMNE14.jpg,AMSA02.jpg,AMNE14.jpg,MN,1,num_2,32,num_8,1.85003462387,,,2017_Sep_12_1651,60.0064860869,FEMA4ImagesEEG,001,101603,
AFNE01.JPG,AFNE01.JPG,AFNE01.JPG,AFNE01.JPG,AFNE01.JPG,AFNE01.JPG,,,,,,,,,,,,,4,7,47,2,,,,,,,,,,,AMSA09.jpg,AMSA12.jpg,AMNE14.jpg,AMNE20.jpg,AMSA09.jpg,MS,2,num_8,32,num_2,2.81682619732,,,2017_Sep_12_1651,60.0064860869,FEMA4ImagesEEG,001,101603,
AFNE01.JPG,AFNE01.JPG,AFNE01.JPG,AFNE01.JPG,AFNE01.JPG,AFNE01.JPG,,,,,,,,,,,,,4,8,48,6,,,,,,,,,,,AMSA07.jpg,AMNE17.jpg,AMSA03.jpg,AMNE12.jpg,AMNE17.jpg,MN,1,num_6,16,num_6,0.900113638258,,,2017_Sep_12_1651,60.0064860869,FEMA4ImagesEEG,001,101603,
AFNE01.JPG,AFNE01.JPG,AFNE01.JPG,AFNE01.JPG,AFNE01.JPG,AFNE01.JPG,,,,,,,,,,,,,4,9,49,8,,,,,,,,,,,AMNE11.jpg,AMNE03.jpg,AMSA06.jpg,AMSA19.jpg,AMNE03.jpg,MN,1,num_6,32,num_4,4.85010903538,,,2017_Sep_12_1651,60.0064860869,FEMA4ImagesEEG,001,101603,
AFNE01.JPG,AFNE01.JPG,AFNE01.JPG,AFNE01.JPG,AFNE01.JPG,AFNE01.JPG,,,,,,,,,,,,,5,0,50,2,,,,,,,,,,,AMNE19.jpg,AMSA08.jpg,AMSA07.jpg,AMNE13.jpg,AMSA07.jpg,MS,2,num_2,32,num_8,3.06669172714,,,2017_Sep_12_1651,60.0064860869,FEMA4ImagesEEG,001,101603,
AFNE01.JPG,AFNE01.JPG,AFNE01.JPG,AFNE01.JPG,AFNE01.JPG,AFNE01.JPG,,,,,,,,,,,,,5,1,51,0,,,,,,,,,,,AMSA13.jpg,AMSA20.jpg,AMNE05.jpg,AMNE01.jpg,AMSA13.jpg,MS,2,num_8,16,num_8,1.73337774514,,,2017_Sep_12_1651,60.0064860869,FEMA4ImagesEEG,001,101603,
AFNE01.JPG,AFNE01.JPG,AFNE01.JPG,AFNE01.JPG,AFNE01.JPG,AFNE01.JPG,,,,,,,,,,,,,5,2,52,7,,,,,,,,,,,AMNE03.jpg,AMSA15.jpg,AMSA07.jpg,AMNE20.jpg,AMNE20.jpg,MN,1,num_4,32,num_2,1.15007827664,,,2017_Sep_12_1651,60.0064860869,FEMA4ImagesEEG,001,101603,
AFNE01.JPG,AFNE01.JPG,AFNE01.JPG,AFNE01.JPG,AFNE01.JPG,AFNE01.JPG,,,,,,,,,,,,,5,3,53,9,,,,,,,,,,,AMNE07.jpg,AMNE04.jpg,AMSA18.jpg,AMSA12.jpg,AMSA12.jpg,MS,2,num_4,32,num_8,1.21675973991,,,2017_Sep_12_1651,60.0064860869,FEMA4ImagesEEG,001,101603,
AFNE01.JPG,AFNE01.JPG,AFNE01.JPG,AFNE01.JPG,AFNE01.JPG,AFNE01.JPG,,,,,,,,,,,,,5,4,54,1,,,,,,,,,,,AMSA17.jpg,AMNE03.jpg,AMSA14.jpg,AMNE01.jpg,AMSA17.jpg,MS,2,num_8,32,num_2,1.61671926267,,,2017_Sep_12_1651,60.0064860869,FEMA4ImagesEEG,001,101603,
AFNE01.JPG,AFNE01.JPG,AFNE01.JPG,AFNE01.JPG,AFNE01.JPG,AFNE01.JPG,,,,,,,,,,,,,5,5,55,8,,,,,,,,,,,AMSA19.jpg,AMNE09.jpg,AMNE18.jpg,AMSA08.jpg,AMSA19.jpg,MS,2,num_8,32,num_6,1.01674838574,,,2017_Sep_12_1651,60.0064860869,FEMA4ImagesEEG,001,101603,
AFNE01.JPG,AFNE01.JPG,AFNE01.JPG,AFNE01.JPG,AFNE01.JPG,AFNE01.JPG,,,,,,,,,,,,,5,6,56,4,,,,,,,,,,,AMNE13.jpg,AMSA12.jpg,AMSA03.jpg,AMNE17.jpg,AMSA03.jpg,MS,2,num_2,32,num_8,0.433511782205,,,2017_Sep_12_1651,60.0064860869,FEMA4ImagesEEG,001,101603,
AFNE01.JPG,AFNE01.JPG,AFNE01.JPG,AFNE01.JPG,AFNE01.JPG,AFNE01.JPG,,,,,,,,,,,,,5,7,57,3,,,,,,,,,,,AMSA13.jpg,AMNE13.jpg,AMSA14.jpg,AMNE20.jpg,AMSA13.jpg,MS,2,num_8,32,num_4,1.15013889619,,,2017_Sep_12_1651,60.0064860869,FEMA4ImagesEEG,001,101603,
AFNE01.JPG,AFNE01.JPG,AFNE01.JPG,AFNE01.JPG,AFNE01.JPG,AFNE01.JPG,,,,,,,,,,,,,5,8,58,6,,,,,,,,,,,AMSA15.jpg,AMNE17.jpg,AMSA11.jpg,AMNE06.jpg,AMSA11.jpg,MS,2,num_2,32,num_8,1.16673621372,,,2017_Sep_12_1651,60.0064860869,FEMA4ImagesEEG,001,101603,
AFNE01.JPG,AFNE01.JPG,AFNE01.JPG,AFNE01.JPG,AFNE01.JPG,AFNE01.JPG,,,,,,,,,,,,,5,9,59,5,,,,,,,,,,,AMSA11.jpg,AMNE05.jpg,AMSA01.jpg,AMNE10.jpg,AMSA11.jpg,MS,2,num_8,16,num_8,1.35007519764,,,2017_Sep_12_1651,60.0064860869,FEMA4ImagesEEG,001,101603,
,,,,,,,,,,,,,,,,,,,,,,,,,,,,,,,,,,,,,,,,,,,space,3.23330605985,2017_Sep_12_1651,60.0064860869,FEMA4ImagesEEG,001,101603,
AFNE01.JPG,AFNE01.JPG,AFNE01.JPG,AFNE01.JPG,AFNE01.JPG,AFNE01.JPG,,,,,,,,,,,,,,,,,0,0,0,9,,,,,,,AFSA13.jpg,AFNE08.jpg,AFSA15.jpg,AFNE13.jpg,AFNE13.jpg,FN,3,num_4,32,num_8,1.06671898998,,,2017_Sep_12_1651,60.0064860869,FEMA4ImagesEEG,001,101603,
AFNE01.JPG,AFNE01.JPG,AFNE01.JPG,AFNE01.JPG,AFNE01.JPG,AFNE01.JPG,,,,,,,,,,,,,,,,,0,1,1,2,,,,,,,AFNE05.jpg,AFNE06.jpg,AFSA11.jpg,AFSA08.jpg,AFNE05.jpg,FN,3,num_8,32,num_6,0.666829067981,,,2017_Sep_12_1651,60.0064860869,FEMA4ImagesEEG,001,101603,
AFNE01.JPG,AFNE01.JPG,AFNE01.JPG,AFNE01.JPG,AFNE01.JPG,AFNE01.JPG,,,,,,,,,,,,,,,,,0,2,2,8,,,,,,,AFNE01.jpg,AFSA03.jpg,AFSA10.jpg,AFNE20.jpg,AFNE01.jpg,FN,3,num_8,32,num_4,0.400172814494,,,2017_Sep_12_1651,60.0064860869,FEMA4ImagesEEG,001,101603,
AFNE01.JPG,AFNE01.JPG,AFNE01.JPG,AFNE01.JPG,AFNE01.JPG,AFNE01.JPG,,,,,,,,,,,,,,,,,0,3,3,3,,,,,,,AFSA09.jpg,AFNE10.jpg,AFSA13.jpg,AFNE14.jpg,AFNE14.jpg,FN,3,num_4,32,num_6,0.35014255275,,,2017_Sep_12_1651,60.0064860869,FEMA4ImagesEEG,001,101603,
AFNE01.JPG,AFNE01.JPG,AFNE01.JPG,AFNE01.JPG,AFNE01.JPG,AFNE01.JPG,,,,,,,,,,,,,,,,,0,4,4,6,,,,,,,AFSA07.jpg,AFSA04.jpg,AFNE03.jpg,AFNE07.jpg,AFSA07.jpg,FS,4,num_8,16,num_8,0.83345847507,,,2017_Sep_12_1651,60.0064860869,FEMA4ImagesEEG,001,101603,
AFNE01.JPG,AFNE01.JPG,AFNE01.JPG,AFNE01.JPG,AFNE01.JPG,AFNE01.JPG,,,,,,,,,,,,,,,,,0,5,5,5,,,,,,,AFSA15.jpg,AFNE13.jpg,AFNE10.jpg,AFSA13.jpg,AFNE10.jpg,FN,3,num_2,16,num_2,1.56674096058,,,2017_Sep_12_1651,60.0064860869,FEMA4ImagesEEG,001,101603,
AFNE01.JPG,AFNE01.JPG,AFNE01.JPG,AFNE01.JPG,AFNE01.JPG,AFNE01.JPG,,,,,,,,,,,,,,,,,0,6,6,0,,,,,,,AFSA17.jpg,AFNE05.jpg,AFNE19.jpg,AFSA19.jpg,AFNE05.jpg,FN,3,num_6,32,num_4,2.00004297891,,,2017_Sep_12_1651,60.0064860869,FEMA4ImagesEEG,001,101603,
AFNE01.JPG,AFNE01.JPG,AFNE01.JPG,AFNE01.JPG,AFNE01.JPG,AFNE01.JPG,,,,,,,,,,,,,,,,,0,7,7,4,,,,,,,AFNE12.jpg,AFSA12.jpg,AFSA17.jpg,AFNE05.jpg,AFNE12.jpg,FN,3,num_8,32,num_6,2.13336164388,,,2017_Sep_12_1651,60.0064860869,FEMA4ImagesEEG,001,101603,
AFNE01.JPG,AFNE01.JPG,AFNE01.JPG,AFNE01.JPG,AFNE01.JPG,AFNE01.JPG,,,,,,,,,,,,,,,,,0,8,8,7,,,,,,,AFSA10.jpg,AFNE10.jpg,AFSA05.jpg,AFNE01.jpg,AFNE01.jpg,FN,3,num_4,32,num_8,1.03344673617,,,2017_Sep_12_1651,60.0064860869,FEMA4ImagesEEG,001,101603,
AFNE01.JPG,AFNE01.JPG,AFNE01.JPG,AFNE01.JPG,AFNE01.JPG,AFNE01.JPG,,,,,,,,,,,,,,,,,0,9,9,1,,,,,,,AFSA20.jpg,AFNE07.jpg,AFSA13.jpg,AFNE08.jpg,AFSA20.jpg,FS,4,num_8,32,num_2,1.30008502817,,,2017_Sep_12_1651,60.0064860869,FEMA4ImagesEEG,001,101603,
AFNE01.JPG,AFNE01.JPG,AFNE01.JPG,AFNE01.JPG,AFNE01.JPG,AFNE01.JPG,,,,,,,,,,,,,,,,,1,0,10,0,,,,,,,AFSA15.jpg,AFNE16.jpg,AFNE03.jpg,AFSA03.jpg,AFNE16.jpg,FN,3,num_6,32,num_4,0.433459501481,,,2017_Sep_12_1651,60.0064860869,FEMA4ImagesEEG,001,101603,
AFNE01.JPG,AFNE01.JPG,AFNE01.JPG,AFNE01.JPG,AFNE01.JPG,AFNE01.JPG,,,,,,,,,,,,,,,,,1,1,11,9,,,,,,,AFSA18.jpg,AFSA01.jpg,AFNE11.jpg,AFNE17.jpg,AFSA18.jpg,FS,4,num_8,32,num_6,0.916710955556,,,2017_Sep_12_1651,60.0064860869,FEMA4ImagesEEG,001,101603,
AFNE01.JPG,AFNE01.JPG,AFNE01.JPG,AFNE01.JPG,AFNE01.JPG,AFNE01.JPG,,,,,,,,,,,,,,,,,1,2,12,4,,,,,,,AFNE11.jpg,AFNE09.jpg,AFSA01.jpg,AFSA03.jpg,AFSA03.jpg,FS,4,num_4,32,num_2,0.633509986103,,,2017_Sep_12_1651,60.0064860869,FEMA4ImagesEEG,001,101603,
AFNE01.JPG,AFNE01.JPG,AFNE01.JPG,AFNE01.JPG,AFNE01.JPG,AFNE01.JPG,,,,,,,,,,,,,,,,,1,3,13,2,,,,,,,AFNE10.jpg,AFSA10.jpg,AFNE12.jpg,AFSA20.jpg,AFNE10.jpg,FN,3,num_8,16,num_8,1.36673153099,,,2017_Sep_12_1651,60.0064860869,FEMA4ImagesEEG,001,101603,
AFNE01.JPG,AFNE01.JPG,AFNE01.JPG,AFNE01.JPG,AFNE01.JPG,AFNE01.JPG,,,,,,,,,,,,,,,,,1,4,14,3,,,,,,,AFNE19.jpg,AFNE08.jpg,AFSA20.jpg,AFSA07.jpg,AFNE08.jpg,FN,3,num_6,32,num_2,0.483318809187,,,2017_Sep_12_1651,60.0064860869,FEMA4ImagesEEG,001,101603,
AFNE01.JPG,AFNE01.JPG,AFNE01.JPG,AFNE01.JPG,AFNE01.JPG,AFNE01.JPG,,,,,,,,,,,,,,,,,1,5,15,5,,,,,,,AFSA01.jpg,AFSA14.jpg,AFNE20.jpg,AFNE16.jpg,AFSA01.jpg,FS,4,num_8,32,num_4,0.350198040716,,,2017_Sep_12_1651,60.0064860869,FEMA4ImagesEEG,001,101603,
AFNE01.JPG,AFNE01.JPG,AFNE01.JPG,AFNE01.JPG,AFNE01.JPG,AFNE01.JPG,,,,,,,,,,,,,,,,,1,6,16,1,,,,,,,AFSA01.jpg,AFNE08.jpg,AFSA09.jpg,AFNE15.jpg,AFNE08.jpg,FN,3,num_6,32,num_2,1.66673893994,,,2017_Sep_12_1651,60.0064860869,FEMA4ImagesEEG,001,101603,
AFNE01.JPG,AFNE01.JPG,AFNE01.JPG,AFNE01.JPG,AFNE01.JPG,AFNE01.JPG,,,,,,,,,,,,,,,,,1,7,17,6,,,,,,,AFSA06.jpg,AFNE14.jpg,AFSA05.jpg,AFNE19.jpg,AFNE19.jpg,FN,3,num_4,32,num_8,1.73368693818,,,2017_Sep_12_1651,60.0064860869,FEMA4ImagesEEG,001,101603,
AFNE01.JPG,AFNE01.JPG,AFNE01.JPG,AFNE01.JPG,AFNE01.JPG,AFNE01.JPG,,,,,,,,,,,,,,,,,1,8,18,8,,,,,,,AFNE15.jpg,AFNE10.jpg,AFSA16.jpg,AFSA13.jpg,AFNE15.jpg,FN,3,num_8,32,num_4,0.950172125129,,,2017_Sep_12_1651,60.0064860869,FEMA4ImagesEEG,001,101603,
AFNE01.JPG,AFNE01.JPG,AFNE01.JPG,AFNE01.JPG,AFNE01.JPG,AFNE01.JPG,,,,,,,,,,,,,,,,,1,9,19,7,,,,,,,AFNE10.jpg,AFSA09.jpg,AFNE07.jpg,AFSA13.jpg,AFNE07.jpg,FN,3,num_2,16,num_2,0.466664720792,,,2017_Sep_12_1651,60.0064860869,FEMA4ImagesEEG,001,101603,
AFNE01.JPG,AFNE01.JPG,AFNE01.JPG,AFNE01.JPG,AFNE01.JPG,AFNE01.JPG,,,,,,,,,,,,,,,,,2,0,20,2,,,,,,,AFNE19.jpg,AFSA06.jpg,AFSA20.jpg,AFNE12.jpg,AFSA06.jpg,FS,4,num_6,16,num_6,0.333480445901,,,2017_Sep_12_1651,60.0064860869,FEMA4ImagesEEG,001,101603,
AFNE01.JPG,AFNE01.JPG,AFNE01.JPG,AFNE01.JPG,AFNE01.JPG,AFNE01.JPG,,,,,,,,,,,,,,,,,2,1,21,8,,,,,,,AFSA14.jpg,AFSA04.jpg,AFNE08.jpg,AFNE18.jpg,AFNE08.jpg,FN,3,num_2,32,num_8,0.416678079637,,,2017_Sep_12_1651,60.0064860869,FEMA4ImagesEEG,001,101603,
AFNE01.JPG,AFNE01.JPG,AFNE01.JPG,AFNE01.JPG,AFNE01.JPG,AFNE01.JPG,,,,,,,,,,,,,,,,,2,2,22,9,,,,,,,AFNE09.jpg,AFNE16.jpg,AFSA03.jpg,AFSA10.jpg,AFNE09.jpg,FN,3,num_8,32,num_4,0.733481023228,,,2017_Sep_12_1651,60.0064860869,FEMA4ImagesEEG,001,101603,
AFNE01.JPG,AFNE01.JPG,AFNE01.JPG,AFNE01.JPG,AFNE01.JPG,AFNE01.JPG,,,,,,,,,,,,,,,,,2,3,23,7,,,,,,,AFNE15.jpg,AFSA08.jpg,AFSA01.jpg,AFNE19.jpg,AFSA08.jpg,FS,4,num_6,32,num_8,0.716784917982,,,2017_Sep_12_1651,60.0064860869,FEMA4ImagesEEG,001,101603,
AFNE01.JPG,AFNE01.JPG,AFNE01.JPG,AFNE01.JPG,AFNE01.JPG,AFNE01.JPG,,,,,,,,,,,,,,,,,2,4,24,0,,,,,,,AFNE09.jpg,AFNE08.jpg,AFSA12.jpg,AFSA04.jpg,AFNE09.jpg,FN,3,num_8,32,num_6,0.416811507428,,,2017_Sep_12_1651,60.0064860869,FEMA4ImagesEEG,001,101603,
AFNE01.JPG,AFNE01.JPG,AFNE01.JPG,AFNE01.JPG,AFNE01.JPG,AFNE01.JPG,,,,,,,,,,,,,,,,,2,5,25,5,,,,,,,AFNE14.jpg,AFSA06.jpg,AFSA20.jpg,AFNE15.jpg,AFSA06.jpg,FS,4,num_6,16,num_6,1.26673034439,,,2017_Sep_12_1651,60.0064860869,FEMA4ImagesEEG,001,101603,
AFNE01.JPG,AFNE01.JPG,AFNE01.JPG,AFNE01.JPG,AFNE01.JPG,AFNE01.JPG,,,,,,,,,,,,,,,,,2,6,26,6,,,,,,,AFSA05.jpg,AFNE12.jpg,AFSA15.jpg,AFNE11.jpg,AFNE12.jpg,FN,3,num_6,32,num_2,0.966500341892,,,2017_Sep_12_1651,60.0064860869,FEMA4ImagesEEG,001,101603,
AFNE01.JPG,AFNE01.JPG,AFNE01.JPG,AFNE01.JPG,AFNE01.JPG,AFNE01.JPG,,,,,,,,,,,,,,,,,2,7,27,4,,,,,,,AFNE10.jpg,AFSA19.jpg,AFNE13.jpg,AFSA14.jpg,AFNE10.jpg,FN,3,num_8,32,num_4,0.816800537985,,,2017_Sep_12_1651,60.0064860869,FEMA4ImagesEEG,001,101603,
AFNE01.JPG,AFNE01.JPG,AFNE01.JPG,AFNE01.JPG,AFNE01.JPG,AFNE01.JPG,,,,,,,,,,,,,,,,,2,8,28,1,,,,,,,AFNE14.jpg,AFSA02.jpg,AFNE20.jpg,AFSA19.jpg,AFSA02.jpg,FS,4,num_6,32,num_8,1.58340980299,,,2017_Sep_12_1651,60.0064860869,FEMA4ImagesEEG,001,101603,
AFNE01.JPG,AFNE01.JPG,AFNE01.JPG,AFNE01.JPG,AFNE01.JPG,AFNE01.JPG,,,,,,,,,,,,,,,,,2,9,29,3,,,,,,,AFNE07.jpg,AFSA03.jpg,AFSA20.jpg,AFNE13.jpg,AFSA03.jpg,FS,4,num_6,16,num_6,0.366819093004,,,2017_Sep_12_1651,60.0064860869,FEMA4ImagesEEG,001,101603,
AFNE01.JPG,AFNE01.JPG,AFNE01.JPG,AFNE01.JPG,AFNE01.JPG,AFNE01.JPG,,,,,,,,,,,,,,,,,3,0,30,9,,,,,,,AFSA14.jpg,AFNE04.jpg,AFSA11.jpg,AFNE09.jpg,AFNE04.jpg,FN,3,num_6,32,num_8,0.70005577663,,,2017_Sep_12_1651,60.0064860869,FEMA4ImagesEEG,001,101603,
AFNE01.JPG,AFNE01.JPG,AFNE01.JPG,AFNE01.JPG,AFNE01.JPG,AFNE01.JPG,,,,,,,,,,,,,,,,,3,1,31,7,,,,,,,AFSA11.jpg,AFSA13.jpg,AFNE19.jpg,AFNE07.jpg,AFSA13.jpg,FS,4,num_6,16,num_6,0.550041647861,,,2017_Sep_12_1651,60.0064860869,FEMA4ImagesEEG,001,101603,
AFNE01.JPG,AFNE01.JPG,AFNE01.JPG,AFNE01.JPG,AFNE01.JPG,AFNE01.JPG,,,,,,,,,,,,,,,,,3,2,32,2,,,,,,,AFSA05.jpg,AFSA11.jpg,AFNE08.jpg,AFNE15.jpg,AFSA11.jpg,FS,4,num_6,32,num_8,0.966730632819,,,2017_Sep_12_1651,60.0064860869,FEMA4ImagesEEG,001,101603,
AFNE01.JPG,AFNE01.JPG,AFNE01.JPG,AFNE01.JPG,AFNE01.JPG,AFNE01.JPG,,,,,,,,,,,,,,,,,3,3,33,4,,,,,,,AFNE01.jpg,AFSA14.jpg,AFNE06.jpg,AFSA05.jpg,AFSA05.jpg,FS,4,num_4,16,num_4,0.350158268819,,,2017_Sep_12_1651,60.0064860869,FEMA4ImagesEEG,001,101603,
AFNE01.JPG,AFNE01.JPG,AFNE01.JPG,AFNE01.JPG,AFNE01.JPG,AFNE01.JPG,,,,,,,,,,,,,,,,,3,4,34,8,,,,,,,AFNE14.jpg,AFNE20.jpg,AFSA01.jpg,AFSA12.jpg,AFSA01.jpg,FS,4,num_2,32,num_6,1.56677816645,,,2017_Sep_12_1651,60.0064860869,FEMA4ImagesEEG,001,101603,
AFNE01.JPG,AFNE01.JPG,AFNE01.JPG,AFNE01.JPG,AFNE01.JPG,AFNE01.JPG,,,,,,,,,,,,,,,,,3,5,35,1,,,,,,,AFNE19.jpg,AFNE17.jpg,AFSA05.jpg,AFSA06.jpg,AFNE17.jpg,FN,3,num_6,16,num_6,2.44984641369,,,2017_Sep_12_1651,60.0064860869,FEMA4ImagesEEG,001,101603,
AFNE01.JPG,AFNE01.JPG,AFNE01.JPG,AFNE01.JPG,AFNE01.JPG,AFNE01.JPG,,,,,,,,,,,,,,,,,3,6,36,3,,,,,,,AFNE12.jpg,AFNE06.jpg,AFSA15.jpg,AFSA13.jpg,AFSA15.jpg,FS,4,num_2,32,num_8,0.450225848705,,,2017_Sep_12_1651,60.0064860869,FEMA4ImagesEEG,001,101603,
AFNE01.JPG,AFNE01.JPG,AFNE01.JPG,AFNE01.JPG,AFNE01.JPG,AFNE01.JPG,,,,,,,,,,,,,,,,,3,7,37,5,,,,,,,AFNE06.jpg,AFNE03.jpg,AFSA19.jpg,AFSA18.jpg,AFNE06.jpg,FN,3,num_8,16,num_8,0.6334686107,,,2017_Sep_12_1651,60.0064860869,FEMA4ImagesEEG,001,101603,
AFNE01.JPG,AFNE01.JPG,AFNE01.JPG,AFNE01.JPG,AFNE01.JPG,AFNE01.JPG,,,,,,,,,,,,,,,,,3,8,38,0,,,,,,,AFNE04.jpg,AFSA16.jpg,AFSA12.jpg,AFNE20.jpg,AFNE04.jpg,FN,3,num_8,32,num_4,0.783450344345,,,2017_Sep_12_1651,60.0064860869,FEMA4ImagesEEG,001,101603,
AFNE01.JPG,AFNE01.JPG,AFNE01.JPG,AFNE01.JPG,AFNE01.JPG,AFNE01.JPG,,,,,,,,,,,,,,,,,3,9,39,6,,,,,,,AFSA15.jpg,AFNE07.jpg,AFSA12.jpg,AFNE01.jpg,AFSA12.jpg,FS,4,num_2,32,num_6,0.533405521186,,,2017_Sep_12_1651,60.0064860869,FEMA4ImagesEEG,001,101603,
AFNE01.JPG,AFNE01.JPG,AFNE01.JPG,AFNE01.JPG,AFNE01.JPG,AFNE01.JPG,,,,,,,,,,,,,,,,,4,0,40,1,,,,,,,AFSA07.jpg,AFSA17.jpg,AFNE18.jpg,AFNE12.jpg,AFSA17.jpg,FS,4,num_6,16,num_6,0.783495248063,,,2017_Sep_12_1651,60.0064860869,FEMA4ImagesEEG,001,101603,
AFNE01.JPG,AFNE01.JPG,AFNE01.JPG,AFNE01.JPG,AFNE01.JPG,AFNE01.JPG,,,,,,,,,,,,,,,,,4,1,41,7,,,,,,,AFNE16.jpg,AFNE19.jpg,AFSA11.jpg,AFSA14.jpg,AFNE16.jpg,FN,3,num_8,16,num_8,1.26674573985,,,2017_Sep_12_1651,60.0064860869,FEMA4ImagesEEG,001,101603,
AFNE01.JPG,AFNE01.JPG,AFNE01.JPG,AFNE01.JPG,AFNE01.JPG,AFNE01.JPG,,,,,,,,,,,,,,,,,4,2,42,6,,,,,,,AFSA08.jpg,AFNE02.jpg,AFNE06.jpg,AFSA17.jpg,AFSA17.jpg,FS,4,num_4,16,num_4,0.866747407708,,,2017_Sep_12_1651,60.0064860869,FEMA4ImagesEEG,001,101603,
AFNE01.JPG,AFNE01.JPG,AFNE01.JPG,AFNE01.JPG,AFNE01.JPG,AFNE01.JPG,,,,,,,,,,,,,,,,,4,3,43,8,,,,,,,AFSA09.jpg,AFNE05.jpg,AFSA10.jpg,AFNE20.jpg,AFNE20.jpg,FN,3,num_4,32,num_6,0.700133074773,,,2017_Sep_12_1651,60.0064860869,FEMA4ImagesEEG,001,101603,
AFNE01.JPG,AFNE01.JPG,AFNE01.JPG,AFNE01.JPG,AFNE01.JPG,AFNE01.JPG,,,,,,,,,,,,,,,,,4,4,44,9,,,,,,,AFNE03.jpg,AFSA13.jpg,AFSA02.jpg,AFNE06.jpg,AFSA13.jpg,FS,4,num_6,32,num_8,0.600163320545,,,2017_Sep_12_1651,60.0064860869,FEMA4ImagesEEG,001,101603,
AFNE01.JPG,AFNE01.JPG,AFNE01.JPG,AFNE01.JPG,AFNE01.JPG,AFNE01.JPG,,,,,,,,,,,,,,,,,4,5,45,5,,,,,,,AFSA15.jpg,AFNE02.jpg,AFNE07.jpg,AFSA04.jpg,AFSA15.jpg,FS,4,num_8,32,num_2,1.65038153599,,,2017_Sep_12_1651,60.0064860869,FEMA4ImagesEEG,001,101603,
AFNE01.JPG,AFNE01.JPG,AFNE01.JPG,AFNE01.JPG,AFNE01.JPG,AFNE01.JPG,,,,,,,,,,,,,,,,,4,6,46,2,,,,,,,AFNE17.jpg,AFSA19.jpg,AFSA05.jpg,AFNE15.jpg,AFSA05.jpg,FS,4,num_2,32,num_8,0.616803617217,,,2017_Sep_12_1651,60.0064860869,FEMA4ImagesEEG,001,101603,
AFNE01.JPG,AFNE01.JPG,AFNE01.JPG,AFNE01.JPG,AFNE01.JPG,AFNE01.JPG,,,,,,,,,,,,,,,,,4,7,47,3,,,,,,,AFNE11.jpg,AFNE10.jpg,AFSA06.jpg,AFSA17.jpg,AFNE10.jpg,FN,3,num_6,32,num_4,0.550126002636,,,2017_Sep_12_1651,60.0064860869,FEMA4ImagesEEG,001,101603,
AFNE01.JPG,AFNE01.JPG,AFNE01.JPG,AFNE01.JPG,AFNE01.JPG,AFNE01.JPG,,,,,,,,,,,,,,,,,4,8,48,0,,,,,,,AFSA07.jpg,AFSA01.jpg,AFNE05.jpg,AFNE14.jpg,AFSA07.jpg,FS,4,num_8,32,num_6,1.15006737132,,,2017_Sep_12_1651,60.0064860869,FEMA4ImagesEEG,001,101603,
AFNE01.JPG,AFNE01.JPG,AFNE01.JPG,AFNE01.JPG,AFNE01.JPG,AFNE01.JPG,,,,,,,,,,,,,,,,,4,9,49,4,,,,,,,AFNE15.jpg,AFSA06.jpg,AFNE13.jpg,AFSA13.jpg,AFSA06.jpg,FS,4,num_6,32,num_8,0.133519127034,,,2017_Sep_12_1651,60.0064860869,FEMA4ImagesEEG,001,101603,
AFNE01.JPG,AFNE01.JPG,AFNE01.JPG,AFNE01.JPG,AFNE01.JPG,AFNE01.JPG,,,,,,,,,,,,,,,,,5,0,50,7,,,,,,,AFNE06.jpg,AFSA14.jpg,AFSA02.jpg,AFNE20.jpg,AFSA14.jpg,FS,4,num_6,32,num_4,0.416786489543,,,2017_Sep_12_1651,60.0064860869,FEMA4ImagesEEG,001,101603,
AFNE01.JPG,AFNE01.JPG,AFNE01.JPG,AFNE01.JPG,AFNE01.JPG,AFNE01.JPG,,,,,,,,,,,,,,,,,5,1,51,0,,,,,,,AFSA16.jpg,AFNE07.jpg,AFNE06.jpg,AFSA01.jpg,AFSA16.jpg,FS,4,num_8,32,num_6,2.46660891199,,,2017_Sep_12_1651,60.0064860869,FEMA4ImagesEEG,001,101603,
AFNE01.JPG,AFNE01.JPG,AFNE01.JPG,AFNE01.JPG,AFNE01.JPG,AFNE01.JPG,,,,,,,,,,,,,,,,,5,2,52,1,,,,,,,AFSA08.jpg,AFSA02.jpg,AFNE13.jpg,AFNE11.jpg,AFNE11.jpg,FN,3,num_4,32,num_8,1.1001323692,,,2017_Sep_12_1651,60.0064860869,FEMA4ImagesEEG,001,101603,
AFNE01.JPG,AFNE01.JPG,AFNE01.JPG,AFNE01.JPG,AFNE01.JPG,AFNE01.JPG,,,,,,,,,,,,,,,,,5,3,53,9,,,,,,,AFNE07.jpg,AFSA02.jpg,AFNE14.jpg,AFSA20.jpg,AFNE14.jpg,FN,3,num_2,32,num_4,0.283494767034,,,2017_Sep_12_1651,60.0064860869,FEMA4ImagesEEG,001,101603,
AFNE01.JPG,AFNE01.JPG,AFNE01.JPG,AFNE01.JPG,AFNE01.JPG,AFNE01.JPG,,,,,,,,,,,,,,,,,5,4,54,8,,,,,,,AFSA14.jpg,AFNE08.jpg,AFSA10.jpg,AFNE12.jpg,AFSA10.jpg,FS,4,num_2,32,num_6,0.366798565723,,,2017_Sep_12_1651,60.0064860869,FEMA4ImagesEEG,001,101603,
AFNE01.JPG,AFNE01.JPG,AFNE01.JPG,AFNE01.JPG,AFNE01.JPG,AFNE01.JPG,,,,,,,,,,,,,,,,,5,5,55,5,,,,,,,AFSA04.jpg,AFNE13.jpg,AFSA18.jpg,AFNE20.jpg,AFSA18.jpg,FS,4,num_2,16,num_2,0.783438797807,,,2017_Sep_12_1651,60.0064860869,FEMA4ImagesEEG,001,101603,
AFNE01.JPG,AFNE01.JPG,AFNE01.JPG,AFNE01.JPG,AFNE01.JPG,AFNE01.JPG,,,,,,,,,,,,,,,,,5,6,56,2,,,,,,,AFSA04.jpg,AFSA02.jpg,AFNE11.jpg,AFNE03.jpg,AFSA04.jpg,FS,4,num_8,16,num_8,2.26668961043,,,2017_Sep_12_1651,60.0064860869,FEMA4ImagesEEG,001,101603,
AFNE01.JPG,AFNE01.JPG,AFNE01.JPG,AFNE01.JPG,AFNE01.JPG,AFNE01.JPG,,,,,,,,,,,,,,,,,5,7,57,3,,,,,,,AFSA12.jpg,AFSA01.jpg,AFNE13.jpg,AFNE20.jpg,AFNE20.jpg,FN,3,num_4,16,num_4,1.25009165145,,,2017_Sep_12_1651,60.0064860869,FEMA4ImagesEEG,001,101603,
AFNE01.JPG,AFNE01.JPG,AFNE01.JPG,AFNE01.JPG,AFNE01.JPG,AFNE01.JPG,,,,,,,,,,,,,,,,,5,8,58,6,,,,,,,AFSA18.jpg,AFNE16.jpg,AFNE11.jpg,AFSA10.jpg,AFSA10.jpg,FS,4,num_4,32,num_2,2.00005773315,,,2017_Sep_12_1651,60.0064860869,FEMA4ImagesEEG,001,101603,
AFNE01.JPG,AFNE01.JPG,AFNE01.JPG,AFNE01.JPG,AFNE01.JPG,AFNE01.JPG,,,,,,,,,,,,,,,,,5,9,59,4,,,,,,,AFSA05.jpg,AFNE01.jpg,AFNE19.jpg,AFSA08.jpg,AFSA05.jpg,FS,4,num_8,32,num_6,0.466867428273,,,2017_Sep_12_1651,60.0064860869,FEMA4ImagesEEG,001,101603,
,,,,,,,,,,,,,,,,,,,,,,,,,,,,,,,,,,,,,,,,,,,space,27.181357133,2017_Sep_12_1651,60.0064860869,FEMA4ImagesEEG,001,101603,
AFNE01.JPG,AFNE01.JPG,AFNE01.JPG,AFNE01.JPG,AFNE01.JPG,AFNE01.JPG,,,,,,,,,,,,,,,,,,,,,0,0,0,0,,,AMSA13.jpg,AMSA05.jpg,AMNE10.jpg,AMNE01.jpg,AMSA13.jpg,MS,2,num_8,32,num_4,0.716783955926,,,2017_Sep_12_1651,60.0064860869,FEMA4ImagesEEG,001,101603,
AFNE01.JPG,AFNE01.JPG,AFNE01.JPG,AFNE01.JPG,AFNE01.JPG,AFNE01.JPG,,,,,,,,,,,,,,,,,,,,,0,1,1,5,,,AMSA16.jpg,AMNE02.jpg,AMSA04.jpg,AMNE07.jpg,AMNE07.jpg,MN,1,num_4,32,num_6,0.350153457839,,,2017_Sep_12_1651,60.0064860869,FEMA4ImagesEEG,001,101603,
AFNE01.JPG,AFNE01.JPG,AFNE01.JPG,AFNE01.JPG,AFNE01.JPG,AFNE01.JPG,,,,,,,,,,,,,,,,,,,,,0,2,2,3,,,AMSA16.jpg,AMSA14.jpg,AMNE01.jpg,AMNE06.jpg,AMSA16.jpg,MS,2,num_8,16,num_8,1.51675592316,,,2017_Sep_12_1651,60.0064860869,FEMA4ImagesEEG,001,101603,
AFNE01.JPG,AFNE01.JPG,AFNE01.JPG,AFNE01.JPG,AFNE01.JPG,AFNE01.JPG,,,,,,,,,,,,,,,,,,,,,0,3,3,4,,,AMNE20.jpg,AMNE03.jpg,AMSA05.jpg,AMSA02.jpg,AMSA02.jpg,MS,2,num_4,16,num_4,0.966769121587,,,2017_Sep_12_1651,60.0064860869,FEMA4ImagesEEG,001,101603,
AFNE01.JPG,AFNE01.JPG,AFNE01.JPG,AFNE01.JPG,AFNE01.JPG,AFNE01.JPG,,,,,,,,,,,,,,,,,,,,,0,4,4,6,,,AMNE01.jpg,AMSA03.jpg,AMNE12.jpg,AMSA17.jpg,AMNE01.jpg,MN,1,num_8,32,num_2,3.53297091881,,,2017_Sep_12_1651,60.0064860869,FEMA4ImagesEEG,001,101603,
AFNE01.JPG,AFNE01.JPG,AFNE01.JPG,AFNE01.JPG,AFNE01.JPG,AFNE01.JPG,,,,,,,,,,,,,,,,,,,,,0,5,5,1,,,AMSA11.jpg,AMNE10.jpg,AMNE05.jpg,AMSA10.jpg,AMNE10.jpg,MN,1,num_6,16,num_6,1.18339767889,,,2017_Sep_12_1651,60.0064860869,FEMA4ImagesEEG,001,101603,
AFNE01.JPG,AFNE01.JPG,AFNE01.JPG,AFNE01.JPG,AFNE01.JPG,AFNE01.JPG,,,,,,,,,,,,,,,,,,,,,0,6,6,7,,,AMSA04.jpg,AMNE07.jpg,AMSA10.jpg,AMNE05.jpg,AMSA04.jpg,MS,2,num_8,32,num_4,1.63341408502,,,2017_Sep_12_1651,60.0064860869,FEMA4ImagesEEG,001,101603,
AFNE01.JPG,AFNE01.JPG,AFNE01.JPG,AFNE01.JPG,AFNE01.JPG,AFNE01.JPG,,,,,,,,,,,,,,,,,,,,,0,7,7,8,,,AMNE13.jpg,AMSA10.jpg,AMNE12.jpg,AMSA08.jpg,AMSA10.jpg,MS,2,num_6,32,num_8,0.416814073222,,,2017_Sep_12_1651,60.0064860869,FEMA4ImagesEEG,001,101603,
AFNE01.JPG,AFNE01.JPG,AFNE01.JPG,AFNE01.JPG,AFNE01.JPG,AFNE01.JPG,,,,,,,,,,,,,,,,,,,,,0,8,8,9,,,AMNE08.jpg,AMNE05.jpg,AMSA04.jpg,AMSA18.jpg,AMNE08.jpg,MN,1,num_8,32,num_6,1.10006918339,,,2017_Sep_12_1651,60.0064860869,FEMA4ImagesEEG,001,101603,
AFNE01.JPG,AFNE01.JPG,AFNE01.JPG,AFNE01.JPG,AFNE01.JPG,AFNE01.JPG,,,,,,,,,,,,,,,,,,,,,0,9,9,2,,,AMNE03.jpg,AMNE20.jpg,AMSA05.jpg,AMSA13.jpg,AMSA05.jpg,MS,2,num_2,32,num_6,0.916783122113,,,2017_Sep_12_1651,60.0064860869,FEMA4ImagesEEG,001,101603,
AFNE01.JPG,AFNE01.JPG,AFNE01.JPG,AFNE01.JPG,AFNE01.JPG,AFNE01.JPG,,,,,,,,,,,,,,,,,,,,,1,0,10,1,,,AMNE12.jpg,AMSA19.jpg,AMSA20.jpg,AMNE13.jpg,AMSA20.jpg,MS,2,num_2,32,num_4,0.700224165106,,,2017_Sep_12_1651,60.0064860869,FEMA4ImagesEEG,001,101603,
AFNE01.JPG,AFNE01.JPG,AFNE01.JPG,AFNE01.JPG,AFNE01.JPG,AFNE01.JPG,,,,,,,,,,,,,,,,,,,,,1,1,11,3,,,AMSA09.jpg,AMNE20.jpg,AMNE06.jpg,AMSA04.jpg,AMSA09.jpg,MS,2,num_8,16,num_8,1.10021447879,,,2017_Sep_12_1651,60.0064860869,FEMA4ImagesEEG,001,101603,
AFNE01.JPG,AFNE01.JPG,AFNE01.JPG,AFNE01.JPG,AFNE01.JPG,AFNE01.JPG,,,,,,,,,,,,,,,,,,,,,1,2,12,5,,,AMSA17.jpg,AMSA10.jpg,AMNE10.jpg,AMNE06.jpg,AMNE10.jpg,MN,1,num_2,16,num_2,1.85003558616,,,2017_Sep_12_1651,60.0064860869,FEMA4ImagesEEG,001,101603,
AFNE01.JPG,AFNE01.JPG,AFNE01.JPG,AFNE01.JPG,AFNE01.JPG,AFNE01.JPG,,,,,,,,,,,,,,,,,,,,,1,3,13,4,,,AMNE05.jpg,AMSA12.jpg,AMSA06.jpg,AMNE01.jpg,AMSA12.jpg,MS,2,num_6,32,num_4,0.933384288102,,,2017_Sep_12_1651,60.0064860869,FEMA4ImagesEEG,001,101603,
AFNE01.JPG,AFNE01.JPG,AFNE01.JPG,AFNE01.JPG,AFNE01.JPG,AFNE01.JPG,,,,,,,,,,,,,,,,,,,,,1,4,14,8,,,AMNE07.jpg,AMNE16.jpg,AMSA12.jpg,AMSA19.jpg,AMNE07.jpg,MN,1,num_8,16,num_8,1.53341899207,,,2017_Sep_12_1651,60.0064860869,FEMA4ImagesEEG,001,101603,
AFNE01.JPG,AFNE01.JPG,AFNE01.JPG,AFNE01.JPG,AFNE01.JPG,AFNE01.JPG,,,,,,,,,,,,,,,,,,,,,1,5,15,2,,,AMSA19.jpg,AMNE15.jpg,AMNE05.jpg,AMSA06.jpg,AMNE05.jpg,MN,1,num_2,32,num_6,1.2501602897,,,2017_Sep_12_1651,60.0064860869,FEMA4ImagesEEG,001,101603,
AFNE01.JPG,AFNE01.JPG,AFNE01.JPG,AFNE01.JPG,AFNE01.JPG,AFNE01.JPG,,,,,,,,,,,,,,,,,,,,,1,6,16,6,,,AMSA06.jpg,AMNE01.jpg,AMSA17.jpg,AMNE15.jpg,AMNE15.jpg,MN,1,num_4,16,num_4,0.45019249199,,,2017_Sep_12_1651,60.0064860869,FEMA4ImagesEEG,001,101603,
AFNE01.JPG,AFNE01.JPG,AFNE01.JPG,AFNE01.JPG,AFNE01.JPG,AFNE01.JPG,,,,,,,,,,,,,,,,,,,,,1,7,17,0,,,AMSA05.jpg,AMNE11.jpg,AMSA06.jpg,AMNE20.jpg,AMSA06.jpg,MS,2,num_2,32,num_8,0.60012996383,,,2017_Sep_12_1651,60.0064860869,FEMA4ImagesEEG,001,101603,
AFNE01.JPG,AFNE01.JPG,AFNE01.JPG,AFNE01.JPG,AFNE01.JPG,AFNE01.JPG,,,,,,,,,,,,,,,,,,,,,1,8,18,7,,,AMSA18.jpg,AMNE20.jpg,AMSA03.jpg,AMNE06.jpg,AMNE06.jpg,MN,1,num_4,32,num_6,0.850121223601,,,2017_Sep_12_1651,60.0064860869,FEMA4ImagesEEG,001,101603,
AFNE01.JPG,AFNE01.JPG,AFNE01.JPG,AFNE01.JPG,AFNE01.JPG,AFNE01.JPG,,,,,,,,,,,,,,,,,,,,,1,9,19,9,,,AMSA02.jpg,AMNE13.jpg,AMNE10.jpg,AMSA20.jpg,AMNE13.jpg,MN,1,num_6,16,num_6,1.46672117105,,,2017_Sep_12_1651,60.0064860869,FEMA4ImagesEEG,001,101603,
AFNE01.JPG,AFNE01.JPG,AFNE01.JPG,AFNE01.JPG,AFNE01.JPG,AFNE01.JPG,,,,,,,,,,,,,,,,,,,,,2,0,20,7,,,AMNE04.jpg,AMSA19.jpg,AMNE01.jpg,AMSA09.jpg,AMNE04.jpg,MN,1,num_8,16,num_8,0.816767822485,,,2017_Sep_12_1651,60.0064860869,FEMA4ImagesEEG,001,101603,
AFNE01.JPG,AFNE01.JPG,AFNE01.JPG,AFNE01.JPG,AFNE01.JPG,AFNE01.JPG,,,,,,,,,,,,,,,,,,,,,2,1,21,2,,,AMNE02.jpg,AMSA15.jpg,AMSA11.jpg,AMNE05.jpg,AMNE02.jpg,MN,1,num_8,16,num_8,0.900106261019,,,2017_Sep_12_1651,60.0064860869,FEMA4ImagesEEG,001,101603,
AFNE01.JPG,AFNE01.JPG,AFNE01.JPG,AFNE01.JPG,AFNE01.JPG,AFNE01.JPG,,,,,,,,,,,,,,,,,,,,,2,2,22,6,,,AMSA09.jpg,AMSA10.jpg,AMNE10.jpg,AMNE18.jpg,AMSA10.jpg,MS,2,num_6,32,num_8,0.933473453624,,,2017_Sep_12_1651,60.0064860869,FEMA4ImagesEEG,001,101603,
AFNE01.JPG,AFNE01.JPG,AFNE01.JPG,AFNE01.JPG,AFNE01.JPG,AFNE01.JPG,,,,,,,,,,,,,,,,,,,,,2,3,23,9,,,AMNE18.jpg,AMSA10.jpg,AMSA20.jpg,AMNE04.jpg,AMSA10.jpg,MS,2,num_6,16,num_6,0.800092565594,,,2017_Sep_12_1651,60.0064860869,FEMA4ImagesEEG,001,101603,
AFNE01.JPG,AFNE01.JPG,AFNE01.JPG,AFNE01.JPG,AFNE01.JPG,AFNE01.JPG,,,,,,,,,,,,,,,,,,,,,2,4,24,4,,,AMSA13.jpg,AMNE02.jpg,AMSA02.jpg,AMNE11.jpg,AMNE11.jpg,MN,1,num_4,16,num_4,1.63342049951,,,2017_Sep_12_1651,60.0064860869,FEMA4ImagesEEG,001,101603,
AFNE01.JPG,AFNE01.JPG,AFNE01.JPG,AFNE01.JPG,AFNE01.JPG,AFNE01.JPG,,,,,,,,,,,,,,,,,,,,,2,5,25,3,,,AMNE20.jpg,AMSA02.jpg,AMNE04.jpg,AMSA13.jpg,AMSA13.jpg,MS,2,num_4,32,num_8,0.466775055276,,,2017_Sep_12_1651,60.0064860869,FEMA4ImagesEEG,001,101603,
AFNE01.JPG,AFNE01.JPG,AFNE01.JPG,AFNE01.JPG,AFNE01.JPG,AFNE01.JPG,,,,,,,,,,,,,,,,,,,,,2,6,26,0,,,AMSA07.jpg,AMSA01.jpg,AMNE18.jpg,AMNE15.jpg,AMNE18.jpg,MN,1,num_2,16,num_2,1.81638165191,,,2017_Sep_12_1651,60.0064860869,FEMA4ImagesEEG,001,101603,
AFNE01.JPG,AFNE01.JPG,AFNE01.JPG,AFNE01.JPG,AFNE01.JPG,AFNE01.JPG,,,,,,,,,,,,,,,,,,,,,2,7,27,5,,,AMNE20.jpg,AMSA03.jpg,AMSA13.jpg,AMNE14.jpg,AMSA03.jpg,MS,2,num_6,32,num_4,1.26675087167,,,2017_Sep_12_1651,60.0064860869,FEMA4ImagesEEG,001,101603,
AFNE01.JPG,AFNE01.JPG,AFNE01.JPG,AFNE01.JPG,AFNE01.JPG,AFNE01.JPG,,,,,,,,,,,,,,,,,,,,,2,8,28,8,,,AMSA17.jpg,AMSA05.jpg,AMNE04.jpg,AMNE19.jpg,AMNE04.jpg,MN,1,num_2,32,num_6,0.316831168719,,,2017_Sep_12_1651,60.0064860869,FEMA4ImagesEEG,001,101603,
AFNE01.JPG,AFNE01.JPG,AFNE01.JPG,AFNE01.JPG,AFNE01.JPG,AFNE01.JPG,,,,,,,,,,,,,,,,,,,,,2,9,29,1,,,AMNE13.jpg,AMSA20.jpg,AMSA15.jpg,AMNE05.jpg,AMNE13.jpg,MN,1,num_8,16,num_8,0.600150491111,,,2017_Sep_12_1651,60.0064860869,FEMA4ImagesEEG,001,101603,
AFNE01.JPG,AFNE01.JPG,AFNE01.JPG,AFNE01.JPG,AFNE01.JPG,AFNE01.JPG,,,,,,,,,,,,,,,,,,,,,3,0,30,1,,,AMSA08.jpg,AMSA13.jpg,AMNE20.jpg,AMNE01.jpg,AMSA13.jpg,MS,2,num_6,16,num_6,1.01683562691,,,2017_Sep_12_1651,60.0064860869,FEMA4ImagesEEG,001,101603,
AFNE01.JPG,AFNE01.JPG,AFNE01.JPG,AFNE01.JPG,AFNE01.JPG,AFNE01.JPG,,,,,,,,,,,,,,,,,,,,,3,1,31,5,,,AMNE01.jpg,AMSA03.jpg,AMNE10.jpg,AMSA17.jpg,AMSA17.jpg,MS,2,num_4,16,num_4,0.683478345163,,,2017_Sep_12_1651,60.0064860869,FEMA4ImagesEEG,001,101603,
AFNE01.JPG,AFNE01.JPG,AFNE01.JPG,AFNE01.JPG,AFNE01.JPG,AFNE01.JPG,,,,,,,,,,,,,,,,,,,,,3,2,32,4,,,AMSA07.jpg,AMNE13.jpg,AMSA03.jpg,AMNE08.jpg,AMSA07.jpg,MS,2,num_8,16,num_8,1.06672155601,,,2017_Sep_12_1651,60.0064860869,FEMA4ImagesEEG,001,101603,
AFNE01.JPG,AFNE01.JPG,AFNE01.JPG,AFNE01.JPG,AFNE01.JPG,AFNE01.JPG,,,,,,,,,,,,,,,,,,,,,3,3,33,3,,,AMSA06.jpg,AMNE20.jpg,AMSA11.jpg,AMNE19.jpg,AMSA11.jpg,MS,2,num_2,32,num_6,0.866757350508,,,2017_Sep_12_1651,60.0064860869,FEMA4ImagesEEG,001,101603,
AFNE01.JPG,AFNE01.JPG,AFNE01.JPG,AFNE01.JPG,AFNE01.JPG,AFNE01.JPG,,,,,,,,,,,,,,,,,,,,,3,4,34,8,,,AMNE05.jpg,AMSA05.jpg,AMSA01.jpg,AMNE17.jpg,AMSA01.jpg,MS,2,num_2,16,num_2,1.26674862648,,,2017_Sep_12_1651,60.0064860869,FEMA4ImagesEEG,001,101603,
AFNE01.JPG,AFNE01.JPG,AFNE01.JPG,AFNE01.JPG,AFNE01.JPG,AFNE01.JPG,,,,,,,,,,,,,,,,,,,,,3,5,35,2,,,AMSA20.jpg,AMNE12.jpg,AMNE13.jpg,AMSA15.jpg,AMSA20.jpg,MS,2,num_8,16,num_8,1.51668536058,,,2017_Sep_12_1651,60.0064860869,FEMA4ImagesEEG,001,101603,
AFNE01.JPG,AFNE01.JPG,AFNE01.JPG,AFNE01.JPG,AFNE01.JPG,AFNE01.JPG,,,,,,,,,,,,,,,,,,,,,3,6,36,6,,,AMNE01.jpg,AMSA13.jpg,AMSA08.jpg,AMNE04.jpg,AMNE04.jpg,MN,1,num_4,32,num_8,0.833443721291,,,2017_Sep_12_1651,60.0064860869,FEMA4ImagesEEG,001,101603,
AFNE01.JPG,AFNE01.JPG,AFNE01.JPG,AFNE01.JPG,AFNE01.JPG,AFNE01.JPG,,,,,,,,,,,,,,,,,,,,,3,7,37,0,,,AMSA17.jpg,AMSA20.jpg,AMNE06.jpg,AMNE17.jpg,AMSA20.jpg,MS,2,num_6,16,num_6,0.416517709848,,,2017_Sep_12_1651,60.0064860869,FEMA4ImagesEEG,001,101603,
AFNE01.JPG,AFNE01.JPG,AFNE01.JPG,AFNE01.JPG,AFNE01.JPG,AFNE01.JPG,,,,,,,,,,,,,,,,,,,,,3,8,38,7,,,AMNE15.jpg,AMNE18.jpg,AMSA01.jpg,AMSA02.jpg,AMSA02.jpg,MS,2,num_4,16,num_4,0.717442113673,,,2017_Sep_12_1651,60.0064860869,FEMA4ImagesEEG,001,101603,
AFNE01.JPG,AFNE01.JPG,AFNE01.JPG,AFNE01.JPG,AFNE01.JPG,AFNE01.JPG,,,,,,,,,,,,,,,,,,,,,3,9,39,9,,,AMSA01.jpg,AMNE02.jpg,AMSA20.jpg,AMNE04.jpg,AMNE04.jpg,MN,1,num_4,32,num_2,1.23340484756,,,2017_Sep_12_1651,60.0064860869,FEMA4ImagesEEG,001,101603,
