IPosition2,IPosition3,IPosition1,IPosition6,IPosition4,IPosition5,TrialsM1.thisRepN,TrialsM1.thisTrialN,TrialsM1.thisN,TrialsM1.thisIndex,TrialsF1.thisRepN,TrialsF1.thisTrialN,TrialsF1.thisN,TrialsF1.thisIndex,TrialsM2.thisRepN,TrialsM2.thisTrialN,TrialsM2.thisN,TrialsM2.thisIndex,TrialsF2.thisRepN,TrialsF2.thisTrialN,TrialsF2.thisN,TrialsF2.thisIndex,TrialsM3.thisRepN,TrialsM3.thisTrialN,TrialsM3.thisN,TrialsM3.thisIndex,TrialsF3.thisRepN,TrialsF3.thisTrialN,TrialsF3.thisN,TrialsF3.thisIndex,InstrKey_resp.keys,InstrKey_resp.rt,Image0 _Position,Image1 _Position,Image2 _Position,Image3 _Position,Center_image,condition,code,correct_answer,accuracy,Key_Resp.keys,Key_Resp.rt,BreakKey_resp.keys,BreakKey_resp.rt,date,frameRate,expName,session,participant,
,,,,,,,,,,,,,,,,,,,,,,,,,,,,,,space,14.9993658978,,,,,,,,,,,,,,2017_Sep_21_1810,60.0062743255,MAFE4ImagesEEG,001,101611,
AMSA21.JPG,AMNE22.JPG,AMNE21.JPG,AMSA23.JPG,AMSA22.JPG,AMNE23.JPG,0,0,0,1,,,,,,,,,,,,,,,,,,,,,,,AMNE02.jpg,AMSA15.jpg,AMNE14.jpg,AMSA06.jpg,AMSA06.jpg,MS,2,num_4,32,num_8,3.31667230099,,,2017_Sep_21_1810,60.0062743255,MAFE4ImagesEEG,001,101611,
AMSA21.JPG,AMNE23.JPG,AMNE21.JPG,AMSA25.JPG,AMNE25.JPG,AMSA23.JPG,0,1,1,5,,,,,,,,,,,,,,,,,,,,,,,AMNE02.jpg,AMNE19.jpg,AMSA16.jpg,AMSA03.jpg,AMNE02.jpg,MN,1,num_8,32,num_6,1.96672326651,,,2017_Sep_21_1810,60.0062743255,MAFE4ImagesEEG,001,101611,
AFSA21.JPG,AFNE23.JPG,AFNE21.JPG,AFSA25.JPG,AFNE25.JPG,AFSA23.JPG,0,2,2,4,,,,,,,,,,,,,,,,,,,,,,,AMNE02.jpg,AMSA19.jpg,AMNE03.jpg,AMSA09.jpg,AMNE03.jpg,MN,1,num_2,16,num_2,2.25008098675,,,2017_Sep_21_1810,60.0062743255,MAFE4ImagesEEG,001,101611,
AMNE23.JPG,AMNE24.JPG,AMNE22.JPG,AMSA24.JPG,AMSA22.JPG,AMSA23.JPG,0,3,3,9,,,,,,,,,,,,,,,,,,,,,,,AMNE10.jpg,AMSA05.jpg,AMSA17.jpg,AMNE14.jpg,AMNE10.jpg,MN,1,num_8,16,num_8,1.00010744776,,,2017_Sep_21_1810,60.0062743255,MAFE4ImagesEEG,001,101611,
AFNE22.JPG,AFSA24.JPG,AFSA22.JPG,AFNE25.JPG,AFNE24.JPG,AFSA25.JPG,0,4,4,6,,,,,,,,,,,,,,,,,,,,,,,AMSA03.jpg,AMNE01.jpg,AMNE07.jpg,AMSA14.jpg,AMSA14.jpg,MS,2,num_4,32,num_2,3.83320065406,,,2017_Sep_21_1810,60.0062743255,MAFE4ImagesEEG,001,101611,
AFNE23.JPG,AFNE24.JPG,AFNE22.JPG,AFSA24.JPG,AFSA22.JPG,AFSA23.JPG,0,5,5,8,,,,,,,,,,,,,,,,,,,,,,,AMSA15.jpg,AMSA08.jpg,AMNE16.jpg,AMNE20.jpg,AMNE20.jpg,MN,1,num_4,32,num_6,1.40006780435,,,2017_Sep_21_1810,60.0062743255,MAFE4ImagesEEG,001,101611,
AMSA25.JPG,AMNE24.JPG,AMSA24.JPG,AMNE26.JPG,AMSA21.JPG,AMNE25.JPG,0,6,6,3,,,,,,,,,,,,,,,,,,,,,,,AMSA16.jpg,AMNE05.jpg,AMSA11.jpg,AMNE09.jpg,AMSA11.jpg,MS,2,num_2,32,num_8,1.43326627737,,,2017_Sep_21_1810,60.0062743255,MAFE4ImagesEEG,001,101611,
AFSA25.JPG,AFNE24.JPG,AFSA24.JPG,AFNE21.JPG,AFSA21.JPG,AFNE25.JPG,0,7,7,2,,,,,,,,,,,,,,,,,,,,,,,AMSA18.jpg,AMNE11.jpg,AMSA04.jpg,AMNE17.jpg,AMNE17.jpg,MN,1,num_4,32,num_6,1.36675418582,,,2017_Sep_21_1810,60.0062743255,MAFE4ImagesEEG,001,101611,
AMNE22.JPG,AMSA24.JPG,AMSA22.JPG,AMNE25.JPG,AMNE24.JPG,AMSA25.JPG,0,8,8,7,,,,,,,,,,,,,,,,,,,,,,,AMNE12.jpg,AMNE08.jpg,AMSA10.jpg,AMSA09.jpg,AMSA09.jpg,MS,2,num_4,32,num_6,1.86666373724,,,2017_Sep_21_1810,60.0062743255,MAFE4ImagesEEG,001,101611,
AFSA21.JPG,AFNE22.JPG,AFNE21.JPG,AFSA23.JPG,AFSA22.JPG,AFNE23.JPG,0,9,9,0,,,,,,,,,,,,,,,,,,,,,,,AMNE10.jpg,AMSA01.jpg,AMNE03.jpg,AMSA08.jpg,AMNE03.jpg,MN,1,num_2,32,num_8,2.0500485279,,,2017_Sep_21_1810,60.0062743255,MAFE4ImagesEEG,001,101611,
AMNE23.JPG,AMNE24.JPG,AMNE22.JPG,AMSA24.JPG,AMSA22.JPG,AMSA23.JPG,,,,,0,0,0,9,,,,,,,,,,,,,,,,,,,AFNE11.jpg,AFSA09.jpg,AFSA01.jpg,AFNE13.jpg,AFNE13.jpg,FN,3,num_4,32,num_8,2.59996106221,,,2017_Sep_21_1810,60.0062743255,MAFE4ImagesEEG,001,101611,
AFSA21.JPG,AFNE22.JPG,AFNE21.JPG,AFSA23.JPG,AFSA22.JPG,AFNE23.JPG,,,,,0,1,1,0,,,,,,,,,,,,,,,,,,,AFSA04.jpg,AFNE15.jpg,AFNE18.jpg,AFSA20.jpg,AFNE18.jpg,FN,3,num_2,16,num_2,1.18340852539,,,2017_Sep_21_1810,60.0062743255,MAFE4ImagesEEG,001,101611,
AMSA21.JPG,AMNE23.JPG,AMNE21.JPG,AMSA25.JPG,AMNE25.JPG,AMSA23.JPG,,,,,0,2,2,5,,,,,,,,,,,,,,,,,,,AFNE13.jpg,AFSA07.jpg,AFNE03.jpg,AFSA08.jpg,AFNE13.jpg,FN,3,num_8,16,num_8,0.683450863013,,,2017_Sep_21_1810,60.0062743255,MAFE4ImagesEEG,001,101611,
AFSA25.JPG,AFNE24.JPG,AFSA24.JPG,AFNE21.JPG,AFSA21.JPG,AFNE25.JPG,,,,,0,3,3,2,,,,,,,,,,,,,,,,,,,AFSA04.jpg,AFSA05.jpg,AFNE08.jpg,AFNE12.jpg,AFNE08.jpg,FN,3,num_2,16,num_2,1.06673083597,,,2017_Sep_21_1810,60.0062743255,MAFE4ImagesEEG,001,101611,
AMSA21.JPG,AMNE22.JPG,AMNE21.JPG,AMSA23.JPG,AMSA22.JPG,AMNE23.JPG,,,,,0,4,4,1,,,,,,,,,,,,,,,,,,,AFSA02.jpg,AFNE02.jpg,AFNE17.jpg,AFSA07.jpg,AFSA02.jpg,FS,4,num_8,32,num_2,2.4500098467,,,2017_Sep_21_1810,60.0062743255,MAFE4ImagesEEG,001,101611,
AFSA21.JPG,AFNE23.JPG,AFNE21.JPG,AFSA25.JPG,AFNE25.JPG,AFSA23.JPG,,,,,0,5,5,4,,,,,,,,,,,,,,,,,,,AFSA13.jpg,AFNE10.jpg,AFNE01.jpg,AFSA01.jpg,AFSA01.jpg,FS,4,num_4,16,num_4,1.03338001165,,,2017_Sep_21_1810,60.0062743255,MAFE4ImagesEEG,001,101611,
AMNE22.JPG,AMSA24.JPG,AMSA22.JPG,AMNE25.JPG,AMNE24.JPG,AMSA25.JPG,,,,,0,6,6,7,,,,,,,,,,,,,,,,,,,AFNE13.jpg,AFSA17.jpg,AFSA03.jpg,AFNE18.jpg,AFSA17.jpg,FS,4,num_6,16,num_6,1.38340474066,,,2017_Sep_21_1810,60.0062743255,MAFE4ImagesEEG,001,101611,
AMSA25.JPG,AMNE24.JPG,AMSA24.JPG,AMNE26.JPG,AMSA21.JPG,AMNE25.JPG,,,,,0,7,7,3,,,,,,,,,,,,,,,,,,,AFNE09.jpg,AFNE03.jpg,AFSA08.jpg,AFSA04.jpg,AFSA08.jpg,FS,4,num_2,32,num_4,0.93344075972,,,2017_Sep_21_1810,60.0062743255,MAFE4ImagesEEG,001,101611,
AFNE22.JPG,AFSA24.JPG,AFSA22.JPG,AFNE25.JPG,AFNE24.JPG,AFSA25.JPG,,,,,0,8,8,6,,,,,,,,,,,,,,,,,,,AFSA02.jpg,AFNE11.jpg,AFSA03.jpg,AFNE09.jpg,AFNE09.jpg,FN,3,num_4,16,num_4,1.61677102464,,,2017_Sep_21_1810,60.0062743255,MAFE4ImagesEEG,001,101611,
AFNE23.JPG,AFNE24.JPG,AFNE22.JPG,AFSA24.JPG,AFSA22.JPG,AFSA23.JPG,,,,,0,9,9,8,,,,,,,,,,,,,,,,,,,AFSA15.jpg,AFNE04.jpg,AFNE06.jpg,AFSA17.jpg,AFNE06.jpg,FN,3,num_2,32,num_6,3.33329366853,,,2017_Sep_21_1810,60.0062743255,MAFE4ImagesEEG,001,101611,
AMSA25.JPG,AMNE24.JPG,AMSA24.JPG,AMNE26.JPG,AMSA21.JPG,AMNE25.JPG,,,,,,,,,0,0,0,3,,,,,,,,,,,,,,,AMSA18.jpg,AMSA19.jpg,AMNE06.jpg,AMNE07.jpg,AMNE07.jpg,MN,1,num_4,32,num_2,1.71668525887,,,2017_Sep_21_1810,60.0062743255,MAFE4ImagesEEG,001,101611,
AMNE22.JPG,AMSA24.JPG,AMSA22.JPG,AMNE25.JPG,AMNE24.JPG,AMSA25.JPG,,,,,,,,,0,1,1,7,,,,,,,,,,,,,,,AMNE04.jpg,AMSA20.jpg,AMSA06.jpg,AMNE10.jpg,AMNE10.jpg,MN,1,num_4,16,num_4,1.08340288037,,,2017_Sep_21_1810,60.0062743255,MAFE4ImagesEEG,001,101611,
AFNE22.JPG,AFSA24.JPG,AFSA22.JPG,AFNE25.JPG,AFNE24.JPG,AFSA25.JPG,,,,,,,,,0,2,2,6,,,,,,,,,,,,,,,AMNE14.jpg,AMSA09.jpg,AMNE06.jpg,AMSA11.jpg,AMSA11.jpg,MS,2,num_4,16,num_4,1.81668480983,,,2017_Sep_21_1810,60.0062743255,MAFE4ImagesEEG,001,101611,
AMSA21.JPG,AMNE22.JPG,AMNE21.JPG,AMSA23.JPG,AMSA22.JPG,AMNE23.JPG,,,,,,,,,0,3,3,1,,,,,,,,,,,,,,,AMNE16.jpg,AMSA14.jpg,AMSA17.jpg,AMNE02.jpg,AMSA17.jpg,MS,2,num_2,32,num_6,4.71653226607,,,2017_Sep_21_1810,60.0062743255,MAFE4ImagesEEG,001,101611,
AFSA25.JPG,AFNE24.JPG,AFSA24.JPG,AFNE21.JPG,AFSA21.JPG,AFNE25.JPG,,,,,,,,,0,4,4,2,,,,,,,,,,,,,,,AMSA12.jpg,AMNE06.jpg,AMNE03.jpg,AMSA04.jpg,AMSA04.jpg,MS,2,num_4,16,num_4,1.45009580492,,,2017_Sep_21_1810,60.0062743255,MAFE4ImagesEEG,001,101611,
AFSA21.JPG,AFNE23.JPG,AFNE21.JPG,AFSA25.JPG,AFNE25.JPG,AFSA23.JPG,,,,,,,,,0,5,5,4,,,,,,,,,,,,,,,AMNE16.jpg,AMNE11.jpg,AMSA06.jpg,AMSA19.jpg,AMSA06.jpg,MS,2,num_2,16,num_2,1.01681669796,,,2017_Sep_21_1810,60.0062743255,MAFE4ImagesEEG,001,101611,
AFSA21.JPG,AFNE22.JPG,AFNE21.JPG,AFSA23.JPG,AFSA22.JPG,AFNE23.JPG,,,,,,,,,0,6,6,0,,,,,,,,,,,,,,,AMNE05.jpg,AMSA14.jpg,AMNE13.jpg,AMSA02.jpg,AMNE05.jpg,MN,1,num_8,16,num_8,1.30010161031,,,2017_Sep_21_1810,60.0062743255,MAFE4ImagesEEG,001,101611,
AFNE23.JPG,AFNE24.JPG,AFNE22.JPG,AFSA24.JPG,AFSA22.JPG,AFSA23.JPG,,,,,,,,,0,7,7,8,,,,,,,,,,,,,,,AMNE12.jpg,AMSA20.jpg,AMSA03.jpg,AMNE09.jpg,AMNE09.jpg,MN,1,num_4,16,num_4,1.1001108476,,,2017_Sep_21_1810,60.0062743255,MAFE4ImagesEEG,001,101611,
AMNE23.JPG,AMNE24.JPG,AMNE22.JPG,AMSA24.JPG,AMSA22.JPG,AMSA23.JPG,,,,,,,,,0,8,8,9,,,,,,,,,,,,,,,AMSA16.jpg,AMSA15.jpg,AMNE14.jpg,AMNE15.jpg,AMSA15.jpg,MS,2,num_6,32,num_2,1.25011434367,,,2017_Sep_21_1810,60.0062743255,MAFE4ImagesEEG,001,101611,
AMSA21.JPG,AMNE23.JPG,AMNE21.JPG,AMSA25.JPG,AMNE25.JPG,AMSA23.JPG,,,,,,,,,0,9,9,5,,,,,,,,,,,,,,,AMNE12.jpg,AMNE04.jpg,AMSA07.jpg,AMSA20.jpg,AMSA20.jpg,MS,2,num_4,32,num_2,0.966738982752,,,2017_Sep_21_1810,60.0062743255,MAFE4ImagesEEG,001,101611,
AMSA21.JPG,AMNE23.JPG,AMNE21.JPG,AMSA25.JPG,AMNE25.JPG,AMSA23.JPG,,,,,,,,,,,,,0,0,0,5,,,,,,,,,,,AFNE17.jpg,AFNE16.jpg,AFSA04.jpg,AFSA16.jpg,AFSA04.jpg,FS,4,num_2,32,num_4,0.816779428016,,,2017_Sep_21_1810,60.0062743255,MAFE4ImagesEEG,001,101611,
AMNE23.JPG,AMNE24.JPG,AMNE22.JPG,AMSA24.JPG,AMSA22.JPG,AMSA23.JPG,,,,,,,,,,,,,0,1,1,9,,,,,,,,,,,AFSA16.jpg,AFSA01.jpg,AFNE10.jpg,AFNE01.jpg,AFNE01.jpg,FN,3,num_4,32,num_8,1.50007601529,,,2017_Sep_21_1810,60.0062743255,MAFE4ImagesEEG,001,101611,
AFSA25.JPG,AFNE24.JPG,AFSA24.JPG,AFNE21.JPG,AFSA21.JPG,AFNE25.JPG,,,,,,,,,,,,,0,2,2,2,,,,,,,,,,,AFSA18.jpg,AFSA16.jpg,AFNE14.jpg,AFNE13.jpg,AFNE13.jpg,FN,3,num_4,16,num_4,1.0167660211,,,2017_Sep_21_1810,60.0062743255,MAFE4ImagesEEG,001,101611,
AMSA25.JPG,AMNE24.JPG,AMSA24.JPG,AMNE26.JPG,AMSA21.JPG,AMNE25.JPG,,,,,,,,,,,,,0,3,3,3,,,,,,,,,,,AFNE15.jpg,AFSA20.jpg,AFNE17.jpg,AFSA18.jpg,AFSA18.jpg,FS,4,num_4,32,num_2,1.16680255334,,,2017_Sep_21_1810,60.0062743255,MAFE4ImagesEEG,001,101611,
AMSA21.JPG,AMNE22.JPG,AMNE21.JPG,AMSA23.JPG,AMSA22.JPG,AMNE23.JPG,,,,,,,,,,,,,0,4,4,1,,,,,,,,,,,AFNE18.jpg,AFNE08.jpg,AFSA18.jpg,AFSA07.jpg,AFNE18.jpg,FN,3,num_8,32,num_2,0.866493745256,,,2017_Sep_21_1810,60.0062743255,MAFE4ImagesEEG,001,101611,
AFSA21.JPG,AFNE22.JPG,AFNE21.JPG,AFSA23.JPG,AFSA22.JPG,AFNE23.JPG,,,,,,,,,,,,,0,5,5,0,,,,,,,,,,,AFSA12.jpg,AFNE15.jpg,AFNE17.jpg,AFSA07.jpg,AFSA07.jpg,FS,4,num_4,16,num_4,1.06676355141,,,2017_Sep_21_1810,60.0062743255,MAFE4ImagesEEG,001,101611,
AFNE23.JPG,AFNE24.JPG,AFNE22.JPG,AFSA24.JPG,AFSA22.JPG,AFSA23.JPG,,,,,,,,,,,,,0,6,6,8,,,,,,,,,,,AFNE04.jpg,AFNE08.jpg,AFSA19.jpg,AFSA12.jpg,AFSA12.jpg,FS,4,num_4,32,num_6,1.96674186942,,,2017_Sep_21_1810,60.0062743255,MAFE4ImagesEEG,001,101611,
AMNE22.JPG,AMSA24.JPG,AMSA22.JPG,AMNE25.JPG,AMNE24.JPG,AMSA25.JPG,,,,,,,,,,,,,0,7,7,7,,,,,,,,,,,AFNE14.jpg,AFSA12.jpg,AFNE12.jpg,AFSA08.jpg,AFSA12.jpg,FS,4,num_6,32,num_4,1.41699996857,,,2017_Sep_21_1810,60.0062743255,MAFE4ImagesEEG,001,101611,
AFSA21.JPG,AFNE23.JPG,AFNE21.JPG,AFSA25.JPG,AFNE25.JPG,AFSA23.JPG,,,,,,,,,,,,,0,8,8,4,,,,,,,,,,,AFNE04.jpg,AFSA09.jpg,AFSA14.jpg,AFNE03.jpg,AFNE03.jpg,FN,3,num_4,32,num_8,1.83329431002,,,2017_Sep_21_1810,60.0062743255,MAFE4ImagesEEG,001,101611,
AFNE22.JPG,AFSA24.JPG,AFSA22.JPG,AFNE25.JPG,AFNE24.JPG,AFSA25.JPG,,,,,,,,,,,,,0,9,9,6,,,,,,,,,,,AFSA03.jpg,AFNE16.jpg,AFNE18.jpg,AFSA18.jpg,AFSA03.jpg,FS,4,num_8,32,num_4,0.833461736096,,,2017_Sep_21_1810,60.0062743255,MAFE4ImagesEEG,001,101611,
AMSA21.JPG,AMNE23.JPG,AMNE21.JPG,AMSA25.JPG,AMNE25.JPG,AMSA23.JPG,,,,,,,,,,,,,,,,,0,0,0,5,,,,,,,AMSA19.jpg,AMNE18.jpg,AMSA09.jpg,AMNE20.jpg,AMSA09.jpg,MS,2,num_2,32,num_4,2.44998803642,,,2017_Sep_21_1810,60.0062743255,MAFE4ImagesEEG,001,101611,
AFNE23.JPG,AFNE24.JPG,AFNE22.JPG,AFSA24.JPG,AFSA22.JPG,AFSA23.JPG,,,,,,,,,,,,,,,,,0,1,1,8,,,,,,,AMNE04.jpg,AMSA15.jpg,AMNE10.jpg,AMSA09.jpg,AMSA15.jpg,MS,2,num_6,32,num_4,1.45005667469,,,2017_Sep_21_1810,60.0062743255,MAFE4ImagesEEG,001,101611,
AMNE23.JPG,AMNE24.JPG,AMNE22.JPG,AMSA24.JPG,AMSA22.JPG,AMSA23.JPG,,,,,,,,,,,,,,,,,0,2,2,9,,,,,,,AMNE10.jpg,AMSA15.jpg,AMSA16.jpg,AMNE13.jpg,AMNE13.jpg,MN,1,num_4,16,num_4,1.0501239017,,,2017_Sep_21_1810,60.0062743255,MAFE4ImagesEEG,001,101611,
AFSA21.JPG,AFNE22.JPG,AFNE21.JPG,AFSA23.JPG,AFSA22.JPG,AFNE23.JPG,,,,,,,,,,,,,,,,,0,3,3,0,,,,,,,AMSA14.jpg,AMNE12.jpg,AMSA13.jpg,AMNE02.jpg,AMSA13.jpg,MS,2,num_2,16,num_2,0.700101738606,,,2017_Sep_21_1810,60.0062743255,MAFE4ImagesEEG,001,101611,
AMNE22.JPG,AMSA24.JPG,AMSA22.JPG,AMNE25.JPG,AMNE24.JPG,AMSA25.JPG,,,,,,,,,,,,,,,,,0,4,4,7,,,,,,,AMNE05.jpg,AMNE03.jpg,AMSA15.jpg,AMSA02.jpg,AMSA02.jpg,MS,2,num_4,16,num_4,0.900106613844,,,2017_Sep_21_1810,60.0062743255,MAFE4ImagesEEG,001,101611,
AMSA21.JPG,AMNE22.JPG,AMNE21.JPG,AMSA23.JPG,AMSA22.JPG,AMNE23.JPG,,,,,,,,,,,,,,,,,0,5,5,1,,,,,,,AMSA12.jpg,AMNE17.jpg,AMSA08.jpg,AMNE03.jpg,AMSA12.jpg,MS,2,num_8,32,num_2,1.58340288037,,,2017_Sep_21_1810,60.0062743255,MAFE4ImagesEEG,001,101611,
AFSA21.JPG,AFNE23.JPG,AFNE21.JPG,AFSA25.JPG,AFNE25.JPG,AFSA23.JPG,,,,,,,,,,,,,,,,,0,6,6,4,,,,,,,AMSA08.jpg,AMNE13.jpg,AMNE09.jpg,AMSA06.jpg,AMNE13.jpg,MN,1,num_6,16,num_6,0.80010642139,,,2017_Sep_21_1810,60.0062743255,MAFE4ImagesEEG,001,101611,
AFNE22.JPG,AFSA24.JPG,AFSA22.JPG,AFNE25.JPG,AFNE24.JPG,AFSA25.JPG,,,,,,,,,,,,,,,,,0,7,7,6,,,,,,,AMSA09.jpg,AMSA08.jpg,AMNE08.jpg,AMNE04.jpg,AMSA08.jpg,MS,2,num_6,32,num_4,0.83345307612,,,2017_Sep_21_1810,60.0062743255,MAFE4ImagesEEG,001,101611,
AMSA25.JPG,AMNE24.JPG,AMSA24.JPG,AMNE26.JPG,AMSA21.JPG,AMNE25.JPG,,,,,,,,,,,,,,,,,0,8,8,3,,,,,,,AMSA08.jpg,AMSA11.jpg,AMNE06.jpg,AMNE09.jpg,AMNE06.jpg,MN,1,num_2,32,num_4,0.616812079315,,,2017_Sep_21_1810,60.0062743255,MAFE4ImagesEEG,001,101611,
AFSA25.JPG,AFNE24.JPG,AFSA24.JPG,AFNE21.JPG,AFSA21.JPG,AFNE25.JPG,,,,,,,,,,,,,,,,,0,9,9,2,,,,,,,AMSA20.jpg,AMNE02.jpg,AMSA10.jpg,AMNE07.jpg,AMNE07.jpg,MN,1,num_4,16,num_4,0.700109115613,,,2017_Sep_21_1810,60.0062743255,MAFE4ImagesEEG,001,101611,
AFNE23.JPG,AFNE24.JPG,AFNE22.JPG,AFSA24.JPG,AFSA22.JPG,AFSA23.JPG,,,,,,,,,,,,,,,,,,,,,0,0,0,8,,,AFSA02.jpg,AFSA12.jpg,AFNE17.jpg,AFNE06.jpg,AFSA02.jpg,FS,4,num_8,32,num_4,1.11673029071,,,2017_Sep_21_1810,60.0062743255,MAFE4ImagesEEG,001,101611,
AFNE22.JPG,AFSA24.JPG,AFSA22.JPG,AFNE25.JPG,AFNE24.JPG,AFSA25.JPG,,,,,,,,,,,,,,,,,,,,,0,1,1,6,,,AFNE01.jpg,AFNE15.jpg,AFSA07.jpg,AFSA15.jpg,AFNE15.jpg,FN,3,num_6,32,num_4,1.16677978083,,,2017_Sep_21_1810,60.0062743255,MAFE4ImagesEEG,001,101611,
AMSA25.JPG,AMNE24.JPG,AMSA24.JPG,AMNE26.JPG,AMSA21.JPG,AMNE25.JPG,,,,,,,,,,,,,,,,,,,,,0,2,2,3,,,AFNE10.jpg,AFSA15.jpg,AFSA19.jpg,AFNE12.jpg,AFNE10.jpg,FN,3,num_8,16,num_8,1.11677615647,,,2017_Sep_21_1810,60.0062743255,MAFE4ImagesEEG,001,101611,
AFSA25.JPG,AFNE24.JPG,AFSA24.JPG,AFNE21.JPG,AFSA21.JPG,AFNE25.JPG,,,,,,,,,,,,,,,,,,,,,0,3,3,2,,,AFSA18.jpg,AFNE15.jpg,AFSA07.jpg,AFNE06.jpg,AFNE15.jpg,FN,3,num_6,16,num_6,0.866781769422,,,2017_Sep_21_1810,60.0062743255,MAFE4ImagesEEG,001,101611,
AFSA21.JPG,AFNE23.JPG,AFNE21.JPG,AFSA25.JPG,AFNE25.JPG,AFSA23.JPG,,,,,,,,,,,,,,,,,,,,,0,4,4,4,,,AFNE14.jpg,AFSA04.jpg,AFNE08.jpg,AFSA01.jpg,AFSA01.jpg,FS,4,num_4,16,num_4,0.966765924881,,,2017_Sep_21_1810,60.0062743255,MAFE4ImagesEEG,001,101611,
AFSA21.JPG,AFNE22.JPG,AFNE21.JPG,AFSA23.JPG,AFSA22.JPG,AFNE23.JPG,,,,,,,,,,,,,,,,,,,,,0,5,5,0,,,AFNE15.jpg,AFSA06.jpg,AFSA07.jpg,AFNE04.jpg,AFNE15.jpg,FN,3,num_8,32,num_4,0.650162262173,,,2017_Sep_21_1810,60.0062743255,MAFE4ImagesEEG,001,101611,
AMNE22.JPG,AMSA24.JPG,AMSA22.JPG,AMNE25.JPG,AMNE24.JPG,AMSA25.JPG,,,,,,,,,,,,,,,,,,,,,0,6,6,7,,,AFNE04.jpg,AFSA03.jpg,AFSA17.jpg,AFNE16.jpg,AFNE04.jpg,FN,3,num_8,16,num_8,0.616787703111,,,2017_Sep_21_1810,60.0062743255,MAFE4ImagesEEG,001,101611,
AMSA21.JPG,AMNE22.JPG,AMNE21.JPG,AMSA23.JPG,AMSA22.JPG,AMNE23.JPG,,,,,,,,,,,,,,,,,,,,,0,7,7,1,,,AFNE06.jpg,AFNE17.jpg,AFSA10.jpg,AFSA15.jpg,AFSA15.jpg,FS,4,num_4,32,num_6,0.700163320595,,,2017_Sep_21_1810,60.0062743255,MAFE4ImagesEEG,001,101611,
AMSA21.JPG,AMNE23.JPG,AMNE21.JPG,AMSA25.JPG,AMNE25.JPG,AMSA23.JPG,,,,,,,,,,,,,,,,,,,,,0,8,8,5,,,AFSA18.jpg,AFSA09.jpg,AFNE07.jpg,AFNE13.jpg,AFSA09.jpg,FS,4,num_6,32,num_2,2.71668365518,,,2017_Sep_21_1810,60.0062743255,MAFE4ImagesEEG,001,101611,
AMNE23.JPG,AMNE24.JPG,AMNE22.JPG,AMSA24.JPG,AMSA22.JPG,AMSA23.JPG,,,,,,,,,,,,,,,,,,,,,0,9,9,9,,,AFSA12.jpg,AFSA04.jpg,AFNE11.jpg,AFNE04.jpg,AFSA12.jpg,FS,4,num_8,32,num_4,1.10016056224,,,2017_Sep_21_1810,60.0062743255,MAFE4ImagesEEG,001,101611,
,,,,,,,,,,,,,,,,,,,,,,,,,,,,,,,,,,,,,,,,,,,space,11.7992192557,2017_Sep_21_1810,60.0062743255,MAFE4ImagesEEG,001,101611,
AFNE01.JPG,AFNE01.JPG,AFNE01.JPG,AFNE01.JPG,AFNE01.JPG,AFNE01.JPG,0,0,0,3,,,,,,,,,,,,,,,,,,,,,,,AMSA09.jpg,AMSA07.jpg,AMNE08.jpg,AMNE01.jpg,AMSA07.jpg,MS,2,num_6,32,num_2,2.43328776692,,,2017_Sep_21_1810,60.0062743255,MAFE4ImagesEEG,001,101611,
AFNE01.JPG,AFNE01.JPG,AFNE01.JPG,AFNE01.JPG,AFNE01.JPG,AFNE01.JPG,0,1,1,5,,,,,,,,,,,,,,,,,,,,,,,AMSA03.jpg,AMNE15.jpg,AMNE08.jpg,AMSA19.jpg,AMNE08.jpg,MN,1,num_2,32,num_4,2.78328683678,,,2017_Sep_21_1810,60.0062743255,MAFE4ImagesEEG,001,101611,
AFNE01.JPG,AFNE01.JPG,AFNE01.JPG,AFNE01.JPG,AFNE01.JPG,AFNE01.JPG,0,2,2,8,,,,,,,,,,,,,,,,,,,,,,,AMNE11.jpg,AMSA05.jpg,AMNE07.jpg,AMSA11.jpg,AMNE07.jpg,MN,1,num_2,32,num_6,2.36664256842,,,2017_Sep_21_1810,60.0062743255,MAFE4ImagesEEG,001,101611,
AFNE01.JPG,AFNE01.JPG,AFNE01.JPG,AFNE01.JPG,AFNE01.JPG,AFNE01.JPG,0,3,3,4,,,,,,,,,,,,,,,,,,,,,,,AMSA20.jpg,AMSA02.jpg,AMNE18.jpg,AMNE19.jpg,AMSA20.jpg,MS,2,num_8,16,num_8,0.666789723749,,,2017_Sep_21_1810,60.0062743255,MAFE4ImagesEEG,001,101611,
AFNE01.JPG,AFNE01.JPG,AFNE01.JPG,AFNE01.JPG,AFNE01.JPG,AFNE01.JPG,0,4,4,6,,,,,,,,,,,,,,,,,,,,,,,AMSA02.jpg,AMNE20.jpg,AMNE13.jpg,AMSA12.jpg,AMSA12.jpg,MS,2,num_4,16,num_4,0.666792289689,,,2017_Sep_21_1810,60.0062743255,MAFE4ImagesEEG,001,101611,
AFNE01.JPG,AFNE01.JPG,AFNE01.JPG,AFNE01.JPG,AFNE01.JPG,AFNE01.JPG,0,5,5,7,,,,,,,,,,,,,,,,,,,,,,,AMNE16.jpg,AMNE09.jpg,AMSA16.jpg,AMSA06.jpg,AMNE09.jpg,MN,1,num_6,32,num_2,1.35005327486,,,2017_Sep_21_1810,60.0062743255,MAFE4ImagesEEG,001,101611,
AFNE01.JPG,AFNE01.JPG,AFNE01.JPG,AFNE01.JPG,AFNE01.JPG,AFNE01.JPG,0,6,6,9,,,,,,,,,,,,,,,,,,,,,,,AMNE07.jpg,AMSA20.jpg,AMSA16.jpg,AMNE19.jpg,AMNE07.jpg,MN,1,num_8,16,num_8,0.533472705385,,,2017_Sep_21_1810,60.0062743255,MAFE4ImagesEEG,001,101611,
AFNE01.JPG,AFNE01.JPG,AFNE01.JPG,AFNE01.JPG,AFNE01.JPG,AFNE01.JPG,0,7,7,2,,,,,,,,,,,,,,,,,,,,,,,AMSA18.jpg,AMNE17.jpg,AMSA10.jpg,AMNE09.jpg,AMSA10.jpg,MS,2,num_2,32,num_8,0.683507633919,,,2017_Sep_21_1810,60.0062743255,MAFE4ImagesEEG,001,101611,
AFNE01.JPG,AFNE01.JPG,AFNE01.JPG,AFNE01.JPG,AFNE01.JPG,AFNE01.JPG,0,8,8,1,,,,,,,,,,,,,,,,,,,,,,,AMSA17.jpg,AMSA13.jpg,AMNE12.jpg,AMNE18.jpg,AMNE12.jpg,MN,1,num_2,32,num_4,0.733459939947,,,2017_Sep_21_1810,60.0062743255,MAFE4ImagesEEG,001,101611,
AFNE01.JPG,AFNE01.JPG,AFNE01.JPG,AFNE01.JPG,AFNE01.JPG,AFNE01.JPG,0,9,9,0,,,,,,,,,,,,,,,,,,,,,,,AMNE16.jpg,AMSA02.jpg,AMSA10.jpg,AMNE02.jpg,AMNE16.jpg,MN,1,num_8,16,num_8,0.650120566002,,,2017_Sep_21_1810,60.0062743255,MAFE4ImagesEEG,001,101611,
AFNE01.JPG,AFNE01.JPG,AFNE01.JPG,AFNE01.JPG,AFNE01.JPG,AFNE01.JPG,1,0,10,9,,,,,,,,,,,,,,,,,,,,,,,AMSA02.jpg,AMNE03.jpg,AMNE13.jpg,AMSA04.jpg,AMSA02.jpg,MS,2,num_8,32,num_4,0.966772660409,,,2017_Sep_21_1810,60.0062743255,MAFE4ImagesEEG,001,101611,
AFNE01.JPG,AFNE01.JPG,AFNE01.JPG,AFNE01.JPG,AFNE01.JPG,AFNE01.JPG,1,1,11,8,,,,,,,,,,,,,,,,,,,,,,,AMSA09.jpg,AMNE05.jpg,AMNE03.jpg,AMSA08.jpg,AMSA09.jpg,MS,2,num_8,32,num_4,0.766806594664,,,2017_Sep_21_1810,60.0062743255,MAFE4ImagesEEG,001,101611,
AFNE01.JPG,AFNE01.JPG,AFNE01.JPG,AFNE01.JPG,AFNE01.JPG,AFNE01.JPG,1,2,12,3,,,,,,,,,,,,,,,,,,,,,,,AMNE19.jpg,AMSA01.jpg,AMNE04.jpg,AMSA11.jpg,AMNE19.jpg,MN,1,num_8,16,num_8,0.716786291858,,,2017_Sep_21_1810,60.0062743255,MAFE4ImagesEEG,001,101611,
AFNE01.JPG,AFNE01.JPG,AFNE01.JPG,AFNE01.JPG,AFNE01.JPG,AFNE01.JPG,1,3,13,7,,,,,,,,,,,,,,,,,,,,,,,AMNE20.jpg,AMSA03.jpg,AMNE01.jpg,AMSA17.jpg,AMNE20.jpg,MN,1,num_8,16,num_8,0.833470075318,,,2017_Sep_21_1810,60.0062743255,MAFE4ImagesEEG,001,101611,
AFNE01.JPG,AFNE01.JPG,AFNE01.JPG,AFNE01.JPG,AFNE01.JPG,AFNE01.JPG,1,4,14,4,,,,,,,,,,,,,,,,,,,,,,,AMSA18.jpg,AMNE13.jpg,AMSA16.jpg,AMNE10.jpg,AMSA18.jpg,MS,2,num_8,16,num_8,0.866789146428,,,2017_Sep_21_1810,60.0062743255,MAFE4ImagesEEG,001,101611,
AFNE01.JPG,AFNE01.JPG,AFNE01.JPG,AFNE01.JPG,AFNE01.JPG,AFNE01.JPG,1,5,15,2,,,,,,,,,,,,,,,,,,,,,,,AMSA08.jpg,AMNE10.jpg,AMSA19.jpg,AMNE17.jpg,AMSA08.jpg,MS,2,num_8,32,num_6,1.71670386176,,,2017_Sep_21_1810,60.0062743255,MAFE4ImagesEEG,001,101611,
AFNE01.JPG,AFNE01.JPG,AFNE01.JPG,AFNE01.JPG,AFNE01.JPG,AFNE01.JPG,1,6,16,1,,,,,,,,,,,,,,,,,,,,,,,AMSA15.jpg,AMNE18.jpg,AMSA04.jpg,AMNE17.jpg,AMSA04.jpg,MS,2,num_2,16,num_2,1.30007595113,,,2017_Sep_21_1810,60.0062743255,MAFE4ImagesEEG,001,101611,
AFNE01.JPG,AFNE01.JPG,AFNE01.JPG,AFNE01.JPG,AFNE01.JPG,AFNE01.JPG,1,7,17,5,,,,,,,,,,,,,,,,,,,,,,,AMNE01.jpg,AMNE10.jpg,AMSA07.jpg,AMSA12.jpg,AMNE01.jpg,MN,1,num_8,32,num_4,1.00016389793,,,2017_Sep_21_1810,60.0062743255,MAFE4ImagesEEG,001,101611,
AFNE01.JPG,AFNE01.JPG,AFNE01.JPG,AFNE01.JPG,AFNE01.JPG,AFNE01.JPG,1,8,18,0,,,,,,,,,,,,,,,,,,,,,,,AMNE18.jpg,AMSA13.jpg,AMNE09.jpg,AMSA07.jpg,AMSA13.jpg,MS,2,num_6,32,num_2,1.16674738613,,,2017_Sep_21_1810,60.0062743255,MAFE4ImagesEEG,001,101611,
AFNE01.JPG,AFNE01.JPG,AFNE01.JPG,AFNE01.JPG,AFNE01.JPG,AFNE01.JPG,1,9,19,6,,,,,,,,,,,,,,,,,,,,,,,AMSA14.jpg,AMNE19.jpg,AMNE15.jpg,AMSA17.jpg,AMNE15.jpg,MN,1,num_2,32,num_4,1.71666216562,,,2017_Sep_21_1810,60.0062743255,MAFE4ImagesEEG,001,101611,
AFNE01.JPG,AFNE01.JPG,AFNE01.JPG,AFNE01.JPG,AFNE01.JPG,AFNE01.JPG,2,0,20,1,,,,,,,,,,,,,,,,,,,,,,,AMNE06.jpg,AMSA20.jpg,AMNE18.jpg,AMSA04.jpg,AMSA04.jpg,MS,2,num_4,16,num_4,0.766734107514,,,2017_Sep_21_1810,60.0062743255,MAFE4ImagesEEG,001,101611,
AFNE01.JPG,AFNE01.JPG,AFNE01.JPG,AFNE01.JPG,AFNE01.JPG,AFNE01.JPG,2,1,21,7,,,,,,,,,,,,,,,,,,,,,,,AMNE07.jpg,AMNE05.jpg,AMSA16.jpg,AMSA04.jpg,AMSA16.jpg,MS,2,num_2,16,num_2,3.11656382686,,,2017_Sep_21_1810,60.0062743255,MAFE4ImagesEEG,001,101611,
AFNE01.JPG,AFNE01.JPG,AFNE01.JPG,AFNE01.JPG,AFNE01.JPG,AFNE01.JPG,2,2,22,2,,,,,,,,,,,,,,,,,,,,,,,AMNE05.jpg,AMNE19.jpg,AMSA18.jpg,AMSA10.jpg,AMSA10.jpg,MS,2,num_4,16,num_4,1.35004974672,,,2017_Sep_21_1810,60.0062743255,MAFE4ImagesEEG,001,101611,
AFNE01.JPG,AFNE01.JPG,AFNE01.JPG,AFNE01.JPG,AFNE01.JPG,AFNE01.JPG,2,3,23,0,,,,,,,,,,,,,,,,,,,,,,,AMSA15.jpg,AMNE16.jpg,AMNE20.jpg,AMSA02.jpg,AMSA02.jpg,MS,2,num_4,32,num_6,1.86676348727,,,2017_Sep_21_1810,60.0062743255,MAFE4ImagesEEG,001,101611,
AFNE01.JPG,AFNE01.JPG,AFNE01.JPG,AFNE01.JPG,AFNE01.JPG,AFNE01.JPG,2,4,24,4,,,,,,,,,,,,,,,,,,,,,,,AMSA14.jpg,AMNE01.jpg,AMSA04.jpg,AMNE10.jpg,AMSA14.jpg,MS,2,num_8,32,num_6,2.21639563101,,,2017_Sep_21_1810,60.0062743255,MAFE4ImagesEEG,001,101611,
AFNE01.JPG,AFNE01.JPG,AFNE01.JPG,AFNE01.JPG,AFNE01.JPG,AFNE01.JPG,2,5,25,6,,,,,,,,,,,,,,,,,,,,,,,AMNE13.jpg,AMSA06.jpg,AMNE05.jpg,AMSA11.jpg,AMNE13.jpg,MN,1,num_8,16,num_8,0.85013057309,,,2017_Sep_21_1810,60.0062743255,MAFE4ImagesEEG,001,101611,
AFNE01.JPG,AFNE01.JPG,AFNE01.JPG,AFNE01.JPG,AFNE01.JPG,AFNE01.JPG,2,6,26,9,,,,,,,,,,,,,,,,,,,,,,,AMSA07.jpg,AMNE05.jpg,AMNE08.jpg,AMSA15.jpg,AMSA15.jpg,MS,2,num_4,16,num_4,2.73360876311,,,2017_Sep_21_1810,60.0062743255,MAFE4ImagesEEG,001,101611,
AFNE01.JPG,AFNE01.JPG,AFNE01.JPG,AFNE01.JPG,AFNE01.JPG,AFNE01.JPG,2,7,27,5,,,,,,,,,,,,,,,,,,,,,,,AMSA15.jpg,AMSA12.jpg,AMNE20.jpg,AMNE08.jpg,AMNE20.jpg,MN,1,num_2,16,num_2,1.06682352972,,,2017_Sep_21_1810,60.0062743255,MAFE4ImagesEEG,001,101611,
AFNE01.JPG,AFNE01.JPG,AFNE01.JPG,AFNE01.JPG,AFNE01.JPG,AFNE01.JPG,2,8,28,8,,,,,,,,,,,,,,,,,,,,,,,AMNE03.jpg,AMSA20.jpg,AMNE20.jpg,AMSA06.jpg,AMSA06.jpg,MS,2,num_4,16,num_4,0.783458432474,,,2017_Sep_21_1810,60.0062743255,MAFE4ImagesEEG,001,101611,
AFNE01.JPG,AFNE01.JPG,AFNE01.JPG,AFNE01.JPG,AFNE01.JPG,AFNE01.JPG,2,9,29,3,,,,,,,,,,,,,,,,,,,,,,,AMSA04.jpg,AMNE03.jpg,AMSA06.jpg,AMNE13.jpg,AMNE03.jpg,MN,1,num_6,16,num_6,0.916775450853,,,2017_Sep_21_1810,60.0062743255,MAFE4ImagesEEG,001,101611,
AFNE01.JPG,AFNE01.JPG,AFNE01.JPG,AFNE01.JPG,AFNE01.JPG,AFNE01.JPG,3,0,30,7,,,,,,,,,,,,,,,,,,,,,,,AMSA02.jpg,AMSA15.jpg,AMNE11.jpg,AMNE06.jpg,AMSA15.jpg,MS,2,num_6,32,num_4,0.850158156696,,,2017_Sep_21_1810,60.0062743255,MAFE4ImagesEEG,001,101611,
AFNE01.JPG,AFNE01.JPG,AFNE01.JPG,AFNE01.JPG,AFNE01.JPG,AFNE01.JPG,3,1,31,9,,,,,,,,,,,,,,,,,,,,,,,AMSA07.jpg,AMNE03.jpg,AMNE08.jpg,AMSA12.jpg,AMNE03.jpg,MN,1,num_6,16,num_6,3.44991971887,,,2017_Sep_21_1810,60.0062743255,MAFE4ImagesEEG,001,101611,
AFNE01.JPG,AFNE01.JPG,AFNE01.JPG,AFNE01.JPG,AFNE01.JPG,AFNE01.JPG,3,2,32,0,,,,,,,,,,,,,,,,,,,,,,,AMNE12.jpg,AMSA09.jpg,AMSA18.jpg,AMNE13.jpg,AMSA09.jpg,MS,2,num_6,16,num_6,0.450113445593,,,2017_Sep_21_1810,60.0062743255,MAFE4ImagesEEG,001,101611,
AFNE01.JPG,AFNE01.JPG,AFNE01.JPG,AFNE01.JPG,AFNE01.JPG,AFNE01.JPG,3,3,33,8,,,,,,,,,,,,,,,,,,,,,,,AMSA07.jpg,AMNE16.jpg,AMNE19.jpg,AMSA18.jpg,AMSA18.jpg,MS,2,num_4,16,num_4,0.650150074056,,,2017_Sep_21_1810,60.0062743255,MAFE4ImagesEEG,001,101611,
AFNE01.JPG,AFNE01.JPG,AFNE01.JPG,AFNE01.JPG,AFNE01.JPG,AFNE01.JPG,3,4,34,5,,,,,,,,,,,,,,,,,,,,,,,AMNE16.jpg,AMSA01.jpg,AMNE19.jpg,AMSA19.jpg,AMNE16.jpg,MN,1,num_8,32,num_2,1.10015190227,,,2017_Sep_21_1810,60.0062743255,MAFE4ImagesEEG,001,101611,
AFNE01.JPG,AFNE01.JPG,AFNE01.JPG,AFNE01.JPG,AFNE01.JPG,AFNE01.JPG,3,5,35,3,,,,,,,,,,,,,,,,,,,,,,,AMNE04.jpg,AMSA15.jpg,AMSA12.jpg,AMNE18.jpg,AMNE18.jpg,MN,1,num_4,32,num_6,1.26675431411,,,2017_Sep_21_1810,60.0062743255,MAFE4ImagesEEG,001,101611,
AFNE01.JPG,AFNE01.JPG,AFNE01.JPG,AFNE01.JPG,AFNE01.JPG,AFNE01.JPG,3,6,36,1,,,,,,,,,,,,,,,,,,,,,,,AMSA19.jpg,AMSA16.jpg,AMNE09.jpg,AMNE18.jpg,AMNE09.jpg,MN,1,num_2,32,num_4,4.74988309042,,,2017_Sep_21_1810,60.0062743255,MAFE4ImagesEEG,001,101611,
AFNE01.JPG,AFNE01.JPG,AFNE01.JPG,AFNE01.JPG,AFNE01.JPG,AFNE01.JPG,3,7,37,6,,,,,,,,,,,,,,,,,,,,,,,AMSA03.jpg,AMNE10.jpg,AMSA10.jpg,AMNE09.jpg,AMSA10.jpg,MS,2,num_2,32,num_8,1.10009160324,,,2017_Sep_21_1810,60.0062743255,MAFE4ImagesEEG,001,101611,
AFNE01.JPG,AFNE01.JPG,AFNE01.JPG,AFNE01.JPG,AFNE01.JPG,AFNE01.JPG,3,8,38,4,,,,,,,,,,,,,,,,,,,,,,,AMSA18.jpg,AMSA03.jpg,AMNE17.jpg,AMNE04.jpg,AMSA18.jpg,MS,2,num_8,16,num_8,0.450522067855,,,2017_Sep_21_1810,60.0062743255,MAFE4ImagesEEG,001,101611,
AFNE01.JPG,AFNE01.JPG,AFNE01.JPG,AFNE01.JPG,AFNE01.JPG,AFNE01.JPG,3,9,39,2,,,,,,,,,,,,,,,,,,,,,,,AMNE08.jpg,AMNE12.jpg,AMSA15.jpg,AMSA09.jpg,AMSA09.jpg,MS,2,num_4,16,num_4,0.500185708239,,,2017_Sep_21_1810,60.0062743255,MAFE4ImagesEEG,001,101611,
AFNE01.JPG,AFNE01.JPG,AFNE01.JPG,AFNE01.JPG,AFNE01.JPG,AFNE01.JPG,4,0,40,6,,,,,,,,,,,,,,,,,,,,,,,AMSA19.jpg,AMNE08.jpg,AMSA03.jpg,AMNE05.jpg,AMSA03.jpg,MS,2,num_2,16,num_2,1.08344906688,,,2017_Sep_21_1810,60.0062743255,MAFE4ImagesEEG,001,101611,
AFNE01.JPG,AFNE01.JPG,AFNE01.JPG,AFNE01.JPG,AFNE01.JPG,AFNE01.JPG,4,1,41,5,,,,,,,,,,,,,,,,,,,,,,,AMSA10.jpg,AMNE20.jpg,AMNE07.jpg,AMSA08.jpg,AMSA10.jpg,MS,2,num_8,16,num_8,0.500169350504,,,2017_Sep_21_1810,60.0062743255,MAFE4ImagesEEG,001,101611,
AFNE01.JPG,AFNE01.JPG,AFNE01.JPG,AFNE01.JPG,AFNE01.JPG,AFNE01.JPG,4,2,42,7,,,,,,,,,,,,,,,,,,,,,,,AMNE20.jpg,AMSA08.jpg,AMSA09.jpg,AMNE03.jpg,AMSA09.jpg,MS,2,num_2,32,num_4,0.950113766346,,,2017_Sep_21_1810,60.0062743255,MAFE4ImagesEEG,001,101611,
AFNE01.JPG,AFNE01.JPG,AFNE01.JPG,AFNE01.JPG,AFNE01.JPG,AFNE01.JPG,4,3,43,0,,,,,,,,,,,,,,,,,,,,,,,AMSA02.jpg,AMNE06.jpg,AMSA18.jpg,AMNE10.jpg,AMNE06.jpg,MN,1,num_6,16,num_6,0.866815126341,,,2017_Sep_21_1810,60.0062743255,MAFE4ImagesEEG,001,101611,
AFNE01.JPG,AFNE01.JPG,AFNE01.JPG,AFNE01.JPG,AFNE01.JPG,AFNE01.JPG,4,4,44,8,,,,,,,,,,,,,,,,,,,,,,,AMSA01.jpg,AMNE07.jpg,AMNE04.jpg,AMSA13.jpg,AMSA13.jpg,MS,2,num_4,16,num_4,0.68332064274,,,2017_Sep_21_1810,60.0062743255,MAFE4ImagesEEG,001,101611,
AFNE01.JPG,AFNE01.JPG,AFNE01.JPG,AFNE01.JPG,AFNE01.JPG,AFNE01.JPG,4,5,45,4,,,,,,,,,,,,,,,,,,,,,,,AMNE08.jpg,AMSA14.jpg,AMNE16.jpg,AMSA07.jpg,AMSA14.jpg,MS,2,num_6,16,num_6,0.700128359982,,,2017_Sep_21_1810,60.0062743255,MAFE4ImagesEEG,001,101611,
AFNE01.JPG,AFNE01.JPG,AFNE01.JPG,AFNE01.JPG,AFNE01.JPG,AFNE01.JPG,4,6,46,1,,,,,,,,,,,,,,,,,,,,,,,AMNE17.jpg,AMSA04.jpg,AMSA12.jpg,AMNE19.jpg,AMSA04.jpg,MS,2,num_6,16,num_6,0.966779075199,,,2017_Sep_21_1810,60.0062743255,MAFE4ImagesEEG,001,101611,
AFNE01.JPG,AFNE01.JPG,AFNE01.JPG,AFNE01.JPG,AFNE01.JPG,AFNE01.JPG,4,7,47,2,,,,,,,,,,,,,,,,,,,,,,,AMSA02.jpg,AMNE05.jpg,AMSA09.jpg,AMNE20.jpg,AMSA09.jpg,MS,2,num_2,32,num_6,1.16678459193,,,2017_Sep_21_1810,60.0062743255,MAFE4ImagesEEG,001,101611,
AFNE01.JPG,AFNE01.JPG,AFNE01.JPG,AFNE01.JPG,AFNE01.JPG,AFNE01.JPG,4,8,48,9,,,,,,,,,,,,,,,,,,,,,,,AMSA06.jpg,AMNE11.jpg,AMNE12.jpg,AMSA13.jpg,AMNE12.jpg,MN,1,num_2,16,num_2,0.96674956716,,,2017_Sep_21_1810,60.0062743255,MAFE4ImagesEEG,001,101611,
AFNE01.JPG,AFNE01.JPG,AFNE01.JPG,AFNE01.JPG,AFNE01.JPG,AFNE01.JPG,4,9,49,3,,,,,,,,,,,,,,,,,,,,,,,AMNE01.jpg,AMSA08.jpg,AMSA19.jpg,AMNE13.jpg,AMSA08.jpg,MS,2,num_6,32,num_4,1.15006636103,,,2017_Sep_21_1810,60.0062743255,MAFE4ImagesEEG,001,101611,
AFNE01.JPG,AFNE01.JPG,AFNE01.JPG,AFNE01.JPG,AFNE01.JPG,AFNE01.JPG,5,0,50,4,,,,,,,,,,,,,,,,,,,,,,,AMSA06.jpg,AMNE05.jpg,AMNE10.jpg,AMSA05.jpg,AMSA06.jpg,MS,2,num_8,32,num_4,0.7834619606,,,2017_Sep_21_1810,60.0062743255,MAFE4ImagesEEG,001,101611,
AFNE01.JPG,AFNE01.JPG,AFNE01.JPG,AFNE01.JPG,AFNE01.JPG,AFNE01.JPG,5,1,51,8,,,,,,,,,,,,,,,,,,,,,,,AMSA18.jpg,AMNE13.jpg,AMNE10.jpg,AMSA05.jpg,AMNE10.jpg,MN,1,num_2,16,num_2,1.41673311322,,,2017_Sep_21_1810,60.0062743255,MAFE4ImagesEEG,001,101611,
AFNE01.JPG,AFNE01.JPG,AFNE01.JPG,AFNE01.JPG,AFNE01.JPG,AFNE01.JPG,5,2,52,2,,,,,,,,,,,,,,,,,,,,,,,AMSA14.jpg,AMSA16.jpg,AMNE01.jpg,AMNE05.jpg,AMSA16.jpg,MS,2,num_6,32,num_4,0.700159150991,,,2017_Sep_21_1810,60.0062743255,MAFE4ImagesEEG,001,101611,
AFNE01.JPG,AFNE01.JPG,AFNE01.JPG,AFNE01.JPG,AFNE01.JPG,AFNE01.JPG,5,3,53,0,,,,,,,,,,,,,,,,,,,,,,,AMNE01.jpg,AMSA16.jpg,AMSA18.jpg,AMNE12.jpg,AMNE12.jpg,MN,1,num_4,16,num_4,1.18346433407,,,2017_Sep_21_1810,60.0062743255,MAFE4ImagesEEG,001,101611,
AFNE01.JPG,AFNE01.JPG,AFNE01.JPG,AFNE01.JPG,AFNE01.JPG,AFNE01.JPG,5,4,54,9,,,,,,,,,,,,,,,,,,,,,,,AMSA20.jpg,AMSA14.jpg,AMNE13.jpg,AMNE17.jpg,AMSA14.jpg,MS,2,num_6,16,num_6,0.950156103965,,,2017_Sep_21_1810,60.0062743255,MAFE4ImagesEEG,001,101611,
AFNE01.JPG,AFNE01.JPG,AFNE01.JPG,AFNE01.JPG,AFNE01.JPG,AFNE01.JPG,5,5,55,7,,,,,,,,,,,,,,,,,,,,,,,AMSA15.jpg,AMNE06.jpg,AMSA01.jpg,AMNE02.jpg,AMNE02.jpg,MN,1,num_4,16,num_4,0.850221663146,,,2017_Sep_21_1810,60.0062743255,MAFE4ImagesEEG,001,101611,
AFNE01.JPG,AFNE01.JPG,AFNE01.JPG,AFNE01.JPG,AFNE01.JPG,AFNE01.JPG,5,6,56,6,,,,,,,,,,,,,,,,,,,,,,,AMSA15.jpg,AMNE11.jpg,AMSA12.jpg,AMNE16.jpg,AMNE16.jpg,MN,1,num_4,16,num_4,0.93310398313,,,2017_Sep_21_1810,60.0062743255,MAFE4ImagesEEG,001,101611,
AFNE01.JPG,AFNE01.JPG,AFNE01.JPG,AFNE01.JPG,AFNE01.JPG,AFNE01.JPG,5,7,57,5,,,,,,,,,,,,,,,,,,,,,,,AMSA19.jpg,AMNE11.jpg,AMSA11.jpg,AMNE05.jpg,AMNE11.jpg,MN,1,num_6,16,num_6,1.6500872091,,,2017_Sep_21_1810,60.0062743255,MAFE4ImagesEEG,001,101611,
AFNE01.JPG,AFNE01.JPG,AFNE01.JPG,AFNE01.JPG,AFNE01.JPG,AFNE01.JPG,5,8,58,3,,,,,,,,,,,,,,,,,,,,,,,AMSA20.jpg,AMNE19.jpg,AMSA03.jpg,AMNE12.jpg,AMNE19.jpg,MN,1,num_6,16,num_6,1.25011530588,,,2017_Sep_21_1810,60.0062743255,MAFE4ImagesEEG,001,101611,
AFNE01.JPG,AFNE01.JPG,AFNE01.JPG,AFNE01.JPG,AFNE01.JPG,AFNE01.JPG,5,9,59,1,,,,,,,,,,,,,,,,,,,,,,,AMNE12.jpg,AMNE19.jpg,AMSA17.jpg,AMSA19.jpg,AMNE19.jpg,MN,1,num_6,16,num_6,0.700125794072,,,2017_Sep_21_1810,60.0062743255,MAFE4ImagesEEG,001,101611,
,,,,,,,,,,,,,,,,,,,,,,,,,,,,,,,,,,,,,,,,,,,space,6.76614170148,2017_Sep_21_1810,60.0062743255,MAFE4ImagesEEG,001,101611,
AFNE01.JPG,AFNE01.JPG,AFNE01.JPG,AFNE01.JPG,AFNE01.JPG,AFNE01.JPG,,,,,0,0,0,1,,,,,,,,,,,,,,,,,,,AFNE13.jpg,AFSA06.jpg,AFSA16.jpg,AFNE14.jpg,AFNE14.jpg,FN,3,num_4,32,num_8,1.13341227804,,,2017_Sep_21_1810,60.0062743255,MAFE4ImagesEEG,001,101611,
AFNE01.JPG,AFNE01.JPG,AFNE01.JPG,AFNE01.JPG,AFNE01.JPG,AFNE01.JPG,,,,,0,1,1,6,,,,,,,,,,,,,,,,,,,AFSA15.jpg,AFSA17.jpg,AFNE05.jpg,AFNE04.jpg,AFNE04.jpg,FN,3,num_4,16,num_4,2.56665674513,,,2017_Sep_21_1810,60.0062743255,MAFE4ImagesEEG,001,101611,
AFNE01.JPG,AFNE01.JPG,AFNE01.JPG,AFNE01.JPG,AFNE01.JPG,AFNE01.JPG,,,,,0,2,2,0,,,,,,,,,,,,,,,,,,,AFSA17.jpg,AFNE04.jpg,AFSA09.jpg,AFNE07.jpg,AFNE04.jpg,FN,3,num_6,16,num_6,0.833451151673,,,2017_Sep_21_1810,60.0062743255,MAFE4ImagesEEG,001,101611,
AFNE01.JPG,AFNE01.JPG,AFNE01.JPG,AFNE01.JPG,AFNE01.JPG,AFNE01.JPG,,,,,0,3,3,9,,,,,,,,,,,,,,,,,,,AFSA01.jpg,AFNE15.jpg,AFNE01.jpg,AFSA06.jpg,AFSA01.jpg,FS,4,num_8,32,num_4,0.566750080339,,,2017_Sep_21_1810,60.0062743255,MAFE4ImagesEEG,001,101611,
AFNE01.JPG,AFNE01.JPG,AFNE01.JPG,AFNE01.JPG,AFNE01.JPG,AFNE01.JPG,,,,,0,4,4,8,,,,,,,,,,,,,,,,,,,AFSA05.jpg,AFSA14.jpg,AFNE10.jpg,AFNE11.jpg,AFNE11.jpg,FN,3,num_4,16,num_4,0.783471903531,,,2017_Sep_21_1810,60.0062743255,MAFE4ImagesEEG,001,101611,
AFNE01.JPG,AFNE01.JPG,AFNE01.JPG,AFNE01.JPG,AFNE01.JPG,AFNE01.JPG,,,,,0,5,5,2,,,,,,,,,,,,,,,,,,,AFNE17.jpg,AFSA15.jpg,AFNE05.jpg,AFSA06.jpg,AFSA15.jpg,FS,4,num_6,16,num_6,0.66686702201,,,2017_Sep_21_1810,60.0062743255,MAFE4ImagesEEG,001,101611,
AFNE01.JPG,AFNE01.JPG,AFNE01.JPG,AFNE01.JPG,AFNE01.JPG,AFNE01.JPG,,,,,0,6,6,3,,,,,,,,,,,,,,,,,,,AFNE09.jpg,AFNE18.jpg,AFSA18.jpg,AFSA04.jpg,AFSA04.jpg,FS,4,num_4,32,num_8,1.25018458565,,,2017_Sep_21_1810,60.0062743255,MAFE4ImagesEEG,001,101611,
AFNE01.JPG,AFNE01.JPG,AFNE01.JPG,AFNE01.JPG,AFNE01.JPG,AFNE01.JPG,,,,,0,7,7,7,,,,,,,,,,,,,,,,,,,AFSA16.jpg,AFSA10.jpg,AFNE10.jpg,AFNE12.jpg,AFNE12.jpg,FN,3,num_4,16,num_4,1.51675671966,,,2017_Sep_21_1810,60.0062743255,MAFE4ImagesEEG,001,101611,
AFNE01.JPG,AFNE01.JPG,AFNE01.JPG,AFNE01.JPG,AFNE01.JPG,AFNE01.JPG,,,,,0,8,8,5,,,,,,,,,,,,,,,,,,,AFNE08.jpg,AFSA16.jpg,AFNE06.jpg,AFSA19.jpg,AFNE06.jpg,FN,3,num_2,32,num_6,1.21671059731,,,2017_Sep_21_1810,60.0062743255,MAFE4ImagesEEG,001,101611,
AFNE01.JPG,AFNE01.JPG,AFNE01.JPG,AFNE01.JPG,AFNE01.JPG,AFNE01.JPG,,,,,0,9,9,4,,,,,,,,,,,,,,,,,,,AFSA03.jpg,AFNE14.jpg,AFNE13.jpg,AFSA13.jpg,AFNE13.jpg,FN,3,num_2,32,num_6,0.70016299987,,,2017_Sep_21_1810,60.0062743255,MAFE4ImagesEEG,001,101611,
AFNE01.JPG,AFNE01.JPG,AFNE01.JPG,AFNE01.JPG,AFNE01.JPG,AFNE01.JPG,,,,,1,0,10,1,,,,,,,,,,,,,,,,,,,AFSA04.jpg,AFNE09.jpg,AFNE03.jpg,AFSA15.jpg,AFNE03.jpg,FN,3,num_2,32,num_4,0.26679857618,,,2017_Sep_21_1810,60.0062743255,MAFE4ImagesEEG,001,101611,
AFNE01.JPG,AFNE01.JPG,AFNE01.JPG,AFNE01.JPG,AFNE01.JPG,AFNE01.JPG,,,,,1,1,11,6,,,,,,,,,,,,,,,,,,,AFSA10.jpg,AFNE20.jpg,AFSA02.jpg,AFNE18.jpg,AFSA10.jpg,FS,4,num_8,32,num_4,1.96678677294,,,2017_Sep_21_1810,60.0062743255,MAFE4ImagesEEG,001,101611,
AFNE01.JPG,AFNE01.JPG,AFNE01.JPG,AFNE01.JPG,AFNE01.JPG,AFNE01.JPG,,,,,1,2,12,3,,,,,,,,,,,,,,,,,,,AFSA09.jpg,AFSA18.jpg,AFNE07.jpg,AFNE18.jpg,AFSA09.jpg,FS,4,num_8,16,num_8,0.550119090622,,,2017_Sep_21_1810,60.0062743255,MAFE4ImagesEEG,001,101611,
AFNE01.JPG,AFNE01.JPG,AFNE01.JPG,AFNE01.JPG,AFNE01.JPG,AFNE01.JPG,,,,,1,3,13,0,,,,,,,,,,,,,,,,,,,AFSA17.jpg,AFNE13.jpg,AFNE15.jpg,AFSA10.jpg,AFNE13.jpg,FN,3,num_6,32,num_8,0.600283084772,,,2017_Sep_21_1810,60.0062743255,MAFE4ImagesEEG,001,101611,
AFNE01.JPG,AFNE01.JPG,AFNE01.JPG,AFNE01.JPG,AFNE01.JPG,AFNE01.JPG,,,,,1,4,14,8,,,,,,,,,,,,,,,,,,,AFSA11.jpg,AFNE06.jpg,AFSA13.jpg,AFNE15.jpg,AFSA11.jpg,FS,4,num_8,32,num_2,0.966832317979,,,2017_Sep_21_1810,60.0062743255,MAFE4ImagesEEG,001,101611,
AFNE01.JPG,AFNE01.JPG,AFNE01.JPG,AFNE01.JPG,AFNE01.JPG,AFNE01.JPG,,,,,1,5,15,7,,,,,,,,,,,,,,,,,,,AFNE14.jpg,AFNE15.jpg,AFSA09.jpg,AFSA11.jpg,AFNE15.jpg,FN,3,num_6,16,num_6,1.30006632896,,,2017_Sep_21_1810,60.0062743255,MAFE4ImagesEEG,001,101611,
AFNE01.JPG,AFNE01.JPG,AFNE01.JPG,AFNE01.JPG,AFNE01.JPG,AFNE01.JPG,,,,,1,6,16,4,,,,,,,,,,,,,,,,,,,AFNE12.jpg,AFNE05.jpg,AFSA17.jpg,AFSA20.jpg,AFSA20.jpg,FS,4,num_4,16,num_4,1.2669024958,,,2017_Sep_21_1810,60.0062743255,MAFE4ImagesEEG,001,101611,
AFNE01.JPG,AFNE01.JPG,AFNE01.JPG,AFNE01.JPG,AFNE01.JPG,AFNE01.JPG,,,,,1,7,17,9,,,,,,,,,,,,,,,,,,,AFSA20.jpg,AFSA18.jpg,AFNE16.jpg,AFNE10.jpg,AFSA18.jpg,FS,4,num_6,16,num_6,0.516817339434,,,2017_Sep_21_1810,60.0062743255,MAFE4ImagesEEG,001,101611,
AFNE01.JPG,AFNE01.JPG,AFNE01.JPG,AFNE01.JPG,AFNE01.JPG,AFNE01.JPG,,,,,1,8,18,5,,,,,,,,,,,,,,,,,,,AFSA19.jpg,AFSA12.jpg,AFNE08.jpg,AFNE20.jpg,AFNE20.jpg,FN,3,num_4,16,num_4,0.86678497681,,,2017_Sep_21_1810,60.0062743255,MAFE4ImagesEEG,001,101611,
AFNE01.JPG,AFNE01.JPG,AFNE01.JPG,AFNE01.JPG,AFNE01.JPG,AFNE01.JPG,,,,,1,9,19,2,,,,,,,,,,,,,,,,,,,AFSA18.jpg,AFNE01.jpg,AFSA02.jpg,AFNE07.jpg,AFNE01.jpg,FN,3,num_6,32,num_4,0.766740201565,,,2017_Sep_21_1810,60.0062743255,MAFE4ImagesEEG,001,101611,
AFNE01.JPG,AFNE01.JPG,AFNE01.JPG,AFNE01.JPG,AFNE01.JPG,AFNE01.JPG,,,,,2,0,20,0,,,,,,,,,,,,,,,,,,,AFNE09.jpg,AFNE17.jpg,AFSA10.jpg,AFSA17.jpg,AFNE09.jpg,FN,3,num_8,32,num_4,1.06674719369,,,2017_Sep_21_1810,60.0062743255,MAFE4ImagesEEG,001,101611,
AFNE01.JPG,AFNE01.JPG,AFNE01.JPG,AFNE01.JPG,AFNE01.JPG,AFNE01.JPG,,,,,2,1,21,3,,,,,,,,,,,,,,,,,,,AFNE20.jpg,AFNE19.jpg,AFSA14.jpg,AFSA04.jpg,AFNE19.jpg,FN,3,num_6,16,num_6,2.03339861454,,,2017_Sep_21_1810,60.0062743255,MAFE4ImagesEEG,001,101611,
AFNE01.JPG,AFNE01.JPG,AFNE01.JPG,AFNE01.JPG,AFNE01.JPG,AFNE01.JPG,,,,,2,2,22,2,,,,,,,,,,,,,,,,,,,AFSA19.jpg,AFNE09.jpg,AFNE04.jpg,AFSA16.jpg,AFNE09.jpg,FN,3,num_6,16,num_6,1.10007556625,,,2017_Sep_21_1810,60.0062743255,MAFE4ImagesEEG,001,101611,
AFNE01.JPG,AFNE01.JPG,AFNE01.JPG,AFNE01.JPG,AFNE01.JPG,AFNE01.JPG,,,,,2,3,23,7,,,,,,,,,,,,,,,,,,,AFNE05.jpg,AFSA11.jpg,AFSA02.jpg,AFNE19.jpg,AFNE05.jpg,FN,3,num_8,16,num_8,1.29996529597,,,2017_Sep_21_1810,60.0062743255,MAFE4ImagesEEG,001,101611,
AFNE01.JPG,AFNE01.JPG,AFNE01.JPG,AFNE01.JPG,AFNE01.JPG,AFNE01.JPG,,,,,2,4,24,9,,,,,,,,,,,,,,,,,,,AFSA05.jpg,AFSA19.jpg,AFNE05.jpg,AFNE03.jpg,AFNE03.jpg,FN,3,num_4,16,num_4,0.666763102374,,,2017_Sep_21_1810,60.0062743255,MAFE4ImagesEEG,001,101611,
AFNE01.JPG,AFNE01.JPG,AFNE01.JPG,AFNE01.JPG,AFNE01.JPG,AFNE01.JPG,,,,,2,5,25,1,,,,,,,,,,,,,,,,,,,AFSA02.jpg,AFNE20.jpg,AFNE15.jpg,AFSA08.jpg,AFSA02.jpg,FS,4,num_8,16,num_8,0.583479537134,,,2017_Sep_21_1810,60.0062743255,MAFE4ImagesEEG,001,101611,
AFNE01.JPG,AFNE01.JPG,AFNE01.JPG,AFNE01.JPG,AFNE01.JPG,AFNE01.JPG,,,,,2,6,26,5,,,,,,,,,,,,,,,,,,,AFNE20.jpg,AFSA09.jpg,AFNE02.jpg,AFSA16.jpg,AFNE20.jpg,FN,3,num_8,16,num_8,0.483471646949,,,2017_Sep_21_1810,60.0062743255,MAFE4ImagesEEG,001,101611,
AFNE01.JPG,AFNE01.JPG,AFNE01.JPG,AFNE01.JPG,AFNE01.JPG,AFNE01.JPG,,,,,2,7,27,8,,,,,,,,,,,,,,,,,,,AFSA16.jpg,AFSA13.jpg,AFNE11.jpg,AFNE03.jpg,AFSA13.jpg,FS,4,num_6,32,num_2,1.30015998491,,,2017_Sep_21_1810,60.0062743255,MAFE4ImagesEEG,001,101611,
AFNE01.JPG,AFNE01.JPG,AFNE01.JPG,AFNE01.JPG,AFNE01.JPG,AFNE01.JPG,,,,,2,8,28,6,,,,,,,,,,,,,,,,,,,AFNE12.jpg,AFNE16.jpg,AFSA05.jpg,AFSA14.jpg,AFSA14.jpg,FS,4,num_4,32,num_6,1.45006180652,,,2017_Sep_21_1810,60.0062743255,MAFE4ImagesEEG,001,101611,
AFNE01.JPG,AFNE01.JPG,AFNE01.JPG,AFNE01.JPG,AFNE01.JPG,AFNE01.JPG,,,,,2,9,29,4,,,,,,,,,,,,,,,,,,,AFNE08.jpg,AFSA07.jpg,AFSA14.jpg,AFNE02.jpg,AFNE02.jpg,FN,3,num_4,32,num_2,1.9666754763,,,2017_Sep_21_1810,60.0062743255,MAFE4ImagesEEG,001,101611,
AFNE01.JPG,AFNE01.JPG,AFNE01.JPG,AFNE01.JPG,AFNE01.JPG,AFNE01.JPG,,,,,3,0,30,8,,,,,,,,,,,,,,,,,,,AFNE18.jpg,AFNE04.jpg,AFSA07.jpg,AFSA18.jpg,AFSA07.jpg,FS,4,num_2,32,num_4,0.633492783687,,,2017_Sep_21_1810,60.0062743255,MAFE4ImagesEEG,001,101611,
AFNE01.JPG,AFNE01.JPG,AFNE01.JPG,AFNE01.JPG,AFNE01.JPG,AFNE01.JPG,,,,,3,1,31,2,,,,,,,,,,,,,,,,,,,AFSA01.jpg,AFNE08.jpg,AFSA08.jpg,AFNE13.jpg,AFNE13.jpg,FN,3,num_4,16,num_4,0.716793348125,,,2017_Sep_21_1810,60.0062743255,MAFE4ImagesEEG,001,101611,
AFNE01.JPG,AFNE01.JPG,AFNE01.JPG,AFNE01.JPG,AFNE01.JPG,AFNE01.JPG,,,,,3,2,32,1,,,,,,,,,,,,,,,,,,,AFSA16.jpg,AFNE01.jpg,AFSA07.jpg,AFNE18.jpg,AFSA07.jpg,FS,4,num_2,32,num_4,0.783504618972,,,2017_Sep_21_1810,60.0062743255,MAFE4ImagesEEG,001,101611,
AFNE01.JPG,AFNE01.JPG,AFNE01.JPG,AFNE01.JPG,AFNE01.JPG,AFNE01.JPG,,,,,3,3,33,6,,,,,,,,,,,,,,,,,,,AFSA10.jpg,AFNE13.jpg,AFNE03.jpg,AFSA15.jpg,AFNE03.jpg,FN,3,num_2,32,num_6,0.716748123843,,,2017_Sep_21_1810,60.0062743255,MAFE4ImagesEEG,001,101611,
AFNE01.JPG,AFNE01.JPG,AFNE01.JPG,AFNE01.JPG,AFNE01.JPG,AFNE01.JPG,,,,,3,4,34,3,,,,,,,,,,,,,,,,,,,AFSA19.jpg,AFNE17.jpg,AFNE12.jpg,AFSA11.jpg,AFNE12.jpg,FN,3,num_2,16,num_2,1.08343463359,,,2017_Sep_21_1810,60.0062743255,MAFE4ImagesEEG,001,101611,
AFNE01.JPG,AFNE01.JPG,AFNE01.JPG,AFNE01.JPG,AFNE01.JPG,AFNE01.JPG,,,,,3,5,35,9,,,,,,,,,,,,,,,,,,,AFNE16.jpg,AFNE08.jpg,AFSA15.jpg,AFSA18.jpg,AFNE08.jpg,FN,3,num_6,32,num_4,0.950139104767,,,2017_Sep_21_1810,60.0062743255,MAFE4ImagesEEG,001,101611,
AFNE01.JPG,AFNE01.JPG,AFNE01.JPG,AFNE01.JPG,AFNE01.JPG,AFNE01.JPG,,,,,3,6,36,7,,,,,,,,,,,,,,,,,,,AFSA02.jpg,AFNE08.jpg,AFSA14.jpg,AFNE10.jpg,AFSA02.jpg,FS,4,num_8,32,num_4,0.783443678447,,,2017_Sep_21_1810,60.0062743255,MAFE4ImagesEEG,001,101611,
AFNE01.JPG,AFNE01.JPG,AFNE01.JPG,AFNE01.JPG,AFNE01.JPG,AFNE01.JPG,,,,,3,7,37,4,,,,,,,,,,,,,,,,,,,AFNE15.jpg,AFSA10.jpg,AFSA05.jpg,AFNE19.jpg,AFSA10.jpg,FS,4,num_6,16,num_6,1.41670552961,,,2017_Sep_21_1810,60.0062743255,MAFE4ImagesEEG,001,101611,
AFNE01.JPG,AFNE01.JPG,AFNE01.JPG,AFNE01.JPG,AFNE01.JPG,AFNE01.JPG,,,,,3,8,38,5,,,,,,,,,,,,,,,,,,,AFNE19.jpg,AFSA09.jpg,AFSA02.jpg,AFNE09.jpg,AFSA09.jpg,FS,4,num_6,32,num_8,0.383497113668,,,2017_Sep_21_1810,60.0062743255,MAFE4ImagesEEG,001,101611,
AFNE01.JPG,AFNE01.JPG,AFNE01.JPG,AFNE01.JPG,AFNE01.JPG,AFNE01.JPG,,,,,3,9,39,0,,,,,,,,,,,,,,,,,,,AFNE01.jpg,AFNE08.jpg,AFSA05.jpg,AFSA16.jpg,AFNE01.jpg,FN,3,num_8,32,num_4,0.950123067785,,,2017_Sep_21_1810,60.0062743255,MAFE4ImagesEEG,001,101611,
AFNE01.JPG,AFNE01.JPG,AFNE01.JPG,AFNE01.JPG,AFNE01.JPG,AFNE01.JPG,,,,,4,0,40,4,,,,,,,,,,,,,,,,,,,AFSA19.jpg,AFSA04.jpg,AFNE20.jpg,AFNE10.jpg,AFSA04.jpg,FS,4,num_6,16,num_6,1.03345410248,,,2017_Sep_21_1810,60.0062743255,MAFE4ImagesEEG,001,101611,
AFNE01.JPG,AFNE01.JPG,AFNE01.JPG,AFNE01.JPG,AFNE01.JPG,AFNE01.JPG,,,,,4,1,41,0,,,,,,,,,,,,,,,,,,,AFNE18.jpg,AFSA14.jpg,AFSA04.jpg,AFNE08.jpg,AFSA14.jpg,FS,4,num_6,32,num_8,0.816891045411,,,2017_Sep_21_1810,60.0062743255,MAFE4ImagesEEG,001,101611,
AFNE01.JPG,AFNE01.JPG,AFNE01.JPG,AFNE01.JPG,AFNE01.JPG,AFNE01.JPG,,,,,4,2,42,6,,,,,,,,,,,,,,,,,,,AFSA13.jpg,AFNE17.jpg,AFSA08.jpg,AFNE05.jpg,AFNE17.jpg,FN,3,num_6,16,num_6,1.10012207349,,,2017_Sep_21_1810,60.0062743255,MAFE4ImagesEEG,001,101611,
AFNE01.JPG,AFNE01.JPG,AFNE01.JPG,AFNE01.JPG,AFNE01.JPG,AFNE01.JPG,,,,,4,3,43,1,,,,,,,,,,,,,,,,,,,AFNE18.jpg,AFSA10.jpg,AFSA01.jpg,AFNE20.jpg,AFSA01.jpg,FS,4,num_2,32,num_6,0.966750208638,,,2017_Sep_21_1810,60.0062743255,MAFE4ImagesEEG,001,101611,
AFNE01.JPG,AFNE01.JPG,AFNE01.JPG,AFNE01.JPG,AFNE01.JPG,AFNE01.JPG,,,,,4,4,44,8,,,,,,,,,,,,,,,,,,,AFNE16.jpg,AFSA05.jpg,AFSA06.jpg,AFNE12.jpg,AFSA05.jpg,FS,4,num_6,32,num_2,1.79993193905,,,2017_Sep_21_1810,60.0062743255,MAFE4ImagesEEG,001,101611,
AFNE01.JPG,AFNE01.JPG,AFNE01.JPG,AFNE01.JPG,AFNE01.JPG,AFNE01.JPG,,,,,4,5,45,2,,,,,,,,,,,,,,,,,,,AFNE06.jpg,AFSA09.jpg,AFNE04.jpg,AFSA07.jpg,AFNE04.jpg,FN,3,num_2,32,num_4,0.783522259648,,,2017_Sep_21_1810,60.0062743255,MAFE4ImagesEEG,001,101611,
AFNE01.JPG,AFNE01.JPG,AFNE01.JPG,AFNE01.JPG,AFNE01.JPG,AFNE01.JPG,,,,,4,6,46,3,,,,,,,,,,,,,,,,,,,AFSA07.jpg,AFSA04.jpg,AFNE06.jpg,AFNE04.jpg,AFSA07.jpg,FS,4,num_8,16,num_8,0.61679957046,,,2017_Sep_21_1810,60.0062743255,MAFE4ImagesEEG,001,101611,
AFNE01.JPG,AFNE01.JPG,AFNE01.JPG,AFNE01.JPG,AFNE01.JPG,AFNE01.JPG,,,,,4,7,47,7,,,,,,,,,,,,,,,,,,,AFNE07.jpg,AFSA07.jpg,AFNE19.jpg,AFSA05.jpg,AFSA07.jpg,FS,4,num_6,16,num_6,0.533541343655,,,2017_Sep_21_1810,60.0062743255,MAFE4ImagesEEG,001,101611,
AFNE01.JPG,AFNE01.JPG,AFNE01.JPG,AFNE01.JPG,AFNE01.JPG,AFNE01.JPG,,,,,4,8,48,9,,,,,,,,,,,,,,,,,,,AFSA17.jpg,AFNE04.jpg,AFNE12.jpg,AFSA10.jpg,AFSA10.jpg,FS,4,num_4,16,num_4,0.666793893368,,,2017_Sep_21_1810,60.0062743255,MAFE4ImagesEEG,001,101611,
AFNE01.JPG,AFNE01.JPG,AFNE01.JPG,AFNE01.JPG,AFNE01.JPG,AFNE01.JPG,,,,,4,9,49,5,,,,,,,,,,,,,,,,,,,AFSA19.jpg,AFNE16.jpg,AFSA17.jpg,AFNE15.jpg,AFNE15.jpg,FN,3,num_4,32,num_8,0.916769677526,,,2017_Sep_21_1810,60.0062743255,MAFE4ImagesEEG,001,101611,
AFNE01.JPG,AFNE01.JPG,AFNE01.JPG,AFNE01.JPG,AFNE01.JPG,AFNE01.JPG,,,,,5,0,50,1,,,,,,,,,,,,,,,,,,,AFSA17.jpg,AFSA20.jpg,AFNE17.jpg,AFNE05.jpg,AFSA17.jpg,FS,4,num_8,16,num_8,0.66684392876,,,2017_Sep_21_1810,60.0062743255,MAFE4ImagesEEG,001,101611,
AFNE01.JPG,AFNE01.JPG,AFNE01.JPG,AFNE01.JPG,AFNE01.JPG,AFNE01.JPG,,,,,5,1,51,9,,,,,,,,,,,,,,,,,,,AFSA16.jpg,AFNE20.jpg,AFSA15.jpg,AFNE11.jpg,AFSA15.jpg,FS,4,num_2,16,num_2,1.85005135041,,,2017_Sep_21_1810,60.0062743255,MAFE4ImagesEEG,001,101611,
AFNE01.JPG,AFNE01.JPG,AFNE01.JPG,AFNE01.JPG,AFNE01.JPG,AFNE01.JPG,,,,,5,2,52,0,,,,,,,,,,,,,,,,,,,AFNE18.jpg,AFSA06.jpg,AFNE11.jpg,AFSA15.jpg,AFSA06.jpg,FS,4,num_6,16,num_6,0.86685104917,,,2017_Sep_21_1810,60.0062743255,MAFE4ImagesEEG,001,101611,
AFNE01.JPG,AFNE01.JPG,AFNE01.JPG,AFNE01.JPG,AFNE01.JPG,AFNE01.JPG,,,,,5,3,53,2,,,,,,,,,,,,,,,,,,,AFSA16.jpg,AFSA05.jpg,AFNE18.jpg,AFNE06.jpg,AFSA05.jpg,FS,4,num_6,16,num_6,0.850100423573,,,2017_Sep_21_1810,60.0062743255,MAFE4ImagesEEG,001,101611,
AFNE01.JPG,AFNE01.JPG,AFNE01.JPG,AFNE01.JPG,AFNE01.JPG,AFNE01.JPG,,,,,5,4,54,6,,,,,,,,,,,,,,,,,,,AFNE09.jpg,AFSA11.jpg,AFNE06.jpg,AFSA15.jpg,AFSA11.jpg,FS,4,num_6,32,num_8,0.800152287164,,,2017_Sep_21_1810,60.0062743255,MAFE4ImagesEEG,001,101611,
AFNE01.JPG,AFNE01.JPG,AFNE01.JPG,AFNE01.JPG,AFNE01.JPG,AFNE01.JPG,,,,,5,5,55,5,,,,,,,,,,,,,,,,,,,AFNE15.jpg,AFSA17.jpg,AFNE13.jpg,AFSA02.jpg,AFNE15.jpg,FN,3,num_8,32,num_4,0.783494355303,,,2017_Sep_21_1810,60.0062743255,MAFE4ImagesEEG,001,101611,
AFNE01.JPG,AFNE01.JPG,AFNE01.JPG,AFNE01.JPG,AFNE01.JPG,AFNE01.JPG,,,,,5,6,56,8,,,,,,,,,,,,,,,,,,,AFSA08.jpg,AFSA03.jpg,AFNE07.jpg,AFNE15.jpg,AFNE15.jpg,FN,3,num_4,16,num_4,0.616822663724,,,2017_Sep_21_1810,60.0062743255,MAFE4ImagesEEG,001,101611,
AFNE01.JPG,AFNE01.JPG,AFNE01.JPG,AFNE01.JPG,AFNE01.JPG,AFNE01.JPG,,,,,5,7,57,7,,,,,,,,,,,,,,,,,,,AFNE20.jpg,AFSA13.jpg,AFSA01.jpg,AFNE17.jpg,AFSA13.jpg,FS,4,num_6,16,num_6,1.65004166406,,,2017_Sep_21_1810,60.0062743255,MAFE4ImagesEEG,001,101611,
AFNE01.JPG,AFNE01.JPG,AFNE01.JPG,AFNE01.JPG,AFNE01.JPG,AFNE01.JPG,,,,,5,8,58,4,,,,,,,,,,,,,,,,,,,AFSA16.jpg,AFNE10.jpg,AFNE06.jpg,AFSA01.jpg,AFNE06.jpg,FN,3,num_2,32,num_6,0.816644717386,,,2017_Sep_21_1810,60.0062743255,MAFE4ImagesEEG,001,101611,
AFNE01.JPG,AFNE01.JPG,AFNE01.JPG,AFNE01.JPG,AFNE01.JPG,AFNE01.JPG,,,,,5,9,59,3,,,,,,,,,,,,,,,,,,,AFNE07.jpg,AFNE10.jpg,AFSA17.jpg,AFSA11.jpg,AFSA11.jpg,FS,4,num_4,16,num_4,0.800126307251,,,2017_Sep_21_1810,60.0062743255,MAFE4ImagesEEG,001,101611,
,,,,,,,,,,,,,,,,,,,,,,,,,,,,,,,,,,,,,,,,,,,space,5.24975928492,2017_Sep_21_1810,60.0062743255,MAFE4ImagesEEG,001,101611,
AFNE01.JPG,AFNE01.JPG,AFNE01.JPG,AFNE01.JPG,AFNE01.JPG,AFNE01.JPG,,,,,,,,,0,0,0,9,,,,,,,,,,,,,,,AMNE20.jpg,AMSA20.jpg,AMNE18.jpg,AMSA17.jpg,AMSA20.jpg,MS,2,num_6,16,num_6,0.700130925907,,,2017_Sep_21_1810,60.0062743255,MAFE4ImagesEEG,001,101611,
AFNE01.JPG,AFNE01.JPG,AFNE01.JPG,AFNE01.JPG,AFNE01.JPG,AFNE01.JPG,,,,,,,,,0,1,1,0,,,,,,,,,,,,,,,AMSA12.jpg,AMSA02.jpg,AMNE01.jpg,AMNE19.jpg,AMSA12.jpg,MS,2,num_8,32,num_2,1.50013663506,,,2017_Sep_21_1810,60.0062743255,MAFE4ImagesEEG,001,101611,
AFNE01.JPG,AFNE01.JPG,AFNE01.JPG,AFNE01.JPG,AFNE01.JPG,AFNE01.JPG,,,,,,,,,0,2,2,4,,,,,,,,,,,,,,,AMNE19.jpg,AMSA18.jpg,AMNE02.jpg,AMSA14.jpg,AMSA18.jpg,MS,2,num_6,32,num_4,0.866777279065,,,2017_Sep_21_1810,60.0062743255,MAFE4ImagesEEG,001,101611,
AFNE01.JPG,AFNE01.JPG,AFNE01.JPG,AFNE01.JPG,AFNE01.JPG,AFNE01.JPG,,,,,,,,,0,3,3,3,,,,,,,,,,,,,,,AMSA12.jpg,AMNE09.jpg,AMNE18.jpg,AMSA03.jpg,AMNE09.jpg,MN,1,num_6,16,num_6,1.39990518938,,,2017_Sep_21_1810,60.0062743255,MAFE4ImagesEEG,001,101611,
AFNE01.JPG,AFNE01.JPG,AFNE01.JPG,AFNE01.JPG,AFNE01.JPG,AFNE01.JPG,,,,,,,,,0,4,4,7,,,,,,,,,,,,,,,AMSA03.jpg,AMNE14.jpg,AMNE08.jpg,AMSA07.jpg,AMSA07.jpg,MS,2,num_4,16,num_4,0.783460677645,,,2017_Sep_21_1810,60.0062743255,MAFE4ImagesEEG,001,101611,
AFNE01.JPG,AFNE01.JPG,AFNE01.JPG,AFNE01.JPG,AFNE01.JPG,AFNE01.JPG,,,,,,,,,0,5,5,2,,,,,,,,,,,,,,,AMNE12.jpg,AMNE19.jpg,AMSA08.jpg,AMSA14.jpg,AMSA14.jpg,MS,2,num_4,32,num_2,1.33344762353,,,2017_Sep_21_1810,60.0062743255,MAFE4ImagesEEG,001,101611,
AFNE01.JPG,AFNE01.JPG,AFNE01.JPG,AFNE01.JPG,AFNE01.JPG,AFNE01.JPG,,,,,,,,,0,6,6,6,,,,,,,,,,,,,,,AMSA18.jpg,AMSA04.jpg,AMNE15.jpg,AMNE09.jpg,AMSA04.jpg,MS,2,num_6,32,num_8,1.11685153029,,,2017_Sep_21_1810,60.0062743255,MAFE4ImagesEEG,001,101611,
AFNE01.JPG,AFNE01.JPG,AFNE01.JPG,AFNE01.JPG,AFNE01.JPG,AFNE01.JPG,,,,,,,,,0,7,7,8,,,,,,,,,,,,,,,AMNE06.jpg,AMNE13.jpg,AMSA14.jpg,AMSA09.jpg,AMNE06.jpg,MN,1,num_8,32,num_4,0.983468118793,,,2017_Sep_21_1810,60.0062743255,MAFE4ImagesEEG,001,101611,
AFNE01.JPG,AFNE01.JPG,AFNE01.JPG,AFNE01.JPG,AFNE01.JPG,AFNE01.JPG,,,,,,,,,0,8,8,5,,,,,,,,,,,,,,,AMSA06.jpg,AMSA14.jpg,AMNE03.jpg,AMNE16.jpg,AMNE16.jpg,MN,1,num_4,16,num_4,0.783593463842,,,2017_Sep_21_1810,60.0062743255,MAFE4ImagesEEG,001,101611,
AFNE01.JPG,AFNE01.JPG,AFNE01.JPG,AFNE01.JPG,AFNE01.JPG,AFNE01.JPG,,,,,,,,,0,9,9,1,,,,,,,,,,,,,,,AMSA16.jpg,AMNE19.jpg,AMSA14.jpg,AMNE09.jpg,AMNE09.jpg,MN,1,num_4,16,num_4,1.01674485228,,,2017_Sep_21_1810,60.0062743255,MAFE4ImagesEEG,001,101611,
AFNE01.JPG,AFNE01.JPG,AFNE01.JPG,AFNE01.JPG,AFNE01.JPG,AFNE01.JPG,,,,,,,,,1,0,10,8,,,,,,,,,,,,,,,AMSA02.jpg,AMNE13.jpg,AMSA12.jpg,AMNE17.jpg,AMNE17.jpg,MN,1,num_4,16,num_4,1.43338495103,,,2017_Sep_21_1810,60.0062743255,MAFE4ImagesEEG,001,101611,
AFNE01.JPG,AFNE01.JPG,AFNE01.JPG,AFNE01.JPG,AFNE01.JPG,AFNE01.JPG,,,,,,,,,1,1,11,6,,,,,,,,,,,,,,,AMSA18.jpg,AMSA07.jpg,AMNE20.jpg,AMNE18.jpg,AMNE18.jpg,MN,1,num_4,16,num_4,0.766806273925,,,2017_Sep_21_1810,60.0062743255,MAFE4ImagesEEG,001,101611,
AFNE01.JPG,AFNE01.JPG,AFNE01.JPG,AFNE01.JPG,AFNE01.JPG,AFNE01.JPG,,,,,,,,,1,2,12,2,,,,,,,,,,,,,,,AMNE07.jpg,AMSA03.jpg,AMSA11.jpg,AMNE01.jpg,AMSA11.jpg,MS,2,num_2,16,num_2,1.6001002632,,,2017_Sep_21_1810,60.0062743255,MAFE4ImagesEEG,001,101611,
AFNE01.JPG,AFNE01.JPG,AFNE01.JPG,AFNE01.JPG,AFNE01.JPG,AFNE01.JPG,,,,,,,,,1,3,13,5,,,,,,,,,,,,,,,AMSA12.jpg,AMNE09.jpg,AMNE19.jpg,AMSA15.jpg,AMNE09.jpg,MN,1,num_6,16,num_6,1.13328751034,,,2017_Sep_21_1810,60.0062743255,MAFE4ImagesEEG,001,101611,
AFNE01.JPG,AFNE01.JPG,AFNE01.JPG,AFNE01.JPG,AFNE01.JPG,AFNE01.JPG,,,,,,,,,1,4,14,0,,,,,,,,,,,,,,,AMNE20.jpg,AMNE01.jpg,AMSA10.jpg,AMSA13.jpg,AMSA13.jpg,MS,2,num_4,32,num_2,1.23345288368,,,2017_Sep_21_1810,60.0062743255,MAFE4ImagesEEG,001,101611,
AFNE01.JPG,AFNE01.JPG,AFNE01.JPG,AFNE01.JPG,AFNE01.JPG,AFNE01.JPG,,,,,,,,,1,5,15,3,,,,,,,,,,,,,,,AMNE20.jpg,AMSA19.jpg,AMSA07.jpg,AMNE19.jpg,AMNE20.jpg,MN,1,num_8,32,num_6,0.916738886532,,,2017_Sep_21_1810,60.0062743255,MAFE4ImagesEEG,001,101611,
AFNE01.JPG,AFNE01.JPG,AFNE01.JPG,AFNE01.JPG,AFNE01.JPG,AFNE01.JPG,,,,,,,,,1,6,16,7,,,,,,,,,,,,,,,AMSA11.jpg,AMSA03.jpg,AMNE13.jpg,AMNE20.jpg,AMSA03.jpg,MS,2,num_6,32,num_8,0.750118834025,,,2017_Sep_21_1810,60.0062743255,MAFE4ImagesEEG,001,101611,
AFNE01.JPG,AFNE01.JPG,AFNE01.JPG,AFNE01.JPG,AFNE01.JPG,AFNE01.JPG,,,,,,,,,1,7,17,1,,,,,,,,,,,,,,,AMSA15.jpg,AMNE10.jpg,AMNE13.jpg,AMSA13.jpg,AMNE13.jpg,MN,1,num_2,32,num_6,0.850104272438,,,2017_Sep_21_1810,60.0062743255,MAFE4ImagesEEG,001,101611,
AFNE01.JPG,AFNE01.JPG,AFNE01.JPG,AFNE01.JPG,AFNE01.JPG,AFNE01.JPG,,,,,,,,,1,8,18,9,,,,,,,,,,,,,,,AMSA06.jpg,AMNE14.jpg,AMNE18.jpg,AMSA04.jpg,AMNE14.jpg,MN,1,num_6,16,num_6,0.0835205917974,,,2017_Sep_21_1810,60.0062743255,MAFE4ImagesEEG,001,101611,
AFNE01.JPG,AFNE01.JPG,AFNE01.JPG,AFNE01.JPG,AFNE01.JPG,AFNE01.JPG,,,,,,,,,1,9,19,4,,,,,,,,,,,,,,,AMNE10.jpg,AMSA10.jpg,AMNE14.jpg,AMSA07.jpg,AMNE14.jpg,MN,1,num_2,16,num_2,2.16668837004,,,2017_Sep_21_1810,60.0062743255,MAFE4ImagesEEG,001,101611,
AFNE01.JPG,AFNE01.JPG,AFNE01.JPG,AFNE01.JPG,AFNE01.JPG,AFNE01.JPG,,,,,,,,,2,0,20,7,,,,,,,,,,,,,,,AMNE14.jpg,AMSA11.jpg,AMSA01.jpg,AMNE18.jpg,AMSA01.jpg,MS,2,num_2,16,num_2,0.75016854865,,,2017_Sep_21_1810,60.0062743255,MAFE4ImagesEEG,001,101611,
AFNE01.JPG,AFNE01.JPG,AFNE01.JPG,AFNE01.JPG,AFNE01.JPG,AFNE01.JPG,,,,,,,,,2,1,21,9,,,,,,,,,,,,,,,AMNE17.jpg,AMSA15.jpg,AMSA04.jpg,AMNE02.jpg,AMNE02.jpg,MN,1,num_4,16,num_4,1.01677788846,,,2017_Sep_21_1810,60.0062743255,MAFE4ImagesEEG,001,101611,
AFNE01.JPG,AFNE01.JPG,AFNE01.JPG,AFNE01.JPG,AFNE01.JPG,AFNE01.JPG,,,,,,,,,2,2,22,5,,,,,,,,,,,,,,,AMSA16.jpg,AMNE08.jpg,AMNE09.jpg,AMSA04.jpg,AMNE09.jpg,MN,1,num_2,32,num_6,0.700131246645,,,2017_Sep_21_1810,60.0062743255,MAFE4ImagesEEG,001,101611,
AFNE01.JPG,AFNE01.JPG,AFNE01.JPG,AFNE01.JPG,AFNE01.JPG,AFNE01.JPG,,,,,,,,,2,3,23,3,,,,,,,,,,,,,,,AMNE04.jpg,AMSA06.jpg,AMSA12.jpg,AMNE14.jpg,AMSA12.jpg,MS,2,num_2,32,num_6,2.16668644561,,,2017_Sep_21_1810,60.0062743255,MAFE4ImagesEEG,001,101611,
AFNE01.JPG,AFNE01.JPG,AFNE01.JPG,AFNE01.JPG,AFNE01.JPG,AFNE01.JPG,,,,,,,,,2,4,24,0,,,,,,,,,,,,,,,AMSA15.jpg,AMNE11.jpg,AMNE19.jpg,AMSA01.jpg,AMNE11.jpg,MN,1,num_6,16,num_6,2.61691022562,,,2017_Sep_21_1810,60.0062743255,MAFE4ImagesEEG,001,101611,
AFNE01.JPG,AFNE01.JPG,AFNE01.JPG,AFNE01.JPG,AFNE01.JPG,AFNE01.JPG,,,,,,,,,2,5,25,4,,,,,,,,,,,,,,,AMSA09.jpg,AMNE18.jpg,AMSA05.jpg,AMNE04.jpg,AMSA05.jpg,MS,2,num_2,32,num_4,0.81674799553,,,2017_Sep_21_1810,60.0062743255,MAFE4ImagesEEG,001,101611,
AFNE01.JPG,AFNE01.JPG,AFNE01.JPG,AFNE01.JPG,AFNE01.JPG,AFNE01.JPG,,,,,,,,,2,6,26,6,,,,,,,,,,,,,,,AMNE11.jpg,AMSA12.jpg,AMSA06.jpg,AMNE10.jpg,AMSA06.jpg,MS,2,num_2,32,num_4,0.716771217078,,,2017_Sep_21_1810,60.0062743255,MAFE4ImagesEEG,001,101611,
AFNE01.JPG,AFNE01.JPG,AFNE01.JPG,AFNE01.JPG,AFNE01.JPG,AFNE01.JPG,,,,,,,,,2,7,27,2,,,,,,,,,,,,,,,AMNE09.jpg,AMNE16.jpg,AMSA16.jpg,AMSA01.jpg,AMSA16.jpg,MS,2,num_2,16,num_2,2.71662816723,,,2017_Sep_21_1810,60.0062743255,MAFE4ImagesEEG,001,101611,
AFNE01.JPG,AFNE01.JPG,AFNE01.JPG,AFNE01.JPG,AFNE01.JPG,AFNE01.JPG,,,,,,,,,2,8,28,1,,,,,,,,,,,,,,,AMSA10.jpg,AMNE15.jpg,AMNE07.jpg,AMSA17.jpg,AMNE15.jpg,MN,1,num_6,16,num_6,0.683507633919,,,2017_Sep_21_1810,60.0062743255,MAFE4ImagesEEG,001,101611,
AFNE01.JPG,AFNE01.JPG,AFNE01.JPG,AFNE01.JPG,AFNE01.JPG,AFNE01.JPG,,,,,,,,,2,9,29,8,,,,,,,,,,,,,,,AMNE04.jpg,AMSA02.jpg,AMSA01.jpg,AMNE16.jpg,AMSA01.jpg,MS,2,num_2,32,num_8,0.70016941466,,,2017_Sep_21_1810,60.0062743255,MAFE4ImagesEEG,001,101611,
AFNE01.JPG,AFNE01.JPG,AFNE01.JPG,AFNE01.JPG,AFNE01.JPG,AFNE01.JPG,,,,,,,,,3,0,30,1,,,,,,,,,,,,,,,AMNE03.jpg,AMNE14.jpg,AMSA13.jpg,AMSA05.jpg,AMNE14.jpg,MN,1,num_6,16,num_6,0.51679168026,,,2017_Sep_21_1810,60.0062743255,MAFE4ImagesEEG,001,101611,
AFNE01.JPG,AFNE01.JPG,AFNE01.JPG,AFNE01.JPG,AFNE01.JPG,AFNE01.JPG,,,,,,,,,3,1,31,9,,,,,,,,,,,,,,,AMSA14.jpg,AMNE14.jpg,AMNE01.jpg,AMSA17.jpg,AMNE14.jpg,MN,1,num_6,16,num_6,0.633470652654,,,2017_Sep_21_1810,60.0062743255,MAFE4ImagesEEG,001,101611,
AFNE01.JPG,AFNE01.JPG,AFNE01.JPG,AFNE01.JPG,AFNE01.JPG,AFNE01.JPG,,,,,,,,,3,2,32,2,,,,,,,,,,,,,,,AMNE17.jpg,AMSA03.jpg,AMNE01.jpg,AMSA17.jpg,AMSA17.jpg,MS,2,num_4,16,num_4,1.70011200228,,,2017_Sep_21_1810,60.0062743255,MAFE4ImagesEEG,001,101611,
AFNE01.JPG,AFNE01.JPG,AFNE01.JPG,AFNE01.JPG,AFNE01.JPG,AFNE01.JPG,,,,,,,,,3,3,33,7,,,,,,,,,,,,,,,AMSA18.jpg,AMNE11.jpg,AMSA07.jpg,AMNE19.jpg,AMSA07.jpg,MS,2,num_2,32,num_6,0.866797164927,,,2017_Sep_21_1810,60.0062743255,MAFE4ImagesEEG,001,101611,
AFNE01.JPG,AFNE01.JPG,AFNE01.JPG,AFNE01.JPG,AFNE01.JPG,AFNE01.JPG,,,,,,,,,3,4,34,3,,,,,,,,,,,,,,,AMNE16.jpg,AMNE02.jpg,AMSA01.jpg,AMSA11.jpg,AMSA01.jpg,MS,2,num_2,16,num_2,1.68373311387,,,2017_Sep_21_1810,60.0062743255,MAFE4ImagesEEG,001,101611,
AFNE01.JPG,AFNE01.JPG,AFNE01.JPG,AFNE01.JPG,AFNE01.JPG,AFNE01.JPG,,,,,,,,,3,5,35,6,,,,,,,,,,,,,,,AMNE09.jpg,AMSA20.jpg,AMNE11.jpg,AMSA10.jpg,AMNE09.jpg,MN,1,num_8,16,num_8,0.466845147559,,,2017_Sep_21_1810,60.0062743255,MAFE4ImagesEEG,001,101611,
AFNE01.JPG,AFNE01.JPG,AFNE01.JPG,AFNE01.JPG,AFNE01.JPG,AFNE01.JPG,,,,,,,,,3,6,36,0,,,,,,,,,,,,,,,AMNE05.jpg,AMSA13.jpg,AMNE17.jpg,AMSA05.jpg,AMNE17.jpg,MN,1,num_2,32,num_6,0.816782635418,,,2017_Sep_21_1810,60.0062743255,MAFE4ImagesEEG,001,101611,
AFNE01.JPG,AFNE01.JPG,AFNE01.JPG,AFNE01.JPG,AFNE01.JPG,AFNE01.JPG,,,,,,,,,3,7,37,4,,,,,,,,,,,,,,,AMNE14.jpg,AMSA02.jpg,AMSA19.jpg,AMNE08.jpg,AMNE08.jpg,MN,1,num_4,32,num_6,0.650129546731,,,2017_Sep_21_1810,60.0062743255,MAFE4ImagesEEG,001,101611,
AFNE01.JPG,AFNE01.JPG,AFNE01.JPG,AFNE01.JPG,AFNE01.JPG,AFNE01.JPG,,,,,,,,,3,8,38,5,,,,,,,,,,,,,,,AMNE08.jpg,AMSA03.jpg,AMSA18.jpg,AMNE12.jpg,AMNE12.jpg,MN,1,num_4,16,num_4,0.650122169711,,,2017_Sep_21_1810,60.0062743255,MAFE4ImagesEEG,001,101611,
AFNE01.JPG,AFNE01.JPG,AFNE01.JPG,AFNE01.JPG,AFNE01.JPG,AFNE01.JPG,,,,,,,,,3,9,39,8,,,,,,,,,,,,,,,AMNE09.jpg,AMSA20.jpg,AMSA05.jpg,AMNE06.jpg,AMNE06.jpg,MN,1,num_4,32,num_8,0.583452274266,,,2017_Sep_21_1810,60.0062743255,MAFE4ImagesEEG,001,101611,
AFNE01.JPG,AFNE01.JPG,AFNE01.JPG,AFNE01.JPG,AFNE01.JPG,AFNE01.JPG,,,,,,,,,4,0,40,5,,,,,,,,,,,,,,,AMNE17.jpg,AMSA05.jpg,AMSA08.jpg,AMNE15.jpg,AMNE17.jpg,MN,1,num_8,32,num_4,0.766805953186,,,2017_Sep_21_1810,60.0062743255,MAFE4ImagesEEG,001,101611,
AFNE01.JPG,AFNE01.JPG,AFNE01.JPG,AFNE01.JPG,AFNE01.JPG,AFNE01.JPG,,,,,,,,,4,1,41,0,,,,,,,,,,,,,,,AMSA17.jpg,AMNE07.jpg,AMSA20.jpg,AMNE14.jpg,AMSA20.jpg,MS,2,num_2,32,num_6,0.766769709619,,,2017_Sep_21_1810,60.0062743255,MAFE4ImagesEEG,001,101611,
AFNE01.JPG,AFNE01.JPG,AFNE01.JPG,AFNE01.JPG,AFNE01.JPG,AFNE01.JPG,,,,,,,,,4,2,42,3,,,,,,,,,,,,,,,AMNE02.jpg,AMSA07.jpg,AMSA16.jpg,AMNE08.jpg,AMNE02.jpg,MN,1,num_8,32,num_4,0.966713323593,,,2017_Sep_21_1810,60.0062743255,MAFE4ImagesEEG,001,101611,
AFNE01.JPG,AFNE01.JPG,AFNE01.JPG,AFNE01.JPG,AFNE01.JPG,AFNE01.JPG,,,,,,,,,4,3,43,6,,,,,,,,,,,,,,,AMNE20.jpg,AMSA02.jpg,AMSA05.jpg,AMNE03.jpg,AMSA02.jpg,MS,2,num_6,16,num_6,0.816463820258,,,2017_Sep_21_1810,60.0062743255,MAFE4ImagesEEG,001,101611,
AFNE01.JPG,AFNE01.JPG,AFNE01.JPG,AFNE01.JPG,AFNE01.JPG,AFNE01.JPG,,,,,,,,,4,4,44,1,,,,,,,,,,,,,,,AMSA05.jpg,AMNE16.jpg,AMNE14.jpg,AMSA13.jpg,AMNE14.jpg,MN,1,num_2,32,num_6,0.78347960129,,,2017_Sep_21_1810,60.0062743255,MAFE4ImagesEEG,001,101611,
AFNE01.JPG,AFNE01.JPG,AFNE01.JPG,AFNE01.JPG,AFNE01.JPG,AFNE01.JPG,,,,,,,,,4,5,45,9,,,,,,,,,,,,,,,AMSA17.jpg,AMNE04.jpg,AMSA01.jpg,AMNE01.jpg,AMSA17.jpg,MS,2,num_8,16,num_8,0.566827699324,,,2017_Sep_21_1810,60.0062743255,MAFE4ImagesEEG,001,101611,
AFNE01.JPG,AFNE01.JPG,AFNE01.JPG,AFNE01.JPG,AFNE01.JPG,AFNE01.JPG,,,,,,,,,4,6,46,4,,,,,,,,,,,,,,,AMSA11.jpg,AMNE16.jpg,AMSA18.jpg,AMNE01.jpg,AMSA11.jpg,MS,2,num_8,32,num_4,1.01674549376,,,2017_Sep_21_1810,60.0062743255,MAFE4ImagesEEG,001,101611,
AFNE01.JPG,AFNE01.JPG,AFNE01.JPG,AFNE01.JPG,AFNE01.JPG,AFNE01.JPG,,,,,,,,,4,7,47,2,,,,,,,,,,,,,,,AMSA12.jpg,AMNE15.jpg,AMNE19.jpg,AMSA06.jpg,AMNE15.jpg,MN,1,num_6,16,num_6,0.883456379743,,,2017_Sep_21_1810,60.0062743255,MAFE4ImagesEEG,001,101611,
AFNE01.JPG,AFNE01.JPG,AFNE01.JPG,AFNE01.JPG,AFNE01.JPG,AFNE01.JPG,,,,,,,,,4,8,48,8,,,,,,,,,,,,,,,AMNE07.jpg,AMSA08.jpg,AMSA06.jpg,AMNE11.jpg,AMSA06.jpg,MS,2,num_2,32,num_4,1.10033247867,,,2017_Sep_21_1810,60.0062743255,MAFE4ImagesEEG,001,101611,
AFNE01.JPG,AFNE01.JPG,AFNE01.JPG,AFNE01.JPG,AFNE01.JPG,AFNE01.JPG,,,,,,,,,4,9,49,7,,,,,,,,,,,,,,,AMNE08.jpg,AMSA03.jpg,AMSA01.jpg,AMNE10.jpg,AMNE08.jpg,MN,1,num_8,32,num_6,1.25017817084,,,2017_Sep_21_1810,60.0062743255,MAFE4ImagesEEG,001,101611,
AFNE01.JPG,AFNE01.JPG,AFNE01.JPG,AFNE01.JPG,AFNE01.JPG,AFNE01.JPG,,,,,,,,,5,0,50,3,,,,,,,,,,,,,,,AMSA01.jpg,AMNE10.jpg,AMSA15.jpg,AMNE12.jpg,AMNE12.jpg,MN,1,num_4,32,num_6,0.816777503584,,,2017_Sep_21_1810,60.0062743255,MAFE4ImagesEEG,001,101611,
AFNE01.JPG,AFNE01.JPG,AFNE01.JPG,AFNE01.JPG,AFNE01.JPG,AFNE01.JPG,,,,,,,,,5,1,51,4,,,,,,,,,,,,,,,AMNE01.jpg,AMNE08.jpg,AMSA20.jpg,AMSA10.jpg,AMNE01.jpg,MN,1,num_8,16,num_8,0.433458079642,,,2017_Sep_21_1810,60.0062743255,MAFE4ImagesEEG,001,101611,
AFNE01.JPG,AFNE01.JPG,AFNE01.JPG,AFNE01.JPG,AFNE01.JPG,AFNE01.JPG,,,,,,,,,5,2,52,5,,,,,,,,,,,,,,,AMNE18.jpg,AMSA02.jpg,AMNE07.jpg,AMSA07.jpg,AMSA07.jpg,MS,2,num_4,32,num_2,1.28344015031,,,2017_Sep_21_1810,60.0062743255,MAFE4ImagesEEG,001,101611,
AFNE01.JPG,AFNE01.JPG,AFNE01.JPG,AFNE01.JPG,AFNE01.JPG,AFNE01.JPG,,,,,,,,,5,3,53,1,,,,,,,,,,,,,,,AMNE15.jpg,AMSA02.jpg,AMSA09.jpg,AMNE19.jpg,AMSA09.jpg,MS,2,num_2,16,num_2,0.600168259989,,,2017_Sep_21_1810,60.0062743255,MAFE4ImagesEEG,001,101611,
AFNE01.JPG,AFNE01.JPG,AFNE01.JPG,AFNE01.JPG,AFNE01.JPG,AFNE01.JPG,,,,,,,,,5,4,54,6,,,,,,,,,,,,,,,AMSA04.jpg,AMSA06.jpg,AMNE08.jpg,AMNE19.jpg,AMNE19.jpg,MN,1,num_4,16,num_4,0.650135961507,,,2017_Sep_21_1810,60.0062743255,MAFE4ImagesEEG,001,101611,
AFNE01.JPG,AFNE01.JPG,AFNE01.JPG,AFNE01.JPG,AFNE01.JPG,AFNE01.JPG,,,,,,,,,5,5,55,8,,,,,,,,,,,,,,,AMSA05.jpg,AMNE12.jpg,AMSA16.jpg,AMNE18.jpg,AMNE18.jpg,MN,1,num_4,32,num_6,1.23344326149,,,2017_Sep_21_1810,60.0062743255,MAFE4ImagesEEG,001,101611,
AFNE01.JPG,AFNE01.JPG,AFNE01.JPG,AFNE01.JPG,AFNE01.JPG,AFNE01.JPG,,,,,,,,,5,6,56,0,,,,,,,,,,,,,,,AMSA13.jpg,AMNE14.jpg,AMNE10.jpg,AMSA09.jpg,AMSA09.jpg,MS,2,num_4,16,num_4,0.750157002025,,,2017_Sep_21_1810,60.0062743255,MAFE4ImagesEEG,001,101611,
AFNE01.JPG,AFNE01.JPG,AFNE01.JPG,AFNE01.JPG,AFNE01.JPG,AFNE01.JPG,,,,,,,,,5,7,57,9,,,,,,,,,,,,,,,AMSA11.jpg,AMNE16.jpg,AMNE08.jpg,AMSA17.jpg,AMSA11.jpg,MS,2,num_8,16,num_8,0.800136250182,,,2017_Sep_21_1810,60.0062743255,MAFE4ImagesEEG,001,101611,
AFNE01.JPG,AFNE01.JPG,AFNE01.JPG,AFNE01.JPG,AFNE01.JPG,AFNE01.JPG,,,,,,,,,5,8,58,2,,,,,,,,,,,,,,,AMNE07.jpg,AMSA10.jpg,AMSA12.jpg,AMNE01.jpg,AMNE07.jpg,MN,1,num_8,32,num_4,0.883489736661,,,2017_Sep_21_1810,60.0062743255,MAFE4ImagesEEG,001,101611,
AFNE01.JPG,AFNE01.JPG,AFNE01.JPG,AFNE01.JPG,AFNE01.JPG,AFNE01.JPG,,,,,,,,,5,9,59,7,,,,,,,,,,,,,,,AMNE15.jpg,AMSA07.jpg,AMSA15.jpg,AMNE05.jpg,AMSA07.jpg,MS,2,num_6,32,num_8,0.700098210466,,,2017_Sep_21_1810,60.0062743255,MAFE4ImagesEEG,001,101611,
,,,,,,,,,,,,,,,,,,,,,,,,,,,,,,,,,,,,,,,,,,,space,23.7150619958,2017_Sep_21_1810,60.0062743255,MAFE4ImagesEEG,001,101611,
AFNE01.JPG,AFNE01.JPG,AFNE01.JPG,AFNE01.JPG,AFNE01.JPG,AFNE01.JPG,,,,,,,,,,,,,0,0,0,3,,,,,,,,,,,AFNE04.jpg,AFSA10.jpg,AFNE02.jpg,AFSA13.jpg,AFSA13.jpg,FS,4,num_4,32,num_6,1.86668650976,,,2017_Sep_21_1810,60.0062743255,MAFE4ImagesEEG,001,101611,
AFNE01.JPG,AFNE01.JPG,AFNE01.JPG,AFNE01.JPG,AFNE01.JPG,AFNE01.JPG,,,,,,,,,,,,,0,1,1,6,,,,,,,,,,,AFSA06.jpg,AFNE03.jpg,AFNE12.jpg,AFSA15.jpg,AFSA15.jpg,FS,4,num_4,16,num_4,0.900109179755,,,2017_Sep_21_1810,60.0062743255,MAFE4ImagesEEG,001,101611,
AFNE01.JPG,AFNE01.JPG,AFNE01.JPG,AFNE01.JPG,AFNE01.JPG,AFNE01.JPG,,,,,,,,,,,,,0,2,2,7,,,,,,,,,,,AFSA01.jpg,AFNE10.jpg,AFNE09.jpg,AFSA15.jpg,AFNE10.jpg,FN,3,num_6,16,num_6,0.466821733571,,,2017_Sep_21_1810,60.0062743255,MAFE4ImagesEEG,001,101611,
AFNE01.JPG,AFNE01.JPG,AFNE01.JPG,AFNE01.JPG,AFNE01.JPG,AFNE01.JPG,,,,,,,,,,,,,0,3,3,1,,,,,,,,,,,AFNE03.jpg,AFNE14.jpg,AFSA06.jpg,AFSA07.jpg,AFNE03.jpg,FN,3,num_8,16,num_8,0.383537206115,,,2017_Sep_21_1810,60.0062743255,MAFE4ImagesEEG,001,101611,
AFNE01.JPG,AFNE01.JPG,AFNE01.JPG,AFNE01.JPG,AFNE01.JPG,AFNE01.JPG,,,,,,,,,,,,,0,4,4,4,,,,,,,,,,,AFNE17.jpg,AFSA04.jpg,AFNE08.jpg,AFSA09.jpg,AFNE08.jpg,FN,3,num_2,16,num_2,0.533514722265,,,2017_Sep_21_1810,60.0062743255,MAFE4ImagesEEG,001,101611,
AFNE01.JPG,AFNE01.JPG,AFNE01.JPG,AFNE01.JPG,AFNE01.JPG,AFNE01.JPG,,,,,,,,,,,,,0,5,5,2,,,,,,,,,,,AFSA12.jpg,AFSA04.jpg,AFNE08.jpg,AFNE20.jpg,AFSA12.jpg,FS,4,num_8,16,num_8,1.15008400171,,,2017_Sep_21_1810,60.0062743255,MAFE4ImagesEEG,001,101611,
AFNE01.JPG,AFNE01.JPG,AFNE01.JPG,AFNE01.JPG,AFNE01.JPG,AFNE01.JPG,,,,,,,,,,,,,0,6,6,9,,,,,,,,,,,AFNE14.jpg,AFSA20.jpg,AFSA15.jpg,AFNE01.jpg,AFNE01.jpg,FN,3,num_4,32,num_6,0.950149368437,,,2017_Sep_21_1810,60.0062743255,MAFE4ImagesEEG,001,101611,
AFNE01.JPG,AFNE01.JPG,AFNE01.JPG,AFNE01.JPG,AFNE01.JPG,AFNE01.JPG,,,,,,,,,,,,,0,7,7,5,,,,,,,,,,,AFNE19.jpg,AFSA09.jpg,AFSA13.jpg,AFNE01.jpg,AFNE01.jpg,FN,3,num_4,16,num_4,0.633505934005,,,2017_Sep_21_1810,60.0062743255,MAFE4ImagesEEG,001,101611,
AFNE01.JPG,AFNE01.JPG,AFNE01.JPG,AFNE01.JPG,AFNE01.JPG,AFNE01.JPG,,,,,,,,,,,,,0,8,8,8,,,,,,,,,,,AFNE01.jpg,AFSA05.jpg,AFSA09.jpg,AFNE20.jpg,AFNE01.jpg,FN,3,num_8,32,num_4,1.90002418376,,,2017_Sep_21_1810,60.0062743255,MAFE4ImagesEEG,001,101611,
AFNE01.JPG,AFNE01.JPG,AFNE01.JPG,AFNE01.JPG,AFNE01.JPG,AFNE01.JPG,,,,,,,,,,,,,0,9,9,0,,,,,,,,,,,AFSA09.jpg,AFNE18.jpg,AFNE07.jpg,AFSA11.jpg,AFNE18.jpg,FN,3,num_6,16,num_6,0.700137982189,,,2017_Sep_21_1810,60.0062743255,MAFE4ImagesEEG,001,101611,
AFNE01.JPG,AFNE01.JPG,AFNE01.JPG,AFNE01.JPG,AFNE01.JPG,AFNE01.JPG,,,,,,,,,,,,,1,0,10,0,,,,,,,,,,,AFSA07.jpg,AFSA09.jpg,AFNE10.jpg,AFNE01.jpg,AFSA09.jpg,FS,4,num_6,32,num_4,1.5999148757,,,2017_Sep_21_1810,60.0062743255,MAFE4ImagesEEG,001,101611,
AFNE01.JPG,AFNE01.JPG,AFNE01.JPG,AFNE01.JPG,AFNE01.JPG,AFNE01.JPG,,,,,,,,,,,,,1,1,11,4,,,,,,,,,,,AFSA19.jpg,AFNE10.jpg,AFSA18.jpg,AFNE12.jpg,AFSA19.jpg,FS,4,num_8,16,num_8,1.16670408628,,,2017_Sep_21_1810,60.0062743255,MAFE4ImagesEEG,001,101611,
AFNE01.JPG,AFNE01.JPG,AFNE01.JPG,AFNE01.JPG,AFNE01.JPG,AFNE01.JPG,,,,,,,,,,,,,1,2,12,1,,,,,,,,,,,AFSA13.jpg,AFNE01.jpg,AFNE09.jpg,AFSA06.jpg,AFNE01.jpg,FN,3,num_6,32,num_4,0.283450734714,,,2017_Sep_21_1810,60.0062743255,MAFE4ImagesEEG,001,101611,
AFNE01.JPG,AFNE01.JPG,AFNE01.JPG,AFNE01.JPG,AFNE01.JPG,AFNE01.JPG,,,,,,,,,,,,,1,3,13,7,,,,,,,,,,,AFNE19.jpg,AFNE14.jpg,AFSA13.jpg,AFSA12.jpg,AFSA13.jpg,FS,4,num_2,32,num_8,0.733502277581,,,2017_Sep_21_1810,60.0062743255,MAFE4ImagesEEG,001,101611,
AFNE01.JPG,AFNE01.JPG,AFNE01.JPG,AFNE01.JPG,AFNE01.JPG,AFNE01.JPG,,,,,,,,,,,,,1,4,14,6,,,,,,,,,,,AFSA10.jpg,AFNE20.jpg,AFSA11.jpg,AFNE08.jpg,AFSA11.jpg,FS,4,num_2,16,num_2,0.666780422311,,,2017_Sep_21_1810,60.0062743255,MAFE4ImagesEEG,001,101611,
AFNE01.JPG,AFNE01.JPG,AFNE01.JPG,AFNE01.JPG,AFNE01.JPG,AFNE01.JPG,,,,,,,,,,,,,1,5,15,8,,,,,,,,,,,AFSA04.jpg,AFNE06.jpg,AFNE16.jpg,AFSA18.jpg,AFNE06.jpg,FN,3,num_6,16,num_6,0.583480820089,,,2017_Sep_21_1810,60.0062743255,MAFE4ImagesEEG,001,101611,
AFNE01.JPG,AFNE01.JPG,AFNE01.JPG,AFNE01.JPG,AFNE01.JPG,AFNE01.JPG,,,,,,,,,,,,,1,6,16,5,,,,,,,,,,,AFSA18.jpg,AFNE17.jpg,AFNE12.jpg,AFSA13.jpg,AFSA13.jpg,FS,4,num_4,16,num_4,0.600012380542,,,2017_Sep_21_1810,60.0062743255,MAFE4ImagesEEG,001,101611,
AFNE01.JPG,AFNE01.JPG,AFNE01.JPG,AFNE01.JPG,AFNE01.JPG,AFNE01.JPG,,,,,,,,,,,,,1,7,17,3,,,,,,,,,,,AFNE12.jpg,AFNE17.jpg,AFSA05.jpg,AFSA20.jpg,AFNE12.jpg,FN,3,num_8,16,num_8,0.633483161495,,,2017_Sep_21_1810,60.0062743255,MAFE4ImagesEEG,001,101611,
AFNE01.JPG,AFNE01.JPG,AFNE01.JPG,AFNE01.JPG,AFNE01.JPG,AFNE01.JPG,,,,,,,,,,,,,1,8,18,2,,,,,,,,,,,AFNE04.jpg,AFSA15.jpg,AFSA12.jpg,AFNE09.jpg,AFNE04.jpg,FN,3,num_8,32,num_4,1.15013243338,,,2017_Sep_21_1810,60.0062743255,MAFE4ImagesEEG,001,101611,
AFNE01.JPG,AFNE01.JPG,AFNE01.JPG,AFNE01.JPG,AFNE01.JPG,AFNE01.JPG,,,,,,,,,,,,,1,9,19,9,,,,,,,,,,,AFNE13.jpg,AFNE02.jpg,AFSA07.jpg,AFSA08.jpg,AFNE02.jpg,FN,3,num_6,32,num_4,0.966784848511,,,2017_Sep_21_1810,60.0062743255,MAFE4ImagesEEG,001,101611,
AFNE01.JPG,AFNE01.JPG,AFNE01.JPG,AFNE01.JPG,AFNE01.JPG,AFNE01.JPG,,,,,,,,,,,,,2,0,20,5,,,,,,,,,,,AFNE02.jpg,AFSA12.jpg,AFSA06.jpg,AFNE13.jpg,AFSA06.jpg,FS,4,num_2,32,num_4,0.966645647524,,,2017_Sep_21_1810,60.0062743255,MAFE4ImagesEEG,001,101611,
AFNE01.JPG,AFNE01.JPG,AFNE01.JPG,AFNE01.JPG,AFNE01.JPG,AFNE01.JPG,,,,,,,,,,,,,2,1,21,8,,,,,,,,,,,AFSA14.jpg,AFNE04.jpg,AFNE20.jpg,AFSA02.jpg,AFSA02.jpg,FS,4,num_4,32,num_8,0.933455193008,,,2017_Sep_21_1810,60.0062743255,MAFE4ImagesEEG,001,101611,
AFNE01.JPG,AFNE01.JPG,AFNE01.JPG,AFNE01.JPG,AFNE01.JPG,AFNE01.JPG,,,,,,,,,,,,,2,2,22,6,,,,,,,,,,,AFNE01.jpg,AFNE12.jpg,AFSA14.jpg,AFSA12.jpg,AFNE01.jpg,FN,3,num_8,16,num_8,0.716751651969,,,2017_Sep_21_1810,60.0062743255,MAFE4ImagesEEG,001,101611,
AFNE01.JPG,AFNE01.JPG,AFNE01.JPG,AFNE01.JPG,AFNE01.JPG,AFNE01.JPG,,,,,,,,,,,,,2,3,23,1,,,,,,,,,,,AFSA10.jpg,AFNE19.jpg,AFNE17.jpg,AFSA15.jpg,AFSA15.jpg,FS,4,num_4,16,num_4,0.500135672846,,,2017_Sep_21_1810,60.0062743255,MAFE4ImagesEEG,001,101611,
AFNE01.JPG,AFNE01.JPG,AFNE01.JPG,AFNE01.JPG,AFNE01.JPG,AFNE01.JPG,,,,,,,,,,,,,2,4,24,7,,,,,,,,,,,AFSA17.jpg,AFNE14.jpg,AFSA02.jpg,AFNE19.jpg,AFSA17.jpg,FS,4,num_8,16,num_8,0.700203092318,,,2017_Sep_21_1810,60.0062743255,MAFE4ImagesEEG,001,101611,
AFNE01.JPG,AFNE01.JPG,AFNE01.JPG,AFNE01.JPG,AFNE01.JPG,AFNE01.JPG,,,,,,,,,,,,,2,5,25,2,,,,,,,,,,,AFNE16.jpg,AFNE09.jpg,AFSA15.jpg,AFSA19.jpg,AFSA19.jpg,FS,4,num_4,16,num_4,0.483471326195,,,2017_Sep_21_1810,60.0062743255,MAFE4ImagesEEG,001,101611,
AFNE01.JPG,AFNE01.JPG,AFNE01.JPG,AFNE01.JPG,AFNE01.JPG,AFNE01.JPG,,,,,,,,,,,,,2,6,26,0,,,,,,,,,,,AFNE12.jpg,AFSA12.jpg,AFSA06.jpg,AFNE15.jpg,AFSA06.jpg,FS,4,num_2,32,num_8,0.800129514653,,,2017_Sep_21_1810,60.0062743255,MAFE4ImagesEEG,001,101611,
AFNE01.JPG,AFNE01.JPG,AFNE01.JPG,AFNE01.JPG,AFNE01.JPG,AFNE01.JPG,,,,,,,,,,,,,2,7,27,4,,,,,,,,,,,AFSA18.jpg,AFNE03.jpg,AFNE10.jpg,AFSA09.jpg,AFSA18.jpg,FS,4,num_8,16,num_8,0.550103695117,,,2017_Sep_21_1810,60.0062743255,MAFE4ImagesEEG,001,101611,
AFNE01.JPG,AFNE01.JPG,AFNE01.JPG,AFNE01.JPG,AFNE01.JPG,AFNE01.JPG,,,,,,,,,,,,,2,8,28,9,,,,,,,,,,,AFNE14.jpg,AFNE19.jpg,AFSA01.jpg,AFSA02.jpg,AFNE19.jpg,FN,3,num_6,16,num_6,0.61679700455,,,2017_Sep_21_1810,60.0062743255,MAFE4ImagesEEG,001,101611,
AFNE01.JPG,AFNE01.JPG,AFNE01.JPG,AFNE01.JPG,AFNE01.JPG,AFNE01.JPG,,,,,,,,,,,,,2,9,29,3,,,,,,,,,,,AFNE13.jpg,AFSA11.jpg,AFSA02.jpg,AFNE15.jpg,AFNE13.jpg,FN,3,num_8,32,num_6,1.1834402786,,,2017_Sep_21_1810,60.0062743255,MAFE4ImagesEEG,001,101611,
AFNE01.JPG,AFNE01.JPG,AFNE01.JPG,AFNE01.JPG,AFNE01.JPG,AFNE01.JPG,,,,,,,,,,,,,3,0,30,8,,,,,,,,,,,AFNE09.jpg,AFSA07.jpg,AFNE01.jpg,AFSA11.jpg,AFSA11.jpg,FS,4,num_4,32,num_6,0.850096574693,,,2017_Sep_21_1810,60.0062743255,MAFE4ImagesEEG,001,101611,
AFNE01.JPG,AFNE01.JPG,AFNE01.JPG,AFNE01.JPG,AFNE01.JPG,AFNE01.JPG,,,,,,,,,,,,,3,1,31,7,,,,,,,,,,,AFNE18.jpg,AFNE06.jpg,AFSA13.jpg,AFSA07.jpg,AFNE18.jpg,FN,3,num_8,32,num_6,0.983424498219,,,2017_Sep_21_1810,60.0062743255,MAFE4ImagesEEG,001,101611,
AFNE01.JPG,AFNE01.JPG,AFNE01.JPG,AFNE01.JPG,AFNE01.JPG,AFNE01.JPG,,,,,,,,,,,,,3,2,32,6,,,,,,,,,,,AFSA14.jpg,AFNE03.jpg,AFSA16.jpg,AFNE08.jpg,AFSA14.jpg,FS,4,num_8,16,num_8,0.36668971715,,,2017_Sep_21_1810,60.0062743255,MAFE4ImagesEEG,001,101611,
AFNE01.JPG,AFNE01.JPG,AFNE01.JPG,AFNE01.JPG,AFNE01.JPG,AFNE01.JPG,,,,,,,,,,,,,3,3,33,3,,,,,,,,,,,AFSA11.jpg,AFSA19.jpg,AFNE15.jpg,AFNE19.jpg,AFSA19.jpg,FS,4,num_6,16,num_6,0.51681573574,,,2017_Sep_21_1810,60.0062743255,MAFE4ImagesEEG,001,101611,
AFNE01.JPG,AFNE01.JPG,AFNE01.JPG,AFNE01.JPG,AFNE01.JPG,AFNE01.JPG,,,,,,,,,,,,,3,4,34,2,,,,,,,,,,,AFNE12.jpg,AFNE03.jpg,AFSA12.jpg,AFSA16.jpg,AFSA12.jpg,FS,4,num_2,16,num_2,0.966773943379,,,2017_Sep_21_1810,60.0062743255,MAFE4ImagesEEG,001,101611,
AFNE01.JPG,AFNE01.JPG,AFNE01.JPG,AFNE01.JPG,AFNE01.JPG,AFNE01.JPG,,,,,,,,,,,,,3,5,35,5,,,,,,,,,,,AFSA20.jpg,AFSA10.jpg,AFNE05.jpg,AFNE03.jpg,AFNE03.jpg,FN,3,num_4,32,num_6,0.666782988221,,,2017_Sep_21_1810,60.0062743255,MAFE4ImagesEEG,001,101611,
AFNE01.JPG,AFNE01.JPG,AFNE01.JPG,AFNE01.JPG,AFNE01.JPG,AFNE01.JPG,,,,,,,,,,,,,3,6,36,4,,,,,,,,,,,AFSA08.jpg,AFNE04.jpg,AFSA14.jpg,AFNE06.jpg,AFNE06.jpg,FN,3,num_4,32,num_6,0.666796780017,,,2017_Sep_21_1810,60.0062743255,MAFE4ImagesEEG,001,101611,
AFNE01.JPG,AFNE01.JPG,AFNE01.JPG,AFNE01.JPG,AFNE01.JPG,AFNE01.JPG,,,,,,,,,,,,,3,7,37,1,,,,,,,,,,,AFSA11.jpg,AFNE07.jpg,AFSA16.jpg,AFNE14.jpg,AFNE14.jpg,FN,3,num_4,32,num_6,0.733509975325,,,2017_Sep_21_1810,60.0062743255,MAFE4ImagesEEG,001,101611,
AFNE01.JPG,AFNE01.JPG,AFNE01.JPG,AFNE01.JPG,AFNE01.JPG,AFNE01.JPG,,,,,,,,,,,,,3,8,38,0,,,,,,,,,,,AFNE13.jpg,AFSA07.jpg,AFNE04.jpg,AFSA13.jpg,AFNE13.jpg,FN,3,num_8,16,num_8,0.766870742576,,,2017_Sep_21_1810,60.0062743255,MAFE4ImagesEEG,001,101611,
AFNE01.JPG,AFNE01.JPG,AFNE01.JPG,AFNE01.JPG,AFNE01.JPG,AFNE01.JPG,,,,,,,,,,,,,3,9,39,9,,,,,,,,,,,AFNE14.jpg,AFSA02.jpg,AFSA13.jpg,AFNE11.jpg,AFSA13.jpg,FS,4,num_2,16,num_2,0.550136731297,,,2017_Sep_21_1810,60.0062743255,MAFE4ImagesEEG,001,101611,
AFNE01.JPG,AFNE01.JPG,AFNE01.JPG,AFNE01.JPG,AFNE01.JPG,AFNE01.JPG,,,,,,,,,,,,,4,0,40,2,,,,,,,,,,,AFNE15.jpg,AFSA03.jpg,AFSA09.jpg,AFNE07.jpg,AFSA09.jpg,FS,4,num_2,32,num_8,0.900255116285,,,2017_Sep_21_1810,60.0062743255,MAFE4ImagesEEG,001,101611,
AFNE01.JPG,AFNE01.JPG,AFNE01.JPG,AFNE01.JPG,AFNE01.JPG,AFNE01.JPG,,,,,,,,,,,,,4,1,41,1,,,,,,,,,,,AFNE07.jpg,AFSA15.jpg,AFNE14.jpg,AFSA13.jpg,AFNE14.jpg,FN,3,num_2,16,num_2,1.35015943965,,,2017_Sep_21_1810,60.0062743255,MAFE4ImagesEEG,001,101611,
AFNE01.JPG,AFNE01.JPG,AFNE01.JPG,AFNE01.JPG,AFNE01.JPG,AFNE01.JPG,,,,,,,,,,,,,4,2,42,4,,,,,,,,,,,AFNE03.jpg,AFNE19.jpg,AFSA17.jpg,AFSA04.jpg,AFSA04.jpg,FS,4,num_4,16,num_4,0.550146353475,,,2017_Sep_21_1810,60.0062743255,MAFE4ImagesEEG,001,101611,
AFNE01.JPG,AFNE01.JPG,AFNE01.JPG,AFNE01.JPG,AFNE01.JPG,AFNE01.JPG,,,,,,,,,,,,,4,3,43,6,,,,,,,,,,,AFSA19.jpg,AFSA12.jpg,AFNE06.jpg,AFNE04.jpg,AFNE06.jpg,FN,3,num_2,32,num_4,0.683484219931,,,2017_Sep_21_1810,60.0062743255,MAFE4ImagesEEG,001,101611,
AFNE01.JPG,AFNE01.JPG,AFNE01.JPG,AFNE01.JPG,AFNE01.JPG,AFNE01.JPG,,,,,,,,,,,,,4,4,44,8,,,,,,,,,,,AFNE11.jpg,AFSA01.jpg,AFSA05.jpg,AFNE18.jpg,AFSA01.jpg,FS,4,num_6,16,num_6,1.73339290537,,,2017_Sep_21_1810,60.0062743255,MAFE4ImagesEEG,001,101611,
AFNE01.JPG,AFNE01.JPG,AFNE01.JPG,AFNE01.JPG,AFNE01.JPG,AFNE01.JPG,,,,,,,,,,,,,4,5,45,7,,,,,,,,,,,AFSA19.jpg,AFSA16.jpg,AFNE19.jpg,AFNE10.jpg,AFNE10.jpg,FN,3,num_4,16,num_4,0.867121432646,,,2017_Sep_21_1810,60.0062743255,MAFE4ImagesEEG,001,101611,
AFNE01.JPG,AFNE01.JPG,AFNE01.JPG,AFNE01.JPG,AFNE01.JPG,AFNE01.JPG,,,,,,,,,,,,,4,6,46,3,,,,,,,,,,,AFNE17.jpg,AFSA13.jpg,AFNE02.jpg,AFSA03.jpg,AFNE17.jpg,FN,3,num_8,32,num_2,0.816757617737,,,2017_Sep_21_1810,60.0062743255,MAFE4ImagesEEG,001,101611,
AFNE01.JPG,AFNE01.JPG,AFNE01.JPG,AFNE01.JPG,AFNE01.JPG,AFNE01.JPG,,,,,,,,,,,,,4,7,47,5,,,,,,,,,,,AFNE20.jpg,AFNE17.jpg,AFSA11.jpg,AFSA02.jpg,AFSA02.jpg,FS,4,num_4,16,num_4,0.516835942341,,,2017_Sep_21_1810,60.0062743255,MAFE4ImagesEEG,001,101611,
AFNE01.JPG,AFNE01.JPG,AFNE01.JPG,AFNE01.JPG,AFNE01.JPG,AFNE01.JPG,,,,,,,,,,,,,4,8,48,9,,,,,,,,,,,AFSA17.jpg,AFSA06.jpg,AFNE08.jpg,AFNE02.jpg,AFSA06.jpg,FS,4,num_6,16,num_6,0.650144942221,,,2017_Sep_21_1810,60.0062743255,MAFE4ImagesEEG,001,101611,
AFNE01.JPG,AFNE01.JPG,AFNE01.JPG,AFNE01.JPG,AFNE01.JPG,AFNE01.JPG,,,,,,,,,,,,,4,9,49,0,,,,,,,,,,,AFSA08.jpg,AFNE15.jpg,AFSA01.jpg,AFNE07.jpg,AFSA08.jpg,FS,4,num_8,32,num_2,0.91710132228,,,2017_Sep_21_1810,60.0062743255,MAFE4ImagesEEG,001,101611,
AFNE01.JPG,AFNE01.JPG,AFNE01.JPG,AFNE01.JPG,AFNE01.JPG,AFNE01.JPG,,,,,,,,,,,,,5,0,50,0,,,,,,,,,,,AFSA14.jpg,AFNE19.jpg,AFNE04.jpg,AFSA15.jpg,AFNE19.jpg,FN,3,num_6,32,num_8,1.03342940554,,,2017_Sep_21_1810,60.0062743255,MAFE4ImagesEEG,001,101611,
AFNE01.JPG,AFNE01.JPG,AFNE01.JPG,AFNE01.JPG,AFNE01.JPG,AFNE01.JPG,,,,,,,,,,,,,5,1,51,9,,,,,,,,,,,AFNE19.jpg,AFSA12.jpg,AFNE09.jpg,AFSA09.jpg,AFNE09.jpg,FN,3,num_2,32,num_8,0.816823369343,,,2017_Sep_21_1810,60.0062743255,MAFE4ImagesEEG,001,101611,
AFNE01.JPG,AFNE01.JPG,AFNE01.JPG,AFNE01.JPG,AFNE01.JPG,AFNE01.JPG,,,,,,,,,,,,,5,2,52,1,,,,,,,,,,,AFSA07.jpg,AFNE04.jpg,AFSA15.jpg,AFNE05.jpg,AFSA15.jpg,FS,4,num_2,32,num_4,1.36673173403,,,2017_Sep_21_1810,60.0062743255,MAFE4ImagesEEG,001,101611,
AFNE01.JPG,AFNE01.JPG,AFNE01.JPG,AFNE01.JPG,AFNE01.JPG,AFNE01.JPG,,,,,,,,,,,,,5,3,53,4,,,,,,,,,,,AFSA05.jpg,AFNE19.jpg,AFSA12.jpg,AFNE11.jpg,AFSA12.jpg,FS,4,num_2,32,num_4,1.90004342815,,,2017_Sep_21_1810,60.0062743255,MAFE4ImagesEEG,001,101611,
AFNE01.JPG,AFNE01.JPG,AFNE01.JPG,AFNE01.JPG,AFNE01.JPG,AFNE01.JPG,,,,,,,,,,,,,5,4,54,6,,,,,,,,,,,AFNE13.jpg,AFSA08.jpg,AFSA17.jpg,AFNE18.jpg,AFNE18.jpg,FN,3,num_4,32,num_2,1.63337731743,,,2017_Sep_21_1810,60.0062743255,MAFE4ImagesEEG,001,101611,
AFNE01.JPG,AFNE01.JPG,AFNE01.JPG,AFNE01.JPG,AFNE01.JPG,AFNE01.JPG,,,,,,,,,,,,,5,5,55,7,,,,,,,,,,,AFNE18.jpg,AFNE16.jpg,AFSA03.jpg,AFSA09.jpg,AFNE16.jpg,FN,3,num_6,16,num_6,0.966725511695,,,2017_Sep_21_1810,60.0062743255,MAFE4ImagesEEG,001,101611,
AFNE01.JPG,AFNE01.JPG,AFNE01.JPG,AFNE01.JPG,AFNE01.JPG,AFNE01.JPG,,,,,,,,,,,,,5,6,56,3,,,,,,,,,,,AFSA17.jpg,AFNE07.jpg,AFNE01.jpg,AFSA06.jpg,AFSA17.jpg,FS,4,num_8,32,num_4,0.95009259753,,,2017_Sep_21_1810,60.0062743255,MAFE4ImagesEEG,001,101611,
AFNE01.JPG,AFNE01.JPG,AFNE01.JPG,AFNE01.JPG,AFNE01.JPG,AFNE01.JPG,,,,,,,,,,,,,5,7,57,2,,,,,,,,,,,AFSA18.jpg,AFSA11.jpg,AFNE15.jpg,AFNE20.jpg,AFNE20.jpg,FN,3,num_4,16,num_4,0.500176727524,,,2017_Sep_21_1810,60.0062743255,MAFE4ImagesEEG,001,101611,
AFNE01.JPG,AFNE01.JPG,AFNE01.JPG,AFNE01.JPG,AFNE01.JPG,AFNE01.JPG,,,,,,,,,,,,,5,8,58,8,,,,,,,,,,,AFNE13.jpg,AFSA18.jpg,AFNE10.jpg,AFSA11.jpg,AFNE10.jpg,FN,3,num_2,16,num_2,0.783487619774,,,2017_Sep_21_1810,60.0062743255,MAFE4ImagesEEG,001,101611,
AFNE01.JPG,AFNE01.JPG,AFNE01.JPG,AFNE01.JPG,AFNE01.JPG,AFNE01.JPG,,,,,,,,,,,,,5,9,59,5,,,,,,,,,,,AFNE12.jpg,AFSA18.jpg,AFSA02.jpg,AFNE04.jpg,AFNE12.jpg,FN,3,num_8,16,num_8,0.416834146206,,,2017_Sep_21_1810,60.0062743255,MAFE4ImagesEEG,001,101611,
,,,,,,,,,,,,,,,,,,,,,,,,,,,,,,,,,,,,,,,,,,,space,34.4977868968,2017_Sep_21_1810,60.0062743255,MAFE4ImagesEEG,001,101611,
AFNE01.JPG,AFNE01.JPG,AFNE01.JPG,AFNE01.JPG,AFNE01.JPG,AFNE01.JPG,,,,,,,,,,,,,,,,,0,0,0,3,,,,,,,AMSA02.jpg,AMNE18.jpg,AMSA09.jpg,AMNE11.jpg,AMNE11.jpg,MN,1,num_4,16,num_4,1.01687956293,,,2017_Sep_21_1810,60.0062743255,MAFE4ImagesEEG,001,101611,
AFNE01.JPG,AFNE01.JPG,AFNE01.JPG,AFNE01.JPG,AFNE01.JPG,AFNE01.JPG,,,,,,,,,,,,,,,,,0,1,1,0,,,,,,,AMNE14.jpg,AMNE03.jpg,AMSA09.jpg,AMSA02.jpg,AMSA09.jpg,MS,2,num_2,32,num_6,0.550162390471,,,2017_Sep_21_1810,60.0062743255,MAFE4ImagesEEG,001,101611,
AFNE01.JPG,AFNE01.JPG,AFNE01.JPG,AFNE01.JPG,AFNE01.JPG,AFNE01.JPG,,,,,,,,,,,,,,,,,0,2,2,6,,,,,,,AMSA04.jpg,AMNE12.jpg,AMNE07.jpg,AMSA10.jpg,AMNE07.jpg,MN,1,num_2,32,num_4,0.566827378585,,,2017_Sep_21_1810,60.0062743255,MAFE4ImagesEEG,001,101611,
AFNE01.JPG,AFNE01.JPG,AFNE01.JPG,AFNE01.JPG,AFNE01.JPG,AFNE01.JPG,,,,,,,,,,,,,,,,,0,3,3,5,,,,,,,AMNE12.jpg,AMNE03.jpg,AMSA10.jpg,AMSA07.jpg,AMSA10.jpg,MS,2,num_2,32,num_4,0.750164058307,,,2017_Sep_21_1810,60.0062743255,MAFE4ImagesEEG,001,101611,
AFNE01.JPG,AFNE01.JPG,AFNE01.JPG,AFNE01.JPG,AFNE01.JPG,AFNE01.JPG,,,,,,,,,,,,,,,,,0,4,4,1,,,,,,,AMSA04.jpg,AMNE11.jpg,AMSA03.jpg,AMNE01.jpg,AMNE11.jpg,MN,1,num_6,48,None,,,,2017_Sep_21_1810,60.0062743255,MAFE4ImagesEEG,001,101611,
AFNE01.JPG,AFNE01.JPG,AFNE01.JPG,AFNE01.JPG,AFNE01.JPG,AFNE01.JPG,,,,,,,,,,,,,,,,,0,5,5,7,,,,,,,AMNE16.jpg,AMSA19.jpg,AMNE01.jpg,AMSA20.jpg,AMNE01.jpg,MN,1,num_2,32,num_4,0.833118223978,,,2017_Sep_21_1810,60.0062743255,MAFE4ImagesEEG,001,101611,
AFNE01.JPG,AFNE01.JPG,AFNE01.JPG,AFNE01.JPG,AFNE01.JPG,AFNE01.JPG,,,,,,,,,,,,,,,,,0,6,6,8,,,,,,,AMNE17.jpg,AMNE02.jpg,AMSA07.jpg,AMSA12.jpg,AMSA07.jpg,MS,2,num_2,16,num_2,0.483478703216,,,2017_Sep_21_1810,60.0062743255,MAFE4ImagesEEG,001,101611,
AFNE01.JPG,AFNE01.JPG,AFNE01.JPG,AFNE01.JPG,AFNE01.JPG,AFNE01.JPG,,,,,,,,,,,,,,,,,0,7,7,4,,,,,,,AMSA15.jpg,AMNE07.jpg,AMNE19.jpg,AMSA12.jpg,AMSA15.jpg,MS,2,num_8,32,num_4,1.18342199645,,,2017_Sep_21_1810,60.0062743255,MAFE4ImagesEEG,001,101611,
AFNE01.JPG,AFNE01.JPG,AFNE01.JPG,AFNE01.JPG,AFNE01.JPG,AFNE01.JPG,,,,,,,,,,,,,,,,,0,8,8,9,,,,,,,AMSA11.jpg,AMNE14.jpg,AMSA18.jpg,AMNE06.jpg,AMSA11.jpg,MS,2,num_8,32,num_6,0.866795561218,,,2017_Sep_21_1810,60.0062743255,MAFE4ImagesEEG,001,101611,
AFNE01.JPG,AFNE01.JPG,AFNE01.JPG,AFNE01.JPG,AFNE01.JPG,AFNE01.JPG,,,,,,,,,,,,,,,,,0,9,9,2,,,,,,,AMSA18.jpg,AMNE15.jpg,AMSA09.jpg,AMNE09.jpg,AMNE09.jpg,MN,1,num_4,48,None,,,,2017_Sep_21_1810,60.0062743255,MAFE4ImagesEEG,001,101611,
AFNE01.JPG,AFNE01.JPG,AFNE01.JPG,AFNE01.JPG,AFNE01.JPG,AFNE01.JPG,,,,,,,,,,,,,,,,,1,0,10,3,,,,,,,AMNE04.jpg,AMNE08.jpg,AMSA04.jpg,AMSA16.jpg,AMSA16.jpg,MS,2,num_4,16,num_4,0.58343848247,,,2017_Sep_21_1810,60.0062743255,MAFE4ImagesEEG,001,101611,
AFNE01.JPG,AFNE01.JPG,AFNE01.JPG,AFNE01.JPG,AFNE01.JPG,AFNE01.JPG,,,,,,,,,,,,,,,,,1,1,11,5,,,,,,,AMNE18.jpg,AMSA12.jpg,AMSA10.jpg,AMNE15.jpg,AMSA10.jpg,MS,2,num_2,32,num_6,0.783447527327,,,2017_Sep_21_1810,60.0062743255,MAFE4ImagesEEG,001,101611,
AFNE01.JPG,AFNE01.JPG,AFNE01.JPG,AFNE01.JPG,AFNE01.JPG,AFNE01.JPG,,,,,,,,,,,,,,,,,1,2,12,6,,,,,,,AMNE04.jpg,AMSA06.jpg,AMNE16.jpg,AMSA08.jpg,AMSA08.jpg,MS,2,num_4,16,num_4,0.666807043701,,,2017_Sep_21_1810,60.0062743255,MAFE4ImagesEEG,001,101611,
AFNE01.JPG,AFNE01.JPG,AFNE01.JPG,AFNE01.JPG,AFNE01.JPG,AFNE01.JPG,,,,,,,,,,,,,,,,,1,3,13,7,,,,,,,AMNE18.jpg,AMNE10.jpg,AMSA17.jpg,AMSA04.jpg,AMNE10.jpg,MN,1,num_6,16,num_6,0.600127846803,,,2017_Sep_21_1810,60.0062743255,MAFE4ImagesEEG,001,101611,
AFNE01.JPG,AFNE01.JPG,AFNE01.JPG,AFNE01.JPG,AFNE01.JPG,AFNE01.JPG,,,,,,,,,,,,,,,,,1,4,14,4,,,,,,,AMNE15.jpg,AMNE18.jpg,AMSA03.jpg,AMSA11.jpg,AMNE15.jpg,MN,1,num_8,16,num_8,0.600159600013,,,2017_Sep_21_1810,60.0062743255,MAFE4ImagesEEG,001,101611,
AFNE01.JPG,AFNE01.JPG,AFNE01.JPG,AFNE01.JPG,AFNE01.JPG,AFNE01.JPG,,,,,,,,,,,,,,,,,1,5,15,2,,,,,,,AMSA16.jpg,AMSA18.jpg,AMNE09.jpg,AMNE13.jpg,AMSA16.jpg,MS,2,num_8,16,num_8,1.11660424004,,,2017_Sep_21_1810,60.0062743255,MAFE4ImagesEEG,001,101611,
AFNE01.JPG,AFNE01.JPG,AFNE01.JPG,AFNE01.JPG,AFNE01.JPG,AFNE01.JPG,,,,,,,,,,,,,,,,,1,6,16,0,,,,,,,AMSA02.jpg,AMNE17.jpg,AMNE19.jpg,AMSA19.jpg,AMNE17.jpg,MN,1,num_6,16,num_6,0.816773654704,,,2017_Sep_21_1810,60.0062743255,MAFE4ImagesEEG,001,101611,
AFNE01.JPG,AFNE01.JPG,AFNE01.JPG,AFNE01.JPG,AFNE01.JPG,AFNE01.JPG,,,,,,,,,,,,,,,,,1,7,17,9,,,,,,,AMSA10.jpg,AMSA20.jpg,AMNE13.jpg,AMNE02.jpg,AMNE02.jpg,MN,1,num_4,16,num_4,0.766808519096,,,2017_Sep_21_1810,60.0062743255,MAFE4ImagesEEG,001,101611,
AFNE01.JPG,AFNE01.JPG,AFNE01.JPG,AFNE01.JPG,AFNE01.JPG,AFNE01.JPG,,,,,,,,,,,,,,,,,1,8,18,1,,,,,,,AMNE19.jpg,AMSA05.jpg,AMNE06.jpg,AMSA17.jpg,AMSA05.jpg,MS,2,num_6,32,num_8,0.800138174629,,,2017_Sep_21_1810,60.0062743255,MAFE4ImagesEEG,001,101611,
AFNE01.JPG,AFNE01.JPG,AFNE01.JPG,AFNE01.JPG,AFNE01.JPG,AFNE01.JPG,,,,,,,,,,,,,,,,,1,9,19,8,,,,,,,AMSA09.jpg,AMSA08.jpg,AMNE04.jpg,AMNE14.jpg,AMNE04.jpg,MN,1,num_2,32,num_4,1.01674260711,,,2017_Sep_21_1810,60.0062743255,MAFE4ImagesEEG,001,101611,
AFNE01.JPG,AFNE01.JPG,AFNE01.JPG,AFNE01.JPG,AFNE01.JPG,AFNE01.JPG,,,,,,,,,,,,,,,,,2,0,20,9,,,,,,,AMSA05.jpg,AMNE14.jpg,AMNE01.jpg,AMSA03.jpg,AMNE14.jpg,MN,1,num_6,32,num_8,0.750159247211,,,2017_Sep_21_1810,60.0062743255,MAFE4ImagesEEG,001,101611,
AFNE01.JPG,AFNE01.JPG,AFNE01.JPG,AFNE01.JPG,AFNE01.JPG,AFNE01.JPG,,,,,,,,,,,,,,,,,2,1,21,7,,,,,,,AMSA03.jpg,AMNE19.jpg,AMSA12.jpg,AMNE12.jpg,AMNE19.jpg,MN,1,num_6,32,num_4,0.733452883665,,,2017_Sep_21_1810,60.0062743255,MAFE4ImagesEEG,001,101611,
AFNE01.JPG,AFNE01.JPG,AFNE01.JPG,AFNE01.JPG,AFNE01.JPG,AFNE01.JPG,,,,,,,,,,,,,,,,,2,2,22,5,,,,,,,AMNE05.jpg,AMSA05.jpg,AMNE20.jpg,AMSA08.jpg,AMSA05.jpg,MS,2,num_6,16,num_6,0.616789627544,,,2017_Sep_21_1810,60.0062743255,MAFE4ImagesEEG,001,101611,
AFNE01.JPG,AFNE01.JPG,AFNE01.JPG,AFNE01.JPG,AFNE01.JPG,AFNE01.JPG,,,,,,,,,,,,,,,,,2,3,23,4,,,,,,,AMSA06.jpg,AMNE03.jpg,AMSA09.jpg,AMNE07.jpg,AMNE07.jpg,MN,1,num_4,32,num_6,0.866761242083,,,2017_Sep_21_1810,60.0062743255,MAFE4ImagesEEG,001,101611,
AFNE01.JPG,AFNE01.JPG,AFNE01.JPG,AFNE01.JPG,AFNE01.JPG,AFNE01.JPG,,,,,,,,,,,,,,,,,2,4,24,3,,,,,,,AMNE02.jpg,AMSA14.jpg,AMSA05.jpg,AMNE05.jpg,AMNE05.jpg,MN,1,num_4,16,num_4,0.600140355658,,,2017_Sep_21_1810,60.0062743255,MAFE4ImagesEEG,001,101611,
AFNE01.JPG,AFNE01.JPG,AFNE01.JPG,AFNE01.JPG,AFNE01.JPG,AFNE01.JPG,,,,,,,,,,,,,,,,,2,5,25,1,,,,,,,AMNE15.jpg,AMSA10.jpg,AMNE14.jpg,AMSA18.jpg,AMSA10.jpg,MS,2,num_6,16,num_6,0.733544935938,,,2017_Sep_21_1810,60.0062743255,MAFE4ImagesEEG,001,101611,
AFNE01.JPG,AFNE01.JPG,AFNE01.JPG,AFNE01.JPG,AFNE01.JPG,AFNE01.JPG,,,,,,,,,,,,,,,,,2,6,26,2,,,,,,,AMSA20.jpg,AMSA03.jpg,AMNE01.jpg,AMNE20.jpg,AMSA03.jpg,MS,2,num_6,16,num_6,1.24973843685,,,2017_Sep_21_1810,60.0062743255,MAFE4ImagesEEG,001,101611,
AFNE01.JPG,AFNE01.JPG,AFNE01.JPG,AFNE01.JPG,AFNE01.JPG,AFNE01.JPG,,,,,,,,,,,,,,,,,2,7,27,8,,,,,,,AMNE19.jpg,AMSA01.jpg,AMSA14.jpg,AMNE15.jpg,AMNE19.jpg,MN,1,num_8,32,num_2,1.35008438659,,,2017_Sep_21_1810,60.0062743255,MAFE4ImagesEEG,001,101611,
AFNE01.JPG,AFNE01.JPG,AFNE01.JPG,AFNE01.JPG,AFNE01.JPG,AFNE01.JPG,,,,,,,,,,,,,,,,,2,8,28,6,,,,,,,AMNE15.jpg,AMSA12.jpg,AMSA17.jpg,AMNE18.jpg,AMNE18.jpg,MN,1,num_4,32,num_6,0.50017159569,,,2017_Sep_21_1810,60.0062743255,MAFE4ImagesEEG,001,101611,
AFNE01.JPG,AFNE01.JPG,AFNE01.JPG,AFNE01.JPG,AFNE01.JPG,AFNE01.JPG,,,,,,,,,,,,,,,,,2,9,29,0,,,,,,,AMSA20.jpg,AMNE18.jpg,AMSA05.jpg,AMNE05.jpg,AMSA20.jpg,MS,2,num_8,32,num_2,1.18343450531,,,2017_Sep_21_1810,60.0062743255,MAFE4ImagesEEG,001,101611,
AFNE01.JPG,AFNE01.JPG,AFNE01.JPG,AFNE01.JPG,AFNE01.JPG,AFNE01.JPG,,,,,,,,,,,,,,,,,3,0,30,4,,,,,,,AMSA11.jpg,AMNE17.jpg,AMNE07.jpg,AMSA05.jpg,AMSA11.jpg,MS,2,num_8,16,num_8,0.683495125078,,,2017_Sep_21_1810,60.0062743255,MAFE4ImagesEEG,001,101611,
AFNE01.JPG,AFNE01.JPG,AFNE01.JPG,AFNE01.JPG,AFNE01.JPG,AFNE01.JPG,,,,,,,,,,,,,,,,,3,1,31,5,,,,,,,AMNE19.jpg,AMSA10.jpg,AMNE16.jpg,AMSA12.jpg,AMSA10.jpg,MS,2,num_6,16,num_6,0.550173616357,,,2017_Sep_21_1810,60.0062743255,MAFE4ImagesEEG,001,101611,
AFNE01.JPG,AFNE01.JPG,AFNE01.JPG,AFNE01.JPG,AFNE01.JPG,AFNE01.JPG,,,,,,,,,,,,,,,,,3,2,32,6,,,,,,,AMSA18.jpg,AMNE12.jpg,AMNE02.jpg,AMSA09.jpg,AMSA09.jpg,MS,2,num_4,16,num_4,0.483503400159,,,2017_Sep_21_1810,60.0062743255,MAFE4ImagesEEG,001,101611,
AFNE01.JPG,AFNE01.JPG,AFNE01.JPG,AFNE01.JPG,AFNE01.JPG,AFNE01.JPG,,,,,,,,,,,,,,,,,3,3,33,8,,,,,,,AMNE03.jpg,AMNE20.jpg,AMSA14.jpg,AMSA16.jpg,AMNE03.jpg,MN,1,num_8,16,num_8,0.883477869284,,,2017_Sep_21_1810,60.0062743255,MAFE4ImagesEEG,001,101611,
AFNE01.JPG,AFNE01.JPG,AFNE01.JPG,AFNE01.JPG,AFNE01.JPG,AFNE01.JPG,,,,,,,,,,,,,,,,,3,4,34,1,,,,,,,AMSA06.jpg,AMSA12.jpg,AMNE01.jpg,AMNE10.jpg,AMNE01.jpg,MN,1,num_2,16,num_2,0.649991307961,,,2017_Sep_21_1810,60.0062743255,MAFE4ImagesEEG,001,101611,
AFNE01.JPG,AFNE01.JPG,AFNE01.JPG,AFNE01.JPG,AFNE01.JPG,AFNE01.JPG,,,,,,,,,,,,,,,,,3,5,35,9,,,,,,,AMNE05.jpg,AMSA02.jpg,AMNE13.jpg,AMSA13.jpg,AMNE13.jpg,MN,1,num_2,32,num_6,0.450171178716,,,2017_Sep_21_1810,60.0062743255,MAFE4ImagesEEG,001,101611,
AFNE01.JPG,AFNE01.JPG,AFNE01.JPG,AFNE01.JPG,AFNE01.JPG,AFNE01.JPG,,,,,,,,,,,,,,,,,3,6,36,0,,,,,,,AMSA16.jpg,AMSA05.jpg,AMNE02.jpg,AMNE20.jpg,AMNE02.jpg,MN,1,num_2,32,num_8,0.816797068692,,,2017_Sep_21_1810,60.0062743255,MAFE4ImagesEEG,001,101611,
AFNE01.JPG,AFNE01.JPG,AFNE01.JPG,AFNE01.JPG,AFNE01.JPG,AFNE01.JPG,,,,,,,,,,,,,,,,,3,7,37,3,,,,,,,AMSA10.jpg,AMNE02.jpg,AMNE16.jpg,AMSA15.jpg,AMNE02.jpg,MN,1,num_6,32,num_8,0.883766534927,,,2017_Sep_21_1810,60.0062743255,MAFE4ImagesEEG,001,101611,
AFNE01.JPG,AFNE01.JPG,AFNE01.JPG,AFNE01.JPG,AFNE01.JPG,AFNE01.JPG,,,,,,,,,,,,,,,,,3,8,38,7,,,,,,,AMSA10.jpg,AMSA07.jpg,AMNE04.jpg,AMNE07.jpg,AMNE04.jpg,MN,1,num_2,32,num_8,0.533463083193,,,2017_Sep_21_1810,60.0062743255,MAFE4ImagesEEG,001,101611,
AFNE01.JPG,AFNE01.JPG,AFNE01.JPG,AFNE01.JPG,AFNE01.JPG,AFNE01.JPG,,,,,,,,,,,,,,,,,3,9,39,2,,,,,,,AMNE14.jpg,AMSA20.jpg,AMNE12.jpg,AMSA16.jpg,AMNE14.jpg,MN,1,num_8,32,num_2,1.38339511846,,,2017_Sep_21_1810,60.0062743255,MAFE4ImagesEEG,001,101611,
AFNE01.JPG,AFNE01.JPG,AFNE01.JPG,AFNE01.JPG,AFNE01.JPG,AFNE01.JPG,,,,,,,,,,,,,,,,,4,0,40,2,,,,,,,AMNE19.jpg,AMSA18.jpg,AMSA05.jpg,AMNE08.jpg,AMNE08.jpg,MN,1,num_4,32,num_6,0.400153121082,,,2017_Sep_21_1810,60.0062743255,MAFE4ImagesEEG,001,101611,
AFNE01.JPG,AFNE01.JPG,AFNE01.JPG,AFNE01.JPG,AFNE01.JPG,AFNE01.JPG,,,,,,,,,,,,,,,,,4,1,41,5,,,,,,,AMSA11.jpg,AMSA04.jpg,AMNE11.jpg,AMNE10.jpg,AMSA11.jpg,MS,2,num_8,32,num_4,0.816739977046,,,2017_Sep_21_1810,60.0062743255,MAFE4ImagesEEG,001,101611,
AFNE01.JPG,AFNE01.JPG,AFNE01.JPG,AFNE01.JPG,AFNE01.JPG,AFNE01.JPG,,,,,,,,,,,,,,,,,4,2,42,3,,,,,,,AMNE17.jpg,AMSA05.jpg,AMNE07.jpg,AMSA06.jpg,AMNE17.jpg,MN,1,num_8,16,num_8,0.983445987775,,,2017_Sep_21_1810,60.0062743255,MAFE4ImagesEEG,001,101611,
AFNE01.JPG,AFNE01.JPG,AFNE01.JPG,AFNE01.JPG,AFNE01.JPG,AFNE01.JPG,,,,,,,,,,,,,,,,,4,3,43,6,,,,,,,AMNE09.jpg,AMSA14.jpg,AMNE16.jpg,AMSA02.jpg,AMNE16.jpg,MN,1,num_2,16,num_2,0.683482616238,,,2017_Sep_21_1810,60.0062743255,MAFE4ImagesEEG,001,101611,
AFNE01.JPG,AFNE01.JPG,AFNE01.JPG,AFNE01.JPG,AFNE01.JPG,AFNE01.JPG,,,,,,,,,,,,,,,,,4,4,44,0,,,,,,,AMNE10.jpg,AMSA09.jpg,AMSA04.jpg,AMNE02.jpg,AMSA09.jpg,MS,2,num_6,16,num_6,0.516825357932,,,2017_Sep_21_1810,60.0062743255,MAFE4ImagesEEG,001,101611,
AFNE01.JPG,AFNE01.JPG,AFNE01.JPG,AFNE01.JPG,AFNE01.JPG,AFNE01.JPG,,,,,,,,,,,,,,,,,4,5,45,1,,,,,,,AMSA14.jpg,AMNE03.jpg,AMSA11.jpg,AMNE04.jpg,AMNE03.jpg,MN,1,num_6,16,num_6,0.633443710511,,,2017_Sep_21_1810,60.0062743255,MAFE4ImagesEEG,001,101611,
AFNE01.JPG,AFNE01.JPG,AFNE01.JPG,AFNE01.JPG,AFNE01.JPG,AFNE01.JPG,,,,,,,,,,,,,,,,,4,6,46,9,,,,,,,AMNE15.jpg,AMSA20.jpg,AMSA13.jpg,AMNE06.jpg,AMSA13.jpg,MS,2,num_2,16,num_2,0.783469016882,,,2017_Sep_21_1810,60.0062743255,MAFE4ImagesEEG,001,101611,
AFNE01.JPG,AFNE01.JPG,AFNE01.JPG,AFNE01.JPG,AFNE01.JPG,AFNE01.JPG,,,,,,,,,,,,,,,,,4,7,47,4,,,,,,,AMSA05.jpg,AMNE12.jpg,AMSA01.jpg,AMNE15.jpg,AMSA05.jpg,MS,2,num_8,16,num_8,0.383505132151,,,2017_Sep_21_1810,60.0062743255,MAFE4ImagesEEG,001,101611,
AFNE01.JPG,AFNE01.JPG,AFNE01.JPG,AFNE01.JPG,AFNE01.JPG,AFNE01.JPG,,,,,,,,,,,,,,,,,4,8,48,7,,,,,,,AMNE10.jpg,AMSA14.jpg,AMSA04.jpg,AMNE07.jpg,AMNE10.jpg,MN,1,num_8,16,num_8,0.88350673586,,,2017_Sep_21_1810,60.0062743255,MAFE4ImagesEEG,001,101611,
AFNE01.JPG,AFNE01.JPG,AFNE01.JPG,AFNE01.JPG,AFNE01.JPG,AFNE01.JPG,,,,,,,,,,,,,,,,,4,9,49,8,,,,,,,AMSA18.jpg,AMNE11.jpg,AMSA09.jpg,AMNE08.jpg,AMSA18.jpg,MS,2,num_8,32,num_6,0.716782763717,,,2017_Sep_21_1810,60.0062743255,MAFE4ImagesEEG,001,101611,
AFNE01.JPG,AFNE01.JPG,AFNE01.JPG,AFNE01.JPG,AFNE01.JPG,AFNE01.JPG,,,,,,,,,,,,,,,,,5,0,50,6,,,,,,,AMSA15.jpg,AMSA13.jpg,AMNE15.jpg,AMNE03.jpg,AMNE03.jpg,MN,1,num_4,32,num_8,1.60009769729,,,2017_Sep_21_1810,60.0062743255,MAFE4ImagesEEG,001,101611,
AFNE01.JPG,AFNE01.JPG,AFNE01.JPG,AFNE01.JPG,AFNE01.JPG,AFNE01.JPG,,,,,,,,,,,,,,,,,5,1,51,9,,,,,,,AMNE12.jpg,AMNE09.jpg,AMSA14.jpg,AMSA13.jpg,AMNE12.jpg,MN,1,num_8,32,num_6,0.800094874765,,,2017_Sep_21_1810,60.0062743255,MAFE4ImagesEEG,001,101611,
AFNE01.JPG,AFNE01.JPG,AFNE01.JPG,AFNE01.JPG,AFNE01.JPG,AFNE01.JPG,,,,,,,,,,,,,,,,,5,2,52,8,,,,,,,AMNE06.jpg,AMSA13.jpg,AMSA03.jpg,AMNE16.jpg,AMNE16.jpg,MN,1,num_4,16,num_4,0.383494868496,,,2017_Sep_21_1810,60.0062743255,MAFE4ImagesEEG,001,101611,
AFNE01.JPG,AFNE01.JPG,AFNE01.JPG,AFNE01.JPG,AFNE01.JPG,AFNE01.JPG,,,,,,,,,,,,,,,,,5,3,53,1,,,,,,,AMNE12.jpg,AMSA20.jpg,AMSA09.jpg,AMNE18.jpg,AMSA20.jpg,MS,2,num_6,32,num_8,1.1501026046,,,2017_Sep_21_1810,60.0062743255,MAFE4ImagesEEG,001,101611,
AFNE01.JPG,AFNE01.JPG,AFNE01.JPG,AFNE01.JPG,AFNE01.JPG,AFNE01.JPG,,,,,,,,,,,,,,,,,5,4,54,5,,,,,,,AMSA18.jpg,AMSA05.jpg,AMNE05.jpg,AMNE14.jpg,AMNE14.jpg,MN,1,num_4,16,num_4,0.817122298642,,,2017_Sep_21_1810,60.0062743255,MAFE4ImagesEEG,001,101611,
AFNE01.JPG,AFNE01.JPG,AFNE01.JPG,AFNE01.JPG,AFNE01.JPG,AFNE01.JPG,,,,,,,,,,,,,,,,,5,5,55,4,,,,,,,AMNE02.jpg,AMNE12.jpg,AMSA16.jpg,AMSA01.jpg,AMNE02.jpg,MN,1,num_8,32,num_4,1.0167788507,,,2017_Sep_21_1810,60.0062743255,MAFE4ImagesEEG,001,101611,
AFNE01.JPG,AFNE01.JPG,AFNE01.JPG,AFNE01.JPG,AFNE01.JPG,AFNE01.JPG,,,,,,,,,,,,,,,,,5,6,56,0,,,,,,,AMNE18.jpg,AMSA18.jpg,AMNE10.jpg,AMSA06.jpg,AMNE18.jpg,MN,1,num_8,32,num_6,0.850142440453,,,2017_Sep_21_1810,60.0062743255,MAFE4ImagesEEG,001,101611,
AFNE01.JPG,AFNE01.JPG,AFNE01.JPG,AFNE01.JPG,AFNE01.JPG,AFNE01.JPG,,,,,,,,,,,,,,,,,5,7,57,2,,,,,,,AMNE20.jpg,AMSA03.jpg,AMNE13.jpg,AMSA15.jpg,AMNE13.jpg,MN,1,num_2,32,num_4,1.483345917,,,2017_Sep_21_1810,60.0062743255,MAFE4ImagesEEG,001,101611,
AFNE01.JPG,AFNE01.JPG,AFNE01.JPG,AFNE01.JPG,AFNE01.JPG,AFNE01.JPG,,,,,,,,,,,,,,,,,5,8,58,7,,,,,,,AMNE06.jpg,AMNE02.jpg,AMSA01.jpg,AMSA20.jpg,AMSA01.jpg,MS,2,num_2,32,num_4,0.83333760986,,,2017_Sep_21_1810,60.0062743255,MAFE4ImagesEEG,001,101611,
AFNE01.JPG,AFNE01.JPG,AFNE01.JPG,AFNE01.JPG,AFNE01.JPG,AFNE01.JPG,,,,,,,,,,,,,,,,,5,9,59,3,,,,,,,AMNE09.jpg,AMSA01.jpg,AMNE14.jpg,AMSA08.jpg,AMSA08.jpg,MS,2,num_4,16,num_4,0.666629033221,,,2017_Sep_21_1810,60.0062743255,MAFE4ImagesEEG,001,101611,
,,,,,,,,,,,,,,,,,,,,,,,,,,,,,,,,,,,,,,,,,,,space,37.0142363479,2017_Sep_21_1810,60.0062743255,MAFE4ImagesEEG,001,101611,
AFNE01.JPG,AFNE01.JPG,AFNE01.JPG,AFNE01.JPG,AFNE01.JPG,AFNE01.JPG,,,,,,,,,,,,,,,,,,,,,0,0,0,3,,,AFNE20.jpg,AFNE10.jpg,AFSA03.jpg,AFSA11.jpg,AFNE10.jpg,FN,3,num_6,16,num_6,1.53342555666,,,2017_Sep_21_1810,60.0062743255,MAFE4ImagesEEG,001,101611,
AFNE01.JPG,AFNE01.JPG,AFNE01.JPG,AFNE01.JPG,AFNE01.JPG,AFNE01.JPG,,,,,,,,,,,,,,,,,,,,,0,1,1,1,,,AFSA07.jpg,AFSA20.jpg,AFNE20.jpg,AFNE02.jpg,AFNE20.jpg,FN,3,num_2,32,num_4,0.866828918137,,,2017_Sep_21_1810,60.0062743255,MAFE4ImagesEEG,001,101611,
AFNE01.JPG,AFNE01.JPG,AFNE01.JPG,AFNE01.JPG,AFNE01.JPG,AFNE01.JPG,,,,,,,,,,,,,,,,,,,,,0,2,2,9,,,AFNE07.jpg,AFSA13.jpg,AFNE02.jpg,AFSA01.jpg,AFNE07.jpg,FN,3,num_8,32,num_6,0.767110655812,,,2017_Sep_21_1810,60.0062743255,MAFE4ImagesEEG,001,101611,
AFNE01.JPG,AFNE01.JPG,AFNE01.JPG,AFNE01.JPG,AFNE01.JPG,AFNE01.JPG,,,,,,,,,,,,,,,,,,,,,0,3,3,5,,,AFNE09.jpg,AFNE05.jpg,AFSA18.jpg,AFSA20.jpg,AFSA18.jpg,FS,4,num_2,32,num_4,2.78315918242,,,2017_Sep_21_1810,60.0062743255,MAFE4ImagesEEG,001,101611,
AFNE01.JPG,AFNE01.JPG,AFNE01.JPG,AFNE01.JPG,AFNE01.JPG,AFNE01.JPG,,,,,,,,,,,,,,,,,,,,,0,4,4,4,,,AFSA15.jpg,AFNE11.jpg,AFSA01.jpg,AFNE13.jpg,AFNE11.jpg,FN,3,num_6,16,num_6,0.66685419243,,,2017_Sep_21_1810,60.0062743255,MAFE4ImagesEEG,001,101611,
AFNE01.JPG,AFNE01.JPG,AFNE01.JPG,AFNE01.JPG,AFNE01.JPG,AFNE01.JPG,,,,,,,,,,,,,,,,,,,,,0,5,5,0,,,AFNE04.jpg,AFNE03.jpg,AFSA16.jpg,AFSA18.jpg,AFSA18.jpg,FS,4,num_4,16,num_4,1.38341821173,,,2017_Sep_21_1810,60.0062743255,MAFE4ImagesEEG,001,101611,
AFNE01.JPG,AFNE01.JPG,AFNE01.JPG,AFNE01.JPG,AFNE01.JPG,AFNE01.JPG,,,,,,,,,,,,,,,,,,,,,0,6,6,8,,,AFNE20.jpg,AFNE05.jpg,AFSA01.jpg,AFSA20.jpg,AFNE20.jpg,FN,3,num_8,32,num_2,1.0001077685,,,2017_Sep_21_1810,60.0062743255,MAFE4ImagesEEG,001,101611,
AFNE01.JPG,AFNE01.JPG,AFNE01.JPG,AFNE01.JPG,AFNE01.JPG,AFNE01.JPG,,,,,,,,,,,,,,,,,,,,,0,7,7,2,,,AFNE06.jpg,AFNE07.jpg,AFSA02.jpg,AFSA08.jpg,AFSA08.jpg,FS,4,num_4,32,num_8,0.700146642135,,,2017_Sep_21_1810,60.0062743255,MAFE4ImagesEEG,001,101611,
AFNE01.JPG,AFNE01.JPG,AFNE01.JPG,AFNE01.JPG,AFNE01.JPG,AFNE01.JPG,,,,,,,,,,,,,,,,,,,,,0,8,8,6,,,AFNE02.jpg,AFSA02.jpg,AFNE08.jpg,AFSA01.jpg,AFSA01.jpg,FS,4,num_4,16,num_4,1.1167488936,,,2017_Sep_21_1810,60.0062743255,MAFE4ImagesEEG,001,101611,
AFNE01.JPG,AFNE01.JPG,AFNE01.JPG,AFNE01.JPG,AFNE01.JPG,AFNE01.JPG,,,,,,,,,,,,,,,,,,,,,0,9,9,7,,,AFSA20.jpg,AFNE17.jpg,AFSA16.jpg,AFNE06.jpg,AFSA20.jpg,FS,4,num_8,32,num_2,1.26682423534,,,2017_Sep_21_1810,60.0062743255,MAFE4ImagesEEG,001,101611,
AFNE01.JPG,AFNE01.JPG,AFNE01.JPG,AFNE01.JPG,AFNE01.JPG,AFNE01.JPG,,,,,,,,,,,,,,,,,,,,,1,0,10,9,,,AFNE20.jpg,AFSA03.jpg,AFNE06.jpg,AFSA11.jpg,AFSA03.jpg,FS,4,num_6,16,num_6,0.733469241386,,,2017_Sep_21_1810,60.0062743255,MAFE4ImagesEEG,001,101611,
AFNE01.JPG,AFNE01.JPG,AFNE01.JPG,AFNE01.JPG,AFNE01.JPG,AFNE01.JPG,,,,,,,,,,,,,,,,,,,,,1,1,11,1,,,AFSA03.jpg,AFNE12.jpg,AFSA01.jpg,AFNE11.jpg,AFSA01.jpg,FS,4,num_2,16,num_2,0.866780486453,,,2017_Sep_21_1810,60.0062743255,MAFE4ImagesEEG,001,101611,
AFNE01.JPG,AFNE01.JPG,AFNE01.JPG,AFNE01.JPG,AFNE01.JPG,AFNE01.JPG,,,,,,,,,,,,,,,,,,,,,1,2,12,2,,,AFSA11.jpg,AFSA06.jpg,AFNE14.jpg,AFNE13.jpg,AFSA06.jpg,FS,4,num_6,16,num_6,0.750112739974,,,2017_Sep_21_1810,60.0062743255,MAFE4ImagesEEG,001,101611,
AFNE01.JPG,AFNE01.JPG,AFNE01.JPG,AFNE01.JPG,AFNE01.JPG,AFNE01.JPG,,,,,,,,,,,,,,,,,,,,,1,3,13,0,,,AFSA02.jpg,AFNE05.jpg,AFSA10.jpg,AFNE07.jpg,AFSA10.jpg,FS,4,num_2,16,num_2,0.866751299152,,,2017_Sep_21_1810,60.0062743255,MAFE4ImagesEEG,001,101611,
AFNE01.JPG,AFNE01.JPG,AFNE01.JPG,AFNE01.JPG,AFNE01.JPG,AFNE01.JPG,,,,,,,,,,,,,,,,,,,,,1,4,14,8,,,AFNE13.jpg,AFSA14.jpg,AFSA17.jpg,AFNE20.jpg,AFNE13.jpg,FN,3,num_8,32,num_4,0.716775707435,,,2017_Sep_21_1810,60.0062743255,MAFE4ImagesEEG,001,101611,
AFNE01.JPG,AFNE01.JPG,AFNE01.JPG,AFNE01.JPG,AFNE01.JPG,AFNE01.JPG,,,,,,,,,,,,,,,,,,,,,1,5,15,3,,,AFSA15.jpg,AFNE02.jpg,AFNE03.jpg,AFSA14.jpg,AFNE03.jpg,FN,3,num_2,32,num_4,1.33343254878,,,2017_Sep_21_1810,60.0062743255,MAFE4ImagesEEG,001,101611,
AFNE01.JPG,AFNE01.JPG,AFNE01.JPG,AFNE01.JPG,AFNE01.JPG,AFNE01.JPG,,,,,,,,,,,,,,,,,,,,,1,6,16,4,,,AFNE08.jpg,AFSA12.jpg,AFSA09.jpg,AFNE17.jpg,AFNE08.jpg,FN,3,num_8,32,num_2,1.00009622189,,,2017_Sep_21_1810,60.0062743255,MAFE4ImagesEEG,001,101611,
AFNE01.JPG,AFNE01.JPG,AFNE01.JPG,AFNE01.JPG,AFNE01.JPG,AFNE01.JPG,,,,,,,,,,,,,,,,,,,,,1,7,17,5,,,AFNE10.jpg,AFNE09.jpg,AFSA07.jpg,AFSA15.jpg,AFNE10.jpg,FN,3,num_8,16,num_8,1.06676419289,,,2017_Sep_21_1810,60.0062743255,MAFE4ImagesEEG,001,101611,
AFNE01.JPG,AFNE01.JPG,AFNE01.JPG,AFNE01.JPG,AFNE01.JPG,AFNE01.JPG,,,,,,,,,,,,,,,,,,,,,1,8,18,7,,,AFNE11.jpg,AFNE19.jpg,AFSA06.jpg,AFSA16.jpg,AFSA16.jpg,FS,4,num_4,16,num_4,1.00008820339,,,2017_Sep_21_1810,60.0062743255,MAFE4ImagesEEG,001,101611,
AFNE01.JPG,AFNE01.JPG,AFNE01.JPG,AFNE01.JPG,AFNE01.JPG,AFNE01.JPG,,,,,,,,,,,,,,,,,,,,,1,9,19,6,,,AFNE13.jpg,AFSA04.jpg,AFNE10.jpg,AFSA17.jpg,AFSA17.jpg,FS,4,num_4,32,num_2,1.45026323099,,,2017_Sep_21_1810,60.0062743255,MAFE4ImagesEEG,001,101611,
AFNE01.JPG,AFNE01.JPG,AFNE01.JPG,AFNE01.JPG,AFNE01.JPG,AFNE01.JPG,,,,,,,,,,,,,,,,,,,,,2,0,20,0,,,AFSA04.jpg,AFSA06.jpg,AFNE06.jpg,AFNE09.jpg,AFSA04.jpg,FS,4,num_8,16,num_8,0.833473924198,,,2017_Sep_21_1810,60.0062743255,MAFE4ImagesEEG,001,101611,
AFNE01.JPG,AFNE01.JPG,AFNE01.JPG,AFNE01.JPG,AFNE01.JPG,AFNE01.JPG,,,,,,,,,,,,,,,,,,,,,2,1,21,8,,,AFSA04.jpg,AFSA05.jpg,AFNE15.jpg,AFNE06.jpg,AFNE15.jpg,FN,3,num_2,32,num_4,0.750150266511,,,2017_Sep_21_1810,60.0062743255,MAFE4ImagesEEG,001,101611,
AFNE01.JPG,AFNE01.JPG,AFNE01.JPG,AFNE01.JPG,AFNE01.JPG,AFNE01.JPG,,,,,,,,,,,,,,,,,,,,,2,2,22,4,,,AFNE17.jpg,AFSA06.jpg,AFNE12.jpg,AFSA11.jpg,AFSA06.jpg,FS,4,num_6,32,num_4,0.616765251325,,,2017_Sep_21_1810,60.0062743255,MAFE4ImagesEEG,001,101611,
AFNE01.JPG,AFNE01.JPG,AFNE01.JPG,AFNE01.JPG,AFNE01.JPG,AFNE01.JPG,,,,,,,,,,,,,,,,,,,,,2,3,23,2,,,AFSA02.jpg,AFNE16.jpg,AFNE10.jpg,AFSA17.jpg,AFNE16.jpg,FN,3,num_6,32,num_4,0.633427673543,,,2017_Sep_21_1810,60.0062743255,MAFE4ImagesEEG,001,101611,
AFNE01.JPG,AFNE01.JPG,AFNE01.JPG,AFNE01.JPG,AFNE01.JPG,AFNE01.JPG,,,,,,,,,,,,,,,,,,,,,2,4,24,7,,,AFSA17.jpg,AFNE14.jpg,AFSA08.jpg,AFNE17.jpg,AFSA08.jpg,FS,4,num_2,32,num_4,0.900181987643,,,2017_Sep_21_1810,60.0062743255,MAFE4ImagesEEG,001,101611,
AFNE01.JPG,AFNE01.JPG,AFNE01.JPG,AFNE01.JPG,AFNE01.JPG,AFNE01.JPG,,,,,,,,,,,,,,,,,,,,,2,5,25,6,,,AFNE03.jpg,AFSA09.jpg,AFSA20.jpg,AFNE08.jpg,AFNE03.jpg,FN,3,num_8,32,num_4,0.700149849537,,,2017_Sep_21_1810,60.0062743255,MAFE4ImagesEEG,001,101611,
AFNE01.JPG,AFNE01.JPG,AFNE01.JPG,AFNE01.JPG,AFNE01.JPG,AFNE01.JPG,,,,,,,,,,,,,,,,,,,,,2,6,26,5,,,AFNE15.jpg,AFSA03.jpg,AFNE19.jpg,AFSA12.jpg,AFNE19.jpg,FN,3,num_2,16,num_2,1.75012139995,,,2017_Sep_21_1810,60.0062743255,MAFE4ImagesEEG,001,101611,
AFNE01.JPG,AFNE01.JPG,AFNE01.JPG,AFNE01.JPG,AFNE01.JPG,AFNE01.JPG,,,,,,,,,,,,,,,,,,,,,2,7,27,9,,,AFSA17.jpg,AFNE08.jpg,AFNE03.jpg,AFSA02.jpg,AFNE08.jpg,FN,3,num_6,16,num_6,1.70002508184,,,2017_Sep_21_1810,60.0062743255,MAFE4ImagesEEG,001,101611,
AFNE01.JPG,AFNE01.JPG,AFNE01.JPG,AFNE01.JPG,AFNE01.JPG,AFNE01.JPG,,,,,,,,,,,,,,,,,,,,,2,8,28,1,,,AFNE10.jpg,AFSA13.jpg,AFNE18.jpg,AFSA03.jpg,AFNE10.jpg,FN,3,num_8,16,num_8,0.666766309761,,,2017_Sep_21_1810,60.0062743255,MAFE4ImagesEEG,001,101611,
AFNE01.JPG,AFNE01.JPG,AFNE01.JPG,AFNE01.JPG,AFNE01.JPG,AFNE01.JPG,,,,,,,,,,,,,,,,,,,,,2,9,29,3,,,AFNE19.jpg,AFSA03.jpg,AFSA14.jpg,AFNE18.jpg,AFNE19.jpg,FN,3,num_8,32,num_6,0.783474469456,,,2017_Sep_21_1810,60.0062743255,MAFE4ImagesEEG,001,101611,
AFNE01.JPG,AFNE01.JPG,AFNE01.JPG,AFNE01.JPG,AFNE01.JPG,AFNE01.JPG,,,,,,,,,,,,,,,,,,,,,3,0,30,9,,,AFSA01.jpg,AFNE13.jpg,AFSA02.jpg,AFNE17.jpg,AFSA02.jpg,FS,4,num_2,32,num_8,1.08344072764,,,2017_Sep_21_1810,60.0062743255,MAFE4ImagesEEG,001,101611,
AFNE01.JPG,AFNE01.JPG,AFNE01.JPG,AFNE01.JPG,AFNE01.JPG,AFNE01.JPG,,,,,,,,,,,,,,,,,,,,,3,1,31,3,,,AFSA20.jpg,AFSA18.jpg,AFNE02.jpg,AFNE10.jpg,AFNE10.jpg,FN,3,num_4,16,num_4,0.60017820292,,,2017_Sep_21_1810,60.0062743255,MAFE4ImagesEEG,001,101611,
AFNE01.JPG,AFNE01.JPG,AFNE01.JPG,AFNE01.JPG,AFNE01.JPG,AFNE01.JPG,,,,,,,,,,,,,,,,,,,,,3,2,32,0,,,AFSA15.jpg,AFNE16.jpg,AFNE03.jpg,AFSA05.jpg,AFNE16.jpg,FN,3,num_6,16,num_6,0.600137468995,,,2017_Sep_21_1810,60.0062743255,MAFE4ImagesEEG,001,101611,
AFNE01.JPG,AFNE01.JPG,AFNE01.JPG,AFNE01.JPG,AFNE01.JPG,AFNE01.JPG,,,,,,,,,,,,,,,,,,,,,3,3,33,1,,,AFNE15.jpg,AFSA13.jpg,AFNE13.jpg,AFSA17.jpg,AFNE13.jpg,FN,3,num_2,32,num_4,0.716673070769,,,2017_Sep_21_1810,60.0062743255,MAFE4ImagesEEG,001,101611,
AFNE01.JPG,AFNE01.JPG,AFNE01.JPG,AFNE01.JPG,AFNE01.JPG,AFNE01.JPG,,,,,,,,,,,,,,,,,,,,,3,4,34,7,,,AFNE12.jpg,AFSA12.jpg,AFNE03.jpg,AFSA02.jpg,AFNE03.jpg,FN,3,num_2,16,num_2,1.30008268666,,,2017_Sep_21_1810,60.0062743255,MAFE4ImagesEEG,001,101611,
AFNE01.JPG,AFNE01.JPG,AFNE01.JPG,AFNE01.JPG,AFNE01.JPG,AFNE01.JPG,,,,,,,,,,,,,,,,,,,,,3,5,35,2,,,AFSA07.jpg,AFNE10.jpg,AFNE07.jpg,AFSA18.jpg,AFNE10.jpg,FN,3,num_6,32,num_2,0.616817852613,,,2017_Sep_21_1810,60.0062743255,MAFE4ImagesEEG,001,101611,
AFNE01.JPG,AFNE01.JPG,AFNE01.JPG,AFNE01.JPG,AFNE01.JPG,AFNE01.JPG,,,,,,,,,,,,,,,,,,,,,3,6,36,8,,,AFNE19.jpg,AFNE04.jpg,AFSA01.jpg,AFSA03.jpg,AFNE19.jpg,FN,3,num_8,32,num_4,0.850106196885,,,2017_Sep_21_1810,60.0062743255,MAFE4ImagesEEG,001,101611,
AFNE01.JPG,AFNE01.JPG,AFNE01.JPG,AFNE01.JPG,AFNE01.JPG,AFNE01.JPG,,,,,,,,,,,,,,,,,,,,,3,7,37,4,,,AFSA05.jpg,AFNE11.jpg,AFSA15.jpg,AFNE09.jpg,AFNE09.jpg,FN,3,num_4,32,num_2,0.683465937764,,,2017_Sep_21_1810,60.0062743255,MAFE4ImagesEEG,001,101611,
AFNE01.JPG,AFNE01.JPG,AFNE01.JPG,AFNE01.JPG,AFNE01.JPG,AFNE01.JPG,,,,,,,,,,,,,,,,,,,,,3,8,38,6,,,AFSA13.jpg,AFNE18.jpg,AFSA11.jpg,AFNE05.jpg,AFSA11.jpg,FS,4,num_2,32,num_4,1.41673599988,,,2017_Sep_21_1810,60.0062743255,MAFE4ImagesEEG,001,101611,
