IPosition2,IPosition3,IPosition1,IPosition6,IPosition4,IPosition5,TrialsF1.thisRepN,TrialsF1.thisTrialN,TrialsF1.thisN,TrialsF1.thisIndex,TrialsM1.thisRepN,TrialsM1.thisTrialN,TrialsM1.thisN,TrialsM1.thisIndex,TrialsF2.thisRepN,TrialsF2.thisTrialN,TrialsF2.thisN,TrialsF2.thisIndex,TrialsM2.thisRepN,TrialsM2.thisTrialN,TrialsM2.thisN,TrialsM2.thisIndex,TrialsF3.thisRepN,TrialsF3.thisTrialN,TrialsF3.thisN,TrialsF3.thisIndex,TrialsM3.thisRepN,TrialsM3.thisTrialN,TrialsM3.thisN,TrialsM3.thisIndex,InstrKey_resp.keys,InstrKey_resp.rt,Image0 _Position,Image1 _Position,Image2 _Position,Image3 _Position,Center_image,condition,code,correct_answer,accuracy,Key_Resp.keys,Key_Resp.rt,BreakKey_resp.keys,BreakKey_resp.rt,date,frameRate,expName,session,participant,
,,,,,,,,,,,,,,,,,,,,,,,,,,,,,,space,22.5988147389,,,,,,,,,,,,,,2017_Sep_29_1541,59.9986529047,FEMA4ImagesEEG,001,101671,
AMNE23.JPG,AMNE24.JPG,AMNE22.JPG,AMSA24.JPG,AMSA22.JPG,AMSA23.JPG,0,0,0,9,,,,,,,,,,,,,,,,,,,,,,,AFSA03.jpg,AFSA01.jpg,AFNE13.jpg,AFNE08.jpg,AFNE08.jpg,FN,3,num_4,32,num_8,0.850136346417,,,2017_Sep_29_1541,59.9986529047,FEMA4ImagesEEG,001,101671,
AFSA21.JPG,AFNE23.JPG,AFNE21.JPG,AFSA25.JPG,AFNE25.JPG,AFSA23.JPG,0,1,1,4,,,,,,,,,,,,,,,,,,,,,,,AFNE02.jpg,AFSA11.jpg,AFSA12.jpg,AFNE15.jpg,AFNE02.jpg,FN,3,num_8,16,num_8,0.750173680484,,,2017_Sep_29_1541,59.9986529047,FEMA4ImagesEEG,001,101671,
AMSA25.JPG,AMNE24.JPG,AMSA24.JPG,AMNE26.JPG,AMSA21.JPG,AMNE25.JPG,0,2,2,3,,,,,,,,,,,,,,,,,,,,,,,AFNE02.jpg,AFNE08.jpg,AFSA16.jpg,AFSA08.jpg,AFNE02.jpg,FN,3,num_8,16,num_8,0.700137661421,,,2017_Sep_29_1541,59.9986529047,FEMA4ImagesEEG,001,101671,
AMNE22.JPG,AMSA24.JPG,AMSA22.JPG,AMNE25.JPG,AMNE24.JPG,AMSA25.JPG,0,3,3,7,,,,,,,,,,,,,,,,,,,,,,,AFSA20.jpg,AFSA04.jpg,AFNE07.jpg,AFNE12.jpg,AFSA20.jpg,FS,4,num_8,16,num_8,0.783532844041,,,2017_Sep_29_1541,59.9986529047,FEMA4ImagesEEG,001,101671,
AFSA25.JPG,AFNE24.JPG,AFSA24.JPG,AFNE21.JPG,AFSA21.JPG,AFNE25.JPG,0,4,4,2,,,,,,,,,,,,,,,,,,,,,,,AFNE11.jpg,AFNE01.jpg,AFSA08.jpg,AFSA10.jpg,AFSA08.jpg,FS,4,num_2,32,num_4,0.883416287368,,,2017_Sep_29_1541,59.9986529047,FEMA4ImagesEEG,001,101671,
AFSA21.JPG,AFNE22.JPG,AFNE21.JPG,AFSA23.JPG,AFSA22.JPG,AFNE23.JPG,0,5,5,0,,,,,,,,,,,,,,,,,,,,,,,AFSA01.jpg,AFNE09.jpg,AFSA04.jpg,AFNE19.jpg,AFSA01.jpg,FS,4,num_8,16,num_8,0.699829751393,,,2017_Sep_29_1541,59.9986529047,FEMA4ImagesEEG,001,101671,
AMSA21.JPG,AMNE22.JPG,AMNE21.JPG,AMSA23.JPG,AMSA22.JPG,AMNE23.JPG,0,6,6,1,,,,,,,,,,,,,,,,,,,,,,,AFNE10.jpg,AFSA07.jpg,AFSA16.jpg,AFNE17.jpg,AFSA16.jpg,FS,4,num_2,32,num_4,0.983476778725,,,2017_Sep_29_1541,59.9986529047,FEMA4ImagesEEG,001,101671,
AMSA21.JPG,AMNE23.JPG,AMNE21.JPG,AMSA25.JPG,AMNE25.JPG,AMSA23.JPG,0,7,7,5,,,,,,,,,,,,,,,,,,,,,,,AFNE16.jpg,AFNE03.jpg,AFSA08.jpg,AFSA13.jpg,AFSA13.jpg,FS,4,num_4,32,num_8,0.700128039345,,,2017_Sep_29_1541,59.9986529047,FEMA4ImagesEEG,001,101671,
AFNE22.JPG,AFSA24.JPG,AFSA22.JPG,AFNE25.JPG,AFNE24.JPG,AFSA25.JPG,0,8,8,6,,,,,,,,,,,,,,,,,,,,,,,AFSA03.jpg,AFNE04.jpg,AFSA02.jpg,AFNE20.jpg,AFSA03.jpg,FS,4,num_8,16,num_8,0.533490987495,,,2017_Sep_29_1541,59.9986529047,FEMA4ImagesEEG,001,101671,
AFNE23.JPG,AFNE24.JPG,AFNE22.JPG,AFSA24.JPG,AFSA22.JPG,AFSA23.JPG,0,9,9,8,,,,,,,,,,,,,,,,,,,,,,,AFNE08.jpg,AFNE13.jpg,AFSA03.jpg,AFSA09.jpg,AFNE08.jpg,FN,3,num_8,16,num_8,0.916761338245,,,2017_Sep_29_1541,59.9986529047,FEMA4ImagesEEG,001,101671,
AMSA21.JPG,AMNE23.JPG,AMNE21.JPG,AMSA25.JPG,AMNE25.JPG,AMSA23.JPG,,,,,0,0,0,5,,,,,,,,,,,,,,,,,,,AMSA07.jpg,AMNE13.jpg,AMSA12.jpg,AMNE14.jpg,AMSA07.jpg,MS,2,num_8,16,num_8,0.766761691193,,,2017_Sep_29_1541,59.9986529047,FEMA4ImagesEEG,001,101671,
AMSA25.JPG,AMNE24.JPG,AMSA24.JPG,AMNE26.JPG,AMSA21.JPG,AMNE25.JPG,,,,,0,1,1,3,,,,,,,,,,,,,,,,,,,AMSA20.jpg,AMSA14.jpg,AMNE07.jpg,AMNE18.jpg,AMNE07.jpg,MN,1,num_2,16,num_2,0.900133876712,,,2017_Sep_29_1541,59.9986529047,FEMA4ImagesEEG,001,101671,
AMSA21.JPG,AMNE22.JPG,AMNE21.JPG,AMSA23.JPG,AMSA22.JPG,AMNE23.JPG,,,,,0,2,2,1,,,,,,,,,,,,,,,,,,,AMNE01.jpg,AMSA07.jpg,AMNE14.jpg,AMSA06.jpg,AMSA06.jpg,MS,2,num_4,16,num_4,0.866751619964,,,2017_Sep_29_1541,59.9986529047,FEMA4ImagesEEG,001,101671,
AFSA21.JPG,AFNE22.JPG,AFNE21.JPG,AFSA23.JPG,AFSA22.JPG,AFNE23.JPG,,,,,0,3,3,0,,,,,,,,,,,,,,,,,,,AMSA15.jpg,AMNE16.jpg,AMSA06.jpg,AMNE04.jpg,AMSA06.jpg,MS,2,num_2,32,num_8,0.583490442252,,,2017_Sep_29_1541,59.9986529047,FEMA4ImagesEEG,001,101671,
AFNE23.JPG,AFNE24.JPG,AFNE22.JPG,AFSA24.JPG,AFSA22.JPG,AFSA23.JPG,,,,,0,4,4,8,,,,,,,,,,,,,,,,,,,AMSA01.jpg,AMSA10.jpg,AMNE10.jpg,AMNE12.jpg,AMSA01.jpg,MS,2,num_8,16,num_8,0.766763936263,,,2017_Sep_29_1541,59.9986529047,FEMA4ImagesEEG,001,101671,
AFNE22.JPG,AFSA24.JPG,AFSA22.JPG,AFNE25.JPG,AFNE24.JPG,AFSA25.JPG,,,,,0,5,5,6,,,,,,,,,,,,,,,,,,,AMNE20.jpg,AMSA06.jpg,AMSA12.jpg,AMNE16.jpg,AMNE16.jpg,MN,1,num_4,32,num_8,0.700132529601,,,2017_Sep_29_1541,59.9986529047,FEMA4ImagesEEG,001,101671,
AMNE23.JPG,AMNE24.JPG,AMNE22.JPG,AMSA24.JPG,AMSA22.JPG,AMSA23.JPG,,,,,0,6,6,9,,,,,,,,,,,,,,,,,,,AMSA06.jpg,AMNE04.jpg,AMSA15.jpg,AMNE13.jpg,AMNE13.jpg,MN,1,num_4,32,num_8,0.716766726691,,,2017_Sep_29_1541,59.9986529047,FEMA4ImagesEEG,001,101671,
AFSA21.JPG,AFNE23.JPG,AFNE21.JPG,AFSA25.JPG,AFNE25.JPG,AFSA23.JPG,,,,,0,7,7,4,,,,,,,,,,,,,,,,,,,AMNE12.jpg,AMNE02.jpg,AMSA06.jpg,AMSA16.jpg,AMNE12.jpg,MN,1,num_8,16,num_8,0.583499422995,,,2017_Sep_29_1541,59.9986529047,FEMA4ImagesEEG,001,101671,
AFSA25.JPG,AFNE24.JPG,AFSA24.JPG,AFNE21.JPG,AFSA21.JPG,AFNE25.JPG,,,,,0,8,8,2,,,,,,,,,,,,,,,,,,,AMSA04.jpg,AMSA19.jpg,AMNE14.jpg,AMNE19.jpg,AMNE14.jpg,MN,1,num_2,32,num_6,0.716827987926,,,2017_Sep_29_1541,59.9986529047,FEMA4ImagesEEG,001,101671,
AMNE22.JPG,AMSA24.JPG,AMSA22.JPG,AMNE25.JPG,AMNE24.JPG,AMSA25.JPG,,,,,0,9,9,7,,,,,,,,,,,,,,,,,,,AMSA07.jpg,AMNE02.jpg,AMSA20.jpg,AMNE01.jpg,AMSA20.jpg,MS,2,num_2,32,num_8,0.833479056018,,,2017_Sep_29_1541,59.9986529047,FEMA4ImagesEEG,001,101671,
AMSA25.JPG,AMNE24.JPG,AMSA24.JPG,AMNE26.JPG,AMSA21.JPG,AMNE25.JPG,,,,,,,,,0,0,0,3,,,,,,,,,,,,,,,AFNE10.jpg,AFSA07.jpg,AFNE20.jpg,AFSA14.jpg,AFSA14.jpg,FS,4,num_4,16,num_4,0.867100905278,,,2017_Sep_29_1541,59.9986529047,FEMA4ImagesEEG,001,101671,
AMNE23.JPG,AMNE24.JPG,AMNE22.JPG,AMSA24.JPG,AMSA22.JPG,AMSA23.JPG,,,,,,,,,0,1,1,9,,,,,,,,,,,,,,,AFNE06.jpg,AFNE17.jpg,AFSA12.jpg,AFSA19.jpg,AFNE17.jpg,FN,3,num_6,32,num_8,1.1001009047,,,2017_Sep_29_1541,59.9986529047,FEMA4ImagesEEG,001,101671,
AMSA21.JPG,AMNE22.JPG,AMNE21.JPG,AMSA23.JPG,AMSA22.JPG,AMNE23.JPG,,,,,,,,,0,2,2,1,,,,,,,,,,,,,,,AFSA03.jpg,AFNE14.jpg,AFNE17.jpg,AFSA13.jpg,AFSA13.jpg,FS,4,num_4,32,num_8,1.38344098418,,,2017_Sep_29_1541,59.9986529047,FEMA4ImagesEEG,001,101671,
AFSA21.JPG,AFNE22.JPG,AFNE21.JPG,AFSA23.JPG,AFSA22.JPG,AFNE23.JPG,,,,,,,,,0,3,3,0,,,,,,,,,,,,,,,AFSA10.jpg,AFNE02.jpg,AFNE16.jpg,AFSA20.jpg,AFSA10.jpg,FS,4,num_8,16,num_8,0.733585028443,,,2017_Sep_29_1541,59.9986529047,FEMA4ImagesEEG,001,101671,
AFSA25.JPG,AFNE24.JPG,AFSA24.JPG,AFNE21.JPG,AFSA21.JPG,AFNE25.JPG,,,,,,,,,0,4,4,2,,,,,,,,,,,,,,,AFSA02.jpg,AFSA04.jpg,AFNE09.jpg,AFNE03.jpg,AFSA04.jpg,FS,4,num_6,16,num_6,0.650251748506,,,2017_Sep_29_1541,59.9986529047,FEMA4ImagesEEG,001,101671,
AFSA21.JPG,AFNE23.JPG,AFNE21.JPG,AFSA25.JPG,AFNE25.JPG,AFSA23.JPG,,,,,,,,,0,5,5,4,,,,,,,,,,,,,,,AFSA07.jpg,AFSA20.jpg,AFNE01.jpg,AFNE19.jpg,AFNE01.jpg,FN,3,num_2,16,num_2,0.800111232442,,,2017_Sep_29_1541,59.9986529047,FEMA4ImagesEEG,001,101671,
AMNE22.JPG,AMSA24.JPG,AMSA22.JPG,AMNE25.JPG,AMNE24.JPG,AMSA25.JPG,,,,,,,,,0,6,6,7,,,,,,,,,,,,,,,AFSA03.jpg,AFNE17.jpg,AFNE16.jpg,AFSA07.jpg,AFNE16.jpg,FN,3,num_2,16,num_2,0.766809802037,,,2017_Sep_29_1541,59.9986529047,FEMA4ImagesEEG,001,101671,
AMSA21.JPG,AMNE23.JPG,AMNE21.JPG,AMSA25.JPG,AMNE25.JPG,AMSA23.JPG,,,,,,,,,0,7,7,5,,,,,,,,,,,,,,,AFNE19.jpg,AFSA16.jpg,AFNE04.jpg,AFSA14.jpg,AFSA14.jpg,FS,4,num_4,16,num_4,0.533454102464,,,2017_Sep_29_1541,59.9986529047,FEMA4ImagesEEG,001,101671,
AFNE23.JPG,AFNE24.JPG,AFNE22.JPG,AFSA24.JPG,AFSA22.JPG,AFSA23.JPG,,,,,,,,,0,8,8,8,,,,,,,,,,,,,,,AFNE01.jpg,AFSA01.jpg,AFSA11.jpg,AFNE12.jpg,AFNE12.jpg,FN,3,num_4,32,num_2,1.08341667219,,,2017_Sep_29_1541,59.9986529047,FEMA4ImagesEEG,001,101671,
AFNE22.JPG,AFSA24.JPG,AFSA22.JPG,AFNE25.JPG,AFNE24.JPG,AFSA25.JPG,,,,,,,,,0,9,9,6,,,,,,,,,,,,,,,AFSA09.jpg,AFNE20.jpg,AFNE04.jpg,AFSA05.jpg,AFSA09.jpg,FS,4,num_8,32,num_4,0.833614728879,,,2017_Sep_29_1541,59.9986529047,FEMA4ImagesEEG,001,101671,
AFNE23.JPG,AFNE24.JPG,AFNE22.JPG,AFSA24.JPG,AFSA22.JPG,AFSA23.JPG,,,,,,,,,,,,,0,0,0,8,,,,,,,,,,,AMNE03.jpg,AMSA06.jpg,AMNE11.jpg,AMSA14.jpg,AMNE11.jpg,MN,1,num_2,16,num_2,1.11678706168,,,2017_Sep_29_1541,59.9986529047,FEMA4ImagesEEG,001,101671,
AMNE22.JPG,AMSA24.JPG,AMSA22.JPG,AMNE25.JPG,AMNE24.JPG,AMSA25.JPG,,,,,,,,,,,,,0,1,1,7,,,,,,,,,,,AMSA10.jpg,AMNE02.jpg,AMSA14.jpg,AMNE15.jpg,AMNE15.jpg,MN,1,num_4,16,num_4,0.633537687245,,,2017_Sep_29_1541,59.9986529047,FEMA4ImagesEEG,001,101671,
AFSA21.JPG,AFNE22.JPG,AFNE21.JPG,AFSA23.JPG,AFSA22.JPG,AFNE23.JPG,,,,,,,,,,,,,0,2,2,0,,,,,,,,,,,AMNE12.jpg,AMSA03.jpg,AMNE06.jpg,AMSA13.jpg,AMNE12.jpg,MN,1,num_8,32,num_2,0.800118288724,,,2017_Sep_29_1541,59.9986529047,FEMA4ImagesEEG,001,101671,
AMSA21.JPG,AMNE22.JPG,AMNE21.JPG,AMSA23.JPG,AMSA22.JPG,AMNE23.JPG,,,,,,,,,,,,,0,3,3,1,,,,,,,,,,,AMNE18.jpg,AMSA19.jpg,AMSA12.jpg,AMNE08.jpg,AMSA12.jpg,MS,2,num_2,16,num_2,1.13343665423,,,2017_Sep_29_1541,59.9986529047,FEMA4ImagesEEG,001,101671,
AMSA25.JPG,AMNE24.JPG,AMSA24.JPG,AMNE26.JPG,AMSA21.JPG,AMNE25.JPG,,,,,,,,,,,,,0,4,4,3,,,,,,,,,,,AMSA12.jpg,AMNE07.jpg,AMSA02.jpg,AMNE15.jpg,AMSA02.jpg,MS,2,num_2,32,num_8,0.900123613072,,,2017_Sep_29_1541,59.9986529047,FEMA4ImagesEEG,001,101671,
AFSA21.JPG,AFNE23.JPG,AFNE21.JPG,AFSA25.JPG,AFNE25.JPG,AFSA23.JPG,,,,,,,,,,,,,0,5,5,4,,,,,,,,,,,AMSA12.jpg,AMNE13.jpg,AMNE14.jpg,AMSA10.jpg,AMSA10.jpg,MS,2,num_4,32,num_2,0.833501828485,,,2017_Sep_29_1541,59.9986529047,FEMA4ImagesEEG,001,101671,
AFSA25.JPG,AFNE24.JPG,AFSA24.JPG,AFNE21.JPG,AFSA21.JPG,AFNE25.JPG,,,,,,,,,,,,,0,6,6,2,,,,,,,,,,,AMSA08.jpg,AMSA01.jpg,AMNE18.jpg,AMNE09.jpg,AMNE09.jpg,MN,1,num_4,32,num_8,0.716767047415,,,2017_Sep_29_1541,59.9986529047,FEMA4ImagesEEG,001,101671,
AFNE22.JPG,AFSA24.JPG,AFSA22.JPG,AFNE25.JPG,AFNE24.JPG,AFSA25.JPG,,,,,,,,,,,,,0,7,7,6,,,,,,,,,,,AMSA11.jpg,AMNE16.jpg,AMSA07.jpg,AMNE14.jpg,AMNE14.jpg,MN,1,num_4,16,num_4,0.766820065794,,,2017_Sep_29_1541,59.9986529047,FEMA4ImagesEEG,001,101671,
AMSA21.JPG,AMNE23.JPG,AMNE21.JPG,AMSA25.JPG,AMNE25.JPG,AMSA23.JPG,,,,,,,,,,,,,0,8,8,5,,,,,,,,,,,AMSA15.jpg,AMNE12.jpg,AMSA10.jpg,AMNE02.jpg,AMSA10.jpg,MS,2,num_2,16,num_2,0.666857079021,,,2017_Sep_29_1541,59.9986529047,FEMA4ImagesEEG,001,101671,
AMNE23.JPG,AMNE24.JPG,AMNE22.JPG,AMSA24.JPG,AMSA22.JPG,AMSA23.JPG,,,,,,,,,,,,,0,9,9,9,,,,,,,,,,,AMSA06.jpg,AMNE07.jpg,AMSA15.jpg,AMNE06.jpg,AMSA06.jpg,MS,2,num_8,32,num_4,1.55003666051,,,2017_Sep_29_1541,59.9986529047,FEMA4ImagesEEG,001,101671,
AMSA21.JPG,AMNE23.JPG,AMNE21.JPG,AMSA25.JPG,AMNE25.JPG,AMSA23.JPG,,,,,,,,,,,,,,,,,0,0,0,5,,,,,,,AFNE15.jpg,AFNE06.jpg,AFSA02.jpg,AFSA07.jpg,AFNE15.jpg,FN,3,num_8,16,num_8,0.550098563195,,,2017_Sep_29_1541,59.9986529047,FEMA4ImagesEEG,001,101671,
AFNE22.JPG,AFSA24.JPG,AFSA22.JPG,AFNE25.JPG,AFNE24.JPG,AFSA25.JPG,,,,,,,,,,,,,,,,,0,1,1,6,,,,,,,AFSA07.jpg,AFNE07.jpg,AFSA16.jpg,AFNE03.jpg,AFSA16.jpg,FS,4,num_2,16,num_2,0.783446885878,,,2017_Sep_29_1541,59.9986529047,FEMA4ImagesEEG,001,101671,
AMSA25.JPG,AMNE24.JPG,AMSA24.JPG,AMNE26.JPG,AMSA21.JPG,AMNE25.JPG,,,,,,,,,,,,,,,,,0,2,2,3,,,,,,,AFNE06.jpg,AFSA11.jpg,AFNE02.jpg,AFSA02.jpg,AFNE06.jpg,FN,3,num_8,16,num_8,0.516833697096,,,2017_Sep_29_1541,59.9986529047,FEMA4ImagesEEG,001,101671,
AMSA21.JPG,AMNE22.JPG,AMNE21.JPG,AMSA23.JPG,AMSA22.JPG,AMNE23.JPG,,,,,,,,,,,,,,,,,0,3,3,1,,,,,,,AFSA04.jpg,AFNE20.jpg,AFSA07.jpg,AFNE17.jpg,AFNE17.jpg,FN,3,num_4,32,num_8,0.866645455128,,,2017_Sep_29_1541,59.9986529047,FEMA4ImagesEEG,001,101671,
AFSA21.JPG,AFNE23.JPG,AFNE21.JPG,AFSA25.JPG,AFNE25.JPG,AFSA23.JPG,,,,,,,,,,,,,,,,,0,4,4,4,,,,,,,AFSA06.jpg,AFNE18.jpg,AFSA20.jpg,AFNE15.jpg,AFSA20.jpg,FS,4,num_2,32,num_6,0.566840849584,,,2017_Sep_29_1541,59.9986529047,FEMA4ImagesEEG,001,101671,
AMNE22.JPG,AMSA24.JPG,AMSA22.JPG,AMNE25.JPG,AMNE24.JPG,AMSA25.JPG,,,,,,,,,,,,,,,,,0,5,5,7,,,,,,,AFNE10.jpg,AFSA03.jpg,AFNE20.jpg,AFSA05.jpg,AFNE10.jpg,FN,3,num_8,16,num_8,1.76668727957,,,2017_Sep_29_1541,59.9986529047,FEMA4ImagesEEG,001,101671,
AFSA25.JPG,AFNE24.JPG,AFSA24.JPG,AFNE21.JPG,AFSA21.JPG,AFNE25.JPG,,,,,,,,,,,,,,,,,0,6,6,2,,,,,,,AFNE03.jpg,AFNE04.jpg,AFSA18.jpg,AFSA07.jpg,AFSA18.jpg,FS,4,num_2,32,num_8,0.683309737593,,,2017_Sep_29_1541,59.9986529047,FEMA4ImagesEEG,001,101671,
AFNE23.JPG,AFNE24.JPG,AFNE22.JPG,AFSA24.JPG,AFSA22.JPG,AFSA23.JPG,,,,,,,,,,,,,,,,,0,7,7,8,,,,,,,AFNE09.jpg,AFSA03.jpg,AFNE08.jpg,AFSA02.jpg,AFSA03.jpg,FS,4,num_6,16,num_6,1.26669850538,,,2017_Sep_29_1541,59.9986529047,FEMA4ImagesEEG,001,101671,
AMNE23.JPG,AMNE24.JPG,AMNE22.JPG,AMSA24.JPG,AMSA22.JPG,AMSA23.JPG,,,,,,,,,,,,,,,,,0,8,8,9,,,,,,,AFNE19.jpg,AFSA08.jpg,AFSA10.jpg,AFNE06.jpg,AFNE19.jpg,FN,3,num_8,32,num_6,0.816767881392,,,2017_Sep_29_1541,59.9986529047,FEMA4ImagesEEG,001,101671,
AFSA21.JPG,AFNE22.JPG,AFNE21.JPG,AFSA23.JPG,AFSA22.JPG,AFNE23.JPG,,,,,,,,,,,,,,,,,0,9,9,0,,,,,,,AFSA01.jpg,AFNE08.jpg,AFNE02.jpg,AFSA20.jpg,AFSA20.jpg,FS,4,num_4,16,num_4,0.883507056627,,,2017_Sep_29_1541,59.9986529047,FEMA4ImagesEEG,001,101671,
AFNE22.JPG,AFSA24.JPG,AFSA22.JPG,AFNE25.JPG,AFNE24.JPG,AFSA25.JPG,,,,,,,,,,,,,,,,,,,,,0,0,0,6,,,AMNE15.jpg,AMNE17.jpg,AMSA14.jpg,AMSA06.jpg,AMNE15.jpg,MN,1,num_8,32,num_6,0.666794214165,,,2017_Sep_29_1541,59.9986529047,FEMA4ImagesEEG,001,101671,
AMNE23.JPG,AMNE24.JPG,AMNE22.JPG,AMSA24.JPG,AMSA22.JPG,AMSA23.JPG,,,,,,,,,,,,,,,,,,,,,0,1,1,9,,,AMNE06.jpg,AMNE17.jpg,AMSA15.jpg,AMSA18.jpg,AMSA15.jpg,MS,2,num_2,16,num_2,0.633494708105,,,2017_Sep_29_1541,59.9986529047,FEMA4ImagesEEG,001,101671,
AFSA25.JPG,AFNE24.JPG,AFSA24.JPG,AFNE21.JPG,AFSA21.JPG,AFNE25.JPG,,,,,,,,,,,,,,,,,,,,,0,2,2,2,,,AMSA10.jpg,AMNE09.jpg,AMSA07.jpg,AMNE08.jpg,AMNE09.jpg,MN,1,num_6,16,num_6,1.16672782099,,,2017_Sep_29_1541,59.9986529047,FEMA4ImagesEEG,001,101671,
AMSA25.JPG,AMNE24.JPG,AMSA24.JPG,AMNE26.JPG,AMSA21.JPG,AMNE25.JPG,,,,,,,,,,,,,,,,,,,,,0,3,3,3,,,AMNE02.jpg,AMNE16.jpg,AMSA04.jpg,AMSA12.jpg,AMNE02.jpg,MN,1,num_8,32,num_4,0.633459426695,,,2017_Sep_29_1541,59.9986529047,FEMA4ImagesEEG,001,101671,
AFSA21.JPG,AFNE23.JPG,AFNE21.JPG,AFSA25.JPG,AFNE25.JPG,AFSA23.JPG,,,,,,,,,,,,,,,,,,,,,0,4,4,4,,,AMNE05.jpg,AMNE10.jpg,AMSA13.jpg,AMSA17.jpg,AMSA17.jpg,MS,2,num_4,32,num_6,1.85006289708,,,2017_Sep_29_1541,59.9986529047,FEMA4ImagesEEG,001,101671,
AFSA21.JPG,AFNE22.JPG,AFNE21.JPG,AFSA23.JPG,AFSA22.JPG,AFNE23.JPG,,,,,,,,,,,,,,,,,,,,,0,5,5,0,,,AMNE19.jpg,AMSA07.jpg,AMSA09.jpg,AMNE20.jpg,AMNE19.jpg,MN,1,num_8,16,num_8,0.783488582005,,,2017_Sep_29_1541,59.9986529047,FEMA4ImagesEEG,001,101671,
AMNE22.JPG,AMSA24.JPG,AMSA22.JPG,AMNE25.JPG,AMNE24.JPG,AMSA25.JPG,,,,,,,,,,,,,,,,,,,,,0,6,6,7,,,AMNE16.jpg,AMSA14.jpg,AMSA03.jpg,AMNE04.jpg,AMNE16.jpg,MN,1,num_8,16,num_8,0.733477901435,,,2017_Sep_29_1541,59.9986529047,FEMA4ImagesEEG,001,101671,
AFNE23.JPG,AFNE24.JPG,AFNE22.JPG,AFSA24.JPG,AFSA22.JPG,AFSA23.JPG,,,,,,,,,,,,,,,,,,,,,0,7,7,8,,,AMSA03.jpg,AMSA06.jpg,AMNE03.jpg,AMNE10.jpg,AMNE10.jpg,MN,1,num_4,16,num_4,0.683420072077,,,2017_Sep_29_1541,59.9986529047,FEMA4ImagesEEG,001,101671,
AMSA21.JPG,AMNE22.JPG,AMNE21.JPG,AMSA23.JPG,AMSA22.JPG,AMNE23.JPG,,,,,,,,,,,,,,,,,,,,,0,8,8,1,,,AMSA06.jpg,AMNE19.jpg,AMSA08.jpg,AMNE06.jpg,AMSA06.jpg,MS,2,num_8,16,num_8,0.6001605622,,,2017_Sep_29_1541,59.9986529047,FEMA4ImagesEEG,001,101671,
AMSA21.JPG,AMNE23.JPG,AMNE21.JPG,AMSA25.JPG,AMNE25.JPG,AMSA23.JPG,,,,,,,,,,,,,,,,,,,,,0,9,9,5,,,AMSA04.jpg,AMSA18.jpg,AMNE06.jpg,AMNE03.jpg,AMSA18.jpg,MS,2,num_6,16,num_6,1.36672082893,,,2017_Sep_29_1541,59.9986529047,FEMA4ImagesEEG,001,101671,
,,,,,,,,,,,,,,,,,,,,,,,,,,,,,,,,,,,,,,,,,,,space,8.33280999318,2017_Sep_29_1541,59.9986529047,FEMA4ImagesEEG,001,101671,
AFNE01.JPG,AFNE01.JPG,AFNE01.JPG,AFNE01.JPG,AFNE01.JPG,AFNE01.JPG,0,0,0,7,,,,,,,,,,,,,,,,,,,,,,,AFSA16.jpg,AFNE09.jpg,AFNE14.jpg,AFSA05.jpg,AFNE14.jpg,FN,3,num_2,32,num_6,0.600317403907,,,2017_Sep_29_1541,59.9986529047,FEMA4ImagesEEG,001,101671,
AFNE01.JPG,AFNE01.JPG,AFNE01.JPG,AFNE01.JPG,AFNE01.JPG,AFNE01.JPG,0,1,1,6,,,,,,,,,,,,,,,,,,,,,,,AFSA17.jpg,AFNE03.jpg,AFSA10.jpg,AFNE02.jpg,AFSA17.jpg,FS,4,num_8,16,num_8,0.666829816182,,,2017_Sep_29_1541,59.9986529047,FEMA4ImagesEEG,001,101671,
AFNE01.JPG,AFNE01.JPG,AFNE01.JPG,AFNE01.JPG,AFNE01.JPG,AFNE01.JPG,0,2,2,4,,,,,,,,,,,,,,,,,,,,,,,AFSA02.jpg,AFSA17.jpg,AFNE01.jpg,AFNE11.jpg,AFSA02.jpg,FS,4,num_8,32,num_6,0.761651026318,,,2017_Sep_29_1541,59.9986529047,FEMA4ImagesEEG,001,101671,
AFNE01.JPG,AFNE01.JPG,AFNE01.JPG,AFNE01.JPG,AFNE01.JPG,AFNE01.JPG,0,3,3,9,,,,,,,,,,,,,,,,,,,,,,,AFNE05.jpg,AFSA11.jpg,AFNE20.jpg,AFSA10.jpg,AFSA10.jpg,FS,4,num_4,16,num_4,0.767046507914,,,2017_Sep_29_1541,59.9986529047,FEMA4ImagesEEG,001,101671,
AFNE01.JPG,AFNE01.JPG,AFNE01.JPG,AFNE01.JPG,AFNE01.JPG,AFNE01.JPG,0,4,4,3,,,,,,,,,,,,,,,,,,,,,,,AFSA17.jpg,AFNE02.jpg,AFSA12.jpg,AFNE18.jpg,AFNE18.jpg,FN,3,num_4,32,num_8,0.76675527636,,,2017_Sep_29_1541,59.9986529047,FEMA4ImagesEEG,001,101671,
AFNE01.JPG,AFNE01.JPG,AFNE01.JPG,AFNE01.JPG,AFNE01.JPG,AFNE01.JPG,0,5,5,8,,,,,,,,,,,,,,,,,,,,,,,AFSA17.jpg,AFNE05.jpg,AFSA01.jpg,AFNE18.jpg,AFSA17.jpg,FS,4,num_8,32,num_2,1.05012422253,,,2017_Sep_29_1541,59.9986529047,FEMA4ImagesEEG,001,101671,
AFNE01.JPG,AFNE01.JPG,AFNE01.JPG,AFNE01.JPG,AFNE01.JPG,AFNE01.JPG,0,6,6,2,,,,,,,,,,,,,,,,,,,,,,,AFNE02.jpg,AFNE05.jpg,AFSA02.jpg,AFSA18.jpg,AFSA18.jpg,FS,4,num_4,32,num_2,0.850146610057,,,2017_Sep_29_1541,59.9986529047,FEMA4ImagesEEG,001,101671,
AFNE01.JPG,AFNE01.JPG,AFNE01.JPG,AFNE01.JPG,AFNE01.JPG,AFNE01.JPG,0,7,7,0,,,,,,,,,,,,,,,,,,,,,,,AFNE03.jpg,AFSA20.jpg,AFNE19.jpg,AFSA06.jpg,AFNE19.jpg,FN,3,num_2,16,num_2,0.650112547446,,,2017_Sep_29_1541,59.9986529047,FEMA4ImagesEEG,001,101671,
AFNE01.JPG,AFNE01.JPG,AFNE01.JPG,AFNE01.JPG,AFNE01.JPG,AFNE01.JPG,0,8,8,1,,,,,,,,,,,,,,,,,,,,,,,AFSA04.jpg,AFNE19.jpg,AFNE03.jpg,AFSA09.jpg,AFNE19.jpg,FN,3,num_6,32,num_4,0.900143819628,,,2017_Sep_29_1541,59.9986529047,FEMA4ImagesEEG,001,101671,
AFNE01.JPG,AFNE01.JPG,AFNE01.JPG,AFNE01.JPG,AFNE01.JPG,AFNE01.JPG,0,9,9,5,,,,,,,,,,,,,,,,,,,,,,,AFSA08.jpg,AFNE06.jpg,AFNE12.jpg,AFSA11.jpg,AFSA08.jpg,FS,4,num_8,32,num_4,0.933461286942,,,2017_Sep_29_1541,59.9986529047,FEMA4ImagesEEG,001,101671,
AFNE01.JPG,AFNE01.JPG,AFNE01.JPG,AFNE01.JPG,AFNE01.JPG,AFNE01.JPG,1,0,10,0,,,,,,,,,,,,,,,,,,,,,,,AFSA10.jpg,AFNE04.jpg,AFNE11.jpg,AFSA05.jpg,AFSA05.jpg,FS,4,num_4,16,num_4,0.55016110756,,,2017_Sep_29_1541,59.9986529047,FEMA4ImagesEEG,001,101671,
AFNE01.JPG,AFNE01.JPG,AFNE01.JPG,AFNE01.JPG,AFNE01.JPG,AFNE01.JPG,1,1,11,3,,,,,,,,,,,,,,,,,,,,,,,AFNE03.jpg,AFSA17.jpg,AFNE07.jpg,AFSA19.jpg,AFNE03.jpg,FN,3,num_8,32,num_6,0.616798608215,,,2017_Sep_29_1541,59.9986529047,FEMA4ImagesEEG,001,101671,
AFNE01.JPG,AFNE01.JPG,AFNE01.JPG,AFNE01.JPG,AFNE01.JPG,AFNE01.JPG,1,2,12,9,,,,,,,,,,,,,,,,,,,,,,,AFNE04.jpg,AFSA14.jpg,AFSA13.jpg,AFNE10.jpg,AFSA13.jpg,FS,4,num_2,16,num_2,0.516511995229,,,2017_Sep_29_1541,59.9986529047,FEMA4ImagesEEG,001,101671,
AFNE01.JPG,AFNE01.JPG,AFNE01.JPG,AFNE01.JPG,AFNE01.JPG,AFNE01.JPG,1,3,13,1,,,,,,,,,,,,,,,,,,,,,,,AFNE04.jpg,AFNE15.jpg,AFSA07.jpg,AFSA06.jpg,AFNE15.jpg,FN,3,num_6,32,num_8,1.25010183477,,,2017_Sep_29_1541,59.9986529047,FEMA4ImagesEEG,001,101671,
AFNE01.JPG,AFNE01.JPG,AFNE01.JPG,AFNE01.JPG,AFNE01.JPG,AFNE01.JPG,1,4,14,4,,,,,,,,,,,,,,,,,,,,,,,AFSA20.jpg,AFNE03.jpg,AFNE02.jpg,AFSA13.jpg,AFNE02.jpg,FN,3,num_2,16,num_2,0.833455000538,,,2017_Sep_29_1541,59.9986529047,FEMA4ImagesEEG,001,101671,
AFNE01.JPG,AFNE01.JPG,AFNE01.JPG,AFNE01.JPG,AFNE01.JPG,AFNE01.JPG,1,5,15,6,,,,,,,,,,,,,,,,,,,,,,,AFSA02.jpg,AFNE09.jpg,AFSA14.jpg,AFNE02.jpg,AFSA14.jpg,FS,4,num_2,16,num_2,0.600211559795,,,2017_Sep_29_1541,59.9986529047,FEMA4ImagesEEG,001,101671,
AFNE01.JPG,AFNE01.JPG,AFNE01.JPG,AFNE01.JPG,AFNE01.JPG,AFNE01.JPG,1,6,16,8,,,,,,,,,,,,,,,,,,,,,,,AFSA02.jpg,AFNE17.jpg,AFSA04.jpg,AFNE20.jpg,AFNE17.jpg,FN,3,num_6,32,num_8,0.700171339093,,,2017_Sep_29_1541,59.9986529047,FEMA4ImagesEEG,001,101671,
AFNE01.JPG,AFNE01.JPG,AFNE01.JPG,AFNE01.JPG,AFNE01.JPG,AFNE01.JPG,1,7,17,7,,,,,,,,,,,,,,,,,,,,,,,AFNE09.jpg,AFSA12.jpg,AFSA03.jpg,AFNE02.jpg,AFSA03.jpg,FS,4,num_2,16,num_2,1.10012046981,,,2017_Sep_29_1541,59.9986529047,FEMA4ImagesEEG,001,101671,
AFNE01.JPG,AFNE01.JPG,AFNE01.JPG,AFNE01.JPG,AFNE01.JPG,AFNE01.JPG,1,8,18,5,,,,,,,,,,,,,,,,,,,,,,,AFNE18.jpg,AFSA12.jpg,AFNE08.jpg,AFSA01.jpg,AFNE18.jpg,FN,3,num_8,16,num_8,0.700081211282,,,2017_Sep_29_1541,59.9986529047,FEMA4ImagesEEG,001,101671,
AFNE01.JPG,AFNE01.JPG,AFNE01.JPG,AFNE01.JPG,AFNE01.JPG,AFNE01.JPG,1,9,19,2,,,,,,,,,,,,,,,,,,,,,,,AFSA13.jpg,AFSA17.jpg,AFNE02.jpg,AFNE16.jpg,AFNE02.jpg,FN,3,num_2,32,num_4,0.68352238799,,,2017_Sep_29_1541,59.9986529047,FEMA4ImagesEEG,001,101671,
AFNE01.JPG,AFNE01.JPG,AFNE01.JPG,AFNE01.JPG,AFNE01.JPG,AFNE01.JPG,2,0,20,2,,,,,,,,,,,,,,,,,,,,,,,AFSA08.jpg,AFNE19.jpg,AFSA11.jpg,AFNE05.jpg,AFSA11.jpg,FS,4,num_2,32,num_4,0.783421547385,,,2017_Sep_29_1541,59.9986529047,FEMA4ImagesEEG,001,101671,
AFNE01.JPG,AFNE01.JPG,AFNE01.JPG,AFNE01.JPG,AFNE01.JPG,AFNE01.JPG,2,1,21,3,,,,,,,,,,,,,,,,,,,,,,,AFNE01.jpg,AFNE09.jpg,AFSA20.jpg,AFSA19.jpg,AFSA19.jpg,FS,4,num_4,16,num_4,0.366820578929,,,2017_Sep_29_1541,59.9986529047,FEMA4ImagesEEG,001,101671,
AFNE01.JPG,AFNE01.JPG,AFNE01.JPG,AFNE01.JPG,AFNE01.JPG,AFNE01.JPG,2,2,22,6,,,,,,,,,,,,,,,,,,,,,,,AFNE12.jpg,AFNE02.jpg,AFSA01.jpg,AFSA07.jpg,AFSA01.jpg,FS,4,num_2,16,num_2,0.616655237623,,,2017_Sep_29_1541,59.9986529047,FEMA4ImagesEEG,001,101671,
AFNE01.JPG,AFNE01.JPG,AFNE01.JPG,AFNE01.JPG,AFNE01.JPG,AFNE01.JPG,2,3,23,8,,,,,,,,,,,,,,,,,,,,,,,AFNE01.jpg,AFSA01.jpg,AFSA17.jpg,AFNE04.jpg,AFSA01.jpg,FS,4,num_6,32,num_2,0.733448714018,,,2017_Sep_29_1541,59.9986529047,FEMA4ImagesEEG,001,101671,
AFNE01.JPG,AFNE01.JPG,AFNE01.JPG,AFNE01.JPG,AFNE01.JPG,AFNE01.JPG,2,4,24,5,,,,,,,,,,,,,,,,,,,,,,,AFSA03.jpg,AFSA04.jpg,AFNE02.jpg,AFNE18.jpg,AFSA03.jpg,FS,4,num_8,32,num_6,0.833486433025,,,2017_Sep_29_1541,59.9986529047,FEMA4ImagesEEG,001,101671,
AFNE01.JPG,AFNE01.JPG,AFNE01.JPG,AFNE01.JPG,AFNE01.JPG,AFNE01.JPG,2,5,25,0,,,,,,,,,,,,,,,,,,,,,,,AFNE13.jpg,AFSA20.jpg,AFNE18.jpg,AFSA07.jpg,AFSA20.jpg,FS,4,num_6,32,num_8,0.900128103327,,,2017_Sep_29_1541,59.9986529047,FEMA4ImagesEEG,001,101671,
AFNE01.JPG,AFNE01.JPG,AFNE01.JPG,AFNE01.JPG,AFNE01.JPG,AFNE01.JPG,2,6,26,9,,,,,,,,,,,,,,,,,,,,,,,AFNE15.jpg,AFNE11.jpg,AFSA14.jpg,AFSA16.jpg,AFNE11.jpg,FN,3,num_6,16,num_6,0.683436750434,,,2017_Sep_29_1541,59.9986529047,FEMA4ImagesEEG,001,101671,
AFNE01.JPG,AFNE01.JPG,AFNE01.JPG,AFNE01.JPG,AFNE01.JPG,AFNE01.JPG,2,7,27,4,,,,,,,,,,,,,,,,,,,,,,,AFSA15.jpg,AFSA08.jpg,AFNE10.jpg,AFNE18.jpg,AFNE10.jpg,FN,3,num_2,32,num_4,1.10010379134,,,2017_Sep_29_1541,59.9986529047,FEMA4ImagesEEG,001,101671,
AFNE01.JPG,AFNE01.JPG,AFNE01.JPG,AFNE01.JPG,AFNE01.JPG,AFNE01.JPG,2,8,28,7,,,,,,,,,,,,,,,,,,,,,,,AFSA01.jpg,AFNE16.jpg,AFNE11.jpg,AFSA17.jpg,AFSA01.jpg,FS,4,num_8,16,num_8,0.41672156658,,,2017_Sep_29_1541,59.9986529047,FEMA4ImagesEEG,001,101671,
AFNE01.JPG,AFNE01.JPG,AFNE01.JPG,AFNE01.JPG,AFNE01.JPG,AFNE01.JPG,2,9,29,1,,,,,,,,,,,,,,,,,,,,,,,AFSA06.jpg,AFNE02.jpg,AFSA04.jpg,AFNE16.jpg,AFNE16.jpg,FN,3,num_4,16,num_4,0.683502502041,,,2017_Sep_29_1541,59.9986529047,FEMA4ImagesEEG,001,101671,
AFNE01.JPG,AFNE01.JPG,AFNE01.JPG,AFNE01.JPG,AFNE01.JPG,AFNE01.JPG,3,0,30,9,,,,,,,,,,,,,,,,,,,,,,,AFSA17.jpg,AFNE15.jpg,AFSA08.jpg,AFNE01.jpg,AFNE01.jpg,FN,3,num_4,32,num_2,0.63355596934,,,2017_Sep_29_1541,59.9986529047,FEMA4ImagesEEG,001,101671,
AFNE01.JPG,AFNE01.JPG,AFNE01.JPG,AFNE01.JPG,AFNE01.JPG,AFNE01.JPG,3,1,31,2,,,,,,,,,,,,,,,,,,,,,,,AFSA06.jpg,AFSA07.jpg,AFNE06.jpg,AFNE10.jpg,AFNE06.jpg,FN,3,num_2,32,num_8,0.800155494595,,,2017_Sep_29_1541,59.9986529047,FEMA4ImagesEEG,001,101671,
AFNE01.JPG,AFNE01.JPG,AFNE01.JPG,AFNE01.JPG,AFNE01.JPG,AFNE01.JPG,3,2,32,1,,,,,,,,,,,,,,,,,,,,,,,AFNE05.jpg,AFSA08.jpg,AFNE04.jpg,AFSA13.jpg,AFSA13.jpg,FS,4,num_4,32,num_2,0.850143081974,,,2017_Sep_29_1541,59.9986529047,FEMA4ImagesEEG,001,101671,
AFNE01.JPG,AFNE01.JPG,AFNE01.JPG,AFNE01.JPG,AFNE01.JPG,AFNE01.JPG,3,3,33,4,,,,,,,,,,,,,,,,,,,,,,,AFSA01.jpg,AFSA11.jpg,AFNE18.jpg,AFNE05.jpg,AFNE18.jpg,FN,3,num_2,16,num_2,1.85006385925,,,2017_Sep_29_1541,59.9986529047,FEMA4ImagesEEG,001,101671,
AFNE01.JPG,AFNE01.JPG,AFNE01.JPG,AFNE01.JPG,AFNE01.JPG,AFNE01.JPG,3,4,34,7,,,,,,,,,,,,,,,,,,,,,,,AFSA01.jpg,AFSA06.jpg,AFNE02.jpg,AFNE11.jpg,AFSA06.jpg,FS,4,num_6,32,num_2,1.15011415118,,,2017_Sep_29_1541,59.9986529047,FEMA4ImagesEEG,001,101671,
AFNE01.JPG,AFNE01.JPG,AFNE01.JPG,AFNE01.JPG,AFNE01.JPG,AFNE01.JPG,3,5,35,8,,,,,,,,,,,,,,,,,,,,,,,AFNE06.jpg,AFSA05.jpg,AFSA01.jpg,AFNE16.jpg,AFSA01.jpg,FS,4,num_2,32,num_4,1.43343049602,,,2017_Sep_29_1541,59.9986529047,FEMA4ImagesEEG,001,101671,
AFNE01.JPG,AFNE01.JPG,AFNE01.JPG,AFNE01.JPG,AFNE01.JPG,AFNE01.JPG,3,6,36,6,,,,,,,,,,,,,,,,,,,,,,,AFSA09.jpg,AFNE20.jpg,AFSA14.jpg,AFNE13.jpg,AFSA14.jpg,FS,4,num_2,32,num_8,0.900101802777,,,2017_Sep_29_1541,59.9986529047,FEMA4ImagesEEG,001,101671,
AFNE01.JPG,AFNE01.JPG,AFNE01.JPG,AFNE01.JPG,AFNE01.JPG,AFNE01.JPG,3,7,37,0,,,,,,,,,,,,,,,,,,,,,,,AFNE11.jpg,AFNE06.jpg,AFSA01.jpg,AFSA04.jpg,AFNE06.jpg,FN,3,num_6,32,num_2,1.13345621934,,,2017_Sep_29_1541,59.9986529047,FEMA4ImagesEEG,001,101671,
AFNE01.JPG,AFNE01.JPG,AFNE01.JPG,AFNE01.JPG,AFNE01.JPG,AFNE01.JPG,3,8,38,3,,,,,,,,,,,,,,,,,,,,,,,AFSA09.jpg,AFNE17.jpg,AFNE07.jpg,AFSA03.jpg,AFNE07.jpg,FN,3,num_2,16,num_2,0.966806979501,,,2017_Sep_29_1541,59.9986529047,FEMA4ImagesEEG,001,101671,
AFNE01.JPG,AFNE01.JPG,AFNE01.JPG,AFNE01.JPG,AFNE01.JPG,AFNE01.JPG,3,9,39,5,,,,,,,,,,,,,,,,,,,,,,,AFSA12.jpg,AFNE06.jpg,AFSA20.jpg,AFNE05.jpg,AFSA20.jpg,FS,4,num_2,32,num_6,1.3667205082,,,2017_Sep_29_1541,59.9986529047,FEMA4ImagesEEG,001,101671,
AFNE01.JPG,AFNE01.JPG,AFNE01.JPG,AFNE01.JPG,AFNE01.JPG,AFNE01.JPG,4,0,40,5,,,,,,,,,,,,,,,,,,,,,,,AFSA18.jpg,AFNE12.jpg,AFSA05.jpg,AFNE13.jpg,AFNE13.jpg,FN,3,num_4,32,num_2,0.833501828485,,,2017_Sep_29_1541,59.9986529047,FEMA4ImagesEEG,001,101671,
AFNE01.JPG,AFNE01.JPG,AFNE01.JPG,AFNE01.JPG,AFNE01.JPG,AFNE01.JPG,4,1,41,9,,,,,,,,,,,,,,,,,,,,,,,AFSA03.jpg,AFSA18.jpg,AFNE01.jpg,AFNE10.jpg,AFSA03.jpg,FS,4,num_8,32,num_4,0.750189396786,,,2017_Sep_29_1541,59.9986529047,FEMA4ImagesEEG,001,101671,
AFNE01.JPG,AFNE01.JPG,AFNE01.JPG,AFNE01.JPG,AFNE01.JPG,AFNE01.JPG,4,2,42,4,,,,,,,,,,,,,,,,,,,,,,,AFSA08.jpg,AFNE10.jpg,AFNE13.jpg,AFSA14.jpg,AFSA08.jpg,FS,4,num_8,32,num_2,1.03344544256,,,2017_Sep_29_1541,59.9986529047,FEMA4ImagesEEG,001,101671,
AFNE01.JPG,AFNE01.JPG,AFNE01.JPG,AFNE01.JPG,AFNE01.JPG,AFNE01.JPG,4,3,43,1,,,,,,,,,,,,,,,,,,,,,,,AFSA10.jpg,AFSA07.jpg,AFNE15.jpg,AFNE17.jpg,AFNE17.jpg,FN,3,num_4,16,num_4,0.666796138627,,,2017_Sep_29_1541,59.9986529047,FEMA4ImagesEEG,001,101671,
AFNE01.JPG,AFNE01.JPG,AFNE01.JPG,AFNE01.JPG,AFNE01.JPG,AFNE01.JPG,4,4,44,0,,,,,,,,,,,,,,,,,,,,,,,AFSA16.jpg,AFNE16.jpg,AFSA04.jpg,AFNE19.jpg,AFSA04.jpg,FS,4,num_2,16,num_2,0.650123452651,,,2017_Sep_29_1541,59.9986529047,FEMA4ImagesEEG,001,101671,
AFNE01.JPG,AFNE01.JPG,AFNE01.JPG,AFNE01.JPG,AFNE01.JPG,AFNE01.JPG,4,5,45,2,,,,,,,,,,,,,,,,,,,,,,,AFNE18.jpg,AFSA05.jpg,AFNE08.jpg,AFSA09.jpg,AFNE08.jpg,FN,3,num_2,32,num_8,0.866766373976,,,2017_Sep_29_1541,59.9986529047,FEMA4ImagesEEG,001,101671,
AFNE01.JPG,AFNE01.JPG,AFNE01.JPG,AFNE01.JPG,AFNE01.JPG,AFNE01.JPG,4,6,46,7,,,,,,,,,,,,,,,,,,,,,,,AFSA20.jpg,AFNE09.jpg,AFSA18.jpg,AFNE03.jpg,AFNE09.jpg,FN,3,num_6,32,num_2,1.46645256225,,,2017_Sep_29_1541,59.9986529047,FEMA4ImagesEEG,001,101671,
AFNE01.JPG,AFNE01.JPG,AFNE01.JPG,AFNE01.JPG,AFNE01.JPG,AFNE01.JPG,4,7,47,6,,,,,,,,,,,,,,,,,,,,,,,AFNE16.jpg,AFSA03.jpg,AFNE05.jpg,AFSA04.jpg,AFNE16.jpg,FN,3,num_8,16,num_8,0.683464334114,,,2017_Sep_29_1541,59.9986529047,FEMA4ImagesEEG,001,101671,
AFNE01.JPG,AFNE01.JPG,AFNE01.JPG,AFNE01.JPG,AFNE01.JPG,AFNE01.JPG,4,8,48,3,,,,,,,,,,,,,,,,,,,,,,,AFNE01.jpg,AFSA10.jpg,AFSA11.jpg,AFNE06.jpg,AFNE01.jpg,FN,3,num_8,16,num_8,0.583418275928,,,2017_Sep_29_1541,59.9986529047,FEMA4ImagesEEG,001,101671,
AFNE01.JPG,AFNE01.JPG,AFNE01.JPG,AFNE01.JPG,AFNE01.JPG,AFNE01.JPG,4,9,49,8,,,,,,,,,,,,,,,,,,,,,,,AFSA10.jpg,AFSA15.jpg,AFNE06.jpg,AFNE10.jpg,AFNE10.jpg,FN,3,num_4,16,num_4,0.650195939816,,,2017_Sep_29_1541,59.9986529047,FEMA4ImagesEEG,001,101671,
AFNE01.JPG,AFNE01.JPG,AFNE01.JPG,AFNE01.JPG,AFNE01.JPG,AFNE01.JPG,5,0,50,8,,,,,,,,,,,,,,,,,,,,,,,AFSA08.jpg,AFNE04.jpg,AFNE16.jpg,AFSA16.jpg,AFNE16.jpg,FN,3,num_2,16,num_2,0.583471518592,,,2017_Sep_29_1541,59.9986529047,FEMA4ImagesEEG,001,101671,
AFNE01.JPG,AFNE01.JPG,AFNE01.JPG,AFNE01.JPG,AFNE01.JPG,AFNE01.JPG,5,1,51,6,,,,,,,,,,,,,,,,,,,,,,,AFSA08.jpg,AFNE09.jpg,AFSA17.jpg,AFNE07.jpg,AFSA17.jpg,FS,4,num_2,16,num_2,0.583668452804,,,2017_Sep_29_1541,59.9986529047,FEMA4ImagesEEG,001,101671,
AFNE01.JPG,AFNE01.JPG,AFNE01.JPG,AFNE01.JPG,AFNE01.JPG,AFNE01.JPG,5,2,52,0,,,,,,,,,,,,,,,,,,,,,,,AFNE06.jpg,AFSA16.jpg,AFSA09.jpg,AFNE12.jpg,AFSA09.jpg,FS,4,num_2,16,num_2,0.916794053745,,,2017_Sep_29_1541,59.9986529047,FEMA4ImagesEEG,001,101671,
AFNE01.JPG,AFNE01.JPG,AFNE01.JPG,AFNE01.JPG,AFNE01.JPG,AFNE01.JPG,5,3,53,5,,,,,,,,,,,,,,,,,,,,,,,AFNE07.jpg,AFSA11.jpg,AFNE01.jpg,AFSA20.jpg,AFNE01.jpg,FN,3,num_2,32,num_8,0.633402655832,,,2017_Sep_29_1541,59.9986529047,FEMA4ImagesEEG,001,101671,
AFNE01.JPG,AFNE01.JPG,AFNE01.JPG,AFNE01.JPG,AFNE01.JPG,AFNE01.JPG,5,4,54,3,,,,,,,,,,,,,,,,,,,,,,,AFSA04.jpg,AFSA05.jpg,AFNE15.jpg,AFNE19.jpg,AFNE15.jpg,FN,3,num_2,16,num_2,0.550175540848,,,2017_Sep_29_1541,59.9986529047,FEMA4ImagesEEG,001,101671,
AFNE01.JPG,AFNE01.JPG,AFNE01.JPG,AFNE01.JPG,AFNE01.JPG,AFNE01.JPG,5,5,55,9,,,,,,,,,,,,,,,,,,,,,,,AFNE09.jpg,AFSA19.jpg,AFNE13.jpg,AFSA09.jpg,AFNE13.jpg,FN,3,num_2,16,num_2,0.616786420112,,,2017_Sep_29_1541,59.9986529047,FEMA4ImagesEEG,001,101671,
AFNE01.JPG,AFNE01.JPG,AFNE01.JPG,AFNE01.JPG,AFNE01.JPG,AFNE01.JPG,5,6,56,2,,,,,,,,,,,,,,,,,,,,,,,AFNE03.jpg,AFNE15.jpg,AFSA09.jpg,AFSA02.jpg,AFNE03.jpg,FN,3,num_8,32,num_6,0.816822727793,,,2017_Sep_29_1541,59.9986529047,FEMA4ImagesEEG,001,101671,
AFNE01.JPG,AFNE01.JPG,AFNE01.JPG,AFNE01.JPG,AFNE01.JPG,AFNE01.JPG,5,7,57,4,,,,,,,,,,,,,,,,,,,,,,,AFSA19.jpg,AFNE15.jpg,AFSA09.jpg,AFNE04.jpg,AFSA09.jpg,FS,4,num_2,32,num_6,0.750099268858,,,2017_Sep_29_1541,59.9986529047,FEMA4ImagesEEG,001,101671,
AFNE01.JPG,AFNE01.JPG,AFNE01.JPG,AFNE01.JPG,AFNE01.JPG,AFNE01.JPG,5,8,58,7,,,,,,,,,,,,,,,,,,,,,,,AFSA11.jpg,AFNE01.jpg,AFSA03.jpg,AFNE04.jpg,AFNE01.jpg,FN,3,num_6,32,num_4,0.816784239141,,,2017_Sep_29_1541,59.9986529047,FEMA4ImagesEEG,001,101671,
AFNE01.JPG,AFNE01.JPG,AFNE01.JPG,AFNE01.JPG,AFNE01.JPG,AFNE01.JPG,5,9,59,1,,,,,,,,,,,,,,,,,,,,,,,AFSA06.jpg,AFNE18.jpg,AFNE19.jpg,AFSA12.jpg,AFNE18.jpg,FN,3,num_6,32,num_4,0.766785425832,,,2017_Sep_29_1541,59.9986529047,FEMA4ImagesEEG,001,101671,
,,,,,,,,,,,,,,,,,,,,,,,,,,,,,,,,,,,,,,,,,,,space,15.449269259,2017_Sep_29_1541,59.9986529047,FEMA4ImagesEEG,001,101671,
AFNE01.JPG,AFNE01.JPG,AFNE01.JPG,AFNE01.JPG,AFNE01.JPG,AFNE01.JPG,,,,,0,0,0,1,,,,,,,,,,,,,,,,,,,AMNE11.jpg,AMSA07.jpg,AMSA10.jpg,AMNE09.jpg,AMSA07.jpg,MS,2,num_6,16,num_6,0.900124575361,,,2017_Sep_29_1541,59.9986529047,FEMA4ImagesEEG,001,101671,
AFNE01.JPG,AFNE01.JPG,AFNE01.JPG,AFNE01.JPG,AFNE01.JPG,AFNE01.JPG,,,,,0,1,1,7,,,,,,,,,,,,,,,,,,,AMNE04.jpg,AMNE10.jpg,AMSA07.jpg,AMSA10.jpg,AMSA10.jpg,MS,2,num_4,32,num_2,0.633494708105,,,2017_Sep_29_1541,59.9986529047,FEMA4ImagesEEG,001,101671,
AFNE01.JPG,AFNE01.JPG,AFNE01.JPG,AFNE01.JPG,AFNE01.JPG,AFNE01.JPG,,,,,0,2,2,9,,,,,,,,,,,,,,,,,,,AMNE20.jpg,AMNE08.jpg,AMSA13.jpg,AMSA18.jpg,AMNE08.jpg,MN,1,num_6,16,num_6,0.683459843625,,,2017_Sep_29_1541,59.9986529047,FEMA4ImagesEEG,001,101671,
AFNE01.JPG,AFNE01.JPG,AFNE01.JPG,AFNE01.JPG,AFNE01.JPG,AFNE01.JPG,,,,,0,3,3,3,,,,,,,,,,,,,,,,,,,AMNE15.jpg,AMSA20.jpg,AMSA02.jpg,AMNE09.jpg,AMNE09.jpg,MN,1,num_4,32,num_8,0.616768779466,,,2017_Sep_29_1541,59.9986529047,FEMA4ImagesEEG,001,101671,
AFNE01.JPG,AFNE01.JPG,AFNE01.JPG,AFNE01.JPG,AFNE01.JPG,AFNE01.JPG,,,,,0,4,4,4,,,,,,,,,,,,,,,,,,,AMNE01.jpg,AMSA03.jpg,AMSA06.jpg,AMNE09.jpg,AMNE01.jpg,MN,1,num_8,16,num_8,0.916797902551,,,2017_Sep_29_1541,59.9986529047,FEMA4ImagesEEG,001,101671,
AFNE01.JPG,AFNE01.JPG,AFNE01.JPG,AFNE01.JPG,AFNE01.JPG,AFNE01.JPG,,,,,0,5,5,0,,,,,,,,,,,,,,,,,,,AMSA15.jpg,AMSA11.jpg,AMNE05.jpg,AMNE04.jpg,AMNE05.jpg,MN,1,num_2,16,num_2,0.45017791423,,,2017_Sep_29_1541,59.9986529047,FEMA4ImagesEEG,001,101671,
AFNE01.JPG,AFNE01.JPG,AFNE01.JPG,AFNE01.JPG,AFNE01.JPG,AFNE01.JPG,,,,,0,6,6,8,,,,,,,,,,,,,,,,,,,AMNE04.jpg,AMNE07.jpg,AMSA01.jpg,AMSA06.jpg,AMNE04.jpg,MN,1,num_8,16,num_8,0.600247482653,,,2017_Sep_29_1541,59.9986529047,FEMA4ImagesEEG,001,101671,
AFNE01.JPG,AFNE01.JPG,AFNE01.JPG,AFNE01.JPG,AFNE01.JPG,AFNE01.JPG,,,,,0,7,7,2,,,,,,,,,,,,,,,,,,,AMNE16.jpg,AMSA14.jpg,AMSA12.jpg,AMNE17.jpg,AMNE16.jpg,MN,1,num_8,16,num_8,0.73347758071,,,2017_Sep_29_1541,59.9986529047,FEMA4ImagesEEG,001,101671,
AFNE01.JPG,AFNE01.JPG,AFNE01.JPG,AFNE01.JPG,AFNE01.JPG,AFNE01.JPG,,,,,0,8,8,6,,,,,,,,,,,,,,,,,,,AMNE05.jpg,AMSA10.jpg,AMNE17.jpg,AMSA04.jpg,AMNE17.jpg,MN,1,num_2,16,num_2,0.666826929548,,,2017_Sep_29_1541,59.9986529047,FEMA4ImagesEEG,001,101671,
AFNE01.JPG,AFNE01.JPG,AFNE01.JPG,AFNE01.JPG,AFNE01.JPG,AFNE01.JPG,,,,,0,9,9,5,,,,,,,,,,,,,,,,,,,AMSA02.jpg,AMSA01.jpg,AMNE10.jpg,AMNE15.jpg,AMNE10.jpg,MN,1,num_2,16,num_2,0.666778818588,,,2017_Sep_29_1541,59.9986529047,FEMA4ImagesEEG,001,101671,
AFNE01.JPG,AFNE01.JPG,AFNE01.JPG,AFNE01.JPG,AFNE01.JPG,AFNE01.JPG,,,,,1,0,10,8,,,,,,,,,,,,,,,,,,,AMNE18.jpg,AMSA06.jpg,AMSA10.jpg,AMNE20.jpg,AMSA06.jpg,MS,2,num_6,16,num_6,0.683486465132,,,2017_Sep_29_1541,59.9986529047,FEMA4ImagesEEG,001,101671,
AFNE01.JPG,AFNE01.JPG,AFNE01.JPG,AFNE01.JPG,AFNE01.JPG,AFNE01.JPG,,,,,1,1,11,4,,,,,,,,,,,,,,,,,,,AMNE19.jpg,AMNE13.jpg,AMSA17.jpg,AMSA09.jpg,AMNE19.jpg,MN,1,num_8,32,num_2,0.600141638657,,,2017_Sep_29_1541,59.9986529047,FEMA4ImagesEEG,001,101671,
AFNE01.JPG,AFNE01.JPG,AFNE01.JPG,AFNE01.JPG,AFNE01.JPG,AFNE01.JPG,,,,,1,2,12,6,,,,,,,,,,,,,,,,,,,AMSA10.jpg,AMNE10.jpg,AMSA14.jpg,AMNE05.jpg,AMSA14.jpg,MS,2,num_2,16,num_2,0.716638430953,,,2017_Sep_29_1541,59.9986529047,FEMA4ImagesEEG,001,101671,
AFNE01.JPG,AFNE01.JPG,AFNE01.JPG,AFNE01.JPG,AFNE01.JPG,AFNE01.JPG,,,,,1,3,13,0,,,,,,,,,,,,,,,,,,,AMNE13.jpg,AMSA17.jpg,AMNE19.jpg,AMSA15.jpg,AMSA15.jpg,MS,2,num_4,16,num_4,0.550158862257,,,2017_Sep_29_1541,59.9986529047,FEMA4ImagesEEG,001,101671,
AFNE01.JPG,AFNE01.JPG,AFNE01.JPG,AFNE01.JPG,AFNE01.JPG,AFNE01.JPG,,,,,1,4,14,9,,,,,,,,,,,,,,,,,,,AMNE10.jpg,AMSA02.jpg,AMNE17.jpg,AMSA14.jpg,AMNE17.jpg,MN,1,num_2,16,num_2,0.633516518399,,,2017_Sep_29_1541,59.9986529047,FEMA4ImagesEEG,001,101671,
AFNE01.JPG,AFNE01.JPG,AFNE01.JPG,AFNE01.JPG,AFNE01.JPG,AFNE01.JPG,,,,,1,5,15,7,,,,,,,,,,,,,,,,,,,AMSA19.jpg,AMNE18.jpg,AMNE13.jpg,AMSA11.jpg,AMSA19.jpg,MS,2,num_8,16,num_8,1.36673429993,,,2017_Sep_29_1541,59.9986529047,FEMA4ImagesEEG,001,101671,
AFNE01.JPG,AFNE01.JPG,AFNE01.JPG,AFNE01.JPG,AFNE01.JPG,AFNE01.JPG,,,,,1,6,16,2,,,,,,,,,,,,,,,,,,,AMSA03.jpg,AMNE12.jpg,AMNE11.jpg,AMSA16.jpg,AMSA16.jpg,MS,2,num_4,32,num_8,0.566854320816,,,2017_Sep_29_1541,59.9986529047,FEMA4ImagesEEG,001,101671,
AFNE01.JPG,AFNE01.JPG,AFNE01.JPG,AFNE01.JPG,AFNE01.JPG,AFNE01.JPG,,,,,1,7,17,3,,,,,,,,,,,,,,,,,,,AMNE06.jpg,AMNE20.jpg,AMSA13.jpg,AMSA16.jpg,AMSA16.jpg,MS,2,num_4,32,num_2,0.716797838453,,,2017_Sep_29_1541,59.9986529047,FEMA4ImagesEEG,001,101671,
AFNE01.JPG,AFNE01.JPG,AFNE01.JPG,AFNE01.JPG,AFNE01.JPG,AFNE01.JPG,,,,,1,8,18,1,,,,,,,,,,,,,,,,,,,AMNE10.jpg,AMSA06.jpg,AMSA15.jpg,AMNE02.jpg,AMNE10.jpg,MN,1,num_8,16,num_8,0.616910225595,,,2017_Sep_29_1541,59.9986529047,FEMA4ImagesEEG,001,101671,
AFNE01.JPG,AFNE01.JPG,AFNE01.JPG,AFNE01.JPG,AFNE01.JPG,AFNE01.JPG,,,,,1,9,19,5,,,,,,,,,,,,,,,,,,,AMSA18.jpg,AMNE18.jpg,AMSA01.jpg,AMNE01.jpg,AMNE01.jpg,MN,1,num_4,32,num_2,0.516825678642,,,2017_Sep_29_1541,59.9986529047,FEMA4ImagesEEG,001,101671,
AFNE01.JPG,AFNE01.JPG,AFNE01.JPG,AFNE01.JPG,AFNE01.JPG,AFNE01.JPG,,,,,2,0,20,8,,,,,,,,,,,,,,,,,,,AMNE15.jpg,AMNE13.jpg,AMSA05.jpg,AMSA04.jpg,AMSA05.jpg,MS,2,num_2,16,num_2,0.433552056318,,,2017_Sep_29_1541,59.9986529047,FEMA4ImagesEEG,001,101671,
AFNE01.JPG,AFNE01.JPG,AFNE01.JPG,AFNE01.JPG,AFNE01.JPG,AFNE01.JPG,,,,,2,1,21,6,,,,,,,,,,,,,,,,,,,AMNE12.jpg,AMNE05.jpg,AMSA13.jpg,AMSA11.jpg,AMNE12.jpg,MN,1,num_8,16,num_8,0.466836808366,,,2017_Sep_29_1541,59.9986529047,FEMA4ImagesEEG,001,101671,
AFNE01.JPG,AFNE01.JPG,AFNE01.JPG,AFNE01.JPG,AFNE01.JPG,AFNE01.JPG,,,,,2,2,22,1,,,,,,,,,,,,,,,,,,,AMSA18.jpg,AMNE14.jpg,AMSA16.jpg,AMNE01.jpg,AMSA18.jpg,MS,2,num_8,32,num_2,0.700369235477,,,2017_Sep_29_1541,59.9986529047,FEMA4ImagesEEG,001,101671,
AFNE01.JPG,AFNE01.JPG,AFNE01.JPG,AFNE01.JPG,AFNE01.JPG,AFNE01.JPG,,,,,2,3,23,5,,,,,,,,,,,,,,,,,,,AMNE17.jpg,AMSA19.jpg,AMSA11.jpg,AMNE18.jpg,AMSA11.jpg,MS,2,num_2,16,num_2,0.966754699009,,,2017_Sep_29_1541,59.9986529047,FEMA4ImagesEEG,001,101671,
AFNE01.JPG,AFNE01.JPG,AFNE01.JPG,AFNE01.JPG,AFNE01.JPG,AFNE01.JPG,,,,,2,4,24,2,,,,,,,,,,,,,,,,,,,AMSA08.jpg,AMNE19.jpg,AMNE04.jpg,AMSA11.jpg,AMSA08.jpg,MS,2,num_8,16,num_8,0.8001471553,,,2017_Sep_29_1541,59.9986529047,FEMA4ImagesEEG,001,101671,
AFNE01.JPG,AFNE01.JPG,AFNE01.JPG,AFNE01.JPG,AFNE01.JPG,AFNE01.JPG,,,,,2,5,25,4,,,,,,,,,,,,,,,,,,,AMSA05.jpg,AMNE03.jpg,AMSA08.jpg,AMNE18.jpg,AMSA08.jpg,MS,2,num_2,16,num_2,0.716768330429,,,2017_Sep_29_1541,59.9986529047,FEMA4ImagesEEG,001,101671,
AFNE01.JPG,AFNE01.JPG,AFNE01.JPG,AFNE01.JPG,AFNE01.JPG,AFNE01.JPG,,,,,2,6,26,9,,,,,,,,,,,,,,,,,,,AMNE13.jpg,AMSA09.jpg,AMNE01.jpg,AMSA16.jpg,AMSA09.jpg,MS,2,num_6,32,num_4,0.516810603905,,,2017_Sep_29_1541,59.9986529047,FEMA4ImagesEEG,001,101671,
AFNE01.JPG,AFNE01.JPG,AFNE01.JPG,AFNE01.JPG,AFNE01.JPG,AFNE01.JPG,,,,,2,7,27,3,,,,,,,,,,,,,,,,,,,AMSA08.jpg,AMSA17.jpg,AMNE02.jpg,AMNE09.jpg,AMNE09.jpg,MN,1,num_4,32,num_6,0.816761466558,,,2017_Sep_29_1541,59.9986529047,FEMA4ImagesEEG,001,101671,
AFNE01.JPG,AFNE01.JPG,AFNE01.JPG,AFNE01.JPG,AFNE01.JPG,AFNE01.JPG,,,,,2,8,28,7,,,,,,,,,,,,,,,,,,,AMNE13.jpg,AMNE16.jpg,AMSA04.jpg,AMSA16.jpg,AMNE16.jpg,MN,1,num_6,32,num_8,0.583476008964,,,2017_Sep_29_1541,59.9986529047,FEMA4ImagesEEG,001,101671,
AFNE01.JPG,AFNE01.JPG,AFNE01.JPG,AFNE01.JPG,AFNE01.JPG,AFNE01.JPG,,,,,2,9,29,0,,,,,,,,,,,,,,,,,,,AMNE02.jpg,AMNE18.jpg,AMSA03.jpg,AMSA13.jpg,AMSA03.jpg,MS,2,num_2,16,num_2,0.400162743288,,,2017_Sep_29_1541,59.9986529047,FEMA4ImagesEEG,001,101671,
AFNE01.JPG,AFNE01.JPG,AFNE01.JPG,AFNE01.JPG,AFNE01.JPG,AFNE01.JPG,,,,,3,0,30,4,,,,,,,,,,,,,,,,,,,AMNE20.jpg,AMSA12.jpg,AMNE06.jpg,AMSA01.jpg,AMSA12.jpg,MS,2,num_6,32,num_8,0.716762236319,,,2017_Sep_29_1541,59.9986529047,FEMA4ImagesEEG,001,101671,
AFNE01.JPG,AFNE01.JPG,AFNE01.JPG,AFNE01.JPG,AFNE01.JPG,AFNE01.JPG,,,,,3,1,31,1,,,,,,,,,,,,,,,,,,,AMNE15.jpg,AMSA02.jpg,AMNE19.jpg,AMSA03.jpg,AMSA02.jpg,MS,2,num_6,16,num_6,0.76681878278,,,2017_Sep_29_1541,59.9986529047,FEMA4ImagesEEG,001,101671,
AFNE01.JPG,AFNE01.JPG,AFNE01.JPG,AFNE01.JPG,AFNE01.JPG,AFNE01.JPG,,,,,3,2,32,2,,,,,,,,,,,,,,,,,,,AMSA18.jpg,AMNE05.jpg,AMSA11.jpg,AMNE06.jpg,AMSA18.jpg,MS,2,num_8,16,num_8,0.633532876032,,,2017_Sep_29_1541,59.9986529047,FEMA4ImagesEEG,001,101671,
AFNE01.JPG,AFNE01.JPG,AFNE01.JPG,AFNE01.JPG,AFNE01.JPG,AFNE01.JPG,,,,,3,3,33,9,,,,,,,,,,,,,,,,,,,AMNE06.jpg,AMSA06.jpg,AMSA18.jpg,AMNE05.jpg,AMSA06.jpg,MS,2,num_6,16,num_6,0.617035314091,,,2017_Sep_29_1541,59.9986529047,FEMA4ImagesEEG,001,101671,
AFNE01.JPG,AFNE01.JPG,AFNE01.JPG,AFNE01.JPG,AFNE01.JPG,AFNE01.JPG,,,,,3,4,34,0,,,,,,,,,,,,,,,,,,,AMNE20.jpg,AMSA09.jpg,AMSA13.jpg,AMNE19.jpg,AMNE20.jpg,MN,1,num_8,16,num_8,1.35007700953,,,2017_Sep_29_1541,59.9986529047,FEMA4ImagesEEG,001,101671,
AFNE01.JPG,AFNE01.JPG,AFNE01.JPG,AFNE01.JPG,AFNE01.JPG,AFNE01.JPG,,,,,3,5,35,8,,,,,,,,,,,,,,,,,,,AMNE05.jpg,AMSA14.jpg,AMSA19.jpg,AMNE12.jpg,AMSA14.jpg,MS,2,num_6,16,num_6,0.566848868155,,,2017_Sep_29_1541,59.9986529047,FEMA4ImagesEEG,001,101671,
AFNE01.JPG,AFNE01.JPG,AFNE01.JPG,AFNE01.JPG,AFNE01.JPG,AFNE01.JPG,,,,,3,6,36,5,,,,,,,,,,,,,,,,,,,AMSA12.jpg,AMNE10.jpg,AMSA14.jpg,AMNE14.jpg,AMSA14.jpg,MS,2,num_2,16,num_2,0.683499615407,,,2017_Sep_29_1541,59.9986529047,FEMA4ImagesEEG,001,101671,
AFNE01.JPG,AFNE01.JPG,AFNE01.JPG,AFNE01.JPG,AFNE01.JPG,AFNE01.JPG,,,,,3,7,37,3,,,,,,,,,,,,,,,,,,,AMNE09.jpg,AMSA17.jpg,AMNE14.jpg,AMSA01.jpg,AMNE14.jpg,MN,1,num_2,32,num_4,0.616792193498,,,2017_Sep_29_1541,59.9986529047,FEMA4ImagesEEG,001,101671,
AFNE01.JPG,AFNE01.JPG,AFNE01.JPG,AFNE01.JPG,AFNE01.JPG,AFNE01.JPG,,,,,3,8,38,7,,,,,,,,,,,,,,,,,,,AMNE18.jpg,AMSA19.jpg,AMNE14.jpg,AMSA08.jpg,AMSA08.jpg,MS,2,num_4,16,num_4,1.1834835785,,,2017_Sep_29_1541,59.9986529047,FEMA4ImagesEEG,001,101671,
AFNE01.JPG,AFNE01.JPG,AFNE01.JPG,AFNE01.JPG,AFNE01.JPG,AFNE01.JPG,,,,,3,9,39,6,,,,,,,,,,,,,,,,,,,AMNE02.jpg,AMSA07.jpg,AMSA06.jpg,AMNE08.jpg,AMSA07.jpg,MS,2,num_6,16,num_6,1.05011941132,,,2017_Sep_29_1541,59.9986529047,FEMA4ImagesEEG,001,101671,
AFNE01.JPG,AFNE01.JPG,AFNE01.JPG,AFNE01.JPG,AFNE01.JPG,AFNE01.JPG,,,,,4,0,40,2,,,,,,,,,,,,,,,,,,,AMSA12.jpg,AMNE15.jpg,AMNE12.jpg,AMSA07.jpg,AMSA12.jpg,MS,2,num_8,32,num_2,0.850124158314,,,2017_Sep_29_1541,59.9986529047,FEMA4ImagesEEG,001,101671,
AFNE01.JPG,AFNE01.JPG,AFNE01.JPG,AFNE01.JPG,AFNE01.JPG,AFNE01.JPG,,,,,4,1,41,5,,,,,,,,,,,,,,,,,,,AMNE03.jpg,AMNE20.jpg,AMSA16.jpg,AMSA12.jpg,AMNE03.jpg,MN,1,num_8,16,num_8,0.716754538589,,,2017_Sep_29_1541,59.9986529047,FEMA4ImagesEEG,001,101671,
AFNE01.JPG,AFNE01.JPG,AFNE01.JPG,AFNE01.JPG,AFNE01.JPG,AFNE01.JPG,,,,,4,2,42,4,,,,,,,,,,,,,,,,,,,AMNE04.jpg,AMSA11.jpg,AMSA02.jpg,AMNE05.jpg,AMSA11.jpg,MS,2,num_6,16,num_6,0.500157803879,,,2017_Sep_29_1541,59.9986529047,FEMA4ImagesEEG,001,101671,
AFNE01.JPG,AFNE01.JPG,AFNE01.JPG,AFNE01.JPG,AFNE01.JPG,AFNE01.JPG,,,,,4,3,43,3,,,,,,,,,,,,,,,,,,,AMNE06.jpg,AMSA11.jpg,AMSA09.jpg,AMNE15.jpg,AMNE06.jpg,MN,1,num_8,32,num_4,0.866751619847,,,2017_Sep_29_1541,59.9986529047,FEMA4ImagesEEG,001,101671,
AFNE01.JPG,AFNE01.JPG,AFNE01.JPG,AFNE01.JPG,AFNE01.JPG,AFNE01.JPG,,,,,4,4,44,9,,,,,,,,,,,,,,,,,,,AMNE08.jpg,AMSA01.jpg,AMNE12.jpg,AMSA11.jpg,AMNE08.jpg,MN,1,num_8,32,num_2,1.01673234347,,,2017_Sep_29_1541,59.9986529047,FEMA4ImagesEEG,001,101671,
AFNE01.JPG,AFNE01.JPG,AFNE01.JPG,AFNE01.JPG,AFNE01.JPG,AFNE01.JPG,,,,,4,5,45,6,,,,,,,,,,,,,,,,,,,AMSA19.jpg,AMSA09.jpg,AMNE07.jpg,AMNE04.jpg,AMNE07.jpg,MN,1,num_2,32,num_4,1.16673968837,,,2017_Sep_29_1541,59.9986529047,FEMA4ImagesEEG,001,101671,
AFNE01.JPG,AFNE01.JPG,AFNE01.JPG,AFNE01.JPG,AFNE01.JPG,AFNE01.JPG,,,,,4,6,46,7,,,,,,,,,,,,,,,,,,,AMSA02.jpg,AMNE07.jpg,AMNE18.jpg,AMSA09.jpg,AMNE18.jpg,MN,1,num_2,32,num_8,0.900106613757,,,2017_Sep_29_1541,59.9986529047,FEMA4ImagesEEG,001,101671,
AFNE01.JPG,AFNE01.JPG,AFNE01.JPG,AFNE01.JPG,AFNE01.JPG,AFNE01.JPG,,,,,4,7,47,1,,,,,,,,,,,,,,,,,,,AMSA10.jpg,AMNE12.jpg,AMSA12.jpg,AMNE02.jpg,AMSA12.jpg,MS,2,num_2,32,num_8,0.866778562078,,,2017_Sep_29_1541,59.9986529047,FEMA4ImagesEEG,001,101671,
AFNE01.JPG,AFNE01.JPG,AFNE01.JPG,AFNE01.JPG,AFNE01.JPG,AFNE01.JPG,,,,,4,8,48,8,,,,,,,,,,,,,,,,,,,AMNE07.jpg,AMNE17.jpg,AMSA12.jpg,AMSA05.jpg,AMNE07.jpg,MN,1,num_8,32,num_6,1.1001105269,,,2017_Sep_29_1541,59.9986529047,FEMA4ImagesEEG,001,101671,
AFNE01.JPG,AFNE01.JPG,AFNE01.JPG,AFNE01.JPG,AFNE01.JPG,AFNE01.JPG,,,,,4,9,49,0,,,,,,,,,,,,,,,,,,,AMNE11.jpg,AMSA05.jpg,AMNE12.jpg,AMSA19.jpg,AMNE12.jpg,MN,1,num_2,32,num_4,0.794058555504,,,2017_Sep_29_1541,59.9986529047,FEMA4ImagesEEG,001,101671,
AFNE01.JPG,AFNE01.JPG,AFNE01.JPG,AFNE01.JPG,AFNE01.JPG,AFNE01.JPG,,,,,5,0,50,3,,,,,,,,,,,,,,,,,,,AMSA15.jpg,AMSA07.jpg,AMNE04.jpg,AMNE01.jpg,AMNE01.jpg,MN,1,num_4,32,num_8,0.650152319227,,,2017_Sep_29_1541,59.9986529047,FEMA4ImagesEEG,001,101671,
AFNE01.JPG,AFNE01.JPG,AFNE01.JPG,AFNE01.JPG,AFNE01.JPG,AFNE01.JPG,,,,,5,1,51,0,,,,,,,,,,,,,,,,,,,AMSA16.jpg,AMNE08.jpg,AMNE04.jpg,AMSA11.jpg,AMSA11.jpg,MS,2,num_4,32,num_8,1.00012220175,,,2017_Sep_29_1541,59.9986529047,FEMA4ImagesEEG,001,101671,
AFNE01.JPG,AFNE01.JPG,AFNE01.JPG,AFNE01.JPG,AFNE01.JPG,AFNE01.JPG,,,,,5,2,52,8,,,,,,,,,,,,,,,,,,,AMSA20.jpg,AMSA07.jpg,AMNE13.jpg,AMNE01.jpg,AMSA20.jpg,MS,2,num_8,16,num_8,0.866748091765,,,2017_Sep_29_1541,59.9986529047,FEMA4ImagesEEG,001,101671,
AFNE01.JPG,AFNE01.JPG,AFNE01.JPG,AFNE01.JPG,AFNE01.JPG,AFNE01.JPG,,,,,5,3,53,6,,,,,,,,,,,,,,,,,,,AMSA02.jpg,AMNE07.jpg,AMNE05.jpg,AMSA10.jpg,AMNE07.jpg,MN,1,num_6,16,num_6,0.733488806523,,,2017_Sep_29_1541,59.9986529047,FEMA4ImagesEEG,001,101671,
AFNE01.JPG,AFNE01.JPG,AFNE01.JPG,AFNE01.JPG,AFNE01.JPG,AFNE01.JPG,,,,,5,4,54,2,,,,,,,,,,,,,,,,,,,AMNE01.jpg,AMSA19.jpg,AMNE03.jpg,AMSA02.jpg,AMNE03.jpg,MN,1,num_2,16,num_2,0.950106389355,,,2017_Sep_29_1541,59.9986529047,FEMA4ImagesEEG,001,101671,
AFNE01.JPG,AFNE01.JPG,AFNE01.JPG,AFNE01.JPG,AFNE01.JPG,AFNE01.JPG,,,,,5,5,55,4,,,,,,,,,,,,,,,,,,,AMNE11.jpg,AMSA13.jpg,AMSA14.jpg,AMNE19.jpg,AMNE11.jpg,MN,1,num_8,16,num_8,0.833506318857,,,2017_Sep_29_1541,59.9986529047,FEMA4ImagesEEG,001,101671,
AFNE01.JPG,AFNE01.JPG,AFNE01.JPG,AFNE01.JPG,AFNE01.JPG,AFNE01.JPG,,,,,5,6,56,9,,,,,,,,,,,,,,,,,,,AMSA02.jpg,AMSA18.jpg,AMNE10.jpg,AMNE19.jpg,AMNE10.jpg,MN,1,num_2,16,num_2,0.700138302986,,,2017_Sep_29_1541,59.9986529047,FEMA4ImagesEEG,001,101671,
AFNE01.JPG,AFNE01.JPG,AFNE01.JPG,AFNE01.JPG,AFNE01.JPG,AFNE01.JPG,,,,,5,7,57,1,,,,,,,,,,,,,,,,,,,AMSA20.jpg,AMNE04.jpg,AMNE03.jpg,AMSA11.jpg,AMNE04.jpg,MN,1,num_6,32,num_2,0.900140291546,,,2017_Sep_29_1541,59.9986529047,FEMA4ImagesEEG,001,101671,
AFNE01.JPG,AFNE01.JPG,AFNE01.JPG,AFNE01.JPG,AFNE01.JPG,AFNE01.JPG,,,,,5,8,58,5,,,,,,,,,,,,,,,,,,,AMSA06.jpg,AMSA03.jpg,AMNE01.jpg,AMNE12.jpg,AMNE01.jpg,MN,1,num_2,32,num_4,0.566750721773,,,2017_Sep_29_1541,59.9986529047,FEMA4ImagesEEG,001,101671,
AFNE01.JPG,AFNE01.JPG,AFNE01.JPG,AFNE01.JPG,AFNE01.JPG,AFNE01.JPG,,,,,5,9,59,7,,,,,,,,,,,,,,,,,,,AMSA04.jpg,AMNE11.jpg,AMSA12.jpg,AMNE16.jpg,AMNE11.jpg,MN,1,num_6,32,num_8,0.616812400054,,,2017_Sep_29_1541,59.9986529047,FEMA4ImagesEEG,001,101671,
,,,,,,,,,,,,,,,,,,,,,,,,,,,,,,,,,,,,,,,,,,,space,8.34962701192,2017_Sep_29_1541,59.9986529047,FEMA4ImagesEEG,001,101671,
AFNE01.JPG,AFNE01.JPG,AFNE01.JPG,AFNE01.JPG,AFNE01.JPG,AFNE01.JPG,,,,,,,,,0,0,0,9,,,,,,,,,,,,,,,AFSA18.jpg,AFNE14.jpg,AFSA08.jpg,AFNE20.jpg,AFNE14.jpg,FN,3,num_6,16,num_6,1.01674453157,,,2017_Sep_29_1541,59.9986529047,FEMA4ImagesEEG,001,101671,
AFNE01.JPG,AFNE01.JPG,AFNE01.JPG,AFNE01.JPG,AFNE01.JPG,AFNE01.JPG,,,,,,,,,0,1,1,0,,,,,,,,,,,,,,,AFSA19.jpg,AFNE11.jpg,AFNE10.jpg,AFSA12.jpg,AFNE10.jpg,FN,3,num_2,16,num_2,0.58348338597,,,2017_Sep_29_1541,59.9986529047,FEMA4ImagesEEG,001,101671,
AFNE01.JPG,AFNE01.JPG,AFNE01.JPG,AFNE01.JPG,AFNE01.JPG,AFNE01.JPG,,,,,,,,,0,2,2,8,,,,,,,,,,,,,,,AFNE07.jpg,AFSA08.jpg,AFNE18.jpg,AFSA02.jpg,AFSA08.jpg,FS,4,num_6,16,num_6,0.783443678403,,,2017_Sep_29_1541,59.9986529047,FEMA4ImagesEEG,001,101671,
AFNE01.JPG,AFNE01.JPG,AFNE01.JPG,AFNE01.JPG,AFNE01.JPG,AFNE01.JPG,,,,,,,,,0,3,3,5,,,,,,,,,,,,,,,AFNE12.jpg,AFSA13.jpg,AFSA16.jpg,AFNE19.jpg,AFSA16.jpg,FS,4,num_2,16,num_2,0.750032234355,,,2017_Sep_29_1541,59.9986529047,FEMA4ImagesEEG,001,101671,
AFNE01.JPG,AFNE01.JPG,AFNE01.JPG,AFNE01.JPG,AFNE01.JPG,AFNE01.JPG,,,,,,,,,0,4,4,4,,,,,,,,,,,,,,,AFNE07.jpg,AFNE05.jpg,AFSA07.jpg,AFSA12.jpg,AFSA07.jpg,FS,4,num_2,32,num_6,0.633463917067,,,2017_Sep_29_1541,59.9986529047,FEMA4ImagesEEG,001,101671,
AFNE01.JPG,AFNE01.JPG,AFNE01.JPG,AFNE01.JPG,AFNE01.JPG,AFNE01.JPG,,,,,,,,,0,5,5,7,,,,,,,,,,,,,,,AFSA15.jpg,AFNE15.jpg,AFSA05.jpg,AFNE12.jpg,AFNE12.jpg,FN,3,num_4,16,num_4,0.933420873829,,,2017_Sep_29_1541,59.9986529047,FEMA4ImagesEEG,001,101671,
AFNE01.JPG,AFNE01.JPG,AFNE01.JPG,AFNE01.JPG,AFNE01.JPG,AFNE01.JPG,,,,,,,,,0,6,6,6,,,,,,,,,,,,,,,AFSA04.jpg,AFSA11.jpg,AFNE01.jpg,AFNE17.jpg,AFNE17.jpg,FN,3,num_4,32,num_8,1.60010507423,,,2017_Sep_29_1541,59.9986529047,FEMA4ImagesEEG,001,101671,
AFNE01.JPG,AFNE01.JPG,AFNE01.JPG,AFNE01.JPG,AFNE01.JPG,AFNE01.JPG,,,,,,,,,0,7,7,2,,,,,,,,,,,,,,,AFNE13.jpg,AFSA16.jpg,AFSA06.jpg,AFNE18.jpg,AFSA16.jpg,FS,4,num_6,32,num_2,0.916605779552,,,2017_Sep_29_1541,59.9986529047,FEMA4ImagesEEG,001,101671,
AFNE01.JPG,AFNE01.JPG,AFNE01.JPG,AFNE01.JPG,AFNE01.JPG,AFNE01.JPG,,,,,,,,,0,8,8,1,,,,,,,,,,,,,,,AFSA16.jpg,AFNE06.jpg,AFSA17.jpg,AFNE10.jpg,AFSA16.jpg,FS,4,num_8,16,num_8,0.916779941181,,,2017_Sep_29_1541,59.9986529047,FEMA4ImagesEEG,001,101671,
AFNE01.JPG,AFNE01.JPG,AFNE01.JPG,AFNE01.JPG,AFNE01.JPG,AFNE01.JPG,,,,,,,,,0,9,9,3,,,,,,,,,,,,,,,AFSA10.jpg,AFNE13.jpg,AFNE12.jpg,AFSA20.jpg,AFSA10.jpg,FS,4,num_8,32,num_4,0.883495509974,,,2017_Sep_29_1541,59.9986529047,FEMA4ImagesEEG,001,101671,
AFNE01.JPG,AFNE01.JPG,AFNE01.JPG,AFNE01.JPG,AFNE01.JPG,AFNE01.JPG,,,,,,,,,1,0,10,7,,,,,,,,,,,,,,,AFSA19.jpg,AFSA16.jpg,AFNE08.jpg,AFNE04.jpg,AFNE08.jpg,FN,3,num_2,32,num_4,0.633352620411,,,2017_Sep_29_1541,59.9986529047,FEMA4ImagesEEG,001,101671,
AFNE01.JPG,AFNE01.JPG,AFNE01.JPG,AFNE01.JPG,AFNE01.JPG,AFNE01.JPG,,,,,,,,,1,1,11,4,,,,,,,,,,,,,,,AFSA16.jpg,AFNE14.jpg,AFSA02.jpg,AFNE19.jpg,AFSA02.jpg,FS,4,num_2,32,num_8,0.716782763717,,,2017_Sep_29_1541,59.9986529047,FEMA4ImagesEEG,001,101671,
AFNE01.JPG,AFNE01.JPG,AFNE01.JPG,AFNE01.JPG,AFNE01.JPG,AFNE01.JPG,,,,,,,,,1,2,12,6,,,,,,,,,,,,,,,AFSA20.jpg,AFNE04.jpg,AFNE07.jpg,AFSA05.jpg,AFSA05.jpg,FS,4,num_4,16,num_4,0.766811726498,,,2017_Sep_29_1541,59.9986529047,FEMA4ImagesEEG,001,101671,
AFNE01.JPG,AFNE01.JPG,AFNE01.JPG,AFNE01.JPG,AFNE01.JPG,AFNE01.JPG,,,,,,,,,1,3,13,2,,,,,,,,,,,,,,,AFNE16.jpg,AFNE05.jpg,AFSA18.jpg,AFSA06.jpg,AFNE16.jpg,FN,3,num_8,16,num_8,0.700191866374,,,2017_Sep_29_1541,59.9986529047,FEMA4ImagesEEG,001,101671,
AFNE01.JPG,AFNE01.JPG,AFNE01.JPG,AFNE01.JPG,AFNE01.JPG,AFNE01.JPG,,,,,,,,,1,4,14,5,,,,,,,,,,,,,,,AFSA01.jpg,AFNE01.jpg,AFSA10.jpg,AFNE08.jpg,AFNE08.jpg,FN,3,num_4,16,num_4,1.11660488148,,,2017_Sep_29_1541,59.9986529047,FEMA4ImagesEEG,001,101671,
AFNE01.JPG,AFNE01.JPG,AFNE01.JPG,AFNE01.JPG,AFNE01.JPG,AFNE01.JPG,,,,,,,,,1,5,15,8,,,,,,,,,,,,,,,AFNE16.jpg,AFSA12.jpg,AFNE09.jpg,AFSA09.jpg,AFNE09.jpg,FN,3,num_2,32,num_6,0.783443999127,,,2017_Sep_29_1541,59.9986529047,FEMA4ImagesEEG,001,101671,
AFNE01.JPG,AFNE01.JPG,AFNE01.JPG,AFNE01.JPG,AFNE01.JPG,AFNE01.JPG,,,,,,,,,1,6,16,9,,,,,,,,,,,,,,,AFSA16.jpg,AFNE15.jpg,AFSA03.jpg,AFNE04.jpg,AFSA03.jpg,FS,4,num_2,16,num_2,0.650065398775,,,2017_Sep_29_1541,59.9986529047,FEMA4ImagesEEG,001,101671,
AFNE01.JPG,AFNE01.JPG,AFNE01.JPG,AFNE01.JPG,AFNE01.JPG,AFNE01.JPG,,,,,,,,,1,7,17,1,,,,,,,,,,,,,,,AFSA18.jpg,AFNE15.jpg,AFSA08.jpg,AFNE17.jpg,AFNE17.jpg,FN,3,num_4,32,num_8,0.783476073062,,,2017_Sep_29_1541,59.9986529047,FEMA4ImagesEEG,001,101671,
AFNE01.JPG,AFNE01.JPG,AFNE01.JPG,AFNE01.JPG,AFNE01.JPG,AFNE01.JPG,,,,,,,,,1,8,18,3,,,,,,,,,,,,,,,AFNE15.jpg,AFNE18.jpg,AFSA02.jpg,AFSA07.jpg,AFNE15.jpg,FN,3,num_8,32,num_6,0.716767688864,,,2017_Sep_29_1541,59.9986529047,FEMA4ImagesEEG,001,101671,
AFNE01.JPG,AFNE01.JPG,AFNE01.JPG,AFNE01.JPG,AFNE01.JPG,AFNE01.JPG,,,,,,,,,1,9,19,0,,,,,,,,,,,,,,,AFNE19.jpg,AFNE12.jpg,AFSA04.jpg,AFSA15.jpg,AFSA15.jpg,FS,4,num_4,16,num_4,0.466827186174,,,2017_Sep_29_1541,59.9986529047,FEMA4ImagesEEG,001,101671,
AFNE01.JPG,AFNE01.JPG,AFNE01.JPG,AFNE01.JPG,AFNE01.JPG,AFNE01.JPG,,,,,,,,,2,0,20,9,,,,,,,,,,,,,,,AFNE16.jpg,AFNE02.jpg,AFSA12.jpg,AFSA19.jpg,AFNE16.jpg,FN,3,num_8,16,num_8,0.683532010182,,,2017_Sep_29_1541,59.9986529047,FEMA4ImagesEEG,001,101671,
AFNE01.JPG,AFNE01.JPG,AFNE01.JPG,AFNE01.JPG,AFNE01.JPG,AFNE01.JPG,,,,,,,,,2,1,21,7,,,,,,,,,,,,,,,AFNE17.jpg,AFSA04.jpg,AFSA17.jpg,AFNE12.jpg,AFNE12.jpg,FN,3,num_4,32,num_8,0.866747450316,,,2017_Sep_29_1541,59.9986529047,FEMA4ImagesEEG,001,101671,
AFNE01.JPG,AFNE01.JPG,AFNE01.JPG,AFNE01.JPG,AFNE01.JPG,AFNE01.JPG,,,,,,,,,2,2,22,0,,,,,,,,,,,,,,,AFNE07.jpg,AFSA01.jpg,AFSA13.jpg,AFNE20.jpg,AFSA01.jpg,FS,4,num_6,16,num_6,0.633530630963,,,2017_Sep_29_1541,59.9986529047,FEMA4ImagesEEG,001,101671,
AFNE01.JPG,AFNE01.JPG,AFNE01.JPG,AFNE01.JPG,AFNE01.JPG,AFNE01.JPG,,,,,,,,,2,3,23,8,,,,,,,,,,,,,,,AFNE20.jpg,AFSA06.jpg,AFNE07.jpg,AFSA15.jpg,AFNE20.jpg,FN,3,num_8,16,num_8,0.766750144423,,,2017_Sep_29_1541,59.9986529047,FEMA4ImagesEEG,001,101671,
AFNE01.JPG,AFNE01.JPG,AFNE01.JPG,AFNE01.JPG,AFNE01.JPG,AFNE01.JPG,,,,,,,,,2,4,24,2,,,,,,,,,,,,,,,AFNE18.jpg,AFSA07.jpg,AFNE20.jpg,AFSA12.jpg,AFNE20.jpg,FN,3,num_2,32,num_8,1.15009202028,,,2017_Sep_29_1541,59.9986529047,FEMA4ImagesEEG,001,101671,
AFNE01.JPG,AFNE01.JPG,AFNE01.JPG,AFNE01.JPG,AFNE01.JPG,AFNE01.JPG,,,,,,,,,2,5,25,3,,,,,,,,,,,,,,,AFSA05.jpg,AFNE04.jpg,AFNE18.jpg,AFSA11.jpg,AFSA05.jpg,FS,4,num_8,32,num_4,0.766791199101,,,2017_Sep_29_1541,59.9986529047,FEMA4ImagesEEG,001,101671,
AFNE01.JPG,AFNE01.JPG,AFNE01.JPG,AFNE01.JPG,AFNE01.JPG,AFNE01.JPG,,,,,,,,,2,6,26,1,,,,,,,,,,,,,,,AFSA11.jpg,AFNE14.jpg,AFSA12.jpg,AFNE19.jpg,AFSA12.jpg,FS,4,num_2,16,num_2,0.63350817922,,,2017_Sep_29_1541,59.9986529047,FEMA4ImagesEEG,001,101671,
AFNE01.JPG,AFNE01.JPG,AFNE01.JPG,AFNE01.JPG,AFNE01.JPG,AFNE01.JPG,,,,,,,,,2,7,27,4,,,,,,,,,,,,,,,AFNE03.jpg,AFNE06.jpg,AFSA01.jpg,AFSA15.jpg,AFNE06.jpg,FN,3,num_6,16,num_6,0.650114792748,,,2017_Sep_29_1541,59.9986529047,FEMA4ImagesEEG,001,101671,
AFNE01.JPG,AFNE01.JPG,AFNE01.JPG,AFNE01.JPG,AFNE01.JPG,AFNE01.JPG,,,,,,,,,2,8,28,5,,,,,,,,,,,,,,,AFSA12.jpg,AFNE02.jpg,AFNE01.jpg,AFSA09.jpg,AFNE02.jpg,FN,3,num_6,16,num_6,0.916822278872,,,2017_Sep_29_1541,59.9986529047,FEMA4ImagesEEG,001,101671,
AFNE01.JPG,AFNE01.JPG,AFNE01.JPG,AFNE01.JPG,AFNE01.JPG,AFNE01.JPG,,,,,,,,,2,9,29,6,,,,,,,,,,,,,,,AFNE12.jpg,AFSA17.jpg,AFNE04.jpg,AFSA10.jpg,AFSA17.jpg,FS,4,num_6,32,num_8,0.81673420372,,,2017_Sep_29_1541,59.9986529047,FEMA4ImagesEEG,001,101671,
AFNE01.JPG,AFNE01.JPG,AFNE01.JPG,AFNE01.JPG,AFNE01.JPG,AFNE01.JPG,,,,,,,,,3,0,30,2,,,,,,,,,,,,,,,AFNE14.jpg,AFSA15.jpg,AFSA14.jpg,AFNE19.jpg,AFSA14.jpg,FS,4,num_2,16,num_2,0.750191321247,,,2017_Sep_29_1541,59.9986529047,FEMA4ImagesEEG,001,101671,
AFNE01.JPG,AFNE01.JPG,AFNE01.JPG,AFNE01.JPG,AFNE01.JPG,AFNE01.JPG,,,,,,,,,3,1,31,5,,,,,,,,,,,,,,,AFSA20.jpg,AFNE19.jpg,AFSA04.jpg,AFNE06.jpg,AFNE06.jpg,FN,3,num_4,32,num_8,0.600120790536,,,2017_Sep_29_1541,59.9986529047,FEMA4ImagesEEG,001,101671,
AFNE01.JPG,AFNE01.JPG,AFNE01.JPG,AFNE01.JPG,AFNE01.JPG,AFNE01.JPG,,,,,,,,,3,2,32,3,,,,,,,,,,,,,,,AFNE04.jpg,AFSA19.jpg,AFNE16.jpg,AFSA07.jpg,AFSA19.jpg,FS,4,num_6,16,num_6,0.433521906845,,,2017_Sep_29_1541,59.9986529047,FEMA4ImagesEEG,001,101671,
AFNE01.JPG,AFNE01.JPG,AFNE01.JPG,AFNE01.JPG,AFNE01.JPG,AFNE01.JPG,,,,,,,,,3,3,33,7,,,,,,,,,,,,,,,AFSA11.jpg,AFNE13.jpg,AFSA14.jpg,AFNE07.jpg,AFNE07.jpg,FN,3,num_4,16,num_4,0.466786772944,,,2017_Sep_29_1541,59.9986529047,FEMA4ImagesEEG,001,101671,
AFNE01.JPG,AFNE01.JPG,AFNE01.JPG,AFNE01.JPG,AFNE01.JPG,AFNE01.JPG,,,,,,,,,3,4,34,6,,,,,,,,,,,,,,,AFNE14.jpg,AFNE05.jpg,AFSA11.jpg,AFSA07.jpg,AFSA11.jpg,FS,4,num_2,32,num_4,0.666758612031,,,2017_Sep_29_1541,59.9986529047,FEMA4ImagesEEG,001,101671,
AFNE01.JPG,AFNE01.JPG,AFNE01.JPG,AFNE01.JPG,AFNE01.JPG,AFNE01.JPG,,,,,,,,,3,5,35,9,,,,,,,,,,,,,,,AFNE02.jpg,AFSA18.jpg,AFNE11.jpg,AFSA09.jpg,AFSA09.jpg,FS,4,num_4,16,num_4,0.73351927672,,,2017_Sep_29_1541,59.9986529047,FEMA4ImagesEEG,001,101671,
AFNE01.JPG,AFNE01.JPG,AFNE01.JPG,AFNE01.JPG,AFNE01.JPG,AFNE01.JPG,,,,,,,,,3,6,36,1,,,,,,,,,,,,,,,AFNE09.jpg,AFNE07.jpg,AFSA14.jpg,AFSA01.jpg,AFNE09.jpg,FN,3,num_8,16,num_8,0.766774199903,,,2017_Sep_29_1541,59.9986529047,FEMA4ImagesEEG,001,101671,
AFNE01.JPG,AFNE01.JPG,AFNE01.JPG,AFNE01.JPG,AFNE01.JPG,AFNE01.JPG,,,,,,,,,3,7,37,8,,,,,,,,,,,,,,,AFSA20.jpg,AFNE13.jpg,AFSA03.jpg,AFNE16.jpg,AFNE13.jpg,FN,3,num_6,32,num_4,1.08313987392,,,2017_Sep_29_1541,59.9986529047,FEMA4ImagesEEG,001,101671,
AFNE01.JPG,AFNE01.JPG,AFNE01.JPG,AFNE01.JPG,AFNE01.JPG,AFNE01.JPG,,,,,,,,,3,8,38,0,,,,,,,,,,,,,,,AFNE13.jpg,AFSA05.jpg,AFSA02.jpg,AFNE09.jpg,AFNE09.jpg,FN,3,num_4,16,num_4,0.500145615777,,,2017_Sep_29_1541,59.9986529047,FEMA4ImagesEEG,001,101671,
AFNE01.JPG,AFNE01.JPG,AFNE01.JPG,AFNE01.JPG,AFNE01.JPG,AFNE01.JPG,,,,,,,,,3,9,39,4,,,,,,,,,,,,,,,AFSA12.jpg,AFSA03.jpg,AFNE16.jpg,AFNE06.jpg,AFSA12.jpg,FS,4,num_8,32,num_2,0.783433735487,,,2017_Sep_29_1541,59.9986529047,FEMA4ImagesEEG,001,101671,
AFNE01.JPG,AFNE01.JPG,AFNE01.JPG,AFNE01.JPG,AFNE01.JPG,AFNE01.JPG,,,,,,,,,4,0,40,0,,,,,,,,,,,,,,,AFSA13.jpg,AFNE18.jpg,AFSA01.jpg,AFNE17.jpg,AFSA01.jpg,FS,4,num_2,16,num_2,0.700161716901,,,2017_Sep_29_1541,59.9986529047,FEMA4ImagesEEG,001,101671,
AFNE01.JPG,AFNE01.JPG,AFNE01.JPG,AFNE01.JPG,AFNE01.JPG,AFNE01.JPG,,,,,,,,,4,1,41,2,,,,,,,,,,,,,,,AFSA03.jpg,AFNE15.jpg,AFSA11.jpg,AFNE17.jpg,AFSA11.jpg,FS,4,num_2,16,num_2,1.10009673506,,,2017_Sep_29_1541,59.9986529047,FEMA4ImagesEEG,001,101671,
AFNE01.JPG,AFNE01.JPG,AFNE01.JPG,AFNE01.JPG,AFNE01.JPG,AFNE01.JPG,,,,,,,,,4,2,42,9,,,,,,,,,,,,,,,AFNE18.jpg,AFSA13.jpg,AFNE04.jpg,AFSA14.jpg,AFNE04.jpg,FN,3,num_2,32,num_8,1.03334440954,,,2017_Sep_29_1541,59.9986529047,FEMA4ImagesEEG,001,101671,
AFNE01.JPG,AFNE01.JPG,AFNE01.JPG,AFNE01.JPG,AFNE01.JPG,AFNE01.JPG,,,,,,,,,4,3,43,8,,,,,,,,,,,,,,,AFNE18.jpg,AFSA13.jpg,AFNE08.jpg,AFSA18.jpg,AFNE08.jpg,FN,3,num_2,32,num_8,0.866759638418,,,2017_Sep_29_1541,59.9986529047,FEMA4ImagesEEG,001,101671,
AFNE01.JPG,AFNE01.JPG,AFNE01.JPG,AFNE01.JPG,AFNE01.JPG,AFNE01.JPG,,,,,,,,,4,4,44,6,,,,,,,,,,,,,,,AFSA19.jpg,AFNE05.jpg,AFNE17.jpg,AFSA18.jpg,AFNE17.jpg,FN,3,num_2,16,num_2,1.08333552512,,,2017_Sep_29_1541,59.9986529047,FEMA4ImagesEEG,001,101671,
AFNE01.JPG,AFNE01.JPG,AFNE01.JPG,AFNE01.JPG,AFNE01.JPG,AFNE01.JPG,,,,,,,,,4,5,45,4,,,,,,,,,,,,,,,AFNE12.jpg,AFNE20.jpg,AFSA18.jpg,AFSA03.jpg,AFNE20.jpg,FN,3,num_6,32,num_8,1.19972615258,,,2017_Sep_29_1541,59.9986529047,FEMA4ImagesEEG,001,101671,
AFNE01.JPG,AFNE01.JPG,AFNE01.JPG,AFNE01.JPG,AFNE01.JPG,AFNE01.JPG,,,,,,,,,4,6,46,7,,,,,,,,,,,,,,,AFSA09.jpg,AFSA20.jpg,AFNE02.jpg,AFNE11.jpg,AFNE02.jpg,FN,3,num_2,32,num_8,0.700154981459,,,2017_Sep_29_1541,59.9986529047,FEMA4ImagesEEG,001,101671,
AFNE01.JPG,AFNE01.JPG,AFNE01.JPG,AFNE01.JPG,AFNE01.JPG,AFNE01.JPG,,,,,,,,,4,7,47,3,,,,,,,,,,,,,,,AFSA02.jpg,AFNE05.jpg,AFNE18.jpg,AFSA19.jpg,AFNE05.jpg,FN,3,num_6,32,num_8,3.48325322324,,,2017_Sep_29_1541,59.9986529047,FEMA4ImagesEEG,001,101671,
AFNE01.JPG,AFNE01.JPG,AFNE01.JPG,AFNE01.JPG,AFNE01.JPG,AFNE01.JPG,,,,,,,,,4,8,48,1,,,,,,,,,,,,,,,AFNE17.jpg,AFSA20.jpg,AFNE13.jpg,AFSA15.jpg,AFSA15.jpg,FS,4,num_4,32,num_6,0.916669927537,,,2017_Sep_29_1541,59.9986529047,FEMA4ImagesEEG,001,101671,
AFNE01.JPG,AFNE01.JPG,AFNE01.JPG,AFNE01.JPG,AFNE01.JPG,AFNE01.JPG,,,,,,,,,4,9,49,5,,,,,,,,,,,,,,,AFNE02.jpg,AFNE03.jpg,AFSA11.jpg,AFSA07.jpg,AFNE03.jpg,FN,3,num_6,32,num_8,0.7169976593,,,2017_Sep_29_1541,59.9986529047,FEMA4ImagesEEG,001,101671,
AFNE01.JPG,AFNE01.JPG,AFNE01.JPG,AFNE01.JPG,AFNE01.JPG,AFNE01.JPG,,,,,,,,,5,0,50,4,,,,,,,,,,,,,,,AFNE12.jpg,AFSA02.jpg,AFNE18.jpg,AFSA16.jpg,AFSA02.jpg,FS,4,num_6,32,num_4,0.916758130887,,,2017_Sep_29_1541,59.9986529047,FEMA4ImagesEEG,001,101671,
AFNE01.JPG,AFNE01.JPG,AFNE01.JPG,AFNE01.JPG,AFNE01.JPG,AFNE01.JPG,,,,,,,,,5,1,51,5,,,,,,,,,,,,,,,AFSA04.jpg,AFSA10.jpg,AFNE06.jpg,AFNE08.jpg,AFNE06.jpg,FN,3,num_2,16,num_2,0.7835979542,,,2017_Sep_29_1541,59.9986529047,FEMA4ImagesEEG,001,101671,
AFNE01.JPG,AFNE01.JPG,AFNE01.JPG,AFNE01.JPG,AFNE01.JPG,AFNE01.JPG,,,,,,,,,5,2,52,2,,,,,,,,,,,,,,,AFSA18.jpg,AFNE10.jpg,AFNE04.jpg,AFSA11.jpg,AFSA11.jpg,FS,4,num_4,32,num_8,0.683481012587,,,2017_Sep_29_1541,59.9986529047,FEMA4ImagesEEG,001,101671,
AFNE01.JPG,AFNE01.JPG,AFNE01.JPG,AFNE01.JPG,AFNE01.JPG,AFNE01.JPG,,,,,,,,,5,3,53,6,,,,,,,,,,,,,,,AFSA13.jpg,AFNE03.jpg,AFNE16.jpg,AFSA02.jpg,AFSA13.jpg,FS,4,num_8,32,num_6,0.860341639025,,,2017_Sep_29_1541,59.9986529047,FEMA4ImagesEEG,001,101671,
AFNE01.JPG,AFNE01.JPG,AFNE01.JPG,AFNE01.JPG,AFNE01.JPG,AFNE01.JPG,,,,,,,,,5,4,54,9,,,,,,,,,,,,,,,AFSA15.jpg,AFNE20.jpg,AFSA03.jpg,AFNE05.jpg,AFNE05.jpg,FN,3,num_4,16,num_4,0.933470909251,,,2017_Sep_29_1541,59.9986529047,FEMA4ImagesEEG,001,101671,
AFNE01.JPG,AFNE01.JPG,AFNE01.JPG,AFNE01.JPG,AFNE01.JPG,AFNE01.JPG,,,,,,,,,5,5,55,1,,,,,,,,,,,,,,,AFSA09.jpg,AFNE16.jpg,AFNE15.jpg,AFSA03.jpg,AFNE16.jpg,FN,3,num_6,16,num_6,0.783443678403,,,2017_Sep_29_1541,59.9986529047,FEMA4ImagesEEG,001,101671,
AFNE01.JPG,AFNE01.JPG,AFNE01.JPG,AFNE01.JPG,AFNE01.JPG,AFNE01.JPG,,,,,,,,,5,6,56,8,,,,,,,,,,,,,,,AFSA13.jpg,AFSA12.jpg,AFNE05.jpg,AFNE07.jpg,AFSA13.jpg,FS,4,num_8,16,num_8,1.18352655752,,,2017_Sep_29_1541,59.9986529047,FEMA4ImagesEEG,001,101671,
AFNE01.JPG,AFNE01.JPG,AFNE01.JPG,AFNE01.JPG,AFNE01.JPG,AFNE01.JPG,,,,,,,,,5,7,57,0,,,,,,,,,,,,,,,AFSA04.jpg,AFNE06.jpg,AFSA05.jpg,AFNE14.jpg,AFSA05.jpg,FS,4,num_2,16,num_2,0.766809481313,,,2017_Sep_29_1541,59.9986529047,FEMA4ImagesEEG,001,101671,
AFNE01.JPG,AFNE01.JPG,AFNE01.JPG,AFNE01.JPG,AFNE01.JPG,AFNE01.JPG,,,,,,,,,5,8,58,7,,,,,,,,,,,,,,,AFNE16.jpg,AFNE14.jpg,AFSA16.jpg,AFSA18.jpg,AFSA16.jpg,FS,4,num_2,32,num_8,0.866776958341,,,2017_Sep_29_1541,59.9986529047,FEMA4ImagesEEG,001,101671,
AFNE01.JPG,AFNE01.JPG,AFNE01.JPG,AFNE01.JPG,AFNE01.JPG,AFNE01.JPG,,,,,,,,,5,9,59,3,,,,,,,,,,,,,,,AFSA15.jpg,AFSA14.jpg,AFNE02.jpg,AFNE05.jpg,AFSA15.jpg,FS,4,num_8,16,num_8,0.816500705318,,,2017_Sep_29_1541,59.9986529047,FEMA4ImagesEEG,001,101671,
,,,,,,,,,,,,,,,,,,,,,,,,,,,,,,,,,,,,,,,,,,,space,10.2326824672,2017_Sep_29_1541,59.9986529047,FEMA4ImagesEEG,001,101671,
AFNE01.JPG,AFNE01.JPG,AFNE01.JPG,AFNE01.JPG,AFNE01.JPG,AFNE01.JPG,,,,,,,,,,,,,0,0,0,8,,,,,,,,,,,AMNE05.jpg,AMSA20.jpg,AMSA10.jpg,AMNE02.jpg,AMSA10.jpg,MS,2,num_2,32,num_4,1.33342869987,,,2017_Sep_29_1541,59.9986529047,FEMA4ImagesEEG,001,101671,
AFNE01.JPG,AFNE01.JPG,AFNE01.JPG,AFNE01.JPG,AFNE01.JPG,AFNE01.JPG,,,,,,,,,,,,,0,1,1,3,,,,,,,,,,,AMNE19.jpg,AMSA01.jpg,AMSA15.jpg,AMNE11.jpg,AMNE19.jpg,MN,1,num_8,16,num_8,0.833471037447,,,2017_Sep_29_1541,59.9986529047,FEMA4ImagesEEG,001,101671,
AFNE01.JPG,AFNE01.JPG,AFNE01.JPG,AFNE01.JPG,AFNE01.JPG,AFNE01.JPG,,,,,,,,,,,,,0,2,2,0,,,,,,,,,,,AMNE16.jpg,AMNE15.jpg,AMSA03.jpg,AMSA08.jpg,AMNE16.jpg,MN,1,num_8,32,num_6,0.816756014014,,,2017_Sep_29_1541,59.9986529047,FEMA4ImagesEEG,001,101671,
AFNE01.JPG,AFNE01.JPG,AFNE01.JPG,AFNE01.JPG,AFNE01.JPG,AFNE01.JPG,,,,,,,,,,,,,0,3,3,4,,,,,,,,,,,AMSA19.jpg,AMNE13.jpg,AMSA02.jpg,AMNE05.jpg,AMSA19.jpg,MS,2,num_8,16,num_8,0.600174354156,,,2017_Sep_29_1541,59.9986529047,FEMA4ImagesEEG,001,101671,
AFNE01.JPG,AFNE01.JPG,AFNE01.JPG,AFNE01.JPG,AFNE01.JPG,AFNE01.JPG,,,,,,,,,,,,,0,4,4,2,,,,,,,,,,,AMSA07.jpg,AMSA16.jpg,AMNE05.jpg,AMNE06.jpg,AMNE05.jpg,MN,1,num_2,16,num_2,0.750150266569,,,2017_Sep_29_1541,59.9986529047,FEMA4ImagesEEG,001,101671,
AFNE01.JPG,AFNE01.JPG,AFNE01.JPG,AFNE01.JPG,AFNE01.JPG,AFNE01.JPG,,,,,,,,,,,,,0,5,5,1,,,,,,,,,,,AMSA07.jpg,AMSA08.jpg,AMNE01.jpg,AMNE05.jpg,AMNE01.jpg,MN,1,num_2,32,num_4,1.59998960805,,,2017_Sep_29_1541,59.9986529047,FEMA4ImagesEEG,001,101671,
AFNE01.JPG,AFNE01.JPG,AFNE01.JPG,AFNE01.JPG,AFNE01.JPG,AFNE01.JPG,,,,,,,,,,,,,0,6,6,9,,,,,,,,,,,AMSA19.jpg,AMNE09.jpg,AMSA11.jpg,AMNE03.jpg,AMSA11.jpg,MS,2,num_2,16,num_2,0.866632946185,,,2017_Sep_29_1541,59.9986529047,FEMA4ImagesEEG,001,101671,
AFNE01.JPG,AFNE01.JPG,AFNE01.JPG,AFNE01.JPG,AFNE01.JPG,AFNE01.JPG,,,,,,,,,,,,,0,7,7,7,,,,,,,,,,,AMNE05.jpg,AMSA11.jpg,AMNE03.jpg,AMSA10.jpg,AMNE03.jpg,MN,1,num_2,16,num_2,0.866644492839,,,2017_Sep_29_1541,59.9986529047,FEMA4ImagesEEG,001,101671,
AFNE01.JPG,AFNE01.JPG,AFNE01.JPG,AFNE01.JPG,AFNE01.JPG,AFNE01.JPG,,,,,,,,,,,,,0,8,8,6,,,,,,,,,,,AMSA03.jpg,AMNE10.jpg,AMSA12.jpg,AMNE04.jpg,AMNE10.jpg,MN,1,num_6,16,num_6,0.933169414056,,,2017_Sep_29_1541,59.9986529047,FEMA4ImagesEEG,001,101671,
AFNE01.JPG,AFNE01.JPG,AFNE01.JPG,AFNE01.JPG,AFNE01.JPG,AFNE01.JPG,,,,,,,,,,,,,0,9,9,5,,,,,,,,,,,AMNE15.jpg,AMSA17.jpg,AMSA03.jpg,AMNE20.jpg,AMNE20.jpg,MN,1,num_4,16,num_4,0.766782218474,,,2017_Sep_29_1541,59.9986529047,FEMA4ImagesEEG,001,101671,
AFNE01.JPG,AFNE01.JPG,AFNE01.JPG,AFNE01.JPG,AFNE01.JPG,AFNE01.JPG,,,,,,,,,,,,,1,0,10,5,,,,,,,,,,,AMNE01.jpg,AMSA01.jpg,AMNE03.jpg,AMSA05.jpg,AMSA01.jpg,MS,2,num_6,16,num_6,0.633512028027,,,2017_Sep_29_1541,59.9986529047,FEMA4ImagesEEG,001,101671,
AFNE01.JPG,AFNE01.JPG,AFNE01.JPG,AFNE01.JPG,AFNE01.JPG,AFNE01.JPG,,,,,,,,,,,,,1,1,11,3,,,,,,,,,,,AMSA07.jpg,AMSA14.jpg,AMNE16.jpg,AMNE05.jpg,AMSA14.jpg,MS,2,num_6,16,num_6,0.600135223707,,,2017_Sep_29_1541,59.9986529047,FEMA4ImagesEEG,001,101671,
AFNE01.JPG,AFNE01.JPG,AFNE01.JPG,AFNE01.JPG,AFNE01.JPG,AFNE01.JPG,,,,,,,,,,,,,1,2,12,0,,,,,,,,,,,AMNE05.jpg,AMNE09.jpg,AMSA07.jpg,AMSA19.jpg,AMNE09.jpg,MN,1,num_6,16,num_6,0.550162390457,,,2017_Sep_29_1541,59.9986529047,FEMA4ImagesEEG,001,101671,
AFNE01.JPG,AFNE01.JPG,AFNE01.JPG,AFNE01.JPG,AFNE01.JPG,AFNE01.JPG,,,,,,,,,,,,,1,3,13,4,,,,,,,,,,,AMNE10.jpg,AMNE08.jpg,AMSA17.jpg,AMSA08.jpg,AMNE08.jpg,MN,1,num_6,32,num_8,0.733466996113,,,2017_Sep_29_1541,59.9986529047,FEMA4ImagesEEG,001,101671,
AFNE01.JPG,AFNE01.JPG,AFNE01.JPG,AFNE01.JPG,AFNE01.JPG,AFNE01.JPG,,,,,,,,,,,,,1,4,14,9,,,,,,,,,,,AMNE01.jpg,AMNE08.jpg,AMSA15.jpg,AMSA08.jpg,AMSA15.jpg,MS,2,num_2,16,num_2,0.699985310086,,,2017_Sep_29_1541,59.9986529047,FEMA4ImagesEEG,001,101671,
AFNE01.JPG,AFNE01.JPG,AFNE01.JPG,AFNE01.JPG,AFNE01.JPG,AFNE01.JPG,,,,,,,,,,,,,1,5,15,6,,,,,,,,,,,AMSA17.jpg,AMNE05.jpg,AMNE09.jpg,AMSA10.jpg,AMSA10.jpg,MS,2,num_4,32,num_6,0.566829303047,,,2017_Sep_29_1541,59.9986529047,FEMA4ImagesEEG,001,101671,
AFNE01.JPG,AFNE01.JPG,AFNE01.JPG,AFNE01.JPG,AFNE01.JPG,AFNE01.JPG,,,,,,,,,,,,,1,6,16,8,,,,,,,,,,,AMNE11.jpg,AMNE15.jpg,AMSA16.jpg,AMSA02.jpg,AMSA02.jpg,MS,2,num_4,32,num_8,0.883440022008,,,2017_Sep_29_1541,59.9986529047,FEMA4ImagesEEG,001,101671,
AFNE01.JPG,AFNE01.JPG,AFNE01.JPG,AFNE01.JPG,AFNE01.JPG,AFNE01.JPG,,,,,,,,,,,,,1,7,17,1,,,,,,,,,,,AMSA03.jpg,AMNE14.jpg,AMSA06.jpg,AMNE04.jpg,AMNE04.jpg,MN,1,num_4,32,num_8,0.81681406789,,,2017_Sep_29_1541,59.9986529047,FEMA4ImagesEEG,001,101671,
AFNE01.JPG,AFNE01.JPG,AFNE01.JPG,AFNE01.JPG,AFNE01.JPG,AFNE01.JPG,,,,,,,,,,,,,1,8,18,2,,,,,,,,,,,AMSA03.jpg,AMNE04.jpg,AMSA20.jpg,AMNE11.jpg,AMSA20.jpg,MS,2,num_2,16,num_2,0.866753223585,,,2017_Sep_29_1541,59.9986529047,FEMA4ImagesEEG,001,101671,
AFNE01.JPG,AFNE01.JPG,AFNE01.JPG,AFNE01.JPG,AFNE01.JPG,AFNE01.JPG,,,,,,,,,,,,,1,9,19,7,,,,,,,,,,,AMSA05.jpg,AMNE09.jpg,AMNE06.jpg,AMSA01.jpg,AMSA01.jpg,MS,2,num_4,16,num_4,0.866794278263,,,2017_Sep_29_1541,59.9986529047,FEMA4ImagesEEG,001,101671,
AFNE01.JPG,AFNE01.JPG,AFNE01.JPG,AFNE01.JPG,AFNE01.JPG,AFNE01.JPG,,,,,,,,,,,,,2,0,20,2,,,,,,,,,,,AMSA11.jpg,AMNE01.jpg,AMSA14.jpg,AMNE17.jpg,AMNE01.jpg,MN,1,num_6,16,num_6,0.700182244182,,,2017_Sep_29_1541,59.9986529047,FEMA4ImagesEEG,001,101671,
AFNE01.JPG,AFNE01.JPG,AFNE01.JPG,AFNE01.JPG,AFNE01.JPG,AFNE01.JPG,,,,,,,,,,,,,2,1,21,9,,,,,,,,,,,AMNE01.jpg,AMNE06.jpg,AMSA01.jpg,AMSA05.jpg,AMNE01.jpg,MN,1,num_8,32,num_2,0.833482584101,,,2017_Sep_29_1541,59.9986529047,FEMA4ImagesEEG,001,101671,
AFNE01.JPG,AFNE01.JPG,AFNE01.JPG,AFNE01.JPG,AFNE01.JPG,AFNE01.JPG,,,,,,,,,,,,,2,2,22,7,,,,,,,,,,,AMSA20.jpg,AMSA19.jpg,AMNE13.jpg,AMNE12.jpg,AMNE12.jpg,MN,1,num_4,32,num_2,0.833501507761,,,2017_Sep_29_1541,59.9986529047,FEMA4ImagesEEG,001,101671,
AFNE01.JPG,AFNE01.JPG,AFNE01.JPG,AFNE01.JPG,AFNE01.JPG,AFNE01.JPG,,,,,,,,,,,,,2,3,23,6,,,,,,,,,,,AMNE16.jpg,AMSA03.jpg,AMNE10.jpg,AMSA15.jpg,AMNE16.jpg,MN,1,num_8,16,num_8,0.650095869089,,,2017_Sep_29_1541,59.9986529047,FEMA4ImagesEEG,001,101671,
AFNE01.JPG,AFNE01.JPG,AFNE01.JPG,AFNE01.JPG,AFNE01.JPG,AFNE01.JPG,,,,,,,,,,,,,2,4,24,4,,,,,,,,,,,AMNE14.jpg,AMNE11.jpg,AMSA05.jpg,AMSA15.jpg,AMNE11.jpg,MN,1,num_6,16,num_6,0.66675925348,,,2017_Sep_29_1541,59.9986529047,FEMA4ImagesEEG,001,101671,
AFNE01.JPG,AFNE01.JPG,AFNE01.JPG,AFNE01.JPG,AFNE01.JPG,AFNE01.JPG,,,,,,,,,,,,,2,5,25,3,,,,,,,,,,,AMSA15.jpg,AMSA18.jpg,AMNE02.jpg,AMNE20.jpg,AMNE20.jpg,MN,1,num_4,32,num_2,0.750003047055,,,2017_Sep_29_1541,59.9986529047,FEMA4ImagesEEG,001,101671,
AFNE01.JPG,AFNE01.JPG,AFNE01.JPG,AFNE01.JPG,AFNE01.JPG,AFNE01.JPG,,,,,,,,,,,,,2,6,26,0,,,,,,,,,,,AMNE13.jpg,AMNE20.jpg,AMSA08.jpg,AMSA13.jpg,AMSA08.jpg,MS,2,num_2,16,num_2,0.533497723052,,,2017_Sep_29_1541,59.9986529047,FEMA4ImagesEEG,001,101671,
AFNE01.JPG,AFNE01.JPG,AFNE01.JPG,AFNE01.JPG,AFNE01.JPG,AFNE01.JPG,,,,,,,,,,,,,2,7,27,1,,,,,,,,,,,AMSA07.jpg,AMSA11.jpg,AMNE06.jpg,AMNE05.jpg,AMSA11.jpg,MS,2,num_6,32,num_8,0.550135127618,,,2017_Sep_29_1541,59.9986529047,FEMA4ImagesEEG,001,101671,
AFNE01.JPG,AFNE01.JPG,AFNE01.JPG,AFNE01.JPG,AFNE01.JPG,AFNE01.JPG,,,,,,,,,,,,,2,8,28,8,,,,,,,,,,,AMSA14.jpg,AMNE13.jpg,AMSA10.jpg,AMNE05.jpg,AMNE05.jpg,MN,1,num_4,32,num_2,0.783501411555,,,2017_Sep_29_1541,59.9986529047,FEMA4ImagesEEG,001,101671,
AFNE01.JPG,AFNE01.JPG,AFNE01.JPG,AFNE01.JPG,AFNE01.JPG,AFNE01.JPG,,,,,,,,,,,,,2,9,29,5,,,,,,,,,,,AMSA16.jpg,AMSA17.jpg,AMNE15.jpg,AMNE02.jpg,AMNE02.jpg,MN,1,num_4,16,num_4,0.73349874944,,,2017_Sep_29_1541,59.9986529047,FEMA4ImagesEEG,001,101671,
AFNE01.JPG,AFNE01.JPG,AFNE01.JPG,AFNE01.JPG,AFNE01.JPG,AFNE01.JPG,,,,,,,,,,,,,3,0,30,5,,,,,,,,,,,AMSA17.jpg,AMNE03.jpg,AMSA18.jpg,AMNE20.jpg,AMSA18.jpg,MS,2,num_2,16,num_2,0.466782924021,,,2017_Sep_29_1541,59.9986529047,FEMA4ImagesEEG,001,101671,
AFNE01.JPG,AFNE01.JPG,AFNE01.JPG,AFNE01.JPG,AFNE01.JPG,AFNE01.JPG,,,,,,,,,,,,,3,1,31,3,,,,,,,,,,,AMSA05.jpg,AMSA03.jpg,AMNE16.jpg,AMNE20.jpg,AMNE16.jpg,MN,1,num_2,32,num_8,0.583300564438,,,2017_Sep_29_1541,59.9986529047,FEMA4ImagesEEG,001,101671,
AFNE01.JPG,AFNE01.JPG,AFNE01.JPG,AFNE01.JPG,AFNE01.JPG,AFNE01.JPG,,,,,,,,,,,,,3,2,32,1,,,,,,,,,,,AMNE03.jpg,AMSA12.jpg,AMNE17.jpg,AMSA01.jpg,AMSA12.jpg,MS,2,num_6,16,num_6,0.750158926472,,,2017_Sep_29_1541,59.9986529047,FEMA4ImagesEEG,001,101671,
AFNE01.JPG,AFNE01.JPG,AFNE01.JPG,AFNE01.JPG,AFNE01.JPG,AFNE01.JPG,,,,,,,,,,,,,3,3,33,6,,,,,,,,,,,AMSA18.jpg,AMNE20.jpg,AMNE14.jpg,AMSA02.jpg,AMNE20.jpg,MN,1,num_6,32,num_4,0.583499102155,,,2017_Sep_29_1541,59.9986529047,FEMA4ImagesEEG,001,101671,
AFNE01.JPG,AFNE01.JPG,AFNE01.JPG,AFNE01.JPG,AFNE01.JPG,AFNE01.JPG,,,,,,,,,,,,,3,4,34,0,,,,,,,,,,,AMSA13.jpg,AMNE20.jpg,AMSA02.jpg,AMNE12.jpg,AMSA02.jpg,MS,2,num_2,16,num_2,0.850115819019,,,2017_Sep_29_1541,59.9986529047,FEMA4ImagesEEG,001,101671,
AFNE01.JPG,AFNE01.JPG,AFNE01.JPG,AFNE01.JPG,AFNE01.JPG,AFNE01.JPG,,,,,,,,,,,,,3,5,35,7,,,,,,,,,,,AMSA05.jpg,AMSA14.jpg,AMNE17.jpg,AMNE20.jpg,AMNE17.jpg,MN,1,num_2,16,num_2,0.600140997092,,,2017_Sep_29_1541,59.9986529047,FEMA4ImagesEEG,001,101671,
AFNE01.JPG,AFNE01.JPG,AFNE01.JPG,AFNE01.JPG,AFNE01.JPG,AFNE01.JPG,,,,,,,,,,,,,3,6,36,4,,,,,,,,,,,AMNE02.jpg,AMNE20.jpg,AMSA18.jpg,AMSA15.jpg,AMNE20.jpg,MN,1,num_6,16,num_6,0.716593206627,,,2017_Sep_29_1541,59.9986529047,FEMA4ImagesEEG,001,101671,
AFNE01.JPG,AFNE01.JPG,AFNE01.JPG,AFNE01.JPG,AFNE01.JPG,AFNE01.JPG,,,,,,,,,,,,,3,7,37,9,,,,,,,,,,,AMNE07.jpg,AMNE13.jpg,AMSA13.jpg,AMSA02.jpg,AMNE13.jpg,MN,1,num_6,32,num_2,0.816776220687,,,2017_Sep_29_1541,59.9986529047,FEMA4ImagesEEG,001,101671,
AFNE01.JPG,AFNE01.JPG,AFNE01.JPG,AFNE01.JPG,AFNE01.JPG,AFNE01.JPG,,,,,,,,,,,,,3,8,38,2,,,,,,,,,,,AMSA16.jpg,AMNE07.jpg,AMSA03.jpg,AMNE05.jpg,AMSA03.jpg,MS,2,num_2,16,num_2,0.500144974329,,,2017_Sep_29_1541,59.9986529047,FEMA4ImagesEEG,001,101671,
AFNE01.JPG,AFNE01.JPG,AFNE01.JPG,AFNE01.JPG,AFNE01.JPG,AFNE01.JPG,,,,,,,,,,,,,3,9,39,8,,,,,,,,,,,AMNE06.jpg,AMSA06.jpg,AMNE04.jpg,AMSA11.jpg,AMNE06.jpg,MN,1,num_8,16,num_8,0.566791776451,,,2017_Sep_29_1541,59.9986529047,FEMA4ImagesEEG,001,101671,
AFNE01.JPG,AFNE01.JPG,AFNE01.JPG,AFNE01.JPG,AFNE01.JPG,AFNE01.JPG,,,,,,,,,,,,,4,0,40,3,,,,,,,,,,,AMNE17.jpg,AMNE13.jpg,AMSA12.jpg,AMSA01.jpg,AMSA01.jpg,MS,2,num_4,16,num_4,0.783473827993,,,2017_Sep_29_1541,59.9986529047,FEMA4ImagesEEG,001,101671,
AFNE01.JPG,AFNE01.JPG,AFNE01.JPG,AFNE01.JPG,AFNE01.JPG,AFNE01.JPG,,,,,,,,,,,,,4,1,41,2,,,,,,,,,,,AMNE19.jpg,AMNE05.jpg,AMSA13.jpg,AMSA09.jpg,AMNE19.jpg,MN,1,num_8,16,num_8,0.633479954093,,,2017_Sep_29_1541,59.9986529047,FEMA4ImagesEEG,001,101671,
AFNE01.JPG,AFNE01.JPG,AFNE01.JPG,AFNE01.JPG,AFNE01.JPG,AFNE01.JPG,,,,,,,,,,,,,4,2,42,1,,,,,,,,,,,AMSA07.jpg,AMSA02.jpg,AMNE04.jpg,AMNE05.jpg,AMNE04.jpg,MN,1,num_2,16,num_2,0.733485919889,,,2017_Sep_29_1541,59.9986529047,FEMA4ImagesEEG,001,101671,
AFNE01.JPG,AFNE01.JPG,AFNE01.JPG,AFNE01.JPG,AFNE01.JPG,AFNE01.JPG,,,,,,,,,,,,,4,3,43,8,,,,,,,,,,,AMSA04.jpg,AMSA07.jpg,AMNE11.jpg,AMNE20.jpg,AMNE11.jpg,MN,1,num_2,16,num_2,0.80015741894,,,2017_Sep_29_1541,59.9986529047,FEMA4ImagesEEG,001,101671,
AFNE01.JPG,AFNE01.JPG,AFNE01.JPG,AFNE01.JPG,AFNE01.JPG,AFNE01.JPG,,,,,,,,,,,,,4,4,44,4,,,,,,,,,,,AMSA05.jpg,AMNE13.jpg,AMNE20.jpg,AMSA04.jpg,AMSA04.jpg,MS,2,num_4,32,num_8,2.16673904692,,,2017_Sep_29_1541,59.9986529047,FEMA4ImagesEEG,001,101671,
AFNE01.JPG,AFNE01.JPG,AFNE01.JPG,AFNE01.JPG,AFNE01.JPG,AFNE01.JPG,,,,,,,,,,,,,4,5,45,6,,,,,,,,,,,AMSA07.jpg,AMSA06.jpg,AMNE11.jpg,AMNE12.jpg,AMSA06.jpg,MS,2,num_6,16,num_6,0.566801398643,,,2017_Sep_29_1541,59.9986529047,FEMA4ImagesEEG,001,101671,
AFNE01.JPG,AFNE01.JPG,AFNE01.JPG,AFNE01.JPG,AFNE01.JPG,AFNE01.JPG,,,,,,,,,,,,,4,6,46,9,,,,,,,,,,,AMSA20.jpg,AMNE18.jpg,AMNE12.jpg,AMSA03.jpg,AMNE18.jpg,MN,1,num_6,16,num_6,0.550145391258,,,2017_Sep_29_1541,59.9986529047,FEMA4ImagesEEG,001,101671,
AFNE01.JPG,AFNE01.JPG,AFNE01.JPG,AFNE01.JPG,AFNE01.JPG,AFNE01.JPG,,,,,,,,,,,,,4,7,47,5,,,,,,,,,,,AMSA07.jpg,AMNE13.jpg,AMSA18.jpg,AMNE14.jpg,AMNE14.jpg,MN,1,num_4,16,num_4,0.666803836357,,,2017_Sep_29_1541,59.9986529047,FEMA4ImagesEEG,001,101671,
AFNE01.JPG,AFNE01.JPG,AFNE01.JPG,AFNE01.JPG,AFNE01.JPG,AFNE01.JPG,,,,,,,,,,,,,4,8,48,0,,,,,,,,,,,AMSA11.jpg,AMNE09.jpg,AMSA04.jpg,AMNE05.jpg,AMNE09.jpg,MN,1,num_6,16,num_6,0.766785746673,,,2017_Sep_29_1541,59.9986529047,FEMA4ImagesEEG,001,101671,
AFNE01.JPG,AFNE01.JPG,AFNE01.JPG,AFNE01.JPG,AFNE01.JPG,AFNE01.JPG,,,,,,,,,,,,,4,9,49,7,,,,,,,,,,,AMNE02.jpg,AMSA19.jpg,AMSA17.jpg,AMNE12.jpg,AMNE02.jpg,MN,1,num_8,16,num_8,0.683502822882,,,2017_Sep_29_1541,59.9986529047,FEMA4ImagesEEG,001,101671,
AFNE01.JPG,AFNE01.JPG,AFNE01.JPG,AFNE01.JPG,AFNE01.JPG,AFNE01.JPG,,,,,,,,,,,,,5,0,50,5,,,,,,,,,,,AMNE18.jpg,AMSA09.jpg,AMSA20.jpg,AMNE20.jpg,AMSA09.jpg,MS,2,num_6,32,num_2,0.816789050237,,,2017_Sep_29_1541,59.9986529047,FEMA4ImagesEEG,001,101671,
AFNE01.JPG,AFNE01.JPG,AFNE01.JPG,AFNE01.JPG,AFNE01.JPG,AFNE01.JPG,,,,,,,,,,,,,5,1,51,3,,,,,,,,,,,AMNE19.jpg,AMSA12.jpg,AMSA01.jpg,AMNE20.jpg,AMNE19.jpg,MN,1,num_8,32,num_4,2.03339091677,,,2017_Sep_29_1541,59.9986529047,FEMA4ImagesEEG,001,101671,
AFNE01.JPG,AFNE01.JPG,AFNE01.JPG,AFNE01.JPG,AFNE01.JPG,AFNE01.JPG,,,,,,,,,,,,,5,2,52,0,,,,,,,,,,,AMNE04.jpg,AMSA18.jpg,AMSA19.jpg,AMNE16.jpg,AMNE04.jpg,MN,1,num_8,32,num_2,0.800129835377,,,2017_Sep_29_1541,59.9986529047,FEMA4ImagesEEG,001,101671,
AFNE01.JPG,AFNE01.JPG,AFNE01.JPG,AFNE01.JPG,AFNE01.JPG,AFNE01.JPG,,,,,,,,,,,,,5,3,53,4,,,,,,,,,,,AMSA13.jpg,AMNE17.jpg,AMSA05.jpg,AMNE16.jpg,AMNE17.jpg,MN,1,num_6,32,num_4,0.683464013389,,,2017_Sep_29_1541,59.9986529047,FEMA4ImagesEEG,001,101671,
AFNE01.JPG,AFNE01.JPG,AFNE01.JPG,AFNE01.JPG,AFNE01.JPG,AFNE01.JPG,,,,,,,,,,,,,5,4,54,8,,,,,,,,,,,AMSA20.jpg,AMNE03.jpg,AMNE09.jpg,AMSA11.jpg,AMSA11.jpg,MS,2,num_4,16,num_4,0.68346914521,,,2017_Sep_29_1541,59.9986529047,FEMA4ImagesEEG,001,101671,
AFNE01.JPG,AFNE01.JPG,AFNE01.JPG,AFNE01.JPG,AFNE01.JPG,AFNE01.JPG,,,,,,,,,,,,,5,5,55,6,,,,,,,,,,,AMSA18.jpg,AMNE11.jpg,AMNE12.jpg,AMSA09.jpg,AMNE12.jpg,MN,1,num_2,16,num_2,0.616835813969,,,2017_Sep_29_1541,59.9986529047,FEMA4ImagesEEG,001,101671,
AFNE01.JPG,AFNE01.JPG,AFNE01.JPG,AFNE01.JPG,AFNE01.JPG,AFNE01.JPG,,,,,,,,,,,,,5,6,56,7,,,,,,,,,,,AMSA05.jpg,AMSA14.jpg,AMNE15.jpg,AMNE04.jpg,AMNE04.jpg,MN,1,num_4,32,num_8,0.699995253002,,,2017_Sep_29_1541,59.9986529047,FEMA4ImagesEEG,001,101671,
AFNE01.JPG,AFNE01.JPG,AFNE01.JPG,AFNE01.JPG,AFNE01.JPG,AFNE01.JPG,,,,,,,,,,,,,5,7,57,9,,,,,,,,,,,AMNE08.jpg,AMSA07.jpg,AMNE20.jpg,AMSA11.jpg,AMSA11.jpg,MS,2,num_4,16,num_4,0.666759894928,,,2017_Sep_29_1541,59.9986529047,FEMA4ImagesEEG,001,101671,
AFNE01.JPG,AFNE01.JPG,AFNE01.JPG,AFNE01.JPG,AFNE01.JPG,AFNE01.JPG,,,,,,,,,,,,,5,8,58,2,,,,,,,,,,,AMNE03.jpg,AMSA01.jpg,AMSA03.jpg,AMNE05.jpg,AMNE05.jpg,MN,1,num_4,16,num_4,0.883446757565,,,2017_Sep_29_1541,59.9986529047,FEMA4ImagesEEG,001,101671,
AFNE01.JPG,AFNE01.JPG,AFNE01.JPG,AFNE01.JPG,AFNE01.JPG,AFNE01.JPG,,,,,,,,,,,,,5,9,59,1,,,,,,,,,,,AMNE12.jpg,AMSA05.jpg,AMNE17.jpg,AMSA08.jpg,AMSA05.jpg,MS,2,num_6,32,num_2,1.18344380683,,,2017_Sep_29_1541,59.9986529047,FEMA4ImagesEEG,001,101671,
,,,,,,,,,,,,,,,,,,,,,,,,,,,,,,,,,,,,,,,,,,,space,20.948527709,2017_Sep_29_1541,59.9986529047,FEMA4ImagesEEG,001,101671,
AFNE01.JPG,AFNE01.JPG,AFNE01.JPG,AFNE01.JPG,AFNE01.JPG,AFNE01.JPG,,,,,,,,,,,,,,,,,0,0,0,2,,,,,,,AFSA16.jpg,AFNE01.jpg,AFNE14.jpg,AFSA18.jpg,AFSA16.jpg,FS,4,num_8,32,num_4,0.533489063149,,,2017_Sep_29_1541,59.9986529047,FEMA4ImagesEEG,001,101671,
AFNE01.JPG,AFNE01.JPG,AFNE01.JPG,AFNE01.JPG,AFNE01.JPG,AFNE01.JPG,,,,,,,,,,,,,,,,,0,1,1,3,,,,,,,AFSA11.jpg,AFNE04.jpg,AFSA04.jpg,AFNE02.jpg,AFNE02.jpg,FN,3,num_4,32,num_6,1.01676473813,,,2017_Sep_29_1541,59.9986529047,FEMA4ImagesEEG,001,101671,
AFNE01.JPG,AFNE01.JPG,AFNE01.JPG,AFNE01.JPG,AFNE01.JPG,AFNE01.JPG,,,,,,,,,,,,,,,,,0,2,2,4,,,,,,,AFNE05.jpg,AFSA02.jpg,AFNE17.jpg,AFSA17.jpg,AFSA02.jpg,FS,4,num_6,16,num_6,0.41677833756,,,2017_Sep_29_1541,59.9986529047,FEMA4ImagesEEG,001,101671,
AFNE01.JPG,AFNE01.JPG,AFNE01.JPG,AFNE01.JPG,AFNE01.JPG,AFNE01.JPG,,,,,,,,,,,,,,,,,0,3,3,1,,,,,,,AFNE16.jpg,AFSA09.jpg,AFSA04.jpg,AFNE18.jpg,AFSA09.jpg,FS,4,num_6,16,num_6,0.666807685164,,,2017_Sep_29_1541,59.9986529047,FEMA4ImagesEEG,001,101671,
AFNE01.JPG,AFNE01.JPG,AFNE01.JPG,AFNE01.JPG,AFNE01.JPG,AFNE01.JPG,,,,,,,,,,,,,,,,,0,4,4,9,,,,,,,AFSA01.jpg,AFNE15.jpg,AFSA17.jpg,AFNE17.jpg,AFNE17.jpg,FN,3,num_4,16,num_4,0.816789370961,,,2017_Sep_29_1541,59.9986529047,FEMA4ImagesEEG,001,101671,
AFNE01.JPG,AFNE01.JPG,AFNE01.JPG,AFNE01.JPG,AFNE01.JPG,AFNE01.JPG,,,,,,,,,,,,,,,,,0,5,5,8,,,,,,,AFNE18.jpg,AFSA03.jpg,AFNE05.jpg,AFSA17.jpg,AFNE18.jpg,FN,3,num_8,16,num_8,0.950109917438,,,2017_Sep_29_1541,59.9986529047,FEMA4ImagesEEG,001,101671,
AFNE01.JPG,AFNE01.JPG,AFNE01.JPG,AFNE01.JPG,AFNE01.JPG,AFNE01.JPG,,,,,,,,,,,,,,,,,0,6,6,0,,,,,,,AFNE13.jpg,AFNE02.jpg,AFSA11.jpg,AFSA16.jpg,AFSA16.jpg,FS,4,num_4,16,num_4,0.816740618553,,,2017_Sep_29_1541,59.9986529047,FEMA4ImagesEEG,001,101671,
AFNE01.JPG,AFNE01.JPG,AFNE01.JPG,AFNE01.JPG,AFNE01.JPG,AFNE01.JPG,,,,,,,,,,,,,,,,,0,7,7,6,,,,,,,AFNE18.jpg,AFSA10.jpg,AFNE20.jpg,AFSA14.jpg,AFSA14.jpg,FS,4,num_4,16,num_4,0.516763455234,,,2017_Sep_29_1541,59.9986529047,FEMA4ImagesEEG,001,101671,
AFNE01.JPG,AFNE01.JPG,AFNE01.JPG,AFNE01.JPG,AFNE01.JPG,AFNE01.JPG,,,,,,,,,,,,,,,,,0,8,8,5,,,,,,,AFSA14.jpg,AFNE06.jpg,AFSA03.jpg,AFNE20.jpg,AFSA14.jpg,FS,4,num_8,16,num_8,0.733525050106,,,2017_Sep_29_1541,59.9986529047,FEMA4ImagesEEG,001,101671,
AFNE01.JPG,AFNE01.JPG,AFNE01.JPG,AFNE01.JPG,AFNE01.JPG,AFNE01.JPG,,,,,,,,,,,,,,,,,0,9,9,7,,,,,,,AFNE10.jpg,AFNE04.jpg,AFSA01.jpg,AFSA03.jpg,AFNE04.jpg,FN,3,num_6,32,num_8,0.850005805376,,,2017_Sep_29_1541,59.9986529047,FEMA4ImagesEEG,001,101671,
AFNE01.JPG,AFNE01.JPG,AFNE01.JPG,AFNE01.JPG,AFNE01.JPG,AFNE01.JPG,,,,,,,,,,,,,,,,,1,0,10,5,,,,,,,AFNE19.jpg,AFSA20.jpg,AFNE14.jpg,AFSA19.jpg,AFNE14.jpg,FN,3,num_2,32,num_6,1.30017794634,,,2017_Sep_29_1541,59.9986529047,FEMA4ImagesEEG,001,101671,
AFNE01.JPG,AFNE01.JPG,AFNE01.JPG,AFNE01.JPG,AFNE01.JPG,AFNE01.JPG,,,,,,,,,,,,,,,,,1,1,11,8,,,,,,,AFSA17.jpg,AFSA13.jpg,AFNE13.jpg,AFNE20.jpg,AFSA13.jpg,FS,4,num_6,32,num_2,0.650109019363,,,2017_Sep_29_1541,59.9986529047,FEMA4ImagesEEG,001,101671,
AFNE01.JPG,AFNE01.JPG,AFNE01.JPG,AFNE01.JPG,AFNE01.JPG,AFNE01.JPG,,,,,,,,,,,,,,,,,1,2,12,2,,,,,,,AFNE08.jpg,AFSA13.jpg,AFSA04.jpg,AFNE18.jpg,AFSA13.jpg,FS,4,num_6,16,num_6,0.550199917052,,,2017_Sep_29_1541,59.9986529047,FEMA4ImagesEEG,001,101671,
AFNE01.JPG,AFNE01.JPG,AFNE01.JPG,AFNE01.JPG,AFNE01.JPG,AFNE01.JPG,,,,,,,,,,,,,,,,,1,3,13,3,,,,,,,AFNE03.jpg,AFSA20.jpg,AFSA08.jpg,AFNE10.jpg,AFNE10.jpg,FN,3,num_4,16,num_4,0.716762877768,,,2017_Sep_29_1541,59.9986529047,FEMA4ImagesEEG,001,101671,
AFNE01.JPG,AFNE01.JPG,AFNE01.JPG,AFNE01.JPG,AFNE01.JPG,AFNE01.JPG,,,,,,,,,,,,,,,,,1,4,14,0,,,,,,,AFSA18.jpg,AFNE02.jpg,AFSA06.jpg,AFNE18.jpg,AFNE02.jpg,FN,3,num_6,32,num_4,1.16674097127,,,2017_Sep_29_1541,59.9986529047,FEMA4ImagesEEG,001,101671,
AFNE01.JPG,AFNE01.JPG,AFNE01.JPG,AFNE01.JPG,AFNE01.JPG,AFNE01.JPG,,,,,,,,,,,,,,,,,1,5,15,1,,,,,,,AFNE07.jpg,AFNE18.jpg,AFSA03.jpg,AFSA01.jpg,AFNE18.jpg,FN,3,num_6,32,num_8,1.50006158196,,,2017_Sep_29_1541,59.9986529047,FEMA4ImagesEEG,001,101671,
AFNE01.JPG,AFNE01.JPG,AFNE01.JPG,AFNE01.JPG,AFNE01.JPG,AFNE01.JPG,,,,,,,,,,,,,,,,,1,6,16,9,,,,,,,AFNE07.jpg,AFSA08.jpg,AFNE10.jpg,AFSA01.jpg,AFSA08.jpg,FS,4,num_6,32,num_4,1.70004817506,,,2017_Sep_29_1541,59.9986529047,FEMA4ImagesEEG,001,101671,
AFNE01.JPG,AFNE01.JPG,AFNE01.JPG,AFNE01.JPG,AFNE01.JPG,AFNE01.JPG,,,,,,,,,,,,,,,,,1,7,17,6,,,,,,,AFSA06.jpg,AFSA03.jpg,AFNE07.jpg,AFNE05.jpg,AFSA06.jpg,FS,4,num_8,32,num_4,1.30042427441,,,2017_Sep_29_1541,59.9986529047,FEMA4ImagesEEG,001,101671,
AFNE01.JPG,AFNE01.JPG,AFNE01.JPG,AFNE01.JPG,AFNE01.JPG,AFNE01.JPG,,,,,,,,,,,,,,,,,1,8,18,4,,,,,,,AFSA07.jpg,AFNE16.jpg,AFNE01.jpg,AFSA01.jpg,AFNE16.jpg,FN,3,num_6,32,num_4,0.800010841107,,,2017_Sep_29_1541,59.9986529047,FEMA4ImagesEEG,001,101671,
AFNE01.JPG,AFNE01.JPG,AFNE01.JPG,AFNE01.JPG,AFNE01.JPG,AFNE01.JPG,,,,,,,,,,,,,,,,,1,9,19,7,,,,,,,AFNE13.jpg,AFSA09.jpg,AFSA06.jpg,AFNE16.jpg,AFNE13.jpg,FN,3,num_8,16,num_8,0.666789082345,,,2017_Sep_29_1541,59.9986529047,FEMA4ImagesEEG,001,101671,
AFNE01.JPG,AFNE01.JPG,AFNE01.JPG,AFNE01.JPG,AFNE01.JPG,AFNE01.JPG,,,,,,,,,,,,,,,,,2,0,20,0,,,,,,,AFSA02.jpg,AFNE19.jpg,AFSA08.jpg,AFNE03.jpg,AFSA02.jpg,FS,4,num_8,16,num_8,0.583501347341,,,2017_Sep_29_1541,59.9986529047,FEMA4ImagesEEG,001,101671,
AFNE01.JPG,AFNE01.JPG,AFNE01.JPG,AFNE01.JPG,AFNE01.JPG,AFNE01.JPG,,,,,,,,,,,,,,,,,2,1,21,7,,,,,,,AFSA03.jpg,AFNE01.jpg,AFSA02.jpg,AFNE20.jpg,AFSA02.jpg,FS,4,num_2,16,num_2,0.700140868896,,,2017_Sep_29_1541,59.9986529047,FEMA4ImagesEEG,001,101671,
AFNE01.JPG,AFNE01.JPG,AFNE01.JPG,AFNE01.JPG,AFNE01.JPG,AFNE01.JPG,,,,,,,,,,,,,,,,,2,2,22,1,,,,,,,AFSA17.jpg,AFNE18.jpg,AFNE11.jpg,AFSA19.jpg,AFNE18.jpg,FN,3,num_6,32,num_8,0.600172108971,,,2017_Sep_29_1541,59.9986529047,FEMA4ImagesEEG,001,101671,
AFNE01.JPG,AFNE01.JPG,AFNE01.JPG,AFNE01.JPG,AFNE01.JPG,AFNE01.JPG,,,,,,,,,,,,,,,,,2,3,23,4,,,,,,,AFSA05.jpg,AFNE11.jpg,AFSA19.jpg,AFNE07.jpg,AFSA19.jpg,FS,4,num_2,16,num_2,0.700192187098,,,2017_Sep_29_1541,59.9986529047,FEMA4ImagesEEG,001,101671,
AFNE01.JPG,AFNE01.JPG,AFNE01.JPG,AFNE01.JPG,AFNE01.JPG,AFNE01.JPG,,,,,,,,,,,,,,,,,2,4,24,5,,,,,,,AFNE11.jpg,AFNE03.jpg,AFSA18.jpg,AFSA14.jpg,AFSA18.jpg,FS,4,num_2,16,num_2,0.483625281253,,,2017_Sep_29_1541,59.9986529047,FEMA4ImagesEEG,001,101671,
AFNE01.JPG,AFNE01.JPG,AFNE01.JPG,AFNE01.JPG,AFNE01.JPG,AFNE01.JPG,,,,,,,,,,,,,,,,,2,5,25,6,,,,,,,AFNE04.jpg,AFSA01.jpg,AFNE18.jpg,AFSA19.jpg,AFNE18.jpg,FN,3,num_2,16,num_2,0.466840657173,,,2017_Sep_29_1541,59.9986529047,FEMA4ImagesEEG,001,101671,
AFNE01.JPG,AFNE01.JPG,AFNE01.JPG,AFNE01.JPG,AFNE01.JPG,AFNE01.JPG,,,,,,,,,,,,,,,,,2,6,26,9,,,,,,,AFNE01.jpg,AFSA18.jpg,AFSA14.jpg,AFNE20.jpg,AFNE01.jpg,FN,3,num_8,32,num_2,0.533522740705,,,2017_Sep_29_1541,59.9986529047,FEMA4ImagesEEG,001,101671,
AFNE01.JPG,AFNE01.JPG,AFNE01.JPG,AFNE01.JPG,AFNE01.JPG,AFNE01.JPG,,,,,,,,,,,,,,,,,2,7,27,2,,,,,,,AFSA02.jpg,AFSA04.jpg,AFNE07.jpg,AFNE08.jpg,AFNE08.jpg,FN,3,num_4,32,num_2,0.683436429827,,,2017_Sep_29_1541,59.9986529047,FEMA4ImagesEEG,001,101671,
AFNE01.JPG,AFNE01.JPG,AFNE01.JPG,AFNE01.JPG,AFNE01.JPG,AFNE01.JPG,,,,,,,,,,,,,,,,,2,8,28,3,,,,,,,AFNE20.jpg,AFNE01.jpg,AFSA14.jpg,AFSA19.jpg,AFSA19.jpg,FS,4,num_4,16,num_4,0.617017994169,,,2017_Sep_29_1541,59.9986529047,FEMA4ImagesEEG,001,101671,
AFNE01.JPG,AFNE01.JPG,AFNE01.JPG,AFNE01.JPG,AFNE01.JPG,AFNE01.JPG,,,,,,,,,,,,,,,,,2,9,29,8,,,,,,,AFNE10.jpg,AFSA19.jpg,AFNE14.jpg,AFSA11.jpg,AFNE10.jpg,FN,3,num_8,32,num_2,0.983301334199,,,2017_Sep_29_1541,59.9986529047,FEMA4ImagesEEG,001,101671,
AFNE01.JPG,AFNE01.JPG,AFNE01.JPG,AFNE01.JPG,AFNE01.JPG,AFNE01.JPG,,,,,,,,,,,,,,,,,3,0,30,3,,,,,,,AFSA09.jpg,AFNE20.jpg,AFSA08.jpg,AFNE09.jpg,AFSA09.jpg,FS,4,num_8,32,num_2,0.850112290937,,,2017_Sep_29_1541,59.9986529047,FEMA4ImagesEEG,001,101671,
AFNE01.JPG,AFNE01.JPG,AFNE01.JPG,AFNE01.JPG,AFNE01.JPG,AFNE01.JPG,,,,,,,,,,,,,,,,,3,1,31,9,,,,,,,AFSA17.jpg,AFSA11.jpg,AFNE07.jpg,AFNE11.jpg,AFNE07.jpg,FN,3,num_2,16,num_2,1.35009753692,,,2017_Sep_29_1541,59.9986529047,FEMA4ImagesEEG,001,101671,
AFNE01.JPG,AFNE01.JPG,AFNE01.JPG,AFNE01.JPG,AFNE01.JPG,AFNE01.JPG,,,,,,,,,,,,,,,,,3,2,32,4,,,,,,,AFSA14.jpg,AFNE20.jpg,AFSA11.jpg,AFNE04.jpg,AFNE20.jpg,FN,3,num_6,32,num_4,0.733483353863,,,2017_Sep_29_1541,59.9986529047,FEMA4ImagesEEG,001,101671,
AFNE01.JPG,AFNE01.JPG,AFNE01.JPG,AFNE01.JPG,AFNE01.JPG,AFNE01.JPG,,,,,,,,,,,,,,,,,3,3,33,2,,,,,,,AFSA07.jpg,AFNE02.jpg,AFSA11.jpg,AFNE07.jpg,AFNE07.jpg,FN,3,num_4,16,num_4,1.23342337564,,,2017_Sep_29_1541,59.9986529047,FEMA4ImagesEEG,001,101671,
AFNE01.JPG,AFNE01.JPG,AFNE01.JPG,AFNE01.JPG,AFNE01.JPG,AFNE01.JPG,,,,,,,,,,,,,,,,,3,4,34,5,,,,,,,AFSA18.jpg,AFNE01.jpg,AFSA07.jpg,AFNE12.jpg,AFNE12.jpg,FN,3,num_4,32,num_6,0.700116492575,,,2017_Sep_29_1541,59.9986529047,FEMA4ImagesEEG,001,101671,
AFNE01.JPG,AFNE01.JPG,AFNE01.JPG,AFNE01.JPG,AFNE01.JPG,AFNE01.JPG,,,,,,,,,,,,,,,,,3,5,35,8,,,,,,,AFNE09.jpg,AFNE04.jpg,AFSA20.jpg,AFSA05.jpg,AFNE04.jpg,FN,3,num_6,32,num_2,0.816751844482,,,2017_Sep_29_1541,59.9986529047,FEMA4ImagesEEG,001,101671,
AFNE01.JPG,AFNE01.JPG,AFNE01.JPG,AFNE01.JPG,AFNE01.JPG,AFNE01.JPG,,,,,,,,,,,,,,,,,3,6,36,6,,,,,,,AFNE20.jpg,AFSA07.jpg,AFNE17.jpg,AFSA10.jpg,AFSA10.jpg,FS,4,num_4,16,num_4,0.500157483155,,,2017_Sep_29_1541,59.9986529047,FEMA4ImagesEEG,001,101671,
AFNE01.JPG,AFNE01.JPG,AFNE01.JPG,AFNE01.JPG,AFNE01.JPG,AFNE01.JPG,,,,,,,,,,,,,,,,,3,7,37,1,,,,,,,AFSA05.jpg,AFSA11.jpg,AFNE14.jpg,AFNE19.jpg,AFNE14.jpg,FN,3,num_2,16,num_2,0.616837096983,,,2017_Sep_29_1541,59.9986529047,FEMA4ImagesEEG,001,101671,
AFNE01.JPG,AFNE01.JPG,AFNE01.JPG,AFNE01.JPG,AFNE01.JPG,AFNE01.JPG,,,,,,,,,,,,,,,,,3,8,38,0,,,,,,,AFSA12.jpg,AFNE13.jpg,AFSA20.jpg,AFNE12.jpg,AFSA20.jpg,FS,4,num_2,16,num_2,0.850158156711,,,2017_Sep_29_1541,59.9986529047,FEMA4ImagesEEG,001,101671,
AFNE01.JPG,AFNE01.JPG,AFNE01.JPG,AFNE01.JPG,AFNE01.JPG,AFNE01.JPG,,,,,,,,,,,,,,,,,3,9,39,7,,,,,,,AFNE20.jpg,AFSA17.jpg,AFNE16.jpg,AFSA02.jpg,AFSA02.jpg,FS,4,num_4,16,num_4,0.767097505508,,,2017_Sep_29_1541,59.9986529047,FEMA4ImagesEEG,001,101671,
AFNE01.JPG,AFNE01.JPG,AFNE01.JPG,AFNE01.JPG,AFNE01.JPG,AFNE01.JPG,,,,,,,,,,,,,,,,,4,0,40,9,,,,,,,AFNE16.jpg,AFSA07.jpg,AFNE12.jpg,AFSA09.jpg,AFSA09.jpg,FS,4,num_4,16,num_4,0.566762589151,,,2017_Sep_29_1541,59.9986529047,FEMA4ImagesEEG,001,101671,
AFNE01.JPG,AFNE01.JPG,AFNE01.JPG,AFNE01.JPG,AFNE01.JPG,AFNE01.JPG,,,,,,,,,,,,,,,,,4,1,41,3,,,,,,,AFNE01.jpg,AFSA14.jpg,AFNE18.jpg,AFSA20.jpg,AFNE18.jpg,FN,3,num_2,32,num_4,1.0501556549,,,2017_Sep_29_1541,59.9986529047,FEMA4ImagesEEG,001,101671,
AFNE01.JPG,AFNE01.JPG,AFNE01.JPG,AFNE01.JPG,AFNE01.JPG,AFNE01.JPG,,,,,,,,,,,,,,,,,4,2,42,2,,,,,,,AFSA12.jpg,AFNE10.jpg,AFNE05.jpg,AFSA05.jpg,AFNE05.jpg,FN,3,num_2,32,num_4,1.50008948636,,,2017_Sep_29_1541,59.9986529047,FEMA4ImagesEEG,001,101671,
AFNE01.JPG,AFNE01.JPG,AFNE01.JPG,AFNE01.JPG,AFNE01.JPG,AFNE01.JPG,,,,,,,,,,,,,,,,,4,3,43,4,,,,,,,AFNE19.jpg,AFSA14.jpg,AFNE10.jpg,AFSA06.jpg,AFNE19.jpg,FN,3,num_8,16,num_8,0.416810411494,,,2017_Sep_29_1541,59.9986529047,FEMA4ImagesEEG,001,101671,
AFNE01.JPG,AFNE01.JPG,AFNE01.JPG,AFNE01.JPG,AFNE01.JPG,AFNE01.JPG,,,,,,,,,,,,,,,,,4,4,44,0,,,,,,,AFSA15.jpg,AFSA08.jpg,AFNE08.jpg,AFNE17.jpg,AFSA15.jpg,FS,4,num_8,16,num_8,0.583451312035,,,2017_Sep_29_1541,59.9986529047,FEMA4ImagesEEG,001,101671,
AFNE01.JPG,AFNE01.JPG,AFNE01.JPG,AFNE01.JPG,AFNE01.JPG,AFNE01.JPG,,,,,,,,,,,,,,,,,4,5,45,8,,,,,,,AFSA08.jpg,AFSA19.jpg,AFNE04.jpg,AFNE18.jpg,AFNE18.jpg,FN,3,num_4,16,num_4,0.716778273345,,,2017_Sep_29_1541,59.9986529047,FEMA4ImagesEEG,001,101671,
AFNE01.JPG,AFNE01.JPG,AFNE01.JPG,AFNE01.JPG,AFNE01.JPG,AFNE01.JPG,,,,,,,,,,,,,,,,,4,6,46,6,,,,,,,AFSA11.jpg,AFSA15.jpg,AFNE08.jpg,AFNE10.jpg,AFSA11.jpg,FS,4,num_8,32,num_6,0.716788857826,,,2017_Sep_29_1541,59.9986529047,FEMA4ImagesEEG,001,101671,
AFNE01.JPG,AFNE01.JPG,AFNE01.JPG,AFNE01.JPG,AFNE01.JPG,AFNE01.JPG,,,,,,,,,,,,,,,,,4,7,47,1,,,,,,,AFSA18.jpg,AFNE12.jpg,AFSA02.jpg,AFNE09.jpg,AFNE09.jpg,FN,3,num_4,32,num_6,0.566803643829,,,2017_Sep_29_1541,59.9986529047,FEMA4ImagesEEG,001,101671,
AFNE01.JPG,AFNE01.JPG,AFNE01.JPG,AFNE01.JPG,AFNE01.JPG,AFNE01.JPG,,,,,,,,,,,,,,,,,4,8,48,5,,,,,,,AFSA15.jpg,AFSA02.jpg,AFNE13.jpg,AFNE11.jpg,AFNE11.jpg,FN,3,num_4,32,num_2,0.716789499158,,,2017_Sep_29_1541,59.9986529047,FEMA4ImagesEEG,001,101671,
AFNE01.JPG,AFNE01.JPG,AFNE01.JPG,AFNE01.JPG,AFNE01.JPG,AFNE01.JPG,,,,,,,,,,,,,,,,,4,9,49,7,,,,,,,AFSA03.jpg,AFSA01.jpg,AFNE15.jpg,AFNE08.jpg,AFSA03.jpg,FS,4,num_8,16,num_8,0.766821027966,,,2017_Sep_29_1541,59.9986529047,FEMA4ImagesEEG,001,101671,
AFNE01.JPG,AFNE01.JPG,AFNE01.JPG,AFNE01.JPG,AFNE01.JPG,AFNE01.JPG,,,,,,,,,,,,,,,,,5,0,50,4,,,,,,,AFNE13.jpg,AFNE19.jpg,AFSA05.jpg,AFSA08.jpg,AFNE13.jpg,FN,3,num_8,32,num_6,0.616871095379,,,2017_Sep_29_1541,59.9986529047,FEMA4ImagesEEG,001,101671,
AFNE01.JPG,AFNE01.JPG,AFNE01.JPG,AFNE01.JPG,AFNE01.JPG,AFNE01.JPG,,,,,,,,,,,,,,,,,5,1,51,3,,,,,,,AFNE19.jpg,AFNE03.jpg,AFSA18.jpg,AFSA01.jpg,AFSA18.jpg,FS,4,num_2,16,num_2,0.583503913251,,,2017_Sep_29_1541,59.9986529047,FEMA4ImagesEEG,001,101671,
AFNE01.JPG,AFNE01.JPG,AFNE01.JPG,AFNE01.JPG,AFNE01.JPG,AFNE01.JPG,,,,,,,,,,,,,,,,,5,2,52,5,,,,,,,AFSA19.jpg,AFNE14.jpg,AFSA20.jpg,AFNE10.jpg,AFNE10.jpg,FN,3,num_4,32,num_2,0.683477805112,,,2017_Sep_29_1541,59.9986529047,FEMA4ImagesEEG,001,101671,
AFNE01.JPG,AFNE01.JPG,AFNE01.JPG,AFNE01.JPG,AFNE01.JPG,AFNE01.JPG,,,,,,,,,,,,,,,,,5,3,53,6,,,,,,,AFNE19.jpg,AFSA12.jpg,AFNE09.jpg,AFSA17.jpg,AFNE19.jpg,FN,3,num_8,32,num_2,0.683261626633,,,2017_Sep_29_1541,59.9986529047,FEMA4ImagesEEG,001,101671,
AFNE01.JPG,AFNE01.JPG,AFNE01.JPG,AFNE01.JPG,AFNE01.JPG,AFNE01.JPG,,,,,,,,,,,,,,,,,5,4,54,2,,,,,,,AFSA16.jpg,AFNE15.jpg,AFNE03.jpg,AFSA08.jpg,AFSA08.jpg,FS,4,num_4,32,num_2,0.783512637485,,,2017_Sep_29_1541,59.9986529047,FEMA4ImagesEEG,001,101671,
AFNE01.JPG,AFNE01.JPG,AFNE01.JPG,AFNE01.JPG,AFNE01.JPG,AFNE01.JPG,,,,,,,,,,,,,,,,,5,5,55,9,,,,,,,AFNE03.jpg,AFSA17.jpg,AFSA14.jpg,AFNE11.jpg,AFSA17.jpg,FS,4,num_6,16,num_6,0.433477965533,,,2017_Sep_29_1541,59.9986529047,FEMA4ImagesEEG,001,101671,
AFNE01.JPG,AFNE01.JPG,AFNE01.JPG,AFNE01.JPG,AFNE01.JPG,AFNE01.JPG,,,,,,,,,,,,,,,,,5,6,56,1,,,,,,,AFNE05.jpg,AFNE04.jpg,AFSA19.jpg,AFSA09.jpg,AFNE05.jpg,FN,3,num_8,32,num_4,1.31673548662,,,2017_Sep_29_1541,59.9986529047,FEMA4ImagesEEG,001,101671,
AFNE01.JPG,AFNE01.JPG,AFNE01.JPG,AFNE01.JPG,AFNE01.JPG,AFNE01.JPG,,,,,,,,,,,,,,,,,5,7,57,0,,,,,,,AFSA17.jpg,AFNE08.jpg,AFSA12.jpg,AFNE17.jpg,AFNE08.jpg,FN,3,num_6,16,num_6,0.4334680225,,,2017_Sep_29_1541,59.9986529047,FEMA4ImagesEEG,001,101671,
AFNE01.JPG,AFNE01.JPG,AFNE01.JPG,AFNE01.JPG,AFNE01.JPG,AFNE01.JPG,,,,,,,,,,,,,,,,,5,8,58,7,,,,,,,AFNE02.jpg,AFSA12.jpg,AFNE01.jpg,AFSA07.jpg,AFSA07.jpg,FS,4,num_4,16,num_4,1.13348797266,,,2017_Sep_29_1541,59.9986529047,FEMA4ImagesEEG,001,101671,
AFNE01.JPG,AFNE01.JPG,AFNE01.JPG,AFNE01.JPG,AFNE01.JPG,AFNE01.JPG,,,,,,,,,,,,,,,,,5,9,59,8,,,,,,,AFSA12.jpg,AFSA02.jpg,AFNE14.jpg,AFNE12.jpg,AFNE14.jpg,FN,3,num_2,32,num_4,0.866464878665,,,2017_Sep_29_1541,59.9986529047,FEMA4ImagesEEG,001,101671,
,,,,,,,,,,,,,,,,,,,,,,,,,,,,,,,,,,,,,,,,,,,space,16.0325553901,2017_Sep_29_1541,59.9986529047,FEMA4ImagesEEG,001,101671,
AFNE01.JPG,AFNE01.JPG,AFNE01.JPG,AFNE01.JPG,AFNE01.JPG,AFNE01.JPG,,,,,,,,,,,,,,,,,,,,,0,0,0,4,,,AMSA14.jpg,AMNE02.jpg,AMNE10.jpg,AMSA04.jpg,AMSA04.jpg,MS,2,num_4,16,num_4,0.483615979785,,,2017_Sep_29_1541,59.9986529047,FEMA4ImagesEEG,001,101671,
AFNE01.JPG,AFNE01.JPG,AFNE01.JPG,AFNE01.JPG,AFNE01.JPG,AFNE01.JPG,,,,,,,,,,,,,,,,,,,,,0,1,1,2,,,AMSA09.jpg,AMNE14.jpg,AMNE02.jpg,AMSA01.jpg,AMNE02.jpg,MN,1,num_2,16,num_2,0.500156520982,,,2017_Sep_29_1541,59.9986529047,FEMA4ImagesEEG,001,101671,
AFNE01.JPG,AFNE01.JPG,AFNE01.JPG,AFNE01.JPG,AFNE01.JPG,AFNE01.JPG,,,,,,,,,,,,,,,,,,,,,0,2,2,7,,,AMSA03.jpg,AMNE05.jpg,AMSA18.jpg,AMNE01.jpg,AMSA03.jpg,MS,2,num_8,16,num_8,0.866726922919,,,2017_Sep_29_1541,59.9986529047,FEMA4ImagesEEG,001,101671,
AFNE01.JPG,AFNE01.JPG,AFNE01.JPG,AFNE01.JPG,AFNE01.JPG,AFNE01.JPG,,,,,,,,,,,,,,,,,,,,,0,3,3,6,,,AMNE19.jpg,AMNE10.jpg,AMSA05.jpg,AMSA09.jpg,AMSA09.jpg,MS,2,num_4,16,num_4,0.70014375553,,,2017_Sep_29_1541,59.9986529047,FEMA4ImagesEEG,001,101671,
AFNE01.JPG,AFNE01.JPG,AFNE01.JPG,AFNE01.JPG,AFNE01.JPG,AFNE01.JPG,,,,,,,,,,,,,,,,,,,,,0,4,4,9,,,AMNE09.jpg,AMSA11.jpg,AMSA19.jpg,AMNE04.jpg,AMSA11.jpg,MS,2,num_6,16,num_6,1.21672535129,,,2017_Sep_29_1541,59.9986529047,FEMA4ImagesEEG,001,101671,
AFNE01.JPG,AFNE01.JPG,AFNE01.JPG,AFNE01.JPG,AFNE01.JPG,AFNE01.JPG,,,,,,,,,,,,,,,,,,,,,0,5,5,1,,,AMNE12.jpg,AMSA07.jpg,AMNE08.jpg,AMSA19.jpg,AMSA19.jpg,MS,2,num_4,16,num_4,0.633520046482,,,2017_Sep_29_1541,59.9986529047,FEMA4ImagesEEG,001,101671,
AFNE01.JPG,AFNE01.JPG,AFNE01.JPG,AFNE01.JPG,AFNE01.JPG,AFNE01.JPG,,,,,,,,,,,,,,,,,,,,,0,6,6,3,,,AMSA03.jpg,AMNE18.jpg,AMNE06.jpg,AMSA06.jpg,AMSA06.jpg,MS,2,num_4,16,num_4,1.90012938634,,,2017_Sep_29_1541,59.9986529047,FEMA4ImagesEEG,001,101671,
AFNE01.JPG,AFNE01.JPG,AFNE01.JPG,AFNE01.JPG,AFNE01.JPG,AFNE01.JPG,,,,,,,,,,,,,,,,,,,,,0,7,7,0,,,AMSA01.jpg,AMSA03.jpg,AMNE10.jpg,AMNE01.jpg,AMNE01.jpg,MN,1,num_4,16,num_4,0.733458656934,,,2017_Sep_29_1541,59.9986529047,FEMA4ImagesEEG,001,101671,
AFNE01.JPG,AFNE01.JPG,AFNE01.JPG,AFNE01.JPG,AFNE01.JPG,AFNE01.JPG,,,,,,,,,,,,,,,,,,,,,0,8,8,5,,,AMSA07.jpg,AMSA14.jpg,AMNE01.jpg,AMNE06.jpg,AMNE01.jpg,MN,1,num_2,16,num_2,0.716688145534,,,2017_Sep_29_1541,59.9986529047,FEMA4ImagesEEG,001,101671,
AFNE01.JPG,AFNE01.JPG,AFNE01.JPG,AFNE01.JPG,AFNE01.JPG,AFNE01.JPG,,,,,,,,,,,,,,,,,,,,,0,9,9,8,,,AMNE07.jpg,AMSA09.jpg,AMNE15.jpg,AMSA15.jpg,AMNE07.jpg,MN,1,num_8,16,num_8,1.28341673629,,,2017_Sep_29_1541,59.9986529047,FEMA4ImagesEEG,001,101671,
AFNE01.JPG,AFNE01.JPG,AFNE01.JPG,AFNE01.JPG,AFNE01.JPG,AFNE01.JPG,,,,,,,,,,,,,,,,,,,,,1,0,10,2,,,AMNE13.jpg,AMSA09.jpg,AMSA01.jpg,AMNE04.jpg,AMSA01.jpg,MS,2,num_2,16,num_2,0.816758900648,,,2017_Sep_29_1541,59.9986529047,FEMA4ImagesEEG,001,101671,
AFNE01.JPG,AFNE01.JPG,AFNE01.JPG,AFNE01.JPG,AFNE01.JPG,AFNE01.JPG,,,,,,,,,,,,,,,,,,,,,1,1,11,1,,,AMSA14.jpg,AMNE18.jpg,AMSA09.jpg,AMNE02.jpg,AMNE02.jpg,MN,1,num_4,16,num_4,0.483433478978,,,2017_Sep_29_1541,59.9986529047,FEMA4ImagesEEG,001,101671,
AFNE01.JPG,AFNE01.JPG,AFNE01.JPG,AFNE01.JPG,AFNE01.JPG,AFNE01.JPG,,,,,,,,,,,,,,,,,,,,,1,2,12,3,,,AMSA09.jpg,AMSA12.jpg,AMNE04.jpg,AMNE06.jpg,AMSA09.jpg,MS,2,num_8,16,num_8,0.683528802707,,,2017_Sep_29_1541,59.9986529047,FEMA4ImagesEEG,001,101671,
AFNE01.JPG,AFNE01.JPG,AFNE01.JPG,AFNE01.JPG,AFNE01.JPG,AFNE01.JPG,,,,,,,,,,,,,,,,,,,,,1,3,13,9,,,AMNE06.jpg,AMNE04.jpg,AMSA19.jpg,AMSA05.jpg,AMNE04.jpg,MN,1,num_6,16,num_6,0.433135094936,,,2017_Sep_29_1541,59.9986529047,FEMA4ImagesEEG,001,101671,
AFNE01.JPG,AFNE01.JPG,AFNE01.JPG,AFNE01.JPG,AFNE01.JPG,AFNE01.JPG,,,,,,,,,,,,,,,,,,,,,1,4,14,4,,,AMNE02.jpg,AMSA04.jpg,AMNE20.jpg,AMSA10.jpg,AMSA04.jpg,MS,2,num_6,16,num_6,0.733519597445,,,2017_Sep_29_1541,59.9986529047,FEMA4ImagesEEG,001,101671,
AFNE01.JPG,AFNE01.JPG,AFNE01.JPG,AFNE01.JPG,AFNE01.JPG,AFNE01.JPG,,,,,,,,,,,,,,,,,,,,,1,5,15,6,,,AMNE03.jpg,AMNE10.jpg,AMSA01.jpg,AMSA11.jpg,AMNE03.jpg,MN,1,num_8,16,num_8,0.650124414824,,,2017_Sep_29_1541,59.9986529047,FEMA4ImagesEEG,001,101671,
AFNE01.JPG,AFNE01.JPG,AFNE01.JPG,AFNE01.JPG,AFNE01.JPG,AFNE01.JPG,,,,,,,,,,,,,,,,,,,,,1,6,16,7,,,AMNE11.jpg,AMSA08.jpg,AMNE19.jpg,AMSA15.jpg,AMSA15.jpg,MS,2,num_4,32,num_6,0.883490378154,,,2017_Sep_29_1541,59.9986529047,FEMA4ImagesEEG,001,101671,
AFNE01.JPG,AFNE01.JPG,AFNE01.JPG,AFNE01.JPG,AFNE01.JPG,AFNE01.JPG,,,,,,,,,,,,,,,,,,,,,1,7,17,8,,,AMSA16.jpg,AMSA11.jpg,AMNE05.jpg,AMNE02.jpg,AMSA11.jpg,MS,2,num_6,16,num_6,0.950144557282,,,2017_Sep_29_1541,59.9986529047,FEMA4ImagesEEG,001,101671,
AFNE01.JPG,AFNE01.JPG,AFNE01.JPG,AFNE01.JPG,AFNE01.JPG,AFNE01.JPG,,,,,,,,,,,,,,,,,,,,,1,8,18,5,,,AMSA04.jpg,AMNE05.jpg,AMNE10.jpg,AMSA19.jpg,AMNE05.jpg,MN,1,num_6,32,num_2,1.1834181475,,,2017_Sep_29_1541,59.9986529047,FEMA4ImagesEEG,001,101671,
AFNE01.JPG,AFNE01.JPG,AFNE01.JPG,AFNE01.JPG,AFNE01.JPG,AFNE01.JPG,,,,,,,,,,,,,,,,,,,,,1,9,19,0,,,AMNE02.jpg,AMSA11.jpg,AMNE19.jpg,AMSA04.jpg,AMNE02.jpg,MN,1,num_8,16,num_8,1.36675161985,,,2017_Sep_29_1541,59.9986529047,FEMA4ImagesEEG,001,101671,
AFNE01.JPG,AFNE01.JPG,AFNE01.JPG,AFNE01.JPG,AFNE01.JPG,AFNE01.JPG,,,,,,,,,,,,,,,,,,,,,2,0,20,5,,,AMSA09.jpg,AMSA05.jpg,AMNE17.jpg,AMNE02.jpg,AMNE17.jpg,MN,1,num_2,16,num_2,0.633467765991,,,2017_Sep_29_1541,59.9986529047,FEMA4ImagesEEG,001,101671,
AFNE01.JPG,AFNE01.JPG,AFNE01.JPG,AFNE01.JPG,AFNE01.JPG,AFNE01.JPG,,,,,,,,,,,,,,,,,,,,,2,1,21,3,,,AMSA09.jpg,AMNE14.jpg,AMSA05.jpg,AMNE13.jpg,AMSA09.jpg,MS,2,num_8,32,num_4,0.66680736444,,,2017_Sep_29_1541,59.9986529047,FEMA4ImagesEEG,001,101671,
AFNE01.JPG,AFNE01.JPG,AFNE01.JPG,AFNE01.JPG,AFNE01.JPG,AFNE01.JPG,,,,,,,,,,,,,,,,,,,,,2,2,22,2,,,AMNE06.jpg,AMSA16.jpg,AMNE12.jpg,AMSA19.jpg,AMSA16.jpg,MS,2,num_6,16,num_6,0.666776573518,,,2017_Sep_29_1541,59.9986529047,FEMA4ImagesEEG,001,101671,
AFNE01.JPG,AFNE01.JPG,AFNE01.JPG,AFNE01.JPG,AFNE01.JPG,AFNE01.JPG,,,,,,,,,,,,,,,,,,,,,2,3,23,4,,,AMSA01.jpg,AMNE20.jpg,AMNE02.jpg,AMSA07.jpg,AMNE20.jpg,MN,1,num_6,32,num_2,0.900114953052,,,2017_Sep_29_1541,59.9986529047,FEMA4ImagesEEG,001,101671,
AFNE01.JPG,AFNE01.JPG,AFNE01.JPG,AFNE01.JPG,AFNE01.JPG,AFNE01.JPG,,,,,,,,,,,,,,,,,,,,,2,4,24,1,,,AMNE01.jpg,AMSA05.jpg,AMSA14.jpg,AMNE06.jpg,AMNE01.jpg,MN,1,num_8,32,num_4,1.06676226854,,,2017_Sep_29_1541,59.9986529047,FEMA4ImagesEEG,001,101671,
AFNE01.JPG,AFNE01.JPG,AFNE01.JPG,AFNE01.JPG,AFNE01.JPG,AFNE01.JPG,,,,,,,,,,,,,,,,,,,,,2,5,25,9,,,AMSA13.jpg,AMNE16.jpg,AMNE05.jpg,AMSA04.jpg,AMNE05.jpg,MN,1,num_2,16,num_2,0.733446468948,,,2017_Sep_29_1541,59.9986529047,FEMA4ImagesEEG,001,101671,
AFNE01.JPG,AFNE01.JPG,AFNE01.JPG,AFNE01.JPG,AFNE01.JPG,AFNE01.JPG,,,,,,,,,,,,,,,,,,,,,2,6,26,7,,,AMSA01.jpg,AMNE13.jpg,AMNE10.jpg,AMSA19.jpg,AMSA19.jpg,MS,2,num_4,32,num_6,0.550170408911,,,2017_Sep_29_1541,59.9986529047,FEMA4ImagesEEG,001,101671,
AFNE01.JPG,AFNE01.JPG,AFNE01.JPG,AFNE01.JPG,AFNE01.JPG,AFNE01.JPG,,,,,,,,,,,,,,,,,,,,,2,7,27,0,,,AMNE15.jpg,AMSA12.jpg,AMNE01.jpg,AMSA04.jpg,AMSA12.jpg,MS,2,num_6,16,num_6,0.766756238649,,,2017_Sep_29_1541,59.9986529047,FEMA4ImagesEEG,001,101671,
AFNE01.JPG,AFNE01.JPG,AFNE01.JPG,AFNE01.JPG,AFNE01.JPG,AFNE01.JPG,,,,,,,,,,,,,,,,,,,,,2,8,28,6,,,AMSA16.jpg,AMNE15.jpg,AMNE19.jpg,AMSA05.jpg,AMSA05.jpg,MS,2,num_4,16,num_4,0.666752197198,,,2017_Sep_29_1541,59.9986529047,FEMA4ImagesEEG,001,101671,
AFNE01.JPG,AFNE01.JPG,AFNE01.JPG,AFNE01.JPG,AFNE01.JPG,AFNE01.JPG,,,,,,,,,,,,,,,,,,,,,2,9,29,8,,,AMSA02.jpg,AMNE12.jpg,AMSA16.jpg,AMNE13.jpg,AMSA02.jpg,MS,2,num_8,16,num_8,1.11676460982,,,2017_Sep_29_1541,59.9986529047,FEMA4ImagesEEG,001,101671,
AFNE01.JPG,AFNE01.JPG,AFNE01.JPG,AFNE01.JPG,AFNE01.JPG,AFNE01.JPG,,,,,,,,,,,,,,,,,,,,,3,0,30,6,,,AMNE06.jpg,AMSA10.jpg,AMNE18.jpg,AMSA04.jpg,AMSA10.jpg,MS,2,num_6,16,num_6,0.866750657675,,,2017_Sep_29_1541,59.9986529047,FEMA4ImagesEEG,001,101671,
AFNE01.JPG,AFNE01.JPG,AFNE01.JPG,AFNE01.JPG,AFNE01.JPG,AFNE01.JPG,,,,,,,,,,,,,,,,,,,,,3,1,31,9,,,AMSA16.jpg,AMSA07.jpg,AMNE02.jpg,AMNE06.jpg,AMSA07.jpg,MS,2,num_6,16,num_6,0.433491757256,,,2017_Sep_29_1541,59.9986529047,FEMA4ImagesEEG,001,101671,
AFNE01.JPG,AFNE01.JPG,AFNE01.JPG,AFNE01.JPG,AFNE01.JPG,AFNE01.JPG,,,,,,,,,,,,,,,,,,,,,3,2,32,0,,,AMSA06.jpg,AMSA17.jpg,AMNE15.jpg,AMNE13.jpg,AMNE13.jpg,MN,1,num_4,16,num_4,0.783540541772,,,2017_Sep_29_1541,59.9986529047,FEMA4ImagesEEG,001,101671,
AFNE01.JPG,AFNE01.JPG,AFNE01.JPG,AFNE01.JPG,AFNE01.JPG,AFNE01.JPG,,,,,,,,,,,,,,,,,,,,,3,3,33,1,,,AMNE01.jpg,AMNE19.jpg,AMSA16.jpg,AMSA08.jpg,AMSA08.jpg,MS,2,num_4,16,num_4,0.683747226372,,,2017_Sep_29_1541,59.9986529047,FEMA4ImagesEEG,001,101671,
AFNE01.JPG,AFNE01.JPG,AFNE01.JPG,AFNE01.JPG,AFNE01.JPG,AFNE01.JPG,,,,,,,,,,,,,,,,,,,,,3,4,34,5,,,AMSA12.jpg,AMNE14.jpg,AMNE20.jpg,AMSA06.jpg,AMSA12.jpg,MS,2,num_8,32,num_2,0.650114792632,,,2017_Sep_29_1541,59.9986529047,FEMA4ImagesEEG,001,101671,
AFNE01.JPG,AFNE01.JPG,AFNE01.JPG,AFNE01.JPG,AFNE01.JPG,AFNE01.JPG,,,,,,,,,,,,,,,,,,,,,3,5,35,2,,,AMNE16.jpg,AMSA02.jpg,AMNE10.jpg,AMSA19.jpg,AMNE10.jpg,MN,1,num_2,16,num_2,0.550116845407,,,2017_Sep_29_1541,59.9986529047,FEMA4ImagesEEG,001,101671,
AFNE01.JPG,AFNE01.JPG,AFNE01.JPG,AFNE01.JPG,AFNE01.JPG,AFNE01.JPG,,,,,,,,,,,,,,,,,,,,,3,6,36,3,,,AMNE10.jpg,AMNE02.jpg,AMSA04.jpg,AMSA01.jpg,AMNE02.jpg,MN,1,num_6,32,num_8,1.05011909059,,,2017_Sep_29_1541,59.9986529047,FEMA4ImagesEEG,001,101671,
AFNE01.JPG,AFNE01.JPG,AFNE01.JPG,AFNE01.JPG,AFNE01.JPG,AFNE01.JPG,,,,,,,,,,,,,,,,,,,,,3,7,37,8,,,AMNE16.jpg,AMSA07.jpg,AMNE15.jpg,AMSA20.jpg,AMSA07.jpg,MS,2,num_6,16,num_6,0.516838187468,,,2017_Sep_29_1541,59.9986529047,FEMA4ImagesEEG,001,101671,
AFNE01.JPG,AFNE01.JPG,AFNE01.JPG,AFNE01.JPG,AFNE01.JPG,AFNE01.JPG,,,,,,,,,,,,,,,,,,,,,3,8,38,4,,,AMNE04.jpg,AMSA19.jpg,AMNE06.jpg,AMSA02.jpg,AMNE06.jpg,MN,1,num_2,16,num_2,0.450166046969,,,2017_Sep_29_1541,59.9986529047,FEMA4ImagesEEG,001,101671,
