IPosition2,IPosition3,IPosition1,IPosition6,IPosition4,IPosition5,TrialsM1.thisRepN,TrialsM1.thisTrialN,TrialsM1.thisN,TrialsM1.thisIndex,TrialsF1.thisRepN,TrialsF1.thisTrialN,TrialsF1.thisN,TrialsF1.thisIndex,TrialsM2.thisRepN,TrialsM2.thisTrialN,TrialsM2.thisN,TrialsM2.thisIndex,TrialsF2.thisRepN,TrialsF2.thisTrialN,TrialsF2.thisN,TrialsF2.thisIndex,TrialsM3.thisRepN,TrialsM3.thisTrialN,TrialsM3.thisN,TrialsM3.thisIndex,TrialsF3.thisRepN,TrialsF3.thisTrialN,TrialsF3.thisN,TrialsF3.thisIndex,InstrKey_resp.keys,InstrKey_resp.rt,Image0 _Position,Image1 _Position,Image2 _Position,Image3 _Position,Center_image,condition,code,correct_answer,accuracy,Key_Resp.keys,Key_Resp.rt,BreakKey_resp.keys,BreakKey_resp.rt,date,frameRate,expName,session,participant,
,,,,,,,,,,,,,,,,,,,,,,,,,,,,,,space,18.5491927132,,,,,,,,,,,,,,2017_Oct_04_1820,60.0135703768,MAFE4ImagesEEG,001,101717,
AMNE23.JPG,AMNE24.JPG,AMNE22.JPG,AMSA24.JPG,AMSA22.JPG,AMSA23.JPG,0,0,0,9,,,,,,,,,,,,,,,,,,,,,,,AMSA08.jpg,AMNE02.jpg,AMSA03.jpg,AMNE20.jpg,AMSA03.jpg,MS,2,num_2,32,num_8,1.00010680646,,,2017_Oct_04_1820,60.0135703768,MAFE4ImagesEEG,001,101717,
AMSA25.JPG,AMNE24.JPG,AMSA24.JPG,AMNE26.JPG,AMSA21.JPG,AMNE25.JPG,0,1,1,3,,,,,,,,,,,,,,,,,,,,,,,AMSA16.jpg,AMNE04.jpg,AMNE13.jpg,AMSA13.jpg,AMSA16.jpg,MS,2,num_8,32,num_6,2.16663988488,,,2017_Oct_04_1820,60.0135703768,MAFE4ImagesEEG,001,101717,
AFSA25.JPG,AFNE24.JPG,AFSA24.JPG,AFNE21.JPG,AFSA21.JPG,AFNE25.JPG,0,2,2,2,,,,,,,,,,,,,,,,,,,,,,,AMSA18.jpg,AMNE10.jpg,AMNE06.jpg,AMSA03.jpg,AMNE06.jpg,MN,1,num_2,32,num_6,2.84996483084,,,2017_Oct_04_1820,60.0135703768,MAFE4ImagesEEG,001,101717,
AFSA21.JPG,AFNE23.JPG,AFNE21.JPG,AFSA25.JPG,AFNE25.JPG,AFSA23.JPG,0,3,3,4,,,,,,,,,,,,,,,,,,,,,,,AMNE01.jpg,AMNE03.jpg,AMSA17.jpg,AMSA16.jpg,AMNE01.jpg,MN,1,num_8,32,num_4,2.08333309279,,,2017_Oct_04_1820,60.0135703768,MAFE4ImagesEEG,001,101717,
AFNE22.JPG,AFSA24.JPG,AFSA22.JPG,AFNE25.JPG,AFNE24.JPG,AFSA25.JPG,0,4,4,6,,,,,,,,,,,,,,,,,,,,,,,AMSA07.jpg,AMNE10.jpg,AMSA05.jpg,AMNE17.jpg,AMSA05.jpg,MS,2,num_2,32,num_6,3.89988386001,,,2017_Oct_04_1820,60.0135703768,MAFE4ImagesEEG,001,101717,
AFNE23.JPG,AFNE24.JPG,AFNE22.JPG,AFSA24.JPG,AFSA22.JPG,AFSA23.JPG,0,5,5,8,,,,,,,,,,,,,,,,,,,,,,,AMSA16.jpg,AMNE01.jpg,AMSA10.jpg,AMNE18.jpg,AMNE18.jpg,MN,1,num_4,32,num_8,3.03326908908,,,2017_Oct_04_1820,60.0135703768,MAFE4ImagesEEG,001,101717,
AMNE22.JPG,AMSA24.JPG,AMSA22.JPG,AMNE25.JPG,AMNE24.JPG,AMSA25.JPG,0,6,6,7,,,,,,,,,,,,,,,,,,,,,,,AMSA15.jpg,AMNE08.jpg,AMSA08.jpg,AMNE02.jpg,AMSA08.jpg,MS,2,num_2,32,num_6,3.25030141552,,,2017_Oct_04_1820,60.0135703768,MAFE4ImagesEEG,001,101717,
AMSA21.JPG,AMNE22.JPG,AMNE21.JPG,AMSA23.JPG,AMSA22.JPG,AMNE23.JPG,0,7,7,1,,,,,,,,,,,,,,,,,,,,,,,AMSA02.jpg,AMNE18.jpg,AMSA04.jpg,AMNE08.jpg,AMNE18.jpg,MN,1,num_6,32,num_2,3.53323877916,,,2017_Oct_04_1820,60.0135703768,MAFE4ImagesEEG,001,101717,
AMSA21.JPG,AMNE23.JPG,AMNE21.JPG,AMSA25.JPG,AMNE25.JPG,AMSA23.JPG,0,8,8,5,,,,,,,,,,,,,,,,,,,,,,,AMNE17.jpg,AMSA12.jpg,AMNE01.jpg,AMSA05.jpg,AMSA12.jpg,MS,2,num_6,32,num_4,2.74996479877,,,2017_Oct_04_1820,60.0135703768,MAFE4ImagesEEG,001,101717,
AFSA21.JPG,AFNE22.JPG,AFNE21.JPG,AFSA23.JPG,AFSA22.JPG,AFNE23.JPG,0,9,9,0,,,,,,,,,,,,,,,,,,,,,,,AMSA13.jpg,AMNE05.jpg,AMSA08.jpg,AMNE01.jpg,AMNE01.jpg,MN,1,num_4,16,num_4,3.38342780733,,,2017_Oct_04_1820,60.0135703768,MAFE4ImagesEEG,001,101717,
AMNE23.JPG,AMNE24.JPG,AMNE22.JPG,AMSA24.JPG,AMSA22.JPG,AMSA23.JPG,,,,,0,0,0,9,,,,,,,,,,,,,,,,,,,AFNE16.jpg,AFNE15.jpg,AFSA10.jpg,AFSA19.jpg,AFSA10.jpg,FS,4,num_2,16,num_2,2.06668700158,,,2017_Oct_04_1820,60.0135703768,MAFE4ImagesEEG,001,101717,
AFNE23.JPG,AFNE24.JPG,AFNE22.JPG,AFSA24.JPG,AFSA22.JPG,AFSA23.JPG,,,,,0,1,1,8,,,,,,,,,,,,,,,,,,,AFSA14.jpg,AFNE10.jpg,AFNE07.jpg,AFSA16.jpg,AFSA16.jpg,FS,4,num_4,32,num_8,4.13324923528,,,2017_Oct_04_1820,60.0135703768,MAFE4ImagesEEG,001,101717,
AMSA21.JPG,AMNE23.JPG,AMNE21.JPG,AMSA25.JPG,AMNE25.JPG,AMSA23.JPG,,,,,0,2,2,5,,,,,,,,,,,,,,,,,,,AFSA05.jpg,AFSA11.jpg,AFNE14.jpg,AFNE18.jpg,AFNE14.jpg,FN,3,num_2,16,num_2,2.41665070984,,,2017_Oct_04_1820,60.0135703768,MAFE4ImagesEEG,001,101717,
AFSA21.JPG,AFNE23.JPG,AFNE21.JPG,AFSA25.JPG,AFNE25.JPG,AFSA23.JPG,,,,,0,3,3,4,,,,,,,,,,,,,,,,,,,AFSA08.jpg,AFSA17.jpg,AFNE13.jpg,AFNE05.jpg,AFNE05.jpg,FN,3,num_4,32,num_8,0.916718225635,,,2017_Oct_04_1820,60.0135703768,MAFE4ImagesEEG,001,101717,
AMNE22.JPG,AMSA24.JPG,AMSA22.JPG,AMNE25.JPG,AMNE24.JPG,AMSA25.JPG,,,,,0,4,4,7,,,,,,,,,,,,,,,,,,,AFSA17.jpg,AFSA19.jpg,AFNE09.jpg,AFNE17.jpg,AFSA19.jpg,FS,4,num_6,16,num_6,1.16673514468,,,2017_Oct_04_1820,60.0135703768,MAFE4ImagesEEG,001,101717,
AFSA25.JPG,AFNE24.JPG,AFSA24.JPG,AFNE21.JPG,AFSA21.JPG,AFNE25.JPG,,,,,0,5,5,2,,,,,,,,,,,,,,,,,,,AFSA10.jpg,AFNE14.jpg,AFSA01.jpg,AFNE08.jpg,AFNE08.jpg,FN,3,num_4,32,num_6,3.04997868682,,,2017_Oct_04_1820,60.0135703768,MAFE4ImagesEEG,001,101717,
AMSA25.JPG,AMNE24.JPG,AMSA24.JPG,AMNE26.JPG,AMSA21.JPG,AMNE25.JPG,,,,,0,6,6,3,,,,,,,,,,,,,,,,,,,AFNE12.jpg,AFNE05.jpg,AFSA01.jpg,AFSA07.jpg,AFSA07.jpg,FS,4,num_4,16,num_4,2.23326434214,,,2017_Oct_04_1820,60.0135703768,MAFE4ImagesEEG,001,101717,
AMSA21.JPG,AMNE22.JPG,AMNE21.JPG,AMSA23.JPG,AMSA22.JPG,AMNE23.JPG,,,,,0,7,7,1,,,,,,,,,,,,,,,,,,,AFSA11.jpg,AFNE02.jpg,AFSA06.jpg,AFNE03.jpg,AFSA06.jpg,FS,4,num_2,32,num_8,0.900118962512,,,2017_Oct_04_1820,60.0135703768,MAFE4ImagesEEG,001,101717,
AFSA21.JPG,AFNE22.JPG,AFNE21.JPG,AFSA23.JPG,AFSA22.JPG,AFNE23.JPG,,,,,0,8,8,0,,,,,,,,,,,,,,,,,,,AFSA19.jpg,AFNE13.jpg,AFNE14.jpg,AFSA08.jpg,AFNE13.jpg,FN,3,num_6,32,num_8,1.58339579747,,,2017_Oct_04_1820,60.0135703768,MAFE4ImagesEEG,001,101717,
AFNE22.JPG,AFSA24.JPG,AFSA22.JPG,AFNE25.JPG,AFNE24.JPG,AFSA25.JPG,,,,,0,9,9,6,,,,,,,,,,,,,,,,,,,AFNE05.jpg,AFSA11.jpg,AFSA05.jpg,AFNE14.jpg,AFSA05.jpg,FS,4,num_2,32,num_4,2.40001007123,,,2017_Oct_04_1820,60.0135703768,MAFE4ImagesEEG,001,101717,
AFNE23.JPG,AFNE24.JPG,AFNE22.JPG,AFSA24.JPG,AFSA22.JPG,AFSA23.JPG,,,,,,,,,0,0,0,8,,,,,,,,,,,,,,,AMNE18.jpg,AMNE20.jpg,AMSA03.jpg,AMSA02.jpg,AMNE20.jpg,MN,1,num_6,16,num_6,1.21671607668,,,2017_Oct_04_1820,60.0135703768,MAFE4ImagesEEG,001,101717,
AMSA21.JPG,AMNE23.JPG,AMNE21.JPG,AMSA25.JPG,AMNE25.JPG,AMSA23.JPG,,,,,,,,,0,1,1,5,,,,,,,,,,,,,,,AMSA04.jpg,AMSA18.jpg,AMNE02.jpg,AMNE19.jpg,AMNE02.jpg,MN,1,num_2,32,num_8,2.88296674342,,,2017_Oct_04_1820,60.0135703768,MAFE4ImagesEEG,001,101717,
AFSA25.JPG,AFNE24.JPG,AFSA24.JPG,AFNE21.JPG,AFSA21.JPG,AFNE25.JPG,,,,,,,,,0,2,2,2,,,,,,,,,,,,,,,AMSA07.jpg,AMNE03.jpg,AMSA19.jpg,AMNE15.jpg,AMNE15.jpg,MN,1,num_4,16,num_4,1.35005640215,,,2017_Oct_04_1820,60.0135703768,MAFE4ImagesEEG,001,101717,
AMSA25.JPG,AMNE24.JPG,AMSA24.JPG,AMNE26.JPG,AMSA21.JPG,AMNE25.JPG,,,,,,,,,0,3,3,3,,,,,,,,,,,,,,,AMSA10.jpg,AMNE06.jpg,AMSA12.jpg,AMNE09.jpg,AMNE09.jpg,MN,1,num_4,32,num_2,2.8836550517,,,2017_Oct_04_1820,60.0135703768,MAFE4ImagesEEG,001,101717,
AMSA21.JPG,AMNE22.JPG,AMNE21.JPG,AMSA23.JPG,AMSA22.JPG,AMNE23.JPG,,,,,,,,,0,4,4,1,,,,,,,,,,,,,,,AMSA17.jpg,AMNE03.jpg,AMNE10.jpg,AMSA16.jpg,AMNE10.jpg,MN,1,num_2,16,num_2,2.70000792228,,,2017_Oct_04_1820,60.0135703768,MAFE4ImagesEEG,001,101717,
AFSA21.JPG,AFNE23.JPG,AFNE21.JPG,AFSA25.JPG,AFNE25.JPG,AFSA23.JPG,,,,,,,,,0,5,5,4,,,,,,,,,,,,,,,AMNE15.jpg,AMSA11.jpg,AMSA01.jpg,AMNE09.jpg,AMNE09.jpg,MN,1,num_4,32,num_8,1.41669208532,,,2017_Oct_04_1820,60.0135703768,MAFE4ImagesEEG,001,101717,
AMNE22.JPG,AMSA24.JPG,AMSA22.JPG,AMNE25.JPG,AMNE24.JPG,AMSA25.JPG,,,,,,,,,0,6,6,7,,,,,,,,,,,,,,,AMSA06.jpg,AMNE01.jpg,AMSA07.jpg,AMNE06.jpg,AMNE01.jpg,MN,1,num_6,16,num_6,1.0834860858,,,2017_Oct_04_1820,60.0135703768,MAFE4ImagesEEG,001,101717,
AFNE22.JPG,AFSA24.JPG,AFSA22.JPG,AFNE25.JPG,AFNE24.JPG,AFSA25.JPG,,,,,,,,,0,7,7,6,,,,,,,,,,,,,,,AMNE12.jpg,AMNE04.jpg,AMSA16.jpg,AMSA07.jpg,AMSA07.jpg,MS,2,num_4,32,num_2,1.35006057177,,,2017_Oct_04_1820,60.0135703768,MAFE4ImagesEEG,001,101717,
AFSA21.JPG,AFNE22.JPG,AFNE21.JPG,AFSA23.JPG,AFSA22.JPG,AFNE23.JPG,,,,,,,,,0,8,8,0,,,,,,,,,,,,,,,AMNE04.jpg,AMNE02.jpg,AMSA07.jpg,AMSA08.jpg,AMSA07.jpg,MS,2,num_2,16,num_2,0.66678501977,,,2017_Oct_04_1820,60.0135703768,MAFE4ImagesEEG,001,101717,
AMNE23.JPG,AMNE24.JPG,AMNE22.JPG,AMSA24.JPG,AMSA22.JPG,AMSA23.JPG,,,,,,,,,0,9,9,9,,,,,,,,,,,,,,,AMSA14.jpg,AMNE08.jpg,AMSA06.jpg,AMNE12.jpg,AMSA06.jpg,MS,2,num_2,32,num_8,2.01669901331,,,2017_Oct_04_1820,60.0135703768,MAFE4ImagesEEG,001,101717,
AFSA25.JPG,AFNE24.JPG,AFSA24.JPG,AFNE21.JPG,AFSA21.JPG,AFNE25.JPG,,,,,,,,,,,,,0,0,0,2,,,,,,,,,,,AFSA18.jpg,AFNE16.jpg,AFNE14.jpg,AFSA17.jpg,AFNE14.jpg,FN,3,num_2,16,num_2,1.70003743038,,,2017_Oct_04_1820,60.0135703768,MAFE4ImagesEEG,001,101717,
AMSA21.JPG,AMNE22.JPG,AMNE21.JPG,AMSA23.JPG,AMSA22.JPG,AMNE23.JPG,,,,,,,,,,,,,0,1,1,1,,,,,,,,,,,AFNE14.jpg,AFSA04.jpg,AFSA17.jpg,AFNE15.jpg,AFNE15.jpg,FN,3,num_4,32,num_8,0.750116508847,,,2017_Oct_04_1820,60.0135703768,MAFE4ImagesEEG,001,101717,
AFNE23.JPG,AFNE24.JPG,AFNE22.JPG,AFSA24.JPG,AFSA22.JPG,AFSA23.JPG,,,,,,,,,,,,,0,2,2,8,,,,,,,,,,,AFSA05.jpg,AFNE14.jpg,AFNE05.jpg,AFSA17.jpg,AFSA05.jpg,FS,4,num_8,32,num_6,1.93337554274,,,2017_Oct_04_1820,60.0135703768,MAFE4ImagesEEG,001,101717,
AMSA21.JPG,AMNE23.JPG,AMNE21.JPG,AMSA25.JPG,AMNE25.JPG,AMSA23.JPG,,,,,,,,,,,,,0,3,3,5,,,,,,,,,,,AFNE11.jpg,AFSA13.jpg,AFNE18.jpg,AFSA11.jpg,AFSA13.jpg,FS,4,num_6,32,num_8,0.966767475285,,,2017_Oct_04_1820,60.0135703768,MAFE4ImagesEEG,001,101717,
AMSA25.JPG,AMNE24.JPG,AMSA24.JPG,AMNE26.JPG,AMSA21.JPG,AMNE25.JPG,,,,,,,,,,,,,0,4,4,3,,,,,,,,,,,AFSA12.jpg,AFSA09.jpg,AFNE01.jpg,AFNE11.jpg,AFSA09.jpg,FS,4,num_6,32,num_8,0.800139457802,,,2017_Oct_04_1820,60.0135703768,MAFE4ImagesEEG,001,101717,
AMNE22.JPG,AMSA24.JPG,AMSA22.JPG,AMNE25.JPG,AMNE24.JPG,AMSA25.JPG,,,,,,,,,,,,,0,5,5,7,,,,,,,,,,,AFNE19.jpg,AFNE15.jpg,AFSA14.jpg,AFSA18.jpg,AFNE19.jpg,FN,3,num_8,32,num_2,0.983471941174,,,2017_Oct_04_1820,60.0135703768,MAFE4ImagesEEG,001,101717,
AMNE23.JPG,AMNE24.JPG,AMNE22.JPG,AMSA24.JPG,AMSA22.JPG,AMSA23.JPG,,,,,,,,,,,,,0,6,6,9,,,,,,,,,,,AFNE19.jpg,AFSA18.jpg,AFSA16.jpg,AFNE16.jpg,AFNE16.jpg,FN,3,num_4,32,num_2,3.11657588118,,,2017_Oct_04_1820,60.0135703768,MAFE4ImagesEEG,001,101717,
AFSA21.JPG,AFNE22.JPG,AFNE21.JPG,AFSA23.JPG,AFSA22.JPG,AFNE23.JPG,,,,,,,,,,,,,0,7,7,0,,,,,,,,,,,AFSA15.jpg,AFNE08.jpg,AFNE02.jpg,AFSA04.jpg,AFSA04.jpg,FS,4,num_4,16,num_4,1.53338728182,,,2017_Oct_04_1820,60.0135703768,MAFE4ImagesEEG,001,101717,
AFNE22.JPG,AFSA24.JPG,AFSA22.JPG,AFNE25.JPG,AFNE24.JPG,AFSA25.JPG,,,,,,,,,,,,,0,8,8,6,,,,,,,,,,,AFNE10.jpg,AFSA07.jpg,AFSA18.jpg,AFNE02.jpg,AFNE02.jpg,FN,3,num_4,32,num_2,0.933472085497,,,2017_Oct_04_1820,60.0135703768,MAFE4ImagesEEG,001,101717,
AFSA21.JPG,AFNE23.JPG,AFNE21.JPG,AFSA25.JPG,AFNE25.JPG,AFSA23.JPG,,,,,,,,,,,,,0,9,9,4,,,,,,,,,,,AFNE15.jpg,AFNE02.jpg,AFSA08.jpg,AFSA15.jpg,AFSA08.jpg,FS,4,num_2,16,num_2,1.78335544837,,,2017_Oct_04_1820,60.0135703768,MAFE4ImagesEEG,001,101717,
AMNE23.JPG,AMNE24.JPG,AMNE22.JPG,AMSA24.JPG,AMSA22.JPG,AMSA23.JPG,,,,,,,,,,,,,,,,,0,0,0,9,,,,,,,AMNE07.jpg,AMNE14.jpg,AMSA17.jpg,AMSA18.jpg,AMNE14.jpg,MN,1,num_6,32,num_8,1.15022312287,,,2017_Oct_04_1820,60.0135703768,MAFE4ImagesEEG,001,101717,
AFSA21.JPG,AFNE23.JPG,AFNE21.JPG,AFSA25.JPG,AFNE25.JPG,AFSA23.JPG,,,,,,,,,,,,,,,,,0,1,1,4,,,,,,,AMSA02.jpg,AMNE20.jpg,AMSA04.jpg,AMNE01.jpg,AMSA04.jpg,MS,2,num_2,32,num_4,3.81656744571,,,2017_Oct_04_1820,60.0135703768,MAFE4ImagesEEG,001,101717,
AMSA21.JPG,AMNE22.JPG,AMNE21.JPG,AMSA23.JPG,AMSA22.JPG,AMNE23.JPG,,,,,,,,,,,,,,,,,0,2,2,1,,,,,,,AMSA18.jpg,AMNE18.jpg,AMNE09.jpg,AMSA14.jpg,AMSA14.jpg,MS,2,num_4,32,num_2,3.13328259224,,,2017_Oct_04_1820,60.0135703768,MAFE4ImagesEEG,001,101717,
AMSA21.JPG,AMNE23.JPG,AMNE21.JPG,AMSA25.JPG,AMNE25.JPG,AMSA23.JPG,,,,,,,,,,,,,,,,,0,3,3,5,,,,,,,AMSA12.jpg,AMNE13.jpg,AMSA15.jpg,AMNE05.jpg,AMNE13.jpg,MN,1,num_6,32,num_8,4.58344839884,,,2017_Oct_04_1820,60.0135703768,MAFE4ImagesEEG,001,101717,
AFNE22.JPG,AFSA24.JPG,AFSA22.JPG,AFNE25.JPG,AFNE24.JPG,AFSA25.JPG,,,,,,,,,,,,,,,,,0,4,4,6,,,,,,,AMSA11.jpg,AMSA03.jpg,AMNE19.jpg,AMNE12.jpg,AMSA11.jpg,MS,2,num_8,32,num_6,1.03348302275,,,2017_Oct_04_1820,60.0135703768,MAFE4ImagesEEG,001,101717,
AFNE23.JPG,AFNE24.JPG,AFNE22.JPG,AFSA24.JPG,AFSA22.JPG,AFSA23.JPG,,,,,,,,,,,,,,,,,0,5,5,8,,,,,,,AMSA05.jpg,AMSA18.jpg,AMNE17.jpg,AMNE19.jpg,AMNE19.jpg,MN,1,num_4,32,num_8,1.94999437101,,,2017_Oct_04_1820,60.0135703768,MAFE4ImagesEEG,001,101717,
AFSA25.JPG,AFNE24.JPG,AFSA24.JPG,AFNE21.JPG,AFSA21.JPG,AFNE25.JPG,,,,,,,,,,,,,,,,,0,6,6,2,,,,,,,AMNE11.jpg,AMSA08.jpg,AMNE19.jpg,AMSA11.jpg,AMSA08.jpg,MS,2,num_6,32,num_8,1.10007797193,,,2017_Oct_04_1820,60.0135703768,MAFE4ImagesEEG,001,101717,
AFSA21.JPG,AFNE22.JPG,AFNE21.JPG,AFSA23.JPG,AFSA22.JPG,AFNE23.JPG,,,,,,,,,,,,,,,,,0,7,7,0,,,,,,,AMSA10.jpg,AMNE16.jpg,AMSA02.jpg,AMNE14.jpg,AMNE14.jpg,MN,1,num_4,32,num_8,3.34998391489,,,2017_Oct_04_1820,60.0135703768,MAFE4ImagesEEG,001,101717,
AMNE22.JPG,AMSA24.JPG,AMSA22.JPG,AMNE25.JPG,AMNE24.JPG,AMSA25.JPG,,,,,,,,,,,,,,,,,0,8,8,7,,,,,,,AMNE10.jpg,AMSA07.jpg,AMNE01.jpg,AMSA14.jpg,AMNE10.jpg,MN,1,num_8,48,None,,,,2017_Oct_04_1820,60.0135703768,MAFE4ImagesEEG,001,101717,
AMSA25.JPG,AMNE24.JPG,AMSA24.JPG,AMNE26.JPG,AMSA21.JPG,AMNE25.JPG,,,,,,,,,,,,,,,,,0,9,9,3,,,,,,,AMSA11.jpg,AMSA06.jpg,AMNE03.jpg,AMNE04.jpg,AMNE03.jpg,MN,1,num_2,32,num_8,1.01679459386,,,2017_Oct_04_1820,60.0135703768,MAFE4ImagesEEG,001,101717,
AFSA21.JPG,AFNE22.JPG,AFNE21.JPG,AFSA23.JPG,AFSA22.JPG,AFNE23.JPG,,,,,,,,,,,,,,,,,,,,,0,0,0,0,,,AFSA03.jpg,AFNE12.jpg,AFNE02.jpg,AFSA08.jpg,AFSA03.jpg,FS,4,num_8,32,num_4,0.933462784044,,,2017_Oct_04_1820,60.0135703768,MAFE4ImagesEEG,001,101717,
AMSA21.JPG,AMNE22.JPG,AMNE21.JPG,AMSA23.JPG,AMSA22.JPG,AMNE23.JPG,,,,,,,,,,,,,,,,,,,,,0,1,1,1,,,AFNE09.jpg,AFSA19.jpg,AFSA08.jpg,AFNE07.jpg,AFSA19.jpg,FS,4,num_6,16,num_6,0.733752027474,,,2017_Oct_04_1820,60.0135703768,MAFE4ImagesEEG,001,101717,
AFSA25.JPG,AFNE24.JPG,AFSA24.JPG,AFNE21.JPG,AFSA21.JPG,AFNE25.JPG,,,,,,,,,,,,,,,,,,,,,0,2,2,2,,,AFNE12.jpg,AFNE04.jpg,AFSA20.jpg,AFSA03.jpg,AFNE04.jpg,FN,3,num_6,16,num_6,0.616772655238,,,2017_Oct_04_1820,60.0135703768,MAFE4ImagesEEG,001,101717,
AMSA21.JPG,AMNE23.JPG,AMNE21.JPG,AMSA25.JPG,AMNE25.JPG,AMSA23.JPG,,,,,,,,,,,,,,,,,,,,,0,3,3,5,,,AFSA14.jpg,AFNE08.jpg,AFSA07.jpg,AFNE03.jpg,AFNE03.jpg,FN,3,num_4,16,num_4,0.649991388127,,,2017_Oct_04_1820,60.0135703768,MAFE4ImagesEEG,001,101717,
AFNE23.JPG,AFNE24.JPG,AFNE22.JPG,AFSA24.JPG,AFSA22.JPG,AFSA23.JPG,,,,,,,,,,,,,,,,,,,,,0,4,4,8,,,AFSA10.jpg,AFSA09.jpg,AFNE20.jpg,AFNE11.jpg,AFSA10.jpg,FS,4,num_8,32,num_6,0.816791963793,,,2017_Oct_04_1820,60.0135703768,MAFE4ImagesEEG,001,101717,
AMNE22.JPG,AMSA24.JPG,AMSA22.JPG,AMNE25.JPG,AMNE24.JPG,AMSA25.JPG,,,,,,,,,,,,,,,,,,,,,0,5,5,7,,,AFSA16.jpg,AFNE20.jpg,AFNE05.jpg,AFSA10.jpg,AFSA10.jpg,FS,4,num_4,16,num_4,0.666724079143,,,2017_Oct_04_1820,60.0135703768,MAFE4ImagesEEG,001,101717,
AFNE22.JPG,AFSA24.JPG,AFSA22.JPG,AFNE25.JPG,AFNE24.JPG,AFSA25.JPG,,,,,,,,,,,,,,,,,,,,,0,6,6,6,,,AFNE06.jpg,AFNE11.jpg,AFSA13.jpg,AFSA02.jpg,AFSA13.jpg,FS,4,num_2,32,num_4,0.716752801425,,,2017_Oct_04_1820,60.0135703768,MAFE4ImagesEEG,001,101717,
AMSA25.JPG,AMNE24.JPG,AMSA24.JPG,AMNE26.JPG,AMSA21.JPG,AMNE25.JPG,,,,,,,,,,,,,,,,,,,,,0,7,7,3,,,AFNE09.jpg,AFSA10.jpg,AFSA03.jpg,AFNE10.jpg,AFNE10.jpg,FN,3,num_4,16,num_4,0.750098868142,,,2017_Oct_04_1820,60.0135703768,MAFE4ImagesEEG,001,101717,
AMNE23.JPG,AMNE24.JPG,AMNE22.JPG,AMSA24.JPG,AMSA22.JPG,AMSA23.JPG,,,,,,,,,,,,,,,,,,,,,0,8,8,9,,,AFNE06.jpg,AFNE01.jpg,AFSA17.jpg,AFSA06.jpg,AFNE06.jpg,FN,3,num_8,32,num_4,0.883511680877,,,2017_Oct_04_1820,60.0135703768,MAFE4ImagesEEG,001,101717,
AFSA21.JPG,AFNE23.JPG,AFNE21.JPG,AFSA25.JPG,AFNE25.JPG,AFSA23.JPG,,,,,,,,,,,,,,,,,,,,,0,9,9,4,,,AFNE14.jpg,AFSA05.jpg,AFNE10.jpg,AFSA01.jpg,AFSA01.jpg,FS,4,num_4,16,num_4,1.76667471723,,,2017_Oct_04_1820,60.0135703768,MAFE4ImagesEEG,001,101717,
,,,,,,,,,,,,,,,,,,,,,,,,,,,,,,,,,,,,,,,,,,,space,20.1986199194,2017_Oct_04_1820,60.0135703768,MAFE4ImagesEEG,001,101717,
AFNE01.JPG,AFNE01.JPG,AFNE01.JPG,AFNE01.JPG,AFNE01.JPG,AFNE01.JPG,0,0,0,6,,,,,,,,,,,,,,,,,,,,,,,AMSA17.jpg,AMNE07.jpg,AMNE20.jpg,AMSA13.jpg,AMNE07.jpg,MN,1,num_6,16,num_6,1.55008244625,,,2017_Oct_04_1820,60.0135703768,MAFE4ImagesEEG,001,101717,
AFNE01.JPG,AFNE01.JPG,AFNE01.JPG,AFNE01.JPG,AFNE01.JPG,AFNE01.JPG,0,1,1,2,,,,,,,,,,,,,,,,,,,,,,,AMNE07.jpg,AMSA19.jpg,AMSA11.jpg,AMNE19.jpg,AMNE07.jpg,MN,1,num_8,16,num_8,1.43341387117,,,2017_Oct_04_1820,60.0135703768,MAFE4ImagesEEG,001,101717,
AFNE01.JPG,AFNE01.JPG,AFNE01.JPG,AFNE01.JPG,AFNE01.JPG,AFNE01.JPG,0,2,2,3,,,,,,,,,,,,,,,,,,,,,,,AMNE15.jpg,AMSA01.jpg,AMSA06.jpg,AMNE06.jpg,AMSA06.jpg,MS,2,num_2,32,num_4,1.16680859416,,,2017_Oct_04_1820,60.0135703768,MAFE4ImagesEEG,001,101717,
AFNE01.JPG,AFNE01.JPG,AFNE01.JPG,AFNE01.JPG,AFNE01.JPG,AFNE01.JPG,0,3,3,7,,,,,,,,,,,,,,,,,,,,,,,AMNE02.jpg,AMSA08.jpg,AMNE08.jpg,AMSA16.jpg,AMNE08.jpg,MN,1,num_2,32,num_4,1.95007166937,,,2017_Oct_04_1820,60.0135703768,MAFE4ImagesEEG,001,101717,
AFNE01.JPG,AFNE01.JPG,AFNE01.JPG,AFNE01.JPG,AFNE01.JPG,AFNE01.JPG,0,4,4,8,,,,,,,,,,,,,,,,,,,,,,,AMSA04.jpg,AMSA09.jpg,AMNE13.jpg,AMNE19.jpg,AMSA09.jpg,MS,2,num_6,32,num_4,2.06666936088,,,2017_Oct_04_1820,60.0135703768,MAFE4ImagesEEG,001,101717,
AFNE01.JPG,AFNE01.JPG,AFNE01.JPG,AFNE01.JPG,AFNE01.JPG,AFNE01.JPG,0,5,5,1,,,,,,,,,,,,,,,,,,,,,,,AMSA03.jpg,AMNE04.jpg,AMSA18.jpg,AMNE14.jpg,AMNE14.jpg,MN,1,num_4,16,num_4,2.08336580827,,,2017_Oct_04_1820,60.0135703768,MAFE4ImagesEEG,001,101717,
AFNE01.JPG,AFNE01.JPG,AFNE01.JPG,AFNE01.JPG,AFNE01.JPG,AFNE01.JPG,0,6,6,4,,,,,,,,,,,,,,,,,,,,,,,AMSA15.jpg,AMNE09.jpg,AMNE11.jpg,AMSA06.jpg,AMNE09.jpg,MN,1,num_6,32,num_8,0.633531646949,,,2017_Oct_04_1820,60.0135703768,MAFE4ImagesEEG,001,101717,
AFNE01.JPG,AFNE01.JPG,AFNE01.JPG,AFNE01.JPG,AFNE01.JPG,AFNE01.JPG,0,7,7,5,,,,,,,,,,,,,,,,,,,,,,,AMSA17.jpg,AMSA14.jpg,AMNE04.jpg,AMNE05.jpg,AMNE04.jpg,MN,1,num_2,16,num_2,2.1000625764,,,2017_Oct_04_1820,60.0135703768,MAFE4ImagesEEG,001,101717,
AFNE01.JPG,AFNE01.JPG,AFNE01.JPG,AFNE01.JPG,AFNE01.JPG,AFNE01.JPG,0,8,8,0,,,,,,,,,,,,,,,,,,,,,,,AMNE11.jpg,AMSA12.jpg,AMNE01.jpg,AMSA11.jpg,AMSA12.jpg,MS,2,num_6,16,num_6,1.16673514468,,,2017_Oct_04_1820,60.0135703768,MAFE4ImagesEEG,001,101717,
AFNE01.JPG,AFNE01.JPG,AFNE01.JPG,AFNE01.JPG,AFNE01.JPG,AFNE01.JPG,0,9,9,9,,,,,,,,,,,,,,,,,,,,,,,AMSA18.jpg,AMNE16.jpg,AMNE03.jpg,AMSA20.jpg,AMSA20.jpg,MS,2,num_4,32,num_8,0.816839433319,,,2017_Oct_04_1820,60.0135703768,MAFE4ImagesEEG,001,101717,
AFNE01.JPG,AFNE01.JPG,AFNE01.JPG,AFNE01.JPG,AFNE01.JPG,AFNE01.JPG,1,0,10,1,,,,,,,,,,,,,,,,,,,,,,,AMSA06.jpg,AMNE03.jpg,AMSA19.jpg,AMNE19.jpg,AMSA19.jpg,MS,2,num_2,32,num_8,0.733480039868,,,2017_Oct_04_1820,60.0135703768,MAFE4ImagesEEG,001,101717,
AFNE01.JPG,AFNE01.JPG,AFNE01.JPG,AFNE01.JPG,AFNE01.JPG,AFNE01.JPG,1,1,11,6,,,,,,,,,,,,,,,,,,,,,,,AMSA17.jpg,AMNE01.jpg,AMNE13.jpg,AMSA04.jpg,AMNE13.jpg,MN,1,num_2,16,num_2,1.63337608798,,,2017_Oct_04_1820,60.0135703768,MAFE4ImagesEEG,001,101717,
AFNE01.JPG,AFNE01.JPG,AFNE01.JPG,AFNE01.JPG,AFNE01.JPG,AFNE01.JPG,1,2,12,8,,,,,,,,,,,,,,,,,,,,,,,AMNE02.jpg,AMNE13.jpg,AMSA01.jpg,AMSA02.jpg,AMSA02.jpg,MS,2,num_4,32,num_2,0.95010117747,,,2017_Oct_04_1820,60.0135703768,MAFE4ImagesEEG,001,101717,
AFNE01.JPG,AFNE01.JPG,AFNE01.JPG,AFNE01.JPG,AFNE01.JPG,AFNE01.JPG,1,3,13,3,,,,,,,,,,,,,,,,,,,,,,,AMSA06.jpg,AMNE02.jpg,AMSA02.jpg,AMNE12.jpg,AMNE12.jpg,MN,1,num_4,16,num_4,1.96666644214,,,2017_Oct_04_1820,60.0135703768,MAFE4ImagesEEG,001,101717,
AFNE01.JPG,AFNE01.JPG,AFNE01.JPG,AFNE01.JPG,AFNE01.JPG,AFNE01.JPG,1,4,14,4,,,,,,,,,,,,,,,,,,,,,,,AMNE14.jpg,AMNE05.jpg,AMSA08.jpg,AMSA12.jpg,AMSA12.jpg,MS,2,num_4,32,num_6,0.700074956956,,,2017_Oct_04_1820,60.0135703768,MAFE4ImagesEEG,001,101717,
AFNE01.JPG,AFNE01.JPG,AFNE01.JPG,AFNE01.JPG,AFNE01.JPG,AFNE01.JPG,1,5,15,9,,,,,,,,,,,,,,,,,,,,,,,AMSA07.jpg,AMNE09.jpg,AMNE03.jpg,AMSA04.jpg,AMNE03.jpg,MN,1,num_2,16,num_2,1.40006844593,,,2017_Oct_04_1820,60.0135703768,MAFE4ImagesEEG,001,101717,
AFNE01.JPG,AFNE01.JPG,AFNE01.JPG,AFNE01.JPG,AFNE01.JPG,AFNE01.JPG,1,6,16,5,,,,,,,,,,,,,,,,,,,,,,,AMSA13.jpg,AMNE18.jpg,AMSA05.jpg,AMNE20.jpg,AMSA05.jpg,MS,2,num_2,32,num_4,1.06675948887,,,2017_Oct_04_1820,60.0135703768,MAFE4ImagesEEG,001,101717,
AFNE01.JPG,AFNE01.JPG,AFNE01.JPG,AFNE01.JPG,AFNE01.JPG,AFNE01.JPG,1,7,17,7,,,,,,,,,,,,,,,,,,,,,,,AMSA15.jpg,AMNE20.jpg,AMNE03.jpg,AMSA20.jpg,AMNE20.jpg,MN,1,num_6,16,num_6,0.750121319958,,,2017_Oct_04_1820,60.0135703768,MAFE4ImagesEEG,001,101717,
AFNE01.JPG,AFNE01.JPG,AFNE01.JPG,AFNE01.JPG,AFNE01.JPG,AFNE01.JPG,1,8,18,0,,,,,,,,,,,,,,,,,,,,,,,AMSA10.jpg,AMNE09.jpg,AMSA06.jpg,AMNE05.jpg,AMSA06.jpg,MS,2,num_2,16,num_2,0.800179550308,,,2017_Oct_04_1820,60.0135703768,MAFE4ImagesEEG,001,101717,
AFNE01.JPG,AFNE01.JPG,AFNE01.JPG,AFNE01.JPG,AFNE01.JPG,AFNE01.JPG,1,9,19,2,,,,,,,,,,,,,,,,,,,,,,,AMSA08.jpg,AMNE19.jpg,AMSA04.jpg,AMNE20.jpg,AMSA08.jpg,MS,2,num_8,32,num_2,1.05011532211,,,2017_Oct_04_1820,60.0135703768,MAFE4ImagesEEG,001,101717,
AFNE01.JPG,AFNE01.JPG,AFNE01.JPG,AFNE01.JPG,AFNE01.JPG,AFNE01.JPG,2,0,20,1,,,,,,,,,,,,,,,,,,,,,,,AMSA16.jpg,AMNE08.jpg,AMSA15.jpg,AMNE18.jpg,AMNE08.jpg,MN,1,num_6,16,num_6,0.800104176378,,,2017_Oct_04_1820,60.0135703768,MAFE4ImagesEEG,001,101717,
AFNE01.JPG,AFNE01.JPG,AFNE01.JPG,AFNE01.JPG,AFNE01.JPG,AFNE01.JPG,2,1,21,4,,,,,,,,,,,,,,,,,,,,,,,AMNE16.jpg,AMSA20.jpg,AMNE14.jpg,AMSA12.jpg,AMNE14.jpg,MN,1,num_2,16,num_2,1.10011100816,,,2017_Oct_04_1820,60.0135703768,MAFE4ImagesEEG,001,101717,
AFNE01.JPG,AFNE01.JPG,AFNE01.JPG,AFNE01.JPG,AFNE01.JPG,AFNE01.JPG,2,2,22,2,,,,,,,,,,,,,,,,,,,,,,,AMNE03.jpg,AMNE02.jpg,AMSA05.jpg,AMSA15.jpg,AMNE03.jpg,MN,1,num_8,32,num_6,1.1001873443,,,2017_Oct_04_1820,60.0135703768,MAFE4ImagesEEG,001,101717,
AFNE01.JPG,AFNE01.JPG,AFNE01.JPG,AFNE01.JPG,AFNE01.JPG,AFNE01.JPG,2,3,23,7,,,,,,,,,,,,,,,,,,,,,,,AMSA19.jpg,AMNE03.jpg,AMSA06.jpg,AMNE10.jpg,AMSA06.jpg,MS,2,num_2,32,num_8,1.4000729363,,,2017_Oct_04_1820,60.0135703768,MAFE4ImagesEEG,001,101717,
AFNE01.JPG,AFNE01.JPG,AFNE01.JPG,AFNE01.JPG,AFNE01.JPG,AFNE01.JPG,2,4,24,6,,,,,,,,,,,,,,,,,,,,,,,AMNE16.jpg,AMSA05.jpg,AMNE04.jpg,AMSA15.jpg,AMSA15.jpg,MS,2,num_4,16,num_4,0.950113686325,,,2017_Oct_04_1820,60.0135703768,MAFE4ImagesEEG,001,101717,
AFNE01.JPG,AFNE01.JPG,AFNE01.JPG,AFNE01.JPG,AFNE01.JPG,AFNE01.JPG,2,5,25,5,,,,,,,,,,,,,,,,,,,,,,,AMNE01.jpg,AMSA12.jpg,AMSA11.jpg,AMNE02.jpg,AMSA11.jpg,MS,2,num_2,32,num_6,1.6166876591,,,2017_Oct_04_1820,60.0135703768,MAFE4ImagesEEG,001,101717,
AFNE01.JPG,AFNE01.JPG,AFNE01.JPG,AFNE01.JPG,AFNE01.JPG,AFNE01.JPG,2,6,26,0,,,,,,,,,,,,,,,,,,,,,,,AMNE13.jpg,AMSA02.jpg,AMNE01.jpg,AMSA03.jpg,AMNE13.jpg,MN,1,num_8,16,num_8,1.50007810022,,,2017_Oct_04_1820,60.0135703768,MAFE4ImagesEEG,001,101717,
AFNE01.JPG,AFNE01.JPG,AFNE01.JPG,AFNE01.JPG,AFNE01.JPG,AFNE01.JPG,2,7,27,8,,,,,,,,,,,,,,,,,,,,,,,AMSA16.jpg,AMSA08.jpg,AMNE02.jpg,AMNE06.jpg,AMNE06.jpg,MN,1,num_4,16,num_4,0.950113365587,,,2017_Oct_04_1820,60.0135703768,MAFE4ImagesEEG,001,101717,
AFNE01.JPG,AFNE01.JPG,AFNE01.JPG,AFNE01.JPG,AFNE01.JPG,AFNE01.JPG,2,8,28,3,,,,,,,,,,,,,,,,,,,,,,,AMSA16.jpg,AMSA04.jpg,AMNE03.jpg,AMNE19.jpg,AMNE03.jpg,MN,1,num_2,32,num_8,1.33342153687,,,2017_Oct_04_1820,60.0135703768,MAFE4ImagesEEG,001,101717,
AFNE01.JPG,AFNE01.JPG,AFNE01.JPG,AFNE01.JPG,AFNE01.JPG,AFNE01.JPG,2,9,29,9,,,,,,,,,,,,,,,,,,,,,,,AMSA12.jpg,AMNE02.jpg,AMSA04.jpg,AMNE12.jpg,AMNE12.jpg,MN,1,num_4,32,num_6,1.55031369987,,,2017_Oct_04_1820,60.0135703768,MAFE4ImagesEEG,001,101717,
AFNE01.JPG,AFNE01.JPG,AFNE01.JPG,AFNE01.JPG,AFNE01.JPG,AFNE01.JPG,3,0,30,5,,,,,,,,,,,,,,,,,,,,,,,AMNE10.jpg,AMSA10.jpg,AMSA16.jpg,AMNE03.jpg,AMSA10.jpg,MS,2,num_6,32,num_2,1.166756955,,,2017_Oct_04_1820,60.0135703768,MAFE4ImagesEEG,001,101717,
AFNE01.JPG,AFNE01.JPG,AFNE01.JPG,AFNE01.JPG,AFNE01.JPG,AFNE01.JPG,3,1,31,8,,,,,,,,,,,,,,,,,,,,,,,AMSA03.jpg,AMSA16.jpg,AMNE19.jpg,AMNE17.jpg,AMNE19.jpg,MN,1,num_2,32,num_6,1.08345818143,,,2017_Oct_04_1820,60.0135703768,MAFE4ImagesEEG,001,101717,
AFNE01.JPG,AFNE01.JPG,AFNE01.JPG,AFNE01.JPG,AFNE01.JPG,AFNE01.JPG,3,2,32,7,,,,,,,,,,,,,,,,,,,,,,,AMSA16.jpg,AMSA13.jpg,AMNE20.jpg,AMNE06.jpg,AMSA13.jpg,MS,2,num_6,32,num_4,1.16672616395,,,2017_Oct_04_1820,60.0135703768,MAFE4ImagesEEG,001,101717,
AFNE01.JPG,AFNE01.JPG,AFNE01.JPG,AFNE01.JPG,AFNE01.JPG,AFNE01.JPG,3,3,33,3,,,,,,,,,,,,,,,,,,,,,,,AMSA05.jpg,AMSA14.jpg,AMNE03.jpg,AMNE12.jpg,AMNE03.jpg,MN,1,num_2,32,num_4,0.916594419963,,,2017_Oct_04_1820,60.0135703768,MAFE4ImagesEEG,001,101717,
AFNE01.JPG,AFNE01.JPG,AFNE01.JPG,AFNE01.JPG,AFNE01.JPG,AFNE01.JPG,3,4,34,1,,,,,,,,,,,,,,,,,,,,,,,AMNE11.jpg,AMSA04.jpg,AMSA16.jpg,AMNE18.jpg,AMSA04.jpg,MS,2,num_6,16,num_6,0.666645497826,,,2017_Oct_04_1820,60.0135703768,MAFE4ImagesEEG,001,101717,
AFNE01.JPG,AFNE01.JPG,AFNE01.JPG,AFNE01.JPG,AFNE01.JPG,AFNE01.JPG,3,5,35,9,,,,,,,,,,,,,,,,,,,,,,,AMSA05.jpg,AMNE06.jpg,AMSA14.jpg,AMNE16.jpg,AMSA05.jpg,MS,2,num_8,32,num_2,1.83344511126,,,2017_Oct_04_1820,60.0135703768,MAFE4ImagesEEG,001,101717,
AFNE01.JPG,AFNE01.JPG,AFNE01.JPG,AFNE01.JPG,AFNE01.JPG,AFNE01.JPG,3,6,36,0,,,,,,,,,,,,,,,,,,,,,,,AMSA20.jpg,AMNE02.jpg,AMNE03.jpg,AMSA01.jpg,AMNE03.jpg,MN,1,num_2,32,num_6,0.816824037815,,,2017_Oct_04_1820,60.0135703768,MAFE4ImagesEEG,001,101717,
AFNE01.JPG,AFNE01.JPG,AFNE01.JPG,AFNE01.JPG,AFNE01.JPG,AFNE01.JPG,3,7,37,2,,,,,,,,,,,,,,,,,,,,,,,AMNE03.jpg,AMNE12.jpg,AMSA08.jpg,AMSA03.jpg,AMSA08.jpg,MS,2,num_2,16,num_2,1.016757388,,,2017_Oct_04_1820,60.0135703768,MAFE4ImagesEEG,001,101717,
AFNE01.JPG,AFNE01.JPG,AFNE01.JPG,AFNE01.JPG,AFNE01.JPG,AFNE01.JPG,3,8,38,6,,,,,,,,,,,,,,,,,,,,,,,AMNE02.jpg,AMSA13.jpg,AMNE08.jpg,AMSA20.jpg,AMSA20.jpg,MS,2,num_4,32,num_8,1.150081035,,,2017_Oct_04_1820,60.0135703768,MAFE4ImagesEEG,001,101717,
AFNE01.JPG,AFNE01.JPG,AFNE01.JPG,AFNE01.JPG,AFNE01.JPG,AFNE01.JPG,3,9,39,4,,,,,,,,,,,,,,,,,,,,,,,AMSA09.jpg,AMNE20.jpg,AMNE05.jpg,AMSA08.jpg,AMSA09.jpg,MS,2,num_8,32,num_2,2.4166718787,,,2017_Oct_04_1820,60.0135703768,MAFE4ImagesEEG,001,101717,
AFNE01.JPG,AFNE01.JPG,AFNE01.JPG,AFNE01.JPG,AFNE01.JPG,AFNE01.JPG,4,0,40,2,,,,,,,,,,,,,,,,,,,,,,,AMNE06.jpg,AMNE14.jpg,AMSA09.jpg,AMSA17.jpg,AMSA09.jpg,MS,2,num_2,16,num_2,0.683478259758,,,2017_Oct_04_1820,60.0135703768,MAFE4ImagesEEG,001,101717,
AFNE01.JPG,AFNE01.JPG,AFNE01.JPG,AFNE01.JPG,AFNE01.JPG,AFNE01.JPG,4,1,41,5,,,,,,,,,,,,,,,,,,,,,,,AMSA02.jpg,AMNE16.jpg,AMSA09.jpg,AMNE06.jpg,AMNE06.jpg,MN,1,num_4,16,num_4,1.70002395927,,,2017_Oct_04_1820,60.0135703768,MAFE4ImagesEEG,001,101717,
AFNE01.JPG,AFNE01.JPG,AFNE01.JPG,AFNE01.JPG,AFNE01.JPG,AFNE01.JPG,4,2,42,0,,,,,,,,,,,,,,,,,,,,,,,AMNE12.jpg,AMSA01.jpg,AMSA07.jpg,AMNE18.jpg,AMSA07.jpg,MS,2,num_2,16,num_2,0.800186285851,,,2017_Oct_04_1820,60.0135703768,MAFE4ImagesEEG,001,101717,
AFNE01.JPG,AFNE01.JPG,AFNE01.JPG,AFNE01.JPG,AFNE01.JPG,AFNE01.JPG,4,3,43,7,,,,,,,,,,,,,,,,,,,,,,,AMNE05.jpg,AMNE10.jpg,AMSA14.jpg,AMSA18.jpg,AMNE10.jpg,MN,1,num_6,32,num_8,1.83337968029,,,2017_Oct_04_1820,60.0135703768,MAFE4ImagesEEG,001,101717,
AFNE01.JPG,AFNE01.JPG,AFNE01.JPG,AFNE01.JPG,AFNE01.JPG,AFNE01.JPG,4,4,44,6,,,,,,,,,,,,,,,,,,,,,,,AMSA17.jpg,AMNE06.jpg,AMNE13.jpg,AMSA02.jpg,AMSA02.jpg,MS,2,num_4,16,num_4,1.31656504016,,,2017_Oct_04_1820,60.0135703768,MAFE4ImagesEEG,001,101717,
AFNE01.JPG,AFNE01.JPG,AFNE01.JPG,AFNE01.JPG,AFNE01.JPG,AFNE01.JPG,4,5,45,1,,,,,,,,,,,,,,,,,,,,,,,AMNE14.jpg,AMSA17.jpg,AMNE01.jpg,AMSA08.jpg,AMNE14.jpg,MN,1,num_8,32,num_4,1.76670807422,,,2017_Oct_04_1820,60.0135703768,MAFE4ImagesEEG,001,101717,
AFNE01.JPG,AFNE01.JPG,AFNE01.JPG,AFNE01.JPG,AFNE01.JPG,AFNE01.JPG,4,6,46,8,,,,,,,,,,,,,,,,,,,,,,,AMNE05.jpg,AMSA04.jpg,AMNE16.jpg,AMSA02.jpg,AMSA04.jpg,MS,2,num_6,16,num_6,1.40008063406,,,2017_Oct_04_1820,60.0135703768,MAFE4ImagesEEG,001,101717,
AFNE01.JPG,AFNE01.JPG,AFNE01.JPG,AFNE01.JPG,AFNE01.JPG,AFNE01.JPG,4,7,47,4,,,,,,,,,,,,,,,,,,,,,,,AMNE01.jpg,AMSA16.jpg,AMNE10.jpg,AMSA19.jpg,AMSA19.jpg,MS,2,num_4,16,num_4,0.96673123166,,,2017_Oct_04_1820,60.0135703768,MAFE4ImagesEEG,001,101717,
AFNE01.JPG,AFNE01.JPG,AFNE01.JPG,AFNE01.JPG,AFNE01.JPG,AFNE01.JPG,4,8,48,9,,,,,,,,,,,,,,,,,,,,,,,AMNE09.jpg,AMNE15.jpg,AMSA05.jpg,AMSA17.jpg,AMSA17.jpg,MS,2,num_4,32,num_2,1.45006413199,,,2017_Oct_04_1820,60.0135703768,MAFE4ImagesEEG,001,101717,
AFNE01.JPG,AFNE01.JPG,AFNE01.JPG,AFNE01.JPG,AFNE01.JPG,AFNE01.JPG,4,9,49,3,,,,,,,,,,,,,,,,,,,,,,,AMSA16.jpg,AMSA01.jpg,AMNE15.jpg,AMNE20.jpg,AMSA01.jpg,MS,2,num_6,16,num_6,0.733479398375,,,2017_Oct_04_1820,60.0135703768,MAFE4ImagesEEG,001,101717,
AFNE01.JPG,AFNE01.JPG,AFNE01.JPG,AFNE01.JPG,AFNE01.JPG,AFNE01.JPG,5,0,50,4,,,,,,,,,,,,,,,,,,,,,,,AMSA11.jpg,AMNE15.jpg,AMNE05.jpg,AMSA07.jpg,AMSA11.jpg,MS,2,num_8,16,num_8,1.50041968844,,,2017_Oct_04_1820,60.0135703768,MAFE4ImagesEEG,001,101717,
AFNE01.JPG,AFNE01.JPG,AFNE01.JPG,AFNE01.JPG,AFNE01.JPG,AFNE01.JPG,5,1,51,5,,,,,,,,,,,,,,,,,,,,,,,AMSA09.jpg,AMNE03.jpg,AMSA08.jpg,AMNE10.jpg,AMNE03.jpg,MN,1,num_6,32,num_4,1.51677807575,,,2017_Oct_04_1820,60.0135703768,MAFE4ImagesEEG,001,101717,
AFNE01.JPG,AFNE01.JPG,AFNE01.JPG,AFNE01.JPG,AFNE01.JPG,AFNE01.JPG,5,2,52,9,,,,,,,,,,,,,,,,,,,,,,,AMNE18.jpg,AMSA19.jpg,AMNE17.jpg,AMSA06.jpg,AMNE17.jpg,MN,1,num_2,32,num_4,1.6667901516,,,2017_Oct_04_1820,60.0135703768,MAFE4ImagesEEG,001,101717,
AFNE01.JPG,AFNE01.JPG,AFNE01.JPG,AFNE01.JPG,AFNE01.JPG,AFNE01.JPG,5,3,53,1,,,,,,,,,,,,,,,,,,,,,,,AMNE06.jpg,AMNE16.jpg,AMSA17.jpg,AMSA02.jpg,AMNE16.jpg,MN,1,num_6,32,num_8,1.10007572675,,,2017_Oct_04_1820,60.0135703768,MAFE4ImagesEEG,001,101717,
AFNE01.JPG,AFNE01.JPG,AFNE01.JPG,AFNE01.JPG,AFNE01.JPG,AFNE01.JPG,5,4,54,2,,,,,,,,,,,,,,,,,,,,,,,AMNE14.jpg,AMSA06.jpg,AMNE17.jpg,AMSA14.jpg,AMNE17.jpg,MN,1,num_2,32,num_8,1.53336547149,,,2017_Oct_04_1820,60.0135703768,MAFE4ImagesEEG,001,101717,
AFNE01.JPG,AFNE01.JPG,AFNE01.JPG,AFNE01.JPG,AFNE01.JPG,AFNE01.JPG,5,5,55,6,,,,,,,,,,,,,,,,,,,,,,,AMNE17.jpg,AMNE15.jpg,AMSA17.jpg,AMSA06.jpg,AMSA17.jpg,MS,2,num_2,32,num_8,0.566788195094,,,2017_Oct_04_1820,60.0135703768,MAFE4ImagesEEG,001,101717,
AFNE01.JPG,AFNE01.JPG,AFNE01.JPG,AFNE01.JPG,AFNE01.JPG,AFNE01.JPG,5,6,56,0,,,,,,,,,,,,,,,,,,,,,,,AMSA20.jpg,AMNE16.jpg,AMNE13.jpg,AMSA17.jpg,AMSA17.jpg,MS,2,num_4,16,num_4,0.800115402293,,,2017_Oct_04_1820,60.0135703768,MAFE4ImagesEEG,001,101717,
AFNE01.JPG,AFNE01.JPG,AFNE01.JPG,AFNE01.JPG,AFNE01.JPG,AFNE01.JPG,5,7,57,8,,,,,,,,,,,,,,,,,,,,,,,AMNE15.jpg,AMNE09.jpg,AMSA06.jpg,AMSA12.jpg,AMNE09.jpg,MN,1,num_6,32,num_8,1.35004261033,,,2017_Oct_04_1820,60.0135703768,MAFE4ImagesEEG,001,101717,
AFNE01.JPG,AFNE01.JPG,AFNE01.JPG,AFNE01.JPG,AFNE01.JPG,AFNE01.JPG,5,8,58,7,,,,,,,,,,,,,,,,,,,,,,,AMSA08.jpg,AMSA16.jpg,AMNE15.jpg,AMNE08.jpg,AMNE15.jpg,MN,1,num_2,16,num_2,1.44976552294,,,2017_Oct_04_1820,60.0135703768,MAFE4ImagesEEG,001,101717,
AFNE01.JPG,AFNE01.JPG,AFNE01.JPG,AFNE01.JPG,AFNE01.JPG,AFNE01.JPG,5,9,59,3,,,,,,,,,,,,,,,,,,,,,,,AMSA10.jpg,AMNE05.jpg,AMNE04.jpg,AMSA18.jpg,AMNE04.jpg,MN,1,num_2,16,num_2,1.21679305431,,,2017_Oct_04_1820,60.0135703768,MAFE4ImagesEEG,001,101717,
,,,,,,,,,,,,,,,,,,,,,,,,,,,,,,,,,,,,,,,,,,,space,22.1987770821,2017_Oct_04_1820,60.0135703768,MAFE4ImagesEEG,001,101717,
AFNE01.JPG,AFNE01.JPG,AFNE01.JPG,AFNE01.JPG,AFNE01.JPG,AFNE01.JPG,,,,,0,0,0,5,,,,,,,,,,,,,,,,,,,AFNE17.jpg,AFNE03.jpg,AFSA18.jpg,AFSA12.jpg,AFSA18.jpg,FS,4,num_2,32,num_4,1.21670934113,,,2017_Oct_04_1820,60.0135703768,MAFE4ImagesEEG,001,101717,
AFNE01.JPG,AFNE01.JPG,AFNE01.JPG,AFNE01.JPG,AFNE01.JPG,AFNE01.JPG,,,,,0,1,1,0,,,,,,,,,,,,,,,,,,,AFNE03.jpg,AFNE04.jpg,AFSA18.jpg,AFSA03.jpg,AFSA18.jpg,FS,4,num_2,16,num_2,0.783475084419,,,2017_Oct_04_1820,60.0135703768,MAFE4ImagesEEG,001,101717,
AFNE01.JPG,AFNE01.JPG,AFNE01.JPG,AFNE01.JPG,AFNE01.JPG,AFNE01.JPG,,,,,0,2,2,1,,,,,,,,,,,,,,,,,,,AFNE13.jpg,AFSA03.jpg,AFSA06.jpg,AFNE02.jpg,AFNE13.jpg,FN,3,num_8,32,num_2,1.18341780025,,,2017_Oct_04_1820,60.0135703768,MAFE4ImagesEEG,001,101717,
AFNE01.JPG,AFNE01.JPG,AFNE01.JPG,AFNE01.JPG,AFNE01.JPG,AFNE01.JPG,,,,,0,3,3,2,,,,,,,,,,,,,,,,,,,AFSA03.jpg,AFSA12.jpg,AFNE20.jpg,AFNE10.jpg,AFSA12.jpg,FS,4,num_6,16,num_6,0.883425722524,,,2017_Oct_04_1820,60.0135703768,MAFE4ImagesEEG,001,101717,
AFNE01.JPG,AFNE01.JPG,AFNE01.JPG,AFNE01.JPG,AFNE01.JPG,AFNE01.JPG,,,,,0,4,4,8,,,,,,,,,,,,,,,,,,,AFSA13.jpg,AFSA17.jpg,AFNE06.jpg,AFNE02.jpg,AFSA13.jpg,FS,4,num_8,32,num_2,1.29978359665,,,2017_Oct_04_1820,60.0135703768,MAFE4ImagesEEG,001,101717,
AFNE01.JPG,AFNE01.JPG,AFNE01.JPG,AFNE01.JPG,AFNE01.JPG,AFNE01.JPG,,,,,0,5,5,3,,,,,,,,,,,,,,,,,,,AFSA11.jpg,AFNE06.jpg,AFNE02.jpg,AFSA16.jpg,AFSA11.jpg,FS,4,num_8,16,num_8,0.91680482548,,,2017_Oct_04_1820,60.0135703768,MAFE4ImagesEEG,001,101717,
AFNE01.JPG,AFNE01.JPG,AFNE01.JPG,AFNE01.JPG,AFNE01.JPG,AFNE01.JPG,,,,,0,6,6,6,,,,,,,,,,,,,,,,,,,AFNE11.jpg,AFSA01.jpg,AFNE03.jpg,AFSA17.jpg,AFNE11.jpg,FN,3,num_8,16,num_8,1.16674508763,,,2017_Oct_04_1820,60.0135703768,MAFE4ImagesEEG,001,101717,
AFNE01.JPG,AFNE01.JPG,AFNE01.JPG,AFNE01.JPG,AFNE01.JPG,AFNE01.JPG,,,,,0,7,7,4,,,,,,,,,,,,,,,,,,,AFSA17.jpg,AFNE08.jpg,AFSA08.jpg,AFNE18.jpg,AFSA17.jpg,FS,4,num_8,32,num_6,1.45014175109,,,2017_Oct_04_1820,60.0135703768,MAFE4ImagesEEG,001,101717,
AFNE01.JPG,AFNE01.JPG,AFNE01.JPG,AFNE01.JPG,AFNE01.JPG,AFNE01.JPG,,,,,0,8,8,9,,,,,,,,,,,,,,,,,,,AFNE12.jpg,AFSA13.jpg,AFSA09.jpg,AFNE08.jpg,AFSA13.jpg,FS,4,num_6,16,num_6,0.95013004409,,,2017_Oct_04_1820,60.0135703768,MAFE4ImagesEEG,001,101717,
AFNE01.JPG,AFNE01.JPG,AFNE01.JPG,AFNE01.JPG,AFNE01.JPG,AFNE01.JPG,,,,,0,9,9,7,,,,,,,,,,,,,,,,,,,AFSA06.jpg,AFNE04.jpg,AFSA16.jpg,AFNE18.jpg,AFNE18.jpg,FN,3,num_4,32,num_8,1.19997183903,,,2017_Oct_04_1820,60.0135703768,MAFE4ImagesEEG,001,101717,
AFNE01.JPG,AFNE01.JPG,AFNE01.JPG,AFNE01.JPG,AFNE01.JPG,AFNE01.JPG,,,,,1,0,10,7,,,,,,,,,,,,,,,,,,,AFNE08.jpg,AFSA20.jpg,AFNE12.jpg,AFSA16.jpg,AFSA20.jpg,FS,4,num_6,32,num_8,1.13347696076,,,2017_Oct_04_1820,60.0135703768,MAFE4ImagesEEG,001,101717,
AFNE01.JPG,AFNE01.JPG,AFNE01.JPG,AFNE01.JPG,AFNE01.JPG,AFNE01.JPG,,,,,1,1,11,0,,,,,,,,,,,,,,,,,,,AFNE15.jpg,AFNE07.jpg,AFSA13.jpg,AFSA01.jpg,AFNE15.jpg,FN,3,num_8,32,num_6,1.60003034202,,,2017_Oct_04_1820,60.0135703768,MAFE4ImagesEEG,001,101717,
AFNE01.JPG,AFNE01.JPG,AFNE01.JPG,AFNE01.JPG,AFNE01.JPG,AFNE01.JPG,,,,,1,2,12,3,,,,,,,,,,,,,,,,,,,AFSA16.jpg,AFNE13.jpg,AFNE17.jpg,AFSA20.jpg,AFSA16.jpg,FS,4,num_8,32,num_4,0.933460218133,,,2017_Oct_04_1820,60.0135703768,MAFE4ImagesEEG,001,101717,
AFNE01.JPG,AFNE01.JPG,AFNE01.JPG,AFNE01.JPG,AFNE01.JPG,AFNE01.JPG,,,,,1,3,13,2,,,,,,,,,,,,,,,,,,,AFSA10.jpg,AFNE07.jpg,AFNE18.jpg,AFSA17.jpg,AFSA17.jpg,FS,4,num_4,32,num_2,3.89987263409,,,2017_Oct_04_1820,60.0135703768,MAFE4ImagesEEG,001,101717,
AFNE01.JPG,AFNE01.JPG,AFNE01.JPG,AFNE01.JPG,AFNE01.JPG,AFNE01.JPG,,,,,1,4,14,8,,,,,,,,,,,,,,,,,,,AFSA14.jpg,AFSA09.jpg,AFNE01.jpg,AFNE05.jpg,AFNE05.jpg,FN,3,num_4,16,num_4,1.38312951903,,,2017_Oct_04_1820,60.0135703768,MAFE4ImagesEEG,001,101717,
AFNE01.JPG,AFNE01.JPG,AFNE01.JPG,AFNE01.JPG,AFNE01.JPG,AFNE01.JPG,,,,,1,5,15,5,,,,,,,,,,,,,,,,,,,AFNE08.jpg,AFSA15.jpg,AFNE05.jpg,AFSA05.jpg,AFNE08.jpg,FN,3,num_8,16,num_8,0.883451702466,,,2017_Oct_04_1820,60.0135703768,MAFE4ImagesEEG,001,101717,
AFNE01.JPG,AFNE01.JPG,AFNE01.JPG,AFNE01.JPG,AFNE01.JPG,AFNE01.JPG,,,,,1,6,16,1,,,,,,,,,,,,,,,,,,,AFNE01.jpg,AFSA16.jpg,AFSA12.jpg,AFNE15.jpg,AFSA16.jpg,FS,4,num_6,16,num_6,1.78340516309,,,2017_Oct_04_1820,60.0135703768,MAFE4ImagesEEG,001,101717,
AFNE01.JPG,AFNE01.JPG,AFNE01.JPG,AFNE01.JPG,AFNE01.JPG,AFNE01.JPG,,,,,1,7,17,9,,,,,,,,,,,,,,,,,,,AFSA10.jpg,AFSA06.jpg,AFNE19.jpg,AFNE04.jpg,AFSA06.jpg,FS,4,num_6,16,num_6,0.883720161946,,,2017_Oct_04_1820,60.0135703768,MAFE4ImagesEEG,001,101717,
AFNE01.JPG,AFNE01.JPG,AFNE01.JPG,AFNE01.JPG,AFNE01.JPG,AFNE01.JPG,,,,,1,8,18,6,,,,,,,,,,,,,,,,,,,AFNE10.jpg,AFSA14.jpg,AFSA19.jpg,AFNE18.jpg,AFNE10.jpg,FN,3,num_8,32,num_4,1.15010926012,,,2017_Oct_04_1820,60.0135703768,MAFE4ImagesEEG,001,101717,
AFNE01.JPG,AFNE01.JPG,AFNE01.JPG,AFNE01.JPG,AFNE01.JPG,AFNE01.JPG,,,,,1,9,19,4,,,,,,,,,,,,,,,,,,,AFSA02.jpg,AFSA10.jpg,AFNE05.jpg,AFNE20.jpg,AFSA02.jpg,FS,4,num_8,16,num_8,1.31673823982,,,2017_Oct_04_1820,60.0135703768,MAFE4ImagesEEG,001,101717,
AFNE01.JPG,AFNE01.JPG,AFNE01.JPG,AFNE01.JPG,AFNE01.JPG,AFNE01.JPG,,,,,2,0,20,6,,,,,,,,,,,,,,,,,,,AFNE14.jpg,AFSA03.jpg,AFSA16.jpg,AFNE17.jpg,AFSA16.jpg,FS,4,num_2,16,num_2,2.00010199535,,,2017_Oct_04_1820,60.0135703768,MAFE4ImagesEEG,001,101717,
AFNE01.JPG,AFNE01.JPG,AFNE01.JPG,AFNE01.JPG,AFNE01.JPG,AFNE01.JPG,,,,,2,1,21,4,,,,,,,,,,,,,,,,,,,AFSA03.jpg,AFSA12.jpg,AFNE06.jpg,AFNE04.jpg,AFSA03.jpg,FS,4,num_8,16,num_8,1.00012091902,,,2017_Oct_04_1820,60.0135703768,MAFE4ImagesEEG,001,101717,
AFNE01.JPG,AFNE01.JPG,AFNE01.JPG,AFNE01.JPG,AFNE01.JPG,AFNE01.JPG,,,,,2,2,22,9,,,,,,,,,,,,,,,,,,,AFNE04.jpg,AFSA06.jpg,AFSA07.jpg,AFNE18.jpg,AFNE04.jpg,FN,3,num_8,32,num_2,1.3834043933,,,2017_Oct_04_1820,60.0135703768,MAFE4ImagesEEG,001,101717,
AFNE01.JPG,AFNE01.JPG,AFNE01.JPG,AFNE01.JPG,AFNE01.JPG,AFNE01.JPG,,,,,2,3,23,5,,,,,,,,,,,,,,,,,,,AFNE06.jpg,AFNE09.jpg,AFSA19.jpg,AFSA08.jpg,AFSA08.jpg,FS,4,num_4,16,num_4,0.883464211336,,,2017_Oct_04_1820,60.0135703768,MAFE4ImagesEEG,001,101717,
AFNE01.JPG,AFNE01.JPG,AFNE01.JPG,AFNE01.JPG,AFNE01.JPG,AFNE01.JPG,,,,,2,4,24,2,,,,,,,,,,,,,,,,,,,AFSA17.jpg,AFNE02.jpg,AFNE05.jpg,AFSA02.jpg,AFSA17.jpg,FS,4,num_8,32,num_2,1.78338720165,,,2017_Oct_04_1820,60.0135703768,MAFE4ImagesEEG,001,101717,
AFNE01.JPG,AFNE01.JPG,AFNE01.JPG,AFNE01.JPG,AFNE01.JPG,AFNE01.JPG,,,,,2,5,25,3,,,,,,,,,,,,,,,,,,,AFNE07.jpg,AFSA20.jpg,AFSA03.jpg,AFNE04.jpg,AFNE04.jpg,FN,3,num_4,32,num_6,1.46671920391,,,2017_Oct_04_1820,60.0135703768,MAFE4ImagesEEG,001,101717,
AFNE01.JPG,AFNE01.JPG,AFNE01.JPG,AFNE01.JPG,AFNE01.JPG,AFNE01.JPG,,,,,2,6,26,0,,,,,,,,,,,,,,,,,,,AFSA10.jpg,AFNE05.jpg,AFSA03.jpg,AFNE02.jpg,AFNE05.jpg,FN,3,num_6,32,num_4,2.01669740961,,,2017_Oct_04_1820,60.0135703768,MAFE4ImagesEEG,001,101717,
AFNE01.JPG,AFNE01.JPG,AFNE01.JPG,AFNE01.JPG,AFNE01.JPG,AFNE01.JPG,,,,,2,7,27,1,,,,,,,,,,,,,,,,,,,AFSA06.jpg,AFNE16.jpg,AFNE18.jpg,AFSA16.jpg,AFSA16.jpg,FS,4,num_4,16,num_4,1.28368308439,,,2017_Oct_04_1820,60.0135703768,MAFE4ImagesEEG,001,101717,
AFNE01.JPG,AFNE01.JPG,AFNE01.JPG,AFNE01.JPG,AFNE01.JPG,AFNE01.JPG,,,,,2,8,28,8,,,,,,,,,,,,,,,,,,,AFNE06.jpg,AFNE16.jpg,AFSA13.jpg,AFSA17.jpg,AFNE06.jpg,FN,3,num_8,32,num_6,0.916777241815,,,2017_Oct_04_1820,60.0135703768,MAFE4ImagesEEG,001,101717,
AFNE01.JPG,AFNE01.JPG,AFNE01.JPG,AFNE01.JPG,AFNE01.JPG,AFNE01.JPG,,,,,2,9,29,7,,,,,,,,,,,,,,,,,,,AFNE07.jpg,AFNE06.jpg,AFSA08.jpg,AFSA09.jpg,AFSA08.jpg,FS,4,num_2,32,num_6,1.81672236319,,,2017_Oct_04_1820,60.0135703768,MAFE4ImagesEEG,001,101717,
AFNE01.JPG,AFNE01.JPG,AFNE01.JPG,AFNE01.JPG,AFNE01.JPG,AFNE01.JPG,,,,,3,0,30,0,,,,,,,,,,,,,,,,,,,AFNE17.jpg,AFSA11.jpg,AFSA10.jpg,AFNE10.jpg,AFNE17.jpg,FN,3,num_8,16,num_8,1.70005154294,,,2017_Oct_04_1820,60.0135703768,MAFE4ImagesEEG,001,101717,
AFNE01.JPG,AFNE01.JPG,AFNE01.JPG,AFNE01.JPG,AFNE01.JPG,AFNE01.JPG,,,,,3,1,31,6,,,,,,,,,,,,,,,,,,,AFSA10.jpg,AFSA12.jpg,AFNE09.jpg,AFNE20.jpg,AFSA12.jpg,FS,4,num_6,16,num_6,1.00004618657,,,2017_Oct_04_1820,60.0135703768,MAFE4ImagesEEG,001,101717,
AFNE01.JPG,AFNE01.JPG,AFNE01.JPG,AFNE01.JPG,AFNE01.JPG,AFNE01.JPG,,,,,3,2,32,9,,,,,,,,,,,,,,,,,,,AFSA20.jpg,AFNE16.jpg,AFSA14.jpg,AFNE19.jpg,AFNE16.jpg,FN,3,num_6,32,num_2,1.78334133579,,,2017_Oct_04_1820,60.0135703768,MAFE4ImagesEEG,001,101717,
AFNE01.JPG,AFNE01.JPG,AFNE01.JPG,AFNE01.JPG,AFNE01.JPG,AFNE01.JPG,,,,,3,3,33,5,,,,,,,,,,,,,,,,,,,AFSA13.jpg,AFNE18.jpg,AFNE04.jpg,AFSA11.jpg,AFNE18.jpg,FN,3,num_6,16,num_6,1.11669455502,,,2017_Oct_04_1820,60.0135703768,MAFE4ImagesEEG,001,101717,
AFNE01.JPG,AFNE01.JPG,AFNE01.JPG,AFNE01.JPG,AFNE01.JPG,AFNE01.JPG,,,,,3,4,34,7,,,,,,,,,,,,,,,,,,,AFNE20.jpg,AFSA03.jpg,AFNE02.jpg,AFSA09.jpg,AFNE20.jpg,FN,3,num_8,32,num_6,1.91666690723,,,2017_Oct_04_1820,60.0135703768,MAFE4ImagesEEG,001,101717,
AFNE01.JPG,AFNE01.JPG,AFNE01.JPG,AFNE01.JPG,AFNE01.JPG,AFNE01.JPG,,,,,3,5,35,3,,,,,,,,,,,,,,,,,,,AFNE07.jpg,AFSA14.jpg,AFSA04.jpg,AFNE15.jpg,AFSA04.jpg,FS,4,num_2,16,num_2,1.81667778031,,,2017_Oct_04_1820,60.0135703768,MAFE4ImagesEEG,001,101717,
AFNE01.JPG,AFNE01.JPG,AFNE01.JPG,AFNE01.JPG,AFNE01.JPG,AFNE01.JPG,,,,,3,6,36,2,,,,,,,,,,,,,,,,,,,AFSA17.jpg,AFNE01.jpg,AFNE18.jpg,AFSA14.jpg,AFSA14.jpg,FS,4,num_4,32,num_2,1.23342439145,,,2017_Oct_04_1820,60.0135703768,MAFE4ImagesEEG,001,101717,
AFNE01.JPG,AFNE01.JPG,AFNE01.JPG,AFNE01.JPG,AFNE01.JPG,AFNE01.JPG,,,,,3,7,37,1,,,,,,,,,,,,,,,,,,,AFNE03.jpg,AFSA05.jpg,AFSA01.jpg,AFNE04.jpg,AFSA01.jpg,FS,4,num_2,32,num_6,1.15010060013,,,2017_Oct_04_1820,60.0135703768,MAFE4ImagesEEG,001,101717,
AFNE01.JPG,AFNE01.JPG,AFNE01.JPG,AFNE01.JPG,AFNE01.JPG,AFNE01.JPG,,,,,3,8,38,4,,,,,,,,,,,,,,,,,,,AFSA14.jpg,AFSA05.jpg,AFNE08.jpg,AFNE01.jpg,AFNE01.jpg,FN,3,num_4,16,num_4,1.51675979355,,,2017_Oct_04_1820,60.0135703768,MAFE4ImagesEEG,001,101717,
AFNE01.JPG,AFNE01.JPG,AFNE01.JPG,AFNE01.JPG,AFNE01.JPG,AFNE01.JPG,,,,,3,9,39,8,,,,,,,,,,,,,,,,,,,AFNE18.jpg,AFSA17.jpg,AFNE12.jpg,AFSA07.jpg,AFSA07.jpg,FS,4,num_4,16,num_4,0.766758109676,,,2017_Oct_04_1820,60.0135703768,MAFE4ImagesEEG,001,101717,
AFNE01.JPG,AFNE01.JPG,AFNE01.JPG,AFNE01.JPG,AFNE01.JPG,AFNE01.JPG,,,,,4,0,40,5,,,,,,,,,,,,,,,,,,,AFNE12.jpg,AFSA02.jpg,AFSA04.jpg,AFNE18.jpg,AFSA04.jpg,FS,4,num_2,32,num_8,1.81668483659,,,2017_Oct_04_1820,60.0135703768,MAFE4ImagesEEG,001,101717,
AFNE01.JPG,AFNE01.JPG,AFNE01.JPG,AFNE01.JPG,AFNE01.JPG,AFNE01.JPG,,,,,4,1,41,2,,,,,,,,,,,,,,,,,,,AFNE01.jpg,AFSA11.jpg,AFNE02.jpg,AFSA01.jpg,AFSA01.jpg,FS,4,num_4,32,num_8,4.44986944275,,,2017_Oct_04_1820,60.0135703768,MAFE4ImagesEEG,001,101717,
AFNE01.JPG,AFNE01.JPG,AFNE01.JPG,AFNE01.JPG,AFNE01.JPG,AFNE01.JPG,,,,,4,2,42,9,,,,,,,,,,,,,,,,,,,AFSA12.jpg,AFNE07.jpg,AFSA11.jpg,AFNE08.jpg,AFNE08.jpg,FN,3,num_4,16,num_4,1.35014171901,,,2017_Oct_04_1820,60.0135703768,MAFE4ImagesEEG,001,101717,
AFNE01.JPG,AFNE01.JPG,AFNE01.JPG,AFNE01.JPG,AFNE01.JPG,AFNE01.JPG,,,,,4,3,43,0,,,,,,,,,,,,,,,,,,,AFNE17.jpg,AFSA19.jpg,AFNE09.jpg,AFSA15.jpg,AFNE09.jpg,FN,3,num_2,16,num_2,1.11679141854,,,2017_Oct_04_1820,60.0135703768,MAFE4ImagesEEG,001,101717,
AFNE01.JPG,AFNE01.JPG,AFNE01.JPG,AFNE01.JPG,AFNE01.JPG,AFNE01.JPG,,,,,4,4,44,4,,,,,,,,,,,,,,,,,,,AFNE15.jpg,AFSA08.jpg,AFSA13.jpg,AFNE13.jpg,AFSA08.jpg,FS,4,num_6,32,num_4,1.01676572724,,,2017_Oct_04_1820,60.0135703768,MAFE4ImagesEEG,001,101717,
AFNE01.JPG,AFNE01.JPG,AFNE01.JPG,AFNE01.JPG,AFNE01.JPG,AFNE01.JPG,,,,,4,5,45,7,,,,,,,,,,,,,,,,,,,AFSA04.jpg,AFNE07.jpg,AFNE06.jpg,AFSA15.jpg,AFNE06.jpg,FN,3,num_2,32,num_6,0.95013261,,,2017_Oct_04_1820,60.0135703768,MAFE4ImagesEEG,001,101717,
AFNE01.JPG,AFNE01.JPG,AFNE01.JPG,AFNE01.JPG,AFNE01.JPG,AFNE01.JPG,,,,,4,6,46,3,,,,,,,,,,,,,,,,,,,AFNE20.jpg,AFNE01.jpg,AFSA10.jpg,AFSA02.jpg,AFNE20.jpg,FN,3,num_8,32,num_2,3.0336578261,,,2017_Oct_04_1820,60.0135703768,MAFE4ImagesEEG,001,101717,
AFNE01.JPG,AFNE01.JPG,AFNE01.JPG,AFNE01.JPG,AFNE01.JPG,AFNE01.JPG,,,,,4,7,47,1,,,,,,,,,,,,,,,,,,,AFNE09.jpg,AFSA11.jpg,AFSA08.jpg,AFNE02.jpg,AFNE02.jpg,FN,3,num_4,32,num_8,0.983429282744,,,2017_Oct_04_1820,60.0135703768,MAFE4ImagesEEG,001,101717,
AFNE01.JPG,AFNE01.JPG,AFNE01.JPG,AFNE01.JPG,AFNE01.JPG,AFNE01.JPG,,,,,4,8,48,6,,,,,,,,,,,,,,,,,,,AFSA06.jpg,AFSA09.jpg,AFNE05.jpg,AFNE04.jpg,AFNE04.jpg,FN,3,num_4,32,num_2,1.56665669165,,,2017_Oct_04_1820,60.0135703768,MAFE4ImagesEEG,001,101717,
AFNE01.JPG,AFNE01.JPG,AFNE01.JPG,AFNE01.JPG,AFNE01.JPG,AFNE01.JPG,,,,,4,9,49,8,,,,,,,,,,,,,,,,,,,AFNE10.jpg,AFSA05.jpg,AFSA17.jpg,AFNE02.jpg,AFSA05.jpg,FS,4,num_6,32,num_2,1.35007981618,,,2017_Oct_04_1820,60.0135703768,MAFE4ImagesEEG,001,101717,
AFNE01.JPG,AFNE01.JPG,AFNE01.JPG,AFNE01.JPG,AFNE01.JPG,AFNE01.JPG,,,,,5,0,50,1,,,,,,,,,,,,,,,,,,,AFNE06.jpg,AFSA05.jpg,AFNE19.jpg,AFSA01.jpg,AFNE19.jpg,FN,3,num_2,32,num_8,2.13341922754,,,2017_Oct_04_1820,60.0135703768,MAFE4ImagesEEG,001,101717,
AFNE01.JPG,AFNE01.JPG,AFNE01.JPG,AFNE01.JPG,AFNE01.JPG,AFNE01.JPG,,,,,5,1,51,0,,,,,,,,,,,,,,,,,,,AFSA16.jpg,AFSA06.jpg,AFNE03.jpg,AFNE01.jpg,AFSA16.jpg,FS,4,num_8,32,num_4,0.71676659325,,,2017_Oct_04_1820,60.0135703768,MAFE4ImagesEEG,001,101717,
AFNE01.JPG,AFNE01.JPG,AFNE01.JPG,AFNE01.JPG,AFNE01.JPG,AFNE01.JPG,,,,,5,2,52,5,,,,,,,,,,,,,,,,,,,AFNE07.jpg,AFSA10.jpg,AFNE04.jpg,AFSA18.jpg,AFSA18.jpg,FS,4,num_4,32,num_6,0.883484417966,,,2017_Oct_04_1820,60.0135703768,MAFE4ImagesEEG,001,101717,
AFNE01.JPG,AFNE01.JPG,AFNE01.JPG,AFNE01.JPG,AFNE01.JPG,AFNE01.JPG,,,,,5,3,53,8,,,,,,,,,,,,,,,,,,,AFSA07.jpg,AFNE20.jpg,AFNE17.jpg,AFSA05.jpg,AFNE20.jpg,FN,3,num_6,16,num_6,1.10010555558,,,2017_Oct_04_1820,60.0135703768,MAFE4ImagesEEG,001,101717,
AFNE01.JPG,AFNE01.JPG,AFNE01.JPG,AFNE01.JPG,AFNE01.JPG,AFNE01.JPG,,,,,5,4,54,3,,,,,,,,,,,,,,,,,,,AFNE05.jpg,AFSA10.jpg,AFSA06.jpg,AFNE09.jpg,AFSA06.jpg,FS,4,num_2,16,num_2,1.36653153886,,,2017_Oct_04_1820,60.0135703768,MAFE4ImagesEEG,001,101717,
AFNE01.JPG,AFNE01.JPG,AFNE01.JPG,AFNE01.JPG,AFNE01.JPG,AFNE01.JPG,,,,,5,5,55,6,,,,,,,,,,,,,,,,,,,AFSA01.jpg,AFSA06.jpg,AFNE16.jpg,AFNE10.jpg,AFNE16.jpg,FN,3,num_2,32,num_4,2.03335633039,,,2017_Oct_04_1820,60.0135703768,MAFE4ImagesEEG,001,101717,
AFNE01.JPG,AFNE01.JPG,AFNE01.JPG,AFNE01.JPG,AFNE01.JPG,AFNE01.JPG,,,,,5,6,56,2,,,,,,,,,,,,,,,,,,,AFSA08.jpg,AFNE11.jpg,AFSA04.jpg,AFNE20.jpg,AFSA08.jpg,FS,4,num_8,32,num_2,2.1833494826,,,2017_Oct_04_1820,60.0135703768,MAFE4ImagesEEG,001,101717,
AFNE01.JPG,AFNE01.JPG,AFNE01.JPG,AFNE01.JPG,AFNE01.JPG,AFNE01.JPG,,,,,5,7,57,9,,,,,,,,,,,,,,,,,,,AFNE11.jpg,AFNE10.jpg,AFSA03.jpg,AFSA14.jpg,AFNE10.jpg,FN,3,num_6,16,num_6,1.01674135099,,,2017_Oct_04_1820,60.0135703768,MAFE4ImagesEEG,001,101717,
AFNE01.JPG,AFNE01.JPG,AFNE01.JPG,AFNE01.JPG,AFNE01.JPG,AFNE01.JPG,,,,,5,8,58,4,,,,,,,,,,,,,,,,,,,AFNE20.jpg,AFSA19.jpg,AFNE08.jpg,AFSA18.jpg,AFSA19.jpg,FS,4,num_6,16,num_6,1.06675403628,,,2017_Oct_04_1820,60.0135703768,MAFE4ImagesEEG,001,101717,
AFNE01.JPG,AFNE01.JPG,AFNE01.JPG,AFNE01.JPG,AFNE01.JPG,AFNE01.JPG,,,,,5,9,59,7,,,,,,,,,,,,,,,,,,,AFNE13.jpg,AFSA11.jpg,AFNE16.jpg,AFSA07.jpg,AFSA07.jpg,FS,4,num_4,16,num_4,1.43343985113,,,2017_Oct_04_1820,60.0135703768,MAFE4ImagesEEG,001,101717,
,,,,,,,,,,,,,,,,,,,,,,,,,,,,,,,,,,,,,,,,,,,space,27.1643241412,2017_Oct_04_1820,60.0135703768,MAFE4ImagesEEG,001,101717,
AFNE01.JPG,AFNE01.JPG,AFNE01.JPG,AFNE01.JPG,AFNE01.JPG,AFNE01.JPG,,,,,,,,,0,0,0,9,,,,,,,,,,,,,,,AMSA08.jpg,AMNE04.jpg,AMNE13.jpg,AMSA16.jpg,AMNE13.jpg,MN,1,num_2,32,num_8,1.15009514755,,,2017_Oct_04_1820,60.0135703768,MAFE4ImagesEEG,001,101717,
AFNE01.JPG,AFNE01.JPG,AFNE01.JPG,AFNE01.JPG,AFNE01.JPG,AFNE01.JPG,,,,,,,,,0,1,1,2,,,,,,,,,,,,,,,AMSA12.jpg,AMNE16.jpg,AMNE19.jpg,AMSA15.jpg,AMNE19.jpg,MN,1,num_2,16,num_2,1.41682038136,,,2017_Oct_04_1820,60.0135703768,MAFE4ImagesEEG,001,101717,
AFNE01.JPG,AFNE01.JPG,AFNE01.JPG,AFNE01.JPG,AFNE01.JPG,AFNE01.JPG,,,,,,,,,0,2,2,5,,,,,,,,,,,,,,,AMSA15.jpg,AMNE13.jpg,AMSA02.jpg,AMNE12.jpg,AMSA02.jpg,MS,2,num_2,16,num_2,0.833485524519,,,2017_Oct_04_1820,60.0135703768,MAFE4ImagesEEG,001,101717,
AFNE01.JPG,AFNE01.JPG,AFNE01.JPG,AFNE01.JPG,AFNE01.JPG,AFNE01.JPG,,,,,,,,,0,3,3,7,,,,,,,,,,,,,,,AMSA13.jpg,AMNE01.jpg,AMSA08.jpg,AMNE16.jpg,AMNE01.jpg,MN,1,num_6,16,num_6,0.650171964808,,,2017_Oct_04_1820,60.0135703768,MAFE4ImagesEEG,001,101717,
AFNE01.JPG,AFNE01.JPG,AFNE01.JPG,AFNE01.JPG,AFNE01.JPG,AFNE01.JPG,,,,,,,,,0,4,4,4,,,,,,,,,,,,,,,AMNE20.jpg,AMSA12.jpg,AMSA05.jpg,AMNE15.jpg,AMNE15.jpg,MN,1,num_4,16,num_4,1.56671602857,,,2017_Oct_04_1820,60.0135703768,MAFE4ImagesEEG,001,101717,
AFNE01.JPG,AFNE01.JPG,AFNE01.JPG,AFNE01.JPG,AFNE01.JPG,AFNE01.JPG,,,,,,,,,0,5,5,8,,,,,,,,,,,,,,,AMSA05.jpg,AMNE17.jpg,AMNE16.jpg,AMSA03.jpg,AMSA05.jpg,MS,2,num_8,32,num_6,0.750162695433,,,2017_Oct_04_1820,60.0135703768,MAFE4ImagesEEG,001,101717,
AFNE01.JPG,AFNE01.JPG,AFNE01.JPG,AFNE01.JPG,AFNE01.JPG,AFNE01.JPG,,,,,,,,,0,6,6,0,,,,,,,,,,,,,,,AMNE13.jpg,AMNE07.jpg,AMSA07.jpg,AMSA01.jpg,AMSA07.jpg,MS,2,num_2,16,num_2,1.16670884399,,,2017_Oct_04_1820,60.0135703768,MAFE4ImagesEEG,001,101717,
AFNE01.JPG,AFNE01.JPG,AFNE01.JPG,AFNE01.JPG,AFNE01.JPG,AFNE01.JPG,,,,,,,,,0,7,7,3,,,,,,,,,,,,,,,AMSA18.jpg,AMNE18.jpg,AMNE04.jpg,AMSA12.jpg,AMSA12.jpg,MS,2,num_4,32,num_6,0.883444325445,,,2017_Oct_04_1820,60.0135703768,MAFE4ImagesEEG,001,101717,
AFNE01.JPG,AFNE01.JPG,AFNE01.JPG,AFNE01.JPG,AFNE01.JPG,AFNE01.JPG,,,,,,,,,0,8,8,1,,,,,,,,,,,,,,,AMNE01.jpg,AMSA06.jpg,AMNE13.jpg,AMSA08.jpg,AMNE13.jpg,MN,1,num_2,32,num_8,0.96678896487,,,2017_Oct_04_1820,60.0135703768,MAFE4ImagesEEG,001,101717,
AFNE01.JPG,AFNE01.JPG,AFNE01.JPG,AFNE01.JPG,AFNE01.JPG,AFNE01.JPG,,,,,,,,,0,9,9,6,,,,,,,,,,,,,,,AMSA09.jpg,AMNE08.jpg,AMNE11.jpg,AMSA14.jpg,AMNE11.jpg,MN,1,num_2,32,num_4,1.25010095295,,,2017_Oct_04_1820,60.0135703768,MAFE4ImagesEEG,001,101717,
AFNE01.JPG,AFNE01.JPG,AFNE01.JPG,AFNE01.JPG,AFNE01.JPG,AFNE01.JPG,,,,,,,,,1,0,10,1,,,,,,,,,,,,,,,AMNE03.jpg,AMSA15.jpg,AMNE01.jpg,AMSA14.jpg,AMSA15.jpg,MS,2,num_6,16,num_6,0.883460041718,,,2017_Oct_04_1820,60.0135703768,MAFE4ImagesEEG,001,101717,
AFNE01.JPG,AFNE01.JPG,AFNE01.JPG,AFNE01.JPG,AFNE01.JPG,AFNE01.JPG,,,,,,,,,1,1,11,5,,,,,,,,,,,,,,,AMNE19.jpg,AMSA10.jpg,AMSA13.jpg,AMNE02.jpg,AMNE02.jpg,MN,1,num_4,32,num_8,1.00012893752,,,2017_Oct_04_1820,60.0135703768,MAFE4ImagesEEG,001,101717,
AFNE01.JPG,AFNE01.JPG,AFNE01.JPG,AFNE01.JPG,AFNE01.JPG,AFNE01.JPG,,,,,,,,,1,2,12,8,,,,,,,,,,,,,,,AMSA14.jpg,AMSA02.jpg,AMNE06.jpg,AMNE09.jpg,AMSA02.jpg,MS,2,num_6,16,num_6,1.0335378693,,,2017_Oct_04_1820,60.0135703768,MAFE4ImagesEEG,001,101717,
AFNE01.JPG,AFNE01.JPG,AFNE01.JPG,AFNE01.JPG,AFNE01.JPG,AFNE01.JPG,,,,,,,,,1,3,13,9,,,,,,,,,,,,,,,AMNE11.jpg,AMSA05.jpg,AMNE12.jpg,AMSA01.jpg,AMNE11.jpg,MN,1,num_8,16,num_8,0.916810598792,,,2017_Oct_04_1820,60.0135703768,MAFE4ImagesEEG,001,101717,
AFNE01.JPG,AFNE01.JPG,AFNE01.JPG,AFNE01.JPG,AFNE01.JPG,AFNE01.JPG,,,,,,,,,1,4,14,4,,,,,,,,,,,,,,,AMSA04.jpg,AMNE18.jpg,AMNE04.jpg,AMSA14.jpg,AMSA04.jpg,MS,2,num_8,16,num_8,1.86667442857,,,2017_Oct_04_1820,60.0135703768,MAFE4ImagesEEG,001,101717,
AFNE01.JPG,AFNE01.JPG,AFNE01.JPG,AFNE01.JPG,AFNE01.JPG,AFNE01.JPG,,,,,,,,,1,5,15,3,,,,,,,,,,,,,,,AMNE15.jpg,AMNE10.jpg,AMSA08.jpg,AMSA06.jpg,AMNE15.jpg,MN,1,num_8,16,num_8,0.916783656619,,,2017_Oct_04_1820,60.0135703768,MAFE4ImagesEEG,001,101717,
AFNE01.JPG,AFNE01.JPG,AFNE01.JPG,AFNE01.JPG,AFNE01.JPG,AFNE01.JPG,,,,,,,,,1,6,16,2,,,,,,,,,,,,,,,AMNE20.jpg,AMSA11.jpg,AMNE09.jpg,AMSA15.jpg,AMSA11.jpg,MS,2,num_6,16,num_6,0.716768838422,,,2017_Oct_04_1820,60.0135703768,MAFE4ImagesEEG,001,101717,
AFNE01.JPG,AFNE01.JPG,AFNE01.JPG,AFNE01.JPG,AFNE01.JPG,AFNE01.JPG,,,,,,,,,1,7,17,6,,,,,,,,,,,,,,,AMSA14.jpg,AMNE10.jpg,AMNE02.jpg,AMSA02.jpg,AMNE02.jpg,MN,1,num_2,32,num_4,0.866768084685,,,2017_Oct_04_1820,60.0135703768,MAFE4ImagesEEG,001,101717,
AFNE01.JPG,AFNE01.JPG,AFNE01.JPG,AFNE01.JPG,AFNE01.JPG,AFNE01.JPG,,,,,,,,,1,8,18,7,,,,,,,,,,,,,,,AMNE09.jpg,AMSA13.jpg,AMSA02.jpg,AMNE20.jpg,AMSA02.jpg,MS,2,num_2,32,num_6,1.20012290761,,,2017_Oct_04_1820,60.0135703768,MAFE4ImagesEEG,001,101717,
AFNE01.JPG,AFNE01.JPG,AFNE01.JPG,AFNE01.JPG,AFNE01.JPG,AFNE01.JPG,,,,,,,,,1,9,19,0,,,,,,,,,,,,,,,AMNE07.jpg,AMSA09.jpg,AMNE13.jpg,AMSA11.jpg,AMSA09.jpg,MS,2,num_6,32,num_8,1.33345489383,,,2017_Oct_04_1820,60.0135703768,MAFE4ImagesEEG,001,101717,
AFNE01.JPG,AFNE01.JPG,AFNE01.JPG,AFNE01.JPG,AFNE01.JPG,AFNE01.JPG,,,,,,,,,2,0,20,3,,,,,,,,,,,,,,,AMSA07.jpg,AMSA18.jpg,AMNE09.jpg,AMNE10.jpg,AMNE10.jpg,MN,1,num_4,16,num_4,1.93305833076,,,2017_Oct_04_1820,60.0135703768,MAFE4ImagesEEG,001,101717,
AFNE01.JPG,AFNE01.JPG,AFNE01.JPG,AFNE01.JPG,AFNE01.JPG,AFNE01.JPG,,,,,,,,,2,1,21,4,,,,,,,,,,,,,,,AMNE20.jpg,AMSA03.jpg,AMNE13.jpg,AMSA15.jpg,AMNE13.jpg,MN,1,num_2,32,num_8,0.983422226462,,,2017_Oct_04_1820,60.0135703768,MAFE4ImagesEEG,001,101717,
AFNE01.JPG,AFNE01.JPG,AFNE01.JPG,AFNE01.JPG,AFNE01.JPG,AFNE01.JPG,,,,,,,,,2,2,22,6,,,,,,,,,,,,,,,AMNE20.jpg,AMNE18.jpg,AMSA03.jpg,AMSA05.jpg,AMSA05.jpg,MS,2,num_4,16,num_4,1.19987754142,,,2017_Oct_04_1820,60.0135703768,MAFE4ImagesEEG,001,101717,
AFNE01.JPG,AFNE01.JPG,AFNE01.JPG,AFNE01.JPG,AFNE01.JPG,AFNE01.JPG,,,,,,,,,2,3,23,9,,,,,,,,,,,,,,,AMNE05.jpg,AMSA16.jpg,AMNE15.jpg,AMSA12.jpg,AMNE15.jpg,MN,1,num_2,32,num_8,2.01663743121,,,2017_Oct_04_1820,60.0135703768,MAFE4ImagesEEG,001,101717,
AFNE01.JPG,AFNE01.JPG,AFNE01.JPG,AFNE01.JPG,AFNE01.JPG,AFNE01.JPG,,,,,,,,,2,4,24,0,,,,,,,,,,,,,,,AMNE10.jpg,AMSA11.jpg,AMSA15.jpg,AMNE16.jpg,AMNE16.jpg,MN,1,num_4,16,num_4,0.750161091724,,,2017_Oct_04_1820,60.0135703768,MAFE4ImagesEEG,001,101717,
AFNE01.JPG,AFNE01.JPG,AFNE01.JPG,AFNE01.JPG,AFNE01.JPG,AFNE01.JPG,,,,,,,,,2,5,25,2,,,,,,,,,,,,,,,AMSA19.jpg,AMSA10.jpg,AMNE04.jpg,AMNE11.jpg,AMNE04.jpg,MN,1,num_2,16,num_2,1.31680976487,,,2017_Oct_04_1820,60.0135703768,MAFE4ImagesEEG,001,101717,
AFNE01.JPG,AFNE01.JPG,AFNE01.JPG,AFNE01.JPG,AFNE01.JPG,AFNE01.JPG,,,,,,,,,2,6,26,5,,,,,,,,,,,,,,,AMNE18.jpg,AMSA09.jpg,AMSA10.jpg,AMNE02.jpg,AMNE02.jpg,MN,1,num_4,16,num_4,0.86675172695,,,2017_Oct_04_1820,60.0135703768,MAFE4ImagesEEG,001,101717,
AFNE01.JPG,AFNE01.JPG,AFNE01.JPG,AFNE01.JPG,AFNE01.JPG,AFNE01.JPG,,,,,,,,,2,7,27,1,,,,,,,,,,,,,,,AMNE18.jpg,AMSA04.jpg,AMSA10.jpg,AMNE05.jpg,AMNE05.jpg,MN,1,num_4,32,num_8,1.01674455841,,,2017_Oct_04_1820,60.0135703768,MAFE4ImagesEEG,001,101717,
AFNE01.JPG,AFNE01.JPG,AFNE01.JPG,AFNE01.JPG,AFNE01.JPG,AFNE01.JPG,,,,,,,,,2,8,28,8,,,,,,,,,,,,,,,AMSA09.jpg,AMNE16.jpg,AMNE14.jpg,AMSA08.jpg,AMNE16.jpg,MN,1,num_6,16,num_6,1.10015527029,,,2017_Oct_04_1820,60.0135703768,MAFE4ImagesEEG,001,101717,
AFNE01.JPG,AFNE01.JPG,AFNE01.JPG,AFNE01.JPG,AFNE01.JPG,AFNE01.JPG,,,,,,,,,2,9,29,7,,,,,,,,,,,,,,,AMNE03.jpg,AMNE08.jpg,AMSA05.jpg,AMSA17.jpg,AMSA05.jpg,MS,2,num_2,16,num_2,1.1667992927,,,2017_Oct_04_1820,60.0135703768,MAFE4ImagesEEG,001,101717,
AFNE01.JPG,AFNE01.JPG,AFNE01.JPG,AFNE01.JPG,AFNE01.JPG,AFNE01.JPG,,,,,,,,,3,0,30,0,,,,,,,,,,,,,,,AMNE07.jpg,AMSA12.jpg,AMNE11.jpg,AMSA11.jpg,AMSA12.jpg,MS,2,num_6,16,num_6,0.950161155881,,,2017_Oct_04_1820,60.0135703768,MAFE4ImagesEEG,001,101717,
AFNE01.JPG,AFNE01.JPG,AFNE01.JPG,AFNE01.JPG,AFNE01.JPG,AFNE01.JPG,,,,,,,,,3,1,31,1,,,,,,,,,,,,,,,AMNE17.jpg,AMSA03.jpg,AMSA01.jpg,AMNE06.jpg,AMSA01.jpg,MS,2,num_2,16,num_2,1.05012622727,,,2017_Oct_04_1820,60.0135703768,MAFE4ImagesEEG,001,101717,
AFNE01.JPG,AFNE01.JPG,AFNE01.JPG,AFNE01.JPG,AFNE01.JPG,AFNE01.JPG,,,,,,,,,3,2,32,2,,,,,,,,,,,,,,,AMNE11.jpg,AMSA17.jpg,AMNE18.jpg,AMSA10.jpg,AMSA10.jpg,MS,2,num_4,32,num_8,1.41673025339,,,2017_Oct_04_1820,60.0135703768,MAFE4ImagesEEG,001,101717,
AFNE01.JPG,AFNE01.JPG,AFNE01.JPG,AFNE01.JPG,AFNE01.JPG,AFNE01.JPG,,,,,,,,,3,3,33,6,,,,,,,,,,,,,,,AMNE20.jpg,AMSA18.jpg,AMSA06.jpg,AMNE14.jpg,AMSA18.jpg,MS,2,num_6,32,num_2,1.06675916811,,,2017_Oct_04_1820,60.0135703768,MAFE4ImagesEEG,001,101717,
AFNE01.JPG,AFNE01.JPG,AFNE01.JPG,AFNE01.JPG,AFNE01.JPG,AFNE01.JPG,,,,,,,,,3,4,34,9,,,,,,,,,,,,,,,AMNE15.jpg,AMNE12.jpg,AMSA10.jpg,AMSA12.jpg,AMNE12.jpg,MN,1,num_6,32,num_4,1.41675366742,,,2017_Oct_04_1820,60.0135703768,MAFE4ImagesEEG,001,101717,
AFNE01.JPG,AFNE01.JPG,AFNE01.JPG,AFNE01.JPG,AFNE01.JPG,AFNE01.JPG,,,,,,,,,3,5,35,7,,,,,,,,,,,,,,,AMNE14.jpg,AMSA04.jpg,AMSA15.jpg,AMNE04.jpg,AMNE14.jpg,MN,1,num_8,32,num_6,1.23344395659,,,2017_Oct_04_1820,60.0135703768,MAFE4ImagesEEG,001,101717,
AFNE01.JPG,AFNE01.JPG,AFNE01.JPG,AFNE01.JPG,AFNE01.JPG,AFNE01.JPG,,,,,,,,,3,6,36,5,,,,,,,,,,,,,,,AMSA01.jpg,AMSA05.jpg,AMNE20.jpg,AMNE01.jpg,AMSA01.jpg,MS,2,num_8,32,num_4,0.716623863904,,,2017_Oct_04_1820,60.0135703768,MAFE4ImagesEEG,001,101717,
AFNE01.JPG,AFNE01.JPG,AFNE01.JPG,AFNE01.JPG,AFNE01.JPG,AFNE01.JPG,,,,,,,,,3,7,37,4,,,,,,,,,,,,,,,AMNE07.jpg,AMNE08.jpg,AMSA08.jpg,AMSA11.jpg,AMNE08.jpg,MN,1,num_6,32,num_2,1.31672573095,,,2017_Oct_04_1820,60.0135703768,MAFE4ImagesEEG,001,101717,
AFNE01.JPG,AFNE01.JPG,AFNE01.JPG,AFNE01.JPG,AFNE01.JPG,AFNE01.JPG,,,,,,,,,3,8,38,8,,,,,,,,,,,,,,,AMSA19.jpg,AMSA02.jpg,AMNE18.jpg,AMNE06.jpg,AMNE06.jpg,MN,1,num_4,16,num_4,1.50009702388,,,2017_Oct_04_1820,60.0135703768,MAFE4ImagesEEG,001,101717,
AFNE01.JPG,AFNE01.JPG,AFNE01.JPG,AFNE01.JPG,AFNE01.JPG,AFNE01.JPG,,,,,,,,,3,9,39,3,,,,,,,,,,,,,,,AMSA02.jpg,AMNE13.jpg,AMNE18.jpg,AMSA18.jpg,AMSA18.jpg,MS,2,num_4,16,num_4,0.6167947863,,,2017_Oct_04_1820,60.0135703768,MAFE4ImagesEEG,001,101717,
AFNE01.JPG,AFNE01.JPG,AFNE01.JPG,AFNE01.JPG,AFNE01.JPG,AFNE01.JPG,,,,,,,,,4,0,40,1,,,,,,,,,,,,,,,AMSA11.jpg,AMSA10.jpg,AMNE10.jpg,AMNE07.jpg,AMNE10.jpg,MN,1,num_2,32,num_6,1.21672826482,,,2017_Oct_04_1820,60.0135703768,MAFE4ImagesEEG,001,101717,
AFNE01.JPG,AFNE01.JPG,AFNE01.JPG,AFNE01.JPG,AFNE01.JPG,AFNE01.JPG,,,,,,,,,4,1,41,7,,,,,,,,,,,,,,,AMSA09.jpg,AMNE03.jpg,AMSA08.jpg,AMNE17.jpg,AMNE03.jpg,MN,1,num_6,32,num_8,2.01662171494,,,2017_Oct_04_1820,60.0135703768,MAFE4ImagesEEG,001,101717,
AFNE01.JPG,AFNE01.JPG,AFNE01.JPG,AFNE01.JPG,AFNE01.JPG,AFNE01.JPG,,,,,,,,,4,2,42,4,,,,,,,,,,,,,,,AMSA15.jpg,AMNE18.jpg,AMNE03.jpg,AMSA02.jpg,AMNE18.jpg,MN,1,num_6,16,num_6,0.816778492721,,,2017_Oct_04_1820,60.0135703768,MAFE4ImagesEEG,001,101717,
AFNE01.JPG,AFNE01.JPG,AFNE01.JPG,AFNE01.JPG,AFNE01.JPG,AFNE01.JPG,,,,,,,,,4,3,43,6,,,,,,,,,,,,,,,AMNE18.jpg,AMNE19.jpg,AMSA11.jpg,AMSA03.jpg,AMNE19.jpg,MN,1,num_6,16,num_6,0.733482285053,,,2017_Oct_04_1820,60.0135703768,MAFE4ImagesEEG,001,101717,
AFNE01.JPG,AFNE01.JPG,AFNE01.JPG,AFNE01.JPG,AFNE01.JPG,AFNE01.JPG,,,,,,,,,4,4,44,0,,,,,,,,,,,,,,,AMSA08.jpg,AMNE09.jpg,AMNE19.jpg,AMSA11.jpg,AMNE19.jpg,MN,1,num_2,16,num_2,0.716845174567,,,2017_Oct_04_1820,60.0135703768,MAFE4ImagesEEG,001,101717,
AFNE01.JPG,AFNE01.JPG,AFNE01.JPG,AFNE01.JPG,AFNE01.JPG,AFNE01.JPG,,,,,,,,,4,5,45,2,,,,,,,,,,,,,,,AMNE13.jpg,AMNE12.jpg,AMSA03.jpg,AMSA08.jpg,AMNE12.jpg,MN,1,num_6,16,num_6,1.78339489939,,,2017_Oct_04_1820,60.0135703768,MAFE4ImagesEEG,001,101717,
AFNE01.JPG,AFNE01.JPG,AFNE01.JPG,AFNE01.JPG,AFNE01.JPG,AFNE01.JPG,,,,,,,,,4,6,46,3,,,,,,,,,,,,,,,AMNE08.jpg,AMNE12.jpg,AMSA16.jpg,AMSA10.jpg,AMNE08.jpg,MN,1,num_8,32,num_2,1.15012914602,,,2017_Oct_04_1820,60.0135703768,MAFE4ImagesEEG,001,101717,
AFNE01.JPG,AFNE01.JPG,AFNE01.JPG,AFNE01.JPG,AFNE01.JPG,AFNE01.JPG,,,,,,,,,4,7,47,9,,,,,,,,,,,,,,,AMSA10.jpg,AMNE11.jpg,AMNE09.jpg,AMSA04.jpg,AMSA10.jpg,MS,2,num_8,16,num_8,1.20012322835,,,2017_Oct_04_1820,60.0135703768,MAFE4ImagesEEG,001,101717,
AFNE01.JPG,AFNE01.JPG,AFNE01.JPG,AFNE01.JPG,AFNE01.JPG,AFNE01.JPG,,,,,,,,,4,8,48,8,,,,,,,,,,,,,,,AMSA18.jpg,AMNE14.jpg,AMNE09.jpg,AMSA02.jpg,AMSA02.jpg,MS,2,num_4,32,num_6,1.86664941085,,,2017_Oct_04_1820,60.0135703768,MAFE4ImagesEEG,001,101717,
AFNE01.JPG,AFNE01.JPG,AFNE01.JPG,AFNE01.JPG,AFNE01.JPG,AFNE01.JPG,,,,,,,,,4,9,49,5,,,,,,,,,,,,,,,AMNE03.jpg,AMSA09.jpg,AMNE19.jpg,AMSA11.jpg,AMNE19.jpg,MN,1,num_2,16,num_2,1.50007232689,,,2017_Oct_04_1820,60.0135703768,MAFE4ImagesEEG,001,101717,
AFNE01.JPG,AFNE01.JPG,AFNE01.JPG,AFNE01.JPG,AFNE01.JPG,AFNE01.JPG,,,,,,,,,5,0,50,8,,,,,,,,,,,,,,,AMSA12.jpg,AMSA16.jpg,AMNE04.jpg,AMNE05.jpg,AMSA16.jpg,MS,2,num_6,16,num_6,1.25010512258,,,2017_Oct_04_1820,60.0135703768,MAFE4ImagesEEG,001,101717,
AFNE01.JPG,AFNE01.JPG,AFNE01.JPG,AFNE01.JPG,AFNE01.JPG,AFNE01.JPG,,,,,,,,,5,1,51,2,,,,,,,,,,,,,,,AMNE01.jpg,AMSA18.jpg,AMSA14.jpg,AMNE18.jpg,AMSA14.jpg,MS,2,num_2,16,num_2,0.916769544056,,,2017_Oct_04_1820,60.0135703768,MAFE4ImagesEEG,001,101717,
AFNE01.JPG,AFNE01.JPG,AFNE01.JPG,AFNE01.JPG,AFNE01.JPG,AFNE01.JPG,,,,,,,,,5,2,52,9,,,,,,,,,,,,,,,AMNE17.jpg,AMSA19.jpg,AMNE07.jpg,AMSA07.jpg,AMSA07.jpg,MS,2,num_4,32,num_2,1.01666790151,,,2017_Oct_04_1820,60.0135703768,MAFE4ImagesEEG,001,101717,
AFNE01.JPG,AFNE01.JPG,AFNE01.JPG,AFNE01.JPG,AFNE01.JPG,AFNE01.JPG,,,,,,,,,5,3,53,4,,,,,,,,,,,,,,,AMSA17.jpg,AMNE09.jpg,AMNE02.jpg,AMSA03.jpg,AMNE02.jpg,MN,1,num_2,32,num_8,1.16680346231,,,2017_Oct_04_1820,60.0135703768,MAFE4ImagesEEG,001,101717,
AFNE01.JPG,AFNE01.JPG,AFNE01.JPG,AFNE01.JPG,AFNE01.JPG,AFNE01.JPG,,,,,,,,,5,4,54,6,,,,,,,,,,,,,,,AMNE09.jpg,AMSA18.jpg,AMNE16.jpg,AMSA08.jpg,AMSA18.jpg,MS,2,num_6,16,num_6,1.58346732252,,,2017_Oct_04_1820,60.0135703768,MAFE4ImagesEEG,001,101717,
AFNE01.JPG,AFNE01.JPG,AFNE01.JPG,AFNE01.JPG,AFNE01.JPG,AFNE01.JPG,,,,,,,,,5,5,55,5,,,,,,,,,,,,,,,AMSA18.jpg,AMNE01.jpg,AMSA20.jpg,AMNE19.jpg,AMSA18.jpg,MS,2,num_8,32,num_2,1.48341885868,,,2017_Oct_04_1820,60.0135703768,MAFE4ImagesEEG,001,101717,
AFNE01.JPG,AFNE01.JPG,AFNE01.JPG,AFNE01.JPG,AFNE01.JPG,AFNE01.JPG,,,,,,,,,5,6,56,1,,,,,,,,,,,,,,,AMSA01.jpg,AMNE19.jpg,AMNE20.jpg,AMSA11.jpg,AMSA11.jpg,MS,2,num_4,16,num_4,0.966743099038,,,2017_Oct_04_1820,60.0135703768,MAFE4ImagesEEG,001,101717,
AFNE01.JPG,AFNE01.JPG,AFNE01.JPG,AFNE01.JPG,AFNE01.JPG,AFNE01.JPG,,,,,,,,,5,7,57,0,,,,,,,,,,,,,,,AMSA04.jpg,AMNE18.jpg,AMSA06.jpg,AMNE15.jpg,AMSA04.jpg,MS,2,num_8,16,num_8,0.833447035708,,,2017_Oct_04_1820,60.0135703768,MAFE4ImagesEEG,001,101717,
AFNE01.JPG,AFNE01.JPG,AFNE01.JPG,AFNE01.JPG,AFNE01.JPG,AFNE01.JPG,,,,,,,,,5,8,58,3,,,,,,,,,,,,,,,AMSA13.jpg,AMSA07.jpg,AMNE16.jpg,AMNE08.jpg,AMNE16.jpg,MN,1,num_2,32,num_6,0.8834783239,,,2017_Oct_04_1820,60.0135703768,MAFE4ImagesEEG,001,101717,
AFNE01.JPG,AFNE01.JPG,AFNE01.JPG,AFNE01.JPG,AFNE01.JPG,AFNE01.JPG,,,,,,,,,5,9,59,7,,,,,,,,,,,,,,,AMSA17.jpg,AMNE01.jpg,AMNE06.jpg,AMSA02.jpg,AMSA17.jpg,MS,2,num_8,32,num_6,1.70009323915,,,2017_Oct_04_1820,60.0135703768,MAFE4ImagesEEG,001,101717,
,,,,,,,,,,,,,,,,,,,,,,,,,,,,,,,,,,,,,,,,,,,space,42.463568253,2017_Oct_04_1820,60.0135703768,MAFE4ImagesEEG,001,101717,
AFNE01.JPG,AFNE01.JPG,AFNE01.JPG,AFNE01.JPG,AFNE01.JPG,AFNE01.JPG,,,,,,,,,,,,,0,0,0,6,,,,,,,,,,,AFNE13.jpg,AFSA03.jpg,AFNE16.jpg,AFSA20.jpg,AFNE13.jpg,FN,3,num_8,16,num_8,0.966762343436,,,2017_Oct_04_1820,60.0135703768,MAFE4ImagesEEG,001,101717,
AFNE01.JPG,AFNE01.JPG,AFNE01.JPG,AFNE01.JPG,AFNE01.JPG,AFNE01.JPG,,,,,,,,,,,,,0,1,1,9,,,,,,,,,,,AFSA03.jpg,AFNE16.jpg,AFSA16.jpg,AFNE09.jpg,AFSA03.jpg,FS,4,num_8,32,num_4,0.966786719684,,,2017_Oct_04_1820,60.0135703768,MAFE4ImagesEEG,001,101717,
AFNE01.JPG,AFNE01.JPG,AFNE01.JPG,AFNE01.JPG,AFNE01.JPG,AFNE01.JPG,,,,,,,,,,,,,0,2,2,7,,,,,,,,,,,AFSA12.jpg,AFSA05.jpg,AFNE11.jpg,AFNE02.jpg,AFSA12.jpg,FS,4,num_8,16,num_8,0.983451734559,,,2017_Oct_04_1820,60.0135703768,MAFE4ImagesEEG,001,101717,
AFNE01.JPG,AFNE01.JPG,AFNE01.JPG,AFNE01.JPG,AFNE01.JPG,AFNE01.JPG,,,,,,,,,,,,,0,3,3,1,,,,,,,,,,,AFNE17.jpg,AFNE16.jpg,AFSA16.jpg,AFSA06.jpg,AFSA16.jpg,FS,4,num_2,16,num_2,0.766743355634,,,2017_Oct_04_1820,60.0135703768,MAFE4ImagesEEG,001,101717,
AFNE01.JPG,AFNE01.JPG,AFNE01.JPG,AFNE01.JPG,AFNE01.JPG,AFNE01.JPG,,,,,,,,,,,,,0,4,4,3,,,,,,,,,,,AFNE04.jpg,AFSA15.jpg,AFNE12.jpg,AFSA12.jpg,AFSA15.jpg,FS,4,num_6,16,num_6,1.14976478524,,,2017_Oct_04_1820,60.0135703768,MAFE4ImagesEEG,001,101717,
AFNE01.JPG,AFNE01.JPG,AFNE01.JPG,AFNE01.JPG,AFNE01.JPG,AFNE01.JPG,,,,,,,,,,,,,0,5,5,4,,,,,,,,,,,AFSA01.jpg,AFSA02.jpg,AFNE17.jpg,AFNE10.jpg,AFNE10.jpg,FN,3,num_4,16,num_4,0.816833018529,,,2017_Oct_04_1820,60.0135703768,MAFE4ImagesEEG,001,101717,
AFNE01.JPG,AFNE01.JPG,AFNE01.JPG,AFNE01.JPG,AFNE01.JPG,AFNE01.JPG,,,,,,,,,,,,,0,6,6,5,,,,,,,,,,,AFSA16.jpg,AFNE02.jpg,AFSA18.jpg,AFNE19.jpg,AFNE02.jpg,FN,3,num_6,32,num_2,1.10016008139,,,2017_Oct_04_1820,60.0135703768,MAFE4ImagesEEG,001,101717,
AFNE01.JPG,AFNE01.JPG,AFNE01.JPG,AFNE01.JPG,AFNE01.JPG,AFNE01.JPG,,,,,,,,,,,,,0,7,7,8,,,,,,,,,,,AFSA04.jpg,AFNE13.jpg,AFSA12.jpg,AFNE16.jpg,AFSA04.jpg,FS,4,num_8,32,num_6,1.78340676679,,,2017_Oct_04_1820,60.0135703768,MAFE4ImagesEEG,001,101717,
AFNE01.JPG,AFNE01.JPG,AFNE01.JPG,AFNE01.JPG,AFNE01.JPG,AFNE01.JPG,,,,,,,,,,,,,0,8,8,2,,,,,,,,,,,AFNE05.jpg,AFSA03.jpg,AFNE08.jpg,AFSA13.jpg,AFSA13.jpg,FS,4,num_4,16,num_4,1.60006947232,,,2017_Oct_04_1820,60.0135703768,MAFE4ImagesEEG,001,101717,
AFNE01.JPG,AFNE01.JPG,AFNE01.JPG,AFNE01.JPG,AFNE01.JPG,AFNE01.JPG,,,,,,,,,,,,,0,9,9,0,,,,,,,,,,,AFNE09.jpg,AFSA04.jpg,AFSA01.jpg,AFNE14.jpg,AFSA04.jpg,FS,4,num_6,16,num_6,0.550167763111,,,2017_Oct_04_1820,60.0135703768,MAFE4ImagesEEG,001,101717,
AFNE01.JPG,AFNE01.JPG,AFNE01.JPG,AFNE01.JPG,AFNE01.JPG,AFNE01.JPG,,,,,,,,,,,,,1,0,10,0,,,,,,,,,,,AFSA15.jpg,AFSA18.jpg,AFNE13.jpg,AFNE19.jpg,AFNE13.jpg,FN,3,num_2,32,num_8,1.86672350181,,,2017_Oct_04_1820,60.0135703768,MAFE4ImagesEEG,001,101717,
AFNE01.JPG,AFNE01.JPG,AFNE01.JPG,AFNE01.JPG,AFNE01.JPG,AFNE01.JPG,,,,,,,,,,,,,1,1,11,9,,,,,,,,,,,AFNE05.jpg,AFSA03.jpg,AFNE12.jpg,AFSA19.jpg,AFSA19.jpg,FS,4,num_4,32,num_6,1.08345946438,,,2017_Oct_04_1820,60.0135703768,MAFE4ImagesEEG,001,101717,
AFNE01.JPG,AFNE01.JPG,AFNE01.JPG,AFNE01.JPG,AFNE01.JPG,AFNE01.JPG,,,,,,,,,,,,,1,2,12,8,,,,,,,,,,,AFNE04.jpg,AFSA10.jpg,AFNE05.jpg,AFSA08.jpg,AFSA08.jpg,FS,4,num_4,32,num_8,1.31678346418,,,2017_Oct_04_1820,60.0135703768,MAFE4ImagesEEG,001,101717,
AFNE01.JPG,AFNE01.JPG,AFNE01.JPG,AFNE01.JPG,AFNE01.JPG,AFNE01.JPG,,,,,,,,,,,,,1,3,13,1,,,,,,,,,,,AFNE12.jpg,AFSA19.jpg,AFNE14.jpg,AFSA06.jpg,AFNE12.jpg,FN,3,num_8,32,num_6,1.40004663562,,,2017_Oct_04_1820,60.0135703768,MAFE4ImagesEEG,001,101717,
AFNE01.JPG,AFNE01.JPG,AFNE01.JPG,AFNE01.JPG,AFNE01.JPG,AFNE01.JPG,,,,,,,,,,,,,1,4,14,7,,,,,,,,,,,AFNE10.jpg,AFNE13.jpg,AFSA09.jpg,AFSA04.jpg,AFNE10.jpg,FN,3,num_8,16,num_8,1.21672505741,,,2017_Oct_04_1820,60.0135703768,MAFE4ImagesEEG,001,101717,
AFNE01.JPG,AFNE01.JPG,AFNE01.JPG,AFNE01.JPG,AFNE01.JPG,AFNE01.JPG,,,,,,,,,,,,,1,5,15,6,,,,,,,,,,,AFNE02.jpg,AFSA08.jpg,AFNE04.jpg,AFSA01.jpg,AFSA08.jpg,FS,4,num_6,32,num_2,1.31678025678,,,2017_Oct_04_1820,60.0135703768,MAFE4ImagesEEG,001,101717,
AFNE01.JPG,AFNE01.JPG,AFNE01.JPG,AFNE01.JPG,AFNE01.JPG,AFNE01.JPG,,,,,,,,,,,,,1,6,16,3,,,,,,,,,,,AFNE14.jpg,AFSA18.jpg,AFNE04.jpg,AFSA14.jpg,AFSA14.jpg,FS,4,num_4,32,num_8,1.25023822972,,,2017_Oct_04_1820,60.0135703768,MAFE4ImagesEEG,001,101717,
AFNE01.JPG,AFNE01.JPG,AFNE01.JPG,AFNE01.JPG,AFNE01.JPG,AFNE01.JPG,,,,,,,,,,,,,1,7,17,4,,,,,,,,,,,AFNE15.jpg,AFSA19.jpg,AFNE12.jpg,AFSA15.jpg,AFSA19.jpg,FS,4,num_6,16,num_6,0.600132978856,,,2017_Oct_04_1820,60.0135703768,MAFE4ImagesEEG,001,101717,
AFNE01.JPG,AFNE01.JPG,AFNE01.JPG,AFNE01.JPG,AFNE01.JPG,AFNE01.JPG,,,,,,,,,,,,,1,8,18,5,,,,,,,,,,,AFSA10.jpg,AFSA05.jpg,AFNE14.jpg,AFNE06.jpg,AFNE14.jpg,FN,3,num_2,32,num_8,0.916745809285,,,2017_Oct_04_1820,60.0135703768,MAFE4ImagesEEG,001,101717,
AFNE01.JPG,AFNE01.JPG,AFNE01.JPG,AFNE01.JPG,AFNE01.JPG,AFNE01.JPG,,,,,,,,,,,,,1,9,19,2,,,,,,,,,,,AFSA05.jpg,AFNE05.jpg,AFNE02.jpg,AFSA14.jpg,AFNE05.jpg,FN,3,num_6,16,num_6,1.21672730258,,,2017_Oct_04_1820,60.0135703768,MAFE4ImagesEEG,001,101717,
AFNE01.JPG,AFNE01.JPG,AFNE01.JPG,AFNE01.JPG,AFNE01.JPG,AFNE01.JPG,,,,,,,,,,,,,2,0,20,9,,,,,,,,,,,AFSA19.jpg,AFSA02.jpg,AFNE13.jpg,AFNE05.jpg,AFNE05.jpg,FN,3,num_4,16,num_4,0.883440797305,,,2017_Oct_04_1820,60.0135703768,MAFE4ImagesEEG,001,101717,
AFNE01.JPG,AFNE01.JPG,AFNE01.JPG,AFNE01.JPG,AFNE01.JPG,AFNE01.JPG,,,,,,,,,,,,,2,1,21,6,,,,,,,,,,,AFSA01.jpg,AFNE20.jpg,AFNE09.jpg,AFSA06.jpg,AFSA06.jpg,FS,4,num_4,32,num_8,1.85004469514,,,2017_Oct_04_1820,60.0135703768,MAFE4ImagesEEG,001,101717,
AFNE01.JPG,AFNE01.JPG,AFNE01.JPG,AFNE01.JPG,AFNE01.JPG,AFNE01.JPG,,,,,,,,,,,,,2,2,22,8,,,,,,,,,,,AFNE06.jpg,AFSA08.jpg,AFNE17.jpg,AFSA04.jpg,AFNE17.jpg,FN,3,num_2,16,num_2,1.23344299437,,,2017_Oct_04_1820,60.0135703768,MAFE4ImagesEEG,001,101717,
AFNE01.JPG,AFNE01.JPG,AFNE01.JPG,AFNE01.JPG,AFNE01.JPG,AFNE01.JPG,,,,,,,,,,,,,2,3,23,5,,,,,,,,,,,AFNE04.jpg,AFSA07.jpg,AFNE20.jpg,AFSA04.jpg,AFNE04.jpg,FN,3,num_8,16,num_8,0.950159552158,,,2017_Oct_04_1820,60.0135703768,MAFE4ImagesEEG,001,101717,
AFNE01.JPG,AFNE01.JPG,AFNE01.JPG,AFNE01.JPG,AFNE01.JPG,AFNE01.JPG,,,,,,,,,,,,,2,4,24,2,,,,,,,,,,,AFSA17.jpg,AFSA12.jpg,AFNE07.jpg,AFNE06.jpg,AFNE07.jpg,FN,3,num_2,32,num_4,2.33336925623,,,2017_Oct_04_1820,60.0135703768,MAFE4ImagesEEG,001,101717,
AFNE01.JPG,AFNE01.JPG,AFNE01.JPG,AFNE01.JPG,AFNE01.JPG,AFNE01.JPG,,,,,,,,,,,,,2,5,25,1,,,,,,,,,,,AFSA01.jpg,AFNE17.jpg,AFNE07.jpg,AFSA16.jpg,AFNE17.jpg,FN,3,num_6,32,num_8,1.46642733039,,,2017_Oct_04_1820,60.0135703768,MAFE4ImagesEEG,001,101717,
AFNE01.JPG,AFNE01.JPG,AFNE01.JPG,AFNE01.JPG,AFNE01.JPG,AFNE01.JPG,,,,,,,,,,,,,2,6,26,4,,,,,,,,,,,AFNE13.jpg,AFSA01.jpg,AFSA19.jpg,AFNE01.jpg,AFSA19.jpg,FS,4,num_2,32,num_4,1.98323651793,,,2017_Oct_04_1820,60.0135703768,MAFE4ImagesEEG,001,101717,
AFNE01.JPG,AFNE01.JPG,AFNE01.JPG,AFNE01.JPG,AFNE01.JPG,AFNE01.JPG,,,,,,,,,,,,,2,7,27,0,,,,,,,,,,,AFSA01.jpg,AFNE01.jpg,AFSA19.jpg,AFNE20.jpg,AFSA19.jpg,FS,4,num_2,16,num_2,1.38343775028,,,2017_Oct_04_1820,60.0135703768,MAFE4ImagesEEG,001,101717,
AFNE01.JPG,AFNE01.JPG,AFNE01.JPG,AFNE01.JPG,AFNE01.JPG,AFNE01.JPG,,,,,,,,,,,,,2,8,28,7,,,,,,,,,,,AFSA19.jpg,AFSA01.jpg,AFNE10.jpg,AFNE09.jpg,AFNE09.jpg,FN,3,num_4,32,num_6,1.01678785832,,,2017_Oct_04_1820,60.0135703768,MAFE4ImagesEEG,001,101717,
AFNE01.JPG,AFNE01.JPG,AFNE01.JPG,AFNE01.JPG,AFNE01.JPG,AFNE01.JPG,,,,,,,,,,,,,2,9,29,3,,,,,,,,,,,AFSA05.jpg,AFNE17.jpg,AFSA02.jpg,AFNE18.jpg,AFSA02.jpg,FS,4,num_2,32,num_4,1.31673439094,,,2017_Oct_04_1820,60.0135703768,MAFE4ImagesEEG,001,101717,
AFNE01.JPG,AFNE01.JPG,AFNE01.JPG,AFNE01.JPG,AFNE01.JPG,AFNE01.JPG,,,,,,,,,,,,,3,0,30,3,,,,,,,,,,,AFSA11.jpg,AFSA14.jpg,AFNE09.jpg,AFNE11.jpg,AFSA14.jpg,FS,4,num_6,16,num_6,1.63342965159,,,2017_Oct_04_1820,60.0135703768,MAFE4ImagesEEG,001,101717,
AFNE01.JPG,AFNE01.JPG,AFNE01.JPG,AFNE01.JPG,AFNE01.JPG,AFNE01.JPG,,,,,,,,,,,,,3,1,31,2,,,,,,,,,,,AFNE09.jpg,AFSA16.jpg,AFNE08.jpg,AFSA08.jpg,AFSA16.jpg,FS,4,num_6,32,num_4,1.26674608192,,,2017_Oct_04_1820,60.0135703768,MAFE4ImagesEEG,001,101717,
AFNE01.JPG,AFNE01.JPG,AFNE01.JPG,AFNE01.JPG,AFNE01.JPG,AFNE01.JPG,,,,,,,,,,,,,3,2,32,7,,,,,,,,,,,AFSA02.jpg,AFNE16.jpg,AFSA06.jpg,AFNE14.jpg,AFSA02.jpg,FS,4,num_8,32,num_4,1.41655641225,,,2017_Oct_04_1820,60.0135703768,MAFE4ImagesEEG,001,101717,
AFNE01.JPG,AFNE01.JPG,AFNE01.JPG,AFNE01.JPG,AFNE01.JPG,AFNE01.JPG,,,,,,,,,,,,,3,3,33,9,,,,,,,,,,,AFNE17.jpg,AFSA11.jpg,AFNE15.jpg,AFSA01.jpg,AFNE15.jpg,FN,3,num_2,32,num_4,2.03337493332,,,2017_Oct_04_1820,60.0135703768,MAFE4ImagesEEG,001,101717,
AFNE01.JPG,AFNE01.JPG,AFNE01.JPG,AFNE01.JPG,AFNE01.JPG,AFNE01.JPG,,,,,,,,,,,,,3,4,34,1,,,,,,,,,,,AFSA03.jpg,AFSA17.jpg,AFNE15.jpg,AFNE07.jpg,AFSA17.jpg,FS,4,num_6,32,num_8,2.83330366488,,,2017_Oct_04_1820,60.0135703768,MAFE4ImagesEEG,001,101717,
AFNE01.JPG,AFNE01.JPG,AFNE01.JPG,AFNE01.JPG,AFNE01.JPG,AFNE01.JPG,,,,,,,,,,,,,3,5,35,6,,,,,,,,,,,AFNE03.jpg,AFNE15.jpg,AFSA06.jpg,AFSA19.jpg,AFNE03.jpg,FN,3,num_8,32,num_4,2.10004846384,,,2017_Oct_04_1820,60.0135703768,MAFE4ImagesEEG,001,101717,
AFNE01.JPG,AFNE01.JPG,AFNE01.JPG,AFNE01.JPG,AFNE01.JPG,AFNE01.JPG,,,,,,,,,,,,,3,6,36,0,,,,,,,,,,,AFSA01.jpg,AFNE19.jpg,AFSA19.jpg,AFNE20.jpg,AFSA01.jpg,FS,4,num_8,32,num_6,1.83337230326,,,2017_Oct_04_1820,60.0135703768,MAFE4ImagesEEG,001,101717,
AFNE01.JPG,AFNE01.JPG,AFNE01.JPG,AFNE01.JPG,AFNE01.JPG,AFNE01.JPG,,,,,,,,,,,,,3,7,37,8,,,,,,,,,,,AFNE08.jpg,AFNE14.jpg,AFSA07.jpg,AFSA18.jpg,AFSA07.jpg,FS,4,num_2,32,num_4,1.95011208263,,,2017_Oct_04_1820,60.0135703768,MAFE4ImagesEEG,001,101717,
AFNE01.JPG,AFNE01.JPG,AFNE01.JPG,AFNE01.JPG,AFNE01.JPG,AFNE01.JPG,,,,,,,,,,,,,3,8,38,4,,,,,,,,,,,AFNE08.jpg,AFSA17.jpg,AFSA06.jpg,AFNE14.jpg,AFSA06.jpg,FS,4,num_2,16,num_2,0.700098050249,,,2017_Oct_04_1820,60.0135703768,MAFE4ImagesEEG,001,101717,
AFNE01.JPG,AFNE01.JPG,AFNE01.JPG,AFNE01.JPG,AFNE01.JPG,AFNE01.JPG,,,,,,,,,,,,,3,9,39,5,,,,,,,,,,,AFSA20.jpg,AFNE15.jpg,AFSA11.jpg,AFNE01.jpg,AFSA11.jpg,FS,4,num_2,16,num_2,0.78347604665,,,2017_Oct_04_1820,60.0135703768,MAFE4ImagesEEG,001,101717,
AFNE01.JPG,AFNE01.JPG,AFNE01.JPG,AFNE01.JPG,AFNE01.JPG,AFNE01.JPG,,,,,,,,,,,,,4,0,40,3,,,,,,,,,,,AFSA19.jpg,AFSA15.jpg,AFNE07.jpg,AFNE02.jpg,AFNE07.jpg,FN,3,num_2,32,num_4,0.766778957768,,,2017_Oct_04_1820,60.0135703768,MAFE4ImagesEEG,001,101717,
AFNE01.JPG,AFNE01.JPG,AFNE01.JPG,AFNE01.JPG,AFNE01.JPG,AFNE01.JPG,,,,,,,,,,,,,4,1,41,0,,,,,,,,,,,AFNE08.jpg,AFNE04.jpg,AFSA05.jpg,AFSA19.jpg,AFSA05.jpg,FS,4,num_2,32,num_8,1.03343651543,,,2017_Oct_04_1820,60.0135703768,MAFE4ImagesEEG,001,101717,
AFNE01.JPG,AFNE01.JPG,AFNE01.JPG,AFNE01.JPG,AFNE01.JPG,AFNE01.JPG,,,,,,,,,,,,,4,2,42,7,,,,,,,,,,,AFSA02.jpg,AFSA18.jpg,AFNE01.jpg,AFNE05.jpg,AFNE05.jpg,FN,3,num_4,16,num_4,1.53327438131,,,2017_Oct_04_1820,60.0135703768,MAFE4ImagesEEG,001,101717,
AFNE01.JPG,AFNE01.JPG,AFNE01.JPG,AFNE01.JPG,AFNE01.JPG,AFNE01.JPG,,,,,,,,,,,,,4,3,43,5,,,,,,,,,,,AFNE14.jpg,AFSA16.jpg,AFSA15.jpg,AFNE11.jpg,AFSA15.jpg,FS,4,num_2,32,num_6,1.30011171379,,,2017_Oct_04_1820,60.0135703768,MAFE4ImagesEEG,001,101717,
AFNE01.JPG,AFNE01.JPG,AFNE01.JPG,AFNE01.JPG,AFNE01.JPG,AFNE01.JPG,,,,,,,,,,,,,4,4,44,9,,,,,,,,,,,AFSA07.jpg,AFNE04.jpg,AFSA16.jpg,AFNE07.jpg,AFNE04.jpg,FN,3,num_6,32,num_8,1.91667268054,,,2017_Oct_04_1820,60.0135703768,MAFE4ImagesEEG,001,101717,
AFNE01.JPG,AFNE01.JPG,AFNE01.JPG,AFNE01.JPG,AFNE01.JPG,AFNE01.JPG,,,,,,,,,,,,,4,5,45,6,,,,,,,,,,,AFSA09.jpg,AFNE16.jpg,AFSA06.jpg,AFNE08.jpg,AFSA06.jpg,FS,4,num_2,32,num_4,1.31676261607,,,2017_Oct_04_1820,60.0135703768,MAFE4ImagesEEG,001,101717,
AFNE01.JPG,AFNE01.JPG,AFNE01.JPG,AFNE01.JPG,AFNE01.JPG,AFNE01.JPG,,,,,,,,,,,,,4,6,46,4,,,,,,,,,,,AFSA16.jpg,AFNE16.jpg,AFNE08.jpg,AFSA14.jpg,AFNE08.jpg,FN,3,num_2,32,num_4,0.800172173302,,,2017_Oct_04_1820,60.0135703768,MAFE4ImagesEEG,001,101717,
AFNE01.JPG,AFNE01.JPG,AFNE01.JPG,AFNE01.JPG,AFNE01.JPG,AFNE01.JPG,,,,,,,,,,,,,4,7,47,1,,,,,,,,,,,AFSA11.jpg,AFNE05.jpg,AFNE13.jpg,AFSA06.jpg,AFSA06.jpg,FS,4,num_4,32,num_2,1.20009115434,,,2017_Oct_04_1820,60.0135703768,MAFE4ImagesEEG,001,101717,
AFNE01.JPG,AFNE01.JPG,AFNE01.JPG,AFNE01.JPG,AFNE01.JPG,AFNE01.JPG,,,,,,,,,,,,,4,8,48,8,,,,,,,,,,,AFNE19.jpg,AFNE12.jpg,AFSA07.jpg,AFSA14.jpg,AFNE12.jpg,FN,3,num_6,32,num_4,0.85012167276,,,2017_Oct_04_1820,60.0135703768,MAFE4ImagesEEG,001,101717,
AFNE01.JPG,AFNE01.JPG,AFNE01.JPG,AFNE01.JPG,AFNE01.JPG,AFNE01.JPG,,,,,,,,,,,,,4,9,49,2,,,,,,,,,,,AFSA04.jpg,AFSA16.jpg,AFNE06.jpg,AFNE03.jpg,AFSA16.jpg,FS,4,num_6,16,num_6,1.34997204749,,,2017_Oct_04_1820,60.0135703768,MAFE4ImagesEEG,001,101717,
AFNE01.JPG,AFNE01.JPG,AFNE01.JPG,AFNE01.JPG,AFNE01.JPG,AFNE01.JPG,,,,,,,,,,,,,5,0,50,7,,,,,,,,,,,AFNE19.jpg,AFNE06.jpg,AFSA07.jpg,AFSA14.jpg,AFSA07.jpg,FS,4,num_2,32,num_4,0.950108554491,,,2017_Oct_04_1820,60.0135703768,MAFE4ImagesEEG,001,101717,
AFNE01.JPG,AFNE01.JPG,AFNE01.JPG,AFNE01.JPG,AFNE01.JPG,AFNE01.JPG,,,,,,,,,,,,,5,1,51,0,,,,,,,,,,,AFNE18.jpg,AFSA14.jpg,AFSA05.jpg,AFNE19.jpg,AFNE18.jpg,FN,3,num_8,16,num_8,1.23346416322,,,2017_Oct_04_1820,60.0135703768,MAFE4ImagesEEG,001,101717,
AFNE01.JPG,AFNE01.JPG,AFNE01.JPG,AFNE01.JPG,AFNE01.JPG,AFNE01.JPG,,,,,,,,,,,,,5,2,52,2,,,,,,,,,,,AFSA08.jpg,AFNE10.jpg,AFSA09.jpg,AFNE03.jpg,AFSA08.jpg,FS,4,num_8,32,num_4,0.850126163117,,,2017_Oct_04_1820,60.0135703768,MAFE4ImagesEEG,001,101717,
AFNE01.JPG,AFNE01.JPG,AFNE01.JPG,AFNE01.JPG,AFNE01.JPG,AFNE01.JPG,,,,,,,,,,,,,5,3,53,9,,,,,,,,,,,AFNE11.jpg,AFSA01.jpg,AFNE01.jpg,AFSA08.jpg,AFNE11.jpg,FN,3,num_8,32,num_6,0.866665447844,,,2017_Oct_04_1820,60.0135703768,MAFE4ImagesEEG,001,101717,
AFNE01.JPG,AFNE01.JPG,AFNE01.JPG,AFNE01.JPG,AFNE01.JPG,AFNE01.JPG,,,,,,,,,,,,,5,4,54,8,,,,,,,,,,,AFSA18.jpg,AFNE19.jpg,AFSA03.jpg,AFNE14.jpg,AFSA03.jpg,FS,4,num_2,16,num_2,1.3667182096,,,2017_Oct_04_1820,60.0135703768,MAFE4ImagesEEG,001,101717,
AFNE01.JPG,AFNE01.JPG,AFNE01.JPG,AFNE01.JPG,AFNE01.JPG,AFNE01.JPG,,,,,,,,,,,,,5,5,55,4,,,,,,,,,,,AFSA09.jpg,AFNE07.jpg,AFNE19.jpg,AFSA06.jpg,AFNE19.jpg,FN,3,num_2,32,num_4,0.966783191558,,,2017_Oct_04_1820,60.0135703768,MAFE4ImagesEEG,001,101717,
AFNE01.JPG,AFNE01.JPG,AFNE01.JPG,AFNE01.JPG,AFNE01.JPG,AFNE01.JPG,,,,,,,,,,,,,5,6,56,3,,,,,,,,,,,AFNE07.jpg,AFSA10.jpg,AFSA15.jpg,AFNE06.jpg,AFSA15.jpg,FS,4,num_2,32,num_8,2.13357061688,,,2017_Oct_04_1820,60.0135703768,MAFE4ImagesEEG,001,101717,
AFNE01.JPG,AFNE01.JPG,AFNE01.JPG,AFNE01.JPG,AFNE01.JPG,AFNE01.JPG,,,,,,,,,,,,,5,7,57,5,,,,,,,,,,,AFSA17.jpg,AFSA07.jpg,AFNE18.jpg,AFNE07.jpg,AFSA07.jpg,FS,4,num_6,32,num_4,0.983537051419,,,2017_Oct_04_1820,60.0135703768,MAFE4ImagesEEG,001,101717,
AFNE01.JPG,AFNE01.JPG,AFNE01.JPG,AFNE01.JPG,AFNE01.JPG,AFNE01.JPG,,,,,,,,,,,,,5,8,58,1,,,,,,,,,,,AFSA02.jpg,AFSA01.jpg,AFNE13.jpg,AFNE04.jpg,AFSA02.jpg,FS,4,num_8,16,num_8,0.750020928303,,,2017_Oct_04_1820,60.0135703768,MAFE4ImagesEEG,001,101717,
AFNE01.JPG,AFNE01.JPG,AFNE01.JPG,AFNE01.JPG,AFNE01.JPG,AFNE01.JPG,,,,,,,,,,,,,5,9,59,6,,,,,,,,,,,AFNE07.jpg,AFSA17.jpg,AFSA03.jpg,AFNE15.jpg,AFNE07.jpg,FN,3,num_8,16,num_8,0.550198874902,,,2017_Oct_04_1820,60.0135703768,MAFE4ImagesEEG,001,101717,
,,,,,,,,,,,,,,,,,,,,,,,,,,,,,,,,,,,,,,,,,,,space,40.2967461878,2017_Oct_04_1820,60.0135703768,MAFE4ImagesEEG,001,101717,
AFNE01.JPG,AFNE01.JPG,AFNE01.JPG,AFNE01.JPG,AFNE01.JPG,AFNE01.JPG,,,,,,,,,,,,,,,,,0,0,0,6,,,,,,,AMSA14.jpg,AMNE15.jpg,AMSA11.jpg,AMNE04.jpg,AMSA11.jpg,MS,2,num_2,32,num_8,1.35010258872,,,2017_Oct_04_1820,60.0135703768,MAFE4ImagesEEG,001,101717,
AFNE01.JPG,AFNE01.JPG,AFNE01.JPG,AFNE01.JPG,AFNE01.JPG,AFNE01.JPG,,,,,,,,,,,,,,,,,0,1,1,3,,,,,,,AMSA18.jpg,AMSA02.jpg,AMNE13.jpg,AMNE04.jpg,AMNE04.jpg,MN,1,num_4,16,num_4,0.700179838983,,,2017_Oct_04_1820,60.0135703768,MAFE4ImagesEEG,001,101717,
AFNE01.JPG,AFNE01.JPG,AFNE01.JPG,AFNE01.JPG,AFNE01.JPG,AFNE01.JPG,,,,,,,,,,,,,,,,,0,2,2,7,,,,,,,AMSA10.jpg,AMNE01.jpg,AMSA09.jpg,AMNE20.jpg,AMNE20.jpg,MN,1,num_4,16,num_4,0.666805547124,,,2017_Oct_04_1820,60.0135703768,MAFE4ImagesEEG,001,101717,
AFNE01.JPG,AFNE01.JPG,AFNE01.JPG,AFNE01.JPG,AFNE01.JPG,AFNE01.JPG,,,,,,,,,,,,,,,,,0,3,3,8,,,,,,,AMSA14.jpg,AMNE17.jpg,AMSA10.jpg,AMNE16.jpg,AMNE17.jpg,MN,1,num_6,16,num_6,1.00007088357,,,2017_Oct_04_1820,60.0135703768,MAFE4ImagesEEG,001,101717,
AFNE01.JPG,AFNE01.JPG,AFNE01.JPG,AFNE01.JPG,AFNE01.JPG,AFNE01.JPG,,,,,,,,,,,,,,,,,0,4,4,1,,,,,,,AMNE13.jpg,AMNE20.jpg,AMSA03.jpg,AMSA13.jpg,AMNE20.jpg,MN,1,num_6,16,num_6,0.750161733202,,,2017_Oct_04_1820,60.0135703768,MAFE4ImagesEEG,001,101717,
AFNE01.JPG,AFNE01.JPG,AFNE01.JPG,AFNE01.JPG,AFNE01.JPG,AFNE01.JPG,,,,,,,,,,,,,,,,,0,5,5,2,,,,,,,AMNE19.jpg,AMNE05.jpg,AMSA02.jpg,AMSA06.jpg,AMSA02.jpg,MS,2,num_2,16,num_2,1.04998542236,,,2017_Oct_04_1820,60.0135703768,MAFE4ImagesEEG,001,101717,
AFNE01.JPG,AFNE01.JPG,AFNE01.JPG,AFNE01.JPG,AFNE01.JPG,AFNE01.JPG,,,,,,,,,,,,,,,,,0,6,6,0,,,,,,,AMSA01.jpg,AMNE13.jpg,AMSA15.jpg,AMNE10.jpg,AMNE13.jpg,MN,1,num_6,32,num_8,0.733456625836,,,2017_Oct_04_1820,60.0135703768,MAFE4ImagesEEG,001,101717,
AFNE01.JPG,AFNE01.JPG,AFNE01.JPG,AFNE01.JPG,AFNE01.JPG,AFNE01.JPG,,,,,,,,,,,,,,,,,0,7,7,4,,,,,,,AMSA08.jpg,AMNE13.jpg,AMNE08.jpg,AMSA18.jpg,AMNE08.jpg,MN,1,num_2,16,num_2,1.21671864261,,,2017_Oct_04_1820,60.0135703768,MAFE4ImagesEEG,001,101717,
AFNE01.JPG,AFNE01.JPG,AFNE01.JPG,AFNE01.JPG,AFNE01.JPG,AFNE01.JPG,,,,,,,,,,,,,,,,,0,8,8,9,,,,,,,AMNE01.jpg,AMNE09.jpg,AMSA16.jpg,AMSA07.jpg,AMSA16.jpg,MS,2,num_2,16,num_2,2.43335004388,,,2017_Oct_04_1820,60.0135703768,MAFE4ImagesEEG,001,101717,
AFNE01.JPG,AFNE01.JPG,AFNE01.JPG,AFNE01.JPG,AFNE01.JPG,AFNE01.JPG,,,,,,,,,,,,,,,,,0,9,9,5,,,,,,,AMNE10.jpg,AMNE20.jpg,AMSA17.jpg,AMSA03.jpg,AMSA17.jpg,MS,2,num_2,32,num_6,0.683464467933,,,2017_Oct_04_1820,60.0135703768,MAFE4ImagesEEG,001,101717,
AFNE01.JPG,AFNE01.JPG,AFNE01.JPG,AFNE01.JPG,AFNE01.JPG,AFNE01.JPG,,,,,,,,,,,,,,,,,1,0,10,6,,,,,,,AMSA01.jpg,AMNE06.jpg,AMSA17.jpg,AMNE10.jpg,AMNE10.jpg,MN,1,num_4,16,num_4,1.21669971895,,,2017_Oct_04_1820,60.0135703768,MAFE4ImagesEEG,001,101717,
AFNE01.JPG,AFNE01.JPG,AFNE01.JPG,AFNE01.JPG,AFNE01.JPG,AFNE01.JPG,,,,,,,,,,,,,,,,,1,1,11,9,,,,,,,AMNE04.jpg,AMSA05.jpg,AMNE01.jpg,AMSA16.jpg,AMSA05.jpg,MS,2,num_6,32,num_2,1.2667531382,,,2017_Oct_04_1820,60.0135703768,MAFE4ImagesEEG,001,101717,
AFNE01.JPG,AFNE01.JPG,AFNE01.JPG,AFNE01.JPG,AFNE01.JPG,AFNE01.JPG,,,,,,,,,,,,,,,,,1,2,12,1,,,,,,,AMNE07.jpg,AMNE11.jpg,AMSA10.jpg,AMSA02.jpg,AMNE07.jpg,MN,1,num_8,32,num_2,2.05003096747,,,2017_Oct_04_1820,60.0135703768,MAFE4ImagesEEG,001,101717,
AFNE01.JPG,AFNE01.JPG,AFNE01.JPG,AFNE01.JPG,AFNE01.JPG,AFNE01.JPG,,,,,,,,,,,,,,,,,1,3,13,0,,,,,,,AMNE12.jpg,AMSA14.jpg,AMSA11.jpg,AMNE19.jpg,AMNE19.jpg,MN,1,num_4,16,num_4,0.716769479914,,,2017_Oct_04_1820,60.0135703768,MAFE4ImagesEEG,001,101717,
AFNE01.JPG,AFNE01.JPG,AFNE01.JPG,AFNE01.JPG,AFNE01.JPG,AFNE01.JPG,,,,,,,,,,,,,,,,,1,4,14,5,,,,,,,AMNE03.jpg,AMNE12.jpg,AMSA20.jpg,AMSA13.jpg,AMSA20.jpg,MS,2,num_2,32,num_6,2.08345401181,,,2017_Oct_04_1820,60.0135703768,MAFE4ImagesEEG,001,101717,
AFNE01.JPG,AFNE01.JPG,AFNE01.JPG,AFNE01.JPG,AFNE01.JPG,AFNE01.JPG,,,,,,,,,,,,,,,,,1,5,15,4,,,,,,,AMSA16.jpg,AMNE04.jpg,AMSA02.jpg,AMNE13.jpg,AMNE13.jpg,MN,1,num_4,32,num_8,0.733479077637,,,2017_Oct_04_1820,60.0135703768,MAFE4ImagesEEG,001,101717,
AFNE01.JPG,AFNE01.JPG,AFNE01.JPG,AFNE01.JPG,AFNE01.JPG,AFNE01.JPG,,,,,,,,,,,,,,,,,1,6,16,3,,,,,,,AMNE13.jpg,AMSA08.jpg,AMSA12.jpg,AMNE02.jpg,AMSA12.jpg,MS,2,num_2,32,num_4,1.25007529375,,,2017_Oct_04_1820,60.0135703768,MAFE4ImagesEEG,001,101717,
AFNE01.JPG,AFNE01.JPG,AFNE01.JPG,AFNE01.JPG,AFNE01.JPG,AFNE01.JPG,,,,,,,,,,,,,,,,,1,7,17,7,,,,,,,AMNE20.jpg,AMSA20.jpg,AMNE10.jpg,AMSA16.jpg,AMSA20.jpg,MS,2,num_6,32,num_2,2.13318669095,,,2017_Oct_04_1820,60.0135703768,MAFE4ImagesEEG,001,101717,
AFNE01.JPG,AFNE01.JPG,AFNE01.JPG,AFNE01.JPG,AFNE01.JPG,AFNE01.JPG,,,,,,,,,,,,,,,,,1,8,18,8,,,,,,,AMNE15.jpg,AMSA04.jpg,AMNE18.jpg,AMSA06.jpg,AMSA06.jpg,MS,2,num_4,32,num_2,3.09999971134,,,2017_Oct_04_1820,60.0135703768,MAFE4ImagesEEG,001,101717,
AFNE01.JPG,AFNE01.JPG,AFNE01.JPG,AFNE01.JPG,AFNE01.JPG,AFNE01.JPG,,,,,,,,,,,,,,,,,1,9,19,2,,,,,,,AMNE13.jpg,AMSA05.jpg,AMSA15.jpg,AMNE15.jpg,AMSA15.jpg,MS,2,num_2,32,num_4,1.40015087616,,,2017_Oct_04_1820,60.0135703768,MAFE4ImagesEEG,001,101717,
AFNE01.JPG,AFNE01.JPG,AFNE01.JPG,AFNE01.JPG,AFNE01.JPG,AFNE01.JPG,,,,,,,,,,,,,,,,,2,0,20,5,,,,,,,AMSA07.jpg,AMNE06.jpg,AMSA14.jpg,AMNE20.jpg,AMNE06.jpg,MN,1,num_6,32,num_8,4.19985476889,,,2017_Oct_04_1820,60.0135703768,MAFE4ImagesEEG,001,101717,
AFNE01.JPG,AFNE01.JPG,AFNE01.JPG,AFNE01.JPG,AFNE01.JPG,AFNE01.JPG,,,,,,,,,,,,,,,,,2,1,21,1,,,,,,,AMNE17.jpg,AMSA08.jpg,AMNE09.jpg,AMSA06.jpg,AMSA06.jpg,MS,2,num_4,16,num_4,1.03348430571,,,2017_Oct_04_1820,60.0135703768,MAFE4ImagesEEG,001,101717,
AFNE01.JPG,AFNE01.JPG,AFNE01.JPG,AFNE01.JPG,AFNE01.JPG,AFNE01.JPG,,,,,,,,,,,,,,,,,2,2,22,8,,,,,,,AMSA11.jpg,AMNE14.jpg,AMSA02.jpg,AMNE19.jpg,AMNE19.jpg,MN,1,num_4,32,num_8,1.13342051049,,,2017_Oct_04_1820,60.0135703768,MAFE4ImagesEEG,001,101717,
AFNE01.JPG,AFNE01.JPG,AFNE01.JPG,AFNE01.JPG,AFNE01.JPG,AFNE01.JPG,,,,,,,,,,,,,,,,,2,3,23,3,,,,,,,AMNE16.jpg,AMSA11.jpg,AMNE12.jpg,AMSA04.jpg,AMNE16.jpg,MN,1,num_8,16,num_8,0.333546625508,,,2017_Oct_04_1820,60.0135703768,MAFE4ImagesEEG,001,101717,
AFNE01.JPG,AFNE01.JPG,AFNE01.JPG,AFNE01.JPG,AFNE01.JPG,AFNE01.JPG,,,,,,,,,,,,,,,,,2,4,24,9,,,,,,,AMNE11.jpg,AMNE20.jpg,AMSA07.jpg,AMSA14.jpg,AMSA07.jpg,MS,2,num_2,16,num_2,3.83320038655,,,2017_Oct_04_1820,60.0135703768,MAFE4ImagesEEG,001,101717,
AFNE01.JPG,AFNE01.JPG,AFNE01.JPG,AFNE01.JPG,AFNE01.JPG,AFNE01.JPG,,,,,,,,,,,,,,,,,2,5,25,0,,,,,,,AMSA19.jpg,AMSA07.jpg,AMNE03.jpg,AMNE17.jpg,AMSA19.jpg,MS,2,num_8,32,num_6,1.016782085,,,2017_Oct_04_1820,60.0135703768,MAFE4ImagesEEG,001,101717,
AFNE01.JPG,AFNE01.JPG,AFNE01.JPG,AFNE01.JPG,AFNE01.JPG,AFNE01.JPG,,,,,,,,,,,,,,,,,2,6,26,4,,,,,,,AMSA07.jpg,AMSA11.jpg,AMNE03.jpg,AMNE05.jpg,AMSA07.jpg,MS,2,num_8,16,num_8,1.73339664744,,,2017_Oct_04_1820,60.0135703768,MAFE4ImagesEEG,001,101717,
AFNE01.JPG,AFNE01.JPG,AFNE01.JPG,AFNE01.JPG,AFNE01.JPG,AFNE01.JPG,,,,,,,,,,,,,,,,,2,7,27,6,,,,,,,AMSA03.jpg,AMSA20.jpg,AMNE08.jpg,AMNE06.jpg,AMSA03.jpg,MS,2,num_8,16,num_8,0.583481755821,,,2017_Oct_04_1820,60.0135703768,MAFE4ImagesEEG,001,101717,
AFNE01.JPG,AFNE01.JPG,AFNE01.JPG,AFNE01.JPG,AFNE01.JPG,AFNE01.JPG,,,,,,,,,,,,,,,,,2,8,28,7,,,,,,,AMNE03.jpg,AMNE01.jpg,AMSA12.jpg,AMSA13.jpg,AMSA13.jpg,MS,2,num_4,32,num_8,0.983461035998,,,2017_Oct_04_1820,60.0135703768,MAFE4ImagesEEG,001,101717,
AFNE01.JPG,AFNE01.JPG,AFNE01.JPG,AFNE01.JPG,AFNE01.JPG,AFNE01.JPG,,,,,,,,,,,,,,,,,2,9,29,2,,,,,,,AMNE06.jpg,AMSA12.jpg,AMNE02.jpg,AMSA19.jpg,AMNE06.jpg,MN,1,num_8,16,num_8,0.683476014572,,,2017_Oct_04_1820,60.0135703768,MAFE4ImagesEEG,001,101717,
AFNE01.JPG,AFNE01.JPG,AFNE01.JPG,AFNE01.JPG,AFNE01.JPG,AFNE01.JPG,,,,,,,,,,,,,,,,,3,0,30,0,,,,,,,AMNE13.jpg,AMSA06.jpg,AMSA14.jpg,AMNE07.jpg,AMNE13.jpg,MN,1,num_8,32,num_2,0.916748054471,,,2017_Oct_04_1820,60.0135703768,MAFE4ImagesEEG,001,101717,
AFNE01.JPG,AFNE01.JPG,AFNE01.JPG,AFNE01.JPG,AFNE01.JPG,AFNE01.JPG,,,,,,,,,,,,,,,,,3,1,31,2,,,,,,,AMNE11.jpg,AMSA17.jpg,AMSA20.jpg,AMNE19.jpg,AMNE19.jpg,MN,1,num_4,16,num_4,1.3000671309,,,2017_Oct_04_1820,60.0135703768,MAFE4ImagesEEG,001,101717,
AFNE01.JPG,AFNE01.JPG,AFNE01.JPG,AFNE01.JPG,AFNE01.JPG,AFNE01.JPG,,,,,,,,,,,,,,,,,3,2,32,6,,,,,,,AMSA07.jpg,AMNE03.jpg,AMSA15.jpg,AMNE08.jpg,AMSA15.jpg,MS,2,num_2,32,num_8,1.65004912135,,,2017_Oct_04_1820,60.0135703768,MAFE4ImagesEEG,001,101717,
AFNE01.JPG,AFNE01.JPG,AFNE01.JPG,AFNE01.JPG,AFNE01.JPG,AFNE01.JPG,,,,,,,,,,,,,,,,,3,3,33,9,,,,,,,AMNE15.jpg,AMSA05.jpg,AMSA11.jpg,AMNE10.jpg,AMNE10.jpg,MN,1,num_4,32,num_8,1.85002512998,,,2017_Oct_04_1820,60.0135703768,MAFE4ImagesEEG,001,101717,
AFNE01.JPG,AFNE01.JPG,AFNE01.JPG,AFNE01.JPG,AFNE01.JPG,AFNE01.JPG,,,,,,,,,,,,,,,,,3,4,34,4,,,,,,,AMNE01.jpg,AMNE18.jpg,AMSA01.jpg,AMSA17.jpg,AMNE18.jpg,MN,1,num_6,32,num_8,1.10009272596,,,2017_Oct_04_1820,60.0135703768,MAFE4ImagesEEG,001,101717,
AFNE01.JPG,AFNE01.JPG,AFNE01.JPG,AFNE01.JPG,AFNE01.JPG,AFNE01.JPG,,,,,,,,,,,,,,,,,3,5,35,1,,,,,,,AMNE04.jpg,AMSA14.jpg,AMNE09.jpg,AMSA04.jpg,AMNE09.jpg,MN,1,num_2,16,num_2,1.50016341709,,,2017_Oct_04_1820,60.0135703768,MAFE4ImagesEEG,001,101717,
AFNE01.JPG,AFNE01.JPG,AFNE01.JPG,AFNE01.JPG,AFNE01.JPG,AFNE01.JPG,,,,,,,,,,,,,,,,,3,6,36,8,,,,,,,AMSA12.jpg,AMSA11.jpg,AMNE04.jpg,AMNE20.jpg,AMSA11.jpg,MS,2,num_6,16,num_6,1.55010586027,,,2017_Oct_04_1820,60.0135703768,MAFE4ImagesEEG,001,101717,
AFNE01.JPG,AFNE01.JPG,AFNE01.JPG,AFNE01.JPG,AFNE01.JPG,AFNE01.JPG,,,,,,,,,,,,,,,,,3,7,37,5,,,,,,,AMSA19.jpg,AMNE18.jpg,AMSA05.jpg,AMNE06.jpg,AMSA05.jpg,MS,2,num_2,32,num_4,2.76667824539,,,2017_Oct_04_1820,60.0135703768,MAFE4ImagesEEG,001,101717,
AFNE01.JPG,AFNE01.JPG,AFNE01.JPG,AFNE01.JPG,AFNE01.JPG,AFNE01.JPG,,,,,,,,,,,,,,,,,3,8,38,7,,,,,,,AMNE04.jpg,AMNE03.jpg,AMSA02.jpg,AMSA06.jpg,AMSA02.jpg,MS,2,num_2,16,num_2,0.800138174833,,,2017_Oct_04_1820,60.0135703768,MAFE4ImagesEEG,001,101717,
AFNE01.JPG,AFNE01.JPG,AFNE01.JPG,AFNE01.JPG,AFNE01.JPG,AFNE01.JPG,,,,,,,,,,,,,,,,,3,9,39,3,,,,,,,AMSA02.jpg,AMNE08.jpg,AMSA06.jpg,AMNE12.jpg,AMSA02.jpg,MS,2,num_8,16,num_8,0.71677910212,,,2017_Oct_04_1820,60.0135703768,MAFE4ImagesEEG,001,101717,
AFNE01.JPG,AFNE01.JPG,AFNE01.JPG,AFNE01.JPG,AFNE01.JPG,AFNE01.JPG,,,,,,,,,,,,,,,,,4,0,40,6,,,,,,,AMNE14.jpg,AMNE10.jpg,AMSA04.jpg,AMSA05.jpg,AMSA04.jpg,MS,2,num_2,32,num_8,1.48344740456,,,2017_Oct_04_1820,60.0135703768,MAFE4ImagesEEG,001,101717,
AFNE01.JPG,AFNE01.JPG,AFNE01.JPG,AFNE01.JPG,AFNE01.JPG,AFNE01.JPG,,,,,,,,,,,,,,,,,4,1,41,3,,,,,,,AMNE18.jpg,AMSA17.jpg,AMNE01.jpg,AMSA10.jpg,AMSA10.jpg,MS,2,num_4,32,num_8,1.35007917469,,,2017_Oct_04_1820,60.0135703768,MAFE4ImagesEEG,001,101717,
AFNE01.JPG,AFNE01.JPG,AFNE01.JPG,AFNE01.JPG,AFNE01.JPG,AFNE01.JPG,,,,,,,,,,,,,,,,,4,2,42,8,,,,,,,AMSA07.jpg,AMNE08.jpg,AMSA16.jpg,AMNE02.jpg,AMSA07.jpg,MS,2,num_8,32,num_2,1.30009792197,,,2017_Oct_04_1820,60.0135703768,MAFE4ImagesEEG,001,101717,
AFNE01.JPG,AFNE01.JPG,AFNE01.JPG,AFNE01.JPG,AFNE01.JPG,AFNE01.JPG,,,,,,,,,,,,,,,,,4,3,43,1,,,,,,,AMSA10.jpg,AMNE01.jpg,AMSA19.jpg,AMNE06.jpg,AMNE01.jpg,MN,1,num_6,16,num_6,0.800236962794,,,2017_Oct_04_1820,60.0135703768,MAFE4ImagesEEG,001,101717,
AFNE01.JPG,AFNE01.JPG,AFNE01.JPG,AFNE01.JPG,AFNE01.JPG,AFNE01.JPG,,,,,,,,,,,,,,,,,4,4,44,0,,,,,,,AMNE12.jpg,AMNE10.jpg,AMSA13.jpg,AMSA05.jpg,AMSA13.jpg,MS,2,num_2,32,num_4,0.566811929864,,,2017_Oct_04_1820,60.0135703768,MAFE4ImagesEEG,001,101717,
AFNE01.JPG,AFNE01.JPG,AFNE01.JPG,AFNE01.JPG,AFNE01.JPG,AFNE01.JPG,,,,,,,,,,,,,,,,,4,5,45,4,,,,,,,AMNE18.jpg,AMSA14.jpg,AMNE04.jpg,AMSA08.jpg,AMNE18.jpg,MN,1,num_8,32,num_6,2.44987104644,,,2017_Oct_04_1820,60.0135703768,MAFE4ImagesEEG,001,101717,
AFNE01.JPG,AFNE01.JPG,AFNE01.JPG,AFNE01.JPG,AFNE01.JPG,AFNE01.JPG,,,,,,,,,,,,,,,,,4,6,46,7,,,,,,,AMSA02.jpg,AMSA17.jpg,AMNE18.jpg,AMNE09.jpg,AMNE18.jpg,MN,1,num_2,16,num_2,0.666774435347,,,2017_Oct_04_1820,60.0135703768,MAFE4ImagesEEG,001,101717,
AFNE01.JPG,AFNE01.JPG,AFNE01.JPG,AFNE01.JPG,AFNE01.JPG,AFNE01.JPG,,,,,,,,,,,,,,,,,4,7,47,2,,,,,,,AMNE16.jpg,AMSA08.jpg,AMSA11.jpg,AMNE18.jpg,AMSA11.jpg,MS,2,num_2,32,num_8,3.26647152838,,,2017_Oct_04_1820,60.0135703768,MAFE4ImagesEEG,001,101717,
AFNE01.JPG,AFNE01.JPG,AFNE01.JPG,AFNE01.JPG,AFNE01.JPG,AFNE01.JPG,,,,,,,,,,,,,,,,,4,8,48,5,,,,,,,AMSA06.jpg,AMNE10.jpg,AMSA17.jpg,AMNE18.jpg,AMSA06.jpg,MS,2,num_8,16,num_8,1.06672549041,,,2017_Oct_04_1820,60.0135703768,MAFE4ImagesEEG,001,101717,
AFNE01.JPG,AFNE01.JPG,AFNE01.JPG,AFNE01.JPG,AFNE01.JPG,AFNE01.JPG,,,,,,,,,,,,,,,,,4,9,49,9,,,,,,,AMSA15.jpg,AMSA10.jpg,AMNE01.jpg,AMNE07.jpg,AMSA15.jpg,MS,2,num_8,32,num_6,0.866815554225,,,2017_Oct_04_1820,60.0135703768,MAFE4ImagesEEG,001,101717,
AFNE01.JPG,AFNE01.JPG,AFNE01.JPG,AFNE01.JPG,AFNE01.JPG,AFNE01.JPG,,,,,,,,,,,,,,,,,5,0,50,9,,,,,,,AMSA02.jpg,AMNE07.jpg,AMNE13.jpg,AMSA16.jpg,AMSA02.jpg,MS,2,num_8,16,num_8,0.983471299696,,,2017_Oct_04_1820,60.0135703768,MAFE4ImagesEEG,001,101717,
AFNE01.JPG,AFNE01.JPG,AFNE01.JPG,AFNE01.JPG,AFNE01.JPG,AFNE01.JPG,,,,,,,,,,,,,,,,,5,1,51,4,,,,,,,AMNE14.jpg,AMNE05.jpg,AMSA08.jpg,AMSA15.jpg,AMNE05.jpg,MN,1,num_6,16,num_6,1.46674358015,,,2017_Oct_04_1820,60.0135703768,MAFE4ImagesEEG,001,101717,
AFNE01.JPG,AFNE01.JPG,AFNE01.JPG,AFNE01.JPG,AFNE01.JPG,AFNE01.JPG,,,,,,,,,,,,,,,,,5,2,52,0,,,,,,,AMNE11.jpg,AMNE02.jpg,AMSA16.jpg,AMSA02.jpg,AMNE02.jpg,MN,1,num_6,32,num_4,1.7333780445,,,2017_Oct_04_1820,60.0135703768,MAFE4ImagesEEG,001,101717,
AFNE01.JPG,AFNE01.JPG,AFNE01.JPG,AFNE01.JPG,AFNE01.JPG,AFNE01.JPG,,,,,,,,,,,,,,,,,5,3,53,1,,,,,,,AMNE09.jpg,AMNE18.jpg,AMSA16.jpg,AMSA19.jpg,AMNE18.jpg,MN,1,num_6,32,num_2,1.23349302984,,,2017_Oct_04_1820,60.0135703768,MAFE4ImagesEEG,001,101717,
AFNE01.JPG,AFNE01.JPG,AFNE01.JPG,AFNE01.JPG,AFNE01.JPG,AFNE01.JPG,,,,,,,,,,,,,,,,,5,4,54,8,,,,,,,AMNE20.jpg,AMNE18.jpg,AMSA06.jpg,AMSA20.jpg,AMSA20.jpg,MS,2,num_4,32,num_2,1.28346113223,,,2017_Oct_04_1820,60.0135703768,MAFE4ImagesEEG,001,101717,
AFNE01.JPG,AFNE01.JPG,AFNE01.JPG,AFNE01.JPG,AFNE01.JPG,AFNE01.JPG,,,,,,,,,,,,,,,,,5,5,55,7,,,,,,,AMSA10.jpg,AMNE01.jpg,AMNE03.jpg,AMSA15.jpg,AMNE01.jpg,MN,1,num_6,32,num_2,0.916780128478,,,2017_Oct_04_1820,60.0135703768,MAFE4ImagesEEG,001,101717,
AFNE01.JPG,AFNE01.JPG,AFNE01.JPG,AFNE01.JPG,AFNE01.JPG,AFNE01.JPG,,,,,,,,,,,,,,,,,5,6,56,6,,,,,,,AMSA13.jpg,AMSA07.jpg,AMNE13.jpg,AMNE19.jpg,AMSA13.jpg,MS,2,num_8,16,num_8,0.733526226439,,,2017_Oct_04_1820,60.0135703768,MAFE4ImagesEEG,001,101717,
AFNE01.JPG,AFNE01.JPG,AFNE01.JPG,AFNE01.JPG,AFNE01.JPG,AFNE01.JPG,,,,,,,,,,,,,,,,,5,7,57,2,,,,,,,AMNE06.jpg,AMSA16.jpg,AMNE02.jpg,AMSA03.jpg,AMNE06.jpg,MN,1,num_8,32,num_6,1.5167354173,,,2017_Oct_04_1820,60.0135703768,MAFE4ImagesEEG,001,101717,
AFNE01.JPG,AFNE01.JPG,AFNE01.JPG,AFNE01.JPG,AFNE01.JPG,AFNE01.JPG,,,,,,,,,,,,,,,,,5,8,58,3,,,,,,,AMNE09.jpg,AMSA17.jpg,AMNE10.jpg,AMSA04.jpg,AMSA17.jpg,MS,2,num_6,32,num_4,2.40000942975,,,2017_Oct_04_1820,60.0135703768,MAFE4ImagesEEG,001,101717,
AFNE01.JPG,AFNE01.JPG,AFNE01.JPG,AFNE01.JPG,AFNE01.JPG,AFNE01.JPG,,,,,,,,,,,,,,,,,5,9,59,5,,,,,,,AMSA13.jpg,AMSA14.jpg,AMNE18.jpg,AMNE07.jpg,AMNE07.jpg,MN,1,num_4,16,num_4,0.700182725646,,,2017_Oct_04_1820,60.0135703768,MAFE4ImagesEEG,001,101717,
,,,,,,,,,,,,,,,,,,,,,,,,,,,,,,,,,,,,,,,,,,,space,48.8300808682,2017_Oct_04_1820,60.0135703768,MAFE4ImagesEEG,001,101717,
AFNE01.JPG,AFNE01.JPG,AFNE01.JPG,AFNE01.JPG,AFNE01.JPG,AFNE01.JPG,,,,,,,,,,,,,,,,,,,,,0,0,0,4,,,AFNE10.jpg,AFSA18.jpg,AFNE16.jpg,AFSA12.jpg,AFSA12.jpg,FS,4,num_4,32,num_8,0.866808177205,,,2017_Oct_04_1820,60.0135703768,MAFE4ImagesEEG,001,101717,
AFNE01.JPG,AFNE01.JPG,AFNE01.JPG,AFNE01.JPG,AFNE01.JPG,AFNE01.JPG,,,,,,,,,,,,,,,,,,,,,0,1,1,6,,,AFNE17.jpg,AFSA08.jpg,AFSA05.jpg,AFNE05.jpg,AFSA05.jpg,FS,4,num_2,32,num_4,1.26677751444,,,2017_Oct_04_1820,60.0135703768,MAFE4ImagesEEG,001,101717,
AFNE01.JPG,AFNE01.JPG,AFNE01.JPG,AFNE01.JPG,AFNE01.JPG,AFNE01.JPG,,,,,,,,,,,,,,,,,,,,,0,2,2,1,,,AFSA17.jpg,AFSA08.jpg,AFNE12.jpg,AFNE20.jpg,AFSA17.jpg,FS,4,num_8,32,num_4,0.800175059951,,,2017_Oct_04_1820,60.0135703768,MAFE4ImagesEEG,001,101717,
AFNE01.JPG,AFNE01.JPG,AFNE01.JPG,AFNE01.JPG,AFNE01.JPG,AFNE01.JPG,,,,,,,,,,,,,,,,,,,,,0,3,3,0,,,AFNE20.jpg,AFNE11.jpg,AFSA12.jpg,AFSA06.jpg,AFSA06.jpg,FS,4,num_4,16,num_4,0.766776071119,,,2017_Oct_04_1820,60.0135703768,MAFE4ImagesEEG,001,101717,
AFNE01.JPG,AFNE01.JPG,AFNE01.JPG,AFNE01.JPG,AFNE01.JPG,AFNE01.JPG,,,,,,,,,,,,,,,,,,,,,0,4,4,7,,,AFSA12.jpg,AFSA20.jpg,AFNE06.jpg,AFNE07.jpg,AFNE07.jpg,FN,3,num_4,32,num_8,1.03347692869,,,2017_Oct_04_1820,60.0135703768,MAFE4ImagesEEG,001,101717,
AFNE01.JPG,AFNE01.JPG,AFNE01.JPG,AFNE01.JPG,AFNE01.JPG,AFNE01.JPG,,,,,,,,,,,,,,,,,,,,,0,5,5,2,,,AFNE04.jpg,AFNE03.jpg,AFSA07.jpg,AFSA08.jpg,AFNE03.jpg,FN,3,num_6,32,num_4,1.53347003278,,,2017_Oct_04_1820,60.0135703768,MAFE4ImagesEEG,001,101717,
AFNE01.JPG,AFNE01.JPG,AFNE01.JPG,AFNE01.JPG,AFNE01.JPG,AFNE01.JPG,,,,,,,,,,,,,,,,,,,,,0,6,6,9,,,AFNE18.jpg,AFSA11.jpg,AFSA09.jpg,AFNE20.jpg,AFSA11.jpg,FS,4,num_6,16,num_6,0.850134823108,,,2017_Oct_04_1820,60.0135703768,MAFE4ImagesEEG,001,101717,
AFNE01.JPG,AFNE01.JPG,AFNE01.JPG,AFNE01.JPG,AFNE01.JPG,AFNE01.JPG,,,,,,,,,,,,,,,,,,,,,0,7,7,3,,,AFSA08.jpg,AFNE11.jpg,AFNE16.jpg,AFSA13.jpg,AFNE11.jpg,FN,3,num_6,16,num_6,1.03348847532,,,2017_Oct_04_1820,60.0135703768,MAFE4ImagesEEG,001,101717,
AFNE01.JPG,AFNE01.JPG,AFNE01.JPG,AFNE01.JPG,AFNE01.JPG,AFNE01.JPG,,,,,,,,,,,,,,,,,,,,,0,8,8,8,,,AFSA06.jpg,AFNE08.jpg,AFNE13.jpg,AFSA12.jpg,AFSA06.jpg,FS,4,num_8,32,num_2,1.03345447687,,,2017_Oct_04_1820,60.0135703768,MAFE4ImagesEEG,001,101717,
AFNE01.JPG,AFNE01.JPG,AFNE01.JPG,AFNE01.JPG,AFNE01.JPG,AFNE01.JPG,,,,,,,,,,,,,,,,,,,,,0,9,9,5,,,AFSA01.jpg,AFSA06.jpg,AFNE01.jpg,AFNE15.jpg,AFNE15.jpg,FN,3,num_4,32,num_2,1.08345048365,,,2017_Oct_04_1820,60.0135703768,MAFE4ImagesEEG,001,101717,
AFNE01.JPG,AFNE01.JPG,AFNE01.JPG,AFNE01.JPG,AFNE01.JPG,AFNE01.JPG,,,,,,,,,,,,,,,,,,,,,1,0,10,0,,,AFNE01.jpg,AFSA17.jpg,AFNE05.jpg,AFSA19.jpg,AFSA19.jpg,FS,4,num_4,32,num_8,1.23314695126,,,2017_Oct_04_1820,60.0135703768,MAFE4ImagesEEG,001,101717,
AFNE01.JPG,AFNE01.JPG,AFNE01.JPG,AFNE01.JPG,AFNE01.JPG,AFNE01.JPG,,,,,,,,,,,,,,,,,,,,,1,1,11,6,,,AFSA18.jpg,AFSA20.jpg,AFNE07.jpg,AFNE15.jpg,AFNE15.jpg,FN,3,num_4,16,num_4,1.0167708591,,,2017_Oct_04_1820,60.0135703768,MAFE4ImagesEEG,001,101717,
AFNE01.JPG,AFNE01.JPG,AFNE01.JPG,AFNE01.JPG,AFNE01.JPG,AFNE01.JPG,,,,,,,,,,,,,,,,,,,,,1,2,12,4,,,AFNE16.jpg,AFSA03.jpg,AFNE10.jpg,AFSA01.jpg,AFSA03.jpg,FS,4,num_6,32,num_8,1.25008170854,,,2017_Oct_04_1820,60.0135703768,MAFE4ImagesEEG,001,101717,
AFNE01.JPG,AFNE01.JPG,AFNE01.JPG,AFNE01.JPG,AFNE01.JPG,AFNE01.JPG,,,,,,,,,,,,,,,,,,,,,1,3,13,5,,,AFSA03.jpg,AFSA18.jpg,AFNE05.jpg,AFNE01.jpg,AFNE05.jpg,FN,3,num_2,32,num_6,1.1834190832,,,2017_Oct_04_1820,60.0135703768,MAFE4ImagesEEG,001,101717,
AFNE01.JPG,AFNE01.JPG,AFNE01.JPG,AFNE01.JPG,AFNE01.JPG,AFNE01.JPG,,,,,,,,,,,,,,,,,,,,,1,4,14,2,,,AFSA11.jpg,AFNE16.jpg,AFNE20.jpg,AFSA08.jpg,AFSA11.jpg,FS,4,num_8,32,num_6,1.20005362773,,,2017_Oct_04_1820,60.0135703768,MAFE4ImagesEEG,001,101717,
AFNE01.JPG,AFNE01.JPG,AFNE01.JPG,AFNE01.JPG,AFNE01.JPG,AFNE01.JPG,,,,,,,,,,,,,,,,,,,,,1,5,15,1,,,AFSA05.jpg,AFNE19.jpg,AFNE02.jpg,AFSA18.jpg,AFNE02.jpg,FN,3,num_2,32,num_8,0.750088283719,,,2017_Oct_04_1820,60.0135703768,MAFE4ImagesEEG,001,101717,
AFNE01.JPG,AFNE01.JPG,AFNE01.JPG,AFNE01.JPG,AFNE01.JPG,AFNE01.JPG,,,,,,,,,,,,,,,,,,,,,1,6,16,9,,,AFNE17.jpg,AFSA09.jpg,AFSA12.jpg,AFNE09.jpg,AFSA09.jpg,FS,4,num_6,16,num_6,0.816846489615,,,2017_Oct_04_1820,60.0135703768,MAFE4ImagesEEG,001,101717,
AFNE01.JPG,AFNE01.JPG,AFNE01.JPG,AFNE01.JPG,AFNE01.JPG,AFNE01.JPG,,,,,,,,,,,,,,,,,,,,,1,7,17,7,,,AFNE06.jpg,AFSA03.jpg,AFNE19.jpg,AFSA20.jpg,AFSA20.jpg,FS,4,num_4,32,num_8,1.28345247226,,,2017_Oct_04_1820,60.0135703768,MAFE4ImagesEEG,001,101717,
AFNE01.JPG,AFNE01.JPG,AFNE01.JPG,AFNE01.JPG,AFNE01.JPG,AFNE01.JPG,,,,,,,,,,,,,,,,,,,,,1,8,18,8,,,AFNE05.jpg,AFSA14.jpg,AFNE20.jpg,AFSA08.jpg,AFSA14.jpg,FS,4,num_6,32,num_2,1.31671610875,,,2017_Oct_04_1820,60.0135703768,MAFE4ImagesEEG,001,101717,
AFNE01.JPG,AFNE01.JPG,AFNE01.JPG,AFNE01.JPG,AFNE01.JPG,AFNE01.JPG,,,,,,,,,,,,,,,,,,,,,1,9,19,3,,,AFNE11.jpg,AFNE15.jpg,AFSA01.jpg,AFSA09.jpg,AFSA09.jpg,FS,4,num_4,16,num_4,1.40007838888,,,2017_Oct_04_1820,60.0135703768,MAFE4ImagesEEG,001,101717,
AFNE01.JPG,AFNE01.JPG,AFNE01.JPG,AFNE01.JPG,AFNE01.JPG,AFNE01.JPG,,,,,,,,,,,,,,,,,,,,,2,0,20,4,,,AFNE06.jpg,AFSA09.jpg,AFSA18.jpg,AFNE20.jpg,AFSA18.jpg,FS,4,num_2,32,num_6,2.11654059976,,,2017_Oct_04_1820,60.0135703768,MAFE4ImagesEEG,001,101717,
AFNE01.JPG,AFNE01.JPG,AFNE01.JPG,AFNE01.JPG,AFNE01.JPG,AFNE01.JPG,,,,,,,,,,,,,,,,,,,,,2,1,21,8,,,AFNE09.jpg,AFSA16.jpg,AFNE01.jpg,AFSA09.jpg,AFSA09.jpg,FS,4,num_4,16,num_4,1.73341653332,,,2017_Oct_04_1820,60.0135703768,MAFE4ImagesEEG,001,101717,
AFNE01.JPG,AFNE01.JPG,AFNE01.JPG,AFNE01.JPG,AFNE01.JPG,AFNE01.JPG,,,,,,,,,,,,,,,,,,,,,2,2,22,0,,,AFSA12.jpg,AFSA11.jpg,AFNE06.jpg,AFNE07.jpg,AFNE06.jpg,FN,3,num_2,16,num_2,1.4167382719,,,2017_Oct_04_1820,60.0135703768,MAFE4ImagesEEG,001,101717,
AFNE01.JPG,AFNE01.JPG,AFNE01.JPG,AFNE01.JPG,AFNE01.JPG,AFNE01.JPG,,,,,,,,,,,,,,,,,,,,,2,3,23,9,,,AFSA20.jpg,AFSA14.jpg,AFNE10.jpg,AFNE13.jpg,AFNE10.jpg,FN,3,num_2,32,num_4,1.21704579752,,,2017_Oct_04_1820,60.0135703768,MAFE4ImagesEEG,001,101717,
AFNE01.JPG,AFNE01.JPG,AFNE01.JPG,AFNE01.JPG,AFNE01.JPG,AFNE01.JPG,,,,,,,,,,,,,,,,,,,,,2,4,24,2,,,AFNE06.jpg,AFNE07.jpg,AFSA13.jpg,AFSA11.jpg,AFSA13.jpg,FS,4,num_2,16,num_2,1.01675353912,,,2017_Oct_04_1820,60.0135703768,MAFE4ImagesEEG,001,101717,
AFNE01.JPG,AFNE01.JPG,AFNE01.JPG,AFNE01.JPG,AFNE01.JPG,AFNE01.JPG,,,,,,,,,,,,,,,,,,,,,2,5,25,3,,,AFSA19.jpg,AFNE13.jpg,AFNE12.jpg,AFSA18.jpg,AFSA19.jpg,FS,4,num_8,32,num_4,1.20012483206,,,2017_Oct_04_1820,60.0135703768,MAFE4ImagesEEG,001,101717,
AFNE01.JPG,AFNE01.JPG,AFNE01.JPG,AFNE01.JPG,AFNE01.JPG,AFNE01.JPG,,,,,,,,,,,,,,,,,,,,,2,6,26,6,,,AFSA05.jpg,AFNE08.jpg,AFNE15.jpg,AFSA08.jpg,AFNE08.jpg,FN,3,num_6,32,num_4,1.23345454101,,,2017_Oct_04_1820,60.0135703768,MAFE4ImagesEEG,001,101717,
AFNE01.JPG,AFNE01.JPG,AFNE01.JPG,AFNE01.JPG,AFNE01.JPG,AFNE01.JPG,,,,,,,,,,,,,,,,,,,,,2,7,27,1,,,AFSA06.jpg,AFNE06.jpg,AFSA01.jpg,AFNE04.jpg,AFNE06.jpg,FN,3,num_6,16,num_6,0.816767908284,,,2017_Oct_04_1820,60.0135703768,MAFE4ImagesEEG,001,101717,
AFNE01.JPG,AFNE01.JPG,AFNE01.JPG,AFNE01.JPG,AFNE01.JPG,AFNE01.JPG,,,,,,,,,,,,,,,,,,,,,2,8,28,7,,,AFNE09.jpg,AFSA08.jpg,AFNE20.jpg,AFSA03.jpg,AFNE09.jpg,FN,3,num_8,32,num_2,1.30012197746,,,2017_Oct_04_1820,60.0135703768,MAFE4ImagesEEG,001,101717,
AFNE01.JPG,AFNE01.JPG,AFNE01.JPG,AFNE01.JPG,AFNE01.JPG,AFNE01.JPG,,,,,,,,,,,,,,,,,,,,,2,9,29,5,,,AFNE06.jpg,AFSA09.jpg,AFSA13.jpg,AFNE20.jpg,AFSA13.jpg,FS,4,num_2,32,num_6,1.35006826953,,,2017_Oct_04_1820,60.0135703768,MAFE4ImagesEEG,001,101717,
AFNE01.JPG,AFNE01.JPG,AFNE01.JPG,AFNE01.JPG,AFNE01.JPG,AFNE01.JPG,,,,,,,,,,,,,,,,,,,,,3,0,30,2,,,AFNE12.jpg,AFSA15.jpg,AFSA05.jpg,AFNE16.jpg,AFNE16.jpg,FN,3,num_4,32,num_2,0.950146081086,,,2017_Oct_04_1820,60.0135703768,MAFE4ImagesEEG,001,101717,
AFNE01.JPG,AFNE01.JPG,AFNE01.JPG,AFNE01.JPG,AFNE01.JPG,AFNE01.JPG,,,,,,,,,,,,,,,,,,,,,3,1,31,0,,,AFNE10.jpg,AFSA05.jpg,AFNE09.jpg,AFSA11.jpg,AFSA05.jpg,FS,4,num_6,16,num_6,1.03349617308,,,2017_Oct_04_1820,60.0135703768,MAFE4ImagesEEG,001,101717,
AFNE01.JPG,AFNE01.JPG,AFNE01.JPG,AFNE01.JPG,AFNE01.JPG,AFNE01.JPG,,,,,,,,,,,,,,,,,,,,,3,2,32,1,,,AFNE19.jpg,AFSA02.jpg,AFSA16.jpg,AFNE04.jpg,AFNE04.jpg,FN,3,num_4,32,num_8,1.03350162566,,,2017_Oct_04_1820,60.0135703768,MAFE4ImagesEEG,001,101717,
AFNE01.JPG,AFNE01.JPG,AFNE01.JPG,AFNE01.JPG,AFNE01.JPG,AFNE01.JPG,,,,,,,,,,,,,,,,,,,,,3,3,33,7,,,AFSA05.jpg,AFNE20.jpg,AFNE02.jpg,AFSA15.jpg,AFSA15.jpg,FS,4,num_4,16,num_4,0.850081900993,,,2017_Oct_04_1820,60.0135703768,MAFE4ImagesEEG,001,101717,
AFNE01.JPG,AFNE01.JPG,AFNE01.JPG,AFNE01.JPG,AFNE01.JPG,AFNE01.JPG,,,,,,,,,,,,,,,,,,,,,3,4,34,6,,,AFSA06.jpg,AFSA10.jpg,AFNE04.jpg,AFNE02.jpg,AFNE04.jpg,FN,3,num_2,32,num_6,0.766786014065,,,2017_Oct_04_1820,60.0135703768,MAFE4ImagesEEG,001,101717,
AFNE01.JPG,AFNE01.JPG,AFNE01.JPG,AFNE01.JPG,AFNE01.JPG,AFNE01.JPG,,,,,,,,,,,,,,,,,,,,,3,5,35,8,,,AFSA05.jpg,AFSA08.jpg,AFNE05.jpg,AFNE01.jpg,AFNE01.jpg,FN,3,num_4,16,num_4,0.666781491629,,,2017_Oct_04_1820,60.0135703768,MAFE4ImagesEEG,001,101717,
AFNE01.JPG,AFNE01.JPG,AFNE01.JPG,AFNE01.JPG,AFNE01.JPG,AFNE01.JPG,,,,,,,,,,,,,,,,,,,,,3,6,36,9,,,AFSA12.jpg,AFNE12.jpg,AFSA05.jpg,AFNE08.jpg,AFNE12.jpg,FN,3,num_6,16,num_6,1.61661453036,,,2017_Oct_04_1820,60.0135703768,MAFE4ImagesEEG,001,101717,
AFNE01.JPG,AFNE01.JPG,AFNE01.JPG,AFNE01.JPG,AFNE01.JPG,AFNE01.JPG,,,,,,,,,,,,,,,,,,,,,3,7,37,3,,,AFSA07.jpg,AFNE09.jpg,AFNE05.jpg,AFSA12.jpg,AFNE09.jpg,FN,3,num_6,32,num_8,1.18346559051,,,2017_Oct_04_1820,60.0135703768,MAFE4ImagesEEG,001,101717,
AFNE01.JPG,AFNE01.JPG,AFNE01.JPG,AFNE01.JPG,AFNE01.JPG,AFNE01.JPG,,,,,,,,,,,,,,,,,,,,,3,8,38,5,,,AFNE11.jpg,AFNE01.jpg,AFSA14.jpg,AFSA07.jpg,AFNE11.jpg,FN,3,num_8,32,num_6,0.783547250961,,,2017_Oct_04_1820,60.0135703768,MAFE4ImagesEEG,001,101717,
AFNE01.JPG,AFNE01.JPG,AFNE01.JPG,AFNE01.JPG,AFNE01.JPG,AFNE01.JPG,,,,,,,,,,,,,,,,,,,,,3,9,39,4,,,AFNE06.jpg,AFSA13.jpg,AFNE11.jpg,AFSA10.jpg,AFSA10.jpg,FS,4,num_4,32,num_2,0.983467771555,,,2017_Oct_04_1820,60.0135703768,MAFE4ImagesEEG,001,101717,
