IPosition2,IPosition3,IPosition1,IPosition6,IPosition4,IPosition5,TrialsF1.thisRepN,TrialsF1.thisTrialN,TrialsF1.thisN,TrialsF1.thisIndex,TrialsM1.thisRepN,TrialsM1.thisTrialN,TrialsM1.thisN,TrialsM1.thisIndex,TrialsF2.thisRepN,TrialsF2.thisTrialN,TrialsF2.thisN,TrialsF2.thisIndex,TrialsM2.thisRepN,TrialsM2.thisTrialN,TrialsM2.thisN,TrialsM2.thisIndex,TrialsF3.thisRepN,TrialsF3.thisTrialN,TrialsF3.thisN,TrialsF3.thisIndex,TrialsM3.thisRepN,TrialsM3.thisTrialN,TrialsM3.thisN,TrialsM3.thisIndex,InstrKey_resp.keys,InstrKey_resp.rt,Image0 _Position,Image1 _Position,Image2 _Position,Image3 _Position,Center_image,condition,code,correct_answer,accuracy,Key_Resp.keys,Key_Resp.rt,BreakKey_resp.keys,BreakKey_resp.rt,date,frameRate,expName,session,participant,
,,,,,,,,,,,,,,,,,,,,,,,,,,,,,,space,15.4660152229,,,,,,,,,,,,,,2017_Sep_18_1445,60.0075255179,FEMA4ImagesEEG,001,101723,
AMSA21.JPG,AMNE23.JPG,AMNE21.JPG,AMSA25.JPG,AMNE25.JPG,AMSA23.JPG,0,0,0,5,,,,,,,,,,,,,,,,,,,,,,,AFNE17.jpg,AFNE18.jpg,AFSA17.jpg,AFSA06.jpg,AFNE17.jpg,FN,3,num_8,32,num_6,2.13367693103,,,2017_Sep_18_1445,60.0075255179,FEMA4ImagesEEG,001,101723,
AMNE22.JPG,AMSA24.JPG,AMSA22.JPG,AMNE25.JPG,AMNE24.JPG,AMSA25.JPG,0,1,1,7,,,,,,,,,,,,,,,,,,,,,,,AFNE06.jpg,AFSA06.jpg,AFNE17.jpg,AFSA14.jpg,AFNE06.jpg,FN,3,num_8,32,num_4,2.23351806868,,,2017_Sep_18_1445,60.0075255179,FEMA4ImagesEEG,001,101723,
AMSA21.JPG,AMNE22.JPG,AMNE21.JPG,AMSA23.JPG,AMSA22.JPG,AMNE23.JPG,0,2,2,1,,,,,,,,,,,,,,,,,,,,,,,AFSA04.jpg,AFNE20.jpg,AFNE10.jpg,AFSA12.jpg,AFSA04.jpg,FS,4,num_8,16,num_8,1.66666228324,,,2017_Sep_18_1445,60.0075255179,FEMA4ImagesEEG,001,101723,
AMNE23.JPG,AMNE24.JPG,AMNE22.JPG,AMSA24.JPG,AMSA22.JPG,AMSA23.JPG,0,3,3,9,,,,,,,,,,,,,,,,,,,,,,,AFNE03.jpg,AFNE11.jpg,AFSA01.jpg,AFSA07.jpg,AFNE03.jpg,FN,3,num_8,32,num_6,1.26681534015,,,2017_Sep_18_1445,60.0075255179,FEMA4ImagesEEG,001,101723,
AFNE22.JPG,AFSA24.JPG,AFSA22.JPG,AFNE25.JPG,AFNE24.JPG,AFSA25.JPG,0,4,4,6,,,,,,,,,,,,,,,,,,,,,,,AFNE09.jpg,AFSA20.jpg,AFSA10.jpg,AFNE10.jpg,AFSA20.jpg,FS,4,num_6,32,num_2,1.13347807224,,,2017_Sep_18_1445,60.0075255179,FEMA4ImagesEEG,001,101723,
AFSA25.JPG,AFNE24.JPG,AFSA24.JPG,AFNE21.JPG,AFSA21.JPG,AFNE25.JPG,0,5,5,2,,,,,,,,,,,,,,,,,,,,,,,AFNE05.jpg,AFNE06.jpg,AFSA19.jpg,AFSA08.jpg,AFSA08.jpg,FS,4,num_4,16,num_4,1.94972854201,,,2017_Sep_18_1445,60.0075255179,FEMA4ImagesEEG,001,101723,
AFNE23.JPG,AFNE24.JPG,AFNE22.JPG,AFSA24.JPG,AFSA22.JPG,AFSA23.JPG,0,6,6,8,,,,,,,,,,,,,,,,,,,,,,,AFNE12.jpg,AFSA13.jpg,AFSA15.jpg,AFNE05.jpg,AFSA15.jpg,FS,4,num_2,32,num_8,1.55005672295,,,2017_Sep_18_1445,60.0075255179,FEMA4ImagesEEG,001,101723,
AFSA21.JPG,AFNE22.JPG,AFNE21.JPG,AFSA23.JPG,AFSA22.JPG,AFNE23.JPG,0,7,7,0,,,,,,,,,,,,,,,,,,,,,,,AFNE10.jpg,AFSA06.jpg,AFNE08.jpg,AFSA03.jpg,AFNE10.jpg,FN,3,num_8,16,num_8,0.766775408061,,,2017_Sep_18_1445,60.0075255179,FEMA4ImagesEEG,001,101723,
AMSA25.JPG,AMNE24.JPG,AMSA24.JPG,AMNE26.JPG,AMSA21.JPG,AMNE25.JPG,0,8,8,3,,,,,,,,,,,,,,,,,,,,,,,AFNE13.jpg,AFSA07.jpg,AFSA10.jpg,AFNE03.jpg,AFSA07.jpg,FS,4,num_6,32,num_8,1.21698329551,,,2017_Sep_18_1445,60.0075255179,FEMA4ImagesEEG,001,101723,
AFSA21.JPG,AFNE23.JPG,AFNE21.JPG,AFSA25.JPG,AFNE25.JPG,AFSA23.JPG,0,9,9,4,,,,,,,,,,,,,,,,,,,,,,,AFSA03.jpg,AFSA08.jpg,AFNE01.jpg,AFNE20.jpg,AFSA03.jpg,FS,4,num_8,32,num_2,1.76683859387,,,2017_Sep_18_1445,60.0075255179,FEMA4ImagesEEG,001,101723,
AFNE23.JPG,AFNE24.JPG,AFNE22.JPG,AFSA24.JPG,AFSA22.JPG,AFSA23.JPG,,,,,0,0,0,8,,,,,,,,,,,,,,,,,,,AMSA07.jpg,AMNE05.jpg,AMSA18.jpg,AMNE07.jpg,AMNE05.jpg,MN,1,num_6,32,num_4,2.21667378163,,,2017_Sep_18_1445,60.0075255179,FEMA4ImagesEEG,001,101723,
AMNE23.JPG,AMNE24.JPG,AMNE22.JPG,AMSA24.JPG,AMSA22.JPG,AMSA23.JPG,,,,,0,1,1,9,,,,,,,,,,,,,,,,,,,AMNE02.jpg,AMSA20.jpg,AMNE04.jpg,AMSA11.jpg,AMSA20.jpg,MS,2,num_6,16,num_6,1.18342430028,,,2017_Sep_18_1445,60.0075255179,FEMA4ImagesEEG,001,101723,
AMSA21.JPG,AMNE23.JPG,AMNE21.JPG,AMSA25.JPG,AMNE25.JPG,AMSA23.JPG,,,,,0,2,2,5,,,,,,,,,,,,,,,,,,,AMSA19.jpg,AMNE10.jpg,AMNE04.jpg,AMSA03.jpg,AMSA03.jpg,MS,2,num_4,32,num_2,1.01678013895,,,2017_Sep_18_1445,60.0075255179,FEMA4ImagesEEG,001,101723,
AFSA21.JPG,AFNE23.JPG,AFNE21.JPG,AFSA25.JPG,AFNE25.JPG,AFSA23.JPG,,,,,0,3,3,4,,,,,,,,,,,,,,,,,,,AMNE05.jpg,AMNE16.jpg,AMSA16.jpg,AMSA13.jpg,AMSA13.jpg,MS,2,num_4,32,num_8,1.75006903918,,,2017_Sep_18_1445,60.0075255179,FEMA4ImagesEEG,001,101723,
AFNE22.JPG,AFSA24.JPG,AFSA22.JPG,AFNE25.JPG,AFNE24.JPG,AFSA25.JPG,,,,,0,4,4,6,,,,,,,,,,,,,,,,,,,AMSA16.jpg,AMNE10.jpg,AMSA10.jpg,AMNE09.jpg,AMNE09.jpg,MN,1,num_4,32,num_6,1.30023256852,,,2017_Sep_18_1445,60.0075255179,FEMA4ImagesEEG,001,101723,
AMSA25.JPG,AMNE24.JPG,AMSA24.JPG,AMNE26.JPG,AMSA21.JPG,AMNE25.JPG,,,,,0,5,5,3,,,,,,,,,,,,,,,,,,,AMSA02.jpg,AMSA05.jpg,AMNE11.jpg,AMNE15.jpg,AMNE15.jpg,MN,1,num_4,16,num_4,1.13342547114,,,2017_Sep_18_1445,60.0075255179,FEMA4ImagesEEG,001,101723,
AFSA25.JPG,AFNE24.JPG,AFSA24.JPG,AFNE21.JPG,AFSA21.JPG,AFNE25.JPG,,,,,0,6,6,2,,,,,,,,,,,,,,,,,,,AMNE10.jpg,AMNE02.jpg,AMSA03.jpg,AMSA02.jpg,AMSA03.jpg,MS,2,num_2,16,num_2,0.766796577023,,,2017_Sep_18_1445,60.0075255179,FEMA4ImagesEEG,001,101723,
AFSA21.JPG,AFNE22.JPG,AFNE21.JPG,AFSA23.JPG,AFSA22.JPG,AFNE23.JPG,,,,,0,7,7,0,,,,,,,,,,,,,,,,,,,AMNE16.jpg,AMSA12.jpg,AMNE15.jpg,AMSA11.jpg,AMNE16.jpg,MN,1,num_8,16,num_8,1.18343167752,,,2017_Sep_18_1445,60.0075255179,FEMA4ImagesEEG,001,101723,
AMNE22.JPG,AMSA24.JPG,AMSA22.JPG,AMNE25.JPG,AMNE24.JPG,AMSA25.JPG,,,,,0,8,8,7,,,,,,,,,,,,,,,,,,,AMNE01.jpg,AMNE15.jpg,AMSA17.jpg,AMSA12.jpg,AMNE01.jpg,MN,1,num_8,16,num_8,1.75006166217,,,2017_Sep_18_1445,60.0075255179,FEMA4ImagesEEG,001,101723,
AMSA21.JPG,AMNE22.JPG,AMNE21.JPG,AMSA23.JPG,AMSA22.JPG,AMNE23.JPG,,,,,0,9,9,1,,,,,,,,,,,,,,,,,,,AMNE11.jpg,AMSA01.jpg,AMSA04.jpg,AMNE18.jpg,AMSA01.jpg,MS,2,num_6,32,num_4,1.16675385437,,,2017_Sep_18_1445,60.0075255179,FEMA4ImagesEEG,001,101723,
AMNE22.JPG,AMSA24.JPG,AMSA22.JPG,AMNE25.JPG,AMNE24.JPG,AMSA25.JPG,,,,,,,,,0,0,0,7,,,,,,,,,,,,,,,AFNE16.jpg,AFSA11.jpg,AFNE02.jpg,AFSA18.jpg,AFSA11.jpg,FS,4,num_6,16,num_6,1.45016138023,,,2017_Sep_18_1445,60.0075255179,FEMA4ImagesEEG,001,101723,
AMNE23.JPG,AMNE24.JPG,AMNE22.JPG,AMSA24.JPG,AMSA22.JPG,AMSA23.JPG,,,,,,,,,0,1,1,9,,,,,,,,,,,,,,,AFSA09.jpg,AFSA07.jpg,AFNE18.jpg,AFNE15.jpg,AFSA09.jpg,FS,4,num_8,32,num_4,1.20016723359,,,2017_Sep_18_1445,60.0075255179,FEMA4ImagesEEG,001,101723,
AFNE22.JPG,AFSA24.JPG,AFSA22.JPG,AFNE25.JPG,AFNE24.JPG,AFSA25.JPG,,,,,,,,,0,2,2,6,,,,,,,,,,,,,,,AFNE05.jpg,AFSA16.jpg,AFNE02.jpg,AFSA09.jpg,AFSA16.jpg,FS,4,num_6,32,num_8,1.11673096963,,,2017_Sep_18_1445,60.0075255179,FEMA4ImagesEEG,001,101723,
AFSA25.JPG,AFNE24.JPG,AFSA24.JPG,AFNE21.JPG,AFSA21.JPG,AFNE25.JPG,,,,,,,,,0,3,3,2,,,,,,,,,,,,,,,AFSA01.jpg,AFNE15.jpg,AFNE01.jpg,AFSA17.jpg,AFSA17.jpg,FS,4,num_4,16,num_4,0.666836124146,,,2017_Sep_18_1445,60.0075255179,FEMA4ImagesEEG,001,101723,
AMSA25.JPG,AMNE24.JPG,AMSA24.JPG,AMNE26.JPG,AMSA21.JPG,AMNE25.JPG,,,,,,,,,0,4,4,3,,,,,,,,,,,,,,,AFNE14.jpg,AFSA05.jpg,AFSA01.jpg,AFNE06.jpg,AFSA05.jpg,FS,4,num_6,32,num_2,1.80003419076,,,2017_Sep_18_1445,60.0075255179,FEMA4ImagesEEG,001,101723,
AMSA21.JPG,AMNE22.JPG,AMNE21.JPG,AMSA23.JPG,AMSA22.JPG,AMNE23.JPG,,,,,,,,,0,5,5,1,,,,,,,,,,,,,,,AFSA07.jpg,AFNE08.jpg,AFNE12.jpg,AFSA03.jpg,AFNE08.jpg,FN,3,num_6,16,num_6,1.10010221973,,,2017_Sep_18_1445,60.0075255179,FEMA4ImagesEEG,001,101723,
AFSA21.JPG,AFNE23.JPG,AFNE21.JPG,AFSA25.JPG,AFNE25.JPG,AFSA23.JPG,,,,,,,,,0,6,6,4,,,,,,,,,,,,,,,AFNE19.jpg,AFSA09.jpg,AFSA14.jpg,AFNE13.jpg,AFNE13.jpg,FN,3,num_4,32,num_8,0.850129883504,,,2017_Sep_18_1445,60.0075255179,FEMA4ImagesEEG,001,101723,
AMSA21.JPG,AMNE23.JPG,AMNE21.JPG,AMSA25.JPG,AMNE25.JPG,AMSA23.JPG,,,,,,,,,0,7,7,5,,,,,,,,,,,,,,,AFNE12.jpg,AFNE04.jpg,AFSA14.jpg,AFSA15.jpg,AFSA14.jpg,FS,4,num_2,32,num_6,1.53344817949,,,2017_Sep_18_1445,60.0075255179,FEMA4ImagesEEG,001,101723,
AFNE23.JPG,AFNE24.JPG,AFNE22.JPG,AFSA24.JPG,AFSA22.JPG,AFSA23.JPG,,,,,,,,,0,8,8,8,,,,,,,,,,,,,,,AFSA08.jpg,AFNE15.jpg,AFNE10.jpg,AFSA12.jpg,AFNE10.jpg,FN,3,num_2,32,num_4,1.23344237427,,,2017_Sep_18_1445,60.0075255179,FEMA4ImagesEEG,001,101723,
AFSA21.JPG,AFNE22.JPG,AFNE21.JPG,AFSA23.JPG,AFSA22.JPG,AFNE23.JPG,,,,,,,,,0,9,9,0,,,,,,,,,,,,,,,AFNE03.jpg,AFNE17.jpg,AFSA04.jpg,AFSA03.jpg,AFSA04.jpg,FS,4,num_2,16,num_2,1.06679115654,,,2017_Sep_18_1445,60.0075255179,FEMA4ImagesEEG,001,101723,
AMSA25.JPG,AMNE24.JPG,AMSA24.JPG,AMNE26.JPG,AMSA21.JPG,AMNE25.JPG,,,,,,,,,,,,,0,0,0,3,,,,,,,,,,,AMNE05.jpg,AMSA01.jpg,AMSA11.jpg,AMNE18.jpg,AMSA01.jpg,MS,2,num_6,16,num_6,0.633527626982,,,2017_Sep_18_1445,60.0075255179,FEMA4ImagesEEG,001,101723,
AMSA21.JPG,AMNE23.JPG,AMNE21.JPG,AMSA25.JPG,AMNE25.JPG,AMSA23.JPG,,,,,,,,,,,,,0,1,1,5,,,,,,,,,,,AMNE05.jpg,AMNE14.jpg,AMSA07.jpg,AMSA16.jpg,AMSA16.jpg,MS,2,num_4,32,num_2,1.03355322173,,,2017_Sep_18_1445,60.0075255179,FEMA4ImagesEEG,001,101723,
AFNE23.JPG,AFNE24.JPG,AFNE22.JPG,AFSA24.JPG,AFSA22.JPG,AFSA23.JPG,,,,,,,,,,,,,0,2,2,8,,,,,,,,,,,AMSA05.jpg,AMSA09.jpg,AMNE06.jpg,AMNE13.jpg,AMSA05.jpg,MS,2,num_8,32,num_2,0.850081772543,,,2017_Sep_18_1445,60.0075255179,FEMA4ImagesEEG,001,101723,
AFSA25.JPG,AFNE24.JPG,AFSA24.JPG,AFNE21.JPG,AFSA21.JPG,AFNE25.JPG,,,,,,,,,,,,,0,3,3,2,,,,,,,,,,,AMNE07.jpg,AMSA06.jpg,AMSA20.jpg,AMNE12.jpg,AMNE07.jpg,MN,1,num_8,32,num_2,1.45007285592,,,2017_Sep_18_1445,60.0075255179,FEMA4ImagesEEG,001,101723,
AMNE22.JPG,AMSA24.JPG,AMSA22.JPG,AMNE25.JPG,AMNE24.JPG,AMSA25.JPG,,,,,,,,,,,,,0,4,4,7,,,,,,,,,,,AMNE16.jpg,AMSA11.jpg,AMNE09.jpg,AMSA01.jpg,AMNE09.jpg,MN,1,num_2,16,num_2,0.916756179649,,,2017_Sep_18_1445,60.0075255179,FEMA4ImagesEEG,001,101723,
AFNE22.JPG,AFSA24.JPG,AFSA22.JPG,AFNE25.JPG,AFNE24.JPG,AFSA25.JPG,,,,,,,,,,,,,0,5,5,6,,,,,,,,,,,AMNE20.jpg,AMSA19.jpg,AMSA06.jpg,AMNE19.jpg,AMSA19.jpg,MS,2,num_6,16,num_6,1.10012819967,,,2017_Sep_18_1445,60.0075255179,FEMA4ImagesEEG,001,101723,
AFSA21.JPG,AFNE23.JPG,AFNE21.JPG,AFSA25.JPG,AFNE25.JPG,AFSA23.JPG,,,,,,,,,,,,,0,6,6,4,,,,,,,,,,,AMSA17.jpg,AMNE03.jpg,AMSA10.jpg,AMNE16.jpg,AMNE03.jpg,MN,1,num_6,16,num_6,0.91677799006,,,2017_Sep_18_1445,60.0075255179,FEMA4ImagesEEG,001,101723,
AMNE23.JPG,AMNE24.JPG,AMNE22.JPG,AMSA24.JPG,AMSA22.JPG,AMSA23.JPG,,,,,,,,,,,,,0,7,7,9,,,,,,,,,,,AMSA02.jpg,AMNE01.jpg,AMNE10.jpg,AMSA15.jpg,AMNE01.jpg,MN,1,num_6,16,num_6,0.850120902993,,,2017_Sep_18_1445,60.0075255179,FEMA4ImagesEEG,001,101723,
AFSA21.JPG,AFNE22.JPG,AFNE21.JPG,AFSA23.JPG,AFSA22.JPG,AFNE23.JPG,,,,,,,,,,,,,0,8,8,0,,,,,,,,,,,AMSA07.jpg,AMSA13.jpg,AMNE16.jpg,AMNE01.jpg,AMNE01.jpg,MN,1,num_4,16,num_4,0.58355477755,,,2017_Sep_18_1445,60.0075255179,FEMA4ImagesEEG,001,101723,
AMSA21.JPG,AMNE22.JPG,AMNE21.JPG,AMSA23.JPG,AMSA22.JPG,AMNE23.JPG,,,,,,,,,,,,,0,9,9,1,,,,,,,,,,,AMSA13.jpg,AMSA08.jpg,AMNE17.jpg,AMNE15.jpg,AMNE15.jpg,MN,1,num_4,16,num_4,0.650195506867,,,2017_Sep_18_1445,60.0075255179,FEMA4ImagesEEG,001,101723,
AMSA21.JPG,AMNE22.JPG,AMNE21.JPG,AMSA23.JPG,AMSA22.JPG,AMNE23.JPG,,,,,,,,,,,,,,,,,0,0,0,1,,,,,,,AFNE16.jpg,AFSA02.jpg,AFNE05.jpg,AFSA09.jpg,AFNE05.jpg,FN,3,num_2,32,num_4,0.833488624776,,,2017_Sep_18_1445,60.0075255179,FEMA4ImagesEEG,001,101723,
AMNE23.JPG,AMNE24.JPG,AMNE22.JPG,AMSA24.JPG,AMSA22.JPG,AMSA23.JPG,,,,,,,,,,,,,,,,,0,1,1,9,,,,,,,AFSA06.jpg,AFNE14.jpg,AFNE13.jpg,AFSA04.jpg,AFSA04.jpg,FS,4,num_4,16,num_4,0.833440834656,,,2017_Sep_18_1445,60.0075255179,FEMA4ImagesEEG,001,101723,
AFSA25.JPG,AFNE24.JPG,AFSA24.JPG,AFNE21.JPG,AFSA21.JPG,AFNE25.JPG,,,,,,,,,,,,,,,,,0,2,2,2,,,,,,,AFSA14.jpg,AFSA10.jpg,AFNE18.jpg,AFNE17.jpg,AFNE17.jpg,FN,3,num_4,16,num_4,0.983253538609,,,2017_Sep_18_1445,60.0075255179,FEMA4ImagesEEG,001,101723,
AFNE22.JPG,AFSA24.JPG,AFSA22.JPG,AFNE25.JPG,AFNE24.JPG,AFSA25.JPG,,,,,,,,,,,,,,,,,0,3,3,6,,,,,,,AFNE11.jpg,AFSA15.jpg,AFNE01.jpg,AFSA18.jpg,AFSA18.jpg,FS,4,num_4,16,num_4,0.583501213929,,,2017_Sep_18_1445,60.0075255179,FEMA4ImagesEEG,001,101723,
AMSA25.JPG,AMNE24.JPG,AMSA24.JPG,AMNE26.JPG,AMSA21.JPG,AMNE25.JPG,,,,,,,,,,,,,,,,,0,4,4,3,,,,,,,AFSA17.jpg,AFNE13.jpg,AFSA03.jpg,AFNE15.jpg,AFNE15.jpg,FN,3,num_4,16,num_4,1.0834622439,,,2017_Sep_18_1445,60.0075255179,FEMA4ImagesEEG,001,101723,
AFNE23.JPG,AFNE24.JPG,AFNE22.JPG,AFSA24.JPG,AFSA22.JPG,AFSA23.JPG,,,,,,,,,,,,,,,,,0,5,5,8,,,,,,,AFNE18.jpg,AFSA08.jpg,AFSA10.jpg,AFNE14.jpg,AFSA10.jpg,FS,4,num_2,16,num_2,0.850154259708,,,2017_Sep_18_1445,60.0075255179,FEMA4ImagesEEG,001,101723,
AFSA21.JPG,AFNE23.JPG,AFNE21.JPG,AFSA25.JPG,AFNE25.JPG,AFSA23.JPG,,,,,,,,,,,,,,,,,0,6,6,4,,,,,,,AFSA02.jpg,AFNE12.jpg,AFNE08.jpg,AFSA05.jpg,AFSA05.jpg,FS,4,num_4,16,num_4,0.550243713893,,,2017_Sep_18_1445,60.0075255179,FEMA4ImagesEEG,001,101723,
AMNE22.JPG,AMSA24.JPG,AMSA22.JPG,AMNE25.JPG,AMNE24.JPG,AMSA25.JPG,,,,,,,,,,,,,,,,,0,7,7,7,,,,,,,AFNE13.jpg,AFSA17.jpg,AFNE06.jpg,AFSA18.jpg,AFNE06.jpg,FN,3,num_2,16,num_2,0.916751047829,,,2017_Sep_18_1445,60.0075255179,FEMA4ImagesEEG,001,101723,
AFSA21.JPG,AFNE22.JPG,AFNE21.JPG,AFSA23.JPG,AFSA22.JPG,AFNE23.JPG,,,,,,,,,,,,,,,,,0,8,8,0,,,,,,,AFNE06.jpg,AFNE13.jpg,AFSA19.jpg,AFSA03.jpg,AFNE06.jpg,FN,3,num_8,16,num_8,0.816765256692,,,2017_Sep_18_1445,60.0075255179,FEMA4ImagesEEG,001,101723,
AMSA21.JPG,AMNE23.JPG,AMNE21.JPG,AMSA25.JPG,AMNE25.JPG,AMSA23.JPG,,,,,,,,,,,,,,,,,0,9,9,5,,,,,,,AFNE10.jpg,AFNE17.jpg,AFSA13.jpg,AFSA20.jpg,AFSA13.jpg,FS,4,num_2,32,num_6,0.933330403874,,,2017_Sep_18_1445,60.0075255179,FEMA4ImagesEEG,001,101723,
AFSA25.JPG,AFNE24.JPG,AFSA24.JPG,AFNE21.JPG,AFSA21.JPG,AFNE25.JPG,,,,,,,,,,,,,,,,,,,,,0,0,0,2,,,AMNE12.jpg,AMSA02.jpg,AMSA06.jpg,AMNE02.jpg,AMNE12.jpg,MN,1,num_8,32,num_4,3.31657265266,,,2017_Sep_18_1445,60.0075255179,FEMA4ImagesEEG,001,101723,
AMSA21.JPG,AMNE22.JPG,AMNE21.JPG,AMSA23.JPG,AMSA22.JPG,AMNE23.JPG,,,,,,,,,,,,,,,,,,,,,0,1,1,1,,,AMNE18.jpg,AMSA10.jpg,AMSA03.jpg,AMNE04.jpg,AMNE18.jpg,MN,1,num_8,16,num_8,0.733437723247,,,2017_Sep_18_1445,60.0075255179,FEMA4ImagesEEG,001,101723,
AFSA21.JPG,AFNE23.JPG,AFNE21.JPG,AFSA25.JPG,AFNE25.JPG,AFSA23.JPG,,,,,,,,,,,,,,,,,,,,,0,2,2,4,,,AMNE04.jpg,AMSA08.jpg,AMNE18.jpg,AMSA02.jpg,AMSA08.jpg,MS,2,num_6,32,num_4,1.03344609472,,,2017_Sep_18_1445,60.0075255179,FEMA4ImagesEEG,001,101723,
AFNE23.JPG,AFNE24.JPG,AFNE22.JPG,AFSA24.JPG,AFSA22.JPG,AFSA23.JPG,,,,,,,,,,,,,,,,,,,,,0,3,3,8,,,AMSA13.jpg,AMNE09.jpg,AMSA02.jpg,AMNE13.jpg,AMNE09.jpg,MN,1,num_6,16,num_6,0.816799575929,,,2017_Sep_18_1445,60.0075255179,FEMA4ImagesEEG,001,101723,
AFSA21.JPG,AFNE22.JPG,AFNE21.JPG,AFSA23.JPG,AFSA22.JPG,AFNE23.JPG,,,,,,,,,,,,,,,,,,,,,0,4,4,0,,,AMNE16.jpg,AMNE02.jpg,AMSA03.jpg,AMSA06.jpg,AMNE16.jpg,MN,1,num_8,32,num_4,0.900110109942,,,2017_Sep_18_1445,60.0075255179,FEMA4ImagesEEG,001,101723,
AMSA25.JPG,AMNE24.JPG,AMSA24.JPG,AMNE26.JPG,AMSA21.JPG,AMNE25.JPG,,,,,,,,,,,,,,,,,,,,,0,5,5,3,,,AMNE04.jpg,AMSA02.jpg,AMSA14.jpg,AMNE02.jpg,AMSA02.jpg,MS,2,num_6,32,num_2,1.10007591895,,,2017_Sep_18_1445,60.0075255179,FEMA4ImagesEEG,001,101723,
AFNE22.JPG,AFSA24.JPG,AFSA22.JPG,AFNE25.JPG,AFNE24.JPG,AFSA25.JPG,,,,,,,,,,,,,,,,,,,,,0,6,6,6,,,AMNE11.jpg,AMNE13.jpg,AMSA07.jpg,AMSA20.jpg,AMNE13.jpg,MN,1,num_6,16,num_6,1.01679489296,,,2017_Sep_18_1445,60.0075255179,FEMA4ImagesEEG,001,101723,
AMSA21.JPG,AMNE23.JPG,AMNE21.JPG,AMSA25.JPG,AMNE25.JPG,AMSA23.JPG,,,,,,,,,,,,,,,,,,,,,0,7,7,5,,,AMSA12.jpg,AMNE06.jpg,AMSA08.jpg,AMNE08.jpg,AMSA12.jpg,MS,2,num_8,32,num_4,0.850181201706,,,2017_Sep_18_1445,60.0075255179,FEMA4ImagesEEG,001,101723,
AMNE23.JPG,AMNE24.JPG,AMNE22.JPG,AMSA24.JPG,AMSA22.JPG,AMSA23.JPG,,,,,,,,,,,,,,,,,,,,,0,8,8,9,,,AMNE16.jpg,AMSA06.jpg,AMSA05.jpg,AMNE08.jpg,AMSA05.jpg,MS,2,num_2,16,num_2,0.683635507477,,,2017_Sep_18_1445,60.0075255179,FEMA4ImagesEEG,001,101723,
AMNE22.JPG,AMSA24.JPG,AMSA22.JPG,AMNE25.JPG,AMNE24.JPG,AMSA25.JPG,,,,,,,,,,,,,,,,,,,,,0,9,9,7,,,AMNE16.jpg,AMNE03.jpg,AMSA10.jpg,AMSA17.jpg,AMNE03.jpg,MN,1,num_6,32,num_8,0.799914554926,,,2017_Sep_18_1445,60.0075255179,FEMA4ImagesEEG,001,101723,
,,,,,,,,,,,,,,,,,,,,,,,,,,,,,,,,,,,,,,,,,,,space,28.1482523053,2017_Sep_18_1445,60.0075255179,FEMA4ImagesEEG,001,101723,
AFNE01.JPG,AFNE01.JPG,AFNE01.JPG,AFNE01.JPG,AFNE01.JPG,AFNE01.JPG,0,0,0,0,,,,,,,,,,,,,,,,,,,,,,,AFNE18.jpg,AFNE08.jpg,AFSA18.jpg,AFSA10.jpg,AFSA18.jpg,FS,4,num_2,32,num_6,1.23342120531,,,2017_Sep_18_1445,60.0075255179,FEMA4ImagesEEG,001,101723,
AFNE01.JPG,AFNE01.JPG,AFNE01.JPG,AFNE01.JPG,AFNE01.JPG,AFNE01.JPG,0,1,1,9,,,,,,,,,,,,,,,,,,,,,,,AFNE03.jpg,AFNE17.jpg,AFSA18.jpg,AFSA05.jpg,AFNE03.jpg,FN,3,num_8,32,num_6,1.11675406294,,,2017_Sep_18_1445,60.0075255179,FEMA4ImagesEEG,001,101723,
AFNE01.JPG,AFNE01.JPG,AFNE01.JPG,AFNE01.JPG,AFNE01.JPG,AFNE01.JPG,0,2,2,5,,,,,,,,,,,,,,,,,,,,,,,AFSA01.jpg,AFNE20.jpg,AFNE10.jpg,AFSA03.jpg,AFSA01.jpg,FS,4,num_8,32,num_4,0.816804707516,,,2017_Sep_18_1445,60.0075255179,FEMA4ImagesEEG,001,101723,
AFNE01.JPG,AFNE01.JPG,AFNE01.JPG,AFNE01.JPG,AFNE01.JPG,AFNE01.JPG,0,3,3,6,,,,,,,,,,,,,,,,,,,,,,,AFNE08.jpg,AFSA10.jpg,AFSA18.jpg,AFNE14.jpg,AFSA10.jpg,FS,4,num_6,32,num_4,0.883525301469,,,2017_Sep_18_1445,60.0075255179,FEMA4ImagesEEG,001,101723,
AFNE01.JPG,AFNE01.JPG,AFNE01.JPG,AFNE01.JPG,AFNE01.JPG,AFNE01.JPG,0,4,4,7,,,,,,,,,,,,,,,,,,,,,,,AFNE08.jpg,AFSA07.jpg,AFSA04.jpg,AFNE12.jpg,AFSA07.jpg,FS,4,num_6,16,num_6,1.66669884766,,,2017_Sep_18_1445,60.0075255179,FEMA4ImagesEEG,001,101723,
AFNE01.JPG,AFNE01.JPG,AFNE01.JPG,AFNE01.JPG,AFNE01.JPG,AFNE01.JPG,0,5,5,1,,,,,,,,,,,,,,,,,,,,,,,AFSA09.jpg,AFSA08.jpg,AFNE10.jpg,AFNE12.jpg,AFNE12.jpg,FN,3,num_4,16,num_4,1.18348427885,,,2017_Sep_18_1445,60.0075255179,FEMA4ImagesEEG,001,101723,
AFNE01.JPG,AFNE01.JPG,AFNE01.JPG,AFNE01.JPG,AFNE01.JPG,AFNE01.JPG,0,6,6,8,,,,,,,,,,,,,,,,,,,,,,,AFSA19.jpg,AFNE13.jpg,AFSA04.jpg,AFNE03.jpg,AFNE03.jpg,FN,3,num_4,16,num_4,0.833440514049,,,2017_Sep_18_1445,60.0075255179,FEMA4ImagesEEG,001,101723,
AFNE01.JPG,AFNE01.JPG,AFNE01.JPG,AFNE01.JPG,AFNE01.JPG,AFNE01.JPG,0,7,7,4,,,,,,,,,,,,,,,,,,,,,,,AFSA20.jpg,AFNE01.jpg,AFNE12.jpg,AFSA14.jpg,AFNE01.jpg,FN,3,num_6,32,num_4,1.00008659973,,,2017_Sep_18_1445,60.0075255179,FEMA4ImagesEEG,001,101723,
AFNE01.JPG,AFNE01.JPG,AFNE01.JPG,AFNE01.JPG,AFNE01.JPG,AFNE01.JPG,0,8,8,2,,,,,,,,,,,,,,,,,,,,,,,AFSA09.jpg,AFNE05.jpg,AFSA19.jpg,AFNE09.jpg,AFSA19.jpg,FS,4,num_2,16,num_2,1.10019266838,,,2017_Sep_18_1445,60.0075255179,FEMA4ImagesEEG,001,101723,
AFNE01.JPG,AFNE01.JPG,AFNE01.JPG,AFNE01.JPG,AFNE01.JPG,AFNE01.JPG,0,9,9,3,,,,,,,,,,,,,,,,,,,,,,,AFNE20.jpg,AFSA02.jpg,AFNE08.jpg,AFSA03.jpg,AFNE20.jpg,FN,3,num_8,32,num_6,0.766818387201,,,2017_Sep_18_1445,60.0075255179,FEMA4ImagesEEG,001,101723,
AFNE01.JPG,AFNE01.JPG,AFNE01.JPG,AFNE01.JPG,AFNE01.JPG,AFNE01.JPG,1,0,10,8,,,,,,,,,,,,,,,,,,,,,,,AFNE18.jpg,AFSA15.jpg,AFSA17.jpg,AFNE10.jpg,AFNE10.jpg,FN,3,num_4,32,num_8,1.26666459255,,,2017_Sep_18_1445,60.0075255179,FEMA4ImagesEEG,001,101723,
AFNE01.JPG,AFNE01.JPG,AFNE01.JPG,AFNE01.JPG,AFNE01.JPG,AFNE01.JPG,1,1,11,5,,,,,,,,,,,,,,,,,,,,,,,AFNE19.jpg,AFSA01.jpg,AFNE01.jpg,AFSA14.jpg,AFNE01.jpg,FN,3,num_2,32,num_8,0.700164507376,,,2017_Sep_18_1445,60.0075255179,FEMA4ImagesEEG,001,101723,
AFNE01.JPG,AFNE01.JPG,AFNE01.JPG,AFNE01.JPG,AFNE01.JPG,AFNE01.JPG,1,2,12,9,,,,,,,,,,,,,,,,,,,,,,,AFSA07.jpg,AFNE07.jpg,AFSA12.jpg,AFNE17.jpg,AFNE07.jpg,FN,3,num_6,16,num_6,1.23343371414,,,2017_Sep_18_1445,60.0075255179,FEMA4ImagesEEG,001,101723,
AFNE01.JPG,AFNE01.JPG,AFNE01.JPG,AFNE01.JPG,AFNE01.JPG,AFNE01.JPG,1,3,13,6,,,,,,,,,,,,,,,,,,,,,,,AFNE09.jpg,AFNE15.jpg,AFSA18.jpg,AFSA07.jpg,AFNE15.jpg,FN,3,num_6,16,num_6,0.966733198846,,,2017_Sep_18_1445,60.0075255179,FEMA4ImagesEEG,001,101723,
AFNE01.JPG,AFNE01.JPG,AFNE01.JPG,AFNE01.JPG,AFNE01.JPG,AFNE01.JPG,1,4,14,2,,,,,,,,,,,,,,,,,,,,,,,AFNE08.jpg,AFNE03.jpg,AFSA03.jpg,AFSA13.jpg,AFSA03.jpg,FS,4,num_2,16,num_2,0.866419611499,,,2017_Sep_18_1445,60.0075255179,FEMA4ImagesEEG,001,101723,
AFNE01.JPG,AFNE01.JPG,AFNE01.JPG,AFNE01.JPG,AFNE01.JPG,AFNE01.JPG,1,5,15,7,,,,,,,,,,,,,,,,,,,,,,,AFNE15.jpg,AFSA10.jpg,AFSA16.jpg,AFNE02.jpg,AFNE15.jpg,FN,3,num_8,32,num_6,0.73347941949,,,2017_Sep_18_1445,60.0075255179,FEMA4ImagesEEG,001,101723,
AFNE01.JPG,AFNE01.JPG,AFNE01.JPG,AFNE01.JPG,AFNE01.JPG,AFNE01.JPG,1,6,16,1,,,,,,,,,,,,,,,,,,,,,,,AFSA02.jpg,AFNE16.jpg,AFSA07.jpg,AFNE13.jpg,AFSA02.jpg,FS,4,num_8,32,num_2,1.76667662035,,,2017_Sep_18_1445,60.0075255179,FEMA4ImagesEEG,001,101723,
AFNE01.JPG,AFNE01.JPG,AFNE01.JPG,AFNE01.JPG,AFNE01.JPG,AFNE01.JPG,1,7,17,4,,,,,,,,,,,,,,,,,,,,,,,AFNE04.jpg,AFSA09.jpg,AFNE14.jpg,AFSA05.jpg,AFNE14.jpg,FN,3,num_2,32,num_6,1.21703685913,,,2017_Sep_18_1445,60.0075255179,FEMA4ImagesEEG,001,101723,
AFNE01.JPG,AFNE01.JPG,AFNE01.JPG,AFNE01.JPG,AFNE01.JPG,AFNE01.JPG,1,8,18,3,,,,,,,,,,,,,,,,,,,,,,,AFSA06.jpg,AFNE05.jpg,AFSA14.jpg,AFNE08.jpg,AFSA06.jpg,FS,4,num_8,16,num_8,0.766999284504,,,2017_Sep_18_1445,60.0075255179,FEMA4ImagesEEG,001,101723,
AFNE01.JPG,AFNE01.JPG,AFNE01.JPG,AFNE01.JPG,AFNE01.JPG,AFNE01.JPG,1,9,19,0,,,,,,,,,,,,,,,,,,,,,,,AFSA04.jpg,AFNE18.jpg,AFNE11.jpg,AFSA07.jpg,AFSA07.jpg,FS,4,num_4,16,num_4,0.450170681579,,,2017_Sep_18_1445,60.0075255179,FEMA4ImagesEEG,001,101723,
AFNE01.JPG,AFNE01.JPG,AFNE01.JPG,AFNE01.JPG,AFNE01.JPG,AFNE01.JPG,2,0,20,6,,,,,,,,,,,,,,,,,,,,,,,AFSA07.jpg,AFSA01.jpg,AFNE03.jpg,AFNE15.jpg,AFSA07.jpg,FS,4,num_8,16,num_8,0.650160225574,,,2017_Sep_18_1445,60.0075255179,FEMA4ImagesEEG,001,101723,
AFNE01.JPG,AFNE01.JPG,AFNE01.JPG,AFNE01.JPG,AFNE01.JPG,AFNE01.JPG,2,1,21,1,,,,,,,,,,,,,,,,,,,,,,,AFNE20.jpg,AFNE19.jpg,AFSA20.jpg,AFSA17.jpg,AFNE20.jpg,FN,3,num_8,32,num_4,1.16685168003,,,2017_Sep_18_1445,60.0075255179,FEMA4ImagesEEG,001,101723,
AFNE01.JPG,AFNE01.JPG,AFNE01.JPG,AFNE01.JPG,AFNE01.JPG,AFNE01.JPG,2,2,22,3,,,,,,,,,,,,,,,,,,,,,,,AFSA09.jpg,AFSA01.jpg,AFNE01.jpg,AFNE10.jpg,AFNE10.jpg,FN,3,num_4,32,num_8,1.00011129677,,,2017_Sep_18_1445,60.0075255179,FEMA4ImagesEEG,001,101723,
AFNE01.JPG,AFNE01.JPG,AFNE01.JPG,AFNE01.JPG,AFNE01.JPG,AFNE01.JPG,2,3,23,5,,,,,,,,,,,,,,,,,,,,,,,AFSA08.jpg,AFSA12.jpg,AFNE13.jpg,AFNE07.jpg,AFSA08.jpg,FS,4,num_8,32,num_2,1.41673164326,,,2017_Sep_18_1445,60.0075255179,FEMA4ImagesEEG,001,101723,
AFNE01.JPG,AFNE01.JPG,AFNE01.JPG,AFNE01.JPG,AFNE01.JPG,AFNE01.JPG,2,4,24,9,,,,,,,,,,,,,,,,,,,,,,,AFNE08.jpg,AFSA11.jpg,AFNE20.jpg,AFSA20.jpg,AFNE20.jpg,FN,3,num_2,16,num_2,0.616785335122,,,2017_Sep_18_1445,60.0075255179,FEMA4ImagesEEG,001,101723,
AFNE01.JPG,AFNE01.JPG,AFNE01.JPG,AFNE01.JPG,AFNE01.JPG,AFNE01.JPG,2,5,25,7,,,,,,,,,,,,,,,,,,,,,,,AFSA08.jpg,AFSA05.jpg,AFNE07.jpg,AFNE13.jpg,AFNE07.jpg,FN,3,num_2,32,num_4,0.733360104263,,,2017_Sep_18_1445,60.0075255179,FEMA4ImagesEEG,001,101723,
AFNE01.JPG,AFNE01.JPG,AFNE01.JPG,AFNE01.JPG,AFNE01.JPG,AFNE01.JPG,2,6,26,8,,,,,,,,,,,,,,,,,,,,,,,AFNE19.jpg,AFSA17.jpg,AFSA11.jpg,AFNE04.jpg,AFSA17.jpg,FS,4,num_6,16,num_6,1.33336850768,,,2017_Sep_18_1445,60.0075255179,FEMA4ImagesEEG,001,101723,
AFNE01.JPG,AFNE01.JPG,AFNE01.JPG,AFNE01.JPG,AFNE01.JPG,AFNE01.JPG,2,7,27,0,,,,,,,,,,,,,,,,,,,,,,,AFNE15.jpg,AFSA15.jpg,AFNE04.jpg,AFSA09.jpg,AFSA15.jpg,FS,4,num_6,32,num_8,0.900117807556,,,2017_Sep_18_1445,60.0075255179,FEMA4ImagesEEG,001,101723,
AFNE01.JPG,AFNE01.JPG,AFNE01.JPG,AFNE01.JPG,AFNE01.JPG,AFNE01.JPG,2,8,28,4,,,,,,,,,,,,,,,,,,,,,,,AFSA15.jpg,AFSA06.jpg,AFNE06.jpg,AFNE14.jpg,AFSA06.jpg,FS,4,num_6,16,num_6,0.600164603675,,,2017_Sep_18_1445,60.0075255179,FEMA4ImagesEEG,001,101723,
AFNE01.JPG,AFNE01.JPG,AFNE01.JPG,AFNE01.JPG,AFNE01.JPG,AFNE01.JPG,2,9,29,2,,,,,,,,,,,,,,,,,,,,,,,AFNE08.jpg,AFSA06.jpg,AFNE03.jpg,AFSA17.jpg,AFSA06.jpg,FS,4,num_6,16,num_6,1.06705640815,,,2017_Sep_18_1445,60.0075255179,FEMA4ImagesEEG,001,101723,
AFNE01.JPG,AFNE01.JPG,AFNE01.JPG,AFNE01.JPG,AFNE01.JPG,AFNE01.JPG,3,0,30,1,,,,,,,,,,,,,,,,,,,,,,,AFNE13.jpg,AFNE03.jpg,AFSA20.jpg,AFSA13.jpg,AFSA13.jpg,FS,4,num_4,32,num_8,0.916743670823,,,2017_Sep_18_1445,60.0075255179,FEMA4ImagesEEG,001,101723,
AFNE01.JPG,AFNE01.JPG,AFNE01.JPG,AFNE01.JPG,AFNE01.JPG,AFNE01.JPG,3,1,31,6,,,,,,,,,,,,,,,,,,,,,,,AFNE16.jpg,AFSA08.jpg,AFNE09.jpg,AFSA15.jpg,AFSA15.jpg,FS,4,num_4,16,num_4,0.866760878591,,,2017_Sep_18_1445,60.0075255179,FEMA4ImagesEEG,001,101723,
AFNE01.JPG,AFNE01.JPG,AFNE01.JPG,AFNE01.JPG,AFNE01.JPG,AFNE01.JPG,3,2,32,0,,,,,,,,,,,,,,,,,,,,,,,AFSA06.jpg,AFSA14.jpg,AFNE10.jpg,AFNE12.jpg,AFNE12.jpg,FN,3,num_4,32,num_8,0.85008947039,,,2017_Sep_18_1445,60.0075255179,FEMA4ImagesEEG,001,101723,
AFNE01.JPG,AFNE01.JPG,AFNE01.JPG,AFNE01.JPG,AFNE01.JPG,AFNE01.JPG,3,3,33,2,,,,,,,,,,,,,,,,,,,,,,,AFNE16.jpg,AFSA07.jpg,AFSA15.jpg,AFNE14.jpg,AFSA07.jpg,FS,4,num_6,16,num_6,0.750190599589,,,2017_Sep_18_1445,60.0075255179,FEMA4ImagesEEG,001,101723,
AFNE01.JPG,AFNE01.JPG,AFNE01.JPG,AFNE01.JPG,AFNE01.JPG,AFNE01.JPG,3,4,34,5,,,,,,,,,,,,,,,,,,,,,,,AFNE20.jpg,AFSA09.jpg,AFSA13.jpg,AFNE08.jpg,AFNE20.jpg,FN,3,num_8,32,num_4,1.10006212723,,,2017_Sep_18_1445,60.0075255179,FEMA4ImagesEEG,001,101723,
AFNE01.JPG,AFNE01.JPG,AFNE01.JPG,AFNE01.JPG,AFNE01.JPG,AFNE01.JPG,3,5,35,8,,,,,,,,,,,,,,,,,,,,,,,AFSA11.jpg,AFNE16.jpg,AFNE04.jpg,AFSA01.jpg,AFNE04.jpg,FN,3,num_2,32,num_8,0.633493949194,,,2017_Sep_18_1445,60.0075255179,FEMA4ImagesEEG,001,101723,
AFNE01.JPG,AFNE01.JPG,AFNE01.JPG,AFNE01.JPG,AFNE01.JPG,AFNE01.JPG,3,6,36,7,,,,,,,,,,,,,,,,,,,,,,,AFSA15.jpg,AFNE11.jpg,AFSA05.jpg,AFNE01.jpg,AFNE11.jpg,FN,3,num_6,16,num_6,0.716768881073,,,2017_Sep_18_1445,60.0075255179,FEMA4ImagesEEG,001,101723,
AFNE01.JPG,AFNE01.JPG,AFNE01.JPG,AFNE01.JPG,AFNE01.JPG,AFNE01.JPG,3,7,37,9,,,,,,,,,,,,,,,,,,,,,,,AFNE03.jpg,AFSA03.jpg,AFNE15.jpg,AFSA09.jpg,AFSA09.jpg,FS,4,num_4,16,num_4,0.766765465029,,,2017_Sep_18_1445,60.0075255179,FEMA4ImagesEEG,001,101723,
AFNE01.JPG,AFNE01.JPG,AFNE01.JPG,AFNE01.JPG,AFNE01.JPG,AFNE01.JPG,3,8,38,4,,,,,,,,,,,,,,,,,,,,,,,AFNE06.jpg,AFSA07.jpg,AFSA16.jpg,AFNE08.jpg,AFNE08.jpg,FN,3,num_4,32,num_6,0.86664926121,,,2017_Sep_18_1445,60.0075255179,FEMA4ImagesEEG,001,101723,
AFNE01.JPG,AFNE01.JPG,AFNE01.JPG,AFNE01.JPG,AFNE01.JPG,AFNE01.JPG,3,9,39,3,,,,,,,,,,,,,,,,,,,,,,,AFSA10.jpg,AFNE17.jpg,AFSA03.jpg,AFNE20.jpg,AFNE20.jpg,FN,3,num_4,32,num_8,0.766897289315,,,2017_Sep_18_1445,60.0075255179,FEMA4ImagesEEG,001,101723,
AFNE01.JPG,AFNE01.JPG,AFNE01.JPG,AFNE01.JPG,AFNE01.JPG,AFNE01.JPG,4,0,40,9,,,,,,,,,,,,,,,,,,,,,,,AFSA05.jpg,AFSA13.jpg,AFNE20.jpg,AFNE06.jpg,AFSA05.jpg,FS,4,num_8,32,num_6,0.75012035761,,,2017_Sep_18_1445,60.0075255179,FEMA4ImagesEEG,001,101723,
AFNE01.JPG,AFNE01.JPG,AFNE01.JPG,AFNE01.JPG,AFNE01.JPG,AFNE01.JPG,4,1,41,0,,,,,,,,,,,,,,,,,,,,,,,AFSA13.jpg,AFNE11.jpg,AFNE02.jpg,AFSA16.jpg,AFSA16.jpg,FS,4,num_4,32,num_6,1.38344303169,,,2017_Sep_18_1445,60.0075255179,FEMA4ImagesEEG,001,101723,
AFNE01.JPG,AFNE01.JPG,AFNE01.JPG,AFNE01.JPG,AFNE01.JPG,AFNE01.JPG,4,2,42,2,,,,,,,,,,,,,,,,,,,,,,,AFSA10.jpg,AFSA01.jpg,AFNE19.jpg,AFNE13.jpg,AFNE13.jpg,FN,3,num_4,32,num_8,1.08365565003,,,2017_Sep_18_1445,60.0075255179,FEMA4ImagesEEG,001,101723,
AFNE01.JPG,AFNE01.JPG,AFNE01.JPG,AFNE01.JPG,AFNE01.JPG,AFNE01.JPG,4,3,43,1,,,,,,,,,,,,,,,,,,,,,,,AFNE05.jpg,AFSA13.jpg,AFSA10.jpg,AFNE19.jpg,AFSA13.jpg,FS,4,num_6,16,num_6,1.11675213836,,,2017_Sep_18_1445,60.0075255179,FEMA4ImagesEEG,001,101723,
AFNE01.JPG,AFNE01.JPG,AFNE01.JPG,AFNE01.JPG,AFNE01.JPG,AFNE01.JPG,4,4,44,4,,,,,,,,,,,,,,,,,,,,,,,AFNE18.jpg,AFSA09.jpg,AFNE02.jpg,AFSA20.jpg,AFSA09.jpg,FS,4,num_6,16,num_6,0.666776466649,,,2017_Sep_18_1445,60.0075255179,FEMA4ImagesEEG,001,101723,
AFNE01.JPG,AFNE01.JPG,AFNE01.JPG,AFNE01.JPG,AFNE01.JPG,AFNE01.JPG,4,5,45,5,,,,,,,,,,,,,,,,,,,,,,,AFNE03.jpg,AFSA17.jpg,AFSA08.jpg,AFNE13.jpg,AFNE13.jpg,FN,3,num_4,32,num_2,0.850139184855,,,2017_Sep_18_1445,60.0075255179,FEMA4ImagesEEG,001,101723,
AFNE01.JPG,AFNE01.JPG,AFNE01.JPG,AFNE01.JPG,AFNE01.JPG,AFNE01.JPG,4,6,46,3,,,,,,,,,,,,,,,,,,,,,,,AFSA19.jpg,AFNE15.jpg,AFSA06.jpg,AFNE01.jpg,AFNE15.jpg,FN,3,num_6,16,num_6,0.616759675788,,,2017_Sep_18_1445,60.0075255179,FEMA4ImagesEEG,001,101723,
AFNE01.JPG,AFNE01.JPG,AFNE01.JPG,AFNE01.JPG,AFNE01.JPG,AFNE01.JPG,4,7,47,6,,,,,,,,,,,,,,,,,,,,,,,AFSA02.jpg,AFSA14.jpg,AFNE10.jpg,AFNE09.jpg,AFNE09.jpg,FN,3,num_4,32,num_2,0.64997900743,,,2017_Sep_18_1445,60.0075255179,FEMA4ImagesEEG,001,101723,
AFNE01.JPG,AFNE01.JPG,AFNE01.JPG,AFNE01.JPG,AFNE01.JPG,AFNE01.JPG,4,8,48,7,,,,,,,,,,,,,,,,,,,,,,,AFNE05.jpg,AFSA08.jpg,AFNE12.jpg,AFSA02.jpg,AFNE12.jpg,FN,3,num_2,16,num_2,0.60009179567,,,2017_Sep_18_1445,60.0075255179,FEMA4ImagesEEG,001,101723,
AFNE01.JPG,AFNE01.JPG,AFNE01.JPG,AFNE01.JPG,AFNE01.JPG,AFNE01.JPG,4,9,49,8,,,,,,,,,,,,,,,,,,,,,,,AFNE15.jpg,AFSA10.jpg,AFNE10.jpg,AFSA19.jpg,AFNE15.jpg,FN,3,num_8,32,num_2,0.500142247882,,,2017_Sep_18_1445,60.0075255179,FEMA4ImagesEEG,001,101723,
AFNE01.JPG,AFNE01.JPG,AFNE01.JPG,AFNE01.JPG,AFNE01.JPG,AFNE01.JPG,5,0,50,9,,,,,,,,,,,,,,,,,,,,,,,AFNE03.jpg,AFNE08.jpg,AFSA02.jpg,AFSA17.jpg,AFSA02.jpg,FS,4,num_2,32,num_4,0.983489923645,,,2017_Sep_18_1445,60.0075255179,FEMA4ImagesEEG,001,101723,
AFNE01.JPG,AFNE01.JPG,AFNE01.JPG,AFNE01.JPG,AFNE01.JPG,AFNE01.JPG,5,1,51,2,,,,,,,,,,,,,,,,,,,,,,,AFSA15.jpg,AFSA06.jpg,AFNE16.jpg,AFNE13.jpg,AFSA06.jpg,FS,4,num_6,32,num_2,1.3667305687,,,2017_Sep_18_1445,60.0075255179,FEMA4ImagesEEG,001,101723,
AFNE01.JPG,AFNE01.JPG,AFNE01.JPG,AFNE01.JPG,AFNE01.JPG,AFNE01.JPG,5,2,52,3,,,,,,,,,,,,,,,,,,,,,,,AFNE14.jpg,AFNE10.jpg,AFSA20.jpg,AFSA08.jpg,AFSA20.jpg,FS,4,num_2,32,num_4,1.03352178936,,,2017_Sep_18_1445,60.0075255179,FEMA4ImagesEEG,001,101723,
AFNE01.JPG,AFNE01.JPG,AFNE01.JPG,AFNE01.JPG,AFNE01.JPG,AFNE01.JPG,5,3,53,6,,,,,,,,,,,,,,,,,,,,,,,AFNE10.jpg,AFNE14.jpg,AFSA03.jpg,AFSA18.jpg,AFNE14.jpg,FN,3,num_6,16,num_6,0.600186734693,,,2017_Sep_18_1445,60.0075255179,FEMA4ImagesEEG,001,101723,
AFNE01.JPG,AFNE01.JPG,AFNE01.JPG,AFNE01.JPG,AFNE01.JPG,AFNE01.JPG,5,4,54,0,,,,,,,,,,,,,,,,,,,,,,,AFSA09.jpg,AFNE16.jpg,AFNE03.jpg,AFSA19.jpg,AFSA09.jpg,FS,4,num_8,32,num_6,0.666763636982,,,2017_Sep_18_1445,60.0075255179,FEMA4ImagesEEG,001,101723,
AFNE01.JPG,AFNE01.JPG,AFNE01.JPG,AFNE01.JPG,AFNE01.JPG,AFNE01.JPG,5,5,55,8,,,,,,,,,,,,,,,,,,,,,,,AFSA08.jpg,AFNE10.jpg,AFSA03.jpg,AFNE02.jpg,AFNE02.jpg,FN,3,num_4,32,num_2,1.58350185538,,,2017_Sep_18_1445,60.0075255179,FEMA4ImagesEEG,001,101723,
AFNE01.JPG,AFNE01.JPG,AFNE01.JPG,AFNE01.JPG,AFNE01.JPG,AFNE01.JPG,5,6,56,5,,,,,,,,,,,,,,,,,,,,,,,AFSA13.jpg,AFSA08.jpg,AFNE04.jpg,AFNE06.jpg,AFNE04.jpg,FN,3,num_2,32,num_4,0.583951853216,,,2017_Sep_18_1445,60.0075255179,FEMA4ImagesEEG,001,101723,
AFNE01.JPG,AFNE01.JPG,AFNE01.JPG,AFNE01.JPG,AFNE01.JPG,AFNE01.JPG,5,7,57,1,,,,,,,,,,,,,,,,,,,,,,,AFSA19.jpg,AFNE08.jpg,AFSA01.jpg,AFNE02.jpg,AFNE08.jpg,FN,3,num_6,32,num_8,0.733528813347,,,2017_Sep_18_1445,60.0075255179,FEMA4ImagesEEG,001,101723,
AFNE01.JPG,AFNE01.JPG,AFNE01.JPG,AFNE01.JPG,AFNE01.JPG,AFNE01.JPG,5,8,58,7,,,,,,,,,,,,,,,,,,,,,,,AFSA15.jpg,AFSA05.jpg,AFNE15.jpg,AFNE11.jpg,AFSA05.jpg,FS,4,num_6,16,num_6,0.71679678536,,,2017_Sep_18_1445,60.0075255179,FEMA4ImagesEEG,001,101723,
AFNE01.JPG,AFNE01.JPG,AFNE01.JPG,AFNE01.JPG,AFNE01.JPG,AFNE01.JPG,5,9,59,4,,,,,,,,,,,,,,,,,,,,,,,AFSA05.jpg,AFNE06.jpg,AFNE16.jpg,AFSA18.jpg,AFNE06.jpg,FN,3,num_6,16,num_6,1.13338858588,,,2017_Sep_18_1445,60.0075255179,FEMA4ImagesEEG,001,101723,
,,,,,,,,,,,,,,,,,,,,,,,,,,,,,,,,,,,,,,,,,,,space,40.5303440606,2017_Sep_18_1445,60.0075255179,FEMA4ImagesEEG,001,101723,
AFNE01.JPG,AFNE01.JPG,AFNE01.JPG,AFNE01.JPG,AFNE01.JPG,AFNE01.JPG,,,,,0,0,0,3,,,,,,,,,,,,,,,,,,,AMSA15.jpg,AMSA17.jpg,AMNE10.jpg,AMNE19.jpg,AMSA17.jpg,MS,2,num_6,32,num_4,1.01679938333,,,2017_Sep_18_1445,60.0075255179,FEMA4ImagesEEG,001,101723,
AFNE01.JPG,AFNE01.JPG,AFNE01.JPG,AFNE01.JPG,AFNE01.JPG,AFNE01.JPG,,,,,0,1,1,2,,,,,,,,,,,,,,,,,,,AMNE09.jpg,AMNE14.jpg,AMSA19.jpg,AMSA08.jpg,AMNE09.jpg,MN,1,num_8,16,num_8,0.833472587634,,,2017_Sep_18_1445,60.0075255179,FEMA4ImagesEEG,001,101723,
AFNE01.JPG,AFNE01.JPG,AFNE01.JPG,AFNE01.JPG,AFNE01.JPG,AFNE01.JPG,,,,,0,2,2,0,,,,,,,,,,,,,,,,,,,AMSA13.jpg,AMNE07.jpg,AMSA16.jpg,AMNE20.jpg,AMSA16.jpg,MS,2,num_2,16,num_2,0.683481552638,,,2017_Sep_18_1445,60.0075255179,FEMA4ImagesEEG,001,101723,
AFNE01.JPG,AFNE01.JPG,AFNE01.JPG,AFNE01.JPG,AFNE01.JPG,AFNE01.JPG,,,,,0,3,3,7,,,,,,,,,,,,,,,,,,,AMSA07.jpg,AMNE15.jpg,AMSA04.jpg,AMNE10.jpg,AMSA04.jpg,MS,2,num_2,16,num_2,0.600137340603,,,2017_Sep_18_1445,60.0075255179,FEMA4ImagesEEG,001,101723,
AFNE01.JPG,AFNE01.JPG,AFNE01.JPG,AFNE01.JPG,AFNE01.JPG,AFNE01.JPG,,,,,0,4,4,4,,,,,,,,,,,,,,,,,,,AMSA13.jpg,AMSA04.jpg,AMNE16.jpg,AMNE11.jpg,AMNE16.jpg,MN,1,num_2,16,num_2,1.78341249726,,,2017_Sep_18_1445,60.0075255179,FEMA4ImagesEEG,001,101723,
AFNE01.JPG,AFNE01.JPG,AFNE01.JPG,AFNE01.JPG,AFNE01.JPG,AFNE01.JPG,,,,,0,5,5,8,,,,,,,,,,,,,,,,,,,AMSA16.jpg,AMSA20.jpg,AMNE17.jpg,AMNE20.jpg,AMNE20.jpg,MN,1,num_4,16,num_4,0.816729975399,,,2017_Sep_18_1445,60.0075255179,FEMA4ImagesEEG,001,101723,
AFNE01.JPG,AFNE01.JPG,AFNE01.JPG,AFNE01.JPG,AFNE01.JPG,AFNE01.JPG,,,,,0,6,6,9,,,,,,,,,,,,,,,,,,,AMNE15.jpg,AMSA20.jpg,AMSA03.jpg,AMNE05.jpg,AMNE15.jpg,MN,1,num_8,16,num_8,0.916747519979,,,2017_Sep_18_1445,60.0075255179,FEMA4ImagesEEG,001,101723,
AFNE01.JPG,AFNE01.JPG,AFNE01.JPG,AFNE01.JPG,AFNE01.JPG,AFNE01.JPG,,,,,0,7,7,5,,,,,,,,,,,,,,,,,,,AMSA01.jpg,AMSA07.jpg,AMNE20.jpg,AMNE04.jpg,AMNE20.jpg,MN,1,num_2,16,num_2,0.666820728686,,,2017_Sep_18_1445,60.0075255179,FEMA4ImagesEEG,001,101723,
AFNE01.JPG,AFNE01.JPG,AFNE01.JPG,AFNE01.JPG,AFNE01.JPG,AFNE01.JPG,,,,,0,8,8,1,,,,,,,,,,,,,,,,,,,AMSA13.jpg,AMSA08.jpg,AMNE07.jpg,AMNE18.jpg,AMNE07.jpg,MN,1,num_2,32,num_4,0.516784789739,,,2017_Sep_18_1445,60.0075255179,FEMA4ImagesEEG,001,101723,
AFNE01.JPG,AFNE01.JPG,AFNE01.JPG,AFNE01.JPG,AFNE01.JPG,AFNE01.JPG,,,,,0,9,9,6,,,,,,,,,,,,,,,,,,,AMNE06.jpg,AMSA11.jpg,AMSA16.jpg,AMNE09.jpg,AMNE06.jpg,MN,1,num_8,16,num_8,1.01680066623,,,2017_Sep_18_1445,60.0075255179,FEMA4ImagesEEG,001,101723,
AFNE01.JPG,AFNE01.JPG,AFNE01.JPG,AFNE01.JPG,AFNE01.JPG,AFNE01.JPG,,,,,1,0,10,9,,,,,,,,,,,,,,,,,,,AMSA08.jpg,AMNE11.jpg,AMNE15.jpg,AMSA17.jpg,AMNE11.jpg,MN,1,num_6,32,num_8,1.10009323899,,,2017_Sep_18_1445,60.0075255179,FEMA4ImagesEEG,001,101723,
AFNE01.JPG,AFNE01.JPG,AFNE01.JPG,AFNE01.JPG,AFNE01.JPG,AFNE01.JPG,,,,,1,1,11,3,,,,,,,,,,,,,,,,,,,AMNE16.jpg,AMSA02.jpg,AMNE07.jpg,AMSA11.jpg,AMSA02.jpg,MS,2,num_6,32,num_8,1.26677620993,,,2017_Sep_18_1445,60.0075255179,FEMA4ImagesEEG,001,101723,
AFNE01.JPG,AFNE01.JPG,AFNE01.JPG,AFNE01.JPG,AFNE01.JPG,AFNE01.JPG,,,,,1,2,12,6,,,,,,,,,,,,,,,,,,,AMSA15.jpg,AMNE11.jpg,AMNE20.jpg,AMSA19.jpg,AMNE20.jpg,MN,1,num_2,16,num_2,1.150102332,,,2017_Sep_18_1445,60.0075255179,FEMA4ImagesEEG,001,101723,
AFNE01.JPG,AFNE01.JPG,AFNE01.JPG,AFNE01.JPG,AFNE01.JPG,AFNE01.JPG,,,,,1,3,13,4,,,,,,,,,,,,,,,,,,,AMSA11.jpg,AMNE04.jpg,AMSA02.jpg,AMNE16.jpg,AMSA11.jpg,MS,2,num_8,32,num_6,1.28339694138,,,2017_Sep_18_1445,60.0075255179,FEMA4ImagesEEG,001,101723,
AFNE01.JPG,AFNE01.JPG,AFNE01.JPG,AFNE01.JPG,AFNE01.JPG,AFNE01.JPG,,,,,1,4,14,0,,,,,,,,,,,,,,,,,,,AMNE11.jpg,AMNE08.jpg,AMSA05.jpg,AMSA09.jpg,AMSA05.jpg,MS,2,num_2,16,num_2,0.616808749037,,,2017_Sep_18_1445,60.0075255179,FEMA4ImagesEEG,001,101723,
AFNE01.JPG,AFNE01.JPG,AFNE01.JPG,AFNE01.JPG,AFNE01.JPG,AFNE01.JPG,,,,,1,5,15,5,,,,,,,,,,,,,,,,,,,AMSA12.jpg,AMNE17.jpg,AMSA03.jpg,AMNE07.jpg,AMSA12.jpg,MS,2,num_8,16,num_8,0.916793706361,,,2017_Sep_18_1445,60.0075255179,FEMA4ImagesEEG,001,101723,
AFNE01.JPG,AFNE01.JPG,AFNE01.JPG,AFNE01.JPG,AFNE01.JPG,AFNE01.JPG,,,,,1,6,16,8,,,,,,,,,,,,,,,,,,,AMNE01.jpg,AMSA19.jpg,AMSA11.jpg,AMNE18.jpg,AMNE18.jpg,MN,1,num_4,32,num_8,0.783426609822,,,2017_Sep_18_1445,60.0075255179,FEMA4ImagesEEG,001,101723,
AFNE01.JPG,AFNE01.JPG,AFNE01.JPG,AFNE01.JPG,AFNE01.JPG,AFNE01.JPG,,,,,1,7,17,1,,,,,,,,,,,,,,,,,,,AMSA07.jpg,AMSA16.jpg,AMNE15.jpg,AMNE04.jpg,AMSA07.jpg,MS,2,num_8,16,num_8,1.08343401877,,,2017_Sep_18_1445,60.0075255179,FEMA4ImagesEEG,001,101723,
AFNE01.JPG,AFNE01.JPG,AFNE01.JPG,AFNE01.JPG,AFNE01.JPG,AFNE01.JPG,,,,,1,8,18,2,,,,,,,,,,,,,,,,,,,AMNE09.jpg,AMSA10.jpg,AMSA06.jpg,AMNE08.jpg,AMSA10.jpg,MS,2,num_6,16,num_6,0.933401928982,,,2017_Sep_18_1445,60.0075255179,FEMA4ImagesEEG,001,101723,
AFNE01.JPG,AFNE01.JPG,AFNE01.JPG,AFNE01.JPG,AFNE01.JPG,AFNE01.JPG,,,,,1,9,19,7,,,,,,,,,,,,,,,,,,,AMNE06.jpg,AMNE16.jpg,AMSA20.jpg,AMSA19.jpg,AMSA20.jpg,MS,2,num_2,16,num_2,1.2168675086,,,2017_Sep_18_1445,60.0075255179,FEMA4ImagesEEG,001,101723,
AFNE01.JPG,AFNE01.JPG,AFNE01.JPG,AFNE01.JPG,AFNE01.JPG,AFNE01.JPG,,,,,2,0,20,6,,,,,,,,,,,,,,,,,,,AMSA03.jpg,AMNE20.jpg,AMSA18.jpg,AMNE19.jpg,AMNE20.jpg,MN,1,num_6,32,num_4,1.06677768519,,,2017_Sep_18_1445,60.0075255179,FEMA4ImagesEEG,001,101723,
AFNE01.JPG,AFNE01.JPG,AFNE01.JPG,AFNE01.JPG,AFNE01.JPG,AFNE01.JPG,,,,,2,1,21,4,,,,,,,,,,,,,,,,,,,AMNE01.jpg,AMNE07.jpg,AMSA19.jpg,AMSA09.jpg,AMSA19.jpg,MS,2,num_2,16,num_2,0.933438172564,,,2017_Sep_18_1445,60.0075255179,FEMA4ImagesEEG,001,101723,
AFNE01.JPG,AFNE01.JPG,AFNE01.JPG,AFNE01.JPG,AFNE01.JPG,AFNE01.JPG,,,,,2,2,22,1,,,,,,,,,,,,,,,,,,,AMSA16.jpg,AMNE09.jpg,AMSA01.jpg,AMNE08.jpg,AMNE09.jpg,MN,1,num_6,16,num_6,0.666885518003,,,2017_Sep_18_1445,60.0075255179,FEMA4ImagesEEG,001,101723,
AFNE01.JPG,AFNE01.JPG,AFNE01.JPG,AFNE01.JPG,AFNE01.JPG,AFNE01.JPG,,,,,2,3,23,5,,,,,,,,,,,,,,,,,,,AMSA13.jpg,AMSA09.jpg,AMNE01.jpg,AMNE08.jpg,AMNE08.jpg,MN,1,num_4,32,num_6,0.783454193501,,,2017_Sep_18_1445,60.0075255179,FEMA4ImagesEEG,001,101723,
AFNE01.JPG,AFNE01.JPG,AFNE01.JPG,AFNE01.JPG,AFNE01.JPG,AFNE01.JPG,,,,,2,4,24,2,,,,,,,,,,,,,,,,,,,AMSA11.jpg,AMSA04.jpg,AMNE01.jpg,AMNE08.jpg,AMSA04.jpg,MS,2,num_6,16,num_6,0.516863371013,,,2017_Sep_18_1445,60.0075255179,FEMA4ImagesEEG,001,101723,
AFNE01.JPG,AFNE01.JPG,AFNE01.JPG,AFNE01.JPG,AFNE01.JPG,AFNE01.JPG,,,,,2,5,25,7,,,,,,,,,,,,,,,,,,,AMNE01.jpg,AMSA18.jpg,AMNE12.jpg,AMSA01.jpg,AMNE01.jpg,MN,1,num_8,32,num_6,0.566810881952,,,2017_Sep_18_1445,60.0075255179,FEMA4ImagesEEG,001,101723,
AFNE01.JPG,AFNE01.JPG,AFNE01.JPG,AFNE01.JPG,AFNE01.JPG,AFNE01.JPG,,,,,2,6,26,9,,,,,,,,,,,,,,,,,,,AMSA05.jpg,AMNE20.jpg,AMSA07.jpg,AMNE16.jpg,AMSA05.jpg,MS,2,num_8,32,num_2,0.733452156885,,,2017_Sep_18_1445,60.0075255179,FEMA4ImagesEEG,001,101723,
AFNE01.JPG,AFNE01.JPG,AFNE01.JPG,AFNE01.JPG,AFNE01.JPG,AFNE01.JPG,,,,,2,7,27,8,,,,,,,,,,,,,,,,,,,AMNE18.jpg,AMNE08.jpg,AMSA17.jpg,AMSA04.jpg,AMSA04.jpg,MS,2,num_4,16,num_4,0.916804290609,,,2017_Sep_18_1445,60.0075255179,FEMA4ImagesEEG,001,101723,
AFNE01.JPG,AFNE01.JPG,AFNE01.JPG,AFNE01.JPG,AFNE01.JPG,AFNE01.JPG,,,,,2,8,28,0,,,,,,,,,,,,,,,,,,,AMNE02.jpg,AMNE16.jpg,AMSA18.jpg,AMSA08.jpg,AMNE02.jpg,MN,1,num_8,16,num_8,0.683473533951,,,2017_Sep_18_1445,60.0075255179,FEMA4ImagesEEG,001,101723,
AFNE01.JPG,AFNE01.JPG,AFNE01.JPG,AFNE01.JPG,AFNE01.JPG,AFNE01.JPG,,,,,2,9,29,3,,,,,,,,,,,,,,,,,,,AMNE02.jpg,AMSA08.jpg,AMNE17.jpg,AMSA06.jpg,AMSA06.jpg,MS,2,num_4,16,num_4,0.500144813908,,,2017_Sep_18_1445,60.0075255179,FEMA4ImagesEEG,001,101723,
AFNE01.JPG,AFNE01.JPG,AFNE01.JPG,AFNE01.JPG,AFNE01.JPG,AFNE01.JPG,,,,,3,0,30,0,,,,,,,,,,,,,,,,,,,AMSA01.jpg,AMNE07.jpg,AMSA17.jpg,AMNE08.jpg,AMSA17.jpg,MS,2,num_2,16,num_2,1.66657407978,,,2017_Sep_18_1445,60.0075255179,FEMA4ImagesEEG,001,101723,
AFNE01.JPG,AFNE01.JPG,AFNE01.JPG,AFNE01.JPG,AFNE01.JPG,AFNE01.JPG,,,,,3,1,31,2,,,,,,,,,,,,,,,,,,,AMSA13.jpg,AMNE14.jpg,AMNE08.jpg,AMSA08.jpg,AMSA08.jpg,MS,2,num_4,32,num_2,0.900151806185,,,2017_Sep_18_1445,60.0075255179,FEMA4ImagesEEG,001,101723,
AFNE01.JPG,AFNE01.JPG,AFNE01.JPG,AFNE01.JPG,AFNE01.JPG,AFNE01.JPG,,,,,3,2,32,8,,,,,,,,,,,,,,,,,,,AMNE15.jpg,AMSA01.jpg,AMNE20.jpg,AMSA13.jpg,AMNE20.jpg,MN,1,num_2,32,num_8,1.15010746382,,,2017_Sep_18_1445,60.0075255179,FEMA4ImagesEEG,001,101723,
AFNE01.JPG,AFNE01.JPG,AFNE01.JPG,AFNE01.JPG,AFNE01.JPG,AFNE01.JPG,,,,,3,3,33,5,,,,,,,,,,,,,,,,,,,AMNE13.jpg,AMSA06.jpg,AMSA11.jpg,AMNE09.jpg,AMNE13.jpg,MN,1,num_8,32,num_6,0.900155013427,,,2017_Sep_18_1445,60.0075255179,FEMA4ImagesEEG,001,101723,
AFNE01.JPG,AFNE01.JPG,AFNE01.JPG,AFNE01.JPG,AFNE01.JPG,AFNE01.JPG,,,,,3,4,34,1,,,,,,,,,,,,,,,,,,,AMNE07.jpg,AMSA17.jpg,AMSA03.jpg,AMNE19.jpg,AMNE19.jpg,MN,1,num_4,16,num_4,0.883563790238,,,2017_Sep_18_1445,60.0075255179,FEMA4ImagesEEG,001,101723,
AFNE01.JPG,AFNE01.JPG,AFNE01.JPG,AFNE01.JPG,AFNE01.JPG,AFNE01.JPG,,,,,3,5,35,9,,,,,,,,,,,,,,,,,,,AMNE06.jpg,AMSA10.jpg,AMSA18.jpg,AMNE04.jpg,AMNE04.jpg,MN,1,num_4,16,num_4,1.05014123791,,,2017_Sep_18_1445,60.0075255179,FEMA4ImagesEEG,001,101723,
AFNE01.JPG,AFNE01.JPG,AFNE01.JPG,AFNE01.JPG,AFNE01.JPG,AFNE01.JPG,,,,,3,6,36,4,,,,,,,,,,,,,,,,,,,AMSA13.jpg,AMSA05.jpg,AMNE16.jpg,AMNE02.jpg,AMNE16.jpg,MN,1,num_2,32,num_8,0.800105074421,,,2017_Sep_18_1445,60.0075255179,FEMA4ImagesEEG,001,101723,
AFNE01.JPG,AFNE01.JPG,AFNE01.JPG,AFNE01.JPG,AFNE01.JPG,AFNE01.JPG,,,,,3,7,37,7,,,,,,,,,,,,,,,,,,,AMSA06.jpg,AMNE12.jpg,AMNE01.jpg,AMSA10.jpg,AMSA10.jpg,MS,2,num_4,16,num_4,0.700098114321,,,2017_Sep_18_1445,60.0075255179,FEMA4ImagesEEG,001,101723,
AFNE01.JPG,AFNE01.JPG,AFNE01.JPG,AFNE01.JPG,AFNE01.JPG,AFNE01.JPG,,,,,3,8,38,6,,,,,,,,,,,,,,,,,,,AMSA06.jpg,AMNE05.jpg,AMNE08.jpg,AMSA07.jpg,AMSA06.jpg,MS,2,num_8,32,num_4,0.650136490818,,,2017_Sep_18_1445,60.0075255179,FEMA4ImagesEEG,001,101723,
AFNE01.JPG,AFNE01.JPG,AFNE01.JPG,AFNE01.JPG,AFNE01.JPG,AFNE01.JPG,,,,,3,9,39,3,,,,,,,,,,,,,,,,,,,AMNE12.jpg,AMNE06.jpg,AMSA04.jpg,AMSA08.jpg,AMNE12.jpg,MN,1,num_8,16,num_8,0.750429871259,,,2017_Sep_18_1445,60.0075255179,FEMA4ImagesEEG,001,101723,
AFNE01.JPG,AFNE01.JPG,AFNE01.JPG,AFNE01.JPG,AFNE01.JPG,AFNE01.JPG,,,,,4,0,40,8,,,,,,,,,,,,,,,,,,,AMSA18.jpg,AMNE02.jpg,AMSA13.jpg,AMNE06.jpg,AMSA13.jpg,MS,2,num_2,32,num_8,0.850150090177,,,2017_Sep_18_1445,60.0075255179,FEMA4ImagesEEG,001,101723,
AFNE01.JPG,AFNE01.JPG,AFNE01.JPG,AFNE01.JPG,AFNE01.JPG,AFNE01.JPG,,,,,4,1,41,3,,,,,,,,,,,,,,,,,,,AMNE07.jpg,AMSA16.jpg,AMSA13.jpg,AMNE01.jpg,AMNE07.jpg,MN,1,num_8,32,num_2,2.10001978977,,,2017_Sep_18_1445,60.0075255179,FEMA4ImagesEEG,001,101723,
AFNE01.JPG,AFNE01.JPG,AFNE01.JPG,AFNE01.JPG,AFNE01.JPG,AFNE01.JPG,,,,,4,2,42,0,,,,,,,,,,,,,,,,,,,AMSA07.jpg,AMNE12.jpg,AMSA20.jpg,AMNE01.jpg,AMNE12.jpg,MN,1,num_6,16,num_6,0.749958063243,,,2017_Sep_18_1445,60.0075255179,FEMA4ImagesEEG,001,101723,
AFNE01.JPG,AFNE01.JPG,AFNE01.JPG,AFNE01.JPG,AFNE01.JPG,AFNE01.JPG,,,,,4,3,43,5,,,,,,,,,,,,,,,,,,,AMSA12.jpg,AMSA09.jpg,AMNE20.jpg,AMNE19.jpg,AMNE20.jpg,MN,1,num_2,16,num_2,1.18348010909,,,2017_Sep_18_1445,60.0075255179,FEMA4ImagesEEG,001,101723,
AFNE01.JPG,AFNE01.JPG,AFNE01.JPG,AFNE01.JPG,AFNE01.JPG,AFNE01.JPG,,,,,4,4,44,2,,,,,,,,,,,,,,,,,,,AMNE05.jpg,AMNE03.jpg,AMSA18.jpg,AMSA14.jpg,AMSA18.jpg,MS,2,num_2,16,num_2,0.716765994439,,,2017_Sep_18_1445,60.0075255179,FEMA4ImagesEEG,001,101723,
AFNE01.JPG,AFNE01.JPG,AFNE01.JPG,AFNE01.JPG,AFNE01.JPG,AFNE01.JPG,,,,,4,5,45,7,,,,,,,,,,,,,,,,,,,AMNE19.jpg,AMSA05.jpg,AMNE09.jpg,AMSA09.jpg,AMNE19.jpg,MN,1,num_8,16,num_8,0.900075469865,,,2017_Sep_18_1445,60.0075255179,FEMA4ImagesEEG,001,101723,
AFNE01.JPG,AFNE01.JPG,AFNE01.JPG,AFNE01.JPG,AFNE01.JPG,AFNE01.JPG,,,,,4,6,46,4,,,,,,,,,,,,,,,,,,,AMSA02.jpg,AMSA18.jpg,AMNE05.jpg,AMNE19.jpg,AMSA02.jpg,MS,2,num_8,32,num_6,0.583522382658,,,2017_Sep_18_1445,60.0075255179,FEMA4ImagesEEG,001,101723,
AFNE01.JPG,AFNE01.JPG,AFNE01.JPG,AFNE01.JPG,AFNE01.JPG,AFNE01.JPG,,,,,4,7,47,1,,,,,,,,,,,,,,,,,,,AMNE12.jpg,AMSA15.jpg,AMNE08.jpg,AMSA16.jpg,AMSA15.jpg,MS,2,num_6,16,num_6,0.666501592612,,,2017_Sep_18_1445,60.0075255179,FEMA4ImagesEEG,001,101723,
AFNE01.JPG,AFNE01.JPG,AFNE01.JPG,AFNE01.JPG,AFNE01.JPG,AFNE01.JPG,,,,,4,8,48,9,,,,,,,,,,,,,,,,,,,AMSA03.jpg,AMNE18.jpg,AMNE10.jpg,AMSA02.jpg,AMSA03.jpg,MS,2,num_8,32,num_4,0.816713296808,,,2017_Sep_18_1445,60.0075255179,FEMA4ImagesEEG,001,101723,
AFNE01.JPG,AFNE01.JPG,AFNE01.JPG,AFNE01.JPG,AFNE01.JPG,AFNE01.JPG,,,,,4,9,49,6,,,,,,,,,,,,,,,,,,,AMSA08.jpg,AMNE03.jpg,AMSA18.jpg,AMNE18.jpg,AMNE18.jpg,MN,1,num_4,16,num_4,0.533486668253,,,2017_Sep_18_1445,60.0075255179,FEMA4ImagesEEG,001,101723,
AFNE01.JPG,AFNE01.JPG,AFNE01.JPG,AFNE01.JPG,AFNE01.JPG,AFNE01.JPG,,,,,5,0,50,0,,,,,,,,,,,,,,,,,,,AMSA15.jpg,AMNE07.jpg,AMNE11.jpg,AMSA04.jpg,AMNE07.jpg,MN,1,num_6,16,num_6,0.766822556732,,,2017_Sep_18_1445,60.0075255179,FEMA4ImagesEEG,001,101723,
AFNE01.JPG,AFNE01.JPG,AFNE01.JPG,AFNE01.JPG,AFNE01.JPG,AFNE01.JPG,,,,,5,1,51,1,,,,,,,,,,,,,,,,,,,AMSA19.jpg,AMNE09.jpg,AMNE03.jpg,AMSA09.jpg,AMSA19.jpg,MS,2,num_8,32,num_4,1.20011174586,,,2017_Sep_18_1445,60.0075255179,FEMA4ImagesEEG,001,101723,
AFNE01.JPG,AFNE01.JPG,AFNE01.JPG,AFNE01.JPG,AFNE01.JPG,AFNE01.JPG,,,,,5,2,52,9,,,,,,,,,,,,,,,,,,,AMSA11.jpg,AMNE07.jpg,AMNE04.jpg,AMSA13.jpg,AMNE07.jpg,MN,1,num_6,16,num_6,0.766739164479,,,2017_Sep_18_1445,60.0075255179,FEMA4ImagesEEG,001,101723,
AFNE01.JPG,AFNE01.JPG,AFNE01.JPG,AFNE01.JPG,AFNE01.JPG,AFNE01.JPG,,,,,5,3,53,7,,,,,,,,,,,,,,,,,,,AMSA18.jpg,AMSA04.jpg,AMNE15.jpg,AMNE12.jpg,AMNE15.jpg,MN,1,num_2,16,num_2,0.533501422266,,,2017_Sep_18_1445,60.0075255179,FEMA4ImagesEEG,001,101723,
AFNE01.JPG,AFNE01.JPG,AFNE01.JPG,AFNE01.JPG,AFNE01.JPG,AFNE01.JPG,,,,,5,4,54,2,,,,,,,,,,,,,,,,,,,AMSA05.jpg,AMNE16.jpg,AMSA09.jpg,AMNE01.jpg,AMNE16.jpg,MN,1,num_6,32,num_8,1.03344192496,,,2017_Sep_18_1445,60.0075255179,FEMA4ImagesEEG,001,101723,
AFNE01.JPG,AFNE01.JPG,AFNE01.JPG,AFNE01.JPG,AFNE01.JPG,AFNE01.JPG,,,,,5,5,55,6,,,,,,,,,,,,,,,,,,,AMNE06.jpg,AMNE19.jpg,AMSA10.jpg,AMSA17.jpg,AMSA10.jpg,MS,2,num_2,32,num_4,0.833583563799,,,2017_Sep_18_1445,60.0075255179,FEMA4ImagesEEG,001,101723,
AFNE01.JPG,AFNE01.JPG,AFNE01.JPG,AFNE01.JPG,AFNE01.JPG,AFNE01.JPG,,,,,5,6,56,4,,,,,,,,,,,,,,,,,,,AMSA01.jpg,AMSA08.jpg,AMNE05.jpg,AMNE18.jpg,AMNE05.jpg,MN,1,num_2,32,num_4,1.01672336808,,,2017_Sep_18_1445,60.0075255179,FEMA4ImagesEEG,001,101723,
AFNE01.JPG,AFNE01.JPG,AFNE01.JPG,AFNE01.JPG,AFNE01.JPG,AFNE01.JPG,,,,,5,7,57,3,,,,,,,,,,,,,,,,,,,AMSA10.jpg,AMSA17.jpg,AMNE16.jpg,AMNE10.jpg,AMSA10.jpg,MS,2,num_8,16,num_8,0.866762161721,,,2017_Sep_18_1445,60.0075255179,FEMA4ImagesEEG,001,101723,
AFNE01.JPG,AFNE01.JPG,AFNE01.JPG,AFNE01.JPG,AFNE01.JPG,AFNE01.JPG,,,,,5,8,58,8,,,,,,,,,,,,,,,,,,,AMSA04.jpg,AMNE18.jpg,AMNE15.jpg,AMSA12.jpg,AMSA12.jpg,MS,2,num_4,16,num_4,0.916758425068,,,2017_Sep_18_1445,60.0075255179,FEMA4ImagesEEG,001,101723,
AFNE01.JPG,AFNE01.JPG,AFNE01.JPG,AFNE01.JPG,AFNE01.JPG,AFNE01.JPG,,,,,5,9,59,5,,,,,,,,,,,,,,,,,,,AMSA20.jpg,AMNE20.jpg,AMNE12.jpg,AMSA06.jpg,AMNE20.jpg,MN,1,num_6,32,num_4,0.716783955926,,,2017_Sep_18_1445,60.0075255179,FEMA4ImagesEEG,001,101723,
,,,,,,,,,,,,,,,,,,,,,,,,,,,,,,,,,,,,,,,,,,,space,28.4482407907,2017_Sep_18_1445,60.0075255179,FEMA4ImagesEEG,001,101723,
AFNE01.JPG,AFNE01.JPG,AFNE01.JPG,AFNE01.JPG,AFNE01.JPG,AFNE01.JPG,,,,,,,,,0,0,0,0,,,,,,,,,,,,,,,AFSA20.jpg,AFNE05.jpg,AFSA06.jpg,AFNE09.jpg,AFSA20.jpg,FS,4,num_8,16,num_8,0.9667511601,,,2017_Sep_18_1445,60.0075255179,FEMA4ImagesEEG,001,101723,
AFNE01.JPG,AFNE01.JPG,AFNE01.JPG,AFNE01.JPG,AFNE01.JPG,AFNE01.JPG,,,,,,,,,0,1,1,3,,,,,,,,,,,,,,,AFNE07.jpg,AFSA08.jpg,AFNE03.jpg,AFSA13.jpg,AFNE07.jpg,FN,3,num_8,16,num_8,0.616745563224,,,2017_Sep_18_1445,60.0075255179,FEMA4ImagesEEG,001,101723,
AFNE01.JPG,AFNE01.JPG,AFNE01.JPG,AFNE01.JPG,AFNE01.JPG,AFNE01.JPG,,,,,,,,,0,2,2,7,,,,,,,,,,,,,,,AFNE05.jpg,AFSA05.jpg,AFNE04.jpg,AFSA12.jpg,AFSA05.jpg,FS,4,num_6,32,num_4,0.566740319133,,,2017_Sep_18_1445,60.0075255179,FEMA4ImagesEEG,001,101723,
AFNE01.JPG,AFNE01.JPG,AFNE01.JPG,AFNE01.JPG,AFNE01.JPG,AFNE01.JPG,,,,,,,,,0,3,3,2,,,,,,,,,,,,,,,AFSA13.jpg,AFNE12.jpg,AFSA20.jpg,AFNE01.jpg,AFNE01.jpg,FN,3,num_4,16,num_4,1.10007335315,,,2017_Sep_18_1445,60.0075255179,FEMA4ImagesEEG,001,101723,
AFNE01.JPG,AFNE01.JPG,AFNE01.JPG,AFNE01.JPG,AFNE01.JPG,AFNE01.JPG,,,,,,,,,0,4,4,9,,,,,,,,,,,,,,,AFNE04.jpg,AFNE13.jpg,AFSA17.jpg,AFSA02.jpg,AFNE04.jpg,FN,3,num_8,16,num_8,0.76678150217,,,2017_Sep_18_1445,60.0075255179,FEMA4ImagesEEG,001,101723,
AFNE01.JPG,AFNE01.JPG,AFNE01.JPG,AFNE01.JPG,AFNE01.JPG,AFNE01.JPG,,,,,,,,,0,5,5,1,,,,,,,,,,,,,,,AFNE13.jpg,AFSA06.jpg,AFNE17.jpg,AFSA18.jpg,AFSA06.jpg,FS,4,num_6,16,num_6,1.01680804347,,,2017_Sep_18_1445,60.0075255179,FEMA4ImagesEEG,001,101723,
AFNE01.JPG,AFNE01.JPG,AFNE01.JPG,AFNE01.JPG,AFNE01.JPG,AFNE01.JPG,,,,,,,,,0,6,6,4,,,,,,,,,,,,,,,AFSA10.jpg,AFNE20.jpg,AFSA08.jpg,AFNE16.jpg,AFSA08.jpg,FS,4,num_2,32,num_4,0.867037997814,,,2017_Sep_18_1445,60.0075255179,FEMA4ImagesEEG,001,101723,
AFNE01.JPG,AFNE01.JPG,AFNE01.JPG,AFNE01.JPG,AFNE01.JPG,AFNE01.JPG,,,,,,,,,0,7,7,8,,,,,,,,,,,,,,,AFNE10.jpg,AFSA10.jpg,AFSA18.jpg,AFNE19.jpg,AFNE19.jpg,FN,3,num_4,32,num_2,1.15007346543,,,2017_Sep_18_1445,60.0075255179,FEMA4ImagesEEG,001,101723,
AFNE01.JPG,AFNE01.JPG,AFNE01.JPG,AFNE01.JPG,AFNE01.JPG,AFNE01.JPG,,,,,,,,,0,8,8,6,,,,,,,,,,,,,,,AFNE08.jpg,AFSA05.jpg,AFSA08.jpg,AFNE12.jpg,AFNE12.jpg,FN,3,num_4,16,num_4,0.783449382288,,,2017_Sep_18_1445,60.0075255179,FEMA4ImagesEEG,001,101723,
AFNE01.JPG,AFNE01.JPG,AFNE01.JPG,AFNE01.JPG,AFNE01.JPG,AFNE01.JPG,,,,,,,,,0,9,9,5,,,,,,,,,,,,,,,AFSA03.jpg,AFNE09.jpg,AFSA16.jpg,AFNE12.jpg,AFSA03.jpg,FS,4,num_8,32,num_6,0.783475682838,,,2017_Sep_18_1445,60.0075255179,FEMA4ImagesEEG,001,101723,
AFNE01.JPG,AFNE01.JPG,AFNE01.JPG,AFNE01.JPG,AFNE01.JPG,AFNE01.JPG,,,,,,,,,1,0,10,5,,,,,,,,,,,,,,,AFNE12.jpg,AFNE10.jpg,AFSA09.jpg,AFSA20.jpg,AFSA20.jpg,FS,4,num_4,32,num_2,0.583493516082,,,2017_Sep_18_1445,60.0075255179,FEMA4ImagesEEG,001,101723,
AFNE01.JPG,AFNE01.JPG,AFNE01.JPG,AFNE01.JPG,AFNE01.JPG,AFNE01.JPG,,,,,,,,,1,1,11,6,,,,,,,,,,,,,,,AFNE05.jpg,AFSA13.jpg,AFSA09.jpg,AFNE04.jpg,AFNE05.jpg,FN,3,num_8,32,num_2,0.833480927162,,,2017_Sep_18_1445,60.0075255179,FEMA4ImagesEEG,001,101723,
AFNE01.JPG,AFNE01.JPG,AFNE01.JPG,AFNE01.JPG,AFNE01.JPG,AFNE01.JPG,,,,,,,,,1,2,12,3,,,,,,,,,,,,,,,AFSA20.jpg,AFNE19.jpg,AFSA08.jpg,AFNE07.jpg,AFSA08.jpg,FS,4,num_2,16,num_2,0.933502320433,,,2017_Sep_18_1445,60.0075255179,FEMA4ImagesEEG,001,101723,
AFNE01.JPG,AFNE01.JPG,AFNE01.JPG,AFNE01.JPG,AFNE01.JPG,AFNE01.JPG,,,,,,,,,1,3,13,0,,,,,,,,,,,,,,,AFSA05.jpg,AFSA10.jpg,AFNE07.jpg,AFNE19.jpg,AFNE19.jpg,FN,3,num_4,16,num_4,0.850121544208,,,2017_Sep_18_1445,60.0075255179,FEMA4ImagesEEG,001,101723,
AFNE01.JPG,AFNE01.JPG,AFNE01.JPG,AFNE01.JPG,AFNE01.JPG,AFNE01.JPG,,,,,,,,,1,4,14,7,,,,,,,,,,,,,,,AFSA20.jpg,AFNE03.jpg,AFSA06.jpg,AFNE06.jpg,AFNE06.jpg,FN,3,num_4,16,num_4,0.683489571093,,,2017_Sep_18_1445,60.0075255179,FEMA4ImagesEEG,001,101723,
AFNE01.JPG,AFNE01.JPG,AFNE01.JPG,AFNE01.JPG,AFNE01.JPG,AFNE01.JPG,,,,,,,,,1,5,15,9,,,,,,,,,,,,,,,AFNE01.jpg,AFSA14.jpg,AFNE12.jpg,AFSA01.jpg,AFNE01.jpg,FN,3,num_8,32,num_6,0.600149207981,,,2017_Sep_18_1445,60.0075255179,FEMA4ImagesEEG,001,101723,
AFNE01.JPG,AFNE01.JPG,AFNE01.JPG,AFNE01.JPG,AFNE01.JPG,AFNE01.JPG,,,,,,,,,1,6,16,1,,,,,,,,,,,,,,,AFSA08.jpg,AFNE07.jpg,AFSA03.jpg,AFNE01.jpg,AFNE01.jpg,FN,3,num_4,16,num_4,0.450177737977,,,2017_Sep_18_1445,60.0075255179,FEMA4ImagesEEG,001,101723,
AFNE01.JPG,AFNE01.JPG,AFNE01.JPG,AFNE01.JPG,AFNE01.JPG,AFNE01.JPG,,,,,,,,,1,7,17,4,,,,,,,,,,,,,,,AFNE19.jpg,AFSA16.jpg,AFNE01.jpg,AFSA12.jpg,AFNE01.jpg,FN,3,num_2,32,num_6,0.800095451996,,,2017_Sep_18_1445,60.0075255179,FEMA4ImagesEEG,001,101723,
AFNE01.JPG,AFNE01.JPG,AFNE01.JPG,AFNE01.JPG,AFNE01.JPG,AFNE01.JPG,,,,,,,,,1,8,18,8,,,,,,,,,,,,,,,AFSA15.jpg,AFNE09.jpg,AFSA03.jpg,AFNE06.jpg,AFSA15.jpg,FS,4,num_8,32,num_6,0.900118128397,,,2017_Sep_18_1445,60.0075255179,FEMA4ImagesEEG,001,101723,
AFNE01.JPG,AFNE01.JPG,AFNE01.JPG,AFNE01.JPG,AFNE01.JPG,AFNE01.JPG,,,,,,,,,1,9,19,2,,,,,,,,,,,,,,,AFSA08.jpg,AFSA05.jpg,AFNE01.jpg,AFNE03.jpg,AFSA08.jpg,FS,4,num_8,16,num_8,0.833449494559,,,2017_Sep_18_1445,60.0075255179,FEMA4ImagesEEG,001,101723,
AFNE01.JPG,AFNE01.JPG,AFNE01.JPG,AFNE01.JPG,AFNE01.JPG,AFNE01.JPG,,,,,,,,,2,0,20,2,,,,,,,,,,,,,,,AFNE16.jpg,AFSA05.jpg,AFSA11.jpg,AFNE20.jpg,AFNE20.jpg,FN,3,num_4,16,num_4,0.68348443904,,,2017_Sep_18_1445,60.0075255179,FEMA4ImagesEEG,001,101723,
AFNE01.JPG,AFNE01.JPG,AFNE01.JPG,AFNE01.JPG,AFNE01.JPG,AFNE01.JPG,,,,,,,,,2,1,21,4,,,,,,,,,,,,,,,AFNE08.jpg,AFNE11.jpg,AFSA19.jpg,AFSA09.jpg,AFSA09.jpg,FS,4,num_4,32,num_8,0.533481857274,,,2017_Sep_18_1445,60.0075255179,FEMA4ImagesEEG,001,101723,
AFNE01.JPG,AFNE01.JPG,AFNE01.JPG,AFNE01.JPG,AFNE01.JPG,AFNE01.JPG,,,,,,,,,2,2,22,6,,,,,,,,,,,,,,,AFSA18.jpg,AFNE09.jpg,AFNE14.jpg,AFSA07.jpg,AFNE09.jpg,FN,3,num_6,16,num_6,0.649960725568,,,2017_Sep_18_1445,60.0075255179,FEMA4ImagesEEG,001,101723,
AFNE01.JPG,AFNE01.JPG,AFNE01.JPG,AFNE01.JPG,AFNE01.JPG,AFNE01.JPG,,,,,,,,,2,3,23,3,,,,,,,,,,,,,,,AFNE08.jpg,AFNE03.jpg,AFSA10.jpg,AFSA09.jpg,AFNE03.jpg,FN,3,num_6,32,num_4,0.633467327571,,,2017_Sep_18_1445,60.0075255179,FEMA4ImagesEEG,001,101723,
AFNE01.JPG,AFNE01.JPG,AFNE01.JPG,AFNE01.JPG,AFNE01.JPG,AFNE01.JPG,,,,,,,,,2,4,24,0,,,,,,,,,,,,,,,AFSA07.jpg,AFSA09.jpg,AFNE08.jpg,AFNE16.jpg,AFSA09.jpg,FS,4,num_6,16,num_6,0.750137356808,,,2017_Sep_18_1445,60.0075255179,FEMA4ImagesEEG,001,101723,
AFNE01.JPG,AFNE01.JPG,AFNE01.JPG,AFNE01.JPG,AFNE01.JPG,AFNE01.JPG,,,,,,,,,2,5,25,5,,,,,,,,,,,,,,,AFSA15.jpg,AFNE10.jpg,AFNE16.jpg,AFSA03.jpg,AFNE16.jpg,FN,3,num_2,32,num_4,0.716729750857,,,2017_Sep_18_1445,60.0075255179,FEMA4ImagesEEG,001,101723,
AFNE01.JPG,AFNE01.JPG,AFNE01.JPG,AFNE01.JPG,AFNE01.JPG,AFNE01.JPG,,,,,,,,,2,6,26,9,,,,,,,,,,,,,,,AFSA09.jpg,AFSA03.jpg,AFNE05.jpg,AFNE13.jpg,AFSA09.jpg,FS,4,num_8,16,num_8,0.600130926119,,,2017_Sep_18_1445,60.0075255179,FEMA4ImagesEEG,001,101723,
AFNE01.JPG,AFNE01.JPG,AFNE01.JPG,AFNE01.JPG,AFNE01.JPG,AFNE01.JPG,,,,,,,,,2,7,27,8,,,,,,,,,,,,,,,AFSA16.jpg,AFNE09.jpg,AFSA19.jpg,AFNE20.jpg,AFNE09.jpg,FN,3,num_6,16,num_6,0.566806070972,,,2017_Sep_18_1445,60.0075255179,FEMA4ImagesEEG,001,101723,
AFNE01.JPG,AFNE01.JPG,AFNE01.JPG,AFNE01.JPG,AFNE01.JPG,AFNE01.JPG,,,,,,,,,2,8,28,7,,,,,,,,,,,,,,,AFSA03.jpg,AFNE12.jpg,AFNE09.jpg,AFSA10.jpg,AFSA10.jpg,FS,4,num_4,32,num_6,0.816735748667,,,2017_Sep_18_1445,60.0075255179,FEMA4ImagesEEG,001,101723,
AFNE01.JPG,AFNE01.JPG,AFNE01.JPG,AFNE01.JPG,AFNE01.JPG,AFNE01.JPG,,,,,,,,,2,9,29,1,,,,,,,,,,,,,,,AFSA06.jpg,AFNE01.jpg,AFSA02.jpg,AFNE17.jpg,AFSA02.jpg,FS,4,num_2,32,num_8,1.63374188077,,,2017_Sep_18_1445,60.0075255179,FEMA4ImagesEEG,001,101723,
AFNE01.JPG,AFNE01.JPG,AFNE01.JPG,AFNE01.JPG,AFNE01.JPG,AFNE01.JPG,,,,,,,,,3,0,30,6,,,,,,,,,,,,,,,AFSA02.jpg,AFSA09.jpg,AFNE16.jpg,AFNE18.jpg,AFNE16.jpg,FN,3,num_2,16,num_2,0.766785351094,,,2017_Sep_18_1445,60.0075255179,FEMA4ImagesEEG,001,101723,
AFNE01.JPG,AFNE01.JPG,AFNE01.JPG,AFNE01.JPG,AFNE01.JPG,AFNE01.JPG,,,,,,,,,3,1,31,2,,,,,,,,,,,,,,,AFSA07.jpg,AFSA17.jpg,AFNE01.jpg,AFNE16.jpg,AFNE16.jpg,FN,3,num_4,32,num_2,0.783462532563,,,2017_Sep_18_1445,60.0075255179,FEMA4ImagesEEG,001,101723,
AFNE01.JPG,AFNE01.JPG,AFNE01.JPG,AFNE01.JPG,AFNE01.JPG,AFNE01.JPG,,,,,,,,,3,2,32,8,,,,,,,,,,,,,,,AFNE13.jpg,AFSA08.jpg,AFNE15.jpg,AFSA09.jpg,AFSA08.jpg,FS,4,num_6,16,num_6,1.35008866852,,,2017_Sep_18_1445,60.0075255179,FEMA4ImagesEEG,001,101723,
AFNE01.JPG,AFNE01.JPG,AFNE01.JPG,AFNE01.JPG,AFNE01.JPG,AFNE01.JPG,,,,,,,,,3,3,33,9,,,,,,,,,,,,,,,AFNE08.jpg,AFNE02.jpg,AFSA12.jpg,AFSA16.jpg,AFNE02.jpg,FN,3,num_6,32,num_2,0.750110414578,,,2017_Sep_18_1445,60.0075255179,FEMA4ImagesEEG,001,101723,
AFNE01.JPG,AFNE01.JPG,AFNE01.JPG,AFNE01.JPG,AFNE01.JPG,AFNE01.JPG,,,,,,,,,3,4,34,7,,,,,,,,,,,,,,,AFSA11.jpg,AFSA01.jpg,AFNE03.jpg,AFNE20.jpg,AFNE03.jpg,FN,3,num_2,32,num_4,0.800169863738,,,2017_Sep_18_1445,60.0075255179,FEMA4ImagesEEG,001,101723,
AFNE01.JPG,AFNE01.JPG,AFNE01.JPG,AFNE01.JPG,AFNE01.JPG,AFNE01.JPG,,,,,,,,,3,5,35,5,,,,,,,,,,,,,,,AFSA15.jpg,AFSA07.jpg,AFNE01.jpg,AFNE07.jpg,AFSA15.jpg,FS,4,num_8,32,num_6,0.883462436497,,,2017_Sep_18_1445,60.0075255179,FEMA4ImagesEEG,001,101723,
AFNE01.JPG,AFNE01.JPG,AFNE01.JPG,AFNE01.JPG,AFNE01.JPG,AFNE01.JPG,,,,,,,,,3,6,36,0,,,,,,,,,,,,,,,AFNE10.jpg,AFNE15.jpg,AFSA10.jpg,AFSA09.jpg,AFNE15.jpg,FN,3,num_6,32,num_2,0.616725677392,,,2017_Sep_18_1445,60.0075255179,FEMA4ImagesEEG,001,101723,
AFNE01.JPG,AFNE01.JPG,AFNE01.JPG,AFNE01.JPG,AFNE01.JPG,AFNE01.JPG,,,,,,,,,3,7,37,3,,,,,,,,,,,,,,,AFSA18.jpg,AFNE15.jpg,AFNE06.jpg,AFSA17.jpg,AFNE15.jpg,FN,3,num_6,16,num_6,0.45017132326,,,2017_Sep_18_1445,60.0075255179,FEMA4ImagesEEG,001,101723,
AFNE01.JPG,AFNE01.JPG,AFNE01.JPG,AFNE01.JPG,AFNE01.JPG,AFNE01.JPG,,,,,,,,,3,8,38,4,,,,,,,,,,,,,,,AFSA11.jpg,AFNE13.jpg,AFSA04.jpg,AFNE09.jpg,AFNE13.jpg,FN,3,num_6,16,num_6,1.16678368323,,,2017_Sep_18_1445,60.0075255179,FEMA4ImagesEEG,001,101723,
AFNE01.JPG,AFNE01.JPG,AFNE01.JPG,AFNE01.JPG,AFNE01.JPG,AFNE01.JPG,,,,,,,,,3,9,39,1,,,,,,,,,,,,,,,AFSA20.jpg,AFSA04.jpg,AFNE14.jpg,AFNE08.jpg,AFSA04.jpg,FS,4,num_6,32,num_2,0.816901891725,,,2017_Sep_18_1445,60.0075255179,FEMA4ImagesEEG,001,101723,
AFNE01.JPG,AFNE01.JPG,AFNE01.JPG,AFNE01.JPG,AFNE01.JPG,AFNE01.JPG,,,,,,,,,4,0,40,3,,,,,,,,,,,,,,,AFNE18.jpg,AFNE04.jpg,AFSA04.jpg,AFSA16.jpg,AFSA04.jpg,FS,4,num_2,16,num_2,0.516817184398,,,2017_Sep_18_1445,60.0075255179,FEMA4ImagesEEG,001,101723,
AFNE01.JPG,AFNE01.JPG,AFNE01.JPG,AFNE01.JPG,AFNE01.JPG,AFNE01.JPG,,,,,,,,,4,1,41,1,,,,,,,,,,,,,,,AFNE01.jpg,AFSA17.jpg,AFNE02.jpg,AFSA20.jpg,AFSA17.jpg,FS,4,num_6,32,num_8,0.816867572721,,,2017_Sep_18_1445,60.0075255179,FEMA4ImagesEEG,001,101723,
AFNE01.JPG,AFNE01.JPG,AFNE01.JPG,AFNE01.JPG,AFNE01.JPG,AFNE01.JPG,,,,,,,,,4,2,42,2,,,,,,,,,,,,,,,AFNE05.jpg,AFNE10.jpg,AFSA03.jpg,AFSA10.jpg,AFSA10.jpg,FS,4,num_4,32,num_6,0.600100455573,,,2017_Sep_18_1445,60.0075255179,FEMA4ImagesEEG,001,101723,
AFNE01.JPG,AFNE01.JPG,AFNE01.JPG,AFNE01.JPG,AFNE01.JPG,AFNE01.JPG,,,,,,,,,4,3,43,4,,,,,,,,,,,,,,,AFNE19.jpg,AFNE09.jpg,AFSA07.jpg,AFSA09.jpg,AFNE09.jpg,FN,3,num_6,16,num_6,0.900070658885,,,2017_Sep_18_1445,60.0075255179,FEMA4ImagesEEG,001,101723,
AFNE01.JPG,AFNE01.JPG,AFNE01.JPG,AFNE01.JPG,AFNE01.JPG,AFNE01.JPG,,,,,,,,,4,4,44,6,,,,,,,,,,,,,,,AFSA10.jpg,AFNE12.jpg,AFNE15.jpg,AFSA05.jpg,AFSA10.jpg,FS,4,num_8,32,num_4,0.483477254631,,,2017_Sep_18_1445,60.0075255179,FEMA4ImagesEEG,001,101723,
AFNE01.JPG,AFNE01.JPG,AFNE01.JPG,AFNE01.JPG,AFNE01.JPG,AFNE01.JPG,,,,,,,,,4,5,45,0,,,,,,,,,,,,,,,AFNE04.jpg,AFSA01.jpg,AFNE06.jpg,AFSA03.jpg,AFSA03.jpg,FS,4,num_4,16,num_4,0.700058021815,,,2017_Sep_18_1445,60.0075255179,FEMA4ImagesEEG,001,101723,
AFNE01.JPG,AFNE01.JPG,AFNE01.JPG,AFNE01.JPG,AFNE01.JPG,AFNE01.JPG,,,,,,,,,4,6,46,5,,,,,,,,,,,,,,,AFSA14.jpg,AFSA04.jpg,AFNE16.jpg,AFNE20.jpg,AFSA04.jpg,FS,4,num_6,32,num_2,0.866871854523,,,2017_Sep_18_1445,60.0075255179,FEMA4ImagesEEG,001,101723,
AFNE01.JPG,AFNE01.JPG,AFNE01.JPG,AFNE01.JPG,AFNE01.JPG,AFNE01.JPG,,,,,,,,,4,7,47,7,,,,,,,,,,,,,,,AFSA06.jpg,AFSA09.jpg,AFNE16.jpg,AFNE20.jpg,AFSA09.jpg,FS,4,num_6,16,num_6,0.416847430402,,,2017_Sep_18_1445,60.0075255179,FEMA4ImagesEEG,001,101723,
AFNE01.JPG,AFNE01.JPG,AFNE01.JPG,AFNE01.JPG,AFNE01.JPG,AFNE01.JPG,,,,,,,,,4,8,48,9,,,,,,,,,,,,,,,AFSA08.jpg,AFSA01.jpg,AFNE19.jpg,AFNE14.jpg,AFSA01.jpg,FS,4,num_6,16,num_6,0.750070963753,,,2017_Sep_18_1445,60.0075255179,FEMA4ImagesEEG,001,101723,
AFNE01.JPG,AFNE01.JPG,AFNE01.JPG,AFNE01.JPG,AFNE01.JPG,AFNE01.JPG,,,,,,,,,4,9,49,8,,,,,,,,,,,,,,,AFNE12.jpg,AFSA12.jpg,AFSA09.jpg,AFNE03.jpg,AFSA12.jpg,FS,4,num_6,16,num_6,0.683433120837,,,2017_Sep_18_1445,60.0075255179,FEMA4ImagesEEG,001,101723,
AFNE01.JPG,AFNE01.JPG,AFNE01.JPG,AFNE01.JPG,AFNE01.JPG,AFNE01.JPG,,,,,,,,,5,0,50,2,,,,,,,,,,,,,,,AFSA02.jpg,AFSA12.jpg,AFNE20.jpg,AFNE02.jpg,AFSA12.jpg,FS,4,num_6,16,num_6,0.899831066374,,,2017_Sep_18_1445,60.0075255179,FEMA4ImagesEEG,001,101723,
AFNE01.JPG,AFNE01.JPG,AFNE01.JPG,AFNE01.JPG,AFNE01.JPG,AFNE01.JPG,,,,,,,,,5,1,51,6,,,,,,,,,,,,,,,AFNE17.jpg,AFSA05.jpg,AFNE07.jpg,AFSA04.jpg,AFNE17.jpg,FN,3,num_8,32,num_6,0.816776803462,,,2017_Sep_18_1445,60.0075255179,FEMA4ImagesEEG,001,101723,
AFNE01.JPG,AFNE01.JPG,AFNE01.JPG,AFNE01.JPG,AFNE01.JPG,AFNE01.JPG,,,,,,,,,5,2,52,4,,,,,,,,,,,,,,,AFNE17.jpg,AFSA06.jpg,AFNE20.jpg,AFSA11.jpg,AFNE17.jpg,FN,3,num_8,16,num_8,0.633498760173,,,2017_Sep_18_1445,60.0075255179,FEMA4ImagesEEG,001,101723,
AFNE01.JPG,AFNE01.JPG,AFNE01.JPG,AFNE01.JPG,AFNE01.JPG,AFNE01.JPG,,,,,,,,,5,3,53,5,,,,,,,,,,,,,,,AFNE13.jpg,AFSA16.jpg,AFSA06.jpg,AFNE09.jpg,AFNE13.jpg,FN,3,num_8,32,num_2,0.616736261873,,,2017_Sep_18_1445,60.0075255179,FEMA4ImagesEEG,001,101723,
AFNE01.JPG,AFNE01.JPG,AFNE01.JPG,AFNE01.JPG,AFNE01.JPG,AFNE01.JPG,,,,,,,,,5,4,54,8,,,,,,,,,,,,,,,AFSA06.jpg,AFSA17.jpg,AFNE12.jpg,AFNE20.jpg,AFNE12.jpg,FN,3,num_2,32,num_4,0.983437963994,,,2017_Sep_18_1445,60.0075255179,FEMA4ImagesEEG,001,101723,
AFNE01.JPG,AFNE01.JPG,AFNE01.JPG,AFNE01.JPG,AFNE01.JPG,AFNE01.JPG,,,,,,,,,5,5,55,0,,,,,,,,,,,,,,,AFSA10.jpg,AFNE17.jpg,AFSA14.jpg,AFNE07.jpg,AFSA14.jpg,FS,4,num_2,16,num_2,0.95012786286,,,2017_Sep_18_1445,60.0075255179,FEMA4ImagesEEG,001,101723,
AFNE01.JPG,AFNE01.JPG,AFNE01.JPG,AFNE01.JPG,AFNE01.JPG,AFNE01.JPG,,,,,,,,,5,6,56,7,,,,,,,,,,,,,,,AFNE01.jpg,AFSA06.jpg,AFNE05.jpg,AFSA15.jpg,AFNE01.jpg,FN,3,num_8,16,num_8,0.966475965455,,,2017_Sep_18_1445,60.0075255179,FEMA4ImagesEEG,001,101723,
AFNE01.JPG,AFNE01.JPG,AFNE01.JPG,AFNE01.JPG,AFNE01.JPG,AFNE01.JPG,,,,,,,,,5,7,57,1,,,,,,,,,,,,,,,AFSA14.jpg,AFNE19.jpg,AFSA03.jpg,AFNE02.jpg,AFSA14.jpg,FS,4,num_8,32,num_2,0.850136298453,,,2017_Sep_18_1445,60.0075255179,FEMA4ImagesEEG,001,101723,
AFNE01.JPG,AFNE01.JPG,AFNE01.JPG,AFNE01.JPG,AFNE01.JPG,AFNE01.JPG,,,,,,,,,5,8,58,3,,,,,,,,,,,,,,,AFNE14.jpg,AFSA09.jpg,AFNE11.jpg,AFSA11.jpg,AFNE14.jpg,FN,3,num_8,16,num_8,0.933414437808,,,2017_Sep_18_1445,60.0075255179,FEMA4ImagesEEG,001,101723,
AFNE01.JPG,AFNE01.JPG,AFNE01.JPG,AFNE01.JPG,AFNE01.JPG,AFNE01.JPG,,,,,,,,,5,9,59,9,,,,,,,,,,,,,,,AFNE06.jpg,AFSA16.jpg,AFSA03.jpg,AFNE07.jpg,AFSA16.jpg,FS,4,num_6,32,num_2,1.36675847298,,,2017_Sep_18_1445,60.0075255179,FEMA4ImagesEEG,001,101723,
,,,,,,,,,,,,,,,,,,,,,,,,,,,,,,,,,,,,,,,,,,,space,15.6319726808,2017_Sep_18_1445,60.0075255179,FEMA4ImagesEEG,001,101723,
AFNE01.JPG,AFNE01.JPG,AFNE01.JPG,AFNE01.JPG,AFNE01.JPG,AFNE01.JPG,,,,,,,,,,,,,0,0,0,4,,,,,,,,,,,AMNE08.jpg,AMSA08.jpg,AMSA16.jpg,AMNE19.jpg,AMNE08.jpg,MN,1,num_8,32,num_6,0.816754993051,,,2017_Sep_18_1445,60.0075255179,FEMA4ImagesEEG,001,101723,
AFNE01.JPG,AFNE01.JPG,AFNE01.JPG,AFNE01.JPG,AFNE01.JPG,AFNE01.JPG,,,,,,,,,,,,,0,1,1,8,,,,,,,,,,,AMNE16.jpg,AMNE14.jpg,AMSA15.jpg,AMSA05.jpg,AMNE16.jpg,MN,1,num_8,16,num_8,0.933679047972,,,2017_Sep_18_1445,60.0075255179,FEMA4ImagesEEG,001,101723,
AFNE01.JPG,AFNE01.JPG,AFNE01.JPG,AFNE01.JPG,AFNE01.JPG,AFNE01.JPG,,,,,,,,,,,,,0,2,2,6,,,,,,,,,,,AMNE12.jpg,AMNE06.jpg,AMSA11.jpg,AMSA16.jpg,AMSA16.jpg,MS,2,num_4,32,num_2,0.733480702387,,,2017_Sep_18_1445,60.0075255179,FEMA4ImagesEEG,001,101723,
AFNE01.JPG,AFNE01.JPG,AFNE01.JPG,AFNE01.JPG,AFNE01.JPG,AFNE01.JPG,,,,,,,,,,,,,0,3,3,5,,,,,,,,,,,AMNE20.jpg,AMNE13.jpg,AMSA19.jpg,AMSA14.jpg,AMNE20.jpg,MN,1,num_8,16,num_8,0.80021605012,,,2017_Sep_18_1445,60.0075255179,FEMA4ImagesEEG,001,101723,
AFNE01.JPG,AFNE01.JPG,AFNE01.JPG,AFNE01.JPG,AFNE01.JPG,AFNE01.JPG,,,,,,,,,,,,,0,4,4,0,,,,,,,,,,,AMSA01.jpg,AMNE02.jpg,AMNE11.jpg,AMSA18.jpg,AMNE02.jpg,MN,1,num_6,16,num_6,1.03344160435,,,2017_Sep_18_1445,60.0075255179,FEMA4ImagesEEG,001,101723,
AFNE01.JPG,AFNE01.JPG,AFNE01.JPG,AFNE01.JPG,AFNE01.JPG,AFNE01.JPG,,,,,,,,,,,,,0,5,5,2,,,,,,,,,,,AMNE16.jpg,AMNE15.jpg,AMSA14.jpg,AMSA11.jpg,AMNE15.jpg,MN,1,num_6,32,num_2,0.933516112156,,,2017_Sep_18_1445,60.0075255179,FEMA4ImagesEEG,001,101723,
AFNE01.JPG,AFNE01.JPG,AFNE01.JPG,AFNE01.JPG,AFNE01.JPG,AFNE01.JPG,,,,,,,,,,,,,0,6,6,9,,,,,,,,,,,AMNE02.jpg,AMNE18.jpg,AMSA10.jpg,AMSA08.jpg,AMNE02.jpg,MN,1,num_8,32,num_6,0.933444907889,,,2017_Sep_18_1445,60.0075255179,FEMA4ImagesEEG,001,101723,
AFNE01.JPG,AFNE01.JPG,AFNE01.JPG,AFNE01.JPG,AFNE01.JPG,AFNE01.JPG,,,,,,,,,,,,,0,7,7,3,,,,,,,,,,,AMSA04.jpg,AMSA18.jpg,AMNE20.jpg,AMNE07.jpg,AMNE20.jpg,MN,1,num_2,32,num_6,1.1000823339,,,2017_Sep_18_1445,60.0075255179,FEMA4ImagesEEG,001,101723,
AFNE01.JPG,AFNE01.JPG,AFNE01.JPG,AFNE01.JPG,AFNE01.JPG,AFNE01.JPG,,,,,,,,,,,,,0,8,8,7,,,,,,,,,,,AMNE19.jpg,AMSA06.jpg,AMSA11.jpg,AMNE05.jpg,AMSA06.jpg,MS,2,num_6,32,num_8,0.300363109447,,,2017_Sep_18_1445,60.0075255179,FEMA4ImagesEEG,001,101723,
AFNE01.JPG,AFNE01.JPG,AFNE01.JPG,AFNE01.JPG,AFNE01.JPG,AFNE01.JPG,,,,,,,,,,,,,0,9,9,1,,,,,,,,,,,AMNE15.jpg,AMNE01.jpg,AMSA01.jpg,AMSA11.jpg,AMNE01.jpg,MN,1,num_6,32,num_2,0.450268186396,,,2017_Sep_18_1445,60.0075255179,FEMA4ImagesEEG,001,101723,
AFNE01.JPG,AFNE01.JPG,AFNE01.JPG,AFNE01.JPG,AFNE01.JPG,AFNE01.JPG,,,,,,,,,,,,,1,0,10,4,,,,,,,,,,,AMNE11.jpg,AMSA19.jpg,AMNE06.jpg,AMSA07.jpg,AMSA07.jpg,MS,2,num_4,16,num_4,0.666814313736,,,2017_Sep_18_1445,60.0075255179,FEMA4ImagesEEG,001,101723,
AFNE01.JPG,AFNE01.JPG,AFNE01.JPG,AFNE01.JPG,AFNE01.JPG,AFNE01.JPG,,,,,,,,,,,,,1,1,11,7,,,,,,,,,,,AMSA13.jpg,AMNE17.jpg,AMSA12.jpg,AMNE03.jpg,AMNE03.jpg,MN,1,num_4,32,num_8,1.05009825877,,,2017_Sep_18_1445,60.0075255179,FEMA4ImagesEEG,001,101723,
AFNE01.JPG,AFNE01.JPG,AFNE01.JPG,AFNE01.JPG,AFNE01.JPG,AFNE01.JPG,,,,,,,,,,,,,1,2,12,9,,,,,,,,,,,AMSA05.jpg,AMNE03.jpg,AMNE12.jpg,AMSA17.jpg,AMSA17.jpg,MS,2,num_4,16,num_4,0.45017998293,,,2017_Sep_18_1445,60.0075255179,FEMA4ImagesEEG,001,101723,
AFNE01.JPG,AFNE01.JPG,AFNE01.JPG,AFNE01.JPG,AFNE01.JPG,AFNE01.JPG,,,,,,,,,,,,,1,3,13,1,,,,,,,,,,,AMSA06.jpg,AMNE02.jpg,AMNE01.jpg,AMSA01.jpg,AMNE02.jpg,MN,1,num_6,16,num_6,0.716824048199,,,2017_Sep_18_1445,60.0075255179,FEMA4ImagesEEG,001,101723,
AFNE01.JPG,AFNE01.JPG,AFNE01.JPG,AFNE01.JPG,AFNE01.JPG,AFNE01.JPG,,,,,,,,,,,,,1,4,14,5,,,,,,,,,,,AMSA17.jpg,AMSA14.jpg,AMNE09.jpg,AMNE10.jpg,AMNE10.jpg,MN,1,num_4,32,num_2,1.13346107327,,,2017_Sep_18_1445,60.0075255179,FEMA4ImagesEEG,001,101723,
AFNE01.JPG,AFNE01.JPG,AFNE01.JPG,AFNE01.JPG,AFNE01.JPG,AFNE01.JPG,,,,,,,,,,,,,1,5,15,0,,,,,,,,,,,AMSA19.jpg,AMNE11.jpg,AMSA07.jpg,AMNE16.jpg,AMNE11.jpg,MN,1,num_6,32,num_8,0.633483043872,,,2017_Sep_18_1445,60.0075255179,FEMA4ImagesEEG,001,101723,
AFNE01.JPG,AFNE01.JPG,AFNE01.JPG,AFNE01.JPG,AFNE01.JPG,AFNE01.JPG,,,,,,,,,,,,,1,6,16,3,,,,,,,,,,,AMSA19.jpg,AMSA17.jpg,AMNE12.jpg,AMNE18.jpg,AMNE18.jpg,MN,1,num_4,32,num_8,0.650148357963,,,2017_Sep_18_1445,60.0075255179,FEMA4ImagesEEG,001,101723,
AFNE01.JPG,AFNE01.JPG,AFNE01.JPG,AFNE01.JPG,AFNE01.JPG,AFNE01.JPG,,,,,,,,,,,,,1,7,17,2,,,,,,,,,,,AMNE13.jpg,AMSA17.jpg,AMNE18.jpg,AMSA04.jpg,AMNE13.jpg,MN,1,num_8,16,num_8,0.650086776121,,,2017_Sep_18_1445,60.0075255179,FEMA4ImagesEEG,001,101723,
AFNE01.JPG,AFNE01.JPG,AFNE01.JPG,AFNE01.JPG,AFNE01.JPG,AFNE01.JPG,,,,,,,,,,,,,1,8,18,8,,,,,,,,,,,AMSA01.jpg,AMSA11.jpg,AMNE15.jpg,AMNE09.jpg,AMSA11.jpg,MS,2,num_6,16,num_6,0.816858912818,,,2017_Sep_18_1445,60.0075255179,FEMA4ImagesEEG,001,101723,
AFNE01.JPG,AFNE01.JPG,AFNE01.JPG,AFNE01.JPG,AFNE01.JPG,AFNE01.JPG,,,,,,,,,,,,,1,9,19,6,,,,,,,,,,,AMSA15.jpg,AMNE06.jpg,AMSA06.jpg,AMNE18.jpg,AMNE06.jpg,MN,1,num_6,32,num_2,0.800137148472,,,2017_Sep_18_1445,60.0075255179,FEMA4ImagesEEG,001,101723,
AFNE01.JPG,AFNE01.JPG,AFNE01.JPG,AFNE01.JPG,AFNE01.JPG,AFNE01.JPG,,,,,,,,,,,,,2,0,20,5,,,,,,,,,,,AMSA15.jpg,AMNE18.jpg,AMSA09.jpg,AMNE17.jpg,AMNE17.jpg,MN,1,num_4,16,num_4,0.616797843948,,,2017_Sep_18_1445,60.0075255179,FEMA4ImagesEEG,001,101723,
AFNE01.JPG,AFNE01.JPG,AFNE01.JPG,AFNE01.JPG,AFNE01.JPG,AFNE01.JPG,,,,,,,,,,,,,2,1,21,2,,,,,,,,,,,AMNE13.jpg,AMSA08.jpg,AMNE19.jpg,AMSA10.jpg,AMSA10.jpg,MS,2,num_4,16,num_4,0.966809855541,,,2017_Sep_18_1445,60.0075255179,FEMA4ImagesEEG,001,101723,
AFNE01.JPG,AFNE01.JPG,AFNE01.JPG,AFNE01.JPG,AFNE01.JPG,AFNE01.JPG,,,,,,,,,,,,,2,2,22,1,,,,,,,,,,,AMNE02.jpg,AMNE10.jpg,AMSA08.jpg,AMSA12.jpg,AMNE10.jpg,MN,1,num_6,32,num_8,0.883441267535,,,2017_Sep_18_1445,60.0075255179,FEMA4ImagesEEG,001,101723,
AFNE01.JPG,AFNE01.JPG,AFNE01.JPG,AFNE01.JPG,AFNE01.JPG,AFNE01.JPG,,,,,,,,,,,,,2,3,23,3,,,,,,,,,,,AMNE13.jpg,AMSA06.jpg,AMNE16.jpg,AMSA02.jpg,AMNE16.jpg,MN,1,num_2,32,num_8,0.700119924499,,,2017_Sep_18_1445,60.0075255179,FEMA4ImagesEEG,001,101723,
AFNE01.JPG,AFNE01.JPG,AFNE01.JPG,AFNE01.JPG,AFNE01.JPG,AFNE01.JPG,,,,,,,,,,,,,2,4,24,6,,,,,,,,,,,AMSA09.jpg,AMNE01.jpg,AMSA05.jpg,AMNE06.jpg,AMNE06.jpg,MN,1,num_4,32,num_2,0.666782239685,,,2017_Sep_18_1445,60.0075255179,FEMA4ImagesEEG,001,101723,
AFNE01.JPG,AFNE01.JPG,AFNE01.JPG,AFNE01.JPG,AFNE01.JPG,AFNE01.JPG,,,,,,,,,,,,,2,5,25,9,,,,,,,,,,,AMNE06.jpg,AMSA01.jpg,AMSA06.jpg,AMNE12.jpg,AMSA06.jpg,MS,2,num_2,32,num_8,0.900110109942,,,2017_Sep_18_1445,60.0075255179,FEMA4ImagesEEG,001,101723,
AFNE01.JPG,AFNE01.JPG,AFNE01.JPG,AFNE01.JPG,AFNE01.JPG,AFNE01.JPG,,,,,,,,,,,,,2,6,26,0,,,,,,,,,,,AMSA08.jpg,AMNE08.jpg,AMSA05.jpg,AMNE16.jpg,AMSA05.jpg,MS,2,num_2,16,num_2,0.53346774471,,,2017_Sep_18_1445,60.0075255179,FEMA4ImagesEEG,001,101723,
AFNE01.JPG,AFNE01.JPG,AFNE01.JPG,AFNE01.JPG,AFNE01.JPG,AFNE01.JPG,,,,,,,,,,,,,2,7,27,8,,,,,,,,,,,AMNE02.jpg,AMSA14.jpg,AMSA16.jpg,AMNE19.jpg,AMSA16.jpg,MS,2,num_2,32,num_4,0.550162567059,,,2017_Sep_18_1445,60.0075255179,FEMA4ImagesEEG,001,101723,
AFNE01.JPG,AFNE01.JPG,AFNE01.JPG,AFNE01.JPG,AFNE01.JPG,AFNE01.JPG,,,,,,,,,,,,,2,8,28,4,,,,,,,,,,,AMNE03.jpg,AMSA09.jpg,AMSA14.jpg,AMNE04.jpg,AMNE03.jpg,MN,1,num_8,32,num_4,0.666808219627,,,2017_Sep_18_1445,60.0075255179,FEMA4ImagesEEG,001,101723,
AFNE01.JPG,AFNE01.JPG,AFNE01.JPG,AFNE01.JPG,AFNE01.JPG,AFNE01.JPG,,,,,,,,,,,,,2,9,29,7,,,,,,,,,,,AMSA15.jpg,AMNE07.jpg,AMNE19.jpg,AMSA13.jpg,AMNE19.jpg,MN,1,num_2,32,num_6,0.850127317477,,,2017_Sep_18_1445,60.0075255179,FEMA4ImagesEEG,001,101723,
AFNE01.JPG,AFNE01.JPG,AFNE01.JPG,AFNE01.JPG,AFNE01.JPG,AFNE01.JPG,,,,,,,,,,,,,3,0,30,4,,,,,,,,,,,AMSA17.jpg,AMSA19.jpg,AMNE16.jpg,AMNE13.jpg,AMNE13.jpg,MN,1,num_4,16,num_4,1.06669653836,,,2017_Sep_18_1445,60.0075255179,FEMA4ImagesEEG,001,101723,
AFNE01.JPG,AFNE01.JPG,AFNE01.JPG,AFNE01.JPG,AFNE01.JPG,AFNE01.JPG,,,,,,,,,,,,,3,1,31,9,,,,,,,,,,,AMNE05.jpg,AMSA14.jpg,AMNE04.jpg,AMSA03.jpg,AMSA03.jpg,MS,2,num_4,16,num_4,0.883535885951,,,2017_Sep_18_1445,60.0075255179,FEMA4ImagesEEG,001,101723,
AFNE01.JPG,AFNE01.JPG,AFNE01.JPG,AFNE01.JPG,AFNE01.JPG,AFNE01.JPG,,,,,,,,,,,,,3,2,32,3,,,,,,,,,,,AMNE13.jpg,AMSA20.jpg,AMSA11.jpg,AMNE20.jpg,AMSA20.jpg,MS,2,num_6,16,num_6,0.633485930506,,,2017_Sep_18_1445,60.0075255179,FEMA4ImagesEEG,001,101723,
AFNE01.JPG,AFNE01.JPG,AFNE01.JPG,AFNE01.JPG,AFNE01.JPG,AFNE01.JPG,,,,,,,,,,,,,3,3,33,0,,,,,,,,,,,AMSA09.jpg,AMNE20.jpg,AMSA18.jpg,AMNE15.jpg,AMNE20.jpg,MN,1,num_6,32,num_4,0.650183960097,,,2017_Sep_18_1445,60.0075255179,FEMA4ImagesEEG,001,101723,
AFNE01.JPG,AFNE01.JPG,AFNE01.JPG,AFNE01.JPG,AFNE01.JPG,AFNE01.JPG,,,,,,,,,,,,,3,4,34,6,,,,,,,,,,,AMNE19.jpg,AMSA01.jpg,AMSA03.jpg,AMNE16.jpg,AMNE19.jpg,MN,1,num_8,32,num_4,0.550200734986,,,2017_Sep_18_1445,60.0075255179,FEMA4ImagesEEG,001,101723,
AFNE01.JPG,AFNE01.JPG,AFNE01.JPG,AFNE01.JPG,AFNE01.JPG,AFNE01.JPG,,,,,,,,,,,,,3,5,35,5,,,,,,,,,,,AMNE12.jpg,AMSA06.jpg,AMNE18.jpg,AMSA11.jpg,AMSA06.jpg,MS,2,num_6,32,num_8,0.816799896536,,,2017_Sep_18_1445,60.0075255179,FEMA4ImagesEEG,001,101723,
AFNE01.JPG,AFNE01.JPG,AFNE01.JPG,AFNE01.JPG,AFNE01.JPG,AFNE01.JPG,,,,,,,,,,,,,3,6,36,8,,,,,,,,,,,AMSA10.jpg,AMSA17.jpg,AMNE01.jpg,AMNE05.jpg,AMSA17.jpg,MS,2,num_6,16,num_6,0.633747654036,,,2017_Sep_18_1445,60.0075255179,FEMA4ImagesEEG,001,101723,
AFNE01.JPG,AFNE01.JPG,AFNE01.JPG,AFNE01.JPG,AFNE01.JPG,AFNE01.JPG,,,,,,,,,,,,,3,7,37,1,,,,,,,,,,,AMSA05.jpg,AMNE06.jpg,AMNE10.jpg,AMSA04.jpg,AMNE06.jpg,MN,1,num_6,16,num_6,0.766774766613,,,2017_Sep_18_1445,60.0075255179,FEMA4ImagesEEG,001,101723,
AFNE01.JPG,AFNE01.JPG,AFNE01.JPG,AFNE01.JPG,AFNE01.JPG,AFNE01.JPG,,,,,,,,,,,,,3,8,38,2,,,,,,,,,,,AMNE05.jpg,AMSA12.jpg,AMNE07.jpg,AMSA17.jpg,AMSA12.jpg,MS,2,num_6,32,num_8,0.783489474794,,,2017_Sep_18_1445,60.0075255179,FEMA4ImagesEEG,001,101723,
AFNE01.JPG,AFNE01.JPG,AFNE01.JPG,AFNE01.JPG,AFNE01.JPG,AFNE01.JPG,,,,,,,,,,,,,3,9,39,7,,,,,,,,,,,AMSA11.jpg,AMNE14.jpg,AMSA07.jpg,AMNE20.jpg,AMNE20.jpg,MN,1,num_4,16,num_4,0.800116941798,,,2017_Sep_18_1445,60.0075255179,FEMA4ImagesEEG,001,101723,
AFNE01.JPG,AFNE01.JPG,AFNE01.JPG,AFNE01.JPG,AFNE01.JPG,AFNE01.JPG,,,,,,,,,,,,,4,0,40,6,,,,,,,,,,,AMSA12.jpg,AMSA10.jpg,AMNE07.jpg,AMNE08.jpg,AMNE08.jpg,MN,1,num_4,16,num_4,0.850148165599,,,2017_Sep_18_1445,60.0075255179,FEMA4ImagesEEG,001,101723,
AFNE01.JPG,AFNE01.JPG,AFNE01.JPG,AFNE01.JPG,AFNE01.JPG,AFNE01.JPG,,,,,,,,,,,,,4,1,41,2,,,,,,,,,,,AMNE07.jpg,AMSA19.jpg,AMNE08.jpg,AMSA08.jpg,AMSA19.jpg,MS,2,num_6,16,num_6,0.43357336428,,,2017_Sep_18_1445,60.0075255179,FEMA4ImagesEEG,001,101723,
AFNE01.JPG,AFNE01.JPG,AFNE01.JPG,AFNE01.JPG,AFNE01.JPG,AFNE01.JPG,,,,,,,,,,,,,4,2,42,3,,,,,,,,,,,AMNE11.jpg,AMNE02.jpg,AMSA19.jpg,AMSA02.jpg,AMNE11.jpg,MN,1,num_8,32,num_6,1.20009410498,,,2017_Sep_18_1445,60.0075255179,FEMA4ImagesEEG,001,101723,
AFNE01.JPG,AFNE01.JPG,AFNE01.JPG,AFNE01.JPG,AFNE01.JPG,AFNE01.JPG,,,,,,,,,,,,,4,3,43,4,,,,,,,,,,,AMSA02.jpg,AMNE18.jpg,AMNE07.jpg,AMSA07.jpg,AMNE18.jpg,MN,1,num_6,16,num_6,0.900155654876,,,2017_Sep_18_1445,60.0075255179,FEMA4ImagesEEG,001,101723,
AFNE01.JPG,AFNE01.JPG,AFNE01.JPG,AFNE01.JPG,AFNE01.JPG,AFNE01.JPG,,,,,,,,,,,,,4,4,44,9,,,,,,,,,,,AMNE05.jpg,AMSA05.jpg,AMNE14.jpg,AMSA07.jpg,AMNE14.jpg,MN,1,num_2,32,num_8,0.883199429838,,,2017_Sep_18_1445,60.0075255179,FEMA4ImagesEEG,001,101723,
AFNE01.JPG,AFNE01.JPG,AFNE01.JPG,AFNE01.JPG,AFNE01.JPG,AFNE01.JPG,,,,,,,,,,,,,4,5,45,8,,,,,,,,,,,AMNE02.jpg,AMSA06.jpg,AMSA10.jpg,AMNE01.jpg,AMSA06.jpg,MS,2,num_6,16,num_6,0.750398118282,,,2017_Sep_18_1445,60.0075255179,FEMA4ImagesEEG,001,101723,
AFNE01.JPG,AFNE01.JPG,AFNE01.JPG,AFNE01.JPG,AFNE01.JPG,AFNE01.JPG,,,,,,,,,,,,,4,6,46,7,,,,,,,,,,,AMNE15.jpg,AMSA14.jpg,AMSA12.jpg,AMNE02.jpg,AMNE02.jpg,MN,1,num_4,32,num_6,0.516796977958,,,2017_Sep_18_1445,60.0075255179,FEMA4ImagesEEG,001,101723,
AFNE01.JPG,AFNE01.JPG,AFNE01.JPG,AFNE01.JPG,AFNE01.JPG,AFNE01.JPG,,,,,,,,,,,,,4,7,47,5,,,,,,,,,,,AMSA09.jpg,AMNE16.jpg,AMSA02.jpg,AMNE14.jpg,AMNE16.jpg,MN,1,num_6,16,num_6,0.833351668902,,,2017_Sep_18_1445,60.0075255179,FEMA4ImagesEEG,001,101723,
AFNE01.JPG,AFNE01.JPG,AFNE01.JPG,AFNE01.JPG,AFNE01.JPG,AFNE01.JPG,,,,,,,,,,,,,4,8,48,1,,,,,,,,,,,AMSA13.jpg,AMSA03.jpg,AMNE06.jpg,AMNE05.jpg,AMNE05.jpg,MN,1,num_4,16,num_4,0.866571962833,,,2017_Sep_18_1445,60.0075255179,FEMA4ImagesEEG,001,101723,
AFNE01.JPG,AFNE01.JPG,AFNE01.JPG,AFNE01.JPG,AFNE01.JPG,AFNE01.JPG,,,,,,,,,,,,,4,9,49,0,,,,,,,,,,,AMNE01.jpg,AMNE15.jpg,AMSA12.jpg,AMSA06.jpg,AMNE15.jpg,MN,1,num_6,16,num_6,0.83347002184,,,2017_Sep_18_1445,60.0075255179,FEMA4ImagesEEG,001,101723,
AFNE01.JPG,AFNE01.JPG,AFNE01.JPG,AFNE01.JPG,AFNE01.JPG,AFNE01.JPG,,,,,,,,,,,,,5,0,50,8,,,,,,,,,,,AMSA12.jpg,AMSA04.jpg,AMNE09.jpg,AMNE01.jpg,AMSA04.jpg,MS,2,num_6,32,num_4,0.783455476165,,,2017_Sep_18_1445,60.0075255179,FEMA4ImagesEEG,001,101723,
AFNE01.JPG,AFNE01.JPG,AFNE01.JPG,AFNE01.JPG,AFNE01.JPG,AFNE01.JPG,,,,,,,,,,,,,5,1,51,4,,,,,,,,,,,AMNE02.jpg,AMSA15.jpg,AMNE18.jpg,AMSA11.jpg,AMNE02.jpg,MN,1,num_8,16,num_8,0.416815356351,,,2017_Sep_18_1445,60.0075255179,FEMA4ImagesEEG,001,101723,
AFNE01.JPG,AFNE01.JPG,AFNE01.JPG,AFNE01.JPG,AFNE01.JPG,AFNE01.JPG,,,,,,,,,,,,,5,2,52,2,,,,,,,,,,,AMNE01.jpg,AMSA09.jpg,AMNE04.jpg,AMSA12.jpg,AMSA12.jpg,MS,2,num_4,32,num_6,0.566815372091,,,2017_Sep_18_1445,60.0075255179,FEMA4ImagesEEG,001,101723,
AFNE01.JPG,AFNE01.JPG,AFNE01.JPG,AFNE01.JPG,AFNE01.JPG,AFNE01.JPG,,,,,,,,,,,,,5,3,53,0,,,,,,,,,,,AMSA11.jpg,AMNE08.jpg,AMSA14.jpg,AMNE19.jpg,AMNE19.jpg,MN,1,num_4,32,num_2,0.650176583324,,,2017_Sep_18_1445,60.0075255179,FEMA4ImagesEEG,001,101723,
AFNE01.JPG,AFNE01.JPG,AFNE01.JPG,AFNE01.JPG,AFNE01.JPG,AFNE01.JPG,,,,,,,,,,,,,5,4,54,3,,,,,,,,,,,AMSA07.jpg,AMNE03.jpg,AMNE10.jpg,AMSA17.jpg,AMSA07.jpg,MS,2,num_8,32,num_6,0.550194320269,,,2017_Sep_18_1445,60.0075255179,FEMA4ImagesEEG,001,101723,
AFNE01.JPG,AFNE01.JPG,AFNE01.JPG,AFNE01.JPG,AFNE01.JPG,AFNE01.JPG,,,,,,,,,,,,,5,5,55,6,,,,,,,,,,,AMNE06.jpg,AMNE08.jpg,AMSA17.jpg,AMSA20.jpg,AMSA20.jpg,MS,2,num_4,32,num_2,0.533571664244,,,2017_Sep_18_1445,60.0075255179,FEMA4ImagesEEG,001,101723,
AFNE01.JPG,AFNE01.JPG,AFNE01.JPG,AFNE01.JPG,AFNE01.JPG,AFNE01.JPG,,,,,,,,,,,,,5,6,56,5,,,,,,,,,,,AMNE18.jpg,AMNE04.jpg,AMSA08.jpg,AMSA17.jpg,AMSA08.jpg,MS,2,num_2,16,num_2,1.19977240311,,,2017_Sep_18_1445,60.0075255179,FEMA4ImagesEEG,001,101723,
AFNE01.JPG,AFNE01.JPG,AFNE01.JPG,AFNE01.JPG,AFNE01.JPG,AFNE01.JPG,,,,,,,,,,,,,5,7,57,1,,,,,,,,,,,AMNE15.jpg,AMSA19.jpg,AMNE09.jpg,AMSA13.jpg,AMSA13.jpg,MS,2,num_4,16,num_4,0.650241051801,,,2017_Sep_18_1445,60.0075255179,FEMA4ImagesEEG,001,101723,
AFNE01.JPG,AFNE01.JPG,AFNE01.JPG,AFNE01.JPG,AFNE01.JPG,AFNE01.JPG,,,,,,,,,,,,,5,8,58,7,,,,,,,,,,,AMNE01.jpg,AMNE06.jpg,AMSA16.jpg,AMSA08.jpg,AMNE06.jpg,MN,1,num_6,16,num_6,0.600175829604,,,2017_Sep_18_1445,60.0075255179,FEMA4ImagesEEG,001,101723,
AFNE01.JPG,AFNE01.JPG,AFNE01.JPG,AFNE01.JPG,AFNE01.JPG,AFNE01.JPG,,,,,,,,,,,,,5,9,59,9,,,,,,,,,,,AMNE16.jpg,AMNE03.jpg,AMSA18.jpg,AMSA19.jpg,AMNE03.jpg,MN,1,num_6,32,num_4,0.63355328585,,,2017_Sep_18_1445,60.0075255179,FEMA4ImagesEEG,001,101723,
,,,,,,,,,,,,,,,,,,,,,,,,,,,,,,,,,,,,,,,,,,,space,23.3486065303,2017_Sep_18_1445,60.0075255179,FEMA4ImagesEEG,001,101723,
AFNE01.JPG,AFNE01.JPG,AFNE01.JPG,AFNE01.JPG,AFNE01.JPG,AFNE01.JPG,,,,,,,,,,,,,,,,,0,0,0,7,,,,,,,AFNE17.jpg,AFNE09.jpg,AFSA01.jpg,AFSA12.jpg,AFSA12.jpg,FS,4,num_4,16,num_4,0.983502753545,,,2017_Sep_18_1445,60.0075255179,FEMA4ImagesEEG,001,101723,
AFNE01.JPG,AFNE01.JPG,AFNE01.JPG,AFNE01.JPG,AFNE01.JPG,AFNE01.JPG,,,,,,,,,,,,,,,,,0,1,1,9,,,,,,,AFNE05.jpg,AFNE20.jpg,AFSA18.jpg,AFSA15.jpg,AFNE05.jpg,FN,3,num_8,32,num_6,0.600133491913,,,2017_Sep_18_1445,60.0075255179,FEMA4ImagesEEG,001,101723,
AFNE01.JPG,AFNE01.JPG,AFNE01.JPG,AFNE01.JPG,AFNE01.JPG,AFNE01.JPG,,,,,,,,,,,,,,,,,0,2,2,1,,,,,,,AFSA02.jpg,AFNE12.jpg,AFSA18.jpg,AFNE07.jpg,AFSA18.jpg,FS,4,num_2,16,num_2,0.766794331605,,,2017_Sep_18_1445,60.0075255179,FEMA4ImagesEEG,001,101723,
AFNE01.JPG,AFNE01.JPG,AFNE01.JPG,AFNE01.JPG,AFNE01.JPG,AFNE01.JPG,,,,,,,,,,,,,,,,,0,3,3,8,,,,,,,AFNE18.jpg,AFNE15.jpg,AFSA11.jpg,AFSA07.jpg,AFSA11.jpg,FS,4,num_2,16,num_2,0.633256281028,,,2017_Sep_18_1445,60.0075255179,FEMA4ImagesEEG,001,101723,
AFNE01.JPG,AFNE01.JPG,AFNE01.JPG,AFNE01.JPG,AFNE01.JPG,AFNE01.JPG,,,,,,,,,,,,,,,,,0,4,4,0,,,,,,,AFNE01.jpg,AFSA17.jpg,AFSA18.jpg,AFNE17.jpg,AFNE17.jpg,FN,3,num_4,32,num_2,0.616798164556,,,2017_Sep_18_1445,60.0075255179,FEMA4ImagesEEG,001,101723,
AFNE01.JPG,AFNE01.JPG,AFNE01.JPG,AFNE01.JPG,AFNE01.JPG,AFNE01.JPG,,,,,,,,,,,,,,,,,0,5,5,6,,,,,,,AFNE07.jpg,AFSA03.jpg,AFNE09.jpg,AFSA14.jpg,AFNE09.jpg,FN,3,num_2,32,num_8,0.616823503049,,,2017_Sep_18_1445,60.0075255179,FEMA4ImagesEEG,001,101723,
AFNE01.JPG,AFNE01.JPG,AFNE01.JPG,AFNE01.JPG,AFNE01.JPG,AFNE01.JPG,,,,,,,,,,,,,,,,,0,6,6,2,,,,,,,AFSA20.jpg,AFSA19.jpg,AFNE08.jpg,AFNE11.jpg,AFSA19.jpg,FS,4,num_6,16,num_6,0.733447024832,,,2017_Sep_18_1445,60.0075255179,FEMA4ImagesEEG,001,101723,
AFNE01.JPG,AFNE01.JPG,AFNE01.JPG,AFNE01.JPG,AFNE01.JPG,AFNE01.JPG,,,,,,,,,,,,,,,,,0,7,7,3,,,,,,,AFNE10.jpg,AFSA01.jpg,AFNE07.jpg,AFSA04.jpg,AFSA04.jpg,FS,4,num_4,32,num_2,0.86678846227,,,2017_Sep_18_1445,60.0075255179,FEMA4ImagesEEG,001,101723,
AFNE01.JPG,AFNE01.JPG,AFNE01.JPG,AFNE01.JPG,AFNE01.JPG,AFNE01.JPG,,,,,,,,,,,,,,,,,0,8,8,5,,,,,,,AFSA16.jpg,AFNE20.jpg,AFSA01.jpg,AFNE03.jpg,AFNE03.jpg,FN,3,num_4,32,num_2,1.08342247223,,,2017_Sep_18_1445,60.0075255179,FEMA4ImagesEEG,001,101723,
AFNE01.JPG,AFNE01.JPG,AFNE01.JPG,AFNE01.JPG,AFNE01.JPG,AFNE01.JPG,,,,,,,,,,,,,,,,,0,9,9,4,,,,,,,AFNE19.jpg,AFSA12.jpg,AFNE07.jpg,AFSA18.jpg,AFNE19.jpg,FN,3,num_8,32,num_4,0.650149961701,,,2017_Sep_18_1445,60.0075255179,FEMA4ImagesEEG,001,101723,
AFNE01.JPG,AFNE01.JPG,AFNE01.JPG,AFNE01.JPG,AFNE01.JPG,AFNE01.JPG,,,,,,,,,,,,,,,,,1,0,10,6,,,,,,,AFSA16.jpg,AFNE02.jpg,AFSA09.jpg,AFNE07.jpg,AFNE07.jpg,FN,3,num_4,16,num_4,0.733504116535,,,2017_Sep_18_1445,60.0075255179,FEMA4ImagesEEG,001,101723,
AFNE01.JPG,AFNE01.JPG,AFNE01.JPG,AFNE01.JPG,AFNE01.JPG,AFNE01.JPG,,,,,,,,,,,,,,,,,1,1,11,8,,,,,,,AFNE15.jpg,AFSA02.jpg,AFNE10.jpg,AFSA15.jpg,AFSA02.jpg,FS,4,num_6,16,num_6,0.466793658212,,,2017_Sep_18_1445,60.0075255179,FEMA4ImagesEEG,001,101723,
AFNE01.JPG,AFNE01.JPG,AFNE01.JPG,AFNE01.JPG,AFNE01.JPG,AFNE01.JPG,,,,,,,,,,,,,,,,,1,2,12,1,,,,,,,AFNE14.jpg,AFSA13.jpg,AFSA12.jpg,AFNE01.jpg,AFNE14.jpg,FN,3,num_8,32,num_4,0.666791541269,,,2017_Sep_18_1445,60.0075255179,FEMA4ImagesEEG,001,101723,
AFNE01.JPG,AFNE01.JPG,AFNE01.JPG,AFNE01.JPG,AFNE01.JPG,AFNE01.JPG,,,,,,,,,,,,,,,,,1,3,13,4,,,,,,,AFSA10.jpg,AFNE04.jpg,AFSA16.jpg,AFNE11.jpg,AFNE04.jpg,FN,3,num_6,16,num_6,1.0500780521,,,2017_Sep_18_1445,60.0075255179,FEMA4ImagesEEG,001,101723,
AFNE01.JPG,AFNE01.JPG,AFNE01.JPG,AFNE01.JPG,AFNE01.JPG,AFNE01.JPG,,,,,,,,,,,,,,,,,1,4,14,7,,,,,,,AFSA07.jpg,AFSA12.jpg,AFNE18.jpg,AFNE09.jpg,AFNE09.jpg,FN,3,num_4,32,num_8,0.783479210921,,,2017_Sep_18_1445,60.0075255179,FEMA4ImagesEEG,001,101723,
AFNE01.JPG,AFNE01.JPG,AFNE01.JPG,AFNE01.JPG,AFNE01.JPG,AFNE01.JPG,,,,,,,,,,,,,,,,,1,5,15,3,,,,,,,AFSA02.jpg,AFNE17.jpg,AFNE04.jpg,AFSA15.jpg,AFNE17.jpg,FN,3,num_6,16,num_6,0.666788654868,,,2017_Sep_18_1445,60.0075255179,FEMA4ImagesEEG,001,101723,
AFNE01.JPG,AFNE01.JPG,AFNE01.JPG,AFNE01.JPG,AFNE01.JPG,AFNE01.JPG,,,,,,,,,,,,,,,,,1,6,16,2,,,,,,,AFSA13.jpg,AFNE05.jpg,AFNE03.jpg,AFSA20.jpg,AFSA13.jpg,FS,4,num_8,32,num_4,0.750251219375,,,2017_Sep_18_1445,60.0075255179,FEMA4ImagesEEG,001,101723,
AFNE01.JPG,AFNE01.JPG,AFNE01.JPG,AFNE01.JPG,AFNE01.JPG,AFNE01.JPG,,,,,,,,,,,,,,,,,1,7,17,9,,,,,,,AFSA11.jpg,AFNE14.jpg,AFSA15.jpg,AFNE04.jpg,AFSA15.jpg,FS,4,num_2,32,num_6,0.816788349999,,,2017_Sep_18_1445,60.0075255179,FEMA4ImagesEEG,001,101723,
AFNE01.JPG,AFNE01.JPG,AFNE01.JPG,AFNE01.JPG,AFNE01.JPG,AFNE01.JPG,,,,,,,,,,,,,,,,,1,8,18,5,,,,,,,AFSA03.jpg,AFNE09.jpg,AFSA09.jpg,AFNE17.jpg,AFNE17.jpg,FN,3,num_4,32,num_2,0.48348687659,,,2017_Sep_18_1445,60.0075255179,FEMA4ImagesEEG,001,101723,
AFNE01.JPG,AFNE01.JPG,AFNE01.JPG,AFNE01.JPG,AFNE01.JPG,AFNE01.JPG,,,,,,,,,,,,,,,,,1,9,19,0,,,,,,,AFSA09.jpg,AFNE06.jpg,AFSA15.jpg,AFNE08.jpg,AFNE08.jpg,FN,3,num_4,32,num_8,0.716764069861,,,2017_Sep_18_1445,60.0075255179,FEMA4ImagesEEG,001,101723,
AFNE01.JPG,AFNE01.JPG,AFNE01.JPG,AFNE01.JPG,AFNE01.JPG,AFNE01.JPG,,,,,,,,,,,,,,,,,2,0,20,2,,,,,,,AFNE07.jpg,AFSA13.jpg,AFSA20.jpg,AFNE14.jpg,AFNE07.jpg,FN,3,num_8,32,num_4,0.966863098321,,,2017_Sep_18_1445,60.0075255179,FEMA4ImagesEEG,001,101723,
AFNE01.JPG,AFNE01.JPG,AFNE01.JPG,AFNE01.JPG,AFNE01.JPG,AFNE01.JPG,,,,,,,,,,,,,,,,,2,1,21,5,,,,,,,AFSA10.jpg,AFSA17.jpg,AFNE11.jpg,AFNE20.jpg,AFNE11.jpg,FN,3,num_2,16,num_2,1.30008117924,,,2017_Sep_18_1445,60.0075255179,FEMA4ImagesEEG,001,101723,
AFNE01.JPG,AFNE01.JPG,AFNE01.JPG,AFNE01.JPG,AFNE01.JPG,AFNE01.JPG,,,,,,,,,,,,,,,,,2,2,22,3,,,,,,,AFNE04.jpg,AFNE08.jpg,AFSA05.jpg,AFSA14.jpg,AFNE08.jpg,FN,3,num_6,32,num_8,0.866783009842,,,2017_Sep_18_1445,60.0075255179,FEMA4ImagesEEG,001,101723,
AFNE01.JPG,AFNE01.JPG,AFNE01.JPG,AFNE01.JPG,AFNE01.JPG,AFNE01.JPG,,,,,,,,,,,,,,,,,2,3,23,8,,,,,,,AFNE09.jpg,AFSA18.jpg,AFSA08.jpg,AFNE07.jpg,AFSA08.jpg,FS,4,num_2,32,num_6,0.900117486948,,,2017_Sep_18_1445,60.0075255179,FEMA4ImagesEEG,001,101723,
AFNE01.JPG,AFNE01.JPG,AFNE01.JPG,AFNE01.JPG,AFNE01.JPG,AFNE01.JPG,,,,,,,,,,,,,,,,,2,4,24,4,,,,,,,AFSA10.jpg,AFNE11.jpg,AFSA17.jpg,AFNE01.jpg,AFNE11.jpg,FN,3,num_6,16,num_6,0.816786425421,,,2017_Sep_18_1445,60.0075255179,FEMA4ImagesEEG,001,101723,
AFNE01.JPG,AFNE01.JPG,AFNE01.JPG,AFNE01.JPG,AFNE01.JPG,AFNE01.JPG,,,,,,,,,,,,,,,,,2,5,25,7,,,,,,,AFNE09.jpg,AFSA18.jpg,AFSA13.jpg,AFNE13.jpg,AFNE09.jpg,FN,3,num_8,16,num_8,0.750154356007,,,2017_Sep_18_1445,60.0075255179,FEMA4ImagesEEG,001,101723,
AFNE01.JPG,AFNE01.JPG,AFNE01.JPG,AFNE01.JPG,AFNE01.JPG,AFNE01.JPG,,,,,,,,,,,,,,,,,2,6,26,6,,,,,,,AFNE12.jpg,AFNE20.jpg,AFSA20.jpg,AFSA11.jpg,AFNE12.jpg,FN,3,num_8,16,num_8,0.683562058257,,,2017_Sep_18_1445,60.0075255179,FEMA4ImagesEEG,001,101723,
AFNE01.JPG,AFNE01.JPG,AFNE01.JPG,AFNE01.JPG,AFNE01.JPG,AFNE01.JPG,,,,,,,,,,,,,,,,,2,7,27,9,,,,,,,AFSA11.jpg,AFSA20.jpg,AFNE11.jpg,AFNE06.jpg,AFSA11.jpg,FS,4,num_8,32,num_2,1.4333963159,,,2017_Sep_18_1445,60.0075255179,FEMA4ImagesEEG,001,101723,
AFNE01.JPG,AFNE01.JPG,AFNE01.JPG,AFNE01.JPG,AFNE01.JPG,AFNE01.JPG,,,,,,,,,,,,,,,,,2,8,28,1,,,,,,,AFNE19.jpg,AFNE15.jpg,AFSA17.jpg,AFSA05.jpg,AFNE19.jpg,FN,3,num_8,16,num_8,0.80044634128,,,2017_Sep_18_1445,60.0075255179,FEMA4ImagesEEG,001,101723,
AFNE01.JPG,AFNE01.JPG,AFNE01.JPG,AFNE01.JPG,AFNE01.JPG,AFNE01.JPG,,,,,,,,,,,,,,,,,2,9,29,0,,,,,,,AFSA16.jpg,AFSA06.jpg,AFNE13.jpg,AFNE11.jpg,AFSA16.jpg,FS,4,num_8,32,num_6,0.933184146648,,,2017_Sep_18_1445,60.0075255179,FEMA4ImagesEEG,001,101723,
AFNE01.JPG,AFNE01.JPG,AFNE01.JPG,AFNE01.JPG,AFNE01.JPG,AFNE01.JPG,,,,,,,,,,,,,,,,,3,0,30,0,,,,,,,AFNE20.jpg,AFSA09.jpg,AFNE07.jpg,AFSA20.jpg,AFNE07.jpg,FN,3,num_2,32,num_8,0.733480060939,,,2017_Sep_18_1445,60.0075255179,FEMA4ImagesEEG,001,101723,
AFNE01.JPG,AFNE01.JPG,AFNE01.JPG,AFNE01.JPG,AFNE01.JPG,AFNE01.JPG,,,,,,,,,,,,,,,,,3,1,31,3,,,,,,,AFNE15.jpg,AFNE09.jpg,AFSA11.jpg,AFSA20.jpg,AFSA20.jpg,FS,4,num_4,16,num_4,0.916803007713,,,2017_Sep_18_1445,60.0075255179,FEMA4ImagesEEG,001,101723,
AFNE01.JPG,AFNE01.JPG,AFNE01.JPG,AFNE01.JPG,AFNE01.JPG,AFNE01.JPG,,,,,,,,,,,,,,,,,3,2,32,4,,,,,,,AFSA14.jpg,AFNE09.jpg,AFSA19.jpg,AFNE14.jpg,AFSA14.jpg,FS,4,num_8,16,num_8,0.700148791075,,,2017_Sep_18_1445,60.0075255179,FEMA4ImagesEEG,001,101723,
AFNE01.JPG,AFNE01.JPG,AFNE01.JPG,AFNE01.JPG,AFNE01.JPG,AFNE01.JPG,,,,,,,,,,,,,,,,,3,3,33,9,,,,,,,AFNE20.jpg,AFSA06.jpg,AFNE10.jpg,AFSA17.jpg,AFNE20.jpg,FN,3,num_8,16,num_8,0.666817842051,,,2017_Sep_18_1445,60.0075255179,FEMA4ImagesEEG,001,101723,
AFNE01.JPG,AFNE01.JPG,AFNE01.JPG,AFNE01.JPG,AFNE01.JPG,AFNE01.JPG,,,,,,,,,,,,,,,,,3,4,34,6,,,,,,,AFSA14.jpg,AFNE16.jpg,AFNE03.jpg,AFSA20.jpg,AFSA20.jpg,FS,4,num_4,32,num_6,3.09997873497,,,2017_Sep_18_1445,60.0075255179,FEMA4ImagesEEG,001,101723,
AFNE01.JPG,AFNE01.JPG,AFNE01.JPG,AFNE01.JPG,AFNE01.JPG,AFNE01.JPG,,,,,,,,,,,,,,,,,3,5,35,1,,,,,,,AFNE18.jpg,AFSA01.jpg,AFSA12.jpg,AFNE08.jpg,AFSA12.jpg,FS,4,num_2,16,num_2,0.350182324648,,,2017_Sep_18_1445,60.0075255179,FEMA4ImagesEEG,001,101723,
AFNE01.JPG,AFNE01.JPG,AFNE01.JPG,AFNE01.JPG,AFNE01.JPG,AFNE01.JPG,,,,,,,,,,,,,,,,,3,6,36,8,,,,,,,AFSA02.jpg,AFSA20.jpg,AFNE11.jpg,AFNE15.jpg,AFNE15.jpg,FN,3,num_4,16,num_4,0.750145696104,,,2017_Sep_18_1445,60.0075255179,FEMA4ImagesEEG,001,101723,
AFNE01.JPG,AFNE01.JPG,AFNE01.JPG,AFNE01.JPG,AFNE01.JPG,AFNE01.JPG,,,,,,,,,,,,,,,,,3,7,37,2,,,,,,,AFSA12.jpg,AFSA08.jpg,AFNE16.jpg,AFNE19.jpg,AFSA08.jpg,FS,4,num_6,32,num_4,0.600000064122,,,2017_Sep_18_1445,60.0075255179,FEMA4ImagesEEG,001,101723,
AFNE01.JPG,AFNE01.JPG,AFNE01.JPG,AFNE01.JPG,AFNE01.JPG,AFNE01.JPG,,,,,,,,,,,,,,,,,3,8,38,7,,,,,,,AFNE18.jpg,AFNE14.jpg,AFSA13.jpg,AFSA17.jpg,AFSA13.jpg,FS,4,num_2,32,num_4,0.666756901424,,,2017_Sep_18_1445,60.0075255179,FEMA4ImagesEEG,001,101723,
AFNE01.JPG,AFNE01.JPG,AFNE01.JPG,AFNE01.JPG,AFNE01.JPG,AFNE01.JPG,,,,,,,,,,,,,,,,,3,9,39,5,,,,,,,AFNE19.jpg,AFSA17.jpg,AFNE18.jpg,AFSA07.jpg,AFNE18.jpg,FN,3,num_2,32,num_4,0.716780748451,,,2017_Sep_18_1445,60.0075255179,FEMA4ImagesEEG,001,101723,
AFNE01.JPG,AFNE01.JPG,AFNE01.JPG,AFNE01.JPG,AFNE01.JPG,AFNE01.JPG,,,,,,,,,,,,,,,,,4,0,40,3,,,,,,,AFSA19.jpg,AFSA08.jpg,AFNE02.jpg,AFNE13.jpg,AFSA19.jpg,FS,4,num_8,32,num_4,0.833442117553,,,2017_Sep_18_1445,60.0075255179,FEMA4ImagesEEG,001,101723,
AFNE01.JPG,AFNE01.JPG,AFNE01.JPG,AFNE01.JPG,AFNE01.JPG,AFNE01.JPG,,,,,,,,,,,,,,,,,4,1,41,5,,,,,,,AFNE18.jpg,AFSA10.jpg,AFNE06.jpg,AFSA05.jpg,AFNE06.jpg,FN,3,num_2,32,num_8,1.05015470879,,,2017_Sep_18_1445,60.0075255179,FEMA4ImagesEEG,001,101723,
AFNE01.JPG,AFNE01.JPG,AFNE01.JPG,AFNE01.JPG,AFNE01.JPG,AFNE01.JPG,,,,,,,,,,,,,,,,,4,2,42,6,,,,,,,AFSA12.jpg,AFNE06.jpg,AFNE19.jpg,AFSA16.jpg,AFSA16.jpg,FS,4,num_4,32,num_2,1.01676923386,,,2017_Sep_18_1445,60.0075255179,FEMA4ImagesEEG,001,101723,
AFNE01.JPG,AFNE01.JPG,AFNE01.JPG,AFNE01.JPG,AFNE01.JPG,AFNE01.JPG,,,,,,,,,,,,,,,,,4,3,43,2,,,,,,,AFNE15.jpg,AFSA13.jpg,AFSA16.jpg,AFNE08.jpg,AFSA16.jpg,FS,4,num_2,16,num_2,0.749990457902,,,2017_Sep_18_1445,60.0075255179,FEMA4ImagesEEG,001,101723,
AFNE01.JPG,AFNE01.JPG,AFNE01.JPG,AFNE01.JPG,AFNE01.JPG,AFNE01.JPG,,,,,,,,,,,,,,,,,4,4,44,4,,,,,,,AFNE02.jpg,AFSA08.jpg,AFSA18.jpg,AFNE01.jpg,AFNE02.jpg,FN,3,num_8,32,num_2,1.05009184382,,,2017_Sep_18_1445,60.0075255179,FEMA4ImagesEEG,001,101723,
AFNE01.JPG,AFNE01.JPG,AFNE01.JPG,AFNE01.JPG,AFNE01.JPG,AFNE01.JPG,,,,,,,,,,,,,,,,,4,5,45,0,,,,,,,AFSA10.jpg,AFSA12.jpg,AFNE12.jpg,AFNE06.jpg,AFNE12.jpg,FN,3,num_2,32,num_8,0.933463189984,,,2017_Sep_18_1445,60.0075255179,FEMA4ImagesEEG,001,101723,
AFNE01.JPG,AFNE01.JPG,AFNE01.JPG,AFNE01.JPG,AFNE01.JPG,AFNE01.JPG,,,,,,,,,,,,,,,,,4,6,46,7,,,,,,,AFSA03.jpg,AFNE02.jpg,AFSA04.jpg,AFNE01.jpg,AFSA03.jpg,FS,4,num_8,16,num_8,0.650131679839,,,2017_Sep_18_1445,60.0075255179,FEMA4ImagesEEG,001,101723,
AFNE01.JPG,AFNE01.JPG,AFNE01.JPG,AFNE01.JPG,AFNE01.JPG,AFNE01.JPG,,,,,,,,,,,,,,,,,4,7,47,8,,,,,,,AFNE15.jpg,AFSA11.jpg,AFNE06.jpg,AFSA14.jpg,AFSA11.jpg,FS,4,num_6,16,num_6,0.450112948427,,,2017_Sep_18_1445,60.0075255179,FEMA4ImagesEEG,001,101723,
AFNE01.JPG,AFNE01.JPG,AFNE01.JPG,AFNE01.JPG,AFNE01.JPG,AFNE01.JPG,,,,,,,,,,,,,,,,,4,8,48,1,,,,,,,AFSA11.jpg,AFNE17.jpg,AFNE12.jpg,AFSA15.jpg,AFSA11.jpg,FS,4,num_8,16,num_8,0.433195212157,,,2017_Sep_18_1445,60.0075255179,FEMA4ImagesEEG,001,101723,
AFNE01.JPG,AFNE01.JPG,AFNE01.JPG,AFNE01.JPG,AFNE01.JPG,AFNE01.JPG,,,,,,,,,,,,,,,,,4,9,49,9,,,,,,,AFSA05.jpg,AFSA20.jpg,AFNE15.jpg,AFNE17.jpg,AFSA05.jpg,FS,4,num_8,32,num_6,0.850155863445,,,2017_Sep_18_1445,60.0075255179,FEMA4ImagesEEG,001,101723,
AFNE01.JPG,AFNE01.JPG,AFNE01.JPG,AFNE01.JPG,AFNE01.JPG,AFNE01.JPG,,,,,,,,,,,,,,,,,5,0,50,3,,,,,,,AFSA09.jpg,AFNE08.jpg,AFNE10.jpg,AFSA10.jpg,AFNE10.jpg,FN,3,num_2,32,num_4,0.700106774224,,,2017_Sep_18_1445,60.0075255179,FEMA4ImagesEEG,001,101723,
AFNE01.JPG,AFNE01.JPG,AFNE01.JPG,AFNE01.JPG,AFNE01.JPG,AFNE01.JPG,,,,,,,,,,,,,,,,,5,1,51,4,,,,,,,AFNE04.jpg,AFNE12.jpg,AFSA15.jpg,AFSA01.jpg,AFSA01.jpg,FS,4,num_4,16,num_4,0.916769650998,,,2017_Sep_18_1445,60.0075255179,FEMA4ImagesEEG,001,101723,
AFNE01.JPG,AFNE01.JPG,AFNE01.JPG,AFNE01.JPG,AFNE01.JPG,AFNE01.JPG,,,,,,,,,,,,,,,,,5,2,52,7,,,,,,,AFNE01.jpg,AFSA01.jpg,AFNE04.jpg,AFSA11.jpg,AFNE04.jpg,FN,3,num_2,32,num_8,0.800177882193,,,2017_Sep_18_1445,60.0075255179,FEMA4ImagesEEG,001,101723,
AFNE01.JPG,AFNE01.JPG,AFNE01.JPG,AFNE01.JPG,AFNE01.JPG,AFNE01.JPG,,,,,,,,,,,,,,,,,5,3,53,5,,,,,,,AFNE19.jpg,AFSA09.jpg,AFSA12.jpg,AFNE20.jpg,AFSA09.jpg,FS,4,num_6,16,num_6,0.56679484481,,,2017_Sep_18_1445,60.0075255179,FEMA4ImagesEEG,001,101723,
AFNE01.JPG,AFNE01.JPG,AFNE01.JPG,AFNE01.JPG,AFNE01.JPG,AFNE01.JPG,,,,,,,,,,,,,,,,,5,4,54,1,,,,,,,AFSA10.jpg,AFNE15.jpg,AFNE03.jpg,AFSA07.jpg,AFSA10.jpg,FS,4,num_8,32,num_6,1.0834792431,,,2017_Sep_18_1445,60.0075255179,FEMA4ImagesEEG,001,101723,
AFNE01.JPG,AFNE01.JPG,AFNE01.JPG,AFNE01.JPG,AFNE01.JPG,AFNE01.JPG,,,,,,,,,,,,,,,,,5,5,55,0,,,,,,,AFSA18.jpg,AFSA02.jpg,AFNE20.jpg,AFNE04.jpg,AFNE04.jpg,FN,3,num_4,16,num_4,0.48348848056,,,2017_Sep_18_1445,60.0075255179,FEMA4ImagesEEG,001,101723,
AFNE01.JPG,AFNE01.JPG,AFNE01.JPG,AFNE01.JPG,AFNE01.JPG,AFNE01.JPG,,,,,,,,,,,,,,,,,5,6,56,6,,,,,,,AFSA17.jpg,AFNE03.jpg,AFNE18.jpg,AFSA12.jpg,AFNE18.jpg,FN,3,num_2,16,num_2,0.866708277259,,,2017_Sep_18_1445,60.0075255179,FEMA4ImagesEEG,001,101723,
AFNE01.JPG,AFNE01.JPG,AFNE01.JPG,AFNE01.JPG,AFNE01.JPG,AFNE01.JPG,,,,,,,,,,,,,,,,,5,7,57,2,,,,,,,AFNE11.jpg,AFSA19.jpg,AFSA09.jpg,AFNE13.jpg,AFSA09.jpg,FS,4,num_2,32,num_6,1.00022131042,,,2017_Sep_18_1445,60.0075255179,FEMA4ImagesEEG,001,101723,
AFNE01.JPG,AFNE01.JPG,AFNE01.JPG,AFNE01.JPG,AFNE01.JPG,AFNE01.JPG,,,,,,,,,,,,,,,,,5,8,58,8,,,,,,,AFSA06.jpg,AFNE09.jpg,AFNE20.jpg,AFSA07.jpg,AFSA07.jpg,FS,4,num_4,16,num_4,0.76682416047,,,2017_Sep_18_1445,60.0075255179,FEMA4ImagesEEG,001,101723,
AFNE01.JPG,AFNE01.JPG,AFNE01.JPG,AFNE01.JPG,AFNE01.JPG,AFNE01.JPG,,,,,,,,,,,,,,,,,5,9,59,9,,,,,,,AFSA13.jpg,AFNE06.jpg,AFNE18.jpg,AFSA18.jpg,AFNE06.jpg,FN,3,num_6,16,num_6,0.783481776947,,,2017_Sep_18_1445,60.0075255179,FEMA4ImagesEEG,001,101723,
,,,,,,,,,,,,,,,,,,,,,,,,,,,,,,,,,,,,,,,,,,,space,20.0652936229,2017_Sep_18_1445,60.0075255179,FEMA4ImagesEEG,001,101723,
AFNE01.JPG,AFNE01.JPG,AFNE01.JPG,AFNE01.JPG,AFNE01.JPG,AFNE01.JPG,,,,,,,,,,,,,,,,,,,,,0,0,0,7,,,AMNE01.jpg,AMSA14.jpg,AMNE09.jpg,AMSA04.jpg,AMSA04.jpg,MS,2,num_4,16,num_4,0.966779385228,,,2017_Sep_18_1445,60.0075255179,FEMA4ImagesEEG,001,101723,
AFNE01.JPG,AFNE01.JPG,AFNE01.JPG,AFNE01.JPG,AFNE01.JPG,AFNE01.JPG,,,,,,,,,,,,,,,,,,,,,0,1,1,3,,,AMSA15.jpg,AMSA19.jpg,AMNE15.jpg,AMNE12.jpg,AMSA19.jpg,MS,2,num_6,32,num_2,0.866758633405,,,2017_Sep_18_1445,60.0075255179,FEMA4ImagesEEG,001,101723,
AFNE01.JPG,AFNE01.JPG,AFNE01.JPG,AFNE01.JPG,AFNE01.JPG,AFNE01.JPG,,,,,,,,,,,,,,,,,,,,,0,2,2,5,,,AMSA13.jpg,AMNE17.jpg,AMNE08.jpg,AMSA18.jpg,AMSA13.jpg,MS,2,num_8,16,num_8,0.550108361989,,,2017_Sep_18_1445,60.0075255179,FEMA4ImagesEEG,001,101723,
AFNE01.JPG,AFNE01.JPG,AFNE01.JPG,AFNE01.JPG,AFNE01.JPG,AFNE01.JPG,,,,,,,,,,,,,,,,,,,,,0,3,3,8,,,AMNE10.jpg,AMNE09.jpg,AMSA15.jpg,AMSA05.jpg,AMNE10.jpg,MN,1,num_8,32,num_4,0.733443496749,,,2017_Sep_18_1445,60.0075255179,FEMA4ImagesEEG,001,101723,
AFNE01.JPG,AFNE01.JPG,AFNE01.JPG,AFNE01.JPG,AFNE01.JPG,AFNE01.JPG,,,,,,,,,,,,,,,,,,,,,0,4,4,1,,,AMNE20.jpg,AMNE11.jpg,AMSA05.jpg,AMSA08.jpg,AMNE11.jpg,MN,1,num_6,32,num_4,0.850113525754,,,2017_Sep_18_1445,60.0075255179,FEMA4ImagesEEG,001,101723,
AFNE01.JPG,AFNE01.JPG,AFNE01.JPG,AFNE01.JPG,AFNE01.JPG,AFNE01.JPG,,,,,,,,,,,,,,,,,,,,,0,5,5,4,,,AMSA16.jpg,AMSA14.jpg,AMNE19.jpg,AMNE12.jpg,AMNE19.jpg,MN,1,num_2,32,num_4,0.89997764444,,,2017_Sep_18_1445,60.0075255179,FEMA4ImagesEEG,001,101723,
AFNE01.JPG,AFNE01.JPG,AFNE01.JPG,AFNE01.JPG,AFNE01.JPG,AFNE01.JPG,,,,,,,,,,,,,,,,,,,,,0,6,6,2,,,AMSA09.jpg,AMNE08.jpg,AMNE01.jpg,AMSA06.jpg,AMNE08.jpg,MN,1,num_6,32,num_4,0.816790274344,,,2017_Sep_18_1445,60.0075255179,FEMA4ImagesEEG,001,101723,
AFNE01.JPG,AFNE01.JPG,AFNE01.JPG,AFNE01.JPG,AFNE01.JPG,AFNE01.JPG,,,,,,,,,,,,,,,,,,,,,0,7,7,0,,,AMNE15.jpg,AMSA09.jpg,AMNE16.jpg,AMSA02.jpg,AMSA02.jpg,MS,2,num_4,16,num_4,0.550161283929,,,2017_Sep_18_1445,60.0075255179,FEMA4ImagesEEG,001,101723,
AFNE01.JPG,AFNE01.JPG,AFNE01.JPG,AFNE01.JPG,AFNE01.JPG,AFNE01.JPG,,,,,,,,,,,,,,,,,,,,,0,8,8,9,,,AMNE13.jpg,AMSA02.jpg,AMSA17.jpg,AMNE17.jpg,AMNE13.jpg,MN,1,num_8,16,num_8,0.916778952349,,,2017_Sep_18_1445,60.0075255179,FEMA4ImagesEEG,001,101723,
AFNE01.JPG,AFNE01.JPG,AFNE01.JPG,AFNE01.JPG,AFNE01.JPG,AFNE01.JPG,,,,,,,,,,,,,,,,,,,,,0,9,9,6,,,AMNE10.jpg,AMNE08.jpg,AMSA03.jpg,AMSA20.jpg,AMSA20.jpg,MS,2,num_4,16,num_4,0.733462099684,,,2017_Sep_18_1445,60.0075255179,FEMA4ImagesEEG,001,101723,
AFNE01.JPG,AFNE01.JPG,AFNE01.JPG,AFNE01.JPG,AFNE01.JPG,AFNE01.JPG,,,,,,,,,,,,,,,,,,,,,1,0,10,4,,,AMSA07.jpg,AMNE20.jpg,AMNE11.jpg,AMSA15.jpg,AMSA07.jpg,MS,2,num_8,16,num_8,0.883456662996,,,2017_Sep_18_1445,60.0075255179,FEMA4ImagesEEG,001,101723,
AFNE01.JPG,AFNE01.JPG,AFNE01.JPG,AFNE01.JPG,AFNE01.JPG,AFNE01.JPG,,,,,,,,,,,,,,,,,,,,,1,1,11,6,,,AMNE19.jpg,AMNE17.jpg,AMSA20.jpg,AMSA15.jpg,AMNE19.jpg,MN,1,num_8,32,num_6,0.800106678158,,,2017_Sep_18_1445,60.0075255179,FEMA4ImagesEEG,001,101723,
AFNE01.JPG,AFNE01.JPG,AFNE01.JPG,AFNE01.JPG,AFNE01.JPG,AFNE01.JPG,,,,,,,,,,,,,,,,,,,,,1,2,12,8,,,AMSA10.jpg,AMSA01.jpg,AMNE08.jpg,AMNE17.jpg,AMNE08.jpg,MN,1,num_2,32,num_8,0.68354922859,,,2017_Sep_18_1445,60.0075255179,FEMA4ImagesEEG,001,101723,
AFNE01.JPG,AFNE01.JPG,AFNE01.JPG,AFNE01.JPG,AFNE01.JPG,AFNE01.JPG,,,,,,,,,,,,,,,,,,,,,1,3,13,7,,,AMSA13.jpg,AMSA15.jpg,AMNE04.jpg,AMNE08.jpg,AMSA13.jpg,MS,2,num_8,16,num_8,0.916755538201,,,2017_Sep_18_1445,60.0075255179,FEMA4ImagesEEG,001,101723,
AFNE01.JPG,AFNE01.JPG,AFNE01.JPG,AFNE01.JPG,AFNE01.JPG,AFNE01.JPG,,,,,,,,,,,,,,,,,,,,,1,4,14,1,,,AMSA20.jpg,AMNE20.jpg,AMSA09.jpg,AMNE18.jpg,AMSA20.jpg,MS,2,num_8,16,num_8,0.616791429231,,,2017_Sep_18_1445,60.0075255179,FEMA4ImagesEEG,001,101723,
AFNE01.JPG,AFNE01.JPG,AFNE01.JPG,AFNE01.JPG,AFNE01.JPG,AFNE01.JPG,,,,,,,,,,,,,,,,,,,,,1,5,15,9,,,AMNE13.jpg,AMNE08.jpg,AMSA10.jpg,AMSA09.jpg,AMNE13.jpg,MN,1,num_8,32,num_6,0.76677637035,,,2017_Sep_18_1445,60.0075255179,FEMA4ImagesEEG,001,101723,
AFNE01.JPG,AFNE01.JPG,AFNE01.JPG,AFNE01.JPG,AFNE01.JPG,AFNE01.JPG,,,,,,,,,,,,,,,,,,,,,1,6,16,0,,,AMNE13.jpg,AMSA05.jpg,AMNE15.jpg,AMSA20.jpg,AMNE13.jpg,MN,1,num_8,16,num_8,0.950162182096,,,2017_Sep_18_1445,60.0075255179,FEMA4ImagesEEG,001,101723,
AFNE01.JPG,AFNE01.JPG,AFNE01.JPG,AFNE01.JPG,AFNE01.JPG,AFNE01.JPG,,,,,,,,,,,,,,,,,,,,,1,7,17,5,,,AMNE11.jpg,AMSA07.jpg,AMSA14.jpg,AMNE04.jpg,AMNE04.jpg,MN,1,num_4,16,num_4,0.500188434497,,,2017_Sep_18_1445,60.0075255179,FEMA4ImagesEEG,001,101723,
AFNE01.JPG,AFNE01.JPG,AFNE01.JPG,AFNE01.JPG,AFNE01.JPG,AFNE01.JPG,,,,,,,,,,,,,,,,,,,,,1,8,18,3,,,AMSA14.jpg,AMNE09.jpg,AMSA08.jpg,AMNE01.jpg,AMSA08.jpg,MS,2,num_2,32,num_4,0.733429704793,,,2017_Sep_18_1445,60.0075255179,FEMA4ImagesEEG,001,101723,
AFNE01.JPG,AFNE01.JPG,AFNE01.JPG,AFNE01.JPG,AFNE01.JPG,AFNE01.JPG,,,,,,,,,,,,,,,,,,,,,1,9,19,2,,,AMSA13.jpg,AMNE17.jpg,AMNE13.jpg,AMSA09.jpg,AMNE17.jpg,MN,1,num_6,32,num_4,1.21680945461,,,2017_Sep_18_1445,60.0075255179,FEMA4ImagesEEG,001,101723,
AFNE01.JPG,AFNE01.JPG,AFNE01.JPG,AFNE01.JPG,AFNE01.JPG,AFNE01.JPG,,,,,,,,,,,,,,,,,,,,,2,0,20,2,,,AMNE16.jpg,AMNE18.jpg,AMSA12.jpg,AMSA03.jpg,AMSA12.jpg,MS,2,num_2,16,num_2,0.716791332932,,,2017_Sep_18_1445,60.0075255179,FEMA4ImagesEEG,001,101723,
AFNE01.JPG,AFNE01.JPG,AFNE01.JPG,AFNE01.JPG,AFNE01.JPG,AFNE01.JPG,,,,,,,,,,,,,,,,,,,,,2,1,21,6,,,AMSA11.jpg,AMNE19.jpg,AMNE01.jpg,AMSA03.jpg,AMNE01.jpg,MN,1,num_2,16,num_2,0.400074668229,,,2017_Sep_18_1445,60.0075255179,FEMA4ImagesEEG,001,101723,
AFNE01.JPG,AFNE01.JPG,AFNE01.JPG,AFNE01.JPG,AFNE01.JPG,AFNE01.JPG,,,,,,,,,,,,,,,,,,,,,2,2,22,3,,,AMSA12.jpg,AMSA06.jpg,AMNE01.jpg,AMNE11.jpg,AMNE11.jpg,MN,1,num_4,32,num_8,0.866598905064,,,2017_Sep_18_1445,60.0075255179,FEMA4ImagesEEG,001,101723,
AFNE01.JPG,AFNE01.JPG,AFNE01.JPG,AFNE01.JPG,AFNE01.JPG,AFNE01.JPG,,,,,,,,,,,,,,,,,,,,,2,3,23,1,,,AMSA18.jpg,AMNE06.jpg,AMNE08.jpg,AMSA02.jpg,AMNE08.jpg,MN,1,num_2,32,num_6,0.85012763855,,,2017_Sep_18_1445,60.0075255179,FEMA4ImagesEEG,001,101723,
AFNE01.JPG,AFNE01.JPG,AFNE01.JPG,AFNE01.JPG,AFNE01.JPG,AFNE01.JPG,,,,,,,,,,,,,,,,,,,,,2,4,24,7,,,AMNE10.jpg,AMNE16.jpg,AMSA09.jpg,AMSA18.jpg,AMSA09.jpg,MS,2,num_2,32,num_4,1.05007741065,,,2017_Sep_18_1445,60.0075255179,FEMA4ImagesEEG,001,101723,
AFNE01.JPG,AFNE01.JPG,AFNE01.JPG,AFNE01.JPG,AFNE01.JPG,AFNE01.JPG,,,,,,,,,,,,,,,,,,,,,2,5,25,4,,,AMSA19.jpg,AMSA06.jpg,AMNE14.jpg,AMNE13.jpg,AMSA19.jpg,MS,2,num_8,32,num_6,0.616832483793,,,2017_Sep_18_1445,60.0075255179,FEMA4ImagesEEG,001,101723,
AFNE01.JPG,AFNE01.JPG,AFNE01.JPG,AFNE01.JPG,AFNE01.JPG,AFNE01.JPG,,,,,,,,,,,,,,,,,,,,,2,6,26,8,,,AMNE05.jpg,AMSA13.jpg,AMNE20.jpg,AMSA05.jpg,AMSA13.jpg,MS,2,num_6,16,num_6,0.783354443498,,,2017_Sep_18_1445,60.0075255179,FEMA4ImagesEEG,001,101723,
AFNE01.JPG,AFNE01.JPG,AFNE01.JPG,AFNE01.JPG,AFNE01.JPG,AFNE01.JPG,,,,,,,,,,,,,,,,,,,,,2,7,27,0,,,AMNE20.jpg,AMNE12.jpg,AMSA14.jpg,AMSA12.jpg,AMNE20.jpg,MN,1,num_8,16,num_8,1.10024270392,,,2017_Sep_18_1445,60.0075255179,FEMA4ImagesEEG,001,101723,
AFNE01.JPG,AFNE01.JPG,AFNE01.JPG,AFNE01.JPG,AFNE01.JPG,AFNE01.JPG,,,,,,,,,,,,,,,,,,,,,2,8,28,5,,,AMSA19.jpg,AMNE07.jpg,AMNE19.jpg,AMSA09.jpg,AMSA19.jpg,MS,2,num_8,16,num_8,0.666743750917,,,2017_Sep_18_1445,60.0075255179,FEMA4ImagesEEG,001,101723,
AFNE01.JPG,AFNE01.JPG,AFNE01.JPG,AFNE01.JPG,AFNE01.JPG,AFNE01.JPG,,,,,,,,,,,,,,,,,,,,,2,9,29,9,,,AMSA20.jpg,AMNE13.jpg,AMSA01.jpg,AMNE04.jpg,AMNE04.jpg,MN,1,num_4,16,num_4,0.866611734731,,,2017_Sep_18_1445,60.0075255179,FEMA4ImagesEEG,001,101723,
AFNE01.JPG,AFNE01.JPG,AFNE01.JPG,AFNE01.JPG,AFNE01.JPG,AFNE01.JPG,,,,,,,,,,,,,,,,,,,,,3,0,30,6,,,AMSA18.jpg,AMNE20.jpg,AMNE13.jpg,AMSA07.jpg,AMNE20.jpg,MN,1,num_6,16,num_6,0.850133411586,,,2017_Sep_18_1445,60.0075255179,FEMA4ImagesEEG,001,101723,
AFNE01.JPG,AFNE01.JPG,AFNE01.JPG,AFNE01.JPG,AFNE01.JPG,AFNE01.JPG,,,,,,,,,,,,,,,,,,,,,3,1,31,8,,,AMSA12.jpg,AMNE15.jpg,AMNE12.jpg,AMSA18.jpg,AMNE15.jpg,MN,1,num_6,32,num_2,0.78344360902,,,2017_Sep_18_1445,60.0075255179,FEMA4ImagesEEG,001,101723,
AFNE01.JPG,AFNE01.JPG,AFNE01.JPG,AFNE01.JPG,AFNE01.JPG,AFNE01.JPG,,,,,,,,,,,,,,,,,,,,,3,2,32,0,,,AMSA17.jpg,AMNE12.jpg,AMNE19.jpg,AMSA04.jpg,AMSA04.jpg,MS,2,num_4,16,num_4,0.883426834131,,,2017_Sep_18_1445,60.0075255179,FEMA4ImagesEEG,001,101723,
AFNE01.JPG,AFNE01.JPG,AFNE01.JPG,AFNE01.JPG,AFNE01.JPG,AFNE01.JPG,,,,,,,,,,,,,,,,,,,,,3,3,33,3,,,AMSA12.jpg,AMNE12.jpg,AMSA20.jpg,AMNE08.jpg,AMNE08.jpg,MN,1,num_4,16,num_4,0.766730825417,,,2017_Sep_18_1445,60.0075255179,FEMA4ImagesEEG,001,101723,
AFNE01.JPG,AFNE01.JPG,AFNE01.JPG,AFNE01.JPG,AFNE01.JPG,AFNE01.JPG,,,,,,,,,,,,,,,,,,,,,3,4,34,2,,,AMNE10.jpg,AMSA16.jpg,AMNE19.jpg,AMSA08.jpg,AMSA08.jpg,MS,2,num_4,16,num_4,0.533591229469,,,2017_Sep_18_1445,60.0075255179,FEMA4ImagesEEG,001,101723,
AFNE01.JPG,AFNE01.JPG,AFNE01.JPG,AFNE01.JPG,AFNE01.JPG,AFNE01.JPG,,,,,,,,,,,,,,,,,,,,,3,5,35,4,,,AMNE12.jpg,AMNE16.jpg,AMSA07.jpg,AMSA13.jpg,AMSA07.jpg,MS,2,num_2,16,num_2,0.650137773715,,,2017_Sep_18_1445,60.0075255179,FEMA4ImagesEEG,001,101723,
AFNE01.JPG,AFNE01.JPG,AFNE01.JPG,AFNE01.JPG,AFNE01.JPG,AFNE01.JPG,,,,,,,,,,,,,,,,,,,,,3,6,36,5,,,AMNE04.jpg,AMSA14.jpg,AMSA16.jpg,AMNE02.jpg,AMSA16.jpg,MS,2,num_2,16,num_2,0.85014239233,,,2017_Sep_18_1445,60.0075255179,FEMA4ImagesEEG,001,101723,
AFNE01.JPG,AFNE01.JPG,AFNE01.JPG,AFNE01.JPG,AFNE01.JPG,AFNE01.JPG,,,,,,,,,,,,,,,,,,,,,3,7,37,7,,,AMNE17.jpg,AMSA05.jpg,AMNE05.jpg,AMSA01.jpg,AMNE17.jpg,MN,1,num_8,16,num_8,0.900121656479,,,2017_Sep_18_1445,60.0075255179,FEMA4ImagesEEG,001,101723,
AFNE01.JPG,AFNE01.JPG,AFNE01.JPG,AFNE01.JPG,AFNE01.JPG,AFNE01.JPG,,,,,,,,,,,,,,,,,,,,,3,8,38,1,,,AMNE14.jpg,AMSA19.jpg,AMSA03.jpg,AMNE20.jpg,AMNE14.jpg,MN,1,num_8,16,num_8,1.03346982948,,,2017_Sep_18_1445,60.0075255179,FEMA4ImagesEEG,001,101723,
