IPosition2,IPosition3,IPosition1,IPosition6,IPosition4,IPosition5,TrialsF1.thisRepN,TrialsF1.thisTrialN,TrialsF1.thisN,TrialsF1.thisIndex,TrialsM1.thisRepN,TrialsM1.thisTrialN,TrialsM1.thisN,TrialsM1.thisIndex,TrialsF2.thisRepN,TrialsF2.thisTrialN,TrialsF2.thisN,TrialsF2.thisIndex,TrialsM2.thisRepN,TrialsM2.thisTrialN,TrialsM2.thisN,TrialsM2.thisIndex,TrialsF3.thisRepN,TrialsF3.thisTrialN,TrialsF3.thisN,TrialsF3.thisIndex,TrialsM3.thisRepN,TrialsM3.thisTrialN,TrialsM3.thisN,TrialsM3.thisIndex,InstrKey_resp.keys,InstrKey_resp.rt,Image0 _Position,Image1 _Position,Image2 _Position,Image3 _Position,Center_image,condition,code,correct_answer,accuracy,Key_Resp.keys,Key_Resp.rt,BreakKey_resp.keys,BreakKey_resp.rt,date,frameRate,expName,session,participant,
,,,,,,,,,,,,,,,,,,,,,,,,,,,,,,space,13.8828235605,,,,,,,,,,,,,,2017_Sep_25_1749,60.0060433462,FEMA4ImagesEEG,001,101740,
AMSA21.JPG,AMNE23.JPG,AMNE21.JPG,AMSA25.JPG,AMNE25.JPG,AMSA23.JPG,0,0,0,5,,,,,,,,,,,,,,,,,,,,,,,AFNE03.jpg,AFSA12.jpg,AFNE20.jpg,AFSA02.jpg,AFNE20.jpg,FN,3,num_2,32,num_8,1.65004968259,,,2017_Sep_25_1749,60.0060433462,FEMA4ImagesEEG,001,101740,
AFSA21.JPG,AFNE22.JPG,AFNE21.JPG,AFSA23.JPG,AFSA22.JPG,AFNE23.JPG,0,1,1,0,,,,,,,,,,,,,,,,,,,,,,,AFNE01.jpg,AFSA08.jpg,AFSA19.jpg,AFNE14.jpg,AFNE01.jpg,FN,3,num_8,32,num_4,1.73338103801,,,2017_Sep_25_1749,60.0060433462,FEMA4ImagesEEG,001,101740,
AFNE23.JPG,AFNE24.JPG,AFNE22.JPG,AFSA24.JPG,AFSA22.JPG,AFSA23.JPG,0,2,2,8,,,,,,,,,,,,,,,,,,,,,,,AFSA02.jpg,AFNE01.jpg,AFNE17.jpg,AFSA10.jpg,AFNE01.jpg,FN,3,num_6,32,num_2,2.14998104429,,,2017_Sep_25_1749,60.0060433462,FEMA4ImagesEEG,001,101740,
AMNE22.JPG,AMSA24.JPG,AMSA22.JPG,AMNE25.JPG,AMNE24.JPG,AMSA25.JPG,0,3,3,7,,,,,,,,,,,,,,,,,,,,,,,AFSA11.jpg,AFNE16.jpg,AFNE19.jpg,AFSA18.jpg,AFSA18.jpg,FS,4,num_4,32,num_6,0.750122362166,,,2017_Sep_25_1749,60.0060433462,FEMA4ImagesEEG,001,101740,
AMSA25.JPG,AMNE24.JPG,AMSA24.JPG,AMNE26.JPG,AMSA21.JPG,AMNE25.JPG,0,4,4,3,,,,,,,,,,,,,,,,,,,,,,,AFNE02.jpg,AFSA03.jpg,AFSA08.jpg,AFNE16.jpg,AFSA08.jpg,FS,4,num_2,16,num_2,2.05003313237,,,2017_Sep_25_1749,60.0060433462,FEMA4ImagesEEG,001,101740,
AMSA21.JPG,AMNE22.JPG,AMNE21.JPG,AMSA23.JPG,AMSA22.JPG,AMNE23.JPG,0,5,5,1,,,,,,,,,,,,,,,,,,,,,,,AFNE19.jpg,AFSA08.jpg,AFSA11.jpg,AFNE13.jpg,AFSA11.jpg,FS,4,num_2,32,num_8,1.24993921985,,,2017_Sep_25_1749,60.0060433462,FEMA4ImagesEEG,001,101740,
AFNE22.JPG,AFSA24.JPG,AFSA22.JPG,AFNE25.JPG,AFNE24.JPG,AFSA25.JPG,0,6,6,6,,,,,,,,,,,,,,,,,,,,,,,AFNE14.jpg,AFSA13.jpg,AFSA14.jpg,AFNE11.jpg,AFNE14.jpg,FN,3,num_8,32,num_4,0.849822342338,,,2017_Sep_25_1749,60.0060433462,FEMA4ImagesEEG,001,101740,
AFSA25.JPG,AFNE24.JPG,AFSA24.JPG,AFNE21.JPG,AFSA21.JPG,AFNE25.JPG,0,7,7,2,,,,,,,,,,,,,,,,,,,,,,,AFSA18.jpg,AFNE02.jpg,AFNE06.jpg,AFSA12.jpg,AFSA18.jpg,FS,4,num_8,16,num_8,0.783426679263,,,2017_Sep_25_1749,60.0060433462,FEMA4ImagesEEG,001,101740,
AFSA21.JPG,AFNE23.JPG,AFNE21.JPG,AFSA25.JPG,AFNE25.JPG,AFSA23.JPG,0,8,8,4,,,,,,,,,,,,,,,,,,,,,,,AFSA09.jpg,AFNE06.jpg,AFNE15.jpg,AFSA13.jpg,AFSA09.jpg,FS,4,num_8,32,num_6,0.966758868599,,,2017_Sep_25_1749,60.0060433462,FEMA4ImagesEEG,001,101740,
AMNE23.JPG,AMNE24.JPG,AMNE22.JPG,AMSA24.JPG,AMSA22.JPG,AMSA23.JPG,0,9,9,9,,,,,,,,,,,,,,,,,,,,,,,AFSA06.jpg,AFSA15.jpg,AFNE06.jpg,AFNE05.jpg,AFSA06.jpg,FS,4,num_8,32,num_4,2.00000096223,,,2017_Sep_25_1749,60.0060433462,FEMA4ImagesEEG,001,101740,
AFSA21.JPG,AFNE22.JPG,AFNE21.JPG,AFSA23.JPG,AFSA22.JPG,AFNE23.JPG,,,,,0,0,0,0,,,,,,,,,,,,,,,,,,,AMSA06.jpg,AMNE16.jpg,AMSA15.jpg,AMNE04.jpg,AMSA15.jpg,MS,2,num_2,16,num_2,0.816855443292,,,2017_Sep_25_1749,60.0060433462,FEMA4ImagesEEG,001,101740,
AMNE23.JPG,AMNE24.JPG,AMNE22.JPG,AMSA24.JPG,AMSA22.JPG,AMSA23.JPG,,,,,0,1,1,9,,,,,,,,,,,,,,,,,,,AMNE20.jpg,AMNE12.jpg,AMSA10.jpg,AMSA11.jpg,AMSA10.jpg,MS,2,num_2,32,num_6,1.46670883324,,,2017_Sep_25_1749,60.0060433462,FEMA4ImagesEEG,001,101740,
AMSA21.JPG,AMNE23.JPG,AMNE21.JPG,AMSA25.JPG,AMNE25.JPG,AMSA23.JPG,,,,,0,2,2,5,,,,,,,,,,,,,,,,,,,AMNE08.jpg,AMNE19.jpg,AMSA05.jpg,AMSA01.jpg,AMNE19.jpg,MN,1,num_6,32,num_2,1.00012572989,,,2017_Sep_25_1749,60.0060433462,FEMA4ImagesEEG,001,101740,
AMSA21.JPG,AMNE22.JPG,AMNE21.JPG,AMSA23.JPG,AMSA22.JPG,AMNE23.JPG,,,,,0,3,3,1,,,,,,,,,,,,,,,,,,,AMNE15.jpg,AMSA04.jpg,AMNE09.jpg,AMSA09.jpg,AMSA09.jpg,MS,2,num_4,32,num_6,1.10011084762,,,2017_Sep_25_1749,60.0060433462,FEMA4ImagesEEG,001,101740,
AFSA21.JPG,AFNE23.JPG,AFNE21.JPG,AFSA25.JPG,AFNE25.JPG,AFSA23.JPG,,,,,0,4,4,4,,,,,,,,,,,,,,,,,,,AMNE18.jpg,AMSA03.jpg,AMNE16.jpg,AMSA10.jpg,AMNE16.jpg,MN,1,num_2,32,num_8,1.16673680168,,,2017_Sep_25_1749,60.0060433462,FEMA4ImagesEEG,001,101740,
AFNE22.JPG,AFSA24.JPG,AFSA22.JPG,AFNE25.JPG,AFNE24.JPG,AFSA25.JPG,,,,,0,5,5,6,,,,,,,,,,,,,,,,,,,AMNE15.jpg,AMSA04.jpg,AMSA06.jpg,AMNE04.jpg,AMSA06.jpg,MS,2,num_2,32,num_8,0.933459362597,,,2017_Sep_25_1749,60.0060433462,FEMA4ImagesEEG,001,101740,
AMSA25.JPG,AMNE24.JPG,AMSA24.JPG,AMNE26.JPG,AMSA21.JPG,AMNE25.JPG,,,,,0,6,6,3,,,,,,,,,,,,,,,,,,,AMNE13.jpg,AMSA11.jpg,AMSA18.jpg,AMNE05.jpg,AMNE05.jpg,MN,1,num_4,32,num_6,0.850133780448,,,2017_Sep_25_1749,60.0060433462,FEMA4ImagesEEG,001,101740,
AFSA25.JPG,AFNE24.JPG,AFSA24.JPG,AFNE21.JPG,AFSA21.JPG,AFNE25.JPG,,,,,0,7,7,2,,,,,,,,,,,,,,,,,,,AMSA15.jpg,AMSA18.jpg,AMNE19.jpg,AMNE10.jpg,AMSA18.jpg,MS,2,num_6,32,num_8,0.800090705161,,,2017_Sep_25_1749,60.0060433462,FEMA4ImagesEEG,001,101740,
AMNE22.JPG,AMSA24.JPG,AMSA22.JPG,AMNE25.JPG,AMNE24.JPG,AMSA25.JPG,,,,,0,8,8,7,,,,,,,,,,,,,,,,,,,AMSA02.jpg,AMNE13.jpg,AMNE16.jpg,AMSA08.jpg,AMSA08.jpg,MS,2,num_4,16,num_4,0.850143402698,,,2017_Sep_25_1749,60.0060433462,FEMA4ImagesEEG,001,101740,
AFNE23.JPG,AFNE24.JPG,AFNE22.JPG,AFSA24.JPG,AFSA22.JPG,AFSA23.JPG,,,,,0,9,9,8,,,,,,,,,,,,,,,,,,,AMSA06.jpg,AMNE11.jpg,AMNE02.jpg,AMSA04.jpg,AMSA06.jpg,MS,2,num_8,16,num_8,0.816815350845,,,2017_Sep_25_1749,60.0060433462,FEMA4ImagesEEG,001,101740,
AMSA21.JPG,AMNE22.JPG,AMNE21.JPG,AMSA23.JPG,AMSA22.JPG,AMNE23.JPG,,,,,,,,,0,0,0,1,,,,,,,,,,,,,,,AFNE03.jpg,AFNE15.jpg,AFSA07.jpg,AFSA16.jpg,AFSA16.jpg,FS,4,num_4,16,num_4,1.06705253781,,,2017_Sep_25_1749,60.0060433462,FEMA4ImagesEEG,001,101740,
AMSA21.JPG,AMNE23.JPG,AMNE21.JPG,AMSA25.JPG,AMNE25.JPG,AMSA23.JPG,,,,,,,,,0,1,1,5,,,,,,,,,,,,,,,AFSA14.jpg,AFNE19.jpg,AFSA12.jpg,AFNE01.jpg,AFNE19.jpg,FN,3,num_6,32,num_8,1.3001112325,,,2017_Sep_25_1749,60.0060433462,FEMA4ImagesEEG,001,101740,
AFNE22.JPG,AFSA24.JPG,AFSA22.JPG,AFNE25.JPG,AFNE24.JPG,AFSA25.JPG,,,,,,,,,0,2,2,6,,,,,,,,,,,,,,,AFNE07.jpg,AFSA07.jpg,AFSA18.jpg,AFNE01.jpg,AFSA07.jpg,FS,4,num_6,16,num_6,0.466807300283,,,2017_Sep_25_1749,60.0060433462,FEMA4ImagesEEG,001,101740,
AFSA21.JPG,AFNE23.JPG,AFNE21.JPG,AFSA25.JPG,AFNE25.JPG,AFSA23.JPG,,,,,,,,,0,3,3,4,,,,,,,,,,,,,,,AFNE15.jpg,AFSA19.jpg,AFNE02.jpg,AFSA16.jpg,AFSA19.jpg,FS,4,num_6,32,num_2,1.33340207854,,,2017_Sep_25_1749,60.0060433462,FEMA4ImagesEEG,001,101740,
AFSA25.JPG,AFNE24.JPG,AFSA24.JPG,AFNE21.JPG,AFSA21.JPG,AFNE25.JPG,,,,,,,,,0,4,4,2,,,,,,,,,,,,,,,AFNE17.jpg,AFSA20.jpg,AFSA10.jpg,AFNE18.jpg,AFNE17.jpg,FN,3,num_8,32,num_4,0.950109275989,,,2017_Sep_25_1749,60.0060433462,FEMA4ImagesEEG,001,101740,
AMNE23.JPG,AMNE24.JPG,AMNE22.JPG,AMSA24.JPG,AMSA22.JPG,AMSA23.JPG,,,,,,,,,0,5,5,9,,,,,,,,,,,,,,,AFSA01.jpg,AFNE14.jpg,AFSA04.jpg,AFNE18.jpg,AFSA01.jpg,FS,4,num_8,16,num_8,0.750113702146,,,2017_Sep_25_1749,60.0060433462,FEMA4ImagesEEG,001,101740,
AMSA25.JPG,AMNE24.JPG,AMSA24.JPG,AMNE26.JPG,AMSA21.JPG,AMNE25.JPG,,,,,,,,,0,6,6,3,,,,,,,,,,,,,,,AFSA04.jpg,AFNE15.jpg,AFNE14.jpg,AFSA12.jpg,AFSA04.jpg,FS,4,num_8,16,num_8,0.916756206483,,,2017_Sep_25_1749,60.0060433462,FEMA4ImagesEEG,001,101740,
AFNE23.JPG,AFNE24.JPG,AFNE22.JPG,AFSA24.JPG,AFSA22.JPG,AFSA23.JPG,,,,,,,,,0,7,7,8,,,,,,,,,,,,,,,AFSA18.jpg,AFNE08.jpg,AFSA06.jpg,AFNE17.jpg,AFNE17.jpg,FN,3,num_4,16,num_4,1.06675489142,,,2017_Sep_25_1749,60.0060433462,FEMA4ImagesEEG,001,101740,
AMNE22.JPG,AMSA24.JPG,AMSA22.JPG,AMNE25.JPG,AMNE24.JPG,AMSA25.JPG,,,,,,,,,0,8,8,7,,,,,,,,,,,,,,,AFNE02.jpg,AFNE10.jpg,AFSA07.jpg,AFSA06.jpg,AFSA06.jpg,FS,4,num_4,32,num_8,1.06649252644,,,2017_Sep_25_1749,60.0060433462,FEMA4ImagesEEG,001,101740,
AFSA21.JPG,AFNE22.JPG,AFNE21.JPG,AFSA23.JPG,AFSA22.JPG,AFNE23.JPG,,,,,,,,,0,9,9,0,,,,,,,,,,,,,,,AFSA15.jpg,AFSA07.jpg,AFNE01.jpg,AFNE11.jpg,AFSA15.jpg,FS,4,num_8,32,num_6,0.983473892091,,,2017_Sep_25_1749,60.0060433462,FEMA4ImagesEEG,001,101740,
AMNE22.JPG,AMSA24.JPG,AMSA22.JPG,AMNE25.JPG,AMNE24.JPG,AMSA25.JPG,,,,,,,,,,,,,0,0,0,7,,,,,,,,,,,AMSA05.jpg,AMNE14.jpg,AMNE18.jpg,AMSA09.jpg,AMSA09.jpg,MS,2,num_4,16,num_4,0.850100744341,,,2017_Sep_25_1749,60.0060433462,FEMA4ImagesEEG,001,101740,
AMSA21.JPG,AMNE22.JPG,AMNE21.JPG,AMSA23.JPG,AMSA22.JPG,AMNE23.JPG,,,,,,,,,,,,,0,1,1,1,,,,,,,,,,,AMSA04.jpg,AMSA14.jpg,AMNE07.jpg,AMNE17.jpg,AMNE07.jpg,MN,1,num_2,32,num_6,1.05028715817,,,2017_Sep_25_1749,60.0060433462,FEMA4ImagesEEG,001,101740,
AMSA25.JPG,AMNE24.JPG,AMSA24.JPG,AMNE26.JPG,AMSA21.JPG,AMNE25.JPG,,,,,,,,,,,,,0,2,2,3,,,,,,,,,,,AMSA08.jpg,AMNE01.jpg,AMNE20.jpg,AMSA12.jpg,AMNE01.jpg,MN,1,num_6,16,num_6,0.91673792433,,,2017_Sep_25_1749,60.0060433462,FEMA4ImagesEEG,001,101740,
AFSA21.JPG,AFNE23.JPG,AFNE21.JPG,AFSA25.JPG,AFNE25.JPG,AFSA23.JPG,,,,,,,,,,,,,0,3,3,4,,,,,,,,,,,AMNE20.jpg,AMSA10.jpg,AMNE11.jpg,AMSA08.jpg,AMSA10.jpg,MS,2,num_6,32,num_2,0.950089710881,,,2017_Sep_25_1749,60.0060433462,FEMA4ImagesEEG,001,101740,
AMSA21.JPG,AMNE23.JPG,AMNE21.JPG,AMSA25.JPG,AMNE25.JPG,AMSA23.JPG,,,,,,,,,,,,,0,4,4,5,,,,,,,,,,,AMSA10.jpg,AMSA18.jpg,AMNE09.jpg,AMNE13.jpg,AMNE09.jpg,MN,1,num_2,32,num_4,0.650145583728,,,2017_Sep_25_1749,60.0060433462,FEMA4ImagesEEG,001,101740,
AMNE23.JPG,AMNE24.JPG,AMNE22.JPG,AMSA24.JPG,AMSA22.JPG,AMSA23.JPG,,,,,,,,,,,,,0,5,5,9,,,,,,,,,,,AMSA16.jpg,AMNE11.jpg,AMSA09.jpg,AMNE20.jpg,AMSA09.jpg,MS,2,num_2,16,num_2,1.10015126079,,,2017_Sep_25_1749,60.0060433462,FEMA4ImagesEEG,001,101740,
AFNE22.JPG,AFSA24.JPG,AFSA22.JPG,AFNE25.JPG,AFNE24.JPG,AFSA25.JPG,,,,,,,,,,,,,0,6,6,6,,,,,,,,,,,AMSA20.jpg,AMNE12.jpg,AMSA10.jpg,AMNE04.jpg,AMNE04.jpg,MN,1,num_4,16,num_4,0.916656777204,,,2017_Sep_25_1749,60.0060433462,FEMA4ImagesEEG,001,101740,
AFSA21.JPG,AFNE22.JPG,AFNE21.JPG,AFSA23.JPG,AFSA22.JPG,AFNE23.JPG,,,,,,,,,,,,,0,7,7,0,,,,,,,,,,,AMSA10.jpg,AMNE03.jpg,AMNE16.jpg,AMSA15.jpg,AMNE03.jpg,MN,1,num_6,16,num_6,0.866761883546,,,2017_Sep_25_1749,60.0060433462,FEMA4ImagesEEG,001,101740,
AFNE23.JPG,AFNE24.JPG,AFNE22.JPG,AFSA24.JPG,AFSA22.JPG,AFSA23.JPG,,,,,,,,,,,,,0,8,8,8,,,,,,,,,,,AMNE11.jpg,AMNE18.jpg,AMSA15.jpg,AMSA20.jpg,AMNE11.jpg,MN,1,num_8,16,num_8,0.750129418389,,,2017_Sep_25_1749,60.0060433462,FEMA4ImagesEEG,001,101740,
AFSA25.JPG,AFNE24.JPG,AFSA24.JPG,AFNE21.JPG,AFSA21.JPG,AFNE25.JPG,,,,,,,,,,,,,0,9,9,2,,,,,,,,,,,AMNE09.jpg,AMSA12.jpg,AMSA19.jpg,AMNE01.jpg,AMNE01.jpg,MN,1,num_4,32,num_8,0.783490185684,,,2017_Sep_25_1749,60.0060433462,FEMA4ImagesEEG,001,101740,
AMSA21.JPG,AMNE23.JPG,AMNE21.JPG,AMSA25.JPG,AMNE25.JPG,AMSA23.JPG,,,,,,,,,,,,,,,,,0,0,0,5,,,,,,,AFNE03.jpg,AFNE16.jpg,AFSA19.jpg,AFSA12.jpg,AFSA12.jpg,FS,4,num_4,32,num_6,1.09994951554,,,2017_Sep_25_1749,60.0060433462,FEMA4ImagesEEG,001,101740,
AMNE22.JPG,AMSA24.JPG,AMSA22.JPG,AMNE25.JPG,AMNE24.JPG,AMSA25.JPG,,,,,,,,,,,,,,,,,0,1,1,7,,,,,,,AFSA03.jpg,AFNE14.jpg,AFNE07.jpg,AFSA16.jpg,AFNE07.jpg,FN,3,num_2,32,num_6,0.88344547461,,,2017_Sep_25_1749,60.0060433462,FEMA4ImagesEEG,001,101740,
AMNE23.JPG,AMNE24.JPG,AMNE22.JPG,AMSA24.JPG,AMSA22.JPG,AMSA23.JPG,,,,,,,,,,,,,,,,,0,2,2,9,,,,,,,AFSA08.jpg,AFSA17.jpg,AFNE04.jpg,AFNE18.jpg,AFNE04.jpg,FN,3,num_2,32,num_8,0.583486272662,,,2017_Sep_25_1749,60.0060433462,FEMA4ImagesEEG,001,101740,
AFNE22.JPG,AFSA24.JPG,AFSA22.JPG,AFNE25.JPG,AFNE24.JPG,AFSA25.JPG,,,,,,,,,,,,,,,,,0,3,3,6,,,,,,,AFSA13.jpg,AFSA17.jpg,AFNE15.jpg,AFNE02.jpg,AFNE02.jpg,FN,3,num_4,16,num_4,0.800143306435,,,2017_Sep_25_1749,60.0060433462,FEMA4ImagesEEG,001,101740,
AFSA21.JPG,AFNE22.JPG,AFNE21.JPG,AFSA23.JPG,AFSA22.JPG,AFNE23.JPG,,,,,,,,,,,,,,,,,0,4,4,0,,,,,,,AFSA20.jpg,AFNE20.jpg,AFNE15.jpg,AFSA04.jpg,AFSA20.jpg,FS,4,num_8,16,num_8,0.716793668864,,,2017_Sep_25_1749,60.0060433462,FEMA4ImagesEEG,001,101740,
AMSA25.JPG,AMNE24.JPG,AMSA24.JPG,AMNE26.JPG,AMSA21.JPG,AMNE25.JPG,,,,,,,,,,,,,,,,,0,5,5,3,,,,,,,AFSA07.jpg,AFNE11.jpg,AFNE16.jpg,AFSA15.jpg,AFNE11.jpg,FN,3,num_6,32,num_2,1.5833967863,,,2017_Sep_25_1749,60.0060433462,FEMA4ImagesEEG,001,101740,
AFSA21.JPG,AFNE23.JPG,AFNE21.JPG,AFSA25.JPG,AFNE25.JPG,AFSA23.JPG,,,,,,,,,,,,,,,,,0,6,6,4,,,,,,,AFSA11.jpg,AFSA18.jpg,AFNE04.jpg,AFNE07.jpg,AFSA18.jpg,FS,4,num_6,32,num_4,0.950116011547,,,2017_Sep_25_1749,60.0060433462,FEMA4ImagesEEG,001,101740,
AFSA25.JPG,AFNE24.JPG,AFSA24.JPG,AFNE21.JPG,AFSA21.JPG,AFNE25.JPG,,,,,,,,,,,,,,,,,0,7,7,2,,,,,,,AFNE02.jpg,AFNE19.jpg,AFSA03.jpg,AFSA10.jpg,AFNE02.jpg,FN,3,num_8,32,num_6,0.600131695624,,,2017_Sep_25_1749,60.0060433462,FEMA4ImagesEEG,001,101740,
AFNE23.JPG,AFNE24.JPG,AFNE22.JPG,AFSA24.JPG,AFSA22.JPG,AFSA23.JPG,,,,,,,,,,,,,,,,,0,8,8,8,,,,,,,AFSA16.jpg,AFNE02.jpg,AFSA18.jpg,AFNE09.jpg,AFSA16.jpg,FS,4,num_8,16,num_8,1.43345711741,,,2017_Sep_25_1749,60.0060433462,FEMA4ImagesEEG,001,101740,
AMSA21.JPG,AMNE22.JPG,AMNE21.JPG,AMSA23.JPG,AMSA22.JPG,AMNE23.JPG,,,,,,,,,,,,,,,,,0,9,9,1,,,,,,,AFNE18.jpg,AFSA20.jpg,AFSA17.jpg,AFNE15.jpg,AFNE18.jpg,FN,3,num_8,32,num_4,0.916926839913,,,2017_Sep_25_1749,60.0060433462,FEMA4ImagesEEG,001,101740,
AMSA25.JPG,AMNE24.JPG,AMSA24.JPG,AMNE26.JPG,AMSA21.JPG,AMNE25.JPG,,,,,,,,,,,,,,,,,,,,,0,0,0,3,,,AMSA20.jpg,AMSA10.jpg,AMNE12.jpg,AMNE18.jpg,AMSA20.jpg,MS,2,num_8,32,num_6,0.900100519764,,,2017_Sep_25_1749,60.0060433462,FEMA4ImagesEEG,001,101740,
AMSA21.JPG,AMNE22.JPG,AMNE21.JPG,AMSA23.JPG,AMSA22.JPG,AMNE23.JPG,,,,,,,,,,,,,,,,,,,,,0,1,1,1,,,AMNE05.jpg,AMSA16.jpg,AMNE13.jpg,AMSA17.jpg,AMSA17.jpg,MS,2,num_4,16,num_4,1.40012329229,,,2017_Sep_25_1749,60.0060433462,FEMA4ImagesEEG,001,101740,
AMNE22.JPG,AMSA24.JPG,AMSA22.JPG,AMNE25.JPG,AMNE24.JPG,AMSA25.JPG,,,,,,,,,,,,,,,,,,,,,0,2,2,7,,,AMNE05.jpg,AMNE15.jpg,AMSA02.jpg,AMSA18.jpg,AMSA18.jpg,MS,2,num_4,16,num_4,1.13342606981,,,2017_Sep_25_1749,60.0060433462,FEMA4ImagesEEG,001,101740,
AFSA25.JPG,AFNE24.JPG,AFSA24.JPG,AFNE21.JPG,AFSA21.JPG,AFNE25.JPG,,,,,,,,,,,,,,,,,,,,,0,3,3,2,,,AMNE16.jpg,AMSA14.jpg,AMSA17.jpg,AMNE18.jpg,AMSA17.jpg,MS,2,num_2,32,num_8,0.850073481444,,,2017_Sep_25_1749,60.0060433462,FEMA4ImagesEEG,001,101740,
AFNE23.JPG,AFNE24.JPG,AFNE22.JPG,AFSA24.JPG,AFSA22.JPG,AFSA23.JPG,,,,,,,,,,,,,,,,,,,,,0,4,4,8,,,AMNE08.jpg,AMSA03.jpg,AMSA05.jpg,AMNE02.jpg,AMNE08.jpg,MN,1,num_8,16,num_8,0.850120950898,,,2017_Sep_25_1749,60.0060433462,FEMA4ImagesEEG,001,101740,
AMSA21.JPG,AMNE23.JPG,AMNE21.JPG,AMSA25.JPG,AMNE25.JPG,AMSA23.JPG,,,,,,,,,,,,,,,,,,,,,0,5,5,5,,,AMNE06.jpg,AMNE02.jpg,AMSA17.jpg,AMSA07.jpg,AMNE06.jpg,MN,1,num_8,32,num_4,0.800134646473,,,2017_Sep_25_1749,60.0060433462,FEMA4ImagesEEG,001,101740,
AFNE22.JPG,AFSA24.JPG,AFSA22.JPG,AFNE25.JPG,AFNE24.JPG,AFSA25.JPG,,,,,,,,,,,,,,,,,,,,,0,6,6,6,,,AMNE11.jpg,AMSA16.jpg,AMSA08.jpg,AMNE07.jpg,AMSA08.jpg,MS,2,num_2,16,num_2,0.916795978148,,,2017_Sep_25_1749,60.0060433462,FEMA4ImagesEEG,001,101740,
AMNE23.JPG,AMNE24.JPG,AMNE22.JPG,AMSA24.JPG,AMSA22.JPG,AMSA23.JPG,,,,,,,,,,,,,,,,,,,,,0,7,7,9,,,AMNE03.jpg,AMSA06.jpg,AMNE17.jpg,AMSA08.jpg,AMSA08.jpg,MS,2,num_4,16,num_4,0.650213259796,,,2017_Sep_25_1749,60.0060433462,FEMA4ImagesEEG,001,101740,
AFSA21.JPG,AFNE23.JPG,AFNE21.JPG,AFSA25.JPG,AFNE25.JPG,AFSA23.JPG,,,,,,,,,,,,,,,,,,,,,0,8,8,4,,,AMNE09.jpg,AMSA20.jpg,AMNE16.jpg,AMSA07.jpg,AMNE09.jpg,MN,1,num_8,16,num_8,1.16661267553,,,2017_Sep_25_1749,60.0060433462,FEMA4ImagesEEG,001,101740,
AFSA21.JPG,AFNE22.JPG,AFNE21.JPG,AFSA23.JPG,AFSA22.JPG,AFNE23.JPG,,,,,,,,,,,,,,,,,,,,,0,9,9,0,,,AMNE09.jpg,AMSA11.jpg,AMSA19.jpg,AMNE17.jpg,AMNE17.jpg,MN,1,num_4,32,num_8,1.01674934261,,,2017_Sep_25_1749,60.0060433462,FEMA4ImagesEEG,001,101740,
,,,,,,,,,,,,,,,,,,,,,,,,,,,,,,,,,,,,,,,,,,,space,20.3816188626,2017_Sep_25_1749,60.0060433462,FEMA4ImagesEEG,001,101740,
AFNE01.JPG,AFNE01.JPG,AFNE01.JPG,AFNE01.JPG,AFNE01.JPG,AFNE01.JPG,0,0,0,2,,,,,,,,,,,,,,,,,,,,,,,AFSA08.jpg,AFNE20.jpg,AFNE16.jpg,AFSA18.jpg,AFNE20.jpg,FN,3,num_6,32,num_8,0.799980370735,,,2017_Sep_25_1749,60.0060433462,FEMA4ImagesEEG,001,101740,
AFNE01.JPG,AFNE01.JPG,AFNE01.JPG,AFNE01.JPG,AFNE01.JPG,AFNE01.JPG,0,1,1,8,,,,,,,,,,,,,,,,,,,,,,,AFSA04.jpg,AFSA07.jpg,AFNE04.jpg,AFNE16.jpg,AFSA04.jpg,FS,4,num_8,16,num_8,2.98338729242,,,2017_Sep_25_1749,60.0060433462,FEMA4ImagesEEG,001,101740,
AFNE01.JPG,AFNE01.JPG,AFNE01.JPG,AFNE01.JPG,AFNE01.JPG,AFNE01.JPG,0,2,2,0,,,,,,,,,,,,,,,,,,,,,,,AFNE01.jpg,AFNE10.jpg,AFSA14.jpg,AFSA13.jpg,AFNE10.jpg,FN,3,num_6,32,num_4,1.66665725829,,,2017_Sep_25_1749,60.0060433462,FEMA4ImagesEEG,001,101740,
AFNE01.JPG,AFNE01.JPG,AFNE01.JPG,AFNE01.JPG,AFNE01.JPG,AFNE01.JPG,0,3,3,5,,,,,,,,,,,,,,,,,,,,,,,AFNE15.jpg,AFSA09.jpg,AFNE11.jpg,AFSA07.jpg,AFSA07.jpg,FS,4,num_4,16,num_4,0.983425139682,,,2017_Sep_25_1749,60.0060433462,FEMA4ImagesEEG,001,101740,
AFNE01.JPG,AFNE01.JPG,AFNE01.JPG,AFNE01.JPG,AFNE01.JPG,AFNE01.JPG,0,4,4,9,,,,,,,,,,,,,,,,,,,,,,,AFSA16.jpg,AFNE19.jpg,AFSA11.jpg,AFNE18.jpg,AFNE19.jpg,FN,3,num_6,16,num_6,0.86676477018,,,2017_Sep_25_1749,60.0060433462,FEMA4ImagesEEG,001,101740,
AFNE01.JPG,AFNE01.JPG,AFNE01.JPG,AFNE01.JPG,AFNE01.JPG,AFNE01.JPG,0,5,5,6,,,,,,,,,,,,,,,,,,,,,,,AFSA18.jpg,AFSA12.jpg,AFNE12.jpg,AFNE13.jpg,AFNE12.jpg,FN,3,num_2,32,num_8,0.583458368317,,,2017_Sep_25_1749,60.0060433462,FEMA4ImagesEEG,001,101740,
AFNE01.JPG,AFNE01.JPG,AFNE01.JPG,AFNE01.JPG,AFNE01.JPG,AFNE01.JPG,0,6,6,3,,,,,,,,,,,,,,,,,,,,,,,AFSA10.jpg,AFNE15.jpg,AFSA14.jpg,AFNE14.jpg,AFNE15.jpg,FN,3,num_6,16,num_6,0.583424049197,,,2017_Sep_25_1749,60.0060433462,FEMA4ImagesEEG,001,101740,
AFNE01.JPG,AFNE01.JPG,AFNE01.JPG,AFNE01.JPG,AFNE01.JPG,AFNE01.JPG,0,7,7,1,,,,,,,,,,,,,,,,,,,,,,,AFSA12.jpg,AFSA06.jpg,AFNE05.jpg,AFNE19.jpg,AFNE05.jpg,FN,3,num_2,32,num_4,0.916757168714,,,2017_Sep_25_1749,60.0060433462,FEMA4ImagesEEG,001,101740,
AFNE01.JPG,AFNE01.JPG,AFNE01.JPG,AFNE01.JPG,AFNE01.JPG,AFNE01.JPG,0,8,8,4,,,,,,,,,,,,,,,,,,,,,,,AFSA06.jpg,AFSA11.jpg,AFNE15.jpg,AFNE04.jpg,AFNE15.jpg,FN,3,num_2,32,num_4,1.15008785058,,,2017_Sep_25_1749,60.0060433462,FEMA4ImagesEEG,001,101740,
AFNE01.JPG,AFNE01.JPG,AFNE01.JPG,AFNE01.JPG,AFNE01.JPG,AFNE01.JPG,0,9,9,7,,,,,,,,,,,,,,,,,,,,,,,AFNE12.jpg,AFSA20.jpg,AFSA05.jpg,AFNE14.jpg,AFNE14.jpg,FN,3,num_4,16,num_4,0.733467958402,,,2017_Sep_25_1749,60.0060433462,FEMA4ImagesEEG,001,101740,
AFNE01.JPG,AFNE01.JPG,AFNE01.JPG,AFNE01.JPG,AFNE01.JPG,AFNE01.JPG,1,0,10,3,,,,,,,,,,,,,,,,,,,,,,,AFSA10.jpg,AFSA01.jpg,AFNE14.jpg,AFNE15.jpg,AFSA10.jpg,FS,4,num_8,32,num_6,0.716799442191,,,2017_Sep_25_1749,60.0060433462,FEMA4ImagesEEG,001,101740,
AFNE01.JPG,AFNE01.JPG,AFNE01.JPG,AFNE01.JPG,AFNE01.JPG,AFNE01.JPG,1,1,11,0,,,,,,,,,,,,,,,,,,,,,,,AFNE20.jpg,AFSA20.jpg,AFNE02.jpg,AFSA08.jpg,AFSA08.jpg,FS,4,num_4,16,num_4,1.06678343727,,,2017_Sep_25_1749,60.0060433462,FEMA4ImagesEEG,001,101740,
AFNE01.JPG,AFNE01.JPG,AFNE01.JPG,AFNE01.JPG,AFNE01.JPG,AFNE01.JPG,1,2,12,8,,,,,,,,,,,,,,,,,,,,,,,AFSA10.jpg,AFSA05.jpg,AFNE17.jpg,AFNE09.jpg,AFNE09.jpg,FN,3,num_4,32,num_8,1.01674645598,,,2017_Sep_25_1749,60.0060433462,FEMA4ImagesEEG,001,101740,
AFNE01.JPG,AFNE01.JPG,AFNE01.JPG,AFNE01.JPG,AFNE01.JPG,AFNE01.JPG,1,3,13,7,,,,,,,,,,,,,,,,,,,,,,,AFNE04.jpg,AFNE18.jpg,AFSA19.jpg,AFSA20.jpg,AFSA19.jpg,FS,4,num_2,32,num_6,0.950123067771,,,2017_Sep_25_1749,60.0060433462,FEMA4ImagesEEG,001,101740,
AFNE01.JPG,AFNE01.JPG,AFNE01.JPG,AFNE01.JPG,AFNE01.JPG,AFNE01.JPG,1,4,14,6,,,,,,,,,,,,,,,,,,,,,,,AFNE06.jpg,AFNE14.jpg,AFSA16.jpg,AFSA07.jpg,AFNE06.jpg,FN,3,num_8,32,num_4,0.733503560536,,,2017_Sep_25_1749,60.0060433462,FEMA4ImagesEEG,001,101740,
AFNE01.JPG,AFNE01.JPG,AFNE01.JPG,AFNE01.JPG,AFNE01.JPG,AFNE01.JPG,1,5,15,5,,,,,,,,,,,,,,,,,,,,,,,AFNE06.jpg,AFNE07.jpg,AFSA04.jpg,AFSA20.jpg,AFSA20.jpg,FS,4,num_4,16,num_4,0.90011399088,,,2017_Sep_25_1749,60.0060433462,FEMA4ImagesEEG,001,101740,
AFNE01.JPG,AFNE01.JPG,AFNE01.JPG,AFNE01.JPG,AFNE01.JPG,AFNE01.JPG,1,6,16,1,,,,,,,,,,,,,,,,,,,,,,,AFSA05.jpg,AFSA13.jpg,AFNE09.jpg,AFNE19.jpg,AFNE19.jpg,FN,3,num_4,16,num_4,0.966425299412,,,2017_Sep_25_1749,60.0060433462,FEMA4ImagesEEG,001,101740,
AFNE01.JPG,AFNE01.JPG,AFNE01.JPG,AFNE01.JPG,AFNE01.JPG,AFNE01.JPG,1,7,17,2,,,,,,,,,,,,,,,,,,,,,,,AFNE03.jpg,AFSA06.jpg,AFSA17.jpg,AFNE04.jpg,AFSA06.jpg,FS,4,num_6,16,num_6,0.533511835616,,,2017_Sep_25_1749,60.0060433462,FEMA4ImagesEEG,001,101740,
AFNE01.JPG,AFNE01.JPG,AFNE01.JPG,AFNE01.JPG,AFNE01.JPG,AFNE01.JPG,1,8,18,4,,,,,,,,,,,,,,,,,,,,,,,AFSA10.jpg,AFSA13.jpg,AFNE19.jpg,AFNE10.jpg,AFNE19.jpg,FN,3,num_2,32,num_8,0.983340143692,,,2017_Sep_25_1749,60.0060433462,FEMA4ImagesEEG,001,101740,
AFNE01.JPG,AFNE01.JPG,AFNE01.JPG,AFNE01.JPG,AFNE01.JPG,AFNE01.JPG,1,9,19,9,,,,,,,,,,,,,,,,,,,,,,,AFSA08.jpg,AFSA06.jpg,AFNE01.jpg,AFNE18.jpg,AFNE01.jpg,FN,3,num_2,32,num_6,0.816473763145,,,2017_Sep_25_1749,60.0060433462,FEMA4ImagesEEG,001,101740,
AFNE01.JPG,AFNE01.JPG,AFNE01.JPG,AFNE01.JPG,AFNE01.JPG,AFNE01.JPG,2,0,20,5,,,,,,,,,,,,,,,,,,,,,,,AFNE15.jpg,AFSA12.jpg,AFSA18.jpg,AFNE08.jpg,AFSA12.jpg,FS,4,num_6,32,num_8,0.450122747046,,,2017_Sep_25_1749,60.0060433462,FEMA4ImagesEEG,001,101740,
AFNE01.JPG,AFNE01.JPG,AFNE01.JPG,AFNE01.JPG,AFNE01.JPG,AFNE01.JPG,2,1,21,6,,,,,,,,,,,,,,,,,,,,,,,AFSA06.jpg,AFNE05.jpg,AFSA12.jpg,AFNE11.jpg,AFSA12.jpg,FS,4,num_2,16,num_2,0.983448232932,,,2017_Sep_25_1749,60.0060433462,FEMA4ImagesEEG,001,101740,
AFNE01.JPG,AFNE01.JPG,AFNE01.JPG,AFNE01.JPG,AFNE01.JPG,AFNE01.JPG,2,2,22,7,,,,,,,,,,,,,,,,,,,,,,,AFNE16.jpg,AFSA06.jpg,AFNE03.jpg,AFSA18.jpg,AFSA18.jpg,FS,4,num_4,16,num_4,0.533455385419,,,2017_Sep_25_1749,60.0060433462,FEMA4ImagesEEG,001,101740,
AFNE01.JPG,AFNE01.JPG,AFNE01.JPG,AFNE01.JPG,AFNE01.JPG,AFNE01.JPG,2,3,23,0,,,,,,,,,,,,,,,,,,,,,,,AFNE09.jpg,AFNE14.jpg,AFSA10.jpg,AFSA11.jpg,AFSA10.jpg,FS,4,num_2,32,num_6,0.816776220629,,,2017_Sep_25_1749,60.0060433462,FEMA4ImagesEEG,001,101740,
AFNE01.JPG,AFNE01.JPG,AFNE01.JPG,AFNE01.JPG,AFNE01.JPG,AFNE01.JPG,2,4,24,3,,,,,,,,,,,,,,,,,,,,,,,AFSA15.jpg,AFNE03.jpg,AFSA07.jpg,AFNE10.jpg,AFSA07.jpg,FS,4,num_2,32,num_8,1.10009962169,,,2017_Sep_25_1749,60.0060433462,FEMA4ImagesEEG,001,101740,
AFNE01.JPG,AFNE01.JPG,AFNE01.JPG,AFNE01.JPG,AFNE01.JPG,AFNE01.JPG,2,5,25,4,,,,,,,,,,,,,,,,,,,,,,,AFNE06.jpg,AFSA04.jpg,AFNE01.jpg,AFSA08.jpg,AFNE01.jpg,FN,3,num_2,32,num_8,1.53340759524,,,2017_Sep_25_1749,60.0060433462,FEMA4ImagesEEG,001,101740,
AFNE01.JPG,AFNE01.JPG,AFNE01.JPG,AFNE01.JPG,AFNE01.JPG,AFNE01.JPG,2,6,26,1,,,,,,,,,,,,,,,,,,,,,,,AFSA09.jpg,AFNE08.jpg,AFSA19.jpg,AFNE12.jpg,AFSA19.jpg,FS,4,num_2,32,num_6,0.383447399014,,,2017_Sep_25_1749,60.0060433462,FEMA4ImagesEEG,001,101740,
AFNE01.JPG,AFNE01.JPG,AFNE01.JPG,AFNE01.JPG,AFNE01.JPG,AFNE01.JPG,2,7,27,9,,,,,,,,,,,,,,,,,,,,,,,AFNE09.jpg,AFSA05.jpg,AFNE06.jpg,AFSA02.jpg,AFSA05.jpg,FS,4,num_6,32,num_8,0.750119796256,,,2017_Sep_25_1749,60.0060433462,FEMA4ImagesEEG,001,101740,
AFNE01.JPG,AFNE01.JPG,AFNE01.JPG,AFNE01.JPG,AFNE01.JPG,AFNE01.JPG,2,8,28,8,,,,,,,,,,,,,,,,,,,,,,,AFNE03.jpg,AFSA19.jpg,AFNE07.jpg,AFSA02.jpg,AFNE07.jpg,FN,3,num_2,32,num_4,0.783423151064,,,2017_Sep_25_1749,60.0060433462,FEMA4ImagesEEG,001,101740,
AFNE01.JPG,AFNE01.JPG,AFNE01.JPG,AFNE01.JPG,AFNE01.JPG,AFNE01.JPG,2,9,29,2,,,,,,,,,,,,,,,,,,,,,,,AFNE08.jpg,AFNE11.jpg,AFSA14.jpg,AFSA17.jpg,AFNE11.jpg,FN,3,num_6,16,num_6,1.01397077553,,,2017_Sep_25_1749,60.0060433462,FEMA4ImagesEEG,001,101740,
AFNE01.JPG,AFNE01.JPG,AFNE01.JPG,AFNE01.JPG,AFNE01.JPG,AFNE01.JPG,3,0,30,4,,,,,,,,,,,,,,,,,,,,,,,AFNE13.jpg,AFSA17.jpg,AFNE05.jpg,AFSA16.jpg,AFNE05.jpg,FN,3,num_2,32,num_8,1.20008922974,,,2017_Sep_25_1749,60.0060433462,FEMA4ImagesEEG,001,101740,
AFNE01.JPG,AFNE01.JPG,AFNE01.JPG,AFNE01.JPG,AFNE01.JPG,AFNE01.JPG,3,1,31,6,,,,,,,,,,,,,,,,,,,,,,,AFSA14.jpg,AFSA12.jpg,AFNE07.jpg,AFNE20.jpg,AFNE20.jpg,FN,3,num_4,32,num_8,0.666788761504,,,2017_Sep_25_1749,60.0060433462,FEMA4ImagesEEG,001,101740,
AFNE01.JPG,AFNE01.JPG,AFNE01.JPG,AFNE01.JPG,AFNE01.JPG,AFNE01.JPG,3,2,32,8,,,,,,,,,,,,,,,,,,,,,,,AFSA10.jpg,AFSA09.jpg,AFNE14.jpg,AFNE05.jpg,AFNE14.jpg,FN,3,num_2,16,num_2,1.03342651884,,,2017_Sep_25_1749,60.0060433462,FEMA4ImagesEEG,001,101740,
AFNE01.JPG,AFNE01.JPG,AFNE01.JPG,AFNE01.JPG,AFNE01.JPG,AFNE01.JPG,3,3,33,9,,,,,,,,,,,,,,,,,,,,,,,AFSA01.jpg,AFNE12.jpg,AFNE19.jpg,AFSA02.jpg,AFSA02.jpg,FS,4,num_4,32,num_8,1.61674536549,,,2017_Sep_25_1749,60.0060433462,FEMA4ImagesEEG,001,101740,
AFNE01.JPG,AFNE01.JPG,AFNE01.JPG,AFNE01.JPG,AFNE01.JPG,AFNE01.JPG,3,4,34,3,,,,,,,,,,,,,,,,,,,,,,,AFSA16.jpg,AFNE07.jpg,AFSA07.jpg,AFNE10.jpg,AFNE10.jpg,FN,3,num_4,32,num_6,0.616774552793,,,2017_Sep_25_1749,60.0060433462,FEMA4ImagesEEG,001,101740,
AFNE01.JPG,AFNE01.JPG,AFNE01.JPG,AFNE01.JPG,AFNE01.JPG,AFNE01.JPG,3,5,35,5,,,,,,,,,,,,,,,,,,,,,,,AFNE08.jpg,AFSA20.jpg,AFNE06.jpg,AFSA12.jpg,AFSA12.jpg,FS,4,num_4,32,num_2,0.750133267313,,,2017_Sep_25_1749,60.0060433462,FEMA4ImagesEEG,001,101740,
AFNE01.JPG,AFNE01.JPG,AFNE01.JPG,AFNE01.JPG,AFNE01.JPG,AFNE01.JPG,3,6,36,1,,,,,,,,,,,,,,,,,,,,,,,AFNE08.jpg,AFSA04.jpg,AFSA12.jpg,AFNE05.jpg,AFNE05.jpg,FN,3,num_4,16,num_4,0.666763423127,,,2017_Sep_25_1749,60.0060433462,FEMA4ImagesEEG,001,101740,
AFNE01.JPG,AFNE01.JPG,AFNE01.JPG,AFNE01.JPG,AFNE01.JPG,AFNE01.JPG,3,7,37,2,,,,,,,,,,,,,,,,,,,,,,,AFSA10.jpg,AFSA16.jpg,AFNE03.jpg,AFNE10.jpg,AFNE10.jpg,FN,3,num_4,32,num_8,0.916728302138,,,2017_Sep_25_1749,60.0060433462,FEMA4ImagesEEG,001,101740,
AFNE01.JPG,AFNE01.JPG,AFNE01.JPG,AFNE01.JPG,AFNE01.JPG,AFNE01.JPG,3,8,38,0,,,,,,,,,,,,,,,,,,,,,,,AFSA04.jpg,AFNE08.jpg,AFSA03.jpg,AFNE16.jpg,AFNE16.jpg,FN,3,num_4,32,num_8,1.31668064022,,,2017_Sep_25_1749,60.0060433462,FEMA4ImagesEEG,001,101740,
AFNE01.JPG,AFNE01.JPG,AFNE01.JPG,AFNE01.JPG,AFNE01.JPG,AFNE01.JPG,3,9,39,7,,,,,,,,,,,,,,,,,,,,,,,AFSA03.jpg,AFNE10.jpg,AFSA14.jpg,AFNE20.jpg,AFSA03.jpg,FS,4,num_8,16,num_8,1.28307963902,,,2017_Sep_25_1749,60.0060433462,FEMA4ImagesEEG,001,101740,
AFNE01.JPG,AFNE01.JPG,AFNE01.JPG,AFNE01.JPG,AFNE01.JPG,AFNE01.JPG,4,0,40,2,,,,,,,,,,,,,,,,,,,,,,,AFSA19.jpg,AFSA17.jpg,AFNE15.jpg,AFNE01.jpg,AFNE01.jpg,FN,3,num_4,16,num_4,1.4332502404,,,2017_Sep_25_1749,60.0060433462,FEMA4ImagesEEG,001,101740,
AFNE01.JPG,AFNE01.JPG,AFNE01.JPG,AFNE01.JPG,AFNE01.JPG,AFNE01.JPG,4,1,41,4,,,,,,,,,,,,,,,,,,,,,,,AFNE15.jpg,AFSA19.jpg,AFSA10.jpg,AFNE17.jpg,AFSA10.jpg,FS,4,num_2,32,num_6,1.28344399919,,,2017_Sep_25_1749,60.0060433462,FEMA4ImagesEEG,001,101740,
AFNE01.JPG,AFNE01.JPG,AFNE01.JPG,AFNE01.JPG,AFNE01.JPG,AFNE01.JPG,4,2,42,0,,,,,,,,,,,,,,,,,,,,,,,AFNE06.jpg,AFNE19.jpg,AFSA01.jpg,AFSA19.jpg,AFNE19.jpg,FN,3,num_6,32,num_8,0.983476778783,,,2017_Sep_25_1749,60.0060433462,FEMA4ImagesEEG,001,101740,
AFNE01.JPG,AFNE01.JPG,AFNE01.JPG,AFNE01.JPG,AFNE01.JPG,AFNE01.JPG,4,3,43,6,,,,,,,,,,,,,,,,,,,,,,,AFSA05.jpg,AFSA01.jpg,AFNE17.jpg,AFNE09.jpg,AFSA01.jpg,FS,4,num_6,32,num_4,0.916755885701,,,2017_Sep_25_1749,60.0060433462,FEMA4ImagesEEG,001,101740,
AFNE01.JPG,AFNE01.JPG,AFNE01.JPG,AFNE01.JPG,AFNE01.JPG,AFNE01.JPG,4,4,44,7,,,,,,,,,,,,,,,,,,,,,,,AFNE06.jpg,AFSA15.jpg,AFNE14.jpg,AFSA12.jpg,AFNE14.jpg,FN,3,num_2,32,num_6,0.550175861514,,,2017_Sep_25_1749,60.0060433462,FEMA4ImagesEEG,001,101740,
AFNE01.JPG,AFNE01.JPG,AFNE01.JPG,AFNE01.JPG,AFNE01.JPG,AFNE01.JPG,4,5,45,3,,,,,,,,,,,,,,,,,,,,,,,AFNE05.jpg,AFSA10.jpg,AFSA12.jpg,AFNE20.jpg,AFSA10.jpg,FS,4,num_6,32,num_8,0.683493842138,,,2017_Sep_25_1749,60.0060433462,FEMA4ImagesEEG,001,101740,
AFNE01.JPG,AFNE01.JPG,AFNE01.JPG,AFNE01.JPG,AFNE01.JPG,AFNE01.JPG,4,6,46,1,,,,,,,,,,,,,,,,,,,,,,,AFNE05.jpg,AFSA10.jpg,AFSA06.jpg,AFNE18.jpg,AFNE05.jpg,FN,3,num_8,16,num_8,0.733456732531,,,2017_Sep_25_1749,60.0060433462,FEMA4ImagesEEG,001,101740,
AFNE01.JPG,AFNE01.JPG,AFNE01.JPG,AFNE01.JPG,AFNE01.JPG,AFNE01.JPG,4,7,47,9,,,,,,,,,,,,,,,,,,,,,,,AFSA11.jpg,AFNE20.jpg,AFSA01.jpg,AFNE02.jpg,AFSA11.jpg,FS,4,num_8,16,num_8,1.05008413002,,,2017_Sep_25_1749,60.0060433462,FEMA4ImagesEEG,001,101740,
AFNE01.JPG,AFNE01.JPG,AFNE01.JPG,AFNE01.JPG,AFNE01.JPG,AFNE01.JPG,4,8,48,5,,,,,,,,,,,,,,,,,,,,,,,AFSA05.jpg,AFNE10.jpg,AFNE16.jpg,AFSA07.jpg,AFNE16.jpg,FN,3,num_2,16,num_2,0.38337074226,,,2017_Sep_25_1749,60.0060433462,FEMA4ImagesEEG,001,101740,
AFNE01.JPG,AFNE01.JPG,AFNE01.JPG,AFNE01.JPG,AFNE01.JPG,AFNE01.JPG,4,9,49,8,,,,,,,,,,,,,,,,,,,,,,,AFSA20.jpg,AFNE01.jpg,AFSA02.jpg,AFNE18.jpg,AFNE01.jpg,FN,3,num_6,16,num_6,1.01670219394,,,2017_Sep_25_1749,60.0060433462,FEMA4ImagesEEG,001,101740,
AFNE01.JPG,AFNE01.JPG,AFNE01.JPG,AFNE01.JPG,AFNE01.JPG,AFNE01.JPG,5,0,50,3,,,,,,,,,,,,,,,,,,,,,,,AFSA10.jpg,AFSA19.jpg,AFNE03.jpg,AFNE11.jpg,AFSA19.jpg,FS,4,num_6,32,num_8,1.50006126129,,,2017_Sep_25_1749,60.0060433462,FEMA4ImagesEEG,001,101740,
AFNE01.JPG,AFNE01.JPG,AFNE01.JPG,AFNE01.JPG,AFNE01.JPG,AFNE01.JPG,5,1,51,9,,,,,,,,,,,,,,,,,,,,,,,AFNE05.jpg,AFNE16.jpg,AFSA03.jpg,AFSA11.jpg,AFNE16.jpg,FN,3,num_6,16,num_6,0.850123837532,,,2017_Sep_25_1749,60.0060433462,FEMA4ImagesEEG,001,101740,
AFNE01.JPG,AFNE01.JPG,AFNE01.JPG,AFNE01.JPG,AFNE01.JPG,AFNE01.JPG,5,2,52,8,,,,,,,,,,,,,,,,,,,,,,,AFNE17.jpg,AFSA19.jpg,AFSA15.jpg,AFNE03.jpg,AFSA15.jpg,FS,4,num_2,16,num_2,0.683433543076,,,2017_Sep_25_1749,60.0060433462,FEMA4ImagesEEG,001,101740,
AFNE01.JPG,AFNE01.JPG,AFNE01.JPG,AFNE01.JPG,AFNE01.JPG,AFNE01.JPG,5,3,53,0,,,,,,,,,,,,,,,,,,,,,,,AFSA19.jpg,AFSA01.jpg,AFNE11.jpg,AFNE06.jpg,AFSA19.jpg,FS,4,num_8,16,num_8,0.433487587667,,,2017_Sep_25_1749,60.0060433462,FEMA4ImagesEEG,001,101740,
AFNE01.JPG,AFNE01.JPG,AFNE01.JPG,AFNE01.JPG,AFNE01.JPG,AFNE01.JPG,5,4,54,7,,,,,,,,,,,,,,,,,,,,,,,AFSA03.jpg,AFNE05.jpg,AFNE17.jpg,AFSA20.jpg,AFNE17.jpg,FN,3,num_2,32,num_4,0.60014773265,,,2017_Sep_25_1749,60.0060433462,FEMA4ImagesEEG,001,101740,
AFNE01.JPG,AFNE01.JPG,AFNE01.JPG,AFNE01.JPG,AFNE01.JPG,AFNE01.JPG,5,5,55,5,,,,,,,,,,,,,,,,,,,,,,,AFSA07.jpg,AFNE11.jpg,AFSA01.jpg,AFNE14.jpg,AFSA07.jpg,FS,4,num_8,32,num_6,0.316773654718,,,2017_Sep_25_1749,60.0060433462,FEMA4ImagesEEG,001,101740,
AFNE01.JPG,AFNE01.JPG,AFNE01.JPG,AFNE01.JPG,AFNE01.JPG,AFNE01.JPG,5,6,56,2,,,,,,,,,,,,,,,,,,,,,,,AFSA04.jpg,AFNE06.jpg,AFNE18.jpg,AFSA11.jpg,AFSA04.jpg,FS,4,num_8,16,num_8,0.367015588563,,,2017_Sep_25_1749,60.0060433462,FEMA4ImagesEEG,001,101740,
AFNE01.JPG,AFNE01.JPG,AFNE01.JPG,AFNE01.JPG,AFNE01.JPG,AFNE01.JPG,5,7,57,4,,,,,,,,,,,,,,,,,,,,,,,AFSA03.jpg,AFNE17.jpg,AFNE08.jpg,AFSA11.jpg,AFSA11.jpg,FS,4,num_4,16,num_4,0.366991533083,,,2017_Sep_25_1749,60.0060433462,FEMA4ImagesEEG,001,101740,
AFNE01.JPG,AFNE01.JPG,AFNE01.JPG,AFNE01.JPG,AFNE01.JPG,AFNE01.JPG,5,8,58,6,,,,,,,,,,,,,,,,,,,,,,,AFNE06.jpg,AFSA19.jpg,AFNE01.jpg,AFSA18.jpg,AFNE01.jpg,FN,3,num_2,16,num_2,0.583435916575,,,2017_Sep_25_1749,60.0060433462,FEMA4ImagesEEG,001,101740,
AFNE01.JPG,AFNE01.JPG,AFNE01.JPG,AFNE01.JPG,AFNE01.JPG,AFNE01.JPG,5,9,59,1,,,,,,,,,,,,,,,,,,,,,,,AFNE01.jpg,AFSA10.jpg,AFNE08.jpg,AFSA06.jpg,AFNE08.jpg,FN,3,num_2,32,num_6,1.40008544503,,,2017_Sep_25_1749,60.0060433462,FEMA4ImagesEEG,001,101740,
,,,,,,,,,,,,,,,,,,,,,,,,,,,,,,,,,,,,,,,,,,,space,5.59968843358,2017_Sep_25_1749,60.0060433462,FEMA4ImagesEEG,001,101740,
AFNE01.JPG,AFNE01.JPG,AFNE01.JPG,AFNE01.JPG,AFNE01.JPG,AFNE01.JPG,,,,,0,0,0,2,,,,,,,,,,,,,,,,,,,AMNE09.jpg,AMSA09.jpg,AMSA05.jpg,AMNE12.jpg,AMNE12.jpg,MN,1,num_4,16,num_4,1.11669340567,,,2017_Sep_25_1749,60.0060433462,FEMA4ImagesEEG,001,101740,
AFNE01.JPG,AFNE01.JPG,AFNE01.JPG,AFNE01.JPG,AFNE01.JPG,AFNE01.JPG,,,,,0,1,1,4,,,,,,,,,,,,,,,,,,,AMSA18.jpg,AMSA09.jpg,AMNE10.jpg,AMNE18.jpg,AMSA18.jpg,MS,2,num_8,16,num_8,0.683694945823,,,2017_Sep_25_1749,60.0060433462,FEMA4ImagesEEG,001,101740,
AFNE01.JPG,AFNE01.JPG,AFNE01.JPG,AFNE01.JPG,AFNE01.JPG,AFNE01.JPG,,,,,0,2,2,5,,,,,,,,,,,,,,,,,,,AMSA10.jpg,AMSA11.jpg,AMNE12.jpg,AMNE20.jpg,AMSA10.jpg,MS,2,num_8,16,num_8,0.900162101781,,,2017_Sep_25_1749,60.0060433462,FEMA4ImagesEEG,001,101740,
AFNE01.JPG,AFNE01.JPG,AFNE01.JPG,AFNE01.JPG,AFNE01.JPG,AFNE01.JPG,,,,,0,3,3,7,,,,,,,,,,,,,,,,,,,AMSA05.jpg,AMSA17.jpg,AMNE02.jpg,AMNE06.jpg,AMSA17.jpg,MS,2,num_6,16,num_6,1.01672945678,,,2017_Sep_25_1749,60.0060433462,FEMA4ImagesEEG,001,101740,
AFNE01.JPG,AFNE01.JPG,AFNE01.JPG,AFNE01.JPG,AFNE01.JPG,AFNE01.JPG,,,,,0,4,4,9,,,,,,,,,,,,,,,,,,,AMSA20.jpg,AMNE10.jpg,AMSA16.jpg,AMNE01.jpg,AMSA16.jpg,MS,2,num_2,32,num_8,1.20005940099,,,2017_Sep_25_1749,60.0060433462,FEMA4ImagesEEG,001,101740,
AFNE01.JPG,AFNE01.JPG,AFNE01.JPG,AFNE01.JPG,AFNE01.JPG,AFNE01.JPG,,,,,0,5,5,1,,,,,,,,,,,,,,,,,,,AMNE16.jpg,AMNE13.jpg,AMSA13.jpg,AMSA20.jpg,AMSA20.jpg,MS,2,num_4,32,num_6,1.15008303948,,,2017_Sep_25_1749,60.0060433462,FEMA4ImagesEEG,001,101740,
AFNE01.JPG,AFNE01.JPG,AFNE01.JPG,AFNE01.JPG,AFNE01.JPG,AFNE01.JPG,,,,,0,6,6,0,,,,,,,,,,,,,,,,,,,AMSA12.jpg,AMNE12.jpg,AMNE10.jpg,AMSA10.jpg,AMNE10.jpg,MN,1,num_2,32,num_4,0.83340624813,,,2017_Sep_25_1749,60.0060433462,FEMA4ImagesEEG,001,101740,
AFNE01.JPG,AFNE01.JPG,AFNE01.JPG,AFNE01.JPG,AFNE01.JPG,AFNE01.JPG,,,,,0,7,7,3,,,,,,,,,,,,,,,,,,,AMSA05.jpg,AMSA12.jpg,AMNE14.jpg,AMNE10.jpg,AMSA12.jpg,MS,2,num_6,16,num_6,0.716776348941,,,2017_Sep_25_1749,60.0060433462,FEMA4ImagesEEG,001,101740,
AFNE01.JPG,AFNE01.JPG,AFNE01.JPG,AFNE01.JPG,AFNE01.JPG,AFNE01.JPG,,,,,0,8,8,6,,,,,,,,,,,,,,,,,,,AMSA10.jpg,AMNE08.jpg,AMSA07.jpg,AMNE03.jpg,AMSA10.jpg,MS,2,num_8,16,num_8,1.01676570036,,,2017_Sep_25_1749,60.0060433462,FEMA4ImagesEEG,001,101740,
AFNE01.JPG,AFNE01.JPG,AFNE01.JPG,AFNE01.JPG,AFNE01.JPG,AFNE01.JPG,,,,,0,9,9,8,,,,,,,,,,,,,,,,,,,AMNE17.jpg,AMNE03.jpg,AMSA02.jpg,AMSA18.jpg,AMSA18.jpg,MS,2,num_4,16,num_4,0.916762621258,,,2017_Sep_25_1749,60.0060433462,FEMA4ImagesEEG,001,101740,
AFNE01.JPG,AFNE01.JPG,AFNE01.JPG,AFNE01.JPG,AFNE01.JPG,AFNE01.JPG,,,,,1,0,10,9,,,,,,,,,,,,,,,,,,,AMNE01.jpg,AMNE17.jpg,AMSA09.jpg,AMSA17.jpg,AMSA09.jpg,MS,2,num_2,16,num_2,1.11674247886,,,2017_Sep_25_1749,60.0060433462,FEMA4ImagesEEG,001,101740,
AFNE01.JPG,AFNE01.JPG,AFNE01.JPG,AFNE01.JPG,AFNE01.JPG,AFNE01.JPG,,,,,1,1,11,3,,,,,,,,,,,,,,,,,,,AMSA06.jpg,AMNE18.jpg,AMNE12.jpg,AMSA12.jpg,AMSA12.jpg,MS,2,num_4,32,num_6,1.03350253415,,,2017_Sep_25_1749,60.0060433462,FEMA4ImagesEEG,001,101740,
AFNE01.JPG,AFNE01.JPG,AFNE01.JPG,AFNE01.JPG,AFNE01.JPG,AFNE01.JPG,,,,,1,2,12,5,,,,,,,,,,,,,,,,,,,AMNE14.jpg,AMSA11.jpg,AMSA07.jpg,AMNE19.jpg,AMSA11.jpg,MS,2,num_6,32,num_8,0.883406023611,,,2017_Sep_25_1749,60.0060433462,FEMA4ImagesEEG,001,101740,
AFNE01.JPG,AFNE01.JPG,AFNE01.JPG,AFNE01.JPG,AFNE01.JPG,AFNE01.JPG,,,,,1,3,13,0,,,,,,,,,,,,,,,,,,,AMSA06.jpg,AMNE05.jpg,AMNE13.jpg,AMSA09.jpg,AMNE13.jpg,MN,1,num_2,32,num_4,0.500168388302,,,2017_Sep_25_1749,60.0060433462,FEMA4ImagesEEG,001,101740,
AFNE01.JPG,AFNE01.JPG,AFNE01.JPG,AFNE01.JPG,AFNE01.JPG,AFNE01.JPG,,,,,1,4,14,7,,,,,,,,,,,,,,,,,,,AMSA05.jpg,AMNE03.jpg,AMNE19.jpg,AMSA14.jpg,AMNE03.jpg,MN,1,num_6,32,num_2,0.700129322242,,,2017_Sep_25_1749,60.0060433462,FEMA4ImagesEEG,001,101740,
AFNE01.JPG,AFNE01.JPG,AFNE01.JPG,AFNE01.JPG,AFNE01.JPG,AFNE01.JPG,,,,,1,5,15,8,,,,,,,,,,,,,,,,,,,AMNE15.jpg,AMSA12.jpg,AMNE19.jpg,AMSA04.jpg,AMSA04.jpg,MS,2,num_4,32,num_8,0.600149336387,,,2017_Sep_25_1749,60.0060433462,FEMA4ImagesEEG,001,101740,
AFNE01.JPG,AFNE01.JPG,AFNE01.JPG,AFNE01.JPG,AFNE01.JPG,AFNE01.JPG,,,,,1,6,16,6,,,,,,,,,,,,,,,,,,,AMSA01.jpg,AMNE06.jpg,AMNE16.jpg,AMSA05.jpg,AMNE06.jpg,MN,1,num_6,16,num_6,0.700106870383,,,2017_Sep_25_1749,60.0060433462,FEMA4ImagesEEG,001,101740,
AFNE01.JPG,AFNE01.JPG,AFNE01.JPG,AFNE01.JPG,AFNE01.JPG,AFNE01.JPG,,,,,1,7,17,1,,,,,,,,,,,,,,,,,,,AMNE09.jpg,AMNE04.jpg,AMSA09.jpg,AMSA01.jpg,AMSA01.jpg,MS,2,num_4,32,num_2,1.06676034402,,,2017_Sep_25_1749,60.0060433462,FEMA4ImagesEEG,001,101740,
AFNE01.JPG,AFNE01.JPG,AFNE01.JPG,AFNE01.JPG,AFNE01.JPG,AFNE01.JPG,,,,,1,8,18,2,,,,,,,,,,,,,,,,,,,AMSA19.jpg,AMSA02.jpg,AMNE05.jpg,AMNE17.jpg,AMNE05.jpg,MN,1,num_2,16,num_2,0.416791487834,,,2017_Sep_25_1749,60.0060433462,FEMA4ImagesEEG,001,101740,
AFNE01.JPG,AFNE01.JPG,AFNE01.JPG,AFNE01.JPG,AFNE01.JPG,AFNE01.JPG,,,,,1,9,19,4,,,,,,,,,,,,,,,,,,,AMSA02.jpg,AMNE09.jpg,AMSA09.jpg,AMNE06.jpg,AMSA09.jpg,MS,2,num_2,32,num_8,0.86676380795,,,2017_Sep_25_1749,60.0060433462,FEMA4ImagesEEG,001,101740,
AFNE01.JPG,AFNE01.JPG,AFNE01.JPG,AFNE01.JPG,AFNE01.JPG,AFNE01.JPG,,,,,2,0,20,2,,,,,,,,,,,,,,,,,,,AMNE18.jpg,AMSA17.jpg,AMNE13.jpg,AMSA19.jpg,AMSA17.jpg,MS,2,num_6,32,num_8,1.55002864206,,,2017_Sep_25_1749,60.0060433462,FEMA4ImagesEEG,001,101740,
AFNE01.JPG,AFNE01.JPG,AFNE01.JPG,AFNE01.JPG,AFNE01.JPG,AFNE01.JPG,,,,,2,1,21,3,,,,,,,,,,,,,,,,,,,AMNE17.jpg,AMNE15.jpg,AMSA05.jpg,AMSA13.jpg,AMNE15.jpg,MN,1,num_6,16,num_6,0.800057348213,,,2017_Sep_25_1749,60.0060433462,FEMA4ImagesEEG,001,101740,
AFNE01.JPG,AFNE01.JPG,AFNE01.JPG,AFNE01.JPG,AFNE01.JPG,AFNE01.JPG,,,,,2,2,22,4,,,,,,,,,,,,,,,,,,,AMNE12.jpg,AMSA03.jpg,AMSA08.jpg,AMNE01.jpg,AMNE01.jpg,MN,1,num_4,16,num_4,0.583495894854,,,2017_Sep_25_1749,60.0060433462,FEMA4ImagesEEG,001,101740,
AFNE01.JPG,AFNE01.JPG,AFNE01.JPG,AFNE01.JPG,AFNE01.JPG,AFNE01.JPG,,,,,2,3,23,1,,,,,,,,,,,,,,,,,,,AMNE17.jpg,AMNE06.jpg,AMSA18.jpg,AMSA16.jpg,AMSA18.jpg,MS,2,num_2,16,num_2,0.700137982145,,,2017_Sep_25_1749,60.0060433462,FEMA4ImagesEEG,001,101740,
AFNE01.JPG,AFNE01.JPG,AFNE01.JPG,AFNE01.JPG,AFNE01.JPG,AFNE01.JPG,,,,,2,4,24,5,,,,,,,,,,,,,,,,,,,AMNE18.jpg,AMSA14.jpg,AMNE20.jpg,AMSA15.jpg,AMNE18.jpg,MN,1,num_8,16,num_8,1.11659141048,,,2017_Sep_25_1749,60.0060433462,FEMA4ImagesEEG,001,101740,
AFNE01.JPG,AFNE01.JPG,AFNE01.JPG,AFNE01.JPG,AFNE01.JPG,AFNE01.JPG,,,,,2,5,25,0,,,,,,,,,,,,,,,,,,,AMNE20.jpg,AMSA07.jpg,AMSA20.jpg,AMNE16.jpg,AMNE20.jpg,MN,1,num_8,32,num_6,0.783465488756,,,2017_Sep_25_1749,60.0060433462,FEMA4ImagesEEG,001,101740,
AFNE01.JPG,AFNE01.JPG,AFNE01.JPG,AFNE01.JPG,AFNE01.JPG,AFNE01.JPG,,,,,2,6,26,8,,,,,,,,,,,,,,,,,,,AMSA08.jpg,AMNE13.jpg,AMNE03.jpg,AMSA14.jpg,AMNE03.jpg,MN,1,num_2,32,num_4,0.583459330548,,,2017_Sep_25_1749,60.0060433462,FEMA4ImagesEEG,001,101740,
AFNE01.JPG,AFNE01.JPG,AFNE01.JPG,AFNE01.JPG,AFNE01.JPG,AFNE01.JPG,,,,,2,7,27,7,,,,,,,,,,,,,,,,,,,AMSA13.jpg,AMNE15.jpg,AMSA02.jpg,AMNE11.jpg,AMNE15.jpg,MN,1,num_6,32,num_8,0.600149977836,,,2017_Sep_25_1749,60.0060433462,FEMA4ImagesEEG,001,101740,
AFNE01.JPG,AFNE01.JPG,AFNE01.JPG,AFNE01.JPG,AFNE01.JPG,AFNE01.JPG,,,,,2,8,28,6,,,,,,,,,,,,,,,,,,,AMNE04.jpg,AMSA04.jpg,AMNE16.jpg,AMSA19.jpg,AMSA19.jpg,MS,2,num_4,16,num_4,0.733325870824,,,2017_Sep_25_1749,60.0060433462,FEMA4ImagesEEG,001,101740,
AFNE01.JPG,AFNE01.JPG,AFNE01.JPG,AFNE01.JPG,AFNE01.JPG,AFNE01.JPG,,,,,2,9,29,9,,,,,,,,,,,,,,,,,,,AMNE04.jpg,AMSA17.jpg,AMSA15.jpg,AMNE10.jpg,AMSA17.jpg,MS,2,num_6,16,num_6,0.800120854692,,,2017_Sep_25_1749,60.0060433462,FEMA4ImagesEEG,001,101740,
AFNE01.JPG,AFNE01.JPG,AFNE01.JPG,AFNE01.JPG,AFNE01.JPG,AFNE01.JPG,,,,,3,0,30,0,,,,,,,,,,,,,,,,,,,AMNE11.jpg,AMSA06.jpg,AMSA01.jpg,AMNE01.jpg,AMSA01.jpg,MS,2,num_2,32,num_8,0.816816633858,,,2017_Sep_25_1749,60.0060433462,FEMA4ImagesEEG,001,101740,
AFNE01.JPG,AFNE01.JPG,AFNE01.JPG,AFNE01.JPG,AFNE01.JPG,AFNE01.JPG,,,,,3,1,31,8,,,,,,,,,,,,,,,,,,,AMNE13.jpg,AMSA13.jpg,AMNE20.jpg,AMSA01.jpg,AMNE20.jpg,MN,1,num_2,32,num_8,0.833588428213,,,2017_Sep_25_1749,60.0060433462,FEMA4ImagesEEG,001,101740,
AFNE01.JPG,AFNE01.JPG,AFNE01.JPG,AFNE01.JPG,AFNE01.JPG,AFNE01.JPG,,,,,3,2,32,2,,,,,,,,,,,,,,,,,,,AMNE05.jpg,AMNE14.jpg,AMSA09.jpg,AMSA02.jpg,AMNE05.jpg,MN,1,num_8,16,num_8,0.650159054785,,,2017_Sep_25_1749,60.0060433462,FEMA4ImagesEEG,001,101740,
AFNE01.JPG,AFNE01.JPG,AFNE01.JPG,AFNE01.JPG,AFNE01.JPG,AFNE01.JPG,,,,,3,3,33,5,,,,,,,,,,,,,,,,,,,AMNE08.jpg,AMNE02.jpg,AMSA11.jpg,AMSA06.jpg,AMNE02.jpg,MN,1,num_6,32,num_8,0.666780101601,,,2017_Sep_25_1749,60.0060433462,FEMA4ImagesEEG,001,101740,
AFNE01.JPG,AFNE01.JPG,AFNE01.JPG,AFNE01.JPG,AFNE01.JPG,AFNE01.JPG,,,,,3,4,34,7,,,,,,,,,,,,,,,,,,,AMNE12.jpg,AMNE07.jpg,AMSA10.jpg,AMSA12.jpg,AMNE12.jpg,MN,1,num_8,32,num_4,0.383462153084,,,2017_Sep_25_1749,60.0060433462,FEMA4ImagesEEG,001,101740,
AFNE01.JPG,AFNE01.JPG,AFNE01.JPG,AFNE01.JPG,AFNE01.JPG,AFNE01.JPG,,,,,3,5,35,9,,,,,,,,,,,,,,,,,,,AMNE19.jpg,AMNE05.jpg,AMSA07.jpg,AMSA08.jpg,AMSA07.jpg,MS,2,num_2,16,num_2,0.416806883353,,,2017_Sep_25_1749,60.0060433462,FEMA4ImagesEEG,001,101740,
AFNE01.JPG,AFNE01.JPG,AFNE01.JPG,AFNE01.JPG,AFNE01.JPG,AFNE01.JPG,,,,,3,6,36,1,,,,,,,,,,,,,,,,,,,AMSA08.jpg,AMNE03.jpg,AMSA16.jpg,AMNE18.jpg,AMSA08.jpg,MS,2,num_8,16,num_8,0.250132305082,,,2017_Sep_25_1749,60.0060433462,FEMA4ImagesEEG,001,101740,
AFNE01.JPG,AFNE01.JPG,AFNE01.JPG,AFNE01.JPG,AFNE01.JPG,AFNE01.JPG,,,,,3,7,37,3,,,,,,,,,,,,,,,,,,,AMNE16.jpg,AMSA11.jpg,AMSA20.jpg,AMNE04.jpg,AMSA20.jpg,MS,2,num_2,16,num_2,1.31672458153,,,2017_Sep_25_1749,60.0060433462,FEMA4ImagesEEG,001,101740,
AFNE01.JPG,AFNE01.JPG,AFNE01.JPG,AFNE01.JPG,AFNE01.JPG,AFNE01.JPG,,,,,3,8,38,6,,,,,,,,,,,,,,,,,,,AMSA16.jpg,AMSA03.jpg,AMNE10.jpg,AMNE20.jpg,AMSA16.jpg,MS,2,num_8,16,num_8,1.06674879737,,,2017_Sep_25_1749,60.0060433462,FEMA4ImagesEEG,001,101740,
AFNE01.JPG,AFNE01.JPG,AFNE01.JPG,AFNE01.JPG,AFNE01.JPG,AFNE01.JPG,,,,,3,9,39,4,,,,,,,,,,,,,,,,,,,AMSA01.jpg,AMNE01.jpg,AMNE14.jpg,AMSA06.jpg,AMNE01.jpg,MN,1,num_6,32,num_8,0.650123452651,,,2017_Sep_25_1749,60.0060433462,FEMA4ImagesEEG,001,101740,
AFNE01.JPG,AFNE01.JPG,AFNE01.JPG,AFNE01.JPG,AFNE01.JPG,AFNE01.JPG,,,,,4,0,40,3,,,,,,,,,,,,,,,,,,,AMNE12.jpg,AMNE06.jpg,AMSA04.jpg,AMSA09.jpg,AMNE06.jpg,MN,1,num_6,32,num_8,0.533603887889,,,2017_Sep_25_1749,60.0060433462,FEMA4ImagesEEG,001,101740,
AFNE01.JPG,AFNE01.JPG,AFNE01.JPG,AFNE01.JPG,AFNE01.JPG,AFNE01.JPG,,,,,4,1,41,5,,,,,,,,,,,,,,,,,,,AMNE08.jpg,AMSA06.jpg,AMNE06.jpg,AMSA15.jpg,AMNE08.jpg,MN,1,num_8,32,num_6,0.533454743912,,,2017_Sep_25_1749,60.0060433462,FEMA4ImagesEEG,001,101740,
AFNE01.JPG,AFNE01.JPG,AFNE01.JPG,AFNE01.JPG,AFNE01.JPG,AFNE01.JPG,,,,,4,2,42,1,,,,,,,,,,,,,,,,,,,AMSA14.jpg,AMNE17.jpg,AMNE16.jpg,AMSA09.jpg,AMNE17.jpg,MN,1,num_6,32,num_2,0.550180031161,,,2017_Sep_25_1749,60.0060433462,FEMA4ImagesEEG,001,101740,
AFNE01.JPG,AFNE01.JPG,AFNE01.JPG,AFNE01.JPG,AFNE01.JPG,AFNE01.JPG,,,,,4,3,43,6,,,,,,,,,,,,,,,,,,,AMNE18.jpg,AMSA02.jpg,AMNE13.jpg,AMSA15.jpg,AMSA15.jpg,MS,2,num_4,32,num_8,0.716781160037,,,2017_Sep_25_1749,60.0060433462,FEMA4ImagesEEG,001,101740,
AFNE01.JPG,AFNE01.JPG,AFNE01.JPG,AFNE01.JPG,AFNE01.JPG,AFNE01.JPG,,,,,4,4,44,0,,,,,,,,,,,,,,,,,,,AMSA03.jpg,AMSA08.jpg,AMNE12.jpg,AMNE09.jpg,AMNE09.jpg,MN,1,num_4,16,num_4,0.35012800718,,,2017_Sep_25_1749,60.0060433462,FEMA4ImagesEEG,001,101740,
AFNE01.JPG,AFNE01.JPG,AFNE01.JPG,AFNE01.JPG,AFNE01.JPG,AFNE01.JPG,,,,,4,5,45,9,,,,,,,,,,,,,,,,,,,AMSA16.jpg,AMSA15.jpg,AMNE07.jpg,AMNE13.jpg,AMSA15.jpg,MS,2,num_6,16,num_6,0.466743152356,,,2017_Sep_25_1749,60.0060433462,FEMA4ImagesEEG,001,101740,
AFNE01.JPG,AFNE01.JPG,AFNE01.JPG,AFNE01.JPG,AFNE01.JPG,AFNE01.JPG,,,,,4,6,46,4,,,,,,,,,,,,,,,,,,,AMNE11.jpg,AMSA13.jpg,AMSA18.jpg,AMNE03.jpg,AMNE03.jpg,MN,1,num_4,32,num_8,0.550177465193,,,2017_Sep_25_1749,60.0060433462,FEMA4ImagesEEG,001,101740,
AFNE01.JPG,AFNE01.JPG,AFNE01.JPG,AFNE01.JPG,AFNE01.JPG,AFNE01.JPG,,,,,4,7,47,8,,,,,,,,,,,,,,,,,,,AMSA03.jpg,AMNE16.jpg,AMSA04.jpg,AMNE04.jpg,AMSA04.jpg,MS,2,num_2,16,num_2,0.366844955075,,,2017_Sep_25_1749,60.0060433462,FEMA4ImagesEEG,001,101740,
AFNE01.JPG,AFNE01.JPG,AFNE01.JPG,AFNE01.JPG,AFNE01.JPG,AFNE01.JPG,,,,,4,8,48,2,,,,,,,,,,,,,,,,,,,AMNE04.jpg,AMSA19.jpg,AMSA14.jpg,AMNE10.jpg,AMNE04.jpg,MN,1,num_8,32,num_4,0.40017236548,,,2017_Sep_25_1749,60.0060433462,FEMA4ImagesEEG,001,101740,
AFNE01.JPG,AFNE01.JPG,AFNE01.JPG,AFNE01.JPG,AFNE01.JPG,AFNE01.JPG,,,,,4,9,49,7,,,,,,,,,,,,,,,,,,,AMNE13.jpg,AMSA15.jpg,AMNE12.jpg,AMSA02.jpg,AMSA02.jpg,MS,2,num_4,32,num_6,1.01673490938,,,2017_Sep_25_1749,60.0060433462,FEMA4ImagesEEG,001,101740,
AFNE01.JPG,AFNE01.JPG,AFNE01.JPG,AFNE01.JPG,AFNE01.JPG,AFNE01.JPG,,,,,5,0,50,7,,,,,,,,,,,,,,,,,,,AMSA02.jpg,AMNE02.jpg,AMNE12.jpg,AMSA05.jpg,AMNE02.jpg,MN,1,num_6,32,num_4,0.383494547743,,,2017_Sep_25_1749,60.0060433462,FEMA4ImagesEEG,001,101740,
AFNE01.JPG,AFNE01.JPG,AFNE01.JPG,AFNE01.JPG,AFNE01.JPG,AFNE01.JPG,,,,,5,1,51,6,,,,,,,,,,,,,,,,,,,AMSA15.jpg,AMSA07.jpg,AMNE05.jpg,AMNE06.jpg,AMSA07.jpg,MS,2,num_6,32,num_8,0.500124767714,,,2017_Sep_25_1749,60.0060433462,FEMA4ImagesEEG,001,101740,
AFNE01.JPG,AFNE01.JPG,AFNE01.JPG,AFNE01.JPG,AFNE01.JPG,AFNE01.JPG,,,,,5,2,52,2,,,,,,,,,,,,,,,,,,,AMNE04.jpg,AMNE12.jpg,AMSA08.jpg,AMSA09.jpg,AMNE12.jpg,MN,1,num_6,32,num_4,0.483488966885,,,2017_Sep_25_1749,60.0060433462,FEMA4ImagesEEG,001,101740,
AFNE01.JPG,AFNE01.JPG,AFNE01.JPG,AFNE01.JPG,AFNE01.JPG,AFNE01.JPG,,,,,5,3,53,0,,,,,,,,,,,,,,,,,,,AMNE05.jpg,AMNE19.jpg,AMSA08.jpg,AMSA04.jpg,AMNE05.jpg,MN,1,num_8,16,num_8,0.466777792259,,,2017_Sep_25_1749,60.0060433462,FEMA4ImagesEEG,001,101740,
AFNE01.JPG,AFNE01.JPG,AFNE01.JPG,AFNE01.JPG,AFNE01.JPG,AFNE01.JPG,,,,,5,4,54,4,,,,,,,,,,,,,,,,,,,AMSA04.jpg,AMNE14.jpg,AMSA16.jpg,AMNE20.jpg,AMSA04.jpg,MS,2,num_8,16,num_8,0.566757778113,,,2017_Sep_25_1749,60.0060433462,FEMA4ImagesEEG,001,101740,
AFNE01.JPG,AFNE01.JPG,AFNE01.JPG,AFNE01.JPG,AFNE01.JPG,AFNE01.JPG,,,,,5,5,55,8,,,,,,,,,,,,,,,,,,,AMNE10.jpg,AMSA09.jpg,AMSA18.jpg,AMNE02.jpg,AMSA18.jpg,MS,2,num_2,32,num_8,0.866740714759,,,2017_Sep_25_1749,60.0060433462,FEMA4ImagesEEG,001,101740,
AFNE01.JPG,AFNE01.JPG,AFNE01.JPG,AFNE01.JPG,AFNE01.JPG,AFNE01.JPG,,,,,5,6,56,9,,,,,,,,,,,,,,,,,,,AMNE12.jpg,AMSA19.jpg,AMNE06.jpg,AMSA03.jpg,AMNE06.jpg,MN,1,num_2,32,num_4,0.750105042243,,,2017_Sep_25_1749,60.0060433462,FEMA4ImagesEEG,001,101740,
AFNE01.JPG,AFNE01.JPG,AFNE01.JPG,AFNE01.JPG,AFNE01.JPG,AFNE01.JPG,,,,,5,7,57,1,,,,,,,,,,,,,,,,,,,AMNE16.jpg,AMSA01.jpg,AMNE03.jpg,AMSA18.jpg,AMSA18.jpg,MS,2,num_4,32,num_6,0.7167795563,,,2017_Sep_25_1749,60.0060433462,FEMA4ImagesEEG,001,101740,
AFNE01.JPG,AFNE01.JPG,AFNE01.JPG,AFNE01.JPG,AFNE01.JPG,AFNE01.JPG,,,,,5,8,58,5,,,,,,,,,,,,,,,,,,,AMNE20.jpg,AMSA18.jpg,AMNE04.jpg,AMSA07.jpg,AMSA07.jpg,MS,2,num_4,32,num_2,1.36672884738,,,2017_Sep_25_1749,60.0060433462,FEMA4ImagesEEG,001,101740,
AFNE01.JPG,AFNE01.JPG,AFNE01.JPG,AFNE01.JPG,AFNE01.JPG,AFNE01.JPG,,,,,5,9,59,3,,,,,,,,,,,,,,,,,,,AMSA02.jpg,AMSA03.jpg,AMNE09.jpg,AMNE05.jpg,AMSA03.jpg,MS,2,num_6,16,num_6,0.933479889994,,,2017_Sep_25_1749,60.0060433462,FEMA4ImagesEEG,001,101740,
,,,,,,,,,,,,,,,,,,,,,,,,,,,,,,,,,,,,,,,,,,,space,12.2823162787,2017_Sep_25_1749,60.0060433462,FEMA4ImagesEEG,001,101740,
AFNE01.JPG,AFNE01.JPG,AFNE01.JPG,AFNE01.JPG,AFNE01.JPG,AFNE01.JPG,,,,,,,,,0,0,0,9,,,,,,,,,,,,,,,AFNE13.jpg,AFSA19.jpg,AFNE01.jpg,AFSA09.jpg,AFNE13.jpg,FN,3,num_8,16,num_8,1.01674998412,,,2017_Sep_25_1749,60.0060433462,FEMA4ImagesEEG,001,101740,
AFNE01.JPG,AFNE01.JPG,AFNE01.JPG,AFNE01.JPG,AFNE01.JPG,AFNE01.JPG,,,,,,,,,0,1,1,0,,,,,,,,,,,,,,,AFNE10.jpg,AFNE15.jpg,AFSA18.jpg,AFSA15.jpg,AFNE10.jpg,FN,3,num_8,32,num_4,0.733503560536,,,2017_Sep_25_1749,60.0060433462,FEMA4ImagesEEG,001,101740,
AFNE01.JPG,AFNE01.JPG,AFNE01.JPG,AFNE01.JPG,AFNE01.JPG,AFNE01.JPG,,,,,,,,,0,2,2,5,,,,,,,,,,,,,,,AFSA07.jpg,AFNE06.jpg,AFNE17.jpg,AFSA13.jpg,AFNE17.jpg,FN,3,num_2,32,num_6,0.850324941275,,,2017_Sep_25_1749,60.0060433462,FEMA4ImagesEEG,001,101740,
AFNE01.JPG,AFNE01.JPG,AFNE01.JPG,AFNE01.JPG,AFNE01.JPG,AFNE01.JPG,,,,,,,,,0,3,3,8,,,,,,,,,,,,,,,AFSA20.jpg,AFSA04.jpg,AFNE11.jpg,AFNE06.jpg,AFSA04.jpg,FS,4,num_6,16,num_6,0.616715215961,,,2017_Sep_25_1749,60.0060433462,FEMA4ImagesEEG,001,101740,
AFNE01.JPG,AFNE01.JPG,AFNE01.JPG,AFNE01.JPG,AFNE01.JPG,AFNE01.JPG,,,,,,,,,0,4,4,7,,,,,,,,,,,,,,,AFNE08.jpg,AFSA05.jpg,AFNE05.jpg,AFSA17.jpg,AFNE05.jpg,FN,3,num_2,16,num_2,1.23343363928,,,2017_Sep_25_1749,60.0060433462,FEMA4ImagesEEG,001,101740,
AFNE01.JPG,AFNE01.JPG,AFNE01.JPG,AFNE01.JPG,AFNE01.JPG,AFNE01.JPG,,,,,,,,,0,5,5,1,,,,,,,,,,,,,,,AFNE15.jpg,AFSA03.jpg,AFNE01.jpg,AFSA13.jpg,AFSA13.jpg,FS,4,num_4,16,num_4,1.0499744371,,,2017_Sep_25_1749,60.0060433462,FEMA4ImagesEEG,001,101740,
AFNE01.JPG,AFNE01.JPG,AFNE01.JPG,AFNE01.JPG,AFNE01.JPG,AFNE01.JPG,,,,,,,,,0,6,6,4,,,,,,,,,,,,,,,AFNE08.jpg,AFSA16.jpg,AFNE16.jpg,AFSA13.jpg,AFSA16.jpg,FS,4,num_6,32,num_2,1.01683754602,,,2017_Sep_25_1749,60.0060433462,FEMA4ImagesEEG,001,101740,
AFNE01.JPG,AFNE01.JPG,AFNE01.JPG,AFNE01.JPG,AFNE01.JPG,AFNE01.JPG,,,,,,,,,0,7,7,6,,,,,,,,,,,,,,,AFNE02.jpg,AFSA02.jpg,AFNE15.jpg,AFSA09.jpg,AFSA09.jpg,FS,4,num_4,32,num_6,1.18343354308,,,2017_Sep_25_1749,60.0060433462,FEMA4ImagesEEG,001,101740,
AFNE01.JPG,AFNE01.JPG,AFNE01.JPG,AFNE01.JPG,AFNE01.JPG,AFNE01.JPG,,,,,,,,,0,8,8,2,,,,,,,,,,,,,,,AFSA17.jpg,AFNE07.jpg,AFNE02.jpg,AFSA10.jpg,AFNE07.jpg,FN,3,num_6,32,num_2,2.48331031494,,,2017_Sep_25_1749,60.0060433462,FEMA4ImagesEEG,001,101740,
AFNE01.JPG,AFNE01.JPG,AFNE01.JPG,AFNE01.JPG,AFNE01.JPG,AFNE01.JPG,,,,,,,,,0,9,9,3,,,,,,,,,,,,,,,AFNE01.jpg,AFSA14.jpg,AFSA15.jpg,AFNE09.jpg,AFNE01.jpg,FN,3,num_8,32,num_6,0.950138784014,,,2017_Sep_25_1749,60.0060433462,FEMA4ImagesEEG,001,101740,
AFNE01.JPG,AFNE01.JPG,AFNE01.JPG,AFNE01.JPG,AFNE01.JPG,AFNE01.JPG,,,,,,,,,1,0,10,6,,,,,,,,,,,,,,,AFSA01.jpg,AFNE06.jpg,AFSA05.jpg,AFNE12.jpg,AFSA05.jpg,FS,4,num_2,16,num_2,1.86675226135,,,2017_Sep_25_1749,60.0060433462,FEMA4ImagesEEG,001,101740,
AFNE01.JPG,AFNE01.JPG,AFNE01.JPG,AFNE01.JPG,AFNE01.JPG,AFNE01.JPG,,,,,,,,,1,1,11,8,,,,,,,,,,,,,,,AFSA18.jpg,AFSA06.jpg,AFNE10.jpg,AFNE20.jpg,AFSA06.jpg,FS,4,num_6,16,num_6,0.50016389793,,,2017_Sep_25_1749,60.0060433462,FEMA4ImagesEEG,001,101740,
AFNE01.JPG,AFNE01.JPG,AFNE01.JPG,AFNE01.JPG,AFNE01.JPG,AFNE01.JPG,,,,,,,,,1,2,12,5,,,,,,,,,,,,,,,AFSA06.jpg,AFSA09.jpg,AFNE03.jpg,AFNE08.jpg,AFNE03.jpg,FN,3,num_2,32,num_8,1.76693232456,,,2017_Sep_25_1749,60.0060433462,FEMA4ImagesEEG,001,101740,
AFNE01.JPG,AFNE01.JPG,AFNE01.JPG,AFNE01.JPG,AFNE01.JPG,AFNE01.JPG,,,,,,,,,1,3,13,7,,,,,,,,,,,,,,,AFSA15.jpg,AFSA09.jpg,AFNE03.jpg,AFNE04.jpg,AFNE04.jpg,FN,3,num_4,32,num_2,0.533421707805,,,2017_Sep_25_1749,60.0060433462,FEMA4ImagesEEG,001,101740,
AFNE01.JPG,AFNE01.JPG,AFNE01.JPG,AFNE01.JPG,AFNE01.JPG,AFNE01.JPG,,,,,,,,,1,4,14,2,,,,,,,,,,,,,,,AFSA10.jpg,AFSA14.jpg,AFNE11.jpg,AFNE19.jpg,AFSA10.jpg,FS,4,num_8,32,num_4,0.483493777981,,,2017_Sep_25_1749,60.0060433462,FEMA4ImagesEEG,001,101740,
AFNE01.JPG,AFNE01.JPG,AFNE01.JPG,AFNE01.JPG,AFNE01.JPG,AFNE01.JPG,,,,,,,,,1,5,15,0,,,,,,,,,,,,,,,AFNE07.jpg,AFNE12.jpg,AFSA20.jpg,AFSA05.jpg,AFNE12.jpg,FN,3,num_6,16,num_6,0.900132593757,,,2017_Sep_25_1749,60.0060433462,FEMA4ImagesEEG,001,101740,
AFNE01.JPG,AFNE01.JPG,AFNE01.JPG,AFNE01.JPG,AFNE01.JPG,AFNE01.JPG,,,,,,,,,1,6,16,1,,,,,,,,,,,,,,,AFNE13.jpg,AFSA04.jpg,AFNE06.jpg,AFSA02.jpg,AFSA02.jpg,FS,4,num_4,32,num_8,0.466827827622,,,2017_Sep_25_1749,60.0060433462,FEMA4ImagesEEG,001,101740,
AFNE01.JPG,AFNE01.JPG,AFNE01.JPG,AFNE01.JPG,AFNE01.JPG,AFNE01.JPG,,,,,,,,,1,7,17,9,,,,,,,,,,,,,,,AFNE02.jpg,AFSA10.jpg,AFNE08.jpg,AFSA08.jpg,AFSA08.jpg,FS,4,num_4,16,num_4,1.3667686191,,,2017_Sep_25_1749,60.0060433462,FEMA4ImagesEEG,001,101740,
AFNE01.JPG,AFNE01.JPG,AFNE01.JPG,AFNE01.JPG,AFNE01.JPG,AFNE01.JPG,,,,,,,,,1,8,18,3,,,,,,,,,,,,,,,AFNE05.jpg,AFSA03.jpg,AFSA16.jpg,AFNE11.jpg,AFSA16.jpg,FS,4,num_2,16,num_2,0.466632497264,,,2017_Sep_25_1749,60.0060433462,FEMA4ImagesEEG,001,101740,
AFNE01.JPG,AFNE01.JPG,AFNE01.JPG,AFNE01.JPG,AFNE01.JPG,AFNE01.JPG,,,,,,,,,1,9,19,4,,,,,,,,,,,,,,,AFNE03.jpg,AFSA02.jpg,AFSA12.jpg,AFNE20.jpg,AFSA02.jpg,FS,4,num_6,32,num_8,0.716807781428,,,2017_Sep_25_1749,60.0060433462,FEMA4ImagesEEG,001,101740,
AFNE01.JPG,AFNE01.JPG,AFNE01.JPG,AFNE01.JPG,AFNE01.JPG,AFNE01.JPG,,,,,,,,,2,0,20,7,,,,,,,,,,,,,,,AFNE09.jpg,AFNE15.jpg,AFSA10.jpg,AFSA05.jpg,AFNE09.jpg,FN,3,num_8,32,num_4,0.816832029319,,,2017_Sep_25_1749,60.0060433462,FEMA4ImagesEEG,001,101740,
AFNE01.JPG,AFNE01.JPG,AFNE01.JPG,AFNE01.JPG,AFNE01.JPG,AFNE01.JPG,,,,,,,,,2,1,21,1,,,,,,,,,,,,,,,AFSA12.jpg,AFSA14.jpg,AFNE11.jpg,AFNE19.jpg,AFNE19.jpg,FN,3,num_4,32,num_2,0.766590736923,,,2017_Sep_25_1749,60.0060433462,FEMA4ImagesEEG,001,101740,
AFNE01.JPG,AFNE01.JPG,AFNE01.JPG,AFNE01.JPG,AFNE01.JPG,AFNE01.JPG,,,,,,,,,2,2,22,5,,,,,,,,,,,,,,,AFSA02.jpg,AFSA12.jpg,AFNE15.jpg,AFNE19.jpg,AFNE19.jpg,FN,3,num_4,32,num_6,0.983477099508,,,2017_Sep_25_1749,60.0060433462,FEMA4ImagesEEG,001,101740,
AFNE01.JPG,AFNE01.JPG,AFNE01.JPG,AFNE01.JPG,AFNE01.JPG,AFNE01.JPG,,,,,,,,,2,3,23,0,,,,,,,,,,,,,,,AFSA01.jpg,AFNE07.jpg,AFNE08.jpg,AFSA13.jpg,AFSA13.jpg,FS,4,num_4,16,num_4,0.766888062528,,,2017_Sep_25_1749,60.0060433462,FEMA4ImagesEEG,001,101740,
AFNE01.JPG,AFNE01.JPG,AFNE01.JPG,AFNE01.JPG,AFNE01.JPG,AFNE01.JPG,,,,,,,,,2,4,24,9,,,,,,,,,,,,,,,AFSA04.jpg,AFNE06.jpg,AFNE10.jpg,AFSA07.jpg,AFSA07.jpg,FS,4,num_4,32,num_2,1.0669813336,,,2017_Sep_25_1749,60.0060433462,FEMA4ImagesEEG,001,101740,
AFNE01.JPG,AFNE01.JPG,AFNE01.JPG,AFNE01.JPG,AFNE01.JPG,AFNE01.JPG,,,,,,,,,2,5,25,6,,,,,,,,,,,,,,,AFNE07.jpg,AFSA09.jpg,AFSA10.jpg,AFNE11.jpg,AFNE11.jpg,FN,3,num_4,16,num_4,1.01685165858,,,2017_Sep_25_1749,60.0060433462,FEMA4ImagesEEG,001,101740,
AFNE01.JPG,AFNE01.JPG,AFNE01.JPG,AFNE01.JPG,AFNE01.JPG,AFNE01.JPG,,,,,,,,,2,6,26,3,,,,,,,,,,,,,,,AFSA10.jpg,AFNE12.jpg,AFNE01.jpg,AFSA15.jpg,AFNE01.jpg,FN,3,num_2,16,num_2,1.25011402293,,,2017_Sep_25_1749,60.0060433462,FEMA4ImagesEEG,001,101740,
AFNE01.JPG,AFNE01.JPG,AFNE01.JPG,AFNE01.JPG,AFNE01.JPG,AFNE01.JPG,,,,,,,,,2,7,27,4,,,,,,,,,,,,,,,AFNE14.jpg,AFNE08.jpg,AFSA17.jpg,AFSA19.jpg,AFSA17.jpg,FS,4,num_2,32,num_4,1.00017929345,,,2017_Sep_25_1749,60.0060433462,FEMA4ImagesEEG,001,101740,
AFNE01.JPG,AFNE01.JPG,AFNE01.JPG,AFNE01.JPG,AFNE01.JPG,AFNE01.JPG,,,,,,,,,2,8,28,2,,,,,,,,,,,,,,,AFNE10.jpg,AFSA19.jpg,AFSA12.jpg,AFNE11.jpg,AFNE10.jpg,FN,3,num_8,32,num_2,3.66651068028,,,2017_Sep_25_1749,60.0060433462,FEMA4ImagesEEG,001,101740,
AFNE01.JPG,AFNE01.JPG,AFNE01.JPG,AFNE01.JPG,AFNE01.JPG,AFNE01.JPG,,,,,,,,,2,9,29,8,,,,,,,,,,,,,,,AFNE15.jpg,AFSA05.jpg,AFSA08.jpg,AFNE19.jpg,AFNE15.jpg,FN,3,num_8,16,num_8,1.16670055815,,,2017_Sep_25_1749,60.0060433462,FEMA4ImagesEEG,001,101740,
AFNE01.JPG,AFNE01.JPG,AFNE01.JPG,AFNE01.JPG,AFNE01.JPG,AFNE01.JPG,,,,,,,,,3,0,30,7,,,,,,,,,,,,,,,AFSA03.jpg,AFSA02.jpg,AFNE18.jpg,AFNE19.jpg,AFSA02.jpg,FS,4,num_6,16,num_6,0.816758900648,,,2017_Sep_25_1749,60.0060433462,FEMA4ImagesEEG,001,101740,
AFNE01.JPG,AFNE01.JPG,AFNE01.JPG,AFNE01.JPG,AFNE01.JPG,AFNE01.JPG,,,,,,,,,3,1,31,3,,,,,,,,,,,,,,,AFNE16.jpg,AFSA10.jpg,AFNE19.jpg,AFSA14.jpg,AFNE19.jpg,FN,3,num_2,32,num_4,1.06677445653,,,2017_Sep_25_1749,60.0060433462,FEMA4ImagesEEG,001,101740,
AFNE01.JPG,AFNE01.JPG,AFNE01.JPG,AFNE01.JPG,AFNE01.JPG,AFNE01.JPG,,,,,,,,,3,2,32,1,,,,,,,,,,,,,,,AFSA07.jpg,AFNE16.jpg,AFSA17.jpg,AFNE20.jpg,AFSA07.jpg,FS,4,num_8,16,num_8,1.08342853951,,,2017_Sep_25_1749,60.0060433462,FEMA4ImagesEEG,001,101740,
AFNE01.JPG,AFNE01.JPG,AFNE01.JPG,AFNE01.JPG,AFNE01.JPG,AFNE01.JPG,,,,,,,,,3,3,33,9,,,,,,,,,,,,,,,AFSA12.jpg,AFNE06.jpg,AFSA08.jpg,AFNE18.jpg,AFNE18.jpg,FN,3,num_4,32,num_8,1.1834271283,,,2017_Sep_25_1749,60.0060433462,FEMA4ImagesEEG,001,101740,
AFNE01.JPG,AFNE01.JPG,AFNE01.JPG,AFNE01.JPG,AFNE01.JPG,AFNE01.JPG,,,,,,,,,3,4,34,8,,,,,,,,,,,,,,,AFSA15.jpg,AFSA01.jpg,AFNE13.jpg,AFNE07.jpg,AFNE07.jpg,FN,3,num_4,32,num_8,1.1667868371,,,2017_Sep_25_1749,60.0060433462,FEMA4ImagesEEG,001,101740,
AFNE01.JPG,AFNE01.JPG,AFNE01.JPG,AFNE01.JPG,AFNE01.JPG,AFNE01.JPG,,,,,,,,,3,5,35,5,,,,,,,,,,,,,,,AFNE09.jpg,AFSA04.jpg,AFSA05.jpg,AFNE05.jpg,AFNE05.jpg,FN,3,num_4,32,num_8,1.21673721873,,,2017_Sep_25_1749,60.0060433462,FEMA4ImagesEEG,001,101740,
AFNE01.JPG,AFNE01.JPG,AFNE01.JPG,AFNE01.JPG,AFNE01.JPG,AFNE01.JPG,,,,,,,,,3,6,36,2,,,,,,,,,,,,,,,AFSA12.jpg,AFNE05.jpg,AFNE06.jpg,AFSA02.jpg,AFNE05.jpg,FN,3,num_6,32,num_2,2.03336076724,,,2017_Sep_25_1749,60.0060433462,FEMA4ImagesEEG,001,101740,
AFNE01.JPG,AFNE01.JPG,AFNE01.JPG,AFNE01.JPG,AFNE01.JPG,AFNE01.JPG,,,,,,,,,3,7,37,6,,,,,,,,,,,,,,,AFNE19.jpg,AFSA19.jpg,AFNE03.jpg,AFSA10.jpg,AFNE03.jpg,FN,3,num_2,16,num_2,0.816813105659,,,2017_Sep_25_1749,60.0060433462,FEMA4ImagesEEG,001,101740,
AFNE01.JPG,AFNE01.JPG,AFNE01.JPG,AFNE01.JPG,AFNE01.JPG,AFNE01.JPG,,,,,,,,,3,8,38,0,,,,,,,,,,,,,,,AFNE08.jpg,AFNE05.jpg,AFSA19.jpg,AFSA08.jpg,AFSA08.jpg,FS,4,num_4,32,num_8,0.78349499678,,,2017_Sep_25_1749,60.0060433462,FEMA4ImagesEEG,001,101740,
AFNE01.JPG,AFNE01.JPG,AFNE01.JPG,AFNE01.JPG,AFNE01.JPG,AFNE01.JPG,,,,,,,,,3,9,39,4,,,,,,,,,,,,,,,AFNE12.jpg,AFSA13.jpg,AFSA05.jpg,AFNE09.jpg,AFNE09.jpg,FN,3,num_4,16,num_4,0.75009862741,,,2017_Sep_25_1749,60.0060433462,FEMA4ImagesEEG,001,101740,
AFNE01.JPG,AFNE01.JPG,AFNE01.JPG,AFNE01.JPG,AFNE01.JPG,AFNE01.JPG,,,,,,,,,4,0,40,1,,,,,,,,,,,,,,,AFSA10.jpg,AFSA15.jpg,AFNE07.jpg,AFNE16.jpg,AFNE07.jpg,FN,3,num_2,32,num_8,1.26671229722,,,2017_Sep_25_1749,60.0060433462,FEMA4ImagesEEG,001,101740,
AFNE01.JPG,AFNE01.JPG,AFNE01.JPG,AFNE01.JPG,AFNE01.JPG,AFNE01.JPG,,,,,,,,,4,1,41,5,,,,,,,,,,,,,,,AFNE11.jpg,AFSA10.jpg,AFNE07.jpg,AFSA16.jpg,AFSA10.jpg,FS,4,num_6,16,num_6,1.18344893859,,,2017_Sep_25_1749,60.0060433462,FEMA4ImagesEEG,001,101740,
AFNE01.JPG,AFNE01.JPG,AFNE01.JPG,AFNE01.JPG,AFNE01.JPG,AFNE01.JPG,,,,,,,,,4,2,42,7,,,,,,,,,,,,,,,AFSA20.jpg,AFNE05.jpg,AFNE17.jpg,AFSA15.jpg,AFSA20.jpg,FS,4,num_8,16,num_8,1.01646452589,,,2017_Sep_25_1749,60.0060433462,FEMA4ImagesEEG,001,101740,
AFNE01.JPG,AFNE01.JPG,AFNE01.JPG,AFNE01.JPG,AFNE01.JPG,AFNE01.JPG,,,,,,,,,4,3,43,0,,,,,,,,,,,,,,,AFSA08.jpg,AFSA07.jpg,AFNE07.jpg,AFNE17.jpg,AFNE07.jpg,FN,3,num_2,16,num_2,1.16674834839,,,2017_Sep_25_1749,60.0060433462,FEMA4ImagesEEG,001,101740,
AFNE01.JPG,AFNE01.JPG,AFNE01.JPG,AFNE01.JPG,AFNE01.JPG,AFNE01.JPG,,,,,,,,,4,4,44,3,,,,,,,,,,,,,,,AFNE10.jpg,AFSA04.jpg,AFSA05.jpg,AFNE05.jpg,AFNE05.jpg,FN,3,num_4,32,num_8,0.850178363267,,,2017_Sep_25_1749,60.0060433462,FEMA4ImagesEEG,001,101740,
AFNE01.JPG,AFNE01.JPG,AFNE01.JPG,AFNE01.JPG,AFNE01.JPG,AFNE01.JPG,,,,,,,,,4,5,45,8,,,,,,,,,,,,,,,AFSA05.jpg,AFNE04.jpg,AFNE03.jpg,AFSA08.jpg,AFSA05.jpg,FS,4,num_8,16,num_8,1.38370431145,,,2017_Sep_25_1749,60.0060433462,FEMA4ImagesEEG,001,101740,
AFNE01.JPG,AFNE01.JPG,AFNE01.JPG,AFNE01.JPG,AFNE01.JPG,AFNE01.JPG,,,,,,,,,4,6,46,2,,,,,,,,,,,,,,,AFNE18.jpg,AFSA17.jpg,AFNE04.jpg,AFSA20.jpg,AFNE18.jpg,FN,3,num_8,16,num_8,0.900067483599,,,2017_Sep_25_1749,60.0060433462,FEMA4ImagesEEG,001,101740,
AFNE01.JPG,AFNE01.JPG,AFNE01.JPG,AFNE01.JPG,AFNE01.JPG,AFNE01.JPG,,,,,,,,,4,7,47,4,,,,,,,,,,,,,,,AFSA08.jpg,AFNE05.jpg,AFNE15.jpg,AFSA15.jpg,AFSA15.jpg,FS,4,num_4,32,num_2,0.483472288412,,,2017_Sep_25_1749,60.0060433462,FEMA4ImagesEEG,001,101740,
AFNE01.JPG,AFNE01.JPG,AFNE01.JPG,AFNE01.JPG,AFNE01.JPG,AFNE01.JPG,,,,,,,,,4,8,48,6,,,,,,,,,,,,,,,AFSA13.jpg,AFNE20.jpg,AFSA05.jpg,AFNE15.jpg,AFNE15.jpg,FN,3,num_4,32,num_6,0.866789467167,,,2017_Sep_25_1749,60.0060433462,FEMA4ImagesEEG,001,101740,
AFNE01.JPG,AFNE01.JPG,AFNE01.JPG,AFNE01.JPG,AFNE01.JPG,AFNE01.JPG,,,,,,,,,4,9,49,9,,,,,,,,,,,,,,,AFNE20.jpg,AFSA09.jpg,AFNE05.jpg,AFSA08.jpg,AFSA08.jpg,FS,4,num_4,32,num_8,0.266804670217,,,2017_Sep_25_1749,60.0060433462,FEMA4ImagesEEG,001,101740,
AFNE01.JPG,AFNE01.JPG,AFNE01.JPG,AFNE01.JPG,AFNE01.JPG,AFNE01.JPG,,,,,,,,,5,0,50,9,,,,,,,,,,,,,,,AFNE15.jpg,AFNE18.jpg,AFSA05.jpg,AFSA09.jpg,AFNE18.jpg,FN,3,num_6,32,num_2,0.533493232739,,,2017_Sep_25_1749,60.0060433462,FEMA4ImagesEEG,001,101740,
AFNE01.JPG,AFNE01.JPG,AFNE01.JPG,AFNE01.JPG,AFNE01.JPG,AFNE01.JPG,,,,,,,,,5,1,51,7,,,,,,,,,,,,,,,AFNE20.jpg,AFSA08.jpg,AFNE07.jpg,AFSA03.jpg,AFNE07.jpg,FN,3,num_2,32,num_4,0.533652319515,,,2017_Sep_25_1749,60.0060433462,FEMA4ImagesEEG,001,101740,
AFNE01.JPG,AFNE01.JPG,AFNE01.JPG,AFNE01.JPG,AFNE01.JPG,AFNE01.JPG,,,,,,,,,5,2,52,0,,,,,,,,,,,,,,,AFNE14.jpg,AFNE06.jpg,AFSA14.jpg,AFSA13.jpg,AFNE06.jpg,FN,3,num_6,16,num_6,0.516779171419,,,2017_Sep_25_1749,60.0060433462,FEMA4ImagesEEG,001,101740,
AFNE01.JPG,AFNE01.JPG,AFNE01.JPG,AFNE01.JPG,AFNE01.JPG,AFNE01.JPG,,,,,,,,,5,3,53,2,,,,,,,,,,,,,,,AFNE01.jpg,AFNE15.jpg,AFSA01.jpg,AFSA11.jpg,AFSA11.jpg,FS,4,num_4,32,num_6,0.350217814266,,,2017_Sep_25_1749,60.0060433462,FEMA4ImagesEEG,001,101740,
AFNE01.JPG,AFNE01.JPG,AFNE01.JPG,AFNE01.JPG,AFNE01.JPG,AFNE01.JPG,,,,,,,,,5,4,54,1,,,,,,,,,,,,,,,AFNE19.jpg,AFSA14.jpg,AFNE07.jpg,AFSA10.jpg,AFSA10.jpg,FS,4,num_4,32,num_8,1.36675546877,,,2017_Sep_25_1749,60.0060433462,FEMA4ImagesEEG,001,101740,
AFNE01.JPG,AFNE01.JPG,AFNE01.JPG,AFNE01.JPG,AFNE01.JPG,AFNE01.JPG,,,,,,,,,5,5,55,4,,,,,,,,,,,,,,,AFNE10.jpg,AFNE05.jpg,AFSA13.jpg,AFSA02.jpg,AFSA13.jpg,FS,4,num_2,32,num_4,0.53346661129,,,2017_Sep_25_1749,60.0060433462,FEMA4ImagesEEG,001,101740,
AFNE01.JPG,AFNE01.JPG,AFNE01.JPG,AFNE01.JPG,AFNE01.JPG,AFNE01.JPG,,,,,,,,,5,6,56,3,,,,,,,,,,,,,,,AFSA13.jpg,AFSA06.jpg,AFNE05.jpg,AFNE20.jpg,AFSA13.jpg,FS,4,num_8,32,num_6,0.950124992174,,,2017_Sep_25_1749,60.0060433462,FEMA4ImagesEEG,001,101740,
AFNE01.JPG,AFNE01.JPG,AFNE01.JPG,AFNE01.JPG,AFNE01.JPG,AFNE01.JPG,,,,,,,,,5,7,57,5,,,,,,,,,,,,,,,AFSA16.jpg,AFNE16.jpg,AFNE04.jpg,AFSA07.jpg,AFNE16.jpg,FN,3,num_6,32,num_2,0.383498075884,,,2017_Sep_25_1749,60.0060433462,FEMA4ImagesEEG,001,101740,
AFNE01.JPG,AFNE01.JPG,AFNE01.JPG,AFNE01.JPG,AFNE01.JPG,AFNE01.JPG,,,,,,,,,5,8,58,6,,,,,,,,,,,,,,,AFSA20.jpg,AFSA14.jpg,AFNE02.jpg,AFNE03.jpg,AFSA20.jpg,FS,4,num_8,16,num_8,0.650139168894,,,2017_Sep_25_1749,60.0060433462,FEMA4ImagesEEG,001,101740,
AFNE01.JPG,AFNE01.JPG,AFNE01.JPG,AFNE01.JPG,AFNE01.JPG,AFNE01.JPG,,,,,,,,,5,9,59,8,,,,,,,,,,,,,,,AFSA04.jpg,AFSA20.jpg,AFNE03.jpg,AFNE06.jpg,AFSA20.jpg,FS,4,num_6,32,num_8,0.516764738131,,,2017_Sep_25_1749,60.0060433462,FEMA4ImagesEEG,001,101740,
,,,,,,,,,,,,,,,,,,,,,,,,,,,,,,,,,,,,,,,,,,,space,26.3148726311,2017_Sep_25_1749,60.0060433462,FEMA4ImagesEEG,001,101740,
AFNE01.JPG,AFNE01.JPG,AFNE01.JPG,AFNE01.JPG,AFNE01.JPG,AFNE01.JPG,,,,,,,,,,,,,0,0,0,7,,,,,,,,,,,AMSA10.jpg,AMNE19.jpg,AMSA01.jpg,AMNE07.jpg,AMSA10.jpg,MS,2,num_8,16,num_8,0.783493072318,,,2017_Sep_25_1749,60.0060433462,FEMA4ImagesEEG,001,101740,
AFNE01.JPG,AFNE01.JPG,AFNE01.JPG,AFNE01.JPG,AFNE01.JPG,AFNE01.JPG,,,,,,,,,,,,,0,1,1,3,,,,,,,,,,,AMNE19.jpg,AMSA04.jpg,AMSA06.jpg,AMNE08.jpg,AMSA06.jpg,MS,2,num_2,32,num_6,0.450155141705,,,2017_Sep_25_1749,60.0060433462,FEMA4ImagesEEG,001,101740,
AFNE01.JPG,AFNE01.JPG,AFNE01.JPG,AFNE01.JPG,AFNE01.JPG,AFNE01.JPG,,,,,,,,,,,,,0,2,2,1,,,,,,,,,,,AMNE05.jpg,AMSA12.jpg,AMNE06.jpg,AMSA18.jpg,AMSA12.jpg,MS,2,num_6,32,num_2,0.116788344574,,,2017_Sep_25_1749,60.0060433462,FEMA4ImagesEEG,001,101740,
AFNE01.JPG,AFNE01.JPG,AFNE01.JPG,AFNE01.JPG,AFNE01.JPG,AFNE01.JPG,,,,,,,,,,,,,0,3,3,8,,,,,,,,,,,AMSA04.jpg,AMSA07.jpg,AMNE16.jpg,AMNE13.jpg,AMNE13.jpg,MN,1,num_4,16,num_4,0.433422798291,,,2017_Sep_25_1749,60.0060433462,FEMA4ImagesEEG,001,101740,
AFNE01.JPG,AFNE01.JPG,AFNE01.JPG,AFNE01.JPG,AFNE01.JPG,AFNE01.JPG,,,,,,,,,,,,,0,4,4,4,,,,,,,,,,,AMSA07.jpg,AMNE03.jpg,AMSA09.jpg,AMNE12.jpg,AMSA09.jpg,MS,2,num_2,32,num_6,0.666773686826,,,2017_Sep_25_1749,60.0060433462,FEMA4ImagesEEG,001,101740,
AFNE01.JPG,AFNE01.JPG,AFNE01.JPG,AFNE01.JPG,AFNE01.JPG,AFNE01.JPG,,,,,,,,,,,,,0,5,5,2,,,,,,,,,,,AMNE15.jpg,AMNE09.jpg,AMSA20.jpg,AMSA07.jpg,AMNE09.jpg,MN,1,num_6,32,num_8,0.366792033077,,,2017_Sep_25_1749,60.0060433462,FEMA4ImagesEEG,001,101740,
AFNE01.JPG,AFNE01.JPG,AFNE01.JPG,AFNE01.JPG,AFNE01.JPG,AFNE01.JPG,,,,,,,,,,,,,0,6,6,0,,,,,,,,,,,AMNE17.jpg,AMSA20.jpg,AMSA17.jpg,AMNE05.jpg,AMNE05.jpg,MN,1,num_4,48,None,,,,2017_Sep_25_1749,60.0060433462,FEMA4ImagesEEG,001,101740,
AFNE01.JPG,AFNE01.JPG,AFNE01.JPG,AFNE01.JPG,AFNE01.JPG,AFNE01.JPG,,,,,,,,,,,,,0,7,7,6,,,,,,,,,,,AMSA08.jpg,AMNE01.jpg,AMNE07.jpg,AMSA02.jpg,AMNE01.jpg,MN,1,num_6,48,None,,,,2017_Sep_25_1749,60.0060433462,FEMA4ImagesEEG,001,101740,
AFNE01.JPG,AFNE01.JPG,AFNE01.JPG,AFNE01.JPG,AFNE01.JPG,AFNE01.JPG,,,,,,,,,,,,,0,8,8,5,,,,,,,,,,,AMSA12.jpg,AMSA15.jpg,AMNE12.jpg,AMNE13.jpg,AMSA12.jpg,MS,2,num_8,32,num_2,0.65014558367,,,2017_Sep_25_1749,60.0060433462,FEMA4ImagesEEG,001,101740,
AFNE01.JPG,AFNE01.JPG,AFNE01.JPG,AFNE01.JPG,AFNE01.JPG,AFNE01.JPG,,,,,,,,,,,,,0,9,9,9,,,,,,,,,,,AMNE04.jpg,AMSA03.jpg,AMSA13.jpg,AMNE02.jpg,AMNE02.jpg,MN,1,num_4,16,num_4,0.883420456899,,,2017_Sep_25_1749,60.0060433462,FEMA4ImagesEEG,001,101740,
AFNE01.JPG,AFNE01.JPG,AFNE01.JPG,AFNE01.JPG,AFNE01.JPG,AFNE01.JPG,,,,,,,,,,,,,1,0,10,7,,,,,,,,,,,AMSA17.jpg,AMNE05.jpg,AMSA05.jpg,AMNE19.jpg,AMSA17.jpg,MS,2,num_8,16,num_8,0.900135480391,,,2017_Sep_25_1749,60.0060433462,FEMA4ImagesEEG,001,101740,
AFNE01.JPG,AFNE01.JPG,AFNE01.JPG,AFNE01.JPG,AFNE01.JPG,AFNE01.JPG,,,,,,,,,,,,,1,1,11,1,,,,,,,,,,,AMSA05.jpg,AMNE08.jpg,AMNE17.jpg,AMSA09.jpg,AMSA05.jpg,MS,2,num_8,32,num_6,0.866613701859,,,2017_Sep_25_1749,60.0060433462,FEMA4ImagesEEG,001,101740,
AFNE01.JPG,AFNE01.JPG,AFNE01.JPG,AFNE01.JPG,AFNE01.JPG,AFNE01.JPG,,,,,,,,,,,,,1,2,12,4,,,,,,,,,,,AMNE11.jpg,AMNE17.jpg,AMSA02.jpg,AMSA06.jpg,AMSA02.jpg,MS,2,num_2,32,num_4,0.716797838453,,,2017_Sep_25_1749,60.0060433462,FEMA4ImagesEEG,001,101740,
AFNE01.JPG,AFNE01.JPG,AFNE01.JPG,AFNE01.JPG,AFNE01.JPG,AFNE01.JPG,,,,,,,,,,,,,1,3,13,0,,,,,,,,,,,AMSA03.jpg,AMNE02.jpg,AMSA07.jpg,AMNE16.jpg,AMNE02.jpg,MN,1,num_6,16,num_6,0.783447848109,,,2017_Sep_25_1749,60.0060433462,FEMA4ImagesEEG,001,101740,
AFNE01.JPG,AFNE01.JPG,AFNE01.JPG,AFNE01.JPG,AFNE01.JPG,AFNE01.JPG,,,,,,,,,,,,,1,4,14,3,,,,,,,,,,,AMSA09.jpg,AMSA16.jpg,AMNE03.jpg,AMNE14.jpg,AMNE03.jpg,MN,1,num_2,16,num_2,0.450122747046,,,2017_Sep_25_1749,60.0060433462,FEMA4ImagesEEG,001,101740,
AFNE01.JPG,AFNE01.JPG,AFNE01.JPG,AFNE01.JPG,AFNE01.JPG,AFNE01.JPG,,,,,,,,,,,,,1,5,15,2,,,,,,,,,,,AMSA10.jpg,AMSA09.jpg,AMNE09.jpg,AMNE14.jpg,AMNE09.jpg,MN,1,num_2,32,num_8,0.850130252365,,,2017_Sep_25_1749,60.0060433462,FEMA4ImagesEEG,001,101740,
AFNE01.JPG,AFNE01.JPG,AFNE01.JPG,AFNE01.JPG,AFNE01.JPG,AFNE01.JPG,,,,,,,,,,,,,1,6,16,9,,,,,,,,,,,AMSA06.jpg,AMNE11.jpg,AMSA01.jpg,AMNE08.jpg,AMNE08.jpg,MN,1,num_4,16,num_4,0.533468215028,,,2017_Sep_25_1749,60.0060433462,FEMA4ImagesEEG,001,101740,
AFNE01.JPG,AFNE01.JPG,AFNE01.JPG,AFNE01.JPG,AFNE01.JPG,AFNE01.JPG,,,,,,,,,,,,,1,7,17,8,,,,,,,,,,,AMSA04.jpg,AMNE15.jpg,AMSA15.jpg,AMNE16.jpg,AMNE15.jpg,MN,1,num_6,32,num_2,0.100213163532,,,2017_Sep_25_1749,60.0060433462,FEMA4ImagesEEG,001,101740,
AFNE01.JPG,AFNE01.JPG,AFNE01.JPG,AFNE01.JPG,AFNE01.JPG,AFNE01.JPG,,,,,,,,,,,,,1,8,18,6,,,,,,,,,,,AMNE02.jpg,AMNE18.jpg,AMSA03.jpg,AMSA17.jpg,AMNE02.jpg,MN,1,num_8,16,num_8,0.116792193439,,,2017_Sep_25_1749,60.0060433462,FEMA4ImagesEEG,001,101740,
AFNE01.JPG,AFNE01.JPG,AFNE01.JPG,AFNE01.JPG,AFNE01.JPG,AFNE01.JPG,,,,,,,,,,,,,1,9,19,5,,,,,,,,,,,AMNE15.jpg,AMNE19.jpg,AMSA03.jpg,AMSA20.jpg,AMSA03.jpg,MS,2,num_2,16,num_2,1.16670697293,,,2017_Sep_25_1749,60.0060433462,FEMA4ImagesEEG,001,101740,
AFNE01.JPG,AFNE01.JPG,AFNE01.JPG,AFNE01.JPG,AFNE01.JPG,AFNE01.JPG,,,,,,,,,,,,,2,0,20,5,,,,,,,,,,,AMNE09.jpg,AMSA05.jpg,AMSA09.jpg,AMNE18.jpg,AMSA09.jpg,MS,2,num_2,32,num_8,0.566778946901,,,2017_Sep_25_1749,60.0060433462,FEMA4ImagesEEG,001,101740,
AFNE01.JPG,AFNE01.JPG,AFNE01.JPG,AFNE01.JPG,AFNE01.JPG,AFNE01.JPG,,,,,,,,,,,,,2,1,21,0,,,,,,,,,,,AMNE09.jpg,AMNE06.jpg,AMSA18.jpg,AMSA02.jpg,AMSA02.jpg,MS,2,num_4,16,num_4,0.416816826269,,,2017_Sep_25_1749,60.0060433462,FEMA4ImagesEEG,001,101740,
AFNE01.JPG,AFNE01.JPG,AFNE01.JPG,AFNE01.JPG,AFNE01.JPG,AFNE01.JPG,,,,,,,,,,,,,2,2,22,8,,,,,,,,,,,AMSA13.jpg,AMNE14.jpg,AMSA16.jpg,AMNE10.jpg,AMSA16.jpg,MS,2,num_2,32,num_6,2.31667262176,,,2017_Sep_25_1749,60.0060433462,FEMA4ImagesEEG,001,101740,
AFNE01.JPG,AFNE01.JPG,AFNE01.JPG,AFNE01.JPG,AFNE01.JPG,AFNE01.JPG,,,,,,,,,,,,,2,3,23,9,,,,,,,,,,,AMNE08.jpg,AMSA07.jpg,AMNE01.jpg,AMSA18.jpg,AMNE08.jpg,MN,1,num_8,32,num_2,1.06673853373,,,2017_Sep_25_1749,60.0060433462,FEMA4ImagesEEG,001,101740,
AFNE01.JPG,AFNE01.JPG,AFNE01.JPG,AFNE01.JPG,AFNE01.JPG,AFNE01.JPG,,,,,,,,,,,,,2,4,24,2,,,,,,,,,,,AMNE18.jpg,AMSA17.jpg,AMSA02.jpg,AMNE14.jpg,AMNE14.jpg,MN,1,num_4,16,num_4,0.866766053194,,,2017_Sep_25_1749,60.0060433462,FEMA4ImagesEEG,001,101740,
AFNE01.JPG,AFNE01.JPG,AFNE01.JPG,AFNE01.JPG,AFNE01.JPG,AFNE01.JPG,,,,,,,,,,,,,2,5,25,6,,,,,,,,,,,AMSA06.jpg,AMSA12.jpg,AMNE03.jpg,AMNE20.jpg,AMNE03.jpg,MN,1,num_2,16,num_2,3.58324988757,,,2017_Sep_25_1749,60.0060433462,FEMA4ImagesEEG,001,101740,
AFNE01.JPG,AFNE01.JPG,AFNE01.JPG,AFNE01.JPG,AFNE01.JPG,AFNE01.JPG,,,,,,,,,,,,,2,6,26,4,,,,,,,,,,,AMSA03.jpg,AMNE05.jpg,AMSA16.jpg,AMNE20.jpg,AMNE05.jpg,MN,1,num_6,32,num_2,0.433490153635,,,2017_Sep_25_1749,60.0060433462,FEMA4ImagesEEG,001,101740,
AFNE01.JPG,AFNE01.JPG,AFNE01.JPG,AFNE01.JPG,AFNE01.JPG,AFNE01.JPG,,,,,,,,,,,,,2,7,27,7,,,,,,,,,,,AMNE16.jpg,AMSA12.jpg,AMNE12.jpg,AMSA07.jpg,AMNE12.jpg,MN,1,num_2,32,num_8,0.316851273703,,,2017_Sep_25_1749,60.0060433462,FEMA4ImagesEEG,001,101740,
AFNE01.JPG,AFNE01.JPG,AFNE01.JPG,AFNE01.JPG,AFNE01.JPG,AFNE01.JPG,,,,,,,,,,,,,2,8,28,3,,,,,,,,,,,AMSA09.jpg,AMNE09.jpg,AMSA04.jpg,AMNE03.jpg,AMNE09.jpg,MN,1,num_6,16,num_6,0.383504169935,,,2017_Sep_25_1749,60.0060433462,FEMA4ImagesEEG,001,101740,
AFNE01.JPG,AFNE01.JPG,AFNE01.JPG,AFNE01.JPG,AFNE01.JPG,AFNE01.JPG,,,,,,,,,,,,,2,9,29,1,,,,,,,,,,,AMSA15.jpg,AMSA16.jpg,AMNE11.jpg,AMNE06.jpg,AMNE11.jpg,MN,1,num_2,32,num_4,0.0835068000015,,,2017_Sep_25_1749,60.0060433462,FEMA4ImagesEEG,001,101740,
AFNE01.JPG,AFNE01.JPG,AFNE01.JPG,AFNE01.JPG,AFNE01.JPG,AFNE01.JPG,,,,,,,,,,,,,3,0,30,8,,,,,,,,,,,AMSA14.jpg,AMNE17.jpg,AMSA18.jpg,AMNE01.jpg,AMNE01.jpg,MN,1,num_4,16,num_4,0.450009205262,,,2017_Sep_25_1749,60.0060433462,FEMA4ImagesEEG,001,101740,
AFNE01.JPG,AFNE01.JPG,AFNE01.JPG,AFNE01.JPG,AFNE01.JPG,AFNE01.JPG,,,,,,,,,,,,,3,1,31,3,,,,,,,,,,,AMSA05.jpg,AMNE13.jpg,AMNE06.jpg,AMSA03.jpg,AMSA05.jpg,MS,2,num_8,16,num_8,0.683494483645,,,2017_Sep_25_1749,60.0060433462,FEMA4ImagesEEG,001,101740,
AFNE01.JPG,AFNE01.JPG,AFNE01.JPG,AFNE01.JPG,AFNE01.JPG,AFNE01.JPG,,,,,,,,,,,,,3,2,32,0,,,,,,,,,,,AMNE17.jpg,AMSA10.jpg,AMNE19.jpg,AMSA09.jpg,AMNE19.jpg,MN,1,num_2,16,num_2,0.983428026375,,,2017_Sep_25_1749,60.0060433462,FEMA4ImagesEEG,001,101740,
AFNE01.JPG,AFNE01.JPG,AFNE01.JPG,AFNE01.JPG,AFNE01.JPG,AFNE01.JPG,,,,,,,,,,,,,3,3,33,2,,,,,,,,,,,AMSA17.jpg,AMNE20.jpg,AMNE10.jpg,AMSA10.jpg,AMSA10.jpg,MS,2,num_4,32,num_2,0.616760760953,,,2017_Sep_25_1749,60.0060433462,FEMA4ImagesEEG,001,101740,
AFNE01.JPG,AFNE01.JPG,AFNE01.JPG,AFNE01.JPG,AFNE01.JPG,AFNE01.JPG,,,,,,,,,,,,,3,4,34,9,,,,,,,,,,,AMNE18.jpg,AMNE04.jpg,AMSA16.jpg,AMSA09.jpg,AMNE04.jpg,MN,1,num_6,32,num_8,0.350158477435,,,2017_Sep_25_1749,60.0060433462,FEMA4ImagesEEG,001,101740,
AFNE01.JPG,AFNE01.JPG,AFNE01.JPG,AFNE01.JPG,AFNE01.JPG,AFNE01.JPG,,,,,,,,,,,,,3,5,35,7,,,,,,,,,,,AMNE10.jpg,AMNE12.jpg,AMSA12.jpg,AMSA14.jpg,AMSA12.jpg,MS,2,num_2,32,num_6,0.466782282572,,,2017_Sep_25_1749,60.0060433462,FEMA4ImagesEEG,001,101740,
AFNE01.JPG,AFNE01.JPG,AFNE01.JPG,AFNE01.JPG,AFNE01.JPG,AFNE01.JPG,,,,,,,,,,,,,3,6,36,5,,,,,,,,,,,AMNE17.jpg,AMNE03.jpg,AMSA17.jpg,AMSA02.jpg,AMNE03.jpg,MN,1,num_6,32,num_4,0.200454872916,,,2017_Sep_25_1749,60.0060433462,FEMA4ImagesEEG,001,101740,
AFNE01.JPG,AFNE01.JPG,AFNE01.JPG,AFNE01.JPG,AFNE01.JPG,AFNE01.JPG,,,,,,,,,,,,,3,7,37,6,,,,,,,,,,,AMSA06.jpg,AMNE13.jpg,AMSA03.jpg,AMNE14.jpg,AMNE14.jpg,MN,1,num_4,32,num_2,0.966757906368,,,2017_Sep_25_1749,60.0060433462,FEMA4ImagesEEG,001,101740,
AFNE01.JPG,AFNE01.JPG,AFNE01.JPG,AFNE01.JPG,AFNE01.JPG,AFNE01.JPG,,,,,,,,,,,,,3,8,38,4,,,,,,,,,,,AMNE08.jpg,AMSA04.jpg,AMNE05.jpg,AMSA01.jpg,AMNE08.jpg,MN,1,num_8,32,num_6,0.383474020404,,,2017_Sep_25_1749,60.0060433462,FEMA4ImagesEEG,001,101740,
AFNE01.JPG,AFNE01.JPG,AFNE01.JPG,AFNE01.JPG,AFNE01.JPG,AFNE01.JPG,,,,,,,,,,,,,3,9,39,1,,,,,,,,,,,AMNE17.jpg,AMSA06.jpg,AMSA09.jpg,AMNE05.jpg,AMSA09.jpg,MS,2,num_2,32,num_4,0.566791776509,,,2017_Sep_25_1749,60.0060433462,FEMA4ImagesEEG,001,101740,
AFNE01.JPG,AFNE01.JPG,AFNE01.JPG,AFNE01.JPG,AFNE01.JPG,AFNE01.JPG,,,,,,,,,,,,,4,0,40,4,,,,,,,,,,,AMNE02.jpg,AMSA09.jpg,AMNE09.jpg,AMSA08.jpg,AMSA09.jpg,MS,2,num_6,32,num_2,0.466783565527,,,2017_Sep_25_1749,60.0060433462,FEMA4ImagesEEG,001,101740,
AFNE01.JPG,AFNE01.JPG,AFNE01.JPG,AFNE01.JPG,AFNE01.JPG,AFNE01.JPG,,,,,,,,,,,,,4,1,41,1,,,,,,,,,,,AMSA18.jpg,AMNE14.jpg,AMSA05.jpg,AMNE04.jpg,AMSA05.jpg,MS,2,num_2,32,num_4,0.483471326239,,,2017_Sep_25_1749,60.0060433462,FEMA4ImagesEEG,001,101740,
AFNE01.JPG,AFNE01.JPG,AFNE01.JPG,AFNE01.JPG,AFNE01.JPG,AFNE01.JPG,,,,,,,,,,,,,4,2,42,3,,,,,,,,,,,AMSA13.jpg,AMNE03.jpg,AMSA01.jpg,AMNE17.jpg,AMNE03.jpg,MN,1,num_6,16,num_6,0.633508499945,,,2017_Sep_25_1749,60.0060433462,FEMA4ImagesEEG,001,101740,
AFNE01.JPG,AFNE01.JPG,AFNE01.JPG,AFNE01.JPG,AFNE01.JPG,AFNE01.JPG,,,,,,,,,,,,,4,3,43,5,,,,,,,,,,,AMNE12.jpg,AMNE05.jpg,AMSA14.jpg,AMSA06.jpg,AMSA06.jpg,MS,2,num_4,32,num_8,0.600131054176,,,2017_Sep_25_1749,60.0060433462,FEMA4ImagesEEG,001,101740,
AFNE01.JPG,AFNE01.JPG,AFNE01.JPG,AFNE01.JPG,AFNE01.JPG,AFNE01.JPG,,,,,,,,,,,,,4,4,44,0,,,,,,,,,,,AMSA01.jpg,AMNE08.jpg,AMSA13.jpg,AMNE11.jpg,AMNE11.jpg,MN,1,num_4,16,num_4,0.76677740732,,,2017_Sep_25_1749,60.0060433462,FEMA4ImagesEEG,001,101740,
AFNE01.JPG,AFNE01.JPG,AFNE01.JPG,AFNE01.JPG,AFNE01.JPG,AFNE01.JPG,,,,,,,,,,,,,4,5,45,7,,,,,,,,,,,AMNE12.jpg,AMSA14.jpg,AMSA19.jpg,AMNE05.jpg,AMNE12.jpg,MN,1,num_8,32,num_6,1.46677779226,,,2017_Sep_25_1749,60.0060433462,FEMA4ImagesEEG,001,101740,
AFNE01.JPG,AFNE01.JPG,AFNE01.JPG,AFNE01.JPG,AFNE01.JPG,AFNE01.JPG,,,,,,,,,,,,,4,6,46,9,,,,,,,,,,,AMSA01.jpg,AMNE05.jpg,AMNE11.jpg,AMSA07.jpg,AMSA01.jpg,MS,2,num_8,16,num_8,0.550115241727,,,2017_Sep_25_1749,60.0060433462,FEMA4ImagesEEG,001,101740,
AFNE01.JPG,AFNE01.JPG,AFNE01.JPG,AFNE01.JPG,AFNE01.JPG,AFNE01.JPG,,,,,,,,,,,,,4,7,47,8,,,,,,,,,,,AMSA09.jpg,AMSA10.jpg,AMNE19.jpg,AMNE10.jpg,AMNE10.jpg,MN,1,num_4,32,num_8,0.583486593387,,,2017_Sep_25_1749,60.0060433462,FEMA4ImagesEEG,001,101740,
AFNE01.JPG,AFNE01.JPG,AFNE01.JPG,AFNE01.JPG,AFNE01.JPG,AFNE01.JPG,,,,,,,,,,,,,4,8,48,6,,,,,,,,,,,AMSA12.jpg,AMNE01.jpg,AMSA01.jpg,AMNE20.jpg,AMNE01.jpg,MN,1,num_6,32,num_2,0.233778755064,,,2017_Sep_25_1749,60.0060433462,FEMA4ImagesEEG,001,101740,
AFNE01.JPG,AFNE01.JPG,AFNE01.JPG,AFNE01.JPG,AFNE01.JPG,AFNE01.JPG,,,,,,,,,,,,,4,9,49,2,,,,,,,,,,,AMSA07.jpg,AMNE12.jpg,AMNE18.jpg,AMSA10.jpg,AMSA07.jpg,MS,2,num_8,32,num_4,0.466772981163,,,2017_Sep_25_1749,60.0060433462,FEMA4ImagesEEG,001,101740,
AFNE01.JPG,AFNE01.JPG,AFNE01.JPG,AFNE01.JPG,AFNE01.JPG,AFNE01.JPG,,,,,,,,,,,,,5,0,50,5,,,,,,,,,,,AMSA16.jpg,AMNE19.jpg,AMNE14.jpg,AMSA07.jpg,AMSA07.jpg,MS,2,num_4,32,num_8,0.383523414319,,,2017_Sep_25_1749,60.0060433462,FEMA4ImagesEEG,001,101740,
AFNE01.JPG,AFNE01.JPG,AFNE01.JPG,AFNE01.JPG,AFNE01.JPG,AFNE01.JPG,,,,,,,,,,,,,5,1,51,3,,,,,,,,,,,AMSA19.jpg,AMNE09.jpg,AMSA01.jpg,AMNE07.jpg,AMNE07.jpg,MN,1,num_4,16,num_4,0.866771185014,,,2017_Sep_25_1749,60.0060433462,FEMA4ImagesEEG,001,101740,
AFNE01.JPG,AFNE01.JPG,AFNE01.JPG,AFNE01.JPG,AFNE01.JPG,AFNE01.JPG,,,,,,,,,,,,,5,2,52,9,,,,,,,,,,,AMNE03.jpg,AMNE11.jpg,AMSA06.jpg,AMSA15.jpg,AMNE11.jpg,MN,1,num_6,32,num_8,0.283507505665,,,2017_Sep_25_1749,60.0060433462,FEMA4ImagesEEG,001,101740,
AFNE01.JPG,AFNE01.JPG,AFNE01.JPG,AFNE01.JPG,AFNE01.JPG,AFNE01.JPG,,,,,,,,,,,,,5,3,53,8,,,,,,,,,,,AMSA13.jpg,AMSA03.jpg,AMNE17.jpg,AMNE09.jpg,AMNE17.jpg,MN,1,num_2,16,num_2,1.35007059481,,,2017_Sep_25_1749,60.0060433462,FEMA4ImagesEEG,001,101740,
AFNE01.JPG,AFNE01.JPG,AFNE01.JPG,AFNE01.JPG,AFNE01.JPG,AFNE01.JPG,,,,,,,,,,,,,5,4,54,2,,,,,,,,,,,AMNE18.jpg,AMSA20.jpg,AMNE19.jpg,AMSA19.jpg,AMNE18.jpg,MN,1,num_8,32,num_4,0.550150202354,,,2017_Sep_25_1749,60.0060433462,FEMA4ImagesEEG,001,101740,
AFNE01.JPG,AFNE01.JPG,AFNE01.JPG,AFNE01.JPG,AFNE01.JPG,AFNE01.JPG,,,,,,,,,,,,,5,5,55,7,,,,,,,,,,,AMNE07.jpg,AMSA03.jpg,AMNE06.jpg,AMSA14.jpg,AMSA03.jpg,MS,2,num_6,16,num_6,1.10012399795,,,2017_Sep_25_1749,60.0060433462,FEMA4ImagesEEG,001,101740,
AFNE01.JPG,AFNE01.JPG,AFNE01.JPG,AFNE01.JPG,AFNE01.JPG,AFNE01.JPG,,,,,,,,,,,,,5,6,56,6,,,,,,,,,,,AMSA01.jpg,AMNE04.jpg,AMNE11.jpg,AMSA03.jpg,AMSA01.jpg,MS,2,num_8,32,num_2,0.250150587235,,,2017_Sep_25_1749,60.0060433462,FEMA4ImagesEEG,001,101740,
AFNE01.JPG,AFNE01.JPG,AFNE01.JPG,AFNE01.JPG,AFNE01.JPG,AFNE01.JPG,,,,,,,,,,,,,5,7,57,4,,,,,,,,,,,AMSA14.jpg,AMSA10.jpg,AMNE15.jpg,AMNE09.jpg,AMNE15.jpg,MN,1,num_2,32,num_8,0.700125794101,,,2017_Sep_25_1749,60.0060433462,FEMA4ImagesEEG,001,101740,
AFNE01.JPG,AFNE01.JPG,AFNE01.JPG,AFNE01.JPG,AFNE01.JPG,AFNE01.JPG,,,,,,,,,,,,,5,8,58,0,,,,,,,,,,,AMNE04.jpg,AMNE15.jpg,AMSA03.jpg,AMSA11.jpg,AMNE15.jpg,MN,1,num_6,32,num_4,0.300282828219,,,2017_Sep_25_1749,60.0060433462,FEMA4ImagesEEG,001,101740,
AFNE01.JPG,AFNE01.JPG,AFNE01.JPG,AFNE01.JPG,AFNE01.JPG,AFNE01.JPG,,,,,,,,,,,,,5,9,59,1,,,,,,,,,,,AMSA07.jpg,AMSA14.jpg,AMNE18.jpg,AMNE07.jpg,AMNE07.jpg,MN,1,num_4,32,num_6,0.583475367515,,,2017_Sep_25_1749,60.0060433462,FEMA4ImagesEEG,001,101740,
,,,,,,,,,,,,,,,,,,,,,,,,,,,,,,,,,,,,,,,,,,,space,39.3973578755,2017_Sep_25_1749,60.0060433462,FEMA4ImagesEEG,001,101740,
AFNE01.JPG,AFNE01.JPG,AFNE01.JPG,AFNE01.JPG,AFNE01.JPG,AFNE01.JPG,,,,,,,,,,,,,,,,,0,0,0,4,,,,,,,AFSA12.jpg,AFNE10.jpg,AFNE08.jpg,AFSA14.jpg,AFNE08.jpg,FN,3,num_2,48,None,,,,2017_Sep_25_1749,60.0060433462,FEMA4ImagesEEG,001,101740,
AFNE01.JPG,AFNE01.JPG,AFNE01.JPG,AFNE01.JPG,AFNE01.JPG,AFNE01.JPG,,,,,,,,,,,,,,,,,0,1,1,0,,,,,,,AFNE08.jpg,AFSA15.jpg,AFSA07.jpg,AFNE10.jpg,AFNE10.jpg,FN,3,num_4,32,num_6,0.883715216594,,,2017_Sep_25_1749,60.0060433462,FEMA4ImagesEEG,001,101740,
AFNE01.JPG,AFNE01.JPG,AFNE01.JPG,AFNE01.JPG,AFNE01.JPG,AFNE01.JPG,,,,,,,,,,,,,,,,,0,2,2,8,,,,,,,AFSA03.jpg,AFSA07.jpg,AFNE15.jpg,AFNE19.jpg,AFNE15.jpg,FN,3,num_2,16,num_2,1.86674680881,,,2017_Sep_25_1749,60.0060433462,FEMA4ImagesEEG,001,101740,
AFNE01.JPG,AFNE01.JPG,AFNE01.JPG,AFNE01.JPG,AFNE01.JPG,AFNE01.JPG,,,,,,,,,,,,,,,,,0,3,3,6,,,,,,,AFNE12.jpg,AFSA01.jpg,AFNE15.jpg,AFSA17.jpg,AFNE15.jpg,FN,3,num_2,32,num_4,0.416782507091,,,2017_Sep_25_1749,60.0060433462,FEMA4ImagesEEG,001,101740,
AFNE01.JPG,AFNE01.JPG,AFNE01.JPG,AFNE01.JPG,AFNE01.JPG,AFNE01.JPG,,,,,,,,,,,,,,,,,0,4,4,3,,,,,,,AFNE12.jpg,AFNE07.jpg,AFSA01.jpg,AFSA02.jpg,AFNE07.jpg,FN,3,num_6,32,num_8,0.800137853832,,,2017_Sep_25_1749,60.0060433462,FEMA4ImagesEEG,001,101740,
AFNE01.JPG,AFNE01.JPG,AFNE01.JPG,AFNE01.JPG,AFNE01.JPG,AFNE01.JPG,,,,,,,,,,,,,,,,,0,5,5,1,,,,,,,AFNE11.jpg,AFNE10.jpg,AFSA19.jpg,AFSA09.jpg,AFNE10.jpg,FN,3,num_6,16,num_6,0.483476778783,,,2017_Sep_25_1749,60.0060433462,FEMA4ImagesEEG,001,101740,
AFNE01.JPG,AFNE01.JPG,AFNE01.JPG,AFNE01.JPG,AFNE01.JPG,AFNE01.JPG,,,,,,,,,,,,,,,,,0,6,6,9,,,,,,,AFSA10.jpg,AFNE04.jpg,AFNE09.jpg,AFSA05.jpg,AFSA10.jpg,FS,4,num_8,32,num_2,0.783435339225,,,2017_Sep_25_1749,60.0060433462,FEMA4ImagesEEG,001,101740,
AFNE01.JPG,AFNE01.JPG,AFNE01.JPG,AFNE01.JPG,AFNE01.JPG,AFNE01.JPG,,,,,,,,,,,,,,,,,0,7,7,7,,,,,,,AFNE06.jpg,AFNE13.jpg,AFSA02.jpg,AFSA04.jpg,AFNE13.jpg,FN,3,num_6,32,num_4,0.366805824859,,,2017_Sep_25_1749,60.0060433462,FEMA4ImagesEEG,001,101740,
AFNE01.JPG,AFNE01.JPG,AFNE01.JPG,AFNE01.JPG,AFNE01.JPG,AFNE01.JPG,,,,,,,,,,,,,,,,,0,8,8,5,,,,,,,AFSA10.jpg,AFSA05.jpg,AFNE13.jpg,AFNE18.jpg,AFNE13.jpg,FN,3,num_2,16,num_2,0.300331901351,,,2017_Sep_25_1749,60.0060433462,FEMA4ImagesEEG,001,101740,
AFNE01.JPG,AFNE01.JPG,AFNE01.JPG,AFNE01.JPG,AFNE01.JPG,AFNE01.JPG,,,,,,,,,,,,,,,,,0,9,9,2,,,,,,,AFNE09.jpg,AFNE12.jpg,AFSA02.jpg,AFSA06.jpg,AFSA02.jpg,FS,4,num_2,32,num_8,0.500229328813,,,2017_Sep_25_1749,60.0060433462,FEMA4ImagesEEG,001,101740,
AFNE01.JPG,AFNE01.JPG,AFNE01.JPG,AFNE01.JPG,AFNE01.JPG,AFNE01.JPG,,,,,,,,,,,,,,,,,1,0,10,1,,,,,,,AFSA10.jpg,AFNE01.jpg,AFNE10.jpg,AFSA01.jpg,AFSA10.jpg,FS,4,num_8,32,num_6,0.500168388244,,,2017_Sep_25_1749,60.0060433462,FEMA4ImagesEEG,001,101740,
AFNE01.JPG,AFNE01.JPG,AFNE01.JPG,AFNE01.JPG,AFNE01.JPG,AFNE01.JPG,,,,,,,,,,,,,,,,,1,1,11,6,,,,,,,AFNE20.jpg,AFSA04.jpg,AFNE13.jpg,AFSA12.jpg,AFNE13.jpg,FN,3,num_2,32,num_4,0.333525563299,,,2017_Sep_25_1749,60.0060433462,FEMA4ImagesEEG,001,101740,
AFNE01.JPG,AFNE01.JPG,AFNE01.JPG,AFNE01.JPG,AFNE01.JPG,AFNE01.JPG,,,,,,,,,,,,,,,,,1,2,12,8,,,,,,,AFSA06.jpg,AFNE02.jpg,AFNE06.jpg,AFSA14.jpg,AFSA14.jpg,FS,4,num_4,32,num_2,0.683511482785,,,2017_Sep_25_1749,60.0060433462,FEMA4ImagesEEG,001,101740,
AFNE01.JPG,AFNE01.JPG,AFNE01.JPG,AFNE01.JPG,AFNE01.JPG,AFNE01.JPG,,,,,,,,,,,,,,,,,1,3,13,0,,,,,,,AFSA04.jpg,AFSA09.jpg,AFNE12.jpg,AFNE19.jpg,AFNE19.jpg,FN,3,num_4,32,num_8,0.766810122761,,,2017_Sep_25_1749,60.0060433462,FEMA4ImagesEEG,001,101740,
AFNE01.JPG,AFNE01.JPG,AFNE01.JPG,AFNE01.JPG,AFNE01.JPG,AFNE01.JPG,,,,,,,,,,,,,,,,,1,4,14,7,,,,,,,AFSA16.jpg,AFNE03.jpg,AFSA09.jpg,AFNE18.jpg,AFNE18.jpg,FN,3,num_4,32,num_2,1.11673798843,,,2017_Sep_25_1749,60.0060433462,FEMA4ImagesEEG,001,101740,
AFNE01.JPG,AFNE01.JPG,AFNE01.JPG,AFNE01.JPG,AFNE01.JPG,AFNE01.JPG,,,,,,,,,,,,,,,,,1,5,15,2,,,,,,,AFNE17.jpg,AFSA07.jpg,AFSA05.jpg,AFNE04.jpg,AFNE17.jpg,FN,3,num_8,32,num_6,0.783491147915,,,2017_Sep_25_1749,60.0060433462,FEMA4ImagesEEG,001,101740,
AFNE01.JPG,AFNE01.JPG,AFNE01.JPG,AFNE01.JPG,AFNE01.JPG,AFNE01.JPG,,,,,,,,,,,,,,,,,1,6,16,9,,,,,,,AFNE10.jpg,AFNE15.jpg,AFSA10.jpg,AFSA09.jpg,AFNE10.jpg,FN,3,num_8,32,num_4,0.233503881318,,,2017_Sep_25_1749,60.0060433462,FEMA4ImagesEEG,001,101740,
AFNE01.JPG,AFNE01.JPG,AFNE01.JPG,AFNE01.JPG,AFNE01.JPG,AFNE01.JPG,,,,,,,,,,,,,,,,,1,7,17,5,,,,,,,AFNE15.jpg,AFSA05.jpg,AFNE06.jpg,AFSA19.jpg,AFNE06.jpg,FN,3,num_2,32,num_8,0.81676339102,,,2017_Sep_25_1749,60.0060433462,FEMA4ImagesEEG,001,101740,
AFNE01.JPG,AFNE01.JPG,AFNE01.JPG,AFNE01.JPG,AFNE01.JPG,AFNE01.JPG,,,,,,,,,,,,,,,,,1,8,18,4,,,,,,,AFSA17.jpg,AFNE16.jpg,AFSA13.jpg,AFNE20.jpg,AFNE16.jpg,FN,3,num_6,32,num_2,0.983434120426,,,2017_Sep_25_1749,60.0060433462,FEMA4ImagesEEG,001,101740,
AFNE01.JPG,AFNE01.JPG,AFNE01.JPG,AFNE01.JPG,AFNE01.JPG,AFNE01.JPG,,,,,,,,,,,,,,,,,1,9,19,3,,,,,,,AFSA19.jpg,AFSA11.jpg,AFNE01.jpg,AFNE03.jpg,AFSA11.jpg,FS,4,num_6,16,num_6,0.883440342732,,,2017_Sep_25_1749,60.0060433462,FEMA4ImagesEEG,001,101740,
AFNE01.JPG,AFNE01.JPG,AFNE01.JPG,AFNE01.JPG,AFNE01.JPG,AFNE01.JPG,,,,,,,,,,,,,,,,,2,0,20,2,,,,,,,AFNE18.jpg,AFNE05.jpg,AFSA06.jpg,AFSA17.jpg,AFNE18.jpg,FN,3,num_8,16,num_8,0.266666110721,,,2017_Sep_25_1749,60.0060433462,FEMA4ImagesEEG,001,101740,
AFNE01.JPG,AFNE01.JPG,AFNE01.JPG,AFNE01.JPG,AFNE01.JPG,AFNE01.JPG,,,,,,,,,,,,,,,,,2,1,21,9,,,,,,,AFNE07.jpg,AFNE03.jpg,AFSA03.jpg,AFSA13.jpg,AFSA03.jpg,FS,4,num_2,32,num_4,0.366820578929,,,2017_Sep_25_1749,60.0060433462,FEMA4ImagesEEG,001,101740,
AFNE01.JPG,AFNE01.JPG,AFNE01.JPG,AFNE01.JPG,AFNE01.JPG,AFNE01.JPG,,,,,,,,,,,,,,,,,2,2,22,3,,,,,,,AFNE17.jpg,AFSA01.jpg,AFSA16.jpg,AFNE01.jpg,AFSA01.jpg,FS,4,num_6,32,num_2,0.350134421955,,,2017_Sep_25_1749,60.0060433462,FEMA4ImagesEEG,001,101740,
AFNE01.JPG,AFNE01.JPG,AFNE01.JPG,AFNE01.JPG,AFNE01.JPG,AFNE01.JPG,,,,,,,,,,,,,,,,,2,3,23,7,,,,,,,AFNE10.jpg,AFNE01.jpg,AFSA04.jpg,AFSA16.jpg,AFNE10.jpg,FN,3,num_8,16,num_8,0.350158477435,,,2017_Sep_25_1749,60.0060433462,FEMA4ImagesEEG,001,101740,
AFNE01.JPG,AFNE01.JPG,AFNE01.JPG,AFNE01.JPG,AFNE01.JPG,AFNE01.JPG,,,,,,,,,,,,,,,,,2,4,24,6,,,,,,,AFNE17.jpg,AFSA09.jpg,AFSA12.jpg,AFNE20.jpg,AFSA09.jpg,FS,4,num_6,32,num_4,0.61683100299,,,2017_Sep_25_1749,60.0060433462,FEMA4ImagesEEG,001,101740,
AFNE01.JPG,AFNE01.JPG,AFNE01.JPG,AFNE01.JPG,AFNE01.JPG,AFNE01.JPG,,,,,,,,,,,,,,,,,2,5,25,5,,,,,,,AFNE06.jpg,AFNE07.jpg,AFSA12.jpg,AFSA16.jpg,AFNE07.jpg,FN,3,num_6,16,num_6,0.400162743288,,,2017_Sep_25_1749,60.0060433462,FEMA4ImagesEEG,001,101740,
AFNE01.JPG,AFNE01.JPG,AFNE01.JPG,AFNE01.JPG,AFNE01.JPG,AFNE01.JPG,,,,,,,,,,,,,,,,,2,6,26,8,,,,,,,AFNE16.jpg,AFSA11.jpg,AFNE17.jpg,AFSA02.jpg,AFSA11.jpg,FS,4,num_6,32,num_2,0.416812015173,,,2017_Sep_25_1749,60.0060433462,FEMA4ImagesEEG,001,101740,
AFNE01.JPG,AFNE01.JPG,AFNE01.JPG,AFNE01.JPG,AFNE01.JPG,AFNE01.JPG,,,,,,,,,,,,,,,,,2,7,27,4,,,,,,,AFSA08.jpg,AFNE09.jpg,AFNE10.jpg,AFSA05.jpg,AFNE10.jpg,FN,3,num_2,32,num_8,1.16691192554,,,2017_Sep_25_1749,60.0060433462,FEMA4ImagesEEG,001,101740,
AFNE01.JPG,AFNE01.JPG,AFNE01.JPG,AFNE01.JPG,AFNE01.JPG,AFNE01.JPG,,,,,,,,,,,,,,,,,2,8,28,1,,,,,,,AFNE17.jpg,AFSA06.jpg,AFNE04.jpg,AFSA19.jpg,AFSA19.jpg,FS,4,num_4,32,num_2,0.466833280225,,,2017_Sep_25_1749,60.0060433462,FEMA4ImagesEEG,001,101740,
AFNE01.JPG,AFNE01.JPG,AFNE01.JPG,AFNE01.JPG,AFNE01.JPG,AFNE01.JPG,,,,,,,,,,,,,,,,,2,9,29,0,,,,,,,AFNE07.jpg,AFNE03.jpg,AFSA17.jpg,AFSA10.jpg,AFNE03.jpg,FN,3,num_6,16,num_6,0.966747642728,,,2017_Sep_25_1749,60.0060433462,FEMA4ImagesEEG,001,101740,
AFNE01.JPG,AFNE01.JPG,AFNE01.JPG,AFNE01.JPG,AFNE01.JPG,AFNE01.JPG,,,,,,,,,,,,,,,,,3,0,30,8,,,,,,,AFNE07.jpg,AFNE06.jpg,AFSA12.jpg,AFSA20.jpg,AFNE07.jpg,FN,3,num_8,16,num_8,0.833455000597,,,2017_Sep_25_1749,60.0060433462,FEMA4ImagesEEG,001,101740,
AFNE01.JPG,AFNE01.JPG,AFNE01.JPG,AFNE01.JPG,AFNE01.JPG,AFNE01.JPG,,,,,,,,,,,,,,,,,3,1,31,6,,,,,,,AFSA14.jpg,AFSA03.jpg,AFNE15.jpg,AFNE07.jpg,AFNE07.jpg,FN,3,num_4,16,num_4,0.500192443782,,,2017_Sep_25_1749,60.0060433462,FEMA4ImagesEEG,001,101740,
AFNE01.JPG,AFNE01.JPG,AFNE01.JPG,AFNE01.JPG,AFNE01.JPG,AFNE01.JPG,,,,,,,,,,,,,,,,,3,2,32,2,,,,,,,AFSA17.jpg,AFNE19.jpg,AFSA01.jpg,AFNE12.jpg,AFNE12.jpg,FN,3,num_4,16,num_4,0.833440888033,,,2017_Sep_25_1749,60.0060433462,FEMA4ImagesEEG,001,101740,
AFNE01.JPG,AFNE01.JPG,AFNE01.JPG,AFNE01.JPG,AFNE01.JPG,AFNE01.JPG,,,,,,,,,,,,,,,,,3,3,33,1,,,,,,,AFSA08.jpg,AFNE13.jpg,AFNE19.jpg,AFSA03.jpg,AFSA08.jpg,FS,4,num_8,32,num_2,0.533533004462,,,2017_Sep_25_1749,60.0060433462,FEMA4ImagesEEG,001,101740,
AFNE01.JPG,AFNE01.JPG,AFNE01.JPG,AFNE01.JPG,AFNE01.JPG,AFNE01.JPG,,,,,,,,,,,,,,,,,3,4,34,0,,,,,,,AFNE06.jpg,AFSA18.jpg,AFNE18.jpg,AFSA05.jpg,AFNE06.jpg,FN,3,num_8,32,num_2,0.833184617048,,,2017_Sep_25_1749,60.0060433462,FEMA4ImagesEEG,001,101740,
AFNE01.JPG,AFNE01.JPG,AFNE01.JPG,AFNE01.JPG,AFNE01.JPG,AFNE01.JPG,,,,,,,,,,,,,,,,,3,5,35,5,,,,,,,AFNE06.jpg,AFNE19.jpg,AFSA10.jpg,AFSA19.jpg,AFNE19.jpg,FN,3,num_6,32,num_8,1.43338655477,,,2017_Sep_25_1749,60.0060433462,FEMA4ImagesEEG,001,101740,
AFNE01.JPG,AFNE01.JPG,AFNE01.JPG,AFNE01.JPG,AFNE01.JPG,AFNE01.JPG,,,,,,,,,,,,,,,,,3,6,36,7,,,,,,,AFNE08.jpg,AFSA05.jpg,AFNE13.jpg,AFSA14.jpg,AFNE13.jpg,FN,3,num_2,32,num_8,1.26680146286,,,2017_Sep_25_1749,60.0060433462,FEMA4ImagesEEG,001,101740,
AFNE01.JPG,AFNE01.JPG,AFNE01.JPG,AFNE01.JPG,AFNE01.JPG,AFNE01.JPG,,,,,,,,,,,,,,,,,3,7,37,4,,,,,,,AFSA17.jpg,AFSA07.jpg,AFNE09.jpg,AFNE06.jpg,AFNE06.jpg,FN,3,num_4,16,num_4,0.383498075884,,,2017_Sep_25_1749,60.0060433462,FEMA4ImagesEEG,001,101740,
AFNE01.JPG,AFNE01.JPG,AFNE01.JPG,AFNE01.JPG,AFNE01.JPG,AFNE01.JPG,,,,,,,,,,,,,,,,,3,8,38,3,,,,,,,AFNE18.jpg,AFSA19.jpg,AFNE14.jpg,AFSA01.jpg,AFNE14.jpg,FN,3,num_2,32,num_6,0.933485021756,,,2017_Sep_25_1749,60.0060433462,FEMA4ImagesEEG,001,101740,
AFNE01.JPG,AFNE01.JPG,AFNE01.JPG,AFNE01.JPG,AFNE01.JPG,AFNE01.JPG,,,,,,,,,,,,,,,,,3,9,39,9,,,,,,,AFNE19.jpg,AFSA06.jpg,AFNE17.jpg,AFSA16.jpg,AFNE19.jpg,FN,3,num_8,16,num_8,0.383342196408,,,2017_Sep_25_1749,60.0060433462,FEMA4ImagesEEG,001,101740,
AFNE01.JPG,AFNE01.JPG,AFNE01.JPG,AFNE01.JPG,AFNE01.JPG,AFNE01.JPG,,,,,,,,,,,,,,,,,4,0,40,4,,,,,,,AFNE17.jpg,AFNE18.jpg,AFSA19.jpg,AFSA12.jpg,AFNE17.jpg,FN,3,num_8,32,num_4,0.566779588407,,,2017_Sep_25_1749,60.0060433462,FEMA4ImagesEEG,001,101740,
AFNE01.JPG,AFNE01.JPG,AFNE01.JPG,AFNE01.JPG,AFNE01.JPG,AFNE01.JPG,,,,,,,,,,,,,,,,,4,1,41,6,,,,,,,AFSA04.jpg,AFSA17.jpg,AFNE11.jpg,AFNE03.jpg,AFSA04.jpg,FS,4,num_8,16,num_8,0.583357014635,,,2017_Sep_25_1749,60.0060433462,FEMA4ImagesEEG,001,101740,
AFNE01.JPG,AFNE01.JPG,AFNE01.JPG,AFNE01.JPG,AFNE01.JPG,AFNE01.JPG,,,,,,,,,,,,,,,,,4,2,42,8,,,,,,,AFNE01.jpg,AFSA01.jpg,AFNE13.jpg,AFSA05.jpg,AFNE13.jpg,FN,3,num_2,32,num_8,0.45021319564,,,2017_Sep_25_1749,60.0060433462,FEMA4ImagesEEG,001,101740,
AFNE01.JPG,AFNE01.JPG,AFNE01.JPG,AFNE01.JPG,AFNE01.JPG,AFNE01.JPG,,,,,,,,,,,,,,,,,4,3,43,9,,,,,,,AFSA12.jpg,AFNE03.jpg,AFNE16.jpg,AFSA09.jpg,AFSA09.jpg,FS,4,num_4,32,num_2,0.250197094458,,,2017_Sep_25_1749,60.0060433462,FEMA4ImagesEEG,001,101740,
AFNE01.JPG,AFNE01.JPG,AFNE01.JPG,AFNE01.JPG,AFNE01.JPG,AFNE01.JPG,,,,,,,,,,,,,,,,,4,4,44,2,,,,,,,AFSA07.jpg,AFNE01.jpg,AFSA20.jpg,AFNE07.jpg,AFSA20.jpg,FS,4,num_2,32,num_6,0.533512477065,,,2017_Sep_25_1749,60.0060433462,FEMA4ImagesEEG,001,101740,
AFNE01.JPG,AFNE01.JPG,AFNE01.JPG,AFNE01.JPG,AFNE01.JPG,AFNE01.JPG,,,,,,,,,,,,,,,,,4,5,45,7,,,,,,,AFSA04.jpg,AFNE06.jpg,AFNE08.jpg,AFSA09.jpg,AFNE06.jpg,FN,3,num_6,32,num_2,0.450126916694,,,2017_Sep_25_1749,60.0060433462,FEMA4ImagesEEG,001,101740,
AFNE01.JPG,AFNE01.JPG,AFNE01.JPG,AFNE01.JPG,AFNE01.JPG,AFNE01.JPG,,,,,,,,,,,,,,,,,4,6,46,3,,,,,,,AFSA19.jpg,AFNE13.jpg,AFNE11.jpg,AFSA15.jpg,AFNE11.jpg,FN,3,num_2,32,num_8,0.349915356841,,,2017_Sep_25_1749,60.0060433462,FEMA4ImagesEEG,001,101740,
AFNE01.JPG,AFNE01.JPG,AFNE01.JPG,AFNE01.JPG,AFNE01.JPG,AFNE01.JPG,,,,,,,,,,,,,,,,,4,7,47,1,,,,,,,AFSA15.jpg,AFNE08.jpg,AFSA02.jpg,AFNE06.jpg,AFSA15.jpg,FS,4,num_8,32,num_2,0.550152447482,,,2017_Sep_25_1749,60.0060433462,FEMA4ImagesEEG,001,101740,
AFNE01.JPG,AFNE01.JPG,AFNE01.JPG,AFNE01.JPG,AFNE01.JPG,AFNE01.JPG,,,,,,,,,,,,,,,,,4,8,48,0,,,,,,,AFNE02.jpg,AFSA16.jpg,AFSA05.jpg,AFNE08.jpg,AFNE08.jpg,FN,3,num_4,32,num_8,1.11676428909,,,2017_Sep_25_1749,60.0060433462,FEMA4ImagesEEG,001,101740,
AFNE01.JPG,AFNE01.JPG,AFNE01.JPG,AFNE01.JPG,AFNE01.JPG,AFNE01.JPG,,,,,,,,,,,,,,,,,4,9,49,5,,,,,,,AFSA12.jpg,AFNE11.jpg,AFSA11.jpg,AFNE08.jpg,AFSA11.jpg,FS,4,num_2,32,num_6,0.433506832051,,,2017_Sep_25_1749,60.0060433462,FEMA4ImagesEEG,001,101740,
AFNE01.JPG,AFNE01.JPG,AFNE01.JPG,AFNE01.JPG,AFNE01.JPG,AFNE01.JPG,,,,,,,,,,,,,,,,,5,0,50,5,,,,,,,AFSA18.jpg,AFNE04.jpg,AFSA20.jpg,AFNE20.jpg,AFNE04.jpg,FN,3,num_6,32,num_2,0.450257457676,,,2017_Sep_25_1749,60.0060433462,FEMA4ImagesEEG,001,101740,
AFNE01.JPG,AFNE01.JPG,AFNE01.JPG,AFNE01.JPG,AFNE01.JPG,AFNE01.JPG,,,,,,,,,,,,,,,,,5,1,51,9,,,,,,,AFNE20.jpg,AFSA12.jpg,AFSA19.jpg,AFNE17.jpg,AFNE20.jpg,FN,3,num_8,32,num_2,0.600180448091,,,2017_Sep_25_1749,60.0060433462,FEMA4ImagesEEG,001,101740,
AFNE01.JPG,AFNE01.JPG,AFNE01.JPG,AFNE01.JPG,AFNE01.JPG,AFNE01.JPG,,,,,,,,,,,,,,,,,5,2,52,4,,,,,,,AFNE19.jpg,AFSA18.jpg,AFSA11.jpg,AFNE06.jpg,AFNE06.jpg,FN,3,num_4,16,num_4,0.433533132717,,,2017_Sep_25_1749,60.0060433462,FEMA4ImagesEEG,001,101740,
AFNE01.JPG,AFNE01.JPG,AFNE01.JPG,AFNE01.JPG,AFNE01.JPG,AFNE01.JPG,,,,,,,,,,,,,,,,,5,3,53,3,,,,,,,AFNE18.jpg,AFSA11.jpg,AFNE15.jpg,AFSA15.jpg,AFNE15.jpg,FN,3,num_2,16,num_2,0.71676512307,,,2017_Sep_25_1749,60.0060433462,FEMA4ImagesEEG,001,101740,
AFNE01.JPG,AFNE01.JPG,AFNE01.JPG,AFNE01.JPG,AFNE01.JPG,AFNE01.JPG,,,,,,,,,,,,,,,,,5,4,54,1,,,,,,,AFSA13.jpg,AFNE04.jpg,AFNE09.jpg,AFSA11.jpg,AFSA11.jpg,FS,4,num_4,32,num_2,0.383476907038,,,2017_Sep_25_1749,60.0060433462,FEMA4ImagesEEG,001,101740,
AFNE01.JPG,AFNE01.JPG,AFNE01.JPG,AFNE01.JPG,AFNE01.JPG,AFNE01.JPG,,,,,,,,,,,,,,,,,5,5,55,8,,,,,,,AFNE14.jpg,AFSA05.jpg,AFSA03.jpg,AFNE07.jpg,AFNE07.jpg,FN,3,num_4,32,num_2,0.600144525233,,,2017_Sep_25_1749,60.0060433462,FEMA4ImagesEEG,001,101740,
AFNE01.JPG,AFNE01.JPG,AFNE01.JPG,AFNE01.JPG,AFNE01.JPG,AFNE01.JPG,,,,,,,,,,,,,,,,,5,6,56,0,,,,,,,AFSA11.jpg,AFNE14.jpg,AFNE07.jpg,AFSA14.jpg,AFSA11.jpg,FS,4,num_8,32,num_6,0.600119828305,,,2017_Sep_25_1749,60.0060433462,FEMA4ImagesEEG,001,101740,
AFNE01.JPG,AFNE01.JPG,AFNE01.JPG,AFNE01.JPG,AFNE01.JPG,AFNE01.JPG,,,,,,,,,,,,,,,,,5,7,57,6,,,,,,,AFNE06.jpg,AFNE14.jpg,AFSA10.jpg,AFSA06.jpg,AFNE14.jpg,FN,3,num_6,16,num_6,0.65013371635,,,2017_Sep_25_1749,60.0060433462,FEMA4ImagesEEG,001,101740,
AFNE01.JPG,AFNE01.JPG,AFNE01.JPG,AFNE01.JPG,AFNE01.JPG,AFNE01.JPG,,,,,,,,,,,,,,,,,5,8,58,7,,,,,,,AFSA18.jpg,AFNE04.jpg,AFSA13.jpg,AFNE15.jpg,AFSA13.jpg,FS,4,num_2,16,num_2,0.850145327102,,,2017_Sep_25_1749,60.0060433462,FEMA4ImagesEEG,001,101740,
AFNE01.JPG,AFNE01.JPG,AFNE01.JPG,AFNE01.JPG,AFNE01.JPG,AFNE01.JPG,,,,,,,,,,,,,,,,,5,9,59,2,,,,,,,AFSA03.jpg,AFNE11.jpg,AFNE12.jpg,AFSA14.jpg,AFSA03.jpg,FS,4,num_8,16,num_8,0.383505132108,,,2017_Sep_25_1749,60.0060433462,FEMA4ImagesEEG,001,101740,
,,,,,,,,,,,,,,,,,,,,,,,,,,,,,,,,,,,,,,,,,,,space,17.549159117,2017_Sep_25_1749,60.0060433462,FEMA4ImagesEEG,001,101740,
AFNE01.JPG,AFNE01.JPG,AFNE01.JPG,AFNE01.JPG,AFNE01.JPG,AFNE01.JPG,,,,,,,,,,,,,,,,,,,,,0,0,0,0,,,AMNE16.jpg,AMSA12.jpg,AMNE09.jpg,AMSA03.jpg,AMNE09.jpg,MN,1,num_2,32,num_8,0.800167682639,,,2017_Sep_25_1749,60.0060433462,FEMA4ImagesEEG,001,101740,
AFNE01.JPG,AFNE01.JPG,AFNE01.JPG,AFNE01.JPG,AFNE01.JPG,AFNE01.JPG,,,,,,,,,,,,,,,,,,,,,0,1,1,6,,,AMNE13.jpg,AMNE15.jpg,AMSA05.jpg,AMSA17.jpg,AMNE13.jpg,MN,1,num_8,32,num_4,0.300176663382,,,2017_Sep_25_1749,60.0060433462,FEMA4ImagesEEG,001,101740,
AFNE01.JPG,AFNE01.JPG,AFNE01.JPG,AFNE01.JPG,AFNE01.JPG,AFNE01.JPG,,,,,,,,,,,,,,,,,,,,,0,2,2,9,,,AMSA18.jpg,AMNE13.jpg,AMSA12.jpg,AMNE17.jpg,AMSA12.jpg,MS,2,num_2,16,num_2,0.700169093907,,,2017_Sep_25_1749,60.0060433462,FEMA4ImagesEEG,001,101740,
AFNE01.JPG,AFNE01.JPG,AFNE01.JPG,AFNE01.JPG,AFNE01.JPG,AFNE01.JPG,,,,,,,,,,,,,,,,,,,,,0,3,3,2,,,AMNE02.jpg,AMNE10.jpg,AMSA20.jpg,AMSA04.jpg,AMSA20.jpg,MS,2,num_2,32,num_6,0.383492302557,,,2017_Sep_25_1749,60.0060433462,FEMA4ImagesEEG,001,101740,
AFNE01.JPG,AFNE01.JPG,AFNE01.JPG,AFNE01.JPG,AFNE01.JPG,AFNE01.JPG,,,,,,,,,,,,,,,,,,,,,0,4,4,4,,,AMSA05.jpg,AMNE12.jpg,AMNE16.jpg,AMSA03.jpg,AMSA03.jpg,MS,2,num_4,32,num_8,0.733455128851,,,2017_Sep_25_1749,60.0060433462,FEMA4ImagesEEG,001,101740,
AFNE01.JPG,AFNE01.JPG,AFNE01.JPG,AFNE01.JPG,AFNE01.JPG,AFNE01.JPG,,,,,,,,,,,,,,,,,,,,,0,5,5,5,,,AMSA08.jpg,AMSA13.jpg,AMNE10.jpg,AMNE03.jpg,AMNE03.jpg,MN,1,num_4,16,num_4,0.650162582868,,,2017_Sep_25_1749,60.0060433462,FEMA4ImagesEEG,001,101740,
AFNE01.JPG,AFNE01.JPG,AFNE01.JPG,AFNE01.JPG,AFNE01.JPG,AFNE01.JPG,,,,,,,,,,,,,,,,,,,,,0,6,6,1,,,AMNE19.jpg,AMSA01.jpg,AMNE11.jpg,AMSA03.jpg,AMNE19.jpg,MN,1,num_8,16,num_8,0.649803675245,,,2017_Sep_25_1749,60.0060433462,FEMA4ImagesEEG,001,101740,
AFNE01.JPG,AFNE01.JPG,AFNE01.JPG,AFNE01.JPG,AFNE01.JPG,AFNE01.JPG,,,,,,,,,,,,,,,,,,,,,0,7,7,3,,,AMNE07.jpg,AMSA20.jpg,AMNE14.jpg,AMSA02.jpg,AMNE07.jpg,MN,1,num_8,16,num_8,0.500174803077,,,2017_Sep_25_1749,60.0060433462,FEMA4ImagesEEG,001,101740,
AFNE01.JPG,AFNE01.JPG,AFNE01.JPG,AFNE01.JPG,AFNE01.JPG,AFNE01.JPG,,,,,,,,,,,,,,,,,,,,,0,8,8,7,,,AMSA08.jpg,AMNE02.jpg,AMSA17.jpg,AMNE18.jpg,AMSA08.jpg,MS,2,num_8,32,num_6,0.566751684062,,,2017_Sep_25_1749,60.0060433462,FEMA4ImagesEEG,001,101740,
AFNE01.JPG,AFNE01.JPG,AFNE01.JPG,AFNE01.JPG,AFNE01.JPG,AFNE01.JPG,,,,,,,,,,,,,,,,,,,,,0,9,9,8,,,AMNE07.jpg,AMNE02.jpg,AMSA03.jpg,AMSA08.jpg,AMSA03.jpg,MS,2,num_2,32,num_8,0.483486400975,,,2017_Sep_25_1749,60.0060433462,FEMA4ImagesEEG,001,101740,
AFNE01.JPG,AFNE01.JPG,AFNE01.JPG,AFNE01.JPG,AFNE01.JPG,AFNE01.JPG,,,,,,,,,,,,,,,,,,,,,1,0,10,4,,,AMSA10.jpg,AMSA19.jpg,AMNE15.jpg,AMNE06.jpg,AMSA10.jpg,MS,2,num_8,32,num_2,0.616743761755,,,2017_Sep_25_1749,60.0060433462,FEMA4ImagesEEG,001,101740,
AFNE01.JPG,AFNE01.JPG,AFNE01.JPG,AFNE01.JPG,AFNE01.JPG,AFNE01.JPG,,,,,,,,,,,,,,,,,,,,,1,1,11,0,,,AMNE04.jpg,AMSA05.jpg,AMSA15.jpg,AMNE15.jpg,AMNE15.jpg,MN,1,num_4,16,num_4,0.666778497922,,,2017_Sep_25_1749,60.0060433462,FEMA4ImagesEEG,001,101740,
AFNE01.JPG,AFNE01.JPG,AFNE01.JPG,AFNE01.JPG,AFNE01.JPG,AFNE01.JPG,,,,,,,,,,,,,,,,,,,,,1,2,12,2,,,AMSA10.jpg,AMSA04.jpg,AMNE03.jpg,AMNE13.jpg,AMSA10.jpg,MS,2,num_8,16,num_8,0.666807685164,,,2017_Sep_25_1749,60.0060433462,FEMA4ImagesEEG,001,101740,
AFNE01.JPG,AFNE01.JPG,AFNE01.JPG,AFNE01.JPG,AFNE01.JPG,AFNE01.JPG,,,,,,,,,,,,,,,,,,,,,1,3,13,8,,,AMSA16.jpg,AMSA08.jpg,AMNE15.jpg,AMNE04.jpg,AMNE15.jpg,MN,1,num_2,16,num_2,0.700093399384,,,2017_Sep_25_1749,60.0060433462,FEMA4ImagesEEG,001,101740,
AFNE01.JPG,AFNE01.JPG,AFNE01.JPG,AFNE01.JPG,AFNE01.JPG,AFNE01.JPG,,,,,,,,,,,,,,,,,,,,,1,4,14,1,,,AMSA11.jpg,AMNE12.jpg,AMSA01.jpg,AMNE11.jpg,AMSA01.jpg,MS,2,num_2,32,num_8,1.21676865121,,,2017_Sep_25_1749,60.0060433462,FEMA4ImagesEEG,001,101740,
AFNE01.JPG,AFNE01.JPG,AFNE01.JPG,AFNE01.JPG,AFNE01.JPG,AFNE01.JPG,,,,,,,,,,,,,,,,,,,,,1,5,15,6,,,AMSA19.jpg,AMSA05.jpg,AMNE04.jpg,AMNE01.jpg,AMNE01.jpg,MN,1,num_4,32,num_2,1.45008297538,,,2017_Sep_25_1749,60.0060433462,FEMA4ImagesEEG,001,101740,
AFNE01.JPG,AFNE01.JPG,AFNE01.JPG,AFNE01.JPG,AFNE01.JPG,AFNE01.JPG,,,,,,,,,,,,,,,,,,,,,1,6,16,3,,,AMNE02.jpg,AMSA16.jpg,AMSA20.jpg,AMNE13.jpg,AMSA20.jpg,MS,2,num_2,16,num_2,1.65005096555,,,2017_Sep_25_1749,60.0060433462,FEMA4ImagesEEG,001,101740,
AFNE01.JPG,AFNE01.JPG,AFNE01.JPG,AFNE01.JPG,AFNE01.JPG,AFNE01.JPG,,,,,,,,,,,,,,,,,,,,,1,7,17,5,,,AMNE05.jpg,AMSA09.jpg,AMSA20.jpg,AMNE11.jpg,AMNE11.jpg,MN,1,num_4,16,num_4,1.86675611028,,,2017_Sep_25_1749,60.0060433462,FEMA4ImagesEEG,001,101740,
AFNE01.JPG,AFNE01.JPG,AFNE01.JPG,AFNE01.JPG,AFNE01.JPG,AFNE01.JPG,,,,,,,,,,,,,,,,,,,,,1,8,18,9,,,AMNE13.jpg,AMNE20.jpg,AMSA07.jpg,AMSA14.jpg,AMNE20.jpg,MN,1,num_6,32,num_4,0.416892520792,,,2017_Sep_25_1749,60.0060433462,FEMA4ImagesEEG,001,101740,
AFNE01.JPG,AFNE01.JPG,AFNE01.JPG,AFNE01.JPG,AFNE01.JPG,AFNE01.JPG,,,,,,,,,,,,,,,,,,,,,1,9,19,7,,,AMNE13.jpg,AMNE15.jpg,AMSA17.jpg,AMSA14.jpg,AMNE15.jpg,MN,1,num_6,32,num_2,0.916742735426,,,2017_Sep_25_1749,60.0060433462,FEMA4ImagesEEG,001,101740,
AFNE01.JPG,AFNE01.JPG,AFNE01.JPG,AFNE01.JPG,AFNE01.JPG,AFNE01.JPG,,,,,,,,,,,,,,,,,,,,,2,0,20,8,,,AMNE12.jpg,AMSA02.jpg,AMNE08.jpg,AMSA10.jpg,AMSA02.jpg,MS,2,num_6,32,num_8,0.683483578498,,,2017_Sep_25_1749,60.0060433462,FEMA4ImagesEEG,001,101740,
AFNE01.JPG,AFNE01.JPG,AFNE01.JPG,AFNE01.JPG,AFNE01.JPG,AFNE01.JPG,,,,,,,,,,,,,,,,,,,,,2,1,21,4,,,AMSA05.jpg,AMSA14.jpg,AMNE07.jpg,AMNE06.jpg,AMNE06.jpg,MN,1,num_4,32,num_6,1.81667294248,,,2017_Sep_25_1749,60.0060433462,FEMA4ImagesEEG,001,101740,
AFNE01.JPG,AFNE01.JPG,AFNE01.JPG,AFNE01.JPG,AFNE01.JPG,AFNE01.JPG,,,,,,,,,,,,,,,,,,,,,2,2,22,3,,,AMNE06.jpg,AMNE07.jpg,AMSA07.jpg,AMSA18.jpg,AMNE06.jpg,MN,1,num_8,32,num_6,0.300012765394,,,2017_Sep_25_1749,60.0060433462,FEMA4ImagesEEG,001,101740,
AFNE01.JPG,AFNE01.JPG,AFNE01.JPG,AFNE01.JPG,AFNE01.JPG,AFNE01.JPG,,,,,,,,,,,,,,,,,,,,,2,3,23,2,,,AMNE07.jpg,AMSA18.jpg,AMNE19.jpg,AMSA07.jpg,AMNE07.jpg,MN,1,num_8,32,num_4,0.583477291977,,,2017_Sep_25_1749,60.0060433462,FEMA4ImagesEEG,001,101740,
AFNE01.JPG,AFNE01.JPG,AFNE01.JPG,AFNE01.JPG,AFNE01.JPG,AFNE01.JPG,,,,,,,,,,,,,,,,,,,,,2,4,24,0,,,AMSA09.jpg,AMNE14.jpg,AMNE08.jpg,AMSA16.jpg,AMNE08.jpg,MN,1,num_2,32,num_8,0.950214799319,,,2017_Sep_25_1749,60.0060433462,FEMA4ImagesEEG,001,101740,
AFNE01.JPG,AFNE01.JPG,AFNE01.JPG,AFNE01.JPG,AFNE01.JPG,AFNE01.JPG,,,,,,,,,,,,,,,,,,,,,2,5,25,1,,,AMNE07.jpg,AMSA02.jpg,AMNE11.jpg,AMSA01.jpg,AMSA01.jpg,MS,2,num_4,32,num_2,1.05014571204,,,2017_Sep_25_1749,60.0060433462,FEMA4ImagesEEG,001,101740,
AFNE01.JPG,AFNE01.JPG,AFNE01.JPG,AFNE01.JPG,AFNE01.JPG,AFNE01.JPG,,,,,,,,,,,,,,,,,,,,,2,6,26,7,,,AMSA05.jpg,AMNE03.jpg,AMSA18.jpg,AMNE02.jpg,AMNE03.jpg,MN,1,num_6,32,num_4,1.00015235133,,,2017_Sep_25_1749,60.0060433462,FEMA4ImagesEEG,001,101740,
AFNE01.JPG,AFNE01.JPG,AFNE01.JPG,AFNE01.JPG,AFNE01.JPG,AFNE01.JPG,,,,,,,,,,,,,,,,,,,,,2,7,27,9,,,AMNE19.jpg,AMSA07.jpg,AMNE18.jpg,AMSA05.jpg,AMNE18.jpg,MN,1,num_2,32,num_4,0.66677400755,,,2017_Sep_25_1749,60.0060433462,FEMA4ImagesEEG,001,101740,
AFNE01.JPG,AFNE01.JPG,AFNE01.JPG,AFNE01.JPG,AFNE01.JPG,AFNE01.JPG,,,,,,,,,,,,,,,,,,,,,2,8,28,6,,,AMSA19.jpg,AMSA13.jpg,AMNE02.jpg,AMNE15.jpg,AMSA13.jpg,MS,2,num_6,32,num_4,0.733462185075,,,2017_Sep_25_1749,60.0060433462,FEMA4ImagesEEG,001,101740,
AFNE01.JPG,AFNE01.JPG,AFNE01.JPG,AFNE01.JPG,AFNE01.JPG,AFNE01.JPG,,,,,,,,,,,,,,,,,,,,,2,9,29,5,,,AMNE16.jpg,AMNE14.jpg,AMSA17.jpg,AMSA01.jpg,AMSA01.jpg,MS,2,num_4,32,num_6,0.533516325988,,,2017_Sep_25_1749,60.0060433462,FEMA4ImagesEEG,001,101740,
AFNE01.JPG,AFNE01.JPG,AFNE01.JPG,AFNE01.JPG,AFNE01.JPG,AFNE01.JPG,,,,,,,,,,,,,,,,,,,,,3,0,30,2,,,AMSA18.jpg,AMNE10.jpg,AMSA08.jpg,AMNE02.jpg,AMSA18.jpg,MS,2,num_8,16,num_8,0.36680774932,,,2017_Sep_25_1749,60.0060433462,FEMA4ImagesEEG,001,101740,
AFNE01.JPG,AFNE01.JPG,AFNE01.JPG,AFNE01.JPG,AFNE01.JPG,AFNE01.JPG,,,,,,,,,,,,,,,,,,,,,3,1,31,3,,,AMSA15.jpg,AMNE02.jpg,AMNE13.jpg,AMSA19.jpg,AMNE13.jpg,MN,1,num_2,16,num_2,0.58337016491,,,2017_Sep_25_1749,60.0060433462,FEMA4ImagesEEG,001,101740,
AFNE01.JPG,AFNE01.JPG,AFNE01.JPG,AFNE01.JPG,AFNE01.JPG,AFNE01.JPG,,,,,,,,,,,,,,,,,,,,,3,2,32,7,,,AMNE04.jpg,AMNE01.jpg,AMSA15.jpg,AMSA14.jpg,AMNE04.jpg,MN,1,num_8,32,num_2,1.10006722703,,,2017_Sep_25_1749,60.0060433462,FEMA4ImagesEEG,001,101740,
AFNE01.JPG,AFNE01.JPG,AFNE01.JPG,AFNE01.JPG,AFNE01.JPG,AFNE01.JPG,,,,,,,,,,,,,,,,,,,,,3,3,33,0,,,AMSA09.jpg,AMNE13.jpg,AMSA20.jpg,AMNE20.jpg,AMSA09.jpg,MS,2,num_8,32,num_4,0.616785778664,,,2017_Sep_25_1749,60.0060433462,FEMA4ImagesEEG,001,101740,
AFNE01.JPG,AFNE01.JPG,AFNE01.JPG,AFNE01.JPG,AFNE01.JPG,AFNE01.JPG,,,,,,,,,,,,,,,,,,,,,3,4,34,4,,,AMSA18.jpg,AMSA15.jpg,AMNE11.jpg,AMNE06.jpg,AMSA15.jpg,MS,2,num_6,32,num_2,1.1500833602,,,2017_Sep_25_1749,60.0060433462,FEMA4ImagesEEG,001,101740,
AFNE01.JPG,AFNE01.JPG,AFNE01.JPG,AFNE01.JPG,AFNE01.JPG,AFNE01.JPG,,,,,,,,,,,,,,,,,,,,,3,5,35,6,,,AMSA04.jpg,AMNE09.jpg,AMSA13.jpg,AMNE20.jpg,AMSA13.jpg,MS,2,num_2,32,num_6,2.84998046694,,,2017_Sep_25_1749,60.0060433462,FEMA4ImagesEEG,001,101740,
AFNE01.JPG,AFNE01.JPG,AFNE01.JPG,AFNE01.JPG,AFNE01.JPG,AFNE01.JPG,,,,,,,,,,,,,,,,,,,,,3,6,36,8,,,AMNE18.jpg,AMNE07.jpg,AMSA05.jpg,AMSA10.jpg,AMNE07.jpg,MN,1,num_6,16,num_6,0.733438129653,,,2017_Sep_25_1749,60.0060433462,FEMA4ImagesEEG,001,101740,
AFNE01.JPG,AFNE01.JPG,AFNE01.JPG,AFNE01.JPG,AFNE01.JPG,AFNE01.JPG,,,,,,,,,,,,,,,,,,,,,3,7,37,9,,,AMSA06.jpg,AMSA11.jpg,AMNE06.jpg,AMNE17.jpg,AMSA06.jpg,MS,2,num_8,16,num_8,0.750119154749,,,2017_Sep_25_1749,60.0060433462,FEMA4ImagesEEG,001,101740,
AFNE01.JPG,AFNE01.JPG,AFNE01.JPG,AFNE01.JPG,AFNE01.JPG,AFNE01.JPG,,,,,,,,,,,,,,,,,,,,,3,8,38,1,,,AMSA13.jpg,AMSA03.jpg,AMNE13.jpg,AMNE18.jpg,AMSA03.jpg,MS,2,num_6,16,num_6,0.81680476648,,,2017_Sep_25_1749,60.0060433462,FEMA4ImagesEEG,001,101740,
