IPosition2,IPosition3,IPosition1,IPosition6,IPosition4,IPosition5,TrialsF1.thisRepN,TrialsF1.thisTrialN,TrialsF1.thisN,TrialsF1.thisIndex,TrialsM1.thisRepN,TrialsM1.thisTrialN,TrialsM1.thisN,TrialsM1.thisIndex,TrialsF2.thisRepN,TrialsF2.thisTrialN,TrialsF2.thisN,TrialsF2.thisIndex,TrialsM2.thisRepN,TrialsM2.thisTrialN,TrialsM2.thisN,TrialsM2.thisIndex,TrialsF3.thisRepN,TrialsF3.thisTrialN,TrialsF3.thisN,TrialsF3.thisIndex,TrialsM3.thisRepN,TrialsM3.thisTrialN,TrialsM3.thisN,TrialsM3.thisIndex,InstrKey_resp.keys,InstrKey_resp.rt,Image0 _Position,Image1 _Position,Image2 _Position,Image3 _Position,Center_image,condition,code,correct_answer,accuracy,Key_Resp.keys,Key_Resp.rt,BreakKey_resp.keys,BreakKey_resp.rt,date,frameRate,expName,session,participant,
,,,,,,,,,,,,,,,,,,,,,,,,,,,,,,space,12.3659839726,,,,,,,,,,,,,,2017_Oct_17_1806,60.0062935686,FEMA4ImagesEEG,001,101739,
AMSA21.JPG,AMNE22.JPG,AMNE21.JPG,AMSA23.JPG,AMSA22.JPG,AMNE23.JPG,0,0,0,1,,,,,,,,,,,,,,,,,,,,,,,AFSA17.jpg,AFNE06.jpg,AFSA01.jpg,AFNE15.jpg,AFSA17.jpg,FS,4,num_8,16,num_8,2.11668406678,,,2017_Oct_17_1806,60.0062935686,FEMA4ImagesEEG,001,101739,
AMNE23.JPG,AMNE24.JPG,AMNE22.JPG,AMSA24.JPG,AMSA22.JPG,AMSA23.JPG,0,1,1,9,,,,,,,,,,,,,,,,,,,,,,,AFSA07.jpg,AFNE16.jpg,AFSA03.jpg,AFNE20.jpg,AFNE16.jpg,FN,3,num_6,32,num_2,0.849975062505,,,2017_Oct_17_1806,60.0062935686,FEMA4ImagesEEG,001,101739,
AFNE22.JPG,AFSA24.JPG,AFSA22.JPG,AFNE25.JPG,AFNE24.JPG,AFSA25.JPG,0,2,2,6,,,,,,,,,,,,,,,,,,,,,,,AFNE08.jpg,AFSA12.jpg,AFNE11.jpg,AFSA06.jpg,AFNE11.jpg,FN,3,num_2,32,num_4,1.21673618695,,,2017_Oct_17_1806,60.0062935686,FEMA4ImagesEEG,001,101739,
AMSA21.JPG,AMNE23.JPG,AMNE21.JPG,AMSA25.JPG,AMNE25.JPG,AMSA23.JPG,0,3,3,5,,,,,,,,,,,,,,,,,,,,,,,AFNE20.jpg,AFSA10.jpg,AFSA06.jpg,AFNE15.jpg,AFSA06.jpg,FS,4,num_2,32,num_6,0.883420815029,,,2017_Oct_17_1806,60.0062935686,FEMA4ImagesEEG,001,101739,
AMSA25.JPG,AMNE24.JPG,AMSA24.JPG,AMNE26.JPG,AMSA21.JPG,AMNE25.JPG,0,4,4,3,,,,,,,,,,,,,,,,,,,,,,,AFSA15.jpg,AFNE10.jpg,AFNE07.jpg,AFSA14.jpg,AFNE07.jpg,FN,3,num_2,16,num_2,0.516776439759,,,2017_Oct_17_1806,60.0062935686,FEMA4ImagesEEG,001,101739,
AFSA21.JPG,AFNE23.JPG,AFNE21.JPG,AFSA25.JPG,AFNE25.JPG,AFSA23.JPG,0,5,5,4,,,,,,,,,,,,,,,,,,,,,,,AFNE01.jpg,AFSA15.jpg,AFSA13.jpg,AFNE14.jpg,AFNE01.jpg,FN,3,num_8,16,num_8,1.266694571,,,2017_Oct_17_1806,60.0062935686,FEMA4ImagesEEG,001,101739,
AFSA25.JPG,AFNE24.JPG,AFSA24.JPG,AFNE21.JPG,AFSA21.JPG,AFNE25.JPG,0,6,6,2,,,,,,,,,,,,,,,,,,,,,,,AFNE13.jpg,AFSA01.jpg,AFSA08.jpg,AFNE17.jpg,AFNE17.jpg,FN,3,num_4,32,num_8,3.25023742742,,,2017_Oct_17_1806,60.0062935686,FEMA4ImagesEEG,001,101739,
AMNE22.JPG,AMSA24.JPG,AMSA22.JPG,AMNE25.JPG,AMNE24.JPG,AMSA25.JPG,0,7,7,7,,,,,,,,,,,,,,,,,,,,,,,AFNE20.jpg,AFSA17.jpg,AFSA19.jpg,AFNE05.jpg,AFSA19.jpg,FS,4,num_2,16,num_2,1.05010688644,,,2017_Oct_17_1806,60.0062935686,FEMA4ImagesEEG,001,101739,
AFSA21.JPG,AFNE22.JPG,AFNE21.JPG,AFSA23.JPG,AFSA22.JPG,AFNE23.JPG,0,8,8,0,,,,,,,,,,,,,,,,,,,,,,,AFSA10.jpg,AFSA19.jpg,AFNE15.jpg,AFNE02.jpg,AFSA10.jpg,FS,4,num_8,32,num_4,1.166751823,,,2017_Oct_17_1806,60.0062935686,FEMA4ImagesEEG,001,101739,
AFNE23.JPG,AFNE24.JPG,AFNE22.JPG,AFSA24.JPG,AFSA22.JPG,AFSA23.JPG,0,9,9,8,,,,,,,,,,,,,,,,,,,,,,,AFNE06.jpg,AFSA15.jpg,AFNE01.jpg,AFSA04.jpg,AFSA15.jpg,FS,4,num_6,32,num_2,3.63346852503,,,2017_Oct_17_1806,60.0062935686,FEMA4ImagesEEG,001,101739,
AFSA25.JPG,AFNE24.JPG,AFSA24.JPG,AFNE21.JPG,AFSA21.JPG,AFNE25.JPG,,,,,0,0,0,2,,,,,,,,,,,,,,,,,,,AMSA02.jpg,AMNE13.jpg,AMSA12.jpg,AMNE08.jpg,AMSA12.jpg,MS,2,num_2,32,num_8,1.71665295505,,,2017_Oct_17_1806,60.0062935686,FEMA4ImagesEEG,001,101739,
AMSA21.JPG,AMNE22.JPG,AMNE21.JPG,AMSA23.JPG,AMSA22.JPG,AMNE23.JPG,,,,,0,1,1,1,,,,,,,,,,,,,,,,,,,AMNE12.jpg,AMSA08.jpg,AMNE17.jpg,AMSA03.jpg,AMSA08.jpg,MS,2,num_6,32,num_8,1.00018378373,,,2017_Oct_17_1806,60.0062935686,FEMA4ImagesEEG,001,101739,
AMSA25.JPG,AMNE24.JPG,AMSA24.JPG,AMNE26.JPG,AMSA21.JPG,AMNE25.JPG,,,,,0,2,2,3,,,,,,,,,,,,,,,,,,,AMNE13.jpg,AMSA18.jpg,AMNE06.jpg,AMSA12.jpg,AMNE06.jpg,MN,1,num_2,16,num_2,0.866757756681,,,2017_Oct_17_1806,60.0062935686,FEMA4ImagesEEG,001,101739,
AMNE23.JPG,AMNE24.JPG,AMNE22.JPG,AMSA24.JPG,AMSA22.JPG,AMSA23.JPG,,,,,0,3,3,9,,,,,,,,,,,,,,,,,,,AMSA17.jpg,AMSA08.jpg,AMNE06.jpg,AMNE10.jpg,AMSA17.jpg,MS,2,num_8,32,num_4,1.48340990989,,,2017_Oct_17_1806,60.0062935686,FEMA4ImagesEEG,001,101739,
AMSA21.JPG,AMNE23.JPG,AMNE21.JPG,AMSA25.JPG,AMNE25.JPG,AMSA23.JPG,,,,,0,4,4,5,,,,,,,,,,,,,,,,,,,AMSA02.jpg,AMNE09.jpg,AMSA12.jpg,AMNE18.jpg,AMNE18.jpg,MN,1,num_4,32,num_2,1.03343773404,,,2017_Oct_17_1806,60.0062935686,FEMA4ImagesEEG,001,101739,
AFNE23.JPG,AFNE24.JPG,AFNE22.JPG,AFSA24.JPG,AFSA22.JPG,AFSA23.JPG,,,,,0,5,5,8,,,,,,,,,,,,,,,,,,,AMNE05.jpg,AMNE07.jpg,AMSA13.jpg,AMSA03.jpg,AMSA13.jpg,MS,2,num_2,32,num_6,1.15012083861,,,2017_Oct_17_1806,60.0062935686,FEMA4ImagesEEG,001,101739,
AFSA21.JPG,AFNE22.JPG,AFNE21.JPG,AFSA23.JPG,AFSA22.JPG,AFNE23.JPG,,,,,0,6,6,0,,,,,,,,,,,,,,,,,,,AMSA11.jpg,AMSA13.jpg,AMNE15.jpg,AMNE13.jpg,AMNE15.jpg,MN,1,num_2,32,num_4,1.56669793877,,,2017_Oct_17_1806,60.0062935686,FEMA4ImagesEEG,001,101739,
AFSA21.JPG,AFNE23.JPG,AFNE21.JPG,AFSA25.JPG,AFNE25.JPG,AFSA23.JPG,,,,,0,7,7,4,,,,,,,,,,,,,,,,,,,AMSA13.jpg,AMNE12.jpg,AMSA12.jpg,AMNE05.jpg,AMSA13.jpg,MS,2,num_8,16,num_8,0.750115065293,,,2017_Oct_17_1806,60.0062935686,FEMA4ImagesEEG,001,101739,
AMNE22.JPG,AMSA24.JPG,AMSA22.JPG,AMNE25.JPG,AMNE24.JPG,AMSA25.JPG,,,,,0,8,8,7,,,,,,,,,,,,,,,,,,,AMSA07.jpg,AMNE10.jpg,AMNE02.jpg,AMSA20.jpg,AMSA07.jpg,MS,2,num_8,32,num_4,1.06675358707,,,2017_Oct_17_1806,60.0062935686,FEMA4ImagesEEG,001,101739,
AFNE22.JPG,AFSA24.JPG,AFSA22.JPG,AFNE25.JPG,AFNE24.JPG,AFSA25.JPG,,,,,0,9,9,6,,,,,,,,,,,,,,,,,,,AMSA04.jpg,AMNE19.jpg,AMSA20.jpg,AMNE12.jpg,AMNE12.jpg,MN,1,num_4,32,num_2,1.08369536804,,,2017_Oct_17_1806,60.0062935686,FEMA4ImagesEEG,001,101739,
AMSA21.JPG,AMNE22.JPG,AMNE21.JPG,AMSA23.JPG,AMSA22.JPG,AMNE23.JPG,,,,,,,,,0,0,0,1,,,,,,,,,,,,,,,AFNE10.jpg,AFSA05.jpg,AFSA06.jpg,AFNE17.jpg,AFSA05.jpg,FS,4,num_6,16,num_6,1.38352970609,,,2017_Oct_17_1806,60.0062935686,FEMA4ImagesEEG,001,101739,
AFNE22.JPG,AFSA24.JPG,AFSA22.JPG,AFNE25.JPG,AFNE24.JPG,AFSA25.JPG,,,,,,,,,0,1,1,6,,,,,,,,,,,,,,,AFSA07.jpg,AFNE16.jpg,AFSA13.jpg,AFNE14.jpg,AFNE14.jpg,FN,3,num_4,16,num_4,1.63323470594,,,2017_Oct_17_1806,60.0062935686,FEMA4ImagesEEG,001,101739,
AMSA25.JPG,AMNE24.JPG,AMSA24.JPG,AMNE26.JPG,AMSA21.JPG,AMNE25.JPG,,,,,,,,,0,2,2,3,,,,,,,,,,,,,,,AFNE08.jpg,AFSA01.jpg,AFSA08.jpg,AFNE07.jpg,AFNE08.jpg,FN,3,num_8,16,num_8,1.21672496107,,,2017_Oct_17_1806,60.0062935686,FEMA4ImagesEEG,001,101739,
AFSA21.JPG,AFNE23.JPG,AFNE21.JPG,AFSA25.JPG,AFNE25.JPG,AFSA23.JPG,,,,,,,,,0,3,3,4,,,,,,,,,,,,,,,AFNE11.jpg,AFSA13.jpg,AFSA08.jpg,AFNE17.jpg,AFNE11.jpg,FN,3,num_8,32,num_4,1.08356258189,,,2017_Oct_17_1806,60.0062935686,FEMA4ImagesEEG,001,101739,
AFNE23.JPG,AFNE24.JPG,AFNE22.JPG,AFSA24.JPG,AFSA22.JPG,AFSA23.JPG,,,,,,,,,0,4,4,8,,,,,,,,,,,,,,,AFNE06.jpg,AFSA12.jpg,AFNE20.jpg,AFSA01.jpg,AFSA12.jpg,FS,4,num_6,16,num_6,0.700140965007,,,2017_Oct_17_1806,60.0062935686,FEMA4ImagesEEG,001,101739,
AMNE23.JPG,AMNE24.JPG,AMNE22.JPG,AMSA24.JPG,AMSA22.JPG,AMSA23.JPG,,,,,,,,,0,5,5,9,,,,,,,,,,,,,,,AFNE11.jpg,AFSA08.jpg,AFNE05.jpg,AFSA10.jpg,AFSA08.jpg,FS,4,num_6,32,num_4,1.49992157919,,,2017_Oct_17_1806,60.0062935686,FEMA4ImagesEEG,001,101739,
AFSA21.JPG,AFNE22.JPG,AFNE21.JPG,AFSA23.JPG,AFSA22.JPG,AFNE23.JPG,,,,,,,,,0,6,6,0,,,,,,,,,,,,,,,AFNE17.jpg,AFSA20.jpg,AFSA19.jpg,AFNE02.jpg,AFNE17.jpg,FN,3,num_8,32,num_6,1.71670683929,,,2017_Oct_17_1806,60.0062935686,FEMA4ImagesEEG,001,101739,
AMNE22.JPG,AMSA24.JPG,AMSA22.JPG,AMNE25.JPG,AMNE24.JPG,AMSA25.JPG,,,,,,,,,0,7,7,7,,,,,,,,,,,,,,,AFNE10.jpg,AFNE17.jpg,AFSA05.jpg,AFSA17.jpg,AFSA17.jpg,FS,4,num_4,16,num_4,2.0664046225,,,2017_Oct_17_1806,60.0062935686,FEMA4ImagesEEG,001,101739,
AMSA21.JPG,AMNE23.JPG,AMNE21.JPG,AMSA25.JPG,AMNE25.JPG,AMSA23.JPG,,,,,,,,,0,8,8,5,,,,,,,,,,,,,,,AFSA19.jpg,AFNE18.jpg,AFSA18.jpg,AFNE19.jpg,AFSA19.jpg,FS,4,num_8,32,num_4,1.18340429695,,,2017_Oct_17_1806,60.0062935686,FEMA4ImagesEEG,001,101739,
AFSA25.JPG,AFNE24.JPG,AFSA24.JPG,AFNE21.JPG,AFSA21.JPG,AFNE25.JPG,,,,,,,,,0,9,9,2,,,,,,,,,,,,,,,AFSA15.jpg,AFNE11.jpg,AFSA01.jpg,AFNE16.jpg,AFSA15.jpg,FS,4,num_8,16,num_8,1.21673137586,,,2017_Oct_17_1806,60.0062935686,FEMA4ImagesEEG,001,101739,
AFNE23.JPG,AFNE24.JPG,AFNE22.JPG,AFSA24.JPG,AFSA22.JPG,AFSA23.JPG,,,,,,,,,,,,,0,0,0,8,,,,,,,,,,,AMNE03.jpg,AMNE10.jpg,AMSA15.jpg,AMSA08.jpg,AMSA15.jpg,MS,2,num_2,16,num_2,1.2500789821,,,2017_Oct_17_1806,60.0062935686,FEMA4ImagesEEG,001,101739,
AFSA21.JPG,AFNE22.JPG,AFNE21.JPG,AFSA23.JPG,AFSA22.JPG,AFNE23.JPG,,,,,,,,,,,,,0,1,1,0,,,,,,,,,,,AMSA04.jpg,AMNE03.jpg,AMNE18.jpg,AMSA09.jpg,AMSA09.jpg,MS,2,num_4,16,num_4,1.21671341445,,,2017_Oct_17_1806,60.0062935686,FEMA4ImagesEEG,001,101739,
AMSA25.JPG,AMNE24.JPG,AMSA24.JPG,AMNE26.JPG,AMSA21.JPG,AMNE25.JPG,,,,,,,,,,,,,0,2,2,3,,,,,,,,,,,AMSA14.jpg,AMNE03.jpg,AMSA03.jpg,AMNE06.jpg,AMNE06.jpg,MN,1,num_4,32,num_6,0.783447917518,,,2017_Oct_17_1806,60.0062935686,FEMA4ImagesEEG,001,101739,
AMSA21.JPG,AMNE22.JPG,AMNE21.JPG,AMSA23.JPG,AMSA22.JPG,AMNE23.JPG,,,,,,,,,,,,,0,3,3,1,,,,,,,,,,,AMSA11.jpg,AMNE10.jpg,AMNE18.jpg,AMSA18.jpg,AMNE10.jpg,MN,1,num_6,32,num_2,0.733478307586,,,2017_Oct_17_1806,60.0062935686,FEMA4ImagesEEG,001,101739,
AMNE23.JPG,AMNE24.JPG,AMNE22.JPG,AMSA24.JPG,AMSA22.JPG,AMSA23.JPG,,,,,,,,,,,,,0,4,4,9,,,,,,,,,,,AMNE12.jpg,AMSA04.jpg,AMSA03.jpg,AMNE07.jpg,AMNE12.jpg,MN,1,num_8,16,num_8,1.11665199283,,,2017_Oct_17_1806,60.0062935686,FEMA4ImagesEEG,001,101739,
AFSA21.JPG,AFNE23.JPG,AFNE21.JPG,AFSA25.JPG,AFNE25.JPG,AFSA23.JPG,,,,,,,,,,,,,0,5,5,4,,,,,,,,,,,AMNE12.jpg,AMSA11.jpg,AMNE15.jpg,AMSA06.jpg,AMSA11.jpg,MS,2,num_6,16,num_6,1.05008828354,,,2017_Oct_17_1806,60.0062935686,FEMA4ImagesEEG,001,101739,
AMNE22.JPG,AMSA24.JPG,AMSA22.JPG,AMNE25.JPG,AMNE24.JPG,AMSA25.JPG,,,,,,,,,,,,,0,6,6,7,,,,,,,,,,,AMSA07.jpg,AMNE13.jpg,AMSA18.jpg,AMNE18.jpg,AMNE18.jpg,MN,1,num_4,32,num_2,1.45009886795,,,2017_Oct_17_1806,60.0062935686,FEMA4ImagesEEG,001,101739,
AMSA21.JPG,AMNE23.JPG,AMNE21.JPG,AMSA25.JPG,AMNE25.JPG,AMSA23.JPG,,,,,,,,,,,,,0,7,7,5,,,,,,,,,,,AMSA05.jpg,AMSA09.jpg,AMNE17.jpg,AMNE15.jpg,AMSA09.jpg,MS,2,num_6,32,num_8,1.25009533982,,,2017_Oct_17_1806,60.0062935686,FEMA4ImagesEEG,001,101739,
AFSA25.JPG,AFNE24.JPG,AFSA24.JPG,AFNE21.JPG,AFSA21.JPG,AFNE25.JPG,,,,,,,,,,,,,0,8,8,2,,,,,,,,,,,AMSA01.jpg,AMSA16.jpg,AMNE14.jpg,AMNE02.jpg,AMSA16.jpg,MS,2,num_6,16,num_6,0.933447516592,,,2017_Oct_17_1806,60.0062935686,FEMA4ImagesEEG,001,101739,
AFNE22.JPG,AFSA24.JPG,AFSA22.JPG,AFNE25.JPG,AFNE24.JPG,AFSA25.JPG,,,,,,,,,,,,,0,9,9,6,,,,,,,,,,,AMSA08.jpg,AMNE19.jpg,AMSA19.jpg,AMNE13.jpg,AMSA19.jpg,MS,2,num_2,32,num_6,0.666876430299,,,2017_Oct_17_1806,60.0062935686,FEMA4ImagesEEG,001,101739,
AFSA25.JPG,AFNE24.JPG,AFSA24.JPG,AFNE21.JPG,AFSA21.JPG,AFNE25.JPG,,,,,,,,,,,,,,,,,0,0,0,2,,,,,,,AFNE16.jpg,AFSA17.jpg,AFNE11.jpg,AFSA05.jpg,AFNE16.jpg,FN,3,num_8,32,num_2,0.783583911067,,,2017_Oct_17_1806,60.0062935686,FEMA4ImagesEEG,001,101739,
AMNE22.JPG,AMSA24.JPG,AMSA22.JPG,AMNE25.JPG,AMNE24.JPG,AMSA25.JPG,,,,,,,,,,,,,,,,,0,1,1,7,,,,,,,AFSA13.jpg,AFNE18.jpg,AFNE11.jpg,AFSA09.jpg,AFNE18.jpg,FN,3,num_6,32,num_2,1.05010111312,,,2017_Oct_17_1806,60.0062935686,FEMA4ImagesEEG,001,101739,
AFSA21.JPG,AFNE23.JPG,AFNE21.JPG,AFSA25.JPG,AFNE25.JPG,AFSA23.JPG,,,,,,,,,,,,,,,,,0,2,2,4,,,,,,,AFSA03.jpg,AFNE04.jpg,AFNE06.jpg,AFSA19.jpg,AFNE04.jpg,FN,3,num_6,16,num_6,0.61666017169,,,2017_Oct_17_1806,60.0062935686,FEMA4ImagesEEG,001,101739,
AMSA25.JPG,AMNE24.JPG,AMSA24.JPG,AMNE26.JPG,AMSA21.JPG,AMNE25.JPG,,,,,,,,,,,,,,,,,0,3,3,3,,,,,,,AFNE16.jpg,AFSA09.jpg,AFNE02.jpg,AFSA16.jpg,AFSA16.jpg,FS,4,num_4,16,num_4,0.750115386032,,,2017_Oct_17_1806,60.0062935686,FEMA4ImagesEEG,001,101739,
AMSA21.JPG,AMNE22.JPG,AMNE21.JPG,AMSA23.JPG,AMSA22.JPG,AMNE23.JPG,,,,,,,,,,,,,,,,,0,4,4,1,,,,,,,AFNE10.jpg,AFNE20.jpg,AFSA07.jpg,AFSA03.jpg,AFNE10.jpg,FN,3,num_8,32,num_2,1.33340068863,,,2017_Oct_17_1806,60.0062935686,FEMA4ImagesEEG,001,101739,
AMNE23.JPG,AMNE24.JPG,AMNE22.JPG,AMSA24.JPG,AMSA22.JPG,AMSA23.JPG,,,,,,,,,,,,,,,,,0,5,5,9,,,,,,,AFNE19.jpg,AFSA15.jpg,AFSA20.jpg,AFNE17.jpg,AFSA15.jpg,FS,4,num_6,16,num_6,0.850135432254,,,2017_Oct_17_1806,60.0062935686,FEMA4ImagesEEG,001,101739,
AFNE22.JPG,AFSA24.JPG,AFSA22.JPG,AFNE25.JPG,AFNE24.JPG,AFSA25.JPG,,,,,,,,,,,,,,,,,0,6,6,6,,,,,,,AFSA08.jpg,AFNE04.jpg,AFSA02.jpg,AFNE07.jpg,AFNE07.jpg,FN,3,num_4,32,num_6,0.700323465782,,,2017_Oct_17_1806,60.0062935686,FEMA4ImagesEEG,001,101739,
AFNE23.JPG,AFNE24.JPG,AFNE22.JPG,AFSA24.JPG,AFSA22.JPG,AFSA23.JPG,,,,,,,,,,,,,,,,,0,7,7,8,,,,,,,AFSA13.jpg,AFNE02.jpg,AFSA03.jpg,AFNE06.jpg,AFSA13.jpg,FS,4,num_8,16,num_8,0.583456577486,,,2017_Oct_17_1806,60.0062935686,FEMA4ImagesEEG,001,101739,
AFSA21.JPG,AFNE22.JPG,AFNE21.JPG,AFSA23.JPG,AFSA22.JPG,AFNE23.JPG,,,,,,,,,,,,,,,,,0,8,8,0,,,,,,,AFSA01.jpg,AFSA08.jpg,AFNE09.jpg,AFNE01.jpg,AFNE01.jpg,FN,3,num_4,32,num_2,0.633846676898,,,2017_Oct_17_1806,60.0062935686,FEMA4ImagesEEG,001,101739,
AMSA21.JPG,AMNE23.JPG,AMNE21.JPG,AMSA25.JPG,AMNE25.JPG,AMSA23.JPG,,,,,,,,,,,,,,,,,0,9,9,5,,,,,,,AFNE08.jpg,AFNE15.jpg,AFSA12.jpg,AFSA15.jpg,AFNE15.jpg,FN,3,num_6,32,num_2,0.983128781721,,,2017_Oct_17_1806,60.0062935686,FEMA4ImagesEEG,001,101739,
AMSA25.JPG,AMNE24.JPG,AMSA24.JPG,AMNE26.JPG,AMSA21.JPG,AMNE25.JPG,,,,,,,,,,,,,,,,,,,,,0,0,0,3,,,AMSA08.jpg,AMNE13.jpg,AMSA06.jpg,AMNE18.jpg,AMNE13.jpg,MN,1,num_6,16,num_6,0.816788467491,,,2017_Oct_17_1806,60.0062935686,FEMA4ImagesEEG,001,101739,
AFSA21.JPG,AFNE23.JPG,AFNE21.JPG,AFSA25.JPG,AFNE25.JPG,AFSA23.JPG,,,,,,,,,,,,,,,,,,,,,0,1,1,4,,,AMSA07.jpg,AMSA19.jpg,AMNE18.jpg,AMNE11.jpg,AMSA19.jpg,MS,2,num_6,16,num_6,0.783435729416,,,2017_Oct_17_1806,60.0062935686,FEMA4ImagesEEG,001,101739,
AFSA21.JPG,AFNE22.JPG,AFNE21.JPG,AFSA23.JPG,AFSA22.JPG,AFNE23.JPG,,,,,,,,,,,,,,,,,,,,,0,2,2,0,,,AMSA19.jpg,AMNE08.jpg,AMSA14.jpg,AMNE12.jpg,AMSA19.jpg,MS,2,num_8,32,num_2,1.3500874817,,,2017_Oct_17_1806,60.0062935686,FEMA4ImagesEEG,001,101739,
AMNE22.JPG,AMSA24.JPG,AMSA22.JPG,AMNE25.JPG,AMNE24.JPG,AMSA25.JPG,,,,,,,,,,,,,,,,,,,,,0,3,3,7,,,AMSA09.jpg,AMSA19.jpg,AMNE04.jpg,AMNE17.jpg,AMNE04.jpg,MN,1,num_2,16,num_2,0.683446153449,,,2017_Oct_17_1806,60.0062935686,FEMA4ImagesEEG,001,101739,
AFNE23.JPG,AFNE24.JPG,AFNE22.JPG,AFSA24.JPG,AFSA22.JPG,AFSA23.JPG,,,,,,,,,,,,,,,,,,,,,0,4,4,8,,,AMNE20.jpg,AMNE02.jpg,AMSA10.jpg,AMSA09.jpg,AMNE20.jpg,MN,1,num_8,32,num_4,0.800167746755,,,2017_Oct_17_1806,60.0062935686,FEMA4ImagesEEG,001,101739,
AMSA21.JPG,AMNE23.JPG,AMNE21.JPG,AMSA25.JPG,AMNE25.JPG,AMSA23.JPG,,,,,,,,,,,,,,,,,,,,,0,5,5,5,,,AMSA07.jpg,AMNE14.jpg,AMNE06.jpg,AMSA09.jpg,AMSA09.jpg,MS,2,num_4,32,num_2,1.2500578133,,,2017_Oct_17_1806,60.0062935686,FEMA4ImagesEEG,001,101739,
AMSA21.JPG,AMNE22.JPG,AMNE21.JPG,AMSA23.JPG,AMSA22.JPG,AMNE23.JPG,,,,,,,,,,,,,,,,,,,,,0,6,6,1,,,AMNE20.jpg,AMSA13.jpg,AMSA02.jpg,AMNE18.jpg,AMNE20.jpg,MN,1,num_8,16,num_8,0.750115065297,,,2017_Oct_17_1806,60.0062935686,FEMA4ImagesEEG,001,101739,
AFNE22.JPG,AFSA24.JPG,AFSA22.JPG,AFNE25.JPG,AFNE24.JPG,AFSA25.JPG,,,,,,,,,,,,,,,,,,,,,0,7,7,6,,,AMSA05.jpg,AMNE15.jpg,AMNE20.jpg,AMSA13.jpg,AMSA05.jpg,MS,2,num_8,32,num_6,0.91676200648,,,2017_Oct_17_1806,60.0062935686,FEMA4ImagesEEG,001,101739,
AFSA25.JPG,AFNE24.JPG,AFSA24.JPG,AFNE21.JPG,AFSA21.JPG,AFNE25.JPG,,,,,,,,,,,,,,,,,,,,,0,8,8,2,,,AMSA12.jpg,AMNE10.jpg,AMNE12.jpg,AMSA20.jpg,AMNE10.jpg,MN,1,num_6,16,num_6,0.666766737391,,,2017_Oct_17_1806,60.0062935686,FEMA4ImagesEEG,001,101739,
AMNE23.JPG,AMNE24.JPG,AMNE22.JPG,AMSA24.JPG,AMSA22.JPG,AMSA23.JPG,,,,,,,,,,,,,,,,,,,,,0,9,9,9,,,AMSA02.jpg,AMSA11.jpg,AMNE13.jpg,AMNE10.jpg,AMNE13.jpg,MN,1,num_2,32,num_6,0.983429956108,,,2017_Oct_17_1806,60.0062935686,FEMA4ImagesEEG,001,101739,
,,,,,,,,,,,,,,,,,,,,,,,,,,,,,,,,,,,,,,,,,,,space,10.0990889395,2017_Oct_17_1806,60.0062935686,FEMA4ImagesEEG,001,101739,
AFNE01.JPG,AFNE01.JPG,AFNE01.JPG,AFNE01.JPG,AFNE01.JPG,AFNE01.JPG,0,0,0,0,,,,,,,,,,,,,,,,,,,,,,,AFSA19.jpg,AFSA15.jpg,AFNE08.jpg,AFNE04.jpg,AFNE04.jpg,FN,3,num_4,32,num_8,0.766827838263,,,2017_Oct_17_1806,60.0062935686,FEMA4ImagesEEG,001,101739,
AFNE01.JPG,AFNE01.JPG,AFNE01.JPG,AFNE01.JPG,AFNE01.JPG,AFNE01.JPG,0,1,1,3,,,,,,,,,,,,,,,,,,,,,,,AFSA04.jpg,AFNE09.jpg,AFNE13.jpg,AFSA02.jpg,AFSA02.jpg,FS,4,num_4,16,num_4,1.08347951036,,,2017_Oct_17_1806,60.0062935686,FEMA4ImagesEEG,001,101739,
AFNE01.JPG,AFNE01.JPG,AFNE01.JPG,AFNE01.JPG,AFNE01.JPG,AFNE01.JPG,0,2,2,4,,,,,,,,,,,,,,,,,,,,,,,AFSA01.jpg,AFNE17.jpg,AFNE20.jpg,AFSA15.jpg,AFNE17.jpg,FN,3,num_6,32,num_2,0.666814527573,,,2017_Oct_17_1806,60.0062935686,FEMA4ImagesEEG,001,101739,
AFNE01.JPG,AFNE01.JPG,AFNE01.JPG,AFNE01.JPG,AFNE01.JPG,AFNE01.JPG,0,3,3,1,,,,,,,,,,,,,,,,,,,,,,,AFNE16.jpg,AFSA09.jpg,AFSA05.jpg,AFNE05.jpg,AFNE16.jpg,FN,3,num_8,32,num_6,0.500168548606,,,2017_Oct_17_1806,60.0062935686,FEMA4ImagesEEG,001,101739,
AFNE01.JPG,AFNE01.JPG,AFNE01.JPG,AFNE01.JPG,AFNE01.JPG,AFNE01.JPG,0,4,4,8,,,,,,,,,,,,,,,,,,,,,,,AFSA19.jpg,AFNE18.jpg,AFNE09.jpg,AFSA01.jpg,AFSA01.jpg,FS,4,num_4,16,num_4,1.05006583178,,,2017_Oct_17_1806,60.0062935686,FEMA4ImagesEEG,001,101739,
AFNE01.JPG,AFNE01.JPG,AFNE01.JPG,AFNE01.JPG,AFNE01.JPG,AFNE01.JPG,0,5,5,5,,,,,,,,,,,,,,,,,,,,,,,AFNE14.jpg,AFSA12.jpg,AFNE02.jpg,AFSA01.jpg,AFSA12.jpg,FS,4,num_6,32,num_8,0.766760482969,,,2017_Oct_17_1806,60.0062935686,FEMA4ImagesEEG,001,101739,
AFNE01.JPG,AFNE01.JPG,AFNE01.JPG,AFNE01.JPG,AFNE01.JPG,AFNE01.JPG,0,6,6,2,,,,,,,,,,,,,,,,,,,,,,,AFSA16.jpg,AFNE11.jpg,AFSA04.jpg,AFNE03.jpg,AFNE03.jpg,FN,3,num_4,32,num_2,0.833453771014,,,2017_Oct_17_1806,60.0062935686,FEMA4ImagesEEG,001,101739,
AFNE01.JPG,AFNE01.JPG,AFNE01.JPG,AFNE01.JPG,AFNE01.JPG,AFNE01.JPG,0,7,7,6,,,,,,,,,,,,,,,,,,,,,,,AFNE16.jpg,AFNE13.jpg,AFSA14.jpg,AFSA17.jpg,AFSA14.jpg,FS,4,num_2,32,num_8,0.516881000836,,,2017_Oct_17_1806,60.0062935686,FEMA4ImagesEEG,001,101739,
AFNE01.JPG,AFNE01.JPG,AFNE01.JPG,AFNE01.JPG,AFNE01.JPG,AFNE01.JPG,0,8,8,9,,,,,,,,,,,,,,,,,,,,,,,AFNE19.jpg,AFSA04.jpg,AFNE06.jpg,AFSA11.jpg,AFNE06.jpg,FN,3,num_2,32,num_6,1.61669962265,,,2017_Oct_17_1806,60.0062935686,FEMA4ImagesEEG,001,101739,
AFNE01.JPG,AFNE01.JPG,AFNE01.JPG,AFNE01.JPG,AFNE01.JPG,AFNE01.JPG,0,9,9,7,,,,,,,,,,,,,,,,,,,,,,,AFSA20.jpg,AFSA14.jpg,AFNE02.jpg,AFNE14.jpg,AFNE14.jpg,FN,3,num_4,32,num_2,1.20021104659,,,2017_Oct_17_1806,60.0062935686,FEMA4ImagesEEG,001,101739,
AFNE01.JPG,AFNE01.JPG,AFNE01.JPG,AFNE01.JPG,AFNE01.JPG,AFNE01.JPG,1,0,10,1,,,,,,,,,,,,,,,,,,,,,,,AFSA09.jpg,AFSA13.jpg,AFNE11.jpg,AFNE06.jpg,AFSA13.jpg,FS,4,num_6,32,num_4,0.600136955763,,,2017_Oct_17_1806,60.0062935686,FEMA4ImagesEEG,001,101739,
AFNE01.JPG,AFNE01.JPG,AFNE01.JPG,AFNE01.JPG,AFNE01.JPG,AFNE01.JPG,1,1,11,2,,,,,,,,,,,,,,,,,,,,,,,AFNE03.jpg,AFSA14.jpg,AFNE07.jpg,AFSA19.jpg,AFNE03.jpg,FN,3,num_8,16,num_8,0.933401330109,,,2017_Oct_17_1806,60.0062935686,FEMA4ImagesEEG,001,101739,
AFNE01.JPG,AFNE01.JPG,AFNE01.JPG,AFNE01.JPG,AFNE01.JPG,AFNE01.JPG,1,2,12,8,,,,,,,,,,,,,,,,,,,,,,,AFNE11.jpg,AFSA04.jpg,AFSA03.jpg,AFNE04.jpg,AFNE04.jpg,FN,3,num_4,32,num_8,1.45009950943,,,2017_Oct_17_1806,60.0062935686,FEMA4ImagesEEG,001,101739,
AFNE01.JPG,AFNE01.JPG,AFNE01.JPG,AFNE01.JPG,AFNE01.JPG,AFNE01.JPG,1,3,13,7,,,,,,,,,,,,,,,,,,,,,,,AFNE02.jpg,AFNE18.jpg,AFSA06.jpg,AFSA02.jpg,AFNE18.jpg,FN,3,num_6,16,num_6,0.850106886435,,,2017_Oct_17_1806,60.0062935686,FEMA4ImagesEEG,001,101739,
AFNE01.JPG,AFNE01.JPG,AFNE01.JPG,AFNE01.JPG,AFNE01.JPG,AFNE01.JPG,1,4,14,6,,,,,,,,,,,,,,,,,,,,,,,AFSA14.jpg,AFNE05.jpg,AFSA20.jpg,AFNE02.jpg,AFNE05.jpg,FN,3,num_6,32,num_4,0.733497872694,,,2017_Oct_17_1806,60.0062935686,FEMA4ImagesEEG,001,101739,
AFNE01.JPG,AFNE01.JPG,AFNE01.JPG,AFNE01.JPG,AFNE01.JPG,AFNE01.JPG,1,5,15,5,,,,,,,,,,,,,,,,,,,,,,,AFNE08.jpg,AFSA15.jpg,AFNE12.jpg,AFSA08.jpg,AFNE08.jpg,FN,3,num_8,32,num_6,0.766783896954,,,2017_Oct_17_1806,60.0062935686,FEMA4ImagesEEG,001,101739,
AFNE01.JPG,AFNE01.JPG,AFNE01.JPG,AFNE01.JPG,AFNE01.JPG,AFNE01.JPG,1,6,16,4,,,,,,,,,,,,,,,,,,,,,,,AFSA14.jpg,AFSA13.jpg,AFNE17.jpg,AFNE10.jpg,AFSA13.jpg,FS,4,num_6,16,num_6,0.450147620355,,,2017_Oct_17_1806,60.0062935686,FEMA4ImagesEEG,001,101739,
AFNE01.JPG,AFNE01.JPG,AFNE01.JPG,AFNE01.JPG,AFNE01.JPG,AFNE01.JPG,1,7,17,3,,,,,,,,,,,,,,,,,,,,,,,AFNE06.jpg,AFNE10.jpg,AFSA01.jpg,AFSA04.jpg,AFSA04.jpg,FS,4,num_4,32,num_2,0.583458822661,,,2017_Oct_17_1806,60.0062935686,FEMA4ImagesEEG,001,101739,
AFNE01.JPG,AFNE01.JPG,AFNE01.JPG,AFNE01.JPG,AFNE01.JPG,AFNE01.JPG,1,8,18,0,,,,,,,,,,,,,,,,,,,,,,,AFNE04.jpg,AFSA20.jpg,AFNE10.jpg,AFSA02.jpg,AFNE04.jpg,FN,3,num_8,16,num_8,1.23342554594,,,2017_Oct_17_1806,60.0062935686,FEMA4ImagesEEG,001,101739,
AFNE01.JPG,AFNE01.JPG,AFNE01.JPG,AFNE01.JPG,AFNE01.JPG,AFNE01.JPG,1,9,19,9,,,,,,,,,,,,,,,,,,,,,,,AFNE13.jpg,AFSA08.jpg,AFNE09.jpg,AFSA03.jpg,AFNE09.jpg,FN,3,num_2,32,num_6,0.750123725262,,,2017_Oct_17_1806,60.0062935686,FEMA4ImagesEEG,001,101739,
AFNE01.JPG,AFNE01.JPG,AFNE01.JPG,AFNE01.JPG,AFNE01.JPG,AFNE01.JPG,2,0,20,5,,,,,,,,,,,,,,,,,,,,,,,AFSA17.jpg,AFNE08.jpg,AFNE04.jpg,AFSA20.jpg,AFNE08.jpg,FN,3,num_6,16,num_6,1.03343997922,,,2017_Oct_17_1806,60.0062935686,FEMA4ImagesEEG,001,101739,
AFNE01.JPG,AFNE01.JPG,AFNE01.JPG,AFNE01.JPG,AFNE01.JPG,AFNE01.JPG,2,1,21,1,,,,,,,,,,,,,,,,,,,,,,,AFSA17.jpg,AFSA14.jpg,AFNE03.jpg,AFNE12.jpg,AFSA14.jpg,FS,4,num_6,32,num_8,1.5500493137,,,2017_Oct_17_1806,60.0062935686,FEMA4ImagesEEG,001,101739,
AFNE01.JPG,AFNE01.JPG,AFNE01.JPG,AFNE01.JPG,AFNE01.JPG,AFNE01.JPG,2,2,22,0,,,,,,,,,,,,,,,,,,,,,,,AFSA02.jpg,AFNE17.jpg,AFNE11.jpg,AFSA07.jpg,AFSA07.jpg,FS,4,num_4,16,num_4,0.866758398162,,,2017_Oct_17_1806,60.0062935686,FEMA4ImagesEEG,001,101739,
AFNE01.JPG,AFNE01.JPG,AFNE01.JPG,AFNE01.JPG,AFNE01.JPG,AFNE01.JPG,2,3,23,2,,,,,,,,,,,,,,,,,,,,,,,AFSA16.jpg,AFNE08.jpg,AFSA02.jpg,AFNE12.jpg,AFSA16.jpg,FS,4,num_8,16,num_8,0.583454332311,,,2017_Oct_17_1806,60.0062935686,FEMA4ImagesEEG,001,101739,
AFNE01.JPG,AFNE01.JPG,AFNE01.JPG,AFNE01.JPG,AFNE01.JPG,AFNE01.JPG,2,4,24,6,,,,,,,,,,,,,,,,,,,,,,,AFSA11.jpg,AFNE15.jpg,AFNE17.jpg,AFSA14.jpg,AFNE17.jpg,FN,3,num_2,32,num_6,1.5501134616,,,2017_Oct_17_1806,60.0062935686,FEMA4ImagesEEG,001,101739,
AFNE01.JPG,AFNE01.JPG,AFNE01.JPG,AFNE01.JPG,AFNE01.JPG,AFNE01.JPG,2,5,25,8,,,,,,,,,,,,,,,,,,,,,,,AFNE13.jpg,AFNE01.jpg,AFSA08.jpg,AFSA02.jpg,AFSA08.jpg,FS,4,num_2,32,num_4,1.26679400025,,,2017_Oct_17_1806,60.0062935686,FEMA4ImagesEEG,001,101739,
AFNE01.JPG,AFNE01.JPG,AFNE01.JPG,AFNE01.JPG,AFNE01.JPG,AFNE01.JPG,2,6,26,3,,,,,,,,,,,,,,,,,,,,,,,AFSA19.jpg,AFNE14.jpg,AFNE15.jpg,AFSA01.jpg,AFNE15.jpg,FN,3,num_2,32,num_4,0.850089887244,,,2017_Oct_17_1806,60.0062935686,FEMA4ImagesEEG,001,101739,
AFNE01.JPG,AFNE01.JPG,AFNE01.JPG,AFNE01.JPG,AFNE01.JPG,AFNE01.JPG,2,7,27,9,,,,,,,,,,,,,,,,,,,,,,,AFSA02.jpg,AFSA11.jpg,AFNE04.jpg,AFNE03.jpg,AFNE04.jpg,FN,3,num_2,16,num_2,1.50009028817,,,2017_Oct_17_1806,60.0062935686,FEMA4ImagesEEG,001,101739,
AFNE01.JPG,AFNE01.JPG,AFNE01.JPG,AFNE01.JPG,AFNE01.JPG,AFNE01.JPG,2,8,28,4,,,,,,,,,,,,,,,,,,,,,,,AFNE19.jpg,AFNE05.jpg,AFSA13.jpg,AFSA09.jpg,AFNE05.jpg,FN,3,num_6,16,num_6,0.750144573329,,,2017_Oct_17_1806,60.0062935686,FEMA4ImagesEEG,001,101739,
AFNE01.JPG,AFNE01.JPG,AFNE01.JPG,AFNE01.JPG,AFNE01.JPG,AFNE01.JPG,2,9,29,7,,,,,,,,,,,,,,,,,,,,,,,AFNE19.jpg,AFSA19.jpg,AFSA13.jpg,AFNE04.jpg,AFSA13.jpg,FS,4,num_2,16,num_2,0.700145134622,,,2017_Oct_17_1806,60.0062935686,FEMA4ImagesEEG,001,101739,
AFNE01.JPG,AFNE01.JPG,AFNE01.JPG,AFNE01.JPG,AFNE01.JPG,AFNE01.JPG,3,0,30,4,,,,,,,,,,,,,,,,,,,,,,,AFSA18.jpg,AFNE10.jpg,AFSA04.jpg,AFNE07.jpg,AFSA18.jpg,FS,4,num_8,32,num_4,2.08338585442,,,2017_Oct_17_1806,60.0062935686,FEMA4ImagesEEG,001,101739,
AFNE01.JPG,AFNE01.JPG,AFNE01.JPG,AFNE01.JPG,AFNE01.JPG,AFNE01.JPG,3,1,31,8,,,,,,,,,,,,,,,,,,,,,,,AFSA01.jpg,AFSA13.jpg,AFNE02.jpg,AFNE09.jpg,AFNE09.jpg,FN,3,num_4,32,num_8,0.633581104594,,,2017_Oct_17_1806,60.0062935686,FEMA4ImagesEEG,001,101739,
AFNE01.JPG,AFNE01.JPG,AFNE01.JPG,AFNE01.JPG,AFNE01.JPG,AFNE01.JPG,3,2,32,0,,,,,,,,,,,,,,,,,,,,,,,AFSA15.jpg,AFSA20.jpg,AFNE14.jpg,AFNE15.jpg,AFNE14.jpg,FN,3,num_2,32,num_4,0.666789830633,,,2017_Oct_17_1806,60.0062935686,FEMA4ImagesEEG,001,101739,
AFNE01.JPG,AFNE01.JPG,AFNE01.JPG,AFNE01.JPG,AFNE01.JPG,AFNE01.JPG,3,3,33,6,,,,,,,,,,,,,,,,,,,,,,,AFSA19.jpg,AFNE19.jpg,AFSA11.jpg,AFNE03.jpg,AFNE19.jpg,FN,3,num_6,32,num_4,0.716797608566,,,2017_Oct_17_1806,60.0062935686,FEMA4ImagesEEG,001,101739,
AFNE01.JPG,AFNE01.JPG,AFNE01.JPG,AFNE01.JPG,AFNE01.JPG,AFNE01.JPG,3,4,34,3,,,,,,,,,,,,,,,,,,,,,,,AFSA03.jpg,AFNE09.jpg,AFSA11.jpg,AFNE05.jpg,AFNE09.jpg,FN,3,num_6,16,num_6,0.666442790498,,,2017_Oct_17_1806,60.0062935686,FEMA4ImagesEEG,001,101739,
AFNE01.JPG,AFNE01.JPG,AFNE01.JPG,AFNE01.JPG,AFNE01.JPG,AFNE01.JPG,3,5,35,2,,,,,,,,,,,,,,,,,,,,,,,AFNE18.jpg,AFNE02.jpg,AFSA18.jpg,AFSA04.jpg,AFSA04.jpg,FS,4,num_4,16,num_4,0.583440219769,,,2017_Oct_17_1806,60.0062935686,FEMA4ImagesEEG,001,101739,
AFNE01.JPG,AFNE01.JPG,AFNE01.JPG,AFNE01.JPG,AFNE01.JPG,AFNE01.JPG,3,6,36,9,,,,,,,,,,,,,,,,,,,,,,,AFSA05.jpg,AFNE04.jpg,AFNE20.jpg,AFSA15.jpg,AFSA05.jpg,FS,4,num_8,32,num_4,0.600130540977,,,2017_Oct_17_1806,60.0062935686,FEMA4ImagesEEG,001,101739,
AFNE01.JPG,AFNE01.JPG,AFNE01.JPG,AFNE01.JPG,AFNE01.JPG,AFNE01.JPG,3,7,37,5,,,,,,,,,,,,,,,,,,,,,,,AFNE20.jpg,AFSA06.jpg,AFNE03.jpg,AFSA16.jpg,AFSA16.jpg,FS,4,num_4,16,num_4,0.716770345709,,,2017_Oct_17_1806,60.0062935686,FEMA4ImagesEEG,001,101739,
AFNE01.JPG,AFNE01.JPG,AFNE01.JPG,AFNE01.JPG,AFNE01.JPG,AFNE01.JPG,3,8,38,1,,,,,,,,,,,,,,,,,,,,,,,AFSA11.jpg,AFSA13.jpg,AFNE10.jpg,AFNE02.jpg,AFSA11.jpg,FS,4,num_8,16,num_8,1.73333044668,,,2017_Oct_17_1806,60.0062935686,FEMA4ImagesEEG,001,101739,
AFNE01.JPG,AFNE01.JPG,AFNE01.JPG,AFNE01.JPG,AFNE01.JPG,AFNE01.JPG,3,9,39,7,,,,,,,,,,,,,,,,,,,,,,,AFNE05.jpg,AFSA17.jpg,AFNE16.jpg,AFSA19.jpg,AFSA19.jpg,FS,4,num_4,16,num_4,0.699924786586,,,2017_Oct_17_1806,60.0062935686,FEMA4ImagesEEG,001,101739,
AFNE01.JPG,AFNE01.JPG,AFNE01.JPG,AFNE01.JPG,AFNE01.JPG,AFNE01.JPG,4,0,40,9,,,,,,,,,,,,,,,,,,,,,,,AFNE20.jpg,AFSA11.jpg,AFNE01.jpg,AFSA12.jpg,AFNE01.jpg,FN,3,num_2,32,num_6,0.666813886099,,,2017_Oct_17_1806,60.0062935686,FEMA4ImagesEEG,001,101739,
AFNE01.JPG,AFNE01.JPG,AFNE01.JPG,AFNE01.JPG,AFNE01.JPG,AFNE01.JPG,4,1,41,6,,,,,,,,,,,,,,,,,,,,,,,AFSA18.jpg,AFNE16.jpg,AFNE17.jpg,AFSA06.jpg,AFNE17.jpg,FN,3,num_2,32,num_8,1.73320632049,,,2017_Oct_17_1806,60.0062935686,FEMA4ImagesEEG,001,101739,
AFNE01.JPG,AFNE01.JPG,AFNE01.JPG,AFNE01.JPG,AFNE01.JPG,AFNE01.JPG,4,2,42,8,,,,,,,,,,,,,,,,,,,,,,,AFNE18.jpg,AFSA02.jpg,AFNE10.jpg,AFSA20.jpg,AFSA20.jpg,FS,4,num_4,16,num_4,1.10045304454,,,2017_Oct_17_1806,60.0062935686,FEMA4ImagesEEG,001,101739,
AFNE01.JPG,AFNE01.JPG,AFNE01.JPG,AFNE01.JPG,AFNE01.JPG,AFNE01.JPG,4,3,43,4,,,,,,,,,,,,,,,,,,,,,,,AFSA19.jpg,AFNE07.jpg,AFNE10.jpg,AFSA03.jpg,AFNE07.jpg,FN,3,num_6,16,num_6,0.716938413207,,,2017_Oct_17_1806,60.0062935686,FEMA4ImagesEEG,001,101739,
AFNE01.JPG,AFNE01.JPG,AFNE01.JPG,AFNE01.JPG,AFNE01.JPG,AFNE01.JPG,4,4,44,2,,,,,,,,,,,,,,,,,,,,,,,AFNE13.jpg,AFSA11.jpg,AFSA13.jpg,AFNE07.jpg,AFNE07.jpg,FN,3,num_4,32,num_2,0.650129338203,,,2017_Oct_17_1806,60.0062935686,FEMA4ImagesEEG,001,101739,
AFNE01.JPG,AFNE01.JPG,AFNE01.JPG,AFNE01.JPG,AFNE01.JPG,AFNE01.JPG,4,5,45,1,,,,,,,,,,,,,,,,,,,,,,,AFNE02.jpg,AFSA01.jpg,AFNE16.jpg,AFSA16.jpg,AFNE02.jpg,FN,3,num_8,32,num_4,0.816801297071,,,2017_Oct_17_1806,60.0062935686,FEMA4ImagesEEG,001,101739,
AFNE01.JPG,AFNE01.JPG,AFNE01.JPG,AFNE01.JPG,AFNE01.JPG,AFNE01.JPG,4,6,46,5,,,,,,,,,,,,,,,,,,,,,,,AFSA20.jpg,AFNE17.jpg,AFNE15.jpg,AFSA14.jpg,AFNE15.jpg,FN,3,num_2,32,num_6,1.33367010981,,,2017_Oct_17_1806,60.0062935686,FEMA4ImagesEEG,001,101739,
AFNE01.JPG,AFNE01.JPG,AFNE01.JPG,AFNE01.JPG,AFNE01.JPG,AFNE01.JPG,4,7,47,7,,,,,,,,,,,,,,,,,,,,,,,AFNE05.jpg,AFSA08.jpg,AFSA05.jpg,AFNE11.jpg,AFNE11.jpg,FN,3,num_4,32,num_2,2.49998861375,,,2017_Oct_17_1806,60.0062935686,FEMA4ImagesEEG,001,101739,
AFNE01.JPG,AFNE01.JPG,AFNE01.JPG,AFNE01.JPG,AFNE01.JPG,AFNE01.JPG,4,8,48,0,,,,,,,,,,,,,,,,,,,,,,,AFSA06.jpg,AFNE09.jpg,AFSA10.jpg,AFNE04.jpg,AFSA10.jpg,FS,4,num_2,32,num_4,1.20010039146,,,2017_Oct_17_1806,60.0062935686,FEMA4ImagesEEG,001,101739,
AFNE01.JPG,AFNE01.JPG,AFNE01.JPG,AFNE01.JPG,AFNE01.JPG,AFNE01.JPG,4,9,49,3,,,,,,,,,,,,,,,,,,,,,,,AFSA17.jpg,AFSA11.jpg,AFNE09.jpg,AFNE19.jpg,AFSA17.jpg,FS,4,num_8,32,num_6,0.800127654318,,,2017_Oct_17_1806,60.0062935686,FEMA4ImagesEEG,001,101739,
AFNE01.JPG,AFNE01.JPG,AFNE01.JPG,AFNE01.JPG,AFNE01.JPG,AFNE01.JPG,5,0,50,8,,,,,,,,,,,,,,,,,,,,,,,AFSA19.jpg,AFNE18.jpg,AFNE11.jpg,AFSA18.jpg,AFNE18.jpg,FN,3,num_6,32,num_2,1.23340886748,,,2017_Oct_17_1806,60.0062935686,FEMA4ImagesEEG,001,101739,
AFNE01.JPG,AFNE01.JPG,AFNE01.JPG,AFNE01.JPG,AFNE01.JPG,AFNE01.JPG,5,1,51,9,,,,,,,,,,,,,,,,,,,,,,,AFNE17.jpg,AFNE11.jpg,AFSA20.jpg,AFSA01.jpg,AFNE11.jpg,FN,3,num_6,16,num_6,2.81660596672,,,2017_Oct_17_1806,60.0062935686,FEMA4ImagesEEG,001,101739,
AFNE01.JPG,AFNE01.JPG,AFNE01.JPG,AFNE01.JPG,AFNE01.JPG,AFNE01.JPG,5,2,52,1,,,,,,,,,,,,,,,,,,,,,,,AFNE03.jpg,AFNE05.jpg,AFSA10.jpg,AFSA19.jpg,AFNE05.jpg,FN,3,num_6,32,num_8,0.866754228548,,,2017_Oct_17_1806,60.0062935686,FEMA4ImagesEEG,001,101739,
AFNE01.JPG,AFNE01.JPG,AFNE01.JPG,AFNE01.JPG,AFNE01.JPG,AFNE01.JPG,5,3,53,6,,,,,,,,,,,,,,,,,,,,,,,AFSA15.jpg,AFSA07.jpg,AFNE10.jpg,AFNE18.jpg,AFNE18.jpg,FN,3,num_4,32,num_8,1.21643276739,,,2017_Oct_17_1806,60.0062935686,FEMA4ImagesEEG,001,101739,
AFNE01.JPG,AFNE01.JPG,AFNE01.JPG,AFNE01.JPG,AFNE01.JPG,AFNE01.JPG,5,4,54,4,,,,,,,,,,,,,,,,,,,,,,,AFNE05.jpg,AFSA10.jpg,AFNE03.jpg,AFSA05.jpg,AFNE05.jpg,FN,3,num_8,32,num_2,2.33321498046,,,2017_Oct_17_1806,60.0062935686,FEMA4ImagesEEG,001,101739,
AFNE01.JPG,AFNE01.JPG,AFNE01.JPG,AFNE01.JPG,AFNE01.JPG,AFNE01.JPG,5,5,55,5,,,,,,,,,,,,,,,,,,,,,,,AFNE11.jpg,AFNE07.jpg,AFSA05.jpg,AFSA03.jpg,AFNE11.jpg,FN,3,num_8,16,num_8,0.733481835723,,,2017_Oct_17_1806,60.0062935686,FEMA4ImagesEEG,001,101739,
AFNE01.JPG,AFNE01.JPG,AFNE01.JPG,AFNE01.JPG,AFNE01.JPG,AFNE01.JPG,5,6,56,3,,,,,,,,,,,,,,,,,,,,,,,AFSA14.jpg,AFSA02.jpg,AFNE16.jpg,AFNE12.jpg,AFSA02.jpg,FS,4,num_6,16,num_6,2.13346644022,,,2017_Oct_17_1806,60.0062935686,FEMA4ImagesEEG,001,101739,
AFNE01.JPG,AFNE01.JPG,AFNE01.JPG,AFNE01.JPG,AFNE01.JPG,AFNE01.JPG,5,7,57,7,,,,,,,,,,,,,,,,,,,,,,,AFNE13.jpg,AFNE20.jpg,AFSA02.jpg,AFSA19.jpg,AFSA02.jpg,FS,4,num_2,16,num_2,0.850112659748,,,2017_Oct_17_1806,60.0062935686,FEMA4ImagesEEG,001,101739,
AFNE01.JPG,AFNE01.JPG,AFNE01.JPG,AFNE01.JPG,AFNE01.JPG,AFNE01.JPG,5,8,58,2,,,,,,,,,,,,,,,,,,,,,,,AFNE04.jpg,AFNE01.jpg,AFSA17.jpg,AFSA13.jpg,AFSA13.jpg,FS,4,num_4,32,num_6,0.966891023945,,,2017_Oct_17_1806,60.0062935686,FEMA4ImagesEEG,001,101739,
AFNE01.JPG,AFNE01.JPG,AFNE01.JPG,AFNE01.JPG,AFNE01.JPG,AFNE01.JPG,5,9,59,0,,,,,,,,,,,,,,,,,,,,,,,AFSA16.jpg,AFNE16.jpg,AFNE04.jpg,AFSA01.jpg,AFSA16.jpg,FS,4,num_8,16,num_8,0.916746931725,,,2017_Oct_17_1806,60.0062935686,FEMA4ImagesEEG,001,101739,
,,,,,,,,,,,,,,,,,,,,,,,,,,,,,,,,,,,,,,,,,,,space,10.2493961277,2017_Oct_17_1806,60.0062935686,FEMA4ImagesEEG,001,101739,
AFNE01.JPG,AFNE01.JPG,AFNE01.JPG,AFNE01.JPG,AFNE01.JPG,AFNE01.JPG,,,,,0,0,0,9,,,,,,,,,,,,,,,,,,,AMSA02.jpg,AMSA09.jpg,AMNE13.jpg,AMNE20.jpg,AMSA09.jpg,MS,2,num_6,16,num_6,0.850096622777,,,2017_Oct_17_1806,60.0062935686,FEMA4ImagesEEG,001,101739,
AFNE01.JPG,AFNE01.JPG,AFNE01.JPG,AFNE01.JPG,AFNE01.JPG,AFNE01.JPG,,,,,0,1,1,7,,,,,,,,,,,,,,,,,,,AMNE15.jpg,AMSA08.jpg,AMNE05.jpg,AMSA13.jpg,AMSA13.jpg,MS,2,num_4,32,num_6,0.633320343382,,,2017_Oct_17_1806,60.0062935686,FEMA4ImagesEEG,001,101739,
AFNE01.JPG,AFNE01.JPG,AFNE01.JPG,AFNE01.JPG,AFNE01.JPG,AFNE01.JPG,,,,,0,2,2,5,,,,,,,,,,,,,,,,,,,AMNE20.jpg,AMSA15.jpg,AMSA04.jpg,AMNE01.jpg,AMSA15.jpg,MS,2,num_6,16,num_6,0.6667725107,,,2017_Oct_17_1806,60.0062935686,FEMA4ImagesEEG,001,101739,
AFNE01.JPG,AFNE01.JPG,AFNE01.JPG,AFNE01.JPG,AFNE01.JPG,AFNE01.JPG,,,,,0,3,3,0,,,,,,,,,,,,,,,,,,,AMNE01.jpg,AMNE19.jpg,AMSA19.jpg,AMSA04.jpg,AMSA04.jpg,MS,2,num_4,16,num_4,0.683352176777,,,2017_Oct_17_1806,60.0062935686,FEMA4ImagesEEG,001,101739,
AFNE01.JPG,AFNE01.JPG,AFNE01.JPG,AFNE01.JPG,AFNE01.JPG,AFNE01.JPG,,,,,0,4,4,3,,,,,,,,,,,,,,,,,,,AMNE18.jpg,AMNE04.jpg,AMSA17.jpg,AMSA13.jpg,AMSA17.jpg,MS,2,num_2,32,num_4,0.850342950704,,,2017_Oct_17_1806,60.0062935686,FEMA4ImagesEEG,001,101739,
AFNE01.JPG,AFNE01.JPG,AFNE01.JPG,AFNE01.JPG,AFNE01.JPG,AFNE01.JPG,,,,,0,5,5,8,,,,,,,,,,,,,,,,,,,AMNE15.jpg,AMSA20.jpg,AMNE04.jpg,AMSA19.jpg,AMNE15.jpg,MN,1,num_8,16,num_8,0.75014329037,,,2017_Oct_17_1806,60.0062935686,FEMA4ImagesEEG,001,101739,
AFNE01.JPG,AFNE01.JPG,AFNE01.JPG,AFNE01.JPG,AFNE01.JPG,AFNE01.JPG,,,,,0,6,6,2,,,,,,,,,,,,,,,,,,,AMSA09.jpg,AMNE17.jpg,AMNE07.jpg,AMSA20.jpg,AMNE17.jpg,MN,1,num_6,32,num_2,2.91661574927,,,2017_Oct_17_1806,60.0062935686,FEMA4ImagesEEG,001,101739,
AFNE01.JPG,AFNE01.JPG,AFNE01.JPG,AFNE01.JPG,AFNE01.JPG,AFNE01.JPG,,,,,0,7,7,4,,,,,,,,,,,,,,,,,,,AMSA16.jpg,AMNE17.jpg,AMNE14.jpg,AMSA14.jpg,AMNE17.jpg,MN,1,num_6,32,num_2,1.06675647373,,,2017_Oct_17_1806,60.0062935686,FEMA4ImagesEEG,001,101739,
AFNE01.JPG,AFNE01.JPG,AFNE01.JPG,AFNE01.JPG,AFNE01.JPG,AFNE01.JPG,,,,,0,8,8,6,,,,,,,,,,,,,,,,,,,AMNE15.jpg,AMNE02.jpg,AMSA10.jpg,AMSA06.jpg,AMSA06.jpg,MS,2,num_4,32,num_2,0.650129979684,,,2017_Oct_17_1806,60.0062935686,FEMA4ImagesEEG,001,101739,
AFNE01.JPG,AFNE01.JPG,AFNE01.JPG,AFNE01.JPG,AFNE01.JPG,AFNE01.JPG,,,,,0,9,9,1,,,,,,,,,,,,,,,,,,,AMSA12.jpg,AMSA18.jpg,AMNE04.jpg,AMNE11.jpg,AMSA12.jpg,MS,2,num_8,32,num_6,0.73349530678,,,2017_Oct_17_1806,60.0062935686,FEMA4ImagesEEG,001,101739,
AFNE01.JPG,AFNE01.JPG,AFNE01.JPG,AFNE01.JPG,AFNE01.JPG,AFNE01.JPG,,,,,1,0,10,4,,,,,,,,,,,,,,,,,,,AMNE04.jpg,AMSA01.jpg,AMNE03.jpg,AMSA20.jpg,AMSA20.jpg,MS,2,num_4,32,num_8,1.23339026459,,,2017_Oct_17_1806,60.0062935686,FEMA4ImagesEEG,001,101739,
AFNE01.JPG,AFNE01.JPG,AFNE01.JPG,AFNE01.JPG,AFNE01.JPG,AFNE01.JPG,,,,,1,1,11,9,,,,,,,,,,,,,,,,,,,AMNE20.jpg,AMSA11.jpg,AMSA06.jpg,AMNE12.jpg,AMNE20.jpg,MN,1,num_8,16,num_8,0.733432121098,,,2017_Oct_17_1806,60.0062935686,FEMA4ImagesEEG,001,101739,
AFNE01.JPG,AFNE01.JPG,AFNE01.JPG,AFNE01.JPG,AFNE01.JPG,AFNE01.JPG,,,,,1,2,12,6,,,,,,,,,,,,,,,,,,,AMNE06.jpg,AMSA18.jpg,AMSA02.jpg,AMNE10.jpg,AMSA18.jpg,MS,2,num_6,32,num_4,2.38331352767,,,2017_Oct_17_1806,60.0062935686,FEMA4ImagesEEG,001,101739,
AFNE01.JPG,AFNE01.JPG,AFNE01.JPG,AFNE01.JPG,AFNE01.JPG,AFNE01.JPG,,,,,1,3,13,5,,,,,,,,,,,,,,,,,,,AMNE13.jpg,AMSA06.jpg,AMNE11.jpg,AMSA03.jpg,AMNE11.jpg,MN,1,num_2,16,num_2,1.96663090421,,,2017_Oct_17_1806,60.0062935686,FEMA4ImagesEEG,001,101739,
AFNE01.JPG,AFNE01.JPG,AFNE01.JPG,AFNE01.JPG,AFNE01.JPG,AFNE01.JPG,,,,,1,4,14,7,,,,,,,,,,,,,,,,,,,AMSA08.jpg,AMNE09.jpg,AMNE16.jpg,AMSA19.jpg,AMNE09.jpg,MN,1,num_6,32,num_2,0.616797448198,,,2017_Oct_17_1806,60.0062935686,FEMA4ImagesEEG,001,101739,
AFNE01.JPG,AFNE01.JPG,AFNE01.JPG,AFNE01.JPG,AFNE01.JPG,AFNE01.JPG,,,,,1,5,15,3,,,,,,,,,,,,,,,,,,,AMNE16.jpg,AMNE11.jpg,AMSA01.jpg,AMSA07.jpg,AMSA01.jpg,MS,2,num_2,32,num_6,1.51672864957,,,2017_Oct_17_1806,60.0062935686,FEMA4ImagesEEG,001,101739,
AFNE01.JPG,AFNE01.JPG,AFNE01.JPG,AFNE01.JPG,AFNE01.JPG,AFNE01.JPG,,,,,1,6,16,2,,,,,,,,,,,,,,,,,,,AMSA13.jpg,AMSA10.jpg,AMNE08.jpg,AMNE19.jpg,AMSA10.jpg,MS,2,num_6,32,num_8,0.65018193948,,,2017_Oct_17_1806,60.0062935686,FEMA4ImagesEEG,001,101739,
AFNE01.JPG,AFNE01.JPG,AFNE01.JPG,AFNE01.JPG,AFNE01.JPG,AFNE01.JPG,,,,,1,7,17,1,,,,,,,,,,,,,,,,,,,AMSA06.jpg,AMSA08.jpg,AMNE18.jpg,AMNE07.jpg,AMSA08.jpg,MS,2,num_6,32,num_8,1.08344198384,,,2017_Oct_17_1806,60.0062935686,FEMA4ImagesEEG,001,101739,
AFNE01.JPG,AFNE01.JPG,AFNE01.JPG,AFNE01.JPG,AFNE01.JPG,AFNE01.JPG,,,,,1,8,18,0,,,,,,,,,,,,,,,,,,,AMSA05.jpg,AMSA06.jpg,AMNE03.jpg,AMNE08.jpg,AMSA05.jpg,MS,2,num_8,32,num_6,1.51673923398,,,2017_Oct_17_1806,60.0062935686,FEMA4ImagesEEG,001,101739,
AFNE01.JPG,AFNE01.JPG,AFNE01.JPG,AFNE01.JPG,AFNE01.JPG,AFNE01.JPG,,,,,1,9,19,8,,,,,,,,,,,,,,,,,,,AMSA03.jpg,AMNE12.jpg,AMSA04.jpg,AMNE10.jpg,AMNE12.jpg,MN,1,num_6,32,num_4,0.950109291985,,,2017_Oct_17_1806,60.0062935686,FEMA4ImagesEEG,001,101739,
AFNE01.JPG,AFNE01.JPG,AFNE01.JPG,AFNE01.JPG,AFNE01.JPG,AFNE01.JPG,,,,,2,0,20,9,,,,,,,,,,,,,,,,,,,AMNE14.jpg,AMSA03.jpg,AMNE01.jpg,AMSA01.jpg,AMNE14.jpg,MN,1,num_8,16,num_8,0.883412155064,,,2017_Oct_17_1806,60.0062935686,FEMA4ImagesEEG,001,101739,
AFNE01.JPG,AFNE01.JPG,AFNE01.JPG,AFNE01.JPG,AFNE01.JPG,AFNE01.JPG,,,,,2,1,21,6,,,,,,,,,,,,,,,,,,,AMNE10.jpg,AMNE02.jpg,AMSA07.jpg,AMSA11.jpg,AMSA07.jpg,MS,2,num_2,32,num_8,1.58336324229,,,2017_Oct_17_1806,60.0062935686,FEMA4ImagesEEG,001,101739,
AFNE01.JPG,AFNE01.JPG,AFNE01.JPG,AFNE01.JPG,AFNE01.JPG,AFNE01.JPG,,,,,2,2,22,5,,,,,,,,,,,,,,,,,,,AMSA12.jpg,AMNE01.jpg,AMNE07.jpg,AMSA11.jpg,AMSA11.jpg,MS,2,num_4,32,num_8,0.900085477075,,,2017_Oct_17_1806,60.0062935686,FEMA4ImagesEEG,001,101739,
AFNE01.JPG,AFNE01.JPG,AFNE01.JPG,AFNE01.JPG,AFNE01.JPG,AFNE01.JPG,,,,,2,3,23,8,,,,,,,,,,,,,,,,,,,AMSA12.jpg,AMNE04.jpg,AMSA08.jpg,AMNE17.jpg,AMSA12.jpg,MS,2,num_8,32,num_4,0.866783736583,,,2017_Oct_17_1806,60.0062935686,FEMA4ImagesEEG,001,101739,
AFNE01.JPG,AFNE01.JPG,AFNE01.JPG,AFNE01.JPG,AFNE01.JPG,AFNE01.JPG,,,,,2,4,24,7,,,,,,,,,,,,,,,,,,,AMSA20.jpg,AMSA19.jpg,AMNE19.jpg,AMNE20.jpg,AMSA20.jpg,MS,2,num_8,32,num_4,0.933455535083,,,2017_Oct_17_1806,60.0062935686,FEMA4ImagesEEG,001,101739,
AFNE01.JPG,AFNE01.JPG,AFNE01.JPG,AFNE01.JPG,AFNE01.JPG,AFNE01.JPG,,,,,2,5,25,1,,,,,,,,,,,,,,,,,,,AMNE08.jpg,AMSA14.jpg,AMNE14.jpg,AMSA06.jpg,AMNE14.jpg,MN,1,num_2,32,num_8,1.18355921413,,,2017_Oct_17_1806,60.0062935686,FEMA4ImagesEEG,001,101739,
AFNE01.JPG,AFNE01.JPG,AFNE01.JPG,AFNE01.JPG,AFNE01.JPG,AFNE01.JPG,,,,,2,6,26,3,,,,,,,,,,,,,,,,,,,AMSA04.jpg,AMNE17.jpg,AMNE13.jpg,AMSA11.jpg,AMNE17.jpg,MN,1,num_6,16,num_6,1.68373578122,,,2017_Oct_17_1806,60.0062935686,FEMA4ImagesEEG,001,101739,
AFNE01.JPG,AFNE01.JPG,AFNE01.JPG,AFNE01.JPG,AFNE01.JPG,AFNE01.JPG,,,,,2,7,27,4,,,,,,,,,,,,,,,,,,,AMNE17.jpg,AMSA05.jpg,AMNE04.jpg,AMSA01.jpg,AMNE04.jpg,MN,1,num_2,16,num_2,1.20013438985,,,2017_Oct_17_1806,60.0062935686,FEMA4ImagesEEG,001,101739,
AFNE01.JPG,AFNE01.JPG,AFNE01.JPG,AFNE01.JPG,AFNE01.JPG,AFNE01.JPG,,,,,2,8,28,0,,,,,,,,,,,,,,,,,,,AMNE08.jpg,AMSA17.jpg,AMNE01.jpg,AMSA11.jpg,AMNE08.jpg,MN,1,num_8,16,num_8,0.70017207674,,,2017_Oct_17_1806,60.0062935686,FEMA4ImagesEEG,001,101739,
AFNE01.JPG,AFNE01.JPG,AFNE01.JPG,AFNE01.JPG,AFNE01.JPG,AFNE01.JPG,,,,,2,9,29,2,,,,,,,,,,,,,,,,,,,AMSA02.jpg,AMNE04.jpg,AMNE20.jpg,AMSA18.jpg,AMSA18.jpg,MS,2,num_4,32,num_8,1.03350925895,,,2017_Oct_17_1806,60.0062935686,FEMA4ImagesEEG,001,101739,
AFNE01.JPG,AFNE01.JPG,AFNE01.JPG,AFNE01.JPG,AFNE01.JPG,AFNE01.JPG,,,,,3,0,30,2,,,,,,,,,,,,,,,,,,,AMSA13.jpg,AMNE11.jpg,AMNE19.jpg,AMSA20.jpg,AMNE19.jpg,MN,1,num_2,32,num_6,1.01674356396,,,2017_Oct_17_1806,60.0062935686,FEMA4ImagesEEG,001,101739,
AFNE01.JPG,AFNE01.JPG,AFNE01.JPG,AFNE01.JPG,AFNE01.JPG,AFNE01.JPG,,,,,3,1,31,5,,,,,,,,,,,,,,,,,,,AMSA12.jpg,AMSA19.jpg,AMNE18.jpg,AMNE20.jpg,AMNE20.jpg,MN,1,num_4,32,num_6,3.09979681153,,,2017_Oct_17_1806,60.0062935686,FEMA4ImagesEEG,001,101739,
AFNE01.JPG,AFNE01.JPG,AFNE01.JPG,AFNE01.JPG,AFNE01.JPG,AFNE01.JPG,,,,,3,2,32,8,,,,,,,,,,,,,,,,,,,AMNE03.jpg,AMSA10.jpg,AMSA13.jpg,AMNE08.jpg,AMSA10.jpg,MS,2,num_6,32,num_2,0.850134470034,,,2017_Oct_17_1806,60.0062935686,FEMA4ImagesEEG,001,101739,
AFNE01.JPG,AFNE01.JPG,AFNE01.JPG,AFNE01.JPG,AFNE01.JPG,AFNE01.JPG,,,,,3,3,33,9,,,,,,,,,,,,,,,,,,,AMNE19.jpg,AMNE11.jpg,AMSA07.jpg,AMSA06.jpg,AMNE19.jpg,MN,1,num_8,32,num_6,0.700317371735,,,2017_Oct_17_1806,60.0062935686,FEMA4ImagesEEG,001,101739,
AFNE01.JPG,AFNE01.JPG,AFNE01.JPG,AFNE01.JPG,AFNE01.JPG,AFNE01.JPG,,,,,3,4,34,4,,,,,,,,,,,,,,,,,,,AMNE19.jpg,AMSA08.jpg,AMNE20.jpg,AMSA01.jpg,AMNE19.jpg,MN,1,num_8,16,num_8,0.633486807183,,,2017_Oct_17_1806,60.0062935686,FEMA4ImagesEEG,001,101739,
AFNE01.JPG,AFNE01.JPG,AFNE01.JPG,AFNE01.JPG,AFNE01.JPG,AFNE01.JPG,,,,,3,5,35,0,,,,,,,,,,,,,,,,,,,AMSA10.jpg,AMSA07.jpg,AMNE06.jpg,AMNE13.jpg,AMSA07.jpg,MS,2,num_6,16,num_6,0.983449841955,,,2017_Oct_17_1806,60.0062935686,FEMA4ImagesEEG,001,101739,
AFNE01.JPG,AFNE01.JPG,AFNE01.JPG,AFNE01.JPG,AFNE01.JPG,AFNE01.JPG,,,,,3,6,36,1,,,,,,,,,,,,,,,,,,,AMSA09.jpg,AMNE10.jpg,AMSA08.jpg,AMNE08.jpg,AMSA08.jpg,MS,2,num_2,32,num_4,1.10042930982,,,2017_Oct_17_1806,60.0062935686,FEMA4ImagesEEG,001,101739,
AFNE01.JPG,AFNE01.JPG,AFNE01.JPG,AFNE01.JPG,AFNE01.JPG,AFNE01.JPG,,,,,3,7,37,3,,,,,,,,,,,,,,,,,,,AMSA13.jpg,AMNE03.jpg,AMSA07.jpg,AMNE06.jpg,AMNE06.jpg,MN,1,num_4,32,num_2,0.766827517524,,,2017_Oct_17_1806,60.0062935686,FEMA4ImagesEEG,001,101739,
AFNE01.JPG,AFNE01.JPG,AFNE01.JPG,AFNE01.JPG,AFNE01.JPG,AFNE01.JPG,,,,,3,8,38,7,,,,,,,,,,,,,,,,,,,AMNE10.jpg,AMNE16.jpg,AMSA11.jpg,AMSA12.jpg,AMNE16.jpg,MN,1,num_6,16,num_6,0.666773793659,,,2017_Oct_17_1806,60.0062935686,FEMA4ImagesEEG,001,101739,
AFNE01.JPG,AFNE01.JPG,AFNE01.JPG,AFNE01.JPG,AFNE01.JPG,AFNE01.JPG,,,,,3,9,39,6,,,,,,,,,,,,,,,,,,,AMSA20.jpg,AMNE13.jpg,AMSA12.jpg,AMNE03.jpg,AMSA20.jpg,MS,2,num_8,16,num_8,0.583561138563,,,2017_Oct_17_1806,60.0062935686,FEMA4ImagesEEG,001,101739,
AFNE01.JPG,AFNE01.JPG,AFNE01.JPG,AFNE01.JPG,AFNE01.JPG,AFNE01.JPG,,,,,4,0,40,6,,,,,,,,,,,,,,,,,,,AMSA16.jpg,AMNE05.jpg,AMSA04.jpg,AMNE16.jpg,AMNE05.jpg,MN,1,num_6,32,num_4,0.850138318907,,,2017_Oct_17_1806,60.0062935686,FEMA4ImagesEEG,001,101739,
AFNE01.JPG,AFNE01.JPG,AFNE01.JPG,AFNE01.JPG,AFNE01.JPG,AFNE01.JPG,,,,,4,1,41,1,,,,,,,,,,,,,,,,,,,AMSA03.jpg,AMNE16.jpg,AMNE14.jpg,AMSA19.jpg,AMSA19.jpg,MS,2,num_4,32,num_6,0.633613820024,,,2017_Oct_17_1806,60.0062935686,FEMA4ImagesEEG,001,101739,
AFNE01.JPG,AFNE01.JPG,AFNE01.JPG,AFNE01.JPG,AFNE01.JPG,AFNE01.JPG,,,,,4,2,42,0,,,,,,,,,,,,,,,,,,,AMSA10.jpg,AMNE11.jpg,AMSA11.jpg,AMNE16.jpg,AMNE16.jpg,MN,1,num_4,16,num_4,1.68347085039,,,2017_Oct_17_1806,60.0062935686,FEMA4ImagesEEG,001,101739,
AFNE01.JPG,AFNE01.JPG,AFNE01.JPG,AFNE01.JPG,AFNE01.JPG,AFNE01.JPG,,,,,4,3,43,4,,,,,,,,,,,,,,,,,,,AMSA02.jpg,AMSA10.jpg,AMNE17.jpg,AMNE10.jpg,AMSA10.jpg,MS,2,num_6,32,num_8,0.46673402196,,,2017_Oct_17_1806,60.0062935686,FEMA4ImagesEEG,001,101739,
AFNE01.JPG,AFNE01.JPG,AFNE01.JPG,AFNE01.JPG,AFNE01.JPG,AFNE01.JPG,,,,,4,4,44,3,,,,,,,,,,,,,,,,,,,AMNE19.jpg,AMSA15.jpg,AMNE09.jpg,AMSA10.jpg,AMNE19.jpg,MN,1,num_8,32,num_4,1.06674364415,,,2017_Oct_17_1806,60.0062935686,FEMA4ImagesEEG,001,101739,
AFNE01.JPG,AFNE01.JPG,AFNE01.JPG,AFNE01.JPG,AFNE01.JPG,AFNE01.JPG,,,,,4,5,45,5,,,,,,,,,,,,,,,,,,,AMSA20.jpg,AMNE10.jpg,AMNE15.jpg,AMSA17.jpg,AMNE15.jpg,MN,1,num_2,32,num_6,0.783512386159,,,2017_Oct_17_1806,60.0062935686,FEMA4ImagesEEG,001,101739,
AFNE01.JPG,AFNE01.JPG,AFNE01.JPG,AFNE01.JPG,AFNE01.JPG,AFNE01.JPG,,,,,4,6,46,7,,,,,,,,,,,,,,,,,,,AMSA01.jpg,AMNE13.jpg,AMNE14.jpg,AMSA10.jpg,AMNE14.jpg,MN,1,num_2,32,num_8,1.25008700059,,,2017_Oct_17_1806,60.0062935686,FEMA4ImagesEEG,001,101739,
AFNE01.JPG,AFNE01.JPG,AFNE01.JPG,AFNE01.JPG,AFNE01.JPG,AFNE01.JPG,,,,,4,7,47,9,,,,,,,,,,,,,,,,,,,AMSA04.jpg,AMSA06.jpg,AMNE14.jpg,AMNE19.jpg,AMSA04.jpg,MS,2,num_8,32,num_2,0.883473737049,,,2017_Oct_17_1806,60.0062935686,FEMA4ImagesEEG,001,101739,
AFNE01.JPG,AFNE01.JPG,AFNE01.JPG,AFNE01.JPG,AFNE01.JPG,AFNE01.JPG,,,,,4,8,48,2,,,,,,,,,,,,,,,,,,,AMSA10.jpg,AMNE08.jpg,AMNE04.jpg,AMSA05.jpg,AMSA10.jpg,MS,2,num_8,32,num_4,0.916774515325,,,2017_Oct_17_1806,60.0062935686,FEMA4ImagesEEG,001,101739,
AFNE01.JPG,AFNE01.JPG,AFNE01.JPG,AFNE01.JPG,AFNE01.JPG,AFNE01.JPG,,,,,4,9,49,8,,,,,,,,,,,,,,,,,,,AMNE13.jpg,AMNE03.jpg,AMSA19.jpg,AMSA06.jpg,AMSA06.jpg,MS,2,num_4,32,num_6,1.00011546622,,,2017_Oct_17_1806,60.0062935686,FEMA4ImagesEEG,001,101739,
AFNE01.JPG,AFNE01.JPG,AFNE01.JPG,AFNE01.JPG,AFNE01.JPG,AFNE01.JPG,,,,,5,0,50,4,,,,,,,,,,,,,,,,,,,AMSA02.jpg,AMNE19.jpg,AMSA17.jpg,AMNE08.jpg,AMNE08.jpg,MN,1,num_4,32,num_8,1.41664862507,,,2017_Oct_17_1806,60.0062935686,FEMA4ImagesEEG,001,101739,
AFNE01.JPG,AFNE01.JPG,AFNE01.JPG,AFNE01.JPG,AFNE01.JPG,AFNE01.JPG,,,,,5,1,51,2,,,,,,,,,,,,,,,,,,,AMNE03.jpg,AMNE12.jpg,AMSA07.jpg,AMSA20.jpg,AMNE03.jpg,MN,1,num_8,32,num_6,0.816730734379,,,2017_Oct_17_1806,60.0062935686,FEMA4ImagesEEG,001,101739,
AFNE01.JPG,AFNE01.JPG,AFNE01.JPG,AFNE01.JPG,AFNE01.JPG,AFNE01.JPG,,,,,5,2,52,0,,,,,,,,,,,,,,,,,,,AMNE09.jpg,AMNE18.jpg,AMSA05.jpg,AMSA15.jpg,AMSA05.jpg,MS,2,num_2,32,num_8,1.10010568366,,,2017_Oct_17_1806,60.0062935686,FEMA4ImagesEEG,001,101739,
AFNE01.JPG,AFNE01.JPG,AFNE01.JPG,AFNE01.JPG,AFNE01.JPG,AFNE01.JPG,,,,,5,3,53,1,,,,,,,,,,,,,,,,,,,AMNE11.jpg,AMSA05.jpg,AMNE01.jpg,AMSA18.jpg,AMSA18.jpg,MS,2,num_4,32,num_8,1.9165355644,,,2017_Oct_17_1806,60.0062935686,FEMA4ImagesEEG,001,101739,
AFNE01.JPG,AFNE01.JPG,AFNE01.JPG,AFNE01.JPG,AFNE01.JPG,AFNE01.JPG,,,,,5,4,54,8,,,,,,,,,,,,,,,,,,,AMSA07.jpg,AMSA09.jpg,AMNE03.jpg,AMNE16.jpg,AMSA09.jpg,MS,2,num_6,16,num_6,1.21677403421,,,2017_Oct_17_1806,60.0062935686,FEMA4ImagesEEG,001,101739,
AFNE01.JPG,AFNE01.JPG,AFNE01.JPG,AFNE01.JPG,AFNE01.JPG,AFNE01.JPG,,,,,5,5,55,6,,,,,,,,,,,,,,,,,,,AMNE15.jpg,AMNE16.jpg,AMSA18.jpg,AMSA20.jpg,AMNE16.jpg,MN,1,num_6,16,num_6,1.41670635818,,,2017_Oct_17_1806,60.0062935686,FEMA4ImagesEEG,001,101739,
AFNE01.JPG,AFNE01.JPG,AFNE01.JPG,AFNE01.JPG,AFNE01.JPG,AFNE01.JPG,,,,,5,6,56,7,,,,,,,,,,,,,,,,,,,AMSA19.jpg,AMNE11.jpg,AMNE09.jpg,AMSA12.jpg,AMNE11.jpg,MN,1,num_6,32,num_2,2.63335658695,,,2017_Oct_17_1806,60.0062935686,FEMA4ImagesEEG,001,101739,
AFNE01.JPG,AFNE01.JPG,AFNE01.JPG,AFNE01.JPG,AFNE01.JPG,AFNE01.JPG,,,,,5,7,57,9,,,,,,,,,,,,,,,,,,,AMNE16.jpg,AMSA16.jpg,AMNE02.jpg,AMSA08.jpg,AMSA08.jpg,MS,2,num_4,16,num_4,0.650006815715,,,2017_Oct_17_1806,60.0062935686,FEMA4ImagesEEG,001,101739,
AFNE01.JPG,AFNE01.JPG,AFNE01.JPG,AFNE01.JPG,AFNE01.JPG,AFNE01.JPG,,,,,5,8,58,5,,,,,,,,,,,,,,,,,,,AMSA05.jpg,AMNE02.jpg,AMSA19.jpg,AMNE18.jpg,AMNE02.jpg,MN,1,num_6,16,num_6,0.550155478471,,,2017_Oct_17_1806,60.0062935686,FEMA4ImagesEEG,001,101739,
AFNE01.JPG,AFNE01.JPG,AFNE01.JPG,AFNE01.JPG,AFNE01.JPG,AFNE01.JPG,,,,,5,9,59,3,,,,,,,,,,,,,,,,,,,AMNE04.jpg,AMSA10.jpg,AMSA04.jpg,AMNE02.jpg,AMNE02.jpg,MN,1,num_4,16,num_4,1.18328466111,,,2017_Oct_17_1806,60.0062935686,FEMA4ImagesEEG,001,101739,
,,,,,,,,,,,,,,,,,,,,,,,,,,,,,,,,,,,,,,,,,,,space,11.0659668131,2017_Oct_17_1806,60.0062935686,FEMA4ImagesEEG,001,101739,
AFNE01.JPG,AFNE01.JPG,AFNE01.JPG,AFNE01.JPG,AFNE01.JPG,AFNE01.JPG,,,,,,,,,0,0,0,6,,,,,,,,,,,,,,,AFSA12.jpg,AFSA08.jpg,AFNE06.jpg,AFNE13.jpg,AFSA12.jpg,FS,4,num_8,16,num_8,0.583485764779,,,2017_Oct_17_1806,60.0062935686,FEMA4ImagesEEG,001,101739,
AFNE01.JPG,AFNE01.JPG,AFNE01.JPG,AFNE01.JPG,AFNE01.JPG,AFNE01.JPG,,,,,,,,,0,1,1,0,,,,,,,,,,,,,,,AFSA18.jpg,AFNE15.jpg,AFNE07.jpg,AFSA04.jpg,AFSA04.jpg,FS,4,num_4,32,num_2,1.06676898257,,,2017_Oct_17_1806,60.0062935686,FEMA4ImagesEEG,001,101739,
AFNE01.JPG,AFNE01.JPG,AFNE01.JPG,AFNE01.JPG,AFNE01.JPG,AFNE01.JPG,,,,,,,,,0,2,2,2,,,,,,,,,,,,,,,AFNE19.jpg,AFSA19.jpg,AFSA09.jpg,AFNE11.jpg,AFSA09.jpg,FS,4,num_2,32,num_6,0.666791755069,,,2017_Oct_17_1806,60.0062935686,FEMA4ImagesEEG,001,101739,
AFNE01.JPG,AFNE01.JPG,AFNE01.JPG,AFNE01.JPG,AFNE01.JPG,AFNE01.JPG,,,,,,,,,0,3,3,5,,,,,,,,,,,,,,,AFSA15.jpg,AFNE02.jpg,AFNE01.jpg,AFSA13.jpg,AFNE01.jpg,FN,3,num_2,16,num_2,2.2500164379,,,2017_Oct_17_1806,60.0062935686,FEMA4ImagesEEG,001,101739,
AFNE01.JPG,AFNE01.JPG,AFNE01.JPG,AFNE01.JPG,AFNE01.JPG,AFNE01.JPG,,,,,,,,,0,4,4,3,,,,,,,,,,,,,,,AFSA08.jpg,AFSA10.jpg,AFNE02.jpg,AFNE05.jpg,AFNE02.jpg,FN,3,num_2,32,num_6,0.433493221972,,,2017_Oct_17_1806,60.0062935686,FEMA4ImagesEEG,001,101739,
AFNE01.JPG,AFNE01.JPG,AFNE01.JPG,AFNE01.JPG,AFNE01.JPG,AFNE01.JPG,,,,,,,,,0,5,5,8,,,,,,,,,,,,,,,AFNE17.jpg,AFSA07.jpg,AFNE02.jpg,AFSA15.jpg,AFSA07.jpg,FS,4,num_6,32,num_4,0.816758638717,,,2017_Oct_17_1806,60.0062935686,FEMA4ImagesEEG,001,101739,
AFNE01.JPG,AFNE01.JPG,AFNE01.JPG,AFNE01.JPG,AFNE01.JPG,AFNE01.JPG,,,,,,,,,0,6,6,4,,,,,,,,,,,,,,,AFNE18.jpg,AFNE13.jpg,AFSA04.jpg,AFSA18.jpg,AFSA18.jpg,FS,4,num_4,32,num_8,0.90013326726,,,2017_Oct_17_1806,60.0062935686,FEMA4ImagesEEG,001,101739,
AFNE01.JPG,AFNE01.JPG,AFNE01.JPG,AFNE01.JPG,AFNE01.JPG,AFNE01.JPG,,,,,,,,,0,7,7,1,,,,,,,,,,,,,,,AFSA18.jpg,AFSA13.jpg,AFNE12.jpg,AFNE10.jpg,AFSA13.jpg,FS,4,num_6,16,num_6,0.816650228768,,,2017_Oct_17_1806,60.0062935686,FEMA4ImagesEEG,001,101739,
AFNE01.JPG,AFNE01.JPG,AFNE01.JPG,AFNE01.JPG,AFNE01.JPG,AFNE01.JPG,,,,,,,,,0,8,8,7,,,,,,,,,,,,,,,AFSA13.jpg,AFNE02.jpg,AFSA04.jpg,AFNE20.jpg,AFSA13.jpg,FS,4,num_8,16,num_8,0.916864643121,,,2017_Oct_17_1806,60.0062935686,FEMA4ImagesEEG,001,101739,
AFNE01.JPG,AFNE01.JPG,AFNE01.JPG,AFNE01.JPG,AFNE01.JPG,AFNE01.JPG,,,,,,,,,0,9,9,9,,,,,,,,,,,,,,,AFNE07.jpg,AFSA13.jpg,AFNE02.jpg,AFSA09.jpg,AFSA13.jpg,FS,4,num_6,16,num_6,0.933461629134,,,2017_Oct_17_1806,60.0062935686,FEMA4ImagesEEG,001,101739,
AFNE01.JPG,AFNE01.JPG,AFNE01.JPG,AFNE01.JPG,AFNE01.JPG,AFNE01.JPG,,,,,,,,,1,0,10,6,,,,,,,,,,,,,,,AFSA03.jpg,AFNE02.jpg,AFSA06.jpg,AFNE04.jpg,AFSA03.jpg,FS,4,num_8,32,num_4,1.26673081456,,,2017_Oct_17_1806,60.0062935686,FEMA4ImagesEEG,001,101739,
AFNE01.JPG,AFNE01.JPG,AFNE01.JPG,AFNE01.JPG,AFNE01.JPG,AFNE01.JPG,,,,,,,,,1,1,11,2,,,,,,,,,,,,,,,AFSA08.jpg,AFNE15.jpg,AFNE03.jpg,AFSA12.jpg,AFNE15.jpg,FN,3,num_6,32,num_4,1.20009750481,,,2017_Oct_17_1806,60.0062935686,FEMA4ImagesEEG,001,101739,
AFNE01.JPG,AFNE01.JPG,AFNE01.JPG,AFNE01.JPG,AFNE01.JPG,AFNE01.JPG,,,,,,,,,1,2,12,1,,,,,,,,,,,,,,,AFSA17.jpg,AFSA08.jpg,AFNE10.jpg,AFNE06.jpg,AFNE06.jpg,FN,3,num_4,32,num_6,1.25018161874,,,2017_Oct_17_1806,60.0062935686,FEMA4ImagesEEG,001,101739,
AFNE01.JPG,AFNE01.JPG,AFNE01.JPG,AFNE01.JPG,AFNE01.JPG,AFNE01.JPG,,,,,,,,,1,3,13,9,,,,,,,,,,,,,,,AFNE03.jpg,AFSA19.jpg,AFNE17.jpg,AFSA12.jpg,AFNE17.jpg,FN,3,num_2,32,num_4,1.78338088296,,,2017_Oct_17_1806,60.0062935686,FEMA4ImagesEEG,001,101739,
AFNE01.JPG,AFNE01.JPG,AFNE01.JPG,AFNE01.JPG,AFNE01.JPG,AFNE01.JPG,,,,,,,,,1,4,14,3,,,,,,,,,,,,,,,AFSA12.jpg,AFSA20.jpg,AFNE03.jpg,AFNE10.jpg,AFSA20.jpg,FS,4,num_6,16,num_6,0.666794000244,,,2017_Oct_17_1806,60.0062935686,FEMA4ImagesEEG,001,101739,
AFNE01.JPG,AFNE01.JPG,AFNE01.JPG,AFNE01.JPG,AFNE01.JPG,AFNE01.JPG,,,,,,,,,1,5,15,5,,,,,,,,,,,,,,,AFSA12.jpg,AFNE19.jpg,AFSA04.jpg,AFNE07.jpg,AFNE07.jpg,FN,3,num_4,32,num_2,1.16671429648,,,2017_Oct_17_1806,60.0062935686,FEMA4ImagesEEG,001,101739,
AFNE01.JPG,AFNE01.JPG,AFNE01.JPG,AFNE01.JPG,AFNE01.JPG,AFNE01.JPG,,,,,,,,,1,6,16,8,,,,,,,,,,,,,,,AFSA03.jpg,AFNE11.jpg,AFNE02.jpg,AFSA06.jpg,AFNE02.jpg,FN,3,num_2,32,num_4,0.750158365128,,,2017_Oct_17_1806,60.0062935686,FEMA4ImagesEEG,001,101739,
AFNE01.JPG,AFNE01.JPG,AFNE01.JPG,AFNE01.JPG,AFNE01.JPG,AFNE01.JPG,,,,,,,,,1,7,17,7,,,,,,,,,,,,,,,AFSA19.jpg,AFNE10.jpg,AFNE05.jpg,AFSA09.jpg,AFSA09.jpg,FS,4,num_4,32,num_8,1.16677299181,,,2017_Oct_17_1806,60.0062935686,FEMA4ImagesEEG,001,101739,
AFNE01.JPG,AFNE01.JPG,AFNE01.JPG,AFNE01.JPG,AFNE01.JPG,AFNE01.JPG,,,,,,,,,1,8,18,4,,,,,,,,,,,,,,,AFNE06.jpg,AFSA13.jpg,AFSA14.jpg,AFNE16.jpg,AFSA14.jpg,FS,4,num_2,32,num_8,0.933465157268,,,2017_Oct_17_1806,60.0062935686,FEMA4ImagesEEG,001,101739,
AFNE01.JPG,AFNE01.JPG,AFNE01.JPG,AFNE01.JPG,AFNE01.JPG,AFNE01.JPG,,,,,,,,,1,9,19,0,,,,,,,,,,,,,,,AFSA03.jpg,AFNE15.jpg,AFNE19.jpg,AFSA07.jpg,AFNE15.jpg,FN,3,num_6,32,num_4,1.11678413751,,,2017_Oct_17_1806,60.0062935686,FEMA4ImagesEEG,001,101739,
AFNE01.JPG,AFNE01.JPG,AFNE01.JPG,AFNE01.JPG,AFNE01.JPG,AFNE01.JPG,,,,,,,,,2,0,20,5,,,,,,,,,,,,,,,AFNE18.jpg,AFSA02.jpg,AFNE10.jpg,AFSA01.jpg,AFSA01.jpg,FS,4,num_4,32,num_8,1.16675567188,,,2017_Oct_17_1806,60.0062935686,FEMA4ImagesEEG,001,101739,
AFNE01.JPG,AFNE01.JPG,AFNE01.JPG,AFNE01.JPG,AFNE01.JPG,AFNE01.JPG,,,,,,,,,2,1,21,7,,,,,,,,,,,,,,,AFSA07.jpg,AFNE15.jpg,AFNE19.jpg,AFSA10.jpg,AFSA10.jpg,FS,4,num_4,16,num_4,0.733534436997,,,2017_Oct_17_1806,60.0062935686,FEMA4ImagesEEG,001,101739,
AFNE01.JPG,AFNE01.JPG,AFNE01.JPG,AFNE01.JPG,AFNE01.JPG,AFNE01.JPG,,,,,,,,,2,2,22,3,,,,,,,,,,,,,,,AFNE08.jpg,AFSA17.jpg,AFSA10.jpg,AFNE03.jpg,AFNE03.jpg,FN,3,num_4,32,num_2,1.28344134236,,,2017_Oct_17_1806,60.0062935686,FEMA4ImagesEEG,001,101739,
AFNE01.JPG,AFNE01.JPG,AFNE01.JPG,AFNE01.JPG,AFNE01.JPG,AFNE01.JPG,,,,,,,,,2,3,23,8,,,,,,,,,,,,,,,AFNE11.jpg,AFNE06.jpg,AFSA08.jpg,AFSA16.jpg,AFNE11.jpg,FN,3,num_8,16,num_8,0.483498113248,,,2017_Oct_17_1806,60.0062935686,FEMA4ImagesEEG,001,101739,
AFNE01.JPG,AFNE01.JPG,AFNE01.JPG,AFNE01.JPG,AFNE01.JPG,AFNE01.JPG,,,,,,,,,2,4,24,9,,,,,,,,,,,,,,,AFSA17.jpg,AFNE05.jpg,AFSA12.jpg,AFNE09.jpg,AFNE09.jpg,FN,3,num_4,32,num_2,1.71669112305,,,2017_Oct_17_1806,60.0062935686,FEMA4ImagesEEG,001,101739,
AFNE01.JPG,AFNE01.JPG,AFNE01.JPG,AFNE01.JPG,AFNE01.JPG,AFNE01.JPG,,,,,,,,,2,5,25,1,,,,,,,,,,,,,,,AFNE04.jpg,AFNE05.jpg,AFSA10.jpg,AFSA11.jpg,AFNE05.jpg,FN,3,num_6,16,num_6,0.766804745021,,,2017_Oct_17_1806,60.0062935686,FEMA4ImagesEEG,001,101739,
AFNE01.JPG,AFNE01.JPG,AFNE01.JPG,AFNE01.JPG,AFNE01.JPG,AFNE01.JPG,,,,,,,,,2,6,26,2,,,,,,,,,,,,,,,AFNE06.jpg,AFSA05.jpg,AFSA18.jpg,AFNE17.jpg,AFSA18.jpg,FS,4,num_2,32,num_8,1.91668855714,,,2017_Oct_17_1806,60.0062935686,FEMA4ImagesEEG,001,101739,
AFNE01.JPG,AFNE01.JPG,AFNE01.JPG,AFNE01.JPG,AFNE01.JPG,AFNE01.JPG,,,,,,,,,2,7,27,4,,,,,,,,,,,,,,,AFNE07.jpg,AFSA01.jpg,AFSA06.jpg,AFNE08.jpg,AFSA06.jpg,FS,4,num_2,32,num_6,0.850147941092,,,2017_Oct_17_1806,60.0062935686,FEMA4ImagesEEG,001,101739,
AFNE01.JPG,AFNE01.JPG,AFNE01.JPG,AFNE01.JPG,AFNE01.JPG,AFNE01.JPG,,,,,,,,,2,8,28,0,,,,,,,,,,,,,,,AFSA18.jpg,AFNE06.jpg,AFSA16.jpg,AFNE08.jpg,AFNE08.jpg,FN,3,num_4,32,num_6,0.733495627519,,,2017_Oct_17_1806,60.0062935686,FEMA4ImagesEEG,001,101739,
AFNE01.JPG,AFNE01.JPG,AFNE01.JPG,AFNE01.JPG,AFNE01.JPG,AFNE01.JPG,,,,,,,,,2,9,29,6,,,,,,,,,,,,,,,AFSA06.jpg,AFNE04.jpg,AFSA17.jpg,AFNE01.jpg,AFNE01.jpg,FN,3,num_4,16,num_4,0.750136234099,,,2017_Oct_17_1806,60.0062935686,FEMA4ImagesEEG,001,101739,
AFNE01.JPG,AFNE01.JPG,AFNE01.JPG,AFNE01.JPG,AFNE01.JPG,AFNE01.JPG,,,,,,,,,3,0,30,4,,,,,,,,,,,,,,,AFSA14.jpg,AFNE17.jpg,AFNE08.jpg,AFSA04.jpg,AFSA14.jpg,FS,4,num_8,32,num_2,1.3333923494,,,2017_Oct_17_1806,60.0062935686,FEMA4ImagesEEG,001,101739,
AFNE01.JPG,AFNE01.JPG,AFNE01.JPG,AFNE01.JPG,AFNE01.JPG,AFNE01.JPG,,,,,,,,,3,1,31,7,,,,,,,,,,,,,,,AFNE18.jpg,AFSA11.jpg,AFNE20.jpg,AFSA20.jpg,AFNE20.jpg,FN,3,num_2,32,num_8,0.633507013772,,,2017_Oct_17_1806,60.0062935686,FEMA4ImagesEEG,001,101739,
AFNE01.JPG,AFNE01.JPG,AFNE01.JPG,AFNE01.JPG,AFNE01.JPG,AFNE01.JPG,,,,,,,,,3,2,32,5,,,,,,,,,,,,,,,AFNE14.jpg,AFSA09.jpg,AFNE17.jpg,AFSA10.jpg,AFNE17.jpg,FN,3,num_2,16,num_2,1.40000256592,,,2017_Oct_17_1806,60.0062935686,FEMA4ImagesEEG,001,101739,
AFNE01.JPG,AFNE01.JPG,AFNE01.JPG,AFNE01.JPG,AFNE01.JPG,AFNE01.JPG,,,,,,,,,3,3,33,0,,,,,,,,,,,,,,,AFNE06.jpg,AFNE01.jpg,AFSA10.jpg,AFSA13.jpg,AFNE01.jpg,FN,3,num_6,32,num_2,2.26670066506,,,2017_Oct_17_1806,60.0062935686,FEMA4ImagesEEG,001,101739,
AFNE01.JPG,AFNE01.JPG,AFNE01.JPG,AFNE01.JPG,AFNE01.JPG,AFNE01.JPG,,,,,,,,,3,4,34,3,,,,,,,,,,,,,,,AFSA20.jpg,AFSA01.jpg,AFNE05.jpg,AFNE12.jpg,AFNE05.jpg,FN,3,num_2,32,num_4,1.01674420544,,,2017_Oct_17_1806,60.0062935686,FEMA4ImagesEEG,001,101739,
AFNE01.JPG,AFNE01.JPG,AFNE01.JPG,AFNE01.JPG,AFNE01.JPG,AFNE01.JPG,,,,,,,,,3,5,35,2,,,,,,,,,,,,,,,AFSA01.jpg,AFNE10.jpg,AFNE14.jpg,AFSA20.jpg,AFNE10.jpg,FN,3,num_6,32,num_2,2.08334479977,,,2017_Oct_17_1806,60.0062935686,FEMA4ImagesEEG,001,101739,
AFNE01.JPG,AFNE01.JPG,AFNE01.JPG,AFNE01.JPG,AFNE01.JPG,AFNE01.JPG,,,,,,,,,3,6,36,9,,,,,,,,,,,,,,,AFNE03.jpg,AFSA18.jpg,AFSA01.jpg,AFNE04.jpg,AFSA18.jpg,FS,4,num_6,32,num_4,1.46647454371,,,2017_Oct_17_1806,60.0062935686,FEMA4ImagesEEG,001,101739,
AFNE01.JPG,AFNE01.JPG,AFNE01.JPG,AFNE01.JPG,AFNE01.JPG,AFNE01.JPG,,,,,,,,,3,7,37,1,,,,,,,,,,,,,,,AFNE20.jpg,AFSA08.jpg,AFNE03.jpg,AFSA11.jpg,AFNE20.jpg,FN,3,num_8,32,num_6,0.166842913019,,,2017_Oct_17_1806,60.0062935686,FEMA4ImagesEEG,001,101739,
AFNE01.JPG,AFNE01.JPG,AFNE01.JPG,AFNE01.JPG,AFNE01.JPG,AFNE01.JPG,,,,,,,,,3,8,38,6,,,,,,,,,,,,,,,AFSA18.jpg,AFSA09.jpg,AFNE19.jpg,AFNE14.jpg,AFNE14.jpg,FN,3,num_4,32,num_2,0.616763449812,,,2017_Oct_17_1806,60.0062935686,FEMA4ImagesEEG,001,101739,
AFNE01.JPG,AFNE01.JPG,AFNE01.JPG,AFNE01.JPG,AFNE01.JPG,AFNE01.JPG,,,,,,,,,3,9,39,8,,,,,,,,,,,,,,,AFSA06.jpg,AFNE12.jpg,AFNE07.jpg,AFSA20.jpg,AFSA06.jpg,FS,4,num_8,32,num_4,0.816749337271,,,2017_Oct_17_1806,60.0062935686,FEMA4ImagesEEG,001,101739,
AFNE01.JPG,AFNE01.JPG,AFNE01.JPG,AFNE01.JPG,AFNE01.JPG,AFNE01.JPG,,,,,,,,,4,0,40,5,,,,,,,,,,,,,,,AFSA14.jpg,AFSA02.jpg,AFNE10.jpg,AFNE04.jpg,AFNE04.jpg,FN,3,num_4,32,num_6,1.11672929105,,,2017_Oct_17_1806,60.0062935686,FEMA4ImagesEEG,001,101739,
AFNE01.JPG,AFNE01.JPG,AFNE01.JPG,AFNE01.JPG,AFNE01.JPG,AFNE01.JPG,,,,,,,,,4,1,41,0,,,,,,,,,,,,,,,AFSA14.jpg,AFNE15.jpg,AFNE12.jpg,AFSA03.jpg,AFSA03.jpg,FS,4,num_4,32,num_8,2.96661230132,,,2017_Oct_17_1806,60.0062935686,FEMA4ImagesEEG,001,101739,
AFNE01.JPG,AFNE01.JPG,AFNE01.JPG,AFNE01.JPG,AFNE01.JPG,AFNE01.JPG,,,,,,,,,4,2,42,1,,,,,,,,,,,,,,,AFNE11.jpg,AFSA02.jpg,AFNE18.jpg,AFSA15.jpg,AFSA15.jpg,FS,4,num_4,32,num_2,0.650193165362,,,2017_Oct_17_1806,60.0062935686,FEMA4ImagesEEG,001,101739,
AFNE01.JPG,AFNE01.JPG,AFNE01.JPG,AFNE01.JPG,AFNE01.JPG,AFNE01.JPG,,,,,,,,,4,3,43,6,,,,,,,,,,,,,,,AFSA07.jpg,AFNE19.jpg,AFNE16.jpg,AFSA10.jpg,AFSA07.jpg,FS,4,num_8,32,num_4,1.05007962358,,,2017_Oct_17_1806,60.0062935686,FEMA4ImagesEEG,001,101739,
AFNE01.JPG,AFNE01.JPG,AFNE01.JPG,AFNE01.JPG,AFNE01.JPG,AFNE01.JPG,,,,,,,,,4,4,44,9,,,,,,,,,,,,,,,AFNE10.jpg,AFNE19.jpg,AFSA02.jpg,AFSA03.jpg,AFSA03.jpg,FS,4,num_4,32,num_6,0.450157242536,,,2017_Oct_17_1806,60.0062935686,FEMA4ImagesEEG,001,101739,
AFNE01.JPG,AFNE01.JPG,AFNE01.JPG,AFNE01.JPG,AFNE01.JPG,AFNE01.JPG,,,,,,,,,4,5,45,8,,,,,,,,,,,,,,,AFNE17.jpg,AFSA16.jpg,AFNE20.jpg,AFSA09.jpg,AFNE20.jpg,FN,3,num_2,32,num_8,0.55015034664,,,2017_Oct_17_1806,60.0062935686,FEMA4ImagesEEG,001,101739,
AFNE01.JPG,AFNE01.JPG,AFNE01.JPG,AFNE01.JPG,AFNE01.JPG,AFNE01.JPG,,,,,,,,,4,6,46,2,,,,,,,,,,,,,,,AFSA19.jpg,AFSA14.jpg,AFNE07.jpg,AFNE20.jpg,AFNE20.jpg,FN,3,num_4,16,num_4,0.466792075811,,,2017_Oct_17_1806,60.0062935686,FEMA4ImagesEEG,001,101739,
AFNE01.JPG,AFNE01.JPG,AFNE01.JPG,AFNE01.JPG,AFNE01.JPG,AFNE01.JPG,,,,,,,,,4,7,47,3,,,,,,,,,,,,,,,AFNE13.jpg,AFSA05.jpg,AFSA02.jpg,AFNE18.jpg,AFNE13.jpg,FN,3,num_8,32,num_6,0.766778444384,,,2017_Oct_17_1806,60.0062935686,FEMA4ImagesEEG,001,101739,
AFNE01.JPG,AFNE01.JPG,AFNE01.JPG,AFNE01.JPG,AFNE01.JPG,AFNE01.JPG,,,,,,,,,4,8,48,7,,,,,,,,,,,,,,,AFNE11.jpg,AFSA20.jpg,AFNE09.jpg,AFSA07.jpg,AFSA20.jpg,FS,4,num_6,32,num_8,1.30009413704,,,2017_Oct_17_1806,60.0062935686,FEMA4ImagesEEG,001,101739,
AFNE01.JPG,AFNE01.JPG,AFNE01.JPG,AFNE01.JPG,AFNE01.JPG,AFNE01.JPG,,,,,,,,,4,9,49,4,,,,,,,,,,,,,,,AFSA05.jpg,AFNE05.jpg,AFNE10.jpg,AFSA04.jpg,AFSA05.jpg,FS,4,num_8,32,num_2,1.56688589211,,,2017_Oct_17_1806,60.0062935686,FEMA4ImagesEEG,001,101739,
AFNE01.JPG,AFNE01.JPG,AFNE01.JPG,AFNE01.JPG,AFNE01.JPG,AFNE01.JPG,,,,,,,,,5,0,50,1,,,,,,,,,,,,,,,AFSA09.jpg,AFSA12.jpg,AFNE17.jpg,AFNE19.jpg,AFNE17.jpg,FN,3,num_2,32,num_8,2.41690168854,,,2017_Oct_17_1806,60.0062935686,FEMA4ImagesEEG,001,101739,
AFNE01.JPG,AFNE01.JPG,AFNE01.JPG,AFNE01.JPG,AFNE01.JPG,AFNE01.JPG,,,,,,,,,5,1,51,0,,,,,,,,,,,,,,,AFNE14.jpg,AFSA08.jpg,AFSA19.jpg,AFNE07.jpg,AFSA19.jpg,FS,4,num_2,32,num_6,0.483337743502,,,2017_Oct_17_1806,60.0062935686,FEMA4ImagesEEG,001,101739,
AFNE01.JPG,AFNE01.JPG,AFNE01.JPG,AFNE01.JPG,AFNE01.JPG,AFNE01.JPG,,,,,,,,,5,2,52,2,,,,,,,,,,,,,,,AFNE07.jpg,AFSA08.jpg,AFSA17.jpg,AFNE05.jpg,AFNE07.jpg,FN,3,num_8,32,num_6,1.66670066505,,,2017_Oct_17_1806,60.0062935686,FEMA4ImagesEEG,001,101739,
AFNE01.JPG,AFNE01.JPG,AFNE01.JPG,AFNE01.JPG,AFNE01.JPG,AFNE01.JPG,,,,,,,,,5,3,53,9,,,,,,,,,,,,,,,AFSA07.jpg,AFNE03.jpg,AFNE10.jpg,AFSA16.jpg,AFNE10.jpg,FN,3,num_2,32,num_8,0.733461949872,,,2017_Oct_17_1806,60.0062935686,FEMA4ImagesEEG,001,101739,
AFNE01.JPG,AFNE01.JPG,AFNE01.JPG,AFNE01.JPG,AFNE01.JPG,AFNE01.JPG,,,,,,,,,5,4,54,3,,,,,,,,,,,,,,,AFSA09.jpg,AFSA14.jpg,AFNE06.jpg,AFNE20.jpg,AFSA14.jpg,FS,4,num_6,32,num_4,1.41673618695,,,2017_Oct_17_1806,60.0062935686,FEMA4ImagesEEG,001,101739,
AFNE01.JPG,AFNE01.JPG,AFNE01.JPG,AFNE01.JPG,AFNE01.JPG,AFNE01.JPG,,,,,,,,,5,5,55,6,,,,,,,,,,,,,,,AFSA13.jpg,AFNE12.jpg,AFNE11.jpg,AFSA11.jpg,AFSA13.jpg,FS,4,num_8,16,num_8,0.566777161424,,,2017_Oct_17_1806,60.0062935686,FEMA4ImagesEEG,001,101739,
AFNE01.JPG,AFNE01.JPG,AFNE01.JPG,AFNE01.JPG,AFNE01.JPG,AFNE01.JPG,,,,,,,,,5,6,56,7,,,,,,,,,,,,,,,AFSA06.jpg,AFSA11.jpg,AFNE05.jpg,AFNE12.jpg,AFNE05.jpg,FN,3,num_2,32,num_8,0.866769303306,,,2017_Oct_17_1806,60.0062935686,FEMA4ImagesEEG,001,101739,
AFNE01.JPG,AFNE01.JPG,AFNE01.JPG,AFNE01.JPG,AFNE01.JPG,AFNE01.JPG,,,,,,,,,5,7,57,8,,,,,,,,,,,,,,,AFSA16.jpg,AFNE18.jpg,AFNE11.jpg,AFSA14.jpg,AFSA16.jpg,FS,4,num_8,16,num_8,3.09990490074,,,2017_Oct_17_1806,60.0062935686,FEMA4ImagesEEG,001,101739,
AFNE01.JPG,AFNE01.JPG,AFNE01.JPG,AFNE01.JPG,AFNE01.JPG,AFNE01.JPG,,,,,,,,,5,8,58,5,,,,,,,,,,,,,,,AFNE05.jpg,AFSA07.jpg,AFNE03.jpg,AFSA15.jpg,AFSA07.jpg,FS,4,num_6,16,num_6,1.08356161967,,,2017_Oct_17_1806,60.0062935686,FEMA4ImagesEEG,001,101739,
AFNE01.JPG,AFNE01.JPG,AFNE01.JPG,AFNE01.JPG,AFNE01.JPG,AFNE01.JPG,,,,,,,,,5,9,59,4,,,,,,,,,,,,,,,AFNE11.jpg,AFSA01.jpg,AFNE03.jpg,AFSA20.jpg,AFNE03.jpg,FN,3,num_2,32,num_6,0.733457780258,,,2017_Oct_17_1806,60.0062935686,FEMA4ImagesEEG,001,101739,
,,,,,,,,,,,,,,,,,,,,,,,,,,,,,,,,,,,,,,,,,,,space,13.6327170324,2017_Oct_17_1806,60.0062935686,FEMA4ImagesEEG,001,101739,
AFNE01.JPG,AFNE01.JPG,AFNE01.JPG,AFNE01.JPG,AFNE01.JPG,AFNE01.JPG,,,,,,,,,,,,,0,0,0,6,,,,,,,,,,,AMSA06.jpg,AMNE04.jpg,AMSA05.jpg,AMNE07.jpg,AMNE04.jpg,MN,1,num_6,16,num_6,0.633492901234,,,2017_Oct_17_1806,60.0062935686,FEMA4ImagesEEG,001,101739,
AFNE01.JPG,AFNE01.JPG,AFNE01.JPG,AFNE01.JPG,AFNE01.JPG,AFNE01.JPG,,,,,,,,,,,,,0,1,1,1,,,,,,,,,,,AMSA20.jpg,AMSA14.jpg,AMNE06.jpg,AMNE07.jpg,AMSA14.jpg,MS,2,num_6,16,num_6,0.466764171477,,,2017_Oct_17_1806,60.0062935686,FEMA4ImagesEEG,001,101739,
AFNE01.JPG,AFNE01.JPG,AFNE01.JPG,AFNE01.JPG,AFNE01.JPG,AFNE01.JPG,,,,,,,,,,,,,0,2,2,3,,,,,,,,,,,AMSA10.jpg,AMNE05.jpg,AMNE15.jpg,AMSA15.jpg,AMSA10.jpg,MS,2,num_8,16,num_8,1.333381765,,,2017_Oct_17_1806,60.0062935686,FEMA4ImagesEEG,001,101739,
AFNE01.JPG,AFNE01.JPG,AFNE01.JPG,AFNE01.JPG,AFNE01.JPG,AFNE01.JPG,,,,,,,,,,,,,0,3,3,7,,,,,,,,,,,AMNE19.jpg,AMNE10.jpg,AMSA09.jpg,AMSA18.jpg,AMSA09.jpg,MS,2,num_2,16,num_2,1.19981589553,,,2017_Oct_17_1806,60.0062935686,FEMA4ImagesEEG,001,101739,
AFNE01.JPG,AFNE01.JPG,AFNE01.JPG,AFNE01.JPG,AFNE01.JPG,AFNE01.JPG,,,,,,,,,,,,,0,4,4,4,,,,,,,,,,,AMSA16.jpg,AMSA19.jpg,AMNE11.jpg,AMNE16.jpg,AMSA19.jpg,MS,2,num_6,16,num_6,1.51672191405,,,2017_Oct_17_1806,60.0062935686,FEMA4ImagesEEG,001,101739,
AFNE01.JPG,AFNE01.JPG,AFNE01.JPG,AFNE01.JPG,AFNE01.JPG,AFNE01.JPG,,,,,,,,,,,,,0,5,5,9,,,,,,,,,,,AMNE07.jpg,AMSA09.jpg,AMSA05.jpg,AMNE08.jpg,AMNE07.jpg,MN,1,num_8,32,num_4,1.53351551337,,,2017_Oct_17_1806,60.0062935686,FEMA4ImagesEEG,001,101739,
AFNE01.JPG,AFNE01.JPG,AFNE01.JPG,AFNE01.JPG,AFNE01.JPG,AFNE01.JPG,,,,,,,,,,,,,0,6,6,5,,,,,,,,,,,AMSA16.jpg,AMNE12.jpg,AMSA09.jpg,AMNE20.jpg,AMNE12.jpg,MN,1,num_6,16,num_6,3.00007248713,,,2017_Oct_17_1806,60.0062935686,FEMA4ImagesEEG,001,101739,
AFNE01.JPG,AFNE01.JPG,AFNE01.JPG,AFNE01.JPG,AFNE01.JPG,AFNE01.JPG,,,,,,,,,,,,,0,7,7,8,,,,,,,,,,,AMSA02.jpg,AMSA19.jpg,AMNE20.jpg,AMNE07.jpg,AMNE07.jpg,MN,1,num_4,16,num_4,0.966807631674,,,2017_Oct_17_1806,60.0062935686,FEMA4ImagesEEG,001,101739,
AFNE01.JPG,AFNE01.JPG,AFNE01.JPG,AFNE01.JPG,AFNE01.JPG,AFNE01.JPG,,,,,,,,,,,,,0,8,8,2,,,,,,,,,,,AMSA04.jpg,AMSA05.jpg,AMNE11.jpg,AMNE04.jpg,AMSA05.jpg,MS,2,num_6,32,num_8,1.81698540154,,,2017_Oct_17_1806,60.0062935686,FEMA4ImagesEEG,001,101739,
AFNE01.JPG,AFNE01.JPG,AFNE01.JPG,AFNE01.JPG,AFNE01.JPG,AFNE01.JPG,,,,,,,,,,,,,0,9,9,0,,,,,,,,,,,AMSA16.jpg,AMNE16.jpg,AMNE14.jpg,AMSA20.jpg,AMSA16.jpg,MS,2,num_8,32,num_4,1.01672656477,,,2017_Oct_17_1806,60.0062935686,FEMA4ImagesEEG,001,101739,
AFNE01.JPG,AFNE01.JPG,AFNE01.JPG,AFNE01.JPG,AFNE01.JPG,AFNE01.JPG,,,,,,,,,,,,,1,0,10,4,,,,,,,,,,,AMSA03.jpg,AMSA18.jpg,AMNE14.jpg,AMNE05.jpg,AMNE05.jpg,MN,1,num_4,32,num_2,1.00012412619,,,2017_Oct_17_1806,60.0062935686,FEMA4ImagesEEG,001,101739,
AFNE01.JPG,AFNE01.JPG,AFNE01.JPG,AFNE01.JPG,AFNE01.JPG,AFNE01.JPG,,,,,,,,,,,,,1,1,11,2,,,,,,,,,,,AMSA19.jpg,AMNE16.jpg,AMNE13.jpg,AMSA09.jpg,AMSA19.jpg,MS,2,num_8,16,num_8,0.916733460668,,,2017_Oct_17_1806,60.0062935686,FEMA4ImagesEEG,001,101739,
AFNE01.JPG,AFNE01.JPG,AFNE01.JPG,AFNE01.JPG,AFNE01.JPG,AFNE01.JPG,,,,,,,,,,,,,1,2,12,0,,,,,,,,,,,AMSA07.jpg,AMSA18.jpg,AMNE14.jpg,AMNE11.jpg,AMNE11.jpg,MN,1,num_4,16,num_4,1.08347052965,,,2017_Oct_17_1806,60.0062935686,FEMA4ImagesEEG,001,101739,
AFNE01.JPG,AFNE01.JPG,AFNE01.JPG,AFNE01.JPG,AFNE01.JPG,AFNE01.JPG,,,,,,,,,,,,,1,3,13,8,,,,,,,,,,,AMNE04.jpg,AMSA08.jpg,AMSA11.jpg,AMNE07.jpg,AMNE07.jpg,MN,1,num_4,32,num_8,1.58324809681,,,2017_Oct_17_1806,60.0062935686,FEMA4ImagesEEG,001,101739,
AFNE01.JPG,AFNE01.JPG,AFNE01.JPG,AFNE01.JPG,AFNE01.JPG,AFNE01.JPG,,,,,,,,,,,,,1,4,14,5,,,,,,,,,,,AMSA04.jpg,AMNE05.jpg,AMNE15.jpg,AMSA17.jpg,AMNE15.jpg,MN,1,num_2,16,num_2,0.600123484706,,,2017_Oct_17_1806,60.0062935686,FEMA4ImagesEEG,001,101739,
AFNE01.JPG,AFNE01.JPG,AFNE01.JPG,AFNE01.JPG,AFNE01.JPG,AFNE01.JPG,,,,,,,,,,,,,1,5,15,3,,,,,,,,,,,AMSA17.jpg,AMNE05.jpg,AMSA08.jpg,AMNE20.jpg,AMSA08.jpg,MS,2,num_2,32,num_4,2.10001106551,,,2017_Oct_17_1806,60.0062935686,FEMA4ImagesEEG,001,101739,
AFNE01.JPG,AFNE01.JPG,AFNE01.JPG,AFNE01.JPG,AFNE01.JPG,AFNE01.JPG,,,,,,,,,,,,,1,6,16,6,,,,,,,,,,,AMNE02.jpg,AMSA15.jpg,AMNE09.jpg,AMSA18.jpg,AMNE09.jpg,MN,1,num_2,32,num_6,2.45000200462,,,2017_Oct_17_1806,60.0062935686,FEMA4ImagesEEG,001,101739,
AFNE01.JPG,AFNE01.JPG,AFNE01.JPG,AFNE01.JPG,AFNE01.JPG,AFNE01.JPG,,,,,,,,,,,,,1,7,17,1,,,,,,,,,,,AMSA18.jpg,AMSA12.jpg,AMNE10.jpg,AMNE20.jpg,AMSA12.jpg,MS,2,num_6,32,num_2,1.01677660013,,,2017_Oct_17_1806,60.0062935686,FEMA4ImagesEEG,001,101739,
AFNE01.JPG,AFNE01.JPG,AFNE01.JPG,AFNE01.JPG,AFNE01.JPG,AFNE01.JPG,,,,,,,,,,,,,1,8,18,7,,,,,,,,,,,AMSA20.jpg,AMNE20.jpg,AMSA05.jpg,AMNE16.jpg,AMSA05.jpg,MS,2,num_2,32,num_8,1.38365351153,,,2017_Oct_17_1806,60.0062935686,FEMA4ImagesEEG,001,101739,
AFNE01.JPG,AFNE01.JPG,AFNE01.JPG,AFNE01.JPG,AFNE01.JPG,AFNE01.JPG,,,,,,,,,,,,,1,9,19,9,,,,,,,,,,,AMNE06.jpg,AMSA15.jpg,AMNE05.jpg,AMSA06.jpg,AMSA06.jpg,MS,2,num_4,16,num_4,0.866742040449,,,2017_Oct_17_1806,60.0062935686,FEMA4ImagesEEG,001,101739,
AFNE01.JPG,AFNE01.JPG,AFNE01.JPG,AFNE01.JPG,AFNE01.JPG,AFNE01.JPG,,,,,,,,,,,,,2,0,20,3,,,,,,,,,,,AMNE13.jpg,AMSA01.jpg,AMNE09.jpg,AMSA11.jpg,AMNE09.jpg,MN,1,num_2,32,num_6,0.516666105374,,,2017_Oct_17_1806,60.0062935686,FEMA4ImagesEEG,001,101739,
AFNE01.JPG,AFNE01.JPG,AFNE01.JPG,AFNE01.JPG,AFNE01.JPG,AFNE01.JPG,,,,,,,,,,,,,2,1,21,4,,,,,,,,,,,AMNE06.jpg,AMSA20.jpg,AMNE04.jpg,AMSA07.jpg,AMSA07.jpg,MS,2,num_4,32,num_6,0.86661887648,,,2017_Oct_17_1806,60.0062935686,FEMA4ImagesEEG,001,101739,
AFNE01.JPG,AFNE01.JPG,AFNE01.JPG,AFNE01.JPG,AFNE01.JPG,AFNE01.JPG,,,,,,,,,,,,,2,2,22,0,,,,,,,,,,,AMNE11.jpg,AMSA20.jpg,AMSA17.jpg,AMNE19.jpg,AMSA17.jpg,MS,2,num_2,32,num_6,0.650119395279,,,2017_Oct_17_1806,60.0062935686,FEMA4ImagesEEG,001,101739,
AFNE01.JPG,AFNE01.JPG,AFNE01.JPG,AFNE01.JPG,AFNE01.JPG,AFNE01.JPG,,,,,,,,,,,,,2,3,23,7,,,,,,,,,,,AMNE18.jpg,AMSA02.jpg,AMNE04.jpg,AMSA05.jpg,AMNE04.jpg,MN,1,num_2,32,num_6,0.833443828087,,,2017_Oct_17_1806,60.0062935686,FEMA4ImagesEEG,001,101739,
AFNE01.JPG,AFNE01.JPG,AFNE01.JPG,AFNE01.JPG,AFNE01.JPG,AFNE01.JPG,,,,,,,,,,,,,2,4,24,1,,,,,,,,,,,AMNE06.jpg,AMSA06.jpg,AMSA01.jpg,AMNE08.jpg,AMNE06.jpg,MN,1,num_8,32,num_4,1.66674171971,,,2017_Oct_17_1806,60.0062935686,FEMA4ImagesEEG,001,101739,
AFNE01.JPG,AFNE01.JPG,AFNE01.JPG,AFNE01.JPG,AFNE01.JPG,AFNE01.JPG,,,,,,,,,,,,,2,5,25,9,,,,,,,,,,,AMSA18.jpg,AMSA08.jpg,AMNE12.jpg,AMNE14.jpg,AMNE14.jpg,MN,1,num_4,32,num_2,0.800161331968,,,2017_Oct_17_1806,60.0062935686,FEMA4ImagesEEG,001,101739,
AFNE01.JPG,AFNE01.JPG,AFNE01.JPG,AFNE01.JPG,AFNE01.JPG,AFNE01.JPG,,,,,,,,,,,,,2,6,26,6,,,,,,,,,,,AMSA07.jpg,AMNE19.jpg,AMNE06.jpg,AMSA16.jpg,AMSA16.jpg,MS,2,num_4,16,num_4,0.716794401171,,,2017_Oct_17_1806,60.0062935686,FEMA4ImagesEEG,001,101739,
AFNE01.JPG,AFNE01.JPG,AFNE01.JPG,AFNE01.JPG,AFNE01.JPG,AFNE01.JPG,,,,,,,,,,,,,2,7,27,5,,,,,,,,,,,AMNE07.jpg,AMNE03.jpg,AMSA17.jpg,AMSA02.jpg,AMNE03.jpg,MN,1,num_6,16,num_6,1.00008243005,,,2017_Oct_17_1806,60.0062935686,FEMA4ImagesEEG,001,101739,
AFNE01.JPG,AFNE01.JPG,AFNE01.JPG,AFNE01.JPG,AFNE01.JPG,AFNE01.JPG,,,,,,,,,,,,,2,8,28,8,,,,,,,,,,,AMSA07.jpg,AMNE19.jpg,AMNE01.jpg,AMSA15.jpg,AMNE19.jpg,MN,1,num_6,32,num_4,3.34997810953,,,2017_Oct_17_1806,60.0062935686,FEMA4ImagesEEG,001,101739,
AFNE01.JPG,AFNE01.JPG,AFNE01.JPG,AFNE01.JPG,AFNE01.JPG,AFNE01.JPG,,,,,,,,,,,,,2,9,29,2,,,,,,,,,,,AMSA04.jpg,AMNE03.jpg,AMSA14.jpg,AMNE13.jpg,AMSA14.jpg,MS,2,num_2,32,num_8,0.483590806965,,,2017_Oct_17_1806,60.0062935686,FEMA4ImagesEEG,001,101739,
AFNE01.JPG,AFNE01.JPG,AFNE01.JPG,AFNE01.JPG,AFNE01.JPG,AFNE01.JPG,,,,,,,,,,,,,3,0,30,0,,,,,,,,,,,AMSA16.jpg,AMSA19.jpg,AMNE01.jpg,AMNE15.jpg,AMSA19.jpg,MS,2,num_6,16,num_6,0.58344823826,,,2017_Oct_17_1806,60.0062935686,FEMA4ImagesEEG,001,101739,
AFNE01.JPG,AFNE01.JPG,AFNE01.JPG,AFNE01.JPG,AFNE01.JPG,AFNE01.JPG,,,,,,,,,,,,,3,1,31,7,,,,,,,,,,,AMNE14.jpg,AMNE02.jpg,AMSA03.jpg,AMSA20.jpg,AMNE14.jpg,MN,1,num_8,16,num_8,0.700156681243,,,2017_Oct_17_1806,60.0062935686,FEMA4ImagesEEG,001,101739,
AFNE01.JPG,AFNE01.JPG,AFNE01.JPG,AFNE01.JPG,AFNE01.JPG,AFNE01.JPG,,,,,,,,,,,,,3,2,32,1,,,,,,,,,,,AMSA13.jpg,AMNE16.jpg,AMSA20.jpg,AMNE05.jpg,AMNE05.jpg,MN,1,num_4,16,num_4,0.583629456072,,,2017_Oct_17_1806,60.0062935686,FEMA4ImagesEEG,001,101739,
AFNE01.JPG,AFNE01.JPG,AFNE01.JPG,AFNE01.JPG,AFNE01.JPG,AFNE01.JPG,,,,,,,,,,,,,3,3,33,5,,,,,,,,,,,AMNE18.jpg,AMSA17.jpg,AMNE01.jpg,AMSA11.jpg,AMNE18.jpg,MN,1,num_8,16,num_8,0.68357509073,,,2017_Oct_17_1806,60.0062935686,FEMA4ImagesEEG,001,101739,
AFNE01.JPG,AFNE01.JPG,AFNE01.JPG,AFNE01.JPG,AFNE01.JPG,AFNE01.JPG,,,,,,,,,,,,,3,4,34,3,,,,,,,,,,,AMSA11.jpg,AMNE19.jpg,AMNE07.jpg,AMSA10.jpg,AMSA11.jpg,MS,2,num_8,16,num_8,0.55014938442,,,2017_Oct_17_1806,60.0062935686,FEMA4ImagesEEG,001,101739,
AFNE01.JPG,AFNE01.JPG,AFNE01.JPG,AFNE01.JPG,AFNE01.JPG,AFNE01.JPG,,,,,,,,,,,,,3,5,35,2,,,,,,,,,,,AMSA10.jpg,AMNE18.jpg,AMSA02.jpg,AMNE19.jpg,AMSA02.jpg,MS,2,num_2,32,num_6,0.683434606832,,,2017_Oct_17_1806,60.0062935686,FEMA4ImagesEEG,001,101739,
AFNE01.JPG,AFNE01.JPG,AFNE01.JPG,AFNE01.JPG,AFNE01.JPG,AFNE01.JPG,,,,,,,,,,,,,3,6,36,4,,,,,,,,,,,AMNE01.jpg,AMSA10.jpg,AMNE15.jpg,AMSA02.jpg,AMSA02.jpg,MS,2,num_4,16,num_4,0.683485925147,,,2017_Oct_17_1806,60.0062935686,FEMA4ImagesEEG,001,101739,
AFNE01.JPG,AFNE01.JPG,AFNE01.JPG,AFNE01.JPG,AFNE01.JPG,AFNE01.JPG,,,,,,,,,,,,,3,7,37,6,,,,,,,,,,,AMNE11.jpg,AMSA10.jpg,AMNE14.jpg,AMSA19.jpg,AMNE11.jpg,MN,1,num_8,16,num_8,1.53335995471,,,2017_Oct_17_1806,60.0062935686,FEMA4ImagesEEG,001,101739,
AFNE01.JPG,AFNE01.JPG,AFNE01.JPG,AFNE01.JPG,AFNE01.JPG,AFNE01.JPG,,,,,,,,,,,,,3,8,38,8,,,,,,,,,,,AMSA02.jpg,AMSA06.jpg,AMNE09.jpg,AMNE16.jpg,AMNE16.jpg,MN,1,num_4,32,num_2,0.966787745827,,,2017_Oct_17_1806,60.0062935686,FEMA4ImagesEEG,001,101739,
AFNE01.JPG,AFNE01.JPG,AFNE01.JPG,AFNE01.JPG,AFNE01.JPG,AFNE01.JPG,,,,,,,,,,,,,3,9,39,9,,,,,,,,,,,AMSA19.jpg,AMSA11.jpg,AMNE04.jpg,AMNE15.jpg,AMNE04.jpg,MN,1,num_2,16,num_2,0.699996952972,,,2017_Oct_17_1806,60.0062935686,FEMA4ImagesEEG,001,101739,
AFNE01.JPG,AFNE01.JPG,AFNE01.JPG,AFNE01.JPG,AFNE01.JPG,AFNE01.JPG,,,,,,,,,,,,,4,0,40,8,,,,,,,,,,,AMNE14.jpg,AMSA09.jpg,AMSA11.jpg,AMNE09.jpg,AMSA09.jpg,MS,2,num_6,32,num_4,1.43341624449,,,2017_Oct_17_1806,60.0062935686,FEMA4ImagesEEG,001,101739,
AFNE01.JPG,AFNE01.JPG,AFNE01.JPG,AFNE01.JPG,AFNE01.JPG,AFNE01.JPG,,,,,,,,,,,,,4,1,41,3,,,,,,,,,,,AMSA11.jpg,AMSA13.jpg,AMNE08.jpg,AMNE16.jpg,AMSA11.jpg,MS,2,num_8,32,num_6,0.516667388332,,,2017_Oct_17_1806,60.0062935686,FEMA4ImagesEEG,001,101739,
AFNE01.JPG,AFNE01.JPG,AFNE01.JPG,AFNE01.JPG,AFNE01.JPG,AFNE01.JPG,,,,,,,,,,,,,4,2,42,2,,,,,,,,,,,AMNE15.jpg,AMNE10.jpg,AMSA04.jpg,AMSA06.jpg,AMSA06.jpg,MS,2,num_4,32,num_8,1.41672464033,,,2017_Oct_17_1806,60.0062935686,FEMA4ImagesEEG,001,101739,
AFNE01.JPG,AFNE01.JPG,AFNE01.JPG,AFNE01.JPG,AFNE01.JPG,AFNE01.JPG,,,,,,,,,,,,,4,3,43,7,,,,,,,,,,,AMSA14.jpg,AMNE05.jpg,AMSA04.jpg,AMNE18.jpg,AMNE05.jpg,MN,1,num_6,32,num_4,0.433458902848,,,2017_Oct_17_1806,60.0062935686,FEMA4ImagesEEG,001,101739,
AFNE01.JPG,AFNE01.JPG,AFNE01.JPG,AFNE01.JPG,AFNE01.JPG,AFNE01.JPG,,,,,,,,,,,,,4,4,44,5,,,,,,,,,,,AMNE06.jpg,AMNE02.jpg,AMSA10.jpg,AMSA20.jpg,AMSA10.jpg,MS,2,num_2,32,num_8,3.4165790246,,,2017_Oct_17_1806,60.0062935686,FEMA4ImagesEEG,001,101739,
AFNE01.JPG,AFNE01.JPG,AFNE01.JPG,AFNE01.JPG,AFNE01.JPG,AFNE01.JPG,,,,,,,,,,,,,4,5,45,9,,,,,,,,,,,AMSA20.jpg,AMSA09.jpg,AMNE12.jpg,AMNE16.jpg,AMSA09.jpg,MS,2,num_6,16,num_6,0.500152190889,,,2017_Oct_17_1806,60.0062935686,FEMA4ImagesEEG,001,101739,
AFNE01.JPG,AFNE01.JPG,AFNE01.JPG,AFNE01.JPG,AFNE01.JPG,AFNE01.JPG,,,,,,,,,,,,,4,6,46,1,,,,,,,,,,,AMNE07.jpg,AMSA12.jpg,AMSA05.jpg,AMNE13.jpg,AMSA05.jpg,MS,2,num_2,16,num_2,0.483472454092,,,2017_Oct_17_1806,60.0062935686,FEMA4ImagesEEG,001,101739,
AFNE01.JPG,AFNE01.JPG,AFNE01.JPG,AFNE01.JPG,AFNE01.JPG,AFNE01.JPG,,,,,,,,,,,,,4,7,47,6,,,,,,,,,,,AMSA16.jpg,AMNE04.jpg,AMSA12.jpg,AMNE18.jpg,AMNE18.jpg,MN,1,num_4,16,num_4,0.583506612846,,,2017_Oct_17_1806,60.0062935686,FEMA4ImagesEEG,001,101739,
AFNE01.JPG,AFNE01.JPG,AFNE01.JPG,AFNE01.JPG,AFNE01.JPG,AFNE01.JPG,,,,,,,,,,,,,4,8,48,4,,,,,,,,,,,AMNE08.jpg,AMNE04.jpg,AMSA08.jpg,AMSA12.jpg,AMNE08.jpg,MN,1,num_8,16,num_8,0.966748294868,,,2017_Oct_17_1806,60.0062935686,FEMA4ImagesEEG,001,101739,
AFNE01.JPG,AFNE01.JPG,AFNE01.JPG,AFNE01.JPG,AFNE01.JPG,AFNE01.JPG,,,,,,,,,,,,,4,9,49,0,,,,,,,,,,,AMSA08.jpg,AMNE14.jpg,AMSA10.jpg,AMNE18.jpg,AMNE18.jpg,MN,1,num_4,32,num_8,2.09999502854,,,2017_Oct_17_1806,60.0062935686,FEMA4ImagesEEG,001,101739,
AFNE01.JPG,AFNE01.JPG,AFNE01.JPG,AFNE01.JPG,AFNE01.JPG,AFNE01.JPG,,,,,,,,,,,,,5,0,50,7,,,,,,,,,,,AMNE17.jpg,AMNE10.jpg,AMSA07.jpg,AMSA10.jpg,AMSA07.jpg,MS,2,num_2,32,num_4,0.650124206371,,,2017_Oct_17_1806,60.0062935686,FEMA4ImagesEEG,001,101739,
AFNE01.JPG,AFNE01.JPG,AFNE01.JPG,AFNE01.JPG,AFNE01.JPG,AFNE01.JPG,,,,,,,,,,,,,5,1,51,6,,,,,,,,,,,AMSA01.jpg,AMNE04.jpg,AMNE02.jpg,AMSA13.jpg,AMSA13.jpg,MS,2,num_4,32,num_6,0.683458983032,,,2017_Oct_17_1806,60.0062935686,FEMA4ImagesEEG,001,101739,
AFNE01.JPG,AFNE01.JPG,AFNE01.JPG,AFNE01.JPG,AFNE01.JPG,AFNE01.JPG,,,,,,,,,,,,,5,2,52,9,,,,,,,,,,,AMNE06.jpg,AMNE07.jpg,AMSA09.jpg,AMSA07.jpg,AMSA07.jpg,MS,2,num_4,32,num_2,2.53328169427,,,2017_Oct_17_1806,60.0062935686,FEMA4ImagesEEG,001,101739,
AFNE01.JPG,AFNE01.JPG,AFNE01.JPG,AFNE01.JPG,AFNE01.JPG,AFNE01.JPG,,,,,,,,,,,,,5,3,53,1,,,,,,,,,,,AMNE20.jpg,AMSA19.jpg,AMNE02.jpg,AMSA20.jpg,AMSA20.jpg,MS,2,num_4,16,num_4,0.516784778985,,,2017_Oct_17_1806,60.0062935686,FEMA4ImagesEEG,001,101739,
AFNE01.JPG,AFNE01.JPG,AFNE01.JPG,AFNE01.JPG,AFNE01.JPG,AFNE01.JPG,,,,,,,,,,,,,5,4,54,4,,,,,,,,,,,AMSA18.jpg,AMSA08.jpg,AMNE09.jpg,AMNE17.jpg,AMNE17.jpg,MN,1,num_4,32,num_8,0.650282330942,,,2017_Oct_17_1806,60.0062935686,FEMA4ImagesEEG,001,101739,
AFNE01.JPG,AFNE01.JPG,AFNE01.JPG,AFNE01.JPG,AFNE01.JPG,AFNE01.JPG,,,,,,,,,,,,,5,5,55,2,,,,,,,,,,,AMSA09.jpg,AMNE03.jpg,AMSA07.jpg,AMNE06.jpg,AMNE03.jpg,MN,1,num_6,32,num_2,1.05012773451,,,2017_Oct_17_1806,60.0062935686,FEMA4ImagesEEG,001,101739,
AFNE01.JPG,AFNE01.JPG,AFNE01.JPG,AFNE01.JPG,AFNE01.JPG,AFNE01.JPG,,,,,,,,,,,,,5,6,56,5,,,,,,,,,,,AMSA02.jpg,AMNE15.jpg,AMNE09.jpg,AMSA20.jpg,AMNE15.jpg,MN,1,num_6,16,num_6,0.733464515786,,,2017_Oct_17_1806,60.0062935686,FEMA4ImagesEEG,001,101739,
AFNE01.JPG,AFNE01.JPG,AFNE01.JPG,AFNE01.JPG,AFNE01.JPG,AFNE01.JPG,,,,,,,,,,,,,5,7,57,3,,,,,,,,,,,AMNE06.jpg,AMSA06.jpg,AMSA11.jpg,AMNE07.jpg,AMNE07.jpg,MN,1,num_4,32,num_8,0.933551756931,,,2017_Oct_17_1806,60.0062935686,FEMA4ImagesEEG,001,101739,
AFNE01.JPG,AFNE01.JPG,AFNE01.JPG,AFNE01.JPG,AFNE01.JPG,AFNE01.JPG,,,,,,,,,,,,,5,8,58,0,,,,,,,,,,,AMSA07.jpg,AMSA15.jpg,AMNE20.jpg,AMNE02.jpg,AMNE20.jpg,MN,1,num_2,32,num_4,0.950166704355,,,2017_Oct_17_1806,60.0062935686,FEMA4ImagesEEG,001,101739,
AFNE01.JPG,AFNE01.JPG,AFNE01.JPG,AFNE01.JPG,AFNE01.JPG,AFNE01.JPG,,,,,,,,,,,,,5,9,59,8,,,,,,,,,,,AMNE10.jpg,AMNE06.jpg,AMSA18.jpg,AMSA09.jpg,AMSA09.jpg,MS,2,num_4,32,num_2,1.04979544839,,,2017_Oct_17_1806,60.0062935686,FEMA4ImagesEEG,001,101739,
,,,,,,,,,,,,,,,,,,,,,,,,,,,,,,,,,,,,,,,,,,,space,11.3325937081,2017_Oct_17_1806,60.0062935686,FEMA4ImagesEEG,001,101739,
AFNE01.JPG,AFNE01.JPG,AFNE01.JPG,AFNE01.JPG,AFNE01.JPG,AFNE01.JPG,,,,,,,,,,,,,,,,,0,0,0,2,,,,,,,AFNE01.jpg,AFSA08.jpg,AFNE13.jpg,AFSA13.jpg,AFNE01.jpg,FN,3,num_8,16,num_8,0.70018683076,,,2017_Oct_17_1806,60.0062935686,FEMA4ImagesEEG,001,101739,
AFNE01.JPG,AFNE01.JPG,AFNE01.JPG,AFNE01.JPG,AFNE01.JPG,AFNE01.JPG,,,,,,,,,,,,,,,,,0,1,1,8,,,,,,,AFSA13.jpg,AFNE03.jpg,AFNE08.jpg,AFSA14.jpg,AFSA13.jpg,FS,4,num_8,32,num_4,0.900108891059,,,2017_Oct_17_1806,60.0062935686,FEMA4ImagesEEG,001,101739,
AFNE01.JPG,AFNE01.JPG,AFNE01.JPG,AFNE01.JPG,AFNE01.JPG,AFNE01.JPG,,,,,,,,,,,,,,,,,0,2,2,9,,,,,,,AFSA03.jpg,AFNE08.jpg,AFSA04.jpg,AFNE07.jpg,AFNE08.jpg,FN,3,num_6,32,num_2,0.550101914974,,,2017_Oct_17_1806,60.0062935686,FEMA4ImagesEEG,001,101739,
AFNE01.JPG,AFNE01.JPG,AFNE01.JPG,AFNE01.JPG,AFNE01.JPG,AFNE01.JPG,,,,,,,,,,,,,,,,,0,3,3,1,,,,,,,AFSA04.jpg,AFNE17.jpg,AFSA18.jpg,AFNE16.jpg,AFNE16.jpg,FN,3,num_4,32,num_6,1.18344054051,,,2017_Oct_17_1806,60.0062935686,FEMA4ImagesEEG,001,101739,
AFNE01.JPG,AFNE01.JPG,AFNE01.JPG,AFNE01.JPG,AFNE01.JPG,AFNE01.JPG,,,,,,,,,,,,,,,,,0,4,4,3,,,,,,,AFSA09.jpg,AFNE16.jpg,AFSA01.jpg,AFNE05.jpg,AFNE05.jpg,FN,3,num_4,32,num_2,4.0166261733,,,2017_Oct_17_1806,60.0062935686,FEMA4ImagesEEG,001,101739,
AFNE01.JPG,AFNE01.JPG,AFNE01.JPG,AFNE01.JPG,AFNE01.JPG,AFNE01.JPG,,,,,,,,,,,,,,,,,0,5,5,6,,,,,,,AFNE09.jpg,AFNE07.jpg,AFSA20.jpg,AFSA09.jpg,AFSA09.jpg,FS,4,num_4,32,num_8,0.900123003597,,,2017_Oct_17_1806,60.0062935686,FEMA4ImagesEEG,001,101739,
AFNE01.JPG,AFNE01.JPG,AFNE01.JPG,AFNE01.JPG,AFNE01.JPG,AFNE01.JPG,,,,,,,,,,,,,,,,,0,6,6,0,,,,,,,AFSA09.jpg,AFNE09.jpg,AFSA17.jpg,AFNE17.jpg,AFSA17.jpg,FS,4,num_2,16,num_2,0.766765294062,,,2017_Oct_17_1806,60.0062935686,FEMA4ImagesEEG,001,101739,
AFNE01.JPG,AFNE01.JPG,AFNE01.JPG,AFNE01.JPG,AFNE01.JPG,AFNE01.JPG,,,,,,,,,,,,,,,,,0,7,7,7,,,,,,,AFSA02.jpg,AFSA09.jpg,AFNE11.jpg,AFNE02.jpg,AFSA02.jpg,FS,4,num_8,32,num_6,0.700134550221,,,2017_Oct_17_1806,60.0062935686,FEMA4ImagesEEG,001,101739,
AFNE01.JPG,AFNE01.JPG,AFNE01.JPG,AFNE01.JPG,AFNE01.JPG,AFNE01.JPG,,,,,,,,,,,,,,,,,0,8,8,4,,,,,,,AFSA13.jpg,AFNE18.jpg,AFSA03.jpg,AFNE03.jpg,AFSA03.jpg,FS,4,num_2,32,num_8,0.650127734505,,,2017_Oct_17_1806,60.0062935686,FEMA4ImagesEEG,001,101739,
AFNE01.JPG,AFNE01.JPG,AFNE01.JPG,AFNE01.JPG,AFNE01.JPG,AFNE01.JPG,,,,,,,,,,,,,,,,,0,9,9,5,,,,,,,AFNE14.jpg,AFSA01.jpg,AFSA06.jpg,AFNE11.jpg,AFSA06.jpg,FS,4,num_2,16,num_2,0.733450403248,,,2017_Oct_17_1806,60.0062935686,FEMA4ImagesEEG,001,101739,
AFNE01.JPG,AFNE01.JPG,AFNE01.JPG,AFNE01.JPG,AFNE01.JPG,AFNE01.JPG,,,,,,,,,,,,,,,,,1,0,10,0,,,,,,,AFSA02.jpg,AFNE02.jpg,AFSA03.jpg,AFNE17.jpg,AFNE17.jpg,FN,3,num_4,16,num_4,0.616912914415,,,2017_Oct_17_1806,60.0062935686,FEMA4ImagesEEG,001,101739,
AFNE01.JPG,AFNE01.JPG,AFNE01.JPG,AFNE01.JPG,AFNE01.JPG,AFNE01.JPG,,,,,,,,,,,,,,,,,1,1,11,9,,,,,,,AFNE20.jpg,AFSA04.jpg,AFSA19.jpg,AFNE07.jpg,AFNE07.jpg,FN,3,num_4,32,num_2,1.06682126311,,,2017_Oct_17_1806,60.0062935686,FEMA4ImagesEEG,001,101739,
AFNE01.JPG,AFNE01.JPG,AFNE01.JPG,AFNE01.JPG,AFNE01.JPG,AFNE01.JPG,,,,,,,,,,,,,,,,,1,2,12,1,,,,,,,AFNE10.jpg,AFNE16.jpg,AFSA12.jpg,AFSA05.jpg,AFNE16.jpg,FN,3,num_6,16,num_6,0.600157162353,,,2017_Oct_17_1806,60.0062935686,FEMA4ImagesEEG,001,101739,
AFNE01.JPG,AFNE01.JPG,AFNE01.JPG,AFNE01.JPG,AFNE01.JPG,AFNE01.JPG,,,,,,,,,,,,,,,,,1,3,13,7,,,,,,,AFNE06.jpg,AFSA17.jpg,AFNE10.jpg,AFSA09.jpg,AFSA09.jpg,FS,4,num_4,16,num_4,0.800131503194,,,2017_Oct_17_1806,60.0062935686,FEMA4ImagesEEG,001,101739,
AFNE01.JPG,AFNE01.JPG,AFNE01.JPG,AFNE01.JPG,AFNE01.JPG,AFNE01.JPG,,,,,,,,,,,,,,,,,1,4,14,8,,,,,,,AFNE18.jpg,AFSA08.jpg,AFSA16.jpg,AFNE03.jpg,AFSA08.jpg,FS,4,num_6,16,num_6,0.733482156458,,,2017_Oct_17_1806,60.0062935686,FEMA4ImagesEEG,001,101739,
AFNE01.JPG,AFNE01.JPG,AFNE01.JPG,AFNE01.JPG,AFNE01.JPG,AFNE01.JPG,,,,,,,,,,,,,,,,,1,5,15,6,,,,,,,AFSA16.jpg,AFSA04.jpg,AFNE09.jpg,AFNE19.jpg,AFNE19.jpg,FN,3,num_4,32,num_8,1.6499157257,,,2017_Oct_17_1806,60.0062935686,FEMA4ImagesEEG,001,101739,
AFNE01.JPG,AFNE01.JPG,AFNE01.JPG,AFNE01.JPG,AFNE01.JPG,AFNE01.JPG,,,,,,,,,,,,,,,,,1,6,16,4,,,,,,,AFSA05.jpg,AFSA11.jpg,AFNE03.jpg,AFNE02.jpg,AFNE03.jpg,FN,3,num_2,32,num_4,1.16674540821,,,2017_Oct_17_1806,60.0062935686,FEMA4ImagesEEG,001,101739,
AFNE01.JPG,AFNE01.JPG,AFNE01.JPG,AFNE01.JPG,AFNE01.JPG,AFNE01.JPG,,,,,,,,,,,,,,,,,1,7,17,5,,,,,,,AFNE17.jpg,AFSA09.jpg,AFSA08.jpg,AFNE13.jpg,AFNE13.jpg,FN,3,num_4,32,num_8,0.616771789038,,,2017_Oct_17_1806,60.0062935686,FEMA4ImagesEEG,001,101739,
AFNE01.JPG,AFNE01.JPG,AFNE01.JPG,AFNE01.JPG,AFNE01.JPG,AFNE01.JPG,,,,,,,,,,,,,,,,,1,8,18,3,,,,,,,AFSA11.jpg,AFNE11.jpg,AFNE01.jpg,AFSA05.jpg,AFNE01.jpg,FN,3,num_2,16,num_2,1.30008804299,,,2017_Oct_17_1806,60.0062935686,FEMA4ImagesEEG,001,101739,
AFNE01.JPG,AFNE01.JPG,AFNE01.JPG,AFNE01.JPG,AFNE01.JPG,AFNE01.JPG,,,,,,,,,,,,,,,,,1,9,19,2,,,,,,,AFNE20.jpg,AFSA11.jpg,AFNE06.jpg,AFSA01.jpg,AFSA01.jpg,FS,4,num_4,32,num_8,0.733445592159,,,2017_Oct_17_1806,60.0062935686,FEMA4ImagesEEG,001,101739,
AFNE01.JPG,AFNE01.JPG,AFNE01.JPG,AFNE01.JPG,AFNE01.JPG,AFNE01.JPG,,,,,,,,,,,,,,,,,2,0,20,3,,,,,,,AFNE10.jpg,AFSA20.jpg,AFNE05.jpg,AFSA15.jpg,AFSA15.jpg,FS,4,num_4,32,num_8,1.4501309419,,,2017_Oct_17_1806,60.0062935686,FEMA4ImagesEEG,001,101739,
AFNE01.JPG,AFNE01.JPG,AFNE01.JPG,AFNE01.JPG,AFNE01.JPG,AFNE01.JPG,,,,,,,,,,,,,,,,,2,1,21,8,,,,,,,AFSA01.jpg,AFNE03.jpg,AFNE17.jpg,AFSA10.jpg,AFNE17.jpg,FN,3,num_2,16,num_2,1.10015507755,,,2017_Oct_17_1806,60.0062935686,FEMA4ImagesEEG,001,101739,
AFNE01.JPG,AFNE01.JPG,AFNE01.JPG,AFNE01.JPG,AFNE01.JPG,AFNE01.JPG,,,,,,,,,,,,,,,,,2,2,22,2,,,,,,,AFSA18.jpg,AFSA02.jpg,AFNE20.jpg,AFNE18.jpg,AFNE18.jpg,FN,3,num_4,16,num_4,0.600127333582,,,2017_Oct_17_1806,60.0062935686,FEMA4ImagesEEG,001,101739,
AFNE01.JPG,AFNE01.JPG,AFNE01.JPG,AFNE01.JPG,AFNE01.JPG,AFNE01.JPG,,,,,,,,,,,,,,,,,2,3,23,7,,,,,,,AFSA02.jpg,AFNE04.jpg,AFSA04.jpg,AFNE08.jpg,AFNE04.jpg,FN,3,num_6,32,num_2,1.98338216592,,,2017_Oct_17_1806,60.0062935686,FEMA4ImagesEEG,001,101739,
AFNE01.JPG,AFNE01.JPG,AFNE01.JPG,AFNE01.JPG,AFNE01.JPG,AFNE01.JPG,,,,,,,,,,,,,,,,,2,4,24,6,,,,,,,AFSA17.jpg,AFNE08.jpg,AFSA08.jpg,AFNE14.jpg,AFSA17.jpg,FS,4,num_8,16,num_8,0.566773954029,,,2017_Oct_17_1806,60.0062935686,FEMA4ImagesEEG,001,101739,
AFNE01.JPG,AFNE01.JPG,AFNE01.JPG,AFNE01.JPG,AFNE01.JPG,AFNE01.JPG,,,,,,,,,,,,,,,,,2,5,25,1,,,,,,,AFSA08.jpg,AFNE16.jpg,AFSA05.jpg,AFNE01.jpg,AFNE01.jpg,FN,3,num_4,32,num_6,0.783512386159,,,2017_Oct_17_1806,60.0062935686,FEMA4ImagesEEG,001,101739,
AFNE01.JPG,AFNE01.JPG,AFNE01.JPG,AFNE01.JPG,AFNE01.JPG,AFNE01.JPG,,,,,,,,,,,,,,,,,2,6,26,0,,,,,,,AFNE06.jpg,AFNE08.jpg,AFSA17.jpg,AFSA12.jpg,AFNE06.jpg,FN,3,num_8,32,num_6,0.600132786152,,,2017_Oct_17_1806,60.0062935686,FEMA4ImagesEEG,001,101739,
AFNE01.JPG,AFNE01.JPG,AFNE01.JPG,AFNE01.JPG,AFNE01.JPG,AFNE01.JPG,,,,,,,,,,,,,,,,,2,7,27,9,,,,,,,AFNE14.jpg,AFSA09.jpg,AFSA02.jpg,AFNE07.jpg,AFNE14.jpg,FN,3,num_8,32,num_6,0.466810037222,,,2017_Oct_17_1806,60.0062935686,FEMA4ImagesEEG,001,101739,
AFNE01.JPG,AFNE01.JPG,AFNE01.JPG,AFNE01.JPG,AFNE01.JPG,AFNE01.JPG,,,,,,,,,,,,,,,,,2,8,28,4,,,,,,,AFNE10.jpg,AFSA17.jpg,AFNE01.jpg,AFSA04.jpg,AFNE10.jpg,FN,3,num_8,48,None,,,,2017_Oct_17_1806,60.0062935686,FEMA4ImagesEEG,001,101739,
AFNE01.JPG,AFNE01.JPG,AFNE01.JPG,AFNE01.JPG,AFNE01.JPG,AFNE01.JPG,,,,,,,,,,,,,,,,,2,9,29,5,,,,,,,AFNE20.jpg,AFSA08.jpg,AFNE10.jpg,AFSA06.jpg,AFNE20.jpg,FN,3,num_8,32,num_2,3.78319453332,,,2017_Oct_17_1806,60.0062935686,FEMA4ImagesEEG,001,101739,
AFNE01.JPG,AFNE01.JPG,AFNE01.JPG,AFNE01.JPG,AFNE01.JPG,AFNE01.JPG,,,,,,,,,,,,,,,,,3,0,30,6,,,,,,,AFNE18.jpg,AFSA02.jpg,AFNE12.jpg,AFSA12.jpg,AFSA02.jpg,FS,4,num_6,16,num_6,0.700249374961,,,2017_Oct_17_1806,60.0062935686,FEMA4ImagesEEG,001,101739,
AFNE01.JPG,AFNE01.JPG,AFNE01.JPG,AFNE01.JPG,AFNE01.JPG,AFNE01.JPG,,,,,,,,,,,,,,,,,3,1,31,8,,,,,,,AFNE12.jpg,AFNE20.jpg,AFSA12.jpg,AFSA10.jpg,AFSA12.jpg,FS,4,num_2,32,num_8,0.56675920001,,,2017_Oct_17_1806,60.0062935686,FEMA4ImagesEEG,001,101739,
AFNE01.JPG,AFNE01.JPG,AFNE01.JPG,AFNE01.JPG,AFNE01.JPG,AFNE01.JPG,,,,,,,,,,,,,,,,,3,2,32,0,,,,,,,AFNE04.jpg,AFSA15.jpg,AFNE05.jpg,AFSA10.jpg,AFSA15.jpg,FS,4,num_6,32,num_4,1.63337583132,,,2017_Oct_17_1806,60.0062935686,FEMA4ImagesEEG,001,101739,
AFNE01.JPG,AFNE01.JPG,AFNE01.JPG,AFNE01.JPG,AFNE01.JPG,AFNE01.JPG,,,,,,,,,,,,,,,,,3,3,33,9,,,,,,,AFSA11.jpg,AFNE17.jpg,AFSA08.jpg,AFNE04.jpg,AFNE17.jpg,FN,3,num_6,32,num_8,1.08351158431,,,2017_Oct_17_1806,60.0062935686,FEMA4ImagesEEG,001,101739,
AFNE01.JPG,AFNE01.JPG,AFNE01.JPG,AFNE01.JPG,AFNE01.JPG,AFNE01.JPG,,,,,,,,,,,,,,,,,3,4,34,5,,,,,,,AFSA10.jpg,AFNE18.jpg,AFSA06.jpg,AFNE06.jpg,AFSA06.jpg,FS,4,num_2,32,num_6,1.41673971508,,,2017_Oct_17_1806,60.0062935686,FEMA4ImagesEEG,001,101739,
AFNE01.JPG,AFNE01.JPG,AFNE01.JPG,AFNE01.JPG,AFNE01.JPG,AFNE01.JPG,,,,,,,,,,,,,,,,,3,5,35,3,,,,,,,AFNE11.jpg,AFSA01.jpg,AFSA07.jpg,AFNE15.jpg,AFSA01.jpg,FS,4,num_6,16,num_6,0.4001404839,,,2017_Oct_17_1806,60.0062935686,FEMA4ImagesEEG,001,101739,
AFNE01.JPG,AFNE01.JPG,AFNE01.JPG,AFNE01.JPG,AFNE01.JPG,AFNE01.JPG,,,,,,,,,,,,,,,,,3,6,36,1,,,,,,,AFNE17.jpg,AFSA01.jpg,AFSA15.jpg,AFNE15.jpg,AFSA01.jpg,FS,4,num_6,16,num_6,0.666649667473,,,2017_Oct_17_1806,60.0062935686,FEMA4ImagesEEG,001,101739,
AFNE01.JPG,AFNE01.JPG,AFNE01.JPG,AFNE01.JPG,AFNE01.JPG,AFNE01.JPG,,,,,,,,,,,,,,,,,3,7,37,4,,,,,,,AFSA02.jpg,AFSA19.jpg,AFNE10.jpg,AFNE07.jpg,AFNE07.jpg,FN,3,num_4,32,num_2,1.08329604737,,,2017_Oct_17_1806,60.0062935686,FEMA4ImagesEEG,001,101739,
AFNE01.JPG,AFNE01.JPG,AFNE01.JPG,AFNE01.JPG,AFNE01.JPG,AFNE01.JPG,,,,,,,,,,,,,,,,,3,8,38,2,,,,,,,AFSA11.jpg,AFSA06.jpg,AFNE17.jpg,AFNE05.jpg,AFSA11.jpg,FS,4,num_8,32,num_4,1.06675390781,,,2017_Oct_17_1806,60.0062935686,FEMA4ImagesEEG,001,101739,
AFNE01.JPG,AFNE01.JPG,AFNE01.JPG,AFNE01.JPG,AFNE01.JPG,AFNE01.JPG,,,,,,,,,,,,,,,,,3,9,39,7,,,,,,,AFNE15.jpg,AFNE01.jpg,AFSA15.jpg,AFSA02.jpg,AFNE15.jpg,FN,3,num_8,16,num_8,0.850190920184,,,2017_Oct_17_1806,60.0062935686,FEMA4ImagesEEG,001,101739,
AFNE01.JPG,AFNE01.JPG,AFNE01.JPG,AFNE01.JPG,AFNE01.JPG,AFNE01.JPG,,,,,,,,,,,,,,,,,4,0,40,9,,,,,,,AFNE12.jpg,AFSA09.jpg,AFNE04.jpg,AFSA07.jpg,AFNE04.jpg,FN,3,num_2,32,num_4,0.866780208449,,,2017_Oct_17_1806,60.0062935686,FEMA4ImagesEEG,001,101739,
AFNE01.JPG,AFNE01.JPG,AFNE01.JPG,AFNE01.JPG,AFNE01.JPG,AFNE01.JPG,,,,,,,,,,,,,,,,,4,1,41,6,,,,,,,AFSA13.jpg,AFNE14.jpg,AFNE20.jpg,AFSA18.jpg,AFSA13.jpg,FS,4,num_8,32,num_2,0.633511183383,,,2017_Oct_17_1806,60.0062935686,FEMA4ImagesEEG,001,101739,
AFNE01.JPG,AFNE01.JPG,AFNE01.JPG,AFNE01.JPG,AFNE01.JPG,AFNE01.JPG,,,,,,,,,,,,,,,,,4,2,42,1,,,,,,,AFSA11.jpg,AFNE16.jpg,AFNE01.jpg,AFSA04.jpg,AFNE01.jpg,FN,3,num_2,32,num_6,1.28358342996,,,2017_Oct_17_1806,60.0062935686,FEMA4ImagesEEG,001,101739,
AFNE01.JPG,AFNE01.JPG,AFNE01.JPG,AFNE01.JPG,AFNE01.JPG,AFNE01.JPG,,,,,,,,,,,,,,,,,4,3,43,3,,,,,,,AFSA04.jpg,AFNE04.jpg,AFNE18.jpg,AFSA03.jpg,AFNE04.jpg,FN,3,num_6,32,num_8,1.8667587189,,,2017_Oct_17_1806,60.0062935686,FEMA4ImagesEEG,001,101739,
AFNE01.JPG,AFNE01.JPG,AFNE01.JPG,AFNE01.JPG,AFNE01.JPG,AFNE01.JPG,,,,,,,,,,,,,,,,,4,4,44,7,,,,,,,AFNE20.jpg,AFSA04.jpg,AFNE07.jpg,AFSA18.jpg,AFNE07.jpg,FN,3,num_2,32,num_4,0.633457299151,,,2017_Oct_17_1806,60.0062935686,FEMA4ImagesEEG,001,101739,
AFNE01.JPG,AFNE01.JPG,AFNE01.JPG,AFNE01.JPG,AFNE01.JPG,AFNE01.JPG,,,,,,,,,,,,,,,,,4,5,45,2,,,,,,,AFSA15.jpg,AFNE05.jpg,AFSA02.jpg,AFNE19.jpg,AFNE05.jpg,FN,3,num_6,16,num_6,0.900121079158,,,2017_Oct_17_1806,60.0062935686,FEMA4ImagesEEG,001,101739,
AFNE01.JPG,AFNE01.JPG,AFNE01.JPG,AFNE01.JPG,AFNE01.JPG,AFNE01.JPG,,,,,,,,,,,,,,,,,4,6,46,5,,,,,,,AFNE02.jpg,AFNE07.jpg,AFSA12.jpg,AFSA17.jpg,AFSA12.jpg,FS,4,num_2,16,num_2,0.633479109438,,,2017_Oct_17_1806,60.0062935686,FEMA4ImagesEEG,001,101739,
AFNE01.JPG,AFNE01.JPG,AFNE01.JPG,AFNE01.JPG,AFNE01.JPG,AFNE01.JPG,,,,,,,,,,,,,,,,,4,7,47,8,,,,,,,AFNE19.jpg,AFSA10.jpg,AFNE18.jpg,AFSA06.jpg,AFNE19.jpg,FN,3,num_8,32,num_2,0.766916362369,,,2017_Oct_17_1806,60.0062935686,FEMA4ImagesEEG,001,101739,
AFNE01.JPG,AFNE01.JPG,AFNE01.JPG,AFNE01.JPG,AFNE01.JPG,AFNE01.JPG,,,,,,,,,,,,,,,,,4,8,48,4,,,,,,,AFSA18.jpg,AFNE17.jpg,AFSA05.jpg,AFNE10.jpg,AFNE10.jpg,FN,3,num_4,32,num_8,0.650319857465,,,2017_Oct_17_1806,60.0062935686,FEMA4ImagesEEG,001,101739,
AFNE01.JPG,AFNE01.JPG,AFNE01.JPG,AFNE01.JPG,AFNE01.JPG,AFNE01.JPG,,,,,,,,,,,,,,,,,4,9,49,0,,,,,,,AFNE06.jpg,AFNE13.jpg,AFSA06.jpg,AFSA02.jpg,AFNE13.jpg,FN,3,num_6,16,num_6,0.850105924219,,,2017_Oct_17_1806,60.0062935686,FEMA4ImagesEEG,001,101739,
AFNE01.JPG,AFNE01.JPG,AFNE01.JPG,AFNE01.JPG,AFNE01.JPG,AFNE01.JPG,,,,,,,,,,,,,,,,,5,0,50,5,,,,,,,AFSA16.jpg,AFSA15.jpg,AFNE19.jpg,AFNE17.jpg,AFNE17.jpg,FN,3,num_4,16,num_4,0.833437413301,,,2017_Oct_17_1806,60.0062935686,FEMA4ImagesEEG,001,101739,
AFNE01.JPG,AFNE01.JPG,AFNE01.JPG,AFNE01.JPG,AFNE01.JPG,AFNE01.JPG,,,,,,,,,,,,,,,,,5,1,51,1,,,,,,,AFSA20.jpg,AFSA03.jpg,AFNE11.jpg,AFNE07.jpg,AFSA20.jpg,FS,4,num_8,16,num_8,0.550107046809,,,2017_Oct_17_1806,60.0062935686,FEMA4ImagesEEG,001,101739,
AFNE01.JPG,AFNE01.JPG,AFNE01.JPG,AFNE01.JPG,AFNE01.JPG,AFNE01.JPG,,,,,,,,,,,,,,,,,5,2,52,4,,,,,,,AFSA13.jpg,AFNE03.jpg,AFSA12.jpg,AFNE16.jpg,AFNE16.jpg,FN,3,num_4,32,num_6,0.616720149977,,,2017_Oct_17_1806,60.0062935686,FEMA4ImagesEEG,001,101739,
AFNE01.JPG,AFNE01.JPG,AFNE01.JPG,AFNE01.JPG,AFNE01.JPG,AFNE01.JPG,,,,,,,,,,,,,,,,,5,3,53,8,,,,,,,AFSA16.jpg,AFNE19.jpg,AFSA02.jpg,AFNE09.jpg,AFNE19.jpg,FN,3,num_6,32,num_8,0.583584231805,,,2017_Oct_17_1806,60.0062935686,FEMA4ImagesEEG,001,101739,
AFNE01.JPG,AFNE01.JPG,AFNE01.JPG,AFNE01.JPG,AFNE01.JPG,AFNE01.JPG,,,,,,,,,,,,,,,,,5,4,54,6,,,,,,,AFNE20.jpg,AFNE17.jpg,AFSA06.jpg,AFSA07.jpg,AFNE17.jpg,FN,3,num_6,32,num_8,1.51671517852,,,2017_Oct_17_1806,60.0062935686,FEMA4ImagesEEG,001,101739,
AFNE01.JPG,AFNE01.JPG,AFNE01.JPG,AFNE01.JPG,AFNE01.JPG,AFNE01.JPG,,,,,,,,,,,,,,,,,5,5,55,3,,,,,,,AFNE20.jpg,AFNE15.jpg,AFSA18.jpg,AFSA04.jpg,AFSA18.jpg,FS,4,num_2,32,num_6,1.33340165085,,,2017_Oct_17_1806,60.0062935686,FEMA4ImagesEEG,001,101739,
AFNE01.JPG,AFNE01.JPG,AFNE01.JPG,AFNE01.JPG,AFNE01.JPG,AFNE01.JPG,,,,,,,,,,,,,,,,,5,6,56,0,,,,,,,AFNE16.jpg,AFNE01.jpg,AFSA17.jpg,AFSA09.jpg,AFNE16.jpg,FN,3,num_8,32,num_6,0.916805947792,,,2017_Oct_17_1806,60.0062935686,FEMA4ImagesEEG,001,101739,
AFNE01.JPG,AFNE01.JPG,AFNE01.JPG,AFNE01.JPG,AFNE01.JPG,AFNE01.JPG,,,,,,,,,,,,,,,,,5,7,57,7,,,,,,,AFSA06.jpg,AFNE20.jpg,AFNE10.jpg,AFSA14.jpg,AFSA06.jpg,FS,4,num_8,16,num_8,0.766769463677,,,2017_Oct_17_1806,60.0062935686,FEMA4ImagesEEG,001,101739,
AFNE01.JPG,AFNE01.JPG,AFNE01.JPG,AFNE01.JPG,AFNE01.JPG,AFNE01.JPG,,,,,,,,,,,,,,,,,5,8,58,9,,,,,,,AFSA04.jpg,AFSA08.jpg,AFNE07.jpg,AFNE01.jpg,AFSA04.jpg,FS,4,num_8,16,num_8,0.650152752187,,,2017_Oct_17_1806,60.0062935686,FEMA4ImagesEEG,001,101739,
AFNE01.JPG,AFNE01.JPG,AFNE01.JPG,AFNE01.JPG,AFNE01.JPG,AFNE01.JPG,,,,,,,,,,,,,,,,,5,9,59,2,,,,,,,AFNE09.jpg,AFNE01.jpg,AFSA03.jpg,AFSA05.jpg,AFNE01.jpg,FN,3,num_6,32,num_8,0.800115145477,,,2017_Oct_17_1806,60.0062935686,FEMA4ImagesEEG,001,101739,
,,,,,,,,,,,,,,,,,,,,,,,,,,,,,,,,,,,,,,,,,,,space,14.0987723696,2017_Oct_17_1806,60.0062935686,FEMA4ImagesEEG,001,101739,
AFNE01.JPG,AFNE01.JPG,AFNE01.JPG,AFNE01.JPG,AFNE01.JPG,AFNE01.JPG,,,,,,,,,,,,,,,,,,,,,0,0,0,1,,,AMSA11.jpg,AMSA06.jpg,AMNE09.jpg,AMNE15.jpg,AMSA11.jpg,MS,2,num_8,16,num_8,0.616814447392,,,2017_Oct_17_1806,60.0062935686,FEMA4ImagesEEG,001,101739,
AFNE01.JPG,AFNE01.JPG,AFNE01.JPG,AFNE01.JPG,AFNE01.JPG,AFNE01.JPG,,,,,,,,,,,,,,,,,,,,,0,1,1,8,,,AMSA08.jpg,AMNE01.jpg,AMSA19.jpg,AMNE20.jpg,AMNE01.jpg,MN,1,num_6,16,num_6,0.550148422204,,,2017_Oct_17_1806,60.0062935686,FEMA4ImagesEEG,001,101739,
AFNE01.JPG,AFNE01.JPG,AFNE01.JPG,AFNE01.JPG,AFNE01.JPG,AFNE01.JPG,,,,,,,,,,,,,,,,,,,,,0,2,2,5,,,AMNE12.jpg,AMSA13.jpg,AMNE18.jpg,AMSA01.jpg,AMNE12.jpg,MN,1,num_8,32,num_2,1.20044101681,,,2017_Oct_17_1806,60.0062935686,FEMA4ImagesEEG,001,101739,
AFNE01.JPG,AFNE01.JPG,AFNE01.JPG,AFNE01.JPG,AFNE01.JPG,AFNE01.JPG,,,,,,,,,,,,,,,,,,,,,0,3,3,7,,,AMSA05.jpg,AMSA04.jpg,AMNE03.jpg,AMNE02.jpg,AMSA05.jpg,MS,2,num_8,16,num_8,0.566780689558,,,2017_Oct_17_1806,60.0062935686,FEMA4ImagesEEG,001,101739,
AFNE01.JPG,AFNE01.JPG,AFNE01.JPG,AFNE01.JPG,AFNE01.JPG,AFNE01.JPG,,,,,,,,,,,,,,,,,,,,,0,4,4,6,,,AMSA17.jpg,AMNE19.jpg,AMNE12.jpg,AMSA19.jpg,AMSA19.jpg,MS,2,num_4,16,num_4,0.816776600132,,,2017_Oct_17_1806,60.0062935686,FEMA4ImagesEEG,001,101739,
AFNE01.JPG,AFNE01.JPG,AFNE01.JPG,AFNE01.JPG,AFNE01.JPG,AFNE01.JPG,,,,,,,,,,,,,,,,,,,,,0,5,5,2,,,AMSA20.jpg,AMSA04.jpg,AMNE16.jpg,AMNE01.jpg,AMSA04.jpg,MS,2,num_6,16,num_6,0.633506051552,,,2017_Oct_17_1806,60.0062935686,FEMA4ImagesEEG,001,101739,
AFNE01.JPG,AFNE01.JPG,AFNE01.JPG,AFNE01.JPG,AFNE01.JPG,AFNE01.JPG,,,,,,,,,,,,,,,,,,,,,0,6,6,0,,,AMSA18.jpg,AMNE03.jpg,AMSA06.jpg,AMNE07.jpg,AMSA06.jpg,MS,2,num_2,32,num_4,0.783436370897,,,2017_Oct_17_1806,60.0062935686,FEMA4ImagesEEG,001,101739,
AFNE01.JPG,AFNE01.JPG,AFNE01.JPG,AFNE01.JPG,AFNE01.JPG,AFNE01.JPG,,,,,,,,,,,,,,,,,,,,,0,7,7,9,,,AMSA16.jpg,AMNE08.jpg,AMSA07.jpg,AMNE13.jpg,AMSA07.jpg,MS,2,num_2,32,num_8,0.650127093024,,,2017_Oct_17_1806,60.0062935686,FEMA4ImagesEEG,001,101739,
AFNE01.JPG,AFNE01.JPG,AFNE01.JPG,AFNE01.JPG,AFNE01.JPG,AFNE01.JPG,,,,,,,,,,,,,,,,,,,,,0,8,8,3,,,AMNE18.jpg,AMSA10.jpg,AMSA13.jpg,AMNE02.jpg,AMNE02.jpg,MN,1,num_4,32,num_2,0.800103278118,,,2017_Oct_17_1806,60.0062935686,FEMA4ImagesEEG,001,101739,
AFNE01.JPG,AFNE01.JPG,AFNE01.JPG,AFNE01.JPG,AFNE01.JPG,AFNE01.JPG,,,,,,,,,,,,,,,,,,,,,0,9,9,4,,,AMSA20.jpg,AMSA06.jpg,AMNE02.jpg,AMNE10.jpg,AMNE02.jpg,MN,1,num_2,32,num_4,0.950096462406,,,2017_Oct_17_1806,60.0062935686,FEMA4ImagesEEG,001,101739,
AFNE01.JPG,AFNE01.JPG,AFNE01.JPG,AFNE01.JPG,AFNE01.JPG,AFNE01.JPG,,,,,,,,,,,,,,,,,,,,,1,0,10,5,,,AMNE08.jpg,AMSA15.jpg,AMNE15.jpg,AMSA06.jpg,AMSA06.jpg,MS,2,num_4,32,num_6,2.76633806905,,,2017_Oct_17_1806,60.0062935686,FEMA4ImagesEEG,001,101739,
AFNE01.JPG,AFNE01.JPG,AFNE01.JPG,AFNE01.JPG,AFNE01.JPG,AFNE01.JPG,,,,,,,,,,,,,,,,,,,,,1,1,11,9,,,AMSA07.jpg,AMNE02.jpg,AMNE14.jpg,AMSA02.jpg,AMSA07.jpg,MS,2,num_8,16,num_8,0.96676593554,,,2017_Oct_17_1806,60.0062935686,FEMA4ImagesEEG,001,101739,
AFNE01.JPG,AFNE01.JPG,AFNE01.JPG,AFNE01.JPG,AFNE01.JPG,AFNE01.JPG,,,,,,,,,,,,,,,,,,,,,1,2,12,4,,,AMNE01.jpg,AMSA20.jpg,AMSA19.jpg,AMNE12.jpg,AMSA20.jpg,MS,2,num_6,16,num_6,1.08339066552,,,2017_Oct_17_1806,60.0062935686,FEMA4ImagesEEG,001,101739,
AFNE01.JPG,AFNE01.JPG,AFNE01.JPG,AFNE01.JPG,AFNE01.JPG,AFNE01.JPG,,,,,,,,,,,,,,,,,,,,,1,3,13,1,,,AMNE17.jpg,AMSA19.jpg,AMSA07.jpg,AMNE14.jpg,AMNE17.jpg,MN,1,num_8,16,num_8,1.24995036556,,,2017_Oct_17_1806,60.0062935686,FEMA4ImagesEEG,001,101739,
AFNE01.JPG,AFNE01.JPG,AFNE01.JPG,AFNE01.JPG,AFNE01.JPG,AFNE01.JPG,,,,,,,,,,,,,,,,,,,,,1,4,14,7,,,AMNE13.jpg,AMSA18.jpg,AMSA07.jpg,AMNE06.jpg,AMNE13.jpg,MN,1,num_8,16,num_8,0.566767859978,,,2017_Oct_17_1806,60.0062935686,FEMA4ImagesEEG,001,101739,
AFNE01.JPG,AFNE01.JPG,AFNE01.JPG,AFNE01.JPG,AFNE01.JPG,AFNE01.JPG,,,,,,,,,,,,,,,,,,,,,1,5,15,6,,,AMNE05.jpg,AMSA12.jpg,AMNE20.jpg,AMSA20.jpg,AMSA20.jpg,MS,2,num_4,16,num_4,2.03339796234,,,2017_Oct_17_1806,60.0062935686,FEMA4ImagesEEG,001,101739,
AFNE01.JPG,AFNE01.JPG,AFNE01.JPG,AFNE01.JPG,AFNE01.JPG,AFNE01.JPG,,,,,,,,,,,,,,,,,,,,,1,6,16,0,,,AMSA14.jpg,AMNE05.jpg,AMSA07.jpg,AMNE04.jpg,AMSA14.jpg,MS,2,num_8,32,num_6,0.966788708047,,,2017_Oct_17_1806,60.0062935686,FEMA4ImagesEEG,001,101739,
AFNE01.JPG,AFNE01.JPG,AFNE01.JPG,AFNE01.JPG,AFNE01.JPG,AFNE01.JPG,,,,,,,,,,,,,,,,,,,,,1,7,17,8,,,AMNE12.jpg,AMSA08.jpg,AMNE06.jpg,AMSA03.jpg,AMSA08.jpg,MS,2,num_6,32,num_2,2.25013960186,,,2017_Oct_17_1806,60.0062935686,FEMA4ImagesEEG,001,101739,
AFNE01.JPG,AFNE01.JPG,AFNE01.JPG,AFNE01.JPG,AFNE01.JPG,AFNE01.JPG,,,,,,,,,,,,,,,,,,,,,1,8,18,3,,,AMNE15.jpg,AMSA10.jpg,AMNE18.jpg,AMSA17.jpg,AMNE18.jpg,MN,1,num_2,32,num_8,0.600136955763,,,2017_Oct_17_1806,60.0062935686,FEMA4ImagesEEG,001,101739,
AFNE01.JPG,AFNE01.JPG,AFNE01.JPG,AFNE01.JPG,AFNE01.JPG,AFNE01.JPG,,,,,,,,,,,,,,,,,,,,,1,9,19,2,,,AMNE13.jpg,AMNE19.jpg,AMSA19.jpg,AMSA20.jpg,AMSA20.jpg,MS,2,num_4,32,num_8,4.48316775156,,,2017_Oct_17_1806,60.0062935686,FEMA4ImagesEEG,001,101739,
AFNE01.JPG,AFNE01.JPG,AFNE01.JPG,AFNE01.JPG,AFNE01.JPG,AFNE01.JPG,,,,,,,,,,,,,,,,,,,,,2,0,20,2,,,AMNE15.jpg,AMNE19.jpg,AMSA08.jpg,AMSA03.jpg,AMNE19.jpg,MN,1,num_6,32,num_2,0.666520088715,,,2017_Oct_17_1806,60.0062935686,FEMA4ImagesEEG,001,101739,
AFNE01.JPG,AFNE01.JPG,AFNE01.JPG,AFNE01.JPG,AFNE01.JPG,AFNE01.JPG,,,,,,,,,,,,,,,,,,,,,2,1,21,3,,,AMSA16.jpg,AMSA20.jpg,AMNE05.jpg,AMNE15.jpg,AMNE05.jpg,MN,1,num_2,16,num_2,0.700112098457,,,2017_Oct_17_1806,60.0062935686,FEMA4ImagesEEG,001,101739,
AFNE01.JPG,AFNE01.JPG,AFNE01.JPG,AFNE01.JPG,AFNE01.JPG,AFNE01.JPG,,,,,,,,,,,,,,,,,,,,,2,2,22,4,,,AMSA04.jpg,AMNE07.jpg,AMSA18.jpg,AMNE05.jpg,AMSA04.jpg,MS,2,num_8,32,num_6,0.966782613996,,,2017_Oct_17_1806,60.0062935686,FEMA4ImagesEEG,001,101739,
AFNE01.JPG,AFNE01.JPG,AFNE01.JPG,AFNE01.JPG,AFNE01.JPG,AFNE01.JPG,,,,,,,,,,,,,,,,,,,,,2,3,23,7,,,AMNE08.jpg,AMSA05.jpg,AMSA13.jpg,AMNE12.jpg,AMNE08.jpg,MN,1,num_8,32,num_6,1.40040798064,,,2017_Oct_17_1806,60.0062935686,FEMA4ImagesEEG,001,101739,
AFNE01.JPG,AFNE01.JPG,AFNE01.JPG,AFNE01.JPG,AFNE01.JPG,AFNE01.JPG,,,,,,,,,,,,,,,,,,,,,2,4,24,6,,,AMSA09.jpg,AMNE08.jpg,AMSA15.jpg,AMNE14.jpg,AMNE14.jpg,MN,1,num_4,16,num_4,1.16672648458,,,2017_Oct_17_1806,60.0062935686,FEMA4ImagesEEG,001,101739,
