IPosition2,IPosition3,IPosition1,IPosition6,IPosition4,IPosition5,TrialsF1.thisRepN,TrialsF1.thisTrialN,TrialsF1.thisN,TrialsF1.thisIndex,TrialsM1.thisRepN,TrialsM1.thisTrialN,TrialsM1.thisN,TrialsM1.thisIndex,TrialsF2.thisRepN,TrialsF2.thisTrialN,TrialsF2.thisN,TrialsF2.thisIndex,TrialsM2.thisRepN,TrialsM2.thisTrialN,TrialsM2.thisN,TrialsM2.thisIndex,TrialsF3.thisRepN,TrialsF3.thisTrialN,TrialsF3.thisN,TrialsF3.thisIndex,TrialsM3.thisRepN,TrialsM3.thisTrialN,TrialsM3.thisN,TrialsM3.thisIndex,InstrKey_resp.keys,InstrKey_resp.rt,Image0 _Position,Image1 _Position,Image2 _Position,Image3 _Position,Center_image,condition,code,correct_answer,accuracy,Key_Resp.keys,Key_Resp.rt,BreakKey_resp.keys,BreakKey_resp.rt,date,frameRate,expName,session,participant,
,,,,,,,,,,,,,,,,,,,,,,,,,,,,,,space,13.6161763994,,,,,,,,,,,,,,2017_Oct_13_1146,59.9957857633,FEMA4ImagesEEG,001,101751,
AMNE22.JPG,AMSA24.JPG,AMSA22.JPG,AMNE25.JPG,AMNE24.JPG,AMSA25.JPG,0,0,0,7,,,,,,,,,,,,,,,,,,,,,,,AFNE03.jpg,AFSA18.jpg,AFSA07.jpg,AFNE20.jpg,AFNE03.jpg,FN,3,num_8,32,num_4,1.51680116903,,,2017_Oct_13_1146,59.9957857633,FEMA4ImagesEEG,001,101751,
AFNE23.JPG,AFNE24.JPG,AFNE22.JPG,AFSA24.JPG,AFSA22.JPG,AFSA23.JPG,0,1,1,8,,,,,,,,,,,,,,,,,,,,,,,AFNE01.jpg,AFSA15.jpg,AFNE16.jpg,AFSA02.jpg,AFSA02.jpg,FS,4,num_4,32,num_6,1.28351758246,,,2017_Oct_13_1146,59.9957857633,FEMA4ImagesEEG,001,101751,
AMNE23.JPG,AMNE24.JPG,AMNE22.JPG,AMSA24.JPG,AMSA22.JPG,AMSA23.JPG,0,2,2,9,,,,,,,,,,,,,,,,,,,,,,,AFSA13.jpg,AFNE20.jpg,AFNE13.jpg,AFSA09.jpg,AFNE20.jpg,FN,3,num_6,16,num_6,0.866743387771,,,2017_Oct_13_1146,59.9957857633,FEMA4ImagesEEG,001,101751,
AMSA25.JPG,AMNE24.JPG,AMSA24.JPG,AMNE26.JPG,AMSA21.JPG,AMNE25.JPG,0,3,3,3,,,,,,,,,,,,,,,,,,,,,,,AFSA20.jpg,AFNE05.jpg,AFSA08.jpg,AFNE16.jpg,AFSA08.jpg,FS,4,num_2,16,num_2,1.2000642122,,,2017_Oct_13_1146,59.9957857633,FEMA4ImagesEEG,001,101751,
AFNE22.JPG,AFSA24.JPG,AFSA22.JPG,AFNE25.JPG,AFNE24.JPG,AFSA25.JPG,0,4,4,6,,,,,,,,,,,,,,,,,,,,,,,AFSA09.jpg,AFSA01.jpg,AFNE06.jpg,AFNE18.jpg,AFNE18.jpg,FN,3,num_4,16,num_4,0.766773184412,,,2017_Oct_13_1146,59.9957857633,FEMA4ImagesEEG,001,101751,
AFSA21.JPG,AFNE22.JPG,AFNE21.JPG,AFSA23.JPG,AFSA22.JPG,AFNE23.JPG,0,5,5,0,,,,,,,,,,,,,,,,,,,,,,,AFSA06.jpg,AFNE04.jpg,AFNE01.jpg,AFSA13.jpg,AFNE01.jpg,FN,3,num_2,16,num_2,2.79999833216,,,2017_Oct_13_1146,59.9957857633,FEMA4ImagesEEG,001,101751,
AMSA21.JPG,AMNE22.JPG,AMNE21.JPG,AMSA23.JPG,AMSA22.JPG,AMNE23.JPG,0,6,6,1,,,,,,,,,,,,,,,,,,,,,,,AFSA07.jpg,AFNE01.jpg,AFNE18.jpg,AFSA09.jpg,AFSA07.jpg,FS,4,num_8,32,num_4,2.49998187821,,,2017_Oct_13_1146,59.9957857633,FEMA4ImagesEEG,001,101751,
AMSA21.JPG,AMNE23.JPG,AMNE21.JPG,AMSA25.JPG,AMNE25.JPG,AMSA23.JPG,0,7,7,5,,,,,,,,,,,,,,,,,,,,,,,AFSA15.jpg,AFNE03.jpg,AFNE05.jpg,AFSA19.jpg,AFNE03.jpg,FN,3,num_6,32,num_2,2.26670631021,,,2017_Oct_13_1146,59.9957857633,FEMA4ImagesEEG,001,101751,
AFSA21.JPG,AFNE23.JPG,AFNE21.JPG,AFSA25.JPG,AFNE25.JPG,AFSA23.JPG,0,8,8,4,,,,,,,,,,,,,,,,,,,,,,,AFNE17.jpg,AFSA10.jpg,AFNE13.jpg,AFSA06.jpg,AFSA10.jpg,FS,4,num_6,16,num_6,1.63342131232,,,2017_Oct_13_1146,59.9957857633,FEMA4ImagesEEG,001,101751,
AFSA25.JPG,AFNE24.JPG,AFSA24.JPG,AFNE21.JPG,AFSA21.JPG,AFNE25.JPG,0,9,9,2,,,,,,,,,,,,,,,,,,,,,,,AFNE18.jpg,AFSA09.jpg,AFNE07.jpg,AFSA05.jpg,AFSA09.jpg,FS,4,num_6,32,num_8,1.2166942663,,,2017_Oct_13_1146,59.9957857633,FEMA4ImagesEEG,001,101751,
AMSA21.JPG,AMNE22.JPG,AMNE21.JPG,AMSA23.JPG,AMSA22.JPG,AMNE23.JPG,,,,,0,0,0,1,,,,,,,,,,,,,,,,,,,AMNE07.jpg,AMNE04.jpg,AMSA10.jpg,AMSA02.jpg,AMSA02.jpg,MS,2,num_4,32,num_2,2.31668371405,,,2017_Oct_13_1146,59.9957857633,FEMA4ImagesEEG,001,101751,
AFSA21.JPG,AFNE23.JPG,AFNE21.JPG,AFSA25.JPG,AFNE25.JPG,AFSA23.JPG,,,,,0,1,1,4,,,,,,,,,,,,,,,,,,,AMNE11.jpg,AMSA16.jpg,AMNE15.jpg,AMSA20.jpg,AMNE11.jpg,MN,1,num_8,32,num_2,0.566782742506,,,2017_Oct_13_1146,59.9957857633,FEMA4ImagesEEG,001,101751,
AFSA25.JPG,AFNE24.JPG,AFSA24.JPG,AFNE21.JPG,AFSA21.JPG,AFNE25.JPG,,,,,0,2,2,2,,,,,,,,,,,,,,,,,,,AMNE13.jpg,AMSA04.jpg,AMSA07.jpg,AMNE14.jpg,AMNE14.jpg,MN,1,num_4,16,num_4,2.93331588502,,,2017_Oct_13_1146,59.9957857633,FEMA4ImagesEEG,001,101751,
AFNE22.JPG,AFSA24.JPG,AFSA22.JPG,AFNE25.JPG,AFNE24.JPG,AFSA25.JPG,,,,,0,3,3,6,,,,,,,,,,,,,,,,,,,AMSA19.jpg,AMSA16.jpg,AMNE09.jpg,AMNE16.jpg,AMSA19.jpg,MS,2,num_8,32,num_6,1.23331245314,,,2017_Oct_13_1146,59.9957857633,FEMA4ImagesEEG,001,101751,
AMSA21.JPG,AMNE23.JPG,AMNE21.JPG,AMSA25.JPG,AMNE25.JPG,AMSA23.JPG,,,,,0,4,4,5,,,,,,,,,,,,,,,,,,,AMSA10.jpg,AMNE09.jpg,AMSA09.jpg,AMNE04.jpg,AMNE04.jpg,MN,1,num_4,32,num_2,2.56664097542,,,2017_Oct_13_1146,59.9957857633,FEMA4ImagesEEG,001,101751,
AMNE22.JPG,AMSA24.JPG,AMSA22.JPG,AMNE25.JPG,AMNE24.JPG,AMSA25.JPG,,,,,0,5,5,7,,,,,,,,,,,,,,,,,,,AMNE16.jpg,AMSA18.jpg,AMNE04.jpg,AMSA15.jpg,AMNE16.jpg,MN,1,num_8,32,num_4,1.23307638848,,,2017_Oct_13_1146,59.9957857633,FEMA4ImagesEEG,001,101751,
AMSA25.JPG,AMNE24.JPG,AMSA24.JPG,AMNE26.JPG,AMSA21.JPG,AMNE25.JPG,,,,,0,6,6,3,,,,,,,,,,,,,,,,,,,AMNE03.jpg,AMSA12.jpg,AMSA07.jpg,AMNE10.jpg,AMSA07.jpg,MS,2,num_2,32,num_6,1.4667124683,,,2017_Oct_13_1146,59.9957857633,FEMA4ImagesEEG,001,101751,
AFSA21.JPG,AFNE22.JPG,AFNE21.JPG,AFSA23.JPG,AFSA22.JPG,AFNE23.JPG,,,,,0,7,7,0,,,,,,,,,,,,,,,,,,,AMNE02.jpg,AMSA18.jpg,AMSA17.jpg,AMNE15.jpg,AMNE02.jpg,MN,1,num_8,16,num_8,1.08343829552,,,2017_Oct_13_1146,59.9957857633,FEMA4ImagesEEG,001,101751,
AFNE23.JPG,AFNE24.JPG,AFNE22.JPG,AFSA24.JPG,AFSA22.JPG,AFSA23.JPG,,,,,0,8,8,8,,,,,,,,,,,,,,,,,,,AMNE09.jpg,AMSA18.jpg,AMSA03.jpg,AMNE13.jpg,AMNE09.jpg,MN,1,num_8,16,num_8,0.71675568819,,,2017_Oct_13_1146,59.9957857633,FEMA4ImagesEEG,001,101751,
AMNE23.JPG,AMNE24.JPG,AMNE22.JPG,AMSA24.JPG,AMSA22.JPG,AMSA23.JPG,,,,,0,9,9,9,,,,,,,,,,,,,,,,,,,AMNE04.jpg,AMNE09.jpg,AMSA05.jpg,AMSA16.jpg,AMNE04.jpg,MN,1,num_8,32,num_2,2.36674354807,,,2017_Oct_13_1146,59.9957857633,FEMA4ImagesEEG,001,101751,
AMSA25.JPG,AMNE24.JPG,AMSA24.JPG,AMNE26.JPG,AMSA21.JPG,AMNE25.JPG,,,,,,,,,0,0,0,3,,,,,,,,,,,,,,,AFSA06.jpg,AFSA08.jpg,AFNE14.jpg,AFNE13.jpg,AFSA06.jpg,FS,4,num_8,32,num_6,2.29997090879,,,2017_Oct_13_1146,59.9957857633,FEMA4ImagesEEG,001,101751,
AFSA21.JPG,AFNE22.JPG,AFNE21.JPG,AFSA23.JPG,AFSA22.JPG,AFNE23.JPG,,,,,,,,,0,1,1,0,,,,,,,,,,,,,,,AFSA02.jpg,AFNE15.jpg,AFSA12.jpg,AFNE06.jpg,AFNE06.jpg,FN,3,num_4,16,num_4,1.15012080676,,,2017_Oct_13_1146,59.9957857633,FEMA4ImagesEEG,001,101751,
AFNE22.JPG,AFSA24.JPG,AFSA22.JPG,AFNE25.JPG,AFNE24.JPG,AFSA25.JPG,,,,,,,,,0,2,2,6,,,,,,,,,,,,,,,AFSA13.jpg,AFNE20.jpg,AFSA06.jpg,AFNE19.jpg,AFSA06.jpg,FS,4,num_2,32,num_8,1.25012308394,,,2017_Oct_13_1146,59.9957857633,FEMA4ImagesEEG,001,101751,
AMSA21.JPG,AMNE22.JPG,AMNE21.JPG,AMSA23.JPG,AMSA22.JPG,AMNE23.JPG,,,,,,,,,0,3,3,1,,,,,,,,,,,,,,,AFSA12.jpg,AFNE07.jpg,AFSA09.jpg,AFNE16.jpg,AFSA09.jpg,FS,4,num_2,32,num_6,2.65002282057,,,2017_Oct_13_1146,59.9957857633,FEMA4ImagesEEG,001,101751,
AMNE22.JPG,AMSA24.JPG,AMSA22.JPG,AMNE25.JPG,AMNE24.JPG,AMSA25.JPG,,,,,,,,,0,4,4,7,,,,,,,,,,,,,,,AFNE12.jpg,AFSA20.jpg,AFNE16.jpg,AFSA16.jpg,AFSA16.jpg,FS,4,num_4,16,num_4,0.750103679253,,,2017_Oct_13_1146,59.9957857633,FEMA4ImagesEEG,001,101751,
AFSA21.JPG,AFNE23.JPG,AFNE21.JPG,AFSA25.JPG,AFNE25.JPG,AFSA23.JPG,,,,,,,,,0,5,5,4,,,,,,,,,,,,,,,AFSA01.jpg,AFSA17.jpg,AFNE09.jpg,AFNE12.jpg,AFNE12.jpg,FN,3,num_4,32,num_2,1.24977187358,,,2017_Oct_13_1146,59.9957857633,FEMA4ImagesEEG,001,101751,
AMNE23.JPG,AMNE24.JPG,AMNE22.JPG,AMSA24.JPG,AMSA22.JPG,AMSA23.JPG,,,,,,,,,0,6,6,9,,,,,,,,,,,,,,,AFNE10.jpg,AFSA17.jpg,AFNE13.jpg,AFSA01.jpg,AFSA01.jpg,FS,4,num_4,32,num_6,1.90001632564,,,2017_Oct_13_1146,59.9957857633,FEMA4ImagesEEG,001,101751,
AFSA25.JPG,AFNE24.JPG,AFSA24.JPG,AFNE21.JPG,AFSA21.JPG,AFNE25.JPG,,,,,,,,,0,7,7,2,,,,,,,,,,,,,,,AFNE11.jpg,AFSA05.jpg,AFNE07.jpg,AFSA14.jpg,AFSA05.jpg,FS,4,num_6,32,num_4,1.06685891829,,,2017_Oct_13_1146,59.9957857633,FEMA4ImagesEEG,001,101751,
AMSA21.JPG,AMNE23.JPG,AMNE21.JPG,AMSA25.JPG,AMNE25.JPG,AMSA23.JPG,,,,,,,,,0,8,8,5,,,,,,,,,,,,,,,AFSA18.jpg,AFSA02.jpg,AFNE05.jpg,AFNE18.jpg,AFSA02.jpg,FS,4,num_6,16,num_6,1.15006339434,,,2017_Oct_13_1146,59.9957857633,FEMA4ImagesEEG,001,101751,
AFNE23.JPG,AFNE24.JPG,AFNE22.JPG,AFSA24.JPG,AFSA22.JPG,AFSA23.JPG,,,,,,,,,0,9,9,8,,,,,,,,,,,,,,,AFNE01.jpg,AFNE04.jpg,AFSA02.jpg,AFSA09.jpg,AFNE01.jpg,FN,3,num_8,32,num_6,2.48333257961,,,2017_Oct_13_1146,59.9957857633,FEMA4ImagesEEG,001,101751,
AFNE23.JPG,AFNE24.JPG,AFNE22.JPG,AFSA24.JPG,AFSA22.JPG,AFSA23.JPG,,,,,,,,,,,,,0,0,0,8,,,,,,,,,,,AMSA17.jpg,AMNE13.jpg,AMNE02.jpg,AMSA03.jpg,AMSA17.jpg,MS,2,num_8,32,num_4,0.916771147749,,,2017_Oct_13_1146,59.9957857633,FEMA4ImagesEEG,001,101751,
AFSA21.JPG,AFNE22.JPG,AFNE21.JPG,AFSA23.JPG,AFSA22.JPG,AFNE23.JPG,,,,,,,,,,,,,0,1,1,0,,,,,,,,,,,AMNE04.jpg,AMSA17.jpg,AMNE15.jpg,AMSA14.jpg,AMSA14.jpg,MS,2,num_4,16,num_4,2.31668531767,,,2017_Oct_13_1146,59.9957857633,FEMA4ImagesEEG,001,101751,
AFNE22.JPG,AFSA24.JPG,AFSA22.JPG,AFNE25.JPG,AFNE24.JPG,AFSA25.JPG,,,,,,,,,,,,,0,2,2,6,,,,,,,,,,,AMNE13.jpg,AMNE16.jpg,AMSA03.jpg,AMSA20.jpg,AMNE16.jpg,MN,1,num_6,16,num_6,2.73344443773,,,2017_Oct_13_1146,59.9957857633,FEMA4ImagesEEG,001,101751,
AMNE22.JPG,AMSA24.JPG,AMSA22.JPG,AMNE25.JPG,AMNE24.JPG,AMSA25.JPG,,,,,,,,,,,,,0,3,3,7,,,,,,,,,,,AMSA19.jpg,AMSA14.jpg,AMNE10.jpg,AMNE15.jpg,AMNE15.jpg,MN,1,num_4,16,num_4,0.916749658179,,,2017_Oct_13_1146,59.9957857633,FEMA4ImagesEEG,001,101751,
AMNE23.JPG,AMNE24.JPG,AMNE22.JPG,AMSA24.JPG,AMSA22.JPG,AMSA23.JPG,,,,,,,,,,,,,0,4,4,9,,,,,,,,,,,AMSA19.jpg,AMSA11.jpg,AMNE18.jpg,AMNE01.jpg,AMSA11.jpg,MS,2,num_6,16,num_6,1.26676789229,,,2017_Oct_13_1146,59.9957857633,FEMA4ImagesEEG,001,101751,
AFSA25.JPG,AFNE24.JPG,AFSA24.JPG,AFNE21.JPG,AFSA21.JPG,AFNE25.JPG,,,,,,,,,,,,,0,5,5,2,,,,,,,,,,,AMNE18.jpg,AMNE13.jpg,AMSA18.jpg,AMSA08.jpg,AMSA08.jpg,MS,2,num_4,16,num_4,1.5167318891,,,2017_Oct_13_1146,59.9957857633,FEMA4ImagesEEG,001,101751,
AFSA21.JPG,AFNE23.JPG,AFNE21.JPG,AFSA25.JPG,AFNE25.JPG,AFSA23.JPG,,,,,,,,,,,,,0,6,6,4,,,,,,,,,,,AMSA06.jpg,AMNE17.jpg,AMNE02.jpg,AMSA12.jpg,AMNE02.jpg,MN,1,num_2,32,num_6,1.80007819645,,,2017_Oct_13_1146,59.9957857633,FEMA4ImagesEEG,001,101751,
AMSA25.JPG,AMNE24.JPG,AMSA24.JPG,AMNE26.JPG,AMSA21.JPG,AMNE25.JPG,,,,,,,,,,,,,0,7,7,3,,,,,,,,,,,AMNE08.jpg,AMSA04.jpg,AMSA13.jpg,AMNE19.jpg,AMSA04.jpg,MS,2,num_6,32,num_2,2.75027623738,,,2017_Oct_13_1146,59.9957857633,FEMA4ImagesEEG,001,101751,
AMSA21.JPG,AMNE22.JPG,AMNE21.JPG,AMSA23.JPG,AMSA22.JPG,AMNE23.JPG,,,,,,,,,,,,,0,8,8,1,,,,,,,,,,,AMNE01.jpg,AMNE17.jpg,AMSA07.jpg,AMSA15.jpg,AMNE01.jpg,MN,1,num_8,32,num_4,1.3001078649,,,2017_Oct_13_1146,59.9957857633,FEMA4ImagesEEG,001,101751,
AMSA21.JPG,AMNE23.JPG,AMNE21.JPG,AMSA25.JPG,AMNE25.JPG,AMSA23.JPG,,,,,,,,,,,,,0,9,9,5,,,,,,,,,,,AMSA11.jpg,AMNE15.jpg,AMSA01.jpg,AMNE01.jpg,AMSA11.jpg,MS,2,num_8,32,num_2,0.600161203998,,,2017_Oct_13_1146,59.9957857633,FEMA4ImagesEEG,001,101751,
AMNE22.JPG,AMSA24.JPG,AMSA22.JPG,AMNE25.JPG,AMNE24.JPG,AMSA25.JPG,,,,,,,,,,,,,,,,,0,0,0,7,,,,,,,AFSA02.jpg,AFNE15.jpg,AFSA05.jpg,AFNE08.jpg,AFNE15.jpg,FN,3,num_6,16,num_6,0.633505025529,,,2017_Oct_13_1146,59.9957857633,FEMA4ImagesEEG,001,101751,
AFSA21.JPG,AFNE23.JPG,AFNE21.JPG,AFSA25.JPG,AFNE25.JPG,AFSA23.JPG,,,,,,,,,,,,,,,,,0,1,1,4,,,,,,,AFSA04.jpg,AFNE01.jpg,AFSA02.jpg,AFNE11.jpg,AFNE01.jpg,FN,3,num_6,32,num_4,1.80007306463,,,2017_Oct_13_1146,59.9957857633,FEMA4ImagesEEG,001,101751,
AMSA21.JPG,AMNE23.JPG,AMNE21.JPG,AMSA25.JPG,AMNE25.JPG,AMSA23.JPG,,,,,,,,,,,,,,,,,0,2,2,5,,,,,,,AFNE16.jpg,AFSA03.jpg,AFNE04.jpg,AFSA13.jpg,AFSA03.jpg,FS,4,num_6,32,num_8,1.53341197886,,,2017_Oct_13_1146,59.9957857633,FEMA4ImagesEEG,001,101751,
AMSA21.JPG,AMNE22.JPG,AMNE21.JPG,AMSA23.JPG,AMSA22.JPG,AMNE23.JPG,,,,,,,,,,,,,,,,,0,3,3,1,,,,,,,AFSA17.jpg,AFNE14.jpg,AFNE06.jpg,AFSA12.jpg,AFNE14.jpg,FN,3,num_6,16,num_6,1.85008029721,,,2017_Oct_13_1146,59.9957857633,FEMA4ImagesEEG,001,101751,
AMNE23.JPG,AMNE24.JPG,AMNE22.JPG,AMSA24.JPG,AMSA22.JPG,AMSA23.JPG,,,,,,,,,,,,,,,,,0,4,4,9,,,,,,,AFNE07.jpg,AFSA20.jpg,AFNE06.jpg,AFSA10.jpg,AFSA10.jpg,FS,4,num_4,16,num_4,3.34991559724,,,2017_Oct_13_1146,59.9957857633,FEMA4ImagesEEG,001,101751,
AFNE23.JPG,AFNE24.JPG,AFNE22.JPG,AFSA24.JPG,AFSA22.JPG,AFSA23.JPG,,,,,,,,,,,,,,,,,0,5,5,8,,,,,,,AFNE06.jpg,AFSA04.jpg,AFSA19.jpg,AFNE07.jpg,AFNE06.jpg,FN,3,num_8,32,num_6,2.25004931388,,,2017_Oct_13_1146,59.9957857633,FEMA4ImagesEEG,001,101751,
AMSA25.JPG,AMNE24.JPG,AMSA24.JPG,AMNE26.JPG,AMSA21.JPG,AMNE25.JPG,,,,,,,,,,,,,,,,,0,6,6,3,,,,,,,AFSA19.jpg,AFSA11.jpg,AFNE16.jpg,AFNE13.jpg,AFSA19.jpg,FS,4,num_8,32,num_2,1.00009782566,,,2017_Oct_13_1146,59.9957857633,FEMA4ImagesEEG,001,101751,
AFNE22.JPG,AFSA24.JPG,AFSA22.JPG,AFNE25.JPG,AFNE24.JPG,AFSA25.JPG,,,,,,,,,,,,,,,,,0,7,7,6,,,,,,,AFSA17.jpg,AFSA13.jpg,AFNE17.jpg,AFNE13.jpg,AFSA17.jpg,FS,4,num_8,32,num_6,1.46701139817,,,2017_Oct_13_1146,59.9957857633,FEMA4ImagesEEG,001,101751,
AFSA25.JPG,AFNE24.JPG,AFSA24.JPG,AFNE21.JPG,AFSA21.JPG,AFNE25.JPG,,,,,,,,,,,,,,,,,0,8,8,2,,,,,,,AFNE13.jpg,AFNE19.jpg,AFSA02.jpg,AFSA08.jpg,AFSA08.jpg,FS,4,num_4,32,num_2,1.06675628142,,,2017_Oct_13_1146,59.9957857633,FEMA4ImagesEEG,001,101751,
AFSA21.JPG,AFNE22.JPG,AFNE21.JPG,AFSA23.JPG,AFSA22.JPG,AFNE23.JPG,,,,,,,,,,,,,,,,,0,9,9,0,,,,,,,AFSA06.jpg,AFNE13.jpg,AFNE19.jpg,AFSA04.jpg,AFSA04.jpg,FS,4,num_4,32,num_2,0.800164154731,,,2017_Oct_13_1146,59.9957857633,FEMA4ImagesEEG,001,101751,
AFNE22.JPG,AFSA24.JPG,AFSA22.JPG,AFNE25.JPG,AFNE24.JPG,AFSA25.JPG,,,,,,,,,,,,,,,,,,,,,0,0,0,6,,,AMSA04.jpg,AMSA03.jpg,AMNE17.jpg,AMNE09.jpg,AMNE17.jpg,MN,1,num_2,16,num_2,1.06673062232,,,2017_Oct_13_1146,59.9957857633,FEMA4ImagesEEG,001,101751,
AMNE23.JPG,AMNE24.JPG,AMNE22.JPG,AMSA24.JPG,AMSA22.JPG,AMSA23.JPG,,,,,,,,,,,,,,,,,,,,,0,1,1,9,,,AMNE12.jpg,AMSA15.jpg,AMSA01.jpg,AMNE14.jpg,AMSA15.jpg,MS,2,num_6,16,num_6,0.950140949222,,,2017_Oct_13_1146,59.9957857633,FEMA4ImagesEEG,001,101751,
AFSA21.JPG,AFNE23.JPG,AFNE21.JPG,AFSA25.JPG,AFNE25.JPG,AFSA23.JPG,,,,,,,,,,,,,,,,,,,,,0,2,2,4,,,AMSA14.jpg,AMNE20.jpg,AMNE08.jpg,AMSA11.jpg,AMSA11.jpg,MS,2,num_4,32,num_8,3.19992501091,,,2017_Oct_13_1146,59.9957857633,FEMA4ImagesEEG,001,101751,
AFSA21.JPG,AFNE22.JPG,AFNE21.JPG,AFSA23.JPG,AFSA22.JPG,AFNE23.JPG,,,,,,,,,,,,,,,,,,,,,0,3,3,0,,,AMSA19.jpg,AMNE20.jpg,AMSA16.jpg,AMNE12.jpg,AMSA19.jpg,MS,2,num_8,32,num_2,2.6666663459,,,2017_Oct_13_1146,59.9957857633,FEMA4ImagesEEG,001,101751,
AMSA21.JPG,AMNE22.JPG,AMNE21.JPG,AMSA23.JPG,AMSA22.JPG,AMNE23.JPG,,,,,,,,,,,,,,,,,,,,,0,4,4,1,,,AMSA15.jpg,AMNE02.jpg,AMSA04.jpg,AMNE18.jpg,AMSA15.jpg,MS,2,num_8,16,num_8,0.783120025066,,,2017_Oct_13_1146,59.9957857633,FEMA4ImagesEEG,001,101751,
AMNE22.JPG,AMSA24.JPG,AMSA22.JPG,AMNE25.JPG,AMNE24.JPG,AMSA25.JPG,,,,,,,,,,,,,,,,,,,,,0,5,5,7,,,AMSA08.jpg,AMSA17.jpg,AMNE09.jpg,AMNE10.jpg,AMSA08.jpg,MS,2,num_8,16,num_8,1.26676564699,,,2017_Oct_13_1146,59.9957857633,FEMA4ImagesEEG,001,101751,
AMSA25.JPG,AMNE24.JPG,AMSA24.JPG,AMNE26.JPG,AMSA21.JPG,AMNE25.JPG,,,,,,,,,,,,,,,,,,,,,0,6,6,3,,,AMNE15.jpg,AMNE17.jpg,AMSA02.jpg,AMSA01.jpg,AMNE17.jpg,MN,1,num_6,16,num_6,0.700097408728,,,2017_Oct_13_1146,59.9957857633,FEMA4ImagesEEG,001,101751,
AMSA21.JPG,AMNE23.JPG,AMNE21.JPG,AMSA25.JPG,AMNE25.JPG,AMSA23.JPG,,,,,,,,,,,,,,,,,,,,,0,7,7,5,,,AMNE06.jpg,AMSA07.jpg,AMNE08.jpg,AMSA20.jpg,AMNE08.jpg,MN,1,num_2,32,num_4,1.48346215859,,,2017_Oct_13_1146,59.9957857633,FEMA4ImagesEEG,001,101751,
AFNE23.JPG,AFNE24.JPG,AFNE22.JPG,AFSA24.JPG,AFSA22.JPG,AFSA23.JPG,,,,,,,,,,,,,,,,,,,,,0,8,8,8,,,AMSA11.jpg,AMSA03.jpg,AMNE19.jpg,AMNE06.jpg,AMSA03.jpg,MS,2,num_6,32,num_8,1.88336670632,,,2017_Oct_13_1146,59.9957857633,FEMA4ImagesEEG,001,101751,
AFSA25.JPG,AFNE24.JPG,AFSA24.JPG,AFNE21.JPG,AFSA21.JPG,AFNE25.JPG,,,,,,,,,,,,,,,,,,,,,0,9,9,2,,,AMSA03.jpg,AMSA14.jpg,AMNE14.jpg,AMNE15.jpg,AMSA14.jpg,MS,2,num_6,16,num_6,1.7334123638,,,2017_Oct_13_1146,59.9957857633,FEMA4ImagesEEG,001,101751,
,,,,,,,,,,,,,,,,,,,,,,,,,,,,,,,,,,,,,,,,,,,space,16.1322918261,2017_Oct_13_1146,59.9957857633,FEMA4ImagesEEG,001,101751,
AFNE01.JPG,AFNE01.JPG,AFNE01.JPG,AFNE01.JPG,AFNE01.JPG,AFNE01.JPG,0,0,0,0,,,,,,,,,,,,,,,,,,,,,,,AFSA14.jpg,AFNE08.jpg,AFSA01.jpg,AFNE11.jpg,AFNE11.jpg,FN,3,num_4,32,num_6,1.36660498835,,,2017_Oct_13_1146,59.9957857633,FEMA4ImagesEEG,001,101751,
AFNE01.JPG,AFNE01.JPG,AFNE01.JPG,AFNE01.JPG,AFNE01.JPG,AFNE01.JPG,0,1,1,7,,,,,,,,,,,,,,,,,,,,,,,AFNE06.jpg,AFSA13.jpg,AFNE10.jpg,AFSA17.jpg,AFSA13.jpg,FS,4,num_6,32,num_4,2.53327887168,,,2017_Oct_13_1146,59.9957857633,FEMA4ImagesEEG,001,101751,
AFNE01.JPG,AFNE01.JPG,AFNE01.JPG,AFNE01.JPG,AFNE01.JPG,AFNE01.JPG,0,2,2,3,,,,,,,,,,,,,,,,,,,,,,,AFSA02.jpg,AFNE15.jpg,AFSA17.jpg,AFNE03.jpg,AFSA02.jpg,FS,4,num_8,32,num_2,0.750205353834,,,2017_Oct_13_1146,59.9957857633,FEMA4ImagesEEG,001,101751,
AFNE01.JPG,AFNE01.JPG,AFNE01.JPG,AFNE01.JPG,AFNE01.JPG,AFNE01.JPG,0,3,3,5,,,,,,,,,,,,,,,,,,,,,,,AFSA01.jpg,AFNE07.jpg,AFSA15.jpg,AFNE14.jpg,AFNE07.jpg,FN,3,num_6,16,num_6,1.26676821301,,,2017_Oct_13_1146,59.9957857633,FEMA4ImagesEEG,001,101751,
AFNE01.JPG,AFNE01.JPG,AFNE01.JPG,AFNE01.JPG,AFNE01.JPG,AFNE01.JPG,0,4,4,2,,,,,,,,,,,,,,,,,,,,,,,AFSA04.jpg,AFSA13.jpg,AFNE04.jpg,AFNE12.jpg,AFSA04.jpg,FS,4,num_8,32,num_2,2.15007012978,,,2017_Oct_13_1146,59.9957857633,FEMA4ImagesEEG,001,101751,
AFNE01.JPG,AFNE01.JPG,AFNE01.JPG,AFNE01.JPG,AFNE01.JPG,AFNE01.JPG,0,5,5,4,,,,,,,,,,,,,,,,,,,,,,,AFNE20.jpg,AFSA20.jpg,AFNE02.jpg,AFSA19.jpg,AFSA20.jpg,FS,4,num_6,32,num_8,0.883339764085,,,2017_Oct_13_1146,59.9957857633,FEMA4ImagesEEG,001,101751,
AFNE01.JPG,AFNE01.JPG,AFNE01.JPG,AFNE01.JPG,AFNE01.JPG,AFNE01.JPG,0,6,6,8,,,,,,,,,,,,,,,,,,,,,,,AFNE14.jpg,AFSA04.jpg,AFSA14.jpg,AFNE16.jpg,AFNE16.jpg,FN,3,num_4,16,num_4,0.650161059573,,,2017_Oct_13_1146,59.9957857633,FEMA4ImagesEEG,001,101751,
AFNE01.JPG,AFNE01.JPG,AFNE01.JPG,AFNE01.JPG,AFNE01.JPG,AFNE01.JPG,0,7,7,9,,,,,,,,,,,,,,,,,,,,,,,AFNE06.jpg,AFSA08.jpg,AFNE03.jpg,AFSA19.jpg,AFSA19.jpg,FS,4,num_4,32,num_6,1.90004102269,,,2017_Oct_13_1146,59.9957857633,FEMA4ImagesEEG,001,101751,
AFNE01.JPG,AFNE01.JPG,AFNE01.JPG,AFNE01.JPG,AFNE01.JPG,AFNE01.JPG,0,8,8,1,,,,,,,,,,,,,,,,,,,,,,,AFSA01.jpg,AFSA15.jpg,AFNE13.jpg,AFNE10.jpg,AFNE10.jpg,FN,3,num_4,32,num_6,1.46671920386,,,2017_Oct_13_1146,59.9957857633,FEMA4ImagesEEG,001,101751,
AFNE01.JPG,AFNE01.JPG,AFNE01.JPG,AFNE01.JPG,AFNE01.JPG,AFNE01.JPG,0,9,9,6,,,,,,,,,,,,,,,,,,,,,,,AFSA08.jpg,AFNE17.jpg,AFNE18.jpg,AFSA19.jpg,AFSA08.jpg,FS,4,num_8,32,num_6,1.80003329285,,,2017_Oct_13_1146,59.9957857633,FEMA4ImagesEEG,001,101751,
AFNE01.JPG,AFNE01.JPG,AFNE01.JPG,AFNE01.JPG,AFNE01.JPG,AFNE01.JPG,1,0,10,6,,,,,,,,,,,,,,,,,,,,,,,AFSA19.jpg,AFNE20.jpg,AFSA17.jpg,AFNE14.jpg,AFNE20.jpg,FN,3,num_6,32,num_8,2.26670021599,,,2017_Oct_13_1146,59.9957857633,FEMA4ImagesEEG,001,101751,
AFNE01.JPG,AFNE01.JPG,AFNE01.JPG,AFNE01.JPG,AFNE01.JPG,AFNE01.JPG,1,1,11,4,,,,,,,,,,,,,,,,,,,,,,,AFNE07.jpg,AFSA17.jpg,AFSA10.jpg,AFNE16.jpg,AFNE07.jpg,FN,3,num_8,16,num_8,0.850158557878,,,2017_Oct_13_1146,59.9957857633,FEMA4ImagesEEG,001,101751,
AFNE01.JPG,AFNE01.JPG,AFNE01.JPG,AFNE01.JPG,AFNE01.JPG,AFNE01.JPG,1,2,12,1,,,,,,,,,,,,,,,,,,,,,,,AFNE14.jpg,AFSA01.jpg,AFSA20.jpg,AFNE02.jpg,AFNE02.jpg,FN,3,num_4,16,num_4,1.90010998177,,,2017_Oct_13_1146,59.9957857633,FEMA4ImagesEEG,001,101751,
AFNE01.JPG,AFNE01.JPG,AFNE01.JPG,AFNE01.JPG,AFNE01.JPG,AFNE01.JPG,1,3,13,5,,,,,,,,,,,,,,,,,,,,,,,AFNE06.jpg,AFSA08.jpg,AFNE16.jpg,AFSA17.jpg,AFSA17.jpg,FS,4,num_4,16,num_4,1.73369525641,,,2017_Oct_13_1146,59.9957857633,FEMA4ImagesEEG,001,101751,
AFNE01.JPG,AFNE01.JPG,AFNE01.JPG,AFNE01.JPG,AFNE01.JPG,AFNE01.JPG,1,4,14,9,,,,,,,,,,,,,,,,,,,,,,,AFSA02.jpg,AFNE19.jpg,AFSA08.jpg,AFNE01.jpg,AFNE19.jpg,FN,3,num_6,16,num_6,0.816745777265,,,2017_Oct_13_1146,59.9957857633,FEMA4ImagesEEG,001,101751,
AFNE01.JPG,AFNE01.JPG,AFNE01.JPG,AFNE01.JPG,AFNE01.JPG,AFNE01.JPG,1,5,15,2,,,,,,,,,,,,,,,,,,,,,,,AFNE07.jpg,AFSA07.jpg,AFNE17.jpg,AFSA03.jpg,AFSA07.jpg,FS,4,num_6,32,num_2,2.64994872967,,,2017_Oct_13_1146,59.9957857633,FEMA4ImagesEEG,001,101751,
AFNE01.JPG,AFNE01.JPG,AFNE01.JPG,AFNE01.JPG,AFNE01.JPG,AFNE01.JPG,1,6,16,7,,,,,,,,,,,,,,,,,,,,,,,AFSA06.jpg,AFNE15.jpg,AFSA02.jpg,AFNE08.jpg,AFNE08.jpg,FN,3,num_4,16,num_4,2.39988786925,,,2017_Oct_13_1146,59.9957857633,FEMA4ImagesEEG,001,101751,
AFNE01.JPG,AFNE01.JPG,AFNE01.JPG,AFNE01.JPG,AFNE01.JPG,AFNE01.JPG,1,7,17,8,,,,,,,,,,,,,,,,,,,,,,,AFSA08.jpg,AFNE11.jpg,AFNE18.jpg,AFSA03.jpg,AFSA08.jpg,FS,4,num_8,16,num_8,1.20012226619,,,2017_Oct_13_1146,59.9957857633,FEMA4ImagesEEG,001,101751,
AFNE01.JPG,AFNE01.JPG,AFNE01.JPG,AFNE01.JPG,AFNE01.JPG,AFNE01.JPG,1,8,18,0,,,,,,,,,,,,,,,,,,,,,,,AFNE02.jpg,AFSA06.jpg,AFSA08.jpg,AFNE18.jpg,AFSA08.jpg,FS,4,num_2,16,num_2,1.26673549751,,,2017_Oct_13_1146,59.9957857633,FEMA4ImagesEEG,001,101751,
AFNE01.JPG,AFNE01.JPG,AFNE01.JPG,AFNE01.JPG,AFNE01.JPG,AFNE01.JPG,1,9,19,3,,,,,,,,,,,,,,,,,,,,,,,AFSA09.jpg,AFNE17.jpg,AFNE08.jpg,AFSA04.jpg,AFNE17.jpg,FN,3,num_6,32,num_4,2.13336790912,,,2017_Oct_13_1146,59.9957857633,FEMA4ImagesEEG,001,101751,
AFNE01.JPG,AFNE01.JPG,AFNE01.JPG,AFNE01.JPG,AFNE01.JPG,AFNE01.JPG,2,0,20,8,,,,,,,,,,,,,,,,,,,,,,,AFSA12.jpg,AFNE15.jpg,AFNE14.jpg,AFSA01.jpg,AFSA01.jpg,FS,4,num_4,32,num_2,2.71634289552,,,2017_Oct_13_1146,59.9957857633,FEMA4ImagesEEG,001,101751,
AFNE01.JPG,AFNE01.JPG,AFNE01.JPG,AFNE01.JPG,AFNE01.JPG,AFNE01.JPG,2,1,21,7,,,,,,,,,,,,,,,,,,,,,,,AFNE19.jpg,AFSA03.jpg,AFSA12.jpg,AFNE03.jpg,AFSA12.jpg,FS,4,num_2,16,num_2,1.05012077466,,,2017_Oct_13_1146,59.9957857633,FEMA4ImagesEEG,001,101751,
AFNE01.JPG,AFNE01.JPG,AFNE01.JPG,AFNE01.JPG,AFNE01.JPG,AFNE01.JPG,2,2,22,5,,,,,,,,,,,,,,,,,,,,,,,AFSA05.jpg,AFNE03.jpg,AFSA06.jpg,AFNE07.jpg,AFNE03.jpg,FN,3,num_6,32,num_4,2.1666905618,,,2017_Oct_13_1146,59.9957857633,FEMA4ImagesEEG,001,101751,
AFNE01.JPG,AFNE01.JPG,AFNE01.JPG,AFNE01.JPG,AFNE01.JPG,AFNE01.JPG,2,3,23,0,,,,,,,,,,,,,,,,,,,,,,,AFNE09.jpg,AFSA20.jpg,AFNE01.jpg,AFSA04.jpg,AFSA20.jpg,FS,4,num_6,16,num_6,3.14990751457,,,2017_Oct_13_1146,59.9957857633,FEMA4ImagesEEG,001,101751,
AFNE01.JPG,AFNE01.JPG,AFNE01.JPG,AFNE01.JPG,AFNE01.JPG,AFNE01.JPG,2,4,24,6,,,,,,,,,,,,,,,,,,,,,,,AFSA09.jpg,AFNE01.jpg,AFSA08.jpg,AFNE12.jpg,AFSA09.jpg,FS,4,num_8,16,num_8,1.03346185398,,,2017_Oct_13_1146,59.9957857633,FEMA4ImagesEEG,001,101751,
AFNE01.JPG,AFNE01.JPG,AFNE01.JPG,AFNE01.JPG,AFNE01.JPG,AFNE01.JPG,2,5,25,2,,,,,,,,,,,,,,,,,,,,,,,AFNE02.jpg,AFSA13.jpg,AFSA09.jpg,AFNE17.jpg,AFNE17.jpg,FN,3,num_4,32,num_8,2.26665948215,,,2017_Oct_13_1146,59.9957857633,FEMA4ImagesEEG,001,101751,
AFNE01.JPG,AFNE01.JPG,AFNE01.JPG,AFNE01.JPG,AFNE01.JPG,AFNE01.JPG,2,6,26,3,,,,,,,,,,,,,,,,,,,,,,,AFNE01.jpg,AFSA12.jpg,AFNE03.jpg,AFSA20.jpg,AFSA20.jpg,FS,4,num_4,16,num_4,2.20004753361,,,2017_Oct_13_1146,59.9957857633,FEMA4ImagesEEG,001,101751,
AFNE01.JPG,AFNE01.JPG,AFNE01.JPG,AFNE01.JPG,AFNE01.JPG,AFNE01.JPG,2,7,27,4,,,,,,,,,,,,,,,,,,,,,,,AFNE19.jpg,AFSA01.jpg,AFNE07.jpg,AFSA20.jpg,AFSA20.jpg,FS,4,num_4,16,num_4,0.850005885586,,,2017_Oct_13_1146,59.9957857633,FEMA4ImagesEEG,001,101751,
AFNE01.JPG,AFNE01.JPG,AFNE01.JPG,AFNE01.JPG,AFNE01.JPG,AFNE01.JPG,2,8,28,9,,,,,,,,,,,,,,,,,,,,,,,AFNE04.jpg,AFSA10.jpg,AFSA12.jpg,AFNE10.jpg,AFSA10.jpg,FS,4,num_6,16,num_6,1.0334464584,,,2017_Oct_13_1146,59.9957857633,FEMA4ImagesEEG,001,101751,
AFNE01.JPG,AFNE01.JPG,AFNE01.JPG,AFNE01.JPG,AFNE01.JPG,AFNE01.JPG,2,9,29,1,,,,,,,,,,,,,,,,,,,,,,,AFNE14.jpg,AFSA18.jpg,AFSA15.jpg,AFNE15.jpg,AFNE15.jpg,FN,3,num_4,32,num_2,0.716793535394,,,2017_Oct_13_1146,59.9957857633,FEMA4ImagesEEG,001,101751,
AFNE01.JPG,AFNE01.JPG,AFNE01.JPG,AFNE01.JPG,AFNE01.JPG,AFNE01.JPG,3,0,30,1,,,,,,,,,,,,,,,,,,,,,,,AFSA02.jpg,AFSA14.jpg,AFNE09.jpg,AFNE18.jpg,AFNE09.jpg,FN,3,num_2,16,num_2,1.5333908099,,,2017_Oct_13_1146,59.9957857633,FEMA4ImagesEEG,001,101751,
AFNE01.JPG,AFNE01.JPG,AFNE01.JPG,AFNE01.JPG,AFNE01.JPG,AFNE01.JPG,3,1,31,7,,,,,,,,,,,,,,,,,,,,,,,AFSA17.jpg,AFNE08.jpg,AFNE20.jpg,AFSA06.jpg,AFSA17.jpg,FS,4,num_8,16,num_8,0.80010834604,,,2017_Oct_13_1146,59.9957857633,FEMA4ImagesEEG,001,101751,
AFNE01.JPG,AFNE01.JPG,AFNE01.JPG,AFNE01.JPG,AFNE01.JPG,AFNE01.JPG,3,2,32,3,,,,,,,,,,,,,,,,,,,,,,,AFSA20.jpg,AFSA01.jpg,AFNE03.jpg,AFNE18.jpg,AFSA01.jpg,FS,4,num_6,16,num_6,2.05040302605,,,2017_Oct_13_1146,59.9957857633,FEMA4ImagesEEG,001,101751,
AFNE01.JPG,AFNE01.JPG,AFNE01.JPG,AFNE01.JPG,AFNE01.JPG,AFNE01.JPG,3,3,33,8,,,,,,,,,,,,,,,,,,,,,,,AFNE20.jpg,AFSA04.jpg,AFSA08.jpg,AFNE11.jpg,AFNE11.jpg,FN,3,num_4,16,num_4,2.08349763241,,,2017_Oct_13_1146,59.9957857633,FEMA4ImagesEEG,001,101751,
AFNE01.JPG,AFNE01.JPG,AFNE01.JPG,AFNE01.JPG,AFNE01.JPG,AFNE01.JPG,3,4,34,5,,,,,,,,,,,,,,,,,,,,,,,AFNE13.jpg,AFNE14.jpg,AFSA08.jpg,AFSA14.jpg,AFSA14.jpg,FS,4,num_4,32,num_8,2.00009525975,,,2017_Oct_13_1146,59.9957857633,FEMA4ImagesEEG,001,101751,
AFNE01.JPG,AFNE01.JPG,AFNE01.JPG,AFNE01.JPG,AFNE01.JPG,AFNE01.JPG,3,5,35,2,,,,,,,,,,,,,,,,,,,,,,,AFNE16.jpg,AFSA17.jpg,AFSA06.jpg,AFNE12.jpg,AFSA06.jpg,FS,4,num_2,32,num_6,1.80017121101,,,2017_Oct_13_1146,59.9957857633,FEMA4ImagesEEG,001,101751,
AFNE01.JPG,AFNE01.JPG,AFNE01.JPG,AFNE01.JPG,AFNE01.JPG,AFNE01.JPG,3,6,36,6,,,,,,,,,,,,,,,,,,,,,,,AFSA05.jpg,AFNE18.jpg,AFSA08.jpg,AFNE20.jpg,AFNE18.jpg,FN,3,num_6,32,num_8,1.70013974642,,,2017_Oct_13_1146,59.9957857633,FEMA4ImagesEEG,001,101751,
AFNE01.JPG,AFNE01.JPG,AFNE01.JPG,AFNE01.JPG,AFNE01.JPG,AFNE01.JPG,3,7,37,4,,,,,,,,,,,,,,,,,,,,,,,AFSA16.jpg,AFNE01.jpg,AFSA08.jpg,AFNE20.jpg,AFSA16.jpg,FS,4,num_8,32,num_6,2.10003659653,,,2017_Oct_13_1146,59.9957857633,FEMA4ImagesEEG,001,101751,
AFNE01.JPG,AFNE01.JPG,AFNE01.JPG,AFNE01.JPG,AFNE01.JPG,AFNE01.JPG,3,8,38,0,,,,,,,,,,,,,,,,,,,,,,,AFNE07.jpg,AFSA03.jpg,AFSA05.jpg,AFNE05.jpg,AFSA05.jpg,FS,4,num_2,32,num_6,2.3666287231,,,2017_Oct_13_1146,59.9957857633,FEMA4ImagesEEG,001,101751,
AFNE01.JPG,AFNE01.JPG,AFNE01.JPG,AFNE01.JPG,AFNE01.JPG,AFNE01.JPG,3,9,39,9,,,,,,,,,,,,,,,,,,,,,,,AFNE16.jpg,AFNE19.jpg,AFSA03.jpg,AFSA15.jpg,AFNE16.jpg,FN,3,num_8,32,num_6,1.58314786525,,,2017_Oct_13_1146,59.9957857633,FEMA4ImagesEEG,001,101751,
AFNE01.JPG,AFNE01.JPG,AFNE01.JPG,AFNE01.JPG,AFNE01.JPG,AFNE01.JPG,4,0,40,5,,,,,,,,,,,,,,,,,,,,,,,AFSA17.jpg,AFSA08.jpg,AFNE03.jpg,AFNE11.jpg,AFSA17.jpg,FS,4,num_8,32,num_4,1.81673968316,,,2017_Oct_13_1146,59.9957857633,FEMA4ImagesEEG,001,101751,
AFNE01.JPG,AFNE01.JPG,AFNE01.JPG,AFNE01.JPG,AFNE01.JPG,AFNE01.JPG,4,1,41,0,,,,,,,,,,,,,,,,,,,,,,,AFNE20.jpg,AFNE16.jpg,AFSA11.jpg,AFSA14.jpg,AFSA11.jpg,FS,4,num_2,32,num_6,1.18345596828,,,2017_Oct_13_1146,59.9957857633,FEMA4ImagesEEG,001,101751,
AFNE01.JPG,AFNE01.JPG,AFNE01.JPG,AFNE01.JPG,AFNE01.JPG,AFNE01.JPG,4,2,42,7,,,,,,,,,,,,,,,,,,,,,,,AFNE02.jpg,AFSA16.jpg,AFSA14.jpg,AFNE14.jpg,AFSA16.jpg,FS,4,num_6,32,num_2,1.23372011387,,,2017_Oct_13_1146,59.9957857633,FEMA4ImagesEEG,001,101751,
AFNE01.JPG,AFNE01.JPG,AFNE01.JPG,AFNE01.JPG,AFNE01.JPG,AFNE01.JPG,4,3,43,1,,,,,,,,,,,,,,,,,,,,,,,AFSA04.jpg,AFSA14.jpg,AFNE02.jpg,AFNE14.jpg,AFSA14.jpg,FS,4,num_6,32,num_8,0.833398603951,,,2017_Oct_13_1146,59.9957857633,FEMA4ImagesEEG,001,101751,
AFNE01.JPG,AFNE01.JPG,AFNE01.JPG,AFNE01.JPG,AFNE01.JPG,AFNE01.JPG,4,4,44,4,,,,,,,,,,,,,,,,,,,,,,,AFNE01.jpg,AFSA06.jpg,AFNE18.jpg,AFSA01.jpg,AFSA06.jpg,FS,4,num_6,16,num_6,1.31672027847,,,2017_Oct_13_1146,59.9957857633,FEMA4ImagesEEG,001,101751,
AFNE01.JPG,AFNE01.JPG,AFNE01.JPG,AFNE01.JPG,AFNE01.JPG,AFNE01.JPG,4,5,45,6,,,,,,,,,,,,,,,,,,,,,,,AFNE08.jpg,AFSA11.jpg,AFSA04.jpg,AFNE18.jpg,AFSA11.jpg,FS,4,num_6,16,num_6,0.566808080999,,,2017_Oct_13_1146,59.9957857633,FEMA4ImagesEEG,001,101751,
AFNE01.JPG,AFNE01.JPG,AFNE01.JPG,AFNE01.JPG,AFNE01.JPG,AFNE01.JPG,4,6,46,9,,,,,,,,,,,,,,,,,,,,,,,AFSA17.jpg,AFNE04.jpg,AFNE07.jpg,AFSA14.jpg,AFSA17.jpg,FS,4,num_8,16,num_8,0.633496686234,,,2017_Oct_13_1146,59.9957857633,FEMA4ImagesEEG,001,101751,
AFNE01.JPG,AFNE01.JPG,AFNE01.JPG,AFNE01.JPG,AFNE01.JPG,AFNE01.JPG,4,7,47,3,,,,,,,,,,,,,,,,,,,,,,,AFNE09.jpg,AFSA04.jpg,AFSA11.jpg,AFNE17.jpg,AFNE09.jpg,FN,3,num_8,32,num_4,1.71666876751,,,2017_Oct_13_1146,59.9957857633,FEMA4ImagesEEG,001,101751,
AFNE01.JPG,AFNE01.JPG,AFNE01.JPG,AFNE01.JPG,AFNE01.JPG,AFNE01.JPG,4,8,48,8,,,,,,,,,,,,,,,,,,,,,,,AFNE20.jpg,AFSA14.jpg,AFSA15.jpg,AFNE09.jpg,AFNE20.jpg,FN,3,num_8,32,num_4,2.916616551,,,2017_Oct_13_1146,59.9957857633,FEMA4ImagesEEG,001,101751,
AFNE01.JPG,AFNE01.JPG,AFNE01.JPG,AFNE01.JPG,AFNE01.JPG,AFNE01.JPG,4,9,49,2,,,,,,,,,,,,,,,,,,,,,,,AFNE02.jpg,AFSA09.jpg,AFSA02.jpg,AFNE01.jpg,AFNE01.jpg,FN,3,num_4,32,num_8,1.35003042221,,,2017_Oct_13_1146,59.9957857633,FEMA4ImagesEEG,001,101751,
AFNE01.JPG,AFNE01.JPG,AFNE01.JPG,AFNE01.JPG,AFNE01.JPG,AFNE01.JPG,5,0,50,7,,,,,,,,,,,,,,,,,,,,,,,AFNE08.jpg,AFNE17.jpg,AFSA08.jpg,AFSA06.jpg,AFNE17.jpg,FN,3,num_6,16,num_6,1.28341045522,,,2017_Oct_13_1146,59.9957857633,FEMA4ImagesEEG,001,101751,
AFNE01.JPG,AFNE01.JPG,AFNE01.JPG,AFNE01.JPG,AFNE01.JPG,AFNE01.JPG,5,1,51,4,,,,,,,,,,,,,,,,,,,,,,,AFNE14.jpg,AFSA10.jpg,AFSA01.jpg,AFNE01.jpg,AFSA01.jpg,FS,4,num_2,16,num_2,0.800153570366,,,2017_Oct_13_1146,59.9957857633,FEMA4ImagesEEG,001,101751,
AFNE01.JPG,AFNE01.JPG,AFNE01.JPG,AFNE01.JPG,AFNE01.JPG,AFNE01.JPG,5,2,52,9,,,,,,,,,,,,,,,,,,,,,,,AFNE09.jpg,AFSA08.jpg,AFSA05.jpg,AFNE13.jpg,AFNE09.jpg,FN,3,num_8,32,num_4,1.5333978663,,,2017_Oct_13_1146,59.9957857633,FEMA4ImagesEEG,001,101751,
AFNE01.JPG,AFNE01.JPG,AFNE01.JPG,AFNE01.JPG,AFNE01.JPG,AFNE01.JPG,5,3,53,2,,,,,,,,,,,,,,,,,,,,,,,AFSA11.jpg,AFSA15.jpg,AFNE18.jpg,AFNE02.jpg,AFSA11.jpg,FS,4,num_8,32,num_6,1.66673819174,,,2017_Oct_13_1146,59.9957857633,FEMA4ImagesEEG,001,101751,
AFNE01.JPG,AFNE01.JPG,AFNE01.JPG,AFNE01.JPG,AFNE01.JPG,AFNE01.JPG,5,4,54,6,,,,,,,,,,,,,,,,,,,,,,,AFSA20.jpg,AFNE18.jpg,AFSA06.jpg,AFNE10.jpg,AFNE18.jpg,FN,3,num_6,16,num_6,2.58329219837,,,2017_Oct_13_1146,59.9957857633,FEMA4ImagesEEG,001,101751,
AFNE01.JPG,AFNE01.JPG,AFNE01.JPG,AFNE01.JPG,AFNE01.JPG,AFNE01.JPG,5,5,55,5,,,,,,,,,,,,,,,,,,,,,,,AFSA04.jpg,AFNE09.jpg,AFNE07.jpg,AFSA17.jpg,AFSA04.jpg,FS,4,num_8,16,num_8,1.86661797832,,,2017_Oct_13_1146,59.9957857633,FEMA4ImagesEEG,001,101751,
AFNE01.JPG,AFNE01.JPG,AFNE01.JPG,AFNE01.JPG,AFNE01.JPG,AFNE01.JPG,5,6,56,8,,,,,,,,,,,,,,,,,,,,,,,AFNE10.jpg,AFNE01.jpg,AFSA13.jpg,AFSA06.jpg,AFNE10.jpg,FN,3,num_8,16,num_8,1.41671806527,,,2017_Oct_13_1146,59.9957857633,FEMA4ImagesEEG,001,101751,
AFNE01.JPG,AFNE01.JPG,AFNE01.JPG,AFNE01.JPG,AFNE01.JPG,AFNE01.JPG,5,7,57,1,,,,,,,,,,,,,,,,,,,,,,,AFNE09.jpg,AFNE07.jpg,AFSA04.jpg,AFSA01.jpg,AFSA01.jpg,FS,4,num_4,32,num_2,2.71666908835,,,2017_Oct_13_1146,59.9957857633,FEMA4ImagesEEG,001,101751,
AFNE01.JPG,AFNE01.JPG,AFNE01.JPG,AFNE01.JPG,AFNE01.JPG,AFNE01.JPG,5,8,58,0,,,,,,,,,,,,,,,,,,,,,,,AFNE17.jpg,AFNE03.jpg,AFSA19.jpg,AFSA03.jpg,AFSA19.jpg,FS,4,num_2,16,num_2,0.71679866733,,,2017_Oct_13_1146,59.9957857633,FEMA4ImagesEEG,001,101751,
AFNE01.JPG,AFNE01.JPG,AFNE01.JPG,AFNE01.JPG,AFNE01.JPG,AFNE01.JPG,5,9,59,3,,,,,,,,,,,,,,,,,,,,,,,AFNE05.jpg,AFSA06.jpg,AFSA17.jpg,AFNE16.jpg,AFSA17.jpg,FS,4,num_2,32,num_6,2.26638813596,,,2017_Oct_13_1146,59.9957857633,FEMA4ImagesEEG,001,101751,
,,,,,,,,,,,,,,,,,,,,,,,,,,,,,,,,,,,,,,,,,,,space,14.7827242318,2017_Oct_13_1146,59.9957857633,FEMA4ImagesEEG,001,101751,
AFNE01.JPG,AFNE01.JPG,AFNE01.JPG,AFNE01.JPG,AFNE01.JPG,AFNE01.JPG,,,,,0,0,0,1,,,,,,,,,,,,,,,,,,,AMSA03.jpg,AMNE18.jpg,AMNE10.jpg,AMSA01.jpg,AMSA01.jpg,MS,2,num_4,16,num_4,1.15015256009,,,2017_Oct_13_1146,59.9957857633,FEMA4ImagesEEG,001,101751,
AFNE01.JPG,AFNE01.JPG,AFNE01.JPG,AFNE01.JPG,AFNE01.JPG,AFNE01.JPG,,,,,0,1,1,8,,,,,,,,,,,,,,,,,,,AMNE18.jpg,AMSA19.jpg,AMSA12.jpg,AMNE03.jpg,AMNE03.jpg,MN,1,num_4,32,num_6,1.89988674666,,,2017_Oct_13_1146,59.9957857633,FEMA4ImagesEEG,001,101751,
AFNE01.JPG,AFNE01.JPG,AFNE01.JPG,AFNE01.JPG,AFNE01.JPG,AFNE01.JPG,,,,,0,2,2,3,,,,,,,,,,,,,,,,,,,AMSA05.jpg,AMNE02.jpg,AMSA10.jpg,AMNE13.jpg,AMNE13.jpg,MN,1,num_4,16,num_4,1.58339611825,,,2017_Oct_13_1146,59.9957857633,FEMA4ImagesEEG,001,101751,
AFNE01.JPG,AFNE01.JPG,AFNE01.JPG,AFNE01.JPG,AFNE01.JPG,AFNE01.JPG,,,,,0,3,3,4,,,,,,,,,,,,,,,,,,,AMSA19.jpg,AMNE18.jpg,AMSA10.jpg,AMNE15.jpg,AMSA19.jpg,MS,2,num_8,32,num_6,2.0000327155,,,2017_Oct_13_1146,59.9957857633,FEMA4ImagesEEG,001,101751,
AFNE01.JPG,AFNE01.JPG,AFNE01.JPG,AFNE01.JPG,AFNE01.JPG,AFNE01.JPG,,,,,0,4,4,6,,,,,,,,,,,,,,,,,,,AMSA10.jpg,AMNE07.jpg,AMNE11.jpg,AMSA06.jpg,AMNE07.jpg,MN,1,num_6,32,num_8,1.53340075293,,,2017_Oct_13_1146,59.9957857633,FEMA4ImagesEEG,001,101751,
AFNE01.JPG,AFNE01.JPG,AFNE01.JPG,AFNE01.JPG,AFNE01.JPG,AFNE01.JPG,,,,,0,5,5,7,,,,,,,,,,,,,,,,,,,AMNE08.jpg,AMSA05.jpg,AMNE15.jpg,AMSA19.jpg,AMSA19.jpg,MS,2,num_4,16,num_4,0.733534244937,,,2017_Oct_13_1146,59.9957857633,FEMA4ImagesEEG,001,101751,
AFNE01.JPG,AFNE01.JPG,AFNE01.JPG,AFNE01.JPG,AFNE01.JPG,AFNE01.JPG,,,,,0,6,6,0,,,,,,,,,,,,,,,,,,,AMNE09.jpg,AMSA07.jpg,AMNE11.jpg,AMSA09.jpg,AMSA09.jpg,MS,2,num_4,16,num_4,0.649831338786,,,2017_Oct_13_1146,59.9957857633,FEMA4ImagesEEG,001,101751,
AFNE01.JPG,AFNE01.JPG,AFNE01.JPG,AFNE01.JPG,AFNE01.JPG,AFNE01.JPG,,,,,0,7,7,5,,,,,,,,,,,,,,,,,,,AMSA04.jpg,AMNE20.jpg,AMNE10.jpg,AMSA13.jpg,AMNE20.jpg,MN,1,num_6,16,num_6,1.7833676365,,,2017_Oct_13_1146,59.9957857633,FEMA4ImagesEEG,001,101751,
AFNE01.JPG,AFNE01.JPG,AFNE01.JPG,AFNE01.JPG,AFNE01.JPG,AFNE01.JPG,,,,,0,8,8,9,,,,,,,,,,,,,,,,,,,AMNE07.jpg,AMNE05.jpg,AMSA06.jpg,AMSA19.jpg,AMSA06.jpg,MS,2,num_2,32,num_4,1.43341226748,,,2017_Oct_13_1146,59.9957857633,FEMA4ImagesEEG,001,101751,
AFNE01.JPG,AFNE01.JPG,AFNE01.JPG,AFNE01.JPG,AFNE01.JPG,AFNE01.JPG,,,,,0,9,9,2,,,,,,,,,,,,,,,,,,,AMNE12.jpg,AMSA03.jpg,AMNE18.jpg,AMSA18.jpg,AMNE18.jpg,MN,1,num_2,32,num_8,2.13365785812,,,2017_Oct_13_1146,59.9957857633,FEMA4ImagesEEG,001,101751,
AFNE01.JPG,AFNE01.JPG,AFNE01.JPG,AFNE01.JPG,AFNE01.JPG,AFNE01.JPG,,,,,1,0,10,5,,,,,,,,,,,,,,,,,,,AMSA16.jpg,AMSA06.jpg,AMNE18.jpg,AMNE09.jpg,AMSA16.jpg,MS,2,num_8,16,num_8,3.48322641465,,,2017_Oct_13_1146,59.9957857633,FEMA4ImagesEEG,001,101751,
AFNE01.JPG,AFNE01.JPG,AFNE01.JPG,AFNE01.JPG,AFNE01.JPG,AFNE01.JPG,,,,,1,1,11,8,,,,,,,,,,,,,,,,,,,AMNE03.jpg,AMSA20.jpg,AMNE02.jpg,AMSA02.jpg,AMSA02.jpg,MS,2,num_4,16,num_4,0.583529866883,,,2017_Oct_13_1146,59.9957857633,FEMA4ImagesEEG,001,101751,
AFNE01.JPG,AFNE01.JPG,AFNE01.JPG,AFNE01.JPG,AFNE01.JPG,AFNE01.JPG,,,,,1,2,12,3,,,,,,,,,,,,,,,,,,,AMSA03.jpg,AMNE04.jpg,AMNE12.jpg,AMSA07.jpg,AMNE04.jpg,MN,1,num_6,32,num_4,1.68337466079,,,2017_Oct_13_1146,59.9957857633,FEMA4ImagesEEG,001,101751,
AFNE01.JPG,AFNE01.JPG,AFNE01.JPG,AFNE01.JPG,AFNE01.JPG,AFNE01.JPG,,,,,1,3,13,1,,,,,,,,,,,,,,,,,,,AMSA05.jpg,AMNE09.jpg,AMNE02.jpg,AMSA06.jpg,AMNE09.jpg,MN,1,num_6,16,num_6,1.21670677525,,,2017_Oct_13_1146,59.9957857633,FEMA4ImagesEEG,001,101751,
AFNE01.JPG,AFNE01.JPG,AFNE01.JPG,AFNE01.JPG,AFNE01.JPG,AFNE01.JPG,,,,,1,4,14,2,,,,,,,,,,,,,,,,,,,AMSA18.jpg,AMNE13.jpg,AMSA08.jpg,AMNE09.jpg,AMNE09.jpg,MN,1,num_4,16,num_4,2.99994483264,,,2017_Oct_13_1146,59.9957857633,FEMA4ImagesEEG,001,101751,
AFNE01.JPG,AFNE01.JPG,AFNE01.JPG,AFNE01.JPG,AFNE01.JPG,AFNE01.JPG,,,,,1,5,15,9,,,,,,,,,,,,,,,,,,,AMNE12.jpg,AMSA08.jpg,AMSA16.jpg,AMNE03.jpg,AMSA16.jpg,MS,2,num_2,16,num_2,2.64982813143,,,2017_Oct_13_1146,59.9957857633,FEMA4ImagesEEG,001,101751,
AFNE01.JPG,AFNE01.JPG,AFNE01.JPG,AFNE01.JPG,AFNE01.JPG,AFNE01.JPG,,,,,1,6,16,6,,,,,,,,,,,,,,,,,,,AMNE19.jpg,AMSA12.jpg,AMSA16.jpg,AMNE02.jpg,AMSA16.jpg,MS,2,num_2,16,num_2,1.7002728536,,,2017_Oct_13_1146,59.9957857633,FEMA4ImagesEEG,001,101751,
AFNE01.JPG,AFNE01.JPG,AFNE01.JPG,AFNE01.JPG,AFNE01.JPG,AFNE01.JPG,,,,,1,7,17,4,,,,,,,,,,,,,,,,,,,AMSA19.jpg,AMNE01.jpg,AMNE12.jpg,AMSA16.jpg,AMSA16.jpg,MS,2,num_4,16,num_4,1.15006403567,,,2017_Oct_13_1146,59.9957857633,FEMA4ImagesEEG,001,101751,
AFNE01.JPG,AFNE01.JPG,AFNE01.JPG,AFNE01.JPG,AFNE01.JPG,AFNE01.JPG,,,,,1,8,18,7,,,,,,,,,,,,,,,,,,,AMNE14.jpg,AMNE20.jpg,AMSA03.jpg,AMSA08.jpg,AMSA03.jpg,MS,2,num_2,16,num_2,0.833686628495,,,2017_Oct_13_1146,59.9957857633,FEMA4ImagesEEG,001,101751,
AFNE01.JPG,AFNE01.JPG,AFNE01.JPG,AFNE01.JPG,AFNE01.JPG,AFNE01.JPG,,,,,1,9,19,0,,,,,,,,,,,,,,,,,,,AMNE03.jpg,AMSA11.jpg,AMNE13.jpg,AMSA06.jpg,AMSA06.jpg,MS,2,num_4,16,num_4,1.01679876354,,,2017_Oct_13_1146,59.9957857633,FEMA4ImagesEEG,001,101751,
AFNE01.JPG,AFNE01.JPG,AFNE01.JPG,AFNE01.JPG,AFNE01.JPG,AFNE01.JPG,,,,,2,0,20,2,,,,,,,,,,,,,,,,,,,AMSA03.jpg,AMNE03.jpg,AMSA04.jpg,AMNE14.jpg,AMNE14.jpg,MN,1,num_4,16,num_4,1.03344998648,,,2017_Oct_13_1146,59.9957857633,FEMA4ImagesEEG,001,101751,
AFNE01.JPG,AFNE01.JPG,AFNE01.JPG,AFNE01.JPG,AFNE01.JPG,AFNE01.JPG,,,,,2,1,21,9,,,,,,,,,,,,,,,,,,,AMSA05.jpg,AMNE11.jpg,AMNE06.jpg,AMSA14.jpg,AMSA14.jpg,MS,2,num_4,16,num_4,0.750130300643,,,2017_Oct_13_1146,59.9957857633,FEMA4ImagesEEG,001,101751,
AFNE01.JPG,AFNE01.JPG,AFNE01.JPG,AFNE01.JPG,AFNE01.JPG,AFNE01.JPG,,,,,2,2,22,0,,,,,,,,,,,,,,,,,,,AMNE02.jpg,AMNE09.jpg,AMSA17.jpg,AMSA12.jpg,AMSA17.jpg,MS,2,num_2,32,num_8,1.10015976068,,,2017_Oct_13_1146,59.9957857633,FEMA4ImagesEEG,001,101751,
AFNE01.JPG,AFNE01.JPG,AFNE01.JPG,AFNE01.JPG,AFNE01.JPG,AFNE01.JPG,,,,,2,3,23,1,,,,,,,,,,,,,,,,,,,AMSA02.jpg,AMNE13.jpg,AMNE19.jpg,AMSA10.jpg,AMSA10.jpg,MS,2,num_4,32,num_6,1.11672053486,,,2017_Oct_13_1146,59.9957857633,FEMA4ImagesEEG,001,101751,
AFNE01.JPG,AFNE01.JPG,AFNE01.JPG,AFNE01.JPG,AFNE01.JPG,AFNE01.JPG,,,,,2,4,24,7,,,,,,,,,,,,,,,,,,,AMNE08.jpg,AMSA03.jpg,AMSA17.jpg,AMNE19.jpg,AMSA17.jpg,MS,2,num_2,32,num_6,2.40000622231,,,2017_Oct_13_1146,59.9957857633,FEMA4ImagesEEG,001,101751,
AFNE01.JPG,AFNE01.JPG,AFNE01.JPG,AFNE01.JPG,AFNE01.JPG,AFNE01.JPG,,,,,2,5,25,8,,,,,,,,,,,,,,,,,,,AMSA02.jpg,AMNE09.jpg,AMNE04.jpg,AMSA20.jpg,AMSA20.jpg,MS,2,num_4,16,num_4,0.633487705607,,,2017_Oct_13_1146,59.9957857633,FEMA4ImagesEEG,001,101751,
AFNE01.JPG,AFNE01.JPG,AFNE01.JPG,AFNE01.JPG,AFNE01.JPG,AFNE01.JPG,,,,,2,6,26,4,,,,,,,,,,,,,,,,,,,AMNE07.jpg,AMSA09.jpg,AMNE08.jpg,AMSA18.jpg,AMNE08.jpg,MN,1,num_2,32,num_8,1.80003842467,,,2017_Oct_13_1146,59.9957857633,FEMA4ImagesEEG,001,101751,
AFNE01.JPG,AFNE01.JPG,AFNE01.JPG,AFNE01.JPG,AFNE01.JPG,AFNE01.JPG,,,,,2,7,27,6,,,,,,,,,,,,,,,,,,,AMSA08.jpg,AMNE19.jpg,AMNE07.jpg,AMSA16.jpg,AMSA16.jpg,MS,2,num_4,16,num_4,0.78353602509,,,2017_Oct_13_1146,59.9957857633,FEMA4ImagesEEG,001,101751,
AFNE01.JPG,AFNE01.JPG,AFNE01.JPG,AFNE01.JPG,AFNE01.JPG,AFNE01.JPG,,,,,2,8,28,3,,,,,,,,,,,,,,,,,,,AMSA13.jpg,AMSA19.jpg,AMNE14.jpg,AMNE16.jpg,AMSA19.jpg,MS,2,num_6,32,num_8,0.633482252946,,,2017_Oct_13_1146,59.9957857633,FEMA4ImagesEEG,001,101751,
AFNE01.JPG,AFNE01.JPG,AFNE01.JPG,AFNE01.JPG,AFNE01.JPG,AFNE01.JPG,,,,,2,9,29,5,,,,,,,,,,,,,,,,,,,AMSA07.jpg,AMNE01.jpg,AMSA17.jpg,AMNE08.jpg,AMSA17.jpg,MS,2,num_2,32,num_8,2.15007237508,,,2017_Oct_13_1146,59.9957857633,FEMA4ImagesEEG,001,101751,
AFNE01.JPG,AFNE01.JPG,AFNE01.JPG,AFNE01.JPG,AFNE01.JPG,AFNE01.JPG,,,,,3,0,30,9,,,,,,,,,,,,,,,,,,,AMNE14.jpg,AMSA16.jpg,AMSA18.jpg,AMNE16.jpg,AMNE16.jpg,MN,1,num_4,32,num_8,1.56667401153,,,2017_Oct_13_1146,59.9957857633,FEMA4ImagesEEG,001,101751,
AFNE01.JPG,AFNE01.JPG,AFNE01.JPG,AFNE01.JPG,AFNE01.JPG,AFNE01.JPG,,,,,3,1,31,2,,,,,,,,,,,,,,,,,,,AMSA10.jpg,AMSA12.jpg,AMNE07.jpg,AMNE05.jpg,AMNE07.jpg,MN,1,num_2,32,num_4,1.6335107988,,,2017_Oct_13_1146,59.9957857633,FEMA4ImagesEEG,001,101751,
AFNE01.JPG,AFNE01.JPG,AFNE01.JPG,AFNE01.JPG,AFNE01.JPG,AFNE01.JPG,,,,,3,2,32,0,,,,,,,,,,,,,,,,,,,AMNE03.jpg,AMSA01.jpg,AMNE18.jpg,AMSA10.jpg,AMSA01.jpg,MS,2,num_6,16,num_6,1.88334938639,,,2017_Oct_13_1146,59.9957857633,FEMA4ImagesEEG,001,101751,
AFNE01.JPG,AFNE01.JPG,AFNE01.JPG,AFNE01.JPG,AFNE01.JPG,AFNE01.JPG,,,,,3,3,33,7,,,,,,,,,,,,,,,,,,,AMNE09.jpg,AMSA03.jpg,AMNE04.jpg,AMSA11.jpg,AMSA11.jpg,MS,2,num_4,32,num_8,1.78339842753,,,2017_Oct_13_1146,59.9957857633,FEMA4ImagesEEG,001,101751,
AFNE01.JPG,AFNE01.JPG,AFNE01.JPG,AFNE01.JPG,AFNE01.JPG,AFNE01.JPG,,,,,3,4,34,4,,,,,,,,,,,,,,,,,,,AMNE01.jpg,AMNE16.jpg,AMSA17.jpg,AMSA05.jpg,AMSA05.jpg,MS,2,num_4,16,num_4,2.24946620828,,,2017_Oct_13_1146,59.9957857633,FEMA4ImagesEEG,001,101751,
AFNE01.JPG,AFNE01.JPG,AFNE01.JPG,AFNE01.JPG,AFNE01.JPG,AFNE01.JPG,,,,,3,5,35,8,,,,,,,,,,,,,,,,,,,AMNE17.jpg,AMSA20.jpg,AMSA18.jpg,AMNE20.jpg,AMSA18.jpg,MS,2,num_2,16,num_2,0.833431960898,,,2017_Oct_13_1146,59.9957857633,FEMA4ImagesEEG,001,101751,
AFNE01.JPG,AFNE01.JPG,AFNE01.JPG,AFNE01.JPG,AFNE01.JPG,AFNE01.JPG,,,,,3,6,36,1,,,,,,,,,,,,,,,,,,,AMNE05.jpg,AMNE17.jpg,AMSA05.jpg,AMSA02.jpg,AMNE17.jpg,MN,1,num_6,16,num_6,1.0001225227,,,2017_Oct_13_1146,59.9957857633,FEMA4ImagesEEG,001,101751,
AFNE01.JPG,AFNE01.JPG,AFNE01.JPG,AFNE01.JPG,AFNE01.JPG,AFNE01.JPG,,,,,3,7,37,6,,,,,,,,,,,,,,,,,,,AMNE18.jpg,AMSA04.jpg,AMNE02.jpg,AMSA08.jpg,AMSA08.jpg,MS,2,num_4,16,num_4,0.950075838948,,,2017_Oct_13_1146,59.9957857633,FEMA4ImagesEEG,001,101751,
AFNE01.JPG,AFNE01.JPG,AFNE01.JPG,AFNE01.JPG,AFNE01.JPG,AFNE01.JPG,,,,,3,8,38,5,,,,,,,,,,,,,,,,,,,AMNE12.jpg,AMSA04.jpg,AMNE19.jpg,AMSA20.jpg,AMNE12.jpg,MN,1,num_8,32,num_4,1.40037154534,,,2017_Oct_13_1146,59.9957857633,FEMA4ImagesEEG,001,101751,
AFNE01.JPG,AFNE01.JPG,AFNE01.JPG,AFNE01.JPG,AFNE01.JPG,AFNE01.JPG,,,,,3,9,39,3,,,,,,,,,,,,,,,,,,,AMSA01.jpg,AMNE04.jpg,AMSA15.jpg,AMNE15.jpg,AMNE15.jpg,MN,1,num_4,16,num_4,1.93339959823,,,2017_Oct_13_1146,59.9957857633,FEMA4ImagesEEG,001,101751,
AFNE01.JPG,AFNE01.JPG,AFNE01.JPG,AFNE01.JPG,AFNE01.JPG,AFNE01.JPG,,,,,4,0,40,1,,,,,,,,,,,,,,,,,,,AMSA05.jpg,AMNE16.jpg,AMNE07.jpg,AMSA07.jpg,AMNE07.jpg,MN,1,num_2,16,num_2,1.95007904631,,,2017_Oct_13_1146,59.9957857633,FEMA4ImagesEEG,001,101751,
AFNE01.JPG,AFNE01.JPG,AFNE01.JPG,AFNE01.JPG,AFNE01.JPG,AFNE01.JPG,,,,,4,1,41,5,,,,,,,,,,,,,,,,,,,AMSA05.jpg,AMNE06.jpg,AMSA18.jpg,AMNE02.jpg,AMNE02.jpg,MN,1,num_4,16,num_4,0.500133909052,,,2017_Oct_13_1146,59.9957857633,FEMA4ImagesEEG,001,101751,
AFNE01.JPG,AFNE01.JPG,AFNE01.JPG,AFNE01.JPG,AFNE01.JPG,AFNE01.JPG,,,,,4,2,42,8,,,,,,,,,,,,,,,,,,,AMNE02.jpg,AMSA05.jpg,AMSA17.jpg,AMNE16.jpg,AMNE02.jpg,MN,1,num_8,32,num_6,2.99996375642,,,2017_Oct_13_1146,59.9957857633,FEMA4ImagesEEG,001,101751,
AFNE01.JPG,AFNE01.JPG,AFNE01.JPG,AFNE01.JPG,AFNE01.JPG,AFNE01.JPG,,,,,4,3,43,7,,,,,,,,,,,,,,,,,,,AMNE17.jpg,AMSA10.jpg,AMSA01.jpg,AMNE20.jpg,AMNE20.jpg,MN,1,num_4,16,num_4,0.633748146589,,,2017_Oct_13_1146,59.9957857633,FEMA4ImagesEEG,001,101751,
AFNE01.JPG,AFNE01.JPG,AFNE01.JPG,AFNE01.JPG,AFNE01.JPG,AFNE01.JPG,,,,,4,4,44,9,,,,,,,,,,,,,,,,,,,AMSA19.jpg,AMSA13.jpg,AMNE19.jpg,AMNE05.jpg,AMNE05.jpg,MN,1,num_4,32,num_6,1.36676792428,,,2017_Oct_13_1146,59.9957857633,FEMA4ImagesEEG,001,101751,
AFNE01.JPG,AFNE01.JPG,AFNE01.JPG,AFNE01.JPG,AFNE01.JPG,AFNE01.JPG,,,,,4,5,45,3,,,,,,,,,,,,,,,,,,,AMSA04.jpg,AMSA03.jpg,AMNE03.jpg,AMNE15.jpg,AMNE03.jpg,MN,1,num_2,32,num_8,1.03344902431,,,2017_Oct_13_1146,59.9957857633,FEMA4ImagesEEG,001,101751,
AFNE01.JPG,AFNE01.JPG,AFNE01.JPG,AFNE01.JPG,AFNE01.JPG,AFNE01.JPG,,,,,4,6,46,2,,,,,,,,,,,,,,,,,,,AMSA18.jpg,AMNE15.jpg,AMNE20.jpg,AMSA10.jpg,AMSA10.jpg,MS,2,num_4,16,num_4,1.76669684832,,,2017_Oct_13_1146,59.9957857633,FEMA4ImagesEEG,001,101751,
AFNE01.JPG,AFNE01.JPG,AFNE01.JPG,AFNE01.JPG,AFNE01.JPG,AFNE01.JPG,,,,,4,7,47,4,,,,,,,,,,,,,,,,,,,AMSA04.jpg,AMSA06.jpg,AMNE15.jpg,AMNE05.jpg,AMSA04.jpg,MS,2,num_8,16,num_8,0.600149978069,,,2017_Oct_13_1146,59.9957857633,FEMA4ImagesEEG,001,101751,
AFNE01.JPG,AFNE01.JPG,AFNE01.JPG,AFNE01.JPG,AFNE01.JPG,AFNE01.JPG,,,,,4,8,48,6,,,,,,,,,,,,,,,,,,,AMSA08.jpg,AMSA07.jpg,AMNE11.jpg,AMNE07.jpg,AMNE11.jpg,MN,1,num_2,32,num_4,1.26682755002,,,2017_Oct_13_1146,59.9957857633,FEMA4ImagesEEG,001,101751,
AFNE01.JPG,AFNE01.JPG,AFNE01.JPG,AFNE01.JPG,AFNE01.JPG,AFNE01.JPG,,,,,4,9,49,0,,,,,,,,,,,,,,,,,,,AMNE05.jpg,AMNE18.jpg,AMSA10.jpg,AMSA01.jpg,AMSA10.jpg,MS,2,num_2,32,num_6,1.40009185998,,,2017_Oct_13_1146,59.9957857633,FEMA4ImagesEEG,001,101751,
AFNE01.JPG,AFNE01.JPG,AFNE01.JPG,AFNE01.JPG,AFNE01.JPG,AFNE01.JPG,,,,,5,0,50,0,,,,,,,,,,,,,,,,,,,AMSA01.jpg,AMSA07.jpg,AMNE02.jpg,AMNE13.jpg,AMNE02.jpg,MN,1,num_2,16,num_2,0.866841854993,,,2017_Oct_13_1146,59.9957857633,FEMA4ImagesEEG,001,101751,
AFNE01.JPG,AFNE01.JPG,AFNE01.JPG,AFNE01.JPG,AFNE01.JPG,AFNE01.JPG,,,,,5,1,51,9,,,,,,,,,,,,,,,,,,,AMNE18.jpg,AMSA17.jpg,AMNE09.jpg,AMSA09.jpg,AMNE09.jpg,MN,1,num_2,32,num_4,1.61671941238,,,2017_Oct_13_1146,59.9957857633,FEMA4ImagesEEG,001,101751,
AFNE01.JPG,AFNE01.JPG,AFNE01.JPG,AFNE01.JPG,AFNE01.JPG,AFNE01.JPG,,,,,5,2,52,1,,,,,,,,,,,,,,,,,,,AMSA02.jpg,AMNE18.jpg,AMNE06.jpg,AMSA16.jpg,AMSA16.jpg,MS,2,num_4,32,num_6,1.5333568115,,,2017_Oct_13_1146,59.9957857633,FEMA4ImagesEEG,001,101751,
AFNE01.JPG,AFNE01.JPG,AFNE01.JPG,AFNE01.JPG,AFNE01.JPG,AFNE01.JPG,,,,,5,3,53,2,,,,,,,,,,,,,,,,,,,AMNE02.jpg,AMSA04.jpg,AMSA20.jpg,AMNE01.jpg,AMSA04.jpg,MS,2,num_6,32,num_4,1.20010622917,,,2017_Oct_13_1146,59.9957857633,FEMA4ImagesEEG,001,101751,
AFNE01.JPG,AFNE01.JPG,AFNE01.JPG,AFNE01.JPG,AFNE01.JPG,AFNE01.JPG,,,,,5,4,54,7,,,,,,,,,,,,,,,,,,,AMNE02.jpg,AMSA02.jpg,AMSA11.jpg,AMNE12.jpg,AMSA11.jpg,MS,2,num_2,16,num_2,2.56665220135,,,2017_Oct_13_1146,59.9957857633,FEMA4ImagesEEG,001,101751,
AFNE01.JPG,AFNE01.JPG,AFNE01.JPG,AFNE01.JPG,AFNE01.JPG,AFNE01.JPG,,,,,5,5,55,5,,,,,,,,,,,,,,,,,,,AMNE19.jpg,AMSA08.jpg,AMSA05.jpg,AMNE08.jpg,AMNE19.jpg,MN,1,num_8,32,num_6,2.95009764924,,,2017_Oct_13_1146,59.9957857633,FEMA4ImagesEEG,001,101751,
AFNE01.JPG,AFNE01.JPG,AFNE01.JPG,AFNE01.JPG,AFNE01.JPG,AFNE01.JPG,,,,,5,6,56,8,,,,,,,,,,,,,,,,,,,AMSA14.jpg,AMNE19.jpg,AMSA11.jpg,AMNE03.jpg,AMNE19.jpg,MN,1,num_6,16,num_6,1.85010018328,,,2017_Oct_13_1146,59.9957857633,FEMA4ImagesEEG,001,101751,
AFNE01.JPG,AFNE01.JPG,AFNE01.JPG,AFNE01.JPG,AFNE01.JPG,AFNE01.JPG,,,,,5,7,57,6,,,,,,,,,,,,,,,,,,,AMNE06.jpg,AMSA18.jpg,AMSA08.jpg,AMNE10.jpg,AMSA08.jpg,MS,2,num_2,32,num_4,1.43340970157,,,2017_Oct_13_1146,59.9957857633,FEMA4ImagesEEG,001,101751,
AFNE01.JPG,AFNE01.JPG,AFNE01.JPG,AFNE01.JPG,AFNE01.JPG,AFNE01.JPG,,,,,5,8,58,3,,,,,,,,,,,,,,,,,,,AMSA12.jpg,AMNE01.jpg,AMSA01.jpg,AMNE06.jpg,AMNE01.jpg,MN,1,num_6,16,num_6,1.10013955401,,,2017_Oct_13_1146,59.9957857633,FEMA4ImagesEEG,001,101751,
AFNE01.JPG,AFNE01.JPG,AFNE01.JPG,AFNE01.JPG,AFNE01.JPG,AFNE01.JPG,,,,,5,9,59,4,,,,,,,,,,,,,,,,,,,AMSA20.jpg,AMSA16.jpg,AMNE11.jpg,AMNE07.jpg,AMNE11.jpg,MN,1,num_2,16,num_2,1.60006241605,,,2017_Oct_13_1146,59.9957857633,FEMA4ImagesEEG,001,101751,
,,,,,,,,,,,,,,,,,,,,,,,,,,,,,,,,,,,,,,,,,,,space,19.3320067523,2017_Oct_13_1146,59.9957857633,FEMA4ImagesEEG,001,101751,
AFNE01.JPG,AFNE01.JPG,AFNE01.JPG,AFNE01.JPG,AFNE01.JPG,AFNE01.JPG,,,,,,,,,0,0,0,1,,,,,,,,,,,,,,,AFNE01.jpg,AFNE07.jpg,AFSA04.jpg,AFSA02.jpg,AFNE01.jpg,FN,3,num_8,16,num_8,0.850144124473,,,2017_Oct_13_1146,59.9957857633,FEMA4ImagesEEG,001,101751,
AFNE01.JPG,AFNE01.JPG,AFNE01.JPG,AFNE01.JPG,AFNE01.JPG,AFNE01.JPG,,,,,,,,,0,1,1,0,,,,,,,,,,,,,,,AFNE07.jpg,AFSA16.jpg,AFNE06.jpg,AFSA04.jpg,AFNE06.jpg,FN,3,num_2,16,num_2,0.816788435564,,,2017_Oct_13_1146,59.9957857633,FEMA4ImagesEEG,001,101751,
AFNE01.JPG,AFNE01.JPG,AFNE01.JPG,AFNE01.JPG,AFNE01.JPG,AFNE01.JPG,,,,,,,,,0,2,2,5,,,,,,,,,,,,,,,AFSA02.jpg,AFNE14.jpg,AFSA14.jpg,AFNE02.jpg,AFNE02.jpg,FN,3,num_4,32,num_8,0.516488126712,,,2017_Oct_13_1146,59.9957857633,FEMA4ImagesEEG,001,101751,
AFNE01.JPG,AFNE01.JPG,AFNE01.JPG,AFNE01.JPG,AFNE01.JPG,AFNE01.JPG,,,,,,,,,0,3,3,9,,,,,,,,,,,,,,,AFNE17.jpg,AFSA08.jpg,AFSA02.jpg,AFNE08.jpg,AFSA02.jpg,FS,4,num_2,16,num_2,1.28343066189,,,2017_Oct_13_1146,59.9957857633,FEMA4ImagesEEG,001,101751,
AFNE01.JPG,AFNE01.JPG,AFNE01.JPG,AFNE01.JPG,AFNE01.JPG,AFNE01.JPG,,,,,,,,,0,4,4,8,,,,,,,,,,,,,,,AFNE07.jpg,AFSA05.jpg,AFSA15.jpg,AFNE10.jpg,AFNE07.jpg,FN,3,num_8,16,num_8,1.16679448157,,,2017_Oct_13_1146,59.9957857633,FEMA4ImagesEEG,001,101751,
AFNE01.JPG,AFNE01.JPG,AFNE01.JPG,AFNE01.JPG,AFNE01.JPG,AFNE01.JPG,,,,,,,,,0,5,5,6,,,,,,,,,,,,,,,AFSA03.jpg,AFNE16.jpg,AFNE18.jpg,AFSA08.jpg,AFSA03.jpg,FS,4,num_8,32,num_4,1.66705091333,,,2017_Oct_13_1146,59.9957857633,FEMA4ImagesEEG,001,101751,
AFNE01.JPG,AFNE01.JPG,AFNE01.JPG,AFNE01.JPG,AFNE01.JPG,AFNE01.JPG,,,,,,,,,0,6,6,7,,,,,,,,,,,,,,,AFNE15.jpg,AFSA08.jpg,AFNE07.jpg,AFSA07.jpg,AFNE15.jpg,FN,3,num_8,16,num_8,0.66681933892,,,2017_Oct_13_1146,59.9957857633,FEMA4ImagesEEG,001,101751,
AFNE01.JPG,AFNE01.JPG,AFNE01.JPG,AFNE01.JPG,AFNE01.JPG,AFNE01.JPG,,,,,,,,,0,7,7,3,,,,,,,,,,,,,,,AFNE08.jpg,AFSA16.jpg,AFNE19.jpg,AFSA12.jpg,AFSA16.jpg,FS,4,num_6,16,num_6,1.26672363002,,,2017_Oct_13_1146,59.9957857633,FEMA4ImagesEEG,001,101751,
AFNE01.JPG,AFNE01.JPG,AFNE01.JPG,AFNE01.JPG,AFNE01.JPG,AFNE01.JPG,,,,,,,,,0,8,8,2,,,,,,,,,,,,,,,AFSA12.jpg,AFNE15.jpg,AFSA05.jpg,AFNE11.jpg,AFSA05.jpg,FS,4,num_2,16,num_2,0.750106886728,,,2017_Oct_13_1146,59.9957857633,FEMA4ImagesEEG,001,101751,
AFNE01.JPG,AFNE01.JPG,AFNE01.JPG,AFNE01.JPG,AFNE01.JPG,AFNE01.JPG,,,,,,,,,0,9,9,4,,,,,,,,,,,,,,,AFNE16.jpg,AFSA03.jpg,AFSA16.jpg,AFNE04.jpg,AFSA16.jpg,FS,4,num_2,16,num_2,0.666804264183,,,2017_Oct_13_1146,59.9957857633,FEMA4ImagesEEG,001,101751,
AFNE01.JPG,AFNE01.JPG,AFNE01.JPG,AFNE01.JPG,AFNE01.JPG,AFNE01.JPG,,,,,,,,,1,0,10,7,,,,,,,,,,,,,,,AFNE19.jpg,AFSA20.jpg,AFSA17.jpg,AFNE16.jpg,AFNE19.jpg,FN,3,num_8,16,num_8,1.26672619605,,,2017_Oct_13_1146,59.9957857633,FEMA4ImagesEEG,001,101751,
AFNE01.JPG,AFNE01.JPG,AFNE01.JPG,AFNE01.JPG,AFNE01.JPG,AFNE01.JPG,,,,,,,,,1,1,11,6,,,,,,,,,,,,,,,AFSA12.jpg,AFNE17.jpg,AFSA16.jpg,AFNE14.jpg,AFNE14.jpg,FN,3,num_4,32,num_6,1.45008530084,,,2017_Oct_13_1146,59.9957857633,FEMA4ImagesEEG,001,101751,
AFNE01.JPG,AFNE01.JPG,AFNE01.JPG,AFNE01.JPG,AFNE01.JPG,AFNE01.JPG,,,,,,,,,1,2,12,3,,,,,,,,,,,,,,,AFNE13.jpg,AFNE14.jpg,AFSA03.jpg,AFSA08.jpg,AFNE13.jpg,FN,3,num_8,32,num_4,2.91666594497,,,2017_Oct_13_1146,59.9957857633,FEMA4ImagesEEG,001,101751,
AFNE01.JPG,AFNE01.JPG,AFNE01.JPG,AFNE01.JPG,AFNE01.JPG,AFNE01.JPG,,,,,,,,,1,3,13,8,,,,,,,,,,,,,,,AFSA02.jpg,AFSA01.jpg,AFNE04.jpg,AFNE07.jpg,AFSA02.jpg,FS,4,num_8,16,num_8,1.43343985116,,,2017_Oct_13_1146,59.9957857633,FEMA4ImagesEEG,001,101751,
AFNE01.JPG,AFNE01.JPG,AFNE01.JPG,AFNE01.JPG,AFNE01.JPG,AFNE01.JPG,,,,,,,,,1,4,14,4,,,,,,,,,,,,,,,AFNE04.jpg,AFSA09.jpg,AFNE06.jpg,AFSA05.jpg,AFNE06.jpg,FN,3,num_2,16,num_2,1.2667704582,,,2017_Oct_13_1146,59.9957857633,FEMA4ImagesEEG,001,101751,
AFNE01.JPG,AFNE01.JPG,AFNE01.JPG,AFNE01.JPG,AFNE01.JPG,AFNE01.JPG,,,,,,,,,1,5,15,0,,,,,,,,,,,,,,,AFSA01.jpg,AFNE07.jpg,AFSA07.jpg,AFNE13.jpg,AFSA01.jpg,FS,4,num_8,16,num_8,1.55011516169,,,2017_Oct_13_1146,59.9957857633,FEMA4ImagesEEG,001,101751,
AFNE01.JPG,AFNE01.JPG,AFNE01.JPG,AFNE01.JPG,AFNE01.JPG,AFNE01.JPG,,,,,,,,,1,6,16,5,,,,,,,,,,,,,,,AFNE08.jpg,AFSA12.jpg,AFNE17.jpg,AFSA09.jpg,AFNE17.jpg,FN,3,num_2,16,num_2,1.15013010823,,,2017_Oct_13_1146,59.9957857633,FEMA4ImagesEEG,001,101751,
AFNE01.JPG,AFNE01.JPG,AFNE01.JPG,AFNE01.JPG,AFNE01.JPG,AFNE01.JPG,,,,,,,,,1,7,17,2,,,,,,,,,,,,,,,AFSA01.jpg,AFSA13.jpg,AFNE03.jpg,AFNE17.jpg,AFNE17.jpg,FN,3,num_4,16,num_4,2.14989404345,,,2017_Oct_13_1146,59.9957857633,FEMA4ImagesEEG,001,101751,
AFNE01.JPG,AFNE01.JPG,AFNE01.JPG,AFNE01.JPG,AFNE01.JPG,AFNE01.JPG,,,,,,,,,1,8,18,1,,,,,,,,,,,,,,,AFNE18.jpg,AFSA12.jpg,AFNE03.jpg,AFSA16.jpg,AFSA16.jpg,FS,4,num_4,16,num_4,1.81670472247,,,2017_Oct_13_1146,59.9957857633,FEMA4ImagesEEG,001,101751,
AFNE01.JPG,AFNE01.JPG,AFNE01.JPG,AFNE01.JPG,AFNE01.JPG,AFNE01.JPG,,,,,,,,,1,9,19,9,,,,,,,,,,,,,,,AFNE16.jpg,AFSA03.jpg,AFSA15.jpg,AFNE01.jpg,AFSA15.jpg,FS,4,num_2,16,num_2,0.816785869654,,,2017_Oct_13_1146,59.9957857633,FEMA4ImagesEEG,001,101751,
AFNE01.JPG,AFNE01.JPG,AFNE01.JPG,AFNE01.JPG,AFNE01.JPG,AFNE01.JPG,,,,,,,,,2,0,20,4,,,,,,,,,,,,,,,AFSA18.jpg,AFNE14.jpg,AFSA09.jpg,AFNE07.jpg,AFNE07.jpg,FN,3,num_4,16,num_4,2.06665588985,,,2017_Oct_13_1146,59.9957857633,FEMA4ImagesEEG,001,101751,
AFNE01.JPG,AFNE01.JPG,AFNE01.JPG,AFNE01.JPG,AFNE01.JPG,AFNE01.JPG,,,,,,,,,2,1,21,7,,,,,,,,,,,,,,,AFSA17.jpg,AFNE06.jpg,AFSA01.jpg,AFNE11.jpg,AFNE11.jpg,FN,3,num_4,16,num_4,1.10012351698,,,2017_Oct_13_1146,59.9957857633,FEMA4ImagesEEG,001,101751,
AFNE01.JPG,AFNE01.JPG,AFNE01.JPG,AFNE01.JPG,AFNE01.JPG,AFNE01.JPG,,,,,,,,,2,2,22,6,,,,,,,,,,,,,,,AFNE20.jpg,AFSA04.jpg,AFSA08.jpg,AFNE03.jpg,AFNE20.jpg,FN,3,num_8,32,num_6,1.25009517965,,,2017_Oct_13_1146,59.9957857633,FEMA4ImagesEEG,001,101751,
AFNE01.JPG,AFNE01.JPG,AFNE01.JPG,AFNE01.JPG,AFNE01.JPG,AFNE01.JPG,,,,,,,,,2,3,23,2,,,,,,,,,,,,,,,AFNE16.jpg,AFNE14.jpg,AFSA16.jpg,AFSA09.jpg,AFSA09.jpg,FS,4,num_4,16,num_4,2.3998763226,,,2017_Oct_13_1146,59.9957857633,FEMA4ImagesEEG,001,101751,
AFNE01.JPG,AFNE01.JPG,AFNE01.JPG,AFNE01.JPG,AFNE01.JPG,AFNE01.JPG,,,,,,,,,2,4,24,1,,,,,,,,,,,,,,,AFSA05.jpg,AFNE04.jpg,AFSA17.jpg,AFNE13.jpg,AFSA17.jpg,FS,4,num_2,16,num_2,1.36673809553,,,2017_Oct_13_1146,59.9957857633,FEMA4ImagesEEG,001,101751,
AFNE01.JPG,AFNE01.JPG,AFNE01.JPG,AFNE01.JPG,AFNE01.JPG,AFNE01.JPG,,,,,,,,,2,5,25,9,,,,,,,,,,,,,,,AFSA18.jpg,AFSA20.jpg,AFNE08.jpg,AFNE20.jpg,AFSA18.jpg,FS,4,num_8,16,num_8,2.06702506158,,,2017_Oct_13_1146,59.9957857633,FEMA4ImagesEEG,001,101751,
AFNE01.JPG,AFNE01.JPG,AFNE01.JPG,AFNE01.JPG,AFNE01.JPG,AFNE01.JPG,,,,,,,,,2,6,26,0,,,,,,,,,,,,,,,AFNE15.jpg,AFSA07.jpg,AFSA06.jpg,AFNE02.jpg,AFNE15.jpg,FN,3,num_8,16,num_8,1.3501102865,,,2017_Oct_13_1146,59.9957857633,FEMA4ImagesEEG,001,101751,
AFNE01.JPG,AFNE01.JPG,AFNE01.JPG,AFNE01.JPG,AFNE01.JPG,AFNE01.JPG,,,,,,,,,2,7,27,3,,,,,,,,,,,,,,,AFSA05.jpg,AFNE16.jpg,AFNE01.jpg,AFSA13.jpg,AFNE16.jpg,FN,3,num_6,16,num_6,1.30014250474,,,2017_Oct_13_1146,59.9957857633,FEMA4ImagesEEG,001,101751,
AFNE01.JPG,AFNE01.JPG,AFNE01.JPG,AFNE01.JPG,AFNE01.JPG,AFNE01.JPG,,,,,,,,,2,8,28,5,,,,,,,,,,,,,,,AFNE20.jpg,AFSA01.jpg,AFNE09.jpg,AFSA13.jpg,AFSA13.jpg,FS,4,num_4,16,num_4,2.90001023165,,,2017_Oct_13_1146,59.9957857633,FEMA4ImagesEEG,001,101751,
AFNE01.JPG,AFNE01.JPG,AFNE01.JPG,AFNE01.JPG,AFNE01.JPG,AFNE01.JPG,,,,,,,,,2,9,29,8,,,,,,,,,,,,,,,AFNE06.jpg,AFSA15.jpg,AFNE13.jpg,AFSA02.jpg,AFSA02.jpg,FS,4,num_4,16,num_4,1.10012030962,,,2017_Oct_13_1146,59.9957857633,FEMA4ImagesEEG,001,101751,
AFNE01.JPG,AFNE01.JPG,AFNE01.JPG,AFNE01.JPG,AFNE01.JPG,AFNE01.JPG,,,,,,,,,3,0,30,3,,,,,,,,,,,,,,,AFSA19.jpg,AFNE03.jpg,AFNE16.jpg,AFSA04.jpg,AFNE03.jpg,FN,3,num_6,16,num_6,1.05009832291,,,2017_Oct_13_1146,59.9957857633,FEMA4ImagesEEG,001,101751,
AFNE01.JPG,AFNE01.JPG,AFNE01.JPG,AFNE01.JPG,AFNE01.JPG,AFNE01.JPG,,,,,,,,,3,1,31,9,,,,,,,,,,,,,,,AFNE18.jpg,AFSA18.jpg,AFSA15.jpg,AFNE09.jpg,AFSA18.jpg,FS,4,num_6,16,num_6,1.61667803687,,,2017_Oct_13_1146,59.9957857633,FEMA4ImagesEEG,001,101751,
AFNE01.JPG,AFNE01.JPG,AFNE01.JPG,AFNE01.JPG,AFNE01.JPG,AFNE01.JPG,,,,,,,,,3,2,32,2,,,,,,,,,,,,,,,AFSA16.jpg,AFNE03.jpg,AFNE14.jpg,AFSA15.jpg,AFNE14.jpg,FN,3,num_2,32,num_6,1.36646065523,,,2017_Oct_13_1146,59.9957857633,FEMA4ImagesEEG,001,101751,
AFNE01.JPG,AFNE01.JPG,AFNE01.JPG,AFNE01.JPG,AFNE01.JPG,AFNE01.JPG,,,,,,,,,3,3,33,6,,,,,,,,,,,,,,,AFNE16.jpg,AFNE02.jpg,AFSA07.jpg,AFSA02.jpg,AFNE16.jpg,FN,3,num_8,16,num_8,0.733442192548,,,2017_Oct_13_1146,59.9957857633,FEMA4ImagesEEG,001,101751,
AFNE01.JPG,AFNE01.JPG,AFNE01.JPG,AFNE01.JPG,AFNE01.JPG,AFNE01.JPG,,,,,,,,,3,4,34,1,,,,,,,,,,,,,,,AFNE04.jpg,AFSA05.jpg,AFNE02.jpg,AFSA07.jpg,AFNE02.jpg,FN,3,num_2,16,num_2,1.00021008484,,,2017_Oct_13_1146,59.9957857633,FEMA4ImagesEEG,001,101751,
AFNE01.JPG,AFNE01.JPG,AFNE01.JPG,AFNE01.JPG,AFNE01.JPG,AFNE01.JPG,,,,,,,,,3,5,35,0,,,,,,,,,,,,,,,AFSA18.jpg,AFSA14.jpg,AFNE02.jpg,AFNE04.jpg,AFNE04.jpg,FN,3,num_4,16,num_4,0.733464965131,,,2017_Oct_13_1146,59.9957857633,FEMA4ImagesEEG,001,101751,
AFNE01.JPG,AFNE01.JPG,AFNE01.JPG,AFNE01.JPG,AFNE01.JPG,AFNE01.JPG,,,,,,,,,3,6,36,4,,,,,,,,,,,,,,,AFNE03.jpg,AFSA13.jpg,AFNE14.jpg,AFSA16.jpg,AFSA13.jpg,FS,4,num_6,32,num_4,2.23338205367,,,2017_Oct_13_1146,59.9957857633,FEMA4ImagesEEG,001,101751,
AFNE01.JPG,AFNE01.JPG,AFNE01.JPG,AFNE01.JPG,AFNE01.JPG,AFNE01.JPG,,,,,,,,,3,7,37,7,,,,,,,,,,,,,,,AFSA15.jpg,AFNE18.jpg,AFNE20.jpg,AFSA14.jpg,AFSA14.jpg,FS,4,num_4,16,num_4,1.21671447298,,,2017_Oct_13_1146,59.9957857633,FEMA4ImagesEEG,001,101751,
AFNE01.JPG,AFNE01.JPG,AFNE01.JPG,AFNE01.JPG,AFNE01.JPG,AFNE01.JPG,,,,,,,,,3,8,38,5,,,,,,,,,,,,,,,AFSA02.jpg,AFNE12.jpg,AFSA19.jpg,AFNE02.jpg,AFSA02.jpg,FS,4,num_8,16,num_8,2.18333152111,,,2017_Oct_13_1146,59.9957857633,FEMA4ImagesEEG,001,101751,
AFNE01.JPG,AFNE01.JPG,AFNE01.JPG,AFNE01.JPG,AFNE01.JPG,AFNE01.JPG,,,,,,,,,3,9,39,8,,,,,,,,,,,,,,,AFNE07.jpg,AFSA01.jpg,AFNE05.jpg,AFSA07.jpg,AFNE07.jpg,FN,3,num_8,16,num_8,1.31668371393,,,2017_Oct_13_1146,59.9957857633,FEMA4ImagesEEG,001,101751,
AFNE01.JPG,AFNE01.JPG,AFNE01.JPG,AFNE01.JPG,AFNE01.JPG,AFNE01.JPG,,,,,,,,,4,0,40,8,,,,,,,,,,,,,,,AFSA19.jpg,AFNE01.jpg,AFNE14.jpg,AFSA16.jpg,AFSA19.jpg,FS,4,num_8,32,num_4,0.550036580418,,,2017_Oct_13_1146,59.9957857633,FEMA4ImagesEEG,001,101751,
AFNE01.JPG,AFNE01.JPG,AFNE01.JPG,AFNE01.JPG,AFNE01.JPG,AFNE01.JPG,,,,,,,,,4,1,41,1,,,,,,,,,,,,,,,AFNE01.jpg,AFSA05.jpg,AFNE20.jpg,AFSA16.jpg,AFSA16.jpg,FS,4,num_4,32,num_6,1.76665932173,,,2017_Oct_13_1146,59.9957857633,FEMA4ImagesEEG,001,101751,
AFNE01.JPG,AFNE01.JPG,AFNE01.JPG,AFNE01.JPG,AFNE01.JPG,AFNE01.JPG,,,,,,,,,4,2,42,9,,,,,,,,,,,,,,,AFNE19.jpg,AFSA10.jpg,AFNE08.jpg,AFSA04.jpg,AFNE08.jpg,FN,3,num_2,16,num_2,1.61672133685,,,2017_Oct_13_1146,59.9957857633,FEMA4ImagesEEG,001,101751,
AFNE01.JPG,AFNE01.JPG,AFNE01.JPG,AFNE01.JPG,AFNE01.JPG,AFNE01.JPG,,,,,,,,,4,3,43,0,,,,,,,,,,,,,,,AFNE13.jpg,AFSA08.jpg,AFSA09.jpg,AFNE17.jpg,AFSA08.jpg,FS,4,num_6,32,num_2,0.91679776914,,,2017_Oct_13_1146,59.9957857633,FEMA4ImagesEEG,001,101751,
AFNE01.JPG,AFNE01.JPG,AFNE01.JPG,AFNE01.JPG,AFNE01.JPG,AFNE01.JPG,,,,,,,,,4,4,44,7,,,,,,,,,,,,,,,AFNE08.jpg,AFSA10.jpg,AFNE20.jpg,AFSA17.jpg,AFSA17.jpg,FS,4,num_4,16,num_4,1.30013769376,,,2017_Oct_13_1146,59.9957857633,FEMA4ImagesEEG,001,101751,
AFNE01.JPG,AFNE01.JPG,AFNE01.JPG,AFNE01.JPG,AFNE01.JPG,AFNE01.JPG,,,,,,,,,4,5,45,5,,,,,,,,,,,,,,,AFSA06.jpg,AFNE19.jpg,AFNE04.jpg,AFSA15.jpg,AFSA15.jpg,FS,4,num_4,16,num_4,0.616769127082,,,2017_Oct_13_1146,59.9957857633,FEMA4ImagesEEG,001,101751,
AFNE01.JPG,AFNE01.JPG,AFNE01.JPG,AFNE01.JPG,AFNE01.JPG,AFNE01.JPG,,,,,,,,,4,6,46,2,,,,,,,,,,,,,,,AFNE15.jpg,AFNE14.jpg,AFSA07.jpg,AFSA08.jpg,AFSA08.jpg,FS,4,num_4,16,num_4,0.816764380201,,,2017_Oct_13_1146,59.9957857633,FEMA4ImagesEEG,001,101751,
AFNE01.JPG,AFNE01.JPG,AFNE01.JPG,AFNE01.JPG,AFNE01.JPG,AFNE01.JPG,,,,,,,,,4,7,47,6,,,,,,,,,,,,,,,AFNE09.jpg,AFSA02.jpg,AFSA12.jpg,AFNE14.jpg,AFSA02.jpg,FS,4,num_6,16,num_6,0.683486599009,,,2017_Oct_13_1146,59.9957857633,FEMA4ImagesEEG,001,101751,
AFNE01.JPG,AFNE01.JPG,AFNE01.JPG,AFNE01.JPG,AFNE01.JPG,AFNE01.JPG,,,,,,,,,4,8,48,3,,,,,,,,,,,,,,,AFNE17.jpg,AFSA07.jpg,AFNE09.jpg,AFSA05.jpg,AFNE17.jpg,FN,3,num_8,16,num_8,2.28371547919,,,2017_Oct_13_1146,59.9957857633,FEMA4ImagesEEG,001,101751,
AFNE01.JPG,AFNE01.JPG,AFNE01.JPG,AFNE01.JPG,AFNE01.JPG,AFNE01.JPG,,,,,,,,,4,9,49,4,,,,,,,,,,,,,,,AFNE20.jpg,AFSA13.jpg,AFNE17.jpg,AFSA11.jpg,AFSA11.jpg,FS,4,num_4,16,num_4,1.33342217829,,,2017_Oct_13_1146,59.9957857633,FEMA4ImagesEEG,001,101751,
AFNE01.JPG,AFNE01.JPG,AFNE01.JPG,AFNE01.JPG,AFNE01.JPG,AFNE01.JPG,,,,,,,,,5,0,50,4,,,,,,,,,,,,,,,AFSA05.jpg,AFSA17.jpg,AFNE15.jpg,AFNE17.jpg,AFNE17.jpg,FN,3,num_4,32,num_8,1.2667547419,,,2017_Oct_13_1146,59.9957857633,FEMA4ImagesEEG,001,101751,
AFNE01.JPG,AFNE01.JPG,AFNE01.JPG,AFNE01.JPG,AFNE01.JPG,AFNE01.JPG,,,,,,,,,5,1,51,7,,,,,,,,,,,,,,,AFSA18.jpg,AFSA09.jpg,AFNE19.jpg,AFNE03.jpg,AFNE03.jpg,FN,3,num_4,16,num_4,0.61686983949,,,2017_Oct_13_1146,59.9957857633,FEMA4ImagesEEG,001,101751,
AFNE01.JPG,AFNE01.JPG,AFNE01.JPG,AFNE01.JPG,AFNE01.JPG,AFNE01.JPG,,,,,,,,,5,2,52,0,,,,,,,,,,,,,,,AFNE13.jpg,AFSA03.jpg,AFNE02.jpg,AFSA16.jpg,AFSA03.jpg,FS,4,num_6,16,num_6,2.01668778749,,,2017_Oct_13_1146,59.9957857633,FEMA4ImagesEEG,001,101751,
AFNE01.JPG,AFNE01.JPG,AFNE01.JPG,AFNE01.JPG,AFNE01.JPG,AFNE01.JPG,,,,,,,,,5,3,53,6,,,,,,,,,,,,,,,AFSA03.jpg,AFNE14.jpg,AFNE04.jpg,AFSA18.jpg,AFNE14.jpg,FN,3,num_6,16,num_6,1.56638534553,,,2017_Oct_13_1146,59.9957857633,FEMA4ImagesEEG,001,101751,
AFNE01.JPG,AFNE01.JPG,AFNE01.JPG,AFNE01.JPG,AFNE01.JPG,AFNE01.JPG,,,,,,,,,5,4,54,1,,,,,,,,,,,,,,,AFSA18.jpg,AFSA03.jpg,AFNE20.jpg,AFNE08.jpg,AFSA18.jpg,FS,4,num_8,16,num_8,1.78344333114,,,2017_Oct_13_1146,59.9957857633,FEMA4ImagesEEG,001,101751,
AFNE01.JPG,AFNE01.JPG,AFNE01.JPG,AFNE01.JPG,AFNE01.JPG,AFNE01.JPG,,,,,,,,,5,5,55,2,,,,,,,,,,,,,,,AFNE06.jpg,AFNE01.jpg,AFSA16.jpg,AFSA18.jpg,AFNE01.jpg,FN,3,num_6,16,num_6,0.800176342949,,,2017_Oct_13_1146,59.9957857633,FEMA4ImagesEEG,001,101751,
AFNE01.JPG,AFNE01.JPG,AFNE01.JPG,AFNE01.JPG,AFNE01.JPG,AFNE01.JPG,,,,,,,,,5,6,56,5,,,,,,,,,,,,,,,AFSA17.jpg,AFNE06.jpg,AFNE02.jpg,AFSA04.jpg,AFNE06.jpg,FN,3,num_6,32,num_8,1.73338894965,,,2017_Oct_13_1146,59.9957857633,FEMA4ImagesEEG,001,101751,
AFNE01.JPG,AFNE01.JPG,AFNE01.JPG,AFNE01.JPG,AFNE01.JPG,AFNE01.JPG,,,,,,,,,5,7,57,9,,,,,,,,,,,,,,,AFNE13.jpg,AFSA06.jpg,AFSA02.jpg,AFNE15.jpg,AFNE15.jpg,FN,3,num_4,16,num_4,0.733526867931,,,2017_Oct_13_1146,59.9957857633,FEMA4ImagesEEG,001,101751,
AFNE01.JPG,AFNE01.JPG,AFNE01.JPG,AFNE01.JPG,AFNE01.JPG,AFNE01.JPG,,,,,,,,,5,8,58,8,,,,,,,,,,,,,,,AFSA17.jpg,AFNE07.jpg,AFSA02.jpg,AFNE14.jpg,AFNE07.jpg,FN,3,num_6,16,num_6,1.96675336268,,,2017_Oct_13_1146,59.9957857633,FEMA4ImagesEEG,001,101751,
AFNE01.JPG,AFNE01.JPG,AFNE01.JPG,AFNE01.JPG,AFNE01.JPG,AFNE01.JPG,,,,,,,,,5,9,59,3,,,,,,,,,,,,,,,AFSA19.jpg,AFSA10.jpg,AFNE19.jpg,AFNE06.jpg,AFNE19.jpg,FN,3,num_2,32,num_4,1.40013965021,,,2017_Oct_13_1146,59.9957857633,FEMA4ImagesEEG,001,101751,
,,,,,,,,,,,,,,,,,,,,,,,,,,,,,,,,,,,,,,,,,,,space,29.2809683401,2017_Oct_13_1146,59.9957857633,FEMA4ImagesEEG,001,101751,
AFNE01.JPG,AFNE01.JPG,AFNE01.JPG,AFNE01.JPG,AFNE01.JPG,AFNE01.JPG,,,,,,,,,,,,,0,0,0,5,,,,,,,,,,,AMSA10.jpg,AMNE04.jpg,AMNE03.jpg,AMSA01.jpg,AMSA01.jpg,MS,2,num_4,16,num_4,0.733745933394,,,2017_Oct_13_1146,59.9957857633,FEMA4ImagesEEG,001,101751,
AFNE01.JPG,AFNE01.JPG,AFNE01.JPG,AFNE01.JPG,AFNE01.JPG,AFNE01.JPG,,,,,,,,,,,,,0,1,1,3,,,,,,,,,,,AMSA02.jpg,AMNE06.jpg,AMNE08.jpg,AMSA05.jpg,AMNE06.jpg,MN,1,num_6,16,num_6,2.61664884957,,,2017_Oct_13_1146,59.9957857633,FEMA4ImagesEEG,001,101751,
AFNE01.JPG,AFNE01.JPG,AFNE01.JPG,AFNE01.JPG,AFNE01.JPG,AFNE01.JPG,,,,,,,,,,,,,0,2,2,8,,,,,,,,,,,AMSA20.jpg,AMSA02.jpg,AMNE10.jpg,AMNE05.jpg,AMNE10.jpg,MN,1,num_2,16,num_2,1.66654125717,,,2017_Oct_13_1146,59.9957857633,FEMA4ImagesEEG,001,101751,
AFNE01.JPG,AFNE01.JPG,AFNE01.JPG,AFNE01.JPG,AFNE01.JPG,AFNE01.JPG,,,,,,,,,,,,,0,3,3,0,,,,,,,,,,,AMNE03.jpg,AMNE15.jpg,AMSA13.jpg,AMSA16.jpg,AMNE15.jpg,MN,1,num_6,16,num_6,0.91675479,,,2017_Oct_13_1146,59.9957857633,FEMA4ImagesEEG,001,101751,
AFNE01.JPG,AFNE01.JPG,AFNE01.JPG,AFNE01.JPG,AFNE01.JPG,AFNE01.JPG,,,,,,,,,,,,,0,4,4,4,,,,,,,,,,,AMNE05.jpg,AMSA01.jpg,AMNE16.jpg,AMSA20.jpg,AMSA20.jpg,MS,2,num_4,16,num_4,0.733527509379,,,2017_Oct_13_1146,59.9957857633,FEMA4ImagesEEG,001,101751,
AFNE01.JPG,AFNE01.JPG,AFNE01.JPG,AFNE01.JPG,AFNE01.JPG,AFNE01.JPG,,,,,,,,,,,,,0,5,5,2,,,,,,,,,,,AMSA19.jpg,AMNE19.jpg,AMSA14.jpg,AMNE14.jpg,AMNE19.jpg,MN,1,num_6,16,num_6,1.06677648809,,,2017_Oct_13_1146,59.9957857633,FEMA4ImagesEEG,001,101751,
AFNE01.JPG,AFNE01.JPG,AFNE01.JPG,AFNE01.JPG,AFNE01.JPG,AFNE01.JPG,,,,,,,,,,,,,0,6,6,9,,,,,,,,,,,AMNE10.jpg,AMSA11.jpg,AMSA17.jpg,AMNE14.jpg,AMSA11.jpg,MS,2,num_6,32,num_4,1.76673822384,,,2017_Oct_13_1146,59.9957857633,FEMA4ImagesEEG,001,101751,
AFNE01.JPG,AFNE01.JPG,AFNE01.JPG,AFNE01.JPG,AFNE01.JPG,AFNE01.JPG,,,,,,,,,,,,,0,7,7,1,,,,,,,,,,,AMNE05.jpg,AMNE11.jpg,AMSA11.jpg,AMSA07.jpg,AMSA11.jpg,MS,2,num_2,16,num_2,2.16665816703,,,2017_Oct_13_1146,59.9957857633,FEMA4ImagesEEG,001,101751,
AFNE01.JPG,AFNE01.JPG,AFNE01.JPG,AFNE01.JPG,AFNE01.JPG,AFNE01.JPG,,,,,,,,,,,,,0,8,8,6,,,,,,,,,,,AMSA02.jpg,AMNE12.jpg,AMNE04.jpg,AMSA15.jpg,AMSA02.jpg,MS,2,num_8,32,num_4,1.01674936956,,,2017_Oct_13_1146,59.9957857633,FEMA4ImagesEEG,001,101751,
AFNE01.JPG,AFNE01.JPG,AFNE01.JPG,AFNE01.JPG,AFNE01.JPG,AFNE01.JPG,,,,,,,,,,,,,0,9,9,7,,,,,,,,,,,AMNE01.jpg,AMNE12.jpg,AMSA02.jpg,AMSA13.jpg,AMNE12.jpg,MN,1,num_6,16,num_6,1.55002214713,,,2017_Oct_13_1146,59.9957857633,FEMA4ImagesEEG,001,101751,
AFNE01.JPG,AFNE01.JPG,AFNE01.JPG,AFNE01.JPG,AFNE01.JPG,AFNE01.JPG,,,,,,,,,,,,,1,0,10,9,,,,,,,,,,,AMNE17.jpg,AMNE09.jpg,AMSA17.jpg,AMSA13.jpg,AMSA17.jpg,MS,2,num_2,16,num_2,0.80018051248,,,2017_Oct_13_1146,59.9957857633,FEMA4ImagesEEG,001,101751,
AFNE01.JPG,AFNE01.JPG,AFNE01.JPG,AFNE01.JPG,AFNE01.JPG,AFNE01.JPG,,,,,,,,,,,,,1,1,11,0,,,,,,,,,,,AMSA15.jpg,AMSA03.jpg,AMNE17.jpg,AMNE13.jpg,AMNE13.jpg,MN,1,num_4,16,num_4,1.50010055199,,,2017_Oct_13_1146,59.9957857633,FEMA4ImagesEEG,001,101751,
AFNE01.JPG,AFNE01.JPG,AFNE01.JPG,AFNE01.JPG,AFNE01.JPG,AFNE01.JPG,,,,,,,,,,,,,1,2,12,5,,,,,,,,,,,AMNE07.jpg,AMSA08.jpg,AMSA17.jpg,AMNE17.jpg,AMSA17.jpg,MS,2,num_2,32,num_4,1.83340469806,,,2017_Oct_13_1146,59.9957857633,FEMA4ImagesEEG,001,101751,
AFNE01.JPG,AFNE01.JPG,AFNE01.JPG,AFNE01.JPG,AFNE01.JPG,AFNE01.JPG,,,,,,,,,,,,,1,3,13,6,,,,,,,,,,,AMSA05.jpg,AMNE02.jpg,AMSA16.jpg,AMNE07.jpg,AMSA16.jpg,MS,2,num_2,32,num_8,2.25004289893,,,2017_Oct_13_1146,59.9957857633,FEMA4ImagesEEG,001,101751,
AFNE01.JPG,AFNE01.JPG,AFNE01.JPG,AFNE01.JPG,AFNE01.JPG,AFNE01.JPG,,,,,,,,,,,,,1,4,14,3,,,,,,,,,,,AMNE13.jpg,AMSA05.jpg,AMSA10.jpg,AMNE12.jpg,AMNE12.jpg,MN,1,num_4,32,num_2,3.16664052627,,,2017_Oct_13_1146,59.9957857633,FEMA4ImagesEEG,001,101751,
AFNE01.JPG,AFNE01.JPG,AFNE01.JPG,AFNE01.JPG,AFNE01.JPG,AFNE01.JPG,,,,,,,,,,,,,1,5,15,4,,,,,,,,,,,AMNE02.jpg,AMSA10.jpg,AMSA12.jpg,AMNE08.jpg,AMSA12.jpg,MS,2,num_2,32,num_6,1.50014481414,,,2017_Oct_13_1146,59.9957857633,FEMA4ImagesEEG,001,101751,
AFNE01.JPG,AFNE01.JPG,AFNE01.JPG,AFNE01.JPG,AFNE01.JPG,AFNE01.JPG,,,,,,,,,,,,,1,6,16,1,,,,,,,,,,,AMSA14.jpg,AMNE14.jpg,AMSA10.jpg,AMNE07.jpg,AMSA14.jpg,MS,2,num_8,32,num_6,0.9168651246,,,2017_Oct_13_1146,59.9957857633,FEMA4ImagesEEG,001,101751,
AFNE01.JPG,AFNE01.JPG,AFNE01.JPG,AFNE01.JPG,AFNE01.JPG,AFNE01.JPG,,,,,,,,,,,,,1,7,17,7,,,,,,,,,,,AMNE19.jpg,AMSA18.jpg,AMNE07.jpg,AMSA11.jpg,AMNE19.jpg,MN,1,num_8,16,num_8,1.26653246896,,,2017_Oct_13_1146,59.9957857633,FEMA4ImagesEEG,001,101751,
AFNE01.JPG,AFNE01.JPG,AFNE01.JPG,AFNE01.JPG,AFNE01.JPG,AFNE01.JPG,,,,,,,,,,,,,1,8,18,8,,,,,,,,,,,AMNE03.jpg,AMSA16.jpg,AMNE16.jpg,AMSA18.jpg,AMNE16.jpg,MN,1,num_2,16,num_2,1.83353523922,,,2017_Oct_13_1146,59.9957857633,FEMA4ImagesEEG,001,101751,
AFNE01.JPG,AFNE01.JPG,AFNE01.JPG,AFNE01.JPG,AFNE01.JPG,AFNE01.JPG,,,,,,,,,,,,,1,9,19,2,,,,,,,,,,,AMNE19.jpg,AMNE13.jpg,AMSA07.jpg,AMSA06.jpg,AMSA06.jpg,MS,2,num_4,16,num_4,0.616880744696,,,2017_Oct_13_1146,59.9957857633,FEMA4ImagesEEG,001,101751,
AFNE01.JPG,AFNE01.JPG,AFNE01.JPG,AFNE01.JPG,AFNE01.JPG,AFNE01.JPG,,,,,,,,,,,,,2,0,20,6,,,,,,,,,,,AMNE17.jpg,AMSA06.jpg,AMNE01.jpg,AMSA17.jpg,AMNE01.jpg,MN,1,num_2,16,num_2,1.90009779367,,,2017_Oct_13_1146,59.9957857633,FEMA4ImagesEEG,001,101751,
AFNE01.JPG,AFNE01.JPG,AFNE01.JPG,AFNE01.JPG,AFNE01.JPG,AFNE01.JPG,,,,,,,,,,,,,2,1,21,3,,,,,,,,,,,AMSA08.jpg,AMSA02.jpg,AMNE16.jpg,AMNE19.jpg,AMNE16.jpg,MN,1,num_2,32,num_8,2.71657126246,,,2017_Oct_13_1146,59.9957857633,FEMA4ImagesEEG,001,101751,
AFNE01.JPG,AFNE01.JPG,AFNE01.JPG,AFNE01.JPG,AFNE01.JPG,AFNE01.JPG,,,,,,,,,,,,,2,2,22,0,,,,,,,,,,,AMNE04.jpg,AMNE11.jpg,AMSA09.jpg,AMSA19.jpg,AMSA09.jpg,MS,2,num_2,32,num_6,1.16019236704,,,2017_Oct_13_1146,59.9957857633,FEMA4ImagesEEG,001,101751,
AFNE01.JPG,AFNE01.JPG,AFNE01.JPG,AFNE01.JPG,AFNE01.JPG,AFNE01.JPG,,,,,,,,,,,,,2,3,23,5,,,,,,,,,,,AMNE04.jpg,AMNE06.jpg,AMSA13.jpg,AMSA12.jpg,AMSA13.jpg,MS,2,num_2,32,num_6,2.01673686062,,,2017_Oct_13_1146,59.9957857633,FEMA4ImagesEEG,001,101751,
AFNE01.JPG,AFNE01.JPG,AFNE01.JPG,AFNE01.JPG,AFNE01.JPG,AFNE01.JPG,,,,,,,,,,,,,2,4,24,4,,,,,,,,,,,AMNE02.jpg,AMSA07.jpg,AMSA01.jpg,AMNE07.jpg,AMNE02.jpg,MN,1,num_8,16,num_8,1.63342227461,,,2017_Oct_13_1146,59.9957857633,FEMA4ImagesEEG,001,101751,
AFNE01.JPG,AFNE01.JPG,AFNE01.JPG,AFNE01.JPG,AFNE01.JPG,AFNE01.JPG,,,,,,,,,,,,,2,5,25,1,,,,,,,,,,,AMSA01.jpg,AMNE17.jpg,AMNE18.jpg,AMSA05.jpg,AMSA01.jpg,MS,2,num_8,32,num_4,2.44998939964,,,2017_Oct_13_1146,59.9957857633,FEMA4ImagesEEG,001,101751,
AFNE01.JPG,AFNE01.JPG,AFNE01.JPG,AFNE01.JPG,AFNE01.JPG,AFNE01.JPG,,,,,,,,,,,,,2,6,26,9,,,,,,,,,,,AMSA04.jpg,AMNE17.jpg,AMSA17.jpg,AMNE10.jpg,AMNE17.jpg,MN,1,num_6,16,num_6,0.78347893327,,,2017_Oct_13_1146,59.9957857633,FEMA4ImagesEEG,001,101751,
AFNE01.JPG,AFNE01.JPG,AFNE01.JPG,AFNE01.JPG,AFNE01.JPG,AFNE01.JPG,,,,,,,,,,,,,2,7,27,7,,,,,,,,,,,AMNE04.jpg,AMSA12.jpg,AMSA14.jpg,AMNE09.jpg,AMNE04.jpg,MN,1,num_8,16,num_8,0.800141702988,,,2017_Oct_13_1146,59.9957857633,FEMA4ImagesEEG,001,101751,
AFNE01.JPG,AFNE01.JPG,AFNE01.JPG,AFNE01.JPG,AFNE01.JPG,AFNE01.JPG,,,,,,,,,,,,,2,8,28,2,,,,,,,,,,,AMNE20.jpg,AMNE03.jpg,AMSA01.jpg,AMSA04.jpg,AMNE03.jpg,MN,1,num_6,32,num_4,1.06675467768,,,2017_Oct_13_1146,59.9957857633,FEMA4ImagesEEG,001,101751,
AFNE01.JPG,AFNE01.JPG,AFNE01.JPG,AFNE01.JPG,AFNE01.JPG,AFNE01.JPG,,,,,,,,,,,,,2,9,29,8,,,,,,,,,,,AMSA20.jpg,AMNE08.jpg,AMSA18.jpg,AMNE11.jpg,AMSA20.jpg,MS,2,num_8,32,num_2,2.33366786526,,,2017_Oct_13_1146,59.9957857633,FEMA4ImagesEEG,001,101751,
AFNE01.JPG,AFNE01.JPG,AFNE01.JPG,AFNE01.JPG,AFNE01.JPG,AFNE01.JPG,,,,,,,,,,,,,3,0,30,5,,,,,,,,,,,AMNE15.jpg,AMSA11.jpg,AMNE19.jpg,AMSA12.jpg,AMNE15.jpg,MN,1,num_8,16,num_8,1.2168456557,,,2017_Oct_13_1146,59.9957857633,FEMA4ImagesEEG,001,101751,
AFNE01.JPG,AFNE01.JPG,AFNE01.JPG,AFNE01.JPG,AFNE01.JPG,AFNE01.JPG,,,,,,,,,,,,,3,1,31,2,,,,,,,,,,,AMSA08.jpg,AMSA20.jpg,AMNE11.jpg,AMNE01.jpg,AMSA08.jpg,MS,2,num_8,32,num_2,1.4668228029,,,2017_Oct_13_1146,59.9957857633,FEMA4ImagesEEG,001,101751,
AFNE01.JPG,AFNE01.JPG,AFNE01.JPG,AFNE01.JPG,AFNE01.JPG,AFNE01.JPG,,,,,,,,,,,,,3,2,32,8,,,,,,,,,,,AMNE09.jpg,AMSA12.jpg,AMNE04.jpg,AMSA02.jpg,AMSA02.jpg,MS,2,num_4,16,num_4,1.25020583498,,,2017_Oct_13_1146,59.9957857633,FEMA4ImagesEEG,001,101751,
AFNE01.JPG,AFNE01.JPG,AFNE01.JPG,AFNE01.JPG,AFNE01.JPG,AFNE01.JPG,,,,,,,,,,,,,3,3,33,0,,,,,,,,,,,AMNE09.jpg,AMSA04.jpg,AMNE13.jpg,AMSA14.jpg,AMSA04.jpg,MS,2,num_6,32,num_4,0.58353660244,,,2017_Oct_13_1146,59.9957857633,FEMA4ImagesEEG,001,101751,
AFNE01.JPG,AFNE01.JPG,AFNE01.JPG,AFNE01.JPG,AFNE01.JPG,AFNE01.JPG,,,,,,,,,,,,,3,4,34,3,,,,,,,,,,,AMNE15.jpg,AMNE06.jpg,AMSA06.jpg,AMSA13.jpg,AMNE06.jpg,MN,1,num_6,16,num_6,0.933487160248,,,2017_Oct_13_1146,59.9957857633,FEMA4ImagesEEG,001,101751,
AFNE01.JPG,AFNE01.JPG,AFNE01.JPG,AFNE01.JPG,AFNE01.JPG,AFNE01.JPG,,,,,,,,,,,,,3,5,35,1,,,,,,,,,,,AMNE11.jpg,AMNE04.jpg,AMSA13.jpg,AMSA11.jpg,AMNE04.jpg,MN,1,num_6,16,num_6,1.43353254499,,,2017_Oct_13_1146,59.9957857633,FEMA4ImagesEEG,001,101751,
AFNE01.JPG,AFNE01.JPG,AFNE01.JPG,AFNE01.JPG,AFNE01.JPG,AFNE01.JPG,,,,,,,,,,,,,3,6,36,4,,,,,,,,,,,AMNE11.jpg,AMSA05.jpg,AMSA13.jpg,AMNE15.jpg,AMSA05.jpg,MS,2,num_6,32,num_2,1.51688392006,,,2017_Oct_13_1146,59.9957857633,FEMA4ImagesEEG,001,101751,
AFNE01.JPG,AFNE01.JPG,AFNE01.JPG,AFNE01.JPG,AFNE01.JPG,AFNE01.JPG,,,,,,,,,,,,,3,7,37,9,,,,,,,,,,,AMSA16.jpg,AMNE14.jpg,AMNE04.jpg,AMSA13.jpg,AMNE04.jpg,MN,1,num_2,16,num_2,1.16650645703,,,2017_Oct_13_1146,59.9957857633,FEMA4ImagesEEG,001,101751,
AFNE01.JPG,AFNE01.JPG,AFNE01.JPG,AFNE01.JPG,AFNE01.JPG,AFNE01.JPG,,,,,,,,,,,,,3,8,38,6,,,,,,,,,,,AMSA19.jpg,AMNE16.jpg,AMNE19.jpg,AMSA14.jpg,AMSA14.jpg,MS,2,num_4,32,num_6,1.03357924474,,,2017_Oct_13_1146,59.9957857633,FEMA4ImagesEEG,001,101751,
AFNE01.JPG,AFNE01.JPG,AFNE01.JPG,AFNE01.JPG,AFNE01.JPG,AFNE01.JPG,,,,,,,,,,,,,3,9,39,7,,,,,,,,,,,AMSA11.jpg,AMNE17.jpg,AMNE04.jpg,AMSA17.jpg,AMNE17.jpg,MN,1,num_6,16,num_6,0.683519635233,,,2017_Oct_13_1146,59.9957857633,FEMA4ImagesEEG,001,101751,
AFNE01.JPG,AFNE01.JPG,AFNE01.JPG,AFNE01.JPG,AFNE01.JPG,AFNE01.JPG,,,,,,,,,,,,,4,0,40,0,,,,,,,,,,,AMNE07.jpg,AMSA09.jpg,AMSA12.jpg,AMNE13.jpg,AMSA12.jpg,MS,2,num_2,32,num_4,3.15026995086,,,2017_Oct_13_1146,59.9957857633,FEMA4ImagesEEG,001,101751,
AFNE01.JPG,AFNE01.JPG,AFNE01.JPG,AFNE01.JPG,AFNE01.JPG,AFNE01.JPG,,,,,,,,,,,,,4,1,41,1,,,,,,,,,,,AMNE18.jpg,AMSA05.jpg,AMSA04.jpg,AMNE08.jpg,AMSA05.jpg,MS,2,num_6,32,num_8,1.26673710113,,,2017_Oct_13_1146,59.9957857633,FEMA4ImagesEEG,001,101751,
AFNE01.JPG,AFNE01.JPG,AFNE01.JPG,AFNE01.JPG,AFNE01.JPG,AFNE01.JPG,,,,,,,,,,,,,4,2,42,9,,,,,,,,,,,AMSA13.jpg,AMSA16.jpg,AMNE20.jpg,AMNE09.jpg,AMNE09.jpg,MN,1,num_4,16,num_4,0.933119912865,,,2017_Oct_13_1146,59.9957857633,FEMA4ImagesEEG,001,101751,
AFNE01.JPG,AFNE01.JPG,AFNE01.JPG,AFNE01.JPG,AFNE01.JPG,AFNE01.JPG,,,,,,,,,,,,,4,3,43,6,,,,,,,,,,,AMSA16.jpg,AMNE17.jpg,AMSA08.jpg,AMNE15.jpg,AMSA08.jpg,MS,2,num_2,16,num_2,1.08349282132,,,2017_Oct_13_1146,59.9957857633,FEMA4ImagesEEG,001,101751,
AFNE01.JPG,AFNE01.JPG,AFNE01.JPG,AFNE01.JPG,AFNE01.JPG,AFNE01.JPG,,,,,,,,,,,,,4,4,44,5,,,,,,,,,,,AMSA04.jpg,AMNE16.jpg,AMNE13.jpg,AMSA06.jpg,AMNE16.jpg,MN,1,num_6,16,num_6,1.09994678921,,,2017_Oct_13_1146,59.9957857633,FEMA4ImagesEEG,001,101751,
AFNE01.JPG,AFNE01.JPG,AFNE01.JPG,AFNE01.JPG,AFNE01.JPG,AFNE01.JPG,,,,,,,,,,,,,4,5,45,7,,,,,,,,,,,AMNE07.jpg,AMSA08.jpg,AMSA09.jpg,AMNE10.jpg,AMNE07.jpg,MN,1,num_8,16,num_8,0.650222321041,,,2017_Oct_13_1146,59.9957857633,FEMA4ImagesEEG,001,101751,
AFNE01.JPG,AFNE01.JPG,AFNE01.JPG,AFNE01.JPG,AFNE01.JPG,AFNE01.JPG,,,,,,,,,,,,,4,6,46,4,,,,,,,,,,,AMSA09.jpg,AMNE08.jpg,AMSA06.jpg,AMNE20.jpg,AMNE08.jpg,MN,1,num_6,16,num_6,2.033353123,,,2017_Oct_13_1146,59.9957857633,FEMA4ImagesEEG,001,101751,
AFNE01.JPG,AFNE01.JPG,AFNE01.JPG,AFNE01.JPG,AFNE01.JPG,AFNE01.JPG,,,,,,,,,,,,,4,7,47,8,,,,,,,,,,,AMSA20.jpg,AMSA10.jpg,AMNE18.jpg,AMNE14.jpg,AMNE14.jpg,MN,1,num_4,16,num_4,1.41670587717,,,2017_Oct_13_1146,59.9957857633,FEMA4ImagesEEG,001,101751,
AFNE01.JPG,AFNE01.JPG,AFNE01.JPG,AFNE01.JPG,AFNE01.JPG,AFNE01.JPG,,,,,,,,,,,,,4,8,48,3,,,,,,,,,,,AMSA13.jpg,AMNE19.jpg,AMSA19.jpg,AMNE11.jpg,AMNE11.jpg,MN,1,num_4,32,num_8,1.7666760002,,,2017_Oct_13_1146,59.9957857633,FEMA4ImagesEEG,001,101751,
AFNE01.JPG,AFNE01.JPG,AFNE01.JPG,AFNE01.JPG,AFNE01.JPG,AFNE01.JPG,,,,,,,,,,,,,4,9,49,2,,,,,,,,,,,AMSA01.jpg,AMNE03.jpg,AMNE07.jpg,AMSA06.jpg,AMNE07.jpg,MN,1,num_2,32,num_4,1.16678902903,,,2017_Oct_13_1146,59.9957857633,FEMA4ImagesEEG,001,101751,
AFNE01.JPG,AFNE01.JPG,AFNE01.JPG,AFNE01.JPG,AFNE01.JPG,AFNE01.JPG,,,,,,,,,,,,,5,0,50,9,,,,,,,,,,,AMSA06.jpg,AMNE02.jpg,AMSA10.jpg,AMNE12.jpg,AMNE12.jpg,MN,1,num_4,32,num_6,1.40018583683,,,2017_Oct_13_1146,59.9957857633,FEMA4ImagesEEG,001,101751,
AFNE01.JPG,AFNE01.JPG,AFNE01.JPG,AFNE01.JPG,AFNE01.JPG,AFNE01.JPG,,,,,,,,,,,,,5,1,51,5,,,,,,,,,,,AMSA04.jpg,AMNE10.jpg,AMSA13.jpg,AMNE16.jpg,AMNE10.jpg,MN,1,num_6,32,num_4,1.05011660513,,,2017_Oct_13_1146,59.9957857633,FEMA4ImagesEEG,001,101751,
AFNE01.JPG,AFNE01.JPG,AFNE01.JPG,AFNE01.JPG,AFNE01.JPG,AFNE01.JPG,,,,,,,,,,,,,5,2,52,1,,,,,,,,,,,AMNE17.jpg,AMNE02.jpg,AMSA04.jpg,AMSA16.jpg,AMSA16.jpg,MS,2,num_4,16,num_4,1.5833688553,,,2017_Oct_13_1146,59.9957857633,FEMA4ImagesEEG,001,101751,
AFNE01.JPG,AFNE01.JPG,AFNE01.JPG,AFNE01.JPG,AFNE01.JPG,AFNE01.JPG,,,,,,,,,,,,,5,3,53,3,,,,,,,,,,,AMSA18.jpg,AMNE06.jpg,AMNE08.jpg,AMSA20.jpg,AMNE08.jpg,MN,1,num_2,32,num_6,2.08334945049,,,2017_Oct_13_1146,59.9957857633,FEMA4ImagesEEG,001,101751,
AFNE01.JPG,AFNE01.JPG,AFNE01.JPG,AFNE01.JPG,AFNE01.JPG,AFNE01.JPG,,,,,,,,,,,,,5,4,54,8,,,,,,,,,,,AMSA11.jpg,AMNE08.jpg,AMSA05.jpg,AMNE02.jpg,AMSA05.jpg,MS,2,num_2,32,num_4,1.08348640648,,,2017_Oct_13_1146,59.9957857633,FEMA4ImagesEEG,001,101751,
AFNE01.JPG,AFNE01.JPG,AFNE01.JPG,AFNE01.JPG,AFNE01.JPG,AFNE01.JPG,,,,,,,,,,,,,5,5,55,7,,,,,,,,,,,AMNE17.jpg,AMSA01.jpg,AMNE12.jpg,AMSA18.jpg,AMNE12.jpg,MN,1,num_2,32,num_8,0.916816372075,,,2017_Oct_13_1146,59.9957857633,FEMA4ImagesEEG,001,101751,
AFNE01.JPG,AFNE01.JPG,AFNE01.JPG,AFNE01.JPG,AFNE01.JPG,AFNE01.JPG,,,,,,,,,,,,,5,6,56,2,,,,,,,,,,,AMSA17.jpg,AMSA04.jpg,AMNE19.jpg,AMNE18.jpg,AMNE19.jpg,MN,1,num_2,32,num_6,2.55003337306,,,2017_Oct_13_1146,59.9957857633,FEMA4ImagesEEG,001,101751,
AFNE01.JPG,AFNE01.JPG,AFNE01.JPG,AFNE01.JPG,AFNE01.JPG,AFNE01.JPG,,,,,,,,,,,,,5,7,57,4,,,,,,,,,,,AMNE04.jpg,AMSA08.jpg,AMNE09.jpg,AMSA16.jpg,AMNE04.jpg,MN,1,num_8,16,num_8,1.53342480841,,,2017_Oct_13_1146,59.9957857633,FEMA4ImagesEEG,001,101751,
AFNE01.JPG,AFNE01.JPG,AFNE01.JPG,AFNE01.JPG,AFNE01.JPG,AFNE01.JPG,,,,,,,,,,,,,5,8,58,6,,,,,,,,,,,AMSA09.jpg,AMSA08.jpg,AMNE18.jpg,AMNE09.jpg,AMSA08.jpg,MS,2,num_6,16,num_6,0.850098900264,,,2017_Oct_13_1146,59.9957857633,FEMA4ImagesEEG,001,101751,
AFNE01.JPG,AFNE01.JPG,AFNE01.JPG,AFNE01.JPG,AFNE01.JPG,AFNE01.JPG,,,,,,,,,,,,,5,9,59,0,,,,,,,,,,,AMSA07.jpg,AMSA02.jpg,AMNE11.jpg,AMNE13.jpg,AMSA07.jpg,MS,2,num_8,32,num_4,1.35009553237,,,2017_Oct_13_1146,59.9957857633,FEMA4ImagesEEG,001,101751,
,,,,,,,,,,,,,,,,,,,,,,,,,,,,,,,,,,,,,,,,,,,space,18.2324750008,2017_Oct_13_1146,59.9957857633,FEMA4ImagesEEG,001,101751,
AFNE01.JPG,AFNE01.JPG,AFNE01.JPG,AFNE01.JPG,AFNE01.JPG,AFNE01.JPG,,,,,,,,,,,,,,,,,0,0,0,3,,,,,,,AFNE16.jpg,AFSA04.jpg,AFNE15.jpg,AFSA03.jpg,AFNE15.jpg,FN,3,num_2,32,num_6,2.2000205915,,,2017_Oct_13_1146,59.9957857633,FEMA4ImagesEEG,001,101751,
AFNE01.JPG,AFNE01.JPG,AFNE01.JPG,AFNE01.JPG,AFNE01.JPG,AFNE01.JPG,,,,,,,,,,,,,,,,,0,1,1,0,,,,,,,AFSA09.jpg,AFSA07.jpg,AFNE14.jpg,AFNE06.jpg,AFNE14.jpg,FN,3,num_2,16,num_2,0.950108554563,,,2017_Oct_13_1146,59.9957857633,FEMA4ImagesEEG,001,101751,
AFNE01.JPG,AFNE01.JPG,AFNE01.JPG,AFNE01.JPG,AFNE01.JPG,AFNE01.JPG,,,,,,,,,,,,,,,,,0,2,2,9,,,,,,,AFNE15.jpg,AFSA10.jpg,AFNE04.jpg,AFSA13.jpg,AFNE04.jpg,FN,3,num_2,32,num_6,1.66670900432,,,2017_Oct_13_1146,59.9957857633,FEMA4ImagesEEG,001,101751,
AFNE01.JPG,AFNE01.JPG,AFNE01.JPG,AFNE01.JPG,AFNE01.JPG,AFNE01.JPG,,,,,,,,,,,,,,,,,0,3,3,4,,,,,,,AFSA04.jpg,AFNE19.jpg,AFSA03.jpg,AFNE10.jpg,AFSA03.jpg,FS,4,num_2,32,num_4,2.24998741096,,,2017_Oct_13_1146,59.9957857633,FEMA4ImagesEEG,001,101751,
AFNE01.JPG,AFNE01.JPG,AFNE01.JPG,AFNE01.JPG,AFNE01.JPG,AFNE01.JPG,,,,,,,,,,,,,,,,,0,4,4,2,,,,,,,AFSA17.jpg,AFNE13.jpg,AFNE01.jpg,AFSA02.jpg,AFSA17.jpg,FS,4,num_8,16,num_8,1.81654050353,,,2017_Oct_13_1146,59.9957857633,FEMA4ImagesEEG,001,101751,
AFNE01.JPG,AFNE01.JPG,AFNE01.JPG,AFNE01.JPG,AFNE01.JPG,AFNE01.JPG,,,,,,,,,,,,,,,,,0,5,5,5,,,,,,,AFNE08.jpg,AFNE14.jpg,AFSA09.jpg,AFSA06.jpg,AFNE08.jpg,FN,3,num_8,16,num_8,1.93359043868,,,2017_Oct_13_1146,59.9957857633,FEMA4ImagesEEG,001,101751,
AFNE01.JPG,AFNE01.JPG,AFNE01.JPG,AFNE01.JPG,AFNE01.JPG,AFNE01.JPG,,,,,,,,,,,,,,,,,0,6,6,7,,,,,,,AFSA06.jpg,AFSA10.jpg,AFNE20.jpg,AFNE08.jpg,AFNE08.jpg,FN,3,num_4,16,num_4,0.533270853222,,,2017_Oct_13_1146,59.9957857633,FEMA4ImagesEEG,001,101751,
AFNE01.JPG,AFNE01.JPG,AFNE01.JPG,AFNE01.JPG,AFNE01.JPG,AFNE01.JPG,,,,,,,,,,,,,,,,,0,7,7,1,,,,,,,AFNE13.jpg,AFSA19.jpg,AFSA02.jpg,AFNE12.jpg,AFSA19.jpg,FS,4,num_6,32,num_2,3.1832997679,,,2017_Oct_13_1146,59.9957857633,FEMA4ImagesEEG,001,101751,
AFNE01.JPG,AFNE01.JPG,AFNE01.JPG,AFNE01.JPG,AFNE01.JPG,AFNE01.JPG,,,,,,,,,,,,,,,,,0,8,8,8,,,,,,,AFSA12.jpg,AFSA11.jpg,AFNE12.jpg,AFNE01.jpg,AFSA12.jpg,FS,4,num_8,32,num_4,1.01673974737,,,2017_Oct_13_1146,59.9957857633,FEMA4ImagesEEG,001,101751,
AFNE01.JPG,AFNE01.JPG,AFNE01.JPG,AFNE01.JPG,AFNE01.JPG,AFNE01.JPG,,,,,,,,,,,,,,,,,0,9,9,6,,,,,,,AFNE17.jpg,AFSA02.jpg,AFSA03.jpg,AFNE11.jpg,AFSA03.jpg,FS,4,num_2,32,num_4,1.33340165101,,,2017_Oct_13_1146,59.9957857633,FEMA4ImagesEEG,001,101751,
AFNE01.JPG,AFNE01.JPG,AFNE01.JPG,AFNE01.JPG,AFNE01.JPG,AFNE01.JPG,,,,,,,,,,,,,,,,,1,0,10,1,,,,,,,AFSA03.jpg,AFSA11.jpg,AFNE08.jpg,AFNE09.jpg,AFNE08.jpg,FN,3,num_2,32,num_4,1.15012658003,,,2017_Oct_13_1146,59.9957857633,FEMA4ImagesEEG,001,101751,
AFNE01.JPG,AFNE01.JPG,AFNE01.JPG,AFNE01.JPG,AFNE01.JPG,AFNE01.JPG,,,,,,,,,,,,,,,,,1,1,11,8,,,,,,,AFSA09.jpg,AFNE07.jpg,AFSA15.jpg,AFNE16.jpg,AFSA15.jpg,FS,4,num_2,16,num_2,0.750318254461,,,2017_Oct_13_1146,59.9957857633,FEMA4ImagesEEG,001,101751,
AFNE01.JPG,AFNE01.JPG,AFNE01.JPG,AFNE01.JPG,AFNE01.JPG,AFNE01.JPG,,,,,,,,,,,,,,,,,1,2,12,5,,,,,,,AFNE09.jpg,AFSA05.jpg,AFSA02.jpg,AFNE16.jpg,AFNE09.jpg,FN,3,num_8,16,num_8,1.23341669375,,,2017_Oct_13_1146,59.9957857633,FEMA4ImagesEEG,001,101751,
AFNE01.JPG,AFNE01.JPG,AFNE01.JPG,AFNE01.JPG,AFNE01.JPG,AFNE01.JPG,,,,,,,,,,,,,,,,,1,3,13,7,,,,,,,AFSA13.jpg,AFSA03.jpg,AFNE17.jpg,AFNE18.jpg,AFNE17.jpg,FN,3,num_2,16,num_2,2.21664583462,,,2017_Oct_13_1146,59.9957857633,FEMA4ImagesEEG,001,101751,
AFNE01.JPG,AFNE01.JPG,AFNE01.JPG,AFNE01.JPG,AFNE01.JPG,AFNE01.JPG,,,,,,,,,,,,,,,,,1,4,14,9,,,,,,,AFNE18.jpg,AFNE14.jpg,AFSA06.jpg,AFSA20.jpg,AFNE14.jpg,FN,3,num_6,16,num_6,1.0000981465,,,2017_Oct_13_1146,59.9957857633,FEMA4ImagesEEG,001,101751,
AFNE01.JPG,AFNE01.JPG,AFNE01.JPG,AFNE01.JPG,AFNE01.JPG,AFNE01.JPG,,,,,,,,,,,,,,,,,1,5,15,0,,,,,,,AFSA01.jpg,AFNE19.jpg,AFNE15.jpg,AFSA15.jpg,AFSA15.jpg,FS,4,num_4,16,num_4,0.783467386616,,,2017_Oct_13_1146,59.9957857633,FEMA4ImagesEEG,001,101751,
AFNE01.JPG,AFNE01.JPG,AFNE01.JPG,AFNE01.JPG,AFNE01.JPG,AFNE01.JPG,,,,,,,,,,,,,,,,,1,6,16,4,,,,,,,AFSA07.jpg,AFSA16.jpg,AFNE10.jpg,AFNE04.jpg,AFSA07.jpg,FS,4,num_8,32,num_6,1.33375414438,,,2017_Oct_13_1146,59.9957857633,FEMA4ImagesEEG,001,101751,
AFNE01.JPG,AFNE01.JPG,AFNE01.JPG,AFNE01.JPG,AFNE01.JPG,AFNE01.JPG,,,,,,,,,,,,,,,,,1,7,17,3,,,,,,,AFSA12.jpg,AFNE14.jpg,AFNE03.jpg,AFSA09.jpg,AFNE14.jpg,FN,3,num_6,16,num_6,0.933467915864,,,2017_Oct_13_1146,59.9957857633,FEMA4ImagesEEG,001,101751,
AFNE01.JPG,AFNE01.JPG,AFNE01.JPG,AFNE01.JPG,AFNE01.JPG,AFNE01.JPG,,,,,,,,,,,,,,,,,1,8,18,6,,,,,,,AFNE09.jpg,AFSA18.jpg,AFSA20.jpg,AFNE15.jpg,AFSA20.jpg,FS,4,num_2,16,num_2,1.15010605264,,,2017_Oct_13_1146,59.9957857633,FEMA4ImagesEEG,001,101751,
AFNE01.JPG,AFNE01.JPG,AFNE01.JPG,AFNE01.JPG,AFNE01.JPG,AFNE01.JPG,,,,,,,,,,,,,,,,,1,9,19,2,,,,,,,AFSA02.jpg,AFNE20.jpg,AFNE05.jpg,AFSA08.jpg,AFNE20.jpg,FN,3,num_6,16,num_6,1.1167330438,,,2017_Oct_13_1146,59.9957857633,FEMA4ImagesEEG,001,101751,
AFNE01.JPG,AFNE01.JPG,AFNE01.JPG,AFNE01.JPG,AFNE01.JPG,AFNE01.JPG,,,,,,,,,,,,,,,,,2,0,20,7,,,,,,,AFNE16.jpg,AFNE18.jpg,AFSA04.jpg,AFSA19.jpg,AFNE18.jpg,FN,3,num_6,16,num_6,0.600136506953,,,2017_Oct_13_1146,59.9957857633,FEMA4ImagesEEG,001,101751,
AFNE01.JPG,AFNE01.JPG,AFNE01.JPG,AFNE01.JPG,AFNE01.JPG,AFNE01.JPG,,,,,,,,,,,,,,,,,2,1,21,5,,,,,,,AFNE16.jpg,AFSA05.jpg,AFSA18.jpg,AFNE01.jpg,AFNE01.jpg,FN,3,num_4,32,num_8,0.916811240255,,,2017_Oct_13_1146,59.9957857633,FEMA4ImagesEEG,001,101751,
AFNE01.JPG,AFNE01.JPG,AFNE01.JPG,AFNE01.JPG,AFNE01.JPG,AFNE01.JPG,,,,,,,,,,,,,,,,,2,2,22,3,,,,,,,AFNE18.jpg,AFNE04.jpg,AFSA10.jpg,AFSA06.jpg,AFSA06.jpg,FS,4,num_4,16,num_4,1.71666556015,,,2017_Oct_13_1146,59.9957857633,FEMA4ImagesEEG,001,101751,
AFNE01.JPG,AFNE01.JPG,AFNE01.JPG,AFNE01.JPG,AFNE01.JPG,AFNE01.JPG,,,,,,,,,,,,,,,,,2,3,23,9,,,,,,,AFNE06.jpg,AFSA19.jpg,AFSA15.jpg,AFNE14.jpg,AFSA15.jpg,FS,4,num_2,16,num_2,0.866785725346,,,2017_Oct_13_1146,59.9957857633,FEMA4ImagesEEG,001,101751,
AFNE01.JPG,AFNE01.JPG,AFNE01.JPG,AFNE01.JPG,AFNE01.JPG,AFNE01.JPG,,,,,,,,,,,,,,,,,2,4,24,0,,,,,,,AFSA11.jpg,AFNE15.jpg,AFSA02.jpg,AFNE20.jpg,AFNE15.jpg,FN,3,num_6,32,num_4,0.516665175208,,,2017_Oct_13_1146,59.9957857633,FEMA4ImagesEEG,001,101751,
AFNE01.JPG,AFNE01.JPG,AFNE01.JPG,AFNE01.JPG,AFNE01.JPG,AFNE01.JPG,,,,,,,,,,,,,,,,,2,5,25,2,,,,,,,AFNE01.jpg,AFSA11.jpg,AFSA09.jpg,AFNE08.jpg,AFNE01.jpg,FN,3,num_8,16,num_8,0.550121576525,,,2017_Oct_13_1146,59.9957857633,FEMA4ImagesEEG,001,101751,
AFNE01.JPG,AFNE01.JPG,AFNE01.JPG,AFNE01.JPG,AFNE01.JPG,AFNE01.JPG,,,,,,,,,,,,,,,,,2,6,26,6,,,,,,,AFSA11.jpg,AFSA07.jpg,AFNE12.jpg,AFNE10.jpg,AFNE12.jpg,FN,3,num_2,16,num_2,1.15011214674,,,2017_Oct_13_1146,59.9957857633,FEMA4ImagesEEG,001,101751,
AFNE01.JPG,AFNE01.JPG,AFNE01.JPG,AFNE01.JPG,AFNE01.JPG,AFNE01.JPG,,,,,,,,,,,,,,,,,2,7,27,8,,,,,,,AFNE10.jpg,AFSA03.jpg,AFNE14.jpg,AFSA07.jpg,AFSA07.jpg,FS,4,num_4,16,num_4,1.8500812595,,,2017_Oct_13_1146,59.9957857633,FEMA4ImagesEEG,001,101751,
AFNE01.JPG,AFNE01.JPG,AFNE01.JPG,AFNE01.JPG,AFNE01.JPG,AFNE01.JPG,,,,,,,,,,,,,,,,,2,8,28,4,,,,,,,AFSA11.jpg,AFSA17.jpg,AFNE07.jpg,AFNE17.jpg,AFNE17.jpg,FN,3,num_4,16,num_4,1.21671415225,,,2017_Oct_13_1146,59.9957857633,FEMA4ImagesEEG,001,101751,
AFNE01.JPG,AFNE01.JPG,AFNE01.JPG,AFNE01.JPG,AFNE01.JPG,AFNE01.JPG,,,,,,,,,,,,,,,,,2,9,29,1,,,,,,,AFNE13.jpg,AFSA02.jpg,AFNE01.jpg,AFSA03.jpg,AFNE01.jpg,FN,3,num_2,16,num_2,0.68347024126,,,2017_Oct_13_1146,59.9957857633,FEMA4ImagesEEG,001,101751,
AFNE01.JPG,AFNE01.JPG,AFNE01.JPG,AFNE01.JPG,AFNE01.JPG,AFNE01.JPG,,,,,,,,,,,,,,,,,3,0,30,9,,,,,,,AFSA20.jpg,AFSA11.jpg,AFNE16.jpg,AFNE03.jpg,AFNE16.jpg,FN,3,num_2,16,num_2,3.16657252947,,,2017_Oct_13_1146,59.9957857633,FEMA4ImagesEEG,001,101751,
AFNE01.JPG,AFNE01.JPG,AFNE01.JPG,AFNE01.JPG,AFNE01.JPG,AFNE01.JPG,,,,,,,,,,,,,,,,,3,1,31,7,,,,,,,AFSA14.jpg,AFNE01.jpg,AFNE06.jpg,AFSA20.jpg,AFSA14.jpg,FS,4,num_8,32,num_4,1.16673450312,,,2017_Oct_13_1146,59.9957857633,FEMA4ImagesEEG,001,101751,
AFNE01.JPG,AFNE01.JPG,AFNE01.JPG,AFNE01.JPG,AFNE01.JPG,AFNE01.JPG,,,,,,,,,,,,,,,,,3,2,32,8,,,,,,,AFNE19.jpg,AFSA10.jpg,AFNE03.jpg,AFSA03.jpg,AFNE03.jpg,FN,3,num_2,16,num_2,1.03336017928,,,2017_Oct_13_1146,59.9957857633,FEMA4ImagesEEG,001,101751,
AFNE01.JPG,AFNE01.JPG,AFNE01.JPG,AFNE01.JPG,AFNE01.JPG,AFNE01.JPG,,,,,,,,,,,,,,,,,3,3,33,0,,,,,,,AFNE07.jpg,AFSA14.jpg,AFSA02.jpg,AFNE16.jpg,AFNE16.jpg,FN,3,num_4,16,num_4,1.11673176091,,,2017_Oct_13_1146,59.9957857633,FEMA4ImagesEEG,001,101751,
AFNE01.JPG,AFNE01.JPG,AFNE01.JPG,AFNE01.JPG,AFNE01.JPG,AFNE01.JPG,,,,,,,,,,,,,,,,,3,4,34,1,,,,,,,AFNE13.jpg,AFSA04.jpg,AFSA03.jpg,AFNE02.jpg,AFNE02.jpg,FN,3,num_4,16,num_4,2.33340068883,,,2017_Oct_13_1146,59.9957857633,FEMA4ImagesEEG,001,101751,
AFNE01.JPG,AFNE01.JPG,AFNE01.JPG,AFNE01.JPG,AFNE01.JPG,AFNE01.JPG,,,,,,,,,,,,,,,,,3,5,35,4,,,,,,,AFNE02.jpg,AFNE13.jpg,AFSA10.jpg,AFSA17.jpg,AFNE13.jpg,FN,3,num_6,32,num_8,1.18347425049,,,2017_Oct_13_1146,59.9957857633,FEMA4ImagesEEG,001,101751,
AFNE01.JPG,AFNE01.JPG,AFNE01.JPG,AFNE01.JPG,AFNE01.JPG,AFNE01.JPG,,,,,,,,,,,,,,,,,3,6,36,6,,,,,,,AFSA11.jpg,AFNE19.jpg,AFNE02.jpg,AFSA01.jpg,AFNE02.jpg,FN,3,num_2,32,num_6,1.73339728883,,,2017_Oct_13_1146,59.9957857633,FEMA4ImagesEEG,001,101751,
AFNE01.JPG,AFNE01.JPG,AFNE01.JPG,AFNE01.JPG,AFNE01.JPG,AFNE01.JPG,,,,,,,,,,,,,,,,,3,7,37,2,,,,,,,AFSA12.jpg,AFNE10.jpg,AFNE17.jpg,AFSA02.jpg,AFSA12.jpg,FS,4,num_8,16,num_8,0.750118433265,,,2017_Oct_13_1146,59.9957857633,FEMA4ImagesEEG,001,101751,
AFNE01.JPG,AFNE01.JPG,AFNE01.JPG,AFNE01.JPG,AFNE01.JPG,AFNE01.JPG,,,,,,,,,,,,,,,,,3,8,38,5,,,,,,,AFNE20.jpg,AFSA04.jpg,AFSA18.jpg,AFNE09.jpg,AFSA04.jpg,FS,4,num_6,32,num_2,1.1667899912,,,2017_Oct_13_1146,59.9957857633,FEMA4ImagesEEG,001,101751,
AFNE01.JPG,AFNE01.JPG,AFNE01.JPG,AFNE01.JPG,AFNE01.JPG,AFNE01.JPG,,,,,,,,,,,,,,,,,3,9,39,3,,,,,,,AFNE10.jpg,AFNE12.jpg,AFSA18.jpg,AFSA06.jpg,AFNE10.jpg,FN,3,num_8,16,num_8,0.983439546428,,,2017_Oct_13_1146,59.9957857633,FEMA4ImagesEEG,001,101751,
AFNE01.JPG,AFNE01.JPG,AFNE01.JPG,AFNE01.JPG,AFNE01.JPG,AFNE01.JPG,,,,,,,,,,,,,,,,,4,0,40,2,,,,,,,AFSA19.jpg,AFNE01.jpg,AFSA13.jpg,AFNE07.jpg,AFNE07.jpg,FN,3,num_4,32,num_6,0.91676890268,,,2017_Oct_13_1146,59.9957857633,FEMA4ImagesEEG,001,101751,
AFNE01.JPG,AFNE01.JPG,AFNE01.JPG,AFNE01.JPG,AFNE01.JPG,AFNE01.JPG,,,,,,,,,,,,,,,,,4,1,41,0,,,,,,,AFSA18.jpg,AFNE05.jpg,AFSA10.jpg,AFNE04.jpg,AFSA18.jpg,FS,4,num_8,16,num_8,0.86673793511,,,2017_Oct_13_1146,59.9957857633,FEMA4ImagesEEG,001,101751,
AFNE01.JPG,AFNE01.JPG,AFNE01.JPG,AFNE01.JPG,AFNE01.JPG,AFNE01.JPG,,,,,,,,,,,,,,,,,4,2,42,4,,,,,,,AFSA04.jpg,AFNE15.jpg,AFNE16.jpg,AFSA14.jpg,AFNE16.jpg,FN,3,num_2,32,num_4,1.16676048317,,,2017_Oct_13_1146,59.9957857633,FEMA4ImagesEEG,001,101751,
AFNE01.JPG,AFNE01.JPG,AFNE01.JPG,AFNE01.JPG,AFNE01.JPG,AFNE01.JPG,,,,,,,,,,,,,,,,,4,3,43,6,,,,,,,AFNE15.jpg,AFSA15.jpg,AFNE20.jpg,AFSA04.jpg,AFSA15.jpg,FS,4,num_6,16,num_6,1.55008437065,,,2017_Oct_13_1146,59.9957857633,FEMA4ImagesEEG,001,101751,
AFNE01.JPG,AFNE01.JPG,AFNE01.JPG,AFNE01.JPG,AFNE01.JPG,AFNE01.JPG,,,,,,,,,,,,,,,,,4,4,44,3,,,,,,,AFNE16.jpg,AFNE10.jpg,AFSA14.jpg,AFSA09.jpg,AFNE16.jpg,FN,3,num_8,32,num_4,1.30009792186,,,2017_Oct_13_1146,59.9957857633,FEMA4ImagesEEG,001,101751,
AFNE01.JPG,AFNE01.JPG,AFNE01.JPG,AFNE01.JPG,AFNE01.JPG,AFNE01.JPG,,,,,,,,,,,,,,,,,4,5,45,8,,,,,,,AFSA04.jpg,AFSA14.jpg,AFNE14.jpg,AFNE07.jpg,AFNE07.jpg,FN,3,num_4,16,num_4,1.94977883366,,,2017_Oct_13_1146,59.9957857633,FEMA4ImagesEEG,001,101751,
AFNE01.JPG,AFNE01.JPG,AFNE01.JPG,AFNE01.JPG,AFNE01.JPG,AFNE01.JPG,,,,,,,,,,,,,,,,,4,6,46,7,,,,,,,AFSA18.jpg,AFNE10.jpg,AFNE14.jpg,AFSA16.jpg,AFSA18.jpg,FS,4,num_8,32,num_4,1.44986334862,,,2017_Oct_13_1146,59.9957857633,FEMA4ImagesEEG,001,101751,
AFNE01.JPG,AFNE01.JPG,AFNE01.JPG,AFNE01.JPG,AFNE01.JPG,AFNE01.JPG,,,,,,,,,,,,,,,,,4,7,47,5,,,,,,,AFNE05.jpg,AFNE04.jpg,AFSA17.jpg,AFSA14.jpg,AFSA17.jpg,FS,4,num_2,16,num_2,1.35009232513,,,2017_Oct_13_1146,59.9957857633,FEMA4ImagesEEG,001,101751,
AFNE01.JPG,AFNE01.JPG,AFNE01.JPG,AFNE01.JPG,AFNE01.JPG,AFNE01.JPG,,,,,,,,,,,,,,,,,4,8,48,1,,,,,,,AFSA20.jpg,AFSA16.jpg,AFNE11.jpg,AFNE13.jpg,AFSA20.jpg,FS,4,num_8,32,num_2,2.26664119994,,,2017_Oct_13_1146,59.9957857633,FEMA4ImagesEEG,001,101751,
AFNE01.JPG,AFNE01.JPG,AFNE01.JPG,AFNE01.JPG,AFNE01.JPG,AFNE01.JPG,,,,,,,,,,,,,,,,,4,9,49,9,,,,,,,AFSA16.jpg,AFNE19.jpg,AFNE11.jpg,AFSA02.jpg,AFSA16.jpg,FS,4,num_8,32,num_4,1.55012446328,,,2017_Oct_13_1146,59.9957857633,FEMA4ImagesEEG,001,101751,
AFNE01.JPG,AFNE01.JPG,AFNE01.JPG,AFNE01.JPG,AFNE01.JPG,AFNE01.JPG,,,,,,,,,,,,,,,,,5,0,50,6,,,,,,,AFNE05.jpg,AFSA05.jpg,AFSA19.jpg,AFNE08.jpg,AFNE08.jpg,FN,3,num_4,16,num_4,0.733339234954,,,2017_Oct_13_1146,59.9957857633,FEMA4ImagesEEG,001,101751,
AFNE01.JPG,AFNE01.JPG,AFNE01.JPG,AFNE01.JPG,AFNE01.JPG,AFNE01.JPG,,,,,,,,,,,,,,,,,5,1,51,9,,,,,,,AFSA02.jpg,AFNE09.jpg,AFNE19.jpg,AFSA10.jpg,AFNE19.jpg,FN,3,num_2,16,num_2,1.23349046393,,,2017_Oct_13_1146,59.9957857633,FEMA4ImagesEEG,001,101751,
AFNE01.JPG,AFNE01.JPG,AFNE01.JPG,AFNE01.JPG,AFNE01.JPG,AFNE01.JPG,,,,,,,,,,,,,,,,,5,2,52,5,,,,,,,AFNE11.jpg,AFSA16.jpg,AFNE15.jpg,AFSA13.jpg,AFSA13.jpg,FS,4,num_4,32,num_6,2.26663061546,,,2017_Oct_13_1146,59.9957857633,FEMA4ImagesEEG,001,101751,
AFNE01.JPG,AFNE01.JPG,AFNE01.JPG,AFNE01.JPG,AFNE01.JPG,AFNE01.JPG,,,,,,,,,,,,,,,,,5,3,53,4,,,,,,,AFNE06.jpg,AFSA01.jpg,AFNE11.jpg,AFSA09.jpg,AFSA01.jpg,FS,4,num_6,32,num_4,1.15008841199,,,2017_Oct_13_1146,59.9957857633,FEMA4ImagesEEG,001,101751,
AFNE01.JPG,AFNE01.JPG,AFNE01.JPG,AFNE01.JPG,AFNE01.JPG,AFNE01.JPG,,,,,,,,,,,,,,,,,5,4,54,2,,,,,,,AFSA13.jpg,AFNE13.jpg,AFSA07.jpg,AFNE01.jpg,AFNE13.jpg,FN,3,num_6,16,num_6,0.766783127445,,,2017_Oct_13_1146,59.9957857633,FEMA4ImagesEEG,001,101751,
AFNE01.JPG,AFNE01.JPG,AFNE01.JPG,AFNE01.JPG,AFNE01.JPG,AFNE01.JPG,,,,,,,,,,,,,,,,,5,5,55,8,,,,,,,AFSA18.jpg,AFSA14.jpg,AFNE13.jpg,AFNE20.jpg,AFNE13.jpg,FN,3,num_2,32,num_4,0.866825497127,,,2017_Oct_13_1146,59.9957857633,FEMA4ImagesEEG,001,101751,
AFNE01.JPG,AFNE01.JPG,AFNE01.JPG,AFNE01.JPG,AFNE01.JPG,AFNE01.JPG,,,,,,,,,,,,,,,,,5,6,56,3,,,,,,,AFNE03.jpg,AFSA14.jpg,AFNE11.jpg,AFSA06.jpg,AFNE11.jpg,FN,3,num_2,16,num_2,1.20009115431,,,2017_Oct_13_1146,59.9957857633,FEMA4ImagesEEG,001,101751,
AFNE01.JPG,AFNE01.JPG,AFNE01.JPG,AFNE01.JPG,AFNE01.JPG,AFNE01.JPG,,,,,,,,,,,,,,,,,5,7,57,1,,,,,,,AFNE18.jpg,AFSA01.jpg,AFNE20.jpg,AFSA15.jpg,AFSA01.jpg,FS,4,num_6,16,num_6,1.04995751788,,,2017_Oct_13_1146,59.9957857633,FEMA4ImagesEEG,001,101751,
AFNE01.JPG,AFNE01.JPG,AFNE01.JPG,AFNE01.JPG,AFNE01.JPG,AFNE01.JPG,,,,,,,,,,,,,,,,,5,8,58,0,,,,,,,AFSA02.jpg,AFSA01.jpg,AFNE10.jpg,AFNE18.jpg,AFNE10.jpg,FN,3,num_2,16,num_2,0.900102925603,,,2017_Oct_13_1146,59.9957857633,FEMA4ImagesEEG,001,101751,
AFNE01.JPG,AFNE01.JPG,AFNE01.JPG,AFNE01.JPG,AFNE01.JPG,AFNE01.JPG,,,,,,,,,,,,,,,,,5,9,59,7,,,,,,,AFSA18.jpg,AFSA14.jpg,AFNE10.jpg,AFNE04.jpg,AFSA14.jpg,FS,4,num_6,16,num_6,1.43327402847,,,2017_Oct_13_1146,59.9957857633,FEMA4ImagesEEG,001,101751,
,,,,,,,,,,,,,,,,,,,,,,,,,,,,,,,,,,,,,,,,,,,space,28.8480153725,2017_Oct_13_1146,59.9957857633,FEMA4ImagesEEG,001,101751,
AFNE01.JPG,AFNE01.JPG,AFNE01.JPG,AFNE01.JPG,AFNE01.JPG,AFNE01.JPG,,,,,,,,,,,,,,,,,,,,,0,0,0,0,,,AMSA02.jpg,AMSA10.jpg,AMNE11.jpg,AMNE06.jpg,AMNE11.jpg,MN,1,num_2,32,num_8,1.28342392645,,,2017_Oct_13_1146,59.9957857633,FEMA4ImagesEEG,001,101751,
AFNE01.JPG,AFNE01.JPG,AFNE01.JPG,AFNE01.JPG,AFNE01.JPG,AFNE01.JPG,,,,,,,,,,,,,,,,,,,,,0,1,1,1,,,AMSA07.jpg,AMNE01.jpg,AMNE10.jpg,AMSA08.jpg,AMSA08.jpg,MS,2,num_4,16,num_4,1.01676476502,,,2017_Oct_13_1146,59.9957857633,FEMA4ImagesEEG,001,101751,
AFNE01.JPG,AFNE01.JPG,AFNE01.JPG,AFNE01.JPG,AFNE01.JPG,AFNE01.JPG,,,,,,,,,,,,,,,,,,,,,0,2,2,4,,,AMSA19.jpg,AMSA07.jpg,AMNE04.jpg,AMNE17.jpg,AMSA07.jpg,MS,2,num_6,16,num_6,1.93323056831,,,2017_Oct_13_1146,59.9957857633,FEMA4ImagesEEG,001,101751,
AFNE01.JPG,AFNE01.JPG,AFNE01.JPG,AFNE01.JPG,AFNE01.JPG,AFNE01.JPG,,,,,,,,,,,,,,,,,,,,,0,3,3,7,,,AMNE14.jpg,AMSA09.jpg,AMNE16.jpg,AMSA06.jpg,AMSA09.jpg,MS,2,num_6,32,num_4,1.83341656544,,,2017_Oct_13_1146,59.9957857633,FEMA4ImagesEEG,001,101751,
AFNE01.JPG,AFNE01.JPG,AFNE01.JPG,AFNE01.JPG,AFNE01.JPG,AFNE01.JPG,,,,,,,,,,,,,,,,,,,,,0,4,4,8,,,AMNE16.jpg,AMSA18.jpg,AMNE02.jpg,AMSA14.jpg,AMNE02.jpg,MN,1,num_2,16,num_2,2.0500434764,,,2017_Oct_13_1146,59.9957857633,FEMA4ImagesEEG,001,101751,
AFNE01.JPG,AFNE01.JPG,AFNE01.JPG,AFNE01.JPG,AFNE01.JPG,AFNE01.JPG,,,,,,,,,,,,,,,,,,,,,0,5,5,2,,,AMNE10.jpg,AMNE03.jpg,AMSA09.jpg,AMSA18.jpg,AMNE03.jpg,MN,1,num_6,16,num_6,1.06675179105,,,2017_Oct_13_1146,59.9957857633,FEMA4ImagesEEG,001,101751,
AFNE01.JPG,AFNE01.JPG,AFNE01.JPG,AFNE01.JPG,AFNE01.JPG,AFNE01.JPG,,,,,,,,,,,,,,,,,,,,,0,6,6,6,,,AMNE16.jpg,AMNE01.jpg,AMSA12.jpg,AMSA04.jpg,AMSA12.jpg,MS,2,num_2,32,num_8,1.28339345602,,,2017_Oct_13_1146,59.9957857633,FEMA4ImagesEEG,001,101751,
AFNE01.JPG,AFNE01.JPG,AFNE01.JPG,AFNE01.JPG,AFNE01.JPG,AFNE01.JPG,,,,,,,,,,,,,,,,,,,,,0,7,7,3,,,AMSA18.jpg,AMNE14.jpg,AMNE11.jpg,AMSA02.jpg,AMSA02.jpg,MS,2,num_4,16,num_4,1.68340641388,,,2017_Oct_13_1146,59.9957857633,FEMA4ImagesEEG,001,101751,
AFNE01.JPG,AFNE01.JPG,AFNE01.JPG,AFNE01.JPG,AFNE01.JPG,AFNE01.JPG,,,,,,,,,,,,,,,,,,,,,0,8,8,5,,,AMNE10.jpg,AMNE02.jpg,AMSA01.jpg,AMSA10.jpg,AMSA10.jpg,MS,2,num_4,16,num_4,2.11659929529,,,2017_Oct_13_1146,59.9957857633,FEMA4ImagesEEG,001,101751,
AFNE01.JPG,AFNE01.JPG,AFNE01.JPG,AFNE01.JPG,AFNE01.JPG,AFNE01.JPG,,,,,,,,,,,,,,,,,,,,,0,9,9,9,,,AMSA07.jpg,AMSA02.jpg,AMNE04.jpg,AMNE16.jpg,AMSA02.jpg,MS,2,num_6,16,num_6,0.450179919135,,,2017_Oct_13_1146,59.9957857633,FEMA4ImagesEEG,001,101751,
AFNE01.JPG,AFNE01.JPG,AFNE01.JPG,AFNE01.JPG,AFNE01.JPG,AFNE01.JPG,,,,,,,,,,,,,,,,,,,,,1,0,10,2,,,AMNE17.jpg,AMSA11.jpg,AMNE08.jpg,AMSA04.jpg,AMSA11.jpg,MS,2,num_6,32,num_8,1.83342554606,,,2017_Oct_13_1146,59.9957857633,FEMA4ImagesEEG,001,101751,
AFNE01.JPG,AFNE01.JPG,AFNE01.JPG,AFNE01.JPG,AFNE01.JPG,AFNE01.JPG,,,,,,,,,,,,,,,,,,,,,1,1,11,9,,,AMSA10.jpg,AMNE20.jpg,AMSA19.jpg,AMNE11.jpg,AMSA19.jpg,MS,2,num_2,16,num_2,0.916760242544,,,2017_Oct_13_1146,59.9957857633,FEMA4ImagesEEG,001,101751,
AFNE01.JPG,AFNE01.JPG,AFNE01.JPG,AFNE01.JPG,AFNE01.JPG,AFNE01.JPG,,,,,,,,,,,,,,,,,,,,,1,2,12,1,,,AMNE01.jpg,AMNE11.jpg,AMSA05.jpg,AMSA20.jpg,AMSA05.jpg,MS,2,num_2,16,num_2,1.11711664905,,,2017_Oct_13_1146,59.9957857633,FEMA4ImagesEEG,001,101751,
AFNE01.JPG,AFNE01.JPG,AFNE01.JPG,AFNE01.JPG,AFNE01.JPG,AFNE01.JPG,,,,,,,,,,,,,,,,,,,,,1,3,13,7,,,AMSA10.jpg,AMNE13.jpg,AMNE10.jpg,AMSA17.jpg,AMNE13.jpg,MN,1,num_6,16,num_6,1.53343539289,,,2017_Oct_13_1146,59.9957857633,FEMA4ImagesEEG,001,101751,
AFNE01.JPG,AFNE01.JPG,AFNE01.JPG,AFNE01.JPG,AFNE01.JPG,AFNE01.JPG,,,,,,,,,,,,,,,,,,,,,1,4,14,6,,,AMNE20.jpg,AMSA15.jpg,AMNE04.jpg,AMSA04.jpg,AMSA04.jpg,MS,2,num_4,16,num_4,1.36673745397,,,2017_Oct_13_1146,59.9957857633,FEMA4ImagesEEG,001,101751,
AFNE01.JPG,AFNE01.JPG,AFNE01.JPG,AFNE01.JPG,AFNE01.JPG,AFNE01.JPG,,,,,,,,,,,,,,,,,,,,,1,5,15,3,,,AMSA14.jpg,AMNE02.jpg,AMSA17.jpg,AMNE08.jpg,AMNE08.jpg,MN,1,num_4,16,num_4,1.13343494374,,,2017_Oct_13_1146,59.9957857633,FEMA4ImagesEEG,001,101751,
AFNE01.JPG,AFNE01.JPG,AFNE01.JPG,AFNE01.JPG,AFNE01.JPG,AFNE01.JPG,,,,,,,,,,,,,,,,,,,,,1,6,16,4,,,AMSA01.jpg,AMNE07.jpg,AMNE06.jpg,AMSA17.jpg,AMSA17.jpg,MS,2,num_4,16,num_4,0.583454172127,,,2017_Oct_13_1146,59.9957857633,FEMA4ImagesEEG,001,101751,
AFNE01.JPG,AFNE01.JPG,AFNE01.JPG,AFNE01.JPG,AFNE01.JPG,AFNE01.JPG,,,,,,,,,,,,,,,,,,,,,1,7,17,0,,,AMNE16.jpg,AMSA07.jpg,AMSA18.jpg,AMNE15.jpg,AMNE16.jpg,MN,1,num_8,16,num_8,2.7500437008,,,2017_Oct_13_1146,59.9957857633,FEMA4ImagesEEG,001,101751,
AFNE01.JPG,AFNE01.JPG,AFNE01.JPG,AFNE01.JPG,AFNE01.JPG,AFNE01.JPG,,,,,,,,,,,,,,,,,,,,,1,8,18,5,,,AMNE09.jpg,AMSA06.jpg,AMSA18.jpg,AMNE13.jpg,AMSA06.jpg,MS,2,num_6,16,num_6,1.15011118457,,,2017_Oct_13_1146,59.9957857633,FEMA4ImagesEEG,001,101751,
AFNE01.JPG,AFNE01.JPG,AFNE01.JPG,AFNE01.JPG,AFNE01.JPG,AFNE01.JPG,,,,,,,,,,,,,,,,,,,,,1,9,19,8,,,AMNE12.jpg,AMSA17.jpg,AMSA15.jpg,AMNE09.jpg,AMSA17.jpg,MS,2,num_6,16,num_6,0.483505458455,,,2017_Oct_13_1146,59.9957857633,FEMA4ImagesEEG,001,101751,
AFNE01.JPG,AFNE01.JPG,AFNE01.JPG,AFNE01.JPG,AFNE01.JPG,AFNE01.JPG,,,,,,,,,,,,,,,,,,,,,2,0,20,0,,,AMSA08.jpg,AMNE07.jpg,AMNE12.jpg,AMSA11.jpg,AMNE07.jpg,MN,1,num_6,16,num_6,1.41627351951,,,2017_Oct_13_1146,59.9957857633,FEMA4ImagesEEG,001,101751,
AFNE01.JPG,AFNE01.JPG,AFNE01.JPG,AFNE01.JPG,AFNE01.JPG,AFNE01.JPG,,,,,,,,,,,,,,,,,,,,,2,1,21,8,,,AMSA17.jpg,AMSA12.jpg,AMNE09.jpg,AMNE02.jpg,AMSA17.jpg,MS,2,num_8,16,num_8,0.566792043974,,,2017_Oct_13_1146,59.9957857633,FEMA4ImagesEEG,001,101751,
AFNE01.JPG,AFNE01.JPG,AFNE01.JPG,AFNE01.JPG,AFNE01.JPG,AFNE01.JPG,,,,,,,,,,,,,,,,,,,,,2,2,22,3,,,AMNE07.jpg,AMSA10.jpg,AMSA03.jpg,AMNE13.jpg,AMSA03.jpg,MS,2,num_2,16,num_2,1.31674722058,,,2017_Oct_13_1146,59.9957857633,FEMA4ImagesEEG,001,101751,
AFNE01.JPG,AFNE01.JPG,AFNE01.JPG,AFNE01.JPG,AFNE01.JPG,AFNE01.JPG,,,,,,,,,,,,,,,,,,,,,2,3,23,7,,,AMSA10.jpg,AMSA19.jpg,AMNE07.jpg,AMNE09.jpg,AMSA10.jpg,MS,2,num_8,32,num_4,1.50032763602,,,2017_Oct_13_1146,59.9957857633,FEMA4ImagesEEG,001,101751,
AFNE01.JPG,AFNE01.JPG,AFNE01.JPG,AFNE01.JPG,AFNE01.JPG,AFNE01.JPG,,,,,,,,,,,,,,,,,,,,,2,4,24,5,,,AMNE09.jpg,AMSA13.jpg,AMNE07.jpg,AMSA07.jpg,AMNE07.jpg,MN,1,num_2,16,num_2,0.783464179258,,,2017_Oct_13_1146,59.9957857633,FEMA4ImagesEEG,001,101751,
AFNE01.JPG,AFNE01.JPG,AFNE01.JPG,AFNE01.JPG,AFNE01.JPG,AFNE01.JPG,,,,,,,,,,,,,,,,,,,,,2,5,25,6,,,AMNE16.jpg,AMSA05.jpg,AMNE14.jpg,AMSA11.jpg,AMNE14.jpg,MN,1,num_2,16,num_2,1.25009068928,,,2017_Oct_13_1146,59.9957857633,FEMA4ImagesEEG,001,101751,
AFNE01.JPG,AFNE01.JPG,AFNE01.JPG,AFNE01.JPG,AFNE01.JPG,AFNE01.JPG,,,,,,,,,,,,,,,,,,,,,2,6,26,2,,,AMNE19.jpg,AMNE04.jpg,AMSA20.jpg,AMSA06.jpg,AMNE19.jpg,MN,1,num_8,16,num_8,0.700184329296,,,2017_Oct_13_1146,59.9957857633,FEMA4ImagesEEG,001,101751,
AFNE01.JPG,AFNE01.JPG,AFNE01.JPG,AFNE01.JPG,AFNE01.JPG,AFNE01.JPG,,,,,,,,,,,,,,,,,,,,,2,7,27,9,,,AMSA10.jpg,AMSA04.jpg,AMNE03.jpg,AMNE13.jpg,AMSA04.jpg,MS,2,num_6,16,num_6,0.83343131945,,,2017_Oct_13_1146,59.9957857633,FEMA4ImagesEEG,001,101751,
AFNE01.JPG,AFNE01.JPG,AFNE01.JPG,AFNE01.JPG,AFNE01.JPG,AFNE01.JPG,,,,,,,,,,,,,,,,,,,,,2,8,28,1,,,AMSA11.jpg,AMNE09.jpg,AMNE13.jpg,AMSA03.jpg,AMNE09.jpg,MN,1,num_6,32,num_8,1.15006563952,,,2017_Oct_13_1146,59.9957857633,FEMA4ImagesEEG,001,101751,
AFNE01.JPG,AFNE01.JPG,AFNE01.JPG,AFNE01.JPG,AFNE01.JPG,AFNE01.JPG,,,,,,,,,,,,,,,,,,,,,2,9,29,4,,,AMNE11.jpg,AMSA02.jpg,AMNE15.jpg,AMSA06.jpg,AMNE11.jpg,MN,1,num_8,16,num_8,1.73342166515,,,2017_Oct_13_1146,59.9957857633,FEMA4ImagesEEG,001,101751,
AFNE01.JPG,AFNE01.JPG,AFNE01.JPG,AFNE01.JPG,AFNE01.JPG,AFNE01.JPG,,,,,,,,,,,,,,,,,,,,,3,0,30,1,,,AMSA12.jpg,AMSA08.jpg,AMNE07.jpg,AMNE20.jpg,AMSA12.jpg,MS,2,num_8,32,num_6,2.03342368582,,,2017_Oct_13_1146,59.9957857633,FEMA4ImagesEEG,001,101751,
AFNE01.JPG,AFNE01.JPG,AFNE01.JPG,AFNE01.JPG,AFNE01.JPG,AFNE01.JPG,,,,,,,,,,,,,,,,,,,,,3,1,31,9,,,AMNE12.jpg,AMSA20.jpg,AMSA04.jpg,AMNE05.jpg,AMSA20.jpg,MS,2,num_6,32,num_2,2.33336476586,,,2017_Oct_13_1146,59.9957857633,FEMA4ImagesEEG,001,101751,
AFNE01.JPG,AFNE01.JPG,AFNE01.JPG,AFNE01.JPG,AFNE01.JPG,AFNE01.JPG,,,,,,,,,,,,,,,,,,,,,3,2,32,6,,,AMNE14.jpg,AMSA20.jpg,AMNE01.jpg,AMSA16.jpg,AMSA20.jpg,MS,2,num_6,16,num_6,2.00005965761,,,2017_Oct_13_1146,59.9957857633,FEMA4ImagesEEG,001,101751,
AFNE01.JPG,AFNE01.JPG,AFNE01.JPG,AFNE01.JPG,AFNE01.JPG,AFNE01.JPG,,,,,,,,,,,,,,,,,,,,,3,3,33,7,,,AMNE09.jpg,AMNE15.jpg,AMSA08.jpg,AMSA17.jpg,AMNE15.jpg,MN,1,num_6,16,num_6,1.61674475076,,,2017_Oct_13_1146,59.9957857633,FEMA4ImagesEEG,001,101751,
AFNE01.JPG,AFNE01.JPG,AFNE01.JPG,AFNE01.JPG,AFNE01.JPG,AFNE01.JPG,,,,,,,,,,,,,,,,,,,,,3,4,34,3,,,AMSA06.jpg,AMSA01.jpg,AMNE11.jpg,AMNE03.jpg,AMNE03.jpg,MN,1,num_4,16,num_4,1.5667461782,,,2017_Oct_13_1146,59.9957857633,FEMA4ImagesEEG,001,101751,
AFNE01.JPG,AFNE01.JPG,AFNE01.JPG,AFNE01.JPG,AFNE01.JPG,AFNE01.JPG,,,,,,,,,,,,,,,,,,,,,3,5,35,5,,,AMNE10.jpg,AMNE18.jpg,AMSA09.jpg,AMSA03.jpg,AMNE18.jpg,MN,1,num_6,16,num_6,3.00000962219,,,2017_Oct_13_1146,59.9957857633,FEMA4ImagesEEG,001,101751,
AFNE01.JPG,AFNE01.JPG,AFNE01.JPG,AFNE01.JPG,AFNE01.JPG,AFNE01.JPG,,,,,,,,,,,,,,,,,,,,,3,6,36,4,,,AMSA18.jpg,AMNE16.jpg,AMNE08.jpg,AMSA19.jpg,AMNE16.jpg,MN,1,num_6,16,num_6,1.51677101944,,,2017_Oct_13_1146,59.9957857633,FEMA4ImagesEEG,001,101751,
AFNE01.JPG,AFNE01.JPG,AFNE01.JPG,AFNE01.JPG,AFNE01.JPG,AFNE01.JPG,,,,,,,,,,,,,,,,,,,,,3,7,37,2,,,AMSA06.jpg,AMNE06.jpg,AMNE15.jpg,AMSA07.jpg,AMSA06.jpg,MS,2,num_8,32,num_2,2.16661743307,,,2017_Oct_13_1146,59.9957857633,FEMA4ImagesEEG,001,101751,
AFNE01.JPG,AFNE01.JPG,AFNE01.JPG,AFNE01.JPG,AFNE01.JPG,AFNE01.JPG,,,,,,,,,,,,,,,,,,,,,3,8,38,0,,,AMSA19.jpg,AMNE14.jpg,AMSA20.jpg,AMNE04.jpg,AMSA20.jpg,MS,2,num_2,16,num_2,0.700020110467,,,2017_Oct_13_1146,59.9957857633,FEMA4ImagesEEG,001,101751,
AFNE01.JPG,AFNE01.JPG,AFNE01.JPG,AFNE01.JPG,AFNE01.JPG,AFNE01.JPG,,,,,,,,,,,,,,,,,,,,,3,9,39,8,,,AMSA14.jpg,AMNE13.jpg,AMSA11.jpg,AMNE05.jpg,AMSA14.jpg,MS,2,num_8,16,num_8,0.933428144082,,,2017_Oct_13_1146,59.9957857633,FEMA4ImagesEEG,001,101751,
