IPosition2,IPosition3,IPosition1,IPosition6,IPosition4,IPosition5,TrialsM1.thisRepN,TrialsM1.thisTrialN,TrialsM1.thisN,TrialsM1.thisIndex,TrialsF1.thisRepN,TrialsF1.thisTrialN,TrialsF1.thisN,TrialsF1.thisIndex,TrialsM2.thisRepN,TrialsM2.thisTrialN,TrialsM2.thisN,TrialsM2.thisIndex,TrialsF2.thisRepN,TrialsF2.thisTrialN,TrialsF2.thisN,TrialsF2.thisIndex,TrialsM3.thisRepN,TrialsM3.thisTrialN,TrialsM3.thisN,TrialsM3.thisIndex,TrialsF3.thisRepN,TrialsF3.thisTrialN,TrialsF3.thisN,TrialsF3.thisIndex,InstrKey_resp.keys,InstrKey_resp.rt,Image0 _Position,Image1 _Position,Image2 _Position,Image3 _Position,Center_image,condition,code,correct_answer,accuracy,Key_Resp.keys,Key_Resp.rt,BreakKey_resp.keys,BreakKey_resp.rt,date,frameRate,expName,session,participant,
,,,,,,,,,,,,,,,,,,,,,,,,,,,,,,space,9.34952298018,,,,,,,,,,,,,,2017_Oct_18_1834,60.028938241,MAFE4ImagesEEG,001,101846,
AFNE22.JPG,AFSA24.JPG,AFSA22.JPG,AFNE25.JPG,AFNE24.JPG,AFSA25.JPG,0,0,0,6,,,,,,,,,,,,,,,,,,,,,,,AMNE03.jpg,AMNE16.jpg,AMSA08.jpg,AMSA20.jpg,AMNE03.jpg,MN,1,num_8,16,num_8,1.96668286402,,,2017_Oct_18_1834,60.028938241,MAFE4ImagesEEG,001,101846,
AFSA21.JPG,AFNE22.JPG,AFNE21.JPG,AFSA23.JPG,AFSA22.JPG,AFNE23.JPG,0,1,1,0,,,,,,,,,,,,,,,,,,,,,,,AMNE14.jpg,AMNE06.jpg,AMSA01.jpg,AMSA12.jpg,AMNE14.jpg,MN,1,num_8,32,num_2,2.18332218764,,,2017_Oct_18_1834,60.028938241,MAFE4ImagesEEG,001,101846,
AFSA21.JPG,AFNE23.JPG,AFNE21.JPG,AFSA25.JPG,AFNE25.JPG,AFSA23.JPG,0,2,2,4,,,,,,,,,,,,,,,,,,,,,,,AMSA05.jpg,AMSA07.jpg,AMNE02.jpg,AMNE11.jpg,AMNE11.jpg,MN,1,num_4,32,num_8,1.93337053912,,,2017_Oct_18_1834,60.028938241,MAFE4ImagesEEG,001,101846,
AMNE23.JPG,AMNE24.JPG,AMNE22.JPG,AMSA24.JPG,AMSA22.JPG,AMSA23.JPG,0,3,3,9,,,,,,,,,,,,,,,,,,,,,,,AMNE09.jpg,AMSA02.jpg,AMSA12.jpg,AMNE17.jpg,AMSA02.jpg,MS,2,num_6,16,num_6,1.45007609544,,,2017_Oct_18_1834,60.028938241,MAFE4ImagesEEG,001,101846,
AMSA25.JPG,AMNE24.JPG,AMSA24.JPG,AMNE26.JPG,AMSA21.JPG,AMNE25.JPG,0,4,4,3,,,,,,,,,,,,,,,,,,,,,,,AMSA07.jpg,AMNE09.jpg,AMNE15.jpg,AMSA13.jpg,AMNE09.jpg,MN,1,num_6,32,num_8,1.33339780197,,,2017_Oct_18_1834,60.028938241,MAFE4ImagesEEG,001,101846,
AMNE22.JPG,AMSA24.JPG,AMSA22.JPG,AMNE25.JPG,AMNE24.JPG,AMSA25.JPG,0,5,5,7,,,,,,,,,,,,,,,,,,,,,,,AMSA06.jpg,AMNE01.jpg,AMSA02.jpg,AMNE03.jpg,AMSA06.jpg,MS,2,num_8,32,num_6,1.3500736899,,,2017_Oct_18_1834,60.028938241,MAFE4ImagesEEG,001,101846,
AFSA25.JPG,AFNE24.JPG,AFSA24.JPG,AFNE21.JPG,AFSA21.JPG,AFNE25.JPG,0,6,6,2,,,,,,,,,,,,,,,,,,,,,,,AMSA08.jpg,AMSA17.jpg,AMNE05.jpg,AMNE06.jpg,AMSA08.jpg,MS,2,num_8,16,num_8,0.916759761312,,,2017_Oct_18_1834,60.028938241,MAFE4ImagesEEG,001,101846,
AMSA21.JPG,AMNE22.JPG,AMNE21.JPG,AMSA23.JPG,AMSA22.JPG,AMNE23.JPG,0,7,7,1,,,,,,,,,,,,,,,,,,,,,,,AMNE10.jpg,AMSA07.jpg,AMSA16.jpg,AMNE01.jpg,AMSA16.jpg,MS,2,num_2,32,num_6,1.06675968113,,,2017_Oct_18_1834,60.028938241,MAFE4ImagesEEG,001,101846,
AMSA21.JPG,AMNE23.JPG,AMNE21.JPG,AMSA25.JPG,AMNE25.JPG,AMSA23.JPG,0,8,8,5,,,,,,,,,,,,,,,,,,,,,,,AMSA20.jpg,AMSA15.jpg,AMNE12.jpg,AMNE11.jpg,AMSA15.jpg,MS,2,num_6,16,num_6,1.2167852601,,,2017_Oct_18_1834,60.028938241,MAFE4ImagesEEG,001,101846,
AFNE23.JPG,AFNE24.JPG,AFNE22.JPG,AFSA24.JPG,AFSA22.JPG,AFSA23.JPG,0,9,9,8,,,,,,,,,,,,,,,,,,,,,,,AMSA11.jpg,AMNE15.jpg,AMNE08.jpg,AMSA14.jpg,AMSA14.jpg,MS,2,num_4,32,num_8,0.900097344434,,,2017_Oct_18_1834,60.028938241,MAFE4ImagesEEG,001,101846,
AMSA21.JPG,AMNE23.JPG,AMNE21.JPG,AMSA25.JPG,AMNE25.JPG,AMSA23.JPG,,,,,0,0,0,5,,,,,,,,,,,,,,,,,,,AFNE07.jpg,AFSA02.jpg,AFSA08.jpg,AFNE01.jpg,AFNE07.jpg,FN,3,num_8,32,num_6,1.41672913068,,,2017_Oct_18_1834,60.028938241,MAFE4ImagesEEG,001,101846,
AMSA21.JPG,AMNE22.JPG,AMNE21.JPG,AMSA23.JPG,AMSA22.JPG,AMNE23.JPG,,,,,0,1,1,1,,,,,,,,,,,,,,,,,,,AFSA13.jpg,AFNE17.jpg,AFSA07.jpg,AFNE15.jpg,AFNE15.jpg,FN,3,num_4,32,num_2,2.20000352812,,,2017_Oct_18_1834,60.028938241,MAFE4ImagesEEG,001,101846,
AFSA25.JPG,AFNE24.JPG,AFSA24.JPG,AFNE21.JPG,AFSA21.JPG,AFNE25.JPG,,,,,0,2,2,2,,,,,,,,,,,,,,,,,,,AFSA05.jpg,AFNE16.jpg,AFSA15.jpg,AFNE13.jpg,AFSA05.jpg,FS,4,num_8,16,num_8,1.61672528181,,,2017_Oct_18_1834,60.028938241,MAFE4ImagesEEG,001,101846,
AMNE23.JPG,AMNE24.JPG,AMNE22.JPG,AMSA24.JPG,AMSA22.JPG,AMSA23.JPG,,,,,0,3,3,9,,,,,,,,,,,,,,,,,,,AFNE07.jpg,AFNE17.jpg,AFSA16.jpg,AFSA19.jpg,AFNE07.jpg,FN,3,num_8,16,num_8,1.6165880053,,,2017_Oct_18_1834,60.028938241,MAFE4ImagesEEG,001,101846,
AFSA21.JPG,AFNE23.JPG,AFNE21.JPG,AFSA25.JPG,AFNE25.JPG,AFSA23.JPG,,,,,0,4,4,4,,,,,,,,,,,,,,,,,,,AFSA19.jpg,AFNE07.jpg,AFNE05.jpg,AFSA14.jpg,AFNE07.jpg,FN,3,num_6,16,num_6,1.01691227293,,,2017_Oct_18_1834,60.028938241,MAFE4ImagesEEG,001,101846,
AFSA21.JPG,AFNE22.JPG,AFNE21.JPG,AFSA23.JPG,AFSA22.JPG,AFNE23.JPG,,,,,0,5,5,0,,,,,,,,,,,,,,,,,,,AFSA11.jpg,AFNE19.jpg,AFNE06.jpg,AFSA20.jpg,AFSA11.jpg,FS,4,num_8,32,num_4,1.4166951323,,,2017_Oct_18_1834,60.028938241,MAFE4ImagesEEG,001,101846,
AMSA25.JPG,AMNE24.JPG,AMSA24.JPG,AMNE26.JPG,AMSA21.JPG,AMNE25.JPG,,,,,0,6,6,3,,,,,,,,,,,,,,,,,,,AFNE06.jpg,AFNE14.jpg,AFSA18.jpg,AFSA03.jpg,AFNE14.jpg,FN,3,num_6,16,num_6,2.31665070988,,,2017_Oct_18_1834,60.028938241,MAFE4ImagesEEG,001,101846,
AFNE22.JPG,AFSA24.JPG,AFSA22.JPG,AFNE25.JPG,AFNE24.JPG,AFSA25.JPG,,,,,0,7,7,6,,,,,,,,,,,,,,,,,,,AFSA04.jpg,AFNE15.jpg,AFNE14.jpg,AFSA20.jpg,AFSA20.jpg,FS,4,num_4,16,num_4,1.18327471819,,,2017_Oct_18_1834,60.028938241,MAFE4ImagesEEG,001,101846,
AMNE22.JPG,AMSA24.JPG,AMSA22.JPG,AMNE25.JPG,AMNE24.JPG,AMSA25.JPG,,,,,0,8,8,7,,,,,,,,,,,,,,,,,,,AFNE08.jpg,AFSA05.jpg,AFNE19.jpg,AFSA18.jpg,AFNE19.jpg,FN,3,num_2,32,num_6,1.48363442754,,,2017_Oct_18_1834,60.028938241,MAFE4ImagesEEG,001,101846,
AFNE23.JPG,AFNE24.JPG,AFNE22.JPG,AFSA24.JPG,AFSA22.JPG,AFSA23.JPG,,,,,0,9,9,8,,,,,,,,,,,,,,,,,,,AFSA18.jpg,AFSA02.jpg,AFNE07.jpg,AFNE11.jpg,AFSA02.jpg,FS,4,num_6,16,num_6,2.96700360351,,,2017_Oct_18_1834,60.028938241,MAFE4ImagesEEG,001,101846,
AFNE23.JPG,AFNE24.JPG,AFNE22.JPG,AFSA24.JPG,AFSA22.JPG,AFSA23.JPG,,,,,,,,,0,0,0,8,,,,,,,,,,,,,,,AMNE09.jpg,AMSA09.jpg,AMNE15.jpg,AMSA10.jpg,AMNE09.jpg,MN,1,num_8,16,num_8,1.01678558084,,,2017_Oct_18_1834,60.028938241,MAFE4ImagesEEG,001,101846,
AFSA21.JPG,AFNE23.JPG,AFNE21.JPG,AFSA25.JPG,AFNE25.JPG,AFSA23.JPG,,,,,,,,,0,1,1,4,,,,,,,,,,,,,,,AMNE06.jpg,AMNE09.jpg,AMSA02.jpg,AMSA18.jpg,AMNE06.jpg,MN,1,num_8,16,num_8,0.983476463342,,,2017_Oct_18_1834,60.028938241,MAFE4ImagesEEG,001,101846,
AFSA25.JPG,AFNE24.JPG,AFSA24.JPG,AFNE21.JPG,AFSA21.JPG,AFNE25.JPG,,,,,,,,,0,2,2,2,,,,,,,,,,,,,,,AMNE20.jpg,AMSA14.jpg,AMSA11.jpg,AMNE04.jpg,AMNE04.jpg,MN,1,num_4,16,num_4,1.11674276211,,,2017_Oct_18_1834,60.028938241,MAFE4ImagesEEG,001,101846,
AMSA21.JPG,AMNE22.JPG,AMNE21.JPG,AMSA23.JPG,AMSA22.JPG,AMNE23.JPG,,,,,,,,,0,3,3,1,,,,,,,,,,,,,,,AMNE04.jpg,AMNE15.jpg,AMSA11.jpg,AMSA09.jpg,AMSA09.jpg,MS,2,num_4,32,num_2,2.00011899434,,,2017_Oct_18_1834,60.028938241,MAFE4ImagesEEG,001,101846,
AMNE23.JPG,AMNE24.JPG,AMNE22.JPG,AMSA24.JPG,AMSA22.JPG,AMSA23.JPG,,,,,,,,,0,4,4,9,,,,,,,,,,,,,,,AMSA11.jpg,AMNE07.jpg,AMNE20.jpg,AMSA20.jpg,AMNE07.jpg,MN,1,num_6,32,num_2,2.25007128435,,,2017_Oct_18_1834,60.028938241,MAFE4ImagesEEG,001,101846,
AFSA21.JPG,AFNE22.JPG,AFNE21.JPG,AFSA23.JPG,AFSA22.JPG,AFNE23.JPG,,,,,,,,,0,5,5,0,,,,,,,,,,,,,,,AMSA11.jpg,AMSA12.jpg,AMNE18.jpg,AMNE04.jpg,AMSA12.jpg,MS,2,num_6,16,num_6,2.7166792557,,,2017_Oct_18_1834,60.028938241,MAFE4ImagesEEG,001,101846,
AMSA25.JPG,AMNE24.JPG,AMSA24.JPG,AMNE26.JPG,AMSA21.JPG,AMNE25.JPG,,,,,,,,,0,6,6,3,,,,,,,,,,,,,,,AMSA08.jpg,AMSA11.jpg,AMNE16.jpg,AMNE01.jpg,AMSA08.jpg,MS,2,num_8,32,num_4,1.71676040279,,,2017_Oct_18_1834,60.028938241,MAFE4ImagesEEG,001,101846,
AMNE22.JPG,AMSA24.JPG,AMSA22.JPG,AMNE25.JPG,AMNE24.JPG,AMSA25.JPG,,,,,,,,,0,7,7,7,,,,,,,,,,,,,,,AMNE17.jpg,AMSA20.jpg,AMNE11.jpg,AMSA07.jpg,AMSA20.jpg,MS,2,num_6,16,num_6,1.2501479411,,,2017_Oct_18_1834,60.028938241,MAFE4ImagesEEG,001,101846,
AFNE22.JPG,AFSA24.JPG,AFSA22.JPG,AFNE25.JPG,AFNE24.JPG,AFSA25.JPG,,,,,,,,,0,8,8,6,,,,,,,,,,,,,,,AMSA03.jpg,AMNE05.jpg,AMSA07.jpg,AMNE16.jpg,AMNE05.jpg,MN,1,num_6,16,num_6,1.15012436674,,,2017_Oct_18_1834,60.028938241,MAFE4ImagesEEG,001,101846,
AMSA21.JPG,AMNE23.JPG,AMNE21.JPG,AMSA25.JPG,AMNE25.JPG,AMSA23.JPG,,,,,,,,,0,9,9,5,,,,,,,,,,,,,,,AMNE18.jpg,AMSA15.jpg,AMNE17.jpg,AMSA06.jpg,AMNE17.jpg,MN,1,num_2,32,num_8,1.43360323561,,,2017_Oct_18_1834,60.028938241,MAFE4ImagesEEG,001,101846,
AMNE23.JPG,AMNE24.JPG,AMNE22.JPG,AMSA24.JPG,AMSA22.JPG,AMSA23.JPG,,,,,,,,,,,,,0,0,0,9,,,,,,,,,,,AFNE11.jpg,AFSA11.jpg,AFNE16.jpg,AFSA14.jpg,AFSA11.jpg,FS,4,num_6,32,num_8,2.71659554269,,,2017_Oct_18_1834,60.028938241,MAFE4ImagesEEG,001,101846,
AFNE22.JPG,AFSA24.JPG,AFSA22.JPG,AFNE25.JPG,AFNE24.JPG,AFSA25.JPG,,,,,,,,,,,,,0,1,1,6,,,,,,,,,,,AFSA17.jpg,AFNE10.jpg,AFSA20.jpg,AFNE05.jpg,AFNE05.jpg,FN,3,num_4,32,num_2,2.43333766331,,,2017_Oct_18_1834,60.028938241,MAFE4ImagesEEG,001,101846,
AMSA25.JPG,AMNE24.JPG,AMSA24.JPG,AMNE26.JPG,AMSA21.JPG,AMNE25.JPG,,,,,,,,,,,,,0,2,2,3,,,,,,,,,,,AFSA08.jpg,AFNE20.jpg,AFSA19.jpg,AFNE19.jpg,AFSA19.jpg,FS,4,num_2,32,num_4,1.4166601717,,,2017_Oct_18_1834,60.028938241,MAFE4ImagesEEG,001,101846,
AFSA21.JPG,AFNE23.JPG,AFNE21.JPG,AFSA25.JPG,AFNE25.JPG,AFSA23.JPG,,,,,,,,,,,,,0,3,3,4,,,,,,,,,,,AFNE07.jpg,AFSA03.jpg,AFNE09.jpg,AFSA13.jpg,AFNE07.jpg,FN,3,num_8,16,num_8,1.01671277298,,,2017_Oct_18_1834,60.028938241,MAFE4ImagesEEG,001,101846,
AFNE23.JPG,AFNE24.JPG,AFNE22.JPG,AFSA24.JPG,AFSA22.JPG,AFSA23.JPG,,,,,,,,,,,,,0,4,4,8,,,,,,,,,,,AFNE01.jpg,AFSA08.jpg,AFNE18.jpg,AFSA15.jpg,AFNE01.jpg,FN,3,num_8,32,num_6,0.950134951141,,,2017_Oct_18_1834,60.028938241,MAFE4ImagesEEG,001,101846,
AFSA25.JPG,AFNE24.JPG,AFSA24.JPG,AFNE21.JPG,AFSA21.JPG,AFNE25.JPG,,,,,,,,,,,,,0,5,5,2,,,,,,,,,,,AFNE19.jpg,AFSA14.jpg,AFSA20.jpg,AFNE11.jpg,AFSA20.jpg,FS,4,num_2,16,num_2,1.75023053151,,,2017_Oct_18_1834,60.028938241,MAFE4ImagesEEG,001,101846,
AMSA21.JPG,AMNE23.JPG,AMNE21.JPG,AMSA25.JPG,AMNE25.JPG,AMSA23.JPG,,,,,,,,,,,,,0,6,6,5,,,,,,,,,,,AFNE08.jpg,AFSA08.jpg,AFSA12.jpg,AFNE04.jpg,AFSA12.jpg,FS,4,num_2,32,num_8,2.38300914589,,,2017_Oct_18_1834,60.028938241,MAFE4ImagesEEG,001,101846,
AFSA21.JPG,AFNE22.JPG,AFNE21.JPG,AFSA23.JPG,AFSA22.JPG,AFNE23.JPG,,,,,,,,,,,,,0,7,7,0,,,,,,,,,,,AFSA16.jpg,AFNE20.jpg,AFSA01.jpg,AFNE04.jpg,AFSA01.jpg,FS,4,num_2,32,num_8,1.15009614166,,,2017_Oct_18_1834,60.028938241,MAFE4ImagesEEG,001,101846,
AMNE22.JPG,AMSA24.JPG,AMSA22.JPG,AMNE25.JPG,AMNE24.JPG,AMSA25.JPG,,,,,,,,,,,,,0,8,8,7,,,,,,,,,,,AFSA07.jpg,AFSA06.jpg,AFNE08.jpg,AFNE04.jpg,AFSA07.jpg,FS,4,num_8,32,num_4,2.36694298375,,,2017_Oct_18_1834,60.028938241,MAFE4ImagesEEG,001,101846,
AMSA21.JPG,AMNE22.JPG,AMNE21.JPG,AMSA23.JPG,AMSA22.JPG,AMNE23.JPG,,,,,,,,,,,,,0,9,9,1,,,,,,,,,,,AFSA06.jpg,AFSA08.jpg,AFNE14.jpg,AFNE16.jpg,AFSA08.jpg,FS,4,num_6,16,num_6,1.70006430827,,,2017_Oct_18_1834,60.028938241,MAFE4ImagesEEG,001,101846,
AMSA21.JPG,AMNE22.JPG,AMNE21.JPG,AMSA23.JPG,AMSA22.JPG,AMNE23.JPG,,,,,,,,,,,,,,,,,0,0,0,1,,,,,,,AMSA12.jpg,AMNE16.jpg,AMSA08.jpg,AMNE14.jpg,AMSA08.jpg,MS,2,num_2,32,num_8,1.01674580913,,,2017_Oct_18_1834,60.028938241,MAFE4ImagesEEG,001,101846,
AFNE22.JPG,AFSA24.JPG,AFSA22.JPG,AFNE25.JPG,AFNE24.JPG,AFSA25.JPG,,,,,,,,,,,,,,,,,0,1,1,6,,,,,,,AMNE12.jpg,AMNE10.jpg,AMSA06.jpg,AMSA04.jpg,AMSA04.jpg,MS,2,num_4,16,num_4,1.73349370308,,,2017_Oct_18_1834,60.028938241,MAFE4ImagesEEG,001,101846,
AMNE22.JPG,AMSA24.JPG,AMSA22.JPG,AMNE25.JPG,AMNE24.JPG,AMSA25.JPG,,,,,,,,,,,,,,,,,0,2,2,7,,,,,,,AMNE08.jpg,AMNE01.jpg,AMSA05.jpg,AMSA20.jpg,AMNE08.jpg,MN,1,num_8,32,num_4,2.38321345694,,,2017_Oct_18_1834,60.028938241,MAFE4ImagesEEG,001,101846,
AFNE23.JPG,AFNE24.JPG,AFNE22.JPG,AFSA24.JPG,AFSA22.JPG,AFSA23.JPG,,,,,,,,,,,,,,,,,0,3,3,8,,,,,,,AMSA03.jpg,AMNE14.jpg,AMNE13.jpg,AMSA13.jpg,AMNE13.jpg,MN,1,num_2,32,num_8,1.4500879628,,,2017_Oct_18_1834,60.028938241,MAFE4ImagesEEG,001,101846,
AMSA25.JPG,AMNE24.JPG,AMSA24.JPG,AMNE26.JPG,AMSA21.JPG,AMNE25.JPG,,,,,,,,,,,,,,,,,0,4,4,3,,,,,,,AMSA19.jpg,AMNE03.jpg,AMSA06.jpg,AMNE19.jpg,AMSA19.jpg,MS,2,num_8,32,num_6,1.96667003442,,,2017_Oct_18_1834,60.028938241,MAFE4ImagesEEG,001,101846,
AFSA25.JPG,AFNE24.JPG,AFSA24.JPG,AFNE21.JPG,AFSA21.JPG,AFNE25.JPG,,,,,,,,,,,,,,,,,0,5,5,2,,,,,,,AMSA14.jpg,AMNE14.jpg,AMNE20.jpg,AMSA08.jpg,AMSA08.jpg,MS,2,num_4,32,num_2,2.81651391448,,,2017_Oct_18_1834,60.028938241,MAFE4ImagesEEG,001,101846,
AFSA21.JPG,AFNE23.JPG,AFNE21.JPG,AFSA25.JPG,AFNE25.JPG,AFSA23.JPG,,,,,,,,,,,,,,,,,0,6,6,4,,,,,,,AMNE07.jpg,AMNE03.jpg,AMSA06.jpg,AMSA03.jpg,AMNE03.jpg,MN,1,num_6,32,num_8,1.51680658928,,,2017_Oct_18_1834,60.028938241,MAFE4ImagesEEG,001,101846,
AMNE23.JPG,AMNE24.JPG,AMNE22.JPG,AMSA24.JPG,AMSA22.JPG,AMSA23.JPG,,,,,,,,,,,,,,,,,0,7,7,9,,,,,,,AMNE06.jpg,AMSA08.jpg,AMNE02.jpg,AMSA04.jpg,AMNE02.jpg,MN,1,num_2,16,num_2,1.90005628979,,,2017_Oct_18_1834,60.028938241,MAFE4ImagesEEG,001,101846,
AMSA21.JPG,AMNE23.JPG,AMNE21.JPG,AMSA25.JPG,AMNE25.JPG,AMSA23.JPG,,,,,,,,,,,,,,,,,0,8,8,5,,,,,,,AMNE14.jpg,AMNE20.jpg,AMSA10.jpg,AMSA09.jpg,AMNE20.jpg,MN,1,num_6,16,num_6,1.36669665581,,,2017_Oct_18_1834,60.028938241,MAFE4ImagesEEG,001,101846,
AFSA21.JPG,AFNE22.JPG,AFNE21.JPG,AFSA23.JPG,AFSA22.JPG,AFNE23.JPG,,,,,,,,,,,,,,,,,0,9,9,0,,,,,,,AMSA03.jpg,AMNE17.jpg,AMSA16.jpg,AMNE06.jpg,AMNE17.jpg,MN,1,num_6,32,num_8,2.18336677042,,,2017_Oct_18_1834,60.028938241,MAFE4ImagesEEG,001,101846,
AMSA21.JPG,AMNE22.JPG,AMNE21.JPG,AMSA23.JPG,AMSA22.JPG,AMNE23.JPG,,,,,,,,,,,,,,,,,,,,,0,0,0,1,,,AFSA11.jpg,AFSA01.jpg,AFNE18.jpg,AFNE15.jpg,AFNE18.jpg,FN,3,num_2,32,num_4,1.71665359652,,,2017_Oct_18_1834,60.028938241,MAFE4ImagesEEG,001,101846,
AMNE23.JPG,AMNE24.JPG,AMNE22.JPG,AMSA24.JPG,AMSA22.JPG,AMSA23.JPG,,,,,,,,,,,,,,,,,,,,,0,1,1,9,,,AFNE01.jpg,AFNE20.jpg,AFSA02.jpg,AFSA07.jpg,AFNE20.jpg,FN,3,num_6,16,num_6,2.18337767557,,,2017_Oct_18_1834,60.028938241,MAFE4ImagesEEG,001,101846,
AFSA21.JPG,AFNE22.JPG,AFNE21.JPG,AFSA23.JPG,AFSA22.JPG,AFNE23.JPG,,,,,,,,,,,,,,,,,,,,,0,2,2,0,,,AFSA04.jpg,AFNE16.jpg,AFSA12.jpg,AFNE05.jpg,AFSA12.jpg,FS,4,num_2,16,num_2,0.750150988111,,,2017_Oct_18_1834,60.028938241,MAFE4ImagesEEG,001,101846,
AFNE23.JPG,AFNE24.JPG,AFNE22.JPG,AFSA24.JPG,AFSA22.JPG,AFSA23.JPG,,,,,,,,,,,,,,,,,,,,,0,3,3,8,,,AFSA20.jpg,AFNE14.jpg,AFSA06.jpg,AFNE02.jpg,AFNE02.jpg,FN,3,num_4,16,num_4,1.35018242059,,,2017_Oct_18_1834,60.028938241,MAFE4ImagesEEG,001,101846,
AMSA25.JPG,AMNE24.JPG,AMSA24.JPG,AMNE26.JPG,AMSA21.JPG,AMNE25.JPG,,,,,,,,,,,,,,,,,,,,,0,4,4,3,,,AFNE02.jpg,AFSA07.jpg,AFNE08.jpg,AFSA15.jpg,AFNE08.jpg,FN,3,num_2,32,num_4,1.38338569406,,,2017_Oct_18_1834,60.028938241,MAFE4ImagesEEG,001,101846,
AMSA21.JPG,AMNE23.JPG,AMNE21.JPG,AMSA25.JPG,AMNE25.JPG,AMSA23.JPG,,,,,,,,,,,,,,,,,,,,,0,5,5,5,,,AFSA10.jpg,AFNE04.jpg,AFNE20.jpg,AFSA17.jpg,AFNE20.jpg,FN,3,num_2,32,num_6,1.39977965197,,,2017_Oct_18_1834,60.028938241,MAFE4ImagesEEG,001,101846,
AFSA25.JPG,AFNE24.JPG,AFSA24.JPG,AFNE21.JPG,AFSA21.JPG,AFNE25.JPG,,,,,,,,,,,,,,,,,,,,,0,6,6,2,,,AFNE09.jpg,AFSA17.jpg,AFNE05.jpg,AFSA11.jpg,AFSA17.jpg,FS,4,num_6,32,num_2,1.73340678267,,,2017_Oct_18_1834,60.028938241,MAFE4ImagesEEG,001,101846,
AMNE22.JPG,AMSA24.JPG,AMSA22.JPG,AMNE25.JPG,AMNE24.JPG,AMSA25.JPG,,,,,,,,,,,,,,,,,,,,,0,7,7,7,,,AFNE02.jpg,AFSA18.jpg,AFSA02.jpg,AFNE15.jpg,AFNE15.jpg,FN,3,num_4,32,num_6,1.0333164945,,,2017_Oct_18_1834,60.028938241,MAFE4ImagesEEG,001,101846,
AFNE22.JPG,AFSA24.JPG,AFSA22.JPG,AFNE25.JPG,AFNE24.JPG,AFSA25.JPG,,,,,,,,,,,,,,,,,,,,,0,8,8,6,,,AFSA19.jpg,AFNE16.jpg,AFNE04.jpg,AFSA14.jpg,AFSA19.jpg,FS,4,num_8,32,num_4,1.95003872929,,,2017_Oct_18_1834,60.028938241,MAFE4ImagesEEG,001,101846,
AFSA21.JPG,AFNE23.JPG,AFNE21.JPG,AFSA25.JPG,AFNE25.JPG,AFSA23.JPG,,,,,,,,,,,,,,,,,,,,,0,9,9,4,,,AFNE11.jpg,AFSA07.jpg,AFSA03.jpg,AFNE02.jpg,AFSA07.jpg,FS,4,num_6,32,num_2,0.116840908391,,,2017_Oct_18_1834,60.028938241,MAFE4ImagesEEG,001,101846,
,,,,,,,,,,,,,,,,,,,,,,,,,,,,,,,,,,,,,,,,,,,space,20.0985754355,2017_Oct_18_1834,60.028938241,MAFE4ImagesEEG,001,101846,
AFNE01.JPG,AFNE01.JPG,AFNE01.JPG,AFNE01.JPG,AFNE01.JPG,AFNE01.JPG,0,0,0,0,,,,,,,,,,,,,,,,,,,,,,,AMSA18.jpg,AMSA13.jpg,AMNE19.jpg,AMNE17.jpg,AMSA18.jpg,MS,2,num_8,16,num_8,0.883417286896,,,2017_Oct_18_1834,60.028938241,MAFE4ImagesEEG,001,101846,
AFNE01.JPG,AFNE01.JPG,AFNE01.JPG,AFNE01.JPG,AFNE01.JPG,AFNE01.JPG,0,1,1,4,,,,,,,,,,,,,,,,,,,,,,,AMNE05.jpg,AMSA19.jpg,AMSA02.jpg,AMNE18.jpg,AMSA19.jpg,MS,2,num_6,16,num_6,1.26658904771,,,2017_Oct_18_1834,60.028938241,MAFE4ImagesEEG,001,101846,
AFNE01.JPG,AFNE01.JPG,AFNE01.JPG,AFNE01.JPG,AFNE01.JPG,AFNE01.JPG,0,2,2,6,,,,,,,,,,,,,,,,,,,,,,,AMNE03.jpg,AMSA02.jpg,AMNE02.jpg,AMSA03.jpg,AMSA03.jpg,MS,2,num_4,32,num_2,2.05001964531,,,2017_Oct_18_1834,60.028938241,MAFE4ImagesEEG,001,101846,
AFNE01.JPG,AFNE01.JPG,AFNE01.JPG,AFNE01.JPG,AFNE01.JPG,AFNE01.JPG,0,3,3,7,,,,,,,,,,,,,,,,,,,,,,,AMSA13.jpg,AMNE01.jpg,AMSA20.jpg,AMNE15.jpg,AMNE15.jpg,MN,1,num_4,32,num_8,0.950085877994,,,2017_Oct_18_1834,60.028938241,MAFE4ImagesEEG,001,101846,
AFNE01.JPG,AFNE01.JPG,AFNE01.JPG,AFNE01.JPG,AFNE01.JPG,AFNE01.JPG,0,4,4,1,,,,,,,,,,,,,,,,,,,,,,,AMSA01.jpg,AMSA16.jpg,AMNE10.jpg,AMNE05.jpg,AMSA01.jpg,MS,2,num_8,16,num_8,2.38369328323,,,2017_Oct_18_1834,60.028938241,MAFE4ImagesEEG,001,101846,
AFNE01.JPG,AFNE01.JPG,AFNE01.JPG,AFNE01.JPG,AFNE01.JPG,AFNE01.JPG,0,5,5,8,,,,,,,,,,,,,,,,,,,,,,,AMNE17.jpg,AMSA05.jpg,AMSA13.jpg,AMNE18.jpg,AMNE18.jpg,MN,1,num_4,32,num_6,3.04991348053,,,2017_Oct_18_1834,60.028938241,MAFE4ImagesEEG,001,101846,
AFNE01.JPG,AFNE01.JPG,AFNE01.JPG,AFNE01.JPG,AFNE01.JPG,AFNE01.JPG,0,6,6,2,,,,,,,,,,,,,,,,,,,,,,,AMNE14.jpg,AMSA03.jpg,AMSA13.jpg,AMNE05.jpg,AMSA13.jpg,MS,2,num_2,16,num_2,2.86661149948,,,2017_Oct_18_1834,60.028938241,MAFE4ImagesEEG,001,101846,
AFNE01.JPG,AFNE01.JPG,AFNE01.JPG,AFNE01.JPG,AFNE01.JPG,AFNE01.JPG,0,7,7,5,,,,,,,,,,,,,,,,,,,,,,,AMNE13.jpg,AMSA15.jpg,AMSA06.jpg,AMNE19.jpg,AMSA15.jpg,MS,2,num_6,16,num_6,1.71667668977,,,2017_Oct_18_1834,60.028938241,MAFE4ImagesEEG,001,101846,
AFNE01.JPG,AFNE01.JPG,AFNE01.JPG,AFNE01.JPG,AFNE01.JPG,AFNE01.JPG,0,8,8,3,,,,,,,,,,,,,,,,,,,,,,,AMNE18.jpg,AMNE05.jpg,AMSA03.jpg,AMSA17.jpg,AMNE05.jpg,MN,1,num_6,32,num_8,1.13328971276,,,2017_Oct_18_1834,60.028938241,MAFE4ImagesEEG,001,101846,
AFNE01.JPG,AFNE01.JPG,AFNE01.JPG,AFNE01.JPG,AFNE01.JPG,AFNE01.JPG,0,9,9,9,,,,,,,,,,,,,,,,,,,,,,,AMNE12.jpg,AMSA17.jpg,AMSA04.jpg,AMNE06.jpg,AMNE06.jpg,MN,1,num_4,16,num_4,2.06666313854,,,2017_Oct_18_1834,60.028938241,MAFE4ImagesEEG,001,101846,
AFNE01.JPG,AFNE01.JPG,AFNE01.JPG,AFNE01.JPG,AFNE01.JPG,AFNE01.JPG,1,0,10,8,,,,,,,,,,,,,,,,,,,,,,,AMNE10.jpg,AMSA11.jpg,AMSA16.jpg,AMNE04.jpg,AMNE10.jpg,MN,1,num_8,16,num_8,1.15006535067,,,2017_Oct_18_1834,60.028938241,MAFE4ImagesEEG,001,101846,
AFNE01.JPG,AFNE01.JPG,AFNE01.JPG,AFNE01.JPG,AFNE01.JPG,AFNE01.JPG,1,1,11,9,,,,,,,,,,,,,,,,,,,,,,,AMSA19.jpg,AMNE14.jpg,AMSA13.jpg,AMNE17.jpg,AMNE14.jpg,MN,1,num_6,16,num_6,0.933454893602,,,2017_Oct_18_1834,60.028938241,MAFE4ImagesEEG,001,101846,
AFNE01.JPG,AFNE01.JPG,AFNE01.JPG,AFNE01.JPG,AFNE01.JPG,AFNE01.JPG,1,2,12,0,,,,,,,,,,,,,,,,,,,,,,,AMSA03.jpg,AMSA14.jpg,AMNE20.jpg,AMNE15.jpg,AMSA03.jpg,MS,2,num_8,16,num_8,0.949977147306,,,2017_Oct_18_1834,60.028938241,MAFE4ImagesEEG,001,101846,
AFNE01.JPG,AFNE01.JPG,AFNE01.JPG,AFNE01.JPG,AFNE01.JPG,AFNE01.JPG,1,3,13,2,,,,,,,,,,,,,,,,,,,,,,,AMSA11.jpg,AMSA13.jpg,AMNE05.jpg,AMNE18.jpg,AMNE05.jpg,MN,1,num_2,16,num_2,2.80026845896,,,2017_Oct_18_1834,60.028938241,MAFE4ImagesEEG,001,101846,
AFNE01.JPG,AFNE01.JPG,AFNE01.JPG,AFNE01.JPG,AFNE01.JPG,AFNE01.JPG,1,4,14,7,,,,,,,,,,,,,,,,,,,,,,,AMSA03.jpg,AMNE09.jpg,AMNE06.jpg,AMSA19.jpg,AMSA19.jpg,MS,2,num_4,16,num_4,1.71670491486,,,2017_Oct_18_1834,60.028938241,MAFE4ImagesEEG,001,101846,
AFNE01.JPG,AFNE01.JPG,AFNE01.JPG,AFNE01.JPG,AFNE01.JPG,AFNE01.JPG,1,5,15,4,,,,,,,,,,,,,,,,,,,,,,,AMSA10.jpg,AMNE08.jpg,AMNE09.jpg,AMSA19.jpg,AMNE09.jpg,MN,1,num_2,32,num_6,1.31659361825,,,2017_Oct_18_1834,60.028938241,MAFE4ImagesEEG,001,101846,
AFNE01.JPG,AFNE01.JPG,AFNE01.JPG,AFNE01.JPG,AFNE01.JPG,AFNE01.JPG,1,6,16,3,,,,,,,,,,,,,,,,,,,,,,,AMSA02.jpg,AMSA15.jpg,AMNE18.jpg,AMNE11.jpg,AMSA15.jpg,MS,2,num_6,16,num_6,1.46657044481,,,2017_Oct_18_1834,60.028938241,MAFE4ImagesEEG,001,101846,
AFNE01.JPG,AFNE01.JPG,AFNE01.JPG,AFNE01.JPG,AFNE01.JPG,AFNE01.JPG,1,7,17,5,,,,,,,,,,,,,,,,,,,,,,,AMSA06.jpg,AMNE15.jpg,AMSA14.jpg,AMNE13.jpg,AMSA06.jpg,MS,2,num_8,16,num_8,1.25013960186,,,2017_Oct_18_1834,60.028938241,MAFE4ImagesEEG,001,101846,
AFNE01.JPG,AFNE01.JPG,AFNE01.JPG,AFNE01.JPG,AFNE01.JPG,AFNE01.JPG,1,8,18,6,,,,,,,,,,,,,,,,,,,,,,,AMSA04.jpg,AMNE18.jpg,AMSA03.jpg,AMNE05.jpg,AMSA04.jpg,MS,2,num_8,32,num_4,1.25007224658,,,2017_Oct_18_1834,60.028938241,MAFE4ImagesEEG,001,101846,
AFNE01.JPG,AFNE01.JPG,AFNE01.JPG,AFNE01.JPG,AFNE01.JPG,AFNE01.JPG,1,9,19,1,,,,,,,,,,,,,,,,,,,,,,,AMSA17.jpg,AMNE15.jpg,AMNE08.jpg,AMSA09.jpg,AMNE15.jpg,MN,1,num_6,16,num_6,1.30006879862,,,2017_Oct_18_1834,60.028938241,MAFE4ImagesEEG,001,101846,
AFNE01.JPG,AFNE01.JPG,AFNE01.JPG,AFNE01.JPG,AFNE01.JPG,AFNE01.JPG,2,0,20,4,,,,,,,,,,,,,,,,,,,,,,,AMSA17.jpg,AMSA10.jpg,AMNE03.jpg,AMNE09.jpg,AMSA10.jpg,MS,2,num_6,32,num_8,1.29995140797,,,2017_Oct_18_1834,60.028938241,MAFE4ImagesEEG,001,101846,
AFNE01.JPG,AFNE01.JPG,AFNE01.JPG,AFNE01.JPG,AFNE01.JPG,AFNE01.JPG,2,1,21,8,,,,,,,,,,,,,,,,,,,,,,,AMSA17.jpg,AMSA11.jpg,AMNE20.jpg,AMNE16.jpg,AMNE16.jpg,MN,1,num_4,32,num_2,1.25009084947,,,2017_Oct_18_1834,60.028938241,MAFE4ImagesEEG,001,101846,
AFNE01.JPG,AFNE01.JPG,AFNE01.JPG,AFNE01.JPG,AFNE01.JPG,AFNE01.JPG,2,2,22,2,,,,,,,,,,,,,,,,,,,,,,,AMNE02.jpg,AMSA09.jpg,AMNE01.jpg,AMSA20.jpg,AMNE02.jpg,MN,1,num_8,32,num_4,1.30009830664,,,2017_Oct_18_1834,60.028938241,MAFE4ImagesEEG,001,101846,
AFNE01.JPG,AFNE01.JPG,AFNE01.JPG,AFNE01.JPG,AFNE01.JPG,AFNE01.JPG,2,3,23,5,,,,,,,,,,,,,,,,,,,,,,,AMNE04.jpg,AMNE13.jpg,AMSA15.jpg,AMSA14.jpg,AMNE04.jpg,MN,1,num_8,16,num_8,1.45031857451,,,2017_Oct_18_1834,60.028938241,MAFE4ImagesEEG,001,101846,
AFNE01.JPG,AFNE01.JPG,AFNE01.JPG,AFNE01.JPG,AFNE01.JPG,AFNE01.JPG,2,4,24,6,,,,,,,,,,,,,,,,,,,,,,,AMNE06.jpg,AMSA04.jpg,AMNE01.jpg,AMSA14.jpg,AMNE06.jpg,MN,1,num_8,16,num_8,1.41681957923,,,2017_Oct_18_1834,60.028938241,MAFE4ImagesEEG,001,101846,
AFNE01.JPG,AFNE01.JPG,AFNE01.JPG,AFNE01.JPG,AFNE01.JPG,AFNE01.JPG,2,5,25,1,,,,,,,,,,,,,,,,,,,,,,,AMNE17.jpg,AMSA16.jpg,AMNE20.jpg,AMSA02.jpg,AMNE17.jpg,MN,1,num_8,16,num_8,0.950159648084,,,2017_Oct_18_1834,60.028938241,MAFE4ImagesEEG,001,101846,
AFNE01.JPG,AFNE01.JPG,AFNE01.JPG,AFNE01.JPG,AFNE01.JPG,AFNE01.JPG,2,6,26,3,,,,,,,,,,,,,,,,,,,,,,,AMSA14.jpg,AMSA18.jpg,AMNE19.jpg,AMNE10.jpg,AMSA14.jpg,MS,2,num_8,32,num_4,1.33343436627,,,2017_Oct_18_1834,60.028938241,MAFE4ImagesEEG,001,101846,
AFNE01.JPG,AFNE01.JPG,AFNE01.JPG,AFNE01.JPG,AFNE01.JPG,AFNE01.JPG,2,7,27,7,,,,,,,,,,,,,,,,,,,,,,,AMNE06.jpg,AMNE18.jpg,AMSA05.jpg,AMSA15.jpg,AMNE06.jpg,MN,1,num_8,32,num_2,1.28342434316,,,2017_Oct_18_1834,60.028938241,MAFE4ImagesEEG,001,101846,
AFNE01.JPG,AFNE01.JPG,AFNE01.JPG,AFNE01.JPG,AFNE01.JPG,AFNE01.JPG,2,8,28,9,,,,,,,,,,,,,,,,,,,,,,,AMNE09.jpg,AMSA06.jpg,AMSA18.jpg,AMNE17.jpg,AMSA06.jpg,MS,2,num_6,16,num_6,1.35008684022,,,2017_Oct_18_1834,60.028938241,MAFE4ImagesEEG,001,101846,
AFNE01.JPG,AFNE01.JPG,AFNE01.JPG,AFNE01.JPG,AFNE01.JPG,AFNE01.JPG,2,9,29,0,,,,,,,,,,,,,,,,,,,,,,,AMSA02.jpg,AMNE05.jpg,AMSA16.jpg,AMNE04.jpg,AMSA16.jpg,MS,2,num_2,32,num_4,1.55006406771,,,2017_Oct_18_1834,60.028938241,MAFE4ImagesEEG,001,101846,
AFNE01.JPG,AFNE01.JPG,AFNE01.JPG,AFNE01.JPG,AFNE01.JPG,AFNE01.JPG,3,0,30,0,,,,,,,,,,,,,,,,,,,,,,,AMSA16.jpg,AMNE03.jpg,AMSA07.jpg,AMNE07.jpg,AMNE03.jpg,MN,1,num_6,32,num_8,1.35008427431,,,2017_Oct_18_1834,60.028938241,MAFE4ImagesEEG,001,101846,
AFNE01.JPG,AFNE01.JPG,AFNE01.JPG,AFNE01.JPG,AFNE01.JPG,AFNE01.JPG,3,1,31,1,,,,,,,,,,,,,,,,,,,,,,,AMSA10.jpg,AMNE04.jpg,AMNE12.jpg,AMSA13.jpg,AMSA13.jpg,MS,2,num_4,16,num_4,1.23313399374,,,2017_Oct_18_1834,60.028938241,MAFE4ImagesEEG,001,101846,
AFNE01.JPG,AFNE01.JPG,AFNE01.JPG,AFNE01.JPG,AFNE01.JPG,AFNE01.JPG,3,2,32,6,,,,,,,,,,,,,,,,,,,,,,,AMSA14.jpg,AMSA07.jpg,AMNE02.jpg,AMNE20.jpg,AMNE02.jpg,MN,1,num_2,32,num_8,1.50010119332,,,2017_Oct_18_1834,60.028938241,MAFE4ImagesEEG,001,101846,
AFNE01.JPG,AFNE01.JPG,AFNE01.JPG,AFNE01.JPG,AFNE01.JPG,AFNE01.JPG,3,3,33,3,,,,,,,,,,,,,,,,,,,,,,,AMSA18.jpg,AMNE03.jpg,AMNE09.jpg,AMSA20.jpg,AMNE03.jpg,MN,1,num_6,16,num_6,1.0334585821,,,2017_Oct_18_1834,60.028938241,MAFE4ImagesEEG,001,101846,
AFNE01.JPG,AFNE01.JPG,AFNE01.JPG,AFNE01.JPG,AFNE01.JPG,AFNE01.JPG,3,4,34,2,,,,,,,,,,,,,,,,,,,,,,,AMSA09.jpg,AMNE05.jpg,AMSA17.jpg,AMNE12.jpg,AMNE05.jpg,MN,1,num_6,16,num_6,1.21674484693,,,2017_Oct_18_1834,60.028938241,MAFE4ImagesEEG,001,101846,
AFNE01.JPG,AFNE01.JPG,AFNE01.JPG,AFNE01.JPG,AFNE01.JPG,AFNE01.JPG,3,5,35,5,,,,,,,,,,,,,,,,,,,,,,,AMNE13.jpg,AMSA07.jpg,AMNE16.jpg,AMSA09.jpg,AMSA09.jpg,MS,2,num_4,32,num_6,0.966743804514,,,2017_Oct_18_1834,60.028938241,MAFE4ImagesEEG,001,101846,
AFNE01.JPG,AFNE01.JPG,AFNE01.JPG,AFNE01.JPG,AFNE01.JPG,AFNE01.JPG,3,6,36,9,,,,,,,,,,,,,,,,,,,,,,,AMNE02.jpg,AMNE06.jpg,AMSA10.jpg,AMSA15.jpg,AMSA10.jpg,MS,2,num_2,16,num_2,0.850095981295,,,2017_Oct_18_1834,60.028938241,MAFE4ImagesEEG,001,101846,
AFNE01.JPG,AFNE01.JPG,AFNE01.JPG,AFNE01.JPG,AFNE01.JPG,AFNE01.JPG,3,7,37,8,,,,,,,,,,,,,,,,,,,,,,,AMSA15.jpg,AMSA20.jpg,AMNE12.jpg,AMNE04.jpg,AMSA15.jpg,MS,2,num_8,16,num_8,1.56669024102,,,2017_Oct_18_1834,60.028938241,MAFE4ImagesEEG,001,101846,
AFNE01.JPG,AFNE01.JPG,AFNE01.JPG,AFNE01.JPG,AFNE01.JPG,AFNE01.JPG,3,8,38,7,,,,,,,,,,,,,,,,,,,,,,,AMNE13.jpg,AMNE06.jpg,AMSA08.jpg,AMSA12.jpg,AMSA08.jpg,MS,2,num_2,32,num_4,1.18346331301,,,2017_Oct_18_1834,60.028938241,MAFE4ImagesEEG,001,101846,
AFNE01.JPG,AFNE01.JPG,AFNE01.JPG,AFNE01.JPG,AFNE01.JPG,AFNE01.JPG,3,9,39,4,,,,,,,,,,,,,,,,,,,,,,,AMNE01.jpg,AMSA20.jpg,AMSA01.jpg,AMNE03.jpg,AMNE01.jpg,MN,1,num_8,32,num_6,1.33341255599,,,2017_Oct_18_1834,60.028938241,MAFE4ImagesEEG,001,101846,
AFNE01.JPG,AFNE01.JPG,AFNE01.JPG,AFNE01.JPG,AFNE01.JPG,AFNE01.JPG,4,0,40,8,,,,,,,,,,,,,,,,,,,,,,,AMSA18.jpg,AMSA02.jpg,AMNE01.jpg,AMNE07.jpg,AMNE01.jpg,MN,1,num_2,32,num_8,1.65005428516,,,2017_Oct_18_1834,60.028938241,MAFE4ImagesEEG,001,101846,
AFNE01.JPG,AFNE01.JPG,AFNE01.JPG,AFNE01.JPG,AFNE01.JPG,AFNE01.JPG,4,1,41,4,,,,,,,,,,,,,,,,,,,,,,,AMSA07.jpg,AMSA20.jpg,AMNE06.jpg,AMNE02.jpg,AMSA20.jpg,MS,2,num_6,16,num_6,1.03328698647,,,2017_Oct_18_1834,60.028938241,MAFE4ImagesEEG,001,101846,
AFNE01.JPG,AFNE01.JPG,AFNE01.JPG,AFNE01.JPG,AFNE01.JPG,AFNE01.JPG,4,2,42,2,,,,,,,,,,,,,,,,,,,,,,,AMNE02.jpg,AMSA02.jpg,AMSA12.jpg,AMNE19.jpg,AMSA12.jpg,MS,2,num_2,16,num_2,1.18353034757,,,2017_Oct_18_1834,60.028938241,MAFE4ImagesEEG,001,101846,
AFNE01.JPG,AFNE01.JPG,AFNE01.JPG,AFNE01.JPG,AFNE01.JPG,AFNE01.JPG,4,3,43,3,,,,,,,,,,,,,,,,,,,,,,,AMNE05.jpg,AMSA16.jpg,AMNE10.jpg,AMSA12.jpg,AMSA12.jpg,MS,2,num_4,16,num_4,1.81661943777,,,2017_Oct_18_1834,60.028938241,MAFE4ImagesEEG,001,101846,
AFNE01.JPG,AFNE01.JPG,AFNE01.JPG,AFNE01.JPG,AFNE01.JPG,AFNE01.JPG,4,4,44,9,,,,,,,,,,,,,,,,,,,,,,,AMNE17.jpg,AMNE04.jpg,AMSA14.jpg,AMSA03.jpg,AMSA03.jpg,MS,2,num_4,32,num_2,2.45026308658,,,2017_Oct_18_1834,60.028938241,MAFE4ImagesEEG,001,101846,
AFNE01.JPG,AFNE01.JPG,AFNE01.JPG,AFNE01.JPG,AFNE01.JPG,AFNE01.JPG,4,5,45,7,,,,,,,,,,,,,,,,,,,,,,,AMNE02.jpg,AMSA16.jpg,AMSA01.jpg,AMNE20.jpg,AMSA01.jpg,MS,2,num_2,32,num_4,1.76669344842,,,2017_Oct_18_1834,60.028938241,MAFE4ImagesEEG,001,101846,
AFNE01.JPG,AFNE01.JPG,AFNE01.JPG,AFNE01.JPG,AFNE01.JPG,AFNE01.JPG,4,6,46,0,,,,,,,,,,,,,,,,,,,,,,,AMSA17.jpg,AMSA02.jpg,AMNE05.jpg,AMNE18.jpg,AMNE05.jpg,MN,1,num_2,32,num_8,1.73343885664,,,2017_Oct_18_1834,60.028938241,MAFE4ImagesEEG,001,101846,
AFNE01.JPG,AFNE01.JPG,AFNE01.JPG,AFNE01.JPG,AFNE01.JPG,AFNE01.JPG,4,7,47,6,,,,,,,,,,,,,,,,,,,,,,,AMSA06.jpg,AMSA05.jpg,AMNE06.jpg,AMNE10.jpg,AMSA06.jpg,MS,2,num_8,32,num_6,1.85002766379,,,2017_Oct_18_1834,60.028938241,MAFE4ImagesEEG,001,101846,
AFNE01.JPG,AFNE01.JPG,AFNE01.JPG,AFNE01.JPG,AFNE01.JPG,AFNE01.JPG,4,8,48,5,,,,,,,,,,,,,,,,,,,,,,,AMSA04.jpg,AMNE14.jpg,AMNE10.jpg,AMSA02.jpg,AMNE14.jpg,MN,1,num_6,16,num_6,1.13344206402,,,2017_Oct_18_1834,60.028938241,MAFE4ImagesEEG,001,101846,
AFNE01.JPG,AFNE01.JPG,AFNE01.JPG,AFNE01.JPG,AFNE01.JPG,AFNE01.JPG,4,9,49,1,,,,,,,,,,,,,,,,,,,,,,,AMSA09.jpg,AMNE11.jpg,AMSA05.jpg,AMNE10.jpg,AMNE11.jpg,MN,1,num_6,32,num_8,1.0834490401,,,2017_Oct_18_1834,60.028938241,MAFE4ImagesEEG,001,101846,
AFNE01.JPG,AFNE01.JPG,AFNE01.JPG,AFNE01.JPG,AFNE01.JPG,AFNE01.JPG,5,0,50,4,,,,,,,,,,,,,,,,,,,,,,,AMSA15.jpg,AMNE04.jpg,AMSA12.jpg,AMNE15.jpg,AMNE04.jpg,MN,1,num_6,16,num_6,1.1834549738,,,2017_Oct_18_1834,60.028938241,MAFE4ImagesEEG,001,101846,
AFNE01.JPG,AFNE01.JPG,AFNE01.JPG,AFNE01.JPG,AFNE01.JPG,AFNE01.JPG,5,1,51,8,,,,,,,,,,,,,,,,,,,,,,,AMNE19.jpg,AMNE13.jpg,AMSA10.jpg,AMSA08.jpg,AMSA10.jpg,MS,2,num_2,16,num_2,1.76639163254,,,2017_Oct_18_1834,60.028938241,MAFE4ImagesEEG,001,101846,
AFNE01.JPG,AFNE01.JPG,AFNE01.JPG,AFNE01.JPG,AFNE01.JPG,AFNE01.JPG,5,2,52,5,,,,,,,,,,,,,,,,,,,,,,,AMSA20.jpg,AMSA11.jpg,AMNE20.jpg,AMNE04.jpg,AMNE04.jpg,MN,1,num_4,16,num_4,1.06660123581,,,2017_Oct_18_1834,60.028938241,MAFE4ImagesEEG,001,101846,
AFNE01.JPG,AFNE01.JPG,AFNE01.JPG,AFNE01.JPG,AFNE01.JPG,AFNE01.JPG,5,3,53,1,,,,,,,,,,,,,,,,,,,,,,,AMNE09.jpg,AMNE18.jpg,AMSA02.jpg,AMSA06.jpg,AMNE09.jpg,MN,1,num_8,16,num_8,1.43338769868,,,2017_Oct_18_1834,60.028938241,MAFE4ImagesEEG,001,101846,
AFNE01.JPG,AFNE01.JPG,AFNE01.JPG,AFNE01.JPG,AFNE01.JPG,AFNE01.JPG,5,4,54,7,,,,,,,,,,,,,,,,,,,,,,,AMNE14.jpg,AMSA20.jpg,AMSA10.jpg,AMNE07.jpg,AMNE14.jpg,MN,1,num_8,16,num_8,0.666782774366,,,2017_Oct_18_1834,60.028938241,MAFE4ImagesEEG,001,101846,
AFNE01.JPG,AFNE01.JPG,AFNE01.JPG,AFNE01.JPG,AFNE01.JPG,AFNE01.JPG,5,5,55,6,,,,,,,,,,,,,,,,,,,,,,,AMSA05.jpg,AMSA09.jpg,AMNE05.jpg,AMNE15.jpg,AMSA09.jpg,MS,2,num_6,16,num_6,0.933478628314,,,2017_Oct_18_1834,60.028938241,MAFE4ImagesEEG,001,101846,
AFNE01.JPG,AFNE01.JPG,AFNE01.JPG,AFNE01.JPG,AFNE01.JPG,AFNE01.JPG,5,6,56,9,,,,,,,,,,,,,,,,,,,,,,,AMSA07.jpg,AMNE19.jpg,AMSA01.jpg,AMNE14.jpg,AMSA07.jpg,MS,2,num_8,32,num_6,1.11672864958,,,2017_Oct_18_1834,60.028938241,MAFE4ImagesEEG,001,101846,
AFNE01.JPG,AFNE01.JPG,AFNE01.JPG,AFNE01.JPG,AFNE01.JPG,AFNE01.JPG,5,7,57,0,,,,,,,,,,,,,,,,,,,,,,,AMSA13.jpg,AMSA03.jpg,AMNE20.jpg,AMNE09.jpg,AMSA13.jpg,MS,2,num_8,16,num_8,1.21660917411,,,2017_Oct_18_1834,60.028938241,MAFE4ImagesEEG,001,101846,
AFNE01.JPG,AFNE01.JPG,AFNE01.JPG,AFNE01.JPG,AFNE01.JPG,AFNE01.JPG,5,8,58,2,,,,,,,,,,,,,,,,,,,,,,,AMNE14.jpg,AMNE06.jpg,AMSA16.jpg,AMSA08.jpg,AMNE06.jpg,MN,1,num_6,16,num_6,0.900125890243,,,2017_Oct_18_1834,60.028938241,MAFE4ImagesEEG,001,101846,
AFNE01.JPG,AFNE01.JPG,AFNE01.JPG,AFNE01.JPG,AFNE01.JPG,AFNE01.JPG,5,9,59,3,,,,,,,,,,,,,,,,,,,,,,,AMNE06.jpg,AMSA18.jpg,AMSA13.jpg,AMNE08.jpg,AMNE08.jpg,MN,1,num_4,32,num_2,2.19998749116,,,2017_Oct_18_1834,60.028938241,MAFE4ImagesEEG,001,101846,
,,,,,,,,,,,,,,,,,,,,,,,,,,,,,,,,,,,,,,,,,,,space,19.5650368289,2017_Oct_18_1834,60.028938241,MAFE4ImagesEEG,001,101846,
AFNE01.JPG,AFNE01.JPG,AFNE01.JPG,AFNE01.JPG,AFNE01.JPG,AFNE01.JPG,,,,,0,0,0,2,,,,,,,,,,,,,,,,,,,AFSA13.jpg,AFNE01.jpg,AFSA18.jpg,AFNE06.jpg,AFSA13.jpg,FS,4,num_8,32,num_4,1.65009341539,,,2017_Oct_18_1834,60.028938241,MAFE4ImagesEEG,001,101846,
AFNE01.JPG,AFNE01.JPG,AFNE01.JPG,AFNE01.JPG,AFNE01.JPG,AFNE01.JPG,,,,,0,1,1,3,,,,,,,,,,,,,,,,,,,AFNE15.jpg,AFSA10.jpg,AFNE03.jpg,AFSA15.jpg,AFNE03.jpg,FN,3,num_2,32,num_6,1.20011706992,,,2017_Oct_18_1834,60.028938241,MAFE4ImagesEEG,001,101846,
AFNE01.JPG,AFNE01.JPG,AFNE01.JPG,AFNE01.JPG,AFNE01.JPG,AFNE01.JPG,,,,,0,2,2,0,,,,,,,,,,,,,,,,,,,AFSA06.jpg,AFNE14.jpg,AFSA17.jpg,AFNE09.jpg,AFSA06.jpg,FS,4,num_8,32,num_6,1.6000487524,,,2017_Oct_18_1834,60.028938241,MAFE4ImagesEEG,001,101846,
AFNE01.JPG,AFNE01.JPG,AFNE01.JPG,AFNE01.JPG,AFNE01.JPG,AFNE01.JPG,,,,,0,3,3,9,,,,,,,,,,,,,,,,,,,AFNE06.jpg,AFNE10.jpg,AFSA02.jpg,AFSA15.jpg,AFSA15.jpg,FS,4,num_4,32,num_8,0.933469326876,,,2017_Oct_18_1834,60.028938241,MAFE4ImagesEEG,001,101846,
AFNE01.JPG,AFNE01.JPG,AFNE01.JPG,AFNE01.JPG,AFNE01.JPG,AFNE01.JPG,,,,,0,4,4,6,,,,,,,,,,,,,,,,,,,AFSA19.jpg,AFSA15.jpg,AFNE05.jpg,AFNE11.jpg,AFNE11.jpg,FN,3,num_4,16,num_4,0.883429795736,,,2017_Oct_18_1834,60.028938241,MAFE4ImagesEEG,001,101846,
AFNE01.JPG,AFNE01.JPG,AFNE01.JPG,AFNE01.JPG,AFNE01.JPG,AFNE01.JPG,,,,,0,5,5,8,,,,,,,,,,,,,,,,,,,AFNE20.jpg,AFSA08.jpg,AFSA05.jpg,AFNE09.jpg,AFSA05.jpg,FS,4,num_2,16,num_2,1.08341889059,,,2017_Oct_18_1834,60.028938241,MAFE4ImagesEEG,001,101846,
AFNE01.JPG,AFNE01.JPG,AFNE01.JPG,AFNE01.JPG,AFNE01.JPG,AFNE01.JPG,,,,,0,6,6,7,,,,,,,,,,,,,,,,,,,AFNE12.jpg,AFNE13.jpg,AFSA03.jpg,AFSA10.jpg,AFSA03.jpg,FS,4,num_2,32,num_6,2.03334953067,,,2017_Oct_18_1834,60.028938241,MAFE4ImagesEEG,001,101846,
AFNE01.JPG,AFNE01.JPG,AFNE01.JPG,AFNE01.JPG,AFNE01.JPG,AFNE01.JPG,,,,,0,7,7,4,,,,,,,,,,,,,,,,,,,AFNE15.jpg,AFSA14.jpg,AFSA19.jpg,AFNE07.jpg,AFNE07.jpg,FN,3,num_4,32,num_8,1.13330414603,,,2017_Oct_18_1834,60.028938241,MAFE4ImagesEEG,001,101846,
AFNE01.JPG,AFNE01.JPG,AFNE01.JPG,AFNE01.JPG,AFNE01.JPG,AFNE01.JPG,,,,,0,8,8,5,,,,,,,,,,,,,,,,,,,AFNE02.jpg,AFNE15.jpg,AFSA15.jpg,AFSA07.jpg,AFNE15.jpg,FN,3,num_6,16,num_6,1.16644230939,,,2017_Oct_18_1834,60.028938241,MAFE4ImagesEEG,001,101846,
AFNE01.JPG,AFNE01.JPG,AFNE01.JPG,AFNE01.JPG,AFNE01.JPG,AFNE01.JPG,,,,,0,9,9,1,,,,,,,,,,,,,,,,,,,AFNE15.jpg,AFSA17.jpg,AFSA12.jpg,AFNE06.jpg,AFNE15.jpg,FN,3,num_8,32,num_4,0.816756714281,,,2017_Oct_18_1834,60.028938241,MAFE4ImagesEEG,001,101846,
AFNE01.JPG,AFNE01.JPG,AFNE01.JPG,AFNE01.JPG,AFNE01.JPG,AFNE01.JPG,,,,,1,0,10,8,,,,,,,,,,,,,,,,,,,AFNE01.jpg,AFSA02.jpg,AFNE15.jpg,AFSA17.jpg,AFNE15.jpg,FN,3,num_2,16,num_2,1.90002453658,,,2017_Oct_18_1834,60.028938241,MAFE4ImagesEEG,001,101846,
AFNE01.JPG,AFNE01.JPG,AFNE01.JPG,AFNE01.JPG,AFNE01.JPG,AFNE01.JPG,,,,,1,1,11,6,,,,,,,,,,,,,,,,,,,AFNE07.jpg,AFSA16.jpg,AFSA07.jpg,AFNE05.jpg,AFSA16.jpg,FS,4,num_6,32,num_4,3.73325154476,,,2017_Oct_18_1834,60.028938241,MAFE4ImagesEEG,001,101846,
AFNE01.JPG,AFNE01.JPG,AFNE01.JPG,AFNE01.JPG,AFNE01.JPG,AFNE01.JPG,,,,,1,2,12,2,,,,,,,,,,,,,,,,,,,AFSA12.jpg,AFNE12.jpg,AFSA07.jpg,AFNE08.jpg,AFSA12.jpg,FS,4,num_8,32,num_6,2.28335378047,,,2017_Oct_18_1834,60.028938241,MAFE4ImagesEEG,001,101846,
AFNE01.JPG,AFNE01.JPG,AFNE01.JPG,AFNE01.JPG,AFNE01.JPG,AFNE01.JPG,,,,,1,3,13,3,,,,,,,,,,,,,,,,,,,AFNE15.jpg,AFSA02.jpg,AFSA20.jpg,AFNE16.jpg,AFNE16.jpg,FN,3,num_4,16,num_4,2.26667179851,,,2017_Oct_18_1834,60.028938241,MAFE4ImagesEEG,001,101846,
AFNE01.JPG,AFNE01.JPG,AFNE01.JPG,AFNE01.JPG,AFNE01.JPG,AFNE01.JPG,,,,,1,4,14,7,,,,,,,,,,,,,,,,,,,AFSA20.jpg,AFNE09.jpg,AFNE02.jpg,AFSA05.jpg,AFNE02.jpg,FN,3,num_2,32,num_8,1.55008523651,,,2017_Oct_18_1834,60.028938241,MAFE4ImagesEEG,001,101846,
AFNE01.JPG,AFNE01.JPG,AFNE01.JPG,AFNE01.JPG,AFNE01.JPG,AFNE01.JPG,,,,,1,5,15,5,,,,,,,,,,,,,,,,,,,AFSA12.jpg,AFSA18.jpg,AFNE01.jpg,AFNE03.jpg,AFSA18.jpg,FS,4,num_6,16,num_6,0.783456898222,,,2017_Oct_18_1834,60.028938241,MAFE4ImagesEEG,001,101846,
AFNE01.JPG,AFNE01.JPG,AFNE01.JPG,AFNE01.JPG,AFNE01.JPG,AFNE01.JPG,,,,,1,6,16,0,,,,,,,,,,,,,,,,,,,AFNE02.jpg,AFSA09.jpg,AFNE07.jpg,AFSA20.jpg,AFNE07.jpg,FN,3,num_2,32,num_8,2.03337262392,,,2017_Oct_18_1834,60.028938241,MAFE4ImagesEEG,001,101846,
AFNE01.JPG,AFNE01.JPG,AFNE01.JPG,AFNE01.JPG,AFNE01.JPG,AFNE01.JPG,,,,,1,7,17,1,,,,,,,,,,,,,,,,,,,AFSA16.jpg,AFNE05.jpg,AFSA12.jpg,AFNE04.jpg,AFSA12.jpg,FS,4,num_2,16,num_2,2.04972809309,,,2017_Oct_18_1834,60.028938241,MAFE4ImagesEEG,001,101846,
AFNE01.JPG,AFNE01.JPG,AFNE01.JPG,AFNE01.JPG,AFNE01.JPG,AFNE01.JPG,,,,,1,8,18,4,,,,,,,,,,,,,,,,,,,AFSA10.jpg,AFNE16.jpg,AFNE07.jpg,AFSA13.jpg,AFSA10.jpg,FS,4,num_8,32,num_6,1.20007088342,,,2017_Oct_18_1834,60.028938241,MAFE4ImagesEEG,001,101846,
AFNE01.JPG,AFNE01.JPG,AFNE01.JPG,AFNE01.JPG,AFNE01.JPG,AFNE01.JPG,,,,,1,9,19,9,,,,,,,,,,,,,,,,,,,AFNE17.jpg,AFNE16.jpg,AFSA01.jpg,AFSA08.jpg,AFNE17.jpg,FN,3,num_8,32,num_4,1.36690064613,,,2017_Oct_18_1834,60.028938241,MAFE4ImagesEEG,001,101846,
AFNE01.JPG,AFNE01.JPG,AFNE01.JPG,AFNE01.JPG,AFNE01.JPG,AFNE01.JPG,,,,,2,0,20,3,,,,,,,,,,,,,,,,,,,AFNE14.jpg,AFSA17.jpg,AFSA09.jpg,AFNE17.jpg,AFNE14.jpg,FN,3,num_8,16,num_8,0.866860714057,,,2017_Oct_18_1834,60.028938241,MAFE4ImagesEEG,001,101846,
AFNE01.JPG,AFNE01.JPG,AFNE01.JPG,AFNE01.JPG,AFNE01.JPG,AFNE01.JPG,,,,,2,1,21,2,,,,,,,,,,,,,,,,,,,AFNE08.jpg,AFSA05.jpg,AFSA14.jpg,AFNE20.jpg,AFNE08.jpg,FN,3,num_8,32,num_4,0.983406542116,,,2017_Oct_18_1834,60.028938241,MAFE4ImagesEEG,001,101846,
AFNE01.JPG,AFNE01.JPG,AFNE01.JPG,AFNE01.JPG,AFNE01.JPG,AFNE01.JPG,,,,,2,2,22,4,,,,,,,,,,,,,,,,,,,AFNE03.jpg,AFSA11.jpg,AFNE10.jpg,AFSA05.jpg,AFNE10.jpg,FN,3,num_2,16,num_2,1.00008820335,,,2017_Oct_18_1834,60.028938241,MAFE4ImagesEEG,001,101846,
AFNE01.JPG,AFNE01.JPG,AFNE01.JPG,AFNE01.JPG,AFNE01.JPG,AFNE01.JPG,,,,,2,3,23,8,,,,,,,,,,,,,,,,,,,AFNE16.jpg,AFSA01.jpg,AFNE13.jpg,AFSA13.jpg,AFSA01.jpg,FS,4,num_6,16,num_6,1.93343180035,,,2017_Oct_18_1834,60.028938241,MAFE4ImagesEEG,001,101846,
AFNE01.JPG,AFNE01.JPG,AFNE01.JPG,AFNE01.JPG,AFNE01.JPG,AFNE01.JPG,,,,,2,4,24,5,,,,,,,,,,,,,,,,,,,AFNE14.jpg,AFNE15.jpg,AFSA03.jpg,AFSA04.jpg,AFSA03.jpg,FS,4,num_2,32,num_8,3.81653508329,,,2017_Oct_18_1834,60.028938241,MAFE4ImagesEEG,001,101846,
AFNE01.JPG,AFNE01.JPG,AFNE01.JPG,AFNE01.JPG,AFNE01.JPG,AFNE01.JPG,,,,,2,5,25,9,,,,,,,,,,,,,,,,,,,AFNE08.jpg,AFSA05.jpg,AFSA04.jpg,AFNE16.jpg,AFSA04.jpg,FS,4,num_2,16,num_2,1.3334093486,,,2017_Oct_18_1834,60.028938241,MAFE4ImagesEEG,001,101846,
AFNE01.JPG,AFNE01.JPG,AFNE01.JPG,AFNE01.JPG,AFNE01.JPG,AFNE01.JPG,,,,,2,6,26,0,,,,,,,,,,,,,,,,,,,AFNE07.jpg,AFSA02.jpg,AFSA03.jpg,AFNE13.jpg,AFSA03.jpg,FS,4,num_2,16,num_2,3.06660251877,,,2017_Oct_18_1834,60.028938241,MAFE4ImagesEEG,001,101846,
AFNE01.JPG,AFNE01.JPG,AFNE01.JPG,AFNE01.JPG,AFNE01.JPG,AFNE01.JPG,,,,,2,7,27,7,,,,,,,,,,,,,,,,,,,AFSA14.jpg,AFNE03.jpg,AFNE07.jpg,AFSA08.jpg,AFSA14.jpg,FS,4,num_8,32,num_4,1.08340574027,,,2017_Oct_18_1834,60.028938241,MAFE4ImagesEEG,001,101846,
AFNE01.JPG,AFNE01.JPG,AFNE01.JPG,AFNE01.JPG,AFNE01.JPG,AFNE01.JPG,,,,,2,8,28,1,,,,,,,,,,,,,,,,,,,AFSA19.jpg,AFSA09.jpg,AFNE01.jpg,AFNE13.jpg,AFNE13.jpg,FN,3,num_4,16,num_4,1.15009197206,,,2017_Oct_18_1834,60.028938241,MAFE4ImagesEEG,001,101846,
AFNE01.JPG,AFNE01.JPG,AFNE01.JPG,AFNE01.JPG,AFNE01.JPG,AFNE01.JPG,,,,,2,9,29,6,,,,,,,,,,,,,,,,,,,AFSA06.jpg,AFSA04.jpg,AFNE02.jpg,AFNE19.jpg,AFNE19.jpg,FN,3,num_4,32,num_2,1.56671910758,,,2017_Oct_18_1834,60.028938241,MAFE4ImagesEEG,001,101846,
AFNE01.JPG,AFNE01.JPG,AFNE01.JPG,AFNE01.JPG,AFNE01.JPG,AFNE01.JPG,,,,,3,0,30,7,,,,,,,,,,,,,,,,,,,AFNE20.jpg,AFSA15.jpg,AFNE19.jpg,AFSA08.jpg,AFNE19.jpg,FN,3,num_2,32,num_8,2.25000745719,,,2017_Oct_18_1834,60.028938241,MAFE4ImagesEEG,001,101846,
AFNE01.JPG,AFNE01.JPG,AFNE01.JPG,AFNE01.JPG,AFNE01.JPG,AFNE01.JPG,,,,,3,1,31,1,,,,,,,,,,,,,,,,,,,AFSA19.jpg,AFSA14.jpg,AFNE03.jpg,AFNE08.jpg,AFNE08.jpg,FN,3,num_4,16,num_4,1.80001892363,,,2017_Oct_18_1834,60.028938241,MAFE4ImagesEEG,001,101846,
AFNE01.JPG,AFNE01.JPG,AFNE01.JPG,AFNE01.JPG,AFNE01.JPG,AFNE01.JPG,,,,,3,2,32,2,,,,,,,,,,,,,,,,,,,AFNE18.jpg,AFSA19.jpg,AFNE17.jpg,AFSA01.jpg,AFSA19.jpg,FS,4,num_6,32,num_2,2.26667500589,,,2017_Oct_18_1834,60.028938241,MAFE4ImagesEEG,001,101846,
AFNE01.JPG,AFNE01.JPG,AFNE01.JPG,AFNE01.JPG,AFNE01.JPG,AFNE01.JPG,,,,,3,3,33,8,,,,,,,,,,,,,,,,,,,AFNE03.jpg,AFNE01.jpg,AFSA02.jpg,AFSA16.jpg,AFNE03.jpg,FN,3,num_8,16,num_8,0.966740276373,,,2017_Oct_18_1834,60.028938241,MAFE4ImagesEEG,001,101846,
AFNE01.JPG,AFNE01.JPG,AFNE01.JPG,AFNE01.JPG,AFNE01.JPG,AFNE01.JPG,,,,,3,4,34,9,,,,,,,,,,,,,,,,,,,AFNE12.jpg,AFSA11.jpg,AFSA01.jpg,AFNE10.jpg,AFSA01.jpg,FS,4,num_2,32,num_4,1.46669008065,,,2017_Oct_18_1834,60.028938241,MAFE4ImagesEEG,001,101846,
AFNE01.JPG,AFNE01.JPG,AFNE01.JPG,AFNE01.JPG,AFNE01.JPG,AFNE01.JPG,,,,,3,5,35,3,,,,,,,,,,,,,,,,,,,AFNE06.jpg,AFSA13.jpg,AFSA16.jpg,AFNE11.jpg,AFSA13.jpg,FS,4,num_6,48,None,,,,2017_Oct_18_1834,60.028938241,MAFE4ImagesEEG,001,101846,
AFNE01.JPG,AFNE01.JPG,AFNE01.JPG,AFNE01.JPG,AFNE01.JPG,AFNE01.JPG,,,,,3,6,36,5,,,,,,,,,,,,,,,,,,,AFSA13.jpg,AFNE08.jpg,AFNE02.jpg,AFSA11.jpg,AFSA11.jpg,FS,4,num_4,16,num_4,1.11674308286,,,2017_Oct_18_1834,60.028938241,MAFE4ImagesEEG,001,101846,
AFNE01.JPG,AFNE01.JPG,AFNE01.JPG,AFNE01.JPG,AFNE01.JPG,AFNE01.JPG,,,,,3,7,37,6,,,,,,,,,,,,,,,,,,,AFNE01.jpg,AFNE09.jpg,AFSA07.jpg,AFSA11.jpg,AFNE01.jpg,FN,3,num_8,32,num_6,1.08339643883,,,2017_Oct_18_1834,60.028938241,MAFE4ImagesEEG,001,101846,
AFNE01.JPG,AFNE01.JPG,AFNE01.JPG,AFNE01.JPG,AFNE01.JPG,AFNE01.JPG,,,,,3,8,38,0,,,,,,,,,,,,,,,,,,,AFSA13.jpg,AFNE14.jpg,AFNE07.jpg,AFSA12.jpg,AFSA12.jpg,FS,4,num_4,32,num_8,0.733461949872,,,2017_Oct_18_1834,60.028938241,MAFE4ImagesEEG,001,101846,
AFNE01.JPG,AFNE01.JPG,AFNE01.JPG,AFNE01.JPG,AFNE01.JPG,AFNE01.JPG,,,,,3,9,39,4,,,,,,,,,,,,,,,,,,,AFNE11.jpg,AFSA18.jpg,AFSA07.jpg,AFNE07.jpg,AFSA18.jpg,FS,4,num_6,32,num_2,1.2003678882,,,2017_Oct_18_1834,60.028938241,MAFE4ImagesEEG,001,101846,
AFNE01.JPG,AFNE01.JPG,AFNE01.JPG,AFNE01.JPG,AFNE01.JPG,AFNE01.JPG,,,,,4,0,40,5,,,,,,,,,,,,,,,,,,,AFNE10.jpg,AFSA12.jpg,AFSA20.jpg,AFNE11.jpg,AFSA20.jpg,FS,4,num_2,32,num_4,0.983527781646,,,2017_Oct_18_1834,60.028938241,MAFE4ImagesEEG,001,101846,
AFNE01.JPG,AFNE01.JPG,AFNE01.JPG,AFNE01.JPG,AFNE01.JPG,AFNE01.JPG,,,,,4,1,41,4,,,,,,,,,,,,,,,,,,,AFSA15.jpg,AFNE10.jpg,AFSA10.jpg,AFNE20.jpg,AFSA10.jpg,FS,4,num_2,16,num_2,0.983481274423,,,2017_Oct_18_1834,60.028938241,MAFE4ImagesEEG,001,101846,
AFNE01.JPG,AFNE01.JPG,AFNE01.JPG,AFNE01.JPG,AFNE01.JPG,AFNE01.JPG,,,,,4,2,42,1,,,,,,,,,,,,,,,,,,,AFSA09.jpg,AFNE18.jpg,AFSA05.jpg,AFNE14.jpg,AFSA05.jpg,FS,4,num_2,32,num_4,1.0667523041,,,2017_Oct_18_1834,60.028938241,MAFE4ImagesEEG,001,101846,
AFNE01.JPG,AFNE01.JPG,AFNE01.JPG,AFNE01.JPG,AFNE01.JPG,AFNE01.JPG,,,,,4,3,43,0,,,,,,,,,,,,,,,,,,,AFSA19.jpg,AFNE15.jpg,AFNE14.jpg,AFSA20.jpg,AFSA19.jpg,FS,4,num_8,16,num_8,1.26672311682,,,2017_Oct_18_1834,60.028938241,MAFE4ImagesEEG,001,101846,
AFNE01.JPG,AFNE01.JPG,AFNE01.JPG,AFNE01.JPG,AFNE01.JPG,AFNE01.JPG,,,,,4,4,44,2,,,,,,,,,,,,,,,,,,,AFNE12.jpg,AFNE02.jpg,AFSA08.jpg,AFSA17.jpg,AFSA08.jpg,FS,4,num_2,32,num_4,1.25007449175,,,2017_Oct_18_1834,60.028938241,MAFE4ImagesEEG,001,101846,
AFNE01.JPG,AFNE01.JPG,AFNE01.JPG,AFNE01.JPG,AFNE01.JPG,AFNE01.JPG,,,,,4,5,45,6,,,,,,,,,,,,,,,,,,,AFNE07.jpg,AFSA02.jpg,AFNE08.jpg,AFSA17.jpg,AFSA17.jpg,FS,4,num_4,32,num_2,1.4833880996,,,2017_Oct_18_1834,60.028938241,MAFE4ImagesEEG,001,101846,
AFNE01.JPG,AFNE01.JPG,AFNE01.JPG,AFNE01.JPG,AFNE01.JPG,AFNE01.JPG,,,,,4,6,46,7,,,,,,,,,,,,,,,,,,,AFSA08.jpg,AFNE03.jpg,AFNE15.jpg,AFSA19.jpg,AFNE15.jpg,FN,3,num_2,32,num_8,1.18346363376,,,2017_Oct_18_1834,60.028938241,MAFE4ImagesEEG,001,101846,
AFNE01.JPG,AFNE01.JPG,AFNE01.JPG,AFNE01.JPG,AFNE01.JPG,AFNE01.JPG,,,,,4,7,47,8,,,,,,,,,,,,,,,,,,,AFSA12.jpg,AFSA02.jpg,AFNE03.jpg,AFNE05.jpg,AFSA02.jpg,FS,4,num_6,32,num_4,1.33343596997,,,2017_Oct_18_1834,60.028938241,MAFE4ImagesEEG,001,101846,
AFNE01.JPG,AFNE01.JPG,AFNE01.JPG,AFNE01.JPG,AFNE01.JPG,AFNE01.JPG,,,,,4,8,48,3,,,,,,,,,,,,,,,,,,,AFNE19.jpg,AFNE09.jpg,AFSA17.jpg,AFSA11.jpg,AFNE19.jpg,FN,3,num_8,16,num_8,1.93335033253,,,2017_Oct_18_1834,60.028938241,MAFE4ImagesEEG,001,101846,
AFNE01.JPG,AFNE01.JPG,AFNE01.JPG,AFNE01.JPG,AFNE01.JPG,AFNE01.JPG,,,,,4,9,49,9,,,,,,,,,,,,,,,,,,,AFSA07.jpg,AFSA02.jpg,AFNE17.jpg,AFNE08.jpg,AFNE08.jpg,FN,3,num_4,32,num_8,1.299797453,,,2017_Oct_18_1834,60.028938241,MAFE4ImagesEEG,001,101846,
AFNE01.JPG,AFNE01.JPG,AFNE01.JPG,AFNE01.JPG,AFNE01.JPG,AFNE01.JPG,,,,,5,0,50,8,,,,,,,,,,,,,,,,,,,AFNE12.jpg,AFSA07.jpg,AFNE05.jpg,AFSA15.jpg,AFSA15.jpg,FS,4,num_4,16,num_4,1.03346563838,,,2017_Oct_18_1834,60.028938241,MAFE4ImagesEEG,001,101846,
AFNE01.JPG,AFNE01.JPG,AFNE01.JPG,AFNE01.JPG,AFNE01.JPG,AFNE01.JPG,,,,,5,1,51,7,,,,,,,,,,,,,,,,,,,AFNE05.jpg,AFSA13.jpg,AFNE13.jpg,AFSA14.jpg,AFSA13.jpg,FS,4,num_6,32,num_4,1.08338553368,,,2017_Oct_18_1834,60.028938241,MAFE4ImagesEEG,001,101846,
AFNE01.JPG,AFNE01.JPG,AFNE01.JPG,AFNE01.JPG,AFNE01.JPG,AFNE01.JPG,,,,,5,2,52,2,,,,,,,,,,,,,,,,,,,AFSA03.jpg,AFNE12.jpg,AFNE05.jpg,AFSA18.jpg,AFNE12.jpg,FN,3,num_6,32,num_8,3.23327736428,,,2017_Oct_18_1834,60.028938241,MAFE4ImagesEEG,001,101846,
AFNE01.JPG,AFNE01.JPG,AFNE01.JPG,AFNE01.JPG,AFNE01.JPG,AFNE01.JPG,,,,,5,3,53,0,,,,,,,,,,,,,,,,,,,AFSA07.jpg,AFNE16.jpg,AFNE17.jpg,AFSA20.jpg,AFSA20.jpg,FS,4,num_4,32,num_6,1.43338801942,,,2017_Oct_18_1834,60.028938241,MAFE4ImagesEEG,001,101846,
AFNE01.JPG,AFNE01.JPG,AFNE01.JPG,AFNE01.JPG,AFNE01.JPG,AFNE01.JPG,,,,,5,4,54,9,,,,,,,,,,,,,,,,,,,AFSA08.jpg,AFNE11.jpg,AFSA09.jpg,AFNE20.jpg,AFNE20.jpg,FN,3,num_4,32,num_2,1.16673931417,,,2017_Oct_18_1834,60.028938241,MAFE4ImagesEEG,001,101846,
AFNE01.JPG,AFNE01.JPG,AFNE01.JPG,AFNE01.JPG,AFNE01.JPG,AFNE01.JPG,,,,,5,5,55,1,,,,,,,,,,,,,,,,,,,AFNE08.jpg,AFSA01.jpg,AFNE10.jpg,AFSA06.jpg,AFNE10.jpg,FN,3,num_2,16,num_2,1.61671533888,,,2017_Oct_18_1834,60.028938241,MAFE4ImagesEEG,001,101846,
AFNE01.JPG,AFNE01.JPG,AFNE01.JPG,AFNE01.JPG,AFNE01.JPG,AFNE01.JPG,,,,,5,6,56,5,,,,,,,,,,,,,,,,,,,AFNE11.jpg,AFSA05.jpg,AFSA04.jpg,AFNE17.jpg,AFNE17.jpg,FN,3,num_4,16,num_4,1.06674204045,,,2017_Oct_18_1834,60.028938241,MAFE4ImagesEEG,001,101846,
AFNE01.JPG,AFNE01.JPG,AFNE01.JPG,AFNE01.JPG,AFNE01.JPG,AFNE01.JPG,,,,,5,7,57,4,,,,,,,,,,,,,,,,,,,AFNE19.jpg,AFSA09.jpg,AFSA20.jpg,AFNE04.jpg,AFNE04.jpg,FN,3,num_4,16,num_4,0.849957742568,,,2017_Oct_18_1834,60.028938241,MAFE4ImagesEEG,001,101846,
AFNE01.JPG,AFNE01.JPG,AFNE01.JPG,AFNE01.JPG,AFNE01.JPG,AFNE01.JPG,,,,,5,8,58,3,,,,,,,,,,,,,,,,,,,AFSA17.jpg,AFNE03.jpg,AFSA18.jpg,AFNE17.jpg,AFNE03.jpg,FN,3,num_6,32,num_8,1.98338344888,,,2017_Oct_18_1834,60.028938241,MAFE4ImagesEEG,001,101846,
AFNE01.JPG,AFNE01.JPG,AFNE01.JPG,AFNE01.JPG,AFNE01.JPG,AFNE01.JPG,,,,,5,9,59,6,,,,,,,,,,,,,,,,,,,AFNE09.jpg,AFSA16.jpg,AFNE14.jpg,AFSA15.jpg,AFSA15.jpg,FS,4,num_4,16,num_4,1.28372551755,,,2017_Oct_18_1834,60.028938241,MAFE4ImagesEEG,001,101846,
,,,,,,,,,,,,,,,,,,,,,,,,,,,,,,,,,,,,,,,,,,,space,16.4654930808,2017_Oct_18_1834,60.028938241,MAFE4ImagesEEG,001,101846,
AFNE01.JPG,AFNE01.JPG,AFNE01.JPG,AFNE01.JPG,AFNE01.JPG,AFNE01.JPG,,,,,,,,,0,0,0,3,,,,,,,,,,,,,,,AMSA16.jpg,AMNE07.jpg,AMSA03.jpg,AMNE12.jpg,AMSA16.jpg,MS,2,num_8,16,num_8,0.666769944786,,,2017_Oct_18_1834,60.028938241,MAFE4ImagesEEG,001,101846,
AFNE01.JPG,AFNE01.JPG,AFNE01.JPG,AFNE01.JPG,AFNE01.JPG,AFNE01.JPG,,,,,,,,,0,1,1,1,,,,,,,,,,,,,,,AMSA18.jpg,AMNE09.jpg,AMSA19.jpg,AMNE07.jpg,AMNE09.jpg,MN,1,num_6,32,num_4,0.766765935536,,,2017_Oct_18_1834,60.028938241,MAFE4ImagesEEG,001,101846,
AFNE01.JPG,AFNE01.JPG,AFNE01.JPG,AFNE01.JPG,AFNE01.JPG,AFNE01.JPG,,,,,,,,,0,2,2,9,,,,,,,,,,,,,,,AMNE09.jpg,AMSA19.jpg,AMSA13.jpg,AMNE15.jpg,AMSA19.jpg,MS,2,num_6,16,num_6,0.96672969198,,,2017_Oct_18_1834,60.028938241,MAFE4ImagesEEG,001,101846,
AFNE01.JPG,AFNE01.JPG,AFNE01.JPG,AFNE01.JPG,AFNE01.JPG,AFNE01.JPG,,,,,,,,,0,3,3,6,,,,,,,,,,,,,,,AMNE03.jpg,AMNE17.jpg,AMSA16.jpg,AMSA08.jpg,AMNE03.jpg,MN,1,num_8,16,num_8,1.28329861329,,,2017_Oct_18_1834,60.028938241,MAFE4ImagesEEG,001,101846,
AFNE01.JPG,AFNE01.JPG,AFNE01.JPG,AFNE01.JPG,AFNE01.JPG,AFNE01.JPG,,,,,,,,,0,4,4,2,,,,,,,,,,,,,,,AMNE05.jpg,AMSA09.jpg,AMSA16.jpg,AMNE02.jpg,AMSA16.jpg,MS,2,num_2,32,num_6,2.20000449035,,,2017_Oct_18_1834,60.028938241,MAFE4ImagesEEG,001,101846,
AFNE01.JPG,AFNE01.JPG,AFNE01.JPG,AFNE01.JPG,AFNE01.JPG,AFNE01.JPG,,,,,,,,,0,5,5,5,,,,,,,,,,,,,,,AMSA13.jpg,AMNE11.jpg,AMNE10.jpg,AMSA11.jpg,AMNE10.jpg,MN,1,num_2,32,num_6,1.21684844578,,,2017_Oct_18_1834,60.028938241,MAFE4ImagesEEG,001,101846,
AFNE01.JPG,AFNE01.JPG,AFNE01.JPG,AFNE01.JPG,AFNE01.JPG,AFNE01.JPG,,,,,,,,,0,6,6,4,,,,,,,,,,,,,,,AMSA20.jpg,AMSA10.jpg,AMNE13.jpg,AMNE02.jpg,AMNE02.jpg,MN,1,num_4,16,num_4,1.06676288851,,,2017_Oct_18_1834,60.028938241,MAFE4ImagesEEG,001,101846,
AFNE01.JPG,AFNE01.JPG,AFNE01.JPG,AFNE01.JPG,AFNE01.JPG,AFNE01.JPG,,,,,,,,,0,7,7,7,,,,,,,,,,,,,,,AMNE19.jpg,AMSA19.jpg,AMSA05.jpg,AMNE10.jpg,AMNE19.jpg,MN,1,num_8,32,num_2,1.28344583271,,,2017_Oct_18_1834,60.028938241,MAFE4ImagesEEG,001,101846,
AFNE01.JPG,AFNE01.JPG,AFNE01.JPG,AFNE01.JPG,AFNE01.JPG,AFNE01.JPG,,,,,,,,,0,8,8,0,,,,,,,,,,,,,,,AMNE01.jpg,AMSA07.jpg,AMSA09.jpg,AMNE07.jpg,AMNE01.jpg,MN,1,num_8,32,num_4,1.45016526102,,,2017_Oct_18_1834,60.028938241,MAFE4ImagesEEG,001,101846,
AFNE01.JPG,AFNE01.JPG,AFNE01.JPG,AFNE01.JPG,AFNE01.JPG,AFNE01.JPG,,,,,,,,,0,9,9,8,,,,,,,,,,,,,,,AMNE19.jpg,AMNE15.jpg,AMSA13.jpg,AMSA15.jpg,AMSA13.jpg,MS,2,num_2,32,num_4,0.900109211798,,,2017_Oct_18_1834,60.028938241,MAFE4ImagesEEG,001,101846,
AFNE01.JPG,AFNE01.JPG,AFNE01.JPG,AFNE01.JPG,AFNE01.JPG,AFNE01.JPG,,,,,,,,,1,0,10,9,,,,,,,,,,,,,,,AMNE03.jpg,AMNE09.jpg,AMSA20.jpg,AMSA07.jpg,AMSA20.jpg,MS,2,num_2,32,num_6,1.20010135369,,,2017_Oct_18_1834,60.028938241,MAFE4ImagesEEG,001,101846,
AFNE01.JPG,AFNE01.JPG,AFNE01.JPG,AFNE01.JPG,AFNE01.JPG,AFNE01.JPG,,,,,,,,,1,1,11,8,,,,,,,,,,,,,,,AMSA09.jpg,AMSA13.jpg,AMNE17.jpg,AMNE14.jpg,AMSA13.jpg,MS,2,num_6,32,num_8,1.01676344982,,,2017_Oct_18_1834,60.028938241,MAFE4ImagesEEG,001,101846,
AFNE01.JPG,AFNE01.JPG,AFNE01.JPG,AFNE01.JPG,AFNE01.JPG,AFNE01.JPG,,,,,,,,,1,2,12,5,,,,,,,,,,,,,,,AMSA12.jpg,AMNE18.jpg,AMNE05.jpg,AMSA06.jpg,AMSA06.jpg,MS,2,num_4,32,num_6,1.25013831891,,,2017_Oct_18_1834,60.028938241,MAFE4ImagesEEG,001,101846,
AFNE01.JPG,AFNE01.JPG,AFNE01.JPG,AFNE01.JPG,AFNE01.JPG,AFNE01.JPG,,,,,,,,,1,3,13,4,,,,,,,,,,,,,,,AMSA14.jpg,AMSA11.jpg,AMNE14.jpg,AMNE13.jpg,AMNE13.jpg,MN,1,num_4,32,num_2,1.63335658696,,,2017_Oct_18_1834,60.028938241,MAFE4ImagesEEG,001,101846,
AFNE01.JPG,AFNE01.JPG,AFNE01.JPG,AFNE01.JPG,AFNE01.JPG,AFNE01.JPG,,,,,,,,,1,4,14,1,,,,,,,,,,,,,,,AMNE20.jpg,AMNE09.jpg,AMSA19.jpg,AMSA16.jpg,AMNE20.jpg,MN,1,num_8,32,num_6,1.21639010902,,,2017_Oct_18_1834,60.028938241,MAFE4ImagesEEG,001,101846,
AFNE01.JPG,AFNE01.JPG,AFNE01.JPG,AFNE01.JPG,AFNE01.JPG,AFNE01.JPG,,,,,,,,,1,5,15,2,,,,,,,,,,,,,,,AMNE06.jpg,AMNE15.jpg,AMSA03.jpg,AMSA20.jpg,AMNE15.jpg,MN,1,num_6,16,num_6,1.11680081597,,,2017_Oct_18_1834,60.028938241,MAFE4ImagesEEG,001,101846,
AFNE01.JPG,AFNE01.JPG,AFNE01.JPG,AFNE01.JPG,AFNE01.JPG,AFNE01.JPG,,,,,,,,,1,6,16,7,,,,,,,,,,,,,,,AMNE17.jpg,AMNE03.jpg,AMSA02.jpg,AMSA12.jpg,AMSA02.jpg,MS,2,num_2,16,num_2,1.21670443374,,,2017_Oct_18_1834,60.028938241,MAFE4ImagesEEG,001,101846,
AFNE01.JPG,AFNE01.JPG,AFNE01.JPG,AFNE01.JPG,AFNE01.JPG,AFNE01.JPG,,,,,,,,,1,7,17,0,,,,,,,,,,,,,,,AMNE07.jpg,AMNE09.jpg,AMSA18.jpg,AMSA02.jpg,AMNE09.jpg,MN,1,num_6,16,num_6,2.416627777,,,2017_Oct_18_1834,60.028938241,MAFE4ImagesEEG,001,101846,
AFNE01.JPG,AFNE01.JPG,AFNE01.JPG,AFNE01.JPG,AFNE01.JPG,AFNE01.JPG,,,,,,,,,1,8,18,6,,,,,,,,,,,,,,,AMSA17.jpg,AMNE08.jpg,AMNE16.jpg,AMSA20.jpg,AMNE16.jpg,MN,1,num_2,16,num_2,0.883470529661,,,2017_Oct_18_1834,60.028938241,MAFE4ImagesEEG,001,101846,
AFNE01.JPG,AFNE01.JPG,AFNE01.JPG,AFNE01.JPG,AFNE01.JPG,AFNE01.JPG,,,,,,,,,1,9,19,3,,,,,,,,,,,,,,,AMNE02.jpg,AMSA16.jpg,AMSA10.jpg,AMNE13.jpg,AMSA10.jpg,MS,2,num_2,32,num_8,1.23343388517,,,2017_Oct_18_1834,60.028938241,MAFE4ImagesEEG,001,101846,
AFNE01.JPG,AFNE01.JPG,AFNE01.JPG,AFNE01.JPG,AFNE01.JPG,AFNE01.JPG,,,,,,,,,2,0,20,5,,,,,,,,,,,,,,,AMSA19.jpg,AMNE19.jpg,AMNE16.jpg,AMSA18.jpg,AMNE19.jpg,MN,1,num_6,16,num_6,1.0000933352,,,2017_Oct_18_1834,60.028938241,MAFE4ImagesEEG,001,101846,
AFNE01.JPG,AFNE01.JPG,AFNE01.JPG,AFNE01.JPG,AFNE01.JPG,AFNE01.JPG,,,,,,,,,2,1,21,0,,,,,,,,,,,,,,,AMNE20.jpg,AMSA09.jpg,AMSA03.jpg,AMNE10.jpg,AMSA09.jpg,MS,2,num_6,16,num_6,1.35011217864,,,2017_Oct_18_1834,60.028938241,MAFE4ImagesEEG,001,101846,
AFNE01.JPG,AFNE01.JPG,AFNE01.JPG,AFNE01.JPG,AFNE01.JPG,AFNE01.JPG,,,,,,,,,2,2,22,2,,,,,,,,,,,,,,,AMSA17.jpg,AMSA12.jpg,AMNE16.jpg,AMNE17.jpg,AMSA12.jpg,MS,2,num_6,16,num_6,0.766591773994,,,2017_Oct_18_1834,60.028938241,MAFE4ImagesEEG,001,101846,
AFNE01.JPG,AFNE01.JPG,AFNE01.JPG,AFNE01.JPG,AFNE01.JPG,AFNE01.JPG,,,,,,,,,2,3,23,1,,,,,,,,,,,,,,,AMSA04.jpg,AMNE13.jpg,AMSA19.jpg,AMNE06.jpg,AMNE06.jpg,MN,1,num_4,32,num_8,1.18340365546,,,2017_Oct_18_1834,60.028938241,MAFE4ImagesEEG,001,101846,
AFNE01.JPG,AFNE01.JPG,AFNE01.JPG,AFNE01.JPG,AFNE01.JPG,AFNE01.JPG,,,,,,,,,2,4,24,8,,,,,,,,,,,,,,,AMNE13.jpg,AMNE01.jpg,AMSA05.jpg,AMSA13.jpg,AMNE01.jpg,MN,1,num_6,16,num_6,0.833456016189,,,2017_Oct_18_1834,60.028938241,MAFE4ImagesEEG,001,101846,
AFNE01.JPG,AFNE01.JPG,AFNE01.JPG,AFNE01.JPG,AFNE01.JPG,AFNE01.JPG,,,,,,,,,2,5,25,4,,,,,,,,,,,,,,,AMNE04.jpg,AMSA16.jpg,AMSA10.jpg,AMNE16.jpg,AMSA10.jpg,MS,2,num_2,32,num_4,1.78340301399,,,2017_Oct_18_1834,60.028938241,MAFE4ImagesEEG,001,101846,
AFNE01.JPG,AFNE01.JPG,AFNE01.JPG,AFNE01.JPG,AFNE01.JPG,AFNE01.JPG,,,,,,,,,2,6,26,9,,,,,,,,,,,,,,,AMNE17.jpg,AMSA15.jpg,AMSA19.jpg,AMNE03.jpg,AMSA15.jpg,MS,2,num_6,32,num_2,1.30006398752,,,2017_Oct_18_1834,60.028938241,MAFE4ImagesEEG,001,101846,
AFNE01.JPG,AFNE01.JPG,AFNE01.JPG,AFNE01.JPG,AFNE01.JPG,AFNE01.JPG,,,,,,,,,2,7,27,7,,,,,,,,,,,,,,,AMSA18.jpg,AMNE08.jpg,AMSA19.jpg,AMNE02.jpg,AMNE02.jpg,MN,1,num_4,32,num_6,1.06692550344,,,2017_Oct_18_1834,60.028938241,MAFE4ImagesEEG,001,101846,
AFNE01.JPG,AFNE01.JPG,AFNE01.JPG,AFNE01.JPG,AFNE01.JPG,AFNE01.JPG,,,,,,,,,2,8,28,3,,,,,,,,,,,,,,,AMNE01.jpg,AMSA10.jpg,AMNE20.jpg,AMSA12.jpg,AMNE01.jpg,MN,1,num_8,32,num_4,1.10015828494,,,2017_Oct_18_1834,60.028938241,MAFE4ImagesEEG,001,101846,
AFNE01.JPG,AFNE01.JPG,AFNE01.JPG,AFNE01.JPG,AFNE01.JPG,AFNE01.JPG,,,,,,,,,2,9,29,6,,,,,,,,,,,,,,,AMNE07.jpg,AMNE11.jpg,AMSA13.jpg,AMSA20.jpg,AMNE11.jpg,MN,1,num_6,32,num_8,1.13342859296,,,2017_Oct_18_1834,60.028938241,MAFE4ImagesEEG,001,101846,
AFNE01.JPG,AFNE01.JPG,AFNE01.JPG,AFNE01.JPG,AFNE01.JPG,AFNE01.JPG,,,,,,,,,3,0,30,1,,,,,,,,,,,,,,,AMNE19.jpg,AMSA17.jpg,AMSA15.jpg,AMNE01.jpg,AMNE01.jpg,MN,1,num_4,32,num_6,1.61657036464,,,2017_Oct_18_1834,60.028938241,MAFE4ImagesEEG,001,101846,
AFNE01.JPG,AFNE01.JPG,AFNE01.JPG,AFNE01.JPG,AFNE01.JPG,AFNE01.JPG,,,,,,,,,3,1,31,8,,,,,,,,,,,,,,,AMNE14.jpg,AMSA17.jpg,AMNE08.jpg,AMSA20.jpg,AMSA20.jpg,MS,2,num_4,32,num_8,1.98336067637,,,2017_Oct_18_1834,60.028938241,MAFE4ImagesEEG,001,101846,
AFNE01.JPG,AFNE01.JPG,AFNE01.JPG,AFNE01.JPG,AFNE01.JPG,AFNE01.JPG,,,,,,,,,3,2,32,5,,,,,,,,,,,,,,,AMNE06.jpg,AMNE17.jpg,AMSA15.jpg,AMSA07.jpg,AMSA07.jpg,MS,2,num_4,32,num_6,0.933421536698,,,2017_Oct_18_1834,60.028938241,MAFE4ImagesEEG,001,101846,
AFNE01.JPG,AFNE01.JPG,AFNE01.JPG,AFNE01.JPG,AFNE01.JPG,AFNE01.JPG,,,,,,,,,3,3,33,4,,,,,,,,,,,,,,,AMNE13.jpg,AMSA05.jpg,AMSA03.jpg,AMNE19.jpg,AMNE19.jpg,MN,1,num_4,32,num_6,2.38333501721,,,2017_Oct_18_1834,60.028938241,MAFE4ImagesEEG,001,101846,
AFNE01.JPG,AFNE01.JPG,AFNE01.JPG,AFNE01.JPG,AFNE01.JPG,AFNE01.JPG,,,,,,,,,3,4,34,9,,,,,,,,,,,,,,,AMSA10.jpg,AMNE20.jpg,AMSA14.jpg,AMNE17.jpg,AMSA14.jpg,MS,2,num_2,16,num_2,0.750149063679,,,2017_Oct_18_1834,60.028938241,MAFE4ImagesEEG,001,101846,
AFNE01.JPG,AFNE01.JPG,AFNE01.JPG,AFNE01.JPG,AFNE01.JPG,AFNE01.JPG,,,,,,,,,3,5,35,3,,,,,,,,,,,,,,,AMNE04.jpg,AMSA16.jpg,AMSA02.jpg,AMNE11.jpg,AMNE11.jpg,MN,1,num_4,32,num_6,1.38339371255,,,2017_Oct_18_1834,60.028938241,MAFE4ImagesEEG,001,101846,
AFNE01.JPG,AFNE01.JPG,AFNE01.JPG,AFNE01.JPG,AFNE01.JPG,AFNE01.JPG,,,,,,,,,3,6,36,0,,,,,,,,,,,,,,,AMNE16.jpg,AMSA17.jpg,AMSA16.jpg,AMNE17.jpg,AMSA17.jpg,MS,2,num_6,16,num_6,0.700141606489,,,2017_Oct_18_1834,60.028938241,MAFE4ImagesEEG,001,101846,
AFNE01.JPG,AFNE01.JPG,AFNE01.JPG,AFNE01.JPG,AFNE01.JPG,AFNE01.JPG,,,,,,,,,3,7,37,6,,,,,,,,,,,,,,,AMSA07.jpg,AMSA05.jpg,AMNE02.jpg,AMNE11.jpg,AMNE02.jpg,MN,1,num_2,16,num_2,0.550159968829,,,2017_Oct_18_1834,60.028938241,MAFE4ImagesEEG,001,101846,
AFNE01.JPG,AFNE01.JPG,AFNE01.JPG,AFNE01.JPG,AFNE01.JPG,AFNE01.JPG,,,,,,,,,3,8,38,2,,,,,,,,,,,,,,,AMSA02.jpg,AMSA10.jpg,AMNE11.jpg,AMNE01.jpg,AMNE11.jpg,MN,1,num_2,16,num_2,1.55001403236,,,2017_Oct_18_1834,60.028938241,MAFE4ImagesEEG,001,101846,
AFNE01.JPG,AFNE01.JPG,AFNE01.JPG,AFNE01.JPG,AFNE01.JPG,AFNE01.JPG,,,,,,,,,3,9,39,7,,,,,,,,,,,,,,,AMSA12.jpg,AMNE11.jpg,AMSA19.jpg,AMNE05.jpg,AMSA19.jpg,MS,2,num_2,16,num_2,1.44998853357,,,2017_Oct_18_1834,60.028938241,MAFE4ImagesEEG,001,101846,
AFNE01.JPG,AFNE01.JPG,AFNE01.JPG,AFNE01.JPG,AFNE01.JPG,AFNE01.JPG,,,,,,,,,4,0,40,9,,,,,,,,,,,,,,,AMNE05.jpg,AMSA19.jpg,AMSA01.jpg,AMNE13.jpg,AMSA01.jpg,MS,2,num_2,32,num_6,2.20001058441,,,2017_Oct_18_1834,60.028938241,MAFE4ImagesEEG,001,101846,
AFNE01.JPG,AFNE01.JPG,AFNE01.JPG,AFNE01.JPG,AFNE01.JPG,AFNE01.JPG,,,,,,,,,4,1,41,7,,,,,,,,,,,,,,,AMNE09.jpg,AMSA04.jpg,AMSA09.jpg,AMNE03.jpg,AMNE09.jpg,MN,1,num_8,32,num_2,1.1834087873,,,2017_Oct_18_1834,60.028938241,MAFE4ImagesEEG,001,101846,
AFNE01.JPG,AFNE01.JPG,AFNE01.JPG,AFNE01.JPG,AFNE01.JPG,AFNE01.JPG,,,,,,,,,4,2,42,5,,,,,,,,,,,,,,,AMSA20.jpg,AMNE16.jpg,AMNE05.jpg,AMSA10.jpg,AMNE16.jpg,MN,1,num_6,32,num_2,1.43338256684,,,2017_Oct_18_1834,60.028938241,MAFE4ImagesEEG,001,101846,
AFNE01.JPG,AFNE01.JPG,AFNE01.JPG,AFNE01.JPG,AFNE01.JPG,AFNE01.JPG,,,,,,,,,4,3,43,0,,,,,,,,,,,,,,,AMNE14.jpg,AMNE04.jpg,AMSA11.jpg,AMSA15.jpg,AMSA11.jpg,MS,2,num_2,32,num_8,1.01675960093,,,2017_Oct_18_1834,60.028938241,MAFE4ImagesEEG,001,101846,
AFNE01.JPG,AFNE01.JPG,AFNE01.JPG,AFNE01.JPG,AFNE01.JPG,AFNE01.JPG,,,,,,,,,4,4,44,1,,,,,,,,,,,,,,,AMNE12.jpg,AMSA16.jpg,AMSA14.jpg,AMNE07.jpg,AMNE07.jpg,MN,1,num_4,32,num_6,1.00010969292,,,2017_Oct_18_1834,60.028938241,MAFE4ImagesEEG,001,101846,
AFNE01.JPG,AFNE01.JPG,AFNE01.JPG,AFNE01.JPG,AFNE01.JPG,AFNE01.JPG,,,,,,,,,4,5,45,8,,,,,,,,,,,,,,,AMNE14.jpg,AMSA18.jpg,AMSA09.jpg,AMNE11.jpg,AMSA18.jpg,MS,2,num_6,16,num_6,0.950139762237,,,2017_Oct_18_1834,60.028938241,MAFE4ImagesEEG,001,101846,
AFNE01.JPG,AFNE01.JPG,AFNE01.JPG,AFNE01.JPG,AFNE01.JPG,AFNE01.JPG,,,,,,,,,4,6,46,4,,,,,,,,,,,,,,,AMNE16.jpg,AMSA11.jpg,AMSA14.jpg,AMNE18.jpg,AMNE18.jpg,MN,1,num_4,16,num_4,2.46663523419,,,2017_Oct_18_1834,60.028938241,MAFE4ImagesEEG,001,101846,
AFNE01.JPG,AFNE01.JPG,AFNE01.JPG,AFNE01.JPG,AFNE01.JPG,AFNE01.JPG,,,,,,,,,4,7,47,6,,,,,,,,,,,,,,,AMNE03.jpg,AMNE04.jpg,AMSA17.jpg,AMSA12.jpg,AMNE04.jpg,MN,1,num_6,32,num_8,1.3500656714,,,2017_Oct_18_1834,60.028938241,MAFE4ImagesEEG,001,101846,
AFNE01.JPG,AFNE01.JPG,AFNE01.JPG,AFNE01.JPG,AFNE01.JPG,AFNE01.JPG,,,,,,,,,4,8,48,2,,,,,,,,,,,,,,,AMNE03.jpg,AMNE11.jpg,AMSA13.jpg,AMSA18.jpg,AMSA18.jpg,MS,2,num_4,16,num_4,1.15037037394,,,2017_Oct_18_1834,60.028938241,MAFE4ImagesEEG,001,101846,
AFNE01.JPG,AFNE01.JPG,AFNE01.JPG,AFNE01.JPG,AFNE01.JPG,AFNE01.JPG,,,,,,,,,4,9,49,3,,,,,,,,,,,,,,,AMSA03.jpg,AMSA17.jpg,AMNE11.jpg,AMNE20.jpg,AMNE20.jpg,MN,1,num_4,32,num_2,1.68371300872,,,2017_Oct_18_1834,60.028938241,MAFE4ImagesEEG,001,101846,
AFNE01.JPG,AFNE01.JPG,AFNE01.JPG,AFNE01.JPG,AFNE01.JPG,AFNE01.JPG,,,,,,,,,5,0,50,5,,,,,,,,,,,,,,,AMNE09.jpg,AMNE13.jpg,AMSA18.jpg,AMSA07.jpg,AMSA07.jpg,MS,2,num_4,32,num_2,1.88336789301,,,2017_Oct_18_1834,60.028938241,MAFE4ImagesEEG,001,101846,
AFNE01.JPG,AFNE01.JPG,AFNE01.JPG,AFNE01.JPG,AFNE01.JPG,AFNE01.JPG,,,,,,,,,5,1,51,2,,,,,,,,,,,,,,,AMNE06.jpg,AMNE11.jpg,AMSA01.jpg,AMSA04.jpg,AMSA04.jpg,MS,2,num_4,16,num_4,1.11678702416,,,2017_Oct_18_1834,60.028938241,MAFE4ImagesEEG,001,101846,
AFNE01.JPG,AFNE01.JPG,AFNE01.JPG,AFNE01.JPG,AFNE01.JPG,AFNE01.JPG,,,,,,,,,5,2,52,3,,,,,,,,,,,,,,,AMNE02.jpg,AMNE10.jpg,AMSA01.jpg,AMSA09.jpg,AMNE02.jpg,MN,1,num_8,32,num_2,1.1501939672,,,2017_Oct_18_1834,60.028938241,MAFE4ImagesEEG,001,101846,
AFNE01.JPG,AFNE01.JPG,AFNE01.JPG,AFNE01.JPG,AFNE01.JPG,AFNE01.JPG,,,,,,,,,5,3,53,1,,,,,,,,,,,,,,,AMNE12.jpg,AMSA14.jpg,AMSA09.jpg,AMNE07.jpg,AMNE07.jpg,MN,1,num_4,16,num_4,1.16673418233,,,2017_Oct_18_1834,60.028938241,MAFE4ImagesEEG,001,101846,
AFNE01.JPG,AFNE01.JPG,AFNE01.JPG,AFNE01.JPG,AFNE01.JPG,AFNE01.JPG,,,,,,,,,5,4,54,8,,,,,,,,,,,,,,,AMNE09.jpg,AMNE15.jpg,AMSA07.jpg,AMSA06.jpg,AMNE09.jpg,MN,1,num_8,16,num_8,1.00014208759,,,2017_Oct_18_1834,60.028938241,MAFE4ImagesEEG,001,101846,
AFNE01.JPG,AFNE01.JPG,AFNE01.JPG,AFNE01.JPG,AFNE01.JPG,AFNE01.JPG,,,,,,,,,5,5,55,6,,,,,,,,,,,,,,,AMSA04.jpg,AMNE20.jpg,AMNE01.jpg,AMSA14.jpg,AMSA04.jpg,MS,2,num_8,32,num_4,1.50008579782,,,2017_Oct_18_1834,60.028938241,MAFE4ImagesEEG,001,101846,
AFNE01.JPG,AFNE01.JPG,AFNE01.JPG,AFNE01.JPG,AFNE01.JPG,AFNE01.JPG,,,,,,,,,5,6,56,9,,,,,,,,,,,,,,,AMNE03.jpg,AMSA16.jpg,AMNE02.jpg,AMSA11.jpg,AMSA16.jpg,MS,2,num_6,16,num_6,1.40008435449,,,2017_Oct_18_1834,60.028938241,MAFE4ImagesEEG,001,101846,
AFNE01.JPG,AFNE01.JPG,AFNE01.JPG,AFNE01.JPG,AFNE01.JPG,AFNE01.JPG,,,,,,,,,5,7,57,7,,,,,,,,,,,,,,,AMSA01.jpg,AMNE06.jpg,AMSA14.jpg,AMNE13.jpg,AMSA14.jpg,MS,2,num_2,16,num_2,1.00011418326,,,2017_Oct_18_1834,60.028938241,MAFE4ImagesEEG,001,101846,
AFNE01.JPG,AFNE01.JPG,AFNE01.JPG,AFNE01.JPG,AFNE01.JPG,AFNE01.JPG,,,,,,,,,5,8,58,0,,,,,,,,,,,,,,,AMNE09.jpg,AMSA10.jpg,AMSA12.jpg,AMNE02.jpg,AMNE02.jpg,MN,1,num_4,16,num_4,0.916748535426,,,2017_Oct_18_1834,60.028938241,MAFE4ImagesEEG,001,101846,
AFNE01.JPG,AFNE01.JPG,AFNE01.JPG,AFNE01.JPG,AFNE01.JPG,AFNE01.JPG,,,,,,,,,5,9,59,4,,,,,,,,,,,,,,,AMSA13.jpg,AMNE05.jpg,AMNE09.jpg,AMSA10.jpg,AMNE05.jpg,MN,1,num_6,16,num_6,1.13341127303,,,2017_Oct_18_1834,60.028938241,MAFE4ImagesEEG,001,101846,
,,,,,,,,,,,,,,,,,,,,,,,,,,,,,,,,,,,,,,,,,,,space,26.1647423901,2017_Oct_18_1834,60.028938241,MAFE4ImagesEEG,001,101846,
AFNE01.JPG,AFNE01.JPG,AFNE01.JPG,AFNE01.JPG,AFNE01.JPG,AFNE01.JPG,,,,,,,,,,,,,0,0,0,6,,,,,,,,,,,AFSA20.jpg,AFSA01.jpg,AFNE15.jpg,AFNE14.jpg,AFNE15.jpg,FN,3,num_2,16,num_2,1.41669641525,,,2017_Oct_18_1834,60.028938241,MAFE4ImagesEEG,001,101846,
AFNE01.JPG,AFNE01.JPG,AFNE01.JPG,AFNE01.JPG,AFNE01.JPG,AFNE01.JPG,,,,,,,,,,,,,0,1,1,8,,,,,,,,,,,AFSA04.jpg,AFNE13.jpg,AFSA08.jpg,AFNE18.jpg,AFNE18.jpg,FN,3,num_4,16,num_4,0.833455053973,,,2017_Oct_18_1834,60.028938241,MAFE4ImagesEEG,001,101846,
AFNE01.JPG,AFNE01.JPG,AFNE01.JPG,AFNE01.JPG,AFNE01.JPG,AFNE01.JPG,,,,,,,,,,,,,0,2,2,5,,,,,,,,,,,AFSA12.jpg,AFNE06.jpg,AFNE09.jpg,AFSA19.jpg,AFNE09.jpg,FN,3,num_2,32,num_6,0.766786783613,,,2017_Oct_18_1834,60.028938241,MAFE4ImagesEEG,001,101846,
AFNE01.JPG,AFNE01.JPG,AFNE01.JPG,AFNE01.JPG,AFNE01.JPG,AFNE01.JPG,,,,,,,,,,,,,0,3,3,7,,,,,,,,,,,AFNE13.jpg,AFSA07.jpg,AFNE16.jpg,AFSA05.jpg,AFSA05.jpg,FS,4,num_4,32,num_8,0.900153794588,,,2017_Oct_18_1834,60.028938241,MAFE4ImagesEEG,001,101846,
AFNE01.JPG,AFNE01.JPG,AFNE01.JPG,AFNE01.JPG,AFNE01.JPG,AFNE01.JPG,,,,,,,,,,,,,0,4,4,4,,,,,,,,,,,AFNE11.jpg,AFSA18.jpg,AFNE03.jpg,AFSA03.jpg,AFSA18.jpg,FS,4,num_6,32,num_2,1.15007401064,,,2017_Oct_18_1834,60.028938241,MAFE4ImagesEEG,001,101846,
AFNE01.JPG,AFNE01.JPG,AFNE01.JPG,AFNE01.JPG,AFNE01.JPG,AFNE01.JPG,,,,,,,,,,,,,0,5,5,3,,,,,,,,,,,AFNE11.jpg,AFSA01.jpg,AFSA04.jpg,AFNE08.jpg,AFNE08.jpg,FN,3,num_4,16,num_4,1.05009983017,,,2017_Oct_18_1834,60.028938241,MAFE4ImagesEEG,001,101846,
AFNE01.JPG,AFNE01.JPG,AFNE01.JPG,AFNE01.JPG,AFNE01.JPG,AFNE01.JPG,,,,,,,,,,,,,0,6,6,2,,,,,,,,,,,AFNE01.jpg,AFNE05.jpg,AFSA09.jpg,AFSA16.jpg,AFNE05.jpg,FN,3,num_6,16,num_6,0.783517197255,,,2017_Oct_18_1834,60.028938241,MAFE4ImagesEEG,001,101846,
AFNE01.JPG,AFNE01.JPG,AFNE01.JPG,AFNE01.JPG,AFNE01.JPG,AFNE01.JPG,,,,,,,,,,,,,0,7,7,1,,,,,,,,,,,AFNE03.jpg,AFSA08.jpg,AFNE15.jpg,AFSA12.jpg,AFSA08.jpg,FS,4,num_6,16,num_6,1.13345425212,,,2017_Oct_18_1834,60.028938241,MAFE4ImagesEEG,001,101846,
AFNE01.JPG,AFNE01.JPG,AFNE01.JPG,AFNE01.JPG,AFNE01.JPG,AFNE01.JPG,,,,,,,,,,,,,0,8,8,0,,,,,,,,,,,AFSA14.jpg,AFNE10.jpg,AFNE07.jpg,AFSA20.jpg,AFSA14.jpg,FS,4,num_8,32,num_6,1.06675615298,,,2017_Oct_18_1834,60.028938241,MAFE4ImagesEEG,001,101846,
AFNE01.JPG,AFNE01.JPG,AFNE01.JPG,AFNE01.JPG,AFNE01.JPG,AFNE01.JPG,,,,,,,,,,,,,0,9,9,9,,,,,,,,,,,AFSA13.jpg,AFSA17.jpg,AFNE14.jpg,AFNE02.jpg,AFSA17.jpg,FS,4,num_6,32,num_8,1.18341584358,,,2017_Oct_18_1834,60.028938241,MAFE4ImagesEEG,001,101846,
AFNE01.JPG,AFNE01.JPG,AFNE01.JPG,AFNE01.JPG,AFNE01.JPG,AFNE01.JPG,,,,,,,,,,,,,1,0,10,2,,,,,,,,,,,AFSA06.jpg,AFNE05.jpg,AFSA14.jpg,AFNE06.jpg,AFNE05.jpg,FN,3,num_6,32,num_4,1.00016261493,,,2017_Oct_18_1834,60.028938241,MAFE4ImagesEEG,001,101846,
AFNE01.JPG,AFNE01.JPG,AFNE01.JPG,AFNE01.JPG,AFNE01.JPG,AFNE01.JPG,,,,,,,,,,,,,1,1,11,6,,,,,,,,,,,AFNE02.jpg,AFSA16.jpg,AFSA19.jpg,AFNE05.jpg,AFSA19.jpg,FS,4,num_2,32,num_6,1.4666913636,,,2017_Oct_18_1834,60.028938241,MAFE4ImagesEEG,001,101846,
AFNE01.JPG,AFNE01.JPG,AFNE01.JPG,AFNE01.JPG,AFNE01.JPG,AFNE01.JPG,,,,,,,,,,,,,1,2,12,8,,,,,,,,,,,AFNE05.jpg,AFSA12.jpg,AFNE12.jpg,AFSA19.jpg,AFNE05.jpg,FN,3,num_8,16,num_8,1.5000758549,,,2017_Oct_18_1834,60.028938241,MAFE4ImagesEEG,001,101846,
AFNE01.JPG,AFNE01.JPG,AFNE01.JPG,AFNE01.JPG,AFNE01.JPG,AFNE01.JPG,,,,,,,,,,,,,1,3,13,7,,,,,,,,,,,AFSA04.jpg,AFSA15.jpg,AFNE10.jpg,AFNE04.jpg,AFSA04.jpg,FS,4,num_8,16,num_8,1.65003504079,,,2017_Oct_18_1834,60.028938241,MAFE4ImagesEEG,001,101846,
AFNE01.JPG,AFNE01.JPG,AFNE01.JPG,AFNE01.JPG,AFNE01.JPG,AFNE01.JPG,,,,,,,,,,,,,1,4,14,1,,,,,,,,,,,AFSA19.jpg,AFNE06.jpg,AFNE19.jpg,AFSA05.jpg,AFNE19.jpg,FN,3,num_2,32,num_4,1.45008603837,,,2017_Oct_18_1834,60.028938241,MAFE4ImagesEEG,001,101846,
AFNE01.JPG,AFNE01.JPG,AFNE01.JPG,AFNE01.JPG,AFNE01.JPG,AFNE01.JPG,,,,,,,,,,,,,1,5,15,9,,,,,,,,,,,AFNE02.jpg,AFSA06.jpg,AFNE16.jpg,AFSA10.jpg,AFNE02.jpg,FN,3,num_8,32,num_6,0.950107367549,,,2017_Oct_18_1834,60.028938241,MAFE4ImagesEEG,001,101846,
AFNE01.JPG,AFNE01.JPG,AFNE01.JPG,AFNE01.JPG,AFNE01.JPG,AFNE01.JPG,,,,,,,,,,,,,1,6,16,4,,,,,,,,,,,AFNE17.jpg,AFSA08.jpg,AFSA10.jpg,AFNE01.jpg,AFNE17.jpg,FN,3,num_8,32,num_4,0.983437653864,,,2017_Oct_18_1834,60.028938241,MAFE4ImagesEEG,001,101846,
AFNE01.JPG,AFNE01.JPG,AFNE01.JPG,AFNE01.JPG,AFNE01.JPG,AFNE01.JPG,,,,,,,,,,,,,1,7,17,0,,,,,,,,,,,AFNE19.jpg,AFSA07.jpg,AFSA03.jpg,AFNE08.jpg,AFNE19.jpg,FN,3,num_8,32,num_6,0.86672632421,,,2017_Oct_18_1834,60.028938241,MAFE4ImagesEEG,001,101846,
AFNE01.JPG,AFNE01.JPG,AFNE01.JPG,AFNE01.JPG,AFNE01.JPG,AFNE01.JPG,,,,,,,,,,,,,1,8,18,5,,,,,,,,,,,AFSA05.jpg,AFNE19.jpg,AFNE20.jpg,AFSA02.jpg,AFNE19.jpg,FN,3,num_6,32,num_4,0.900217942486,,,2017_Oct_18_1834,60.028938241,MAFE4ImagesEEG,001,101846,
AFNE01.JPG,AFNE01.JPG,AFNE01.JPG,AFNE01.JPG,AFNE01.JPG,AFNE01.JPG,,,,,,,,,,,,,1,9,19,3,,,,,,,,,,,AFNE01.jpg,AFSA01.jpg,AFSA02.jpg,AFNE06.jpg,AFSA02.jpg,FS,4,num_2,16,num_2,1.36672391868,,,2017_Oct_18_1834,60.028938241,MAFE4ImagesEEG,001,101846,
AFNE01.JPG,AFNE01.JPG,AFNE01.JPG,AFNE01.JPG,AFNE01.JPG,AFNE01.JPG,,,,,,,,,,,,,2,0,20,7,,,,,,,,,,,AFNE05.jpg,AFSA17.jpg,AFSA05.jpg,AFNE10.jpg,AFSA05.jpg,FS,4,num_2,32,num_8,0.700112419203,,,2017_Oct_18_1834,60.028938241,MAFE4ImagesEEG,001,101846,
AFNE01.JPG,AFNE01.JPG,AFNE01.JPG,AFNE01.JPG,AFNE01.JPG,AFNE01.JPG,,,,,,,,,,,,,2,1,21,6,,,,,,,,,,,AFNE14.jpg,AFSA05.jpg,AFNE04.jpg,AFSA11.jpg,AFNE04.jpg,FN,3,num_2,32,num_4,0.983431880552,,,2017_Oct_18_1834,60.028938241,MAFE4ImagesEEG,001,101846,
AFNE01.JPG,AFNE01.JPG,AFNE01.JPG,AFNE01.JPG,AFNE01.JPG,AFNE01.JPG,,,,,,,,,,,,,2,2,22,2,,,,,,,,,,,AFSA11.jpg,AFNE09.jpg,AFNE10.jpg,AFSA10.jpg,AFNE09.jpg,FN,3,num_6,16,num_6,0.866454657851,,,2017_Oct_18_1834,60.028938241,MAFE4ImagesEEG,001,101846,
AFNE01.JPG,AFNE01.JPG,AFNE01.JPG,AFNE01.JPG,AFNE01.JPG,AFNE01.JPG,,,,,,,,,,,,,2,3,23,0,,,,,,,,,,,AFSA19.jpg,AFSA10.jpg,AFNE11.jpg,AFNE20.jpg,AFNE11.jpg,FN,3,num_2,32,num_4,1.11667925569,,,2017_Oct_18_1834,60.028938241,MAFE4ImagesEEG,001,101846,
AFNE01.JPG,AFNE01.JPG,AFNE01.JPG,AFNE01.JPG,AFNE01.JPG,AFNE01.JPG,,,,,,,,,,,,,2,4,24,4,,,,,,,,,,,AFNE18.jpg,AFSA11.jpg,AFNE10.jpg,AFSA20.jpg,AFSA20.jpg,FS,4,num_4,32,num_8,0.983436370894,,,2017_Oct_18_1834,60.028938241,MAFE4ImagesEEG,001,101846,
AFNE01.JPG,AFNE01.JPG,AFNE01.JPG,AFNE01.JPG,AFNE01.JPG,AFNE01.JPG,,,,,,,,,,,,,2,5,25,1,,,,,,,,,,,AFNE15.jpg,AFNE11.jpg,AFSA17.jpg,AFSA18.jpg,AFNE15.jpg,FN,3,num_8,32,num_2,1.13342281965,,,2017_Oct_18_1834,60.028938241,MAFE4ImagesEEG,001,101846,
AFNE01.JPG,AFNE01.JPG,AFNE01.JPG,AFNE01.JPG,AFNE01.JPG,AFNE01.JPG,,,,,,,,,,,,,2,6,26,9,,,,,,,,,,,AFSA08.jpg,AFNE04.jpg,AFSA05.jpg,AFNE16.jpg,AFNE16.jpg,FN,3,num_4,32,num_8,2.11667957643,,,2017_Oct_18_1834,60.028938241,MAFE4ImagesEEG,001,101846,
AFNE01.JPG,AFNE01.JPG,AFNE01.JPG,AFNE01.JPG,AFNE01.JPG,AFNE01.JPG,,,,,,,,,,,,,2,7,27,8,,,,,,,,,,,AFNE07.jpg,AFSA09.jpg,AFSA19.jpg,AFNE02.jpg,AFNE07.jpg,FN,3,num_8,16,num_8,0.866769303306,,,2017_Oct_18_1834,60.028938241,MAFE4ImagesEEG,001,101846,
AFNE01.JPG,AFNE01.JPG,AFNE01.JPG,AFNE01.JPG,AFNE01.JPG,AFNE01.JPG,,,,,,,,,,,,,2,8,28,5,,,,,,,,,,,AFNE06.jpg,AFSA19.jpg,AFNE05.jpg,AFSA04.jpg,AFNE06.jpg,FN,3,num_8,16,num_8,2.06668013772,,,2017_Oct_18_1834,60.028938241,MAFE4ImagesEEG,001,101846,
AFNE01.JPG,AFNE01.JPG,AFNE01.JPG,AFNE01.JPG,AFNE01.JPG,AFNE01.JPG,,,,,,,,,,,,,2,9,29,3,,,,,,,,,,,AFSA10.jpg,AFNE10.jpg,AFSA15.jpg,AFNE09.jpg,AFSA10.jpg,FS,4,num_8,16,num_8,1.13345200694,,,2017_Oct_18_1834,60.028938241,MAFE4ImagesEEG,001,101846,
AFNE01.JPG,AFNE01.JPG,AFNE01.JPG,AFNE01.JPG,AFNE01.JPG,AFNE01.JPG,,,,,,,,,,,,,3,0,30,0,,,,,,,,,,,AFNE17.jpg,AFNE12.jpg,AFSA09.jpg,AFSA11.jpg,AFNE12.jpg,FN,3,num_6,16,num_6,1.15008716095,,,2017_Oct_18_1834,60.028938241,MAFE4ImagesEEG,001,101846,
AFNE01.JPG,AFNE01.JPG,AFNE01.JPG,AFNE01.JPG,AFNE01.JPG,AFNE01.JPG,,,,,,,,,,,,,3,1,31,1,,,,,,,,,,,AFNE06.jpg,AFSA01.jpg,AFNE04.jpg,AFSA10.jpg,AFNE04.jpg,FN,3,num_2,32,num_4,1.01677275125,,,2017_Oct_18_1834,60.028938241,MAFE4ImagesEEG,001,101846,
AFNE01.JPG,AFNE01.JPG,AFNE01.JPG,AFNE01.JPG,AFNE01.JPG,AFNE01.JPG,,,,,,,,,,,,,3,2,32,3,,,,,,,,,,,AFNE13.jpg,AFNE05.jpg,AFSA02.jpg,AFSA12.jpg,AFSA02.jpg,FS,4,num_2,32,num_8,1.00008243005,,,2017_Oct_18_1834,60.028938241,MAFE4ImagesEEG,001,101846,
AFNE01.JPG,AFNE01.JPG,AFNE01.JPG,AFNE01.JPG,AFNE01.JPG,AFNE01.JPG,,,,,,,,,,,,,3,3,33,6,,,,,,,,,,,AFSA20.jpg,AFNE11.jpg,AFSA09.jpg,AFNE14.jpg,AFNE14.jpg,FN,3,num_4,32,num_2,1.58336677043,,,2017_Oct_18_1834,60.028938241,MAFE4ImagesEEG,001,101846,
AFNE01.JPG,AFNE01.JPG,AFNE01.JPG,AFNE01.JPG,AFNE01.JPG,AFNE01.JPG,,,,,,,,,,,,,3,4,34,5,,,,,,,,,,,AFNE20.jpg,AFNE06.jpg,AFSA15.jpg,AFSA12.jpg,AFSA12.jpg,FS,4,num_4,32,num_8,1.48339675956,,,2017_Oct_18_1834,60.028938241,MAFE4ImagesEEG,001,101846,
AFNE01.JPG,AFNE01.JPG,AFNE01.JPG,AFNE01.JPG,AFNE01.JPG,AFNE01.JPG,,,,,,,,,,,,,3,5,35,9,,,,,,,,,,,AFSA12.jpg,AFNE11.jpg,AFNE06.jpg,AFSA02.jpg,AFNE06.jpg,FN,3,num_2,16,num_2,1.41668262344,,,2017_Oct_18_1834,60.028938241,MAFE4ImagesEEG,001,101846,
AFNE01.JPG,AFNE01.JPG,AFNE01.JPG,AFNE01.JPG,AFNE01.JPG,AFNE01.JPG,,,,,,,,,,,,,3,6,36,4,,,,,,,,,,,AFNE12.jpg,AFSA14.jpg,AFSA01.jpg,AFNE09.jpg,AFNE12.jpg,FN,3,num_8,16,num_8,0.833487127922,,,2017_Oct_18_1834,60.028938241,MAFE4ImagesEEG,001,101846,
AFNE01.JPG,AFNE01.JPG,AFNE01.JPG,AFNE01.JPG,AFNE01.JPG,AFNE01.JPG,,,,,,,,,,,,,3,7,37,7,,,,,,,,,,,AFNE18.jpg,AFSA07.jpg,AFNE09.jpg,AFSA09.jpg,AFNE18.jpg,FN,3,num_8,32,num_4,0.983443106437,,,2017_Oct_18_1834,60.028938241,MAFE4ImagesEEG,001,101846,
AFNE01.JPG,AFNE01.JPG,AFNE01.JPG,AFNE01.JPG,AFNE01.JPG,AFNE01.JPG,,,,,,,,,,,,,3,8,38,2,,,,,,,,,,,AFNE17.jpg,AFSA08.jpg,AFSA16.jpg,AFNE15.jpg,AFNE15.jpg,FN,3,num_4,32,num_8,0.850097584989,,,2017_Oct_18_1834,60.028938241,MAFE4ImagesEEG,001,101846,
AFNE01.JPG,AFNE01.JPG,AFNE01.JPG,AFNE01.JPG,AFNE01.JPG,AFNE01.JPG,,,,,,,,,,,,,3,9,39,8,,,,,,,,,,,AFSA17.jpg,AFSA01.jpg,AFNE04.jpg,AFNE03.jpg,AFNE03.jpg,FN,3,num_4,32,num_2,1.19996279421,,,2017_Oct_18_1834,60.028938241,MAFE4ImagesEEG,001,101846,
AFNE01.JPG,AFNE01.JPG,AFNE01.JPG,AFNE01.JPG,AFNE01.JPG,AFNE01.JPG,,,,,,,,,,,,,4,0,40,4,,,,,,,,,,,AFSA12.jpg,AFNE09.jpg,AFNE12.jpg,AFSA10.jpg,AFSA10.jpg,FS,4,num_4,32,num_2,1.28341215505,,,2017_Oct_18_1834,60.028938241,MAFE4ImagesEEG,001,101846,
AFNE01.JPG,AFNE01.JPG,AFNE01.JPG,AFNE01.JPG,AFNE01.JPG,AFNE01.JPG,,,,,,,,,,,,,4,1,41,3,,,,,,,,,,,AFNE01.jpg,AFSA05.jpg,AFNE16.jpg,AFSA19.jpg,AFNE01.jpg,FN,3,num_8,32,num_6,1.33345040324,,,2017_Oct_18_1834,60.028938241,MAFE4ImagesEEG,001,101846,
AFNE01.JPG,AFNE01.JPG,AFNE01.JPG,AFNE01.JPG,AFNE01.JPG,AFNE01.JPG,,,,,,,,,,,,,4,2,42,7,,,,,,,,,,,AFNE17.jpg,AFSA03.jpg,AFNE12.jpg,AFSA04.jpg,AFSA04.jpg,FS,4,num_4,16,num_4,1.61670090561,,,2017_Oct_18_1834,60.028938241,MAFE4ImagesEEG,001,101846,
AFNE01.JPG,AFNE01.JPG,AFNE01.JPG,AFNE01.JPG,AFNE01.JPG,AFNE01.JPG,,,,,,,,,,,,,4,3,43,9,,,,,,,,,,,AFSA17.jpg,AFSA11.jpg,AFNE20.jpg,AFNE08.jpg,AFNE20.jpg,FN,3,num_2,32,num_4,1.1997921608,,,2017_Oct_18_1834,60.028938241,MAFE4ImagesEEG,001,101846,
AFNE01.JPG,AFNE01.JPG,AFNE01.JPG,AFNE01.JPG,AFNE01.JPG,AFNE01.JPG,,,,,,,,,,,,,4,4,44,6,,,,,,,,,,,AFSA16.jpg,AFSA04.jpg,AFNE19.jpg,AFNE06.jpg,AFNE19.jpg,FN,3,num_2,16,num_2,1.05031889524,,,2017_Oct_18_1834,60.028938241,MAFE4ImagesEEG,001,101846,
AFNE01.JPG,AFNE01.JPG,AFNE01.JPG,AFNE01.JPG,AFNE01.JPG,AFNE01.JPG,,,,,,,,,,,,,4,5,45,5,,,,,,,,,,,AFNE15.jpg,AFSA14.jpg,AFNE12.jpg,AFSA08.jpg,AFNE12.jpg,FN,3,num_2,32,num_8,0.883450964538,,,2017_Oct_18_1834,60.028938241,MAFE4ImagesEEG,001,101846,
AFNE01.JPG,AFNE01.JPG,AFNE01.JPG,AFNE01.JPG,AFNE01.JPG,AFNE01.JPG,,,,,,,,,,,,,4,6,46,1,,,,,,,,,,,AFNE20.jpg,AFSA01.jpg,AFSA20.jpg,AFNE05.jpg,AFNE20.jpg,FN,3,num_8,16,num_8,2.06703359266,,,2017_Oct_18_1834,60.028938241,MAFE4ImagesEEG,001,101846,
AFNE01.JPG,AFNE01.JPG,AFNE01.JPG,AFNE01.JPG,AFNE01.JPG,AFNE01.JPG,,,,,,,,,,,,,4,7,47,0,,,,,,,,,,,AFSA12.jpg,AFSA13.jpg,AFNE02.jpg,AFNE11.jpg,AFNE11.jpg,FN,3,num_4,16,num_4,1.45009020799,,,2017_Oct_18_1834,60.028938241,MAFE4ImagesEEG,001,101846,
AFNE01.JPG,AFNE01.JPG,AFNE01.JPG,AFNE01.JPG,AFNE01.JPG,AFNE01.JPG,,,,,,,,,,,,,4,8,48,2,,,,,,,,,,,AFSA10.jpg,AFNE02.jpg,AFNE08.jpg,AFSA20.jpg,AFNE08.jpg,FN,3,num_2,32,num_4,3.16657252962,,,2017_Oct_18_1834,60.028938241,MAFE4ImagesEEG,001,101846,
AFNE01.JPG,AFNE01.JPG,AFNE01.JPG,AFNE01.JPG,AFNE01.JPG,AFNE01.JPG,,,,,,,,,,,,,4,9,49,8,,,,,,,,,,,AFNE20.jpg,AFNE06.jpg,AFSA12.jpg,AFSA08.jpg,AFNE06.jpg,FN,3,num_6,16,num_6,1.11659009011,,,2017_Oct_18_1834,60.028938241,MAFE4ImagesEEG,001,101846,
AFNE01.JPG,AFNE01.JPG,AFNE01.JPG,AFNE01.JPG,AFNE01.JPG,AFNE01.JPG,,,,,,,,,,,,,5,0,50,7,,,,,,,,,,,AFSA07.jpg,AFSA15.jpg,AFNE11.jpg,AFNE10.jpg,AFNE11.jpg,FN,3,num_2,16,num_2,0.783441823471,,,2017_Oct_18_1834,60.028938241,MAFE4ImagesEEG,001,101846,
AFNE01.JPG,AFNE01.JPG,AFNE01.JPG,AFNE01.JPG,AFNE01.JPG,AFNE01.JPG,,,,,,,,,,,,,5,1,51,5,,,,,,,,,,,AFNE14.jpg,AFNE13.jpg,AFSA18.jpg,AFSA04.jpg,AFSA18.jpg,FS,4,num_2,32,num_6,1.20053467275,,,2017_Oct_18_1834,60.028938241,MAFE4ImagesEEG,001,101846,
AFNE01.JPG,AFNE01.JPG,AFNE01.JPG,AFNE01.JPG,AFNE01.JPG,AFNE01.JPG,,,,,,,,,,,,,5,2,52,2,,,,,,,,,,,AFNE18.jpg,AFSA15.jpg,AFSA02.jpg,AFNE03.jpg,AFSA15.jpg,FS,4,num_6,16,num_6,1.70003736616,,,2017_Oct_18_1834,60.028938241,MAFE4ImagesEEG,001,101846,
AFNE01.JPG,AFNE01.JPG,AFNE01.JPG,AFNE01.JPG,AFNE01.JPG,AFNE01.JPG,,,,,,,,,,,,,5,3,53,8,,,,,,,,,,,AFSA03.jpg,AFSA02.jpg,AFNE13.jpg,AFNE11.jpg,AFNE13.jpg,FN,3,num_2,32,num_4,0.749817739779,,,2017_Oct_18_1834,60.028938241,MAFE4ImagesEEG,001,101846,
AFNE01.JPG,AFNE01.JPG,AFNE01.JPG,AFNE01.JPG,AFNE01.JPG,AFNE01.JPG,,,,,,,,,,,,,5,4,54,6,,,,,,,,,,,AFSA16.jpg,AFSA02.jpg,AFNE06.jpg,AFNE05.jpg,AFSA16.jpg,FS,4,num_8,16,num_8,1.11672736661,,,2017_Oct_18_1834,60.028938241,MAFE4ImagesEEG,001,101846,
AFNE01.JPG,AFNE01.JPG,AFNE01.JPG,AFNE01.JPG,AFNE01.JPG,AFNE01.JPG,,,,,,,,,,,,,5,5,55,0,,,,,,,,,,,AFNE14.jpg,AFNE02.jpg,AFSA01.jpg,AFSA06.jpg,AFNE14.jpg,FN,3,num_8,32,num_2,0.866777321789,,,2017_Oct_18_1834,60.028938241,MAFE4ImagesEEG,001,101846,
AFNE01.JPG,AFNE01.JPG,AFNE01.JPG,AFNE01.JPG,AFNE01.JPG,AFNE01.JPG,,,,,,,,,,,,,5,6,56,9,,,,,,,,,,,AFSA17.jpg,AFSA07.jpg,AFNE12.jpg,AFNE06.jpg,AFNE06.jpg,FN,3,num_4,16,num_4,1.15007978395,,,2017_Oct_18_1834,60.028938241,MAFE4ImagesEEG,001,101846,
AFNE01.JPG,AFNE01.JPG,AFNE01.JPG,AFNE01.JPG,AFNE01.JPG,AFNE01.JPG,,,,,,,,,,,,,5,7,57,1,,,,,,,,,,,AFNE16.jpg,AFSA16.jpg,AFNE15.jpg,AFSA18.jpg,AFSA16.jpg,FS,4,num_6,16,num_6,1.0501113768,,,2017_Oct_18_1834,60.028938241,MAFE4ImagesEEG,001,101846,
AFNE01.JPG,AFNE01.JPG,AFNE01.JPG,AFNE01.JPG,AFNE01.JPG,AFNE01.JPG,,,,,,,,,,,,,5,8,58,4,,,,,,,,,,,AFNE15.jpg,AFSA14.jpg,AFSA15.jpg,AFNE17.jpg,AFNE17.jpg,FN,3,num_4,16,num_4,1.21672175368,,,2017_Oct_18_1834,60.028938241,MAFE4ImagesEEG,001,101846,
AFNE01.JPG,AFNE01.JPG,AFNE01.JPG,AFNE01.JPG,AFNE01.JPG,AFNE01.JPG,,,,,,,,,,,,,5,9,59,3,,,,,,,,,,,AFNE11.jpg,AFSA17.jpg,AFSA04.jpg,AFNE17.jpg,AFSA17.jpg,FS,4,num_6,32,num_4,0.783454011558,,,2017_Oct_18_1834,60.028938241,MAFE4ImagesEEG,001,101846,
,,,,,,,,,,,,,,,,,,,,,,,,,,,,,,,,,,,,,,,,,,,space,23.3313841994,2017_Oct_18_1834,60.028938241,MAFE4ImagesEEG,001,101846,
AFNE01.JPG,AFNE01.JPG,AFNE01.JPG,AFNE01.JPG,AFNE01.JPG,AFNE01.JPG,,,,,,,,,,,,,,,,,0,0,0,2,,,,,,,AMNE19.jpg,AMSA06.jpg,AMSA16.jpg,AMNE03.jpg,AMNE19.jpg,MN,1,num_8,16,num_8,0.766782293256,,,2017_Oct_18_1834,60.028938241,MAFE4ImagesEEG,001,101846,
AFNE01.JPG,AFNE01.JPG,AFNE01.JPG,AFNE01.JPG,AFNE01.JPG,AFNE01.JPG,,,,,,,,,,,,,,,,,0,1,1,1,,,,,,,AMNE03.jpg,AMSA05.jpg,AMSA13.jpg,AMNE04.jpg,AMNE03.jpg,MN,1,num_8,16,num_8,0.8501203575,,,2017_Oct_18_1834,60.028938241,MAFE4ImagesEEG,001,101846,
AFNE01.JPG,AFNE01.JPG,AFNE01.JPG,AFNE01.JPG,AFNE01.JPG,AFNE01.JPG,,,,,,,,,,,,,,,,,0,2,2,9,,,,,,,AMSA13.jpg,AMNE07.jpg,AMSA05.jpg,AMNE08.jpg,AMSA13.jpg,MS,2,num_8,32,num_6,0.816804183734,,,2017_Oct_18_1834,60.028938241,MAFE4ImagesEEG,001,101846,
AFNE01.JPG,AFNE01.JPG,AFNE01.JPG,AFNE01.JPG,AFNE01.JPG,AFNE01.JPG,,,,,,,,,,,,,,,,,0,3,3,7,,,,,,,AMSA03.jpg,AMSA12.jpg,AMNE17.jpg,AMNE16.jpg,AMNE17.jpg,MN,1,num_2,32,num_8,0.700145776107,,,2017_Oct_18_1834,60.028938241,MAFE4ImagesEEG,001,101846,
AFNE01.JPG,AFNE01.JPG,AFNE01.JPG,AFNE01.JPG,AFNE01.JPG,AFNE01.JPG,,,,,,,,,,,,,,,,,0,4,4,8,,,,,,,AMNE10.jpg,AMNE06.jpg,AMSA16.jpg,AMSA13.jpg,AMSA13.jpg,MS,2,num_4,32,num_8,0.783437974605,,,2017_Oct_18_1834,60.028938241,MAFE4ImagesEEG,001,101846,
AFNE01.JPG,AFNE01.JPG,AFNE01.JPG,AFNE01.JPG,AFNE01.JPG,AFNE01.JPG,,,,,,,,,,,,,,,,,0,5,5,3,,,,,,,AMNE16.jpg,AMSA09.jpg,AMSA13.jpg,AMNE07.jpg,AMSA09.jpg,MS,2,num_6,16,num_6,1.13345874248,,,2017_Oct_18_1834,60.028938241,MAFE4ImagesEEG,001,101846,
AFNE01.JPG,AFNE01.JPG,AFNE01.JPG,AFNE01.JPG,AFNE01.JPG,AFNE01.JPG,,,,,,,,,,,,,,,,,0,6,6,6,,,,,,,AMSA10.jpg,AMNE06.jpg,AMNE16.jpg,AMSA13.jpg,AMNE16.jpg,MN,1,num_2,32,num_4,0.950104160147,,,2017_Oct_18_1834,60.028938241,MAFE4ImagesEEG,001,101846,
AFNE01.JPG,AFNE01.JPG,AFNE01.JPG,AFNE01.JPG,AFNE01.JPG,AFNE01.JPG,,,,,,,,,,,,,,,,,0,7,7,0,,,,,,,AMNE12.jpg,AMSA01.jpg,AMNE04.jpg,AMSA13.jpg,AMNE12.jpg,MN,1,num_8,32,num_6,0.800100070715,,,2017_Oct_18_1834,60.028938241,MAFE4ImagesEEG,001,101846,
AFNE01.JPG,AFNE01.JPG,AFNE01.JPG,AFNE01.JPG,AFNE01.JPG,AFNE01.JPG,,,,,,,,,,,,,,,,,0,8,8,4,,,,,,,AMSA01.jpg,AMSA03.jpg,AMNE05.jpg,AMNE14.jpg,AMNE14.jpg,MN,1,num_4,16,num_4,1.00009878777,,,2017_Oct_18_1834,60.028938241,MAFE4ImagesEEG,001,101846,
AFNE01.JPG,AFNE01.JPG,AFNE01.JPG,AFNE01.JPG,AFNE01.JPG,AFNE01.JPG,,,,,,,,,,,,,,,,,0,9,9,5,,,,,,,AMNE05.jpg,AMSA09.jpg,AMNE04.jpg,AMSA03.jpg,AMSA09.jpg,MS,2,num_6,32,num_8,0.883413758755,,,2017_Oct_18_1834,60.028938241,MAFE4ImagesEEG,001,101846,
AFNE01.JPG,AFNE01.JPG,AFNE01.JPG,AFNE01.JPG,AFNE01.JPG,AFNE01.JPG,,,,,,,,,,,,,,,,,1,0,10,4,,,,,,,AMSA02.jpg,AMSA19.jpg,AMNE10.jpg,AMNE06.jpg,AMNE06.jpg,MN,1,num_4,32,num_2,1.68309430222,,,2017_Oct_18_1834,60.028938241,MAFE4ImagesEEG,001,101846,
AFNE01.JPG,AFNE01.JPG,AFNE01.JPG,AFNE01.JPG,AFNE01.JPG,AFNE01.JPG,,,,,,,,,,,,,,,,,1,1,11,0,,,,,,,AMSA16.jpg,AMNE04.jpg,AMSA10.jpg,AMNE12.jpg,AMSA16.jpg,MS,2,num_8,16,num_8,1.03340213196,,,2017_Oct_18_1834,60.028938241,MAFE4ImagesEEG,001,101846,
AFNE01.JPG,AFNE01.JPG,AFNE01.JPG,AFNE01.JPG,AFNE01.JPG,AFNE01.JPG,,,,,,,,,,,,,,,,,1,2,12,3,,,,,,,AMSA14.jpg,AMNE08.jpg,AMSA12.jpg,AMNE11.jpg,AMNE11.jpg,MN,1,num_4,16,num_4,1.03342907407,,,2017_Oct_18_1834,60.028938241,MAFE4ImagesEEG,001,101846,
AFNE01.JPG,AFNE01.JPG,AFNE01.JPG,AFNE01.JPG,AFNE01.JPG,AFNE01.JPG,,,,,,,,,,,,,,,,,1,3,13,1,,,,,,,AMNE16.jpg,AMSA18.jpg,AMNE08.jpg,AMSA16.jpg,AMNE08.jpg,MN,1,num_2,32,num_6,0.900080024512,,,2017_Oct_18_1834,60.028938241,MAFE4ImagesEEG,001,101846,
AFNE01.JPG,AFNE01.JPG,AFNE01.JPG,AFNE01.JPG,AFNE01.JPG,AFNE01.JPG,,,,,,,,,,,,,,,,,1,4,14,5,,,,,,,AMSA16.jpg,AMSA15.jpg,AMNE08.jpg,AMNE17.jpg,AMNE17.jpg,MN,1,num_4,32,num_8,0.86675422854,,,2017_Oct_18_1834,60.028938241,MAFE4ImagesEEG,001,101846,
AFNE01.JPG,AFNE01.JPG,AFNE01.JPG,AFNE01.JPG,AFNE01.JPG,AFNE01.JPG,,,,,,,,,,,,,,,,,1,5,15,2,,,,,,,AMSA06.jpg,AMNE14.jpg,AMSA04.jpg,AMNE08.jpg,AMSA04.jpg,MS,2,num_2,16,num_2,1.35009197205,,,2017_Oct_18_1834,60.028938241,MAFE4ImagesEEG,001,101846,
AFNE01.JPG,AFNE01.JPG,AFNE01.JPG,AFNE01.JPG,AFNE01.JPG,AFNE01.JPG,,,,,,,,,,,,,,,,,1,6,16,6,,,,,,,AMSA07.jpg,AMNE04.jpg,AMSA09.jpg,AMNE16.jpg,AMSA07.jpg,MS,2,num_8,32,num_2,1.60004682797,,,2017_Oct_18_1834,60.028938241,MAFE4ImagesEEG,001,101846,
AFNE01.JPG,AFNE01.JPG,AFNE01.JPG,AFNE01.JPG,AFNE01.JPG,AFNE01.JPG,,,,,,,,,,,,,,,,,1,7,17,7,,,,,,,AMSA06.jpg,AMSA02.jpg,AMNE08.jpg,AMNE16.jpg,AMSA02.jpg,MS,2,num_6,16,num_6,1.25006230365,,,2017_Oct_18_1834,60.028938241,MAFE4ImagesEEG,001,101846,
AFNE01.JPG,AFNE01.JPG,AFNE01.JPG,AFNE01.JPG,AFNE01.JPG,AFNE01.JPG,,,,,,,,,,,,,,,,,1,8,18,8,,,,,,,AMNE17.jpg,AMSA15.jpg,AMSA12.jpg,AMNE18.jpg,AMNE18.jpg,MN,1,num_4,16,num_4,1.1834209754,,,2017_Oct_18_1834,60.028938241,MAFE4ImagesEEG,001,101846,
AFNE01.JPG,AFNE01.JPG,AFNE01.JPG,AFNE01.JPG,AFNE01.JPG,AFNE01.JPG,,,,,,,,,,,,,,,,,1,9,19,9,,,,,,,AMNE09.jpg,AMSA17.jpg,AMSA18.jpg,AMNE08.jpg,AMSA18.jpg,MS,2,num_2,32,num_6,1.3164730202,,,2017_Oct_18_1834,60.028938241,MAFE4ImagesEEG,001,101846,
AFNE01.JPG,AFNE01.JPG,AFNE01.JPG,AFNE01.JPG,AFNE01.JPG,AFNE01.JPG,,,,,,,,,,,,,,,,,2,0,20,4,,,,,,,AMNE13.jpg,AMSA09.jpg,AMNE16.jpg,AMSA18.jpg,AMNE16.jpg,MN,1,num_2,32,num_8,0.916785099718,,,2017_Oct_18_1834,60.028938241,MAFE4ImagesEEG,001,101846,
AFNE01.JPG,AFNE01.JPG,AFNE01.JPG,AFNE01.JPG,AFNE01.JPG,AFNE01.JPG,,,,,,,,,,,,,,,,,2,1,21,7,,,,,,,AMNE17.jpg,AMSA15.jpg,AMNE18.jpg,AMSA13.jpg,AMNE18.jpg,MN,1,num_2,16,num_2,1.71672127256,,,2017_Oct_18_1834,60.028938241,MAFE4ImagesEEG,001,101846,
AFNE01.JPG,AFNE01.JPG,AFNE01.JPG,AFNE01.JPG,AFNE01.JPG,AFNE01.JPG,,,,,,,,,,,,,,,,,2,2,22,9,,,,,,,AMSA15.jpg,AMSA08.jpg,AMNE07.jpg,AMNE05.jpg,AMNE05.jpg,MN,1,num_4,32,num_6,0.750119234901,,,2017_Oct_18_1834,60.028938241,MAFE4ImagesEEG,001,101846,
AFNE01.JPG,AFNE01.JPG,AFNE01.JPG,AFNE01.JPG,AFNE01.JPG,AFNE01.JPG,,,,,,,,,,,,,,,,,2,3,23,2,,,,,,,AMNE15.jpg,AMNE10.jpg,AMSA18.jpg,AMSA15.jpg,AMSA18.jpg,MS,2,num_2,32,num_4,1.00010135368,,,2017_Oct_18_1834,60.028938241,MAFE4ImagesEEG,001,101846,
AFNE01.JPG,AFNE01.JPG,AFNE01.JPG,AFNE01.JPG,AFNE01.JPG,AFNE01.JPG,,,,,,,,,,,,,,,,,2,4,24,0,,,,,,,AMSA14.jpg,AMSA11.jpg,AMNE16.jpg,AMNE17.jpg,AMNE17.jpg,MN,1,num_4,32,num_8,0.883434606832,,,2017_Oct_18_1834,60.028938241,MAFE4ImagesEEG,001,101846,
AFNE01.JPG,AFNE01.JPG,AFNE01.JPG,AFNE01.JPG,AFNE01.JPG,AFNE01.JPG,,,,,,,,,,,,,,,,,2,5,25,1,,,,,,,AMSA01.jpg,AMNE10.jpg,AMNE19.jpg,AMSA19.jpg,AMSA01.jpg,MS,2,num_8,32,num_2,1.21658191124,,,2017_Oct_18_1834,60.028938241,MAFE4ImagesEEG,001,101846,
AFNE01.JPG,AFNE01.JPG,AFNE01.JPG,AFNE01.JPG,AFNE01.JPG,AFNE01.JPG,,,,,,,,,,,,,,,,,2,6,26,5,,,,,,,AMSA17.jpg,AMNE20.jpg,AMSA15.jpg,AMNE16.jpg,AMSA17.jpg,MS,2,num_8,32,num_4,1.13342795148,,,2017_Oct_18_1834,60.028938241,MAFE4ImagesEEG,001,101846,
AFNE01.JPG,AFNE01.JPG,AFNE01.JPG,AFNE01.JPG,AFNE01.JPG,AFNE01.JPG,,,,,,,,,,,,,,,,,2,7,27,8,,,,,,,AMNE20.jpg,AMSA06.jpg,AMNE13.jpg,AMSA18.jpg,AMSA18.jpg,MS,2,num_4,16,num_4,1.00007601526,,,2017_Oct_18_1834,60.028938241,MAFE4ImagesEEG,001,101846,
AFNE01.JPG,AFNE01.JPG,AFNE01.JPG,AFNE01.JPG,AFNE01.JPG,AFNE01.JPG,,,,,,,,,,,,,,,,,2,8,28,3,,,,,,,AMSA05.jpg,AMSA06.jpg,AMNE07.jpg,AMNE05.jpg,AMSA06.jpg,MS,2,num_6,16,num_6,0.883461548961,,,2017_Oct_18_1834,60.028938241,MAFE4ImagesEEG,001,101846,
AFNE01.JPG,AFNE01.JPG,AFNE01.JPG,AFNE01.JPG,AFNE01.JPG,AFNE01.JPG,,,,,,,,,,,,,,,,,2,9,29,6,,,,,,,AMNE14.jpg,AMSA11.jpg,AMSA03.jpg,AMNE10.jpg,AMNE10.jpg,MN,1,num_4,16,num_4,1.20006671382,,,2017_Oct_18_1834,60.028938241,MAFE4ImagesEEG,001,101846,
AFNE01.JPG,AFNE01.JPG,AFNE01.JPG,AFNE01.JPG,AFNE01.JPG,AFNE01.JPG,,,,,,,,,,,,,,,,,3,0,30,6,,,,,,,AMSA01.jpg,AMNE01.jpg,AMNE05.jpg,AMSA15.jpg,AMSA15.jpg,MS,2,num_4,32,num_8,0.983457539711,,,2017_Oct_18_1834,60.028938241,MAFE4ImagesEEG,001,101846,
AFNE01.JPG,AFNE01.JPG,AFNE01.JPG,AFNE01.JPG,AFNE01.JPG,AFNE01.JPG,,,,,,,,,,,,,,,,,3,1,31,5,,,,,,,AMSA16.jpg,AMSA19.jpg,AMNE04.jpg,AMNE19.jpg,AMSA16.jpg,MS,2,num_8,32,num_6,0.900106004396,,,2017_Oct_18_1834,60.028938241,MAFE4ImagesEEG,001,101846,
AFNE01.JPG,AFNE01.JPG,AFNE01.JPG,AFNE01.JPG,AFNE01.JPG,AFNE01.JPG,,,,,,,,,,,,,,,,,3,2,32,2,,,,,,,AMSA13.jpg,AMNE07.jpg,AMSA03.jpg,AMNE11.jpg,AMSA13.jpg,MS,2,num_8,32,num_2,1.06673626714,,,2017_Oct_18_1834,60.028938241,MAFE4ImagesEEG,001,101846,
AFNE01.JPG,AFNE01.JPG,AFNE01.JPG,AFNE01.JPG,AFNE01.JPG,AFNE01.JPG,,,,,,,,,,,,,,,,,3,3,33,0,,,,,,,AMNE19.jpg,AMSA18.jpg,AMNE04.jpg,AMSA09.jpg,AMNE19.jpg,MN,1,num_8,32,num_4,1.20008563744,,,2017_Oct_18_1834,60.028938241,MAFE4ImagesEEG,001,101846,
AFNE01.JPG,AFNE01.JPG,AFNE01.JPG,AFNE01.JPG,AFNE01.JPG,AFNE01.JPG,,,,,,,,,,,,,,,,,3,4,34,4,,,,,,,AMSA13.jpg,AMSA19.jpg,AMNE03.jpg,AMNE07.jpg,AMNE03.jpg,MN,1,num_2,32,num_6,0.933476383143,,,2017_Oct_18_1834,60.028938241,MAFE4ImagesEEG,001,101846,
AFNE01.JPG,AFNE01.JPG,AFNE01.JPG,AFNE01.JPG,AFNE01.JPG,AFNE01.JPG,,,,,,,,,,,,,,,,,3,5,35,1,,,,,,,AMNE01.jpg,AMSA06.jpg,AMSA01.jpg,AMNE17.jpg,AMSA01.jpg,MS,2,num_2,32,num_8,0.816758638714,,,2017_Oct_18_1834,60.028938241,MAFE4ImagesEEG,001,101846,
AFNE01.JPG,AFNE01.JPG,AFNE01.JPG,AFNE01.JPG,AFNE01.JPG,AFNE01.JPG,,,,,,,,,,,,,,,,,3,6,36,9,,,,,,,AMSA05.jpg,AMNE12.jpg,AMNE15.jpg,AMSA06.jpg,AMNE15.jpg,MN,1,num_2,32,num_4,0.916761044253,,,2017_Oct_18_1834,60.028938241,MAFE4ImagesEEG,001,101846,
AFNE01.JPG,AFNE01.JPG,AFNE01.JPG,AFNE01.JPG,AFNE01.JPG,AFNE01.JPG,,,,,,,,,,,,,,,,,3,7,37,8,,,,,,,AMNE13.jpg,AMSA20.jpg,AMSA11.jpg,AMNE19.jpg,AMNE19.jpg,MN,1,num_4,32,num_8,1.13346547801,,,2017_Oct_18_1834,60.028938241,MAFE4ImagesEEG,001,101846,
AFNE01.JPG,AFNE01.JPG,AFNE01.JPG,AFNE01.JPG,AFNE01.JPG,AFNE01.JPG,,,,,,,,,,,,,,,,,3,8,38,3,,,,,,,AMNE01.jpg,AMNE06.jpg,AMSA15.jpg,AMSA08.jpg,AMNE06.jpg,MN,1,num_6,32,num_2,1.28341953206,,,2017_Oct_18_1834,60.028938241,MAFE4ImagesEEG,001,101846,
AFNE01.JPG,AFNE01.JPG,AFNE01.JPG,AFNE01.JPG,AFNE01.JPG,AFNE01.JPG,,,,,,,,,,,,,,,,,3,9,39,7,,,,,,,AMSA05.jpg,AMSA12.jpg,AMNE15.jpg,AMNE05.jpg,AMNE15.jpg,MN,1,num_2,32,num_4,0.999961190522,,,2017_Oct_18_1834,60.028938241,MAFE4ImagesEEG,001,101846,
AFNE01.JPG,AFNE01.JPG,AFNE01.JPG,AFNE01.JPG,AFNE01.JPG,AFNE01.JPG,,,,,,,,,,,,,,,,,4,0,40,3,,,,,,,AMNE01.jpg,AMSA15.jpg,AMSA12.jpg,AMNE14.jpg,AMSA12.jpg,MS,2,num_2,32,num_6,1.4665858403,,,2017_Oct_18_1834,60.028938241,MAFE4ImagesEEG,001,101846,
AFNE01.JPG,AFNE01.JPG,AFNE01.JPG,AFNE01.JPG,AFNE01.JPG,AFNE01.JPG,,,,,,,,,,,,,,,,,4,1,41,5,,,,,,,AMNE09.jpg,AMNE12.jpg,AMSA10.jpg,AMSA16.jpg,AMNE09.jpg,MN,1,num_8,16,num_8,0.916730894751,,,2017_Oct_18_1834,60.028938241,MAFE4ImagesEEG,001,101846,
AFNE01.JPG,AFNE01.JPG,AFNE01.JPG,AFNE01.JPG,AFNE01.JPG,AFNE01.JPG,,,,,,,,,,,,,,,,,4,2,42,0,,,,,,,AMSA12.jpg,AMNE10.jpg,AMSA11.jpg,AMNE14.jpg,AMNE14.jpg,MN,1,num_4,16,num_4,0.850160449932,,,2017_Oct_18_1834,60.028938241,MAFE4ImagesEEG,001,101846,
AFNE01.JPG,AFNE01.JPG,AFNE01.JPG,AFNE01.JPG,AFNE01.JPG,AFNE01.JPG,,,,,,,,,,,,,,,,,4,3,43,6,,,,,,,AMNE09.jpg,AMNE06.jpg,AMSA14.jpg,AMSA20.jpg,AMNE06.jpg,MN,1,num_6,16,num_6,1.16678550065,,,2017_Oct_18_1834,60.028938241,MAFE4ImagesEEG,001,101846,
AFNE01.JPG,AFNE01.JPG,AFNE01.JPG,AFNE01.JPG,AFNE01.JPG,AFNE01.JPG,,,,,,,,,,,,,,,,,4,4,44,1,,,,,,,AMNE06.jpg,AMSA09.jpg,AMNE13.jpg,AMSA12.jpg,AMNE06.jpg,MN,1,num_8,16,num_8,0.883420815022,,,2017_Oct_18_1834,60.028938241,MAFE4ImagesEEG,001,101846,
AFNE01.JPG,AFNE01.JPG,AFNE01.JPG,AFNE01.JPG,AFNE01.JPG,AFNE01.JPG,,,,,,,,,,,,,,,,,4,5,45,7,,,,,,,AMSA20.jpg,AMNE14.jpg,AMNE03.jpg,AMSA17.jpg,AMNE03.jpg,MN,1,num_2,32,num_6,0.800167426016,,,2017_Oct_18_1834,60.028938241,MAFE4ImagesEEG,001,101846,
AFNE01.JPG,AFNE01.JPG,AFNE01.JPG,AFNE01.JPG,AFNE01.JPG,AFNE01.JPG,,,,,,,,,,,,,,,,,4,6,46,9,,,,,,,AMSA03.jpg,AMNE13.jpg,AMSA07.jpg,AMNE16.jpg,AMSA03.jpg,MS,2,num_8,32,num_4,1.01681348517,,,2017_Oct_18_1834,60.028938241,MAFE4ImagesEEG,001,101846,
AFNE01.JPG,AFNE01.JPG,AFNE01.JPG,AFNE01.JPG,AFNE01.JPG,AFNE01.JPG,,,,,,,,,,,,,,,,,4,7,47,8,,,,,,,AMSA08.jpg,AMNE19.jpg,AMSA15.jpg,AMNE12.jpg,AMSA15.jpg,MS,2,num_2,32,num_6,0.83346595912,,,2017_Oct_18_1834,60.028938241,MAFE4ImagesEEG,001,101846,
AFNE01.JPG,AFNE01.JPG,AFNE01.JPG,AFNE01.JPG,AFNE01.JPG,AFNE01.JPG,,,,,,,,,,,,,,,,,4,8,48,2,,,,,,,AMSA08.jpg,AMSA15.jpg,AMNE15.jpg,AMNE06.jpg,AMNE15.jpg,MN,1,num_2,32,num_8,0.566818216088,,,2017_Oct_18_1834,60.028938241,MAFE4ImagesEEG,001,101846,
AFNE01.JPG,AFNE01.JPG,AFNE01.JPG,AFNE01.JPG,AFNE01.JPG,AFNE01.JPG,,,,,,,,,,,,,,,,,4,9,49,4,,,,,,,AMNE18.jpg,AMSA19.jpg,AMNE13.jpg,AMSA11.jpg,AMSA19.jpg,MS,2,num_6,16,num_6,0.783412315446,,,2017_Oct_18_1834,60.028938241,MAFE4ImagesEEG,001,101846,
AFNE01.JPG,AFNE01.JPG,AFNE01.JPG,AFNE01.JPG,AFNE01.JPG,AFNE01.JPG,,,,,,,,,,,,,,,,,5,0,50,1,,,,,,,AMSA05.jpg,AMSA13.jpg,AMNE05.jpg,AMNE20.jpg,AMSA13.jpg,MS,2,num_6,32,num_2,1.51675142208,,,2017_Oct_18_1834,60.028938241,MAFE4ImagesEEG,001,101846,
AFNE01.JPG,AFNE01.JPG,AFNE01.JPG,AFNE01.JPG,AFNE01.JPG,AFNE01.JPG,,,,,,,,,,,,,,,,,5,1,51,5,,,,,,,AMNE15.jpg,AMNE01.jpg,AMSA08.jpg,AMSA17.jpg,AMSA17.jpg,MS,2,num_4,16,num_4,0.88343524831,,,2017_Oct_18_1834,60.028938241,MAFE4ImagesEEG,001,101846,
AFNE01.JPG,AFNE01.JPG,AFNE01.JPG,AFNE01.JPG,AFNE01.JPG,AFNE01.JPG,,,,,,,,,,,,,,,,,5,2,52,6,,,,,,,AMNE20.jpg,AMSA13.jpg,AMSA15.jpg,AMNE14.jpg,AMSA15.jpg,MS,2,num_2,32,num_8,1.16670884391,,,2017_Oct_18_1834,60.028938241,MAFE4ImagesEEG,001,101846,
AFNE01.JPG,AFNE01.JPG,AFNE01.JPG,AFNE01.JPG,AFNE01.JPG,AFNE01.JPG,,,,,,,,,,,,,,,,,5,3,53,3,,,,,,,AMSA01.jpg,AMSA12.jpg,AMNE14.jpg,AMNE17.jpg,AMSA01.jpg,MS,2,num_8,32,num_2,1.20007056269,,,2017_Oct_18_1834,60.028938241,MAFE4ImagesEEG,001,101846,
AFNE01.JPG,AFNE01.JPG,AFNE01.JPG,AFNE01.JPG,AFNE01.JPG,AFNE01.JPG,,,,,,,,,,,,,,,,,5,4,54,4,,,,,,,AMSA06.jpg,AMSA02.jpg,AMNE09.jpg,AMNE18.jpg,AMSA02.jpg,MS,2,num_6,32,num_4,1.25012581007,,,2017_Oct_18_1834,60.028938241,MAFE4ImagesEEG,001,101846,
AFNE01.JPG,AFNE01.JPG,AFNE01.JPG,AFNE01.JPG,AFNE01.JPG,AFNE01.JPG,,,,,,,,,,,,,,,,,5,5,55,0,,,,,,,AMNE02.jpg,AMSA13.jpg,AMNE19.jpg,AMSA01.jpg,AMSA13.jpg,MS,2,num_6,16,num_6,2.08334640347,,,2017_Oct_18_1834,60.028938241,MAFE4ImagesEEG,001,101846,
AFNE01.JPG,AFNE01.JPG,AFNE01.JPG,AFNE01.JPG,AFNE01.JPG,AFNE01.JPG,,,,,,,,,,,,,,,,,5,6,56,2,,,,,,,AMNE05.jpg,AMNE07.jpg,AMSA14.jpg,AMSA04.jpg,AMNE07.jpg,MN,1,num_6,32,num_2,2.46664004528,,,2017_Oct_18_1834,60.028938241,MAFE4ImagesEEG,001,101846,
AFNE01.JPG,AFNE01.JPG,AFNE01.JPG,AFNE01.JPG,AFNE01.JPG,AFNE01.JPG,,,,,,,,,,,,,,,,,5,7,57,8,,,,,,,AMSA15.jpg,AMSA14.jpg,AMNE04.jpg,AMNE01.jpg,AMNE04.jpg,MN,1,num_2,16,num_2,1.58335811047,,,2017_Oct_18_1834,60.028938241,MAFE4ImagesEEG,001,101846,
AFNE01.JPG,AFNE01.JPG,AFNE01.JPG,AFNE01.JPG,AFNE01.JPG,AFNE01.JPG,,,,,,,,,,,,,,,,,5,8,58,7,,,,,,,AMSA09.jpg,AMNE09.jpg,AMSA02.jpg,AMNE15.jpg,AMNE15.jpg,MN,1,num_4,16,num_4,0.950118914174,,,2017_Oct_18_1834,60.028938241,MAFE4ImagesEEG,001,101846,
AFNE01.JPG,AFNE01.JPG,AFNE01.JPG,AFNE01.JPG,AFNE01.JPG,AFNE01.JPG,,,,,,,,,,,,,,,,,5,9,59,9,,,,,,,AMNE07.jpg,AMSA04.jpg,AMSA17.jpg,AMNE16.jpg,AMSA17.jpg,MS,2,num_2,32,num_6,0.850160129194,,,2017_Oct_18_1834,60.028938241,MAFE4ImagesEEG,001,101846,
,,,,,,,,,,,,,,,,,,,,,,,,,,,,,,,,,,,,,,,,,,,space,27.2810393243,2017_Oct_18_1834,60.028938241,MAFE4ImagesEEG,001,101846,
AFNE01.JPG,AFNE01.JPG,AFNE01.JPG,AFNE01.JPG,AFNE01.JPG,AFNE01.JPG,,,,,,,,,,,,,,,,,,,,,0,0,0,3,,,AFNE14.jpg,AFSA08.jpg,AFSA20.jpg,AFNE05.jpg,AFSA08.jpg,FS,4,num_6,32,num_4,1.36674797413,,,2017_Oct_18_1834,60.028938241,MAFE4ImagesEEG,001,101846,
AFNE01.JPG,AFNE01.JPG,AFNE01.JPG,AFNE01.JPG,AFNE01.JPG,AFNE01.JPG,,,,,,,,,,,,,,,,,,,,,0,1,1,5,,,AFSA09.jpg,AFNE14.jpg,AFNE10.jpg,AFSA13.jpg,AFNE14.jpg,FN,3,num_6,16,num_6,0.816795844497,,,2017_Oct_18_1834,60.028938241,MAFE4ImagesEEG,001,101846,
AFNE01.JPG,AFNE01.JPG,AFNE01.JPG,AFNE01.JPG,AFNE01.JPG,AFNE01.JPG,,,,,,,,,,,,,,,,,,,,,0,2,2,4,,,AFNE18.jpg,AFSA10.jpg,AFSA05.jpg,AFNE17.jpg,AFNE17.jpg,FN,3,num_4,32,num_8,0.866800415039,,,2017_Oct_18_1834,60.028938241,MAFE4ImagesEEG,001,101846,
AFNE01.JPG,AFNE01.JPG,AFNE01.JPG,AFNE01.JPG,AFNE01.JPG,AFNE01.JPG,,,,,,,,,,,,,,,,,,,,,0,3,3,2,,,AFSA15.jpg,AFNE13.jpg,AFSA02.jpg,AFNE07.jpg,AFSA15.jpg,FS,4,num_8,32,num_2,1.1334597047,,,2017_Oct_18_1834,60.028938241,MAFE4ImagesEEG,001,101846,
AFNE01.JPG,AFNE01.JPG,AFNE01.JPG,AFNE01.JPG,AFNE01.JPG,AFNE01.JPG,,,,,,,,,,,,,,,,,,,,,0,4,4,9,,,AFSA05.jpg,AFNE07.jpg,AFSA03.jpg,AFNE04.jpg,AFSA03.jpg,FS,4,num_2,32,num_4,0.850113301232,,,2017_Oct_18_1834,60.028938241,MAFE4ImagesEEG,001,101846,
AFNE01.JPG,AFNE01.JPG,AFNE01.JPG,AFNE01.JPG,AFNE01.JPG,AFNE01.JPG,,,,,,,,,,,,,,,,,,,,,0,5,5,0,,,AFSA04.jpg,AFNE12.jpg,AFNE14.jpg,AFSA19.jpg,AFNE14.jpg,FN,3,num_2,32,num_6,0.967043695942,,,2017_Oct_18_1834,60.028938241,MAFE4ImagesEEG,001,101846,
AFNE01.JPG,AFNE01.JPG,AFNE01.JPG,AFNE01.JPG,AFNE01.JPG,AFNE01.JPG,,,,,,,,,,,,,,,,,,,,,0,6,6,1,,,AFNE01.jpg,AFSA03.jpg,AFNE09.jpg,AFSA14.jpg,AFSA03.jpg,FS,4,num_6,32,num_8,0.866768341075,,,2017_Oct_18_1834,60.028938241,MAFE4ImagesEEG,001,101846,
AFNE01.JPG,AFNE01.JPG,AFNE01.JPG,AFNE01.JPG,AFNE01.JPG,AFNE01.JPG,,,,,,,,,,,,,,,,,,,,,0,7,7,6,,,AFNE09.jpg,AFSA16.jpg,AFNE01.jpg,AFSA06.jpg,AFNE09.jpg,FN,3,num_8,32,num_6,1.16675887928,,,2017_Oct_18_1834,60.028938241,MAFE4ImagesEEG,001,101846,
AFNE01.JPG,AFNE01.JPG,AFNE01.JPG,AFNE01.JPG,AFNE01.JPG,AFNE01.JPG,,,,,,,,,,,,,,,,,,,,,0,8,8,8,,,AFNE03.jpg,AFSA12.jpg,AFSA07.jpg,AFNE16.jpg,AFSA07.jpg,FS,4,num_2,32,num_8,0.666784698798,,,2017_Oct_18_1834,60.028938241,MAFE4ImagesEEG,001,101846,
AFNE01.JPG,AFNE01.JPG,AFNE01.JPG,AFNE01.JPG,AFNE01.JPG,AFNE01.JPG,,,,,,,,,,,,,,,,,,,,,0,9,9,7,,,AFSA20.jpg,AFSA12.jpg,AFNE20.jpg,AFNE11.jpg,AFNE11.jpg,FN,3,num_4,16,num_4,1.11643068258,,,2017_Oct_18_1834,60.028938241,MAFE4ImagesEEG,001,101846,
AFNE01.JPG,AFNE01.JPG,AFNE01.JPG,AFNE01.JPG,AFNE01.JPG,AFNE01.JPG,,,,,,,,,,,,,,,,,,,,,1,0,10,4,,,AFSA13.jpg,AFNE08.jpg,AFNE06.jpg,AFSA06.jpg,AFNE08.jpg,FN,3,num_6,32,num_8,1.10010183479,,,2017_Oct_18_1834,60.028938241,MAFE4ImagesEEG,001,101846,
AFNE01.JPG,AFNE01.JPG,AFNE01.JPG,AFNE01.JPG,AFNE01.JPG,AFNE01.JPG,,,,,,,,,,,,,,,,,,,,,1,1,11,1,,,AFNE03.jpg,AFSA07.jpg,AFNE08.jpg,AFSA09.jpg,AFSA07.jpg,FS,4,num_6,16,num_6,2.38330647141,,,2017_Oct_18_1834,60.028938241,MAFE4ImagesEEG,001,101846,
AFNE01.JPG,AFNE01.JPG,AFNE01.JPG,AFNE01.JPG,AFNE01.JPG,AFNE01.JPG,,,,,,,,,,,,,,,,,,,,,1,2,12,7,,,AFSA20.jpg,AFNE19.jpg,AFSA08.jpg,AFNE14.jpg,AFSA08.jpg,FS,4,num_2,16,num_2,1.15005220035,,,2017_Oct_18_1834,60.028938241,MAFE4ImagesEEG,001,101846,
AFNE01.JPG,AFNE01.JPG,AFNE01.JPG,AFNE01.JPG,AFNE01.JPG,AFNE01.JPG,,,,,,,,,,,,,,,,,,,,,1,3,13,9,,,AFSA08.jpg,AFSA02.jpg,AFNE18.jpg,AFNE20.jpg,AFNE18.jpg,FN,3,num_2,32,num_4,1.04996832697,,,2017_Oct_18_1834,60.028938241,MAFE4ImagesEEG,001,101846,
AFNE01.JPG,AFNE01.JPG,AFNE01.JPG,AFNE01.JPG,AFNE01.JPG,AFNE01.JPG,,,,,,,,,,,,,,,,,,,,,1,4,14,3,,,AFSA04.jpg,AFNE18.jpg,AFNE17.jpg,AFSA13.jpg,AFNE17.jpg,FN,3,num_2,32,num_8,1.45005941699,,,2017_Oct_18_1834,60.028938241,MAFE4ImagesEEG,001,101846,
AFNE01.JPG,AFNE01.JPG,AFNE01.JPG,AFNE01.JPG,AFNE01.JPG,AFNE01.JPG,,,,,,,,,,,,,,,,,,,,,1,5,15,6,,,AFNE16.jpg,AFSA06.jpg,AFSA08.jpg,AFNE05.jpg,AFNE05.jpg,FN,3,num_4,32,num_6,1.01674869579,,,2017_Oct_18_1834,60.028938241,MAFE4ImagesEEG,001,101846,
AFNE01.JPG,AFNE01.JPG,AFNE01.JPG,AFNE01.JPG,AFNE01.JPG,AFNE01.JPG,,,,,,,,,,,,,,,,,,,,,1,6,16,2,,,AFNE13.jpg,AFSA16.jpg,AFSA01.jpg,AFNE14.jpg,AFNE14.jpg,FN,3,num_4,32,num_6,1.76677619921,,,2017_Oct_18_1834,60.028938241,MAFE4ImagesEEG,001,101846,
AFNE01.JPG,AFNE01.JPG,AFNE01.JPG,AFNE01.JPG,AFNE01.JPG,AFNE01.JPG,,,,,,,,,,,,,,,,,,,,,1,7,17,5,,,AFSA07.jpg,AFSA09.jpg,AFNE06.jpg,AFNE13.jpg,AFNE06.jpg,FN,3,num_2,32,num_6,1.13347830759,,,2017_Oct_18_1834,60.028938241,MAFE4ImagesEEG,001,101846,
AFNE01.JPG,AFNE01.JPG,AFNE01.JPG,AFNE01.JPG,AFNE01.JPG,AFNE01.JPG,,,,,,,,,,,,,,,,,,,,,1,8,18,0,,,AFNE10.jpg,AFSA17.jpg,AFNE20.jpg,AFSA16.jpg,AFNE20.jpg,FN,3,num_2,16,num_2,2.05003055044,,,2017_Oct_18_1834,60.028938241,MAFE4ImagesEEG,001,101846,
AFNE01.JPG,AFNE01.JPG,AFNE01.JPG,AFNE01.JPG,AFNE01.JPG,AFNE01.JPG,,,,,,,,,,,,,,,,,,,,,1,9,19,8,,,AFSA02.jpg,AFSA20.jpg,AFNE13.jpg,AFNE19.jpg,AFSA02.jpg,FS,4,num_8,32,num_4,1.39978029345,,,2017_Oct_18_1834,60.028938241,MAFE4ImagesEEG,001,101846,
AFNE01.JPG,AFNE01.JPG,AFNE01.JPG,AFNE01.JPG,AFNE01.JPG,AFNE01.JPG,,,,,,,,,,,,,,,,,,,,,2,0,20,8,,,AFNE13.jpg,AFSA01.jpg,AFNE02.jpg,AFSA05.jpg,AFSA05.jpg,FS,4,num_4,16,num_4,0.866731135306,,,2017_Oct_18_1834,60.028938241,MAFE4ImagesEEG,001,101846,
AFNE01.JPG,AFNE01.JPG,AFNE01.JPG,AFNE01.JPG,AFNE01.JPG,AFNE01.JPG,,,,,,,,,,,,,,,,,,,,,2,1,21,6,,,AFSA11.jpg,AFSA06.jpg,AFNE03.jpg,AFNE11.jpg,AFNE03.jpg,FN,3,num_2,16,num_2,1.20024504498,,,2017_Oct_18_1834,60.028938241,MAFE4ImagesEEG,001,101846,
AFNE01.JPG,AFNE01.JPG,AFNE01.JPG,AFNE01.JPG,AFNE01.JPG,AFNE01.JPG,,,,,,,,,,,,,,,,,,,,,2,2,22,1,,,AFNE04.jpg,AFSA11.jpg,AFNE13.jpg,AFSA01.jpg,AFSA01.jpg,FS,4,num_4,32,num_6,0.950110574937,,,2017_Oct_18_1834,60.028938241,MAFE4ImagesEEG,001,101846,
AFNE01.JPG,AFNE01.JPG,AFNE01.JPG,AFNE01.JPG,AFNE01.JPG,AFNE01.JPG,,,,,,,,,,,,,,,,,,,,,2,3,23,4,,,AFNE17.jpg,AFSA05.jpg,AFSA15.jpg,AFNE16.jpg,AFSA05.jpg,FS,4,num_6,16,num_6,0.800114183265,,,2017_Oct_18_1834,60.028938241,MAFE4ImagesEEG,001,101846,
AFNE01.JPG,AFNE01.JPG,AFNE01.JPG,AFNE01.JPG,AFNE01.JPG,AFNE01.JPG,,,,,,,,,,,,,,,,,,,,,2,4,24,5,,,AFNE08.jpg,AFNE14.jpg,AFSA01.jpg,AFSA20.jpg,AFSA20.jpg,FS,4,num_4,16,num_4,1.11669304749,,,2017_Oct_18_1834,60.028938241,MAFE4ImagesEEG,001,101846,
AFNE01.JPG,AFNE01.JPG,AFNE01.JPG,AFNE01.JPG,AFNE01.JPG,AFNE01.JPG,,,,,,,,,,,,,,,,,,,,,2,5,25,0,,,AFSA12.jpg,AFNE10.jpg,AFSA18.jpg,AFNE02.jpg,AFNE10.jpg,FN,3,num_6,32,num_8,0.949953091855,,,2017_Oct_18_1834,60.028938241,MAFE4ImagesEEG,001,101846,
AFNE01.JPG,AFNE01.JPG,AFNE01.JPG,AFNE01.JPG,AFNE01.JPG,AFNE01.JPG,,,,,,,,,,,,,,,,,,,,,2,6,26,7,,,AFSA14.jpg,AFNE18.jpg,AFNE17.jpg,AFSA18.jpg,AFSA18.jpg,FS,4,num_4,32,num_2,0.883428512781,,,2017_Oct_18_1834,60.028938241,MAFE4ImagesEEG,001,101846,
AFNE01.JPG,AFNE01.JPG,AFNE01.JPG,AFNE01.JPG,AFNE01.JPG,AFNE01.JPG,,,,,,,,,,,,,,,,,,,,,2,7,27,9,,,AFSA18.jpg,AFNE15.jpg,AFSA17.jpg,AFNE11.jpg,AFNE11.jpg,FN,3,num_4,16,num_4,0.966751822998,,,2017_Oct_18_1834,60.028938241,MAFE4ImagesEEG,001,101846,
AFNE01.JPG,AFNE01.JPG,AFNE01.JPG,AFNE01.JPG,AFNE01.JPG,AFNE01.JPG,,,,,,,,,,,,,,,,,,,,,2,8,28,2,,,AFSA18.jpg,AFSA06.jpg,AFNE09.jpg,AFNE05.jpg,AFNE05.jpg,FN,3,num_4,32,num_6,0.983433163507,,,2017_Oct_18_1834,60.028938241,MAFE4ImagesEEG,001,101846,
AFNE01.JPG,AFNE01.JPG,AFNE01.JPG,AFNE01.JPG,AFNE01.JPG,AFNE01.JPG,,,,,,,,,,,,,,,,,,,,,2,9,29,3,,,AFSA10.jpg,AFNE16.jpg,AFNE11.jpg,AFSA17.jpg,AFSA17.jpg,FS,4,num_4,32,num_2,1.03342747038,,,2017_Oct_18_1834,60.028938241,MAFE4ImagesEEG,001,101846,
AFNE01.JPG,AFNE01.JPG,AFNE01.JPG,AFNE01.JPG,AFNE01.JPG,AFNE01.JPG,,,,,,,,,,,,,,,,,,,,,3,0,30,8,,,AFNE03.jpg,AFSA20.jpg,AFSA05.jpg,AFNE15.jpg,AFSA05.jpg,FS,4,num_2,32,num_6,1.13312998449,,,2017_Oct_18_1834,60.028938241,MAFE4ImagesEEG,001,101846,
AFNE01.JPG,AFNE01.JPG,AFNE01.JPG,AFNE01.JPG,AFNE01.JPG,AFNE01.JPG,,,,,,,,,,,,,,,,,,,,,3,1,31,2,,,AFSA03.jpg,AFSA06.jpg,AFNE07.jpg,AFNE04.jpg,AFSA03.jpg,FS,4,num_8,16,num_8,1.03341528228,,,2017_Oct_18_1834,60.028938241,MAFE4ImagesEEG,001,101846,
AFNE01.JPG,AFNE01.JPG,AFNE01.JPG,AFNE01.JPG,AFNE01.JPG,AFNE01.JPG,,,,,,,,,,,,,,,,,,,,,3,2,32,9,,,AFNE12.jpg,AFSA13.jpg,AFSA06.jpg,AFNE10.jpg,AFNE10.jpg,FN,3,num_4,16,num_4,1.18344823827,,,2017_Oct_18_1834,60.028938241,MAFE4ImagesEEG,001,101846,
AFNE01.JPG,AFNE01.JPG,AFNE01.JPG,AFNE01.JPG,AFNE01.JPG,AFNE01.JPG,,,,,,,,,,,,,,,,,,,,,3,3,33,5,,,AFSA18.jpg,AFSA16.jpg,AFNE09.jpg,AFNE13.jpg,AFNE09.jpg,FN,3,num_2,16,num_2,1.58364645527,,,2017_Oct_18_1834,60.028938241,MAFE4ImagesEEG,001,101846,
AFNE01.JPG,AFNE01.JPG,AFNE01.JPG,AFNE01.JPG,AFNE01.JPG,AFNE01.JPG,,,,,,,,,,,,,,,,,,,,,3,4,34,6,,,AFNE02.jpg,AFNE01.jpg,AFSA17.jpg,AFSA16.jpg,AFSA16.jpg,FS,4,num_4,32,num_8,1.66649731621,,,2017_Oct_18_1834,60.028938241,MAFE4ImagesEEG,001,101846,
AFNE01.JPG,AFNE01.JPG,AFNE01.JPG,AFNE01.JPG,AFNE01.JPG,AFNE01.JPG,,,,,,,,,,,,,,,,,,,,,3,5,35,0,,,AFNE15.jpg,AFNE13.jpg,AFSA17.jpg,AFSA01.jpg,AFNE13.jpg,FN,3,num_6,32,num_4,1.23345184658,,,2017_Oct_18_1834,60.028938241,MAFE4ImagesEEG,001,101846,
AFNE01.JPG,AFNE01.JPG,AFNE01.JPG,AFNE01.JPG,AFNE01.JPG,AFNE01.JPG,,,,,,,,,,,,,,,,,,,,,3,6,36,4,,,AFSA11.jpg,AFNE07.jpg,AFSA18.jpg,AFNE08.jpg,AFNE07.jpg,FN,3,num_6,32,num_2,1.26673177678,,,2017_Oct_18_1834,60.028938241,MAFE4ImagesEEG,001,101846,
AFNE01.JPG,AFNE01.JPG,AFNE01.JPG,AFNE01.JPG,AFNE01.JPG,AFNE01.JPG,,,,,,,,,,,,,,,,,,,,,3,7,37,3,,,AFSA05.jpg,AFNE01.jpg,AFNE18.jpg,AFSA18.jpg,AFSA05.jpg,FS,4,num_8,32,num_4,1.01670924484,,,2017_Oct_18_1834,60.028938241,MAFE4ImagesEEG,001,101846,
AFNE01.JPG,AFNE01.JPG,AFNE01.JPG,AFNE01.JPG,AFNE01.JPG,AFNE01.JPG,,,,,,,,,,,,,,,,,,,,,3,8,38,1,,,AFSA13.jpg,AFNE18.jpg,AFSA07.jpg,AFNE07.jpg,AFNE18.jpg,FN,3,num_6,32,num_2,1.30009830666,,,2017_Oct_18_1834,60.028938241,MAFE4ImagesEEG,001,101846,
AFNE01.JPG,AFNE01.JPG,AFNE01.JPG,AFNE01.JPG,AFNE01.JPG,AFNE01.JPG,,,,,,,,,,,,,,,,,,,,,3,9,39,7,,,AFNE17.jpg,AFNE08.jpg,AFSA04.jpg,AFSA16.jpg,AFNE08.jpg,FN,3,num_6,32,num_4,0.933599226366,,,2017_Oct_18_1834,60.028938241,MAFE4ImagesEEG,001,101846,
AFNE01.JPG,AFNE01.JPG,AFNE01.JPG,AFNE01.JPG,AFNE01.JPG,AFNE01.JPG,,,,,,,,,,,,,,,,,,,,,4,0,40,6,,,AFNE10.jpg,AFNE15.jpg,AFSA03.jpg,AFSA10.jpg,AFSA10.jpg,FS,4,num_4,32,num_6,1.26672151312,,,2017_Oct_18_1834,60.028938241,MAFE4ImagesEEG,001,101846,
