IPosition2,IPosition3,IPosition1,IPosition6,IPosition4,IPosition5,TrialsF1.thisRepN,TrialsF1.thisTrialN,TrialsF1.thisN,TrialsF1.thisIndex,TrialsM1.thisRepN,TrialsM1.thisTrialN,TrialsM1.thisN,TrialsM1.thisIndex,TrialsF2.thisRepN,TrialsF2.thisTrialN,TrialsF2.thisN,TrialsF2.thisIndex,TrialsM2.thisRepN,TrialsM2.thisTrialN,TrialsM2.thisN,TrialsM2.thisIndex,TrialsF3.thisRepN,TrialsF3.thisTrialN,TrialsF3.thisN,TrialsF3.thisIndex,TrialsM3.thisRepN,TrialsM3.thisTrialN,TrialsM3.thisN,TrialsM3.thisIndex,InstrKey_resp.keys,InstrKey_resp.rt,Image0 _Position,Image1 _Position,Image2 _Position,Image3 _Position,Center_image,condition,code,correct_answer,accuracy,Key_Resp.keys,Key_Resp.rt,BreakKey_resp.keys,BreakKey_resp.rt,date,frameRate,expName,session,participant,
,,,,,,,,,,,,,,,,,,,,,,,,,,,,,,space,16.1826512314,,,,,,,,,,,,,,2017_Oct_05_1812,59.9252133538,FEMA4ImagesEEG,001,101867,
AMSA25.JPG,AMNE24.JPG,AMSA24.JPG,AMNE26.JPG,AMSA21.JPG,AMNE25.JPG,0,0,0,3,,,,,,,,,,,,,,,,,,,,,,,AFNE10.jpg,AFSA17.jpg,AFSA19.jpg,AFNE01.jpg,AFNE01.jpg,FN,3,num_4,16,num_4,1.74998083577,,,2017_Oct_05_1812,59.9252133538,FEMA4ImagesEEG,001,101867,
AFNE23.JPG,AFNE24.JPG,AFNE22.JPG,AFSA24.JPG,AFSA22.JPG,AFSA23.JPG,0,1,1,8,,,,,,,,,,,,,,,,,,,,,,,AFNE07.jpg,AFNE03.jpg,AFSA14.jpg,AFSA10.jpg,AFNE03.jpg,FN,3,num_6,32,num_2,2.06670015195,,,2017_Oct_05_1812,59.9252133538,FEMA4ImagesEEG,001,101867,
AMNE22.JPG,AMSA24.JPG,AMSA22.JPG,AMNE25.JPG,AMNE24.JPG,AMSA25.JPG,0,2,2,7,,,,,,,,,,,,,,,,,,,,,,,AFNE01.jpg,AFSA07.jpg,AFNE20.jpg,AFSA14.jpg,AFNE20.jpg,FN,3,num_2,16,num_2,2.00007344948,,,2017_Oct_05_1812,59.9252133538,FEMA4ImagesEEG,001,101867,
AMSA21.JPG,AMNE23.JPG,AMNE21.JPG,AMSA25.JPG,AMNE25.JPG,AMSA23.JPG,0,3,3,5,,,,,,,,,,,,,,,,,,,,,,,AFSA18.jpg,AFNE04.jpg,AFNE11.jpg,AFSA07.jpg,AFSA07.jpg,FS,4,num_4,16,num_4,0.733462399163,,,2017_Oct_05_1812,59.9252133538,FEMA4ImagesEEG,001,101867,
AMSA21.JPG,AMNE22.JPG,AMNE21.JPG,AMSA23.JPG,AMSA22.JPG,AMNE23.JPG,0,4,4,1,,,,,,,,,,,,,,,,,,,,,,,AFSA16.jpg,AFSA11.jpg,AFNE13.jpg,AFNE04.jpg,AFNE04.jpg,FN,3,num_4,32,num_8,1.40011014216,,,2017_Oct_05_1812,59.9252133538,FEMA4ImagesEEG,001,101867,
AFSA21.JPG,AFNE22.JPG,AFNE21.JPG,AFSA23.JPG,AFSA22.JPG,AFNE23.JPG,0,5,5,0,,,,,,,,,,,,,,,,,,,,,,,AFSA02.jpg,AFNE06.jpg,AFSA14.jpg,AFNE07.jpg,AFSA02.jpg,FS,4,num_8,32,num_6,1.80006761203,,,2017_Oct_05_1812,59.9252133538,FEMA4ImagesEEG,001,101867,
AMNE23.JPG,AMNE24.JPG,AMNE22.JPG,AMSA24.JPG,AMSA22.JPG,AMSA23.JPG,0,6,6,9,,,,,,,,,,,,,,,,,,,,,,,AFNE10.jpg,AFSA14.jpg,AFNE06.jpg,AFSA11.jpg,AFSA14.jpg,FS,4,num_6,16,num_6,1.38330271869,,,2017_Oct_05_1812,59.9252133538,FEMA4ImagesEEG,001,101867,
AFSA21.JPG,AFNE23.JPG,AFNE21.JPG,AFSA25.JPG,AFNE25.JPG,AFSA23.JPG,0,7,7,4,,,,,,,,,,,,,,,,,,,,,,,AFNE20.jpg,AFSA15.jpg,AFNE06.jpg,AFSA07.jpg,AFSA07.jpg,FS,4,num_4,16,num_4,1.31676678569,,,2017_Oct_05_1812,59.9252133538,FEMA4ImagesEEG,001,101867,
AFNE22.JPG,AFSA24.JPG,AFSA22.JPG,AFNE25.JPG,AFNE24.JPG,AFSA25.JPG,0,8,8,6,,,,,,,,,,,,,,,,,,,,,,,AFSA08.jpg,AFNE17.jpg,AFSA01.jpg,AFNE11.jpg,AFNE11.jpg,FN,3,num_4,32,num_2,2.86660194132,,,2017_Oct_05_1812,59.9252133538,FEMA4ImagesEEG,001,101867,
AFSA25.JPG,AFNE24.JPG,AFSA24.JPG,AFNE21.JPG,AFSA21.JPG,AFNE25.JPG,0,9,9,2,,,,,,,,,,,,,,,,,,,,,,,AFSA12.jpg,AFNE20.jpg,AFNE12.jpg,AFSA04.jpg,AFSA04.jpg,FS,4,num_4,32,num_8,2.29998277625,,,2017_Oct_05_1812,59.9252133538,FEMA4ImagesEEG,001,101867,
AMSA21.JPG,AMNE23.JPG,AMNE21.JPG,AMSA25.JPG,AMNE25.JPG,AMSA23.JPG,,,,,0,0,0,5,,,,,,,,,,,,,,,,,,,AMSA08.jpg,AMSA20.jpg,AMNE08.jpg,AMNE15.jpg,AMSA08.jpg,MS,2,num_8,16,num_8,2.30012935449,,,2017_Oct_05_1812,59.9252133538,FEMA4ImagesEEG,001,101867,
AMSA21.JPG,AMNE22.JPG,AMNE21.JPG,AMSA23.JPG,AMSA22.JPG,AMNE23.JPG,,,,,0,1,1,1,,,,,,,,,,,,,,,,,,,AMNE10.jpg,AMNE18.jpg,AMSA10.jpg,AMSA02.jpg,AMNE18.jpg,MN,1,num_6,16,num_6,1.58341857002,,,2017_Oct_05_1812,59.9252133538,FEMA4ImagesEEG,001,101867,
AFNE22.JPG,AFSA24.JPG,AFSA22.JPG,AFNE25.JPG,AFNE24.JPG,AFSA25.JPG,,,,,0,2,2,6,,,,,,,,,,,,,,,,,,,AMSA08.jpg,AMNE20.jpg,AMSA19.jpg,AMNE08.jpg,AMNE20.jpg,MN,1,num_6,16,num_6,0.833423621661,,,2017_Oct_05_1812,59.9252133538,FEMA4ImagesEEG,001,101867,
AMNE23.JPG,AMNE24.JPG,AMNE22.JPG,AMSA24.JPG,AMSA22.JPG,AMSA23.JPG,,,,,0,3,3,9,,,,,,,,,,,,,,,,,,,AMSA11.jpg,AMSA15.jpg,AMNE06.jpg,AMNE03.jpg,AMSA15.jpg,MS,2,num_6,16,num_6,0.683478259743,,,2017_Oct_05_1812,59.9252133538,FEMA4ImagesEEG,001,101867,
AFSA21.JPG,AFNE22.JPG,AFNE21.JPG,AFSA23.JPG,AFSA22.JPG,AFNE23.JPG,,,,,0,4,4,0,,,,,,,,,,,,,,,,,,,AMNE08.jpg,AMSA03.jpg,AMSA14.jpg,AMNE09.jpg,AMSA14.jpg,MS,2,num_2,16,num_2,0.716648881615,,,2017_Oct_05_1812,59.9252133538,FEMA4ImagesEEG,001,101867,
AFSA21.JPG,AFNE23.JPG,AFNE21.JPG,AFSA25.JPG,AFNE25.JPG,AFSA23.JPG,,,,,0,5,5,4,,,,,,,,,,,,,,,,,,,AMSA01.jpg,AMSA16.jpg,AMNE11.jpg,AMNE17.jpg,AMSA16.jpg,MS,2,num_6,16,num_6,0.700128199824,,,2017_Oct_05_1812,59.9252133538,FEMA4ImagesEEG,001,101867,
AFSA25.JPG,AFNE24.JPG,AFSA24.JPG,AFNE21.JPG,AFSA21.JPG,AFNE25.JPG,,,,,0,6,6,2,,,,,,,,,,,,,,,,,,,AMNE09.jpg,AMSA17.jpg,AMSA06.jpg,AMNE06.jpg,AMSA06.jpg,MS,2,num_2,16,num_2,1.36674418955,,,2017_Oct_05_1812,59.9252133538,FEMA4ImagesEEG,001,101867,
AFNE23.JPG,AFNE24.JPG,AFNE22.JPG,AFSA24.JPG,AFSA22.JPG,AFSA23.JPG,,,,,0,7,7,8,,,,,,,,,,,,,,,,,,,AMNE11.jpg,AMNE07.jpg,AMSA10.jpg,AMSA19.jpg,AMSA19.jpg,MS,2,num_4,16,num_4,1.08343155999,,,2017_Oct_05_1812,59.9252133538,FEMA4ImagesEEG,001,101867,
AMSA25.JPG,AMNE24.JPG,AMSA24.JPG,AMNE26.JPG,AMSA21.JPG,AMNE25.JPG,,,,,0,8,8,3,,,,,,,,,,,,,,,,,,,AMSA16.jpg,AMNE11.jpg,AMNE02.jpg,AMSA13.jpg,AMSA16.jpg,MS,2,num_8,32,num_4,1.93336559978,,,2017_Oct_05_1812,59.9252133538,FEMA4ImagesEEG,001,101867,
AMNE22.JPG,AMSA24.JPG,AMSA22.JPG,AMNE25.JPG,AMNE24.JPG,AMSA25.JPG,,,,,0,9,9,7,,,,,,,,,,,,,,,,,,,AMSA16.jpg,AMSA15.jpg,AMNE11.jpg,AMNE07.jpg,AMNE11.jpg,MN,1,num_2,32,num_6,1.40011174584,,,2017_Oct_05_1812,59.9252133538,FEMA4ImagesEEG,001,101867,
AFSA25.JPG,AFNE24.JPG,AFSA24.JPG,AFNE21.JPG,AFSA21.JPG,AFNE25.JPG,,,,,,,,,0,0,0,2,,,,,,,,,,,,,,,AFNE10.jpg,AFSA20.jpg,AFNE05.jpg,AFSA05.jpg,AFNE05.jpg,FN,3,num_2,32,num_6,1.35004613845,,,2017_Oct_05_1812,59.9252133538,FEMA4ImagesEEG,001,101867,
AFNE22.JPG,AFSA24.JPG,AFSA22.JPG,AFNE25.JPG,AFNE24.JPG,AFSA25.JPG,,,,,,,,,0,1,1,6,,,,,,,,,,,,,,,AFSA06.jpg,AFSA02.jpg,AFNE08.jpg,AFNE12.jpg,AFNE08.jpg,FN,3,num_2,16,num_2,1.40007293632,,,2017_Oct_05_1812,59.9252133538,FEMA4ImagesEEG,001,101867,
AFSA21.JPG,AFNE22.JPG,AFNE21.JPG,AFSA23.JPG,AFSA22.JPG,AFNE23.JPG,,,,,,,,,0,2,2,0,,,,,,,,,,,,,,,AFNE20.jpg,AFSA15.jpg,AFNE07.jpg,AFSA19.jpg,AFSA15.jpg,FS,4,num_6,16,num_6,0.766792749608,,,2017_Oct_05_1812,59.9252133538,FEMA4ImagesEEG,001,101867,
AFSA21.JPG,AFNE23.JPG,AFNE21.JPG,AFSA25.JPG,AFNE25.JPG,AFSA23.JPG,,,,,,,,,0,3,3,4,,,,,,,,,,,,,,,AFNE07.jpg,AFSA01.jpg,AFNE12.jpg,AFSA07.jpg,AFSA07.jpg,FS,4,num_4,16,num_4,1.51669724923,,,2017_Oct_05_1812,59.9252133538,FEMA4ImagesEEG,001,101867,
AMNE22.JPG,AMSA24.JPG,AMSA22.JPG,AMNE25.JPG,AMNE24.JPG,AMSA25.JPG,,,,,,,,,0,4,4,7,,,,,,,,,,,,,,,AFSA02.jpg,AFNE07.jpg,AFNE18.jpg,AFSA07.jpg,AFNE18.jpg,FN,3,num_2,16,num_2,2.18335397297,,,2017_Oct_05_1812,59.9252133538,FEMA4ImagesEEG,001,101867,
AMSA25.JPG,AMNE24.JPG,AMSA24.JPG,AMNE26.JPG,AMSA21.JPG,AMNE25.JPG,,,,,,,,,0,5,5,3,,,,,,,,,,,,,,,AFSA06.jpg,AFNE10.jpg,AFSA03.jpg,AFNE09.jpg,AFNE09.jpg,FN,3,num_4,32,num_6,2.13387499924,,,2017_Oct_05_1812,59.9252133538,FEMA4ImagesEEG,001,101867,
AMSA21.JPG,AMNE23.JPG,AMNE21.JPG,AMSA25.JPG,AMNE25.JPG,AMSA23.JPG,,,,,,,,,0,6,6,5,,,,,,,,,,,,,,,AFNE10.jpg,AFNE03.jpg,AFSA15.jpg,AFSA06.jpg,AFNE10.jpg,FN,3,num_8,32,num_4,1.43318518347,,,2017_Oct_05_1812,59.9252133538,FEMA4ImagesEEG,001,101867,
AMSA21.JPG,AMNE22.JPG,AMNE21.JPG,AMSA23.JPG,AMSA22.JPG,AMNE23.JPG,,,,,,,,,0,7,7,1,,,,,,,,,,,,,,,AFNE03.jpg,AFSA11.jpg,AFSA09.jpg,AFNE01.jpg,AFSA11.jpg,FS,4,num_6,16,num_6,1.40027660629,,,2017_Oct_05_1812,59.9252133538,FEMA4ImagesEEG,001,101867,
AFNE23.JPG,AFNE24.JPG,AFNE22.JPG,AFSA24.JPG,AFSA22.JPG,AFSA23.JPG,,,,,,,,,0,8,8,8,,,,,,,,,,,,,,,AFSA19.jpg,AFNE08.jpg,AFSA12.jpg,AFNE03.jpg,AFNE03.jpg,FN,3,num_4,32,num_6,1.86667122116,,,2017_Oct_05_1812,59.9252133538,FEMA4ImagesEEG,001,101867,
AMNE23.JPG,AMNE24.JPG,AMNE22.JPG,AMSA24.JPG,AMSA22.JPG,AMSA23.JPG,,,,,,,,,0,9,9,9,,,,,,,,,,,,,,,AFSA09.jpg,AFNE07.jpg,AFNE08.jpg,AFSA07.jpg,AFNE08.jpg,FN,3,num_2,16,num_2,2.08344727627,,,2017_Oct_05_1812,59.9252133538,FEMA4ImagesEEG,001,101867,
AFNE23.JPG,AFNE24.JPG,AFNE22.JPG,AFSA24.JPG,AFSA22.JPG,AFSA23.JPG,,,,,,,,,,,,,0,0,0,8,,,,,,,,,,,AMSA06.jpg,AMNE03.jpg,AMNE04.jpg,AMSA20.jpg,AMNE04.jpg,MN,1,num_2,32,num_6,2.20001930854,,,2017_Oct_05_1812,59.9252133538,FEMA4ImagesEEG,001,101867,
AFNE22.JPG,AFSA24.JPG,AFSA22.JPG,AFNE25.JPG,AFNE24.JPG,AFSA25.JPG,,,,,,,,,,,,,0,1,1,6,,,,,,,,,,,AMSA18.jpg,AMNE13.jpg,AMSA05.jpg,AMNE16.jpg,AMSA18.jpg,MS,2,num_8,16,num_8,2.11662495442,,,2017_Oct_05_1812,59.9252133538,FEMA4ImagesEEG,001,101867,
AMNE23.JPG,AMNE24.JPG,AMNE22.JPG,AMSA24.JPG,AMSA22.JPG,AMSA23.JPG,,,,,,,,,,,,,0,2,2,9,,,,,,,,,,,AMSA17.jpg,AMNE17.jpg,AMSA20.jpg,AMNE05.jpg,AMSA17.jpg,MS,2,num_8,32,num_6,1.05007234294,,,2017_Oct_05_1812,59.9252133538,FEMA4ImagesEEG,001,101867,
AFSA25.JPG,AFNE24.JPG,AFSA24.JPG,AFNE21.JPG,AFSA21.JPG,AFNE25.JPG,,,,,,,,,,,,,0,3,3,2,,,,,,,,,,,AMNE02.jpg,AMNE04.jpg,AMSA17.jpg,AMSA02.jpg,AMNE02.jpg,MN,1,num_8,32,num_4,1.28342424711,,,2017_Oct_05_1812,59.9252133538,FEMA4ImagesEEG,001,101867,
AMSA21.JPG,AMNE23.JPG,AMNE21.JPG,AMSA25.JPG,AMNE25.JPG,AMSA23.JPG,,,,,,,,,,,,,0,4,4,5,,,,,,,,,,,AMSA14.jpg,AMNE05.jpg,AMSA19.jpg,AMNE06.jpg,AMNE05.jpg,MN,1,num_6,32,num_2,1.68352316337,,,2017_Oct_05_1812,59.9252133538,FEMA4ImagesEEG,001,101867,
AFSA21.JPG,AFNE22.JPG,AFNE21.JPG,AFSA23.JPG,AFSA22.JPG,AFNE23.JPG,,,,,,,,,,,,,0,5,5,0,,,,,,,,,,,AMNE17.jpg,AMSA18.jpg,AMNE13.jpg,AMSA01.jpg,AMNE13.jpg,MN,1,num_2,16,num_2,0.749822710903,,,2017_Oct_05_1812,59.9252133538,FEMA4ImagesEEG,001,101867,
AMSA21.JPG,AMNE22.JPG,AMNE21.JPG,AMSA23.JPG,AMSA22.JPG,AMNE23.JPG,,,,,,,,,,,,,0,6,6,1,,,,,,,,,,,AMNE10.jpg,AMSA10.jpg,AMNE07.jpg,AMSA06.jpg,AMSA10.jpg,MS,2,num_6,32,num_8,1.40010148217,,,2017_Oct_05_1812,59.9252133538,FEMA4ImagesEEG,001,101867,
AFSA21.JPG,AFNE23.JPG,AFNE21.JPG,AFSA25.JPG,AFNE25.JPG,AFSA23.JPG,,,,,,,,,,,,,0,7,7,4,,,,,,,,,,,AMNE05.jpg,AMSA15.jpg,AMNE01.jpg,AMSA05.jpg,AMSA05.jpg,MS,2,num_4,16,num_4,0.883518416435,,,2017_Oct_05_1812,59.9252133538,FEMA4ImagesEEG,001,101867,
AMSA25.JPG,AMNE24.JPG,AMSA24.JPG,AMNE26.JPG,AMSA21.JPG,AMNE25.JPG,,,,,,,,,,,,,0,8,8,3,,,,,,,,,,,AMNE16.jpg,AMSA11.jpg,AMNE15.jpg,AMSA01.jpg,AMNE15.jpg,MN,1,num_2,16,num_2,1.20040034782,,,2017_Oct_05_1812,59.9252133538,FEMA4ImagesEEG,001,101867,
AMNE22.JPG,AMSA24.JPG,AMSA22.JPG,AMNE25.JPG,AMNE24.JPG,AMSA25.JPG,,,,,,,,,,,,,0,9,9,7,,,,,,,,,,,AMSA07.jpg,AMSA09.jpg,AMNE05.jpg,AMNE04.jpg,AMSA09.jpg,MS,2,num_6,32,num_4,1.60011469666,,,2017_Oct_05_1812,59.9252133538,FEMA4ImagesEEG,001,101867,
AFNE22.JPG,AFSA24.JPG,AFSA22.JPG,AFNE25.JPG,AFNE24.JPG,AFSA25.JPG,,,,,,,,,,,,,,,,,0,0,0,6,,,,,,,AFSA06.jpg,AFNE17.jpg,AFNE14.jpg,AFSA10.jpg,AFNE17.jpg,FN,3,num_6,16,num_6,0.633553136548,,,2017_Oct_05_1812,59.9252133538,FEMA4ImagesEEG,001,101867,
AFSA21.JPG,AFNE23.JPG,AFNE21.JPG,AFSA25.JPG,AFNE25.JPG,AFSA23.JPG,,,,,,,,,,,,,,,,,0,1,1,4,,,,,,,AFSA20.jpg,AFNE15.jpg,AFNE03.jpg,AFSA09.jpg,AFSA09.jpg,FS,4,num_4,16,num_4,1.06672677337,,,2017_Oct_05_1812,59.9252133538,FEMA4ImagesEEG,001,101867,
AMNE22.JPG,AMSA24.JPG,AMSA22.JPG,AMNE25.JPG,AMNE24.JPG,AMSA25.JPG,,,,,,,,,,,,,,,,,0,2,2,7,,,,,,,AFSA14.jpg,AFSA12.jpg,AFNE07.jpg,AFNE11.jpg,AFNE11.jpg,FN,3,num_4,16,num_4,1.30013288264,,,2017_Oct_05_1812,59.9252133538,FEMA4ImagesEEG,001,101867,
AFSA21.JPG,AFNE22.JPG,AFNE21.JPG,AFSA23.JPG,AFSA22.JPG,AFNE23.JPG,,,,,,,,,,,,,,,,,0,3,3,0,,,,,,,AFSA09.jpg,AFNE04.jpg,AFSA04.jpg,AFNE16.jpg,AFSA04.jpg,FS,4,num_2,32,num_6,0.883445929125,,,2017_Oct_05_1812,59.9252133538,FEMA4ImagesEEG,001,101867,
AMSA21.JPG,AMNE23.JPG,AMNE21.JPG,AMSA25.JPG,AMNE25.JPG,AMSA23.JPG,,,,,,,,,,,,,,,,,0,4,4,5,,,,,,,AFSA07.jpg,AFNE15.jpg,AFSA08.jpg,AFNE18.jpg,AFNE18.jpg,FN,3,num_4,32,num_8,1.68350007007,,,2017_Oct_05_1812,59.9252133538,FEMA4ImagesEEG,001,101867,
AFSA25.JPG,AFNE24.JPG,AFSA24.JPG,AFNE21.JPG,AFSA21.JPG,AFNE25.JPG,,,,,,,,,,,,,,,,,0,5,5,2,,,,,,,AFNE05.jpg,AFSA10.jpg,AFNE07.jpg,AFSA02.jpg,AFSA10.jpg,FS,4,num_6,16,num_6,2.51660423461,,,2017_Oct_05_1812,59.9252133538,FEMA4ImagesEEG,001,101867,
AMNE23.JPG,AMNE24.JPG,AMNE22.JPG,AMSA24.JPG,AMSA22.JPG,AMSA23.JPG,,,,,,,,,,,,,,,,,0,6,6,9,,,,,,,AFSA11.jpg,AFNE14.jpg,AFSA10.jpg,AFNE09.jpg,AFNE09.jpg,FN,3,num_4,16,num_4,1.5833855338,,,2017_Oct_05_1812,59.9252133538,FEMA4ImagesEEG,001,101867,
AMSA21.JPG,AMNE22.JPG,AMNE21.JPG,AMSA23.JPG,AMSA22.JPG,AMNE23.JPG,,,,,,,,,,,,,,,,,0,7,7,1,,,,,,,AFNE18.jpg,AFSA06.jpg,AFNE01.jpg,AFSA18.jpg,AFNE18.jpg,FN,3,num_8,16,num_8,1.96676426788,,,2017_Oct_05_1812,59.9252133538,FEMA4ImagesEEG,001,101867,
AFNE23.JPG,AFNE24.JPG,AFNE22.JPG,AFSA24.JPG,AFSA22.JPG,AFSA23.JPG,,,,,,,,,,,,,,,,,0,8,8,8,,,,,,,AFSA17.jpg,AFNE03.jpg,AFNE09.jpg,AFSA09.jpg,AFNE09.jpg,FN,3,num_2,16,num_2,0.866758141754,,,2017_Oct_05_1812,59.9252133538,FEMA4ImagesEEG,001,101867,
AMSA25.JPG,AMNE24.JPG,AMSA24.JPG,AMNE26.JPG,AMSA21.JPG,AMNE25.JPG,,,,,,,,,,,,,,,,,0,9,9,3,,,,,,,AFSA16.jpg,AFSA13.jpg,AFNE07.jpg,AFNE20.jpg,AFNE20.jpg,FN,3,num_4,16,num_4,1.38340278962,,,2017_Oct_05_1812,59.9252133538,FEMA4ImagesEEG,001,101867,
AMNE22.JPG,AMSA24.JPG,AMSA22.JPG,AMNE25.JPG,AMNE24.JPG,AMSA25.JPG,,,,,,,,,,,,,,,,,,,,,0,0,0,7,,,AMNE03.jpg,AMNE04.jpg,AMSA17.jpg,AMSA04.jpg,AMNE03.jpg,MN,1,num_8,32,num_6,1.8000403491,,,2017_Oct_05_1812,59.9252133538,FEMA4ImagesEEG,001,101867,
AFNE23.JPG,AFNE24.JPG,AFNE22.JPG,AFSA24.JPG,AFSA22.JPG,AFSA23.JPG,,,,,,,,,,,,,,,,,,,,,0,1,1,8,,,AMNE14.jpg,AMNE01.jpg,AMSA19.jpg,AMSA15.jpg,AMNE01.jpg,MN,1,num_6,16,num_6,0.800150362949,,,2017_Oct_05_1812,59.9252133538,FEMA4ImagesEEG,001,101867,
AFSA21.JPG,AFNE22.JPG,AFNE21.JPG,AFSA23.JPG,AFSA22.JPG,AFNE23.JPG,,,,,,,,,,,,,,,,,,,,,0,2,2,0,,,AMSA08.jpg,AMNE10.jpg,AMSA14.jpg,AMNE08.jpg,AMSA08.jpg,MS,2,num_8,16,num_8,1.41673538525,,,2017_Oct_05_1812,59.9252133538,FEMA4ImagesEEG,001,101867,
AFNE22.JPG,AFSA24.JPG,AFSA22.JPG,AFNE25.JPG,AFNE24.JPG,AFSA25.JPG,,,,,,,,,,,,,,,,,,,,,0,3,3,6,,,AMSA08.jpg,AMNE05.jpg,AMNE19.jpg,AMSA14.jpg,AMSA08.jpg,MS,2,num_8,32,num_4,0.983445319755,,,2017_Oct_05_1812,59.9252133538,FEMA4ImagesEEG,001,101867,
AMSA21.JPG,AMNE22.JPG,AMNE21.JPG,AMSA23.JPG,AMSA22.JPG,AMNE23.JPG,,,,,,,,,,,,,,,,,,,,,0,4,4,1,,,AMSA11.jpg,AMNE14.jpg,AMNE10.jpg,AMSA14.jpg,AMNE14.jpg,MN,1,num_6,16,num_6,1.61672807237,,,2017_Oct_05_1812,59.9252133538,FEMA4ImagesEEG,001,101867,
AFSA21.JPG,AFNE23.JPG,AFNE21.JPG,AFSA25.JPG,AFNE25.JPG,AFSA23.JPG,,,,,,,,,,,,,,,,,,,,,0,5,5,4,,,AMSA05.jpg,AMNE08.jpg,AMNE10.jpg,AMSA20.jpg,AMNE10.jpg,MN,1,num_2,32,num_6,1.13347439485,,,2017_Oct_05_1812,59.9252133538,FEMA4ImagesEEG,001,101867,
AFSA25.JPG,AFNE24.JPG,AFSA24.JPG,AFNE21.JPG,AFSA21.JPG,AFNE25.JPG,,,,,,,,,,,,,,,,,,,,,0,6,6,2,,,AMSA12.jpg,AMNE17.jpg,AMNE03.jpg,AMSA03.jpg,AMSA12.jpg,MS,2,num_8,32,num_4,0.833499316359,,,2017_Oct_05_1812,59.9252133538,FEMA4ImagesEEG,001,101867,
AMSA25.JPG,AMNE24.JPG,AMSA24.JPG,AMNE26.JPG,AMSA21.JPG,AMNE25.JPG,,,,,,,,,,,,,,,,,,,,,0,7,7,3,,,AMSA05.jpg,AMSA15.jpg,AMNE12.jpg,AMNE01.jpg,AMSA05.jpg,MS,2,num_8,32,num_2,3.01662492234,,,2017_Oct_05_1812,59.9252133538,FEMA4ImagesEEG,001,101867,
AMSA21.JPG,AMNE23.JPG,AMNE21.JPG,AMSA25.JPG,AMNE25.JPG,AMSA23.JPG,,,,,,,,,,,,,,,,,,,,,0,8,8,5,,,AMNE04.jpg,AMSA12.jpg,AMNE14.jpg,AMSA01.jpg,AMNE04.jpg,MN,1,num_8,16,num_8,1.41673474375,,,2017_Oct_05_1812,59.9252133538,FEMA4ImagesEEG,001,101867,
AMNE23.JPG,AMNE24.JPG,AMNE22.JPG,AMSA24.JPG,AMSA22.JPG,AMSA23.JPG,,,,,,,,,,,,,,,,,,,,,0,9,9,9,,,AMSA11.jpg,AMNE17.jpg,AMSA03.jpg,AMNE06.jpg,AMNE06.jpg,MN,1,num_4,16,num_4,0.850241629581,,,2017_Oct_05_1812,59.9252133538,FEMA4ImagesEEG,001,101867,
,,,,,,,,,,,,,,,,,,,,,,,,,,,,,,,,,,,,,,,,,,,space,9.09950737527,2017_Oct_05_1812,59.9252133538,FEMA4ImagesEEG,001,101867,
AFNE01.JPG,AFNE01.JPG,AFNE01.JPG,AFNE01.JPG,AFNE01.JPG,AFNE01.JPG,0,0,0,7,,,,,,,,,,,,,,,,,,,,,,,AFNE01.jpg,AFSA17.jpg,AFNE20.jpg,AFSA06.jpg,AFSA17.jpg,FS,4,num_6,32,num_2,1.41674019635,,,2017_Oct_05_1812,59.9252133538,FEMA4ImagesEEG,001,101867,
AFNE01.JPG,AFNE01.JPG,AFNE01.JPG,AFNE01.JPG,AFNE01.JPG,AFNE01.JPG,0,1,1,8,,,,,,,,,,,,,,,,,,,,,,,AFNE19.jpg,AFNE15.jpg,AFSA04.jpg,AFSA10.jpg,AFSA04.jpg,FS,4,num_2,32,num_8,1.15019104883,,,2017_Oct_05_1812,59.9252133538,FEMA4ImagesEEG,001,101867,
AFNE01.JPG,AFNE01.JPG,AFNE01.JPG,AFNE01.JPG,AFNE01.JPG,AFNE01.JPG,0,2,2,0,,,,,,,,,,,,,,,,,,,,,,,AFSA05.jpg,AFNE12.jpg,AFSA10.jpg,AFNE11.jpg,AFNE12.jpg,FN,3,num_6,32,num_8,1.10010106521,,,2017_Oct_05_1812,59.9252133538,FEMA4ImagesEEG,001,101867,
AFNE01.JPG,AFNE01.JPG,AFNE01.JPG,AFNE01.JPG,AFNE01.JPG,AFNE01.JPG,0,3,3,5,,,,,,,,,,,,,,,,,,,,,,,AFSA13.jpg,AFSA19.jpg,AFNE19.jpg,AFNE12.jpg,AFSA19.jpg,FS,4,num_6,16,num_6,1.40008352074,,,2017_Oct_05_1812,59.9252133538,FEMA4ImagesEEG,001,101867,
AFNE01.JPG,AFNE01.JPG,AFNE01.JPG,AFNE01.JPG,AFNE01.JPG,AFNE01.JPG,0,4,4,4,,,,,,,,,,,,,,,,,,,,,,,AFSA08.jpg,AFNE19.jpg,AFNE06.jpg,AFSA02.jpg,AFNE06.jpg,FN,3,num_2,32,num_8,1.21648867193,,,2017_Oct_05_1812,59.9252133538,FEMA4ImagesEEG,001,101867,
AFNE01.JPG,AFNE01.JPG,AFNE01.JPG,AFNE01.JPG,AFNE01.JPG,AFNE01.JPG,0,5,5,2,,,,,,,,,,,,,,,,,,,,,,,AFSA07.jpg,AFSA17.jpg,AFNE04.jpg,AFNE03.jpg,AFNE04.jpg,FN,3,num_2,32,num_8,1.41671293342,,,2017_Oct_05_1812,59.9252133538,FEMA4ImagesEEG,001,101867,
AFNE01.JPG,AFNE01.JPG,AFNE01.JPG,AFNE01.JPG,AFNE01.JPG,AFNE01.JPG,0,6,6,9,,,,,,,,,,,,,,,,,,,,,,,AFNE12.jpg,AFSA07.jpg,AFSA05.jpg,AFNE14.jpg,AFNE12.jpg,FN,3,num_8,16,num_8,1.01661946974,,,2017_Oct_05_1812,59.9252133538,FEMA4ImagesEEG,001,101867,
AFNE01.JPG,AFNE01.JPG,AFNE01.JPG,AFNE01.JPG,AFNE01.JPG,AFNE01.JPG,0,7,7,3,,,,,,,,,,,,,,,,,,,,,,,AFSA02.jpg,AFSA01.jpg,AFNE06.jpg,AFNE01.jpg,AFSA02.jpg,FS,4,num_8,32,num_4,1.41670683937,,,2017_Oct_05_1812,59.9252133538,FEMA4ImagesEEG,001,101867,
AFNE01.JPG,AFNE01.JPG,AFNE01.JPG,AFNE01.JPG,AFNE01.JPG,AFNE01.JPG,0,8,8,6,,,,,,,,,,,,,,,,,,,,,,,AFNE15.jpg,AFNE19.jpg,AFSA15.jpg,AFSA08.jpg,AFSA08.jpg,FS,4,num_4,32,num_2,1.26671240421,,,2017_Oct_05_1812,59.9252133538,FEMA4ImagesEEG,001,101867,
AFNE01.JPG,AFNE01.JPG,AFNE01.JPG,AFNE01.JPG,AFNE01.JPG,AFNE01.JPG,0,9,9,1,,,,,,,,,,,,,,,,,,,,,,,AFSA09.jpg,AFSA07.jpg,AFNE20.jpg,AFNE04.jpg,AFSA07.jpg,FS,4,num_6,16,num_6,3.29992664675,,,2017_Oct_05_1812,59.9252133538,FEMA4ImagesEEG,001,101867,
AFNE01.JPG,AFNE01.JPG,AFNE01.JPG,AFNE01.JPG,AFNE01.JPG,AFNE01.JPG,1,0,10,6,,,,,,,,,,,,,,,,,,,,,,,AFNE09.jpg,AFSA04.jpg,AFNE15.jpg,AFSA11.jpg,AFNE15.jpg,FN,3,num_2,16,num_2,1.26688400016,,,2017_Oct_05_1812,59.9252133538,FEMA4ImagesEEG,001,101867,
AFNE01.JPG,AFNE01.JPG,AFNE01.JPG,AFNE01.JPG,AFNE01.JPG,AFNE01.JPG,1,1,11,9,,,,,,,,,,,,,,,,,,,,,,,AFSA10.jpg,AFNE05.jpg,AFSA19.jpg,AFNE16.jpg,AFNE16.jpg,FN,3,num_4,16,num_4,0.933325827995,,,2017_Oct_05_1812,59.9252133538,FEMA4ImagesEEG,001,101867,
AFNE01.JPG,AFNE01.JPG,AFNE01.JPG,AFNE01.JPG,AFNE01.JPG,AFNE01.JPG,1,2,12,4,,,,,,,,,,,,,,,,,,,,,,,AFNE17.jpg,AFSA12.jpg,AFNE10.jpg,AFSA17.jpg,AFSA12.jpg,FS,4,num_6,32,num_8,0.90016354539,,,2017_Oct_05_1812,59.9252133538,FEMA4ImagesEEG,001,101867,
AFNE01.JPG,AFNE01.JPG,AFNE01.JPG,AFNE01.JPG,AFNE01.JPG,AFNE01.JPG,1,3,13,0,,,,,,,,,,,,,,,,,,,,,,,AFNE02.jpg,AFSA04.jpg,AFNE13.jpg,AFSA10.jpg,AFNE02.jpg,FN,3,num_8,32,num_6,1.64987880833,,,2017_Oct_05_1812,59.9252133538,FEMA4ImagesEEG,001,101867,
AFNE01.JPG,AFNE01.JPG,AFNE01.JPG,AFNE01.JPG,AFNE01.JPG,AFNE01.JPG,1,4,14,7,,,,,,,,,,,,,,,,,,,,,,,AFSA17.jpg,AFNE14.jpg,AFNE18.jpg,AFSA13.jpg,AFNE14.jpg,FN,3,num_6,16,num_6,0.533595121407,,,2017_Oct_05_1812,59.9252133538,FEMA4ImagesEEG,001,101867,
AFNE01.JPG,AFNE01.JPG,AFNE01.JPG,AFNE01.JPG,AFNE01.JPG,AFNE01.JPG,1,5,15,1,,,,,,,,,,,,,,,,,,,,,,,AFNE01.jpg,AFNE11.jpg,AFSA15.jpg,AFSA19.jpg,AFSA19.jpg,FS,4,num_4,32,num_8,1.21675199957,,,2017_Oct_05_1812,59.9252133538,FEMA4ImagesEEG,001,101867,
AFNE01.JPG,AFNE01.JPG,AFNE01.JPG,AFNE01.JPG,AFNE01.JPG,AFNE01.JPG,1,6,16,8,,,,,,,,,,,,,,,,,,,,,,,AFSA02.jpg,AFNE11.jpg,AFNE20.jpg,AFSA15.jpg,AFSA15.jpg,FS,4,num_4,32,num_2,1.43345364297,,,2017_Oct_05_1812,59.9252133538,FEMA4ImagesEEG,001,101867,
AFNE01.JPG,AFNE01.JPG,AFNE01.JPG,AFNE01.JPG,AFNE01.JPG,AFNE01.JPG,1,7,17,3,,,,,,,,,,,,,,,,,,,,,,,AFSA04.jpg,AFSA03.jpg,AFNE15.jpg,AFNE12.jpg,AFSA04.jpg,FS,4,num_8,16,num_8,4.00028449649,,,2017_Oct_05_1812,59.9252133538,FEMA4ImagesEEG,001,101867,
AFNE01.JPG,AFNE01.JPG,AFNE01.JPG,AFNE01.JPG,AFNE01.JPG,AFNE01.JPG,1,8,18,5,,,,,,,,,,,,,,,,,,,,,,,AFNE12.jpg,AFSA13.jpg,AFNE17.jpg,AFSA15.jpg,AFNE12.jpg,FN,3,num_8,32,num_6,1.53341165805,,,2017_Oct_05_1812,59.9252133538,FEMA4ImagesEEG,001,101867,
AFNE01.JPG,AFNE01.JPG,AFNE01.JPG,AFNE01.JPG,AFNE01.JPG,AFNE01.JPG,1,9,19,2,,,,,,,,,,,,,,,,,,,,,,,AFNE02.jpg,AFSA18.jpg,AFSA06.jpg,AFNE14.jpg,AFSA06.jpg,FS,4,num_2,32,num_8,1.56670031231,,,2017_Oct_05_1812,59.9252133538,FEMA4ImagesEEG,001,101867,
AFNE01.JPG,AFNE01.JPG,AFNE01.JPG,AFNE01.JPG,AFNE01.JPG,AFNE01.JPG,2,0,20,6,,,,,,,,,,,,,,,,,,,,,,,AFSA14.jpg,AFNE11.jpg,AFSA02.jpg,AFNE12.jpg,AFNE12.jpg,FN,3,num_4,16,num_4,1.16675342686,,,2017_Oct_05_1812,59.9252133538,FEMA4ImagesEEG,001,101867,
AFNE01.JPG,AFNE01.JPG,AFNE01.JPG,AFNE01.JPG,AFNE01.JPG,AFNE01.JPG,2,1,21,2,,,,,,,,,,,,,,,,,,,,,,,AFNE17.jpg,AFSA20.jpg,AFNE19.jpg,AFSA12.jpg,AFSA20.jpg,FS,4,num_6,32,num_2,1.35008013694,,,2017_Oct_05_1812,59.9252133538,FEMA4ImagesEEG,001,101867,
AFNE01.JPG,AFNE01.JPG,AFNE01.JPG,AFNE01.JPG,AFNE01.JPG,AFNE01.JPG,2,2,22,8,,,,,,,,,,,,,,,,,,,,,,,AFSA19.jpg,AFNE20.jpg,AFNE04.jpg,AFSA10.jpg,AFNE04.jpg,FN,3,num_2,32,num_8,0.883529963059,,,2017_Oct_05_1812,59.9252133538,FEMA4ImagesEEG,001,101867,
AFNE01.JPG,AFNE01.JPG,AFNE01.JPG,AFNE01.JPG,AFNE01.JPG,AFNE01.JPG,2,3,23,5,,,,,,,,,,,,,,,,,,,,,,,AFNE15.jpg,AFSA05.jpg,AFNE16.jpg,AFSA01.jpg,AFNE16.jpg,FN,3,num_2,16,num_2,1.23338943077,,,2017_Oct_05_1812,59.9252133538,FEMA4ImagesEEG,001,101867,
AFNE01.JPG,AFNE01.JPG,AFNE01.JPG,AFNE01.JPG,AFNE01.JPG,AFNE01.JPG,2,4,24,4,,,,,,,,,,,,,,,,,,,,,,,AFNE10.jpg,AFNE15.jpg,AFSA09.jpg,AFSA20.jpg,AFNE10.jpg,FN,3,num_8,32,num_6,1.44974275038,,,2017_Oct_05_1812,59.9252133538,FEMA4ImagesEEG,001,101867,
AFNE01.JPG,AFNE01.JPG,AFNE01.JPG,AFNE01.JPG,AFNE01.JPG,AFNE01.JPG,2,5,25,1,,,,,,,,,,,,,,,,,,,,,,,AFNE13.jpg,AFSA14.jpg,AFSA19.jpg,AFNE06.jpg,AFSA19.jpg,FS,4,num_2,32,num_4,1.95000271025,,,2017_Oct_05_1812,59.9252133538,FEMA4ImagesEEG,001,101867,
AFNE01.JPG,AFNE01.JPG,AFNE01.JPG,AFNE01.JPG,AFNE01.JPG,AFNE01.JPG,2,6,26,3,,,,,,,,,,,,,,,,,,,,,,,AFSA16.jpg,AFSA01.jpg,AFNE19.jpg,AFNE08.jpg,AFNE08.jpg,FN,3,num_4,32,num_8,3.21689761558,,,2017_Oct_05_1812,59.9252133538,FEMA4ImagesEEG,001,101867,
AFNE01.JPG,AFNE01.JPG,AFNE01.JPG,AFNE01.JPG,AFNE01.JPG,AFNE01.JPG,2,7,27,9,,,,,,,,,,,,,,,,,,,,,,,AFNE07.jpg,AFNE02.jpg,AFSA10.jpg,AFSA12.jpg,AFNE07.jpg,FN,3,num_8,32,num_6,1.58343460702,,,2017_Oct_05_1812,59.9252133538,FEMA4ImagesEEG,001,101867,
AFNE01.JPG,AFNE01.JPG,AFNE01.JPG,AFNE01.JPG,AFNE01.JPG,AFNE01.JPG,2,8,28,7,,,,,,,,,,,,,,,,,,,,,,,AFNE02.jpg,AFSA14.jpg,AFSA20.jpg,AFNE09.jpg,AFSA14.jpg,FS,4,num_6,32,num_4,0.700120181311,,,2017_Oct_05_1812,59.9252133538,FEMA4ImagesEEG,001,101867,
AFNE01.JPG,AFNE01.JPG,AFNE01.JPG,AFNE01.JPG,AFNE01.JPG,AFNE01.JPG,2,9,29,0,,,,,,,,,,,,,,,,,,,,,,,AFSA09.jpg,AFNE12.jpg,AFNE09.jpg,AFSA17.jpg,AFNE09.jpg,FN,3,num_2,32,num_8,1.45011192226,,,2017_Oct_05_1812,59.9252133538,FEMA4ImagesEEG,001,101867,
AFNE01.JPG,AFNE01.JPG,AFNE01.JPG,AFNE01.JPG,AFNE01.JPG,AFNE01.JPG,3,0,30,4,,,,,,,,,,,,,,,,,,,,,,,AFSA07.jpg,AFNE02.jpg,AFNE20.jpg,AFSA13.jpg,AFNE02.jpg,FN,3,num_6,16,num_6,0.866765839513,,,2017_Oct_05_1812,59.9252133538,FEMA4ImagesEEG,001,101867,
AFNE01.JPG,AFNE01.JPG,AFNE01.JPG,AFNE01.JPG,AFNE01.JPG,AFNE01.JPG,3,1,31,0,,,,,,,,,,,,,,,,,,,,,,,AFSA02.jpg,AFSA06.jpg,AFNE06.jpg,AFNE11.jpg,AFNE06.jpg,FN,3,num_2,32,num_4,0.950100535993,,,2017_Oct_05_1812,59.9252133538,FEMA4ImagesEEG,001,101867,
AFNE01.JPG,AFNE01.JPG,AFNE01.JPG,AFNE01.JPG,AFNE01.JPG,AFNE01.JPG,3,2,32,8,,,,,,,,,,,,,,,,,,,,,,,AFNE20.jpg,AFSA18.jpg,AFNE18.jpg,AFSA20.jpg,AFSA18.jpg,FS,4,num_6,32,num_8,1.05011115249,,,2017_Oct_05_1812,59.9252133538,FEMA4ImagesEEG,001,101867,
AFNE01.JPG,AFNE01.JPG,AFNE01.JPG,AFNE01.JPG,AFNE01.JPG,AFNE01.JPG,3,3,33,9,,,,,,,,,,,,,,,,,,,,,,,AFSA11.jpg,AFNE12.jpg,AFSA10.jpg,AFNE03.jpg,AFNE12.jpg,FN,3,num_6,16,num_6,1.00020591516,,,2017_Oct_05_1812,59.9252133538,FEMA4ImagesEEG,001,101867,
AFNE01.JPG,AFNE01.JPG,AFNE01.JPG,AFNE01.JPG,AFNE01.JPG,AFNE01.JPG,3,4,34,1,,,,,,,,,,,,,,,,,,,,,,,AFNE16.jpg,AFSA15.jpg,AFNE11.jpg,AFSA20.jpg,AFNE11.jpg,FN,3,num_2,32,num_4,0.983133560367,,,2017_Oct_05_1812,59.9252133538,FEMA4ImagesEEG,001,101867,
AFNE01.JPG,AFNE01.JPG,AFNE01.JPG,AFNE01.JPG,AFNE01.JPG,AFNE01.JPG,3,5,35,5,,,,,,,,,,,,,,,,,,,,,,,AFSA05.jpg,AFSA16.jpg,AFNE19.jpg,AFNE20.jpg,AFNE20.jpg,FN,3,num_4,32,num_2,2.05006304148,,,2017_Oct_05_1812,59.9252133538,FEMA4ImagesEEG,001,101867,
AFNE01.JPG,AFNE01.JPG,AFNE01.JPG,AFNE01.JPG,AFNE01.JPG,AFNE01.JPG,3,6,36,7,,,,,,,,,,,,,,,,,,,,,,,AFNE10.jpg,AFSA14.jpg,AFNE03.jpg,AFSA07.jpg,AFNE03.jpg,FN,3,num_2,32,num_4,0.750166544283,,,2017_Oct_05_1812,59.9252133538,FEMA4ImagesEEG,001,101867,
AFNE01.JPG,AFNE01.JPG,AFNE01.JPG,AFNE01.JPG,AFNE01.JPG,AFNE01.JPG,3,7,37,6,,,,,,,,,,,,,,,,,,,,,,,AFNE10.jpg,AFNE16.jpg,AFSA12.jpg,AFSA11.jpg,AFNE10.jpg,FN,3,num_8,16,num_8,1.20034004867,,,2017_Oct_05_1812,59.9252133538,FEMA4ImagesEEG,001,101867,
AFNE01.JPG,AFNE01.JPG,AFNE01.JPG,AFNE01.JPG,AFNE01.JPG,AFNE01.JPG,3,8,38,3,,,,,,,,,,,,,,,,,,,,,,,AFNE10.jpg,AFSA01.jpg,AFSA15.jpg,AFNE16.jpg,AFNE10.jpg,FN,3,num_8,32,num_4,1.21676162179,,,2017_Oct_05_1812,59.9252133538,FEMA4ImagesEEG,001,101867,
AFNE01.JPG,AFNE01.JPG,AFNE01.JPG,AFNE01.JPG,AFNE01.JPG,AFNE01.JPG,3,9,39,2,,,,,,,,,,,,,,,,,,,,,,,AFNE11.jpg,AFSA16.jpg,AFSA04.jpg,AFNE18.jpg,AFNE11.jpg,FN,3,num_8,32,num_2,1.23331854719,,,2017_Oct_05_1812,59.9252133538,FEMA4ImagesEEG,001,101867,
AFNE01.JPG,AFNE01.JPG,AFNE01.JPG,AFNE01.JPG,AFNE01.JPG,AFNE01.JPG,4,0,40,2,,,,,,,,,,,,,,,,,,,,,,,AFSA19.jpg,AFNE08.jpg,AFSA13.jpg,AFNE07.jpg,AFNE07.jpg,FN,3,num_4,32,num_8,1.48339961426,,,2017_Oct_05_1812,59.9252133538,FEMA4ImagesEEG,001,101867,
AFNE01.JPG,AFNE01.JPG,AFNE01.JPG,AFNE01.JPG,AFNE01.JPG,AFNE01.JPG,4,1,41,5,,,,,,,,,,,,,,,,,,,,,,,AFSA15.jpg,AFSA01.jpg,AFNE03.jpg,AFNE09.jpg,AFNE09.jpg,FN,3,num_4,32,num_8,1.10009529188,,,2017_Oct_05_1812,59.9252133538,FEMA4ImagesEEG,001,101867,
AFNE01.JPG,AFNE01.JPG,AFNE01.JPG,AFNE01.JPG,AFNE01.JPG,AFNE01.JPG,4,2,42,3,,,,,,,,,,,,,,,,,,,,,,,AFSA17.jpg,AFNE08.jpg,AFSA11.jpg,AFNE07.jpg,AFSA11.jpg,FS,4,num_2,16,num_2,1.20007672103,,,2017_Oct_05_1812,59.9252133538,FEMA4ImagesEEG,001,101867,
AFNE01.JPG,AFNE01.JPG,AFNE01.JPG,AFNE01.JPG,AFNE01.JPG,AFNE01.JPG,4,3,43,8,,,,,,,,,,,,,,,,,,,,,,,AFNE19.jpg,AFSA06.jpg,AFSA17.jpg,AFNE02.jpg,AFSA17.jpg,FS,4,num_2,32,num_8,1.16674701206,,,2017_Oct_05_1812,59.9252133538,FEMA4ImagesEEG,001,101867,
AFNE01.JPG,AFNE01.JPG,AFNE01.JPG,AFNE01.JPG,AFNE01.JPG,AFNE01.JPG,4,4,44,6,,,,,,,,,,,,,,,,,,,,,,,AFNE06.jpg,AFSA06.jpg,AFSA09.jpg,AFNE13.jpg,AFSA09.jpg,FS,4,num_2,16,num_2,1.40008865256,,,2017_Oct_05_1812,59.9252133538,FEMA4ImagesEEG,001,101867,
AFNE01.JPG,AFNE01.JPG,AFNE01.JPG,AFNE01.JPG,AFNE01.JPG,AFNE01.JPG,4,5,45,1,,,,,,,,,,,,,,,,,,,,,,,AFSA09.jpg,AFNE10.jpg,AFSA14.jpg,AFNE12.jpg,AFSA14.jpg,FS,4,num_2,32,num_4,1.86671195517,,,2017_Oct_05_1812,59.9252133538,FEMA4ImagesEEG,001,101867,
AFNE01.JPG,AFNE01.JPG,AFNE01.JPG,AFNE01.JPG,AFNE01.JPG,AFNE01.JPG,4,6,46,7,,,,,,,,,,,,,,,,,,,,,,,AFSA06.jpg,AFNE19.jpg,AFNE12.jpg,AFSA15.jpg,AFSA06.jpg,FS,4,num_8,32,num_4,1.18346238314,,,2017_Oct_05_1812,59.9252133538,FEMA4ImagesEEG,001,101867,
AFNE01.JPG,AFNE01.JPG,AFNE01.JPG,AFNE01.JPG,AFNE01.JPG,AFNE01.JPG,4,7,47,4,,,,,,,,,,,,,,,,,,,,,,,AFSA01.jpg,AFNE02.jpg,AFNE09.jpg,AFSA08.jpg,AFNE09.jpg,FN,3,num_2,16,num_2,1.48356126729,,,2017_Oct_05_1812,59.9252133538,FEMA4ImagesEEG,001,101867,
AFNE01.JPG,AFNE01.JPG,AFNE01.JPG,AFNE01.JPG,AFNE01.JPG,AFNE01.JPG,4,8,48,9,,,,,,,,,,,,,,,,,,,,,,,AFNE06.jpg,AFSA06.jpg,AFNE19.jpg,AFSA13.jpg,AFNE19.jpg,FN,3,num_2,16,num_2,1.31674144723,,,2017_Oct_05_1812,59.9252133538,FEMA4ImagesEEG,001,101867,
AFNE01.JPG,AFNE01.JPG,AFNE01.JPG,AFNE01.JPG,AFNE01.JPG,AFNE01.JPG,4,9,49,0,,,,,,,,,,,,,,,,,,,,,,,AFSA19.jpg,AFNE08.jpg,AFSA17.jpg,AFNE06.jpg,AFSA17.jpg,FS,4,num_2,48,None,,,,2017_Oct_05_1812,59.9252133538,FEMA4ImagesEEG,001,101867,
AFNE01.JPG,AFNE01.JPG,AFNE01.JPG,AFNE01.JPG,AFNE01.JPG,AFNE01.JPG,5,0,50,4,,,,,,,,,,,,,,,,,,,,,,,AFNE06.jpg,AFSA09.jpg,AFSA10.jpg,AFNE05.jpg,AFNE06.jpg,FN,3,num_8,16,num_8,2.46649757249,,,2017_Oct_05_1812,59.9252133538,FEMA4ImagesEEG,001,101867,
AFNE01.JPG,AFNE01.JPG,AFNE01.JPG,AFNE01.JPG,AFNE01.JPG,AFNE01.JPG,5,1,51,1,,,,,,,,,,,,,,,,,,,,,,,AFSA14.jpg,AFSA20.jpg,AFNE02.jpg,AFNE17.jpg,AFSA20.jpg,FS,4,num_6,32,num_4,1.33341608429,,,2017_Oct_05_1812,59.9252133538,FEMA4ImagesEEG,001,101867,
AFNE01.JPG,AFNE01.JPG,AFNE01.JPG,AFNE01.JPG,AFNE01.JPG,AFNE01.JPG,5,2,52,9,,,,,,,,,,,,,,,,,,,,,,,AFSA07.jpg,AFNE12.jpg,AFNE07.jpg,AFSA18.jpg,AFNE07.jpg,FN,3,num_2,16,num_2,1.20005555218,,,2017_Oct_05_1812,59.9252133538,FEMA4ImagesEEG,001,101867,
AFNE01.JPG,AFNE01.JPG,AFNE01.JPG,AFNE01.JPG,AFNE01.JPG,AFNE01.JPG,5,3,53,8,,,,,,,,,,,,,,,,,,,,,,,AFSA05.jpg,AFNE19.jpg,AFSA16.jpg,AFNE01.jpg,AFSA16.jpg,FS,4,num_2,16,num_2,1.26673806342,,,2017_Oct_05_1812,59.9252133538,FEMA4ImagesEEG,001,101867,
AFNE01.JPG,AFNE01.JPG,AFNE01.JPG,AFNE01.JPG,AFNE01.JPG,AFNE01.JPG,5,4,54,5,,,,,,,,,,,,,,,,,,,,,,,AFNE02.jpg,AFNE18.jpg,AFSA01.jpg,AFSA08.jpg,AFSA01.jpg,FS,4,num_2,32,num_8,0.700108955411,,,2017_Oct_05_1812,59.9252133538,FEMA4ImagesEEG,001,101867,
AFNE01.JPG,AFNE01.JPG,AFNE01.JPG,AFNE01.JPG,AFNE01.JPG,AFNE01.JPG,5,5,55,2,,,,,,,,,,,,,,,,,,,,,,,AFNE07.jpg,AFSA11.jpg,AFNE03.jpg,AFSA19.jpg,AFSA19.jpg,FS,4,num_4,32,num_2,0.666824470827,,,2017_Oct_05_1812,59.9252133538,FEMA4ImagesEEG,001,101867,
AFNE01.JPG,AFNE01.JPG,AFNE01.JPG,AFNE01.JPG,AFNE01.JPG,AFNE01.JPG,5,6,56,0,,,,,,,,,,,,,,,,,,,,,,,AFNE19.jpg,AFSA05.jpg,AFSA09.jpg,AFNE16.jpg,AFNE16.jpg,FN,3,num_4,16,num_4,1.08349506656,,,2017_Oct_05_1812,59.9252133538,FEMA4ImagesEEG,001,101867,
AFNE01.JPG,AFNE01.JPG,AFNE01.JPG,AFNE01.JPG,AFNE01.JPG,AFNE01.JPG,5,7,57,3,,,,,,,,,,,,,,,,,,,,,,,AFSA01.jpg,AFNE05.jpg,AFNE16.jpg,AFSA04.jpg,AFNE16.jpg,FN,3,num_2,32,num_8,1.35034282308,,,2017_Oct_05_1812,59.9252133538,FEMA4ImagesEEG,001,101867,
AFNE01.JPG,AFNE01.JPG,AFNE01.JPG,AFNE01.JPG,AFNE01.JPG,AFNE01.JPG,5,8,58,6,,,,,,,,,,,,,,,,,,,,,,,AFSA18.jpg,AFNE17.jpg,AFSA01.jpg,AFNE16.jpg,AFSA18.jpg,FS,4,num_8,32,num_2,1.40010533106,,,2017_Oct_05_1812,59.9252133538,FEMA4ImagesEEG,001,101867,
AFNE01.JPG,AFNE01.JPG,AFNE01.JPG,AFNE01.JPG,AFNE01.JPG,AFNE01.JPG,5,9,59,7,,,,,,,,,,,,,,,,,,,,,,,AFNE11.jpg,AFSA10.jpg,AFSA17.jpg,AFNE06.jpg,AFSA17.jpg,FS,4,num_2,16,num_2,1.56669678414,,,2017_Oct_05_1812,59.9252133538,FEMA4ImagesEEG,001,101867,
,,,,,,,,,,,,,,,,,,,,,,,,,,,,,,,,,,,,,,,,,,,space,12.9824991364,2017_Oct_05_1812,59.9252133538,FEMA4ImagesEEG,001,101867,
AFNE01.JPG,AFNE01.JPG,AFNE01.JPG,AFNE01.JPG,AFNE01.JPG,AFNE01.JPG,,,,,0,0,0,9,,,,,,,,,,,,,,,,,,,AMNE06.jpg,AMSA04.jpg,AMNE18.jpg,AMSA15.jpg,AMSA04.jpg,MS,2,num_6,16,num_6,0.983533844003,,,2017_Oct_05_1812,59.9252133538,FEMA4ImagesEEG,001,101867,
AFNE01.JPG,AFNE01.JPG,AFNE01.JPG,AFNE01.JPG,AFNE01.JPG,AFNE01.JPG,,,,,0,1,1,5,,,,,,,,,,,,,,,,,,,AMNE09.jpg,AMNE04.jpg,AMSA13.jpg,AMSA12.jpg,AMSA12.jpg,MS,2,num_4,32,num_2,0.883486342413,,,2017_Oct_05_1812,59.9252133538,FEMA4ImagesEEG,001,101867,
AFNE01.JPG,AFNE01.JPG,AFNE01.JPG,AFNE01.JPG,AFNE01.JPG,AFNE01.JPG,,,,,0,2,2,1,,,,,,,,,,,,,,,,,,,AMNE16.jpg,AMSA07.jpg,AMNE12.jpg,AMSA10.jpg,AMNE16.jpg,MN,1,num_8,32,num_2,1.06676750735,,,2017_Oct_05_1812,59.9252133538,FEMA4ImagesEEG,001,101867,
AFNE01.JPG,AFNE01.JPG,AFNE01.JPG,AFNE01.JPG,AFNE01.JPG,AFNE01.JPG,,,,,0,3,3,0,,,,,,,,,,,,,,,,,,,AMNE12.jpg,AMSA03.jpg,AMSA14.jpg,AMNE15.jpg,AMNE15.jpg,MN,1,num_4,16,num_4,0.966773248598,,,2017_Oct_05_1812,59.9252133538,FEMA4ImagesEEG,001,101867,
AFNE01.JPG,AFNE01.JPG,AFNE01.JPG,AFNE01.JPG,AFNE01.JPG,AFNE01.JPG,,,,,0,4,4,4,,,,,,,,,,,,,,,,,,,AMSA10.jpg,AMSA16.jpg,AMNE13.jpg,AMNE16.jpg,AMNE13.jpg,MN,1,num_2,32,num_8,1.10016393027,,,2017_Oct_05_1812,59.9252133538,FEMA4ImagesEEG,001,101867,
AFNE01.JPG,AFNE01.JPG,AFNE01.JPG,AFNE01.JPG,AFNE01.JPG,AFNE01.JPG,,,,,0,5,5,8,,,,,,,,,,,,,,,,,,,AMSA17.jpg,AMSA15.jpg,AMNE14.jpg,AMNE01.jpg,AMSA17.jpg,MS,2,num_8,32,num_6,1.15012529714,,,2017_Oct_05_1812,59.9252133538,FEMA4ImagesEEG,001,101867,
AFNE01.JPG,AFNE01.JPG,AFNE01.JPG,AFNE01.JPG,AFNE01.JPG,AFNE01.JPG,,,,,0,6,6,7,,,,,,,,,,,,,,,,,,,AMNE11.jpg,AMNE13.jpg,AMSA05.jpg,AMSA14.jpg,AMNE11.jpg,MN,1,num_8,32,num_2,1.68337594366,,,2017_Oct_05_1812,59.9252133538,FEMA4ImagesEEG,001,101867,
AFNE01.JPG,AFNE01.JPG,AFNE01.JPG,AFNE01.JPG,AFNE01.JPG,AFNE01.JPG,,,,,0,7,7,3,,,,,,,,,,,,,,,,,,,AMNE14.jpg,AMSA17.jpg,AMNE18.jpg,AMSA12.jpg,AMNE14.jpg,MN,1,num_8,16,num_8,0.683462222747,,,2017_Oct_05_1812,59.9252133538,FEMA4ImagesEEG,001,101867,
AFNE01.JPG,AFNE01.JPG,AFNE01.JPG,AFNE01.JPG,AFNE01.JPG,AFNE01.JPG,,,,,0,8,8,6,,,,,,,,,,,,,,,,,,,AMSA16.jpg,AMNE17.jpg,AMSA14.jpg,AMNE06.jpg,AMNE17.jpg,MN,1,num_6,16,num_6,1.40007806817,,,2017_Oct_05_1812,59.9252133538,FEMA4ImagesEEG,001,101867,
AFNE01.JPG,AFNE01.JPG,AFNE01.JPG,AFNE01.JPG,AFNE01.JPG,AFNE01.JPG,,,,,0,9,9,2,,,,,,,,,,,,,,,,,,,AMSA03.jpg,AMSA16.jpg,AMNE05.jpg,AMNE15.jpg,AMSA16.jpg,MS,2,num_6,32,num_4,1.05011660507,,,2017_Oct_05_1812,59.9252133538,FEMA4ImagesEEG,001,101867,
AFNE01.JPG,AFNE01.JPG,AFNE01.JPG,AFNE01.JPG,AFNE01.JPG,AFNE01.JPG,,,,,1,0,10,3,,,,,,,,,,,,,,,,,,,AMNE02.jpg,AMNE05.jpg,AMSA03.jpg,AMSA05.jpg,AMSA03.jpg,MS,2,num_2,16,num_2,1.56672821671,,,2017_Oct_05_1812,59.9252133538,FEMA4ImagesEEG,001,101867,
AFNE01.JPG,AFNE01.JPG,AFNE01.JPG,AFNE01.JPG,AFNE01.JPG,AFNE01.JPG,,,,,1,1,11,6,,,,,,,,,,,,,,,,,,,AMSA06.jpg,AMNE05.jpg,AMNE13.jpg,AMSA07.jpg,AMNE13.jpg,MN,1,num_2,32,num_4,1.73337868598,,,2017_Oct_05_1812,59.9252133538,FEMA4ImagesEEG,001,101867,
AFNE01.JPG,AFNE01.JPG,AFNE01.JPG,AFNE01.JPG,AFNE01.JPG,AFNE01.JPG,,,,,1,2,12,0,,,,,,,,,,,,,,,,,,,AMNE02.jpg,AMNE07.jpg,AMSA15.jpg,AMSA09.jpg,AMSA09.jpg,MS,2,num_4,32,num_2,1.21673051,,,2017_Oct_05_1812,59.9252133538,FEMA4ImagesEEG,001,101867,
AFNE01.JPG,AFNE01.JPG,AFNE01.JPG,AFNE01.JPG,AFNE01.JPG,AFNE01.JPG,,,,,1,3,13,9,,,,,,,,,,,,,,,,,,,AMNE18.jpg,AMSA11.jpg,AMSA03.jpg,AMNE10.jpg,AMSA11.jpg,MS,2,num_6,32,num_4,0.966803398187,,,2017_Oct_05_1812,59.9252133538,FEMA4ImagesEEG,001,101867,
AFNE01.JPG,AFNE01.JPG,AFNE01.JPG,AFNE01.JPG,AFNE01.JPG,AFNE01.JPG,,,,,1,4,14,8,,,,,,,,,,,,,,,,,,,AMNE01.jpg,AMNE10.jpg,AMSA07.jpg,AMSA02.jpg,AMNE10.jpg,MN,1,num_6,16,num_6,0.616689904273,,,2017_Oct_05_1812,59.9252133538,FEMA4ImagesEEG,001,101867,
AFNE01.JPG,AFNE01.JPG,AFNE01.JPG,AFNE01.JPG,AFNE01.JPG,AFNE01.JPG,,,,,1,5,15,5,,,,,,,,,,,,,,,,,,,AMNE18.jpg,AMSA09.jpg,AMNE10.jpg,AMSA13.jpg,AMNE10.jpg,MN,1,num_2,16,num_2,0.916812523239,,,2017_Oct_05_1812,59.9252133538,FEMA4ImagesEEG,001,101867,
AFNE01.JPG,AFNE01.JPG,AFNE01.JPG,AFNE01.JPG,AFNE01.JPG,AFNE01.JPG,,,,,1,6,16,1,,,,,,,,,,,,,,,,,,,AMSA20.jpg,AMSA05.jpg,AMNE17.jpg,AMNE05.jpg,AMSA05.jpg,MS,2,num_6,32,num_4,1.18344891205,,,2017_Oct_05_1812,59.9252133538,FEMA4ImagesEEG,001,101867,
AFNE01.JPG,AFNE01.JPG,AFNE01.JPG,AFNE01.JPG,AFNE01.JPG,AFNE01.JPG,,,,,1,7,17,4,,,,,,,,,,,,,,,,,,,AMNE09.jpg,AMNE07.jpg,AMSA14.jpg,AMSA05.jpg,AMSA14.jpg,MS,2,num_2,16,num_2,1.08340108968,,,2017_Oct_05_1812,59.9252133538,FEMA4ImagesEEG,001,101867,
AFNE01.JPG,AFNE01.JPG,AFNE01.JPG,AFNE01.JPG,AFNE01.JPG,AFNE01.JPG,,,,,1,8,18,2,,,,,,,,,,,,,,,,,,,AMNE16.jpg,AMSA12.jpg,AMSA18.jpg,AMNE14.jpg,AMNE16.jpg,MN,1,num_8,32,num_6,1.20011617208,,,2017_Oct_05_1812,59.9252133538,FEMA4ImagesEEG,001,101867,
AFNE01.JPG,AFNE01.JPG,AFNE01.JPG,AFNE01.JPG,AFNE01.JPG,AFNE01.JPG,,,,,1,9,19,7,,,,,,,,,,,,,,,,,,,AMSA05.jpg,AMNE15.jpg,AMNE17.jpg,AMSA02.jpg,AMNE17.jpg,MN,1,num_2,32,num_4,1.45005611351,,,2017_Oct_05_1812,59.9252133538,FEMA4ImagesEEG,001,101867,
AFNE01.JPG,AFNE01.JPG,AFNE01.JPG,AFNE01.JPG,AFNE01.JPG,AFNE01.JPG,,,,,2,0,20,0,,,,,,,,,,,,,,,,,,,AMNE06.jpg,AMSA20.jpg,AMSA09.jpg,AMNE05.jpg,AMNE05.jpg,MN,1,num_4,16,num_4,1.51672483288,,,2017_Oct_05_1812,59.9252133538,FEMA4ImagesEEG,001,101867,
AFNE01.JPG,AFNE01.JPG,AFNE01.JPG,AFNE01.JPG,AFNE01.JPG,AFNE01.JPG,,,,,2,1,21,1,,,,,,,,,,,,,,,,,,,AMNE13.jpg,AMSA06.jpg,AMSA18.jpg,AMNE03.jpg,AMNE03.jpg,MN,1,num_4,16,num_4,1.36669800297,,,2017_Oct_05_1812,59.9252133538,FEMA4ImagesEEG,001,101867,
AFNE01.JPG,AFNE01.JPG,AFNE01.JPG,AFNE01.JPG,AFNE01.JPG,AFNE01.JPG,,,,,2,2,22,2,,,,,,,,,,,,,,,,,,,AMNE12.jpg,AMNE05.jpg,AMSA14.jpg,AMSA08.jpg,AMSA14.jpg,MS,2,num_2,16,num_2,1.6666980992,,,2017_Oct_05_1812,59.9252133538,FEMA4ImagesEEG,001,101867,
AFNE01.JPG,AFNE01.JPG,AFNE01.JPG,AFNE01.JPG,AFNE01.JPG,AFNE01.JPG,,,,,2,3,23,6,,,,,,,,,,,,,,,,,,,AMNE09.jpg,AMSA02.jpg,AMNE17.jpg,AMSA09.jpg,AMNE17.jpg,MN,1,num_2,32,num_8,1.01677214203,,,2017_Oct_05_1812,59.9252133538,FEMA4ImagesEEG,001,101867,
AFNE01.JPG,AFNE01.JPG,AFNE01.JPG,AFNE01.JPG,AFNE01.JPG,AFNE01.JPG,,,,,2,4,24,3,,,,,,,,,,,,,,,,,,,AMSA12.jpg,AMNE20.jpg,AMSA08.jpg,AMNE05.jpg,AMSA08.jpg,MS,2,num_2,32,num_8,0.833470770478,,,2017_Oct_05_1812,59.9252133538,FEMA4ImagesEEG,001,101867,
AFNE01.JPG,AFNE01.JPG,AFNE01.JPG,AFNE01.JPG,AFNE01.JPG,AFNE01.JPG,,,,,2,5,25,4,,,,,,,,,,,,,,,,,,,AMNE06.jpg,AMSA20.jpg,AMSA11.jpg,AMNE05.jpg,AMNE06.jpg,MN,1,num_8,16,num_8,1.08348865176,,,2017_Oct_05_1812,59.9252133538,FEMA4ImagesEEG,001,101867,
AFNE01.JPG,AFNE01.JPG,AFNE01.JPG,AFNE01.JPG,AFNE01.JPG,AFNE01.JPG,,,,,2,6,26,8,,,,,,,,,,,,,,,,,,,AMNE07.jpg,AMSA05.jpg,AMSA14.jpg,AMNE13.jpg,AMNE13.jpg,MN,1,num_4,16,num_4,0.683569029206,,,2017_Oct_05_1812,59.9252133538,FEMA4ImagesEEG,001,101867,
AFNE01.JPG,AFNE01.JPG,AFNE01.JPG,AFNE01.JPG,AFNE01.JPG,AFNE01.JPG,,,,,2,7,27,7,,,,,,,,,,,,,,,,,,,AMNE14.jpg,AMSA14.jpg,AMNE09.jpg,AMSA18.jpg,AMSA14.jpg,MS,2,num_6,16,num_6,1.20008890916,,,2017_Oct_05_1812,59.9252133538,FEMA4ImagesEEG,001,101867,
AFNE01.JPG,AFNE01.JPG,AFNE01.JPG,AFNE01.JPG,AFNE01.JPG,AFNE01.JPG,,,,,2,8,28,9,,,,,,,,,,,,,,,,,,,AMNE20.jpg,AMNE08.jpg,AMSA13.jpg,AMSA11.jpg,AMSA11.jpg,MS,2,num_4,16,num_4,0.733450211032,,,2017_Oct_05_1812,59.9252133538,FEMA4ImagesEEG,001,101867,
AFNE01.JPG,AFNE01.JPG,AFNE01.JPG,AFNE01.JPG,AFNE01.JPG,AFNE01.JPG,,,,,2,9,29,5,,,,,,,,,,,,,,,,,,,AMNE11.jpg,AMNE14.jpg,AMSA10.jpg,AMSA20.jpg,AMSA20.jpg,MS,2,num_4,16,num_4,0.800146834838,,,2017_Oct_05_1812,59.9252133538,FEMA4ImagesEEG,001,101867,
AFNE01.JPG,AFNE01.JPG,AFNE01.JPG,AFNE01.JPG,AFNE01.JPG,AFNE01.JPG,,,,,3,0,30,0,,,,,,,,,,,,,,,,,,,AMSA09.jpg,AMNE06.jpg,AMNE19.jpg,AMSA05.jpg,AMNE19.jpg,MN,1,num_2,16,num_2,0.63354383508,,,2017_Oct_05_1812,59.9252133538,FEMA4ImagesEEG,001,101867,
AFNE01.JPG,AFNE01.JPG,AFNE01.JPG,AFNE01.JPG,AFNE01.JPG,AFNE01.JPG,,,,,3,1,31,2,,,,,,,,,,,,,,,,,,,AMSA20.jpg,AMNE15.jpg,AMSA15.jpg,AMNE13.jpg,AMNE13.jpg,MN,1,num_4,16,num_4,1.00014176714,,,2017_Oct_05_1812,59.9252133538,FEMA4ImagesEEG,001,101867,
AFNE01.JPG,AFNE01.JPG,AFNE01.JPG,AFNE01.JPG,AFNE01.JPG,AFNE01.JPG,,,,,3,2,32,7,,,,,,,,,,,,,,,,,,,AMNE06.jpg,AMSA10.jpg,AMNE01.jpg,AMSA06.jpg,AMSA06.jpg,MS,2,num_4,16,num_4,1.13342596308,,,2017_Oct_05_1812,59.9252133538,FEMA4ImagesEEG,001,101867,
AFNE01.JPG,AFNE01.JPG,AFNE01.JPG,AFNE01.JPG,AFNE01.JPG,AFNE01.JPG,,,,,3,3,33,9,,,,,,,,,,,,,,,,,,,AMSA09.jpg,AMNE07.jpg,AMSA10.jpg,AMNE05.jpg,AMSA09.jpg,MS,2,num_8,16,num_8,1.10007091562,,,2017_Oct_05_1812,59.9252133538,FEMA4ImagesEEG,001,101867,
AFNE01.JPG,AFNE01.JPG,AFNE01.JPG,AFNE01.JPG,AFNE01.JPG,AFNE01.JPG,,,,,3,4,34,8,,,,,,,,,,,,,,,,,,,AMNE14.jpg,AMSA06.jpg,AMSA16.jpg,AMNE05.jpg,AMNE14.jpg,MN,1,num_8,32,num_2,0.983179746923,,,2017_Oct_05_1812,59.9252133538,FEMA4ImagesEEG,001,101867,
AFNE01.JPG,AFNE01.JPG,AFNE01.JPG,AFNE01.JPG,AFNE01.JPG,AFNE01.JPG,,,,,3,5,35,6,,,,,,,,,,,,,,,,,,,AMNE10.jpg,AMNE14.jpg,AMSA07.jpg,AMSA01.jpg,AMNE10.jpg,MN,1,num_8,16,num_8,1.18345532683,,,2017_Oct_05_1812,59.9252133538,FEMA4ImagesEEG,001,101867,
AFNE01.JPG,AFNE01.JPG,AFNE01.JPG,AFNE01.JPG,AFNE01.JPG,AFNE01.JPG,,,,,3,6,36,5,,,,,,,,,,,,,,,,,,,AMSA08.jpg,AMSA13.jpg,AMNE04.jpg,AMNE09.jpg,AMSA08.jpg,MS,2,num_8,16,num_8,0.866772254318,,,2017_Oct_05_1812,59.9252133538,FEMA4ImagesEEG,001,101867,
AFNE01.JPG,AFNE01.JPG,AFNE01.JPG,AFNE01.JPG,AFNE01.JPG,AFNE01.JPG,,,,,3,7,37,4,,,,,,,,,,,,,,,,,,,AMNE09.jpg,AMSA18.jpg,AMSA09.jpg,AMNE18.jpg,AMNE09.jpg,MN,1,num_8,16,num_8,1.666979709,,,2017_Oct_05_1812,59.9252133538,FEMA4ImagesEEG,001,101867,
AFNE01.JPG,AFNE01.JPG,AFNE01.JPG,AFNE01.JPG,AFNE01.JPG,AFNE01.JPG,,,,,3,8,38,3,,,,,,,,,,,,,,,,,,,AMSA05.jpg,AMNE15.jpg,AMSA17.jpg,AMNE10.jpg,AMNE15.jpg,MN,1,num_6,16,num_6,0.883454909868,,,2017_Oct_05_1812,59.9252133538,FEMA4ImagesEEG,001,101867,
AFNE01.JPG,AFNE01.JPG,AFNE01.JPG,AFNE01.JPG,AFNE01.JPG,AFNE01.JPG,,,,,3,9,39,1,,,,,,,,,,,,,,,,,,,AMSA14.jpg,AMNE05.jpg,AMSA19.jpg,AMNE11.jpg,AMNE05.jpg,MN,1,num_6,32,num_4,0.950220492814,,,2017_Oct_05_1812,59.9252133538,FEMA4ImagesEEG,001,101867,
AFNE01.JPG,AFNE01.JPG,AFNE01.JPG,AFNE01.JPG,AFNE01.JPG,AFNE01.JPG,,,,,4,0,40,9,,,,,,,,,,,,,,,,,,,AMSA08.jpg,AMSA01.jpg,AMNE20.jpg,AMNE12.jpg,AMSA01.jpg,MS,2,num_6,16,num_6,1.18341491357,,,2017_Oct_05_1812,59.9252133538,FEMA4ImagesEEG,001,101867,
AFNE01.JPG,AFNE01.JPG,AFNE01.JPG,AFNE01.JPG,AFNE01.JPG,AFNE01.JPG,,,,,4,1,41,0,,,,,,,,,,,,,,,,,,,AMSA19.jpg,AMNE15.jpg,AMSA17.jpg,AMNE19.jpg,AMSA19.jpg,MS,2,num_8,16,num_8,1.00015555896,,,2017_Oct_05_1812,59.9252133538,FEMA4ImagesEEG,001,101867,
AFNE01.JPG,AFNE01.JPG,AFNE01.JPG,AFNE01.JPG,AFNE01.JPG,AFNE01.JPG,,,,,4,2,42,7,,,,,,,,,,,,,,,,,,,AMSA01.jpg,AMNE01.jpg,AMSA02.jpg,AMNE13.jpg,AMSA01.jpg,MS,2,num_8,32,num_2,1.35011862573,,,2017_Oct_05_1812,59.9252133538,FEMA4ImagesEEG,001,101867,
AFNE01.JPG,AFNE01.JPG,AFNE01.JPG,AFNE01.JPG,AFNE01.JPG,AFNE01.JPG,,,,,4,3,43,1,,,,,,,,,,,,,,,,,,,AMNE18.jpg,AMSA12.jpg,AMSA19.jpg,AMNE13.jpg,AMNE18.jpg,MN,1,num_8,16,num_8,1.05018171531,,,2017_Oct_05_1812,59.9252133538,FEMA4ImagesEEG,001,101867,
AFNE01.JPG,AFNE01.JPG,AFNE01.JPG,AFNE01.JPG,AFNE01.JPG,AFNE01.JPG,,,,,4,4,44,8,,,,,,,,,,,,,,,,,,,AMSA09.jpg,AMNE11.jpg,AMNE12.jpg,AMSA20.jpg,AMSA20.jpg,MS,2,num_4,16,num_4,1.01671697476,,,2017_Oct_05_1812,59.9252133538,FEMA4ImagesEEG,001,101867,
AFNE01.JPG,AFNE01.JPG,AFNE01.JPG,AFNE01.JPG,AFNE01.JPG,AFNE01.JPG,,,,,4,5,45,6,,,,,,,,,,,,,,,,,,,AMSA14.jpg,AMNE15.jpg,AMNE07.jpg,AMSA05.jpg,AMSA05.jpg,MS,2,num_4,16,num_4,1.11677345709,,,2017_Oct_05_1812,59.9252133538,FEMA4ImagesEEG,001,101867,
AFNE01.JPG,AFNE01.JPG,AFNE01.JPG,AFNE01.JPG,AFNE01.JPG,AFNE01.JPG,,,,,4,6,46,4,,,,,,,,,,,,,,,,,,,AMSA20.jpg,AMNE13.jpg,AMNE20.jpg,AMSA07.jpg,AMNE13.jpg,MN,1,num_6,32,num_2,0.933466953691,,,2017_Oct_05_1812,59.9252133538,FEMA4ImagesEEG,001,101867,
AFNE01.JPG,AFNE01.JPG,AFNE01.JPG,AFNE01.JPG,AFNE01.JPG,AFNE01.JPG,,,,,4,7,47,3,,,,,,,,,,,,,,,,,,,AMSA10.jpg,AMNE13.jpg,AMNE14.jpg,AMSA04.jpg,AMSA10.jpg,MS,2,num_8,32,num_2,1.15011407121,,,2017_Oct_05_1812,59.9252133538,FEMA4ImagesEEG,001,101867,
AFNE01.JPG,AFNE01.JPG,AFNE01.JPG,AFNE01.JPG,AFNE01.JPG,AFNE01.JPG,,,,,4,8,48,2,,,,,,,,,,,,,,,,,,,AMNE01.jpg,AMSA14.jpg,AMNE13.jpg,AMSA17.jpg,AMSA14.jpg,MS,2,num_6,16,num_6,0.933825541113,,,2017_Oct_05_1812,59.9252133538,FEMA4ImagesEEG,001,101867,
AFNE01.JPG,AFNE01.JPG,AFNE01.JPG,AFNE01.JPG,AFNE01.JPG,AFNE01.JPG,,,,,4,9,49,5,,,,,,,,,,,,,,,,,,,AMSA13.jpg,AMSA12.jpg,AMNE16.jpg,AMNE07.jpg,AMSA12.jpg,MS,2,num_6,32,num_4,1.33338433102,,,2017_Oct_05_1812,59.9252133538,FEMA4ImagesEEG,001,101867,
AFNE01.JPG,AFNE01.JPG,AFNE01.JPG,AFNE01.JPG,AFNE01.JPG,AFNE01.JPG,,,,,5,0,50,5,,,,,,,,,,,,,,,,,,,AMSA19.jpg,AMNE03.jpg,AMSA20.jpg,AMNE14.jpg,AMSA20.jpg,MS,2,num_2,32,num_6,1.25013623436,,,2017_Oct_05_1812,59.9252133538,FEMA4ImagesEEG,001,101867,
AFNE01.JPG,AFNE01.JPG,AFNE01.JPG,AFNE01.JPG,AFNE01.JPG,AFNE01.JPG,,,,,5,1,51,2,,,,,,,,,,,,,,,,,,,AMNE10.jpg,AMSA20.jpg,AMNE19.jpg,AMSA15.jpg,AMNE10.jpg,MN,1,num_8,16,num_8,1.23344748476,,,2017_Oct_05_1812,59.9252133538,FEMA4ImagesEEG,001,101867,
AFNE01.JPG,AFNE01.JPG,AFNE01.JPG,AFNE01.JPG,AFNE01.JPG,AFNE01.JPG,,,,,5,2,52,1,,,,,,,,,,,,,,,,,,,AMNE11.jpg,AMSA05.jpg,AMSA19.jpg,AMNE15.jpg,AMSA05.jpg,MS,2,num_6,32,num_8,0.966584653419,,,2017_Oct_05_1812,59.9252133538,FEMA4ImagesEEG,001,101867,
AFNE01.JPG,AFNE01.JPG,AFNE01.JPG,AFNE01.JPG,AFNE01.JPG,AFNE01.JPG,,,,,5,3,53,8,,,,,,,,,,,,,,,,,,,AMNE04.jpg,AMNE17.jpg,AMSA10.jpg,AMSA16.jpg,AMSA16.jpg,MS,2,num_4,16,num_4,1.1333813802,,,2017_Oct_05_1812,59.9252133538,FEMA4ImagesEEG,001,101867,
AFNE01.JPG,AFNE01.JPG,AFNE01.JPG,AFNE01.JPG,AFNE01.JPG,AFNE01.JPG,,,,,5,4,54,6,,,,,,,,,,,,,,,,,,,AMSA03.jpg,AMSA12.jpg,AMNE17.jpg,AMNE12.jpg,AMNE17.jpg,MN,1,num_2,16,num_2,0.983474507084,,,2017_Oct_05_1812,59.9252133538,FEMA4ImagesEEG,001,101867,
AFNE01.JPG,AFNE01.JPG,AFNE01.JPG,AFNE01.JPG,AFNE01.JPG,AFNE01.JPG,,,,,5,5,55,4,,,,,,,,,,,,,,,,,,,AMSA16.jpg,AMSA19.jpg,AMNE05.jpg,AMNE04.jpg,AMSA19.jpg,MS,2,num_6,32,num_8,1.00009461833,,,2017_Oct_05_1812,59.9252133538,FEMA4ImagesEEG,001,101867,
AFNE01.JPG,AFNE01.JPG,AFNE01.JPG,AFNE01.JPG,AFNE01.JPG,AFNE01.JPG,,,,,5,6,56,0,,,,,,,,,,,,,,,,,,,AMSA07.jpg,AMSA17.jpg,AMNE04.jpg,AMNE12.jpg,AMNE04.jpg,MN,1,num_2,16,num_2,1.13343237786,,,2017_Oct_05_1812,59.9252133538,FEMA4ImagesEEG,001,101867,
AFNE01.JPG,AFNE01.JPG,AFNE01.JPG,AFNE01.JPG,AFNE01.JPG,AFNE01.JPG,,,,,5,7,57,9,,,,,,,,,,,,,,,,,,,AMNE19.jpg,AMSA12.jpg,AMSA13.jpg,AMNE05.jpg,AMNE05.jpg,MN,1,num_4,16,num_4,1.35011060722,,,2017_Oct_05_1812,59.9252133538,FEMA4ImagesEEG,001,101867,
AFNE01.JPG,AFNE01.JPG,AFNE01.JPG,AFNE01.JPG,AFNE01.JPG,AFNE01.JPG,,,,,5,8,58,7,,,,,,,,,,,,,,,,,,,AMNE17.jpg,AMSA13.jpg,AMSA12.jpg,AMNE08.jpg,AMSA13.jpg,MS,2,num_6,32,num_2,0.916786864022,,,2017_Oct_05_1812,59.9252133538,FEMA4ImagesEEG,001,101867,
AFNE01.JPG,AFNE01.JPG,AFNE01.JPG,AFNE01.JPG,AFNE01.JPG,AFNE01.JPG,,,,,5,9,59,3,,,,,,,,,,,,,,,,,,,AMSA19.jpg,AMNE05.jpg,AMSA13.jpg,AMNE07.jpg,AMNE05.jpg,MN,1,num_6,32,num_2,1.36676824506,,,2017_Oct_05_1812,59.9252133538,FEMA4ImagesEEG,001,101867,
,,,,,,,,,,,,,,,,,,,,,,,,,,,,,,,,,,,,,,,,,,,space,28.1813278577,2017_Oct_05_1812,59.9252133538,FEMA4ImagesEEG,001,101867,
AFNE01.JPG,AFNE01.JPG,AFNE01.JPG,AFNE01.JPG,AFNE01.JPG,AFNE01.JPG,,,,,,,,,0,0,0,7,,,,,,,,,,,,,,,AFSA06.jpg,AFSA07.jpg,AFNE02.jpg,AFNE03.jpg,AFSA06.jpg,FS,4,num_8,32,num_2,1.38339637479,,,2017_Oct_05_1812,59.9252133538,FEMA4ImagesEEG,001,101867,
AFNE01.JPG,AFNE01.JPG,AFNE01.JPG,AFNE01.JPG,AFNE01.JPG,AFNE01.JPG,,,,,,,,,0,1,1,3,,,,,,,,,,,,,,,AFSA11.jpg,AFSA17.jpg,AFNE10.jpg,AFNE11.jpg,AFNE10.jpg,FN,3,num_2,16,num_2,0.683483712346,,,2017_Oct_05_1812,59.9252133538,FEMA4ImagesEEG,001,101867,
AFNE01.JPG,AFNE01.JPG,AFNE01.JPG,AFNE01.JPG,AFNE01.JPG,AFNE01.JPG,,,,,,,,,0,2,2,9,,,,,,,,,,,,,,,AFNE09.jpg,AFSA20.jpg,AFNE12.jpg,AFSA09.jpg,AFNE12.jpg,FN,3,num_2,16,num_2,1.25004161603,,,2017_Oct_05_1812,59.9252133538,FEMA4ImagesEEG,001,101867,
AFNE01.JPG,AFNE01.JPG,AFNE01.JPG,AFNE01.JPG,AFNE01.JPG,AFNE01.JPG,,,,,,,,,0,3,3,1,,,,,,,,,,,,,,,AFNE15.jpg,AFNE13.jpg,AFSA04.jpg,AFSA19.jpg,AFNE13.jpg,FN,3,num_6,16,num_6,1.05010473769,,,2017_Oct_05_1812,59.9252133538,FEMA4ImagesEEG,001,101867,
AFNE01.JPG,AFNE01.JPG,AFNE01.JPG,AFNE01.JPG,AFNE01.JPG,AFNE01.JPG,,,,,,,,,0,4,4,5,,,,,,,,,,,,,,,AFSA03.jpg,AFNE04.jpg,AFNE13.jpg,AFSA16.jpg,AFNE13.jpg,FN,3,num_2,16,num_2,1.51655035026,,,2017_Oct_05_1812,59.9252133538,FEMA4ImagesEEG,001,101867,
AFNE01.JPG,AFNE01.JPG,AFNE01.JPG,AFNE01.JPG,AFNE01.JPG,AFNE01.JPG,,,,,,,,,0,5,5,8,,,,,,,,,,,,,,,AFNE18.jpg,AFSA20.jpg,AFNE07.jpg,AFSA09.jpg,AFNE07.jpg,FN,3,num_2,32,num_6,1.60003322866,,,2017_Oct_05_1812,59.9252133538,FEMA4ImagesEEG,001,101867,
AFNE01.JPG,AFNE01.JPG,AFNE01.JPG,AFNE01.JPG,AFNE01.JPG,AFNE01.JPG,,,,,,,,,0,6,6,0,,,,,,,,,,,,,,,AFNE14.jpg,AFNE06.jpg,AFSA18.jpg,AFSA07.jpg,AFNE06.jpg,FN,3,num_6,16,num_6,0.766805899941,,,2017_Oct_05_1812,59.9252133538,FEMA4ImagesEEG,001,101867,
AFNE01.JPG,AFNE01.JPG,AFNE01.JPG,AFNE01.JPG,AFNE01.JPG,AFNE01.JPG,,,,,,,,,0,7,7,4,,,,,,,,,,,,,,,AFSA15.jpg,AFNE18.jpg,AFNE17.jpg,AFSA12.jpg,AFNE17.jpg,FN,3,num_2,16,num_2,1.46654985312,,,2017_Oct_05_1812,59.9252133538,FEMA4ImagesEEG,001,101867,
AFNE01.JPG,AFNE01.JPG,AFNE01.JPG,AFNE01.JPG,AFNE01.JPG,AFNE01.JPG,,,,,,,,,0,8,8,6,,,,,,,,,,,,,,,AFSA14.jpg,AFNE12.jpg,AFSA12.jpg,AFNE20.jpg,AFSA12.jpg,FS,4,num_2,16,num_2,0.450140147383,,,2017_Oct_05_1812,59.9252133538,FEMA4ImagesEEG,001,101867,
AFNE01.JPG,AFNE01.JPG,AFNE01.JPG,AFNE01.JPG,AFNE01.JPG,AFNE01.JPG,,,,,,,,,0,9,9,2,,,,,,,,,,,,,,,AFSA05.jpg,AFSA02.jpg,AFNE14.jpg,AFNE13.jpg,AFNE14.jpg,FN,3,num_2,32,num_8,1.38343069397,,,2017_Oct_05_1812,59.9252133538,FEMA4ImagesEEG,001,101867,
AFNE01.JPG,AFNE01.JPG,AFNE01.JPG,AFNE01.JPG,AFNE01.JPG,AFNE01.JPG,,,,,,,,,1,0,10,7,,,,,,,,,,,,,,,AFNE09.jpg,AFSA04.jpg,AFNE02.jpg,AFSA02.jpg,AFNE09.jpg,FN,3,num_8,16,num_8,1.86670938926,,,2017_Oct_05_1812,59.9252133538,FEMA4ImagesEEG,001,101867,
AFNE01.JPG,AFNE01.JPG,AFNE01.JPG,AFNE01.JPG,AFNE01.JPG,AFNE01.JPG,,,,,,,,,1,1,11,2,,,,,,,,,,,,,,,AFNE02.jpg,AFSA14.jpg,AFNE03.jpg,AFSA11.jpg,AFNE02.jpg,FN,3,num_8,16,num_8,1.08343412593,,,2017_Oct_05_1812,59.9252133538,FEMA4ImagesEEG,001,101867,
AFNE01.JPG,AFNE01.JPG,AFNE01.JPG,AFNE01.JPG,AFNE01.JPG,AFNE01.JPG,,,,,,,,,1,2,12,8,,,,,,,,,,,,,,,AFSA08.jpg,AFSA11.jpg,AFNE10.jpg,AFNE14.jpg,AFNE14.jpg,FN,3,num_4,16,num_4,1.23345710695,,,2017_Oct_05_1812,59.9252133538,FEMA4ImagesEEG,001,101867,
AFNE01.JPG,AFNE01.JPG,AFNE01.JPG,AFNE01.JPG,AFNE01.JPG,AFNE01.JPG,,,,,,,,,1,3,13,4,,,,,,,,,,,,,,,AFNE08.jpg,AFNE20.jpg,AFSA10.jpg,AFSA09.jpg,AFNE20.jpg,FN,3,num_6,16,num_6,0.783396823826,,,2017_Oct_05_1812,59.9252133538,FEMA4ImagesEEG,001,101867,
AFNE01.JPG,AFNE01.JPG,AFNE01.JPG,AFNE01.JPG,AFNE01.JPG,AFNE01.JPG,,,,,,,,,1,4,14,0,,,,,,,,,,,,,,,AFNE04.jpg,AFSA02.jpg,AFSA06.jpg,AFNE19.jpg,AFNE19.jpg,FN,3,num_4,16,num_4,1.21674975441,,,2017_Oct_05_1812,59.9252133538,FEMA4ImagesEEG,001,101867,
AFNE01.JPG,AFNE01.JPG,AFNE01.JPG,AFNE01.JPG,AFNE01.JPG,AFNE01.JPG,,,,,,,,,1,5,15,3,,,,,,,,,,,,,,,AFNE01.jpg,AFSA05.jpg,AFNE17.jpg,AFSA16.jpg,AFSA05.jpg,FS,4,num_6,32,num_4,1.71669635118,,,2017_Oct_05_1812,59.9252133538,FEMA4ImagesEEG,001,101867,
AFNE01.JPG,AFNE01.JPG,AFNE01.JPG,AFNE01.JPG,AFNE01.JPG,AFNE01.JPG,,,,,,,,,1,6,16,6,,,,,,,,,,,,,,,AFNE01.jpg,AFSA15.jpg,AFSA18.jpg,AFNE05.jpg,AFSA18.jpg,FS,4,num_2,32,num_4,1.08346619993,,,2017_Oct_05_1812,59.9252133538,FEMA4ImagesEEG,001,101867,
AFNE01.JPG,AFNE01.JPG,AFNE01.JPG,AFNE01.JPG,AFNE01.JPG,AFNE01.JPG,,,,,,,,,1,7,17,5,,,,,,,,,,,,,,,AFSA14.jpg,AFNE19.jpg,AFNE13.jpg,AFSA02.jpg,AFSA14.jpg,FS,4,num_8,16,num_8,2.13335796617,,,2017_Oct_05_1812,59.9252133538,FEMA4ImagesEEG,001,101867,
AFNE01.JPG,AFNE01.JPG,AFNE01.JPG,AFNE01.JPG,AFNE01.JPG,AFNE01.JPG,,,,,,,,,1,8,18,9,,,,,,,,,,,,,,,AFNE11.jpg,AFSA03.jpg,AFSA17.jpg,AFNE15.jpg,AFNE11.jpg,FN,3,num_8,32,num_2,1.18343993131,,,2017_Oct_05_1812,59.9252133538,FEMA4ImagesEEG,001,101867,
AFNE01.JPG,AFNE01.JPG,AFNE01.JPG,AFNE01.JPG,AFNE01.JPG,AFNE01.JPG,,,,,,,,,1,9,19,1,,,,,,,,,,,,,,,AFNE17.jpg,AFSA17.jpg,AFSA18.jpg,AFNE07.jpg,AFNE07.jpg,FN,3,num_4,16,num_4,1.15023915988,,,2017_Oct_05_1812,59.9252133538,FEMA4ImagesEEG,001,101867,
AFNE01.JPG,AFNE01.JPG,AFNE01.JPG,AFNE01.JPG,AFNE01.JPG,AFNE01.JPG,,,,,,,,,2,0,20,7,,,,,,,,,,,,,,,AFNE11.jpg,AFSA08.jpg,AFNE05.jpg,AFSA15.jpg,AFNE05.jpg,FN,3,num_2,32,num_8,1.95005082127,,,2017_Oct_05_1812,59.9252133538,FEMA4ImagesEEG,001,101867,
AFNE01.JPG,AFNE01.JPG,AFNE01.JPG,AFNE01.JPG,AFNE01.JPG,AFNE01.JPG,,,,,,,,,2,1,21,0,,,,,,,,,,,,,,,AFNE20.jpg,AFNE19.jpg,AFSA19.jpg,AFSA03.jpg,AFSA19.jpg,FS,4,num_2,32,num_6,1.09979924877,,,2017_Oct_05_1812,59.9252133538,FEMA4ImagesEEG,001,101867,
AFNE01.JPG,AFNE01.JPG,AFNE01.JPG,AFNE01.JPG,AFNE01.JPG,AFNE01.JPG,,,,,,,,,2,2,22,9,,,,,,,,,,,,,,,AFNE03.jpg,AFNE01.jpg,AFSA01.jpg,AFSA04.jpg,AFNE01.jpg,FN,3,num_6,32,num_8,2.50006527061,,,2017_Oct_05_1812,59.9252133538,FEMA4ImagesEEG,001,101867,
AFNE01.JPG,AFNE01.JPG,AFNE01.JPG,AFNE01.JPG,AFNE01.JPG,AFNE01.JPG,,,,,,,,,2,3,23,1,,,,,,,,,,,,,,,AFNE04.jpg,AFSA06.jpg,AFSA17.jpg,AFNE13.jpg,AFNE13.jpg,FN,3,num_4,32,num_6,0.766585872247,,,2017_Oct_05_1812,59.9252133538,FEMA4ImagesEEG,001,101867,
AFNE01.JPG,AFNE01.JPG,AFNE01.JPG,AFNE01.JPG,AFNE01.JPG,AFNE01.JPG,,,,,,,,,2,4,24,2,,,,,,,,,,,,,,,AFNE15.jpg,AFNE08.jpg,AFSA11.jpg,AFSA19.jpg,AFNE15.jpg,FN,3,num_8,32,num_2,1.26704372876,,,2017_Oct_05_1812,59.9252133538,FEMA4ImagesEEG,001,101867,
AFNE01.JPG,AFNE01.JPG,AFNE01.JPG,AFNE01.JPG,AFNE01.JPG,AFNE01.JPG,,,,,,,,,2,5,25,8,,,,,,,,,,,,,,,AFNE08.jpg,AFSA08.jpg,AFNE15.jpg,AFSA01.jpg,AFSA08.jpg,FS,4,num_6,32,num_4,1.9833282496,,,2017_Oct_05_1812,59.9252133538,FEMA4ImagesEEG,001,101867,
AFNE01.JPG,AFNE01.JPG,AFNE01.JPG,AFNE01.JPG,AFNE01.JPG,AFNE01.JPG,,,,,,,,,2,6,26,5,,,,,,,,,,,,,,,AFNE13.jpg,AFNE12.jpg,AFSA19.jpg,AFSA01.jpg,AFNE13.jpg,FN,3,num_8,32,num_2,1.40006267262,,,2017_Oct_05_1812,59.9252133538,FEMA4ImagesEEG,001,101867,
AFNE01.JPG,AFNE01.JPG,AFNE01.JPG,AFNE01.JPG,AFNE01.JPG,AFNE01.JPG,,,,,,,,,2,7,27,6,,,,,,,,,,,,,,,AFNE19.jpg,AFSA13.jpg,AFSA05.jpg,AFNE11.jpg,AFNE11.jpg,FN,3,num_4,32,num_8,1.21639084621,,,2017_Oct_05_1812,59.9252133538,FEMA4ImagesEEG,001,101867,
AFNE01.JPG,AFNE01.JPG,AFNE01.JPG,AFNE01.JPG,AFNE01.JPG,AFNE01.JPG,,,,,,,,,2,8,28,4,,,,,,,,,,,,,,,AFSA20.jpg,AFNE06.jpg,AFSA03.jpg,AFNE16.jpg,AFNE06.jpg,FN,3,num_6,16,num_6,1.33339844356,,,2017_Oct_05_1812,59.9252133538,FEMA4ImagesEEG,001,101867,
AFNE01.JPG,AFNE01.JPG,AFNE01.JPG,AFNE01.JPG,AFNE01.JPG,AFNE01.JPG,,,,,,,,,2,9,29,3,,,,,,,,,,,,,,,AFSA12.jpg,AFNE01.jpg,AFNE06.jpg,AFSA18.jpg,AFSA12.jpg,FS,4,num_8,32,num_6,1.26683717209,,,2017_Oct_05_1812,59.9252133538,FEMA4ImagesEEG,001,101867,
AFNE01.JPG,AFNE01.JPG,AFNE01.JPG,AFNE01.JPG,AFNE01.JPG,AFNE01.JPG,,,,,,,,,3,0,30,4,,,,,,,,,,,,,,,AFNE06.jpg,AFSA16.jpg,AFSA06.jpg,AFNE07.jpg,AFNE07.jpg,FN,3,num_4,32,num_8,1.56671153821,,,2017_Oct_05_1812,59.9252133538,FEMA4ImagesEEG,001,101867,
AFNE01.JPG,AFNE01.JPG,AFNE01.JPG,AFNE01.JPG,AFNE01.JPG,AFNE01.JPG,,,,,,,,,3,1,31,8,,,,,,,,,,,,,,,AFNE10.jpg,AFNE08.jpg,AFSA05.jpg,AFSA13.jpg,AFSA05.jpg,FS,4,num_2,16,num_2,1.3331213241,,,2017_Oct_05_1812,59.9252133538,FEMA4ImagesEEG,001,101867,
AFNE01.JPG,AFNE01.JPG,AFNE01.JPG,AFNE01.JPG,AFNE01.JPG,AFNE01.JPG,,,,,,,,,3,2,32,2,,,,,,,,,,,,,,,AFNE20.jpg,AFSA19.jpg,AFSA14.jpg,AFNE04.jpg,AFSA14.jpg,FS,4,num_2,32,num_4,2.48328895893,,,2017_Oct_05_1812,59.9252133538,FEMA4ImagesEEG,001,101867,
AFNE01.JPG,AFNE01.JPG,AFNE01.JPG,AFNE01.JPG,AFNE01.JPG,AFNE01.JPG,,,,,,,,,3,3,33,5,,,,,,,,,,,,,,,AFNE07.jpg,AFNE16.jpg,AFSA03.jpg,AFSA11.jpg,AFNE16.jpg,FN,3,num_6,32,num_8,1.98372211846,,,2017_Oct_05_1812,59.9252133538,FEMA4ImagesEEG,001,101867,
AFNE01.JPG,AFNE01.JPG,AFNE01.JPG,AFNE01.JPG,AFNE01.JPG,AFNE01.JPG,,,,,,,,,3,4,34,9,,,,,,,,,,,,,,,AFNE08.jpg,AFSA15.jpg,AFNE04.jpg,AFSA10.jpg,AFNE04.jpg,FN,3,num_2,16,num_2,2.38331330311,,,2017_Oct_05_1812,59.9252133538,FEMA4ImagesEEG,001,101867,
AFNE01.JPG,AFNE01.JPG,AFNE01.JPG,AFNE01.JPG,AFNE01.JPG,AFNE01.JPG,,,,,,,,,3,5,35,6,,,,,,,,,,,,,,,AFSA05.jpg,AFNE09.jpg,AFSA12.jpg,AFNE04.jpg,AFSA12.jpg,FS,4,num_2,16,num_2,1.20007672106,,,2017_Oct_05_1812,59.9252133538,FEMA4ImagesEEG,001,101867,
AFNE01.JPG,AFNE01.JPG,AFNE01.JPG,AFNE01.JPG,AFNE01.JPG,AFNE01.JPG,,,,,,,,,3,6,36,0,,,,,,,,,,,,,,,AFSA06.jpg,AFNE09.jpg,AFNE03.jpg,AFSA10.jpg,AFNE09.jpg,FN,3,num_6,32,num_8,1.43343664374,,,2017_Oct_05_1812,59.9252133538,FEMA4ImagesEEG,001,101867,
AFNE01.JPG,AFNE01.JPG,AFNE01.JPG,AFNE01.JPG,AFNE01.JPG,AFNE01.JPG,,,,,,,,,3,7,37,3,,,,,,,,,,,,,,,AFSA17.jpg,AFNE10.jpg,AFSA02.jpg,AFNE02.jpg,AFSA17.jpg,FS,4,num_8,32,num_4,1.05008549328,,,2017_Oct_05_1812,59.9252133538,FEMA4ImagesEEG,001,101867,
AFNE01.JPG,AFNE01.JPG,AFNE01.JPG,AFNE01.JPG,AFNE01.JPG,AFNE01.JPG,,,,,,,,,3,8,38,7,,,,,,,,,,,,,,,AFSA19.jpg,AFNE11.jpg,AFNE04.jpg,AFSA02.jpg,AFSA19.jpg,FS,4,num_8,32,num_4,1.35021099888,,,2017_Oct_05_1812,59.9252133538,FEMA4ImagesEEG,001,101867,
AFNE01.JPG,AFNE01.JPG,AFNE01.JPG,AFNE01.JPG,AFNE01.JPG,AFNE01.JPG,,,,,,,,,3,9,39,1,,,,,,,,,,,,,,,AFSA06.jpg,AFSA14.jpg,AFNE04.jpg,AFNE14.jpg,AFSA14.jpg,FS,4,num_6,16,num_6,1.30013737301,,,2017_Oct_05_1812,59.9252133538,FEMA4ImagesEEG,001,101867,
AFNE01.JPG,AFNE01.JPG,AFNE01.JPG,AFNE01.JPG,AFNE01.JPG,AFNE01.JPG,,,,,,,,,4,0,40,4,,,,,,,,,,,,,,,AFNE02.jpg,AFSA10.jpg,AFSA06.jpg,AFNE12.jpg,AFSA10.jpg,FS,4,num_6,32,num_4,1.66668462812,,,2017_Oct_05_1812,59.9252133538,FEMA4ImagesEEG,001,101867,
AFNE01.JPG,AFNE01.JPG,AFNE01.JPG,AFNE01.JPG,AFNE01.JPG,AFNE01.JPG,,,,,,,,,4,1,41,6,,,,,,,,,,,,,,,AFNE20.jpg,AFSA04.jpg,AFNE01.jpg,AFSA17.jpg,AFSA04.jpg,FS,4,num_6,16,num_6,1.6667093251,,,2017_Oct_05_1812,59.9252133538,FEMA4ImagesEEG,001,101867,
AFNE01.JPG,AFNE01.JPG,AFNE01.JPG,AFNE01.JPG,AFNE01.JPG,AFNE01.JPG,,,,,,,,,4,2,42,3,,,,,,,,,,,,,,,AFSA10.jpg,AFNE12.jpg,AFSA09.jpg,AFNE11.jpg,AFSA10.jpg,FS,4,num_8,16,num_8,1.96667381917,,,2017_Oct_05_1812,59.9252133538,FEMA4ImagesEEG,001,101867,
AFNE01.JPG,AFNE01.JPG,AFNE01.JPG,AFNE01.JPG,AFNE01.JPG,AFNE01.JPG,,,,,,,,,4,3,43,2,,,,,,,,,,,,,,,AFSA11.jpg,AFNE01.jpg,AFSA03.jpg,AFNE02.jpg,AFNE02.jpg,FN,3,num_4,16,num_4,0.583605882246,,,2017_Oct_05_1812,59.9252133538,FEMA4ImagesEEG,001,101867,
AFNE01.JPG,AFNE01.JPG,AFNE01.JPG,AFNE01.JPG,AFNE01.JPG,AFNE01.JPG,,,,,,,,,4,4,44,8,,,,,,,,,,,,,,,AFNE19.jpg,AFNE05.jpg,AFSA04.jpg,AFSA01.jpg,AFSA04.jpg,FS,4,num_2,16,num_2,1.08343059776,,,2017_Oct_05_1812,59.9252133538,FEMA4ImagesEEG,001,101867,
AFNE01.JPG,AFNE01.JPG,AFNE01.JPG,AFNE01.JPG,AFNE01.JPG,AFNE01.JPG,,,,,,,,,4,5,45,7,,,,,,,,,,,,,,,AFNE08.jpg,AFSA05.jpg,AFNE15.jpg,AFSA08.jpg,AFNE08.jpg,FN,3,num_8,32,num_4,1.6500664413,,,2017_Oct_05_1812,59.9252133538,FEMA4ImagesEEG,001,101867,
AFNE01.JPG,AFNE01.JPG,AFNE01.JPG,AFNE01.JPG,AFNE01.JPG,AFNE01.JPG,,,,,,,,,4,6,46,0,,,,,,,,,,,,,,,AFSA14.jpg,AFNE12.jpg,AFSA03.jpg,AFNE04.jpg,AFNE12.jpg,FN,3,num_6,32,num_8,0.733453097695,,,2017_Oct_05_1812,59.9252133538,FEMA4ImagesEEG,001,101867,
AFNE01.JPG,AFNE01.JPG,AFNE01.JPG,AFNE01.JPG,AFNE01.JPG,AFNE01.JPG,,,,,,,,,4,7,47,9,,,,,,,,,,,,,,,AFNE12.jpg,AFNE06.jpg,AFSA07.jpg,AFSA20.jpg,AFNE06.jpg,FN,3,num_6,16,num_6,1.01674423768,,,2017_Oct_05_1812,59.9252133538,FEMA4ImagesEEG,001,101867,
AFNE01.JPG,AFNE01.JPG,AFNE01.JPG,AFNE01.JPG,AFNE01.JPG,AFNE01.JPG,,,,,,,,,4,8,48,1,,,,,,,,,,,,,,,AFSA02.jpg,AFNE18.jpg,AFSA18.jpg,AFNE16.jpg,AFSA02.jpg,FS,4,num_8,32,num_4,0.716751839209,,,2017_Oct_05_1812,59.9252133538,FEMA4ImagesEEG,001,101867,
AFNE01.JPG,AFNE01.JPG,AFNE01.JPG,AFNE01.JPG,AFNE01.JPG,AFNE01.JPG,,,,,,,,,4,9,49,5,,,,,,,,,,,,,,,AFNE19.jpg,AFSA16.jpg,AFSA04.jpg,AFNE01.jpg,AFSA04.jpg,FS,4,num_2,16,num_2,0.783478933299,,,2017_Oct_05_1812,59.9252133538,FEMA4ImagesEEG,001,101867,
AFNE01.JPG,AFNE01.JPG,AFNE01.JPG,AFNE01.JPG,AFNE01.JPG,AFNE01.JPG,,,,,,,,,5,0,50,4,,,,,,,,,,,,,,,AFNE02.jpg,AFNE14.jpg,AFSA08.jpg,AFSA03.jpg,AFNE14.jpg,FN,3,num_6,32,num_8,1.31670584506,,,2017_Oct_05_1812,59.9252133538,FEMA4ImagesEEG,001,101867,
AFNE01.JPG,AFNE01.JPG,AFNE01.JPG,AFNE01.JPG,AFNE01.JPG,AFNE01.JPG,,,,,,,,,5,1,51,9,,,,,,,,,,,,,,,AFNE03.jpg,AFSA16.jpg,AFSA05.jpg,AFNE11.jpg,AFSA16.jpg,FS,4,num_6,32,num_4,1.51683837487,,,2017_Oct_05_1812,59.9252133538,FEMA4ImagesEEG,001,101867,
AFNE01.JPG,AFNE01.JPG,AFNE01.JPG,AFNE01.JPG,AFNE01.JPG,AFNE01.JPG,,,,,,,,,5,2,52,7,,,,,,,,,,,,,,,AFNE01.jpg,AFSA20.jpg,AFNE13.jpg,AFSA02.jpg,AFNE13.jpg,FN,3,num_2,16,num_2,0.916787826252,,,2017_Oct_05_1812,59.9252133538,FEMA4ImagesEEG,001,101867,
AFNE01.JPG,AFNE01.JPG,AFNE01.JPG,AFNE01.JPG,AFNE01.JPG,AFNE01.JPG,,,,,,,,,5,3,53,5,,,,,,,,,,,,,,,AFNE09.jpg,AFSA05.jpg,AFNE20.jpg,AFSA03.jpg,AFNE09.jpg,FN,3,num_8,32,num_2,0.700113445782,,,2017_Oct_05_1812,59.9252133538,FEMA4ImagesEEG,001,101867,
AFNE01.JPG,AFNE01.JPG,AFNE01.JPG,AFNE01.JPG,AFNE01.JPG,AFNE01.JPG,,,,,,,,,5,4,54,2,,,,,,,,,,,,,,,AFNE14.jpg,AFSA20.jpg,AFSA15.jpg,AFNE03.jpg,AFNE14.jpg,FN,3,num_8,16,num_8,0.566837909806,,,2017_Oct_05_1812,59.9252133538,FEMA4ImagesEEG,001,101867,
AFNE01.JPG,AFNE01.JPG,AFNE01.JPG,AFNE01.JPG,AFNE01.JPG,AFNE01.JPG,,,,,,,,,5,5,55,3,,,,,,,,,,,,,,,AFSA20.jpg,AFSA15.jpg,AFNE17.jpg,AFNE15.jpg,AFSA20.jpg,FS,4,num_8,32,num_2,1.11676255192,,,2017_Oct_05_1812,59.9252133538,FEMA4ImagesEEG,001,101867,
AFNE01.JPG,AFNE01.JPG,AFNE01.JPG,AFNE01.JPG,AFNE01.JPG,AFNE01.JPG,,,,,,,,,5,6,56,6,,,,,,,,,,,,,,,AFSA19.jpg,AFNE01.jpg,AFSA05.jpg,AFNE12.jpg,AFNE01.jpg,FN,3,num_6,32,num_4,1.41672031046,,,2017_Oct_05_1812,59.9252133538,FEMA4ImagesEEG,001,101867,
AFNE01.JPG,AFNE01.JPG,AFNE01.JPG,AFNE01.JPG,AFNE01.JPG,AFNE01.JPG,,,,,,,,,5,7,57,1,,,,,,,,,,,,,,,AFSA19.jpg,AFSA02.jpg,AFNE15.jpg,AFNE10.jpg,AFSA02.jpg,FS,4,num_6,16,num_6,0.88347319208,,,2017_Oct_05_1812,59.9252133538,FEMA4ImagesEEG,001,101867,
AFNE01.JPG,AFNE01.JPG,AFNE01.JPG,AFNE01.JPG,AFNE01.JPG,AFNE01.JPG,,,,,,,,,5,8,58,0,,,,,,,,,,,,,,,AFSA02.jpg,AFNE14.jpg,AFNE02.jpg,AFSA12.jpg,AFNE02.jpg,FN,3,num_2,16,num_2,1.41671678232,,,2017_Oct_05_1812,59.9252133538,FEMA4ImagesEEG,001,101867,
AFNE01.JPG,AFNE01.JPG,AFNE01.JPG,AFNE01.JPG,AFNE01.JPG,AFNE01.JPG,,,,,,,,,5,9,59,8,,,,,,,,,,,,,,,AFNE10.jpg,AFSA18.jpg,AFSA20.jpg,AFNE14.jpg,AFSA18.jpg,FS,4,num_6,16,num_6,1.23342503293,,,2017_Oct_05_1812,59.9252133538,FEMA4ImagesEEG,001,101867,
,,,,,,,,,,,,,,,,,,,,,,,,,,,,,,,,,,,,,,,,,,,space,7.6329187126,2017_Oct_05_1812,59.9252133538,FEMA4ImagesEEG,001,101867,
AFNE01.JPG,AFNE01.JPG,AFNE01.JPG,AFNE01.JPG,AFNE01.JPG,AFNE01.JPG,,,,,,,,,,,,,0,0,0,3,,,,,,,,,,,AMNE08.jpg,AMNE17.jpg,AMSA03.jpg,AMSA13.jpg,AMSA13.jpg,MS,2,num_4,16,num_4,1.25010480185,,,2017_Oct_05_1812,59.9252133538,FEMA4ImagesEEG,001,101867,
AFNE01.JPG,AFNE01.JPG,AFNE01.JPG,AFNE01.JPG,AFNE01.JPG,AFNE01.JPG,,,,,,,,,,,,,0,1,1,6,,,,,,,,,,,AMSA03.jpg,AMNE03.jpg,AMSA04.jpg,AMNE08.jpg,AMSA04.jpg,MS,2,num_2,16,num_2,0.900156168384,,,2017_Oct_05_1812,59.9252133538,FEMA4ImagesEEG,001,101867,
AFNE01.JPG,AFNE01.JPG,AFNE01.JPG,AFNE01.JPG,AFNE01.JPG,AFNE01.JPG,,,,,,,,,,,,,0,2,2,8,,,,,,,,,,,AMNE08.jpg,AMNE19.jpg,AMSA07.jpg,AMSA06.jpg,AMSA06.jpg,MS,2,num_4,32,num_6,1.06677745029,,,2017_Oct_05_1812,59.9252133538,FEMA4ImagesEEG,001,101867,
AFNE01.JPG,AFNE01.JPG,AFNE01.JPG,AFNE01.JPG,AFNE01.JPG,AFNE01.JPG,,,,,,,,,,,,,0,3,3,5,,,,,,,,,,,AMSA04.jpg,AMSA02.jpg,AMNE14.jpg,AMNE07.jpg,AMNE07.jpg,MN,1,num_4,16,num_4,0.983456545655,,,2017_Oct_05_1812,59.9252133538,FEMA4ImagesEEG,001,101867,
AFNE01.JPG,AFNE01.JPG,AFNE01.JPG,AFNE01.JPG,AFNE01.JPG,AFNE01.JPG,,,,,,,,,,,,,0,4,4,0,,,,,,,,,,,AMSA15.jpg,AMNE13.jpg,AMNE19.jpg,AMSA05.jpg,AMNE13.jpg,MN,1,num_6,32,num_4,0.750202787953,,,2017_Oct_05_1812,59.9252133538,FEMA4ImagesEEG,001,101867,
AFNE01.JPG,AFNE01.JPG,AFNE01.JPG,AFNE01.JPG,AFNE01.JPG,AFNE01.JPG,,,,,,,,,,,,,0,5,5,9,,,,,,,,,,,AMNE04.jpg,AMSA14.jpg,AMSA06.jpg,AMNE17.jpg,AMSA14.jpg,MS,2,num_6,32,num_8,0.800114440062,,,2017_Oct_05_1812,59.9252133538,FEMA4ImagesEEG,001,101867,
AFNE01.JPG,AFNE01.JPG,AFNE01.JPG,AFNE01.JPG,AFNE01.JPG,AFNE01.JPG,,,,,,,,,,,,,0,6,6,7,,,,,,,,,,,AMSA16.jpg,AMNE14.jpg,AMSA18.jpg,AMNE19.jpg,AMNE14.jpg,MN,1,num_6,16,num_6,0.900136923941,,,2017_Oct_05_1812,59.9252133538,FEMA4ImagesEEG,001,101867,
AFNE01.JPG,AFNE01.JPG,AFNE01.JPG,AFNE01.JPG,AFNE01.JPG,AFNE01.JPG,,,,,,,,,,,,,0,7,7,4,,,,,,,,,,,AMSA18.jpg,AMNE19.jpg,AMSA14.jpg,AMNE09.jpg,AMNE19.jpg,MN,1,num_6,32,num_8,1.38339605407,,,2017_Oct_05_1812,59.9252133538,FEMA4ImagesEEG,001,101867,
AFNE01.JPG,AFNE01.JPG,AFNE01.JPG,AFNE01.JPG,AFNE01.JPG,AFNE01.JPG,,,,,,,,,,,,,0,8,8,2,,,,,,,,,,,AMNE19.jpg,AMSA12.jpg,AMNE13.jpg,AMSA04.jpg,AMNE13.jpg,MN,1,num_2,32,num_6,0.750352573581,,,2017_Oct_05_1812,59.9252133538,FEMA4ImagesEEG,001,101867,
AFNE01.JPG,AFNE01.JPG,AFNE01.JPG,AFNE01.JPG,AFNE01.JPG,AFNE01.JPG,,,,,,,,,,,,,0,9,9,1,,,,,,,,,,,AMSA13.jpg,AMNE14.jpg,AMNE02.jpg,AMSA12.jpg,AMNE14.jpg,MN,1,num_6,16,num_6,0.916711169353,,,2017_Oct_05_1812,59.9252133538,FEMA4ImagesEEG,001,101867,
AFNE01.JPG,AFNE01.JPG,AFNE01.JPG,AFNE01.JPG,AFNE01.JPG,AFNE01.JPG,,,,,,,,,,,,,1,0,10,9,,,,,,,,,,,AMNE11.jpg,AMNE20.jpg,AMSA16.jpg,AMSA15.jpg,AMNE11.jpg,MN,1,num_8,16,num_8,0.800133042998,,,2017_Oct_05_1812,59.9252133538,FEMA4ImagesEEG,001,101867,
AFNE01.JPG,AFNE01.JPG,AFNE01.JPG,AFNE01.JPG,AFNE01.JPG,AFNE01.JPG,,,,,,,,,,,,,1,1,11,0,,,,,,,,,,,AMSA11.jpg,AMNE08.jpg,AMNE10.jpg,AMSA20.jpg,AMNE10.jpg,MN,1,num_2,32,num_8,1.98340362354,,,2017_Oct_05_1812,59.9252133538,FEMA4ImagesEEG,001,101867,
AFNE01.JPG,AFNE01.JPG,AFNE01.JPG,AFNE01.JPG,AFNE01.JPG,AFNE01.JPG,,,,,,,,,,,,,1,2,12,5,,,,,,,,,,,AMSA14.jpg,AMNE08.jpg,AMSA06.jpg,AMNE09.jpg,AMNE09.jpg,MN,1,num_4,16,num_4,1.08344503108,,,2017_Oct_05_1812,59.9252133538,FEMA4ImagesEEG,001,101867,
AFNE01.JPG,AFNE01.JPG,AFNE01.JPG,AFNE01.JPG,AFNE01.JPG,AFNE01.JPG,,,,,,,,,,,,,1,3,13,8,,,,,,,,,,,AMNE13.jpg,AMNE03.jpg,AMSA10.jpg,AMSA18.jpg,AMSA10.jpg,MS,2,num_2,16,num_2,1.28347748998,,,2017_Oct_05_1812,59.9252133538,FEMA4ImagesEEG,001,101867,
AFNE01.JPG,AFNE01.JPG,AFNE01.JPG,AFNE01.JPG,AFNE01.JPG,AFNE01.JPG,,,,,,,,,,,,,1,4,14,1,,,,,,,,,,,AMSA02.jpg,AMNE16.jpg,AMSA01.jpg,AMNE18.jpg,AMSA01.jpg,MS,2,num_2,16,num_2,0.916792637348,,,2017_Oct_05_1812,59.9252133538,FEMA4ImagesEEG,001,101867,
AFNE01.JPG,AFNE01.JPG,AFNE01.JPG,AFNE01.JPG,AFNE01.JPG,AFNE01.JPG,,,,,,,,,,,,,1,5,15,7,,,,,,,,,,,AMSA04.jpg,AMNE05.jpg,AMNE08.jpg,AMSA09.jpg,AMSA04.jpg,MS,2,num_8,32,num_2,1.26673613899,,,2017_Oct_05_1812,59.9252133538,FEMA4ImagesEEG,001,101867,
AFNE01.JPG,AFNE01.JPG,AFNE01.JPG,AFNE01.JPG,AFNE01.JPG,AFNE01.JPG,,,,,,,,,,,,,1,6,16,2,,,,,,,,,,,AMNE08.jpg,AMSA09.jpg,AMNE05.jpg,AMSA18.jpg,AMSA09.jpg,MS,2,num_6,16,num_6,0.650022179179,,,2017_Oct_05_1812,59.9252133538,FEMA4ImagesEEG,001,101867,
AFNE01.JPG,AFNE01.JPG,AFNE01.JPG,AFNE01.JPG,AFNE01.JPG,AFNE01.JPG,,,,,,,,,,,,,1,7,17,3,,,,,,,,,,,AMSA17.jpg,AMNE18.jpg,AMNE09.jpg,AMSA10.jpg,AMSA17.jpg,MS,2,num_8,16,num_8,1.13346701779,,,2017_Oct_05_1812,59.9252133538,FEMA4ImagesEEG,001,101867,
AFNE01.JPG,AFNE01.JPG,AFNE01.JPG,AFNE01.JPG,AFNE01.JPG,AFNE01.JPG,,,,,,,,,,,,,1,8,18,6,,,,,,,,,,,AMSA01.jpg,AMSA13.jpg,AMNE20.jpg,AMNE12.jpg,AMNE12.jpg,MN,1,num_4,16,num_4,1.86669078632,,,2017_Oct_05_1812,59.9252133538,FEMA4ImagesEEG,001,101867,
AFNE01.JPG,AFNE01.JPG,AFNE01.JPG,AFNE01.JPG,AFNE01.JPG,AFNE01.JPG,,,,,,,,,,,,,1,9,19,4,,,,,,,,,,,AMSA10.jpg,AMSA12.jpg,AMNE11.jpg,AMNE15.jpg,AMNE15.jpg,MN,1,num_4,32,num_6,1.13343975489,,,2017_Oct_05_1812,59.9252133538,FEMA4ImagesEEG,001,101867,
AFNE01.JPG,AFNE01.JPG,AFNE01.JPG,AFNE01.JPG,AFNE01.JPG,AFNE01.JPG,,,,,,,,,,,,,2,0,20,2,,,,,,,,,,,AMSA06.jpg,AMNE04.jpg,AMNE19.jpg,AMSA19.jpg,AMSA19.jpg,MS,2,num_4,16,num_4,0.600139072892,,,2017_Oct_05_1812,59.9252133538,FEMA4ImagesEEG,001,101867,
AFNE01.JPG,AFNE01.JPG,AFNE01.JPG,AFNE01.JPG,AFNE01.JPG,AFNE01.JPG,,,,,,,,,,,,,2,1,21,6,,,,,,,,,,,AMNE03.jpg,AMNE17.jpg,AMSA14.jpg,AMSA15.jpg,AMSA15.jpg,MS,2,num_4,16,num_4,0.750265653012,,,2017_Oct_05_1812,59.9252133538,FEMA4ImagesEEG,001,101867,
AFNE01.JPG,AFNE01.JPG,AFNE01.JPG,AFNE01.JPG,AFNE01.JPG,AFNE01.JPG,,,,,,,,,,,,,2,2,22,0,,,,,,,,,,,AMSA11.jpg,AMNE04.jpg,AMNE15.jpg,AMSA20.jpg,AMNE15.jpg,MN,1,num_2,16,num_2,1.83334119146,,,2017_Oct_05_1812,59.9252133538,FEMA4ImagesEEG,001,101867,
AFNE01.JPG,AFNE01.JPG,AFNE01.JPG,AFNE01.JPG,AFNE01.JPG,AFNE01.JPG,,,,,,,,,,,,,2,3,23,8,,,,,,,,,,,AMNE06.jpg,AMNE14.jpg,AMSA05.jpg,AMSA03.jpg,AMNE06.jpg,MN,1,num_8,16,num_8,0.966772927874,,,2017_Oct_05_1812,59.9252133538,FEMA4ImagesEEG,001,101867,
AFNE01.JPG,AFNE01.JPG,AFNE01.JPG,AFNE01.JPG,AFNE01.JPG,AFNE01.JPG,,,,,,,,,,,,,2,4,24,4,,,,,,,,,,,AMSA18.jpg,AMNE13.jpg,AMSA02.jpg,AMNE04.jpg,AMSA18.jpg,MS,2,num_8,16,num_8,1.41675430891,,,2017_Oct_05_1812,59.9252133538,FEMA4ImagesEEG,001,101867,
AFNE01.JPG,AFNE01.JPG,AFNE01.JPG,AFNE01.JPG,AFNE01.JPG,AFNE01.JPG,,,,,,,,,,,,,2,5,25,7,,,,,,,,,,,AMNE02.jpg,AMNE05.jpg,AMSA13.jpg,AMSA01.jpg,AMSA13.jpg,MS,2,num_2,16,num_2,1.40007037041,,,2017_Oct_05_1812,59.9252133538,FEMA4ImagesEEG,001,101867,
AFNE01.JPG,AFNE01.JPG,AFNE01.JPG,AFNE01.JPG,AFNE01.JPG,AFNE01.JPG,,,,,,,,,,,,,2,6,26,5,,,,,,,,,,,AMSA12.jpg,AMNE19.jpg,AMSA02.jpg,AMNE17.jpg,AMNE17.jpg,MN,1,num_4,32,num_8,1.20008987136,,,2017_Oct_05_1812,59.9252133538,FEMA4ImagesEEG,001,101867,
AFNE01.JPG,AFNE01.JPG,AFNE01.JPG,AFNE01.JPG,AFNE01.JPG,AFNE01.JPG,,,,,,,,,,,,,2,7,27,3,,,,,,,,,,,AMNE01.jpg,AMSA15.jpg,AMNE06.jpg,AMSA16.jpg,AMNE01.jpg,MN,1,num_8,32,num_2,1.61670562054,,,2017_Oct_05_1812,59.9252133538,FEMA4ImagesEEG,001,101867,
AFNE01.JPG,AFNE01.JPG,AFNE01.JPG,AFNE01.JPG,AFNE01.JPG,AFNE01.JPG,,,,,,,,,,,,,2,8,28,1,,,,,,,,,,,AMSA02.jpg,AMNE11.jpg,AMSA09.jpg,AMNE20.jpg,AMNE11.jpg,MN,1,num_6,16,num_6,1.28342937896,,,2017_Oct_05_1812,59.9252133538,FEMA4ImagesEEG,001,101867,
AFNE01.JPG,AFNE01.JPG,AFNE01.JPG,AFNE01.JPG,AFNE01.JPG,AFNE01.JPG,,,,,,,,,,,,,2,9,29,9,,,,,,,,,,,AMSA15.jpg,AMSA06.jpg,AMNE09.jpg,AMNE05.jpg,AMNE05.jpg,MN,1,num_4,32,num_2,2.11661661518,,,2017_Oct_05_1812,59.9252133538,FEMA4ImagesEEG,001,101867,
AFNE01.JPG,AFNE01.JPG,AFNE01.JPG,AFNE01.JPG,AFNE01.JPG,AFNE01.JPG,,,,,,,,,,,,,3,0,30,0,,,,,,,,,,,AMNE17.jpg,AMSA06.jpg,AMSA18.jpg,AMNE19.jpg,AMNE17.jpg,MN,1,num_8,16,num_8,0.750000080181,,,2017_Oct_05_1812,59.9252133538,FEMA4ImagesEEG,001,101867,
AFNE01.JPG,AFNE01.JPG,AFNE01.JPG,AFNE01.JPG,AFNE01.JPG,AFNE01.JPG,,,,,,,,,,,,,3,1,31,3,,,,,,,,,,,AMSA02.jpg,AMNE14.jpg,AMSA06.jpg,AMNE20.jpg,AMSA06.jpg,MS,2,num_2,32,num_8,1.15014967337,,,2017_Oct_05_1812,59.9252133538,FEMA4ImagesEEG,001,101867,
AFNE01.JPG,AFNE01.JPG,AFNE01.JPG,AFNE01.JPG,AFNE01.JPG,AFNE01.JPG,,,,,,,,,,,,,3,2,32,9,,,,,,,,,,,AMNE15.jpg,AMSA19.jpg,AMSA04.jpg,AMNE18.jpg,AMSA04.jpg,MS,2,num_2,16,num_2,0.650166832958,,,2017_Oct_05_1812,59.9252133538,FEMA4ImagesEEG,001,101867,
AFNE01.JPG,AFNE01.JPG,AFNE01.JPG,AFNE01.JPG,AFNE01.JPG,AFNE01.JPG,,,,,,,,,,,,,3,3,33,7,,,,,,,,,,,AMNE03.jpg,AMSA14.jpg,AMSA08.jpg,AMNE09.jpg,AMNE03.jpg,MN,1,num_8,32,num_2,2.01673525694,,,2017_Oct_05_1812,59.9252133538,FEMA4ImagesEEG,001,101867,
AFNE01.JPG,AFNE01.JPG,AFNE01.JPG,AFNE01.JPG,AFNE01.JPG,AFNE01.JPG,,,,,,,,,,,,,3,4,34,4,,,,,,,,,,,AMSA20.jpg,AMNE12.jpg,AMNE18.jpg,AMSA08.jpg,AMNE18.jpg,MN,1,num_2,16,num_2,2.40001680679,,,2017_Oct_05_1812,59.9252133538,FEMA4ImagesEEG,001,101867,
AFNE01.JPG,AFNE01.JPG,AFNE01.JPG,AFNE01.JPG,AFNE01.JPG,AFNE01.JPG,,,,,,,,,,,,,3,5,35,2,,,,,,,,,,,AMNE14.jpg,AMSA07.jpg,AMNE06.jpg,AMSA05.jpg,AMSA05.jpg,MS,2,num_4,32,num_8,0.966737967188,,,2017_Oct_05_1812,59.9252133538,FEMA4ImagesEEG,001,101867,
AFNE01.JPG,AFNE01.JPG,AFNE01.JPG,AFNE01.JPG,AFNE01.JPG,AFNE01.JPG,,,,,,,,,,,,,3,6,36,5,,,,,,,,,,,AMNE10.jpg,AMSA13.jpg,AMSA07.jpg,AMNE08.jpg,AMSA13.jpg,MS,2,num_6,16,num_6,0.849995621917,,,2017_Oct_05_1812,59.9252133538,FEMA4ImagesEEG,001,101867,
AFNE01.JPG,AFNE01.JPG,AFNE01.JPG,AFNE01.JPG,AFNE01.JPG,AFNE01.JPG,,,,,,,,,,,,,3,7,37,1,,,,,,,,,,,AMSA15.jpg,AMNE14.jpg,AMNE17.jpg,AMSA18.jpg,AMSA18.jpg,MS,2,num_4,32,num_8,0.666798170103,,,2017_Oct_05_1812,59.9252133538,FEMA4ImagesEEG,001,101867,
AFNE01.JPG,AFNE01.JPG,AFNE01.JPG,AFNE01.JPG,AFNE01.JPG,AFNE01.JPG,,,,,,,,,,,,,3,8,38,6,,,,,,,,,,,AMNE06.jpg,AMSA11.jpg,AMSA19.jpg,AMNE12.jpg,AMNE12.jpg,MN,1,num_4,16,num_4,1.86669816333,,,2017_Oct_05_1812,59.9252133538,FEMA4ImagesEEG,001,101867,
AFNE01.JPG,AFNE01.JPG,AFNE01.JPG,AFNE01.JPG,AFNE01.JPG,AFNE01.JPG,,,,,,,,,,,,,3,9,39,8,,,,,,,,,,,AMSA01.jpg,AMSA10.jpg,AMNE19.jpg,AMNE20.jpg,AMNE19.jpg,MN,1,num_2,16,num_2,1.30006296127,,,2017_Oct_05_1812,59.9252133538,FEMA4ImagesEEG,001,101867,
AFNE01.JPG,AFNE01.JPG,AFNE01.JPG,AFNE01.JPG,AFNE01.JPG,AFNE01.JPG,,,,,,,,,,,,,4,0,40,4,,,,,,,,,,,AMSA12.jpg,AMNE13.jpg,AMSA13.jpg,AMNE10.jpg,AMSA13.jpg,MS,2,num_2,32,num_6,0.966756890877,,,2017_Oct_05_1812,59.9252133538,FEMA4ImagesEEG,001,101867,
AFNE01.JPG,AFNE01.JPG,AFNE01.JPG,AFNE01.JPG,AFNE01.JPG,AFNE01.JPG,,,,,,,,,,,,,4,1,41,0,,,,,,,,,,,AMNE14.jpg,AMSA08.jpg,AMNE12.jpg,AMSA11.jpg,AMNE12.jpg,MN,1,num_2,16,num_2,0.866753651382,,,2017_Oct_05_1812,59.9252133538,FEMA4ImagesEEG,001,101867,
AFNE01.JPG,AFNE01.JPG,AFNE01.JPG,AFNE01.JPG,AFNE01.JPG,AFNE01.JPG,,,,,,,,,,,,,4,2,42,9,,,,,,,,,,,AMNE06.jpg,AMSA04.jpg,AMSA11.jpg,AMNE03.jpg,AMNE03.jpg,MN,1,num_4,32,num_8,0.799968503328,,,2017_Oct_05_1812,59.9252133538,FEMA4ImagesEEG,001,101867,
AFNE01.JPG,AFNE01.JPG,AFNE01.JPG,AFNE01.JPG,AFNE01.JPG,AFNE01.JPG,,,,,,,,,,,,,4,3,43,3,,,,,,,,,,,AMSA11.jpg,AMNE08.jpg,AMSA15.jpg,AMNE13.jpg,AMNE13.jpg,MN,1,num_4,32,num_8,0.883576791122,,,2017_Oct_05_1812,59.9252133538,FEMA4ImagesEEG,001,101867,
AFNE01.JPG,AFNE01.JPG,AFNE01.JPG,AFNE01.JPG,AFNE01.JPG,AFNE01.JPG,,,,,,,,,,,,,4,4,44,2,,,,,,,,,,,AMSA16.jpg,AMNE17.jpg,AMSA08.jpg,AMNE20.jpg,AMNE20.jpg,MN,1,num_4,32,num_2,0.816774323088,,,2017_Oct_05_1812,59.9252133538,FEMA4ImagesEEG,001,101867,
AFNE01.JPG,AFNE01.JPG,AFNE01.JPG,AFNE01.JPG,AFNE01.JPG,AFNE01.JPG,,,,,,,,,,,,,4,5,45,5,,,,,,,,,,,AMNE17.jpg,AMNE15.jpg,AMSA18.jpg,AMSA01.jpg,AMNE15.jpg,MN,1,num_6,16,num_6,0.850157595647,,,2017_Oct_05_1812,59.9252133538,FEMA4ImagesEEG,001,101867,
AFNE01.JPG,AFNE01.JPG,AFNE01.JPG,AFNE01.JPG,AFNE01.JPG,AFNE01.JPG,,,,,,,,,,,,,4,6,46,8,,,,,,,,,,,AMSA11.jpg,AMNE10.jpg,AMNE13.jpg,AMSA12.jpg,AMSA11.jpg,MS,2,num_8,32,num_4,0.916867049062,,,2017_Oct_05_1812,59.9252133538,FEMA4ImagesEEG,001,101867,
AFNE01.JPG,AFNE01.JPG,AFNE01.JPG,AFNE01.JPG,AFNE01.JPG,AFNE01.JPG,,,,,,,,,,,,,4,7,47,1,,,,,,,,,,,AMSA15.jpg,AMNE15.jpg,AMSA13.jpg,AMNE20.jpg,AMSA13.jpg,MS,2,num_2,16,num_2,1.6333770502,,,2017_Oct_05_1812,59.9252133538,FEMA4ImagesEEG,001,101867,
AFNE01.JPG,AFNE01.JPG,AFNE01.JPG,AFNE01.JPG,AFNE01.JPG,AFNE01.JPG,,,,,,,,,,,,,4,8,48,7,,,,,,,,,,,AMNE15.jpg,AMSA19.jpg,AMSA04.jpg,AMNE20.jpg,AMNE20.jpg,MN,1,num_4,16,num_4,0.650158493721,,,2017_Oct_05_1812,59.9252133538,FEMA4ImagesEEG,001,101867,
AFNE01.JPG,AFNE01.JPG,AFNE01.JPG,AFNE01.JPG,AFNE01.JPG,AFNE01.JPG,,,,,,,,,,,,,4,9,49,6,,,,,,,,,,,AMSA16.jpg,AMNE05.jpg,AMSA18.jpg,AMNE08.jpg,AMNE05.jpg,MN,1,num_6,16,num_6,1.26669829164,,,2017_Oct_05_1812,59.9252133538,FEMA4ImagesEEG,001,101867,
AFNE01.JPG,AFNE01.JPG,AFNE01.JPG,AFNE01.JPG,AFNE01.JPG,AFNE01.JPG,,,,,,,,,,,,,5,0,50,1,,,,,,,,,,,AMNE10.jpg,AMSA06.jpg,AMSA20.jpg,AMNE03.jpg,AMSA20.jpg,MS,2,num_2,16,num_2,0.866826780111,,,2017_Oct_05_1812,59.9252133538,FEMA4ImagesEEG,001,101867,
AFNE01.JPG,AFNE01.JPG,AFNE01.JPG,AFNE01.JPG,AFNE01.JPG,AFNE01.JPG,,,,,,,,,,,,,5,1,51,6,,,,,,,,,,,AMNE20.jpg,AMSA16.jpg,AMSA19.jpg,AMNE08.jpg,AMNE08.jpg,MN,1,num_4,16,num_4,1.10009849927,,,2017_Oct_05_1812,59.9252133538,FEMA4ImagesEEG,001,101867,
AFNE01.JPG,AFNE01.JPG,AFNE01.JPG,AFNE01.JPG,AFNE01.JPG,AFNE01.JPG,,,,,,,,,,,,,5,2,52,9,,,,,,,,,,,AMSA01.jpg,AMSA14.jpg,AMNE10.jpg,AMNE04.jpg,AMSA01.jpg,MS,2,num_8,32,num_4,0.866781235032,,,2017_Oct_05_1812,59.9252133538,FEMA4ImagesEEG,001,101867,
AFNE01.JPG,AFNE01.JPG,AFNE01.JPG,AFNE01.JPG,AFNE01.JPG,AFNE01.JPG,,,,,,,,,,,,,5,3,53,8,,,,,,,,,,,AMSA12.jpg,AMNE15.jpg,AMSA09.jpg,AMNE12.jpg,AMNE15.jpg,MN,1,num_6,32,num_2,0.816730060964,,,2017_Oct_05_1812,59.9252133538,FEMA4ImagesEEG,001,101867,
AFNE01.JPG,AFNE01.JPG,AFNE01.JPG,AFNE01.JPG,AFNE01.JPG,AFNE01.JPG,,,,,,,,,,,,,5,4,54,0,,,,,,,,,,,AMNE16.jpg,AMNE15.jpg,AMSA17.jpg,AMSA02.jpg,AMNE16.jpg,MN,1,num_8,16,num_8,1.13345194302,,,2017_Oct_05_1812,59.9252133538,FEMA4ImagesEEG,001,101867,
AFNE01.JPG,AFNE01.JPG,AFNE01.JPG,AFNE01.JPG,AFNE01.JPG,AFNE01.JPG,,,,,,,,,,,,,5,5,55,7,,,,,,,,,,,AMNE02.jpg,AMSA14.jpg,AMNE20.jpg,AMSA12.jpg,AMNE20.jpg,MN,1,num_2,32,num_8,1.06678354437,,,2017_Oct_05_1812,59.9252133538,FEMA4ImagesEEG,001,101867,
AFNE01.JPG,AFNE01.JPG,AFNE01.JPG,AFNE01.JPG,AFNE01.JPG,AFNE01.JPG,,,,,,,,,,,,,5,6,56,4,,,,,,,,,,,AMSA11.jpg,AMNE01.jpg,AMSA06.jpg,AMNE09.jpg,AMNE01.jpg,MN,1,num_6,16,num_6,1.23339777003,,,2017_Oct_05_1812,59.9252133538,FEMA4ImagesEEG,001,101867,
AFNE01.JPG,AFNE01.JPG,AFNE01.JPG,AFNE01.JPG,AFNE01.JPG,AFNE01.JPG,,,,,,,,,,,,,5,7,57,5,,,,,,,,,,,AMNE08.jpg,AMSA14.jpg,AMSA18.jpg,AMNE15.jpg,AMNE15.jpg,MN,1,num_4,16,num_4,0.783490800706,,,2017_Oct_05_1812,59.9252133538,FEMA4ImagesEEG,001,101867,
AFNE01.JPG,AFNE01.JPG,AFNE01.JPG,AFNE01.JPG,AFNE01.JPG,AFNE01.JPG,,,,,,,,,,,,,5,8,58,2,,,,,,,,,,,AMNE08.jpg,AMSA03.jpg,AMNE02.jpg,AMSA04.jpg,AMSA04.jpg,MS,2,num_4,32,num_2,1.1162522544,,,2017_Oct_05_1812,59.9252133538,FEMA4ImagesEEG,001,101867,
AFNE01.JPG,AFNE01.JPG,AFNE01.JPG,AFNE01.JPG,AFNE01.JPG,AFNE01.JPG,,,,,,,,,,,,,5,9,59,3,,,,,,,,,,,AMNE05.jpg,AMNE07.jpg,AMSA08.jpg,AMSA05.jpg,AMSA05.jpg,MS,2,num_4,32,num_8,1.45005354757,,,2017_Oct_05_1812,59.9252133538,FEMA4ImagesEEG,001,101867,
,,,,,,,,,,,,,,,,,,,,,,,,,,,,,,,,,,,,,,,,,,,space,15.9822672413,2017_Oct_05_1812,59.9252133538,FEMA4ImagesEEG,001,101867,
AFNE01.JPG,AFNE01.JPG,AFNE01.JPG,AFNE01.JPG,AFNE01.JPG,AFNE01.JPG,,,,,,,,,,,,,,,,,0,0,0,4,,,,,,,AFSA01.jpg,AFNE09.jpg,AFSA09.jpg,AFNE20.jpg,AFNE20.jpg,FN,3,num_4,16,num_4,1.51669372112,,,2017_Oct_05_1812,59.9252133538,FEMA4ImagesEEG,001,101867,
AFNE01.JPG,AFNE01.JPG,AFNE01.JPG,AFNE01.JPG,AFNE01.JPG,AFNE01.JPG,,,,,,,,,,,,,,,,,0,1,1,2,,,,,,,AFSA09.jpg,AFNE07.jpg,AFSA18.jpg,AFNE06.jpg,AFSA18.jpg,FS,4,num_2,16,num_2,0.833448960126,,,2017_Oct_05_1812,59.9252133538,FEMA4ImagesEEG,001,101867,
AFNE01.JPG,AFNE01.JPG,AFNE01.JPG,AFNE01.JPG,AFNE01.JPG,AFNE01.JPG,,,,,,,,,,,,,,,,,0,2,2,9,,,,,,,AFSA02.jpg,AFSA18.jpg,AFNE16.jpg,AFNE18.jpg,AFSA02.jpg,FS,4,num_8,16,num_8,1.2334680121,,,2017_Oct_05_1812,59.9252133538,FEMA4ImagesEEG,001,101867,
AFNE01.JPG,AFNE01.JPG,AFNE01.JPG,AFNE01.JPG,AFNE01.JPG,AFNE01.JPG,,,,,,,,,,,,,,,,,0,3,3,5,,,,,,,AFNE05.jpg,AFSA08.jpg,AFSA03.jpg,AFNE08.jpg,AFNE05.jpg,FN,3,num_8,32,num_4,0.816805114126,,,2017_Oct_05_1812,59.9252133538,FEMA4ImagesEEG,001,101867,
AFNE01.JPG,AFNE01.JPG,AFNE01.JPG,AFNE01.JPG,AFNE01.JPG,AFNE01.JPG,,,,,,,,,,,,,,,,,0,4,4,6,,,,,,,AFSA07.jpg,AFNE10.jpg,AFSA15.jpg,AFNE19.jpg,AFNE19.jpg,FN,3,num_4,16,num_4,1.11683439772,,,2017_Oct_05_1812,59.9252133538,FEMA4ImagesEEG,001,101867,
AFNE01.JPG,AFNE01.JPG,AFNE01.JPG,AFNE01.JPG,AFNE01.JPG,AFNE01.JPG,,,,,,,,,,,,,,,,,0,5,5,3,,,,,,,AFSA02.jpg,AFNE01.jpg,AFSA05.jpg,AFNE05.jpg,AFSA02.jpg,FS,4,num_8,16,num_8,0.933426861156,,,2017_Oct_05_1812,59.9252133538,FEMA4ImagesEEG,001,101867,
AFNE01.JPG,AFNE01.JPG,AFNE01.JPG,AFNE01.JPG,AFNE01.JPG,AFNE01.JPG,,,,,,,,,,,,,,,,,0,6,6,7,,,,,,,AFSA20.jpg,AFSA08.jpg,AFNE17.jpg,AFNE02.jpg,AFNE02.jpg,FN,3,num_4,16,num_4,1.16682623487,,,2017_Oct_05_1812,59.9252133538,FEMA4ImagesEEG,001,101867,
AFNE01.JPG,AFNE01.JPG,AFNE01.JPG,AFNE01.JPG,AFNE01.JPG,AFNE01.JPG,,,,,,,,,,,,,,,,,0,7,7,8,,,,,,,AFSA16.jpg,AFSA12.jpg,AFNE01.jpg,AFNE16.jpg,AFNE01.jpg,FN,3,num_2,16,num_2,2.43338404235,,,2017_Oct_05_1812,59.9252133538,FEMA4ImagesEEG,001,101867,
AFNE01.JPG,AFNE01.JPG,AFNE01.JPG,AFNE01.JPG,AFNE01.JPG,AFNE01.JPG,,,,,,,,,,,,,,,,,0,8,8,1,,,,,,,AFSA10.jpg,AFSA05.jpg,AFNE08.jpg,AFNE16.jpg,AFSA05.jpg,FS,4,num_6,16,num_6,0.950128119643,,,2017_Oct_05_1812,59.9252133538,FEMA4ImagesEEG,001,101867,
AFNE01.JPG,AFNE01.JPG,AFNE01.JPG,AFNE01.JPG,AFNE01.JPG,AFNE01.JPG,,,,,,,,,,,,,,,,,0,9,9,0,,,,,,,AFNE01.jpg,AFNE11.jpg,AFSA02.jpg,AFSA13.jpg,AFNE11.jpg,FN,3,num_6,16,num_6,2.10003018164,,,2017_Oct_05_1812,59.9252133538,FEMA4ImagesEEG,001,101867,
AFNE01.JPG,AFNE01.JPG,AFNE01.JPG,AFNE01.JPG,AFNE01.JPG,AFNE01.JPG,,,,,,,,,,,,,,,,,1,0,10,1,,,,,,,AFNE13.jpg,AFNE14.jpg,AFSA01.jpg,AFSA18.jpg,AFNE14.jpg,FN,3,num_6,16,num_6,0.816749305348,,,2017_Oct_05_1812,59.9252133538,FEMA4ImagesEEG,001,101867,
AFNE01.JPG,AFNE01.JPG,AFNE01.JPG,AFNE01.JPG,AFNE01.JPG,AFNE01.JPG,,,,,,,,,,,,,,,,,1,1,11,0,,,,,,,AFSA14.jpg,AFNE15.jpg,AFNE10.jpg,AFSA04.jpg,AFSA14.jpg,FS,4,num_8,32,num_2,1.15009739273,,,2017_Oct_05_1812,59.9252133538,FEMA4ImagesEEG,001,101867,
AFNE01.JPG,AFNE01.JPG,AFNE01.JPG,AFNE01.JPG,AFNE01.JPG,AFNE01.JPG,,,,,,,,,,,,,,,,,1,2,12,8,,,,,,,AFSA07.jpg,AFSA15.jpg,AFNE15.jpg,AFNE19.jpg,AFSA07.jpg,FS,4,num_8,16,num_8,0.78301546385,,,2017_Oct_05_1812,59.9252133538,FEMA4ImagesEEG,001,101867,
AFNE01.JPG,AFNE01.JPG,AFNE01.JPG,AFNE01.JPG,AFNE01.JPG,AFNE01.JPG,,,,,,,,,,,,,,,,,1,3,13,7,,,,,,,AFSA15.jpg,AFNE13.jpg,AFNE14.jpg,AFSA13.jpg,AFSA15.jpg,FS,4,num_8,16,num_8,0.666841149301,,,2017_Oct_05_1812,59.9252133538,FEMA4ImagesEEG,001,101867,
AFNE01.JPG,AFNE01.JPG,AFNE01.JPG,AFNE01.JPG,AFNE01.JPG,AFNE01.JPG,,,,,,,,,,,,,,,,,1,4,14,2,,,,,,,AFSA08.jpg,AFNE12.jpg,AFNE19.jpg,AFSA05.jpg,AFNE19.jpg,FN,3,num_2,16,num_2,1.43344722813,,,2017_Oct_05_1812,59.9252133538,FEMA4ImagesEEG,001,101867,
AFNE01.JPG,AFNE01.JPG,AFNE01.JPG,AFNE01.JPG,AFNE01.JPG,AFNE01.JPG,,,,,,,,,,,,,,,,,1,5,15,6,,,,,,,AFSA04.jpg,AFNE13.jpg,AFNE04.jpg,AFSA16.jpg,AFNE04.jpg,FN,3,num_2,32,num_8,0.800242415367,,,2017_Oct_05_1812,59.9252133538,FEMA4ImagesEEG,001,101867,
AFNE01.JPG,AFNE01.JPG,AFNE01.JPG,AFNE01.JPG,AFNE01.JPG,AFNE01.JPG,,,,,,,,,,,,,,,,,1,6,16,4,,,,,,,AFSA10.jpg,AFNE05.jpg,AFSA14.jpg,AFNE13.jpg,AFNE05.jpg,FN,3,num_6,16,num_6,0.700182725646,,,2017_Oct_05_1812,59.9252133538,FEMA4ImagesEEG,001,101867,
AFNE01.JPG,AFNE01.JPG,AFNE01.JPG,AFNE01.JPG,AFNE01.JPG,AFNE01.JPG,,,,,,,,,,,,,,,,,1,7,17,3,,,,,,,AFSA14.jpg,AFSA18.jpg,AFNE06.jpg,AFNE02.jpg,AFNE02.jpg,FN,3,num_4,16,num_4,0.816780417139,,,2017_Oct_05_1812,59.9252133538,FEMA4ImagesEEG,001,101867,
AFNE01.JPG,AFNE01.JPG,AFNE01.JPG,AFNE01.JPG,AFNE01.JPG,AFNE01.JPG,,,,,,,,,,,,,,,,,1,8,18,5,,,,,,,AFNE04.jpg,AFNE09.jpg,AFSA07.jpg,AFSA16.jpg,AFNE09.jpg,FN,3,num_6,32,num_8,1.01678946204,,,2017_Oct_05_1812,59.9252133538,FEMA4ImagesEEG,001,101867,
AFNE01.JPG,AFNE01.JPG,AFNE01.JPG,AFNE01.JPG,AFNE01.JPG,AFNE01.JPG,,,,,,,,,,,,,,,,,1,9,19,9,,,,,,,AFNE15.jpg,AFSA19.jpg,AFNE08.jpg,AFSA01.jpg,AFNE08.jpg,FN,3,num_2,32,num_8,0.583443587762,,,2017_Oct_05_1812,59.9252133538,FEMA4ImagesEEG,001,101867,
AFNE01.JPG,AFNE01.JPG,AFNE01.JPG,AFNE01.JPG,AFNE01.JPG,AFNE01.JPG,,,,,,,,,,,,,,,,,2,0,20,3,,,,,,,AFNE07.jpg,AFNE03.jpg,AFSA17.jpg,AFSA10.jpg,AFSA17.jpg,FS,4,num_2,16,num_2,1.20011873799,,,2017_Oct_05_1812,59.9252133538,FEMA4ImagesEEG,001,101867,
AFNE01.JPG,AFNE01.JPG,AFNE01.JPG,AFNE01.JPG,AFNE01.JPG,AFNE01.JPG,,,,,,,,,,,,,,,,,2,1,21,5,,,,,,,AFSA11.jpg,AFSA19.jpg,AFNE03.jpg,AFNE20.jpg,AFSA19.jpg,FS,4,num_6,16,num_6,0.700171820499,,,2017_Oct_05_1812,59.9252133538,FEMA4ImagesEEG,001,101867,
AFNE01.JPG,AFNE01.JPG,AFNE01.JPG,AFNE01.JPG,AFNE01.JPG,AFNE01.JPG,,,,,,,,,,,,,,,,,2,2,22,0,,,,,,,AFNE13.jpg,AFSA15.jpg,AFNE04.jpg,AFSA16.jpg,AFSA16.jpg,FS,4,num_4,16,num_4,1.18340304619,,,2017_Oct_05_1812,59.9252133538,FEMA4ImagesEEG,001,101867,
AFNE01.JPG,AFNE01.JPG,AFNE01.JPG,AFNE01.JPG,AFNE01.JPG,AFNE01.JPG,,,,,,,,,,,,,,,,,2,3,23,6,,,,,,,AFSA13.jpg,AFNE11.jpg,AFSA18.jpg,AFNE14.jpg,AFNE14.jpg,FN,3,num_4,16,num_4,0.933434558916,,,2017_Oct_05_1812,59.9252133538,FEMA4ImagesEEG,001,101867,
AFNE01.JPG,AFNE01.JPG,AFNE01.JPG,AFNE01.JPG,AFNE01.JPG,AFNE01.JPG,,,,,,,,,,,,,,,,,2,4,24,7,,,,,,,AFNE09.jpg,AFNE02.jpg,AFSA14.jpg,AFSA15.jpg,AFSA14.jpg,FS,4,num_2,32,num_6,0.933430068544,,,2017_Oct_05_1812,59.9252133538,FEMA4ImagesEEG,001,101867,
AFNE01.JPG,AFNE01.JPG,AFNE01.JPG,AFNE01.JPG,AFNE01.JPG,AFNE01.JPG,,,,,,,,,,,,,,,,,2,5,25,1,,,,,,,AFSA13.jpg,AFSA14.jpg,AFNE15.jpg,AFNE08.jpg,AFNE15.jpg,FN,3,num_2,32,num_8,1.13342403865,,,2017_Oct_05_1812,59.9252133538,FEMA4ImagesEEG,001,101867,
AFNE01.JPG,AFNE01.JPG,AFNE01.JPG,AFNE01.JPG,AFNE01.JPG,AFNE01.JPG,,,,,,,,,,,,,,,,,2,6,26,8,,,,,,,AFNE16.jpg,AFSA02.jpg,AFSA13.jpg,AFNE03.jpg,AFNE03.jpg,FN,3,num_4,16,num_4,0.700144557573,,,2017_Oct_05_1812,59.9252133538,FEMA4ImagesEEG,001,101867,
AFNE01.JPG,AFNE01.JPG,AFNE01.JPG,AFNE01.JPG,AFNE01.JPG,AFNE01.JPG,,,,,,,,,,,,,,,,,2,7,27,4,,,,,,,AFSA14.jpg,AFSA19.jpg,AFNE04.jpg,AFNE11.jpg,AFNE04.jpg,FN,3,num_2,16,num_2,0.866831270483,,,2017_Oct_05_1812,59.9252133538,FEMA4ImagesEEG,001,101867,
AFNE01.JPG,AFNE01.JPG,AFNE01.JPG,AFNE01.JPG,AFNE01.JPG,AFNE01.JPG,,,,,,,,,,,,,,,,,2,8,28,2,,,,,,,AFSA16.jpg,AFNE05.jpg,AFNE18.jpg,AFSA15.jpg,AFSA15.jpg,FS,4,num_4,32,num_2,1.20010205949,,,2017_Oct_05_1812,59.9252133538,FEMA4ImagesEEG,001,101867,
AFNE01.JPG,AFNE01.JPG,AFNE01.JPG,AFNE01.JPG,AFNE01.JPG,AFNE01.JPG,,,,,,,,,,,,,,,,,2,9,29,9,,,,,,,AFNE14.jpg,AFSA01.jpg,AFNE11.jpg,AFSA19.jpg,AFNE14.jpg,FN,3,num_8,16,num_8,0.966788644117,,,2017_Oct_05_1812,59.9252133538,FEMA4ImagesEEG,001,101867,
AFNE01.JPG,AFNE01.JPG,AFNE01.JPG,AFNE01.JPG,AFNE01.JPG,AFNE01.JPG,,,,,,,,,,,,,,,,,3,0,30,0,,,,,,,AFSA05.jpg,AFNE15.jpg,AFNE14.jpg,AFSA04.jpg,AFSA04.jpg,FS,4,num_4,16,num_4,0.899985855358,,,2017_Oct_05_1812,59.9252133538,FEMA4ImagesEEG,001,101867,
AFNE01.JPG,AFNE01.JPG,AFNE01.JPG,AFNE01.JPG,AFNE01.JPG,AFNE01.JPG,,,,,,,,,,,,,,,,,3,1,31,8,,,,,,,AFNE15.jpg,AFNE18.jpg,AFSA12.jpg,AFSA16.jpg,AFNE18.jpg,FN,3,num_6,32,num_8,1.06676462069,,,2017_Oct_05_1812,59.9252133538,FEMA4ImagesEEG,001,101867,
AFNE01.JPG,AFNE01.JPG,AFNE01.JPG,AFNE01.JPG,AFNE01.JPG,AFNE01.JPG,,,,,,,,,,,,,,,,,3,2,32,2,,,,,,,AFNE01.jpg,AFSA16.jpg,AFSA11.jpg,AFNE03.jpg,AFNE03.jpg,FN,3,num_4,32,num_6,1.95005563239,,,2017_Oct_05_1812,59.9252133538,FEMA4ImagesEEG,001,101867,
AFNE01.JPG,AFNE01.JPG,AFNE01.JPG,AFNE01.JPG,AFNE01.JPG,AFNE01.JPG,,,,,,,,,,,,,,,,,3,3,33,5,,,,,,,AFNE10.jpg,AFNE11.jpg,AFSA10.jpg,AFSA07.jpg,AFNE11.jpg,FN,3,num_6,16,num_6,1.1667608039,,,2017_Oct_05_1812,59.9252133538,FEMA4ImagesEEG,001,101867,
AFNE01.JPG,AFNE01.JPG,AFNE01.JPG,AFNE01.JPG,AFNE01.JPG,AFNE01.JPG,,,,,,,,,,,,,,,,,3,4,34,4,,,,,,,AFSA04.jpg,AFNE15.jpg,AFSA14.jpg,AFNE07.jpg,AFSA14.jpg,FS,4,num_2,16,num_2,0.949962296989,,,2017_Oct_05_1812,59.9252133538,FEMA4ImagesEEG,001,101867,
AFNE01.JPG,AFNE01.JPG,AFNE01.JPG,AFNE01.JPG,AFNE01.JPG,AFNE01.JPG,,,,,,,,,,,,,,,,,3,5,35,9,,,,,,,AFSA07.jpg,AFNE01.jpg,AFNE14.jpg,AFSA02.jpg,AFNE14.jpg,FN,3,num_2,16,num_2,0.75013094215,,,2017_Oct_05_1812,59.9252133538,FEMA4ImagesEEG,001,101867,
AFNE01.JPG,AFNE01.JPG,AFNE01.JPG,AFNE01.JPG,AFNE01.JPG,AFNE01.JPG,,,,,,,,,,,,,,,,,3,6,36,6,,,,,,,AFSA12.jpg,AFSA14.jpg,AFNE18.jpg,AFNE13.jpg,AFSA14.jpg,FS,4,num_6,32,num_2,1.16676497349,,,2017_Oct_05_1812,59.9252133538,FEMA4ImagesEEG,001,101867,
AFNE01.JPG,AFNE01.JPG,AFNE01.JPG,AFNE01.JPG,AFNE01.JPG,AFNE01.JPG,,,,,,,,,,,,,,,,,3,7,37,1,,,,,,,AFSA03.jpg,AFNE15.jpg,AFNE05.jpg,AFSA10.jpg,AFNE05.jpg,FN,3,num_2,32,num_8,1.05013713244,,,2017_Oct_05_1812,59.9252133538,FEMA4ImagesEEG,001,101867,
AFNE01.JPG,AFNE01.JPG,AFNE01.JPG,AFNE01.JPG,AFNE01.JPG,AFNE01.JPG,,,,,,,,,,,,,,,,,3,8,38,7,,,,,,,AFNE01.jpg,AFNE06.jpg,AFSA04.jpg,AFSA14.jpg,AFNE01.jpg,FN,3,num_8,32,num_6,1.23342663664,,,2017_Oct_05_1812,59.9252133538,FEMA4ImagesEEG,001,101867,
AFNE01.JPG,AFNE01.JPG,AFNE01.JPG,AFNE01.JPG,AFNE01.JPG,AFNE01.JPG,,,,,,,,,,,,,,,,,3,9,39,3,,,,,,,AFNE09.jpg,AFSA08.jpg,AFSA06.jpg,AFNE07.jpg,AFSA08.jpg,FS,4,num_6,32,num_8,1.2335295942,,,2017_Oct_05_1812,59.9252133538,FEMA4ImagesEEG,001,101867,
AFNE01.JPG,AFNE01.JPG,AFNE01.JPG,AFNE01.JPG,AFNE01.JPG,AFNE01.JPG,,,,,,,,,,,,,,,,,4,0,40,0,,,,,,,AFNE14.jpg,AFSA12.jpg,AFNE05.jpg,AFSA16.jpg,AFNE05.jpg,FN,3,num_2,16,num_2,1.16673193729,,,2017_Oct_05_1812,59.9252133538,FEMA4ImagesEEG,001,101867,
AFNE01.JPG,AFNE01.JPG,AFNE01.JPG,AFNE01.JPG,AFNE01.JPG,AFNE01.JPG,,,,,,,,,,,,,,,,,4,1,41,1,,,,,,,AFNE14.jpg,AFNE09.jpg,AFSA01.jpg,AFSA02.jpg,AFSA02.jpg,FS,4,num_4,16,num_4,0.650150475209,,,2017_Oct_05_1812,59.9252133538,FEMA4ImagesEEG,001,101867,
AFNE01.JPG,AFNE01.JPG,AFNE01.JPG,AFNE01.JPG,AFNE01.JPG,AFNE01.JPG,,,,,,,,,,,,,,,,,4,2,42,4,,,,,,,AFNE07.jpg,AFSA02.jpg,AFSA10.jpg,AFNE11.jpg,AFNE11.jpg,FN,3,num_4,32,num_2,1.383414657,,,2017_Oct_05_1812,59.9252133538,FEMA4ImagesEEG,001,101867,
AFNE01.JPG,AFNE01.JPG,AFNE01.JPG,AFNE01.JPG,AFNE01.JPG,AFNE01.JPG,,,,,,,,,,,,,,,,,4,3,43,2,,,,,,,AFNE06.jpg,AFSA17.jpg,AFSA04.jpg,AFNE01.jpg,AFSA17.jpg,FS,4,num_6,32,num_2,0.916751903365,,,2017_Oct_05_1812,59.9252133538,FEMA4ImagesEEG,001,101867,
AFNE01.JPG,AFNE01.JPG,AFNE01.JPG,AFNE01.JPG,AFNE01.JPG,AFNE01.JPG,,,,,,,,,,,,,,,,,4,4,44,3,,,,,,,AFNE15.jpg,AFNE09.jpg,AFSA01.jpg,AFSA06.jpg,AFNE15.jpg,FN,3,num_8,16,num_8,0.80011508154,,,2017_Oct_05_1812,59.9252133538,FEMA4ImagesEEG,001,101867,
AFNE01.JPG,AFNE01.JPG,AFNE01.JPG,AFNE01.JPG,AFNE01.JPG,AFNE01.JPG,,,,,,,,,,,,,,,,,4,5,45,6,,,,,,,AFSA06.jpg,AFSA13.jpg,AFNE03.jpg,AFNE02.jpg,AFNE02.jpg,FN,3,num_4,16,num_4,1.91650525419,,,2017_Oct_05_1812,59.9252133538,FEMA4ImagesEEG,001,101867,
AFNE01.JPG,AFNE01.JPG,AFNE01.JPG,AFNE01.JPG,AFNE01.JPG,AFNE01.JPG,,,,,,,,,,,,,,,,,4,6,46,8,,,,,,,AFNE03.jpg,AFSA05.jpg,AFNE10.jpg,AFSA06.jpg,AFNE03.jpg,FN,3,num_8,16,num_8,0.950359373237,,,2017_Oct_05_1812,59.9252133538,FEMA4ImagesEEG,001,101867,
AFNE01.JPG,AFNE01.JPG,AFNE01.JPG,AFNE01.JPG,AFNE01.JPG,AFNE01.JPG,,,,,,,,,,,,,,,,,4,7,47,7,,,,,,,AFSA09.jpg,AFNE04.jpg,AFSA12.jpg,AFNE07.jpg,AFNE04.jpg,FN,3,num_6,16,num_6,0.666909466934,,,2017_Oct_05_1812,59.9252133538,FEMA4ImagesEEG,001,101867,
AFNE01.JPG,AFNE01.JPG,AFNE01.JPG,AFNE01.JPG,AFNE01.JPG,AFNE01.JPG,,,,,,,,,,,,,,,,,4,8,48,9,,,,,,,AFSA04.jpg,AFSA12.jpg,AFNE05.jpg,AFNE08.jpg,AFNE08.jpg,FN,3,num_4,32,num_2,1.16670435361,,,2017_Oct_05_1812,59.9252133538,FEMA4ImagesEEG,001,101867,
AFNE01.JPG,AFNE01.JPG,AFNE01.JPG,AFNE01.JPG,AFNE01.JPG,AFNE01.JPG,,,,,,,,,,,,,,,,,4,9,49,5,,,,,,,AFNE05.jpg,AFSA10.jpg,AFSA03.jpg,AFNE16.jpg,AFSA03.jpg,FS,4,num_2,32,num_8,0.916765053698,,,2017_Oct_05_1812,59.9252133538,FEMA4ImagesEEG,001,101867,
AFNE01.JPG,AFNE01.JPG,AFNE01.JPG,AFNE01.JPG,AFNE01.JPG,AFNE01.JPG,,,,,,,,,,,,,,,,,5,0,50,7,,,,,,,AFSA01.jpg,AFNE04.jpg,AFSA06.jpg,AFNE09.jpg,AFSA06.jpg,FS,4,num_2,16,num_2,1.23339199671,,,2017_Oct_05_1812,59.9252133538,FEMA4ImagesEEG,001,101867,
AFNE01.JPG,AFNE01.JPG,AFNE01.JPG,AFNE01.JPG,AFNE01.JPG,AFNE01.JPG,,,,,,,,,,,,,,,,,5,1,51,4,,,,,,,AFSA17.jpg,AFNE10.jpg,AFSA14.jpg,AFNE01.jpg,AFSA14.jpg,FS,4,num_2,32,num_8,0.983422867954,,,2017_Oct_05_1812,59.9252133538,FEMA4ImagesEEG,001,101867,
AFNE01.JPG,AFNE01.JPG,AFNE01.JPG,AFNE01.JPG,AFNE01.JPG,AFNE01.JPG,,,,,,,,,,,,,,,,,5,2,52,6,,,,,,,AFSA18.jpg,AFSA03.jpg,AFNE09.jpg,AFNE11.jpg,AFNE11.jpg,FN,3,num_4,32,num_8,1.05009254959,,,2017_Oct_05_1812,59.9252133538,FEMA4ImagesEEG,001,101867,
AFNE01.JPG,AFNE01.JPG,AFNE01.JPG,AFNE01.JPG,AFNE01.JPG,AFNE01.JPG,,,,,,,,,,,,,,,,,5,3,53,1,,,,,,,AFNE01.jpg,AFSA09.jpg,AFNE17.jpg,AFSA15.jpg,AFSA15.jpg,FS,4,num_4,16,num_4,0.716770442144,,,2017_Oct_05_1812,59.9252133538,FEMA4ImagesEEG,001,101867,
AFNE01.JPG,AFNE01.JPG,AFNE01.JPG,AFNE01.JPG,AFNE01.JPG,AFNE01.JPG,,,,,,,,,,,,,,,,,5,4,54,5,,,,,,,AFSA10.jpg,AFSA03.jpg,AFNE17.jpg,AFNE15.jpg,AFNE15.jpg,FN,3,num_4,16,num_4,0.716806044278,,,2017_Oct_05_1812,59.9252133538,FEMA4ImagesEEG,001,101867,
AFNE01.JPG,AFNE01.JPG,AFNE01.JPG,AFNE01.JPG,AFNE01.JPG,AFNE01.JPG,,,,,,,,,,,,,,,,,5,5,55,2,,,,,,,AFNE01.jpg,AFSA10.jpg,AFSA08.jpg,AFNE09.jpg,AFSA10.jpg,FS,4,num_6,16,num_6,1.00012188125,,,2017_Oct_05_1812,59.9252133538,FEMA4ImagesEEG,001,101867,
AFNE01.JPG,AFNE01.JPG,AFNE01.JPG,AFNE01.JPG,AFNE01.JPG,AFNE01.JPG,,,,,,,,,,,,,,,,,5,6,56,0,,,,,,,AFSA18.jpg,AFNE17.jpg,AFSA01.jpg,AFNE14.jpg,AFSA01.jpg,FS,4,num_2,32,num_6,1.08317304347,,,2017_Oct_05_1812,59.9252133538,FEMA4ImagesEEG,001,101867,
AFNE01.JPG,AFNE01.JPG,AFNE01.JPG,AFNE01.JPG,AFNE01.JPG,AFNE01.JPG,,,,,,,,,,,,,,,,,5,7,57,8,,,,,,,AFNE13.jpg,AFNE20.jpg,AFSA20.jpg,AFSA18.jpg,AFNE20.jpg,FN,3,num_6,32,num_8,0.950119459652,,,2017_Oct_05_1812,59.9252133538,FEMA4ImagesEEG,001,101867,
AFNE01.JPG,AFNE01.JPG,AFNE01.JPG,AFNE01.JPG,AFNE01.JPG,AFNE01.JPG,,,,,,,,,,,,,,,,,5,8,58,9,,,,,,,AFSA13.jpg,AFSA12.jpg,AFNE11.jpg,AFNE07.jpg,AFSA13.jpg,FS,4,num_8,32,num_6,0.766857859853,,,2017_Oct_05_1812,59.9252133538,FEMA4ImagesEEG,001,101867,
AFNE01.JPG,AFNE01.JPG,AFNE01.JPG,AFNE01.JPG,AFNE01.JPG,AFNE01.JPG,,,,,,,,,,,,,,,,,5,9,59,3,,,,,,,AFSA09.jpg,AFNE04.jpg,AFSA08.jpg,AFNE15.jpg,AFSA09.jpg,FS,4,num_8,32,num_2,0.950096366374,,,2017_Oct_05_1812,59.9252133538,FEMA4ImagesEEG,001,101867,
,,,,,,,,,,,,,,,,,,,,,,,,,,,,,,,,,,,,,,,,,,,space,50.5631978303,2017_Oct_05_1812,59.9252133538,FEMA4ImagesEEG,001,101867,
AFNE01.JPG,AFNE01.JPG,AFNE01.JPG,AFNE01.JPG,AFNE01.JPG,AFNE01.JPG,,,,,,,,,,,,,,,,,,,,,0,0,0,4,,,AMSA14.jpg,AMNE04.jpg,AMNE09.jpg,AMSA09.jpg,AMSA09.jpg,MS,2,num_4,16,num_4,0.950159552158,,,2017_Oct_05_1812,59.9252133538,FEMA4ImagesEEG,001,101867,
AFNE01.JPG,AFNE01.JPG,AFNE01.JPG,AFNE01.JPG,AFNE01.JPG,AFNE01.JPG,,,,,,,,,,,,,,,,,,,,,0,1,1,8,,,AMNE07.jpg,AMNE03.jpg,AMSA20.jpg,AMSA09.jpg,AMNE07.jpg,MN,1,num_8,16,num_8,0.866813950532,,,2017_Oct_05_1812,59.9252133538,FEMA4ImagesEEG,001,101867,
AFNE01.JPG,AFNE01.JPG,AFNE01.JPG,AFNE01.JPG,AFNE01.JPG,AFNE01.JPG,,,,,,,,,,,,,,,,,,,,,0,2,2,7,,,AMNE03.jpg,AMSA18.jpg,AMSA20.jpg,AMNE06.jpg,AMSA18.jpg,MS,2,num_6,16,num_6,0.816728778009,,,2017_Oct_05_1812,59.9252133538,FEMA4ImagesEEG,001,101867,
AFNE01.JPG,AFNE01.JPG,AFNE01.JPG,AFNE01.JPG,AFNE01.JPG,AFNE01.JPG,,,,,,,,,,,,,,,,,,,,,0,3,3,9,,,AMNE20.jpg,AMNE18.jpg,AMSA15.jpg,AMSA20.jpg,AMNE18.jpg,MN,1,num_6,16,num_6,0.916732979676,,,2017_Oct_05_1812,59.9252133538,FEMA4ImagesEEG,001,101867,
AFNE01.JPG,AFNE01.JPG,AFNE01.JPG,AFNE01.JPG,AFNE01.JPG,AFNE01.JPG,,,,,,,,,,,,,,,,,,,,,0,4,4,1,,,AMSA08.jpg,AMNE07.jpg,AMNE06.jpg,AMSA01.jpg,AMSA01.jpg,MS,2,num_4,16,num_4,0.900142055791,,,2017_Oct_05_1812,59.9252133538,FEMA4ImagesEEG,001,101867,
AFNE01.JPG,AFNE01.JPG,AFNE01.JPG,AFNE01.JPG,AFNE01.JPG,AFNE01.JPG,,,,,,,,,,,,,,,,,,,,,0,5,5,3,,,AMNE05.jpg,AMSA04.jpg,AMSA10.jpg,AMNE13.jpg,AMSA04.jpg,MS,2,num_6,16,num_6,0.483482365235,,,2017_Oct_05_1812,59.9252133538,FEMA4ImagesEEG,001,101867,
AFNE01.JPG,AFNE01.JPG,AFNE01.JPG,AFNE01.JPG,AFNE01.JPG,AFNE01.JPG,,,,,,,,,,,,,,,,,,,,,0,6,6,6,,,AMSA15.jpg,AMNE01.jpg,AMSA12.jpg,AMNE18.jpg,AMSA15.jpg,MS,2,num_8,16,num_8,0.866738897341,,,2017_Oct_05_1812,59.9252133538,FEMA4ImagesEEG,001,101867,
AFNE01.JPG,AFNE01.JPG,AFNE01.JPG,AFNE01.JPG,AFNE01.JPG,AFNE01.JPG,,,,,,,,,,,,,,,,,,,,,0,7,7,5,,,AMSA13.jpg,AMNE07.jpg,AMSA19.jpg,AMNE20.jpg,AMSA19.jpg,MS,2,num_2,16,num_2,1.11672278016,,,2017_Oct_05_1812,59.9252133538,FEMA4ImagesEEG,001,101867,
AFNE01.JPG,AFNE01.JPG,AFNE01.JPG,AFNE01.JPG,AFNE01.JPG,AFNE01.JPG,,,,,,,,,,,,,,,,,,,,,0,8,8,0,,,AMNE20.jpg,AMNE02.jpg,AMSA14.jpg,AMSA01.jpg,AMNE20.jpg,MN,1,num_8,16,num_8,0.833601953171,,,2017_Oct_05_1812,59.9252133538,FEMA4ImagesEEG,001,101867,
AFNE01.JPG,AFNE01.JPG,AFNE01.JPG,AFNE01.JPG,AFNE01.JPG,AFNE01.JPG,,,,,,,,,,,,,,,,,,,,,0,9,9,2,,,AMSA06.jpg,AMNE02.jpg,AMNE04.jpg,AMSA19.jpg,AMNE02.jpg,MN,1,num_6,32,num_8,0.949999502831,,,2017_Oct_05_1812,59.9252133538,FEMA4ImagesEEG,001,101867,
AFNE01.JPG,AFNE01.JPG,AFNE01.JPG,AFNE01.JPG,AFNE01.JPG,AFNE01.JPG,,,,,,,,,,,,,,,,,,,,,1,0,10,9,,,AMNE07.jpg,AMNE13.jpg,AMSA04.jpg,AMSA12.jpg,AMSA04.jpg,MS,2,num_2,16,num_2,1.30011652489,,,2017_Oct_05_1812,59.9252133538,FEMA4ImagesEEG,001,101867,
AFNE01.JPG,AFNE01.JPG,AFNE01.JPG,AFNE01.JPG,AFNE01.JPG,AFNE01.JPG,,,,,,,,,,,,,,,,,,,,,1,1,11,8,,,AMNE05.jpg,AMNE07.jpg,AMSA03.jpg,AMSA09.jpg,AMSA09.jpg,MS,2,num_4,16,num_4,0.600230163109,,,2017_Oct_05_1812,59.9252133538,FEMA4ImagesEEG,001,101867,
AFNE01.JPG,AFNE01.JPG,AFNE01.JPG,AFNE01.JPG,AFNE01.JPG,AFNE01.JPG,,,,,,,,,,,,,,,,,,,,,1,2,12,1,,,AMSA05.jpg,AMSA13.jpg,AMNE08.jpg,AMNE10.jpg,AMSA13.jpg,MS,2,num_6,32,num_8,1.35009136284,,,2017_Oct_05_1812,59.9252133538,FEMA4ImagesEEG,001,101867,
AFNE01.JPG,AFNE01.JPG,AFNE01.JPG,AFNE01.JPG,AFNE01.JPG,AFNE01.JPG,,,,,,,,,,,,,,,,,,,,,1,3,13,5,,,AMSA10.jpg,AMSA20.jpg,AMNE04.jpg,AMNE17.jpg,AMNE04.jpg,MN,1,num_2,16,num_2,1.68346414721,,,2017_Oct_05_1812,59.9252133538,FEMA4ImagesEEG,001,101867,
AFNE01.JPG,AFNE01.JPG,AFNE01.JPG,AFNE01.JPG,AFNE01.JPG,AFNE01.JPG,,,,,,,,,,,,,,,,,,,,,1,4,14,3,,,AMNE12.jpg,AMSA16.jpg,AMNE20.jpg,AMSA14.jpg,AMSA16.jpg,MS,2,num_6,32,num_8,1.71671623705,,,2017_Oct_05_1812,59.9252133538,FEMA4ImagesEEG,001,101867,
AFNE01.JPG,AFNE01.JPG,AFNE01.JPG,AFNE01.JPG,AFNE01.JPG,AFNE01.JPG,,,,,,,,,,,,,,,,,,,,,1,5,15,6,,,AMNE12.jpg,AMNE01.jpg,AMSA20.jpg,AMSA17.jpg,AMSA17.jpg,MS,2,num_4,16,num_4,0.850208272575,,,2017_Oct_05_1812,59.9252133538,FEMA4ImagesEEG,001,101867,
AFNE01.JPG,AFNE01.JPG,AFNE01.JPG,AFNE01.JPG,AFNE01.JPG,AFNE01.JPG,,,,,,,,,,,,,,,,,,,,,1,6,16,0,,,AMNE06.jpg,AMSA14.jpg,AMSA10.jpg,AMNE02.jpg,AMNE06.jpg,MN,1,num_8,16,num_8,0.766790825175,,,2017_Oct_05_1812,59.9252133538,FEMA4ImagesEEG,001,101867,
AFNE01.JPG,AFNE01.JPG,AFNE01.JPG,AFNE01.JPG,AFNE01.JPG,AFNE01.JPG,,,,,,,,,,,,,,,,,,,,,1,7,17,2,,,AMNE03.jpg,AMSA10.jpg,AMSA20.jpg,AMNE12.jpg,AMNE12.jpg,MN,1,num_4,16,num_4,0.650116797508,,,2017_Oct_05_1812,59.9252133538,FEMA4ImagesEEG,001,101867,
AFNE01.JPG,AFNE01.JPG,AFNE01.JPG,AFNE01.JPG,AFNE01.JPG,AFNE01.JPG,,,,,,,,,,,,,,,,,,,,,1,8,18,7,,,AMSA09.jpg,AMSA18.jpg,AMNE04.jpg,AMNE14.jpg,AMSA18.jpg,MS,2,num_6,32,num_2,1.13309078966,,,2017_Oct_05_1812,59.9252133538,FEMA4ImagesEEG,001,101867,
AFNE01.JPG,AFNE01.JPG,AFNE01.JPG,AFNE01.JPG,AFNE01.JPG,AFNE01.JPG,,,,,,,,,,,,,,,,,,,,,1,9,19,4,,,AMNE02.jpg,AMNE06.jpg,AMSA02.jpg,AMSA03.jpg,AMSA03.jpg,MS,2,num_4,16,num_4,0.733483888733,,,2017_Oct_05_1812,59.9252133538,FEMA4ImagesEEG,001,101867,
AFNE01.JPG,AFNE01.JPG,AFNE01.JPG,AFNE01.JPG,AFNE01.JPG,AFNE01.JPG,,,,,,,,,,,,,,,,,,,,,2,0,20,9,,,AMNE18.jpg,AMNE03.jpg,AMSA10.jpg,AMSA02.jpg,AMNE03.jpg,MN,1,num_6,16,num_6,1.133419869,,,2017_Oct_05_1812,59.9252133538,FEMA4ImagesEEG,001,101867,
AFNE01.JPG,AFNE01.JPG,AFNE01.JPG,AFNE01.JPG,AFNE01.JPG,AFNE01.JPG,,,,,,,,,,,,,,,,,,,,,2,1,21,5,,,AMSA17.jpg,AMSA09.jpg,AMNE13.jpg,AMNE07.jpg,AMSA09.jpg,MS,2,num_6,16,num_6,1.16682976304,,,2017_Oct_05_1812,59.9252133538,FEMA4ImagesEEG,001,101867,
AFNE01.JPG,AFNE01.JPG,AFNE01.JPG,AFNE01.JPG,AFNE01.JPG,AFNE01.JPG,,,,,,,,,,,,,,,,,,,,,2,2,22,3,,,AMSA04.jpg,AMNE12.jpg,AMNE20.jpg,AMSA15.jpg,AMNE12.jpg,MN,1,num_6,32,num_8,1.20010109726,,,2017_Oct_05_1812,59.9252133538,FEMA4ImagesEEG,001,101867,
AFNE01.JPG,AFNE01.JPG,AFNE01.JPG,AFNE01.JPG,AFNE01.JPG,AFNE01.JPG,,,,,,,,,,,,,,,,,,,,,2,3,23,6,,,AMSA08.jpg,AMNE02.jpg,AMNE18.jpg,AMSA09.jpg,AMNE02.jpg,MN,1,num_6,16,num_6,0.866782197263,,,2017_Oct_05_1812,59.9252133538,FEMA4ImagesEEG,001,101867,
AFNE01.JPG,AFNE01.JPG,AFNE01.JPG,AFNE01.JPG,AFNE01.JPG,AFNE01.JPG,,,,,,,,,,,,,,,,,,,,,2,4,24,7,,,AMNE17.jpg,AMNE02.jpg,AMSA10.jpg,AMSA09.jpg,AMSA10.jpg,MS,2,num_2,32,num_8,0.866767122468,,,2017_Oct_05_1812,59.9252133538,FEMA4ImagesEEG,001,101867,
AFNE01.JPG,AFNE01.JPG,AFNE01.JPG,AFNE01.JPG,AFNE01.JPG,AFNE01.JPG,,,,,,,,,,,,,,,,,,,,,2,5,25,8,,,AMSA01.jpg,AMNE09.jpg,AMNE18.jpg,AMSA15.jpg,AMSA01.jpg,MS,2,num_8,32,num_2,1.1501169579,,,2017_Oct_05_1812,59.9252133538,FEMA4ImagesEEG,001,101867,
AFNE01.JPG,AFNE01.JPG,AFNE01.JPG,AFNE01.JPG,AFNE01.JPG,AFNE01.JPG,,,,,,,,,,,,,,,,,,,,,2,6,26,0,,,AMNE10.jpg,AMSA08.jpg,AMSA06.jpg,AMNE12.jpg,AMSA08.jpg,MS,2,num_6,16,num_6,0.883466135769,,,2017_Oct_05_1812,59.9252133538,FEMA4ImagesEEG,001,101867,
AFNE01.JPG,AFNE01.JPG,AFNE01.JPG,AFNE01.JPG,AFNE01.JPG,AFNE01.JPG,,,,,,,,,,,,,,,,,,,,,2,7,27,4,,,AMSA16.jpg,AMNE12.jpg,AMNE05.jpg,AMSA02.jpg,AMSA16.jpg,MS,2,num_8,16,num_8,0.900125377317,,,2017_Oct_05_1812,59.9252133538,FEMA4ImagesEEG,001,101867,
AFNE01.JPG,AFNE01.JPG,AFNE01.JPG,AFNE01.JPG,AFNE01.JPG,AFNE01.JPG,,,,,,,,,,,,,,,,,,,,,2,8,28,2,,,AMSA12.jpg,AMNE10.jpg,AMNE16.jpg,AMSA01.jpg,AMNE10.jpg,MN,1,num_6,16,num_6,2.48318985026,,,2017_Oct_05_1812,59.9252133538,FEMA4ImagesEEG,001,101867,
AFNE01.JPG,AFNE01.JPG,AFNE01.JPG,AFNE01.JPG,AFNE01.JPG,AFNE01.JPG,,,,,,,,,,,,,,,,,,,,,2,9,29,1,,,AMSA17.jpg,AMNE06.jpg,AMSA08.jpg,AMNE16.jpg,AMNE16.jpg,MN,1,num_4,32,num_6,1.08331064097,,,2017_Oct_05_1812,59.9252133538,FEMA4ImagesEEG,001,101867,
AFNE01.JPG,AFNE01.JPG,AFNE01.JPG,AFNE01.JPG,AFNE01.JPG,AFNE01.JPG,,,,,,,,,,,,,,,,,,,,,3,0,30,7,,,AMSA11.jpg,AMNE06.jpg,AMSA16.jpg,AMNE12.jpg,AMSA11.jpg,MS,2,num_8,16,num_8,0.866841534182,,,2017_Oct_05_1812,59.9252133538,FEMA4ImagesEEG,001,101867,
AFNE01.JPG,AFNE01.JPG,AFNE01.JPG,AFNE01.JPG,AFNE01.JPG,AFNE01.JPG,,,,,,,,,,,,,,,,,,,,,3,1,31,1,,,AMSA20.jpg,AMNE07.jpg,AMSA14.jpg,AMNE01.jpg,AMNE01.jpg,MN,1,num_4,32,num_2,0.966757532355,,,2017_Oct_05_1812,59.9252133538,FEMA4ImagesEEG,001,101867,
AFNE01.JPG,AFNE01.JPG,AFNE01.JPG,AFNE01.JPG,AFNE01.JPG,AFNE01.JPG,,,,,,,,,,,,,,,,,,,,,3,2,32,4,,,AMNE10.jpg,AMSA08.jpg,AMNE12.jpg,AMSA03.jpg,AMNE10.jpg,MN,1,num_8,16,num_8,1.10038395799,,,2017_Oct_05_1812,59.9252133538,FEMA4ImagesEEG,001,101867,
AFNE01.JPG,AFNE01.JPG,AFNE01.JPG,AFNE01.JPG,AFNE01.JPG,AFNE01.JPG,,,,,,,,,,,,,,,,,,,,,3,3,33,8,,,AMSA09.jpg,AMSA05.jpg,AMNE04.jpg,AMNE17.jpg,AMSA05.jpg,MS,2,num_6,32,num_8,1.60002328572,,,2017_Oct_05_1812,59.9252133538,FEMA4ImagesEEG,001,101867,
AFNE01.JPG,AFNE01.JPG,AFNE01.JPG,AFNE01.JPG,AFNE01.JPG,AFNE01.JPG,,,,,,,,,,,,,,,,,,,,,3,4,34,5,,,AMSA11.jpg,AMNE14.jpg,AMSA12.jpg,AMNE20.jpg,AMNE20.jpg,MN,1,num_4,32,num_8,1.433500471,,,2017_Oct_05_1812,59.9252133538,FEMA4ImagesEEG,001,101867,
AFNE01.JPG,AFNE01.JPG,AFNE01.JPG,AFNE01.JPG,AFNE01.JPG,AFNE01.JPG,,,,,,,,,,,,,,,,,,,,,3,5,35,2,,,AMSA13.jpg,AMNE18.jpg,AMSA05.jpg,AMNE12.jpg,AMNE12.jpg,MN,1,num_4,32,num_8,0.816771757149,,,2017_Oct_05_1812,59.9252133538,FEMA4ImagesEEG,001,101867,
AFNE01.JPG,AFNE01.JPG,AFNE01.JPG,AFNE01.JPG,AFNE01.JPG,AFNE01.JPG,,,,,,,,,,,,,,,,,,,,,3,6,36,0,,,AMSA06.jpg,AMSA12.jpg,AMNE02.jpg,AMNE10.jpg,AMSA12.jpg,MS,2,num_6,32,num_8,0.983448206418,,,2017_Oct_05_1812,59.9252133538,FEMA4ImagesEEG,001,101867,
AFNE01.JPG,AFNE01.JPG,AFNE01.JPG,AFNE01.JPG,AFNE01.JPG,AFNE01.JPG,,,,,,,,,,,,,,,,,,,,,3,7,37,3,,,AMSA07.jpg,AMSA16.jpg,AMNE12.jpg,AMNE09.jpg,AMSA07.jpg,MS,2,num_8,16,num_8,1.10009817855,,,2017_Oct_05_1812,59.9252133538,FEMA4ImagesEEG,001,101867,
AFNE01.JPG,AFNE01.JPG,AFNE01.JPG,AFNE01.JPG,AFNE01.JPG,AFNE01.JPG,,,,,,,,,,,,,,,,,,,,,3,8,38,6,,,AMSA19.jpg,AMSA16.jpg,AMNE18.jpg,AMNE08.jpg,AMNE08.jpg,MN,1,num_4,32,num_8,1.43339045715,,,2017_Oct_05_1812,59.9252133538,FEMA4ImagesEEG,001,101867,
AFNE01.JPG,AFNE01.JPG,AFNE01.JPG,AFNE01.JPG,AFNE01.JPG,AFNE01.JPG,,,,,,,,,,,,,,,,,,,,,3,9,39,9,,,AMSA13.jpg,AMSA10.jpg,AMNE19.jpg,AMNE06.jpg,AMSA13.jpg,MS,2,num_8,16,num_8,1.00014369155,,,2017_Oct_05_1812,59.9252133538,FEMA4ImagesEEG,001,101867,
