IPosition2,IPosition3,IPosition1,IPosition6,IPosition4,IPosition5,TrialsF1.thisRepN,TrialsF1.thisTrialN,TrialsF1.thisN,TrialsF1.thisIndex,TrialsM1.thisRepN,TrialsM1.thisTrialN,TrialsM1.thisN,TrialsM1.thisIndex,TrialsF2.thisRepN,TrialsF2.thisTrialN,TrialsF2.thisN,TrialsF2.thisIndex,TrialsM2.thisRepN,TrialsM2.thisTrialN,TrialsM2.thisN,TrialsM2.thisIndex,TrialsF3.thisRepN,TrialsF3.thisTrialN,TrialsF3.thisN,TrialsF3.thisIndex,TrialsM3.thisRepN,TrialsM3.thisTrialN,TrialsM3.thisN,TrialsM3.thisIndex,InstrKey_resp.keys,InstrKey_resp.rt,Image0 _Position,Image1 _Position,Image2 _Position,Image3 _Position,Center_image,condition,code,correct_answer,accuracy,Key_Resp.keys,Key_Resp.rt,BreakKey_resp.keys,BreakKey_resp.rt,date,frameRate,expName,session,participant,
,,,,,,,,,,,,,,,,,,,,,,,,,,,,,,space,17.9324800363,,,,,,,,,,,,,,2017_Oct_04_1616,59.9700514159,FEMA4ImagesEEG,001,101839,
AMSA25.JPG,AMNE24.JPG,AMSA24.JPG,AMNE26.JPG,AMSA21.JPG,AMNE25.JPG,0,0,0,3,,,,,,,,,,,,,,,,,,,,,,,AFSA10.jpg,AFNE17.jpg,AFSA17.jpg,AFNE02.jpg,AFNE17.jpg,FN,3,num_6,16,num_6,2.28333732655,,,2017_Oct_04_1616,59.9700514159,FEMA4ImagesEEG,001,101839,
AMNE23.JPG,AMNE24.JPG,AMNE22.JPG,AMSA24.JPG,AMSA22.JPG,AMSA23.JPG,0,1,1,9,,,,,,,,,,,,,,,,,,,,,,,AFNE11.jpg,AFSA20.jpg,AFSA01.jpg,AFNE19.jpg,AFSA01.jpg,FS,4,num_2,16,num_2,1.1167343268,,,2017_Oct_04_1616,59.9700514159,FEMA4ImagesEEG,001,101839,
AFSA21.JPG,AFNE22.JPG,AFNE21.JPG,AFSA23.JPG,AFSA22.JPG,AFNE23.JPG,0,2,2,0,,,,,,,,,,,,,,,,,,,,,,,AFSA14.jpg,AFSA13.jpg,AFNE17.jpg,AFNE14.jpg,AFSA13.jpg,FS,4,num_6,32,num_4,1.46673075054,,,2017_Oct_04_1616,59.9700514159,FEMA4ImagesEEG,001,101839,
AFNE22.JPG,AFSA24.JPG,AFSA22.JPG,AFNE25.JPG,AFNE24.JPG,AFSA25.JPG,0,3,3,6,,,,,,,,,,,,,,,,,,,,,,,AFSA17.jpg,AFNE10.jpg,AFNE09.jpg,AFSA07.jpg,AFNE09.jpg,FN,3,num_2,32,num_8,1.90003589081,,,2017_Oct_04_1616,59.9700514159,FEMA4ImagesEEG,001,101839,
AMNE22.JPG,AMSA24.JPG,AMSA22.JPG,AMNE25.JPG,AMNE24.JPG,AMSA25.JPG,0,4,4,7,,,,,,,,,,,,,,,,,,,,,,,AFNE09.jpg,AFSA02.jpg,AFNE17.jpg,AFSA12.jpg,AFNE09.jpg,FN,3,num_8,32,num_6,1.90009522774,,,2017_Oct_04_1616,59.9700514159,FEMA4ImagesEEG,001,101839,
AFSA25.JPG,AFNE24.JPG,AFSA24.JPG,AFNE21.JPG,AFSA21.JPG,AFNE25.JPG,0,5,5,2,,,,,,,,,,,,,,,,,,,,,,,AFSA04.jpg,AFNE20.jpg,AFNE14.jpg,AFSA18.jpg,AFNE20.jpg,FN,3,num_6,32,num_2,1.14985651692,,,2017_Oct_04_1616,59.9700514159,FEMA4ImagesEEG,001,101839,
AMSA21.JPG,AMNE23.JPG,AMNE21.JPG,AMSA25.JPG,AMNE25.JPG,AMSA23.JPG,0,6,6,5,,,,,,,,,,,,,,,,,,,,,,,AFSA12.jpg,AFSA15.jpg,AFNE08.jpg,AFNE11.jpg,AFNE08.jpg,FN,3,num_2,32,num_8,1.45006220754,,,2017_Oct_04_1616,59.9700514159,FEMA4ImagesEEG,001,101839,
AFSA21.JPG,AFNE23.JPG,AFNE21.JPG,AFSA25.JPG,AFNE25.JPG,AFSA23.JPG,0,7,7,4,,,,,,,,,,,,,,,,,,,,,,,AFSA05.jpg,AFNE06.jpg,AFNE14.jpg,AFSA08.jpg,AFNE14.jpg,FN,3,num_2,16,num_2,0.966743099038,,,2017_Oct_04_1616,59.9700514159,FEMA4ImagesEEG,001,101839,
AFNE23.JPG,AFNE24.JPG,AFNE22.JPG,AFSA24.JPG,AFSA22.JPG,AFSA23.JPG,0,8,8,8,,,,,,,,,,,,,,,,,,,,,,,AFNE18.jpg,AFNE08.jpg,AFSA04.jpg,AFSA10.jpg,AFNE18.jpg,FN,3,num_8,32,num_6,1.33369737337,,,2017_Oct_04_1616,59.9700514159,FEMA4ImagesEEG,001,101839,
AMSA21.JPG,AMNE22.JPG,AMNE21.JPG,AMSA23.JPG,AMSA22.JPG,AMNE23.JPG,0,9,9,1,,,,,,,,,,,,,,,,,,,,,,,AFNE06.jpg,AFNE20.jpg,AFSA18.jpg,AFSA10.jpg,AFNE06.jpg,FN,3,num_8,16,num_8,0.916770827011,,,2017_Oct_04_1616,59.9700514159,FEMA4ImagesEEG,001,101839,
AMSA21.JPG,AMNE23.JPG,AMNE21.JPG,AMSA25.JPG,AMNE25.JPG,AMSA23.JPG,,,,,0,0,0,5,,,,,,,,,,,,,,,,,,,AMNE16.jpg,AMSA18.jpg,AMNE12.jpg,AMSA14.jpg,AMSA14.jpg,MS,2,num_4,16,num_4,1.66670740067,,,2017_Oct_04_1616,59.9700514159,FEMA4ImagesEEG,001,101839,
AFSA21.JPG,AFNE22.JPG,AFNE21.JPG,AFSA23.JPG,AFSA22.JPG,AFNE23.JPG,,,,,0,1,1,0,,,,,,,,,,,,,,,,,,,AMNE02.jpg,AMNE09.jpg,AMSA01.jpg,AMSA05.jpg,AMNE02.jpg,MN,1,num_8,16,num_8,0.983465526369,,,2017_Oct_04_1616,59.9700514159,FEMA4ImagesEEG,001,101839,
AFNE23.JPG,AFNE24.JPG,AFNE22.JPG,AFSA24.JPG,AFSA22.JPG,AFSA23.JPG,,,,,0,2,2,8,,,,,,,,,,,,,,,,,,,AMSA03.jpg,AMSA04.jpg,AMNE06.jpg,AMNE08.jpg,AMSA03.jpg,MS,2,num_8,32,num_6,1.81658765234,,,2017_Oct_04_1616,59.9700514159,FEMA4ImagesEEG,001,101839,
AFSA25.JPG,AFNE24.JPG,AFSA24.JPG,AFNE21.JPG,AFSA21.JPG,AFNE25.JPG,,,,,0,3,3,2,,,,,,,,,,,,,,,,,,,AMSA02.jpg,AMNE02.jpg,AMSA11.jpg,AMNE01.jpg,AMSA02.jpg,MS,2,num_8,16,num_8,1.61670241316,,,2017_Oct_04_1616,59.9700514159,FEMA4ImagesEEG,001,101839,
AFSA21.JPG,AFNE23.JPG,AFNE21.JPG,AFSA25.JPG,AFNE25.JPG,AFSA23.JPG,,,,,0,4,4,4,,,,,,,,,,,,,,,,,,,AMSA12.jpg,AMNE02.jpg,AMSA10.jpg,AMNE09.jpg,AMSA12.jpg,MS,2,num_8,32,num_4,1.38342139253,,,2017_Oct_04_1616,59.9700514159,FEMA4ImagesEEG,001,101839,
AFNE22.JPG,AFSA24.JPG,AFSA22.JPG,AFNE25.JPG,AFNE24.JPG,AFSA25.JPG,,,,,0,5,5,6,,,,,,,,,,,,,,,,,,,AMNE11.jpg,AMSA20.jpg,AMSA06.jpg,AMNE04.jpg,AMSA06.jpg,MS,2,num_2,16,num_2,1.95000367248,,,2017_Oct_04_1616,59.9700514159,FEMA4ImagesEEG,001,101839,
AMSA21.JPG,AMNE22.JPG,AMNE21.JPG,AMSA23.JPG,AMSA22.JPG,AMNE23.JPG,,,,,0,6,6,1,,,,,,,,,,,,,,,,,,,AMNE19.jpg,AMNE01.jpg,AMSA16.jpg,AMSA18.jpg,AMNE01.jpg,MN,1,num_6,32,num_8,1.15001271735,,,2017_Oct_04_1616,59.9700514159,FEMA4ImagesEEG,001,101839,
AMSA25.JPG,AMNE24.JPG,AMSA24.JPG,AMNE26.JPG,AMSA21.JPG,AMNE25.JPG,,,,,0,7,7,3,,,,,,,,,,,,,,,,,,,AMSA19.jpg,AMSA17.jpg,AMNE14.jpg,AMNE03.jpg,AMNE14.jpg,MN,1,num_2,16,num_2,1.08336195939,,,2017_Oct_04_1616,59.9700514159,FEMA4ImagesEEG,001,101839,
AMNE23.JPG,AMNE24.JPG,AMNE22.JPG,AMSA24.JPG,AMSA22.JPG,AMSA23.JPG,,,,,0,8,8,9,,,,,,,,,,,,,,,,,,,AMNE19.jpg,AMNE11.jpg,AMSA06.jpg,AMSA10.jpg,AMSA06.jpg,MS,2,num_2,32,num_6,1.00012380567,,,2017_Oct_04_1616,59.9700514159,FEMA4ImagesEEG,001,101839,
AMNE22.JPG,AMSA24.JPG,AMSA22.JPG,AMNE25.JPG,AMNE24.JPG,AMSA25.JPG,,,,,0,9,9,7,,,,,,,,,,,,,,,,,,,AMNE02.jpg,AMNE14.jpg,AMSA07.jpg,AMSA17.jpg,AMSA17.jpg,MS,2,num_4,16,num_4,0.850135464585,,,2017_Oct_04_1616,59.9700514159,FEMA4ImagesEEG,001,101839,
AFNE23.JPG,AFNE24.JPG,AFNE22.JPG,AFSA24.JPG,AFSA22.JPG,AFSA23.JPG,,,,,,,,,0,0,0,8,,,,,,,,,,,,,,,AFSA09.jpg,AFNE18.jpg,AFSA02.jpg,AFNE20.jpg,AFNE20.jpg,FN,3,num_4,32,num_6,1.25009710407,,,2017_Oct_04_1616,59.9700514159,FEMA4ImagesEEG,001,101839,
AMSA25.JPG,AMNE24.JPG,AMSA24.JPG,AMNE26.JPG,AMSA21.JPG,AMNE25.JPG,,,,,,,,,0,1,1,3,,,,,,,,,,,,,,,AFSA05.jpg,AFNE18.jpg,AFNE12.jpg,AFSA09.jpg,AFSA09.jpg,FS,4,num_4,32,num_2,1.08343733332,,,2017_Oct_04_1616,59.9700514159,FEMA4ImagesEEG,001,101839,
AMNE23.JPG,AMNE24.JPG,AMNE22.JPG,AMSA24.JPG,AMSA22.JPG,AMSA23.JPG,,,,,,,,,0,2,2,9,,,,,,,,,,,,,,,AFSA14.jpg,AFNE11.jpg,AFSA05.jpg,AFNE06.jpg,AFSA14.jpg,FS,4,num_8,32,num_2,0.900141735052,,,2017_Oct_04_1616,59.9700514159,FEMA4ImagesEEG,001,101839,
AFSA21.JPG,AFNE23.JPG,AFNE21.JPG,AFSA25.JPG,AFNE25.JPG,AFSA23.JPG,,,,,,,,,0,3,3,4,,,,,,,,,,,,,,,AFNE04.jpg,AFNE15.jpg,AFSA18.jpg,AFSA10.jpg,AFNE15.jpg,FN,3,num_6,32,num_8,0.683502956745,,,2017_Oct_04_1616,59.9700514159,FEMA4ImagesEEG,001,101839,
AMNE22.JPG,AMSA24.JPG,AMSA22.JPG,AMNE25.JPG,AMNE24.JPG,AMSA25.JPG,,,,,,,,,0,4,4,7,,,,,,,,,,,,,,,AFSA10.jpg,AFNE13.jpg,AFSA08.jpg,AFNE18.jpg,AFSA10.jpg,FS,4,num_8,32,num_6,1.43308928217,,,2017_Oct_04_1616,59.9700514159,FEMA4ImagesEEG,001,101839,
AFSA25.JPG,AFNE24.JPG,AFSA24.JPG,AFNE21.JPG,AFSA21.JPG,AFNE25.JPG,,,,,,,,,0,5,5,2,,,,,,,,,,,,,,,AFNE15.jpg,AFSA01.jpg,AFNE01.jpg,AFSA04.jpg,AFSA01.jpg,FS,4,num_6,16,num_6,0.900151678012,,,2017_Oct_04_1616,59.9700514159,FEMA4ImagesEEG,001,101839,
AMSA21.JPG,AMNE22.JPG,AMNE21.JPG,AMSA23.JPG,AMSA22.JPG,AMNE23.JPG,,,,,,,,,0,6,6,1,,,,,,,,,,,,,,,AFNE09.jpg,AFSA08.jpg,AFSA04.jpg,AFNE11.jpg,AFSA08.jpg,FS,4,num_6,32,num_4,0.900143659499,,,2017_Oct_04_1616,59.9700514159,FEMA4ImagesEEG,001,101839,
AMSA21.JPG,AMNE23.JPG,AMNE21.JPG,AMSA25.JPG,AMNE25.JPG,AMSA23.JPG,,,,,,,,,0,7,7,5,,,,,,,,,,,,,,,AFSA02.jpg,AFNE17.jpg,AFNE14.jpg,AFSA07.jpg,AFSA07.jpg,FS,4,num_4,32,num_2,0.800131118565,,,2017_Oct_04_1616,59.9700514159,FEMA4ImagesEEG,001,101839,
AFSA21.JPG,AFNE22.JPG,AFNE21.JPG,AFSA23.JPG,AFSA22.JPG,AFNE23.JPG,,,,,,,,,0,8,8,0,,,,,,,,,,,,,,,AFNE14.jpg,AFNE19.jpg,AFSA15.jpg,AFSA05.jpg,AFSA05.jpg,FS,4,num_4,32,num_2,1.91673105526,,,2017_Oct_04_1616,59.9700514159,FEMA4ImagesEEG,001,101839,
AFNE22.JPG,AFSA24.JPG,AFSA22.JPG,AFNE25.JPG,AFNE24.JPG,AFSA25.JPG,,,,,,,,,0,9,9,6,,,,,,,,,,,,,,,AFSA17.jpg,AFSA09.jpg,AFNE10.jpg,AFNE08.jpg,AFNE10.jpg,FN,3,num_2,32,num_6,1.30007867755,,,2017_Oct_04_1616,59.9700514159,FEMA4ImagesEEG,001,101839,
AMNE22.JPG,AMSA24.JPG,AMSA22.JPG,AMNE25.JPG,AMNE24.JPG,AMSA25.JPG,,,,,,,,,,,,,0,0,0,7,,,,,,,,,,,AMNE10.jpg,AMSA02.jpg,AMNE07.jpg,AMSA19.jpg,AMNE07.jpg,MN,1,num_2,32,num_8,1.0167949146,,,2017_Oct_04_1616,59.9700514159,FEMA4ImagesEEG,001,101839,
AFSA25.JPG,AFNE24.JPG,AFSA24.JPG,AFNE21.JPG,AFSA21.JPG,AFNE25.JPG,,,,,,,,,,,,,0,1,1,2,,,,,,,,,,,AMSA15.jpg,AMNE07.jpg,AMSA01.jpg,AMNE17.jpg,AMSA01.jpg,MS,2,num_2,16,num_2,1.18345115722,,,2017_Oct_04_1616,59.9700514159,FEMA4ImagesEEG,001,101839,
AMSA21.JPG,AMNE23.JPG,AMNE21.JPG,AMSA25.JPG,AMNE25.JPG,AMSA23.JPG,,,,,,,,,,,,,0,2,2,5,,,,,,,,,,,AMNE12.jpg,AMSA12.jpg,AMSA11.jpg,AMNE05.jpg,AMSA11.jpg,MS,2,num_2,32,num_6,1.03343427026,,,2017_Oct_04_1616,59.9700514159,FEMA4ImagesEEG,001,101839,
AMNE23.JPG,AMNE24.JPG,AMNE22.JPG,AMSA24.JPG,AMSA22.JPG,AMSA23.JPG,,,,,,,,,,,,,0,3,3,9,,,,,,,,,,,AMNE12.jpg,AMNE01.jpg,AMSA16.jpg,AMSA03.jpg,AMSA03.jpg,MS,2,num_4,16,num_4,1.68339037696,,,2017_Oct_04_1616,59.9700514159,FEMA4ImagesEEG,001,101839,
AFNE23.JPG,AFNE24.JPG,AFNE22.JPG,AFSA24.JPG,AFSA22.JPG,AFSA23.JPG,,,,,,,,,,,,,0,4,4,8,,,,,,,,,,,AMSA16.jpg,AMSA13.jpg,AMNE07.jpg,AMNE14.jpg,AMSA16.jpg,MS,2,num_8,32,num_6,1.18348002383,,,2017_Oct_04_1616,59.9700514159,FEMA4ImagesEEG,001,101839,
AMSA25.JPG,AMNE24.JPG,AMSA24.JPG,AMNE26.JPG,AMSA21.JPG,AMNE25.JPG,,,,,,,,,,,,,0,5,5,3,,,,,,,,,,,AMSA12.jpg,AMSA15.jpg,AMNE12.jpg,AMNE17.jpg,AMSA15.jpg,MS,2,num_6,16,num_6,1.333392991,,,2017_Oct_04_1616,59.9700514159,FEMA4ImagesEEG,001,101839,
AMSA21.JPG,AMNE22.JPG,AMNE21.JPG,AMSA23.JPG,AMSA22.JPG,AMNE23.JPG,,,,,,,,,,,,,0,6,6,1,,,,,,,,,,,AMSA17.jpg,AMNE05.jpg,AMSA06.jpg,AMNE02.jpg,AMNE02.jpg,MN,1,num_4,32,num_2,1.1001289696,,,2017_Oct_04_1616,59.9700514159,FEMA4ImagesEEG,001,101839,
AFSA21.JPG,AFNE23.JPG,AFNE21.JPG,AFSA25.JPG,AFNE25.JPG,AFSA23.JPG,,,,,,,,,,,,,0,7,7,4,,,,,,,,,,,AMNE01.jpg,AMSA01.jpg,AMNE18.jpg,AMSA19.jpg,AMSA01.jpg,MS,2,num_6,32,num_2,1.85009216466,,,2017_Oct_04_1616,59.9700514159,FEMA4ImagesEEG,001,101839,
AFNE22.JPG,AFSA24.JPG,AFSA22.JPG,AFNE25.JPG,AFNE24.JPG,AFSA25.JPG,,,,,,,,,,,,,0,8,8,6,,,,,,,,,,,AMSA04.jpg,AMNE13.jpg,AMSA20.jpg,AMNE05.jpg,AMNE05.jpg,MN,1,num_4,16,num_4,1.31688161065,,,2017_Oct_04_1616,59.9700514159,FEMA4ImagesEEG,001,101839,
AFSA21.JPG,AFNE22.JPG,AFNE21.JPG,AFSA23.JPG,AFSA22.JPG,AFNE23.JPG,,,,,,,,,,,,,0,9,9,0,,,,,,,,,,,AMNE20.jpg,AMSA19.jpg,AMNE12.jpg,AMSA08.jpg,AMSA19.jpg,MS,2,num_6,16,num_6,0.866921398469,,,2017_Oct_04_1616,59.9700514159,FEMA4ImagesEEG,001,101839,
AMSA25.JPG,AMNE24.JPG,AMSA24.JPG,AMNE26.JPG,AMSA21.JPG,AMNE25.JPG,,,,,,,,,,,,,,,,,0,0,0,3,,,,,,,AFNE05.jpg,AFSA18.jpg,AFNE06.jpg,AFSA17.jpg,AFSA17.jpg,FS,4,num_4,16,num_4,1.05019422418,,,2017_Oct_04_1616,59.9700514159,FEMA4ImagesEEG,001,101839,
AFSA25.JPG,AFNE24.JPG,AFSA24.JPG,AFNE21.JPG,AFSA21.JPG,AFNE25.JPG,,,,,,,,,,,,,,,,,0,1,1,2,,,,,,,AFSA13.jpg,AFNE13.jpg,AFNE17.jpg,AFSA17.jpg,AFNE17.jpg,FN,3,num_2,16,num_2,1.15009450607,,,2017_Oct_04_1616,59.9700514159,FEMA4ImagesEEG,001,101839,
AFSA21.JPG,AFNE23.JPG,AFNE21.JPG,AFSA25.JPG,AFNE25.JPG,AFSA23.JPG,,,,,,,,,,,,,,,,,0,2,2,4,,,,,,,AFNE14.jpg,AFSA17.jpg,AFNE20.jpg,AFSA03.jpg,AFSA03.jpg,FS,4,num_4,32,num_8,0.833094542322,,,2017_Oct_04_1616,59.9700514159,FEMA4ImagesEEG,001,101839,
AFSA21.JPG,AFNE22.JPG,AFNE21.JPG,AFSA23.JPG,AFSA22.JPG,AFNE23.JPG,,,,,,,,,,,,,,,,,0,3,3,0,,,,,,,AFNE04.jpg,AFSA10.jpg,AFSA09.jpg,AFNE09.jpg,AFNE09.jpg,FN,3,num_4,32,num_6,1.06673126374,,,2017_Oct_04_1616,59.9700514159,FEMA4ImagesEEG,001,101839,
AFNE23.JPG,AFNE24.JPG,AFNE22.JPG,AFSA24.JPG,AFSA22.JPG,AFSA23.JPG,,,,,,,,,,,,,,,,,0,4,4,8,,,,,,,AFSA10.jpg,AFSA20.jpg,AFNE10.jpg,AFNE20.jpg,AFSA10.jpg,FS,4,num_8,32,num_2,1.08339467488,,,2017_Oct_04_1616,59.9700514159,FEMA4ImagesEEG,001,101839,
AMNE23.JPG,AMNE24.JPG,AMNE22.JPG,AMSA24.JPG,AMSA22.JPG,AMSA23.JPG,,,,,,,,,,,,,,,,,0,5,5,9,,,,,,,AFNE07.jpg,AFSA03.jpg,AFNE03.jpg,AFSA10.jpg,AFNE03.jpg,FN,3,num_2,32,num_8,1.05013745317,,,2017_Oct_04_1616,59.9700514159,FEMA4ImagesEEG,001,101839,
AMSA21.JPG,AMNE23.JPG,AMNE21.JPG,AMSA25.JPG,AMNE25.JPG,AMSA23.JPG,,,,,,,,,,,,,,,,,0,6,6,5,,,,,,,AFSA10.jpg,AFSA14.jpg,AFNE05.jpg,AFNE15.jpg,AFSA14.jpg,FS,4,num_6,32,num_4,1.73339889261,,,2017_Oct_04_1616,59.9700514159,FEMA4ImagesEEG,001,101839,
AMNE22.JPG,AMSA24.JPG,AMSA22.JPG,AMNE25.JPG,AMNE24.JPG,AMSA25.JPG,,,,,,,,,,,,,,,,,0,7,7,7,,,,,,,AFNE09.jpg,AFNE14.jpg,AFSA15.jpg,AFSA13.jpg,AFNE14.jpg,FN,3,num_6,16,num_6,0.933473689205,,,2017_Oct_04_1616,59.9700514159,FEMA4ImagesEEG,001,101839,
AFNE22.JPG,AFSA24.JPG,AFSA22.JPG,AFNE25.JPG,AFNE24.JPG,AFSA25.JPG,,,,,,,,,,,,,,,,,0,8,8,6,,,,,,,AFSA20.jpg,AFNE15.jpg,AFNE18.jpg,AFSA13.jpg,AFNE15.jpg,FN,3,num_6,32,num_2,0.950111441154,,,2017_Oct_04_1616,59.9700514159,FEMA4ImagesEEG,001,101839,
AMSA21.JPG,AMNE22.JPG,AMNE21.JPG,AMSA23.JPG,AMSA22.JPG,AMNE23.JPG,,,,,,,,,,,,,,,,,0,9,9,1,,,,,,,AFNE02.jpg,AFNE12.jpg,AFSA18.jpg,AFSA15.jpg,AFSA15.jpg,FS,4,num_4,32,num_8,0.650124495267,,,2017_Oct_04_1616,59.9700514159,FEMA4ImagesEEG,001,101839,
AFNE22.JPG,AFSA24.JPG,AFSA22.JPG,AFNE25.JPG,AFNE24.JPG,AFSA25.JPG,,,,,,,,,,,,,,,,,,,,,0,0,0,6,,,AMSA10.jpg,AMNE03.jpg,AMNE05.jpg,AMSA16.jpg,AMNE05.jpg,MN,1,num_2,32,num_6,1.13344007565,,,2017_Oct_04_1616,59.9700514159,FEMA4ImagesEEG,001,101839,
AMSA25.JPG,AMNE24.JPG,AMSA24.JPG,AMNE26.JPG,AMSA21.JPG,AMNE25.JPG,,,,,,,,,,,,,,,,,,,,,0,1,1,3,,,AMNE15.jpg,AMSA04.jpg,AMSA05.jpg,AMNE12.jpg,AMNE12.jpg,MN,1,num_4,32,num_8,0.850133860891,,,2017_Oct_04_1616,59.9700514159,FEMA4ImagesEEG,001,101839,
AMNE22.JPG,AMSA24.JPG,AMSA22.JPG,AMNE25.JPG,AMNE24.JPG,AMSA25.JPG,,,,,,,,,,,,,,,,,,,,,0,2,2,7,,,AMNE06.jpg,AMSA11.jpg,AMSA16.jpg,AMNE01.jpg,AMNE06.jpg,MN,1,num_8,32,num_2,0.716765310281,,,2017_Oct_04_1616,59.9700514159,FEMA4ImagesEEG,001,101839,
AFSA25.JPG,AFNE24.JPG,AFSA24.JPG,AFNE21.JPG,AFSA21.JPG,AFNE25.JPG,,,,,,,,,,,,,,,,,,,,,0,3,3,2,,,AMNE11.jpg,AMSA08.jpg,AMSA18.jpg,AMNE19.jpg,AMSA18.jpg,MS,2,num_2,16,num_2,1.20018641416,,,2017_Oct_04_1616,59.9700514159,FEMA4ImagesEEG,001,101839,
AMSA21.JPG,AMNE23.JPG,AMNE21.JPG,AMSA25.JPG,AMNE25.JPG,AMSA23.JPG,,,,,,,,,,,,,,,,,,,,,0,4,4,5,,,AMSA11.jpg,AMSA18.jpg,AMNE11.jpg,AMNE08.jpg,AMNE11.jpg,MN,1,num_2,16,num_2,1.18344666685,,,2017_Oct_04_1616,59.9700514159,FEMA4ImagesEEG,001,101839,
AMNE23.JPG,AMNE24.JPG,AMNE22.JPG,AMSA24.JPG,AMSA22.JPG,AMSA23.JPG,,,,,,,,,,,,,,,,,,,,,0,5,5,9,,,AMSA19.jpg,AMNE20.jpg,AMSA02.jpg,AMNE15.jpg,AMNE20.jpg,MN,1,num_6,32,num_4,1.28348422553,,,2017_Oct_04_1616,59.9700514159,FEMA4ImagesEEG,001,101839,
AFNE23.JPG,AFNE24.JPG,AFNE22.JPG,AFSA24.JPG,AFSA22.JPG,AFSA23.JPG,,,,,,,,,,,,,,,,,,,,,0,6,6,8,,,AMNE18.jpg,AMSA05.jpg,AMSA04.jpg,AMNE16.jpg,AMSA04.jpg,MS,2,num_2,16,num_2,1.23339712854,,,2017_Oct_04_1616,59.9700514159,FEMA4ImagesEEG,001,101839,
AFSA21.JPG,AFNE22.JPG,AFNE21.JPG,AFSA23.JPG,AFSA22.JPG,AFNE23.JPG,,,,,,,,,,,,,,,,,,,,,0,7,7,0,,,AMNE07.jpg,AMSA12.jpg,AMSA14.jpg,AMNE18.jpg,AMNE18.jpg,MN,1,num_4,32,num_6,1.00010263684,,,2017_Oct_04_1616,59.9700514159,FEMA4ImagesEEG,001,101839,
AMSA21.JPG,AMNE22.JPG,AMNE21.JPG,AMSA23.JPG,AMSA22.JPG,AMNE23.JPG,,,,,,,,,,,,,,,,,,,,,0,8,8,1,,,AMNE20.jpg,AMSA14.jpg,AMNE12.jpg,AMSA06.jpg,AMSA06.jpg,MS,2,num_4,16,num_4,0.816759889771,,,2017_Oct_04_1616,59.9700514159,FEMA4ImagesEEG,001,101839,
AFSA21.JPG,AFNE23.JPG,AFNE21.JPG,AFSA25.JPG,AFNE25.JPG,AFSA23.JPG,,,,,,,,,,,,,,,,,,,,,0,9,9,4,,,AMNE14.jpg,AMSA19.jpg,AMSA09.jpg,AMNE06.jpg,AMSA09.jpg,MS,2,num_2,32,num_8,1.16680346231,,,2017_Oct_04_1616,59.9700514159,FEMA4ImagesEEG,001,101839,
,,,,,,,,,,,,,,,,,,,,,,,,,,,,,,,,,,,,,,,,,,,space,6.79972089194,2017_Oct_04_1616,59.9700514159,FEMA4ImagesEEG,001,101839,
AFNE01.JPG,AFNE01.JPG,AFNE01.JPG,AFNE01.JPG,AFNE01.JPG,AFNE01.JPG,0,0,0,9,,,,,,,,,,,,,,,,,,,,,,,AFSA10.jpg,AFNE20.jpg,AFNE05.jpg,AFSA20.jpg,AFSA10.jpg,FS,4,num_8,16,num_8,0.783487272551,,,2017_Oct_04_1616,59.9700514159,FEMA4ImagesEEG,001,101839,
AFNE01.JPG,AFNE01.JPG,AFNE01.JPG,AFNE01.JPG,AFNE01.JPG,AFNE01.JPG,0,1,1,6,,,,,,,,,,,,,,,,,,,,,,,AFNE14.jpg,AFNE08.jpg,AFSA14.jpg,AFSA19.jpg,AFSA19.jpg,FS,4,num_4,32,num_2,0.816760210524,,,2017_Oct_04_1616,59.9700514159,FEMA4ImagesEEG,001,101839,
AFNE01.JPG,AFNE01.JPG,AFNE01.JPG,AFNE01.JPG,AFNE01.JPG,AFNE01.JPG,0,2,2,0,,,,,,,,,,,,,,,,,,,,,,,AFNE07.jpg,AFSA14.jpg,AFNE17.jpg,AFSA03.jpg,AFSA14.jpg,FS,4,num_6,32,num_8,1.03344645837,,,2017_Oct_04_1616,59.9700514159,FEMA4ImagesEEG,001,101839,
AFNE01.JPG,AFNE01.JPG,AFNE01.JPG,AFNE01.JPG,AFNE01.JPG,AFNE01.JPG,0,3,3,4,,,,,,,,,,,,,,,,,,,,,,,AFNE11.jpg,AFNE02.jpg,AFSA14.jpg,AFSA04.jpg,AFSA14.jpg,FS,4,num_2,32,num_4,0.966606463757,,,2017_Oct_04_1616,59.9700514159,FEMA4ImagesEEG,001,101839,
AFNE01.JPG,AFNE01.JPG,AFNE01.JPG,AFNE01.JPG,AFNE01.JPG,AFNE01.JPG,0,4,4,8,,,,,,,,,,,,,,,,,,,,,,,AFSA12.jpg,AFNE12.jpg,AFSA14.jpg,AFNE15.jpg,AFNE12.jpg,FN,3,num_6,32,num_2,0.650177096657,,,2017_Oct_04_1616,59.9700514159,FEMA4ImagesEEG,001,101839,
AFNE01.JPG,AFNE01.JPG,AFNE01.JPG,AFNE01.JPG,AFNE01.JPG,AFNE01.JPG,0,5,5,2,,,,,,,,,,,,,,,,,,,,,,,AFSA06.jpg,AFNE13.jpg,AFSA07.jpg,AFNE15.jpg,AFNE15.jpg,FN,3,num_4,16,num_4,0.75011939551,,,2017_Oct_04_1616,59.9700514159,FEMA4ImagesEEG,001,101839,
AFNE01.JPG,AFNE01.JPG,AFNE01.JPG,AFNE01.JPG,AFNE01.JPG,AFNE01.JPG,0,6,6,1,,,,,,,,,,,,,,,,,,,,,,,AFSA17.jpg,AFSA19.jpg,AFNE20.jpg,AFNE04.jpg,AFNE04.jpg,FN,3,num_4,32,num_2,0.566864851993,,,2017_Oct_04_1616,59.9700514159,FEMA4ImagesEEG,001,101839,
AFNE01.JPG,AFNE01.JPG,AFNE01.JPG,AFNE01.JPG,AFNE01.JPG,AFNE01.JPG,0,7,7,7,,,,,,,,,,,,,,,,,,,,,,,AFSA10.jpg,AFNE15.jpg,AFSA09.jpg,AFNE14.jpg,AFSA09.jpg,FS,4,num_2,32,num_8,0.716645674227,,,2017_Oct_04_1616,59.9700514159,FEMA4ImagesEEG,001,101839,
AFNE01.JPG,AFNE01.JPG,AFNE01.JPG,AFNE01.JPG,AFNE01.JPG,AFNE01.JPG,0,8,8,5,,,,,,,,,,,,,,,,,,,,,,,AFNE09.jpg,AFSA10.jpg,AFSA20.jpg,AFNE18.jpg,AFNE18.jpg,FN,3,num_4,32,num_6,0.783805767482,,,2017_Oct_04_1616,59.9700514159,FEMA4ImagesEEG,001,101839,
AFNE01.JPG,AFNE01.JPG,AFNE01.JPG,AFNE01.JPG,AFNE01.JPG,AFNE01.JPG,0,9,9,3,,,,,,,,,,,,,,,,,,,,,,,AFSA20.jpg,AFNE12.jpg,AFNE18.jpg,AFSA14.jpg,AFNE18.jpg,FN,3,num_2,32,num_6,0.683222629887,,,2017_Oct_04_1616,59.9700514159,FEMA4ImagesEEG,001,101839,
AFNE01.JPG,AFNE01.JPG,AFNE01.JPG,AFNE01.JPG,AFNE01.JPG,AFNE01.JPG,1,0,10,6,,,,,,,,,,,,,,,,,,,,,,,AFSA18.jpg,AFNE15.jpg,AFNE19.jpg,AFSA12.jpg,AFSA18.jpg,FS,4,num_8,32,num_2,0.900156489108,,,2017_Oct_04_1616,59.9700514159,FEMA4ImagesEEG,001,101839,
AFNE01.JPG,AFNE01.JPG,AFNE01.JPG,AFNE01.JPG,AFNE01.JPG,AFNE01.JPG,1,1,11,2,,,,,,,,,,,,,,,,,,,,,,,AFSA13.jpg,AFNE07.jpg,AFNE20.jpg,AFSA20.jpg,AFNE20.jpg,FN,3,num_2,32,num_8,0.766825785831,,,2017_Oct_04_1616,59.9700514159,FEMA4ImagesEEG,001,101839,
AFNE01.JPG,AFNE01.JPG,AFNE01.JPG,AFNE01.JPG,AFNE01.JPG,AFNE01.JPG,1,2,12,8,,,,,,,,,,,,,,,,,,,,,,,AFNE17.jpg,AFSA02.jpg,AFSA15.jpg,AFNE16.jpg,AFSA02.jpg,FS,4,num_6,32,num_4,0.700155462735,,,2017_Oct_04_1616,59.9700514159,FEMA4ImagesEEG,001,101839,
AFNE01.JPG,AFNE01.JPG,AFNE01.JPG,AFNE01.JPG,AFNE01.JPG,AFNE01.JPG,1,3,13,7,,,,,,,,,,,,,,,,,,,,,,,AFSA17.jpg,AFNE10.jpg,AFNE19.jpg,AFSA03.jpg,AFNE10.jpg,FN,3,num_6,32,num_2,0.833536201462,,,2017_Oct_04_1616,59.9700514159,FEMA4ImagesEEG,001,101839,
AFNE01.JPG,AFNE01.JPG,AFNE01.JPG,AFNE01.JPG,AFNE01.JPG,AFNE01.JPG,1,4,14,3,,,,,,,,,,,,,,,,,,,,,,,AFSA18.jpg,AFNE09.jpg,AFNE13.jpg,AFSA14.jpg,AFSA14.jpg,FS,4,num_4,32,num_8,1.00013374862,,,2017_Oct_04_1616,59.9700514159,FEMA4ImagesEEG,001,101839,
AFNE01.JPG,AFNE01.JPG,AFNE01.JPG,AFNE01.JPG,AFNE01.JPG,AFNE01.JPG,1,5,15,5,,,,,,,,,,,,,,,,,,,,,,,AFNE19.jpg,AFSA18.jpg,AFSA09.jpg,AFNE20.jpg,AFSA09.jpg,FS,4,num_2,16,num_2,1.63340752052,,,2017_Oct_04_1616,59.9700514159,FEMA4ImagesEEG,001,101839,
AFNE01.JPG,AFNE01.JPG,AFNE01.JPG,AFNE01.JPG,AFNE01.JPG,AFNE01.JPG,1,6,16,4,,,,,,,,,,,,,,,,,,,,,,,AFSA06.jpg,AFNE10.jpg,AFNE15.jpg,AFSA07.jpg,AFNE10.jpg,FN,3,num_6,32,num_8,1.00014433304,,,2017_Oct_04_1616,59.9700514159,FEMA4ImagesEEG,001,101839,
AFNE01.JPG,AFNE01.JPG,AFNE01.JPG,AFNE01.JPG,AFNE01.JPG,AFNE01.JPG,1,7,17,0,,,,,,,,,,,,,,,,,,,,,,,AFSA04.jpg,AFNE13.jpg,AFNE05.jpg,AFSA19.jpg,AFNE13.jpg,FN,3,num_6,32,num_2,0.900153602444,,,2017_Oct_04_1616,59.9700514159,FEMA4ImagesEEG,001,101839,
AFNE01.JPG,AFNE01.JPG,AFNE01.JPG,AFNE01.JPG,AFNE01.JPG,AFNE01.JPG,1,8,18,1,,,,,,,,,,,,,,,,,,,,,,,AFNE08.jpg,AFSA15.jpg,AFNE05.jpg,AFSA05.jpg,AFNE08.jpg,FN,3,num_8,32,num_6,1.03335408522,,,2017_Oct_04_1616,59.9700514159,FEMA4ImagesEEG,001,101839,
AFNE01.JPG,AFNE01.JPG,AFNE01.JPG,AFNE01.JPG,AFNE01.JPG,AFNE01.JPG,1,9,19,9,,,,,,,,,,,,,,,,,,,,,,,AFSA05.jpg,AFSA01.jpg,AFNE15.jpg,AFNE02.jpg,AFSA05.jpg,FS,4,num_8,16,num_8,1.06677007329,,,2017_Oct_04_1616,59.9700514159,FEMA4ImagesEEG,001,101839,
AFNE01.JPG,AFNE01.JPG,AFNE01.JPG,AFNE01.JPG,AFNE01.JPG,AFNE01.JPG,2,0,20,6,,,,,,,,,,,,,,,,,,,,,,,AFNE07.jpg,AFSA12.jpg,AFSA18.jpg,AFNE10.jpg,AFNE10.jpg,FN,3,num_4,32,num_8,1.31677095531,,,2017_Oct_04_1616,59.9700514159,FEMA4ImagesEEG,001,101839,
AFNE01.JPG,AFNE01.JPG,AFNE01.JPG,AFNE01.JPG,AFNE01.JPG,AFNE01.JPG,2,1,21,7,,,,,,,,,,,,,,,,,,,,,,,AFSA09.jpg,AFNE09.jpg,AFSA12.jpg,AFNE07.jpg,AFNE09.jpg,FN,3,num_6,32,num_4,1.26672715826,,,2017_Oct_04_1616,59.9700514159,FEMA4ImagesEEG,001,101839,
AFNE01.JPG,AFNE01.JPG,AFNE01.JPG,AFNE01.JPG,AFNE01.JPG,AFNE01.JPG,2,2,22,5,,,,,,,,,,,,,,,,,,,,,,,AFNE04.jpg,AFSA07.jpg,AFSA13.jpg,AFNE16.jpg,AFNE16.jpg,FN,3,num_4,32,num_6,0.666784057554,,,2017_Oct_04_1616,59.9700514159,FEMA4ImagesEEG,001,101839,
AFNE01.JPG,AFNE01.JPG,AFNE01.JPG,AFNE01.JPG,AFNE01.JPG,AFNE01.JPG,2,3,23,3,,,,,,,,,,,,,,,,,,,,,,,AFNE02.jpg,AFSA07.jpg,AFSA15.jpg,AFNE12.jpg,AFSA15.jpg,FS,4,num_2,32,num_4,0.316895723226,,,2017_Oct_04_1616,59.9700514159,FEMA4ImagesEEG,001,101839,
AFNE01.JPG,AFNE01.JPG,AFNE01.JPG,AFNE01.JPG,AFNE01.JPG,AFNE01.JPG,2,4,24,8,,,,,,,,,,,,,,,,,,,,,,,AFSA11.jpg,AFSA01.jpg,AFNE01.jpg,AFNE10.jpg,AFNE01.jpg,FN,3,num_2,32,num_8,0.316788916767,,,2017_Oct_04_1616,59.9700514159,FEMA4ImagesEEG,001,101839,
AFNE01.JPG,AFNE01.JPG,AFNE01.JPG,AFNE01.JPG,AFNE01.JPG,AFNE01.JPG,2,5,25,0,,,,,,,,,,,,,,,,,,,,,,,AFSA13.jpg,AFSA18.jpg,AFNE20.jpg,AFNE09.jpg,AFSA18.jpg,FS,4,num_6,16,num_6,0.383363659319,,,2017_Oct_04_1616,59.9700514159,FEMA4ImagesEEG,001,101839,
AFNE01.JPG,AFNE01.JPG,AFNE01.JPG,AFNE01.JPG,AFNE01.JPG,AFNE01.JPG,2,6,26,1,,,,,,,,,,,,,,,,,,,,,,,AFSA18.jpg,AFNE10.jpg,AFSA04.jpg,AFNE03.jpg,AFSA04.jpg,FS,4,num_2,32,num_4,0.633507912178,,,2017_Oct_04_1616,59.9700514159,FEMA4ImagesEEG,001,101839,
AFNE01.JPG,AFNE01.JPG,AFNE01.JPG,AFNE01.JPG,AFNE01.JPG,AFNE01.JPG,2,7,27,4,,,,,,,,,,,,,,,,,,,,,,,AFNE04.jpg,AFSA08.jpg,AFSA04.jpg,AFNE16.jpg,AFNE16.jpg,FN,3,num_4,32,num_8,0.783459368162,,,2017_Oct_04_1616,59.9700514159,FEMA4ImagesEEG,001,101839,
AFNE01.JPG,AFNE01.JPG,AFNE01.JPG,AFNE01.JPG,AFNE01.JPG,AFNE01.JPG,2,8,28,9,,,,,,,,,,,,,,,,,,,,,,,AFSA12.jpg,AFNE02.jpg,AFNE08.jpg,AFSA10.jpg,AFSA12.jpg,FS,4,num_8,32,num_2,1.08342610741,,,2017_Oct_04_1616,59.9700514159,FEMA4ImagesEEG,001,101839,
AFNE01.JPG,AFNE01.JPG,AFNE01.JPG,AFNE01.JPG,AFNE01.JPG,AFNE01.JPG,2,9,29,2,,,,,,,,,,,,,,,,,,,,,,,AFSA03.jpg,AFNE09.jpg,AFSA09.jpg,AFNE11.jpg,AFSA03.jpg,FS,4,num_8,16,num_8,0.666813244898,,,2017_Oct_04_1616,59.9700514159,FEMA4ImagesEEG,001,101839,
AFNE01.JPG,AFNE01.JPG,AFNE01.JPG,AFNE01.JPG,AFNE01.JPG,AFNE01.JPG,3,0,30,2,,,,,,,,,,,,,,,,,,,,,,,AFNE06.jpg,AFNE07.jpg,AFSA08.jpg,AFSA04.jpg,AFSA08.jpg,FS,4,num_2,32,num_4,0.716750876978,,,2017_Oct_04_1616,59.9700514159,FEMA4ImagesEEG,001,101839,
AFNE01.JPG,AFNE01.JPG,AFNE01.JPG,AFNE01.JPG,AFNE01.JPG,AFNE01.JPG,3,1,31,8,,,,,,,,,,,,,,,,,,,,,,,AFNE15.jpg,AFSA09.jpg,AFSA16.jpg,AFNE01.jpg,AFSA16.jpg,FS,4,num_2,16,num_2,0.783162683554,,,2017_Oct_04_1616,59.9700514159,FEMA4ImagesEEG,001,101839,
AFNE01.JPG,AFNE01.JPG,AFNE01.JPG,AFNE01.JPG,AFNE01.JPG,AFNE01.JPG,3,2,32,9,,,,,,,,,,,,,,,,,,,,,,,AFNE09.jpg,AFSA10.jpg,AFNE04.jpg,AFSA04.jpg,AFSA04.jpg,FS,4,num_4,32,num_8,0.716810855374,,,2017_Oct_04_1616,59.9700514159,FEMA4ImagesEEG,001,101839,
AFNE01.JPG,AFNE01.JPG,AFNE01.JPG,AFNE01.JPG,AFNE01.JPG,AFNE01.JPG,3,3,33,4,,,,,,,,,,,,,,,,,,,,,,,AFNE08.jpg,AFSA02.jpg,AFSA16.jpg,AFNE16.jpg,AFNE08.jpg,FN,3,num_8,32,num_6,0.550174177915,,,2017_Oct_04_1616,59.9700514159,FEMA4ImagesEEG,001,101839,
AFNE01.JPG,AFNE01.JPG,AFNE01.JPG,AFNE01.JPG,AFNE01.JPG,AFNE01.JPG,3,4,34,5,,,,,,,,,,,,,,,,,,,,,,,AFNE02.jpg,AFSA04.jpg,AFNE01.jpg,AFSA06.jpg,AFNE01.jpg,FN,3,num_2,32,num_8,4.33316334107,,,2017_Oct_04_1616,59.9700514159,FEMA4ImagesEEG,001,101839,
AFNE01.JPG,AFNE01.JPG,AFNE01.JPG,AFNE01.JPG,AFNE01.JPG,AFNE01.JPG,3,5,35,7,,,,,,,,,,,,,,,,,,,,,,,AFSA14.jpg,AFNE09.jpg,AFSA04.jpg,AFNE06.jpg,AFSA14.jpg,FS,4,num_8,32,num_6,0.916737470048,,,2017_Oct_04_1616,59.9700514159,FEMA4ImagesEEG,001,101839,
AFNE01.JPG,AFNE01.JPG,AFNE01.JPG,AFNE01.JPG,AFNE01.JPG,AFNE01.JPG,3,6,36,1,,,,,,,,,,,,,,,,,,,,,,,AFSA04.jpg,AFNE01.jpg,AFNE05.jpg,AFSA06.jpg,AFSA06.jpg,FS,4,num_4,32,num_2,1.3331652655,,,2017_Oct_04_1616,59.9700514159,FEMA4ImagesEEG,001,101839,
AFNE01.JPG,AFNE01.JPG,AFNE01.JPG,AFNE01.JPG,AFNE01.JPG,AFNE01.JPG,3,7,37,3,,,,,,,,,,,,,,,,,,,,,,,AFSA03.jpg,AFNE13.jpg,AFSA18.jpg,AFNE09.jpg,AFNE09.jpg,FN,3,num_4,32,num_8,1.08342706964,,,2017_Oct_04_1616,59.9700514159,FEMA4ImagesEEG,001,101839,
AFNE01.JPG,AFNE01.JPG,AFNE01.JPG,AFNE01.JPG,AFNE01.JPG,AFNE01.JPG,3,8,38,0,,,,,,,,,,,,,,,,,,,,,,,AFNE17.jpg,AFNE15.jpg,AFSA18.jpg,AFSA20.jpg,AFNE15.jpg,FN,3,num_6,16,num_6,1.35015166197,,,2017_Oct_04_1616,59.9700514159,FEMA4ImagesEEG,001,101839,
AFNE01.JPG,AFNE01.JPG,AFNE01.JPG,AFNE01.JPG,AFNE01.JPG,AFNE01.JPG,3,9,39,6,,,,,,,,,,,,,,,,,,,,,,,AFNE03.jpg,AFSA14.jpg,AFSA05.jpg,AFNE02.jpg,AFNE03.jpg,FN,3,num_8,32,num_4,0.78353121395,,,2017_Oct_04_1616,59.9700514159,FEMA4ImagesEEG,001,101839,
AFNE01.JPG,AFNE01.JPG,AFNE01.JPG,AFNE01.JPG,AFNE01.JPG,AFNE01.JPG,4,0,40,0,,,,,,,,,,,,,,,,,,,,,,,AFSA13.jpg,AFNE10.jpg,AFNE13.jpg,AFSA15.jpg,AFSA15.jpg,FS,4,num_4,32,num_8,0.816775606043,,,2017_Oct_04_1616,59.9700514159,FEMA4ImagesEEG,001,101839,
AFNE01.JPG,AFNE01.JPG,AFNE01.JPG,AFNE01.JPG,AFNE01.JPG,AFNE01.JPG,4,1,41,5,,,,,,,,,,,,,,,,,,,,,,,AFNE09.jpg,AFSA14.jpg,AFSA08.jpg,AFNE10.jpg,AFSA14.jpg,FS,4,num_6,16,num_6,0.70009388063,,,2017_Oct_04_1616,59.9700514159,FEMA4ImagesEEG,001,101839,
AFNE01.JPG,AFNE01.JPG,AFNE01.JPG,AFNE01.JPG,AFNE01.JPG,AFNE01.JPG,4,2,42,9,,,,,,,,,,,,,,,,,,,,,,,AFSA01.jpg,AFNE02.jpg,AFNE05.jpg,AFSA11.jpg,AFNE05.jpg,FN,3,num_2,32,num_4,0.833457299377,,,2017_Oct_04_1616,59.9700514159,FEMA4ImagesEEG,001,101839,
AFNE01.JPG,AFNE01.JPG,AFNE01.JPG,AFNE01.JPG,AFNE01.JPG,AFNE01.JPG,4,3,43,1,,,,,,,,,,,,,,,,,,,,,,,AFSA10.jpg,AFNE12.jpg,AFNE15.jpg,AFSA08.jpg,AFNE12.jpg,FN,3,num_6,32,num_8,0.43349694286,,,2017_Oct_04_1616,59.9700514159,FEMA4ImagesEEG,001,101839,
AFNE01.JPG,AFNE01.JPG,AFNE01.JPG,AFNE01.JPG,AFNE01.JPG,AFNE01.JPG,4,4,44,8,,,,,,,,,,,,,,,,,,,,,,,AFNE01.jpg,AFSA10.jpg,AFNE19.jpg,AFSA12.jpg,AFNE19.jpg,FN,3,num_2,16,num_2,0.33356522843,,,2017_Oct_04_1616,59.9700514159,FEMA4ImagesEEG,001,101839,
AFNE01.JPG,AFNE01.JPG,AFNE01.JPG,AFNE01.JPG,AFNE01.JPG,AFNE01.JPG,4,5,45,2,,,,,,,,,,,,,,,,,,,,,,,AFNE08.jpg,AFNE15.jpg,AFSA01.jpg,AFSA16.jpg,AFSA01.jpg,FS,4,num_2,32,num_8,0.700174065671,,,2017_Oct_04_1616,59.9700514159,FEMA4ImagesEEG,001,101839,
AFNE01.JPG,AFNE01.JPG,AFNE01.JPG,AFNE01.JPG,AFNE01.JPG,AFNE01.JPG,4,6,46,6,,,,,,,,,,,,,,,,,,,,,,,AFSA07.jpg,AFNE01.jpg,AFNE17.jpg,AFSA16.jpg,AFNE01.jpg,FN,3,num_6,32,num_2,0.716843570888,,,2017_Oct_04_1616,59.9700514159,FEMA4ImagesEEG,001,101839,
AFNE01.JPG,AFNE01.JPG,AFNE01.JPG,AFNE01.JPG,AFNE01.JPG,AFNE01.JPG,4,7,47,4,,,,,,,,,,,,,,,,,,,,,,,AFSA14.jpg,AFSA12.jpg,AFNE19.jpg,AFNE15.jpg,AFNE15.jpg,FN,3,num_4,32,num_8,0.616765919694,,,2017_Oct_04_1616,59.9700514159,FEMA4ImagesEEG,001,101839,
AFNE01.JPG,AFNE01.JPG,AFNE01.JPG,AFNE01.JPG,AFNE01.JPG,AFNE01.JPG,4,8,48,3,,,,,,,,,,,,,,,,,,,,,,,AFSA06.jpg,AFNE14.jpg,AFSA15.jpg,AFNE05.jpg,AFNE05.jpg,FN,3,num_4,32,num_6,0.71678679988,,,2017_Oct_04_1616,59.9700514159,FEMA4ImagesEEG,001,101839,
AFNE01.JPG,AFNE01.JPG,AFNE01.JPG,AFNE01.JPG,AFNE01.JPG,AFNE01.JPG,4,9,49,7,,,,,,,,,,,,,,,,,,,,,,,AFNE17.jpg,AFNE03.jpg,AFSA14.jpg,AFSA13.jpg,AFNE17.jpg,FN,3,num_8,32,num_4,0.966737004972,,,2017_Oct_04_1616,59.9700514159,FEMA4ImagesEEG,001,101839,
AFNE01.JPG,AFNE01.JPG,AFNE01.JPG,AFNE01.JPG,AFNE01.JPG,AFNE01.JPG,5,0,50,9,,,,,,,,,,,,,,,,,,,,,,,AFNE19.jpg,AFSA02.jpg,AFNE07.jpg,AFSA04.jpg,AFSA04.jpg,FS,4,num_4,32,num_8,0.333475100459,,,2017_Oct_04_1616,59.9700514159,FEMA4ImagesEEG,001,101839,
AFNE01.JPG,AFNE01.JPG,AFNE01.JPG,AFNE01.JPG,AFNE01.JPG,AFNE01.JPG,5,1,51,6,,,,,,,,,,,,,,,,,,,,,,,AFSA12.jpg,AFSA11.jpg,AFNE16.jpg,AFNE17.jpg,AFSA11.jpg,FS,4,num_6,32,num_2,1.26675634561,,,2017_Oct_04_1616,59.9700514159,FEMA4ImagesEEG,001,101839,
AFNE01.JPG,AFNE01.JPG,AFNE01.JPG,AFNE01.JPG,AFNE01.JPG,AFNE01.JPG,5,2,52,7,,,,,,,,,,,,,,,,,,,,,,,AFSA01.jpg,AFSA04.jpg,AFNE04.jpg,AFNE18.jpg,AFSA04.jpg,FS,4,num_6,16,num_6,2.55000386492,,,2017_Oct_04_1616,59.9700514159,FEMA4ImagesEEG,001,101839,
AFNE01.JPG,AFNE01.JPG,AFNE01.JPG,AFNE01.JPG,AFNE01.JPG,AFNE01.JPG,5,3,53,8,,,,,,,,,,,,,,,,,,,,,,,AFSA02.jpg,AFNE01.jpg,AFSA16.jpg,AFNE12.jpg,AFSA16.jpg,FS,4,num_2,32,num_8,0.583503245405,,,2017_Oct_04_1616,59.9700514159,FEMA4ImagesEEG,001,101839,
AFNE01.JPG,AFNE01.JPG,AFNE01.JPG,AFNE01.JPG,AFNE01.JPG,AFNE01.JPG,5,4,54,0,,,,,,,,,,,,,,,,,,,,,,,AFSA10.jpg,AFSA03.jpg,AFNE20.jpg,AFNE19.jpg,AFSA10.jpg,FS,4,num_8,16,num_8,0.933512498756,,,2017_Oct_04_1616,59.9700514159,FEMA4ImagesEEG,001,101839,
AFNE01.JPG,AFNE01.JPG,AFNE01.JPG,AFNE01.JPG,AFNE01.JPG,AFNE01.JPG,5,5,55,2,,,,,,,,,,,,,,,,,,,,,,,AFNE08.jpg,AFNE07.jpg,AFSA08.jpg,AFSA07.jpg,AFSA07.jpg,FS,4,num_4,16,num_4,0.850147011224,,,2017_Oct_04_1616,59.9700514159,FEMA4ImagesEEG,001,101839,
AFNE01.JPG,AFNE01.JPG,AFNE01.JPG,AFNE01.JPG,AFNE01.JPG,AFNE01.JPG,5,6,56,4,,,,,,,,,,,,,,,,,,,,,,,AFNE07.jpg,AFNE20.jpg,AFSA12.jpg,AFSA19.jpg,AFNE07.jpg,FN,3,num_8,32,num_6,0.800172814779,,,2017_Oct_04_1616,59.9700514159,FEMA4ImagesEEG,001,101839,
AFNE01.JPG,AFNE01.JPG,AFNE01.JPG,AFNE01.JPG,AFNE01.JPG,AFNE01.JPG,5,7,57,3,,,,,,,,,,,,,,,,,,,,,,,AFNE03.jpg,AFSA11.jpg,AFSA17.jpg,AFNE07.jpg,AFNE03.jpg,FN,3,num_8,32,num_2,0.716746707374,,,2017_Oct_04_1616,59.9700514159,FEMA4ImagesEEG,001,101839,
AFNE01.JPG,AFNE01.JPG,AFNE01.JPG,AFNE01.JPG,AFNE01.JPG,AFNE01.JPG,5,8,58,1,,,,,,,,,,,,,,,,,,,,,,,AFSA08.jpg,AFSA19.jpg,AFNE08.jpg,AFNE01.jpg,AFSA19.jpg,FS,4,num_6,16,num_6,1.80003104763,,,2017_Oct_04_1616,59.9700514159,FEMA4ImagesEEG,001,101839,
AFNE01.JPG,AFNE01.JPG,AFNE01.JPG,AFNE01.JPG,AFNE01.JPG,AFNE01.JPG,5,9,59,5,,,,,,,,,,,,,,,,,,,,,,,AFNE20.jpg,AFNE12.jpg,AFSA05.jpg,AFSA02.jpg,AFNE20.jpg,FN,3,num_8,32,num_2,0.716812138344,,,2017_Oct_04_1616,59.9700514159,FEMA4ImagesEEG,001,101839,
,,,,,,,,,,,,,,,,,,,,,,,,,,,,,,,,,,,,,,,,,,,space,11.9659425317,2017_Oct_04_1616,59.9700514159,FEMA4ImagesEEG,001,101839,
AFNE01.JPG,AFNE01.JPG,AFNE01.JPG,AFNE01.JPG,AFNE01.JPG,AFNE01.JPG,,,,,0,0,0,6,,,,,,,,,,,,,,,,,,,AMNE11.jpg,AMNE05.jpg,AMSA19.jpg,AMSA10.jpg,AMNE11.jpg,MN,1,num_8,32,num_4,1.91668775534,,,2017_Oct_04_1616,59.9700514159,FEMA4ImagesEEG,001,101839,
AFNE01.JPG,AFNE01.JPG,AFNE01.JPG,AFNE01.JPG,AFNE01.JPG,AFNE01.JPG,,,,,0,1,1,3,,,,,,,,,,,,,,,,,,,AMNE13.jpg,AMNE08.jpg,AMSA07.jpg,AMSA09.jpg,AMNE13.jpg,MN,1,num_8,16,num_8,0.933410824146,,,2017_Oct_04_1616,59.9700514159,FEMA4ImagesEEG,001,101839,
AFNE01.JPG,AFNE01.JPG,AFNE01.JPG,AFNE01.JPG,AFNE01.JPG,AFNE01.JPG,,,,,0,2,2,0,,,,,,,,,,,,,,,,,,,AMSA07.jpg,AMSA01.jpg,AMNE14.jpg,AMNE02.jpg,AMNE02.jpg,MN,1,num_4,32,num_8,0.983387265791,,,2017_Oct_04_1616,59.9700514159,FEMA4ImagesEEG,001,101839,
AFNE01.JPG,AFNE01.JPG,AFNE01.JPG,AFNE01.JPG,AFNE01.JPG,AFNE01.JPG,,,,,0,3,3,5,,,,,,,,,,,,,,,,,,,AMNE13.jpg,AMSA08.jpg,AMNE06.jpg,AMSA14.jpg,AMSA08.jpg,MS,2,num_6,16,num_6,0.466810614816,,,2017_Oct_04_1616,59.9700514159,FEMA4ImagesEEG,001,101839,
AFNE01.JPG,AFNE01.JPG,AFNE01.JPG,AFNE01.JPG,AFNE01.JPG,AFNE01.JPG,,,,,0,4,4,8,,,,,,,,,,,,,,,,,,,AMNE01.jpg,AMSA16.jpg,AMSA14.jpg,AMNE14.jpg,AMSA14.jpg,MS,2,num_2,16,num_2,0.88346581503,,,2017_Oct_04_1616,59.9700514159,FEMA4ImagesEEG,001,101839,
AFNE01.JPG,AFNE01.JPG,AFNE01.JPG,AFNE01.JPG,AFNE01.JPG,AFNE01.JPG,,,,,0,5,5,9,,,,,,,,,,,,,,,,,,,AMSA20.jpg,AMNE19.jpg,AMNE05.jpg,AMSA19.jpg,AMSA20.jpg,MS,2,num_8,32,num_2,0.833446714954,,,2017_Oct_04_1616,59.9700514159,FEMA4ImagesEEG,001,101839,
AFNE01.JPG,AFNE01.JPG,AFNE01.JPG,AFNE01.JPG,AFNE01.JPG,AFNE01.JPG,,,,,0,6,6,7,,,,,,,,,,,,,,,,,,,AMSA15.jpg,AMSA02.jpg,AMNE13.jpg,AMNE12.jpg,AMSA02.jpg,MS,2,num_6,32,num_8,1.13343045344,,,2017_Oct_04_1616,59.9700514159,FEMA4ImagesEEG,001,101839,
AFNE01.JPG,AFNE01.JPG,AFNE01.JPG,AFNE01.JPG,AFNE01.JPG,AFNE01.JPG,,,,,0,7,7,1,,,,,,,,,,,,,,,,,,,AMSA15.jpg,AMNE20.jpg,AMSA05.jpg,AMNE05.jpg,AMNE05.jpg,MN,1,num_4,16,num_4,0.750115867355,,,2017_Oct_04_1616,59.9700514159,FEMA4ImagesEEG,001,101839,
AFNE01.JPG,AFNE01.JPG,AFNE01.JPG,AFNE01.JPG,AFNE01.JPG,AFNE01.JPG,,,,,0,8,8,2,,,,,,,,,,,,,,,,,,,AMNE15.jpg,AMNE10.jpg,AMSA07.jpg,AMSA12.jpg,AMSA07.jpg,MS,2,num_2,32,num_6,0.900136923956,,,2017_Oct_04_1616,59.9700514159,FEMA4ImagesEEG,001,101839,
AFNE01.JPG,AFNE01.JPG,AFNE01.JPG,AFNE01.JPG,AFNE01.JPG,AFNE01.JPG,,,,,0,9,9,4,,,,,,,,,,,,,,,,,,,AMSA13.jpg,AMNE03.jpg,AMSA17.jpg,AMNE02.jpg,AMSA17.jpg,MS,2,num_2,32,num_4,1.35012087092,,,2017_Oct_04_1616,59.9700514159,FEMA4ImagesEEG,001,101839,
AFNE01.JPG,AFNE01.JPG,AFNE01.JPG,AFNE01.JPG,AFNE01.JPG,AFNE01.JPG,,,,,1,0,10,7,,,,,,,,,,,,,,,,,,,AMNE06.jpg,AMSA12.jpg,AMNE19.jpg,AMSA01.jpg,AMNE06.jpg,MN,1,num_8,16,num_8,0.783571306456,,,2017_Oct_04_1616,59.9700514159,FEMA4ImagesEEG,001,101839,
AFNE01.JPG,AFNE01.JPG,AFNE01.JPG,AFNE01.JPG,AFNE01.JPG,AFNE01.JPG,,,,,1,1,11,5,,,,,,,,,,,,,,,,,,,AMNE07.jpg,AMNE11.jpg,AMSA19.jpg,AMSA06.jpg,AMNE07.jpg,MN,1,num_8,16,num_8,1.08345272884,,,2017_Oct_04_1616,59.9700514159,FEMA4ImagesEEG,001,101839,
AFNE01.JPG,AFNE01.JPG,AFNE01.JPG,AFNE01.JPG,AFNE01.JPG,AFNE01.JPG,,,,,1,2,12,2,,,,,,,,,,,,,,,,,,,AMSA18.jpg,AMNE05.jpg,AMNE04.jpg,AMSA07.jpg,AMNE05.jpg,MN,1,num_6,16,num_6,0.683504881177,,,2017_Oct_04_1616,59.9700514159,FEMA4ImagesEEG,001,101839,
AFNE01.JPG,AFNE01.JPG,AFNE01.JPG,AFNE01.JPG,AFNE01.JPG,AFNE01.JPG,,,,,1,3,13,6,,,,,,,,,,,,,,,,,,,AMNE14.jpg,AMSA18.jpg,AMSA14.jpg,AMNE12.jpg,AMNE14.jpg,MN,1,num_8,32,num_4,1.50008483576,,,2017_Oct_04_1616,59.9700514159,FEMA4ImagesEEG,001,101839,
AFNE01.JPG,AFNE01.JPG,AFNE01.JPG,AFNE01.JPG,AFNE01.JPG,AFNE01.JPG,,,,,1,4,14,1,,,,,,,,,,,,,,,,,,,AMSA15.jpg,AMNE11.jpg,AMSA19.jpg,AMNE07.jpg,AMNE07.jpg,MN,1,num_4,32,num_8,1.18348258974,,,2017_Oct_04_1616,59.9700514159,FEMA4ImagesEEG,001,101839,
AFNE01.JPG,AFNE01.JPG,AFNE01.JPG,AFNE01.JPG,AFNE01.JPG,AFNE01.JPG,,,,,1,5,15,4,,,,,,,,,,,,,,,,,,,AMNE01.jpg,AMNE20.jpg,AMSA01.jpg,AMSA16.jpg,AMNE20.jpg,MN,1,num_6,32,num_8,1.28330845994,,,2017_Oct_04_1616,59.9700514159,FEMA4ImagesEEG,001,101839,
AFNE01.JPG,AFNE01.JPG,AFNE01.JPG,AFNE01.JPG,AFNE01.JPG,AFNE01.JPG,,,,,1,6,16,3,,,,,,,,,,,,,,,,,,,AMSA01.jpg,AMSA06.jpg,AMNE12.jpg,AMNE09.jpg,AMNE09.jpg,MN,1,num_4,32,num_2,1.25008042558,,,2017_Oct_04_1616,59.9700514159,FEMA4ImagesEEG,001,101839,
AFNE01.JPG,AFNE01.JPG,AFNE01.JPG,AFNE01.JPG,AFNE01.JPG,AFNE01.JPG,,,,,1,7,17,8,,,,,,,,,,,,,,,,,,,AMNE04.jpg,AMNE11.jpg,AMSA15.jpg,AMSA12.jpg,AMSA12.jpg,MS,2,num_4,32,num_6,0.966728344996,,,2017_Oct_04_1616,59.9700514159,FEMA4ImagesEEG,001,101839,
AFNE01.JPG,AFNE01.JPG,AFNE01.JPG,AFNE01.JPG,AFNE01.JPG,AFNE01.JPG,,,,,1,8,18,9,,,,,,,,,,,,,,,,,,,AMSA16.jpg,AMNE03.jpg,AMNE02.jpg,AMSA17.jpg,AMNE03.jpg,MN,1,num_6,32,num_4,1.4500330202,,,2017_Oct_04_1616,59.9700514159,FEMA4ImagesEEG,001,101839,
AFNE01.JPG,AFNE01.JPG,AFNE01.JPG,AFNE01.JPG,AFNE01.JPG,AFNE01.JPG,,,,,1,9,19,0,,,,,,,,,,,,,,,,,,,AMSA06.jpg,AMNE17.jpg,AMSA09.jpg,AMNE15.jpg,AMNE15.jpg,MN,1,num_4,32,num_8,0.650187039588,,,2017_Oct_04_1616,59.9700514159,FEMA4ImagesEEG,001,101839,
AFNE01.JPG,AFNE01.JPG,AFNE01.JPG,AFNE01.JPG,AFNE01.JPG,AFNE01.JPG,,,,,2,0,20,2,,,,,,,,,,,,,,,,,,,AMSA16.jpg,AMNE02.jpg,AMNE08.jpg,AMSA20.jpg,AMSA20.jpg,MS,2,num_4,32,num_2,0.467128147546,,,2017_Oct_04_1616,59.9700514159,FEMA4ImagesEEG,001,101839,
AFNE01.JPG,AFNE01.JPG,AFNE01.JPG,AFNE01.JPG,AFNE01.JPG,AFNE01.JPG,,,,,2,1,21,3,,,,,,,,,,,,,,,,,,,AMNE03.jpg,AMNE04.jpg,AMSA01.jpg,AMSA04.jpg,AMSA04.jpg,MS,2,num_4,32,num_8,0.333763766568,,,2017_Oct_04_1616,59.9700514159,FEMA4ImagesEEG,001,101839,
AFNE01.JPG,AFNE01.JPG,AFNE01.JPG,AFNE01.JPG,AFNE01.JPG,AFNE01.JPG,,,,,2,2,22,8,,,,,,,,,,,,,,,,,,,AMNE03.jpg,AMNE15.jpg,AMSA11.jpg,AMSA16.jpg,AMNE03.jpg,MN,1,num_8,32,num_6,0.683457411636,,,2017_Oct_04_1616,59.9700514159,FEMA4ImagesEEG,001,101839,
AFNE01.JPG,AFNE01.JPG,AFNE01.JPG,AFNE01.JPG,AFNE01.JPG,AFNE01.JPG,,,,,2,3,23,9,,,,,,,,,,,,,,,,,,,AMSA07.jpg,AMNE07.jpg,AMSA20.jpg,AMNE04.jpg,AMNE04.jpg,MN,1,num_4,16,num_4,1.65008087462,,,2017_Oct_04_1616,59.9700514159,FEMA4ImagesEEG,001,101839,
AFNE01.JPG,AFNE01.JPG,AFNE01.JPG,AFNE01.JPG,AFNE01.JPG,AFNE01.JPG,,,,,2,4,24,0,,,,,,,,,,,,,,,,,,,AMSA05.jpg,AMNE10.jpg,AMNE20.jpg,AMSA02.jpg,AMSA05.jpg,MS,2,num_8,16,num_8,0.750154356181,,,2017_Oct_04_1616,59.9700514159,FEMA4ImagesEEG,001,101839,
AFNE01.JPG,AFNE01.JPG,AFNE01.JPG,AFNE01.JPG,AFNE01.JPG,AFNE01.JPG,,,,,2,5,25,4,,,,,,,,,,,,,,,,,,,AMNE13.jpg,AMSA03.jpg,AMNE14.jpg,AMSA13.jpg,AMNE13.jpg,MN,1,num_8,16,num_8,0.550169046081,,,2017_Oct_04_1616,59.9700514159,FEMA4ImagesEEG,001,101839,
AFNE01.JPG,AFNE01.JPG,AFNE01.JPG,AFNE01.JPG,AFNE01.JPG,AFNE01.JPG,,,,,2,6,26,6,,,,,,,,,,,,,,,,,,,AMNE02.jpg,AMSA12.jpg,AMNE20.jpg,AMSA05.jpg,AMNE02.jpg,MN,1,num_8,32,num_2,1.41682968283,,,2017_Oct_04_1616,59.9700514159,FEMA4ImagesEEG,001,101839,
AFNE01.JPG,AFNE01.JPG,AFNE01.JPG,AFNE01.JPG,AFNE01.JPG,AFNE01.JPG,,,,,2,7,27,7,,,,,,,,,,,,,,,,,,,AMSA15.jpg,AMNE03.jpg,AMNE16.jpg,AMSA05.jpg,AMSA15.jpg,MS,2,num_8,32,num_2,1.13344424526,,,2017_Oct_04_1616,59.9700514159,FEMA4ImagesEEG,001,101839,
AFNE01.JPG,AFNE01.JPG,AFNE01.JPG,AFNE01.JPG,AFNE01.JPG,AFNE01.JPG,,,,,2,8,28,1,,,,,,,,,,,,,,,,,,,AMNE17.jpg,AMSA02.jpg,AMNE11.jpg,AMSA09.jpg,AMSA09.jpg,MS,2,num_4,32,num_2,1.16673257877,,,2017_Oct_04_1616,59.9700514159,FEMA4ImagesEEG,001,101839,
AFNE01.JPG,AFNE01.JPG,AFNE01.JPG,AFNE01.JPG,AFNE01.JPG,AFNE01.JPG,,,,,2,9,29,5,,,,,,,,,,,,,,,,,,,AMNE14.jpg,AMNE15.jpg,AMSA14.jpg,AMSA09.jpg,AMNE14.jpg,MN,1,num_8,32,num_4,0.600184938754,,,2017_Oct_04_1616,59.9700514159,FEMA4ImagesEEG,001,101839,
AFNE01.JPG,AFNE01.JPG,AFNE01.JPG,AFNE01.JPG,AFNE01.JPG,AFNE01.JPG,,,,,3,0,30,3,,,,,,,,,,,,,,,,,,,AMNE12.jpg,AMSA08.jpg,AMSA17.jpg,AMNE03.jpg,AMNE12.jpg,MN,1,num_8,32,num_2,2.23339327966,,,2017_Oct_04_1616,59.9700514159,FEMA4ImagesEEG,001,101839,
AFNE01.JPG,AFNE01.JPG,AFNE01.JPG,AFNE01.JPG,AFNE01.JPG,AFNE01.JPG,,,,,3,1,31,5,,,,,,,,,,,,,,,,,,,AMSA10.jpg,AMSA07.jpg,AMNE10.jpg,AMNE20.jpg,AMSA07.jpg,MS,2,num_6,16,num_6,0.833444149044,,,2017_Oct_04_1616,59.9700514159,FEMA4ImagesEEG,001,101839,
AFNE01.JPG,AFNE01.JPG,AFNE01.JPG,AFNE01.JPG,AFNE01.JPG,AFNE01.JPG,,,,,3,2,32,4,,,,,,,,,,,,,,,,,,,AMSA17.jpg,AMNE16.jpg,AMSA14.jpg,AMNE15.jpg,AMNE16.jpg,MN,1,num_6,32,num_4,0.750147941377,,,2017_Oct_04_1616,59.9700514159,FEMA4ImagesEEG,001,101839,
AFNE01.JPG,AFNE01.JPG,AFNE01.JPG,AFNE01.JPG,AFNE01.JPG,AFNE01.JPG,,,,,3,3,33,6,,,,,,,,,,,,,,,,,,,AMSA04.jpg,AMSA11.jpg,AMNE18.jpg,AMNE19.jpg,AMSA04.jpg,MS,2,num_8,16,num_8,1.18341619654,,,2017_Oct_04_1616,59.9700514159,FEMA4ImagesEEG,001,101839,
AFNE01.JPG,AFNE01.JPG,AFNE01.JPG,AFNE01.JPG,AFNE01.JPG,AFNE01.JPG,,,,,3,4,34,8,,,,,,,,,,,,,,,,,,,AMNE16.jpg,AMSA06.jpg,AMNE06.jpg,AMSA15.jpg,AMSA15.jpg,MS,2,num_4,32,num_6,0.700096125816,,,2017_Oct_04_1616,59.9700514159,FEMA4ImagesEEG,001,101839,
AFNE01.JPG,AFNE01.JPG,AFNE01.JPG,AFNE01.JPG,AFNE01.JPG,AFNE01.JPG,,,,,3,5,35,7,,,,,,,,,,,,,,,,,,,AMNE12.jpg,AMSA20.jpg,AMSA19.jpg,AMNE03.jpg,AMNE03.jpg,MN,1,num_4,32,num_8,0.61684738769,,,2017_Oct_04_1616,59.9700514159,FEMA4ImagesEEG,001,101839,
AFNE01.JPG,AFNE01.JPG,AFNE01.JPG,AFNE01.JPG,AFNE01.JPG,AFNE01.JPG,,,,,3,6,36,1,,,,,,,,,,,,,,,,,,,AMSA11.jpg,AMSA19.jpg,AMNE01.jpg,AMNE10.jpg,AMNE10.jpg,MN,1,num_4,16,num_4,0.716799629474,,,2017_Oct_04_1616,59.9700514159,FEMA4ImagesEEG,001,101839,
AFNE01.JPG,AFNE01.JPG,AFNE01.JPG,AFNE01.JPG,AFNE01.JPG,AFNE01.JPG,,,,,3,7,37,0,,,,,,,,,,,,,,,,,,,AMNE08.jpg,AMNE12.jpg,AMSA07.jpg,AMSA04.jpg,AMSA07.jpg,MS,2,num_2,16,num_2,0.900137886172,,,2017_Oct_04_1616,59.9700514159,FEMA4ImagesEEG,001,101839,
AFNE01.JPG,AFNE01.JPG,AFNE01.JPG,AFNE01.JPG,AFNE01.JPG,AFNE01.JPG,,,,,3,8,38,2,,,,,,,,,,,,,,,,,,,AMNE19.jpg,AMSA10.jpg,AMSA07.jpg,AMNE18.jpg,AMNE18.jpg,MN,1,num_4,16,num_4,0.983412604255,,,2017_Oct_04_1616,59.9700514159,FEMA4ImagesEEG,001,101839,
AFNE01.JPG,AFNE01.JPG,AFNE01.JPG,AFNE01.JPG,AFNE01.JPG,AFNE01.JPG,,,,,3,9,39,9,,,,,,,,,,,,,,,,,,,AMSA17.jpg,AMNE01.jpg,AMNE04.jpg,AMSA20.jpg,AMSA17.jpg,MS,2,num_8,32,num_6,0.750156601353,,,2017_Oct_04_1616,59.9700514159,FEMA4ImagesEEG,001,101839,
AFNE01.JPG,AFNE01.JPG,AFNE01.JPG,AFNE01.JPG,AFNE01.JPG,AFNE01.JPG,,,,,4,0,40,7,,,,,,,,,,,,,,,,,,,AMNE20.jpg,AMSA17.jpg,AMSA13.jpg,AMNE11.jpg,AMNE11.jpg,MN,1,num_4,32,num_8,0.666792076052,,,2017_Oct_04_1616,59.9700514159,FEMA4ImagesEEG,001,101839,
AFNE01.JPG,AFNE01.JPG,AFNE01.JPG,AFNE01.JPG,AFNE01.JPG,AFNE01.JPG,,,,,4,1,41,5,,,,,,,,,,,,,,,,,,,AMNE11.jpg,AMSA20.jpg,AMNE07.jpg,AMSA15.jpg,AMNE07.jpg,MN,1,num_2,16,num_2,0.616832633634,,,2017_Oct_04_1616,59.9700514159,FEMA4ImagesEEG,001,101839,
AFNE01.JPG,AFNE01.JPG,AFNE01.JPG,AFNE01.JPG,AFNE01.JPG,AFNE01.JPG,,,,,4,2,42,6,,,,,,,,,,,,,,,,,,,AMSA14.jpg,AMNE05.jpg,AMSA20.jpg,AMNE09.jpg,AMNE09.jpg,MN,1,num_4,16,num_4,0.416788307353,,,2017_Oct_04_1616,59.9700514159,FEMA4ImagesEEG,001,101839,
AFNE01.JPG,AFNE01.JPG,AFNE01.JPG,AFNE01.JPG,AFNE01.JPG,AFNE01.JPG,,,,,4,3,43,9,,,,,,,,,,,,,,,,,,,AMSA03.jpg,AMNE01.jpg,AMSA18.jpg,AMNE07.jpg,AMNE07.jpg,MN,1,num_4,32,num_6,0.58345802105,,,2017_Oct_04_1616,59.9700514159,FEMA4ImagesEEG,001,101839,
AFNE01.JPG,AFNE01.JPG,AFNE01.JPG,AFNE01.JPG,AFNE01.JPG,AFNE01.JPG,,,,,4,4,44,8,,,,,,,,,,,,,,,,,,,AMSA03.jpg,AMSA20.jpg,AMNE07.jpg,AMNE11.jpg,AMSA03.jpg,MS,2,num_8,16,num_8,0.616810502572,,,2017_Oct_04_1616,59.9700514159,FEMA4ImagesEEG,001,101839,
AFNE01.JPG,AFNE01.JPG,AFNE01.JPG,AFNE01.JPG,AFNE01.JPG,AFNE01.JPG,,,,,4,5,45,4,,,,,,,,,,,,,,,,,,,AMSA12.jpg,AMNE17.jpg,AMSA15.jpg,AMNE02.jpg,AMSA15.jpg,MS,2,num_2,16,num_2,0.883426364002,,,2017_Oct_04_1616,59.9700514159,FEMA4ImagesEEG,001,101839,
AFNE01.JPG,AFNE01.JPG,AFNE01.JPG,AFNE01.JPG,AFNE01.JPG,AFNE01.JPG,,,,,4,6,46,1,,,,,,,,,,,,,,,,,,,AMNE06.jpg,AMSA08.jpg,AMNE02.jpg,AMSA06.jpg,AMNE02.jpg,MN,1,num_2,32,num_4,0.766801088859,,,2017_Oct_04_1616,59.9700514159,FEMA4ImagesEEG,001,101839,
AFNE01.JPG,AFNE01.JPG,AFNE01.JPG,AFNE01.JPG,AFNE01.JPG,AFNE01.JPG,,,,,4,7,47,2,,,,,,,,,,,,,,,,,,,AMSA17.jpg,AMSA08.jpg,AMNE10.jpg,AMNE02.jpg,AMNE02.jpg,MN,1,num_4,32,num_2,1.98337090803,,,2017_Oct_04_1616,59.9700514159,FEMA4ImagesEEG,001,101839,
AFNE01.JPG,AFNE01.JPG,AFNE01.JPG,AFNE01.JPG,AFNE01.JPG,AFNE01.JPG,,,,,4,8,48,3,,,,,,,,,,,,,,,,,,,AMSA20.jpg,AMNE07.jpg,AMSA14.jpg,AMNE14.jpg,AMNE07.jpg,MN,1,num_6,32,num_8,0.466770201572,,,2017_Oct_04_1616,59.9700514159,FEMA4ImagesEEG,001,101839,
AFNE01.JPG,AFNE01.JPG,AFNE01.JPG,AFNE01.JPG,AFNE01.JPG,AFNE01.JPG,,,,,4,9,49,0,,,,,,,,,,,,,,,,,,,AMSA11.jpg,AMNE20.jpg,AMSA02.jpg,AMNE05.jpg,AMSA11.jpg,MS,2,num_8,32,num_6,0.4333237432,,,2017_Oct_04_1616,59.9700514159,FEMA4ImagesEEG,001,101839,
AFNE01.JPG,AFNE01.JPG,AFNE01.JPG,AFNE01.JPG,AFNE01.JPG,AFNE01.JPG,,,,,5,0,50,8,,,,,,,,,,,,,,,,,,,AMNE08.jpg,AMSA14.jpg,AMNE12.jpg,AMSA03.jpg,AMNE08.jpg,MN,1,num_8,32,num_2,0.500148663035,,,2017_Oct_04_1616,59.9700514159,FEMA4ImagesEEG,001,101839,
AFNE01.JPG,AFNE01.JPG,AFNE01.JPG,AFNE01.JPG,AFNE01.JPG,AFNE01.JPG,,,,,5,1,51,2,,,,,,,,,,,,,,,,,,,AMNE04.jpg,AMSA13.jpg,AMNE17.jpg,AMSA06.jpg,AMSA06.jpg,MS,2,num_4,32,num_8,0.616799276671,,,2017_Oct_04_1616,59.9700514159,FEMA4ImagesEEG,001,101839,
AFNE01.JPG,AFNE01.JPG,AFNE01.JPG,AFNE01.JPG,AFNE01.JPG,AFNE01.JPG,,,,,5,2,52,6,,,,,,,,,,,,,,,,,,,AMSA10.jpg,AMSA20.jpg,AMNE15.jpg,AMNE02.jpg,AMNE02.jpg,MN,1,num_4,32,num_2,0.900148791334,,,2017_Oct_04_1616,59.9700514159,FEMA4ImagesEEG,001,101839,
AFNE01.JPG,AFNE01.JPG,AFNE01.JPG,AFNE01.JPG,AFNE01.JPG,AFNE01.JPG,,,,,5,3,53,3,,,,,,,,,,,,,,,,,,,AMSA02.jpg,AMNE09.jpg,AMNE18.jpg,AMSA10.jpg,AMNE18.jpg,MN,1,num_2,32,num_4,0.783556873153,,,2017_Oct_04_1616,59.9700514159,FEMA4ImagesEEG,001,101839,
AFNE01.JPG,AFNE01.JPG,AFNE01.JPG,AFNE01.JPG,AFNE01.JPG,AFNE01.JPG,,,,,5,4,54,7,,,,,,,,,,,,,,,,,,,AMNE01.jpg,AMSA07.jpg,AMNE10.jpg,AMSA01.jpg,AMSA07.jpg,MS,2,num_6,16,num_6,0.766722828252,,,2017_Oct_04_1616,59.9700514159,FEMA4ImagesEEG,001,101839,
AFNE01.JPG,AFNE01.JPG,AFNE01.JPG,AFNE01.JPG,AFNE01.JPG,AFNE01.JPG,,,,,5,5,55,0,,,,,,,,,,,,,,,,,,,AMSA05.jpg,AMSA14.jpg,AMNE03.jpg,AMNE12.jpg,AMSA14.jpg,MS,2,num_6,16,num_6,0.783446538568,,,2017_Oct_04_1616,59.9700514159,FEMA4ImagesEEG,001,101839,
AFNE01.JPG,AFNE01.JPG,AFNE01.JPG,AFNE01.JPG,AFNE01.JPG,AFNE01.JPG,,,,,5,6,56,1,,,,,,,,,,,,,,,,,,,AMSA06.jpg,AMSA18.jpg,AMNE13.jpg,AMNE02.jpg,AMNE02.jpg,MN,1,num_4,16,num_4,0.733470096908,,,2017_Oct_04_1616,59.9700514159,FEMA4ImagesEEG,001,101839,
AFNE01.JPG,AFNE01.JPG,AFNE01.JPG,AFNE01.JPG,AFNE01.JPG,AFNE01.JPG,,,,,5,7,57,4,,,,,,,,,,,,,,,,,,,AMSA08.jpg,AMNE15.jpg,AMNE10.jpg,AMSA07.jpg,AMNE15.jpg,MN,1,num_6,32,num_8,0.650129947855,,,2017_Oct_04_1616,59.9700514159,FEMA4ImagesEEG,001,101839,
AFNE01.JPG,AFNE01.JPG,AFNE01.JPG,AFNE01.JPG,AFNE01.JPG,AFNE01.JPG,,,,,5,8,58,9,,,,,,,,,,,,,,,,,,,AMNE09.jpg,AMNE03.jpg,AMSA12.jpg,AMSA04.jpg,AMNE03.jpg,MN,1,num_6,32,num_2,0.383489389438,,,2017_Oct_04_1616,59.9700514159,FEMA4ImagesEEG,001,101839,
AFNE01.JPG,AFNE01.JPG,AFNE01.JPG,AFNE01.JPG,AFNE01.JPG,AFNE01.JPG,,,,,5,9,59,5,,,,,,,,,,,,,,,,,,,AMSA05.jpg,AMNE05.jpg,AMNE16.jpg,AMSA11.jpg,AMSA05.jpg,MS,2,num_8,16,num_8,0.550167763111,,,2017_Oct_04_1616,59.9700514159,FEMA4ImagesEEG,001,101839,
,,,,,,,,,,,,,,,,,,,,,,,,,,,,,,,,,,,,,,,,,,,space,20.6989158022,2017_Oct_04_1616,59.9700514159,FEMA4ImagesEEG,001,101839,
AFNE01.JPG,AFNE01.JPG,AFNE01.JPG,AFNE01.JPG,AFNE01.JPG,AFNE01.JPG,,,,,,,,,0,0,0,0,,,,,,,,,,,,,,,AFNE16.jpg,AFSA02.jpg,AFNE15.jpg,AFSA10.jpg,AFNE15.jpg,FN,3,num_2,32,num_8,0.883473192065,,,2017_Oct_04_1616,59.9700514159,FEMA4ImagesEEG,001,101839,
AFNE01.JPG,AFNE01.JPG,AFNE01.JPG,AFNE01.JPG,AFNE01.JPG,AFNE01.JPG,,,,,,,,,0,1,1,8,,,,,,,,,,,,,,,AFSA05.jpg,AFNE07.jpg,AFSA07.jpg,AFNE01.jpg,AFSA07.jpg,FS,4,num_2,16,num_2,0.850036997377,,,2017_Oct_04_1616,59.9700514159,FEMA4ImagesEEG,001,101839,
AFNE01.JPG,AFNE01.JPG,AFNE01.JPG,AFNE01.JPG,AFNE01.JPG,AFNE01.JPG,,,,,,,,,0,2,2,6,,,,,,,,,,,,,,,AFNE14.jpg,AFNE07.jpg,AFSA16.jpg,AFSA12.jpg,AFSA16.jpg,FS,4,num_2,32,num_8,0.800125665977,,,2017_Oct_04_1616,59.9700514159,FEMA4ImagesEEG,001,101839,
AFNE01.JPG,AFNE01.JPG,AFNE01.JPG,AFNE01.JPG,AFNE01.JPG,AFNE01.JPG,,,,,,,,,0,3,3,7,,,,,,,,,,,,,,,AFNE07.jpg,AFSA03.jpg,AFNE17.jpg,AFSA05.jpg,AFSA03.jpg,FS,4,num_6,32,num_2,0.716769800652,,,2017_Oct_04_1616,59.9700514159,FEMA4ImagesEEG,001,101839,
AFNE01.JPG,AFNE01.JPG,AFNE01.JPG,AFNE01.JPG,AFNE01.JPG,AFNE01.JPG,,,,,,,,,0,4,4,4,,,,,,,,,,,,,,,AFNE03.jpg,AFSA03.jpg,AFSA19.jpg,AFNE13.jpg,AFNE03.jpg,FN,3,num_8,32,num_2,0.816739683141,,,2017_Oct_04_1616,59.9700514159,FEMA4ImagesEEG,001,101839,
AFNE01.JPG,AFNE01.JPG,AFNE01.JPG,AFNE01.JPG,AFNE01.JPG,AFNE01.JPG,,,,,,,,,0,5,5,9,,,,,,,,,,,,,,,AFNE13.jpg,AFSA03.jpg,AFSA01.jpg,AFNE06.jpg,AFNE06.jpg,FN,3,num_4,32,num_6,0.816935334631,,,2017_Oct_04_1616,59.9700514159,FEMA4ImagesEEG,001,101839,
AFNE01.JPG,AFNE01.JPG,AFNE01.JPG,AFNE01.JPG,AFNE01.JPG,AFNE01.JPG,,,,,,,,,0,6,6,2,,,,,,,,,,,,,,,AFSA03.jpg,AFSA05.jpg,AFNE17.jpg,AFNE19.jpg,AFNE17.jpg,FN,3,num_2,32,num_8,0.766801730322,,,2017_Oct_04_1616,59.9700514159,FEMA4ImagesEEG,001,101839,
AFNE01.JPG,AFNE01.JPG,AFNE01.JPG,AFNE01.JPG,AFNE01.JPG,AFNE01.JPG,,,,,,,,,0,7,7,5,,,,,,,,,,,,,,,AFNE01.jpg,AFSA18.jpg,AFNE02.jpg,AFSA16.jpg,AFNE02.jpg,FN,3,num_2,16,num_2,0.916772430719,,,2017_Oct_04_1616,59.9700514159,FEMA4ImagesEEG,001,101839,
AFNE01.JPG,AFNE01.JPG,AFNE01.JPG,AFNE01.JPG,AFNE01.JPG,AFNE01.JPG,,,,,,,,,0,8,8,1,,,,,,,,,,,,,,,AFNE13.jpg,AFNE09.jpg,AFSA04.jpg,AFSA16.jpg,AFNE13.jpg,FN,3,num_8,32,num_4,0.583744441974,,,2017_Oct_04_1616,59.9700514159,FEMA4ImagesEEG,001,101839,
AFNE01.JPG,AFNE01.JPG,AFNE01.JPG,AFNE01.JPG,AFNE01.JPG,AFNE01.JPG,,,,,,,,,0,9,9,3,,,,,,,,,,,,,,,AFSA11.jpg,AFNE15.jpg,AFNE10.jpg,AFSA01.jpg,AFNE10.jpg,FN,3,num_2,16,num_2,4.51652533254,,,2017_Oct_04_1616,59.9700514159,FEMA4ImagesEEG,001,101839,
AFNE01.JPG,AFNE01.JPG,AFNE01.JPG,AFNE01.JPG,AFNE01.JPG,AFNE01.JPG,,,,,,,,,1,0,10,1,,,,,,,,,,,,,,,AFNE14.jpg,AFSA16.jpg,AFNE10.jpg,AFSA11.jpg,AFNE14.jpg,FN,3,num_8,32,num_4,0.683484995301,,,2017_Oct_04_1616,59.9700514159,FEMA4ImagesEEG,001,101839,
AFNE01.JPG,AFNE01.JPG,AFNE01.JPG,AFNE01.JPG,AFNE01.JPG,AFNE01.JPG,,,,,,,,,1,1,11,5,,,,,,,,,,,,,,,AFSA16.jpg,AFSA02.jpg,AFNE14.jpg,AFNE08.jpg,AFNE08.jpg,FN,3,num_4,32,num_2,0.383478805015,,,2017_Oct_04_1616,59.9700514159,FEMA4ImagesEEG,001,101839,
AFNE01.JPG,AFNE01.JPG,AFNE01.JPG,AFNE01.JPG,AFNE01.JPG,AFNE01.JPG,,,,,,,,,1,2,12,7,,,,,,,,,,,,,,,AFSA11.jpg,AFSA07.jpg,AFNE19.jpg,AFNE14.jpg,AFSA07.jpg,FS,4,num_6,32,num_8,0.683470241245,,,2017_Oct_04_1616,59.9700514159,FEMA4ImagesEEG,001,101839,
AFNE01.JPG,AFNE01.JPG,AFNE01.JPG,AFNE01.JPG,AFNE01.JPG,AFNE01.JPG,,,,,,,,,1,3,13,4,,,,,,,,,,,,,,,AFNE09.jpg,AFSA05.jpg,AFNE17.jpg,AFSA13.jpg,AFNE17.jpg,FN,3,num_2,32,num_6,0.800163192573,,,2017_Oct_04_1616,59.9700514159,FEMA4ImagesEEG,001,101839,
AFNE01.JPG,AFNE01.JPG,AFNE01.JPG,AFNE01.JPG,AFNE01.JPG,AFNE01.JPG,,,,,,,,,1,4,14,8,,,,,,,,,,,,,,,AFNE20.jpg,AFSA15.jpg,AFSA07.jpg,AFNE05.jpg,AFNE05.jpg,FN,3,num_4,16,num_4,0.783202455335,,,2017_Oct_04_1616,59.9700514159,FEMA4ImagesEEG,001,101839,
AFNE01.JPG,AFNE01.JPG,AFNE01.JPG,AFNE01.JPG,AFNE01.JPG,AFNE01.JPG,,,,,,,,,1,5,15,2,,,,,,,,,,,,,,,AFNE12.jpg,AFSA06.jpg,AFSA01.jpg,AFNE19.jpg,AFSA06.jpg,FS,4,num_6,32,num_2,1.73344956954,,,2017_Oct_04_1616,59.9700514159,FEMA4ImagesEEG,001,101839,
AFNE01.JPG,AFNE01.JPG,AFNE01.JPG,AFNE01.JPG,AFNE01.JPG,AFNE01.JPG,,,,,,,,,1,6,16,9,,,,,,,,,,,,,,,AFNE08.jpg,AFSA20.jpg,AFSA07.jpg,AFNE02.jpg,AFNE02.jpg,FN,3,num_4,32,num_8,0.700109276149,,,2017_Oct_04_1616,59.9700514159,FEMA4ImagesEEG,001,101839,
AFNE01.JPG,AFNE01.JPG,AFNE01.JPG,AFNE01.JPG,AFNE01.JPG,AFNE01.JPG,,,,,,,,,1,7,17,3,,,,,,,,,,,,,,,AFSA12.jpg,AFSA18.jpg,AFNE13.jpg,AFNE08.jpg,AFNE08.jpg,FN,3,num_4,16,num_4,0.850135464585,,,2017_Oct_04_1616,59.9700514159,FEMA4ImagesEEG,001,101839,
AFNE01.JPG,AFNE01.JPG,AFNE01.JPG,AFNE01.JPG,AFNE01.JPG,AFNE01.JPG,,,,,,,,,1,8,18,6,,,,,,,,,,,,,,,AFNE20.jpg,AFNE06.jpg,AFSA07.jpg,AFSA14.jpg,AFSA14.jpg,FS,4,num_4,32,num_6,0.600230483848,,,2017_Oct_04_1616,59.9700514159,FEMA4ImagesEEG,001,101839,
AFNE01.JPG,AFNE01.JPG,AFNE01.JPG,AFNE01.JPG,AFNE01.JPG,AFNE01.JPG,,,,,,,,,1,9,19,0,,,,,,,,,,,,,,,AFSA18.jpg,AFSA11.jpg,AFNE19.jpg,AFNE13.jpg,AFSA11.jpg,FS,4,num_6,32,num_2,0.650124495267,,,2017_Oct_04_1616,59.9700514159,FEMA4ImagesEEG,001,101839,
AFNE01.JPG,AFNE01.JPG,AFNE01.JPG,AFNE01.JPG,AFNE01.JPG,AFNE01.JPG,,,,,,,,,2,0,20,3,,,,,,,,,,,,,,,AFSA06.jpg,AFNE17.jpg,AFNE20.jpg,AFSA10.jpg,AFNE17.jpg,FN,3,num_6,32,num_8,0.466835311818,,,2017_Oct_04_1616,59.9700514159,FEMA4ImagesEEG,001,101839,
AFNE01.JPG,AFNE01.JPG,AFNE01.JPG,AFNE01.JPG,AFNE01.JPG,AFNE01.JPG,,,,,,,,,2,1,21,2,,,,,,,,,,,,,,,AFSA14.jpg,AFNE05.jpg,AFNE04.jpg,AFSA18.jpg,AFSA14.jpg,FS,4,num_8,16,num_8,4.2165355,,,2017_Oct_04_1616,59.9700514159,FEMA4ImagesEEG,001,101839,
AFNE01.JPG,AFNE01.JPG,AFNE01.JPG,AFNE01.JPG,AFNE01.JPG,AFNE01.JPG,,,,,,,,,2,2,22,5,,,,,,,,,,,,,,,AFSA07.jpg,AFNE05.jpg,AFNE04.jpg,AFSA16.jpg,AFNE05.jpg,FN,3,num_6,16,num_6,0.566820910593,,,2017_Oct_04_1616,59.9700514159,FEMA4ImagesEEG,001,101839,
AFNE01.JPG,AFNE01.JPG,AFNE01.JPG,AFNE01.JPG,AFNE01.JPG,AFNE01.JPG,,,,,,,,,2,3,23,4,,,,,,,,,,,,,,,AFSA07.jpg,AFNE06.jpg,AFNE14.jpg,AFSA10.jpg,AFSA07.jpg,FS,4,num_8,16,num_8,0.716816628716,,,2017_Oct_04_1616,59.9700514159,FEMA4ImagesEEG,001,101839,
AFNE01.JPG,AFNE01.JPG,AFNE01.JPG,AFNE01.JPG,AFNE01.JPG,AFNE01.JPG,,,,,,,,,2,4,24,1,,,,,,,,,,,,,,,AFSA12.jpg,AFNE10.jpg,AFNE09.jpg,AFSA10.jpg,AFNE09.jpg,FN,3,num_2,16,num_2,0.566819627624,,,2017_Oct_04_1616,59.9700514159,FEMA4ImagesEEG,001,101839,
AFNE01.JPG,AFNE01.JPG,AFNE01.JPG,AFNE01.JPG,AFNE01.JPG,AFNE01.JPG,,,,,,,,,2,5,25,0,,,,,,,,,,,,,,,AFNE20.jpg,AFSA14.jpg,AFSA06.jpg,AFNE15.jpg,AFNE20.jpg,FN,3,num_8,32,num_4,0.733488379105,,,2017_Oct_04_1616,59.9700514159,FEMA4ImagesEEG,001,101839,
AFNE01.JPG,AFNE01.JPG,AFNE01.JPG,AFNE01.JPG,AFNE01.JPG,AFNE01.JPG,,,,,,,,,2,6,26,8,,,,,,,,,,,,,,,AFNE19.jpg,AFSA15.jpg,AFNE13.jpg,AFSA17.jpg,AFSA15.jpg,FS,4,num_6,16,num_6,0.650172606285,,,2017_Oct_04_1616,59.9700514159,FEMA4ImagesEEG,001,101839,
AFNE01.JPG,AFNE01.JPG,AFNE01.JPG,AFNE01.JPG,AFNE01.JPG,AFNE01.JPG,,,,,,,,,2,7,27,9,,,,,,,,,,,,,,,AFSA17.jpg,AFNE08.jpg,AFSA20.jpg,AFNE20.jpg,AFSA17.jpg,FS,4,num_8,16,num_8,0.583444229225,,,2017_Oct_04_1616,59.9700514159,FEMA4ImagesEEG,001,101839,
AFNE01.JPG,AFNE01.JPG,AFNE01.JPG,AFNE01.JPG,AFNE01.JPG,AFNE01.JPG,,,,,,,,,2,8,28,7,,,,,,,,,,,,,,,AFNE06.jpg,AFSA08.jpg,AFNE07.jpg,AFSA01.jpg,AFNE06.jpg,FN,3,num_8,32,num_2,0.35005960954,,,2017_Oct_04_1616,59.9700514159,FEMA4ImagesEEG,001,101839,
AFNE01.JPG,AFNE01.JPG,AFNE01.JPG,AFNE01.JPG,AFNE01.JPG,AFNE01.JPG,,,,,,,,,2,9,29,6,,,,,,,,,,,,,,,AFNE04.jpg,AFNE02.jpg,AFSA09.jpg,AFSA05.jpg,AFNE04.jpg,FN,3,num_8,16,num_8,0.366911936624,,,2017_Oct_04_1616,59.9700514159,FEMA4ImagesEEG,001,101839,
AFNE01.JPG,AFNE01.JPG,AFNE01.JPG,AFNE01.JPG,AFNE01.JPG,AFNE01.JPG,,,,,,,,,3,0,30,6,,,,,,,,,,,,,,,AFNE14.jpg,AFSA16.jpg,AFNE13.jpg,AFSA01.jpg,AFSA16.jpg,FS,4,num_6,16,num_6,0.566923547434,,,2017_Oct_04_1616,59.9700514159,FEMA4ImagesEEG,001,101839,
AFNE01.JPG,AFNE01.JPG,AFNE01.JPG,AFNE01.JPG,AFNE01.JPG,AFNE01.JPG,,,,,,,,,3,1,31,3,,,,,,,,,,,,,,,AFSA01.jpg,AFSA11.jpg,AFNE17.jpg,AFNE05.jpg,AFSA11.jpg,FS,4,num_6,32,num_4,0.466799068192,,,2017_Oct_04_1616,59.9700514159,FEMA4ImagesEEG,001,101839,
AFNE01.JPG,AFNE01.JPG,AFNE01.JPG,AFNE01.JPG,AFNE01.JPG,AFNE01.JPG,,,,,,,,,3,2,32,1,,,,,,,,,,,,,,,AFSA07.jpg,AFSA06.jpg,AFNE06.jpg,AFNE04.jpg,AFNE06.jpg,FN,3,num_2,16,num_2,1.10015494954,,,2017_Oct_04_1616,59.9700514159,FEMA4ImagesEEG,001,101839,
AFNE01.JPG,AFNE01.JPG,AFNE01.JPG,AFNE01.JPG,AFNE01.JPG,AFNE01.JPG,,,,,,,,,3,3,33,4,,,,,,,,,,,,,,,AFSA03.jpg,AFNE16.jpg,AFSA15.jpg,AFNE04.jpg,AFSA15.jpg,FS,4,num_2,32,num_4,0.800484253428,,,2017_Oct_04_1616,59.9700514159,FEMA4ImagesEEG,001,101839,
AFNE01.JPG,AFNE01.JPG,AFNE01.JPG,AFNE01.JPG,AFNE01.JPG,AFNE01.JPG,,,,,,,,,3,4,34,0,,,,,,,,,,,,,,,AFNE09.jpg,AFSA12.jpg,AFSA17.jpg,AFNE17.jpg,AFSA17.jpg,FS,4,num_2,32,num_8,1.16678165199,,,2017_Oct_04_1616,59.9700514159,FEMA4ImagesEEG,001,101839,
AFNE01.JPG,AFNE01.JPG,AFNE01.JPG,AFNE01.JPG,AFNE01.JPG,AFNE01.JPG,,,,,,,,,3,5,35,8,,,,,,,,,,,,,,,AFNE19.jpg,AFSA06.jpg,AFSA18.jpg,AFNE05.jpg,AFSA06.jpg,FS,4,num_6,32,num_8,1.24998965612,,,2017_Oct_04_1616,59.9700514159,FEMA4ImagesEEG,001,101839,
AFNE01.JPG,AFNE01.JPG,AFNE01.JPG,AFNE01.JPG,AFNE01.JPG,AFNE01.JPG,,,,,,,,,3,6,36,9,,,,,,,,,,,,,,,AFSA10.jpg,AFNE06.jpg,AFNE17.jpg,AFSA12.jpg,AFSA12.jpg,FS,4,num_4,32,num_2,1.03345960871,,,2017_Oct_04_1616,59.9700514159,FEMA4ImagesEEG,001,101839,
AFNE01.JPG,AFNE01.JPG,AFNE01.JPG,AFNE01.JPG,AFNE01.JPG,AFNE01.JPG,,,,,,,,,3,7,37,2,,,,,,,,,,,,,,,AFNE09.jpg,AFSA18.jpg,AFSA04.jpg,AFNE01.jpg,AFSA04.jpg,FS,4,num_2,32,num_6,1.91656234594,,,2017_Oct_04_1616,59.9700514159,FEMA4ImagesEEG,001,101839,
AFNE01.JPG,AFNE01.JPG,AFNE01.JPG,AFNE01.JPG,AFNE01.JPG,AFNE01.JPG,,,,,,,,,3,8,38,7,,,,,,,,,,,,,,,AFSA20.jpg,AFSA02.jpg,AFNE14.jpg,AFNE04.jpg,AFSA02.jpg,FS,4,num_6,32,num_2,1.28346947148,,,2017_Oct_04_1616,59.9700514159,FEMA4ImagesEEG,001,101839,
AFNE01.JPG,AFNE01.JPG,AFNE01.JPG,AFNE01.JPG,AFNE01.JPG,AFNE01.JPG,,,,,,,,,3,9,39,5,,,,,,,,,,,,,,,AFSA02.jpg,AFSA15.jpg,AFNE12.jpg,AFNE07.jpg,AFSA15.jpg,FS,4,num_6,32,num_4,1.16677074684,,,2017_Oct_04_1616,59.9700514159,FEMA4ImagesEEG,001,101839,
AFNE01.JPG,AFNE01.JPG,AFNE01.JPG,AFNE01.JPG,AFNE01.JPG,AFNE01.JPG,,,,,,,,,4,0,40,9,,,,,,,,,,,,,,,AFNE07.jpg,AFNE17.jpg,AFSA03.jpg,AFSA14.jpg,AFSA14.jpg,FS,4,num_4,16,num_4,0.950104384872,,,2017_Oct_04_1616,59.9700514159,FEMA4ImagesEEG,001,101839,
AFNE01.JPG,AFNE01.JPG,AFNE01.JPG,AFNE01.JPG,AFNE01.JPG,AFNE01.JPG,,,,,,,,,4,1,41,7,,,,,,,,,,,,,,,AFSA16.jpg,AFNE09.jpg,AFSA04.jpg,AFNE07.jpg,AFSA16.jpg,FS,4,num_8,16,num_8,1.35007789174,,,2017_Oct_04_1616,59.9700514159,FEMA4ImagesEEG,001,101839,
AFNE01.JPG,AFNE01.JPG,AFNE01.JPG,AFNE01.JPG,AFNE01.JPG,AFNE01.JPG,,,,,,,,,4,2,42,0,,,,,,,,,,,,,,,AFNE11.jpg,AFSA12.jpg,AFNE13.jpg,AFSA06.jpg,AFSA12.jpg,FS,4,num_6,32,num_2,2.21667085231,,,2017_Oct_04_1616,59.9700514159,FEMA4ImagesEEG,001,101839,
AFNE01.JPG,AFNE01.JPG,AFNE01.JPG,AFNE01.JPG,AFNE01.JPG,AFNE01.JPG,,,,,,,,,4,3,43,5,,,,,,,,,,,,,,,AFSA06.jpg,AFNE15.jpg,AFNE14.jpg,AFSA15.jpg,AFNE15.jpg,FN,3,num_6,32,num_2,2.98330964668,,,2017_Oct_04_1616,59.9700514159,FEMA4ImagesEEG,001,101839,
AFNE01.JPG,AFNE01.JPG,AFNE01.JPG,AFNE01.JPG,AFNE01.JPG,AFNE01.JPG,,,,,,,,,4,4,44,6,,,,,,,,,,,,,,,AFNE15.jpg,AFSA14.jpg,AFNE11.jpg,AFSA01.jpg,AFSA01.jpg,FS,4,num_4,32,num_2,1.08346331326,,,2017_Oct_04_1616,59.9700514159,FEMA4ImagesEEG,001,101839,
AFNE01.JPG,AFNE01.JPG,AFNE01.JPG,AFNE01.JPG,AFNE01.JPG,AFNE01.JPG,,,,,,,,,4,5,45,3,,,,,,,,,,,,,,,AFSA16.jpg,AFNE04.jpg,AFNE11.jpg,AFSA12.jpg,AFSA16.jpg,FS,4,num_8,32,num_6,2.08335073349,,,2017_Oct_04_1616,59.9700514159,FEMA4ImagesEEG,001,101839,
AFNE01.JPG,AFNE01.JPG,AFNE01.JPG,AFNE01.JPG,AFNE01.JPG,AFNE01.JPG,,,,,,,,,4,6,46,4,,,,,,,,,,,,,,,AFNE08.jpg,AFNE04.jpg,AFSA10.jpg,AFSA07.jpg,AFNE04.jpg,FN,3,num_6,32,num_8,1.41667219944,,,2017_Oct_04_1616,59.9700514159,FEMA4ImagesEEG,001,101839,
AFNE01.JPG,AFNE01.JPG,AFNE01.JPG,AFNE01.JPG,AFNE01.JPG,AFNE01.JPG,,,,,,,,,4,7,47,2,,,,,,,,,,,,,,,AFNE17.jpg,AFSA04.jpg,AFSA08.jpg,AFNE11.jpg,AFNE17.jpg,FN,3,num_8,32,num_4,0.58345064403,,,2017_Oct_04_1616,59.9700514159,FEMA4ImagesEEG,001,101839,
AFNE01.JPG,AFNE01.JPG,AFNE01.JPG,AFNE01.JPG,AFNE01.JPG,AFNE01.JPG,,,,,,,,,4,8,48,1,,,,,,,,,,,,,,,AFSA09.jpg,AFSA02.jpg,AFNE16.jpg,AFNE15.jpg,AFSA09.jpg,FS,4,num_8,32,num_2,0.783497536235,,,2017_Oct_04_1616,59.9700514159,FEMA4ImagesEEG,001,101839,
AFNE01.JPG,AFNE01.JPG,AFNE01.JPG,AFNE01.JPG,AFNE01.JPG,AFNE01.JPG,,,,,,,,,4,9,49,8,,,,,,,,,,,,,,,AFSA08.jpg,AFNE19.jpg,AFSA09.jpg,AFNE11.jpg,AFNE19.jpg,FN,3,num_6,32,num_8,0.716813421299,,,2017_Oct_04_1616,59.9700514159,FEMA4ImagesEEG,001,101839,
AFNE01.JPG,AFNE01.JPG,AFNE01.JPG,AFNE01.JPG,AFNE01.JPG,AFNE01.JPG,,,,,,,,,5,0,50,4,,,,,,,,,,,,,,,AFSA08.jpg,AFNE12.jpg,AFSA06.jpg,AFNE07.jpg,AFNE07.jpg,FN,3,num_4,32,num_2,0.716802195413,,,2017_Oct_04_1616,59.9700514159,FEMA4ImagesEEG,001,101839,
AFNE01.JPG,AFNE01.JPG,AFNE01.JPG,AFNE01.JPG,AFNE01.JPG,AFNE01.JPG,,,,,,,,,5,1,51,1,,,,,,,,,,,,,,,AFSA06.jpg,AFSA15.jpg,AFNE11.jpg,AFNE18.jpg,AFNE11.jpg,FN,3,num_2,32,num_6,0.73335655492,,,2017_Oct_04_1616,59.9700514159,FEMA4ImagesEEG,001,101839,
AFNE01.JPG,AFNE01.JPG,AFNE01.JPG,AFNE01.JPG,AFNE01.JPG,AFNE01.JPG,,,,,,,,,5,2,52,7,,,,,,,,,,,,,,,AFSA09.jpg,AFNE06.jpg,AFNE05.jpg,AFSA16.jpg,AFNE06.jpg,FN,3,num_6,32,num_4,0.81678394528,,,2017_Oct_04_1616,59.9700514159,FEMA4ImagesEEG,001,101839,
AFNE01.JPG,AFNE01.JPG,AFNE01.JPG,AFNE01.JPG,AFNE01.JPG,AFNE01.JPG,,,,,,,,,5,3,53,2,,,,,,,,,,,,,,,AFSA02.jpg,AFNE20.jpg,AFNE12.jpg,AFSA18.jpg,AFSA18.jpg,FS,4,num_4,32,num_2,0.750118433294,,,2017_Oct_04_1616,59.9700514159,FEMA4ImagesEEG,001,101839,
AFNE01.JPG,AFNE01.JPG,AFNE01.JPG,AFNE01.JPG,AFNE01.JPG,AFNE01.JPG,,,,,,,,,5,4,54,6,,,,,,,,,,,,,,,AFNE15.jpg,AFNE11.jpg,AFSA14.jpg,AFSA01.jpg,AFNE15.jpg,FN,3,num_8,16,num_8,0.550134406149,,,2017_Oct_04_1616,59.9700514159,FEMA4ImagesEEG,001,101839,
AFNE01.JPG,AFNE01.JPG,AFNE01.JPG,AFNE01.JPG,AFNE01.JPG,AFNE01.JPG,,,,,,,,,5,5,55,3,,,,,,,,,,,,,,,AFSA14.jpg,AFNE05.jpg,AFNE13.jpg,AFSA13.jpg,AFSA14.jpg,FS,4,num_8,32,num_6,1.96678030489,,,2017_Oct_04_1616,59.9700514159,FEMA4ImagesEEG,001,101839,
AFNE01.JPG,AFNE01.JPG,AFNE01.JPG,AFNE01.JPG,AFNE01.JPG,AFNE01.JPG,,,,,,,,,5,6,56,9,,,,,,,,,,,,,,,AFSA11.jpg,AFSA14.jpg,AFNE06.jpg,AFNE05.jpg,AFNE06.jpg,FN,3,num_2,16,num_2,1.60008518856,,,2017_Oct_04_1616,59.9700514159,FEMA4ImagesEEG,001,101839,
AFNE01.JPG,AFNE01.JPG,AFNE01.JPG,AFNE01.JPG,AFNE01.JPG,AFNE01.JPG,,,,,,,,,5,7,57,8,,,,,,,,,,,,,,,AFSA07.jpg,AFSA17.jpg,AFNE01.jpg,AFNE09.jpg,AFNE01.jpg,FN,3,num_2,32,num_4,0.883428929927,,,2017_Oct_04_1616,59.9700514159,FEMA4ImagesEEG,001,101839,
AFNE01.JPG,AFNE01.JPG,AFNE01.JPG,AFNE01.JPG,AFNE01.JPG,AFNE01.JPG,,,,,,,,,5,8,58,5,,,,,,,,,,,,,,,AFNE10.jpg,AFSA17.jpg,AFNE02.jpg,AFSA07.jpg,AFSA07.jpg,FS,4,num_4,32,num_6,0.416781251071,,,2017_Oct_04_1616,59.9700514159,FEMA4ImagesEEG,001,101839,
AFNE01.JPG,AFNE01.JPG,AFNE01.JPG,AFNE01.JPG,AFNE01.JPG,AFNE01.JPG,,,,,,,,,5,9,59,0,,,,,,,,,,,,,,,AFNE17.jpg,AFSA20.jpg,AFSA04.jpg,AFNE16.jpg,AFSA20.jpg,FS,4,num_6,32,num_8,0.466794257081,,,2017_Oct_04_1616,59.9700514159,FEMA4ImagesEEG,001,101839,
,,,,,,,,,,,,,,,,,,,,,,,,,,,,,,,,,,,,,,,,,,,space,5.71637689402,2017_Oct_04_1616,59.9700514159,FEMA4ImagesEEG,001,101839,
AFNE01.JPG,AFNE01.JPG,AFNE01.JPG,AFNE01.JPG,AFNE01.JPG,AFNE01.JPG,,,,,,,,,,,,,0,0,0,5,,,,,,,,,,,AMSA05.jpg,AMSA12.jpg,AMNE08.jpg,AMNE05.jpg,AMSA12.jpg,MS,2,num_6,32,num_8,0.750117150325,,,2017_Oct_04_1616,59.9700514159,FEMA4ImagesEEG,001,101839,
AFNE01.JPG,AFNE01.JPG,AFNE01.JPG,AFNE01.JPG,AFNE01.JPG,AFNE01.JPG,,,,,,,,,,,,,0,1,1,3,,,,,,,,,,,AMSA02.jpg,AMNE16.jpg,AMNE07.jpg,AMSA18.jpg,AMSA18.jpg,MS,2,num_4,16,num_4,0.333503004847,,,2017_Oct_04_1616,59.9700514159,FEMA4ImagesEEG,001,101839,
AFNE01.JPG,AFNE01.JPG,AFNE01.JPG,AFNE01.JPG,AFNE01.JPG,AFNE01.JPG,,,,,,,,,,,,,0,2,2,9,,,,,,,,,,,AMSA03.jpg,AMNE17.jpg,AMSA08.jpg,AMNE08.jpg,AMSA08.jpg,MS,2,num_2,32,num_6,0.400191930894,,,2017_Oct_04_1616,59.9700514159,FEMA4ImagesEEG,001,101839,
AFNE01.JPG,AFNE01.JPG,AFNE01.JPG,AFNE01.JPG,AFNE01.JPG,AFNE01.JPG,,,,,,,,,,,,,0,3,3,4,,,,,,,,,,,AMSA03.jpg,AMNE13.jpg,AMSA19.jpg,AMNE15.jpg,AMSA19.jpg,MS,2,num_2,32,num_8,0.400165309446,,,2017_Oct_04_1616,59.9700514159,FEMA4ImagesEEG,001,101839,
AFNE01.JPG,AFNE01.JPG,AFNE01.JPG,AFNE01.JPG,AFNE01.JPG,AFNE01.JPG,,,,,,,,,,,,,0,4,4,7,,,,,,,,,,,AMSA14.jpg,AMNE20.jpg,AMNE12.jpg,AMSA07.jpg,AMNE20.jpg,MN,1,num_6,32,num_2,0.366836562695,,,2017_Oct_04_1616,59.9700514159,FEMA4ImagesEEG,001,101839,
AFNE01.JPG,AFNE01.JPG,AFNE01.JPG,AFNE01.JPG,AFNE01.JPG,AFNE01.JPG,,,,,,,,,,,,,0,5,5,1,,,,,,,,,,,AMNE06.jpg,AMSA09.jpg,AMSA10.jpg,AMNE20.jpg,AMNE06.jpg,MN,1,num_8,32,num_4,0.400016806772,,,2017_Oct_04_1616,59.9700514159,FEMA4ImagesEEG,001,101839,
AFNE01.JPG,AFNE01.JPG,AFNE01.JPG,AFNE01.JPG,AFNE01.JPG,AFNE01.JPG,,,,,,,,,,,,,0,6,6,6,,,,,,,,,,,AMSA13.jpg,AMNE10.jpg,AMNE11.jpg,AMSA20.jpg,AMNE10.jpg,MN,1,num_6,16,num_6,0.450173183621,,,2017_Oct_04_1616,59.9700514159,FEMA4ImagesEEG,001,101839,
AFNE01.JPG,AFNE01.JPG,AFNE01.JPG,AFNE01.JPG,AFNE01.JPG,AFNE01.JPG,,,,,,,,,,,,,0,7,7,8,,,,,,,,,,,AMSA18.jpg,AMNE12.jpg,AMNE11.jpg,AMSA05.jpg,AMNE11.jpg,MN,1,num_2,32,num_4,0.483478516355,,,2017_Oct_04_1616,59.9700514159,FEMA4ImagesEEG,001,101839,
AFNE01.JPG,AFNE01.JPG,AFNE01.JPG,AFNE01.JPG,AFNE01.JPG,AFNE01.JPG,,,,,,,,,,,,,0,8,8,0,,,,,,,,,,,AMNE20.jpg,AMNE03.jpg,AMSA14.jpg,AMSA12.jpg,AMSA12.jpg,MS,2,num_4,32,num_6,0.316769993093,,,2017_Oct_04_1616,59.9700514159,FEMA4ImagesEEG,001,101839,
AFNE01.JPG,AFNE01.JPG,AFNE01.JPG,AFNE01.JPG,AFNE01.JPG,AFNE01.JPG,,,,,,,,,,,,,0,9,9,2,,,,,,,,,,,AMSA09.jpg,AMSA07.jpg,AMNE08.jpg,AMNE20.jpg,AMSA09.jpg,MS,2,num_8,32,num_6,1.64990254313,,,2017_Oct_04_1616,59.9700514159,FEMA4ImagesEEG,001,101839,
AFNE01.JPG,AFNE01.JPG,AFNE01.JPG,AFNE01.JPG,AFNE01.JPG,AFNE01.JPG,,,,,,,,,,,,,1,0,10,7,,,,,,,,,,,AMSA10.jpg,AMNE13.jpg,AMSA20.jpg,AMNE09.jpg,AMSA10.jpg,MS,2,num_8,32,num_4,1.89992780139,,,2017_Oct_04_1616,59.9700514159,FEMA4ImagesEEG,001,101839,
AFNE01.JPG,AFNE01.JPG,AFNE01.JPG,AFNE01.JPG,AFNE01.JPG,AFNE01.JPG,,,,,,,,,,,,,1,1,11,4,,,,,,,,,,,AMSA18.jpg,AMSA13.jpg,AMNE15.jpg,AMNE02.jpg,AMSA13.jpg,MS,2,num_6,32,num_2,0.466757051239,,,2017_Oct_04_1616,59.9700514159,FEMA4ImagesEEG,001,101839,
AFNE01.JPG,AFNE01.JPG,AFNE01.JPG,AFNE01.JPG,AFNE01.JPG,AFNE01.JPG,,,,,,,,,,,,,1,2,12,6,,,,,,,,,,,AMSA03.jpg,AMSA17.jpg,AMNE19.jpg,AMNE01.jpg,AMSA03.jpg,MS,2,num_8,16,num_8,0.633484177408,,,2017_Oct_04_1616,59.9700514159,FEMA4ImagesEEG,001,101839,
AFNE01.JPG,AFNE01.JPG,AFNE01.JPG,AFNE01.JPG,AFNE01.JPG,AFNE01.JPG,,,,,,,,,,,,,1,3,13,2,,,,,,,,,,,AMNE12.jpg,AMNE11.jpg,AMSA09.jpg,AMSA16.jpg,AMNE12.jpg,MN,1,num_8,32,num_2,0.650160418169,,,2017_Oct_04_1616,59.9700514159,FEMA4ImagesEEG,001,101839,
AFNE01.JPG,AFNE01.JPG,AFNE01.JPG,AFNE01.JPG,AFNE01.JPG,AFNE01.JPG,,,,,,,,,,,,,1,4,14,5,,,,,,,,,,,AMNE01.jpg,AMSA09.jpg,AMSA07.jpg,AMNE20.jpg,AMNE20.jpg,MN,1,num_4,16,num_4,0.283520148412,,,2017_Oct_04_1616,59.9700514159,FEMA4ImagesEEG,001,101839,
AFNE01.JPG,AFNE01.JPG,AFNE01.JPG,AFNE01.JPG,AFNE01.JPG,AFNE01.JPG,,,,,,,,,,,,,1,5,15,0,,,,,,,,,,,AMSA12.jpg,AMSA01.jpg,AMNE01.jpg,AMNE03.jpg,AMNE03.jpg,MN,1,num_4,32,num_8,0.666774435347,,,2017_Oct_04_1616,59.9700514159,FEMA4ImagesEEG,001,101839,
AFNE01.JPG,AFNE01.JPG,AFNE01.JPG,AFNE01.JPG,AFNE01.JPG,AFNE01.JPG,,,,,,,,,,,,,1,6,16,9,,,,,,,,,,,AMNE12.jpg,AMNE08.jpg,AMSA19.jpg,AMSA14.jpg,AMNE12.jpg,MN,1,num_8,16,num_8,0.866748519533,,,2017_Oct_04_1616,59.9700514159,FEMA4ImagesEEG,001,101839,
AFNE01.JPG,AFNE01.JPG,AFNE01.JPG,AFNE01.JPG,AFNE01.JPG,AFNE01.JPG,,,,,,,,,,,,,1,7,17,3,,,,,,,,,,,AMSA01.jpg,AMNE08.jpg,AMSA14.jpg,AMNE09.jpg,AMSA14.jpg,MS,2,num_2,16,num_2,1.15000822698,,,2017_Oct_04_1616,59.9700514159,FEMA4ImagesEEG,001,101839,
AFNE01.JPG,AFNE01.JPG,AFNE01.JPG,AFNE01.JPG,AFNE01.JPG,AFNE01.JPG,,,,,,,,,,,,,1,8,18,1,,,,,,,,,,,AMSA14.jpg,AMNE01.jpg,AMSA20.jpg,AMNE09.jpg,AMNE09.jpg,MN,1,num_4,16,num_4,1.43340072084,,,2017_Oct_04_1616,59.9700514159,FEMA4ImagesEEG,001,101839,
AFNE01.JPG,AFNE01.JPG,AFNE01.JPG,AFNE01.JPG,AFNE01.JPG,AFNE01.JPG,,,,,,,,,,,,,1,9,19,8,,,,,,,,,,,AMNE04.jpg,AMSA12.jpg,AMNE16.jpg,AMSA10.jpg,AMNE16.jpg,MN,1,num_2,32,num_6,0.483158417701,,,2017_Oct_04_1616,59.9700514159,FEMA4ImagesEEG,001,101839,
AFNE01.JPG,AFNE01.JPG,AFNE01.JPG,AFNE01.JPG,AFNE01.JPG,AFNE01.JPG,,,,,,,,,,,,,2,0,20,7,,,,,,,,,,,AMNE06.jpg,AMNE11.jpg,AMSA20.jpg,AMSA10.jpg,AMNE11.jpg,MN,1,num_6,32,num_4,1.56670063305,,,2017_Oct_04_1616,59.9700514159,FEMA4ImagesEEG,001,101839,
AFNE01.JPG,AFNE01.JPG,AFNE01.JPG,AFNE01.JPG,AFNE01.JPG,AFNE01.JPG,,,,,,,,,,,,,2,1,21,9,,,,,,,,,,,AMNE06.jpg,AMSA07.jpg,AMSA02.jpg,AMNE18.jpg,AMNE18.jpg,MN,1,num_4,32,num_2,0.816507146577,,,2017_Oct_04_1616,59.9700514159,FEMA4ImagesEEG,001,101839,
AFNE01.JPG,AFNE01.JPG,AFNE01.JPG,AFNE01.JPG,AFNE01.JPG,AFNE01.JPG,,,,,,,,,,,,,2,2,22,5,,,,,,,,,,,AMSA13.jpg,AMNE14.jpg,AMSA16.jpg,AMNE04.jpg,AMNE04.jpg,MN,1,num_4,32,num_6,0.716830099787,,,2017_Oct_04_1616,59.9700514159,FEMA4ImagesEEG,001,101839,
AFNE01.JPG,AFNE01.JPG,AFNE01.JPG,AFNE01.JPG,AFNE01.JPG,AFNE01.JPG,,,,,,,,,,,,,2,3,23,8,,,,,,,,,,,AMNE05.jpg,AMSA13.jpg,AMNE09.jpg,AMSA17.jpg,AMNE05.jpg,MN,1,num_8,32,num_4,0.633481290744,,,2017_Oct_04_1616,59.9700514159,FEMA4ImagesEEG,001,101839,
AFNE01.JPG,AFNE01.JPG,AFNE01.JPG,AFNE01.JPG,AFNE01.JPG,AFNE01.JPG,,,,,,,,,,,,,2,4,24,2,,,,,,,,,,,AMSA13.jpg,AMNE10.jpg,AMSA12.jpg,AMNE13.jpg,AMSA13.jpg,MS,2,num_8,32,num_2,0.78347604665,,,2017_Oct_04_1616,59.9700514159,FEMA4ImagesEEG,001,101839,
AFNE01.JPG,AFNE01.JPG,AFNE01.JPG,AFNE01.JPG,AFNE01.JPG,AFNE01.JPG,,,,,,,,,,,,,2,5,25,4,,,,,,,,,,,AMSA03.jpg,AMNE06.jpg,AMSA10.jpg,AMNE01.jpg,AMSA03.jpg,MS,2,num_8,16,num_8,1.14999411441,,,2017_Oct_04_1616,59.9700514159,FEMA4ImagesEEG,001,101839,
AFNE01.JPG,AFNE01.JPG,AFNE01.JPG,AFNE01.JPG,AFNE01.JPG,AFNE01.JPG,,,,,,,,,,,,,2,6,26,0,,,,,,,,,,,AMSA18.jpg,AMSA15.jpg,AMNE11.jpg,AMNE15.jpg,AMNE11.jpg,MN,1,num_2,32,num_4,1.9000285138,,,2017_Oct_04_1616,59.9700514159,FEMA4ImagesEEG,001,101839,
AFNE01.JPG,AFNE01.JPG,AFNE01.JPG,AFNE01.JPG,AFNE01.JPG,AFNE01.JPG,,,,,,,,,,,,,2,7,27,1,,,,,,,,,,,AMSA05.jpg,AMSA19.jpg,AMNE16.jpg,AMNE05.jpg,AMNE16.jpg,MN,1,num_2,32,num_4,1.16669890106,,,2017_Oct_04_1616,59.9700514159,FEMA4ImagesEEG,001,101839,
AFNE01.JPG,AFNE01.JPG,AFNE01.JPG,AFNE01.JPG,AFNE01.JPG,AFNE01.JPG,,,,,,,,,,,,,2,8,28,3,,,,,,,,,,,AMNE02.jpg,AMSA08.jpg,AMNE07.jpg,AMSA10.jpg,AMNE02.jpg,MN,1,num_8,32,num_2,0.683468316813,,,2017_Oct_04_1616,59.9700514159,FEMA4ImagesEEG,001,101839,
AFNE01.JPG,AFNE01.JPG,AFNE01.JPG,AFNE01.JPG,AFNE01.JPG,AFNE01.JPG,,,,,,,,,,,,,2,9,29,6,,,,,,,,,,,AMSA18.jpg,AMNE06.jpg,AMNE20.jpg,AMSA06.jpg,AMSA06.jpg,MS,2,num_4,16,num_4,1.13346124449,,,2017_Oct_04_1616,59.9700514159,FEMA4ImagesEEG,001,101839,
AFNE01.JPG,AFNE01.JPG,AFNE01.JPG,AFNE01.JPG,AFNE01.JPG,AFNE01.JPG,,,,,,,,,,,,,3,0,30,7,,,,,,,,,,,AMSA14.jpg,AMNE09.jpg,AMNE13.jpg,AMSA09.jpg,AMSA14.jpg,MS,2,num_8,16,num_8,0.466871555458,,,2017_Oct_04_1616,59.9700514159,FEMA4ImagesEEG,001,101839,
AFNE01.JPG,AFNE01.JPG,AFNE01.JPG,AFNE01.JPG,AFNE01.JPG,AFNE01.JPG,,,,,,,,,,,,,3,1,31,2,,,,,,,,,,,AMNE16.jpg,AMNE03.jpg,AMSA09.jpg,AMSA19.jpg,AMNE03.jpg,MN,1,num_6,16,num_6,0.850143803822,,,2017_Oct_04_1616,59.9700514159,FEMA4ImagesEEG,001,101839,
AFNE01.JPG,AFNE01.JPG,AFNE01.JPG,AFNE01.JPG,AFNE01.JPG,AFNE01.JPG,,,,,,,,,,,,,3,2,32,6,,,,,,,,,,,AMSA09.jpg,AMNE16.jpg,AMSA15.jpg,AMNE03.jpg,AMNE16.jpg,MN,1,num_6,32,num_4,0.850058166223,,,2017_Oct_04_1616,59.9700514159,FEMA4ImagesEEG,001,101839,
AFNE01.JPG,AFNE01.JPG,AFNE01.JPG,AFNE01.JPG,AFNE01.JPG,AFNE01.JPG,,,,,,,,,,,,,3,3,33,5,,,,,,,,,,,AMSA20.jpg,AMSA04.jpg,AMNE08.jpg,AMNE14.jpg,AMSA20.jpg,MS,2,num_8,16,num_8,0.633498931464,,,2017_Oct_04_1616,59.9700514159,FEMA4ImagesEEG,001,101839,
AFNE01.JPG,AFNE01.JPG,AFNE01.JPG,AFNE01.JPG,AFNE01.JPG,AFNE01.JPG,,,,,,,,,,,,,3,4,34,3,,,,,,,,,,,AMNE16.jpg,AMSA12.jpg,AMSA09.jpg,AMNE03.jpg,AMSA09.jpg,MS,2,num_2,32,num_6,0.766768373345,,,2017_Oct_04_1616,59.9700514159,FEMA4ImagesEEG,001,101839,
AFNE01.JPG,AFNE01.JPG,AFNE01.JPG,AFNE01.JPG,AFNE01.JPG,AFNE01.JPG,,,,,,,,,,,,,3,5,35,9,,,,,,,,,,,AMNE12.jpg,AMNE15.jpg,AMSA03.jpg,AMSA10.jpg,AMSA10.jpg,MS,2,num_4,32,num_8,0.683734210368,,,2017_Oct_04_1616,59.9700514159,FEMA4ImagesEEG,001,101839,
AFNE01.JPG,AFNE01.JPG,AFNE01.JPG,AFNE01.JPG,AFNE01.JPG,AFNE01.JPG,,,,,,,,,,,,,3,6,36,1,,,,,,,,,,,AMNE02.jpg,AMNE08.jpg,AMSA02.jpg,AMSA16.jpg,AMNE02.jpg,MN,1,num_8,32,num_2,0.733449569554,,,2017_Oct_04_1616,59.9700514159,FEMA4ImagesEEG,001,101839,
AFNE01.JPG,AFNE01.JPG,AFNE01.JPG,AFNE01.JPG,AFNE01.JPG,AFNE01.JPG,,,,,,,,,,,,,3,7,37,0,,,,,,,,,,,AMSA06.jpg,AMNE03.jpg,AMNE04.jpg,AMSA02.jpg,AMNE04.jpg,MN,1,num_2,32,num_6,0.300232632813,,,2017_Oct_04_1616,59.9700514159,FEMA4ImagesEEG,001,101839,
AFNE01.JPG,AFNE01.JPG,AFNE01.JPG,AFNE01.JPG,AFNE01.JPG,AFNE01.JPG,,,,,,,,,,,,,3,8,38,8,,,,,,,,,,,AMSA03.jpg,AMNE03.jpg,AMSA13.jpg,AMNE04.jpg,AMNE03.jpg,MN,1,num_6,32,num_2,0.566793647682,,,2017_Oct_04_1616,59.9700514159,FEMA4ImagesEEG,001,101839,
AFNE01.JPG,AFNE01.JPG,AFNE01.JPG,AFNE01.JPG,AFNE01.JPG,AFNE01.JPG,,,,,,,,,,,,,3,9,39,4,,,,,,,,,,,AMNE20.jpg,AMNE06.jpg,AMSA20.jpg,AMSA04.jpg,AMNE20.jpg,MN,1,num_8,16,num_8,0.316591982337,,,2017_Oct_04_1616,59.9700514159,FEMA4ImagesEEG,001,101839,
AFNE01.JPG,AFNE01.JPG,AFNE01.JPG,AFNE01.JPG,AFNE01.JPG,AFNE01.JPG,,,,,,,,,,,,,4,0,40,2,,,,,,,,,,,AMSA18.jpg,AMNE19.jpg,AMNE07.jpg,AMSA04.jpg,AMNE07.jpg,MN,1,num_2,32,num_6,0.983508826277,,,2017_Oct_04_1616,59.9700514159,FEMA4ImagesEEG,001,101839,
AFNE01.JPG,AFNE01.JPG,AFNE01.JPG,AFNE01.JPG,AFNE01.JPG,AFNE01.JPG,,,,,,,,,,,,,4,1,41,7,,,,,,,,,,,AMNE15.jpg,AMNE09.jpg,AMSA11.jpg,AMSA20.jpg,AMSA11.jpg,MS,2,num_2,16,num_2,0.966729627951,,,2017_Oct_04_1616,59.9700514159,FEMA4ImagesEEG,001,101839,
AFNE01.JPG,AFNE01.JPG,AFNE01.JPG,AFNE01.JPG,AFNE01.JPG,AFNE01.JPG,,,,,,,,,,,,,4,2,42,3,,,,,,,,,,,AMSA14.jpg,AMNE09.jpg,AMSA02.jpg,AMNE14.jpg,AMNE14.jpg,MN,1,num_4,32,num_2,2.01680261237,,,2017_Oct_04_1616,59.9700514159,FEMA4ImagesEEG,001,101839,
AFNE01.JPG,AFNE01.JPG,AFNE01.JPG,AFNE01.JPG,AFNE01.JPG,AFNE01.JPG,,,,,,,,,,,,,4,3,43,4,,,,,,,,,,,AMSA15.jpg,AMSA16.jpg,AMNE04.jpg,AMNE19.jpg,AMNE04.jpg,MN,1,num_2,32,num_8,1.50007328912,,,2017_Oct_04_1616,59.9700514159,FEMA4ImagesEEG,001,101839,
AFNE01.JPG,AFNE01.JPG,AFNE01.JPG,AFNE01.JPG,AFNE01.JPG,AFNE01.JPG,,,,,,,,,,,,,4,4,44,5,,,,,,,,,,,AMSA13.jpg,AMSA09.jpg,AMNE07.jpg,AMNE18.jpg,AMNE18.jpg,MN,1,num_4,32,num_6,0.616777787087,,,2017_Oct_04_1616,59.9700514159,FEMA4ImagesEEG,001,101839,
AFNE01.JPG,AFNE01.JPG,AFNE01.JPG,AFNE01.JPG,AFNE01.JPG,AFNE01.JPG,,,,,,,,,,,,,4,5,45,8,,,,,,,,,,,AMNE18.jpg,AMNE10.jpg,AMSA20.jpg,AMSA16.jpg,AMNE18.jpg,MN,1,num_8,32,num_4,0.383456032461,,,2017_Oct_04_1616,59.9700514159,FEMA4ImagesEEG,001,101839,
AFNE01.JPG,AFNE01.JPG,AFNE01.JPG,AFNE01.JPG,AFNE01.JPG,AFNE01.JPG,,,,,,,,,,,,,4,6,46,9,,,,,,,,,,,AMNE08.jpg,AMSA09.jpg,AMNE15.jpg,AMSA11.jpg,AMSA11.jpg,MS,2,num_4,32,num_2,0.466841405883,,,2017_Oct_04_1616,59.9700514159,FEMA4ImagesEEG,001,101839,
AFNE01.JPG,AFNE01.JPG,AFNE01.JPG,AFNE01.JPG,AFNE01.JPG,AFNE01.JPG,,,,,,,,,,,,,4,7,47,0,,,,,,,,,,,AMNE19.jpg,AMSA03.jpg,AMNE08.jpg,AMSA05.jpg,AMNE08.jpg,MN,1,num_2,32,num_4,0.4667984267,,,2017_Oct_04_1616,59.9700514159,FEMA4ImagesEEG,001,101839,
AFNE01.JPG,AFNE01.JPG,AFNE01.JPG,AFNE01.JPG,AFNE01.JPG,AFNE01.JPG,,,,,,,,,,,,,4,8,48,6,,,,,,,,,,,AMNE12.jpg,AMNE09.jpg,AMSA14.jpg,AMSA06.jpg,AMNE09.jpg,MN,1,num_6,16,num_6,0.366802884993,,,2017_Oct_04_1616,59.9700514159,FEMA4ImagesEEG,001,101839,
AFNE01.JPG,AFNE01.JPG,AFNE01.JPG,AFNE01.JPG,AFNE01.JPG,AFNE01.JPG,,,,,,,,,,,,,4,9,49,1,,,,,,,,,,,AMSA01.jpg,AMNE11.jpg,AMNE13.jpg,AMSA08.jpg,AMSA01.jpg,MS,2,num_8,32,num_2,1.00018250113,,,2017_Oct_04_1616,59.9700514159,FEMA4ImagesEEG,001,101839,
AFNE01.JPG,AFNE01.JPG,AFNE01.JPG,AFNE01.JPG,AFNE01.JPG,AFNE01.JPG,,,,,,,,,,,,,5,0,50,4,,,,,,,,,,,AMNE04.jpg,AMNE13.jpg,AMSA14.jpg,AMSA19.jpg,AMNE13.jpg,MN,1,num_6,32,num_2,1.08345112515,,,2017_Oct_04_1616,59.9700514159,FEMA4ImagesEEG,001,101839,
AFNE01.JPG,AFNE01.JPG,AFNE01.JPG,AFNE01.JPG,AFNE01.JPG,AFNE01.JPG,,,,,,,,,,,,,5,1,51,0,,,,,,,,,,,AMNE06.jpg,AMSA08.jpg,AMNE11.jpg,AMSA13.jpg,AMNE06.jpg,MN,1,num_8,32,num_4,0.816741928327,,,2017_Oct_04_1616,59.9700514159,FEMA4ImagesEEG,001,101839,
AFNE01.JPG,AFNE01.JPG,AFNE01.JPG,AFNE01.JPG,AFNE01.JPG,AFNE01.JPG,,,,,,,,,,,,,5,2,52,2,,,,,,,,,,,AMSA05.jpg,AMSA10.jpg,AMNE11.jpg,AMNE06.jpg,AMSA05.jpg,MS,2,num_8,32,num_6,3.04996168759,,,2017_Oct_04_1616,59.9700514159,FEMA4ImagesEEG,001,101839,
AFNE01.JPG,AFNE01.JPG,AFNE01.JPG,AFNE01.JPG,AFNE01.JPG,AFNE01.JPG,,,,,,,,,,,,,5,3,53,3,,,,,,,,,,,AMNE11.jpg,AMSA19.jpg,AMNE20.jpg,AMSA06.jpg,AMSA06.jpg,MS,2,num_4,32,num_2,0.95000335174,,,2017_Oct_04_1616,59.9700514159,FEMA4ImagesEEG,001,101839,
AFNE01.JPG,AFNE01.JPG,AFNE01.JPG,AFNE01.JPG,AFNE01.JPG,AFNE01.JPG,,,,,,,,,,,,,5,4,54,5,,,,,,,,,,,AMSA05.jpg,AMNE11.jpg,AMSA19.jpg,AMNE03.jpg,AMNE11.jpg,MN,1,num_6,32,num_4,0.90017220538,,,2017_Oct_04_1616,59.9700514159,FEMA4ImagesEEG,001,101839,
AFNE01.JPG,AFNE01.JPG,AFNE01.JPG,AFNE01.JPG,AFNE01.JPG,AFNE01.JPG,,,,,,,,,,,,,5,5,55,1,,,,,,,,,,,AMNE10.jpg,AMNE19.jpg,AMSA10.jpg,AMSA09.jpg,AMSA10.jpg,MS,2,num_2,32,num_8,0.849978301936,,,2017_Oct_04_1616,59.9700514159,FEMA4ImagesEEG,001,101839,
AFNE01.JPG,AFNE01.JPG,AFNE01.JPG,AFNE01.JPG,AFNE01.JPG,AFNE01.JPG,,,,,,,,,,,,,5,6,56,7,,,,,,,,,,,AMSA04.jpg,AMSA17.jpg,AMNE12.jpg,AMNE01.jpg,AMSA04.jpg,MS,2,num_8,32,num_2,1.05009575696,,,2017_Oct_04_1616,59.9700514159,FEMA4ImagesEEG,001,101839,
AFNE01.JPG,AFNE01.JPG,AFNE01.JPG,AFNE01.JPG,AFNE01.JPG,AFNE01.JPG,,,,,,,,,,,,,5,7,57,9,,,,,,,,,,,AMNE02.jpg,AMSA06.jpg,AMSA11.jpg,AMNE17.jpg,AMSA06.jpg,MS,2,num_6,32,num_4,0.833438054979,,,2017_Oct_04_1616,59.9700514159,FEMA4ImagesEEG,001,101839,
AFNE01.JPG,AFNE01.JPG,AFNE01.JPG,AFNE01.JPG,AFNE01.JPG,AFNE01.JPG,,,,,,,,,,,,,5,8,58,6,,,,,,,,,,,AMSA19.jpg,AMNE20.jpg,AMNE11.jpg,AMSA03.jpg,AMSA03.jpg,MS,2,num_4,32,num_6,0.500194849621,,,2017_Oct_04_1616,59.9700514159,FEMA4ImagesEEG,001,101839,
AFNE01.JPG,AFNE01.JPG,AFNE01.JPG,AFNE01.JPG,AFNE01.JPG,AFNE01.JPG,,,,,,,,,,,,,5,9,59,8,,,,,,,,,,,AMSA13.jpg,AMNE01.jpg,AMNE15.jpg,AMSA06.jpg,AMSA06.jpg,MS,2,num_4,32,num_8,0.383479767232,,,2017_Oct_04_1616,59.9700514159,FEMA4ImagesEEG,001,101839,
,,,,,,,,,,,,,,,,,,,,,,,,,,,,,,,,,,,,,,,,,,,space,20.5152795779,2017_Oct_04_1616,59.9700514159,FEMA4ImagesEEG,001,101839,
AFNE01.JPG,AFNE01.JPG,AFNE01.JPG,AFNE01.JPG,AFNE01.JPG,AFNE01.JPG,,,,,,,,,,,,,,,,,0,0,0,1,,,,,,,AFNE13.jpg,AFSA01.jpg,AFSA09.jpg,AFNE02.jpg,AFNE02.jpg,FN,3,num_4,16,num_4,0.666732739119,,,2017_Oct_04_1616,59.9700514159,FEMA4ImagesEEG,001,101839,
AFNE01.JPG,AFNE01.JPG,AFNE01.JPG,AFNE01.JPG,AFNE01.JPG,AFNE01.JPG,,,,,,,,,,,,,,,,,0,1,1,6,,,,,,,AFNE07.jpg,AFNE10.jpg,AFSA11.jpg,AFSA04.jpg,AFSA04.jpg,FS,4,num_4,32,num_6,0.650183190708,,,2017_Oct_04_1616,59.9700514159,FEMA4ImagesEEG,001,101839,
AFNE01.JPG,AFNE01.JPG,AFNE01.JPG,AFNE01.JPG,AFNE01.JPG,AFNE01.JPG,,,,,,,,,,,,,,,,,0,2,2,8,,,,,,,AFNE01.jpg,AFNE04.jpg,AFSA06.jpg,AFSA12.jpg,AFSA12.jpg,FS,4,num_4,32,num_8,0.86676166988,,,2017_Oct_04_1616,59.9700514159,FEMA4ImagesEEG,001,101839,
AFNE01.JPG,AFNE01.JPG,AFNE01.JPG,AFNE01.JPG,AFNE01.JPG,AFNE01.JPG,,,,,,,,,,,,,,,,,0,3,3,4,,,,,,,AFSA08.jpg,AFNE18.jpg,AFNE19.jpg,AFSA19.jpg,AFNE18.jpg,FN,3,num_6,16,num_6,0.76678088223,,,2017_Oct_04_1616,59.9700514159,FEMA4ImagesEEG,001,101839,
AFNE01.JPG,AFNE01.JPG,AFNE01.JPG,AFNE01.JPG,AFNE01.JPG,AFNE01.JPG,,,,,,,,,,,,,,,,,0,4,4,7,,,,,,,AFNE10.jpg,AFNE15.jpg,AFSA19.jpg,AFSA05.jpg,AFSA05.jpg,FS,4,num_4,32,num_8,0.483552607315,,,2017_Oct_04_1616,59.9700514159,FEMA4ImagesEEG,001,101839,
AFNE01.JPG,AFNE01.JPG,AFNE01.JPG,AFNE01.JPG,AFNE01.JPG,AFNE01.JPG,,,,,,,,,,,,,,,,,0,5,5,9,,,,,,,AFSA10.jpg,AFNE20.jpg,AFNE18.jpg,AFSA05.jpg,AFSA05.jpg,FS,4,num_4,32,num_6,0.566805835799,,,2017_Oct_04_1616,59.9700514159,FEMA4ImagesEEG,001,101839,
AFNE01.JPG,AFNE01.JPG,AFNE01.JPG,AFNE01.JPG,AFNE01.JPG,AFNE01.JPG,,,,,,,,,,,,,,,,,0,6,6,3,,,,,,,AFNE05.jpg,AFNE11.jpg,AFSA01.jpg,AFSA10.jpg,AFSA10.jpg,FS,4,num_4,16,num_4,0.850096655035,,,2017_Oct_04_1616,59.9700514159,FEMA4ImagesEEG,001,101839,
AFNE01.JPG,AFNE01.JPG,AFNE01.JPG,AFNE01.JPG,AFNE01.JPG,AFNE01.JPG,,,,,,,,,,,,,,,,,0,7,7,5,,,,,,,AFNE04.jpg,AFSA06.jpg,AFSA14.jpg,AFNE20.jpg,AFSA14.jpg,FS,4,num_2,32,num_4,0.550140179475,,,2017_Oct_04_1616,59.9700514159,FEMA4ImagesEEG,001,101839,
AFNE01.JPG,AFNE01.JPG,AFNE01.JPG,AFNE01.JPG,AFNE01.JPG,AFNE01.JPG,,,,,,,,,,,,,,,,,0,8,8,0,,,,,,,AFSA15.jpg,AFNE15.jpg,AFNE05.jpg,AFSA08.jpg,AFNE15.jpg,FN,3,num_6,16,num_6,0.666810678973,,,2017_Oct_04_1616,59.9700514159,FEMA4ImagesEEG,001,101839,
AFNE01.JPG,AFNE01.JPG,AFNE01.JPG,AFNE01.JPG,AFNE01.JPG,AFNE01.JPG,,,,,,,,,,,,,,,,,0,9,9,2,,,,,,,AFNE03.jpg,AFSA19.jpg,AFSA12.jpg,AFNE20.jpg,AFNE03.jpg,FN,3,num_8,32,num_4,0.316771596801,,,2017_Oct_04_1616,59.9700514159,FEMA4ImagesEEG,001,101839,
AFNE01.JPG,AFNE01.JPG,AFNE01.JPG,AFNE01.JPG,AFNE01.JPG,AFNE01.JPG,,,,,,,,,,,,,,,,,1,0,10,6,,,,,,,AFNE12.jpg,AFNE08.jpg,AFSA07.jpg,AFSA05.jpg,AFNE12.jpg,FN,3,num_8,32,num_2,0.816782020847,,,2017_Oct_04_1616,59.9700514159,FEMA4ImagesEEG,001,101839,
AFNE01.JPG,AFNE01.JPG,AFNE01.JPG,AFNE01.JPG,AFNE01.JPG,AFNE01.JPG,,,,,,,,,,,,,,,,,1,1,11,3,,,,,,,AFSA18.jpg,AFNE09.jpg,AFNE17.jpg,AFSA20.jpg,AFNE09.jpg,FN,3,num_6,16,num_6,0.750169430961,,,2017_Oct_04_1616,59.9700514159,FEMA4ImagesEEG,001,101839,
AFNE01.JPG,AFNE01.JPG,AFNE01.JPG,AFNE01.JPG,AFNE01.JPG,AFNE01.JPG,,,,,,,,,,,,,,,,,1,2,12,4,,,,,,,AFSA03.jpg,AFNE13.jpg,AFSA09.jpg,AFNE09.jpg,AFNE09.jpg,FN,3,num_4,32,num_8,0.766734695644,,,2017_Oct_04_1616,59.9700514159,FEMA4ImagesEEG,001,101839,
AFNE01.JPG,AFNE01.JPG,AFNE01.JPG,AFNE01.JPG,AFNE01.JPG,AFNE01.JPG,,,,,,,,,,,,,,,,,1,3,13,0,,,,,,,AFNE04.jpg,AFSA09.jpg,AFSA13.jpg,AFNE03.jpg,AFSA09.jpg,FS,4,num_6,32,num_2,0.966672856957,,,2017_Oct_04_1616,59.9700514159,FEMA4ImagesEEG,001,101839,
AFNE01.JPG,AFNE01.JPG,AFNE01.JPG,AFNE01.JPG,AFNE01.JPG,AFNE01.JPG,,,,,,,,,,,,,,,,,1,4,14,7,,,,,,,AFNE02.jpg,AFNE08.jpg,AFSA05.jpg,AFSA13.jpg,AFNE08.jpg,FN,3,num_6,32,num_4,1.28325361338,,,2017_Oct_04_1616,59.9700514159,FEMA4ImagesEEG,001,101839,
AFNE01.JPG,AFNE01.JPG,AFNE01.JPG,AFNE01.JPG,AFNE01.JPG,AFNE01.JPG,,,,,,,,,,,,,,,,,1,5,15,8,,,,,,,AFSA03.jpg,AFNE07.jpg,AFNE06.jpg,AFSA11.jpg,AFNE06.jpg,FN,3,num_2,32,num_4,1.16676433204,,,2017_Oct_04_1616,59.9700514159,FEMA4ImagesEEG,001,101839,
AFNE01.JPG,AFNE01.JPG,AFNE01.JPG,AFNE01.JPG,AFNE01.JPG,AFNE01.JPG,,,,,,,,,,,,,,,,,1,6,16,2,,,,,,,AFSA18.jpg,AFSA10.jpg,AFNE15.jpg,AFNE01.jpg,AFSA10.jpg,FS,4,num_6,32,num_2,1.86700126276,,,2017_Oct_04_1616,59.9700514159,FEMA4ImagesEEG,001,101839,
AFNE01.JPG,AFNE01.JPG,AFNE01.JPG,AFNE01.JPG,AFNE01.JPG,AFNE01.JPG,,,,,,,,,,,,,,,,,1,7,17,5,,,,,,,AFSA12.jpg,AFNE17.jpg,AFSA06.jpg,AFNE07.jpg,AFNE07.jpg,FN,3,num_4,16,num_4,1.15006948834,,,2017_Oct_04_1616,59.9700514159,FEMA4ImagesEEG,001,101839,
AFNE01.JPG,AFNE01.JPG,AFNE01.JPG,AFNE01.JPG,AFNE01.JPG,AFNE01.JPG,,,,,,,,,,,,,,,,,1,8,18,1,,,,,,,AFNE02.jpg,AFSA17.jpg,AFNE06.jpg,AFSA09.jpg,AFSA09.jpg,FS,4,num_4,16,num_4,1.94997897549,,,2017_Oct_04_1616,59.9700514159,FEMA4ImagesEEG,001,101839,
AFNE01.JPG,AFNE01.JPG,AFNE01.JPG,AFNE01.JPG,AFNE01.JPG,AFNE01.JPG,,,,,,,,,,,,,,,,,1,9,19,9,,,,,,,AFSA15.jpg,AFNE09.jpg,AFNE12.jpg,AFSA17.jpg,AFSA17.jpg,FS,4,num_4,32,num_8,1.35008943839,,,2017_Oct_04_1616,59.9700514159,FEMA4ImagesEEG,001,101839,
AFNE01.JPG,AFNE01.JPG,AFNE01.JPG,AFNE01.JPG,AFNE01.JPG,AFNE01.JPG,,,,,,,,,,,,,,,,,2,0,20,9,,,,,,,AFSA05.jpg,AFNE16.jpg,AFSA08.jpg,AFNE01.jpg,AFSA05.jpg,FS,4,num_8,32,num_4,2.13336309801,,,2017_Oct_04_1616,59.9700514159,FEMA4ImagesEEG,001,101839,
AFNE01.JPG,AFNE01.JPG,AFNE01.JPG,AFNE01.JPG,AFNE01.JPG,AFNE01.JPG,,,,,,,,,,,,,,,,,2,1,21,2,,,,,,,AFNE18.jpg,AFNE13.jpg,AFSA18.jpg,AFSA01.jpg,AFSA01.jpg,FS,4,num_4,32,num_6,1.06674345185,,,2017_Oct_04_1616,59.9700514159,FEMA4ImagesEEG,001,101839,
AFNE01.JPG,AFNE01.JPG,AFNE01.JPG,AFNE01.JPG,AFNE01.JPG,AFNE01.JPG,,,,,,,,,,,,,,,,,2,2,22,8,,,,,,,AFSA17.jpg,AFNE07.jpg,AFNE15.jpg,AFSA09.jpg,AFSA17.jpg,FS,4,num_8,16,num_8,1.41670812233,,,2017_Oct_04_1616,59.9700514159,FEMA4ImagesEEG,001,101839,
AFNE01.JPG,AFNE01.JPG,AFNE01.JPG,AFNE01.JPG,AFNE01.JPG,AFNE01.JPG,,,,,,,,,,,,,,,,,2,3,23,7,,,,,,,AFNE18.jpg,AFSA06.jpg,AFNE12.jpg,AFSA11.jpg,AFNE12.jpg,FN,3,num_2,32,num_8,1.08344374811,,,2017_Oct_04_1616,59.9700514159,FEMA4ImagesEEG,001,101839,
AFNE01.JPG,AFNE01.JPG,AFNE01.JPG,AFNE01.JPG,AFNE01.JPG,AFNE01.JPG,,,,,,,,,,,,,,,,,2,4,24,4,,,,,,,AFNE11.jpg,AFNE13.jpg,AFSA16.jpg,AFSA10.jpg,AFNE11.jpg,FN,3,num_8,16,num_8,1.10009689559,,,2017_Oct_04_1616,59.9700514159,FEMA4ImagesEEG,001,101839,
AFNE01.JPG,AFNE01.JPG,AFNE01.JPG,AFNE01.JPG,AFNE01.JPG,AFNE01.JPG,,,,,,,,,,,,,,,,,2,5,25,0,,,,,,,AFSA01.jpg,AFNE02.jpg,AFSA10.jpg,AFNE03.jpg,AFSA01.jpg,FS,4,num_8,16,num_8,0.950233001655,,,2017_Oct_04_1616,59.9700514159,FEMA4ImagesEEG,001,101839,
AFNE01.JPG,AFNE01.JPG,AFNE01.JPG,AFNE01.JPG,AFNE01.JPG,AFNE01.JPG,,,,,,,,,,,,,,,,,2,6,26,5,,,,,,,AFSA19.jpg,AFSA15.jpg,AFNE06.jpg,AFNE17.jpg,AFNE17.jpg,FN,3,num_4,16,num_4,1.11672438386,,,2017_Oct_04_1616,59.9700514159,FEMA4ImagesEEG,001,101839,
AFNE01.JPG,AFNE01.JPG,AFNE01.JPG,AFNE01.JPG,AFNE01.JPG,AFNE01.JPG,,,,,,,,,,,,,,,,,2,7,27,6,,,,,,,AFNE19.jpg,AFNE02.jpg,AFSA15.jpg,AFSA18.jpg,AFSA18.jpg,FS,4,num_4,16,num_4,0.983470016727,,,2017_Oct_04_1616,59.9700514159,FEMA4ImagesEEG,001,101839,
AFNE01.JPG,AFNE01.JPG,AFNE01.JPG,AFNE01.JPG,AFNE01.JPG,AFNE01.JPG,,,,,,,,,,,,,,,,,2,8,28,1,,,,,,,AFSA03.jpg,AFNE01.jpg,AFNE15.jpg,AFSA10.jpg,AFNE15.jpg,FN,3,num_2,32,num_6,1.01679651829,,,2017_Oct_04_1616,59.9700514159,FEMA4ImagesEEG,001,101839,
AFNE01.JPG,AFNE01.JPG,AFNE01.JPG,AFNE01.JPG,AFNE01.JPG,AFNE01.JPG,,,,,,,,,,,,,,,,,2,9,29,3,,,,,,,AFSA02.jpg,AFNE05.jpg,AFSA14.jpg,AFNE14.jpg,AFSA14.jpg,FS,4,num_2,32,num_8,1.55010746398,,,2017_Oct_04_1616,59.9700514159,FEMA4ImagesEEG,001,101839,
AFNE01.JPG,AFNE01.JPG,AFNE01.JPG,AFNE01.JPG,AFNE01.JPG,AFNE01.JPG,,,,,,,,,,,,,,,,,3,0,30,0,,,,,,,AFSA14.jpg,AFSA12.jpg,AFNE15.jpg,AFNE02.jpg,AFSA12.jpg,FS,4,num_6,32,num_2,1.05015733906,,,2017_Oct_04_1616,59.9700514159,FEMA4ImagesEEG,001,101839,
AFNE01.JPG,AFNE01.JPG,AFNE01.JPG,AFNE01.JPG,AFNE01.JPG,AFNE01.JPG,,,,,,,,,,,,,,,,,3,1,31,9,,,,,,,AFSA20.jpg,AFNE15.jpg,AFSA14.jpg,AFNE07.jpg,AFSA20.jpg,FS,4,num_8,16,num_8,0.816778813445,,,2017_Oct_04_1616,59.9700514159,FEMA4ImagesEEG,001,101839,
AFNE01.JPG,AFNE01.JPG,AFNE01.JPG,AFNE01.JPG,AFNE01.JPG,AFNE01.JPG,,,,,,,,,,,,,,,,,3,2,32,2,,,,,,,AFSA05.jpg,AFNE05.jpg,AFNE19.jpg,AFSA12.jpg,AFNE19.jpg,FN,3,num_2,32,num_4,0.816748343132,,,2017_Oct_04_1616,59.9700514159,FEMA4ImagesEEG,001,101839,
AFNE01.JPG,AFNE01.JPG,AFNE01.JPG,AFNE01.JPG,AFNE01.JPG,AFNE01.JPG,,,,,,,,,,,,,,,,,3,3,33,6,,,,,,,AFNE15.jpg,AFNE16.jpg,AFSA16.jpg,AFSA08.jpg,AFSA08.jpg,FS,4,num_4,32,num_8,0.783457443715,,,2017_Oct_04_1616,59.9700514159,FEMA4ImagesEEG,001,101839,
AFNE01.JPG,AFNE01.JPG,AFNE01.JPG,AFNE01.JPG,AFNE01.JPG,AFNE01.JPG,,,,,,,,,,,,,,,,,3,4,34,4,,,,,,,AFNE12.jpg,AFNE17.jpg,AFSA20.jpg,AFSA03.jpg,AFNE12.jpg,FN,3,num_8,16,num_8,0.800184361418,,,2017_Oct_04_1616,59.9700514159,FEMA4ImagesEEG,001,101839,
AFNE01.JPG,AFNE01.JPG,AFNE01.JPG,AFNE01.JPG,AFNE01.JPG,AFNE01.JPG,,,,,,,,,,,,,,,,,3,5,35,7,,,,,,,AFNE12.jpg,AFSA13.jpg,AFNE18.jpg,AFSA17.jpg,AFNE18.jpg,FN,3,num_2,32,num_4,1.65008921386,,,2017_Oct_04_1616,59.9700514159,FEMA4ImagesEEG,001,101839,
AFNE01.JPG,AFNE01.JPG,AFNE01.JPG,AFNE01.JPG,AFNE01.JPG,AFNE01.JPG,,,,,,,,,,,,,,,,,3,6,36,1,,,,,,,AFNE15.jpg,AFSA04.jpg,AFNE04.jpg,AFSA03.jpg,AFSA03.jpg,FS,4,num_4,32,num_2,1.13342371791,,,2017_Oct_04_1616,59.9700514159,FEMA4ImagesEEG,001,101839,
AFNE01.JPG,AFNE01.JPG,AFNE01.JPG,AFNE01.JPG,AFNE01.JPG,AFNE01.JPG,,,,,,,,,,,,,,,,,3,7,37,8,,,,,,,AFNE06.jpg,AFSA09.jpg,AFNE08.jpg,AFSA14.jpg,AFNE06.jpg,FN,3,num_8,32,num_4,0.983509467769,,,2017_Oct_04_1616,59.9700514159,FEMA4ImagesEEG,001,101839,
AFNE01.JPG,AFNE01.JPG,AFNE01.JPG,AFNE01.JPG,AFNE01.JPG,AFNE01.JPG,,,,,,,,,,,,,,,,,3,8,38,3,,,,,,,AFNE17.jpg,AFSA18.jpg,AFSA07.jpg,AFNE03.jpg,AFSA18.jpg,FS,4,num_6,16,num_6,0.950132930739,,,2017_Oct_04_1616,59.9700514159,FEMA4ImagesEEG,001,101839,
AFNE01.JPG,AFNE01.JPG,AFNE01.JPG,AFNE01.JPG,AFNE01.JPG,AFNE01.JPG,,,,,,,,,,,,,,,,,3,9,39,5,,,,,,,AFSA10.jpg,AFNE05.jpg,AFSA01.jpg,AFNE16.jpg,AFNE16.jpg,FN,3,num_4,32,num_8,0.933465029215,,,2017_Oct_04_1616,59.9700514159,FEMA4ImagesEEG,001,101839,
AFNE01.JPG,AFNE01.JPG,AFNE01.JPG,AFNE01.JPG,AFNE01.JPG,AFNE01.JPG,,,,,,,,,,,,,,,,,4,0,40,3,,,,,,,AFSA10.jpg,AFNE06.jpg,AFSA08.jpg,AFNE14.jpg,AFSA10.jpg,FS,4,num_8,32,num_4,0.850092806155,,,2017_Oct_04_1616,59.9700514159,FEMA4ImagesEEG,001,101839,
AFNE01.JPG,AFNE01.JPG,AFNE01.JPG,AFNE01.JPG,AFNE01.JPG,AFNE01.JPG,,,,,,,,,,,,,,,,,4,1,41,2,,,,,,,AFNE04.jpg,AFSA05.jpg,AFSA07.jpg,AFNE16.jpg,AFSA05.jpg,FS,4,num_6,32,num_2,0.933452520359,,,2017_Oct_04_1616,59.9700514159,FEMA4ImagesEEG,001,101839,
AFNE01.JPG,AFNE01.JPG,AFNE01.JPG,AFNE01.JPG,AFNE01.JPG,AFNE01.JPG,,,,,,,,,,,,,,,,,4,2,42,9,,,,,,,AFNE01.jpg,AFSA17.jpg,AFSA04.jpg,AFNE09.jpg,AFSA17.jpg,FS,4,num_6,16,num_6,0.900151677997,,,2017_Oct_04_1616,59.9700514159,FEMA4ImagesEEG,001,101839,
AFNE01.JPG,AFNE01.JPG,AFNE01.JPG,AFNE01.JPG,AFNE01.JPG,AFNE01.JPG,,,,,,,,,,,,,,,,,4,3,43,6,,,,,,,AFNE05.jpg,AFSA04.jpg,AFNE08.jpg,AFSA08.jpg,AFSA04.jpg,FS,4,num_6,32,num_4,0.983441791599,,,2017_Oct_04_1616,59.9700514159,FEMA4ImagesEEG,001,101839,
AFNE01.JPG,AFNE01.JPG,AFNE01.JPG,AFNE01.JPG,AFNE01.JPG,AFNE01.JPG,,,,,,,,,,,,,,,,,4,4,44,7,,,,,,,AFSA07.jpg,AFSA18.jpg,AFNE15.jpg,AFNE18.jpg,AFNE18.jpg,FN,3,num_4,32,num_8,1.18343415798,,,2017_Oct_04_1616,59.9700514159,FEMA4ImagesEEG,001,101839,
AFNE01.JPG,AFNE01.JPG,AFNE01.JPG,AFNE01.JPG,AFNE01.JPG,AFNE01.JPG,,,,,,,,,,,,,,,,,4,5,45,4,,,,,,,AFSA13.jpg,AFNE01.jpg,AFSA19.jpg,AFNE18.jpg,AFSA13.jpg,FS,4,num_8,32,num_2,0.983410359084,,,2017_Oct_04_1616,59.9700514159,FEMA4ImagesEEG,001,101839,
AFNE01.JPG,AFNE01.JPG,AFNE01.JPG,AFNE01.JPG,AFNE01.JPG,AFNE01.JPG,,,,,,,,,,,,,,,,,4,6,46,1,,,,,,,AFSA06.jpg,AFNE18.jpg,AFNE15.jpg,AFSA01.jpg,AFSA01.jpg,FS,4,num_4,32,num_8,1.1001129326,,,2017_Oct_04_1616,59.9700514159,FEMA4ImagesEEG,001,101839,
AFNE01.JPG,AFNE01.JPG,AFNE01.JPG,AFNE01.JPG,AFNE01.JPG,AFNE01.JPG,,,,,,,,,,,,,,,,,4,7,47,0,,,,,,,AFNE12.jpg,AFSA09.jpg,AFSA08.jpg,AFNE09.jpg,AFNE12.jpg,FN,3,num_8,32,num_4,1.28342873749,,,2017_Oct_04_1616,59.9700514159,FEMA4ImagesEEG,001,101839,
AFNE01.JPG,AFNE01.JPG,AFNE01.JPG,AFNE01.JPG,AFNE01.JPG,AFNE01.JPG,,,,,,,,,,,,,,,,,4,8,48,5,,,,,,,AFSA07.jpg,AFSA18.jpg,AFNE03.jpg,AFNE13.jpg,AFSA18.jpg,FS,4,num_6,32,num_2,1.21678279064,,,2017_Oct_04_1616,59.9700514159,FEMA4ImagesEEG,001,101839,
AFNE01.JPG,AFNE01.JPG,AFNE01.JPG,AFNE01.JPG,AFNE01.JPG,AFNE01.JPG,,,,,,,,,,,,,,,,,4,9,49,8,,,,,,,AFNE10.jpg,AFSA01.jpg,AFSA18.jpg,AFNE03.jpg,AFNE03.jpg,FN,3,num_4,32,num_6,0.766611852188,,,2017_Oct_04_1616,59.9700514159,FEMA4ImagesEEG,001,101839,
AFNE01.JPG,AFNE01.JPG,AFNE01.JPG,AFNE01.JPG,AFNE01.JPG,AFNE01.JPG,,,,,,,,,,,,,,,,,5,0,50,0,,,,,,,AFSA04.jpg,AFNE06.jpg,AFNE05.jpg,AFSA05.jpg,AFSA04.jpg,FS,4,num_8,16,num_8,1.23346672914,,,2017_Oct_04_1616,59.9700514159,FEMA4ImagesEEG,001,101839,
AFNE01.JPG,AFNE01.JPG,AFNE01.JPG,AFNE01.JPG,AFNE01.JPG,AFNE01.JPG,,,,,,,,,,,,,,,,,5,1,51,4,,,,,,,AFSA07.jpg,AFNE13.jpg,AFNE10.jpg,AFSA14.jpg,AFSA14.jpg,FS,4,num_4,16,num_4,0.733315820922,,,2017_Oct_04_1616,59.9700514159,FEMA4ImagesEEG,001,101839,
AFNE01.JPG,AFNE01.JPG,AFNE01.JPG,AFNE01.JPG,AFNE01.JPG,AFNE01.JPG,,,,,,,,,,,,,,,,,5,2,52,6,,,,,,,AFNE16.jpg,AFSA19.jpg,AFSA11.jpg,AFNE08.jpg,AFSA19.jpg,FS,4,num_6,32,num_2,1.13345162229,,,2017_Oct_04_1616,59.9700514159,FEMA4ImagesEEG,001,101839,
AFNE01.JPG,AFNE01.JPG,AFNE01.JPG,AFNE01.JPG,AFNE01.JPG,AFNE01.JPG,,,,,,,,,,,,,,,,,5,3,53,9,,,,,,,AFSA17.jpg,AFSA18.jpg,AFNE09.jpg,AFNE03.jpg,AFNE09.jpg,FN,3,num_2,32,num_4,0.96675753234,,,2017_Oct_04_1616,59.9700514159,FEMA4ImagesEEG,001,101839,
AFNE01.JPG,AFNE01.JPG,AFNE01.JPG,AFNE01.JPG,AFNE01.JPG,AFNE01.JPG,,,,,,,,,,,,,,,,,5,4,54,8,,,,,,,AFSA15.jpg,AFSA08.jpg,AFNE16.jpg,AFNE12.jpg,AFNE16.jpg,FN,3,num_2,32,num_8,0.51666966558,,,2017_Oct_04_1616,59.9700514159,FEMA4ImagesEEG,001,101839,
AFNE01.JPG,AFNE01.JPG,AFNE01.JPG,AFNE01.JPG,AFNE01.JPG,AFNE01.JPG,,,,,,,,,,,,,,,,,5,5,55,1,,,,,,,AFNE19.jpg,AFNE10.jpg,AFSA07.jpg,AFSA01.jpg,AFSA01.jpg,FS,4,num_4,32,num_6,0.850118786111,,,2017_Oct_04_1616,59.9700514159,FEMA4ImagesEEG,001,101839,
AFNE01.JPG,AFNE01.JPG,AFNE01.JPG,AFNE01.JPG,AFNE01.JPG,AFNE01.JPG,,,,,,,,,,,,,,,,,5,6,56,2,,,,,,,AFNE06.jpg,AFNE19.jpg,AFSA20.jpg,AFSA09.jpg,AFSA20.jpg,FS,4,num_2,32,num_4,0.816773681596,,,2017_Oct_04_1616,59.9700514159,FEMA4ImagesEEG,001,101839,
AFNE01.JPG,AFNE01.JPG,AFNE01.JPG,AFNE01.JPG,AFNE01.JPG,AFNE01.JPG,,,,,,,,,,,,,,,,,5,7,57,3,,,,,,,AFSA12.jpg,AFNE01.jpg,AFSA08.jpg,AFNE04.jpg,AFNE04.jpg,FN,3,num_4,16,num_4,1.26682530473,,,2017_Oct_04_1616,59.9700514159,FEMA4ImagesEEG,001,101839,
AFNE01.JPG,AFNE01.JPG,AFNE01.JPG,AFNE01.JPG,AFNE01.JPG,AFNE01.JPG,,,,,,,,,,,,,,,,,5,8,58,7,,,,,,,AFNE01.jpg,AFSA18.jpg,AFSA02.jpg,AFNE09.jpg,AFSA18.jpg,FS,4,num_6,16,num_6,1.36675926433,,,2017_Oct_04_1616,59.9700514159,FEMA4ImagesEEG,001,101839,
AFNE01.JPG,AFNE01.JPG,AFNE01.JPG,AFNE01.JPG,AFNE01.JPG,AFNE01.JPG,,,,,,,,,,,,,,,,,5,9,59,5,,,,,,,AFNE11.jpg,AFSA18.jpg,AFNE02.jpg,AFSA05.jpg,AFSA05.jpg,FS,4,num_4,32,num_6,0.816799661552,,,2017_Oct_04_1616,59.9700514159,FEMA4ImagesEEG,001,101839,
,,,,,,,,,,,,,,,,,,,,,,,,,,,,,,,,,,,,,,,,,,,space,5.61677907004,2017_Oct_04_1616,59.9700514159,FEMA4ImagesEEG,001,101839,
AFNE01.JPG,AFNE01.JPG,AFNE01.JPG,AFNE01.JPG,AFNE01.JPG,AFNE01.JPG,,,,,,,,,,,,,,,,,,,,,0,0,0,4,,,AMSA14.jpg,AMSA02.jpg,AMNE02.jpg,AMNE03.jpg,AMSA14.jpg,MS,2,num_8,16,num_8,0.80016126814,,,2017_Oct_04_1616,59.9700514159,FEMA4ImagesEEG,001,101839,
AFNE01.JPG,AFNE01.JPG,AFNE01.JPG,AFNE01.JPG,AFNE01.JPG,AFNE01.JPG,,,,,,,,,,,,,,,,,,,,,0,1,1,9,,,AMSA16.jpg,AMSA02.jpg,AMNE09.jpg,AMNE13.jpg,AMNE09.jpg,MN,1,num_2,32,num_4,0.700164122711,,,2017_Oct_04_1616,59.9700514159,FEMA4ImagesEEG,001,101839,
AFNE01.JPG,AFNE01.JPG,AFNE01.JPG,AFNE01.JPG,AFNE01.JPG,AFNE01.JPG,,,,,,,,,,,,,,,,,,,,,0,2,2,6,,,AMSA13.jpg,AMNE15.jpg,AMSA08.jpg,AMNE16.jpg,AMNE16.jpg,MN,1,num_4,32,num_6,0.71677429101,,,2017_Oct_04_1616,59.9700514159,FEMA4ImagesEEG,001,101839,
AFNE01.JPG,AFNE01.JPG,AFNE01.JPG,AFNE01.JPG,AFNE01.JPG,AFNE01.JPG,,,,,,,,,,,,,,,,,,,,,0,3,3,2,,,AMNE16.jpg,AMSA05.jpg,AMNE17.jpg,AMSA14.jpg,AMNE16.jpg,MN,1,num_8,32,num_2,0.950120742607,,,2017_Oct_04_1616,59.9700514159,FEMA4ImagesEEG,001,101839,
AFNE01.JPG,AFNE01.JPG,AFNE01.JPG,AFNE01.JPG,AFNE01.JPG,AFNE01.JPG,,,,,,,,,,,,,,,,,,,,,0,4,4,3,,,AMSA14.jpg,AMSA20.jpg,AMNE04.jpg,AMNE06.jpg,AMSA14.jpg,MS,2,num_8,16,num_8,0.650143098203,,,2017_Oct_04_1616,59.9700514159,FEMA4ImagesEEG,001,101839,
AFNE01.JPG,AFNE01.JPG,AFNE01.JPG,AFNE01.JPG,AFNE01.JPG,AFNE01.JPG,,,,,,,,,,,,,,,,,,,,,0,5,5,0,,,AMSA20.jpg,AMNE05.jpg,AMNE03.jpg,AMSA18.jpg,AMSA18.jpg,MS,2,num_4,16,num_4,0.700091956183,,,2017_Oct_04_1616,59.9700514159,FEMA4ImagesEEG,001,101839,
AFNE01.JPG,AFNE01.JPG,AFNE01.JPG,AFNE01.JPG,AFNE01.JPG,AFNE01.JPG,,,,,,,,,,,,,,,,,,,,,0,6,6,8,,,AMNE19.jpg,AMSA12.jpg,AMSA18.jpg,AMNE17.jpg,AMNE19.jpg,MN,1,num_8,16,num_8,0.666794641977,,,2017_Oct_04_1616,59.9700514159,FEMA4ImagesEEG,001,101839,
AFNE01.JPG,AFNE01.JPG,AFNE01.JPG,AFNE01.JPG,AFNE01.JPG,AFNE01.JPG,,,,,,,,,,,,,,,,,,,,,0,7,7,1,,,AMSA09.jpg,AMNE02.jpg,AMSA13.jpg,AMNE03.jpg,AMNE03.jpg,MN,1,num_4,32,num_6,0.450028209088,,,2017_Oct_04_1616,59.9700514159,FEMA4ImagesEEG,001,101839,
AFNE01.JPG,AFNE01.JPG,AFNE01.JPG,AFNE01.JPG,AFNE01.JPG,AFNE01.JPG,,,,,,,,,,,,,,,,,,,,,0,8,8,5,,,AMNE19.jpg,AMNE05.jpg,AMSA04.jpg,AMSA13.jpg,AMNE05.jpg,MN,1,num_6,32,num_4,0.516847034873,,,2017_Oct_04_1616,59.9700514159,FEMA4ImagesEEG,001,101839,
AFNE01.JPG,AFNE01.JPG,AFNE01.JPG,AFNE01.JPG,AFNE01.JPG,AFNE01.JPG,,,,,,,,,,,,,,,,,,,,,0,9,9,7,,,AMSA10.jpg,AMNE19.jpg,AMSA06.jpg,AMNE07.jpg,AMNE19.jpg,MN,1,num_6,32,num_8,0.300168164045,,,2017_Oct_04_1616,59.9700514159,FEMA4ImagesEEG,001,101839,
AFNE01.JPG,AFNE01.JPG,AFNE01.JPG,AFNE01.JPG,AFNE01.JPG,AFNE01.JPG,,,,,,,,,,,,,,,,,,,,,1,0,10,8,,,AMNE12.jpg,AMNE06.jpg,AMSA06.jpg,AMSA16.jpg,AMNE06.jpg,MN,1,num_6,32,num_2,0.650130910071,,,2017_Oct_04_1616,59.9700514159,FEMA4ImagesEEG,001,101839,
AFNE01.JPG,AFNE01.JPG,AFNE01.JPG,AFNE01.JPG,AFNE01.JPG,AFNE01.JPG,,,,,,,,,,,,,,,,,,,,,1,1,11,5,,,AMSA16.jpg,AMNE05.jpg,AMNE08.jpg,AMSA05.jpg,AMSA05.jpg,MS,2,num_4,16,num_4,1.10007219859,,,2017_Oct_04_1616,59.9700514159,FEMA4ImagesEEG,001,101839,
AFNE01.JPG,AFNE01.JPG,AFNE01.JPG,AFNE01.JPG,AFNE01.JPG,AFNE01.JPG,,,,,,,,,,,,,,,,,,,,,1,2,12,6,,,AMSA07.jpg,AMSA10.jpg,AMNE04.jpg,AMNE03.jpg,AMSA07.jpg,MS,2,num_8,32,num_6,0.516935559135,,,2017_Oct_04_1616,59.9700514159,FEMA4ImagesEEG,001,101839,
AFNE01.JPG,AFNE01.JPG,AFNE01.JPG,AFNE01.JPG,AFNE01.JPG,AFNE01.JPG,,,,,,,,,,,,,,,,,,,,,1,3,13,3,,,AMNE01.jpg,AMSA08.jpg,AMNE10.jpg,AMSA15.jpg,AMNE10.jpg,MN,1,num_2,32,num_6,0.600198089101,,,2017_Oct_04_1616,59.9700514159,FEMA4ImagesEEG,001,101839,
AFNE01.JPG,AFNE01.JPG,AFNE01.JPG,AFNE01.JPG,AFNE01.JPG,AFNE01.JPG,,,,,,,,,,,,,,,,,,,,,1,4,14,0,,,AMSA14.jpg,AMNE08.jpg,AMSA20.jpg,AMNE05.jpg,AMSA20.jpg,MS,2,num_2,32,num_4,1.33353732406,,,2017_Oct_04_1616,59.9700514159,FEMA4ImagesEEG,001,101839,
AFNE01.JPG,AFNE01.JPG,AFNE01.JPG,AFNE01.JPG,AFNE01.JPG,AFNE01.JPG,,,,,,,,,,,,,,,,,,,,,1,5,15,2,,,AMNE10.jpg,AMNE16.jpg,AMSA06.jpg,AMSA20.jpg,AMNE10.jpg,MN,1,num_8,16,num_8,0.766744959328,,,2017_Oct_04_1616,59.9700514159,FEMA4ImagesEEG,001,101839,
AFNE01.JPG,AFNE01.JPG,AFNE01.JPG,AFNE01.JPG,AFNE01.JPG,AFNE01.JPG,,,,,,,,,,,,,,,,,,,,,1,6,16,7,,,AMSA18.jpg,AMNE16.jpg,AMNE09.jpg,AMSA06.jpg,AMSA06.jpg,MS,2,num_4,16,num_4,0.683284853469,,,2017_Oct_04_1616,59.9700514159,FEMA4ImagesEEG,001,101839,
AFNE01.JPG,AFNE01.JPG,AFNE01.JPG,AFNE01.JPG,AFNE01.JPG,AFNE01.JPG,,,,,,,,,,,,,,,,,,,,,1,7,17,1,,,AMNE18.jpg,AMSA13.jpg,AMSA06.jpg,AMNE04.jpg,AMNE04.jpg,MN,1,num_4,32,num_2,1.20014215203,,,2017_Oct_04_1616,59.9700514159,FEMA4ImagesEEG,001,101839,
AFNE01.JPG,AFNE01.JPG,AFNE01.JPG,AFNE01.JPG,AFNE01.JPG,AFNE01.JPG,,,,,,,,,,,,,,,,,,,,,1,8,18,4,,,AMNE02.jpg,AMSA16.jpg,AMSA04.jpg,AMNE15.jpg,AMSA04.jpg,MS,2,num_2,16,num_2,0.900184393482,,,2017_Oct_04_1616,59.9700514159,FEMA4ImagesEEG,001,101839,
AFNE01.JPG,AFNE01.JPG,AFNE01.JPG,AFNE01.JPG,AFNE01.JPG,AFNE01.JPG,,,,,,,,,,,,,,,,,,,,,1,9,19,9,,,AMSA19.jpg,AMSA08.jpg,AMNE01.jpg,AMNE20.jpg,AMNE20.jpg,MN,1,num_4,16,num_4,1.00012893752,,,2017_Oct_04_1616,59.9700514159,FEMA4ImagesEEG,001,101839,
AFNE01.JPG,AFNE01.JPG,AFNE01.JPG,AFNE01.JPG,AFNE01.JPG,AFNE01.JPG,,,,,,,,,,,,,,,,,,,,,2,0,20,2,,,AMNE19.jpg,AMNE06.jpg,AMSA20.jpg,AMSA15.jpg,AMNE19.jpg,MN,1,num_8,32,num_6,1.43338660826,,,2017_Oct_04_1616,59.9700514159,FEMA4ImagesEEG,001,101839,
AFNE01.JPG,AFNE01.JPG,AFNE01.JPG,AFNE01.JPG,AFNE01.JPG,AFNE01.JPG,,,,,,,,,,,,,,,,,,,,,2,1,21,1,,,AMNE19.jpg,AMNE03.jpg,AMSA08.jpg,AMSA01.jpg,AMNE19.jpg,MN,1,num_8,32,num_4,0.733476832465,,,2017_Oct_04_1616,59.9700514159,FEMA4ImagesEEG,001,101839,
AFNE01.JPG,AFNE01.JPG,AFNE01.JPG,AFNE01.JPG,AFNE01.JPG,AFNE01.JPG,,,,,,,,,,,,,,,,,,,,,2,2,22,7,,,AMSA18.jpg,AMSA16.jpg,AMNE01.jpg,AMNE17.jpg,AMSA18.jpg,MS,2,num_8,32,num_2,1.20012803946,,,2017_Oct_04_1616,59.9700514159,FEMA4ImagesEEG,001,101839,
AFNE01.JPG,AFNE01.JPG,AFNE01.JPG,AFNE01.JPG,AFNE01.JPG,AFNE01.JPG,,,,,,,,,,,,,,,,,,,,,2,3,23,4,,,AMNE10.jpg,AMNE17.jpg,AMSA09.jpg,AMSA13.jpg,AMSA09.jpg,MS,2,num_2,32,num_8,1.05013360429,,,2017_Oct_04_1616,59.9700514159,FEMA4ImagesEEG,001,101839,
AFNE01.JPG,AFNE01.JPG,AFNE01.JPG,AFNE01.JPG,AFNE01.JPG,AFNE01.JPG,,,,,,,,,,,,,,,,,,,,,2,4,24,5,,,AMNE01.jpg,AMSA06.jpg,AMSA19.jpg,AMNE03.jpg,AMNE01.jpg,MN,1,num_8,32,num_4,0.833441903858,,,2017_Oct_04_1616,59.9700514159,FEMA4ImagesEEG,001,101839,
AFNE01.JPG,AFNE01.JPG,AFNE01.JPG,AFNE01.JPG,AFNE01.JPG,AFNE01.JPG,,,,,,,,,,,,,,,,,,,,,2,5,25,9,,,AMNE16.jpg,AMSA15.jpg,AMSA20.jpg,AMNE01.jpg,AMNE16.jpg,MN,1,num_8,32,num_2,0.750145054728,,,2017_Oct_04_1616,59.9700514159,FEMA4ImagesEEG,001,101839,
AFNE01.JPG,AFNE01.JPG,AFNE01.JPG,AFNE01.JPG,AFNE01.JPG,AFNE01.JPG,,,,,,,,,,,,,,,,,,,,,2,6,26,3,,,AMSA16.jpg,AMSA04.jpg,AMNE10.jpg,AMNE01.jpg,AMSA16.jpg,MS,2,num_8,32,num_6,0.566827646122,,,2017_Oct_04_1616,59.9700514159,FEMA4ImagesEEG,001,101839,
AFNE01.JPG,AFNE01.JPG,AFNE01.JPG,AFNE01.JPG,AFNE01.JPG,AFNE01.JPG,,,,,,,,,,,,,,,,,,,,,2,7,27,0,,,AMNE12.jpg,AMSA12.jpg,AMNE10.jpg,AMSA16.jpg,AMSA16.jpg,MS,2,num_4,32,num_8,0.53347388166,,,2017_Oct_04_1616,59.9700514159,FEMA4ImagesEEG,001,101839,
AFNE01.JPG,AFNE01.JPG,AFNE01.JPG,AFNE01.JPG,AFNE01.JPG,AFNE01.JPG,,,,,,,,,,,,,,,,,,,,,2,8,28,8,,,AMNE18.jpg,AMNE01.jpg,AMSA04.jpg,AMSA14.jpg,AMSA14.jpg,MS,2,num_4,16,num_4,0.850112050568,,,2017_Oct_04_1616,59.9700514159,FEMA4ImagesEEG,001,101839,
AFNE01.JPG,AFNE01.JPG,AFNE01.JPG,AFNE01.JPG,AFNE01.JPG,AFNE01.JPG,,,,,,,,,,,,,,,,,,,,,2,9,29,6,,,AMSA14.jpg,AMNE18.jpg,AMSA17.jpg,AMNE05.jpg,AMSA14.jpg,MS,2,num_8,16,num_8,0.733351102332,,,2017_Oct_04_1616,59.9700514159,FEMA4ImagesEEG,001,101839,
AFNE01.JPG,AFNE01.JPG,AFNE01.JPG,AFNE01.JPG,AFNE01.JPG,AFNE01.JPG,,,,,,,,,,,,,,,,,,,,,3,0,30,4,,,AMNE09.jpg,AMNE11.jpg,AMSA12.jpg,AMSA15.jpg,AMNE09.jpg,MN,1,num_8,32,num_6,0.633537741,,,2017_Oct_04_1616,59.9700514159,FEMA4ImagesEEG,001,101839,
AFNE01.JPG,AFNE01.JPG,AFNE01.JPG,AFNE01.JPG,AFNE01.JPG,AFNE01.JPG,,,,,,,,,,,,,,,,,,,,,3,1,31,3,,,AMSA11.jpg,AMSA05.jpg,AMNE16.jpg,AMNE10.jpg,AMSA05.jpg,MS,2,num_6,32,num_4,0.716647598674,,,2017_Oct_04_1616,59.9700514159,FEMA4ImagesEEG,001,101839,
AFNE01.JPG,AFNE01.JPG,AFNE01.JPG,AFNE01.JPG,AFNE01.JPG,AFNE01.JPG,,,,,,,,,,,,,,,,,,,,,3,2,32,5,,,AMNE19.jpg,AMSA12.jpg,AMSA16.jpg,AMNE05.jpg,AMNE05.jpg,MN,1,num_4,32,num_8,0.466797785222,,,2017_Oct_04_1616,59.9700514159,FEMA4ImagesEEG,001,101839,
AFNE01.JPG,AFNE01.JPG,AFNE01.JPG,AFNE01.JPG,AFNE01.JPG,AFNE01.JPG,,,,,,,,,,,,,,,,,,,,,3,3,33,2,,,AMNE05.jpg,AMNE09.jpg,AMSA04.jpg,AMSA14.jpg,AMNE05.jpg,MN,1,num_8,32,num_4,0.70015289681,,,2017_Oct_04_1616,59.9700514159,FEMA4ImagesEEG,001,101839,
AFNE01.JPG,AFNE01.JPG,AFNE01.JPG,AFNE01.JPG,AFNE01.JPG,AFNE01.JPG,,,,,,,,,,,,,,,,,,,,,3,4,34,9,,,AMNE20.jpg,AMNE15.jpg,AMSA10.jpg,AMSA11.jpg,AMNE20.jpg,MN,1,num_8,32,num_2,1.05008709697,,,2017_Oct_04_1616,59.9700514159,FEMA4ImagesEEG,001,101839,
AFNE01.JPG,AFNE01.JPG,AFNE01.JPG,AFNE01.JPG,AFNE01.JPG,AFNE01.JPG,,,,,,,,,,,,,,,,,,,,,3,5,35,7,,,AMNE19.jpg,AMSA08.jpg,AMNE02.jpg,AMSA05.jpg,AMSA05.jpg,MS,2,num_4,16,num_4,1.10019023097,,,2017_Oct_04_1616,59.9700514159,FEMA4ImagesEEG,001,101839,
AFNE01.JPG,AFNE01.JPG,AFNE01.JPG,AFNE01.JPG,AFNE01.JPG,AFNE01.JPG,,,,,,,,,,,,,,,,,,,,,3,6,36,0,,,AMNE17.jpg,AMNE02.jpg,AMSA04.jpg,AMSA15.jpg,AMSA04.jpg,MS,2,num_2,16,num_2,0.833522088884,,,2017_Oct_04_1616,59.9700514159,FEMA4ImagesEEG,001,101839,
AFNE01.JPG,AFNE01.JPG,AFNE01.JPG,AFNE01.JPG,AFNE01.JPG,AFNE01.JPG,,,,,,,,,,,,,,,,,,,,,3,7,37,8,,,AMNE08.jpg,AMSA07.jpg,AMSA02.jpg,AMNE12.jpg,AMNE08.jpg,MN,1,num_8,32,num_6,0.583447757366,,,2017_Oct_04_1616,59.9700514159,FEMA4ImagesEEG,001,101839,
AFNE01.JPG,AFNE01.JPG,AFNE01.JPG,AFNE01.JPG,AFNE01.JPG,AFNE01.JPG,,,,,,,,,,,,,,,,,,,,,3,8,38,1,,,AMSA09.jpg,AMNE13.jpg,AMSA14.jpg,AMNE04.jpg,AMSA09.jpg,MS,2,num_8,32,num_4,0.650108458271,,,2017_Oct_04_1616,59.9700514159,FEMA4ImagesEEG,001,101839,
