IPosition2,IPosition3,IPosition1,IPosition6,IPosition4,IPosition5,TrialsF1.thisRepN,TrialsF1.thisTrialN,TrialsF1.thisN,TrialsF1.thisIndex,TrialsM1.thisRepN,TrialsM1.thisTrialN,TrialsM1.thisN,TrialsM1.thisIndex,TrialsF2.thisRepN,TrialsF2.thisTrialN,TrialsF2.thisN,TrialsF2.thisIndex,TrialsM2.thisRepN,TrialsM2.thisTrialN,TrialsM2.thisN,TrialsM2.thisIndex,TrialsF3.thisRepN,TrialsF3.thisTrialN,TrialsF3.thisN,TrialsF3.thisIndex,TrialsM3.thisRepN,TrialsM3.thisTrialN,TrialsM3.thisN,TrialsM3.thisIndex,InstrKey_resp.keys,InstrKey_resp.rt,Image0 _Position,Image1 _Position,Image2 _Position,Image3 _Position,Center_image,condition,code,correct_answer,accuracy,Key_Resp.keys,Key_Resp.rt,BreakKey_resp.keys,BreakKey_resp.rt,date,frameRate,expName,session,participant,
,,,,,,,,,,,,,,,,,,,,,,,,,,,,,,space,11.9160650126,,,,,,,,,,,,,,2017_Sep_22_1527,59.9963437913,FEMA4ImagesEEG,001,101800,
AMSA21.JPG,AMNE22.JPG,AMNE21.JPG,AMSA23.JPG,AMSA22.JPG,AMNE23.JPG,0,0,0,1,,,,,,,,,,,,,,,,,,,,,,,AFSA04.jpg,AFSA06.jpg,AFNE12.jpg,AFNE02.jpg,AFSA06.jpg,FS,4,num_6,16,num_6,1.01676858702,,,2017_Sep_22_1527,59.9963437913,FEMA4ImagesEEG,001,101800,
AFSA21.JPG,AFNE22.JPG,AFNE21.JPG,AFSA23.JPG,AFSA22.JPG,AFNE23.JPG,0,1,1,0,,,,,,,,,,,,,,,,,,,,,,,AFNE10.jpg,AFNE07.jpg,AFSA19.jpg,AFSA13.jpg,AFSA19.jpg,FS,4,num_2,32,num_4,1.4500980501,,,2017_Sep_22_1527,59.9963437913,FEMA4ImagesEEG,001,101800,
AFNE22.JPG,AFSA24.JPG,AFSA22.JPG,AFNE25.JPG,AFNE24.JPG,AFSA25.JPG,0,2,2,6,,,,,,,,,,,,,,,,,,,,,,,AFSA07.jpg,AFSA05.jpg,AFNE17.jpg,AFNE11.jpg,AFSA07.jpg,FS,4,num_8,16,num_8,1.48342898857,,,2017_Sep_22_1527,59.9963437913,FEMA4ImagesEEG,001,101800,
AMSA25.JPG,AMNE24.JPG,AMSA24.JPG,AMNE26.JPG,AMSA21.JPG,AMNE25.JPG,0,3,3,3,,,,,,,,,,,,,,,,,,,,,,,AFSA18.jpg,AFSA05.jpg,AFNE18.jpg,AFNE09.jpg,AFNE18.jpg,FN,3,num_2,16,num_2,1.83339085264,,,2017_Sep_22_1527,59.9963437913,FEMA4ImagesEEG,001,101800,
AFNE23.JPG,AFNE24.JPG,AFNE22.JPG,AFSA24.JPG,AFSA22.JPG,AFSA23.JPG,0,4,4,8,,,,,,,,,,,,,,,,,,,,,,,AFNE09.jpg,AFNE12.jpg,AFSA11.jpg,AFSA20.jpg,AFSA20.jpg,FS,4,num_4,32,num_2,1.28342283037,,,2017_Sep_22_1527,59.9963437913,FEMA4ImagesEEG,001,101800,
AFSA25.JPG,AFNE24.JPG,AFSA24.JPG,AFNE21.JPG,AFSA21.JPG,AFNE25.JPG,0,5,5,2,,,,,,,,,,,,,,,,,,,,,,,AFNE14.jpg,AFSA15.jpg,AFSA18.jpg,AFNE11.jpg,AFSA15.jpg,FS,4,num_6,32,num_8,0.916750112419,,,2017_Sep_22_1527,59.9963437913,FEMA4ImagesEEG,001,101800,
AFSA21.JPG,AFNE23.JPG,AFNE21.JPG,AFSA25.JPG,AFNE25.JPG,AFSA23.JPG,0,6,6,4,,,,,,,,,,,,,,,,,,,,,,,AFNE12.jpg,AFSA16.jpg,AFNE10.jpg,AFSA08.jpg,AFSA16.jpg,FS,4,num_6,32,num_8,0.983413593073,,,2017_Sep_22_1527,59.9963437913,FEMA4ImagesEEG,001,101800,
AMNE23.JPG,AMNE24.JPG,AMNE22.JPG,AMSA24.JPG,AMSA22.JPG,AMSA23.JPG,0,7,7,9,,,,,,,,,,,,,,,,,,,,,,,AFNE09.jpg,AFSA09.jpg,AFSA03.jpg,AFNE13.jpg,AFNE09.jpg,FN,3,num_8,16,num_8,0.700147925103,,,2017_Sep_22_1527,59.9963437913,FEMA4ImagesEEG,001,101800,
AMSA21.JPG,AMNE23.JPG,AMNE21.JPG,AMSA25.JPG,AMNE25.JPG,AMSA23.JPG,0,8,8,5,,,,,,,,,,,,,,,,,,,,,,,AFSA16.jpg,AFNE05.jpg,AFSA04.jpg,AFNE04.jpg,AFNE04.jpg,FN,3,num_4,32,num_8,1.41679790262,,,2017_Sep_22_1527,59.9963437913,FEMA4ImagesEEG,001,101800,
AMNE22.JPG,AMSA24.JPG,AMSA22.JPG,AMNE25.JPG,AMNE24.JPG,AMSA25.JPG,0,9,9,7,,,,,,,,,,,,,,,,,,,,,,,AFNE14.jpg,AFNE06.jpg,AFSA01.jpg,AFSA15.jpg,AFNE14.jpg,FN,3,num_8,32,num_4,1.10041394653,,,2017_Sep_22_1527,59.9963437913,FEMA4ImagesEEG,001,101800,
AMSA21.JPG,AMNE22.JPG,AMNE21.JPG,AMSA23.JPG,AMSA22.JPG,AMNE23.JPG,,,,,0,0,0,1,,,,,,,,,,,,,,,,,,,AMNE18.jpg,AMNE16.jpg,AMSA04.jpg,AMSA14.jpg,AMNE16.jpg,MN,1,num_6,16,num_6,0.750153153159,,,2017_Sep_22_1527,59.9963437913,FEMA4ImagesEEG,001,101800,
AFSA21.JPG,AFNE22.JPG,AFNE21.JPG,AFSA23.JPG,AFSA22.JPG,AFNE23.JPG,,,,,0,1,1,0,,,,,,,,,,,,,,,,,,,AMSA11.jpg,AMNE11.jpg,AMSA12.jpg,AMNE16.jpg,AMNE16.jpg,MN,1,num_4,16,num_4,0.700144076228,,,2017_Sep_22_1527,59.9963437913,FEMA4ImagesEEG,001,101800,
AMSA25.JPG,AMNE24.JPG,AMSA24.JPG,AMNE26.JPG,AMSA21.JPG,AMNE25.JPG,,,,,0,2,2,3,,,,,,,,,,,,,,,,,,,AMNE14.jpg,AMSA01.jpg,AMSA10.jpg,AMNE18.jpg,AMNE14.jpg,MN,1,num_8,16,num_8,0.916606421079,,,2017_Sep_22_1527,59.9963437913,FEMA4ImagesEEG,001,101800,
AMNE23.JPG,AMNE24.JPG,AMNE22.JPG,AMSA24.JPG,AMSA22.JPG,AMSA23.JPG,,,,,0,3,3,9,,,,,,,,,,,,,,,,,,,AMNE20.jpg,AMSA19.jpg,AMSA10.jpg,AMNE09.jpg,AMSA19.jpg,MS,2,num_6,16,num_6,1.2001065497,,,2017_Sep_22_1527,59.9963437913,FEMA4ImagesEEG,001,101800,
AFNE23.JPG,AFNE24.JPG,AFNE22.JPG,AFSA24.JPG,AFSA22.JPG,AFSA23.JPG,,,,,0,4,4,8,,,,,,,,,,,,,,,,,,,AMNE16.jpg,AMSA03.jpg,AMSA02.jpg,AMNE10.jpg,AMSA02.jpg,MS,2,num_2,32,num_6,1.10013073346,,,2017_Sep_22_1527,59.9963437913,FEMA4ImagesEEG,001,101800,
AMSA21.JPG,AMNE23.JPG,AMNE21.JPG,AMSA25.JPG,AMNE25.JPG,AMSA23.JPG,,,,,0,5,5,5,,,,,,,,,,,,,,,,,,,AMNE10.jpg,AMNE15.jpg,AMSA19.jpg,AMSA09.jpg,AMSA09.jpg,MS,2,num_4,16,num_4,1.51676281371,,,2017_Sep_22_1527,59.9963437913,FEMA4ImagesEEG,001,101800,
AFSA21.JPG,AFNE23.JPG,AFNE21.JPG,AFSA25.JPG,AFNE25.JPG,AFSA23.JPG,,,,,0,6,6,4,,,,,,,,,,,,,,,,,,,AMSA12.jpg,AMSA15.jpg,AMNE16.jpg,AMNE17.jpg,AMSA15.jpg,MS,2,num_6,16,num_6,1.28327047906,,,2017_Sep_22_1527,59.9963437913,FEMA4ImagesEEG,001,101800,
AMNE22.JPG,AMSA24.JPG,AMSA22.JPG,AMNE25.JPG,AMNE24.JPG,AMSA25.JPG,,,,,0,7,7,7,,,,,,,,,,,,,,,,,,,AMSA12.jpg,AMNE06.jpg,AMNE09.jpg,AMSA15.jpg,AMNE06.jpg,MN,1,num_6,32,num_8,0.816808294583,,,2017_Sep_22_1527,59.9963437913,FEMA4ImagesEEG,001,101800,
AFSA25.JPG,AFNE24.JPG,AFSA24.JPG,AFNE21.JPG,AFSA21.JPG,AFNE25.JPG,,,,,0,8,8,2,,,,,,,,,,,,,,,,,,,AMSA12.jpg,AMNE01.jpg,AMSA20.jpg,AMNE03.jpg,AMNE01.jpg,MN,1,num_6,16,num_6,0.900123933782,,,2017_Sep_22_1527,59.9963437913,FEMA4ImagesEEG,001,101800,
AFNE22.JPG,AFSA24.JPG,AFSA22.JPG,AFNE25.JPG,AFNE24.JPG,AFSA25.JPG,,,,,0,9,9,6,,,,,,,,,,,,,,,,,,,AMSA10.jpg,AMSA06.jpg,AMNE10.jpg,AMNE15.jpg,AMNE10.jpg,MN,1,num_2,32,num_4,1.06677894691,,,2017_Sep_22_1527,59.9963437913,FEMA4ImagesEEG,001,101800,
AMNE23.JPG,AMNE24.JPG,AMNE22.JPG,AMSA24.JPG,AMSA22.JPG,AMSA23.JPG,,,,,,,,,0,0,0,9,,,,,,,,,,,,,,,AFSA02.jpg,AFNE11.jpg,AFSA04.jpg,AFNE20.jpg,AFNE20.jpg,FN,3,num_4,32,num_8,0.800195587008,,,2017_Sep_22_1527,59.9963437913,FEMA4ImagesEEG,001,101800,
AFSA21.JPG,AFNE23.JPG,AFNE21.JPG,AFSA25.JPG,AFNE25.JPG,AFSA23.JPG,,,,,,,,,0,1,1,4,,,,,,,,,,,,,,,AFSA20.jpg,AFNE15.jpg,AFSA13.jpg,AFNE14.jpg,AFNE15.jpg,FN,3,num_6,16,num_6,0.950160915057,,,2017_Sep_22_1527,59.9963437913,FEMA4ImagesEEG,001,101800,
AFNE23.JPG,AFNE24.JPG,AFNE22.JPG,AFSA24.JPG,AFSA22.JPG,AFSA23.JPG,,,,,,,,,0,2,2,8,,,,,,,,,,,,,,,AFNE10.jpg,AFSA08.jpg,AFSA14.jpg,AFNE05.jpg,AFSA14.jpg,FS,4,num_2,16,num_2,1.7834311696,,,2017_Sep_22_1527,59.9963437913,FEMA4ImagesEEG,001,101800,
AFSA21.JPG,AFNE22.JPG,AFNE21.JPG,AFSA23.JPG,AFSA22.JPG,AFNE23.JPG,,,,,,,,,0,3,3,0,,,,,,,,,,,,,,,AFNE07.jpg,AFNE14.jpg,AFSA01.jpg,AFSA18.jpg,AFSA01.jpg,FS,4,num_2,16,num_2,0.883465360444,,,2017_Sep_22_1527,59.9963437913,FEMA4ImagesEEG,001,101800,
AMSA25.JPG,AMNE24.JPG,AMSA24.JPG,AMNE26.JPG,AMSA21.JPG,AMNE25.JPG,,,,,,,,,0,4,4,3,,,,,,,,,,,,,,,AFSA15.jpg,AFSA14.jpg,AFNE05.jpg,AFNE01.jpg,AFNE05.jpg,FN,3,num_2,32,num_6,1.01683145198,,,2017_Sep_22_1527,59.9963437913,FEMA4ImagesEEG,001,101800,
AMNE22.JPG,AMSA24.JPG,AMSA22.JPG,AMNE25.JPG,AMNE24.JPG,AMSA25.JPG,,,,,,,,,0,5,5,7,,,,,,,,,,,,,,,AFNE20.jpg,AFNE07.jpg,AFSA10.jpg,AFSA04.jpg,AFNE07.jpg,FN,3,num_6,16,num_6,0.766765219254,,,2017_Sep_22_1527,59.9963437913,FEMA4ImagesEEG,001,101800,
AMSA21.JPG,AMNE23.JPG,AMNE21.JPG,AMSA25.JPG,AMNE25.JPG,AMSA23.JPG,,,,,,,,,0,6,6,5,,,,,,,,,,,,,,,AFSA20.jpg,AFNE15.jpg,AFSA03.jpg,AFNE03.jpg,AFSA20.jpg,FS,4,num_8,32,num_2,0.883498075883,,,2017_Sep_22_1527,59.9963437913,FEMA4ImagesEEG,001,101800,
AMSA21.JPG,AMNE22.JPG,AMNE21.JPG,AMSA23.JPG,AMSA22.JPG,AMNE23.JPG,,,,,,,,,0,7,7,1,,,,,,,,,,,,,,,AFNE14.jpg,AFNE10.jpg,AFSA02.jpg,AFSA19.jpg,AFSA19.jpg,FS,4,num_4,32,num_2,0.750032234329,,,2017_Sep_22_1527,59.9963437913,FEMA4ImagesEEG,001,101800,
AFSA25.JPG,AFNE24.JPG,AFSA24.JPG,AFNE21.JPG,AFSA21.JPG,AFNE25.JPG,,,,,,,,,0,8,8,2,,,,,,,,,,,,,,,AFSA09.jpg,AFSA05.jpg,AFNE04.jpg,AFNE20.jpg,AFSA05.jpg,FS,4,num_6,16,num_6,1.03346789429,,,2017_Sep_22_1527,59.9963437913,FEMA4ImagesEEG,001,101800,
AFNE22.JPG,AFSA24.JPG,AFSA22.JPG,AFNE25.JPG,AFNE24.JPG,AFSA25.JPG,,,,,,,,,0,9,9,6,,,,,,,,,,,,,,,AFSA01.jpg,AFNE05.jpg,AFSA15.jpg,AFNE03.jpg,AFNE03.jpg,FN,3,num_4,16,num_4,1.11676845872,,,2017_Sep_22_1527,59.9963437913,FEMA4ImagesEEG,001,101800,
AFSA21.JPG,AFNE22.JPG,AFNE21.JPG,AFSA23.JPG,AFSA22.JPG,AFNE23.JPG,,,,,,,,,,,,,0,0,0,0,,,,,,,,,,,AMSA14.jpg,AMNE05.jpg,AMNE19.jpg,AMSA18.jpg,AMNE05.jpg,MN,1,num_6,16,num_6,0.666817628105,,,2017_Sep_22_1527,59.9963437913,FEMA4ImagesEEG,001,101800,
AMSA21.JPG,AMNE22.JPG,AMNE21.JPG,AMSA23.JPG,AMSA22.JPG,AMNE23.JPG,,,,,,,,,,,,,0,1,1,1,,,,,,,,,,,AMNE15.jpg,AMNE14.jpg,AMSA17.jpg,AMSA14.jpg,AMSA14.jpg,MS,2,num_4,32,num_6,0.900460068882,,,2017_Sep_22_1527,59.9963437913,FEMA4ImagesEEG,001,101800,
AFNE22.JPG,AFSA24.JPG,AFSA22.JPG,AFNE25.JPG,AFNE24.JPG,AFSA25.JPG,,,,,,,,,,,,,0,2,2,6,,,,,,,,,,,AMSA05.jpg,AMSA17.jpg,AMNE18.jpg,AMNE05.jpg,AMNE18.jpg,MN,1,num_2,32,num_6,1.16675668758,,,2017_Sep_22_1527,59.9963437913,FEMA4ImagesEEG,001,101800,
AFSA25.JPG,AFNE24.JPG,AFSA24.JPG,AFNE21.JPG,AFSA21.JPG,AFNE25.JPG,,,,,,,,,,,,,0,3,3,2,,,,,,,,,,,AMNE09.jpg,AMSA03.jpg,AMSA19.jpg,AMNE17.jpg,AMNE17.jpg,MN,1,num_4,16,num_4,1.10010282912,,,2017_Sep_22_1527,59.9963437913,FEMA4ImagesEEG,001,101800,
AFSA21.JPG,AFNE23.JPG,AFNE21.JPG,AFSA25.JPG,AFNE25.JPG,AFSA23.JPG,,,,,,,,,,,,,0,4,4,4,,,,,,,,,,,AMNE17.jpg,AMSA01.jpg,AMSA19.jpg,AMNE18.jpg,AMSA01.jpg,MS,2,num_6,32,num_2,0.883448681985,,,2017_Sep_22_1527,59.9963437913,FEMA4ImagesEEG,001,101800,
AMSA25.JPG,AMNE24.JPG,AMSA24.JPG,AMNE26.JPG,AMSA21.JPG,AMNE25.JPG,,,,,,,,,,,,,0,5,5,3,,,,,,,,,,,AMNE13.jpg,AMNE18.jpg,AMSA10.jpg,AMSA02.jpg,AMSA10.jpg,MS,2,num_2,32,num_6,0.666800949646,,,2017_Sep_22_1527,59.9963437913,FEMA4ImagesEEG,001,101800,
AMNE22.JPG,AMSA24.JPG,AMSA22.JPG,AMNE25.JPG,AMNE24.JPG,AMSA25.JPG,,,,,,,,,,,,,0,6,6,7,,,,,,,,,,,AMSA07.jpg,AMNE04.jpg,AMNE16.jpg,AMSA12.jpg,AMSA07.jpg,MS,2,num_8,16,num_8,0.100233049393,,,2017_Sep_22_1527,59.9963437913,FEMA4ImagesEEG,001,101800,
AMSA21.JPG,AMNE23.JPG,AMNE21.JPG,AMSA25.JPG,AMNE25.JPG,AMSA23.JPG,,,,,,,,,,,,,0,7,7,5,,,,,,,,,,,AMNE15.jpg,AMSA10.jpg,AMSA15.jpg,AMNE03.jpg,AMNE03.jpg,MN,1,num_4,16,num_4,0.850150779686,,,2017_Sep_22_1527,59.9963437913,FEMA4ImagesEEG,001,101800,
AMNE23.JPG,AMNE24.JPG,AMNE22.JPG,AMSA24.JPG,AMSA22.JPG,AMSA23.JPG,,,,,,,,,,,,,0,8,8,9,,,,,,,,,,,AMNE05.jpg,AMSA06.jpg,AMNE15.jpg,AMSA07.jpg,AMNE15.jpg,MN,1,num_2,32,num_8,0.900138046324,,,2017_Sep_22_1527,59.9963437913,FEMA4ImagesEEG,001,101800,
AFNE23.JPG,AFNE24.JPG,AFNE22.JPG,AFSA24.JPG,AFSA22.JPG,AFSA23.JPG,,,,,,,,,,,,,0,9,9,8,,,,,,,,,,,AMSA17.jpg,AMNE14.jpg,AMSA14.jpg,AMNE07.jpg,AMSA14.jpg,MS,2,num_2,16,num_2,0.800134646484,,,2017_Sep_22_1527,59.9963437913,FEMA4ImagesEEG,001,101800,
AFSA21.JPG,AFNE22.JPG,AFNE21.JPG,AFSA23.JPG,AFSA22.JPG,AFNE23.JPG,,,,,,,,,,,,,,,,,0,0,0,0,,,,,,,AFSA17.jpg,AFNE12.jpg,AFSA01.jpg,AFNE10.jpg,AFSA01.jpg,FS,4,num_2,32,num_6,0.150196902041,,,2017_Sep_22_1527,59.9963437913,FEMA4ImagesEEG,001,101800,
AMSA21.JPG,AMNE22.JPG,AMNE21.JPG,AMSA23.JPG,AMSA22.JPG,AMNE23.JPG,,,,,,,,,,,,,,,,,0,1,1,1,,,,,,,AFNE19.jpg,AFSA17.jpg,AFNE18.jpg,AFSA12.jpg,AFSA12.jpg,FS,4,num_4,16,num_4,0.5001279751,,,2017_Sep_22_1527,59.9963437913,FEMA4ImagesEEG,001,101800,
AFSA21.JPG,AFNE23.JPG,AFNE21.JPG,AFSA25.JPG,AFNE25.JPG,AFSA23.JPG,,,,,,,,,,,,,,,,,0,2,2,4,,,,,,,AFSA12.jpg,AFNE06.jpg,AFNE14.jpg,AFSA06.jpg,AFSA12.jpg,FS,4,num_8,16,num_8,0.483542209652,,,2017_Sep_22_1527,59.9963437913,FEMA4ImagesEEG,001,101800,
AMSA25.JPG,AMNE24.JPG,AMSA24.JPG,AMNE26.JPG,AMSA21.JPG,AMNE25.JPG,,,,,,,,,,,,,,,,,0,3,3,3,,,,,,,AFSA06.jpg,AFSA02.jpg,AFNE12.jpg,AFNE07.jpg,AFNE12.jpg,FN,3,num_2,32,num_4,0.95014295364,,,2017_Sep_22_1527,59.9963437913,FEMA4ImagesEEG,001,101800,
AFNE23.JPG,AFNE24.JPG,AFNE22.JPG,AFSA24.JPG,AFSA22.JPG,AFSA23.JPG,,,,,,,,,,,,,,,,,0,4,4,8,,,,,,,AFSA06.jpg,AFNE10.jpg,AFSA04.jpg,AFNE15.jpg,AFNE15.jpg,FN,3,num_4,16,num_4,0.933476041073,,,2017_Sep_22_1527,59.9963437913,FEMA4ImagesEEG,001,101800,
AMNE22.JPG,AMSA24.JPG,AMSA22.JPG,AMNE25.JPG,AMNE24.JPG,AMSA25.JPG,,,,,,,,,,,,,,,,,0,5,5,7,,,,,,,AFSA01.jpg,AFNE09.jpg,AFNE20.jpg,AFSA07.jpg,AFNE09.jpg,FN,3,num_6,16,num_6,0.733505805707,,,2017_Sep_22_1527,59.9963437913,FEMA4ImagesEEG,001,101800,
AFSA25.JPG,AFNE24.JPG,AFSA24.JPG,AFNE21.JPG,AFSA21.JPG,AFNE25.JPG,,,,,,,,,,,,,,,,,0,6,6,2,,,,,,,AFNE18.jpg,AFSA20.jpg,AFNE11.jpg,AFSA05.jpg,AFNE18.jpg,FN,3,num_8,16,num_8,0.533514080789,,,2017_Sep_22_1527,59.9963437913,FEMA4ImagesEEG,001,101800,
AFNE22.JPG,AFSA24.JPG,AFSA22.JPG,AFNE25.JPG,AFNE24.JPG,AFSA25.JPG,,,,,,,,,,,,,,,,,0,7,7,6,,,,,,,AFNE18.jpg,AFSA19.jpg,AFNE11.jpg,AFSA10.jpg,AFNE11.jpg,FN,3,num_2,32,num_8,0.600167618515,,,2017_Sep_22_1527,59.9963437913,FEMA4ImagesEEG,001,101800,
AMNE23.JPG,AMNE24.JPG,AMNE22.JPG,AMSA24.JPG,AMSA22.JPG,AMSA23.JPG,,,,,,,,,,,,,,,,,0,8,8,9,,,,,,,AFSA01.jpg,AFSA14.jpg,AFNE20.jpg,AFNE10.jpg,AFSA14.jpg,FS,4,num_6,32,num_8,0.583499422989,,,2017_Sep_22_1527,59.9963437913,FEMA4ImagesEEG,001,101800,
AMSA21.JPG,AMNE23.JPG,AMNE21.JPG,AMSA25.JPG,AMNE25.JPG,AMSA23.JPG,,,,,,,,,,,,,,,,,0,9,9,5,,,,,,,AFSA02.jpg,AFNE06.jpg,AFSA04.jpg,AFNE13.jpg,AFNE13.jpg,FN,3,num_4,32,num_8,1.45008650347,,,2017_Sep_22_1527,59.9963437913,FEMA4ImagesEEG,001,101800,
AFSA25.JPG,AFNE24.JPG,AFSA24.JPG,AFNE21.JPG,AFSA21.JPG,AFNE25.JPG,,,,,,,,,,,,,,,,,,,,,0,0,0,2,,,AMSA09.jpg,AMSA06.jpg,AMNE20.jpg,AMNE19.jpg,AMSA09.jpg,MS,2,num_8,32,num_6,0.950126275181,,,2017_Sep_22_1527,59.9963437913,FEMA4ImagesEEG,001,101800,
AFNE22.JPG,AFSA24.JPG,AFSA22.JPG,AFNE25.JPG,AFNE24.JPG,AFSA25.JPG,,,,,,,,,,,,,,,,,,,,,0,1,1,6,,,AMSA13.jpg,AMSA07.jpg,AMNE05.jpg,AMNE11.jpg,AMNE05.jpg,MN,1,num_2,16,num_2,0.850120309424,,,2017_Sep_22_1527,59.9963437913,FEMA4ImagesEEG,001,101800,
AFSA21.JPG,AFNE22.JPG,AFNE21.JPG,AFSA23.JPG,AFSA22.JPG,AFNE23.JPG,,,,,,,,,,,,,,,,,,,,,0,2,2,0,,,AMNE03.jpg,AMNE17.jpg,AMSA07.jpg,AMSA08.jpg,AMSA08.jpg,MS,2,num_4,32,num_8,0.383534640197,,,2017_Sep_22_1527,59.9963437913,FEMA4ImagesEEG,001,101800,
AMSA21.JPG,AMNE23.JPG,AMNE21.JPG,AMSA25.JPG,AMNE25.JPG,AMSA23.JPG,,,,,,,,,,,,,,,,,,,,,0,3,3,5,,,AMSA17.jpg,AMSA08.jpg,AMNE15.jpg,AMNE10.jpg,AMSA17.jpg,MS,2,num_8,32,num_6,0.566767400284,,,2017_Sep_22_1527,59.9963437913,FEMA4ImagesEEG,001,101800,
AMNE23.JPG,AMNE24.JPG,AMNE22.JPG,AMSA24.JPG,AMSA22.JPG,AMSA23.JPG,,,,,,,,,,,,,,,,,,,,,0,4,4,9,,,AMNE02.jpg,AMNE09.jpg,AMSA05.jpg,AMSA12.jpg,AMNE09.jpg,MN,1,num_6,32,num_2,0.866807107846,,,2017_Sep_22_1527,59.9963437913,FEMA4ImagesEEG,001,101800,
AMNE22.JPG,AMSA24.JPG,AMSA22.JPG,AMNE25.JPG,AMNE24.JPG,AMSA25.JPG,,,,,,,,,,,,,,,,,,,,,0,5,5,7,,,AMNE04.jpg,AMNE01.jpg,AMSA02.jpg,AMSA18.jpg,AMNE04.jpg,MN,1,num_8,16,num_8,1.66670857664,,,2017_Sep_22_1527,59.9963437913,FEMA4ImagesEEG,001,101800,
AMSA21.JPG,AMNE22.JPG,AMNE21.JPG,AMSA23.JPG,AMSA22.JPG,AMNE23.JPG,,,,,,,,,,,,,,,,,,,,,0,6,6,1,,,AMSA03.jpg,AMNE14.jpg,AMNE06.jpg,AMSA13.jpg,AMNE14.jpg,MN,1,num_6,16,num_6,0.783491468647,,,2017_Sep_22_1527,59.9963437913,FEMA4ImagesEEG,001,101800,
AMSA25.JPG,AMNE24.JPG,AMSA24.JPG,AMNE26.JPG,AMSA21.JPG,AMNE25.JPG,,,,,,,,,,,,,,,,,,,,,0,7,7,3,,,AMNE14.jpg,AMSA08.jpg,AMNE02.jpg,AMSA14.jpg,AMNE14.jpg,MN,1,num_8,16,num_8,1.0735994745,,,2017_Sep_22_1527,59.9963437913,FEMA4ImagesEEG,001,101800,
AFSA21.JPG,AFNE23.JPG,AFNE21.JPG,AFSA25.JPG,AFNE25.JPG,AFSA23.JPG,,,,,,,,,,,,,,,,,,,,,0,8,8,4,,,AMNE01.jpg,AMNE13.jpg,AMSA16.jpg,AMSA05.jpg,AMSA05.jpg,MS,2,num_4,16,num_4,0.866765732438,,,2017_Sep_22_1527,59.9963437913,FEMA4ImagesEEG,001,101800,
AFNE23.JPG,AFNE24.JPG,AFNE22.JPG,AFSA24.JPG,AFSA22.JPG,AFSA23.JPG,,,,,,,,,,,,,,,,,,,,,0,9,9,8,,,AMNE18.jpg,AMSA14.jpg,AMSA09.jpg,AMNE12.jpg,AMNE12.jpg,MN,1,num_4,16,num_4,1.48345560996,,,2017_Sep_22_1527,59.9963437913,FEMA4ImagesEEG,001,101800,
,,,,,,,,,,,,,,,,,,,,,,,,,,,,,,,,,,,,,,,,,,,space,4.5331869264,2017_Sep_22_1527,59.9963437913,FEMA4ImagesEEG,001,101800,
AFNE01.JPG,AFNE01.JPG,AFNE01.JPG,AFNE01.JPG,AFNE01.JPG,AFNE01.JPG,0,0,0,2,,,,,,,,,,,,,,,,,,,,,,,AFNE08.jpg,AFNE02.jpg,AFSA02.jpg,AFSA10.jpg,AFSA10.jpg,FS,4,num_4,16,num_4,0.600215087975,,,2017_Sep_22_1527,59.9963437913,FEMA4ImagesEEG,001,101800,
AFNE01.JPG,AFNE01.JPG,AFNE01.JPG,AFNE01.JPG,AFNE01.JPG,AFNE01.JPG,0,1,1,6,,,,,,,,,,,,,,,,,,,,,,,AFNE20.jpg,AFNE09.jpg,AFSA08.jpg,AFSA14.jpg,AFSA14.jpg,FS,4,num_4,16,num_4,1.01676634184,,,2017_Sep_22_1527,59.9963437913,FEMA4ImagesEEG,001,101800,
AFNE01.JPG,AFNE01.JPG,AFNE01.JPG,AFNE01.JPG,AFNE01.JPG,AFNE01.JPG,0,2,2,8,,,,,,,,,,,,,,,,,,,,,,,AFSA13.jpg,AFSA05.jpg,AFNE20.jpg,AFNE09.jpg,AFSA13.jpg,FS,4,num_8,16,num_8,0.950157066182,,,2017_Sep_22_1527,59.9963437913,FEMA4ImagesEEG,001,101800,
AFNE01.JPG,AFNE01.JPG,AFNE01.JPG,AFNE01.JPG,AFNE01.JPG,AFNE01.JPG,0,3,3,4,,,,,,,,,,,,,,,,,,,,,,,AFSA09.jpg,AFSA12.jpg,AFNE16.jpg,AFNE13.jpg,AFNE16.jpg,FN,3,num_2,32,num_8,1.3001404198,,,2017_Sep_22_1527,59.9963437913,FEMA4ImagesEEG,001,101800,
AFNE01.JPG,AFNE01.JPG,AFNE01.JPG,AFNE01.JPG,AFNE01.JPG,AFNE01.JPG,0,4,4,5,,,,,,,,,,,,,,,,,,,,,,,AFSA10.jpg,AFNE17.jpg,AFNE16.jpg,AFSA19.jpg,AFNE17.jpg,FN,3,num_6,32,num_2,1.45010574785,,,2017_Sep_22_1527,59.9963437913,FEMA4ImagesEEG,001,101800,
AFNE01.JPG,AFNE01.JPG,AFNE01.JPG,AFNE01.JPG,AFNE01.JPG,AFNE01.JPG,0,5,5,3,,,,,,,,,,,,,,,,,,,,,,,AFSA05.jpg,AFSA10.jpg,AFNE01.jpg,AFNE16.jpg,AFNE16.jpg,FN,3,num_4,16,num_4,0.450154821005,,,2017_Sep_22_1527,59.9963437913,FEMA4ImagesEEG,001,101800,
AFNE01.JPG,AFNE01.JPG,AFNE01.JPG,AFNE01.JPG,AFNE01.JPG,AFNE01.JPG,0,6,6,1,,,,,,,,,,,,,,,,,,,,,,,AFSA19.jpg,AFSA20.jpg,AFNE18.jpg,AFNE04.jpg,AFNE04.jpg,FN,3,num_4,32,num_2,0.483489287618,,,2017_Sep_22_1527,59.9963437913,FEMA4ImagesEEG,001,101800,
AFNE01.JPG,AFNE01.JPG,AFNE01.JPG,AFNE01.JPG,AFNE01.JPG,AFNE01.JPG,0,7,7,9,,,,,,,,,,,,,,,,,,,,,,,AFSA20.jpg,AFNE10.jpg,AFNE16.jpg,AFSA11.jpg,AFNE10.jpg,FN,3,num_6,16,num_6,0.850173552198,,,2017_Sep_22_1527,59.9963437913,FEMA4ImagesEEG,001,101800,
AFNE01.JPG,AFNE01.JPG,AFNE01.JPG,AFNE01.JPG,AFNE01.JPG,AFNE01.JPG,0,8,8,0,,,,,,,,,,,,,,,,,,,,,,,AFNE19.jpg,AFSA02.jpg,AFSA11.jpg,AFNE03.jpg,AFNE03.jpg,FN,3,num_4,16,num_4,0.450133652191,,,2017_Sep_22_1527,59.9963437913,FEMA4ImagesEEG,001,101800,
AFNE01.JPG,AFNE01.JPG,AFNE01.JPG,AFNE01.JPG,AFNE01.JPG,AFNE01.JPG,0,9,9,7,,,,,,,,,,,,,,,,,,,,,,,AFNE17.jpg,AFSA01.jpg,AFNE02.jpg,AFSA02.jpg,AFNE02.jpg,FN,3,num_2,16,num_2,0.416851466133,,,2017_Sep_22_1527,59.9963437913,FEMA4ImagesEEG,001,101800,
AFNE01.JPG,AFNE01.JPG,AFNE01.JPG,AFNE01.JPG,AFNE01.JPG,AFNE01.JPG,1,0,10,2,,,,,,,,,,,,,,,,,,,,,,,AFNE06.jpg,AFNE16.jpg,AFSA04.jpg,AFSA09.jpg,AFNE16.jpg,FN,3,num_6,16,num_6,0.583491404499,,,2017_Sep_22_1527,59.9963437913,FEMA4ImagesEEG,001,101800,
AFNE01.JPG,AFNE01.JPG,AFNE01.JPG,AFNE01.JPG,AFNE01.JPG,AFNE01.JPG,1,1,11,5,,,,,,,,,,,,,,,,,,,,,,,AFNE13.jpg,AFSA12.jpg,AFSA07.jpg,AFNE07.jpg,AFNE13.jpg,FN,3,num_8,16,num_8,0.400151838126,,,2017_Sep_22_1527,59.9963437913,FEMA4ImagesEEG,001,101800,
AFNE01.JPG,AFNE01.JPG,AFNE01.JPG,AFNE01.JPG,AFNE01.JPG,AFNE01.JPG,1,2,12,8,,,,,,,,,,,,,,,,,,,,,,,AFSA01.jpg,AFSA07.jpg,AFNE19.jpg,AFNE02.jpg,AFNE02.jpg,FN,3,num_4,16,num_4,0.516807075772,,,2017_Sep_22_1527,59.9963437913,FEMA4ImagesEEG,001,101800,
AFNE01.JPG,AFNE01.JPG,AFNE01.JPG,AFNE01.JPG,AFNE01.JPG,AFNE01.JPG,1,3,13,7,,,,,,,,,,,,,,,,,,,,,,,AFSA19.jpg,AFNE16.jpg,AFSA04.jpg,AFNE05.jpg,AFNE16.jpg,FN,3,num_6,16,num_6,0.400161781054,,,2017_Sep_22_1527,59.9963437913,FEMA4ImagesEEG,001,101800,
AFNE01.JPG,AFNE01.JPG,AFNE01.JPG,AFNE01.JPG,AFNE01.JPG,AFNE01.JPG,1,4,14,9,,,,,,,,,,,,,,,,,,,,,,,AFSA15.jpg,AFNE11.jpg,AFSA09.jpg,AFNE17.jpg,AFSA09.jpg,FS,4,num_2,32,num_4,0.983524248235,,,2017_Sep_22_1527,59.9963437913,FEMA4ImagesEEG,001,101800,
AFNE01.JPG,AFNE01.JPG,AFNE01.JPG,AFNE01.JPG,AFNE01.JPG,AFNE01.JPG,1,5,15,4,,,,,,,,,,,,,,,,,,,,,,,AFSA20.jpg,AFNE06.jpg,AFNE17.jpg,AFSA14.jpg,AFNE17.jpg,FN,3,num_2,16,num_2,1.11675594988,,,2017_Sep_22_1527,59.9963437913,FEMA4ImagesEEG,001,101800,
AFNE01.JPG,AFNE01.JPG,AFNE01.JPG,AFNE01.JPG,AFNE01.JPG,AFNE01.JPG,1,6,16,1,,,,,,,,,,,,,,,,,,,,,,,AFSA19.jpg,AFSA17.jpg,AFNE16.jpg,AFNE04.jpg,AFSA19.jpg,FS,4,num_8,32,num_6,1.01677820921,,,2017_Sep_22_1527,59.9963437913,FEMA4ImagesEEG,001,101800,
AFNE01.JPG,AFNE01.JPG,AFNE01.JPG,AFNE01.JPG,AFNE01.JPG,AFNE01.JPG,1,7,17,6,,,,,,,,,,,,,,,,,,,,,,,AFNE15.jpg,AFSA04.jpg,AFSA20.jpg,AFNE18.jpg,AFSA20.jpg,FS,4,num_2,16,num_2,0.766823593861,,,2017_Sep_22_1527,59.9963437913,FEMA4ImagesEEG,001,101800,
AFNE01.JPG,AFNE01.JPG,AFNE01.JPG,AFNE01.JPG,AFNE01.JPG,AFNE01.JPG,1,8,18,3,,,,,,,,,,,,,,,,,,,,,,,AFSA06.jpg,AFNE16.jpg,AFSA03.jpg,AFNE12.jpg,AFSA03.jpg,FS,4,num_2,32,num_6,1.30012534504,,,2017_Sep_22_1527,59.9963437913,FEMA4ImagesEEG,001,101800,
AFNE01.JPG,AFNE01.JPG,AFNE01.JPG,AFNE01.JPG,AFNE01.JPG,AFNE01.JPG,1,9,19,0,,,,,,,,,,,,,,,,,,,,,,,AFSA09.jpg,AFSA13.jpg,AFNE01.jpg,AFNE19.jpg,AFSA09.jpg,FS,4,num_8,16,num_8,0.466741548672,,,2017_Sep_22_1527,59.9963437913,FEMA4ImagesEEG,001,101800,
AFNE01.JPG,AFNE01.JPG,AFNE01.JPG,AFNE01.JPG,AFNE01.JPG,AFNE01.JPG,2,0,20,1,,,,,,,,,,,,,,,,,,,,,,,AFNE13.jpg,AFSA12.jpg,AFSA01.jpg,AFNE02.jpg,AFNE13.jpg,FN,3,num_8,16,num_8,1.5834744053,,,2017_Sep_22_1527,59.9963437913,FEMA4ImagesEEG,001,101800,
AFNE01.JPG,AFNE01.JPG,AFNE01.JPG,AFNE01.JPG,AFNE01.JPG,AFNE01.JPG,2,1,21,3,,,,,,,,,,,,,,,,,,,,,,,AFNE07.jpg,AFNE06.jpg,AFSA16.jpg,AFSA14.jpg,AFSA14.jpg,FS,4,num_4,16,num_4,1.00011899439,,,2017_Sep_22_1527,59.9963437913,FEMA4ImagesEEG,001,101800,
AFNE01.JPG,AFNE01.JPG,AFNE01.JPG,AFNE01.JPG,AFNE01.JPG,AFNE01.JPG,2,2,22,8,,,,,,,,,,,,,,,,,,,,,,,AFNE19.jpg,AFSA03.jpg,AFSA17.jpg,AFNE01.jpg,AFNE01.jpg,FN,3,num_4,32,num_6,1.08347536752,,,2017_Sep_22_1527,59.9963437913,FEMA4ImagesEEG,001,101800,
AFNE01.JPG,AFNE01.JPG,AFNE01.JPG,AFNE01.JPG,AFNE01.JPG,AFNE01.JPG,2,3,23,2,,,,,,,,,,,,,,,,,,,,,,,AFNE12.jpg,AFSA08.jpg,AFSA09.jpg,AFNE14.jpg,AFNE12.jpg,FN,3,num_8,32,num_2,0.933428250872,,,2017_Sep_22_1527,59.9963437913,FEMA4ImagesEEG,001,101800,
AFNE01.JPG,AFNE01.JPG,AFNE01.JPG,AFNE01.JPG,AFNE01.JPG,AFNE01.JPG,2,4,24,0,,,,,,,,,,,,,,,,,,,,,,,AFSA17.jpg,AFSA08.jpg,AFNE18.jpg,AFNE14.jpg,AFNE18.jpg,FN,3,num_2,16,num_2,0.500190198582,,,2017_Sep_22_1527,59.9963437913,FEMA4ImagesEEG,001,101800,
AFNE01.JPG,AFNE01.JPG,AFNE01.JPG,AFNE01.JPG,AFNE01.JPG,AFNE01.JPG,2,5,25,5,,,,,,,,,,,,,,,,,,,,,,,AFSA14.jpg,AFNE11.jpg,AFNE20.jpg,AFSA06.jpg,AFSA06.jpg,FS,4,num_4,16,num_4,1.01680771725,,,2017_Sep_22_1527,59.9963437913,FEMA4ImagesEEG,001,101800,
AFNE01.JPG,AFNE01.JPG,AFNE01.JPG,AFNE01.JPG,AFNE01.JPG,AFNE01.JPG,2,6,26,4,,,,,,,,,,,,,,,,,,,,,,,AFNE02.jpg,AFSA10.jpg,AFSA08.jpg,AFNE04.jpg,AFSA10.jpg,FS,4,num_6,16,num_6,1.08347632974,,,2017_Sep_22_1527,59.9963437913,FEMA4ImagesEEG,001,101800,
AFNE01.JPG,AFNE01.JPG,AFNE01.JPG,AFNE01.JPG,AFNE01.JPG,AFNE01.JPG,2,7,27,9,,,,,,,,,,,,,,,,,,,,,,,AFSA20.jpg,AFNE13.jpg,AFNE20.jpg,AFSA19.jpg,AFSA19.jpg,FS,4,num_4,16,num_4,0.900130348573,,,2017_Sep_22_1527,59.9963437913,FEMA4ImagesEEG,001,101800,
AFNE01.JPG,AFNE01.JPG,AFNE01.JPG,AFNE01.JPG,AFNE01.JPG,AFNE01.JPG,2,8,28,7,,,,,,,,,,,,,,,,,,,,,,,AFSA08.jpg,AFSA15.jpg,AFNE02.jpg,AFNE19.jpg,AFNE02.jpg,FN,3,num_2,32,num_8,1.01676345519,,,2017_Sep_22_1527,59.9963437913,FEMA4ImagesEEG,001,101800,
AFNE01.JPG,AFNE01.JPG,AFNE01.JPG,AFNE01.JPG,AFNE01.JPG,AFNE01.JPG,2,9,29,6,,,,,,,,,,,,,,,,,,,,,,,AFSA04.jpg,AFNE02.jpg,AFNE01.jpg,AFSA16.jpg,AFNE01.jpg,FN,3,num_2,16,num_2,0.666794855593,,,2017_Sep_22_1527,59.9963437913,FEMA4ImagesEEG,001,101800,
AFNE01.JPG,AFNE01.JPG,AFNE01.JPG,AFNE01.JPG,AFNE01.JPG,AFNE01.JPG,3,0,30,5,,,,,,,,,,,,,,,,,,,,,,,AFSA03.jpg,AFSA05.jpg,AFNE14.jpg,AFNE02.jpg,AFNE02.jpg,FN,3,num_4,32,num_2,1.2334320356,,,2017_Sep_22_1527,59.9963437913,FEMA4ImagesEEG,001,101800,
AFNE01.JPG,AFNE01.JPG,AFNE01.JPG,AFNE01.JPG,AFNE01.JPG,AFNE01.JPG,3,1,31,7,,,,,,,,,,,,,,,,,,,,,,,AFSA13.jpg,AFSA17.jpg,AFNE19.jpg,AFNE14.jpg,AFSA17.jpg,FS,4,num_6,16,num_6,0.933262749239,,,2017_Sep_22_1527,59.9963437913,FEMA4ImagesEEG,001,101800,
AFNE01.JPG,AFNE01.JPG,AFNE01.JPG,AFNE01.JPG,AFNE01.JPG,AFNE01.JPG,3,2,32,0,,,,,,,,,,,,,,,,,,,,,,,AFNE08.jpg,AFSA10.jpg,AFSA17.jpg,AFNE02.jpg,AFSA17.jpg,FS,4,num_2,16,num_2,0.883457341954,,,2017_Sep_22_1527,59.9963437913,FEMA4ImagesEEG,001,101800,
AFNE01.JPG,AFNE01.JPG,AFNE01.JPG,AFNE01.JPG,AFNE01.JPG,AFNE01.JPG,3,3,33,4,,,,,,,,,,,,,,,,,,,,,,,AFNE10.jpg,AFNE05.jpg,AFSA18.jpg,AFSA05.jpg,AFNE05.jpg,FN,3,num_6,32,num_8,1.03346019654,,,2017_Sep_22_1527,59.9963437913,FEMA4ImagesEEG,001,101800,
AFNE01.JPG,AFNE01.JPG,AFNE01.JPG,AFNE01.JPG,AFNE01.JPG,AFNE01.JPG,3,4,34,9,,,,,,,,,,,,,,,,,,,,,,,AFSA19.jpg,AFSA12.jpg,AFNE13.jpg,AFNE15.jpg,AFNE13.jpg,FN,3,num_2,32,num_8,0.900152800345,,,2017_Sep_22_1527,59.9963437913,FEMA4ImagesEEG,001,101800,
AFNE01.JPG,AFNE01.JPG,AFNE01.JPG,AFNE01.JPG,AFNE01.JPG,AFNE01.JPG,3,5,35,1,,,,,,,,,,,,,,,,,,,,,,,AFNE05.jpg,AFSA09.jpg,AFNE12.jpg,AFSA12.jpg,AFSA12.jpg,FS,4,num_4,32,num_2,0.650201713134,,,2017_Sep_22_1527,59.9963437913,FEMA4ImagesEEG,001,101800,
AFNE01.JPG,AFNE01.JPG,AFNE01.JPG,AFNE01.JPG,AFNE01.JPG,AFNE01.JPG,3,6,36,2,,,,,,,,,,,,,,,,,,,,,,,AFNE02.jpg,AFNE15.jpg,AFSA07.jpg,AFSA05.jpg,AFNE02.jpg,FN,3,num_8,16,num_8,0.633448200875,,,2017_Sep_22_1527,59.9963437913,FEMA4ImagesEEG,001,101800,
AFNE01.JPG,AFNE01.JPG,AFNE01.JPG,AFNE01.JPG,AFNE01.JPG,AFNE01.JPG,3,7,37,8,,,,,,,,,,,,,,,,,,,,,,,AFNE01.jpg,AFSA02.jpg,AFNE04.jpg,AFSA03.jpg,AFNE01.jpg,FN,3,num_8,32,num_6,0.600134261597,,,2017_Sep_22_1527,59.9963437913,FEMA4ImagesEEG,001,101800,
AFNE01.JPG,AFNE01.JPG,AFNE01.JPG,AFNE01.JPG,AFNE01.JPG,AFNE01.JPG,3,8,38,6,,,,,,,,,,,,,,,,,,,,,,,AFSA05.jpg,AFNE13.jpg,AFSA12.jpg,AFNE06.jpg,AFSA05.jpg,FS,4,num_8,16,num_8,0.866831804795,,,2017_Sep_22_1527,59.9963437913,FEMA4ImagesEEG,001,101800,
AFNE01.JPG,AFNE01.JPG,AFNE01.JPG,AFNE01.JPG,AFNE01.JPG,AFNE01.JPG,3,9,39,3,,,,,,,,,,,,,,,,,,,,,,,AFNE19.jpg,AFNE18.jpg,AFSA13.jpg,AFSA19.jpg,AFNE19.jpg,FN,3,num_8,32,num_2,0.816781993935,,,2017_Sep_22_1527,59.9963437913,FEMA4ImagesEEG,001,101800,
AFNE01.JPG,AFNE01.JPG,AFNE01.JPG,AFNE01.JPG,AFNE01.JPG,AFNE01.JPG,4,0,40,6,,,,,,,,,,,,,,,,,,,,,,,AFSA07.jpg,AFNE06.jpg,AFSA08.jpg,AFNE17.jpg,AFNE06.jpg,FN,3,num_6,16,num_6,0.700002309325,,,2017_Sep_22_1527,59.9963437913,FEMA4ImagesEEG,001,101800,
AFNE01.JPG,AFNE01.JPG,AFNE01.JPG,AFNE01.JPG,AFNE01.JPG,AFNE01.JPG,4,1,41,3,,,,,,,,,,,,,,,,,,,,,,,AFSA08.jpg,AFSA16.jpg,AFNE17.jpg,AFNE07.jpg,AFNE17.jpg,FN,3,num_2,32,num_8,1.4167199629,,,2017_Sep_22_1527,59.9963437913,FEMA4ImagesEEG,001,101800,
AFNE01.JPG,AFNE01.JPG,AFNE01.JPG,AFNE01.JPG,AFNE01.JPG,AFNE01.JPG,4,2,42,4,,,,,,,,,,,,,,,,,,,,,,,AFSA09.jpg,AFNE17.jpg,AFSA08.jpg,AFNE05.jpg,AFNE17.jpg,FN,3,num_6,32,num_8,0.866759638385,,,2017_Sep_22_1527,59.9963437913,FEMA4ImagesEEG,001,101800,
AFNE01.JPG,AFNE01.JPG,AFNE01.JPG,AFNE01.JPG,AFNE01.JPG,AFNE01.JPG,4,3,43,8,,,,,,,,,,,,,,,,,,,,,,,AFNE12.jpg,AFSA02.jpg,AFNE20.jpg,AFSA09.jpg,AFSA09.jpg,FS,4,num_4,16,num_4,1.0334566684,,,2017_Sep_22_1527,59.9963437913,FEMA4ImagesEEG,001,101800,
AFNE01.JPG,AFNE01.JPG,AFNE01.JPG,AFNE01.JPG,AFNE01.JPG,AFNE01.JPG,4,4,44,9,,,,,,,,,,,,,,,,,,,,,,,AFNE13.jpg,AFNE17.jpg,AFSA13.jpg,AFSA04.jpg,AFNE13.jpg,FN,3,num_8,32,num_4,1.23345801551,,,2017_Sep_22_1527,59.9963437913,FEMA4ImagesEEG,001,101800,
AFNE01.JPG,AFNE01.JPG,AFNE01.JPG,AFNE01.JPG,AFNE01.JPG,AFNE01.JPG,4,5,45,2,,,,,,,,,,,,,,,,,,,,,,,AFNE08.jpg,AFSA11.jpg,AFSA07.jpg,AFNE19.jpg,AFNE19.jpg,FN,3,num_4,16,num_4,1.10012816754,,,2017_Sep_22_1527,59.9963437913,FEMA4ImagesEEG,001,101800,
AFNE01.JPG,AFNE01.JPG,AFNE01.JPG,AFNE01.JPG,AFNE01.JPG,AFNE01.JPG,4,6,46,5,,,,,,,,,,,,,,,,,,,,,,,AFNE02.jpg,AFNE03.jpg,AFSA19.jpg,AFSA20.jpg,AFNE03.jpg,FN,3,num_6,16,num_6,0.600156392629,,,2017_Sep_22_1527,59.9963437913,FEMA4ImagesEEG,001,101800,
AFNE01.JPG,AFNE01.JPG,AFNE01.JPG,AFNE01.JPG,AFNE01.JPG,AFNE01.JPG,4,7,47,0,,,,,,,,,,,,,,,,,,,,,,,AFSA09.jpg,AFNE09.jpg,AFSA10.jpg,AFNE20.jpg,AFSA09.jpg,FS,4,num_8,16,num_8,0.933473475156,,,2017_Sep_22_1527,59.9963437913,FEMA4ImagesEEG,001,101800,
AFNE01.JPG,AFNE01.JPG,AFNE01.JPG,AFNE01.JPG,AFNE01.JPG,AFNE01.JPG,4,8,48,1,,,,,,,,,,,,,,,,,,,,,,,AFNE12.jpg,AFSA16.jpg,AFNE20.jpg,AFSA04.jpg,AFSA04.jpg,FS,4,num_4,16,num_4,0.65015680959,,,2017_Sep_22_1527,59.9963437913,FEMA4ImagesEEG,001,101800,
AFNE01.JPG,AFNE01.JPG,AFNE01.JPG,AFNE01.JPG,AFNE01.JPG,AFNE01.JPG,4,9,49,7,,,,,,,,,,,,,,,,,,,,,,,AFNE18.jpg,AFSA02.jpg,AFSA16.jpg,AFNE15.jpg,AFSA16.jpg,FS,4,num_2,16,num_2,0.866774392407,,,2017_Sep_22_1527,59.9963437913,FEMA4ImagesEEG,001,101800,
AFNE01.JPG,AFNE01.JPG,AFNE01.JPG,AFNE01.JPG,AFNE01.JPG,AFNE01.JPG,5,0,50,3,,,,,,,,,,,,,,,,,,,,,,,AFSA15.jpg,AFSA02.jpg,AFNE09.jpg,AFNE14.jpg,AFNE14.jpg,FN,3,num_4,16,num_4,2.46690063551,,,2017_Sep_22_1527,59.9963437913,FEMA4ImagesEEG,001,101800,
AFNE01.JPG,AFNE01.JPG,AFNE01.JPG,AFNE01.JPG,AFNE01.JPG,AFNE01.JPG,5,1,51,8,,,,,,,,,,,,,,,,,,,,,,,AFSA07.jpg,AFNE09.jpg,AFNE07.jpg,AFSA09.jpg,AFSA09.jpg,FS,4,num_4,32,num_8,0.8500269742,,,2017_Sep_22_1527,59.9963437913,FEMA4ImagesEEG,001,101800,
AFNE01.JPG,AFNE01.JPG,AFNE01.JPG,AFNE01.JPG,AFNE01.JPG,AFNE01.JPG,5,2,52,5,,,,,,,,,,,,,,,,,,,,,,,AFNE20.jpg,AFSA02.jpg,AFNE14.jpg,AFSA03.jpg,AFNE14.jpg,FN,3,num_2,16,num_2,0.56679402167,,,2017_Sep_22_1527,59.9963437913,FEMA4ImagesEEG,001,101800,
AFNE01.JPG,AFNE01.JPG,AFNE01.JPG,AFNE01.JPG,AFNE01.JPG,AFNE01.JPG,5,3,53,0,,,,,,,,,,,,,,,,,,,,,,,AFNE02.jpg,AFSA01.jpg,AFNE08.jpg,AFSA05.jpg,AFNE08.jpg,FN,3,num_2,32,num_8,0.800041632,,,2017_Sep_22_1527,59.9963437913,FEMA4ImagesEEG,001,101800,
AFNE01.JPG,AFNE01.JPG,AFNE01.JPG,AFNE01.JPG,AFNE01.JPG,AFNE01.JPG,5,4,54,6,,,,,,,,,,,,,,,,,,,,,,,AFSA17.jpg,AFNE09.jpg,AFSA13.jpg,AFNE03.jpg,AFNE03.jpg,FN,3,num_4,16,num_4,0.716717332832,,,2017_Sep_22_1527,59.9963437913,FEMA4ImagesEEG,001,101800,
AFNE01.JPG,AFNE01.JPG,AFNE01.JPG,AFNE01.JPG,AFNE01.JPG,AFNE01.JPG,5,5,55,1,,,,,,,,,,,,,,,,,,,,,,,AFNE03.jpg,AFSA13.jpg,AFSA14.jpg,AFNE06.jpg,AFSA13.jpg,FS,4,num_6,32,num_2,1.11676300615,,,2017_Sep_22_1527,59.9963437913,FEMA4ImagesEEG,001,101800,
AFNE01.JPG,AFNE01.JPG,AFNE01.JPG,AFNE01.JPG,AFNE01.JPG,AFNE01.JPG,5,6,56,2,,,,,,,,,,,,,,,,,,,,,,,AFSA18.jpg,AFSA20.jpg,AFNE18.jpg,AFNE14.jpg,AFSA18.jpg,FS,4,num_8,16,num_8,0.950155462484,,,2017_Sep_22_1527,59.9963437913,FEMA4ImagesEEG,001,101800,
AFNE01.JPG,AFNE01.JPG,AFNE01.JPG,AFNE01.JPG,AFNE01.JPG,AFNE01.JPG,5,7,57,9,,,,,,,,,,,,,,,,,,,,,,,AFNE05.jpg,AFSA10.jpg,AFNE12.jpg,AFSA07.jpg,AFNE12.jpg,FN,3,num_2,16,num_2,1.56683186894,,,2017_Sep_22_1527,59.9963437913,FEMA4ImagesEEG,001,101800,
AFNE01.JPG,AFNE01.JPG,AFNE01.JPG,AFNE01.JPG,AFNE01.JPG,AFNE01.JPG,5,8,58,7,,,,,,,,,,,,,,,,,,,,,,,AFSA10.jpg,AFNE15.jpg,AFNE18.jpg,AFSA20.jpg,AFSA10.jpg,FS,4,num_8,32,num_6,0.566774456555,,,2017_Sep_22_1527,59.9963437913,FEMA4ImagesEEG,001,101800,
AFNE01.JPG,AFNE01.JPG,AFNE01.JPG,AFNE01.JPG,AFNE01.JPG,AFNE01.JPG,5,9,59,4,,,,,,,,,,,,,,,,,,,,,,,AFSA06.jpg,AFNE12.jpg,AFSA13.jpg,AFNE09.jpg,AFSA06.jpg,FS,4,num_8,32,num_2,0.766802745788,,,2017_Sep_22_1527,59.9963437913,FEMA4ImagesEEG,001,101800,
,,,,,,,,,,,,,,,,,,,,,,,,,,,,,,,,,,,,,,,,,,,space,2.899947527,2017_Sep_22_1527,59.9963437913,FEMA4ImagesEEG,001,101800,
AFNE01.JPG,AFNE01.JPG,AFNE01.JPG,AFNE01.JPG,AFNE01.JPG,AFNE01.JPG,,,,,0,0,0,4,,,,,,,,,,,,,,,,,,,AMSA18.jpg,AMNE03.jpg,AMNE05.jpg,AMSA13.jpg,AMSA18.jpg,MS,2,num_8,16,num_8,0.533391237523,,,2017_Sep_22_1527,59.9963437913,FEMA4ImagesEEG,001,101800,
AFNE01.JPG,AFNE01.JPG,AFNE01.JPG,AFNE01.JPG,AFNE01.JPG,AFNE01.JPG,,,,,0,1,1,7,,,,,,,,,,,,,,,,,,,AMNE03.jpg,AMNE11.jpg,AMSA05.jpg,AMSA18.jpg,AMNE03.jpg,MN,1,num_8,32,num_6,0.783489864949,,,2017_Sep_22_1527,59.9963437913,FEMA4ImagesEEG,001,101800,
AFNE01.JPG,AFNE01.JPG,AFNE01.JPG,AFNE01.JPG,AFNE01.JPG,AFNE01.JPG,,,,,0,2,2,9,,,,,,,,,,,,,,,,,,,AMSA06.jpg,AMSA13.jpg,AMNE16.jpg,AMNE12.jpg,AMNE12.jpg,MN,1,num_4,16,num_4,0.916793091526,,,2017_Sep_22_1527,59.9963437913,FEMA4ImagesEEG,001,101800,
AFNE01.JPG,AFNE01.JPG,AFNE01.JPG,AFNE01.JPG,AFNE01.JPG,AFNE01.JPG,,,,,0,3,3,3,,,,,,,,,,,,,,,,,,,AMNE04.jpg,AMSA02.jpg,AMSA20.jpg,AMNE08.jpg,AMNE08.jpg,MN,1,num_4,16,num_4,0.450155141744,,,2017_Sep_22_1527,59.9963437913,FEMA4ImagesEEG,001,101800,
AFNE01.JPG,AFNE01.JPG,AFNE01.JPG,AFNE01.JPG,AFNE01.JPG,AFNE01.JPG,,,,,0,4,4,6,,,,,,,,,,,,,,,,,,,AMSA20.jpg,AMNE03.jpg,AMSA19.jpg,AMNE19.jpg,AMSA20.jpg,MS,2,num_8,32,num_4,1.01685775263,,,2017_Sep_22_1527,59.9963437913,FEMA4ImagesEEG,001,101800,
AFNE01.JPG,AFNE01.JPG,AFNE01.JPG,AFNE01.JPG,AFNE01.JPG,AFNE01.JPG,,,,,0,5,5,0,,,,,,,,,,,,,,,,,,,AMNE09.jpg,AMSA07.jpg,AMNE16.jpg,AMSA10.jpg,AMSA07.jpg,MS,2,num_6,16,num_6,0.516809962428,,,2017_Sep_22_1527,59.9963437913,FEMA4ImagesEEG,001,101800,
AFNE01.JPG,AFNE01.JPG,AFNE01.JPG,AFNE01.JPG,AFNE01.JPG,AFNE01.JPG,,,,,0,6,6,5,,,,,,,,,,,,,,,,,,,AMSA13.jpg,AMSA08.jpg,AMNE16.jpg,AMNE19.jpg,AMNE19.jpg,MN,1,num_4,32,num_8,0.783442716228,,,2017_Sep_22_1527,59.9963437913,FEMA4ImagesEEG,001,101800,
AFNE01.JPG,AFNE01.JPG,AFNE01.JPG,AFNE01.JPG,AFNE01.JPG,AFNE01.JPG,,,,,0,7,7,2,,,,,,,,,,,,,,,,,,,AMSA15.jpg,AMSA01.jpg,AMNE12.jpg,AMNE04.jpg,AMNE04.jpg,MN,1,num_4,16,num_4,0.616838059218,,,2017_Sep_22_1527,59.9963437913,FEMA4ImagesEEG,001,101800,
AFNE01.JPG,AFNE01.JPG,AFNE01.JPG,AFNE01.JPG,AFNE01.JPG,AFNE01.JPG,,,,,0,8,8,1,,,,,,,,,,,,,,,,,,,AMSA03.jpg,AMSA16.jpg,AMNE02.jpg,AMNE08.jpg,AMSA16.jpg,MS,2,num_6,16,num_6,0.516788472875,,,2017_Sep_22_1527,59.9963437913,FEMA4ImagesEEG,001,101800,
AFNE01.JPG,AFNE01.JPG,AFNE01.JPG,AFNE01.JPG,AFNE01.JPG,AFNE01.JPG,,,,,0,9,9,8,,,,,,,,,,,,,,,,,,,AMNE12.jpg,AMSA17.jpg,AMNE08.jpg,AMSA04.jpg,AMSA04.jpg,MS,2,num_4,16,num_4,0.650015363427,,,2017_Sep_22_1527,59.9963437913,FEMA4ImagesEEG,001,101800,
AFNE01.JPG,AFNE01.JPG,AFNE01.JPG,AFNE01.JPG,AFNE01.JPG,AFNE01.JPG,,,,,1,0,10,5,,,,,,,,,,,,,,,,,,,AMSA07.jpg,AMNE13.jpg,AMSA12.jpg,AMNE15.jpg,AMSA12.jpg,MS,2,num_2,32,num_8,1.03346853577,,,2017_Sep_22_1527,59.9963437913,FEMA4ImagesEEG,001,101800,
AFNE01.JPG,AFNE01.JPG,AFNE01.JPG,AFNE01.JPG,AFNE01.JPG,AFNE01.JPG,,,,,1,1,11,1,,,,,,,,,,,,,,,,,,,AMNE05.jpg,AMNE04.jpg,AMSA17.jpg,AMSA18.jpg,AMSA17.jpg,MS,2,num_2,32,num_8,0.81678648429,,,2017_Sep_22_1527,59.9963437913,FEMA4ImagesEEG,001,101800,
AFNE01.JPG,AFNE01.JPG,AFNE01.JPG,AFNE01.JPG,AFNE01.JPG,AFNE01.JPG,,,,,1,2,12,9,,,,,,,,,,,,,,,,,,,AMSA02.jpg,AMNE06.jpg,AMSA15.jpg,AMNE04.jpg,AMSA02.jpg,MS,2,num_8,32,num_2,1.36677952424,,,2017_Sep_22_1527,59.9963437913,FEMA4ImagesEEG,001,101800,
AFNE01.JPG,AFNE01.JPG,AFNE01.JPG,AFNE01.JPG,AFNE01.JPG,AFNE01.JPG,,,,,1,3,13,8,,,,,,,,,,,,,,,,,,,AMSA07.jpg,AMNE03.jpg,AMNE09.jpg,AMSA20.jpg,AMSA20.jpg,MS,2,num_4,32,num_6,1.40010116127,,,2017_Sep_22_1527,59.9963437913,FEMA4ImagesEEG,001,101800,
AFNE01.JPG,AFNE01.JPG,AFNE01.JPG,AFNE01.JPG,AFNE01.JPG,AFNE01.JPG,,,,,1,4,14,0,,,,,,,,,,,,,,,,,,,AMSA17.jpg,AMSA16.jpg,AMNE20.jpg,AMNE16.jpg,AMSA16.jpg,MS,2,num_6,32,num_4,0.666792931156,,,2017_Sep_22_1527,59.9963437913,FEMA4ImagesEEG,001,101800,
AFNE01.JPG,AFNE01.JPG,AFNE01.JPG,AFNE01.JPG,AFNE01.JPG,AFNE01.JPG,,,,,1,5,15,7,,,,,,,,,,,,,,,,,,,AMSA13.jpg,AMNE11.jpg,AMNE05.jpg,AMSA17.jpg,AMNE11.jpg,MN,1,num_6,32,num_8,0.816791936863,,,2017_Sep_22_1527,59.9963437913,FEMA4ImagesEEG,001,101800,
AFNE01.JPG,AFNE01.JPG,AFNE01.JPG,AFNE01.JPG,AFNE01.JPG,AFNE01.JPG,,,,,1,6,16,4,,,,,,,,,,,,,,,,,,,AMNE11.jpg,AMSA15.jpg,AMSA03.jpg,AMNE10.jpg,AMNE10.jpg,MN,1,num_4,16,num_4,0.766790236943,,,2017_Sep_22_1527,59.9963437913,FEMA4ImagesEEG,001,101800,
AFNE01.JPG,AFNE01.JPG,AFNE01.JPG,AFNE01.JPG,AFNE01.JPG,AFNE01.JPG,,,,,1,7,17,2,,,,,,,,,,,,,,,,,,,AMSA02.jpg,AMNE14.jpg,AMNE15.jpg,AMSA17.jpg,AMNE14.jpg,MN,1,num_6,16,num_6,0.866778562022,,,2017_Sep_22_1527,59.9963437913,FEMA4ImagesEEG,001,101800,
AFNE01.JPG,AFNE01.JPG,AFNE01.JPG,AFNE01.JPG,AFNE01.JPG,AFNE01.JPG,,,,,1,8,18,3,,,,,,,,,,,,,,,,,,,AMNE02.jpg,AMNE17.jpg,AMSA17.jpg,AMSA02.jpg,AMSA17.jpg,MS,2,num_2,16,num_2,0.63342061727,,,2017_Sep_22_1527,59.9963437913,FEMA4ImagesEEG,001,101800,
AFNE01.JPG,AFNE01.JPG,AFNE01.JPG,AFNE01.JPG,AFNE01.JPG,AFNE01.JPG,,,,,1,9,19,6,,,,,,,,,,,,,,,,,,,AMNE09.jpg,AMSA10.jpg,AMNE15.jpg,AMSA03.jpg,AMNE15.jpg,MN,1,num_2,32,num_8,0.883507056592,,,2017_Sep_22_1527,59.9963437913,FEMA4ImagesEEG,001,101800,
AFNE01.JPG,AFNE01.JPG,AFNE01.JPG,AFNE01.JPG,AFNE01.JPG,AFNE01.JPG,,,,,2,0,20,5,,,,,,,,,,,,,,,,,,,AMSA07.jpg,AMSA04.jpg,AMNE10.jpg,AMNE08.jpg,AMNE08.jpg,MN,1,num_4,32,num_2,0.833489961171,,,2017_Sep_22_1527,59.9963437913,FEMA4ImagesEEG,001,101800,
AFNE01.JPG,AFNE01.JPG,AFNE01.JPG,AFNE01.JPG,AFNE01.JPG,AFNE01.JPG,,,,,2,1,21,8,,,,,,,,,,,,,,,,,,,AMSA20.jpg,AMSA10.jpg,AMNE18.jpg,AMNE10.jpg,AMNE10.jpg,MN,1,num_4,32,num_8,0.800164796006,,,2017_Sep_22_1527,59.9963437913,FEMA4ImagesEEG,001,101800,
AFNE01.JPG,AFNE01.JPG,AFNE01.JPG,AFNE01.JPG,AFNE01.JPG,AFNE01.JPG,,,,,2,2,22,2,,,,,,,,,,,,,,,,,,,AMNE17.jpg,AMNE19.jpg,AMSA06.jpg,AMSA11.jpg,AMSA11.jpg,MS,2,num_4,32,num_8,0.833465905701,,,2017_Sep_22_1527,59.9963437913,FEMA4ImagesEEG,001,101800,
AFNE01.JPG,AFNE01.JPG,AFNE01.JPG,AFNE01.JPG,AFNE01.JPG,AFNE01.JPG,,,,,2,3,23,6,,,,,,,,,,,,,,,,,,,AMNE07.jpg,AMNE11.jpg,AMSA03.jpg,AMSA16.jpg,AMNE11.jpg,MN,1,num_6,32,num_8,0.550156937886,,,2017_Sep_22_1527,59.9963437913,FEMA4ImagesEEG,001,101800,
AFNE01.JPG,AFNE01.JPG,AFNE01.JPG,AFNE01.JPG,AFNE01.JPG,AFNE01.JPG,,,,,2,4,24,4,,,,,,,,,,,,,,,,,,,AMNE19.jpg,AMSA19.jpg,AMSA11.jpg,AMNE16.jpg,AMNE16.jpg,MN,1,num_4,32,num_2,1.63368747262,,,2017_Sep_22_1527,59.9963437913,FEMA4ImagesEEG,001,101800,
AFNE01.JPG,AFNE01.JPG,AFNE01.JPG,AFNE01.JPG,AFNE01.JPG,AFNE01.JPG,,,,,2,5,25,3,,,,,,,,,,,,,,,,,,,AMSA13.jpg,AMSA17.jpg,AMNE02.jpg,AMNE05.jpg,AMSA13.jpg,MS,2,num_8,16,num_8,0.916787638952,,,2017_Sep_22_1527,59.9963437913,FEMA4ImagesEEG,001,101800,
AFNE01.JPG,AFNE01.JPG,AFNE01.JPG,AFNE01.JPG,AFNE01.JPG,AFNE01.JPG,,,,,2,6,26,0,,,,,,,,,,,,,,,,,,,AMNE05.jpg,AMSA13.jpg,AMSA15.jpg,AMNE17.jpg,AMNE17.jpg,MN,1,num_4,32,num_8,0.800114439889,,,2017_Sep_22_1527,59.9963437913,FEMA4ImagesEEG,001,101800,
AFNE01.JPG,AFNE01.JPG,AFNE01.JPG,AFNE01.JPG,AFNE01.JPG,AFNE01.JPG,,,,,2,7,27,9,,,,,,,,,,,,,,,,,,,AMNE19.jpg,AMNE06.jpg,AMSA02.jpg,AMSA01.jpg,AMNE06.jpg,MN,1,num_6,16,num_6,0.633505613264,,,2017_Sep_22_1527,59.9963437913,FEMA4ImagesEEG,001,101800,
AFNE01.JPG,AFNE01.JPG,AFNE01.JPG,AFNE01.JPG,AFNE01.JPG,AFNE01.JPG,,,,,2,8,28,7,,,,,,,,,,,,,,,,,,,AMNE07.jpg,AMSA13.jpg,AMSA16.jpg,AMNE03.jpg,AMNE03.jpg,MN,1,num_4,32,num_8,0.950127237399,,,2017_Sep_22_1527,59.9963437913,FEMA4ImagesEEG,001,101800,
AFNE01.JPG,AFNE01.JPG,AFNE01.JPG,AFNE01.JPG,AFNE01.JPG,AFNE01.JPG,,,,,2,9,29,1,,,,,,,,,,,,,,,,,,,AMNE02.jpg,AMSA18.jpg,AMNE17.jpg,AMSA12.jpg,AMNE17.jpg,MN,1,num_2,32,num_4,0.966780037424,,,2017_Sep_22_1527,59.9963437913,FEMA4ImagesEEG,001,101800,
AFNE01.JPG,AFNE01.JPG,AFNE01.JPG,AFNE01.JPG,AFNE01.JPG,AFNE01.JPG,,,,,3,0,30,6,,,,,,,,,,,,,,,,,,,AMSA12.jpg,AMSA10.jpg,AMNE03.jpg,AMNE14.jpg,AMNE03.jpg,MN,1,num_2,16,num_2,1.03340663302,,,2017_Sep_22_1527,59.9963437913,FEMA4ImagesEEG,001,101800,
AFNE01.JPG,AFNE01.JPG,AFNE01.JPG,AFNE01.JPG,AFNE01.JPG,AFNE01.JPG,,,,,3,1,31,2,,,,,,,,,,,,,,,,,,,AMNE12.jpg,AMSA10.jpg,AMNE10.jpg,AMSA01.jpg,AMSA10.jpg,MS,2,num_6,16,num_6,0.900129707094,,,2017_Sep_22_1527,59.9963437913,FEMA4ImagesEEG,001,101800,
AFNE01.JPG,AFNE01.JPG,AFNE01.JPG,AFNE01.JPG,AFNE01.JPG,AFNE01.JPG,,,,,3,2,32,1,,,,,,,,,,,,,,,,,,,AMNE05.jpg,AMNE02.jpg,AMSA01.jpg,AMSA20.jpg,AMNE02.jpg,MN,1,num_6,16,num_6,1.01679649137,,,2017_Sep_22_1527,59.9963437913,FEMA4ImagesEEG,001,101800,
AFNE01.JPG,AFNE01.JPG,AFNE01.JPG,AFNE01.JPG,AFNE01.JPG,AFNE01.JPG,,,,,3,3,33,9,,,,,,,,,,,,,,,,,,,AMSA06.jpg,AMSA01.jpg,AMNE19.jpg,AMNE05.jpg,AMNE05.jpg,MN,1,num_4,32,num_2,0.900131310792,,,2017_Sep_22_1527,59.9963437913,FEMA4ImagesEEG,001,101800,
AFNE01.JPG,AFNE01.JPG,AFNE01.JPG,AFNE01.JPG,AFNE01.JPG,AFNE01.JPG,,,,,3,4,34,0,,,,,,,,,,,,,,,,,,,AMSA15.jpg,AMSA08.jpg,AMNE03.jpg,AMNE07.jpg,AMSA08.jpg,MS,2,num_6,16,num_6,0.783492751606,,,2017_Sep_22_1527,59.9963437913,FEMA4ImagesEEG,001,101800,
AFNE01.JPG,AFNE01.JPG,AFNE01.JPG,AFNE01.JPG,AFNE01.JPG,AFNE01.JPG,,,,,3,5,35,8,,,,,,,,,,,,,,,,,,,AMNE10.jpg,AMNE02.jpg,AMSA18.jpg,AMSA19.jpg,AMSA18.jpg,MS,2,num_2,32,num_8,1.33368914046,,,2017_Sep_22_1527,59.9963437913,FEMA4ImagesEEG,001,101800,
AFNE01.JPG,AFNE01.JPG,AFNE01.JPG,AFNE01.JPG,AFNE01.JPG,AFNE01.JPG,,,,,3,6,36,7,,,,,,,,,,,,,,,,,,,AMNE19.jpg,AMNE16.jpg,AMSA03.jpg,AMSA19.jpg,AMSA03.jpg,MS,2,num_2,16,num_2,0.56678664466,,,2017_Sep_22_1527,59.9963437913,FEMA4ImagesEEG,001,101800,
AFNE01.JPG,AFNE01.JPG,AFNE01.JPG,AFNE01.JPG,AFNE01.JPG,AFNE01.JPG,,,,,3,7,37,5,,,,,,,,,,,,,,,,,,,AMSA20.jpg,AMSA02.jpg,AMNE19.jpg,AMNE12.jpg,AMNE12.jpg,MN,1,num_4,32,num_2,1.10010122542,,,2017_Sep_22_1527,59.9963437913,FEMA4ImagesEEG,001,101800,
AFNE01.JPG,AFNE01.JPG,AFNE01.JPG,AFNE01.JPG,AFNE01.JPG,AFNE01.JPG,,,,,3,8,38,3,,,,,,,,,,,,,,,,,,,AMNE10.jpg,AMSA14.jpg,AMNE09.jpg,AMSA18.jpg,AMSA14.jpg,MS,2,num_6,16,num_6,0.650178619883,,,2017_Sep_22_1527,59.9963437913,FEMA4ImagesEEG,001,101800,
AFNE01.JPG,AFNE01.JPG,AFNE01.JPG,AFNE01.JPG,AFNE01.JPG,AFNE01.JPG,,,,,3,9,39,4,,,,,,,,,,,,,,,,,,,AMNE15.jpg,AMNE16.jpg,AMSA20.jpg,AMSA06.jpg,AMSA06.jpg,MS,2,num_4,32,num_6,0.883461511568,,,2017_Sep_22_1527,59.9963437913,FEMA4ImagesEEG,001,101800,
AFNE01.JPG,AFNE01.JPG,AFNE01.JPG,AFNE01.JPG,AFNE01.JPG,AFNE01.JPG,,,,,4,0,40,9,,,,,,,,,,,,,,,,,,,AMNE15.jpg,AMSA04.jpg,AMNE14.jpg,AMSA20.jpg,AMNE14.jpg,MN,1,num_2,32,num_8,1.31671944971,,,2017_Sep_22_1527,59.9963437913,FEMA4ImagesEEG,001,101800,
AFNE01.JPG,AFNE01.JPG,AFNE01.JPG,AFNE01.JPG,AFNE01.JPG,AFNE01.JPG,,,,,4,1,41,4,,,,,,,,,,,,,,,,,,,AMNE12.jpg,AMSA04.jpg,AMNE06.jpg,AMSA07.jpg,AMNE06.jpg,MN,1,num_2,16,num_2,0.816798030915,,,2017_Sep_22_1527,59.9963437913,FEMA4ImagesEEG,001,101800,
AFNE01.JPG,AFNE01.JPG,AFNE01.JPG,AFNE01.JPG,AFNE01.JPG,AFNE01.JPG,,,,,4,2,42,7,,,,,,,,,,,,,,,,,,,AMSA06.jpg,AMNE05.jpg,AMNE15.jpg,AMSA13.jpg,AMSA13.jpg,MS,2,num_4,32,num_8,0.800120533942,,,2017_Sep_22_1527,59.9963437913,FEMA4ImagesEEG,001,101800,
AFNE01.JPG,AFNE01.JPG,AFNE01.JPG,AFNE01.JPG,AFNE01.JPG,AFNE01.JPG,,,,,4,3,43,0,,,,,,,,,,,,,,,,,,,AMSA20.jpg,AMNE01.jpg,AMSA17.jpg,AMNE04.jpg,AMNE04.jpg,MN,1,num_4,16,num_4,1.0832030596,,,2017_Sep_22_1527,59.9963437913,FEMA4ImagesEEG,001,101800,
AFNE01.JPG,AFNE01.JPG,AFNE01.JPG,AFNE01.JPG,AFNE01.JPG,AFNE01.JPG,,,,,4,4,44,6,,,,,,,,,,,,,,,,,,,AMSA20.jpg,AMNE15.jpg,AMNE04.jpg,AMSA04.jpg,AMSA20.jpg,MS,2,num_8,16,num_8,1.00017319938,,,2017_Sep_22_1527,59.9963437913,FEMA4ImagesEEG,001,101800,
AFNE01.JPG,AFNE01.JPG,AFNE01.JPG,AFNE01.JPG,AFNE01.JPG,AFNE01.JPG,,,,,4,5,45,5,,,,,,,,,,,,,,,,,,,AMNE17.jpg,AMSA19.jpg,AMNE04.jpg,AMSA05.jpg,AMNE04.jpg,MN,1,num_2,32,num_6,0.95007848498,,,2017_Sep_22_1527,59.9963437913,FEMA4ImagesEEG,001,101800,
AFNE01.JPG,AFNE01.JPG,AFNE01.JPG,AFNE01.JPG,AFNE01.JPG,AFNE01.JPG,,,,,4,6,46,2,,,,,,,,,,,,,,,,,,,AMNE13.jpg,AMSA20.jpg,AMNE18.jpg,AMSA12.jpg,AMSA20.jpg,MS,2,num_6,32,num_8,0.533523702977,,,2017_Sep_22_1527,59.9963437913,FEMA4ImagesEEG,001,101800,
AFNE01.JPG,AFNE01.JPG,AFNE01.JPG,AFNE01.JPG,AFNE01.JPG,AFNE01.JPG,,,,,4,7,47,1,,,,,,,,,,,,,,,,,,,AMSA13.jpg,AMNE09.jpg,AMNE14.jpg,AMSA07.jpg,AMSA07.jpg,MS,2,num_4,32,num_2,0.750158926472,,,2017_Sep_22_1527,59.9963437913,FEMA4ImagesEEG,001,101800,
AFNE01.JPG,AFNE01.JPG,AFNE01.JPG,AFNE01.JPG,AFNE01.JPG,AFNE01.JPG,,,,,4,8,48,8,,,,,,,,,,,,,,,,,,,AMNE20.jpg,AMSA19.jpg,AMSA03.jpg,AMNE02.jpg,AMNE02.jpg,MN,1,num_4,32,num_8,0.533482006829,,,2017_Sep_22_1527,59.9963437913,FEMA4ImagesEEG,001,101800,
AFNE01.JPG,AFNE01.JPG,AFNE01.JPG,AFNE01.JPG,AFNE01.JPG,AFNE01.JPG,,,,,4,9,49,3,,,,,,,,,,,,,,,,,,,AMSA01.jpg,AMNE11.jpg,AMSA03.jpg,AMNE18.jpg,AMNE18.jpg,MN,1,num_4,32,num_6,0.566799474243,,,2017_Sep_22_1527,59.9963437913,FEMA4ImagesEEG,001,101800,
AFNE01.JPG,AFNE01.JPG,AFNE01.JPG,AFNE01.JPG,AFNE01.JPG,AFNE01.JPG,,,,,5,0,50,6,,,,,,,,,,,,,,,,,,,AMNE01.jpg,AMSA16.jpg,AMSA11.jpg,AMNE04.jpg,AMSA16.jpg,MS,2,num_6,32,num_2,1.00014946465,,,2017_Sep_22_1527,59.9963437913,FEMA4ImagesEEG,001,101800,
AFNE01.JPG,AFNE01.JPG,AFNE01.JPG,AFNE01.JPG,AFNE01.JPG,AFNE01.JPG,,,,,5,1,51,7,,,,,,,,,,,,,,,,,,,AMNE04.jpg,AMNE13.jpg,AMSA14.jpg,AMSA17.jpg,AMNE13.jpg,MN,1,num_6,32,num_8,0.683474277005,,,2017_Sep_22_1527,59.9963437913,FEMA4ImagesEEG,001,101800,
AFNE01.JPG,AFNE01.JPG,AFNE01.JPG,AFNE01.JPG,AFNE01.JPG,AFNE01.JPG,,,,,5,2,52,5,,,,,,,,,,,,,,,,,,,AMNE13.jpg,AMSA20.jpg,AMNE01.jpg,AMSA06.jpg,AMSA20.jpg,MS,2,num_6,16,num_6,0.583470556426,,,2017_Sep_22_1527,59.9963437913,FEMA4ImagesEEG,001,101800,
AFNE01.JPG,AFNE01.JPG,AFNE01.JPG,AFNE01.JPG,AFNE01.JPG,AFNE01.JPG,,,,,5,3,53,9,,,,,,,,,,,,,,,,,,,AMSA13.jpg,AMNE08.jpg,AMSA14.jpg,AMNE02.jpg,AMNE08.jpg,MN,1,num_6,32,num_2,0.583501347427,,,2017_Sep_22_1527,59.9963437913,FEMA4ImagesEEG,001,101800,
AFNE01.JPG,AFNE01.JPG,AFNE01.JPG,AFNE01.JPG,AFNE01.JPG,AFNE01.JPG,,,,,5,4,54,3,,,,,,,,,,,,,,,,,,,AMNE18.jpg,AMSA12.jpg,AMSA14.jpg,AMNE19.jpg,AMSA14.jpg,MS,2,num_2,16,num_2,0.583497498552,,,2017_Sep_22_1527,59.9963437913,FEMA4ImagesEEG,001,101800,
AFNE01.JPG,AFNE01.JPG,AFNE01.JPG,AFNE01.JPG,AFNE01.JPG,AFNE01.JPG,,,,,5,5,55,4,,,,,,,,,,,,,,,,,,,AMSA02.jpg,AMNE08.jpg,AMSA03.jpg,AMNE09.jpg,AMSA03.jpg,MS,2,num_2,16,num_2,1.00011514552,,,2017_Sep_22_1527,59.9963437913,FEMA4ImagesEEG,001,101800,
AFNE01.JPG,AFNE01.JPG,AFNE01.JPG,AFNE01.JPG,AFNE01.JPG,AFNE01.JPG,,,,,5,6,56,8,,,,,,,,,,,,,,,,,,,AMSA11.jpg,AMNE19.jpg,AMNE05.jpg,AMSA13.jpg,AMSA11.jpg,MS,2,num_8,16,num_8,0.700159792469,,,2017_Sep_22_1527,59.9963437913,FEMA4ImagesEEG,001,101800,
AFNE01.JPG,AFNE01.JPG,AFNE01.JPG,AFNE01.JPG,AFNE01.JPG,AFNE01.JPG,,,,,5,7,57,2,,,,,,,,,,,,,,,,,,,AMSA18.jpg,AMSA06.jpg,AMNE05.jpg,AMNE14.jpg,AMNE05.jpg,MN,1,num_2,16,num_2,0.616808871914,,,2017_Sep_22_1527,59.9963437913,FEMA4ImagesEEG,001,101800,
AFNE01.JPG,AFNE01.JPG,AFNE01.JPG,AFNE01.JPG,AFNE01.JPG,AFNE01.JPG,,,,,5,8,58,1,,,,,,,,,,,,,,,,,,,AMSA16.jpg,AMNE13.jpg,AMNE17.jpg,AMSA15.jpg,AMNE13.jpg,MN,1,num_6,32,num_8,0.850284848839,,,2017_Sep_22_1527,59.9963437913,FEMA4ImagesEEG,001,101800,
AFNE01.JPG,AFNE01.JPG,AFNE01.JPG,AFNE01.JPG,AFNE01.JPG,AFNE01.JPG,,,,,5,9,59,0,,,,,,,,,,,,,,,,,,,AMNE11.jpg,AMSA14.jpg,AMNE19.jpg,AMSA08.jpg,AMNE19.jpg,MN,1,num_2,32,num_8,0.83346654718,,,2017_Sep_22_1527,59.9963437913,FEMA4ImagesEEG,001,101800,
,,,,,,,,,,,,,,,,,,,,,,,,,,,,,,,,,,,,,,,,,,,space,10.6993454346,2017_Sep_22_1527,59.9963437913,FEMA4ImagesEEG,001,101800,
AFNE01.JPG,AFNE01.JPG,AFNE01.JPG,AFNE01.JPG,AFNE01.JPG,AFNE01.JPG,,,,,,,,,0,0,0,2,,,,,,,,,,,,,,,AFNE07.jpg,AFSA14.jpg,AFNE15.jpg,AFSA06.jpg,AFNE15.jpg,FN,3,num_2,32,num_8,0.616791231236,,,2017_Sep_22_1527,59.9963437913,FEMA4ImagesEEG,001,101800,
AFNE01.JPG,AFNE01.JPG,AFNE01.JPG,AFNE01.JPG,AFNE01.JPG,AFNE01.JPG,,,,,,,,,0,1,1,4,,,,,,,,,,,,,,,AFNE14.jpg,AFNE10.jpg,AFSA17.jpg,AFSA06.jpg,AFNE10.jpg,FN,3,num_6,32,num_8,0.850168741104,,,2017_Sep_22_1527,59.9963437913,FEMA4ImagesEEG,001,101800,
AFNE01.JPG,AFNE01.JPG,AFNE01.JPG,AFNE01.JPG,AFNE01.JPG,AFNE01.JPG,,,,,,,,,0,2,2,1,,,,,,,,,,,,,,,AFNE16.jpg,AFSA15.jpg,AFSA18.jpg,AFNE17.jpg,AFSA15.jpg,FS,4,num_6,32,num_2,0.61684383253,,,2017_Sep_22_1527,59.9963437913,FEMA4ImagesEEG,001,101800,
AFNE01.JPG,AFNE01.JPG,AFNE01.JPG,AFNE01.JPG,AFNE01.JPG,AFNE01.JPG,,,,,,,,,0,3,3,3,,,,,,,,,,,,,,,AFNE15.jpg,AFNE19.jpg,AFSA09.jpg,AFSA20.jpg,AFSA20.jpg,FS,4,num_4,32,num_6,0.616836776259,,,2017_Sep_22_1527,59.9963437913,FEMA4ImagesEEG,001,101800,
AFNE01.JPG,AFNE01.JPG,AFNE01.JPG,AFNE01.JPG,AFNE01.JPG,AFNE01.JPG,,,,,,,,,0,4,4,8,,,,,,,,,,,,,,,AFSA10.jpg,AFNE08.jpg,AFSA07.jpg,AFNE19.jpg,AFSA07.jpg,FS,4,num_2,32,num_6,0.833468150879,,,2017_Sep_22_1527,59.9963437913,FEMA4ImagesEEG,001,101800,
AFNE01.JPG,AFNE01.JPG,AFNE01.JPG,AFNE01.JPG,AFNE01.JPG,AFNE01.JPG,,,,,,,,,0,5,5,6,,,,,,,,,,,,,,,AFNE15.jpg,AFSA16.jpg,AFNE07.jpg,AFSA20.jpg,AFSA20.jpg,FS,4,num_4,16,num_4,0.633480595575,,,2017_Sep_22_1527,59.9963437913,FEMA4ImagesEEG,001,101800,
AFNE01.JPG,AFNE01.JPG,AFNE01.JPG,AFNE01.JPG,AFNE01.JPG,AFNE01.JPG,,,,,,,,,0,6,6,5,,,,,,,,,,,,,,,AFSA18.jpg,AFSA13.jpg,AFNE16.jpg,AFNE13.jpg,AFSA18.jpg,FS,4,num_8,16,num_8,0.483475816555,,,2017_Sep_22_1527,59.9963437913,FEMA4ImagesEEG,001,101800,
AFNE01.JPG,AFNE01.JPG,AFNE01.JPG,AFNE01.JPG,AFNE01.JPG,AFNE01.JPG,,,,,,,,,0,7,7,0,,,,,,,,,,,,,,,AFSA06.jpg,AFSA13.jpg,AFNE18.jpg,AFNE14.jpg,AFSA13.jpg,FS,4,num_6,16,num_6,0.73351959751,,,2017_Sep_22_1527,59.9963437913,FEMA4ImagesEEG,001,101800,
AFNE01.JPG,AFNE01.JPG,AFNE01.JPG,AFNE01.JPG,AFNE01.JPG,AFNE01.JPG,,,,,,,,,0,8,8,7,,,,,,,,,,,,,,,AFNE14.jpg,AFNE06.jpg,AFSA01.jpg,AFSA09.jpg,AFNE14.jpg,FN,3,num_8,16,num_8,1.06675008034,,,2017_Sep_22_1527,59.9963437913,FEMA4ImagesEEG,001,101800,
AFNE01.JPG,AFNE01.JPG,AFNE01.JPG,AFNE01.JPG,AFNE01.JPG,AFNE01.JPG,,,,,,,,,0,9,9,9,,,,,,,,,,,,,,,AFSA01.jpg,AFNE16.jpg,AFNE05.jpg,AFSA10.jpg,AFNE16.jpg,FN,3,num_6,16,num_6,1.00011450404,,,2017_Sep_22_1527,59.9963437913,FEMA4ImagesEEG,001,101800,
AFNE01.JPG,AFNE01.JPG,AFNE01.JPG,AFNE01.JPG,AFNE01.JPG,AFNE01.JPG,,,,,,,,,1,0,10,0,,,,,,,,,,,,,,,AFSA16.jpg,AFSA10.jpg,AFNE17.jpg,AFNE12.jpg,AFSA16.jpg,FS,4,num_8,16,num_8,0.833470396055,,,2017_Sep_22_1527,59.9963437913,FEMA4ImagesEEG,001,101800,
AFNE01.JPG,AFNE01.JPG,AFNE01.JPG,AFNE01.JPG,AFNE01.JPG,AFNE01.JPG,,,,,,,,,1,1,11,8,,,,,,,,,,,,,,,AFNE08.jpg,AFSA10.jpg,AFNE11.jpg,AFSA19.jpg,AFSA10.jpg,FS,4,num_6,32,num_2,0.783492751605,,,2017_Sep_22_1527,59.9963437913,FEMA4ImagesEEG,001,101800,
AFNE01.JPG,AFNE01.JPG,AFNE01.JPG,AFNE01.JPG,AFNE01.JPG,AFNE01.JPG,,,,,,,,,1,2,12,1,,,,,,,,,,,,,,,AFNE09.jpg,AFNE08.jpg,AFSA18.jpg,AFSA08.jpg,AFSA18.jpg,FS,4,num_2,32,num_8,0.750182981942,,,2017_Sep_22_1527,59.9963437913,FEMA4ImagesEEG,001,101800,
AFNE01.JPG,AFNE01.JPG,AFNE01.JPG,AFNE01.JPG,AFNE01.JPG,AFNE01.JPG,,,,,,,,,1,3,13,3,,,,,,,,,,,,,,,AFSA11.jpg,AFNE07.jpg,AFNE05.jpg,AFSA04.jpg,AFSA04.jpg,FS,4,num_4,32,num_8,0.900207646817,,,2017_Sep_22_1527,59.9963437913,FEMA4ImagesEEG,001,101800,
AFNE01.JPG,AFNE01.JPG,AFNE01.JPG,AFNE01.JPG,AFNE01.JPG,AFNE01.JPG,,,,,,,,,1,4,14,5,,,,,,,,,,,,,,,AFNE20.jpg,AFSA05.jpg,AFNE08.jpg,AFSA08.jpg,AFNE08.jpg,FN,3,num_2,32,num_4,0.950112483378,,,2017_Sep_22_1527,59.9963437913,FEMA4ImagesEEG,001,101800,
AFNE01.JPG,AFNE01.JPG,AFNE01.JPG,AFNE01.JPG,AFNE01.JPG,AFNE01.JPG,,,,,,,,,1,5,15,4,,,,,,,,,,,,,,,AFNE15.jpg,AFSA03.jpg,AFNE12.jpg,AFSA04.jpg,AFSA04.jpg,FS,4,num_4,16,num_4,0.616816248925,,,2017_Sep_22_1527,59.9963437913,FEMA4ImagesEEG,001,101800,
AFNE01.JPG,AFNE01.JPG,AFNE01.JPG,AFNE01.JPG,AFNE01.JPG,AFNE01.JPG,,,,,,,,,1,6,16,2,,,,,,,,,,,,,,,AFSA18.jpg,AFNE17.jpg,AFSA16.jpg,AFNE08.jpg,AFSA16.jpg,FS,4,num_2,32,num_8,0.750132625825,,,2017_Sep_22_1527,59.9963437913,FEMA4ImagesEEG,001,101800,
AFNE01.JPG,AFNE01.JPG,AFNE01.JPG,AFNE01.JPG,AFNE01.JPG,AFNE01.JPG,,,,,,,,,1,7,17,9,,,,,,,,,,,,,,,AFNE09.jpg,AFNE18.jpg,AFSA06.jpg,AFSA17.jpg,AFSA17.jpg,FS,4,num_4,32,num_8,1.3667759961,,,2017_Sep_22_1527,59.9963437913,FEMA4ImagesEEG,001,101800,
AFNE01.JPG,AFNE01.JPG,AFNE01.JPG,AFNE01.JPG,AFNE01.JPG,AFNE01.JPG,,,,,,,,,1,8,18,6,,,,,,,,,,,,,,,AFNE08.jpg,AFNE18.jpg,AFSA13.jpg,AFSA20.jpg,AFNE08.jpg,FN,3,num_8,32,num_6,0.783732344086,,,2017_Sep_22_1527,59.9963437913,FEMA4ImagesEEG,001,101800,
AFNE01.JPG,AFNE01.JPG,AFNE01.JPG,AFNE01.JPG,AFNE01.JPG,AFNE01.JPG,,,,,,,,,1,9,19,7,,,,,,,,,,,,,,,AFNE17.jpg,AFNE09.jpg,AFSA15.jpg,AFSA09.jpg,AFNE17.jpg,FN,3,num_8,32,num_4,0.783507184888,,,2017_Sep_22_1527,59.9963437913,FEMA4ImagesEEG,001,101800,
AFNE01.JPG,AFNE01.JPG,AFNE01.JPG,AFNE01.JPG,AFNE01.JPG,AFNE01.JPG,,,,,,,,,2,0,20,8,,,,,,,,,,,,,,,AFSA13.jpg,AFNE05.jpg,AFNE19.jpg,AFSA09.jpg,AFNE05.jpg,FN,3,num_6,32,num_8,0.900166271409,,,2017_Sep_22_1527,59.9963437913,FEMA4ImagesEEG,001,101800,
AFNE01.JPG,AFNE01.JPG,AFNE01.JPG,AFNE01.JPG,AFNE01.JPG,AFNE01.JPG,,,,,,,,,2,1,21,1,,,,,,,,,,,,,,,AFNE20.jpg,AFSA19.jpg,AFSA11.jpg,AFNE01.jpg,AFSA11.jpg,FS,4,num_2,16,num_2,0.916778016764,,,2017_Sep_22_1527,59.9963437913,FEMA4ImagesEEG,001,101800,
AFNE01.JPG,AFNE01.JPG,AFNE01.JPG,AFNE01.JPG,AFNE01.JPG,AFNE01.JPG,,,,,,,,,2,2,22,3,,,,,,,,,,,,,,,AFSA17.jpg,AFNE08.jpg,AFSA06.jpg,AFNE16.jpg,AFSA06.jpg,FS,4,num_2,32,num_6,0.950132048493,,,2017_Sep_22_1527,59.9963437913,FEMA4ImagesEEG,001,101800,
AFNE01.JPG,AFNE01.JPG,AFNE01.JPG,AFNE01.JPG,AFNE01.JPG,AFNE01.JPG,,,,,,,,,2,3,23,2,,,,,,,,,,,,,,,AFSA19.jpg,AFNE07.jpg,AFNE05.jpg,AFSA01.jpg,AFSA01.jpg,FS,4,num_4,32,num_8,0.883505452894,,,2017_Sep_22_1527,59.9963437913,FEMA4ImagesEEG,001,101800,
AFNE01.JPG,AFNE01.JPG,AFNE01.JPG,AFNE01.JPG,AFNE01.JPG,AFNE01.JPG,,,,,,,,,2,4,24,4,,,,,,,,,,,,,,,AFNE12.jpg,AFSA15.jpg,AFNE08.jpg,AFSA07.jpg,AFSA07.jpg,FS,4,num_4,32,num_8,0.833460132389,,,2017_Sep_22_1527,59.9963437913,FEMA4ImagesEEG,001,101800,
AFNE01.JPG,AFNE01.JPG,AFNE01.JPG,AFNE01.JPG,AFNE01.JPG,AFNE01.JPG,,,,,,,,,2,5,25,6,,,,,,,,,,,,,,,AFSA18.jpg,AFNE11.jpg,AFSA05.jpg,AFNE16.jpg,AFNE11.jpg,FN,3,num_6,16,num_6,0.550177144481,,,2017_Sep_22_1527,59.9963437913,FEMA4ImagesEEG,001,101800,
AFNE01.JPG,AFNE01.JPG,AFNE01.JPG,AFNE01.JPG,AFNE01.JPG,AFNE01.JPG,,,,,,,,,2,6,26,5,,,,,,,,,,,,,,,AFNE06.jpg,AFNE01.jpg,AFSA16.jpg,AFSA02.jpg,AFNE01.jpg,FN,3,num_6,16,num_6,0.833487715994,,,2017_Sep_22_1527,59.9963437913,FEMA4ImagesEEG,001,101800,
AFNE01.JPG,AFNE01.JPG,AFNE01.JPG,AFNE01.JPG,AFNE01.JPG,AFNE01.JPG,,,,,,,,,2,7,27,7,,,,,,,,,,,,,,,AFNE08.jpg,AFSA11.jpg,AFNE18.jpg,AFSA07.jpg,AFSA07.jpg,FS,4,num_4,32,num_8,0.733531144136,,,2017_Sep_22_1527,59.9963437913,FEMA4ImagesEEG,001,101800,
AFNE01.JPG,AFNE01.JPG,AFNE01.JPG,AFNE01.JPG,AFNE01.JPG,AFNE01.JPG,,,,,,,,,2,8,28,9,,,,,,,,,,,,,,,AFNE08.jpg,AFSA13.jpg,AFSA06.jpg,AFNE13.jpg,AFNE08.jpg,FN,3,num_8,32,num_4,0.683490313984,,,2017_Sep_22_1527,59.9963437913,FEMA4ImagesEEG,001,101800,
AFNE01.JPG,AFNE01.JPG,AFNE01.JPG,AFNE01.JPG,AFNE01.JPG,AFNE01.JPG,,,,,,,,,2,9,29,0,,,,,,,,,,,,,,,AFNE15.jpg,AFNE06.jpg,AFSA09.jpg,AFSA03.jpg,AFNE06.jpg,FN,3,num_6,16,num_6,0.716764802293,,,2017_Sep_22_1527,59.9963437913,FEMA4ImagesEEG,001,101800,
AFNE01.JPG,AFNE01.JPG,AFNE01.JPG,AFNE01.JPG,AFNE01.JPG,AFNE01.JPG,,,,,,,,,3,0,30,4,,,,,,,,,,,,,,,AFNE18.jpg,AFSA16.jpg,AFSA06.jpg,AFNE05.jpg,AFNE18.jpg,FN,3,num_8,16,num_8,0.583475046779,,,2017_Sep_22_1527,59.9963437913,FEMA4ImagesEEG,001,101800,
AFNE01.JPG,AFNE01.JPG,AFNE01.JPG,AFNE01.JPG,AFNE01.JPG,AFNE01.JPG,,,,,,,,,3,1,31,6,,,,,,,,,,,,,,,AFSA06.jpg,AFSA19.jpg,AFNE12.jpg,AFNE01.jpg,AFNE12.jpg,FN,3,num_2,16,num_2,1.11677006242,,,2017_Sep_22_1527,59.9963437913,FEMA4ImagesEEG,001,101800,
AFNE01.JPG,AFNE01.JPG,AFNE01.JPG,AFNE01.JPG,AFNE01.JPG,AFNE01.JPG,,,,,,,,,3,2,32,8,,,,,,,,,,,,,,,AFSA05.jpg,AFSA16.jpg,AFNE15.jpg,AFNE11.jpg,AFNE11.jpg,FN,3,num_4,32,num_8,0.700139906614,,,2017_Sep_22_1527,59.9963437913,FEMA4ImagesEEG,001,101800,
AFNE01.JPG,AFNE01.JPG,AFNE01.JPG,AFNE01.JPG,AFNE01.JPG,AFNE01.JPG,,,,,,,,,3,3,33,2,,,,,,,,,,,,,,,AFSA15.jpg,AFNE17.jpg,AFSA16.jpg,AFNE05.jpg,AFSA16.jpg,FS,4,num_2,16,num_2,0.700157547291,,,2017_Sep_22_1527,59.9963437913,FEMA4ImagesEEG,001,101800,
AFNE01.JPG,AFNE01.JPG,AFNE01.JPG,AFNE01.JPG,AFNE01.JPG,AFNE01.JPG,,,,,,,,,3,4,34,7,,,,,,,,,,,,,,,AFSA17.jpg,AFNE16.jpg,AFSA04.jpg,AFNE08.jpg,AFNE08.jpg,FN,3,num_4,32,num_8,0.700173584271,,,2017_Sep_22_1527,59.9963437913,FEMA4ImagesEEG,001,101800,
AFNE01.JPG,AFNE01.JPG,AFNE01.JPG,AFNE01.JPG,AFNE01.JPG,AFNE01.JPG,,,,,,,,,3,5,35,3,,,,,,,,,,,,,,,AFSA11.jpg,AFSA10.jpg,AFNE16.jpg,AFNE05.jpg,AFNE05.jpg,FN,3,num_4,32,num_8,1.06665674512,,,2017_Sep_22_1527,59.9963437913,FEMA4ImagesEEG,001,101800,
AFNE01.JPG,AFNE01.JPG,AFNE01.JPG,AFNE01.JPG,AFNE01.JPG,AFNE01.JPG,,,,,,,,,3,6,36,5,,,,,,,,,,,,,,,AFNE16.jpg,AFSA12.jpg,AFSA19.jpg,AFNE12.jpg,AFSA12.jpg,FS,4,num_6,32,num_8,0.700092437153,,,2017_Sep_22_1527,59.9963437913,FEMA4ImagesEEG,001,101800,
AFNE01.JPG,AFNE01.JPG,AFNE01.JPG,AFNE01.JPG,AFNE01.JPG,AFNE01.JPG,,,,,,,,,3,7,37,1,,,,,,,,,,,,,,,AFSA18.jpg,AFSA02.jpg,AFNE16.jpg,AFNE19.jpg,AFSA02.jpg,FS,4,num_6,32,num_8,0.833440567273,,,2017_Sep_22_1527,59.9963437913,FEMA4ImagesEEG,001,101800,
AFNE01.JPG,AFNE01.JPG,AFNE01.JPG,AFNE01.JPG,AFNE01.JPG,AFNE01.JPG,,,,,,,,,3,8,38,9,,,,,,,,,,,,,,,AFNE20.jpg,AFNE17.jpg,AFSA03.jpg,AFSA01.jpg,AFNE17.jpg,FN,3,num_6,16,num_6,0.766746295618,,,2017_Sep_22_1527,59.9963437913,FEMA4ImagesEEG,001,101800,
AFNE01.JPG,AFNE01.JPG,AFNE01.JPG,AFNE01.JPG,AFNE01.JPG,AFNE01.JPG,,,,,,,,,3,9,39,0,,,,,,,,,,,,,,,AFSA12.jpg,AFNE05.jpg,AFSA13.jpg,AFNE15.jpg,AFNE05.jpg,FN,3,num_6,16,num_6,0.766796651735,,,2017_Sep_22_1527,59.9963437913,FEMA4ImagesEEG,001,101800,
AFNE01.JPG,AFNE01.JPG,AFNE01.JPG,AFNE01.JPG,AFNE01.JPG,AFNE01.JPG,,,,,,,,,4,0,40,3,,,,,,,,,,,,,,,AFSA07.jpg,AFSA02.jpg,AFNE11.jpg,AFNE04.jpg,AFSA07.jpg,FS,4,num_8,16,num_8,0.6834620889,,,2017_Sep_22_1527,59.9963437913,FEMA4ImagesEEG,001,101800,
AFNE01.JPG,AFNE01.JPG,AFNE01.JPG,AFNE01.JPG,AFNE01.JPG,AFNE01.JPG,,,,,,,,,4,1,41,6,,,,,,,,,,,,,,,AFSA02.jpg,AFNE10.jpg,AFNE08.jpg,AFSA01.jpg,AFSA01.jpg,FS,4,num_4,16,num_4,0.566824171193,,,2017_Sep_22_1527,59.9963437913,FEMA4ImagesEEG,001,101800,
AFNE01.JPG,AFNE01.JPG,AFNE01.JPG,AFNE01.JPG,AFNE01.JPG,AFNE01.JPG,,,,,,,,,4,2,42,4,,,,,,,,,,,,,,,AFSA19.jpg,AFSA06.jpg,AFNE15.jpg,AFNE02.jpg,AFSA06.jpg,FS,4,num_6,16,num_6,0.600177240703,,,2017_Sep_22_1527,59.9963437913,FEMA4ImagesEEG,001,101800,
AFNE01.JPG,AFNE01.JPG,AFNE01.JPG,AFNE01.JPG,AFNE01.JPG,AFNE01.JPG,,,,,,,,,4,3,43,2,,,,,,,,,,,,,,,AFSA01.jpg,AFNE12.jpg,AFNE03.jpg,AFSA02.jpg,AFNE03.jpg,FN,3,num_2,16,num_2,1.00012989954,,,2017_Sep_22_1527,59.9963437913,FEMA4ImagesEEG,001,101800,
AFNE01.JPG,AFNE01.JPG,AFNE01.JPG,AFNE01.JPG,AFNE01.JPG,AFNE01.JPG,,,,,,,,,4,4,44,0,,,,,,,,,,,,,,,AFSA08.jpg,AFNE20.jpg,AFNE10.jpg,AFSA11.jpg,AFNE20.jpg,FN,3,num_6,32,num_8,0.616813683007,,,2017_Sep_22_1527,59.9963437913,FEMA4ImagesEEG,001,101800,
AFNE01.JPG,AFNE01.JPG,AFNE01.JPG,AFNE01.JPG,AFNE01.JPG,AFNE01.JPG,,,,,,,,,4,5,45,7,,,,,,,,,,,,,,,AFNE18.jpg,AFNE07.jpg,AFSA14.jpg,AFSA20.jpg,AFNE07.jpg,FN,3,num_6,16,num_6,0.583490763021,,,2017_Sep_22_1527,59.9963437913,FEMA4ImagesEEG,001,101800,
AFNE01.JPG,AFNE01.JPG,AFNE01.JPG,AFNE01.JPG,AFNE01.JPG,AFNE01.JPG,,,,,,,,,4,6,46,1,,,,,,,,,,,,,,,AFSA10.jpg,AFNE03.jpg,AFSA13.jpg,AFNE10.jpg,AFSA13.jpg,FS,4,num_2,32,num_6,0.683465937776,,,2017_Sep_22_1527,59.9963437913,FEMA4ImagesEEG,001,101800,
AFNE01.JPG,AFNE01.JPG,AFNE01.JPG,AFNE01.JPG,AFNE01.JPG,AFNE01.JPG,,,,,,,,,4,7,47,8,,,,,,,,,,,,,,,AFSA11.jpg,AFSA16.jpg,AFNE02.jpg,AFNE14.jpg,AFNE14.jpg,FN,3,num_4,16,num_4,0.85010747984,,,2017_Sep_22_1527,59.9963437913,FEMA4ImagesEEG,001,101800,
AFNE01.JPG,AFNE01.JPG,AFNE01.JPG,AFNE01.JPG,AFNE01.JPG,AFNE01.JPG,,,,,,,,,4,8,48,9,,,,,,,,,,,,,,,AFSA08.jpg,AFNE10.jpg,AFSA11.jpg,AFNE12.jpg,AFNE12.jpg,FN,3,num_4,32,num_6,0.783479280542,,,2017_Sep_22_1527,59.9963437913,FEMA4ImagesEEG,001,101800,
AFNE01.JPG,AFNE01.JPG,AFNE01.JPG,AFNE01.JPG,AFNE01.JPG,AFNE01.JPG,,,,,,,,,4,9,49,5,,,,,,,,,,,,,,,AFSA04.jpg,AFSA06.jpg,AFNE20.jpg,AFNE10.jpg,AFSA04.jpg,FS,4,num_8,32,num_2,0.833441850231,,,2017_Sep_22_1527,59.9963437913,FEMA4ImagesEEG,001,101800,
AFNE01.JPG,AFNE01.JPG,AFNE01.JPG,AFNE01.JPG,AFNE01.JPG,AFNE01.JPG,,,,,,,,,5,0,50,9,,,,,,,,,,,,,,,AFSA01.jpg,AFSA14.jpg,AFNE03.jpg,AFNE18.jpg,AFNE18.jpg,FN,3,num_4,16,num_4,0.850158477437,,,2017_Sep_22_1527,59.9963437913,FEMA4ImagesEEG,001,101800,
AFNE01.JPG,AFNE01.JPG,AFNE01.JPG,AFNE01.JPG,AFNE01.JPG,AFNE01.JPG,,,,,,,,,5,1,51,6,,,,,,,,,,,,,,,AFNE09.jpg,AFNE11.jpg,AFSA20.jpg,AFSA03.jpg,AFNE11.jpg,FN,3,num_6,32,num_2,1.05014699496,,,2017_Sep_22_1527,59.9963437913,FEMA4ImagesEEG,001,101800,
AFNE01.JPG,AFNE01.JPG,AFNE01.JPG,AFNE01.JPG,AFNE01.JPG,AFNE01.JPG,,,,,,,,,5,2,52,3,,,,,,,,,,,,,,,AFSA05.jpg,AFSA06.jpg,AFNE05.jpg,AFNE03.jpg,AFSA05.jpg,FS,4,num_8,32,num_2,0.833470396055,,,2017_Sep_22_1527,59.9963437913,FEMA4ImagesEEG,001,101800,
AFNE01.JPG,AFNE01.JPG,AFNE01.JPG,AFNE01.JPG,AFNE01.JPG,AFNE01.JPG,,,,,,,,,5,3,53,4,,,,,,,,,,,,,,,AFSA17.jpg,AFNE10.jpg,AFSA07.jpg,AFNE14.jpg,AFSA07.jpg,FS,4,num_2,16,num_2,0.65017316731,,,2017_Sep_22_1527,59.9963437913,FEMA4ImagesEEG,001,101800,
AFNE01.JPG,AFNE01.JPG,AFNE01.JPG,AFNE01.JPG,AFNE01.JPG,AFNE01.JPG,,,,,,,,,5,4,54,0,,,,,,,,,,,,,,,AFNE16.jpg,AFSA02.jpg,AFSA20.jpg,AFNE02.jpg,AFSA20.jpg,FS,4,num_2,16,num_2,0.633494387378,,,2017_Sep_22_1527,59.9963437913,FEMA4ImagesEEG,001,101800,
AFNE01.JPG,AFNE01.JPG,AFNE01.JPG,AFNE01.JPG,AFNE01.JPG,AFNE01.JPG,,,,,,,,,5,5,55,2,,,,,,,,,,,,,,,AFSA07.jpg,AFSA13.jpg,AFNE18.jpg,AFNE12.jpg,AFNE18.jpg,FN,3,num_2,32,num_8,1.38352854614,,,2017_Sep_22_1527,59.9963437913,FEMA4ImagesEEG,001,101800,
AFNE01.JPG,AFNE01.JPG,AFNE01.JPG,AFNE01.JPG,AFNE01.JPG,AFNE01.JPG,,,,,,,,,5,6,56,8,,,,,,,,,,,,,,,AFSA15.jpg,AFNE12.jpg,AFNE09.jpg,AFSA02.jpg,AFSA15.jpg,FS,4,num_8,32,num_6,0.700012893732,,,2017_Sep_22_1527,59.9963437913,FEMA4ImagesEEG,001,101800,
AFNE01.JPG,AFNE01.JPG,AFNE01.JPG,AFNE01.JPG,AFNE01.JPG,AFNE01.JPG,,,,,,,,,5,7,57,1,,,,,,,,,,,,,,,AFNE07.jpg,AFSA19.jpg,AFNE13.jpg,AFSA13.jpg,AFNE13.jpg,FN,3,num_2,16,num_2,0.550126467625,,,2017_Sep_22_1527,59.9963437913,FEMA4ImagesEEG,001,101800,
AFNE01.JPG,AFNE01.JPG,AFNE01.JPG,AFNE01.JPG,AFNE01.JPG,AFNE01.JPG,,,,,,,,,5,8,58,7,,,,,,,,,,,,,,,AFSA01.jpg,AFNE05.jpg,AFNE03.jpg,AFSA10.jpg,AFSA01.jpg,FS,4,num_8,16,num_8,0.700109436351,,,2017_Sep_22_1527,59.9963437913,FEMA4ImagesEEG,001,101800,
AFNE01.JPG,AFNE01.JPG,AFNE01.JPG,AFNE01.JPG,AFNE01.JPG,AFNE01.JPG,,,,,,,,,5,9,59,5,,,,,,,,,,,,,,,AFNE06.jpg,AFSA01.jpg,AFNE05.jpg,AFSA05.jpg,AFSA05.jpg,FS,4,num_4,16,num_4,0.650292803181,,,2017_Sep_22_1527,59.9963437913,FEMA4ImagesEEG,001,101800,
,,,,,,,,,,,,,,,,,,,,,,,,,,,,,,,,,,,,,,,,,,,space,2.56662146377,2017_Sep_22_1527,59.9963437913,FEMA4ImagesEEG,001,101800,
AFNE01.JPG,AFNE01.JPG,AFNE01.JPG,AFNE01.JPG,AFNE01.JPG,AFNE01.JPG,,,,,,,,,,,,,0,0,0,6,,,,,,,,,,,AMSA02.jpg,AMSA17.jpg,AMNE03.jpg,AMNE12.jpg,AMSA17.jpg,MS,2,num_6,32,num_2,0.966748604943,,,2017_Sep_22_1527,59.9963437913,FEMA4ImagesEEG,001,101800,
AFNE01.JPG,AFNE01.JPG,AFNE01.JPG,AFNE01.JPG,AFNE01.JPG,AFNE01.JPG,,,,,,,,,,,,,0,1,1,5,,,,,,,,,,,AMSA19.jpg,AMSA16.jpg,AMNE14.jpg,AMNE07.jpg,AMNE07.jpg,MN,1,num_4,16,num_4,0.983182339821,,,2017_Sep_22_1527,59.9963437913,FEMA4ImagesEEG,001,101800,
AFNE01.JPG,AFNE01.JPG,AFNE01.JPG,AFNE01.JPG,AFNE01.JPG,AFNE01.JPG,,,,,,,,,,,,,0,2,2,9,,,,,,,,,,,AMNE19.jpg,AMSA02.jpg,AMNE01.jpg,AMSA16.jpg,AMSA16.jpg,MS,2,num_4,16,num_4,0.900142857417,,,2017_Sep_22_1527,59.9963437913,FEMA4ImagesEEG,001,101800,
AFNE01.JPG,AFNE01.JPG,AFNE01.JPG,AFNE01.JPG,AFNE01.JPG,AFNE01.JPG,,,,,,,,,,,,,0,3,3,7,,,,,,,,,,,AMSA02.jpg,AMNE15.jpg,AMNE08.jpg,AMSA12.jpg,AMNE08.jpg,MN,1,num_2,32,num_6,0.933483738823,,,2017_Sep_22_1527,59.9963437913,FEMA4ImagesEEG,001,101800,
AFNE01.JPG,AFNE01.JPG,AFNE01.JPG,AFNE01.JPG,AFNE01.JPG,AFNE01.JPG,,,,,,,,,,,,,0,4,4,1,,,,,,,,,,,AMNE05.jpg,AMSA16.jpg,AMSA15.jpg,AMNE10.jpg,AMSA15.jpg,MS,2,num_2,32,num_6,0.900154404044,,,2017_Sep_22_1527,59.9963437913,FEMA4ImagesEEG,001,101800,
AFNE01.JPG,AFNE01.JPG,AFNE01.JPG,AFNE01.JPG,AFNE01.JPG,AFNE01.JPG,,,,,,,,,,,,,0,5,5,8,,,,,,,,,,,AMNE07.jpg,AMSA16.jpg,AMSA13.jpg,AMNE16.jpg,AMSA13.jpg,MS,2,num_2,32,num_4,1.05015052309,,,2017_Sep_22_1527,59.9963437913,FEMA4ImagesEEG,001,101800,
AFNE01.JPG,AFNE01.JPG,AFNE01.JPG,AFNE01.JPG,AFNE01.JPG,AFNE01.JPG,,,,,,,,,,,,,0,6,6,0,,,,,,,,,,,AMNE13.jpg,AMSA20.jpg,AMNE11.jpg,AMSA12.jpg,AMNE11.jpg,MN,1,num_2,32,num_6,0.76674501266,,,2017_Sep_22_1527,59.9963437913,FEMA4ImagesEEG,001,101800,
AFNE01.JPG,AFNE01.JPG,AFNE01.JPG,AFNE01.JPG,AFNE01.JPG,AFNE01.JPG,,,,,,,,,,,,,0,7,7,4,,,,,,,,,,,AMSA15.jpg,AMNE08.jpg,AMSA02.jpg,AMNE20.jpg,AMSA15.jpg,MS,2,num_8,16,num_8,0.916756847951,,,2017_Sep_22_1527,59.9963437913,FEMA4ImagesEEG,001,101800,
AFNE01.JPG,AFNE01.JPG,AFNE01.JPG,AFNE01.JPG,AFNE01.JPG,AFNE01.JPG,,,,,,,,,,,,,0,8,8,3,,,,,,,,,,,AMSA10.jpg,AMSA13.jpg,AMNE06.jpg,AMNE14.jpg,AMSA10.jpg,MS,2,num_8,16,num_8,0.750171114577,,,2017_Sep_22_1527,59.9963437913,FEMA4ImagesEEG,001,101800,
AFNE01.JPG,AFNE01.JPG,AFNE01.JPG,AFNE01.JPG,AFNE01.JPG,AFNE01.JPG,,,,,,,,,,,,,0,9,9,2,,,,,,,,,,,AMNE14.jpg,AMNE11.jpg,AMSA03.jpg,AMSA10.jpg,AMSA10.jpg,MS,2,num_4,32,num_2,0.900143498898,,,2017_Sep_22_1527,59.9963437913,FEMA4ImagesEEG,001,101800,
AFNE01.JPG,AFNE01.JPG,AFNE01.JPG,AFNE01.JPG,AFNE01.JPG,AFNE01.JPG,,,,,,,,,,,,,1,0,10,9,,,,,,,,,,,AMSA10.jpg,AMNE01.jpg,AMNE06.jpg,AMSA03.jpg,AMNE06.jpg,MN,1,num_2,16,num_2,0.966763679704,,,2017_Sep_22_1527,59.9963437913,FEMA4ImagesEEG,001,101800,
AFNE01.JPG,AFNE01.JPG,AFNE01.JPG,AFNE01.JPG,AFNE01.JPG,AFNE01.JPG,,,,,,,,,,,,,1,1,11,3,,,,,,,,,,,AMSA01.jpg,AMNE02.jpg,AMNE17.jpg,AMSA05.jpg,AMSA05.jpg,MS,2,num_4,16,num_4,0.616798287507,,,2017_Sep_22_1527,59.9963437913,FEMA4ImagesEEG,001,101800,
AFNE01.JPG,AFNE01.JPG,AFNE01.JPG,AFNE01.JPG,AFNE01.JPG,AFNE01.JPG,,,,,,,,,,,,,1,2,12,4,,,,,,,,,,,AMNE07.jpg,AMSA13.jpg,AMNE01.jpg,AMSA10.jpg,AMNE01.jpg,MN,1,num_2,16,num_2,0.816768843611,,,2017_Sep_22_1527,59.9963437913,FEMA4ImagesEEG,001,101800,
AFNE01.JPG,AFNE01.JPG,AFNE01.JPG,AFNE01.JPG,AFNE01.JPG,AFNE01.JPG,,,,,,,,,,,,,1,3,13,2,,,,,,,,,,,AMNE18.jpg,AMNE01.jpg,AMSA06.jpg,AMSA07.jpg,AMNE01.jpg,MN,1,num_6,32,num_8,0.533499968247,,,2017_Sep_22_1527,59.9963437913,FEMA4ImagesEEG,001,101800,
AFNE01.JPG,AFNE01.JPG,AFNE01.JPG,AFNE01.JPG,AFNE01.JPG,AFNE01.JPG,,,,,,,,,,,,,1,4,14,8,,,,,,,,,,,AMNE05.jpg,AMSA10.jpg,AMSA09.jpg,AMNE13.jpg,AMSA09.jpg,MS,2,num_2,32,num_6,1.28332275962,,,2017_Sep_22_1527,59.9963437913,FEMA4ImagesEEG,001,101800,
AFNE01.JPG,AFNE01.JPG,AFNE01.JPG,AFNE01.JPG,AFNE01.JPG,AFNE01.JPG,,,,,,,,,,,,,1,5,15,1,,,,,,,,,,,AMSA13.jpg,AMNE01.jpg,AMNE18.jpg,AMSA11.jpg,AMSA11.jpg,MS,2,num_4,16,num_4,0.616804702299,,,2017_Sep_22_1527,59.9963437913,FEMA4ImagesEEG,001,101800,
AFNE01.JPG,AFNE01.JPG,AFNE01.JPG,AFNE01.JPG,AFNE01.JPG,AFNE01.JPG,,,,,,,,,,,,,1,6,16,7,,,,,,,,,,,AMSA11.jpg,AMNE01.jpg,AMNE10.jpg,AMSA18.jpg,AMNE01.jpg,MN,1,num_6,16,num_6,0.783482487939,,,2017_Sep_22_1527,59.9963437913,FEMA4ImagesEEG,001,101800,
AFNE01.JPG,AFNE01.JPG,AFNE01.JPG,AFNE01.JPG,AFNE01.JPG,AFNE01.JPG,,,,,,,,,,,,,1,7,17,5,,,,,,,,,,,AMSA19.jpg,AMSA02.jpg,AMNE02.jpg,AMNE20.jpg,AMSA02.jpg,MS,2,num_6,16,num_6,0.816785842811,,,2017_Sep_22_1527,59.9963437913,FEMA4ImagesEEG,001,101800,
AFNE01.JPG,AFNE01.JPG,AFNE01.JPG,AFNE01.JPG,AFNE01.JPG,AFNE01.JPG,,,,,,,,,,,,,1,8,18,6,,,,,,,,,,,AMNE11.jpg,AMNE07.jpg,AMSA01.jpg,AMSA02.jpg,AMSA01.jpg,MS,2,num_2,32,num_8,0.533469177246,,,2017_Sep_22_1527,59.9963437913,FEMA4ImagesEEG,001,101800,
AFNE01.JPG,AFNE01.JPG,AFNE01.JPG,AFNE01.JPG,AFNE01.JPG,AFNE01.JPG,,,,,,,,,,,,,1,9,19,0,,,,,,,,,,,AMSA11.jpg,AMNE01.jpg,AMSA13.jpg,AMNE10.jpg,AMNE10.jpg,MN,1,num_4,32,num_2,0.583467349029,,,2017_Sep_22_1527,59.9963437913,FEMA4ImagesEEG,001,101800,
AFNE01.JPG,AFNE01.JPG,AFNE01.JPG,AFNE01.JPG,AFNE01.JPG,AFNE01.JPG,,,,,,,,,,,,,2,0,20,6,,,,,,,,,,,AMNE17.jpg,AMSA19.jpg,AMSA20.jpg,AMNE15.jpg,AMNE17.jpg,MN,1,num_8,32,num_2,0.650151998496,,,2017_Sep_22_1527,59.9963437913,FEMA4ImagesEEG,001,101800,
AFNE01.JPG,AFNE01.JPG,AFNE01.JPG,AFNE01.JPG,AFNE01.JPG,AFNE01.JPG,,,,,,,,,,,,,2,1,21,7,,,,,,,,,,,AMSA10.jpg,AMSA12.jpg,AMNE08.jpg,AMNE05.jpg,AMNE08.jpg,MN,1,num_2,32,num_6,1.1167245174,,,2017_Sep_22_1527,59.9963437913,FEMA4ImagesEEG,001,101800,
AFNE01.JPG,AFNE01.JPG,AFNE01.JPG,AFNE01.JPG,AFNE01.JPG,AFNE01.JPG,,,,,,,,,,,,,2,2,22,5,,,,,,,,,,,AMNE05.jpg,AMSA17.jpg,AMNE04.jpg,AMSA20.jpg,AMSA17.jpg,MS,2,num_6,16,num_6,0.683484540672,,,2017_Sep_22_1527,59.9963437913,FEMA4ImagesEEG,001,101800,
AFNE01.JPG,AFNE01.JPG,AFNE01.JPG,AFNE01.JPG,AFNE01.JPG,AFNE01.JPG,,,,,,,,,,,,,2,3,23,2,,,,,,,,,,,AMSA17.jpg,AMSA16.jpg,AMNE07.jpg,AMNE17.jpg,AMSA16.jpg,MS,2,num_6,16,num_6,0.783479280542,,,2017_Sep_22_1527,59.9963437913,FEMA4ImagesEEG,001,101800,
AFNE01.JPG,AFNE01.JPG,AFNE01.JPG,AFNE01.JPG,AFNE01.JPG,AFNE01.JPG,,,,,,,,,,,,,2,4,24,4,,,,,,,,,,,AMNE20.jpg,AMNE04.jpg,AMSA01.jpg,AMSA12.jpg,AMSA01.jpg,MS,2,num_2,32,num_4,0.68322987343,,,2017_Sep_22_1527,59.9963437913,FEMA4ImagesEEG,001,101800,
AFNE01.JPG,AFNE01.JPG,AFNE01.JPG,AFNE01.JPG,AFNE01.JPG,AFNE01.JPG,,,,,,,,,,,,,2,5,25,8,,,,,,,,,,,AMNE14.jpg,AMSA06.jpg,AMNE17.jpg,AMSA05.jpg,AMNE17.jpg,MN,1,num_2,16,num_2,0.533519533362,,,2017_Sep_22_1527,59.9963437913,FEMA4ImagesEEG,001,101800,
AFNE01.JPG,AFNE01.JPG,AFNE01.JPG,AFNE01.JPG,AFNE01.JPG,AFNE01.JPG,,,,,,,,,,,,,2,6,26,1,,,,,,,,,,,AMNE11.jpg,AMSA02.jpg,AMSA05.jpg,AMNE02.jpg,AMNE02.jpg,MN,1,num_4,32,num_6,0.600152543754,,,2017_Sep_22_1527,59.9963437913,FEMA4ImagesEEG,001,101800,
AFNE01.JPG,AFNE01.JPG,AFNE01.JPG,AFNE01.JPG,AFNE01.JPG,AFNE01.JPG,,,,,,,,,,,,,2,7,27,3,,,,,,,,,,,AMNE02.jpg,AMNE10.jpg,AMSA10.jpg,AMSA11.jpg,AMNE10.jpg,MN,1,num_6,32,num_2,0.583550741326,,,2017_Sep_22_1527,59.9963437913,FEMA4ImagesEEG,001,101800,
AFNE01.JPG,AFNE01.JPG,AFNE01.JPG,AFNE01.JPG,AFNE01.JPG,AFNE01.JPG,,,,,,,,,,,,,2,8,28,9,,,,,,,,,,,AMNE10.jpg,AMSA02.jpg,AMNE15.jpg,AMSA15.jpg,AMSA15.jpg,MS,2,num_4,16,num_4,0.850182212166,,,2017_Sep_22_1527,59.9963437913,FEMA4ImagesEEG,001,101800,
AFNE01.JPG,AFNE01.JPG,AFNE01.JPG,AFNE01.JPG,AFNE01.JPG,AFNE01.JPG,,,,,,,,,,,,,2,9,29,0,,,,,,,,,,,AMNE09.jpg,AMSA03.jpg,AMSA10.jpg,AMNE05.jpg,AMNE09.jpg,MN,1,num_8,16,num_8,0.700188659032,,,2017_Sep_22_1527,59.9963437913,FEMA4ImagesEEG,001,101800,
AFNE01.JPG,AFNE01.JPG,AFNE01.JPG,AFNE01.JPG,AFNE01.JPG,AFNE01.JPG,,,,,,,,,,,,,3,0,30,9,,,,,,,,,,,AMSA20.jpg,AMNE20.jpg,AMSA12.jpg,AMNE10.jpg,AMNE20.jpg,MN,1,num_6,32,num_8,1.35011966794,,,2017_Sep_22_1527,59.9963437913,FEMA4ImagesEEG,001,101800,
AFNE01.JPG,AFNE01.JPG,AFNE01.JPG,AFNE01.JPG,AFNE01.JPG,AFNE01.JPG,,,,,,,,,,,,,3,1,31,0,,,,,,,,,,,AMSA06.jpg,AMNE19.jpg,AMNE03.jpg,AMSA03.jpg,AMNE19.jpg,MN,1,num_6,16,num_6,0.733459298465,,,2017_Sep_22_1527,59.9963437913,FEMA4ImagesEEG,001,101800,
AFNE01.JPG,AFNE01.JPG,AFNE01.JPG,AFNE01.JPG,AFNE01.JPG,AFNE01.JPG,,,,,,,,,,,,,3,2,32,8,,,,,,,,,,,AMSA04.jpg,AMNE19.jpg,AMNE02.jpg,AMSA09.jpg,AMNE02.jpg,MN,1,num_2,32,num_8,0.916755564993,,,2017_Sep_22_1527,59.9963437913,FEMA4ImagesEEG,001,101800,
AFNE01.JPG,AFNE01.JPG,AFNE01.JPG,AFNE01.JPG,AFNE01.JPG,AFNE01.JPG,,,,,,,,,,,,,3,3,33,5,,,,,,,,,,,AMSA03.jpg,AMSA20.jpg,AMNE20.jpg,AMNE06.jpg,AMSA20.jpg,MS,2,num_6,32,num_2,0.73350356053,,,2017_Sep_22_1527,59.9963437913,FEMA4ImagesEEG,001,101800,
AFNE01.JPG,AFNE01.JPG,AFNE01.JPG,AFNE01.JPG,AFNE01.JPG,AFNE01.JPG,,,,,,,,,,,,,3,4,34,4,,,,,,,,,,,AMSA11.jpg,AMNE17.jpg,AMNE07.jpg,AMSA10.jpg,AMSA11.jpg,MS,2,num_8,16,num_8,0.600147091181,,,2017_Sep_22_1527,59.9963437913,FEMA4ImagesEEG,001,101800,
AFNE01.JPG,AFNE01.JPG,AFNE01.JPG,AFNE01.JPG,AFNE01.JPG,AFNE01.JPG,,,,,,,,,,,,,3,5,35,7,,,,,,,,,,,AMSA11.jpg,AMNE12.jpg,AMSA09.jpg,AMNE15.jpg,AMSA11.jpg,MS,2,num_8,16,num_8,0.483468760283,,,2017_Sep_22_1527,59.9963437913,FEMA4ImagesEEG,001,101800,
AFNE01.JPG,AFNE01.JPG,AFNE01.JPG,AFNE01.JPG,AFNE01.JPG,AFNE01.JPG,,,,,,,,,,,,,3,6,36,2,,,,,,,,,,,AMNE02.jpg,AMSA04.jpg,AMNE19.jpg,AMSA14.jpg,AMNE19.jpg,MN,1,num_2,16,num_2,0.900135801146,,,2017_Sep_22_1527,59.9963437913,FEMA4ImagesEEG,001,101800,
AFNE01.JPG,AFNE01.JPG,AFNE01.JPG,AFNE01.JPG,AFNE01.JPG,AFNE01.JPG,,,,,,,,,,,,,3,7,37,6,,,,,,,,,,,AMNE18.jpg,AMSA19.jpg,AMNE12.jpg,AMSA11.jpg,AMSA19.jpg,MS,2,num_6,32,num_8,0.616832606644,,,2017_Sep_22_1527,59.9963437913,FEMA4ImagesEEG,001,101800,
AFNE01.JPG,AFNE01.JPG,AFNE01.JPG,AFNE01.JPG,AFNE01.JPG,AFNE01.JPG,,,,,,,,,,,,,3,8,38,3,,,,,,,,,,,AMSA11.jpg,AMNE17.jpg,AMSA10.jpg,AMNE01.jpg,AMSA10.jpg,MS,2,num_2,16,num_2,1.00012605066,,,2017_Sep_22_1527,59.9963437913,FEMA4ImagesEEG,001,101800,
AFNE01.JPG,AFNE01.JPG,AFNE01.JPG,AFNE01.JPG,AFNE01.JPG,AFNE01.JPG,,,,,,,,,,,,,3,9,39,1,,,,,,,,,,,AMSA06.jpg,AMNE03.jpg,AMSA01.jpg,AMNE04.jpg,AMSA06.jpg,MS,2,num_8,16,num_8,2.21691298399,,,2017_Sep_22_1527,59.9963437913,FEMA4ImagesEEG,001,101800,
AFNE01.JPG,AFNE01.JPG,AFNE01.JPG,AFNE01.JPG,AFNE01.JPG,AFNE01.JPG,,,,,,,,,,,,,4,0,40,4,,,,,,,,,,,AMNE10.jpg,AMSA01.jpg,AMSA11.jpg,AMNE04.jpg,AMNE10.jpg,MN,1,num_8,16,num_8,0.883472737455,,,2017_Sep_22_1527,59.9963437913,FEMA4ImagesEEG,001,101800,
AFNE01.JPG,AFNE01.JPG,AFNE01.JPG,AFNE01.JPG,AFNE01.JPG,AFNE01.JPG,,,,,,,,,,,,,4,1,41,9,,,,,,,,,,,AMSA09.jpg,AMNE03.jpg,AMNE07.jpg,AMSA12.jpg,AMSA12.jpg,MS,2,num_4,32,num_2,0.900126178959,,,2017_Sep_22_1527,59.9963437913,FEMA4ImagesEEG,001,101800,
AFNE01.JPG,AFNE01.JPG,AFNE01.JPG,AFNE01.JPG,AFNE01.JPG,AFNE01.JPG,,,,,,,,,,,,,4,2,42,5,,,,,,,,,,,AMSA02.jpg,AMNE19.jpg,AMNE07.jpg,AMSA10.jpg,AMNE07.jpg,MN,1,num_2,16,num_2,1.46673545462,,,2017_Sep_22_1527,59.9963437913,FEMA4ImagesEEG,001,101800,
AFNE01.JPG,AFNE01.JPG,AFNE01.JPG,AFNE01.JPG,AFNE01.JPG,AFNE01.JPG,,,,,,,,,,,,,4,3,43,3,,,,,,,,,,,AMSA14.jpg,AMNE03.jpg,AMNE14.jpg,AMSA01.jpg,AMSA14.jpg,MS,2,num_8,32,num_6,0.783472224271,,,2017_Sep_22_1527,59.9963437913,FEMA4ImagesEEG,001,101800,
AFNE01.JPG,AFNE01.JPG,AFNE01.JPG,AFNE01.JPG,AFNE01.JPG,AFNE01.JPG,,,,,,,,,,,,,4,4,44,6,,,,,,,,,,,AMNE08.jpg,AMNE07.jpg,AMSA08.jpg,AMSA19.jpg,AMSA19.jpg,MS,2,num_4,16,num_4,0.533516005226,,,2017_Sep_22_1527,59.9963437913,FEMA4ImagesEEG,001,101800,
AFNE01.JPG,AFNE01.JPG,AFNE01.JPG,AFNE01.JPG,AFNE01.JPG,AFNE01.JPG,,,,,,,,,,,,,4,5,45,7,,,,,,,,,,,AMNE02.jpg,AMSA02.jpg,AMNE20.jpg,AMSA18.jpg,AMSA02.jpg,MS,2,num_6,32,num_4,0.633474501522,,,2017_Sep_22_1527,59.9963437913,FEMA4ImagesEEG,001,101800,
AFNE01.JPG,AFNE01.JPG,AFNE01.JPG,AFNE01.JPG,AFNE01.JPG,AFNE01.JPG,,,,,,,,,,,,,4,6,46,2,,,,,,,,,,,AMSA14.jpg,AMNE16.jpg,AMSA01.jpg,AMNE13.jpg,AMSA14.jpg,MS,2,num_8,16,num_8,0.716641959026,,,2017_Sep_22_1527,59.9963437913,FEMA4ImagesEEG,001,101800,
AFNE01.JPG,AFNE01.JPG,AFNE01.JPG,AFNE01.JPG,AFNE01.JPG,AFNE01.JPG,,,,,,,,,,,,,4,7,47,1,,,,,,,,,,,AMNE18.jpg,AMSA16.jpg,AMSA15.jpg,AMNE07.jpg,AMNE18.jpg,MN,1,num_8,32,num_2,0.366902046768,,,2017_Sep_22_1527,59.9963437913,FEMA4ImagesEEG,001,101800,
AFNE01.JPG,AFNE01.JPG,AFNE01.JPG,AFNE01.JPG,AFNE01.JPG,AFNE01.JPG,,,,,,,,,,,,,4,8,48,8,,,,,,,,,,,AMSA08.jpg,AMNE16.jpg,AMNE09.jpg,AMSA01.jpg,AMNE09.jpg,MN,1,num_2,32,num_4,0.533511835612,,,2017_Sep_22_1527,59.9963437913,FEMA4ImagesEEG,001,101800,
AFNE01.JPG,AFNE01.JPG,AFNE01.JPG,AFNE01.JPG,AFNE01.JPG,AFNE01.JPG,,,,,,,,,,,,,4,9,49,0,,,,,,,,,,,AMSA05.jpg,AMNE20.jpg,AMSA19.jpg,AMNE04.jpg,AMSA05.jpg,MS,2,num_8,16,num_8,0.416883219353,,,2017_Sep_22_1527,59.9963437913,FEMA4ImagesEEG,001,101800,
AFNE01.JPG,AFNE01.JPG,AFNE01.JPG,AFNE01.JPG,AFNE01.JPG,AFNE01.JPG,,,,,,,,,,,,,5,0,50,3,,,,,,,,,,,AMSA02.jpg,AMSA09.jpg,AMNE11.jpg,AMNE09.jpg,AMSA09.jpg,MS,2,num_6,32,num_2,0.533514080789,,,2017_Sep_22_1527,59.9963437913,FEMA4ImagesEEG,001,101800,
AFNE01.JPG,AFNE01.JPG,AFNE01.JPG,AFNE01.JPG,AFNE01.JPG,AFNE01.JPG,,,,,,,,,,,,,5,1,51,4,,,,,,,,,,,AMSA11.jpg,AMNE18.jpg,AMSA19.jpg,AMNE01.jpg,AMSA11.jpg,MS,2,num_8,16,num_8,0.700157868031,,,2017_Sep_22_1527,59.9963437913,FEMA4ImagesEEG,001,101800,
AFNE01.JPG,AFNE01.JPG,AFNE01.JPG,AFNE01.JPG,AFNE01.JPG,AFNE01.JPG,,,,,,,,,,,,,5,2,52,2,,,,,,,,,,,AMSA16.jpg,AMSA17.jpg,AMNE18.jpg,AMNE05.jpg,AMSA17.jpg,MS,2,num_6,32,num_2,0.700154660634,,,2017_Sep_22_1527,59.9963437913,FEMA4ImagesEEG,001,101800,
AFNE01.JPG,AFNE01.JPG,AFNE01.JPG,AFNE01.JPG,AFNE01.JPG,AFNE01.JPG,,,,,,,,,,,,,5,3,53,8,,,,,,,,,,,AMSA06.jpg,AMSA19.jpg,AMNE10.jpg,AMNE09.jpg,AMSA19.jpg,MS,2,num_6,32,num_8,0.533500930465,,,2017_Sep_22_1527,59.9963437913,FEMA4ImagesEEG,001,101800,
AFNE01.JPG,AFNE01.JPG,AFNE01.JPG,AFNE01.JPG,AFNE01.JPG,AFNE01.JPG,,,,,,,,,,,,,5,4,54,7,,,,,,,,,,,AMNE17.jpg,AMSA09.jpg,AMSA10.jpg,AMNE01.jpg,AMSA10.jpg,MS,2,num_2,16,num_2,0.733502277571,,,2017_Sep_22_1527,59.9963437913,FEMA4ImagesEEG,001,101800,
AFNE01.JPG,AFNE01.JPG,AFNE01.JPG,AFNE01.JPG,AFNE01.JPG,AFNE01.JPG,,,,,,,,,,,,,5,5,55,1,,,,,,,,,,,AMSA01.jpg,AMSA13.jpg,AMNE09.jpg,AMNE11.jpg,AMNE11.jpg,MN,1,num_4,32,num_2,0.666808005917,,,2017_Sep_22_1527,59.9963437913,FEMA4ImagesEEG,001,101800,
AFNE01.JPG,AFNE01.JPG,AFNE01.JPG,AFNE01.JPG,AFNE01.JPG,AFNE01.JPG,,,,,,,,,,,,,5,6,56,0,,,,,,,,,,,AMNE04.jpg,AMSA06.jpg,AMSA18.jpg,AMNE12.jpg,AMNE04.jpg,MN,1,num_8,16,num_8,0.816796747958,,,2017_Sep_22_1527,59.9963437913,FEMA4ImagesEEG,001,101800,
AFNE01.JPG,AFNE01.JPG,AFNE01.JPG,AFNE01.JPG,AFNE01.JPG,AFNE01.JPG,,,,,,,,,,,,,5,7,57,6,,,,,,,,,,,AMNE04.jpg,AMSA08.jpg,AMNE20.jpg,AMSA11.jpg,AMNE04.jpg,MN,1,num_8,16,num_8,0.683482616234,,,2017_Sep_22_1527,59.9963437913,FEMA4ImagesEEG,001,101800,
AFNE01.JPG,AFNE01.JPG,AFNE01.JPG,AFNE01.JPG,AFNE01.JPG,AFNE01.JPG,,,,,,,,,,,,,5,8,58,5,,,,,,,,,,,AMNE12.jpg,AMSA05.jpg,AMNE08.jpg,AMSA06.jpg,AMNE08.jpg,MN,1,num_2,32,num_6,0.450210308955,,,2017_Sep_22_1527,59.9963437913,FEMA4ImagesEEG,001,101800,
AFNE01.JPG,AFNE01.JPG,AFNE01.JPG,AFNE01.JPG,AFNE01.JPG,AFNE01.JPG,,,,,,,,,,,,,5,9,59,9,,,,,,,,,,,AMNE04.jpg,AMSA12.jpg,AMSA01.jpg,AMNE03.jpg,AMSA01.jpg,MS,2,num_2,16,num_2,0.666538905393,,,2017_Sep_22_1527,59.9963437913,FEMA4ImagesEEG,001,101800,
,,,,,,,,,,,,,,,,,,,,,,,,,,,,,,,,,,,,,,,,,,,space,20.1321694121,2017_Sep_22_1527,59.9963437913,FEMA4ImagesEEG,001,101800,
AFNE01.JPG,AFNE01.JPG,AFNE01.JPG,AFNE01.JPG,AFNE01.JPG,AFNE01.JPG,,,,,,,,,,,,,,,,,0,0,0,3,,,,,,,AFNE04.jpg,AFSA04.jpg,AFNE01.jpg,AFSA19.jpg,AFNE04.jpg,FN,3,num_8,16,num_8,0.766831933091,,,2017_Sep_22_1527,59.9963437913,FEMA4ImagesEEG,001,101800,
AFNE01.JPG,AFNE01.JPG,AFNE01.JPG,AFNE01.JPG,AFNE01.JPG,AFNE01.JPG,,,,,,,,,,,,,,,,,0,1,1,6,,,,,,,AFNE08.jpg,AFSA04.jpg,AFSA14.jpg,AFNE16.jpg,AFNE08.jpg,FN,3,num_8,16,num_8,0.433399063569,,,2017_Sep_22_1527,59.9963437913,FEMA4ImagesEEG,001,101800,
AFNE01.JPG,AFNE01.JPG,AFNE01.JPG,AFNE01.JPG,AFNE01.JPG,AFNE01.JPG,,,,,,,,,,,,,,,,,0,2,2,5,,,,,,,AFNE15.jpg,AFNE20.jpg,AFSA19.jpg,AFSA17.jpg,AFNE15.jpg,FN,3,num_8,32,num_4,0.566809417171,,,2017_Sep_22_1527,59.9963437913,FEMA4ImagesEEG,001,101800,
AFNE01.JPG,AFNE01.JPG,AFNE01.JPG,AFNE01.JPG,AFNE01.JPG,AFNE01.JPG,,,,,,,,,,,,,,,,,0,3,3,1,,,,,,,AFNE20.jpg,AFSA03.jpg,AFNE12.jpg,AFSA12.jpg,AFSA03.jpg,FS,4,num_6,16,num_6,0.550187728888,,,2017_Sep_22_1527,59.9963437913,FEMA4ImagesEEG,001,101800,
AFNE01.JPG,AFNE01.JPG,AFNE01.JPG,AFNE01.JPG,AFNE01.JPG,AFNE01.JPG,,,,,,,,,,,,,,,,,0,4,4,0,,,,,,,AFSA09.jpg,AFSA04.jpg,AFNE12.jpg,AFNE15.jpg,AFSA04.jpg,FS,4,num_6,32,num_8,0.36684463438,,,2017_Sep_22_1527,59.9963437913,FEMA4ImagesEEG,001,101800,
AFNE01.JPG,AFNE01.JPG,AFNE01.JPG,AFNE01.JPG,AFNE01.JPG,AFNE01.JPG,,,,,,,,,,,,,,,,,0,5,5,2,,,,,,,AFSA17.jpg,AFNE13.jpg,AFNE05.jpg,AFSA03.jpg,AFNE13.jpg,FN,3,num_6,16,num_6,0.500173199383,,,2017_Sep_22_1527,59.9963437913,FEMA4ImagesEEG,001,101800,
AFNE01.JPG,AFNE01.JPG,AFNE01.JPG,AFNE01.JPG,AFNE01.JPG,AFNE01.JPG,,,,,,,,,,,,,,,,,0,6,6,4,,,,,,,AFNE01.jpg,AFSA08.jpg,AFNE06.jpg,AFSA06.jpg,AFNE01.jpg,FN,3,num_8,32,num_2,0.666815703667,,,2017_Sep_22_1527,59.9963437913,FEMA4ImagesEEG,001,101800,
AFNE01.JPG,AFNE01.JPG,AFNE01.JPG,AFNE01.JPG,AFNE01.JPG,AFNE01.JPG,,,,,,,,,,,,,,,,,0,7,7,9,,,,,,,AFSA10.jpg,AFSA12.jpg,AFNE15.jpg,AFNE07.jpg,AFSA12.jpg,FS,4,num_6,16,num_6,0.633505292524,,,2017_Sep_22_1527,59.9963437913,FEMA4ImagesEEG,001,101800,
AFNE01.JPG,AFNE01.JPG,AFNE01.JPG,AFNE01.JPG,AFNE01.JPG,AFNE01.JPG,,,,,,,,,,,,,,,,,0,8,8,7,,,,,,,AFSA07.jpg,AFNE17.jpg,AFNE10.jpg,AFSA11.jpg,AFNE17.jpg,FN,3,num_6,32,num_4,0.583573193097,,,2017_Sep_22_1527,59.9963437913,FEMA4ImagesEEG,001,101800,
AFNE01.JPG,AFNE01.JPG,AFNE01.JPG,AFNE01.JPG,AFNE01.JPG,AFNE01.JPG,,,,,,,,,,,,,,,,,0,9,9,8,,,,,,,AFNE20.jpg,AFSA13.jpg,AFSA04.jpg,AFNE06.jpg,AFNE06.jpg,FN,3,num_4,32,num_8,0.816814709375,,,2017_Sep_22_1527,59.9963437913,FEMA4ImagesEEG,001,101800,
AFNE01.JPG,AFNE01.JPG,AFNE01.JPG,AFNE01.JPG,AFNE01.JPG,AFNE01.JPG,,,,,,,,,,,,,,,,,1,0,10,2,,,,,,,AFNE09.jpg,AFSA06.jpg,AFNE01.jpg,AFSA11.jpg,AFNE09.jpg,FN,3,num_8,16,num_8,1.35011998868,,,2017_Sep_22_1527,59.9963437913,FEMA4ImagesEEG,001,101800,
AFNE01.JPG,AFNE01.JPG,AFNE01.JPG,AFNE01.JPG,AFNE01.JPG,AFNE01.JPG,,,,,,,,,,,,,,,,,1,1,11,4,,,,,,,AFSA05.jpg,AFNE03.jpg,AFSA12.jpg,AFNE14.jpg,AFSA05.jpg,FS,4,num_8,32,num_2,0.816783597633,,,2017_Sep_22_1527,59.9963437913,FEMA4ImagesEEG,001,101800,
AFNE01.JPG,AFNE01.JPG,AFNE01.JPG,AFNE01.JPG,AFNE01.JPG,AFNE01.JPG,,,,,,,,,,,,,,,,,1,2,12,8,,,,,,,AFSA10.jpg,AFSA16.jpg,AFNE04.jpg,AFNE07.jpg,AFNE07.jpg,FN,3,num_4,32,num_2,0.73351189976,,,2017_Sep_22_1527,59.9963437913,FEMA4ImagesEEG,001,101800,
AFNE01.JPG,AFNE01.JPG,AFNE01.JPG,AFNE01.JPG,AFNE01.JPG,AFNE01.JPG,,,,,,,,,,,,,,,,,1,3,13,5,,,,,,,AFNE09.jpg,AFSA15.jpg,AFSA06.jpg,AFNE04.jpg,AFNE04.jpg,FN,3,num_4,32,num_8,0.850124479039,,,2017_Sep_22_1527,59.9963437913,FEMA4ImagesEEG,001,101800,
AFNE01.JPG,AFNE01.JPG,AFNE01.JPG,AFNE01.JPG,AFNE01.JPG,AFNE01.JPG,,,,,,,,,,,,,,,,,1,4,14,6,,,,,,,AFNE15.jpg,AFSA04.jpg,AFNE04.jpg,AFSA07.jpg,AFSA04.jpg,FS,4,num_6,32,num_8,1.4500656554,,,2017_Sep_22_1527,59.9963437913,FEMA4ImagesEEG,001,101800,
AFNE01.JPG,AFNE01.JPG,AFNE01.JPG,AFNE01.JPG,AFNE01.JPG,AFNE01.JPG,,,,,,,,,,,,,,,,,1,5,15,7,,,,,,,AFNE02.jpg,AFSA17.jpg,AFNE07.jpg,AFSA13.jpg,AFNE02.jpg,FN,3,num_8,32,num_2,0.350169703322,,,2017_Sep_22_1527,59.9963437913,FEMA4ImagesEEG,001,101800,
AFNE01.JPG,AFNE01.JPG,AFNE01.JPG,AFNE01.JPG,AFNE01.JPG,AFNE01.JPG,,,,,,,,,,,,,,,,,1,6,16,9,,,,,,,AFSA16.jpg,AFSA15.jpg,AFNE18.jpg,AFNE07.jpg,AFNE18.jpg,FN,3,num_2,32,num_6,0.283543428463,,,2017_Sep_22_1527,59.9963437913,FEMA4ImagesEEG,001,101800,
AFNE01.JPG,AFNE01.JPG,AFNE01.JPG,AFNE01.JPG,AFNE01.JPG,AFNE01.JPG,,,,,,,,,,,,,,,,,1,7,17,3,,,,,,,AFSA19.jpg,AFSA13.jpg,AFNE18.jpg,AFNE10.jpg,AFSA19.jpg,FS,4,num_8,32,num_4,0.350165212968,,,2017_Sep_22_1527,59.9963437913,FEMA4ImagesEEG,001,101800,
AFNE01.JPG,AFNE01.JPG,AFNE01.JPG,AFNE01.JPG,AFNE01.JPG,AFNE01.JPG,,,,,,,,,,,,,,,,,1,8,18,0,,,,,,,AFNE06.jpg,AFSA10.jpg,AFSA17.jpg,AFNE20.jpg,AFSA17.jpg,FS,4,num_2,32,num_8,0.366817692253,,,2017_Sep_22_1527,59.9963437913,FEMA4ImagesEEG,001,101800,
AFNE01.JPG,AFNE01.JPG,AFNE01.JPG,AFNE01.JPG,AFNE01.JPG,AFNE01.JPG,,,,,,,,,,,,,,,,,1,9,19,1,,,,,,,AFSA20.jpg,AFNE14.jpg,AFNE08.jpg,AFSA15.jpg,AFNE14.jpg,FN,3,num_6,32,num_4,0.500173199384,,,2017_Sep_22_1527,59.9963437913,FEMA4ImagesEEG,001,101800,
AFNE01.JPG,AFNE01.JPG,AFNE01.JPG,AFNE01.JPG,AFNE01.JPG,AFNE01.JPG,,,,,,,,,,,,,,,,,2,0,20,3,,,,,,,AFNE13.jpg,AFSA19.jpg,AFSA06.jpg,AFNE04.jpg,AFNE13.jpg,FN,3,num_8,16,num_8,0.36682827666,,,2017_Sep_22_1527,59.9963437913,FEMA4ImagesEEG,001,101800,
AFNE01.JPG,AFNE01.JPG,AFNE01.JPG,AFNE01.JPG,AFNE01.JPG,AFNE01.JPG,,,,,,,,,,,,,,,,,2,1,21,7,,,,,,,AFSA19.jpg,AFNE09.jpg,AFSA08.jpg,AFNE15.jpg,AFSA08.jpg,FS,4,num_2,32,num_8,0.433497851366,,,2017_Sep_22_1527,59.9963437913,FEMA4ImagesEEG,001,101800,
AFNE01.JPG,AFNE01.JPG,AFNE01.JPG,AFNE01.JPG,AFNE01.JPG,AFNE01.JPG,,,,,,,,,,,,,,,,,2,2,22,4,,,,,,,AFNE19.jpg,AFSA17.jpg,AFSA14.jpg,AFNE02.jpg,AFNE02.jpg,FN,3,num_4,32,num_6,0.833489319692,,,2017_Sep_22_1527,59.9963437913,FEMA4ImagesEEG,001,101800,
AFNE01.JPG,AFNE01.JPG,AFNE01.JPG,AFNE01.JPG,AFNE01.JPG,AFNE01.JPG,,,,,,,,,,,,,,,,,2,3,23,6,,,,,,,AFNE02.jpg,AFSA05.jpg,AFSA10.jpg,AFNE19.jpg,AFSA10.jpg,FS,4,num_2,16,num_2,0.766796010256,,,2017_Sep_22_1527,59.9963437913,FEMA4ImagesEEG,001,101800,
AFNE01.JPG,AFNE01.JPG,AFNE01.JPG,AFNE01.JPG,AFNE01.JPG,AFNE01.JPG,,,,,,,,,,,,,,,,,2,4,24,8,,,,,,,AFSA17.jpg,AFNE05.jpg,AFSA11.jpg,AFNE04.jpg,AFNE04.jpg,FN,3,num_4,32,num_8,0.700175508709,,,2017_Sep_22_1527,59.9963437913,FEMA4ImagesEEG,001,101800,
AFNE01.JPG,AFNE01.JPG,AFNE01.JPG,AFNE01.JPG,AFNE01.JPG,AFNE01.JPG,,,,,,,,,,,,,,,,,2,5,25,5,,,,,,,AFNE03.jpg,AFSA19.jpg,AFSA06.jpg,AFNE02.jpg,AFNE02.jpg,FN,3,num_4,16,num_4,0.60014773266,,,2017_Sep_22_1527,59.9963437913,FEMA4ImagesEEG,001,101800,
AFNE01.JPG,AFNE01.JPG,AFNE01.JPG,AFNE01.JPG,AFNE01.JPG,AFNE01.JPG,,,,,,,,,,,,,,,,,2,6,26,2,,,,,,,AFSA20.jpg,AFNE11.jpg,AFSA09.jpg,AFNE03.jpg,AFNE11.jpg,FN,3,num_6,32,num_8,1.18349672878,,,2017_Sep_22_1527,59.9963437913,FEMA4ImagesEEG,001,101800,
AFNE01.JPG,AFNE01.JPG,AFNE01.JPG,AFNE01.JPG,AFNE01.JPG,AFNE01.JPG,,,,,,,,,,,,,,,,,2,7,27,9,,,,,,,AFNE07.jpg,AFSA10.jpg,AFNE20.jpg,AFSA14.jpg,AFSA14.jpg,FS,4,num_4,16,num_4,0.550168484512,,,2017_Sep_22_1527,59.9963437913,FEMA4ImagesEEG,001,101800,
AFNE01.JPG,AFNE01.JPG,AFNE01.JPG,AFNE01.JPG,AFNE01.JPG,AFNE01.JPG,,,,,,,,,,,,,,,,,2,8,28,0,,,,,,,AFSA18.jpg,AFNE14.jpg,AFSA17.jpg,AFNE12.jpg,AFNE14.jpg,FN,3,num_6,16,num_6,0.650171242873,,,2017_Sep_22_1527,59.9963437913,FEMA4ImagesEEG,001,101800,
AFNE01.JPG,AFNE01.JPG,AFNE01.JPG,AFNE01.JPG,AFNE01.JPG,AFNE01.JPG,,,,,,,,,,,,,,,,,2,9,29,1,,,,,,,AFSA19.jpg,AFSA08.jpg,AFNE06.jpg,AFNE20.jpg,AFSA19.jpg,FS,4,num_8,32,num_4,0.566856886631,,,2017_Sep_22_1527,59.9963437913,FEMA4ImagesEEG,001,101800,
AFNE01.JPG,AFNE01.JPG,AFNE01.JPG,AFNE01.JPG,AFNE01.JPG,AFNE01.JPG,,,,,,,,,,,,,,,,,3,0,30,4,,,,,,,AFNE19.jpg,AFSA12.jpg,AFSA01.jpg,AFNE03.jpg,AFNE03.jpg,FN,3,num_4,32,num_6,0.6332037973,,,2017_Sep_22_1527,59.9963437913,FEMA4ImagesEEG,001,101800,
AFNE01.JPG,AFNE01.JPG,AFNE01.JPG,AFNE01.JPG,AFNE01.JPG,AFNE01.JPG,,,,,,,,,,,,,,,,,3,1,31,3,,,,,,,AFSA03.jpg,AFNE12.jpg,AFNE11.jpg,AFSA10.jpg,AFNE12.jpg,FN,3,num_6,16,num_6,0.450216082269,,,2017_Sep_22_1527,59.9963437913,FEMA4ImagesEEG,001,101800,
AFNE01.JPG,AFNE01.JPG,AFNE01.JPG,AFNE01.JPG,AFNE01.JPG,AFNE01.JPG,,,,,,,,,,,,,,,,,3,2,32,9,,,,,,,AFNE11.jpg,AFSA05.jpg,AFNE16.jpg,AFSA06.jpg,AFNE11.jpg,FN,3,num_8,32,num_6,0.450172461683,,,2017_Sep_22_1527,59.9963437913,FEMA4ImagesEEG,001,101800,
AFNE01.JPG,AFNE01.JPG,AFNE01.JPG,AFNE01.JPG,AFNE01.JPG,AFNE01.JPG,,,,,,,,,,,,,,,,,3,3,33,0,,,,,,,AFNE03.jpg,AFSA03.jpg,AFSA13.jpg,AFNE09.jpg,AFSA03.jpg,FS,4,num_6,32,num_2,0.533528514072,,,2017_Sep_22_1527,59.9963437913,FEMA4ImagesEEG,001,101800,
AFNE01.JPG,AFNE01.JPG,AFNE01.JPG,AFNE01.JPG,AFNE01.JPG,AFNE01.JPG,,,,,,,,,,,,,,,,,3,4,34,6,,,,,,,AFSA12.jpg,AFNE03.jpg,AFSA14.jpg,AFNE16.jpg,AFNE03.jpg,FN,3,num_6,32,num_4,0.716735614989,,,2017_Sep_22_1527,59.9963437913,FEMA4ImagesEEG,001,101800,
AFNE01.JPG,AFNE01.JPG,AFNE01.JPG,AFNE01.JPG,AFNE01.JPG,AFNE01.JPG,,,,,,,,,,,,,,,,,3,5,35,7,,,,,,,AFSA01.jpg,AFNE04.jpg,AFSA12.jpg,AFNE15.jpg,AFNE04.jpg,FN,3,num_6,32,num_8,0.566651292549,,,2017_Sep_22_1527,59.9963437913,FEMA4ImagesEEG,001,101800,
AFNE01.JPG,AFNE01.JPG,AFNE01.JPG,AFNE01.JPG,AFNE01.JPG,AFNE01.JPG,,,,,,,,,,,,,,,,,3,6,36,8,,,,,,,AFSA15.jpg,AFSA20.jpg,AFNE12.jpg,AFNE10.jpg,AFSA20.jpg,FS,4,num_6,32,num_4,0.316848387032,,,2017_Sep_22_1527,59.9963437913,FEMA4ImagesEEG,001,101800,
AFNE01.JPG,AFNE01.JPG,AFNE01.JPG,AFNE01.JPG,AFNE01.JPG,AFNE01.JPG,,,,,,,,,,,,,,,,,3,7,37,5,,,,,,,AFNE10.jpg,AFNE17.jpg,AFSA14.jpg,AFSA03.jpg,AFSA14.jpg,FS,4,num_2,16,num_2,0.383479152247,,,2017_Sep_22_1527,59.9963437913,FEMA4ImagesEEG,001,101800,
AFNE01.JPG,AFNE01.JPG,AFNE01.JPG,AFNE01.JPG,AFNE01.JPG,AFNE01.JPG,,,,,,,,,,,,,,,,,3,8,38,1,,,,,,,AFNE20.jpg,AFNE06.jpg,AFSA07.jpg,AFSA15.jpg,AFSA15.jpg,FS,4,num_4,16,num_4,0.633443710522,,,2017_Sep_22_1527,59.9963437913,FEMA4ImagesEEG,001,101800,
AFNE01.JPG,AFNE01.JPG,AFNE01.JPG,AFNE01.JPG,AFNE01.JPG,AFNE01.JPG,,,,,,,,,,,,,,,,,3,9,39,2,,,,,,,AFSA11.jpg,AFSA04.jpg,AFNE10.jpg,AFNE08.jpg,AFNE10.jpg,FN,3,num_2,32,num_8,0.566654499945,,,2017_Sep_22_1527,59.9963437913,FEMA4ImagesEEG,001,101800,
AFNE01.JPG,AFNE01.JPG,AFNE01.JPG,AFNE01.JPG,AFNE01.JPG,AFNE01.JPG,,,,,,,,,,,,,,,,,4,0,40,1,,,,,,,AFSA05.jpg,AFNE08.jpg,AFNE02.jpg,AFSA08.jpg,AFNE08.jpg,FN,3,num_6,32,num_8,0.466735775359,,,2017_Sep_22_1527,59.9963437913,FEMA4ImagesEEG,001,101800,
AFNE01.JPG,AFNE01.JPG,AFNE01.JPG,AFNE01.JPG,AFNE01.JPG,AFNE01.JPG,,,,,,,,,,,,,,,,,4,1,41,2,,,,,,,AFSA16.jpg,AFNE17.jpg,AFSA09.jpg,AFNE12.jpg,AFSA09.jpg,FS,4,num_2,32,num_6,0.550132882416,,,2017_Sep_22_1527,59.9963437913,FEMA4ImagesEEG,001,101800,
AFNE01.JPG,AFNE01.JPG,AFNE01.JPG,AFNE01.JPG,AFNE01.JPG,AFNE01.JPG,,,,,,,,,,,,,,,,,4,2,42,8,,,,,,,AFSA15.jpg,AFNE09.jpg,AFSA18.jpg,AFNE08.jpg,AFSA15.jpg,FS,4,num_8,16,num_8,0.566822246755,,,2017_Sep_22_1527,59.9963437913,FEMA4ImagesEEG,001,101800,
AFNE01.JPG,AFNE01.JPG,AFNE01.JPG,AFNE01.JPG,AFNE01.JPG,AFNE01.JPG,,,,,,,,,,,,,,,,,4,3,43,4,,,,,,,AFNE07.jpg,AFSA16.jpg,AFSA10.jpg,AFNE08.jpg,AFSA16.jpg,FS,4,num_6,32,num_8,0.46681563952,,,2017_Sep_22_1527,59.9963437913,FEMA4ImagesEEG,001,101800,
AFNE01.JPG,AFNE01.JPG,AFNE01.JPG,AFNE01.JPG,AFNE01.JPG,AFNE01.JPG,,,,,,,,,,,,,,,,,4,4,44,6,,,,,,,AFNE04.jpg,AFNE05.jpg,AFSA11.jpg,AFSA20.jpg,AFSA20.jpg,FS,4,num_4,32,num_2,0.450203894164,,,2017_Sep_22_1527,59.9963437913,FEMA4ImagesEEG,001,101800,
AFNE01.JPG,AFNE01.JPG,AFNE01.JPG,AFNE01.JPG,AFNE01.JPG,AFNE01.JPG,,,,,,,,,,,,,,,,,4,5,45,9,,,,,,,AFNE01.jpg,AFSA04.jpg,AFSA12.jpg,AFNE11.jpg,AFSA12.jpg,FS,4,num_2,32,num_8,0.733387132055,,,2017_Sep_22_1527,59.9963437913,FEMA4ImagesEEG,001,101800,
AFNE01.JPG,AFNE01.JPG,AFNE01.JPG,AFNE01.JPG,AFNE01.JPG,AFNE01.JPG,,,,,,,,,,,,,,,,,4,6,46,0,,,,,,,AFSA16.jpg,AFNE03.jpg,AFSA01.jpg,AFNE12.jpg,AFSA01.jpg,FS,4,num_2,32,num_8,0.917076625332,,,2017_Sep_22_1527,59.9963437913,FEMA4ImagesEEG,001,101800,
AFNE01.JPG,AFNE01.JPG,AFNE01.JPG,AFNE01.JPG,AFNE01.JPG,AFNE01.JPG,,,,,,,,,,,,,,,,,4,7,47,3,,,,,,,AFNE10.jpg,AFSA08.jpg,AFSA06.jpg,AFNE16.jpg,AFNE16.jpg,FN,3,num_4,16,num_4,0.683499294693,,,2017_Sep_22_1527,59.9963437913,FEMA4ImagesEEG,001,101800,
AFNE01.JPG,AFNE01.JPG,AFNE01.JPG,AFNE01.JPG,AFNE01.JPG,AFNE01.JPG,,,,,,,,,,,,,,,,,4,8,48,5,,,,,,,AFSA07.jpg,AFNE08.jpg,AFSA04.jpg,AFNE16.jpg,AFSA07.jpg,FS,4,num_8,32,num_6,0.650146545923,,,2017_Sep_22_1527,59.9963437913,FEMA4ImagesEEG,001,101800,
AFNE01.JPG,AFNE01.JPG,AFNE01.JPG,AFNE01.JPG,AFNE01.JPG,AFNE01.JPG,,,,,,,,,,,,,,,,,4,9,49,7,,,,,,,AFSA19.jpg,AFNE13.jpg,AFNE01.jpg,AFSA10.jpg,AFSA19.jpg,FS,4,num_8,32,num_4,1.08347568826,,,2017_Sep_22_1527,59.9963437913,FEMA4ImagesEEG,001,101800,
AFNE01.JPG,AFNE01.JPG,AFNE01.JPG,AFNE01.JPG,AFNE01.JPG,AFNE01.JPG,,,,,,,,,,,,,,,,,5,0,50,4,,,,,,,AFSA03.jpg,AFNE18.jpg,AFSA20.jpg,AFNE04.jpg,AFNE18.jpg,FN,3,num_6,32,num_8,0.533530117769,,,2017_Sep_22_1527,59.9963437913,FEMA4ImagesEEG,001,101800,
AFNE01.JPG,AFNE01.JPG,AFNE01.JPG,AFNE01.JPG,AFNE01.JPG,AFNE01.JPG,,,,,,,,,,,,,,,,,5,1,51,7,,,,,,,AFSA20.jpg,AFSA05.jpg,AFNE12.jpg,AFNE04.jpg,AFSA05.jpg,FS,4,num_6,32,num_8,0.599980627328,,,2017_Sep_22_1527,59.9963437913,FEMA4ImagesEEG,001,101800,
AFNE01.JPG,AFNE01.JPG,AFNE01.JPG,AFNE01.JPG,AFNE01.JPG,AFNE01.JPG,,,,,,,,,,,,,,,,,5,2,52,1,,,,,,,AFNE01.jpg,AFSA09.jpg,AFSA19.jpg,AFNE14.jpg,AFSA09.jpg,FS,4,num_6,32,num_2,0.466808583248,,,2017_Sep_22_1527,59.9963437913,FEMA4ImagesEEG,001,101800,
AFNE01.JPG,AFNE01.JPG,AFNE01.JPG,AFNE01.JPG,AFNE01.JPG,AFNE01.JPG,,,,,,,,,,,,,,,,,5,3,53,2,,,,,,,AFNE17.jpg,AFSA01.jpg,AFNE11.jpg,AFSA02.jpg,AFNE11.jpg,FN,3,num_2,32,num_6,0.433543075648,,,2017_Sep_22_1527,59.9963437913,FEMA4ImagesEEG,001,101800,
AFNE01.JPG,AFNE01.JPG,AFNE01.JPG,AFNE01.JPG,AFNE01.JPG,AFNE01.JPG,,,,,,,,,,,,,,,,,5,4,54,3,,,,,,,AFSA03.jpg,AFNE01.jpg,AFSA09.jpg,AFNE03.jpg,AFSA09.jpg,FS,4,num_2,16,num_2,0.533482969048,,,2017_Sep_22_1527,59.9963437913,FEMA4ImagesEEG,001,101800,
AFNE01.JPG,AFNE01.JPG,AFNE01.JPG,AFNE01.JPG,AFNE01.JPG,AFNE01.JPG,,,,,,,,,,,,,,,,,5,5,55,0,,,,,,,AFNE07.jpg,AFSA13.jpg,AFNE13.jpg,AFSA16.jpg,AFNE07.jpg,FN,3,num_8,16,num_8,0.483496985368,,,2017_Sep_22_1527,59.9963437913,FEMA4ImagesEEG,001,101800,
AFNE01.JPG,AFNE01.JPG,AFNE01.JPG,AFNE01.JPG,AFNE01.JPG,AFNE01.JPG,,,,,,,,,,,,,,,,,5,6,56,5,,,,,,,AFNE10.jpg,AFSA06.jpg,AFSA01.jpg,AFNE20.jpg,AFNE10.jpg,FN,3,num_8,16,num_8,0.36680390045,,,2017_Sep_22_1527,59.9963437913,FEMA4ImagesEEG,001,101800,
AFNE01.JPG,AFNE01.JPG,AFNE01.JPG,AFNE01.JPG,AFNE01.JPG,AFNE01.JPG,,,,,,,,,,,,,,,,,5,7,57,6,,,,,,,AFSA12.jpg,AFNE10.jpg,AFNE08.jpg,AFSA18.jpg,AFNE08.jpg,FN,3,num_2,32,num_8,0.816792257603,,,2017_Sep_22_1527,59.9963437913,FEMA4ImagesEEG,001,101800,
AFNE01.JPG,AFNE01.JPG,AFNE01.JPG,AFNE01.JPG,AFNE01.JPG,AFNE01.JPG,,,,,,,,,,,,,,,,,5,8,58,8,,,,,,,AFNE15.jpg,AFSA19.jpg,AFSA20.jpg,AFNE07.jpg,AFSA20.jpg,FS,4,num_2,16,num_2,1.13370607551,,,2017_Sep_22_1527,59.9963437913,FEMA4ImagesEEG,001,101800,
AFNE01.JPG,AFNE01.JPG,AFNE01.JPG,AFNE01.JPG,AFNE01.JPG,AFNE01.JPG,,,,,,,,,,,,,,,,,5,9,59,9,,,,,,,AFNE03.jpg,AFNE10.jpg,AFSA15.jpg,AFSA11.jpg,AFNE03.jpg,FN,3,num_8,16,num_8,0.533524344456,,,2017_Sep_22_1527,59.9963437913,FEMA4ImagesEEG,001,101800,
,,,,,,,,,,,,,,,,,,,,,,,,,,,,,,,,,,,,,,,,,,,space,4.76645987516,2017_Sep_22_1527,59.9963437913,FEMA4ImagesEEG,001,101800,
AFNE01.JPG,AFNE01.JPG,AFNE01.JPG,AFNE01.JPG,AFNE01.JPG,AFNE01.JPG,,,,,,,,,,,,,,,,,,,,,0,0,0,1,,,AMNE04.jpg,AMNE14.jpg,AMSA03.jpg,AMSA01.jpg,AMNE04.jpg,MN,1,num_8,16,num_8,0.500209763698,,,2017_Sep_22_1527,59.9963437913,FEMA4ImagesEEG,001,101800,
AFNE01.JPG,AFNE01.JPG,AFNE01.JPG,AFNE01.JPG,AFNE01.JPG,AFNE01.JPG,,,,,,,,,,,,,,,,,,,,,0,1,1,6,,,AMNE08.jpg,AMSA14.jpg,AMSA13.jpg,AMNE11.jpg,AMSA14.jpg,MS,2,num_6,16,num_6,0.600183976235,,,2017_Sep_22_1527,59.9963437913,FEMA4ImagesEEG,001,101800,
AFNE01.JPG,AFNE01.JPG,AFNE01.JPG,AFNE01.JPG,AFNE01.JPG,AFNE01.JPG,,,,,,,,,,,,,,,,,,,,,0,2,2,8,,,AMNE16.jpg,AMNE15.jpg,AMSA20.jpg,AMSA19.jpg,AMNE16.jpg,MN,1,num_8,16,num_8,1.20013156738,,,2017_Sep_22_1527,59.9963437913,FEMA4ImagesEEG,001,101800,
AFNE01.JPG,AFNE01.JPG,AFNE01.JPG,AFNE01.JPG,AFNE01.JPG,AFNE01.JPG,,,,,,,,,,,,,,,,,,,,,0,3,3,5,,,AMSA07.jpg,AMNE02.jpg,AMSA02.jpg,AMNE14.jpg,AMNE14.jpg,MN,1,num_4,16,num_4,0.783477997584,,,2017_Sep_22_1527,59.9963437913,FEMA4ImagesEEG,001,101800,
AFNE01.JPG,AFNE01.JPG,AFNE01.JPG,AFNE01.JPG,AFNE01.JPG,AFNE01.JPG,,,,,,,,,,,,,,,,,,,,,0,4,4,4,,,AMSA13.jpg,AMSA16.jpg,AMNE01.jpg,AMNE20.jpg,AMSA13.jpg,MS,2,num_8,32,num_4,0.933474437375,,,2017_Sep_22_1527,59.9963437913,FEMA4ImagesEEG,001,101800,
AFNE01.JPG,AFNE01.JPG,AFNE01.JPG,AFNE01.JPG,AFNE01.JPG,AFNE01.JPG,,,,,,,,,,,,,,,,,,,,,0,5,5,0,,,AMNE11.jpg,AMSA02.jpg,AMSA18.jpg,AMNE08.jpg,AMSA18.jpg,MS,2,num_2,16,num_2,0.533191416752,,,2017_Sep_22_1527,59.9963437913,FEMA4ImagesEEG,001,101800,
AFNE01.JPG,AFNE01.JPG,AFNE01.JPG,AFNE01.JPG,AFNE01.JPG,AFNE01.JPG,,,,,,,,,,,,,,,,,,,,,0,6,6,3,,,AMNE13.jpg,AMSA13.jpg,AMSA18.jpg,AMNE14.jpg,AMNE13.jpg,MN,1,num_8,16,num_8,0.933447174509,,,2017_Sep_22_1527,59.9963437913,FEMA4ImagesEEG,001,101800,
AFNE01.JPG,AFNE01.JPG,AFNE01.JPG,AFNE01.JPG,AFNE01.JPG,AFNE01.JPG,,,,,,,,,,,,,,,,,,,,,0,7,7,9,,,AMSA17.jpg,AMSA01.jpg,AMNE11.jpg,AMNE02.jpg,AMSA17.jpg,MS,2,num_8,16,num_8,0.566705497541,,,2017_Sep_22_1527,59.9963437913,FEMA4ImagesEEG,001,101800,
AFNE01.JPG,AFNE01.JPG,AFNE01.JPG,AFNE01.JPG,AFNE01.JPG,AFNE01.JPG,,,,,,,,,,,,,,,,,,,,,0,8,8,2,,,AMNE07.jpg,AMSA09.jpg,AMSA14.jpg,AMNE05.jpg,AMSA14.jpg,MS,2,num_2,32,num_4,1.150113189,,,2017_Sep_22_1527,59.9963437913,FEMA4ImagesEEG,001,101800,
AFNE01.JPG,AFNE01.JPG,AFNE01.JPG,AFNE01.JPG,AFNE01.JPG,AFNE01.JPG,,,,,,,,,,,,,,,,,,,,,0,9,9,7,,,AMSA10.jpg,AMNE20.jpg,AMSA19.jpg,AMNE19.jpg,AMNE20.jpg,MN,1,num_6,16,num_6,0.600182051797,,,2017_Sep_22_1527,59.9963437913,FEMA4ImagesEEG,001,101800,
AFNE01.JPG,AFNE01.JPG,AFNE01.JPG,AFNE01.JPG,AFNE01.JPG,AFNE01.JPG,,,,,,,,,,,,,,,,,,,,,1,0,10,2,,,AMSA04.jpg,AMSA02.jpg,AMNE15.jpg,AMNE05.jpg,AMNE15.jpg,MN,1,num_2,32,num_6,1.60020289987,,,2017_Sep_22_1527,59.9963437913,FEMA4ImagesEEG,001,101800,
AFNE01.JPG,AFNE01.JPG,AFNE01.JPG,AFNE01.JPG,AFNE01.JPG,AFNE01.JPG,,,,,,,,,,,,,,,,,,,,,1,1,11,7,,,AMSA07.jpg,AMSA20.jpg,AMNE07.jpg,AMNE05.jpg,AMSA07.jpg,MS,2,num_8,32,num_4,0.816816313073,,,2017_Sep_22_1527,59.9963437913,FEMA4ImagesEEG,001,101800,
AFNE01.JPG,AFNE01.JPG,AFNE01.JPG,AFNE01.JPG,AFNE01.JPG,AFNE01.JPG,,,,,,,,,,,,,,,,,,,,,1,2,12,4,,,AMNE16.jpg,AMNE20.jpg,AMSA19.jpg,AMSA03.jpg,AMNE20.jpg,MN,1,num_6,32,num_8,0.533499326768,,,2017_Sep_22_1527,59.9963437913,FEMA4ImagesEEG,001,101800,
AFNE01.JPG,AFNE01.JPG,AFNE01.JPG,AFNE01.JPG,AFNE01.JPG,AFNE01.JPG,,,,,,,,,,,,,,,,,,,,,1,3,13,9,,,AMSA01.jpg,AMSA17.jpg,AMNE11.jpg,AMNE01.jpg,AMNE01.jpg,MN,1,num_4,32,num_8,0.750021008444,,,2017_Sep_22_1527,59.9963437913,FEMA4ImagesEEG,001,101800,
AFNE01.JPG,AFNE01.JPG,AFNE01.JPG,AFNE01.JPG,AFNE01.JPG,AFNE01.JPG,,,,,,,,,,,,,,,,,,,,,1,4,14,6,,,AMNE09.jpg,AMSA10.jpg,AMSA13.jpg,AMNE16.jpg,AMNE09.jpg,MN,1,num_8,32,num_2,1.88341372137,,,2017_Sep_22_1527,59.9963437913,FEMA4ImagesEEG,001,101800,
AFNE01.JPG,AFNE01.JPG,AFNE01.JPG,AFNE01.JPG,AFNE01.JPG,AFNE01.JPG,,,,,,,,,,,,,,,,,,,,,1,5,15,0,,,AMNE16.jpg,AMSA11.jpg,AMNE19.jpg,AMSA19.jpg,AMSA19.jpg,MS,2,num_4,32,num_8,0.56676258919,,,2017_Sep_22_1527,59.9963437913,FEMA4ImagesEEG,001,101800,
AFNE01.JPG,AFNE01.JPG,AFNE01.JPG,AFNE01.JPG,AFNE01.JPG,AFNE01.JPG,,,,,,,,,,,,,,,,,,,,,1,6,16,8,,,AMNE16.jpg,AMSA03.jpg,AMSA11.jpg,AMNE14.jpg,AMNE16.jpg,MN,1,num_8,16,num_8,1.61650064116,,,2017_Sep_22_1527,59.9963437913,FEMA4ImagesEEG,001,101800,
AFNE01.JPG,AFNE01.JPG,AFNE01.JPG,AFNE01.JPG,AFNE01.JPG,AFNE01.JPG,,,,,,,,,,,,,,,,,,,,,1,7,17,5,,,AMNE20.jpg,AMSA15.jpg,AMNE01.jpg,AMSA06.jpg,AMSA15.jpg,MS,2,num_6,16,num_6,0.650170601393,,,2017_Sep_22_1527,59.9963437913,FEMA4ImagesEEG,001,101800,
AFNE01.JPG,AFNE01.JPG,AFNE01.JPG,AFNE01.JPG,AFNE01.JPG,AFNE01.JPG,,,,,,,,,,,,,,,,,,,,,1,8,18,3,,,AMSA05.jpg,AMNE15.jpg,AMSA16.jpg,AMNE20.jpg,AMNE15.jpg,MN,1,num_6,16,num_6,0.50014401208,,,2017_Sep_22_1527,59.9963437913,FEMA4ImagesEEG,001,101800,
AFNE01.JPG,AFNE01.JPG,AFNE01.JPG,AFNE01.JPG,AFNE01.JPG,AFNE01.JPG,,,,,,,,,,,,,,,,,,,,,1,9,19,1,,,AMSA19.jpg,AMNE06.jpg,AMNE11.jpg,AMSA20.jpg,AMSA20.jpg,MS,2,num_4,32,num_8,0.816769485091,,,2017_Sep_22_1527,59.9963437913,FEMA4ImagesEEG,001,101800,
AFNE01.JPG,AFNE01.JPG,AFNE01.JPG,AFNE01.JPG,AFNE01.JPG,AFNE01.JPG,,,,,,,,,,,,,,,,,,,,,2,0,20,5,,,AMSA20.jpg,AMSA15.jpg,AMNE13.jpg,AMNE11.jpg,AMNE13.jpg,MN,1,num_2,16,num_2,0.716793027378,,,2017_Sep_22_1527,59.9963437913,FEMA4ImagesEEG,001,101800,
AFNE01.JPG,AFNE01.JPG,AFNE01.JPG,AFNE01.JPG,AFNE01.JPG,AFNE01.JPG,,,,,,,,,,,,,,,,,,,,,2,1,21,4,,,AMNE04.jpg,AMSA11.jpg,AMSA17.jpg,AMNE17.jpg,AMNE17.jpg,MN,1,num_4,32,num_2,0.850017672752,,,2017_Sep_22_1527,59.9963437913,FEMA4ImagesEEG,001,101800,
AFNE01.JPG,AFNE01.JPG,AFNE01.JPG,AFNE01.JPG,AFNE01.JPG,AFNE01.JPG,,,,,,,,,,,,,,,,,,,,,2,2,22,6,,,AMNE13.jpg,AMSA08.jpg,AMNE18.jpg,AMSA01.jpg,AMNE18.jpg,MN,1,num_2,32,num_8,1.9833603503,,,2017_Sep_22_1527,59.9963437913,FEMA4ImagesEEG,001,101800,
AFNE01.JPG,AFNE01.JPG,AFNE01.JPG,AFNE01.JPG,AFNE01.JPG,AFNE01.JPG,,,,,,,,,,,,,,,,,,,,,2,3,23,9,,,AMSA11.jpg,AMSA12.jpg,AMNE17.jpg,AMNE18.jpg,AMSA12.jpg,MS,2,num_6,32,num_2,0.716814516931,,,2017_Sep_22_1527,59.9963437913,FEMA4ImagesEEG,001,101800,
AFNE01.JPG,AFNE01.JPG,AFNE01.JPG,AFNE01.JPG,AFNE01.JPG,AFNE01.JPG,,,,,,,,,,,,,,,,,,,,,2,4,24,8,,,AMNE17.jpg,AMSA16.jpg,AMSA07.jpg,AMNE05.jpg,AMSA16.jpg,MS,2,num_6,16,num_6,0.600127205325,,,2017_Sep_22_1527,59.9963437913,FEMA4ImagesEEG,001,101800,
AFNE01.JPG,AFNE01.JPG,AFNE01.JPG,AFNE01.JPG,AFNE01.JPG,AFNE01.JPG,,,,,,,,,,,,,,,,,,,,,2,5,25,1,,,AMNE15.jpg,AMSA16.jpg,AMNE03.jpg,AMSA17.jpg,AMSA17.jpg,MS,2,num_4,32,num_8,0.71681515841,,,2017_Sep_22_1527,59.9963437913,FEMA4ImagesEEG,001,101800,
AFNE01.JPG,AFNE01.JPG,AFNE01.JPG,AFNE01.JPG,AFNE01.JPG,AFNE01.JPG,,,,,,,,,,,,,,,,,,,,,2,6,26,7,,,AMNE07.jpg,AMSA20.jpg,AMNE08.jpg,AMSA02.jpg,AMNE07.jpg,MN,1,num_8,16,num_8,0.650205562009,,,2017_Sep_22_1527,59.9963437913,FEMA4ImagesEEG,001,101800,
AFNE01.JPG,AFNE01.JPG,AFNE01.JPG,AFNE01.JPG,AFNE01.JPG,AFNE01.JPG,,,,,,,,,,,,,,,,,,,,,2,7,27,2,,,AMSA03.jpg,AMSA01.jpg,AMNE20.jpg,AMNE19.jpg,AMSA01.jpg,MS,2,num_6,32,num_4,0.750161813128,,,2017_Sep_22_1527,59.9963437913,FEMA4ImagesEEG,001,101800,
AFNE01.JPG,AFNE01.JPG,AFNE01.JPG,AFNE01.JPG,AFNE01.JPG,AFNE01.JPG,,,,,,,,,,,,,,,,,,,,,2,8,28,0,,,AMNE05.jpg,AMNE13.jpg,AMSA20.jpg,AMSA01.jpg,AMNE05.jpg,MN,1,num_8,32,num_2,0.450218648185,,,2017_Sep_22_1527,59.9963437913,FEMA4ImagesEEG,001,101800,
AFNE01.JPG,AFNE01.JPG,AFNE01.JPG,AFNE01.JPG,AFNE01.JPG,AFNE01.JPG,,,,,,,,,,,,,,,,,,,,,2,9,29,3,,,AMSA15.jpg,AMNE15.jpg,AMNE20.jpg,AMSA04.jpg,AMSA04.jpg,MS,2,num_4,32,num_8,0.433486625479,,,2017_Sep_22_1527,59.9963437913,FEMA4ImagesEEG,001,101800,
AFNE01.JPG,AFNE01.JPG,AFNE01.JPG,AFNE01.JPG,AFNE01.JPG,AFNE01.JPG,,,,,,,,,,,,,,,,,,,,,3,0,30,6,,,AMSA10.jpg,AMNE09.jpg,AMSA09.jpg,AMNE19.jpg,AMSA10.jpg,MS,2,num_8,32,num_4,0.316847745554,,,2017_Sep_22_1527,59.9963437913,FEMA4ImagesEEG,001,101800,
AFNE01.JPG,AFNE01.JPG,AFNE01.JPG,AFNE01.JPG,AFNE01.JPG,AFNE01.JPG,,,,,,,,,,,,,,,,,,,,,3,1,31,8,,,AMSA12.jpg,AMNE05.jpg,AMNE13.jpg,AMSA02.jpg,AMNE13.jpg,MN,1,num_2,32,num_8,0.600129129763,,,2017_Sep_22_1527,59.9963437913,FEMA4ImagesEEG,001,101800,
AFNE01.JPG,AFNE01.JPG,AFNE01.JPG,AFNE01.JPG,AFNE01.JPG,AFNE01.JPG,,,,,,,,,,,,,,,,,,,,,3,2,32,2,,,AMSA12.jpg,AMNE05.jpg,AMNE15.jpg,AMSA08.jpg,AMNE05.jpg,MN,1,num_6,16,num_6,0.583451312049,,,2017_Sep_22_1527,59.9963437913,FEMA4ImagesEEG,001,101800,
AFNE01.JPG,AFNE01.JPG,AFNE01.JPG,AFNE01.JPG,AFNE01.JPG,AFNE01.JPG,,,,,,,,,,,,,,,,,,,,,3,3,33,0,,,AMSA07.jpg,AMSA11.jpg,AMNE09.jpg,AMNE13.jpg,AMSA07.jpg,MS,2,num_8,32,num_6,0.700103663039,,,2017_Sep_22_1527,59.9963437913,FEMA4ImagesEEG,001,101800,
AFNE01.JPG,AFNE01.JPG,AFNE01.JPG,AFNE01.JPG,AFNE01.JPG,AFNE01.JPG,,,,,,,,,,,,,,,,,,,,,3,4,34,7,,,AMSA14.jpg,AMSA08.jpg,AMNE07.jpg,AMNE09.jpg,AMSA08.jpg,MS,2,num_6,16,num_6,0.850017031273,,,2017_Sep_22_1527,59.9963437913,FEMA4ImagesEEG,001,101800,
AFNE01.JPG,AFNE01.JPG,AFNE01.JPG,AFNE01.JPG,AFNE01.JPG,AFNE01.JPG,,,,,,,,,,,,,,,,,,,,,3,5,35,5,,,AMNE08.jpg,AMSA14.jpg,AMNE11.jpg,AMSA03.jpg,AMSA03.jpg,MS,2,num_4,32,num_6,0.816782314675,,,2017_Sep_22_1527,59.9963437913,FEMA4ImagesEEG,001,101800,
AFNE01.JPG,AFNE01.JPG,AFNE01.JPG,AFNE01.JPG,AFNE01.JPG,AFNE01.JPG,,,,,,,,,,,,,,,,,,,,,3,6,36,4,,,AMSA01.jpg,AMSA10.jpg,AMNE08.jpg,AMNE06.jpg,AMNE08.jpg,MN,1,num_2,32,num_4,0.500157803884,,,2017_Sep_22_1527,59.9963437913,FEMA4ImagesEEG,001,101800,
AFNE01.JPG,AFNE01.JPG,AFNE01.JPG,AFNE01.JPG,AFNE01.JPG,AFNE01.JPG,,,,,,,,,,,,,,,,,,,,,3,7,37,9,,,AMSA17.jpg,AMNE10.jpg,AMSA18.jpg,AMNE02.jpg,AMSA17.jpg,MS,2,num_8,16,num_8,1.31664407591,,,2017_Sep_22_1527,59.9963437913,FEMA4ImagesEEG,001,101800,
AFNE01.JPG,AFNE01.JPG,AFNE01.JPG,AFNE01.JPG,AFNE01.JPG,AFNE01.JPG,,,,,,,,,,,,,,,,,,,,,3,8,38,1,,,AMNE05.jpg,AMNE09.jpg,AMSA05.jpg,AMSA08.jpg,AMSA08.jpg,MS,2,num_4,32,num_2,0.583499422989,,,2017_Sep_22_1527,59.9963437913,FEMA4ImagesEEG,001,101800,
