IPosition2,IPosition3,IPosition1,IPosition6,IPosition4,IPosition5,TrialsM1.thisRepN,TrialsM1.thisTrialN,TrialsM1.thisN,TrialsM1.thisIndex,TrialsF1.thisRepN,TrialsF1.thisTrialN,TrialsF1.thisN,TrialsF1.thisIndex,TrialsM2.thisRepN,TrialsM2.thisTrialN,TrialsM2.thisN,TrialsM2.thisIndex,TrialsF2.thisRepN,TrialsF2.thisTrialN,TrialsF2.thisN,TrialsF2.thisIndex,TrialsM3.thisRepN,TrialsM3.thisTrialN,TrialsM3.thisN,TrialsM3.thisIndex,TrialsF3.thisRepN,TrialsF3.thisTrialN,TrialsF3.thisN,TrialsF3.thisIndex,InstrKey_resp.keys,InstrKey_resp.rt,Image0 _Position,Image1 _Position,Image2 _Position,Image3 _Position,Center_image,condition,code,correct_answer,accuracy,Key_Resp.keys,Key_Resp.rt,BreakKey_resp.keys,BreakKey_resp.rt,date,frameRate,expName,session,participant,
,,,,,,,,,,,,,,,,,,,,,,,,,,,,,,space,12.3831933463,,,,,,,,,,,,,,2017_Oct_06_1832,59.9982103215,MAFE4ImagesEEG,001,101801,
AFSA21.JPG,AFNE22.JPG,AFNE21.JPG,AFSA23.JPG,AFSA22.JPG,AFNE23.JPG,0,0,0,0,,,,,,,,,,,,,,,,,,,,,,,AMNE01.jpg,AMNE18.jpg,AMSA15.jpg,AMSA03.jpg,AMSA03.jpg,MS,2,num_4,16,num_4,1.7333780445,,,2017_Oct_06_1832,59.9982103215,MAFE4ImagesEEG,001,101801,
AMNE23.JPG,AMNE24.JPG,AMNE22.JPG,AMSA24.JPG,AMSA22.JPG,AMSA23.JPG,0,1,1,9,,,,,,,,,,,,,,,,,,,,,,,AMNE05.jpg,AMSA18.jpg,AMNE12.jpg,AMSA10.jpg,AMSA10.jpg,MS,2,num_4,16,num_4,1.01673782285,,,2017_Oct_06_1832,59.9982103215,MAFE4ImagesEEG,001,101801,
AFNE23.JPG,AFNE24.JPG,AFNE22.JPG,AFSA24.JPG,AFSA22.JPG,AFSA23.JPG,0,2,2,8,,,,,,,,,,,,,,,,,,,,,,,AMSA20.jpg,AMNE19.jpg,AMSA09.jpg,AMNE14.jpg,AMNE14.jpg,MN,1,num_4,16,num_4,0.616772013775,,,2017_Oct_06_1832,59.9982103215,MAFE4ImagesEEG,001,101801,
AFSA21.JPG,AFNE23.JPG,AFNE21.JPG,AFSA25.JPG,AFNE25.JPG,AFSA23.JPG,0,3,3,4,,,,,,,,,,,,,,,,,,,,,,,AMSA08.jpg,AMSA19.jpg,AMNE11.jpg,AMNE08.jpg,AMSA08.jpg,MS,2,num_8,32,num_4,1.65008183685,,,2017_Oct_06_1832,59.9982103215,MAFE4ImagesEEG,001,101801,
AFNE22.JPG,AFSA24.JPG,AFSA22.JPG,AFNE25.JPG,AFNE24.JPG,AFSA25.JPG,0,4,4,6,,,,,,,,,,,,,,,,,,,,,,,AMNE19.jpg,AMNE15.jpg,AMSA11.jpg,AMSA09.jpg,AMSA11.jpg,MS,2,num_2,32,num_4,0.900124094333,,,2017_Oct_06_1832,59.9982103215,MAFE4ImagesEEG,001,101801,
AFSA25.JPG,AFNE24.JPG,AFSA24.JPG,AFNE21.JPG,AFSA21.JPG,AFNE25.JPG,0,5,5,2,,,,,,,,,,,,,,,,,,,,,,,AMNE15.jpg,AMSA17.jpg,AMSA16.jpg,AMNE18.jpg,AMSA17.jpg,MS,2,num_6,16,num_6,0.883438872872,,,2017_Oct_06_1832,59.9982103215,MAFE4ImagesEEG,001,101801,
AMNE22.JPG,AMSA24.JPG,AMSA22.JPG,AMNE25.JPG,AMNE24.JPG,AMSA25.JPG,0,6,6,7,,,,,,,,,,,,,,,,,,,,,,,AMSA06.jpg,AMNE17.jpg,AMNE01.jpg,AMSA19.jpg,AMNE01.jpg,MN,1,num_2,16,num_2,0.666770907235,,,2017_Oct_06_1832,59.9982103215,MAFE4ImagesEEG,001,101801,
AMSA21.JPG,AMNE22.JPG,AMNE21.JPG,AMSA23.JPG,AMSA22.JPG,AMNE23.JPG,0,7,7,1,,,,,,,,,,,,,,,,,,,,,,,AMNE17.jpg,AMSA09.jpg,AMSA11.jpg,AMNE19.jpg,AMNE17.jpg,MN,1,num_8,16,num_8,0.966762022697,,,2017_Oct_06_1832,59.9982103215,MAFE4ImagesEEG,001,101801,
AMSA21.JPG,AMNE23.JPG,AMNE21.JPG,AMSA25.JPG,AMNE25.JPG,AMSA23.JPG,0,8,8,5,,,,,,,,,,,,,,,,,,,,,,,AMNE20.jpg,AMSA14.jpg,AMSA01.jpg,AMNE16.jpg,AMSA01.jpg,MS,2,num_2,16,num_2,1.31674882426,,,2017_Oct_06_1832,59.9982103215,MAFE4ImagesEEG,001,101801,
AMSA25.JPG,AMNE24.JPG,AMSA24.JPG,AMNE26.JPG,AMSA21.JPG,AMNE25.JPG,0,9,9,3,,,,,,,,,,,,,,,,,,,,,,,AMNE07.jpg,AMSA17.jpg,AMNE18.jpg,AMSA13.jpg,AMSA13.jpg,MS,2,num_4,16,num_4,0.566789478005,,,2017_Oct_06_1832,59.9982103215,MAFE4ImagesEEG,001,101801,
AMNE22.JPG,AMSA24.JPG,AMSA22.JPG,AMNE25.JPG,AMNE24.JPG,AMSA25.JPG,,,,,0,0,0,7,,,,,,,,,,,,,,,,,,,AFSA03.jpg,AFNE09.jpg,AFNE15.jpg,AFSA10.jpg,AFSA03.jpg,FS,4,num_8,16,num_8,0.800173135533,,,2017_Oct_06_1832,59.9982103215,MAFE4ImagesEEG,001,101801,
AMNE23.JPG,AMNE24.JPG,AMNE22.JPG,AMSA24.JPG,AMSA22.JPG,AMSA23.JPG,,,,,0,1,1,9,,,,,,,,,,,,,,,,,,,AFSA19.jpg,AFSA13.jpg,AFNE19.jpg,AFNE05.jpg,AFNE05.jpg,FN,3,num_4,32,num_2,1.71669667185,,,2017_Oct_06_1832,59.9982103215,MAFE4ImagesEEG,001,101801,
AFSA21.JPG,AFNE23.JPG,AFNE21.JPG,AFSA25.JPG,AFNE25.JPG,AFSA23.JPG,,,,,0,2,2,4,,,,,,,,,,,,,,,,,,,AFNE14.jpg,AFNE12.jpg,AFSA03.jpg,AFSA05.jpg,AFNE12.jpg,FN,3,num_6,16,num_6,0.66664806375,,,2017_Oct_06_1832,59.9982103215,MAFE4ImagesEEG,001,101801,
AMSA21.JPG,AMNE23.JPG,AMNE21.JPG,AMSA25.JPG,AMNE25.JPG,AMSA23.JPG,,,,,0,3,3,5,,,,,,,,,,,,,,,,,,,AFNE12.jpg,AFSA01.jpg,AFNE01.jpg,AFSA05.jpg,AFSA01.jpg,FS,4,num_6,16,num_6,0.783440444502,,,2017_Oct_06_1832,59.9982103215,MAFE4ImagesEEG,001,101801,
AFNE23.JPG,AFNE24.JPG,AFNE22.JPG,AFSA24.JPG,AFSA22.JPG,AFSA23.JPG,,,,,0,4,4,8,,,,,,,,,,,,,,,,,,,AFSA07.jpg,AFNE13.jpg,AFSA17.jpg,AFNE19.jpg,AFSA17.jpg,FS,4,num_2,32,num_4,1.15002939582,,,2017_Oct_06_1832,59.9982103215,MAFE4ImagesEEG,001,101801,
AMSA25.JPG,AMNE24.JPG,AMSA24.JPG,AMNE26.JPG,AMSA21.JPG,AMNE25.JPG,,,,,0,5,5,3,,,,,,,,,,,,,,,,,,,AFNE12.jpg,AFNE15.jpg,AFSA15.jpg,AFSA03.jpg,AFSA03.jpg,FS,4,num_4,16,num_4,0.80022541614,,,2017_Oct_06_1832,59.9982103215,MAFE4ImagesEEG,001,101801,
AFNE22.JPG,AFSA24.JPG,AFSA22.JPG,AFNE25.JPG,AFNE24.JPG,AFSA25.JPG,,,,,0,6,6,6,,,,,,,,,,,,,,,,,,,AFNE19.jpg,AFSA19.jpg,AFSA18.jpg,AFNE10.jpg,AFSA19.jpg,FS,4,num_6,32,num_8,1.03344100574,,,2017_Oct_06_1832,59.9982103215,MAFE4ImagesEEG,001,101801,
AFSA21.JPG,AFNE22.JPG,AFNE21.JPG,AFSA23.JPG,AFSA22.JPG,AFNE23.JPG,,,,,0,7,7,0,,,,,,,,,,,,,,,,,,,AFNE03.jpg,AFSA10.jpg,AFNE14.jpg,AFSA14.jpg,AFNE14.jpg,FN,3,num_2,32,num_6,1.45010871487,,,2017_Oct_06_1832,59.9982103215,MAFE4ImagesEEG,001,101801,
AMSA21.JPG,AMNE22.JPG,AMNE21.JPG,AMSA23.JPG,AMSA22.JPG,AMNE23.JPG,,,,,0,8,8,1,,,,,,,,,,,,,,,,,,,AFNE14.jpg,AFSA05.jpg,AFSA03.jpg,AFNE01.jpg,AFNE14.jpg,FN,3,num_8,16,num_8,0.816798378597,,,2017_Oct_06_1832,59.9982103215,MAFE4ImagesEEG,001,101801,
AFSA25.JPG,AFNE24.JPG,AFSA24.JPG,AFNE21.JPG,AFSA21.JPG,AFNE25.JPG,,,,,0,9,9,2,,,,,,,,,,,,,,,,,,,AFSA16.jpg,AFNE06.jpg,AFSA20.jpg,AFNE15.jpg,AFNE15.jpg,FN,3,num_4,16,num_4,0.61684834992,,,2017_Oct_06_1832,59.9982103215,MAFE4ImagesEEG,001,101801,
AFSA21.JPG,AFNE23.JPG,AFNE21.JPG,AFSA25.JPG,AFNE25.JPG,AFSA23.JPG,,,,,,,,,0,0,0,4,,,,,,,,,,,,,,,AMSA17.jpg,AMNE05.jpg,AMNE04.jpg,AMSA06.jpg,AMNE05.jpg,MN,1,num_6,32,num_2,1.25011121662,,,2017_Oct_06_1832,59.9982103215,MAFE4ImagesEEG,001,101801,
AMSA21.JPG,AMNE22.JPG,AMNE21.JPG,AMSA23.JPG,AMSA22.JPG,AMNE23.JPG,,,,,,,,,0,1,1,1,,,,,,,,,,,,,,,AMNE20.jpg,AMSA12.jpg,AMSA14.jpg,AMNE15.jpg,AMSA14.jpg,MS,2,num_2,16,num_2,0.616795107024,,,2017_Oct_06_1832,59.9982103215,MAFE4ImagesEEG,001,101801,
AMNE22.JPG,AMSA24.JPG,AMSA22.JPG,AMNE25.JPG,AMNE24.JPG,AMSA25.JPG,,,,,,,,,0,2,2,7,,,,,,,,,,,,,,,AMNE17.jpg,AMSA06.jpg,AMNE11.jpg,AMSA18.jpg,AMNE17.jpg,MN,1,num_8,16,num_8,1.16671525879,,,2017_Oct_06_1832,59.9982103215,MAFE4ImagesEEG,001,101801,
AMSA21.JPG,AMNE23.JPG,AMNE21.JPG,AMSA25.JPG,AMNE25.JPG,AMSA23.JPG,,,,,,,,,0,3,3,5,,,,,,,,,,,,,,,AMNE05.jpg,AMSA03.jpg,AMSA11.jpg,AMNE09.jpg,AMSA11.jpg,MS,2,num_2,32,num_6,0.566812250589,,,2017_Oct_06_1832,59.9982103215,MAFE4ImagesEEG,001,101801,
AFSA21.JPG,AFNE22.JPG,AFNE21.JPG,AFSA23.JPG,AFSA22.JPG,AFNE23.JPG,,,,,,,,,0,4,4,0,,,,,,,,,,,,,,,AMSA17.jpg,AMNE19.jpg,AMSA11.jpg,AMNE03.jpg,AMNE03.jpg,MN,1,num_4,16,num_4,0.850170425256,,,2017_Oct_06_1832,59.9982103215,MAFE4ImagesEEG,001,101801,
AFNE22.JPG,AFSA24.JPG,AFSA22.JPG,AFNE25.JPG,AFNE24.JPG,AFSA25.JPG,,,,,,,,,0,5,5,6,,,,,,,,,,,,,,,AMSA12.jpg,AMNE11.jpg,AMNE05.jpg,AMSA08.jpg,AMNE05.jpg,MN,1,num_2,32,num_8,1.20003021375,,,2017_Oct_06_1832,59.9982103215,MAFE4ImagesEEG,001,101801,
AMNE23.JPG,AMNE24.JPG,AMNE22.JPG,AMSA24.JPG,AMSA22.JPG,AMSA23.JPG,,,,,,,,,0,6,6,9,,,,,,,,,,,,,,,AMSA17.jpg,AMSA09.jpg,AMNE08.jpg,AMNE07.jpg,AMNE07.jpg,MN,1,num_4,16,num_4,0.800118288957,,,2017_Oct_06_1832,59.9982103215,MAFE4ImagesEEG,001,101801,
AMSA25.JPG,AMNE24.JPG,AMSA24.JPG,AMNE26.JPG,AMSA21.JPG,AMNE25.JPG,,,,,,,,,0,7,7,3,,,,,,,,,,,,,,,AMSA10.jpg,AMNE14.jpg,AMSA05.jpg,AMNE17.jpg,AMSA10.jpg,MS,2,num_8,16,num_8,1.56671859452,,,2017_Oct_06_1832,59.9982103215,MAFE4ImagesEEG,001,101801,
AFSA25.JPG,AFNE24.JPG,AFSA24.JPG,AFNE21.JPG,AFSA21.JPG,AFNE25.JPG,,,,,,,,,0,8,8,2,,,,,,,,,,,,,,,AMNE01.jpg,AMNE09.jpg,AMSA13.jpg,AMSA17.jpg,AMNE09.jpg,MN,1,num_6,32,num_2,1.36672430369,,,2017_Oct_06_1832,59.9982103215,MAFE4ImagesEEG,001,101801,
AFNE23.JPG,AFNE24.JPG,AFNE22.JPG,AFSA24.JPG,AFSA22.JPG,AFSA23.JPG,,,,,,,,,0,9,9,8,,,,,,,,,,,,,,,AMSA17.jpg,AMNE14.jpg,AMSA14.jpg,AMNE20.jpg,AMSA17.jpg,MS,2,num_8,16,num_8,1.04998317716,,,2017_Oct_06_1832,59.9982103215,MAFE4ImagesEEG,001,101801,
AMSA25.JPG,AMNE24.JPG,AMSA24.JPG,AMNE26.JPG,AMSA21.JPG,AMNE25.JPG,,,,,,,,,,,,,0,0,0,3,,,,,,,,,,,AFSA13.jpg,AFNE12.jpg,AFSA04.jpg,AFNE01.jpg,AFNE12.jpg,FN,3,num_6,16,num_6,0.633475196664,,,2017_Oct_06_1832,59.9982103215,MAFE4ImagesEEG,001,101801,
AFNE22.JPG,AFSA24.JPG,AFSA22.JPG,AFNE25.JPG,AFNE24.JPG,AFSA25.JPG,,,,,,,,,,,,,0,1,1,6,,,,,,,,,,,AFSA10.jpg,AFNE05.jpg,AFSA01.jpg,AFNE19.jpg,AFNE19.jpg,FN,3,num_4,16,num_4,1.28344477451,,,2017_Oct_06_1832,59.9982103215,MAFE4ImagesEEG,001,101801,
AFSA25.JPG,AFNE24.JPG,AFSA24.JPG,AFNE21.JPG,AFSA21.JPG,AFNE25.JPG,,,,,,,,,,,,,0,2,2,2,,,,,,,,,,,AFNE14.jpg,AFNE12.jpg,AFSA10.jpg,AFSA11.jpg,AFSA10.jpg,FS,4,num_2,32,num_8,1.33346323308,,,2017_Oct_06_1832,59.9982103215,MAFE4ImagesEEG,001,101801,
AMSA21.JPG,AMNE22.JPG,AMNE21.JPG,AMSA23.JPG,AMSA22.JPG,AMNE23.JPG,,,,,,,,,,,,,0,3,3,1,,,,,,,,,,,AFSA05.jpg,AFNE17.jpg,AFNE04.jpg,AFSA14.jpg,AFNE04.jpg,FN,3,num_2,16,num_2,0.783516780648,,,2017_Oct_06_1832,59.9982103215,MAFE4ImagesEEG,001,101801,
AFNE23.JPG,AFNE24.JPG,AFNE22.JPG,AFSA24.JPG,AFSA22.JPG,AFSA23.JPG,,,,,,,,,,,,,0,4,4,8,,,,,,,,,,,AFSA20.jpg,AFNE20.jpg,AFSA15.jpg,AFNE16.jpg,AFSA20.jpg,FS,4,num_8,32,num_6,1.00010680646,,,2017_Oct_06_1832,59.9982103215,MAFE4ImagesEEG,001,101801,
AFSA21.JPG,AFNE22.JPG,AFNE21.JPG,AFSA23.JPG,AFSA22.JPG,AFNE23.JPG,,,,,,,,,,,,,0,5,5,0,,,,,,,,,,,AFSA16.jpg,AFNE20.jpg,AFSA11.jpg,AFNE04.jpg,AFNE20.jpg,FN,3,num_6,32,num_4,0.616745071602,,,2017_Oct_06_1832,59.9982103215,MAFE4ImagesEEG,001,101801,
AMSA21.JPG,AMNE23.JPG,AMNE21.JPG,AMSA25.JPG,AMNE25.JPG,AMSA23.JPG,,,,,,,,,,,,,0,6,6,5,,,,,,,,,,,AFNE19.jpg,AFSA04.jpg,AFSA12.jpg,AFNE09.jpg,AFSA12.jpg,FS,4,num_2,16,num_2,0.533564971876,,,2017_Oct_06_1832,59.9982103215,MAFE4ImagesEEG,001,101801,
AMNE22.JPG,AMSA24.JPG,AMSA22.JPG,AMNE25.JPG,AMNE24.JPG,AMSA25.JPG,,,,,,,,,,,,,0,7,7,7,,,,,,,,,,,AFNE11.jpg,AFNE06.jpg,AFSA14.jpg,AFSA20.jpg,AFNE06.jpg,FN,3,num_6,16,num_6,0.767117017822,,,2017_Oct_06_1832,59.9982103215,MAFE4ImagesEEG,001,101801,
AFSA21.JPG,AFNE23.JPG,AFNE21.JPG,AFSA25.JPG,AFNE25.JPG,AFSA23.JPG,,,,,,,,,,,,,0,8,8,4,,,,,,,,,,,AFSA17.jpg,AFNE12.jpg,AFNE02.jpg,AFSA05.jpg,AFSA17.jpg,FS,4,num_8,32,num_4,0.699712199857,,,2017_Oct_06_1832,59.9982103215,MAFE4ImagesEEG,001,101801,
AMNE23.JPG,AMNE24.JPG,AMNE22.JPG,AMSA24.JPG,AMSA22.JPG,AMSA23.JPG,,,,,,,,,,,,,0,9,9,9,,,,,,,,,,,AFSA13.jpg,AFSA10.jpg,AFNE11.jpg,AFNE03.jpg,AFNE03.jpg,FN,3,num_4,32,num_2,0.900182789832,,,2017_Oct_06_1832,59.9982103215,MAFE4ImagesEEG,001,101801,
AFNE22.JPG,AFSA24.JPG,AFSA22.JPG,AFNE25.JPG,AFNE24.JPG,AFSA25.JPG,,,,,,,,,,,,,,,,,0,0,0,6,,,,,,,AMNE17.jpg,AMSA13.jpg,AMNE07.jpg,AMSA09.jpg,AMSA09.jpg,MS,2,num_4,16,num_4,1.58309462247,,,2017_Oct_06_1832,59.9982103215,MAFE4ImagesEEG,001,101801,
AMNE23.JPG,AMNE24.JPG,AMNE22.JPG,AMSA24.JPG,AMSA22.JPG,AMSA23.JPG,,,,,,,,,,,,,,,,,0,1,1,9,,,,,,,AMNE06.jpg,AMSA17.jpg,AMNE08.jpg,AMSA02.jpg,AMNE08.jpg,MN,1,num_2,32,num_4,0.783566174621,,,2017_Oct_06_1832,59.9982103215,MAFE4ImagesEEG,001,101801,
AFSA21.JPG,AFNE23.JPG,AFNE21.JPG,AFSA25.JPG,AFNE25.JPG,AFSA23.JPG,,,,,,,,,,,,,,,,,0,2,2,4,,,,,,,AMNE04.jpg,AMSA17.jpg,AMSA06.jpg,AMNE10.jpg,AMNE04.jpg,MN,1,num_8,32,num_2,1.11678115488,,,2017_Oct_06_1832,59.9982103215,MAFE4ImagesEEG,001,101801,
AFNE23.JPG,AFNE24.JPG,AFNE22.JPG,AFSA24.JPG,AFSA22.JPG,AFSA23.JPG,,,,,,,,,,,,,,,,,0,3,3,8,,,,,,,AMNE01.jpg,AMNE11.jpg,AMSA06.jpg,AMSA02.jpg,AMNE11.jpg,MN,1,num_6,16,num_6,0.850098579482,,,2017_Oct_06_1832,59.9982103215,MAFE4ImagesEEG,001,101801,
AMNE22.JPG,AMSA24.JPG,AMSA22.JPG,AMNE25.JPG,AMNE24.JPG,AMSA25.JPG,,,,,,,,,,,,,,,,,0,4,4,7,,,,,,,AMSA06.jpg,AMNE14.jpg,AMSA13.jpg,AMNE01.jpg,AMSA13.jpg,MS,2,num_2,16,num_2,1.65007445979,,,2017_Oct_06_1832,59.9982103215,MAFE4ImagesEEG,001,101801,
AMSA21.JPG,AMNE22.JPG,AMNE21.JPG,AMSA23.JPG,AMSA22.JPG,AMNE23.JPG,,,,,,,,,,,,,,,,,0,5,5,1,,,,,,,AMNE20.jpg,AMSA12.jpg,AMSA11.jpg,AMNE08.jpg,AMNE08.jpg,MN,1,num_4,32,num_6,1.38342363772,,,2017_Oct_06_1832,59.9982103215,MAFE4ImagesEEG,001,101801,
AMSA25.JPG,AMNE24.JPG,AMSA24.JPG,AMNE26.JPG,AMSA21.JPG,AMNE25.JPG,,,,,,,,,,,,,,,,,0,6,6,3,,,,,,,AMSA18.jpg,AMNE20.jpg,AMSA12.jpg,AMNE11.jpg,AMNE11.jpg,MN,1,num_4,32,num_6,0.766831879911,,,2017_Oct_06_1832,59.9982103215,MAFE4ImagesEEG,001,101801,
AMSA21.JPG,AMNE23.JPG,AMNE21.JPG,AMSA25.JPG,AMNE25.JPG,AMSA23.JPG,,,,,,,,,,,,,,,,,0,7,7,5,,,,,,,AMNE01.jpg,AMNE14.jpg,AMSA18.jpg,AMSA03.jpg,AMNE01.jpg,MN,1,num_8,32,num_2,0.933481707703,,,2017_Oct_06_1832,59.9982103215,MAFE4ImagesEEG,001,101801,
AFSA21.JPG,AFNE22.JPG,AFNE21.JPG,AFSA23.JPG,AFSA22.JPG,AFNE23.JPG,,,,,,,,,,,,,,,,,0,8,8,0,,,,,,,AMNE20.jpg,AMSA19.jpg,AMNE09.jpg,AMSA16.jpg,AMSA19.jpg,MS,2,num_6,16,num_6,0.683393263665,,,2017_Oct_06_1832,59.9982103215,MAFE4ImagesEEG,001,101801,
AFSA25.JPG,AFNE24.JPG,AFSA24.JPG,AFNE21.JPG,AFSA21.JPG,AFNE25.JPG,,,,,,,,,,,,,,,,,0,9,9,2,,,,,,,AMSA07.jpg,AMSA19.jpg,AMNE05.jpg,AMNE17.jpg,AMNE17.jpg,MN,1,num_4,32,num_2,0.683448430966,,,2017_Oct_06_1832,59.9982103215,MAFE4ImagesEEG,001,101801,
AMSA21.JPG,AMNE22.JPG,AMNE21.JPG,AMSA23.JPG,AMSA22.JPG,AMNE23.JPG,,,,,,,,,,,,,,,,,,,,,0,0,0,1,,,AFSA15.jpg,AFNE04.jpg,AFSA08.jpg,AFNE01.jpg,AFNE04.jpg,FN,3,num_6,16,num_6,0.533456240955,,,2017_Oct_06_1832,59.9982103215,MAFE4ImagesEEG,001,101801,
AMSA25.JPG,AMNE24.JPG,AMSA24.JPG,AMNE26.JPG,AMSA21.JPG,AMNE25.JPG,,,,,,,,,,,,,,,,,,,,,0,1,1,3,,,AFSA06.jpg,AFNE10.jpg,AFSA09.jpg,AFNE18.jpg,AFSA09.jpg,FS,4,num_2,32,num_8,1.61636178714,,,2017_Oct_06_1832,59.9982103215,MAFE4ImagesEEG,001,101801,
AFNE23.JPG,AFNE24.JPG,AFNE22.JPG,AFSA24.JPG,AFSA22.JPG,AFSA23.JPG,,,,,,,,,,,,,,,,,,,,,0,2,2,8,,,AFSA02.jpg,AFNE14.jpg,AFNE07.jpg,AFSA14.jpg,AFNE07.jpg,FN,3,num_2,32,num_6,0.866752368456,,,2017_Oct_06_1832,59.9982103215,MAFE4ImagesEEG,001,101801,
AFNE22.JPG,AFSA24.JPG,AFSA22.JPG,AFNE25.JPG,AFNE24.JPG,AFSA25.JPG,,,,,,,,,,,,,,,,,,,,,0,3,3,6,,,AFNE14.jpg,AFNE05.jpg,AFSA06.jpg,AFSA08.jpg,AFNE14.jpg,FN,3,num_8,32,num_4,1.30005301832,,,2017_Oct_06_1832,59.9982103215,MAFE4ImagesEEG,001,101801,
AMNE22.JPG,AMSA24.JPG,AMSA22.JPG,AMNE25.JPG,AMNE24.JPG,AMSA25.JPG,,,,,,,,,,,,,,,,,,,,,0,4,4,7,,,AFNE10.jpg,AFSA12.jpg,AFNE03.jpg,AFSA13.jpg,AFSA12.jpg,FS,4,num_6,16,num_6,0.567082955269,,,2017_Oct_06_1832,59.9982103215,MAFE4ImagesEEG,001,101801,
AFSA25.JPG,AFNE24.JPG,AFSA24.JPG,AFNE21.JPG,AFSA21.JPG,AFNE25.JPG,,,,,,,,,,,,,,,,,,,,,0,5,5,2,,,AFSA17.jpg,AFNE04.jpg,AFNE01.jpg,AFSA01.jpg,AFSA01.jpg,FS,4,num_4,16,num_4,0.933462784044,,,2017_Oct_06_1832,59.9982103215,MAFE4ImagesEEG,001,101801,
AFSA21.JPG,AFNE22.JPG,AFNE21.JPG,AFSA23.JPG,AFSA22.JPG,AFNE23.JPG,,,,,,,,,,,,,,,,,,,,,0,6,6,0,,,AFNE14.jpg,AFSA04.jpg,AFNE07.jpg,AFSA15.jpg,AFNE07.jpg,FN,3,num_2,32,num_6,0.700167650881,,,2017_Oct_06_1832,59.9982103215,MAFE4ImagesEEG,001,101801,
AFSA21.JPG,AFNE23.JPG,AFNE21.JPG,AFSA25.JPG,AFNE25.JPG,AFSA23.JPG,,,,,,,,,,,,,,,,,,,,,0,7,7,4,,,AFSA10.jpg,AFSA16.jpg,AFNE17.jpg,AFNE01.jpg,AFNE17.jpg,FN,3,num_2,32,num_4,1.13350967626,,,2017_Oct_06_1832,59.9982103215,MAFE4ImagesEEG,001,101801,
AMNE23.JPG,AMNE24.JPG,AMNE22.JPG,AMSA24.JPG,AMSA22.JPG,AMSA23.JPG,,,,,,,,,,,,,,,,,,,,,0,8,8,9,,,AFNE02.jpg,AFSA12.jpg,AFNE16.jpg,AFSA09.jpg,AFNE02.jpg,FN,3,num_8,32,num_2,1.33342859312,,,2017_Oct_06_1832,59.9982103215,MAFE4ImagesEEG,001,101801,
AMSA21.JPG,AMNE23.JPG,AMNE21.JPG,AMSA25.JPG,AMNE25.JPG,AMSA23.JPG,,,,,,,,,,,,,,,,,,,,,0,9,9,5,,,AFSA19.jpg,AFSA04.jpg,AFNE13.jpg,AFNE09.jpg,AFSA19.jpg,FS,4,num_8,32,num_2,1.49974068161,,,2017_Oct_06_1832,59.9982103215,MAFE4ImagesEEG,001,101801,
,,,,,,,,,,,,,,,,,,,,,,,,,,,,,,,,,,,,,,,,,,,space,5.99972352199,2017_Oct_06_1832,59.9982103215,MAFE4ImagesEEG,001,101801,
AFNE01.JPG,AFNE01.JPG,AFNE01.JPG,AFNE01.JPG,AFNE01.JPG,AFNE01.JPG,0,0,0,0,,,,,,,,,,,,,,,,,,,,,,,AMNE19.jpg,AMNE11.jpg,AMSA17.jpg,AMSA07.jpg,AMSA07.jpg,MS,2,num_4,32,num_2,1.03339193255,,,2017_Oct_06_1832,59.9982103215,MAFE4ImagesEEG,001,101801,
AFNE01.JPG,AFNE01.JPG,AFNE01.JPG,AFNE01.JPG,AFNE01.JPG,AFNE01.JPG,0,1,1,3,,,,,,,,,,,,,,,,,,,,,,,AMSA12.jpg,AMNE13.jpg,AMSA04.jpg,AMNE12.jpg,AMSA04.jpg,MS,2,num_2,16,num_2,0.450177353283,,,2017_Oct_06_1832,59.9982103215,MAFE4ImagesEEG,001,101801,
AFNE01.JPG,AFNE01.JPG,AFNE01.JPG,AFNE01.JPG,AFNE01.JPG,AFNE01.JPG,0,2,2,4,,,,,,,,,,,,,,,,,,,,,,,AMNE20.jpg,AMNE17.jpg,AMSA16.jpg,AMSA01.jpg,AMSA16.jpg,MS,2,num_2,32,num_8,1.03343010065,,,2017_Oct_06_1832,59.9982103215,MAFE4ImagesEEG,001,101801,
AFNE01.JPG,AFNE01.JPG,AFNE01.JPG,AFNE01.JPG,AFNE01.JPG,AFNE01.JPG,0,3,3,9,,,,,,,,,,,,,,,,,,,,,,,AMSA10.jpg,AMNE07.jpg,AMNE16.jpg,AMSA07.jpg,AMNE07.jpg,MN,1,num_6,16,num_6,0.950102139672,,,2017_Oct_06_1832,59.9982103215,MAFE4ImagesEEG,001,101801,
AFNE01.JPG,AFNE01.JPG,AFNE01.JPG,AFNE01.JPG,AFNE01.JPG,AFNE01.JPG,0,4,4,7,,,,,,,,,,,,,,,,,,,,,,,AMNE10.jpg,AMSA20.jpg,AMNE11.jpg,AMSA03.jpg,AMNE11.jpg,MN,1,num_2,16,num_2,1.00010873092,,,2017_Oct_06_1832,59.9982103215,MAFE4ImagesEEG,001,101801,
AFNE01.JPG,AFNE01.JPG,AFNE01.JPG,AFNE01.JPG,AFNE01.JPG,AFNE01.JPG,0,5,5,1,,,,,,,,,,,,,,,,,,,,,,,AMSA11.jpg,AMNE19.jpg,AMSA08.jpg,AMNE16.jpg,AMNE16.jpg,MN,1,num_4,16,num_4,0.666819980426,,,2017_Oct_06_1832,59.9982103215,MAFE4ImagesEEG,001,101801,
AFNE01.JPG,AFNE01.JPG,AFNE01.JPG,AFNE01.JPG,AFNE01.JPG,AFNE01.JPG,0,6,6,6,,,,,,,,,,,,,,,,,,,,,,,AMSA03.jpg,AMSA06.jpg,AMNE02.jpg,AMNE17.jpg,AMSA06.jpg,MS,2,num_6,16,num_6,0.96666227252,,,2017_Oct_06_1832,59.9982103215,MAFE4ImagesEEG,001,101801,
AFNE01.JPG,AFNE01.JPG,AFNE01.JPG,AFNE01.JPG,AFNE01.JPG,AFNE01.JPG,0,7,7,8,,,,,,,,,,,,,,,,,,,,,,,AMNE12.jpg,AMNE01.jpg,AMSA17.jpg,AMSA16.jpg,AMSA16.jpg,MS,2,num_4,16,num_4,0.533543482248,,,2017_Oct_06_1832,59.9982103215,MAFE4ImagesEEG,001,101801,
AFNE01.JPG,AFNE01.JPG,AFNE01.JPG,AFNE01.JPG,AFNE01.JPG,AFNE01.JPG,0,8,8,5,,,,,,,,,,,,,,,,,,,,,,,AMNE06.jpg,AMSA02.jpg,AMNE18.jpg,AMSA13.jpg,AMSA13.jpg,MS,2,num_4,16,num_4,0.733458229515,,,2017_Oct_06_1832,59.9982103215,MAFE4ImagesEEG,001,101801,
AFNE01.JPG,AFNE01.JPG,AFNE01.JPG,AFNE01.JPG,AFNE01.JPG,AFNE01.JPG,0,9,9,2,,,,,,,,,,,,,,,,,,,,,,,AMNE10.jpg,AMSA09.jpg,AMNE07.jpg,AMSA05.jpg,AMNE10.jpg,MN,1,num_8,32,num_2,1.2000879469,,,2017_Oct_06_1832,59.9982103215,MAFE4ImagesEEG,001,101801,
AFNE01.JPG,AFNE01.JPG,AFNE01.JPG,AFNE01.JPG,AFNE01.JPG,AFNE01.JPG,1,0,10,1,,,,,,,,,,,,,,,,,,,,,,,AMSA07.jpg,AMSA09.jpg,AMNE02.jpg,AMNE06.jpg,AMSA07.jpg,MS,2,num_8,16,num_8,1.33342249913,,,2017_Oct_06_1832,59.9982103215,MAFE4ImagesEEG,001,101801,
AFNE01.JPG,AFNE01.JPG,AFNE01.JPG,AFNE01.JPG,AFNE01.JPG,AFNE01.JPG,1,1,11,9,,,,,,,,,,,,,,,,,,,,,,,AMSA05.jpg,AMNE05.jpg,AMNE13.jpg,AMSA10.jpg,AMSA10.jpg,MS,2,num_4,32,num_2,1.38341401552,,,2017_Oct_06_1832,59.9982103215,MAFE4ImagesEEG,001,101801,
AFNE01.JPG,AFNE01.JPG,AFNE01.JPG,AFNE01.JPG,AFNE01.JPG,AFNE01.JPG,1,2,12,0,,,,,,,,,,,,,,,,,,,,,,,AMSA16.jpg,AMNE02.jpg,AMNE17.jpg,AMSA04.jpg,AMNE02.jpg,MN,1,num_6,16,num_6,0.750112659938,,,2017_Oct_06_1832,59.9982103215,MAFE4ImagesEEG,001,101801,
AFNE01.JPG,AFNE01.JPG,AFNE01.JPG,AFNE01.JPG,AFNE01.JPG,AFNE01.JPG,1,3,13,4,,,,,,,,,,,,,,,,,,,,,,,AMNE11.jpg,AMSA10.jpg,AMNE04.jpg,AMSA01.jpg,AMNE11.jpg,MN,1,num_8,32,num_4,0.700099012465,,,2017_Oct_06_1832,59.9982103215,MAFE4ImagesEEG,001,101801,
AFNE01.JPG,AFNE01.JPG,AFNE01.JPG,AFNE01.JPG,AFNE01.JPG,AFNE01.JPG,1,4,14,8,,,,,,,,,,,,,,,,,,,,,,,AMNE07.jpg,AMNE09.jpg,AMSA08.jpg,AMSA11.jpg,AMNE07.jpg,MN,1,num_8,16,num_8,0.933470802556,,,2017_Oct_06_1832,59.9982103215,MAFE4ImagesEEG,001,101801,
AFNE01.JPG,AFNE01.JPG,AFNE01.JPG,AFNE01.JPG,AFNE01.JPG,AFNE01.JPG,1,5,15,2,,,,,,,,,,,,,,,,,,,,,,,AMNE05.jpg,AMNE15.jpg,AMSA11.jpg,AMSA06.jpg,AMNE05.jpg,MN,1,num_8,16,num_8,1.03371523856,,,2017_Oct_06_1832,59.9982103215,MAFE4ImagesEEG,001,101801,
AFNE01.JPG,AFNE01.JPG,AFNE01.JPG,AFNE01.JPG,AFNE01.JPG,AFNE01.JPG,1,6,16,5,,,,,,,,,,,,,,,,,,,,,,,AMSA08.jpg,AMNE19.jpg,AMSA02.jpg,AMNE16.jpg,AMNE16.jpg,MN,1,num_4,16,num_4,0.950014898379,,,2017_Oct_06_1832,59.9982103215,MAFE4ImagesEEG,001,101801,
AFNE01.JPG,AFNE01.JPG,AFNE01.JPG,AFNE01.JPG,AFNE01.JPG,AFNE01.JPG,1,7,17,7,,,,,,,,,,,,,,,,,,,,,,,AMSA19.jpg,AMNE18.jpg,AMNE02.jpg,AMSA07.jpg,AMNE18.jpg,MN,1,num_6,16,num_6,1.80008332827,,,2017_Oct_06_1832,59.9982103215,MAFE4ImagesEEG,001,101801,
AFNE01.JPG,AFNE01.JPG,AFNE01.JPG,AFNE01.JPG,AFNE01.JPG,AFNE01.JPG,1,8,18,3,,,,,,,,,,,,,,,,,,,,,,,AMNE04.jpg,AMSA17.jpg,AMSA09.jpg,AMNE01.jpg,AMSA09.jpg,MS,2,num_2,32,num_4,0.900231542299,,,2017_Oct_06_1832,59.9982103215,MAFE4ImagesEEG,001,101801,
AFNE01.JPG,AFNE01.JPG,AFNE01.JPG,AFNE01.JPG,AFNE01.JPG,AFNE01.JPG,1,9,19,6,,,,,,,,,,,,,,,,,,,,,,,AMSA12.jpg,AMNE19.jpg,AMSA14.jpg,AMNE15.jpg,AMSA14.jpg,MS,2,num_2,16,num_2,0.733449890278,,,2017_Oct_06_1832,59.9982103215,MAFE4ImagesEEG,001,101801,
AFNE01.JPG,AFNE01.JPG,AFNE01.JPG,AFNE01.JPG,AFNE01.JPG,AFNE01.JPG,2,0,20,8,,,,,,,,,,,,,,,,,,,,,,,AMNE05.jpg,AMSA04.jpg,AMNE18.jpg,AMSA09.jpg,AMNE18.jpg,MN,1,num_2,32,num_4,1.43343664368,,,2017_Oct_06_1832,59.9982103215,MAFE4ImagesEEG,001,101801,
AFNE01.JPG,AFNE01.JPG,AFNE01.JPG,AFNE01.JPG,AFNE01.JPG,AFNE01.JPG,2,1,21,9,,,,,,,,,,,,,,,,,,,,,,,AMNE04.jpg,AMSA15.jpg,AMSA13.jpg,AMNE05.jpg,AMSA15.jpg,MS,2,num_6,32,num_2,1.3333990851,,,2017_Oct_06_1832,59.9982103215,MAFE4ImagesEEG,001,101801,
AFNE01.JPG,AFNE01.JPG,AFNE01.JPG,AFNE01.JPG,AFNE01.JPG,AFNE01.JPG,2,2,22,4,,,,,,,,,,,,,,,,,,,,,,,AMSA13.jpg,AMSA20.jpg,AMNE08.jpg,AMNE16.jpg,AMNE08.jpg,MN,1,num_2,32,num_4,1.73337130895,,,2017_Oct_06_1832,59.9982103215,MAFE4ImagesEEG,001,101801,
AFNE01.JPG,AFNE01.JPG,AFNE01.JPG,AFNE01.JPG,AFNE01.JPG,AFNE01.JPG,2,3,23,0,,,,,,,,,,,,,,,,,,,,,,,AMNE06.jpg,AMSA02.jpg,AMSA20.jpg,AMNE09.jpg,AMNE09.jpg,MN,1,num_4,16,num_4,0.650129627145,,,2017_Oct_06_1832,59.9982103215,MAFE4ImagesEEG,001,101801,
AFNE01.JPG,AFNE01.JPG,AFNE01.JPG,AFNE01.JPG,AFNE01.JPG,AFNE01.JPG,2,4,24,6,,,,,,,,,,,,,,,,,,,,,,,AMNE15.jpg,AMSA01.jpg,AMSA15.jpg,AMNE04.jpg,AMSA01.jpg,MS,2,num_6,16,num_6,0.750105282932,,,2017_Oct_06_1832,59.9982103215,MAFE4ImagesEEG,001,101801,
AFNE01.JPG,AFNE01.JPG,AFNE01.JPG,AFNE01.JPG,AFNE01.JPG,AFNE01.JPG,2,5,25,5,,,,,,,,,,,,,,,,,,,,,,,AMNE06.jpg,AMSA11.jpg,AMSA17.jpg,AMNE18.jpg,AMNE18.jpg,MN,1,num_4,16,num_4,0.75017231761,,,2017_Oct_06_1832,59.9982103215,MAFE4ImagesEEG,001,101801,
AFNE01.JPG,AFNE01.JPG,AFNE01.JPG,AFNE01.JPG,AFNE01.JPG,AFNE01.JPG,2,6,26,1,,,,,,,,,,,,,,,,,,,,,,,AMNE11.jpg,AMSA13.jpg,AMNE08.jpg,AMSA18.jpg,AMNE11.jpg,MN,1,num_8,16,num_8,0.866493210371,,,2017_Oct_06_1832,59.9982103215,MAFE4ImagesEEG,001,101801,
AFNE01.JPG,AFNE01.JPG,AFNE01.JPG,AFNE01.JPG,AFNE01.JPG,AFNE01.JPG,2,7,27,7,,,,,,,,,,,,,,,,,,,,,,,AMSA08.jpg,AMNE19.jpg,AMSA07.jpg,AMNE09.jpg,AMSA08.jpg,MS,2,num_8,16,num_8,0.766872293141,,,2017_Oct_06_1832,59.9982103215,MAFE4ImagesEEG,001,101801,
AFNE01.JPG,AFNE01.JPG,AFNE01.JPG,AFNE01.JPG,AFNE01.JPG,AFNE01.JPG,2,8,28,3,,,,,,,,,,,,,,,,,,,,,,,AMNE16.jpg,AMNE05.jpg,AMSA03.jpg,AMSA20.jpg,AMNE05.jpg,MN,1,num_6,32,num_4,0.683445544273,,,2017_Oct_06_1832,59.9982103215,MAFE4ImagesEEG,001,101801,
AFNE01.JPG,AFNE01.JPG,AFNE01.JPG,AFNE01.JPG,AFNE01.JPG,AFNE01.JPG,2,9,29,2,,,,,,,,,,,,,,,,,,,,,,,AMNE10.jpg,AMNE02.jpg,AMSA19.jpg,AMSA12.jpg,AMSA12.jpg,MS,2,num_4,16,num_4,0.550098804,,,2017_Oct_06_1832,59.9982103215,MAFE4ImagesEEG,001,101801,
AFNE01.JPG,AFNE01.JPG,AFNE01.JPG,AFNE01.JPG,AFNE01.JPG,AFNE01.JPG,3,0,30,0,,,,,,,,,,,,,,,,,,,,,,,AMNE02.jpg,AMSA05.jpg,AMSA07.jpg,AMNE19.jpg,AMSA05.jpg,MS,2,num_6,16,num_6,0.650115514523,,,2017_Oct_06_1832,59.9982103215,MAFE4ImagesEEG,001,101801,
AFNE01.JPG,AFNE01.JPG,AFNE01.JPG,AFNE01.JPG,AFNE01.JPG,AFNE01.JPG,3,1,31,9,,,,,,,,,,,,,,,,,,,,,,,AMNE11.jpg,AMSA07.jpg,AMSA12.jpg,AMNE12.jpg,AMSA07.jpg,MS,2,num_6,32,num_2,0.566769271449,,,2017_Oct_06_1832,59.9982103215,MAFE4ImagesEEG,001,101801,
AFNE01.JPG,AFNE01.JPG,AFNE01.JPG,AFNE01.JPG,AFNE01.JPG,AFNE01.JPG,3,2,32,1,,,,,,,,,,,,,,,,,,,,,,,AMSA08.jpg,AMNE07.jpg,AMNE06.jpg,AMSA20.jpg,AMNE06.jpg,MN,1,num_2,32,num_8,1.0165578876,,,2017_Oct_06_1832,59.9982103215,MAFE4ImagesEEG,001,101801,
AFNE01.JPG,AFNE01.JPG,AFNE01.JPG,AFNE01.JPG,AFNE01.JPG,AFNE01.JPG,3,3,33,5,,,,,,,,,,,,,,,,,,,,,,,AMNE20.jpg,AMSA12.jpg,AMNE07.jpg,AMSA02.jpg,AMNE20.jpg,MN,1,num_8,32,num_6,0.916734583385,,,2017_Oct_06_1832,59.9982103215,MAFE4ImagesEEG,001,101801,
AFNE01.JPG,AFNE01.JPG,AFNE01.JPG,AFNE01.JPG,AFNE01.JPG,AFNE01.JPG,3,4,34,8,,,,,,,,,,,,,,,,,,,,,,,AMNE16.jpg,AMSA20.jpg,AMNE06.jpg,AMSA06.jpg,AMNE16.jpg,MN,1,num_8,32,num_6,1.04964447563,,,2017_Oct_06_1832,59.9982103215,MAFE4ImagesEEG,001,101801,
AFNE01.JPG,AFNE01.JPG,AFNE01.JPG,AFNE01.JPG,AFNE01.JPG,AFNE01.JPG,3,5,35,4,,,,,,,,,,,,,,,,,,,,,,,AMSA20.jpg,AMSA08.jpg,AMNE06.jpg,AMNE04.jpg,AMSA08.jpg,MS,2,num_6,16,num_6,0.883312501246,,,2017_Oct_06_1832,59.9982103215,MAFE4ImagesEEG,001,101801,
AFNE01.JPG,AFNE01.JPG,AFNE01.JPG,AFNE01.JPG,AFNE01.JPG,AFNE01.JPG,3,6,36,6,,,,,,,,,,,,,,,,,,,,,,,AMNE03.jpg,AMNE17.jpg,AMSA06.jpg,AMSA15.jpg,AMNE03.jpg,MN,1,num_8,32,num_2,1.2666014281,,,2017_Oct_06_1832,59.9982103215,MAFE4ImagesEEG,001,101801,
AFNE01.JPG,AFNE01.JPG,AFNE01.JPG,AFNE01.JPG,AFNE01.JPG,AFNE01.JPG,3,7,37,7,,,,,,,,,,,,,,,,,,,,,,,AMNE14.jpg,AMSA04.jpg,AMSA10.jpg,AMNE10.jpg,AMNE10.jpg,MN,1,num_4,32,num_8,0.800138174847,,,2017_Oct_06_1832,59.9982103215,MAFE4ImagesEEG,001,101801,
AFNE01.JPG,AFNE01.JPG,AFNE01.JPG,AFNE01.JPG,AFNE01.JPG,AFNE01.JPG,3,8,38,2,,,,,,,,,,,,,,,,,,,,,,,AMNE11.jpg,AMSA10.jpg,AMNE17.jpg,AMSA05.jpg,AMSA05.jpg,MS,2,num_4,16,num_4,0.633484177408,,,2017_Oct_06_1832,59.9982103215,MAFE4ImagesEEG,001,101801,
AFNE01.JPG,AFNE01.JPG,AFNE01.JPG,AFNE01.JPG,AFNE01.JPG,AFNE01.JPG,3,9,39,3,,,,,,,,,,,,,,,,,,,,,,,AMSA15.jpg,AMNE11.jpg,AMNE15.jpg,AMSA02.jpg,AMNE15.jpg,MN,1,num_2,16,num_2,0.533422242501,,,2017_Oct_06_1832,59.9982103215,MAFE4ImagesEEG,001,101801,
AFNE01.JPG,AFNE01.JPG,AFNE01.JPG,AFNE01.JPG,AFNE01.JPG,AFNE01.JPG,4,0,40,3,,,,,,,,,,,,,,,,,,,,,,,AMNE20.jpg,AMNE13.jpg,AMSA16.jpg,AMSA14.jpg,AMNE13.jpg,MN,1,num_6,32,num_8,1.31672829686,,,2017_Oct_06_1832,59.9982103215,MAFE4ImagesEEG,001,101801,
AFNE01.JPG,AFNE01.JPG,AFNE01.JPG,AFNE01.JPG,AFNE01.JPG,AFNE01.JPG,4,1,41,8,,,,,,,,,,,,,,,,,,,,,,,AMNE01.jpg,AMNE03.jpg,AMSA14.jpg,AMSA10.jpg,AMNE01.jpg,MN,1,num_8,32,num_2,1.13342018973,,,2017_Oct_06_1832,59.9982103215,MAFE4ImagesEEG,001,101801,
AFNE01.JPG,AFNE01.JPG,AFNE01.JPG,AFNE01.JPG,AFNE01.JPG,AFNE01.JPG,4,2,42,0,,,,,,,,,,,,,,,,,,,,,,,AMNE09.jpg,AMSA09.jpg,AMNE18.jpg,AMSA14.jpg,AMSA09.jpg,MS,2,num_6,32,num_8,1.03333323711,,,2017_Oct_06_1832,59.9982103215,MAFE4ImagesEEG,001,101801,
AFNE01.JPG,AFNE01.JPG,AFNE01.JPG,AFNE01.JPG,AFNE01.JPG,AFNE01.JPG,4,3,43,1,,,,,,,,,,,,,,,,,,,,,,,AMSA12.jpg,AMSA18.jpg,AMNE06.jpg,AMNE02.jpg,AMSA18.jpg,MS,2,num_6,16,num_6,0.616739939724,,,2017_Oct_06_1832,59.9982103215,MAFE4ImagesEEG,001,101801,
AFNE01.JPG,AFNE01.JPG,AFNE01.JPG,AFNE01.JPG,AFNE01.JPG,AFNE01.JPG,4,4,44,9,,,,,,,,,,,,,,,,,,,,,,,AMNE12.jpg,AMSA15.jpg,AMNE07.jpg,AMSA05.jpg,AMNE07.jpg,MN,1,num_2,16,num_2,1.00012829603,,,2017_Oct_06_1832,59.9982103215,MAFE4ImagesEEG,001,101801,
AFNE01.JPG,AFNE01.JPG,AFNE01.JPG,AFNE01.JPG,AFNE01.JPG,AFNE01.JPG,4,5,45,2,,,,,,,,,,,,,,,,,,,,,,,AMNE16.jpg,AMSA01.jpg,AMSA17.jpg,AMNE06.jpg,AMSA01.jpg,MS,2,num_6,16,num_6,0.483525023679,,,2017_Oct_06_1832,59.9982103215,MAFE4ImagesEEG,001,101801,
AFNE01.JPG,AFNE01.JPG,AFNE01.JPG,AFNE01.JPG,AFNE01.JPG,AFNE01.JPG,4,6,46,7,,,,,,,,,,,,,,,,,,,,,,,AMNE07.jpg,AMSA02.jpg,AMNE02.jpg,AMSA15.jpg,AMSA15.jpg,MS,2,num_4,16,num_4,1.01676540653,,,2017_Oct_06_1832,59.9982103215,MAFE4ImagesEEG,001,101801,
AFNE01.JPG,AFNE01.JPG,AFNE01.JPG,AFNE01.JPG,AFNE01.JPG,AFNE01.JPG,4,7,47,4,,,,,,,,,,,,,,,,,,,,,,,AMSA01.jpg,AMNE05.jpg,AMSA10.jpg,AMNE20.jpg,AMSA10.jpg,MS,2,num_2,32,num_6,1.71669891709,,,2017_Oct_06_1832,59.9982103215,MAFE4ImagesEEG,001,101801,
AFNE01.JPG,AFNE01.JPG,AFNE01.JPG,AFNE01.JPG,AFNE01.JPG,AFNE01.JPG,4,8,48,5,,,,,,,,,,,,,,,,,,,,,,,AMSA18.jpg,AMSA03.jpg,AMNE10.jpg,AMNE08.jpg,AMSA18.jpg,MS,2,num_8,16,num_8,0.666873223265,,,2017_Oct_06_1832,59.9982103215,MAFE4ImagesEEG,001,101801,
AFNE01.JPG,AFNE01.JPG,AFNE01.JPG,AFNE01.JPG,AFNE01.JPG,AFNE01.JPG,4,9,49,6,,,,,,,,,,,,,,,,,,,,,,,AMNE15.jpg,AMSA14.jpg,AMNE14.jpg,AMSA05.jpg,AMNE15.jpg,MN,1,num_8,16,num_8,0.533494729782,,,2017_Oct_06_1832,59.9982103215,MAFE4ImagesEEG,001,101801,
AFNE01.JPG,AFNE01.JPG,AFNE01.JPG,AFNE01.JPG,AFNE01.JPG,AFNE01.JPG,5,0,50,1,,,,,,,,,,,,,,,,,,,,,,,AMNE20.jpg,AMSA18.jpg,AMSA06.jpg,AMNE16.jpg,AMNE16.jpg,MN,1,num_4,16,num_4,0.70011152135,,,2017_Oct_06_1832,59.9982103215,MAFE4ImagesEEG,001,101801,
AFNE01.JPG,AFNE01.JPG,AFNE01.JPG,AFNE01.JPG,AFNE01.JPG,AFNE01.JPG,5,1,51,9,,,,,,,,,,,,,,,,,,,,,,,AMSA15.jpg,AMSA13.jpg,AMNE15.jpg,AMNE06.jpg,AMNE15.jpg,MN,1,num_2,16,num_2,1.55005999445,,,2017_Oct_06_1832,59.9982103215,MAFE4ImagesEEG,001,101801,
AFNE01.JPG,AFNE01.JPG,AFNE01.JPG,AFNE01.JPG,AFNE01.JPG,AFNE01.JPG,5,2,52,0,,,,,,,,,,,,,,,,,,,,,,,AMSA18.jpg,AMSA03.jpg,AMNE09.jpg,AMNE19.jpg,AMNE19.jpg,MN,1,num_4,16,num_4,0.650153041119,,,2017_Oct_06_1832,59.9982103215,MAFE4ImagesEEG,001,101801,
AFNE01.JPG,AFNE01.JPG,AFNE01.JPG,AFNE01.JPG,AFNE01.JPG,AFNE01.JPG,5,3,53,3,,,,,,,,,,,,,,,,,,,,,,,AMNE13.jpg,AMNE08.jpg,AMSA03.jpg,AMSA20.jpg,AMSA03.jpg,MS,2,num_2,32,num_6,0.550119972846,,,2017_Oct_06_1832,59.9982103215,MAFE4ImagesEEG,001,101801,
AFNE01.JPG,AFNE01.JPG,AFNE01.JPG,AFNE01.JPG,AFNE01.JPG,AFNE01.JPG,5,4,54,4,,,,,,,,,,,,,,,,,,,,,,,AMNE15.jpg,AMSA01.jpg,AMSA09.jpg,AMNE05.jpg,AMNE15.jpg,MN,1,num_8,32,num_4,0.516826828243,,,2017_Oct_06_1832,59.9982103215,MAFE4ImagesEEG,001,101801,
AFNE01.JPG,AFNE01.JPG,AFNE01.JPG,AFNE01.JPG,AFNE01.JPG,AFNE01.JPG,5,5,55,6,,,,,,,,,,,,,,,,,,,,,,,AMNE08.jpg,AMSA07.jpg,AMSA17.jpg,AMNE19.jpg,AMNE19.jpg,MN,1,num_4,32,num_2,1.96670268581,,,2017_Oct_06_1832,59.9982103215,MAFE4ImagesEEG,001,101801,
AFNE01.JPG,AFNE01.JPG,AFNE01.JPG,AFNE01.JPG,AFNE01.JPG,AFNE01.JPG,5,6,56,7,,,,,,,,,,,,,,,,,,,,,,,AMNE05.jpg,AMSA05.jpg,AMNE01.jpg,AMSA04.jpg,AMNE01.jpg,MN,1,num_2,32,num_4,0.600147412159,,,2017_Oct_06_1832,59.9982103215,MAFE4ImagesEEG,001,101801,
AFNE01.JPG,AFNE01.JPG,AFNE01.JPG,AFNE01.JPG,AFNE01.JPG,AFNE01.JPG,5,7,57,8,,,,,,,,,,,,,,,,,,,,,,,AMSA15.jpg,AMSA13.jpg,AMNE01.jpg,AMNE08.jpg,AMSA15.jpg,MS,2,num_8,16,num_8,0.96677773894,,,2017_Oct_06_1832,59.9982103215,MAFE4ImagesEEG,001,101801,
AFNE01.JPG,AFNE01.JPG,AFNE01.JPG,AFNE01.JPG,AFNE01.JPG,AFNE01.JPG,5,8,58,5,,,,,,,,,,,,,,,,,,,,,,,AMSA18.jpg,AMNE05.jpg,AMNE14.jpg,AMSA15.jpg,AMNE14.jpg,MN,1,num_2,32,num_8,1.00010873092,,,2017_Oct_06_1832,59.9982103215,MAFE4ImagesEEG,001,101801,
AFNE01.JPG,AFNE01.JPG,AFNE01.JPG,AFNE01.JPG,AFNE01.JPG,AFNE01.JPG,5,9,59,2,,,,,,,,,,,,,,,,,,,,,,,AMSA11.jpg,AMNE13.jpg,AMSA02.jpg,AMNE05.jpg,AMNE13.jpg,MN,1,num_6,16,num_6,1.15000566107,,,2017_Oct_06_1832,59.9982103215,MAFE4ImagesEEG,001,101801,
,,,,,,,,,,,,,,,,,,,,,,,,,,,,,,,,,,,,,,,,,,,space,3.98332664592,2017_Oct_06_1832,59.9982103215,MAFE4ImagesEEG,001,101801,
AFNE01.JPG,AFNE01.JPG,AFNE01.JPG,AFNE01.JPG,AFNE01.JPG,AFNE01.JPG,,,,,0,0,0,9,,,,,,,,,,,,,,,,,,,AFSA16.jpg,AFSA01.jpg,AFNE12.jpg,AFNE02.jpg,AFNE12.jpg,FN,3,num_2,32,num_4,0.783450066694,,,2017_Oct_06_1832,59.9982103215,MAFE4ImagesEEG,001,101801,
AFNE01.JPG,AFNE01.JPG,AFNE01.JPG,AFNE01.JPG,AFNE01.JPG,AFNE01.JPG,,,,,0,1,1,4,,,,,,,,,,,,,,,,,,,AFNE03.jpg,AFSA03.jpg,AFSA09.jpg,AFNE15.jpg,AFSA03.jpg,FS,4,num_6,16,num_6,0.733447645092,,,2017_Oct_06_1832,59.9982103215,MAFE4ImagesEEG,001,101801,
AFNE01.JPG,AFNE01.JPG,AFNE01.JPG,AFNE01.JPG,AFNE01.JPG,AFNE01.JPG,,,,,0,2,2,5,,,,,,,,,,,,,,,,,,,AFNE16.jpg,AFNE05.jpg,AFSA15.jpg,AFSA03.jpg,AFSA03.jpg,FS,4,num_4,16,num_4,0.533503710525,,,2017_Oct_06_1832,59.9982103215,MAFE4ImagesEEG,001,101801,
AFNE01.JPG,AFNE01.JPG,AFNE01.JPG,AFNE01.JPG,AFNE01.JPG,AFNE01.JPG,,,,,0,3,3,2,,,,,,,,,,,,,,,,,,,AFNE09.jpg,AFSA12.jpg,AFNE05.jpg,AFSA03.jpg,AFSA12.jpg,FS,4,num_6,16,num_6,0.450186654751,,,2017_Oct_06_1832,59.9982103215,MAFE4ImagesEEG,001,101801,
AFNE01.JPG,AFNE01.JPG,AFNE01.JPG,AFNE01.JPG,AFNE01.JPG,AFNE01.JPG,,,,,0,4,4,6,,,,,,,,,,,,,,,,,,,AFSA10.jpg,AFSA04.jpg,AFNE14.jpg,AFNE11.jpg,AFSA04.jpg,FS,4,num_6,32,num_8,1.00011835305,,,2017_Oct_06_1832,59.9982103215,MAFE4ImagesEEG,001,101801,
AFNE01.JPG,AFNE01.JPG,AFNE01.JPG,AFNE01.JPG,AFNE01.JPG,AFNE01.JPG,,,,,0,5,5,1,,,,,,,,,,,,,,,,,,,AFNE05.jpg,AFSA08.jpg,AFNE07.jpg,AFSA06.jpg,AFSA08.jpg,FS,4,num_6,16,num_6,1.16682783858,,,2017_Oct_06_1832,59.9982103215,MAFE4ImagesEEG,001,101801,
AFNE01.JPG,AFNE01.JPG,AFNE01.JPG,AFNE01.JPG,AFNE01.JPG,AFNE01.JPG,,,,,0,6,6,0,,,,,,,,,,,,,,,,,,,AFSA05.jpg,AFNE05.jpg,AFSA07.jpg,AFNE16.jpg,AFNE16.jpg,FN,3,num_4,16,num_4,0.66680041526,,,2017_Oct_06_1832,59.9982103215,MAFE4ImagesEEG,001,101801,
AFNE01.JPG,AFNE01.JPG,AFNE01.JPG,AFNE01.JPG,AFNE01.JPG,AFNE01.JPG,,,,,0,7,7,7,,,,,,,,,,,,,,,,,,,AFSA01.jpg,AFSA08.jpg,AFNE13.jpg,AFNE12.jpg,AFSA01.jpg,FS,4,num_8,32,num_6,0.766472009534,,,2017_Oct_06_1832,59.9982103215,MAFE4ImagesEEG,001,101801,
AFNE01.JPG,AFNE01.JPG,AFNE01.JPG,AFNE01.JPG,AFNE01.JPG,AFNE01.JPG,,,,,0,8,8,8,,,,,,,,,,,,,,,,,,,AFSA20.jpg,AFNE08.jpg,AFSA11.jpg,AFNE15.jpg,AFSA20.jpg,FS,4,num_8,16,num_8,0.650126419729,,,2017_Oct_06_1832,59.9982103215,MAFE4ImagesEEG,001,101801,
AFNE01.JPG,AFNE01.JPG,AFNE01.JPG,AFNE01.JPG,AFNE01.JPG,AFNE01.JPG,,,,,0,9,9,3,,,,,,,,,,,,,,,,,,,AFSA12.jpg,AFNE06.jpg,AFNE04.jpg,AFSA19.jpg,AFSA12.jpg,FS,4,num_8,32,num_2,0.61686727358,,,2017_Oct_06_1832,59.9982103215,MAFE4ImagesEEG,001,101801,
AFNE01.JPG,AFNE01.JPG,AFNE01.JPG,AFNE01.JPG,AFNE01.JPG,AFNE01.JPG,,,,,1,0,10,4,,,,,,,,,,,,,,,,,,,AFSA13.jpg,AFNE09.jpg,AFSA09.jpg,AFNE12.jpg,AFSA09.jpg,FS,4,num_2,32,num_6,0.900162262435,,,2017_Oct_06_1832,59.9982103215,MAFE4ImagesEEG,001,101801,
AFNE01.JPG,AFNE01.JPG,AFNE01.JPG,AFNE01.JPG,AFNE01.JPG,AFNE01.JPG,,,,,1,1,11,8,,,,,,,,,,,,,,,,,,,AFNE15.jpg,AFNE03.jpg,AFSA13.jpg,AFSA03.jpg,AFSA13.jpg,FS,4,num_2,32,num_4,1.6334004642,,,2017_Oct_06_1832,59.9982103215,MAFE4ImagesEEG,001,101801,
AFNE01.JPG,AFNE01.JPG,AFNE01.JPG,AFNE01.JPG,AFNE01.JPG,AFNE01.JPG,,,,,1,2,12,5,,,,,,,,,,,,,,,,,,,AFSA03.jpg,AFSA13.jpg,AFNE19.jpg,AFNE02.jpg,AFSA03.jpg,FS,4,num_8,32,num_4,0.783509403642,,,2017_Oct_06_1832,59.9982103215,MAFE4ImagesEEG,001,101801,
AFNE01.JPG,AFNE01.JPG,AFNE01.JPG,AFNE01.JPG,AFNE01.JPG,AFNE01.JPG,,,,,1,3,13,7,,,,,,,,,,,,,,,,,,,AFNE02.jpg,AFSA15.jpg,AFSA10.jpg,AFNE16.jpg,AFNE16.jpg,FN,3,num_4,32,num_6,0.833467242366,,,2017_Oct_06_1832,59.9982103215,MAFE4ImagesEEG,001,101801,
AFNE01.JPG,AFNE01.JPG,AFNE01.JPG,AFNE01.JPG,AFNE01.JPG,AFNE01.JPG,,,,,1,4,14,2,,,,,,,,,,,,,,,,,,,AFSA02.jpg,AFNE20.jpg,AFNE01.jpg,AFSA03.jpg,AFNE01.jpg,FN,3,num_2,32,num_6,0.900170280947,,,2017_Oct_06_1832,59.9982103215,MAFE4ImagesEEG,001,101801,
AFNE01.JPG,AFNE01.JPG,AFNE01.JPG,AFNE01.JPG,AFNE01.JPG,AFNE01.JPG,,,,,1,5,15,9,,,,,,,,,,,,,,,,,,,AFNE06.jpg,AFSA09.jpg,AFSA11.jpg,AFNE12.jpg,AFNE12.jpg,FN,3,num_4,16,num_4,0.600476170774,,,2017_Oct_06_1832,59.9982103215,MAFE4ImagesEEG,001,101801,
AFNE01.JPG,AFNE01.JPG,AFNE01.JPG,AFNE01.JPG,AFNE01.JPG,AFNE01.JPG,,,,,1,6,16,1,,,,,,,,,,,,,,,,,,,AFNE08.jpg,AFSA18.jpg,AFSA20.jpg,AFNE12.jpg,AFNE12.jpg,FN,3,num_4,16,num_4,0.600136827736,,,2017_Oct_06_1832,59.9982103215,MAFE4ImagesEEG,001,101801,
AFNE01.JPG,AFNE01.JPG,AFNE01.JPG,AFNE01.JPG,AFNE01.JPG,AFNE01.JPG,,,,,1,7,17,6,,,,,,,,,,,,,,,,,,,AFSA02.jpg,AFNE11.jpg,AFNE15.jpg,AFSA14.jpg,AFSA14.jpg,FS,4,num_4,16,num_4,1.31674978643,,,2017_Oct_06_1832,59.9982103215,MAFE4ImagesEEG,001,101801,
AFNE01.JPG,AFNE01.JPG,AFNE01.JPG,AFNE01.JPG,AFNE01.JPG,AFNE01.JPG,,,,,1,8,18,0,,,,,,,,,,,,,,,,,,,AFNE07.jpg,AFSA15.jpg,AFNE06.jpg,AFSA01.jpg,AFSA01.jpg,FS,4,num_4,32,num_6,0.783466424444,,,2017_Oct_06_1832,59.9982103215,MAFE4ImagesEEG,001,101801,
AFNE01.JPG,AFNE01.JPG,AFNE01.JPG,AFNE01.JPG,AFNE01.JPG,AFNE01.JPG,,,,,1,9,19,3,,,,,,,,,,,,,,,,,,,AFNE15.jpg,AFSA05.jpg,AFSA14.jpg,AFNE19.jpg,AFNE19.jpg,FN,3,num_4,16,num_4,0.700151293073,,,2017_Oct_06_1832,59.9982103215,MAFE4ImagesEEG,001,101801,
AFNE01.JPG,AFNE01.JPG,AFNE01.JPG,AFNE01.JPG,AFNE01.JPG,AFNE01.JPG,,,,,2,0,20,2,,,,,,,,,,,,,,,,,,,AFNE08.jpg,AFNE03.jpg,AFSA17.jpg,AFSA14.jpg,AFSA17.jpg,FS,4,num_2,16,num_2,0.933525649132,,,2017_Oct_06_1832,59.9982103215,MAFE4ImagesEEG,001,101801,
AFNE01.JPG,AFNE01.JPG,AFNE01.JPG,AFNE01.JPG,AFNE01.JPG,AFNE01.JPG,,,,,2,1,21,6,,,,,,,,,,,,,,,,,,,AFSA10.jpg,AFNE02.jpg,AFSA05.jpg,AFNE14.jpg,AFNE14.jpg,FN,3,num_4,32,num_8,0.833464355674,,,2017_Oct_06_1832,59.9982103215,MAFE4ImagesEEG,001,101801,
AFNE01.JPG,AFNE01.JPG,AFNE01.JPG,AFNE01.JPG,AFNE01.JPG,AFNE01.JPG,,,,,2,2,22,9,,,,,,,,,,,,,,,,,,,AFSA04.jpg,AFNE06.jpg,AFNE17.jpg,AFSA09.jpg,AFNE17.jpg,FN,3,num_2,16,num_2,1.08341391932,,,2017_Oct_06_1832,59.9982103215,MAFE4ImagesEEG,001,101801,
AFNE01.JPG,AFNE01.JPG,AFNE01.JPG,AFNE01.JPG,AFNE01.JPG,AFNE01.JPG,,,,,2,3,23,4,,,,,,,,,,,,,,,,,,,AFNE07.jpg,AFSA16.jpg,AFSA02.jpg,AFNE02.jpg,AFNE07.jpg,FN,3,num_8,16,num_8,0.683484033099,,,2017_Oct_06_1832,59.9982103215,MAFE4ImagesEEG,001,101801,
AFNE01.JPG,AFNE01.JPG,AFNE01.JPG,AFNE01.JPG,AFNE01.JPG,AFNE01.JPG,,,,,2,4,24,3,,,,,,,,,,,,,,,,,,,AFNE18.jpg,AFNE07.jpg,AFSA19.jpg,AFSA18.jpg,AFNE07.jpg,FN,3,num_6,16,num_6,0.450184730289,,,2017_Oct_06_1832,59.9982103215,MAFE4ImagesEEG,001,101801,
AFNE01.JPG,AFNE01.JPG,AFNE01.JPG,AFNE01.JPG,AFNE01.JPG,AFNE01.JPG,,,,,2,5,25,1,,,,,,,,,,,,,,,,,,,AFSA05.jpg,AFSA19.jpg,AFNE16.jpg,AFNE08.jpg,AFNE16.jpg,FN,3,num_2,32,num_4,0.933516026882,,,2017_Oct_06_1832,59.9982103215,MAFE4ImagesEEG,001,101801,
AFNE01.JPG,AFNE01.JPG,AFNE01.JPG,AFNE01.JPG,AFNE01.JPG,AFNE01.JPG,,,,,2,6,26,0,,,,,,,,,,,,,,,,,,,AFSA01.jpg,AFNE01.jpg,AFNE05.jpg,AFSA02.jpg,AFNE01.jpg,FN,3,num_6,32,num_4,1.35010034358,,,2017_Oct_06_1832,59.9982103215,MAFE4ImagesEEG,001,101801,
AFNE01.JPG,AFNE01.JPG,AFNE01.JPG,AFNE01.JPG,AFNE01.JPG,AFNE01.JPG,,,,,2,7,27,7,,,,,,,,,,,,,,,,,,,AFSA16.jpg,AFSA06.jpg,AFNE15.jpg,AFNE05.jpg,AFNE15.jpg,FN,3,num_2,16,num_2,0.533495050506,,,2017_Oct_06_1832,59.9982103215,MAFE4ImagesEEG,001,101801,
AFNE01.JPG,AFNE01.JPG,AFNE01.JPG,AFNE01.JPG,AFNE01.JPG,AFNE01.JPG,,,,,2,8,28,5,,,,,,,,,,,,,,,,,,,AFSA12.jpg,AFSA06.jpg,AFNE03.jpg,AFNE17.jpg,AFSA12.jpg,FS,4,num_8,16,num_8,0.700228270725,,,2017_Oct_06_1832,59.9982103215,MAFE4ImagesEEG,001,101801,
AFNE01.JPG,AFNE01.JPG,AFNE01.JPG,AFNE01.JPG,AFNE01.JPG,AFNE01.JPG,,,,,2,9,29,8,,,,,,,,,,,,,,,,,,,AFNE03.jpg,AFNE08.jpg,AFSA19.jpg,AFSA10.jpg,AFNE08.jpg,FN,3,num_6,16,num_6,0.550154933473,,,2017_Oct_06_1832,59.9982103215,MAFE4ImagesEEG,001,101801,
AFNE01.JPG,AFNE01.JPG,AFNE01.JPG,AFNE01.JPG,AFNE01.JPG,AFNE01.JPG,,,,,3,0,30,5,,,,,,,,,,,,,,,,,,,AFNE01.jpg,AFNE19.jpg,AFSA08.jpg,AFSA03.jpg,AFNE19.jpg,FN,3,num_6,32,num_4,0.683155274484,,,2017_Oct_06_1832,59.9982103215,MAFE4ImagesEEG,001,101801,
AFNE01.JPG,AFNE01.JPG,AFNE01.JPG,AFNE01.JPG,AFNE01.JPG,AFNE01.JPG,,,,,3,1,31,2,,,,,,,,,,,,,,,,,,,AFNE13.jpg,AFSA10.jpg,AFSA15.jpg,AFNE17.jpg,AFSA10.jpg,FS,4,num_6,16,num_6,0.766779278521,,,2017_Oct_06_1832,59.9982103215,MAFE4ImagesEEG,001,101801,
AFNE01.JPG,AFNE01.JPG,AFNE01.JPG,AFNE01.JPG,AFNE01.JPG,AFNE01.JPG,,,,,3,2,32,4,,,,,,,,,,,,,,,,,,,AFNE08.jpg,AFSA17.jpg,AFNE17.jpg,AFSA11.jpg,AFNE17.jpg,FN,3,num_2,16,num_2,1.38342299621,,,2017_Oct_06_1832,59.9982103215,MAFE4ImagesEEG,001,101801,
AFNE01.JPG,AFNE01.JPG,AFNE01.JPG,AFNE01.JPG,AFNE01.JPG,AFNE01.JPG,,,,,3,3,33,6,,,,,,,,,,,,,,,,,,,AFSA05.jpg,AFSA19.jpg,AFNE19.jpg,AFNE05.jpg,AFSA19.jpg,FS,4,num_6,32,num_4,0.533209912537,,,2017_Oct_06_1832,59.9982103215,MAFE4ImagesEEG,001,101801,
AFNE01.JPG,AFNE01.JPG,AFNE01.JPG,AFNE01.JPG,AFNE01.JPG,AFNE01.JPG,,,,,3,4,34,7,,,,,,,,,,,,,,,,,,,AFSA19.jpg,AFSA15.jpg,AFNE14.jpg,AFNE16.jpg,AFNE16.jpg,FN,3,num_4,16,num_4,0.666855261836,,,2017_Oct_06_1832,59.9982103215,MAFE4ImagesEEG,001,101801,
AFNE01.JPG,AFNE01.JPG,AFNE01.JPG,AFNE01.JPG,AFNE01.JPG,AFNE01.JPG,,,,,3,5,35,9,,,,,,,,,,,,,,,,,,,AFNE20.jpg,AFSA15.jpg,AFSA10.jpg,AFNE05.jpg,AFNE20.jpg,FN,3,num_8,32,num_6,0.683470561984,,,2017_Oct_06_1832,59.9982103215,MAFE4ImagesEEG,001,101801,
AFNE01.JPG,AFNE01.JPG,AFNE01.JPG,AFNE01.JPG,AFNE01.JPG,AFNE01.JPG,,,,,3,6,36,1,,,,,,,,,,,,,,,,,,,AFSA12.jpg,AFNE14.jpg,AFNE04.jpg,AFSA04.jpg,AFNE14.jpg,FN,3,num_6,16,num_6,0.750117471034,,,2017_Oct_06_1832,59.9982103215,MAFE4ImagesEEG,001,101801,
AFNE01.JPG,AFNE01.JPG,AFNE01.JPG,AFNE01.JPG,AFNE01.JPG,AFNE01.JPG,,,,,3,7,37,3,,,,,,,,,,,,,,,,,,,AFSA08.jpg,AFNE07.jpg,AFNE13.jpg,AFSA04.jpg,AFSA04.jpg,FS,4,num_4,32,num_8,0.650103647145,,,2017_Oct_06_1832,59.9982103215,MAFE4ImagesEEG,001,101801,
AFNE01.JPG,AFNE01.JPG,AFNE01.JPG,AFNE01.JPG,AFNE01.JPG,AFNE01.JPG,,,,,3,8,38,0,,,,,,,,,,,,,,,,,,,AFNE01.jpg,AFSA11.jpg,AFSA07.jpg,AFNE09.jpg,AFSA07.jpg,FS,4,num_2,16,num_2,0.933322941361,,,2017_Oct_06_1832,59.9982103215,MAFE4ImagesEEG,001,101801,
AFNE01.JPG,AFNE01.JPG,AFNE01.JPG,AFNE01.JPG,AFNE01.JPG,AFNE01.JPG,,,,,3,9,39,8,,,,,,,,,,,,,,,,,,,AFSA03.jpg,AFSA10.jpg,AFNE12.jpg,AFNE07.jpg,AFNE12.jpg,FN,3,num_2,32,num_4,0.616794144793,,,2017_Oct_06_1832,59.9982103215,MAFE4ImagesEEG,001,101801,
AFNE01.JPG,AFNE01.JPG,AFNE01.JPG,AFNE01.JPG,AFNE01.JPG,AFNE01.JPG,,,,,4,0,40,4,,,,,,,,,,,,,,,,,,,AFNE06.jpg,AFSA04.jpg,AFNE08.jpg,AFSA20.jpg,AFNE08.jpg,FN,3,num_2,32,num_4,0.700143274618,,,2017_Oct_06_1832,59.9982103215,MAFE4ImagesEEG,001,101801,
AFNE01.JPG,AFNE01.JPG,AFNE01.JPG,AFNE01.JPG,AFNE01.JPG,AFNE01.JPG,,,,,4,1,41,6,,,,,,,,,,,,,,,,,,,AFNE03.jpg,AFSA19.jpg,AFNE18.jpg,AFSA03.jpg,AFNE18.jpg,FN,3,num_2,32,num_8,0.433524847263,,,2017_Oct_06_1832,59.9982103215,MAFE4ImagesEEG,001,101801,
AFNE01.JPG,AFNE01.JPG,AFNE01.JPG,AFNE01.JPG,AFNE01.JPG,AFNE01.JPG,,,,,4,2,42,0,,,,,,,,,,,,,,,,,,,AFNE14.jpg,AFSA01.jpg,AFNE05.jpg,AFSA08.jpg,AFSA01.jpg,FS,4,num_6,16,num_6,0.950182324683,,,2017_Oct_06_1832,59.9982103215,MAFE4ImagesEEG,001,101801,
AFNE01.JPG,AFNE01.JPG,AFNE01.JPG,AFNE01.JPG,AFNE01.JPG,AFNE01.JPG,,,,,4,3,43,2,,,,,,,,,,,,,,,,,,,AFNE08.jpg,AFSA07.jpg,AFSA16.jpg,AFNE03.jpg,AFNE03.jpg,FN,3,num_4,16,num_4,0.333528343355,,,2017_Oct_06_1832,59.9982103215,MAFE4ImagesEEG,001,101801,
AFNE01.JPG,AFNE01.JPG,AFNE01.JPG,AFNE01.JPG,AFNE01.JPG,AFNE01.JPG,,,,,4,4,44,9,,,,,,,,,,,,,,,,,,,AFNE07.jpg,AFNE04.jpg,AFSA15.jpg,AFSA03.jpg,AFSA03.jpg,FS,4,num_4,32,num_6,0.63351111958,,,2017_Oct_06_1832,59.9982103215,MAFE4ImagesEEG,001,101801,
AFNE01.JPG,AFNE01.JPG,AFNE01.JPG,AFNE01.JPG,AFNE01.JPG,AFNE01.JPG,,,,,4,5,45,5,,,,,,,,,,,,,,,,,,,AFSA18.jpg,AFNE03.jpg,AFNE17.jpg,AFSA08.jpg,AFNE17.jpg,FN,3,num_2,32,num_4,0.866833194974,,,2017_Oct_06_1832,59.9982103215,MAFE4ImagesEEG,001,101801,
AFNE01.JPG,AFNE01.JPG,AFNE01.JPG,AFNE01.JPG,AFNE01.JPG,AFNE01.JPG,,,,,4,6,46,1,,,,,,,,,,,,,,,,,,,AFNE19.jpg,AFNE02.jpg,AFSA06.jpg,AFSA07.jpg,AFSA07.jpg,FS,4,num_4,32,num_8,0.900101963256,,,2017_Oct_06_1832,59.9982103215,MAFE4ImagesEEG,001,101801,
AFNE01.JPG,AFNE01.JPG,AFNE01.JPG,AFNE01.JPG,AFNE01.JPG,AFNE01.JPG,,,,,4,7,47,7,,,,,,,,,,,,,,,,,,,AFSA06.jpg,AFNE11.jpg,AFSA17.jpg,AFNE02.jpg,AFNE11.jpg,FN,3,num_6,32,num_2,1.050135208,,,2017_Oct_06_1832,59.9982103215,MAFE4ImagesEEG,001,101801,
AFNE01.JPG,AFNE01.JPG,AFNE01.JPG,AFNE01.JPG,AFNE01.JPG,AFNE01.JPG,,,,,4,8,48,8,,,,,,,,,,,,,,,,,,,AFNE04.jpg,AFSA07.jpg,AFSA05.jpg,AFNE15.jpg,AFNE15.jpg,FN,3,num_4,32,num_6,1.13344103785,,,2017_Oct_06_1832,59.9982103215,MAFE4ImagesEEG,001,101801,
AFNE01.JPG,AFNE01.JPG,AFNE01.JPG,AFNE01.JPG,AFNE01.JPG,AFNE01.JPG,,,,,4,9,49,3,,,,,,,,,,,,,,,,,,,AFSA11.jpg,AFNE09.jpg,AFSA20.jpg,AFNE13.jpg,AFSA20.jpg,FS,4,num_2,32,num_4,0.850096975744,,,2017_Oct_06_1832,59.9982103215,MAFE4ImagesEEG,001,101801,
AFNE01.JPG,AFNE01.JPG,AFNE01.JPG,AFNE01.JPG,AFNE01.JPG,AFNE01.JPG,,,,,5,0,50,4,,,,,,,,,,,,,,,,,,,AFSA11.jpg,AFSA17.jpg,AFNE20.jpg,AFNE04.jpg,AFSA17.jpg,FS,4,num_6,16,num_6,1.0334980975,,,2017_Oct_06_1832,59.9982103215,MAFE4ImagesEEG,001,101801,
AFNE01.JPG,AFNE01.JPG,AFNE01.JPG,AFNE01.JPG,AFNE01.JPG,AFNE01.JPG,,,,,5,1,51,1,,,,,,,,,,,,,,,,,,,AFNE02.jpg,AFSA01.jpg,AFSA15.jpg,AFNE08.jpg,AFSA01.jpg,FS,4,num_6,32,num_4,0.650249583938,,,2017_Oct_06_1832,59.9982103215,MAFE4ImagesEEG,001,101801,
AFNE01.JPG,AFNE01.JPG,AFNE01.JPG,AFNE01.JPG,AFNE01.JPG,AFNE01.JPG,,,,,5,2,52,8,,,,,,,,,,,,,,,,,,,AFNE11.jpg,AFSA01.jpg,AFSA18.jpg,AFNE20.jpg,AFSA18.jpg,FS,4,num_2,32,num_6,0.60022342758,,,2017_Oct_06_1832,59.9982103215,MAFE4ImagesEEG,001,101801,
AFNE01.JPG,AFNE01.JPG,AFNE01.JPG,AFNE01.JPG,AFNE01.JPG,AFNE01.JPG,,,,,5,3,53,2,,,,,,,,,,,,,,,,,,,AFSA17.jpg,AFNE04.jpg,AFNE06.jpg,AFSA18.jpg,AFNE06.jpg,FN,3,num_2,16,num_2,0.883432458097,,,2017_Oct_06_1832,59.9982103215,MAFE4ImagesEEG,001,101801,
AFNE01.JPG,AFNE01.JPG,AFNE01.JPG,AFNE01.JPG,AFNE01.JPG,AFNE01.JPG,,,,,5,4,54,7,,,,,,,,,,,,,,,,,,,AFSA16.jpg,AFNE20.jpg,AFNE09.jpg,AFSA10.jpg,AFSA10.jpg,FS,4,num_4,32,num_2,0.616896781663,,,2017_Oct_06_1832,59.9982103215,MAFE4ImagesEEG,001,101801,
AFNE01.JPG,AFNE01.JPG,AFNE01.JPG,AFNE01.JPG,AFNE01.JPG,AFNE01.JPG,,,,,5,5,55,6,,,,,,,,,,,,,,,,,,,AFSA15.jpg,AFNE02.jpg,AFSA06.jpg,AFNE05.jpg,AFSA15.jpg,FS,4,num_8,32,num_4,0.450173825084,,,2017_Oct_06_1832,59.9982103215,MAFE4ImagesEEG,001,101801,
AFNE01.JPG,AFNE01.JPG,AFNE01.JPG,AFNE01.JPG,AFNE01.JPG,AFNE01.JPG,,,,,5,6,56,3,,,,,,,,,,,,,,,,,,,AFSA02.jpg,AFSA01.jpg,AFNE04.jpg,AFNE12.jpg,AFSA02.jpg,FS,4,num_8,32,num_6,0.617048491724,,,2017_Oct_06_1832,59.9982103215,MAFE4ImagesEEG,001,101801,
AFNE01.JPG,AFNE01.JPG,AFNE01.JPG,AFNE01.JPG,AFNE01.JPG,AFNE01.JPG,,,,,5,7,57,9,,,,,,,,,,,,,,,,,,,AFNE02.jpg,AFSA09.jpg,AFNE05.jpg,AFSA20.jpg,AFSA09.jpg,FS,4,num_6,32,num_8,1.20014952909,,,2017_Oct_06_1832,59.9982103215,MAFE4ImagesEEG,001,101801,
AFNE01.JPG,AFNE01.JPG,AFNE01.JPG,AFNE01.JPG,AFNE01.JPG,AFNE01.JPG,,,,,5,8,58,0,,,,,,,,,,,,,,,,,,,AFSA02.jpg,AFSA07.jpg,AFNE12.jpg,AFNE05.jpg,AFNE12.jpg,FN,3,num_2,16,num_2,0.51681624382,,,2017_Oct_06_1832,59.9982103215,MAFE4ImagesEEG,001,101801,
AFNE01.JPG,AFNE01.JPG,AFNE01.JPG,AFNE01.JPG,AFNE01.JPG,AFNE01.JPG,,,,,5,9,59,5,,,,,,,,,,,,,,,,,,,AFNE15.jpg,AFSA13.jpg,AFSA14.jpg,AFNE08.jpg,AFNE08.jpg,FN,3,num_4,16,num_4,0.58347951062,,,2017_Oct_06_1832,59.9982103215,MAFE4ImagesEEG,001,101801,
,,,,,,,,,,,,,,,,,,,,,,,,,,,,,,,,,,,,,,,,,,,space,4.64981818845,2017_Oct_06_1832,59.9982103215,MAFE4ImagesEEG,001,101801,
AFNE01.JPG,AFNE01.JPG,AFNE01.JPG,AFNE01.JPG,AFNE01.JPG,AFNE01.JPG,,,,,,,,,0,0,0,3,,,,,,,,,,,,,,,AMNE05.jpg,AMSA15.jpg,AMSA03.jpg,AMNE09.jpg,AMNE05.jpg,MN,1,num_8,32,num_4,0.816768549732,,,2017_Oct_06_1832,59.9982103215,MAFE4ImagesEEG,001,101801,
AFNE01.JPG,AFNE01.JPG,AFNE01.JPG,AFNE01.JPG,AFNE01.JPG,AFNE01.JPG,,,,,,,,,0,1,1,6,,,,,,,,,,,,,,,AMNE05.jpg,AMSA09.jpg,AMNE10.jpg,AMSA08.jpg,AMSA09.jpg,MS,2,num_6,32,num_4,0.816766946053,,,2017_Oct_06_1832,59.9982103215,MAFE4ImagesEEG,001,101801,
AFNE01.JPG,AFNE01.JPG,AFNE01.JPG,AFNE01.JPG,AFNE01.JPG,AFNE01.JPG,,,,,,,,,0,2,2,7,,,,,,,,,,,,,,,AMNE02.jpg,AMSA09.jpg,AMSA08.jpg,AMNE05.jpg,AMNE02.jpg,MN,1,num_8,32,num_4,1.41674244154,,,2017_Oct_06_1832,59.9982103215,MAFE4ImagesEEG,001,101801,
AFNE01.JPG,AFNE01.JPG,AFNE01.JPG,AFNE01.JPG,AFNE01.JPG,AFNE01.JPG,,,,,,,,,0,3,3,9,,,,,,,,,,,,,,,AMSA07.jpg,AMSA17.jpg,AMNE03.jpg,AMNE05.jpg,AMSA17.jpg,MS,2,num_6,16,num_6,0.783805125975,,,2017_Oct_06_1832,59.9982103215,MAFE4ImagesEEG,001,101801,
AFNE01.JPG,AFNE01.JPG,AFNE01.JPG,AFNE01.JPG,AFNE01.JPG,AFNE01.JPG,,,,,,,,,0,4,4,2,,,,,,,,,,,,,,,AMNE06.jpg,AMSA11.jpg,AMSA02.jpg,AMNE02.jpg,AMNE02.jpg,MN,1,num_4,32,num_2,0.583437172929,,,2017_Oct_06_1832,59.9982103215,MAFE4ImagesEEG,001,101801,
AFNE01.JPG,AFNE01.JPG,AFNE01.JPG,AFNE01.JPG,AFNE01.JPG,AFNE01.JPG,,,,,,,,,0,5,5,8,,,,,,,,,,,,,,,AMNE01.jpg,AMSA02.jpg,AMSA20.jpg,AMNE11.jpg,AMSA20.jpg,MS,2,num_2,32,num_8,0.900121528422,,,2017_Oct_06_1832,59.9982103215,MAFE4ImagesEEG,001,101801,
AFNE01.JPG,AFNE01.JPG,AFNE01.JPG,AFNE01.JPG,AFNE01.JPG,AFNE01.JPG,,,,,,,,,0,6,6,1,,,,,,,,,,,,,,,AMSA07.jpg,AMNE03.jpg,AMSA02.jpg,AMNE14.jpg,AMNE14.jpg,MN,1,num_4,32,num_6,0.650215585483,,,2017_Oct_06_1832,59.9982103215,MAFE4ImagesEEG,001,101801,
AFNE01.JPG,AFNE01.JPG,AFNE01.JPG,AFNE01.JPG,AFNE01.JPG,AFNE01.JPG,,,,,,,,,0,7,7,5,,,,,,,,,,,,,,,AMNE06.jpg,AMSA20.jpg,AMNE03.jpg,AMSA04.jpg,AMSA20.jpg,MS,2,num_6,32,num_8,0.867079523334,,,2017_Oct_06_1832,59.9982103215,MAFE4ImagesEEG,001,101801,
AFNE01.JPG,AFNE01.JPG,AFNE01.JPG,AFNE01.JPG,AFNE01.JPG,AFNE01.JPG,,,,,,,,,0,8,8,4,,,,,,,,,,,,,,,AMSA17.jpg,AMSA15.jpg,AMNE05.jpg,AMNE10.jpg,AMNE10.jpg,MN,1,num_4,16,num_4,0.76677222224,,,2017_Oct_06_1832,59.9982103215,MAFE4ImagesEEG,001,101801,
AFNE01.JPG,AFNE01.JPG,AFNE01.JPG,AFNE01.JPG,AFNE01.JPG,AFNE01.JPG,,,,,,,,,0,9,9,0,,,,,,,,,,,,,,,AMNE07.jpg,AMNE05.jpg,AMSA05.jpg,AMSA02.jpg,AMSA02.jpg,MS,2,num_4,16,num_4,0.750224277552,,,2017_Oct_06_1832,59.9982103215,MAFE4ImagesEEG,001,101801,
AFNE01.JPG,AFNE01.JPG,AFNE01.JPG,AFNE01.JPG,AFNE01.JPG,AFNE01.JPG,,,,,,,,,1,0,10,1,,,,,,,,,,,,,,,AMSA09.jpg,AMSA11.jpg,AMNE04.jpg,AMNE13.jpg,AMNE13.jpg,MN,1,num_4,32,num_8,0.94996165554,,,2017_Oct_06_1832,59.9982103215,MAFE4ImagesEEG,001,101801,
AFNE01.JPG,AFNE01.JPG,AFNE01.JPG,AFNE01.JPG,AFNE01.JPG,AFNE01.JPG,,,,,,,,,1,1,11,9,,,,,,,,,,,,,,,AMSA02.jpg,AMNE03.jpg,AMNE15.jpg,AMSA14.jpg,AMSA02.jpg,MS,2,num_8,16,num_8,1.73340819409,,,2017_Oct_06_1832,59.9982103215,MAFE4ImagesEEG,001,101801,
AFNE01.JPG,AFNE01.JPG,AFNE01.JPG,AFNE01.JPG,AFNE01.JPG,AFNE01.JPG,,,,,,,,,1,2,12,8,,,,,,,,,,,,,,,AMSA07.jpg,AMSA12.jpg,AMNE09.jpg,AMNE11.jpg,AMNE09.jpg,MN,1,num_2,32,num_8,1.12889807485,,,2017_Oct_06_1832,59.9982103215,MAFE4ImagesEEG,001,101801,
AFNE01.JPG,AFNE01.JPG,AFNE01.JPG,AFNE01.JPG,AFNE01.JPG,AFNE01.JPG,,,,,,,,,1,3,13,4,,,,,,,,,,,,,,,AMNE10.jpg,AMSA16.jpg,AMSA01.jpg,AMNE13.jpg,AMNE13.jpg,MN,1,num_4,16,num_4,1.0667389615,,,2017_Oct_06_1832,59.9982103215,MAFE4ImagesEEG,001,101801,
AFNE01.JPG,AFNE01.JPG,AFNE01.JPG,AFNE01.JPG,AFNE01.JPG,AFNE01.JPG,,,,,,,,,1,4,14,3,,,,,,,,,,,,,,,AMNE05.jpg,AMSA06.jpg,AMSA15.jpg,AMNE14.jpg,AMSA06.jpg,MS,2,num_6,16,num_6,0.733434494759,,,2017_Oct_06_1832,59.9982103215,MAFE4ImagesEEG,001,101801,
AFNE01.JPG,AFNE01.JPG,AFNE01.JPG,AFNE01.JPG,AFNE01.JPG,AFNE01.JPG,,,,,,,,,1,5,15,6,,,,,,,,,,,,,,,AMNE05.jpg,AMNE14.jpg,AMSA06.jpg,AMSA02.jpg,AMSA02.jpg,MS,2,num_4,16,num_4,0.783467386675,,,2017_Oct_06_1832,59.9982103215,MAFE4ImagesEEG,001,101801,
AFNE01.JPG,AFNE01.JPG,AFNE01.JPG,AFNE01.JPG,AFNE01.JPG,AFNE01.JPG,,,,,,,,,1,6,16,2,,,,,,,,,,,,,,,AMNE18.jpg,AMNE03.jpg,AMSA07.jpg,AMSA02.jpg,AMSA07.jpg,MS,2,num_2,32,num_8,1.10015911917,,,2017_Oct_06_1832,59.9982103215,MAFE4ImagesEEG,001,101801,
AFNE01.JPG,AFNE01.JPG,AFNE01.JPG,AFNE01.JPG,AFNE01.JPG,AFNE01.JPG,,,,,,,,,1,7,17,5,,,,,,,,,,,,,,,AMSA10.jpg,AMNE04.jpg,AMNE03.jpg,AMSA12.jpg,AMNE03.jpg,MN,1,num_2,32,num_6,0.666762247216,,,2017_Oct_06_1832,59.9982103215,MAFE4ImagesEEG,001,101801,
AFNE01.JPG,AFNE01.JPG,AFNE01.JPG,AFNE01.JPG,AFNE01.JPG,AFNE01.JPG,,,,,,,,,1,8,18,7,,,,,,,,,,,,,,,AMSA20.jpg,AMNE04.jpg,AMNE06.jpg,AMSA09.jpg,AMSA20.jpg,MS,2,num_8,16,num_8,1.7337260475,,,2017_Oct_06_1832,59.9982103215,MAFE4ImagesEEG,001,101801,
AFNE01.JPG,AFNE01.JPG,AFNE01.JPG,AFNE01.JPG,AFNE01.JPG,AFNE01.JPG,,,,,,,,,1,9,19,0,,,,,,,,,,,,,,,AMSA15.jpg,AMSA05.jpg,AMNE15.jpg,AMNE16.jpg,AMSA15.jpg,MS,2,num_8,32,num_6,0.616805370722,,,2017_Oct_06_1832,59.9982103215,MAFE4ImagesEEG,001,101801,
AFNE01.JPG,AFNE01.JPG,AFNE01.JPG,AFNE01.JPG,AFNE01.JPG,AFNE01.JPG,,,,,,,,,2,0,20,0,,,,,,,,,,,,,,,AMNE18.jpg,AMNE07.jpg,AMSA07.jpg,AMSA01.jpg,AMSA07.jpg,MS,2,num_2,32,num_8,0.666794321267,,,2017_Oct_06_1832,59.9982103215,MAFE4ImagesEEG,001,101801,
AFNE01.JPG,AFNE01.JPG,AFNE01.JPG,AFNE01.JPG,AFNE01.JPG,AFNE01.JPG,,,,,,,,,2,1,21,4,,,,,,,,,,,,,,,AMSA06.jpg,AMNE05.jpg,AMNE04.jpg,AMSA14.jpg,AMSA14.jpg,MS,2,num_4,16,num_4,0.583526659408,,,2017_Oct_06_1832,59.9982103215,MAFE4ImagesEEG,001,101801,
AFNE01.JPG,AFNE01.JPG,AFNE01.JPG,AFNE01.JPG,AFNE01.JPG,AFNE01.JPG,,,,,,,,,2,2,22,6,,,,,,,,,,,,,,,AMSA07.jpg,AMNE17.jpg,AMNE06.jpg,AMSA04.jpg,AMNE17.jpg,MN,1,num_6,16,num_6,0.66682190483,,,2017_Oct_06_1832,59.9982103215,MAFE4ImagesEEG,001,101801,
AFNE01.JPG,AFNE01.JPG,AFNE01.JPG,AFNE01.JPG,AFNE01.JPG,AFNE01.JPG,,,,,,,,,2,3,23,3,,,,,,,,,,,,,,,AMNE15.jpg,AMNE04.jpg,AMSA08.jpg,AMSA14.jpg,AMNE15.jpg,MN,1,num_8,32,num_2,1.46671695873,,,2017_Oct_06_1832,59.9982103215,MAFE4ImagesEEG,001,101801,
AFNE01.JPG,AFNE01.JPG,AFNE01.JPG,AFNE01.JPG,AFNE01.JPG,AFNE01.JPG,,,,,,,,,2,4,24,9,,,,,,,,,,,,,,,AMNE15.jpg,AMSA04.jpg,AMSA10.jpg,AMNE20.jpg,AMNE20.jpg,MN,1,num_4,16,num_4,0.716772366606,,,2017_Oct_06_1832,59.9982103215,MAFE4ImagesEEG,001,101801,
AFNE01.JPG,AFNE01.JPG,AFNE01.JPG,AFNE01.JPG,AFNE01.JPG,AFNE01.JPG,,,,,,,,,2,5,25,2,,,,,,,,,,,,,,,AMSA13.jpg,AMNE13.jpg,AMSA18.jpg,AMNE11.jpg,AMNE13.jpg,MN,1,num_6,16,num_6,1.05010954879,,,2017_Oct_06_1832,59.9982103215,MAFE4ImagesEEG,001,101801,
AFNE01.JPG,AFNE01.JPG,AFNE01.JPG,AFNE01.JPG,AFNE01.JPG,AFNE01.JPG,,,,,,,,,2,6,26,1,,,,,,,,,,,,,,,AMSA18.jpg,AMNE14.jpg,AMNE04.jpg,AMSA07.jpg,AMSA18.jpg,MS,2,num_8,16,num_8,0.866787008359,,,2017_Oct_06_1832,59.9982103215,MAFE4ImagesEEG,001,101801,
AFNE01.JPG,AFNE01.JPG,AFNE01.JPG,AFNE01.JPG,AFNE01.JPG,AFNE01.JPG,,,,,,,,,2,7,27,5,,,,,,,,,,,,,,,AMNE14.jpg,AMSA20.jpg,AMNE18.jpg,AMSA02.jpg,AMNE18.jpg,MN,1,num_2,32,num_6,0.683463505702,,,2017_Oct_06_1832,59.9982103215,MAFE4ImagesEEG,001,101801,
AFNE01.JPG,AFNE01.JPG,AFNE01.JPG,AFNE01.JPG,AFNE01.JPG,AFNE01.JPG,,,,,,,,,2,8,28,7,,,,,,,,,,,,,,,AMSA03.jpg,AMNE13.jpg,AMSA12.jpg,AMNE19.jpg,AMSA12.jpg,MS,2,num_2,32,num_8,1.30009214865,,,2017_Oct_06_1832,59.9982103215,MAFE4ImagesEEG,001,101801,
AFNE01.JPG,AFNE01.JPG,AFNE01.JPG,AFNE01.JPG,AFNE01.JPG,AFNE01.JPG,,,,,,,,,2,9,29,8,,,,,,,,,,,,,,,AMNE05.jpg,AMSA20.jpg,AMNE07.jpg,AMSA14.jpg,AMNE05.jpg,MN,1,num_8,32,num_4,0.700211912976,,,2017_Oct_06_1832,59.9982103215,MAFE4ImagesEEG,001,101801,
AFNE01.JPG,AFNE01.JPG,AFNE01.JPG,AFNE01.JPG,AFNE01.JPG,AFNE01.JPG,,,,,,,,,3,0,30,5,,,,,,,,,,,,,,,AMSA15.jpg,AMSA17.jpg,AMNE13.jpg,AMNE02.jpg,AMNE13.jpg,MN,1,num_2,16,num_2,0.91683850321,,,2017_Oct_06_1832,59.9982103215,MAFE4ImagesEEG,001,101801,
AFNE01.JPG,AFNE01.JPG,AFNE01.JPG,AFNE01.JPG,AFNE01.JPG,AFNE01.JPG,,,,,,,,,3,1,31,6,,,,,,,,,,,,,,,AMSA13.jpg,AMNE08.jpg,AMNE20.jpg,AMSA01.jpg,AMSA01.jpg,MS,2,num_4,16,num_4,0.700127558317,,,2017_Oct_06_1832,59.9982103215,MAFE4ImagesEEG,001,101801,
AFNE01.JPG,AFNE01.JPG,AFNE01.JPG,AFNE01.JPG,AFNE01.JPG,AFNE01.JPG,,,,,,,,,3,2,32,9,,,,,,,,,,,,,,,AMNE04.jpg,AMSA17.jpg,AMSA16.jpg,AMNE06.jpg,AMSA16.jpg,MS,2,num_2,32,num_6,0.866812026128,,,2017_Oct_06_1832,59.9982103215,MAFE4ImagesEEG,001,101801,
AFNE01.JPG,AFNE01.JPG,AFNE01.JPG,AFNE01.JPG,AFNE01.JPG,AFNE01.JPG,,,,,,,,,3,3,33,0,,,,,,,,,,,,,,,AMNE01.jpg,AMNE07.jpg,AMSA14.jpg,AMSA15.jpg,AMSA15.jpg,MS,2,num_4,16,num_4,0.633439594531,,,2017_Oct_06_1832,59.9982103215,MAFE4ImagesEEG,001,101801,
AFNE01.JPG,AFNE01.JPG,AFNE01.JPG,AFNE01.JPG,AFNE01.JPG,AFNE01.JPG,,,,,,,,,3,4,34,4,,,,,,,,,,,,,,,AMNE04.jpg,AMNE07.jpg,AMSA19.jpg,AMSA01.jpg,AMSA01.jpg,MS,2,num_4,16,num_4,0.683476656035,,,2017_Oct_06_1832,59.9982103215,MAFE4ImagesEEG,001,101801,
AFNE01.JPG,AFNE01.JPG,AFNE01.JPG,AFNE01.JPG,AFNE01.JPG,AFNE01.JPG,,,,,,,,,3,5,35,1,,,,,,,,,,,,,,,AMNE05.jpg,AMSA19.jpg,AMSA01.jpg,AMNE12.jpg,AMSA01.jpg,MS,2,num_2,16,num_2,0.916793278826,,,2017_Oct_06_1832,59.9982103215,MAFE4ImagesEEG,001,101801,
AFNE01.JPG,AFNE01.JPG,AFNE01.JPG,AFNE01.JPG,AFNE01.JPG,AFNE01.JPG,,,,,,,,,3,6,36,2,,,,,,,,,,,,,,,AMNE15.jpg,AMSA01.jpg,AMSA12.jpg,AMNE18.jpg,AMNE15.jpg,MN,1,num_8,16,num_8,0.683455807914,,,2017_Oct_06_1832,59.9982103215,MAFE4ImagesEEG,001,101801,
AFNE01.JPG,AFNE01.JPG,AFNE01.JPG,AFNE01.JPG,AFNE01.JPG,AFNE01.JPG,,,,,,,,,3,7,37,7,,,,,,,,,,,,,,,AMSA09.jpg,AMNE12.jpg,AMSA05.jpg,AMNE08.jpg,AMNE08.jpg,MN,1,num_4,32,num_8,0.816775926796,,,2017_Oct_06_1832,59.9982103215,MAFE4ImagesEEG,001,101801,
AFNE01.JPG,AFNE01.JPG,AFNE01.JPG,AFNE01.JPG,AFNE01.JPG,AFNE01.JPG,,,,,,,,,3,8,38,8,,,,,,,,,,,,,,,AMSA07.jpg,AMSA06.jpg,AMNE09.jpg,AMNE06.jpg,AMSA07.jpg,MS,2,num_8,32,num_4,0.800121496373,,,2017_Oct_06_1832,59.9982103215,MAFE4ImagesEEG,001,101801,
AFNE01.JPG,AFNE01.JPG,AFNE01.JPG,AFNE01.JPG,AFNE01.JPG,AFNE01.JPG,,,,,,,,,3,9,39,3,,,,,,,,,,,,,,,AMSA02.jpg,AMSA15.jpg,AMNE15.jpg,AMNE20.jpg,AMSA15.jpg,MS,2,num_6,32,num_2,0.333485684881,,,2017_Oct_06_1832,59.9982103215,MAFE4ImagesEEG,001,101801,
AFNE01.JPG,AFNE01.JPG,AFNE01.JPG,AFNE01.JPG,AFNE01.JPG,AFNE01.JPG,,,,,,,,,4,0,40,6,,,,,,,,,,,,,,,AMNE06.jpg,AMSA15.jpg,AMSA10.jpg,AMNE05.jpg,AMSA10.jpg,MS,2,num_2,32,num_4,0.850059449149,,,2017_Oct_06_1832,59.9982103215,MAFE4ImagesEEG,001,101801,
AFNE01.JPG,AFNE01.JPG,AFNE01.JPG,AFNE01.JPG,AFNE01.JPG,AFNE01.JPG,,,,,,,,,4,1,41,0,,,,,,,,,,,,,,,AMNE07.jpg,AMSA09.jpg,AMSA15.jpg,AMNE18.jpg,AMSA09.jpg,MS,2,num_6,32,num_8,0.61683616176,,,2017_Oct_06_1832,59.9982103215,MAFE4ImagesEEG,001,101801,
AFNE01.JPG,AFNE01.JPG,AFNE01.JPG,AFNE01.JPG,AFNE01.JPG,AFNE01.JPG,,,,,,,,,4,2,42,4,,,,,,,,,,,,,,,AMNE13.jpg,AMNE02.jpg,AMSA15.jpg,AMSA03.jpg,AMNE13.jpg,MN,1,num_8,32,num_4,0.716804440599,,,2017_Oct_06_1832,59.9982103215,MAFE4ImagesEEG,001,101801,
AFNE01.JPG,AFNE01.JPG,AFNE01.JPG,AFNE01.JPG,AFNE01.JPG,AFNE01.JPG,,,,,,,,,4,3,43,7,,,,,,,,,,,,,,,AMNE17.jpg,AMNE06.jpg,AMSA03.jpg,AMSA04.jpg,AMSA03.jpg,MS,2,num_2,32,num_4,0.916758638923,,,2017_Oct_06_1832,59.9982103215,MAFE4ImagesEEG,001,101801,
AFNE01.JPG,AFNE01.JPG,AFNE01.JPG,AFNE01.JPG,AFNE01.JPG,AFNE01.JPG,,,,,,,,,4,4,44,1,,,,,,,,,,,,,,,AMSA08.jpg,AMNE04.jpg,AMNE20.jpg,AMSA13.jpg,AMSA13.jpg,MS,2,num_4,32,num_8,0.66667308152,,,2017_Oct_06_1832,59.9982103215,MAFE4ImagesEEG,001,101801,
AFNE01.JPG,AFNE01.JPG,AFNE01.JPG,AFNE01.JPG,AFNE01.JPG,AFNE01.JPG,,,,,,,,,4,5,45,5,,,,,,,,,,,,,,,AMSA20.jpg,AMSA15.jpg,AMNE10.jpg,AMNE05.jpg,AMSA15.jpg,MS,2,num_6,32,num_2,1.15014550375,,,2017_Oct_06_1832,59.9982103215,MAFE4ImagesEEG,001,101801,
AFNE01.JPG,AFNE01.JPG,AFNE01.JPG,AFNE01.JPG,AFNE01.JPG,AFNE01.JPG,,,,,,,,,4,6,46,3,,,,,,,,,,,,,,,AMNE17.jpg,AMNE18.jpg,AMSA01.jpg,AMSA08.jpg,AMSA01.jpg,MS,2,num_2,16,num_2,1.0001151457,,,2017_Oct_06_1832,59.9982103215,MAFE4ImagesEEG,001,101801,
AFNE01.JPG,AFNE01.JPG,AFNE01.JPG,AFNE01.JPG,AFNE01.JPG,AFNE01.JPG,,,,,,,,,4,7,47,2,,,,,,,,,,,,,,,AMNE18.jpg,AMNE15.jpg,AMSA04.jpg,AMSA05.jpg,AMNE15.jpg,MN,1,num_6,16,num_6,0.866641713073,,,2017_Oct_06_1832,59.9982103215,MAFE4ImagesEEG,001,101801,
AFNE01.JPG,AFNE01.JPG,AFNE01.JPG,AFNE01.JPG,AFNE01.JPG,AFNE01.JPG,,,,,,,,,4,8,48,8,,,,,,,,,,,,,,,AMSA13.jpg,AMNE04.jpg,AMNE07.jpg,AMSA14.jpg,AMSA14.jpg,MS,2,num_4,16,num_4,0.633478724805,,,2017_Oct_06_1832,59.9982103215,MAFE4ImagesEEG,001,101801,
AFNE01.JPG,AFNE01.JPG,AFNE01.JPG,AFNE01.JPG,AFNE01.JPG,AFNE01.JPG,,,,,,,,,4,9,49,9,,,,,,,,,,,,,,,AMSA02.jpg,AMNE09.jpg,AMSA19.jpg,AMNE11.jpg,AMNE11.jpg,MN,1,num_4,32,num_6,0.800140420033,,,2017_Oct_06_1832,59.9982103215,MAFE4ImagesEEG,001,101801,
AFNE01.JPG,AFNE01.JPG,AFNE01.JPG,AFNE01.JPG,AFNE01.JPG,AFNE01.JPG,,,,,,,,,5,0,50,7,,,,,,,,,,,,,,,AMSA17.jpg,AMNE15.jpg,AMNE10.jpg,AMSA01.jpg,AMSA01.jpg,MS,2,num_4,16,num_4,0.833477826789,,,2017_Oct_06_1832,59.9982103215,MAFE4ImagesEEG,001,101801,
AFNE01.JPG,AFNE01.JPG,AFNE01.JPG,AFNE01.JPG,AFNE01.JPG,AFNE01.JPG,,,,,,,,,5,1,51,3,,,,,,,,,,,,,,,AMSA03.jpg,AMSA15.jpg,AMNE08.jpg,AMNE11.jpg,AMNE11.jpg,MN,1,num_4,32,num_6,0.566818665422,,,2017_Oct_06_1832,59.9982103215,MAFE4ImagesEEG,001,101801,
AFNE01.JPG,AFNE01.JPG,AFNE01.JPG,AFNE01.JPG,AFNE01.JPG,AFNE01.JPG,,,,,,,,,5,2,52,6,,,,,,,,,,,,,,,AMSA08.jpg,AMNE10.jpg,AMNE20.jpg,AMSA09.jpg,AMNE20.jpg,MN,1,num_2,32,num_4,1.33376793622,,,2017_Oct_06_1832,59.9982103215,MAFE4ImagesEEG,001,101801,
AFNE01.JPG,AFNE01.JPG,AFNE01.JPG,AFNE01.JPG,AFNE01.JPG,AFNE01.JPG,,,,,,,,,5,3,53,4,,,,,,,,,,,,,,,AMSA18.jpg,AMSA13.jpg,AMNE02.jpg,AMNE20.jpg,AMNE02.jpg,MN,1,num_2,16,num_2,0.833440941642,,,2017_Oct_06_1832,59.9982103215,MAFE4ImagesEEG,001,101801,
AFNE01.JPG,AFNE01.JPG,AFNE01.JPG,AFNE01.JPG,AFNE01.JPG,AFNE01.JPG,,,,,,,,,5,4,54,1,,,,,,,,,,,,,,,AMNE02.jpg,AMSA18.jpg,AMSA17.jpg,AMNE04.jpg,AMSA17.jpg,MS,2,num_2,16,num_2,0.583442625531,,,2017_Oct_06_1832,59.9982103215,MAFE4ImagesEEG,001,101801,
AFNE01.JPG,AFNE01.JPG,AFNE01.JPG,AFNE01.JPG,AFNE01.JPG,AFNE01.JPG,,,,,,,,,5,5,55,8,,,,,,,,,,,,,,,AMNE20.jpg,AMSA10.jpg,AMNE10.jpg,AMSA03.jpg,AMSA10.jpg,MS,2,num_6,32,num_2,0.733493190259,,,2017_Oct_06_1832,59.9982103215,MAFE4ImagesEEG,001,101801,
AFNE01.JPG,AFNE01.JPG,AFNE01.JPG,AFNE01.JPG,AFNE01.JPG,AFNE01.JPG,,,,,,,,,5,6,56,5,,,,,,,,,,,,,,,AMNE01.jpg,AMSA13.jpg,AMSA10.jpg,AMNE04.jpg,AMSA13.jpg,MS,2,num_6,32,num_2,1.3167674272,,,2017_Oct_06_1832,59.9982103215,MAFE4ImagesEEG,001,101801,
AFNE01.JPG,AFNE01.JPG,AFNE01.JPG,AFNE01.JPG,AFNE01.JPG,AFNE01.JPG,,,,,,,,,5,7,57,9,,,,,,,,,,,,,,,AMNE19.jpg,AMSA18.jpg,AMSA10.jpg,AMNE02.jpg,AMSA10.jpg,MS,2,num_2,16,num_2,0.783465782995,,,2017_Oct_06_1832,59.9982103215,MAFE4ImagesEEG,001,101801,
AFNE01.JPG,AFNE01.JPG,AFNE01.JPG,AFNE01.JPG,AFNE01.JPG,AFNE01.JPG,,,,,,,,,5,8,58,2,,,,,,,,,,,,,,,AMSA07.jpg,AMSA15.jpg,AMNE18.jpg,AMNE11.jpg,AMSA07.jpg,MS,2,num_8,16,num_8,1.03339898883,,,2017_Oct_06_1832,59.9982103215,MAFE4ImagesEEG,001,101801,
AFNE01.JPG,AFNE01.JPG,AFNE01.JPG,AFNE01.JPG,AFNE01.JPG,AFNE01.JPG,,,,,,,,,5,9,59,0,,,,,,,,,,,,,,,AMNE13.jpg,AMSA09.jpg,AMNE09.jpg,AMSA05.jpg,AMNE13.jpg,MN,1,num_8,32,num_2,0.700156745675,,,2017_Oct_06_1832,59.9982103215,MAFE4ImagesEEG,001,101801,
,,,,,,,,,,,,,,,,,,,,,,,,,,,,,,,,,,,,,,,,,,,space,2.54994998057,2017_Oct_06_1832,59.9982103215,MAFE4ImagesEEG,001,101801,
AFNE01.JPG,AFNE01.JPG,AFNE01.JPG,AFNE01.JPG,AFNE01.JPG,AFNE01.JPG,,,,,,,,,,,,,0,0,0,4,,,,,,,,,,,AFNE15.jpg,AFSA05.jpg,AFSA08.jpg,AFNE09.jpg,AFNE09.jpg,FN,3,num_4,16,num_4,0.483495836321,,,2017_Oct_06_1832,59.9982103215,MAFE4ImagesEEG,001,101801,
AFNE01.JPG,AFNE01.JPG,AFNE01.JPG,AFNE01.JPG,AFNE01.JPG,AFNE01.JPG,,,,,,,,,,,,,0,1,1,7,,,,,,,,,,,AFNE11.jpg,AFSA18.jpg,AFSA04.jpg,AFNE02.jpg,AFSA04.jpg,FS,4,num_2,16,num_2,0.48348813859,,,2017_Oct_06_1832,59.9982103215,MAFE4ImagesEEG,001,101801,
AFNE01.JPG,AFNE01.JPG,AFNE01.JPG,AFNE01.JPG,AFNE01.JPG,AFNE01.JPG,,,,,,,,,,,,,0,2,2,9,,,,,,,,,,,AFSA01.jpg,AFNE13.jpg,AFSA05.jpg,AFNE14.jpg,AFNE14.jpg,FN,3,num_4,32,num_8,0.650026348769,,,2017_Oct_06_1832,59.9982103215,MAFE4ImagesEEG,001,101801,
AFNE01.JPG,AFNE01.JPG,AFNE01.JPG,AFNE01.JPG,AFNE01.JPG,AFNE01.JPG,,,,,,,,,,,,,0,3,3,5,,,,,,,,,,,AFNE18.jpg,AFSA07.jpg,AFSA19.jpg,AFNE02.jpg,AFNE02.jpg,FN,3,num_4,32,num_2,0.600260312669,,,2017_Oct_06_1832,59.9982103215,MAFE4ImagesEEG,001,101801,
AFNE01.JPG,AFNE01.JPG,AFNE01.JPG,AFNE01.JPG,AFNE01.JPG,AFNE01.JPG,,,,,,,,,,,,,0,4,4,6,,,,,,,,,,,AFSA17.jpg,AFSA15.jpg,AFNE07.jpg,AFNE04.jpg,AFNE07.jpg,FN,3,num_2,32,num_4,0.749995589838,,,2017_Oct_06_1832,59.9982103215,MAFE4ImagesEEG,001,101801,
AFNE01.JPG,AFNE01.JPG,AFNE01.JPG,AFNE01.JPG,AFNE01.JPG,AFNE01.JPG,,,,,,,,,,,,,0,5,5,3,,,,,,,,,,,AFSA14.jpg,AFNE03.jpg,AFSA13.jpg,AFNE17.jpg,AFNE17.jpg,FN,3,num_4,32,num_6,0.683407376171,,,2017_Oct_06_1832,59.9982103215,MAFE4ImagesEEG,001,101801,
AFNE01.JPG,AFNE01.JPG,AFNE01.JPG,AFNE01.JPG,AFNE01.JPG,AFNE01.JPG,,,,,,,,,,,,,0,6,6,0,,,,,,,,,,,AFSA10.jpg,AFNE10.jpg,AFSA17.jpg,AFNE04.jpg,AFSA17.jpg,FS,4,num_2,16,num_2,0.783496573975,,,2017_Oct_06_1832,59.9982103215,MAFE4ImagesEEG,001,101801,
AFNE01.JPG,AFNE01.JPG,AFNE01.JPG,AFNE01.JPG,AFNE01.JPG,AFNE01.JPG,,,,,,,,,,,,,0,7,7,2,,,,,,,,,,,AFNE02.jpg,AFNE18.jpg,AFSA08.jpg,AFSA12.jpg,AFSA12.jpg,FS,4,num_4,16,num_4,0.666805547138,,,2017_Oct_06_1832,59.9982103215,MAFE4ImagesEEG,001,101801,
AFNE01.JPG,AFNE01.JPG,AFNE01.JPG,AFNE01.JPG,AFNE01.JPG,AFNE01.JPG,,,,,,,,,,,,,0,8,8,8,,,,,,,,,,,AFSA18.jpg,AFNE10.jpg,AFNE01.jpg,AFSA07.jpg,AFSA07.jpg,FS,4,num_4,32,num_6,0.516822658654,,,2017_Oct_06_1832,59.9982103215,MAFE4ImagesEEG,001,101801,
AFNE01.JPG,AFNE01.JPG,AFNE01.JPG,AFNE01.JPG,AFNE01.JPG,AFNE01.JPG,,,,,,,,,,,,,0,9,9,1,,,,,,,,,,,AFNE14.jpg,AFNE20.jpg,AFSA13.jpg,AFSA18.jpg,AFNE14.jpg,FN,3,num_8,32,num_4,0.616758542659,,,2017_Oct_06_1832,59.9982103215,MAFE4ImagesEEG,001,101801,
AFNE01.JPG,AFNE01.JPG,AFNE01.JPG,AFNE01.JPG,AFNE01.JPG,AFNE01.JPG,,,,,,,,,,,,,1,0,10,0,,,,,,,,,,,AFNE16.jpg,AFSA03.jpg,AFNE04.jpg,AFSA17.jpg,AFNE04.jpg,FN,3,num_2,16,num_2,0.500194208114,,,2017_Oct_06_1832,59.9982103215,MAFE4ImagesEEG,001,101801,
AFNE01.JPG,AFNE01.JPG,AFNE01.JPG,AFNE01.JPG,AFNE01.JPG,AFNE01.JPG,,,,,,,,,,,,,1,1,11,9,,,,,,,,,,,AFSA18.jpg,AFNE11.jpg,AFSA05.jpg,AFNE18.jpg,AFSA05.jpg,FS,4,num_2,32,num_6,1.01674006804,,,2017_Oct_06_1832,59.9982103215,MAFE4ImagesEEG,001,101801,
AFNE01.JPG,AFNE01.JPG,AFNE01.JPG,AFNE01.JPG,AFNE01.JPG,AFNE01.JPG,,,,,,,,,,,,,1,2,12,4,,,,,,,,,,,AFNE01.jpg,AFSA17.jpg,AFNE12.jpg,AFSA04.jpg,AFNE12.jpg,FN,3,num_2,16,num_2,0.483158417686,,,2017_Oct_06_1832,59.9982103215,MAFE4ImagesEEG,001,101801,
AFNE01.JPG,AFNE01.JPG,AFNE01.JPG,AFNE01.JPG,AFNE01.JPG,AFNE01.JPG,,,,,,,,,,,,,1,3,13,3,,,,,,,,,,,AFSA07.jpg,AFSA15.jpg,AFNE01.jpg,AFNE13.jpg,AFNE13.jpg,FN,3,num_4,16,num_4,0.700140387926,,,2017_Oct_06_1832,59.9982103215,MAFE4ImagesEEG,001,101801,
AFNE01.JPG,AFNE01.JPG,AFNE01.JPG,AFNE01.JPG,AFNE01.JPG,AFNE01.JPG,,,,,,,,,,,,,1,4,14,6,,,,,,,,,,,AFNE12.jpg,AFSA15.jpg,AFSA03.jpg,AFNE09.jpg,AFNE12.jpg,FN,3,num_8,16,num_8,0.833449922386,,,2017_Oct_06_1832,59.9982103215,MAFE4ImagesEEG,001,101801,
AFNE01.JPG,AFNE01.JPG,AFNE01.JPG,AFNE01.JPG,AFNE01.JPG,AFNE01.JPG,,,,,,,,,,,,,1,5,15,1,,,,,,,,,,,AFSA10.jpg,AFSA16.jpg,AFNE03.jpg,AFNE19.jpg,AFSA16.jpg,FS,4,num_6,16,num_6,0.566837909806,,,2017_Oct_06_1832,59.9982103215,MAFE4ImagesEEG,001,101801,
AFNE01.JPG,AFNE01.JPG,AFNE01.JPG,AFNE01.JPG,AFNE01.JPG,AFNE01.JPG,,,,,,,,,,,,,1,6,16,5,,,,,,,,,,,AFNE16.jpg,AFNE01.jpg,AFSA06.jpg,AFSA02.jpg,AFNE16.jpg,FN,3,num_8,32,num_4,0.783477329649,,,2017_Oct_06_1832,59.9982103215,MAFE4ImagesEEG,001,101801,
AFNE01.JPG,AFNE01.JPG,AFNE01.JPG,AFNE01.JPG,AFNE01.JPG,AFNE01.JPG,,,,,,,,,,,,,1,7,17,2,,,,,,,,,,,AFSA09.jpg,AFNE20.jpg,AFSA14.jpg,AFNE01.jpg,AFNE20.jpg,FN,3,num_6,16,num_6,1.05015284871,,,2017_Oct_06_1832,59.9982103215,MAFE4ImagesEEG,001,101801,
AFNE01.JPG,AFNE01.JPG,AFNE01.JPG,AFNE01.JPG,AFNE01.JPG,AFNE01.JPG,,,,,,,,,,,,,1,8,18,7,,,,,,,,,,,AFSA17.jpg,AFNE14.jpg,AFSA18.jpg,AFNE09.jpg,AFNE09.jpg,FN,3,num_4,32,num_6,0.95013389294,,,2017_Oct_06_1832,59.9982103215,MAFE4ImagesEEG,001,101801,
AFNE01.JPG,AFNE01.JPG,AFNE01.JPG,AFNE01.JPG,AFNE01.JPG,AFNE01.JPG,,,,,,,,,,,,,1,9,19,8,,,,,,,,,,,AFNE13.jpg,AFNE01.jpg,AFSA20.jpg,AFSA15.jpg,AFSA15.jpg,FS,4,num_4,16,num_4,0.650142777478,,,2017_Oct_06_1832,59.9982103215,MAFE4ImagesEEG,001,101801,
AFNE01.JPG,AFNE01.JPG,AFNE01.JPG,AFNE01.JPG,AFNE01.JPG,AFNE01.JPG,,,,,,,,,,,,,2,0,20,1,,,,,,,,,,,AFNE16.jpg,AFSA13.jpg,AFSA11.jpg,AFNE10.jpg,AFNE16.jpg,FN,3,num_8,32,num_2,0.66675487021,,,2017_Oct_06_1832,59.9982103215,MAFE4ImagesEEG,001,101801,
AFNE01.JPG,AFNE01.JPG,AFNE01.JPG,AFNE01.JPG,AFNE01.JPG,AFNE01.JPG,,,,,,,,,,,,,2,1,21,9,,,,,,,,,,,AFNE10.jpg,AFSA06.jpg,AFSA01.jpg,AFNE13.jpg,AFNE10.jpg,FN,3,num_8,16,num_8,0.883457155083,,,2017_Oct_06_1832,59.9982103215,MAFE4ImagesEEG,001,101801,
AFNE01.JPG,AFNE01.JPG,AFNE01.JPG,AFNE01.JPG,AFNE01.JPG,AFNE01.JPG,,,,,,,,,,,,,2,2,22,8,,,,,,,,,,,AFNE07.jpg,AFNE20.jpg,AFSA15.jpg,AFSA12.jpg,AFSA12.jpg,FS,4,num_4,32,num_2,0.700130124227,,,2017_Oct_06_1832,59.9982103215,MAFE4ImagesEEG,001,101801,
AFNE01.JPG,AFNE01.JPG,AFNE01.JPG,AFNE01.JPG,AFNE01.JPG,AFNE01.JPG,,,,,,,,,,,,,2,3,23,5,,,,,,,,,,,AFNE06.jpg,AFSA10.jpg,AFNE07.jpg,AFSA06.jpg,AFNE06.jpg,FN,3,num_8,32,num_6,0.500150908192,,,2017_Oct_06_1832,59.9982103215,MAFE4ImagesEEG,001,101801,
AFNE01.JPG,AFNE01.JPG,AFNE01.JPG,AFNE01.JPG,AFNE01.JPG,AFNE01.JPG,,,,,,,,,,,,,2,4,24,7,,,,,,,,,,,AFNE03.jpg,AFSA06.jpg,AFSA08.jpg,AFNE17.jpg,AFNE17.jpg,FN,3,num_4,16,num_4,0.516779679456,,,2017_Oct_06_1832,59.9982103215,MAFE4ImagesEEG,001,101801,
AFNE01.JPG,AFNE01.JPG,AFNE01.JPG,AFNE01.JPG,AFNE01.JPG,AFNE01.JPG,,,,,,,,,,,,,2,5,25,3,,,,,,,,,,,AFSA09.jpg,AFSA01.jpg,AFNE18.jpg,AFNE17.jpg,AFSA09.jpg,FS,4,num_8,32,num_6,0.600146770652,,,2017_Oct_06_1832,59.9982103215,MAFE4ImagesEEG,001,101801,
AFNE01.JPG,AFNE01.JPG,AFNE01.JPG,AFNE01.JPG,AFNE01.JPG,AFNE01.JPG,,,,,,,,,,,,,2,6,26,4,,,,,,,,,,,AFNE09.jpg,AFSA03.jpg,AFSA20.jpg,AFNE02.jpg,AFNE02.jpg,FN,3,num_4,32,num_2,0.900126339518,,,2017_Oct_06_1832,59.9982103215,MAFE4ImagesEEG,001,101801,
AFNE01.JPG,AFNE01.JPG,AFNE01.JPG,AFNE01.JPG,AFNE01.JPG,AFNE01.JPG,,,,,,,,,,,,,2,7,27,2,,,,,,,,,,,AFSA20.jpg,AFNE03.jpg,AFNE04.jpg,AFSA16.jpg,AFNE04.jpg,FN,3,num_2,32,num_4,0.750002966844,,,2017_Oct_06_1832,59.9982103215,MAFE4ImagesEEG,001,101801,
AFNE01.JPG,AFNE01.JPG,AFNE01.JPG,AFNE01.JPG,AFNE01.JPG,AFNE01.JPG,,,,,,,,,,,,,2,8,28,0,,,,,,,,,,,AFSA14.jpg,AFNE13.jpg,AFNE06.jpg,AFSA03.jpg,AFSA03.jpg,FS,4,num_4,32,num_6,0.566831495031,,,2017_Oct_06_1832,59.9982103215,MAFE4ImagesEEG,001,101801,
AFNE01.JPG,AFNE01.JPG,AFNE01.JPG,AFNE01.JPG,AFNE01.JPG,AFNE01.JPG,,,,,,,,,,,,,2,9,29,6,,,,,,,,,,,AFNE11.jpg,AFSA17.jpg,AFNE05.jpg,AFSA12.jpg,AFNE11.jpg,FN,3,num_8,32,num_4,0.650201472861,,,2017_Oct_06_1832,59.9982103215,MAFE4ImagesEEG,001,101801,
AFNE01.JPG,AFNE01.JPG,AFNE01.JPG,AFNE01.JPG,AFNE01.JPG,AFNE01.JPG,,,,,,,,,,,,,3,0,30,1,,,,,,,,,,,AFNE01.jpg,AFNE04.jpg,AFSA10.jpg,AFSA07.jpg,AFSA07.jpg,FS,4,num_4,32,num_8,0.583516075043,,,2017_Oct_06_1832,59.9982103215,MAFE4ImagesEEG,001,101801,
AFNE01.JPG,AFNE01.JPG,AFNE01.JPG,AFNE01.JPG,AFNE01.JPG,AFNE01.JPG,,,,,,,,,,,,,3,1,31,0,,,,,,,,,,,AFNE10.jpg,AFNE09.jpg,AFSA17.jpg,AFSA08.jpg,AFSA08.jpg,FS,4,num_4,32,num_2,0.566803590627,,,2017_Oct_06_1832,59.9982103215,MAFE4ImagesEEG,001,101801,
AFNE01.JPG,AFNE01.JPG,AFNE01.JPG,AFNE01.JPG,AFNE01.JPG,AFNE01.JPG,,,,,,,,,,,,,3,2,32,7,,,,,,,,,,,AFSA09.jpg,AFNE17.jpg,AFSA04.jpg,AFNE14.jpg,AFNE14.jpg,FN,3,num_4,16,num_4,0.800060876471,,,2017_Oct_06_1832,59.9982103215,MAFE4ImagesEEG,001,101801,
AFNE01.JPG,AFNE01.JPG,AFNE01.JPG,AFNE01.JPG,AFNE01.JPG,AFNE01.JPG,,,,,,,,,,,,,3,3,33,5,,,,,,,,,,,AFSA07.jpg,AFSA15.jpg,AFNE11.jpg,AFNE07.jpg,AFNE07.jpg,FN,3,num_4,32,num_6,1.08346395474,,,2017_Oct_06_1832,59.9982103215,MAFE4ImagesEEG,001,101801,
AFNE01.JPG,AFNE01.JPG,AFNE01.JPG,AFNE01.JPG,AFNE01.JPG,AFNE01.JPG,,,,,,,,,,,,,3,4,34,8,,,,,,,,,,,AFNE17.jpg,AFSA07.jpg,AFSA11.jpg,AFNE04.jpg,AFSA11.jpg,FS,4,num_2,32,num_4,0.866733444796,,,2017_Oct_06_1832,59.9982103215,MAFE4ImagesEEG,001,101801,
AFNE01.JPG,AFNE01.JPG,AFNE01.JPG,AFNE01.JPG,AFNE01.JPG,AFNE01.JPG,,,,,,,,,,,,,3,5,35,9,,,,,,,,,,,AFNE06.jpg,AFSA10.jpg,AFSA03.jpg,AFNE01.jpg,AFSA10.jpg,FS,4,num_6,16,num_6,0.58354077203,,,2017_Oct_06_1832,59.9982103215,MAFE4ImagesEEG,001,101801,
AFNE01.JPG,AFNE01.JPG,AFNE01.JPG,AFNE01.JPG,AFNE01.JPG,AFNE01.JPG,,,,,,,,,,,,,3,6,36,6,,,,,,,,,,,AFNE01.jpg,AFSA14.jpg,AFSA07.jpg,AFNE17.jpg,AFNE17.jpg,FN,3,num_4,16,num_4,0.55016519723,,,2017_Oct_06_1832,59.9982103215,MAFE4ImagesEEG,001,101801,
AFNE01.JPG,AFNE01.JPG,AFNE01.JPG,AFNE01.JPG,AFNE01.JPG,AFNE01.JPG,,,,,,,,,,,,,3,7,37,3,,,,,,,,,,,AFNE14.jpg,AFSA14.jpg,AFNE11.jpg,AFSA17.jpg,AFNE11.jpg,FN,3,num_2,32,num_4,0.666821263381,,,2017_Oct_06_1832,59.9982103215,MAFE4ImagesEEG,001,101801,
AFNE01.JPG,AFNE01.JPG,AFNE01.JPG,AFNE01.JPG,AFNE01.JPG,AFNE01.JPG,,,,,,,,,,,,,3,8,38,4,,,,,,,,,,,AFNE01.jpg,AFSA12.jpg,AFNE04.jpg,AFSA09.jpg,AFSA12.jpg,FS,4,num_6,32,num_8,0.683482750086,,,2017_Oct_06_1832,59.9982103215,MAFE4ImagesEEG,001,101801,
AFNE01.JPG,AFNE01.JPG,AFNE01.JPG,AFNE01.JPG,AFNE01.JPG,AFNE01.JPG,,,,,,,,,,,,,3,9,39,2,,,,,,,,,,,AFNE13.jpg,AFSA06.jpg,AFSA11.jpg,AFNE14.jpg,AFNE13.jpg,FN,3,num_8,32,num_6,1.08342803188,,,2017_Oct_06_1832,59.9982103215,MAFE4ImagesEEG,001,101801,
AFNE01.JPG,AFNE01.JPG,AFNE01.JPG,AFNE01.JPG,AFNE01.JPG,AFNE01.JPG,,,,,,,,,,,,,4,0,40,2,,,,,,,,,,,AFSA01.jpg,AFNE05.jpg,AFSA10.jpg,AFNE13.jpg,AFNE13.jpg,FN,3,num_4,16,num_4,0.716785516881,,,2017_Oct_06_1832,59.9982103215,MAFE4ImagesEEG,001,101801,
AFNE01.JPG,AFNE01.JPG,AFNE01.JPG,AFNE01.JPG,AFNE01.JPG,AFNE01.JPG,,,,,,,,,,,,,4,1,41,5,,,,,,,,,,,AFNE13.jpg,AFSA19.jpg,AFNE01.jpg,AFSA05.jpg,AFNE13.jpg,FN,3,num_8,32,num_6,1.30009856343,,,2017_Oct_06_1832,59.9982103215,MAFE4ImagesEEG,001,101801,
AFNE01.JPG,AFNE01.JPG,AFNE01.JPG,AFNE01.JPG,AFNE01.JPG,AFNE01.JPG,,,,,,,,,,,,,4,2,42,3,,,,,,,,,,,AFNE13.jpg,AFNE14.jpg,AFSA02.jpg,AFSA03.jpg,AFNE14.jpg,FN,3,num_6,32,num_4,0.850116540911,,,2017_Oct_06_1832,59.9982103215,MAFE4ImagesEEG,001,101801,
AFNE01.JPG,AFNE01.JPG,AFNE01.JPG,AFNE01.JPG,AFNE01.JPG,AFNE01.JPG,,,,,,,,,,,,,4,3,43,8,,,,,,,,,,,AFNE03.jpg,AFSA08.jpg,AFNE15.jpg,AFSA04.jpg,AFNE03.jpg,FN,3,num_8,32,num_6,0.900136603217,,,2017_Oct_06_1832,59.9982103215,MAFE4ImagesEEG,001,101801,
AFNE01.JPG,AFNE01.JPG,AFNE01.JPG,AFNE01.JPG,AFNE01.JPG,AFNE01.JPG,,,,,,,,,,,,,4,4,44,9,,,,,,,,,,,AFSA18.jpg,AFSA09.jpg,AFNE16.jpg,AFNE14.jpg,AFSA09.jpg,FS,4,num_6,32,num_4,0.85009922093,,,2017_Oct_06_1832,59.9982103215,MAFE4ImagesEEG,001,101801,
AFNE01.JPG,AFNE01.JPG,AFNE01.JPG,AFNE01.JPG,AFNE01.JPG,AFNE01.JPG,,,,,,,,,,,,,4,5,45,6,,,,,,,,,,,AFSA20.jpg,AFSA01.jpg,AFNE15.jpg,AFNE09.jpg,AFNE09.jpg,FN,3,num_4,16,num_4,0.733475228772,,,2017_Oct_06_1832,59.9982103215,MAFE4ImagesEEG,001,101801,
AFNE01.JPG,AFNE01.JPG,AFNE01.JPG,AFNE01.JPG,AFNE01.JPG,AFNE01.JPG,,,,,,,,,,,,,4,6,46,4,,,,,,,,,,,AFSA19.jpg,AFSA06.jpg,AFNE13.jpg,AFNE05.jpg,AFNE05.jpg,FN,3,num_4,16,num_4,0.783336524677,,,2017_Oct_06_1832,59.9982103215,MAFE4ImagesEEG,001,101801,
AFNE01.JPG,AFNE01.JPG,AFNE01.JPG,AFNE01.JPG,AFNE01.JPG,AFNE01.JPG,,,,,,,,,,,,,4,7,47,1,,,,,,,,,,,AFSA12.jpg,AFSA14.jpg,AFNE14.jpg,AFNE18.jpg,AFNE18.jpg,FN,3,num_4,16,num_4,0.816532485012,,,2017_Oct_06_1832,59.9982103215,MAFE4ImagesEEG,001,101801,
AFNE01.JPG,AFNE01.JPG,AFNE01.JPG,AFNE01.JPG,AFNE01.JPG,AFNE01.JPG,,,,,,,,,,,,,4,8,48,7,,,,,,,,,,,AFNE04.jpg,AFSA20.jpg,AFSA06.jpg,AFNE08.jpg,AFSA06.jpg,FS,4,num_2,32,num_6,0.983491185587,,,2017_Oct_06_1832,59.9982103215,MAFE4ImagesEEG,001,101801,
AFNE01.JPG,AFNE01.JPG,AFNE01.JPG,AFNE01.JPG,AFNE01.JPG,AFNE01.JPG,,,,,,,,,,,,,4,9,49,0,,,,,,,,,,,AFSA04.jpg,AFSA02.jpg,AFNE01.jpg,AFNE17.jpg,AFSA04.jpg,FS,4,num_8,32,num_4,0.583525055728,,,2017_Oct_06_1832,59.9982103215,MAFE4ImagesEEG,001,101801,
AFNE01.JPG,AFNE01.JPG,AFNE01.JPG,AFNE01.JPG,AFNE01.JPG,AFNE01.JPG,,,,,,,,,,,,,5,0,50,2,,,,,,,,,,,AFNE07.jpg,AFSA17.jpg,AFSA11.jpg,AFNE08.jpg,AFNE08.jpg,FN,3,num_4,32,num_2,0.866808177205,,,2017_Oct_06_1832,59.9982103215,MAFE4ImagesEEG,001,101801,
AFNE01.JPG,AFNE01.JPG,AFNE01.JPG,AFNE01.JPG,AFNE01.JPG,AFNE01.JPG,,,,,,,,,,,,,5,1,51,7,,,,,,,,,,,AFNE19.jpg,AFSA14.jpg,AFNE05.jpg,AFSA15.jpg,AFSA14.jpg,FS,4,num_6,16,num_6,0.733500246482,,,2017_Oct_06_1832,59.9982103215,MAFE4ImagesEEG,001,101801,
AFNE01.JPG,AFNE01.JPG,AFNE01.JPG,AFNE01.JPG,AFNE01.JPG,AFNE01.JPG,,,,,,,,,,,,,5,2,52,3,,,,,,,,,,,AFNE14.jpg,AFSA01.jpg,AFSA19.jpg,AFNE17.jpg,AFNE17.jpg,FN,3,num_4,32,num_6,1.61668958352,,,2017_Oct_06_1832,59.9982103215,MAFE4ImagesEEG,001,101801,
AFNE01.JPG,AFNE01.JPG,AFNE01.JPG,AFNE01.JPG,AFNE01.JPG,AFNE01.JPG,,,,,,,,,,,,,5,3,53,9,,,,,,,,,,,AFNE09.jpg,AFNE18.jpg,AFSA20.jpg,AFSA11.jpg,AFNE18.jpg,FN,3,num_6,32,num_4,0.750252502679,,,2017_Oct_06_1832,59.9982103215,MAFE4ImagesEEG,001,101801,
AFNE01.JPG,AFNE01.JPG,AFNE01.JPG,AFNE01.JPG,AFNE01.JPG,AFNE01.JPG,,,,,,,,,,,,,5,4,54,4,,,,,,,,,,,AFSA14.jpg,AFNE09.jpg,AFNE01.jpg,AFSA09.jpg,AFNE09.jpg,FN,3,num_6,16,num_6,0.650147588574,,,2017_Oct_06_1832,59.9982103215,MAFE4ImagesEEG,001,101801,
AFNE01.JPG,AFNE01.JPG,AFNE01.JPG,AFNE01.JPG,AFNE01.JPG,AFNE01.JPG,,,,,,,,,,,,,5,5,55,6,,,,,,,,,,,AFSA10.jpg,AFSA09.jpg,AFNE11.jpg,AFNE03.jpg,AFNE03.jpg,FN,3,num_4,16,num_4,0.61682333221,,,2017_Oct_06_1832,59.9982103215,MAFE4ImagesEEG,001,101801,
AFNE01.JPG,AFNE01.JPG,AFNE01.JPG,AFNE01.JPG,AFNE01.JPG,AFNE01.JPG,,,,,,,,,,,,,5,6,56,1,,,,,,,,,,,AFNE01.jpg,AFSA11.jpg,AFSA14.jpg,AFNE16.jpg,AFSA11.jpg,FS,4,num_6,16,num_6,0.633478724863,,,2017_Oct_06_1832,59.9982103215,MAFE4ImagesEEG,001,101801,
AFNE01.JPG,AFNE01.JPG,AFNE01.JPG,AFNE01.JPG,AFNE01.JPG,AFNE01.JPG,,,,,,,,,,,,,5,7,57,0,,,,,,,,,,,AFNE10.jpg,AFNE05.jpg,AFSA03.jpg,AFSA19.jpg,AFSA03.jpg,FS,4,num_2,32,num_4,0.633465574472,,,2017_Oct_06_1832,59.9982103215,MAFE4ImagesEEG,001,101801,
AFNE01.JPG,AFNE01.JPG,AFNE01.JPG,AFNE01.JPG,AFNE01.JPG,AFNE01.JPG,,,,,,,,,,,,,5,8,58,5,,,,,,,,,,,AFSA02.jpg,AFNE01.jpg,AFSA01.jpg,AFNE14.jpg,AFNE01.jpg,FN,3,num_6,32,num_8,0.80013496743,,,2017_Oct_06_1832,59.9982103215,MAFE4ImagesEEG,001,101801,
AFNE01.JPG,AFNE01.JPG,AFNE01.JPG,AFNE01.JPG,AFNE01.JPG,AFNE01.JPG,,,,,,,,,,,,,5,9,59,8,,,,,,,,,,,AFNE18.jpg,AFSA08.jpg,AFNE07.jpg,AFSA02.jpg,AFSA02.jpg,FS,4,num_4,32,num_6,0.866823893448,,,2017_Oct_06_1832,59.9982103215,MAFE4ImagesEEG,001,101801,
,,,,,,,,,,,,,,,,,,,,,,,,,,,,,,,,,,,,,,,,,,,space,6.21623175911,2017_Oct_06_1832,59.9982103215,MAFE4ImagesEEG,001,101801,
AFNE01.JPG,AFNE01.JPG,AFNE01.JPG,AFNE01.JPG,AFNE01.JPG,AFNE01.JPG,,,,,,,,,,,,,,,,,0,0,0,2,,,,,,,AMNE04.jpg,AMNE11.jpg,AMSA04.jpg,AMSA01.jpg,AMNE04.jpg,MN,1,num_8,16,num_8,0.666772831697,,,2017_Oct_06_1832,59.9982103215,MAFE4ImagesEEG,001,101801,
AFNE01.JPG,AFNE01.JPG,AFNE01.JPG,AFNE01.JPG,AFNE01.JPG,AFNE01.JPG,,,,,,,,,,,,,,,,,0,1,1,9,,,,,,,AMSA10.jpg,AMNE03.jpg,AMNE10.jpg,AMSA12.jpg,AMSA10.jpg,MS,2,num_8,32,num_2,0.666782453831,,,2017_Oct_06_1832,59.9982103215,MAFE4ImagesEEG,001,101801,
AFNE01.JPG,AFNE01.JPG,AFNE01.JPG,AFNE01.JPG,AFNE01.JPG,AFNE01.JPG,,,,,,,,,,,,,,,,,0,2,2,6,,,,,,,AMNE04.jpg,AMNE12.jpg,AMSA16.jpg,AMSA02.jpg,AMSA16.jpg,MS,2,num_2,32,num_4,0.416864964238,,,2017_Oct_06_1832,59.9982103215,MAFE4ImagesEEG,001,101801,
AFNE01.JPG,AFNE01.JPG,AFNE01.JPG,AFNE01.JPG,AFNE01.JPG,AFNE01.JPG,,,,,,,,,,,,,,,,,0,3,3,0,,,,,,,AMNE18.jpg,AMSA01.jpg,AMNE20.jpg,AMSA15.jpg,AMNE20.jpg,MN,1,num_2,32,num_8,0.650123853819,,,2017_Oct_06_1832,59.9982103215,MAFE4ImagesEEG,001,101801,
AFNE01.JPG,AFNE01.JPG,AFNE01.JPG,AFNE01.JPG,AFNE01.JPG,AFNE01.JPG,,,,,,,,,,,,,,,,,0,4,4,4,,,,,,,AMNE13.jpg,AMSA16.jpg,AMSA19.jpg,AMNE12.jpg,AMNE12.jpg,MN,1,num_4,32,num_2,0.966765230114,,,2017_Oct_06_1832,59.9982103215,MAFE4ImagesEEG,001,101801,
AFNE01.JPG,AFNE01.JPG,AFNE01.JPG,AFNE01.JPG,AFNE01.JPG,AFNE01.JPG,,,,,,,,,,,,,,,,,0,5,5,7,,,,,,,AMNE10.jpg,AMSA18.jpg,AMSA11.jpg,AMNE18.jpg,AMSA11.jpg,MS,2,num_2,32,num_4,0.400156008021,,,2017_Oct_06_1832,59.9982103215,MAFE4ImagesEEG,001,101801,
AFNE01.JPG,AFNE01.JPG,AFNE01.JPG,AFNE01.JPG,AFNE01.JPG,AFNE01.JPG,,,,,,,,,,,,,,,,,0,6,6,1,,,,,,,AMSA07.jpg,AMSA15.jpg,AMNE01.jpg,AMNE15.jpg,AMNE01.jpg,MN,1,num_2,16,num_2,0.683498787112,,,2017_Oct_06_1832,59.9982103215,MAFE4ImagesEEG,001,101801,
AFNE01.JPG,AFNE01.JPG,AFNE01.JPG,AFNE01.JPG,AFNE01.JPG,AFNE01.JPG,,,,,,,,,,,,,,,,,0,7,7,3,,,,,,,AMNE20.jpg,AMSA07.jpg,AMNE02.jpg,AMSA18.jpg,AMNE02.jpg,MN,1,num_2,32,num_4,0.483506741468,,,2017_Oct_06_1832,59.9982103215,MAFE4ImagesEEG,001,101801,
AFNE01.JPG,AFNE01.JPG,AFNE01.JPG,AFNE01.JPG,AFNE01.JPG,AFNE01.JPG,,,,,,,,,,,,,,,,,0,8,8,5,,,,,,,AMNE10.jpg,AMSA06.jpg,AMNE14.jpg,AMSA20.jpg,AMNE10.jpg,MN,1,num_8,32,num_6,0.500265091716,,,2017_Oct_06_1832,59.9982103215,MAFE4ImagesEEG,001,101801,
AFNE01.JPG,AFNE01.JPG,AFNE01.JPG,AFNE01.JPG,AFNE01.JPG,AFNE01.JPG,,,,,,,,,,,,,,,,,0,9,9,8,,,,,,,AMSA11.jpg,AMNE14.jpg,AMSA16.jpg,AMNE15.jpg,AMSA11.jpg,MS,2,num_8,32,num_4,1.08316021384,,,2017_Oct_06_1832,59.9982103215,MAFE4ImagesEEG,001,101801,
AFNE01.JPG,AFNE01.JPG,AFNE01.JPG,AFNE01.JPG,AFNE01.JPG,AFNE01.JPG,,,,,,,,,,,,,,,,,1,0,10,1,,,,,,,AMNE17.jpg,AMSA12.jpg,AMNE13.jpg,AMSA18.jpg,AMSA12.jpg,MS,2,num_6,32,num_4,0.750148582854,,,2017_Oct_06_1832,59.9982103215,MAFE4ImagesEEG,001,101801,
AFNE01.JPG,AFNE01.JPG,AFNE01.JPG,AFNE01.JPG,AFNE01.JPG,AFNE01.JPG,,,,,,,,,,,,,,,,,1,1,11,2,,,,,,,AMSA11.jpg,AMNE10.jpg,AMNE14.jpg,AMSA14.jpg,AMSA11.jpg,MS,2,num_8,32,num_6,0.783436595637,,,2017_Oct_06_1832,59.9982103215,MAFE4ImagesEEG,001,101801,
AFNE01.JPG,AFNE01.JPG,AFNE01.JPG,AFNE01.JPG,AFNE01.JPG,AFNE01.JPG,,,,,,,,,,,,,,,,,1,2,12,6,,,,,,,AMSA19.jpg,AMSA05.jpg,AMNE17.jpg,AMNE07.jpg,AMNE17.jpg,MN,1,num_2,16,num_2,0.566828608396,,,2017_Oct_06_1832,59.9982103215,MAFE4ImagesEEG,001,101801,
AFNE01.JPG,AFNE01.JPG,AFNE01.JPG,AFNE01.JPG,AFNE01.JPG,AFNE01.JPG,,,,,,,,,,,,,,,,,1,3,13,7,,,,,,,AMNE19.jpg,AMSA06.jpg,AMSA01.jpg,AMNE07.jpg,AMSA06.jpg,MS,2,num_6,32,num_4,0.6501309101,,,2017_Oct_06_1832,59.9982103215,MAFE4ImagesEEG,001,101801,
AFNE01.JPG,AFNE01.JPG,AFNE01.JPG,AFNE01.JPG,AFNE01.JPG,AFNE01.JPG,,,,,,,,,,,,,,,,,1,4,14,0,,,,,,,AMNE05.jpg,AMSA02.jpg,AMNE20.jpg,AMSA19.jpg,AMNE20.jpg,MN,1,num_2,32,num_4,1.0501624709,,,2017_Oct_06_1832,59.9982103215,MAFE4ImagesEEG,001,101801,
AFNE01.JPG,AFNE01.JPG,AFNE01.JPG,AFNE01.JPG,AFNE01.JPG,AFNE01.JPG,,,,,,,,,,,,,,,,,1,5,15,5,,,,,,,AMSA04.jpg,AMNE11.jpg,AMSA07.jpg,AMNE13.jpg,AMSA04.jpg,MS,2,num_8,16,num_8,0.566797175852,,,2017_Oct_06_1832,59.9982103215,MAFE4ImagesEEG,001,101801,
AFNE01.JPG,AFNE01.JPG,AFNE01.JPG,AFNE01.JPG,AFNE01.JPG,AFNE01.JPG,,,,,,,,,,,,,,,,,1,6,16,3,,,,,,,AMNE09.jpg,AMSA18.jpg,AMNE15.jpg,AMSA03.jpg,AMNE09.jpg,MN,1,num_8,32,num_2,0.833451526065,,,2017_Oct_06_1832,59.9982103215,MAFE4ImagesEEG,001,101801,
AFNE01.JPG,AFNE01.JPG,AFNE01.JPG,AFNE01.JPG,AFNE01.JPG,AFNE01.JPG,,,,,,,,,,,,,,,,,1,7,17,8,,,,,,,AMNE19.jpg,AMSA16.jpg,AMSA02.jpg,AMNE14.jpg,AMNE14.jpg,MN,1,num_4,16,num_4,0.583526980132,,,2017_Oct_06_1832,59.9982103215,MAFE4ImagesEEG,001,101801,
AFNE01.JPG,AFNE01.JPG,AFNE01.JPG,AFNE01.JPG,AFNE01.JPG,AFNE01.JPG,,,,,,,,,,,,,,,,,1,8,18,4,,,,,,,AMSA06.jpg,AMNE04.jpg,AMNE02.jpg,AMSA09.jpg,AMSA06.jpg,MS,2,num_8,16,num_8,0.833451846847,,,2017_Oct_06_1832,59.9982103215,MAFE4ImagesEEG,001,101801,
AFNE01.JPG,AFNE01.JPG,AFNE01.JPG,AFNE01.JPG,AFNE01.JPG,AFNE01.JPG,,,,,,,,,,,,,,,,,1,9,19,9,,,,,,,AMNE03.jpg,AMSA02.jpg,AMNE18.jpg,AMSA10.jpg,AMSA02.jpg,MS,2,num_6,16,num_6,0.450184409507,,,2017_Oct_06_1832,59.9982103215,MAFE4ImagesEEG,001,101801,
AFNE01.JPG,AFNE01.JPG,AFNE01.JPG,AFNE01.JPG,AFNE01.JPG,AFNE01.JPG,,,,,,,,,,,,,,,,,2,0,20,0,,,,,,,AMNE15.jpg,AMSA10.jpg,AMSA04.jpg,AMNE01.jpg,AMSA04.jpg,MS,2,num_2,16,num_2,0.400170120585,,,2017_Oct_06_1832,59.9982103215,MAFE4ImagesEEG,001,101801,
AFNE01.JPG,AFNE01.JPG,AFNE01.JPG,AFNE01.JPG,AFNE01.JPG,AFNE01.JPG,,,,,,,,,,,,,,,,,2,1,21,6,,,,,,,AMSA17.jpg,AMSA09.jpg,AMNE04.jpg,AMNE05.jpg,AMNE04.jpg,MN,1,num_2,16,num_2,0.566841437947,,,2017_Oct_06_1832,59.9982103215,MAFE4ImagesEEG,001,101801,
AFNE01.JPG,AFNE01.JPG,AFNE01.JPG,AFNE01.JPG,AFNE01.JPG,AFNE01.JPG,,,,,,,,,,,,,,,,,2,2,22,3,,,,,,,AMSA18.jpg,AMNE11.jpg,AMSA07.jpg,AMNE15.jpg,AMSA07.jpg,MS,2,num_2,32,num_4,0.600126243313,,,2017_Oct_06_1832,59.9982103215,MAFE4ImagesEEG,001,101801,
AFNE01.JPG,AFNE01.JPG,AFNE01.JPG,AFNE01.JPG,AFNE01.JPG,AFNE01.JPG,,,,,,,,,,,,,,,,,2,3,23,2,,,,,,,AMNE20.jpg,AMNE15.jpg,AMSA10.jpg,AMSA19.jpg,AMNE20.jpg,MN,1,num_8,16,num_8,0.666782774613,,,2017_Oct_06_1832,59.9982103215,MAFE4ImagesEEG,001,101801,
AFNE01.JPG,AFNE01.JPG,AFNE01.JPG,AFNE01.JPG,AFNE01.JPG,AFNE01.JPG,,,,,,,,,,,,,,,,,2,4,24,5,,,,,,,AMNE05.jpg,AMSA04.jpg,AMNE02.jpg,AMSA20.jpg,AMSA04.jpg,MS,2,num_6,32,num_2,0.416794722143,,,2017_Oct_06_1832,59.9982103215,MAFE4ImagesEEG,001,101801,
AFNE01.JPG,AFNE01.JPG,AFNE01.JPG,AFNE01.JPG,AFNE01.JPG,AFNE01.JPG,,,,,,,,,,,,,,,,,2,5,25,7,,,,,,,AMNE17.jpg,AMSA11.jpg,AMSA07.jpg,AMNE01.jpg,AMSA07.jpg,MS,2,num_2,32,num_4,0.56681417505,,,2017_Oct_06_1832,59.9982103215,MAFE4ImagesEEG,001,101801,
AFNE01.JPG,AFNE01.JPG,AFNE01.JPG,AFNE01.JPG,AFNE01.JPG,AFNE01.JPG,,,,,,,,,,,,,,,,,2,6,26,1,,,,,,,AMNE19.jpg,AMSA02.jpg,AMSA07.jpg,AMNE16.jpg,AMNE19.jpg,MN,1,num_8,16,num_8,0.550157499441,,,2017_Oct_06_1832,59.9982103215,MAFE4ImagesEEG,001,101801,
AFNE01.JPG,AFNE01.JPG,AFNE01.JPG,AFNE01.JPG,AFNE01.JPG,AFNE01.JPG,,,,,,,,,,,,,,,,,2,7,27,9,,,,,,,AMSA10.jpg,AMNE10.jpg,AMSA04.jpg,AMNE02.jpg,AMNE10.jpg,MN,1,num_6,32,num_8,0.833442224597,,,2017_Oct_06_1832,59.9982103215,MAFE4ImagesEEG,001,101801,
AFNE01.JPG,AFNE01.JPG,AFNE01.JPG,AFNE01.JPG,AFNE01.JPG,AFNE01.JPG,,,,,,,,,,,,,,,,,2,8,28,4,,,,,,,AMSA04.jpg,AMNE09.jpg,AMNE14.jpg,AMSA06.jpg,AMNE14.jpg,MN,1,num_2,16,num_2,0.600138110691,,,2017_Oct_06_1832,59.9982103215,MAFE4ImagesEEG,001,101801,
AFNE01.JPG,AFNE01.JPG,AFNE01.JPG,AFNE01.JPG,AFNE01.JPG,AFNE01.JPG,,,,,,,,,,,,,,,,,2,9,29,8,,,,,,,AMNE01.jpg,AMSA18.jpg,AMNE03.jpg,AMSA17.jpg,AMSA17.jpg,MS,2,num_4,32,num_8,0.833477185282,,,2017_Oct_06_1832,59.9982103215,MAFE4ImagesEEG,001,101801,
AFNE01.JPG,AFNE01.JPG,AFNE01.JPG,AFNE01.JPG,AFNE01.JPG,AFNE01.JPG,,,,,,,,,,,,,,,,,3,0,30,7,,,,,,,AMSA14.jpg,AMNE07.jpg,AMSA10.jpg,AMNE20.jpg,AMNE20.jpg,MN,1,num_4,16,num_4,0.516854732647,,,2017_Oct_06_1832,59.9982103215,MAFE4ImagesEEG,001,101801,
AFNE01.JPG,AFNE01.JPG,AFNE01.JPG,AFNE01.JPG,AFNE01.JPG,AFNE01.JPG,,,,,,,,,,,,,,,,,3,1,31,1,,,,,,,AMNE05.jpg,AMNE10.jpg,AMSA09.jpg,AMSA04.jpg,AMNE10.jpg,MN,1,num_6,32,num_8,1.23353825416,,,2017_Oct_06_1832,59.9982103215,MAFE4ImagesEEG,001,101801,
AFNE01.JPG,AFNE01.JPG,AFNE01.JPG,AFNE01.JPG,AFNE01.JPG,AFNE01.JPG,,,,,,,,,,,,,,,,,3,2,32,9,,,,,,,AMNE15.jpg,AMNE09.jpg,AMSA13.jpg,AMSA12.jpg,AMNE09.jpg,MN,1,num_6,32,num_8,0.833421697258,,,2017_Oct_06_1832,59.9982103215,MAFE4ImagesEEG,001,101801,
AFNE01.JPG,AFNE01.JPG,AFNE01.JPG,AFNE01.JPG,AFNE01.JPG,AFNE01.JPG,,,,,,,,,,,,,,,,,3,3,33,6,,,,,,,AMNE20.jpg,AMSA01.jpg,AMSA15.jpg,AMNE18.jpg,AMNE18.jpg,MN,1,num_4,32,num_8,0.716786479112,,,2017_Oct_06_1832,59.9982103215,MAFE4ImagesEEG,001,101801,
AFNE01.JPG,AFNE01.JPG,AFNE01.JPG,AFNE01.JPG,AFNE01.JPG,AFNE01.JPG,,,,,,,,,,,,,,,,,3,4,34,0,,,,,,,AMSA11.jpg,AMNE03.jpg,AMSA03.jpg,AMNE16.jpg,AMSA11.jpg,MS,2,num_8,32,num_2,0.516800527519,,,2017_Oct_06_1832,59.9982103215,MAFE4ImagesEEG,001,101801,
AFNE01.JPG,AFNE01.JPG,AFNE01.JPG,AFNE01.JPG,AFNE01.JPG,AFNE01.JPG,,,,,,,,,,,,,,,,,3,5,35,3,,,,,,,AMNE17.jpg,AMSA02.jpg,AMNE18.jpg,AMSA18.jpg,AMNE18.jpg,MN,1,num_2,32,num_8,0.600137469184,,,2017_Oct_06_1832,59.9982103215,MAFE4ImagesEEG,001,101801,
AFNE01.JPG,AFNE01.JPG,AFNE01.JPG,AFNE01.JPG,AFNE01.JPG,AFNE01.JPG,,,,,,,,,,,,,,,,,3,6,36,4,,,,,,,AMNE10.jpg,AMSA12.jpg,AMSA18.jpg,AMNE05.jpg,AMSA18.jpg,MS,2,num_2,16,num_2,0.350184056675,,,2017_Oct_06_1832,59.9982103215,MAFE4ImagesEEG,001,101801,
AFNE01.JPG,AFNE01.JPG,AFNE01.JPG,AFNE01.JPG,AFNE01.JPG,AFNE01.JPG,,,,,,,,,,,,,,,,,3,7,37,5,,,,,,,AMSA19.jpg,AMNE04.jpg,AMNE09.jpg,AMSA20.jpg,AMNE04.jpg,MN,1,num_6,32,num_4,0.649985614815,,,2017_Oct_06_1832,59.9982103215,MAFE4ImagesEEG,001,101801,
AFNE01.JPG,AFNE01.JPG,AFNE01.JPG,AFNE01.JPG,AFNE01.JPG,AFNE01.JPG,,,,,,,,,,,,,,,,,3,8,38,2,,,,,,,AMSA14.jpg,AMNE20.jpg,AMNE01.jpg,AMSA08.jpg,AMNE01.jpg,MN,1,num_2,16,num_2,0.583477265434,,,2017_Oct_06_1832,59.9982103215,MAFE4ImagesEEG,001,101801,
AFNE01.JPG,AFNE01.JPG,AFNE01.JPG,AFNE01.JPG,AFNE01.JPG,AFNE01.JPG,,,,,,,,,,,,,,,,,3,9,39,8,,,,,,,AMNE02.jpg,AMSA19.jpg,AMNE04.jpg,AMSA14.jpg,AMNE02.jpg,MN,1,num_8,16,num_8,0.733457267343,,,2017_Oct_06_1832,59.9982103215,MAFE4ImagesEEG,001,101801,
AFNE01.JPG,AFNE01.JPG,AFNE01.JPG,AFNE01.JPG,AFNE01.JPG,AFNE01.JPG,,,,,,,,,,,,,,,,,4,0,40,7,,,,,,,AMNE10.jpg,AMSA20.jpg,AMNE14.jpg,AMSA02.jpg,AMSA02.jpg,MS,2,num_4,16,num_4,1.11676640081,,,2017_Oct_06_1832,59.9982103215,MAFE4ImagesEEG,001,101801,
AFNE01.JPG,AFNE01.JPG,AFNE01.JPG,AFNE01.JPG,AFNE01.JPG,AFNE01.JPG,,,,,,,,,,,,,,,,,4,1,41,8,,,,,,,AMSA17.jpg,AMSA11.jpg,AMNE07.jpg,AMNE11.jpg,AMSA11.jpg,MS,2,num_6,16,num_6,0.616752769332,,,2017_Oct_06_1832,59.9982103215,MAFE4ImagesEEG,001,101801,
AFNE01.JPG,AFNE01.JPG,AFNE01.JPG,AFNE01.JPG,AFNE01.JPG,AFNE01.JPG,,,,,,,,,,,,,,,,,4,2,42,4,,,,,,,AMSA15.jpg,AMSA20.jpg,AMNE17.jpg,AMNE03.jpg,AMSA15.jpg,MS,2,num_8,16,num_8,0.55045033514,,,2017_Oct_06_1832,59.9982103215,MAFE4ImagesEEG,001,101801,
AFNE01.JPG,AFNE01.JPG,AFNE01.JPG,AFNE01.JPG,AFNE01.JPG,AFNE01.JPG,,,,,,,,,,,,,,,,,4,3,43,6,,,,,,,AMNE15.jpg,AMSA08.jpg,AMNE11.jpg,AMSA05.jpg,AMSA05.jpg,MS,2,num_4,16,num_4,0.733493831707,,,2017_Oct_06_1832,59.9982103215,MAFE4ImagesEEG,001,101801,
AFNE01.JPG,AFNE01.JPG,AFNE01.JPG,AFNE01.JPG,AFNE01.JPG,AFNE01.JPG,,,,,,,,,,,,,,,,,4,4,44,3,,,,,,,AMNE18.jpg,AMNE01.jpg,AMSA17.jpg,AMSA20.jpg,AMNE18.jpg,MN,1,num_8,16,num_8,0.750132225163,,,2017_Oct_06_1832,59.9982103215,MAFE4ImagesEEG,001,101801,
AFNE01.JPG,AFNE01.JPG,AFNE01.JPG,AFNE01.JPG,AFNE01.JPG,AFNE01.JPG,,,,,,,,,,,,,,,,,4,5,45,2,,,,,,,AMSA03.jpg,AMNE13.jpg,AMSA08.jpg,AMNE11.jpg,AMNE13.jpg,MN,1,num_6,32,num_2,1.03343362879,,,2017_Oct_06_1832,59.9982103215,MAFE4ImagesEEG,001,101801,
AFNE01.JPG,AFNE01.JPG,AFNE01.JPG,AFNE01.JPG,AFNE01.JPG,AFNE01.JPG,,,,,,,,,,,,,,,,,4,6,46,9,,,,,,,AMNE12.jpg,AMSA16.jpg,AMNE04.jpg,AMSA04.jpg,AMNE04.jpg,MN,1,num_2,16,num_2,1.31684151816,,,2017_Oct_06_1832,59.9982103215,MAFE4ImagesEEG,001,101801,
AFNE01.JPG,AFNE01.JPG,AFNE01.JPG,AFNE01.JPG,AFNE01.JPG,AFNE01.JPG,,,,,,,,,,,,,,,,,4,7,47,0,,,,,,,AMSA19.jpg,AMSA08.jpg,AMNE02.jpg,AMNE03.jpg,AMSA08.jpg,MS,2,num_6,16,num_6,0.683451959048,,,2017_Oct_06_1832,59.9982103215,MAFE4ImagesEEG,001,101801,
AFNE01.JPG,AFNE01.JPG,AFNE01.JPG,AFNE01.JPG,AFNE01.JPG,AFNE01.JPG,,,,,,,,,,,,,,,,,4,8,48,5,,,,,,,AMSA08.jpg,AMNE20.jpg,AMNE13.jpg,AMSA14.jpg,AMNE13.jpg,MN,1,num_2,32,num_6,0.600190391357,,,2017_Oct_06_1832,59.9982103215,MAFE4ImagesEEG,001,101801,
AFNE01.JPG,AFNE01.JPG,AFNE01.JPG,AFNE01.JPG,AFNE01.JPG,AFNE01.JPG,,,,,,,,,,,,,,,,,4,9,49,1,,,,,,,AMSA18.jpg,AMNE05.jpg,AMSA04.jpg,AMNE13.jpg,AMSA18.jpg,MS,2,num_8,16,num_8,0.650209491374,,,2017_Oct_06_1832,59.9982103215,MAFE4ImagesEEG,001,101801,
AFNE01.JPG,AFNE01.JPG,AFNE01.JPG,AFNE01.JPG,AFNE01.JPG,AFNE01.JPG,,,,,,,,,,,,,,,,,5,0,50,8,,,,,,,AMNE11.jpg,AMSA12.jpg,AMSA04.jpg,AMNE16.jpg,AMSA12.jpg,MS,2,num_6,16,num_6,0.683486919792,,,2017_Oct_06_1832,59.9982103215,MAFE4ImagesEEG,001,101801,
AFNE01.JPG,AFNE01.JPG,AFNE01.JPG,AFNE01.JPG,AFNE01.JPG,AFNE01.JPG,,,,,,,,,,,,,,,,,5,1,51,0,,,,,,,AMSA03.jpg,AMNE19.jpg,AMNE04.jpg,AMSA15.jpg,AMNE19.jpg,MN,1,num_6,32,num_4,1.18347874086,,,2017_Oct_06_1832,59.9982103215,MAFE4ImagesEEG,001,101801,
AFNE01.JPG,AFNE01.JPG,AFNE01.JPG,AFNE01.JPG,AFNE01.JPG,AFNE01.JPG,,,,,,,,,,,,,,,,,5,2,52,4,,,,,,,AMNE10.jpg,AMSA20.jpg,AMNE07.jpg,AMSA13.jpg,AMSA20.jpg,MS,2,num_6,32,num_8,2.55000867607,,,2017_Oct_06_1832,59.9982103215,MAFE4ImagesEEG,001,101801,
AFNE01.JPG,AFNE01.JPG,AFNE01.JPG,AFNE01.JPG,AFNE01.JPG,AFNE01.JPG,,,,,,,,,,,,,,,,,5,3,53,3,,,,,,,AMSA08.jpg,AMNE20.jpg,AMNE07.jpg,AMSA14.jpg,AMNE07.jpg,MN,1,num_2,32,num_8,0.833537805127,,,2017_Oct_06_1832,59.9982103215,MAFE4ImagesEEG,001,101801,
AFNE01.JPG,AFNE01.JPG,AFNE01.JPG,AFNE01.JPG,AFNE01.JPG,AFNE01.JPG,,,,,,,,,,,,,,,,,5,4,54,6,,,,,,,AMSA13.jpg,AMNE08.jpg,AMNE03.jpg,AMSA07.jpg,AMNE08.jpg,MN,1,num_6,32,num_2,0.416796325881,,,2017_Oct_06_1832,59.9982103215,MAFE4ImagesEEG,001,101801,
AFNE01.JPG,AFNE01.JPG,AFNE01.JPG,AFNE01.JPG,AFNE01.JPG,AFNE01.JPG,,,,,,,,,,,,,,,,,5,5,55,1,,,,,,,AMNE15.jpg,AMSA09.jpg,AMNE10.jpg,AMSA11.jpg,AMSA09.jpg,MS,2,num_6,16,num_6,0.383458919125,,,2017_Oct_06_1832,59.9982103215,MAFE4ImagesEEG,001,101801,
AFNE01.JPG,AFNE01.JPG,AFNE01.JPG,AFNE01.JPG,AFNE01.JPG,AFNE01.JPG,,,,,,,,,,,,,,,,,5,6,56,2,,,,,,,AMNE05.jpg,AMSA20.jpg,AMSA10.jpg,AMNE15.jpg,AMSA20.jpg,MS,2,num_6,16,num_6,0.883464532089,,,2017_Oct_06_1832,59.9982103215,MAFE4ImagesEEG,001,101801,
AFNE01.JPG,AFNE01.JPG,AFNE01.JPG,AFNE01.JPG,AFNE01.JPG,AFNE01.JPG,,,,,,,,,,,,,,,,,5,7,57,5,,,,,,,AMSA10.jpg,AMSA15.jpg,AMNE13.jpg,AMNE03.jpg,AMSA15.jpg,MS,2,num_6,16,num_6,0.350154548651,,,2017_Oct_06_1832,59.9982103215,MAFE4ImagesEEG,001,101801,
AFNE01.JPG,AFNE01.JPG,AFNE01.JPG,AFNE01.JPG,AFNE01.JPG,AFNE01.JPG,,,,,,,,,,,,,,,,,5,8,58,9,,,,,,,AMSA01.jpg,AMNE18.jpg,AMNE01.jpg,AMSA04.jpg,AMSA04.jpg,MS,2,num_4,16,num_4,0.650125136715,,,2017_Oct_06_1832,59.9982103215,MAFE4ImagesEEG,001,101801,
AFNE01.JPG,AFNE01.JPG,AFNE01.JPG,AFNE01.JPG,AFNE01.JPG,AFNE01.JPG,,,,,,,,,,,,,,,,,5,9,59,7,,,,,,,AMSA16.jpg,AMNE15.jpg,AMSA04.jpg,AMNE18.jpg,AMSA04.jpg,MS,2,num_2,16,num_2,1.15011022234,,,2017_Oct_06_1832,59.9982103215,MAFE4ImagesEEG,001,101801,
,,,,,,,,,,,,,,,,,,,,,,,,,,,,,,,,,,,,,,,,,,,space,4.91681027808,2017_Oct_06_1832,59.9982103215,MAFE4ImagesEEG,001,101801,
AFNE01.JPG,AFNE01.JPG,AFNE01.JPG,AFNE01.JPG,AFNE01.JPG,AFNE01.JPG,,,,,,,,,,,,,,,,,,,,,0,0,0,8,,,AFNE04.jpg,AFSA16.jpg,AFSA03.jpg,AFNE19.jpg,AFSA16.jpg,FS,4,num_6,16,num_6,0.950122025621,,,2017_Oct_06_1832,59.9982103215,MAFE4ImagesEEG,001,101801,
AFNE01.JPG,AFNE01.JPG,AFNE01.JPG,AFNE01.JPG,AFNE01.JPG,AFNE01.JPG,,,,,,,,,,,,,,,,,,,,,0,1,1,6,,,AFSA14.jpg,AFNE04.jpg,AFSA12.jpg,AFNE20.jpg,AFSA14.jpg,FS,4,num_8,32,num_2,1.15017693624,,,2017_Oct_06_1832,59.9982103215,MAFE4ImagesEEG,001,101801,
AFNE01.JPG,AFNE01.JPG,AFNE01.JPG,AFNE01.JPG,AFNE01.JPG,AFNE01.JPG,,,,,,,,,,,,,,,,,,,,,0,2,2,0,,,AFSA16.jpg,AFNE05.jpg,AFSA05.jpg,AFNE08.jpg,AFSA05.jpg,FS,4,num_2,32,num_6,0.833443828276,,,2017_Oct_06_1832,59.9982103215,MAFE4ImagesEEG,001,101801,
AFNE01.JPG,AFNE01.JPG,AFNE01.JPG,AFNE01.JPG,AFNE01.JPG,AFNE01.JPG,,,,,,,,,,,,,,,,,,,,,0,3,3,1,,,AFSA16.jpg,AFSA10.jpg,AFNE12.jpg,AFNE19.jpg,AFSA10.jpg,FS,4,num_6,16,num_6,0.683431431709,,,2017_Oct_06_1832,59.9982103215,MAFE4ImagesEEG,001,101801,
AFNE01.JPG,AFNE01.JPG,AFNE01.JPG,AFNE01.JPG,AFNE01.JPG,AFNE01.JPG,,,,,,,,,,,,,,,,,,,,,0,4,4,7,,,AFSA06.jpg,AFNE08.jpg,AFSA13.jpg,AFNE11.jpg,AFNE08.jpg,FN,3,num_6,16,num_6,0.683462543529,,,2017_Oct_06_1832,59.9982103215,MAFE4ImagesEEG,001,101801,
AFNE01.JPG,AFNE01.JPG,AFNE01.JPG,AFNE01.JPG,AFNE01.JPG,AFNE01.JPG,,,,,,,,,,,,,,,,,,,,,0,5,5,4,,,AFNE11.jpg,AFNE09.jpg,AFSA13.jpg,AFSA16.jpg,AFSA13.jpg,FS,4,num_2,16,num_2,0.966754004185,,,2017_Oct_06_1832,59.9982103215,MAFE4ImagesEEG,001,101801,
AFNE01.JPG,AFNE01.JPG,AFNE01.JPG,AFNE01.JPG,AFNE01.JPG,AFNE01.JPG,,,,,,,,,,,,,,,,,,,,,0,6,6,9,,,AFNE04.jpg,AFSA07.jpg,AFNE15.jpg,AFSA09.jpg,AFNE04.jpg,FN,3,num_8,16,num_8,1.28315642913,,,2017_Oct_06_1832,59.9982103215,MAFE4ImagesEEG,001,101801,
AFNE01.JPG,AFNE01.JPG,AFNE01.JPG,AFNE01.JPG,AFNE01.JPG,AFNE01.JPG,,,,,,,,,,,,,,,,,,,,,0,7,7,5,,,AFSA20.jpg,AFNE03.jpg,AFSA19.jpg,AFNE08.jpg,AFNE03.jpg,FN,3,num_6,16,num_6,0.700121143542,,,2017_Oct_06_1832,59.9982103215,MAFE4ImagesEEG,001,101801,
AFNE01.JPG,AFNE01.JPG,AFNE01.JPG,AFNE01.JPG,AFNE01.JPG,AFNE01.JPG,,,,,,,,,,,,,,,,,,,,,0,8,8,3,,,AFNE08.jpg,AFSA05.jpg,AFNE19.jpg,AFSA08.jpg,AFSA05.jpg,FS,4,num_6,16,num_6,0.666777963459,,,2017_Oct_06_1832,59.9982103215,MAFE4ImagesEEG,001,101801,
AFNE01.JPG,AFNE01.JPG,AFNE01.JPG,AFNE01.JPG,AFNE01.JPG,AFNE01.JPG,,,,,,,,,,,,,,,,,,,,,0,9,9,2,,,AFNE02.jpg,AFNE18.jpg,AFSA15.jpg,AFSA08.jpg,AFNE02.jpg,FN,3,num_8,16,num_8,0.783433067438,,,2017_Oct_06_1832,59.9982103215,MAFE4ImagesEEG,001,101801,
AFNE01.JPG,AFNE01.JPG,AFNE01.JPG,AFNE01.JPG,AFNE01.JPG,AFNE01.JPG,,,,,,,,,,,,,,,,,,,,,1,0,10,7,,,AFNE02.jpg,AFSA17.jpg,AFNE20.jpg,AFSA11.jpg,AFNE20.jpg,FN,3,num_2,16,num_2,0.466846858442,,,2017_Oct_06_1832,59.9982103215,MAFE4ImagesEEG,001,101801,
AFNE01.JPG,AFNE01.JPG,AFNE01.JPG,AFNE01.JPG,AFNE01.JPG,AFNE01.JPG,,,,,,,,,,,,,,,,,,,,,1,1,11,5,,,AFSA20.jpg,AFNE04.jpg,AFNE01.jpg,AFSA15.jpg,AFNE01.jpg,FN,3,num_2,32,num_4,0.600008852431,,,2017_Oct_06_1832,59.9982103215,MAFE4ImagesEEG,001,101801,
AFNE01.JPG,AFNE01.JPG,AFNE01.JPG,AFNE01.JPG,AFNE01.JPG,AFNE01.JPG,,,,,,,,,,,,,,,,,,,,,1,2,12,8,,,AFSA06.jpg,AFSA19.jpg,AFNE06.jpg,AFNE03.jpg,AFNE06.jpg,FN,3,num_2,32,num_4,0.66678662342,,,2017_Oct_06_1832,59.9982103215,MAFE4ImagesEEG,001,101801,
AFNE01.JPG,AFNE01.JPG,AFNE01.JPG,AFNE01.JPG,AFNE01.JPG,AFNE01.JPG,,,,,,,,,,,,,,,,,,,,,1,3,13,3,,,AFNE12.jpg,AFNE06.jpg,AFSA03.jpg,AFSA16.jpg,AFSA03.jpg,FS,4,num_2,16,num_2,0.68349173083,,,2017_Oct_06_1832,59.9982103215,MAFE4ImagesEEG,001,101801,
AFNE01.JPG,AFNE01.JPG,AFNE01.JPG,AFNE01.JPG,AFNE01.JPG,AFNE01.JPG,,,,,,,,,,,,,,,,,,,,,1,4,14,2,,,AFNE01.jpg,AFSA13.jpg,AFSA15.jpg,AFNE19.jpg,AFSA13.jpg,FS,4,num_6,32,num_2,0.600145487697,,,2017_Oct_06_1832,59.9982103215,MAFE4ImagesEEG,001,101801,
AFNE01.JPG,AFNE01.JPG,AFNE01.JPG,AFNE01.JPG,AFNE01.JPG,AFNE01.JPG,,,,,,,,,,,,,,,,,,,,,1,5,15,1,,,AFNE05.jpg,AFSA07.jpg,AFSA01.jpg,AFNE14.jpg,AFSA07.jpg,FS,4,num_6,32,num_2,0.566761894443,,,2017_Oct_06_1832,59.9982103215,MAFE4ImagesEEG,001,101801,
AFNE01.JPG,AFNE01.JPG,AFNE01.JPG,AFNE01.JPG,AFNE01.JPG,AFNE01.JPG,,,,,,,,,,,,,,,,,,,,,1,6,16,6,,,AFNE18.jpg,AFSA09.jpg,AFSA18.jpg,AFNE01.jpg,AFSA18.jpg,FS,4,num_2,32,num_4,0.41681685322,,,2017_Oct_06_1832,59.9982103215,MAFE4ImagesEEG,001,101801,
AFNE01.JPG,AFNE01.JPG,AFNE01.JPG,AFNE01.JPG,AFNE01.JPG,AFNE01.JPG,,,,,,,,,,,,,,,,,,,,,1,7,17,0,,,AFSA18.jpg,AFNE12.jpg,AFSA01.jpg,AFNE10.jpg,AFSA01.jpg,FS,4,num_2,32,num_6,0.666796566453,,,2017_Oct_06_1832,59.9982103215,MAFE4ImagesEEG,001,101801,
AFNE01.JPG,AFNE01.JPG,AFNE01.JPG,AFNE01.JPG,AFNE01.JPG,AFNE01.JPG,,,,,,,,,,,,,,,,,,,,,1,8,18,9,,,AFNE08.jpg,AFNE07.jpg,AFSA16.jpg,AFSA17.jpg,AFNE07.jpg,FN,3,num_6,16,num_6,0.749874350091,,,2017_Oct_06_1832,59.9982103215,MAFE4ImagesEEG,001,101801,
AFNE01.JPG,AFNE01.JPG,AFNE01.JPG,AFNE01.JPG,AFNE01.JPG,AFNE01.JPG,,,,,,,,,,,,,,,,,,,,,1,9,19,4,,,AFNE03.jpg,AFSA20.jpg,AFSA04.jpg,AFNE14.jpg,AFSA04.jpg,FS,4,num_2,32,num_8,1.10012319626,,,2017_Oct_06_1832,59.9982103215,MAFE4ImagesEEG,001,101801,
AFNE01.JPG,AFNE01.JPG,AFNE01.JPG,AFNE01.JPG,AFNE01.JPG,AFNE01.JPG,,,,,,,,,,,,,,,,,,,,,2,0,20,8,,,AFSA09.jpg,AFNE02.jpg,AFSA18.jpg,AFNE20.jpg,AFSA18.jpg,FS,4,num_2,16,num_2,1.00013663527,,,2017_Oct_06_1832,59.9982103215,MAFE4ImagesEEG,001,101801,
AFNE01.JPG,AFNE01.JPG,AFNE01.JPG,AFNE01.JPG,AFNE01.JPG,AFNE01.JPG,,,,,,,,,,,,,,,,,,,,,2,1,21,6,,,AFSA07.jpg,AFNE03.jpg,AFSA20.jpg,AFNE10.jpg,AFNE10.jpg,FN,3,num_4,32,num_8,0.966758815281,,,2017_Oct_06_1832,59.9982103215,MAFE4ImagesEEG,001,101801,
AFNE01.JPG,AFNE01.JPG,AFNE01.JPG,AFNE01.JPG,AFNE01.JPG,AFNE01.JPG,,,,,,,,,,,,,,,,,,,,,2,2,22,7,,,AFNE08.jpg,AFSA18.jpg,AFNE04.jpg,AFSA06.jpg,AFNE08.jpg,FN,3,num_8,16,num_8,0.766751053394,,,2017_Oct_06_1832,59.9982103215,MAFE4ImagesEEG,001,101801,
AFNE01.JPG,AFNE01.JPG,AFNE01.JPG,AFNE01.JPG,AFNE01.JPG,AFNE01.JPG,,,,,,,,,,,,,,,,,,,,,2,3,23,4,,,AFSA15.jpg,AFSA07.jpg,AFNE01.jpg,AFNE07.jpg,AFSA07.jpg,FS,4,num_6,32,num_2,1.29998630442,,,2017_Oct_06_1832,59.9982103215,MAFE4ImagesEEG,001,101801,
AFNE01.JPG,AFNE01.JPG,AFNE01.JPG,AFNE01.JPG,AFNE01.JPG,AFNE01.JPG,,,,,,,,,,,,,,,,,,,,,2,4,24,9,,,AFSA02.jpg,AFNE02.jpg,AFSA14.jpg,AFNE18.jpg,AFSA02.jpg,FS,4,num_8,16,num_8,0.683299928263,,,2017_Oct_06_1832,59.9982103215,MAFE4ImagesEEG,001,101801,
AFNE01.JPG,AFNE01.JPG,AFNE01.JPG,AFNE01.JPG,AFNE01.JPG,AFNE01.JPG,,,,,,,,,,,,,,,,,,,,,2,5,25,3,,,AFSA05.jpg,AFNE03.jpg,AFSA19.jpg,AFNE07.jpg,AFNE03.jpg,FN,3,num_6,32,num_2,0.750165261328,,,2017_Oct_06_1832,59.9982103215,MAFE4ImagesEEG,001,101801,
AFNE01.JPG,AFNE01.JPG,AFNE01.JPG,AFNE01.JPG,AFNE01.JPG,AFNE01.JPG,,,,,,,,,,,,,,,,,,,,,2,6,26,2,,,AFSA01.jpg,AFNE19.jpg,AFSA09.jpg,AFNE12.jpg,AFNE12.jpg,FN,3,num_4,16,num_4,0.999943229021,,,2017_Oct_06_1832,59.9982103215,MAFE4ImagesEEG,001,101801,
AFNE01.JPG,AFNE01.JPG,AFNE01.JPG,AFNE01.JPG,AFNE01.JPG,AFNE01.JPG,,,,,,,,,,,,,,,,,,,,,2,7,27,5,,,AFSA06.jpg,AFNE09.jpg,AFNE20.jpg,AFSA19.jpg,AFSA06.jpg,FS,4,num_8,32,num_6,0.616861821036,,,2017_Oct_06_1832,59.9982103215,MAFE4ImagesEEG,001,101801,
AFNE01.JPG,AFNE01.JPG,AFNE01.JPG,AFNE01.JPG,AFNE01.JPG,AFNE01.JPG,,,,,,,,,,,,,,,,,,,,,2,8,28,0,,,AFSA18.jpg,AFSA07.jpg,AFNE18.jpg,AFNE20.jpg,AFNE20.jpg,FN,3,num_4,16,num_4,0.333448799793,,,2017_Oct_06_1832,59.9982103215,MAFE4ImagesEEG,001,101801,
AFNE01.JPG,AFNE01.JPG,AFNE01.JPG,AFNE01.JPG,AFNE01.JPG,AFNE01.JPG,,,,,,,,,,,,,,,,,,,,,2,9,29,1,,,AFSA08.jpg,AFSA13.jpg,AFNE02.jpg,AFNE05.jpg,AFSA08.jpg,FS,4,num_8,32,num_6,1.11708168831,,,2017_Oct_06_1832,59.9982103215,MAFE4ImagesEEG,001,101801,
AFNE01.JPG,AFNE01.JPG,AFNE01.JPG,AFNE01.JPG,AFNE01.JPG,AFNE01.JPG,,,,,,,,,,,,,,,,,,,,,3,0,30,7,,,AFSA04.jpg,AFNE05.jpg,AFNE11.jpg,AFSA14.jpg,AFSA14.jpg,FS,4,num_4,16,num_4,0.383538141963,,,2017_Oct_06_1832,59.9982103215,MAFE4ImagesEEG,001,101801,
AFNE01.JPG,AFNE01.JPG,AFNE01.JPG,AFNE01.JPG,AFNE01.JPG,AFNE01.JPG,,,,,,,,,,,,,,,,,,,,,3,1,31,5,,,AFNE09.jpg,AFSA11.jpg,AFNE20.jpg,AFSA09.jpg,AFSA11.jpg,FS,4,num_6,32,num_8,1.33339780208,,,2017_Oct_06_1832,59.9982103215,MAFE4ImagesEEG,001,101801,
AFNE01.JPG,AFNE01.JPG,AFNE01.JPG,AFNE01.JPG,AFNE01.JPG,AFNE01.JPG,,,,,,,,,,,,,,,,,,,,,3,2,32,2,,,AFSA09.jpg,AFNE18.jpg,AFNE16.jpg,AFSA19.jpg,AFNE16.jpg,FN,3,num_2,32,num_8,1.00021393364,,,2017_Oct_06_1832,59.9982103215,MAFE4ImagesEEG,001,101801,
AFNE01.JPG,AFNE01.JPG,AFNE01.JPG,AFNE01.JPG,AFNE01.JPG,AFNE01.JPG,,,,,,,,,,,,,,,,,,,,,3,3,33,9,,,AFNE19.jpg,AFSA19.jpg,AFNE06.jpg,AFSA10.jpg,AFNE19.jpg,FN,3,num_8,32,num_4,0.80013143929,,,2017_Oct_06_1832,59.9982103215,MAFE4ImagesEEG,001,101801,
AFNE01.JPG,AFNE01.JPG,AFNE01.JPG,AFNE01.JPG,AFNE01.JPG,AFNE01.JPG,,,,,,,,,,,,,,,,,,,,,3,4,34,4,,,AFNE06.jpg,AFSA13.jpg,AFNE20.jpg,AFSA03.jpg,AFSA03.jpg,FS,4,num_4,32,num_8,0.683467354567,,,2017_Oct_06_1832,59.9982103215,MAFE4ImagesEEG,001,101801,
AFNE01.JPG,AFNE01.JPG,AFNE01.JPG,AFNE01.JPG,AFNE01.JPG,AFNE01.JPG,,,,,,,,,,,,,,,,,,,,,3,5,35,0,,,AFNE14.jpg,AFNE01.jpg,AFSA13.jpg,AFSA15.jpg,AFSA13.jpg,FS,4,num_2,32,num_8,1.10014628957,,,2017_Oct_06_1832,59.9982103215,MAFE4ImagesEEG,001,101801,
AFNE01.JPG,AFNE01.JPG,AFNE01.JPG,AFNE01.JPG,AFNE01.JPG,AFNE01.JPG,,,,,,,,,,,,,,,,,,,,,3,6,36,8,,,AFSA18.jpg,AFSA13.jpg,AFNE19.jpg,AFNE15.jpg,AFNE19.jpg,FN,3,num_2,16,num_2,0.61678099446,,,2017_Oct_06_1832,59.9982103215,MAFE4ImagesEEG,001,101801,
AFNE01.JPG,AFNE01.JPG,AFNE01.JPG,AFNE01.JPG,AFNE01.JPG,AFNE01.JPG,,,,,,,,,,,,,,,,,,,,,3,7,37,1,,,AFNE19.jpg,AFSA09.jpg,AFNE01.jpg,AFSA10.jpg,AFSA09.jpg,FS,4,num_6,16,num_6,1.00006350654,,,2017_Oct_06_1832,59.9982103215,MAFE4ImagesEEG,001,101801,
AFNE01.JPG,AFNE01.JPG,AFNE01.JPG,AFNE01.JPG,AFNE01.JPG,AFNE01.JPG,,,,,,,,,,,,,,,,,,,,,3,8,38,6,,,AFNE12.jpg,AFSA16.jpg,AFNE02.jpg,AFSA15.jpg,AFNE12.jpg,FN,3,num_8,32,num_4,0.750134149566,,,2017_Oct_06_1832,59.9982103215,MAFE4ImagesEEG,001,101801,
