IPosition2,IPosition3,IPosition1,IPosition6,IPosition4,IPosition5,TrialsM1.thisRepN,TrialsM1.thisTrialN,TrialsM1.thisN,TrialsM1.thisIndex,TrialsF1.thisRepN,TrialsF1.thisTrialN,TrialsF1.thisN,TrialsF1.thisIndex,TrialsM2.thisRepN,TrialsM2.thisTrialN,TrialsM2.thisN,TrialsM2.thisIndex,TrialsF2.thisRepN,TrialsF2.thisTrialN,TrialsF2.thisN,TrialsF2.thisIndex,TrialsM3.thisRepN,TrialsM3.thisTrialN,TrialsM3.thisN,TrialsM3.thisIndex,TrialsF3.thisRepN,TrialsF3.thisTrialN,TrialsF3.thisN,TrialsF3.thisIndex,InstrKey_resp.keys,InstrKey_resp.rt,Image0 _Position,Image1 _Position,Image2 _Position,Image3 _Position,Center_image,condition,code,correct_answer,accuracy,Key_Resp.keys,Key_Resp.rt,BreakKey_resp.keys,BreakKey_resp.rt,date,frameRate,expName,session,participant,
,,,,,,,,,,,,,,,,,,,,,,,,,,,,,,space,6.79971069284,,,,,,,,,,,,,,2017_Nov_17_1151,60.0052541252,MAFE4ImagesEEG,001,101963,
AFNE22.JPG,AFSA24.JPG,AFSA22.JPG,AFNE25.JPG,AFNE24.JPG,AFSA25.JPG,0,0,0,6,,,,,,,,,,,,,,,,,,,,,,,AMSA15.jpg,AMSA18.jpg,AMNE09.jpg,AMNE10.jpg,AMSA15.jpg,MS,2,num_8,48,None,,,,2017_Nov_17_1151,60.0052541252,MAFE4ImagesEEG,001,101963,
AFSA25.JPG,AFNE24.JPG,AFSA24.JPG,AFNE21.JPG,AFSA21.JPG,AFNE25.JPG,0,1,1,2,,,,,,,,,,,,,,,,,,,,,,,AMSA02.jpg,AMSA11.jpg,AMNE06.jpg,AMNE03.jpg,AMNE03.jpg,MN,1,num_4,32,num_2,1.16678517964,,,2017_Nov_17_1151,60.0052541252,MAFE4ImagesEEG,001,101963,
AMSA25.JPG,AMNE24.JPG,AMSA24.JPG,AMNE26.JPG,AMSA21.JPG,AMNE25.JPG,0,2,2,3,,,,,,,,,,,,,,,,,,,,,,,AMNE12.jpg,AMSA10.jpg,AMSA12.jpg,AMNE13.jpg,AMSA10.jpg,MS,2,num_6,32,num_2,1.2334835995,,,2017_Nov_17_1151,60.0052541252,MAFE4ImagesEEG,001,101963,
AFNE23.JPG,AFNE24.JPG,AFNE22.JPG,AFSA24.JPG,AFSA22.JPG,AFSA23.JPG,0,3,3,8,,,,,,,,,,,,,,,,,,,,,,,AMSA16.jpg,AMNE15.jpg,AMSA05.jpg,AMNE06.jpg,AMNE15.jpg,MN,1,num_6,32,num_8,0.716809796635,,,2017_Nov_17_1151,60.0052541252,MAFE4ImagesEEG,001,101963,
AMSA21.JPG,AMNE23.JPG,AMNE21.JPG,AMSA25.JPG,AMNE25.JPG,AMSA23.JPG,0,4,4,5,,,,,,,,,,,,,,,,,,,,,,,AMNE19.jpg,AMNE09.jpg,AMSA02.jpg,AMSA08.jpg,AMNE19.jpg,MN,1,num_8,32,num_6,1.68343011662,,,2017_Nov_17_1151,60.0052541252,MAFE4ImagesEEG,001,101963,
AFSA21.JPG,AFNE23.JPG,AFNE21.JPG,AFSA25.JPG,AFNE25.JPG,AFSA23.JPG,0,5,5,4,,,,,,,,,,,,,,,,,,,,,,,AMNE01.jpg,AMSA11.jpg,AMNE07.jpg,AMSA15.jpg,AMNE01.jpg,MN,1,num_8,32,num_4,1.01675126143,,,2017_Nov_17_1151,60.0052541252,MAFE4ImagesEEG,001,101963,
AMNE23.JPG,AMNE24.JPG,AMNE22.JPG,AMSA24.JPG,AMSA22.JPG,AMSA23.JPG,0,6,6,9,,,,,,,,,,,,,,,,,,,,,,,AMSA19.jpg,AMSA05.jpg,AMNE11.jpg,AMNE17.jpg,AMNE17.jpg,MN,1,num_4,32,num_2,1.31673474377,,,2017_Nov_17_1151,60.0052541252,MAFE4ImagesEEG,001,101963,
AFSA21.JPG,AFNE22.JPG,AFNE21.JPG,AFSA23.JPG,AFSA22.JPG,AFNE23.JPG,0,7,7,0,,,,,,,,,,,,,,,,,,,,,,,AMNE02.jpg,AMSA19.jpg,AMNE01.jpg,AMSA10.jpg,AMNE02.jpg,MN,1,num_8,16,num_8,1.13314762479,,,2017_Nov_17_1151,60.0052541252,MAFE4ImagesEEG,001,101963,
AMNE22.JPG,AMSA24.JPG,AMSA22.JPG,AMNE25.JPG,AMNE24.JPG,AMSA25.JPG,0,8,8,7,,,,,,,,,,,,,,,,,,,,,,,AMNE18.jpg,AMNE04.jpg,AMSA13.jpg,AMSA16.jpg,AMNE18.jpg,MN,1,num_8,32,num_6,1.33340325486,,,2017_Nov_17_1151,60.0052541252,MAFE4ImagesEEG,001,101963,
AMSA21.JPG,AMNE22.JPG,AMNE21.JPG,AMSA23.JPG,AMSA22.JPG,AMNE23.JPG,0,9,9,1,,,,,,,,,,,,,,,,,,,,,,,AMNE04.jpg,AMNE17.jpg,AMSA17.jpg,AMSA11.jpg,AMSA11.jpg,MS,2,num_4,32,num_2,1.15011378238,,,2017_Nov_17_1151,60.0052541252,MAFE4ImagesEEG,001,101963,
AFSA25.JPG,AFNE24.JPG,AFSA24.JPG,AFNE21.JPG,AFSA21.JPG,AFNE25.JPG,,,,,0,0,0,2,,,,,,,,,,,,,,,,,,,AFSA08.jpg,AFNE17.jpg,AFNE07.jpg,AFSA02.jpg,AFNE07.jpg,FN,3,num_2,16,num_2,0.900092212483,,,2017_Nov_17_1151,60.0052541252,MAFE4ImagesEEG,001,101963,
AMSA21.JPG,AMNE23.JPG,AMNE21.JPG,AMSA25.JPG,AMNE25.JPG,AMSA23.JPG,,,,,0,1,1,5,,,,,,,,,,,,,,,,,,,AFNE20.jpg,AFSA03.jpg,AFSA05.jpg,AFNE08.jpg,AFNE20.jpg,FN,3,num_8,32,num_4,1.23338898178,,,2017_Nov_17_1151,60.0052541252,MAFE4ImagesEEG,001,101963,
AFSA21.JPG,AFNE23.JPG,AFNE21.JPG,AFSA25.JPG,AFNE25.JPG,AFSA23.JPG,,,,,0,2,2,4,,,,,,,,,,,,,,,,,,,AFSA01.jpg,AFNE08.jpg,AFNE07.jpg,AFSA12.jpg,AFSA01.jpg,FS,4,num_8,32,num_6,1.01674388442,,,2017_Nov_17_1151,60.0052541252,MAFE4ImagesEEG,001,101963,
AFNE23.JPG,AFNE24.JPG,AFNE22.JPG,AFSA24.JPG,AFSA22.JPG,AFSA23.JPG,,,,,0,3,3,8,,,,,,,,,,,,,,,,,,,AFSA10.jpg,AFNE09.jpg,AFSA07.jpg,AFNE05.jpg,AFNE05.jpg,FN,3,num_4,32,num_2,1.96666843072,,,2017_Nov_17_1151,60.0052541252,MAFE4ImagesEEG,001,101963,
AMNE22.JPG,AMSA24.JPG,AMSA22.JPG,AMNE25.JPG,AMNE24.JPG,AMSA25.JPG,,,,,0,4,4,7,,,,,,,,,,,,,,,,,,,AFNE03.jpg,AFNE10.jpg,AFSA15.jpg,AFSA18.jpg,AFNE03.jpg,FN,3,num_8,16,num_8,1.53341704607,,,2017_Nov_17_1151,60.0052541252,MAFE4ImagesEEG,001,101963,
AMSA21.JPG,AMNE22.JPG,AMNE21.JPG,AMSA23.JPG,AMSA22.JPG,AMNE23.JPG,,,,,0,5,5,1,,,,,,,,,,,,,,,,,,,AFNE03.jpg,AFSA10.jpg,AFSA03.jpg,AFNE04.jpg,AFSA10.jpg,FS,4,num_6,16,num_6,2.21662553167,,,2017_Nov_17_1151,60.0052541252,MAFE4ImagesEEG,001,101963,
AMNE23.JPG,AMNE24.JPG,AMNE22.JPG,AMSA24.JPG,AMSA22.JPG,AMSA23.JPG,,,,,0,6,6,9,,,,,,,,,,,,,,,,,,,AFNE02.jpg,AFSA14.jpg,AFSA05.jpg,AFNE17.jpg,AFNE17.jpg,FN,3,num_4,16,num_4,1.38343284279,,,2017_Nov_17_1151,60.0052541252,MAFE4ImagesEEG,001,101963,
AFNE22.JPG,AFSA24.JPG,AFSA22.JPG,AFNE25.JPG,AFNE24.JPG,AFSA25.JPG,,,,,0,7,7,6,,,,,,,,,,,,,,,,,,,AFNE05.jpg,AFSA15.jpg,AFSA09.jpg,AFNE13.jpg,AFNE13.jpg,FN,3,num_4,32,num_2,1.69973298442,,,2017_Nov_17_1151,60.0052541252,MAFE4ImagesEEG,001,101963,
AFSA21.JPG,AFNE22.JPG,AFNE21.JPG,AFSA23.JPG,AFSA22.JPG,AFNE23.JPG,,,,,0,8,8,0,,,,,,,,,,,,,,,,,,,AFSA16.jpg,AFNE05.jpg,AFNE08.jpg,AFSA02.jpg,AFSA16.jpg,FS,4,num_8,16,num_8,0.866762246937,,,2017_Nov_17_1151,60.0052541252,MAFE4ImagesEEG,001,101963,
AMSA25.JPG,AMNE24.JPG,AMSA24.JPG,AMNE26.JPG,AMSA21.JPG,AMNE25.JPG,,,,,0,9,9,3,,,,,,,,,,,,,,,,,,,AFSA19.jpg,AFSA14.jpg,AFNE08.jpg,AFNE11.jpg,AFSA19.jpg,FS,4,num_8,16,num_8,1.01684716251,,,2017_Nov_17_1151,60.0052541252,MAFE4ImagesEEG,001,101963,
AFSA25.JPG,AFNE24.JPG,AFSA24.JPG,AFNE21.JPG,AFSA21.JPG,AFNE25.JPG,,,,,,,,,0,0,0,2,,,,,,,,,,,,,,,AMNE12.jpg,AMSA09.jpg,AMNE01.jpg,AMSA11.jpg,AMNE12.jpg,MN,1,num_8,32,num_4,1.15040373057,,,2017_Nov_17_1151,60.0052541252,MAFE4ImagesEEG,001,101963,
AMSA21.JPG,AMNE22.JPG,AMNE21.JPG,AMSA23.JPG,AMSA22.JPG,AMNE23.JPG,,,,,,,,,0,1,1,1,,,,,,,,,,,,,,,AMSA02.jpg,AMSA11.jpg,AMNE18.jpg,AMNE09.jpg,AMSA02.jpg,MS,2,num_8,32,num_4,1.25049049081,,,2017_Nov_17_1151,60.0052541252,MAFE4ImagesEEG,001,101963,
AFNE23.JPG,AFNE24.JPG,AFNE22.JPG,AFSA24.JPG,AFSA22.JPG,AFSA23.JPG,,,,,,,,,0,2,2,8,,,,,,,,,,,,,,,AMNE01.jpg,AMNE16.jpg,AMSA07.jpg,AMSA20.jpg,AMNE16.jpg,MN,1,num_6,32,num_8,0.883487849962,,,2017_Nov_17_1151,60.0052541252,MAFE4ImagesEEG,001,101963,
AFSA21.JPG,AFNE22.JPG,AFNE21.JPG,AFSA23.JPG,AFSA22.JPG,AFNE23.JPG,,,,,,,,,0,3,3,0,,,,,,,,,,,,,,,AMNE06.jpg,AMSA14.jpg,AMNE05.jpg,AMSA17.jpg,AMNE06.jpg,MN,1,num_8,16,num_8,1.66667179856,,,2017_Nov_17_1151,60.0052541252,MAFE4ImagesEEG,001,101963,
AMSA25.JPG,AMNE24.JPG,AMSA24.JPG,AMNE26.JPG,AMSA21.JPG,AMNE25.JPG,,,,,,,,,0,4,4,3,,,,,,,,,,,,,,,AMNE10.jpg,AMSA11.jpg,AMSA14.jpg,AMNE14.jpg,AMNE10.jpg,MN,1,num_8,16,num_8,1.88339643879,,,2017_Nov_17_1151,60.0052541252,MAFE4ImagesEEG,001,101963,
AFSA21.JPG,AFNE23.JPG,AFNE21.JPG,AFSA25.JPG,AFNE25.JPG,AFSA23.JPG,,,,,,,,,0,5,5,4,,,,,,,,,,,,,,,AMNE20.jpg,AMSA05.jpg,AMSA14.jpg,AMNE03.jpg,AMSA05.jpg,MS,2,num_6,16,num_6,0.950273831375,,,2017_Nov_17_1151,60.0052541252,MAFE4ImagesEEG,001,101963,
AFNE22.JPG,AFSA24.JPG,AFSA22.JPG,AFNE25.JPG,AFNE24.JPG,AFSA25.JPG,,,,,,,,,0,6,6,6,,,,,,,,,,,,,,,AMSA03.jpg,AMNE03.jpg,AMNE11.jpg,AMSA10.jpg,AMNE11.jpg,MN,1,num_2,16,num_2,1.7334273099,,,2017_Nov_17_1151,60.0052541252,MAFE4ImagesEEG,001,101963,
AMNE23.JPG,AMNE24.JPG,AMNE22.JPG,AMSA24.JPG,AMSA22.JPG,AMSA23.JPG,,,,,,,,,0,7,7,9,,,,,,,,,,,,,,,AMNE06.jpg,AMSA17.jpg,AMSA10.jpg,AMNE11.jpg,AMSA17.jpg,MS,2,num_6,16,num_6,1.06680715084,,,2017_Nov_17_1151,60.0052541252,MAFE4ImagesEEG,001,101963,
AMSA21.JPG,AMNE23.JPG,AMNE21.JPG,AMSA25.JPG,AMNE25.JPG,AMSA23.JPG,,,,,,,,,0,8,8,5,,,,,,,,,,,,,,,AMSA20.jpg,AMNE08.jpg,AMNE04.jpg,AMSA01.jpg,AMSA01.jpg,MS,2,num_4,16,num_4,2.0167130935,,,2017_Nov_17_1151,60.0052541252,MAFE4ImagesEEG,001,101963,
AMNE22.JPG,AMSA24.JPG,AMSA22.JPG,AMNE25.JPG,AMNE24.JPG,AMSA25.JPG,,,,,,,,,0,9,9,7,,,,,,,,,,,,,,,AMNE18.jpg,AMSA13.jpg,AMNE13.jpg,AMSA05.jpg,AMNE18.jpg,MN,1,num_8,16,num_8,1.56668446772,,,2017_Nov_17_1151,60.0052541252,MAFE4ImagesEEG,001,101963,
AFNE22.JPG,AFSA24.JPG,AFSA22.JPG,AFNE25.JPG,AFNE24.JPG,AFSA25.JPG,,,,,,,,,,,,,0,0,0,6,,,,,,,,,,,AFSA06.jpg,AFSA01.jpg,AFNE03.jpg,AFNE01.jpg,AFSA01.jpg,FS,4,num_6,32,num_4,3.94985398324,,,2017_Nov_17_1151,60.0052541252,MAFE4ImagesEEG,001,101963,
AMNE22.JPG,AMSA24.JPG,AMSA22.JPG,AMNE25.JPG,AMNE24.JPG,AMSA25.JPG,,,,,,,,,,,,,0,1,1,7,,,,,,,,,,,AFSA15.jpg,AFNE20.jpg,AFSA11.jpg,AFNE05.jpg,AFSA15.jpg,FS,4,num_8,16,num_8,0.80017319927,,,2017_Nov_17_1151,60.0052541252,MAFE4ImagesEEG,001,101963,
AMNE23.JPG,AMNE24.JPG,AMNE22.JPG,AMSA24.JPG,AMSA22.JPG,AMSA23.JPG,,,,,,,,,,,,,0,2,2,9,,,,,,,,,,,AFSA19.jpg,AFSA20.jpg,AFNE08.jpg,AFNE09.jpg,AFNE08.jpg,FN,3,num_2,32,num_4,1.41674580937,,,2017_Nov_17_1151,60.0052541252,MAFE4ImagesEEG,001,101963,
AMSA21.JPG,AMNE22.JPG,AMNE21.JPG,AMSA23.JPG,AMSA22.JPG,AMNE23.JPG,,,,,,,,,,,,,0,3,3,1,,,,,,,,,,,AFSA15.jpg,AFSA03.jpg,AFNE09.jpg,AFNE07.jpg,AFSA15.jpg,FS,4,num_8,32,num_6,1.23368823156,,,2017_Nov_17_1151,60.0052541252,MAFE4ImagesEEG,001,101963,
AFSA21.JPG,AFNE22.JPG,AFNE21.JPG,AFSA23.JPG,AFSA22.JPG,AFNE23.JPG,,,,,,,,,,,,,0,4,4,0,,,,,,,,,,,AFSA17.jpg,AFNE15.jpg,AFNE11.jpg,AFSA02.jpg,AFSA17.jpg,FS,4,num_8,32,num_2,3.13330991939,,,2017_Nov_17_1151,60.0052541252,MAFE4ImagesEEG,001,101963,
AMSA25.JPG,AMNE24.JPG,AMSA24.JPG,AMNE26.JPG,AMSA21.JPG,AMNE25.JPG,,,,,,,,,,,,,0,5,5,3,,,,,,,,,,,AFNE03.jpg,AFNE08.jpg,AFSA12.jpg,AFSA17.jpg,AFSA17.jpg,FS,4,num_4,32,num_2,4.549832494,,,2017_Nov_17_1151,60.0052541252,MAFE4ImagesEEG,001,101963,
AMSA21.JPG,AMNE23.JPG,AMNE21.JPG,AMSA25.JPG,AMNE25.JPG,AMSA23.JPG,,,,,,,,,,,,,0,6,6,5,,,,,,,,,,,AFNE17.jpg,AFNE13.jpg,AFSA20.jpg,AFSA12.jpg,AFSA12.jpg,FS,4,num_4,16,num_4,1.79974469123,,,2017_Nov_17_1151,60.0052541252,MAFE4ImagesEEG,001,101963,
AFSA21.JPG,AFNE23.JPG,AFNE21.JPG,AFSA25.JPG,AFNE25.JPG,AFSA23.JPG,,,,,,,,,,,,,0,7,7,4,,,,,,,,,,,AFSA10.jpg,AFNE14.jpg,AFSA13.jpg,AFNE15.jpg,AFNE14.jpg,FN,3,num_6,32,num_8,1.00009782566,,,2017_Nov_17_1151,60.0052541252,MAFE4ImagesEEG,001,101963,
AFSA25.JPG,AFNE24.JPG,AFSA24.JPG,AFNE21.JPG,AFSA21.JPG,AFNE25.JPG,,,,,,,,,,,,,0,8,8,2,,,,,,,,,,,AFSA20.jpg,AFNE07.jpg,AFSA13.jpg,AFNE08.jpg,AFSA13.jpg,FS,4,num_2,32,num_8,0.93347509997,,,2017_Nov_17_1151,60.0052541252,MAFE4ImagesEEG,001,101963,
AFNE23.JPG,AFNE24.JPG,AFNE22.JPG,AFSA24.JPG,AFSA22.JPG,AFSA23.JPG,,,,,,,,,,,,,0,9,9,8,,,,,,,,,,,AFNE13.jpg,AFSA05.jpg,AFNE04.jpg,AFSA08.jpg,AFSA08.jpg,FS,4,num_4,32,num_6,1.06679624505,,,2017_Nov_17_1151,60.0052541252,MAFE4ImagesEEG,001,101963,
AFNE22.JPG,AFSA24.JPG,AFSA22.JPG,AFNE25.JPG,AFNE24.JPG,AFSA25.JPG,,,,,,,,,,,,,,,,,0,0,0,6,,,,,,,AMSA02.jpg,AMSA07.jpg,AMNE16.jpg,AMNE20.jpg,AMNE20.jpg,MN,1,num_4,16,num_4,1.11673025321,,,2017_Nov_17_1151,60.0052541252,MAFE4ImagesEEG,001,101963,
AFNE23.JPG,AFNE24.JPG,AFNE22.JPG,AFSA24.JPG,AFSA22.JPG,AFSA23.JPG,,,,,,,,,,,,,,,,,0,1,1,8,,,,,,,AMSA11.jpg,AMSA20.jpg,AMNE17.jpg,AMNE12.jpg,AMNE17.jpg,MN,1,num_2,16,num_2,1.70004057325,,,2017_Nov_17_1151,60.0052541252,MAFE4ImagesEEG,001,101963,
AMNE23.JPG,AMNE24.JPG,AMNE22.JPG,AMSA24.JPG,AMSA22.JPG,AMSA23.JPG,,,,,,,,,,,,,,,,,0,2,2,9,,,,,,,AMNE04.jpg,AMSA15.jpg,AMNE19.jpg,AMSA04.jpg,AMNE19.jpg,MN,1,num_2,32,num_8,1.43341881037,,,2017_Nov_17_1151,60.0052541252,MAFE4ImagesEEG,001,101963,
AMSA25.JPG,AMNE24.JPG,AMSA24.JPG,AMNE26.JPG,AMSA21.JPG,AMNE25.JPG,,,,,,,,,,,,,,,,,0,3,3,3,,,,,,,AMNE04.jpg,AMNE15.jpg,AMSA20.jpg,AMSA06.jpg,AMSA20.jpg,MS,2,num_2,32,num_4,1.01674741274,,,2017_Nov_17_1151,60.0052541252,MAFE4ImagesEEG,001,101963,
AMSA21.JPG,AMNE23.JPG,AMNE21.JPG,AMSA25.JPG,AMNE25.JPG,AMSA23.JPG,,,,,,,,,,,,,,,,,0,4,4,5,,,,,,,AMNE05.jpg,AMSA01.jpg,AMNE11.jpg,AMSA03.jpg,AMNE11.jpg,MN,1,num_2,48,None,,,,2017_Nov_17_1151,60.0052541252,MAFE4ImagesEEG,001,101963,
AFSA25.JPG,AFNE24.JPG,AFSA24.JPG,AFNE21.JPG,AFSA21.JPG,AFNE25.JPG,,,,,,,,,,,,,,,,,0,5,5,2,,,,,,,AMNE15.jpg,AMSA06.jpg,AMSA07.jpg,AMNE06.jpg,AMNE06.jpg,MN,1,num_4,32,num_2,1.46676705824,,,2017_Nov_17_1151,60.0052541252,MAFE4ImagesEEG,001,101963,
AMNE22.JPG,AMSA24.JPG,AMSA22.JPG,AMNE25.JPG,AMNE24.JPG,AMSA25.JPG,,,,,,,,,,,,,,,,,0,6,6,7,,,,,,,AMNE08.jpg,AMNE11.jpg,AMSA15.jpg,AMSA07.jpg,AMNE11.jpg,MN,1,num_6,32,num_8,1.11679311842,,,2017_Nov_17_1151,60.0052541252,MAFE4ImagesEEG,001,101963,
AMSA21.JPG,AMNE22.JPG,AMNE21.JPG,AMSA23.JPG,AMSA22.JPG,AMNE23.JPG,,,,,,,,,,,,,,,,,0,7,7,1,,,,,,,AMSA03.jpg,AMNE19.jpg,AMSA09.jpg,AMNE04.jpg,AMNE04.jpg,MN,1,num_4,32,num_8,2.06676769955,,,2017_Nov_17_1151,60.0052541252,MAFE4ImagesEEG,001,101963,
AFSA21.JPG,AFNE23.JPG,AFNE21.JPG,AFSA25.JPG,AFNE25.JPG,AFSA23.JPG,,,,,,,,,,,,,,,,,0,8,8,4,,,,,,,AMSA01.jpg,AMNE15.jpg,AMSA05.jpg,AMNE17.jpg,AMSA01.jpg,MS,2,num_8,32,num_4,1.06693031453,,,2017_Nov_17_1151,60.0052541252,MAFE4ImagesEEG,001,101963,
AFSA21.JPG,AFNE22.JPG,AFNE21.JPG,AFSA23.JPG,AFSA22.JPG,AFNE23.JPG,,,,,,,,,,,,,,,,,0,9,9,0,,,,,,,AMSA17.jpg,AMNE07.jpg,AMSA19.jpg,AMNE04.jpg,AMSA19.jpg,MS,2,num_2,16,num_2,2.88327231258,,,2017_Nov_17_1151,60.0052541252,MAFE4ImagesEEG,001,101963,
AMNE22.JPG,AMSA24.JPG,AMSA22.JPG,AMNE25.JPG,AMNE24.JPG,AMSA25.JPG,,,,,,,,,,,,,,,,,,,,,0,0,0,7,,,AFNE12.jpg,AFSA13.jpg,AFNE13.jpg,AFSA12.jpg,AFNE12.jpg,FN,3,num_8,32,num_4,1.41674388479,,,2017_Nov_17_1151,60.0052541252,MAFE4ImagesEEG,001,101963,
AMSA21.JPG,AMNE22.JPG,AMNE21.JPG,AMSA23.JPG,AMSA22.JPG,AMNE23.JPG,,,,,,,,,,,,,,,,,,,,,0,1,1,1,,,AFNE14.jpg,AFSA08.jpg,AFNE01.jpg,AFSA11.jpg,AFSA08.jpg,FS,4,num_6,32,num_2,0.783466841094,,,2017_Nov_17_1151,60.0052541252,MAFE4ImagesEEG,001,101963,
AFNE23.JPG,AFNE24.JPG,AFNE22.JPG,AFSA24.JPG,AFSA22.JPG,AFSA23.JPG,,,,,,,,,,,,,,,,,,,,,0,2,2,8,,,AFSA07.jpg,AFNE19.jpg,AFNE15.jpg,AFSA12.jpg,AFSA12.jpg,FS,4,num_4,16,num_4,0.983434125781,,,2017_Nov_17_1151,60.0052541252,MAFE4ImagesEEG,001,101963,
AMNE23.JPG,AMNE24.JPG,AMNE22.JPG,AMSA24.JPG,AMSA22.JPG,AMSA23.JPG,,,,,,,,,,,,,,,,,,,,,0,3,3,9,,,AFNE11.jpg,AFSA09.jpg,AFNE04.jpg,AFSA02.jpg,AFNE04.jpg,FN,3,num_2,16,num_2,0.833454091568,,,2017_Nov_17_1151,60.0052541252,MAFE4ImagesEEG,001,101963,
AFSA21.JPG,AFNE22.JPG,AFNE21.JPG,AFSA23.JPG,AFSA22.JPG,AFNE23.JPG,,,,,,,,,,,,,,,,,,,,,0,4,4,0,,,AFNE05.jpg,AFSA07.jpg,AFNE09.jpg,AFSA09.jpg,AFNE09.jpg,FN,3,num_2,32,num_4,0.950112178456,,,2017_Nov_17_1151,60.0052541252,MAFE4ImagesEEG,001,101963,
AMSA21.JPG,AMNE23.JPG,AMNE21.JPG,AMSA25.JPG,AMNE25.JPG,AMSA23.JPG,,,,,,,,,,,,,,,,,,,,,0,5,5,5,,,AFSA04.jpg,AFSA20.jpg,AFNE05.jpg,AFNE18.jpg,AFNE05.jpg,FN,3,num_2,32,num_4,1.1001092121,,,2017_Nov_17_1151,60.0052541252,MAFE4ImagesEEG,001,101963,
AFNE22.JPG,AFSA24.JPG,AFSA22.JPG,AFNE25.JPG,AFNE24.JPG,AFSA25.JPG,,,,,,,,,,,,,,,,,,,,,0,6,6,6,,,AFNE01.jpg,AFNE05.jpg,AFSA19.jpg,AFSA11.jpg,AFNE05.jpg,FN,3,num_6,32,num_4,1.06627504388,,,2017_Nov_17_1151,60.0052541252,MAFE4ImagesEEG,001,101963,
AFSA21.JPG,AFNE23.JPG,AFNE21.JPG,AFSA25.JPG,AFNE25.JPG,AFSA23.JPG,,,,,,,,,,,,,,,,,,,,,0,7,7,4,,,AFNE05.jpg,AFSA03.jpg,AFNE06.jpg,AFSA07.jpg,AFNE06.jpg,FN,3,num_2,32,num_4,0.716805947945,,,2017_Nov_17_1151,60.0052541252,MAFE4ImagesEEG,001,101963,
AMSA25.JPG,AMNE24.JPG,AMSA24.JPG,AMNE26.JPG,AMSA21.JPG,AMNE25.JPG,,,,,,,,,,,,,,,,,,,,,0,8,8,3,,,AFNE18.jpg,AFSA15.jpg,AFNE14.jpg,AFSA07.jpg,AFNE14.jpg,FN,3,num_2,32,num_8,1.25009437744,,,2017_Nov_17_1151,60.0052541252,MAFE4ImagesEEG,001,101963,
AFSA25.JPG,AFNE24.JPG,AFSA24.JPG,AFNE21.JPG,AFSA21.JPG,AFNE25.JPG,,,,,,,,,,,,,,,,,,,,,0,9,9,2,,,AFSA15.jpg,AFSA09.jpg,AFNE13.jpg,AFNE04.jpg,AFSA09.jpg,FS,4,num_6,16,num_6,1.20009590127,,,2017_Nov_17_1151,60.0052541252,MAFE4ImagesEEG,001,101963,
,,,,,,,,,,,,,,,,,,,,,,,,,,,,,,,,,,,,,,,,,,,space,10.8162473799,2017_Nov_17_1151,60.0052541252,MAFE4ImagesEEG,001,101963,
AFNE01.JPG,AFNE01.JPG,AFNE01.JPG,AFNE01.JPG,AFNE01.JPG,AFNE01.JPG,0,0,0,8,,,,,,,,,,,,,,,,,,,,,,,AMSA09.jpg,AMNE10.jpg,AMSA15.jpg,AMNE05.jpg,AMSA15.jpg,MS,2,num_2,16,num_2,3.24981725868,,,2017_Nov_17_1151,60.0052541252,MAFE4ImagesEEG,001,101963,
AFNE01.JPG,AFNE01.JPG,AFNE01.JPG,AFNE01.JPG,AFNE01.JPG,AFNE01.JPG,0,1,1,4,,,,,,,,,,,,,,,,,,,,,,,AMSA04.jpg,AMNE16.jpg,AMNE10.jpg,AMSA13.jpg,AMNE16.jpg,MN,1,num_6,32,num_8,1.21673233807,,,2017_Nov_17_1151,60.0052541252,MAFE4ImagesEEG,001,101963,
AFNE01.JPG,AFNE01.JPG,AFNE01.JPG,AFNE01.JPG,AFNE01.JPG,AFNE01.JPG,0,2,2,2,,,,,,,,,,,,,,,,,,,,,,,AMSA12.jpg,AMNE19.jpg,AMNE18.jpg,AMSA18.jpg,AMSA12.jpg,MS,2,num_8,16,num_8,0.866703872569,,,2017_Nov_17_1151,60.0052541252,MAFE4ImagesEEG,001,101963,
AFNE01.JPG,AFNE01.JPG,AFNE01.JPG,AFNE01.JPG,AFNE01.JPG,AFNE01.JPG,0,3,3,5,,,,,,,,,,,,,,,,,,,,,,,AMSA18.jpg,AMSA08.jpg,AMNE01.jpg,AMNE08.jpg,AMSA18.jpg,MS,2,num_8,16,num_8,1.4001093721,,,2017_Nov_17_1151,60.0052541252,MAFE4ImagesEEG,001,101963,
AFNE01.JPG,AFNE01.JPG,AFNE01.JPG,AFNE01.JPG,AFNE01.JPG,AFNE01.JPG,0,4,4,0,,,,,,,,,,,,,,,,,,,,,,,AMSA07.jpg,AMNE16.jpg,AMNE20.jpg,AMSA12.jpg,AMNE20.jpg,MN,1,num_2,16,num_2,1.36641729157,,,2017_Nov_17_1151,60.0052541252,MAFE4ImagesEEG,001,101963,
AFNE01.JPG,AFNE01.JPG,AFNE01.JPG,AFNE01.JPG,AFNE01.JPG,AFNE01.JPG,0,5,5,1,,,,,,,,,,,,,,,,,,,,,,,AMSA01.jpg,AMSA18.jpg,AMNE11.jpg,AMNE12.jpg,AMNE12.jpg,MN,1,num_4,32,num_2,1.23343933793,,,2017_Nov_17_1151,60.0052541252,MAFE4ImagesEEG,001,101963,
AFNE01.JPG,AFNE01.JPG,AFNE01.JPG,AFNE01.JPG,AFNE01.JPG,AFNE01.JPG,0,6,6,3,,,,,,,,,,,,,,,,,,,,,,,AMNE10.jpg,AMNE20.jpg,AMSA03.jpg,AMSA19.jpg,AMSA19.jpg,MS,2,num_4,16,num_4,1.43337519001,,,2017_Nov_17_1151,60.0052541252,MAFE4ImagesEEG,001,101963,
AFNE01.JPG,AFNE01.JPG,AFNE01.JPG,AFNE01.JPG,AFNE01.JPG,AFNE01.JPG,0,7,7,7,,,,,,,,,,,,,,,,,,,,,,,AMNE17.jpg,AMSA17.jpg,AMNE13.jpg,AMSA10.jpg,AMSA17.jpg,MS,2,num_6,32,num_2,1.93335289834,,,2017_Nov_17_1151,60.0052541252,MAFE4ImagesEEG,001,101963,
AFNE01.JPG,AFNE01.JPG,AFNE01.JPG,AFNE01.JPG,AFNE01.JPG,AFNE01.JPG,0,8,8,9,,,,,,,,,,,,,,,,,,,,,,,AMNE05.jpg,AMSA08.jpg,AMSA05.jpg,AMNE17.jpg,AMNE05.jpg,MN,1,num_8,32,num_6,2.68330470705,,,2017_Nov_17_1151,60.0052541252,MAFE4ImagesEEG,001,101963,
AFNE01.JPG,AFNE01.JPG,AFNE01.JPG,AFNE01.JPG,AFNE01.JPG,AFNE01.JPG,0,9,9,6,,,,,,,,,,,,,,,,,,,,,,,AMNE02.jpg,AMSA09.jpg,AMNE08.jpg,AMSA08.jpg,AMSA09.jpg,MS,2,num_6,16,num_6,2.93331922079,,,2017_Nov_17_1151,60.0052541252,MAFE4ImagesEEG,001,101963,
AFNE01.JPG,AFNE01.JPG,AFNE01.JPG,AFNE01.JPG,AFNE01.JPG,AFNE01.JPG,1,0,10,7,,,,,,,,,,,,,,,,,,,,,,,AMNE03.jpg,AMNE12.jpg,AMSA11.jpg,AMSA05.jpg,AMNE03.jpg,MN,1,num_8,32,num_4,1.01678558066,,,2017_Nov_17_1151,60.0052541252,MAFE4ImagesEEG,001,101963,
AFNE01.JPG,AFNE01.JPG,AFNE01.JPG,AFNE01.JPG,AFNE01.JPG,AFNE01.JPG,1,1,11,5,,,,,,,,,,,,,,,,,,,,,,,AMSA06.jpg,AMNE16.jpg,AMNE09.jpg,AMSA15.jpg,AMNE16.jpg,MN,1,num_6,32,num_8,1.09973875759,,,2017_Nov_17_1151,60.0052541252,MAFE4ImagesEEG,001,101963,
AFNE01.JPG,AFNE01.JPG,AFNE01.JPG,AFNE01.JPG,AFNE01.JPG,AFNE01.JPG,1,2,12,3,,,,,,,,,,,,,,,,,,,,,,,AMNE02.jpg,AMSA08.jpg,AMSA11.jpg,AMNE01.jpg,AMNE01.jpg,MN,1,num_4,32,num_2,1.33342378167,,,2017_Nov_17_1151,60.0052541252,MAFE4ImagesEEG,001,101963,
AFNE01.JPG,AFNE01.JPG,AFNE01.JPG,AFNE01.JPG,AFNE01.JPG,AFNE01.JPG,1,3,13,0,,,,,,,,,,,,,,,,,,,,,,,AMSA04.jpg,AMNE11.jpg,AMSA09.jpg,AMNE02.jpg,AMNE02.jpg,MN,1,num_4,32,num_6,2.26662914036,,,2017_Nov_17_1151,60.0052541252,MAFE4ImagesEEG,001,101963,
AFNE01.JPG,AFNE01.JPG,AFNE01.JPG,AFNE01.JPG,AFNE01.JPG,AFNE01.JPG,1,4,14,8,,,,,,,,,,,,,,,,,,,,,,,AMSA17.jpg,AMNE18.jpg,AMSA04.jpg,AMNE19.jpg,AMNE18.jpg,MN,1,num_6,32,num_8,2.06671092845,,,2017_Nov_17_1151,60.0052541252,MAFE4ImagesEEG,001,101963,
AFNE01.JPG,AFNE01.JPG,AFNE01.JPG,AFNE01.JPG,AFNE01.JPG,AFNE01.JPG,1,5,15,1,,,,,,,,,,,,,,,,,,,,,,,AMNE18.jpg,AMSA06.jpg,AMSA03.jpg,AMNE02.jpg,AMNE18.jpg,MN,1,num_8,16,num_8,0.866813565604,,,2017_Nov_17_1151,60.0052541252,MAFE4ImagesEEG,001,101963,
AFNE01.JPG,AFNE01.JPG,AFNE01.JPG,AFNE01.JPG,AFNE01.JPG,AFNE01.JPG,1,6,16,4,,,,,,,,,,,,,,,,,,,,,,,AMNE01.jpg,AMNE08.jpg,AMSA12.jpg,AMSA16.jpg,AMSA16.jpg,MS,2,num_4,32,num_2,1.50002998952,,,2017_Nov_17_1151,60.0052541252,MAFE4ImagesEEG,001,101963,
AFNE01.JPG,AFNE01.JPG,AFNE01.JPG,AFNE01.JPG,AFNE01.JPG,AFNE01.JPG,1,7,17,2,,,,,,,,,,,,,,,,,,,,,,,AMNE08.jpg,AMSA17.jpg,AMNE07.jpg,AMSA16.jpg,AMSA17.jpg,MS,2,num_6,32,num_8,1.83338801982,,,2017_Nov_17_1151,60.0052541252,MAFE4ImagesEEG,001,101963,
AFNE01.JPG,AFNE01.JPG,AFNE01.JPG,AFNE01.JPG,AFNE01.JPG,AFNE01.JPG,1,8,18,9,,,,,,,,,,,,,,,,,,,,,,,AMSA13.jpg,AMNE08.jpg,AMNE04.jpg,AMSA07.jpg,AMSA13.jpg,MS,2,num_8,32,num_6,0.916725442279,,,2017_Nov_17_1151,60.0052541252,MAFE4ImagesEEG,001,101963,
AFNE01.JPG,AFNE01.JPG,AFNE01.JPG,AFNE01.JPG,AFNE01.JPG,AFNE01.JPG,1,9,19,6,,,,,,,,,,,,,,,,,,,,,,,AMSA02.jpg,AMNE15.jpg,AMSA07.jpg,AMNE07.jpg,AMSA07.jpg,MS,2,num_2,32,num_8,0.800133427605,,,2017_Nov_17_1151,60.0052541252,MAFE4ImagesEEG,001,101963,
AFNE01.JPG,AFNE01.JPG,AFNE01.JPG,AFNE01.JPG,AFNE01.JPG,AFNE01.JPG,2,0,20,4,,,,,,,,,,,,,,,,,,,,,,,AMNE20.jpg,AMSA07.jpg,AMSA06.jpg,AMNE19.jpg,AMNE19.jpg,MN,1,num_4,16,num_4,0.966733861715,,,2017_Nov_17_1151,60.0052541252,MAFE4ImagesEEG,001,101963,
AFNE01.JPG,AFNE01.JPG,AFNE01.JPG,AFNE01.JPG,AFNE01.JPG,AFNE01.JPG,2,1,21,3,,,,,,,,,,,,,,,,,,,,,,,AMNE05.jpg,AMSA18.jpg,AMNE12.jpg,AMSA06.jpg,AMSA18.jpg,MS,2,num_6,16,num_6,1.66674845526,,,2017_Nov_17_1151,60.0052541252,MAFE4ImagesEEG,001,101963,
AFNE01.JPG,AFNE01.JPG,AFNE01.JPG,AFNE01.JPG,AFNE01.JPG,AFNE01.JPG,2,2,22,8,,,,,,,,,,,,,,,,,,,,,,,AMNE08.jpg,AMSA11.jpg,AMNE19.jpg,AMSA17.jpg,AMSA17.jpg,MS,2,num_4,16,num_4,1.31674212078,,,2017_Nov_17_1151,60.0052541252,MAFE4ImagesEEG,001,101963,
AFNE01.JPG,AFNE01.JPG,AFNE01.JPG,AFNE01.JPG,AFNE01.JPG,AFNE01.JPG,2,3,23,0,,,,,,,,,,,,,,,,,,,,,,,AMSA01.jpg,AMNE01.jpg,AMNE16.jpg,AMSA04.jpg,AMSA04.jpg,MS,2,num_4,32,num_6,1.46672247536,,,2017_Nov_17_1151,60.0052541252,MAFE4ImagesEEG,001,101963,
AFNE01.JPG,AFNE01.JPG,AFNE01.JPG,AFNE01.JPG,AFNE01.JPG,AFNE01.JPG,2,4,24,1,,,,,,,,,,,,,,,,,,,,,,,AMNE03.jpg,AMNE04.jpg,AMSA13.jpg,AMSA17.jpg,AMSA13.jpg,MS,2,num_2,16,num_2,0.866672760807,,,2017_Nov_17_1151,60.0052541252,MAFE4ImagesEEG,001,101963,
AFNE01.JPG,AFNE01.JPG,AFNE01.JPG,AFNE01.JPG,AFNE01.JPG,AFNE01.JPG,2,5,25,6,,,,,,,,,,,,,,,,,,,,,,,AMNE10.jpg,AMSA19.jpg,AMNE08.jpg,AMSA13.jpg,AMSA19.jpg,MS,2,num_6,32,num_4,1.13342185738,,,2017_Nov_17_1151,60.0052541252,MAFE4ImagesEEG,001,101963,
AFNE01.JPG,AFNE01.JPG,AFNE01.JPG,AFNE01.JPG,AFNE01.JPG,AFNE01.JPG,2,6,26,5,,,,,,,,,,,,,,,,,,,,,,,AMNE06.jpg,AMNE15.jpg,AMSA15.jpg,AMSA03.jpg,AMSA03.jpg,MS,2,num_4,16,num_4,0.900154115167,,,2017_Nov_17_1151,60.0052541252,MAFE4ImagesEEG,001,101963,
AFNE01.JPG,AFNE01.JPG,AFNE01.JPG,AFNE01.JPG,AFNE01.JPG,AFNE01.JPG,2,7,27,9,,,,,,,,,,,,,,,,,,,,,,,AMSA06.jpg,AMNE04.jpg,AMSA15.jpg,AMNE02.jpg,AMSA06.jpg,MS,2,num_8,32,num_6,0.850140243303,,,2017_Nov_17_1151,60.0052541252,MAFE4ImagesEEG,001,101963,
AFNE01.JPG,AFNE01.JPG,AFNE01.JPG,AFNE01.JPG,AFNE01.JPG,AFNE01.JPG,2,8,28,7,,,,,,,,,,,,,,,,,,,,,,,AMSA05.jpg,AMSA17.jpg,AMNE10.jpg,AMNE07.jpg,AMNE07.jpg,MN,1,num_4,32,num_2,0.866763850674,,,2017_Nov_17_1151,60.0052541252,MAFE4ImagesEEG,001,101963,
AFNE01.JPG,AFNE01.JPG,AFNE01.JPG,AFNE01.JPG,AFNE01.JPG,AFNE01.JPG,2,9,29,2,,,,,,,,,,,,,,,,,,,,,,,AMSA03.jpg,AMNE07.jpg,AMSA02.jpg,AMNE03.jpg,AMSA03.jpg,MS,2,num_8,16,num_8,0.85012484761,,,2017_Nov_17_1151,60.0052541252,MAFE4ImagesEEG,001,101963,
AFNE01.JPG,AFNE01.JPG,AFNE01.JPG,AFNE01.JPG,AFNE01.JPG,AFNE01.JPG,3,0,30,7,,,,,,,,,,,,,,,,,,,,,,,AMNE10.jpg,AMSA04.jpg,AMSA16.jpg,AMNE09.jpg,AMSA04.jpg,MS,2,num_6,32,num_2,0.900143531151,,,2017_Nov_17_1151,60.0052541252,MAFE4ImagesEEG,001,101963,
AFNE01.JPG,AFNE01.JPG,AFNE01.JPG,AFNE01.JPG,AFNE01.JPG,AFNE01.JPG,3,1,31,6,,,,,,,,,,,,,,,,,,,,,,,AMNE12.jpg,AMSA19.jpg,AMSA15.jpg,AMNE08.jpg,AMNE08.jpg,MN,1,num_4,16,num_4,1.31669529295,,,2017_Nov_17_1151,60.0052541252,MAFE4ImagesEEG,001,101963,
AFNE01.JPG,AFNE01.JPG,AFNE01.JPG,AFNE01.JPG,AFNE01.JPG,AFNE01.JPG,3,2,32,8,,,,,,,,,,,,,,,,,,,,,,,AMSA13.jpg,AMNE10.jpg,AMSA07.jpg,AMNE09.jpg,AMSA07.jpg,MS,2,num_2,16,num_2,0.933456176426,,,2017_Nov_17_1151,60.0052541252,MAFE4ImagesEEG,001,101963,
AFNE01.JPG,AFNE01.JPG,AFNE01.JPG,AFNE01.JPG,AFNE01.JPG,AFNE01.JPG,3,3,33,1,,,,,,,,,,,,,,,,,,,,,,,AMNE14.jpg,AMNE02.jpg,AMSA10.jpg,AMSA11.jpg,AMNE02.jpg,MN,1,num_6,16,num_6,1.31672287593,,,2017_Nov_17_1151,60.0052541252,MAFE4ImagesEEG,001,101963,
AFNE01.JPG,AFNE01.JPG,AFNE01.JPG,AFNE01.JPG,AFNE01.JPG,AFNE01.JPG,3,4,34,0,,,,,,,,,,,,,,,,,,,,,,,AMSA03.jpg,AMSA19.jpg,AMNE17.jpg,AMNE01.jpg,AMNE17.jpg,MN,1,num_2,32,num_4,1.03342843242,,,2017_Nov_17_1151,60.0052541252,MAFE4ImagesEEG,001,101963,
AFNE01.JPG,AFNE01.JPG,AFNE01.JPG,AFNE01.JPG,AFNE01.JPG,AFNE01.JPG,3,5,35,5,,,,,,,,,,,,,,,,,,,,,,,AMSA12.jpg,AMNE19.jpg,AMSA13.jpg,AMNE10.jpg,AMNE19.jpg,MN,1,num_6,16,num_6,1.06677218992,,,2017_Nov_17_1151,60.0052541252,MAFE4ImagesEEG,001,101963,
AFNE01.JPG,AFNE01.JPG,AFNE01.JPG,AFNE01.JPG,AFNE01.JPG,AFNE01.JPG,3,6,36,9,,,,,,,,,,,,,,,,,,,,,,,AMSA03.jpg,AMNE10.jpg,AMSA01.jpg,AMNE07.jpg,AMSA03.jpg,MS,2,num_8,32,num_2,0.850106244907,,,2017_Nov_17_1151,60.0052541252,MAFE4ImagesEEG,001,101963,
AFNE01.JPG,AFNE01.JPG,AFNE01.JPG,AFNE01.JPG,AFNE01.JPG,AFNE01.JPG,3,7,37,3,,,,,,,,,,,,,,,,,,,,,,,AMNE17.jpg,AMNE05.jpg,AMSA13.jpg,AMSA09.jpg,AMSA09.jpg,MS,2,num_4,32,num_2,1.16684227157,,,2017_Nov_17_1151,60.0052541252,MAFE4ImagesEEG,001,101963,
AFNE01.JPG,AFNE01.JPG,AFNE01.JPG,AFNE01.JPG,AFNE01.JPG,AFNE01.JPG,3,8,38,4,,,,,,,,,,,,,,,,,,,,,,,AMNE04.jpg,AMSA07.jpg,AMNE11.jpg,AMSA15.jpg,AMSA15.jpg,MS,2,num_4,32,num_2,1.15036748722,,,2017_Nov_17_1151,60.0052541252,MAFE4ImagesEEG,001,101963,
AFNE01.JPG,AFNE01.JPG,AFNE01.JPG,AFNE01.JPG,AFNE01.JPG,AFNE01.JPG,3,9,39,2,,,,,,,,,,,,,,,,,,,,,,,AMSA08.jpg,AMNE10.jpg,AMNE05.jpg,AMSA06.jpg,AMSA06.jpg,MS,2,num_4,16,num_4,0.833466921467,,,2017_Nov_17_1151,60.0052541252,MAFE4ImagesEEG,001,101963,
AFNE01.JPG,AFNE01.JPG,AFNE01.JPG,AFNE01.JPG,AFNE01.JPG,AFNE01.JPG,4,0,40,7,,,,,,,,,,,,,,,,,,,,,,,AMNE05.jpg,AMSA18.jpg,AMNE19.jpg,AMSA08.jpg,AMSA18.jpg,MS,2,num_6,16,num_6,1.23332355078,,,2017_Nov_17_1151,60.0052541252,MAFE4ImagesEEG,001,101963,
AFNE01.JPG,AFNE01.JPG,AFNE01.JPG,AFNE01.JPG,AFNE01.JPG,AFNE01.JPG,4,1,41,1,,,,,,,,,,,,,,,,,,,,,,,AMSA01.jpg,AMNE10.jpg,AMNE08.jpg,AMSA11.jpg,AMSA01.jpg,MS,2,num_8,16,num_8,1.06659353804,,,2017_Nov_17_1151,60.0052541252,MAFE4ImagesEEG,001,101963,
AFNE01.JPG,AFNE01.JPG,AFNE01.JPG,AFNE01.JPG,AFNE01.JPG,AFNE01.JPG,4,2,42,4,,,,,,,,,,,,,,,,,,,,,,,AMNE10.jpg,AMNE19.jpg,AMSA14.jpg,AMSA19.jpg,AMSA19.jpg,MS,2,num_4,32,num_6,0.850149865262,,,2017_Nov_17_1151,60.0052541252,MAFE4ImagesEEG,001,101963,
AFNE01.JPG,AFNE01.JPG,AFNE01.JPG,AFNE01.JPG,AFNE01.JPG,AFNE01.JPG,4,3,43,0,,,,,,,,,,,,,,,,,,,,,,,AMNE07.jpg,AMSA15.jpg,AMSA18.jpg,AMNE13.jpg,AMSA18.jpg,MS,2,num_2,32,num_4,1.28343621083,,,2017_Nov_17_1151,60.0052541252,MAFE4ImagesEEG,001,101963,
AFNE01.JPG,AFNE01.JPG,AFNE01.JPG,AFNE01.JPG,AFNE01.JPG,AFNE01.JPG,4,4,44,3,,,,,,,,,,,,,,,,,,,,,,,AMNE18.jpg,AMNE04.jpg,AMSA19.jpg,AMSA12.jpg,AMSA19.jpg,MS,2,num_2,16,num_2,1.30296796327,,,2017_Nov_17_1151,60.0052541252,MAFE4ImagesEEG,001,101963,
AFNE01.JPG,AFNE01.JPG,AFNE01.JPG,AFNE01.JPG,AFNE01.JPG,AFNE01.JPG,4,5,45,8,,,,,,,,,,,,,,,,,,,,,,,AMSA18.jpg,AMSA09.jpg,AMNE19.jpg,AMNE02.jpg,AMNE02.jpg,MN,1,num_4,16,num_4,1.33341736672,,,2017_Nov_17_1151,60.0052541252,MAFE4ImagesEEG,001,101963,
AFNE01.JPG,AFNE01.JPG,AFNE01.JPG,AFNE01.JPG,AFNE01.JPG,AFNE01.JPG,4,6,46,9,,,,,,,,,,,,,,,,,,,,,,,AMNE03.jpg,AMSA02.jpg,AMSA07.jpg,AMNE16.jpg,AMSA02.jpg,MS,2,num_6,32,num_8,1.20006126119,,,2017_Nov_17_1151,60.0052541252,MAFE4ImagesEEG,001,101963,
AFNE01.JPG,AFNE01.JPG,AFNE01.JPG,AFNE01.JPG,AFNE01.JPG,AFNE01.JPG,4,7,47,5,,,,,,,,,,,,,,,,,,,,,,,AMNE16.jpg,AMSA15.jpg,AMNE14.jpg,AMSA01.jpg,AMSA15.jpg,MS,2,num_6,32,num_8,1.03352657892,,,2017_Nov_17_1151,60.0052541252,MAFE4ImagesEEG,001,101963,
AFNE01.JPG,AFNE01.JPG,AFNE01.JPG,AFNE01.JPG,AFNE01.JPG,AFNE01.JPG,4,8,48,2,,,,,,,,,,,,,,,,,,,,,,,AMSA07.jpg,AMSA01.jpg,AMNE02.jpg,AMNE06.jpg,AMNE02.jpg,MN,1,num_2,32,num_8,0.900111456867,,,2017_Nov_17_1151,60.0052541252,MAFE4ImagesEEG,001,101963,
AFNE01.JPG,AFNE01.JPG,AFNE01.JPG,AFNE01.JPG,AFNE01.JPG,AFNE01.JPG,4,9,49,6,,,,,,,,,,,,,,,,,,,,,,,AMNE07.jpg,AMNE08.jpg,AMSA11.jpg,AMSA17.jpg,AMNE07.jpg,MN,1,num_8,32,num_2,1.28349298099,,,2017_Nov_17_1151,60.0052541252,MAFE4ImagesEEG,001,101963,
AFNE01.JPG,AFNE01.JPG,AFNE01.JPG,AFNE01.JPG,AFNE01.JPG,AFNE01.JPG,5,0,50,4,,,,,,,,,,,,,,,,,,,,,,,AMSA09.jpg,AMSA11.jpg,AMNE12.jpg,AMNE20.jpg,AMSA09.jpg,MS,2,num_8,16,num_8,0.900135832839,,,2017_Nov_17_1151,60.0052541252,MAFE4ImagesEEG,001,101963,
AFNE01.JPG,AFNE01.JPG,AFNE01.JPG,AFNE01.JPG,AFNE01.JPG,AFNE01.JPG,5,1,51,7,,,,,,,,,,,,,,,,,,,,,,,AMNE10.jpg,AMNE08.jpg,AMSA05.jpg,AMSA19.jpg,AMNE10.jpg,MN,1,num_8,32,num_4,0.516789590474,,,2017_Nov_17_1151,60.0052541252,MAFE4ImagesEEG,001,101963,
AFNE01.JPG,AFNE01.JPG,AFNE01.JPG,AFNE01.JPG,AFNE01.JPG,AFNE01.JPG,5,2,52,1,,,,,,,,,,,,,,,,,,,,,,,AMSA03.jpg,AMNE02.jpg,AMNE11.jpg,AMSA04.jpg,AMNE02.jpg,MN,1,num_6,32,num_2,1.36683361139,,,2017_Nov_17_1151,60.0052541252,MAFE4ImagesEEG,001,101963,
AFNE01.JPG,AFNE01.JPG,AFNE01.JPG,AFNE01.JPG,AFNE01.JPG,AFNE01.JPG,5,3,53,8,,,,,,,,,,,,,,,,,,,,,,,AMSA20.jpg,AMSA14.jpg,AMNE12.jpg,AMNE08.jpg,AMSA14.jpg,MS,2,num_6,16,num_6,1.15007112361,,,2017_Nov_17_1151,60.0052541252,MAFE4ImagesEEG,001,101963,
AFNE01.JPG,AFNE01.JPG,AFNE01.JPG,AFNE01.JPG,AFNE01.JPG,AFNE01.JPG,5,4,54,9,,,,,,,,,,,,,,,,,,,,,,,AMSA18.jpg,AMSA17.jpg,AMNE13.jpg,AMNE08.jpg,AMNE08.jpg,MN,1,num_4,16,num_4,1.21660051402,,,2017_Nov_17_1151,60.0052541252,MAFE4ImagesEEG,001,101963,
AFNE01.JPG,AFNE01.JPG,AFNE01.JPG,AFNE01.JPG,AFNE01.JPG,AFNE01.JPG,5,5,55,5,,,,,,,,,,,,,,,,,,,,,,,AMNE12.jpg,AMNE01.jpg,AMSA17.jpg,AMSA14.jpg,AMNE01.jpg,MN,1,num_6,32,num_2,1.48340349505,,,2017_Nov_17_1151,60.0052541252,MAFE4ImagesEEG,001,101963,
AFNE01.JPG,AFNE01.JPG,AFNE01.JPG,AFNE01.JPG,AFNE01.JPG,AFNE01.JPG,5,6,56,0,,,,,,,,,,,,,,,,,,,,,,,AMSA09.jpg,AMSA16.jpg,AMNE06.jpg,AMNE13.jpg,AMNE13.jpg,MN,1,num_4,32,num_6,1.98303352203,,,2017_Nov_17_1151,60.0052541252,MAFE4ImagesEEG,001,101963,
AFNE01.JPG,AFNE01.JPG,AFNE01.JPG,AFNE01.JPG,AFNE01.JPG,AFNE01.JPG,5,7,57,2,,,,,,,,,,,,,,,,,,,,,,,AMSA06.jpg,AMSA20.jpg,AMNE13.jpg,AMNE05.jpg,AMNE13.jpg,MN,1,num_2,32,num_6,1.20015780395,,,2017_Nov_17_1151,60.0052541252,MAFE4ImagesEEG,001,101963,
AFNE01.JPG,AFNE01.JPG,AFNE01.JPG,AFNE01.JPG,AFNE01.JPG,AFNE01.JPG,5,8,58,6,,,,,,,,,,,,,,,,,,,,,,,AMSA10.jpg,AMNE17.jpg,AMSA17.jpg,AMNE11.jpg,AMNE17.jpg,MN,1,num_6,32,num_2,1.03354935162,,,2017_Nov_17_1151,60.0052541252,MAFE4ImagesEEG,001,101963,
AFNE01.JPG,AFNE01.JPG,AFNE01.JPG,AFNE01.JPG,AFNE01.JPG,AFNE01.JPG,5,9,59,3,,,,,,,,,,,,,,,,,,,,,,,AMSA10.jpg,AMNE06.jpg,AMSA14.jpg,AMNE05.jpg,AMSA14.jpg,MS,2,num_2,16,num_2,4.55015387479,,,2017_Nov_17_1151,60.0052541252,MAFE4ImagesEEG,001,101963,
,,,,,,,,,,,,,,,,,,,,,,,,,,,,,,,,,,,,,,,,,,,space,4.98322468298,2017_Nov_17_1151,60.0052541252,MAFE4ImagesEEG,001,101963,
AFNE01.JPG,AFNE01.JPG,AFNE01.JPG,AFNE01.JPG,AFNE01.JPG,AFNE01.JPG,,,,,0,0,0,6,,,,,,,,,,,,,,,,,,,AFSA04.jpg,AFSA16.jpg,AFNE04.jpg,AFNE16.jpg,AFSA16.jpg,FS,4,num_6,32,num_4,1.10013422975,,,2017_Nov_17_1151,60.0052541252,MAFE4ImagesEEG,001,101963,
AFNE01.JPG,AFNE01.JPG,AFNE01.JPG,AFNE01.JPG,AFNE01.JPG,AFNE01.JPG,,,,,0,1,1,5,,,,,,,,,,,,,,,,,,,AFNE08.jpg,AFSA17.jpg,AFSA12.jpg,AFNE07.jpg,AFSA12.jpg,FS,4,num_2,16,num_2,0.866807150189,,,2017_Nov_17_1151,60.0052541252,MAFE4ImagesEEG,001,101963,
AFNE01.JPG,AFNE01.JPG,AFNE01.JPG,AFNE01.JPG,AFNE01.JPG,AFNE01.JPG,,,,,0,2,2,8,,,,,,,,,,,,,,,,,,,AFSA02.jpg,AFNE05.jpg,AFNE18.jpg,AFSA10.jpg,AFNE05.jpg,FN,3,num_6,16,num_6,0.566769143101,,,2017_Nov_17_1151,60.0052541252,MAFE4ImagesEEG,001,101963,
AFNE01.JPG,AFNE01.JPG,AFNE01.JPG,AFNE01.JPG,AFNE01.JPG,AFNE01.JPG,,,,,0,3,3,7,,,,,,,,,,,,,,,,,,,AFSA05.jpg,AFNE12.jpg,AFSA03.jpg,AFNE14.jpg,AFSA03.jpg,FS,4,num_2,32,num_8,1.40008242987,,,2017_Nov_17_1151,60.0052541252,MAFE4ImagesEEG,001,101963,
AFNE01.JPG,AFNE01.JPG,AFNE01.JPG,AFNE01.JPG,AFNE01.JPG,AFNE01.JPG,,,,,0,4,4,3,,,,,,,,,,,,,,,,,,,AFSA07.jpg,AFNE18.jpg,AFNE17.jpg,AFSA18.jpg,AFSA18.jpg,FS,4,num_4,32,num_8,1.70004634699,,,2017_Nov_17_1151,60.0052541252,MAFE4ImagesEEG,001,101963,
AFNE01.JPG,AFNE01.JPG,AFNE01.JPG,AFNE01.JPG,AFNE01.JPG,AFNE01.JPG,,,,,0,5,5,0,,,,,,,,,,,,,,,,,,,AFNE17.jpg,AFNE14.jpg,AFSA14.jpg,AFSA07.jpg,AFNE17.jpg,FN,3,num_8,32,num_6,1.0664325268,,,2017_Nov_17_1151,60.0052541252,MAFE4ImagesEEG,001,101963,
AFNE01.JPG,AFNE01.JPG,AFNE01.JPG,AFNE01.JPG,AFNE01.JPG,AFNE01.JPG,,,,,0,6,6,9,,,,,,,,,,,,,,,,,,,AFNE12.jpg,AFNE10.jpg,AFSA03.jpg,AFSA05.jpg,AFNE10.jpg,FN,3,num_6,32,num_4,3.09995269077,,,2017_Nov_17_1151,60.0052541252,MAFE4ImagesEEG,001,101963,
AFNE01.JPG,AFNE01.JPG,AFNE01.JPG,AFNE01.JPG,AFNE01.JPG,AFNE01.JPG,,,,,0,7,7,2,,,,,,,,,,,,,,,,,,,AFNE09.jpg,AFSA06.jpg,AFNE03.jpg,AFSA01.jpg,AFNE03.jpg,FN,3,num_2,32,num_6,1.68370851828,,,2017_Nov_17_1151,60.0052541252,MAFE4ImagesEEG,001,101963,
AFNE01.JPG,AFNE01.JPG,AFNE01.JPG,AFNE01.JPG,AFNE01.JPG,AFNE01.JPG,,,,,0,8,8,4,,,,,,,,,,,,,,,,,,,AFNE13.jpg,AFSA17.jpg,AFSA13.jpg,AFNE18.jpg,AFNE18.jpg,FN,3,num_4,32,num_2,1.18342546606,,,2017_Nov_17_1151,60.0052541252,MAFE4ImagesEEG,001,101963,
AFNE01.JPG,AFNE01.JPG,AFNE01.JPG,AFNE01.JPG,AFNE01.JPG,AFNE01.JPG,,,,,0,9,9,1,,,,,,,,,,,,,,,,,,,AFNE20.jpg,AFSA01.jpg,AFSA07.jpg,AFNE01.jpg,AFSA07.jpg,FS,4,num_2,16,num_2,0.916812683456,,,2017_Nov_17_1151,60.0052541252,MAFE4ImagesEEG,001,101963,
AFNE01.JPG,AFNE01.JPG,AFNE01.JPG,AFNE01.JPG,AFNE01.JPG,AFNE01.JPG,,,,,1,0,10,9,,,,,,,,,,,,,,,,,,,AFSA12.jpg,AFSA19.jpg,AFNE20.jpg,AFNE03.jpg,AFNE03.jpg,FN,3,num_4,16,num_4,0.966761445161,,,2017_Nov_17_1151,60.0052541252,MAFE4ImagesEEG,001,101963,
AFNE01.JPG,AFNE01.JPG,AFNE01.JPG,AFNE01.JPG,AFNE01.JPG,AFNE01.JPG,,,,,1,1,11,2,,,,,,,,,,,,,,,,,,,AFSA09.jpg,AFSA08.jpg,AFNE02.jpg,AFNE19.jpg,AFNE19.jpg,FN,3,num_4,16,num_4,1.31675495021,,,2017_Nov_17_1151,60.0052541252,MAFE4ImagesEEG,001,101963,
AFNE01.JPG,AFNE01.JPG,AFNE01.JPG,AFNE01.JPG,AFNE01.JPG,AFNE01.JPG,,,,,1,2,12,6,,,,,,,,,,,,,,,,,,,AFNE15.jpg,AFNE03.jpg,AFSA08.jpg,AFSA09.jpg,AFSA08.jpg,FS,4,num_2,32,num_4,1.08346636035,,,2017_Nov_17_1151,60.0052541252,MAFE4ImagesEEG,001,101963,
AFNE01.JPG,AFNE01.JPG,AFNE01.JPG,AFNE01.JPG,AFNE01.JPG,AFNE01.JPG,,,,,1,3,13,3,,,,,,,,,,,,,,,,,,,AFNE03.jpg,AFNE14.jpg,AFSA08.jpg,AFSA05.jpg,AFNE14.jpg,FN,3,num_6,16,num_6,2.11663082382,,,2017_Nov_17_1151,60.0052541252,MAFE4ImagesEEG,001,101963,
AFNE01.JPG,AFNE01.JPG,AFNE01.JPG,AFNE01.JPG,AFNE01.JPG,AFNE01.JPG,,,,,1,4,14,4,,,,,,,,,,,,,,,,,,,AFNE03.jpg,AFSA12.jpg,AFSA05.jpg,AFNE02.jpg,AFSA05.jpg,FS,4,num_2,16,num_2,0.866769944783,,,2017_Nov_17_1151,60.0052541252,MAFE4ImagesEEG,001,101963,
AFNE01.JPG,AFNE01.JPG,AFNE01.JPG,AFNE01.JPG,AFNE01.JPG,AFNE01.JPG,,,,,1,5,15,7,,,,,,,,,,,,,,,,,,,AFNE06.jpg,AFSA08.jpg,AFSA14.jpg,AFNE10.jpg,AFNE06.jpg,FN,3,num_8,16,num_8,1.63305605436,,,2017_Nov_17_1151,60.0052541252,MAFE4ImagesEEG,001,101963,
AFNE01.JPG,AFNE01.JPG,AFNE01.JPG,AFNE01.JPG,AFNE01.JPG,AFNE01.JPG,,,,,1,6,16,8,,,,,,,,,,,,,,,,,,,AFSA06.jpg,AFNE07.jpg,AFNE12.jpg,AFSA05.jpg,AFSA06.jpg,FS,4,num_8,32,num_4,0.950099349022,,,2017_Nov_17_1151,60.0052541252,MAFE4ImagesEEG,001,101963,
AFNE01.JPG,AFNE01.JPG,AFNE01.JPG,AFNE01.JPG,AFNE01.JPG,AFNE01.JPG,,,,,1,7,17,0,,,,,,,,,,,,,,,,,,,AFNE17.jpg,AFSA13.jpg,AFSA02.jpg,AFNE20.jpg,AFSA02.jpg,FS,4,num_2,32,num_8,1.16670948546,,,2017_Nov_17_1151,60.0052541252,MAFE4ImagesEEG,001,101963,
AFNE01.JPG,AFNE01.JPG,AFNE01.JPG,AFNE01.JPG,AFNE01.JPG,AFNE01.JPG,,,,,1,8,18,1,,,,,,,,,,,,,,,,,,,AFSA14.jpg,AFNE17.jpg,AFNE01.jpg,AFSA07.jpg,AFNE17.jpg,FN,3,num_6,16,num_6,0.850212730467,,,2017_Nov_17_1151,60.0052541252,MAFE4ImagesEEG,001,101963,
AFNE01.JPG,AFNE01.JPG,AFNE01.JPG,AFNE01.JPG,AFNE01.JPG,AFNE01.JPG,,,,,1,9,19,5,,,,,,,,,,,,,,,,,,,AFSA18.jpg,AFSA16.jpg,AFNE08.jpg,AFNE14.jpg,AFSA16.jpg,FS,4,num_6,16,num_6,0.783459143713,,,2017_Nov_17_1151,60.0052541252,MAFE4ImagesEEG,001,101963,
AFNE01.JPG,AFNE01.JPG,AFNE01.JPG,AFNE01.JPG,AFNE01.JPG,AFNE01.JPG,,,,,2,0,20,7,,,,,,,,,,,,,,,,,,,AFNE05.jpg,AFSA10.jpg,AFNE14.jpg,AFSA19.jpg,AFSA10.jpg,FS,4,num_6,32,num_8,0.933443026152,,,2017_Nov_17_1151,60.0052541252,MAFE4ImagesEEG,001,101963,
AFNE01.JPG,AFNE01.JPG,AFNE01.JPG,AFNE01.JPG,AFNE01.JPG,AFNE01.JPG,,,,,2,1,21,1,,,,,,,,,,,,,,,,,,,AFNE08.jpg,AFSA02.jpg,AFNE06.jpg,AFSA01.jpg,AFSA02.jpg,FS,4,num_6,32,num_8,4.86645978969,,,2017_Nov_17_1151,60.0052541252,MAFE4ImagesEEG,001,101963,
AFNE01.JPG,AFNE01.JPG,AFNE01.JPG,AFNE01.JPG,AFNE01.JPG,AFNE01.JPG,,,,,2,2,22,3,,,,,,,,,,,,,,,,,,,AFSA20.jpg,AFNE09.jpg,AFNE15.jpg,AFSA18.jpg,AFSA18.jpg,FS,4,num_4,16,num_4,1.16673931433,,,2017_Nov_17_1151,60.0052541252,MAFE4ImagesEEG,001,101963,
AFNE01.JPG,AFNE01.JPG,AFNE01.JPG,AFNE01.JPG,AFNE01.JPG,AFNE01.JPG,,,,,2,3,23,9,,,,,,,,,,,,,,,,,,,AFNE17.jpg,AFSA16.jpg,AFNE19.jpg,AFSA19.jpg,AFSA19.jpg,FS,4,num_4,32,num_6,1.50007393071,,,2017_Nov_17_1151,60.0052541252,MAFE4ImagesEEG,001,101963,
AFNE01.JPG,AFNE01.JPG,AFNE01.JPG,AFNE01.JPG,AFNE01.JPG,AFNE01.JPG,,,,,2,4,24,2,,,,,,,,,,,,,,,,,,,AFNE03.jpg,AFSA09.jpg,AFSA17.jpg,AFNE01.jpg,AFSA09.jpg,FS,4,num_6,32,num_8,1.96670691948,,,2017_Nov_17_1151,60.0052541252,MAFE4ImagesEEG,001,101963,
AFNE01.JPG,AFNE01.JPG,AFNE01.JPG,AFNE01.JPG,AFNE01.JPG,AFNE01.JPG,,,,,2,5,25,8,,,,,,,,,,,,,,,,,,,AFNE05.jpg,AFSA06.jpg,AFSA12.jpg,AFNE12.jpg,AFSA06.jpg,FS,4,num_6,16,num_6,0.983444068581,,,2017_Nov_17_1151,60.0052541252,MAFE4ImagesEEG,001,101963,
AFNE01.JPG,AFNE01.JPG,AFNE01.JPG,AFNE01.JPG,AFNE01.JPG,AFNE01.JPG,,,,,2,6,26,5,,,,,,,,,,,,,,,,,,,AFSA12.jpg,AFSA14.jpg,AFNE02.jpg,AFNE13.jpg,AFSA14.jpg,FS,4,num_6,32,num_8,2.25005139876,,,2017_Nov_17_1151,60.0052541252,MAFE4ImagesEEG,001,101963,
AFNE01.JPG,AFNE01.JPG,AFNE01.JPG,AFNE01.JPG,AFNE01.JPG,AFNE01.JPG,,,,,2,7,27,4,,,,,,,,,,,,,,,,,,,AFSA14.jpg,AFNE15.jpg,AFSA12.jpg,AFNE09.jpg,AFSA12.jpg,FS,4,num_2,32,num_4,1.8003608319,,,2017_Nov_17_1151,60.0052541252,MAFE4ImagesEEG,001,101963,
AFNE01.JPG,AFNE01.JPG,AFNE01.JPG,AFNE01.JPG,AFNE01.JPG,AFNE01.JPG,,,,,2,8,28,0,,,,,,,,,,,,,,,,,,,AFSA04.jpg,AFNE19.jpg,AFNE18.jpg,AFSA19.jpg,AFSA04.jpg,FS,4,num_8,16,num_8,0.8667179849,,,2017_Nov_17_1151,60.0052541252,MAFE4ImagesEEG,001,101963,
AFNE01.JPG,AFNE01.JPG,AFNE01.JPG,AFNE01.JPG,AFNE01.JPG,AFNE01.JPG,,,,,2,9,29,6,,,,,,,,,,,,,,,,,,,AFNE06.jpg,AFSA01.jpg,AFNE03.jpg,AFSA16.jpg,AFNE06.jpg,FN,3,num_8,32,num_6,3.76639644383,,,2017_Nov_17_1151,60.0052541252,MAFE4ImagesEEG,001,101963,
AFNE01.JPG,AFNE01.JPG,AFNE01.JPG,AFNE01.JPG,AFNE01.JPG,AFNE01.JPG,,,,,3,0,30,7,,,,,,,,,,,,,,,,,,,AFNE09.jpg,AFSA17.jpg,AFSA15.jpg,AFNE08.jpg,AFSA17.jpg,FS,4,num_6,32,num_8,1.41670924472,,,2017_Nov_17_1151,60.0052541252,MAFE4ImagesEEG,001,101963,
AFNE01.JPG,AFNE01.JPG,AFNE01.JPG,AFNE01.JPG,AFNE01.JPG,AFNE01.JPG,,,,,3,1,31,4,,,,,,,,,,,,,,,,,,,AFSA18.jpg,AFNE13.jpg,AFSA09.jpg,AFNE14.jpg,AFSA09.jpg,FS,4,num_2,32,num_4,1.15012436686,,,2017_Nov_17_1151,60.0052541252,MAFE4ImagesEEG,001,101963,
AFNE01.JPG,AFNE01.JPG,AFNE01.JPG,AFNE01.JPG,AFNE01.JPG,AFNE01.JPG,,,,,3,2,32,8,,,,,,,,,,,,,,,,,,,AFNE09.jpg,AFSA05.jpg,AFNE17.jpg,AFSA07.jpg,AFNE17.jpg,FN,3,num_2,16,num_2,2.31663050363,,,2017_Nov_17_1151,60.0052541252,MAFE4ImagesEEG,001,101963,
AFNE01.JPG,AFNE01.JPG,AFNE01.JPG,AFNE01.JPG,AFNE01.JPG,AFNE01.JPG,,,,,3,3,33,9,,,,,,,,,,,,,,,,,,,AFSA10.jpg,AFNE06.jpg,AFNE18.jpg,AFSA09.jpg,AFSA10.jpg,FS,4,num_8,32,num_4,0.850195731502,,,2017_Nov_17_1151,60.0052541252,MAFE4ImagesEEG,001,101963,
AFNE01.JPG,AFNE01.JPG,AFNE01.JPG,AFNE01.JPG,AFNE01.JPG,AFNE01.JPG,,,,,3,4,34,3,,,,,,,,,,,,,,,,,,,AFSA06.jpg,AFSA17.jpg,AFNE20.jpg,AFNE19.jpg,AFSA17.jpg,FS,4,num_6,16,num_6,0.500169510953,,,2017_Nov_17_1151,60.0052541252,MAFE4ImagesEEG,001,101963,
AFNE01.JPG,AFNE01.JPG,AFNE01.JPG,AFNE01.JPG,AFNE01.JPG,AFNE01.JPG,,,,,3,5,35,0,,,,,,,,,,,,,,,,,,,AFSA11.jpg,AFNE10.jpg,AFSA16.jpg,AFNE02.jpg,AFSA11.jpg,FS,4,num_8,16,num_8,1.76684932783,,,2017_Nov_17_1151,60.0052541252,MAFE4ImagesEEG,001,101963,
AFNE01.JPG,AFNE01.JPG,AFNE01.JPG,AFNE01.JPG,AFNE01.JPG,AFNE01.JPG,,,,,3,6,36,6,,,,,,,,,,,,,,,,,,,AFNE04.jpg,AFNE17.jpg,AFSA05.jpg,AFSA19.jpg,AFSA19.jpg,FS,4,num_4,32,num_2,1.18341840943,,,2017_Nov_17_1151,60.0052541252,MAFE4ImagesEEG,001,101963,
AFNE01.JPG,AFNE01.JPG,AFNE01.JPG,AFNE01.JPG,AFNE01.JPG,AFNE01.JPG,,,,,3,7,37,5,,,,,,,,,,,,,,,,,,,AFSA12.jpg,AFNE09.jpg,AFNE08.jpg,AFSA06.jpg,AFNE08.jpg,FN,3,num_2,32,num_6,2.26668302435,,,2017_Nov_17_1151,60.0052541252,MAFE4ImagesEEG,001,101963,
AFNE01.JPG,AFNE01.JPG,AFNE01.JPG,AFNE01.JPG,AFNE01.JPG,AFNE01.JPG,,,,,3,8,38,2,,,,,,,,,,,,,,,,,,,AFSA04.jpg,AFSA08.jpg,AFNE18.jpg,AFNE03.jpg,AFSA08.jpg,FS,4,num_6,48,None,,,,2017_Nov_17_1151,60.0052541252,MAFE4ImagesEEG,001,101963,
AFNE01.JPG,AFNE01.JPG,AFNE01.JPG,AFNE01.JPG,AFNE01.JPG,AFNE01.JPG,,,,,3,9,39,1,,,,,,,,,,,,,,,,,,,AFNE03.jpg,AFSA01.jpg,AFNE06.jpg,AFSA17.jpg,AFNE06.jpg,FN,3,num_2,16,num_2,1.38341071177,,,2017_Nov_17_1151,60.0052541252,MAFE4ImagesEEG,001,101963,
AFNE01.JPG,AFNE01.JPG,AFNE01.JPG,AFNE01.JPG,AFNE01.JPG,AFNE01.JPG,,,,,4,0,40,4,,,,,,,,,,,,,,,,,,,AFNE11.jpg,AFNE19.jpg,AFSA04.jpg,AFSA07.jpg,AFNE19.jpg,FN,3,num_6,32,num_2,2.11667059548,,,2017_Nov_17_1151,60.0052541252,MAFE4ImagesEEG,001,101963,
AFNE01.JPG,AFNE01.JPG,AFNE01.JPG,AFNE01.JPG,AFNE01.JPG,AFNE01.JPG,,,,,4,1,41,9,,,,,,,,,,,,,,,,,,,AFSA12.jpg,AFNE12.jpg,AFNE18.jpg,AFSA11.jpg,AFNE12.jpg,FN,3,num_6,16,num_6,1.26683537569,,,2017_Nov_17_1151,60.0052541252,MAFE4ImagesEEG,001,101963,
AFNE01.JPG,AFNE01.JPG,AFNE01.JPG,AFNE01.JPG,AFNE01.JPG,AFNE01.JPG,,,,,4,2,42,6,,,,,,,,,,,,,,,,,,,AFSA08.jpg,AFNE16.jpg,AFNE01.jpg,AFSA15.jpg,AFNE16.jpg,FN,3,num_6,16,num_6,1.70005179942,,,2017_Nov_17_1151,60.0052541252,MAFE4ImagesEEG,001,101963,
AFNE01.JPG,AFNE01.JPG,AFNE01.JPG,AFNE01.JPG,AFNE01.JPG,AFNE01.JPG,,,,,4,3,43,2,,,,,,,,,,,,,,,,,,,AFSA04.jpg,AFNE03.jpg,AFNE17.jpg,AFSA02.jpg,AFNE17.jpg,FN,3,num_2,32,num_8,2.31678991066,,,2017_Nov_17_1151,60.0052541252,MAFE4ImagesEEG,001,101963,
AFNE01.JPG,AFNE01.JPG,AFNE01.JPG,AFNE01.JPG,AFNE01.JPG,AFNE01.JPG,,,,,4,4,44,1,,,,,,,,,,,,,,,,,,,AFSA16.jpg,AFNE14.jpg,AFNE20.jpg,AFSA14.jpg,AFNE14.jpg,FN,3,num_6,32,num_8,1.5002012644,,,2017_Nov_17_1151,60.0052541252,MAFE4ImagesEEG,001,101963,
AFNE01.JPG,AFNE01.JPG,AFNE01.JPG,AFNE01.JPG,AFNE01.JPG,AFNE01.JPG,,,,,4,5,45,8,,,,,,,,,,,,,,,,,,,AFSA06.jpg,AFNE17.jpg,AFNE04.jpg,AFSA18.jpg,AFNE04.jpg,FN,3,num_2,32,num_8,1.18340493832,,,2017_Nov_17_1151,60.0052541252,MAFE4ImagesEEG,001,101963,
AFNE01.JPG,AFNE01.JPG,AFNE01.JPG,AFNE01.JPG,AFNE01.JPG,AFNE01.JPG,,,,,4,6,46,5,,,,,,,,,,,,,,,,,,,AFNE03.jpg,AFSA03.jpg,AFNE12.jpg,AFSA14.jpg,AFSA14.jpg,FS,4,num_4,16,num_4,1.18348159501,,,2017_Nov_17_1151,60.0052541252,MAFE4ImagesEEG,001,101963,
AFNE01.JPG,AFNE01.JPG,AFNE01.JPG,AFNE01.JPG,AFNE01.JPG,AFNE01.JPG,,,,,4,7,47,3,,,,,,,,,,,,,,,,,,,AFSA14.jpg,AFNE04.jpg,AFSA19.jpg,AFNE07.jpg,AFSA19.jpg,FS,4,num_2,32,num_6,0.55015932722,,,2017_Nov_17_1151,60.0052541252,MAFE4ImagesEEG,001,101963,
AFNE01.JPG,AFNE01.JPG,AFNE01.JPG,AFNE01.JPG,AFNE01.JPG,AFNE01.JPG,,,,,4,8,48,7,,,,,,,,,,,,,,,,,,,AFNE19.jpg,AFSA13.jpg,AFSA16.jpg,AFNE06.jpg,AFNE06.jpg,FN,3,num_4,32,num_2,2.95002365485,,,2017_Nov_17_1151,60.0052541252,MAFE4ImagesEEG,001,101963,
AFNE01.JPG,AFNE01.JPG,AFNE01.JPG,AFNE01.JPG,AFNE01.JPG,AFNE01.JPG,,,,,4,9,49,0,,,,,,,,,,,,,,,,,,,AFSA08.jpg,AFNE20.jpg,AFNE17.jpg,AFSA03.jpg,AFSA08.jpg,FS,4,num_8,32,num_2,1.53343981877,,,2017_Nov_17_1151,60.0052541252,MAFE4ImagesEEG,001,101963,
AFNE01.JPG,AFNE01.JPG,AFNE01.JPG,AFNE01.JPG,AFNE01.JPG,AFNE01.JPG,,,,,5,0,50,4,,,,,,,,,,,,,,,,,,,AFSA10.jpg,AFSA04.jpg,AFNE19.jpg,AFNE04.jpg,AFNE19.jpg,FN,3,num_2,32,num_4,1.60007922258,,,2017_Nov_17_1151,60.0052541252,MAFE4ImagesEEG,001,101963,
AFNE01.JPG,AFNE01.JPG,AFNE01.JPG,AFNE01.JPG,AFNE01.JPG,AFNE01.JPG,,,,,5,1,51,7,,,,,,,,,,,,,,,,,,,AFSA01.jpg,AFNE11.jpg,AFNE19.jpg,AFSA04.jpg,AFNE19.jpg,FN,3,num_2,16,num_2,2.49997995421,,,2017_Nov_17_1151,60.0052541252,MAFE4ImagesEEG,001,101963,
AFNE01.JPG,AFNE01.JPG,AFNE01.JPG,AFNE01.JPG,AFNE01.JPG,AFNE01.JPG,,,,,5,2,52,8,,,,,,,,,,,,,,,,,,,AFNE02.jpg,AFSA08.jpg,AFNE20.jpg,AFSA16.jpg,AFNE20.jpg,FN,3,num_2,32,num_6,0.950108970981,,,2017_Nov_17_1151,60.0052541252,MAFE4ImagesEEG,001,101963,
AFNE01.JPG,AFNE01.JPG,AFNE01.JPG,AFNE01.JPG,AFNE01.JPG,AFNE01.JPG,,,,,5,3,53,5,,,,,,,,,,,,,,,,,,,AFSA01.jpg,AFNE10.jpg,AFSA14.jpg,AFNE05.jpg,AFNE10.jpg,FN,3,num_6,32,num_8,1.0334605067,,,2017_Nov_17_1151,60.0052541252,MAFE4ImagesEEG,001,101963,
AFNE01.JPG,AFNE01.JPG,AFNE01.JPG,AFNE01.JPG,AFNE01.JPG,AFNE01.JPG,,,,,5,4,54,2,,,,,,,,,,,,,,,,,,,AFSA03.jpg,AFSA09.jpg,AFNE16.jpg,AFNE05.jpg,AFSA09.jpg,FS,4,num_6,32,num_8,4.81649467023,,,2017_Nov_17_1151,60.0052541252,MAFE4ImagesEEG,001,101963,
AFNE01.JPG,AFNE01.JPG,AFNE01.JPG,AFNE01.JPG,AFNE01.JPG,AFNE01.JPG,,,,,5,5,55,9,,,,,,,,,,,,,,,,,,,AFSA02.jpg,AFSA10.jpg,AFNE03.jpg,AFNE01.jpg,AFSA10.jpg,FS,4,num_6,32,num_4,0.483488811646,,,2017_Nov_17_1151,60.0052541252,MAFE4ImagesEEG,001,101963,
AFNE01.JPG,AFNE01.JPG,AFNE01.JPG,AFNE01.JPG,AFNE01.JPG,AFNE01.JPG,,,,,5,6,56,3,,,,,,,,,,,,,,,,,,,AFSA10.jpg,AFSA15.jpg,AFNE10.jpg,AFNE20.jpg,AFSA15.jpg,FS,4,num_6,16,num_6,0.533490174916,,,2017_Nov_17_1151,60.0052541252,MAFE4ImagesEEG,001,101963,
AFNE01.JPG,AFNE01.JPG,AFNE01.JPG,AFNE01.JPG,AFNE01.JPG,AFNE01.JPG,,,,,5,7,57,1,,,,,,,,,,,,,,,,,,,AFNE07.jpg,AFSA10.jpg,AFSA02.jpg,AFNE09.jpg,AFNE07.jpg,FN,3,num_8,16,num_8,2.21664637979,,,2017_Nov_17_1151,60.0052541252,MAFE4ImagesEEG,001,101963,
AFNE01.JPG,AFNE01.JPG,AFNE01.JPG,AFNE01.JPG,AFNE01.JPG,AFNE01.JPG,,,,,5,8,58,6,,,,,,,,,,,,,,,,,,,AFSA04.jpg,AFNE07.jpg,AFSA11.jpg,AFNE03.jpg,AFNE03.jpg,FN,3,num_4,16,num_4,0.983441823162,,,2017_Nov_17_1151,60.0052541252,MAFE4ImagesEEG,001,101963,
AFNE01.JPG,AFNE01.JPG,AFNE01.JPG,AFNE01.JPG,AFNE01.JPG,AFNE01.JPG,,,,,5,9,59,0,,,,,,,,,,,,,,,,,,,AFNE09.jpg,AFSA12.jpg,AFSA19.jpg,AFNE08.jpg,AFSA12.jpg,FS,4,num_6,16,num_6,1.13346323278,,,2017_Nov_17_1151,60.0052541252,MAFE4ImagesEEG,001,101963,
,,,,,,,,,,,,,,,,,,,,,,,,,,,,,,,,,,,,,,,,,,,space,34.0138440789,2017_Nov_17_1151,60.0052541252,MAFE4ImagesEEG,001,101963,
AFNE01.JPG,AFNE01.JPG,AFNE01.JPG,AFNE01.JPG,AFNE01.JPG,AFNE01.JPG,,,,,,,,,0,0,0,5,,,,,,,,,,,,,,,AMNE13.jpg,AMSA14.jpg,AMNE05.jpg,AMSA09.jpg,AMNE05.jpg,MN,1,num_2,32,num_8,1.25010335818,,,2017_Nov_17_1151,60.0052541252,MAFE4ImagesEEG,001,101963,
AFNE01.JPG,AFNE01.JPG,AFNE01.JPG,AFNE01.JPG,AFNE01.JPG,AFNE01.JPG,,,,,,,,,0,1,1,0,,,,,,,,,,,,,,,AMSA03.jpg,AMSA10.jpg,AMNE17.jpg,AMNE18.jpg,AMSA03.jpg,MS,2,num_8,16,num_8,0.616786542814,,,2017_Nov_17_1151,60.0052541252,MAFE4ImagesEEG,001,101963,
AFNE01.JPG,AFNE01.JPG,AFNE01.JPG,AFNE01.JPG,AFNE01.JPG,AFNE01.JPG,,,,,,,,,0,2,2,8,,,,,,,,,,,,,,,AMNE09.jpg,AMNE02.jpg,AMSA12.jpg,AMSA08.jpg,AMNE09.jpg,MN,1,num_8,32,num_6,0.85027719941,,,2017_Nov_17_1151,60.0052541252,MAFE4ImagesEEG,001,101963,
AFNE01.JPG,AFNE01.JPG,AFNE01.JPG,AFNE01.JPG,AFNE01.JPG,AFNE01.JPG,,,,,,,,,0,3,3,2,,,,,,,,,,,,,,,AMNE07.jpg,AMSA07.jpg,AMNE03.jpg,AMSA16.jpg,AMNE03.jpg,MN,1,num_2,32,num_6,1.90007521352,,,2017_Nov_17_1151,60.0052541252,MAFE4ImagesEEG,001,101963,
AFNE01.JPG,AFNE01.JPG,AFNE01.JPG,AFNE01.JPG,AFNE01.JPG,AFNE01.JPG,,,,,,,,,0,4,4,9,,,,,,,,,,,,,,,AMSA12.jpg,AMNE03.jpg,AMNE02.jpg,AMSA14.jpg,AMSA12.jpg,MS,2,num_8,32,num_2,0.950132705737,,,2017_Nov_17_1151,60.0052541252,MAFE4ImagesEEG,001,101963,
AFNE01.JPG,AFNE01.JPG,AFNE01.JPG,AFNE01.JPG,AFNE01.JPG,AFNE01.JPG,,,,,,,,,0,5,5,4,,,,,,,,,,,,,,,AMSA09.jpg,AMNE13.jpg,AMSA01.jpg,AMNE03.jpg,AMNE13.jpg,MN,1,num_6,32,num_4,1.91667444445,,,2017_Nov_17_1151,60.0052541252,MAFE4ImagesEEG,001,101963,
AFNE01.JPG,AFNE01.JPG,AFNE01.JPG,AFNE01.JPG,AFNE01.JPG,AFNE01.JPG,,,,,,,,,0,6,6,1,,,,,,,,,,,,,,,AMSA03.jpg,AMNE12.jpg,AMSA12.jpg,AMNE09.jpg,AMSA03.jpg,MS,2,num_8,48,None,,,,2017_Nov_17_1151,60.0052541252,MAFE4ImagesEEG,001,101963,
AFNE01.JPG,AFNE01.JPG,AFNE01.JPG,AFNE01.JPG,AFNE01.JPG,AFNE01.JPG,,,,,,,,,0,7,7,3,,,,,,,,,,,,,,,AMNE18.jpg,AMNE11.jpg,AMSA20.jpg,AMSA10.jpg,AMSA10.jpg,MS,2,num_4,48,None,,,,2017_Nov_17_1151,60.0052541252,MAFE4ImagesEEG,001,101963,
AFNE01.JPG,AFNE01.JPG,AFNE01.JPG,AFNE01.JPG,AFNE01.JPG,AFNE01.JPG,,,,,,,,,0,8,8,7,,,,,,,,,,,,,,,AMSA19.jpg,AMNE04.jpg,AMNE02.jpg,AMSA04.jpg,AMNE02.jpg,MN,1,num_2,32,num_4,1.43342330074,,,2017_Nov_17_1151,60.0052541252,MAFE4ImagesEEG,001,101963,
AFNE01.JPG,AFNE01.JPG,AFNE01.JPG,AFNE01.JPG,AFNE01.JPG,AFNE01.JPG,,,,,,,,,0,9,9,6,,,,,,,,,,,,,,,AMSA16.jpg,AMNE04.jpg,AMNE10.jpg,AMSA18.jpg,AMSA18.jpg,MS,2,num_4,32,num_8,1.0667753974,,,2017_Nov_17_1151,60.0052541252,MAFE4ImagesEEG,001,101963,
AFNE01.JPG,AFNE01.JPG,AFNE01.JPG,AFNE01.JPG,AFNE01.JPG,AFNE01.JPG,,,,,,,,,1,0,10,4,,,,,,,,,,,,,,,AMSA04.jpg,AMNE14.jpg,AMNE19.jpg,AMSA07.jpg,AMNE14.jpg,MN,1,num_6,32,num_4,1.38347421819,,,2017_Nov_17_1151,60.0052541252,MAFE4ImagesEEG,001,101963,
AFNE01.JPG,AFNE01.JPG,AFNE01.JPG,AFNE01.JPG,AFNE01.JPG,AFNE01.JPG,,,,,,,,,1,1,11,8,,,,,,,,,,,,,,,AMSA03.jpg,AMNE01.jpg,AMNE05.jpg,AMSA06.jpg,AMNE01.jpg,MN,1,num_6,16,num_6,1.98338152422,,,2017_Nov_17_1151,60.0052541252,MAFE4ImagesEEG,001,101963,
AFNE01.JPG,AFNE01.JPG,AFNE01.JPG,AFNE01.JPG,AFNE01.JPG,AFNE01.JPG,,,,,,,,,1,2,12,1,,,,,,,,,,,,,,,AMSA17.jpg,AMNE07.jpg,AMSA01.jpg,AMNE17.jpg,AMSA01.jpg,MS,2,num_2,16,num_2,1.15008908557,,,2017_Nov_17_1151,60.0052541252,MAFE4ImagesEEG,001,101963,
AFNE01.JPG,AFNE01.JPG,AFNE01.JPG,AFNE01.JPG,AFNE01.JPG,AFNE01.JPG,,,,,,,,,1,3,13,3,,,,,,,,,,,,,,,AMSA03.jpg,AMNE16.jpg,AMNE10.jpg,AMSA18.jpg,AMSA03.jpg,MS,2,num_8,32,num_6,2.53335706796,,,2017_Nov_17_1151,60.0052541252,MAFE4ImagesEEG,001,101963,
AFNE01.JPG,AFNE01.JPG,AFNE01.JPG,AFNE01.JPG,AFNE01.JPG,AFNE01.JPG,,,,,,,,,1,4,14,2,,,,,,,,,,,,,,,AMSA15.jpg,AMNE07.jpg,AMSA05.jpg,AMNE14.jpg,AMSA05.jpg,MS,2,num_2,16,num_2,0.950103519019,,,2017_Nov_17_1151,60.0052541252,MAFE4ImagesEEG,001,101963,
AFNE01.JPG,AFNE01.JPG,AFNE01.JPG,AFNE01.JPG,AFNE01.JPG,AFNE01.JPG,,,,,,,,,1,5,15,6,,,,,,,,,,,,,,,AMSA18.jpg,AMSA15.jpg,AMNE19.jpg,AMNE06.jpg,AMSA18.jpg,MS,2,num_8,16,num_8,1.1001204378,,,2017_Nov_17_1151,60.0052541252,MAFE4ImagesEEG,001,101963,
AFNE01.JPG,AFNE01.JPG,AFNE01.JPG,AFNE01.JPG,AFNE01.JPG,AFNE01.JPG,,,,,,,,,1,6,16,7,,,,,,,,,,,,,,,AMNE07.jpg,AMNE12.jpg,AMSA09.jpg,AMSA19.jpg,AMNE12.jpg,MN,1,num_6,48,None,,,,2017_Nov_17_1151,60.0052541252,MAFE4ImagesEEG,001,101963,
AFNE01.JPG,AFNE01.JPG,AFNE01.JPG,AFNE01.JPG,AFNE01.JPG,AFNE01.JPG,,,,,,,,,1,7,17,5,,,,,,,,,,,,,,,AMSA01.jpg,AMNE13.jpg,AMNE04.jpg,AMSA13.jpg,AMSA13.jpg,MS,2,num_4,16,num_4,0.650225559715,,,2017_Nov_17_1151,60.0052541252,MAFE4ImagesEEG,001,101963,
AFNE01.JPG,AFNE01.JPG,AFNE01.JPG,AFNE01.JPG,AFNE01.JPG,AFNE01.JPG,,,,,,,,,1,8,18,0,,,,,,,,,,,,,,,AMNE15.jpg,AMSA13.jpg,AMNE19.jpg,AMSA06.jpg,AMSA06.jpg,MS,2,num_4,16,num_4,0.51679760823,,,2017_Nov_17_1151,60.0052541252,MAFE4ImagesEEG,001,101963,
AFNE01.JPG,AFNE01.JPG,AFNE01.JPG,AFNE01.JPG,AFNE01.JPG,AFNE01.JPG,,,,,,,,,1,9,19,9,,,,,,,,,,,,,,,AMSA20.jpg,AMNE17.jpg,AMSA06.jpg,AMNE14.jpg,AMNE17.jpg,MN,1,num_6,32,num_8,1.18344887951,,,2017_Nov_17_1151,60.0052541252,MAFE4ImagesEEG,001,101963,
AFNE01.JPG,AFNE01.JPG,AFNE01.JPG,AFNE01.JPG,AFNE01.JPG,AFNE01.JPG,,,,,,,,,2,0,20,8,,,,,,,,,,,,,,,AMNE17.jpg,AMSA06.jpg,AMSA03.jpg,AMNE18.jpg,AMNE17.jpg,MN,1,num_8,32,num_4,0.750113782473,,,2017_Nov_17_1151,60.0052541252,MAFE4ImagesEEG,001,101963,
AFNE01.JPG,AFNE01.JPG,AFNE01.JPG,AFNE01.JPG,AFNE01.JPG,AFNE01.JPG,,,,,,,,,2,1,21,9,,,,,,,,,,,,,,,AMNE01.jpg,AMSA20.jpg,AMNE05.jpg,AMSA03.jpg,AMSA03.jpg,MS,2,num_4,32,num_2,2.0166832651,,,2017_Nov_17_1151,60.0052541252,MAFE4ImagesEEG,001,101963,
AFNE01.JPG,AFNE01.JPG,AFNE01.JPG,AFNE01.JPG,AFNE01.JPG,AFNE01.JPG,,,,,,,,,2,2,22,7,,,,,,,,,,,,,,,AMNE03.jpg,AMNE09.jpg,AMSA13.jpg,AMSA11.jpg,AMNE09.jpg,MN,1,num_6,16,num_6,1.28345064353,,,2017_Nov_17_1151,60.0052541252,MAFE4ImagesEEG,001,101963,
AFNE01.JPG,AFNE01.JPG,AFNE01.JPG,AFNE01.JPG,AFNE01.JPG,AFNE01.JPG,,,,,,,,,2,3,23,2,,,,,,,,,,,,,,,AMSA19.jpg,AMNE15.jpg,AMNE18.jpg,AMSA14.jpg,AMSA19.jpg,MS,2,num_8,16,num_8,0.933443667367,,,2017_Nov_17_1151,60.0052541252,MAFE4ImagesEEG,001,101963,
AFNE01.JPG,AFNE01.JPG,AFNE01.JPG,AFNE01.JPG,AFNE01.JPG,AFNE01.JPG,,,,,,,,,2,4,24,0,,,,,,,,,,,,,,,AMNE13.jpg,AMNE15.jpg,AMSA15.jpg,AMSA06.jpg,AMSA06.jpg,MS,2,num_4,16,num_4,2.40002822503,,,2017_Nov_17_1151,60.0052541252,MAFE4ImagesEEG,001,101963,
AFNE01.JPG,AFNE01.JPG,AFNE01.JPG,AFNE01.JPG,AFNE01.JPG,AFNE01.JPG,,,,,,,,,2,5,25,1,,,,,,,,,,,,,,,AMNE20.jpg,AMNE05.jpg,AMSA04.jpg,AMSA01.jpg,AMSA01.jpg,MS,2,num_4,16,num_4,0.949929357506,,,2017_Nov_17_1151,60.0052541252,MAFE4ImagesEEG,001,101963,
AFNE01.JPG,AFNE01.JPG,AFNE01.JPG,AFNE01.JPG,AFNE01.JPG,AFNE01.JPG,,,,,,,,,2,6,26,6,,,,,,,,,,,,,,,AMSA07.jpg,AMSA05.jpg,AMNE14.jpg,AMNE18.jpg,AMNE18.jpg,MN,1,num_4,16,num_4,2.68329861341,,,2017_Nov_17_1151,60.0052541252,MAFE4ImagesEEG,001,101963,
AFNE01.JPG,AFNE01.JPG,AFNE01.JPG,AFNE01.JPG,AFNE01.JPG,AFNE01.JPG,,,,,,,,,2,7,27,3,,,,,,,,,,,,,,,AMNE16.jpg,AMSA12.jpg,AMNE11.jpg,AMSA16.jpg,AMNE16.jpg,MN,1,num_8,48,None,,,,2017_Nov_17_1151,60.0052541252,MAFE4ImagesEEG,001,101963,
AFNE01.JPG,AFNE01.JPG,AFNE01.JPG,AFNE01.JPG,AFNE01.JPG,AFNE01.JPG,,,,,,,,,2,8,28,5,,,,,,,,,,,,,,,AMNE20.jpg,AMSA07.jpg,AMSA02.jpg,AMNE05.jpg,AMNE20.jpg,MN,1,num_8,32,num_6,0.633476864081,,,2017_Nov_17_1151,60.0052541252,MAFE4ImagesEEG,001,101963,
AFNE01.JPG,AFNE01.JPG,AFNE01.JPG,AFNE01.JPG,AFNE01.JPG,AFNE01.JPG,,,,,,,,,2,9,29,4,,,,,,,,,,,,,,,AMNE03.jpg,AMSA19.jpg,AMSA13.jpg,AMNE04.jpg,AMSA13.jpg,MS,2,num_2,32,num_8,0.650001363363,,,2017_Nov_17_1151,60.0052541252,MAFE4ImagesEEG,001,101963,
AFNE01.JPG,AFNE01.JPG,AFNE01.JPG,AFNE01.JPG,AFNE01.JPG,AFNE01.JPG,,,,,,,,,3,0,30,2,,,,,,,,,,,,,,,AMNE11.jpg,AMNE01.jpg,AMSA15.jpg,AMSA17.jpg,AMSA17.jpg,MS,2,num_4,32,num_2,1.60010969313,,,2017_Nov_17_1151,60.0052541252,MAFE4ImagesEEG,001,101963,
AFNE01.JPG,AFNE01.JPG,AFNE01.JPG,AFNE01.JPG,AFNE01.JPG,AFNE01.JPG,,,,,,,,,3,1,31,4,,,,,,,,,,,,,,,AMNE04.jpg,AMNE02.jpg,AMSA13.jpg,AMSA11.jpg,AMNE04.jpg,MN,1,num_8,16,num_8,0.883440059144,,,2017_Nov_17_1151,60.0052541252,MAFE4ImagesEEG,001,101963,
AFNE01.JPG,AFNE01.JPG,AFNE01.JPG,AFNE01.JPG,AFNE01.JPG,AFNE01.JPG,,,,,,,,,3,2,32,0,,,,,,,,,,,,,,,AMSA06.jpg,AMNE05.jpg,AMSA16.jpg,AMNE20.jpg,AMNE05.jpg,MN,1,num_6,32,num_8,0.66680811299,,,2017_Nov_17_1151,60.0052541252,MAFE4ImagesEEG,001,101963,
AFNE01.JPG,AFNE01.JPG,AFNE01.JPG,AFNE01.JPG,AFNE01.JPG,AFNE01.JPG,,,,,,,,,3,3,33,1,,,,,,,,,,,,,,,AMSA13.jpg,AMSA16.jpg,AMNE15.jpg,AMNE17.jpg,AMSA13.jpg,MS,2,num_8,32,num_6,3.04993112152,,,2017_Nov_17_1151,60.0052541252,MAFE4ImagesEEG,001,101963,
AFNE01.JPG,AFNE01.JPG,AFNE01.JPG,AFNE01.JPG,AFNE01.JPG,AFNE01.JPG,,,,,,,,,3,4,34,8,,,,,,,,,,,,,,,AMSA14.jpg,AMNE12.jpg,AMSA18.jpg,AMNE13.jpg,AMNE12.jpg,MN,1,num_6,16,num_6,1.10008002492,,,2017_Nov_17_1151,60.0052541252,MAFE4ImagesEEG,001,101963,
AFNE01.JPG,AFNE01.JPG,AFNE01.JPG,AFNE01.JPG,AFNE01.JPG,AFNE01.JPG,,,,,,,,,3,5,35,5,,,,,,,,,,,,,,,AMSA09.jpg,AMNE10.jpg,AMSA20.jpg,AMNE04.jpg,AMNE04.jpg,MN,1,num_4,16,num_4,1.30006623268,,,2017_Nov_17_1151,60.0052541252,MAFE4ImagesEEG,001,101963,
AFNE01.JPG,AFNE01.JPG,AFNE01.JPG,AFNE01.JPG,AFNE01.JPG,AFNE01.JPG,,,,,,,,,3,6,36,9,,,,,,,,,,,,,,,AMNE18.jpg,AMSA13.jpg,AMSA18.jpg,AMNE20.jpg,AMSA18.jpg,MS,2,num_2,16,num_2,1.30008291127,,,2017_Nov_17_1151,60.0052541252,MAFE4ImagesEEG,001,101963,
AFNE01.JPG,AFNE01.JPG,AFNE01.JPG,AFNE01.JPG,AFNE01.JPG,AFNE01.JPG,,,,,,,,,3,7,37,3,,,,,,,,,,,,,,,AMNE20.jpg,AMSA11.jpg,AMNE15.jpg,AMSA06.jpg,AMSA11.jpg,MS,2,num_6,16,num_6,0.883470850531,,,2017_Nov_17_1151,60.0052541252,MAFE4ImagesEEG,001,101963,
AFNE01.JPG,AFNE01.JPG,AFNE01.JPG,AFNE01.JPG,AFNE01.JPG,AFNE01.JPG,,,,,,,,,3,8,38,7,,,,,,,,,,,,,,,AMNE18.jpg,AMNE10.jpg,AMSA19.jpg,AMSA14.jpg,AMNE10.jpg,MN,1,num_6,16,num_6,2.16664854484,,,2017_Nov_17_1151,60.0052541252,MAFE4ImagesEEG,001,101963,
AFNE01.JPG,AFNE01.JPG,AFNE01.JPG,AFNE01.JPG,AFNE01.JPG,AFNE01.JPG,,,,,,,,,3,9,39,6,,,,,,,,,,,,,,,AMNE12.jpg,AMNE11.jpg,AMSA10.jpg,AMSA12.jpg,AMSA10.jpg,MS,2,num_2,32,num_8,0.700128776953,,,2017_Nov_17_1151,60.0052541252,MAFE4ImagesEEG,001,101963,
AFNE01.JPG,AFNE01.JPG,AFNE01.JPG,AFNE01.JPG,AFNE01.JPG,AFNE01.JPG,,,,,,,,,4,0,40,5,,,,,,,,,,,,,,,AMNE19.jpg,AMNE15.jpg,AMSA17.jpg,AMSA07.jpg,AMSA07.jpg,MS,2,num_4,32,num_8,0.783445672598,,,2017_Nov_17_1151,60.0052541252,MAFE4ImagesEEG,001,101963,
AFNE01.JPG,AFNE01.JPG,AFNE01.JPG,AFNE01.JPG,AFNE01.JPG,AFNE01.JPG,,,,,,,,,4,1,41,6,,,,,,,,,,,,,,,AMSA16.jpg,AMNE08.jpg,AMSA18.jpg,AMNE15.jpg,AMNE08.jpg,MN,1,num_6,32,num_4,0.866650629789,,,2017_Nov_17_1151,60.0052541252,MAFE4ImagesEEG,001,101963,
AFNE01.JPG,AFNE01.JPG,AFNE01.JPG,AFNE01.JPG,AFNE01.JPG,AFNE01.JPG,,,,,,,,,4,2,42,4,,,,,,,,,,,,,,,AMNE02.jpg,AMNE12.jpg,AMSA03.jpg,AMSA09.jpg,AMSA09.jpg,MS,2,num_4,32,num_8,1.31668855716,,,2017_Nov_17_1151,60.0052541252,MAFE4ImagesEEG,001,101963,
AFNE01.JPG,AFNE01.JPG,AFNE01.JPG,AFNE01.JPG,AFNE01.JPG,AFNE01.JPG,,,,,,,,,4,3,43,1,,,,,,,,,,,,,,,AMNE01.jpg,AMNE18.jpg,AMSA16.jpg,AMSA02.jpg,AMSA02.jpg,MS,2,num_4,32,num_6,1.03344735596,,,2017_Nov_17_1151,60.0052541252,MAFE4ImagesEEG,001,101963,
AFNE01.JPG,AFNE01.JPG,AFNE01.JPG,AFNE01.JPG,AFNE01.JPG,AFNE01.JPG,,,,,,,,,4,4,44,7,,,,,,,,,,,,,,,AMNE04.jpg,AMSA01.jpg,AMSA16.jpg,AMNE01.jpg,AMSA16.jpg,MS,2,num_2,32,num_8,1.55008363258,,,2017_Nov_17_1151,60.0052541252,MAFE4ImagesEEG,001,101963,
AFNE01.JPG,AFNE01.JPG,AFNE01.JPG,AFNE01.JPG,AFNE01.JPG,AFNE01.JPG,,,,,,,,,4,5,45,3,,,,,,,,,,,,,,,AMNE11.jpg,AMNE03.jpg,AMSA18.jpg,AMSA01.jpg,AMNE03.jpg,MN,1,num_6,32,num_4,1.89975928469,,,2017_Nov_17_1151,60.0052541252,MAFE4ImagesEEG,001,101963,
AFNE01.JPG,AFNE01.JPG,AFNE01.JPG,AFNE01.JPG,AFNE01.JPG,AFNE01.JPG,,,,,,,,,4,6,46,9,,,,,,,,,,,,,,,AMNE01.jpg,AMNE13.jpg,AMSA16.jpg,AMSA05.jpg,AMNE01.jpg,MN,1,num_8,32,num_6,1.11678317562,,,2017_Nov_17_1151,60.0052541252,MAFE4ImagesEEG,001,101963,
AFNE01.JPG,AFNE01.JPG,AFNE01.JPG,AFNE01.JPG,AFNE01.JPG,AFNE01.JPG,,,,,,,,,4,7,47,2,,,,,,,,,,,,,,,AMSA19.jpg,AMSA17.jpg,AMNE08.jpg,AMNE11.jpg,AMNE08.jpg,MN,1,num_2,48,None,,,,2017_Nov_17_1151,60.0052541252,MAFE4ImagesEEG,001,101963,
AFNE01.JPG,AFNE01.JPG,AFNE01.JPG,AFNE01.JPG,AFNE01.JPG,AFNE01.JPG,,,,,,,,,4,8,48,0,,,,,,,,,,,,,,,AMSA03.jpg,AMNE10.jpg,AMSA10.jpg,AMNE19.jpg,AMSA10.jpg,MS,2,num_2,32,num_4,1.10006751586,,,2017_Nov_17_1151,60.0052541252,MAFE4ImagesEEG,001,101963,
AFNE01.JPG,AFNE01.JPG,AFNE01.JPG,AFNE01.JPG,AFNE01.JPG,AFNE01.JPG,,,,,,,,,4,9,49,8,,,,,,,,,,,,,,,AMNE07.jpg,AMSA16.jpg,AMNE02.jpg,AMSA07.jpg,AMSA07.jpg,MS,2,num_4,32,num_6,1.01674933732,,,2017_Nov_17_1151,60.0052541252,MAFE4ImagesEEG,001,101963,
AFNE01.JPG,AFNE01.JPG,AFNE01.JPG,AFNE01.JPG,AFNE01.JPG,AFNE01.JPG,,,,,,,,,5,0,50,4,,,,,,,,,,,,,,,AMNE06.jpg,AMSA08.jpg,AMSA06.jpg,AMNE03.jpg,AMNE03.jpg,MN,1,num_4,16,num_4,1.00011771126,,,2017_Nov_17_1151,60.0052541252,MAFE4ImagesEEG,001,101963,
AFNE01.JPG,AFNE01.JPG,AFNE01.JPG,AFNE01.JPG,AFNE01.JPG,AFNE01.JPG,,,,,,,,,5,1,51,1,,,,,,,,,,,,,,,AMSA15.jpg,AMSA04.jpg,AMNE16.jpg,AMNE18.jpg,AMNE18.jpg,MN,1,num_4,32,num_2,1.11671966873,,,2017_Nov_17_1151,60.0052541252,MAFE4ImagesEEG,001,101963,
AFNE01.JPG,AFNE01.JPG,AFNE01.JPG,AFNE01.JPG,AFNE01.JPG,AFNE01.JPG,,,,,,,,,5,2,52,5,,,,,,,,,,,,,,,AMSA11.jpg,AMSA04.jpg,AMNE16.jpg,AMNE04.jpg,AMSA04.jpg,MS,2,num_6,16,num_6,1.43343805475,,,2017_Nov_17_1151,60.0052541252,MAFE4ImagesEEG,001,101963,
AFNE01.JPG,AFNE01.JPG,AFNE01.JPG,AFNE01.JPG,AFNE01.JPG,AFNE01.JPG,,,,,,,,,5,3,53,7,,,,,,,,,,,,,,,AMSA06.jpg,AMNE05.jpg,AMNE10.jpg,AMSA11.jpg,AMNE10.jpg,MN,1,num_2,32,num_8,1.14995629899,,,2017_Nov_17_1151,60.0052541252,MAFE4ImagesEEG,001,101963,
AFNE01.JPG,AFNE01.JPG,AFNE01.JPG,AFNE01.JPG,AFNE01.JPG,AFNE01.JPG,,,,,,,,,5,4,54,6,,,,,,,,,,,,,,,AMNE08.jpg,AMSA20.jpg,AMSA09.jpg,AMNE03.jpg,AMSA09.jpg,MS,2,num_2,16,num_2,1.00009910855,,,2017_Nov_17_1151,60.0052541252,MAFE4ImagesEEG,001,101963,
AFNE01.JPG,AFNE01.JPG,AFNE01.JPG,AFNE01.JPG,AFNE01.JPG,AFNE01.JPG,,,,,,,,,5,5,55,3,,,,,,,,,,,,,,,AMNE18.jpg,AMNE12.jpg,AMSA18.jpg,AMSA05.jpg,AMNE18.jpg,MN,1,num_8,32,num_2,3.59991981508,,,2017_Nov_17_1151,60.0052541252,MAFE4ImagesEEG,001,101963,
AFNE01.JPG,AFNE01.JPG,AFNE01.JPG,AFNE01.JPG,AFNE01.JPG,AFNE01.JPG,,,,,,,,,5,6,56,8,,,,,,,,,,,,,,,AMSA05.jpg,AMSA03.jpg,AMNE19.jpg,AMNE09.jpg,AMNE09.jpg,MN,1,num_4,32,num_6,1.86665287474,,,2017_Nov_17_1151,60.0052541252,MAFE4ImagesEEG,001,101963,
AFNE01.JPG,AFNE01.JPG,AFNE01.JPG,AFNE01.JPG,AFNE01.JPG,AFNE01.JPG,,,,,,,,,5,7,57,0,,,,,,,,,,,,,,,AMSA08.jpg,AMNE13.jpg,AMNE12.jpg,AMSA12.jpg,AMNE13.jpg,MN,1,num_6,32,num_8,0.616842672229,,,2017_Nov_17_1151,60.0052541252,MAFE4ImagesEEG,001,101963,
AFNE01.JPG,AFNE01.JPG,AFNE01.JPG,AFNE01.JPG,AFNE01.JPG,AFNE01.JPG,,,,,,,,,5,8,58,9,,,,,,,,,,,,,,,AMSA05.jpg,AMNE15.jpg,AMSA14.jpg,AMNE02.jpg,AMSA14.jpg,MS,2,num_2,48,None,,,,2017_Nov_17_1151,60.0052541252,MAFE4ImagesEEG,001,101963,
AFNE01.JPG,AFNE01.JPG,AFNE01.JPG,AFNE01.JPG,AFNE01.JPG,AFNE01.JPG,,,,,,,,,5,9,59,2,,,,,,,,,,,,,,,AMSA13.jpg,AMSA11.jpg,AMNE19.jpg,AMNE13.jpg,AMNE19.jpg,MN,1,num_2,32,num_4,1.55008202884,,,2017_Nov_17_1151,60.0052541252,MAFE4ImagesEEG,001,101963,
,,,,,,,,,,,,,,,,,,,,,,,,,,,,,,,,,,,,,,,,,,,space,42.8634964777,2017_Nov_17_1151,60.0052541252,MAFE4ImagesEEG,001,101963,
AFNE01.JPG,AFNE01.JPG,AFNE01.JPG,AFNE01.JPG,AFNE01.JPG,AFNE01.JPG,,,,,,,,,,,,,0,0,0,1,,,,,,,,,,,AFNE19.jpg,AFNE18.jpg,AFSA01.jpg,AFSA07.jpg,AFNE19.jpg,FN,3,num_8,32,num_2,1.30010343855,,,2017_Nov_17_1151,60.0052541252,MAFE4ImagesEEG,001,101963,
AFNE01.JPG,AFNE01.JPG,AFNE01.JPG,AFNE01.JPG,AFNE01.JPG,AFNE01.JPG,,,,,,,,,,,,,0,1,1,3,,,,,,,,,,,AFNE19.jpg,AFNE06.jpg,AFSA15.jpg,AFSA01.jpg,AFNE19.jpg,FN,3,num_8,16,num_8,0.950116348453,,,2017_Nov_17_1151,60.0052541252,MAFE4ImagesEEG,001,101963,
AFNE01.JPG,AFNE01.JPG,AFNE01.JPG,AFNE01.JPG,AFNE01.JPG,AFNE01.JPG,,,,,,,,,,,,,0,2,2,8,,,,,,,,,,,AFNE10.jpg,AFSA11.jpg,AFNE19.jpg,AFSA01.jpg,AFNE19.jpg,FN,3,num_2,16,num_2,0.816605966538,,,2017_Nov_17_1151,60.0052541252,MAFE4ImagesEEG,001,101963,
AFNE01.JPG,AFNE01.JPG,AFNE01.JPG,AFNE01.JPG,AFNE01.JPG,AFNE01.JPG,,,,,,,,,,,,,0,3,3,9,,,,,,,,,,,AFNE14.jpg,AFSA18.jpg,AFNE17.jpg,AFSA05.jpg,AFNE14.jpg,FN,3,num_8,32,num_4,1.13343147933,,,2017_Nov_17_1151,60.0052541252,MAFE4ImagesEEG,001,101963,
AFNE01.JPG,AFNE01.JPG,AFNE01.JPG,AFNE01.JPG,AFNE01.JPG,AFNE01.JPG,,,,,,,,,,,,,0,4,4,4,,,,,,,,,,,AFNE02.jpg,AFSA17.jpg,AFSA06.jpg,AFNE04.jpg,AFSA06.jpg,FS,4,num_2,32,num_8,0.716774515342,,,2017_Nov_17_1151,60.0052541252,MAFE4ImagesEEG,001,101963,
AFNE01.JPG,AFNE01.JPG,AFNE01.JPG,AFNE01.JPG,AFNE01.JPG,AFNE01.JPG,,,,,,,,,,,,,0,5,5,2,,,,,,,,,,,AFNE16.jpg,AFSA17.jpg,AFNE11.jpg,AFSA18.jpg,AFSA18.jpg,FS,4,num_4,16,num_4,0.400106164627,,,2017_Nov_17_1151,60.0052541252,MAFE4ImagesEEG,001,101963,
AFNE01.JPG,AFNE01.JPG,AFNE01.JPG,AFNE01.JPG,AFNE01.JPG,AFNE01.JPG,,,,,,,,,,,,,0,6,6,7,,,,,,,,,,,AFNE03.jpg,AFSA04.jpg,AFNE19.jpg,AFSA11.jpg,AFNE19.jpg,FN,3,num_2,32,num_6,1.53343532886,,,2017_Nov_17_1151,60.0052541252,MAFE4ImagesEEG,001,101963,
AFNE01.JPG,AFNE01.JPG,AFNE01.JPG,AFNE01.JPG,AFNE01.JPG,AFNE01.JPG,,,,,,,,,,,,,0,7,7,6,,,,,,,,,,,AFSA06.jpg,AFNE20.jpg,AFSA13.jpg,AFNE09.jpg,AFNE09.jpg,FN,3,num_4,32,num_2,0.700141286012,,,2017_Nov_17_1151,60.0052541252,MAFE4ImagesEEG,001,101963,
AFNE01.JPG,AFNE01.JPG,AFNE01.JPG,AFNE01.JPG,AFNE01.JPG,AFNE01.JPG,,,,,,,,,,,,,0,8,8,0,,,,,,,,,,,AFNE03.jpg,AFNE16.jpg,AFSA11.jpg,AFSA20.jpg,AFSA20.jpg,FS,4,num_4,32,num_8,0.53349306155,,,2017_Nov_17_1151,60.0052541252,MAFE4ImagesEEG,001,101963,
AFNE01.JPG,AFNE01.JPG,AFNE01.JPG,AFNE01.JPG,AFNE01.JPG,AFNE01.JPG,,,,,,,,,,,,,0,9,9,5,,,,,,,,,,,AFSA09.jpg,AFNE06.jpg,AFSA20.jpg,AFNE07.jpg,AFSA09.jpg,FS,4,num_8,16,num_8,0.550214494579,,,2017_Nov_17_1151,60.0052541252,MAFE4ImagesEEG,001,101963,
AFNE01.JPG,AFNE01.JPG,AFNE01.JPG,AFNE01.JPG,AFNE01.JPG,AFNE01.JPG,,,,,,,,,,,,,1,0,10,9,,,,,,,,,,,AFSA11.jpg,AFNE18.jpg,AFNE12.jpg,AFSA03.jpg,AFSA03.jpg,FS,4,num_4,32,num_8,0.4500963022,,,2017_Nov_17_1151,60.0052541252,MAFE4ImagesEEG,001,101963,
AFNE01.JPG,AFNE01.JPG,AFNE01.JPG,AFNE01.JPG,AFNE01.JPG,AFNE01.JPG,,,,,,,,,,,,,1,1,11,8,,,,,,,,,,,AFSA09.jpg,AFNE12.jpg,AFSA10.jpg,AFNE02.jpg,AFSA09.jpg,FS,4,num_8,32,num_4,0.916737309657,,,2017_Nov_17_1151,60.0052541252,MAFE4ImagesEEG,001,101963,
AFNE01.JPG,AFNE01.JPG,AFNE01.JPG,AFNE01.JPG,AFNE01.JPG,AFNE01.JPG,,,,,,,,,,,,,1,2,12,0,,,,,,,,,,,AFNE16.jpg,AFSA08.jpg,AFNE05.jpg,AFSA16.jpg,AFSA16.jpg,FS,4,num_4,32,num_2,2.86663651746,,,2017_Nov_17_1151,60.0052541252,MAFE4ImagesEEG,001,101963,
AFNE01.JPG,AFNE01.JPG,AFNE01.JPG,AFNE01.JPG,AFNE01.JPG,AFNE01.JPG,,,,,,,,,,,,,1,3,13,3,,,,,,,,,,,AFNE12.jpg,AFSA02.jpg,AFNE15.jpg,AFSA05.jpg,AFSA02.jpg,FS,4,num_6,32,num_2,1.90005404502,,,2017_Nov_17_1151,60.0052541252,MAFE4ImagesEEG,001,101963,
AFNE01.JPG,AFNE01.JPG,AFNE01.JPG,AFNE01.JPG,AFNE01.JPG,AFNE01.JPG,,,,,,,,,,,,,1,4,14,1,,,,,,,,,,,AFNE12.jpg,AFSA16.jpg,AFSA02.jpg,AFNE07.jpg,AFNE07.jpg,FN,3,num_4,32,num_8,0.733470930718,,,2017_Nov_17_1151,60.0052541252,MAFE4ImagesEEG,001,101963,
AFNE01.JPG,AFNE01.JPG,AFNE01.JPG,AFNE01.JPG,AFNE01.JPG,AFNE01.JPG,,,,,,,,,,,,,1,5,15,6,,,,,,,,,,,AFNE16.jpg,AFSA14.jpg,AFSA17.jpg,AFNE17.jpg,AFSA14.jpg,FS,4,num_6,32,num_4,0.750031031668,,,2017_Nov_17_1151,60.0052541252,MAFE4ImagesEEG,001,101963,
AFNE01.JPG,AFNE01.JPG,AFNE01.JPG,AFNE01.JPG,AFNE01.JPG,AFNE01.JPG,,,,,,,,,,,,,1,6,16,7,,,,,,,,,,,AFSA20.jpg,AFNE02.jpg,AFNE08.jpg,AFSA19.jpg,AFNE02.jpg,FN,3,num_6,16,num_6,1.56677267095,,,2017_Nov_17_1151,60.0052541252,MAFE4ImagesEEG,001,101963,
AFNE01.JPG,AFNE01.JPG,AFNE01.JPG,AFNE01.JPG,AFNE01.JPG,AFNE01.JPG,,,,,,,,,,,,,1,7,17,2,,,,,,,,,,,AFNE11.jpg,AFNE02.jpg,AFSA14.jpg,AFSA09.jpg,AFNE02.jpg,FN,3,num_6,16,num_6,1.866709325,,,2017_Nov_17_1151,60.0052541252,MAFE4ImagesEEG,001,101963,
AFNE01.JPG,AFNE01.JPG,AFNE01.JPG,AFNE01.JPG,AFNE01.JPG,AFNE01.JPG,,,,,,,,,,,,,1,8,18,4,,,,,,,,,,,AFSA03.jpg,AFNE02.jpg,AFNE09.jpg,AFSA07.jpg,AFNE02.jpg,FN,3,num_6,32,num_2,0.633508937899,,,2017_Nov_17_1151,60.0052541252,MAFE4ImagesEEG,001,101963,
AFNE01.JPG,AFNE01.JPG,AFNE01.JPG,AFNE01.JPG,AFNE01.JPG,AFNE01.JPG,,,,,,,,,,,,,1,9,19,5,,,,,,,,,,,AFSA18.jpg,AFSA11.jpg,AFNE09.jpg,AFNE08.jpg,AFNE09.jpg,FN,3,num_2,32,num_8,0.650432115886,,,2017_Nov_17_1151,60.0052541252,MAFE4ImagesEEG,001,101963,
AFNE01.JPG,AFNE01.JPG,AFNE01.JPG,AFNE01.JPG,AFNE01.JPG,AFNE01.JPG,,,,,,,,,,,,,2,0,20,5,,,,,,,,,,,AFNE17.jpg,AFNE05.jpg,AFSA12.jpg,AFSA06.jpg,AFSA12.jpg,FS,4,num_2,32,num_4,1.80005484633,,,2017_Nov_17_1151,60.0052541252,MAFE4ImagesEEG,001,101963,
AFNE01.JPG,AFNE01.JPG,AFNE01.JPG,AFNE01.JPG,AFNE01.JPG,AFNE01.JPG,,,,,,,,,,,,,2,1,21,9,,,,,,,,,,,AFSA01.jpg,AFNE19.jpg,AFSA05.jpg,AFNE03.jpg,AFSA01.jpg,FS,4,num_8,16,num_8,3.04996576067,,,2017_Nov_17_1151,60.0052541252,MAFE4ImagesEEG,001,101963,
AFNE01.JPG,AFNE01.JPG,AFNE01.JPG,AFNE01.JPG,AFNE01.JPG,AFNE01.JPG,,,,,,,,,,,,,2,2,22,2,,,,,,,,,,,AFNE19.jpg,AFNE20.jpg,AFSA14.jpg,AFSA16.jpg,AFNE19.jpg,FN,3,num_8,16,num_8,0.80022259336,,,2017_Nov_17_1151,60.0052541252,MAFE4ImagesEEG,001,101963,
AFNE01.JPG,AFNE01.JPG,AFNE01.JPG,AFNE01.JPG,AFNE01.JPG,AFNE01.JPG,,,,,,,,,,,,,2,3,23,8,,,,,,,,,,,AFNE15.jpg,AFSA04.jpg,AFNE12.jpg,AFSA02.jpg,AFSA04.jpg,FS,4,num_6,16,num_6,0.833484241273,,,2017_Nov_17_1151,60.0052541252,MAFE4ImagesEEG,001,101963,
AFNE01.JPG,AFNE01.JPG,AFNE01.JPG,AFNE01.JPG,AFNE01.JPG,AFNE01.JPG,,,,,,,,,,,,,2,4,24,6,,,,,,,,,,,AFNE17.jpg,AFNE14.jpg,AFSA14.jpg,AFSA12.jpg,AFSA12.jpg,FS,4,num_4,16,num_4,0.816851011943,,,2017_Nov_17_1151,60.0052541252,MAFE4ImagesEEG,001,101963,
AFNE01.JPG,AFNE01.JPG,AFNE01.JPG,AFNE01.JPG,AFNE01.JPG,AFNE01.JPG,,,,,,,,,,,,,2,5,25,0,,,,,,,,,,,AFSA09.jpg,AFNE11.jpg,AFSA15.jpg,AFNE07.jpg,AFNE11.jpg,FN,3,num_6,16,num_6,1.00011257967,,,2017_Nov_17_1151,60.0052541252,MAFE4ImagesEEG,001,101963,
AFNE01.JPG,AFNE01.JPG,AFNE01.JPG,AFNE01.JPG,AFNE01.JPG,AFNE01.JPG,,,,,,,,,,,,,2,6,26,4,,,,,,,,,,,AFSA19.jpg,AFSA15.jpg,AFNE06.jpg,AFNE17.jpg,AFNE06.jpg,FN,3,num_2,16,num_2,1.18337543029,,,2017_Nov_17_1151,60.0052541252,MAFE4ImagesEEG,001,101963,
AFNE01.JPG,AFNE01.JPG,AFNE01.JPG,AFNE01.JPG,AFNE01.JPG,AFNE01.JPG,,,,,,,,,,,,,2,7,27,3,,,,,,,,,,,AFSA02.jpg,AFNE19.jpg,AFSA12.jpg,AFNE02.jpg,AFNE02.jpg,FN,3,num_4,16,num_4,1.14978662785,,,2017_Nov_17_1151,60.0052541252,MAFE4ImagesEEG,001,101963,
AFNE01.JPG,AFNE01.JPG,AFNE01.JPG,AFNE01.JPG,AFNE01.JPG,AFNE01.JPG,,,,,,,,,,,,,2,8,28,7,,,,,,,,,,,AFNE13.jpg,AFSA10.jpg,AFSA01.jpg,AFNE01.jpg,AFNE13.jpg,FN,3,num_8,16,num_8,1.25008122716,,,2017_Nov_17_1151,60.0052541252,MAFE4ImagesEEG,001,101963,
AFNE01.JPG,AFNE01.JPG,AFNE01.JPG,AFNE01.JPG,AFNE01.JPG,AFNE01.JPG,,,,,,,,,,,,,2,9,29,1,,,,,,,,,,,AFSA01.jpg,AFNE12.jpg,AFNE10.jpg,AFSA12.jpg,AFNE10.jpg,FN,3,num_2,32,num_6,1.40009012818,,,2017_Nov_17_1151,60.0052541252,MAFE4ImagesEEG,001,101963,
AFNE01.JPG,AFNE01.JPG,AFNE01.JPG,AFNE01.JPG,AFNE01.JPG,AFNE01.JPG,,,,,,,,,,,,,3,0,30,4,,,,,,,,,,,AFSA12.jpg,AFNE04.jpg,AFNE13.jpg,AFSA11.jpg,AFNE04.jpg,FN,3,num_6,32,num_8,4.23348937323,,,2017_Nov_17_1151,60.0052541252,MAFE4ImagesEEG,001,101963,
AFNE01.JPG,AFNE01.JPG,AFNE01.JPG,AFNE01.JPG,AFNE01.JPG,AFNE01.JPG,,,,,,,,,,,,,3,1,31,7,,,,,,,,,,,AFNE02.jpg,AFNE16.jpg,AFSA01.jpg,AFSA12.jpg,AFSA01.jpg,FS,4,num_2,16,num_2,0.766723277047,,,2017_Nov_17_1151,60.0052541252,MAFE4ImagesEEG,001,101963,
AFNE01.JPG,AFNE01.JPG,AFNE01.JPG,AFNE01.JPG,AFNE01.JPG,AFNE01.JPG,,,,,,,,,,,,,3,2,32,8,,,,,,,,,,,AFNE12.jpg,AFNE11.jpg,AFSA09.jpg,AFSA15.jpg,AFSA15.jpg,FS,4,num_4,32,num_6,0.95007176511,,,2017_Nov_17_1151,60.0052541252,MAFE4ImagesEEG,001,101963,
AFNE01.JPG,AFNE01.JPG,AFNE01.JPG,AFNE01.JPG,AFNE01.JPG,AFNE01.JPG,,,,,,,,,,,,,3,3,33,6,,,,,,,,,,,AFSA13.jpg,AFNE15.jpg,AFSA02.jpg,AFNE03.jpg,AFNE03.jpg,FN,3,num_4,16,num_4,1.08340958925,,,2017_Nov_17_1151,60.0052541252,MAFE4ImagesEEG,001,101963,
AFNE01.JPG,AFNE01.JPG,AFNE01.JPG,AFNE01.JPG,AFNE01.JPG,AFNE01.JPG,,,,,,,,,,,,,3,4,34,9,,,,,,,,,,,AFNE02.jpg,AFNE19.jpg,AFSA10.jpg,AFSA03.jpg,AFNE02.jpg,FN,3,num_8,16,num_8,1.25007224642,,,2017_Nov_17_1151,60.0052541252,MAFE4ImagesEEG,001,101963,
AFNE01.JPG,AFNE01.JPG,AFNE01.JPG,AFNE01.JPG,AFNE01.JPG,AFNE01.JPG,,,,,,,,,,,,,3,5,35,3,,,,,,,,,,,AFNE01.jpg,AFSA03.jpg,AFSA13.jpg,AFNE08.jpg,AFSA13.jpg,FS,4,num_2,16,num_2,1.41679424094,,,2017_Nov_17_1151,60.0052541252,MAFE4ImagesEEG,001,101963,
AFNE01.JPG,AFNE01.JPG,AFNE01.JPG,AFNE01.JPG,AFNE01.JPG,AFNE01.JPG,,,,,,,,,,,,,3,6,36,5,,,,,,,,,,,AFSA09.jpg,AFNE10.jpg,AFSA10.jpg,AFNE03.jpg,AFNE10.jpg,FN,3,num_6,16,num_6,1.08349234005,,,2017_Nov_17_1151,60.0052541252,MAFE4ImagesEEG,001,101963,
AFNE01.JPG,AFNE01.JPG,AFNE01.JPG,AFNE01.JPG,AFNE01.JPG,AFNE01.JPG,,,,,,,,,,,,,3,7,37,1,,,,,,,,,,,AFNE20.jpg,AFSA14.jpg,AFSA01.jpg,AFNE14.jpg,AFSA01.jpg,FS,4,num_2,16,num_2,1.6330708079,,,2017_Nov_17_1151,60.0052541252,MAFE4ImagesEEG,001,101963,
AFNE01.JPG,AFNE01.JPG,AFNE01.JPG,AFNE01.JPG,AFNE01.JPG,AFNE01.JPG,,,,,,,,,,,,,3,8,38,0,,,,,,,,,,,AFSA12.jpg,AFNE07.jpg,AFNE17.jpg,AFSA03.jpg,AFSA03.jpg,FS,4,num_4,32,num_8,1.68342017336,,,2017_Nov_17_1151,60.0052541252,MAFE4ImagesEEG,001,101963,
AFNE01.JPG,AFNE01.JPG,AFNE01.JPG,AFNE01.JPG,AFNE01.JPG,AFNE01.JPG,,,,,,,,,,,,,3,9,39,2,,,,,,,,,,,AFNE19.jpg,AFNE12.jpg,AFSA09.jpg,AFSA15.jpg,AFNE19.jpg,FN,3,num_8,32,num_2,1.98369520763,,,2017_Nov_17_1151,60.0052541252,MAFE4ImagesEEG,001,101963,
AFNE01.JPG,AFNE01.JPG,AFNE01.JPG,AFNE01.JPG,AFNE01.JPG,AFNE01.JPG,,,,,,,,,,,,,4,0,40,2,,,,,,,,,,,AFNE10.jpg,AFNE12.jpg,AFSA16.jpg,AFSA17.jpg,AFNE12.jpg,FN,3,num_6,16,num_6,1.01662007952,,,2017_Nov_17_1151,60.0052541252,MAFE4ImagesEEG,001,101963,
AFNE01.JPG,AFNE01.JPG,AFNE01.JPG,AFNE01.JPG,AFNE01.JPG,AFNE01.JPG,,,,,,,,,,,,,4,1,41,6,,,,,,,,,,,AFNE02.jpg,AFNE16.jpg,AFSA07.jpg,AFSA06.jpg,AFSA07.jpg,FS,4,num_2,16,num_2,1.10008130735,,,2017_Nov_17_1151,60.0052541252,MAFE4ImagesEEG,001,101963,
AFNE01.JPG,AFNE01.JPG,AFNE01.JPG,AFNE01.JPG,AFNE01.JPG,AFNE01.JPG,,,,,,,,,,,,,4,2,42,3,,,,,,,,,,,AFSA17.jpg,AFSA18.jpg,AFNE12.jpg,AFNE16.jpg,AFSA17.jpg,FS,4,num_8,16,num_8,1.31675591273,,,2017_Nov_17_1151,60.0052541252,MAFE4ImagesEEG,001,101963,
AFNE01.JPG,AFNE01.JPG,AFNE01.JPG,AFNE01.JPG,AFNE01.JPG,AFNE01.JPG,,,,,,,,,,,,,4,3,43,4,,,,,,,,,,,AFNE20.jpg,AFSA14.jpg,AFNE19.jpg,AFSA18.jpg,AFSA14.jpg,FS,4,num_6,16,num_6,0.816656002309,,,2017_Nov_17_1151,60.0052541252,MAFE4ImagesEEG,001,101963,
AFNE01.JPG,AFNE01.JPG,AFNE01.JPG,AFNE01.JPG,AFNE01.JPG,AFNE01.JPG,,,,,,,,,,,,,4,4,44,1,,,,,,,,,,,AFNE08.jpg,AFSA04.jpg,AFSA08.jpg,AFNE03.jpg,AFNE08.jpg,FN,3,num_8,16,num_8,0.083517357707,,,2017_Nov_17_1151,60.0052541252,MAFE4ImagesEEG,001,101963,
AFNE01.JPG,AFNE01.JPG,AFNE01.JPG,AFNE01.JPG,AFNE01.JPG,AFNE01.JPG,,,,,,,,,,,,,4,5,45,0,,,,,,,,,,,AFNE03.jpg,AFSA20.jpg,AFNE14.jpg,AFSA18.jpg,AFSA18.jpg,FS,4,num_4,32,num_8,0.450038569048,,,2017_Nov_17_1151,60.0052541252,MAFE4ImagesEEG,001,101963,
AFNE01.JPG,AFNE01.JPG,AFNE01.JPG,AFNE01.JPG,AFNE01.JPG,AFNE01.JPG,,,,,,,,,,,,,4,6,46,7,,,,,,,,,,,AFNE03.jpg,AFSA08.jpg,AFNE13.jpg,AFSA14.jpg,AFNE13.jpg,FN,3,num_2,32,num_8,0.483434285969,,,2017_Nov_17_1151,60.0052541252,MAFE4ImagesEEG,001,101963,
AFNE01.JPG,AFNE01.JPG,AFNE01.JPG,AFNE01.JPG,AFNE01.JPG,AFNE01.JPG,,,,,,,,,,,,,4,7,47,5,,,,,,,,,,,AFNE10.jpg,AFNE07.jpg,AFSA14.jpg,AFSA10.jpg,AFSA10.jpg,FS,4,num_4,16,num_4,0.483524414245,,,2017_Nov_17_1151,60.0052541252,MAFE4ImagesEEG,001,101963,
AFNE01.JPG,AFNE01.JPG,AFNE01.JPG,AFNE01.JPG,AFNE01.JPG,AFNE01.JPG,,,,,,,,,,,,,4,8,48,9,,,,,,,,,,,AFNE04.jpg,AFNE12.jpg,AFSA07.jpg,AFSA14.jpg,AFNE04.jpg,FN,3,num_8,32,num_6,0.73316077562,,,2017_Nov_17_1151,60.0052541252,MAFE4ImagesEEG,001,101963,
AFNE01.JPG,AFNE01.JPG,AFNE01.JPG,AFNE01.JPG,AFNE01.JPG,AFNE01.JPG,,,,,,,,,,,,,4,9,49,8,,,,,,,,,,,AFSA12.jpg,AFSA05.jpg,AFNE11.jpg,AFNE18.jpg,AFNE11.jpg,FN,3,num_2,16,num_2,0.483471171465,,,2017_Nov_17_1151,60.0052541252,MAFE4ImagesEEG,001,101963,
AFNE01.JPG,AFNE01.JPG,AFNE01.JPG,AFNE01.JPG,AFNE01.JPG,AFNE01.JPG,,,,,,,,,,,,,5,0,50,0,,,,,,,,,,,AFNE08.jpg,AFSA01.jpg,AFSA13.jpg,AFNE14.jpg,AFNE08.jpg,FN,3,num_8,16,num_8,1.03347718529,,,2017_Nov_17_1151,60.0052541252,MAFE4ImagesEEG,001,101963,
AFNE01.JPG,AFNE01.JPG,AFNE01.JPG,AFNE01.JPG,AFNE01.JPG,AFNE01.JPG,,,,,,,,,,,,,5,1,51,6,,,,,,,,,,,AFNE16.jpg,AFSA16.jpg,AFSA08.jpg,AFNE02.jpg,AFNE16.jpg,FN,3,num_8,32,num_4,0.983445672318,,,2017_Nov_17_1151,60.0052541252,MAFE4ImagesEEG,001,101963,
AFNE01.JPG,AFNE01.JPG,AFNE01.JPG,AFNE01.JPG,AFNE01.JPG,AFNE01.JPG,,,,,,,,,,,,,5,2,52,3,,,,,,,,,,,AFSA14.jpg,AFSA18.jpg,AFNE15.jpg,AFNE01.jpg,AFSA14.jpg,FS,4,num_8,32,num_4,1.08344005933,,,2017_Nov_17_1151,60.0052541252,MAFE4ImagesEEG,001,101963,
AFNE01.JPG,AFNE01.JPG,AFNE01.JPG,AFNE01.JPG,AFNE01.JPG,AFNE01.JPG,,,,,,,,,,,,,5,3,53,1,,,,,,,,,,,AFSA04.jpg,AFNE04.jpg,AFSA15.jpg,AFNE13.jpg,AFSA04.jpg,FS,4,num_8,16,num_8,0.633464355487,,,2017_Nov_17_1151,60.0052541252,MAFE4ImagesEEG,001,101963,
AFNE01.JPG,AFNE01.JPG,AFNE01.JPG,AFNE01.JPG,AFNE01.JPG,AFNE01.JPG,,,,,,,,,,,,,5,4,54,8,,,,,,,,,,,AFNE16.jpg,AFNE09.jpg,AFSA06.jpg,AFSA16.jpg,AFSA06.jpg,FS,4,num_2,32,num_4,1.16675470956,,,2017_Nov_17_1151,60.0052541252,MAFE4ImagesEEG,001,101963,
AFNE01.JPG,AFNE01.JPG,AFNE01.JPG,AFNE01.JPG,AFNE01.JPG,AFNE01.JPG,,,,,,,,,,,,,5,5,55,5,,,,,,,,,,,AFNE14.jpg,AFNE03.jpg,AFSA11.jpg,AFSA20.jpg,AFSA20.jpg,FS,4,num_4,32,num_2,2.1000463469,,,2017_Nov_17_1151,60.0052541252,MAFE4ImagesEEG,001,101963,
AFNE01.JPG,AFNE01.JPG,AFNE01.JPG,AFNE01.JPG,AFNE01.JPG,AFNE01.JPG,,,,,,,,,,,,,5,6,56,9,,,,,,,,,,,AFSA07.jpg,AFNE03.jpg,AFNE08.jpg,AFSA05.jpg,AFNE08.jpg,FN,3,num_2,32,num_4,1.0499869301,,,2017_Nov_17_1151,60.0052541252,MAFE4ImagesEEG,001,101963,
AFNE01.JPG,AFNE01.JPG,AFNE01.JPG,AFNE01.JPG,AFNE01.JPG,AFNE01.JPG,,,,,,,,,,,,,5,7,57,2,,,,,,,,,,,AFNE15.jpg,AFSA05.jpg,AFNE20.jpg,AFSA19.jpg,AFSA19.jpg,FS,4,num_4,16,num_4,4.71646532277,,,2017_Nov_17_1151,60.0052541252,MAFE4ImagesEEG,001,101963,
AFNE01.JPG,AFNE01.JPG,AFNE01.JPG,AFNE01.JPG,AFNE01.JPG,AFNE01.JPG,,,,,,,,,,,,,5,8,58,7,,,,,,,,,,,AFSA15.jpg,AFNE04.jpg,AFNE14.jpg,AFSA17.jpg,AFNE14.jpg,FN,3,num_2,32,num_8,1.98312236695,,,2017_Nov_17_1151,60.0052541252,MAFE4ImagesEEG,001,101963,
AFNE01.JPG,AFNE01.JPG,AFNE01.JPG,AFNE01.JPG,AFNE01.JPG,AFNE01.JPG,,,,,,,,,,,,,5,9,59,4,,,,,,,,,,,AFSA05.jpg,AFNE05.jpg,AFNE03.jpg,AFSA13.jpg,AFSA13.jpg,FS,4,num_4,32,num_2,1.93338112347,,,2017_Nov_17_1151,60.0052541252,MAFE4ImagesEEG,001,101963,
,,,,,,,,,,,,,,,,,,,,,,,,,,,,,,,,,,,,,,,,,,,space,1.36666394072,2017_Nov_17_1151,60.0052541252,MAFE4ImagesEEG,001,101963,
AFNE01.JPG,AFNE01.JPG,AFNE01.JPG,AFNE01.JPG,AFNE01.JPG,AFNE01.JPG,,,,,,,,,,,,,,,,,0,0,0,5,,,,,,,AMNE03.jpg,AMSA09.jpg,AMSA15.jpg,AMNE07.jpg,AMNE07.jpg,MN,1,num_4,32,num_8,2.50015539816,,,2017_Nov_17_1151,60.0052541252,MAFE4ImagesEEG,001,101963,
AFNE01.JPG,AFNE01.JPG,AFNE01.JPG,AFNE01.JPG,AFNE01.JPG,AFNE01.JPG,,,,,,,,,,,,,,,,,0,1,1,1,,,,,,,AMSA03.jpg,AMNE06.jpg,AMNE20.jpg,AMSA04.jpg,AMNE20.jpg,MN,1,num_2,16,num_2,1.40008339239,,,2017_Nov_17_1151,60.0052541252,MAFE4ImagesEEG,001,101963,
AFNE01.JPG,AFNE01.JPG,AFNE01.JPG,AFNE01.JPG,AFNE01.JPG,AFNE01.JPG,,,,,,,,,,,,,,,,,0,2,2,4,,,,,,,AMNE02.jpg,AMSA11.jpg,AMNE10.jpg,AMSA02.jpg,AMNE10.jpg,MN,1,num_2,32,num_8,0.733699297067,,,2017_Nov_17_1151,60.0052541252,MAFE4ImagesEEG,001,101963,
AFNE01.JPG,AFNE01.JPG,AFNE01.JPG,AFNE01.JPG,AFNE01.JPG,AFNE01.JPG,,,,,,,,,,,,,,,,,0,3,3,0,,,,,,,AMSA09.jpg,AMSA06.jpg,AMNE17.jpg,AMNE08.jpg,AMNE17.jpg,MN,1,num_2,32,num_4,1.28342081513,,,2017_Nov_17_1151,60.0052541252,MAFE4ImagesEEG,001,101963,
AFNE01.JPG,AFNE01.JPG,AFNE01.JPG,AFNE01.JPG,AFNE01.JPG,AFNE01.JPG,,,,,,,,,,,,,,,,,0,4,4,8,,,,,,,AMNE05.jpg,AMNE10.jpg,AMSA04.jpg,AMSA19.jpg,AMNE05.jpg,MN,1,num_8,32,num_2,3.14997810964,,,2017_Nov_17_1151,60.0052541252,MAFE4ImagesEEG,001,101963,
AFNE01.JPG,AFNE01.JPG,AFNE01.JPG,AFNE01.JPG,AFNE01.JPG,AFNE01.JPG,,,,,,,,,,,,,,,,,0,5,5,2,,,,,,,AMSA02.jpg,AMNE17.jpg,AMNE01.jpg,AMSA13.jpg,AMNE17.jpg,MN,1,num_6,32,num_2,1.10008098651,,,2017_Nov_17_1151,60.0052541252,MAFE4ImagesEEG,001,101963,
AFNE01.JPG,AFNE01.JPG,AFNE01.JPG,AFNE01.JPG,AFNE01.JPG,AFNE01.JPG,,,,,,,,,,,,,,,,,0,6,6,6,,,,,,,AMNE12.jpg,AMSA19.jpg,AMNE16.jpg,AMSA08.jpg,AMSA19.jpg,MS,2,num_6,32,num_4,1.71669593407,,,2017_Nov_17_1151,60.0052541252,MAFE4ImagesEEG,001,101963,
AFNE01.JPG,AFNE01.JPG,AFNE01.JPG,AFNE01.JPG,AFNE01.JPG,AFNE01.JPG,,,,,,,,,,,,,,,,,0,7,7,7,,,,,,,AMSA11.jpg,AMNE15.jpg,AMNE01.jpg,AMSA10.jpg,AMSA11.jpg,MS,2,num_8,32,num_4,1.25010335864,,,2017_Nov_17_1151,60.0052541252,MAFE4ImagesEEG,001,101963,
AFNE01.JPG,AFNE01.JPG,AFNE01.JPG,AFNE01.JPG,AFNE01.JPG,AFNE01.JPG,,,,,,,,,,,,,,,,,0,8,8,3,,,,,,,AMNE02.jpg,AMSA15.jpg,AMNE01.jpg,AMSA10.jpg,AMNE02.jpg,MN,1,num_8,16,num_8,0.83351823967,,,2017_Nov_17_1151,60.0052541252,MAFE4ImagesEEG,001,101963,
AFNE01.JPG,AFNE01.JPG,AFNE01.JPG,AFNE01.JPG,AFNE01.JPG,AFNE01.JPG,,,,,,,,,,,,,,,,,0,9,9,9,,,,,,,AMNE17.jpg,AMSA19.jpg,AMNE04.jpg,AMSA18.jpg,AMSA19.jpg,MS,2,num_6,32,num_4,1.31673602667,,,2017_Nov_17_1151,60.0052541252,MAFE4ImagesEEG,001,101963,
AFNE01.JPG,AFNE01.JPG,AFNE01.JPG,AFNE01.JPG,AFNE01.JPG,AFNE01.JPG,,,,,,,,,,,,,,,,,1,0,10,3,,,,,,,AMNE02.jpg,AMNE06.jpg,AMSA12.jpg,AMSA15.jpg,AMSA15.jpg,MS,2,num_4,16,num_4,1.03349514632,,,2017_Nov_17_1151,60.0052541252,MAFE4ImagesEEG,001,101963,
AFNE01.JPG,AFNE01.JPG,AFNE01.JPG,AFNE01.JPG,AFNE01.JPG,AFNE01.JPG,,,,,,,,,,,,,,,,,1,1,11,9,,,,,,,AMSA10.jpg,AMNE16.jpg,AMSA14.jpg,AMNE14.jpg,AMSA10.jpg,MS,2,num_8,32,num_4,0.916748535354,,,2017_Nov_17_1151,60.0052541252,MAFE4ImagesEEG,001,101963,
AFNE01.JPG,AFNE01.JPG,AFNE01.JPG,AFNE01.JPG,AFNE01.JPG,AFNE01.JPG,,,,,,,,,,,,,,,,,1,2,12,2,,,,,,,AMSA11.jpg,AMNE07.jpg,AMNE19.jpg,AMSA07.jpg,AMSA07.jpg,MS,2,num_4,32,num_6,2.44997474179,,,2017_Nov_17_1151,60.0052541252,MAFE4ImagesEEG,001,101963,
AFNE01.JPG,AFNE01.JPG,AFNE01.JPG,AFNE01.JPG,AFNE01.JPG,AFNE01.JPG,,,,,,,,,,,,,,,,,1,3,13,6,,,,,,,AMSA13.jpg,AMNE20.jpg,AMNE15.jpg,AMSA15.jpg,AMNE15.jpg,MN,1,num_2,32,num_4,0.766775557771,,,2017_Nov_17_1151,60.0052541252,MAFE4ImagesEEG,001,101963,
AFNE01.JPG,AFNE01.JPG,AFNE01.JPG,AFNE01.JPG,AFNE01.JPG,AFNE01.JPG,,,,,,,,,,,,,,,,,1,4,14,7,,,,,,,AMNE18.jpg,AMNE17.jpg,AMSA04.jpg,AMSA16.jpg,AMSA04.jpg,MS,2,num_2,16,num_2,0.666812603362,,,2017_Nov_17_1151,60.0052541252,MAFE4ImagesEEG,001,101963,
AFNE01.JPG,AFNE01.JPG,AFNE01.JPG,AFNE01.JPG,AFNE01.JPG,AFNE01.JPG,,,,,,,,,,,,,,,,,1,5,15,8,,,,,,,AMNE06.jpg,AMNE05.jpg,AMSA03.jpg,AMSA02.jpg,AMNE06.jpg,MN,1,num_8,32,num_4,1.06673754985,,,2017_Nov_17_1151,60.0052541252,MAFE4ImagesEEG,001,101963,
AFNE01.JPG,AFNE01.JPG,AFNE01.JPG,AFNE01.JPG,AFNE01.JPG,AFNE01.JPG,,,,,,,,,,,,,,,,,1,6,16,5,,,,,,,AMSA02.jpg,AMSA16.jpg,AMNE10.jpg,AMNE02.jpg,AMNE02.jpg,MN,1,num_4,32,num_2,0.483828153927,,,2017_Nov_17_1151,60.0052541252,MAFE4ImagesEEG,001,101963,
AFNE01.JPG,AFNE01.JPG,AFNE01.JPG,AFNE01.JPG,AFNE01.JPG,AFNE01.JPG,,,,,,,,,,,,,,,,,1,7,17,4,,,,,,,AMNE01.jpg,AMSA03.jpg,AMNE07.jpg,AMSA06.jpg,AMSA06.jpg,MS,2,num_4,32,num_6,2.2666506297,,,2017_Nov_17_1151,60.0052541252,MAFE4ImagesEEG,001,101963,
AFNE01.JPG,AFNE01.JPG,AFNE01.JPG,AFNE01.JPG,AFNE01.JPG,AFNE01.JPG,,,,,,,,,,,,,,,,,1,8,18,0,,,,,,,AMSA15.jpg,AMNE11.jpg,AMNE03.jpg,AMSA17.jpg,AMNE11.jpg,MN,1,num_6,32,num_8,1.29977628449,,,2017_Nov_17_1151,60.0052541252,MAFE4ImagesEEG,001,101963,
AFNE01.JPG,AFNE01.JPG,AFNE01.JPG,AFNE01.JPG,AFNE01.JPG,AFNE01.JPG,,,,,,,,,,,,,,,,,1,9,19,1,,,,,,,AMSA07.jpg,AMSA01.jpg,AMNE07.jpg,AMNE08.jpg,AMSA07.jpg,MS,2,num_8,16,num_8,0.48346828483,,,2017_Nov_17_1151,60.0052541252,MAFE4ImagesEEG,001,101963,
AFNE01.JPG,AFNE01.JPG,AFNE01.JPG,AFNE01.JPG,AFNE01.JPG,AFNE01.JPG,,,,,,,,,,,,,,,,,2,0,20,5,,,,,,,AMSA11.jpg,AMNE07.jpg,AMNE10.jpg,AMSA12.jpg,AMSA11.jpg,MS,2,num_8,16,num_8,0.400256912224,,,2017_Nov_17_1151,60.0052541252,MAFE4ImagesEEG,001,101963,
AFNE01.JPG,AFNE01.JPG,AFNE01.JPG,AFNE01.JPG,AFNE01.JPG,AFNE01.JPG,,,,,,,,,,,,,,,,,2,1,21,2,,,,,,,AMNE08.jpg,AMSA01.jpg,AMSA05.jpg,AMNE01.jpg,AMNE01.jpg,MN,1,num_4,16,num_4,3.76661518821,,,2017_Nov_17_1151,60.0052541252,MAFE4ImagesEEG,001,101963,
AFNE01.JPG,AFNE01.JPG,AFNE01.JPG,AFNE01.JPG,AFNE01.JPG,AFNE01.JPG,,,,,,,,,,,,,,,,,2,2,22,7,,,,,,,AMSA11.jpg,AMSA05.jpg,AMNE13.jpg,AMNE07.jpg,AMSA11.jpg,MS,2,num_8,32,num_6,1.20007826015,,,2017_Nov_17_1151,60.0052541252,MAFE4ImagesEEG,001,101963,
AFNE01.JPG,AFNE01.JPG,AFNE01.JPG,AFNE01.JPG,AFNE01.JPG,AFNE01.JPG,,,,,,,,,,,,,,,,,2,3,23,9,,,,,,,AMNE19.jpg,AMSA16.jpg,AMNE02.jpg,AMSA08.jpg,AMSA08.jpg,MS,2,num_4,32,num_8,0.483507093973,,,2017_Nov_17_1151,60.0052541252,MAFE4ImagesEEG,001,101963,
AFNE01.JPG,AFNE01.JPG,AFNE01.JPG,AFNE01.JPG,AFNE01.JPG,AFNE01.JPG,,,,,,,,,,,,,,,,,2,4,24,6,,,,,,,AMNE15.jpg,AMSA14.jpg,AMSA12.jpg,AMNE19.jpg,AMSA14.jpg,MS,2,num_6,32,num_4,1.4501075279,,,2017_Nov_17_1151,60.0052541252,MAFE4ImagesEEG,001,101963,
AFNE01.JPG,AFNE01.JPG,AFNE01.JPG,AFNE01.JPG,AFNE01.JPG,AFNE01.JPG,,,,,,,,,,,,,,,,,2,5,25,8,,,,,,,AMSA18.jpg,AMSA01.jpg,AMNE13.jpg,AMNE09.jpg,AMNE09.jpg,MN,1,num_4,32,num_8,0.483473416418,,,2017_Nov_17_1151,60.0052541252,MAFE4ImagesEEG,001,101963,
AFNE01.JPG,AFNE01.JPG,AFNE01.JPG,AFNE01.JPG,AFNE01.JPG,AFNE01.JPG,,,,,,,,,,,,,,,,,2,6,26,3,,,,,,,AMNE09.jpg,AMSA08.jpg,AMSA12.jpg,AMNE20.jpg,AMNE20.jpg,MN,1,num_4,16,num_4,0.500171114691,,,2017_Nov_17_1151,60.0052541252,MAFE4ImagesEEG,001,101963,
AFNE01.JPG,AFNE01.JPG,AFNE01.JPG,AFNE01.JPG,AFNE01.JPG,AFNE01.JPG,,,,,,,,,,,,,,,,,2,7,27,4,,,,,,,AMNE13.jpg,AMSA15.jpg,AMSA04.jpg,AMNE01.jpg,AMNE01.jpg,MN,1,num_4,32,num_8,0.7667710674,,,2017_Nov_17_1151,60.0052541252,MAFE4ImagesEEG,001,101963,
AFNE01.JPG,AFNE01.JPG,AFNE01.JPG,AFNE01.JPG,AFNE01.JPG,AFNE01.JPG,,,,,,,,,,,,,,,,,2,8,28,1,,,,,,,AMSA01.jpg,AMSA08.jpg,AMNE14.jpg,AMNE05.jpg,AMSA01.jpg,MS,2,num_8,32,num_4,3.04993753554,,,2017_Nov_17_1151,60.0052541252,MAFE4ImagesEEG,001,101963,
AFNE01.JPG,AFNE01.JPG,AFNE01.JPG,AFNE01.JPG,AFNE01.JPG,AFNE01.JPG,,,,,,,,,,,,,,,,,2,9,29,0,,,,,,,AMSA14.jpg,AMSA12.jpg,AMNE09.jpg,AMNE04.jpg,AMNE04.jpg,MN,1,num_4,32,num_6,0.533515833784,,,2017_Nov_17_1151,60.0052541252,MAFE4ImagesEEG,001,101963,
AFNE01.JPG,AFNE01.JPG,AFNE01.JPG,AFNE01.JPG,AFNE01.JPG,AFNE01.JPG,,,,,,,,,,,,,,,,,3,0,30,1,,,,,,,AMNE14.jpg,AMSA20.jpg,AMNE17.jpg,AMSA04.jpg,AMSA04.jpg,MS,2,num_4,32,num_8,0.716824871488,,,2017_Nov_17_1151,60.0052541252,MAFE4ImagesEEG,001,101963,
AFNE01.JPG,AFNE01.JPG,AFNE01.JPG,AFNE01.JPG,AFNE01.JPG,AFNE01.JPG,,,,,,,,,,,,,,,,,3,1,31,8,,,,,,,AMNE19.jpg,AMSA11.jpg,AMNE01.jpg,AMSA19.jpg,AMSA19.jpg,MS,2,num_4,32,num_8,0.683481434826,,,2017_Nov_17_1151,60.0052541252,MAFE4ImagesEEG,001,101963,
AFNE01.JPG,AFNE01.JPG,AFNE01.JPG,AFNE01.JPG,AFNE01.JPG,AFNE01.JPG,,,,,,,,,,,,,,,,,3,2,32,3,,,,,,,AMNE17.jpg,AMSA17.jpg,AMSA01.jpg,AMNE15.jpg,AMSA01.jpg,MS,2,num_2,32,num_4,0.783449521288,,,2017_Nov_17_1151,60.0052541252,MAFE4ImagesEEG,001,101963,
AFNE01.JPG,AFNE01.JPG,AFNE01.JPG,AFNE01.JPG,AFNE01.JPG,AFNE01.JPG,,,,,,,,,,,,,,,,,3,3,33,9,,,,,,,AMNE14.jpg,AMSA19.jpg,AMSA08.jpg,AMNE01.jpg,AMSA19.jpg,MS,2,num_6,16,num_6,0.466809716541,,,2017_Nov_17_1151,60.0052541252,MAFE4ImagesEEG,001,101963,
AFNE01.JPG,AFNE01.JPG,AFNE01.JPG,AFNE01.JPG,AFNE01.JPG,AFNE01.JPG,,,,,,,,,,,,,,,,,3,4,34,4,,,,,,,AMSA04.jpg,AMSA09.jpg,AMNE13.jpg,AMNE11.jpg,AMNE13.jpg,MN,1,num_2,16,num_2,0.983387297485,,,2017_Nov_17_1151,60.0052541252,MAFE4ImagesEEG,001,101963,
AFNE01.JPG,AFNE01.JPG,AFNE01.JPG,AFNE01.JPG,AFNE01.JPG,AFNE01.JPG,,,,,,,,,,,,,,,,,3,5,35,5,,,,,,,AMNE04.jpg,AMNE01.jpg,AMSA07.jpg,AMSA12.jpg,AMNE04.jpg,MN,1,num_8,16,num_8,0.483458341565,,,2017_Nov_17_1151,60.0052541252,MAFE4ImagesEEG,001,101963,
AFNE01.JPG,AFNE01.JPG,AFNE01.JPG,AFNE01.JPG,AFNE01.JPG,AFNE01.JPG,,,,,,,,,,,,,,,,,3,6,36,2,,,,,,,AMSA15.jpg,AMNE04.jpg,AMSA13.jpg,AMNE16.jpg,AMSA13.jpg,MS,2,num_2,32,num_4,0.850130941719,,,2017_Nov_17_1151,60.0052541252,MAFE4ImagesEEG,001,101963,
AFNE01.JPG,AFNE01.JPG,AFNE01.JPG,AFNE01.JPG,AFNE01.JPG,AFNE01.JPG,,,,,,,,,,,,,,,,,3,7,37,0,,,,,,,AMNE06.jpg,AMSA09.jpg,AMSA20.jpg,AMNE15.jpg,AMSA09.jpg,MS,2,num_6,32,num_4,1.13341512205,,,2017_Nov_17_1151,60.0052541252,MAFE4ImagesEEG,001,101963,
AFNE01.JPG,AFNE01.JPG,AFNE01.JPG,AFNE01.JPG,AFNE01.JPG,AFNE01.JPG,,,,,,,,,,,,,,,,,3,8,38,6,,,,,,,AMNE02.jpg,AMSA20.jpg,AMSA08.jpg,AMNE13.jpg,AMSA08.jpg,MS,2,num_2,32,num_8,0.333534437232,,,2017_Nov_17_1151,60.0052541252,MAFE4ImagesEEG,001,101963,
AFNE01.JPG,AFNE01.JPG,AFNE01.JPG,AFNE01.JPG,AFNE01.JPG,AFNE01.JPG,,,,,,,,,,,,,,,,,3,9,39,7,,,,,,,AMNE04.jpg,AMSA14.jpg,AMSA01.jpg,AMNE16.jpg,AMNE16.jpg,MN,1,num_4,32,num_8,0.566781972535,,,2017_Nov_17_1151,60.0052541252,MAFE4ImagesEEG,001,101963,
AFNE01.JPG,AFNE01.JPG,AFNE01.JPG,AFNE01.JPG,AFNE01.JPG,AFNE01.JPG,,,,,,,,,,,,,,,,,4,0,40,0,,,,,,,AMNE12.jpg,AMNE19.jpg,AMSA19.jpg,AMSA10.jpg,AMSA19.jpg,MS,2,num_2,32,num_4,3.03303360241,,,2017_Nov_17_1151,60.0052541252,MAFE4ImagesEEG,001,101963,
AFNE01.JPG,AFNE01.JPG,AFNE01.JPG,AFNE01.JPG,AFNE01.JPG,AFNE01.JPG,,,,,,,,,,,,,,,,,4,1,41,9,,,,,,,AMSA20.jpg,AMSA15.jpg,AMNE18.jpg,AMNE20.jpg,AMSA20.jpg,MS,2,num_8,48,None,,,,2017_Nov_17_1151,60.0052541252,MAFE4ImagesEEG,001,101963,
AFNE01.JPG,AFNE01.JPG,AFNE01.JPG,AFNE01.JPG,AFNE01.JPG,AFNE01.JPG,,,,,,,,,,,,,,,,,4,2,42,7,,,,,,,AMNE02.jpg,AMSA12.jpg,AMNE18.jpg,AMSA09.jpg,AMSA09.jpg,MS,2,num_4,32,num_6,0.333487608936,,,2017_Nov_17_1151,60.0052541252,MAFE4ImagesEEG,001,101963,
AFNE01.JPG,AFNE01.JPG,AFNE01.JPG,AFNE01.JPG,AFNE01.JPG,AFNE01.JPG,,,,,,,,,,,,,,,,,4,3,43,5,,,,,,,AMSA04.jpg,AMSA10.jpg,AMNE04.jpg,AMNE07.jpg,AMNE04.jpg,MN,1,num_2,32,num_6,1.21671565948,,,2017_Nov_17_1151,60.0052541252,MAFE4ImagesEEG,001,101963,
AFNE01.JPG,AFNE01.JPG,AFNE01.JPG,AFNE01.JPG,AFNE01.JPG,AFNE01.JPG,,,,,,,,,,,,,,,,,4,4,44,4,,,,,,,AMNE01.jpg,AMSA02.jpg,AMNE16.jpg,AMSA20.jpg,AMNE01.jpg,MN,1,num_8,32,num_4,0.583445351571,,,2017_Nov_17_1151,60.0052541252,MAFE4ImagesEEG,001,101963,
AFNE01.JPG,AFNE01.JPG,AFNE01.JPG,AFNE01.JPG,AFNE01.JPG,AFNE01.JPG,,,,,,,,,,,,,,,,,4,5,45,6,,,,,,,AMNE13.jpg,AMSA10.jpg,AMNE12.jpg,AMSA01.jpg,AMNE12.jpg,MN,1,num_2,32,num_8,3.74988252902,,,2017_Nov_17_1151,60.0052541252,MAFE4ImagesEEG,001,101963,
AFNE01.JPG,AFNE01.JPG,AFNE01.JPG,AFNE01.JPG,AFNE01.JPG,AFNE01.JPG,,,,,,,,,,,,,,,,,4,6,46,3,,,,,,,AMNE03.jpg,AMSA17.jpg,AMSA08.jpg,AMNE05.jpg,AMSA08.jpg,MS,2,num_2,32,num_6,0.666802018881,,,2017_Nov_17_1151,60.0052541252,MAFE4ImagesEEG,001,101963,
AFNE01.JPG,AFNE01.JPG,AFNE01.JPG,AFNE01.JPG,AFNE01.JPG,AFNE01.JPG,,,,,,,,,,,,,,,,,4,7,47,1,,,,,,,AMSA03.jpg,AMNE18.jpg,AMSA18.jpg,AMNE12.jpg,AMNE12.jpg,MN,1,num_4,16,num_4,1.13341415999,,,2017_Nov_17_1151,60.0052541252,MAFE4ImagesEEG,001,101963,
AFNE01.JPG,AFNE01.JPG,AFNE01.JPG,AFNE01.JPG,AFNE01.JPG,AFNE01.JPG,,,,,,,,,,,,,,,,,4,8,48,2,,,,,,,AMNE17.jpg,AMSA06.jpg,AMSA12.jpg,AMNE02.jpg,AMNE02.jpg,MN,1,num_4,32,num_2,2.34997746814,,,2017_Nov_17_1151,60.0052541252,MAFE4ImagesEEG,001,101963,
AFNE01.JPG,AFNE01.JPG,AFNE01.JPG,AFNE01.JPG,AFNE01.JPG,AFNE01.JPG,,,,,,,,,,,,,,,,,4,9,49,8,,,,,,,AMSA04.jpg,AMNE03.jpg,AMSA13.jpg,AMNE07.jpg,AMSA04.jpg,MS,2,num_8,16,num_8,0.533470610157,,,2017_Nov_17_1151,60.0052541252,MAFE4ImagesEEG,001,101963,
AFNE01.JPG,AFNE01.JPG,AFNE01.JPG,AFNE01.JPG,AFNE01.JPG,AFNE01.JPG,,,,,,,,,,,,,,,,,5,0,50,2,,,,,,,AMSA17.jpg,AMNE08.jpg,AMNE13.jpg,AMSA18.jpg,AMSA18.jpg,MS,2,num_4,16,num_4,1.06675037974,,,2017_Nov_17_1151,60.0052541252,MAFE4ImagesEEG,001,101963,
AFNE01.JPG,AFNE01.JPG,AFNE01.JPG,AFNE01.JPG,AFNE01.JPG,AFNE01.JPG,,,,,,,,,,,,,,,,,5,1,51,8,,,,,,,AMSA20.jpg,AMNE20.jpg,AMSA09.jpg,AMNE14.jpg,AMSA09.jpg,MS,2,num_2,32,num_6,1.23351823958,,,2017_Nov_17_1151,60.0052541252,MAFE4ImagesEEG,001,101963,
AFNE01.JPG,AFNE01.JPG,AFNE01.JPG,AFNE01.JPG,AFNE01.JPG,AFNE01.JPG,,,,,,,,,,,,,,,,,5,2,52,5,,,,,,,AMNE01.jpg,AMNE12.jpg,AMSA03.jpg,AMSA11.jpg,AMNE01.jpg,MN,1,num_8,16,num_8,0.866763209458,,,2017_Nov_17_1151,60.0052541252,MAFE4ImagesEEG,001,101963,
AFNE01.JPG,AFNE01.JPG,AFNE01.JPG,AFNE01.JPG,AFNE01.JPG,AFNE01.JPG,,,,,,,,,,,,,,,,,5,3,53,0,,,,,,,AMSA05.jpg,AMNE14.jpg,AMNE05.jpg,AMSA15.jpg,AMNE05.jpg,MN,1,num_2,32,num_4,1.11676553497,,,2017_Nov_17_1151,60.0052541252,MAFE4ImagesEEG,001,101963,
AFNE01.JPG,AFNE01.JPG,AFNE01.JPG,AFNE01.JPG,AFNE01.JPG,AFNE01.JPG,,,,,,,,,,,,,,,,,5,4,54,7,,,,,,,AMNE11.jpg,AMSA19.jpg,AMSA16.jpg,AMNE04.jpg,AMNE11.jpg,MN,1,num_8,48,None,,,,2017_Nov_17_1151,60.0052541252,MAFE4ImagesEEG,001,101963,
AFNE01.JPG,AFNE01.JPG,AFNE01.JPG,AFNE01.JPG,AFNE01.JPG,AFNE01.JPG,,,,,,,,,,,,,,,,,5,5,55,4,,,,,,,AMNE01.jpg,AMSA11.jpg,AMSA05.jpg,AMNE03.jpg,AMNE01.jpg,MN,1,num_8,16,num_8,0.366885571275,,,2017_Nov_17_1151,60.0052541252,MAFE4ImagesEEG,001,101963,
AFNE01.JPG,AFNE01.JPG,AFNE01.JPG,AFNE01.JPG,AFNE01.JPG,AFNE01.JPG,,,,,,,,,,,,,,,,,5,6,56,1,,,,,,,AMSA01.jpg,AMNE10.jpg,AMSA20.jpg,AMNE07.jpg,AMNE07.jpg,MN,1,num_4,16,num_4,0.716886453331,,,2017_Nov_17_1151,60.0052541252,MAFE4ImagesEEG,001,101963,
AFNE01.JPG,AFNE01.JPG,AFNE01.JPG,AFNE01.JPG,AFNE01.JPG,AFNE01.JPG,,,,,,,,,,,,,,,,,5,7,57,9,,,,,,,AMSA06.jpg,AMSA11.jpg,AMNE04.jpg,AMNE20.jpg,AMSA06.jpg,MS,2,num_8,16,num_8,0.466878996231,,,2017_Nov_17_1151,60.0052541252,MAFE4ImagesEEG,001,101963,
AFNE01.JPG,AFNE01.JPG,AFNE01.JPG,AFNE01.JPG,AFNE01.JPG,AFNE01.JPG,,,,,,,,,,,,,,,,,5,8,58,3,,,,,,,AMNE18.jpg,AMSA14.jpg,AMNE17.jpg,AMSA17.jpg,AMSA14.jpg,MS,2,num_6,16,num_6,0.516876510344,,,2017_Nov_17_1151,60.0052541252,MAFE4ImagesEEG,001,101963,
AFNE01.JPG,AFNE01.JPG,AFNE01.JPG,AFNE01.JPG,AFNE01.JPG,AFNE01.JPG,,,,,,,,,,,,,,,,,5,9,59,6,,,,,,,AMNE15.jpg,AMSA07.jpg,AMNE20.jpg,AMSA16.jpg,AMNE20.jpg,MN,1,num_2,16,num_2,2.88332170621,,,2017_Nov_17_1151,60.0052541252,MAFE4ImagesEEG,001,101963,
,,,,,,,,,,,,,,,,,,,,,,,,,,,,,,,,,,,,,,,,,,,space,12.9323056838,2017_Nov_17_1151,60.0052541252,MAFE4ImagesEEG,001,101963,
AFNE01.JPG,AFNE01.JPG,AFNE01.JPG,AFNE01.JPG,AFNE01.JPG,AFNE01.JPG,,,,,,,,,,,,,,,,,,,,,0,0,0,0,,,AFNE11.jpg,AFSA09.jpg,AFSA05.jpg,AFNE01.jpg,AFSA05.jpg,FS,4,num_2,16,num_2,0.866729211062,,,2017_Nov_17_1151,60.0052541252,MAFE4ImagesEEG,001,101963,
AFNE01.JPG,AFNE01.JPG,AFNE01.JPG,AFNE01.JPG,AFNE01.JPG,AFNE01.JPG,,,,,,,,,,,,,,,,,,,,,0,1,1,8,,,AFNE01.jpg,AFSA04.jpg,AFNE17.jpg,AFSA09.jpg,AFNE17.jpg,FN,3,num_2,32,num_6,0.66673851246,,,2017_Nov_17_1151,60.0052541252,MAFE4ImagesEEG,001,101963,
AFNE01.JPG,AFNE01.JPG,AFNE01.JPG,AFNE01.JPG,AFNE01.JPG,AFNE01.JPG,,,,,,,,,,,,,,,,,,,,,0,2,2,6,,,AFNE15.jpg,AFSA11.jpg,AFNE01.jpg,AFSA09.jpg,AFSA09.jpg,FS,4,num_4,32,num_8,0.583317697514,,,2017_Nov_17_1151,60.0052541252,MAFE4ImagesEEG,001,101963,
AFNE01.JPG,AFNE01.JPG,AFNE01.JPG,AFNE01.JPG,AFNE01.JPG,AFNE01.JPG,,,,,,,,,,,,,,,,,,,,,0,3,3,4,,,AFSA05.jpg,AFNE20.jpg,AFNE02.jpg,AFSA06.jpg,AFNE20.jpg,FN,3,num_6,32,num_4,1.11671870667,,,2017_Nov_17_1151,60.0052541252,MAFE4ImagesEEG,001,101963,
AFNE01.JPG,AFNE01.JPG,AFNE01.JPG,AFNE01.JPG,AFNE01.JPG,AFNE01.JPG,,,,,,,,,,,,,,,,,,,,,0,4,4,3,,,AFSA16.jpg,AFSA09.jpg,AFNE16.jpg,AFNE11.jpg,AFNE16.jpg,FN,3,num_2,16,num_2,0.700146096759,,,2017_Nov_17_1151,60.0052541252,MAFE4ImagesEEG,001,101963,
AFNE01.JPG,AFNE01.JPG,AFNE01.JPG,AFNE01.JPG,AFNE01.JPG,AFNE01.JPG,,,,,,,,,,,,,,,,,,,,,0,5,5,2,,,AFSA06.jpg,AFNE18.jpg,AFNE01.jpg,AFSA03.jpg,AFSA03.jpg,FS,4,num_4,32,num_6,1.36672520172,,,2017_Nov_17_1151,60.0052541252,MAFE4ImagesEEG,001,101963,
AFNE01.JPG,AFNE01.JPG,AFNE01.JPG,AFNE01.JPG,AFNE01.JPG,AFNE01.JPG,,,,,,,,,,,,,,,,,,,,,0,6,6,7,,,AFSA17.jpg,AFNE19.jpg,AFNE09.jpg,AFSA10.jpg,AFSA17.jpg,FS,4,num_8,32,num_6,0.666776680388,,,2017_Nov_17_1151,60.0052541252,MAFE4ImagesEEG,001,101963,
AFNE01.JPG,AFNE01.JPG,AFNE01.JPG,AFNE01.JPG,AFNE01.JPG,AFNE01.JPG,,,,,,,,,,,,,,,,,,,,,0,7,7,5,,,AFSA19.jpg,AFSA04.jpg,AFNE19.jpg,AFNE13.jpg,AFSA19.jpg,FS,4,num_8,32,num_2,1.23341496149,,,2017_Nov_17_1151,60.0052541252,MAFE4ImagesEEG,001,101963,
AFNE01.JPG,AFNE01.JPG,AFNE01.JPG,AFNE01.JPG,AFNE01.JPG,AFNE01.JPG,,,,,,,,,,,,,,,,,,,,,0,8,8,9,,,AFSA12.jpg,AFNE08.jpg,AFNE10.jpg,AFSA06.jpg,AFSA06.jpg,FS,4,num_4,32,num_8,1.33345393138,,,2017_Nov_17_1151,60.0052541252,MAFE4ImagesEEG,001,101963,
AFNE01.JPG,AFNE01.JPG,AFNE01.JPG,AFNE01.JPG,AFNE01.JPG,AFNE01.JPG,,,,,,,,,,,,,,,,,,,,,0,9,9,1,,,AFNE15.jpg,AFSA12.jpg,AFSA10.jpg,AFNE20.jpg,AFSA10.jpg,FS,4,num_2,32,num_4,0.733431158587,,,2017_Nov_17_1151,60.0052541252,MAFE4ImagesEEG,001,101963,
AFNE01.JPG,AFNE01.JPG,AFNE01.JPG,AFNE01.JPG,AFNE01.JPG,AFNE01.JPG,,,,,,,,,,,,,,,,,,,,,1,0,10,5,,,AFSA13.jpg,AFSA08.jpg,AFNE02.jpg,AFNE18.jpg,AFSA08.jpg,FS,4,num_6,16,num_6,0.533492740709,,,2017_Nov_17_1151,60.0052541252,MAFE4ImagesEEG,001,101963,
AFNE01.JPG,AFNE01.JPG,AFNE01.JPG,AFNE01.JPG,AFNE01.JPG,AFNE01.JPG,,,,,,,,,,,,,,,,,,,,,1,1,11,1,,,AFSA13.jpg,AFNE20.jpg,AFSA16.jpg,AFNE03.jpg,AFNE03.jpg,FN,3,num_4,32,num_8,0.916785420384,,,2017_Nov_17_1151,60.0052541252,MAFE4ImagesEEG,001,101963,
AFNE01.JPG,AFNE01.JPG,AFNE01.JPG,AFNE01.JPG,AFNE01.JPG,AFNE01.JPG,,,,,,,,,,,,,,,,,,,,,1,2,12,2,,,AFNE17.jpg,AFNE20.jpg,AFSA02.jpg,AFSA05.jpg,AFSA05.jpg,FS,4,num_4,32,num_8,0.550109612755,,,2017_Nov_17_1151,60.0052541252,MAFE4ImagesEEG,001,101963,
AFNE01.JPG,AFNE01.JPG,AFNE01.JPG,AFNE01.JPG,AFNE01.JPG,AFNE01.JPG,,,,,,,,,,,,,,,,,,,,,1,3,13,6,,,AFSA11.jpg,AFSA01.jpg,AFNE08.jpg,AFNE18.jpg,AFSA11.jpg,FS,4,num_8,16,num_8,0.933452968951,,,2017_Nov_17_1151,60.0052541252,MAFE4ImagesEEG,001,101963,
AFNE01.JPG,AFNE01.JPG,AFNE01.JPG,AFNE01.JPG,AFNE01.JPG,AFNE01.JPG,,,,,,,,,,,,,,,,,,,,,1,4,14,3,,,AFSA02.jpg,AFSA12.jpg,AFNE05.jpg,AFNE15.jpg,AFSA12.jpg,FS,4,num_6,16,num_6,0.500172076747,,,2017_Nov_17_1151,60.0052541252,MAFE4ImagesEEG,001,101963,
AFNE01.JPG,AFNE01.JPG,AFNE01.JPG,AFNE01.JPG,AFNE01.JPG,AFNE01.JPG,,,,,,,,,,,,,,,,,,,,,1,5,15,7,,,AFSA08.jpg,AFNE14.jpg,AFNE03.jpg,AFSA15.jpg,AFNE14.jpg,FN,3,num_6,32,num_8,1.21671469742,,,2017_Nov_17_1151,60.0052541252,MAFE4ImagesEEG,001,101963,
AFNE01.JPG,AFNE01.JPG,AFNE01.JPG,AFNE01.JPG,AFNE01.JPG,AFNE01.JPG,,,,,,,,,,,,,,,,,,,,,1,6,16,9,,,AFNE09.jpg,AFSA06.jpg,AFSA10.jpg,AFNE10.jpg,AFNE09.jpg,FN,3,num_8,32,num_2,2.04990097135,,,2017_Nov_17_1151,60.0052541252,MAFE4ImagesEEG,001,101963,
AFNE01.JPG,AFNE01.JPG,AFNE01.JPG,AFNE01.JPG,AFNE01.JPG,AFNE01.JPG,,,,,,,,,,,,,,,,,,,,,1,7,17,8,,,AFSA12.jpg,AFNE20.jpg,AFNE18.jpg,AFSA09.jpg,AFNE20.jpg,FN,3,num_6,32,num_4,2.5999759445,,,2017_Nov_17_1151,60.0052541252,MAFE4ImagesEEG,001,101963,
AFNE01.JPG,AFNE01.JPG,AFNE01.JPG,AFNE01.JPG,AFNE01.JPG,AFNE01.JPG,,,,,,,,,,,,,,,,,,,,,1,8,18,4,,,AFSA09.jpg,AFNE13.jpg,AFNE07.jpg,AFSA15.jpg,AFSA15.jpg,FS,4,num_4,16,num_4,2.66664742213,,,2017_Nov_17_1151,60.0052541252,MAFE4ImagesEEG,001,101963,
AFNE01.JPG,AFNE01.JPG,AFNE01.JPG,AFNE01.JPG,AFNE01.JPG,AFNE01.JPG,,,,,,,,,,,,,,,,,,,,,1,9,19,0,,,AFNE09.jpg,AFSA20.jpg,AFNE01.jpg,AFSA05.jpg,AFSA05.jpg,FS,4,num_4,16,num_4,1.01677660039,,,2017_Nov_17_1151,60.0052541252,MAFE4ImagesEEG,001,101963,
AFNE01.JPG,AFNE01.JPG,AFNE01.JPG,AFNE01.JPG,AFNE01.JPG,AFNE01.JPG,,,,,,,,,,,,,,,,,,,,,2,0,20,2,,,AFNE11.jpg,AFNE08.jpg,AFSA17.jpg,AFSA16.jpg,AFNE11.jpg,FN,3,num_8,32,num_6,0.683524734341,,,2017_Nov_17_1151,60.0052541252,MAFE4ImagesEEG,001,101963,
AFNE01.JPG,AFNE01.JPG,AFNE01.JPG,AFNE01.JPG,AFNE01.JPG,AFNE01.JPG,,,,,,,,,,,,,,,,,,,,,2,1,21,8,,,AFNE07.jpg,AFSA15.jpg,AFNE09.jpg,AFSA18.jpg,AFNE09.jpg,FN,3,num_2,32,num_6,0.983453370165,,,2017_Nov_17_1151,60.0052541252,MAFE4ImagesEEG,001,101963,
AFNE01.JPG,AFNE01.JPG,AFNE01.JPG,AFNE01.JPG,AFNE01.JPG,AFNE01.JPG,,,,,,,,,,,,,,,,,,,,,2,2,22,4,,,AFNE13.jpg,AFSA05.jpg,AFSA10.jpg,AFNE02.jpg,AFSA10.jpg,FS,4,num_2,32,num_6,0.350149063859,,,2017_Nov_17_1151,60.0052541252,MAFE4ImagesEEG,001,101963,
AFNE01.JPG,AFNE01.JPG,AFNE01.JPG,AFNE01.JPG,AFNE01.JPG,AFNE01.JPG,,,,,,,,,,,,,,,,,,,,,2,3,23,9,,,AFSA05.jpg,AFSA03.jpg,AFNE17.jpg,AFNE11.jpg,AFNE17.jpg,FN,3,num_2,32,num_6,3.79990538163,,,2017_Nov_17_1151,60.0052541252,MAFE4ImagesEEG,001,101963,
AFNE01.JPG,AFNE01.JPG,AFNE01.JPG,AFNE01.JPG,AFNE01.JPG,AFNE01.JPG,,,,,,,,,,,,,,,,,,,,,2,4,24,7,,,AFNE08.jpg,AFSA19.jpg,AFNE06.jpg,AFSA16.jpg,AFSA19.jpg,FS,4,num_6,32,num_4,1.09995589824,,,2017_Nov_17_1151,60.0052541252,MAFE4ImagesEEG,001,101963,
AFNE01.JPG,AFNE01.JPG,AFNE01.JPG,AFNE01.JPG,AFNE01.JPG,AFNE01.JPG,,,,,,,,,,,,,,,,,,,,,2,5,25,6,,,AFNE16.jpg,AFNE01.jpg,AFSA06.jpg,AFSA13.jpg,AFSA13.jpg,FS,4,num_4,32,num_2,0.933459383901,,,2017_Nov_17_1151,60.0052541252,MAFE4ImagesEEG,001,101963,
AFNE01.JPG,AFNE01.JPG,AFNE01.JPG,AFNE01.JPG,AFNE01.JPG,AFNE01.JPG,,,,,,,,,,,,,,,,,,,,,2,6,26,1,,,AFNE03.jpg,AFNE14.jpg,AFSA16.jpg,AFSA09.jpg,AFSA16.jpg,FS,4,num_2,16,num_2,1.08348977426,,,2017_Nov_17_1151,60.0052541252,MAFE4ImagesEEG,001,101963,
AFNE01.JPG,AFNE01.JPG,AFNE01.JPG,AFNE01.JPG,AFNE01.JPG,AFNE01.JPG,,,,,,,,,,,,,,,,,,,,,2,7,27,3,,,AFNE11.jpg,AFSA05.jpg,AFSA09.jpg,AFNE09.jpg,AFNE09.jpg,FN,3,num_4,32,num_6,1.28344711568,,,2017_Nov_17_1151,60.0052541252,MAFE4ImagesEEG,001,101963,
AFNE01.JPG,AFNE01.JPG,AFNE01.JPG,AFNE01.JPG,AFNE01.JPG,AFNE01.JPG,,,,,,,,,,,,,,,,,,,,,2,8,28,5,,,AFSA09.jpg,AFSA18.jpg,AFNE19.jpg,AFNE11.jpg,AFNE11.jpg,FN,3,num_4,32,num_8,1.50009958958,,,2017_Nov_17_1151,60.0052541252,MAFE4ImagesEEG,001,101963,
AFNE01.JPG,AFNE01.JPG,AFNE01.JPG,AFNE01.JPG,AFNE01.JPG,AFNE01.JPG,,,,,,,,,,,,,,,,,,,,,2,9,29,0,,,AFSA08.jpg,AFSA13.jpg,AFNE11.jpg,AFNE01.jpg,AFSA08.jpg,FS,4,num_8,32,num_2,1.60009461828,,,2017_Nov_17_1151,60.0052541252,MAFE4ImagesEEG,001,101963,
AFNE01.JPG,AFNE01.JPG,AFNE01.JPG,AFNE01.JPG,AFNE01.JPG,AFNE01.JPG,,,,,,,,,,,,,,,,,,,,,3,0,30,0,,,AFNE15.jpg,AFSA13.jpg,AFNE02.jpg,AFSA18.jpg,AFSA13.jpg,FS,4,num_6,32,num_2,1.28342690924,,,2017_Nov_17_1151,60.0052541252,MAFE4ImagesEEG,001,101963,
AFNE01.JPG,AFNE01.JPG,AFNE01.JPG,AFNE01.JPG,AFNE01.JPG,AFNE01.JPG,,,,,,,,,,,,,,,,,,,,,3,1,31,3,,,AFSA04.jpg,AFNE09.jpg,AFNE18.jpg,AFSA13.jpg,AFSA04.jpg,FS,4,num_8,32,num_2,1.30037510488,,,2017_Nov_17_1151,60.0052541252,MAFE4ImagesEEG,001,101963,
AFNE01.JPG,AFNE01.JPG,AFNE01.JPG,AFNE01.JPG,AFNE01.JPG,AFNE01.JPG,,,,,,,,,,,,,,,,,,,,,3,2,32,5,,,AFSA01.jpg,AFNE13.jpg,AFNE15.jpg,AFSA08.jpg,AFNE15.jpg,FN,3,num_2,32,num_8,1.31669144379,,,2017_Nov_17_1151,60.0052541252,MAFE4ImagesEEG,001,101963,
AFNE01.JPG,AFNE01.JPG,AFNE01.JPG,AFNE01.JPG,AFNE01.JPG,AFNE01.JPG,,,,,,,,,,,,,,,,,,,,,3,3,33,9,,,AFNE08.jpg,AFSA14.jpg,AFSA18.jpg,AFNE17.jpg,AFSA18.jpg,FS,4,num_2,32,num_6,2.05003247457,,,2017_Nov_17_1151,60.0052541252,MAFE4ImagesEEG,001,101963,
AFNE01.JPG,AFNE01.JPG,AFNE01.JPG,AFNE01.JPG,AFNE01.JPG,AFNE01.JPG,,,,,,,,,,,,,,,,,,,,,3,4,34,8,,,AFNE20.jpg,AFSA14.jpg,AFNE08.jpg,AFSA17.jpg,AFNE08.jpg,FN,3,num_2,32,num_8,1.21682952205,,,2017_Nov_17_1151,60.0052541252,MAFE4ImagesEEG,001,101963,
AFNE01.JPG,AFNE01.JPG,AFNE01.JPG,AFNE01.JPG,AFNE01.JPG,AFNE01.JPG,,,,,,,,,,,,,,,,,,,,,3,5,35,7,,,AFSA06.jpg,AFSA17.jpg,AFNE08.jpg,AFNE09.jpg,AFNE08.jpg,FN,3,num_2,32,num_4,1.40009910846,,,2017_Nov_17_1151,60.0052541252,MAFE4ImagesEEG,001,101963,
AFNE01.JPG,AFNE01.JPG,AFNE01.JPG,AFNE01.JPG,AFNE01.JPG,AFNE01.JPG,,,,,,,,,,,,,,,,,,,,,3,6,36,6,,,AFNE13.jpg,AFSA16.jpg,AFNE08.jpg,AFSA01.jpg,AFNE13.jpg,FN,3,num_8,32,num_2,1.35012693284,,,2017_Nov_17_1151,60.0052541252,MAFE4ImagesEEG,001,101963,
AFNE01.JPG,AFNE01.JPG,AFNE01.JPG,AFNE01.JPG,AFNE01.JPG,AFNE01.JPG,,,,,,,,,,,,,,,,,,,,,3,7,37,4,,,AFNE06.jpg,AFSA02.jpg,AFNE08.jpg,AFSA01.jpg,AFNE06.jpg,FN,3,num_8,16,num_8,0.78347069025,,,2017_Nov_17_1151,60.0052541252,MAFE4ImagesEEG,001,101963,
AFNE01.JPG,AFNE01.JPG,AFNE01.JPG,AFNE01.JPG,AFNE01.JPG,AFNE01.JPG,,,,,,,,,,,,,,,,,,,,,3,8,38,1,,,AFSA13.jpg,AFNE14.jpg,AFSA14.jpg,AFNE04.jpg,AFSA13.jpg,FS,4,num_8,16,num_8,0.750150988344,,,2017_Nov_17_1151,60.0052541252,MAFE4ImagesEEG,001,101963,
AFNE01.JPG,AFNE01.JPG,AFNE01.JPG,AFNE01.JPG,AFNE01.JPG,AFNE01.JPG,,,,,,,,,,,,,,,,,,,,,3,9,39,2,,,AFNE16.jpg,AFNE07.jpg,AFSA08.jpg,AFSA15.jpg,AFSA08.jpg,FS,4,num_2,32,num_4,0.999782859348,,,2017_Nov_17_1151,60.0052541252,MAFE4ImagesEEG,001,101963,
