IPosition2,IPosition3,IPosition1,IPosition6,IPosition4,IPosition5,TrialsM1.thisRepN,TrialsM1.thisTrialN,TrialsM1.thisN,TrialsM1.thisIndex,TrialsF1.thisRepN,TrialsF1.thisTrialN,TrialsF1.thisN,TrialsF1.thisIndex,TrialsM2.thisRepN,TrialsM2.thisTrialN,TrialsM2.thisN,TrialsM2.thisIndex,TrialsF2.thisRepN,TrialsF2.thisTrialN,TrialsF2.thisN,TrialsF2.thisIndex,TrialsM3.thisRepN,TrialsM3.thisTrialN,TrialsM3.thisN,TrialsM3.thisIndex,TrialsF3.thisRepN,TrialsF3.thisTrialN,TrialsF3.thisN,TrialsF3.thisIndex,InstrKey_resp.keys,InstrKey_resp.rt,Image0 _Position,Image1 _Position,Image2 _Position,Image3 _Position,Center_image,condition,code,correct_answer,accuracy,Key_Resp.keys,Key_Resp.rt,BreakKey_resp.keys,BreakKey_resp.rt,date,frameRate,expName,session,participant,
,,,,,,,,,,,,,,,,,,,,,,,,,,,,,,space,18.049157913,,,,,,,,,,,,,,2017_Oct_12_1716,60.0031754984,MAFE4ImagesEEG,001,101922,
AMSA25.JPG,AMNE24.JPG,AMSA24.JPG,AMNE26.JPG,AMSA21.JPG,AMNE25.JPG,0,0,0,3,,,,,,,,,,,,,,,,,,,,,,,AMSA16.jpg,AMNE01.jpg,AMSA01.jpg,AMNE03.jpg,AMSA01.jpg,MS,2,num_2,32,num_8,1.30009695981,,,2017_Oct_12_1716,60.0031754984,MAFE4ImagesEEG,001,101922,
AMNE22.JPG,AMSA24.JPG,AMSA22.JPG,AMNE25.JPG,AMNE24.JPG,AMSA25.JPG,0,1,1,7,,,,,,,,,,,,,,,,,,,,,,,AMNE19.jpg,AMNE17.jpg,AMSA12.jpg,AMSA03.jpg,AMSA03.jpg,MS,2,num_4,16,num_4,2.11667017883,,,2017_Oct_12_1716,60.0031754984,MAFE4ImagesEEG,001,101922,
AFSA21.JPG,AFNE23.JPG,AFNE21.JPG,AFSA25.JPG,AFNE25.JPG,AFSA23.JPG,0,2,2,4,,,,,,,,,,,,,,,,,,,,,,,AMSA08.jpg,AMSA16.jpg,AMNE14.jpg,AMNE15.jpg,AMSA16.jpg,MS,2,num_6,16,num_6,1.61666649021,,,2017_Oct_12_1716,60.0031754984,MAFE4ImagesEEG,001,101922,
AMNE23.JPG,AMNE24.JPG,AMNE22.JPG,AMSA24.JPG,AMSA22.JPG,AMSA23.JPG,0,3,3,9,,,,,,,,,,,,,,,,,,,,,,,AMSA17.jpg,AMNE02.jpg,AMSA03.jpg,AMNE10.jpg,AMNE02.jpg,MN,1,num_6,32,num_4,1.40012168873,,,2017_Oct_12_1716,60.0031754984,MAFE4ImagesEEG,001,101922,
AMSA21.JPG,AMNE23.JPG,AMNE21.JPG,AMSA25.JPG,AMNE25.JPG,AMSA23.JPG,0,4,4,5,,,,,,,,,,,,,,,,,,,,,,,AMNE06.jpg,AMNE19.jpg,AMSA05.jpg,AMSA02.jpg,AMNE19.jpg,MN,1,num_6,32,num_8,0.93341595598,,,2017_Oct_12_1716,60.0031754984,MAFE4ImagesEEG,001,101922,
AFNE23.JPG,AFNE24.JPG,AFNE22.JPG,AFSA24.JPG,AFSA22.JPG,AFSA23.JPG,0,5,5,8,,,,,,,,,,,,,,,,,,,,,,,AMSA19.jpg,AMNE02.jpg,AMSA18.jpg,AMNE04.jpg,AMSA18.jpg,MS,2,num_2,16,num_2,1.71642981609,,,2017_Oct_12_1716,60.0031754984,MAFE4ImagesEEG,001,101922,
AFSA25.JPG,AFNE24.JPG,AFSA24.JPG,AFNE21.JPG,AFSA21.JPG,AFNE25.JPG,0,6,6,2,,,,,,,,,,,,,,,,,,,,,,,AMSA14.jpg,AMNE02.jpg,AMNE12.jpg,AMSA07.jpg,AMSA07.jpg,MS,2,num_4,32,num_6,1.6000460583,,,2017_Oct_12_1716,60.0031754984,MAFE4ImagesEEG,001,101922,
AFSA21.JPG,AFNE22.JPG,AFNE21.JPG,AFSA23.JPG,AFSA22.JPG,AFNE23.JPG,0,7,7,0,,,,,,,,,,,,,,,,,,,,,,,AMNE18.jpg,AMSA06.jpg,AMSA14.jpg,AMNE11.jpg,AMNE18.jpg,MN,1,num_8,16,num_8,1.08343572961,,,2017_Oct_12_1716,60.0031754984,MAFE4ImagesEEG,001,101922,
AMSA21.JPG,AMNE22.JPG,AMNE21.JPG,AMSA23.JPG,AMSA22.JPG,AMNE23.JPG,0,8,8,1,,,,,,,,,,,,,,,,,,,,,,,AMSA13.jpg,AMNE13.jpg,AMSA20.jpg,AMNE04.jpg,AMNE04.jpg,MN,1,num_4,16,num_4,1.21673115145,,,2017_Oct_12_1716,60.0031754984,MAFE4ImagesEEG,001,101922,
AFNE22.JPG,AFSA24.JPG,AFSA22.JPG,AFNE25.JPG,AFNE24.JPG,AFSA25.JPG,0,9,9,6,,,,,,,,,,,,,,,,,,,,,,,AMNE08.jpg,AMSA03.jpg,AMNE15.jpg,AMSA19.jpg,AMSA03.jpg,MS,2,num_6,16,num_6,1.36677081103,,,2017_Oct_12_1716,60.0031754984,MAFE4ImagesEEG,001,101922,
AFNE23.JPG,AFNE24.JPG,AFNE22.JPG,AFSA24.JPG,AFSA22.JPG,AFSA23.JPG,,,,,0,0,0,8,,,,,,,,,,,,,,,,,,,AFSA17.jpg,AFNE02.jpg,AFNE13.jpg,AFSA15.jpg,AFNE02.jpg,FN,3,num_6,32,num_8,0.750127414009,,,2017_Oct_12_1716,60.0031754984,MAFE4ImagesEEG,001,101922,
AMSA25.JPG,AMNE24.JPG,AMSA24.JPG,AMNE26.JPG,AMSA21.JPG,AMNE25.JPG,,,,,0,1,1,3,,,,,,,,,,,,,,,,,,,AFSA18.jpg,AFSA02.jpg,AFNE02.jpg,AFNE07.jpg,AFNE02.jpg,FN,3,num_2,32,num_4,0.73348613386,,,2017_Oct_12_1716,60.0031754984,MAFE4ImagesEEG,001,101922,
AMNE23.JPG,AMNE24.JPG,AMNE22.JPG,AMSA24.JPG,AMSA22.JPG,AMSA23.JPG,,,,,0,2,2,9,,,,,,,,,,,,,,,,,,,AFNE04.jpg,AFSA13.jpg,AFNE16.jpg,AFSA07.jpg,AFNE04.jpg,FN,3,num_8,32,num_2,1.96665778209,,,2017_Oct_12_1716,60.0031754984,MAFE4ImagesEEG,001,101922,
AMSA21.JPG,AMNE22.JPG,AMNE21.JPG,AMSA23.JPG,AMSA22.JPG,AMNE23.JPG,,,,,0,3,3,1,,,,,,,,,,,,,,,,,,,AFSA16.jpg,AFNE13.jpg,AFNE09.jpg,AFSA06.jpg,AFNE09.jpg,FN,3,num_2,32,num_8,1.10020338127,,,2017_Oct_12_1716,60.0031754984,MAFE4ImagesEEG,001,101922,
AMNE22.JPG,AMSA24.JPG,AMSA22.JPG,AMNE25.JPG,AMNE24.JPG,AMSA25.JPG,,,,,0,4,4,7,,,,,,,,,,,,,,,,,,,AFNE09.jpg,AFSA05.jpg,AFNE19.jpg,AFSA07.jpg,AFNE19.jpg,FN,3,num_2,16,num_2,1.71671142592,,,2017_Oct_12_1716,60.0031754984,MAFE4ImagesEEG,001,101922,
AFSA21.JPG,AFNE22.JPG,AFNE21.JPG,AFSA23.JPG,AFSA22.JPG,AFNE23.JPG,,,,,0,5,5,0,,,,,,,,,,,,,,,,,,,AFSA10.jpg,AFSA07.jpg,AFNE01.jpg,AFNE10.jpg,AFSA07.jpg,FS,4,num_6,16,num_6,1.53342416685,,,2017_Oct_12_1716,60.0031754984,MAFE4ImagesEEG,001,101922,
AFSA21.JPG,AFNE23.JPG,AFNE21.JPG,AFSA25.JPG,AFNE25.JPG,AFSA23.JPG,,,,,0,6,6,4,,,,,,,,,,,,,,,,,,,AFNE04.jpg,AFSA04.jpg,AFSA03.jpg,AFNE09.jpg,AFNE04.jpg,FN,3,num_8,32,num_4,0.916767298826,,,2017_Oct_12_1716,60.0031754984,MAFE4ImagesEEG,001,101922,
AFSA25.JPG,AFNE24.JPG,AFSA24.JPG,AFNE21.JPG,AFSA21.JPG,AFNE25.JPG,,,,,0,7,7,2,,,,,,,,,,,,,,,,,,,AFNE05.jpg,AFSA05.jpg,AFNE12.jpg,AFSA08.jpg,AFNE12.jpg,FN,3,num_2,16,num_2,1.55008404993,,,2017_Oct_12_1716,60.0031754984,MAFE4ImagesEEG,001,101922,
AFNE22.JPG,AFSA24.JPG,AFSA22.JPG,AFNE25.JPG,AFNE24.JPG,AFSA25.JPG,,,,,0,8,8,6,,,,,,,,,,,,,,,,,,,AFNE07.jpg,AFSA15.jpg,AFNE05.jpg,AFSA04.jpg,AFSA04.jpg,FS,4,num_4,32,num_6,1.15022087761,,,2017_Oct_12_1716,60.0031754984,MAFE4ImagesEEG,001,101922,
AMSA21.JPG,AMNE23.JPG,AMNE21.JPG,AMSA25.JPG,AMNE25.JPG,AMSA23.JPG,,,,,0,9,9,5,,,,,,,,,,,,,,,,,,,AFSA04.jpg,AFNE03.jpg,AFSA13.jpg,AFNE06.jpg,AFNE06.jpg,FN,3,num_4,32,num_8,1.48340218025,,,2017_Oct_12_1716,60.0031754984,MAFE4ImagesEEG,001,101922,
AMNE23.JPG,AMNE24.JPG,AMNE22.JPG,AMSA24.JPG,AMSA22.JPG,AMSA23.JPG,,,,,,,,,0,0,0,9,,,,,,,,,,,,,,,AMNE19.jpg,AMSA08.jpg,AMNE11.jpg,AMSA10.jpg,AMSA08.jpg,MS,2,num_6,32,num_2,1.41669817932,,,2017_Oct_12_1716,60.0031754984,MAFE4ImagesEEG,001,101922,
AFNE23.JPG,AFNE24.JPG,AFNE22.JPG,AFSA24.JPG,AFSA22.JPG,AFSA23.JPG,,,,,,,,,0,1,1,8,,,,,,,,,,,,,,,AMNE09.jpg,AMNE05.jpg,AMSA01.jpg,AMSA15.jpg,AMSA01.jpg,MS,2,num_2,16,num_2,1.41673249868,,,2017_Oct_12_1716,60.0031754984,MAFE4ImagesEEG,001,101922,
AMSA21.JPG,AMNE22.JPG,AMNE21.JPG,AMSA23.JPG,AMSA22.JPG,AMNE23.JPG,,,,,,,,,0,2,2,1,,,,,,,,,,,,,,,AMNE13.jpg,AMNE19.jpg,AMSA09.jpg,AMSA01.jpg,AMSA09.jpg,MS,2,num_2,32,num_6,1.30010754417,,,2017_Oct_12_1716,60.0031754984,MAFE4ImagesEEG,001,101922,
AFSA25.JPG,AFNE24.JPG,AFSA24.JPG,AFNE21.JPG,AFSA21.JPG,AFNE25.JPG,,,,,,,,,0,3,3,2,,,,,,,,,,,,,,,AMSA04.jpg,AMSA14.jpg,AMNE06.jpg,AMNE13.jpg,AMSA04.jpg,MS,2,num_8,32,num_2,1.30009792198,,,2017_Oct_12_1716,60.0031754984,MAFE4ImagesEEG,001,101922,
AFNE22.JPG,AFSA24.JPG,AFSA22.JPG,AFNE25.JPG,AFNE24.JPG,AFSA25.JPG,,,,,,,,,0,4,4,6,,,,,,,,,,,,,,,AMNE19.jpg,AMSA20.jpg,AMSA16.jpg,AMNE01.jpg,AMNE19.jpg,MN,1,num_8,32,num_6,1.68375281326,,,2017_Oct_12_1716,60.0031754984,MAFE4ImagesEEG,001,101922,
AFSA21.JPG,AFNE23.JPG,AFNE21.JPG,AFSA25.JPG,AFNE25.JPG,AFSA23.JPG,,,,,,,,,0,5,5,4,,,,,,,,,,,,,,,AMNE03.jpg,AMSA08.jpg,AMNE07.jpg,AMSA06.jpg,AMNE07.jpg,MN,1,num_2,32,num_4,1.11672021425,,,2017_Oct_12_1716,60.0031754984,MAFE4ImagesEEG,001,101922,
AMNE22.JPG,AMSA24.JPG,AMSA22.JPG,AMNE25.JPG,AMNE24.JPG,AMSA25.JPG,,,,,,,,,0,6,6,7,,,,,,,,,,,,,,,AMSA06.jpg,AMNE03.jpg,AMSA19.jpg,AMNE19.jpg,AMSA19.jpg,MS,2,num_2,16,num_2,1.36673617107,,,2017_Oct_12_1716,60.0031754984,MAFE4ImagesEEG,001,101922,
AMSA25.JPG,AMNE24.JPG,AMSA24.JPG,AMNE26.JPG,AMSA21.JPG,AMNE25.JPG,,,,,,,,,0,7,7,3,,,,,,,,,,,,,,,AMNE20.jpg,AMSA01.jpg,AMSA02.jpg,AMNE05.jpg,AMNE20.jpg,MN,1,num_8,16,num_8,1.15005665878,,,2017_Oct_12_1716,60.0031754984,MAFE4ImagesEEG,001,101922,
AMSA21.JPG,AMNE23.JPG,AMNE21.JPG,AMSA25.JPG,AMNE25.JPG,AMSA23.JPG,,,,,,,,,0,8,8,5,,,,,,,,,,,,,,,AMSA01.jpg,AMNE04.jpg,AMSA19.jpg,AMNE10.jpg,AMSA19.jpg,MS,2,num_2,32,num_6,0.96682520851,,,2017_Oct_12_1716,60.0031754984,MAFE4ImagesEEG,001,101922,
AFSA21.JPG,AFNE22.JPG,AFNE21.JPG,AFSA23.JPG,AFSA22.JPG,AFNE23.JPG,,,,,,,,,0,9,9,0,,,,,,,,,,,,,,,AMNE05.jpg,AMNE19.jpg,AMSA16.jpg,AMSA13.jpg,AMNE05.jpg,MN,1,num_8,32,num_4,1.55004042923,,,2017_Oct_12_1716,60.0031754984,MAFE4ImagesEEG,001,101922,
AMSA25.JPG,AMNE24.JPG,AMSA24.JPG,AMNE26.JPG,AMSA21.JPG,AMNE25.JPG,,,,,,,,,,,,,0,0,0,3,,,,,,,,,,,AFNE03.jpg,AFNE17.jpg,AFSA15.jpg,AFSA05.jpg,AFSA05.jpg,FS,4,num_4,32,num_8,1.31680431229,,,2017_Oct_12_1716,60.0031754984,MAFE4ImagesEEG,001,101922,
AFNE22.JPG,AFSA24.JPG,AFSA22.JPG,AFNE25.JPG,AFNE24.JPG,AFSA25.JPG,,,,,,,,,,,,,0,1,1,6,,,,,,,,,,,AFSA04.jpg,AFNE14.jpg,AFSA02.jpg,AFNE20.jpg,AFNE20.jpg,FN,3,num_4,32,num_6,1.13346862153,,,2017_Oct_12_1716,60.0031754984,MAFE4ImagesEEG,001,101922,
AMNE23.JPG,AMNE24.JPG,AMNE22.JPG,AMSA24.JPG,AMSA22.JPG,AMSA23.JPG,,,,,,,,,,,,,0,2,2,9,,,,,,,,,,,AFNE12.jpg,AFSA02.jpg,AFSA17.jpg,AFNE01.jpg,AFNE01.jpg,FN,3,num_4,32,num_2,1.16676272836,,,2017_Oct_12_1716,60.0031754984,MAFE4ImagesEEG,001,101922,
AMSA21.JPG,AMNE22.JPG,AMNE21.JPG,AMSA23.JPG,AMSA22.JPG,AMNE23.JPG,,,,,,,,,,,,,0,3,3,1,,,,,,,,,,,AFSA05.jpg,AFSA12.jpg,AFNE12.jpg,AFNE03.jpg,AFNE03.jpg,FN,3,num_4,32,num_8,1.35010130575,,,2017_Oct_12_1716,60.0031754984,MAFE4ImagesEEG,001,101922,
AMNE22.JPG,AMSA24.JPG,AMSA22.JPG,AMNE25.JPG,AMNE24.JPG,AMSA25.JPG,,,,,,,,,,,,,0,4,4,7,,,,,,,,,,,AFSA12.jpg,AFSA01.jpg,AFNE07.jpg,AFNE12.jpg,AFSA01.jpg,FS,4,num_6,32,num_8,1.78337918315,,,2017_Oct_12_1716,60.0031754984,MAFE4ImagesEEG,001,101922,
AFNE23.JPG,AFNE24.JPG,AFNE22.JPG,AFSA24.JPG,AFSA22.JPG,AFSA23.JPG,,,,,,,,,,,,,0,5,5,8,,,,,,,,,,,AFSA15.jpg,AFSA03.jpg,AFNE06.jpg,AFNE16.jpg,AFNE16.jpg,FN,3,num_4,32,num_6,1.1332886864,,,2017_Oct_12_1716,60.0031754984,MAFE4ImagesEEG,001,101922,
AFSA21.JPG,AFNE23.JPG,AFNE21.JPG,AFSA25.JPG,AFNE25.JPG,AFSA23.JPG,,,,,,,,,,,,,0,6,6,4,,,,,,,,,,,AFSA10.jpg,AFSA03.jpg,AFNE15.jpg,AFNE12.jpg,AFSA10.jpg,FS,4,num_8,16,num_8,1.34982033737,,,2017_Oct_12_1716,60.0031754984,MAFE4ImagesEEG,001,101922,
AFSA21.JPG,AFNE22.JPG,AFNE21.JPG,AFSA23.JPG,AFSA22.JPG,AFNE23.JPG,,,,,,,,,,,,,0,7,7,0,,,,,,,,,,,AFNE08.jpg,AFSA19.jpg,AFSA05.jpg,AFNE07.jpg,AFSA19.jpg,FS,4,num_6,16,num_6,1.85003443144,,,2017_Oct_12_1716,60.0031754984,MAFE4ImagesEEG,001,101922,
AMSA21.JPG,AMNE23.JPG,AMNE21.JPG,AMSA25.JPG,AMNE25.JPG,AMSA23.JPG,,,,,,,,,,,,,0,8,8,5,,,,,,,,,,,AFNE06.jpg,AFNE02.jpg,AFSA10.jpg,AFSA09.jpg,AFNE06.jpg,FN,3,num_8,32,num_4,1.11672791198,,,2017_Oct_12_1716,60.0031754984,MAFE4ImagesEEG,001,101922,
AFSA25.JPG,AFNE24.JPG,AFSA24.JPG,AFNE21.JPG,AFSA21.JPG,AFNE25.JPG,,,,,,,,,,,,,0,9,9,2,,,,,,,,,,,AFSA14.jpg,AFNE05.jpg,AFSA06.jpg,AFNE02.jpg,AFNE02.jpg,FN,3,num_4,32,num_8,1.20007928694,,,2017_Oct_12_1716,60.0031754984,MAFE4ImagesEEG,001,101922,
AMNE22.JPG,AMSA24.JPG,AMSA22.JPG,AMNE25.JPG,AMNE24.JPG,AMSA25.JPG,,,,,,,,,,,,,,,,,0,0,0,7,,,,,,,AMSA03.jpg,AMNE15.jpg,AMSA08.jpg,AMNE07.jpg,AMNE15.jpg,MN,1,num_6,16,num_6,0.866638184991,,,2017_Oct_12_1716,60.0031754984,MAFE4ImagesEEG,001,101922,
AMSA25.JPG,AMNE24.JPG,AMSA24.JPG,AMNE26.JPG,AMSA21.JPG,AMNE25.JPG,,,,,,,,,,,,,,,,,0,1,1,3,,,,,,,AMSA02.jpg,AMSA14.jpg,AMNE09.jpg,AMNE03.jpg,AMNE03.jpg,MN,1,num_4,32,num_6,1.55008757813,,,2017_Oct_12_1716,60.0031754984,MAFE4ImagesEEG,001,101922,
AFNE22.JPG,AFSA24.JPG,AFSA22.JPG,AFNE25.JPG,AFNE24.JPG,AFSA25.JPG,,,,,,,,,,,,,,,,,0,2,2,6,,,,,,,AMSA01.jpg,AMSA12.jpg,AMNE15.jpg,AMNE18.jpg,AMSA01.jpg,MS,2,num_8,16,num_8,0.833490335615,,,2017_Oct_12_1716,60.0031754984,MAFE4ImagesEEG,001,101922,
AMSA21.JPG,AMNE23.JPG,AMNE21.JPG,AMSA25.JPG,AMNE25.JPG,AMSA23.JPG,,,,,,,,,,,,,,,,,0,3,3,5,,,,,,,AMNE05.jpg,AMNE19.jpg,AMSA14.jpg,AMSA19.jpg,AMSA14.jpg,MS,2,num_2,16,num_2,0.966777097434,,,2017_Oct_12_1716,60.0031754984,MAFE4ImagesEEG,001,101922,
AMSA21.JPG,AMNE22.JPG,AMNE21.JPG,AMSA23.JPG,AMSA22.JPG,AMNE23.JPG,,,,,,,,,,,,,,,,,0,4,4,1,,,,,,,AMNE15.jpg,AMSA19.jpg,AMSA18.jpg,AMNE01.jpg,AMSA19.jpg,MS,2,num_6,32,num_8,1.05009511544,,,2017_Oct_12_1716,60.0031754984,MAFE4ImagesEEG,001,101922,
AFNE23.JPG,AFNE24.JPG,AFNE22.JPG,AFSA24.JPG,AFSA22.JPG,AFSA23.JPG,,,,,,,,,,,,,,,,,0,5,5,8,,,,,,,AMSA04.jpg,AMNE14.jpg,AMNE11.jpg,AMSA17.jpg,AMNE14.jpg,MN,1,num_6,16,num_6,0.850134823006,,,2017_Oct_12_1716,60.0031754984,MAFE4ImagesEEG,001,101922,
AFSA25.JPG,AFNE24.JPG,AFSA24.JPG,AFNE21.JPG,AFSA21.JPG,AFNE25.JPG,,,,,,,,,,,,,,,,,0,6,6,2,,,,,,,AMNE02.jpg,AMNE01.jpg,AMSA03.jpg,AMSA20.jpg,AMNE01.jpg,MN,1,num_6,16,num_6,1.65005297028,,,2017_Oct_12_1716,60.0031754984,MAFE4ImagesEEG,001,101922,
AFSA21.JPG,AFNE23.JPG,AFNE21.JPG,AFSA25.JPG,AFNE25.JPG,AFSA23.JPG,,,,,,,,,,,,,,,,,0,7,7,4,,,,,,,AMSA11.jpg,AMNE08.jpg,AMNE18.jpg,AMSA10.jpg,AMSA11.jpg,MS,2,num_8,16,num_8,1.03344325093,,,2017_Oct_12_1716,60.0031754984,MAFE4ImagesEEG,001,101922,
AFSA21.JPG,AFNE22.JPG,AFNE21.JPG,AFSA23.JPG,AFSA22.JPG,AFNE23.JPG,,,,,,,,,,,,,,,,,0,8,8,0,,,,,,,AMNE01.jpg,AMSA05.jpg,AMNE18.jpg,AMSA02.jpg,AMNE01.jpg,MN,1,num_8,32,num_2,2.21667822928,,,2017_Oct_12_1716,60.0031754984,MAFE4ImagesEEG,001,101922,
AMNE23.JPG,AMNE24.JPG,AMNE22.JPG,AMSA24.JPG,AMSA22.JPG,AMSA23.JPG,,,,,,,,,,,,,,,,,0,9,9,9,,,,,,,AMSA20.jpg,AMSA01.jpg,AMNE06.jpg,AMNE16.jpg,AMNE16.jpg,MN,1,num_4,16,num_4,0.866804649122,,,2017_Oct_12_1716,60.0031754984,MAFE4ImagesEEG,001,101922,
AMSA21.JPG,AMNE23.JPG,AMNE21.JPG,AMSA25.JPG,AMNE25.JPG,AMSA23.JPG,,,,,,,,,,,,,,,,,,,,,0,0,0,5,,,AFSA13.jpg,AFNE18.jpg,AFNE07.jpg,AFSA10.jpg,AFNE07.jpg,FN,3,num_2,32,num_6,1.1834222906,,,2017_Oct_12_1716,60.0031754984,MAFE4ImagesEEG,001,101922,
AMSA21.JPG,AMNE22.JPG,AMNE21.JPG,AMSA23.JPG,AMSA22.JPG,AMNE23.JPG,,,,,,,,,,,,,,,,,,,,,0,1,1,1,,,AFSA10.jpg,AFSA01.jpg,AFNE15.jpg,AFNE07.jpg,AFNE15.jpg,FN,3,num_2,16,num_2,1.13342018973,,,2017_Oct_12_1716,60.0031754984,MAFE4ImagesEEG,001,101922,
AFSA21.JPG,AFNE22.JPG,AFNE21.JPG,AFSA23.JPG,AFSA22.JPG,AFNE23.JPG,,,,,,,,,,,,,,,,,,,,,0,2,2,0,,,AFNE03.jpg,AFSA07.jpg,AFSA12.jpg,AFNE16.jpg,AFSA07.jpg,FS,4,num_6,16,num_6,0.716809572419,,,2017_Oct_12_1716,60.0031754984,MAFE4ImagesEEG,001,101922,
AMNE23.JPG,AMNE24.JPG,AMNE22.JPG,AMSA24.JPG,AMSA22.JPG,AMSA23.JPG,,,,,,,,,,,,,,,,,,,,,0,3,3,9,,,AFNE06.jpg,AFNE16.jpg,AFSA05.jpg,AFSA11.jpg,AFSA11.jpg,FS,4,num_4,32,num_6,2.55002182629,,,2017_Oct_12_1716,60.0031754984,MAFE4ImagesEEG,001,101922,
AFSA21.JPG,AFNE23.JPG,AFNE21.JPG,AFSA25.JPG,AFNE25.JPG,AFSA23.JPG,,,,,,,,,,,,,,,,,,,,,0,4,4,4,,,AFNE04.jpg,AFNE02.jpg,AFSA05.jpg,AFSA08.jpg,AFSA08.jpg,FS,4,num_4,32,num_2,0.866792460904,,,2017_Oct_12_1716,60.0031754984,MAFE4ImagesEEG,001,101922,
AMSA25.JPG,AMNE24.JPG,AMSA24.JPG,AMNE26.JPG,AMSA21.JPG,AMNE25.JPG,,,,,,,,,,,,,,,,,,,,,0,5,5,3,,,AFSA16.jpg,AFSA13.jpg,AFNE10.jpg,AFNE09.jpg,AFNE09.jpg,FN,3,num_4,32,num_2,0.633449216723,,,2017_Oct_12_1716,60.0031754984,MAFE4ImagesEEG,001,101922,
AFNE23.JPG,AFNE24.JPG,AFNE22.JPG,AFSA24.JPG,AFSA22.JPG,AFSA23.JPG,,,,,,,,,,,,,,,,,,,,,0,6,6,8,,,AFNE10.jpg,AFSA06.jpg,AFSA03.jpg,AFNE15.jpg,AFNE15.jpg,FN,3,num_4,16,num_4,1.48343425419,,,2017_Oct_12_1716,60.0031754984,MAFE4ImagesEEG,001,101922,
AMNE22.JPG,AMSA24.JPG,AMSA22.JPG,AMNE25.JPG,AMNE24.JPG,AMSA25.JPG,,,,,,,,,,,,,,,,,,,,,0,7,7,7,,,AFNE06.jpg,AFNE17.jpg,AFSA04.jpg,AFSA16.jpg,AFNE06.jpg,FN,3,num_8,16,num_8,0.933429106371,,,2017_Oct_12_1716,60.0031754984,MAFE4ImagesEEG,001,101922,
AFNE22.JPG,AFSA24.JPG,AFSA22.JPG,AFNE25.JPG,AFNE24.JPG,AFSA25.JPG,,,,,,,,,,,,,,,,,,,,,0,8,8,6,,,AFSA11.jpg,AFNE09.jpg,AFNE18.jpg,AFSA10.jpg,AFSA11.jpg,FS,4,num_8,32,num_2,1.05010217184,,,2017_Oct_12_1716,60.0031754984,MAFE4ImagesEEG,001,101922,
AFSA25.JPG,AFNE24.JPG,AFSA24.JPG,AFNE21.JPG,AFSA21.JPG,AFNE25.JPG,,,,,,,,,,,,,,,,,,,,,0,9,9,2,,,AFSA05.jpg,AFNE13.jpg,AFNE19.jpg,AFSA02.jpg,AFSA05.jpg,FS,4,num_8,32,num_6,0.800140419975,,,2017_Oct_12_1716,60.0031754984,MAFE4ImagesEEG,001,101922,
,,,,,,,,,,,,,,,,,,,,,,,,,,,,,,,,,,,,,,,,,,,space,7.06654010271,2017_Oct_12_1716,60.0031754984,MAFE4ImagesEEG,001,101922,
AFNE01.JPG,AFNE01.JPG,AFNE01.JPG,AFNE01.JPG,AFNE01.JPG,AFNE01.JPG,0,0,0,9,,,,,,,,,,,,,,,,,,,,,,,AMNE01.jpg,AMSA04.jpg,AMSA20.jpg,AMNE18.jpg,AMNE18.jpg,MN,1,num_4,16,num_4,1.05003321264,,,2017_Oct_12_1716,60.0031754984,MAFE4ImagesEEG,001,101922,
AFNE01.JPG,AFNE01.JPG,AFNE01.JPG,AFNE01.JPG,AFNE01.JPG,AFNE01.JPG,0,1,1,0,,,,,,,,,,,,,,,,,,,,,,,AMNE03.jpg,AMNE01.jpg,AMSA14.jpg,AMSA20.jpg,AMNE03.jpg,MN,1,num_8,16,num_8,1.65004238579,,,2017_Oct_12_1716,60.0031754984,MAFE4ImagesEEG,001,101922,
AFNE01.JPG,AFNE01.JPG,AFNE01.JPG,AFNE01.JPG,AFNE01.JPG,AFNE01.JPG,0,2,2,3,,,,,,,,,,,,,,,,,,,,,,,AMNE15.jpg,AMSA13.jpg,AMNE14.jpg,AMSA02.jpg,AMNE15.jpg,MN,1,num_8,16,num_8,1.38343903329,,,2017_Oct_12_1716,60.0031754984,MAFE4ImagesEEG,001,101922,
AFNE01.JPG,AFNE01.JPG,AFNE01.JPG,AFNE01.JPG,AFNE01.JPG,AFNE01.JPG,0,3,3,2,,,,,,,,,,,,,,,,,,,,,,,AMSA03.jpg,AMSA19.jpg,AMNE08.jpg,AMNE16.jpg,AMSA19.jpg,MS,2,num_6,16,num_6,0.916798089864,,,2017_Oct_12_1716,60.0031754984,MAFE4ImagesEEG,001,101922,
AFNE01.JPG,AFNE01.JPG,AFNE01.JPG,AFNE01.JPG,AFNE01.JPG,AFNE01.JPG,0,4,4,7,,,,,,,,,,,,,,,,,,,,,,,AMSA07.jpg,AMSA06.jpg,AMNE17.jpg,AMNE01.jpg,AMSA06.jpg,MS,2,num_6,16,num_6,1.60009545228,,,2017_Oct_12_1716,60.0031754984,MAFE4ImagesEEG,001,101922,
AFNE01.JPG,AFNE01.JPG,AFNE01.JPG,AFNE01.JPG,AFNE01.JPG,AFNE01.JPG,0,5,5,4,,,,,,,,,,,,,,,,,,,,,,,AMSA01.jpg,AMNE19.jpg,AMNE10.jpg,AMSA20.jpg,AMNE10.jpg,MN,1,num_2,16,num_2,3.38325973949,,,2017_Oct_12_1716,60.0031754984,MAFE4ImagesEEG,001,101922,
AFNE01.JPG,AFNE01.JPG,AFNE01.JPG,AFNE01.JPG,AFNE01.JPG,AFNE01.JPG,0,6,6,5,,,,,,,,,,,,,,,,,,,,,,,AMNE11.jpg,AMNE12.jpg,AMSA07.jpg,AMSA01.jpg,AMNE12.jpg,MN,1,num_6,32,num_8,1.15011663712,,,2017_Oct_12_1716,60.0031754984,MAFE4ImagesEEG,001,101922,
AFNE01.JPG,AFNE01.JPG,AFNE01.JPG,AFNE01.JPG,AFNE01.JPG,AFNE01.JPG,0,7,7,8,,,,,,,,,,,,,,,,,,,,,,,AMNE07.jpg,AMSA12.jpg,AMNE08.jpg,AMSA10.jpg,AMNE08.jpg,MN,1,num_2,32,num_8,0.700159632368,,,2017_Oct_12_1716,60.0031754984,MAFE4ImagesEEG,001,101922,
AFNE01.JPG,AFNE01.JPG,AFNE01.JPG,AFNE01.JPG,AFNE01.JPG,AFNE01.JPG,0,8,8,1,,,,,,,,,,,,,,,,,,,,,,,AMSA16.jpg,AMNE01.jpg,AMSA09.jpg,AMNE20.jpg,AMNE01.jpg,MN,1,num_6,16,num_6,0.866821969044,,,2017_Oct_12_1716,60.0031754984,MAFE4ImagesEEG,001,101922,
AFNE01.JPG,AFNE01.JPG,AFNE01.JPG,AFNE01.JPG,AFNE01.JPG,AFNE01.JPG,0,9,9,6,,,,,,,,,,,,,,,,,,,,,,,AMSA16.jpg,AMSA02.jpg,AMNE03.jpg,AMNE10.jpg,AMSA16.jpg,MS,2,num_8,16,num_8,1.10016393033,,,2017_Oct_12_1716,60.0031754984,MAFE4ImagesEEG,001,101922,
AFNE01.JPG,AFNE01.JPG,AFNE01.JPG,AFNE01.JPG,AFNE01.JPG,AFNE01.JPG,1,0,10,7,,,,,,,,,,,,,,,,,,,,,,,AMNE14.jpg,AMSA15.jpg,AMSA10.jpg,AMNE11.jpg,AMSA15.jpg,MS,2,num_6,16,num_6,0.483540419256,,,2017_Oct_12_1716,60.0031754984,MAFE4ImagesEEG,001,101922,
AFNE01.JPG,AFNE01.JPG,AFNE01.JPG,AFNE01.JPG,AFNE01.JPG,AFNE01.JPG,1,1,11,3,,,,,,,,,,,,,,,,,,,,,,,AMSA01.jpg,AMNE07.jpg,AMNE20.jpg,AMSA09.jpg,AMNE07.jpg,MN,1,num_6,32,num_4,1.6167328835,,,2017_Oct_12_1716,60.0031754984,MAFE4ImagesEEG,001,101922,
AFNE01.JPG,AFNE01.JPG,AFNE01.JPG,AFNE01.JPG,AFNE01.JPG,AFNE01.JPG,1,2,12,9,,,,,,,,,,,,,,,,,,,,,,,AMSA02.jpg,AMNE10.jpg,AMNE06.jpg,AMSA05.jpg,AMNE10.jpg,MN,1,num_6,16,num_6,0.850135785295,,,2017_Oct_12_1716,60.0031754984,MAFE4ImagesEEG,001,101922,
AFNE01.JPG,AFNE01.JPG,AFNE01.JPG,AFNE01.JPG,AFNE01.JPG,AFNE01.JPG,1,3,13,5,,,,,,,,,,,,,,,,,,,,,,,AMNE20.jpg,AMSA05.jpg,AMNE03.jpg,AMSA09.jpg,AMSA05.jpg,MS,2,num_6,32,num_4,2.06663985283,,,2017_Oct_12_1716,60.0031754984,MAFE4ImagesEEG,001,101922,
AFNE01.JPG,AFNE01.JPG,AFNE01.JPG,AFNE01.JPG,AFNE01.JPG,AFNE01.JPG,1,4,14,1,,,,,,,,,,,,,,,,,,,,,,,AMSA01.jpg,AMNE13.jpg,AMNE09.jpg,AMSA10.jpg,AMNE09.jpg,MN,1,num_2,32,num_6,0.866731520393,,,2017_Oct_12_1716,60.0031754984,MAFE4ImagesEEG,001,101922,
AFNE01.JPG,AFNE01.JPG,AFNE01.JPG,AFNE01.JPG,AFNE01.JPG,AFNE01.JPG,1,5,15,8,,,,,,,,,,,,,,,,,,,,,,,AMSA18.jpg,AMNE01.jpg,AMSA04.jpg,AMNE17.jpg,AMSA04.jpg,MS,2,num_2,16,num_2,1.75010143407,,,2017_Oct_12_1716,60.0031754984,MAFE4ImagesEEG,001,101922,
AFNE01.JPG,AFNE01.JPG,AFNE01.JPG,AFNE01.JPG,AFNE01.JPG,AFNE01.JPG,1,6,16,0,,,,,,,,,,,,,,,,,,,,,,,AMSA07.jpg,AMSA19.jpg,AMNE09.jpg,AMNE20.jpg,AMNE09.jpg,MN,1,num_2,32,num_4,1.89974337583,,,2017_Oct_12_1716,60.0031754984,MAFE4ImagesEEG,001,101922,
AFNE01.JPG,AFNE01.JPG,AFNE01.JPG,AFNE01.JPG,AFNE01.JPG,AFNE01.JPG,1,7,17,4,,,,,,,,,,,,,,,,,,,,,,,AMSA15.jpg,AMNE12.jpg,AMSA07.jpg,AMNE07.jpg,AMSA15.jpg,MS,2,num_8,32,num_6,1.30004403763,,,2017_Oct_12_1716,60.0031754984,MAFE4ImagesEEG,001,101922,
AFNE01.JPG,AFNE01.JPG,AFNE01.JPG,AFNE01.JPG,AFNE01.JPG,AFNE01.JPG,1,8,18,6,,,,,,,,,,,,,,,,,,,,,,,AMSA18.jpg,AMNE08.jpg,AMNE02.jpg,AMSA20.jpg,AMNE02.jpg,MN,1,num_2,32,num_6,1.40011110436,,,2017_Oct_12_1716,60.0031754984,MAFE4ImagesEEG,001,101922,
AFNE01.JPG,AFNE01.JPG,AFNE01.JPG,AFNE01.JPG,AFNE01.JPG,AFNE01.JPG,1,9,19,2,,,,,,,,,,,,,,,,,,,,,,,AMNE20.jpg,AMSA12.jpg,AMSA01.jpg,AMNE02.jpg,AMNE20.jpg,MN,1,num_8,32,num_6,1.25037582719,,,2017_Oct_12_1716,60.0031754984,MAFE4ImagesEEG,001,101922,
AFNE01.JPG,AFNE01.JPG,AFNE01.JPG,AFNE01.JPG,AFNE01.JPG,AFNE01.JPG,2,0,20,3,,,,,,,,,,,,,,,,,,,,,,,AMNE18.jpg,AMNE13.jpg,AMSA11.jpg,AMSA18.jpg,AMNE18.jpg,MN,1,num_8,32,num_2,1.25012917805,,,2017_Oct_12_1716,60.0031754984,MAFE4ImagesEEG,001,101922,
AFNE01.JPG,AFNE01.JPG,AFNE01.JPG,AFNE01.JPG,AFNE01.JPG,AFNE01.JPG,2,1,21,2,,,,,,,,,,,,,,,,,,,,,,,AMSA03.jpg,AMNE12.jpg,AMSA20.jpg,AMNE05.jpg,AMNE12.jpg,MN,1,num_6,32,num_4,0.966798907844,,,2017_Oct_12_1716,60.0031754984,MAFE4ImagesEEG,001,101922,
AFNE01.JPG,AFNE01.JPG,AFNE01.JPG,AFNE01.JPG,AFNE01.JPG,AFNE01.JPG,2,2,22,6,,,,,,,,,,,,,,,,,,,,,,,AMSA10.jpg,AMNE20.jpg,AMNE07.jpg,AMSA07.jpg,AMSA07.jpg,MS,2,num_4,32,num_8,0.96680628485,,,2017_Oct_12_1716,60.0031754984,MAFE4ImagesEEG,001,101922,
AFNE01.JPG,AFNE01.JPG,AFNE01.JPG,AFNE01.JPG,AFNE01.JPG,AFNE01.JPG,2,3,23,5,,,,,,,,,,,,,,,,,,,,,,,AMSA02.jpg,AMNE12.jpg,AMSA08.jpg,AMNE15.jpg,AMNE12.jpg,MN,1,num_6,32,num_4,1.68344875169,,,2017_Oct_12_1716,60.0031754984,MAFE4ImagesEEG,001,101922,
AFNE01.JPG,AFNE01.JPG,AFNE01.JPG,AFNE01.JPG,AFNE01.JPG,AFNE01.JPG,2,4,24,7,,,,,,,,,,,,,,,,,,,,,,,AMSA20.jpg,AMSA18.jpg,AMNE16.jpg,AMNE01.jpg,AMSA20.jpg,MS,2,num_8,32,num_6,0.76676612813,,,2017_Oct_12_1716,60.0031754984,MAFE4ImagesEEG,001,101922,
AFNE01.JPG,AFNE01.JPG,AFNE01.JPG,AFNE01.JPG,AFNE01.JPG,AFNE01.JPG,2,5,25,8,,,,,,,,,,,,,,,,,,,,,,,AMNE05.jpg,AMNE02.jpg,AMSA05.jpg,AMSA12.jpg,AMSA12.jpg,MS,2,num_4,32,num_2,2.01668425917,,,2017_Oct_12_1716,60.0031754984,MAFE4ImagesEEG,001,101922,
AFNE01.JPG,AFNE01.JPG,AFNE01.JPG,AFNE01.JPG,AFNE01.JPG,AFNE01.JPG,2,6,26,1,,,,,,,,,,,,,,,,,,,,,,,AMNE04.jpg,AMNE12.jpg,AMSA03.jpg,AMSA02.jpg,AMNE12.jpg,MN,1,num_6,32,num_8,0.983409717563,,,2017_Oct_12_1716,60.0031754984,MAFE4ImagesEEG,001,101922,
AFNE01.JPG,AFNE01.JPG,AFNE01.JPG,AFNE01.JPG,AFNE01.JPG,AFNE01.JPG,2,7,27,9,,,,,,,,,,,,,,,,,,,,,,,AMNE12.jpg,AMNE08.jpg,AMSA11.jpg,AMSA15.jpg,AMSA15.jpg,MS,2,num_4,16,num_4,1.51673766249,,,2017_Oct_12_1716,60.0031754984,MAFE4ImagesEEG,001,101922,
AFNE01.JPG,AFNE01.JPG,AFNE01.JPG,AFNE01.JPG,AFNE01.JPG,AFNE01.JPG,2,8,28,0,,,,,,,,,,,,,,,,,,,,,,,AMNE06.jpg,AMNE17.jpg,AMSA11.jpg,AMSA01.jpg,AMSA11.jpg,MS,2,num_2,32,num_6,0.833482317161,,,2017_Oct_12_1716,60.0031754984,MAFE4ImagesEEG,001,101922,
AFNE01.JPG,AFNE01.JPG,AFNE01.JPG,AFNE01.JPG,AFNE01.JPG,AFNE01.JPG,2,9,29,4,,,,,,,,,,,,,,,,,,,,,,,AMNE16.jpg,AMSA15.jpg,AMSA08.jpg,AMNE01.jpg,AMNE16.jpg,MN,1,num_8,16,num_8,0.966796662658,,,2017_Oct_12_1716,60.0031754984,MAFE4ImagesEEG,001,101922,
AFNE01.JPG,AFNE01.JPG,AFNE01.JPG,AFNE01.JPG,AFNE01.JPG,AFNE01.JPG,3,0,30,0,,,,,,,,,,,,,,,,,,,,,,,AMNE17.jpg,AMSA12.jpg,AMNE11.jpg,AMSA14.jpg,AMNE11.jpg,MN,1,num_2,32,num_8,0.91675735591,,,2017_Oct_12_1716,60.0031754984,MAFE4ImagesEEG,001,101922,
AFNE01.JPG,AFNE01.JPG,AFNE01.JPG,AFNE01.JPG,AFNE01.JPG,AFNE01.JPG,3,1,31,8,,,,,,,,,,,,,,,,,,,,,,,AMNE09.jpg,AMNE15.jpg,AMSA06.jpg,AMSA14.jpg,AMSA14.jpg,MS,2,num_4,32,num_2,1.00010456133,,,2017_Oct_12_1716,60.0031754984,MAFE4ImagesEEG,001,101922,
AFNE01.JPG,AFNE01.JPG,AFNE01.JPG,AFNE01.JPG,AFNE01.JPG,AFNE01.JPG,3,2,32,7,,,,,,,,,,,,,,,,,,,,,,,AMNE06.jpg,AMNE01.jpg,AMSA06.jpg,AMSA02.jpg,AMNE01.jpg,MN,1,num_6,16,num_6,0.700167650823,,,2017_Oct_12_1716,60.0031754984,MAFE4ImagesEEG,001,101922,
AFNE01.JPG,AFNE01.JPG,AFNE01.JPG,AFNE01.JPG,AFNE01.JPG,AFNE01.JPG,3,3,33,6,,,,,,,,,,,,,,,,,,,,,,,AMNE19.jpg,AMSA01.jpg,AMSA10.jpg,AMNE03.jpg,AMNE03.jpg,MN,1,num_4,32,num_8,1.7833846357,,,2017_Oct_12_1716,60.0031754984,MAFE4ImagesEEG,001,101922,
AFNE01.JPG,AFNE01.JPG,AFNE01.JPG,AFNE01.JPG,AFNE01.JPG,AFNE01.JPG,3,4,34,5,,,,,,,,,,,,,,,,,,,,,,,AMSA20.jpg,AMSA16.jpg,AMNE06.jpg,AMNE14.jpg,AMSA20.jpg,MS,2,num_8,32,num_2,0.733480681316,,,2017_Oct_12_1716,60.0031754984,MAFE4ImagesEEG,001,101922,
AFNE01.JPG,AFNE01.JPG,AFNE01.JPG,AFNE01.JPG,AFNE01.JPG,AFNE01.JPG,3,5,35,9,,,,,,,,,,,,,,,,,,,,,,,AMSA18.jpg,AMSA08.jpg,AMNE06.jpg,AMNE11.jpg,AMNE06.jpg,MN,1,num_2,32,num_6,1.15020291624,,,2017_Oct_12_1716,60.0031754984,MAFE4ImagesEEG,001,101922,
AFNE01.JPG,AFNE01.JPG,AFNE01.JPG,AFNE01.JPG,AFNE01.JPG,AFNE01.JPG,3,6,36,3,,,,,,,,,,,,,,,,,,,,,,,AMNE08.jpg,AMSA05.jpg,AMSA19.jpg,AMNE05.jpg,AMNE08.jpg,MN,1,num_8,32,num_4,1.03344677913,,,2017_Oct_12_1716,60.0031754984,MAFE4ImagesEEG,001,101922,
AFNE01.JPG,AFNE01.JPG,AFNE01.JPG,AFNE01.JPG,AFNE01.JPG,AFNE01.JPG,3,7,37,1,,,,,,,,,,,,,,,,,,,,,,,AMNE04.jpg,AMNE16.jpg,AMSA12.jpg,AMSA05.jpg,AMNE04.jpg,MN,1,num_8,16,num_8,0.883445929154,,,2017_Oct_12_1716,60.0031754984,MAFE4ImagesEEG,001,101922,
AFNE01.JPG,AFNE01.JPG,AFNE01.JPG,AFNE01.JPG,AFNE01.JPG,AFNE01.JPG,3,8,38,4,,,,,,,,,,,,,,,,,,,,,,,AMNE05.jpg,AMSA16.jpg,AMSA12.jpg,AMNE18.jpg,AMSA16.jpg,MS,2,num_6,32,num_2,0.483469856437,,,2017_Oct_12_1716,60.0031754984,MAFE4ImagesEEG,001,101922,
AFNE01.JPG,AFNE01.JPG,AFNE01.JPG,AFNE01.JPG,AFNE01.JPG,AFNE01.JPG,3,9,39,2,,,,,,,,,,,,,,,,,,,,,,,AMSA12.jpg,AMSA10.jpg,AMNE17.jpg,AMNE10.jpg,AMSA12.jpg,MS,2,num_8,32,num_4,0.316834141151,,,2017_Oct_12_1716,60.0031754984,MAFE4ImagesEEG,001,101922,
AFNE01.JPG,AFNE01.JPG,AFNE01.JPG,AFNE01.JPG,AFNE01.JPG,AFNE01.JPG,4,0,40,3,,,,,,,,,,,,,,,,,,,,,,,AMNE13.jpg,AMSA08.jpg,AMSA07.jpg,AMNE10.jpg,AMNE13.jpg,MN,1,num_8,16,num_8,0.90009137895,,,2017_Oct_12_1716,60.0031754984,MAFE4ImagesEEG,001,101922,
AFNE01.JPG,AFNE01.JPG,AFNE01.JPG,AFNE01.JPG,AFNE01.JPG,AFNE01.JPG,4,1,41,0,,,,,,,,,,,,,,,,,,,,,,,AMNE11.jpg,AMNE07.jpg,AMSA18.jpg,AMSA02.jpg,AMNE07.jpg,MN,1,num_6,16,num_6,0.633610228193,,,2017_Oct_12_1716,60.0031754984,MAFE4ImagesEEG,001,101922,
AFNE01.JPG,AFNE01.JPG,AFNE01.JPG,AFNE01.JPG,AFNE01.JPG,AFNE01.JPG,4,2,42,2,,,,,,,,,,,,,,,,,,,,,,,AMSA16.jpg,AMNE08.jpg,AMNE04.jpg,AMSA08.jpg,AMSA16.jpg,MS,2,num_8,16,num_8,0.633517213631,,,2017_Oct_12_1716,60.0031754984,MAFE4ImagesEEG,001,101922,
AFNE01.JPG,AFNE01.JPG,AFNE01.JPG,AFNE01.JPG,AFNE01.JPG,AFNE01.JPG,4,3,43,8,,,,,,,,,,,,,,,,,,,,,,,AMNE17.jpg,AMNE02.jpg,AMSA12.jpg,AMSA13.jpg,AMNE02.jpg,MN,1,num_6,16,num_6,0.683465430164,,,2017_Oct_12_1716,60.0031754984,MAFE4ImagesEEG,001,101922,
AFNE01.JPG,AFNE01.JPG,AFNE01.JPG,AFNE01.JPG,AFNE01.JPG,AFNE01.JPG,4,4,44,1,,,,,,,,,,,,,,,,,,,,,,,AMNE10.jpg,AMSA08.jpg,AMSA06.jpg,AMNE09.jpg,AMNE09.jpg,MN,1,num_4,32,num_2,0.683616819442,,,2017_Oct_12_1716,60.0031754984,MAFE4ImagesEEG,001,101922,
AFNE01.JPG,AFNE01.JPG,AFNE01.JPG,AFNE01.JPG,AFNE01.JPG,AFNE01.JPG,4,5,45,9,,,,,,,,,,,,,,,,,,,,,,,AMSA02.jpg,AMSA13.jpg,AMNE11.jpg,AMNE13.jpg,AMNE13.jpg,MN,1,num_4,32,num_6,0.933487801696,,,2017_Oct_12_1716,60.0031754984,MAFE4ImagesEEG,001,101922,
AFNE01.JPG,AFNE01.JPG,AFNE01.JPG,AFNE01.JPG,AFNE01.JPG,AFNE01.JPG,4,6,46,7,,,,,,,,,,,,,,,,,,,,,,,AMSA06.jpg,AMNE18.jpg,AMSA02.jpg,AMNE15.jpg,AMSA02.jpg,MS,2,num_2,16,num_2,0.733438985189,,,2017_Oct_12_1716,60.0031754984,MAFE4ImagesEEG,001,101922,
AFNE01.JPG,AFNE01.JPG,AFNE01.JPG,AFNE01.JPG,AFNE01.JPG,AFNE01.JPG,4,7,47,4,,,,,,,,,,,,,,,,,,,,,,,AMNE17.jpg,AMSA08.jpg,AMSA07.jpg,AMNE12.jpg,AMNE12.jpg,MN,1,num_4,16,num_4,1.0834318808,,,2017_Oct_12_1716,60.0031754984,MAFE4ImagesEEG,001,101922,
AFNE01.JPG,AFNE01.JPG,AFNE01.JPG,AFNE01.JPG,AFNE01.JPG,AFNE01.JPG,4,8,48,5,,,,,,,,,,,,,,,,,,,,,,,AMSA12.jpg,AMNE10.jpg,AMSA07.jpg,AMNE05.jpg,AMSA07.jpg,MS,2,num_2,32,num_8,1.58344679512,,,2017_Oct_12_1716,60.0031754984,MAFE4ImagesEEG,001,101922,
AFNE01.JPG,AFNE01.JPG,AFNE01.JPG,AFNE01.JPG,AFNE01.JPG,AFNE01.JPG,4,9,49,6,,,,,,,,,,,,,,,,,,,,,,,AMSA10.jpg,AMNE06.jpg,AMSA14.jpg,AMNE11.jpg,AMSA14.jpg,MS,2,num_2,16,num_2,0.366489201202,,,2017_Oct_12_1716,60.0031754984,MAFE4ImagesEEG,001,101922,
AFNE01.JPG,AFNE01.JPG,AFNE01.JPG,AFNE01.JPG,AFNE01.JPG,AFNE01.JPG,5,0,50,3,,,,,,,,,,,,,,,,,,,,,,,AMSA14.jpg,AMSA08.jpg,AMNE03.jpg,AMNE18.jpg,AMSA14.jpg,MS,2,num_8,16,num_8,0.600122073665,,,2017_Oct_12_1716,60.0031754984,MAFE4ImagesEEG,001,101922,
AFNE01.JPG,AFNE01.JPG,AFNE01.JPG,AFNE01.JPG,AFNE01.JPG,AFNE01.JPG,5,1,51,2,,,,,,,,,,,,,,,,,,,,,,,AMSA15.jpg,AMNE06.jpg,AMSA20.jpg,AMNE03.jpg,AMNE06.jpg,MN,1,num_6,32,num_8,1.33341832948,,,2017_Oct_12_1716,60.0031754984,MAFE4ImagesEEG,001,101922,
AFNE01.JPG,AFNE01.JPG,AFNE01.JPG,AFNE01.JPG,AFNE01.JPG,AFNE01.JPG,5,2,52,5,,,,,,,,,,,,,,,,,,,,,,,AMSA19.jpg,AMNE20.jpg,AMNE14.jpg,AMSA10.jpg,AMSA19.jpg,MS,2,num_8,16,num_8,1.7333918364,,,2017_Oct_12_1716,60.0031754984,MAFE4ImagesEEG,001,101922,
AFNE01.JPG,AFNE01.JPG,AFNE01.JPG,AFNE01.JPG,AFNE01.JPG,AFNE01.JPG,5,3,53,1,,,,,,,,,,,,,,,,,,,,,,,AMNE11.jpg,AMSA16.jpg,AMSA10.jpg,AMNE18.jpg,AMNE18.jpg,MN,1,num_4,32,num_2,0.60013041296,,,2017_Oct_12_1716,60.0031754984,MAFE4ImagesEEG,001,101922,
AFNE01.JPG,AFNE01.JPG,AFNE01.JPG,AFNE01.JPG,AFNE01.JPG,AFNE01.JPG,5,4,54,0,,,,,,,,,,,,,,,,,,,,,,,AMSA01.jpg,AMNE17.jpg,AMSA17.jpg,AMNE10.jpg,AMSA01.jpg,MS,2,num_8,32,num_4,0.700236610021,,,2017_Oct_12_1716,60.0031754984,MAFE4ImagesEEG,001,101922,
AFNE01.JPG,AFNE01.JPG,AFNE01.JPG,AFNE01.JPG,AFNE01.JPG,AFNE01.JPG,5,5,55,6,,,,,,,,,,,,,,,,,,,,,,,AMSA14.jpg,AMSA05.jpg,AMNE10.jpg,AMNE01.jpg,AMSA05.jpg,MS,2,num_6,16,num_6,0.500105042476,,,2017_Oct_12_1716,60.0031754984,MAFE4ImagesEEG,001,101922,
AFNE01.JPG,AFNE01.JPG,AFNE01.JPG,AFNE01.JPG,AFNE01.JPG,AFNE01.JPG,5,6,56,8,,,,,,,,,,,,,,,,,,,,,,,AMNE05.jpg,AMSA13.jpg,AMSA18.jpg,AMNE10.jpg,AMNE05.jpg,MN,1,num_8,32,num_2,1.74994362995,,,2017_Oct_12_1716,60.0031754984,MAFE4ImagesEEG,001,101922,
AFNE01.JPG,AFNE01.JPG,AFNE01.JPG,AFNE01.JPG,AFNE01.JPG,AFNE01.JPG,5,7,57,7,,,,,,,,,,,,,,,,,,,,,,,AMNE13.jpg,AMSA05.jpg,AMSA04.jpg,AMNE04.jpg,AMNE04.jpg,MN,1,num_4,32,num_8,0.583487208467,,,2017_Oct_12_1716,60.0031754984,MAFE4ImagesEEG,001,101922,
AFNE01.JPG,AFNE01.JPG,AFNE01.JPG,AFNE01.JPG,AFNE01.JPG,AFNE01.JPG,5,8,58,9,,,,,,,,,,,,,,,,,,,,,,,AMNE18.jpg,AMNE07.jpg,AMSA03.jpg,AMSA08.jpg,AMNE07.jpg,MN,1,num_6,32,num_8,0.766641039518,,,2017_Oct_12_1716,60.0031754984,MAFE4ImagesEEG,001,101922,
AFNE01.JPG,AFNE01.JPG,AFNE01.JPG,AFNE01.JPG,AFNE01.JPG,AFNE01.JPG,5,9,59,4,,,,,,,,,,,,,,,,,,,,,,,AMNE20.jpg,AMSA19.jpg,AMNE19.jpg,AMSA20.jpg,AMSA19.jpg,MS,2,num_6,32,num_4,0.66674364428,,,2017_Oct_12_1716,60.0031754984,MAFE4ImagesEEG,001,101922,
,,,,,,,,,,,,,,,,,,,,,,,,,,,,,,,,,,,,,,,,,,,space,4.31654579577,2017_Oct_12_1716,60.0031754984,MAFE4ImagesEEG,001,101922,
AFNE01.JPG,AFNE01.JPG,AFNE01.JPG,AFNE01.JPG,AFNE01.JPG,AFNE01.JPG,,,,,0,0,0,8,,,,,,,,,,,,,,,,,,,AFNE02.jpg,AFSA09.jpg,AFNE16.jpg,AFSA03.jpg,AFSA09.jpg,FS,4,num_6,32,num_4,0.500130701577,,,2017_Oct_12_1716,60.0031754984,MAFE4ImagesEEG,001,101922,
AFNE01.JPG,AFNE01.JPG,AFNE01.JPG,AFNE01.JPG,AFNE01.JPG,AFNE01.JPG,,,,,0,1,1,1,,,,,,,,,,,,,,,,,,,AFNE19.jpg,AFSA03.jpg,AFNE15.jpg,AFSA02.jpg,AFSA02.jpg,FS,4,num_4,32,num_6,0.683489806484,,,2017_Oct_12_1716,60.0031754984,MAFE4ImagesEEG,001,101922,
AFNE01.JPG,AFNE01.JPG,AFNE01.JPG,AFNE01.JPG,AFNE01.JPG,AFNE01.JPG,,,,,0,2,2,0,,,,,,,,,,,,,,,,,,,AFSA20.jpg,AFNE04.jpg,AFSA15.jpg,AFNE19.jpg,AFNE19.jpg,FN,3,num_4,32,num_8,1.11711247941,,,2017_Oct_12_1716,60.0031754984,MAFE4ImagesEEG,001,101922,
AFNE01.JPG,AFNE01.JPG,AFNE01.JPG,AFNE01.JPG,AFNE01.JPG,AFNE01.JPG,,,,,0,3,3,3,,,,,,,,,,,,,,,,,,,AFSA08.jpg,AFNE07.jpg,AFSA17.jpg,AFNE19.jpg,AFSA08.jpg,FS,4,num_8,32,num_2,0.966730590211,,,2017_Oct_12_1716,60.0031754984,MAFE4ImagesEEG,001,101922,
AFNE01.JPG,AFNE01.JPG,AFNE01.JPG,AFNE01.JPG,AFNE01.JPG,AFNE01.JPG,,,,,0,4,4,5,,,,,,,,,,,,,,,,,,,AFNE02.jpg,AFNE09.jpg,AFSA10.jpg,AFSA02.jpg,AFSA10.jpg,FS,4,num_2,32,num_4,1.18344730837,,,2017_Oct_12_1716,60.0031754984,MAFE4ImagesEEG,001,101922,
AFNE01.JPG,AFNE01.JPG,AFNE01.JPG,AFNE01.JPG,AFNE01.JPG,AFNE01.JPG,,,,,0,5,5,4,,,,,,,,,,,,,,,,,,,AFNE15.jpg,AFSA12.jpg,AFNE18.jpg,AFSA11.jpg,AFNE15.jpg,FN,3,num_8,16,num_8,1.05013617023,,,2017_Oct_12_1716,60.0031754984,MAFE4ImagesEEG,001,101922,
AFNE01.JPG,AFNE01.JPG,AFNE01.JPG,AFNE01.JPG,AFNE01.JPG,AFNE01.JPG,,,,,0,6,6,7,,,,,,,,,,,,,,,,,,,AFSA17.jpg,AFSA13.jpg,AFNE13.jpg,AFNE01.jpg,AFSA13.jpg,FS,4,num_6,16,num_6,0.666760322871,,,2017_Oct_12_1716,60.0031754984,MAFE4ImagesEEG,001,101922,
AFNE01.JPG,AFNE01.JPG,AFNE01.JPG,AFNE01.JPG,AFNE01.JPG,AFNE01.JPG,,,,,0,7,7,9,,,,,,,,,,,,,,,,,,,AFSA17.jpg,AFNE17.jpg,AFSA12.jpg,AFNE15.jpg,AFNE17.jpg,FN,3,num_6,32,num_8,1.16677427501,,,2017_Oct_12_1716,60.0031754984,MAFE4ImagesEEG,001,101922,
AFNE01.JPG,AFNE01.JPG,AFNE01.JPG,AFNE01.JPG,AFNE01.JPG,AFNE01.JPG,,,,,0,8,8,6,,,,,,,,,,,,,,,,,,,AFNE03.jpg,AFSA04.jpg,AFSA12.jpg,AFNE18.jpg,AFNE03.jpg,FN,3,num_8,32,num_6,1.25013815879,,,2017_Oct_12_1716,60.0031754984,MAFE4ImagesEEG,001,101922,
AFNE01.JPG,AFNE01.JPG,AFNE01.JPG,AFNE01.JPG,AFNE01.JPG,AFNE01.JPG,,,,,0,9,9,2,,,,,,,,,,,,,,,,,,,AFNE08.jpg,AFSA01.jpg,AFSA06.jpg,AFNE14.jpg,AFSA01.jpg,FS,4,num_6,16,num_6,0.966776135261,,,2017_Oct_12_1716,60.0031754984,MAFE4ImagesEEG,001,101922,
AFNE01.JPG,AFNE01.JPG,AFNE01.JPG,AFNE01.JPG,AFNE01.JPG,AFNE01.JPG,,,,,1,0,10,5,,,,,,,,,,,,,,,,,,,AFSA16.jpg,AFSA12.jpg,AFNE20.jpg,AFNE19.jpg,AFSA12.jpg,FS,4,num_6,32,num_2,0.850166576332,,,2017_Oct_12_1716,60.0031754984,MAFE4ImagesEEG,001,101922,
AFNE01.JPG,AFNE01.JPG,AFNE01.JPG,AFNE01.JPG,AFNE01.JPG,AFNE01.JPG,,,,,1,1,11,0,,,,,,,,,,,,,,,,,,,AFSA17.jpg,AFNE09.jpg,AFSA19.jpg,AFNE02.jpg,AFSA19.jpg,FS,4,num_2,32,num_8,0.633673734847,,,2017_Oct_12_1716,60.0031754984,MAFE4ImagesEEG,001,101922,
AFNE01.JPG,AFNE01.JPG,AFNE01.JPG,AFNE01.JPG,AFNE01.JPG,AFNE01.JPG,,,,,1,2,12,2,,,,,,,,,,,,,,,,,,,AFSA15.jpg,AFNE09.jpg,AFSA16.jpg,AFNE14.jpg,AFSA15.jpg,FS,4,num_8,32,num_4,0.666797528625,,,2017_Oct_12_1716,60.0031754984,MAFE4ImagesEEG,001,101922,
AFNE01.JPG,AFNE01.JPG,AFNE01.JPG,AFNE01.JPG,AFNE01.JPG,AFNE01.JPG,,,,,1,3,13,9,,,,,,,,,,,,,,,,,,,AFSA05.jpg,AFNE13.jpg,AFNE16.jpg,AFSA13.jpg,AFNE16.jpg,FN,3,num_2,32,num_6,0.633397898404,,,2017_Oct_12_1716,60.0031754984,MAFE4ImagesEEG,001,101922,
AFNE01.JPG,AFNE01.JPG,AFNE01.JPG,AFNE01.JPG,AFNE01.JPG,AFNE01.JPG,,,,,1,4,14,7,,,,,,,,,,,,,,,,,,,AFSA13.jpg,AFSA19.jpg,AFNE04.jpg,AFNE02.jpg,AFSA13.jpg,FS,4,num_8,32,num_4,0.867055467796,,,2017_Oct_12_1716,60.0031754984,MAFE4ImagesEEG,001,101922,
AFNE01.JPG,AFNE01.JPG,AFNE01.JPG,AFNE01.JPG,AFNE01.JPG,AFNE01.JPG,,,,,1,5,15,8,,,,,,,,,,,,,,,,,,,AFSA07.jpg,AFNE05.jpg,AFNE17.jpg,AFSA10.jpg,AFSA07.jpg,FS,4,num_8,32,num_2,0.600173712824,,,2017_Oct_12_1716,60.0031754984,MAFE4ImagesEEG,001,101922,
AFNE01.JPG,AFNE01.JPG,AFNE01.JPG,AFNE01.JPG,AFNE01.JPG,AFNE01.JPG,,,,,1,6,16,6,,,,,,,,,,,,,,,,,,,AFSA07.jpg,AFNE04.jpg,AFNE03.jpg,AFSA03.jpg,AFNE04.jpg,FN,3,num_6,32,num_8,2.41667252022,,,2017_Oct_12_1716,60.0031754984,MAFE4ImagesEEG,001,101922,
AFNE01.JPG,AFNE01.JPG,AFNE01.JPG,AFNE01.JPG,AFNE01.JPG,AFNE01.JPG,,,,,1,7,17,3,,,,,,,,,,,,,,,,,,,AFNE20.jpg,AFSA15.jpg,AFNE16.jpg,AFSA10.jpg,AFNE20.jpg,FN,3,num_8,32,num_6,0.833482317044,,,2017_Oct_12_1716,60.0031754984,MAFE4ImagesEEG,001,101922,
AFNE01.JPG,AFNE01.JPG,AFNE01.JPG,AFNE01.JPG,AFNE01.JPG,AFNE01.JPG,,,,,1,8,18,1,,,,,,,,,,,,,,,,,,,AFSA20.jpg,AFNE16.jpg,AFNE10.jpg,AFSA16.jpg,AFSA20.jpg,FS,4,num_8,32,num_6,1.01665924152,,,2017_Oct_12_1716,60.0031754984,MAFE4ImagesEEG,001,101922,
AFNE01.JPG,AFNE01.JPG,AFNE01.JPG,AFNE01.JPG,AFNE01.JPG,AFNE01.JPG,,,,,1,9,19,4,,,,,,,,,,,,,,,,,,,AFNE07.jpg,AFNE10.jpg,AFSA20.jpg,AFSA12.jpg,AFNE10.jpg,FN,3,num_6,16,num_6,0.883494360955,,,2017_Oct_12_1716,60.0031754984,MAFE4ImagesEEG,001,101922,
AFNE01.JPG,AFNE01.JPG,AFNE01.JPG,AFNE01.JPG,AFNE01.JPG,AFNE01.JPG,,,,,2,0,20,8,,,,,,,,,,,,,,,,,,,AFNE17.jpg,AFSA15.jpg,AFSA02.jpg,AFNE16.jpg,AFSA15.jpg,FS,4,num_6,16,num_6,1.05010826583,,,2017_Oct_12_1716,60.0031754984,MAFE4ImagesEEG,001,101922,
AFNE01.JPG,AFNE01.JPG,AFNE01.JPG,AFNE01.JPG,AFNE01.JPG,AFNE01.JPG,,,,,2,1,21,9,,,,,,,,,,,,,,,,,,,AFNE04.jpg,AFSA12.jpg,AFSA02.jpg,AFNE05.jpg,AFNE04.jpg,FN,3,num_8,16,num_8,0.733472983586,,,2017_Oct_12_1716,60.0031754984,MAFE4ImagesEEG,001,101922,
AFNE01.JPG,AFNE01.JPG,AFNE01.JPG,AFNE01.JPG,AFNE01.JPG,AFNE01.JPG,,,,,2,2,22,5,,,,,,,,,,,,,,,,,,,AFSA14.jpg,AFNE15.jpg,AFSA02.jpg,AFNE05.jpg,AFNE15.jpg,FN,3,num_6,16,num_6,1.2000969277,,,2017_Oct_12_1716,60.0031754984,MAFE4ImagesEEG,001,101922,
AFNE01.JPG,AFNE01.JPG,AFNE01.JPG,AFNE01.JPG,AFNE01.JPG,AFNE01.JPG,,,,,2,3,23,7,,,,,,,,,,,,,,,,,,,AFSA05.jpg,AFNE20.jpg,AFSA14.jpg,AFNE19.jpg,AFSA14.jpg,FS,4,num_2,16,num_2,0.51679379202,,,2017_Oct_12_1716,60.0031754984,MAFE4ImagesEEG,001,101922,
AFNE01.JPG,AFNE01.JPG,AFNE01.JPG,AFNE01.JPG,AFNE01.JPG,AFNE01.JPG,,,,,2,4,24,3,,,,,,,,,,,,,,,,,,,AFNE17.jpg,AFNE07.jpg,AFSA15.jpg,AFSA14.jpg,AFSA14.jpg,FS,4,num_4,32,num_2,0.86678091425,,,2017_Oct_12_1716,60.0031754984,MAFE4ImagesEEG,001,101922,
AFNE01.JPG,AFNE01.JPG,AFNE01.JPG,AFNE01.JPG,AFNE01.JPG,AFNE01.JPG,,,,,2,5,25,4,,,,,,,,,,,,,,,,,,,AFSA06.jpg,AFSA18.jpg,AFNE17.jpg,AFNE10.jpg,AFNE10.jpg,FN,3,num_4,32,num_8,0.7167717251,,,2017_Oct_12_1716,60.0031754984,MAFE4ImagesEEG,001,101922,
AFNE01.JPG,AFNE01.JPG,AFNE01.JPG,AFNE01.JPG,AFNE01.JPG,AFNE01.JPG,,,,,2,6,26,0,,,,,,,,,,,,,,,,,,,AFSA09.jpg,AFNE19.jpg,AFNE15.jpg,AFSA12.jpg,AFNE15.jpg,FN,3,num_2,16,num_2,0.800159022911,,,2017_Oct_12_1716,60.0031754984,MAFE4ImagesEEG,001,101922,
AFNE01.JPG,AFNE01.JPG,AFNE01.JPG,AFNE01.JPG,AFNE01.JPG,AFNE01.JPG,,,,,2,7,27,2,,,,,,,,,,,,,,,,,,,AFSA14.jpg,AFNE13.jpg,AFSA06.jpg,AFNE05.jpg,AFSA14.jpg,FS,4,num_8,32,num_4,0.683498145663,,,2017_Oct_12_1716,60.0031754984,MAFE4ImagesEEG,001,101922,
AFNE01.JPG,AFNE01.JPG,AFNE01.JPG,AFNE01.JPG,AFNE01.JPG,AFNE01.JPG,,,,,2,8,28,6,,,,,,,,,,,,,,,,,,,AFNE15.jpg,AFSA10.jpg,AFSA13.jpg,AFNE01.jpg,AFSA13.jpg,FS,4,num_2,16,num_2,1.1001164607,,,2017_Oct_12_1716,60.0031754984,MAFE4ImagesEEG,001,101922,
AFNE01.JPG,AFNE01.JPG,AFNE01.JPG,AFNE01.JPG,AFNE01.JPG,AFNE01.JPG,,,,,2,9,29,1,,,,,,,,,,,,,,,,,,,AFNE06.jpg,AFSA05.jpg,AFNE14.jpg,AFSA16.jpg,AFNE14.jpg,FN,3,num_2,32,num_8,2.54999167682,,,2017_Oct_12_1716,60.0031754984,MAFE4ImagesEEG,001,101922,
AFNE01.JPG,AFNE01.JPG,AFNE01.JPG,AFNE01.JPG,AFNE01.JPG,AFNE01.JPG,,,,,3,0,30,2,,,,,,,,,,,,,,,,,,,AFNE05.jpg,AFNE09.jpg,AFSA04.jpg,AFSA07.jpg,AFNE05.jpg,FN,3,num_8,16,num_8,0.900156168384,,,2017_Oct_12_1716,60.0031754984,MAFE4ImagesEEG,001,101922,
AFNE01.JPG,AFNE01.JPG,AFNE01.JPG,AFNE01.JPG,AFNE01.JPG,AFNE01.JPG,,,,,3,1,31,0,,,,,,,,,,,,,,,,,,,AFSA19.jpg,AFNE20.jpg,AFNE02.jpg,AFSA01.jpg,AFNE20.jpg,FN,3,num_6,16,num_6,1.1667159003,,,2017_Oct_12_1716,60.0031754984,MAFE4ImagesEEG,001,101922,
AFNE01.JPG,AFNE01.JPG,AFNE01.JPG,AFNE01.JPG,AFNE01.JPG,AFNE01.JPG,,,,,3,2,32,7,,,,,,,,,,,,,,,,,,,AFSA12.jpg,AFNE08.jpg,AFSA20.jpg,AFNE13.jpg,AFSA12.jpg,FS,4,num_8,32,num_2,0.966764588607,,,2017_Oct_12_1716,60.0031754984,MAFE4ImagesEEG,001,101922,
AFNE01.JPG,AFNE01.JPG,AFNE01.JPG,AFNE01.JPG,AFNE01.JPG,AFNE01.JPG,,,,,3,3,33,8,,,,,,,,,,,,,,,,,,,AFNE19.jpg,AFNE07.jpg,AFSA03.jpg,AFSA11.jpg,AFNE07.jpg,FN,3,num_6,16,num_6,0.633521704003,,,2017_Oct_12_1716,60.0031754984,MAFE4ImagesEEG,001,101922,
AFNE01.JPG,AFNE01.JPG,AFNE01.JPG,AFNE01.JPG,AFNE01.JPG,AFNE01.JPG,,,,,3,4,34,5,,,,,,,,,,,,,,,,,,,AFSA13.jpg,AFNE05.jpg,AFSA09.jpg,AFNE09.jpg,AFNE05.jpg,FN,3,num_6,32,num_8,1.40011591546,,,2017_Oct_12_1716,60.0031754984,MAFE4ImagesEEG,001,101922,
AFNE01.JPG,AFNE01.JPG,AFNE01.JPG,AFNE01.JPG,AFNE01.JPG,AFNE01.JPG,,,,,3,5,35,1,,,,,,,,,,,,,,,,,,,AFSA18.jpg,AFNE10.jpg,AFSA15.jpg,AFNE01.jpg,AFNE10.jpg,FN,3,num_6,16,num_6,0.933449954377,,,2017_Oct_12_1716,60.0031754984,MAFE4ImagesEEG,001,101922,
AFNE01.JPG,AFNE01.JPG,AFNE01.JPG,AFNE01.JPG,AFNE01.JPG,AFNE01.JPG,,,,,3,6,36,6,,,,,,,,,,,,,,,,,,,AFNE07.jpg,AFSA01.jpg,AFNE14.jpg,AFSA11.jpg,AFNE14.jpg,FN,3,num_2,32,num_8,1.0666613424,,,2017_Oct_12_1716,60.0031754984,MAFE4ImagesEEG,001,101922,
AFNE01.JPG,AFNE01.JPG,AFNE01.JPG,AFNE01.JPG,AFNE01.JPG,AFNE01.JPG,,,,,3,7,37,4,,,,,,,,,,,,,,,,,,,AFSA18.jpg,AFNE01.jpg,AFSA05.jpg,AFNE04.jpg,AFNE04.jpg,FN,3,num_4,16,num_4,0.450145600014,,,2017_Oct_12_1716,60.0031754984,MAFE4ImagesEEG,001,101922,
AFNE01.JPG,AFNE01.JPG,AFNE01.JPG,AFNE01.JPG,AFNE01.JPG,AFNE01.JPG,,,,,3,8,38,3,,,,,,,,,,,,,,,,,,,AFNE17.jpg,AFSA01.jpg,AFNE16.jpg,AFSA19.jpg,AFNE16.jpg,FN,3,num_2,32,num_6,0.633488026215,,,2017_Oct_12_1716,60.0031754984,MAFE4ImagesEEG,001,101922,
AFNE01.JPG,AFNE01.JPG,AFNE01.JPG,AFNE01.JPG,AFNE01.JPG,AFNE01.JPG,,,,,3,9,39,9,,,,,,,,,,,,,,,,,,,AFSA13.jpg,AFNE13.jpg,AFSA06.jpg,AFNE02.jpg,AFNE02.jpg,FN,3,num_4,32,num_2,0.683458053041,,,2017_Oct_12_1716,60.0031754984,MAFE4ImagesEEG,001,101922,
AFNE01.JPG,AFNE01.JPG,AFNE01.JPG,AFNE01.JPG,AFNE01.JPG,AFNE01.JPG,,,,,4,0,40,3,,,,,,,,,,,,,,,,,,,AFSA03.jpg,AFNE06.jpg,AFNE10.jpg,AFSA15.jpg,AFNE06.jpg,FN,3,num_6,32,num_8,0.633573984611,,,2017_Oct_12_1716,60.0031754984,MAFE4ImagesEEG,001,101922,
AFNE01.JPG,AFNE01.JPG,AFNE01.JPG,AFNE01.JPG,AFNE01.JPG,AFNE01.JPG,,,,,4,1,41,7,,,,,,,,,,,,,,,,,,,AFSA14.jpg,AFSA06.jpg,AFNE06.jpg,AFNE14.jpg,AFNE14.jpg,FN,3,num_4,32,num_2,1.00011225895,,,2017_Oct_12_1716,60.0031754984,MAFE4ImagesEEG,001,101922,
AFNE01.JPG,AFNE01.JPG,AFNE01.JPG,AFNE01.JPG,AFNE01.JPG,AFNE01.JPG,,,,,4,2,42,4,,,,,,,,,,,,,,,,,,,AFSA06.jpg,AFSA04.jpg,AFNE09.jpg,AFNE13.jpg,AFSA06.jpg,FS,4,num_8,32,num_4,0.550189894158,,,2017_Oct_12_1716,60.0031754984,MAFE4ImagesEEG,001,101922,
AFNE01.JPG,AFNE01.JPG,AFNE01.JPG,AFNE01.JPG,AFNE01.JPG,AFNE01.JPG,,,,,4,3,43,0,,,,,,,,,,,,,,,,,,,AFNE13.jpg,AFSA16.jpg,AFSA06.jpg,AFNE09.jpg,AFSA06.jpg,FS,4,num_2,32,num_8,0.566696142661,,,2017_Oct_12_1716,60.0031754984,MAFE4ImagesEEG,001,101922,
AFNE01.JPG,AFNE01.JPG,AFNE01.JPG,AFNE01.JPG,AFNE01.JPG,AFNE01.JPG,,,,,4,4,44,1,,,,,,,,,,,,,,,,,,,AFSA17.jpg,AFNE11.jpg,AFSA04.jpg,AFNE10.jpg,AFSA17.jpg,FS,4,num_8,32,num_2,0.516749529867,,,2017_Oct_12_1716,60.0031754984,MAFE4ImagesEEG,001,101922,
AFNE01.JPG,AFNE01.JPG,AFNE01.JPG,AFNE01.JPG,AFNE01.JPG,AFNE01.JPG,,,,,4,5,45,5,,,,,,,,,,,,,,,,,,,AFNE04.jpg,AFNE06.jpg,AFSA07.jpg,AFSA20.jpg,AFNE06.jpg,FN,3,num_6,16,num_6,0.56678562914,,,2017_Oct_12_1716,60.0031754984,MAFE4ImagesEEG,001,101922,
AFNE01.JPG,AFNE01.JPG,AFNE01.JPG,AFNE01.JPG,AFNE01.JPG,AFNE01.JPG,,,,,4,6,46,6,,,,,,,,,,,,,,,,,,,AFNE10.jpg,AFNE16.jpg,AFSA18.jpg,AFSA17.jpg,AFNE16.jpg,FN,3,num_6,32,num_4,0.4334780192,,,2017_Oct_12_1716,60.0031754984,MAFE4ImagesEEG,001,101922,
AFNE01.JPG,AFNE01.JPG,AFNE01.JPG,AFNE01.JPG,AFNE01.JPG,AFNE01.JPG,,,,,4,7,47,9,,,,,,,,,,,,,,,,,,,AFSA04.jpg,AFSA03.jpg,AFNE15.jpg,AFNE12.jpg,AFSA04.jpg,FS,4,num_8,32,num_4,0.833448318648,,,2017_Oct_12_1716,60.0031754984,MAFE4ImagesEEG,001,101922,
AFNE01.JPG,AFNE01.JPG,AFNE01.JPG,AFNE01.JPG,AFNE01.JPG,AFNE01.JPG,,,,,4,8,48,8,,,,,,,,,,,,,,,,,,,AFNE03.jpg,AFSA09.jpg,AFSA08.jpg,AFNE06.jpg,AFNE06.jpg,FN,3,num_4,32,num_8,0.433467755443,,,2017_Oct_12_1716,60.0031754984,MAFE4ImagesEEG,001,101922,
AFNE01.JPG,AFNE01.JPG,AFNE01.JPG,AFNE01.JPG,AFNE01.JPG,AFNE01.JPG,,,,,4,9,49,2,,,,,,,,,,,,,,,,,,,AFSA10.jpg,AFNE03.jpg,AFNE13.jpg,AFSA11.jpg,AFSA10.jpg,FS,4,num_8,32,num_6,0.300165918889,,,2017_Oct_12_1716,60.0031754984,MAFE4ImagesEEG,001,101922,
AFNE01.JPG,AFNE01.JPG,AFNE01.JPG,AFNE01.JPG,AFNE01.JPG,AFNE01.JPG,,,,,5,0,50,3,,,,,,,,,,,,,,,,,,,AFNE12.jpg,AFSA20.jpg,AFSA04.jpg,AFNE04.jpg,AFSA04.jpg,FS,4,num_2,32,num_8,0.400015203049,,,2017_Oct_12_1716,60.0031754984,MAFE4ImagesEEG,001,101922,
AFNE01.JPG,AFNE01.JPG,AFNE01.JPG,AFNE01.JPG,AFNE01.JPG,AFNE01.JPG,,,,,5,1,51,9,,,,,,,,,,,,,,,,,,,AFSA05.jpg,AFSA14.jpg,AFNE04.jpg,AFNE09.jpg,AFNE04.jpg,FN,3,num_2,16,num_2,0.450133411796,,,2017_Oct_12_1716,60.0031754984,MAFE4ImagesEEG,001,101922,
AFNE01.JPG,AFNE01.JPG,AFNE01.JPG,AFNE01.JPG,AFNE01.JPG,AFNE01.JPG,,,,,5,2,52,7,,,,,,,,,,,,,,,,,,,AFSA13.jpg,AFNE15.jpg,AFNE09.jpg,AFSA02.jpg,AFSA02.jpg,FS,4,num_4,16,num_4,0.80010289338,,,2017_Oct_12_1716,60.0031754984,MAFE4ImagesEEG,001,101922,
AFNE01.JPG,AFNE01.JPG,AFNE01.JPG,AFNE01.JPG,AFNE01.JPG,AFNE01.JPG,,,,,5,3,53,0,,,,,,,,,,,,,,,,,,,AFNE15.jpg,AFSA02.jpg,AFSA15.jpg,AFNE10.jpg,AFNE10.jpg,FN,3,num_4,32,num_6,0.41683834279,,,2017_Oct_12_1716,60.0031754984,MAFE4ImagesEEG,001,101922,
AFNE01.JPG,AFNE01.JPG,AFNE01.JPG,AFNE01.JPG,AFNE01.JPG,AFNE01.JPG,,,,,5,4,54,4,,,,,,,,,,,,,,,,,,,AFNE19.jpg,AFNE09.jpg,AFSA14.jpg,AFSA12.jpg,AFNE09.jpg,FN,3,num_6,32,num_8,0.383497407893,,,2017_Oct_12_1716,60.0031754984,MAFE4ImagesEEG,001,101922,
AFNE01.JPG,AFNE01.JPG,AFNE01.JPG,AFNE01.JPG,AFNE01.JPG,AFNE01.JPG,,,,,5,5,55,8,,,,,,,,,,,,,,,,,,,AFSA02.jpg,AFSA11.jpg,AFNE16.jpg,AFNE15.jpg,AFSA11.jpg,FS,4,num_6,16,num_6,0.749994627549,,,2017_Oct_12_1716,60.0031754984,MAFE4ImagesEEG,001,101922,
AFNE01.JPG,AFNE01.JPG,AFNE01.JPG,AFNE01.JPG,AFNE01.JPG,AFNE01.JPG,,,,,5,6,56,5,,,,,,,,,,,,,,,,,,,AFSA18.jpg,AFSA09.jpg,AFNE19.jpg,AFNE17.jpg,AFNE17.jpg,FN,3,num_4,32,num_8,0.550193422358,,,2017_Oct_12_1716,60.0031754984,MAFE4ImagesEEG,001,101922,
AFNE01.JPG,AFNE01.JPG,AFNE01.JPG,AFNE01.JPG,AFNE01.JPG,AFNE01.JPG,,,,,5,7,57,6,,,,,,,,,,,,,,,,,,,AFNE02.jpg,AFNE19.jpg,AFSA07.jpg,AFSA15.jpg,AFSA07.jpg,FS,4,num_2,16,num_2,0.600166335818,,,2017_Oct_12_1716,60.0031754984,MAFE4ImagesEEG,001,101922,
AFNE01.JPG,AFNE01.JPG,AFNE01.JPG,AFNE01.JPG,AFNE01.JPG,AFNE01.JPG,,,,,5,8,58,1,,,,,,,,,,,,,,,,,,,AFNE10.jpg,AFSA14.jpg,AFSA16.jpg,AFNE09.jpg,AFSA16.jpg,FS,4,num_2,32,num_4,0.783437557868,,,2017_Oct_12_1716,60.0031754984,MAFE4ImagesEEG,001,101922,
AFNE01.JPG,AFNE01.JPG,AFNE01.JPG,AFNE01.JPG,AFNE01.JPG,AFNE01.JPG,,,,,5,9,59,2,,,,,,,,,,,,,,,,,,,AFSA09.jpg,AFNE13.jpg,AFNE10.jpg,AFSA15.jpg,AFNE10.jpg,FN,3,num_2,32,num_8,0.583354422008,,,2017_Oct_12_1716,60.0031754984,MAFE4ImagesEEG,001,101922,
,,,,,,,,,,,,,,,,,,,,,,,,,,,,,,,,,,,,,,,,,,,space,2.08338569419,2017_Oct_12_1716,60.0031754984,MAFE4ImagesEEG,001,101922,
AFNE01.JPG,AFNE01.JPG,AFNE01.JPG,AFNE01.JPG,AFNE01.JPG,AFNE01.JPG,,,,,,,,,0,0,0,7,,,,,,,,,,,,,,,AMNE17.jpg,AMSA18.jpg,AMNE04.jpg,AMSA04.jpg,AMNE17.jpg,MN,1,num_8,32,num_6,1.20008473948,,,2017_Oct_12_1716,60.0031754984,MAFE4ImagesEEG,001,101922,
AFNE01.JPG,AFNE01.JPG,AFNE01.JPG,AFNE01.JPG,AFNE01.JPG,AFNE01.JPG,,,,,,,,,0,1,1,8,,,,,,,,,,,,,,,AMNE12.jpg,AMSA20.jpg,AMSA02.jpg,AMNE20.jpg,AMSA02.jpg,MS,2,num_2,16,num_2,1.30009728041,,,2017_Oct_12_1716,60.0031754984,MAFE4ImagesEEG,001,101922,
AFNE01.JPG,AFNE01.JPG,AFNE01.JPG,AFNE01.JPG,AFNE01.JPG,AFNE01.JPG,,,,,,,,,0,2,2,6,,,,,,,,,,,,,,,AMNE17.jpg,AMSA07.jpg,AMNE07.jpg,AMSA14.jpg,AMSA07.jpg,MS,2,num_6,32,num_8,0.850104994373,,,2017_Oct_12_1716,60.0031754984,MAFE4ImagesEEG,001,101922,
AFNE01.JPG,AFNE01.JPG,AFNE01.JPG,AFNE01.JPG,AFNE01.JPG,AFNE01.JPG,,,,,,,,,0,3,3,3,,,,,,,,,,,,,,,AMSA14.jpg,AMNE16.jpg,AMNE20.jpg,AMSA20.jpg,AMSA20.jpg,MS,2,num_4,32,num_6,0.583516716491,,,2017_Oct_12_1716,60.0031754984,MAFE4ImagesEEG,001,101922,
AFNE01.JPG,AFNE01.JPG,AFNE01.JPG,AFNE01.JPG,AFNE01.JPG,AFNE01.JPG,,,,,,,,,0,4,4,9,,,,,,,,,,,,,,,AMSA02.jpg,AMNE10.jpg,AMSA16.jpg,AMNE18.jpg,AMSA16.jpg,MS,2,num_2,16,num_2,0.466809973354,,,2017_Oct_12_1716,60.0031754984,MAFE4ImagesEEG,001,101922,
AFNE01.JPG,AFNE01.JPG,AFNE01.JPG,AFNE01.JPG,AFNE01.JPG,AFNE01.JPG,,,,,,,,,0,5,5,4,,,,,,,,,,,,,,,AMNE14.jpg,AMNE15.jpg,AMSA04.jpg,AMSA07.jpg,AMNE14.jpg,MN,1,num_8,16,num_8,1.10014244076,,,2017_Oct_12_1716,60.0031754984,MAFE4ImagesEEG,001,101922,
AFNE01.JPG,AFNE01.JPG,AFNE01.JPG,AFNE01.JPG,AFNE01.JPG,AFNE01.JPG,,,,,,,,,0,6,6,5,,,,,,,,,,,,,,,AMSA04.jpg,AMNE17.jpg,AMSA11.jpg,AMNE13.jpg,AMNE17.jpg,MN,1,num_6,16,num_6,0.683507767855,,,2017_Oct_12_1716,60.0031754984,MAFE4ImagesEEG,001,101922,
AFNE01.JPG,AFNE01.JPG,AFNE01.JPG,AFNE01.JPG,AFNE01.JPG,AFNE01.JPG,,,,,,,,,0,7,7,2,,,,,,,,,,,,,,,AMSA16.jpg,AMNE13.jpg,AMNE06.jpg,AMSA04.jpg,AMNE13.jpg,MN,1,num_6,32,num_4,2.86659905466,,,2017_Oct_12_1716,60.0031754984,MAFE4ImagesEEG,001,101922,
AFNE01.JPG,AFNE01.JPG,AFNE01.JPG,AFNE01.JPG,AFNE01.JPG,AFNE01.JPG,,,,,,,,,0,8,8,1,,,,,,,,,,,,,,,AMNE20.jpg,AMNE11.jpg,AMSA09.jpg,AMSA07.jpg,AMNE20.jpg,MN,1,num_8,32,num_6,0.583464435884,,,2017_Oct_12_1716,60.0031754984,MAFE4ImagesEEG,001,101922,
AFNE01.JPG,AFNE01.JPG,AFNE01.JPG,AFNE01.JPG,AFNE01.JPG,AFNE01.JPG,,,,,,,,,0,9,9,0,,,,,,,,,,,,,,,AMSA02.jpg,AMNE18.jpg,AMNE07.jpg,AMSA04.jpg,AMNE18.jpg,MN,1,num_6,16,num_6,0.633347862866,,,2017_Oct_12_1716,60.0031754984,MAFE4ImagesEEG,001,101922,
AFNE01.JPG,AFNE01.JPG,AFNE01.JPG,AFNE01.JPG,AFNE01.JPG,AFNE01.JPG,,,,,,,,,1,0,10,6,,,,,,,,,,,,,,,AMSA03.jpg,AMSA17.jpg,AMNE20.jpg,AMNE13.jpg,AMSA03.jpg,MS,2,num_8,16,num_8,1.26711332938,,,2017_Oct_12_1716,60.0031754984,MAFE4ImagesEEG,001,101922,
AFNE01.JPG,AFNE01.JPG,AFNE01.JPG,AFNE01.JPG,AFNE01.JPG,AFNE01.JPG,,,,,,,,,1,1,11,0,,,,,,,,,,,,,,,AMNE03.jpg,AMSA16.jpg,AMNE08.jpg,AMSA01.jpg,AMNE03.jpg,MN,1,num_8,32,num_2,0.883441759623,,,2017_Oct_12_1716,60.0031754984,MAFE4ImagesEEG,001,101922,
AFNE01.JPG,AFNE01.JPG,AFNE01.JPG,AFNE01.JPG,AFNE01.JPG,AFNE01.JPG,,,,,,,,,1,2,12,2,,,,,,,,,,,,,,,AMSA06.jpg,AMNE18.jpg,AMNE20.jpg,AMSA19.jpg,AMSA06.jpg,MS,2,num_8,32,num_6,0.666769944946,,,2017_Oct_12_1716,60.0031754984,MAFE4ImagesEEG,001,101922,
AFNE01.JPG,AFNE01.JPG,AFNE01.JPG,AFNE01.JPG,AFNE01.JPG,AFNE01.JPG,,,,,,,,,1,3,13,4,,,,,,,,,,,,,,,AMNE11.jpg,AMSA04.jpg,AMNE05.jpg,AMSA03.jpg,AMSA03.jpg,MS,2,num_4,32,num_6,0.883460683166,,,2017_Oct_12_1716,60.0031754984,MAFE4ImagesEEG,001,101922,
AFNE01.JPG,AFNE01.JPG,AFNE01.JPG,AFNE01.JPG,AFNE01.JPG,AFNE01.JPG,,,,,,,,,1,4,14,9,,,,,,,,,,,,,,,AMNE12.jpg,AMSA12.jpg,AMNE17.jpg,AMSA20.jpg,AMSA12.jpg,MS,2,num_6,32,num_8,1.13345386751,,,2017_Oct_12_1716,60.0031754984,MAFE4ImagesEEG,001,101922,
AFNE01.JPG,AFNE01.JPG,AFNE01.JPG,AFNE01.JPG,AFNE01.JPG,AFNE01.JPG,,,,,,,,,1,5,15,1,,,,,,,,,,,,,,,AMSA08.jpg,AMNE08.jpg,AMSA09.jpg,AMNE02.jpg,AMNE08.jpg,MN,1,num_6,32,num_2,1.13342435937,,,2017_Oct_12_1716,60.0031754984,MAFE4ImagesEEG,001,101922,
AFNE01.JPG,AFNE01.JPG,AFNE01.JPG,AFNE01.JPG,AFNE01.JPG,AFNE01.JPG,,,,,,,,,1,6,16,5,,,,,,,,,,,,,,,AMSA08.jpg,AMNE18.jpg,AMSA13.jpg,AMNE14.jpg,AMNE18.jpg,MN,1,num_6,32,num_8,0.566754838102,,,2017_Oct_12_1716,60.0031754984,MAFE4ImagesEEG,001,101922,
AFNE01.JPG,AFNE01.JPG,AFNE01.JPG,AFNE01.JPG,AFNE01.JPG,AFNE01.JPG,,,,,,,,,1,7,17,3,,,,,,,,,,,,,,,AMNE04.jpg,AMSA15.jpg,AMNE08.jpg,AMSA09.jpg,AMNE08.jpg,MN,1,num_2,32,num_4,0.700105106574,,,2017_Oct_12_1716,60.0031754984,MAFE4ImagesEEG,001,101922,
AFNE01.JPG,AFNE01.JPG,AFNE01.JPG,AFNE01.JPG,AFNE01.JPG,AFNE01.JPG,,,,,,,,,1,8,18,7,,,,,,,,,,,,,,,AMNE14.jpg,AMNE05.jpg,AMSA20.jpg,AMSA17.jpg,AMNE14.jpg,MN,1,num_8,16,num_8,0.616618379252,,,2017_Oct_12_1716,60.0031754984,MAFE4ImagesEEG,001,101922,
AFNE01.JPG,AFNE01.JPG,AFNE01.JPG,AFNE01.JPG,AFNE01.JPG,AFNE01.JPG,,,,,,,,,1,9,19,8,,,,,,,,,,,,,,,AMSA07.jpg,AMNE19.jpg,AMNE10.jpg,AMSA08.jpg,AMNE19.jpg,MN,1,num_6,32,num_2,0.516844148166,,,2017_Oct_12_1716,60.0031754984,MAFE4ImagesEEG,001,101922,
AFNE01.JPG,AFNE01.JPG,AFNE01.JPG,AFNE01.JPG,AFNE01.JPG,AFNE01.JPG,,,,,,,,,2,0,20,7,,,,,,,,,,,,,,,AMSA18.jpg,AMNE06.jpg,AMSA11.jpg,AMNE12.jpg,AMNE12.jpg,MN,1,num_4,32,num_8,0.550163593492,,,2017_Oct_12_1716,60.0031754984,MAFE4ImagesEEG,001,101922,
AFNE01.JPG,AFNE01.JPG,AFNE01.JPG,AFNE01.JPG,AFNE01.JPG,AFNE01.JPG,,,,,,,,,2,1,21,4,,,,,,,,,,,,,,,AMNE08.jpg,AMNE19.jpg,AMSA18.jpg,AMSA12.jpg,AMNE19.jpg,MN,1,num_6,16,num_6,0.316834141035,,,2017_Oct_12_1716,60.0031754984,MAFE4ImagesEEG,001,101922,
AFNE01.JPG,AFNE01.JPG,AFNE01.JPG,AFNE01.JPG,AFNE01.JPG,AFNE01.JPG,,,,,,,,,2,2,22,0,,,,,,,,,,,,,,,AMSA04.jpg,AMNE15.jpg,AMNE07.jpg,AMSA11.jpg,AMSA04.jpg,MS,2,num_8,16,num_8,0.350159038906,,,2017_Oct_12_1716,60.0031754984,MAFE4ImagesEEG,001,101922,
AFNE01.JPG,AFNE01.JPG,AFNE01.JPG,AFNE01.JPG,AFNE01.JPG,AFNE01.JPG,,,,,,,,,2,3,23,9,,,,,,,,,,,,,,,AMSA19.jpg,AMNE17.jpg,AMSA10.jpg,AMNE13.jpg,AMSA19.jpg,MS,2,num_8,32,num_4,0.633516892907,,,2017_Oct_12_1716,60.0031754984,MAFE4ImagesEEG,001,101922,
AFNE01.JPG,AFNE01.JPG,AFNE01.JPG,AFNE01.JPG,AFNE01.JPG,AFNE01.JPG,,,,,,,,,2,4,24,5,,,,,,,,,,,,,,,AMNE12.jpg,AMSA02.jpg,AMSA06.jpg,AMNE18.jpg,AMNE12.jpg,MN,1,num_8,32,num_2,0.600157996523,,,2017_Oct_12_1716,60.0031754984,MAFE4ImagesEEG,001,101922,
AFNE01.JPG,AFNE01.JPG,AFNE01.JPG,AFNE01.JPG,AFNE01.JPG,AFNE01.JPG,,,,,,,,,2,5,25,1,,,,,,,,,,,,,,,AMNE11.jpg,AMSA18.jpg,AMNE13.jpg,AMSA13.jpg,AMSA18.jpg,MS,2,num_6,32,num_8,0.766793070361,,,2017_Oct_12_1716,60.0031754984,MAFE4ImagesEEG,001,101922,
AFNE01.JPG,AFNE01.JPG,AFNE01.JPG,AFNE01.JPG,AFNE01.JPG,AFNE01.JPG,,,,,,,,,2,6,26,3,,,,,,,,,,,,,,,AMNE14.jpg,AMNE06.jpg,AMSA18.jpg,AMSA17.jpg,AMNE06.jpg,MN,1,num_6,32,num_2,0.500139040756,,,2017_Oct_12_1716,60.0031754984,MAFE4ImagesEEG,001,101922,
AFNE01.JPG,AFNE01.JPG,AFNE01.JPG,AFNE01.JPG,AFNE01.JPG,AFNE01.JPG,,,,,,,,,2,7,27,8,,,,,,,,,,,,,,,AMNE05.jpg,AMSA12.jpg,AMSA13.jpg,AMNE04.jpg,AMSA13.jpg,MS,2,num_2,32,num_6,0.683476014528,,,2017_Oct_12_1716,60.0031754984,MAFE4ImagesEEG,001,101922,
AFNE01.JPG,AFNE01.JPG,AFNE01.JPG,AFNE01.JPG,AFNE01.JPG,AFNE01.JPG,,,,,,,,,2,8,28,6,,,,,,,,,,,,,,,AMSA07.jpg,AMNE02.jpg,AMNE10.jpg,AMSA03.jpg,AMSA03.jpg,MS,2,num_4,16,num_4,1.05014899978,,,2017_Oct_12_1716,60.0031754984,MAFE4ImagesEEG,001,101922,
AFNE01.JPG,AFNE01.JPG,AFNE01.JPG,AFNE01.JPG,AFNE01.JPG,AFNE01.JPG,,,,,,,,,2,9,29,2,,,,,,,,,,,,,,,AMSA10.jpg,AMSA04.jpg,AMNE14.jpg,AMNE03.jpg,AMSA04.jpg,MS,2,num_6,16,num_6,0.783468990354,,,2017_Oct_12_1716,60.0031754984,MAFE4ImagesEEG,001,101922,
AFNE01.JPG,AFNE01.JPG,AFNE01.JPG,AFNE01.JPG,AFNE01.JPG,AFNE01.JPG,,,,,,,,,3,0,30,6,,,,,,,,,,,,,,,AMNE19.jpg,AMNE18.jpg,AMSA05.jpg,AMSA09.jpg,AMSA09.jpg,MS,2,num_4,32,num_8,0.683487240574,,,2017_Oct_12_1716,60.0031754984,MAFE4ImagesEEG,001,101922,
AFNE01.JPG,AFNE01.JPG,AFNE01.JPG,AFNE01.JPG,AFNE01.JPG,AFNE01.JPG,,,,,,,,,3,1,31,5,,,,,,,,,,,,,,,AMNE01.jpg,AMNE19.jpg,AMSA19.jpg,AMSA03.jpg,AMNE01.jpg,MN,1,num_8,32,num_6,0.683592122514,,,2017_Oct_12_1716,60.0031754984,MAFE4ImagesEEG,001,101922,
AFNE01.JPG,AFNE01.JPG,AFNE01.JPG,AFNE01.JPG,AFNE01.JPG,AFNE01.JPG,,,,,,,,,3,2,32,7,,,,,,,,,,,,,,,AMSA08.jpg,AMSA05.jpg,AMNE12.jpg,AMNE05.jpg,AMNE12.jpg,MN,1,num_2,32,num_4,0.833484882955,,,2017_Oct_12_1716,60.0031754984,MAFE4ImagesEEG,001,101922,
AFNE01.JPG,AFNE01.JPG,AFNE01.JPG,AFNE01.JPG,AFNE01.JPG,AFNE01.JPG,,,,,,,,,3,3,33,9,,,,,,,,,,,,,,,AMNE18.jpg,AMNE09.jpg,AMSA04.jpg,AMSA02.jpg,AMSA02.jpg,MS,2,num_4,16,num_4,1.40003925853,,,2017_Oct_12_1716,60.0031754984,MAFE4ImagesEEG,001,101922,
AFNE01.JPG,AFNE01.JPG,AFNE01.JPG,AFNE01.JPG,AFNE01.JPG,AFNE01.JPG,,,,,,,,,3,4,34,8,,,,,,,,,,,,,,,AMSA02.jpg,AMSA07.jpg,AMNE14.jpg,AMNE10.jpg,AMNE14.jpg,MN,1,num_2,16,num_2,0.900145583902,,,2017_Oct_12_1716,60.0031754984,MAFE4ImagesEEG,001,101922,
AFNE01.JPG,AFNE01.JPG,AFNE01.JPG,AFNE01.JPG,AFNE01.JPG,AFNE01.JPG,,,,,,,,,3,5,35,3,,,,,,,,,,,,,,,AMNE15.jpg,AMNE11.jpg,AMSA08.jpg,AMSA17.jpg,AMNE15.jpg,MN,1,num_8,16,num_8,1.03350066347,,,2017_Oct_12_1716,60.0031754984,MAFE4ImagesEEG,001,101922,
AFNE01.JPG,AFNE01.JPG,AFNE01.JPG,AFNE01.JPG,AFNE01.JPG,AFNE01.JPG,,,,,,,,,3,6,36,2,,,,,,,,,,,,,,,AMSA20.jpg,AMNE09.jpg,AMSA02.jpg,AMNE03.jpg,AMNE09.jpg,MN,1,num_6,16,num_6,1.23343593813,,,2017_Oct_12_1716,60.0031754984,MAFE4ImagesEEG,001,101922,
AFNE01.JPG,AFNE01.JPG,AFNE01.JPG,AFNE01.JPG,AFNE01.JPG,AFNE01.JPG,,,,,,,,,3,7,37,0,,,,,,,,,,,,,,,AMSA07.jpg,AMNE03.jpg,AMNE01.jpg,AMSA10.jpg,AMNE03.jpg,MN,1,num_6,32,num_8,0.583453209954,,,2017_Oct_12_1716,60.0031754984,MAFE4ImagesEEG,001,101922,
AFNE01.JPG,AFNE01.JPG,AFNE01.JPG,AFNE01.JPG,AFNE01.JPG,AFNE01.JPG,,,,,,,,,3,8,38,4,,,,,,,,,,,,,,,AMNE06.jpg,AMSA13.jpg,AMSA02.jpg,AMNE07.jpg,AMSA02.jpg,MS,2,num_2,16,num_2,0.483450291213,,,2017_Oct_12_1716,60.0031754984,MAFE4ImagesEEG,001,101922,
AFNE01.JPG,AFNE01.JPG,AFNE01.JPG,AFNE01.JPG,AFNE01.JPG,AFNE01.JPG,,,,,,,,,3,9,39,1,,,,,,,,,,,,,,,AMNE16.jpg,AMSA10.jpg,AMSA05.jpg,AMNE17.jpg,AMSA10.jpg,MS,2,num_6,32,num_4,0.533444373519,,,2017_Oct_12_1716,60.0031754984,MAFE4ImagesEEG,001,101922,
AFNE01.JPG,AFNE01.JPG,AFNE01.JPG,AFNE01.JPG,AFNE01.JPG,AFNE01.JPG,,,,,,,,,4,0,40,9,,,,,,,,,,,,,,,AMNE19.jpg,AMSA12.jpg,AMSA13.jpg,AMNE03.jpg,AMNE19.jpg,MN,1,num_8,32,num_6,0.43350464059,,,2017_Oct_12_1716,60.0031754984,MAFE4ImagesEEG,001,101922,
AFNE01.JPG,AFNE01.JPG,AFNE01.JPG,AFNE01.JPG,AFNE01.JPG,AFNE01.JPG,,,,,,,,,4,1,41,7,,,,,,,,,,,,,,,AMNE19.jpg,AMNE12.jpg,AMSA15.jpg,AMSA12.jpg,AMNE19.jpg,MN,1,num_8,16,num_8,0.633425802691,,,2017_Oct_12_1716,60.0031754984,MAFE4ImagesEEG,001,101922,
AFNE01.JPG,AFNE01.JPG,AFNE01.JPG,AFNE01.JPG,AFNE01.JPG,AFNE01.JPG,,,,,,,,,4,2,42,5,,,,,,,,,,,,,,,AMSA15.jpg,AMNE08.jpg,AMNE04.jpg,AMSA09.jpg,AMSA09.jpg,MS,2,num_4,32,num_6,0.600140355877,,,2017_Oct_12_1716,60.0031754984,MAFE4ImagesEEG,001,101922,
AFNE01.JPG,AFNE01.JPG,AFNE01.JPG,AFNE01.JPG,AFNE01.JPG,AFNE01.JPG,,,,,,,,,4,3,43,6,,,,,,,,,,,,,,,AMNE06.jpg,AMSA06.jpg,AMNE19.jpg,AMSA10.jpg,AMSA10.jpg,MS,2,num_4,32,num_2,0.516831960063,,,2017_Oct_12_1716,60.0031754984,MAFE4ImagesEEG,001,101922,
AFNE01.JPG,AFNE01.JPG,AFNE01.JPG,AFNE01.JPG,AFNE01.JPG,AFNE01.JPG,,,,,,,,,4,4,44,3,,,,,,,,,,,,,,,AMNE10.jpg,AMSA12.jpg,AMSA14.jpg,AMNE03.jpg,AMSA12.jpg,MS,2,num_6,32,num_8,0.916771147749,,,2017_Oct_12_1716,60.0031754984,MAFE4ImagesEEG,001,101922,
AFNE01.JPG,AFNE01.JPG,AFNE01.JPG,AFNE01.JPG,AFNE01.JPG,AFNE01.JPG,,,,,,,,,4,5,45,0,,,,,,,,,,,,,,,AMSA09.jpg,AMSA16.jpg,AMNE08.jpg,AMNE20.jpg,AMSA09.jpg,MS,2,num_8,32,num_6,0.483512194129,,,2017_Oct_12_1716,60.0031754984,MAFE4ImagesEEG,001,101922,
AFNE01.JPG,AFNE01.JPG,AFNE01.JPG,AFNE01.JPG,AFNE01.JPG,AFNE01.JPG,,,,,,,,,4,6,46,4,,,,,,,,,,,,,,,AMSA12.jpg,AMNE13.jpg,AMNE01.jpg,AMSA09.jpg,AMSA12.jpg,MS,2,num_8,32,num_2,1.30004820728,,,2017_Oct_12_1716,60.0031754984,MAFE4ImagesEEG,001,101922,
AFNE01.JPG,AFNE01.JPG,AFNE01.JPG,AFNE01.JPG,AFNE01.JPG,AFNE01.JPG,,,,,,,,,4,7,47,8,,,,,,,,,,,,,,,AMNE14.jpg,AMSA19.jpg,AMSA01.jpg,AMNE11.jpg,AMSA01.jpg,MS,2,num_2,32,num_6,0.550183158717,,,2017_Oct_12_1716,60.0031754984,MAFE4ImagesEEG,001,101922,
AFNE01.JPG,AFNE01.JPG,AFNE01.JPG,AFNE01.JPG,AFNE01.JPG,AFNE01.JPG,,,,,,,,,4,8,48,1,,,,,,,,,,,,,,,AMSA05.jpg,AMNE05.jpg,AMNE12.jpg,AMSA02.jpg,AMNE05.jpg,MN,1,num_6,32,num_8,0.733455342939,,,2017_Oct_12_1716,60.0031754984,MAFE4ImagesEEG,001,101922,
AFNE01.JPG,AFNE01.JPG,AFNE01.JPG,AFNE01.JPG,AFNE01.JPG,AFNE01.JPG,,,,,,,,,4,9,49,2,,,,,,,,,,,,,,,AMNE10.jpg,AMSA11.jpg,AMSA20.jpg,AMNE18.jpg,AMSA11.jpg,MS,2,num_6,32,num_2,1.11676864594,,,2017_Oct_12_1716,60.0031754984,MAFE4ImagesEEG,001,101922,
AFNE01.JPG,AFNE01.JPG,AFNE01.JPG,AFNE01.JPG,AFNE01.JPG,AFNE01.JPG,,,,,,,,,5,0,50,4,,,,,,,,,,,,,,,AMSA17.jpg,AMNE02.jpg,AMSA05.jpg,AMNE03.jpg,AMNE03.jpg,MN,1,num_4,32,num_6,0.583489453536,,,2017_Oct_12_1716,60.0031754984,MAFE4ImagesEEG,001,101922,
AFNE01.JPG,AFNE01.JPG,AFNE01.JPG,AFNE01.JPG,AFNE01.JPG,AFNE01.JPG,,,,,,,,,5,1,51,0,,,,,,,,,,,,,,,AMNE12.jpg,AMNE13.jpg,AMSA07.jpg,AMSA11.jpg,AMSA11.jpg,MS,2,num_4,16,num_4,0.666760002146,,,2017_Oct_12_1716,60.0031754984,MAFE4ImagesEEG,001,101922,
AFNE01.JPG,AFNE01.JPG,AFNE01.JPG,AFNE01.JPG,AFNE01.JPG,AFNE01.JPG,,,,,,,,,5,2,52,6,,,,,,,,,,,,,,,AMSA10.jpg,AMSA02.jpg,AMNE13.jpg,AMNE05.jpg,AMNE05.jpg,MN,1,num_4,16,num_4,0.71675536735,,,2017_Oct_12_1716,60.0031754984,MAFE4ImagesEEG,001,101922,
AFNE01.JPG,AFNE01.JPG,AFNE01.JPG,AFNE01.JPG,AFNE01.JPG,AFNE01.JPG,,,,,,,,,5,3,53,3,,,,,,,,,,,,,,,AMNE14.jpg,AMSA09.jpg,AMSA15.jpg,AMNE07.jpg,AMNE07.jpg,MN,1,num_4,32,num_6,0.733415250317,,,2017_Oct_12_1716,60.0031754984,MAFE4ImagesEEG,001,101922,
AFNE01.JPG,AFNE01.JPG,AFNE01.JPG,AFNE01.JPG,AFNE01.JPG,AFNE01.JPG,,,,,,,,,5,4,54,9,,,,,,,,,,,,,,,AMSA08.jpg,AMNE18.jpg,AMSA12.jpg,AMNE12.jpg,AMSA08.jpg,MS,2,num_8,16,num_8,0.816458714777,,,2017_Oct_12_1716,60.0031754984,MAFE4ImagesEEG,001,101922,
AFNE01.JPG,AFNE01.JPG,AFNE01.JPG,AFNE01.JPG,AFNE01.JPG,AFNE01.JPG,,,,,,,,,5,5,55,8,,,,,,,,,,,,,,,AMSA14.jpg,AMSA18.jpg,AMNE10.jpg,AMNE14.jpg,AMNE14.jpg,MN,1,num_4,32,num_2,0.716800591792,,,2017_Oct_12_1716,60.0031754984,MAFE4ImagesEEG,001,101922,
AFNE01.JPG,AFNE01.JPG,AFNE01.JPG,AFNE01.JPG,AFNE01.JPG,AFNE01.JPG,,,,,,,,,5,6,56,5,,,,,,,,,,,,,,,AMNE20.jpg,AMSA20.jpg,AMSA09.jpg,AMNE19.jpg,AMSA09.jpg,MS,2,num_2,32,num_4,0.633500535158,,,2017_Oct_12_1716,60.0031754984,MAFE4ImagesEEG,001,101922,
AFNE01.JPG,AFNE01.JPG,AFNE01.JPG,AFNE01.JPG,AFNE01.JPG,AFNE01.JPG,,,,,,,,,5,7,57,7,,,,,,,,,,,,,,,AMNE06.jpg,AMSA16.jpg,AMSA01.jpg,AMNE19.jpg,AMNE06.jpg,MN,1,num_8,32,num_6,0.600117262569,,,2017_Oct_12_1716,60.0031754984,MAFE4ImagesEEG,001,101922,
AFNE01.JPG,AFNE01.JPG,AFNE01.JPG,AFNE01.JPG,AFNE01.JPG,AFNE01.JPG,,,,,,,,,5,8,58,1,,,,,,,,,,,,,,,AMNE19.jpg,AMSA13.jpg,AMNE15.jpg,AMSA15.jpg,AMSA15.jpg,MS,2,num_4,32,num_2,1.23343369295,,,2017_Oct_12_1716,60.0031754984,MAFE4ImagesEEG,001,101922,
AFNE01.JPG,AFNE01.JPG,AFNE01.JPG,AFNE01.JPG,AFNE01.JPG,AFNE01.JPG,,,,,,,,,5,9,59,2,,,,,,,,,,,,,,,AMSA13.jpg,AMSA19.jpg,AMNE12.jpg,AMNE03.jpg,AMNE03.jpg,MN,1,num_4,16,num_4,0.500178491813,,,2017_Oct_12_1716,60.0031754984,MAFE4ImagesEEG,001,101922,
,,,,,,,,,,,,,,,,,,,,,,,,,,,,,,,,,,,,,,,,,,,space,9.59951459186,2017_Oct_12_1716,60.0031754984,MAFE4ImagesEEG,001,101922,
AFNE01.JPG,AFNE01.JPG,AFNE01.JPG,AFNE01.JPG,AFNE01.JPG,AFNE01.JPG,,,,,,,,,,,,,0,0,0,8,,,,,,,,,,,AFSA12.jpg,AFNE10.jpg,AFSA20.jpg,AFNE15.jpg,AFSA20.jpg,FS,4,num_2,32,num_6,0.78346866963,,,2017_Oct_12_1716,60.0031754984,MAFE4ImagesEEG,001,101922,
AFNE01.JPG,AFNE01.JPG,AFNE01.JPG,AFNE01.JPG,AFNE01.JPG,AFNE01.JPG,,,,,,,,,,,,,0,1,1,2,,,,,,,,,,,AFNE18.jpg,AFNE20.jpg,AFSA18.jpg,AFSA20.jpg,AFNE20.jpg,FN,3,num_6,16,num_6,0.933396711596,,,2017_Oct_12_1716,60.0031754984,MAFE4ImagesEEG,001,101922,
AFNE01.JPG,AFNE01.JPG,AFNE01.JPG,AFNE01.JPG,AFNE01.JPG,AFNE01.JPG,,,,,,,,,,,,,0,2,2,5,,,,,,,,,,,AFNE12.jpg,AFSA05.jpg,AFNE18.jpg,AFSA01.jpg,AFNE18.jpg,FN,3,num_2,16,num_2,0.633460442652,,,2017_Oct_12_1716,60.0031754984,MAFE4ImagesEEG,001,101922,
AFNE01.JPG,AFNE01.JPG,AFNE01.JPG,AFNE01.JPG,AFNE01.JPG,AFNE01.JPG,,,,,,,,,,,,,0,3,3,1,,,,,,,,,,,AFNE05.jpg,AFNE04.jpg,AFSA15.jpg,AFSA01.jpg,AFNE04.jpg,FN,3,num_6,16,num_6,0.633482253063,,,2017_Oct_12_1716,60.0031754984,MAFE4ImagesEEG,001,101922,
AFNE01.JPG,AFNE01.JPG,AFNE01.JPG,AFNE01.JPG,AFNE01.JPG,AFNE01.JPG,,,,,,,,,,,,,0,4,4,7,,,,,,,,,,,AFSA16.jpg,AFNE05.jpg,AFNE03.jpg,AFSA14.jpg,AFSA14.jpg,FS,4,num_4,32,num_6,0.60013041296,,,2017_Oct_12_1716,60.0031754984,MAFE4ImagesEEG,001,101922,
AFNE01.JPG,AFNE01.JPG,AFNE01.JPG,AFNE01.JPG,AFNE01.JPG,AFNE01.JPG,,,,,,,,,,,,,0,5,5,3,,,,,,,,,,,AFNE06.jpg,AFSA03.jpg,AFNE08.jpg,AFSA05.jpg,AFSA05.jpg,FS,4,num_4,32,num_8,0.56686421053,,,2017_Oct_12_1716,60.0031754984,MAFE4ImagesEEG,001,101922,
AFNE01.JPG,AFNE01.JPG,AFNE01.JPG,AFNE01.JPG,AFNE01.JPG,AFNE01.JPG,,,,,,,,,,,,,0,6,6,6,,,,,,,,,,,AFSA20.jpg,AFSA06.jpg,AFNE19.jpg,AFNE10.jpg,AFSA06.jpg,FS,4,num_6,32,num_2,0.900128584704,,,2017_Oct_12_1716,60.0031754984,MAFE4ImagesEEG,001,101922,
AFNE01.JPG,AFNE01.JPG,AFNE01.JPG,AFNE01.JPG,AFNE01.JPG,AFNE01.JPG,,,,,,,,,,,,,0,7,7,4,,,,,,,,,,,AFNE20.jpg,AFSA12.jpg,AFNE11.jpg,AFSA20.jpg,AFSA12.jpg,FS,4,num_6,16,num_6,1.10012095107,,,2017_Oct_12_1716,60.0031754984,MAFE4ImagesEEG,001,101922,
AFNE01.JPG,AFNE01.JPG,AFNE01.JPG,AFNE01.JPG,AFNE01.JPG,AFNE01.JPG,,,,,,,,,,,,,0,8,8,0,,,,,,,,,,,AFSA11.jpg,AFNE04.jpg,AFNE17.jpg,AFSA17.jpg,AFSA17.jpg,FS,4,num_4,32,num_2,1.19995933014,,,2017_Oct_12_1716,60.0031754984,MAFE4ImagesEEG,001,101922,
AFNE01.JPG,AFNE01.JPG,AFNE01.JPG,AFNE01.JPG,AFNE01.JPG,AFNE01.JPG,,,,,,,,,,,,,0,9,9,9,,,,,,,,,,,AFSA08.jpg,AFNE06.jpg,AFSA17.jpg,AFNE20.jpg,AFSA17.jpg,FS,4,num_2,16,num_2,1.01684591232,,,2017_Oct_12_1716,60.0031754984,MAFE4ImagesEEG,001,101922,
AFNE01.JPG,AFNE01.JPG,AFNE01.JPG,AFNE01.JPG,AFNE01.JPG,AFNE01.JPG,,,,,,,,,,,,,1,0,10,1,,,,,,,,,,,AFSA01.jpg,AFNE08.jpg,AFSA04.jpg,AFNE18.jpg,AFNE18.jpg,FN,3,num_4,32,num_6,1.08343444671,,,2017_Oct_12_1716,60.0031754984,MAFE4ImagesEEG,001,101922,
AFNE01.JPG,AFNE01.JPG,AFNE01.JPG,AFNE01.JPG,AFNE01.JPG,AFNE01.JPG,,,,,,,,,,,,,1,1,11,8,,,,,,,,,,,AFNE08.jpg,AFSA14.jpg,AFSA16.jpg,AFNE06.jpg,AFSA14.jpg,FS,4,num_6,32,num_8,0.566827325383,,,2017_Oct_12_1716,60.0031754984,MAFE4ImagesEEG,001,101922,
AFNE01.JPG,AFNE01.JPG,AFNE01.JPG,AFNE01.JPG,AFNE01.JPG,AFNE01.JPG,,,,,,,,,,,,,1,2,12,9,,,,,,,,,,,AFSA12.jpg,AFNE17.jpg,AFSA20.jpg,AFNE03.jpg,AFNE17.jpg,FN,3,num_6,32,num_2,0.50015700236,,,2017_Oct_12_1716,60.0031754984,MAFE4ImagesEEG,001,101922,
AFNE01.JPG,AFNE01.JPG,AFNE01.JPG,AFNE01.JPG,AFNE01.JPG,AFNE01.JPG,,,,,,,,,,,,,1,3,13,2,,,,,,,,,,,AFNE02.jpg,AFNE04.jpg,AFSA08.jpg,AFSA19.jpg,AFSA19.jpg,FS,4,num_4,16,num_4,0.933445143397,,,2017_Oct_12_1716,60.0031754984,MAFE4ImagesEEG,001,101922,
AFNE01.JPG,AFNE01.JPG,AFNE01.JPG,AFNE01.JPG,AFNE01.JPG,AFNE01.JPG,,,,,,,,,,,,,1,4,14,3,,,,,,,,,,,AFNE12.jpg,AFSA08.jpg,AFNE03.jpg,AFSA05.jpg,AFSA05.jpg,FS,4,num_4,32,num_6,0.716801553965,,,2017_Oct_12_1716,60.0031754984,MAFE4ImagesEEG,001,101922,
AFNE01.JPG,AFNE01.JPG,AFNE01.JPG,AFNE01.JPG,AFNE01.JPG,AFNE01.JPG,,,,,,,,,,,,,1,5,15,5,,,,,,,,,,,AFNE12.jpg,AFNE15.jpg,AFSA15.jpg,AFSA12.jpg,AFNE12.jpg,FN,3,num_8,32,num_4,1.25007946335,,,2017_Oct_12_1716,60.0031754984,MAFE4ImagesEEG,001,101922,
AFNE01.JPG,AFNE01.JPG,AFNE01.JPG,AFNE01.JPG,AFNE01.JPG,AFNE01.JPG,,,,,,,,,,,,,1,6,16,0,,,,,,,,,,,AFNE13.jpg,AFSA13.jpg,AFNE07.jpg,AFSA17.jpg,AFSA17.jpg,FS,4,num_4,32,num_8,1.01680132933,,,2017_Oct_12_1716,60.0031754984,MAFE4ImagesEEG,001,101922,
AFNE01.JPG,AFNE01.JPG,AFNE01.JPG,AFNE01.JPG,AFNE01.JPG,AFNE01.JPG,,,,,,,,,,,,,1,7,17,7,,,,,,,,,,,AFNE20.jpg,AFNE03.jpg,AFSA11.jpg,AFSA17.jpg,AFSA17.jpg,FS,4,num_4,16,num_4,0.783404521528,,,2017_Oct_12_1716,60.0031754984,MAFE4ImagesEEG,001,101922,
AFNE01.JPG,AFNE01.JPG,AFNE01.JPG,AFNE01.JPG,AFNE01.JPG,AFNE01.JPG,,,,,,,,,,,,,1,8,18,4,,,,,,,,,,,AFSA15.jpg,AFNE15.jpg,AFSA07.jpg,AFNE03.jpg,AFNE03.jpg,FN,3,num_4,32,num_6,1.00009173166,,,2017_Oct_12_1716,60.0031754984,MAFE4ImagesEEG,001,101922,
AFNE01.JPG,AFNE01.JPG,AFNE01.JPG,AFNE01.JPG,AFNE01.JPG,AFNE01.JPG,,,,,,,,,,,,,1,9,19,6,,,,,,,,,,,AFNE13.jpg,AFSA08.jpg,AFSA15.jpg,AFNE11.jpg,AFSA08.jpg,FS,4,num_6,16,num_6,0.733487737598,,,2017_Oct_12_1716,60.0031754984,MAFE4ImagesEEG,001,101922,
AFNE01.JPG,AFNE01.JPG,AFNE01.JPG,AFNE01.JPG,AFNE01.JPG,AFNE01.JPG,,,,,,,,,,,,,2,0,20,2,,,,,,,,,,,AFNE14.jpg,AFNE19.jpg,AFSA13.jpg,AFSA12.jpg,AFNE14.jpg,FN,3,num_8,16,num_8,0.933494216646,,,2017_Oct_12_1716,60.0031754984,MAFE4ImagesEEG,001,101922,
AFNE01.JPG,AFNE01.JPG,AFNE01.JPG,AFNE01.JPG,AFNE01.JPG,AFNE01.JPG,,,,,,,,,,,,,2,1,21,0,,,,,,,,,,,AFNE12.jpg,AFSA13.jpg,AFSA15.jpg,AFNE15.jpg,AFNE15.jpg,FN,3,num_4,16,num_4,0.783481499297,,,2017_Oct_12_1716,60.0031754984,MAFE4ImagesEEG,001,101922,
AFNE01.JPG,AFNE01.JPG,AFNE01.JPG,AFNE01.JPG,AFNE01.JPG,AFNE01.JPG,,,,,,,,,,,,,2,2,22,7,,,,,,,,,,,AFNE15.jpg,AFNE10.jpg,AFSA18.jpg,AFSA13.jpg,AFSA18.jpg,FS,4,num_2,16,num_2,0.833532031858,,,2017_Oct_12_1716,60.0031754984,MAFE4ImagesEEG,001,101922,
AFNE01.JPG,AFNE01.JPG,AFNE01.JPG,AFNE01.JPG,AFNE01.JPG,AFNE01.JPG,,,,,,,,,,,,,2,3,23,9,,,,,,,,,,,AFNE01.jpg,AFNE05.jpg,AFSA08.jpg,AFSA01.jpg,AFSA08.jpg,FS,4,num_2,32,num_6,0.966635009623,,,2017_Oct_12_1716,60.0031754984,MAFE4ImagesEEG,001,101922,
AFNE01.JPG,AFNE01.JPG,AFNE01.JPG,AFNE01.JPG,AFNE01.JPG,AFNE01.JPG,,,,,,,,,,,,,2,4,24,6,,,,,,,,,,,AFSA18.jpg,AFSA19.jpg,AFNE06.jpg,AFNE07.jpg,AFSA18.jpg,FS,4,num_8,32,num_4,0.933575363713,,,2017_Oct_12_1716,60.0031754984,MAFE4ImagesEEG,001,101922,
AFNE01.JPG,AFNE01.JPG,AFNE01.JPG,AFNE01.JPG,AFNE01.JPG,AFNE01.JPG,,,,,,,,,,,,,2,5,25,3,,,,,,,,,,,AFNE14.jpg,AFNE07.jpg,AFSA02.jpg,AFSA12.jpg,AFNE07.jpg,FN,3,num_6,16,num_6,0.95011240337,,,2017_Oct_12_1716,60.0031754984,MAFE4ImagesEEG,001,101922,
AFNE01.JPG,AFNE01.JPG,AFNE01.JPG,AFNE01.JPG,AFNE01.JPG,AFNE01.JPG,,,,,,,,,,,,,2,6,26,4,,,,,,,,,,,AFSA10.jpg,AFNE01.jpg,AFNE17.jpg,AFSA17.jpg,AFSA10.jpg,FS,4,num_8,16,num_8,0.7164564376,,,2017_Oct_12_1716,60.0031754984,MAFE4ImagesEEG,001,101922,
AFNE01.JPG,AFNE01.JPG,AFNE01.JPG,AFNE01.JPG,AFNE01.JPG,AFNE01.JPG,,,,,,,,,,,,,2,7,27,1,,,,,,,,,,,AFNE14.jpg,AFSA17.jpg,AFNE09.jpg,AFSA06.jpg,AFNE09.jpg,FN,3,num_2,16,num_2,0.700018827454,,,2017_Oct_12_1716,60.0031754984,MAFE4ImagesEEG,001,101922,
AFNE01.JPG,AFNE01.JPG,AFNE01.JPG,AFNE01.JPG,AFNE01.JPG,AFNE01.JPG,,,,,,,,,,,,,2,8,28,5,,,,,,,,,,,AFSA04.jpg,AFSA20.jpg,AFNE10.jpg,AFNE05.jpg,AFSA04.jpg,FS,4,num_8,16,num_8,0.800159343635,,,2017_Oct_12_1716,60.0031754984,MAFE4ImagesEEG,001,101922,
AFNE01.JPG,AFNE01.JPG,AFNE01.JPG,AFNE01.JPG,AFNE01.JPG,AFNE01.JPG,,,,,,,,,,,,,2,9,29,8,,,,,,,,,,,AFSA14.jpg,AFSA02.jpg,AFNE03.jpg,AFNE12.jpg,AFSA02.jpg,FS,4,num_6,16,num_6,0.866785083897,,,2017_Oct_12_1716,60.0031754984,MAFE4ImagesEEG,001,101922,
AFNE01.JPG,AFNE01.JPG,AFNE01.JPG,AFNE01.JPG,AFNE01.JPG,AFNE01.JPG,,,,,,,,,,,,,3,0,30,9,,,,,,,,,,,AFSA04.jpg,AFNE19.jpg,AFSA03.jpg,AFNE09.jpg,AFNE19.jpg,FN,3,num_6,32,num_2,0.616846104618,,,2017_Oct_12_1716,60.0031754984,MAFE4ImagesEEG,001,101922,
AFNE01.JPG,AFNE01.JPG,AFNE01.JPG,AFNE01.JPG,AFNE01.JPG,AFNE01.JPG,,,,,,,,,,,,,3,1,31,3,,,,,,,,,,,AFNE01.jpg,AFNE08.jpg,AFSA14.jpg,AFSA19.jpg,AFSA14.jpg,FS,4,num_2,32,num_4,0.650148871471,,,2017_Oct_12_1716,60.0031754984,MAFE4ImagesEEG,001,101922,
AFNE01.JPG,AFNE01.JPG,AFNE01.JPG,AFNE01.JPG,AFNE01.JPG,AFNE01.JPG,,,,,,,,,,,,,3,2,32,8,,,,,,,,,,,AFNE16.jpg,AFSA12.jpg,AFNE02.jpg,AFSA02.jpg,AFNE02.jpg,FN,3,num_2,32,num_8,0.433504319866,,,2017_Oct_12_1716,60.0031754984,MAFE4ImagesEEG,001,101922,
AFNE01.JPG,AFNE01.JPG,AFNE01.JPG,AFNE01.JPG,AFNE01.JPG,AFNE01.JPG,,,,,,,,,,,,,3,3,33,4,,,,,,,,,,,AFNE06.jpg,AFSA16.jpg,AFNE08.jpg,AFSA07.jpg,AFSA07.jpg,FS,4,num_4,32,num_6,0.733459191746,,,2017_Oct_12_1716,60.0031754984,MAFE4ImagesEEG,001,101922,
AFNE01.JPG,AFNE01.JPG,AFNE01.JPG,AFNE01.JPG,AFNE01.JPG,AFNE01.JPG,,,,,,,,,,,,,3,4,34,6,,,,,,,,,,,AFSA20.jpg,AFNE08.jpg,AFNE19.jpg,AFSA13.jpg,AFSA13.jpg,FS,4,num_4,32,num_2,0.666796887061,,,2017_Oct_12_1716,60.0031754984,MAFE4ImagesEEG,001,101922,
AFNE01.JPG,AFNE01.JPG,AFNE01.JPG,AFNE01.JPG,AFNE01.JPG,AFNE01.JPG,,,,,,,,,,,,,3,5,35,5,,,,,,,,,,,AFNE10.jpg,AFSA07.jpg,AFNE16.jpg,AFSA10.jpg,AFSA10.jpg,FS,4,num_4,32,num_8,0.433523243526,,,2017_Oct_12_1716,60.0031754984,MAFE4ImagesEEG,001,101922,
AFNE01.JPG,AFNE01.JPG,AFNE01.JPG,AFNE01.JPG,AFNE01.JPG,AFNE01.JPG,,,,,,,,,,,,,3,6,36,2,,,,,,,,,,,AFSA02.jpg,AFNE19.jpg,AFNE07.jpg,AFSA12.jpg,AFNE19.jpg,FN,3,num_6,32,num_8,0.483511873288,,,2017_Oct_12_1716,60.0031754984,MAFE4ImagesEEG,001,101922,
AFNE01.JPG,AFNE01.JPG,AFNE01.JPG,AFNE01.JPG,AFNE01.JPG,AFNE01.JPG,,,,,,,,,,,,,3,7,37,0,,,,,,,,,,,AFSA10.jpg,AFNE19.jpg,AFSA07.jpg,AFNE07.jpg,AFNE19.jpg,FN,3,num_6,16,num_6,0.516781924642,,,2017_Oct_12_1716,60.0031754984,MAFE4ImagesEEG,001,101922,
AFNE01.JPG,AFNE01.JPG,AFNE01.JPG,AFNE01.JPG,AFNE01.JPG,AFNE01.JPG,,,,,,,,,,,,,3,8,38,1,,,,,,,,,,,AFNE16.jpg,AFNE14.jpg,AFSA17.jpg,AFSA08.jpg,AFNE14.jpg,FN,3,num_6,32,num_8,1.3664625797,,,2017_Oct_12_1716,60.0031754984,MAFE4ImagesEEG,001,101922,
AFNE01.JPG,AFNE01.JPG,AFNE01.JPG,AFNE01.JPG,AFNE01.JPG,AFNE01.JPG,,,,,,,,,,,,,3,9,39,7,,,,,,,,,,,AFNE03.jpg,AFSA15.jpg,AFNE06.jpg,AFSA17.jpg,AFNE03.jpg,FN,3,num_8,32,num_4,0.866781234974,,,2017_Oct_12_1716,60.0031754984,MAFE4ImagesEEG,001,101922,
AFNE01.JPG,AFNE01.JPG,AFNE01.JPG,AFNE01.JPG,AFNE01.JPG,AFNE01.JPG,,,,,,,,,,,,,4,0,40,7,,,,,,,,,,,AFSA19.jpg,AFNE19.jpg,AFNE13.jpg,AFSA04.jpg,AFNE19.jpg,FN,3,num_6,32,num_8,1.54995030141,,,2017_Oct_12_1716,60.0031754984,MAFE4ImagesEEG,001,101922,
AFNE01.JPG,AFNE01.JPG,AFNE01.JPG,AFNE01.JPG,AFNE01.JPG,AFNE01.JPG,,,,,,,,,,,,,4,1,41,8,,,,,,,,,,,AFSA17.jpg,AFSA03.jpg,AFNE08.jpg,AFNE13.jpg,AFNE13.jpg,FN,3,num_4,16,num_4,1.61699749401,,,2017_Oct_12_1716,60.0031754984,MAFE4ImagesEEG,001,101922,
AFNE01.JPG,AFNE01.JPG,AFNE01.JPG,AFNE01.JPG,AFNE01.JPG,AFNE01.JPG,,,,,,,,,,,,,4,2,42,6,,,,,,,,,,,AFSA15.jpg,AFSA04.jpg,AFNE06.jpg,AFNE04.jpg,AFSA04.jpg,FS,4,num_6,32,num_2,1.15008809138,,,2017_Oct_12_1716,60.0031754984,MAFE4ImagesEEG,001,101922,
AFNE01.JPG,AFNE01.JPG,AFNE01.JPG,AFNE01.JPG,AFNE01.JPG,AFNE01.JPG,,,,,,,,,,,,,4,3,43,1,,,,,,,,,,,AFNE07.jpg,AFNE18.jpg,AFSA14.jpg,AFSA04.jpg,AFSA04.jpg,FS,4,num_4,16,num_4,0.600136506953,,,2017_Oct_12_1716,60.0031754984,MAFE4ImagesEEG,001,101922,
AFNE01.JPG,AFNE01.JPG,AFNE01.JPG,AFNE01.JPG,AFNE01.JPG,AFNE01.JPG,,,,,,,,,,,,,4,4,44,5,,,,,,,,,,,AFNE11.jpg,AFSA08.jpg,AFSA17.jpg,AFNE10.jpg,AFNE11.jpg,FN,3,num_8,32,num_2,1.58340285369,,,2017_Oct_12_1716,60.0031754984,MAFE4ImagesEEG,001,101922,
AFNE01.JPG,AFNE01.JPG,AFNE01.JPG,AFNE01.JPG,AFNE01.JPG,AFNE01.JPG,,,,,,,,,,,,,4,5,45,3,,,,,,,,,,,AFNE03.jpg,AFSA20.jpg,AFSA16.jpg,AFNE08.jpg,AFSA20.jpg,FS,4,num_6,32,num_8,1.350077571,,,2017_Oct_12_1716,60.0031754984,MAFE4ImagesEEG,001,101922,
AFNE01.JPG,AFNE01.JPG,AFNE01.JPG,AFNE01.JPG,AFNE01.JPG,AFNE01.JPG,,,,,,,,,,,,,4,6,46,4,,,,,,,,,,,AFSA05.jpg,AFNE18.jpg,AFNE19.jpg,AFSA03.jpg,AFNE19.jpg,FN,3,num_2,32,num_6,0.683428865741,,,2017_Oct_12_1716,60.0031754984,MAFE4ImagesEEG,001,101922,
AFNE01.JPG,AFNE01.JPG,AFNE01.JPG,AFNE01.JPG,AFNE01.JPG,AFNE01.JPG,,,,,,,,,,,,,4,7,47,9,,,,,,,,,,,AFNE09.jpg,AFSA05.jpg,AFSA18.jpg,AFNE10.jpg,AFSA05.jpg,FS,4,num_6,32,num_8,1.00009269384,,,2017_Oct_12_1716,60.0031754984,MAFE4ImagesEEG,001,101922,
AFNE01.JPG,AFNE01.JPG,AFNE01.JPG,AFNE01.JPG,AFNE01.JPG,AFNE01.JPG,,,,,,,,,,,,,4,8,48,0,,,,,,,,,,,AFSA06.jpg,AFSA05.jpg,AFNE04.jpg,AFNE06.jpg,AFSA05.jpg,FS,4,num_6,32,num_2,0.516805980122,,,2017_Oct_12_1716,60.0031754984,MAFE4ImagesEEG,001,101922,
AFNE01.JPG,AFNE01.JPG,AFNE01.JPG,AFNE01.JPG,AFNE01.JPG,AFNE01.JPG,,,,,,,,,,,,,4,9,49,2,,,,,,,,,,,AFNE17.jpg,AFSA05.jpg,AFSA18.jpg,AFNE04.jpg,AFSA18.jpg,FS,4,num_2,32,num_4,0.766685301671,,,2017_Oct_12_1716,60.0031754984,MAFE4ImagesEEG,001,101922,
AFNE01.JPG,AFNE01.JPG,AFNE01.JPG,AFNE01.JPG,AFNE01.JPG,AFNE01.JPG,,,,,,,,,,,,,5,0,50,7,,,,,,,,,,,AFNE18.jpg,AFNE15.jpg,AFSA16.jpg,AFSA12.jpg,AFNE18.jpg,FN,3,num_8,16,num_8,0.750129979919,,,2017_Oct_12_1716,60.0031754984,MAFE4ImagesEEG,001,101922,
AFNE01.JPG,AFNE01.JPG,AFNE01.JPG,AFNE01.JPG,AFNE01.JPG,AFNE01.JPG,,,,,,,,,,,,,5,1,51,4,,,,,,,,,,,AFNE15.jpg,AFSA08.jpg,AFNE16.jpg,AFSA14.jpg,AFSA14.jpg,FS,4,num_4,32,num_2,0.500192925101,,,2017_Oct_12_1716,60.0031754984,MAFE4ImagesEEG,001,101922,
AFNE01.JPG,AFNE01.JPG,AFNE01.JPG,AFNE01.JPG,AFNE01.JPG,AFNE01.JPG,,,,,,,,,,,,,5,2,52,2,,,,,,,,,,,AFSA14.jpg,AFNE12.jpg,AFNE11.jpg,AFSA09.jpg,AFNE11.jpg,FN,3,num_2,16,num_2,1.31673599454,,,2017_Oct_12_1716,60.0031754984,MAFE4ImagesEEG,001,101922,
AFNE01.JPG,AFNE01.JPG,AFNE01.JPG,AFNE01.JPG,AFNE01.JPG,AFNE01.JPG,,,,,,,,,,,,,5,3,53,3,,,,,,,,,,,AFSA14.jpg,AFSA05.jpg,AFNE16.jpg,AFNE05.jpg,AFSA14.jpg,FS,4,num_8,16,num_8,0.900102925487,,,2017_Oct_12_1716,60.0031754984,MAFE4ImagesEEG,001,101922,
AFNE01.JPG,AFNE01.JPG,AFNE01.JPG,AFNE01.JPG,AFNE01.JPG,AFNE01.JPG,,,,,,,,,,,,,5,4,54,9,,,,,,,,,,,AFSA12.jpg,AFNE12.jpg,AFNE04.jpg,AFSA19.jpg,AFNE04.jpg,FN,3,num_2,32,num_6,0.900160338031,,,2017_Oct_12_1716,60.0031754984,MAFE4ImagesEEG,001,101922,
AFNE01.JPG,AFNE01.JPG,AFNE01.JPG,AFNE01.JPG,AFNE01.JPG,AFNE01.JPG,,,,,,,,,,,,,5,5,55,0,,,,,,,,,,,AFSA03.jpg,AFNE19.jpg,AFNE07.jpg,AFSA18.jpg,AFNE19.jpg,FN,3,num_6,32,num_2,1.93351730984,,,2017_Oct_12_1716,60.0031754984,MAFE4ImagesEEG,001,101922,
AFNE01.JPG,AFNE01.JPG,AFNE01.JPG,AFNE01.JPG,AFNE01.JPG,AFNE01.JPG,,,,,,,,,,,,,5,6,56,5,,,,,,,,,,,AFSA19.jpg,AFSA16.jpg,AFNE17.jpg,AFNE01.jpg,AFSA16.jpg,FS,4,num_6,32,num_8,1.15011503338,,,2017_Oct_12_1716,60.0031754984,MAFE4ImagesEEG,001,101922,
AFNE01.JPG,AFNE01.JPG,AFNE01.JPG,AFNE01.JPG,AFNE01.JPG,AFNE01.JPG,,,,,,,,,,,,,5,7,57,8,,,,,,,,,,,AFNE10.jpg,AFSA08.jpg,AFSA18.jpg,AFNE07.jpg,AFSA18.jpg,FS,4,num_2,32,num_6,0.750157884322,,,2017_Oct_12_1716,60.0031754984,MAFE4ImagesEEG,001,101922,
AFNE01.JPG,AFNE01.JPG,AFNE01.JPG,AFNE01.JPG,AFNE01.JPG,AFNE01.JPG,,,,,,,,,,,,,5,8,58,6,,,,,,,,,,,AFNE12.jpg,AFSA07.jpg,AFSA16.jpg,AFNE15.jpg,AFNE15.jpg,FN,3,num_4,16,num_4,1.24979496689,,,2017_Oct_12_1716,60.0031754984,MAFE4ImagesEEG,001,101922,
AFNE01.JPG,AFNE01.JPG,AFNE01.JPG,AFNE01.JPG,AFNE01.JPG,AFNE01.JPG,,,,,,,,,,,,,5,9,59,1,,,,,,,,,,,AFNE17.jpg,AFSA02.jpg,AFSA07.jpg,AFNE18.jpg,AFNE18.jpg,FN,3,num_4,32,num_8,0.53348157939,,,2017_Oct_12_1716,60.0031754984,MAFE4ImagesEEG,001,101922,
,,,,,,,,,,,,,,,,,,,,,,,,,,,,,,,,,,,,,,,,,,,space,10.1490950799,2017_Oct_12_1716,60.0031754984,MAFE4ImagesEEG,001,101922,
AFNE01.JPG,AFNE01.JPG,AFNE01.JPG,AFNE01.JPG,AFNE01.JPG,AFNE01.JPG,,,,,,,,,,,,,,,,,0,0,0,1,,,,,,,AMNE17.jpg,AMSA07.jpg,AMSA15.jpg,AMNE06.jpg,AMSA15.jpg,MS,2,num_2,16,num_2,1.9334659914,,,2017_Oct_12_1716,60.0031754984,MAFE4ImagesEEG,001,101922,
AFNE01.JPG,AFNE01.JPG,AFNE01.JPG,AFNE01.JPG,AFNE01.JPG,AFNE01.JPG,,,,,,,,,,,,,,,,,0,1,1,7,,,,,,,AMNE10.jpg,AMSA10.jpg,AMNE11.jpg,AMSA04.jpg,AMSA04.jpg,MS,2,num_4,32,num_8,1.0000859584,,,2017_Oct_12_1716,60.0031754984,MAFE4ImagesEEG,001,101922,
AFNE01.JPG,AFNE01.JPG,AFNE01.JPG,AFNE01.JPG,AFNE01.JPG,AFNE01.JPG,,,,,,,,,,,,,,,,,0,2,2,6,,,,,,,AMSA14.jpg,AMNE06.jpg,AMNE07.jpg,AMSA17.jpg,AMSA17.jpg,MS,2,num_4,32,num_8,0.716805723496,,,2017_Oct_12_1716,60.0031754984,MAFE4ImagesEEG,001,101922,
AFNE01.JPG,AFNE01.JPG,AFNE01.JPG,AFNE01.JPG,AFNE01.JPG,AFNE01.JPG,,,,,,,,,,,,,,,,,0,3,3,4,,,,,,,AMSA20.jpg,AMNE05.jpg,AMNE12.jpg,AMSA09.jpg,AMSA20.jpg,MS,2,num_8,32,num_6,0.783464179258,,,2017_Oct_12_1716,60.0031754984,MAFE4ImagesEEG,001,101922,
AFNE01.JPG,AFNE01.JPG,AFNE01.JPG,AFNE01.JPG,AFNE01.JPG,AFNE01.JPG,,,,,,,,,,,,,,,,,0,4,4,0,,,,,,,AMNE06.jpg,AMNE04.jpg,AMSA02.jpg,AMSA18.jpg,AMSA02.jpg,MS,2,num_2,16,num_2,0.650141494465,,,2017_Oct_12_1716,60.0031754984,MAFE4ImagesEEG,001,101922,
AFNE01.JPG,AFNE01.JPG,AFNE01.JPG,AFNE01.JPG,AFNE01.JPG,AFNE01.JPG,,,,,,,,,,,,,,,,,0,5,5,3,,,,,,,AMNE08.jpg,AMNE01.jpg,AMSA17.jpg,AMSA14.jpg,AMSA17.jpg,MS,2,num_2,32,num_8,1.11679558817,,,2017_Oct_12_1716,60.0031754984,MAFE4ImagesEEG,001,101922,
AFNE01.JPG,AFNE01.JPG,AFNE01.JPG,AFNE01.JPG,AFNE01.JPG,AFNE01.JPG,,,,,,,,,,,,,,,,,0,6,6,5,,,,,,,AMNE03.jpg,AMSA16.jpg,AMSA14.jpg,AMNE01.jpg,AMSA16.jpg,MS,2,num_6,16,num_6,0.616756297415,,,2017_Oct_12_1716,60.0031754984,MAFE4ImagesEEG,001,101922,
AFNE01.JPG,AFNE01.JPG,AFNE01.JPG,AFNE01.JPG,AFNE01.JPG,AFNE01.JPG,,,,,,,,,,,,,,,,,0,7,7,9,,,,,,,AMSA17.jpg,AMNE17.jpg,AMNE06.jpg,AMSA08.jpg,AMSA08.jpg,MS,2,num_4,16,num_4,0.733451173175,,,2017_Oct_12_1716,60.0031754984,MAFE4ImagesEEG,001,101922,
AFNE01.JPG,AFNE01.JPG,AFNE01.JPG,AFNE01.JPG,AFNE01.JPG,AFNE01.JPG,,,,,,,,,,,,,,,,,0,8,8,2,,,,,,,AMNE12.jpg,AMSA05.jpg,AMSA03.jpg,AMNE19.jpg,AMSA03.jpg,MS,2,num_2,16,num_2,0.833467563149,,,2017_Oct_12_1716,60.0031754984,MAFE4ImagesEEG,001,101922,
AFNE01.JPG,AFNE01.JPG,AFNE01.JPG,AFNE01.JPG,AFNE01.JPG,AFNE01.JPG,,,,,,,,,,,,,,,,,0,9,9,8,,,,,,,AMNE10.jpg,AMSA12.jpg,AMNE07.jpg,AMSA07.jpg,AMNE07.jpg,MN,1,num_2,32,num_6,0.81678298302,,,2017_Oct_12_1716,60.0031754984,MAFE4ImagesEEG,001,101922,
AFNE01.JPG,AFNE01.JPG,AFNE01.JPG,AFNE01.JPG,AFNE01.JPG,AFNE01.JPG,,,,,,,,,,,,,,,,,1,0,10,1,,,,,,,AMNE01.jpg,AMNE10.jpg,AMSA01.jpg,AMSA02.jpg,AMSA02.jpg,MS,2,num_4,16,num_4,0.900161300204,,,2017_Oct_12_1716,60.0031754984,MAFE4ImagesEEG,001,101922,
AFNE01.JPG,AFNE01.JPG,AFNE01.JPG,AFNE01.JPG,AFNE01.JPG,AFNE01.JPG,,,,,,,,,,,,,,,,,1,1,11,8,,,,,,,AMNE05.jpg,AMNE01.jpg,AMSA03.jpg,AMSA16.jpg,AMNE01.jpg,MN,1,num_6,16,num_6,0.550153329852,,,2017_Oct_12_1716,60.0031754984,MAFE4ImagesEEG,001,101922,
AFNE01.JPG,AFNE01.JPG,AFNE01.JPG,AFNE01.JPG,AFNE01.JPG,AFNE01.JPG,,,,,,,,,,,,,,,,,1,2,12,0,,,,,,,AMNE18.jpg,AMSA14.jpg,AMSA03.jpg,AMNE10.jpg,AMNE18.jpg,MN,1,num_8,16,num_8,0.966754966415,,,2017_Oct_12_1716,60.0031754984,MAFE4ImagesEEG,001,101922,
AFNE01.JPG,AFNE01.JPG,AFNE01.JPG,AFNE01.JPG,AFNE01.JPG,AFNE01.JPG,,,,,,,,,,,,,,,,,1,3,13,2,,,,,,,AMNE02.jpg,AMNE17.jpg,AMSA06.jpg,AMSA08.jpg,AMSA08.jpg,MS,2,num_4,16,num_4,0.933486518799,,,2017_Oct_12_1716,60.0031754984,MAFE4ImagesEEG,001,101922,
AFNE01.JPG,AFNE01.JPG,AFNE01.JPG,AFNE01.JPG,AFNE01.JPG,AFNE01.JPG,,,,,,,,,,,,,,,,,1,4,14,9,,,,,,,AMSA01.jpg,AMNE09.jpg,AMSA09.jpg,AMNE02.jpg,AMSA01.jpg,MS,2,num_8,32,num_2,1.20005009964,,,2017_Oct_12_1716,60.0031754984,MAFE4ImagesEEG,001,101922,
AFNE01.JPG,AFNE01.JPG,AFNE01.JPG,AFNE01.JPG,AFNE01.JPG,AFNE01.JPG,,,,,,,,,,,,,,,,,1,5,15,6,,,,,,,AMSA10.jpg,AMNE17.jpg,AMNE12.jpg,AMSA15.jpg,AMNE12.jpg,MN,1,num_2,32,num_8,0.950120421825,,,2017_Oct_12_1716,60.0031754984,MAFE4ImagesEEG,001,101922,
AFNE01.JPG,AFNE01.JPG,AFNE01.JPG,AFNE01.JPG,AFNE01.JPG,AFNE01.JPG,,,,,,,,,,,,,,,,,1,6,16,5,,,,,,,AMSA09.jpg,AMNE08.jpg,AMSA06.jpg,AMNE11.jpg,AMNE11.jpg,MN,1,num_4,16,num_4,0.983409717563,,,2017_Oct_12_1716,60.0031754984,MAFE4ImagesEEG,001,101922,
AFNE01.JPG,AFNE01.JPG,AFNE01.JPG,AFNE01.JPG,AFNE01.JPG,AFNE01.JPG,,,,,,,,,,,,,,,,,1,7,17,4,,,,,,,AMSA14.jpg,AMSA19.jpg,AMNE05.jpg,AMNE09.jpg,AMNE05.jpg,MN,1,num_2,16,num_2,1.46674101427,,,2017_Oct_12_1716,60.0031754984,MAFE4ImagesEEG,001,101922,
AFNE01.JPG,AFNE01.JPG,AFNE01.JPG,AFNE01.JPG,AFNE01.JPG,AFNE01.JPG,,,,,,,,,,,,,,,,,1,8,18,7,,,,,,,AMNE13.jpg,AMSA19.jpg,AMSA18.jpg,AMNE20.jpg,AMSA18.jpg,MS,2,num_2,16,num_2,1.01670959778,,,2017_Oct_12_1716,60.0031754984,MAFE4ImagesEEG,001,101922,
AFNE01.JPG,AFNE01.JPG,AFNE01.JPG,AFNE01.JPG,AFNE01.JPG,AFNE01.JPG,,,,,,,,,,,,,,,,,1,9,19,3,,,,,,,AMNE15.jpg,AMSA20.jpg,AMNE08.jpg,AMSA14.jpg,AMSA14.jpg,MS,2,num_4,16,num_4,0.666740436805,,,2017_Oct_12_1716,60.0031754984,MAFE4ImagesEEG,001,101922,
AFNE01.JPG,AFNE01.JPG,AFNE01.JPG,AFNE01.JPG,AFNE01.JPG,AFNE01.JPG,,,,,,,,,,,,,,,,,2,0,20,9,,,,,,,AMNE10.jpg,AMSA18.jpg,AMNE11.jpg,AMSA08.jpg,AMSA18.jpg,MS,2,num_6,16,num_6,0.416484566522,,,2017_Oct_12_1716,60.0031754984,MAFE4ImagesEEG,001,101922,
AFNE01.JPG,AFNE01.JPG,AFNE01.JPG,AFNE01.JPG,AFNE01.JPG,AFNE01.JPG,,,,,,,,,,,,,,,,,2,1,21,6,,,,,,,AMSA04.jpg,AMNE06.jpg,AMNE01.jpg,AMSA07.jpg,AMNE06.jpg,MN,1,num_6,16,num_6,0.766850162065,,,2017_Oct_12_1716,60.0031754984,MAFE4ImagesEEG,001,101922,
AFNE01.JPG,AFNE01.JPG,AFNE01.JPG,AFNE01.JPG,AFNE01.JPG,AFNE01.JPG,,,,,,,,,,,,,,,,,2,2,22,4,,,,,,,AMSA12.jpg,AMNE13.jpg,AMSA14.jpg,AMNE08.jpg,AMSA12.jpg,MS,2,num_8,32,num_4,1.31675652205,,,2017_Oct_12_1716,60.0031754984,MAFE4ImagesEEG,001,101922,
AFNE01.JPG,AFNE01.JPG,AFNE01.JPG,AFNE01.JPG,AFNE01.JPG,AFNE01.JPG,,,,,,,,,,,,,,,,,2,3,23,3,,,,,,,AMSA13.jpg,AMNE05.jpg,AMSA10.jpg,AMNE15.jpg,AMNE15.jpg,MN,1,num_4,32,num_8,0.550184441614,,,2017_Oct_12_1716,60.0031754984,MAFE4ImagesEEG,001,101922,
AFNE01.JPG,AFNE01.JPG,AFNE01.JPG,AFNE01.JPG,AFNE01.JPG,AFNE01.JPG,,,,,,,,,,,,,,,,,2,4,24,5,,,,,,,AMSA20.jpg,AMNE18.jpg,AMNE19.jpg,AMSA12.jpg,AMNE19.jpg,MN,1,num_2,32,num_6,0.800149079994,,,2017_Oct_12_1716,60.0031754984,MAFE4ImagesEEG,001,101922,
AFNE01.JPG,AFNE01.JPG,AFNE01.JPG,AFNE01.JPG,AFNE01.JPG,AFNE01.JPG,,,,,,,,,,,,,,,,,2,5,25,0,,,,,,,AMNE11.jpg,AMSA08.jpg,AMNE09.jpg,AMSA03.jpg,AMSA03.jpg,MS,2,num_4,32,num_2,1.01674231316,,,2017_Oct_12_1716,60.0031754984,MAFE4ImagesEEG,001,101922,
AFNE01.JPG,AFNE01.JPG,AFNE01.JPG,AFNE01.JPG,AFNE01.JPG,AFNE01.JPG,,,,,,,,,,,,,,,,,2,6,26,1,,,,,,,AMNE18.jpg,AMSA18.jpg,AMSA13.jpg,AMNE02.jpg,AMSA18.jpg,MS,2,num_6,32,num_8,0.766774467425,,,2017_Oct_12_1716,60.0031754984,MAFE4ImagesEEG,001,101922,
AFNE01.JPG,AFNE01.JPG,AFNE01.JPG,AFNE01.JPG,AFNE01.JPG,AFNE01.JPG,,,,,,,,,,,,,,,,,2,7,27,7,,,,,,,AMNE10.jpg,AMSA19.jpg,AMNE15.jpg,AMSA05.jpg,AMSA05.jpg,MS,2,num_4,32,num_2,1.03350098419,,,2017_Oct_12_1716,60.0031754984,MAFE4ImagesEEG,001,101922,
AFNE01.JPG,AFNE01.JPG,AFNE01.JPG,AFNE01.JPG,AFNE01.JPG,AFNE01.JPG,,,,,,,,,,,,,,,,,2,8,28,8,,,,,,,AMNE10.jpg,AMSA12.jpg,AMNE20.jpg,AMSA02.jpg,AMNE20.jpg,MN,1,num_2,32,num_8,1.00016453967,,,2017_Oct_12_1716,60.0031754984,MAFE4ImagesEEG,001,101922,
AFNE01.JPG,AFNE01.JPG,AFNE01.JPG,AFNE01.JPG,AFNE01.JPG,AFNE01.JPG,,,,,,,,,,,,,,,,,2,9,29,2,,,,,,,AMNE07.jpg,AMSA02.jpg,AMNE06.jpg,AMSA10.jpg,AMNE06.jpg,MN,1,num_2,16,num_2,1.16658760433,,,2017_Oct_12_1716,60.0031754984,MAFE4ImagesEEG,001,101922,
AFNE01.JPG,AFNE01.JPG,AFNE01.JPG,AFNE01.JPG,AFNE01.JPG,AFNE01.JPG,,,,,,,,,,,,,,,,,3,0,30,0,,,,,,,AMNE17.jpg,AMSA20.jpg,AMNE15.jpg,AMSA12.jpg,AMNE17.jpg,MN,1,num_8,16,num_8,0.633485781029,,,2017_Oct_12_1716,60.0031754984,MAFE4ImagesEEG,001,101922,
AFNE01.JPG,AFNE01.JPG,AFNE01.JPG,AFNE01.JPG,AFNE01.JPG,AFNE01.JPG,,,,,,,,,,,,,,,,,3,1,31,9,,,,,,,AMNE05.jpg,AMSA13.jpg,AMNE11.jpg,AMSA01.jpg,AMNE05.jpg,MN,1,num_8,32,num_6,0.600099301082,,,2017_Oct_12_1716,60.0031754984,MAFE4ImagesEEG,001,101922,
AFNE01.JPG,AFNE01.JPG,AFNE01.JPG,AFNE01.JPG,AFNE01.JPG,AFNE01.JPG,,,,,,,,,,,,,,,,,3,2,32,4,,,,,,,AMNE06.jpg,AMSA02.jpg,AMSA18.jpg,AMNE11.jpg,AMSA02.jpg,MS,2,num_6,32,num_4,0.816897166544,,,2017_Oct_12_1716,60.0031754984,MAFE4ImagesEEG,001,101922,
AFNE01.JPG,AFNE01.JPG,AFNE01.JPG,AFNE01.JPG,AFNE01.JPG,AFNE01.JPG,,,,,,,,,,,,,,,,,3,3,33,7,,,,,,,AMSA04.jpg,AMSA12.jpg,AMNE12.jpg,AMNE17.jpg,AMNE17.jpg,MN,1,num_4,32,num_8,0.533642911701,,,2017_Oct_12_1716,60.0031754984,MAFE4ImagesEEG,001,101922,
AFNE01.JPG,AFNE01.JPG,AFNE01.JPG,AFNE01.JPG,AFNE01.JPG,AFNE01.JPG,,,,,,,,,,,,,,,,,3,4,34,3,,,,,,,AMNE20.jpg,AMNE08.jpg,AMSA05.jpg,AMSA14.jpg,AMNE20.jpg,MN,1,num_8,32,num_6,0.750124527374,,,2017_Oct_12_1716,60.0031754984,MAFE4ImagesEEG,001,101922,
AFNE01.JPG,AFNE01.JPG,AFNE01.JPG,AFNE01.JPG,AFNE01.JPG,AFNE01.JPG,,,,,,,,,,,,,,,,,3,5,35,6,,,,,,,AMNE06.jpg,AMNE05.jpg,AMSA16.jpg,AMSA10.jpg,AMSA10.jpg,MS,2,num_4,32,num_2,0.58343621064,,,2017_Oct_12_1716,60.0031754984,MAFE4ImagesEEG,001,101922,
AFNE01.JPG,AFNE01.JPG,AFNE01.JPG,AFNE01.JPG,AFNE01.JPG,AFNE01.JPG,,,,,,,,,,,,,,,,,3,6,36,8,,,,,,,AMSA18.jpg,AMNE12.jpg,AMSA13.jpg,AMNE09.jpg,AMNE09.jpg,MN,1,num_4,32,num_8,0.70016155683,,,2017_Oct_12_1716,60.0031754984,MAFE4ImagesEEG,001,101922,
AFNE01.JPG,AFNE01.JPG,AFNE01.JPG,AFNE01.JPG,AFNE01.JPG,AFNE01.JPG,,,,,,,,,,,,,,,,,3,7,37,5,,,,,,,AMSA13.jpg,AMSA09.jpg,AMNE08.jpg,AMNE18.jpg,AMSA09.jpg,MS,2,num_6,16,num_6,0.516821375699,,,2017_Oct_12_1716,60.0031754984,MAFE4ImagesEEG,001,101922,
AFNE01.JPG,AFNE01.JPG,AFNE01.JPG,AFNE01.JPG,AFNE01.JPG,AFNE01.JPG,,,,,,,,,,,,,,,,,3,8,38,2,,,,,,,AMNE18.jpg,AMSA20.jpg,AMSA10.jpg,AMNE11.jpg,AMSA10.jpg,MS,2,num_2,32,num_4,1.0501733761,,,2017_Oct_12_1716,60.0031754984,MAFE4ImagesEEG,001,101922,
AFNE01.JPG,AFNE01.JPG,AFNE01.JPG,AFNE01.JPG,AFNE01.JPG,AFNE01.JPG,,,,,,,,,,,,,,,,,3,9,39,1,,,,,,,AMNE19.jpg,AMSA01.jpg,AMSA08.jpg,AMNE03.jpg,AMNE03.jpg,MN,1,num_4,32,num_6,0.55012959498,,,2017_Oct_12_1716,60.0031754984,MAFE4ImagesEEG,001,101922,
AFNE01.JPG,AFNE01.JPG,AFNE01.JPG,AFNE01.JPG,AFNE01.JPG,AFNE01.JPG,,,,,,,,,,,,,,,,,4,0,40,9,,,,,,,AMSA06.jpg,AMNE17.jpg,AMSA19.jpg,AMNE04.jpg,AMSA06.jpg,MS,2,num_8,16,num_8,0.700132048689,,,2017_Oct_12_1716,60.0031754984,MAFE4ImagesEEG,001,101922,
AFNE01.JPG,AFNE01.JPG,AFNE01.JPG,AFNE01.JPG,AFNE01.JPG,AFNE01.JPG,,,,,,,,,,,,,,,,,4,1,41,7,,,,,,,AMNE06.jpg,AMSA15.jpg,AMNE18.jpg,AMSA18.jpg,AMSA15.jpg,MS,2,num_6,32,num_2,1.68336439703,,,2017_Oct_12_1716,60.0031754984,MAFE4ImagesEEG,001,101922,
AFNE01.JPG,AFNE01.JPG,AFNE01.JPG,AFNE01.JPG,AFNE01.JPG,AFNE01.JPG,,,,,,,,,,,,,,,,,4,2,42,5,,,,,,,AMSA09.jpg,AMNE04.jpg,AMSA11.jpg,AMNE08.jpg,AMSA09.jpg,MS,2,num_8,32,num_2,0.666742040543,,,2017_Oct_12_1716,60.0031754984,MAFE4ImagesEEG,001,101922,
AFNE01.JPG,AFNE01.JPG,AFNE01.JPG,AFNE01.JPG,AFNE01.JPG,AFNE01.JPG,,,,,,,,,,,,,,,,,4,3,43,3,,,,,,,AMNE02.jpg,AMSA07.jpg,AMSA11.jpg,AMNE19.jpg,AMSA07.jpg,MS,2,num_6,16,num_6,0.74982142786,,,2017_Oct_12_1716,60.0031754984,MAFE4ImagesEEG,001,101922,
AFNE01.JPG,AFNE01.JPG,AFNE01.JPG,AFNE01.JPG,AFNE01.JPG,AFNE01.JPG,,,,,,,,,,,,,,,,,4,4,44,8,,,,,,,AMSA06.jpg,AMSA09.jpg,AMNE07.jpg,AMNE03.jpg,AMNE07.jpg,MN,1,num_2,32,num_8,1.30008156423,,,2017_Oct_12_1716,60.0031754984,MAFE4ImagesEEG,001,101922,
AFNE01.JPG,AFNE01.JPG,AFNE01.JPG,AFNE01.JPG,AFNE01.JPG,AFNE01.JPG,,,,,,,,,,,,,,,,,4,5,45,2,,,,,,,AMSA06.jpg,AMSA09.jpg,AMNE11.jpg,AMNE12.jpg,AMSA09.jpg,MS,2,num_6,32,num_4,0.833507014089,,,2017_Oct_12_1716,60.0031754984,MAFE4ImagesEEG,001,101922,
AFNE01.JPG,AFNE01.JPG,AFNE01.JPG,AFNE01.JPG,AFNE01.JPG,AFNE01.JPG,,,,,,,,,,,,,,,,,4,6,46,0,,,,,,,AMNE02.jpg,AMSA03.jpg,AMNE12.jpg,AMSA06.jpg,AMNE12.jpg,MN,1,num_2,16,num_2,1.58372231084,,,2017_Oct_12_1716,60.0031754984,MAFE4ImagesEEG,001,101922,
AFNE01.JPG,AFNE01.JPG,AFNE01.JPG,AFNE01.JPG,AFNE01.JPG,AFNE01.JPG,,,,,,,,,,,,,,,,,4,7,47,4,,,,,,,AMSA12.jpg,AMNE10.jpg,AMSA19.jpg,AMNE17.jpg,AMNE17.jpg,MN,1,num_4,32,num_8,1.06678867619,,,2017_Oct_12_1716,60.0031754984,MAFE4ImagesEEG,001,101922,
AFNE01.JPG,AFNE01.JPG,AFNE01.JPG,AFNE01.JPG,AFNE01.JPG,AFNE01.JPG,,,,,,,,,,,,,,,,,4,8,48,1,,,,,,,AMNE13.jpg,AMNE01.jpg,AMSA02.jpg,AMSA13.jpg,AMNE13.jpg,MN,1,num_8,32,num_6,0.93349165062,,,2017_Oct_12_1716,60.0031754984,MAFE4ImagesEEG,001,101922,
AFNE01.JPG,AFNE01.JPG,AFNE01.JPG,AFNE01.JPG,AFNE01.JPG,AFNE01.JPG,,,,,,,,,,,,,,,,,4,9,49,6,,,,,,,AMSA09.jpg,AMSA02.jpg,AMNE16.jpg,AMNE11.jpg,AMNE11.jpg,MN,1,num_4,16,num_4,0.80006761197,,,2017_Oct_12_1716,60.0031754984,MAFE4ImagesEEG,001,101922,
AFNE01.JPG,AFNE01.JPG,AFNE01.JPG,AFNE01.JPG,AFNE01.JPG,AFNE01.JPG,,,,,,,,,,,,,,,,,5,0,50,7,,,,,,,AMNE10.jpg,AMSA06.jpg,AMNE16.jpg,AMSA09.jpg,AMNE16.jpg,MN,1,num_2,32,num_8,0.683492693119,,,2017_Oct_12_1716,60.0031754984,MAFE4ImagesEEG,001,101922,
AFNE01.JPG,AFNE01.JPG,AFNE01.JPG,AFNE01.JPG,AFNE01.JPG,AFNE01.JPG,,,,,,,,,,,,,,,,,5,1,51,9,,,,,,,AMNE19.jpg,AMSA01.jpg,AMSA04.jpg,AMNE02.jpg,AMSA01.jpg,MS,2,num_6,32,num_4,1.51669179671,,,2017_Oct_12_1716,60.0031754984,MAFE4ImagesEEG,001,101922,
AFNE01.JPG,AFNE01.JPG,AFNE01.JPG,AFNE01.JPG,AFNE01.JPG,AFNE01.JPG,,,,,,,,,,,,,,,,,5,2,52,6,,,,,,,AMSA06.jpg,AMSA19.jpg,AMNE19.jpg,AMNE04.jpg,AMSA19.jpg,MS,2,num_6,32,num_2,1.35014460562,,,2017_Oct_12_1716,60.0031754984,MAFE4ImagesEEG,001,101922,
AFNE01.JPG,AFNE01.JPG,AFNE01.JPG,AFNE01.JPG,AFNE01.JPG,AFNE01.JPG,,,,,,,,,,,,,,,,,5,3,53,4,,,,,,,AMSA01.jpg,AMNE10.jpg,AMNE08.jpg,AMSA20.jpg,AMSA20.jpg,MS,2,num_4,32,num_8,1.00009333529,,,2017_Oct_12_1716,60.0031754984,MAFE4ImagesEEG,001,101922,
AFNE01.JPG,AFNE01.JPG,AFNE01.JPG,AFNE01.JPG,AFNE01.JPG,AFNE01.JPG,,,,,,,,,,,,,,,,,5,4,54,1,,,,,,,AMSA16.jpg,AMNE18.jpg,AMNE20.jpg,AMSA05.jpg,AMNE18.jpg,MN,1,num_6,16,num_6,1.10007316084,,,2017_Oct_12_1716,60.0031754984,MAFE4ImagesEEG,001,101922,
AFNE01.JPG,AFNE01.JPG,AFNE01.JPG,AFNE01.JPG,AFNE01.JPG,AFNE01.JPG,,,,,,,,,,,,,,,,,5,5,55,3,,,,,,,AMNE17.jpg,AMSA08.jpg,AMNE11.jpg,AMSA20.jpg,AMNE17.jpg,MN,1,num_8,16,num_8,0.93343487964,,,2017_Oct_12_1716,60.0031754984,MAFE4ImagesEEG,001,101922,
AFNE01.JPG,AFNE01.JPG,AFNE01.JPG,AFNE01.JPG,AFNE01.JPG,AFNE01.JPG,,,,,,,,,,,,,,,,,5,6,56,0,,,,,,,AMSA03.jpg,AMNE15.jpg,AMSA04.jpg,AMNE09.jpg,AMNE15.jpg,MN,1,num_6,32,num_4,0.600139072863,,,2017_Oct_12_1716,60.0031754984,MAFE4ImagesEEG,001,101922,
AFNE01.JPG,AFNE01.JPG,AFNE01.JPG,AFNE01.JPG,AFNE01.JPG,AFNE01.JPG,,,,,,,,,,,,,,,,,5,7,57,5,,,,,,,AMSA12.jpg,AMSA14.jpg,AMNE03.jpg,AMNE07.jpg,AMNE03.jpg,MN,1,num_2,32,num_6,0.900096831378,,,2017_Oct_12_1716,60.0031754984,MAFE4ImagesEEG,001,101922,
AFNE01.JPG,AFNE01.JPG,AFNE01.JPG,AFNE01.JPG,AFNE01.JPG,AFNE01.JPG,,,,,,,,,,,,,,,,,5,8,58,8,,,,,,,AMSA17.jpg,AMNE07.jpg,AMNE15.jpg,AMSA07.jpg,AMSA07.jpg,MS,2,num_4,32,num_2,0.850106597994,,,2017_Oct_12_1716,60.0031754984,MAFE4ImagesEEG,001,101922,
AFNE01.JPG,AFNE01.JPG,AFNE01.JPG,AFNE01.JPG,AFNE01.JPG,AFNE01.JPG,,,,,,,,,,,,,,,,,5,9,59,2,,,,,,,AMNE01.jpg,AMSA08.jpg,AMSA16.jpg,AMNE17.jpg,AMSA16.jpg,MS,2,num_2,32,num_6,0.866733444855,,,2017_Oct_12_1716,60.0031754984,MAFE4ImagesEEG,001,101922,
,,,,,,,,,,,,,,,,,,,,,,,,,,,,,,,,,,,,,,,,,,,space,2.566669842,2017_Oct_12_1716,60.0031754984,MAFE4ImagesEEG,001,101922,
AFNE01.JPG,AFNE01.JPG,AFNE01.JPG,AFNE01.JPG,AFNE01.JPG,AFNE01.JPG,,,,,,,,,,,,,,,,,,,,,0,0,0,2,,,AFNE07.jpg,AFNE05.jpg,AFSA12.jpg,AFSA10.jpg,AFNE07.jpg,FN,3,num_8,32,num_4,1.06676301698,,,2017_Oct_12_1716,60.0031754984,MAFE4ImagesEEG,001,101922,
AFNE01.JPG,AFNE01.JPG,AFNE01.JPG,AFNE01.JPG,AFNE01.JPG,AFNE01.JPG,,,,,,,,,,,,,,,,,,,,,0,1,1,7,,,AFNE07.jpg,AFSA17.jpg,AFNE17.jpg,AFSA13.jpg,AFSA17.jpg,FS,4,num_6,16,num_6,0.733479077579,,,2017_Oct_12_1716,60.0031754984,MAFE4ImagesEEG,001,101922,
AFNE01.JPG,AFNE01.JPG,AFNE01.JPG,AFNE01.JPG,AFNE01.JPG,AFNE01.JPG,,,,,,,,,,,,,,,,,,,,,0,2,2,8,,,AFSA08.jpg,AFSA10.jpg,AFNE11.jpg,AFNE19.jpg,AFSA10.jpg,FS,4,num_6,32,num_8,0.933466953691,,,2017_Oct_12_1716,60.0031754984,MAFE4ImagesEEG,001,101922,
AFNE01.JPG,AFNE01.JPG,AFNE01.JPG,AFNE01.JPG,AFNE01.JPG,AFNE01.JPG,,,,,,,,,,,,,,,,,,,,,0,3,3,4,,,AFSA10.jpg,AFSA18.jpg,AFNE13.jpg,AFNE12.jpg,AFSA10.jpg,FS,4,num_8,16,num_8,0.800157419289,,,2017_Oct_12_1716,60.0031754984,MAFE4ImagesEEG,001,101922,
AFNE01.JPG,AFNE01.JPG,AFNE01.JPG,AFNE01.JPG,AFNE01.JPG,AFNE01.JPG,,,,,,,,,,,,,,,,,,,,,0,4,4,3,,,AFNE11.jpg,AFSA11.jpg,AFNE14.jpg,AFSA03.jpg,AFNE14.jpg,FN,3,num_2,16,num_2,0.633522345452,,,2017_Oct_12_1716,60.0031754984,MAFE4ImagesEEG,001,101922,
AFNE01.JPG,AFNE01.JPG,AFNE01.JPG,AFNE01.JPG,AFNE01.JPG,AFNE01.JPG,,,,,,,,,,,,,,,,,,,,,0,5,5,6,,,AFSA19.jpg,AFNE17.jpg,AFNE20.jpg,AFSA12.jpg,AFSA12.jpg,FS,4,num_4,32,num_8,0.833454091917,,,2017_Oct_12_1716,60.0031754984,MAFE4ImagesEEG,001,101922,
AFNE01.JPG,AFNE01.JPG,AFNE01.JPG,AFNE01.JPG,AFNE01.JPG,AFNE01.JPG,,,,,,,,,,,,,,,,,,,,,0,6,6,1,,,AFNE14.jpg,AFNE03.jpg,AFSA03.jpg,AFSA15.jpg,AFNE14.jpg,FN,3,num_8,32,num_4,0.550133764627,,,2017_Oct_12_1716,60.0031754984,MAFE4ImagesEEG,001,101922,
AFNE01.JPG,AFNE01.JPG,AFNE01.JPG,AFNE01.JPG,AFNE01.JPG,AFNE01.JPG,,,,,,,,,,,,,,,,,,,,,0,7,7,9,,,AFNE14.jpg,AFSA01.jpg,AFNE15.jpg,AFSA04.jpg,AFSA04.jpg,FS,4,num_4,32,num_2,0.899930046522,,,2017_Oct_12_1716,60.0031754984,MAFE4ImagesEEG,001,101922,
AFNE01.JPG,AFNE01.JPG,AFNE01.JPG,AFNE01.JPG,AFNE01.JPG,AFNE01.JPG,,,,,,,,,,,,,,,,,,,,,0,8,8,5,,,AFSA16.jpg,AFNE12.jpg,AFSA01.jpg,AFNE01.jpg,AFNE01.jpg,FN,3,num_4,32,num_6,0.850278835394,,,2017_Oct_12_1716,60.0031754984,MAFE4ImagesEEG,001,101922,
AFNE01.JPG,AFNE01.JPG,AFNE01.JPG,AFNE01.JPG,AFNE01.JPG,AFNE01.JPG,,,,,,,,,,,,,,,,,,,,,0,9,9,0,,,AFNE03.jpg,AFSA12.jpg,AFNE11.jpg,AFSA16.jpg,AFSA16.jpg,FS,4,num_4,16,num_4,0.61678099446,,,2017_Oct_12_1716,60.0031754984,MAFE4ImagesEEG,001,101922,
AFNE01.JPG,AFNE01.JPG,AFNE01.JPG,AFNE01.JPG,AFNE01.JPG,AFNE01.JPG,,,,,,,,,,,,,,,,,,,,,1,0,10,5,,,AFSA04.jpg,AFSA16.jpg,AFNE08.jpg,AFNE07.jpg,AFNE07.jpg,FN,3,num_4,32,num_8,0.883493077941,,,2017_Oct_12_1716,60.0031754984,MAFE4ImagesEEG,001,101922,
AFNE01.JPG,AFNE01.JPG,AFNE01.JPG,AFNE01.JPG,AFNE01.JPG,AFNE01.JPG,,,,,,,,,,,,,,,,,,,,,1,1,11,4,,,AFNE20.jpg,AFSA14.jpg,AFSA19.jpg,AFNE09.jpg,AFSA19.jpg,FS,4,num_2,16,num_2,0.733508906444,,,2017_Oct_12_1716,60.0031754984,MAFE4ImagesEEG,001,101922,
AFNE01.JPG,AFNE01.JPG,AFNE01.JPG,AFNE01.JPG,AFNE01.JPG,AFNE01.JPG,,,,,,,,,,,,,,,,,,,,,1,2,12,8,,,AFSA02.jpg,AFNE16.jpg,AFNE03.jpg,AFSA15.jpg,AFNE03.jpg,FN,3,num_2,16,num_2,0.433468076284,,,2017_Oct_12_1716,60.0031754984,MAFE4ImagesEEG,001,101922,
AFNE01.JPG,AFNE01.JPG,AFNE01.JPG,AFNE01.JPG,AFNE01.JPG,AFNE01.JPG,,,,,,,,,,,,,,,,,,,,,1,3,13,7,,,AFSA06.jpg,AFSA11.jpg,AFNE09.jpg,AFNE19.jpg,AFSA11.jpg,FS,4,num_6,16,num_6,0.733463361394,,,2017_Oct_12_1716,60.0031754984,MAFE4ImagesEEG,001,101922,
AFNE01.JPG,AFNE01.JPG,AFNE01.JPG,AFNE01.JPG,AFNE01.JPG,AFNE01.JPG,,,,,,,,,,,,,,,,,,,,,1,4,14,9,,,AFNE19.jpg,AFNE13.jpg,AFSA02.jpg,AFSA09.jpg,AFNE19.jpg,FN,3,num_8,16,num_8,1.00010231615,,,2017_Oct_12_1716,60.0031754984,MAFE4ImagesEEG,001,101922,
AFNE01.JPG,AFNE01.JPG,AFNE01.JPG,AFNE01.JPG,AFNE01.JPG,AFNE01.JPG,,,,,,,,,,,,,,,,,,,,,1,5,15,2,,,AFNE06.jpg,AFNE04.jpg,AFSA20.jpg,AFSA02.jpg,AFSA20.jpg,FS,4,num_2,32,num_4,0.850085108308,,,2017_Oct_12_1716,60.0031754984,MAFE4ImagesEEG,001,101922,
AFNE01.JPG,AFNE01.JPG,AFNE01.JPG,AFNE01.JPG,AFNE01.JPG,AFNE01.JPG,,,,,,,,,,,,,,,,,,,,,1,6,16,6,,,AFSA12.jpg,AFSA08.jpg,AFNE14.jpg,AFNE07.jpg,AFNE07.jpg,FN,3,num_4,32,num_8,0.950113365543,,,2017_Oct_12_1716,60.0031754984,MAFE4ImagesEEG,001,101922,
AFNE01.JPG,AFNE01.JPG,AFNE01.JPG,AFNE01.JPG,AFNE01.JPG,AFNE01.JPG,,,,,,,,,,,,,,,,,,,,,1,7,17,0,,,AFNE11.jpg,AFSA17.jpg,AFSA10.jpg,AFNE18.jpg,AFSA17.jpg,FS,4,num_6,32,num_2,0.416803702828,,,2017_Oct_12_1716,60.0031754984,MAFE4ImagesEEG,001,101922,
AFNE01.JPG,AFNE01.JPG,AFNE01.JPG,AFNE01.JPG,AFNE01.JPG,AFNE01.JPG,,,,,,,,,,,,,,,,,,,,,1,8,18,1,,,AFSA04.jpg,AFNE06.jpg,AFSA07.jpg,AFNE15.jpg,AFSA04.jpg,FS,4,num_8,32,num_4,0.416837701341,,,2017_Oct_12_1716,60.0031754984,MAFE4ImagesEEG,001,101922,
AFNE01.JPG,AFNE01.JPG,AFNE01.JPG,AFNE01.JPG,AFNE01.JPG,AFNE01.JPG,,,,,,,,,,,,,,,,,,,,,1,9,19,3,,,AFNE12.jpg,AFNE03.jpg,AFSA01.jpg,AFSA09.jpg,AFSA01.jpg,FS,4,num_2,32,num_8,0.566793006263,,,2017_Oct_12_1716,60.0031754984,MAFE4ImagesEEG,001,101922,
AFNE01.JPG,AFNE01.JPG,AFNE01.JPG,AFNE01.JPG,AFNE01.JPG,AFNE01.JPG,,,,,,,,,,,,,,,,,,,,,2,0,20,1,,,AFNE13.jpg,AFNE06.jpg,AFSA04.jpg,AFSA15.jpg,AFNE06.jpg,FN,3,num_6,32,num_2,0.51678000018,,,2017_Oct_12_1716,60.0031754984,MAFE4ImagesEEG,001,101922,
AFNE01.JPG,AFNE01.JPG,AFNE01.JPG,AFNE01.JPG,AFNE01.JPG,AFNE01.JPG,,,,,,,,,,,,,,,,,,,,,2,1,21,2,,,AFSA06.jpg,AFSA02.jpg,AFNE20.jpg,AFNE05.jpg,AFNE20.jpg,FN,3,num_2,16,num_2,1.01676251984,,,2017_Oct_12_1716,60.0031754984,MAFE4ImagesEEG,001,101922,
AFNE01.JPG,AFNE01.JPG,AFNE01.JPG,AFNE01.JPG,AFNE01.JPG,AFNE01.JPG,,,,,,,,,,,,,,,,,,,,,2,2,22,3,,,AFNE01.jpg,AFSA19.jpg,AFNE12.jpg,AFSA05.jpg,AFNE01.jpg,FN,3,num_8,32,num_6,0.816784266033,,,2017_Oct_12_1716,60.0031754984,MAFE4ImagesEEG,001,101922,
AFNE01.JPG,AFNE01.JPG,AFNE01.JPG,AFNE01.JPG,AFNE01.JPG,AFNE01.JPG,,,,,,,,,,,,,,,,,,,,,2,3,23,7,,,AFNE17.jpg,AFSA08.jpg,AFNE18.jpg,AFSA01.jpg,AFSA01.jpg,FS,4,num_4,32,num_8,0.633507591439,,,2017_Oct_12_1716,60.0031754984,MAFE4ImagesEEG,001,101922,
AFNE01.JPG,AFNE01.JPG,AFNE01.JPG,AFNE01.JPG,AFNE01.JPG,AFNE01.JPG,,,,,,,,,,,,,,,,,,,,,2,4,24,6,,,AFSA02.jpg,AFSA17.jpg,AFNE08.jpg,AFNE18.jpg,AFSA02.jpg,FS,4,num_8,32,num_6,0.866780272801,,,2017_Oct_12_1716,60.0031754984,MAFE4ImagesEEG,001,101922,
AFNE01.JPG,AFNE01.JPG,AFNE01.JPG,AFNE01.JPG,AFNE01.JPG,AFNE01.JPG,,,,,,,,,,,,,,,,,,,,,2,5,25,0,,,AFSA04.jpg,AFSA15.jpg,AFNE18.jpg,AFNE10.jpg,AFSA04.jpg,FS,4,num_8,32,num_2,0.750078661484,,,2017_Oct_12_1716,60.0031754984,MAFE4ImagesEEG,001,101922,
AFNE01.JPG,AFNE01.JPG,AFNE01.JPG,AFNE01.JPG,AFNE01.JPG,AFNE01.JPG,,,,,,,,,,,,,,,,,,,,,2,6,26,4,,,AFNE16.jpg,AFSA19.jpg,AFNE15.jpg,AFSA20.jpg,AFSA20.jpg,FS,4,num_4,32,num_6,0.950105667929,,,2017_Oct_12_1716,60.0031754984,MAFE4ImagesEEG,001,101922,
AFNE01.JPG,AFNE01.JPG,AFNE01.JPG,AFNE01.JPG,AFNE01.JPG,AFNE01.JPG,,,,,,,,,,,,,,,,,,,,,2,7,27,5,,,AFNE14.jpg,AFNE13.jpg,AFSA15.jpg,AFSA06.jpg,AFNE14.jpg,FN,3,num_8,32,num_4,0.933459897409,,,2017_Oct_12_1716,60.0031754984,MAFE4ImagesEEG,001,101922,
AFNE01.JPG,AFNE01.JPG,AFNE01.JPG,AFNE01.JPG,AFNE01.JPG,AFNE01.JPG,,,,,,,,,,,,,,,,,,,,,2,8,28,9,,,AFSA12.jpg,AFNE12.jpg,AFNE04.jpg,AFSA01.jpg,AFNE04.jpg,FN,3,num_2,32,num_8,0.999771632953,,,2017_Oct_12_1716,60.0031754984,MAFE4ImagesEEG,001,101922,
AFNE01.JPG,AFNE01.JPG,AFNE01.JPG,AFNE01.JPG,AFNE01.JPG,AFNE01.JPG,,,,,,,,,,,,,,,,,,,,,2,9,29,8,,,AFSA06.jpg,AFSA02.jpg,AFNE09.jpg,AFNE10.jpg,AFSA02.jpg,FS,4,num_6,32,num_2,0.900031079655,,,2017_Oct_12_1716,60.0031754984,MAFE4ImagesEEG,001,101922,
AFNE01.JPG,AFNE01.JPG,AFNE01.JPG,AFNE01.JPG,AFNE01.JPG,AFNE01.JPG,,,,,,,,,,,,,,,,,,,,,3,0,30,1,,,AFSA17.jpg,AFSA14.jpg,AFNE05.jpg,AFNE15.jpg,AFSA17.jpg,FS,4,num_8,32,num_4,1.51676300098,,,2017_Oct_12_1716,60.0031754984,MAFE4ImagesEEG,001,101922,
AFNE01.JPG,AFNE01.JPG,AFNE01.JPG,AFNE01.JPG,AFNE01.JPG,AFNE01.JPG,,,,,,,,,,,,,,,,,,,,,3,1,31,3,,,AFNE02.jpg,AFSA02.jpg,AFNE19.jpg,AFSA04.jpg,AFSA02.jpg,FS,4,num_6,16,num_6,1.2836696133,,,2017_Oct_12_1716,60.0031754984,MAFE4ImagesEEG,001,101922,
AFNE01.JPG,AFNE01.JPG,AFNE01.JPG,AFNE01.JPG,AFNE01.JPG,AFNE01.JPG,,,,,,,,,,,,,,,,,,,,,3,2,32,0,,,AFNE06.jpg,AFNE10.jpg,AFSA13.jpg,AFSA18.jpg,AFSA18.jpg,FS,4,num_4,16,num_4,1.98334556958,,,2017_Oct_12_1716,60.0031754984,MAFE4ImagesEEG,001,101922,
AFNE01.JPG,AFNE01.JPG,AFNE01.JPG,AFNE01.JPG,AFNE01.JPG,AFNE01.JPG,,,,,,,,,,,,,,,,,,,,,3,3,33,2,,,AFSA12.jpg,AFSA02.jpg,AFNE08.jpg,AFNE12.jpg,AFNE08.jpg,FN,3,num_2,16,num_2,1.61670754489,,,2017_Oct_12_1716,60.0031754984,MAFE4ImagesEEG,001,101922,
AFNE01.JPG,AFNE01.JPG,AFNE01.JPG,AFNE01.JPG,AFNE01.JPG,AFNE01.JPG,,,,,,,,,,,,,,,,,,,,,3,4,34,6,,,AFNE04.jpg,AFSA08.jpg,AFNE16.jpg,AFSA10.jpg,AFSA08.jpg,FS,4,num_6,32,num_8,0.983491506311,,,2017_Oct_12_1716,60.0031754984,MAFE4ImagesEEG,001,101922,
AFNE01.JPG,AFNE01.JPG,AFNE01.JPG,AFNE01.JPG,AFNE01.JPG,AFNE01.JPG,,,,,,,,,,,,,,,,,,,,,3,5,35,7,,,AFSA02.jpg,AFSA04.jpg,AFNE14.jpg,AFNE20.jpg,AFNE14.jpg,FN,3,num_2,32,num_6,0.45025048207,,,2017_Oct_12_1716,60.0031754984,MAFE4ImagesEEG,001,101922,
AFNE01.JPG,AFNE01.JPG,AFNE01.JPG,AFNE01.JPG,AFNE01.JPG,AFNE01.JPG,,,,,,,,,,,,,,,,,,,,,3,6,36,5,,,AFNE16.jpg,AFNE05.jpg,AFSA14.jpg,AFSA01.jpg,AFNE05.jpg,FN,3,num_6,32,num_8,1.25008074637,,,2017_Oct_12_1716,60.0031754984,MAFE4ImagesEEG,001,101922,
AFNE01.JPG,AFNE01.JPG,AFNE01.JPG,AFNE01.JPG,AFNE01.JPG,AFNE01.JPG,,,,,,,,,,,,,,,,,,,,,3,7,37,4,,,AFSA20.jpg,AFNE18.jpg,AFSA04.jpg,AFNE16.jpg,AFNE18.jpg,FN,3,num_6,16,num_6,0.76673694083,,,2017_Oct_12_1716,60.0031754984,MAFE4ImagesEEG,001,101922,
AFNE01.JPG,AFNE01.JPG,AFNE01.JPG,AFNE01.JPG,AFNE01.JPG,AFNE01.JPG,,,,,,,,,,,,,,,,,,,,,3,8,38,9,,,AFNE12.jpg,AFNE13.jpg,AFSA09.jpg,AFSA16.jpg,AFNE13.jpg,FN,3,num_6,32,num_4,0.666772831581,,,2017_Oct_12_1716,60.0031754984,MAFE4ImagesEEG,001,101922,
