IPosition2,IPosition3,IPosition1,IPosition6,IPosition4,IPosition5,TrialsM1.thisRepN,TrialsM1.thisTrialN,TrialsM1.thisN,TrialsM1.thisIndex,TrialsF1.thisRepN,TrialsF1.thisTrialN,TrialsF1.thisN,TrialsF1.thisIndex,TrialsM2.thisRepN,TrialsM2.thisTrialN,TrialsM2.thisN,TrialsM2.thisIndex,TrialsF2.thisRepN,TrialsF2.thisTrialN,TrialsF2.thisN,TrialsF2.thisIndex,TrialsM3.thisRepN,TrialsM3.thisTrialN,TrialsM3.thisN,TrialsM3.thisIndex,TrialsF3.thisRepN,TrialsF3.thisTrialN,TrialsF3.thisN,TrialsF3.thisIndex,InstrKey_resp.keys,InstrKey_resp.rt,Image0 _Position,Image1 _Position,Image2 _Position,Image3 _Position,Center_image,condition,code,correct_answer,accuracy,Key_Resp.keys,Key_Resp.rt,BreakKey_resp.keys,BreakKey_resp.rt,date,frameRate,expName,session,participant,
,,,,,,,,,,,,,,,,,,,,,,,,,,,,,,space,12.9161666871,,,,,,,,,,,,,,2017_Sep_28_1438,60.0059278414,MAFE4ImagesEEG,001,101920,
AMSA21.JPG,AMNE22.JPG,AMNE21.JPG,AMSA23.JPG,AMSA22.JPG,AMNE23.JPG,0,0,0,1,,,,,,,,,,,,,,,,,,,,,,,AMSA20.jpg,AMNE19.jpg,AMSA18.jpg,AMNE17.jpg,AMSA20.jpg,MS,2,num_8,32,num_6,1.40010629315,,,2017_Sep_28_1438,60.0059278414,MAFE4ImagesEEG,001,101920,
AFSA25.JPG,AFNE24.JPG,AFSA24.JPG,AFNE21.JPG,AFSA21.JPG,AFNE25.JPG,0,1,1,2,,,,,,,,,,,,,,,,,,,,,,,AMSA14.jpg,AMNE04.jpg,AMSA10.jpg,AMNE11.jpg,AMSA10.jpg,MS,2,num_2,32,num_8,1.23341214971,,,2017_Sep_28_1438,60.0059278414,MAFE4ImagesEEG,001,101920,
AMSA25.JPG,AMNE24.JPG,AMSA24.JPG,AMNE26.JPG,AMSA21.JPG,AMNE25.JPG,0,2,2,3,,,,,,,,,,,,,,,,,,,,,,,AMNE08.jpg,AMNE03.jpg,AMSA16.jpg,AMSA03.jpg,AMSA16.jpg,MS,2,num_2,16,num_2,2.8282686412,,,2017_Sep_28_1438,60.0059278414,MAFE4ImagesEEG,001,101920,
AMNE23.JPG,AMNE24.JPG,AMNE22.JPG,AMSA24.JPG,AMSA22.JPG,AMSA23.JPG,0,3,3,9,,,,,,,,,,,,,,,,,,,,,,,AMNE06.jpg,AMSA13.jpg,AMNE02.jpg,AMSA10.jpg,AMNE02.jpg,MN,1,num_2,32,num_6,1.53347238462,,,2017_Sep_28_1438,60.0059278414,MAFE4ImagesEEG,001,101920,
AFSA21.JPG,AFNE22.JPG,AFNE21.JPG,AFSA23.JPG,AFSA22.JPG,AFNE23.JPG,0,4,4,0,,,,,,,,,,,,,,,,,,,,,,,AMSA05.jpg,AMNE08.jpg,AMSA13.jpg,AMNE11.jpg,AMNE11.jpg,MN,1,num_4,16,num_4,1.08346285869,,,2017_Sep_28_1438,60.0059278414,MAFE4ImagesEEG,001,101920,
AFNE23.JPG,AFNE24.JPG,AFNE22.JPG,AFSA24.JPG,AFSA22.JPG,AFSA23.JPG,0,5,5,8,,,,,,,,,,,,,,,,,,,,,,,AMNE02.jpg,AMSA13.jpg,AMNE17.jpg,AMSA02.jpg,AMSA02.jpg,MS,2,num_4,32,num_6,1.60011084762,,,2017_Sep_28_1438,60.0059278414,MAFE4ImagesEEG,001,101920,
AMNE22.JPG,AMSA24.JPG,AMSA22.JPG,AMNE25.JPG,AMNE24.JPG,AMSA25.JPG,0,6,6,7,,,,,,,,,,,,,,,,,,,,,,,AMSA10.jpg,AMNE03.jpg,AMSA09.jpg,AMNE06.jpg,AMSA10.jpg,MS,2,num_8,32,num_4,1.08347440528,,,2017_Sep_28_1438,60.0059278414,MAFE4ImagesEEG,001,101920,
AFNE22.JPG,AFSA24.JPG,AFSA22.JPG,AFNE25.JPG,AFNE24.JPG,AFSA25.JPG,0,7,7,6,,,,,,,,,,,,,,,,,,,,,,,AMNE14.jpg,AMSA01.jpg,AMNE15.jpg,AMSA12.jpg,AMSA12.jpg,MS,2,num_4,16,num_4,0.816771409533,,,2017_Sep_28_1438,60.0059278414,MAFE4ImagesEEG,001,101920,
AMSA21.JPG,AMNE23.JPG,AMNE21.JPG,AMSA25.JPG,AMNE25.JPG,AMSA23.JPG,0,8,8,5,,,,,,,,,,,,,,,,,,,,,,,AMNE20.jpg,AMSA03.jpg,AMNE12.jpg,AMSA10.jpg,AMNE20.jpg,MN,1,num_8,32,num_6,0.950107993034,,,2017_Sep_28_1438,60.0059278414,MAFE4ImagesEEG,001,101920,
AFSA21.JPG,AFNE23.JPG,AFNE21.JPG,AFSA25.JPG,AFNE25.JPG,AFSA23.JPG,0,9,9,4,,,,,,,,,,,,,,,,,,,,,,,AMSA10.jpg,AMSA05.jpg,AMNE19.jpg,AMNE12.jpg,AMSA10.jpg,MS,2,num_8,32,num_6,1.08334450575,,,2017_Sep_28_1438,60.0059278414,MAFE4ImagesEEG,001,101920,
AFSA21.JPG,AFNE23.JPG,AFNE21.JPG,AFSA25.JPG,AFNE25.JPG,AFSA23.JPG,,,,,0,0,0,4,,,,,,,,,,,,,,,,,,,AFNE07.jpg,AFSA04.jpg,AFSA12.jpg,AFNE19.jpg,AFNE19.jpg,FN,3,num_4,32,num_8,1.16673808469,,,2017_Sep_28_1438,60.0059278414,MAFE4ImagesEEG,001,101920,
AFSA21.JPG,AFNE22.JPG,AFNE21.JPG,AFSA23.JPG,AFSA22.JPG,AFNE23.JPG,,,,,0,1,1,0,,,,,,,,,,,,,,,,,,,AFSA18.jpg,AFNE05.jpg,AFSA03.jpg,AFNE07.jpg,AFSA18.jpg,FS,4,num_8,32,num_2,1.58328388596,,,2017_Sep_28_1438,60.0059278414,MAFE4ImagesEEG,001,101920,
AMSA21.JPG,AMNE22.JPG,AMNE21.JPG,AMSA23.JPG,AMSA22.JPG,AMNE23.JPG,,,,,0,2,2,1,,,,,,,,,,,,,,,,,,,AFNE01.jpg,AFSA03.jpg,AFNE08.jpg,AFSA08.jpg,AFNE01.jpg,FN,3,num_8,16,num_8,1.6833944128,,,2017_Sep_28_1438,60.0059278414,MAFE4ImagesEEG,001,101920,
AMNE23.JPG,AMNE24.JPG,AMNE22.JPG,AMSA24.JPG,AMSA22.JPG,AMSA23.JPG,,,,,0,3,3,9,,,,,,,,,,,,,,,,,,,AFSA19.jpg,AFNE01.jpg,AFNE18.jpg,AFSA08.jpg,AFNE01.jpg,FN,3,num_6,16,num_6,1.86670767859,,,2017_Sep_28_1438,60.0059278414,MAFE4ImagesEEG,001,101920,
AMSA25.JPG,AMNE24.JPG,AMSA24.JPG,AMNE26.JPG,AMSA21.JPG,AMNE25.JPG,,,,,0,4,4,3,,,,,,,,,,,,,,,,,,,AFNE10.jpg,AFSA18.jpg,AFSA13.jpg,AFNE13.jpg,AFNE10.jpg,FN,3,num_8,32,num_4,0.750177529408,,,2017_Sep_28_1438,60.0059278414,MAFE4ImagesEEG,001,101920,
AFSA25.JPG,AFNE24.JPG,AFSA24.JPG,AFNE21.JPG,AFSA21.JPG,AFNE25.JPG,,,,,0,5,5,2,,,,,,,,,,,,,,,,,,,AFSA12.jpg,AFNE15.jpg,AFSA18.jpg,AFNE13.jpg,AFSA18.jpg,FS,4,num_2,32,num_8,0.900151517417,,,2017_Sep_28_1438,60.0059278414,MAFE4ImagesEEG,001,101920,
AMSA21.JPG,AMNE23.JPG,AMNE21.JPG,AMSA25.JPG,AMNE25.JPG,AMSA23.JPG,,,,,0,6,6,5,,,,,,,,,,,,,,,,,,,AFSA01.jpg,AFSA18.jpg,AFNE08.jpg,AFNE10.jpg,AFNE10.jpg,FN,3,num_4,16,num_4,1.05010658177,,,2017_Sep_28_1438,60.0059278414,MAFE4ImagesEEG,001,101920,
AFNE22.JPG,AFSA24.JPG,AFSA22.JPG,AFNE25.JPG,AFNE24.JPG,AFSA25.JPG,,,,,0,7,7,6,,,,,,,,,,,,,,,,,,,AFNE11.jpg,AFSA08.jpg,AFSA06.jpg,AFNE03.jpg,AFSA08.jpg,FS,4,num_6,32,num_2,0.916800147796,,,2017_Sep_28_1438,60.0059278414,MAFE4ImagesEEG,001,101920,
AFNE23.JPG,AFNE24.JPG,AFNE22.JPG,AFSA24.JPG,AFSA22.JPG,AFSA23.JPG,,,,,0,8,8,8,,,,,,,,,,,,,,,,,,,AFNE01.jpg,AFSA12.jpg,AFNE20.jpg,AFSA18.jpg,AFSA18.jpg,FS,4,num_4,16,num_4,0.550210822141,,,2017_Sep_28_1438,60.0059278414,MAFE4ImagesEEG,001,101920,
AMNE22.JPG,AMSA24.JPG,AMSA22.JPG,AMNE25.JPG,AMNE24.JPG,AMSA25.JPG,,,,,0,9,9,7,,,,,,,,,,,,,,,,,,,AFNE12.jpg,AFSA04.jpg,AFNE18.jpg,AFSA01.jpg,AFNE18.jpg,FN,3,num_2,16,num_2,2.41676967754,,,2017_Sep_28_1438,60.0059278414,MAFE4ImagesEEG,001,101920,
AMSA21.JPG,AMNE22.JPG,AMNE21.JPG,AMSA23.JPG,AMSA22.JPG,AMNE23.JPG,,,,,,,,,0,0,0,1,,,,,,,,,,,,,,,AMSA02.jpg,AMNE02.jpg,AMSA07.jpg,AMNE08.jpg,AMNE08.jpg,MN,1,num_4,32,num_6,0.8834788315,,,2017_Sep_28_1438,60.0059278414,MAFE4ImagesEEG,001,101920,
AMNE22.JPG,AMSA24.JPG,AMSA22.JPG,AMNE25.JPG,AMNE24.JPG,AMSA25.JPG,,,,,,,,,0,1,1,7,,,,,,,,,,,,,,,AMNE15.jpg,AMSA01.jpg,AMNE08.jpg,AMSA03.jpg,AMNE15.jpg,MN,1,num_8,16,num_8,0.766786388063,,,2017_Sep_28_1438,60.0059278414,MAFE4ImagesEEG,001,101920,
AMSA21.JPG,AMNE23.JPG,AMNE21.JPG,AMSA25.JPG,AMNE25.JPG,AMSA23.JPG,,,,,,,,,0,2,2,5,,,,,,,,,,,,,,,AMNE11.jpg,AMNE14.jpg,AMSA06.jpg,AMSA09.jpg,AMNE11.jpg,MN,1,num_8,16,num_8,0.816821124172,,,2017_Sep_28_1438,60.0059278414,MAFE4ImagesEEG,001,101920,
AFNE23.JPG,AFNE24.JPG,AFNE22.JPG,AFSA24.JPG,AFSA22.JPG,AFSA23.JPG,,,,,,,,,0,3,3,8,,,,,,,,,,,,,,,AMSA13.jpg,AMNE02.jpg,AMSA20.jpg,AMNE11.jpg,AMNE11.jpg,MN,1,num_4,32,num_6,0.700143434748,,,2017_Sep_28_1438,60.0059278414,MAFE4ImagesEEG,001,101920,
AMNE23.JPG,AMNE24.JPG,AMNE22.JPG,AMSA24.JPG,AMSA22.JPG,AMSA23.JPG,,,,,,,,,0,4,4,9,,,,,,,,,,,,,,,AMNE13.jpg,AMSA11.jpg,AMSA13.jpg,AMNE05.jpg,AMNE13.jpg,MN,1,num_8,16,num_8,0.350111970212,,,2017_Sep_28_1438,60.0059278414,MAFE4ImagesEEG,001,101920,
AFSA21.JPG,AFNE22.JPG,AFNE21.JPG,AFSA23.JPG,AFSA22.JPG,AFNE23.JPG,,,,,,,,,0,5,5,0,,,,,,,,,,,,,,,AMNE14.jpg,AMNE16.jpg,AMSA10.jpg,AMSA13.jpg,AMSA13.jpg,MS,2,num_4,32,num_8,0.800136570935,,,2017_Sep_28_1438,60.0059278414,MAFE4ImagesEEG,001,101920,
AFSA21.JPG,AFNE23.JPG,AFNE21.JPG,AFSA25.JPG,AFNE25.JPG,AFSA23.JPG,,,,,,,,,0,6,6,4,,,,,,,,,,,,,,,AMSA03.jpg,AMSA12.jpg,AMNE20.jpg,AMNE15.jpg,AMSA12.jpg,MS,2,num_6,32,num_2,1.05008412997,,,2017_Sep_28_1438,60.0059278414,MAFE4ImagesEEG,001,101920,
AMSA25.JPG,AMNE24.JPG,AMSA24.JPG,AMNE26.JPG,AMSA21.JPG,AMNE25.JPG,,,,,,,,,0,7,7,3,,,,,,,,,,,,,,,AMNE16.jpg,AMSA13.jpg,AMNE13.jpg,AMSA20.jpg,AMNE16.jpg,MN,1,num_8,32,num_2,1.25007425121,,,2017_Sep_28_1438,60.0059278414,MAFE4ImagesEEG,001,101920,
AFSA25.JPG,AFNE24.JPG,AFSA24.JPG,AFNE21.JPG,AFSA21.JPG,AFNE25.JPG,,,,,,,,,0,8,8,2,,,,,,,,,,,,,,,AMSA19.jpg,AMNE06.jpg,AMNE16.jpg,AMSA13.jpg,AMNE06.jpg,MN,1,num_6,16,num_6,0.93343659013,,,2017_Sep_28_1438,60.0059278414,MAFE4ImagesEEG,001,101920,
AFNE22.JPG,AFSA24.JPG,AFSA22.JPG,AFNE25.JPG,AFNE24.JPG,AFSA25.JPG,,,,,,,,,0,9,9,6,,,,,,,,,,,,,,,AMSA15.jpg,AMSA01.jpg,AMNE03.jpg,AMNE20.jpg,AMSA15.jpg,MS,2,num_8,16,num_8,0.650126339344,,,2017_Sep_28_1438,60.0059278414,MAFE4ImagesEEG,001,101920,
AFNE23.JPG,AFNE24.JPG,AFNE22.JPG,AFSA24.JPG,AFSA22.JPG,AFSA23.JPG,,,,,,,,,,,,,0,0,0,8,,,,,,,,,,,AFNE08.jpg,AFSA16.jpg,AFNE14.jpg,AFSA06.jpg,AFSA16.jpg,FS,4,num_6,32,num_4,1.01678847289,,,2017_Sep_28_1438,60.0059278414,MAFE4ImagesEEG,001,101920,
AFSA21.JPG,AFNE23.JPG,AFNE21.JPG,AFSA25.JPG,AFNE25.JPG,AFSA23.JPG,,,,,,,,,,,,,0,1,1,4,,,,,,,,,,,AFNE05.jpg,AFNE16.jpg,AFSA19.jpg,AFSA01.jpg,AFSA01.jpg,FS,4,num_4,16,num_4,0.783469016838,,,2017_Sep_28_1438,60.0059278414,MAFE4ImagesEEG,001,101920,
AMSA21.JPG,AMNE22.JPG,AMNE21.JPG,AMSA23.JPG,AMSA22.JPG,AMNE23.JPG,,,,,,,,,,,,,0,2,2,1,,,,,,,,,,,AFNE05.jpg,AFSA09.jpg,AFSA04.jpg,AFNE07.jpg,AFNE07.jpg,FN,3,num_4,16,num_4,1.75006302533,,,2017_Sep_28_1438,60.0059278414,MAFE4ImagesEEG,001,101920,
AMSA25.JPG,AMNE24.JPG,AMSA24.JPG,AMNE26.JPG,AMSA21.JPG,AMNE25.JPG,,,,,,,,,,,,,0,3,3,3,,,,,,,,,,,AFSA19.jpg,AFNE04.jpg,AFSA14.jpg,AFNE13.jpg,AFNE04.jpg,FN,3,num_6,16,num_6,0.433501379506,,,2017_Sep_28_1438,60.0059278414,MAFE4ImagesEEG,001,101920,
AMNE23.JPG,AMNE24.JPG,AMNE22.JPG,AMSA24.JPG,AMSA22.JPG,AMSA23.JPG,,,,,,,,,,,,,0,4,4,9,,,,,,,,,,,AFSA12.jpg,AFNE11.jpg,AFNE18.jpg,AFSA10.jpg,AFSA10.jpg,FS,4,num_4,16,num_4,0.800169927825,,,2017_Sep_28_1438,60.0059278414,MAFE4ImagesEEG,001,101920,
AFNE22.JPG,AFSA24.JPG,AFSA22.JPG,AFNE25.JPG,AFNE24.JPG,AFSA25.JPG,,,,,,,,,,,,,0,5,5,6,,,,,,,,,,,AFNE05.jpg,AFSA20.jpg,AFSA03.jpg,AFNE16.jpg,AFSA20.jpg,FS,4,num_6,32,num_8,0.816785842821,,,2017_Sep_28_1438,60.0059278414,MAFE4ImagesEEG,001,101920,
AFSA21.JPG,AFNE22.JPG,AFNE21.JPG,AFSA23.JPG,AFSA22.JPG,AFNE23.JPG,,,,,,,,,,,,,0,6,6,0,,,,,,,,,,,AFNE03.jpg,AFSA19.jpg,AFSA13.jpg,AFNE02.jpg,AFSA19.jpg,FS,4,num_6,32,num_4,0.666803515574,,,2017_Sep_28_1438,60.0059278414,MAFE4ImagesEEG,001,101920,
AMNE22.JPG,AMSA24.JPG,AMSA22.JPG,AMNE25.JPG,AMNE24.JPG,AMSA25.JPG,,,,,,,,,,,,,0,7,7,7,,,,,,,,,,,AFNE08.jpg,AFSA02.jpg,AFSA15.jpg,AFNE17.jpg,AFNE17.jpg,FN,3,num_4,32,num_6,0.616776477196,,,2017_Sep_28_1438,60.0059278414,MAFE4ImagesEEG,001,101920,
AFSA25.JPG,AFNE24.JPG,AFSA24.JPG,AFNE21.JPG,AFSA21.JPG,AFNE25.JPG,,,,,,,,,,,,,0,8,8,2,,,,,,,,,,,AFNE08.jpg,AFSA02.jpg,AFSA12.jpg,AFNE07.jpg,AFNE08.jpg,FN,3,num_8,32,num_4,0.750161171658,,,2017_Sep_28_1438,60.0059278414,MAFE4ImagesEEG,001,101920,
AMSA21.JPG,AMNE23.JPG,AMNE21.JPG,AMSA25.JPG,AMNE25.JPG,AMSA23.JPG,,,,,,,,,,,,,0,9,9,5,,,,,,,,,,,AFSA07.jpg,AFNE14.jpg,AFSA12.jpg,AFNE07.jpg,AFSA07.jpg,FS,4,num_8,16,num_8,1.21675421786,,,2017_Sep_28_1438,60.0059278414,MAFE4ImagesEEG,001,101920,
AMSA21.JPG,AMNE22.JPG,AMNE21.JPG,AMSA23.JPG,AMSA22.JPG,AMNE23.JPG,,,,,,,,,,,,,,,,,0,0,0,1,,,,,,,AMNE13.jpg,AMSA01.jpg,AMNE17.jpg,AMSA06.jpg,AMSA01.jpg,MS,2,num_6,16,num_6,1.38342302281,,,2017_Sep_28_1438,60.0059278414,MAFE4ImagesEEG,001,101920,
AFSA21.JPG,AFNE22.JPG,AFNE21.JPG,AFSA23.JPG,AFSA22.JPG,AFNE23.JPG,,,,,,,,,,,,,,,,,0,1,1,0,,,,,,,AMNE18.jpg,AMSA10.jpg,AMNE15.jpg,AMSA20.jpg,AMNE18.jpg,MN,1,num_8,16,num_8,0.88345990784,,,2017_Sep_28_1438,60.0059278414,MAFE4ImagesEEG,001,101920,
AFNE22.JPG,AFSA24.JPG,AFSA22.JPG,AFNE25.JPG,AFNE24.JPG,AFSA25.JPG,,,,,,,,,,,,,,,,,0,2,2,6,,,,,,,AMSA01.jpg,AMNE10.jpg,AMSA17.jpg,AMNE19.jpg,AMSA17.jpg,MS,2,num_2,16,num_2,0.800153890857,,,2017_Sep_28_1438,60.0059278414,MAFE4ImagesEEG,001,101920,
AMSA25.JPG,AMNE24.JPG,AMSA24.JPG,AMNE26.JPG,AMSA21.JPG,AMNE25.JPG,,,,,,,,,,,,,,,,,0,3,3,3,,,,,,,AMNE18.jpg,AMNE06.jpg,AMSA01.jpg,AMSA20.jpg,AMNE18.jpg,MN,1,num_8,32,num_6,0.733462505857,,,2017_Sep_28_1438,60.0059278414,MAFE4ImagesEEG,001,101920,
AFSA21.JPG,AFNE23.JPG,AFNE21.JPG,AFSA25.JPG,AFNE25.JPG,AFSA23.JPG,,,,,,,,,,,,,,,,,0,4,4,4,,,,,,,AMSA12.jpg,AMSA04.jpg,AMNE17.jpg,AMNE09.jpg,AMNE17.jpg,MN,1,num_2,32,num_4,0.716769292601,,,2017_Sep_28_1438,60.0059278414,MAFE4ImagesEEG,001,101920,
AMSA21.JPG,AMNE23.JPG,AMNE21.JPG,AMSA25.JPG,AMNE25.JPG,AMSA23.JPG,,,,,,,,,,,,,,,,,0,5,5,5,,,,,,,AMNE04.jpg,AMNE13.jpg,AMSA09.jpg,AMSA02.jpg,AMSA02.jpg,MS,2,num_4,16,num_4,0.916754923528,,,2017_Sep_28_1438,60.0059278414,MAFE4ImagesEEG,001,101920,
AFNE23.JPG,AFNE24.JPG,AFNE22.JPG,AFSA24.JPG,AFSA22.JPG,AFSA23.JPG,,,,,,,,,,,,,,,,,0,6,6,8,,,,,,,AMSA16.jpg,AMSA15.jpg,AMNE09.jpg,AMNE04.jpg,AMSA16.jpg,MS,2,num_8,16,num_8,0.600144204509,,,2017_Sep_28_1438,60.0059278414,MAFE4ImagesEEG,001,101920,
AFSA25.JPG,AFNE24.JPG,AFSA24.JPG,AFNE21.JPG,AFSA21.JPG,AFNE25.JPG,,,,,,,,,,,,,,,,,0,7,7,2,,,,,,,AMNE16.jpg,AMSA10.jpg,AMSA17.jpg,AMNE06.jpg,AMNE06.jpg,MN,1,num_4,16,num_4,1.13345012529,,,2017_Sep_28_1438,60.0059278414,MAFE4ImagesEEG,001,101920,
AMNE23.JPG,AMNE24.JPG,AMNE22.JPG,AMSA24.JPG,AMSA22.JPG,AMSA23.JPG,,,,,,,,,,,,,,,,,0,8,8,9,,,,,,,AMSA09.jpg,AMNE16.jpg,AMSA19.jpg,AMNE15.jpg,AMSA19.jpg,MS,2,num_2,16,num_2,1.40104221128,,,2017_Sep_28_1438,60.0059278414,MAFE4ImagesEEG,001,101920,
AMNE22.JPG,AMSA24.JPG,AMSA22.JPG,AMNE25.JPG,AMNE24.JPG,AMSA25.JPG,,,,,,,,,,,,,,,,,0,9,9,7,,,,,,,AMSA10.jpg,AMSA19.jpg,AMNE06.jpg,AMNE17.jpg,AMNE17.jpg,MN,1,num_4,16,num_4,0.583562287968,,,2017_Sep_28_1438,60.0059278414,MAFE4ImagesEEG,001,101920,
AFNE22.JPG,AFSA24.JPG,AFSA22.JPG,AFNE25.JPG,AFNE24.JPG,AFSA25.JPG,,,,,,,,,,,,,,,,,,,,,0,0,0,6,,,AFSA11.jpg,AFSA17.jpg,AFNE15.jpg,AFNE17.jpg,AFNE15.jpg,FN,3,num_2,16,num_2,1.48311722965,,,2017_Sep_28_1438,60.0059278414,MAFE4ImagesEEG,001,101920,
AMNE23.JPG,AMNE24.JPG,AMNE22.JPG,AMSA24.JPG,AMSA22.JPG,AMSA23.JPG,,,,,,,,,,,,,,,,,,,,,0,1,1,9,,,AFNE03.jpg,AFNE08.jpg,AFSA13.jpg,AFSA03.jpg,AFSA13.jpg,FS,4,num_2,32,num_8,1.61672996997,,,2017_Sep_28_1438,60.0059278414,MAFE4ImagesEEG,001,101920,
AMSA21.JPG,AMNE23.JPG,AMNE21.JPG,AMSA25.JPG,AMNE25.JPG,AMSA23.JPG,,,,,,,,,,,,,,,,,,,,,0,2,2,5,,,AFNE03.jpg,AFSA01.jpg,AFNE07.jpg,AFSA04.jpg,AFNE07.jpg,FN,3,num_2,16,num_2,1.65038036508,,,2017_Sep_28_1438,60.0059278414,MAFE4ImagesEEG,001,101920,
AMNE22.JPG,AMSA24.JPG,AMSA22.JPG,AMNE25.JPG,AMNE24.JPG,AMSA25.JPG,,,,,,,,,,,,,,,,,,,,,0,3,3,7,,,AFNE10.jpg,AFSA04.jpg,AFNE18.jpg,AFSA10.jpg,AFNE18.jpg,FN,3,num_2,32,num_4,1.03344768769,,,2017_Sep_28_1438,60.0059278414,MAFE4ImagesEEG,001,101920,
AMSA21.JPG,AMNE22.JPG,AMNE21.JPG,AMSA23.JPG,AMSA22.JPG,AMNE23.JPG,,,,,,,,,,,,,,,,,,,,,0,4,4,1,,,AFSA08.jpg,AFNE07.jpg,AFSA03.jpg,AFNE06.jpg,AFNE07.jpg,FN,3,num_6,32,num_4,2.56663878373,,,2017_Sep_28_1438,60.0059278414,MAFE4ImagesEEG,001,101920,
AFSA21.JPG,AFNE23.JPG,AFNE21.JPG,AFSA25.JPG,AFNE25.JPG,AFSA23.JPG,,,,,,,,,,,,,,,,,,,,,0,5,5,4,,,AFNE14.jpg,AFNE10.jpg,AFSA02.jpg,AFSA09.jpg,AFSA02.jpg,FS,4,num_2,16,num_2,2.45002043113,,,2017_Sep_28_1438,60.0059278414,MAFE4ImagesEEG,001,101920,
AFNE23.JPG,AFNE24.JPG,AFNE22.JPG,AFSA24.JPG,AFSA22.JPG,AFSA23.JPG,,,,,,,,,,,,,,,,,,,,,0,6,6,8,,,AFNE14.jpg,AFNE20.jpg,AFSA06.jpg,AFSA15.jpg,AFNE14.jpg,FN,3,num_8,16,num_8,0.733453525172,,,2017_Sep_28_1438,60.0059278414,MAFE4ImagesEEG,001,101920,
AFSA25.JPG,AFNE24.JPG,AFSA24.JPG,AFNE21.JPG,AFSA21.JPG,AFNE25.JPG,,,,,,,,,,,,,,,,,,,,,0,7,7,2,,,AFSA05.jpg,AFSA14.jpg,AFNE16.jpg,AFNE13.jpg,AFSA14.jpg,FS,4,num_6,32,num_8,0.683467220748,,,2017_Sep_28_1438,60.0059278414,MAFE4ImagesEEG,001,101920,
AFSA21.JPG,AFNE22.JPG,AFNE21.JPG,AFSA23.JPG,AFSA22.JPG,AFNE23.JPG,,,,,,,,,,,,,,,,,,,,,0,8,8,0,,,AFSA14.jpg,AFNE05.jpg,AFNE01.jpg,AFSA07.jpg,AFSA14.jpg,FS,4,num_8,16,num_8,0.650089133531,,,2017_Sep_28_1438,60.0059278414,MAFE4ImagesEEG,001,101920,
AMSA25.JPG,AMNE24.JPG,AMSA24.JPG,AMNE26.JPG,AMSA21.JPG,AMNE25.JPG,,,,,,,,,,,,,,,,,,,,,0,9,9,3,,,AFSA12.jpg,AFNE01.jpg,AFSA08.jpg,AFNE09.jpg,AFSA12.jpg,FS,4,num_8,16,num_8,2.216650619,,,2017_Sep_28_1438,60.0059278414,MAFE4ImagesEEG,001,101920,
,,,,,,,,,,,,,,,,,,,,,,,,,,,,,,,,,,,,,,,,,,,space,7.3326143421,2017_Sep_28_1438,60.0059278414,MAFE4ImagesEEG,001,101920,
AFNE01.JPG,AFNE01.JPG,AFNE01.JPG,AFNE01.JPG,AFNE01.JPG,AFNE01.JPG,0,0,0,1,,,,,,,,,,,,,,,,,,,,,,,AMSA04.jpg,AMNE09.jpg,AMSA08.jpg,AMNE06.jpg,AMSA08.jpg,MS,2,num_2,32,num_8,0.550149240124,,,2017_Sep_28_1438,60.0059278414,MAFE4ImagesEEG,001,101920,
AFNE01.JPG,AFNE01.JPG,AFNE01.JPG,AFNE01.JPG,AFNE01.JPG,AFNE01.JPG,0,1,1,0,,,,,,,,,,,,,,,,,,,,,,,AMNE16.jpg,AMNE07.jpg,AMSA08.jpg,AMSA06.jpg,AMSA06.jpg,MS,2,num_4,32,num_6,0.900226570433,,,2017_Sep_28_1438,60.0059278414,MAFE4ImagesEEG,001,101920,
AFNE01.JPG,AFNE01.JPG,AFNE01.JPG,AFNE01.JPG,AFNE01.JPG,AFNE01.JPG,0,2,2,4,,,,,,,,,,,,,,,,,,,,,,,AMNE08.jpg,AMSA03.jpg,AMSA04.jpg,AMNE11.jpg,AMSA03.jpg,MS,2,num_6,32,num_2,1.03347719571,,,2017_Sep_28_1438,60.0059278414,MAFE4ImagesEEG,001,101920,
AFNE01.JPG,AFNE01.JPG,AFNE01.JPG,AFNE01.JPG,AFNE01.JPG,AFNE01.JPG,0,3,3,5,,,,,,,,,,,,,,,,,,,,,,,AMNE08.jpg,AMSA12.jpg,AMNE03.jpg,AMSA20.jpg,AMNE03.jpg,MN,1,num_2,16,num_2,1.00014337059,,,2017_Sep_28_1438,60.0059278414,MAFE4ImagesEEG,001,101920,
AFNE01.JPG,AFNE01.JPG,AFNE01.JPG,AFNE01.JPG,AFNE01.JPG,AFNE01.JPG,0,4,4,3,,,,,,,,,,,,,,,,,,,,,,,AMSA04.jpg,AMNE18.jpg,AMSA20.jpg,AMNE06.jpg,AMSA04.jpg,MS,2,num_8,16,num_8,0.466779716662,,,2017_Sep_28_1438,60.0059278414,MAFE4ImagesEEG,001,101920,
AFNE01.JPG,AFNE01.JPG,AFNE01.JPG,AFNE01.JPG,AFNE01.JPG,AFNE01.JPG,0,5,5,6,,,,,,,,,,,,,,,,,,,,,,,AMNE07.jpg,AMSA03.jpg,AMNE10.jpg,AMSA20.jpg,AMNE07.jpg,MN,1,num_8,32,num_2,1.3167467126,,,2017_Sep_28_1438,60.0059278414,MAFE4ImagesEEG,001,101920,
AFNE01.JPG,AFNE01.JPG,AFNE01.JPG,AFNE01.JPG,AFNE01.JPG,AFNE01.JPG,0,6,6,2,,,,,,,,,,,,,,,,,,,,,,,AMNE05.jpg,AMSA17.jpg,AMSA18.jpg,AMNE06.jpg,AMSA17.jpg,MS,2,num_6,32,num_4,0.866752261412,,,2017_Sep_28_1438,60.0059278414,MAFE4ImagesEEG,001,101920,
AFNE01.JPG,AFNE01.JPG,AFNE01.JPG,AFNE01.JPG,AFNE01.JPG,AFNE01.JPG,0,7,7,8,,,,,,,,,,,,,,,,,,,,,,,AMNE03.jpg,AMNE05.jpg,AMSA09.jpg,AMSA16.jpg,AMNE05.jpg,MN,1,num_6,16,num_6,0.983435082657,,,2017_Sep_28_1438,60.0059278414,MAFE4ImagesEEG,001,101920,
AFNE01.JPG,AFNE01.JPG,AFNE01.JPG,AFNE01.JPG,AFNE01.JPG,AFNE01.JPG,0,8,8,7,,,,,,,,,,,,,,,,,,,,,,,AMNE04.jpg,AMSA07.jpg,AMSA20.jpg,AMNE08.jpg,AMSA20.jpg,MS,2,num_2,16,num_2,1.11674472399,,,2017_Sep_28_1438,60.0059278414,MAFE4ImagesEEG,001,101920,
AFNE01.JPG,AFNE01.JPG,AFNE01.JPG,AFNE01.JPG,AFNE01.JPG,AFNE01.JPG,0,9,9,9,,,,,,,,,,,,,,,,,,,,,,,AMSA05.jpg,AMNE10.jpg,AMNE08.jpg,AMSA01.jpg,AMSA05.jpg,MS,2,num_8,32,num_6,0.750119796256,,,2017_Sep_28_1438,60.0059278414,MAFE4ImagesEEG,001,101920,
AFNE01.JPG,AFNE01.JPG,AFNE01.JPG,AFNE01.JPG,AFNE01.JPG,AFNE01.JPG,1,0,10,3,,,,,,,,,,,,,,,,,,,,,,,AMSA02.jpg,AMNE01.jpg,AMSA04.jpg,AMNE17.jpg,AMNE17.jpg,MN,1,num_4,16,num_4,0.883514754358,,,2017_Sep_28_1438,60.0059278414,MAFE4ImagesEEG,001,101920,
AFNE01.JPG,AFNE01.JPG,AFNE01.JPG,AFNE01.JPG,AFNE01.JPG,AFNE01.JPG,1,1,11,9,,,,,,,,,,,,,,,,,,,,,,,AMSA06.jpg,AMNE14.jpg,AMSA04.jpg,AMNE18.jpg,AMSA04.jpg,MS,2,num_2,16,num_2,1.55011460022,,,2017_Sep_28_1438,60.0059278414,MAFE4ImagesEEG,001,101920,
AFNE01.JPG,AFNE01.JPG,AFNE01.JPG,AFNE01.JPG,AFNE01.JPG,AFNE01.JPG,1,2,12,2,,,,,,,,,,,,,,,,,,,,,,,AMNE09.jpg,AMSA10.jpg,AMNE08.jpg,AMSA17.jpg,AMNE08.jpg,MN,1,num_2,32,num_8,1.25013968209,,,2017_Sep_28_1438,60.0059278414,MAFE4ImagesEEG,001,101920,
AFNE01.JPG,AFNE01.JPG,AFNE01.JPG,AFNE01.JPG,AFNE01.JPG,AFNE01.JPG,1,3,13,0,,,,,,,,,,,,,,,,,,,,,,,AMSA20.jpg,AMSA19.jpg,AMNE11.jpg,AMNE07.jpg,AMNE11.jpg,MN,1,num_2,32,num_6,0.633371223405,,,2017_Sep_28_1438,60.0059278414,MAFE4ImagesEEG,001,101920,
AFNE01.JPG,AFNE01.JPG,AFNE01.JPG,AFNE01.JPG,AFNE01.JPG,AFNE01.JPG,1,4,14,5,,,,,,,,,,,,,,,,,,,,,,,AMNE09.jpg,AMSA03.jpg,AMSA13.jpg,AMNE01.jpg,AMNE01.jpg,MN,1,num_4,16,num_4,0.283549843298,,,2017_Sep_28_1438,60.0059278414,MAFE4ImagesEEG,001,101920,
AFNE01.JPG,AFNE01.JPG,AFNE01.JPG,AFNE01.JPG,AFNE01.JPG,AFNE01.JPG,1,5,15,1,,,,,,,,,,,,,,,,,,,,,,,AMSA12.jpg,AMNE01.jpg,AMSA08.jpg,AMNE12.jpg,AMSA12.jpg,MS,2,num_8,32,num_4,0.950105427124,,,2017_Sep_28_1438,60.0059278414,MAFE4ImagesEEG,001,101920,
AFNE01.JPG,AFNE01.JPG,AFNE01.JPG,AFNE01.JPG,AFNE01.JPG,AFNE01.JPG,1,6,16,4,,,,,,,,,,,,,,,,,,,,,,,AMSA15.jpg,AMSA02.jpg,AMNE20.jpg,AMNE02.jpg,AMNE20.jpg,MN,1,num_2,32,num_6,0.883464077488,,,2017_Sep_28_1438,60.0059278414,MAFE4ImagesEEG,001,101920,
AFNE01.JPG,AFNE01.JPG,AFNE01.JPG,AFNE01.JPG,AFNE01.JPG,AFNE01.JPG,1,7,17,8,,,,,,,,,,,,,,,,,,,,,,,AMSA10.jpg,AMSA09.jpg,AMNE07.jpg,AMNE08.jpg,AMNE07.jpg,MN,1,num_2,32,num_4,0.850121271622,,,2017_Sep_28_1438,60.0059278414,MAFE4ImagesEEG,001,101920,
AFNE01.JPG,AFNE01.JPG,AFNE01.JPG,AFNE01.JPG,AFNE01.JPG,AFNE01.JPG,1,8,18,7,,,,,,,,,,,,,,,,,,,,,,,AMSA17.jpg,AMNE05.jpg,AMSA05.jpg,AMNE07.jpg,AMNE05.jpg,MN,1,num_6,16,num_6,0.550172333373,,,2017_Sep_28_1438,60.0059278414,MAFE4ImagesEEG,001,101920,
AFNE01.JPG,AFNE01.JPG,AFNE01.JPG,AFNE01.JPG,AFNE01.JPG,AFNE01.JPG,1,9,19,6,,,,,,,,,,,,,,,,,,,,,,,AMSA01.jpg,AMNE04.jpg,AMNE15.jpg,AMSA07.jpg,AMSA01.jpg,MS,2,num_8,32,num_2,0.616831002932,,,2017_Sep_28_1438,60.0059278414,MAFE4ImagesEEG,001,101920,
AFNE01.JPG,AFNE01.JPG,AFNE01.JPG,AFNE01.JPG,AFNE01.JPG,AFNE01.JPG,2,0,20,3,,,,,,,,,,,,,,,,,,,,,,,AMNE05.jpg,AMNE19.jpg,AMSA12.jpg,AMSA03.jpg,AMNE19.jpg,MN,1,num_6,16,num_6,0.800202643324,,,2017_Sep_28_1438,60.0059278414,MAFE4ImagesEEG,001,101920,
AFNE01.JPG,AFNE01.JPG,AFNE01.JPG,AFNE01.JPG,AFNE01.JPG,AFNE01.JPG,2,1,21,6,,,,,,,,,,,,,,,,,,,,,,,AMNE19.jpg,AMSA11.jpg,AMNE04.jpg,AMSA12.jpg,AMNE19.jpg,MN,1,num_8,16,num_8,0.250218904752,,,2017_Sep_28_1438,60.0059278414,MAFE4ImagesEEG,001,101920,
AFNE01.JPG,AFNE01.JPG,AFNE01.JPG,AFNE01.JPG,AFNE01.JPG,AFNE01.JPG,2,2,22,5,,,,,,,,,,,,,,,,,,,,,,,AMNE15.jpg,AMSA02.jpg,AMSA13.jpg,AMNE08.jpg,AMNE15.jpg,MN,1,num_8,32,num_4,0.500175444584,,,2017_Sep_28_1438,60.0059278414,MAFE4ImagesEEG,001,101920,
AFNE01.JPG,AFNE01.JPG,AFNE01.JPG,AFNE01.JPG,AFNE01.JPG,AFNE01.JPG,2,3,23,8,,,,,,,,,,,,,,,,,,,,,,,AMNE14.jpg,AMSA17.jpg,AMNE06.jpg,AMSA18.jpg,AMSA18.jpg,MS,2,num_4,32,num_6,0.816771088808,,,2017_Sep_28_1438,60.0059278414,MAFE4ImagesEEG,001,101920,
AFNE01.JPG,AFNE01.JPG,AFNE01.JPG,AFNE01.JPG,AFNE01.JPG,AFNE01.JPG,2,4,24,1,,,,,,,,,,,,,,,,,,,,,,,AMNE15.jpg,AMSA01.jpg,AMNE20.jpg,AMSA15.jpg,AMSA01.jpg,MS,2,num_6,16,num_6,0.783487940556,,,2017_Sep_28_1438,60.0059278414,MAFE4ImagesEEG,001,101920,
AFNE01.JPG,AFNE01.JPG,AFNE01.JPG,AFNE01.JPG,AFNE01.JPG,AFNE01.JPG,2,5,25,9,,,,,,,,,,,,,,,,,,,,,,,AMSA20.jpg,AMNE08.jpg,AMSA16.jpg,AMNE13.jpg,AMSA16.jpg,MS,2,num_2,32,num_6,0.716785329627,,,2017_Sep_28_1438,60.0059278414,MAFE4ImagesEEG,001,101920,
AFNE01.JPG,AFNE01.JPG,AFNE01.JPG,AFNE01.JPG,AFNE01.JPG,AFNE01.JPG,2,6,26,4,,,,,,,,,,,,,,,,,,,,,,,AMSA06.jpg,AMNE15.jpg,AMNE04.jpg,AMSA16.jpg,AMNE15.jpg,MN,1,num_6,16,num_6,0.433506832051,,,2017_Sep_28_1438,60.0059278414,MAFE4ImagesEEG,001,101920,
AFNE01.JPG,AFNE01.JPG,AFNE01.JPG,AFNE01.JPG,AFNE01.JPG,AFNE01.JPG,2,7,27,0,,,,,,,,,,,,,,,,,,,,,,,AMNE16.jpg,AMSA07.jpg,AMSA09.jpg,AMNE08.jpg,AMSA09.jpg,MS,2,num_2,16,num_2,1.16678491264,,,2017_Sep_28_1438,60.0059278414,MAFE4ImagesEEG,001,101920,
AFNE01.JPG,AFNE01.JPG,AFNE01.JPG,AFNE01.JPG,AFNE01.JPG,AFNE01.JPG,2,8,28,2,,,,,,,,,,,,,,,,,,,,,,,AMSA15.jpg,AMNE20.jpg,AMSA11.jpg,AMNE16.jpg,AMNE16.jpg,MN,1,num_4,16,num_4,1.13335197896,,,2017_Sep_28_1438,60.0059278414,MAFE4ImagesEEG,001,101920,
AFNE01.JPG,AFNE01.JPG,AFNE01.JPG,AFNE01.JPG,AFNE01.JPG,AFNE01.JPG,2,9,29,7,,,,,,,,,,,,,,,,,,,,,,,AMNE08.jpg,AMSA13.jpg,AMSA14.jpg,AMNE18.jpg,AMNE18.jpg,MN,1,num_4,32,num_6,0.683512124291,,,2017_Sep_28_1438,60.0059278414,MAFE4ImagesEEG,001,101920,
AFNE01.JPG,AFNE01.JPG,AFNE01.JPG,AFNE01.JPG,AFNE01.JPG,AFNE01.JPG,3,0,30,4,,,,,,,,,,,,,,,,,,,,,,,AMNE05.jpg,AMNE01.jpg,AMSA04.jpg,AMSA13.jpg,AMNE01.jpg,MN,1,num_6,16,num_6,0.566796266823,,,2017_Sep_28_1438,60.0059278414,MAFE4ImagesEEG,001,101920,
AFNE01.JPG,AFNE01.JPG,AFNE01.JPG,AFNE01.JPG,AFNE01.JPG,AFNE01.JPG,3,1,31,3,,,,,,,,,,,,,,,,,,,,,,,AMNE06.jpg,AMSA03.jpg,AMSA01.jpg,AMNE15.jpg,AMSA01.jpg,MS,2,num_2,32,num_6,0.400206684601,,,2017_Sep_28_1438,60.0059278414,MAFE4ImagesEEG,001,101920,
AFNE01.JPG,AFNE01.JPG,AFNE01.JPG,AFNE01.JPG,AFNE01.JPG,AFNE01.JPG,3,2,32,6,,,,,,,,,,,,,,,,,,,,,,,AMSA01.jpg,AMSA15.jpg,AMNE01.jpg,AMNE11.jpg,AMSA01.jpg,MS,2,num_8,32,num_2,1.08340320113,,,2017_Sep_28_1438,60.0059278414,MAFE4ImagesEEG,001,101920,
AFNE01.JPG,AFNE01.JPG,AFNE01.JPG,AFNE01.JPG,AFNE01.JPG,AFNE01.JPG,3,3,33,0,,,,,,,,,,,,,,,,,,,,,,,AMSA08.jpg,AMSA13.jpg,AMNE20.jpg,AMNE14.jpg,AMSA08.jpg,MS,2,num_8,32,num_4,0.633461351215,,,2017_Sep_28_1438,60.0059278414,MAFE4ImagesEEG,001,101920,
AFNE01.JPG,AFNE01.JPG,AFNE01.JPG,AFNE01.JPG,AFNE01.JPG,AFNE01.JPG,3,4,34,7,,,,,,,,,,,,,,,,,,,,,,,AMNE15.jpg,AMSA17.jpg,AMNE05.jpg,AMSA13.jpg,AMNE05.jpg,MN,1,num_2,32,num_6,0.600143883785,,,2017_Sep_28_1438,60.0059278414,MAFE4ImagesEEG,001,101920,
AFNE01.JPG,AFNE01.JPG,AFNE01.JPG,AFNE01.JPG,AFNE01.JPG,AFNE01.JPG,3,5,35,1,,,,,,,,,,,,,,,,,,,,,,,AMNE01.jpg,AMNE11.jpg,AMSA01.jpg,AMSA12.jpg,AMNE01.jpg,MN,1,num_8,32,num_6,0.350080537726,,,2017_Sep_28_1438,60.0059278414,MAFE4ImagesEEG,001,101920,
AFNE01.JPG,AFNE01.JPG,AFNE01.JPG,AFNE01.JPG,AFNE01.JPG,AFNE01.JPG,3,6,36,8,,,,,,,,,,,,,,,,,,,,,,,AMSA02.jpg,AMNE08.jpg,AMNE01.jpg,AMSA06.jpg,AMNE08.jpg,MN,1,num_6,32,num_4,0.900140612212,,,2017_Sep_28_1438,60.0059278414,MAFE4ImagesEEG,001,101920,
AFNE01.JPG,AFNE01.JPG,AFNE01.JPG,AFNE01.JPG,AFNE01.JPG,AFNE01.JPG,3,7,37,5,,,,,,,,,,,,,,,,,,,,,,,AMSA06.jpg,AMNE16.jpg,AMSA07.jpg,AMNE05.jpg,AMSA06.jpg,MS,2,num_8,16,num_8,0.483499230584,,,2017_Sep_28_1438,60.0059278414,MAFE4ImagesEEG,001,101920,
AFNE01.JPG,AFNE01.JPG,AFNE01.JPG,AFNE01.JPG,AFNE01.JPG,AFNE01.JPG,3,8,38,2,,,,,,,,,,,,,,,,,,,,,,,AMNE16.jpg,AMNE03.jpg,AMSA20.jpg,AMSA02.jpg,AMNE16.jpg,MN,1,num_8,32,num_4,1.4167388865,,,2017_Sep_28_1438,60.0059278414,MAFE4ImagesEEG,001,101920,
AFNE01.JPG,AFNE01.JPG,AFNE01.JPG,AFNE01.JPG,AFNE01.JPG,AFNE01.JPG,3,9,39,9,,,,,,,,,,,,,,,,,,,,,,,AMNE20.jpg,AMSA11.jpg,AMNE15.jpg,AMSA18.jpg,AMNE15.jpg,MN,1,num_2,32,num_4,0.650142697035,,,2017_Sep_28_1438,60.0059278414,MAFE4ImagesEEG,001,101920,
AFNE01.JPG,AFNE01.JPG,AFNE01.JPG,AFNE01.JPG,AFNE01.JPG,AFNE01.JPG,4,0,40,6,,,,,,,,,,,,,,,,,,,,,,,AMNE17.jpg,AMNE05.jpg,AMSA18.jpg,AMSA07.jpg,AMSA07.jpg,MS,2,num_4,32,num_6,0.73350388126,,,2017_Sep_28_1438,60.0059278414,MAFE4ImagesEEG,001,101920,
AFNE01.JPG,AFNE01.JPG,AFNE01.JPG,AFNE01.JPG,AFNE01.JPG,AFNE01.JPG,4,1,41,3,,,,,,,,,,,,,,,,,,,,,,,AMSA02.jpg,AMNE06.jpg,AMSA01.jpg,AMNE09.jpg,AMSA01.jpg,MS,2,num_2,32,num_8,0.450179838692,,,2017_Sep_28_1438,60.0059278414,MAFE4ImagesEEG,001,101920,
AFNE01.JPG,AFNE01.JPG,AFNE01.JPG,AFNE01.JPG,AFNE01.JPG,AFNE01.JPG,4,2,42,1,,,,,,,,,,,,,,,,,,,,,,,AMNE08.jpg,AMSA13.jpg,AMNE19.jpg,AMSA17.jpg,AMSA13.jpg,MS,2,num_6,32,num_4,0.866786259809,,,2017_Sep_28_1438,60.0059278414,MAFE4ImagesEEG,001,101920,
AFNE01.JPG,AFNE01.JPG,AFNE01.JPG,AFNE01.JPG,AFNE01.JPG,AFNE01.JPG,4,3,43,9,,,,,,,,,,,,,,,,,,,,,,,AMNE03.jpg,AMSA09.jpg,AMSA11.jpg,AMNE12.jpg,AMSA09.jpg,MS,2,num_6,32,num_8,0.583518346655,,,2017_Sep_28_1438,60.0059278414,MAFE4ImagesEEG,001,101920,
AFNE01.JPG,AFNE01.JPG,AFNE01.JPG,AFNE01.JPG,AFNE01.JPG,AFNE01.JPG,4,4,44,4,,,,,,,,,,,,,,,,,,,,,,,AMSA08.jpg,AMNE08.jpg,AMNE12.jpg,AMSA01.jpg,AMSA08.jpg,MS,2,num_8,16,num_8,0.833477452339,,,2017_Sep_28_1438,60.0059278414,MAFE4ImagesEEG,001,101920,
AFNE01.JPG,AFNE01.JPG,AFNE01.JPG,AFNE01.JPG,AFNE01.JPG,AFNE01.JPG,4,5,45,8,,,,,,,,,,,,,,,,,,,,,,,AMNE03.jpg,AMSA20.jpg,AMNE10.jpg,AMSA02.jpg,AMNE10.jpg,MN,1,num_2,32,num_8,0.649959554779,,,2017_Sep_28_1438,60.0059278414,MAFE4ImagesEEG,001,101920,
AFNE01.JPG,AFNE01.JPG,AFNE01.JPG,AFNE01.JPG,AFNE01.JPG,AFNE01.JPG,4,6,46,2,,,,,,,,,,,,,,,,,,,,,,,AMSA12.jpg,AMNE20.jpg,AMNE18.jpg,AMSA08.jpg,AMNE20.jpg,MN,1,num_6,16,num_6,0.700191545649,,,2017_Sep_28_1438,60.0059278414,MAFE4ImagesEEG,001,101920,
AFNE01.JPG,AFNE01.JPG,AFNE01.JPG,AFNE01.JPG,AFNE01.JPG,AFNE01.JPG,4,7,47,5,,,,,,,,,,,,,,,,,,,,,,,AMSA03.jpg,AMSA06.jpg,AMNE07.jpg,AMNE19.jpg,AMSA06.jpg,MS,2,num_6,16,num_6,0.950154179474,,,2017_Sep_28_1438,60.0059278414,MAFE4ImagesEEG,001,101920,
AFNE01.JPG,AFNE01.JPG,AFNE01.JPG,AFNE01.JPG,AFNE01.JPG,AFNE01.JPG,4,8,48,0,,,,,,,,,,,,,,,,,,,,,,,AMNE01.jpg,AMNE04.jpg,AMSA13.jpg,AMSA09.jpg,AMSA09.jpg,MS,2,num_4,32,num_2,0.383549394261,,,2017_Sep_28_1438,60.0059278414,MAFE4ImagesEEG,001,101920,
AFNE01.JPG,AFNE01.JPG,AFNE01.JPG,AFNE01.JPG,AFNE01.JPG,AFNE01.JPG,4,9,49,7,,,,,,,,,,,,,,,,,,,,,,,AMNE18.jpg,AMSA05.jpg,AMNE01.jpg,AMSA19.jpg,AMSA19.jpg,MS,2,num_4,32,num_8,1.05015918304,,,2017_Sep_28_1438,60.0059278414,MAFE4ImagesEEG,001,101920,
AFNE01.JPG,AFNE01.JPG,AFNE01.JPG,AFNE01.JPG,AFNE01.JPG,AFNE01.JPG,5,0,50,7,,,,,,,,,,,,,,,,,,,,,,,AMNE06.jpg,AMNE13.jpg,AMSA12.jpg,AMSA03.jpg,AMSA03.jpg,MS,2,num_4,16,num_4,0.866798447852,,,2017_Sep_28_1438,60.0059278414,MAFE4ImagesEEG,001,101920,
AFNE01.JPG,AFNE01.JPG,AFNE01.JPG,AFNE01.JPG,AFNE01.JPG,AFNE01.JPG,5,1,51,4,,,,,,,,,,,,,,,,,,,,,,,AMNE11.jpg,AMSA02.jpg,AMSA17.jpg,AMNE18.jpg,AMNE11.jpg,MN,1,num_8,16,num_8,0.916757810221,,,2017_Sep_28_1438,60.0059278414,MAFE4ImagesEEG,001,101920,
AFNE01.JPG,AFNE01.JPG,AFNE01.JPG,AFNE01.JPG,AFNE01.JPG,AFNE01.JPG,5,2,52,5,,,,,,,,,,,,,,,,,,,,,,,AMSA06.jpg,AMSA04.jpg,AMNE08.jpg,AMNE03.jpg,AMSA04.jpg,MS,2,num_6,16,num_6,0.533481044637,,,2017_Sep_28_1438,60.0059278414,MAFE4ImagesEEG,001,101920,
AFNE01.JPG,AFNE01.JPG,AFNE01.JPG,AFNE01.JPG,AFNE01.JPG,AFNE01.JPG,5,3,53,0,,,,,,,,,,,,,,,,,,,,,,,AMNE06.jpg,AMNE12.jpg,AMSA12.jpg,AMSA08.jpg,AMSA08.jpg,MS,2,num_4,16,num_4,0.70013669919,,,2017_Sep_28_1438,60.0059278414,MAFE4ImagesEEG,001,101920,
AFNE01.JPG,AFNE01.JPG,AFNE01.JPG,AFNE01.JPG,AFNE01.JPG,AFNE01.JPG,5,4,54,8,,,,,,,,,,,,,,,,,,,,,,,AMSA01.jpg,AMNE06.jpg,AMSA12.jpg,AMNE13.jpg,AMSA12.jpg,MS,2,num_2,16,num_2,1.35007765103,,,2017_Sep_28_1438,60.0059278414,MAFE4ImagesEEG,001,101920,
AFNE01.JPG,AFNE01.JPG,AFNE01.JPG,AFNE01.JPG,AFNE01.JPG,AFNE01.JPG,5,5,55,3,,,,,,,,,,,,,,,,,,,,,,,AMSA04.jpg,AMNE13.jpg,AMSA08.jpg,AMNE20.jpg,AMSA08.jpg,MS,2,num_2,32,num_6,2.10010058392,,,2017_Sep_28_1438,60.0059278414,MAFE4ImagesEEG,001,101920,
AFNE01.JPG,AFNE01.JPG,AFNE01.JPG,AFNE01.JPG,AFNE01.JPG,AFNE01.JPG,5,6,56,1,,,,,,,,,,,,,,,,,,,,,,,AMSA18.jpg,AMNE12.jpg,AMSA10.jpg,AMNE02.jpg,AMSA10.jpg,MS,2,num_2,32,num_6,2.8833396305,,,2017_Sep_28_1438,60.0059278414,MAFE4ImagesEEG,001,101920,
AFNE01.JPG,AFNE01.JPG,AFNE01.JPG,AFNE01.JPG,AFNE01.JPG,AFNE01.JPG,5,7,57,6,,,,,,,,,,,,,,,,,,,,,,,AMSA07.jpg,AMSA09.jpg,AMNE07.jpg,AMNE19.jpg,AMSA07.jpg,MS,2,num_8,16,num_8,1.36674712953,,,2017_Sep_28_1438,60.0059278414,MAFE4ImagesEEG,001,101920,
AFNE01.JPG,AFNE01.JPG,AFNE01.JPG,AFNE01.JPG,AFNE01.JPG,AFNE01.JPG,5,8,58,9,,,,,,,,,,,,,,,,,,,,,,,AMNE09.jpg,AMSA04.jpg,AMSA09.jpg,AMNE05.jpg,AMSA09.jpg,MS,2,num_2,32,num_8,1.0168013025,,,2017_Sep_28_1438,60.0059278414,MAFE4ImagesEEG,001,101920,
AFNE01.JPG,AFNE01.JPG,AFNE01.JPG,AFNE01.JPG,AFNE01.JPG,AFNE01.JPG,5,9,59,2,,,,,,,,,,,,,,,,,,,,,,,AMSA18.jpg,AMSA14.jpg,AMNE09.jpg,AMNE13.jpg,AMNE09.jpg,MN,1,num_2,16,num_2,1.3166848098,,,2017_Sep_28_1438,60.0059278414,MAFE4ImagesEEG,001,101920,
,,,,,,,,,,,,,,,,,,,,,,,,,,,,,,,,,,,,,,,,,,,space,38.7634923924,2017_Sep_28_1438,60.0059278414,MAFE4ImagesEEG,001,101920,
AFNE01.JPG,AFNE01.JPG,AFNE01.JPG,AFNE01.JPG,AFNE01.JPG,AFNE01.JPG,,,,,0,0,0,3,,,,,,,,,,,,,,,,,,,AFSA05.jpg,AFSA02.jpg,AFNE14.jpg,AFNE01.jpg,AFNE14.jpg,FN,3,num_2,16,num_2,0.916804317385,,,2017_Sep_28_1438,60.0059278414,MAFE4ImagesEEG,001,101920,
AFNE01.JPG,AFNE01.JPG,AFNE01.JPG,AFNE01.JPG,AFNE01.JPG,AFNE01.JPG,,,,,0,1,1,0,,,,,,,,,,,,,,,,,,,AFSA07.jpg,AFNE03.jpg,AFSA17.jpg,AFNE05.jpg,AFSA07.jpg,FS,4,num_8,32,num_6,0.283547598054,,,2017_Sep_28_1438,60.0059278414,MAFE4ImagesEEG,001,101920,
AFNE01.JPG,AFNE01.JPG,AFNE01.JPG,AFNE01.JPG,AFNE01.JPG,AFNE01.JPG,,,,,0,2,2,7,,,,,,,,,,,,,,,,,,,AFSA06.jpg,AFNE01.jpg,AFSA11.jpg,AFNE07.jpg,AFSA06.jpg,FS,4,num_8,32,num_2,1.23355070926,,,2017_Sep_28_1438,60.0059278414,MAFE4ImagesEEG,001,101920,
AFNE01.JPG,AFNE01.JPG,AFNE01.JPG,AFNE01.JPG,AFNE01.JPG,AFNE01.JPG,,,,,0,3,3,6,,,,,,,,,,,,,,,,,,,AFNE03.jpg,AFNE08.jpg,AFSA11.jpg,AFSA20.jpg,AFSA11.jpg,FS,4,num_2,16,num_2,0.466816281027,,,2017_Sep_28_1438,60.0059278414,MAFE4ImagesEEG,001,101920,
AFNE01.JPG,AFNE01.JPG,AFNE01.JPG,AFNE01.JPG,AFNE01.JPG,AFNE01.JPG,,,,,0,4,4,2,,,,,,,,,,,,,,,,,,,AFSA03.jpg,AFNE04.jpg,AFNE10.jpg,AFSA15.jpg,AFSA15.jpg,FS,4,num_4,32,num_6,0.566760344023,,,2017_Sep_28_1438,60.0059278414,MAFE4ImagesEEG,001,101920,
AFNE01.JPG,AFNE01.JPG,AFNE01.JPG,AFNE01.JPG,AFNE01.JPG,AFNE01.JPG,,,,,0,5,5,5,,,,,,,,,,,,,,,,,,,AFSA16.jpg,AFNE18.jpg,AFSA06.jpg,AFNE07.jpg,AFSA16.jpg,FS,4,num_8,32,num_4,0.866837898851,,,2017_Sep_28_1438,60.0059278414,MAFE4ImagesEEG,001,101920,
AFNE01.JPG,AFNE01.JPG,AFNE01.JPG,AFNE01.JPG,AFNE01.JPG,AFNE01.JPG,,,,,0,6,6,9,,,,,,,,,,,,,,,,,,,AFNE08.jpg,AFSA14.jpg,AFSA01.jpg,AFNE02.jpg,AFNE02.jpg,FN,3,num_4,32,num_6,0.333502790774,,,2017_Sep_28_1438,60.0059278414,MAFE4ImagesEEG,001,101920,
AFNE01.JPG,AFNE01.JPG,AFNE01.JPG,AFNE01.JPG,AFNE01.JPG,AFNE01.JPG,,,,,0,7,7,4,,,,,,,,,,,,,,,,,,,AFNE14.jpg,AFSA03.jpg,AFNE17.jpg,AFSA17.jpg,AFNE14.jpg,FN,3,num_8,16,num_8,0.616811117041,,,2017_Sep_28_1438,60.0059278414,MAFE4ImagesEEG,001,101920,
AFNE01.JPG,AFNE01.JPG,AFNE01.JPG,AFNE01.JPG,AFNE01.JPG,AFNE01.JPG,,,,,0,8,8,8,,,,,,,,,,,,,,,,,,,AFNE20.jpg,AFSA05.jpg,AFNE16.jpg,AFSA20.jpg,AFSA20.jpg,FS,4,num_4,32,num_8,0.666958432761,,,2017_Sep_28_1438,60.0059278414,MAFE4ImagesEEG,001,101920,
AFNE01.JPG,AFNE01.JPG,AFNE01.JPG,AFNE01.JPG,AFNE01.JPG,AFNE01.JPG,,,,,0,9,9,1,,,,,,,,,,,,,,,,,,,AFNE02.jpg,AFNE15.jpg,AFSA05.jpg,AFSA09.jpg,AFNE15.jpg,FN,3,num_6,32,num_4,0.68354195304,,,2017_Sep_28_1438,60.0059278414,MAFE4ImagesEEG,001,101920,
AFNE01.JPG,AFNE01.JPG,AFNE01.JPG,AFNE01.JPG,AFNE01.JPG,AFNE01.JPG,,,,,1,0,10,3,,,,,,,,,,,,,,,,,,,AFSA14.jpg,AFNE07.jpg,AFSA03.jpg,AFNE12.jpg,AFNE12.jpg,FN,3,num_4,32,num_6,0.666822759958,,,2017_Sep_28_1438,60.0059278414,MAFE4ImagesEEG,001,101920,
AFNE01.JPG,AFNE01.JPG,AFNE01.JPG,AFNE01.JPG,AFNE01.JPG,AFNE01.JPG,,,,,1,1,11,7,,,,,,,,,,,,,,,,,,,AFSA16.jpg,AFNE04.jpg,AFNE06.jpg,AFSA11.jpg,AFSA16.jpg,FS,4,num_8,32,num_6,0.55055144761,,,2017_Sep_28_1438,60.0059278414,MAFE4ImagesEEG,001,101920,
AFNE01.JPG,AFNE01.JPG,AFNE01.JPG,AFNE01.JPG,AFNE01.JPG,AFNE01.JPG,,,,,1,2,12,6,,,,,,,,,,,,,,,,,,,AFNE20.jpg,AFNE19.jpg,AFSA02.jpg,AFSA09.jpg,AFNE19.jpg,FN,3,num_6,32,num_4,0.566853679251,,,2017_Sep_28_1438,60.0059278414,MAFE4ImagesEEG,001,101920,
AFNE01.JPG,AFNE01.JPG,AFNE01.JPG,AFNE01.JPG,AFNE01.JPG,AFNE01.JPG,,,,,1,3,13,8,,,,,,,,,,,,,,,,,,,AFSA05.jpg,AFNE05.jpg,AFSA02.jpg,AFNE09.jpg,AFNE05.jpg,FN,3,num_6,32,num_4,0.533487138688,,,2017_Sep_28_1438,60.0059278414,MAFE4ImagesEEG,001,101920,
AFNE01.JPG,AFNE01.JPG,AFNE01.JPG,AFNE01.JPG,AFNE01.JPG,AFNE01.JPG,,,,,1,4,14,1,,,,,,,,,,,,,,,,,,,AFNE14.jpg,AFSA01.jpg,AFSA08.jpg,AFNE18.jpg,AFNE18.jpg,FN,3,num_4,16,num_4,0.866789146443,,,2017_Sep_28_1438,60.0059278414,MAFE4ImagesEEG,001,101920,
AFNE01.JPG,AFNE01.JPG,AFNE01.JPG,AFNE01.JPG,AFNE01.JPG,AFNE01.JPG,,,,,1,5,15,0,,,,,,,,,,,,,,,,,,,AFNE01.jpg,AFSA20.jpg,AFNE13.jpg,AFSA06.jpg,AFSA20.jpg,FS,4,num_6,32,num_4,0.866785939026,,,2017_Sep_28_1438,60.0059278414,MAFE4ImagesEEG,001,101920,
AFNE01.JPG,AFNE01.JPG,AFNE01.JPG,AFNE01.JPG,AFNE01.JPG,AFNE01.JPG,,,,,1,6,16,5,,,,,,,,,,,,,,,,,,,AFSA02.jpg,AFSA20.jpg,AFNE09.jpg,AFNE18.jpg,AFSA02.jpg,FS,4,num_8,32,num_4,0.816742863739,,,2017_Sep_28_1438,60.0059278414,MAFE4ImagesEEG,001,101920,
AFNE01.JPG,AFNE01.JPG,AFNE01.JPG,AFNE01.JPG,AFNE01.JPG,AFNE01.JPG,,,,,1,7,17,9,,,,,,,,,,,,,,,,,,,AFNE20.jpg,AFSA02.jpg,AFNE13.jpg,AFSA09.jpg,AFNE13.jpg,FN,3,num_2,16,num_2,1.18343707122,,,2017_Sep_28_1438,60.0059278414,MAFE4ImagesEEG,001,101920,
AFNE01.JPG,AFNE01.JPG,AFNE01.JPG,AFNE01.JPG,AFNE01.JPG,AFNE01.JPG,,,,,1,8,18,4,,,,,,,,,,,,,,,,,,,AFNE03.jpg,AFSA08.jpg,AFNE16.jpg,AFSA16.jpg,AFNE16.jpg,FN,3,num_2,16,num_2,1.38341468357,,,2017_Sep_28_1438,60.0059278414,MAFE4ImagesEEG,001,101920,
AFNE01.JPG,AFNE01.JPG,AFNE01.JPG,AFNE01.JPG,AFNE01.JPG,AFNE01.JPG,,,,,1,9,19,2,,,,,,,,,,,,,,,,,,,AFSA04.jpg,AFNE09.jpg,AFNE05.jpg,AFSA08.jpg,AFNE09.jpg,FN,3,num_6,32,num_4,0.950214799319,,,2017_Sep_28_1438,60.0059278414,MAFE4ImagesEEG,001,101920,
AFNE01.JPG,AFNE01.JPG,AFNE01.JPG,AFNE01.JPG,AFNE01.JPG,AFNE01.JPG,,,,,2,0,20,8,,,,,,,,,,,,,,,,,,,AFNE08.jpg,AFSA15.jpg,AFSA20.jpg,AFNE17.jpg,AFNE08.jpg,FN,3,num_8,16,num_8,0.550002341392,,,2017_Sep_28_1438,60.0059278414,MAFE4ImagesEEG,001,101920,
AFNE01.JPG,AFNE01.JPG,AFNE01.JPG,AFNE01.JPG,AFNE01.JPG,AFNE01.JPG,,,,,2,1,21,9,,,,,,,,,,,,,,,,,,,AFNE13.jpg,AFNE08.jpg,AFSA01.jpg,AFSA12.jpg,AFNE08.jpg,FN,3,num_6,32,num_4,1.26665616781,,,2017_Sep_28_1438,60.0059278414,MAFE4ImagesEEG,001,101920,
AFNE01.JPG,AFNE01.JPG,AFNE01.JPG,AFNE01.JPG,AFNE01.JPG,AFNE01.JPG,,,,,2,2,22,0,,,,,,,,,,,,,,,,,,,AFNE16.jpg,AFNE15.jpg,AFSA06.jpg,AFSA05.jpg,AFNE16.jpg,FN,3,num_8,32,num_6,1.21680168732,,,2017_Sep_28_1438,60.0059278414,MAFE4ImagesEEG,001,101920,
AFNE01.JPG,AFNE01.JPG,AFNE01.JPG,AFNE01.JPG,AFNE01.JPG,AFNE01.JPG,,,,,2,3,23,4,,,,,,,,,,,,,,,,,,,AFSA10.jpg,AFNE16.jpg,AFSA16.jpg,AFNE04.jpg,AFSA16.jpg,FS,4,num_2,32,num_4,1.31673676969,,,2017_Sep_28_1438,60.0059278414,MAFE4ImagesEEG,001,101920,
AFNE01.JPG,AFNE01.JPG,AFNE01.JPG,AFNE01.JPG,AFNE01.JPG,AFNE01.JPG,,,,,2,4,24,3,,,,,,,,,,,,,,,,,,,AFSA18.jpg,AFNE08.jpg,AFNE04.jpg,AFSA09.jpg,AFNE08.jpg,FN,3,num_6,16,num_6,1.01695686113,,,2017_Sep_28_1438,60.0059278414,MAFE4ImagesEEG,001,101920,
AFNE01.JPG,AFNE01.JPG,AFNE01.JPG,AFNE01.JPG,AFNE01.JPG,AFNE01.JPG,,,,,2,5,25,5,,,,,,,,,,,,,,,,,,,AFNE06.jpg,AFSA17.jpg,AFNE09.jpg,AFSA01.jpg,AFSA01.jpg,FS,4,num_4,32,num_6,0.583649849868,,,2017_Sep_28_1438,60.0059278414,MAFE4ImagesEEG,001,101920,
AFNE01.JPG,AFNE01.JPG,AFNE01.JPG,AFNE01.JPG,AFNE01.JPG,AFNE01.JPG,,,,,2,6,26,7,,,,,,,,,,,,,,,,,,,AFNE04.jpg,AFNE09.jpg,AFSA12.jpg,AFSA03.jpg,AFNE04.jpg,FN,3,num_8,32,num_2,0.616850888764,,,2017_Sep_28_1438,60.0059278414,MAFE4ImagesEEG,001,101920,
AFNE01.JPG,AFNE01.JPG,AFNE01.JPG,AFNE01.JPG,AFNE01.JPG,AFNE01.JPG,,,,,2,7,27,6,,,,,,,,,,,,,,,,,,,AFNE19.jpg,AFSA13.jpg,AFNE06.jpg,AFSA19.jpg,AFNE19.jpg,FN,3,num_8,32,num_4,0.933500417275,,,2017_Sep_28_1438,60.0059278414,MAFE4ImagesEEG,001,101920,
AFNE01.JPG,AFNE01.JPG,AFNE01.JPG,AFNE01.JPG,AFNE01.JPG,AFNE01.JPG,,,,,2,8,28,1,,,,,,,,,,,,,,,,,,,AFSA16.jpg,AFNE09.jpg,AFNE08.jpg,AFSA13.jpg,AFNE09.jpg,FN,3,num_6,16,num_6,0.516804830637,,,2017_Sep_28_1438,60.0059278414,MAFE4ImagesEEG,001,101920,
AFNE01.JPG,AFNE01.JPG,AFNE01.JPG,AFNE01.JPG,AFNE01.JPG,AFNE01.JPG,,,,,2,9,29,2,,,,,,,,,,,,,,,,,,,AFSA20.jpg,AFSA06.jpg,AFNE19.jpg,AFNE16.jpg,AFSA06.jpg,FS,4,num_6,16,num_6,0.916753961297,,,2017_Sep_28_1438,60.0059278414,MAFE4ImagesEEG,001,101920,
AFNE01.JPG,AFNE01.JPG,AFNE01.JPG,AFNE01.JPG,AFNE01.JPG,AFNE01.JPG,,,,,3,0,30,8,,,,,,,,,,,,,,,,,,,AFSA12.jpg,AFNE09.jpg,AFSA07.jpg,AFNE05.jpg,AFNE05.jpg,FN,3,num_4,32,num_2,0.550038584974,,,2017_Sep_28_1438,60.0059278414,MAFE4ImagesEEG,001,101920,
AFNE01.JPG,AFNE01.JPG,AFNE01.JPG,AFNE01.JPG,AFNE01.JPG,AFNE01.JPG,,,,,3,1,31,2,,,,,,,,,,,,,,,,,,,AFSA19.jpg,AFNE09.jpg,AFSA02.jpg,AFNE04.jpg,AFNE09.jpg,FN,3,num_6,16,num_6,0.483501475712,,,2017_Sep_28_1438,60.0059278414,MAFE4ImagesEEG,001,101920,
AFNE01.JPG,AFNE01.JPG,AFNE01.JPG,AFNE01.JPG,AFNE01.JPG,AFNE01.JPG,,,,,3,2,32,9,,,,,,,,,,,,,,,,,,,AFSA15.jpg,AFSA07.jpg,AFNE19.jpg,AFNE03.jpg,AFSA15.jpg,FS,4,num_8,16,num_8,0.966817884648,,,2017_Sep_28_1438,60.0059278414,MAFE4ImagesEEG,001,101920,
AFNE01.JPG,AFNE01.JPG,AFNE01.JPG,AFNE01.JPG,AFNE01.JPG,AFNE01.JPG,,,,,3,3,33,7,,,,,,,,,,,,,,,,,,,AFSA20.jpg,AFSA14.jpg,AFNE11.jpg,AFNE20.jpg,AFSA20.jpg,FS,4,num_8,32,num_2,0.78337471938,,,2017_Sep_28_1438,60.0059278414,MAFE4ImagesEEG,001,101920,
AFNE01.JPG,AFNE01.JPG,AFNE01.JPG,AFNE01.JPG,AFNE01.JPG,AFNE01.JPG,,,,,3,4,34,1,,,,,,,,,,,,,,,,,,,AFNE10.jpg,AFSA14.jpg,AFSA02.jpg,AFNE03.jpg,AFNE10.jpg,FN,3,num_8,32,num_6,0.633444031293,,,2017_Sep_28_1438,60.0059278414,MAFE4ImagesEEG,001,101920,
AFNE01.JPG,AFNE01.JPG,AFNE01.JPG,AFNE01.JPG,AFNE01.JPG,AFNE01.JPG,,,,,3,5,35,5,,,,,,,,,,,,,,,,,,,AFSA15.jpg,AFSA02.jpg,AFNE19.jpg,AFNE10.jpg,AFNE10.jpg,FN,3,num_4,16,num_4,0.716863910842,,,2017_Sep_28_1438,60.0059278414,MAFE4ImagesEEG,001,101920,
AFNE01.JPG,AFNE01.JPG,AFNE01.JPG,AFNE01.JPG,AFNE01.JPG,AFNE01.JPG,,,,,3,6,36,0,,,,,,,,,,,,,,,,,,,AFSA01.jpg,AFNE01.jpg,AFNE05.jpg,AFSA16.jpg,AFNE01.jpg,FN,3,num_6,32,num_4,0.833139072056,,,2017_Sep_28_1438,60.0059278414,MAFE4ImagesEEG,001,101920,
AFNE01.JPG,AFNE01.JPG,AFNE01.JPG,AFNE01.JPG,AFNE01.JPG,AFNE01.JPG,,,,,3,7,37,6,,,,,,,,,,,,,,,,,,,AFNE02.jpg,AFSA07.jpg,AFSA16.jpg,AFNE04.jpg,AFSA16.jpg,FS,4,num_2,32,num_6,0.800157739723,,,2017_Sep_28_1438,60.0059278414,MAFE4ImagesEEG,001,101920,
AFNE01.JPG,AFNE01.JPG,AFNE01.JPG,AFNE01.JPG,AFNE01.JPG,AFNE01.JPG,,,,,3,8,38,3,,,,,,,,,,,,,,,,,,,AFNE06.jpg,AFSA13.jpg,AFNE13.jpg,AFSA04.jpg,AFSA13.jpg,FS,4,num_6,32,num_4,0.666885945655,,,2017_Sep_28_1438,60.0059278414,MAFE4ImagesEEG,001,101920,
AFNE01.JPG,AFNE01.JPG,AFNE01.JPG,AFNE01.JPG,AFNE01.JPG,AFNE01.JPG,,,,,3,9,39,4,,,,,,,,,,,,,,,,,,,AFSA05.jpg,AFNE19.jpg,AFNE20.jpg,AFSA15.jpg,AFSA05.jpg,FS,4,num_8,32,num_6,0.483558567357,,,2017_Sep_28_1438,60.0059278414,MAFE4ImagesEEG,001,101920,
AFNE01.JPG,AFNE01.JPG,AFNE01.JPG,AFNE01.JPG,AFNE01.JPG,AFNE01.JPG,,,,,4,0,40,1,,,,,,,,,,,,,,,,,,,AFNE15.jpg,AFSA08.jpg,AFSA20.jpg,AFNE13.jpg,AFSA08.jpg,FS,4,num_6,32,num_8,1.33343800134,,,2017_Sep_28_1438,60.0059278414,MAFE4ImagesEEG,001,101920,
AFNE01.JPG,AFNE01.JPG,AFNE01.JPG,AFNE01.JPG,AFNE01.JPG,AFNE01.JPG,,,,,4,1,41,2,,,,,,,,,,,,,,,,,,,AFSA09.jpg,AFNE10.jpg,AFSA01.jpg,AFNE11.jpg,AFNE11.jpg,FN,3,num_4,16,num_4,0.483500513539,,,2017_Sep_28_1438,60.0059278414,MAFE4ImagesEEG,001,101920,
AFNE01.JPG,AFNE01.JPG,AFNE01.JPG,AFNE01.JPG,AFNE01.JPG,AFNE01.JPG,,,,,4,2,42,9,,,,,,,,,,,,,,,,,,,AFSA12.jpg,AFSA07.jpg,AFNE08.jpg,AFNE19.jpg,AFSA07.jpg,FS,4,num_6,16,num_6,0.966766887053,,,2017_Sep_28_1438,60.0059278414,MAFE4ImagesEEG,001,101920,
AFNE01.JPG,AFNE01.JPG,AFNE01.JPG,AFNE01.JPG,AFNE01.JPG,AFNE01.JPG,,,,,4,3,43,4,,,,,,,,,,,,,,,,,,,AFSA10.jpg,AFNE08.jpg,AFSA01.jpg,AFNE11.jpg,AFSA10.jpg,FS,4,num_8,16,num_8,0.700127718563,,,2017_Sep_28_1438,60.0059278414,MAFE4ImagesEEG,001,101920,
AFNE01.JPG,AFNE01.JPG,AFNE01.JPG,AFNE01.JPG,AFNE01.JPG,AFNE01.JPG,,,,,4,4,44,7,,,,,,,,,,,,,,,,,,,AFNE04.jpg,AFSA16.jpg,AFSA03.jpg,AFNE06.jpg,AFSA16.jpg,FS,4,num_6,32,num_8,0.616344761744,,,2017_Sep_28_1438,60.0059278414,MAFE4ImagesEEG,001,101920,
AFNE01.JPG,AFNE01.JPG,AFNE01.JPG,AFNE01.JPG,AFNE01.JPG,AFNE01.JPG,,,,,4,5,45,8,,,,,,,,,,,,,,,,,,,AFNE17.jpg,AFSA19.jpg,AFSA10.jpg,AFNE18.jpg,AFNE18.jpg,FN,3,num_4,32,num_8,1.5167400412,,,2017_Sep_28_1438,60.0059278414,MAFE4ImagesEEG,001,101920,
AFNE01.JPG,AFNE01.JPG,AFNE01.JPG,AFNE01.JPG,AFNE01.JPG,AFNE01.JPG,,,,,4,6,46,0,,,,,,,,,,,,,,,,,,,AFSA08.jpg,AFSA19.jpg,AFNE09.jpg,AFNE05.jpg,AFSA19.jpg,FS,4,num_6,16,num_6,1.03336686135,,,2017_Sep_28_1438,60.0059278414,MAFE4ImagesEEG,001,101920,
AFNE01.JPG,AFNE01.JPG,AFNE01.JPG,AFNE01.JPG,AFNE01.JPG,AFNE01.JPG,,,,,4,7,47,3,,,,,,,,,,,,,,,,,,,AFSA05.jpg,AFNE17.jpg,AFSA10.jpg,AFNE12.jpg,AFSA05.jpg,FS,4,num_8,16,num_8,1.18343193934,,,2017_Sep_28_1438,60.0059278414,MAFE4ImagesEEG,001,101920,
AFNE01.JPG,AFNE01.JPG,AFNE01.JPG,AFNE01.JPG,AFNE01.JPG,AFNE01.JPG,,,,,4,8,48,5,,,,,,,,,,,,,,,,,,,AFSA05.jpg,AFNE10.jpg,AFNE13.jpg,AFSA07.jpg,AFSA05.jpg,FS,4,num_8,32,num_6,0.616798608273,,,2017_Sep_28_1438,60.0059278414,MAFE4ImagesEEG,001,101920,
AFNE01.JPG,AFNE01.JPG,AFNE01.JPG,AFNE01.JPG,AFNE01.JPG,AFNE01.JPG,,,,,4,9,49,6,,,,,,,,,,,,,,,,,,,AFSA03.jpg,AFNE10.jpg,AFNE19.jpg,AFSA13.jpg,AFSA03.jpg,FS,4,num_8,16,num_8,0.983494419488,,,2017_Sep_28_1438,60.0059278414,MAFE4ImagesEEG,001,101920,
AFNE01.JPG,AFNE01.JPG,AFNE01.JPG,AFNE01.JPG,AFNE01.JPG,AFNE01.JPG,,,,,5,0,50,8,,,,,,,,,,,,,,,,,,,AFNE02.jpg,AFNE04.jpg,AFSA17.jpg,AFSA02.jpg,AFNE04.jpg,FN,3,num_6,16,num_6,0.383485887782,,,2017_Sep_28_1438,60.0059278414,MAFE4ImagesEEG,001,101920,
AFNE01.JPG,AFNE01.JPG,AFNE01.JPG,AFNE01.JPG,AFNE01.JPG,AFNE01.JPG,,,,,5,1,51,6,,,,,,,,,,,,,,,,,,,AFNE18.jpg,AFSA07.jpg,AFNE15.jpg,AFSA15.jpg,AFNE15.jpg,FN,3,num_2,32,num_6,0.416784431553,,,2017_Sep_28_1438,60.0059278414,MAFE4ImagesEEG,001,101920,
AFNE01.JPG,AFNE01.JPG,AFNE01.JPG,AFNE01.JPG,AFNE01.JPG,AFNE01.JPG,,,,,5,2,52,5,,,,,,,,,,,,,,,,,,,AFSA18.jpg,AFNE07.jpg,AFNE16.jpg,AFSA12.jpg,AFSA18.jpg,FS,4,num_8,32,num_4,0.650219033065,,,2017_Sep_28_1438,60.0059278414,MAFE4ImagesEEG,001,101920,
AFNE01.JPG,AFNE01.JPG,AFNE01.JPG,AFNE01.JPG,AFNE01.JPG,AFNE01.JPG,,,,,5,3,53,4,,,,,,,,,,,,,,,,,,,AFSA10.jpg,AFSA07.jpg,AFNE09.jpg,AFNE16.jpg,AFSA07.jpg,FS,4,num_6,16,num_6,0.666633844317,,,2017_Sep_28_1438,60.0059278414,MAFE4ImagesEEG,001,101920,
AFNE01.JPG,AFNE01.JPG,AFNE01.JPG,AFNE01.JPG,AFNE01.JPG,AFNE01.JPG,,,,,5,4,54,2,,,,,,,,,,,,,,,,,,,AFNE08.jpg,AFSA12.jpg,AFNE02.jpg,AFSA20.jpg,AFSA20.jpg,FS,4,num_4,32,num_8,0.350169703306,,,2017_Sep_28_1438,60.0059278414,MAFE4ImagesEEG,001,101920,
AFNE01.JPG,AFNE01.JPG,AFNE01.JPG,AFNE01.JPG,AFNE01.JPG,AFNE01.JPG,,,,,5,5,55,1,,,,,,,,,,,,,,,,,,,AFSA01.jpg,AFNE05.jpg,AFNE03.jpg,AFSA07.jpg,AFSA01.jpg,FS,4,num_8,32,num_6,0.733461864409,,,2017_Sep_28_1438,60.0059278414,MAFE4ImagesEEG,001,101920,
AFNE01.JPG,AFNE01.JPG,AFNE01.JPG,AFNE01.JPG,AFNE01.JPG,AFNE01.JPG,,,,,5,6,56,9,,,,,,,,,,,,,,,,,,,AFNE08.jpg,AFSA13.jpg,AFSA01.jpg,AFNE06.jpg,AFSA13.jpg,FS,4,num_6,32,num_8,1.08345034986,,,2017_Sep_28_1438,60.0059278414,MAFE4ImagesEEG,001,101920,
AFNE01.JPG,AFNE01.JPG,AFNE01.JPG,AFNE01.JPG,AFNE01.JPG,AFNE01.JPG,,,,,5,7,57,7,,,,,,,,,,,,,,,,,,,AFSA12.jpg,AFNE16.jpg,AFSA02.jpg,AFNE15.jpg,AFSA02.jpg,FS,4,num_2,32,num_4,0.28351392044,,,2017_Sep_28_1438,60.0059278414,MAFE4ImagesEEG,001,101920,
AFNE01.JPG,AFNE01.JPG,AFNE01.JPG,AFNE01.JPG,AFNE01.JPG,AFNE01.JPG,,,,,5,8,58,0,,,,,,,,,,,,,,,,,,,AFSA09.jpg,AFSA05.jpg,AFNE11.jpg,AFNE17.jpg,AFNE11.jpg,FN,3,num_2,32,num_8,0.783500449324,,,2017_Sep_28_1438,60.0059278414,MAFE4ImagesEEG,001,101920,
AFNE01.JPG,AFNE01.JPG,AFNE01.JPG,AFNE01.JPG,AFNE01.JPG,AFNE01.JPG,,,,,5,9,59,3,,,,,,,,,,,,,,,,,,,AFSA09.jpg,AFNE12.jpg,AFSA08.jpg,AFNE05.jpg,AFSA08.jpg,FS,4,num_2,16,num_2,0.883552280895,,,2017_Sep_28_1438,60.0059278414,MAFE4ImagesEEG,001,101920,
,,,,,,,,,,,,,,,,,,,,,,,,,,,,,,,,,,,,,,,,,,,space,33.6975005405,2017_Sep_28_1438,60.0059278414,MAFE4ImagesEEG,001,101920,
AFNE01.JPG,AFNE01.JPG,AFNE01.JPG,AFNE01.JPG,AFNE01.JPG,AFNE01.JPG,,,,,,,,,0,0,0,9,,,,,,,,,,,,,,,AMNE09.jpg,AMSA10.jpg,AMNE08.jpg,AMSA08.jpg,AMNE09.jpg,MN,1,num_8,16,num_8,0.800183398882,,,2017_Sep_28_1438,60.0059278414,MAFE4ImagesEEG,001,101920,
AFNE01.JPG,AFNE01.JPG,AFNE01.JPG,AFNE01.JPG,AFNE01.JPG,AFNE01.JPG,,,,,,,,,0,1,1,8,,,,,,,,,,,,,,,AMSA03.jpg,AMNE16.jpg,AMSA11.jpg,AMNE14.jpg,AMNE16.jpg,MN,1,num_6,16,num_6,0.416835108423,,,2017_Sep_28_1438,60.0059278414,MAFE4ImagesEEG,001,101920,
AFNE01.JPG,AFNE01.JPG,AFNE01.JPG,AFNE01.JPG,AFNE01.JPG,AFNE01.JPG,,,,,,,,,0,2,2,4,,,,,,,,,,,,,,,AMSA04.jpg,AMNE02.jpg,AMSA05.jpg,AMNE15.jpg,AMNE15.jpg,MN,1,num_4,16,num_4,0.866812560416,,,2017_Sep_28_1438,60.0059278414,MAFE4ImagesEEG,001,101920,
AFNE01.JPG,AFNE01.JPG,AFNE01.JPG,AFNE01.JPG,AFNE01.JPG,AFNE01.JPG,,,,,,,,,0,3,3,5,,,,,,,,,,,,,,,AMNE20.jpg,AMNE05.jpg,AMSA11.jpg,AMSA04.jpg,AMSA11.jpg,MS,2,num_2,32,num_6,0.600222785724,,,2017_Sep_28_1438,60.0059278414,MAFE4ImagesEEG,001,101920,
AFNE01.JPG,AFNE01.JPG,AFNE01.JPG,AFNE01.JPG,AFNE01.JPG,AFNE01.JPG,,,,,,,,,0,4,4,7,,,,,,,,,,,,,,,AMNE04.jpg,AMSA10.jpg,AMSA02.jpg,AMNE06.jpg,AMNE06.jpg,MN,1,num_4,16,num_4,0.566818718624,,,2017_Sep_28_1438,60.0059278414,MAFE4ImagesEEG,001,101920,
AFNE01.JPG,AFNE01.JPG,AFNE01.JPG,AFNE01.JPG,AFNE01.JPG,AFNE01.JPG,,,,,,,,,0,5,5,0,,,,,,,,,,,,,,,AMNE15.jpg,AMSA12.jpg,AMSA07.jpg,AMNE11.jpg,AMNE11.jpg,MN,1,num_4,16,num_4,0.400214382389,,,2017_Sep_28_1438,60.0059278414,MAFE4ImagesEEG,001,101920,
AFNE01.JPG,AFNE01.JPG,AFNE01.JPG,AFNE01.JPG,AFNE01.JPG,AFNE01.JPG,,,,,,,,,0,6,6,3,,,,,,,,,,,,,,,AMSA18.jpg,AMSA12.jpg,AMNE20.jpg,AMNE11.jpg,AMNE11.jpg,MN,1,num_4,32,num_6,0.816794823506,,,2017_Sep_28_1438,60.0059278414,MAFE4ImagesEEG,001,101920,
AFNE01.JPG,AFNE01.JPG,AFNE01.JPG,AFNE01.JPG,AFNE01.JPG,AFNE01.JPG,,,,,,,,,0,7,7,6,,,,,,,,,,,,,,,AMSA03.jpg,AMSA20.jpg,AMNE15.jpg,AMNE10.jpg,AMNE15.jpg,MN,1,num_2,16,num_2,1.0501197321,,,2017_Sep_28_1438,60.0059278414,MAFE4ImagesEEG,001,101920,
AFNE01.JPG,AFNE01.JPG,AFNE01.JPG,AFNE01.JPG,AFNE01.JPG,AFNE01.JPG,,,,,,,,,0,8,8,1,,,,,,,,,,,,,,,AMNE14.jpg,AMSA13.jpg,AMNE13.jpg,AMSA12.jpg,AMSA12.jpg,MS,2,num_4,32,num_6,0.700129963632,,,2017_Sep_28_1438,60.0059278414,MAFE4ImagesEEG,001,101920,
AFNE01.JPG,AFNE01.JPG,AFNE01.JPG,AFNE01.JPG,AFNE01.JPG,AFNE01.JPG,,,,,,,,,0,9,9,2,,,,,,,,,,,,,,,AMSA01.jpg,AMNE12.jpg,AMNE06.jpg,AMSA08.jpg,AMSA01.jpg,MS,2,num_8,32,num_4,0.333519148466,,,2017_Sep_28_1438,60.0059278414,MAFE4ImagesEEG,001,101920,
AFNE01.JPG,AFNE01.JPG,AFNE01.JPG,AFNE01.JPG,AFNE01.JPG,AFNE01.JPG,,,,,,,,,1,0,10,1,,,,,,,,,,,,,,,AMNE03.jpg,AMNE13.jpg,AMSA06.jpg,AMSA04.jpg,AMSA06.jpg,MS,2,num_2,32,num_6,0.483439893753,,,2017_Sep_28_1438,60.0059278414,MAFE4ImagesEEG,001,101920,
AFNE01.JPG,AFNE01.JPG,AFNE01.JPG,AFNE01.JPG,AFNE01.JPG,AFNE01.JPG,,,,,,,,,1,1,11,9,,,,,,,,,,,,,,,AMSA08.jpg,AMNE18.jpg,AMSA15.jpg,AMNE03.jpg,AMNE18.jpg,MN,1,num_6,32,num_8,0.300137853832,,,2017_Sep_28_1438,60.0059278414,MAFE4ImagesEEG,001,101920,
AFNE01.JPG,AFNE01.JPG,AFNE01.JPG,AFNE01.JPG,AFNE01.JPG,AFNE01.JPG,,,,,,,,,1,2,12,4,,,,,,,,,,,,,,,AMNE12.jpg,AMSA05.jpg,AMNE15.jpg,AMSA09.jpg,AMSA09.jpg,MS,2,num_4,32,num_8,0.266904099495,,,2017_Sep_28_1438,60.0059278414,MAFE4ImagesEEG,001,101920,
AFNE01.JPG,AFNE01.JPG,AFNE01.JPG,AFNE01.JPG,AFNE01.JPG,AFNE01.JPG,,,,,,,,,1,3,13,6,,,,,,,,,,,,,,,AMNE16.jpg,AMNE13.jpg,AMSA15.jpg,AMSA17.jpg,AMNE13.jpg,MN,1,num_6,32,num_4,0.383458945667,,,2017_Sep_28_1438,60.0059278414,MAFE4ImagesEEG,001,101920,
AFNE01.JPG,AFNE01.JPG,AFNE01.JPG,AFNE01.JPG,AFNE01.JPG,AFNE01.JPG,,,,,,,,,1,4,14,3,,,,,,,,,,,,,,,AMNE13.jpg,AMNE16.jpg,AMSA13.jpg,AMSA08.jpg,AMNE16.jpg,MN,1,num_6,16,num_6,0.450218006736,,,2017_Sep_28_1438,60.0059278414,MAFE4ImagesEEG,001,101920,
AFNE01.JPG,AFNE01.JPG,AFNE01.JPG,AFNE01.JPG,AFNE01.JPG,AFNE01.JPG,,,,,,,,,1,5,15,0,,,,,,,,,,,,,,,AMSA12.jpg,AMSA16.jpg,AMNE17.jpg,AMNE03.jpg,AMNE03.jpg,MN,1,num_4,16,num_4,0.717056996073,,,2017_Sep_28_1438,60.0059278414,MAFE4ImagesEEG,001,101920,
AFNE01.JPG,AFNE01.JPG,AFNE01.JPG,AFNE01.JPG,AFNE01.JPG,AFNE01.JPG,,,,,,,,,1,6,16,7,,,,,,,,,,,,,,,AMSA19.jpg,AMSA02.jpg,AMNE15.jpg,AMNE20.jpg,AMNE20.jpg,MN,1,num_4,16,num_4,0.566839566687,,,2017_Sep_28_1438,60.0059278414,MAFE4ImagesEEG,001,101920,
AFNE01.JPG,AFNE01.JPG,AFNE01.JPG,AFNE01.JPG,AFNE01.JPG,AFNE01.JPG,,,,,,,,,1,7,17,5,,,,,,,,,,,,,,,AMSA14.jpg,AMSA20.jpg,AMNE20.jpg,AMNE18.jpg,AMNE20.jpg,MN,1,num_2,16,num_2,0.950148726988,,,2017_Sep_28_1438,60.0059278414,MAFE4ImagesEEG,001,101920,
AFNE01.JPG,AFNE01.JPG,AFNE01.JPG,AFNE01.JPG,AFNE01.JPG,AFNE01.JPG,,,,,,,,,1,8,18,8,,,,,,,,,,,,,,,AMSA02.jpg,AMNE09.jpg,AMNE13.jpg,AMSA13.jpg,AMNE13.jpg,MN,1,num_2,16,num_2,1.0334319715,,,2017_Sep_28_1438,60.0059278414,MAFE4ImagesEEG,001,101920,
AFNE01.JPG,AFNE01.JPG,AFNE01.JPG,AFNE01.JPG,AFNE01.JPG,AFNE01.JPG,,,,,,,,,1,9,19,2,,,,,,,,,,,,,,,AMSA19.jpg,AMSA18.jpg,AMNE02.jpg,AMNE11.jpg,AMNE11.jpg,MN,1,num_4,16,num_4,0.550167201553,,,2017_Sep_28_1438,60.0059278414,MAFE4ImagesEEG,001,101920,
AFNE01.JPG,AFNE01.JPG,AFNE01.JPG,AFNE01.JPG,AFNE01.JPG,AFNE01.JPG,,,,,,,,,2,0,20,4,,,,,,,,,,,,,,,AMSA15.jpg,AMSA19.jpg,AMNE19.jpg,AMNE16.jpg,AMSA15.jpg,MS,2,num_8,16,num_8,0.91680303443,,,2017_Sep_28_1438,60.0059278414,MAFE4ImagesEEG,001,101920,
AFNE01.JPG,AFNE01.JPG,AFNE01.JPG,AFNE01.JPG,AFNE01.JPG,AFNE01.JPG,,,,,,,,,2,1,21,0,,,,,,,,,,,,,,,AMSA08.jpg,AMNE13.jpg,AMNE01.jpg,AMSA15.jpg,AMNE13.jpg,MN,1,num_6,16,num_6,0.083542402077,,,2017_Sep_28_1438,60.0059278414,MAFE4ImagesEEG,001,101920,
AFNE01.JPG,AFNE01.JPG,AFNE01.JPG,AFNE01.JPG,AFNE01.JPG,AFNE01.JPG,,,,,,,,,2,2,22,1,,,,,,,,,,,,,,,AMNE15.jpg,AMSA10.jpg,AMNE04.jpg,AMSA14.jpg,AMSA14.jpg,MS,2,num_4,32,num_8,0.45016765059,,,2017_Sep_28_1438,60.0059278414,MAFE4ImagesEEG,001,101920,
AFNE01.JPG,AFNE01.JPG,AFNE01.JPG,AFNE01.JPG,AFNE01.JPG,AFNE01.JPG,,,,,,,,,2,3,23,5,,,,,,,,,,,,,,,AMSA16.jpg,AMNE02.jpg,AMNE17.jpg,AMSA14.jpg,AMSA16.jpg,MS,2,num_8,32,num_6,0.916792770789,,,2017_Sep_28_1438,60.0059278414,MAFE4ImagesEEG,001,101920,
AFNE01.JPG,AFNE01.JPG,AFNE01.JPG,AFNE01.JPG,AFNE01.JPG,AFNE01.JPG,,,,,,,,,2,4,24,2,,,,,,,,,,,,,,,AMSA14.jpg,AMNE05.jpg,AMSA06.jpg,AMNE18.jpg,AMNE18.jpg,MN,1,num_4,16,num_4,0.983392745024,,,2017_Sep_28_1438,60.0059278414,MAFE4ImagesEEG,001,101920,
AFNE01.JPG,AFNE01.JPG,AFNE01.JPG,AFNE01.JPG,AFNE01.JPG,AFNE01.JPG,,,,,,,,,2,5,25,7,,,,,,,,,,,,,,,AMSA16.jpg,AMSA20.jpg,AMNE02.jpg,AMNE18.jpg,AMNE02.jpg,MN,1,num_2,32,num_6,1.28337888903,,,2017_Sep_28_1438,60.0059278414,MAFE4ImagesEEG,001,101920,
AFNE01.JPG,AFNE01.JPG,AFNE01.JPG,AFNE01.JPG,AFNE01.JPG,AFNE01.JPG,,,,,,,,,2,6,26,6,,,,,,,,,,,,,,,AMSA05.jpg,AMSA03.jpg,AMNE03.jpg,AMNE18.jpg,AMSA03.jpg,MS,2,num_6,16,num_6,0.38382811693,,,2017_Sep_28_1438,60.0059278414,MAFE4ImagesEEG,001,101920,
AFNE01.JPG,AFNE01.JPG,AFNE01.JPG,AFNE01.JPG,AFNE01.JPG,AFNE01.JPG,,,,,,,,,2,7,27,9,,,,,,,,,,,,,,,AMNE11.jpg,AMSA04.jpg,AMNE14.jpg,AMSA17.jpg,AMNE11.jpg,MN,1,num_8,32,num_4,0.683525595348,,,2017_Sep_28_1438,60.0059278414,MAFE4ImagesEEG,001,101920,
AFNE01.JPG,AFNE01.JPG,AFNE01.JPG,AFNE01.JPG,AFNE01.JPG,AFNE01.JPG,,,,,,,,,2,8,28,3,,,,,,,,,,,,,,,AMSA08.jpg,AMNE02.jpg,AMSA01.jpg,AMNE13.jpg,AMNE02.jpg,MN,1,num_6,16,num_6,0.966819488385,,,2017_Sep_28_1438,60.0059278414,MAFE4ImagesEEG,001,101920,
AFNE01.JPG,AFNE01.JPG,AFNE01.JPG,AFNE01.JPG,AFNE01.JPG,AFNE01.JPG,,,,,,,,,2,9,29,8,,,,,,,,,,,,,,,AMSA12.jpg,AMNE06.jpg,AMSA10.jpg,AMNE18.jpg,AMSA10.jpg,MS,2,num_2,32,num_8,0.750185547862,,,2017_Sep_28_1438,60.0059278414,MAFE4ImagesEEG,001,101920,
AFNE01.JPG,AFNE01.JPG,AFNE01.JPG,AFNE01.JPG,AFNE01.JPG,AFNE01.JPG,,,,,,,,,3,0,30,9,,,,,,,,,,,,,,,AMNE14.jpg,AMSA14.jpg,AMSA11.jpg,AMNE04.jpg,AMSA14.jpg,MS,2,num_6,16,num_6,0.866799089359,,,2017_Sep_28_1438,60.0059278414,MAFE4ImagesEEG,001,101920,
AFNE01.JPG,AFNE01.JPG,AFNE01.JPG,AFNE01.JPG,AFNE01.JPG,AFNE01.JPG,,,,,,,,,3,1,31,0,,,,,,,,,,,,,,,AMNE20.jpg,AMNE08.jpg,AMSA12.jpg,AMSA01.jpg,AMNE20.jpg,MN,1,num_8,16,num_8,0.933493040269,,,2017_Sep_28_1438,60.0059278414,MAFE4ImagesEEG,001,101920,
AFNE01.JPG,AFNE01.JPG,AFNE01.JPG,AFNE01.JPG,AFNE01.JPG,AFNE01.JPG,,,,,,,,,3,2,32,6,,,,,,,,,,,,,,,AMNE04.jpg,AMNE10.jpg,AMSA16.jpg,AMSA12.jpg,AMSA12.jpg,MS,2,num_4,16,num_4,0.683498011786,,,2017_Sep_28_1438,60.0059278414,MAFE4ImagesEEG,001,101920,
AFNE01.JPG,AFNE01.JPG,AFNE01.JPG,AFNE01.JPG,AFNE01.JPG,AFNE01.JPG,,,,,,,,,3,3,33,8,,,,,,,,,,,,,,,AMNE16.jpg,AMNE12.jpg,AMSA04.jpg,AMSA08.jpg,AMNE12.jpg,MN,1,num_6,16,num_6,0.500152672059,,,2017_Sep_28_1438,60.0059278414,MAFE4ImagesEEG,001,101920,
AFNE01.JPG,AFNE01.JPG,AFNE01.JPG,AFNE01.JPG,AFNE01.JPG,AFNE01.JPG,,,,,,,,,3,4,34,4,,,,,,,,,,,,,,,AMNE04.jpg,AMSA07.jpg,AMNE05.jpg,AMSA20.jpg,AMSA07.jpg,MS,2,num_6,16,num_6,0.466818526213,,,2017_Sep_28_1438,60.0059278414,MAFE4ImagesEEG,001,101920,
AFNE01.JPG,AFNE01.JPG,AFNE01.JPG,AFNE01.JPG,AFNE01.JPG,AFNE01.JPG,,,,,,,,,3,5,35,1,,,,,,,,,,,,,,,AMNE19.jpg,AMSA07.jpg,AMNE10.jpg,AMSA16.jpg,AMSA16.jpg,MS,2,num_4,32,num_8,0.66680319485,,,2017_Sep_28_1438,60.0059278414,MAFE4ImagesEEG,001,101920,
AFNE01.JPG,AFNE01.JPG,AFNE01.JPG,AFNE01.JPG,AFNE01.JPG,AFNE01.JPG,,,,,,,,,3,6,36,5,,,,,,,,,,,,,,,AMNE12.jpg,AMNE02.jpg,AMSA13.jpg,AMSA20.jpg,AMNE12.jpg,MN,1,num_8,32,num_4,0.733570595097,,,2017_Sep_28_1438,60.0059278414,MAFE4ImagesEEG,001,101920,
AFNE01.JPG,AFNE01.JPG,AFNE01.JPG,AFNE01.JPG,AFNE01.JPG,AFNE01.JPG,,,,,,,,,3,7,37,2,,,,,,,,,,,,,,,AMSA02.jpg,AMNE18.jpg,AMSA04.jpg,AMNE15.jpg,AMNE15.jpg,MN,1,num_4,32,num_6,0.766799859121,,,2017_Sep_28_1438,60.0059278414,MAFE4ImagesEEG,001,101920,
AFNE01.JPG,AFNE01.JPG,AFNE01.JPG,AFNE01.JPG,AFNE01.JPG,AFNE01.JPG,,,,,,,,,3,8,38,3,,,,,,,,,,,,,,,AMSA10.jpg,AMNE10.jpg,AMSA06.jpg,AMNE14.jpg,AMNE14.jpg,MN,1,num_4,32,num_6,0.933440438937,,,2017_Sep_28_1438,60.0059278414,MAFE4ImagesEEG,001,101920,
AFNE01.JPG,AFNE01.JPG,AFNE01.JPG,AFNE01.JPG,AFNE01.JPG,AFNE01.JPG,,,,,,,,,3,9,39,7,,,,,,,,,,,,,,,AMNE14.jpg,AMSA16.jpg,AMSA19.jpg,AMNE15.jpg,AMNE15.jpg,MN,1,num_4,16,num_4,0.883456058975,,,2017_Sep_28_1438,60.0059278414,MAFE4ImagesEEG,001,101920,
AFNE01.JPG,AFNE01.JPG,AFNE01.JPG,AFNE01.JPG,AFNE01.JPG,AFNE01.JPG,,,,,,,,,4,0,40,6,,,,,,,,,,,,,,,AMNE18.jpg,AMNE01.jpg,AMSA20.jpg,AMSA07.jpg,AMSA20.jpg,MS,2,num_2,16,num_2,1.7834010201,,,2017_Sep_28_1438,60.0059278414,MAFE4ImagesEEG,001,101920,
AFNE01.JPG,AFNE01.JPG,AFNE01.JPG,AFNE01.JPG,AFNE01.JPG,AFNE01.JPG,,,,,,,,,4,1,41,4,,,,,,,,,,,,,,,AMNE07.jpg,AMSA15.jpg,AMSA17.jpg,AMNE11.jpg,AMNE07.jpg,MN,1,num_8,32,num_4,1.03347334685,,,2017_Sep_28_1438,60.0059278414,MAFE4ImagesEEG,001,101920,
AFNE01.JPG,AFNE01.JPG,AFNE01.JPG,AFNE01.JPG,AFNE01.JPG,AFNE01.JPG,,,,,,,,,4,2,42,3,,,,,,,,,,,,,,,AMSA15.jpg,AMSA10.jpg,AMNE08.jpg,AMNE05.jpg,AMNE08.jpg,MN,1,num_2,16,num_2,1.21681130951,,,2017_Sep_28_1438,60.0059278414,MAFE4ImagesEEG,001,101920,
AFNE01.JPG,AFNE01.JPG,AFNE01.JPG,AFNE01.JPG,AFNE01.JPG,AFNE01.JPG,,,,,,,,,4,3,43,7,,,,,,,,,,,,,,,AMNE06.jpg,AMNE18.jpg,AMSA01.jpg,AMSA04.jpg,AMSA01.jpg,MS,2,num_2,32,num_4,1.10010379134,,,2017_Sep_28_1438,60.0059278414,MAFE4ImagesEEG,001,101920,
AFNE01.JPG,AFNE01.JPG,AFNE01.JPG,AFNE01.JPG,AFNE01.JPG,AFNE01.JPG,,,,,,,,,4,4,44,9,,,,,,,,,,,,,,,AMSA17.jpg,AMSA19.jpg,AMNE08.jpg,AMNE15.jpg,AMSA19.jpg,MS,2,num_6,16,num_6,0.53351376002,,,2017_Sep_28_1438,60.0059278414,MAFE4ImagesEEG,001,101920,
AFNE01.JPG,AFNE01.JPG,AFNE01.JPG,AFNE01.JPG,AFNE01.JPG,AFNE01.JPG,,,,,,,,,4,5,45,8,,,,,,,,,,,,,,,AMSA18.jpg,AMSA20.jpg,AMNE07.jpg,AMNE14.jpg,AMNE07.jpg,MN,1,num_2,16,num_2,1.60009513132,,,2017_Sep_28_1438,60.0059278414,MAFE4ImagesEEG,001,101920,
AFNE01.JPG,AFNE01.JPG,AFNE01.JPG,AFNE01.JPG,AFNE01.JPG,AFNE01.JPG,,,,,,,,,4,6,46,0,,,,,,,,,,,,,,,AMSA16.jpg,AMNE04.jpg,AMSA04.jpg,AMNE02.jpg,AMNE02.jpg,MN,1,num_4,16,num_4,0.666780743049,,,2017_Sep_28_1438,60.0059278414,MAFE4ImagesEEG,001,101920,
AFNE01.JPG,AFNE01.JPG,AFNE01.JPG,AFNE01.JPG,AFNE01.JPG,AFNE01.JPG,,,,,,,,,4,7,47,1,,,,,,,,,,,,,,,AMNE09.jpg,AMSA05.jpg,AMSA10.jpg,AMNE06.jpg,AMSA05.jpg,MS,2,num_6,16,num_6,0.616863718373,,,2017_Sep_28_1438,60.0059278414,MAFE4ImagesEEG,001,101920,
AFNE01.JPG,AFNE01.JPG,AFNE01.JPG,AFNE01.JPG,AFNE01.JPG,AFNE01.JPG,,,,,,,,,4,8,48,5,,,,,,,,,,,,,,,AMNE20.jpg,AMSA18.jpg,AMSA16.jpg,AMNE16.jpg,AMSA16.jpg,MS,2,num_2,32,num_4,1.06676900398,,,2017_Sep_28_1438,60.0059278414,MAFE4ImagesEEG,001,101920,
AFNE01.JPG,AFNE01.JPG,AFNE01.JPG,AFNE01.JPG,AFNE01.JPG,AFNE01.JPG,,,,,,,,,4,9,49,2,,,,,,,,,,,,,,,AMNE08.jpg,AMSA07.jpg,AMNE07.jpg,AMSA14.jpg,AMNE08.jpg,MN,1,num_8,16,num_8,0.950183046109,,,2017_Sep_28_1438,60.0059278414,MAFE4ImagesEEG,001,101920,
AFNE01.JPG,AFNE01.JPG,AFNE01.JPG,AFNE01.JPG,AFNE01.JPG,AFNE01.JPG,,,,,,,,,5,0,50,5,,,,,,,,,,,,,,,AMNE08.jpg,AMSA01.jpg,AMNE04.jpg,AMSA07.jpg,AMSA07.jpg,MS,2,num_4,16,num_4,0.950115049316,,,2017_Sep_28_1438,60.0059278414,MAFE4ImagesEEG,001,101920,
AFNE01.JPG,AFNE01.JPG,AFNE01.JPG,AFNE01.JPG,AFNE01.JPG,AFNE01.JPG,,,,,,,,,5,1,51,9,,,,,,,,,,,,,,,AMNE20.jpg,AMNE11.jpg,AMSA14.jpg,AMSA08.jpg,AMNE20.jpg,MN,1,num_8,32,num_6,0.733490410203,,,2017_Sep_28_1438,60.0059278414,MAFE4ImagesEEG,001,101920,
AFNE01.JPG,AFNE01.JPG,AFNE01.JPG,AFNE01.JPG,AFNE01.JPG,AFNE01.JPG,,,,,,,,,5,2,52,8,,,,,,,,,,,,,,,AMNE14.jpg,AMSA05.jpg,AMSA08.jpg,AMNE03.jpg,AMNE03.jpg,MN,1,num_4,16,num_4,0.716760311974,,,2017_Sep_28_1438,60.0059278414,MAFE4ImagesEEG,001,101920,
AFNE01.JPG,AFNE01.JPG,AFNE01.JPG,AFNE01.JPG,AFNE01.JPG,AFNE01.JPG,,,,,,,,,5,3,53,6,,,,,,,,,,,,,,,AMNE08.jpg,AMNE18.jpg,AMSA02.jpg,AMSA13.jpg,AMNE08.jpg,MN,1,num_8,16,num_8,0.733494259068,,,2017_Sep_28_1438,60.0059278414,MAFE4ImagesEEG,001,101920,
AFNE01.JPG,AFNE01.JPG,AFNE01.JPG,AFNE01.JPG,AFNE01.JPG,AFNE01.JPG,,,,,,,,,5,4,54,0,,,,,,,,,,,,,,,AMSA04.jpg,AMSA08.jpg,AMNE19.jpg,AMNE02.jpg,AMNE02.jpg,MN,1,num_4,32,num_8,0.683499936189,,,2017_Sep_28_1438,60.0059278414,MAFE4ImagesEEG,001,101920,
AFNE01.JPG,AFNE01.JPG,AFNE01.JPG,AFNE01.JPG,AFNE01.JPG,AFNE01.JPG,,,,,,,,,5,5,55,1,,,,,,,,,,,,,,,AMNE05.jpg,AMSA09.jpg,AMNE15.jpg,AMSA06.jpg,AMNE05.jpg,MN,1,num_8,16,num_8,0.666773366043,,,2017_Sep_28_1438,60.0059278414,MAFE4ImagesEEG,001,101920,
AFNE01.JPG,AFNE01.JPG,AFNE01.JPG,AFNE01.JPG,AFNE01.JPG,AFNE01.JPG,,,,,,,,,5,6,56,2,,,,,,,,,,,,,,,AMNE16.jpg,AMSA02.jpg,AMNE10.jpg,AMSA10.jpg,AMSA02.jpg,MS,2,num_6,16,num_6,1.10009577282,,,2017_Sep_28_1438,60.0059278414,MAFE4ImagesEEG,001,101920,
AFNE01.JPG,AFNE01.JPG,AFNE01.JPG,AFNE01.JPG,AFNE01.JPG,AFNE01.JPG,,,,,,,,,5,7,57,7,,,,,,,,,,,,,,,AMSA06.jpg,AMNE09.jpg,AMNE08.jpg,AMSA11.jpg,AMSA06.jpg,MS,2,num_8,16,num_8,0.500135672803,,,2017_Sep_28_1438,60.0059278414,MAFE4ImagesEEG,001,101920,
AFNE01.JPG,AFNE01.JPG,AFNE01.JPG,AFNE01.JPG,AFNE01.JPG,AFNE01.JPG,,,,,,,,,5,8,58,4,,,,,,,,,,,,,,,AMSA18.jpg,AMNE18.jpg,AMSA13.jpg,AMNE02.jpg,AMNE02.jpg,MN,1,num_4,32,num_6,1.33350086631,,,2017_Sep_28_1438,60.0059278414,MAFE4ImagesEEG,001,101920,
AFNE01.JPG,AFNE01.JPG,AFNE01.JPG,AFNE01.JPG,AFNE01.JPG,AFNE01.JPG,,,,,,,,,5,9,59,3,,,,,,,,,,,,,,,AMSA09.jpg,AMNE06.jpg,AMNE12.jpg,AMSA20.jpg,AMSA20.jpg,MS,2,num_4,32,num_8,0.73346282664,,,2017_Sep_28_1438,60.0059278414,MAFE4ImagesEEG,001,101920,
,,,,,,,,,,,,,,,,,,,,,,,,,,,,,,,,,,,,,,,,,,,space,33.7311964806,2017_Sep_28_1438,60.0059278414,MAFE4ImagesEEG,001,101920,
AFNE01.JPG,AFNE01.JPG,AFNE01.JPG,AFNE01.JPG,AFNE01.JPG,AFNE01.JPG,,,,,,,,,,,,,0,0,0,6,,,,,,,,,,,AFNE09.jpg,AFNE15.jpg,AFSA07.jpg,AFSA12.jpg,AFSA12.jpg,FS,4,num_4,16,num_4,0.600198088796,,,2017_Sep_28_1438,60.0059278414,MAFE4ImagesEEG,001,101920,
AFNE01.JPG,AFNE01.JPG,AFNE01.JPG,AFNE01.JPG,AFNE01.JPG,AFNE01.JPG,,,,,,,,,,,,,0,1,1,4,,,,,,,,,,,AFSA11.jpg,AFNE07.jpg,AFSA09.jpg,AFNE20.jpg,AFSA09.jpg,FS,4,num_2,16,num_2,1.05009824253,,,2017_Sep_28_1438,60.0059278414,MAFE4ImagesEEG,001,101920,
AFNE01.JPG,AFNE01.JPG,AFNE01.JPG,AFNE01.JPG,AFNE01.JPG,AFNE01.JPG,,,,,,,,,,,,,0,2,2,2,,,,,,,,,,,AFNE03.jpg,AFSA04.jpg,AFNE07.jpg,AFSA11.jpg,AFNE03.jpg,FN,3,num_8,32,num_4,0.833466867916,,,2017_Sep_28_1438,60.0059278414,MAFE4ImagesEEG,001,101920,
AFNE01.JPG,AFNE01.JPG,AFNE01.JPG,AFNE01.JPG,AFNE01.JPG,AFNE01.JPG,,,,,,,,,,,,,0,3,3,5,,,,,,,,,,,AFNE10.jpg,AFNE05.jpg,AFSA18.jpg,AFSA02.jpg,AFNE10.jpg,FN,3,num_8,16,num_8,0.666798062972,,,2017_Sep_28_1438,60.0059278414,MAFE4ImagesEEG,001,101920,
AFNE01.JPG,AFNE01.JPG,AFNE01.JPG,AFNE01.JPG,AFNE01.JPG,AFNE01.JPG,,,,,,,,,,,,,0,4,4,9,,,,,,,,,,,AFNE18.jpg,AFSA18.jpg,AFSA03.jpg,AFNE19.jpg,AFSA03.jpg,FS,4,num_2,32,num_6,0.316955514078,,,2017_Sep_28_1438,60.0059278414,MAFE4ImagesEEG,001,101920,
AFNE01.JPG,AFNE01.JPG,AFNE01.JPG,AFNE01.JPG,AFNE01.JPG,AFNE01.JPG,,,,,,,,,,,,,0,5,5,3,,,,,,,,,,,AFNE15.jpg,AFSA11.jpg,AFNE06.jpg,AFSA09.jpg,AFNE15.jpg,FN,3,num_8,32,num_2,0.433508435788,,,2017_Sep_28_1438,60.0059278414,MAFE4ImagesEEG,001,101920,
AFNE01.JPG,AFNE01.JPG,AFNE01.JPG,AFNE01.JPG,AFNE01.JPG,AFNE01.JPG,,,,,,,,,,,,,0,6,6,7,,,,,,,,,,,AFNE20.jpg,AFSA17.jpg,AFSA19.jpg,AFNE09.jpg,AFNE20.jpg,FN,3,num_8,32,num_2,0.0835754383006,,,2017_Sep_28_1438,60.0059278414,MAFE4ImagesEEG,001,101920,
AFNE01.JPG,AFNE01.JPG,AFNE01.JPG,AFNE01.JPG,AFNE01.JPG,AFNE01.JPG,,,,,,,,,,,,,0,7,7,0,,,,,,,,,,,AFSA19.jpg,AFSA20.jpg,AFNE06.jpg,AFNE03.jpg,AFSA20.jpg,FS,4,num_6,32,num_8,0.683493842138,,,2017_Sep_28_1438,60.0059278414,MAFE4ImagesEEG,001,101920,
AFNE01.JPG,AFNE01.JPG,AFNE01.JPG,AFNE01.JPG,AFNE01.JPG,AFNE01.JPG,,,,,,,,,,,,,0,8,8,8,,,,,,,,,,,AFSA02.jpg,AFNE07.jpg,AFNE04.jpg,AFSA14.jpg,AFNE04.jpg,FN,3,num_2,32,num_8,0.600185259187,,,2017_Sep_28_1438,60.0059278414,MAFE4ImagesEEG,001,101920,
AFNE01.JPG,AFNE01.JPG,AFNE01.JPG,AFNE01.JPG,AFNE01.JPG,AFNE01.JPG,,,,,,,,,,,,,0,9,9,1,,,,,,,,,,,AFNE04.jpg,AFNE11.jpg,AFSA14.jpg,AFSA15.jpg,AFNE11.jpg,FN,3,num_6,16,num_6,0.500220348069,,,2017_Sep_28_1438,60.0059278414,MAFE4ImagesEEG,001,101920,
AFNE01.JPG,AFNE01.JPG,AFNE01.JPG,AFNE01.JPG,AFNE01.JPG,AFNE01.JPG,,,,,,,,,,,,,1,0,10,0,,,,,,,,,,,AFSA17.jpg,AFSA03.jpg,AFNE08.jpg,AFNE10.jpg,AFNE10.jpg,FN,3,num_4,32,num_8,0.916736962099,,,2017_Sep_28_1438,60.0059278414,MAFE4ImagesEEG,001,101920,
AFNE01.JPG,AFNE01.JPG,AFNE01.JPG,AFNE01.JPG,AFNE01.JPG,AFNE01.JPG,,,,,,,,,,,,,1,1,11,2,,,,,,,,,,,AFSA02.jpg,AFNE12.jpg,AFSA15.jpg,AFNE01.jpg,AFSA15.jpg,FS,4,num_2,32,num_4,0.983482231386,,,2017_Sep_28_1438,60.0059278414,MAFE4ImagesEEG,001,101920,
AFNE01.JPG,AFNE01.JPG,AFNE01.JPG,AFNE01.JPG,AFNE01.JPG,AFNE01.JPG,,,,,,,,,,,,,1,2,12,6,,,,,,,,,,,AFNE18.jpg,AFSA12.jpg,AFSA17.jpg,AFNE16.jpg,AFSA12.jpg,FS,4,num_6,16,num_6,0.600158317073,,,2017_Sep_28_1438,60.0059278414,MAFE4ImagesEEG,001,101920,
AFNE01.JPG,AFNE01.JPG,AFNE01.JPG,AFNE01.JPG,AFNE01.JPG,AFNE01.JPG,,,,,,,,,,,,,1,3,13,7,,,,,,,,,,,AFSA19.jpg,AFSA01.jpg,AFNE19.jpg,AFNE01.jpg,AFNE01.jpg,FN,3,num_4,16,num_4,0.849969561794,,,2017_Sep_28_1438,60.0059278414,MAFE4ImagesEEG,001,101920,
AFNE01.JPG,AFNE01.JPG,AFNE01.JPG,AFNE01.JPG,AFNE01.JPG,AFNE01.JPG,,,,,,,,,,,,,1,4,14,5,,,,,,,,,,,AFNE05.jpg,AFSA05.jpg,AFNE09.jpg,AFSA10.jpg,AFSA05.jpg,FS,4,num_6,16,num_6,0.683490634721,,,2017_Sep_28_1438,60.0059278414,MAFE4ImagesEEG,001,101920,
AFNE01.JPG,AFNE01.JPG,AFNE01.JPG,AFNE01.JPG,AFNE01.JPG,AFNE01.JPG,,,,,,,,,,,,,1,5,15,4,,,,,,,,,,,AFNE01.jpg,AFSA11.jpg,AFSA16.jpg,AFNE11.jpg,AFNE11.jpg,FN,3,num_4,16,num_4,0.88329857582,,,2017_Sep_28_1438,60.0059278414,MAFE4ImagesEEG,001,101920,
AFNE01.JPG,AFNE01.JPG,AFNE01.JPG,AFNE01.JPG,AFNE01.JPG,AFNE01.JPG,,,,,,,,,,,,,1,6,16,9,,,,,,,,,,,AFNE15.jpg,AFSA16.jpg,AFSA01.jpg,AFNE05.jpg,AFSA16.jpg,FS,4,num_6,16,num_6,0.516836583789,,,2017_Sep_28_1438,60.0059278414,MAFE4ImagesEEG,001,101920,
AFNE01.JPG,AFNE01.JPG,AFNE01.JPG,AFNE01.JPG,AFNE01.JPG,AFNE01.JPG,,,,,,,,,,,,,1,7,17,3,,,,,,,,,,,AFNE11.jpg,AFNE12.jpg,AFSA03.jpg,AFSA18.jpg,AFSA03.jpg,FS,4,num_2,32,num_4,0.683496087266,,,2017_Sep_28_1438,60.0059278414,MAFE4ImagesEEG,001,101920,
AFNE01.JPG,AFNE01.JPG,AFNE01.JPG,AFNE01.JPG,AFNE01.JPG,AFNE01.JPG,,,,,,,,,,,,,1,8,18,8,,,,,,,,,,,AFSA19.jpg,AFNE13.jpg,AFSA04.jpg,AFNE14.jpg,AFNE14.jpg,FN,3,num_4,32,num_8,0.700207903399,,,2017_Sep_28_1438,60.0059278414,MAFE4ImagesEEG,001,101920,
AFNE01.JPG,AFNE01.JPG,AFNE01.JPG,AFNE01.JPG,AFNE01.JPG,AFNE01.JPG,,,,,,,,,,,,,1,9,19,1,,,,,,,,,,,AFSA13.jpg,AFNE08.jpg,AFNE19.jpg,AFSA08.jpg,AFSA13.jpg,FS,4,num_8,32,num_4,0.916737603606,,,2017_Sep_28_1438,60.0059278414,MAFE4ImagesEEG,001,101920,
AFNE01.JPG,AFNE01.JPG,AFNE01.JPG,AFNE01.JPG,AFNE01.JPG,AFNE01.JPG,,,,,,,,,,,,,2,0,20,2,,,,,,,,,,,AFNE17.jpg,AFNE18.jpg,AFSA04.jpg,AFSA07.jpg,AFNE17.jpg,FN,3,num_8,32,num_4,0.51682118827,,,2017_Sep_28_1438,60.0059278414,MAFE4ImagesEEG,001,101920,
AFNE01.JPG,AFNE01.JPG,AFNE01.JPG,AFNE01.JPG,AFNE01.JPG,AFNE01.JPG,,,,,,,,,,,,,2,1,21,8,,,,,,,,,,,AFNE03.jpg,AFSA11.jpg,AFNE07.jpg,AFSA01.jpg,AFSA01.jpg,FS,4,num_4,16,num_4,0.666808647395,,,2017_Sep_28_1438,60.0059278414,MAFE4ImagesEEG,001,101920,
AFNE01.JPG,AFNE01.JPG,AFNE01.JPG,AFNE01.JPG,AFNE01.JPG,AFNE01.JPG,,,,,,,,,,,,,2,2,22,3,,,,,,,,,,,AFNE20.jpg,AFSA10.jpg,AFNE13.jpg,AFSA05.jpg,AFNE20.jpg,FN,3,num_8,32,num_6,0.500159086834,,,2017_Sep_28_1438,60.0059278414,MAFE4ImagesEEG,001,101920,
AFNE01.JPG,AFNE01.JPG,AFNE01.JPG,AFNE01.JPG,AFNE01.JPG,AFNE01.JPG,,,,,,,,,,,,,2,3,23,0,,,,,,,,,,,AFSA01.jpg,AFSA20.jpg,AFNE11.jpg,AFNE20.jpg,AFSA20.jpg,FS,4,num_6,16,num_6,0.366813201923,,,2017_Sep_28_1438,60.0059278414,MAFE4ImagesEEG,001,101920,
AFNE01.JPG,AFNE01.JPG,AFNE01.JPG,AFNE01.JPG,AFNE01.JPG,AFNE01.JPG,,,,,,,,,,,,,2,4,24,4,,,,,,,,,,,AFNE15.jpg,AFSA18.jpg,AFSA05.jpg,AFNE01.jpg,AFNE01.jpg,FN,3,num_4,32,num_8,0.583503913309,,,2017_Sep_28_1438,60.0059278414,MAFE4ImagesEEG,001,101920,
AFNE01.JPG,AFNE01.JPG,AFNE01.JPG,AFNE01.JPG,AFNE01.JPG,AFNE01.JPG,,,,,,,,,,,,,2,5,25,7,,,,,,,,,,,AFNE01.jpg,AFSA19.jpg,AFSA06.jpg,AFNE04.jpg,AFNE01.jpg,FN,3,num_8,32,num_4,0.666786837101,,,2017_Sep_28_1438,60.0059278414,MAFE4ImagesEEG,001,101920,
AFNE01.JPG,AFNE01.JPG,AFNE01.JPG,AFNE01.JPG,AFNE01.JPG,AFNE01.JPG,,,,,,,,,,,,,2,6,26,5,,,,,,,,,,,AFSA15.jpg,AFNE16.jpg,AFNE01.jpg,AFSA19.jpg,AFNE16.jpg,FN,3,num_6,16,num_6,0.883481076686,,,2017_Sep_28_1438,60.0059278414,MAFE4ImagesEEG,001,101920,
AFNE01.JPG,AFNE01.JPG,AFNE01.JPG,AFNE01.JPG,AFNE01.JPG,AFNE01.JPG,,,,,,,,,,,,,2,7,27,1,,,,,,,,,,,AFSA06.jpg,AFNE07.jpg,AFSA20.jpg,AFNE20.jpg,AFSA06.jpg,FS,4,num_8,16,num_8,0.166817628138,,,2017_Sep_28_1438,60.0059278414,MAFE4ImagesEEG,001,101920,
AFNE01.JPG,AFNE01.JPG,AFNE01.JPG,AFNE01.JPG,AFNE01.JPG,AFNE01.JPG,,,,,,,,,,,,,2,8,28,9,,,,,,,,,,,AFSA01.jpg,AFNE10.jpg,AFNE17.jpg,AFSA15.jpg,AFSA01.jpg,FS,4,num_8,32,num_6,1.46675566118,,,2017_Sep_28_1438,60.0059278414,MAFE4ImagesEEG,001,101920,
AFNE01.JPG,AFNE01.JPG,AFNE01.JPG,AFNE01.JPG,AFNE01.JPG,AFNE01.JPG,,,,,,,,,,,,,2,9,29,6,,,,,,,,,,,AFSA16.jpg,AFSA19.jpg,AFNE02.jpg,AFNE20.jpg,AFNE02.jpg,FN,3,num_2,32,num_6,1.11678064679,,,2017_Sep_28_1438,60.0059278414,MAFE4ImagesEEG,001,101920,
AFNE01.JPG,AFNE01.JPG,AFNE01.JPG,AFNE01.JPG,AFNE01.JPG,AFNE01.JPG,,,,,,,,,,,,,3,0,30,5,,,,,,,,,,,AFSA11.jpg,AFNE16.jpg,AFSA15.jpg,AFNE11.jpg,AFNE16.jpg,FN,3,num_6,32,num_8,0.583464462368,,,2017_Sep_28_1438,60.0059278414,MAFE4ImagesEEG,001,101920,
AFNE01.JPG,AFNE01.JPG,AFNE01.JPG,AFNE01.JPG,AFNE01.JPG,AFNE01.JPG,,,,,,,,,,,,,3,1,31,6,,,,,,,,,,,AFNE08.jpg,AFSA10.jpg,AFSA02.jpg,AFNE15.jpg,AFSA10.jpg,FS,4,num_6,16,num_6,0.683496408048,,,2017_Sep_28_1438,60.0059278414,MAFE4ImagesEEG,001,101920,
AFNE01.JPG,AFNE01.JPG,AFNE01.JPG,AFNE01.JPG,AFNE01.JPG,AFNE01.JPG,,,,,,,,,,,,,3,2,32,1,,,,,,,,,,,AFNE01.jpg,AFSA04.jpg,AFSA01.jpg,AFNE11.jpg,AFSA04.jpg,FS,4,num_6,32,num_8,0.366815126326,,,2017_Sep_28_1438,60.0059278414,MAFE4ImagesEEG,001,101920,
AFNE01.JPG,AFNE01.JPG,AFNE01.JPG,AFNE01.JPG,AFNE01.JPG,AFNE01.JPG,,,,,,,,,,,,,3,3,33,0,,,,,,,,,,,AFNE04.jpg,AFNE14.jpg,AFSA19.jpg,AFSA10.jpg,AFNE04.jpg,FN,3,num_8,32,num_6,0.966758868599,,,2017_Sep_28_1438,60.0059278414,MAFE4ImagesEEG,001,101920,
AFNE01.JPG,AFNE01.JPG,AFNE01.JPG,AFNE01.JPG,AFNE01.JPG,AFNE01.JPG,,,,,,,,,,,,,3,4,34,8,,,,,,,,,,,AFSA10.jpg,AFNE10.jpg,AFNE15.jpg,AFSA19.jpg,AFNE10.jpg,FN,3,num_6,16,num_6,0.616797004535,,,2017_Sep_28_1438,60.0059278414,MAFE4ImagesEEG,001,101920,
AFNE01.JPG,AFNE01.JPG,AFNE01.JPG,AFNE01.JPG,AFNE01.JPG,AFNE01.JPG,,,,,,,,,,,,,3,5,35,9,,,,,,,,,,,AFNE03.jpg,AFSA15.jpg,AFSA03.jpg,AFNE15.jpg,AFSA03.jpg,FS,4,num_2,32,num_6,0.733491372433,,,2017_Sep_28_1438,60.0059278414,MAFE4ImagesEEG,001,101920,
AFNE01.JPG,AFNE01.JPG,AFNE01.JPG,AFNE01.JPG,AFNE01.JPG,AFNE01.JPG,,,,,,,,,,,,,3,6,36,3,,,,,,,,,,,AFSA07.jpg,AFNE14.jpg,AFSA10.jpg,AFNE10.jpg,AFNE10.jpg,FN,3,num_4,16,num_4,1.16679806297,,,2017_Sep_28_1438,60.0059278414,MAFE4ImagesEEG,001,101920,
AFNE01.JPG,AFNE01.JPG,AFNE01.JPG,AFNE01.JPG,AFNE01.JPG,AFNE01.JPG,,,,,,,,,,,,,3,7,37,2,,,,,,,,,,,AFSA12.jpg,AFNE19.jpg,AFNE04.jpg,AFSA04.jpg,AFNE04.jpg,FN,3,num_2,32,num_4,0.649894765345,,,2017_Sep_28_1438,60.0059278414,MAFE4ImagesEEG,001,101920,
AFNE01.JPG,AFNE01.JPG,AFNE01.JPG,AFNE01.JPG,AFNE01.JPG,AFNE01.JPG,,,,,,,,,,,,,3,8,38,7,,,,,,,,,,,AFNE04.jpg,AFSA06.jpg,AFNE01.jpg,AFSA16.jpg,AFSA06.jpg,FS,4,num_6,16,num_6,0.783492751594,,,2017_Sep_28_1438,60.0059278414,MAFE4ImagesEEG,001,101920,
AFNE01.JPG,AFNE01.JPG,AFNE01.JPG,AFNE01.JPG,AFNE01.JPG,AFNE01.JPG,,,,,,,,,,,,,3,9,39,4,,,,,,,,,,,AFNE20.jpg,AFNE06.jpg,AFSA17.jpg,AFSA15.jpg,AFNE20.jpg,FN,3,num_8,32,num_6,1.38349390624,,,2017_Sep_28_1438,60.0059278414,MAFE4ImagesEEG,001,101920,
AFNE01.JPG,AFNE01.JPG,AFNE01.JPG,AFNE01.JPG,AFNE01.JPG,AFNE01.JPG,,,,,,,,,,,,,4,0,40,3,,,,,,,,,,,AFNE20.jpg,AFSA11.jpg,AFNE18.jpg,AFSA06.jpg,AFNE18.jpg,FN,3,num_2,32,num_4,1.81669058313,,,2017_Sep_28_1438,60.0059278414,MAFE4ImagesEEG,001,101920,
AFNE01.JPG,AFNE01.JPG,AFNE01.JPG,AFNE01.JPG,AFNE01.JPG,AFNE01.JPG,,,,,,,,,,,,,4,1,41,7,,,,,,,,,,,AFNE08.jpg,AFSA04.jpg,AFSA17.jpg,AFNE10.jpg,AFSA04.jpg,FS,4,num_6,16,num_6,0.383484925609,,,2017_Sep_28_1438,60.0059278414,MAFE4ImagesEEG,001,101920,
AFNE01.JPG,AFNE01.JPG,AFNE01.JPG,AFNE01.JPG,AFNE01.JPG,AFNE01.JPG,,,,,,,,,,,,,4,2,42,6,,,,,,,,,,,AFSA10.jpg,AFSA17.jpg,AFNE10.jpg,AFNE09.jpg,AFSA10.jpg,FS,4,num_8,32,num_4,0.733622234198,,,2017_Sep_28_1438,60.0059278414,MAFE4ImagesEEG,001,101920,
AFNE01.JPG,AFNE01.JPG,AFNE01.JPG,AFNE01.JPG,AFNE01.JPG,AFNE01.JPG,,,,,,,,,,,,,4,3,43,9,,,,,,,,,,,AFNE04.jpg,AFNE09.jpg,AFSA18.jpg,AFSA14.jpg,AFSA18.jpg,FS,4,num_2,16,num_2,0.766759125167,,,2017_Sep_28_1438,60.0059278414,MAFE4ImagesEEG,001,101920,
AFNE01.JPG,AFNE01.JPG,AFNE01.JPG,AFNE01.JPG,AFNE01.JPG,AFNE01.JPG,,,,,,,,,,,,,4,4,44,1,,,,,,,,,,,AFNE08.jpg,AFSA13.jpg,AFSA06.jpg,AFNE14.jpg,AFSA13.jpg,FS,4,num_6,16,num_6,0.666847777669,,,2017_Sep_28_1438,60.0059278414,MAFE4ImagesEEG,001,101920,
AFNE01.JPG,AFNE01.JPG,AFNE01.JPG,AFNE01.JPG,AFNE01.JPG,AFNE01.JPG,,,,,,,,,,,,,4,5,45,5,,,,,,,,,,,AFSA02.jpg,AFNE15.jpg,AFNE03.jpg,AFSA10.jpg,AFSA10.jpg,FS,4,num_4,32,num_8,0.800157418998,,,2017_Sep_28_1438,60.0059278414,MAFE4ImagesEEG,001,101920,
AFNE01.JPG,AFNE01.JPG,AFNE01.JPG,AFNE01.JPG,AFNE01.JPG,AFNE01.JPG,,,,,,,,,,,,,4,6,46,8,,,,,,,,,,,AFSA10.jpg,AFNE11.jpg,AFSA04.jpg,AFNE05.jpg,AFNE11.jpg,FN,3,num_6,32,num_2,2.01669096807,,,2017_Sep_28_1438,60.0059278414,MAFE4ImagesEEG,001,101920,
AFNE01.JPG,AFNE01.JPG,AFNE01.JPG,AFNE01.JPG,AFNE01.JPG,AFNE01.JPG,,,,,,,,,,,,,4,7,47,0,,,,,,,,,,,AFNE13.jpg,AFNE07.jpg,AFSA06.jpg,AFSA12.jpg,AFNE07.jpg,FN,3,num_6,16,num_6,0.566818077175,,,2017_Sep_28_1438,60.0059278414,MAFE4ImagesEEG,001,101920,
AFNE01.JPG,AFNE01.JPG,AFNE01.JPG,AFNE01.JPG,AFNE01.JPG,AFNE01.JPG,,,,,,,,,,,,,4,8,48,4,,,,,,,,,,,AFSA14.jpg,AFNE19.jpg,AFNE17.jpg,AFSA15.jpg,AFNE17.jpg,FN,3,num_2,32,num_6,0.63337507227,,,2017_Sep_28_1438,60.0059278414,MAFE4ImagesEEG,001,101920,
AFNE01.JPG,AFNE01.JPG,AFNE01.JPG,AFNE01.JPG,AFNE01.JPG,AFNE01.JPG,,,,,,,,,,,,,4,9,49,2,,,,,,,,,,,AFNE17.jpg,AFNE12.jpg,AFSA10.jpg,AFSA08.jpg,AFNE17.jpg,FN,3,num_8,32,num_4,1.18346978666,,,2017_Sep_28_1438,60.0059278414,MAFE4ImagesEEG,001,101920,
AFNE01.JPG,AFNE01.JPG,AFNE01.JPG,AFNE01.JPG,AFNE01.JPG,AFNE01.JPG,,,,,,,,,,,,,5,0,50,6,,,,,,,,,,,AFNE09.jpg,AFSA11.jpg,AFSA18.jpg,AFNE11.jpg,AFSA18.jpg,FS,4,num_2,32,num_8,0.866784976795,,,2017_Sep_28_1438,60.0059278414,MAFE4ImagesEEG,001,101920,
AFNE01.JPG,AFNE01.JPG,AFNE01.JPG,AFNE01.JPG,AFNE01.JPG,AFNE01.JPG,,,,,,,,,,,,,5,1,51,1,,,,,,,,,,,AFSA05.jpg,AFNE09.jpg,AFSA03.jpg,AFNE10.jpg,AFSA05.jpg,FS,4,num_8,16,num_8,0.400147989276,,,2017_Sep_28_1438,60.0059278414,MAFE4ImagesEEG,001,101920,
AFNE01.JPG,AFNE01.JPG,AFNE01.JPG,AFNE01.JPG,AFNE01.JPG,AFNE01.JPG,,,,,,,,,,,,,5,2,52,5,,,,,,,,,,,AFSA19.jpg,AFSA17.jpg,AFNE17.jpg,AFNE05.jpg,AFNE05.jpg,FN,3,num_4,32,num_6,0.416800789302,,,2017_Sep_28_1438,60.0059278414,MAFE4ImagesEEG,001,101920,
AFNE01.JPG,AFNE01.JPG,AFNE01.JPG,AFNE01.JPG,AFNE01.JPG,AFNE01.JPG,,,,,,,,,,,,,5,3,53,3,,,,,,,,,,,AFNE01.jpg,AFSA12.jpg,AFNE17.jpg,AFSA15.jpg,AFNE01.jpg,FN,3,num_8,16,num_8,0.566858169623,,,2017_Sep_28_1438,60.0059278414,MAFE4ImagesEEG,001,101920,
AFNE01.JPG,AFNE01.JPG,AFNE01.JPG,AFNE01.JPG,AFNE01.JPG,AFNE01.JPG,,,,,,,,,,,,,5,4,54,2,,,,,,,,,,,AFSA06.jpg,AFSA18.jpg,AFNE12.jpg,AFNE01.jpg,AFNE01.jpg,FN,3,num_4,32,num_8,0.716801687377,,,2017_Sep_28_1438,60.0059278414,MAFE4ImagesEEG,001,101920,
AFNE01.JPG,AFNE01.JPG,AFNE01.JPG,AFNE01.JPG,AFNE01.JPG,AFNE01.JPG,,,,,,,,,,,,,5,5,55,4,,,,,,,,,,,AFSA12.jpg,AFSA02.jpg,AFNE05.jpg,AFNE16.jpg,AFNE05.jpg,FN,3,num_2,32,num_8,1.80004419794,,,2017_Sep_28_1438,60.0059278414,MAFE4ImagesEEG,001,101920,
AFNE01.JPG,AFNE01.JPG,AFNE01.JPG,AFNE01.JPG,AFNE01.JPG,AFNE01.JPG,,,,,,,,,,,,,5,6,56,8,,,,,,,,,,,AFSA03.jpg,AFSA01.jpg,AFNE16.jpg,AFNE15.jpg,AFNE15.jpg,FN,3,num_4,16,num_4,1.73342305486,,,2017_Sep_28_1438,60.0059278414,MAFE4ImagesEEG,001,101920,
AFNE01.JPG,AFNE01.JPG,AFNE01.JPG,AFNE01.JPG,AFNE01.JPG,AFNE01.JPG,,,,,,,,,,,,,5,7,57,0,,,,,,,,,,,AFNE20.jpg,AFSA13.jpg,AFNE08.jpg,AFSA09.jpg,AFNE20.jpg,FN,3,num_8,32,num_6,1.2833731157,,,2017_Sep_28_1438,60.0059278414,MAFE4ImagesEEG,001,101920,
AFNE01.JPG,AFNE01.JPG,AFNE01.JPG,AFNE01.JPG,AFNE01.JPG,AFNE01.JPG,,,,,,,,,,,,,5,8,58,7,,,,,,,,,,,AFSA12.jpg,AFNE04.jpg,AFNE10.jpg,AFSA06.jpg,AFSA06.jpg,FS,4,num_4,32,num_8,0.366829559614,,,2017_Sep_28_1438,60.0059278414,MAFE4ImagesEEG,001,101920,
AFNE01.JPG,AFNE01.JPG,AFNE01.JPG,AFNE01.JPG,AFNE01.JPG,AFNE01.JPG,,,,,,,,,,,,,5,9,59,9,,,,,,,,,,,AFSA07.jpg,AFSA03.jpg,AFNE11.jpg,AFNE09.jpg,AFSA03.jpg,FS,4,num_6,32,num_2,1.05012646766,,,2017_Sep_28_1438,60.0059278414,MAFE4ImagesEEG,001,101920,
,,,,,,,,,,,,,,,,,,,,,,,,,,,,,,,,,,,,,,,,,,,space,38.6305143958,2017_Sep_28_1438,60.0059278414,MAFE4ImagesEEG,001,101920,
AFNE01.JPG,AFNE01.JPG,AFNE01.JPG,AFNE01.JPG,AFNE01.JPG,AFNE01.JPG,,,,,,,,,,,,,,,,,0,0,0,2,,,,,,,AMSA08.jpg,AMSA05.jpg,AMNE05.jpg,AMNE06.jpg,AMSA08.jpg,MS,2,num_8,32,num_2,1.10011084762,,,2017_Sep_28_1438,60.0059278414,MAFE4ImagesEEG,001,101920,
AFNE01.JPG,AFNE01.JPG,AFNE01.JPG,AFNE01.JPG,AFNE01.JPG,AFNE01.JPG,,,,,,,,,,,,,,,,,0,1,1,4,,,,,,,AMNE02.jpg,AMSA12.jpg,AMNE19.jpg,AMSA06.jpg,AMNE19.jpg,MN,1,num_2,32,num_4,0.883493264788,,,2017_Sep_28_1438,60.0059278414,MAFE4ImagesEEG,001,101920,
AFNE01.JPG,AFNE01.JPG,AFNE01.JPG,AFNE01.JPG,AFNE01.JPG,AFNE01.JPG,,,,,,,,,,,,,,,,,0,2,2,7,,,,,,,AMSA17.jpg,AMSA09.jpg,AMNE18.jpg,AMNE04.jpg,AMNE18.jpg,MN,1,num_2,16,num_2,1.08343719947,,,2017_Sep_28_1438,60.0059278414,MAFE4ImagesEEG,001,101920,
AFNE01.JPG,AFNE01.JPG,AFNE01.JPG,AFNE01.JPG,AFNE01.JPG,AFNE01.JPG,,,,,,,,,,,,,,,,,0,3,3,1,,,,,,,AMNE02.jpg,AMSA05.jpg,AMNE14.jpg,AMSA08.jpg,AMNE02.jpg,MN,1,num_8,16,num_8,0.900129065616,,,2017_Sep_28_1438,60.0059278414,MAFE4ImagesEEG,001,101920,
AFNE01.JPG,AFNE01.JPG,AFNE01.JPG,AFNE01.JPG,AFNE01.JPG,AFNE01.JPG,,,,,,,,,,,,,,,,,0,4,4,3,,,,,,,AMNE05.jpg,AMSA06.jpg,AMNE01.jpg,AMSA20.jpg,AMNE05.jpg,MN,1,num_8,32,num_6,0.566829623771,,,2017_Sep_28_1438,60.0059278414,MAFE4ImagesEEG,001,101920,
AFNE01.JPG,AFNE01.JPG,AFNE01.JPG,AFNE01.JPG,AFNE01.JPG,AFNE01.JPG,,,,,,,,,,,,,,,,,0,5,5,8,,,,,,,AMSA07.jpg,AMSA05.jpg,AMNE02.jpg,AMNE19.jpg,AMNE19.jpg,MN,1,num_4,16,num_4,0.383516999485,,,2017_Sep_28_1438,60.0059278414,MAFE4ImagesEEG,001,101920,
AFNE01.JPG,AFNE01.JPG,AFNE01.JPG,AFNE01.JPG,AFNE01.JPG,AFNE01.JPG,,,,,,,,,,,,,,,,,0,6,6,6,,,,,,,AMSA20.jpg,AMNE01.jpg,AMSA01.jpg,AMNE19.jpg,AMNE01.jpg,MN,1,num_6,16,num_6,0.450237571786,,,2017_Sep_28_1438,60.0059278414,MAFE4ImagesEEG,001,101920,
AFNE01.JPG,AFNE01.JPG,AFNE01.JPG,AFNE01.JPG,AFNE01.JPG,AFNE01.JPG,,,,,,,,,,,,,,,,,0,7,7,9,,,,,,,AMSA16.jpg,AMNE06.jpg,AMSA05.jpg,AMNE12.jpg,AMNE06.jpg,MN,1,num_6,32,num_8,0.48352104082,,,2017_Sep_28_1438,60.0059278414,MAFE4ImagesEEG,001,101920,
AFNE01.JPG,AFNE01.JPG,AFNE01.JPG,AFNE01.JPG,AFNE01.JPG,AFNE01.JPG,,,,,,,,,,,,,,,,,0,8,8,0,,,,,,,AMSA17.jpg,AMNE03.jpg,AMNE18.jpg,AMSA19.jpg,AMNE18.jpg,MN,1,num_2,32,num_6,0.900145102583,,,2017_Sep_28_1438,60.0059278414,MAFE4ImagesEEG,001,101920,
AFNE01.JPG,AFNE01.JPG,AFNE01.JPG,AFNE01.JPG,AFNE01.JPG,AFNE01.JPG,,,,,,,,,,,,,,,,,0,9,9,5,,,,,,,AMNE02.jpg,AMSA17.jpg,AMNE05.jpg,AMSA13.jpg,AMNE05.jpg,MN,1,num_2,32,num_8,1.00014657801,,,2017_Sep_28_1438,60.0059278414,MAFE4ImagesEEG,001,101920,
AFNE01.JPG,AFNE01.JPG,AFNE01.JPG,AFNE01.JPG,AFNE01.JPG,AFNE01.JPG,,,,,,,,,,,,,,,,,1,0,10,6,,,,,,,AMNE17.jpg,AMNE13.jpg,AMSA19.jpg,AMSA10.jpg,AMNE17.jpg,MN,1,num_8,16,num_8,0.700102059345,,,2017_Sep_28_1438,60.0059278414,MAFE4ImagesEEG,001,101920,
AFNE01.JPG,AFNE01.JPG,AFNE01.JPG,AFNE01.JPG,AFNE01.JPG,AFNE01.JPG,,,,,,,,,,,,,,,,,1,1,11,5,,,,,,,AMNE15.jpg,AMSA10.jpg,AMSA06.jpg,AMNE14.jpg,AMNE15.jpg,MN,1,num_8,32,num_2,0.833455962769,,,2017_Sep_28_1438,60.0059278414,MAFE4ImagesEEG,001,101920,
AFNE01.JPG,AFNE01.JPG,AFNE01.JPG,AFNE01.JPG,AFNE01.JPG,AFNE01.JPG,,,,,,,,,,,,,,,,,1,2,12,0,,,,,,,AMNE10.jpg,AMSA13.jpg,AMNE11.jpg,AMSA19.jpg,AMNE10.jpg,MN,1,num_8,32,num_4,0.266795689531,,,2017_Sep_28_1438,60.0059278414,MAFE4ImagesEEG,001,101920,
AFNE01.JPG,AFNE01.JPG,AFNE01.JPG,AFNE01.JPG,AFNE01.JPG,AFNE01.JPG,,,,,,,,,,,,,,,,,1,3,13,3,,,,,,,AMSA17.jpg,AMNE12.jpg,AMSA16.jpg,AMNE03.jpg,AMNE03.jpg,MN,1,num_4,16,num_4,0.816789370961,,,2017_Sep_28_1438,60.0059278414,MAFE4ImagesEEG,001,101920,
AFNE01.JPG,AFNE01.JPG,AFNE01.JPG,AFNE01.JPG,AFNE01.JPG,AFNE01.JPG,,,,,,,,,,,,,,,,,1,4,14,4,,,,,,,AMNE05.jpg,AMSA04.jpg,AMNE06.jpg,AMSA01.jpg,AMSA01.jpg,MS,2,num_4,16,num_4,0.683462088928,,,2017_Sep_28_1438,60.0059278414,MAFE4ImagesEEG,001,101920,
AFNE01.JPG,AFNE01.JPG,AFNE01.JPG,AFNE01.JPG,AFNE01.JPG,AFNE01.JPG,,,,,,,,,,,,,,,,,1,5,15,2,,,,,,,AMNE20.jpg,AMNE06.jpg,AMSA20.jpg,AMSA07.jpg,AMNE20.jpg,MN,1,num_8,16,num_8,0.683502502099,,,2017_Sep_28_1438,60.0059278414,MAFE4ImagesEEG,001,101920,
AFNE01.JPG,AFNE01.JPG,AFNE01.JPG,AFNE01.JPG,AFNE01.JPG,AFNE01.JPG,,,,,,,,,,,,,,,,,1,6,16,1,,,,,,,AMSA16.jpg,AMSA19.jpg,AMNE19.jpg,AMNE03.jpg,AMNE03.jpg,MN,1,num_4,32,num_6,0.666770158627,,,2017_Sep_28_1438,60.0059278414,MAFE4ImagesEEG,001,101920,
AFNE01.JPG,AFNE01.JPG,AFNE01.JPG,AFNE01.JPG,AFNE01.JPG,AFNE01.JPG,,,,,,,,,,,,,,,,,1,7,17,7,,,,,,,AMSA12.jpg,AMNE09.jpg,AMSA19.jpg,AMNE07.jpg,AMSA12.jpg,MS,2,num_8,16,num_8,0.766806594678,,,2017_Sep_28_1438,60.0059278414,MAFE4ImagesEEG,001,101920,
AFNE01.JPG,AFNE01.JPG,AFNE01.JPG,AFNE01.JPG,AFNE01.JPG,AFNE01.JPG,,,,,,,,,,,,,,,,,1,8,18,9,,,,,,,AMNE07.jpg,AMNE03.jpg,AMSA05.jpg,AMSA19.jpg,AMNE07.jpg,MN,1,num_8,32,num_4,0.51680418913,,,2017_Sep_28_1438,60.0059278414,MAFE4ImagesEEG,001,101920,
AFNE01.JPG,AFNE01.JPG,AFNE01.JPG,AFNE01.JPG,AFNE01.JPG,AFNE01.JPG,,,,,,,,,,,,,,,,,1,9,19,8,,,,,,,AMSA18.jpg,AMNE11.jpg,AMSA11.jpg,AMNE20.jpg,AMSA18.jpg,MS,2,num_8,32,num_4,0.250162133889,,,2017_Sep_28_1438,60.0059278414,MAFE4ImagesEEG,001,101920,
AFNE01.JPG,AFNE01.JPG,AFNE01.JPG,AFNE01.JPG,AFNE01.JPG,AFNE01.JPG,,,,,,,,,,,,,,,,,2,0,20,9,,,,,,,AMSA03.jpg,AMNE14.jpg,AMNE07.jpg,AMSA06.jpg,AMNE07.jpg,MN,1,num_2,32,num_4,0.916812977346,,,2017_Sep_28_1438,60.0059278414,MAFE4ImagesEEG,001,101920,
AFNE01.JPG,AFNE01.JPG,AFNE01.JPG,AFNE01.JPG,AFNE01.JPG,AFNE01.JPG,,,,,,,,,,,,,,,,,2,1,21,3,,,,,,,AMNE02.jpg,AMNE18.jpg,AMSA03.jpg,AMSA08.jpg,AMSA03.jpg,MS,2,num_2,32,num_8,0.850045256375,,,2017_Sep_28_1438,60.0059278414,MAFE4ImagesEEG,001,101920,
AFNE01.JPG,AFNE01.JPG,AFNE01.JPG,AFNE01.JPG,AFNE01.JPG,AFNE01.JPG,,,,,,,,,,,,,,,,,2,2,22,1,,,,,,,AMSA10.jpg,AMNE15.jpg,AMNE01.jpg,AMSA19.jpg,AMSA10.jpg,MS,2,num_8,32,num_6,0.333547694318,,,2017_Sep_28_1438,60.0059278414,MAFE4ImagesEEG,001,101920,
AFNE01.JPG,AFNE01.JPG,AFNE01.JPG,AFNE01.JPG,AFNE01.JPG,AFNE01.JPG,,,,,,,,,,,,,,,,,2,3,23,8,,,,,,,AMSA07.jpg,AMSA09.jpg,AMNE09.jpg,AMNE01.jpg,AMNE01.jpg,MN,1,num_4,32,num_8,1.03346917726,,,2017_Sep_28_1438,60.0059278414,MAFE4ImagesEEG,001,101920,
AFNE01.JPG,AFNE01.JPG,AFNE01.JPG,AFNE01.JPG,AFNE01.JPG,AFNE01.JPG,,,,,,,,,,,,,,,,,2,4,24,4,,,,,,,AMSA11.jpg,AMNE10.jpg,AMNE14.jpg,AMSA02.jpg,AMNE10.jpg,MN,1,num_6,16,num_6,0.31683299155,,,2017_Sep_28_1438,60.0059278414,MAFE4ImagesEEG,001,101920,
AFNE01.JPG,AFNE01.JPG,AFNE01.JPG,AFNE01.JPG,AFNE01.JPG,AFNE01.JPG,,,,,,,,,,,,,,,,,2,5,25,5,,,,,,,AMNE02.jpg,AMNE06.jpg,AMSA12.jpg,AMSA03.jpg,AMNE02.jpg,MN,1,num_8,32,num_6,0.383522772812,,,2017_Sep_28_1438,60.0059278414,MAFE4ImagesEEG,001,101920,
AFNE01.JPG,AFNE01.JPG,AFNE01.JPG,AFNE01.JPG,AFNE01.JPG,AFNE01.JPG,,,,,,,,,,,,,,,,,2,6,26,0,,,,,,,AMNE11.jpg,AMSA07.jpg,AMNE19.jpg,AMSA02.jpg,AMSA02.jpg,MS,2,num_4,32,num_6,2.50000128296,,,2017_Sep_28_1438,60.0059278414,MAFE4ImagesEEG,001,101920,
AFNE01.JPG,AFNE01.JPG,AFNE01.JPG,AFNE01.JPG,AFNE01.JPG,AFNE01.JPG,,,,,,,,,,,,,,,,,2,7,27,6,,,,,,,AMSA09.jpg,AMSA20.jpg,AMNE03.jpg,AMNE02.jpg,AMNE02.jpg,MN,1,num_4,32,num_8,0.316818878986,,,2017_Sep_28_1438,60.0059278414,MAFE4ImagesEEG,001,101920,
AFNE01.JPG,AFNE01.JPG,AFNE01.JPG,AFNE01.JPG,AFNE01.JPG,AFNE01.JPG,,,,,,,,,,,,,,,,,2,8,28,7,,,,,,,AMNE18.jpg,AMSA03.jpg,AMSA20.jpg,AMNE07.jpg,AMSA20.jpg,MS,2,num_2,32,num_4,0.433498813596,,,2017_Sep_28_1438,60.0059278414,MAFE4ImagesEEG,001,101920,
AFNE01.JPG,AFNE01.JPG,AFNE01.JPG,AFNE01.JPG,AFNE01.JPG,AFNE01.JPG,,,,,,,,,,,,,,,,,2,9,29,2,,,,,,,AMNE06.jpg,AMNE19.jpg,AMSA03.jpg,AMSA20.jpg,AMNE19.jpg,MN,1,num_6,32,num_2,0.266716146085,,,2017_Sep_28_1438,60.0059278414,MAFE4ImagesEEG,001,101920,
AFNE01.JPG,AFNE01.JPG,AFNE01.JPG,AFNE01.JPG,AFNE01.JPG,AFNE01.JPG,,,,,,,,,,,,,,,,,3,0,30,0,,,,,,,AMSA03.jpg,AMNE01.jpg,AMNE05.jpg,AMSA02.jpg,AMSA03.jpg,MS,2,num_8,16,num_8,0.333489640441,,,2017_Sep_28_1438,60.0059278414,MAFE4ImagesEEG,001,101920,
AFNE01.JPG,AFNE01.JPG,AFNE01.JPG,AFNE01.JPG,AFNE01.JPG,AFNE01.JPG,,,,,,,,,,,,,,,,,3,1,31,2,,,,,,,AMNE17.jpg,AMNE20.jpg,AMSA03.jpg,AMSA09.jpg,AMSA09.jpg,MS,2,num_4,16,num_4,0.350157515204,,,2017_Sep_28_1438,60.0059278414,MAFE4ImagesEEG,001,101920,
AFNE01.JPG,AFNE01.JPG,AFNE01.JPG,AFNE01.JPG,AFNE01.JPG,AFNE01.JPG,,,,,,,,,,,,,,,,,3,2,32,6,,,,,,,AMSA08.jpg,AMNE03.jpg,AMNE04.jpg,AMSA10.jpg,AMNE03.jpg,MN,1,num_6,32,num_4,1.03345281951,,,2017_Sep_28_1438,60.0059278414,MAFE4ImagesEEG,001,101920,
AFNE01.JPG,AFNE01.JPG,AFNE01.JPG,AFNE01.JPG,AFNE01.JPG,AFNE01.JPG,,,,,,,,,,,,,,,,,3,3,33,3,,,,,,,AMNE11.jpg,AMSA02.jpg,AMNE14.jpg,AMSA05.jpg,AMSA05.jpg,MS,2,num_4,16,num_4,1.18342809047,,,2017_Sep_28_1438,60.0059278414,MAFE4ImagesEEG,001,101920,
AFNE01.JPG,AFNE01.JPG,AFNE01.JPG,AFNE01.JPG,AFNE01.JPG,AFNE01.JPG,,,,,,,,,,,,,,,,,3,4,34,1,,,,,,,AMSA16.jpg,AMNE18.jpg,AMNE03.jpg,AMSA10.jpg,AMNE03.jpg,MN,1,num_2,32,num_8,0.700186413887,,,2017_Sep_28_1438,60.0059278414,MAFE4ImagesEEG,001,101920,
AFNE01.JPG,AFNE01.JPG,AFNE01.JPG,AFNE01.JPG,AFNE01.JPG,AFNE01.JPG,,,,,,,,,,,,,,,,,3,5,35,9,,,,,,,AMNE20.jpg,AMSA02.jpg,AMSA17.jpg,AMNE05.jpg,AMSA17.jpg,MS,2,num_2,16,num_2,1.01680066093,,,2017_Sep_28_1438,60.0059278414,MAFE4ImagesEEG,001,101920,
AFNE01.JPG,AFNE01.JPG,AFNE01.JPG,AFNE01.JPG,AFNE01.JPG,AFNE01.JPG,,,,,,,,,,,,,,,,,3,6,36,7,,,,,,,AMNE13.jpg,AMSA08.jpg,AMNE07.jpg,AMSA06.jpg,AMSA06.jpg,MS,2,num_4,32,num_6,0.950130444835,,,2017_Sep_28_1438,60.0059278414,MAFE4ImagesEEG,001,101920,
AFNE01.JPG,AFNE01.JPG,AFNE01.JPG,AFNE01.JPG,AFNE01.JPG,AFNE01.JPG,,,,,,,,,,,,,,,,,3,7,37,8,,,,,,,AMNE10.jpg,AMNE12.jpg,AMSA18.jpg,AMSA20.jpg,AMSA18.jpg,MS,2,num_2,16,num_2,1.88309971732,,,2017_Sep_28_1438,60.0059278414,MAFE4ImagesEEG,001,101920,
AFNE01.JPG,AFNE01.JPG,AFNE01.JPG,AFNE01.JPG,AFNE01.JPG,AFNE01.JPG,,,,,,,,,,,,,,,,,3,8,38,4,,,,,,,AMNE12.jpg,AMNE19.jpg,AMSA11.jpg,AMSA06.jpg,AMNE19.jpg,MN,1,num_6,32,num_2,0.45018208382,,,2017_Sep_28_1438,60.0059278414,MAFE4ImagesEEG,001,101920,
AFNE01.JPG,AFNE01.JPG,AFNE01.JPG,AFNE01.JPG,AFNE01.JPG,AFNE01.JPG,,,,,,,,,,,,,,,,,3,9,39,5,,,,,,,AMNE19.jpg,AMSA19.jpg,AMNE12.jpg,AMSA16.jpg,AMSA19.jpg,MS,2,num_6,32,num_8,0.916791487834,,,2017_Sep_28_1438,60.0059278414,MAFE4ImagesEEG,001,101920,
AFNE01.JPG,AFNE01.JPG,AFNE01.JPG,AFNE01.JPG,AFNE01.JPG,AFNE01.JPG,,,,,,,,,,,,,,,,,4,0,40,9,,,,,,,AMSA13.jpg,AMNE12.jpg,AMSA02.jpg,AMNE19.jpg,AMSA02.jpg,MS,2,num_2,32,num_4,0.533478157944,,,2017_Sep_28_1438,60.0059278414,MAFE4ImagesEEG,001,101920,
AFNE01.JPG,AFNE01.JPG,AFNE01.JPG,AFNE01.JPG,AFNE01.JPG,AFNE01.JPG,,,,,,,,,,,,,,,,,4,1,41,5,,,,,,,AMSA04.jpg,AMNE06.jpg,AMSA10.jpg,AMNE07.jpg,AMNE06.jpg,MN,1,num_6,32,num_4,0.383489415923,,,2017_Sep_28_1438,60.0059278414,MAFE4ImagesEEG,001,101920,
AFNE01.JPG,AFNE01.JPG,AFNE01.JPG,AFNE01.JPG,AFNE01.JPG,AFNE01.JPG,,,,,,,,,,,,,,,,,4,2,42,3,,,,,,,AMNE17.jpg,AMSA19.jpg,AMNE19.jpg,AMSA11.jpg,AMSA19.jpg,MS,2,num_6,32,num_4,0.0835978900432,,,2017_Sep_28_1438,60.0059278414,MAFE4ImagesEEG,001,101920,
AFNE01.JPG,AFNE01.JPG,AFNE01.JPG,AFNE01.JPG,AFNE01.JPG,AFNE01.JPG,,,,,,,,,,,,,,,,,4,3,43,8,,,,,,,AMNE08.jpg,AMSA02.jpg,AMSA12.jpg,AMNE07.jpg,AMNE08.jpg,MN,1,num_8,32,num_4,0.283512637427,,,2017_Sep_28_1438,60.0059278414,MAFE4ImagesEEG,001,101920,
AFNE01.JPG,AFNE01.JPG,AFNE01.JPG,AFNE01.JPG,AFNE01.JPG,AFNE01.JPG,,,,,,,,,,,,,,,,,4,4,44,0,,,,,,,AMNE01.jpg,AMSA13.jpg,AMNE15.jpg,AMSA01.jpg,AMNE01.jpg,MN,1,num_8,16,num_8,0.116838059213,,,2017_Sep_28_1438,60.0059278414,MAFE4ImagesEEG,001,101920,
AFNE01.JPG,AFNE01.JPG,AFNE01.JPG,AFNE01.JPG,AFNE01.JPG,AFNE01.JPG,,,,,,,,,,,,,,,,,4,5,45,2,,,,,,,AMNE11.jpg,AMSA15.jpg,AMSA13.jpg,AMNE15.jpg,AMSA13.jpg,MS,2,num_2,32,num_6,0.650135961536,,,2017_Sep_28_1438,60.0059278414,MAFE4ImagesEEG,001,101920,
AFNE01.JPG,AFNE01.JPG,AFNE01.JPG,AFNE01.JPG,AFNE01.JPG,AFNE01.JPG,,,,,,,,,,,,,,,,,4,6,46,7,,,,,,,AMNE13.jpg,AMSA19.jpg,AMNE01.jpg,AMSA20.jpg,AMSA19.jpg,MS,2,num_6,32,num_4,0.33353839285,,,2017_Sep_28_1438,60.0059278414,MAFE4ImagesEEG,001,101920,
AFNE01.JPG,AFNE01.JPG,AFNE01.JPG,AFNE01.JPG,AFNE01.JPG,AFNE01.JPG,,,,,,,,,,,,,,,,,4,7,47,1,,,,,,,AMNE17.jpg,AMNE18.jpg,AMSA17.jpg,AMSA09.jpg,AMNE17.jpg,MN,1,num_8,16,num_8,0.300249150489,,,2017_Sep_28_1438,60.0059278414,MAFE4ImagesEEG,001,101920,
AFNE01.JPG,AFNE01.JPG,AFNE01.JPG,AFNE01.JPG,AFNE01.JPG,AFNE01.JPG,,,,,,,,,,,,,,,,,4,8,48,4,,,,,,,AMNE20.jpg,AMSA13.jpg,AMNE06.jpg,AMSA07.jpg,AMSA13.jpg,MS,2,num_6,16,num_6,0.71664227976,,,2017_Sep_28_1438,60.0059278414,MAFE4ImagesEEG,001,101920,
AFNE01.JPG,AFNE01.JPG,AFNE01.JPG,AFNE01.JPG,AFNE01.JPG,AFNE01.JPG,,,,,,,,,,,,,,,,,4,9,49,6,,,,,,,AMNE09.jpg,AMNE19.jpg,AMSA12.jpg,AMSA04.jpg,AMNE09.jpg,MN,1,num_8,16,num_8,0.850158798159,,,2017_Sep_28_1438,60.0059278414,MAFE4ImagesEEG,001,101920,
AFNE01.JPG,AFNE01.JPG,AFNE01.JPG,AFNE01.JPG,AFNE01.JPG,AFNE01.JPG,,,,,,,,,,,,,,,,,5,0,50,4,,,,,,,AMSA15.jpg,AMNE19.jpg,AMNE03.jpg,AMSA03.jpg,AMNE19.jpg,MN,1,num_6,32,num_8,0.466848996468,,,2017_Sep_28_1438,60.0059278414,MAFE4ImagesEEG,001,101920,
AFNE01.JPG,AFNE01.JPG,AFNE01.JPG,AFNE01.JPG,AFNE01.JPG,AFNE01.JPG,,,,,,,,,,,,,,,,,5,1,51,3,,,,,,,AMNE11.jpg,AMSA08.jpg,AMSA14.jpg,AMNE13.jpg,AMNE11.jpg,MN,1,num_8,16,num_8,1.50006960047,,,2017_Sep_28_1438,60.0059278414,MAFE4ImagesEEG,001,101920,
AFNE01.JPG,AFNE01.JPG,AFNE01.JPG,AFNE01.JPG,AFNE01.JPG,AFNE01.JPG,,,,,,,,,,,,,,,,,5,2,52,5,,,,,,,AMSA09.jpg,AMNE11.jpg,AMNE08.jpg,AMSA14.jpg,AMNE11.jpg,MN,1,num_6,32,num_2,1.00017704826,,,2017_Sep_28_1438,60.0059278414,MAFE4ImagesEEG,001,101920,
AFNE01.JPG,AFNE01.JPG,AFNE01.JPG,AFNE01.JPG,AFNE01.JPG,AFNE01.JPG,,,,,,,,,,,,,,,,,5,3,53,0,,,,,,,AMNE05.jpg,AMNE12.jpg,AMSA05.jpg,AMSA02.jpg,AMSA02.jpg,MS,2,num_4,32,num_8,0.500159728283,,,2017_Sep_28_1438,60.0059278414,MAFE4ImagesEEG,001,101920,
AFNE01.JPG,AFNE01.JPG,AFNE01.JPG,AFNE01.JPG,AFNE01.JPG,AFNE01.JPG,,,,,,,,,,,,,,,,,5,4,54,1,,,,,,,AMSA04.jpg,AMNE14.jpg,AMNE10.jpg,AMSA05.jpg,AMNE10.jpg,MN,1,num_2,32,num_8,0.516818943142,,,2017_Sep_28_1438,60.0059278414,MAFE4ImagesEEG,001,101920,
AFNE01.JPG,AFNE01.JPG,AFNE01.JPG,AFNE01.JPG,AFNE01.JPG,AFNE01.JPG,,,,,,,,,,,,,,,,,5,5,55,6,,,,,,,AMNE13.jpg,AMNE09.jpg,AMSA09.jpg,AMSA15.jpg,AMSA15.jpg,MS,2,num_4,32,num_8,1.35009497101,,,2017_Sep_28_1438,60.0059278414,MAFE4ImagesEEG,001,101920,
AFNE01.JPG,AFNE01.JPG,AFNE01.JPG,AFNE01.JPG,AFNE01.JPG,AFNE01.JPG,,,,,,,,,,,,,,,,,5,6,56,9,,,,,,,AMNE09.jpg,AMNE04.jpg,AMSA17.jpg,AMSA04.jpg,AMSA04.jpg,MS,2,num_4,32,num_8,0.233518955996,,,2017_Sep_28_1438,60.0059278414,MAFE4ImagesEEG,001,101920,
AFNE01.JPG,AFNE01.JPG,AFNE01.JPG,AFNE01.JPG,AFNE01.JPG,AFNE01.JPG,,,,,,,,,,,,,,,,,5,7,57,2,,,,,,,AMNE16.jpg,AMNE20.jpg,AMSA19.jpg,AMSA18.jpg,AMSA18.jpg,MS,2,num_4,32,num_8,0.366877029126,,,2017_Sep_28_1438,60.0059278414,MAFE4ImagesEEG,001,101920,
AFNE01.JPG,AFNE01.JPG,AFNE01.JPG,AFNE01.JPG,AFNE01.JPG,AFNE01.JPG,,,,,,,,,,,,,,,,,5,8,58,8,,,,,,,AMSA01.jpg,AMNE01.jpg,AMSA05.jpg,AMNE11.jpg,AMSA01.jpg,MS,2,num_8,32,num_4,0.483495060937,,,2017_Sep_28_1438,60.0059278414,MAFE4ImagesEEG,001,101920,
AFNE01.JPG,AFNE01.JPG,AFNE01.JPG,AFNE01.JPG,AFNE01.JPG,AFNE01.JPG,,,,,,,,,,,,,,,,,5,9,59,7,,,,,,,AMSA04.jpg,AMNE07.jpg,AMSA14.jpg,AMNE05.jpg,AMNE05.jpg,MN,1,num_4,16,num_4,1.78348665754,,,2017_Sep_28_1438,60.0059278414,MAFE4ImagesEEG,001,101920,
,,,,,,,,,,,,,,,,,,,,,,,,,,,,,,,,,,,,,,,,,,,space,43.2467677467,2017_Sep_28_1438,60.0059278414,MAFE4ImagesEEG,001,101920,
AFNE01.JPG,AFNE01.JPG,AFNE01.JPG,AFNE01.JPG,AFNE01.JPG,AFNE01.JPG,,,,,,,,,,,,,,,,,,,,,0,0,0,5,,,AFSA07.jpg,AFSA03.jpg,AFNE15.jpg,AFNE03.jpg,AFSA03.jpg,FS,4,num_6,16,num_6,0.433526717941,,,2017_Sep_28_1438,60.0059278414,MAFE4ImagesEEG,001,101920,
AFNE01.JPG,AFNE01.JPG,AFNE01.JPG,AFNE01.JPG,AFNE01.JPG,AFNE01.JPG,,,,,,,,,,,,,,,,,,,,,0,1,1,7,,,AFSA07.jpg,AFNE14.jpg,AFNE07.jpg,AFSA01.jpg,AFSA07.jpg,FS,4,num_8,16,num_8,0.500007056282,,,2017_Sep_28_1438,60.0059278414,MAFE4ImagesEEG,001,101920,
AFNE01.JPG,AFNE01.JPG,AFNE01.JPG,AFNE01.JPG,AFNE01.JPG,AFNE01.JPG,,,,,,,,,,,,,,,,,,,,,0,2,2,0,,,AFNE16.jpg,AFSA16.jpg,AFNE10.jpg,AFSA15.jpg,AFNE10.jpg,FN,3,num_2,32,num_8,0.883496792929,,,2017_Sep_28_1438,60.0059278414,MAFE4ImagesEEG,001,101920,
AFNE01.JPG,AFNE01.JPG,AFNE01.JPG,AFNE01.JPG,AFNE01.JPG,AFNE01.JPG,,,,,,,,,,,,,,,,,,,,,0,3,3,8,,,AFSA09.jpg,AFNE16.jpg,AFNE10.jpg,AFSA06.jpg,AFNE10.jpg,FN,3,num_2,16,num_2,0.100187183649,,,2017_Sep_28_1438,60.0059278414,MAFE4ImagesEEG,001,101920,
AFNE01.JPG,AFNE01.JPG,AFNE01.JPG,AFNE01.JPG,AFNE01.JPG,AFNE01.JPG,,,,,,,,,,,,,,,,,,,,,0,4,4,6,,,AFSA02.jpg,AFNE06.jpg,AFSA12.jpg,AFNE10.jpg,AFNE10.jpg,FN,3,num_4,16,num_4,0.433466418879,,,2017_Sep_28_1438,60.0059278414,MAFE4ImagesEEG,001,101920,
AFNE01.JPG,AFNE01.JPG,AFNE01.JPG,AFNE01.JPG,AFNE01.JPG,AFNE01.JPG,,,,,,,,,,,,,,,,,,,,,0,5,5,9,,,AFSA09.jpg,AFSA17.jpg,AFNE14.jpg,AFNE12.jpg,AFNE12.jpg,FN,3,num_4,32,num_2,0.533448329195,,,2017_Sep_28_1438,60.0059278414,MAFE4ImagesEEG,001,101920,
AFNE01.JPG,AFNE01.JPG,AFNE01.JPG,AFNE01.JPG,AFNE01.JPG,AFNE01.JPG,,,,,,,,,,,,,,,,,,,,,0,6,6,2,,,AFNE02.jpg,AFSA18.jpg,AFSA16.jpg,AFNE06.jpg,AFNE06.jpg,FN,3,num_4,32,num_2,0.700178716099,,,2017_Sep_28_1438,60.0059278414,MAFE4ImagesEEG,001,101920,
AFNE01.JPG,AFNE01.JPG,AFNE01.JPG,AFNE01.JPG,AFNE01.JPG,AFNE01.JPG,,,,,,,,,,,,,,,,,,,,,0,7,7,3,,,AFSA06.jpg,AFNE13.jpg,AFNE20.jpg,AFSA02.jpg,AFNE20.jpg,FN,3,num_2,32,num_4,0.450237892568,,,2017_Sep_28_1438,60.0059278414,MAFE4ImagesEEG,001,101920,
AFNE01.JPG,AFNE01.JPG,AFNE01.JPG,AFNE01.JPG,AFNE01.JPG,AFNE01.JPG,,,,,,,,,,,,,,,,,,,,,0,8,8,4,,,AFSA16.jpg,AFNE19.jpg,AFSA02.jpg,AFNE07.jpg,AFNE07.jpg,FN,3,num_4,32,num_6,0.48352104082,,,2017_Sep_28_1438,60.0059278414,MAFE4ImagesEEG,001,101920,
AFNE01.JPG,AFNE01.JPG,AFNE01.JPG,AFNE01.JPG,AFNE01.JPG,AFNE01.JPG,,,,,,,,,,,,,,,,,,,,,0,9,9,1,,,AFSA17.jpg,AFSA11.jpg,AFNE18.jpg,AFNE15.jpg,AFSA17.jpg,FS,4,num_8,32,num_4,0.383724518062,,,2017_Sep_28_1438,60.0059278414,MAFE4ImagesEEG,001,101920,
AFNE01.JPG,AFNE01.JPG,AFNE01.JPG,AFNE01.JPG,AFNE01.JPG,AFNE01.JPG,,,,,,,,,,,,,,,,,,,,,1,0,10,3,,,AFNE14.jpg,AFNE09.jpg,AFSA02.jpg,AFSA17.jpg,AFNE14.jpg,FN,3,num_8,32,num_4,0.81677814509,,,2017_Sep_28_1438,60.0059278414,MAFE4ImagesEEG,001,101920,
AFNE01.JPG,AFNE01.JPG,AFNE01.JPG,AFNE01.JPG,AFNE01.JPG,AFNE01.JPG,,,,,,,,,,,,,,,,,,,,,1,1,11,2,,,AFSA09.jpg,AFSA14.jpg,AFNE10.jpg,AFNE04.jpg,AFNE10.jpg,FN,3,num_2,32,num_8,0.516911957588,,,2017_Sep_28_1438,60.0059278414,MAFE4ImagesEEG,001,101920,
AFNE01.JPG,AFNE01.JPG,AFNE01.JPG,AFNE01.JPG,AFNE01.JPG,AFNE01.JPG,,,,,,,,,,,,,,,,,,,,,1,2,12,9,,,AFNE03.jpg,AFSA05.jpg,AFNE16.jpg,AFSA02.jpg,AFNE03.jpg,FN,3,num_8,32,num_6,0.400227532664,,,2017_Sep_28_1438,60.0059278414,MAFE4ImagesEEG,001,101920,
AFNE01.JPG,AFNE01.JPG,AFNE01.JPG,AFNE01.JPG,AFNE01.JPG,AFNE01.JPG,,,,,,,,,,,,,,,,,,,,,1,3,13,0,,,AFSA20.jpg,AFSA16.jpg,AFNE19.jpg,AFNE16.jpg,AFSA20.jpg,FS,4,num_8,16,num_8,0.616816890426,,,2017_Sep_28_1438,60.0059278414,MAFE4ImagesEEG,001,101920,
AFNE01.JPG,AFNE01.JPG,AFNE01.JPG,AFNE01.JPG,AFNE01.JPG,AFNE01.JPG,,,,,,,,,,,,,,,,,,,,,1,4,14,6,,,AFSA03.jpg,AFSA04.jpg,AFNE04.jpg,AFNE06.jpg,AFNE06.jpg,FN,3,num_4,32,num_8,0.550141542393,,,2017_Sep_28_1438,60.0059278414,MAFE4ImagesEEG,001,101920,
AFNE01.JPG,AFNE01.JPG,AFNE01.JPG,AFNE01.JPG,AFNE01.JPG,AFNE01.JPG,,,,,,,,,,,,,,,,,,,,,1,5,15,4,,,AFSA17.jpg,AFNE11.jpg,AFNE05.jpg,AFSA19.jpg,AFSA19.jpg,FS,4,num_4,32,num_2,1.89975187584,,,2017_Sep_28_1438,60.0059278414,MAFE4ImagesEEG,001,101920,
AFNE01.JPG,AFNE01.JPG,AFNE01.JPG,AFNE01.JPG,AFNE01.JPG,AFNE01.JPG,,,,,,,,,,,,,,,,,,,,,1,6,16,1,,,AFSA15.jpg,AFNE01.jpg,AFSA10.jpg,AFNE18.jpg,AFSA15.jpg,FS,4,num_8,32,num_2,0.733443261473,,,2017_Sep_28_1438,60.0059278414,MAFE4ImagesEEG,001,101920,
AFNE01.JPG,AFNE01.JPG,AFNE01.JPG,AFNE01.JPG,AFNE01.JPG,AFNE01.JPG,,,,,,,,,,,,,,,,,,,,,1,7,17,5,,,AFNE08.jpg,AFNE16.jpg,AFSA16.jpg,AFSA20.jpg,AFNE16.jpg,FN,3,num_6,16,num_6,0.666812816984,,,2017_Sep_28_1438,60.0059278414,MAFE4ImagesEEG,001,101920,
AFNE01.JPG,AFNE01.JPG,AFNE01.JPG,AFNE01.JPG,AFNE01.JPG,AFNE01.JPG,,,,,,,,,,,,,,,,,,,,,1,8,18,8,,,AFNE06.jpg,AFNE10.jpg,AFSA02.jpg,AFSA01.jpg,AFSA02.jpg,FS,4,num_2,32,num_4,0.533488421584,,,2017_Sep_28_1438,60.0059278414,MAFE4ImagesEEG,001,101920,
AFNE01.JPG,AFNE01.JPG,AFNE01.JPG,AFNE01.JPG,AFNE01.JPG,AFNE01.JPG,,,,,,,,,,,,,,,,,,,,,1,9,19,7,,,AFNE12.jpg,AFSA04.jpg,AFSA18.jpg,AFNE04.jpg,AFSA18.jpg,FS,4,num_2,32,num_6,0.316818878986,,,2017_Sep_28_1438,60.0059278414,MAFE4ImagesEEG,001,101920,
AFNE01.JPG,AFNE01.JPG,AFNE01.JPG,AFNE01.JPG,AFNE01.JPG,AFNE01.JPG,,,,,,,,,,,,,,,,,,,,,2,0,20,2,,,AFSA02.jpg,AFSA03.jpg,AFNE19.jpg,AFNE17.jpg,AFNE19.jpg,FN,3,num_2,32,num_8,0.433518378704,,,2017_Sep_28_1438,60.0059278414,MAFE4ImagesEEG,001,101920,
AFNE01.JPG,AFNE01.JPG,AFNE01.JPG,AFNE01.JPG,AFNE01.JPG,AFNE01.JPG,,,,,,,,,,,,,,,,,,,,,2,1,21,4,,,AFNE16.jpg,AFNE20.jpg,AFSA09.jpg,AFSA02.jpg,AFNE16.jpg,FN,3,num_8,32,num_2,0.850126082718,,,2017_Sep_28_1438,60.0059278414,MAFE4ImagesEEG,001,101920,
AFNE01.JPG,AFNE01.JPG,AFNE01.JPG,AFNE01.JPG,AFNE01.JPG,AFNE01.JPG,,,,,,,,,,,,,,,,,,,,,2,2,22,9,,,AFNE18.jpg,AFNE17.jpg,AFSA12.jpg,AFSA13.jpg,AFSA12.jpg,FS,4,num_2,32,num_8,0.716805536242,,,2017_Sep_28_1438,60.0059278414,MAFE4ImagesEEG,001,101920,
AFNE01.JPG,AFNE01.JPG,AFNE01.JPG,AFNE01.JPG,AFNE01.JPG,AFNE01.JPG,,,,,,,,,,,,,,,,,,,,,2,3,23,7,,,AFSA08.jpg,AFNE09.jpg,AFSA20.jpg,AFNE17.jpg,AFNE17.jpg,FN,3,num_4,32,num_6,0.716823818395,,,2017_Sep_28_1438,60.0059278414,MAFE4ImagesEEG,001,101920,
AFNE01.JPG,AFNE01.JPG,AFNE01.JPG,AFNE01.JPG,AFNE01.JPG,AFNE01.JPG,,,,,,,,,,,,,,,,,,,,,2,4,24,8,,,AFSA17.jpg,AFSA09.jpg,AFNE11.jpg,AFNE14.jpg,AFNE14.jpg,FN,3,num_4,16,num_4,1.38346343598,,,2017_Sep_28_1438,60.0059278414,MAFE4ImagesEEG,001,101920,
AFNE01.JPG,AFNE01.JPG,AFNE01.JPG,AFNE01.JPG,AFNE01.JPG,AFNE01.JPG,,,,,,,,,,,,,,,,,,,,,2,5,25,1,,,AFNE08.jpg,AFSA05.jpg,AFSA20.jpg,AFNE03.jpg,AFNE03.jpg,FN,3,num_4,32,num_8,1.41673279251,,,2017_Sep_28_1438,60.0059278414,MAFE4ImagesEEG,001,101920,
AFNE01.JPG,AFNE01.JPG,AFNE01.JPG,AFNE01.JPG,AFNE01.JPG,AFNE01.JPG,,,,,,,,,,,,,,,,,,,,,2,6,26,6,,,AFNE13.jpg,AFSA11.jpg,AFNE08.jpg,AFSA15.jpg,AFSA11.jpg,FS,4,num_6,16,num_6,1.18345759856,,,2017_Sep_28_1438,60.0059278414,MAFE4ImagesEEG,001,101920,
AFNE01.JPG,AFNE01.JPG,AFNE01.JPG,AFNE01.JPG,AFNE01.JPG,AFNE01.JPG,,,,,,,,,,,,,,,,,,,,,2,7,27,0,,,AFSA12.jpg,AFNE18.jpg,AFNE15.jpg,AFSA01.jpg,AFNE15.jpg,FN,3,num_2,32,num_4,0.850005805376,,,2017_Sep_28_1438,60.0059278414,MAFE4ImagesEEG,001,101920,
AFNE01.JPG,AFNE01.JPG,AFNE01.JPG,AFNE01.JPG,AFNE01.JPG,AFNE01.JPG,,,,,,,,,,,,,,,,,,,,,2,8,28,3,,,AFNE02.jpg,AFSA01.jpg,AFSA15.jpg,AFNE03.jpg,AFSA15.jpg,FS,4,num_2,16,num_2,0.516812528309,,,2017_Sep_28_1438,60.0059278414,MAFE4ImagesEEG,001,101920,
AFNE01.JPG,AFNE01.JPG,AFNE01.JPG,AFNE01.JPG,AFNE01.JPG,AFNE01.JPG,,,,,,,,,,,,,,,,,,,,,2,9,29,5,,,AFSA19.jpg,AFSA20.jpg,AFNE10.jpg,AFNE16.jpg,AFNE10.jpg,FN,3,num_2,32,num_4,0.666840721387,,,2017_Sep_28_1438,60.0059278414,MAFE4ImagesEEG,001,101920,
AFNE01.JPG,AFNE01.JPG,AFNE01.JPG,AFNE01.JPG,AFNE01.JPG,AFNE01.JPG,,,,,,,,,,,,,,,,,,,,,3,0,30,4,,,AFSA07.jpg,AFSA18.jpg,AFNE06.jpg,AFNE13.jpg,AFNE06.jpg,FN,3,num_2,32,num_8,0.533488421584,,,2017_Sep_28_1438,60.0059278414,MAFE4ImagesEEG,001,101920,
AFNE01.JPG,AFNE01.JPG,AFNE01.JPG,AFNE01.JPG,AFNE01.JPG,AFNE01.JPG,,,,,,,,,,,,,,,,,,,,,3,1,31,0,,,AFNE14.jpg,AFSA12.jpg,AFSA15.jpg,AFNE09.jpg,AFNE09.jpg,FN,3,num_4,16,num_4,1.10017146735,,,2017_Sep_28_1438,60.0059278414,MAFE4ImagesEEG,001,101920,
AFNE01.JPG,AFNE01.JPG,AFNE01.JPG,AFNE01.JPG,AFNE01.JPG,AFNE01.JPG,,,,,,,,,,,,,,,,,,,,,3,2,32,1,,,AFSA15.jpg,AFNE07.jpg,AFNE08.jpg,AFSA01.jpg,AFNE07.jpg,FN,3,num_6,32,num_8,4.13319032628,,,2017_Sep_28_1438,60.0059278414,MAFE4ImagesEEG,001,101920,
AFNE01.JPG,AFNE01.JPG,AFNE01.JPG,AFNE01.JPG,AFNE01.JPG,AFNE01.JPG,,,,,,,,,,,,,,,,,,,,,3,3,33,5,,,AFNE03.jpg,AFNE10.jpg,AFSA07.jpg,AFSA11.jpg,AFSA11.jpg,FS,4,num_4,32,num_6,0.816770768084,,,2017_Sep_28_1438,60.0059278414,MAFE4ImagesEEG,001,101920,
AFNE01.JPG,AFNE01.JPG,AFNE01.JPG,AFNE01.JPG,AFNE01.JPG,AFNE01.JPG,,,,,,,,,,,,,,,,,,,,,3,4,34,3,,,AFNE08.jpg,AFSA06.jpg,AFNE17.jpg,AFSA20.jpg,AFSA06.jpg,FS,4,num_6,32,num_4,0.750010744785,,,2017_Sep_28_1438,60.0059278414,MAFE4ImagesEEG,001,101920,
AFNE01.JPG,AFNE01.JPG,AFNE01.JPG,AFNE01.JPG,AFNE01.JPG,AFNE01.JPG,,,,,,,,,,,,,,,,,,,,,3,5,35,9,,,AFSA10.jpg,AFNE16.jpg,AFNE17.jpg,AFSA06.jpg,AFSA10.jpg,FS,4,num_8,16,num_8,0.416786356014,,,2017_Sep_28_1438,60.0059278414,MAFE4ImagesEEG,001,101920,
AFNE01.JPG,AFNE01.JPG,AFNE01.JPG,AFNE01.JPG,AFNE01.JPG,AFNE01.JPG,,,,,,,,,,,,,,,,,,,,,3,6,36,2,,,AFSA01.jpg,AFNE07.jpg,AFSA09.jpg,AFNE02.jpg,AFSA09.jpg,FS,4,num_2,32,num_4,0.466820450616,,,2017_Sep_28_1438,60.0059278414,MAFE4ImagesEEG,001,101920,
AFNE01.JPG,AFNE01.JPG,AFNE01.JPG,AFNE01.JPG,AFNE01.JPG,AFNE01.JPG,,,,,,,,,,,,,,,,,,,,,3,7,37,8,,,AFSA03.jpg,AFNE17.jpg,AFSA09.jpg,AFNE03.jpg,AFNE17.jpg,FN,3,num_6,32,num_8,0.916812015115,,,2017_Sep_28_1438,60.0059278414,MAFE4ImagesEEG,001,101920,
AFNE01.JPG,AFNE01.JPG,AFNE01.JPG,AFNE01.JPG,AFNE01.JPG,AFNE01.JPG,,,,,,,,,,,,,,,,,,,,,3,8,38,6,,,AFNE14.jpg,AFSA19.jpg,AFNE06.jpg,AFSA05.jpg,AFNE06.jpg,FN,3,num_2,32,num_8,0.700176470913,,,2017_Sep_28_1438,60.0059278414,MAFE4ImagesEEG,001,101920,
