IPosition2,IPosition3,IPosition1,IPosition6,IPosition4,IPosition5,TrialsF1.thisRepN,TrialsF1.thisTrialN,TrialsF1.thisN,TrialsF1.thisIndex,TrialsM1.thisRepN,TrialsM1.thisTrialN,TrialsM1.thisN,TrialsM1.thisIndex,TrialsF2.thisRepN,TrialsF2.thisTrialN,TrialsF2.thisN,TrialsF2.thisIndex,TrialsM2.thisRepN,TrialsM2.thisTrialN,TrialsM2.thisN,TrialsM2.thisIndex,TrialsF3.thisRepN,TrialsF3.thisTrialN,TrialsF3.thisN,TrialsF3.thisIndex,TrialsM3.thisRepN,TrialsM3.thisTrialN,TrialsM3.thisN,TrialsM3.thisIndex,InstrKey_resp.keys,InstrKey_resp.rt,Image0 _Position,Image1 _Position,Image2 _Position,Image3 _Position,Center_image,condition,code,correct_answer,accuracy,Key_Resp.keys,Key_Resp.rt,BreakKey_resp.keys,BreakKey_resp.rt,date,frameRate,expName,session,participant,
,,,,,,,,,,,,,,,,,,,,,,,,,,,,,,space,14.0994820368,,,,,,,,,,,,,,2017_Oct_10_1232,60.0024826269,FEMA4ImagesEEG,001,101965,
AMSA21.JPG,AMNE23.JPG,AMNE21.JPG,AMSA25.JPG,AMNE25.JPG,AMSA23.JPG,0,0,0,5,,,,,,,,,,,,,,,,,,,,,,,AFSA04.jpg,AFSA15.jpg,AFNE04.jpg,AFNE19.jpg,AFNE19.jpg,FN,3,num_4,32,num_2,2.44998747506,,,2017_Oct_10_1232,60.0024826269,FEMA4ImagesEEG,001,101965,
AFSA21.JPG,AFNE22.JPG,AFNE21.JPG,AFSA23.JPG,AFSA22.JPG,AFNE23.JPG,0,1,1,0,,,,,,,,,,,,,,,,,,,,,,,AFNE03.jpg,AFSA16.jpg,AFSA15.jpg,AFNE13.jpg,AFNE03.jpg,FN,3,num_8,16,num_8,1.45008145191,,,2017_Oct_10_1232,60.0024826269,FEMA4ImagesEEG,001,101965,
AFSA25.JPG,AFNE24.JPG,AFSA24.JPG,AFNE21.JPG,AFSA21.JPG,AFNE25.JPG,0,2,2,2,,,,,,,,,,,,,,,,,,,,,,,AFNE16.jpg,AFNE12.jpg,AFSA18.jpg,AFSA07.jpg,AFNE12.jpg,FN,3,num_6,32,num_8,1.06674890441,,,2017_Oct_10_1232,60.0024826269,FEMA4ImagesEEG,001,101965,
AMNE22.JPG,AMSA24.JPG,AMSA22.JPG,AMNE25.JPG,AMNE24.JPG,AMSA25.JPG,0,3,3,7,,,,,,,,,,,,,,,,,,,,,,,AFSA08.jpg,AFNE02.jpg,AFSA02.jpg,AFNE16.jpg,AFSA02.jpg,FS,4,num_2,32,num_6,1.75006037927,,,2017_Oct_10_1232,60.0024826269,FEMA4ImagesEEG,001,101965,
AMSA21.JPG,AMNE22.JPG,AMNE21.JPG,AMSA23.JPG,AMSA22.JPG,AMNE23.JPG,0,4,4,1,,,,,,,,,,,,,,,,,,,,,,,AFNE19.jpg,AFSA03.jpg,AFNE06.jpg,AFSA09.jpg,AFSA09.jpg,FS,4,num_4,32,num_2,1.33343308349,,,2017_Oct_10_1232,60.0024826269,FEMA4ImagesEEG,001,101965,
AFNE22.JPG,AFSA24.JPG,AFSA22.JPG,AFNE25.JPG,AFNE24.JPG,AFSA25.JPG,0,5,5,6,,,,,,,,,,,,,,,,,,,,,,,AFSA08.jpg,AFNE16.jpg,AFNE15.jpg,AFSA13.jpg,AFNE16.jpg,FN,3,num_6,32,num_8,1.53307808831,,,2017_Oct_10_1232,60.0024826269,FEMA4ImagesEEG,001,101965,
AFSA21.JPG,AFNE23.JPG,AFNE21.JPG,AFSA25.JPG,AFNE25.JPG,AFSA23.JPG,0,6,6,4,,,,,,,,,,,,,,,,,,,,,,,AFNE15.jpg,AFSA02.jpg,AFNE06.jpg,AFSA01.jpg,AFNE15.jpg,FN,3,num_8,32,num_2,0.966807567747,,,2017_Oct_10_1232,60.0024826269,FEMA4ImagesEEG,001,101965,
AFNE23.JPG,AFNE24.JPG,AFNE22.JPG,AFSA24.JPG,AFSA22.JPG,AFSA23.JPG,0,7,7,8,,,,,,,,,,,,,,,,,,,,,,,AFNE20.jpg,AFSA09.jpg,AFNE05.jpg,AFSA19.jpg,AFNE20.jpg,FN,3,num_8,32,num_4,1.71670436964,,,2017_Oct_10_1232,60.0024826269,FEMA4ImagesEEG,001,101965,
AMSA25.JPG,AMNE24.JPG,AMSA24.JPG,AMNE26.JPG,AMSA21.JPG,AMNE25.JPG,0,8,8,3,,,,,,,,,,,,,,,,,,,,,,,AFSA09.jpg,AFSA08.jpg,AFNE16.jpg,AFNE11.jpg,AFNE16.jpg,FN,3,num_2,16,num_2,1.38344544801,,,2017_Oct_10_1232,60.0024826269,FEMA4ImagesEEG,001,101965,
AMNE23.JPG,AMNE24.JPG,AMNE22.JPG,AMSA24.JPG,AMSA22.JPG,AMSA23.JPG,0,9,9,9,,,,,,,,,,,,,,,,,,,,,,,AFSA14.jpg,AFNE01.jpg,AFSA09.jpg,AFNE05.jpg,AFNE01.jpg,FN,3,num_6,16,num_6,1.93354681786,,,2017_Oct_10_1232,60.0024826269,FEMA4ImagesEEG,001,101965,
AFSA21.JPG,AFNE22.JPG,AFNE21.JPG,AFSA23.JPG,AFSA22.JPG,AFNE23.JPG,,,,,0,0,0,0,,,,,,,,,,,,,,,,,,,AMSA13.jpg,AMNE14.jpg,AMSA15.jpg,AMNE03.jpg,AMSA13.jpg,MS,2,num_8,32,num_4,1.36672109622,,,2017_Oct_10_1232,60.0024826269,FEMA4ImagesEEG,001,101965,
AFNE23.JPG,AFNE24.JPG,AFNE22.JPG,AFSA24.JPG,AFSA22.JPG,AFSA23.JPG,,,,,0,1,1,8,,,,,,,,,,,,,,,,,,,AMSA20.jpg,AMNE20.jpg,AMNE08.jpg,AMSA01.jpg,AMSA20.jpg,MS,2,num_8,32,num_6,1.66669906152,,,2017_Oct_10_1232,60.0024826269,FEMA4ImagesEEG,001,101965,
AMNE22.JPG,AMSA24.JPG,AMSA22.JPG,AMNE25.JPG,AMNE24.JPG,AMSA25.JPG,,,,,0,2,2,7,,,,,,,,,,,,,,,,,,,AMNE12.jpg,AMSA12.jpg,AMSA14.jpg,AMNE02.jpg,AMNE02.jpg,MN,1,num_4,32,num_2,0.883478323813,,,2017_Oct_10_1232,60.0024826269,FEMA4ImagesEEG,001,101965,
AFSA21.JPG,AFNE23.JPG,AFNE21.JPG,AFSA25.JPG,AFNE25.JPG,AFSA23.JPG,,,,,0,3,3,4,,,,,,,,,,,,,,,,,,,AMNE17.jpg,AMSA20.jpg,AMNE03.jpg,AMSA15.jpg,AMNE03.jpg,MN,1,num_2,32,num_8,1.28345792484,,,2017_Oct_10_1232,60.0024826269,FEMA4ImagesEEG,001,101965,
AMSA21.JPG,AMNE22.JPG,AMNE21.JPG,AMSA23.JPG,AMSA22.JPG,AMNE23.JPG,,,,,0,4,4,1,,,,,,,,,,,,,,,,,,,AMNE08.jpg,AMSA17.jpg,AMNE15.jpg,AMSA19.jpg,AMSA17.jpg,MS,2,num_6,16,num_6,1.33341319754,,,2017_Oct_10_1232,60.0024826269,FEMA4ImagesEEG,001,101965,
AMSA21.JPG,AMNE23.JPG,AMNE21.JPG,AMSA25.JPG,AMNE25.JPG,AMSA23.JPG,,,,,0,5,5,5,,,,,,,,,,,,,,,,,,,AMNE04.jpg,AMSA12.jpg,AMNE07.jpg,AMSA16.jpg,AMSA12.jpg,MS,2,num_6,32,num_4,1.84982210153,,,2017_Oct_10_1232,60.0024826269,FEMA4ImagesEEG,001,101965,
AMNE23.JPG,AMNE24.JPG,AMNE22.JPG,AMSA24.JPG,AMSA22.JPG,AMSA23.JPG,,,,,0,6,6,9,,,,,,,,,,,,,,,,,,,AMSA20.jpg,AMSA16.jpg,AMNE04.jpg,AMNE08.jpg,AMSA20.jpg,MS,2,num_8,16,num_8,1.38343454292,,,2017_Oct_10_1232,60.0024826269,FEMA4ImagesEEG,001,101965,
AFNE22.JPG,AFSA24.JPG,AFSA22.JPG,AFNE25.JPG,AFNE24.JPG,AFSA25.JPG,,,,,0,7,7,6,,,,,,,,,,,,,,,,,,,AMSA05.jpg,AMNE07.jpg,AMNE11.jpg,AMSA09.jpg,AMSA05.jpg,MS,2,num_8,32,num_2,1.1334743948,,,2017_Oct_10_1232,60.0024826269,FEMA4ImagesEEG,001,101965,
AMSA25.JPG,AMNE24.JPG,AMSA24.JPG,AMNE26.JPG,AMSA21.JPG,AMNE25.JPG,,,,,0,8,8,3,,,,,,,,,,,,,,,,,,,AMNE05.jpg,AMSA09.jpg,AMSA07.jpg,AMNE04.jpg,AMNE05.jpg,MN,1,num_8,32,num_6,1.46699696488,,,2017_Oct_10_1232,60.0024826269,FEMA4ImagesEEG,001,101965,
AFSA25.JPG,AFNE24.JPG,AFSA24.JPG,AFNE21.JPG,AFSA21.JPG,AFNE25.JPG,,,,,0,9,9,2,,,,,,,,,,,,,,,,,,,AMSA15.jpg,AMNE13.jpg,AMSA03.jpg,AMNE20.jpg,AMSA03.jpg,MS,2,num_2,16,num_2,1.13346124452,,,2017_Oct_10_1232,60.0024826269,FEMA4ImagesEEG,001,101965,
AMSA21.JPG,AMNE23.JPG,AMNE21.JPG,AMSA25.JPG,AMNE25.JPG,AMSA23.JPG,,,,,,,,,0,0,0,5,,,,,,,,,,,,,,,AFSA17.jpg,AFNE01.jpg,AFSA15.jpg,AFNE02.jpg,AFSA15.jpg,FS,4,num_2,32,num_6,1.41671870672,,,2017_Oct_10_1232,60.0024826269,FEMA4ImagesEEG,001,101965,
AFNE23.JPG,AFNE24.JPG,AFNE22.JPG,AFSA24.JPG,AFSA22.JPG,AFSA23.JPG,,,,,,,,,0,1,1,8,,,,,,,,,,,,,,,AFNE01.jpg,AFSA07.jpg,AFNE19.jpg,AFSA15.jpg,AFNE19.jpg,FN,3,num_2,32,num_8,1.28342649224,,,2017_Oct_10_1232,60.0024826269,FEMA4ImagesEEG,001,101965,
AFSA21.JPG,AFNE22.JPG,AFNE21.JPG,AFSA23.JPG,AFSA22.JPG,AFNE23.JPG,,,,,,,,,0,2,2,0,,,,,,,,,,,,,,,AFSA14.jpg,AFSA07.jpg,AFNE16.jpg,AFNE06.jpg,AFSA14.jpg,FS,4,num_8,32,num_6,1.33342217829,,,2017_Oct_10_1232,60.0024826269,FEMA4ImagesEEG,001,101965,
AMNE23.JPG,AMNE24.JPG,AMNE22.JPG,AMSA24.JPG,AMSA22.JPG,AMSA23.JPG,,,,,,,,,0,3,3,9,,,,,,,,,,,,,,,AFSA04.jpg,AFNE17.jpg,AFNE06.jpg,AFSA17.jpg,AFSA04.jpg,FS,4,num_8,16,num_8,1.38343678799,,,2017_Oct_10_1232,60.0024826269,FEMA4ImagesEEG,001,101965,
AFNE22.JPG,AFSA24.JPG,AFSA22.JPG,AFNE25.JPG,AFNE24.JPG,AFSA25.JPG,,,,,,,,,0,4,4,6,,,,,,,,,,,,,,,AFNE13.jpg,AFSA03.jpg,AFNE05.jpg,AFSA02.jpg,AFNE13.jpg,FN,3,num_8,32,num_2,1.08349282132,,,2017_Oct_10_1232,60.0024826269,FEMA4ImagesEEG,001,101965,
AMSA25.JPG,AMNE24.JPG,AMSA24.JPG,AMNE26.JPG,AMSA21.JPG,AMNE25.JPG,,,,,,,,,0,5,5,3,,,,,,,,,,,,,,,AFNE10.jpg,AFNE06.jpg,AFSA17.jpg,AFSA12.jpg,AFNE06.jpg,FN,3,num_6,32,num_8,1.36675701919,,,2017_Oct_10_1232,60.0024826269,FEMA4ImagesEEG,001,101965,
AFSA21.JPG,AFNE23.JPG,AFNE21.JPG,AFSA25.JPG,AFNE25.JPG,AFSA23.JPG,,,,,,,,,0,6,6,4,,,,,,,,,,,,,,,AFSA07.jpg,AFNE10.jpg,AFSA12.jpg,AFNE15.jpg,AFSA12.jpg,FS,4,num_2,16,num_2,1.10008759412,,,2017_Oct_10_1232,60.0024826269,FEMA4ImagesEEG,001,101965,
AFSA25.JPG,AFNE24.JPG,AFSA24.JPG,AFNE21.JPG,AFSA21.JPG,AFNE25.JPG,,,,,,,,,0,7,7,2,,,,,,,,,,,,,,,AFSA12.jpg,AFNE06.jpg,AFNE17.jpg,AFSA11.jpg,AFSA12.jpg,FS,4,num_8,16,num_8,0.916836258024,,,2017_Oct_10_1232,60.0024826269,FEMA4ImagesEEG,001,101965,
AMSA21.JPG,AMNE22.JPG,AMNE21.JPG,AMSA23.JPG,AMSA22.JPG,AMNE23.JPG,,,,,,,,,0,8,8,1,,,,,,,,,,,,,,,AFSA11.jpg,AFNE11.jpg,AFSA02.jpg,AFNE02.jpg,AFSA02.jpg,FS,4,num_2,32,num_6,1.0000898072,,,2017_Oct_10_1232,60.0024826269,FEMA4ImagesEEG,001,101965,
AMNE22.JPG,AMSA24.JPG,AMSA22.JPG,AMNE25.JPG,AMNE24.JPG,AMSA25.JPG,,,,,,,,,0,9,9,7,,,,,,,,,,,,,,,AFNE07.jpg,AFSA06.jpg,AFSA15.jpg,AFNE13.jpg,AFNE07.jpg,FN,3,num_8,16,num_8,1.400107897,,,2017_Oct_10_1232,60.0024826269,FEMA4ImagesEEG,001,101965,
AFNE22.JPG,AFSA24.JPG,AFSA22.JPG,AFNE25.JPG,AFNE24.JPG,AFSA25.JPG,,,,,,,,,,,,,0,0,0,6,,,,,,,,,,,AMNE08.jpg,AMSA18.jpg,AMNE07.jpg,AMSA20.jpg,AMSA18.jpg,MS,2,num_6,16,num_6,0.683531823335,,,2017_Oct_10_1232,60.0024826269,FEMA4ImagesEEG,001,101965,
AFSA25.JPG,AFNE24.JPG,AFSA24.JPG,AFNE21.JPG,AFSA21.JPG,AFNE25.JPG,,,,,,,,,,,,,0,1,1,2,,,,,,,,,,,AMSA08.jpg,AMSA06.jpg,AMNE09.jpg,AMNE11.jpg,AMNE11.jpg,MN,1,num_4,32,num_8,1.00018346333,,,2017_Oct_10_1232,60.0024826269,FEMA4ImagesEEG,001,101965,
AFNE23.JPG,AFNE24.JPG,AFNE22.JPG,AFSA24.JPG,AFSA22.JPG,AFSA23.JPG,,,,,,,,,,,,,0,2,2,8,,,,,,,,,,,AMSA06.jpg,AMNE06.jpg,AMSA20.jpg,AMNE13.jpg,AMSA06.jpg,MS,2,num_8,32,num_4,1.31672669319,,,2017_Oct_10_1232,60.0024826269,FEMA4ImagesEEG,001,101965,
AMNE22.JPG,AMSA24.JPG,AMSA22.JPG,AMNE25.JPG,AMNE24.JPG,AMSA25.JPG,,,,,,,,,,,,,0,3,3,7,,,,,,,,,,,AMSA04.jpg,AMSA16.jpg,AMNE02.jpg,AMNE12.jpg,AMSA04.jpg,MS,2,num_8,16,num_8,0.716788082733,,,2017_Oct_10_1232,60.0024826269,FEMA4ImagesEEG,001,101965,
AMSA25.JPG,AMNE24.JPG,AMSA24.JPG,AMNE26.JPG,AMSA21.JPG,AMNE25.JPG,,,,,,,,,,,,,0,4,4,3,,,,,,,,,,,AMNE17.jpg,AMSA09.jpg,AMNE06.jpg,AMSA19.jpg,AMNE17.jpg,MN,1,num_8,32,num_6,1.38344608957,,,2017_Oct_10_1232,60.0024826269,FEMA4ImagesEEG,001,101965,
AFSA21.JPG,AFNE22.JPG,AFNE21.JPG,AFSA23.JPG,AFSA22.JPG,AFNE23.JPG,,,,,,,,,,,,,0,5,5,0,,,,,,,,,,,AMSA13.jpg,AMNE02.jpg,AMSA01.jpg,AMNE14.jpg,AMNE14.jpg,MN,1,num_4,16,num_4,0.716778139933,,,2017_Oct_10_1232,60.0024826269,FEMA4ImagesEEG,001,101965,
AMNE23.JPG,AMNE24.JPG,AMNE22.JPG,AMSA24.JPG,AMSA22.JPG,AMSA23.JPG,,,,,,,,,,,,,0,6,6,9,,,,,,,,,,,AMSA18.jpg,AMNE13.jpg,AMNE06.jpg,AMSA20.jpg,AMNE13.jpg,MN,1,num_6,32,num_8,0.783432746772,,,2017_Oct_10_1232,60.0024826269,FEMA4ImagesEEG,001,101965,
AFSA21.JPG,AFNE23.JPG,AFNE21.JPG,AFSA25.JPG,AFNE25.JPG,AFSA23.JPG,,,,,,,,,,,,,0,7,7,4,,,,,,,,,,,AMSA04.jpg,AMSA15.jpg,AMNE20.jpg,AMNE10.jpg,AMNE10.jpg,MN,1,num_4,32,num_2,0.833525617141,,,2017_Oct_10_1232,60.0024826269,FEMA4ImagesEEG,001,101965,
AMSA21.JPG,AMNE22.JPG,AMNE21.JPG,AMSA23.JPG,AMSA22.JPG,AMNE23.JPG,,,,,,,,,,,,,0,8,8,1,,,,,,,,,,,AMSA15.jpg,AMNE19.jpg,AMSA13.jpg,AMNE16.jpg,AMSA15.jpg,MS,2,num_8,16,num_8,0.583640522207,,,2017_Oct_10_1232,60.0024826269,FEMA4ImagesEEG,001,101965,
AMSA21.JPG,AMNE23.JPG,AMNE21.JPG,AMSA25.JPG,AMNE25.JPG,AMSA23.JPG,,,,,,,,,,,,,0,9,9,5,,,,,,,,,,,AMSA08.jpg,AMNE05.jpg,AMNE06.jpg,AMSA03.jpg,AMSA03.jpg,MS,2,num_4,32,num_6,1.08335394098,,,2017_Oct_10_1232,60.0024826269,FEMA4ImagesEEG,001,101965,
AFSA21.JPG,AFNE23.JPG,AFNE21.JPG,AFSA25.JPG,AFNE25.JPG,AFSA23.JPG,,,,,,,,,,,,,,,,,0,0,0,4,,,,,,,AFNE14.jpg,AFSA05.jpg,AFSA07.jpg,AFNE20.jpg,AFSA07.jpg,FS,4,num_2,32,num_4,0.916834012838,,,2017_Oct_10_1232,60.0024826269,FEMA4ImagesEEG,001,101965,
AMNE22.JPG,AMSA24.JPG,AMSA22.JPG,AMNE25.JPG,AMNE24.JPG,AMSA25.JPG,,,,,,,,,,,,,,,,,0,1,1,7,,,,,,,AFSA15.jpg,AFSA11.jpg,AFNE12.jpg,AFNE03.jpg,AFNE03.jpg,FN,3,num_4,32,num_8,0.66677892569,,,2017_Oct_10_1232,60.0024826269,FEMA4ImagesEEG,001,101965,
AMSA21.JPG,AMNE23.JPG,AMNE21.JPG,AMSA25.JPG,AMNE25.JPG,AMSA23.JPG,,,,,,,,,,,,,,,,,0,2,2,5,,,,,,,AFSA06.jpg,AFNE07.jpg,AFSA01.jpg,AFNE03.jpg,AFSA06.jpg,FS,4,num_8,32,num_6,0.816812812001,,,2017_Oct_10_1232,60.0024826269,FEMA4ImagesEEG,001,101965,
AMNE23.JPG,AMNE24.JPG,AMNE22.JPG,AMSA24.JPG,AMSA22.JPG,AMSA23.JPG,,,,,,,,,,,,,,,,,0,3,3,9,,,,,,,AFSA04.jpg,AFSA08.jpg,AFNE02.jpg,AFNE12.jpg,AFSA04.jpg,FS,4,num_8,32,num_2,1.41674019641,,,2017_Oct_10_1232,60.0024826269,FEMA4ImagesEEG,001,101965,
AMSA25.JPG,AMNE24.JPG,AMSA24.JPG,AMNE26.JPG,AMSA21.JPG,AMNE25.JPG,,,,,,,,,,,,,,,,,0,4,4,3,,,,,,,AFSA02.jpg,AFNE18.jpg,AFNE11.jpg,AFSA16.jpg,AFNE11.jpg,FN,3,num_2,32,num_4,1.13345996151,,,2017_Oct_10_1232,60.0024826269,FEMA4ImagesEEG,001,101965,
AFNE23.JPG,AFNE24.JPG,AFNE22.JPG,AFSA24.JPG,AFSA22.JPG,AFSA23.JPG,,,,,,,,,,,,,,,,,0,5,5,8,,,,,,,AFSA07.jpg,AFNE19.jpg,AFNE04.jpg,AFSA10.jpg,AFNE04.jpg,FN,3,num_2,16,num_2,1.78340869129,,,2017_Oct_10_1232,60.0024826269,FEMA4ImagesEEG,001,101965,
AMSA21.JPG,AMNE22.JPG,AMNE21.JPG,AMSA23.JPG,AMSA22.JPG,AMNE23.JPG,,,,,,,,,,,,,,,,,0,6,6,1,,,,,,,AFSA07.jpg,AFNE20.jpg,AFNE14.jpg,AFSA13.jpg,AFSA07.jpg,FS,4,num_8,32,num_2,1.55004267453,,,2017_Oct_10_1232,60.0024826269,FEMA4ImagesEEG,001,101965,
AFSA25.JPG,AFNE24.JPG,AFSA24.JPG,AFNE21.JPG,AFSA21.JPG,AFNE25.JPG,,,,,,,,,,,,,,,,,0,7,7,2,,,,,,,AFNE10.jpg,AFSA05.jpg,AFSA12.jpg,AFNE19.jpg,AFSA05.jpg,FS,4,num_6,16,num_6,1.46675063635,,,2017_Oct_10_1232,60.0024826269,FEMA4ImagesEEG,001,101965,
AFSA21.JPG,AFNE22.JPG,AFNE21.JPG,AFSA23.JPG,AFSA22.JPG,AFNE23.JPG,,,,,,,,,,,,,,,,,0,8,8,0,,,,,,,AFSA16.jpg,AFSA04.jpg,AFNE03.jpg,AFNE13.jpg,AFSA16.jpg,FS,4,num_8,16,num_8,1.20010719134,,,2017_Oct_10_1232,60.0024826269,FEMA4ImagesEEG,001,101965,
AFNE22.JPG,AFSA24.JPG,AFSA22.JPG,AFNE25.JPG,AFNE24.JPG,AFSA25.JPG,,,,,,,,,,,,,,,,,0,9,9,6,,,,,,,AFNE06.jpg,AFNE07.jpg,AFSA12.jpg,AFSA16.jpg,AFSA12.jpg,FS,4,num_2,16,num_2,1.75005011563,,,2017_Oct_10_1232,60.0024826269,FEMA4ImagesEEG,001,101965,
AFNE23.JPG,AFNE24.JPG,AFNE22.JPG,AFSA24.JPG,AFSA22.JPG,AFSA23.JPG,,,,,,,,,,,,,,,,,,,,,0,0,0,8,,,AMSA19.jpg,AMSA13.jpg,AMNE14.jpg,AMNE08.jpg,AMNE14.jpg,MN,1,num_2,32,num_8,1.11678468296,,,2017_Oct_10_1232,60.0024826269,FEMA4ImagesEEG,001,101965,
AMNE23.JPG,AMNE24.JPG,AMNE22.JPG,AMSA24.JPG,AMSA22.JPG,AMSA23.JPG,,,,,,,,,,,,,,,,,,,,,0,1,1,9,,,AMSA05.jpg,AMNE01.jpg,AMSA17.jpg,AMNE15.jpg,AMSA17.jpg,MS,2,num_2,16,num_2,1.21672473662,,,2017_Oct_10_1232,60.0024826269,FEMA4ImagesEEG,001,101965,
AFSA21.JPG,AFNE22.JPG,AFNE21.JPG,AFSA23.JPG,AFSA22.JPG,AFNE23.JPG,,,,,,,,,,,,,,,,,,,,,0,2,2,0,,,AMNE01.jpg,AMSA07.jpg,AMNE20.jpg,AMSA11.jpg,AMNE20.jpg,MN,1,num_2,16,num_2,1.91671565978,,,2017_Oct_10_1232,60.0024826269,FEMA4ImagesEEG,001,101965,
AMNE22.JPG,AMSA24.JPG,AMSA22.JPG,AMNE25.JPG,AMNE24.JPG,AMSA25.JPG,,,,,,,,,,,,,,,,,,,,,0,3,3,7,,,AMSA14.jpg,AMSA04.jpg,AMNE04.jpg,AMNE14.jpg,AMNE04.jpg,MN,1,num_2,32,num_4,1.16674059723,,,2017_Oct_10_1232,60.0024826269,FEMA4ImagesEEG,001,101965,
AMSA21.JPG,AMNE22.JPG,AMNE21.JPG,AMSA23.JPG,AMSA22.JPG,AMNE23.JPG,,,,,,,,,,,,,,,,,,,,,0,4,4,1,,,AMSA03.jpg,AMNE10.jpg,AMNE12.jpg,AMSA09.jpg,AMSA09.jpg,MS,2,num_4,16,num_4,0.716782309581,,,2017_Oct_10_1232,60.0024826269,FEMA4ImagesEEG,001,101965,
AMSA25.JPG,AMNE24.JPG,AMSA24.JPG,AMNE26.JPG,AMSA21.JPG,AMNE25.JPG,,,,,,,,,,,,,,,,,,,,,0,5,5,3,,,AMNE20.jpg,AMSA12.jpg,AMSA08.jpg,AMNE13.jpg,AMSA08.jpg,MS,2,num_2,16,num_2,0.90012569807,,,2017_Oct_10_1232,60.0024826269,FEMA4ImagesEEG,001,101965,
AFSA21.JPG,AFNE23.JPG,AFNE21.JPG,AFSA25.JPG,AFNE25.JPG,AFSA23.JPG,,,,,,,,,,,,,,,,,,,,,0,6,6,4,,,AMNE14.jpg,AMSA09.jpg,AMNE18.jpg,AMSA17.jpg,AMNE18.jpg,MN,1,num_2,32,num_8,0.900123452884,,,2017_Oct_10_1232,60.0024826269,FEMA4ImagesEEG,001,101965,
AFNE22.JPG,AFSA24.JPG,AFSA22.JPG,AFNE25.JPG,AFNE24.JPG,AFSA25.JPG,,,,,,,,,,,,,,,,,,,,,0,7,7,6,,,AMSA13.jpg,AMNE06.jpg,AMSA05.jpg,AMNE19.jpg,AMSA13.jpg,MS,2,num_8,32,num_4,1.40009282215,,,2017_Oct_10_1232,60.0024826269,FEMA4ImagesEEG,001,101965,
AFSA25.JPG,AFNE24.JPG,AFSA24.JPG,AFNE21.JPG,AFSA21.JPG,AFNE25.JPG,,,,,,,,,,,,,,,,,,,,,0,8,8,2,,,AMSA10.jpg,AMSA11.jpg,AMNE01.jpg,AMNE20.jpg,AMNE01.jpg,MN,1,num_2,16,num_2,1.08322243742,,,2017_Oct_10_1232,60.0024826269,FEMA4ImagesEEG,001,101965,
AMSA21.JPG,AMNE23.JPG,AMNE21.JPG,AMSA25.JPG,AMNE25.JPG,AMSA23.JPG,,,,,,,,,,,,,,,,,,,,,0,9,9,5,,,AMNE15.jpg,AMSA14.jpg,AMSA20.jpg,AMNE11.jpg,AMSA14.jpg,MS,2,num_6,16,num_6,0.65019024699,,,2017_Oct_10_1232,60.0024826269,FEMA4ImagesEEG,001,101965,
,,,,,,,,,,,,,,,,,,,,,,,,,,,,,,,,,,,,,,,,,,,space,17.1325439278,2017_Oct_10_1232,60.0024826269,FEMA4ImagesEEG,001,101965,
AFNE01.JPG,AFNE01.JPG,AFNE01.JPG,AFNE01.JPG,AFNE01.JPG,AFNE01.JPG,0,0,0,0,,,,,,,,,,,,,,,,,,,,,,,AFSA07.jpg,AFNE12.jpg,AFSA09.jpg,AFNE18.jpg,AFSA07.jpg,FS,4,num_8,32,num_6,0.800159343635,,,2017_Oct_10_1232,60.0024826269,FEMA4ImagesEEG,001,101965,
AFNE01.JPG,AFNE01.JPG,AFNE01.JPG,AFNE01.JPG,AFNE01.JPG,AFNE01.JPG,0,1,1,1,,,,,,,,,,,,,,,,,,,,,,,AFNE14.jpg,AFNE17.jpg,AFSA12.jpg,AFSA03.jpg,AFNE17.jpg,FN,3,num_6,32,num_2,0.816779134213,,,2017_Oct_10_1232,60.0024826269,FEMA4ImagesEEG,001,101965,
AFNE01.JPG,AFNE01.JPG,AFNE01.JPG,AFNE01.JPG,AFNE01.JPG,AFNE01.JPG,0,2,2,4,,,,,,,,,,,,,,,,,,,,,,,AFSA04.jpg,AFNE13.jpg,AFSA20.jpg,AFNE09.jpg,AFNE13.jpg,FN,3,num_6,32,num_4,0.500159888994,,,2017_Oct_10_1232,60.0024826269,FEMA4ImagesEEG,001,101965,
AFNE01.JPG,AFNE01.JPG,AFNE01.JPG,AFNE01.JPG,AFNE01.JPG,AFNE01.JPG,0,3,3,6,,,,,,,,,,,,,,,,,,,,,,,AFNE03.jpg,AFSA18.jpg,AFSA09.jpg,AFNE10.jpg,AFNE10.jpg,FN,3,num_4,32,num_8,0.68347793899,,,2017_Oct_10_1232,60.0024826269,FEMA4ImagesEEG,001,101965,
AFNE01.JPG,AFNE01.JPG,AFNE01.JPG,AFNE01.JPG,AFNE01.JPG,AFNE01.JPG,0,4,4,7,,,,,,,,,,,,,,,,,,,,,,,AFSA06.jpg,AFNE03.jpg,AFSA13.jpg,AFNE19.jpg,AFSA06.jpg,FS,4,num_8,32,num_2,0.900143980165,,,2017_Oct_10_1232,60.0024826269,FEMA4ImagesEEG,001,101965,
AFNE01.JPG,AFNE01.JPG,AFNE01.JPG,AFNE01.JPG,AFNE01.JPG,AFNE01.JPG,0,5,5,3,,,,,,,,,,,,,,,,,,,,,,,AFSA10.jpg,AFSA09.jpg,AFNE03.jpg,AFNE12.jpg,AFNE12.jpg,FN,3,num_4,16,num_4,0.75002381485,,,2017_Oct_10_1232,60.0024826269,FEMA4ImagesEEG,001,101965,
AFNE01.JPG,AFNE01.JPG,AFNE01.JPG,AFNE01.JPG,AFNE01.JPG,AFNE01.JPG,0,6,6,2,,,,,,,,,,,,,,,,,,,,,,,AFNE08.jpg,AFSA02.jpg,AFSA05.jpg,AFNE16.jpg,AFSA05.jpg,FS,4,num_2,16,num_2,0.766798202181,,,2017_Oct_10_1232,60.0024826269,FEMA4ImagesEEG,001,101965,
AFNE01.JPG,AFNE01.JPG,AFNE01.JPG,AFNE01.JPG,AFNE01.JPG,AFNE01.JPG,0,7,7,5,,,,,,,,,,,,,,,,,,,,,,,AFSA05.jpg,AFNE14.jpg,AFSA11.jpg,AFNE17.jpg,AFNE14.jpg,FN,3,num_6,32,num_8,1.26680926769,,,2017_Oct_10_1232,60.0024826269,FEMA4ImagesEEG,001,101965,
AFNE01.JPG,AFNE01.JPG,AFNE01.JPG,AFNE01.JPG,AFNE01.JPG,AFNE01.JPG,0,8,8,9,,,,,,,,,,,,,,,,,,,,,,,AFSA14.jpg,AFNE09.jpg,AFNE15.jpg,AFSA02.jpg,AFNE09.jpg,FN,3,num_6,16,num_6,0.716791290208,,,2017_Oct_10_1232,60.0024826269,FEMA4ImagesEEG,001,101965,
AFNE01.JPG,AFNE01.JPG,AFNE01.JPG,AFNE01.JPG,AFNE01.JPG,AFNE01.JPG,0,9,9,8,,,,,,,,,,,,,,,,,,,,,,,AFNE10.jpg,AFNE14.jpg,AFSA13.jpg,AFSA17.jpg,AFSA13.jpg,FS,4,num_2,32,num_4,0.566788515891,,,2017_Oct_10_1232,60.0024826269,FEMA4ImagesEEG,001,101965,
AFNE01.JPG,AFNE01.JPG,AFNE01.JPG,AFNE01.JPG,AFNE01.JPG,AFNE01.JPG,1,0,10,6,,,,,,,,,,,,,,,,,,,,,,,AFSA06.jpg,AFSA02.jpg,AFNE11.jpg,AFNE16.jpg,AFSA02.jpg,FS,4,num_6,32,num_2,0.616814672132,,,2017_Oct_10_1232,60.0024826269,FEMA4ImagesEEG,001,101965,
AFNE01.JPG,AFNE01.JPG,AFNE01.JPG,AFNE01.JPG,AFNE01.JPG,AFNE01.JPG,1,1,11,9,,,,,,,,,,,,,,,,,,,,,,,AFNE07.jpg,AFSA18.jpg,AFSA08.jpg,AFNE09.jpg,AFNE07.jpg,FN,3,num_8,16,num_8,0.650164908613,,,2017_Oct_10_1232,60.0024826269,FEMA4ImagesEEG,001,101965,
AFNE01.JPG,AFNE01.JPG,AFNE01.JPG,AFNE01.JPG,AFNE01.JPG,AFNE01.JPG,1,2,12,3,,,,,,,,,,,,,,,,,,,,,,,AFSA18.jpg,AFNE16.jpg,AFNE07.jpg,AFSA01.jpg,AFSA01.jpg,FS,4,num_4,16,num_4,0.4835494,,,2017_Oct_10_1232,60.0024826269,FEMA4ImagesEEG,001,101965,
AFNE01.JPG,AFNE01.JPG,AFNE01.JPG,AFNE01.JPG,AFNE01.JPG,AFNE01.JPG,1,3,13,8,,,,,,,,,,,,,,,,,,,,,,,AFSA05.jpg,AFNE15.jpg,AFSA09.jpg,AFNE11.jpg,AFSA09.jpg,FS,4,num_2,32,num_6,0.866792460904,,,2017_Oct_10_1232,60.0024826269,FEMA4ImagesEEG,001,101965,
AFNE01.JPG,AFNE01.JPG,AFNE01.JPG,AFNE01.JPG,AFNE01.JPG,AFNE01.JPG,1,4,14,0,,,,,,,,,,,,,,,,,,,,,,,AFNE06.jpg,AFSA13.jpg,AFSA01.jpg,AFNE10.jpg,AFSA13.jpg,FS,4,num_6,32,num_2,0.766777674784,,,2017_Oct_10_1232,60.0024826269,FEMA4ImagesEEG,001,101965,
AFNE01.JPG,AFNE01.JPG,AFNE01.JPG,AFNE01.JPG,AFNE01.JPG,AFNE01.JPG,1,5,15,2,,,,,,,,,,,,,,,,,,,,,,,AFNE15.jpg,AFSA01.jpg,AFSA13.jpg,AFNE01.jpg,AFSA13.jpg,FS,4,num_2,32,num_4,0.950096687069,,,2017_Oct_10_1232,60.0024826269,FEMA4ImagesEEG,001,101965,
AFNE01.JPG,AFNE01.JPG,AFNE01.JPG,AFNE01.JPG,AFNE01.JPG,AFNE01.JPG,1,6,16,1,,,,,,,,,,,,,,,,,,,,,,,AFNE15.jpg,AFSA12.jpg,AFSA15.jpg,AFNE18.jpg,AFSA15.jpg,FS,4,num_2,16,num_2,0.866778989788,,,2017_Oct_10_1232,60.0024826269,FEMA4ImagesEEG,001,101965,
AFNE01.JPG,AFNE01.JPG,AFNE01.JPG,AFNE01.JPG,AFNE01.JPG,AFNE01.JPG,1,7,17,4,,,,,,,,,,,,,,,,,,,,,,,AFNE01.jpg,AFSA07.jpg,AFSA13.jpg,AFNE04.jpg,AFSA13.jpg,FS,4,num_2,16,num_2,0.916472859448,,,2017_Oct_10_1232,60.0024826269,FEMA4ImagesEEG,001,101965,
AFNE01.JPG,AFNE01.JPG,AFNE01.JPG,AFNE01.JPG,AFNE01.JPG,AFNE01.JPG,1,8,18,7,,,,,,,,,,,,,,,,,,,,,,,AFNE11.jpg,AFSA18.jpg,AFNE08.jpg,AFSA01.jpg,AFSA18.jpg,FS,4,num_6,32,num_4,0.983497279696,,,2017_Oct_10_1232,60.0024826269,FEMA4ImagesEEG,001,101965,
AFNE01.JPG,AFNE01.JPG,AFNE01.JPG,AFNE01.JPG,AFNE01.JPG,AFNE01.JPG,1,9,19,5,,,,,,,,,,,,,,,,,,,,,,,AFNE18.jpg,AFSA17.jpg,AFNE12.jpg,AFSA16.jpg,AFSA17.jpg,FS,4,num_6,32,num_4,0.600138431531,,,2017_Oct_10_1232,60.0024826269,FEMA4ImagesEEG,001,101965,
AFNE01.JPG,AFNE01.JPG,AFNE01.JPG,AFNE01.JPG,AFNE01.JPG,AFNE01.JPG,2,0,20,7,,,,,,,,,,,,,,,,,,,,,,,AFSA17.jpg,AFNE08.jpg,AFSA05.jpg,AFNE03.jpg,AFNE08.jpg,FN,3,num_6,16,num_6,0.867277740617,,,2017_Oct_10_1232,60.0024826269,FEMA4ImagesEEG,001,101965,
AFNE01.JPG,AFNE01.JPG,AFNE01.JPG,AFNE01.JPG,AFNE01.JPG,AFNE01.JPG,2,1,21,1,,,,,,,,,,,,,,,,,,,,,,,AFSA18.jpg,AFSA12.jpg,AFNE12.jpg,AFNE05.jpg,AFSA18.jpg,FS,4,num_8,32,num_2,0.899943838362,,,2017_Oct_10_1232,60.0024826269,FEMA4ImagesEEG,001,101965,
AFNE01.JPG,AFNE01.JPG,AFNE01.JPG,AFNE01.JPG,AFNE01.JPG,AFNE01.JPG,2,2,22,9,,,,,,,,,,,,,,,,,,,,,,,AFSA18.jpg,AFSA08.jpg,AFNE19.jpg,AFNE05.jpg,AFSA08.jpg,FS,4,num_6,16,num_6,0.800283470191,,,2017_Oct_10_1232,60.0024826269,FEMA4ImagesEEG,001,101965,
AFNE01.JPG,AFNE01.JPG,AFNE01.JPG,AFNE01.JPG,AFNE01.JPG,AFNE01.JPG,2,3,23,8,,,,,,,,,,,,,,,,,,,,,,,AFNE19.jpg,AFSA15.jpg,AFSA02.jpg,AFNE02.jpg,AFSA02.jpg,FS,4,num_2,32,num_8,0.883511680877,,,2017_Oct_10_1232,60.0024826269,FEMA4ImagesEEG,001,101965,
AFNE01.JPG,AFNE01.JPG,AFNE01.JPG,AFNE01.JPG,AFNE01.JPG,AFNE01.JPG,2,4,24,0,,,,,,,,,,,,,,,,,,,,,,,AFNE06.jpg,AFSA18.jpg,AFNE17.jpg,AFSA10.jpg,AFSA18.jpg,FS,4,num_6,32,num_4,0.866773857968,,,2017_Oct_10_1232,60.0024826269,FEMA4ImagesEEG,001,101965,
AFNE01.JPG,AFNE01.JPG,AFNE01.JPG,AFNE01.JPG,AFNE01.JPG,AFNE01.JPG,2,5,25,2,,,,,,,,,,,,,,,,,,,,,,,AFNE10.jpg,AFNE14.jpg,AFSA13.jpg,AFSA14.jpg,AFNE10.jpg,FN,3,num_8,16,num_8,0.550180592807,,,2017_Oct_10_1232,60.0024826269,FEMA4ImagesEEG,001,101965,
AFNE01.JPG,AFNE01.JPG,AFNE01.JPG,AFNE01.JPG,AFNE01.JPG,AFNE01.JPG,2,6,26,4,,,,,,,,,,,,,,,,,,,,,,,AFSA19.jpg,AFSA04.jpg,AFNE10.jpg,AFNE15.jpg,AFSA19.jpg,FS,4,num_8,32,num_2,1.03347532498,,,2017_Oct_10_1232,60.0024826269,FEMA4ImagesEEG,001,101965,
AFNE01.JPG,AFNE01.JPG,AFNE01.JPG,AFNE01.JPG,AFNE01.JPG,AFNE01.JPG,2,7,27,6,,,,,,,,,,,,,,,,,,,,,,,AFSA08.jpg,AFNE10.jpg,AFNE19.jpg,AFSA03.jpg,AFSA08.jpg,FS,4,num_8,32,num_4,0.883486663108,,,2017_Oct_10_1232,60.0024826269,FEMA4ImagesEEG,001,101965,
AFNE01.JPG,AFNE01.JPG,AFNE01.JPG,AFNE01.JPG,AFNE01.JPG,AFNE01.JPG,2,8,28,5,,,,,,,,,,,,,,,,,,,,,,,AFNE13.jpg,AFNE14.jpg,AFSA06.jpg,AFSA14.jpg,AFSA06.jpg,FS,4,num_2,32,num_8,1.48341244389,,,2017_Oct_10_1232,60.0024826269,FEMA4ImagesEEG,001,101965,
AFNE01.JPG,AFNE01.JPG,AFNE01.JPG,AFNE01.JPG,AFNE01.JPG,AFNE01.JPG,2,9,29,3,,,,,,,,,,,,,,,,,,,,,,,AFSA09.jpg,AFSA07.jpg,AFNE06.jpg,AFNE20.jpg,AFNE06.jpg,FN,3,num_2,32,num_4,1.20019763999,,,2017_Oct_10_1232,60.0024826269,FEMA4ImagesEEG,001,101965,
AFNE01.JPG,AFNE01.JPG,AFNE01.JPG,AFNE01.JPG,AFNE01.JPG,AFNE01.JPG,3,0,30,9,,,,,,,,,,,,,,,,,,,,,,,AFNE19.jpg,AFSA02.jpg,AFSA14.jpg,AFNE14.jpg,AFNE19.jpg,FN,3,num_8,32,num_6,1.91668711393,,,2017_Oct_10_1232,60.0024826269,FEMA4ImagesEEG,001,101965,
AFNE01.JPG,AFNE01.JPG,AFNE01.JPG,AFNE01.JPG,AFNE01.JPG,AFNE01.JPG,3,1,31,5,,,,,,,,,,,,,,,,,,,,,,,AFNE19.jpg,AFSA07.jpg,AFNE16.jpg,AFSA14.jpg,AFNE19.jpg,FN,3,num_8,16,num_8,1.31673856056,,,2017_Oct_10_1232,60.0024826269,FEMA4ImagesEEG,001,101965,
AFNE01.JPG,AFNE01.JPG,AFNE01.JPG,AFNE01.JPG,AFNE01.JPG,AFNE01.JPG,3,2,32,0,,,,,,,,,,,,,,,,,,,,,,,AFSA07.jpg,AFNE04.jpg,AFSA09.jpg,AFNE20.jpg,AFNE20.jpg,FN,3,num_4,16,num_4,0.899970139028,,,2017_Oct_10_1232,60.0024826269,FEMA4ImagesEEG,001,101965,
AFNE01.JPG,AFNE01.JPG,AFNE01.JPG,AFNE01.JPG,AFNE01.JPG,AFNE01.JPG,3,3,33,4,,,,,,,,,,,,,,,,,,,,,,,AFNE11.jpg,AFSA03.jpg,AFSA16.jpg,AFNE01.jpg,AFNE11.jpg,FN,3,num_8,32,num_2,1.06660136394,,,2017_Oct_10_1232,60.0024826269,FEMA4ImagesEEG,001,101965,
AFNE01.JPG,AFNE01.JPG,AFNE01.JPG,AFNE01.JPG,AFNE01.JPG,AFNE01.JPG,3,4,34,6,,,,,,,,,,,,,,,,,,,,,,,AFSA03.jpg,AFNE13.jpg,AFSA04.jpg,AFNE08.jpg,AFSA04.jpg,FS,4,num_2,32,num_8,0.833470129059,,,2017_Oct_10_1232,60.0024826269,FEMA4ImagesEEG,001,101965,
AFNE01.JPG,AFNE01.JPG,AFNE01.JPG,AFNE01.JPG,AFNE01.JPG,AFNE01.JPG,3,5,35,3,,,,,,,,,,,,,,,,,,,,,,,AFNE19.jpg,AFSA12.jpg,AFNE04.jpg,AFSA20.jpg,AFNE04.jpg,FN,3,num_2,32,num_4,0.950139345485,,,2017_Oct_10_1232,60.0024826269,FEMA4ImagesEEG,001,101965,
AFNE01.JPG,AFNE01.JPG,AFNE01.JPG,AFNE01.JPG,AFNE01.JPG,AFNE01.JPG,3,6,36,7,,,,,,,,,,,,,,,,,,,,,,,AFNE17.jpg,AFNE03.jpg,AFSA05.jpg,AFSA20.jpg,AFNE03.jpg,FN,3,num_6,16,num_6,1.15017982293,,,2017_Oct_10_1232,60.0024826269,FEMA4ImagesEEG,001,101965,
AFNE01.JPG,AFNE01.JPG,AFNE01.JPG,AFNE01.JPG,AFNE01.JPG,AFNE01.JPG,3,7,37,1,,,,,,,,,,,,,,,,,,,,,,,AFNE08.jpg,AFNE03.jpg,AFSA02.jpg,AFSA12.jpg,AFSA02.jpg,FS,4,num_2,16,num_2,0.933377146488,,,2017_Oct_10_1232,60.0024826269,FEMA4ImagesEEG,001,101965,
AFNE01.JPG,AFNE01.JPG,AFNE01.JPG,AFNE01.JPG,AFNE01.JPG,AFNE01.JPG,3,8,38,2,,,,,,,,,,,,,,,,,,,,,,,AFNE02.jpg,AFSA13.jpg,AFNE20.jpg,AFSA20.jpg,AFSA20.jpg,FS,4,num_4,16,num_4,1.26674383669,,,2017_Oct_10_1232,60.0024826269,FEMA4ImagesEEG,001,101965,
AFNE01.JPG,AFNE01.JPG,AFNE01.JPG,AFNE01.JPG,AFNE01.JPG,AFNE01.JPG,3,9,39,8,,,,,,,,,,,,,,,,,,,,,,,AFNE04.jpg,AFSA20.jpg,AFSA03.jpg,AFNE02.jpg,AFSA03.jpg,FS,4,num_2,16,num_2,0.916521611973,,,2017_Oct_10_1232,60.0024826269,FEMA4ImagesEEG,001,101965,
AFNE01.JPG,AFNE01.JPG,AFNE01.JPG,AFNE01.JPG,AFNE01.JPG,AFNE01.JPG,4,0,40,0,,,,,,,,,,,,,,,,,,,,,,,AFNE09.jpg,AFSA02.jpg,AFSA14.jpg,AFNE06.jpg,AFSA14.jpg,FS,4,num_2,32,num_6,0.666834734497,,,2017_Oct_10_1232,60.0024826269,FEMA4ImagesEEG,001,101965,
AFNE01.JPG,AFNE01.JPG,AFNE01.JPG,AFNE01.JPG,AFNE01.JPG,AFNE01.JPG,4,1,41,1,,,,,,,,,,,,,,,,,,,,,,,AFSA14.jpg,AFNE13.jpg,AFNE09.jpg,AFSA09.jpg,AFNE09.jpg,FN,3,num_2,32,num_4,1.26678489149,,,2017_Oct_10_1232,60.0024826269,FEMA4ImagesEEG,001,101965,
AFNE01.JPG,AFNE01.JPG,AFNE01.JPG,AFNE01.JPG,AFNE01.JPG,AFNE01.JPG,4,2,42,8,,,,,,,,,,,,,,,,,,,,,,,AFSA05.jpg,AFSA10.jpg,AFNE11.jpg,AFNE14.jpg,AFNE14.jpg,FN,3,num_4,32,num_2,0.9670275955,,,2017_Oct_10_1232,60.0024826269,FEMA4ImagesEEG,001,101965,
AFNE01.JPG,AFNE01.JPG,AFNE01.JPG,AFNE01.JPG,AFNE01.JPG,AFNE01.JPG,4,3,43,9,,,,,,,,,,,,,,,,,,,,,,,AFNE05.jpg,AFSA03.jpg,AFSA09.jpg,AFNE19.jpg,AFNE19.jpg,FN,3,num_4,32,num_8,0.86675172695,,,2017_Oct_10_1232,60.0024826269,FEMA4ImagesEEG,001,101965,
AFNE01.JPG,AFNE01.JPG,AFNE01.JPG,AFNE01.JPG,AFNE01.JPG,AFNE01.JPG,4,4,44,5,,,,,,,,,,,,,,,,,,,,,,,AFSA12.jpg,AFNE11.jpg,AFNE03.jpg,AFSA14.jpg,AFSA14.jpg,FS,4,num_4,32,num_6,0.666866166983,,,2017_Oct_10_1232,60.0024826269,FEMA4ImagesEEG,001,101965,
AFNE01.JPG,AFNE01.JPG,AFNE01.JPG,AFNE01.JPG,AFNE01.JPG,AFNE01.JPG,4,5,45,7,,,,,,,,,,,,,,,,,,,,,,,AFSA20.jpg,AFSA13.jpg,AFNE04.jpg,AFNE20.jpg,AFSA13.jpg,FS,4,num_6,32,num_2,1.11676896678,,,2017_Oct_10_1232,60.0024826269,FEMA4ImagesEEG,001,101965,
AFNE01.JPG,AFNE01.JPG,AFNE01.JPG,AFNE01.JPG,AFNE01.JPG,AFNE01.JPG,4,6,46,3,,,,,,,,,,,,,,,,,,,,,,,AFSA04.jpg,AFNE11.jpg,AFSA12.jpg,AFNE19.jpg,AFSA12.jpg,FS,4,num_2,32,num_4,0.850173632614,,,2017_Oct_10_1232,60.0024826269,FEMA4ImagesEEG,001,101965,
AFNE01.JPG,AFNE01.JPG,AFNE01.JPG,AFNE01.JPG,AFNE01.JPG,AFNE01.JPG,4,7,47,6,,,,,,,,,,,,,,,,,,,,,,,AFSA04.jpg,AFSA07.jpg,AFNE03.jpg,AFNE05.jpg,AFNE03.jpg,FN,3,num_2,32,num_4,1.00009718433,,,2017_Oct_10_1232,60.0024826269,FEMA4ImagesEEG,001,101965,
AFNE01.JPG,AFNE01.JPG,AFNE01.JPG,AFNE01.JPG,AFNE01.JPG,AFNE01.JPG,4,8,48,4,,,,,,,,,,,,,,,,,,,,,,,AFNE15.jpg,AFSA14.jpg,AFSA05.jpg,AFNE14.jpg,AFSA14.jpg,FS,4,num_6,16,num_6,0.983409076114,,,2017_Oct_10_1232,60.0024826269,FEMA4ImagesEEG,001,101965,
AFNE01.JPG,AFNE01.JPG,AFNE01.JPG,AFNE01.JPG,AFNE01.JPG,AFNE01.JPG,4,9,49,2,,,,,,,,,,,,,,,,,,,,,,,AFNE02.jpg,AFNE13.jpg,AFSA03.jpg,AFSA14.jpg,AFSA03.jpg,FS,4,num_2,32,num_4,0.750175845693,,,2017_Oct_10_1232,60.0024826269,FEMA4ImagesEEG,001,101965,
AFNE01.JPG,AFNE01.JPG,AFNE01.JPG,AFNE01.JPG,AFNE01.JPG,AFNE01.JPG,5,0,50,8,,,,,,,,,,,,,,,,,,,,,,,AFNE20.jpg,AFSA01.jpg,AFNE15.jpg,AFSA02.jpg,AFNE20.jpg,FN,3,num_8,32,num_6,0.666901127668,,,2017_Oct_10_1232,60.0024826269,FEMA4ImagesEEG,001,101965,
AFNE01.JPG,AFNE01.JPG,AFNE01.JPG,AFNE01.JPG,AFNE01.JPG,AFNE01.JPG,5,1,51,7,,,,,,,,,,,,,,,,,,,,,,,AFNE17.jpg,AFSA12.jpg,AFNE06.jpg,AFSA11.jpg,AFNE17.jpg,FN,3,num_8,16,num_8,0.733526226366,,,2017_Oct_10_1232,60.0024826269,FEMA4ImagesEEG,001,101965,
AFNE01.JPG,AFNE01.JPG,AFNE01.JPG,AFNE01.JPG,AFNE01.JPG,AFNE01.JPG,5,2,52,1,,,,,,,,,,,,,,,,,,,,,,,AFNE05.jpg,AFNE15.jpg,AFSA16.jpg,AFSA11.jpg,AFNE05.jpg,FN,3,num_8,32,num_2,0.86677321652,,,2017_Oct_10_1232,60.0024826269,FEMA4ImagesEEG,001,101965,
AFNE01.JPG,AFNE01.JPG,AFNE01.JPG,AFNE01.JPG,AFNE01.JPG,AFNE01.JPG,5,3,53,4,,,,,,,,,,,,,,,,,,,,,,,AFNE04.jpg,AFNE11.jpg,AFSA01.jpg,AFSA20.jpg,AFSA01.jpg,FS,4,num_2,32,num_4,1.00005837472,,,2017_Oct_10_1232,60.0024826269,FEMA4ImagesEEG,001,101965,
AFNE01.JPG,AFNE01.JPG,AFNE01.JPG,AFNE01.JPG,AFNE01.JPG,AFNE01.JPG,5,4,54,0,,,,,,,,,,,,,,,,,,,,,,,AFNE10.jpg,AFSA15.jpg,AFNE13.jpg,AFSA12.jpg,AFSA12.jpg,FS,4,num_4,32,num_6,1.56672436779,,,2017_Oct_10_1232,60.0024826269,FEMA4ImagesEEG,001,101965,
AFNE01.JPG,AFNE01.JPG,AFNE01.JPG,AFNE01.JPG,AFNE01.JPG,AFNE01.JPG,5,5,55,9,,,,,,,,,,,,,,,,,,,,,,,AFNE17.jpg,AFSA07.jpg,AFNE02.jpg,AFSA06.jpg,AFNE17.jpg,FN,3,num_8,32,num_2,1.3334391776,,,2017_Oct_10_1232,60.0024826269,FEMA4ImagesEEG,001,101965,
AFNE01.JPG,AFNE01.JPG,AFNE01.JPG,AFNE01.JPG,AFNE01.JPG,AFNE01.JPG,5,6,56,3,,,,,,,,,,,,,,,,,,,,,,,AFNE02.jpg,AFNE05.jpg,AFSA20.jpg,AFSA03.jpg,AFSA03.jpg,FS,4,num_4,32,num_6,1.06678322353,,,2017_Oct_10_1232,60.0024826269,FEMA4ImagesEEG,001,101965,
AFNE01.JPG,AFNE01.JPG,AFNE01.JPG,AFNE01.JPG,AFNE01.JPG,AFNE01.JPG,5,7,57,6,,,,,,,,,,,,,,,,,,,,,,,AFNE13.jpg,AFSA19.jpg,AFSA08.jpg,AFNE11.jpg,AFSA19.jpg,FS,4,num_6,32,num_2,1.15012465557,,,2017_Oct_10_1232,60.0024826269,FEMA4ImagesEEG,001,101965,
AFNE01.JPG,AFNE01.JPG,AFNE01.JPG,AFNE01.JPG,AFNE01.JPG,AFNE01.JPG,5,8,58,2,,,,,,,,,,,,,,,,,,,,,,,AFNE18.jpg,AFSA14.jpg,AFSA05.jpg,AFNE04.jpg,AFSA05.jpg,FS,4,num_2,32,num_4,0.966759456787,,,2017_Oct_10_1232,60.0024826269,FEMA4ImagesEEG,001,101965,
AFNE01.JPG,AFNE01.JPG,AFNE01.JPG,AFNE01.JPG,AFNE01.JPG,AFNE01.JPG,5,9,59,5,,,,,,,,,,,,,,,,,,,,,,,AFNE07.jpg,AFSA01.jpg,AFNE10.jpg,AFSA09.jpg,AFNE07.jpg,FN,3,num_8,32,num_2,1.93336848647,,,2017_Oct_10_1232,60.0024826269,FEMA4ImagesEEG,001,101965,
,,,,,,,,,,,,,,,,,,,,,,,,,,,,,,,,,,,,,,,,,,,space,35.3808230768,2017_Oct_10_1232,60.0024826269,FEMA4ImagesEEG,001,101965,
AFNE01.JPG,AFNE01.JPG,AFNE01.JPG,AFNE01.JPG,AFNE01.JPG,AFNE01.JPG,,,,,0,0,0,4,,,,,,,,,,,,,,,,,,,AMNE03.jpg,AMSA19.jpg,AMSA04.jpg,AMNE13.jpg,AMSA19.jpg,MS,2,num_6,16,num_6,0.783484065207,,,2017_Oct_10_1232,60.0024826269,FEMA4ImagesEEG,001,101965,
AFNE01.JPG,AFNE01.JPG,AFNE01.JPG,AFNE01.JPG,AFNE01.JPG,AFNE01.JPG,,,,,0,1,1,0,,,,,,,,,,,,,,,,,,,AMSA14.jpg,AMNE01.jpg,AMNE02.jpg,AMSA03.jpg,AMNE02.jpg,MN,1,num_2,16,num_2,0.766765807406,,,2017_Oct_10_1232,60.0024826269,FEMA4ImagesEEG,001,101965,
AFNE01.JPG,AFNE01.JPG,AFNE01.JPG,AFNE01.JPG,AFNE01.JPG,AFNE01.JPG,,,,,0,2,2,5,,,,,,,,,,,,,,,,,,,AMSA16.jpg,AMNE16.jpg,AMNE01.jpg,AMSA15.jpg,AMNE16.jpg,MN,1,num_6,16,num_6,0.850134181674,,,2017_Oct_10_1232,60.0024826269,FEMA4ImagesEEG,001,101965,
AFNE01.JPG,AFNE01.JPG,AFNE01.JPG,AFNE01.JPG,AFNE01.JPG,AFNE01.JPG,,,,,0,3,3,7,,,,,,,,,,,,,,,,,,,AMSA13.jpg,AMSA11.jpg,AMNE03.jpg,AMNE02.jpg,AMSA13.jpg,MS,2,num_8,32,num_4,1.33340902801,,,2017_Oct_10_1232,60.0024826269,FEMA4ImagesEEG,001,101965,
AFNE01.JPG,AFNE01.JPG,AFNE01.JPG,AFNE01.JPG,AFNE01.JPG,AFNE01.JPG,,,,,0,4,4,2,,,,,,,,,,,,,,,,,,,AMNE10.jpg,AMNE03.jpg,AMSA16.jpg,AMSA01.jpg,AMSA01.jpg,MS,2,num_4,16,num_4,1.08345946437,,,2017_Oct_10_1232,60.0024826269,FEMA4ImagesEEG,001,101965,
AFNE01.JPG,AFNE01.JPG,AFNE01.JPG,AFNE01.JPG,AFNE01.JPG,AFNE01.JPG,,,,,0,5,5,6,,,,,,,,,,,,,,,,,,,AMNE11.jpg,AMNE18.jpg,AMSA11.jpg,AMSA04.jpg,AMSA04.jpg,MS,2,num_4,32,num_8,0.750152431778,,,2017_Oct_10_1232,60.0024826269,FEMA4ImagesEEG,001,101965,
AFNE01.JPG,AFNE01.JPG,AFNE01.JPG,AFNE01.JPG,AFNE01.JPG,AFNE01.JPG,,,,,0,6,6,1,,,,,,,,,,,,,,,,,,,AMNE17.jpg,AMSA05.jpg,AMNE08.jpg,AMSA09.jpg,AMSA09.jpg,MS,2,num_4,32,num_2,1.20010943653,,,2017_Oct_10_1232,60.0024826269,FEMA4ImagesEEG,001,101965,
AFNE01.JPG,AFNE01.JPG,AFNE01.JPG,AFNE01.JPG,AFNE01.JPG,AFNE01.JPG,,,,,0,7,7,8,,,,,,,,,,,,,,,,,,,AMNE06.jpg,AMSA12.jpg,AMSA08.jpg,AMNE13.jpg,AMNE13.jpg,MN,1,num_4,16,num_4,0.866779952077,,,2017_Oct_10_1232,60.0024826269,FEMA4ImagesEEG,001,101965,
AFNE01.JPG,AFNE01.JPG,AFNE01.JPG,AFNE01.JPG,AFNE01.JPG,AFNE01.JPG,,,,,0,8,8,3,,,,,,,,,,,,,,,,,,,AMSA15.jpg,AMNE06.jpg,AMSA09.jpg,AMNE14.jpg,AMNE06.jpg,MN,1,num_6,32,num_2,0.81667521433,,,2017_Oct_10_1232,60.0024826269,FEMA4ImagesEEG,001,101965,
AFNE01.JPG,AFNE01.JPG,AFNE01.JPG,AFNE01.JPG,AFNE01.JPG,AFNE01.JPG,,,,,0,9,9,9,,,,,,,,,,,,,,,,,,,AMNE09.jpg,AMNE17.jpg,AMSA18.jpg,AMSA02.jpg,AMSA18.jpg,MS,2,num_2,32,num_6,0.766780882259,,,2017_Oct_10_1232,60.0024826269,FEMA4ImagesEEG,001,101965,
AFNE01.JPG,AFNE01.JPG,AFNE01.JPG,AFNE01.JPG,AFNE01.JPG,AFNE01.JPG,,,,,1,0,10,8,,,,,,,,,,,,,,,,,,,AMSA20.jpg,AMNE05.jpg,AMNE02.jpg,AMSA16.jpg,AMSA16.jpg,MS,2,num_4,32,num_8,0.933522120933,,,2017_Oct_10_1232,60.0024826269,FEMA4ImagesEEG,001,101965,
AFNE01.JPG,AFNE01.JPG,AFNE01.JPG,AFNE01.JPG,AFNE01.JPG,AFNE01.JPG,,,,,1,1,11,2,,,,,,,,,,,,,,,,,,,AMSA02.jpg,AMNE18.jpg,AMNE07.jpg,AMSA04.jpg,AMSA02.jpg,MS,2,num_8,32,num_2,0.800119571853,,,2017_Oct_10_1232,60.0024826269,FEMA4ImagesEEG,001,101965,
AFNE01.JPG,AFNE01.JPG,AFNE01.JPG,AFNE01.JPG,AFNE01.JPG,AFNE01.JPG,,,,,1,2,12,9,,,,,,,,,,,,,,,,,,,AMSA17.jpg,AMNE04.jpg,AMSA19.jpg,AMNE14.jpg,AMSA19.jpg,MS,2,num_2,32,num_4,0.81680479343,,,2017_Oct_10_1232,60.0024826269,FEMA4ImagesEEG,001,101965,
AFNE01.JPG,AFNE01.JPG,AFNE01.JPG,AFNE01.JPG,AFNE01.JPG,AFNE01.JPG,,,,,1,3,13,7,,,,,,,,,,,,,,,,,,,AMSA04.jpg,AMSA07.jpg,AMNE09.jpg,AMNE13.jpg,AMSA07.jpg,MS,2,num_6,16,num_6,0.850122314179,,,2017_Oct_10_1232,60.0024826269,FEMA4ImagesEEG,001,101965,
AFNE01.JPG,AFNE01.JPG,AFNE01.JPG,AFNE01.JPG,AFNE01.JPG,AFNE01.JPG,,,,,1,4,14,6,,,,,,,,,,,,,,,,,,,AMNE06.jpg,AMSA08.jpg,AMNE20.jpg,AMSA07.jpg,AMNE06.jpg,MN,1,num_8,16,num_8,0.783458405873,,,2017_Oct_10_1232,60.0024826269,FEMA4ImagesEEG,001,101965,
AFNE01.JPG,AFNE01.JPG,AFNE01.JPG,AFNE01.JPG,AFNE01.JPG,AFNE01.JPG,,,,,1,5,15,5,,,,,,,,,,,,,,,,,,,AMSA17.jpg,AMNE07.jpg,AMNE18.jpg,AMSA10.jpg,AMNE18.jpg,MN,1,num_2,16,num_2,1.28350058326,,,2017_Oct_10_1232,60.0024826269,FEMA4ImagesEEG,001,101965,
AFNE01.JPG,AFNE01.JPG,AFNE01.JPG,AFNE01.JPG,AFNE01.JPG,AFNE01.JPG,,,,,1,6,16,0,,,,,,,,,,,,,,,,,,,AMSA01.jpg,AMSA17.jpg,AMNE20.jpg,AMNE15.jpg,AMSA01.jpg,MS,2,num_8,16,num_8,0.800156136276,,,2017_Oct_10_1232,60.0024826269,FEMA4ImagesEEG,001,101965,
AFNE01.JPG,AFNE01.JPG,AFNE01.JPG,AFNE01.JPG,AFNE01.JPG,AFNE01.JPG,,,,,1,7,17,3,,,,,,,,,,,,,,,,,,,AMNE20.jpg,AMSA10.jpg,AMSA01.jpg,AMNE07.jpg,AMNE07.jpg,MN,1,num_4,16,num_4,1.03344260948,,,2017_Oct_10_1232,60.0024826269,FEMA4ImagesEEG,001,101965,
AFNE01.JPG,AFNE01.JPG,AFNE01.JPG,AFNE01.JPG,AFNE01.JPG,AFNE01.JPG,,,,,1,8,18,1,,,,,,,,,,,,,,,,,,,AMNE11.jpg,AMSA12.jpg,AMSA16.jpg,AMNE12.jpg,AMNE12.jpg,MN,1,num_4,32,num_6,0.666863280348,,,2017_Oct_10_1232,60.0024826269,FEMA4ImagesEEG,001,101965,
AFNE01.JPG,AFNE01.JPG,AFNE01.JPG,AFNE01.JPG,AFNE01.JPG,AFNE01.JPG,,,,,1,9,19,4,,,,,,,,,,,,,,,,,,,AMSA15.jpg,AMSA19.jpg,AMNE10.jpg,AMNE05.jpg,AMNE10.jpg,MN,1,num_2,32,num_4,0.76682578586,,,2017_Oct_10_1232,60.0024826269,FEMA4ImagesEEG,001,101965,
AFNE01.JPG,AFNE01.JPG,AFNE01.JPG,AFNE01.JPG,AFNE01.JPG,AFNE01.JPG,,,,,2,0,20,8,,,,,,,,,,,,,,,,,,,AMSA14.jpg,AMSA13.jpg,AMNE03.jpg,AMNE09.jpg,AMNE09.jpg,MN,1,num_4,16,num_4,0.583483680268,,,2017_Oct_10_1232,60.0024826269,FEMA4ImagesEEG,001,101965,
AFNE01.JPG,AFNE01.JPG,AFNE01.JPG,AFNE01.JPG,AFNE01.JPG,AFNE01.JPG,,,,,2,1,21,4,,,,,,,,,,,,,,,,,,,AMNE06.jpg,AMNE20.jpg,AMSA12.jpg,AMSA03.jpg,AMNE20.jpg,MN,1,num_6,16,num_6,0.950096366345,,,2017_Oct_10_1232,60.0024826269,FEMA4ImagesEEG,001,101965,
AFNE01.JPG,AFNE01.JPG,AFNE01.JPG,AFNE01.JPG,AFNE01.JPG,AFNE01.JPG,,,,,2,2,22,9,,,,,,,,,,,,,,,,,,,AMSA05.jpg,AMNE13.jpg,AMNE18.jpg,AMSA08.jpg,AMSA05.jpg,MS,2,num_8,16,num_8,0.783469631802,,,2017_Oct_10_1232,60.0024826269,FEMA4ImagesEEG,001,101965,
AFNE01.JPG,AFNE01.JPG,AFNE01.JPG,AFNE01.JPG,AFNE01.JPG,AFNE01.JPG,,,,,2,3,23,7,,,,,,,,,,,,,,,,,,,AMNE04.jpg,AMSA02.jpg,AMSA10.jpg,AMNE14.jpg,AMSA02.jpg,MS,2,num_6,32,num_2,1.01677887759,,,2017_Oct_10_1232,60.0024826269,FEMA4ImagesEEG,001,101965,
AFNE01.JPG,AFNE01.JPG,AFNE01.JPG,AFNE01.JPG,AFNE01.JPG,AFNE01.JPG,,,,,2,4,24,1,,,,,,,,,,,,,,,,,,,AMSA13.jpg,AMSA15.jpg,AMNE01.jpg,AMNE05.jpg,AMNE05.jpg,MN,1,num_4,16,num_4,0.700169896008,,,2017_Oct_10_1232,60.0024826269,FEMA4ImagesEEG,001,101965,
AFNE01.JPG,AFNE01.JPG,AFNE01.JPG,AFNE01.JPG,AFNE01.JPG,AFNE01.JPG,,,,,2,5,25,5,,,,,,,,,,,,,,,,,,,AMSA18.jpg,AMNE11.jpg,AMSA01.jpg,AMNE14.jpg,AMSA01.jpg,MS,2,num_2,16,num_2,0.733328650589,,,2017_Oct_10_1232,60.0024826269,FEMA4ImagesEEG,001,101965,
AFNE01.JPG,AFNE01.JPG,AFNE01.JPG,AFNE01.JPG,AFNE01.JPG,AFNE01.JPG,,,,,2,6,26,3,,,,,,,,,,,,,,,,,,,AMSA20.jpg,AMSA10.jpg,AMNE19.jpg,AMNE11.jpg,AMNE19.jpg,MN,1,num_2,32,num_6,0.650143418927,,,2017_Oct_10_1232,60.0024826269,FEMA4ImagesEEG,001,101965,
AFNE01.JPG,AFNE01.JPG,AFNE01.JPG,AFNE01.JPG,AFNE01.JPG,AFNE01.JPG,,,,,2,7,27,2,,,,,,,,,,,,,,,,,,,AMNE08.jpg,AMSA07.jpg,AMNE17.jpg,AMSA19.jpg,AMSA19.jpg,MS,2,num_4,16,num_4,0.766457255464,,,2017_Oct_10_1232,60.0024826269,FEMA4ImagesEEG,001,101965,
AFNE01.JPG,AFNE01.JPG,AFNE01.JPG,AFNE01.JPG,AFNE01.JPG,AFNE01.JPG,,,,,2,8,28,6,,,,,,,,,,,,,,,,,,,AMNE03.jpg,AMSA12.jpg,AMNE09.jpg,AMSA13.jpg,AMNE09.jpg,MN,1,num_2,32,num_8,0.933495178702,,,2017_Oct_10_1232,60.0024826269,FEMA4ImagesEEG,001,101965,
AFNE01.JPG,AFNE01.JPG,AFNE01.JPG,AFNE01.JPG,AFNE01.JPG,AFNE01.JPG,,,,,2,9,29,0,,,,,,,,,,,,,,,,,,,AMNE20.jpg,AMNE15.jpg,AMSA01.jpg,AMSA03.jpg,AMNE15.jpg,MN,1,num_6,32,num_2,0.866770971334,,,2017_Oct_10_1232,60.0024826269,FEMA4ImagesEEG,001,101965,
AFNE01.JPG,AFNE01.JPG,AFNE01.JPG,AFNE01.JPG,AFNE01.JPG,AFNE01.JPG,,,,,3,0,30,4,,,,,,,,,,,,,,,,,,,AMNE02.jpg,AMSA15.jpg,AMSA06.jpg,AMNE06.jpg,AMSA06.jpg,MS,2,num_2,32,num_4,1.38343261846,,,2017_Oct_10_1232,60.0024826269,FEMA4ImagesEEG,001,101965,
AFNE01.JPG,AFNE01.JPG,AFNE01.JPG,AFNE01.JPG,AFNE01.JPG,AFNE01.JPG,,,,,3,1,31,7,,,,,,,,,,,,,,,,,,,AMNE08.jpg,AMSA18.jpg,AMNE09.jpg,AMSA19.jpg,AMNE09.jpg,MN,1,num_2,32,num_8,0.766766128247,,,2017_Oct_10_1232,60.0024826269,FEMA4ImagesEEG,001,101965,
AFNE01.JPG,AFNE01.JPG,AFNE01.JPG,AFNE01.JPG,AFNE01.JPG,AFNE01.JPG,,,,,3,2,32,9,,,,,,,,,,,,,,,,,,,AMSA16.jpg,AMNE06.jpg,AMSA11.jpg,AMNE16.jpg,AMNE06.jpg,MN,1,num_6,32,num_4,1.78348182002,,,2017_Oct_10_1232,60.0024826269,FEMA4ImagesEEG,001,101965,
AFNE01.JPG,AFNE01.JPG,AFNE01.JPG,AFNE01.JPG,AFNE01.JPG,AFNE01.JPG,,,,,3,3,33,6,,,,,,,,,,,,,,,,,,,AMNE13.jpg,AMSA04.jpg,AMSA11.jpg,AMNE09.jpg,AMSA04.jpg,MS,2,num_6,16,num_6,0.800167362206,,,2017_Oct_10_1232,60.0024826269,FEMA4ImagesEEG,001,101965,
AFNE01.JPG,AFNE01.JPG,AFNE01.JPG,AFNE01.JPG,AFNE01.JPG,AFNE01.JPG,,,,,3,4,34,1,,,,,,,,,,,,,,,,,,,AMSA05.jpg,AMSA10.jpg,AMNE09.jpg,AMNE15.jpg,AMNE09.jpg,MN,1,num_2,16,num_2,0.900126339518,,,2017_Oct_10_1232,60.0024826269,FEMA4ImagesEEG,001,101965,
AFNE01.JPG,AFNE01.JPG,AFNE01.JPG,AFNE01.JPG,AFNE01.JPG,AFNE01.JPG,,,,,3,5,35,8,,,,,,,,,,,,,,,,,,,AMNE16.jpg,AMSA17.jpg,AMSA01.jpg,AMNE09.jpg,AMSA17.jpg,MS,2,num_6,16,num_6,0.483496477827,,,2017_Oct_10_1232,60.0024826269,FEMA4ImagesEEG,001,101965,
AFNE01.JPG,AFNE01.JPG,AFNE01.JPG,AFNE01.JPG,AFNE01.JPG,AFNE01.JPG,,,,,3,6,36,0,,,,,,,,,,,,,,,,,,,AMNE01.jpg,AMSA17.jpg,AMSA19.jpg,AMNE07.jpg,AMSA17.jpg,MS,2,num_6,16,num_6,0.750189637649,,,2017_Oct_10_1232,60.0024826269,FEMA4ImagesEEG,001,101965,
AFNE01.JPG,AFNE01.JPG,AFNE01.JPG,AFNE01.JPG,AFNE01.JPG,AFNE01.JPG,,,,,3,7,37,2,,,,,,,,,,,,,,,,,,,AMNE02.jpg,AMSA14.jpg,AMSA20.jpg,AMNE06.jpg,AMSA20.jpg,MS,2,num_2,32,num_4,0.833479109686,,,2017_Oct_10_1232,60.0024826269,FEMA4ImagesEEG,001,101965,
AFNE01.JPG,AFNE01.JPG,AFNE01.JPG,AFNE01.JPG,AFNE01.JPG,AFNE01.JPG,,,,,3,8,38,5,,,,,,,,,,,,,,,,,,,AMSA07.jpg,AMSA05.jpg,AMNE05.jpg,AMNE10.jpg,AMNE10.jpg,MN,1,num_4,32,num_8,0.983477393747,,,2017_Oct_10_1232,60.0024826269,FEMA4ImagesEEG,001,101965,
AFNE01.JPG,AFNE01.JPG,AFNE01.JPG,AFNE01.JPG,AFNE01.JPG,AFNE01.JPG,,,,,3,9,39,3,,,,,,,,,,,,,,,,,,,AMSA20.jpg,AMNE17.jpg,AMNE07.jpg,AMSA13.jpg,AMSA13.jpg,MS,2,num_4,32,num_2,0.916736187064,,,2017_Oct_10_1232,60.0024826269,FEMA4ImagesEEG,001,101965,
AFNE01.JPG,AFNE01.JPG,AFNE01.JPG,AFNE01.JPG,AFNE01.JPG,AFNE01.JPG,,,,,4,0,40,7,,,,,,,,,,,,,,,,,,,AMSA02.jpg,AMSA16.jpg,AMNE01.jpg,AMNE08.jpg,AMNE01.jpg,MN,1,num_2,32,num_4,1.1667922365,,,2017_Oct_10_1232,60.0024826269,FEMA4ImagesEEG,001,101965,
AFNE01.JPG,AFNE01.JPG,AFNE01.JPG,AFNE01.JPG,AFNE01.JPG,AFNE01.JPG,,,,,4,1,41,9,,,,,,,,,,,,,,,,,,,AMNE10.jpg,AMSA15.jpg,AMNE15.jpg,AMSA10.jpg,AMSA15.jpg,MS,2,num_6,16,num_6,0.700155141996,,,2017_Oct_10_1232,60.0024826269,FEMA4ImagesEEG,001,101965,
AFNE01.JPG,AFNE01.JPG,AFNE01.JPG,AFNE01.JPG,AFNE01.JPG,AFNE01.JPG,,,,,4,2,42,5,,,,,,,,,,,,,,,,,,,AMNE18.jpg,AMSA14.jpg,AMSA05.jpg,AMNE11.jpg,AMNE18.jpg,MN,1,num_8,16,num_8,1.70005667477,,,2017_Oct_10_1232,60.0024826269,FEMA4ImagesEEG,001,101965,
AFNE01.JPG,AFNE01.JPG,AFNE01.JPG,AFNE01.JPG,AFNE01.JPG,AFNE01.JPG,,,,,4,3,43,4,,,,,,,,,,,,,,,,,,,AMSA07.jpg,AMSA19.jpg,AMNE15.jpg,AMNE17.jpg,AMNE17.jpg,MN,1,num_4,16,num_4,0.966726741288,,,2017_Oct_10_1232,60.0024826269,FEMA4ImagesEEG,001,101965,
AFNE01.JPG,AFNE01.JPG,AFNE01.JPG,AFNE01.JPG,AFNE01.JPG,AFNE01.JPG,,,,,4,4,44,6,,,,,,,,,,,,,,,,,,,AMNE14.jpg,AMSA08.jpg,AMSA12.jpg,AMNE17.jpg,AMNE14.jpg,MN,1,num_8,32,num_4,1.08331320691,,,2017_Oct_10_1232,60.0024826269,FEMA4ImagesEEG,001,101965,
AFNE01.JPG,AFNE01.JPG,AFNE01.JPG,AFNE01.JPG,AFNE01.JPG,AFNE01.JPG,,,,,4,5,45,1,,,,,,,,,,,,,,,,,,,AMSA20.jpg,AMNE08.jpg,AMSA10.jpg,AMNE09.jpg,AMSA20.jpg,MS,2,num_8,16,num_8,2.20000840339,,,2017_Oct_10_1232,60.0024826269,FEMA4ImagesEEG,001,101965,
AFNE01.JPG,AFNE01.JPG,AFNE01.JPG,AFNE01.JPG,AFNE01.JPG,AFNE01.JPG,,,,,4,6,46,8,,,,,,,,,,,,,,,,,,,AMSA10.jpg,AMNE17.jpg,AMSA05.jpg,AMNE19.jpg,AMSA05.jpg,MS,2,num_2,32,num_6,0.966799549293,,,2017_Oct_10_1232,60.0024826269,FEMA4ImagesEEG,001,101965,
AFNE01.JPG,AFNE01.JPG,AFNE01.JPG,AFNE01.JPG,AFNE01.JPG,AFNE01.JPG,,,,,4,7,47,0,,,,,,,,,,,,,,,,,,,AMNE16.jpg,AMSA13.jpg,AMSA01.jpg,AMNE15.jpg,AMNE16.jpg,MN,1,num_8,16,num_8,0.783502026577,,,2017_Oct_10_1232,60.0024826269,FEMA4ImagesEEG,001,101965,
AFNE01.JPG,AFNE01.JPG,AFNE01.JPG,AFNE01.JPG,AFNE01.JPG,AFNE01.JPG,,,,,4,8,48,2,,,,,,,,,,,,,,,,,,,AMSA20.jpg,AMNE12.jpg,AMSA05.jpg,AMNE20.jpg,AMNE12.jpg,MN,1,num_6,32,num_4,1.15009803418,,,2017_Oct_10_1232,60.0024826269,FEMA4ImagesEEG,001,101965,
AFNE01.JPG,AFNE01.JPG,AFNE01.JPG,AFNE01.JPG,AFNE01.JPG,AFNE01.JPG,,,,,4,9,49,3,,,,,,,,,,,,,,,,,,,AMNE18.jpg,AMSA09.jpg,AMNE03.jpg,AMSA20.jpg,AMSA20.jpg,MS,2,num_4,16,num_4,0.933459897409,,,2017_Oct_10_1232,60.0024826269,FEMA4ImagesEEG,001,101965,
AFNE01.JPG,AFNE01.JPG,AFNE01.JPG,AFNE01.JPG,AFNE01.JPG,AFNE01.JPG,,,,,5,0,50,9,,,,,,,,,,,,,,,,,,,AMSA10.jpg,AMSA04.jpg,AMNE12.jpg,AMNE15.jpg,AMNE15.jpg,MN,1,num_4,32,num_2,0.816844244371,,,2017_Oct_10_1232,60.0024826269,FEMA4ImagesEEG,001,101965,
AFNE01.JPG,AFNE01.JPG,AFNE01.JPG,AFNE01.JPG,AFNE01.JPG,AFNE01.JPG,,,,,5,1,51,5,,,,,,,,,,,,,,,,,,,AMNE06.jpg,AMSA02.jpg,AMNE13.jpg,AMSA19.jpg,AMNE06.jpg,MN,1,num_8,16,num_8,1.00019212335,,,2017_Oct_10_1232,60.0024826269,FEMA4ImagesEEG,001,101965,
AFNE01.JPG,AFNE01.JPG,AFNE01.JPG,AFNE01.JPG,AFNE01.JPG,AFNE01.JPG,,,,,5,2,52,3,,,,,,,,,,,,,,,,,,,AMNE12.jpg,AMSA01.jpg,AMSA10.jpg,AMNE11.jpg,AMNE12.jpg,MN,1,num_8,32,num_2,2.20001738414,,,2017_Oct_10_1232,60.0024826269,FEMA4ImagesEEG,001,101965,
AFNE01.JPG,AFNE01.JPG,AFNE01.JPG,AFNE01.JPG,AFNE01.JPG,AFNE01.JPG,,,,,5,3,53,8,,,,,,,,,,,,,,,,,,,AMNE03.jpg,AMSA13.jpg,AMNE16.jpg,AMSA12.jpg,AMSA13.jpg,MS,2,num_6,16,num_6,2.08339146746,,,2017_Oct_10_1232,60.0024826269,FEMA4ImagesEEG,001,101965,
AFNE01.JPG,AFNE01.JPG,AFNE01.JPG,AFNE01.JPG,AFNE01.JPG,AFNE01.JPG,,,,,5,4,54,6,,,,,,,,,,,,,,,,,,,AMSA09.jpg,AMSA20.jpg,AMNE19.jpg,AMNE11.jpg,AMSA20.jpg,MS,2,num_6,16,num_6,0.533453675103,,,2017_Oct_10_1232,60.0024826269,FEMA4ImagesEEG,001,101965,
AFNE01.JPG,AFNE01.JPG,AFNE01.JPG,AFNE01.JPG,AFNE01.JPG,AFNE01.JPG,,,,,5,5,55,1,,,,,,,,,,,,,,,,,,,AMNE13.jpg,AMSA01.jpg,AMSA10.jpg,AMNE10.jpg,AMNE10.jpg,MN,1,num_4,32,num_8,1.20012098318,,,2017_Oct_10_1232,60.0024826269,FEMA4ImagesEEG,001,101965,
AFNE01.JPG,AFNE01.JPG,AFNE01.JPG,AFNE01.JPG,AFNE01.JPG,AFNE01.JPG,,,,,5,6,56,0,,,,,,,,,,,,,,,,,,,AMNE01.jpg,AMSA15.jpg,AMSA06.jpg,AMNE02.jpg,AMSA06.jpg,MS,2,num_2,32,num_4,0.800143948174,,,2017_Oct_10_1232,60.0024826269,FEMA4ImagesEEG,001,101965,
AFNE01.JPG,AFNE01.JPG,AFNE01.JPG,AFNE01.JPG,AFNE01.JPG,AFNE01.JPG,,,,,5,7,57,2,,,,,,,,,,,,,,,,,,,AMSA09.jpg,AMSA11.jpg,AMNE16.jpg,AMNE14.jpg,AMSA09.jpg,MS,2,num_8,16,num_8,0.483515722211,,,2017_Oct_10_1232,60.0024826269,FEMA4ImagesEEG,001,101965,
AFNE01.JPG,AFNE01.JPG,AFNE01.JPG,AFNE01.JPG,AFNE01.JPG,AFNE01.JPG,,,,,5,8,58,4,,,,,,,,,,,,,,,,,,,AMNE18.jpg,AMSA19.jpg,AMNE15.jpg,AMSA01.jpg,AMSA01.jpg,MS,2,num_4,32,num_2,0.850148614962,,,2017_Oct_10_1232,60.0024826269,FEMA4ImagesEEG,001,101965,
AFNE01.JPG,AFNE01.JPG,AFNE01.JPG,AFNE01.JPG,AFNE01.JPG,AFNE01.JPG,,,,,5,9,59,7,,,,,,,,,,,,,,,,,,,AMSA11.jpg,AMSA03.jpg,AMNE04.jpg,AMNE17.jpg,AMSA11.jpg,MS,2,num_8,32,num_6,0.366829506471,,,2017_Oct_10_1232,60.0024826269,FEMA4ImagesEEG,001,101965,
,,,,,,,,,,,,,,,,,,,,,,,,,,,,,,,,,,,,,,,,,,,space,23.7815439082,2017_Oct_10_1232,60.0024826269,FEMA4ImagesEEG,001,101965,
AFNE01.JPG,AFNE01.JPG,AFNE01.JPG,AFNE01.JPG,AFNE01.JPG,AFNE01.JPG,,,,,,,,,0,0,0,0,,,,,,,,,,,,,,,AFSA06.jpg,AFNE20.jpg,AFSA12.jpg,AFNE15.jpg,AFNE20.jpg,FN,3,num_6,32,num_8,0.866811384563,,,2017_Oct_10_1232,60.0024826269,FEMA4ImagesEEG,001,101965,
AFNE01.JPG,AFNE01.JPG,AFNE01.JPG,AFNE01.JPG,AFNE01.JPG,AFNE01.JPG,,,,,,,,,0,1,1,8,,,,,,,,,,,,,,,AFSA18.jpg,AFNE03.jpg,AFNE18.jpg,AFSA13.jpg,AFNE03.jpg,FN,3,num_6,16,num_6,0.683344511199,,,2017_Oct_10_1232,60.0024826269,FEMA4ImagesEEG,001,101965,
AFNE01.JPG,AFNE01.JPG,AFNE01.JPG,AFNE01.JPG,AFNE01.JPG,AFNE01.JPG,,,,,,,,,0,2,2,6,,,,,,,,,,,,,,,AFNE19.jpg,AFSA07.jpg,AFNE07.jpg,AFSA10.jpg,AFSA10.jpg,FS,4,num_4,32,num_2,1.06676943181,,,2017_Oct_10_1232,60.0024826269,FEMA4ImagesEEG,001,101965,
AFNE01.JPG,AFNE01.JPG,AFNE01.JPG,AFNE01.JPG,AFNE01.JPG,AFNE01.JPG,,,,,,,,,0,3,3,5,,,,,,,,,,,,,,,AFSA06.jpg,AFSA20.jpg,AFNE10.jpg,AFNE13.jpg,AFNE13.jpg,FN,3,num_4,32,num_8,0.483489421429,,,2017_Oct_10_1232,60.0024826269,FEMA4ImagesEEG,001,101965,
AFNE01.JPG,AFNE01.JPG,AFNE01.JPG,AFNE01.JPG,AFNE01.JPG,AFNE01.JPG,,,,,,,,,0,4,4,3,,,,,,,,,,,,,,,AFSA03.jpg,AFNE17.jpg,AFSA02.jpg,AFNE13.jpg,AFSA03.jpg,FS,4,num_8,32,num_6,1.73340626969,,,2017_Oct_10_1232,60.0024826269,FEMA4ImagesEEG,001,101965,
AFNE01.JPG,AFNE01.JPG,AFNE01.JPG,AFNE01.JPG,AFNE01.JPG,AFNE01.JPG,,,,,,,,,0,5,5,7,,,,,,,,,,,,,,,AFNE14.jpg,AFSA19.jpg,AFSA12.jpg,AFNE18.jpg,AFNE18.jpg,FN,3,num_4,16,num_4,0.566779535147,,,2017_Oct_10_1232,60.0024826269,FEMA4ImagesEEG,001,101965,
AFNE01.JPG,AFNE01.JPG,AFNE01.JPG,AFNE01.JPG,AFNE01.JPG,AFNE01.JPG,,,,,,,,,0,6,6,4,,,,,,,,,,,,,,,AFSA04.jpg,AFNE12.jpg,AFSA08.jpg,AFNE06.jpg,AFSA08.jpg,FS,4,num_2,32,num_8,0.833596179844,,,2017_Oct_10_1232,60.0024826269,FEMA4ImagesEEG,001,101965,
AFNE01.JPG,AFNE01.JPG,AFNE01.JPG,AFNE01.JPG,AFNE01.JPG,AFNE01.JPG,,,,,,,,,0,7,7,2,,,,,,,,,,,,,,,AFSA19.jpg,AFSA18.jpg,AFNE17.jpg,AFNE11.jpg,AFNE11.jpg,FN,3,num_4,32,num_2,1.01676829311,,,2017_Oct_10_1232,60.0024826269,FEMA4ImagesEEG,001,101965,
AFNE01.JPG,AFNE01.JPG,AFNE01.JPG,AFNE01.JPG,AFNE01.JPG,AFNE01.JPG,,,,,,,,,0,8,8,1,,,,,,,,,,,,,,,AFNE19.jpg,AFSA07.jpg,AFSA12.jpg,AFNE07.jpg,AFNE07.jpg,FN,3,num_4,32,num_8,0.850145728327,,,2017_Oct_10_1232,60.0024826269,FEMA4ImagesEEG,001,101965,
AFNE01.JPG,AFNE01.JPG,AFNE01.JPG,AFNE01.JPG,AFNE01.JPG,AFNE01.JPG,,,,,,,,,0,9,9,9,,,,,,,,,,,,,,,AFSA19.jpg,AFSA07.jpg,AFNE15.jpg,AFNE06.jpg,AFSA07.jpg,FS,4,num_6,32,num_4,1.38381173334,,,2017_Oct_10_1232,60.0024826269,FEMA4ImagesEEG,001,101965,
AFNE01.JPG,AFNE01.JPG,AFNE01.JPG,AFNE01.JPG,AFNE01.JPG,AFNE01.JPG,,,,,,,,,1,0,10,9,,,,,,,,,,,,,,,AFNE09.jpg,AFSA09.jpg,AFNE18.jpg,AFSA18.jpg,AFNE18.jpg,FN,3,num_2,32,num_8,0.60017948621,,,2017_Oct_10_1232,60.0024826269,FEMA4ImagesEEG,001,101965,
AFNE01.JPG,AFNE01.JPG,AFNE01.JPG,AFNE01.JPG,AFNE01.JPG,AFNE01.JPG,,,,,,,,,1,1,11,1,,,,,,,,,,,,,,,AFNE09.jpg,AFSA18.jpg,AFNE20.jpg,AFSA05.jpg,AFSA18.jpg,FS,4,num_6,16,num_6,0.783480216167,,,2017_Oct_10_1232,60.0024826269,FEMA4ImagesEEG,001,101965,
AFNE01.JPG,AFNE01.JPG,AFNE01.JPG,AFNE01.JPG,AFNE01.JPG,AFNE01.JPG,,,,,,,,,1,2,12,2,,,,,,,,,,,,,,,AFNE09.jpg,AFSA03.jpg,AFNE11.jpg,AFSA10.jpg,AFSA03.jpg,FS,4,num_6,32,num_2,2.6000595293,,,2017_Oct_10_1232,60.0024826269,FEMA4ImagesEEG,001,101965,
AFNE01.JPG,AFNE01.JPG,AFNE01.JPG,AFNE01.JPG,AFNE01.JPG,AFNE01.JPG,,,,,,,,,1,3,13,3,,,,,,,,,,,,,,,AFNE07.jpg,AFNE20.jpg,AFSA14.jpg,AFSA04.jpg,AFNE20.jpg,FN,3,num_6,32,num_8,0.883434703224,,,2017_Oct_10_1232,60.0024826269,FEMA4ImagesEEG,001,101965,
AFNE01.JPG,AFNE01.JPG,AFNE01.JPG,AFNE01.JPG,AFNE01.JPG,AFNE01.JPG,,,,,,,,,1,4,14,4,,,,,,,,,,,,,,,AFNE08.jpg,AFNE10.jpg,AFSA16.jpg,AFSA04.jpg,AFNE08.jpg,FN,3,num_8,32,num_4,0.850127446,,,2017_Oct_10_1232,60.0024826269,FEMA4ImagesEEG,001,101965,
AFNE01.JPG,AFNE01.JPG,AFNE01.JPG,AFNE01.JPG,AFNE01.JPG,AFNE01.JPG,,,,,,,,,1,5,15,8,,,,,,,,,,,,,,,AFSA04.jpg,AFSA01.jpg,AFNE03.jpg,AFNE08.jpg,AFSA04.jpg,FS,4,num_8,16,num_8,0.816793567501,,,2017_Oct_10_1232,60.0024826269,FEMA4ImagesEEG,001,101965,
AFNE01.JPG,AFNE01.JPG,AFNE01.JPG,AFNE01.JPG,AFNE01.JPG,AFNE01.JPG,,,,,,,,,1,6,16,0,,,,,,,,,,,,,,,AFSA06.jpg,AFNE07.jpg,AFSA15.jpg,AFNE01.jpg,AFNE07.jpg,FN,3,num_6,16,num_6,0.866739218123,,,2017_Oct_10_1232,60.0024826269,FEMA4ImagesEEG,001,101965,
AFNE01.JPG,AFNE01.JPG,AFNE01.JPG,AFNE01.JPG,AFNE01.JPG,AFNE01.JPG,,,,,,,,,1,7,17,5,,,,,,,,,,,,,,,AFNE16.jpg,AFSA09.jpg,AFNE13.jpg,AFSA14.jpg,AFSA09.jpg,FS,4,num_6,32,num_4,0.566825080197,,,2017_Oct_10_1232,60.0024826269,FEMA4ImagesEEG,001,101965,
AFNE01.JPG,AFNE01.JPG,AFNE01.JPG,AFNE01.JPG,AFNE01.JPG,AFNE01.JPG,,,,,,,,,1,8,18,6,,,,,,,,,,,,,,,AFSA16.jpg,AFNE10.jpg,AFNE16.jpg,AFSA14.jpg,AFSA16.jpg,FS,4,num_8,16,num_8,1.11676511785,,,2017_Oct_10_1232,60.0024826269,FEMA4ImagesEEG,001,101965,
AFNE01.JPG,AFNE01.JPG,AFNE01.JPG,AFNE01.JPG,AFNE01.JPG,AFNE01.JPG,,,,,,,,,1,9,19,7,,,,,,,,,,,,,,,AFSA05.jpg,AFNE14.jpg,AFSA09.jpg,AFNE20.jpg,AFNE14.jpg,FN,3,num_6,32,num_2,0.900141735096,,,2017_Oct_10_1232,60.0024826269,FEMA4ImagesEEG,001,101965,
AFNE01.JPG,AFNE01.JPG,AFNE01.JPG,AFNE01.JPG,AFNE01.JPG,AFNE01.JPG,,,,,,,,,2,0,20,5,,,,,,,,,,,,,,,AFNE02.jpg,AFNE08.jpg,AFSA11.jpg,AFSA14.jpg,AFNE02.jpg,FN,3,num_8,16,num_8,0.733508264995,,,2017_Oct_10_1232,60.0024826269,FEMA4ImagesEEG,001,101965,
AFNE01.JPG,AFNE01.JPG,AFNE01.JPG,AFNE01.JPG,AFNE01.JPG,AFNE01.JPG,,,,,,,,,2,1,21,8,,,,,,,,,,,,,,,AFSA12.jpg,AFSA13.jpg,AFNE08.jpg,AFNE02.jpg,AFSA12.jpg,FS,4,num_8,16,num_8,0.416828720598,,,2017_Oct_10_1232,60.0024826269,FEMA4ImagesEEG,001,101965,
AFNE01.JPG,AFNE01.JPG,AFNE01.JPG,AFNE01.JPG,AFNE01.JPG,AFNE01.JPG,,,,,,,,,2,2,22,4,,,,,,,,,,,,,,,AFNE03.jpg,AFSA05.jpg,AFSA17.jpg,AFNE16.jpg,AFNE03.jpg,FN,3,num_8,32,num_6,1.25014297001,,,2017_Oct_10_1232,60.0024826269,FEMA4ImagesEEG,001,101965,
AFNE01.JPG,AFNE01.JPG,AFNE01.JPG,AFNE01.JPG,AFNE01.JPG,AFNE01.JPG,,,,,,,,,2,3,23,7,,,,,,,,,,,,,,,AFNE02.jpg,AFSA11.jpg,AFSA20.jpg,AFNE09.jpg,AFNE09.jpg,FN,3,num_4,32,num_8,1.35005768517,,,2017_Oct_10_1232,60.0024826269,FEMA4ImagesEEG,001,101965,
AFNE01.JPG,AFNE01.JPG,AFNE01.JPG,AFNE01.JPG,AFNE01.JPG,AFNE01.JPG,,,,,,,,,2,4,24,0,,,,,,,,,,,,,,,AFSA08.jpg,AFNE15.jpg,AFSA01.jpg,AFNE17.jpg,AFNE17.jpg,FN,3,num_4,16,num_4,1.06661836314,,,2017_Oct_10_1232,60.0024826269,FEMA4ImagesEEG,001,101965,
AFNE01.JPG,AFNE01.JPG,AFNE01.JPG,AFNE01.JPG,AFNE01.JPG,AFNE01.JPG,,,,,,,,,2,5,25,9,,,,,,,,,,,,,,,AFNE03.jpg,AFNE02.jpg,AFSA19.jpg,AFSA15.jpg,AFSA19.jpg,FS,4,num_2,16,num_2,0.883513284498,,,2017_Oct_10_1232,60.0024826269,FEMA4ImagesEEG,001,101965,
AFNE01.JPG,AFNE01.JPG,AFNE01.JPG,AFNE01.JPG,AFNE01.JPG,AFNE01.JPG,,,,,,,,,2,6,26,1,,,,,,,,,,,,,,,AFNE09.jpg,AFSA12.jpg,AFSA09.jpg,AFNE10.jpg,AFSA12.jpg,FS,4,num_6,16,num_6,0.700214158162,,,2017_Oct_10_1232,60.0024826269,FEMA4ImagesEEG,001,101965,
AFNE01.JPG,AFNE01.JPG,AFNE01.JPG,AFNE01.JPG,AFNE01.JPG,AFNE01.JPG,,,,,,,,,2,7,27,2,,,,,,,,,,,,,,,AFNE06.jpg,AFNE03.jpg,AFSA05.jpg,AFSA07.jpg,AFNE06.jpg,FN,3,num_8,16,num_8,0.716780705843,,,2017_Oct_10_1232,60.0024826269,FEMA4ImagesEEG,001,101965,
AFNE01.JPG,AFNE01.JPG,AFNE01.JPG,AFNE01.JPG,AFNE01.JPG,AFNE01.JPG,,,,,,,,,2,8,28,3,,,,,,,,,,,,,,,AFNE05.jpg,AFSA20.jpg,AFNE15.jpg,AFSA04.jpg,AFNE05.jpg,FN,3,num_8,32,num_4,0.766485159751,,,2017_Oct_10_1232,60.0024826269,FEMA4ImagesEEG,001,101965,
AFNE01.JPG,AFNE01.JPG,AFNE01.JPG,AFNE01.JPG,AFNE01.JPG,AFNE01.JPG,,,,,,,,,2,9,29,6,,,,,,,,,,,,,,,AFNE05.jpg,AFNE06.jpg,AFSA19.jpg,AFSA03.jpg,AFSA03.jpg,FS,4,num_4,32,num_6,0.93348812242,,,2017_Oct_10_1232,60.0024826269,FEMA4ImagesEEG,001,101965,
AFNE01.JPG,AFNE01.JPG,AFNE01.JPG,AFNE01.JPG,AFNE01.JPG,AFNE01.JPG,,,,,,,,,3,0,30,9,,,,,,,,,,,,,,,AFNE13.jpg,AFNE09.jpg,AFSA05.jpg,AFSA15.jpg,AFNE09.jpg,FN,3,num_6,32,num_8,0.683517069323,,,2017_Oct_10_1232,60.0024826269,FEMA4ImagesEEG,001,101965,
AFNE01.JPG,AFNE01.JPG,AFNE01.JPG,AFNE01.JPG,AFNE01.JPG,AFNE01.JPG,,,,,,,,,3,1,31,0,,,,,,,,,,,,,,,AFNE19.jpg,AFSA16.jpg,AFSA10.jpg,AFNE04.jpg,AFNE04.jpg,FN,3,num_4,32,num_2,0.633482252946,,,2017_Oct_10_1232,60.0024826269,FEMA4ImagesEEG,001,101965,
AFNE01.JPG,AFNE01.JPG,AFNE01.JPG,AFNE01.JPG,AFNE01.JPG,AFNE01.JPG,,,,,,,,,3,2,32,3,,,,,,,,,,,,,,,AFSA08.jpg,AFNE18.jpg,AFSA11.jpg,AFNE01.jpg,AFNE01.jpg,FN,3,num_4,16,num_4,0.966727382736,,,2017_Oct_10_1232,60.0024826269,FEMA4ImagesEEG,001,101965,
AFNE01.JPG,AFNE01.JPG,AFNE01.JPG,AFNE01.JPG,AFNE01.JPG,AFNE01.JPG,,,,,,,,,3,3,33,1,,,,,,,,,,,,,,,AFSA13.jpg,AFNE19.jpg,AFSA08.jpg,AFNE18.jpg,AFNE18.jpg,FN,3,num_4,32,num_8,0.733470096951,,,2017_Oct_10_1232,60.0024826269,FEMA4ImagesEEG,001,101965,
AFNE01.JPG,AFNE01.JPG,AFNE01.JPG,AFNE01.JPG,AFNE01.JPG,AFNE01.JPG,,,,,,,,,3,4,34,6,,,,,,,,,,,,,,,AFSA03.jpg,AFSA04.jpg,AFNE01.jpg,AFNE03.jpg,AFNE01.jpg,FN,3,num_2,16,num_2,1.4667644283,,,2017_Oct_10_1232,60.0024826269,FEMA4ImagesEEG,001,101965,
AFNE01.JPG,AFNE01.JPG,AFNE01.JPG,AFNE01.JPG,AFNE01.JPG,AFNE01.JPG,,,,,,,,,3,5,35,8,,,,,,,,,,,,,,,AFNE06.jpg,AFSA13.jpg,AFSA14.jpg,AFNE03.jpg,AFNE06.jpg,FN,3,num_8,32,num_4,0.766752977739,,,2017_Oct_10_1232,60.0024826269,FEMA4ImagesEEG,001,101965,
AFNE01.JPG,AFNE01.JPG,AFNE01.JPG,AFNE01.JPG,AFNE01.JPG,AFNE01.JPG,,,,,,,,,3,6,36,2,,,,,,,,,,,,,,,AFNE15.jpg,AFSA04.jpg,AFNE19.jpg,AFSA11.jpg,AFNE15.jpg,FN,3,num_8,16,num_8,0.91678910912,,,2017_Oct_10_1232,60.0024826269,FEMA4ImagesEEG,001,101965,
AFNE01.JPG,AFNE01.JPG,AFNE01.JPG,AFNE01.JPG,AFNE01.JPG,AFNE01.JPG,,,,,,,,,3,7,37,5,,,,,,,,,,,,,,,AFSA05.jpg,AFSA03.jpg,AFNE10.jpg,AFNE06.jpg,AFNE06.jpg,FN,3,num_4,32,num_2,0.950125233037,,,2017_Oct_10_1232,60.0024826269,FEMA4ImagesEEG,001,101965,
AFNE01.JPG,AFNE01.JPG,AFNE01.JPG,AFNE01.JPG,AFNE01.JPG,AFNE01.JPG,,,,,,,,,3,8,38,7,,,,,,,,,,,,,,,AFSA08.jpg,AFNE19.jpg,AFSA02.jpg,AFNE01.jpg,AFSA08.jpg,FS,4,num_8,32,num_4,0.716807968682,,,2017_Oct_10_1232,60.0024826269,FEMA4ImagesEEG,001,101965,
AFNE01.JPG,AFNE01.JPG,AFNE01.JPG,AFNE01.JPG,AFNE01.JPG,AFNE01.JPG,,,,,,,,,3,9,39,4,,,,,,,,,,,,,,,AFNE10.jpg,AFSA10.jpg,AFNE06.jpg,AFSA19.jpg,AFNE10.jpg,FN,3,num_8,16,num_8,0.833463714109,,,2017_Oct_10_1232,60.0024826269,FEMA4ImagesEEG,001,101965,
AFNE01.JPG,AFNE01.JPG,AFNE01.JPG,AFNE01.JPG,AFNE01.JPG,AFNE01.JPG,,,,,,,,,4,0,40,0,,,,,,,,,,,,,,,AFSA20.jpg,AFNE03.jpg,AFNE02.jpg,AFSA05.jpg,AFSA20.jpg,FS,4,num_8,32,num_4,1.1333627773,,,2017_Oct_10_1232,60.0024826269,FEMA4ImagesEEG,001,101965,
AFNE01.JPG,AFNE01.JPG,AFNE01.JPG,AFNE01.JPG,AFNE01.JPG,AFNE01.JPG,,,,,,,,,4,1,41,2,,,,,,,,,,,,,,,AFSA02.jpg,AFNE19.jpg,AFSA12.jpg,AFNE17.jpg,AFNE19.jpg,FN,3,num_6,16,num_6,1.3334064621,,,2017_Oct_10_1232,60.0024826269,FEMA4ImagesEEG,001,101965,
AFNE01.JPG,AFNE01.JPG,AFNE01.JPG,AFNE01.JPG,AFNE01.JPG,AFNE01.JPG,,,,,,,,,4,2,42,3,,,,,,,,,,,,,,,AFNE06.jpg,AFNE10.jpg,AFSA15.jpg,AFSA05.jpg,AFNE10.jpg,FN,3,num_6,32,num_8,1.01707812806,,,2017_Oct_10_1232,60.0024826269,FEMA4ImagesEEG,001,101965,
AFNE01.JPG,AFNE01.JPG,AFNE01.JPG,AFNE01.JPG,AFNE01.JPG,AFNE01.JPG,,,,,,,,,4,3,43,5,,,,,,,,,,,,,,,AFNE20.jpg,AFNE07.jpg,AFSA18.jpg,AFSA03.jpg,AFSA03.jpg,FS,4,num_4,16,num_4,1.28346754704,,,2017_Oct_10_1232,60.0024826269,FEMA4ImagesEEG,001,101965,
AFNE01.JPG,AFNE01.JPG,AFNE01.JPG,AFNE01.JPG,AFNE01.JPG,AFNE01.JPG,,,,,,,,,4,4,44,1,,,,,,,,,,,,,,,AFSA02.jpg,AFNE15.jpg,AFSA12.jpg,AFNE17.jpg,AFNE17.jpg,FN,3,num_4,32,num_8,0.816772398655,,,2017_Oct_10_1232,60.0024826269,FEMA4ImagesEEG,001,101965,
AFNE01.JPG,AFNE01.JPG,AFNE01.JPG,AFNE01.JPG,AFNE01.JPG,AFNE01.JPG,,,,,,,,,4,5,45,8,,,,,,,,,,,,,,,AFNE13.jpg,AFSA07.jpg,AFSA19.jpg,AFNE16.jpg,AFNE13.jpg,FN,3,num_8,32,num_2,0.950135817402,,,2017_Oct_10_1232,60.0024826269,FEMA4ImagesEEG,001,101965,
AFNE01.JPG,AFNE01.JPG,AFNE01.JPG,AFNE01.JPG,AFNE01.JPG,AFNE01.JPG,,,,,,,,,4,6,46,6,,,,,,,,,,,,,,,AFNE12.jpg,AFSA15.jpg,AFSA16.jpg,AFNE13.jpg,AFNE12.jpg,FN,3,num_8,16,num_8,0.633364220615,,,2017_Oct_10_1232,60.0024826269,FEMA4ImagesEEG,001,101965,
AFNE01.JPG,AFNE01.JPG,AFNE01.JPG,AFNE01.JPG,AFNE01.JPG,AFNE01.JPG,,,,,,,,,4,7,47,4,,,,,,,,,,,,,,,AFNE07.jpg,AFSA17.jpg,AFSA02.jpg,AFNE17.jpg,AFNE07.jpg,FN,3,num_8,32,num_4,0.56680711871,,,2017_Oct_10_1232,60.0024826269,FEMA4ImagesEEG,001,101965,
AFNE01.JPG,AFNE01.JPG,AFNE01.JPG,AFNE01.JPG,AFNE01.JPG,AFNE01.JPG,,,,,,,,,4,8,48,7,,,,,,,,,,,,,,,AFSA11.jpg,AFSA20.jpg,AFNE05.jpg,AFNE14.jpg,AFNE05.jpg,FN,3,num_2,32,num_8,0.633495082497,,,2017_Oct_10_1232,60.0024826269,FEMA4ImagesEEG,001,101965,
AFNE01.JPG,AFNE01.JPG,AFNE01.JPG,AFNE01.JPG,AFNE01.JPG,AFNE01.JPG,,,,,,,,,4,9,49,9,,,,,,,,,,,,,,,AFNE11.jpg,AFNE12.jpg,AFSA01.jpg,AFSA19.jpg,AFSA19.jpg,FS,4,num_4,32,num_2,0.833488411154,,,2017_Oct_10_1232,60.0024826269,FEMA4ImagesEEG,001,101965,
AFNE01.JPG,AFNE01.JPG,AFNE01.JPG,AFNE01.JPG,AFNE01.JPG,AFNE01.JPG,,,,,,,,,5,0,50,1,,,,,,,,,,,,,,,AFNE06.jpg,AFNE14.jpg,AFSA13.jpg,AFSA19.jpg,AFSA13.jpg,FS,4,num_2,32,num_6,0.600251332042,,,2017_Oct_10_1232,60.0024826269,FEMA4ImagesEEG,001,101965,
AFNE01.JPG,AFNE01.JPG,AFNE01.JPG,AFNE01.JPG,AFNE01.JPG,AFNE01.JPG,,,,,,,,,5,1,51,9,,,,,,,,,,,,,,,AFSA19.jpg,AFSA02.jpg,AFNE02.jpg,AFNE16.jpg,AFNE02.jpg,FN,3,num_2,32,num_8,0.716798987938,,,2017_Oct_10_1232,60.0024826269,FEMA4ImagesEEG,001,101965,
AFNE01.JPG,AFNE01.JPG,AFNE01.JPG,AFNE01.JPG,AFNE01.JPG,AFNE01.JPG,,,,,,,,,5,2,52,8,,,,,,,,,,,,,,,AFSA09.jpg,AFNE07.jpg,AFNE19.jpg,AFSA04.jpg,AFNE07.jpg,FN,3,num_6,16,num_6,0.56681577873,,,2017_Oct_10_1232,60.0024826269,FEMA4ImagesEEG,001,101965,
AFNE01.JPG,AFNE01.JPG,AFNE01.JPG,AFNE01.JPG,AFNE01.JPG,AFNE01.JPG,,,,,,,,,5,3,53,4,,,,,,,,,,,,,,,AFNE08.jpg,AFSA11.jpg,AFSA03.jpg,AFNE12.jpg,AFNE08.jpg,FN,3,num_8,16,num_8,0.700103181996,,,2017_Oct_10_1232,60.0024826269,FEMA4ImagesEEG,001,101965,
AFNE01.JPG,AFNE01.JPG,AFNE01.JPG,AFNE01.JPG,AFNE01.JPG,AFNE01.JPG,,,,,,,,,5,4,54,2,,,,,,,,,,,,,,,AFNE01.jpg,AFNE17.jpg,AFSA04.jpg,AFSA18.jpg,AFSA04.jpg,FS,4,num_2,16,num_2,1.19997536717,,,2017_Oct_10_1232,60.0024826269,FEMA4ImagesEEG,001,101965,
AFNE01.JPG,AFNE01.JPG,AFNE01.JPG,AFNE01.JPG,AFNE01.JPG,AFNE01.JPG,,,,,,,,,5,5,55,3,,,,,,,,,,,,,,,AFNE20.jpg,AFSA09.jpg,AFNE07.jpg,AFSA01.jpg,AFNE07.jpg,FN,3,num_2,32,num_6,0.950155382627,,,2017_Oct_10_1232,60.0024826269,FEMA4ImagesEEG,001,101965,
AFNE01.JPG,AFNE01.JPG,AFNE01.JPG,AFNE01.JPG,AFNE01.JPG,AFNE01.JPG,,,,,,,,,5,6,56,6,,,,,,,,,,,,,,,AFNE06.jpg,AFNE15.jpg,AFSA12.jpg,AFSA19.jpg,AFNE15.jpg,FN,3,num_6,16,num_6,0.616793182679,,,2017_Oct_10_1232,60.0024826269,FEMA4ImagesEEG,001,101965,
AFNE01.JPG,AFNE01.JPG,AFNE01.JPG,AFNE01.JPG,AFNE01.JPG,AFNE01.JPG,,,,,,,,,5,7,57,0,,,,,,,,,,,,,,,AFSA08.jpg,AFSA02.jpg,AFNE19.jpg,AFNE01.jpg,AFNE19.jpg,FN,3,num_2,16,num_2,0.833483920782,,,2017_Oct_10_1232,60.0024826269,FEMA4ImagesEEG,001,101965,
AFNE01.JPG,AFNE01.JPG,AFNE01.JPG,AFNE01.JPG,AFNE01.JPG,AFNE01.JPG,,,,,,,,,5,8,58,7,,,,,,,,,,,,,,,AFNE15.jpg,AFSA11.jpg,AFSA19.jpg,AFNE01.jpg,AFNE01.jpg,FN,3,num_4,32,num_6,0.600121752941,,,2017_Oct_10_1232,60.0024826269,FEMA4ImagesEEG,001,101965,
AFNE01.JPG,AFNE01.JPG,AFNE01.JPG,AFNE01.JPG,AFNE01.JPG,AFNE01.JPG,,,,,,,,,5,9,59,5,,,,,,,,,,,,,,,AFSA09.jpg,AFNE16.jpg,AFSA17.jpg,AFNE06.jpg,AFSA17.jpg,FS,4,num_2,16,num_2,1.0167936316,,,2017_Oct_10_1232,60.0024826269,FEMA4ImagesEEG,001,101965,
,,,,,,,,,,,,,,,,,,,,,,,,,,,,,,,,,,,,,,,,,,,space,38.8973362213,2017_Oct_10_1232,60.0024826269,FEMA4ImagesEEG,001,101965,
AFNE01.JPG,AFNE01.JPG,AFNE01.JPG,AFNE01.JPG,AFNE01.JPG,AFNE01.JPG,,,,,,,,,,,,,0,0,0,1,,,,,,,,,,,AMNE02.jpg,AMSA19.jpg,AMSA06.jpg,AMNE13.jpg,AMNE13.jpg,MN,1,num_4,32,num_2,0.800121496315,,,2017_Oct_10_1232,60.0024826269,FEMA4ImagesEEG,001,101965,
AFNE01.JPG,AFNE01.JPG,AFNE01.JPG,AFNE01.JPG,AFNE01.JPG,AFNE01.JPG,,,,,,,,,,,,,0,1,1,5,,,,,,,,,,,AMNE03.jpg,AMSA19.jpg,AMSA10.jpg,AMNE11.jpg,AMSA19.jpg,MS,2,num_6,16,num_6,0.533533860114,,,2017_Oct_10_1232,60.0024826269,FEMA4ImagesEEG,001,101965,
AFNE01.JPG,AFNE01.JPG,AFNE01.JPG,AFNE01.JPG,AFNE01.JPG,AFNE01.JPG,,,,,,,,,,,,,0,2,2,0,,,,,,,,,,,AMSA16.jpg,AMNE16.jpg,AMSA07.jpg,AMNE17.jpg,AMNE16.jpg,MN,1,num_6,32,num_4,1.13344296231,,,2017_Oct_10_1232,60.0024826269,FEMA4ImagesEEG,001,101965,
AFNE01.JPG,AFNE01.JPG,AFNE01.JPG,AFNE01.JPG,AFNE01.JPG,AFNE01.JPG,,,,,,,,,,,,,0,3,3,6,,,,,,,,,,,AMSA06.jpg,AMSA15.jpg,AMNE16.jpg,AMNE04.jpg,AMSA15.jpg,MS,2,num_6,16,num_6,0.400142536964,,,2017_Oct_10_1232,60.0024826269,FEMA4ImagesEEG,001,101965,
AFNE01.JPG,AFNE01.JPG,AFNE01.JPG,AFNE01.JPG,AFNE01.JPG,AFNE01.JPG,,,,,,,,,,,,,0,4,4,9,,,,,,,,,,,AMSA16.jpg,AMSA01.jpg,AMNE19.jpg,AMNE13.jpg,AMSA16.jpg,MS,2,num_8,32,num_2,0.816848734743,,,2017_Oct_10_1232,60.0024826269,FEMA4ImagesEEG,001,101965,
AFNE01.JPG,AFNE01.JPG,AFNE01.JPG,AFNE01.JPG,AFNE01.JPG,AFNE01.JPG,,,,,,,,,,,,,0,5,5,7,,,,,,,,,,,AMSA11.jpg,AMNE11.jpg,AMSA20.jpg,AMNE03.jpg,AMSA11.jpg,MS,2,num_8,16,num_8,0.850101145334,,,2017_Oct_10_1232,60.0024826269,FEMA4ImagesEEG,001,101965,
AFNE01.JPG,AFNE01.JPG,AFNE01.JPG,AFNE01.JPG,AFNE01.JPG,AFNE01.JPG,,,,,,,,,,,,,0,6,6,2,,,,,,,,,,,AMNE13.jpg,AMNE01.jpg,AMSA05.jpg,AMSA12.jpg,AMSA12.jpg,MS,2,num_4,16,num_4,0.750121319899,,,2017_Oct_10_1232,60.0024826269,FEMA4ImagesEEG,001,101965,
AFNE01.JPG,AFNE01.JPG,AFNE01.JPG,AFNE01.JPG,AFNE01.JPG,AFNE01.JPG,,,,,,,,,,,,,0,7,7,8,,,,,,,,,,,AMSA12.jpg,AMNE14.jpg,AMNE15.jpg,AMSA07.jpg,AMSA12.jpg,MS,2,num_8,32,num_4,0.683467033901,,,2017_Oct_10_1232,60.0024826269,FEMA4ImagesEEG,001,101965,
AFNE01.JPG,AFNE01.JPG,AFNE01.JPG,AFNE01.JPG,AFNE01.JPG,AFNE01.JPG,,,,,,,,,,,,,0,8,8,3,,,,,,,,,,,AMNE14.jpg,AMNE20.jpg,AMSA17.jpg,AMSA20.jpg,AMNE20.jpg,MN,1,num_6,32,num_4,0.600036756834,,,2017_Oct_10_1232,60.0024826269,FEMA4ImagesEEG,001,101965,
AFNE01.JPG,AFNE01.JPG,AFNE01.JPG,AFNE01.JPG,AFNE01.JPG,AFNE01.JPG,,,,,,,,,,,,,0,9,9,4,,,,,,,,,,,AMNE15.jpg,AMSA08.jpg,AMNE01.jpg,AMSA03.jpg,AMNE15.jpg,MN,1,num_8,16,num_8,0.600167939556,,,2017_Oct_10_1232,60.0024826269,FEMA4ImagesEEG,001,101965,
AFNE01.JPG,AFNE01.JPG,AFNE01.JPG,AFNE01.JPG,AFNE01.JPG,AFNE01.JPG,,,,,,,,,,,,,1,0,10,8,,,,,,,,,,,AMNE03.jpg,AMSA07.jpg,AMSA02.jpg,AMNE08.jpg,AMNE08.jpg,MN,1,num_4,32,num_2,0.800123420777,,,2017_Oct_10_1232,60.0024826269,FEMA4ImagesEEG,001,101965,
AFNE01.JPG,AFNE01.JPG,AFNE01.JPG,AFNE01.JPG,AFNE01.JPG,AFNE01.JPG,,,,,,,,,,,,,1,1,11,6,,,,,,,,,,,AMNE03.jpg,AMNE10.jpg,AMSA19.jpg,AMSA09.jpg,AMNE10.jpg,MN,1,num_6,16,num_6,0.816595991608,,,2017_Oct_10_1232,60.0024826269,FEMA4ImagesEEG,001,101965,
AFNE01.JPG,AFNE01.JPG,AFNE01.JPG,AFNE01.JPG,AFNE01.JPG,AFNE01.JPG,,,,,,,,,,,,,1,2,12,9,,,,,,,,,,,AMNE03.jpg,AMNE10.jpg,AMSA17.jpg,AMSA12.jpg,AMSA17.jpg,MS,2,num_2,32,num_4,0.900101001025,,,2017_Oct_10_1232,60.0024826269,FEMA4ImagesEEG,001,101965,
AFNE01.JPG,AFNE01.JPG,AFNE01.JPG,AFNE01.JPG,AFNE01.JPG,AFNE01.JPG,,,,,,,,,,,,,1,3,13,2,,,,,,,,,,,AMSA06.jpg,AMNE10.jpg,AMSA07.jpg,AMNE01.jpg,AMSA06.jpg,MS,2,num_8,16,num_8,0.816767587559,,,2017_Oct_10_1232,60.0024826269,FEMA4ImagesEEG,001,101965,
AFNE01.JPG,AFNE01.JPG,AFNE01.JPG,AFNE01.JPG,AFNE01.JPG,AFNE01.JPG,,,,,,,,,,,,,1,4,14,1,,,,,,,,,,,AMNE04.jpg,AMSA04.jpg,AMSA06.jpg,AMNE08.jpg,AMSA06.jpg,MS,2,num_2,32,num_6,0.700112483581,,,2017_Oct_10_1232,60.0024826269,FEMA4ImagesEEG,001,101965,
AFNE01.JPG,AFNE01.JPG,AFNE01.JPG,AFNE01.JPG,AFNE01.JPG,AFNE01.JPG,,,,,,,,,,,,,1,5,15,5,,,,,,,,,,,AMSA12.jpg,AMNE19.jpg,AMNE01.jpg,AMSA05.jpg,AMSA05.jpg,MS,2,num_4,32,num_8,0.883438231423,,,2017_Oct_10_1232,60.0024826269,FEMA4ImagesEEG,001,101965,
AFNE01.JPG,AFNE01.JPG,AFNE01.JPG,AFNE01.JPG,AFNE01.JPG,AFNE01.JPG,,,,,,,,,,,,,1,6,16,7,,,,,,,,,,,AMSA19.jpg,AMNE08.jpg,AMSA07.jpg,AMNE14.jpg,AMNE14.jpg,MN,1,num_4,16,num_4,1.71672457631,,,2017_Oct_10_1232,60.0024826269,FEMA4ImagesEEG,001,101965,
AFNE01.JPG,AFNE01.JPG,AFNE01.JPG,AFNE01.JPG,AFNE01.JPG,AFNE01.JPG,,,,,,,,,,,,,1,7,17,3,,,,,,,,,,,AMNE10.jpg,AMSA03.jpg,AMSA12.jpg,AMNE11.jpg,AMNE10.jpg,MN,1,num_8,16,num_8,0.716790328035,,,2017_Oct_10_1232,60.0024826269,FEMA4ImagesEEG,001,101965,
AFNE01.JPG,AFNE01.JPG,AFNE01.JPG,AFNE01.JPG,AFNE01.JPG,AFNE01.JPG,,,,,,,,,,,,,1,8,18,0,,,,,,,,,,,AMSA20.jpg,AMSA06.jpg,AMNE20.jpg,AMNE01.jpg,AMSA20.jpg,MS,2,num_8,32,num_2,1.05011147319,,,2017_Oct_10_1232,60.0024826269,FEMA4ImagesEEG,001,101965,
AFNE01.JPG,AFNE01.JPG,AFNE01.JPG,AFNE01.JPG,AFNE01.JPG,AFNE01.JPG,,,,,,,,,,,,,1,9,19,4,,,,,,,,,,,AMSA07.jpg,AMNE17.jpg,AMSA09.jpg,AMNE12.jpg,AMNE12.jpg,MN,1,num_4,16,num_4,1.16704882856,,,2017_Oct_10_1232,60.0024826269,FEMA4ImagesEEG,001,101965,
AFNE01.JPG,AFNE01.JPG,AFNE01.JPG,AFNE01.JPG,AFNE01.JPG,AFNE01.JPG,,,,,,,,,,,,,2,0,20,1,,,,,,,,,,,AMSA08.jpg,AMNE20.jpg,AMSA05.jpg,AMNE18.jpg,AMNE18.jpg,MN,1,num_4,32,num_2,1.38349035173,,,2017_Oct_10_1232,60.0024826269,FEMA4ImagesEEG,001,101965,
AFNE01.JPG,AFNE01.JPG,AFNE01.JPG,AFNE01.JPG,AFNE01.JPG,AFNE01.JPG,,,,,,,,,,,,,2,1,21,0,,,,,,,,,,,AMNE06.jpg,AMSA13.jpg,AMSA03.jpg,AMNE19.jpg,AMNE19.jpg,MN,1,num_4,16,num_4,0.916771147749,,,2017_Oct_10_1232,60.0024826269,FEMA4ImagesEEG,001,101965,
AFNE01.JPG,AFNE01.JPG,AFNE01.JPG,AFNE01.JPG,AFNE01.JPG,AFNE01.JPG,,,,,,,,,,,,,2,2,22,8,,,,,,,,,,,AMSA12.jpg,AMNE06.jpg,AMSA13.jpg,AMNE19.jpg,AMSA13.jpg,MS,2,num_2,16,num_2,1.8334149617,,,2017_Oct_10_1232,60.0024826269,FEMA4ImagesEEG,001,101965,
AFNE01.JPG,AFNE01.JPG,AFNE01.JPG,AFNE01.JPG,AFNE01.JPG,AFNE01.JPG,,,,,,,,,,,,,2,3,23,2,,,,,,,,,,,AMNE03.jpg,AMNE09.jpg,AMSA19.jpg,AMSA02.jpg,AMNE03.jpg,MN,1,num_8,32,num_6,0.633488988504,,,2017_Oct_10_1232,60.0024826269,FEMA4ImagesEEG,001,101965,
AFNE01.JPG,AFNE01.JPG,AFNE01.JPG,AFNE01.JPG,AFNE01.JPG,AFNE01.JPG,,,,,,,,,,,,,2,4,24,4,,,,,,,,,,,AMSA20.jpg,AMSA17.jpg,AMNE10.jpg,AMNE17.jpg,AMSA20.jpg,MS,2,num_8,32,num_6,0.533503710525,,,2017_Oct_10_1232,60.0024826269,FEMA4ImagesEEG,001,101965,
AFNE01.JPG,AFNE01.JPG,AFNE01.JPG,AFNE01.JPG,AFNE01.JPG,AFNE01.JPG,,,,,,,,,,,,,2,5,25,7,,,,,,,,,,,AMNE02.jpg,AMSA04.jpg,AMSA13.jpg,AMNE17.jpg,AMSA13.jpg,MS,2,num_2,32,num_4,1.30010433681,,,2017_Oct_10_1232,60.0024826269,FEMA4ImagesEEG,001,101965,
AFNE01.JPG,AFNE01.JPG,AFNE01.JPG,AFNE01.JPG,AFNE01.JPG,AFNE01.JPG,,,,,,,,,,,,,2,6,26,6,,,,,,,,,,,AMSA13.jpg,AMSA19.jpg,AMNE19.jpg,AMNE09.jpg,AMSA19.jpg,MS,2,num_6,32,num_8,0.883454909781,,,2017_Oct_10_1232,60.0024826269,FEMA4ImagesEEG,001,101965,
AFNE01.JPG,AFNE01.JPG,AFNE01.JPG,AFNE01.JPG,AFNE01.JPG,AFNE01.JPG,,,,,,,,,,,,,2,7,27,5,,,,,,,,,,,AMNE14.jpg,AMSA18.jpg,AMNE04.jpg,AMSA15.jpg,AMNE14.jpg,MN,1,num_8,32,num_2,0.983450451633,,,2017_Oct_10_1232,60.0024826269,FEMA4ImagesEEG,001,101965,
AFNE01.JPG,AFNE01.JPG,AFNE01.JPG,AFNE01.JPG,AFNE01.JPG,AFNE01.JPG,,,,,,,,,,,,,2,8,28,3,,,,,,,,,,,AMNE03.jpg,AMSA04.jpg,AMNE01.jpg,AMSA03.jpg,AMNE03.jpg,MN,1,num_8,16,num_8,0.950133251492,,,2017_Oct_10_1232,60.0024826269,FEMA4ImagesEEG,001,101965,
AFNE01.JPG,AFNE01.JPG,AFNE01.JPG,AFNE01.JPG,AFNE01.JPG,AFNE01.JPG,,,,,,,,,,,,,2,9,29,9,,,,,,,,,,,AMNE11.jpg,AMSA07.jpg,AMSA08.jpg,AMNE12.jpg,AMNE11.jpg,MN,1,num_8,32,num_6,4.66655921878,,,2017_Oct_10_1232,60.0024826269,FEMA4ImagesEEG,001,101965,
AFNE01.JPG,AFNE01.JPG,AFNE01.JPG,AFNE01.JPG,AFNE01.JPG,AFNE01.JPG,,,,,,,,,,,,,3,0,30,7,,,,,,,,,,,AMNE09.jpg,AMSA12.jpg,AMSA14.jpg,AMNE05.jpg,AMNE05.jpg,MN,1,num_4,32,num_6,0.95008321607,,,2017_Oct_10_1232,60.0024826269,FEMA4ImagesEEG,001,101965,
AFNE01.JPG,AFNE01.JPG,AFNE01.JPG,AFNE01.JPG,AFNE01.JPG,AFNE01.JPG,,,,,,,,,,,,,3,1,31,6,,,,,,,,,,,AMSA12.jpg,AMSA06.jpg,AMNE05.jpg,AMNE11.jpg,AMSA06.jpg,MS,2,num_6,32,num_4,0.85015182232,,,2017_Oct_10_1232,60.0024826269,FEMA4ImagesEEG,001,101965,
AFNE01.JPG,AFNE01.JPG,AFNE01.JPG,AFNE01.JPG,AFNE01.JPG,AFNE01.JPG,,,,,,,,,,,,,3,2,32,3,,,,,,,,,,,AMNE09.jpg,AMSA05.jpg,AMNE16.jpg,AMSA11.jpg,AMSA11.jpg,MS,2,num_4,32,num_6,0.616801521857,,,2017_Oct_10_1232,60.0024826269,FEMA4ImagesEEG,001,101965,
AFNE01.JPG,AFNE01.JPG,AFNE01.JPG,AFNE01.JPG,AFNE01.JPG,AFNE01.JPG,,,,,,,,,,,,,3,3,33,5,,,,,,,,,,,AMNE01.jpg,AMSA01.jpg,AMNE04.jpg,AMSA12.jpg,AMNE01.jpg,MN,1,num_8,16,num_8,1.21672088781,,,2017_Oct_10_1232,60.0024826269,FEMA4ImagesEEG,001,101965,
AFNE01.JPG,AFNE01.JPG,AFNE01.JPG,AFNE01.JPG,AFNE01.JPG,AFNE01.JPG,,,,,,,,,,,,,3,4,34,0,,,,,,,,,,,AMSA20.jpg,AMNE20.jpg,AMSA16.jpg,AMNE16.jpg,AMSA16.jpg,MS,2,num_2,16,num_2,0.800168003771,,,2017_Oct_10_1232,60.0024826269,FEMA4ImagesEEG,001,101965,
AFNE01.JPG,AFNE01.JPG,AFNE01.JPG,AFNE01.JPG,AFNE01.JPG,AFNE01.JPG,,,,,,,,,,,,,3,5,35,1,,,,,,,,,,,AMSA04.jpg,AMSA06.jpg,AMNE03.jpg,AMNE11.jpg,AMSA06.jpg,MS,2,num_6,16,num_6,1.33343693241,,,2017_Oct_10_1232,60.0024826269,FEMA4ImagesEEG,001,101965,
AFNE01.JPG,AFNE01.JPG,AFNE01.JPG,AFNE01.JPG,AFNE01.JPG,AFNE01.JPG,,,,,,,,,,,,,3,6,36,2,,,,,,,,,,,AMNE01.jpg,AMSA11.jpg,AMSA10.jpg,AMNE10.jpg,AMSA11.jpg,MS,2,num_6,32,num_2,1.00013022043,,,2017_Oct_10_1232,60.0024826269,FEMA4ImagesEEG,001,101965,
AFNE01.JPG,AFNE01.JPG,AFNE01.JPG,AFNE01.JPG,AFNE01.JPG,AFNE01.JPG,,,,,,,,,,,,,3,7,37,9,,,,,,,,,,,AMNE18.jpg,AMNE15.jpg,AMSA19.jpg,AMSA02.jpg,AMSA02.jpg,MS,2,num_4,32,num_8,1.03344806214,,,2017_Oct_10_1232,60.0024826269,FEMA4ImagesEEG,001,101965,
AFNE01.JPG,AFNE01.JPG,AFNE01.JPG,AFNE01.JPG,AFNE01.JPG,AFNE01.JPG,,,,,,,,,,,,,3,8,38,4,,,,,,,,,,,AMSA20.jpg,AMNE10.jpg,AMNE19.jpg,AMSA12.jpg,AMNE10.jpg,MN,1,num_6,16,num_6,0.816663667676,,,2017_Oct_10_1232,60.0024826269,FEMA4ImagesEEG,001,101965,
AFNE01.JPG,AFNE01.JPG,AFNE01.JPG,AFNE01.JPG,AFNE01.JPG,AFNE01.JPG,,,,,,,,,,,,,3,9,39,8,,,,,,,,,,,AMNE01.jpg,AMSA06.jpg,AMSA12.jpg,AMNE08.jpg,AMNE08.jpg,MN,1,num_4,16,num_4,0.33362264093,,,2017_Oct_10_1232,60.0024826269,FEMA4ImagesEEG,001,101965,
AFNE01.JPG,AFNE01.JPG,AFNE01.JPG,AFNE01.JPG,AFNE01.JPG,AFNE01.JPG,,,,,,,,,,,,,4,0,40,5,,,,,,,,,,,AMSA06.jpg,AMSA12.jpg,AMNE18.jpg,AMNE13.jpg,AMSA12.jpg,MS,2,num_6,32,num_8,1.15017629473,,,2017_Oct_10_1232,60.0024826269,FEMA4ImagesEEG,001,101965,
AFNE01.JPG,AFNE01.JPG,AFNE01.JPG,AFNE01.JPG,AFNE01.JPG,AFNE01.JPG,,,,,,,,,,,,,4,1,41,1,,,,,,,,,,,AMNE15.jpg,AMSA15.jpg,AMSA03.jpg,AMNE09.jpg,AMSA03.jpg,MS,2,num_2,16,num_2,0.90015231946,,,2017_Oct_10_1232,60.0024826269,FEMA4ImagesEEG,001,101965,
AFNE01.JPG,AFNE01.JPG,AFNE01.JPG,AFNE01.JPG,AFNE01.JPG,AFNE01.JPG,,,,,,,,,,,,,4,2,42,0,,,,,,,,,,,AMSA03.jpg,AMNE05.jpg,AMNE04.jpg,AMSA18.jpg,AMNE04.jpg,MN,1,num_2,32,num_4,0.900129867718,,,2017_Oct_10_1232,60.0024826269,FEMA4ImagesEEG,001,101965,
AFNE01.JPG,AFNE01.JPG,AFNE01.JPG,AFNE01.JPG,AFNE01.JPG,AFNE01.JPG,,,,,,,,,,,,,4,3,43,4,,,,,,,,,,,AMNE08.jpg,AMSA08.jpg,AMSA12.jpg,AMNE07.jpg,AMSA12.jpg,MS,2,num_2,16,num_2,1.35010579613,,,2017_Oct_10_1232,60.0024826269,FEMA4ImagesEEG,001,101965,
AFNE01.JPG,AFNE01.JPG,AFNE01.JPG,AFNE01.JPG,AFNE01.JPG,AFNE01.JPG,,,,,,,,,,,,,4,4,44,9,,,,,,,,,,,AMNE04.jpg,AMSA15.jpg,AMSA13.jpg,AMNE08.jpg,AMSA13.jpg,MS,2,num_2,32,num_8,0.866785725346,,,2017_Oct_10_1232,60.0024826269,FEMA4ImagesEEG,001,101965,
AFNE01.JPG,AFNE01.JPG,AFNE01.JPG,AFNE01.JPG,AFNE01.JPG,AFNE01.JPG,,,,,,,,,,,,,4,5,45,2,,,,,,,,,,,AMNE19.jpg,AMSA02.jpg,AMNE11.jpg,AMSA03.jpg,AMNE19.jpg,MN,1,num_8,32,num_2,0.900122490595,,,2017_Oct_10_1232,60.0024826269,FEMA4ImagesEEG,001,101965,
AFNE01.JPG,AFNE01.JPG,AFNE01.JPG,AFNE01.JPG,AFNE01.JPG,AFNE01.JPG,,,,,,,,,,,,,4,6,46,8,,,,,,,,,,,AMNE03.jpg,AMNE08.jpg,AMSA01.jpg,AMSA13.jpg,AMNE08.jpg,MN,1,num_6,32,num_8,0.81673230615,,,2017_Oct_10_1232,60.0024826269,FEMA4ImagesEEG,001,101965,
AFNE01.JPG,AFNE01.JPG,AFNE01.JPG,AFNE01.JPG,AFNE01.JPG,AFNE01.JPG,,,,,,,,,,,,,4,7,47,6,,,,,,,,,,,AMNE14.jpg,AMSA04.jpg,AMSA20.jpg,AMNE08.jpg,AMSA20.jpg,MS,2,num_2,16,num_2,1.70006244816,,,2017_Oct_10_1232,60.0024826269,FEMA4ImagesEEG,001,101965,
AFNE01.JPG,AFNE01.JPG,AFNE01.JPG,AFNE01.JPG,AFNE01.JPG,AFNE01.JPG,,,,,,,,,,,,,4,8,48,3,,,,,,,,,,,AMNE03.jpg,AMNE01.jpg,AMSA14.jpg,AMSA10.jpg,AMNE03.jpg,MN,1,num_8,32,num_4,0.700149368611,,,2017_Oct_10_1232,60.0024826269,FEMA4ImagesEEG,001,101965,
AFNE01.JPG,AFNE01.JPG,AFNE01.JPG,AFNE01.JPG,AFNE01.JPG,AFNE01.JPG,,,,,,,,,,,,,4,9,49,7,,,,,,,,,,,AMNE17.jpg,AMSA11.jpg,AMSA01.jpg,AMNE16.jpg,AMSA01.jpg,MS,2,num_2,32,num_6,0.716813421343,,,2017_Oct_10_1232,60.0024826269,FEMA4ImagesEEG,001,101965,
AFNE01.JPG,AFNE01.JPG,AFNE01.JPG,AFNE01.JPG,AFNE01.JPG,AFNE01.JPG,,,,,,,,,,,,,5,0,50,7,,,,,,,,,,,AMNE07.jpg,AMNE01.jpg,AMSA08.jpg,AMSA04.jpg,AMNE07.jpg,MN,1,num_8,16,num_8,0.650156890042,,,2017_Oct_10_1232,60.0024826269,FEMA4ImagesEEG,001,101965,
AFNE01.JPG,AFNE01.JPG,AFNE01.JPG,AFNE01.JPG,AFNE01.JPG,AFNE01.JPG,,,,,,,,,,,,,5,1,51,1,,,,,,,,,,,AMNE05.jpg,AMNE01.jpg,AMSA16.jpg,AMSA04.jpg,AMSA16.jpg,MS,2,num_2,16,num_2,0.850118144648,,,2017_Oct_10_1232,60.0024826269,FEMA4ImagesEEG,001,101965,
AFNE01.JPG,AFNE01.JPG,AFNE01.JPG,AFNE01.JPG,AFNE01.JPG,AFNE01.JPG,,,,,,,,,,,,,5,2,52,4,,,,,,,,,,,AMNE14.jpg,AMNE03.jpg,AMSA17.jpg,AMSA08.jpg,AMNE14.jpg,MN,1,num_8,32,num_6,1.6503602392,,,2017_Oct_10_1232,60.0024826269,FEMA4ImagesEEG,001,101965,
AFNE01.JPG,AFNE01.JPG,AFNE01.JPG,AFNE01.JPG,AFNE01.JPG,AFNE01.JPG,,,,,,,,,,,,,5,3,53,9,,,,,,,,,,,AMSA17.jpg,AMNE07.jpg,AMSA11.jpg,AMNE09.jpg,AMNE09.jpg,MN,1,num_4,32,num_2,0.916813485441,,,2017_Oct_10_1232,60.0024826269,FEMA4ImagesEEG,001,101965,
AFNE01.JPG,AFNE01.JPG,AFNE01.JPG,AFNE01.JPG,AFNE01.JPG,AFNE01.JPG,,,,,,,,,,,,,5,4,54,6,,,,,,,,,,,AMNE17.jpg,AMSA04.jpg,AMNE02.jpg,AMSA02.jpg,AMSA02.jpg,MS,2,num_4,16,num_4,1.00017384114,,,2017_Oct_10_1232,60.0024826269,FEMA4ImagesEEG,001,101965,
AFNE01.JPG,AFNE01.JPG,AFNE01.JPG,AFNE01.JPG,AFNE01.JPG,AFNE01.JPG,,,,,,,,,,,,,5,5,55,8,,,,,,,,,,,AMNE07.jpg,AMSA18.jpg,AMSA17.jpg,AMNE10.jpg,AMSA18.jpg,MS,2,num_6,16,num_6,0.683331039967,,,2017_Oct_10_1232,60.0024826269,FEMA4ImagesEEG,001,101965,
AFNE01.JPG,AFNE01.JPG,AFNE01.JPG,AFNE01.JPG,AFNE01.JPG,AFNE01.JPG,,,,,,,,,,,,,5,6,56,3,,,,,,,,,,,AMNE09.jpg,AMSA15.jpg,AMSA06.jpg,AMNE04.jpg,AMNE09.jpg,MN,1,num_8,32,num_4,0.800126307528,,,2017_Oct_10_1232,60.0024826269,FEMA4ImagesEEG,001,101965,
AFNE01.JPG,AFNE01.JPG,AFNE01.JPG,AFNE01.JPG,AFNE01.JPG,AFNE01.JPG,,,,,,,,,,,,,5,7,57,2,,,,,,,,,,,AMSA11.jpg,AMNE18.jpg,AMSA04.jpg,AMNE04.jpg,AMNE18.jpg,MN,1,num_6,32,num_8,0.866762952879,,,2017_Oct_10_1232,60.0024826269,FEMA4ImagesEEG,001,101965,
AFNE01.JPG,AFNE01.JPG,AFNE01.JPG,AFNE01.JPG,AFNE01.JPG,AFNE01.JPG,,,,,,,,,,,,,5,8,58,0,,,,,,,,,,,AMNE19.jpg,AMSA19.jpg,AMSA07.jpg,AMNE17.jpg,AMSA07.jpg,MS,2,num_2,16,num_2,1.56708006852,,,2017_Oct_10_1232,60.0024826269,FEMA4ImagesEEG,001,101965,
AFNE01.JPG,AFNE01.JPG,AFNE01.JPG,AFNE01.JPG,AFNE01.JPG,AFNE01.JPG,,,,,,,,,,,,,5,9,59,5,,,,,,,,,,,AMNE09.jpg,AMSA18.jpg,AMNE19.jpg,AMSA14.jpg,AMSA14.jpg,MS,2,num_4,16,num_4,0.550181875704,,,2017_Oct_10_1232,60.0024826269,FEMA4ImagesEEG,001,101965,
,,,,,,,,,,,,,,,,,,,,,,,,,,,,,,,,,,,,,,,,,,,space,73.5612329763,2017_Oct_10_1232,60.0024826269,FEMA4ImagesEEG,001,101965,
AFNE01.JPG,AFNE01.JPG,AFNE01.JPG,AFNE01.JPG,AFNE01.JPG,AFNE01.JPG,,,,,,,,,,,,,,,,,0,0,0,6,,,,,,,AFNE07.jpg,AFSA19.jpg,AFNE06.jpg,AFSA06.jpg,AFNE07.jpg,FN,3,num_8,16,num_8,1.01675097318,,,2017_Oct_10_1232,60.0024826269,FEMA4ImagesEEG,001,101965,
AFNE01.JPG,AFNE01.JPG,AFNE01.JPG,AFNE01.JPG,AFNE01.JPG,AFNE01.JPG,,,,,,,,,,,,,,,,,0,1,1,5,,,,,,,AFSA03.jpg,AFSA08.jpg,AFNE12.jpg,AFNE15.jpg,AFSA08.jpg,FS,4,num_6,32,num_2,2.1166310485,,,2017_Oct_10_1232,60.0024826269,FEMA4ImagesEEG,001,101965,
AFNE01.JPG,AFNE01.JPG,AFNE01.JPG,AFNE01.JPG,AFNE01.JPG,AFNE01.JPG,,,,,,,,,,,,,,,,,0,2,2,3,,,,,,,AFSA15.jpg,AFSA12.jpg,AFNE10.jpg,AFNE06.jpg,AFNE06.jpg,FN,3,num_4,32,num_8,1.36672719033,,,2017_Oct_10_1232,60.0024826269,FEMA4ImagesEEG,001,101965,
AFNE01.JPG,AFNE01.JPG,AFNE01.JPG,AFNE01.JPG,AFNE01.JPG,AFNE01.JPG,,,,,,,,,,,,,,,,,0,3,3,2,,,,,,,AFNE03.jpg,AFNE04.jpg,AFSA10.jpg,AFSA12.jpg,AFSA10.jpg,FS,4,num_2,16,num_2,1.66655921878,,,2017_Oct_10_1232,60.0024826269,FEMA4ImagesEEG,001,101965,
AFNE01.JPG,AFNE01.JPG,AFNE01.JPG,AFNE01.JPG,AFNE01.JPG,AFNE01.JPG,,,,,,,,,,,,,,,,,0,4,4,0,,,,,,,AFNE02.jpg,AFSA15.jpg,AFNE12.jpg,AFSA18.jpg,AFNE02.jpg,FN,3,num_8,16,num_8,1.13343173638,,,2017_Oct_10_1232,60.0024826269,FEMA4ImagesEEG,001,101965,
AFNE01.JPG,AFNE01.JPG,AFNE01.JPG,AFNE01.JPG,AFNE01.JPG,AFNE01.JPG,,,,,,,,,,,,,,,,,0,5,5,9,,,,,,,AFNE18.jpg,AFSA06.jpg,AFSA10.jpg,AFNE15.jpg,AFNE15.jpg,FN,3,num_4,32,num_2,1.89970296249,,,2017_Oct_10_1232,60.0024826269,FEMA4ImagesEEG,001,101965,
AFNE01.JPG,AFNE01.JPG,AFNE01.JPG,AFNE01.JPG,AFNE01.JPG,AFNE01.JPG,,,,,,,,,,,,,,,,,0,6,6,7,,,,,,,AFSA08.jpg,AFNE02.jpg,AFNE11.jpg,AFSA09.jpg,AFSA09.jpg,FS,4,num_4,16,num_4,1.60006722715,,,2017_Oct_10_1232,60.0024826269,FEMA4ImagesEEG,001,101965,
AFNE01.JPG,AFNE01.JPG,AFNE01.JPG,AFNE01.JPG,AFNE01.JPG,AFNE01.JPG,,,,,,,,,,,,,,,,,0,7,7,1,,,,,,,AFSA15.jpg,AFNE05.jpg,AFSA11.jpg,AFNE15.jpg,AFSA11.jpg,FS,4,num_2,32,num_8,2.53334718931,,,2017_Oct_10_1232,60.0024826269,FEMA4ImagesEEG,001,101965,
AFNE01.JPG,AFNE01.JPG,AFNE01.JPG,AFNE01.JPG,AFNE01.JPG,AFNE01.JPG,,,,,,,,,,,,,,,,,0,8,8,8,,,,,,,AFSA14.jpg,AFNE08.jpg,AFNE09.jpg,AFSA16.jpg,AFSA16.jpg,FS,4,num_4,32,num_6,1.30012229818,,,2017_Oct_10_1232,60.0024826269,FEMA4ImagesEEG,001,101965,
AFNE01.JPG,AFNE01.JPG,AFNE01.JPG,AFNE01.JPG,AFNE01.JPG,AFNE01.JPG,,,,,,,,,,,,,,,,,0,9,9,4,,,,,,,AFSA04.jpg,AFNE03.jpg,AFSA06.jpg,AFNE19.jpg,AFNE19.jpg,FN,3,num_4,16,num_4,0.68343752576,,,2017_Oct_10_1232,60.0024826269,FEMA4ImagesEEG,001,101965,
AFNE01.JPG,AFNE01.JPG,AFNE01.JPG,AFNE01.JPG,AFNE01.JPG,AFNE01.JPG,,,,,,,,,,,,,,,,,1,0,10,4,,,,,,,AFSA19.jpg,AFSA03.jpg,AFNE20.jpg,AFNE06.jpg,AFSA19.jpg,FS,4,num_8,16,num_8,0.983476752299,,,2017_Oct_10_1232,60.0024826269,FEMA4ImagesEEG,001,101965,
AFNE01.JPG,AFNE01.JPG,AFNE01.JPG,AFNE01.JPG,AFNE01.JPG,AFNE01.JPG,,,,,,,,,,,,,,,,,1,1,11,0,,,,,,,AFSA01.jpg,AFSA03.jpg,AFNE17.jpg,AFNE20.jpg,AFSA01.jpg,FS,4,num_8,32,num_2,1.11679526733,,,2017_Oct_10_1232,60.0024826269,FEMA4ImagesEEG,001,101965,
AFNE01.JPG,AFNE01.JPG,AFNE01.JPG,AFNE01.JPG,AFNE01.JPG,AFNE01.JPG,,,,,,,,,,,,,,,,,1,2,12,8,,,,,,,AFNE08.jpg,AFSA10.jpg,AFNE16.jpg,AFSA18.jpg,AFSA18.jpg,FS,4,num_4,16,num_4,0.883461966179,,,2017_Oct_10_1232,60.0024826269,FEMA4ImagesEEG,001,101965,
AFNE01.JPG,AFNE01.JPG,AFNE01.JPG,AFNE01.JPG,AFNE01.JPG,AFNE01.JPG,,,,,,,,,,,,,,,,,1,3,13,7,,,,,,,AFSA19.jpg,AFSA17.jpg,AFNE10.jpg,AFNE01.jpg,AFSA17.jpg,FS,4,num_6,32,num_8,0.733488699887,,,2017_Oct_10_1232,60.0024826269,FEMA4ImagesEEG,001,101965,
AFNE01.JPG,AFNE01.JPG,AFNE01.JPG,AFNE01.JPG,AFNE01.JPG,AFNE01.JPG,,,,,,,,,,,,,,,,,1,4,14,1,,,,,,,AFSA07.jpg,AFNE07.jpg,AFSA10.jpg,AFNE05.jpg,AFNE07.jpg,FN,3,num_6,16,num_6,0.566802628455,,,2017_Oct_10_1232,60.0024826269,FEMA4ImagesEEG,001,101965,
AFNE01.JPG,AFNE01.JPG,AFNE01.JPG,AFNE01.JPG,AFNE01.JPG,AFNE01.JPG,,,,,,,,,,,,,,,,,1,5,15,5,,,,,,,AFSA18.jpg,AFSA07.jpg,AFNE17.jpg,AFNE06.jpg,AFSA18.jpg,FS,4,num_8,16,num_8,0.500163417077,,,2017_Oct_10_1232,60.0024826269,FEMA4ImagesEEG,001,101965,
AFNE01.JPG,AFNE01.JPG,AFNE01.JPG,AFNE01.JPG,AFNE01.JPG,AFNE01.JPG,,,,,,,,,,,,,,,,,1,6,16,6,,,,,,,AFSA02.jpg,AFNE05.jpg,AFNE09.jpg,AFSA13.jpg,AFSA02.jpg,FS,4,num_8,32,num_2,0.666808113107,,,2017_Oct_10_1232,60.0024826269,FEMA4ImagesEEG,001,101965,
AFNE01.JPG,AFNE01.JPG,AFNE01.JPG,AFNE01.JPG,AFNE01.JPG,AFNE01.JPG,,,,,,,,,,,,,,,,,1,7,17,2,,,,,,,AFSA20.jpg,AFNE10.jpg,AFSA06.jpg,AFNE16.jpg,AFSA20.jpg,FS,4,num_8,32,num_4,0.666831527138,,,2017_Oct_10_1232,60.0024826269,FEMA4ImagesEEG,001,101965,
AFNE01.JPG,AFNE01.JPG,AFNE01.JPG,AFNE01.JPG,AFNE01.JPG,AFNE01.JPG,,,,,,,,,,,,,,,,,1,8,18,9,,,,,,,AFNE19.jpg,AFSA03.jpg,AFSA01.jpg,AFNE20.jpg,AFSA01.jpg,FS,4,num_2,32,num_6,0.616808578139,,,2017_Oct_10_1232,60.0024826269,FEMA4ImagesEEG,001,101965,
AFNE01.JPG,AFNE01.JPG,AFNE01.JPG,AFNE01.JPG,AFNE01.JPG,AFNE01.JPG,,,,,,,,,,,,,,,,,1,9,19,3,,,,,,,AFSA11.jpg,AFNE20.jpg,AFSA07.jpg,AFNE12.jpg,AFNE12.jpg,FN,3,num_4,32,num_8,0.700122426497,,,2017_Oct_10_1232,60.0024826269,FEMA4ImagesEEG,001,101965,
AFNE01.JPG,AFNE01.JPG,AFNE01.JPG,AFNE01.JPG,AFNE01.JPG,AFNE01.JPG,,,,,,,,,,,,,,,,,2,0,20,9,,,,,,,AFNE15.jpg,AFSA15.jpg,AFNE05.jpg,AFSA20.jpg,AFSA20.jpg,FS,4,num_4,32,num_2,0.750146979233,,,2017_Oct_10_1232,60.0024826269,FEMA4ImagesEEG,001,101965,
AFNE01.JPG,AFNE01.JPG,AFNE01.JPG,AFNE01.JPG,AFNE01.JPG,AFNE01.JPG,,,,,,,,,,,,,,,,,2,1,21,5,,,,,,,AFSA15.jpg,AFNE14.jpg,AFNE08.jpg,AFSA09.jpg,AFSA09.jpg,FS,4,num_4,16,num_4,0.750166865066,,,2017_Oct_10_1232,60.0024826269,FEMA4ImagesEEG,001,101965,
AFNE01.JPG,AFNE01.JPG,AFNE01.JPG,AFNE01.JPG,AFNE01.JPG,AFNE01.JPG,,,,,,,,,,,,,,,,,2,2,22,6,,,,,,,AFSA01.jpg,AFNE09.jpg,AFSA03.jpg,AFNE05.jpg,AFSA03.jpg,FS,4,num_2,32,num_6,1.01678465097,,,2017_Oct_10_1232,60.0024826269,FEMA4ImagesEEG,001,101965,
AFNE01.JPG,AFNE01.JPG,AFNE01.JPG,AFNE01.JPG,AFNE01.JPG,AFNE01.JPG,,,,,,,,,,,,,,,,,2,3,23,8,,,,,,,AFSA12.jpg,AFNE20.jpg,AFNE13.jpg,AFSA11.jpg,AFSA12.jpg,FS,4,num_8,32,num_2,0.683476014645,,,2017_Oct_10_1232,60.0024826269,FEMA4ImagesEEG,001,101965,
AFNE01.JPG,AFNE01.JPG,AFNE01.JPG,AFNE01.JPG,AFNE01.JPG,AFNE01.JPG,,,,,,,,,,,,,,,,,2,4,24,1,,,,,,,AFNE10.jpg,AFSA13.jpg,AFNE17.jpg,AFSA09.jpg,AFSA13.jpg,FS,4,num_6,32,num_4,1.20009788987,,,2017_Oct_10_1232,60.0024826269,FEMA4ImagesEEG,001,101965,
AFNE01.JPG,AFNE01.JPG,AFNE01.JPG,AFNE01.JPG,AFNE01.JPG,AFNE01.JPG,,,,,,,,,,,,,,,,,2,5,25,3,,,,,,,AFNE07.jpg,AFNE02.jpg,AFSA17.jpg,AFSA02.jpg,AFNE02.jpg,FN,3,num_6,32,num_2,0.750176166533,,,2017_Oct_10_1232,60.0024826269,FEMA4ImagesEEG,001,101965,
AFNE01.JPG,AFNE01.JPG,AFNE01.JPG,AFNE01.JPG,AFNE01.JPG,AFNE01.JPG,,,,,,,,,,,,,,,,,2,6,26,4,,,,,,,AFSA07.jpg,AFSA20.jpg,AFNE03.jpg,AFNE20.jpg,AFSA20.jpg,FS,4,num_6,32,num_8,0.800193983596,,,2017_Oct_10_1232,60.0024826269,FEMA4ImagesEEG,001,101965,
AFNE01.JPG,AFNE01.JPG,AFNE01.JPG,AFNE01.JPG,AFNE01.JPG,AFNE01.JPG,,,,,,,,,,,,,,,,,2,7,27,7,,,,,,,AFNE19.jpg,AFSA03.jpg,AFSA12.jpg,AFNE11.jpg,AFNE19.jpg,FN,3,num_8,32,num_6,0.800139778643,,,2017_Oct_10_1232,60.0024826269,FEMA4ImagesEEG,001,101965,
AFNE01.JPG,AFNE01.JPG,AFNE01.JPG,AFNE01.JPG,AFNE01.JPG,AFNE01.JPG,,,,,,,,,,,,,,,,,2,8,28,2,,,,,,,AFNE09.jpg,AFNE18.jpg,AFSA13.jpg,AFSA17.jpg,AFNE09.jpg,FN,3,num_8,16,num_8,0.650168115972,,,2017_Oct_10_1232,60.0024826269,FEMA4ImagesEEG,001,101965,
AFNE01.JPG,AFNE01.JPG,AFNE01.JPG,AFNE01.JPG,AFNE01.JPG,AFNE01.JPG,,,,,,,,,,,,,,,,,2,9,29,0,,,,,,,AFNE11.jpg,AFSA13.jpg,AFNE07.jpg,AFSA20.jpg,AFNE07.jpg,FN,3,num_2,16,num_2,0.883566527395,,,2017_Oct_10_1232,60.0024826269,FEMA4ImagesEEG,001,101965,
AFNE01.JPG,AFNE01.JPG,AFNE01.JPG,AFNE01.JPG,AFNE01.JPG,AFNE01.JPG,,,,,,,,,,,,,,,,,3,0,30,5,,,,,,,AFSA03.jpg,AFNE14.jpg,AFSA18.jpg,AFNE19.jpg,AFSA18.jpg,FS,4,num_2,32,num_6,2.13341698237,,,2017_Oct_10_1232,60.0024826269,FEMA4ImagesEEG,001,101965,
AFNE01.JPG,AFNE01.JPG,AFNE01.JPG,AFNE01.JPG,AFNE01.JPG,AFNE01.JPG,,,,,,,,,,,,,,,,,3,1,31,3,,,,,,,AFNE14.jpg,AFSA04.jpg,AFNE05.jpg,AFSA11.jpg,AFNE05.jpg,FN,3,num_2,32,num_4,0.783885311102,,,2017_Oct_10_1232,60.0024826269,FEMA4ImagesEEG,001,101965,
AFNE01.JPG,AFNE01.JPG,AFNE01.JPG,AFNE01.JPG,AFNE01.JPG,AFNE01.JPG,,,,,,,,,,,,,,,,,3,2,32,4,,,,,,,AFNE02.jpg,AFSA07.jpg,AFNE14.jpg,AFSA18.jpg,AFSA07.jpg,FS,4,num_6,32,num_2,0.983549239463,,,2017_Oct_10_1232,60.0024826269,FEMA4ImagesEEG,001,101965,
AFNE01.JPG,AFNE01.JPG,AFNE01.JPG,AFNE01.JPG,AFNE01.JPG,AFNE01.JPG,,,,,,,,,,,,,,,,,3,3,33,0,,,,,,,AFSA19.jpg,AFSA13.jpg,AFNE02.jpg,AFNE13.jpg,AFSA19.jpg,FS,4,num_8,16,num_8,2.00002533849,,,2017_Oct_10_1232,60.0024826269,FEMA4ImagesEEG,001,101965,
AFNE01.JPG,AFNE01.JPG,AFNE01.JPG,AFNE01.JPG,AFNE01.JPG,AFNE01.JPG,,,,,,,,,,,,,,,,,3,4,34,6,,,,,,,AFNE10.jpg,AFSA05.jpg,AFSA12.jpg,AFNE05.jpg,AFNE10.jpg,FN,3,num_8,32,num_4,1.00015395519,,,2017_Oct_10_1232,60.0024826269,FEMA4ImagesEEG,001,101965,
AFNE01.JPG,AFNE01.JPG,AFNE01.JPG,AFNE01.JPG,AFNE01.JPG,AFNE01.JPG,,,,,,,,,,,,,,,,,3,5,35,9,,,,,,,AFSA09.jpg,AFSA11.jpg,AFNE04.jpg,AFNE08.jpg,AFNE08.jpg,FN,3,num_4,32,num_2,1.26673998777,,,2017_Oct_10_1232,60.0024826269,FEMA4ImagesEEG,001,101965,
AFNE01.JPG,AFNE01.JPG,AFNE01.JPG,AFNE01.JPG,AFNE01.JPG,AFNE01.JPG,,,,,,,,,,,,,,,,,3,6,36,8,,,,,,,AFNE03.jpg,AFSA06.jpg,AFNE12.jpg,AFSA13.jpg,AFSA06.jpg,FS,4,num_6,32,num_4,0.833503165282,,,2017_Oct_10_1232,60.0024826269,FEMA4ImagesEEG,001,101965,
AFNE01.JPG,AFNE01.JPG,AFNE01.JPG,AFNE01.JPG,AFNE01.JPG,AFNE01.JPG,,,,,,,,,,,,,,,,,3,7,37,7,,,,,,,AFNE11.jpg,AFSA14.jpg,AFSA01.jpg,AFNE04.jpg,AFNE11.jpg,FN,3,num_8,16,num_8,1.18339855573,,,2017_Oct_10_1232,60.0024826269,FEMA4ImagesEEG,001,101965,
AFNE01.JPG,AFNE01.JPG,AFNE01.JPG,AFNE01.JPG,AFNE01.JPG,AFNE01.JPG,,,,,,,,,,,,,,,,,3,8,38,1,,,,,,,AFNE13.jpg,AFNE18.jpg,AFSA06.jpg,AFSA14.jpg,AFNE13.jpg,FN,3,num_8,32,num_2,0.999699787353,,,2017_Oct_10_1232,60.0024826269,FEMA4ImagesEEG,001,101965,
AFNE01.JPG,AFNE01.JPG,AFNE01.JPG,AFNE01.JPG,AFNE01.JPG,AFNE01.JPG,,,,,,,,,,,,,,,,,3,9,39,2,,,,,,,AFNE12.jpg,AFSA02.jpg,AFSA09.jpg,AFNE16.jpg,AFSA09.jpg,FS,4,num_2,32,num_8,0.850166576332,,,2017_Oct_10_1232,60.0024826269,FEMA4ImagesEEG,001,101965,
AFNE01.JPG,AFNE01.JPG,AFNE01.JPG,AFNE01.JPG,AFNE01.JPG,AFNE01.JPG,,,,,,,,,,,,,,,,,4,0,40,3,,,,,,,AFNE15.jpg,AFSA10.jpg,AFNE06.jpg,AFSA05.jpg,AFNE06.jpg,FN,3,num_2,16,num_2,0.983436659793,,,2017_Oct_10_1232,60.0024826269,FEMA4ImagesEEG,001,101965,
AFNE01.JPG,AFNE01.JPG,AFNE01.JPG,AFNE01.JPG,AFNE01.JPG,AFNE01.JPG,,,,,,,,,,,,,,,,,4,1,41,0,,,,,,,AFNE03.jpg,AFSA01.jpg,AFSA17.jpg,AFNE12.jpg,AFNE12.jpg,FN,3,num_4,16,num_4,0.833476223052,,,2017_Oct_10_1232,60.0024826269,FEMA4ImagesEEG,001,101965,
AFNE01.JPG,AFNE01.JPG,AFNE01.JPG,AFNE01.JPG,AFNE01.JPG,AFNE01.JPG,,,,,,,,,,,,,,,,,4,2,42,1,,,,,,,AFSA12.jpg,AFNE16.jpg,AFNE15.jpg,AFSA19.jpg,AFNE16.jpg,FN,3,num_6,32,num_2,2.45001986984,,,2017_Oct_10_1232,60.0024826269,FEMA4ImagesEEG,001,101965,
AFNE01.JPG,AFNE01.JPG,AFNE01.JPG,AFNE01.JPG,AFNE01.JPG,AFNE01.JPG,,,,,,,,,,,,,,,,,4,3,43,8,,,,,,,AFNE02.jpg,AFNE05.jpg,AFSA14.jpg,AFSA19.jpg,AFSA14.jpg,FS,4,num_2,32,num_6,0.883409685455,,,2017_Oct_10_1232,60.0024826269,FEMA4ImagesEEG,001,101965,
AFNE01.JPG,AFNE01.JPG,AFNE01.JPG,AFNE01.JPG,AFNE01.JPG,AFNE01.JPG,,,,,,,,,,,,,,,,,4,4,44,6,,,,,,,AFNE10.jpg,AFNE19.jpg,AFSA14.jpg,AFSA02.jpg,AFNE10.jpg,FN,3,num_8,32,num_2,0.816740645329,,,2017_Oct_10_1232,60.0024826269,FEMA4ImagesEEG,001,101965,
AFNE01.JPG,AFNE01.JPG,AFNE01.JPG,AFNE01.JPG,AFNE01.JPG,AFNE01.JPG,,,,,,,,,,,,,,,,,4,5,45,7,,,,,,,AFNE06.jpg,AFSA01.jpg,AFSA08.jpg,AFNE04.jpg,AFNE04.jpg,FN,3,num_4,32,num_8,0.783494970296,,,2017_Oct_10_1232,60.0024826269,FEMA4ImagesEEG,001,101965,
AFNE01.JPG,AFNE01.JPG,AFNE01.JPG,AFNE01.JPG,AFNE01.JPG,AFNE01.JPG,,,,,,,,,,,,,,,,,4,6,46,5,,,,,,,AFSA14.jpg,AFNE10.jpg,AFNE01.jpg,AFSA01.jpg,AFNE01.jpg,FN,3,num_2,16,num_2,0.633490592241,,,2017_Oct_10_1232,60.0024826269,FEMA4ImagesEEG,001,101965,
AFNE01.JPG,AFNE01.JPG,AFNE01.JPG,AFNE01.JPG,AFNE01.JPG,AFNE01.JPG,,,,,,,,,,,,,,,,,4,7,47,2,,,,,,,AFSA14.jpg,AFNE12.jpg,AFNE18.jpg,AFSA02.jpg,AFSA02.jpg,FS,4,num_4,16,num_4,0.550135689089,,,2017_Oct_10_1232,60.0024826269,FEMA4ImagesEEG,001,101965,
AFNE01.JPG,AFNE01.JPG,AFNE01.JPG,AFNE01.JPG,AFNE01.JPG,AFNE01.JPG,,,,,,,,,,,,,,,,,4,8,48,4,,,,,,,AFSA08.jpg,AFNE15.jpg,AFNE05.jpg,AFSA13.jpg,AFNE15.jpg,FN,3,num_6,16,num_6,0.766776391887,,,2017_Oct_10_1232,60.0024826269,FEMA4ImagesEEG,001,101965,
AFNE01.JPG,AFNE01.JPG,AFNE01.JPG,AFNE01.JPG,AFNE01.JPG,AFNE01.JPG,,,,,,,,,,,,,,,,,4,9,49,9,,,,,,,AFSA02.jpg,AFNE18.jpg,AFSA18.jpg,AFNE12.jpg,AFNE18.jpg,FN,3,num_6,32,num_8,1.46671631723,,,2017_Oct_10_1232,60.0024826269,FEMA4ImagesEEG,001,101965,
AFNE01.JPG,AFNE01.JPG,AFNE01.JPG,AFNE01.JPG,AFNE01.JPG,AFNE01.JPG,,,,,,,,,,,,,,,,,5,0,50,4,,,,,,,AFNE15.jpg,AFNE04.jpg,AFSA10.jpg,AFSA17.jpg,AFNE15.jpg,FN,3,num_8,32,num_6,0.583513829741,,,2017_Oct_10_1232,60.0024826269,FEMA4ImagesEEG,001,101965,
AFNE01.JPG,AFNE01.JPG,AFNE01.JPG,AFNE01.JPG,AFNE01.JPG,AFNE01.JPG,,,,,,,,,,,,,,,,,5,1,51,8,,,,,,,AFNE14.jpg,AFSA17.jpg,AFNE16.jpg,AFSA11.jpg,AFNE14.jpg,FN,3,num_8,32,num_2,0.700168292387,,,2017_Oct_10_1232,60.0024826269,FEMA4ImagesEEG,001,101965,
AFNE01.JPG,AFNE01.JPG,AFNE01.JPG,AFNE01.JPG,AFNE01.JPG,AFNE01.JPG,,,,,,,,,,,,,,,,,5,2,52,9,,,,,,,AFSA05.jpg,AFNE19.jpg,AFSA04.jpg,AFNE04.jpg,AFNE04.jpg,FN,3,num_4,16,num_4,0.550454184064,,,2017_Oct_10_1232,60.0024826269,FEMA4ImagesEEG,001,101965,
AFNE01.JPG,AFNE01.JPG,AFNE01.JPG,AFNE01.JPG,AFNE01.JPG,AFNE01.JPG,,,,,,,,,,,,,,,,,5,3,53,1,,,,,,,AFNE07.jpg,AFNE02.jpg,AFSA09.jpg,AFSA05.jpg,AFNE02.jpg,FN,3,num_6,32,num_8,0.833493863815,,,2017_Oct_10_1232,60.0024826269,FEMA4ImagesEEG,001,101965,
AFNE01.JPG,AFNE01.JPG,AFNE01.JPG,AFNE01.JPG,AFNE01.JPG,AFNE01.JPG,,,,,,,,,,,,,,,,,5,4,54,5,,,,,,,AFSA01.jpg,AFNE18.jpg,AFNE16.jpg,AFSA15.jpg,AFNE18.jpg,FN,3,num_6,32,num_2,2.61666424503,,,2017_Oct_10_1232,60.0024826269,FEMA4ImagesEEG,001,101965,
AFNE01.JPG,AFNE01.JPG,AFNE01.JPG,AFNE01.JPG,AFNE01.JPG,AFNE01.JPG,,,,,,,,,,,,,,,,,5,5,55,3,,,,,,,AFSA05.jpg,AFSA04.jpg,AFNE16.jpg,AFNE13.jpg,AFSA04.jpg,FS,4,num_6,16,num_6,0.600174995838,,,2017_Oct_10_1232,60.0024826269,FEMA4ImagesEEG,001,101965,
AFNE01.JPG,AFNE01.JPG,AFNE01.JPG,AFNE01.JPG,AFNE01.JPG,AFNE01.JPG,,,,,,,,,,,,,,,,,5,6,56,0,,,,,,,AFNE04.jpg,AFSA14.jpg,AFSA01.jpg,AFNE08.jpg,AFNE04.jpg,FN,3,num_8,32,num_4,1.41672608373,,,2017_Oct_10_1232,60.0024826269,FEMA4ImagesEEG,001,101965,
AFNE01.JPG,AFNE01.JPG,AFNE01.JPG,AFNE01.JPG,AFNE01.JPG,AFNE01.JPG,,,,,,,,,,,,,,,,,5,7,57,2,,,,,,,AFNE11.jpg,AFNE04.jpg,AFSA19.jpg,AFSA04.jpg,AFNE11.jpg,FN,3,num_8,16,num_8,0.816796454135,,,2017_Oct_10_1232,60.0024826269,FEMA4ImagesEEG,001,101965,
AFNE01.JPG,AFNE01.JPG,AFNE01.JPG,AFNE01.JPG,AFNE01.JPG,AFNE01.JPG,,,,,,,,,,,,,,,,,5,8,58,7,,,,,,,AFSA08.jpg,AFNE09.jpg,AFNE05.jpg,AFSA04.jpg,AFNE05.jpg,FN,3,num_2,32,num_6,0.950478367857,,,2017_Oct_10_1232,60.0024826269,FEMA4ImagesEEG,001,101965,
AFNE01.JPG,AFNE01.JPG,AFNE01.JPG,AFNE01.JPG,AFNE01.JPG,AFNE01.JPG,,,,,,,,,,,,,,,,,5,9,59,6,,,,,,,AFNE08.jpg,AFSA20.jpg,AFSA08.jpg,AFNE18.jpg,AFSA20.jpg,FS,4,num_6,16,num_6,1.25009004772,,,2017_Oct_10_1232,60.0024826269,FEMA4ImagesEEG,001,101965,
,,,,,,,,,,,,,,,,,,,,,,,,,,,,,,,,,,,,,,,,,,,space,39.713754202,2017_Oct_10_1232,60.0024826269,FEMA4ImagesEEG,001,101965,
AFNE01.JPG,AFNE01.JPG,AFNE01.JPG,AFNE01.JPG,AFNE01.JPG,AFNE01.JPG,,,,,,,,,,,,,,,,,,,,,0,0,0,0,,,AMNE03.jpg,AMNE20.jpg,AMSA05.jpg,AMSA03.jpg,AMSA03.jpg,MS,2,num_4,32,num_8,0.700135897612,,,2017_Oct_10_1232,60.0024826269,FEMA4ImagesEEG,001,101965,
AFNE01.JPG,AFNE01.JPG,AFNE01.JPG,AFNE01.JPG,AFNE01.JPG,AFNE01.JPG,,,,,,,,,,,,,,,,,,,,,0,1,1,2,,,AMNE19.jpg,AMSA17.jpg,AMNE16.jpg,AMSA10.jpg,AMSA17.jpg,MS,2,num_6,16,num_6,0.450182164321,,,2017_Oct_10_1232,60.0024826269,FEMA4ImagesEEG,001,101965,
AFNE01.JPG,AFNE01.JPG,AFNE01.JPG,AFNE01.JPG,AFNE01.JPG,AFNE01.JPG,,,,,,,,,,,,,,,,,,,,,0,2,2,8,,,AMSA03.jpg,AMNE06.jpg,AMNE19.jpg,AMSA19.jpg,AMNE19.jpg,MN,1,num_2,32,num_4,0.650018330314,,,2017_Oct_10_1232,60.0024826269,FEMA4ImagesEEG,001,101965,
AFNE01.JPG,AFNE01.JPG,AFNE01.JPG,AFNE01.JPG,AFNE01.JPG,AFNE01.JPG,,,,,,,,,,,,,,,,,,,,,0,3,3,6,,,AMSA03.jpg,AMNE02.jpg,AMSA04.jpg,AMNE14.jpg,AMNE02.jpg,MN,1,num_6,32,num_2,2.11672053498,,,2017_Oct_10_1232,60.0024826269,FEMA4ImagesEEG,001,101965,
AFNE01.JPG,AFNE01.JPG,AFNE01.JPG,AFNE01.JPG,AFNE01.JPG,AFNE01.JPG,,,,,,,,,,,,,,,,,,,,,0,4,4,1,,,AMNE15.jpg,AMSA10.jpg,AMSA02.jpg,AMNE11.jpg,AMNE11.jpg,MN,1,num_4,32,num_8,2.03342368582,,,2017_Oct_10_1232,60.0024826269,FEMA4ImagesEEG,001,101965,
AFNE01.JPG,AFNE01.JPG,AFNE01.JPG,AFNE01.JPG,AFNE01.JPG,AFNE01.JPG,,,,,,,,,,,,,,,,,,,,,0,5,5,3,,,AMNE18.jpg,AMSA06.jpg,AMSA10.jpg,AMNE14.jpg,AMSA06.jpg,MS,2,num_6,16,num_6,0.650130589376,,,2017_Oct_10_1232,60.0024826269,FEMA4ImagesEEG,001,101965,
AFNE01.JPG,AFNE01.JPG,AFNE01.JPG,AFNE01.JPG,AFNE01.JPG,AFNE01.JPG,,,,,,,,,,,,,,,,,,,,,0,6,6,5,,,AMSA18.jpg,AMSA20.jpg,AMNE08.jpg,AMNE11.jpg,AMSA18.jpg,MS,2,num_8,32,num_2,0.833458582405,,,2017_Oct_10_1232,60.0024826269,FEMA4ImagesEEG,001,101965,
AFNE01.JPG,AFNE01.JPG,AFNE01.JPG,AFNE01.JPG,AFNE01.JPG,AFNE01.JPG,,,,,,,,,,,,,,,,,,,,,0,7,7,9,,,AMNE01.jpg,AMSA07.jpg,AMNE03.jpg,AMSA01.jpg,AMNE01.jpg,MN,1,num_8,32,num_4,0.783463217085,,,2017_Oct_10_1232,60.0024826269,FEMA4ImagesEEG,001,101965,
AFNE01.JPG,AFNE01.JPG,AFNE01.JPG,AFNE01.JPG,AFNE01.JPG,AFNE01.JPG,,,,,,,,,,,,,,,,,,,,,0,8,8,4,,,AMSA06.jpg,AMNE10.jpg,AMSA08.jpg,AMNE05.jpg,AMSA06.jpg,MS,2,num_8,16,num_8,0.733573054429,,,2017_Oct_10_1232,60.0024826269,FEMA4ImagesEEG,001,101965,
AFNE01.JPG,AFNE01.JPG,AFNE01.JPG,AFNE01.JPG,AFNE01.JPG,AFNE01.JPG,,,,,,,,,,,,,,,,,,,,,0,9,9,7,,,AMNE15.jpg,AMSA19.jpg,AMNE09.jpg,AMSA07.jpg,AMNE09.jpg,MN,1,num_2,32,num_4,0.683472486446,,,2017_Oct_10_1232,60.0024826269,FEMA4ImagesEEG,001,101965,
AFNE01.JPG,AFNE01.JPG,AFNE01.JPG,AFNE01.JPG,AFNE01.JPG,AFNE01.JPG,,,,,,,,,,,,,,,,,,,,,1,0,10,5,,,AMSA03.jpg,AMNE20.jpg,AMSA16.jpg,AMNE15.jpg,AMNE15.jpg,MN,1,num_4,32,num_2,0.883457155083,,,2017_Oct_10_1232,60.0024826269,FEMA4ImagesEEG,001,101965,
AFNE01.JPG,AFNE01.JPG,AFNE01.JPG,AFNE01.JPG,AFNE01.JPG,AFNE01.JPG,,,,,,,,,,,,,,,,,,,,,1,1,11,7,,,AMNE20.jpg,AMSA04.jpg,AMSA06.jpg,AMNE03.jpg,AMNE03.jpg,MN,1,num_4,16,num_4,0.933518592734,,,2017_Oct_10_1232,60.0024826269,FEMA4ImagesEEG,001,101965,
AFNE01.JPG,AFNE01.JPG,AFNE01.JPG,AFNE01.JPG,AFNE01.JPG,AFNE01.JPG,,,,,,,,,,,,,,,,,,,,,1,2,12,3,,,AMSA13.jpg,AMNE06.jpg,AMNE15.jpg,AMSA06.jpg,AMNE06.jpg,MN,1,num_6,16,num_6,2.16667292116,,,2017_Oct_10_1232,60.0024826269,FEMA4ImagesEEG,001,101965,
AFNE01.JPG,AFNE01.JPG,AFNE01.JPG,AFNE01.JPG,AFNE01.JPG,AFNE01.JPG,,,,,,,,,,,,,,,,,,,,,1,3,13,1,,,AMNE19.jpg,AMSA10.jpg,AMNE20.jpg,AMSA12.jpg,AMNE19.jpg,MN,1,num_8,32,num_2,0.700208705617,,,2017_Oct_10_1232,60.0024826269,FEMA4ImagesEEG,001,101965,
AFNE01.JPG,AFNE01.JPG,AFNE01.JPG,AFNE01.JPG,AFNE01.JPG,AFNE01.JPG,,,,,,,,,,,,,,,,,,,,,1,4,14,0,,,AMSA06.jpg,AMNE16.jpg,AMSA12.jpg,AMNE11.jpg,AMSA12.jpg,MS,2,num_2,32,num_4,3.84988143842,,,2017_Oct_10_1232,60.0024826269,FEMA4ImagesEEG,001,101965,
AFNE01.JPG,AFNE01.JPG,AFNE01.JPG,AFNE01.JPG,AFNE01.JPG,AFNE01.JPG,,,,,,,,,,,,,,,,,,,,,1,5,15,9,,,AMNE19.jpg,AMSA10.jpg,AMNE02.jpg,AMSA09.jpg,AMSA09.jpg,MS,2,num_4,32,num_8,0.683562935214,,,2017_Oct_10_1232,60.0024826269,FEMA4ImagesEEG,001,101965,
AFNE01.JPG,AFNE01.JPG,AFNE01.JPG,AFNE01.JPG,AFNE01.JPG,AFNE01.JPG,,,,,,,,,,,,,,,,,,,,,1,6,16,4,,,AMNE20.jpg,AMSA04.jpg,AMSA06.jpg,AMNE18.jpg,AMSA04.jpg,MS,2,num_6,32,num_2,0.799964333768,,,2017_Oct_10_1232,60.0024826269,FEMA4ImagesEEG,001,101965,
AFNE01.JPG,AFNE01.JPG,AFNE01.JPG,AFNE01.JPG,AFNE01.JPG,AFNE01.JPG,,,,,,,,,,,,,,,,,,,,,1,7,17,6,,,AMSA01.jpg,AMSA10.jpg,AMNE17.jpg,AMNE11.jpg,AMSA01.jpg,MS,2,num_8,16,num_8,0.533485749038,,,2017_Oct_10_1232,60.0024826269,FEMA4ImagesEEG,001,101965,
AFNE01.JPG,AFNE01.JPG,AFNE01.JPG,AFNE01.JPG,AFNE01.JPG,AFNE01.JPG,,,,,,,,,,,,,,,,,,,,,1,8,18,2,,,AMSA12.jpg,AMNE07.jpg,AMNE11.jpg,AMSA07.jpg,AMNE11.jpg,MN,1,num_2,16,num_2,0.966757532326,,,2017_Oct_10_1232,60.0024826269,FEMA4ImagesEEG,001,101965,
AFNE01.JPG,AFNE01.JPG,AFNE01.JPG,AFNE01.JPG,AFNE01.JPG,AFNE01.JPG,,,,,,,,,,,,,,,,,,,,,1,9,19,8,,,AMSA02.jpg,AMSA17.jpg,AMNE06.jpg,AMNE02.jpg,AMNE02.jpg,MN,1,num_4,16,num_4,0.66675743612,,,2017_Oct_10_1232,60.0024826269,FEMA4ImagesEEG,001,101965,
AFNE01.JPG,AFNE01.JPG,AFNE01.JPG,AFNE01.JPG,AFNE01.JPG,AFNE01.JPG,,,,,,,,,,,,,,,,,,,,,2,0,20,7,,,AMNE10.jpg,AMSA01.jpg,AMNE07.jpg,AMSA10.jpg,AMSA10.jpg,MS,2,num_4,32,num_8,0.516778717167,,,2017_Oct_10_1232,60.0024826269,FEMA4ImagesEEG,001,101965,
AFNE01.JPG,AFNE01.JPG,AFNE01.JPG,AFNE01.JPG,AFNE01.JPG,AFNE01.JPG,,,,,,,,,,,,,,,,,,,,,2,1,21,0,,,AMNE06.jpg,AMSA05.jpg,AMNE16.jpg,AMSA11.jpg,AMNE06.jpg,MN,1,num_8,32,num_2,0.800190134672,,,2017_Oct_10_1232,60.0024826269,FEMA4ImagesEEG,001,101965,
AFNE01.JPG,AFNE01.JPG,AFNE01.JPG,AFNE01.JPG,AFNE01.JPG,AFNE01.JPG,,,,,,,,,,,,,,,,,,,,,2,2,22,9,,,AMNE06.jpg,AMNE04.jpg,AMSA18.jpg,AMSA08.jpg,AMNE06.jpg,MN,1,num_8,32,num_4,0.566779535147,,,2017_Oct_10_1232,60.0024826269,FEMA4ImagesEEG,001,101965,
AFNE01.JPG,AFNE01.JPG,AFNE01.JPG,AFNE01.JPG,AFNE01.JPG,AFNE01.JPG,,,,,,,,,,,,,,,,,,,,,2,3,23,3,,,AMSA04.jpg,AMSA06.jpg,AMNE19.jpg,AMNE13.jpg,AMNE19.jpg,MN,1,num_2,32,num_8,0.900162903941,,,2017_Oct_10_1232,60.0024826269,FEMA4ImagesEEG,001,101965,
AFNE01.JPG,AFNE01.JPG,AFNE01.JPG,AFNE01.JPG,AFNE01.JPG,AFNE01.JPG,,,,,,,,,,,,,,,,,,,,,2,4,24,2,,,AMNE04.jpg,AMSA07.jpg,AMNE17.jpg,AMSA16.jpg,AMNE17.jpg,MN,1,num_2,32,num_4,0.750149545143,,,2017_Oct_10_1232,60.0024826269,FEMA4ImagesEEG,001,101965,
AFNE01.JPG,AFNE01.JPG,AFNE01.JPG,AFNE01.JPG,AFNE01.JPG,AFNE01.JPG,,,,,,,,,,,,,,,,,,,,,2,5,25,6,,,AMSA07.jpg,AMNE14.jpg,AMSA19.jpg,AMNE13.jpg,AMSA07.jpg,MS,2,num_8,32,num_4,1.15014839033,,,2017_Oct_10_1232,60.0024826269,FEMA4ImagesEEG,001,101965,
AFNE01.JPG,AFNE01.JPG,AFNE01.JPG,AFNE01.JPG,AFNE01.JPG,AFNE01.JPG,,,,,,,,,,,,,,,,,,,,,2,6,26,8,,,AMSA13.jpg,AMSA17.jpg,AMNE03.jpg,AMNE10.jpg,AMNE03.jpg,MN,1,num_2,32,num_8,0.833443507552,,,2017_Oct_10_1232,60.0024826269,FEMA4ImagesEEG,001,101965,
AFNE01.JPG,AFNE01.JPG,AFNE01.JPG,AFNE01.JPG,AFNE01.JPG,AFNE01.JPG,,,,,,,,,,,,,,,,,,,,,2,7,27,4,,,AMSA14.jpg,AMNE16.jpg,AMNE08.jpg,AMSA07.jpg,AMSA14.jpg,MS,2,num_8,32,num_4,2.58338360931,,,2017_Oct_10_1232,60.0024826269,FEMA4ImagesEEG,001,101965,
AFNE01.JPG,AFNE01.JPG,AFNE01.JPG,AFNE01.JPG,AFNE01.JPG,AFNE01.JPG,,,,,,,,,,,,,,,,,,,,,2,8,28,1,,,AMNE10.jpg,AMSA11.jpg,AMSA19.jpg,AMNE15.jpg,AMSA19.jpg,MS,2,num_2,16,num_2,0.966795700486,,,2017_Oct_10_1232,60.0024826269,FEMA4ImagesEEG,001,101965,
AFNE01.JPG,AFNE01.JPG,AFNE01.JPG,AFNE01.JPG,AFNE01.JPG,AFNE01.JPG,,,,,,,,,,,,,,,,,,,,,2,9,29,5,,,AMNE06.jpg,AMSA19.jpg,AMNE12.jpg,AMSA18.jpg,AMSA19.jpg,MS,2,num_6,32,num_8,0.700179518317,,,2017_Oct_10_1232,60.0024826269,FEMA4ImagesEEG,001,101965,
AFNE01.JPG,AFNE01.JPG,AFNE01.JPG,AFNE01.JPG,AFNE01.JPG,AFNE01.JPG,,,,,,,,,,,,,,,,,,,,,3,0,30,7,,,AMNE15.jpg,AMSA06.jpg,AMNE07.jpg,AMSA17.jpg,AMNE15.jpg,MN,1,num_8,32,num_4,2.30001934059,,,2017_Oct_10_1232,60.0024826269,FEMA4ImagesEEG,001,101965,
AFNE01.JPG,AFNE01.JPG,AFNE01.JPG,AFNE01.JPG,AFNE01.JPG,AFNE01.JPG,,,,,,,,,,,,,,,,,,,,,3,1,31,4,,,AMNE11.jpg,AMNE13.jpg,AMSA18.jpg,AMSA14.jpg,AMSA18.jpg,MS,2,num_2,32,num_8,0.69997520675,,,2017_Oct_10_1232,60.0024826269,FEMA4ImagesEEG,001,101965,
AFNE01.JPG,AFNE01.JPG,AFNE01.JPG,AFNE01.JPG,AFNE01.JPG,AFNE01.JPG,,,,,,,,,,,,,,,,,,,,,3,2,32,5,,,AMSA19.jpg,AMNE12.jpg,AMSA03.jpg,AMNE10.jpg,AMNE10.jpg,MN,1,num_4,32,num_6,4.96644769737,,,2017_Oct_10_1232,60.0024826269,FEMA4ImagesEEG,001,101965,
AFNE01.JPG,AFNE01.JPG,AFNE01.JPG,AFNE01.JPG,AFNE01.JPG,AFNE01.JPG,,,,,,,,,,,,,,,,,,,,,3,3,33,2,,,AMSA01.jpg,AMNE04.jpg,AMNE01.jpg,AMSA16.jpg,AMSA16.jpg,MS,2,num_4,32,num_2,0.883499492775,,,2017_Oct_10_1232,60.0024826269,FEMA4ImagesEEG,001,101965,
AFNE01.JPG,AFNE01.JPG,AFNE01.JPG,AFNE01.JPG,AFNE01.JPG,AFNE01.JPG,,,,,,,,,,,,,,,,,,,,,3,4,34,1,,,AMSA10.jpg,AMNE08.jpg,AMNE09.jpg,AMSA20.jpg,AMSA10.jpg,MS,2,num_8,16,num_8,0.683469278971,,,2017_Oct_10_1232,60.0024826269,FEMA4ImagesEEG,001,101965,
AFNE01.JPG,AFNE01.JPG,AFNE01.JPG,AFNE01.JPG,AFNE01.JPG,AFNE01.JPG,,,,,,,,,,,,,,,,,,,,,3,5,35,9,,,AMSA11.jpg,AMNE05.jpg,AMNE14.jpg,AMSA06.jpg,AMNE14.jpg,MN,1,num_2,16,num_2,0.783473160001,,,2017_Oct_10_1232,60.0024826269,FEMA4ImagesEEG,001,101965,
AFNE01.JPG,AFNE01.JPG,AFNE01.JPG,AFNE01.JPG,AFNE01.JPG,AFNE01.JPG,,,,,,,,,,,,,,,,,,,,,3,6,36,6,,,AMNE15.jpg,AMSA13.jpg,AMNE04.jpg,AMSA15.jpg,AMNE04.jpg,MN,1,num_2,16,num_2,0.900183110498,,,2017_Oct_10_1232,60.0024826269,FEMA4ImagesEEG,001,101965,
AFNE01.JPG,AFNE01.JPG,AFNE01.JPG,AFNE01.JPG,AFNE01.JPG,AFNE01.JPG,,,,,,,,,,,,,,,,,,,,,3,7,37,8,,,AMNE11.jpg,AMNE10.jpg,AMSA08.jpg,AMSA16.jpg,AMNE11.jpg,MN,1,num_8,16,num_8,1.1335192984,,,2017_Oct_10_1232,60.0024826269,FEMA4ImagesEEG,001,101965,
AFNE01.JPG,AFNE01.JPG,AFNE01.JPG,AFNE01.JPG,AFNE01.JPG,AFNE01.JPG,,,,,,,,,,,,,,,,,,,,,3,8,38,0,,,AMSA03.jpg,AMSA06.jpg,AMNE06.jpg,AMNE10.jpg,AMNE10.jpg,MN,1,num_4,16,num_4,0.666782774613,,,2017_Oct_10_1232,60.0024826269,FEMA4ImagesEEG,001,101965,
