IPosition2,IPosition3,IPosition1,IPosition6,IPosition4,IPosition5,TrialsM1.thisRepN,TrialsM1.thisTrialN,TrialsM1.thisN,TrialsM1.thisIndex,TrialsF1.thisRepN,TrialsF1.thisTrialN,TrialsF1.thisN,TrialsF1.thisIndex,TrialsM2.thisRepN,TrialsM2.thisTrialN,TrialsM2.thisN,TrialsM2.thisIndex,TrialsF2.thisRepN,TrialsF2.thisTrialN,TrialsF2.thisN,TrialsF2.thisIndex,TrialsM3.thisRepN,TrialsM3.thisTrialN,TrialsM3.thisN,TrialsM3.thisIndex,TrialsF3.thisRepN,TrialsF3.thisTrialN,TrialsF3.thisN,TrialsF3.thisIndex,InstrKey_resp.keys,InstrKey_resp.rt,Image0 _Position,Image1 _Position,Image2 _Position,Image3 _Position,Center_image,condition,code,correct_answer,accuracy,Key_Resp.keys,Key_Resp.rt,BreakKey_resp.keys,BreakKey_resp.rt,date,frameRate,expName,session,participant,
,,,,,,,,,,,,,,,,,,,,,,,,,,,,,,space,15.1327563231,,,,,,,,,,,,,,2017_Nov_06_1159,60.0091809856,MAFE4ImagesEEG,001,101927,
AFSA21.JPG,AFNE23.JPG,AFNE21.JPG,AFSA25.JPG,AFNE25.JPG,AFSA23.JPG,0,0,0,4,,,,,,,,,,,,,,,,,,,,,,,AMSA09.jpg,AMNE20.jpg,AMNE11.jpg,AMSA15.jpg,AMSA09.jpg,MS,2,num_8,16,num_8,1.20014657802,,,2017_Nov_06_1159,60.0091809856,MAFE4ImagesEEG,001,101927,
AFSA21.JPG,AFNE22.JPG,AFNE21.JPG,AFSA23.JPG,AFSA22.JPG,AFNE23.JPG,0,1,1,0,,,,,,,,,,,,,,,,,,,,,,,AMNE04.jpg,AMSA20.jpg,AMSA04.jpg,AMNE11.jpg,AMSA04.jpg,MS,2,num_2,16,num_2,0.866821904667,,,2017_Nov_06_1159,60.0091809856,MAFE4ImagesEEG,001,101927,
AMNE22.JPG,AMSA24.JPG,AMSA22.JPG,AMNE25.JPG,AMNE24.JPG,AMSA25.JPG,0,2,2,7,,,,,,,,,,,,,,,,,,,,,,,AMSA03.jpg,AMSA04.jpg,AMNE04.jpg,AMNE13.jpg,AMNE13.jpg,MN,1,num_4,16,num_4,0.833503165049,,,2017_Nov_06_1159,60.0091809856,MAFE4ImagesEEG,001,101927,
AMSA21.JPG,AMNE23.JPG,AMNE21.JPG,AMSA25.JPG,AMNE25.JPG,AMSA23.JPG,0,3,3,5,,,,,,,,,,,,,,,,,,,,,,,AMSA18.jpg,AMNE18.jpg,AMSA04.jpg,AMNE12.jpg,AMNE18.jpg,MN,1,num_6,32,num_4,0.700098948088,,,2017_Nov_06_1159,60.0091809856,MAFE4ImagesEEG,001,101927,
AMSA21.JPG,AMNE22.JPG,AMNE21.JPG,AMSA23.JPG,AMSA22.JPG,AMNE23.JPG,0,4,4,1,,,,,,,,,,,,,,,,,,,,,,,AMSA15.jpg,AMNE15.jpg,AMNE18.jpg,AMSA18.jpg,AMNE18.jpg,MN,1,num_2,32,num_8,0.616792957764,,,2017_Nov_06_1159,60.0091809856,MAFE4ImagesEEG,001,101927,
AMSA25.JPG,AMNE24.JPG,AMSA24.JPG,AMNE26.JPG,AMSA21.JPG,AMNE25.JPG,0,5,5,3,,,,,,,,,,,,,,,,,,,,,,,AMSA15.jpg,AMNE14.jpg,AMSA08.jpg,AMNE04.jpg,AMNE14.jpg,MN,1,num_6,32,num_2,0.566755351145,,,2017_Nov_06_1159,60.0091809856,MAFE4ImagesEEG,001,101927,
AFSA25.JPG,AFNE24.JPG,AFSA24.JPG,AFNE21.JPG,AFSA21.JPG,AFNE25.JPG,0,6,6,2,,,,,,,,,,,,,,,,,,,,,,,AMNE08.jpg,AMSA15.jpg,AMSA06.jpg,AMNE15.jpg,AMNE08.jpg,MN,1,num_8,16,num_8,0.93346162932,,,2017_Nov_06_1159,60.0091809856,MAFE4ImagesEEG,001,101927,
AFNE23.JPG,AFNE24.JPG,AFNE22.JPG,AFSA24.JPG,AFSA22.JPG,AFSA23.JPG,0,7,7,8,,,,,,,,,,,,,,,,,,,,,,,AMNE08.jpg,AMSA01.jpg,AMSA13.jpg,AMNE15.jpg,AMSA13.jpg,MS,2,num_2,32,num_4,0.883448398439,,,2017_Nov_06_1159,60.0091809856,MAFE4ImagesEEG,001,101927,
AFNE22.JPG,AFSA24.JPG,AFSA22.JPG,AFNE25.JPG,AFNE24.JPG,AFSA25.JPG,0,8,8,6,,,,,,,,,,,,,,,,,,,,,,,AMNE04.jpg,AMSA17.jpg,AMSA09.jpg,AMNE03.jpg,AMNE04.jpg,MN,1,num_8,16,num_8,0.850212409627,,,2017_Nov_06_1159,60.0091809856,MAFE4ImagesEEG,001,101927,
AMNE23.JPG,AMNE24.JPG,AMNE22.JPG,AMSA24.JPG,AMSA22.JPG,AMSA23.JPG,0,9,9,9,,,,,,,,,,,,,,,,,,,,,,,AMNE12.jpg,AMSA17.jpg,AMSA08.jpg,AMNE04.jpg,AMNE12.jpg,MN,1,num_8,32,num_2,1.30012685247,,,2017_Nov_06_1159,60.0091809856,MAFE4ImagesEEG,001,101927,
AMSA25.JPG,AMNE24.JPG,AMSA24.JPG,AMNE26.JPG,AMSA21.JPG,AMNE25.JPG,,,,,0,0,0,3,,,,,,,,,,,,,,,,,,,AFSA13.jpg,AFSA09.jpg,AFNE02.jpg,AFNE14.jpg,AFSA13.jpg,FS,4,num_8,32,num_6,1.88335313904,,,2017_Nov_06_1159,60.0091809856,MAFE4ImagesEEG,001,101927,
AFSA21.JPG,AFNE23.JPG,AFNE21.JPG,AFSA25.JPG,AFNE25.JPG,AFSA23.JPG,,,,,0,1,1,4,,,,,,,,,,,,,,,,,,,AFNE17.jpg,AFNE10.jpg,AFSA12.jpg,AFSA08.jpg,AFNE17.jpg,FN,3,num_8,16,num_8,0.883550714469,,,2017_Nov_06_1159,60.0091809856,MAFE4ImagesEEG,001,101927,
AFSA21.JPG,AFNE22.JPG,AFNE21.JPG,AFSA23.JPG,AFSA22.JPG,AFNE23.JPG,,,,,0,2,2,0,,,,,,,,,,,,,,,,,,,AFSA02.jpg,AFNE02.jpg,AFSA06.jpg,AFNE18.jpg,AFNE18.jpg,FN,3,num_4,32,num_8,0.750138800126,,,2017_Nov_06_1159,60.0091809856,MAFE4ImagesEEG,001,101927,
AMSA21.JPG,AMNE23.JPG,AMNE21.JPG,AMSA25.JPG,AMNE25.JPG,AMSA23.JPG,,,,,0,3,3,5,,,,,,,,,,,,,,,,,,,AFSA09.jpg,AFNE15.jpg,AFSA13.jpg,AFNE08.jpg,AFNE15.jpg,FN,3,num_6,32,num_2,0.983451124979,,,2017_Nov_06_1159,60.0091809856,MAFE4ImagesEEG,001,101927,
AFNE22.JPG,AFSA24.JPG,AFSA22.JPG,AFNE25.JPG,AFNE24.JPG,AFSA25.JPG,,,,,0,4,4,6,,,,,,,,,,,,,,,,,,,AFNE05.jpg,AFSA18.jpg,AFSA17.jpg,AFNE04.jpg,AFSA18.jpg,FS,4,num_6,32,num_8,0.783460105769,,,2017_Nov_06_1159,60.0091809856,MAFE4ImagesEEG,001,101927,
AMSA21.JPG,AMNE22.JPG,AMNE21.JPG,AMSA23.JPG,AMSA22.JPG,AMNE23.JPG,,,,,0,5,5,1,,,,,,,,,,,,,,,,,,,AFSA20.jpg,AFNE18.jpg,AFNE14.jpg,AFSA05.jpg,AFSA20.jpg,FS,4,num_8,32,num_2,0.766775878612,,,2017_Nov_06_1159,60.0091809856,MAFE4ImagesEEG,001,101927,
AFSA25.JPG,AFNE24.JPG,AFSA24.JPG,AFNE21.JPG,AFSA21.JPG,AFNE25.JPG,,,,,0,6,6,2,,,,,,,,,,,,,,,,,,,AFNE18.jpg,AFNE12.jpg,AFSA05.jpg,AFSA09.jpg,AFSA05.jpg,FS,4,num_2,32,num_8,1.25009373599,,,2017_Nov_06_1159,60.0091809856,MAFE4ImagesEEG,001,101927,
AMNE23.JPG,AMNE24.JPG,AMNE22.JPG,AMSA24.JPG,AMSA22.JPG,AMSA23.JPG,,,,,0,7,7,9,,,,,,,,,,,,,,,,,,,AFSA08.jpg,AFNE15.jpg,AFSA16.jpg,AFNE14.jpg,AFSA08.jpg,FS,4,num_8,32,num_4,0.600193405757,,,2017_Nov_06_1159,60.0091809856,MAFE4ImagesEEG,001,101927,
AFNE23.JPG,AFNE24.JPG,AFNE22.JPG,AFSA24.JPG,AFSA22.JPG,AFSA23.JPG,,,,,0,8,8,8,,,,,,,,,,,,,,,,,,,AFSA03.jpg,AFNE09.jpg,AFNE06.jpg,AFSA02.jpg,AFNE09.jpg,FN,3,num_6,32,num_8,0.750104801496,,,2017_Nov_06_1159,60.0091809856,MAFE4ImagesEEG,001,101927,
AMNE22.JPG,AMSA24.JPG,AMSA22.JPG,AMNE25.JPG,AMNE24.JPG,AMSA25.JPG,,,,,0,9,9,7,,,,,,,,,,,,,,,,,,,AFNE05.jpg,AFSA15.jpg,AFSA14.jpg,AFNE08.jpg,AFSA14.jpg,FS,4,num_2,32,num_6,0.566767218523,,,2017_Nov_06_1159,60.0091809856,MAFE4ImagesEEG,001,101927,
AMSA21.JPG,AMNE22.JPG,AMNE21.JPG,AMSA23.JPG,AMSA22.JPG,AMNE23.JPG,,,,,,,,,0,0,0,1,,,,,,,,,,,,,,,AMSA01.jpg,AMNE14.jpg,AMSA09.jpg,AMNE06.jpg,AMSA01.jpg,MS,2,num_8,16,num_8,1.21680354234,,,2017_Nov_06_1159,60.0091809856,MAFE4ImagesEEG,001,101927,
AFNE22.JPG,AFSA24.JPG,AFSA22.JPG,AFNE25.JPG,AFNE24.JPG,AFSA25.JPG,,,,,,,,,0,1,1,6,,,,,,,,,,,,,,,AMNE04.jpg,AMNE19.jpg,AMSA01.jpg,AMSA15.jpg,AMNE19.jpg,MN,1,num_6,32,num_4,0.816825352609,,,2017_Nov_06_1159,60.0091809856,MAFE4ImagesEEG,001,101927,
AFSA21.JPG,AFNE22.JPG,AFNE21.JPG,AFSA23.JPG,AFSA22.JPG,AFNE23.JPG,,,,,,,,,0,2,2,0,,,,,,,,,,,,,,,AMSA04.jpg,AMNE18.jpg,AMNE05.jpg,AMSA09.jpg,AMNE18.jpg,MN,1,num_6,32,num_4,0.950123404618,,,2017_Nov_06_1159,60.0091809856,MAFE4ImagesEEG,001,101927,
AMSA21.JPG,AMNE23.JPG,AMNE21.JPG,AMSA25.JPG,AMNE25.JPG,AMSA23.JPG,,,,,,,,,0,3,3,5,,,,,,,,,,,,,,,AMSA18.jpg,AMNE01.jpg,AMSA09.jpg,AMNE11.jpg,AMNE11.jpg,MN,1,num_4,32,num_2,0.716784778982,,,2017_Nov_06_1159,60.0091809856,MAFE4ImagesEEG,001,101927,
AMNE22.JPG,AMSA24.JPG,AMSA22.JPG,AMNE25.JPG,AMNE24.JPG,AMSA25.JPG,,,,,,,,,0,4,4,7,,,,,,,,,,,,,,,AMNE14.jpg,AMSA04.jpg,AMNE06.jpg,AMSA05.jpg,AMNE14.jpg,MN,1,num_8,16,num_8,0.950110574951,,,2017_Nov_06_1159,60.0091809856,MAFE4ImagesEEG,001,101927,
AFNE23.JPG,AFNE24.JPG,AFNE22.JPG,AFSA24.JPG,AFSA22.JPG,AFSA23.JPG,,,,,,,,,0,5,5,8,,,,,,,,,,,,,,,AMSA07.jpg,AMNE17.jpg,AMNE05.jpg,AMSA12.jpg,AMSA07.jpg,MS,2,num_8,32,num_4,0.916784137487,,,2017_Nov_06_1159,60.0091809856,MAFE4ImagesEEG,001,101927,
AFSA21.JPG,AFNE23.JPG,AFNE21.JPG,AFSA25.JPG,AFNE25.JPG,AFSA23.JPG,,,,,,,,,0,6,6,4,,,,,,,,,,,,,,,AMNE05.jpg,AMSA02.jpg,AMSA05.jpg,AMNE19.jpg,AMSA02.jpg,MS,2,num_6,32,num_2,0.500143851619,,,2017_Nov_06_1159,60.0091809856,MAFE4ImagesEEG,001,101927,
AMNE23.JPG,AMNE24.JPG,AMNE22.JPG,AMSA24.JPG,AMSA22.JPG,AMSA23.JPG,,,,,,,,,0,7,7,9,,,,,,,,,,,,,,,AMSA05.jpg,AMNE17.jpg,AMSA02.jpg,AMNE13.jpg,AMSA02.jpg,MS,2,num_2,16,num_2,0.733482156415,,,2017_Nov_06_1159,60.0091809856,MAFE4ImagesEEG,001,101927,
AFSA25.JPG,AFNE24.JPG,AFSA24.JPG,AFNE21.JPG,AFSA21.JPG,AFNE25.JPG,,,,,,,,,0,8,8,2,,,,,,,,,,,,,,,AMSA12.jpg,AMSA07.jpg,AMNE12.jpg,AMNE19.jpg,AMSA07.jpg,MS,2,num_6,32,num_4,0.933425064897,,,2017_Nov_06_1159,60.0091809856,MAFE4ImagesEEG,001,101927,
AMSA25.JPG,AMNE24.JPG,AMSA24.JPG,AMNE26.JPG,AMSA21.JPG,AMNE25.JPG,,,,,,,,,0,9,9,3,,,,,,,,,,,,,,,AMSA17.jpg,AMNE06.jpg,AMSA06.jpg,AMNE12.jpg,AMNE06.jpg,MN,1,num_6,16,num_6,0.916783496039,,,2017_Nov_06_1159,60.0091809856,MAFE4ImagesEEG,001,101927,
AFSA21.JPG,AFNE22.JPG,AFNE21.JPG,AFSA23.JPG,AFSA22.JPG,AFNE23.JPG,,,,,,,,,,,,,0,0,0,0,,,,,,,,,,,AFSA07.jpg,AFNE18.jpg,AFNE20.jpg,AFSA10.jpg,AFNE20.jpg,FN,3,num_2,32,num_8,1.01675928035,,,2017_Nov_06_1159,60.0091809856,MAFE4ImagesEEG,001,101927,
AMNE22.JPG,AMSA24.JPG,AMSA22.JPG,AMNE25.JPG,AMNE24.JPG,AMSA25.JPG,,,,,,,,,,,,,0,1,1,7,,,,,,,,,,,AFNE17.jpg,AFSA11.jpg,AFNE05.jpg,AFSA18.jpg,AFNE05.jpg,FN,3,num_2,32,num_4,0.766802179161,,,2017_Nov_06_1159,60.0091809856,MAFE4ImagesEEG,001,101927,
AMSA25.JPG,AMNE24.JPG,AMSA24.JPG,AMNE26.JPG,AMSA21.JPG,AMNE25.JPG,,,,,,,,,,,,,0,2,2,3,,,,,,,,,,,AFNE12.jpg,AFNE17.jpg,AFSA19.jpg,AFSA02.jpg,AFNE17.jpg,FN,3,num_6,32,num_8,0.650134790689,,,2017_Nov_06_1159,60.0091809856,MAFE4ImagesEEG,001,101927,
AMSA21.JPG,AMNE23.JPG,AMNE21.JPG,AMSA25.JPG,AMNE25.JPG,AMSA23.JPG,,,,,,,,,,,,,0,3,3,5,,,,,,,,,,,AFSA19.jpg,AFNE04.jpg,AFSA06.jpg,AFNE17.jpg,AFSA06.jpg,FS,4,num_2,32,num_4,0.933429234428,,,2017_Nov_06_1159,60.0091809856,MAFE4ImagesEEG,001,101927,
AFSA21.JPG,AFNE23.JPG,AFNE21.JPG,AFSA25.JPG,AFNE25.JPG,AFSA23.JPG,,,,,,,,,,,,,0,4,4,4,,,,,,,,,,,AFNE11.jpg,AFSA10.jpg,AFNE04.jpg,AFSA11.jpg,AFNE04.jpg,FN,3,num_2,16,num_2,0.566799613182,,,2017_Nov_06_1159,60.0091809856,MAFE4ImagesEEG,001,101927,
AFNE23.JPG,AFNE24.JPG,AFNE22.JPG,AFSA24.JPG,AFSA22.JPG,AFSA23.JPG,,,,,,,,,,,,,0,5,5,8,,,,,,,,,,,AFNE16.jpg,AFSA20.jpg,AFNE07.jpg,AFSA06.jpg,AFSA06.jpg,FS,4,num_4,32,num_2,0.766775878612,,,2017_Nov_06_1159,60.0091809856,MAFE4ImagesEEG,001,101927,
AFNE22.JPG,AFSA24.JPG,AFSA22.JPG,AFNE25.JPG,AFNE24.JPG,AFSA25.JPG,,,,,,,,,,,,,0,6,6,6,,,,,,,,,,,AFNE08.jpg,AFSA14.jpg,AFSA01.jpg,AFNE17.jpg,AFSA14.jpg,FS,4,num_6,16,num_6,0.61677499651,,,2017_Nov_06_1159,60.0091809856,MAFE4ImagesEEG,001,101927,
AMNE23.JPG,AMNE24.JPG,AMNE22.JPG,AMSA24.JPG,AMSA22.JPG,AMSA23.JPG,,,,,,,,,,,,,0,7,7,9,,,,,,,,,,,AFSA07.jpg,AFSA10.jpg,AFNE04.jpg,AFNE09.jpg,AFSA07.jpg,FS,4,num_8,16,num_8,0.683478868799,,,2017_Nov_06_1159,60.0091809856,MAFE4ImagesEEG,001,101927,
AFSA25.JPG,AFNE24.JPG,AFSA24.JPG,AFNE21.JPG,AFSA21.JPG,AFNE25.JPG,,,,,,,,,,,,,0,8,8,2,,,,,,,,,,,AFNE03.jpg,AFSA19.jpg,AFNE14.jpg,AFSA18.jpg,AFNE03.jpg,FN,3,num_8,32,num_4,0.450184505433,,,2017_Nov_06_1159,60.0091809856,MAFE4ImagesEEG,001,101927,
AMSA21.JPG,AMNE22.JPG,AMNE21.JPG,AMSA23.JPG,AMSA22.JPG,AMNE23.JPG,,,,,,,,,,,,,0,9,9,1,,,,,,,,,,,AFSA13.jpg,AFNE18.jpg,AFNE03.jpg,AFSA04.jpg,AFNE18.jpg,FN,3,num_6,16,num_6,0.616605966585,,,2017_Nov_06_1159,60.0091809856,MAFE4ImagesEEG,001,101927,
AMSA21.JPG,AMNE23.JPG,AMNE21.JPG,AMSA25.JPG,AMNE25.JPG,AMSA23.JPG,,,,,,,,,,,,,,,,,0,0,0,5,,,,,,,AMSA07.jpg,AMSA14.jpg,AMNE04.jpg,AMNE19.jpg,AMNE04.jpg,MN,1,num_2,16,num_2,0.666591613553,,,2017_Nov_06_1159,60.0091809856,MAFE4ImagesEEG,001,101927,
AFSA21.JPG,AFNE22.JPG,AFNE21.JPG,AFSA23.JPG,AFSA22.JPG,AFNE23.JPG,,,,,,,,,,,,,,,,,0,1,1,0,,,,,,,AMNE15.jpg,AMNE14.jpg,AMSA01.jpg,AMSA14.jpg,AMNE14.jpg,MN,1,num_6,32,num_8,0.500158285024,,,2017_Nov_06_1159,60.0091809856,MAFE4ImagesEEG,001,101927,
AMNE23.JPG,AMNE24.JPG,AMNE22.JPG,AMSA24.JPG,AMSA22.JPG,AMSA23.JPG,,,,,,,,,,,,,,,,,0,2,2,9,,,,,,,AMNE05.jpg,AMNE04.jpg,AMSA02.jpg,AMSA03.jpg,AMNE04.jpg,MN,1,num_6,16,num_6,0.600172237027,,,2017_Nov_06_1159,60.0091809856,MAFE4ImagesEEG,001,101927,
AMSA21.JPG,AMNE22.JPG,AMNE21.JPG,AMSA23.JPG,AMSA22.JPG,AMNE23.JPG,,,,,,,,,,,,,,,,,0,3,3,1,,,,,,,AMSA08.jpg,AMSA18.jpg,AMNE19.jpg,AMNE11.jpg,AMSA08.jpg,MS,2,num_8,32,num_4,0.583572685253,,,2017_Nov_06_1159,60.0091809856,MAFE4ImagesEEG,001,101927,
AMNE22.JPG,AMSA24.JPG,AMSA22.JPG,AMNE25.JPG,AMNE24.JPG,AMSA25.JPG,,,,,,,,,,,,,,,,,0,4,4,7,,,,,,,AMSA18.jpg,AMNE12.jpg,AMNE04.jpg,AMSA08.jpg,AMNE04.jpg,MN,1,num_2,16,num_2,0.567093089921,,,2017_Nov_06_1159,60.0091809856,MAFE4ImagesEEG,001,101927,
AMSA25.JPG,AMNE24.JPG,AMSA24.JPG,AMNE26.JPG,AMSA21.JPG,AMNE25.JPG,,,,,,,,,,,,,,,,,0,5,5,3,,,,,,,AMSA11.jpg,AMNE02.jpg,AMNE06.jpg,AMSA03.jpg,AMSA11.jpg,MS,2,num_8,32,num_6,0.73350589117,,,2017_Nov_06_1159,60.0091809856,MAFE4ImagesEEG,001,101927,
AFNE22.JPG,AFSA24.JPG,AFSA22.JPG,AFNE25.JPG,AFNE24.JPG,AFSA25.JPG,,,,,,,,,,,,,,,,,0,6,6,6,,,,,,,AMSA05.jpg,AMNE04.jpg,AMSA09.jpg,AMNE07.jpg,AMSA09.jpg,MS,2,num_2,32,num_8,0.750152271008,,,2017_Nov_06_1159,60.0091809856,MAFE4ImagesEEG,001,101927,
AFSA25.JPG,AFNE24.JPG,AFSA24.JPG,AFNE21.JPG,AFSA21.JPG,AFNE25.JPG,,,,,,,,,,,,,,,,,0,7,7,2,,,,,,,AMSA05.jpg,AMSA13.jpg,AMNE19.jpg,AMNE08.jpg,AMSA05.jpg,MS,2,num_8,32,num_2,0.750118272612,,,2017_Nov_06_1159,60.0091809856,MAFE4ImagesEEG,001,101927,
AFSA21.JPG,AFNE23.JPG,AFNE21.JPG,AFSA25.JPG,AFNE25.JPG,AFSA23.JPG,,,,,,,,,,,,,,,,,0,8,8,4,,,,,,,AMSA01.jpg,AMSA14.jpg,AMNE01.jpg,AMNE04.jpg,AMSA01.jpg,MS,2,num_8,16,num_8,1.00008050562,,,2017_Nov_06_1159,60.0091809856,MAFE4ImagesEEG,001,101927,
AFNE23.JPG,AFNE24.JPG,AFNE22.JPG,AFSA24.JPG,AFSA22.JPG,AFSA23.JPG,,,,,,,,,,,,,,,,,0,9,9,8,,,,,,,AMNE11.jpg,AMSA19.jpg,AMSA10.jpg,AMNE17.jpg,AMSA19.jpg,MS,2,num_6,32,num_2,0.683505169582,,,2017_Nov_06_1159,60.0091809856,MAFE4ImagesEEG,001,101927,
AFNE23.JPG,AFNE24.JPG,AFNE22.JPG,AFSA24.JPG,AFSA22.JPG,AFSA23.JPG,,,,,,,,,,,,,,,,,,,,,0,0,0,8,,,AFNE06.jpg,AFSA01.jpg,AFNE20.jpg,AFSA04.jpg,AFSA04.jpg,FS,4,num_4,32,num_6,0.533478949219,,,2017_Nov_06_1159,60.0091809856,MAFE4ImagesEEG,001,101927,
AFSA21.JPG,AFNE22.JPG,AFNE21.JPG,AFSA23.JPG,AFSA22.JPG,AFNE23.JPG,,,,,,,,,,,,,,,,,,,,,0,1,1,0,,,AFNE05.jpg,AFSA20.jpg,AFSA09.jpg,AFNE06.jpg,AFNE06.jpg,FN,3,num_4,32,num_8,0.716633069096,,,2017_Nov_06_1159,60.0091809856,MAFE4ImagesEEG,001,101927,
AMSA21.JPG,AMNE23.JPG,AMNE21.JPG,AMSA25.JPG,AMNE25.JPG,AMSA23.JPG,,,,,,,,,,,,,,,,,,,,,0,2,2,5,,,AFNE13.jpg,AFSA07.jpg,AFNE09.jpg,AFSA02.jpg,AFSA02.jpg,FS,4,num_4,16,num_4,0.616842031013,,,2017_Nov_06_1159,60.0091809856,MAFE4ImagesEEG,001,101927,
AFSA21.JPG,AFNE23.JPG,AFNE21.JPG,AFSA25.JPG,AFNE25.JPG,AFSA23.JPG,,,,,,,,,,,,,,,,,,,,,0,3,3,4,,,AFSA01.jpg,AFNE13.jpg,AFNE10.jpg,AFSA07.jpg,AFSA01.jpg,FS,4,num_8,32,num_2,0.683509980794,,,2017_Nov_06_1159,60.0091809856,MAFE4ImagesEEG,001,101927,
AMNE22.JPG,AMSA24.JPG,AMSA22.JPG,AMNE25.JPG,AMNE24.JPG,AMSA25.JPG,,,,,,,,,,,,,,,,,,,,,0,4,4,7,,,AFSA18.jpg,AFNE17.jpg,AFSA15.jpg,AFNE05.jpg,AFNE05.jpg,FN,3,num_4,32,num_8,0.533458421705,,,2017_Nov_06_1159,60.0091809856,MAFE4ImagesEEG,001,101927,
AFSA25.JPG,AFNE24.JPG,AFSA24.JPG,AFNE21.JPG,AFSA21.JPG,AFNE25.JPG,,,,,,,,,,,,,,,,,,,,,0,5,5,2,,,AFNE18.jpg,AFSA07.jpg,AFNE20.jpg,AFSA17.jpg,AFNE20.jpg,FN,3,num_2,32,num_4,0.833561539417,,,2017_Nov_06_1159,60.0091809856,MAFE4ImagesEEG,001,101927,
AMSA25.JPG,AMNE24.JPG,AMSA24.JPG,AMNE26.JPG,AMSA21.JPG,AMNE25.JPG,,,,,,,,,,,,,,,,,,,,,0,6,6,3,,,AFNE04.jpg,AFNE14.jpg,AFSA07.jpg,AFSA15.jpg,AFSA07.jpg,FS,4,num_2,16,num_2,0.600206235424,,,2017_Nov_06_1159,60.0091809856,MAFE4ImagesEEG,001,101927,
AFNE22.JPG,AFSA24.JPG,AFSA22.JPG,AFNE25.JPG,AFNE24.JPG,AFSA25.JPG,,,,,,,,,,,,,,,,,,,,,0,7,7,6,,,AFSA01.jpg,AFNE19.jpg,AFSA03.jpg,AFNE18.jpg,AFNE19.jpg,FN,3,num_6,16,num_6,0.433464034693,,,2017_Nov_06_1159,60.0091809856,MAFE4ImagesEEG,001,101927,
AMNE23.JPG,AMNE24.JPG,AMNE22.JPG,AMSA24.JPG,AMSA22.JPG,AMSA23.JPG,,,,,,,,,,,,,,,,,,,,,0,8,8,9,,,AFSA13.jpg,AFNE12.jpg,AFSA03.jpg,AFNE10.jpg,AFNE10.jpg,FN,3,num_4,16,num_4,0.633511504158,,,2017_Nov_06_1159,60.0091809856,MAFE4ImagesEEG,001,101927,
AMSA21.JPG,AMNE22.JPG,AMNE21.JPG,AMSA23.JPG,AMSA22.JPG,AMNE23.JPG,,,,,,,,,,,,,,,,,,,,,0,9,9,1,,,AFNE19.jpg,AFNE02.jpg,AFSA13.jpg,AFSA05.jpg,AFNE19.jpg,FN,3,num_8,16,num_8,0.683420173591,,,2017_Nov_06_1159,60.0091809856,MAFE4ImagesEEG,001,101927,
,,,,,,,,,,,,,,,,,,,,,,,,,,,,,,,,,,,,,,,,,,,space,15.5155544223,2017_Nov_06_1159,60.0091809856,MAFE4ImagesEEG,001,101927,
AFNE01.JPG,AFNE01.JPG,AFNE01.JPG,AFNE01.JPG,AFNE01.JPG,AFNE01.JPG,0,0,0,5,,,,,,,,,,,,,,,,,,,,,,,AMNE10.jpg,AMSA17.jpg,AMNE15.jpg,AMSA14.jpg,AMSA14.jpg,MS,2,num_4,32,num_8,0.683582147118,,,2017_Nov_06_1159,60.0091809856,MAFE4ImagesEEG,001,101927,
AFNE01.JPG,AFNE01.JPG,AFNE01.JPG,AFNE01.JPG,AFNE01.JPG,AFNE01.JPG,0,1,1,4,,,,,,,,,,,,,,,,,,,,,,,AMSA06.jpg,AMNE13.jpg,AMNE08.jpg,AMSA11.jpg,AMNE08.jpg,MN,1,num_2,32,num_6,0.633456337033,,,2017_Nov_06_1159,60.0091809856,MAFE4ImagesEEG,001,101927,
AFNE01.JPG,AFNE01.JPG,AFNE01.JPG,AFNE01.JPG,AFNE01.JPG,AFNE01.JPG,0,2,2,0,,,,,,,,,,,,,,,,,,,,,,,AMNE15.jpg,AMSA17.jpg,AMNE16.jpg,AMSA14.jpg,AMSA17.jpg,MS,2,num_6,32,num_4,0.583515914157,,,2017_Nov_06_1159,60.0091809856,MAFE4ImagesEEG,001,101927,
AFNE01.JPG,AFNE01.JPG,AFNE01.JPG,AFNE01.JPG,AFNE01.JPG,AFNE01.JPG,0,3,3,3,,,,,,,,,,,,,,,,,,,,,,,AMSA20.jpg,AMSA12.jpg,AMNE09.jpg,AMNE03.jpg,AMSA20.jpg,MS,2,num_8,32,num_2,0.583513348363,,,2017_Nov_06_1159,60.0091809856,MAFE4ImagesEEG,001,101927,
AFNE01.JPG,AFNE01.JPG,AFNE01.JPG,AFNE01.JPG,AFNE01.JPG,AFNE01.JPG,0,4,4,1,,,,,,,,,,,,,,,,,,,,,,,AMSA04.jpg,AMNE09.jpg,AMNE19.jpg,AMSA06.jpg,AMSA04.jpg,MS,2,num_8,16,num_8,0.583482878283,,,2017_Nov_06_1159,60.0091809856,MAFE4ImagesEEG,001,101927,
AFNE01.JPG,AFNE01.JPG,AFNE01.JPG,AFNE01.JPG,AFNE01.JPG,AFNE01.JPG,0,5,5,9,,,,,,,,,,,,,,,,,,,,,,,AMSA18.jpg,AMSA07.jpg,AMNE14.jpg,AMNE03.jpg,AMNE14.jpg,MN,1,num_2,32,num_4,0.700229809852,,,2017_Nov_06_1159,60.0091809856,MAFE4ImagesEEG,001,101927,
AFNE01.JPG,AFNE01.JPG,AFNE01.JPG,AFNE01.JPG,AFNE01.JPG,AFNE01.JPG,0,6,6,6,,,,,,,,,,,,,,,,,,,,,,,AMNE09.jpg,AMSA17.jpg,AMNE12.jpg,AMSA03.jpg,AMSA03.jpg,MS,2,num_4,16,num_4,0.516853096662,,,2017_Nov_06_1159,60.0091809856,MAFE4ImagesEEG,001,101927,
AFNE01.JPG,AFNE01.JPG,AFNE01.JPG,AFNE01.JPG,AFNE01.JPG,AFNE01.JPG,0,7,7,8,,,,,,,,,,,,,,,,,,,,,,,AMSA10.jpg,AMNE09.jpg,AMNE04.jpg,AMSA13.jpg,AMSA10.jpg,MS,2,num_8,32,num_6,0.800175444456,,,2017_Nov_06_1159,60.0091809856,MAFE4ImagesEEG,001,101927,
AFNE01.JPG,AFNE01.JPG,AFNE01.JPG,AFNE01.JPG,AFNE01.JPG,AFNE01.JPG,0,8,8,2,,,,,,,,,,,,,,,,,,,,,,,AMSA02.jpg,AMSA11.jpg,AMNE10.jpg,AMNE09.jpg,AMSA02.jpg,MS,2,num_8,16,num_8,1.0334704495,,,2017_Nov_06_1159,60.0091809856,MAFE4ImagesEEG,001,101927,
AFNE01.JPG,AFNE01.JPG,AFNE01.JPG,AFNE01.JPG,AFNE01.JPG,AFNE01.JPG,0,9,9,7,,,,,,,,,,,,,,,,,,,,,,,AMNE06.jpg,AMNE09.jpg,AMSA18.jpg,AMSA04.jpg,AMSA04.jpg,MS,2,num_4,16,num_4,0.550163496751,,,2017_Nov_06_1159,60.0091809856,MAFE4ImagesEEG,001,101927,
AFNE01.JPG,AFNE01.JPG,AFNE01.JPG,AFNE01.JPG,AFNE01.JPG,AFNE01.JPG,1,0,10,7,,,,,,,,,,,,,,,,,,,,,,,AMNE02.jpg,AMSA19.jpg,AMNE07.jpg,AMSA17.jpg,AMNE02.jpg,MN,1,num_8,16,num_8,0.600120918825,,,2017_Nov_06_1159,60.0091809856,MAFE4ImagesEEG,001,101927,
AFNE01.JPG,AFNE01.JPG,AFNE01.JPG,AFNE01.JPG,AFNE01.JPG,AFNE01.JPG,1,1,11,6,,,,,,,,,,,,,,,,,,,,,,,AMSA08.jpg,AMNE20.jpg,AMNE03.jpg,AMSA03.jpg,AMNE20.jpg,MN,1,num_6,16,num_6,0.766778765013,,,2017_Nov_06_1159,60.0091809856,MAFE4ImagesEEG,001,101927,
AFNE01.JPG,AFNE01.JPG,AFNE01.JPG,AFNE01.JPG,AFNE01.JPG,AFNE01.JPG,1,2,12,9,,,,,,,,,,,,,,,,,,,,,,,AMNE20.jpg,AMSA16.jpg,AMNE16.jpg,AMSA07.jpg,AMNE20.jpg,MN,1,num_8,16,num_8,0.683510301402,,,2017_Nov_06_1159,60.0091809856,MAFE4ImagesEEG,001,101927,
AFNE01.JPG,AFNE01.JPG,AFNE01.JPG,AFNE01.JPG,AFNE01.JPG,AFNE01.JPG,1,3,13,0,,,,,,,,,,,,,,,,,,,,,,,AMSA05.jpg,AMNE16.jpg,AMSA15.jpg,AMNE18.jpg,AMSA15.jpg,MS,2,num_2,32,num_4,0.766802820377,,,2017_Nov_06_1159,60.0091809856,MAFE4ImagesEEG,001,101927,
AFNE01.JPG,AFNE01.JPG,AFNE01.JPG,AFNE01.JPG,AFNE01.JPG,AFNE01.JPG,1,4,14,2,,,,,,,,,,,,,,,,,,,,,,,AMNE14.jpg,AMNE20.jpg,AMSA02.jpg,AMSA11.jpg,AMNE20.jpg,MN,1,num_6,32,num_2,0.533517758595,,,2017_Nov_06_1159,60.0091809856,MAFE4ImagesEEG,001,101927,
AFNE01.JPG,AFNE01.JPG,AFNE01.JPG,AFNE01.JPG,AFNE01.JPG,AFNE01.JPG,1,5,15,1,,,,,,,,,,,,,,,,,,,,,,,AMNE13.jpg,AMSA12.jpg,AMSA08.jpg,AMNE11.jpg,AMSA12.jpg,MS,2,num_6,32,num_8,0.66689759912,,,2017_Nov_06_1159,60.0091809856,MAFE4ImagesEEG,001,101927,
AFNE01.JPG,AFNE01.JPG,AFNE01.JPG,AFNE01.JPG,AFNE01.JPG,AFNE01.JPG,1,6,16,4,,,,,,,,,,,,,,,,,,,,,,,AMNE19.jpg,AMSA14.jpg,AMNE02.jpg,AMSA04.jpg,AMNE19.jpg,MN,1,num_8,32,num_6,0.350183062255,,,2017_Nov_06_1159,60.0091809856,MAFE4ImagesEEG,001,101927,
AFNE01.JPG,AFNE01.JPG,AFNE01.JPG,AFNE01.JPG,AFNE01.JPG,AFNE01.JPG,1,7,17,3,,,,,,,,,,,,,,,,,,,,,,,AMNE06.jpg,AMSA14.jpg,AMNE05.jpg,AMSA06.jpg,AMSA06.jpg,MS,2,num_4,32,num_8,0.600166784599,,,2017_Nov_06_1159,60.0091809856,MAFE4ImagesEEG,001,101927,
AFNE01.JPG,AFNE01.JPG,AFNE01.JPG,AFNE01.JPG,AFNE01.JPG,AFNE01.JPG,1,8,18,5,,,,,,,,,,,,,,,,,,,,,,,AMNE11.jpg,AMNE15.jpg,AMSA01.jpg,AMSA15.jpg,AMSA15.jpg,MS,2,num_4,32,num_8,0.750114423689,,,2017_Nov_06_1159,60.0091809856,MAFE4ImagesEEG,001,101927,
AFNE01.JPG,AFNE01.JPG,AFNE01.JPG,AFNE01.JPG,AFNE01.JPG,AFNE01.JPG,1,9,19,8,,,,,,,,,,,,,,,,,,,,,,,AMSA13.jpg,AMNE07.jpg,AMSA08.jpg,AMNE13.jpg,AMNE07.jpg,MN,1,num_6,32,num_4,0.383356506703,,,2017_Nov_06_1159,60.0091809856,MAFE4ImagesEEG,001,101927,
AFNE01.JPG,AFNE01.JPG,AFNE01.JPG,AFNE01.JPG,AFNE01.JPG,AFNE01.JPG,2,0,20,7,,,,,,,,,,,,,,,,,,,,,,,AMSA18.jpg,AMNE13.jpg,AMSA19.jpg,AMNE07.jpg,AMNE07.jpg,MN,1,num_4,16,num_4,0.516765214037,,,2017_Nov_06_1159,60.0091809856,MAFE4ImagesEEG,001,101927,
AFNE01.JPG,AFNE01.JPG,AFNE01.JPG,AFNE01.JPG,AFNE01.JPG,AFNE01.JPG,2,1,21,9,,,,,,,,,,,,,,,,,,,,,,,AMNE10.jpg,AMNE05.jpg,AMSA09.jpg,AMSA12.jpg,AMSA12.jpg,MS,2,num_4,32,num_6,0.516808192944,,,2017_Nov_06_1159,60.0091809856,MAFE4ImagesEEG,001,101927,
AFNE01.JPG,AFNE01.JPG,AFNE01.JPG,AFNE01.JPG,AFNE01.JPG,AFNE01.JPG,2,2,22,1,,,,,,,,,,,,,,,,,,,,,,,AMSA02.jpg,AMNE20.jpg,AMNE18.jpg,AMSA15.jpg,AMSA15.jpg,MS,2,num_4,32,num_8,0.683461548761,,,2017_Nov_06_1159,60.0091809856,MAFE4ImagesEEG,001,101927,
AFNE01.JPG,AFNE01.JPG,AFNE01.JPG,AFNE01.JPG,AFNE01.JPG,AFNE01.JPG,2,3,23,6,,,,,,,,,,,,,,,,,,,,,,,AMNE02.jpg,AMSA20.jpg,AMNE13.jpg,AMSA18.jpg,AMNE13.jpg,MN,1,num_2,16,num_2,0.466936087934,,,2017_Nov_06_1159,60.0091809856,MAFE4ImagesEEG,001,101927,
AFNE01.JPG,AFNE01.JPG,AFNE01.JPG,AFNE01.JPG,AFNE01.JPG,AFNE01.JPG,2,4,24,3,,,,,,,,,,,,,,,,,,,,,,,AMSA04.jpg,AMNE08.jpg,AMSA17.jpg,AMNE03.jpg,AMSA17.jpg,MS,2,num_2,32,num_6,0.71677002497,,,2017_Nov_06_1159,60.0091809856,MAFE4ImagesEEG,001,101927,
AFNE01.JPG,AFNE01.JPG,AFNE01.JPG,AFNE01.JPG,AFNE01.JPG,AFNE01.JPG,2,5,25,8,,,,,,,,,,,,,,,,,,,,,,,AMNE06.jpg,AMNE07.jpg,AMSA18.jpg,AMSA08.jpg,AMSA18.jpg,MS,2,num_2,16,num_2,0.416823428124,,,2017_Nov_06_1159,60.0091809856,MAFE4ImagesEEG,001,101927,
AFNE01.JPG,AFNE01.JPG,AFNE01.JPG,AFNE01.JPG,AFNE01.JPG,AFNE01.JPG,2,6,26,0,,,,,,,,,,,,,,,,,,,,,,,AMNE10.jpg,AMSA20.jpg,AMSA12.jpg,AMNE19.jpg,AMNE10.jpg,MN,1,num_8,16,num_8,0.766824951628,,,2017_Nov_06_1159,60.0091809856,MAFE4ImagesEEG,001,101927,
AFNE01.JPG,AFNE01.JPG,AFNE01.JPG,AFNE01.JPG,AFNE01.JPG,AFNE01.JPG,2,7,27,4,,,,,,,,,,,,,,,,,,,,,,,AMNE20.jpg,AMNE15.jpg,AMSA13.jpg,AMSA08.jpg,AMNE20.jpg,MN,1,num_8,32,num_6,0.716792155989,,,2017_Nov_06_1159,60.0091809856,MAFE4ImagesEEG,001,101927,
AFNE01.JPG,AFNE01.JPG,AFNE01.JPG,AFNE01.JPG,AFNE01.JPG,AFNE01.JPG,2,8,28,2,,,,,,,,,,,,,,,,,,,,,,,AMSA16.jpg,AMSA05.jpg,AMNE08.jpg,AMNE16.jpg,AMSA16.jpg,MS,2,num_8,32,num_6,0.666805226123,,,2017_Nov_06_1159,60.0091809856,MAFE4ImagesEEG,001,101927,
AFNE01.JPG,AFNE01.JPG,AFNE01.JPG,AFNE01.JPG,AFNE01.JPG,AFNE01.JPG,2,9,29,5,,,,,,,,,,,,,,,,,,,,,,,AMSA03.jpg,AMSA10.jpg,AMNE01.jpg,AMNE12.jpg,AMNE01.jpg,MN,1,num_2,32,num_8,0.716815890511,,,2017_Nov_06_1159,60.0091809856,MAFE4ImagesEEG,001,101927,
AFNE01.JPG,AFNE01.JPG,AFNE01.JPG,AFNE01.JPG,AFNE01.JPG,AFNE01.JPG,3,0,30,7,,,,,,,,,,,,,,,,,,,,,,,AMSA12.jpg,AMNE01.jpg,AMSA03.jpg,AMNE09.jpg,AMSA12.jpg,MS,2,num_8,32,num_4,0.666772510624,,,2017_Nov_06_1159,60.0091809856,MAFE4ImagesEEG,001,101927,
AFNE01.JPG,AFNE01.JPG,AFNE01.JPG,AFNE01.JPG,AFNE01.JPG,AFNE01.JPG,3,1,31,2,,,,,,,,,,,,,,,,,,,,,,,AMSA19.jpg,AMSA07.jpg,AMNE02.jpg,AMNE01.jpg,AMNE01.jpg,MN,1,num_4,32,num_6,0.666781170759,,,2017_Nov_06_1159,60.0091809856,MAFE4ImagesEEG,001,101927,
AFNE01.JPG,AFNE01.JPG,AFNE01.JPG,AFNE01.JPG,AFNE01.JPG,AFNE01.JPG,3,2,32,0,,,,,,,,,,,,,,,,,,,,,,,AMSA20.jpg,AMSA16.jpg,AMNE12.jpg,AMNE04.jpg,AMNE04.jpg,MN,1,num_4,16,num_4,0.80013022013,,,2017_Nov_06_1159,60.0091809856,MAFE4ImagesEEG,001,101927,
AFNE01.JPG,AFNE01.JPG,AFNE01.JPG,AFNE01.JPG,AFNE01.JPG,AFNE01.JPG,3,3,33,4,,,,,,,,,,,,,,,,,,,,,,,AMNE16.jpg,AMSA17.jpg,AMNE10.jpg,AMSA11.jpg,AMSA17.jpg,MS,2,num_6,32,num_2,1.30008643935,,,2017_Nov_06_1159,60.0091809856,MAFE4ImagesEEG,001,101927,
AFNE01.JPG,AFNE01.JPG,AFNE01.JPG,AFNE01.JPG,AFNE01.JPG,AFNE01.JPG,3,4,34,6,,,,,,,,,,,,,,,,,,,,,,,AMSA16.jpg,AMSA07.jpg,AMNE09.jpg,AMNE04.jpg,AMNE04.jpg,MN,1,num_4,16,num_4,0.866742681945,,,2017_Nov_06_1159,60.0091809856,MAFE4ImagesEEG,001,101927,
AFNE01.JPG,AFNE01.JPG,AFNE01.JPG,AFNE01.JPG,AFNE01.JPG,AFNE01.JPG,3,5,35,3,,,,,,,,,,,,,,,,,,,,,,,AMNE10.jpg,AMNE04.jpg,AMSA16.jpg,AMSA07.jpg,AMNE04.jpg,MN,1,num_6,16,num_6,0.616878595203,,,2017_Nov_06_1159,60.0091809856,MAFE4ImagesEEG,001,101927,
AFNE01.JPG,AFNE01.JPG,AFNE01.JPG,AFNE01.JPG,AFNE01.JPG,AFNE01.JPG,3,6,36,1,,,,,,,,,,,,,,,,,,,,,,,AMSA01.jpg,AMNE03.jpg,AMSA18.jpg,AMNE16.jpg,AMNE03.jpg,MN,1,num_6,32,num_8,0.583512386307,,,2017_Nov_06_1159,60.0091809856,MAFE4ImagesEEG,001,101927,
AFNE01.JPG,AFNE01.JPG,AFNE01.JPG,AFNE01.JPG,AFNE01.JPG,AFNE01.JPG,3,7,37,5,,,,,,,,,,,,,,,,,,,,,,,AMSA12.jpg,AMSA11.jpg,AMNE09.jpg,AMNE20.jpg,AMSA11.jpg,MS,2,num_6,32,num_4,0.650126451626,,,2017_Nov_06_1159,60.0091809856,MAFE4ImagesEEG,001,101927,
AFNE01.JPG,AFNE01.JPG,AFNE01.JPG,AFNE01.JPG,AFNE01.JPG,AFNE01.JPG,3,8,38,8,,,,,,,,,,,,,,,,,,,,,,,AMNE03.jpg,AMNE15.jpg,AMSA20.jpg,AMSA12.jpg,AMSA12.jpg,MS,2,num_4,32,num_6,1.06674364419,,,2017_Nov_06_1159,60.0091809856,MAFE4ImagesEEG,001,101927,
AFNE01.JPG,AFNE01.JPG,AFNE01.JPG,AFNE01.JPG,AFNE01.JPG,AFNE01.JPG,3,9,39,9,,,,,,,,,,,,,,,,,,,,,,,AMSA10.jpg,AMSA12.jpg,AMNE10.jpg,AMNE18.jpg,AMSA12.jpg,MS,2,num_6,16,num_6,0.616771147586,,,2017_Nov_06_1159,60.0091809856,MAFE4ImagesEEG,001,101927,
AFNE01.JPG,AFNE01.JPG,AFNE01.JPG,AFNE01.JPG,AFNE01.JPG,AFNE01.JPG,4,0,40,7,,,,,,,,,,,,,,,,,,,,,,,AMSA03.jpg,AMSA08.jpg,AMNE01.jpg,AMNE16.jpg,AMNE01.jpg,MN,1,num_2,32,num_8,0.783417768078,,,2017_Nov_06_1159,60.0091809856,MAFE4ImagesEEG,001,101927,
AFNE01.JPG,AFNE01.JPG,AFNE01.JPG,AFNE01.JPG,AFNE01.JPG,AFNE01.JPG,4,1,41,1,,,,,,,,,,,,,,,,,,,,,,,AMSA05.jpg,AMNE11.jpg,AMNE01.jpg,AMSA15.jpg,AMSA05.jpg,MS,2,num_8,32,num_4,0.666683345102,,,2017_Nov_06_1159,60.0091809856,MAFE4ImagesEEG,001,101927,
AFNE01.JPG,AFNE01.JPG,AFNE01.JPG,AFNE01.JPG,AFNE01.JPG,AFNE01.JPG,4,2,42,0,,,,,,,,,,,,,,,,,,,,,,,AMNE18.jpg,AMSA05.jpg,AMSA03.jpg,AMNE05.jpg,AMSA05.jpg,MS,2,num_6,32,num_4,0.683489132673,,,2017_Nov_06_1159,60.0091809856,MAFE4ImagesEEG,001,101927,
AFNE01.JPG,AFNE01.JPG,AFNE01.JPG,AFNE01.JPG,AFNE01.JPG,AFNE01.JPG,4,3,43,5,,,,,,,,,,,,,,,,,,,,,,,AMNE06.jpg,AMSA02.jpg,AMNE13.jpg,AMSA07.jpg,AMSA07.jpg,MS,2,num_4,32,num_8,0.500183302443,,,2017_Nov_06_1159,60.0091809856,MAFE4ImagesEEG,001,101927,
AFNE01.JPG,AFNE01.JPG,AFNE01.JPG,AFNE01.JPG,AFNE01.JPG,AFNE01.JPG,4,4,44,8,,,,,,,,,,,,,,,,,,,,,,,AMNE11.jpg,AMSA05.jpg,AMSA11.jpg,AMNE02.jpg,AMSA05.jpg,MS,2,num_6,32,num_2,0.916772911791,,,2017_Nov_06_1159,60.0091809856,MAFE4ImagesEEG,001,101927,
AFNE01.JPG,AFNE01.JPG,AFNE01.JPG,AFNE01.JPG,AFNE01.JPG,AFNE01.JPG,4,5,45,9,,,,,,,,,,,,,,,,,,,,,,,AMNE04.jpg,AMNE19.jpg,AMSA07.jpg,AMSA20.jpg,AMNE19.jpg,MN,1,num_6,16,num_6,0.583704829682,,,2017_Nov_06_1159,60.0091809856,MAFE4ImagesEEG,001,101927,
AFNE01.JPG,AFNE01.JPG,AFNE01.JPG,AFNE01.JPG,AFNE01.JPG,AFNE01.JPG,4,6,46,3,,,,,,,,,,,,,,,,,,,,,,,AMSA16.jpg,AMSA04.jpg,AMNE12.jpg,AMNE02.jpg,AMSA16.jpg,MS,2,num_8,16,num_8,0.666639724746,,,2017_Nov_06_1159,60.0091809856,MAFE4ImagesEEG,001,101927,
AFNE01.JPG,AFNE01.JPG,AFNE01.JPG,AFNE01.JPG,AFNE01.JPG,AFNE01.JPG,4,7,47,4,,,,,,,,,,,,,,,,,,,,,,,AMNE20.jpg,AMSA09.jpg,AMNE17.jpg,AMSA16.jpg,AMSA09.jpg,MS,2,num_6,16,num_6,0.73343629064,,,2017_Nov_06_1159,60.0091809856,MAFE4ImagesEEG,001,101927,
AFNE01.JPG,AFNE01.JPG,AFNE01.JPG,AFNE01.JPG,AFNE01.JPG,AFNE01.JPG,4,8,48,6,,,,,,,,,,,,,,,,,,,,,,,AMSA12.jpg,AMNE01.jpg,AMNE11.jpg,AMSA10.jpg,AMNE01.jpg,MN,1,num_6,32,num_8,0.683523131069,,,2017_Nov_06_1159,60.0091809856,MAFE4ImagesEEG,001,101927,
AFNE01.JPG,AFNE01.JPG,AFNE01.JPG,AFNE01.JPG,AFNE01.JPG,AFNE01.JPG,4,9,49,2,,,,,,,,,,,,,,,,,,,,,,,AMSA04.jpg,AMNE14.jpg,AMSA08.jpg,AMNE20.jpg,AMNE20.jpg,MN,1,num_4,16,num_4,0.650143771665,,,2017_Nov_06_1159,60.0091809856,MAFE4ImagesEEG,001,101927,
AFNE01.JPG,AFNE01.JPG,AFNE01.JPG,AFNE01.JPG,AFNE01.JPG,AFNE01.JPG,5,0,50,6,,,,,,,,,,,,,,,,,,,,,,,AMSA09.jpg,AMNE03.jpg,AMSA07.jpg,AMNE14.jpg,AMSA09.jpg,MS,2,num_8,16,num_8,0.583598664962,,,2017_Nov_06_1159,60.0091809856,MAFE4ImagesEEG,001,101927,
AFNE01.JPG,AFNE01.JPG,AFNE01.JPG,AFNE01.JPG,AFNE01.JPG,AFNE01.JPG,5,1,51,4,,,,,,,,,,,,,,,,,,,,,,,AMNE04.jpg,AMNE09.jpg,AMSA02.jpg,AMSA07.jpg,AMSA07.jpg,MS,2,num_4,32,num_2,0.533485363936,,,2017_Nov_06_1159,60.0091809856,MAFE4ImagesEEG,001,101927,
AFNE01.JPG,AFNE01.JPG,AFNE01.JPG,AFNE01.JPG,AFNE01.JPG,AFNE01.JPG,5,2,52,8,,,,,,,,,,,,,,,,,,,,,,,AMNE15.jpg,AMSA02.jpg,AMNE05.jpg,AMSA09.jpg,AMSA09.jpg,MS,2,num_4,16,num_4,0.733540210407,,,2017_Nov_06_1159,60.0091809856,MAFE4ImagesEEG,001,101927,
AFNE01.JPG,AFNE01.JPG,AFNE01.JPG,AFNE01.JPG,AFNE01.JPG,AFNE01.JPG,5,3,53,2,,,,,,,,,,,,,,,,,,,,,,,AMSA10.jpg,AMSA01.jpg,AMNE09.jpg,AMNE02.jpg,AMSA10.jpg,MS,2,num_8,32,num_2,0.766898400849,,,2017_Nov_06_1159,60.0091809856,MAFE4ImagesEEG,001,101927,
AFNE01.JPG,AFNE01.JPG,AFNE01.JPG,AFNE01.JPG,AFNE01.JPG,AFNE01.JPG,5,4,54,1,,,,,,,,,,,,,,,,,,,,,,,AMNE11.jpg,AMSA18.jpg,AMSA11.jpg,AMNE10.jpg,AMNE10.jpg,MN,1,num_4,32,num_8,0.583615343319,,,2017_Nov_06_1159,60.0091809856,MAFE4ImagesEEG,001,101927,
AFNE01.JPG,AFNE01.JPG,AFNE01.JPG,AFNE01.JPG,AFNE01.JPG,AFNE01.JPG,5,5,55,5,,,,,,,,,,,,,,,,,,,,,,,AMSA17.jpg,AMSA15.jpg,AMNE06.jpg,AMNE14.jpg,AMSA17.jpg,MS,2,num_8,32,num_4,0.666768661933,,,2017_Nov_06_1159,60.0091809856,MAFE4ImagesEEG,001,101927,
AFNE01.JPG,AFNE01.JPG,AFNE01.JPG,AFNE01.JPG,AFNE01.JPG,AFNE01.JPG,5,6,56,9,,,,,,,,,,,,,,,,,,,,,,,AMSA19.jpg,AMNE01.jpg,AMNE06.jpg,AMSA20.jpg,AMNE01.jpg,MN,1,num_6,32,num_2,0.450138318818,,,2017_Nov_06_1159,60.0091809856,MAFE4ImagesEEG,001,101927,
AFNE01.JPG,AFNE01.JPG,AFNE01.JPG,AFNE01.JPG,AFNE01.JPG,AFNE01.JPG,5,7,57,7,,,,,,,,,,,,,,,,,,,,,,,AMNE18.jpg,AMSA01.jpg,AMNE02.jpg,AMSA07.jpg,AMNE18.jpg,MN,1,num_8,16,num_8,0.90013166354,,,2017_Nov_06_1159,60.0091809856,MAFE4ImagesEEG,001,101927,
AFNE01.JPG,AFNE01.JPG,AFNE01.JPG,AFNE01.JPG,AFNE01.JPG,AFNE01.JPG,5,8,58,3,,,,,,,,,,,,,,,,,,,,,,,AMNE11.jpg,AMNE19.jpg,AMSA12.jpg,AMSA19.jpg,AMSA19.jpg,MS,2,num_4,32,num_6,0.533508136403,,,2017_Nov_06_1159,60.0091809856,MAFE4ImagesEEG,001,101927,
AFNE01.JPG,AFNE01.JPG,AFNE01.JPG,AFNE01.JPG,AFNE01.JPG,AFNE01.JPG,5,9,59,0,,,,,,,,,,,,,,,,,,,,,,,AMNE06.jpg,AMSA17.jpg,AMNE08.jpg,AMSA16.jpg,AMNE06.jpg,MN,1,num_8,16,num_8,0.566798330285,,,2017_Nov_06_1159,60.0091809856,MAFE4ImagesEEG,001,101927,
,,,,,,,,,,,,,,,,,,,,,,,,,,,,,,,,,,,,,,,,,,,space,13.5820934344,2017_Nov_06_1159,60.0091809856,MAFE4ImagesEEG,001,101927,
AFNE01.JPG,AFNE01.JPG,AFNE01.JPG,AFNE01.JPG,AFNE01.JPG,AFNE01.JPG,,,,,0,0,0,7,,,,,,,,,,,,,,,,,,,AFNE01.jpg,AFSA19.jpg,AFSA04.jpg,AFNE13.jpg,AFSA04.jpg,FS,4,num_2,32,num_8,0.600141125498,,,2017_Nov_06_1159,60.0091809856,MAFE4ImagesEEG,001,101927,
AFNE01.JPG,AFNE01.JPG,AFNE01.JPG,AFNE01.JPG,AFNE01.JPG,AFNE01.JPG,,,,,0,1,1,9,,,,,,,,,,,,,,,,,,,AFNE06.jpg,AFSA07.jpg,AFNE13.jpg,AFSA02.jpg,AFNE13.jpg,FN,3,num_2,32,num_4,0.466831206111,,,2017_Nov_06_1159,60.0091809856,MAFE4ImagesEEG,001,101927,
AFNE01.JPG,AFNE01.JPG,AFNE01.JPG,AFNE01.JPG,AFNE01.JPG,AFNE01.JPG,,,,,0,2,2,0,,,,,,,,,,,,,,,,,,,AFNE19.jpg,AFSA02.jpg,AFSA07.jpg,AFNE17.jpg,AFSA07.jpg,FS,4,num_2,16,num_2,0.716773553053,,,2017_Nov_06_1159,60.0091809856,MAFE4ImagesEEG,001,101927,
AFNE01.JPG,AFNE01.JPG,AFNE01.JPG,AFNE01.JPG,AFNE01.JPG,AFNE01.JPG,,,,,0,3,3,5,,,,,,,,,,,,,,,,,,,AFSA14.jpg,AFNE01.jpg,AFSA08.jpg,AFNE02.jpg,AFNE01.jpg,FN,3,num_6,32,num_8,0.416841710219,,,2017_Nov_06_1159,60.0091809856,MAFE4ImagesEEG,001,101927,
AFNE01.JPG,AFNE01.JPG,AFNE01.JPG,AFNE01.JPG,AFNE01.JPG,AFNE01.JPG,,,,,0,4,4,6,,,,,,,,,,,,,,,,,,,AFNE09.jpg,AFNE10.jpg,AFSA12.jpg,AFSA13.jpg,AFSA12.jpg,FS,4,num_2,32,num_6,0.550167025067,,,2017_Nov_06_1159,60.0091809856,MAFE4ImagesEEG,001,101927,
AFNE01.JPG,AFNE01.JPG,AFNE01.JPG,AFNE01.JPG,AFNE01.JPG,AFNE01.JPG,,,,,0,5,5,8,,,,,,,,,,,,,,,,,,,AFSA01.jpg,AFNE04.jpg,AFSA03.jpg,AFNE01.jpg,AFSA01.jpg,FS,4,num_8,32,num_2,1.63342843251,,,2017_Nov_06_1159,60.0091809856,MAFE4ImagesEEG,001,101927,
AFNE01.JPG,AFNE01.JPG,AFNE01.JPG,AFNE01.JPG,AFNE01.JPG,AFNE01.JPG,,,,,0,6,6,1,,,,,,,,,,,,,,,,,,,AFNE15.jpg,AFNE09.jpg,AFSA05.jpg,AFSA02.jpg,AFSA05.jpg,FS,4,num_2,32,num_4,0.683491057018,,,2017_Nov_06_1159,60.0091809856,MAFE4ImagesEEG,001,101927,
AFNE01.JPG,AFNE01.JPG,AFNE01.JPG,AFNE01.JPG,AFNE01.JPG,AFNE01.JPG,,,,,0,7,7,3,,,,,,,,,,,,,,,,,,,AFNE02.jpg,AFSA15.jpg,AFNE15.jpg,AFSA05.jpg,AFNE02.jpg,FN,3,num_8,16,num_8,0.633461468853,,,2017_Nov_06_1159,60.0091809856,MAFE4ImagesEEG,001,101927,
AFNE01.JPG,AFNE01.JPG,AFNE01.JPG,AFNE01.JPG,AFNE01.JPG,AFNE01.JPG,,,,,0,8,8,2,,,,,,,,,,,,,,,,,,,AFSA09.jpg,AFNE20.jpg,AFNE02.jpg,AFSA11.jpg,AFSA09.jpg,FS,4,num_8,32,num_2,0.466762888478,,,2017_Nov_06_1159,60.0091809856,MAFE4ImagesEEG,001,101927,
AFNE01.JPG,AFNE01.JPG,AFNE01.JPG,AFNE01.JPG,AFNE01.JPG,AFNE01.JPG,,,,,0,9,9,4,,,,,,,,,,,,,,,,,,,AFSA15.jpg,AFNE10.jpg,AFSA16.jpg,AFNE19.jpg,AFNE19.jpg,FN,3,num_4,16,num_4,0.438760405872,,,2017_Nov_06_1159,60.0091809856,MAFE4ImagesEEG,001,101927,
AFNE01.JPG,AFNE01.JPG,AFNE01.JPG,AFNE01.JPG,AFNE01.JPG,AFNE01.JPG,,,,,1,0,10,7,,,,,,,,,,,,,,,,,,,AFNE19.jpg,AFSA17.jpg,AFSA16.jpg,AFNE11.jpg,AFNE19.jpg,FN,3,num_8,16,num_8,0.58349955664,,,2017_Nov_06_1159,60.0091809856,MAFE4ImagesEEG,001,101927,
AFNE01.JPG,AFNE01.JPG,AFNE01.JPG,AFNE01.JPG,AFNE01.JPG,AFNE01.JPG,,,,,1,1,11,4,,,,,,,,,,,,,,,,,,,AFSA13.jpg,AFSA06.jpg,AFNE10.jpg,AFNE03.jpg,AFSA13.jpg,FS,4,num_8,16,num_8,0.533495627576,,,2017_Nov_06_1159,60.0091809856,MAFE4ImagesEEG,001,101927,
AFNE01.JPG,AFNE01.JPG,AFNE01.JPG,AFNE01.JPG,AFNE01.JPG,AFNE01.JPG,,,,,1,2,12,1,,,,,,,,,,,,,,,,,,,AFSA16.jpg,AFSA18.jpg,AFNE04.jpg,AFNE09.jpg,AFNE09.jpg,FN,3,num_4,32,num_6,0.583476142492,,,2017_Nov_06_1159,60.0091809856,MAFE4ImagesEEG,001,101927,
AFNE01.JPG,AFNE01.JPG,AFNE01.JPG,AFNE01.JPG,AFNE01.JPG,AFNE01.JPG,,,,,1,3,13,3,,,,,,,,,,,,,,,,,,,AFNE15.jpg,AFSA09.jpg,AFNE05.jpg,AFSA03.jpg,AFNE15.jpg,FN,3,num_8,32,num_4,0.650162374368,,,2017_Nov_06_1159,60.0091809856,MAFE4ImagesEEG,001,101927,
AFNE01.JPG,AFNE01.JPG,AFNE01.JPG,AFNE01.JPG,AFNE01.JPG,AFNE01.JPG,,,,,1,4,14,2,,,,,,,,,,,,,,,,,,,AFNE14.jpg,AFSA03.jpg,AFSA14.jpg,AFNE04.jpg,AFNE14.jpg,FN,3,num_8,16,num_8,0.800127012888,,,2017_Nov_06_1159,60.0091809856,MAFE4ImagesEEG,001,101927,
AFNE01.JPG,AFNE01.JPG,AFNE01.JPG,AFNE01.JPG,AFNE01.JPG,AFNE01.JPG,,,,,1,5,15,5,,,,,,,,,,,,,,,,,,,AFNE08.jpg,AFSA14.jpg,AFNE05.jpg,AFSA18.jpg,AFSA14.jpg,FS,4,num_6,32,num_2,0.550238549942,,,2017_Nov_06_1159,60.0091809856,MAFE4ImagesEEG,001,101927,
AFNE01.JPG,AFNE01.JPG,AFNE01.JPG,AFNE01.JPG,AFNE01.JPG,AFNE01.JPG,,,,,1,6,16,0,,,,,,,,,,,,,,,,,,,AFNE04.jpg,AFSA12.jpg,AFSA01.jpg,AFNE15.jpg,AFSA01.jpg,FS,4,num_2,16,num_2,0.683504207525,,,2017_Nov_06_1159,60.0091809856,MAFE4ImagesEEG,001,101927,
AFNE01.JPG,AFNE01.JPG,AFNE01.JPG,AFNE01.JPG,AFNE01.JPG,AFNE01.JPG,,,,,1,7,17,8,,,,,,,,,,,,,,,,,,,AFNE15.jpg,AFNE02.jpg,AFSA17.jpg,AFSA06.jpg,AFNE02.jpg,FN,3,num_6,32,num_8,0.616783977253,,,2017_Nov_06_1159,60.0091809856,MAFE4ImagesEEG,001,101927,
AFNE01.JPG,AFNE01.JPG,AFNE01.JPG,AFNE01.JPG,AFNE01.JPG,AFNE01.JPG,,,,,1,8,18,6,,,,,,,,,,,,,,,,,,,AFSA11.jpg,AFNE07.jpg,AFNE03.jpg,AFSA13.jpg,AFNE07.jpg,FN,3,num_6,16,num_6,0.650128696812,,,2017_Nov_06_1159,60.0091809856,MAFE4ImagesEEG,001,101927,
AFNE01.JPG,AFNE01.JPG,AFNE01.JPG,AFNE01.JPG,AFNE01.JPG,AFNE01.JPG,,,,,1,9,19,9,,,,,,,,,,,,,,,,,,,AFSA09.jpg,AFNE07.jpg,AFSA11.jpg,AFNE09.jpg,AFSA09.jpg,FS,4,num_8,32,num_4,0.533532191766,,,2017_Nov_06_1159,60.0091809856,MAFE4ImagesEEG,001,101927,
AFNE01.JPG,AFNE01.JPG,AFNE01.JPG,AFNE01.JPG,AFNE01.JPG,AFNE01.JPG,,,,,2,0,20,0,,,,,,,,,,,,,,,,,,,AFNE03.jpg,AFSA06.jpg,AFSA03.jpg,AFNE13.jpg,AFNE13.jpg,FN,3,num_4,32,num_6,0.466824470321,,,2017_Nov_06_1159,60.0091809856,MAFE4ImagesEEG,001,101927,
AFNE01.JPG,AFNE01.JPG,AFNE01.JPG,AFNE01.JPG,AFNE01.JPG,AFNE01.JPG,,,,,2,1,21,9,,,,,,,,,,,,,,,,,,,AFNE04.jpg,AFSA05.jpg,AFSA19.jpg,AFNE02.jpg,AFSA05.jpg,FS,4,num_6,32,num_2,0.483469888102,,,2017_Nov_06_1159,60.0091809856,MAFE4ImagesEEG,001,101927,
AFNE01.JPG,AFNE01.JPG,AFNE01.JPG,AFNE01.JPG,AFNE01.JPG,AFNE01.JPG,,,,,2,2,22,2,,,,,,,,,,,,,,,,,,,AFNE05.jpg,AFSA15.jpg,AFNE10.jpg,AFSA18.jpg,AFSA18.jpg,FS,4,num_4,16,num_4,0.550397315994,,,2017_Nov_06_1159,60.0091809856,MAFE4ImagesEEG,001,101927,
AFNE01.JPG,AFNE01.JPG,AFNE01.JPG,AFNE01.JPG,AFNE01.JPG,AFNE01.JPG,,,,,2,3,23,4,,,,,,,,,,,,,,,,,,,AFNE10.jpg,AFSA08.jpg,AFNE16.jpg,AFSA04.jpg,AFNE10.jpg,FN,3,num_8,16,num_8,0.450167827075,,,2017_Nov_06_1159,60.0091809856,MAFE4ImagesEEG,001,101927,
AFNE01.JPG,AFNE01.JPG,AFNE01.JPG,AFNE01.JPG,AFNE01.JPG,AFNE01.JPG,,,,,2,4,24,3,,,,,,,,,,,,,,,,,,,AFNE14.jpg,AFSA17.jpg,AFSA08.jpg,AFNE11.jpg,AFNE11.jpg,FN,3,num_4,32,num_6,0.600222914014,,,2017_Nov_06_1159,60.0091809856,MAFE4ImagesEEG,001,101927,
AFNE01.JPG,AFNE01.JPG,AFNE01.JPG,AFNE01.JPG,AFNE01.JPG,AFNE01.JPG,,,,,2,5,25,7,,,,,,,,,,,,,,,,,,,AFSA17.jpg,AFNE05.jpg,AFNE16.jpg,AFSA03.jpg,AFNE16.jpg,FN,3,num_2,32,num_4,0.516826154198,,,2017_Nov_06_1159,60.0091809856,MAFE4ImagesEEG,001,101927,
AFNE01.JPG,AFNE01.JPG,AFNE01.JPG,AFNE01.JPG,AFNE01.JPG,AFNE01.JPG,,,,,2,6,26,5,,,,,,,,,,,,,,,,,,,AFSA13.jpg,AFNE11.jpg,AFNE20.jpg,AFSA18.jpg,AFNE20.jpg,FN,3,num_2,16,num_2,0.516801136779,,,2017_Nov_06_1159,60.0091809856,MAFE4ImagesEEG,001,101927,
AFNE01.JPG,AFNE01.JPG,AFNE01.JPG,AFNE01.JPG,AFNE01.JPG,AFNE01.JPG,,,,,2,7,27,8,,,,,,,,,,,,,,,,,,,AFNE05.jpg,AFNE07.jpg,AFSA08.jpg,AFSA15.jpg,AFSA08.jpg,FS,4,num_2,32,num_6,0.666766737355,,,2017_Nov_06_1159,60.0091809856,MAFE4ImagesEEG,001,101927,
AFNE01.JPG,AFNE01.JPG,AFNE01.JPG,AFNE01.JPG,AFNE01.JPG,AFNE01.JPG,,,,,2,8,28,6,,,,,,,,,,,,,,,,,,,AFSA18.jpg,AFSA19.jpg,AFNE03.jpg,AFNE02.jpg,AFNE02.jpg,FN,3,num_4,16,num_4,0.650144412881,,,2017_Nov_06_1159,60.0091809856,MAFE4ImagesEEG,001,101927,
AFNE01.JPG,AFNE01.JPG,AFNE01.JPG,AFNE01.JPG,AFNE01.JPG,AFNE01.JPG,,,,,2,9,29,1,,,,,,,,,,,,,,,,,,,AFNE01.jpg,AFNE18.jpg,AFSA06.jpg,AFSA05.jpg,AFNE18.jpg,FN,3,num_6,16,num_6,0.600130861858,,,2017_Nov_06_1159,60.0091809856,MAFE4ImagesEEG,001,101927,
AFNE01.JPG,AFNE01.JPG,AFNE01.JPG,AFNE01.JPG,AFNE01.JPG,AFNE01.JPG,,,,,3,0,30,9,,,,,,,,,,,,,,,,,,,AFNE05.jpg,AFSA02.jpg,AFNE11.jpg,AFSA04.jpg,AFNE11.jpg,FN,3,num_2,16,num_2,0.783430597745,,,2017_Nov_06_1159,60.0091809856,MAFE4ImagesEEG,001,101927,
AFNE01.JPG,AFNE01.JPG,AFNE01.JPG,AFNE01.JPG,AFNE01.JPG,AFNE01.JPG,,,,,3,1,31,8,,,,,,,,,,,,,,,,,,,AFSA01.jpg,AFNE07.jpg,AFSA16.jpg,AFNE13.jpg,AFNE07.jpg,FN,3,num_6,16,num_6,0.516768421279,,,2017_Nov_06_1159,60.0091809856,MAFE4ImagesEEG,001,101927,
AFNE01.JPG,AFNE01.JPG,AFNE01.JPG,AFNE01.JPG,AFNE01.JPG,AFNE01.JPG,,,,,3,2,32,2,,,,,,,,,,,,,,,,,,,AFSA08.jpg,AFNE10.jpg,AFNE12.jpg,AFSA10.jpg,AFSA10.jpg,FS,4,num_4,32,num_8,0.366865043994,,,2017_Nov_06_1159,60.0091809856,MAFE4ImagesEEG,001,101927,
AFNE01.JPG,AFNE01.JPG,AFNE01.JPG,AFNE01.JPG,AFNE01.JPG,AFNE01.JPG,,,,,3,3,33,1,,,,,,,,,,,,,,,,,,,AFNE02.jpg,AFNE09.jpg,AFSA15.jpg,AFSA04.jpg,AFSA04.jpg,FS,4,num_4,16,num_4,0.750181137584,,,2017_Nov_06_1159,60.0091809856,MAFE4ImagesEEG,001,101927,
AFNE01.JPG,AFNE01.JPG,AFNE01.JPG,AFNE01.JPG,AFNE01.JPG,AFNE01.JPG,,,,,3,4,34,7,,,,,,,,,,,,,,,,,,,AFNE05.jpg,AFNE04.jpg,AFSA16.jpg,AFSA06.jpg,AFSA06.jpg,FS,4,num_4,32,num_2,0.633464355487,,,2017_Nov_06_1159,60.0091809856,MAFE4ImagesEEG,001,101927,
AFNE01.JPG,AFNE01.JPG,AFNE01.JPG,AFNE01.JPG,AFNE01.JPG,AFNE01.JPG,,,,,3,5,35,0,,,,,,,,,,,,,,,,,,,AFNE10.jpg,AFSA14.jpg,AFNE04.jpg,AFSA06.jpg,AFSA06.jpg,FS,4,num_4,32,num_8,0.633467242122,,,2017_Nov_06_1159,60.0091809856,MAFE4ImagesEEG,001,101927,
AFNE01.JPG,AFNE01.JPG,AFNE01.JPG,AFNE01.JPG,AFNE01.JPG,AFNE01.JPG,,,,,3,6,36,5,,,,,,,,,,,,,,,,,,,AFSA16.jpg,AFSA01.jpg,AFNE14.jpg,AFNE12.jpg,AFSA01.jpg,FS,4,num_6,32,num_8,0.683751176577,,,2017_Nov_06_1159,60.0091809856,MAFE4ImagesEEG,001,101927,
AFNE01.JPG,AFNE01.JPG,AFNE01.JPG,AFNE01.JPG,AFNE01.JPG,AFNE01.JPG,,,,,3,7,37,3,,,,,,,,,,,,,,,,,,,AFSA11.jpg,AFNE13.jpg,AFSA05.jpg,AFNE15.jpg,AFNE15.jpg,FN,3,num_4,16,num_4,0.433522730134,,,2017_Nov_06_1159,60.0091809856,MAFE4ImagesEEG,001,101927,
AFNE01.JPG,AFNE01.JPG,AFNE01.JPG,AFNE01.JPG,AFNE01.JPG,AFNE01.JPG,,,,,3,8,38,6,,,,,,,,,,,,,,,,,,,AFNE02.jpg,AFSA01.jpg,AFNE06.jpg,AFSA20.jpg,AFNE02.jpg,FN,3,num_8,16,num_8,0.633448960027,,,2017_Nov_06_1159,60.0091809856,MAFE4ImagesEEG,001,101927,
AFNE01.JPG,AFNE01.JPG,AFNE01.JPG,AFNE01.JPG,AFNE01.JPG,AFNE01.JPG,,,,,3,9,39,4,,,,,,,,,,,,,,,,,,,AFNE04.jpg,AFNE16.jpg,AFSA05.jpg,AFSA14.jpg,AFSA14.jpg,FS,4,num_4,32,num_2,0.666624329053,,,2017_Nov_06_1159,60.0091809856,MAFE4ImagesEEG,001,101927,
AFNE01.JPG,AFNE01.JPG,AFNE01.JPG,AFNE01.JPG,AFNE01.JPG,AFNE01.JPG,,,,,4,0,40,9,,,,,,,,,,,,,,,,,,,AFSA15.jpg,AFNE15.jpg,AFSA19.jpg,AFNE10.jpg,AFNE10.jpg,FN,3,num_4,32,num_6,0.683463152731,,,2017_Nov_06_1159,60.0091809856,MAFE4ImagesEEG,001,101927,
AFNE01.JPG,AFNE01.JPG,AFNE01.JPG,AFNE01.JPG,AFNE01.JPG,AFNE01.JPG,,,,,4,1,41,1,,,,,,,,,,,,,,,,,,,AFNE02.jpg,AFNE11.jpg,AFSA12.jpg,AFSA18.jpg,AFSA18.jpg,FS,4,num_4,16,num_4,0.683495226549,,,2017_Nov_06_1159,60.0091809856,MAFE4ImagesEEG,001,101927,
AFNE01.JPG,AFNE01.JPG,AFNE01.JPG,AFNE01.JPG,AFNE01.JPG,AFNE01.JPG,,,,,4,2,42,6,,,,,,,,,,,,,,,,,,,AFNE16.jpg,AFSA20.jpg,AFNE11.jpg,AFSA16.jpg,AFSA16.jpg,FS,4,num_4,32,num_8,0.550192363327,,,2017_Nov_06_1159,60.0091809856,MAFE4ImagesEEG,001,101927,
AFNE01.JPG,AFNE01.JPG,AFNE01.JPG,AFNE01.JPG,AFNE01.JPG,AFNE01.JPG,,,,,4,3,43,7,,,,,,,,,,,,,,,,,,,AFSA15.jpg,AFNE13.jpg,AFSA20.jpg,AFNE16.jpg,AFNE16.jpg,FN,3,num_4,16,num_4,0.583336620824,,,2017_Nov_06_1159,60.0091809856,MAFE4ImagesEEG,001,101927,
AFNE01.JPG,AFNE01.JPG,AFNE01.JPG,AFNE01.JPG,AFNE01.JPG,AFNE01.JPG,,,,,4,4,44,5,,,,,,,,,,,,,,,,,,,AFNE09.jpg,AFNE07.jpg,AFSA14.jpg,AFSA16.jpg,AFNE09.jpg,FN,3,num_8,32,num_2,0.716762327356,,,2017_Nov_06_1159,60.0091809856,MAFE4ImagesEEG,001,101927,
AFNE01.JPG,AFNE01.JPG,AFNE01.JPG,AFNE01.JPG,AFNE01.JPG,AFNE01.JPG,,,,,4,5,45,8,,,,,,,,,,,,,,,,,,,AFNE06.jpg,AFSA01.jpg,AFSA03.jpg,AFNE11.jpg,AFNE11.jpg,FN,3,num_4,32,num_8,0.533454572782,,,2017_Nov_06_1159,60.0091809856,MAFE4ImagesEEG,001,101927,
AFNE01.JPG,AFNE01.JPG,AFNE01.JPG,AFNE01.JPG,AFNE01.JPG,AFNE01.JPG,,,,,4,6,46,3,,,,,,,,,,,,,,,,,,,AFSA16.jpg,AFNE11.jpg,AFNE08.jpg,AFSA05.jpg,AFNE08.jpg,FN,3,num_2,32,num_6,0.566681901924,,,2017_Nov_06_1159,60.0091809856,MAFE4ImagesEEG,001,101927,
AFNE01.JPG,AFNE01.JPG,AFNE01.JPG,AFNE01.JPG,AFNE01.JPG,AFNE01.JPG,,,,,4,7,47,2,,,,,,,,,,,,,,,,,,,AFSA18.jpg,AFNE03.jpg,AFNE19.jpg,AFSA04.jpg,AFSA18.jpg,FS,4,num_8,16,num_8,0.500211848412,,,2017_Nov_06_1159,60.0091809856,MAFE4ImagesEEG,001,101927,
AFNE01.JPG,AFNE01.JPG,AFNE01.JPG,AFNE01.JPG,AFNE01.JPG,AFNE01.JPG,,,,,4,8,48,0,,,,,,,,,,,,,,,,,,,AFNE15.jpg,AFSA05.jpg,AFSA15.jpg,AFNE08.jpg,AFSA05.jpg,FS,4,num_6,16,num_6,0.450182260247,,,2017_Nov_06_1159,60.0091809856,MAFE4ImagesEEG,001,101927,
AFNE01.JPG,AFNE01.JPG,AFNE01.JPG,AFNE01.JPG,AFNE01.JPG,AFNE01.JPG,,,,,4,9,49,4,,,,,,,,,,,,,,,,,,,AFSA01.jpg,AFNE06.jpg,AFSA10.jpg,AFNE19.jpg,AFSA01.jpg,FS,4,num_8,32,num_4,0.716841549845,,,2017_Nov_06_1159,60.0091809856,MAFE4ImagesEEG,001,101927,
AFNE01.JPG,AFNE01.JPG,AFNE01.JPG,AFNE01.JPG,AFNE01.JPG,AFNE01.JPG,,,,,5,0,50,5,,,,,,,,,,,,,,,,,,,AFSA05.jpg,AFSA11.jpg,AFNE01.jpg,AFNE16.jpg,AFSA05.jpg,FS,4,num_8,32,num_6,0.633447676897,,,2017_Nov_06_1159,60.0091809856,MAFE4ImagesEEG,001,101927,
AFNE01.JPG,AFNE01.JPG,AFNE01.JPG,AFNE01.JPG,AFNE01.JPG,AFNE01.JPG,,,,,5,1,51,4,,,,,,,,,,,,,,,,,,,AFNE18.jpg,AFSA07.jpg,AFSA19.jpg,AFNE06.jpg,AFSA07.jpg,FS,4,num_6,32,num_8,0.51678766543,,,2017_Nov_06_1159,60.0091809856,MAFE4ImagesEEG,001,101927,
AFNE01.JPG,AFNE01.JPG,AFNE01.JPG,AFNE01.JPG,AFNE01.JPG,AFNE01.JPG,,,,,5,2,52,6,,,,,,,,,,,,,,,,,,,AFSA09.jpg,AFNE13.jpg,AFNE06.jpg,AFSA18.jpg,AFSA18.jpg,FS,4,num_4,32,num_2,0.500188434497,,,2017_Nov_06_1159,60.0091809856,MAFE4ImagesEEG,001,101927,
AFNE01.JPG,AFNE01.JPG,AFNE01.JPG,AFNE01.JPG,AFNE01.JPG,AFNE01.JPG,,,,,5,3,53,1,,,,,,,,,,,,,,,,,,,AFNE13.jpg,AFNE17.jpg,AFSA20.jpg,AFSA19.jpg,AFSA19.jpg,FS,4,num_4,16,num_4,0.366786142113,,,2017_Nov_06_1159,60.0091809856,MAFE4ImagesEEG,001,101927,
AFNE01.JPG,AFNE01.JPG,AFNE01.JPG,AFNE01.JPG,AFNE01.JPG,AFNE01.JPG,,,,,5,4,54,2,,,,,,,,,,,,,,,,,,,AFNE13.jpg,AFSA02.jpg,AFSA14.jpg,AFNE14.jpg,AFSA02.jpg,FS,4,num_6,16,num_6,0.433501240565,,,2017_Nov_06_1159,60.0091809856,MAFE4ImagesEEG,001,101927,
AFNE01.JPG,AFNE01.JPG,AFNE01.JPG,AFNE01.JPG,AFNE01.JPG,AFNE01.JPG,,,,,5,5,55,9,,,,,,,,,,,,,,,,,,,AFSA09.jpg,AFNE16.jpg,AFNE02.jpg,AFSA14.jpg,AFNE02.jpg,FN,3,num_2,32,num_8,0.400151389185,,,2017_Nov_06_1159,60.0091809856,MAFE4ImagesEEG,001,101927,
AFNE01.JPG,AFNE01.JPG,AFNE01.JPG,AFNE01.JPG,AFNE01.JPG,AFNE01.JPG,,,,,5,6,56,3,,,,,,,,,,,,,,,,,,,AFNE08.jpg,AFNE13.jpg,AFSA09.jpg,AFSA10.jpg,AFSA10.jpg,FS,4,num_4,16,num_4,0.566909626825,,,2017_Nov_06_1159,60.0091809856,MAFE4ImagesEEG,001,101927,
AFNE01.JPG,AFNE01.JPG,AFNE01.JPG,AFNE01.JPG,AFNE01.JPG,AFNE01.JPG,,,,,5,7,57,0,,,,,,,,,,,,,,,,,,,AFNE04.jpg,AFSA04.jpg,AFSA03.jpg,AFNE18.jpg,AFSA04.jpg,FS,4,num_6,16,num_6,0.583511103177,,,2017_Nov_06_1159,60.0091809856,MAFE4ImagesEEG,001,101927,
AFNE01.JPG,AFNE01.JPG,AFNE01.JPG,AFNE01.JPG,AFNE01.JPG,AFNE01.JPG,,,,,5,8,58,8,,,,,,,,,,,,,,,,,,,AFNE14.jpg,AFSA12.jpg,AFNE18.jpg,AFSA02.jpg,AFSA02.jpg,FS,4,num_4,32,num_2,0.633492580615,,,2017_Nov_06_1159,60.0091809856,MAFE4ImagesEEG,001,101927,
AFNE01.JPG,AFNE01.JPG,AFNE01.JPG,AFNE01.JPG,AFNE01.JPG,AFNE01.JPG,,,,,5,9,59,7,,,,,,,,,,,,,,,,,,,AFSA16.jpg,AFNE16.jpg,AFSA08.jpg,AFNE20.jpg,AFNE20.jpg,FN,3,num_4,16,num_4,0.450149865588,,,2017_Nov_06_1159,60.0091809856,MAFE4ImagesEEG,001,101927,
,,,,,,,,,,,,,,,,,,,,,,,,,,,,,,,,,,,,,,,,,,,space,14.6660351306,2017_Nov_06_1159,60.0091809856,MAFE4ImagesEEG,001,101927,
AFNE01.JPG,AFNE01.JPG,AFNE01.JPG,AFNE01.JPG,AFNE01.JPG,AFNE01.JPG,,,,,,,,,0,0,0,7,,,,,,,,,,,,,,,AMSA14.jpg,AMNE06.jpg,AMNE10.jpg,AMSA19.jpg,AMSA19.jpg,MS,2,num_4,32,num_6,0.783483519452,,,2017_Nov_06_1159,60.0091809856,MAFE4ImagesEEG,001,101927,
AFNE01.JPG,AFNE01.JPG,AFNE01.JPG,AFNE01.JPG,AFNE01.JPG,AFNE01.JPG,,,,,,,,,0,1,1,3,,,,,,,,,,,,,,,AMNE17.jpg,AMSA11.jpg,AMNE04.jpg,AMSA18.jpg,AMNE04.jpg,MN,1,num_2,32,num_8,0.566810839111,,,2017_Nov_06_1159,60.0091809856,MAFE4ImagesEEG,001,101927,
AFNE01.JPG,AFNE01.JPG,AFNE01.JPG,AFNE01.JPG,AFNE01.JPG,AFNE01.JPG,,,,,,,,,0,2,2,1,,,,,,,,,,,,,,,AMNE16.jpg,AMSA12.jpg,AMSA13.jpg,AMNE20.jpg,AMSA12.jpg,MS,2,num_6,16,num_6,0.666848846711,,,2017_Nov_06_1159,60.0091809856,MAFE4ImagesEEG,001,101927,
AFNE01.JPG,AFNE01.JPG,AFNE01.JPG,AFNE01.JPG,AFNE01.JPG,AFNE01.JPG,,,,,,,,,0,3,3,8,,,,,,,,,,,,,,,AMSA09.jpg,AMNE18.jpg,AMNE04.jpg,AMSA20.jpg,AMSA20.jpg,MS,2,num_4,32,num_8,0.516824230086,,,2017_Nov_06_1159,60.0091809856,MAFE4ImagesEEG,001,101927,
AFNE01.JPG,AFNE01.JPG,AFNE01.JPG,AFNE01.JPG,AFNE01.JPG,AFNE01.JPG,,,,,,,,,0,4,4,4,,,,,,,,,,,,,,,AMSA15.jpg,AMNE10.jpg,AMSA03.jpg,AMNE04.jpg,AMSA15.jpg,MS,2,num_8,32,num_2,0.650059417123,,,2017_Nov_06_1159,60.0091809856,MAFE4ImagesEEG,001,101927,
AFNE01.JPG,AFNE01.JPG,AFNE01.JPG,AFNE01.JPG,AFNE01.JPG,AFNE01.JPG,,,,,,,,,0,5,5,2,,,,,,,,,,,,,,,AMSA01.jpg,AMNE08.jpg,AMSA16.jpg,AMNE16.jpg,AMNE16.jpg,MN,1,num_4,16,num_4,0.716795042623,,,2017_Nov_06_1159,60.0091809856,MAFE4ImagesEEG,001,101927,
AFNE01.JPG,AFNE01.JPG,AFNE01.JPG,AFNE01.JPG,AFNE01.JPG,AFNE01.JPG,,,,,,,,,0,6,6,6,,,,,,,,,,,,,,,AMNE08.jpg,AMSA03.jpg,AMSA15.jpg,AMNE18.jpg,AMSA15.jpg,MS,2,num_2,16,num_2,0.616849408019,,,2017_Nov_06_1159,60.0091809856,MAFE4ImagesEEG,001,101927,
AFNE01.JPG,AFNE01.JPG,AFNE01.JPG,AFNE01.JPG,AFNE01.JPG,AFNE01.JPG,,,,,,,,,0,7,7,0,,,,,,,,,,,,,,,AMSA12.jpg,AMSA07.jpg,AMNE05.jpg,AMNE03.jpg,AMNE03.jpg,MN,1,num_4,32,num_2,0.61682663532,,,2017_Nov_06_1159,60.0091809856,MAFE4ImagesEEG,001,101927,
AFNE01.JPG,AFNE01.JPG,AFNE01.JPG,AFNE01.JPG,AFNE01.JPG,AFNE01.JPG,,,,,,,,,0,8,8,5,,,,,,,,,,,,,,,AMSA15.jpg,AMSA13.jpg,AMNE12.jpg,AMNE02.jpg,AMSA13.jpg,MS,2,num_6,32,num_8,0.616809956962,,,2017_Nov_06_1159,60.0091809856,MAFE4ImagesEEG,001,101927,
AFNE01.JPG,AFNE01.JPG,AFNE01.JPG,AFNE01.JPG,AFNE01.JPG,AFNE01.JPG,,,,,,,,,0,9,9,9,,,,,,,,,,,,,,,AMNE02.jpg,AMNE07.jpg,AMSA19.jpg,AMSA08.jpg,AMSA19.jpg,MS,2,num_2,32,num_6,0.400188274216,,,2017_Nov_06_1159,60.0091809856,MAFE4ImagesEEG,001,101927,
AFNE01.JPG,AFNE01.JPG,AFNE01.JPG,AFNE01.JPG,AFNE01.JPG,AFNE01.JPG,,,,,,,,,1,0,10,1,,,,,,,,,,,,,,,AMNE11.jpg,AMNE15.jpg,AMSA20.jpg,AMSA05.jpg,AMNE11.jpg,MN,1,num_8,32,num_2,0.633510541869,,,2017_Nov_06_1159,60.0091809856,MAFE4ImagesEEG,001,101927,
AFNE01.JPG,AFNE01.JPG,AFNE01.JPG,AFNE01.JPG,AFNE01.JPG,AFNE01.JPG,,,,,,,,,1,1,11,0,,,,,,,,,,,,,,,AMNE12.jpg,AMNE04.jpg,AMSA18.jpg,AMSA02.jpg,AMNE12.jpg,MN,1,num_8,16,num_8,0.383578137727,,,2017_Nov_06_1159,60.0091809856,MAFE4ImagesEEG,001,101927,
AFNE01.JPG,AFNE01.JPG,AFNE01.JPG,AFNE01.JPG,AFNE01.JPG,AFNE01.JPG,,,,,,,,,1,2,12,9,,,,,,,,,,,,,,,AMNE13.jpg,AMSA09.jpg,AMSA08.jpg,AMNE01.jpg,AMNE01.jpg,MN,1,num_4,16,num_4,0.650157883996,,,2017_Nov_06_1159,60.0091809856,MAFE4ImagesEEG,001,101927,
AFNE01.JPG,AFNE01.JPG,AFNE01.JPG,AFNE01.JPG,AFNE01.JPG,AFNE01.JPG,,,,,,,,,1,3,13,8,,,,,,,,,,,,,,,AMSA17.jpg,AMNE11.jpg,AMNE03.jpg,AMSA15.jpg,AMNE11.jpg,MN,1,num_6,16,num_6,0.650162374368,,,2017_Nov_06_1159,60.0091809856,MAFE4ImagesEEG,001,101927,
AFNE01.JPG,AFNE01.JPG,AFNE01.JPG,AFNE01.JPG,AFNE01.JPG,AFNE01.JPG,,,,,,,,,1,4,14,3,,,,,,,,,,,,,,,AMSA09.jpg,AMNE14.jpg,AMSA10.jpg,AMNE19.jpg,AMSA09.jpg,MS,2,num_8,16,num_8,0.600135031389,,,2017_Nov_06_1159,60.0091809856,MAFE4ImagesEEG,001,101927,
AFNE01.JPG,AFNE01.JPG,AFNE01.JPG,AFNE01.JPG,AFNE01.JPG,AFNE01.JPG,,,,,,,,,1,5,15,6,,,,,,,,,,,,,,,AMSA03.jpg,AMSA11.jpg,AMNE19.jpg,AMNE05.jpg,AMSA11.jpg,MS,2,num_6,16,num_6,0.550155157689,,,2017_Nov_06_1159,60.0091809856,MAFE4ImagesEEG,001,101927,
AFNE01.JPG,AFNE01.JPG,AFNE01.JPG,AFNE01.JPG,AFNE01.JPG,AFNE01.JPG,,,,,,,,,1,6,16,7,,,,,,,,,,,,,,,AMSA07.jpg,AMSA10.jpg,AMNE20.jpg,AMNE13.jpg,AMSA10.jpg,MS,2,num_6,32,num_2,0.716755270958,,,2017_Nov_06_1159,60.0091809856,MAFE4ImagesEEG,001,101927,
AFNE01.JPG,AFNE01.JPG,AFNE01.JPG,AFNE01.JPG,AFNE01.JPG,AFNE01.JPG,,,,,,,,,1,7,17,5,,,,,,,,,,,,,,,AMSA01.jpg,AMSA12.jpg,AMNE09.jpg,AMNE04.jpg,AMSA12.jpg,MS,2,num_6,32,num_4,0.516737309517,,,2017_Nov_06_1159,60.0091809856,MAFE4ImagesEEG,001,101927,
AFNE01.JPG,AFNE01.JPG,AFNE01.JPG,AFNE01.JPG,AFNE01.JPG,AFNE01.JPG,,,,,,,,,1,8,18,2,,,,,,,,,,,,,,,AMSA02.jpg,AMNE02.jpg,AMNE12.jpg,AMSA05.jpg,AMNE02.jpg,MN,1,num_6,16,num_6,0.63350573089,,,2017_Nov_06_1159,60.0091809856,MAFE4ImagesEEG,001,101927,
AFNE01.JPG,AFNE01.JPG,AFNE01.JPG,AFNE01.JPG,AFNE01.JPG,AFNE01.JPG,,,,,,,,,1,9,19,4,,,,,,,,,,,,,,,AMSA03.jpg,AMSA15.jpg,AMNE18.jpg,AMNE11.jpg,AMSA15.jpg,MS,2,num_6,32,num_4,0.700097344583,,,2017_Nov_06_1159,60.0091809856,MAFE4ImagesEEG,001,101927,
AFNE01.JPG,AFNE01.JPG,AFNE01.JPG,AFNE01.JPG,AFNE01.JPG,AFNE01.JPG,,,,,,,,,2,0,20,6,,,,,,,,,,,,,,,AMSA13.jpg,AMSA16.jpg,AMNE11.jpg,AMNE03.jpg,AMNE11.jpg,MN,1,num_2,16,num_2,0.683439738816,,,2017_Nov_06_1159,60.0091809856,MAFE4ImagesEEG,001,101927,
AFNE01.JPG,AFNE01.JPG,AFNE01.JPG,AFNE01.JPG,AFNE01.JPG,AFNE01.JPG,,,,,,,,,2,1,21,7,,,,,,,,,,,,,,,AMSA16.jpg,AMSA11.jpg,AMNE13.jpg,AMNE10.jpg,AMSA16.jpg,MS,2,num_8,32,num_6,0.68348945328,,,2017_Nov_06_1159,60.0091809856,MAFE4ImagesEEG,001,101927,
AFNE01.JPG,AFNE01.JPG,AFNE01.JPG,AFNE01.JPG,AFNE01.JPG,AFNE01.JPG,,,,,,,,,2,2,22,1,,,,,,,,,,,,,,,AMSA03.jpg,AMSA12.jpg,AMNE01.jpg,AMNE11.jpg,AMSA03.jpg,MS,2,num_8,16,num_8,0.583526498871,,,2017_Nov_06_1159,60.0091809856,MAFE4ImagesEEG,001,101927,
AFNE01.JPG,AFNE01.JPG,AFNE01.JPG,AFNE01.JPG,AFNE01.JPG,AFNE01.JPG,,,,,,,,,2,3,23,8,,,,,,,,,,,,,,,AMSA02.jpg,AMSA05.jpg,AMNE18.jpg,AMNE07.jpg,AMNE18.jpg,MN,1,num_2,16,num_2,0.566885892069,,,2017_Nov_06_1159,60.0091809856,MAFE4ImagesEEG,001,101927,
AFNE01.JPG,AFNE01.JPG,AFNE01.JPG,AFNE01.JPG,AFNE01.JPG,AFNE01.JPG,,,,,,,,,2,4,24,0,,,,,,,,,,,,,,,AMSA03.jpg,AMNE02.jpg,AMNE12.jpg,AMSA02.jpg,AMNE12.jpg,MN,1,num_2,32,num_8,0.650167506188,,,2017_Nov_06_1159,60.0091809856,MAFE4ImagesEEG,001,101927,
AFNE01.JPG,AFNE01.JPG,AFNE01.JPG,AFNE01.JPG,AFNE01.JPG,AFNE01.JPG,,,,,,,,,2,5,25,5,,,,,,,,,,,,,,,AMSA01.jpg,AMSA16.jpg,AMNE07.jpg,AMNE09.jpg,AMNE07.jpg,MN,1,num_2,32,num_4,0.733494344633,,,2017_Nov_06_1159,60.0091809856,MAFE4ImagesEEG,001,101927,
AFNE01.JPG,AFNE01.JPG,AFNE01.JPG,AFNE01.JPG,AFNE01.JPG,AFNE01.JPG,,,,,,,,,2,6,26,4,,,,,,,,,,,,,,,AMNE06.jpg,AMNE17.jpg,AMSA14.jpg,AMSA15.jpg,AMSA14.jpg,MS,2,num_2,16,num_2,0.583495707717,,,2017_Nov_06_1159,60.0091809856,MAFE4ImagesEEG,001,101927,
AFNE01.JPG,AFNE01.JPG,AFNE01.JPG,AFNE01.JPG,AFNE01.JPG,AFNE01.JPG,,,,,,,,,2,7,27,3,,,,,,,,,,,,,,,AMNE14.jpg,AMNE07.jpg,AMSA15.jpg,AMSA09.jpg,AMNE07.jpg,MN,1,num_6,16,num_6,0.650129658869,,,2017_Nov_06_1159,60.0091809856,MAFE4ImagesEEG,001,101927,
AFNE01.JPG,AFNE01.JPG,AFNE01.JPG,AFNE01.JPG,AFNE01.JPG,AFNE01.JPG,,,,,,,,,2,8,28,9,,,,,,,,,,,,,,,AMSA01.jpg,AMNE20.jpg,AMNE04.jpg,AMSA03.jpg,AMNE04.jpg,MN,1,num_2,32,num_8,0.783526177984,,,2017_Nov_06_1159,60.0091809856,MAFE4ImagesEEG,001,101927,
AFNE01.JPG,AFNE01.JPG,AFNE01.JPG,AFNE01.JPG,AFNE01.JPG,AFNE01.JPG,,,,,,,,,2,9,29,2,,,,,,,,,,,,,,,AMNE13.jpg,AMNE17.jpg,AMSA01.jpg,AMSA09.jpg,AMSA09.jpg,MS,2,num_4,32,num_8,0.850120678311,,,2017_Nov_06_1159,60.0091809856,MAFE4ImagesEEG,001,101927,
AFNE01.JPG,AFNE01.JPG,AFNE01.JPG,AFNE01.JPG,AFNE01.JPG,AFNE01.JPG,,,,,,,,,3,0,30,4,,,,,,,,,,,,,,,AMNE11.jpg,AMSA15.jpg,AMSA02.jpg,AMNE20.jpg,AMNE11.jpg,MN,1,num_8,32,num_6,0.766785821412,,,2017_Nov_06_1159,60.0091809856,MAFE4ImagesEEG,001,101927,
AFNE01.JPG,AFNE01.JPG,AFNE01.JPG,AFNE01.JPG,AFNE01.JPG,AFNE01.JPG,,,,,,,,,3,1,31,8,,,,,,,,,,,,,,,AMSA04.jpg,AMNE09.jpg,AMNE14.jpg,AMSA02.jpg,AMSA02.jpg,MS,2,num_4,16,num_4,0.55020230636,,,2017_Nov_06_1159,60.0091809856,MAFE4ImagesEEG,001,101927,
AFNE01.JPG,AFNE01.JPG,AFNE01.JPG,AFNE01.JPG,AFNE01.JPG,AFNE01.JPG,,,,,,,,,3,2,32,7,,,,,,,,,,,,,,,AMNE02.jpg,AMNE07.jpg,AMSA18.jpg,AMSA13.jpg,AMNE07.jpg,MN,1,num_6,32,num_2,0.600128616672,,,2017_Nov_06_1159,60.0091809856,MAFE4ImagesEEG,001,101927,
AFNE01.JPG,AFNE01.JPG,AFNE01.JPG,AFNE01.JPG,AFNE01.JPG,AFNE01.JPG,,,,,,,,,3,3,33,5,,,,,,,,,,,,,,,AMSA06.jpg,AMSA10.jpg,AMNE16.jpg,AMNE19.jpg,AMSA06.jpg,MS,2,num_8,32,num_6,0.516774194548,,,2017_Nov_06_1159,60.0091809856,MAFE4ImagesEEG,001,101927,
AFNE01.JPG,AFNE01.JPG,AFNE01.JPG,AFNE01.JPG,AFNE01.JPG,AFNE01.JPG,,,,,,,,,3,4,34,1,,,,,,,,,,,,,,,AMSA08.jpg,AMNE18.jpg,AMNE04.jpg,AMSA19.jpg,AMSA19.jpg,MS,2,num_4,16,num_4,0.516834493726,,,2017_Nov_06_1159,60.0091809856,MAFE4ImagesEEG,001,101927,
AFNE01.JPG,AFNE01.JPG,AFNE01.JPG,AFNE01.JPG,AFNE01.JPG,AFNE01.JPG,,,,,,,,,3,5,35,0,,,,,,,,,,,,,,,AMSA06.jpg,AMSA18.jpg,AMNE10.jpg,AMNE12.jpg,AMNE12.jpg,MN,1,num_4,32,num_8,0.666768020485,,,2017_Nov_06_1159,60.0091809856,MAFE4ImagesEEG,001,101927,
AFNE01.JPG,AFNE01.JPG,AFNE01.JPG,AFNE01.JPG,AFNE01.JPG,AFNE01.JPG,,,,,,,,,3,6,36,9,,,,,,,,,,,,,,,AMNE14.jpg,AMSA14.jpg,AMSA17.jpg,AMNE02.jpg,AMSA17.jpg,MS,2,num_2,16,num_2,0.766773954034,,,2017_Nov_06_1159,60.0091809856,MAFE4ImagesEEG,001,101927,
AFNE01.JPG,AFNE01.JPG,AFNE01.JPG,AFNE01.JPG,AFNE01.JPG,AFNE01.JPG,,,,,,,,,3,7,37,6,,,,,,,,,,,,,,,AMSA08.jpg,AMNE06.jpg,AMSA03.jpg,AMNE12.jpg,AMSA03.jpg,MS,2,num_2,16,num_2,0.483468925813,,,2017_Nov_06_1159,60.0091809856,MAFE4ImagesEEG,001,101927,
AFNE01.JPG,AFNE01.JPG,AFNE01.JPG,AFNE01.JPG,AFNE01.JPG,AFNE01.JPG,,,,,,,,,3,8,38,2,,,,,,,,,,,,,,,AMNE20.jpg,AMSA06.jpg,AMSA02.jpg,AMNE14.jpg,AMSA02.jpg,MS,2,num_2,32,num_4,0.60014914372,,,2017_Nov_06_1159,60.0091809856,MAFE4ImagesEEG,001,101927,
AFNE01.JPG,AFNE01.JPG,AFNE01.JPG,AFNE01.JPG,AFNE01.JPG,AFNE01.JPG,,,,,,,,,3,9,39,3,,,,,,,,,,,,,,,AMNE08.jpg,AMNE18.jpg,AMSA13.jpg,AMSA02.jpg,AMSA02.jpg,MS,2,num_4,32,num_8,0.650144092273,,,2017_Nov_06_1159,60.0091809856,MAFE4ImagesEEG,001,101927,
AFNE01.JPG,AFNE01.JPG,AFNE01.JPG,AFNE01.JPG,AFNE01.JPG,AFNE01.JPG,,,,,,,,,4,0,40,7,,,,,,,,,,,,,,,AMSA01.jpg,AMNE11.jpg,AMNE10.jpg,AMSA09.jpg,AMNE11.jpg,MN,1,num_6,16,num_6,0.583479029359,,,2017_Nov_06_1159,60.0091809856,MAFE4ImagesEEG,001,101927,
AFNE01.JPG,AFNE01.JPG,AFNE01.JPG,AFNE01.JPG,AFNE01.JPG,AFNE01.JPG,,,,,,,,,4,1,41,5,,,,,,,,,,,,,,,AMNE12.jpg,AMSA11.jpg,AMSA16.jpg,AMNE05.jpg,AMNE12.jpg,MN,1,num_8,32,num_4,0.650222031865,,,2017_Nov_06_1159,60.0091809856,MAFE4ImagesEEG,001,101927,
AFNE01.JPG,AFNE01.JPG,AFNE01.JPG,AFNE01.JPG,AFNE01.JPG,AFNE01.JPG,,,,,,,,,4,2,42,9,,,,,,,,,,,,,,,AMNE16.jpg,AMNE15.jpg,AMSA02.jpg,AMSA05.jpg,AMNE15.jpg,MN,1,num_6,32,num_8,0.649997514207,,,2017_Nov_06_1159,60.0091809856,MAFE4ImagesEEG,001,101927,
AFNE01.JPG,AFNE01.JPG,AFNE01.JPG,AFNE01.JPG,AFNE01.JPG,AFNE01.JPG,,,,,,,,,4,3,43,2,,,,,,,,,,,,,,,AMNE05.jpg,AMSA14.jpg,AMNE12.jpg,AMSA08.jpg,AMNE12.jpg,MN,1,num_2,32,num_4,0.633432922885,,,2017_Nov_06_1159,60.0091809856,MAFE4ImagesEEG,001,101927,
AFNE01.JPG,AFNE01.JPG,AFNE01.JPG,AFNE01.JPG,AFNE01.JPG,AFNE01.JPG,,,,,,,,,4,4,44,6,,,,,,,,,,,,,,,AMSA14.jpg,AMSA19.jpg,AMNE20.jpg,AMNE07.jpg,AMNE07.jpg,MN,1,num_4,32,num_6,0.8335650675,,,2017_Nov_06_1159,60.0091809856,MAFE4ImagesEEG,001,101927,
AFNE01.JPG,AFNE01.JPG,AFNE01.JPG,AFNE01.JPG,AFNE01.JPG,AFNE01.JPG,,,,,,,,,4,5,45,4,,,,,,,,,,,,,,,AMNE05.jpg,AMSA19.jpg,AMSA15.jpg,AMNE06.jpg,AMSA15.jpg,MS,2,num_2,16,num_2,0.650205032667,,,2017_Nov_06_1159,60.0091809856,MAFE4ImagesEEG,001,101927,
AFNE01.JPG,AFNE01.JPG,AFNE01.JPG,AFNE01.JPG,AFNE01.JPG,AFNE01.JPG,,,,,,,,,4,6,46,0,,,,,,,,,,,,,,,AMNE07.jpg,AMSA19.jpg,AMSA18.jpg,AMNE17.jpg,AMNE07.jpg,MN,1,num_8,16,num_8,0.666822546162,,,2017_Nov_06_1159,60.0091809856,MAFE4ImagesEEG,001,101927,
AFNE01.JPG,AFNE01.JPG,AFNE01.JPG,AFNE01.JPG,AFNE01.JPG,AFNE01.JPG,,,,,,,,,4,7,47,8,,,,,,,,,,,,,,,AMSA13.jpg,AMNE10.jpg,AMSA10.jpg,AMNE14.jpg,AMNE10.jpg,MN,1,num_6,32,num_4,0.416765694972,,,2017_Nov_06_1159,60.0091809856,MAFE4ImagesEEG,001,101927,
AFNE01.JPG,AFNE01.JPG,AFNE01.JPG,AFNE01.JPG,AFNE01.JPG,AFNE01.JPG,,,,,,,,,4,8,48,3,,,,,,,,,,,,,,,AMNE10.jpg,AMSA15.jpg,AMNE14.jpg,AMSA19.jpg,AMSA15.jpg,MS,2,num_6,16,num_6,0.416769223288,,,2017_Nov_06_1159,60.0091809856,MAFE4ImagesEEG,001,101927,
AFNE01.JPG,AFNE01.JPG,AFNE01.JPG,AFNE01.JPG,AFNE01.JPG,AFNE01.JPG,,,,,,,,,4,9,49,1,,,,,,,,,,,,,,,AMSA02.jpg,AMNE05.jpg,AMSA06.jpg,AMNE18.jpg,AMNE18.jpg,MN,1,num_4,32,num_2,0.483564185677,,,2017_Nov_06_1159,60.0091809856,MAFE4ImagesEEG,001,101927,
AFNE01.JPG,AFNE01.JPG,AFNE01.JPG,AFNE01.JPG,AFNE01.JPG,AFNE01.JPG,,,,,,,,,5,0,50,7,,,,,,,,,,,,,,,AMNE12.jpg,AMNE07.jpg,AMSA02.jpg,AMSA15.jpg,AMNE07.jpg,MN,1,num_6,32,num_4,0.700000802055,,,2017_Nov_06_1159,60.0091809856,MAFE4ImagesEEG,001,101927,
AFNE01.JPG,AFNE01.JPG,AFNE01.JPG,AFNE01.JPG,AFNE01.JPG,AFNE01.JPG,,,,,,,,,5,1,51,5,,,,,,,,,,,,,,,AMNE18.jpg,AMSA10.jpg,AMSA20.jpg,AMNE09.jpg,AMSA10.jpg,MS,2,num_6,16,num_6,0.68349939608,,,2017_Nov_06_1159,60.0091809856,MAFE4ImagesEEG,001,101927,
AFNE01.JPG,AFNE01.JPG,AFNE01.JPG,AFNE01.JPG,AFNE01.JPG,AFNE01.JPG,,,,,,,,,5,2,52,2,,,,,,,,,,,,,,,AMSA17.jpg,AMNE03.jpg,AMNE11.jpg,AMSA06.jpg,AMSA17.jpg,MS,2,num_8,16,num_8,0.666723758215,,,2017_Nov_06_1159,60.0091809856,MAFE4ImagesEEG,001,101927,
AFNE01.JPG,AFNE01.JPG,AFNE01.JPG,AFNE01.JPG,AFNE01.JPG,AFNE01.JPG,,,,,,,,,5,3,53,9,,,,,,,,,,,,,,,AMNE16.jpg,AMNE06.jpg,AMSA20.jpg,AMSA12.jpg,AMSA12.jpg,MS,2,num_4,32,num_6,0.53349306155,,,2017_Nov_06_1159,60.0091809856,MAFE4ImagesEEG,001,101927,
AFNE01.JPG,AFNE01.JPG,AFNE01.JPG,AFNE01.JPG,AFNE01.JPG,AFNE01.JPG,,,,,,,,,5,4,54,8,,,,,,,,,,,,,,,AMNE03.jpg,AMSA02.jpg,AMSA15.jpg,AMNE08.jpg,AMSA15.jpg,MS,2,num_2,16,num_2,0.550191401504,,,2017_Nov_06_1159,60.0091809856,MAFE4ImagesEEG,001,101927,
AFNE01.JPG,AFNE01.JPG,AFNE01.JPG,AFNE01.JPG,AFNE01.JPG,AFNE01.JPG,,,,,,,,,5,5,55,3,,,,,,,,,,,,,,,AMNE17.jpg,AMNE15.jpg,AMSA19.jpg,AMSA03.jpg,AMSA03.jpg,MS,2,num_4,32,num_8,0.61688629305,,,2017_Nov_06_1159,60.0091809856,MAFE4ImagesEEG,001,101927,
AFNE01.JPG,AFNE01.JPG,AFNE01.JPG,AFNE01.JPG,AFNE01.JPG,AFNE01.JPG,,,,,,,,,5,6,56,6,,,,,,,,,,,,,,,AMSA14.jpg,AMSA10.jpg,AMNE17.jpg,AMNE18.jpg,AMSA14.jpg,MS,2,num_8,32,num_2,1.05008860445,,,2017_Nov_06_1159,60.0091809856,MAFE4ImagesEEG,001,101927,
AFNE01.JPG,AFNE01.JPG,AFNE01.JPG,AFNE01.JPG,AFNE01.JPG,AFNE01.JPG,,,,,,,,,5,7,57,1,,,,,,,,,,,,,,,AMNE06.jpg,AMSA12.jpg,AMNE01.jpg,AMSA06.jpg,AMNE06.jpg,MN,1,num_8,32,num_6,0.550316810375,,,2017_Nov_06_1159,60.0091809856,MAFE4ImagesEEG,001,101927,
AFNE01.JPG,AFNE01.JPG,AFNE01.JPG,AFNE01.JPG,AFNE01.JPG,AFNE01.JPG,,,,,,,,,5,8,58,4,,,,,,,,,,,,,,,AMNE11.jpg,AMSA13.jpg,AMSA09.jpg,AMNE09.jpg,AMSA13.jpg,MS,2,num_6,16,num_6,0.850097905844,,,2017_Nov_06_1159,60.0091809856,MAFE4ImagesEEG,001,101927,
AFNE01.JPG,AFNE01.JPG,AFNE01.JPG,AFNE01.JPG,AFNE01.JPG,AFNE01.JPG,,,,,,,,,5,9,59,0,,,,,,,,,,,,,,,AMNE04.jpg,AMSA07.jpg,AMSA08.jpg,AMNE13.jpg,AMSA08.jpg,MS,2,num_2,32,num_4,0.700177529361,,,2017_Nov_06_1159,60.0091809856,MAFE4ImagesEEG,001,101927,
,,,,,,,,,,,,,,,,,,,,,,,,,,,,,,,,,,,,,,,,,,,space,32.1473381028,2017_Nov_06_1159,60.0091809856,MAFE4ImagesEEG,001,101927,
AFNE01.JPG,AFNE01.JPG,AFNE01.JPG,AFNE01.JPG,AFNE01.JPG,AFNE01.JPG,,,,,,,,,,,,,0,0,0,2,,,,,,,,,,,AFNE09.jpg,AFNE07.jpg,AFSA09.jpg,AFSA05.jpg,AFSA05.jpg,FS,4,num_4,32,num_8,0.68347918964,,,2017_Nov_06_1159,60.0091809856,MAFE4ImagesEEG,001,101927,
AFNE01.JPG,AFNE01.JPG,AFNE01.JPG,AFNE01.JPG,AFNE01.JPG,AFNE01.JPG,,,,,,,,,,,,,0,1,1,9,,,,,,,,,,,AFSA07.jpg,AFSA06.jpg,AFNE10.jpg,AFNE17.jpg,AFNE17.jpg,FN,3,num_4,16,num_4,0.533478628378,,,2017_Nov_06_1159,60.0091809856,MAFE4ImagesEEG,001,101927,
AFNE01.JPG,AFNE01.JPG,AFNE01.JPG,AFNE01.JPG,AFNE01.JPG,AFNE01.JPG,,,,,,,,,,,,,0,2,2,8,,,,,,,,,,,AFSA06.jpg,AFSA03.jpg,AFNE17.jpg,AFNE16.jpg,AFNE16.jpg,FN,3,num_4,32,num_8,0.400570595637,,,2017_Nov_06_1159,60.0091809856,MAFE4ImagesEEG,001,101927,
AFNE01.JPG,AFNE01.JPG,AFNE01.JPG,AFNE01.JPG,AFNE01.JPG,AFNE01.JPG,,,,,,,,,,,,,0,3,3,4,,,,,,,,,,,AFNE19.jpg,AFSA10.jpg,AFNE15.jpg,AFSA16.jpg,AFSA16.jpg,FS,4,num_4,32,num_6,0.533505249768,,,2017_Nov_06_1159,60.0091809856,MAFE4ImagesEEG,001,101927,
AFNE01.JPG,AFNE01.JPG,AFNE01.JPG,AFNE01.JPG,AFNE01.JPG,AFNE01.JPG,,,,,,,,,,,,,0,4,4,0,,,,,,,,,,,AFNE13.jpg,AFNE02.jpg,AFSA08.jpg,AFSA15.jpg,AFSA08.jpg,FS,4,num_2,32,num_8,0.60036949208,,,2017_Nov_06_1159,60.0091809856,MAFE4ImagesEEG,001,101927,
AFNE01.JPG,AFNE01.JPG,AFNE01.JPG,AFNE01.JPG,AFNE01.JPG,AFNE01.JPG,,,,,,,,,,,,,0,5,5,1,,,,,,,,,,,AFNE10.jpg,AFNE01.jpg,AFSA14.jpg,AFSA08.jpg,AFNE01.jpg,FN,3,num_6,16,num_6,0.700154756662,,,2017_Nov_06_1159,60.0091809856,MAFE4ImagesEEG,001,101927,
AFNE01.JPG,AFNE01.JPG,AFNE01.JPG,AFNE01.JPG,AFNE01.JPG,AFNE01.JPG,,,,,,,,,,,,,0,6,6,6,,,,,,,,,,,AFNE14.jpg,AFNE15.jpg,AFSA02.jpg,AFSA05.jpg,AFSA05.jpg,FS,4,num_4,16,num_4,0.583496028557,,,2017_Nov_06_1159,60.0091809856,MAFE4ImagesEEG,001,101927,
AFNE01.JPG,AFNE01.JPG,AFNE01.JPG,AFNE01.JPG,AFNE01.JPG,AFNE01.JPG,,,,,,,,,,,,,0,7,7,7,,,,,,,,,,,AFSA05.jpg,AFNE01.jpg,AFNE19.jpg,AFSA13.jpg,AFSA13.jpg,FS,4,num_4,32,num_2,1.03344511101,,,2017_Nov_06_1159,60.0091809856,MAFE4ImagesEEG,001,101927,
AFNE01.JPG,AFNE01.JPG,AFNE01.JPG,AFNE01.JPG,AFNE01.JPG,AFNE01.JPG,,,,,,,,,,,,,0,8,8,5,,,,,,,,,,,AFNE14.jpg,AFNE17.jpg,AFSA16.jpg,AFSA12.jpg,AFNE17.jpg,FN,3,num_6,16,num_6,0.750184986508,,,2017_Nov_06_1159,60.0091809856,MAFE4ImagesEEG,001,101927,
AFNE01.JPG,AFNE01.JPG,AFNE01.JPG,AFNE01.JPG,AFNE01.JPG,AFNE01.JPG,,,,,,,,,,,,,0,9,9,3,,,,,,,,,,,AFSA14.jpg,AFNE05.jpg,AFSA09.jpg,AFNE03.jpg,AFNE03.jpg,FN,3,num_4,32,num_6,0.500036083162,,,2017_Nov_06_1159,60.0091809856,MAFE4ImagesEEG,001,101927,
AFNE01.JPG,AFNE01.JPG,AFNE01.JPG,AFNE01.JPG,AFNE01.JPG,AFNE01.JPG,,,,,,,,,,,,,1,0,10,2,,,,,,,,,,,AFSA07.jpg,AFNE08.jpg,AFSA20.jpg,AFNE14.jpg,AFNE14.jpg,FN,3,num_4,16,num_4,0.666811961681,,,2017_Nov_06_1159,60.0091809856,MAFE4ImagesEEG,001,101927,
AFNE01.JPG,AFNE01.JPG,AFNE01.JPG,AFNE01.JPG,AFNE01.JPG,AFNE01.JPG,,,,,,,,,,,,,1,1,11,6,,,,,,,,,,,AFSA13.jpg,AFSA20.jpg,AFNE04.jpg,AFNE08.jpg,AFNE08.jpg,FN,3,num_4,32,num_8,0.433516956633,,,2017_Nov_06_1159,60.0091809856,MAFE4ImagesEEG,001,101927,
AFNE01.JPG,AFNE01.JPG,AFNE01.JPG,AFNE01.JPG,AFNE01.JPG,AFNE01.JPG,,,,,,,,,,,,,1,2,12,0,,,,,,,,,,,AFSA01.jpg,AFSA12.jpg,AFNE16.jpg,AFNE05.jpg,AFNE16.jpg,FN,3,num_2,32,num_4,0.583545101574,,,2017_Nov_06_1159,60.0091809856,MAFE4ImagesEEG,001,101927,
AFNE01.JPG,AFNE01.JPG,AFNE01.JPG,AFNE01.JPG,AFNE01.JPG,AFNE01.JPG,,,,,,,,,,,,,1,3,13,4,,,,,,,,,,,AFNE19.jpg,AFSA17.jpg,AFSA04.jpg,AFNE14.jpg,AFNE19.jpg,FN,3,num_8,16,num_8,0.650145054562,,,2017_Nov_06_1159,60.0091809856,MAFE4ImagesEEG,001,101927,
AFNE01.JPG,AFNE01.JPG,AFNE01.JPG,AFNE01.JPG,AFNE01.JPG,AFNE01.JPG,,,,,,,,,,,,,1,4,14,3,,,,,,,,,,,AFNE03.jpg,AFNE02.jpg,AFSA20.jpg,AFSA01.jpg,AFNE03.jpg,FN,3,num_8,32,num_2,0.666777642444,,,2017_Nov_06_1159,60.0091809856,MAFE4ImagesEEG,001,101927,
AFNE01.JPG,AFNE01.JPG,AFNE01.JPG,AFNE01.JPG,AFNE01.JPG,AFNE01.JPG,,,,,,,,,,,,,1,5,15,1,,,,,,,,,,,AFSA19.jpg,AFSA02.jpg,AFNE19.jpg,AFNE09.jpg,AFSA02.jpg,FS,4,num_6,16,num_6,0.516780930106,,,2017_Nov_06_1159,60.0091809856,MAFE4ImagesEEG,001,101927,
AFNE01.JPG,AFNE01.JPG,AFNE01.JPG,AFNE01.JPG,AFNE01.JPG,AFNE01.JPG,,,,,,,,,,,,,1,6,16,8,,,,,,,,,,,AFSA03.jpg,AFNE10.jpg,AFNE02.jpg,AFSA20.jpg,AFSA03.jpg,FS,4,num_8,16,num_8,0.683494585101,,,2017_Nov_06_1159,60.0091809856,MAFE4ImagesEEG,001,101927,
AFNE01.JPG,AFNE01.JPG,AFNE01.JPG,AFNE01.JPG,AFNE01.JPG,AFNE01.JPG,,,,,,,,,,,,,1,7,17,5,,,,,,,,,,,AFSA18.jpg,AFSA17.jpg,AFNE06.jpg,AFNE09.jpg,AFNE06.jpg,FN,3,num_2,16,num_2,0.600147860823,,,2017_Nov_06_1159,60.0091809856,MAFE4ImagesEEG,001,101927,
AFNE01.JPG,AFNE01.JPG,AFNE01.JPG,AFNE01.JPG,AFNE01.JPG,AFNE01.JPG,,,,,,,,,,,,,1,8,18,7,,,,,,,,,,,AFNE04.jpg,AFNE14.jpg,AFSA18.jpg,AFSA17.jpg,AFNE04.jpg,FN,3,num_8,32,num_6,0.566781651694,,,2017_Nov_06_1159,60.0091809856,MAFE4ImagesEEG,001,101927,
AFNE01.JPG,AFNE01.JPG,AFNE01.JPG,AFNE01.JPG,AFNE01.JPG,AFNE01.JPG,,,,,,,,,,,,,1,9,19,9,,,,,,,,,,,AFNE13.jpg,AFNE07.jpg,AFSA17.jpg,AFSA11.jpg,AFSA17.jpg,FS,4,num_2,32,num_4,0.416784297908,,,2017_Nov_06_1159,60.0091809856,MAFE4ImagesEEG,001,101927,
AFNE01.JPG,AFNE01.JPG,AFNE01.JPG,AFNE01.JPG,AFNE01.JPG,AFNE01.JPG,,,,,,,,,,,,,2,0,20,6,,,,,,,,,,,AFNE04.jpg,AFNE19.jpg,AFSA11.jpg,AFSA04.jpg,AFNE19.jpg,FN,3,num_6,32,num_8,0.683505810797,,,2017_Nov_06_1159,60.0091809856,MAFE4ImagesEEG,001,101927,
AFNE01.JPG,AFNE01.JPG,AFNE01.JPG,AFNE01.JPG,AFNE01.JPG,AFNE01.JPG,,,,,,,,,,,,,2,1,21,3,,,,,,,,,,,AFSA02.jpg,AFNE07.jpg,AFSA15.jpg,AFNE19.jpg,AFNE07.jpg,FN,3,num_6,16,num_6,0.450191561831,,,2017_Nov_06_1159,60.0091809856,MAFE4ImagesEEG,001,101927,
AFNE01.JPG,AFNE01.JPG,AFNE01.JPG,AFNE01.JPG,AFNE01.JPG,AFNE01.JPG,,,,,,,,,,,,,2,2,22,5,,,,,,,,,,,AFSA18.jpg,AFNE17.jpg,AFNE15.jpg,AFSA02.jpg,AFSA02.jpg,FS,4,num_4,32,num_8,0.500167586375,,,2017_Nov_06_1159,60.0091809856,MAFE4ImagesEEG,001,101927,
AFNE01.JPG,AFNE01.JPG,AFNE01.JPG,AFNE01.JPG,AFNE01.JPG,AFNE01.JPG,,,,,,,,,,,,,2,3,23,1,,,,,,,,,,,AFSA04.jpg,AFNE20.jpg,AFNE07.jpg,AFSA16.jpg,AFNE07.jpg,FN,3,num_2,32,num_4,0.500151228625,,,2017_Nov_06_1159,60.0091809856,MAFE4ImagesEEG,001,101927,
AFNE01.JPG,AFNE01.JPG,AFNE01.JPG,AFNE01.JPG,AFNE01.JPG,AFNE01.JPG,,,,,,,,,,,,,2,4,24,9,,,,,,,,,,,AFSA16.jpg,AFNE06.jpg,AFNE12.jpg,AFSA04.jpg,AFSA16.jpg,FS,4,num_8,16,num_8,0.616805787431,,,2017_Nov_06_1159,60.0091809856,MAFE4ImagesEEG,001,101927,
AFNE01.JPG,AFNE01.JPG,AFNE01.JPG,AFNE01.JPG,AFNE01.JPG,AFNE01.JPG,,,,,,,,,,,,,2,5,25,2,,,,,,,,,,,AFSA17.jpg,AFSA01.jpg,AFNE12.jpg,AFNE08.jpg,AFNE12.jpg,FN,3,num_2,16,num_2,0.65013030055,,,2017_Nov_06_1159,60.0091809856,MAFE4ImagesEEG,001,101927,
AFNE01.JPG,AFNE01.JPG,AFNE01.JPG,AFNE01.JPG,AFNE01.JPG,AFNE01.JPG,,,,,,,,,,,,,2,6,26,7,,,,,,,,,,,AFSA05.jpg,AFNE11.jpg,AFSA11.jpg,AFNE09.jpg,AFSA05.jpg,FS,4,num_8,16,num_8,0.433487128001,,,2017_Nov_06_1159,60.0091809856,MAFE4ImagesEEG,001,101927,
AFNE01.JPG,AFNE01.JPG,AFNE01.JPG,AFNE01.JPG,AFNE01.JPG,AFNE01.JPG,,,,,,,,,,,,,2,7,27,8,,,,,,,,,,,AFNE10.jpg,AFNE01.jpg,AFSA14.jpg,AFSA15.jpg,AFNE01.jpg,FN,3,num_6,16,num_6,0.716763930861,,,2017_Nov_06_1159,60.0091809856,MAFE4ImagesEEG,001,101927,
AFNE01.JPG,AFNE01.JPG,AFNE01.JPG,AFNE01.JPG,AFNE01.JPG,AFNE01.JPG,,,,,,,,,,,,,2,8,28,0,,,,,,,,,,,AFNE15.jpg,AFSA19.jpg,AFNE11.jpg,AFSA03.jpg,AFNE15.jpg,FN,3,num_8,16,num_8,0.616786543047,,,2017_Nov_06_1159,60.0091809856,MAFE4ImagesEEG,001,101927,
AFNE01.JPG,AFNE01.JPG,AFNE01.JPG,AFNE01.JPG,AFNE01.JPG,AFNE01.JPG,,,,,,,,,,,,,2,9,29,4,,,,,,,,,,,AFNE13.jpg,AFSA09.jpg,AFNE03.jpg,AFSA14.jpg,AFNE13.jpg,FN,3,num_8,32,num_2,0.516658728477,,,2017_Nov_06_1159,60.0091809856,MAFE4ImagesEEG,001,101927,
AFNE01.JPG,AFNE01.JPG,AFNE01.JPG,AFNE01.JPG,AFNE01.JPG,AFNE01.JPG,,,,,,,,,,,,,3,0,30,4,,,,,,,,,,,AFSA11.jpg,AFNE11.jpg,AFNE09.jpg,AFSA19.jpg,AFNE11.jpg,FN,3,num_6,16,num_6,0.516779967817,,,2017_Nov_06_1159,60.0091809856,MAFE4ImagesEEG,001,101927,
AFNE01.JPG,AFNE01.JPG,AFNE01.JPG,AFNE01.JPG,AFNE01.JPG,AFNE01.JPG,,,,,,,,,,,,,3,1,31,3,,,,,,,,,,,AFNE06.jpg,AFSA08.jpg,AFSA18.jpg,AFNE18.jpg,AFSA08.jpg,FS,4,num_6,32,num_4,0.666732418351,,,2017_Nov_06_1159,60.0091809856,MAFE4ImagesEEG,001,101927,
AFNE01.JPG,AFNE01.JPG,AFNE01.JPG,AFNE01.JPG,AFNE01.JPG,AFNE01.JPG,,,,,,,,,,,,,3,2,32,1,,,,,,,,,,,AFSA17.jpg,AFSA03.jpg,AFNE17.jpg,AFNE06.jpg,AFSA03.jpg,FS,4,num_6,32,num_8,0.500199981034,,,2017_Nov_06_1159,60.0091809856,MAFE4ImagesEEG,001,101927,
AFNE01.JPG,AFNE01.JPG,AFNE01.JPG,AFNE01.JPG,AFNE01.JPG,AFNE01.JPG,,,,,,,,,,,,,3,3,33,9,,,,,,,,,,,AFSA14.jpg,AFNE02.jpg,AFSA06.jpg,AFNE04.jpg,AFSA06.jpg,FS,4,num_2,32,num_4,0.633478788659,,,2017_Nov_06_1159,60.0091809856,MAFE4ImagesEEG,001,101927,
AFNE01.JPG,AFNE01.JPG,AFNE01.JPG,AFNE01.JPG,AFNE01.JPG,AFNE01.JPG,,,,,,,,,,,,,3,4,34,2,,,,,,,,,,,AFSA07.jpg,AFSA10.jpg,AFNE15.jpg,AFNE10.jpg,AFNE15.jpg,FN,3,num_2,32,num_6,0.583475501044,,,2017_Nov_06_1159,60.0091809856,MAFE4ImagesEEG,001,101927,
AFNE01.JPG,AFNE01.JPG,AFNE01.JPG,AFNE01.JPG,AFNE01.JPG,AFNE01.JPG,,,,,,,,,,,,,3,5,35,6,,,,,,,,,,,AFNE19.jpg,AFSA06.jpg,AFNE06.jpg,AFSA13.jpg,AFNE06.jpg,FN,3,num_2,32,num_8,0.683491698466,,,2017_Nov_06_1159,60.0091809856,MAFE4ImagesEEG,001,101927,
AFNE01.JPG,AFNE01.JPG,AFNE01.JPG,AFNE01.JPG,AFNE01.JPG,AFNE01.JPG,,,,,,,,,,,,,3,6,36,8,,,,,,,,,,,AFSA15.jpg,AFNE10.jpg,AFNE01.jpg,AFSA13.jpg,AFSA13.jpg,FS,4,num_4,16,num_4,0.883453530492,,,2017_Nov_06_1159,60.0091809856,MAFE4ImagesEEG,001,101927,
AFNE01.JPG,AFNE01.JPG,AFNE01.JPG,AFNE01.JPG,AFNE01.JPG,AFNE01.JPG,,,,,,,,,,,,,3,7,37,5,,,,,,,,,,,AFNE19.jpg,AFNE20.jpg,AFSA04.jpg,AFSA16.jpg,AFSA16.jpg,FS,4,num_4,32,num_8,0.700129097793,,,2017_Nov_06_1159,60.0091809856,MAFE4ImagesEEG,001,101927,
AFNE01.JPG,AFNE01.JPG,AFNE01.JPG,AFNE01.JPG,AFNE01.JPG,AFNE01.JPG,,,,,,,,,,,,,3,8,38,0,,,,,,,,,,,AFNE08.jpg,AFSA07.jpg,AFNE12.jpg,AFSA14.jpg,AFSA14.jpg,FS,4,num_4,16,num_4,0.766848686384,,,2017_Nov_06_1159,60.0091809856,MAFE4ImagesEEG,001,101927,
AFNE01.JPG,AFNE01.JPG,AFNE01.JPG,AFNE01.JPG,AFNE01.JPG,AFNE01.JPG,,,,,,,,,,,,,3,9,39,7,,,,,,,,,,,AFSA07.jpg,AFNE05.jpg,AFSA05.jpg,AFNE14.jpg,AFNE14.jpg,FN,3,num_4,32,num_8,0.6335147114,,,2017_Nov_06_1159,60.0091809856,MAFE4ImagesEEG,001,101927,
AFNE01.JPG,AFNE01.JPG,AFNE01.JPG,AFNE01.JPG,AFNE01.JPG,AFNE01.JPG,,,,,,,,,,,,,4,0,40,3,,,,,,,,,,,AFSA03.jpg,AFNE18.jpg,AFNE13.jpg,AFSA16.jpg,AFSA16.jpg,FS,4,num_4,16,num_4,0.666686231736,,,2017_Nov_06_1159,60.0091809856,MAFE4ImagesEEG,001,101927,
AFNE01.JPG,AFNE01.JPG,AFNE01.JPG,AFNE01.JPG,AFNE01.JPG,AFNE01.JPG,,,,,,,,,,,,,4,1,41,4,,,,,,,,,,,AFNE13.jpg,AFSA06.jpg,AFSA19.jpg,AFNE14.jpg,AFNE13.jpg,FN,3,num_8,16,num_8,0.866749096662,,,2017_Nov_06_1159,60.0091809856,MAFE4ImagesEEG,001,101927,
AFNE01.JPG,AFNE01.JPG,AFNE01.JPG,AFNE01.JPG,AFNE01.JPG,AFNE01.JPG,,,,,,,,,,,,,4,2,42,2,,,,,,,,,,,AFSA20.jpg,AFNE09.jpg,AFNE13.jpg,AFSA12.jpg,AFNE13.jpg,FN,3,num_2,16,num_2,0.683494585101,,,2017_Nov_06_1159,60.0091809856,MAFE4ImagesEEG,001,101927,
AFNE01.JPG,AFNE01.JPG,AFNE01.JPG,AFNE01.JPG,AFNE01.JPG,AFNE01.JPG,,,,,,,,,,,,,4,3,43,0,,,,,,,,,,,AFNE02.jpg,AFSA09.jpg,AFSA17.jpg,AFNE01.jpg,AFSA09.jpg,FS,4,num_6,16,num_6,1.30004795059,,,2017_Nov_06_1159,60.0091809856,MAFE4ImagesEEG,001,101927,
AFNE01.JPG,AFNE01.JPG,AFNE01.JPG,AFNE01.JPG,AFNE01.JPG,AFNE01.JPG,,,,,,,,,,,,,4,4,44,5,,,,,,,,,,,AFSA12.jpg,AFNE04.jpg,AFNE01.jpg,AFSA13.jpg,AFSA13.jpg,FS,4,num_4,16,num_4,0.700184585527,,,2017_Nov_06_1159,60.0091809856,MAFE4ImagesEEG,001,101927,
AFNE01.JPG,AFNE01.JPG,AFNE01.JPG,AFNE01.JPG,AFNE01.JPG,AFNE01.JPG,,,,,,,,,,,,,4,5,45,7,,,,,,,,,,,AFNE18.jpg,AFSA11.jpg,AFSA12.jpg,AFNE14.jpg,AFNE18.jpg,FN,3,num_8,32,num_2,0.750158365117,,,2017_Nov_06_1159,60.0091809856,MAFE4ImagesEEG,001,101927,
AFNE01.JPG,AFNE01.JPG,AFNE01.JPG,AFNE01.JPG,AFNE01.JPG,AFNE01.JPG,,,,,,,,,,,,,4,6,46,1,,,,,,,,,,,AFSA17.jpg,AFNE14.jpg,AFNE12.jpg,AFSA11.jpg,AFNE12.jpg,FN,3,num_2,16,num_2,0.650161412079,,,2017_Nov_06_1159,60.0091809856,MAFE4ImagesEEG,001,101927,
AFNE01.JPG,AFNE01.JPG,AFNE01.JPG,AFNE01.JPG,AFNE01.JPG,AFNE01.JPG,,,,,,,,,,,,,4,7,47,9,,,,,,,,,,,AFNE08.jpg,AFSA18.jpg,AFNE11.jpg,AFSA01.jpg,AFNE08.jpg,FN,3,num_8,16,num_8,0.866710928734,,,2017_Nov_06_1159,60.0091809856,MAFE4ImagesEEG,001,101927,
AFNE01.JPG,AFNE01.JPG,AFNE01.JPG,AFNE01.JPG,AFNE01.JPG,AFNE01.JPG,,,,,,,,,,,,,4,8,48,6,,,,,,,,,,,AFSA20.jpg,AFSA03.jpg,AFNE20.jpg,AFNE05.jpg,AFSA20.jpg,FS,4,num_8,32,num_4,0.516819739714,,,2017_Nov_06_1159,60.0091809856,MAFE4ImagesEEG,001,101927,
AFNE01.JPG,AFNE01.JPG,AFNE01.JPG,AFNE01.JPG,AFNE01.JPG,AFNE01.JPG,,,,,,,,,,,,,4,9,49,8,,,,,,,,,,,AFSA19.jpg,AFNE20.jpg,AFSA18.jpg,AFNE16.jpg,AFSA19.jpg,FS,4,num_8,32,num_6,0.516846681712,,,2017_Nov_06_1159,60.0091809856,MAFE4ImagesEEG,001,101927,
AFNE01.JPG,AFNE01.JPG,AFNE01.JPG,AFNE01.JPG,AFNE01.JPG,AFNE01.JPG,,,,,,,,,,,,,5,0,50,9,,,,,,,,,,,AFSA20.jpg,AFNE03.jpg,AFNE04.jpg,AFSA14.jpg,AFNE04.jpg,FN,3,num_2,16,num_2,0.533517758362,,,2017_Nov_06_1159,60.0091809856,MAFE4ImagesEEG,001,101927,
AFNE01.JPG,AFNE01.JPG,AFNE01.JPG,AFNE01.JPG,AFNE01.JPG,AFNE01.JPG,,,,,,,,,,,,,5,1,51,3,,,,,,,,,,,AFNE19.jpg,AFSA19.jpg,AFNE14.jpg,AFSA02.jpg,AFNE14.jpg,FN,3,num_2,16,num_2,0.850161732873,,,2017_Nov_06_1159,60.0091809856,MAFE4ImagesEEG,001,101927,
AFNE01.JPG,AFNE01.JPG,AFNE01.JPG,AFNE01.JPG,AFNE01.JPG,AFNE01.JPG,,,,,,,,,,,,,5,2,52,8,,,,,,,,,,,AFSA18.jpg,AFNE18.jpg,AFSA03.jpg,AFNE05.jpg,AFSA18.jpg,FS,4,num_8,16,num_8,0.350121159339,,,2017_Nov_06_1159,60.0091809856,MAFE4ImagesEEG,001,101927,
AFNE01.JPG,AFNE01.JPG,AFNE01.JPG,AFNE01.JPG,AFNE01.JPG,AFNE01.JPG,,,,,,,,,,,,,5,3,53,6,,,,,,,,,,,AFNE15.jpg,AFSA03.jpg,AFSA16.jpg,AFNE11.jpg,AFNE11.jpg,FN,3,num_4,16,num_4,0.600164860021,,,2017_Nov_06_1159,60.0091809856,MAFE4ImagesEEG,001,101927,
AFNE01.JPG,AFNE01.JPG,AFNE01.JPG,AFNE01.JPG,AFNE01.JPG,AFNE01.JPG,,,,,,,,,,,,,5,4,54,0,,,,,,,,,,,AFSA20.jpg,AFNE10.jpg,AFNE20.jpg,AFSA02.jpg,AFSA02.jpg,FS,4,num_4,32,num_6,2.13340389612,,,2017_Nov_06_1159,60.0091809856,MAFE4ImagesEEG,001,101927,
AFNE01.JPG,AFNE01.JPG,AFNE01.JPG,AFNE01.JPG,AFNE01.JPG,AFNE01.JPG,,,,,,,,,,,,,5,5,55,4,,,,,,,,,,,AFNE18.jpg,AFSA09.jpg,AFSA18.jpg,AFNE10.jpg,AFNE10.jpg,FN,3,num_4,32,num_8,1.10018907604,,,2017_Nov_06_1159,60.0091809856,MAFE4ImagesEEG,001,101927,
AFNE01.JPG,AFNE01.JPG,AFNE01.JPG,AFNE01.JPG,AFNE01.JPG,AFNE01.JPG,,,,,,,,,,,,,5,6,56,2,,,,,,,,,,,AFSA15.jpg,AFNE01.jpg,AFNE12.jpg,AFSA01.jpg,AFNE01.jpg,FN,3,num_6,32,num_2,0.783373826649,,,2017_Nov_06_1159,60.0091809856,MAFE4ImagesEEG,001,101927,
AFNE01.JPG,AFNE01.JPG,AFNE01.JPG,AFNE01.JPG,AFNE01.JPG,AFNE01.JPG,,,,,,,,,,,,,5,7,57,1,,,,,,,,,,,AFSA13.jpg,AFSA14.jpg,AFNE20.jpg,AFNE06.jpg,AFNE06.jpg,FN,3,num_4,16,num_4,0.683335819049,,,2017_Nov_06_1159,60.0091809856,MAFE4ImagesEEG,001,101927,
AFNE01.JPG,AFNE01.JPG,AFNE01.JPG,AFNE01.JPG,AFNE01.JPG,AFNE01.JPG,,,,,,,,,,,,,5,8,58,5,,,,,,,,,,,AFNE16.jpg,AFNE07.jpg,AFSA03.jpg,AFSA06.jpg,AFNE07.jpg,FN,3,num_6,16,num_6,0.533173604868,,,2017_Nov_06_1159,60.0091809856,MAFE4ImagesEEG,001,101927,
AFNE01.JPG,AFNE01.JPG,AFNE01.JPG,AFNE01.JPG,AFNE01.JPG,AFNE01.JPG,,,,,,,,,,,,,5,9,59,7,,,,,,,,,,,AFSA18.jpg,AFNE13.jpg,AFNE12.jpg,AFSA02.jpg,AFNE12.jpg,FN,3,num_2,16,num_2,0.850119716022,,,2017_Nov_06_1159,60.0091809856,MAFE4ImagesEEG,001,101927,
,,,,,,,,,,,,,,,,,,,,,,,,,,,,,,,,,,,,,,,,,,,space,32.7479282634,2017_Nov_06_1159,60.0091809856,MAFE4ImagesEEG,001,101927,
AFNE01.JPG,AFNE01.JPG,AFNE01.JPG,AFNE01.JPG,AFNE01.JPG,AFNE01.JPG,,,,,,,,,,,,,,,,,0,0,0,2,,,,,,,AMNE07.jpg,AMNE01.jpg,AMSA17.jpg,AMSA06.jpg,AMSA17.jpg,MS,2,num_2,32,num_8,0.633523692144,,,2017_Nov_06_1159,60.0091809856,MAFE4ImagesEEG,001,101927,
AFNE01.JPG,AFNE01.JPG,AFNE01.JPG,AFNE01.JPG,AFNE01.JPG,AFNE01.JPG,,,,,,,,,,,,,,,,,0,1,1,4,,,,,,,AMNE17.jpg,AMSA06.jpg,AMSA13.jpg,AMNE16.jpg,AMSA06.jpg,MS,2,num_6,16,num_6,0.666793358745,,,2017_Nov_06_1159,60.0091809856,MAFE4ImagesEEG,001,101927,
AFNE01.JPG,AFNE01.JPG,AFNE01.JPG,AFNE01.JPG,AFNE01.JPG,AFNE01.JPG,,,,,,,,,,,,,,,,,0,2,2,5,,,,,,,AMNE06.jpg,AMNE09.jpg,AMSA01.jpg,AMSA09.jpg,AMNE09.jpg,MN,1,num_6,32,num_4,0.50016566203,,,2017_Nov_06_1159,60.0091809856,MAFE4ImagesEEG,001,101927,
AFNE01.JPG,AFNE01.JPG,AFNE01.JPG,AFNE01.JPG,AFNE01.JPG,AFNE01.JPG,,,,,,,,,,,,,,,,,0,3,3,3,,,,,,,AMSA17.jpg,AMNE09.jpg,AMSA04.jpg,AMNE20.jpg,AMSA04.jpg,MS,2,num_2,16,num_2,0.483569958946,,,2017_Nov_06_1159,60.0091809856,MAFE4ImagesEEG,001,101927,
AFNE01.JPG,AFNE01.JPG,AFNE01.JPG,AFNE01.JPG,AFNE01.JPG,AFNE01.JPG,,,,,,,,,,,,,,,,,0,4,4,9,,,,,,,AMNE16.jpg,AMNE18.jpg,AMSA13.jpg,AMSA09.jpg,AMSA13.jpg,MS,2,num_2,16,num_2,0.783425145084,,,2017_Nov_06_1159,60.0091809856,MAFE4ImagesEEG,001,101927,
AFNE01.JPG,AFNE01.JPG,AFNE01.JPG,AFNE01.JPG,AFNE01.JPG,AFNE01.JPG,,,,,,,,,,,,,,,,,0,5,5,0,,,,,,,AMSA05.jpg,AMNE19.jpg,AMNE16.jpg,AMSA02.jpg,AMNE16.jpg,MN,1,num_2,32,num_8,0.516852454981,,,2017_Nov_06_1159,60.0091809856,MAFE4ImagesEEG,001,101927,
AFNE01.JPG,AFNE01.JPG,AFNE01.JPG,AFNE01.JPG,AFNE01.JPG,AFNE01.JPG,,,,,,,,,,,,,,,,,0,6,6,8,,,,,,,AMSA20.jpg,AMNE05.jpg,AMNE18.jpg,AMSA03.jpg,AMSA03.jpg,MS,2,num_4,16,num_4,0.483510622056,,,2017_Nov_06_1159,60.0091809856,MAFE4ImagesEEG,001,101927,
AFNE01.JPG,AFNE01.JPG,AFNE01.JPG,AFNE01.JPG,AFNE01.JPG,AFNE01.JPG,,,,,,,,,,,,,,,,,0,7,7,1,,,,,,,AMNE02.jpg,AMSA11.jpg,AMNE18.jpg,AMSA06.jpg,AMSA11.jpg,MS,2,num_6,16,num_6,0.633508296683,,,2017_Nov_06_1159,60.0091809856,MAFE4ImagesEEG,001,101927,
AFNE01.JPG,AFNE01.JPG,AFNE01.JPG,AFNE01.JPG,AFNE01.JPG,AFNE01.JPG,,,,,,,,,,,,,,,,,0,8,8,6,,,,,,,AMNE11.jpg,AMSA04.jpg,AMNE13.jpg,AMSA14.jpg,AMSA14.jpg,MS,2,num_4,16,num_4,0.583448238438,,,2017_Nov_06_1159,60.0091809856,MAFE4ImagesEEG,001,101927,
AFNE01.JPG,AFNE01.JPG,AFNE01.JPG,AFNE01.JPG,AFNE01.JPG,AFNE01.JPG,,,,,,,,,,,,,,,,,0,9,9,7,,,,,,,AMSA14.jpg,AMNE14.jpg,AMNE02.jpg,AMSA13.jpg,AMNE14.jpg,MN,1,num_6,32,num_8,0.600244082743,,,2017_Nov_06_1159,60.0091809856,MAFE4ImagesEEG,001,101927,
AFNE01.JPG,AFNE01.JPG,AFNE01.JPG,AFNE01.JPG,AFNE01.JPG,AFNE01.JPG,,,,,,,,,,,,,,,,,1,0,10,3,,,,,,,AMSA16.jpg,AMNE02.jpg,AMSA19.jpg,AMNE05.jpg,AMSA19.jpg,MS,2,num_2,32,num_4,0.700177529361,,,2017_Nov_06_1159,60.0091809856,MAFE4ImagesEEG,001,101927,
AFNE01.JPG,AFNE01.JPG,AFNE01.JPG,AFNE01.JPG,AFNE01.JPG,AFNE01.JPG,,,,,,,,,,,,,,,,,1,1,11,7,,,,,,,AMSA08.jpg,AMSA12.jpg,AMNE19.jpg,AMNE02.jpg,AMSA08.jpg,MS,2,num_8,32,num_6,0.600182821508,,,2017_Nov_06_1159,60.0091809856,MAFE4ImagesEEG,001,101927,
AFNE01.JPG,AFNE01.JPG,AFNE01.JPG,AFNE01.JPG,AFNE01.JPG,AFNE01.JPG,,,,,,,,,,,,,,,,,1,2,12,9,,,,,,,AMSA03.jpg,AMNE20.jpg,AMSA11.jpg,AMNE15.jpg,AMNE15.jpg,MN,1,num_4,16,num_4,0.566770105157,,,2017_Nov_06_1159,60.0091809856,MAFE4ImagesEEG,001,101927,
AFNE01.JPG,AFNE01.JPG,AFNE01.JPG,AFNE01.JPG,AFNE01.JPG,AFNE01.JPG,,,,,,,,,,,,,,,,,1,3,13,2,,,,,,,AMSA19.jpg,AMNE14.jpg,AMNE11.jpg,AMSA09.jpg,AMNE14.jpg,MN,1,num_6,16,num_6,0.516843153629,,,2017_Nov_06_1159,60.0091809856,MAFE4ImagesEEG,001,101927,
AFNE01.JPG,AFNE01.JPG,AFNE01.JPG,AFNE01.JPG,AFNE01.JPG,AFNE01.JPG,,,,,,,,,,,,,,,,,1,4,14,8,,,,,,,AMSA18.jpg,AMNE17.jpg,AMNE05.jpg,AMSA02.jpg,AMSA18.jpg,MS,2,num_8,32,num_4,0.800132144708,,,2017_Nov_06_1159,60.0091809856,MAFE4ImagesEEG,001,101927,
AFNE01.JPG,AFNE01.JPG,AFNE01.JPG,AFNE01.JPG,AFNE01.JPG,AFNE01.JPG,,,,,,,,,,,,,,,,,1,5,15,1,,,,,,,AMNE04.jpg,AMSA14.jpg,AMSA18.jpg,AMNE16.jpg,AMNE16.jpg,MN,1,num_4,32,num_8,0.600177689688,,,2017_Nov_06_1159,60.0091809856,MAFE4ImagesEEG,001,101927,
AFNE01.JPG,AFNE01.JPG,AFNE01.JPG,AFNE01.JPG,AFNE01.JPG,AFNE01.JPG,,,,,,,,,,,,,,,,,1,6,16,4,,,,,,,AMNE14.jpg,AMSA12.jpg,AMSA07.jpg,AMNE19.jpg,AMNE19.jpg,MN,1,num_4,16,num_4,0.61681188154,,,2017_Nov_06_1159,60.0091809856,MAFE4ImagesEEG,001,101927,
AFNE01.JPG,AFNE01.JPG,AFNE01.JPG,AFNE01.JPG,AFNE01.JPG,AFNE01.JPG,,,,,,,,,,,,,,,,,1,7,17,0,,,,,,,AMSA16.jpg,AMNE12.jpg,AMSA06.jpg,AMNE08.jpg,AMSA16.jpg,MS,2,num_8,32,num_6,0.616835295456,,,2017_Nov_06_1159,60.0091809856,MAFE4ImagesEEG,001,101927,
AFNE01.JPG,AFNE01.JPG,AFNE01.JPG,AFNE01.JPG,AFNE01.JPG,AFNE01.JPG,,,,,,,,,,,,,,,,,1,8,18,5,,,,,,,AMSA03.jpg,AMNE18.jpg,AMNE09.jpg,AMSA07.jpg,AMNE18.jpg,MN,1,num_6,16,num_6,0.600167746656,,,2017_Nov_06_1159,60.0091809856,MAFE4ImagesEEG,001,101927,
AFNE01.JPG,AFNE01.JPG,AFNE01.JPG,AFNE01.JPG,AFNE01.JPG,AFNE01.JPG,,,,,,,,,,,,,,,,,1,9,19,6,,,,,,,AMSA02.jpg,AMNE12.jpg,AMNE03.jpg,AMSA04.jpg,AMNE03.jpg,MN,1,num_2,32,num_6,1.00014433265,,,2017_Nov_06_1159,60.0091809856,MAFE4ImagesEEG,001,101927,
AFNE01.JPG,AFNE01.JPG,AFNE01.JPG,AFNE01.JPG,AFNE01.JPG,AFNE01.JPG,,,,,,,,,,,,,,,,,2,0,20,9,,,,,,,AMSA02.jpg,AMSA05.jpg,AMNE16.jpg,AMNE05.jpg,AMSA02.jpg,MS,2,num_8,32,num_2,0.683460265864,,,2017_Nov_06_1159,60.0091809856,MAFE4ImagesEEG,001,101927,
AFNE01.JPG,AFNE01.JPG,AFNE01.JPG,AFNE01.JPG,AFNE01.JPG,AFNE01.JPG,,,,,,,,,,,,,,,,,2,1,21,0,,,,,,,AMSA16.jpg,AMSA12.jpg,AMNE20.jpg,AMNE05.jpg,AMNE20.jpg,MN,1,num_2,16,num_2,0.666779887863,,,2017_Nov_06_1159,60.0091809856,MAFE4ImagesEEG,001,101927,
AFNE01.JPG,AFNE01.JPG,AFNE01.JPG,AFNE01.JPG,AFNE01.JPG,AFNE01.JPG,,,,,,,,,,,,,,,,,2,2,22,4,,,,,,,AMSA02.jpg,AMSA16.jpg,AMNE05.jpg,AMNE14.jpg,AMSA02.jpg,MS,2,num_8,16,num_8,0.783428031486,,,2017_Nov_06_1159,60.0091809856,MAFE4ImagesEEG,001,101927,
AFNE01.JPG,AFNE01.JPG,AFNE01.JPG,AFNE01.JPG,AFNE01.JPG,AFNE01.JPG,,,,,,,,,,,,,,,,,2,3,23,8,,,,,,,AMNE12.jpg,AMSA04.jpg,AMSA11.jpg,AMNE01.jpg,AMSA11.jpg,MS,2,num_2,32,num_4,0.683483038563,,,2017_Nov_06_1159,60.0091809856,MAFE4ImagesEEG,001,101927,
AFNE01.JPG,AFNE01.JPG,AFNE01.JPG,AFNE01.JPG,AFNE01.JPG,AFNE01.JPG,,,,,,,,,,,,,,,,,2,4,24,1,,,,,,,AMSA13.jpg,AMNE05.jpg,AMSA09.jpg,AMNE11.jpg,AMNE05.jpg,MN,1,num_6,16,num_6,0.683422418777,,,2017_Nov_06_1159,60.0091809856,MAFE4ImagesEEG,001,101927,
AFNE01.JPG,AFNE01.JPG,AFNE01.JPG,AFNE01.JPG,AFNE01.JPG,AFNE01.JPG,,,,,,,,,,,,,,,,,2,5,25,5,,,,,,,AMSA19.jpg,AMNE18.jpg,AMNE13.jpg,AMSA08.jpg,AMSA19.jpg,MS,2,num_8,32,num_2,0.583521687659,,,2017_Nov_06_1159,60.0091809856,MAFE4ImagesEEG,001,101927,
AFNE01.JPG,AFNE01.JPG,AFNE01.JPG,AFNE01.JPG,AFNE01.JPG,AFNE01.JPG,,,,,,,,,,,,,,,,,2,6,26,3,,,,,,,AMNE17.jpg,AMSA08.jpg,AMSA14.jpg,AMNE03.jpg,AMSA08.jpg,MS,2,num_6,32,num_8,0.650117791491,,,2017_Nov_06_1159,60.0091809856,MAFE4ImagesEEG,001,101927,
AFNE01.JPG,AFNE01.JPG,AFNE01.JPG,AFNE01.JPG,AFNE01.JPG,AFNE01.JPG,,,,,,,,,,,,,,,,,2,7,27,2,,,,,,,AMSA12.jpg,AMNE14.jpg,AMSA15.jpg,AMNE06.jpg,AMNE06.jpg,MN,1,num_4,16,num_4,0.583491217345,,,2017_Nov_06_1159,60.0091809856,MAFE4ImagesEEG,001,101927,
AFNE01.JPG,AFNE01.JPG,AFNE01.JPG,AFNE01.JPG,AFNE01.JPG,AFNE01.JPG,,,,,,,,,,,,,,,,,2,8,28,7,,,,,,,AMNE14.jpg,AMSA02.jpg,AMSA04.jpg,AMNE12.jpg,AMNE14.jpg,MN,1,num_8,32,num_6,0.549886378227,,,2017_Nov_06_1159,60.0091809856,MAFE4ImagesEEG,001,101927,
AFNE01.JPG,AFNE01.JPG,AFNE01.JPG,AFNE01.JPG,AFNE01.JPG,AFNE01.JPG,,,,,,,,,,,,,,,,,2,9,29,6,,,,,,,AMNE06.jpg,AMSA09.jpg,AMNE13.jpg,AMSA02.jpg,AMSA02.jpg,MS,2,num_4,32,num_2,0.733374708565,,,2017_Nov_06_1159,60.0091809856,MAFE4ImagesEEG,001,101927,
AFNE01.JPG,AFNE01.JPG,AFNE01.JPG,AFNE01.JPG,AFNE01.JPG,AFNE01.JPG,,,,,,,,,,,,,,,,,3,0,30,0,,,,,,,AMSA17.jpg,AMSA06.jpg,AMNE08.jpg,AMNE13.jpg,AMNE13.jpg,MN,1,num_4,16,num_4,0.566790632438,,,2017_Nov_06_1159,60.0091809856,MAFE4ImagesEEG,001,101927,
AFNE01.JPG,AFNE01.JPG,AFNE01.JPG,AFNE01.JPG,AFNE01.JPG,AFNE01.JPG,,,,,,,,,,,,,,,,,3,1,31,1,,,,,,,AMSA07.jpg,AMNE17.jpg,AMSA10.jpg,AMNE15.jpg,AMNE15.jpg,MN,1,num_4,16,num_4,0.616732658818,,,2017_Nov_06_1159,60.0091809856,MAFE4ImagesEEG,001,101927,
AFNE01.JPG,AFNE01.JPG,AFNE01.JPG,AFNE01.JPG,AFNE01.JPG,AFNE01.JPG,,,,,,,,,,,,,,,,,3,2,32,8,,,,,,,AMSA01.jpg,AMNE11.jpg,AMSA11.jpg,AMNE09.jpg,AMNE09.jpg,MN,1,num_4,32,num_6,0.850075774593,,,2017_Nov_06_1159,60.0091809856,MAFE4ImagesEEG,001,101927,
AFNE01.JPG,AFNE01.JPG,AFNE01.JPG,AFNE01.JPG,AFNE01.JPG,AFNE01.JPG,,,,,,,,,,,,,,,,,3,3,33,9,,,,,,,AMSA04.jpg,AMSA13.jpg,AMNE16.jpg,AMNE17.jpg,AMNE17.jpg,MN,1,num_4,16,num_4,0.666757115163,,,2017_Nov_06_1159,60.0091809856,MAFE4ImagesEEG,001,101927,
AFNE01.JPG,AFNE01.JPG,AFNE01.JPG,AFNE01.JPG,AFNE01.JPG,AFNE01.JPG,,,,,,,,,,,,,,,,,3,4,34,3,,,,,,,AMSA12.jpg,AMNE08.jpg,AMNE11.jpg,AMSA14.jpg,AMSA12.jpg,MS,2,num_8,32,num_2,0.716812362662,,,2017_Nov_06_1159,60.0091809856,MAFE4ImagesEEG,001,101927,
AFNE01.JPG,AFNE01.JPG,AFNE01.JPG,AFNE01.JPG,AFNE01.JPG,AFNE01.JPG,,,,,,,,,,,,,,,,,3,5,35,7,,,,,,,AMSA13.jpg,AMSA10.jpg,AMNE02.jpg,AMNE11.jpg,AMNE11.jpg,MN,1,num_4,32,num_8,0.583477425622,,,2017_Nov_06_1159,60.0091809856,MAFE4ImagesEEG,001,101927,
AFNE01.JPG,AFNE01.JPG,AFNE01.JPG,AFNE01.JPG,AFNE01.JPG,AFNE01.JPG,,,,,,,,,,,,,,,,,3,6,36,4,,,,,,,AMSA06.jpg,AMSA17.jpg,AMNE12.jpg,AMNE05.jpg,AMSA06.jpg,MS,2,num_8,16,num_8,0.717261077138,,,2017_Nov_06_1159,60.0091809856,MAFE4ImagesEEG,001,101927,
AFNE01.JPG,AFNE01.JPG,AFNE01.JPG,AFNE01.JPG,AFNE01.JPG,AFNE01.JPG,,,,,,,,,,,,,,,,,3,7,37,5,,,,,,,AMNE15.jpg,AMNE11.jpg,AMSA11.jpg,AMSA10.jpg,AMSA11.jpg,MS,2,num_2,32,num_4,0.850139281247,,,2017_Nov_06_1159,60.0091809856,MAFE4ImagesEEG,001,101927,
AFNE01.JPG,AFNE01.JPG,AFNE01.JPG,AFNE01.JPG,AFNE01.JPG,AFNE01.JPG,,,,,,,,,,,,,,,,,3,8,38,6,,,,,,,AMSA03.jpg,AMNE04.jpg,AMNE10.jpg,AMSA05.jpg,AMNE04.jpg,MN,1,num_6,16,num_6,0.516481680097,,,2017_Nov_06_1159,60.0091809856,MAFE4ImagesEEG,001,101927,
AFNE01.JPG,AFNE01.JPG,AFNE01.JPG,AFNE01.JPG,AFNE01.JPG,AFNE01.JPG,,,,,,,,,,,,,,,,,3,9,39,2,,,,,,,AMNE02.jpg,AMSA19.jpg,AMSA01.jpg,AMNE12.jpg,AMSA19.jpg,MS,2,num_6,32,num_2,0.600103598787,,,2017_Nov_06_1159,60.0091809856,MAFE4ImagesEEG,001,101927,
AFNE01.JPG,AFNE01.JPG,AFNE01.JPG,AFNE01.JPG,AFNE01.JPG,AFNE01.JPG,,,,,,,,,,,,,,,,,4,0,40,9,,,,,,,AMNE06.jpg,AMNE10.jpg,AMSA16.jpg,AMSA03.jpg,AMNE10.jpg,MN,1,num_6,32,num_8,0.600378793431,,,2017_Nov_06_1159,60.0091809856,MAFE4ImagesEEG,001,101927,
AFNE01.JPG,AFNE01.JPG,AFNE01.JPG,AFNE01.JPG,AFNE01.JPG,AFNE01.JPG,,,,,,,,,,,,,,,,,4,1,41,6,,,,,,,AMSA12.jpg,AMNE12.jpg,AMSA05.jpg,AMNE06.jpg,AMNE12.jpg,MN,1,num_6,16,num_6,0.517187948572,,,2017_Nov_06_1159,60.0091809856,MAFE4ImagesEEG,001,101927,
AFNE01.JPG,AFNE01.JPG,AFNE01.JPG,AFNE01.JPG,AFNE01.JPG,AFNE01.JPG,,,,,,,,,,,,,,,,,4,2,42,7,,,,,,,AMNE03.jpg,AMNE09.jpg,AMSA04.jpg,AMSA19.jpg,AMNE03.jpg,MN,1,num_8,32,num_4,0.600530182244,,,2017_Nov_06_1159,60.0091809856,MAFE4ImagesEEG,001,101927,
AFNE01.JPG,AFNE01.JPG,AFNE01.JPG,AFNE01.JPG,AFNE01.JPG,AFNE01.JPG,,,,,,,,,,,,,,,,,4,3,43,0,,,,,,,AMNE07.jpg,AMSA01.jpg,AMNE19.jpg,AMSA13.jpg,AMSA13.jpg,MS,2,num_4,16,num_4,0.716771307867,,,2017_Nov_06_1159,60.0091809856,MAFE4ImagesEEG,001,101927,
AFNE01.JPG,AFNE01.JPG,AFNE01.JPG,AFNE01.JPG,AFNE01.JPG,AFNE01.JPG,,,,,,,,,,,,,,,,,4,4,44,8,,,,,,,AMNE15.jpg,AMSA09.jpg,AMNE19.jpg,AMSA06.jpg,AMNE15.jpg,MN,1,num_8,16,num_8,0.600094297435,,,2017_Nov_06_1159,60.0091809856,MAFE4ImagesEEG,001,101927,
AFNE01.JPG,AFNE01.JPG,AFNE01.JPG,AFNE01.JPG,AFNE01.JPG,AFNE01.JPG,,,,,,,,,,,,,,,,,4,5,45,2,,,,,,,AMSA04.jpg,AMSA05.jpg,AMNE19.jpg,AMNE14.jpg,AMSA04.jpg,MS,2,num_8,32,num_6,0.883538205642,,,2017_Nov_06_1159,60.0091809856,MAFE4ImagesEEG,001,101927,
AFNE01.JPG,AFNE01.JPG,AFNE01.JPG,AFNE01.JPG,AFNE01.JPG,AFNE01.JPG,,,,,,,,,,,,,,,,,4,6,46,5,,,,,,,AMSA15.jpg,AMNE19.jpg,AMNE14.jpg,AMSA05.jpg,AMNE19.jpg,MN,1,num_6,32,num_8,0.66679496225,,,2017_Nov_06_1159,60.0091809856,MAFE4ImagesEEG,001,101927,
AFNE01.JPG,AFNE01.JPG,AFNE01.JPG,AFNE01.JPG,AFNE01.JPG,AFNE01.JPG,,,,,,,,,,,,,,,,,4,7,47,4,,,,,,,AMSA13.jpg,AMNE03.jpg,AMSA11.jpg,AMNE20.jpg,AMSA11.jpg,MS,2,num_2,32,num_4,0.583487047581,,,2017_Nov_06_1159,60.0091809856,MAFE4ImagesEEG,001,101927,
AFNE01.JPG,AFNE01.JPG,AFNE01.JPG,AFNE01.JPG,AFNE01.JPG,AFNE01.JPG,,,,,,,,,,,,,,,,,4,8,48,1,,,,,,,AMSA19.jpg,AMNE09.jpg,AMSA11.jpg,AMNE10.jpg,AMSA19.jpg,MS,2,num_8,16,num_8,0.71681172098,,,2017_Nov_06_1159,60.0091809856,MAFE4ImagesEEG,001,101927,
AFNE01.JPG,AFNE01.JPG,AFNE01.JPG,AFNE01.JPG,AFNE01.JPG,AFNE01.JPG,,,,,,,,,,,,,,,,,4,9,49,3,,,,,,,AMNE11.jpg,AMSA08.jpg,AMSA06.jpg,AMNE17.jpg,AMSA06.jpg,MS,2,num_2,32,num_6,0.750150988111,,,2017_Nov_06_1159,60.0091809856,MAFE4ImagesEEG,001,101927,
AFNE01.JPG,AFNE01.JPG,AFNE01.JPG,AFNE01.JPG,AFNE01.JPG,AFNE01.JPG,,,,,,,,,,,,,,,,,5,0,50,6,,,,,,,AMNE09.jpg,AMSA11.jpg,AMNE10.jpg,AMSA13.jpg,AMSA13.jpg,MS,2,num_4,16,num_4,0.616487293039,,,2017_Nov_06_1159,60.0091809856,MAFE4ImagesEEG,001,101927,
AFNE01.JPG,AFNE01.JPG,AFNE01.JPG,AFNE01.JPG,AFNE01.JPG,AFNE01.JPG,,,,,,,,,,,,,,,,,5,1,51,7,,,,,,,AMNE07.jpg,AMSA18.jpg,AMSA07.jpg,AMNE12.jpg,AMSA18.jpg,MS,2,num_6,32,num_8,0.9000530825,,,2017_Nov_06_1159,60.0091809856,MAFE4ImagesEEG,001,101927,
AFNE01.JPG,AFNE01.JPG,AFNE01.JPG,AFNE01.JPG,AFNE01.JPG,AFNE01.JPG,,,,,,,,,,,,,,,,,5,2,52,0,,,,,,,AMNE02.jpg,AMSA13.jpg,AMSA05.jpg,AMNE08.jpg,AMNE08.jpg,MN,1,num_4,32,num_2,0.61676986469,,,2017_Nov_06_1159,60.0091809856,MAFE4ImagesEEG,001,101927,
AFNE01.JPG,AFNE01.JPG,AFNE01.JPG,AFNE01.JPG,AFNE01.JPG,AFNE01.JPG,,,,,,,,,,,,,,,,,5,3,53,1,,,,,,,AMNE03.jpg,AMNE17.jpg,AMSA10.jpg,AMSA02.jpg,AMNE03.jpg,MN,1,num_8,16,num_8,0.73338946281,,,2017_Nov_06_1159,60.0091809856,MAFE4ImagesEEG,001,101927,
AFNE01.JPG,AFNE01.JPG,AFNE01.JPG,AFNE01.JPG,AFNE01.JPG,AFNE01.JPG,,,,,,,,,,,,,,,,,5,4,54,9,,,,,,,AMSA19.jpg,AMNE19.jpg,AMNE14.jpg,AMSA05.jpg,AMNE19.jpg,MN,1,num_6,16,num_6,0.800171916373,,,2017_Nov_06_1159,60.0091809856,MAFE4ImagesEEG,001,101927,
AFNE01.JPG,AFNE01.JPG,AFNE01.JPG,AFNE01.JPG,AFNE01.JPG,AFNE01.JPG,,,,,,,,,,,,,,,,,5,5,55,5,,,,,,,AMNE06.jpg,AMNE20.jpg,AMSA10.jpg,AMSA16.jpg,AMSA16.jpg,MS,2,num_4,32,num_8,0.733549191151,,,2017_Nov_06_1159,60.0091809856,MAFE4ImagesEEG,001,101927,
AFNE01.JPG,AFNE01.JPG,AFNE01.JPG,AFNE01.JPG,AFNE01.JPG,AFNE01.JPG,,,,,,,,,,,,,,,,,5,6,56,3,,,,,,,AMSA15.jpg,AMNE17.jpg,AMNE04.jpg,AMSA13.jpg,AMSA15.jpg,MS,2,num_8,32,num_4,0.683519602753,,,2017_Nov_06_1159,60.0091809856,MAFE4ImagesEEG,001,101927,
AFNE01.JPG,AFNE01.JPG,AFNE01.JPG,AFNE01.JPG,AFNE01.JPG,AFNE01.JPG,,,,,,,,,,,,,,,,,5,7,57,2,,,,,,,AMSA20.jpg,AMNE08.jpg,AMSA06.jpg,AMNE03.jpg,AMSA20.jpg,MS,2,num_8,16,num_8,0.600178331137,,,2017_Nov_06_1159,60.0091809856,MAFE4ImagesEEG,001,101927,
AFNE01.JPG,AFNE01.JPG,AFNE01.JPG,AFNE01.JPG,AFNE01.JPG,AFNE01.JPG,,,,,,,,,,,,,,,,,5,8,58,8,,,,,,,AMSA12.jpg,AMNE09.jpg,AMNE13.jpg,AMSA20.jpg,AMSA20.jpg,MS,2,num_4,32,num_6,0.533505891217,,,2017_Nov_06_1159,60.0091809856,MAFE4ImagesEEG,001,101927,
AFNE01.JPG,AFNE01.JPG,AFNE01.JPG,AFNE01.JPG,AFNE01.JPG,AFNE01.JPG,,,,,,,,,,,,,,,,,5,9,59,4,,,,,,,AMSA09.jpg,AMNE09.jpg,AMSA18.jpg,AMNE07.jpg,AMSA09.jpg,MS,2,num_8,16,num_8,0.700124286581,,,2017_Nov_06_1159,60.0091809856,MAFE4ImagesEEG,001,101927,
,,,,,,,,,,,,,,,,,,,,,,,,,,,,,,,,,,,,,,,,,,,space,16.66525413,2017_Nov_06_1159,60.0091809856,MAFE4ImagesEEG,001,101927,
AFNE01.JPG,AFNE01.JPG,AFNE01.JPG,AFNE01.JPG,AFNE01.JPG,AFNE01.JPG,,,,,,,,,,,,,,,,,,,,,0,0,0,2,,,AFNE18.jpg,AFSA09.jpg,AFNE20.jpg,AFSA02.jpg,AFNE20.jpg,FN,3,num_2,16,num_2,0.783512386028,,,2017_Nov_06_1159,60.0091809856,MAFE4ImagesEEG,001,101927,
AFNE01.JPG,AFNE01.JPG,AFNE01.JPG,AFNE01.JPG,AFNE01.JPG,AFNE01.JPG,,,,,,,,,,,,,,,,,,,,,0,1,1,8,,,AFNE20.jpg,AFNE18.jpg,AFSA15.jpg,AFSA17.jpg,AFSA17.jpg,FS,4,num_4,16,num_4,0.600088524166,,,2017_Nov_06_1159,60.0091809856,MAFE4ImagesEEG,001,101927,
AFNE01.JPG,AFNE01.JPG,AFNE01.JPG,AFNE01.JPG,AFNE01.JPG,AFNE01.JPG,,,,,,,,,,,,,,,,,,,,,0,2,2,7,,,AFNE13.jpg,AFSA15.jpg,AFSA13.jpg,AFNE09.jpg,AFNE09.jpg,FN,3,num_4,32,num_6,0.550121479901,,,2017_Nov_06_1159,60.0091809856,MAFE4ImagesEEG,001,101927,
AFNE01.JPG,AFNE01.JPG,AFNE01.JPG,AFNE01.JPG,AFNE01.JPG,AFNE01.JPG,,,,,,,,,,,,,,,,,,,,,0,3,3,1,,,AFNE12.jpg,AFSA15.jpg,AFSA19.jpg,AFNE13.jpg,AFNE12.jpg,FN,3,num_8,16,num_8,0.583473255858,,,2017_Nov_06_1159,60.0091809856,MAFE4ImagesEEG,001,101927,
AFNE01.JPG,AFNE01.JPG,AFNE01.JPG,AFNE01.JPG,AFNE01.JPG,AFNE01.JPG,,,,,,,,,,,,,,,,,,,,,0,4,4,3,,,AFNE06.jpg,AFNE10.jpg,AFSA13.jpg,AFSA05.jpg,AFSA13.jpg,FS,4,num_2,32,num_4,0.616775317118,,,2017_Nov_06_1159,60.0091809856,MAFE4ImagesEEG,001,101927,
AFNE01.JPG,AFNE01.JPG,AFNE01.JPG,AFNE01.JPG,AFNE01.JPG,AFNE01.JPG,,,,,,,,,,,,,,,,,,,,,0,5,5,0,,,AFSA20.jpg,AFNE14.jpg,AFNE06.jpg,AFSA04.jpg,AFSA20.jpg,FS,4,num_8,16,num_8,0.616688717622,,,2017_Nov_06_1159,60.0091809856,MAFE4ImagesEEG,001,101927,
AFNE01.JPG,AFNE01.JPG,AFNE01.JPG,AFNE01.JPG,AFNE01.JPG,AFNE01.JPG,,,,,,,,,,,,,,,,,,,,,0,6,6,9,,,AFSA05.jpg,AFNE11.jpg,AFNE12.jpg,AFSA13.jpg,AFSA05.jpg,FS,4,num_8,32,num_6,0.633501881966,,,2017_Nov_06_1159,60.0091809856,MAFE4ImagesEEG,001,101927,
AFNE01.JPG,AFNE01.JPG,AFNE01.JPG,AFNE01.JPG,AFNE01.JPG,AFNE01.JPG,,,,,,,,,,,,,,,,,,,,,0,7,7,6,,,AFSA08.jpg,AFNE01.jpg,AFSA16.jpg,AFNE17.jpg,AFSA08.jpg,FS,4,num_8,16,num_8,0.600195650943,,,2017_Nov_06_1159,60.0091809856,MAFE4ImagesEEG,001,101927,
AFNE01.JPG,AFNE01.JPG,AFNE01.JPG,AFNE01.JPG,AFNE01.JPG,AFNE01.JPG,,,,,,,,,,,,,,,,,,,,,0,8,8,4,,,AFSA03.jpg,AFNE13.jpg,AFNE01.jpg,AFSA14.jpg,AFNE13.jpg,FN,3,num_6,32,num_4,0.516798570752,,,2017_Nov_06_1159,60.0091809856,MAFE4ImagesEEG,001,101927,
AFNE01.JPG,AFNE01.JPG,AFNE01.JPG,AFNE01.JPG,AFNE01.JPG,AFNE01.JPG,,,,,,,,,,,,,,,,,,,,,0,9,9,5,,,AFSA07.jpg,AFNE14.jpg,AFNE11.jpg,AFSA19.jpg,AFNE14.jpg,FN,3,num_6,32,num_8,0.650162695209,,,2017_Nov_06_1159,60.0091809856,MAFE4ImagesEEG,001,101927,
AFNE01.JPG,AFNE01.JPG,AFNE01.JPG,AFNE01.JPG,AFNE01.JPG,AFNE01.JPG,,,,,,,,,,,,,,,,,,,,,1,0,10,5,,,AFNE08.jpg,AFSA05.jpg,AFSA13.jpg,AFNE04.jpg,AFNE08.jpg,FN,3,num_8,32,num_4,0.53346644016,,,2017_Nov_06_1159,60.0091809856,MAFE4ImagesEEG,001,101927,
AFNE01.JPG,AFNE01.JPG,AFNE01.JPG,AFNE01.JPG,AFNE01.JPG,AFNE01.JPG,,,,,,,,,,,,,,,,,,,,,1,1,11,4,,,AFNE09.jpg,AFSA02.jpg,AFSA12.jpg,AFNE11.jpg,AFSA02.jpg,FS,4,num_6,32,num_8,0.800174161559,,,2017_Nov_06_1159,60.0091809856,MAFE4ImagesEEG,001,101927,
AFNE01.JPG,AFNE01.JPG,AFNE01.JPG,AFNE01.JPG,AFNE01.JPG,AFNE01.JPG,,,,,,,,,,,,,,,,,,,,,1,2,12,3,,,AFNE19.jpg,AFSA08.jpg,AFSA02.jpg,AFNE09.jpg,AFNE19.jpg,FN,3,num_8,32,num_6,1.21679584449,,,2017_Nov_06_1159,60.0091809856,MAFE4ImagesEEG,001,101927,
AFNE01.JPG,AFNE01.JPG,AFNE01.JPG,AFNE01.JPG,AFNE01.JPG,AFNE01.JPG,,,,,,,,,,,,,,,,,,,,,1,3,13,0,,,AFNE03.jpg,AFSA15.jpg,AFNE17.jpg,AFSA20.jpg,AFNE03.jpg,FN,3,num_8,16,num_8,0.58349442482,,,2017_Nov_06_1159,60.0091809856,MAFE4ImagesEEG,001,101927,
AFNE01.JPG,AFNE01.JPG,AFNE01.JPG,AFNE01.JPG,AFNE01.JPG,AFNE01.JPG,,,,,,,,,,,,,,,,,,,,,1,4,14,7,,,AFSA15.jpg,AFSA09.jpg,AFNE05.jpg,AFNE18.jpg,AFNE18.jpg,FN,3,num_4,16,num_4,0.833386095008,,,2017_Nov_06_1159,60.0091809856,MAFE4ImagesEEG,001,101927,
AFNE01.JPG,AFNE01.JPG,AFNE01.JPG,AFNE01.JPG,AFNE01.JPG,AFNE01.JPG,,,,,,,,,,,,,,,,,,,,,1,5,15,1,,,AFSA20.jpg,AFSA17.jpg,AFNE15.jpg,AFNE16.jpg,AFNE16.jpg,FN,3,num_4,32,num_8,0.583671152126,,,2017_Nov_06_1159,60.0091809856,MAFE4ImagesEEG,001,101927,
AFNE01.JPG,AFNE01.JPG,AFNE01.JPG,AFNE01.JPG,AFNE01.JPG,AFNE01.JPG,,,,,,,,,,,,,,,,,,,,,1,6,16,6,,,AFSA20.jpg,AFNE10.jpg,AFNE05.jpg,AFSA14.jpg,AFNE05.jpg,FN,3,num_2,32,num_6,0.650182581041,,,2017_Nov_06_1159,60.0091809856,MAFE4ImagesEEG,001,101927,
AFNE01.JPG,AFNE01.JPG,AFNE01.JPG,AFNE01.JPG,AFNE01.JPG,AFNE01.JPG,,,,,,,,,,,,,,,,,,,,,1,7,17,8,,,AFNE09.jpg,AFSA12.jpg,AFSA17.jpg,AFNE02.jpg,AFSA17.jpg,FS,4,num_2,32,num_8,0.633501240518,,,2017_Nov_06_1159,60.0091809856,MAFE4ImagesEEG,001,101927,
AFNE01.JPG,AFNE01.JPG,AFNE01.JPG,AFNE01.JPG,AFNE01.JPG,AFNE01.JPG,,,,,,,,,,,,,,,,,,,,,1,8,18,2,,,AFSA10.jpg,AFNE08.jpg,AFNE05.jpg,AFSA19.jpg,AFNE08.jpg,FN,3,num_6,32,num_8,0.783502443228,,,2017_Nov_06_1159,60.0091809856,MAFE4ImagesEEG,001,101927,
AFNE01.JPG,AFNE01.JPG,AFNE01.JPG,AFNE01.JPG,AFNE01.JPG,AFNE01.JPG,,,,,,,,,,,,,,,,,,,,,1,9,19,9,,,AFNE17.jpg,AFNE20.jpg,AFSA19.jpg,AFSA20.jpg,AFNE20.jpg,FN,3,num_6,16,num_6,0.583517197054,,,2017_Nov_06_1159,60.0091809856,MAFE4ImagesEEG,001,101927,
AFNE01.JPG,AFNE01.JPG,AFNE01.JPG,AFNE01.JPG,AFNE01.JPG,AFNE01.JPG,,,,,,,,,,,,,,,,,,,,,2,0,20,9,,,AFSA03.jpg,AFSA15.jpg,AFNE09.jpg,AFNE16.jpg,AFNE16.jpg,FN,3,num_4,32,num_8,0.616849087179,,,2017_Nov_06_1159,60.0091809856,MAFE4ImagesEEG,001,101927,
AFNE01.JPG,AFNE01.JPG,AFNE01.JPG,AFNE01.JPG,AFNE01.JPG,AFNE01.JPG,,,,,,,,,,,,,,,,,,,,,2,1,21,2,,,AFSA01.jpg,AFNE01.jpg,AFSA19.jpg,AFNE07.jpg,AFNE07.jpg,FN,3,num_4,16,num_4,0.433480713051,,,2017_Nov_06_1159,60.0091809856,MAFE4ImagesEEG,001,101927,
AFNE01.JPG,AFNE01.JPG,AFNE01.JPG,AFNE01.JPG,AFNE01.JPG,AFNE01.JPG,,,,,,,,,,,,,,,,,,,,,2,2,22,5,,,AFNE01.jpg,AFSA12.jpg,AFSA20.jpg,AFNE05.jpg,AFNE01.jpg,FN,3,num_8,16,num_8,0.550169270253,,,2017_Nov_06_1159,60.0091809856,MAFE4ImagesEEG,001,101927,
AFNE01.JPG,AFNE01.JPG,AFNE01.JPG,AFNE01.JPG,AFNE01.JPG,AFNE01.JPG,,,,,,,,,,,,,,,,,,,,,2,3,23,0,,,AFSA03.jpg,AFSA16.jpg,AFNE13.jpg,AFNE17.jpg,AFNE17.jpg,FN,3,num_4,16,num_4,0.566831366392,,,2017_Nov_06_1159,60.0091809856,MAFE4ImagesEEG,001,101927,
AFNE01.JPG,AFNE01.JPG,AFNE01.JPG,AFNE01.JPG,AFNE01.JPG,AFNE01.JPG,,,,,,,,,,,,,,,,,,,,,2,4,24,3,,,AFNE13.jpg,AFNE03.jpg,AFSA06.jpg,AFSA20.jpg,AFSA06.jpg,FS,4,num_2,32,num_8,0.767020282103,,,2017_Nov_06_1159,60.0091809856,MAFE4ImagesEEG,001,101927,
AFNE01.JPG,AFNE01.JPG,AFNE01.JPG,AFNE01.JPG,AFNE01.JPG,AFNE01.JPG,,,,,,,,,,,,,,,,,,,,,2,5,25,8,,,AFNE07.jpg,AFSA19.jpg,AFSA18.jpg,AFNE09.jpg,AFSA18.jpg,FS,4,num_2,32,num_6,0.616813805886,,,2017_Nov_06_1159,60.0091809856,MAFE4ImagesEEG,001,101927,
AFNE01.JPG,AFNE01.JPG,AFNE01.JPG,AFNE01.JPG,AFNE01.JPG,AFNE01.JPG,,,,,,,,,,,,,,,,,,,,,2,6,26,4,,,AFSA18.jpg,AFSA02.jpg,AFNE04.jpg,AFNE17.jpg,AFNE17.jpg,FN,3,num_4,16,num_4,0.750137516996,,,2017_Nov_06_1159,60.0091809856,MAFE4ImagesEEG,001,101927,
AFNE01.JPG,AFNE01.JPG,AFNE01.JPG,AFNE01.JPG,AFNE01.JPG,AFNE01.JPG,,,,,,,,,,,,,,,,,,,,,2,7,27,7,,,AFNE15.jpg,AFNE04.jpg,AFSA14.jpg,AFSA08.jpg,AFNE04.jpg,FN,3,num_6,32,num_8,0.600129899336,,,2017_Nov_06_1159,60.0091809856,MAFE4ImagesEEG,001,101927,
AFNE01.JPG,AFNE01.JPG,AFNE01.JPG,AFNE01.JPG,AFNE01.JPG,AFNE01.JPG,,,,,,,,,,,,,,,,,,,,,2,8,28,6,,,AFSA09.jpg,AFNE19.jpg,AFNE15.jpg,AFSA04.jpg,AFSA09.jpg,FS,4,num_8,32,num_6,0.650138960453,,,2017_Nov_06_1159,60.0091809856,MAFE4ImagesEEG,001,101927,
AFNE01.JPG,AFNE01.JPG,AFNE01.JPG,AFNE01.JPG,AFNE01.JPG,AFNE01.JPG,,,,,,,,,,,,,,,,,,,,,2,9,29,1,,,AFSA10.jpg,AFNE15.jpg,AFSA06.jpg,AFNE20.jpg,AFNE15.jpg,FN,3,num_6,32,num_4,0.700140644098,,,2017_Nov_06_1159,60.0091809856,MAFE4ImagesEEG,001,101927,
AFNE01.JPG,AFNE01.JPG,AFNE01.JPG,AFNE01.JPG,AFNE01.JPG,AFNE01.JPG,,,,,,,,,,,,,,,,,,,,,3,0,30,6,,,AFSA01.jpg,AFSA05.jpg,AFNE10.jpg,AFNE13.jpg,AFSA01.jpg,FS,4,num_8,16,num_8,0.516810117522,,,2017_Nov_06_1159,60.0091809856,MAFE4ImagesEEG,001,101927,
AFNE01.JPG,AFNE01.JPG,AFNE01.JPG,AFNE01.JPG,AFNE01.JPG,AFNE01.JPG,,,,,,,,,,,,,,,,,,,,,3,1,31,7,,,AFNE06.jpg,AFNE13.jpg,AFSA20.jpg,AFSA05.jpg,AFSA20.jpg,FS,4,num_2,32,num_4,0.750123404432,,,2017_Nov_06_1159,60.0091809856,MAFE4ImagesEEG,001,101927,
AFNE01.JPG,AFNE01.JPG,AFNE01.JPG,AFNE01.JPG,AFNE01.JPG,AFNE01.JPG,,,,,,,,,,,,,,,,,,,,,3,2,32,3,,,AFNE02.jpg,AFSA13.jpg,AFNE07.jpg,AFSA05.jpg,AFSA05.jpg,FS,4,num_4,32,num_2,0.733375670854,,,2017_Nov_06_1159,60.0091809856,MAFE4ImagesEEG,001,101927,
AFNE01.JPG,AFNE01.JPG,AFNE01.JPG,AFNE01.JPG,AFNE01.JPG,AFNE01.JPG,,,,,,,,,,,,,,,,,,,,,3,3,33,2,,,AFNE09.jpg,AFNE19.jpg,AFSA11.jpg,AFSA02.jpg,AFNE19.jpg,FN,3,num_6,32,num_8,0.616755110445,,,2017_Nov_06_1159,60.0091809856,MAFE4ImagesEEG,001,101927,
AFNE01.JPG,AFNE01.JPG,AFNE01.JPG,AFNE01.JPG,AFNE01.JPG,AFNE01.JPG,,,,,,,,,,,,,,,,,,,,,3,4,34,0,,,AFNE10.jpg,AFSA14.jpg,AFNE14.jpg,AFSA08.jpg,AFNE10.jpg,FN,3,num_8,32,num_6,0.900119154714,,,2017_Nov_06_1159,60.0091809856,MAFE4ImagesEEG,001,101927,
AFNE01.JPG,AFNE01.JPG,AFNE01.JPG,AFNE01.JPG,AFNE01.JPG,AFNE01.JPG,,,,,,,,,,,,,,,,,,,,,3,5,35,9,,,AFNE08.jpg,AFSA12.jpg,AFSA09.jpg,AFNE13.jpg,AFSA12.jpg,FS,4,num_6,32,num_8,0.750149384607,,,2017_Nov_06_1159,60.0091809856,MAFE4ImagesEEG,001,101927,
AFNE01.JPG,AFNE01.JPG,AFNE01.JPG,AFNE01.JPG,AFNE01.JPG,AFNE01.JPG,,,,,,,,,,,,,,,,,,,,,3,6,36,4,,,AFSA04.jpg,AFSA18.jpg,AFNE01.jpg,AFNE17.jpg,AFNE17.jpg,FN,3,num_4,16,num_4,0.700178170577,,,2017_Nov_06_1159,60.0091809856,MAFE4ImagesEEG,001,101927,
AFNE01.JPG,AFNE01.JPG,AFNE01.JPG,AFNE01.JPG,AFNE01.JPG,AFNE01.JPG,,,,,,,,,,,,,,,,,,,,,3,7,37,8,,,AFNE09.jpg,AFNE10.jpg,AFSA05.jpg,AFSA10.jpg,AFSA05.jpg,FS,4,num_2,16,num_2,0.50015411526,,,2017_Nov_06_1159,60.0091809856,MAFE4ImagesEEG,001,101927,
AFNE01.JPG,AFNE01.JPG,AFNE01.JPG,AFNE01.JPG,AFNE01.JPG,AFNE01.JPG,,,,,,,,,,,,,,,,,,,,,3,8,38,1,,,AFNE02.jpg,AFNE16.jpg,AFSA07.jpg,AFSA11.jpg,AFNE02.jpg,FN,3,num_8,16,num_8,0.600168708945,,,2017_Nov_06_1159,60.0091809856,MAFE4ImagesEEG,001,101927,
