IPosition2,IPosition3,IPosition1,IPosition6,IPosition4,IPosition5,TrialsM1.thisRepN,TrialsM1.thisTrialN,TrialsM1.thisN,TrialsM1.thisIndex,TrialsF1.thisRepN,TrialsF1.thisTrialN,TrialsF1.thisN,TrialsF1.thisIndex,TrialsM2.thisRepN,TrialsM2.thisTrialN,TrialsM2.thisN,TrialsM2.thisIndex,TrialsF2.thisRepN,TrialsF2.thisTrialN,TrialsF2.thisN,TrialsF2.thisIndex,TrialsM3.thisRepN,TrialsM3.thisTrialN,TrialsM3.thisN,TrialsM3.thisIndex,TrialsF3.thisRepN,TrialsF3.thisTrialN,TrialsF3.thisN,TrialsF3.thisIndex,InstrKey_resp.keys,InstrKey_resp.rt,Image0 _Position,Image1 _Position,Image2 _Position,Image3 _Position,Center_image,condition,code,correct_answer,accuracy,Key_Resp.keys,Key_Resp.rt,BreakKey_resp.keys,BreakKey_resp.rt,date,frameRate,expName,session,participant,
,,,,,,,,,,,,,,,,,,,,,,,,,,,,,,space,19.6490262811,,,,,,,,,,,,,,2017_Oct_04_1115,60.0081414919,MAFE4ImagesEEG,001,101914,
AMSA25.JPG,AMNE24.JPG,AMSA24.JPG,AMNE26.JPG,AMSA21.JPG,AMNE25.JPG,0,0,0,3,,,,,,,,,,,,,,,,,,,,,,,AMSA17.jpg,AMNE19.jpg,AMNE12.jpg,AMSA19.jpg,AMNE12.jpg,MN,1,num_2,32,num_4,1.48339031282,,,2017_Oct_04_1115,60.0081414919,MAFE4ImagesEEG,001,101914,
AMNE23.JPG,AMNE24.JPG,AMNE22.JPG,AMSA24.JPG,AMSA22.JPG,AMSA23.JPG,0,1,1,9,,,,,,,,,,,,,,,,,,,,,,,AMNE03.jpg,AMNE17.jpg,AMSA05.jpg,AMSA17.jpg,AMNE03.jpg,MN,1,num_8,16,num_8,0.850093447632,,,2017_Oct_04_1115,60.0081414919,MAFE4ImagesEEG,001,101914,
AFNE22.JPG,AFSA24.JPG,AFSA22.JPG,AFNE25.JPG,AFNE24.JPG,AFSA25.JPG,0,2,2,6,,,,,,,,,,,,,,,,,,,,,,,AMNE14.jpg,AMSA09.jpg,AMNE12.jpg,AMSA12.jpg,AMSA12.jpg,MS,2,num_4,16,num_4,1.03347404202,,,2017_Oct_04_1115,60.0081414919,MAFE4ImagesEEG,001,101914,
AFNE23.JPG,AFNE24.JPG,AFNE22.JPG,AFSA24.JPG,AFSA22.JPG,AFSA23.JPG,0,3,3,8,,,,,,,,,,,,,,,,,,,,,,,AMSA09.jpg,AMNE11.jpg,AMNE16.jpg,AMSA17.jpg,AMNE16.jpg,MN,1,num_2,32,num_8,0.83342265946,,,2017_Oct_04_1115,60.0081414919,MAFE4ImagesEEG,001,101914,
AFSA21.JPG,AFNE23.JPG,AFNE21.JPG,AFSA25.JPG,AFNE25.JPG,AFSA23.JPG,0,4,4,4,,,,,,,,,,,,,,,,,,,,,,,AMSA02.jpg,AMNE10.jpg,AMSA16.jpg,AMNE08.jpg,AMNE08.jpg,MN,1,num_4,32,num_2,2.01665924153,,,2017_Oct_04_1115,60.0081414919,MAFE4ImagesEEG,001,101914,
AMNE22.JPG,AMSA24.JPG,AMSA22.JPG,AMNE25.JPG,AMNE24.JPG,AMSA25.JPG,0,5,5,7,,,,,,,,,,,,,,,,,,,,,,,AMSA01.jpg,AMSA02.jpg,AMNE04.jpg,AMNE15.jpg,AMSA01.jpg,MS,2,num_8,16,num_8,0.766577853734,,,2017_Oct_04_1115,60.0081414919,MAFE4ImagesEEG,001,101914,
AFSA25.JPG,AFNE24.JPG,AFSA24.JPG,AFNE21.JPG,AFSA21.JPG,AFNE25.JPG,0,6,6,2,,,,,,,,,,,,,,,,,,,,,,,AMSA07.jpg,AMNE18.jpg,AMSA01.jpg,AMNE06.jpg,AMNE18.jpg,MN,1,num_6,16,num_6,1.33340870726,,,2017_Oct_04_1115,60.0081414919,MAFE4ImagesEEG,001,101914,
AMSA21.JPG,AMNE23.JPG,AMNE21.JPG,AMSA25.JPG,AMNE25.JPG,AMSA23.JPG,0,7,7,5,,,,,,,,,,,,,,,,,,,,,,,AMSA19.jpg,AMNE12.jpg,AMNE05.jpg,AMSA15.jpg,AMSA19.jpg,MS,2,num_8,32,num_4,1.66658423645,,,2017_Oct_04_1115,60.0081414919,MAFE4ImagesEEG,001,101914,
AFSA21.JPG,AFNE22.JPG,AFNE21.JPG,AFSA23.JPG,AFSA22.JPG,AFNE23.JPG,0,8,8,0,,,,,,,,,,,,,,,,,,,,,,,AMNE20.jpg,AMSA06.jpg,AMNE13.jpg,AMSA19.jpg,AMSA19.jpg,MS,2,num_4,32,num_6,1.16705941292,,,2017_Oct_04_1115,60.0081414919,MAFE4ImagesEEG,001,101914,
AMSA21.JPG,AMNE22.JPG,AMNE21.JPG,AMSA23.JPG,AMSA22.JPG,AMNE23.JPG,0,9,9,1,,,,,,,,,,,,,,,,,,,,,,,AMNE17.jpg,AMSA12.jpg,AMNE12.jpg,AMSA17.jpg,AMSA12.jpg,MS,2,num_6,32,num_4,1.21678792247,,,2017_Oct_04_1115,60.0081414919,MAFE4ImagesEEG,001,101914,
AMNE22.JPG,AMSA24.JPG,AMSA22.JPG,AMNE25.JPG,AMNE24.JPG,AMSA25.JPG,,,,,0,0,0,7,,,,,,,,,,,,,,,,,,,AFSA03.jpg,AFNE01.jpg,AFNE11.jpg,AFSA09.jpg,AFSA03.jpg,FS,4,num_8,16,num_8,0.816742569819,,,2017_Oct_04_1115,60.0081414919,MAFE4ImagesEEG,001,101914,
AMNE23.JPG,AMNE24.JPG,AMNE22.JPG,AMSA24.JPG,AMSA22.JPG,AMSA23.JPG,,,,,0,1,1,9,,,,,,,,,,,,,,,,,,,AFSA20.jpg,AFSA16.jpg,AFNE07.jpg,AFNE15.jpg,AFSA16.jpg,FS,4,num_6,32,num_2,1.96666964956,,,2017_Oct_04_1115,60.0081414919,MAFE4ImagesEEG,001,101914,
AMSA25.JPG,AMNE24.JPG,AMSA24.JPG,AMNE26.JPG,AMSA21.JPG,AMNE25.JPG,,,,,0,2,2,3,,,,,,,,,,,,,,,,,,,AFSA06.jpg,AFNE16.jpg,AFNE07.jpg,AFSA02.jpg,AFNE16.jpg,FN,3,num_6,32,num_2,0.950073273081,,,2017_Oct_04_1115,60.0081414919,MAFE4ImagesEEG,001,101914,
AMSA21.JPG,AMNE23.JPG,AMNE21.JPG,AMSA25.JPG,AMNE25.JPG,AMSA23.JPG,,,,,0,3,3,5,,,,,,,,,,,,,,,,,,,AFSA13.jpg,AFNE04.jpg,AFSA14.jpg,AFNE17.jpg,AFSA14.jpg,FS,4,num_2,32,num_4,1.56670544414,,,2017_Oct_04_1115,60.0081414919,MAFE4ImagesEEG,001,101914,
AFSA21.JPG,AFNE22.JPG,AFNE21.JPG,AFSA23.JPG,AFSA22.JPG,AFNE23.JPG,,,,,0,4,4,0,,,,,,,,,,,,,,,,,,,AFNE04.jpg,AFSA17.jpg,AFNE15.jpg,AFSA14.jpg,AFSA14.jpg,FS,4,num_4,16,num_4,1.04998927125,,,2017_Oct_04_1115,60.0081414919,MAFE4ImagesEEG,001,101914,
AFSA25.JPG,AFNE24.JPG,AFSA24.JPG,AFNE21.JPG,AFSA21.JPG,AFNE25.JPG,,,,,0,5,5,2,,,,,,,,,,,,,,,,,,,AFSA07.jpg,AFSA20.jpg,AFNE12.jpg,AFNE17.jpg,AFNE17.jpg,FN,3,num_4,32,num_8,1.08347710509,,,2017_Oct_04_1115,60.0081414919,MAFE4ImagesEEG,001,101914,
AFSA21.JPG,AFNE23.JPG,AFNE21.JPG,AFSA25.JPG,AFNE25.JPG,AFSA23.JPG,,,,,0,6,6,4,,,,,,,,,,,,,,,,,,,AFNE14.jpg,AFSA17.jpg,AFSA03.jpg,AFNE08.jpg,AFNE14.jpg,FN,3,num_8,32,num_4,2.41671165047,,,2017_Oct_04_1115,60.0081414919,MAFE4ImagesEEG,001,101914,
AFNE22.JPG,AFSA24.JPG,AFSA22.JPG,AFNE25.JPG,AFNE24.JPG,AFSA25.JPG,,,,,0,7,7,6,,,,,,,,,,,,,,,,,,,AFNE13.jpg,AFSA08.jpg,AFNE06.jpg,AFSA14.jpg,AFNE06.jpg,FN,3,num_2,32,num_8,0.983445640479,,,2017_Oct_04_1115,60.0081414919,MAFE4ImagesEEG,001,101914,
AMSA21.JPG,AMNE22.JPG,AMNE21.JPG,AMSA23.JPG,AMSA22.JPG,AMNE23.JPG,,,,,0,8,8,1,,,,,,,,,,,,,,,,,,,AFSA15.jpg,AFNE01.jpg,AFSA11.jpg,AFNE02.jpg,AFNE01.jpg,FN,3,num_6,16,num_6,0.633480328528,,,2017_Oct_04_1115,60.0081414919,MAFE4ImagesEEG,001,101914,
AFNE23.JPG,AFNE24.JPG,AFNE22.JPG,AFSA24.JPG,AFSA22.JPG,AFSA23.JPG,,,,,0,9,9,8,,,,,,,,,,,,,,,,,,,AFNE05.jpg,AFNE20.jpg,AFSA01.jpg,AFSA06.jpg,AFSA01.jpg,FS,4,num_2,16,num_2,1.41677130814,,,2017_Oct_04_1115,60.0081414919,MAFE4ImagesEEG,001,101914,
AMSA25.JPG,AMNE24.JPG,AMSA24.JPG,AMNE26.JPG,AMSA21.JPG,AMNE25.JPG,,,,,,,,,0,0,0,3,,,,,,,,,,,,,,,AMSA16.jpg,AMSA19.jpg,AMNE03.jpg,AMNE18.jpg,AMSA19.jpg,MS,2,num_6,32,num_4,0.9834225472,,,2017_Oct_04_1115,60.0081414919,MAFE4ImagesEEG,001,101914,
AFSA21.JPG,AFNE23.JPG,AFNE21.JPG,AFSA25.JPG,AFNE25.JPG,AFSA23.JPG,,,,,,,,,0,1,1,4,,,,,,,,,,,,,,,AMSA03.jpg,AMNE12.jpg,AMSA01.jpg,AMNE02.jpg,AMSA01.jpg,MS,2,num_2,16,num_2,1.56671378338,,,2017_Oct_04_1115,60.0081414919,MAFE4ImagesEEG,001,101914,
AFSA25.JPG,AFNE24.JPG,AFSA24.JPG,AFNE21.JPG,AFSA21.JPG,AFNE25.JPG,,,,,,,,,0,2,2,2,,,,,,,,,,,,,,,AMNE06.jpg,AMSA20.jpg,AMSA01.jpg,AMNE07.jpg,AMNE06.jpg,MN,1,num_8,32,num_4,1.10014532735,,,2017_Oct_04_1115,60.0081414919,MAFE4ImagesEEG,001,101914,
AMNE22.JPG,AMSA24.JPG,AMSA22.JPG,AMNE25.JPG,AMNE24.JPG,AMSA25.JPG,,,,,,,,,0,3,3,7,,,,,,,,,,,,,,,AMNE08.jpg,AMSA19.jpg,AMNE01.jpg,AMSA14.jpg,AMSA14.jpg,MS,2,num_4,16,num_4,0.850157595662,,,2017_Oct_04_1115,60.0081414919,MAFE4ImagesEEG,001,101914,
AFNE22.JPG,AFSA24.JPG,AFSA22.JPG,AFNE25.JPG,AFNE24.JPG,AFSA25.JPG,,,,,,,,,0,4,4,6,,,,,,,,,,,,,,,AMSA03.jpg,AMNE20.jpg,AMSA19.jpg,AMNE16.jpg,AMSA03.jpg,MS,2,num_8,16,num_8,1.15007975203,,,2017_Oct_04_1115,60.0081414919,MAFE4ImagesEEG,001,101914,
AMNE23.JPG,AMNE24.JPG,AMNE22.JPG,AMSA24.JPG,AMSA22.JPG,AMSA23.JPG,,,,,,,,,0,5,5,9,,,,,,,,,,,,,,,AMNE06.jpg,AMSA02.jpg,AMSA11.jpg,AMNE16.jpg,AMNE16.jpg,MN,1,num_4,16,num_4,2.06666422903,,,2017_Oct_04_1115,60.0081414919,MAFE4ImagesEEG,001,101914,
AMSA21.JPG,AMNE22.JPG,AMNE21.JPG,AMSA23.JPG,AMSA22.JPG,AMNE23.JPG,,,,,,,,,0,6,6,1,,,,,,,,,,,,,,,AMSA10.jpg,AMNE12.jpg,AMNE07.jpg,AMSA04.jpg,AMNE07.jpg,MN,1,num_2,16,num_2,1.08341648521,,,2017_Oct_04_1115,60.0081414919,MAFE4ImagesEEG,001,101914,
AFSA21.JPG,AFNE22.JPG,AFNE21.JPG,AFSA23.JPG,AFSA22.JPG,AFNE23.JPG,,,,,,,,,0,7,7,0,,,,,,,,,,,,,,,AMSA02.jpg,AMNE18.jpg,AMSA05.jpg,AMNE14.jpg,AMNE14.jpg,MN,1,num_4,32,num_6,1.78337244759,,,2017_Oct_04_1115,60.0081414919,MAFE4ImagesEEG,001,101914,
AMSA21.JPG,AMNE23.JPG,AMNE21.JPG,AMSA25.JPG,AMNE25.JPG,AMSA23.JPG,,,,,,,,,0,8,8,5,,,,,,,,,,,,,,,AMNE07.jpg,AMSA03.jpg,AMSA14.jpg,AMNE05.jpg,AMNE07.jpg,MN,1,num_8,32,num_4,0.883442400998,,,2017_Oct_04_1115,60.0081414919,MAFE4ImagesEEG,001,101914,
AFNE23.JPG,AFNE24.JPG,AFNE22.JPG,AFSA24.JPG,AFSA22.JPG,AFSA23.JPG,,,,,,,,,0,9,9,8,,,,,,,,,,,,,,,AMNE08.jpg,AMNE18.jpg,AMSA05.jpg,AMSA20.jpg,AMNE08.jpg,MN,1,num_8,16,num_8,1.1833767455,,,2017_Oct_04_1115,60.0081414919,MAFE4ImagesEEG,001,101914,
AFNE23.JPG,AFNE24.JPG,AFNE22.JPG,AFSA24.JPG,AFSA22.JPG,AFSA23.JPG,,,,,,,,,,,,,0,0,0,8,,,,,,,,,,,AFSA06.jpg,AFNE08.jpg,AFNE18.jpg,AFSA15.jpg,AFSA06.jpg,FS,4,num_8,32,num_2,1.13342468011,,,2017_Oct_04_1115,60.0081414919,MAFE4ImagesEEG,001,101914,
AMNE23.JPG,AMNE24.JPG,AMNE22.JPG,AMSA24.JPG,AMSA22.JPG,AMSA23.JPG,,,,,,,,,,,,,0,1,1,9,,,,,,,,,,,AFSA03.jpg,AFNE04.jpg,AFSA06.jpg,AFNE01.jpg,AFSA03.jpg,FS,4,num_8,32,num_6,2.08337895862,,,2017_Oct_04_1115,60.0081414919,MAFE4ImagesEEG,001,101914,
AMSA21.JPG,AMNE22.JPG,AMNE21.JPG,AMSA23.JPG,AMSA22.JPG,AMNE23.JPG,,,,,,,,,,,,,0,2,2,1,,,,,,,,,,,AFNE05.jpg,AFNE04.jpg,AFSA16.jpg,AFSA03.jpg,AFSA03.jpg,FS,4,num_4,16,num_4,1.63343863231,,,2017_Oct_04_1115,60.0081414919,MAFE4ImagesEEG,001,101914,
AFSA21.JPG,AFNE23.JPG,AFNE21.JPG,AFSA25.JPG,AFNE25.JPG,AFSA23.JPG,,,,,,,,,,,,,0,3,3,4,,,,,,,,,,,AFNE09.jpg,AFSA03.jpg,AFNE04.jpg,AFSA12.jpg,AFNE04.jpg,FN,3,num_2,16,num_2,1.5166882685,,,2017_Oct_04_1115,60.0081414919,MAFE4ImagesEEG,001,101914,
AFSA21.JPG,AFNE22.JPG,AFNE21.JPG,AFSA23.JPG,AFSA22.JPG,AFNE23.JPG,,,,,,,,,,,,,0,4,4,0,,,,,,,,,,,AFSA11.jpg,AFSA03.jpg,AFNE09.jpg,AFNE10.jpg,AFNE10.jpg,FN,3,num_4,16,num_4,0.700129482793,,,2017_Oct_04_1115,60.0081414919,MAFE4ImagesEEG,001,101914,
AMSA25.JPG,AMNE24.JPG,AMSA24.JPG,AMNE26.JPG,AMSA21.JPG,AMNE25.JPG,,,,,,,,,,,,,0,5,5,3,,,,,,,,,,,AFSA04.jpg,AFSA10.jpg,AFNE10.jpg,AFNE03.jpg,AFSA04.jpg,FS,4,num_8,16,num_8,1.43344402076,,,2017_Oct_04_1115,60.0081414919,MAFE4ImagesEEG,001,101914,
AMNE22.JPG,AMSA24.JPG,AMSA22.JPG,AMNE25.JPG,AMNE24.JPG,AMSA25.JPG,,,,,,,,,,,,,0,6,6,7,,,,,,,,,,,AFSA13.jpg,AFSA02.jpg,AFNE07.jpg,AFNE03.jpg,AFNE03.jpg,FN,3,num_4,16,num_4,1.3664439768,,,2017_Oct_04_1115,60.0081414919,MAFE4ImagesEEG,001,101914,
AMSA21.JPG,AMNE23.JPG,AMNE21.JPG,AMSA25.JPG,AMNE25.JPG,AMSA23.JPG,,,,,,,,,,,,,0,7,7,5,,,,,,,,,,,AFNE13.jpg,AFNE06.jpg,AFSA14.jpg,AFSA15.jpg,AFSA15.jpg,FS,4,num_4,16,num_4,1.16680763195,,,2017_Oct_04_1115,60.0081414919,MAFE4ImagesEEG,001,101914,
AFNE22.JPG,AFSA24.JPG,AFSA22.JPG,AFNE25.JPG,AFNE24.JPG,AFSA25.JPG,,,,,,,,,,,,,0,8,8,6,,,,,,,,,,,AFNE17.jpg,AFSA14.jpg,AFSA05.jpg,AFNE13.jpg,AFNE17.jpg,FN,3,num_8,32,num_6,1.28350443214,,,2017_Oct_04_1115,60.0081414919,MAFE4ImagesEEG,001,101914,
AFSA25.JPG,AFNE24.JPG,AFSA24.JPG,AFNE21.JPG,AFSA21.JPG,AFNE25.JPG,,,,,,,,,,,,,0,9,9,2,,,,,,,,,,,AFNE15.jpg,AFSA16.jpg,AFNE20.jpg,AFSA04.jpg,AFSA16.jpg,FS,4,num_6,32,num_2,1.36671083259,,,2017_Oct_04_1115,60.0081414919,MAFE4ImagesEEG,001,101914,
AFSA21.JPG,AFNE23.JPG,AFNE21.JPG,AFSA25.JPG,AFNE25.JPG,AFSA23.JPG,,,,,,,,,,,,,,,,,0,0,0,4,,,,,,,AMNE12.jpg,AMSA16.jpg,AMNE04.jpg,AMSA13.jpg,AMSA16.jpg,MS,2,num_6,16,num_6,0.750127734762,,,2017_Oct_04_1115,60.0081414919,MAFE4ImagesEEG,001,101914,
AMSA21.JPG,AMNE23.JPG,AMNE21.JPG,AMSA25.JPG,AMNE25.JPG,AMSA23.JPG,,,,,,,,,,,,,,,,,0,1,1,5,,,,,,,AMSA04.jpg,AMNE13.jpg,AMNE09.jpg,AMSA16.jpg,AMSA16.jpg,MS,2,num_4,16,num_4,1.2167834321,,,2017_Oct_04_1115,60.0081414919,MAFE4ImagesEEG,001,101914,
AFNE22.JPG,AFSA24.JPG,AFSA22.JPG,AFNE25.JPG,AFNE24.JPG,AFSA25.JPG,,,,,,,,,,,,,,,,,0,2,2,6,,,,,,,AMNE18.jpg,AMNE10.jpg,AMSA15.jpg,AMSA07.jpg,AMNE18.jpg,MN,1,num_8,32,num_6,0.866752368427,,,2017_Oct_04_1115,60.0081414919,MAFE4ImagesEEG,001,101914,
AMSA21.JPG,AMNE22.JPG,AMNE21.JPG,AMSA23.JPG,AMSA22.JPG,AMNE23.JPG,,,,,,,,,,,,,,,,,0,3,3,1,,,,,,,AMNE02.jpg,AMSA13.jpg,AMSA19.jpg,AMNE13.jpg,AMNE02.jpg,MN,1,num_8,16,num_8,0.983511712955,,,2017_Oct_04_1115,60.0081414919,MAFE4ImagesEEG,001,101914,
AFNE23.JPG,AFNE24.JPG,AFNE22.JPG,AFSA24.JPG,AFSA22.JPG,AFSA23.JPG,,,,,,,,,,,,,,,,,0,4,4,8,,,,,,,AMSA20.jpg,AMNE06.jpg,AMSA03.jpg,AMNE08.jpg,AMNE08.jpg,MN,1,num_4,32,num_8,0.833454733467,,,2017_Oct_04_1115,60.0081414919,MAFE4ImagesEEG,001,101914,
AMSA25.JPG,AMNE24.JPG,AMSA24.JPG,AMNE26.JPG,AMSA21.JPG,AMNE25.JPG,,,,,,,,,,,,,,,,,0,5,5,3,,,,,,,AMSA10.jpg,AMNE04.jpg,AMSA14.jpg,AMNE03.jpg,AMNE04.jpg,MN,1,num_6,32,num_4,0.550140820938,,,2017_Oct_04_1115,60.0081414919,MAFE4ImagesEEG,001,101914,
AFSA21.JPG,AFNE22.JPG,AFNE21.JPG,AFSA23.JPG,AFSA22.JPG,AFNE23.JPG,,,,,,,,,,,,,,,,,0,6,6,0,,,,,,,AMSA04.jpg,AMSA01.jpg,AMNE05.jpg,AMNE17.jpg,AMSA01.jpg,MS,2,num_6,32,num_2,1.11674811861,,,2017_Oct_04_1115,60.0081414919,MAFE4ImagesEEG,001,101914,
AMNE22.JPG,AMSA24.JPG,AMSA22.JPG,AMNE25.JPG,AMNE24.JPG,AMSA25.JPG,,,,,,,,,,,,,,,,,0,7,7,7,,,,,,,AMNE16.jpg,AMSA17.jpg,AMNE01.jpg,AMSA01.jpg,AMNE16.jpg,MN,1,num_8,16,num_8,0.866444778658,,,2017_Oct_04_1115,60.0081414919,MAFE4ImagesEEG,001,101914,
AFSA25.JPG,AFNE24.JPG,AFSA24.JPG,AFNE21.JPG,AFSA21.JPG,AFNE25.JPG,,,,,,,,,,,,,,,,,0,8,8,2,,,,,,,AMNE11.jpg,AMSA05.jpg,AMSA20.jpg,AMNE10.jpg,AMNE10.jpg,MN,1,num_4,32,num_8,0.733451173262,,,2017_Oct_04_1115,60.0081414919,MAFE4ImagesEEG,001,101914,
AMNE23.JPG,AMNE24.JPG,AMNE22.JPG,AMSA24.JPG,AMSA22.JPG,AMSA23.JPG,,,,,,,,,,,,,,,,,0,9,9,9,,,,,,,AMNE09.jpg,AMSA19.jpg,AMNE12.jpg,AMSA01.jpg,AMNE12.jpg,MN,1,num_2,32,num_8,1.80003874541,,,2017_Oct_04_1115,60.0081414919,MAFE4ImagesEEG,001,101914,
AFNE22.JPG,AFSA24.JPG,AFSA22.JPG,AFNE25.JPG,AFNE24.JPG,AFSA25.JPG,,,,,,,,,,,,,,,,,,,,,0,0,0,6,,,AFSA16.jpg,AFNE20.jpg,AFSA10.jpg,AFNE01.jpg,AFNE20.jpg,FN,3,num_6,32,num_2,1.38368792756,,,2017_Oct_04_1115,60.0081414919,MAFE4ImagesEEG,001,101914,
AFSA21.JPG,AFNE23.JPG,AFNE21.JPG,AFSA25.JPG,AFNE25.JPG,AFSA23.JPG,,,,,,,,,,,,,,,,,,,,,0,1,1,4,,,AFSA12.jpg,AFSA05.jpg,AFNE08.jpg,AFNE12.jpg,AFSA12.jpg,FS,4,num_8,16,num_8,0.750103679253,,,2017_Oct_04_1115,60.0081414919,MAFE4ImagesEEG,001,101914,
AFSA21.JPG,AFNE22.JPG,AFNE21.JPG,AFSA23.JPG,AFSA22.JPG,AFNE23.JPG,,,,,,,,,,,,,,,,,,,,,0,2,2,0,,,AFNE04.jpg,AFSA03.jpg,AFSA01.jpg,AFNE10.jpg,AFNE04.jpg,FN,3,num_8,32,num_2,1.21668271972,,,2017_Oct_04_1115,60.0081414919,MAFE4ImagesEEG,001,101914,
AFNE23.JPG,AFNE24.JPG,AFNE22.JPG,AFSA24.JPG,AFSA22.JPG,AFSA23.JPG,,,,,,,,,,,,,,,,,,,,,0,3,3,8,,,AFSA02.jpg,AFNE03.jpg,AFNE17.jpg,AFSA10.jpg,AFSA10.jpg,FS,4,num_4,16,num_4,1.25010704702,,,2017_Oct_04_1115,60.0081414919,MAFE4ImagesEEG,001,101914,
AMNE22.JPG,AMSA24.JPG,AMSA22.JPG,AMNE25.JPG,AMNE24.JPG,AMSA25.JPG,,,,,,,,,,,,,,,,,,,,,0,4,4,7,,,AFNE14.jpg,AFNE10.jpg,AFSA18.jpg,AFSA19.jpg,AFNE14.jpg,FN,3,num_8,16,num_8,0.966755607908,,,2017_Oct_04_1115,60.0081414919,MAFE4ImagesEEG,001,101914,
AMSA25.JPG,AMNE24.JPG,AMSA24.JPG,AMNE26.JPG,AMSA21.JPG,AMNE25.JPG,,,,,,,,,,,,,,,,,,,,,0,5,5,3,,,AFNE07.jpg,AFSA02.jpg,AFSA17.jpg,AFNE01.jpg,AFSA02.jpg,FS,4,num_6,16,num_6,0.716784233955,,,2017_Oct_04_1115,60.0081414919,MAFE4ImagesEEG,001,101914,
AMSA21.JPG,AMNE23.JPG,AMNE21.JPG,AMSA25.JPG,AMNE25.JPG,AMSA23.JPG,,,,,,,,,,,,,,,,,,,,,0,6,6,5,,,AFNE11.jpg,AFSA12.jpg,AFSA02.jpg,AFNE19.jpg,AFSA02.jpg,FS,4,num_2,16,num_2,1.26670695162,,,2017_Oct_04_1115,60.0081414919,MAFE4ImagesEEG,001,101914,
AMNE23.JPG,AMNE24.JPG,AMNE22.JPG,AMSA24.JPG,AMSA22.JPG,AMSA23.JPG,,,,,,,,,,,,,,,,,,,,,0,7,7,9,,,AFSA10.jpg,AFNE08.jpg,AFSA19.jpg,AFNE20.jpg,AFNE08.jpg,FN,3,num_6,16,num_6,0.650168757405,,,2017_Oct_04_1115,60.0081414919,MAFE4ImagesEEG,001,101914,
AFSA25.JPG,AFNE24.JPG,AFSA24.JPG,AFNE21.JPG,AFSA21.JPG,AFNE25.JPG,,,,,,,,,,,,,,,,,,,,,0,8,8,2,,,AFSA13.jpg,AFNE14.jpg,AFNE04.jpg,AFSA20.jpg,AFSA20.jpg,FS,4,num_4,16,num_4,0.966774210829,,,2017_Oct_04_1115,60.0081414919,MAFE4ImagesEEG,001,101914,
AMSA21.JPG,AMNE22.JPG,AMNE21.JPG,AMSA23.JPG,AMSA22.JPG,AMNE23.JPG,,,,,,,,,,,,,,,,,,,,,0,9,9,1,,,AFSA14.jpg,AFNE11.jpg,AFNE12.jpg,AFSA09.jpg,AFSA09.jpg,FS,4,num_4,16,num_4,0.833448318663,,,2017_Oct_04_1115,60.0081414919,MAFE4ImagesEEG,001,101914,
,,,,,,,,,,,,,,,,,,,,,,,,,,,,,,,,,,,,,,,,,,,space,7.49989303318,2017_Oct_04_1115,60.0081414919,MAFE4ImagesEEG,001,101914,
AFNE01.JPG,AFNE01.JPG,AFNE01.JPG,AFNE01.JPG,AFNE01.JPG,AFNE01.JPG,0,0,0,5,,,,,,,,,,,,,,,,,,,,,,,AMNE07.jpg,AMSA19.jpg,AMSA13.jpg,AMNE03.jpg,AMSA19.jpg,MS,2,num_6,16,num_6,0.983573936523,,,2017_Oct_04_1115,60.0081414919,MAFE4ImagesEEG,001,101914,
AFNE01.JPG,AFNE01.JPG,AFNE01.JPG,AFNE01.JPG,AFNE01.JPG,AFNE01.JPG,0,1,1,2,,,,,,,,,,,,,,,,,,,,,,,AMSA10.jpg,AMSA12.jpg,AMNE19.jpg,AMNE03.jpg,AMNE03.jpg,MN,1,num_4,16,num_4,1.16678421792,,,2017_Oct_04_1115,60.0081414919,MAFE4ImagesEEG,001,101914,
AFNE01.JPG,AFNE01.JPG,AFNE01.JPG,AFNE01.JPG,AFNE01.JPG,AFNE01.JPG,0,2,2,0,,,,,,,,,,,,,,,,,,,,,,,AMNE04.jpg,AMSA08.jpg,AMNE12.jpg,AMSA02.jpg,AMNE04.jpg,MN,1,num_8,16,num_8,2.71661424168,,,2017_Oct_04_1115,60.0081414919,MAFE4ImagesEEG,001,101914,
AFNE01.JPG,AFNE01.JPG,AFNE01.JPG,AFNE01.JPG,AFNE01.JPG,AFNE01.JPG,0,3,3,8,,,,,,,,,,,,,,,,,,,,,,,AMSA02.jpg,AMSA06.jpg,AMNE16.jpg,AMNE12.jpg,AMSA06.jpg,MS,2,num_6,32,num_2,1.41676617629,,,2017_Oct_04_1115,60.0081414919,MAFE4ImagesEEG,001,101914,
AFNE01.JPG,AFNE01.JPG,AFNE01.JPG,AFNE01.JPG,AFNE01.JPG,AFNE01.JPG,0,4,4,4,,,,,,,,,,,,,,,,,,,,,,,AMSA10.jpg,AMSA15.jpg,AMNE17.jpg,AMNE01.jpg,AMSA15.jpg,MS,2,num_6,32,num_4,1.66669713697,,,2017_Oct_04_1115,60.0081414919,MAFE4ImagesEEG,001,101914,
AFNE01.JPG,AFNE01.JPG,AFNE01.JPG,AFNE01.JPG,AFNE01.JPG,AFNE01.JPG,0,5,5,7,,,,,,,,,,,,,,,,,,,,,,,AMNE12.jpg,AMSA09.jpg,AMNE05.jpg,AMSA10.jpg,AMNE12.jpg,MN,1,num_8,16,num_8,0.733451493987,,,2017_Oct_04_1115,60.0081414919,MAFE4ImagesEEG,001,101914,
AFNE01.JPG,AFNE01.JPG,AFNE01.JPG,AFNE01.JPG,AFNE01.JPG,AFNE01.JPG,0,6,6,3,,,,,,,,,,,,,,,,,,,,,,,AMSA02.jpg,AMNE10.jpg,AMNE03.jpg,AMSA04.jpg,AMNE03.jpg,MN,1,num_2,16,num_2,1.58338425083,,,2017_Oct_04_1115,60.0081414919,MAFE4ImagesEEG,001,101914,
AFNE01.JPG,AFNE01.JPG,AFNE01.JPG,AFNE01.JPG,AFNE01.JPG,AFNE01.JPG,0,7,7,1,,,,,,,,,,,,,,,,,,,,,,,AMSA14.jpg,AMSA20.jpg,AMNE13.jpg,AMNE11.jpg,AMNE11.jpg,MN,1,num_4,16,num_4,0.783640907073,,,2017_Oct_04_1115,60.0081414919,MAFE4ImagesEEG,001,101914,
AFNE01.JPG,AFNE01.JPG,AFNE01.JPG,AFNE01.JPG,AFNE01.JPG,AFNE01.JPG,0,8,8,9,,,,,,,,,,,,,,,,,,,,,,,AMNE19.jpg,AMNE02.jpg,AMSA09.jpg,AMSA05.jpg,AMNE19.jpg,MN,1,num_8,16,num_8,0.833446073477,,,2017_Oct_04_1115,60.0081414919,MAFE4ImagesEEG,001,101914,
AFNE01.JPG,AFNE01.JPG,AFNE01.JPG,AFNE01.JPG,AFNE01.JPG,AFNE01.JPG,0,9,9,6,,,,,,,,,,,,,,,,,,,,,,,AMNE01.jpg,AMSA03.jpg,AMSA07.jpg,AMNE02.jpg,AMNE02.jpg,MN,1,num_4,32,num_8,1.10006097271,,,2017_Oct_04_1115,60.0081414919,MAFE4ImagesEEG,001,101914,
AFNE01.JPG,AFNE01.JPG,AFNE01.JPG,AFNE01.JPG,AFNE01.JPG,AFNE01.JPG,1,0,10,0,,,,,,,,,,,,,,,,,,,,,,,AMSA09.jpg,AMNE09.jpg,AMNE17.jpg,AMSA20.jpg,AMNE17.jpg,MN,1,num_2,32,num_6,1.11674010011,,,2017_Oct_04_1115,60.0081414919,MAFE4ImagesEEG,001,101914,
AFNE01.JPG,AFNE01.JPG,AFNE01.JPG,AFNE01.JPG,AFNE01.JPG,AFNE01.JPG,1,1,11,3,,,,,,,,,,,,,,,,,,,,,,,AMNE09.jpg,AMNE06.jpg,AMSA10.jpg,AMSA17.jpg,AMSA17.jpg,MS,2,num_4,32,num_2,1.51671072033,,,2017_Oct_04_1115,60.0081414919,MAFE4ImagesEEG,001,101914,
AFNE01.JPG,AFNE01.JPG,AFNE01.JPG,AFNE01.JPG,AFNE01.JPG,AFNE01.JPG,1,2,12,7,,,,,,,,,,,,,,,,,,,,,,,AMNE03.jpg,AMNE07.jpg,AMSA12.jpg,AMSA08.jpg,AMNE03.jpg,MN,1,num_8,32,num_6,1.00010841017,,,2017_Oct_04_1115,60.0081414919,MAFE4ImagesEEG,001,101914,
AFNE01.JPG,AFNE01.JPG,AFNE01.JPG,AFNE01.JPG,AFNE01.JPG,AFNE01.JPG,1,3,13,4,,,,,,,,,,,,,,,,,,,,,,,AMSA11.jpg,AMNE08.jpg,AMNE18.jpg,AMSA05.jpg,AMNE18.jpg,MN,1,num_2,16,num_2,0.91676954407,,,2017_Oct_04_1115,60.0081414919,MAFE4ImagesEEG,001,101914,
AFNE01.JPG,AFNE01.JPG,AFNE01.JPG,AFNE01.JPG,AFNE01.JPG,AFNE01.JPG,1,4,14,2,,,,,,,,,,,,,,,,,,,,,,,AMSA19.jpg,AMNE12.jpg,AMNE07.jpg,AMSA15.jpg,AMNE12.jpg,MN,1,num_6,16,num_6,1.05011981247,,,2017_Oct_04_1115,60.0081414919,MAFE4ImagesEEG,001,101914,
AFNE01.JPG,AFNE01.JPG,AFNE01.JPG,AFNE01.JPG,AFNE01.JPG,AFNE01.JPG,1,5,15,5,,,,,,,,,,,,,,,,,,,,,,,AMNE14.jpg,AMNE18.jpg,AMSA04.jpg,AMSA11.jpg,AMSA04.jpg,MS,2,num_2,32,num_4,0.883444325445,,,2017_Oct_04_1115,60.0081414919,MAFE4ImagesEEG,001,101914,
AFNE01.JPG,AFNE01.JPG,AFNE01.JPG,AFNE01.JPG,AFNE01.JPG,AFNE01.JPG,1,6,16,1,,,,,,,,,,,,,,,,,,,,,,,AMSA03.jpg,AMNE02.jpg,AMNE03.jpg,AMSA05.jpg,AMNE02.jpg,MN,1,num_6,16,num_6,1.08350533023,,,2017_Oct_04_1115,60.0081414919,MAFE4ImagesEEG,001,101914,
AFNE01.JPG,AFNE01.JPG,AFNE01.JPG,AFNE01.JPG,AFNE01.JPG,AFNE01.JPG,1,7,17,8,,,,,,,,,,,,,,,,,,,,,,,AMNE14.jpg,AMSA09.jpg,AMNE01.jpg,AMSA07.jpg,AMNE14.jpg,MN,1,num_8,16,num_8,0.750177770213,,,2017_Oct_04_1115,60.0081414919,MAFE4ImagesEEG,001,101914,
AFNE01.JPG,AFNE01.JPG,AFNE01.JPG,AFNE01.JPG,AFNE01.JPG,AFNE01.JPG,1,8,18,6,,,,,,,,,,,,,,,,,,,,,,,AMSA18.jpg,AMSA15.jpg,AMNE01.jpg,AMNE09.jpg,AMSA18.jpg,MS,2,num_8,16,num_8,0.616826539583,,,2017_Oct_04_1115,60.0081414919,MAFE4ImagesEEG,001,101914,
AFNE01.JPG,AFNE01.JPG,AFNE01.JPG,AFNE01.JPG,AFNE01.JPG,AFNE01.JPG,1,9,19,9,,,,,,,,,,,,,,,,,,,,,,,AMNE06.jpg,AMSA17.jpg,AMSA07.jpg,AMNE10.jpg,AMNE10.jpg,MN,1,num_4,32,num_8,0.966805001881,,,2017_Oct_04_1115,60.0081414919,MAFE4ImagesEEG,001,101914,
AFNE01.JPG,AFNE01.JPG,AFNE01.JPG,AFNE01.JPG,AFNE01.JPG,AFNE01.JPG,2,0,20,1,,,,,,,,,,,,,,,,,,,,,,,AMSA06.jpg,AMNE05.jpg,AMNE07.jpg,AMSA09.jpg,AMNE07.jpg,MN,1,num_2,32,num_6,1.61684802915,,,2017_Oct_04_1115,60.0081414919,MAFE4ImagesEEG,001,101914,
AFNE01.JPG,AFNE01.JPG,AFNE01.JPG,AFNE01.JPG,AFNE01.JPG,AFNE01.JPG,2,1,21,0,,,,,,,,,,,,,,,,,,,,,,,AMNE19.jpg,AMSA08.jpg,AMSA14.jpg,AMNE14.jpg,AMSA14.jpg,MS,2,num_2,16,num_2,1.80004131132,,,2017_Oct_04_1115,60.0081414919,MAFE4ImagesEEG,001,101914,
AFNE01.JPG,AFNE01.JPG,AFNE01.JPG,AFNE01.JPG,AFNE01.JPG,AFNE01.JPG,2,2,22,2,,,,,,,,,,,,,,,,,,,,,,,AMNE12.jpg,AMSA01.jpg,AMSA10.jpg,AMNE05.jpg,AMSA01.jpg,MS,2,num_6,16,num_6,1.16677876534,,,2017_Oct_04_1115,60.0081414919,MAFE4ImagesEEG,001,101914,
AFNE01.JPG,AFNE01.JPG,AFNE01.JPG,AFNE01.JPG,AFNE01.JPG,AFNE01.JPG,2,3,23,4,,,,,,,,,,,,,,,,,,,,,,,AMSA06.jpg,AMNE17.jpg,AMNE07.jpg,AMSA05.jpg,AMNE07.jpg,MN,1,num_2,16,num_2,1.21675552771,,,2017_Oct_04_1115,60.0081414919,MAFE4ImagesEEG,001,101914,
AFNE01.JPG,AFNE01.JPG,AFNE01.JPG,AFNE01.JPG,AFNE01.JPG,AFNE01.JPG,2,4,24,9,,,,,,,,,,,,,,,,,,,,,,,AMSA20.jpg,AMNE18.jpg,AMNE17.jpg,AMSA10.jpg,AMNE18.jpg,MN,1,num_6,16,num_6,0.583446153672,,,2017_Oct_04_1115,60.0081414919,MAFE4ImagesEEG,001,101914,
AFNE01.JPG,AFNE01.JPG,AFNE01.JPG,AFNE01.JPG,AFNE01.JPG,AFNE01.JPG,2,5,25,8,,,,,,,,,,,,,,,,,,,,,,,AMNE13.jpg,AMSA15.jpg,AMSA20.jpg,AMNE01.jpg,AMNE13.jpg,MN,1,num_8,16,num_8,0.850138351248,,,2017_Oct_04_1115,60.0081414919,MAFE4ImagesEEG,001,101914,
AFNE01.JPG,AFNE01.JPG,AFNE01.JPG,AFNE01.JPG,AFNE01.JPG,AFNE01.JPG,2,6,26,5,,,,,,,,,,,,,,,,,,,,,,,AMSA04.jpg,AMSA14.jpg,AMNE18.jpg,AMNE16.jpg,AMNE18.jpg,MN,1,num_2,16,num_2,1.03310968126,,,2017_Oct_04_1115,60.0081414919,MAFE4ImagesEEG,001,101914,
AFNE01.JPG,AFNE01.JPG,AFNE01.JPG,AFNE01.JPG,AFNE01.JPG,AFNE01.JPG,2,7,27,7,,,,,,,,,,,,,,,,,,,,,,,AMSA01.jpg,AMNE11.jpg,AMSA13.jpg,AMNE16.jpg,AMSA13.jpg,MS,2,num_2,32,num_8,0.75012324439,,,2017_Oct_04_1115,60.0081414919,MAFE4ImagesEEG,001,101914,
AFNE01.JPG,AFNE01.JPG,AFNE01.JPG,AFNE01.JPG,AFNE01.JPG,AFNE01.JPG,2,8,28,3,,,,,,,,,,,,,,,,,,,,,,,AMSA02.jpg,AMNE04.jpg,AMSA16.jpg,AMNE13.jpg,AMSA16.jpg,MS,2,num_2,32,num_8,0.933375221997,,,2017_Oct_04_1115,60.0081414919,MAFE4ImagesEEG,001,101914,
AFNE01.JPG,AFNE01.JPG,AFNE01.JPG,AFNE01.JPG,AFNE01.JPG,AFNE01.JPG,2,9,29,6,,,,,,,,,,,,,,,,,,,,,,,AMSA15.jpg,AMNE17.jpg,AMSA09.jpg,AMNE18.jpg,AMNE18.jpg,MN,1,num_4,16,num_4,0.66675615315,,,2017_Oct_04_1115,60.0081414919,MAFE4ImagesEEG,001,101914,
AFNE01.JPG,AFNE01.JPG,AFNE01.JPG,AFNE01.JPG,AFNE01.JPG,AFNE01.JPG,3,0,30,6,,,,,,,,,,,,,,,,,,,,,,,AMSA11.jpg,AMNE15.jpg,AMNE04.jpg,AMSA04.jpg,AMSA11.jpg,MS,2,num_8,16,num_8,1.08342706964,,,2017_Oct_04_1115,60.0081414919,MAFE4ImagesEEG,001,101914,
AFNE01.JPG,AFNE01.JPG,AFNE01.JPG,AFNE01.JPG,AFNE01.JPG,AFNE01.JPG,3,1,31,5,,,,,,,,,,,,,,,,,,,,,,,AMSA06.jpg,AMNE15.jpg,AMNE05.jpg,AMSA19.jpg,AMNE05.jpg,MN,1,num_2,32,num_6,1.55011419952,,,2017_Oct_04_1115,60.0081414919,MAFE4ImagesEEG,001,101914,
AFNE01.JPG,AFNE01.JPG,AFNE01.JPG,AFNE01.JPG,AFNE01.JPG,AFNE01.JPG,3,2,32,3,,,,,,,,,,,,,,,,,,,,,,,AMNE11.jpg,AMNE07.jpg,AMSA03.jpg,AMSA13.jpg,AMNE11.jpg,MN,1,num_8,16,num_8,0.716761782154,,,2017_Oct_04_1115,60.0081414919,MAFE4ImagesEEG,001,101914,
AFNE01.JPG,AFNE01.JPG,AFNE01.JPG,AFNE01.JPG,AFNE01.JPG,AFNE01.JPG,3,3,33,7,,,,,,,,,,,,,,,,,,,,,,,AMSA20.jpg,AMSA18.jpg,AMNE11.jpg,AMNE15.jpg,AMNE15.jpg,MN,1,num_4,16,num_4,0.650111024195,,,2017_Oct_04_1115,60.0081414919,MAFE4ImagesEEG,001,101914,
AFNE01.JPG,AFNE01.JPG,AFNE01.JPG,AFNE01.JPG,AFNE01.JPG,AFNE01.JPG,3,4,34,4,,,,,,,,,,,,,,,,,,,,,,,AMSA08.jpg,AMNE06.jpg,AMSA01.jpg,AMNE15.jpg,AMSA08.jpg,MS,2,num_8,32,num_2,1.36677818801,,,2017_Oct_04_1115,60.0081414919,MAFE4ImagesEEG,001,101914,
AFNE01.JPG,AFNE01.JPG,AFNE01.JPG,AFNE01.JPG,AFNE01.JPG,AFNE01.JPG,3,5,35,8,,,,,,,,,,,,,,,,,,,,,,,AMNE06.jpg,AMSA12.jpg,AMSA03.jpg,AMNE03.jpg,AMNE03.jpg,MN,1,num_4,16,num_4,0.666777001272,,,2017_Oct_04_1115,60.0081414919,MAFE4ImagesEEG,001,101914,
AFNE01.JPG,AFNE01.JPG,AFNE01.JPG,AFNE01.JPG,AFNE01.JPG,AFNE01.JPG,3,6,36,2,,,,,,,,,,,,,,,,,,,,,,,AMSA03.jpg,AMNE01.jpg,AMSA18.jpg,AMNE02.jpg,AMNE02.jpg,MN,1,num_4,32,num_8,0.650111986412,,,2017_Oct_04_1115,60.0081414919,MAFE4ImagesEEG,001,101914,
AFNE01.JPG,AFNE01.JPG,AFNE01.JPG,AFNE01.JPG,AFNE01.JPG,AFNE01.JPG,3,7,37,1,,,,,,,,,,,,,,,,,,,,,,,AMNE09.jpg,AMNE19.jpg,AMSA02.jpg,AMSA10.jpg,AMSA10.jpg,MS,2,num_4,16,num_4,1.11675517491,,,2017_Oct_04_1115,60.0081414919,MAFE4ImagesEEG,001,101914,
AFNE01.JPG,AFNE01.JPG,AFNE01.JPG,AFNE01.JPG,AFNE01.JPG,AFNE01.JPG,3,8,38,0,,,,,,,,,,,,,,,,,,,,,,,AMSA12.jpg,AMNE20.jpg,AMSA15.jpg,AMNE02.jpg,AMSA12.jpg,MS,2,num_8,16,num_8,1.00010648571,,,2017_Oct_04_1115,60.0081414919,MAFE4ImagesEEG,001,101914,
AFNE01.JPG,AFNE01.JPG,AFNE01.JPG,AFNE01.JPG,AFNE01.JPG,AFNE01.JPG,3,9,39,9,,,,,,,,,,,,,,,,,,,,,,,AMNE05.jpg,AMNE18.jpg,AMSA07.jpg,AMSA20.jpg,AMSA07.jpg,MS,2,num_2,32,num_4,1.16668158107,,,2017_Oct_04_1115,60.0081414919,MAFE4ImagesEEG,001,101914,
AFNE01.JPG,AFNE01.JPG,AFNE01.JPG,AFNE01.JPG,AFNE01.JPG,AFNE01.JPG,4,0,40,4,,,,,,,,,,,,,,,,,,,,,,,AMNE12.jpg,AMSA03.jpg,AMNE19.jpg,AMSA11.jpg,AMSA11.jpg,MS,2,num_4,16,num_4,0.916784298097,,,2017_Oct_04_1115,60.0081414919,MAFE4ImagesEEG,001,101914,
AFNE01.JPG,AFNE01.JPG,AFNE01.JPG,AFNE01.JPG,AFNE01.JPG,AFNE01.JPG,4,1,41,0,,,,,,,,,,,,,,,,,,,,,,,AMNE04.jpg,AMSA08.jpg,AMSA07.jpg,AMNE01.jpg,AMSA07.jpg,MS,2,num_2,16,num_2,1.1501066942,,,2017_Oct_04_1115,60.0081414919,MAFE4ImagesEEG,001,101914,
AFNE01.JPG,AFNE01.JPG,AFNE01.JPG,AFNE01.JPG,AFNE01.JPG,AFNE01.JPG,4,2,42,5,,,,,,,,,,,,,,,,,,,,,,,AMSA12.jpg,AMNE07.jpg,AMSA13.jpg,AMNE08.jpg,AMNE07.jpg,MN,1,num_6,32,num_8,1.26706778425,,,2017_Oct_04_1115,60.0081414919,MAFE4ImagesEEG,001,101914,
AFNE01.JPG,AFNE01.JPG,AFNE01.JPG,AFNE01.JPG,AFNE01.JPG,AFNE01.JPG,4,3,43,6,,,,,,,,,,,,,,,,,,,,,,,AMNE05.jpg,AMSA18.jpg,AMSA17.jpg,AMNE16.jpg,AMNE16.jpg,MN,1,num_4,32,num_8,0.766762600033,,,2017_Oct_04_1115,60.0081414919,MAFE4ImagesEEG,001,101914,
AFNE01.JPG,AFNE01.JPG,AFNE01.JPG,AFNE01.JPG,AFNE01.JPG,AFNE01.JPG,4,4,44,3,,,,,,,,,,,,,,,,,,,,,,,AMNE12.jpg,AMSA11.jpg,AMSA04.jpg,AMNE17.jpg,AMSA11.jpg,MS,2,num_6,32,num_2,1.1000786134,,,2017_Oct_04_1115,60.0081414919,MAFE4ImagesEEG,001,101914,
AFNE01.JPG,AFNE01.JPG,AFNE01.JPG,AFNE01.JPG,AFNE01.JPG,AFNE01.JPG,4,5,45,1,,,,,,,,,,,,,,,,,,,,,,,AMSA07.jpg,AMNE09.jpg,AMSA15.jpg,AMNE13.jpg,AMNE13.jpg,MN,1,num_4,32,num_8,0.816799020075,,,2017_Oct_04_1115,60.0081414919,MAFE4ImagesEEG,001,101914,
AFNE01.JPG,AFNE01.JPG,AFNE01.JPG,AFNE01.JPG,AFNE01.JPG,AFNE01.JPG,4,6,46,9,,,,,,,,,,,,,,,,,,,,,,,AMSA17.jpg,AMNE09.jpg,AMNE16.jpg,AMSA19.jpg,AMSA19.jpg,MS,2,num_4,16,num_4,0.616805370737,,,2017_Oct_04_1115,60.0081414919,MAFE4ImagesEEG,001,101914,
AFNE01.JPG,AFNE01.JPG,AFNE01.JPG,AFNE01.JPG,AFNE01.JPG,AFNE01.JPG,4,7,47,2,,,,,,,,,,,,,,,,,,,,,,,AMNE17.jpg,AMSA18.jpg,AMNE12.jpg,AMSA05.jpg,AMSA05.jpg,MS,2,num_4,32,num_6,1.30008445086,,,2017_Oct_04_1115,60.0081414919,MAFE4ImagesEEG,001,101914,
AFNE01.JPG,AFNE01.JPG,AFNE01.JPG,AFNE01.JPG,AFNE01.JPG,AFNE01.JPG,4,8,48,8,,,,,,,,,,,,,,,,,,,,,,,AMSA15.jpg,AMNE08.jpg,AMNE18.jpg,AMSA16.jpg,AMNE08.jpg,MN,1,num_6,16,num_6,1.0667646207,,,2017_Oct_04_1115,60.0081414919,MAFE4ImagesEEG,001,101914,
AFNE01.JPG,AFNE01.JPG,AFNE01.JPG,AFNE01.JPG,AFNE01.JPG,AFNE01.JPG,4,9,49,7,,,,,,,,,,,,,,,,,,,,,,,AMSA12.jpg,AMNE11.jpg,AMNE18.jpg,AMSA17.jpg,AMNE11.jpg,MN,1,num_6,32,num_2,1.53342031805,,,2017_Oct_04_1115,60.0081414919,MAFE4ImagesEEG,001,101914,
AFNE01.JPG,AFNE01.JPG,AFNE01.JPG,AFNE01.JPG,AFNE01.JPG,AFNE01.JPG,5,0,50,9,,,,,,,,,,,,,,,,,,,,,,,AMSA20.jpg,AMSA08.jpg,AMNE14.jpg,AMNE02.jpg,AMNE02.jpg,MN,1,num_4,32,num_2,1.56671634931,,,2017_Oct_04_1115,60.0081414919,MAFE4ImagesEEG,001,101914,
AFNE01.JPG,AFNE01.JPG,AFNE01.JPG,AFNE01.JPG,AFNE01.JPG,AFNE01.JPG,5,1,51,3,,,,,,,,,,,,,,,,,,,,,,,AMNE01.jpg,AMSA19.jpg,AMSA03.jpg,AMNE03.jpg,AMNE01.jpg,MN,1,num_8,32,num_2,1.46658449306,,,2017_Oct_04_1115,60.0081414919,MAFE4ImagesEEG,001,101914,
AFNE01.JPG,AFNE01.JPG,AFNE01.JPG,AFNE01.JPG,AFNE01.JPG,AFNE01.JPG,5,2,52,0,,,,,,,,,,,,,,,,,,,,,,,AMNE08.jpg,AMSA06.jpg,AMNE04.jpg,AMSA07.jpg,AMSA07.jpg,MS,2,num_4,32,num_6,1.28323597267,,,2017_Oct_04_1115,60.0081414919,MAFE4ImagesEEG,001,101914,
AFNE01.JPG,AFNE01.JPG,AFNE01.JPG,AFNE01.JPG,AFNE01.JPG,AFNE01.JPG,5,3,53,2,,,,,,,,,,,,,,,,,,,,,,,AMSA01.jpg,AMNE07.jpg,AMSA12.jpg,AMNE05.jpg,AMNE07.jpg,MN,1,num_6,16,num_6,1.56671795301,,,2017_Oct_04_1115,60.0081414919,MAFE4ImagesEEG,001,101914,
AFNE01.JPG,AFNE01.JPG,AFNE01.JPG,AFNE01.JPG,AFNE01.JPG,AFNE01.JPG,5,4,54,7,,,,,,,,,,,,,,,,,,,,,,,AMNE07.jpg,AMSA09.jpg,AMNE09.jpg,AMSA02.jpg,AMSA09.jpg,MS,2,num_6,32,num_4,1.20009981432,,,2017_Oct_04_1115,60.0081414919,MAFE4ImagesEEG,001,101914,
AFNE01.JPG,AFNE01.JPG,AFNE01.JPG,AFNE01.JPG,AFNE01.JPG,AFNE01.JPG,5,5,55,8,,,,,,,,,,,,,,,,,,,,,,,AMNE02.jpg,AMNE18.jpg,AMSA06.jpg,AMSA16.jpg,AMNE02.jpg,MN,1,num_8,16,num_8,0.616475329138,,,2017_Oct_04_1115,60.0081414919,MAFE4ImagesEEG,001,101914,
AFNE01.JPG,AFNE01.JPG,AFNE01.JPG,AFNE01.JPG,AFNE01.JPG,AFNE01.JPG,5,6,56,1,,,,,,,,,,,,,,,,,,,,,,,AMNE15.jpg,AMNE09.jpg,AMSA16.jpg,AMSA11.jpg,AMNE09.jpg,MN,1,num_6,16,num_6,0.850152784551,,,2017_Oct_04_1115,60.0081414919,MAFE4ImagesEEG,001,101914,
AFNE01.JPG,AFNE01.JPG,AFNE01.JPG,AFNE01.JPG,AFNE01.JPG,AFNE01.JPG,5,7,57,5,,,,,,,,,,,,,,,,,,,,,,,AMSA12.jpg,AMSA02.jpg,AMNE07.jpg,AMNE09.jpg,AMNE09.jpg,MN,1,num_4,32,num_2,1.1667345032,,,2017_Oct_04_1115,60.0081414919,MAFE4ImagesEEG,001,101914,
AFNE01.JPG,AFNE01.JPG,AFNE01.JPG,AFNE01.JPG,AFNE01.JPG,AFNE01.JPG,5,8,58,6,,,,,,,,,,,,,,,,,,,,,,,AMNE06.jpg,AMNE01.jpg,AMSA20.jpg,AMSA08.jpg,AMNE06.jpg,MN,1,num_8,16,num_8,0.466793615604,,,2017_Oct_04_1115,60.0081414919,MAFE4ImagesEEG,001,101914,
AFNE01.JPG,AFNE01.JPG,AFNE01.JPG,AFNE01.JPG,AFNE01.JPG,AFNE01.JPG,5,9,59,4,,,,,,,,,,,,,,,,,,,,,,,AMSA17.jpg,AMNE06.jpg,AMNE12.jpg,AMSA12.jpg,AMNE12.jpg,MN,1,num_2,16,num_2,1.10006770823,,,2017_Oct_04_1115,60.0081414919,MAFE4ImagesEEG,001,101914,
,,,,,,,,,,,,,,,,,,,,,,,,,,,,,,,,,,,,,,,,,,,space,14.7654055486,2017_Oct_04_1115,60.0081414919,MAFE4ImagesEEG,001,101914,
AFNE01.JPG,AFNE01.JPG,AFNE01.JPG,AFNE01.JPG,AFNE01.JPG,AFNE01.JPG,,,,,0,0,0,0,,,,,,,,,,,,,,,,,,,AFSA19.jpg,AFNE06.jpg,AFSA02.jpg,AFNE02.jpg,AFSA02.jpg,FS,4,num_2,32,num_6,1.55003465597,,,2017_Oct_04_1115,60.0081414919,MAFE4ImagesEEG,001,101914,
AFNE01.JPG,AFNE01.JPG,AFNE01.JPG,AFNE01.JPG,AFNE01.JPG,AFNE01.JPG,,,,,0,1,1,4,,,,,,,,,,,,,,,,,,,AFNE01.jpg,AFSA03.jpg,AFNE05.jpg,AFSA15.jpg,AFNE05.jpg,FN,3,num_2,16,num_2,1.20038912191,,,2017_Oct_04_1115,60.0081414919,MAFE4ImagesEEG,001,101914,
AFNE01.JPG,AFNE01.JPG,AFNE01.JPG,AFNE01.JPG,AFNE01.JPG,AFNE01.JPG,,,,,0,2,2,1,,,,,,,,,,,,,,,,,,,AFNE15.jpg,AFSA10.jpg,AFNE16.jpg,AFSA11.jpg,AFSA10.jpg,FS,4,num_6,16,num_6,1.55010393584,,,2017_Oct_04_1115,60.0081414919,MAFE4ImagesEEG,001,101914,
AFNE01.JPG,AFNE01.JPG,AFNE01.JPG,AFNE01.JPG,AFNE01.JPG,AFNE01.JPG,,,,,0,3,3,2,,,,,,,,,,,,,,,,,,,AFNE12.jpg,AFSA19.jpg,AFSA20.jpg,AFNE16.jpg,AFSA20.jpg,FS,4,num_2,16,num_2,1.40005914448,,,2017_Oct_04_1115,60.0081414919,MAFE4ImagesEEG,001,101914,
AFNE01.JPG,AFNE01.JPG,AFNE01.JPG,AFNE01.JPG,AFNE01.JPG,AFNE01.JPG,,,,,0,4,4,7,,,,,,,,,,,,,,,,,,,AFNE06.jpg,AFNE15.jpg,AFSA19.jpg,AFSA13.jpg,AFSA13.jpg,FS,4,num_4,16,num_4,1.18343512021,,,2017_Oct_04_1115,60.0081414919,MAFE4ImagesEEG,001,101914,
AFNE01.JPG,AFNE01.JPG,AFNE01.JPG,AFNE01.JPG,AFNE01.JPG,AFNE01.JPG,,,,,0,5,5,5,,,,,,,,,,,,,,,,,,,AFSA12.jpg,AFSA13.jpg,AFNE13.jpg,AFNE04.jpg,AFSA12.jpg,FS,4,num_8,32,num_2,2.16666233668,,,2017_Oct_04_1115,60.0081414919,MAFE4ImagesEEG,001,101914,
AFNE01.JPG,AFNE01.JPG,AFNE01.JPG,AFNE01.JPG,AFNE01.JPG,AFNE01.JPG,,,,,0,6,6,9,,,,,,,,,,,,,,,,,,,AFSA19.jpg,AFSA01.jpg,AFNE06.jpg,AFNE15.jpg,AFSA19.jpg,FS,4,num_8,16,num_8,0.833527220733,,,2017_Oct_04_1115,60.0081414919,MAFE4ImagesEEG,001,101914,
AFNE01.JPG,AFNE01.JPG,AFNE01.JPG,AFNE01.JPG,AFNE01.JPG,AFNE01.JPG,,,,,0,7,7,8,,,,,,,,,,,,,,,,,,,AFSA10.jpg,AFNE18.jpg,AFSA03.jpg,AFNE06.jpg,AFNE18.jpg,FN,3,num_6,32,num_8,0.716651768278,,,2017_Oct_04_1115,60.0081414919,MAFE4ImagesEEG,001,101914,
AFNE01.JPG,AFNE01.JPG,AFNE01.JPG,AFNE01.JPG,AFNE01.JPG,AFNE01.JPG,,,,,0,8,8,3,,,,,,,,,,,,,,,,,,,AFSA18.jpg,AFSA12.jpg,AFNE02.jpg,AFNE13.jpg,AFNE02.jpg,FN,3,num_2,32,num_4,1.05008517254,,,2017_Oct_04_1115,60.0081414919,MAFE4ImagesEEG,001,101914,
AFNE01.JPG,AFNE01.JPG,AFNE01.JPG,AFNE01.JPG,AFNE01.JPG,AFNE01.JPG,,,,,0,9,9,6,,,,,,,,,,,,,,,,,,,AFSA07.jpg,AFNE20.jpg,AFNE10.jpg,AFSA12.jpg,AFNE20.jpg,FN,3,num_6,32,num_8,1.00010616498,,,2017_Oct_04_1115,60.0081414919,MAFE4ImagesEEG,001,101914,
AFNE01.JPG,AFNE01.JPG,AFNE01.JPG,AFNE01.JPG,AFNE01.JPG,AFNE01.JPG,,,,,1,0,10,0,,,,,,,,,,,,,,,,,,,AFNE04.jpg,AFSA15.jpg,AFSA08.jpg,AFNE05.jpg,AFSA08.jpg,FS,4,num_2,32,num_6,1.46669899726,,,2017_Oct_04_1115,60.0081414919,MAFE4ImagesEEG,001,101914,
AFNE01.JPG,AFNE01.JPG,AFNE01.JPG,AFNE01.JPG,AFNE01.JPG,AFNE01.JPG,,,,,1,1,11,3,,,,,,,,,,,,,,,,,,,AFNE04.jpg,AFSA07.jpg,AFNE15.jpg,AFSA05.jpg,AFSA05.jpg,FS,4,num_4,16,num_4,0.733519490896,,,2017_Oct_04_1115,60.0081414919,MAFE4ImagesEEG,001,101914,
AFNE01.JPG,AFNE01.JPG,AFNE01.JPG,AFNE01.JPG,AFNE01.JPG,AFNE01.JPG,,,,,1,2,12,9,,,,,,,,,,,,,,,,,,,AFNE08.jpg,AFNE10.jpg,AFSA07.jpg,AFSA05.jpg,AFNE08.jpg,FN,3,num_8,16,num_8,0.666778925704,,,2017_Oct_04_1115,60.0081414919,MAFE4ImagesEEG,001,101914,
AFNE01.JPG,AFNE01.JPG,AFNE01.JPG,AFNE01.JPG,AFNE01.JPG,AFNE01.JPG,,,,,1,3,13,7,,,,,,,,,,,,,,,,,,,AFSA13.jpg,AFNE14.jpg,AFSA03.jpg,AFNE08.jpg,AFSA13.jpg,FS,4,num_8,16,num_8,0.866733444767,,,2017_Oct_04_1115,60.0081414919,MAFE4ImagesEEG,001,101914,
AFNE01.JPG,AFNE01.JPG,AFNE01.JPG,AFNE01.JPG,AFNE01.JPG,AFNE01.JPG,,,,,1,4,14,2,,,,,,,,,,,,,,,,,,,AFSA15.jpg,AFNE19.jpg,AFSA11.jpg,AFNE06.jpg,AFSA11.jpg,FS,4,num_2,32,num_8,1.46671727946,,,2017_Oct_04_1115,60.0081414919,MAFE4ImagesEEG,001,101914,
AFNE01.JPG,AFNE01.JPG,AFNE01.JPG,AFNE01.JPG,AFNE01.JPG,AFNE01.JPG,,,,,1,5,15,8,,,,,,,,,,,,,,,,,,,AFNE08.jpg,AFSA06.jpg,AFSA05.jpg,AFNE04.jpg,AFNE08.jpg,FN,3,num_8,16,num_8,1.1330846956,,,2017_Oct_04_1115,60.0081414919,MAFE4ImagesEEG,001,101914,
AFNE01.JPG,AFNE01.JPG,AFNE01.JPG,AFNE01.JPG,AFNE01.JPG,AFNE01.JPG,,,,,1,6,16,5,,,,,,,,,,,,,,,,,,,AFNE18.jpg,AFSA06.jpg,AFSA05.jpg,AFNE15.jpg,AFSA06.jpg,FS,4,num_6,16,num_6,1.43338083493,,,2017_Oct_04_1115,60.0081414919,MAFE4ImagesEEG,001,101914,
AFNE01.JPG,AFNE01.JPG,AFNE01.JPG,AFNE01.JPG,AFNE01.JPG,AFNE01.JPG,,,,,1,7,17,4,,,,,,,,,,,,,,,,,,,AFSA08.jpg,AFSA09.jpg,AFNE02.jpg,AFNE19.jpg,AFSA09.jpg,FS,4,num_6,32,num_8,1.00007024208,,,2017_Oct_04_1115,60.0081414919,MAFE4ImagesEEG,001,101914,
AFNE01.JPG,AFNE01.JPG,AFNE01.JPG,AFNE01.JPG,AFNE01.JPG,AFNE01.JPG,,,,,1,8,18,1,,,,,,,,,,,,,,,,,,,AFSA09.jpg,AFNE15.jpg,AFSA13.jpg,AFNE20.jpg,AFSA13.jpg,FS,4,num_2,16,num_2,1.58340413671,,,2017_Oct_04_1115,60.0081414919,MAFE4ImagesEEG,001,101914,
AFNE01.JPG,AFNE01.JPG,AFNE01.JPG,AFNE01.JPG,AFNE01.JPG,AFNE01.JPG,,,,,1,9,19,6,,,,,,,,,,,,,,,,,,,AFSA04.jpg,AFNE07.jpg,AFNE14.jpg,AFSA09.jpg,AFSA09.jpg,FS,4,num_4,32,num_8,1.23313604608,,,2017_Oct_04_1115,60.0081414919,MAFE4ImagesEEG,001,101914,
AFNE01.JPG,AFNE01.JPG,AFNE01.JPG,AFNE01.JPG,AFNE01.JPG,AFNE01.JPG,,,,,2,0,20,3,,,,,,,,,,,,,,,,,,,AFSA17.jpg,AFNE15.jpg,AFNE09.jpg,AFSA14.jpg,AFNE15.jpg,FN,3,num_6,32,num_2,2.28333155323,,,2017_Oct_04_1115,60.0081414919,MAFE4ImagesEEG,001,101914,
AFNE01.JPG,AFNE01.JPG,AFNE01.JPG,AFNE01.JPG,AFNE01.JPG,AFNE01.JPG,,,,,2,1,21,5,,,,,,,,,,,,,,,,,,,AFNE20.jpg,AFSA05.jpg,AFNE12.jpg,AFSA04.jpg,AFNE20.jpg,FN,3,num_8,32,num_4,1.10012929035,,,2017_Oct_04_1115,60.0081414919,MAFE4ImagesEEG,001,101914,
AFNE01.JPG,AFNE01.JPG,AFNE01.JPG,AFNE01.JPG,AFNE01.JPG,AFNE01.JPG,,,,,2,2,22,7,,,,,,,,,,,,,,,,,,,AFSA07.jpg,AFNE08.jpg,AFSA02.jpg,AFNE16.jpg,AFNE16.jpg,FN,3,num_4,32,num_2,1.91671501823,,,2017_Oct_04_1115,60.0081414919,MAFE4ImagesEEG,001,101914,
AFNE01.JPG,AFNE01.JPG,AFNE01.JPG,AFNE01.JPG,AFNE01.JPG,AFNE01.JPG,,,,,2,3,23,4,,,,,,,,,,,,,,,,,,,AFNE07.jpg,AFNE16.jpg,AFSA10.jpg,AFSA08.jpg,AFSA10.jpg,FS,4,num_2,32,num_6,1.63342484049,,,2017_Oct_04_1115,60.0081414919,MAFE4ImagesEEG,001,101914,
AFNE01.JPG,AFNE01.JPG,AFNE01.JPG,AFNE01.JPG,AFNE01.JPG,AFNE01.JPG,,,,,2,4,24,2,,,,,,,,,,,,,,,,,,,AFSA07.jpg,AFNE07.jpg,AFNE08.jpg,AFSA01.jpg,AFSA07.jpg,FS,4,num_8,32,num_2,1.33340229247,,,2017_Oct_04_1115,60.0081414919,MAFE4ImagesEEG,001,101914,
AFNE01.JPG,AFNE01.JPG,AFNE01.JPG,AFNE01.JPG,AFNE01.JPG,AFNE01.JPG,,,,,2,5,25,9,,,,,,,,,,,,,,,,,,,AFSA11.jpg,AFSA06.jpg,AFNE18.jpg,AFNE08.jpg,AFNE18.jpg,FN,3,num_2,16,num_2,1.28341975676,,,2017_Oct_04_1115,60.0081414919,MAFE4ImagesEEG,001,101914,
AFNE01.JPG,AFNE01.JPG,AFNE01.JPG,AFNE01.JPG,AFNE01.JPG,AFNE01.JPG,,,,,2,6,26,1,,,,,,,,,,,,,,,,,,,AFNE16.jpg,AFSA06.jpg,AFSA12.jpg,AFNE18.jpg,AFSA12.jpg,FS,4,num_2,16,num_2,1.86668597523,,,2017_Oct_04_1115,60.0081414919,MAFE4ImagesEEG,001,101914,
AFNE01.JPG,AFNE01.JPG,AFNE01.JPG,AFNE01.JPG,AFNE01.JPG,AFNE01.JPG,,,,,2,7,27,6,,,,,,,,,,,,,,,,,,,AFSA11.jpg,AFSA07.jpg,AFNE12.jpg,AFNE01.jpg,AFNE12.jpg,FN,3,num_2,32,num_6,1.08344984219,,,2017_Oct_04_1115,60.0081414919,MAFE4ImagesEEG,001,101914,
AFNE01.JPG,AFNE01.JPG,AFNE01.JPG,AFNE01.JPG,AFNE01.JPG,AFNE01.JPG,,,,,2,8,28,8,,,,,,,,,,,,,,,,,,,AFSA20.jpg,AFSA12.jpg,AFNE15.jpg,AFNE02.jpg,AFSA20.jpg,FS,4,num_8,16,num_8,1.03342561027,,,2017_Oct_04_1115,60.0081414919,MAFE4ImagesEEG,001,101914,
AFNE01.JPG,AFNE01.JPG,AFNE01.JPG,AFNE01.JPG,AFNE01.JPG,AFNE01.JPG,,,,,2,9,29,0,,,,,,,,,,,,,,,,,,,AFNE05.jpg,AFNE01.jpg,AFSA13.jpg,AFSA15.jpg,AFSA13.jpg,FS,4,num_2,16,num_2,1.05019711085,,,2017_Oct_04_1115,60.0081414919,MAFE4ImagesEEG,001,101914,
AFNE01.JPG,AFNE01.JPG,AFNE01.JPG,AFNE01.JPG,AFNE01.JPG,AFNE01.JPG,,,,,3,0,30,6,,,,,,,,,,,,,,,,,,,AFSA14.jpg,AFSA02.jpg,AFNE03.jpg,AFNE01.jpg,AFNE01.jpg,FN,3,num_4,32,num_2,0.950167249932,,,2017_Oct_04_1115,60.0081414919,MAFE4ImagesEEG,001,101914,
AFNE01.JPG,AFNE01.JPG,AFNE01.JPG,AFNE01.JPG,AFNE01.JPG,AFNE01.JPG,,,,,3,1,31,2,,,,,,,,,,,,,,,,,,,AFNE06.jpg,AFSA15.jpg,AFSA16.jpg,AFNE04.jpg,AFSA16.jpg,FS,4,num_2,16,num_2,1.10013057329,,,2017_Oct_04_1115,60.0081414919,MAFE4ImagesEEG,001,101914,
AFNE01.JPG,AFNE01.JPG,AFNE01.JPG,AFNE01.JPG,AFNE01.JPG,AFNE01.JPG,,,,,3,2,32,3,,,,,,,,,,,,,,,,,,,AFSA05.jpg,AFSA20.jpg,AFNE04.jpg,AFNE11.jpg,AFNE04.jpg,FN,3,num_2,16,num_2,1.01677983982,,,2017_Oct_04_1115,60.0081414919,MAFE4ImagesEEG,001,101914,
AFNE01.JPG,AFNE01.JPG,AFNE01.JPG,AFNE01.JPG,AFNE01.JPG,AFNE01.JPG,,,,,3,3,33,1,,,,,,,,,,,,,,,,,,,AFSA04.jpg,AFNE01.jpg,AFSA05.jpg,AFNE18.jpg,AFNE01.jpg,FN,3,num_6,32,num_2,1.80006119721,,,2017_Oct_04_1115,60.0081414919,MAFE4ImagesEEG,001,101914,
AFNE01.JPG,AFNE01.JPG,AFNE01.JPG,AFNE01.JPG,AFNE01.JPG,AFNE01.JPG,,,,,3,4,34,7,,,,,,,,,,,,,,,,,,,AFSA04.jpg,AFNE12.jpg,AFNE11.jpg,AFSA13.jpg,AFNE11.jpg,FN,3,num_2,16,num_2,1.28339345606,,,2017_Oct_04_1115,60.0081414919,MAFE4ImagesEEG,001,101914,
AFNE01.JPG,AFNE01.JPG,AFNE01.JPG,AFNE01.JPG,AFNE01.JPG,AFNE01.JPG,,,,,3,5,35,5,,,,,,,,,,,,,,,,,,,AFSA20.jpg,AFNE14.jpg,AFNE12.jpg,AFSA01.jpg,AFSA01.jpg,FS,4,num_4,32,num_6,1.00012733383,,,2017_Oct_04_1115,60.0081414919,MAFE4ImagesEEG,001,101914,
AFNE01.JPG,AFNE01.JPG,AFNE01.JPG,AFNE01.JPG,AFNE01.JPG,AFNE01.JPG,,,,,3,6,36,9,,,,,,,,,,,,,,,,,,,AFSA08.jpg,AFNE17.jpg,AFNE13.jpg,AFSA14.jpg,AFNE17.jpg,FN,3,num_6,16,num_6,1.1667720298,,,2017_Oct_04_1115,60.0081414919,MAFE4ImagesEEG,001,101914,
AFNE01.JPG,AFNE01.JPG,AFNE01.JPG,AFNE01.JPG,AFNE01.JPG,AFNE01.JPG,,,,,3,7,37,0,,,,,,,,,,,,,,,,,,,AFNE14.jpg,AFSA10.jpg,AFNE04.jpg,AFSA01.jpg,AFSA10.jpg,FS,4,num_6,32,num_2,2.58333581907,,,2017_Oct_04_1115,60.0081414919,MAFE4ImagesEEG,001,101914,
AFNE01.JPG,AFNE01.JPG,AFNE01.JPG,AFNE01.JPG,AFNE01.JPG,AFNE01.JPG,,,,,3,8,38,4,,,,,,,,,,,,,,,,,,,AFNE19.jpg,AFSA08.jpg,AFSA18.jpg,AFNE20.jpg,AFSA08.jpg,FS,4,num_6,32,num_4,0.883423798077,,,2017_Oct_04_1115,60.0081414919,MAFE4ImagesEEG,001,101914,
AFNE01.JPG,AFNE01.JPG,AFNE01.JPG,AFNE01.JPG,AFNE01.JPG,AFNE01.JPG,,,,,3,9,39,8,,,,,,,,,,,,,,,,,,,AFSA04.jpg,AFSA12.jpg,AFNE08.jpg,AFNE15.jpg,AFSA04.jpg,FS,4,num_8,16,num_8,0.566775044746,,,2017_Oct_04_1115,60.0081414919,MAFE4ImagesEEG,001,101914,
AFNE01.JPG,AFNE01.JPG,AFNE01.JPG,AFNE01.JPG,AFNE01.JPG,AFNE01.JPG,,,,,4,0,40,9,,,,,,,,,,,,,,,,,,,AFSA08.jpg,AFNE05.jpg,AFNE13.jpg,AFSA03.jpg,AFNE13.jpg,FN,3,num_2,16,num_2,1.15008841202,,,2017_Oct_04_1115,60.0081414919,MAFE4ImagesEEG,001,101914,
AFNE01.JPG,AFNE01.JPG,AFNE01.JPG,AFNE01.JPG,AFNE01.JPG,AFNE01.JPG,,,,,4,1,41,2,,,,,,,,,,,,,,,,,,,AFSA13.jpg,AFSA07.jpg,AFNE13.jpg,AFNE11.jpg,AFSA07.jpg,FS,4,num_6,32,num_2,1.10012864886,,,2017_Oct_04_1115,60.0081414919,MAFE4ImagesEEG,001,101914,
AFNE01.JPG,AFNE01.JPG,AFNE01.JPG,AFNE01.JPG,AFNE01.JPG,AFNE01.JPG,,,,,4,2,42,8,,,,,,,,,,,,,,,,,,,AFNE02.jpg,AFNE17.jpg,AFSA12.jpg,AFSA18.jpg,AFSA18.jpg,FS,4,num_4,16,num_4,0.983491506326,,,2017_Oct_04_1115,60.0081414919,MAFE4ImagesEEG,001,101914,
AFNE01.JPG,AFNE01.JPG,AFNE01.JPG,AFNE01.JPG,AFNE01.JPG,AFNE01.JPG,,,,,4,3,43,7,,,,,,,,,,,,,,,,,,,AFNE04.jpg,AFSA09.jpg,AFSA17.jpg,AFNE15.jpg,AFSA17.jpg,FS,4,num_2,32,num_6,1.18336616107,,,2017_Oct_04_1115,60.0081414919,MAFE4ImagesEEG,001,101914,
AFNE01.JPG,AFNE01.JPG,AFNE01.JPG,AFNE01.JPG,AFNE01.JPG,AFNE01.JPG,,,,,4,4,44,5,,,,,,,,,,,,,,,,,,,AFSA19.jpg,AFNE06.jpg,AFSA09.jpg,AFNE08.jpg,AFSA19.jpg,FS,4,num_8,32,num_6,1.70003133631,,,2017_Oct_04_1115,60.0081414919,MAFE4ImagesEEG,001,101914,
AFNE01.JPG,AFNE01.JPG,AFNE01.JPG,AFNE01.JPG,AFNE01.JPG,AFNE01.JPG,,,,,4,5,45,1,,,,,,,,,,,,,,,,,,,AFNE03.jpg,AFSA15.jpg,AFSA01.jpg,AFNE04.jpg,AFSA15.jpg,FS,4,num_6,32,num_4,0.733423268859,,,2017_Oct_04_1115,60.0081414919,MAFE4ImagesEEG,001,101914,
AFNE01.JPG,AFNE01.JPG,AFNE01.JPG,AFNE01.JPG,AFNE01.JPG,AFNE01.JPG,,,,,4,6,46,6,,,,,,,,,,,,,,,,,,,AFNE18.jpg,AFSA14.jpg,AFNE14.jpg,AFSA05.jpg,AFNE18.jpg,FN,3,num_8,16,num_8,1.33329612747,,,2017_Oct_04_1115,60.0081414919,MAFE4ImagesEEG,001,101914,
AFNE01.JPG,AFNE01.JPG,AFNE01.JPG,AFNE01.JPG,AFNE01.JPG,AFNE01.JPG,,,,,4,7,47,0,,,,,,,,,,,,,,,,,,,AFNE01.jpg,AFSA18.jpg,AFNE18.jpg,AFSA07.jpg,AFNE01.jpg,FN,3,num_8,32,num_4,0.866655504913,,,2017_Oct_04_1115,60.0081414919,MAFE4ImagesEEG,001,101914,
AFNE01.JPG,AFNE01.JPG,AFNE01.JPG,AFNE01.JPG,AFNE01.JPG,AFNE01.JPG,,,,,4,8,48,3,,,,,,,,,,,,,,,,,,,AFSA06.jpg,AFNE18.jpg,AFSA13.jpg,AFNE13.jpg,AFNE13.jpg,FN,3,num_4,32,num_6,1.08343893701,,,2017_Oct_04_1115,60.0081414919,MAFE4ImagesEEG,001,101914,
AFNE01.JPG,AFNE01.JPG,AFNE01.JPG,AFNE01.JPG,AFNE01.JPG,AFNE01.JPG,,,,,4,9,49,4,,,,,,,,,,,,,,,,,,,AFNE19.jpg,AFSA08.jpg,AFNE05.jpg,AFSA20.jpg,AFSA08.jpg,FS,4,num_6,32,num_8,1.10013313922,,,2017_Oct_04_1115,60.0081414919,MAFE4ImagesEEG,001,101914,
AFNE01.JPG,AFNE01.JPG,AFNE01.JPG,AFNE01.JPG,AFNE01.JPG,AFNE01.JPG,,,,,5,0,50,2,,,,,,,,,,,,,,,,,,,AFSA19.jpg,AFNE20.jpg,AFSA06.jpg,AFNE08.jpg,AFSA19.jpg,FS,4,num_8,16,num_8,0.750171996886,,,2017_Oct_04_1115,60.0081414919,MAFE4ImagesEEG,001,101914,
AFNE01.JPG,AFNE01.JPG,AFNE01.JPG,AFNE01.JPG,AFNE01.JPG,AFNE01.JPG,,,,,5,1,51,3,,,,,,,,,,,,,,,,,,,AFNE17.jpg,AFNE03.jpg,AFSA20.jpg,AFSA05.jpg,AFSA20.jpg,FS,4,num_2,32,num_6,1.26675217599,,,2017_Oct_04_1115,60.0081414919,MAFE4ImagesEEG,001,101914,
AFNE01.JPG,AFNE01.JPG,AFNE01.JPG,AFNE01.JPG,AFNE01.JPG,AFNE01.JPG,,,,,5,2,52,1,,,,,,,,,,,,,,,,,,,AFNE18.jpg,AFSA13.jpg,AFNE19.jpg,AFSA08.jpg,AFSA13.jpg,FS,4,num_6,32,num_4,1.16673354097,,,2017_Oct_04_1115,60.0081414919,MAFE4ImagesEEG,001,101914,
AFNE01.JPG,AFNE01.JPG,AFNE01.JPG,AFNE01.JPG,AFNE01.JPG,AFNE01.JPG,,,,,5,3,53,7,,,,,,,,,,,,,,,,,,,AFSA08.jpg,AFNE20.jpg,AFSA17.jpg,AFNE15.jpg,AFSA17.jpg,FS,4,num_2,32,num_8,0.583810835175,,,2017_Oct_04_1115,60.0081414919,MAFE4ImagesEEG,001,101914,
AFNE01.JPG,AFNE01.JPG,AFNE01.JPG,AFNE01.JPG,AFNE01.JPG,AFNE01.JPG,,,,,5,4,54,9,,,,,,,,,,,,,,,,,,,AFNE17.jpg,AFSA03.jpg,AFNE03.jpg,AFSA06.jpg,AFSA03.jpg,FS,4,num_6,32,num_4,0.683460619053,,,2017_Oct_04_1115,60.0081414919,MAFE4ImagesEEG,001,101914,
AFNE01.JPG,AFNE01.JPG,AFNE01.JPG,AFNE01.JPG,AFNE01.JPG,AFNE01.JPG,,,,,5,5,55,6,,,,,,,,,,,,,,,,,,,AFSA09.jpg,AFNE17.jpg,AFNE12.jpg,AFSA01.jpg,AFNE12.jpg,FN,3,num_2,32,num_8,0.700108955425,,,2017_Oct_04_1115,60.0081414919,MAFE4ImagesEEG,001,101914,
AFNE01.JPG,AFNE01.JPG,AFNE01.JPG,AFNE01.JPG,AFNE01.JPG,AFNE01.JPG,,,,,5,6,56,4,,,,,,,,,,,,,,,,,,,AFSA14.jpg,AFNE18.jpg,AFSA03.jpg,AFNE04.jpg,AFNE04.jpg,FN,3,num_4,16,num_4,1.01678144351,,,2017_Oct_04_1115,60.0081414919,MAFE4ImagesEEG,001,101914,
AFNE01.JPG,AFNE01.JPG,AFNE01.JPG,AFNE01.JPG,AFNE01.JPG,AFNE01.JPG,,,,,5,7,57,0,,,,,,,,,,,,,,,,,,,AFNE16.jpg,AFSA19.jpg,AFNE07.jpg,AFSA08.jpg,AFSA19.jpg,FS,4,num_6,32,num_4,1.18343479947,,,2017_Oct_04_1115,60.0081414919,MAFE4ImagesEEG,001,101914,
AFNE01.JPG,AFNE01.JPG,AFNE01.JPG,AFNE01.JPG,AFNE01.JPG,AFNE01.JPG,,,,,5,8,58,5,,,,,,,,,,,,,,,,,,,AFNE14.jpg,AFNE15.jpg,AFSA14.jpg,AFSA08.jpg,AFSA14.jpg,FS,4,num_2,32,num_4,0.833445431999,,,2017_Oct_04_1115,60.0081414919,MAFE4ImagesEEG,001,101914,
AFNE01.JPG,AFNE01.JPG,AFNE01.JPG,AFNE01.JPG,AFNE01.JPG,AFNE01.JPG,,,,,5,9,59,8,,,,,,,,,,,,,,,,,,,AFSA05.jpg,AFNE11.jpg,AFNE18.jpg,AFSA08.jpg,AFSA08.jpg,FS,4,num_4,32,num_8,1.08348351989,,,2017_Oct_04_1115,60.0081414919,MAFE4ImagesEEG,001,101914,
,,,,,,,,,,,,,,,,,,,,,,,,,,,,,,,,,,,,,,,,,,,space,6.98296453031,2017_Oct_04_1115,60.0081414919,MAFE4ImagesEEG,001,101914,
AFNE01.JPG,AFNE01.JPG,AFNE01.JPG,AFNE01.JPG,AFNE01.JPG,AFNE01.JPG,,,,,,,,,0,0,0,2,,,,,,,,,,,,,,,AMSA11.jpg,AMNE05.jpg,AMNE08.jpg,AMSA18.jpg,AMNE05.jpg,MN,1,num_6,16,num_6,0.966477526221,,,2017_Oct_04_1115,60.0081414919,MAFE4ImagesEEG,001,101914,
AFNE01.JPG,AFNE01.JPG,AFNE01.JPG,AFNE01.JPG,AFNE01.JPG,AFNE01.JPG,,,,,,,,,0,1,1,8,,,,,,,,,,,,,,,AMSA20.jpg,AMNE04.jpg,AMNE18.jpg,AMSA13.jpg,AMNE18.jpg,MN,1,num_2,32,num_4,1.10011004594,,,2017_Oct_04_1115,60.0081414919,MAFE4ImagesEEG,001,101914,
AFNE01.JPG,AFNE01.JPG,AFNE01.JPG,AFNE01.JPG,AFNE01.JPG,AFNE01.JPG,,,,,,,,,0,2,2,4,,,,,,,,,,,,,,,AMSA13.jpg,AMNE05.jpg,AMSA11.jpg,AMNE17.jpg,AMNE17.jpg,MN,1,num_4,16,num_4,0.68346414718,,,2017_Oct_04_1115,60.0081414919,MAFE4ImagesEEG,001,101914,
AFNE01.JPG,AFNE01.JPG,AFNE01.JPG,AFNE01.JPG,AFNE01.JPG,AFNE01.JPG,,,,,,,,,0,3,3,5,,,,,,,,,,,,,,,AMNE11.jpg,AMSA13.jpg,AMNE16.jpg,AMSA01.jpg,AMNE11.jpg,MN,1,num_8,16,num_8,0.683725229639,,,2017_Oct_04_1115,60.0081414919,MAFE4ImagesEEG,001,101914,
AFNE01.JPG,AFNE01.JPG,AFNE01.JPG,AFNE01.JPG,AFNE01.JPG,AFNE01.JPG,,,,,,,,,0,4,4,9,,,,,,,,,,,,,,,AMNE14.jpg,AMSA02.jpg,AMNE12.jpg,AMSA14.jpg,AMSA14.jpg,MS,2,num_4,16,num_4,0.533460089835,,,2017_Oct_04_1115,60.0081414919,MAFE4ImagesEEG,001,101914,
AFNE01.JPG,AFNE01.JPG,AFNE01.JPG,AFNE01.JPG,AFNE01.JPG,AFNE01.JPG,,,,,,,,,0,5,5,1,,,,,,,,,,,,,,,AMSA14.jpg,AMNE16.jpg,AMNE17.jpg,AMSA03.jpg,AMNE16.jpg,MN,1,num_6,32,num_4,2.98328174229,,,2017_Oct_04_1115,60.0081414919,MAFE4ImagesEEG,001,101914,
AFNE01.JPG,AFNE01.JPG,AFNE01.JPG,AFNE01.JPG,AFNE01.JPG,AFNE01.JPG,,,,,,,,,0,6,6,7,,,,,,,,,,,,,,,AMSA06.jpg,AMSA12.jpg,AMNE03.jpg,AMNE11.jpg,AMNE03.jpg,MN,1,num_2,16,num_2,1.2501804965,,,2017_Oct_04_1115,60.0081414919,MAFE4ImagesEEG,001,101914,
AFNE01.JPG,AFNE01.JPG,AFNE01.JPG,AFNE01.JPG,AFNE01.JPG,AFNE01.JPG,,,,,,,,,0,7,7,3,,,,,,,,,,,,,,,AMSA01.jpg,AMSA12.jpg,AMNE03.jpg,AMNE07.jpg,AMNE07.jpg,MN,1,num_4,16,num_4,1.05009832287,,,2017_Oct_04_1115,60.0081414919,MAFE4ImagesEEG,001,101914,
AFNE01.JPG,AFNE01.JPG,AFNE01.JPG,AFNE01.JPG,AFNE01.JPG,AFNE01.JPG,,,,,,,,,0,8,8,6,,,,,,,,,,,,,,,AMNE01.jpg,AMSA04.jpg,AMNE05.jpg,AMSA20.jpg,AMSA04.jpg,MS,2,num_6,16,num_6,1.01677695315,,,2017_Oct_04_1115,60.0081414919,MAFE4ImagesEEG,001,101914,
AFNE01.JPG,AFNE01.JPG,AFNE01.JPG,AFNE01.JPG,AFNE01.JPG,AFNE01.JPG,,,,,,,,,0,9,9,0,,,,,,,,,,,,,,,AMSA02.jpg,AMSA13.jpg,AMNE04.jpg,AMNE18.jpg,AMNE04.jpg,MN,1,num_2,32,num_6,0.883452343944,,,2017_Oct_04_1115,60.0081414919,MAFE4ImagesEEG,001,101914,
AFNE01.JPG,AFNE01.JPG,AFNE01.JPG,AFNE01.JPG,AFNE01.JPG,AFNE01.JPG,,,,,,,,,1,0,10,7,,,,,,,,,,,,,,,AMSA02.jpg,AMNE09.jpg,AMNE17.jpg,AMSA19.jpg,AMNE09.jpg,MN,1,num_6,16,num_6,0.550029524136,,,2017_Oct_04_1115,60.0081414919,MAFE4ImagesEEG,001,101914,
AFNE01.JPG,AFNE01.JPG,AFNE01.JPG,AFNE01.JPG,AFNE01.JPG,AFNE01.JPG,,,,,,,,,1,1,11,2,,,,,,,,,,,,,,,AMSA12.jpg,AMNE15.jpg,AMNE16.jpg,AMSA05.jpg,AMSA12.jpg,MS,2,num_8,16,num_8,0.483196585788,,,2017_Oct_04_1115,60.0081414919,MAFE4ImagesEEG,001,101914,
AFNE01.JPG,AFNE01.JPG,AFNE01.JPG,AFNE01.JPG,AFNE01.JPG,AFNE01.JPG,,,,,,,,,1,2,12,8,,,,,,,,,,,,,,,AMNE02.jpg,AMNE19.jpg,AMSA15.jpg,AMSA08.jpg,AMSA08.jpg,MS,2,num_4,16,num_4,0.650094666446,,,2017_Oct_04_1115,60.0081414919,MAFE4ImagesEEG,001,101914,
AFNE01.JPG,AFNE01.JPG,AFNE01.JPG,AFNE01.JPG,AFNE01.JPG,AFNE01.JPG,,,,,,,,,1,3,13,6,,,,,,,,,,,,,,,AMSA11.jpg,AMNE07.jpg,AMNE14.jpg,AMSA10.jpg,AMNE07.jpg,MN,1,num_6,16,num_6,1.01677182132,,,2017_Oct_04_1115,60.0081414919,MAFE4ImagesEEG,001,101914,
AFNE01.JPG,AFNE01.JPG,AFNE01.JPG,AFNE01.JPG,AFNE01.JPG,AFNE01.JPG,,,,,,,,,1,4,14,0,,,,,,,,,,,,,,,AMSA12.jpg,AMSA14.jpg,AMNE01.jpg,AMNE03.jpg,AMSA12.jpg,MS,2,num_8,32,num_6,1.10011164963,,,2017_Oct_04_1115,60.0081414919,MAFE4ImagesEEG,001,101914,
AFNE01.JPG,AFNE01.JPG,AFNE01.JPG,AFNE01.JPG,AFNE01.JPG,AFNE01.JPG,,,,,,,,,1,5,15,9,,,,,,,,,,,,,,,AMNE15.jpg,AMSA20.jpg,AMSA02.jpg,AMNE11.jpg,AMNE11.jpg,MN,1,num_4,16,num_4,1.98338790725,,,2017_Oct_04_1115,60.0081414919,MAFE4ImagesEEG,001,101914,
AFNE01.JPG,AFNE01.JPG,AFNE01.JPG,AFNE01.JPG,AFNE01.JPG,AFNE01.JPG,,,,,,,,,1,6,16,1,,,,,,,,,,,,,,,AMNE06.jpg,AMSA02.jpg,AMNE11.jpg,AMSA14.jpg,AMNE06.jpg,MN,1,num_8,32,num_6,0.850127125348,,,2017_Oct_04_1115,60.0081414919,MAFE4ImagesEEG,001,101914,
AFNE01.JPG,AFNE01.JPG,AFNE01.JPG,AFNE01.JPG,AFNE01.JPG,AFNE01.JPG,,,,,,,,,1,7,17,3,,,,,,,,,,,,,,,AMSA09.jpg,AMNE15.jpg,AMSA12.jpg,AMNE04.jpg,AMSA09.jpg,MS,2,num_8,16,num_8,0.61676335377,,,2017_Oct_04_1115,60.0081414919,MAFE4ImagesEEG,001,101914,
AFNE01.JPG,AFNE01.JPG,AFNE01.JPG,AFNE01.JPG,AFNE01.JPG,AFNE01.JPG,,,,,,,,,1,8,18,4,,,,,,,,,,,,,,,AMNE07.jpg,AMNE01.jpg,AMSA12.jpg,AMSA03.jpg,AMSA12.jpg,MS,2,num_2,16,num_2,1.40020123235,,,2017_Oct_04_1115,60.0081414919,MAFE4ImagesEEG,001,101914,
AFNE01.JPG,AFNE01.JPG,AFNE01.JPG,AFNE01.JPG,AFNE01.JPG,AFNE01.JPG,,,,,,,,,1,9,19,5,,,,,,,,,,,,,,,AMSA03.jpg,AMSA15.jpg,AMNE03.jpg,AMNE01.jpg,AMSA15.jpg,MS,2,num_6,16,num_6,0.566787553616,,,2017_Oct_04_1115,60.0081414919,MAFE4ImagesEEG,001,101914,
AFNE01.JPG,AFNE01.JPG,AFNE01.JPG,AFNE01.JPG,AFNE01.JPG,AFNE01.JPG,,,,,,,,,2,0,20,9,,,,,,,,,,,,,,,AMNE15.jpg,AMSA04.jpg,AMNE08.jpg,AMSA09.jpg,AMSA09.jpg,MS,2,num_4,16,num_4,0.783685169212,,,2017_Oct_04_1115,60.0081414919,MAFE4ImagesEEG,001,101914,
AFNE01.JPG,AFNE01.JPG,AFNE01.JPG,AFNE01.JPG,AFNE01.JPG,AFNE01.JPG,,,,,,,,,2,1,21,0,,,,,,,,,,,,,,,AMSA19.jpg,AMSA10.jpg,AMNE19.jpg,AMNE09.jpg,AMSA19.jpg,MS,2,num_8,16,num_8,0.583493623199,,,2017_Oct_04_1115,60.0081414919,MAFE4ImagesEEG,001,101914,
AFNE01.JPG,AFNE01.JPG,AFNE01.JPG,AFNE01.JPG,AFNE01.JPG,AFNE01.JPG,,,,,,,,,2,2,22,8,,,,,,,,,,,,,,,AMSA18.jpg,AMSA17.jpg,AMNE07.jpg,AMNE08.jpg,AMNE08.jpg,MN,1,num_4,16,num_4,1.13341730309,,,2017_Oct_04_1115,60.0081414919,MAFE4ImagesEEG,001,101914,
AFNE01.JPG,AFNE01.JPG,AFNE01.JPG,AFNE01.JPG,AFNE01.JPG,AFNE01.JPG,,,,,,,,,2,3,23,5,,,,,,,,,,,,,,,AMSA08.jpg,AMNE19.jpg,AMNE12.jpg,AMSA06.jpg,AMNE19.jpg,MN,1,num_6,16,num_6,0.599958496226,,,2017_Oct_04_1115,60.0081414919,MAFE4ImagesEEG,001,101914,
AFNE01.JPG,AFNE01.JPG,AFNE01.JPG,AFNE01.JPG,AFNE01.JPG,AFNE01.JPG,,,,,,,,,2,4,24,1,,,,,,,,,,,,,,,AMNE05.jpg,AMSA03.jpg,AMNE09.jpg,AMSA04.jpg,AMSA03.jpg,MS,2,num_6,16,num_6,0.750125489576,,,2017_Oct_04_1115,60.0081414919,MAFE4ImagesEEG,001,101914,
AFNE01.JPG,AFNE01.JPG,AFNE01.JPG,AFNE01.JPG,AFNE01.JPG,AFNE01.JPG,,,,,,,,,2,5,25,6,,,,,,,,,,,,,,,AMSA04.jpg,AMNE15.jpg,AMNE11.jpg,AMSA12.jpg,AMNE15.jpg,MN,1,num_6,16,num_6,1.03343651543,,,2017_Oct_04_1115,60.0081414919,MAFE4ImagesEEG,001,101914,
AFNE01.JPG,AFNE01.JPG,AFNE01.JPG,AFNE01.JPG,AFNE01.JPG,AFNE01.JPG,,,,,,,,,2,6,26,7,,,,,,,,,,,,,,,AMNE15.jpg,AMNE14.jpg,AMSA11.jpg,AMSA18.jpg,AMNE14.jpg,MN,1,num_6,32,num_2,1.41673346079,,,2017_Oct_04_1115,60.0081414919,MAFE4ImagesEEG,001,101914,
AFNE01.JPG,AFNE01.JPG,AFNE01.JPG,AFNE01.JPG,AFNE01.JPG,AFNE01.JPG,,,,,,,,,2,7,27,4,,,,,,,,,,,,,,,AMNE15.jpg,AMNE04.jpg,AMSA03.jpg,AMSA05.jpg,AMSA03.jpg,MS,2,num_2,16,num_2,0.766771580747,,,2017_Oct_04_1115,60.0081414919,MAFE4ImagesEEG,001,101914,
AFNE01.JPG,AFNE01.JPG,AFNE01.JPG,AFNE01.JPG,AFNE01.JPG,AFNE01.JPG,,,,,,,,,2,8,28,3,,,,,,,,,,,,,,,AMSA09.jpg,AMNE13.jpg,AMSA13.jpg,AMNE16.jpg,AMSA13.jpg,MS,2,num_2,16,num_2,1.71704307123,,,2017_Oct_04_1115,60.0081414919,MAFE4ImagesEEG,001,101914,
AFNE01.JPG,AFNE01.JPG,AFNE01.JPG,AFNE01.JPG,AFNE01.JPG,AFNE01.JPG,,,,,,,,,2,9,29,2,,,,,,,,,,,,,,,AMSA05.jpg,AMNE16.jpg,AMSA08.jpg,AMNE18.jpg,AMNE18.jpg,MN,1,num_4,16,num_4,0.583457379573,,,2017_Oct_04_1115,60.0081414919,MAFE4ImagesEEG,001,101914,
AFNE01.JPG,AFNE01.JPG,AFNE01.JPG,AFNE01.JPG,AFNE01.JPG,AFNE01.JPG,,,,,,,,,3,0,30,1,,,,,,,,,,,,,,,AMNE15.jpg,AMSA19.jpg,AMSA09.jpg,AMNE13.jpg,AMNE15.jpg,MN,1,num_8,32,num_4,1.30011011008,,,2017_Oct_04_1115,60.0081414919,MAFE4ImagesEEG,001,101914,
AFNE01.JPG,AFNE01.JPG,AFNE01.JPG,AFNE01.JPG,AFNE01.JPG,AFNE01.JPG,,,,,,,,,3,1,31,8,,,,,,,,,,,,,,,AMSA10.jpg,AMSA17.jpg,AMNE11.jpg,AMNE04.jpg,AMSA10.jpg,MS,2,num_8,32,num_2,1.10007765119,,,2017_Oct_04_1115,60.0081414919,MAFE4ImagesEEG,001,101914,
AFNE01.JPG,AFNE01.JPG,AFNE01.JPG,AFNE01.JPG,AFNE01.JPG,AFNE01.JPG,,,,,,,,,3,2,32,7,,,,,,,,,,,,,,,AMSA07.jpg,AMNE11.jpg,AMSA04.jpg,AMNE18.jpg,AMNE18.jpg,MN,1,num_4,32,num_6,0.616794144822,,,2017_Oct_04_1115,60.0081414919,MAFE4ImagesEEG,001,101914,
AFNE01.JPG,AFNE01.JPG,AFNE01.JPG,AFNE01.JPG,AFNE01.JPG,AFNE01.JPG,,,,,,,,,3,3,33,9,,,,,,,,,,,,,,,AMNE01.jpg,AMSA03.jpg,AMSA17.jpg,AMNE16.jpg,AMSA03.jpg,MS,2,num_6,16,num_6,0.800189493253,,,2017_Oct_04_1115,60.0081414919,MAFE4ImagesEEG,001,101914,
AFNE01.JPG,AFNE01.JPG,AFNE01.JPG,AFNE01.JPG,AFNE01.JPG,AFNE01.JPG,,,,,,,,,3,4,34,0,,,,,,,,,,,,,,,AMSA19.jpg,AMNE04.jpg,AMNE14.jpg,AMSA20.jpg,AMSA19.jpg,MS,2,num_8,16,num_8,0.850160803049,,,2017_Oct_04_1115,60.0081414919,MAFE4ImagesEEG,001,101914,
AFNE01.JPG,AFNE01.JPG,AFNE01.JPG,AFNE01.JPG,AFNE01.JPG,AFNE01.JPG,,,,,,,,,3,5,35,6,,,,,,,,,,,,,,,AMNE05.jpg,AMNE09.jpg,AMSA20.jpg,AMSA10.jpg,AMNE09.jpg,MN,1,num_6,16,num_6,1.01681351752,,,2017_Oct_04_1115,60.0081414919,MAFE4ImagesEEG,001,101914,
AFNE01.JPG,AFNE01.JPG,AFNE01.JPG,AFNE01.JPG,AFNE01.JPG,AFNE01.JPG,,,,,,,,,3,6,36,3,,,,,,,,,,,,,,,AMNE16.jpg,AMSA18.jpg,AMNE14.jpg,AMSA19.jpg,AMNE14.jpg,MN,1,num_2,16,num_2,1.23329449171,,,2017_Oct_04_1115,60.0081414919,MAFE4ImagesEEG,001,101914,
AFNE01.JPG,AFNE01.JPG,AFNE01.JPG,AFNE01.JPG,AFNE01.JPG,AFNE01.JPG,,,,,,,,,3,7,37,5,,,,,,,,,,,,,,,AMNE03.jpg,AMNE16.jpg,AMSA16.jpg,AMSA19.jpg,AMNE16.jpg,MN,1,num_6,32,num_8,0.866609318327,,,2017_Oct_04_1115,60.0081414919,MAFE4ImagesEEG,001,101914,
AFNE01.JPG,AFNE01.JPG,AFNE01.JPG,AFNE01.JPG,AFNE01.JPG,AFNE01.JPG,,,,,,,,,3,8,38,2,,,,,,,,,,,,,,,AMSA15.jpg,AMNE01.jpg,AMNE03.jpg,AMSA13.jpg,AMSA15.jpg,MS,2,num_8,16,num_8,0.516792829789,,,2017_Oct_04_1115,60.0081414919,MAFE4ImagesEEG,001,101914,
AFNE01.JPG,AFNE01.JPG,AFNE01.JPG,AFNE01.JPG,AFNE01.JPG,AFNE01.JPG,,,,,,,,,3,9,39,4,,,,,,,,,,,,,,,AMSA12.jpg,AMNE10.jpg,AMSA09.jpg,AMNE07.jpg,AMSA12.jpg,MS,2,num_8,16,num_8,0.933445464078,,,2017_Oct_04_1115,60.0081414919,MAFE4ImagesEEG,001,101914,
AFNE01.JPG,AFNE01.JPG,AFNE01.JPG,AFNE01.JPG,AFNE01.JPG,AFNE01.JPG,,,,,,,,,4,0,40,7,,,,,,,,,,,,,,,AMNE07.jpg,AMSA08.jpg,AMSA09.jpg,AMNE06.jpg,AMNE07.jpg,MN,1,num_8,32,num_6,1.13344905637,,,2017_Oct_04_1115,60.0081414919,MAFE4ImagesEEG,001,101914,
AFNE01.JPG,AFNE01.JPG,AFNE01.JPG,AFNE01.JPG,AFNE01.JPG,AFNE01.JPG,,,,,,,,,4,1,41,5,,,,,,,,,,,,,,,AMSA01.jpg,AMNE14.jpg,AMSA13.jpg,AMNE01.jpg,AMNE01.jpg,MN,1,num_4,16,num_4,0.950108875229,,,2017_Oct_04_1115,60.0081414919,MAFE4ImagesEEG,001,101914,
AFNE01.JPG,AFNE01.JPG,AFNE01.JPG,AFNE01.JPG,AFNE01.JPG,AFNE01.JPG,,,,,,,,,4,2,42,6,,,,,,,,,,,,,,,AMNE16.jpg,AMNE04.jpg,AMSA18.jpg,AMSA06.jpg,AMSA06.jpg,MS,2,num_4,16,num_4,0.849955529382,,,2017_Oct_04_1115,60.0081414919,MAFE4ImagesEEG,001,101914,
AFNE01.JPG,AFNE01.JPG,AFNE01.JPG,AFNE01.JPG,AFNE01.JPG,AFNE01.JPG,,,,,,,,,4,3,43,8,,,,,,,,,,,,,,,AMNE17.jpg,AMNE16.jpg,AMSA02.jpg,AMSA06.jpg,AMSA06.jpg,MS,2,num_4,16,num_4,0.816750267579,,,2017_Oct_04_1115,60.0081414919,MAFE4ImagesEEG,001,101914,
AFNE01.JPG,AFNE01.JPG,AFNE01.JPG,AFNE01.JPG,AFNE01.JPG,AFNE01.JPG,,,,,,,,,4,4,44,2,,,,,,,,,,,,,,,AMNE12.jpg,AMSA06.jpg,AMNE14.jpg,AMSA16.jpg,AMNE12.jpg,MN,1,num_8,16,num_8,0.883447853586,,,2017_Oct_04_1115,60.0081414919,MAFE4ImagesEEG,001,101914,
AFNE01.JPG,AFNE01.JPG,AFNE01.JPG,AFNE01.JPG,AFNE01.JPG,AFNE01.JPG,,,,,,,,,4,5,45,9,,,,,,,,,,,,,,,AMSA09.jpg,AMNE12.jpg,AMNE18.jpg,AMSA05.jpg,AMSA05.jpg,MS,2,num_4,16,num_4,0.56682924983,,,2017_Oct_04_1115,60.0081414919,MAFE4ImagesEEG,001,101914,
AFNE01.JPG,AFNE01.JPG,AFNE01.JPG,AFNE01.JPG,AFNE01.JPG,AFNE01.JPG,,,,,,,,,4,6,46,0,,,,,,,,,,,,,,,AMNE04.jpg,AMNE05.jpg,AMSA08.jpg,AMSA16.jpg,AMNE05.jpg,MN,1,num_6,16,num_6,1.266702782,,,2017_Oct_04_1115,60.0081414919,MAFE4ImagesEEG,001,101914,
AFNE01.JPG,AFNE01.JPG,AFNE01.JPG,AFNE01.JPG,AFNE01.JPG,AFNE01.JPG,,,,,,,,,4,7,47,4,,,,,,,,,,,,,,,AMNE16.jpg,AMSA04.jpg,AMNE10.jpg,AMSA06.jpg,AMSA04.jpg,MS,2,num_6,16,num_6,0.766773505195,,,2017_Oct_04_1115,60.0081414919,MAFE4ImagesEEG,001,101914,
AFNE01.JPG,AFNE01.JPG,AFNE01.JPG,AFNE01.JPG,AFNE01.JPG,AFNE01.JPG,,,,,,,,,4,8,48,1,,,,,,,,,,,,,,,AMSA16.jpg,AMNE12.jpg,AMSA01.jpg,AMNE11.jpg,AMNE11.jpg,MN,1,num_4,16,num_4,0.833433564607,,,2017_Oct_04_1115,60.0081414919,MAFE4ImagesEEG,001,101914,
AFNE01.JPG,AFNE01.JPG,AFNE01.JPG,AFNE01.JPG,AFNE01.JPG,AFNE01.JPG,,,,,,,,,4,9,49,3,,,,,,,,,,,,,,,AMSA20.jpg,AMSA07.jpg,AMNE08.jpg,AMNE14.jpg,AMNE08.jpg,MN,1,num_2,16,num_2,0.816740966111,,,2017_Oct_04_1115,60.0081414919,MAFE4ImagesEEG,001,101914,
AFNE01.JPG,AFNE01.JPG,AFNE01.JPG,AFNE01.JPG,AFNE01.JPG,AFNE01.JPG,,,,,,,,,5,0,50,7,,,,,,,,,,,,,,,AMNE07.jpg,AMSA09.jpg,AMNE17.jpg,AMSA02.jpg,AMSA02.jpg,MS,2,num_4,16,num_4,0.816815698563,,,2017_Oct_04_1115,60.0081414919,MAFE4ImagesEEG,001,101914,
AFNE01.JPG,AFNE01.JPG,AFNE01.JPG,AFNE01.JPG,AFNE01.JPG,AFNE01.JPG,,,,,,,,,5,1,51,6,,,,,,,,,,,,,,,AMSA05.jpg,AMNE16.jpg,AMNE17.jpg,AMSA12.jpg,AMNE17.jpg,MN,1,num_2,16,num_2,1.16675695502,,,2017_Oct_04_1115,60.0081414919,MAFE4ImagesEEG,001,101914,
AFNE01.JPG,AFNE01.JPG,AFNE01.JPG,AFNE01.JPG,AFNE01.JPG,AFNE01.JPG,,,,,,,,,5,2,52,3,,,,,,,,,,,,,,,AMNE06.jpg,AMNE02.jpg,AMSA08.jpg,AMSA04.jpg,AMNE06.jpg,MN,1,num_8,32,num_2,1.08343893701,,,2017_Oct_04_1115,60.0081414919,MAFE4ImagesEEG,001,101914,
AFNE01.JPG,AFNE01.JPG,AFNE01.JPG,AFNE01.JPG,AFNE01.JPG,AFNE01.JPG,,,,,,,,,5,3,53,5,,,,,,,,,,,,,,,AMNE07.jpg,AMSA18.jpg,AMSA08.jpg,AMNE06.jpg,AMSA18.jpg,MS,2,num_6,16,num_6,0.566823797257,,,2017_Oct_04_1115,60.0081414919,MAFE4ImagesEEG,001,101914,
AFNE01.JPG,AFNE01.JPG,AFNE01.JPG,AFNE01.JPG,AFNE01.JPG,AFNE01.JPG,,,,,,,,,5,4,54,9,,,,,,,,,,,,,,,AMNE20.jpg,AMSA04.jpg,AMNE13.jpg,AMSA01.jpg,AMSA01.jpg,MS,2,num_4,16,num_4,0.716834910883,,,2017_Oct_04_1115,60.0081414919,MAFE4ImagesEEG,001,101914,
AFNE01.JPG,AFNE01.JPG,AFNE01.JPG,AFNE01.JPG,AFNE01.JPG,AFNE01.JPG,,,,,,,,,5,5,55,0,,,,,,,,,,,,,,,AMNE10.jpg,AMSA17.jpg,AMSA03.jpg,AMNE20.jpg,AMNE10.jpg,MN,1,num_8,32,num_4,0.866640430118,,,2017_Oct_04_1115,60.0081414919,MAFE4ImagesEEG,001,101914,
AFNE01.JPG,AFNE01.JPG,AFNE01.JPG,AFNE01.JPG,AFNE01.JPG,AFNE01.JPG,,,,,,,,,5,6,56,1,,,,,,,,,,,,,,,AMNE13.jpg,AMSA18.jpg,AMSA02.jpg,AMNE10.jpg,AMNE10.jpg,MN,1,num_4,32,num_8,1.15007494093,,,2017_Oct_04_1115,60.0081414919,MAFE4ImagesEEG,001,101914,
AFNE01.JPG,AFNE01.JPG,AFNE01.JPG,AFNE01.JPG,AFNE01.JPG,AFNE01.JPG,,,,,,,,,5,7,57,2,,,,,,,,,,,,,,,AMSA04.jpg,AMNE20.jpg,AMNE01.jpg,AMSA11.jpg,AMNE01.jpg,MN,1,num_2,16,num_2,0.916751903351,,,2017_Oct_04_1115,60.0081414919,MAFE4ImagesEEG,001,101914,
AFNE01.JPG,AFNE01.JPG,AFNE01.JPG,AFNE01.JPG,AFNE01.JPG,AFNE01.JPG,,,,,,,,,5,8,58,8,,,,,,,,,,,,,,,AMSA05.jpg,AMNE17.jpg,AMNE04.jpg,AMSA08.jpg,AMSA05.jpg,MS,2,num_8,32,num_2,0.966742457545,,,2017_Oct_04_1115,60.0081414919,MAFE4ImagesEEG,001,101914,
AFNE01.JPG,AFNE01.JPG,AFNE01.JPG,AFNE01.JPG,AFNE01.JPG,AFNE01.JPG,,,,,,,,,5,9,59,4,,,,,,,,,,,,,,,AMNE15.jpg,AMSA10.jpg,AMNE13.jpg,AMSA18.jpg,AMNE15.jpg,MN,1,num_8,32,num_2,0.950298753378,,,2017_Oct_04_1115,60.0081414919,MAFE4ImagesEEG,001,101914,
,,,,,,,,,,,,,,,,,,,,,,,,,,,,,,,,,,,,,,,,,,,space,5.29987853572,2017_Oct_04_1115,60.0081414919,MAFE4ImagesEEG,001,101914,
AFNE01.JPG,AFNE01.JPG,AFNE01.JPG,AFNE01.JPG,AFNE01.JPG,AFNE01.JPG,,,,,,,,,,,,,0,0,0,4,,,,,,,,,,,AFSA10.jpg,AFNE03.jpg,AFNE15.jpg,AFSA20.jpg,AFSA10.jpg,FS,4,num_8,32,num_4,1.11677570228,,,2017_Oct_04_1115,60.0081414919,MAFE4ImagesEEG,001,101914,
AFNE01.JPG,AFNE01.JPG,AFNE01.JPG,AFNE01.JPG,AFNE01.JPG,AFNE01.JPG,,,,,,,,,,,,,0,1,1,0,,,,,,,,,,,AFSA15.jpg,AFSA01.jpg,AFNE19.jpg,AFNE14.jpg,AFSA01.jpg,FS,4,num_6,16,num_6,1.23342503293,,,2017_Oct_04_1115,60.0081414919,MAFE4ImagesEEG,001,101914,
AFNE01.JPG,AFNE01.JPG,AFNE01.JPG,AFNE01.JPG,AFNE01.JPG,AFNE01.JPG,,,,,,,,,,,,,0,2,2,1,,,,,,,,,,,AFSA16.jpg,AFSA02.jpg,AFNE08.jpg,AFNE18.jpg,AFNE08.jpg,FN,3,num_2,16,num_2,0.966787361176,,,2017_Oct_04_1115,60.0081414919,MAFE4ImagesEEG,001,101914,
AFNE01.JPG,AFNE01.JPG,AFNE01.JPG,AFNE01.JPG,AFNE01.JPG,AFNE01.JPG,,,,,,,,,,,,,0,3,3,5,,,,,,,,,,,AFSA15.jpg,AFNE08.jpg,AFSA05.jpg,AFNE14.jpg,AFSA15.jpg,FS,4,num_8,16,num_8,0.950087385645,,,2017_Oct_04_1115,60.0081414919,MAFE4ImagesEEG,001,101914,
AFNE01.JPG,AFNE01.JPG,AFNE01.JPG,AFNE01.JPG,AFNE01.JPG,AFNE01.JPG,,,,,,,,,,,,,0,4,4,3,,,,,,,,,,,AFNE13.jpg,AFSA10.jpg,AFNE05.jpg,AFSA03.jpg,AFSA03.jpg,FS,4,num_4,16,num_4,0.70011408726,,,2017_Oct_04_1115,60.0081414919,MAFE4ImagesEEG,001,101914,
AFNE01.JPG,AFNE01.JPG,AFNE01.JPG,AFNE01.JPG,AFNE01.JPG,AFNE01.JPG,,,,,,,,,,,,,0,5,5,6,,,,,,,,,,,AFSA16.jpg,AFSA19.jpg,AFNE11.jpg,AFNE08.jpg,AFSA16.jpg,FS,4,num_8,16,num_8,0.850109163905,,,2017_Oct_04_1115,60.0081414919,MAFE4ImagesEEG,001,101914,
AFNE01.JPG,AFNE01.JPG,AFNE01.JPG,AFNE01.JPG,AFNE01.JPG,AFNE01.JPG,,,,,,,,,,,,,0,6,6,8,,,,,,,,,,,AFNE08.jpg,AFNE11.jpg,AFSA03.jpg,AFSA10.jpg,AFNE11.jpg,FN,3,num_6,32,num_8,1.18340721582,,,2017_Oct_04_1115,60.0081414919,MAFE4ImagesEEG,001,101914,
AFNE01.JPG,AFNE01.JPG,AFNE01.JPG,AFNE01.JPG,AFNE01.JPG,AFNE01.JPG,,,,,,,,,,,,,0,7,7,9,,,,,,,,,,,AFSA14.jpg,AFSA20.jpg,AFNE05.jpg,AFNE06.jpg,AFNE05.jpg,FN,3,num_2,32,num_4,0.833473015664,,,2017_Oct_04_1115,60.0081414919,MAFE4ImagesEEG,001,101914,
AFNE01.JPG,AFNE01.JPG,AFNE01.JPG,AFNE01.JPG,AFNE01.JPG,AFNE01.JPG,,,,,,,,,,,,,0,8,8,2,,,,,,,,,,,AFNE08.jpg,AFSA03.jpg,AFNE06.jpg,AFSA15.jpg,AFNE06.jpg,FN,3,num_2,16,num_2,1.11678436225,,,2017_Oct_04_1115,60.0081414919,MAFE4ImagesEEG,001,101914,
AFNE01.JPG,AFNE01.JPG,AFNE01.JPG,AFNE01.JPG,AFNE01.JPG,AFNE01.JPG,,,,,,,,,,,,,0,9,9,7,,,,,,,,,,,AFSA12.jpg,AFNE18.jpg,AFNE05.jpg,AFSA02.jpg,AFNE05.jpg,FN,3,num_2,32,num_6,1.1501179201,,,2017_Oct_04_1115,60.0081414919,MAFE4ImagesEEG,001,101914,
AFNE01.JPG,AFNE01.JPG,AFNE01.JPG,AFNE01.JPG,AFNE01.JPG,AFNE01.JPG,,,,,,,,,,,,,1,0,10,5,,,,,,,,,,,AFNE01.jpg,AFSA01.jpg,AFNE12.jpg,AFSA13.jpg,AFNE12.jpg,FN,3,num_2,16,num_2,0.766721224558,,,2017_Oct_04_1115,60.0081414919,MAFE4ImagesEEG,001,101914,
AFNE01.JPG,AFNE01.JPG,AFNE01.JPG,AFNE01.JPG,AFNE01.JPG,AFNE01.JPG,,,,,,,,,,,,,1,1,11,6,,,,,,,,,,,AFSA12.jpg,AFNE02.jpg,AFNE06.jpg,AFSA19.jpg,AFSA12.jpg,FS,4,num_8,32,num_4,0.883559150403,,,2017_Oct_04_1115,60.0081414919,MAFE4ImagesEEG,001,101914,
AFNE01.JPG,AFNE01.JPG,AFNE01.JPG,AFNE01.JPG,AFNE01.JPG,AFNE01.JPG,,,,,,,,,,,,,1,2,12,3,,,,,,,,,,,AFNE19.jpg,AFSA12.jpg,AFSA13.jpg,AFNE01.jpg,AFSA13.jpg,FS,4,num_2,32,num_6,0.883136735676,,,2017_Oct_04_1115,60.0081414919,MAFE4ImagesEEG,001,101914,
AFNE01.JPG,AFNE01.JPG,AFNE01.JPG,AFNE01.JPG,AFNE01.JPG,AFNE01.JPG,,,,,,,,,,,,,1,3,13,2,,,,,,,,,,,AFSA09.jpg,AFNE11.jpg,AFSA12.jpg,AFNE18.jpg,AFNE11.jpg,FN,3,num_6,32,num_8,0.900109019567,,,2017_Oct_04_1115,60.0081414919,MAFE4ImagesEEG,001,101914,
AFNE01.JPG,AFNE01.JPG,AFNE01.JPG,AFNE01.JPG,AFNE01.JPG,AFNE01.JPG,,,,,,,,,,,,,1,4,14,0,,,,,,,,,,,AFNE11.jpg,AFSA07.jpg,AFNE14.jpg,AFSA16.jpg,AFSA16.jpg,FS,4,num_4,16,num_4,0.933470161064,,,2017_Oct_04_1115,60.0081414919,MAFE4ImagesEEG,001,101914,
AFNE01.JPG,AFNE01.JPG,AFNE01.JPG,AFNE01.JPG,AFNE01.JPG,AFNE01.JPG,,,,,,,,,,,,,1,5,15,9,,,,,,,,,,,AFSA05.jpg,AFNE04.jpg,AFSA08.jpg,AFNE07.jpg,AFNE04.jpg,FN,3,num_6,16,num_6,0.550002581964,,,2017_Oct_04_1115,60.0081414919,MAFE4ImagesEEG,001,101914,
AFNE01.JPG,AFNE01.JPG,AFNE01.JPG,AFNE01.JPG,AFNE01.JPG,AFNE01.JPG,,,,,,,,,,,,,1,6,16,4,,,,,,,,,,,AFNE06.jpg,AFSA08.jpg,AFSA09.jpg,AFNE02.jpg,AFSA08.jpg,FS,4,num_6,16,num_6,0.80008589421,,,2017_Oct_04_1115,60.0081414919,MAFE4ImagesEEG,001,101914,
AFNE01.JPG,AFNE01.JPG,AFNE01.JPG,AFNE01.JPG,AFNE01.JPG,AFNE01.JPG,,,,,,,,,,,,,1,7,17,7,,,,,,,,,,,AFSA12.jpg,AFSA02.jpg,AFNE06.jpg,AFNE13.jpg,AFNE13.jpg,FN,3,num_4,16,num_4,1.03316581078,,,2017_Oct_04_1115,60.0081414919,MAFE4ImagesEEG,001,101914,
AFNE01.JPG,AFNE01.JPG,AFNE01.JPG,AFNE01.JPG,AFNE01.JPG,AFNE01.JPG,,,,,,,,,,,,,1,8,18,1,,,,,,,,,,,AFNE09.jpg,AFNE05.jpg,AFSA14.jpg,AFSA19.jpg,AFNE09.jpg,FN,3,num_8,32,num_6,0.966733476831,,,2017_Oct_04_1115,60.0081414919,MAFE4ImagesEEG,001,101914,
AFNE01.JPG,AFNE01.JPG,AFNE01.JPG,AFNE01.JPG,AFNE01.JPG,AFNE01.JPG,,,,,,,,,,,,,1,9,19,8,,,,,,,,,,,AFNE02.jpg,AFSA13.jpg,AFNE19.jpg,AFSA02.jpg,AFNE02.jpg,FN,3,num_8,16,num_8,0.950160835127,,,2017_Oct_04_1115,60.0081414919,MAFE4ImagesEEG,001,101914,
AFNE01.JPG,AFNE01.JPG,AFNE01.JPG,AFNE01.JPG,AFNE01.JPG,AFNE01.JPG,,,,,,,,,,,,,2,0,20,5,,,,,,,,,,,AFNE07.jpg,AFSA14.jpg,AFNE14.jpg,AFSA04.jpg,AFNE14.jpg,FN,3,num_2,32,num_8,0.766776071119,,,2017_Oct_04_1115,60.0081414919,MAFE4ImagesEEG,001,101914,
AFNE01.JPG,AFNE01.JPG,AFNE01.JPG,AFNE01.JPG,AFNE01.JPG,AFNE01.JPG,,,,,,,,,,,,,2,1,21,4,,,,,,,,,,,AFNE01.jpg,AFSA08.jpg,AFSA05.jpg,AFNE06.jpg,AFNE01.jpg,FN,3,num_8,32,num_2,1.28347235813,,,2017_Oct_04_1115,60.0081414919,MAFE4ImagesEEG,001,101914,
AFNE01.JPG,AFNE01.JPG,AFNE01.JPG,AFNE01.JPG,AFNE01.JPG,AFNE01.JPG,,,,,,,,,,,,,2,2,22,2,,,,,,,,,,,AFSA17.jpg,AFNE11.jpg,AFSA03.jpg,AFNE02.jpg,AFNE11.jpg,FN,3,num_6,32,num_4,1.78340388012,,,2017_Oct_04_1115,60.0081414919,MAFE4ImagesEEG,001,101914,
AFNE01.JPG,AFNE01.JPG,AFNE01.JPG,AFNE01.JPG,AFNE01.JPG,AFNE01.JPG,,,,,,,,,,,,,2,3,23,9,,,,,,,,,,,AFSA13.jpg,AFNE04.jpg,AFSA04.jpg,AFNE14.jpg,AFSA04.jpg,FS,4,num_2,32,num_6,0.900177016461,,,2017_Oct_04_1115,60.0081414919,MAFE4ImagesEEG,001,101914,
AFNE01.JPG,AFNE01.JPG,AFNE01.JPG,AFNE01.JPG,AFNE01.JPG,AFNE01.JPG,,,,,,,,,,,,,2,4,24,8,,,,,,,,,,,AFNE07.jpg,AFSA07.jpg,AFNE02.jpg,AFSA16.jpg,AFNE02.jpg,FN,3,num_2,16,num_2,1.13348241334,,,2017_Oct_04_1115,60.0081414919,MAFE4ImagesEEG,001,101914,
AFNE01.JPG,AFNE01.JPG,AFNE01.JPG,AFNE01.JPG,AFNE01.JPG,AFNE01.JPG,,,,,,,,,,,,,2,5,25,6,,,,,,,,,,,AFSA17.jpg,AFNE14.jpg,AFSA16.jpg,AFNE20.jpg,AFNE20.jpg,FN,3,num_4,16,num_4,0.933459576641,,,2017_Oct_04_1115,60.0081414919,MAFE4ImagesEEG,001,101914,
AFNE01.JPG,AFNE01.JPG,AFNE01.JPG,AFNE01.JPG,AFNE01.JPG,AFNE01.JPG,,,,,,,,,,,,,2,6,26,0,,,,,,,,,,,AFNE02.jpg,AFSA01.jpg,AFNE06.jpg,AFSA12.jpg,AFNE06.jpg,FN,3,num_2,32,num_8,0.583482718037,,,2017_Oct_04_1115,60.0081414919,MAFE4ImagesEEG,001,101914,
AFNE01.JPG,AFNE01.JPG,AFNE01.JPG,AFNE01.JPG,AFNE01.JPG,AFNE01.JPG,,,,,,,,,,,,,2,7,27,1,,,,,,,,,,,AFNE04.jpg,AFSA06.jpg,AFNE06.jpg,AFSA07.jpg,AFNE06.jpg,FN,3,num_2,16,num_2,0.900131792121,,,2017_Oct_04_1115,60.0081414919,MAFE4ImagesEEG,001,101914,
AFNE01.JPG,AFNE01.JPG,AFNE01.JPG,AFNE01.JPG,AFNE01.JPG,AFNE01.JPG,,,,,,,,,,,,,2,8,28,7,,,,,,,,,,,AFNE10.jpg,AFNE11.jpg,AFSA05.jpg,AFSA14.jpg,AFSA14.jpg,FS,4,num_4,32,num_8,0.833138162983,,,2017_Oct_04_1115,60.0081414919,MAFE4ImagesEEG,001,101914,
AFNE01.JPG,AFNE01.JPG,AFNE01.JPG,AFNE01.JPG,AFNE01.JPG,AFNE01.JPG,,,,,,,,,,,,,2,9,29,3,,,,,,,,,,,AFSA20.jpg,AFNE09.jpg,AFSA05.jpg,AFNE12.jpg,AFSA20.jpg,FS,4,num_8,32,num_6,1.51672611585,,,2017_Oct_04_1115,60.0081414919,MAFE4ImagesEEG,001,101914,
AFNE01.JPG,AFNE01.JPG,AFNE01.JPG,AFNE01.JPG,AFNE01.JPG,AFNE01.JPG,,,,,,,,,,,,,3,0,30,0,,,,,,,,,,,AFSA02.jpg,AFSA12.jpg,AFNE12.jpg,AFNE02.jpg,AFSA02.jpg,FS,4,num_8,32,num_6,0.816780417153,,,2017_Oct_04_1115,60.0081414919,MAFE4ImagesEEG,001,101914,
AFNE01.JPG,AFNE01.JPG,AFNE01.JPG,AFNE01.JPG,AFNE01.JPG,AFNE01.JPG,,,,,,,,,,,,,3,1,31,1,,,,,,,,,,,AFSA14.jpg,AFNE18.jpg,AFSA12.jpg,AFNE02.jpg,AFNE18.jpg,FN,3,num_6,32,num_4,1.43366533142,,,2017_Oct_04_1115,60.0081414919,MAFE4ImagesEEG,001,101914,
AFNE01.JPG,AFNE01.JPG,AFNE01.JPG,AFNE01.JPG,AFNE01.JPG,AFNE01.JPG,,,,,,,,,,,,,3,2,32,9,,,,,,,,,,,AFNE12.jpg,AFNE11.jpg,AFSA02.jpg,AFSA16.jpg,AFNE12.jpg,FN,3,num_8,32,num_6,1.8833968559,,,2017_Oct_04_1115,60.0081414919,MAFE4ImagesEEG,001,101914,
AFNE01.JPG,AFNE01.JPG,AFNE01.JPG,AFNE01.JPG,AFNE01.JPG,AFNE01.JPG,,,,,,,,,,,,,3,3,33,6,,,,,,,,,,,AFSA11.jpg,AFNE15.jpg,AFSA08.jpg,AFNE17.jpg,AFNE15.jpg,FN,3,num_6,32,num_8,1.76671480975,,,2017_Oct_04_1115,60.0081414919,MAFE4ImagesEEG,001,101914,
AFNE01.JPG,AFNE01.JPG,AFNE01.JPG,AFNE01.JPG,AFNE01.JPG,AFNE01.JPG,,,,,,,,,,,,,3,4,34,7,,,,,,,,,,,AFNE20.jpg,AFSA13.jpg,AFNE12.jpg,AFSA01.jpg,AFSA01.jpg,FS,4,num_4,32,num_2,1.05013264208,,,2017_Oct_04_1115,60.0081414919,MAFE4ImagesEEG,001,101914,
AFNE01.JPG,AFNE01.JPG,AFNE01.JPG,AFNE01.JPG,AFNE01.JPG,AFNE01.JPG,,,,,,,,,,,,,3,5,35,3,,,,,,,,,,,AFSA06.jpg,AFNE19.jpg,AFSA11.jpg,AFNE11.jpg,AFNE19.jpg,FN,3,num_6,32,num_8,1.00012444716,,,2017_Oct_04_1115,60.0081414919,MAFE4ImagesEEG,001,101914,
AFNE01.JPG,AFNE01.JPG,AFNE01.JPG,AFNE01.JPG,AFNE01.JPG,AFNE01.JPG,,,,,,,,,,,,,3,6,36,5,,,,,,,,,,,AFNE05.jpg,AFSA15.jpg,AFNE08.jpg,AFSA16.jpg,AFSA15.jpg,FS,4,num_6,32,num_4,1.26675025154,,,2017_Oct_04_1115,60.0081414919,MAFE4ImagesEEG,001,101914,
AFNE01.JPG,AFNE01.JPG,AFNE01.JPG,AFNE01.JPG,AFNE01.JPG,AFNE01.JPG,,,,,,,,,,,,,3,7,37,2,,,,,,,,,,,AFSA09.jpg,AFSA17.jpg,AFNE06.jpg,AFNE08.jpg,AFNE06.jpg,FN,3,num_2,16,num_2,0.966740212374,,,2017_Oct_04_1115,60.0081414919,MAFE4ImagesEEG,001,101914,
AFNE01.JPG,AFNE01.JPG,AFNE01.JPG,AFNE01.JPG,AFNE01.JPG,AFNE01.JPG,,,,,,,,,,,,,3,8,38,8,,,,,,,,,,,AFSA06.jpg,AFSA08.jpg,AFNE17.jpg,AFNE10.jpg,AFSA06.jpg,FS,4,num_8,16,num_8,0.650145984866,,,2017_Oct_04_1115,60.0081414919,MAFE4ImagesEEG,001,101914,
AFNE01.JPG,AFNE01.JPG,AFNE01.JPG,AFNE01.JPG,AFNE01.JPG,AFNE01.JPG,,,,,,,,,,,,,3,9,39,4,,,,,,,,,,,AFSA13.jpg,AFSA05.jpg,AFNE20.jpg,AFNE14.jpg,AFNE14.jpg,FN,3,num_4,32,num_8,1.25009710406,,,2017_Oct_04_1115,60.0081414919,MAFE4ImagesEEG,001,101914,
AFNE01.JPG,AFNE01.JPG,AFNE01.JPG,AFNE01.JPG,AFNE01.JPG,AFNE01.JPG,,,,,,,,,,,,,4,0,40,9,,,,,,,,,,,AFNE06.jpg,AFNE17.jpg,AFSA01.jpg,AFSA19.jpg,AFNE06.jpg,FN,3,num_8,16,num_8,0.883437910641,,,2017_Oct_04_1115,60.0081414919,MAFE4ImagesEEG,001,101914,
AFNE01.JPG,AFNE01.JPG,AFNE01.JPG,AFNE01.JPG,AFNE01.JPG,AFNE01.JPG,,,,,,,,,,,,,4,1,41,2,,,,,,,,,,,AFSA19.jpg,AFNE13.jpg,AFSA09.jpg,AFNE20.jpg,AFNE13.jpg,FN,3,num_6,16,num_6,0.666804905661,,,2017_Oct_04_1115,60.0081414919,MAFE4ImagesEEG,001,101914,
AFNE01.JPG,AFNE01.JPG,AFNE01.JPG,AFNE01.JPG,AFNE01.JPG,AFNE01.JPG,,,,,,,,,,,,,4,2,42,5,,,,,,,,,,,AFNE07.jpg,AFSA06.jpg,AFSA03.jpg,AFNE14.jpg,AFNE14.jpg,FN,3,num_4,16,num_4,0.866756217307,,,2017_Oct_04_1115,60.0081414919,MAFE4ImagesEEG,001,101914,
AFNE01.JPG,AFNE01.JPG,AFNE01.JPG,AFNE01.JPG,AFNE01.JPG,AFNE01.JPG,,,,,,,,,,,,,4,3,43,8,,,,,,,,,,,AFNE02.jpg,AFSA13.jpg,AFNE19.jpg,AFSA05.jpg,AFSA13.jpg,FS,4,num_6,16,num_6,0.600170826176,,,2017_Oct_04_1115,60.0081414919,MAFE4ImagesEEG,001,101914,
AFNE01.JPG,AFNE01.JPG,AFNE01.JPG,AFNE01.JPG,AFNE01.JPG,AFNE01.JPG,,,,,,,,,,,,,4,4,44,6,,,,,,,,,,,AFSA14.jpg,AFNE14.jpg,AFSA20.jpg,AFNE20.jpg,AFSA14.jpg,FS,4,num_8,32,num_4,0.716805723554,,,2017_Oct_04_1115,60.0081414919,MAFE4ImagesEEG,001,101914,
AFNE01.JPG,AFNE01.JPG,AFNE01.JPG,AFNE01.JPG,AFNE01.JPG,AFNE01.JPG,,,,,,,,,,,,,4,5,45,3,,,,,,,,,,,AFSA15.jpg,AFNE12.jpg,AFSA18.jpg,AFNE19.jpg,AFNE12.jpg,FN,3,num_6,32,num_8,0.766743676373,,,2017_Oct_04_1115,60.0081414919,MAFE4ImagesEEG,001,101914,
AFNE01.JPG,AFNE01.JPG,AFNE01.JPG,AFNE01.JPG,AFNE01.JPG,AFNE01.JPG,,,,,,,,,,,,,4,6,46,1,,,,,,,,,,,AFNE06.jpg,AFSA14.jpg,AFSA02.jpg,AFNE17.jpg,AFNE17.jpg,FN,3,num_4,32,num_6,0.750077057804,,,2017_Oct_04_1115,60.0081414919,MAFE4ImagesEEG,001,101914,
AFNE01.JPG,AFNE01.JPG,AFNE01.JPG,AFNE01.JPG,AFNE01.JPG,AFNE01.JPG,,,,,,,,,,,,,4,7,47,7,,,,,,,,,,,AFSA01.jpg,AFNE13.jpg,AFSA16.jpg,AFNE15.jpg,AFNE15.jpg,FN,3,num_4,16,num_4,0.733496718356,,,2017_Oct_04_1115,60.0081414919,MAFE4ImagesEEG,001,101914,
AFNE01.JPG,AFNE01.JPG,AFNE01.JPG,AFNE01.JPG,AFNE01.JPG,AFNE01.JPG,,,,,,,,,,,,,4,8,48,4,,,,,,,,,,,AFSA01.jpg,AFNE09.jpg,AFNE05.jpg,AFSA02.jpg,AFNE09.jpg,FN,3,num_6,16,num_6,0.700138142769,,,2017_Oct_04_1115,60.0081414919,MAFE4ImagesEEG,001,101914,
AFNE01.JPG,AFNE01.JPG,AFNE01.JPG,AFNE01.JPG,AFNE01.JPG,AFNE01.JPG,,,,,,,,,,,,,4,9,49,0,,,,,,,,,,,AFSA03.jpg,AFNE15.jpg,AFSA10.jpg,AFNE20.jpg,AFNE15.jpg,FN,3,num_6,32,num_4,0.883505266072,,,2017_Oct_04_1115,60.0081414919,MAFE4ImagesEEG,001,101914,
AFNE01.JPG,AFNE01.JPG,AFNE01.JPG,AFNE01.JPG,AFNE01.JPG,AFNE01.JPG,,,,,,,,,,,,,5,0,50,6,,,,,,,,,,,AFNE05.jpg,AFNE15.jpg,AFSA05.jpg,AFSA01.jpg,AFSA01.jpg,FS,4,num_4,16,num_4,0.783562005003,,,2017_Oct_04_1115,60.0081414919,MAFE4ImagesEEG,001,101914,
AFNE01.JPG,AFNE01.JPG,AFNE01.JPG,AFNE01.JPG,AFNE01.JPG,AFNE01.JPG,,,,,,,,,,,,,5,1,51,4,,,,,,,,,,,AFSA10.jpg,AFSA08.jpg,AFNE16.jpg,AFNE09.jpg,AFNE16.jpg,FN,3,num_2,32,num_8,0.650139249323,,,2017_Oct_04_1115,60.0081414919,MAFE4ImagesEEG,001,101914,
AFNE01.JPG,AFNE01.JPG,AFNE01.JPG,AFNE01.JPG,AFNE01.JPG,AFNE01.JPG,,,,,,,,,,,,,5,2,52,7,,,,,,,,,,,AFNE09.jpg,AFSA20.jpg,AFSA03.jpg,AFNE13.jpg,AFNE13.jpg,FN,3,num_4,32,num_2,1.16681468823,,,2017_Oct_04_1115,60.0081414919,MAFE4ImagesEEG,001,101914,
AFNE01.JPG,AFNE01.JPG,AFNE01.JPG,AFNE01.JPG,AFNE01.JPG,AFNE01.JPG,,,,,,,,,,,,,5,3,53,5,,,,,,,,,,,AFNE08.jpg,AFSA15.jpg,AFNE05.jpg,AFSA05.jpg,AFNE08.jpg,FN,3,num_8,16,num_8,0.666790472358,,,2017_Oct_04_1115,60.0081414919,MAFE4ImagesEEG,001,101914,
AFNE01.JPG,AFNE01.JPG,AFNE01.JPG,AFNE01.JPG,AFNE01.JPG,AFNE01.JPG,,,,,,,,,,,,,5,4,54,8,,,,,,,,,,,AFSA09.jpg,AFSA18.jpg,AFNE02.jpg,AFNE17.jpg,AFSA09.jpg,FS,4,num_8,16,num_8,0.93343103076,,,2017_Oct_04_1115,60.0081414919,MAFE4ImagesEEG,001,101914,
AFNE01.JPG,AFNE01.JPG,AFNE01.JPG,AFNE01.JPG,AFNE01.JPG,AFNE01.JPG,,,,,,,,,,,,,5,5,55,3,,,,,,,,,,,AFNE10.jpg,AFSA06.jpg,AFSA18.jpg,AFNE13.jpg,AFSA18.jpg,FS,4,num_2,16,num_2,0.783455519282,,,2017_Oct_04_1115,60.0081414919,MAFE4ImagesEEG,001,101914,
AFNE01.JPG,AFNE01.JPG,AFNE01.JPG,AFNE01.JPG,AFNE01.JPG,AFNE01.JPG,,,,,,,,,,,,,5,6,56,0,,,,,,,,,,,AFSA18.jpg,AFSA13.jpg,AFNE04.jpg,AFNE14.jpg,AFSA18.jpg,FS,4,num_8,32,num_6,0.983470337465,,,2017_Oct_04_1115,60.0081414919,MAFE4ImagesEEG,001,101914,
AFNE01.JPG,AFNE01.JPG,AFNE01.JPG,AFNE01.JPG,AFNE01.JPG,AFNE01.JPG,,,,,,,,,,,,,5,7,57,2,,,,,,,,,,,AFSA03.jpg,AFNE17.jpg,AFNE02.jpg,AFSA05.jpg,AFSA03.jpg,FS,4,num_8,16,num_8,0.866773537273,,,2017_Oct_04_1115,60.0081414919,MAFE4ImagesEEG,001,101914,
AFNE01.JPG,AFNE01.JPG,AFNE01.JPG,AFNE01.JPG,AFNE01.JPG,AFNE01.JPG,,,,,,,,,,,,,5,8,58,1,,,,,,,,,,,AFNE14.jpg,AFSA04.jpg,AFSA06.jpg,AFNE20.jpg,AFSA06.jpg,FS,4,num_2,32,num_6,0.916758318155,,,2017_Oct_04_1115,60.0081414919,MAFE4ImagesEEG,001,101914,
AFNE01.JPG,AFNE01.JPG,AFNE01.JPG,AFNE01.JPG,AFNE01.JPG,AFNE01.JPG,,,,,,,,,,,,,5,9,59,9,,,,,,,,,,,AFNE11.jpg,AFNE09.jpg,AFSA18.jpg,AFSA17.jpg,AFSA17.jpg,FS,4,num_4,16,num_4,0.983398170938,,,2017_Oct_04_1115,60.0081414919,MAFE4ImagesEEG,001,101914,
,,,,,,,,,,,,,,,,,,,,,,,,,,,,,,,,,,,,,,,,,,,space,3.08327600104,2017_Oct_04_1115,60.0081414919,MAFE4ImagesEEG,001,101914,
AFNE01.JPG,AFNE01.JPG,AFNE01.JPG,AFNE01.JPG,AFNE01.JPG,AFNE01.JPG,,,,,,,,,,,,,,,,,0,0,0,3,,,,,,,AMSA10.jpg,AMNE19.jpg,AMNE08.jpg,AMSA15.jpg,AMSA10.jpg,MS,2,num_8,16,num_8,1.08342225853,,,2017_Oct_04_1115,60.0081414919,MAFE4ImagesEEG,001,101914,
AFNE01.JPG,AFNE01.JPG,AFNE01.JPG,AFNE01.JPG,AFNE01.JPG,AFNE01.JPG,,,,,,,,,,,,,,,,,0,1,1,1,,,,,,,AMNE09.jpg,AMSA09.jpg,AMNE07.jpg,AMSA07.jpg,AMSA07.jpg,MS,2,num_4,32,num_6,0.850108843151,,,2017_Oct_04_1115,60.0081414919,MAFE4ImagesEEG,001,101914,
AFNE01.JPG,AFNE01.JPG,AFNE01.JPG,AFNE01.JPG,AFNE01.JPG,AFNE01.JPG,,,,,,,,,,,,,,,,,0,2,2,4,,,,,,,AMSA05.jpg,AMNE15.jpg,AMNE08.jpg,AMSA15.jpg,AMSA05.jpg,MS,2,num_8,16,num_8,0.666771227945,,,2017_Oct_04_1115,60.0081414919,MAFE4ImagesEEG,001,101914,
AFNE01.JPG,AFNE01.JPG,AFNE01.JPG,AFNE01.JPG,AFNE01.JPG,AFNE01.JPG,,,,,,,,,,,,,,,,,0,3,3,6,,,,,,,AMNE17.jpg,AMNE10.jpg,AMSA17.jpg,AMSA04.jpg,AMNE17.jpg,MN,1,num_8,16,num_8,1.50006430839,,,2017_Oct_04_1115,60.0081414919,MAFE4ImagesEEG,001,101914,
AFNE01.JPG,AFNE01.JPG,AFNE01.JPG,AFNE01.JPG,AFNE01.JPG,AFNE01.JPG,,,,,,,,,,,,,,,,,0,4,4,5,,,,,,,AMSA04.jpg,AMNE02.jpg,AMNE07.jpg,AMSA08.jpg,AMNE07.jpg,MN,1,num_2,16,num_2,0.966749834581,,,2017_Oct_04_1115,60.0081414919,MAFE4ImagesEEG,001,101914,
AFNE01.JPG,AFNE01.JPG,AFNE01.JPG,AFNE01.JPG,AFNE01.JPG,AFNE01.JPG,,,,,,,,,,,,,,,,,0,5,5,2,,,,,,,AMSA10.jpg,AMSA04.jpg,AMNE01.jpg,AMNE08.jpg,AMNE01.jpg,MN,1,num_2,16,num_2,1.23346288026,,,2017_Oct_04_1115,60.0081414919,MAFE4ImagesEEG,001,101914,
AFNE01.JPG,AFNE01.JPG,AFNE01.JPG,AFNE01.JPG,AFNE01.JPG,AFNE01.JPG,,,,,,,,,,,,,,,,,0,6,6,9,,,,,,,AMNE09.jpg,AMNE14.jpg,AMSA13.jpg,AMSA12.jpg,AMNE09.jpg,MN,1,num_8,16,num_8,2.11665478324,,,2017_Oct_04_1115,60.0081414919,MAFE4ImagesEEG,001,101914,
AFNE01.JPG,AFNE01.JPG,AFNE01.JPG,AFNE01.JPG,AFNE01.JPG,AFNE01.JPG,,,,,,,,,,,,,,,,,0,7,7,0,,,,,,,AMNE14.jpg,AMNE01.jpg,AMSA20.jpg,AMSA09.jpg,AMNE01.jpg,MN,1,num_6,16,num_6,0.833385453603,,,2017_Oct_04_1115,60.0081414919,MAFE4ImagesEEG,001,101914,
AFNE01.JPG,AFNE01.JPG,AFNE01.JPG,AFNE01.JPG,AFNE01.JPG,AFNE01.JPG,,,,,,,,,,,,,,,,,0,8,8,7,,,,,,,AMSA08.jpg,AMNE11.jpg,AMNE01.jpg,AMSA14.jpg,AMSA08.jpg,MS,2,num_8,16,num_8,1.40005786151,,,2017_Oct_04_1115,60.0081414919,MAFE4ImagesEEG,001,101914,
AFNE01.JPG,AFNE01.JPG,AFNE01.JPG,AFNE01.JPG,AFNE01.JPG,AFNE01.JPG,,,,,,,,,,,,,,,,,0,9,9,8,,,,,,,AMNE09.jpg,AMSA14.jpg,AMSA07.jpg,AMNE02.jpg,AMNE09.jpg,MN,1,num_8,32,num_4,0.6501398908,,,2017_Oct_04_1115,60.0081414919,MAFE4ImagesEEG,001,101914,
AFNE01.JPG,AFNE01.JPG,AFNE01.JPG,AFNE01.JPG,AFNE01.JPG,AFNE01.JPG,,,,,,,,,,,,,,,,,1,0,10,0,,,,,,,AMNE20.jpg,AMSA20.jpg,AMSA15.jpg,AMNE06.jpg,AMSA15.jpg,MS,2,num_2,16,num_2,0.933471764773,,,2017_Oct_04_1115,60.0081414919,MAFE4ImagesEEG,001,101914,
AFNE01.JPG,AFNE01.JPG,AFNE01.JPG,AFNE01.JPG,AFNE01.JPG,AFNE01.JPG,,,,,,,,,,,,,,,,,1,1,11,7,,,,,,,AMNE01.jpg,AMNE02.jpg,AMSA12.jpg,AMSA19.jpg,AMNE01.jpg,MN,1,num_8,16,num_8,1.03339546069,,,2017_Oct_04_1115,60.0081414919,MAFE4ImagesEEG,001,101914,
AFNE01.JPG,AFNE01.JPG,AFNE01.JPG,AFNE01.JPG,AFNE01.JPG,AFNE01.JPG,,,,,,,,,,,,,,,,,1,2,12,2,,,,,,,AMSA04.jpg,AMNE04.jpg,AMSA11.jpg,AMNE10.jpg,AMNE04.jpg,MN,1,num_6,16,num_6,0.683429186523,,,2017_Oct_04_1115,60.0081414919,MAFE4ImagesEEG,001,101914,
AFNE01.JPG,AFNE01.JPG,AFNE01.JPG,AFNE01.JPG,AFNE01.JPG,AFNE01.JPG,,,,,,,,,,,,,,,,,1,3,13,8,,,,,,,AMNE02.jpg,AMSA13.jpg,AMSA04.jpg,AMNE14.jpg,AMNE02.jpg,MN,1,num_8,16,num_8,0.833473977866,,,2017_Oct_04_1115,60.0081414919,MAFE4ImagesEEG,001,101914,
AFNE01.JPG,AFNE01.JPG,AFNE01.JPG,AFNE01.JPG,AFNE01.JPG,AFNE01.JPG,,,,,,,,,,,,,,,,,1,4,14,3,,,,,,,AMSA18.jpg,AMNE11.jpg,AMNE08.jpg,AMSA20.jpg,AMSA20.jpg,MS,2,num_4,32,num_8,0.700100616174,,,2017_Oct_04_1115,60.0081414919,MAFE4ImagesEEG,001,101914,
AFNE01.JPG,AFNE01.JPG,AFNE01.JPG,AFNE01.JPG,AFNE01.JPG,AFNE01.JPG,,,,,,,,,,,,,,,,,1,5,15,6,,,,,,,AMNE03.jpg,AMSA01.jpg,AMNE09.jpg,AMSA19.jpg,AMSA01.jpg,MS,2,num_6,16,num_6,1.68338460365,,,2017_Oct_04_1115,60.0081414919,MAFE4ImagesEEG,001,101914,
AFNE01.JPG,AFNE01.JPG,AFNE01.JPG,AFNE01.JPG,AFNE01.JPG,AFNE01.JPG,,,,,,,,,,,,,,,,,1,6,16,1,,,,,,,AMSA20.jpg,AMNE16.jpg,AMNE06.jpg,AMSA06.jpg,AMSA20.jpg,MS,2,num_8,16,num_8,0.833443507567,,,2017_Oct_04_1115,60.0081414919,MAFE4ImagesEEG,001,101914,
AFNE01.JPG,AFNE01.JPG,AFNE01.JPG,AFNE01.JPG,AFNE01.JPG,AFNE01.JPG,,,,,,,,,,,,,,,,,1,7,17,9,,,,,,,AMNE04.jpg,AMSA09.jpg,AMSA03.jpg,AMNE03.jpg,AMSA03.jpg,MS,2,num_2,16,num_2,0.966724175363,,,2017_Oct_04_1115,60.0081414919,MAFE4ImagesEEG,001,101914,
AFNE01.JPG,AFNE01.JPG,AFNE01.JPG,AFNE01.JPG,AFNE01.JPG,AFNE01.JPG,,,,,,,,,,,,,,,,,1,8,18,5,,,,,,,AMSA19.jpg,AMNE03.jpg,AMNE19.jpg,AMSA20.jpg,AMSA20.jpg,MS,2,num_4,16,num_4,0.650120325648,,,2017_Oct_04_1115,60.0081414919,MAFE4ImagesEEG,001,101914,
AFNE01.JPG,AFNE01.JPG,AFNE01.JPG,AFNE01.JPG,AFNE01.JPG,AFNE01.JPG,,,,,,,,,,,,,,,,,1,9,19,4,,,,,,,AMNE13.jpg,AMSA17.jpg,AMNE16.jpg,AMSA05.jpg,AMNE13.jpg,MN,1,num_8,32,num_4,1.30008509236,,,2017_Oct_04_1115,60.0081414919,MAFE4ImagesEEG,001,101914,
AFNE01.JPG,AFNE01.JPG,AFNE01.JPG,AFNE01.JPG,AFNE01.JPG,AFNE01.JPG,,,,,,,,,,,,,,,,,2,0,20,1,,,,,,,AMSA08.jpg,AMNE14.jpg,AMSA17.jpg,AMNE06.jpg,AMSA08.jpg,MS,2,num_8,32,num_2,1.11674811863,,,2017_Oct_04_1115,60.0081414919,MAFE4ImagesEEG,001,101914,
AFNE01.JPG,AFNE01.JPG,AFNE01.JPG,AFNE01.JPG,AFNE01.JPG,AFNE01.JPG,,,,,,,,,,,,,,,,,2,1,21,2,,,,,,,AMSA08.jpg,AMNE15.jpg,AMSA14.jpg,AMNE11.jpg,AMNE11.jpg,MN,1,num_4,16,num_4,1.11679077706,,,2017_Oct_04_1115,60.0081414919,MAFE4ImagesEEG,001,101914,
AFNE01.JPG,AFNE01.JPG,AFNE01.JPG,AFNE01.JPG,AFNE01.JPG,AFNE01.JPG,,,,,,,,,,,,,,,,,2,2,22,0,,,,,,,AMSA08.jpg,AMNE10.jpg,AMNE17.jpg,AMSA18.jpg,AMSA18.jpg,MS,2,num_4,32,num_8,1.85003154479,,,2017_Oct_04_1115,60.0081414919,MAFE4ImagesEEG,001,101914,
AFNE01.JPG,AFNE01.JPG,AFNE01.JPG,AFNE01.JPG,AFNE01.JPG,AFNE01.JPG,,,,,,,,,,,,,,,,,2,3,23,7,,,,,,,AMSA10.jpg,AMNE03.jpg,AMSA11.jpg,AMNE04.jpg,AMNE03.jpg,MN,1,num_6,32,num_4,1.01683019601,,,2017_Oct_04_1115,60.0081414919,MAFE4ImagesEEG,001,101914,
AFNE01.JPG,AFNE01.JPG,AFNE01.JPG,AFNE01.JPG,AFNE01.JPG,AFNE01.JPG,,,,,,,,,,,,,,,,,2,4,24,8,,,,,,,AMNE13.jpg,AMNE11.jpg,AMSA09.jpg,AMSA19.jpg,AMNE13.jpg,MN,1,num_8,32,num_2,0.933392862702,,,2017_Oct_04_1115,60.0081414919,MAFE4ImagesEEG,001,101914,
AFNE01.JPG,AFNE01.JPG,AFNE01.JPG,AFNE01.JPG,AFNE01.JPG,AFNE01.JPG,,,,,,,,,,,,,,,,,2,5,25,6,,,,,,,AMSA20.jpg,AMNE04.jpg,AMNE03.jpg,AMSA10.jpg,AMSA20.jpg,MS,2,num_8,16,num_8,0.783489838475,,,2017_Oct_04_1115,60.0081414919,MAFE4ImagesEEG,001,101914,
AFNE01.JPG,AFNE01.JPG,AFNE01.JPG,AFNE01.JPG,AFNE01.JPG,AFNE01.JPG,,,,,,,,,,,,,,,,,2,6,26,5,,,,,,,AMSA11.jpg,AMNE01.jpg,AMNE13.jpg,AMSA04.jpg,AMNE13.jpg,MN,1,num_2,16,num_2,1.75009822666,,,2017_Oct_04_1115,60.0081414919,MAFE4ImagesEEG,001,101914,
AFNE01.JPG,AFNE01.JPG,AFNE01.JPG,AFNE01.JPG,AFNE01.JPG,AFNE01.JPG,,,,,,,,,,,,,,,,,2,7,27,3,,,,,,,AMNE02.jpg,AMSA17.jpg,AMNE08.jpg,AMSA05.jpg,AMSA17.jpg,MS,2,num_6,16,num_6,1.06681176949,,,2017_Oct_04_1115,60.0081414919,MAFE4ImagesEEG,001,101914,
AFNE01.JPG,AFNE01.JPG,AFNE01.JPG,AFNE01.JPG,AFNE01.JPG,AFNE01.JPG,,,,,,,,,,,,,,,,,2,8,28,9,,,,,,,AMNE03.jpg,AMNE01.jpg,AMSA18.jpg,AMSA06.jpg,AMSA06.jpg,MS,2,num_4,32,num_2,0.866639147163,,,2017_Oct_04_1115,60.0081414919,MAFE4ImagesEEG,001,101914,
AFNE01.JPG,AFNE01.JPG,AFNE01.JPG,AFNE01.JPG,AFNE01.JPG,AFNE01.JPG,,,,,,,,,,,,,,,,,2,9,29,4,,,,,,,AMNE15.jpg,AMNE18.jpg,AMSA06.jpg,AMSA12.jpg,AMSA06.jpg,MS,2,num_2,16,num_2,1.25011666921,,,2017_Oct_04_1115,60.0081414919,MAFE4ImagesEEG,001,101914,
AFNE01.JPG,AFNE01.JPG,AFNE01.JPG,AFNE01.JPG,AFNE01.JPG,AFNE01.JPG,,,,,,,,,,,,,,,,,3,0,30,1,,,,,,,AMNE15.jpg,AMSA13.jpg,AMSA18.jpg,AMNE17.jpg,AMNE15.jpg,MN,1,num_8,16,num_8,0.633429330861,,,2017_Oct_04_1115,60.0081414919,MAFE4ImagesEEG,001,101914,
AFNE01.JPG,AFNE01.JPG,AFNE01.JPG,AFNE01.JPG,AFNE01.JPG,AFNE01.JPG,,,,,,,,,,,,,,,,,3,1,31,6,,,,,,,AMSA05.jpg,AMNE17.jpg,AMSA17.jpg,AMNE16.jpg,AMSA05.jpg,MS,2,num_8,16,num_8,0.766816484378,,,2017_Oct_04_1115,60.0081414919,MAFE4ImagesEEG,001,101914,
AFNE01.JPG,AFNE01.JPG,AFNE01.JPG,AFNE01.JPG,AFNE01.JPG,AFNE01.JPG,,,,,,,,,,,,,,,,,3,2,32,3,,,,,,,AMSA08.jpg,AMSA01.jpg,AMNE19.jpg,AMNE20.jpg,AMNE19.jpg,MN,1,num_2,16,num_2,1.05000819491,,,2017_Oct_04_1115,60.0081414919,MAFE4ImagesEEG,001,101914,
AFNE01.JPG,AFNE01.JPG,AFNE01.JPG,AFNE01.JPG,AFNE01.JPG,AFNE01.JPG,,,,,,,,,,,,,,,,,3,3,33,5,,,,,,,AMNE04.jpg,AMSA08.jpg,AMNE07.jpg,AMSA02.jpg,AMSA08.jpg,MS,2,num_6,16,num_6,0.683307626008,,,2017_Oct_04_1115,60.0081414919,MAFE4ImagesEEG,001,101914,
AFNE01.JPG,AFNE01.JPG,AFNE01.JPG,AFNE01.JPG,AFNE01.JPG,AFNE01.JPG,,,,,,,,,,,,,,,,,3,4,34,0,,,,,,,AMNE11.jpg,AMNE01.jpg,AMSA15.jpg,AMSA06.jpg,AMNE11.jpg,MN,1,num_8,16,num_8,0.633457876727,,,2017_Oct_04_1115,60.0081414919,MAFE4ImagesEEG,001,101914,
AFNE01.JPG,AFNE01.JPG,AFNE01.JPG,AFNE01.JPG,AFNE01.JPG,AFNE01.JPG,,,,,,,,,,,,,,,,,3,5,35,9,,,,,,,AMNE01.jpg,AMSA07.jpg,AMNE14.jpg,AMSA17.jpg,AMSA17.jpg,MS,2,num_4,32,num_6,1.23342535368,,,2017_Oct_04_1115,60.0081414919,MAFE4ImagesEEG,001,101914,
AFNE01.JPG,AFNE01.JPG,AFNE01.JPG,AFNE01.JPG,AFNE01.JPG,AFNE01.JPG,,,,,,,,,,,,,,,,,3,6,36,2,,,,,,,AMSA05.jpg,AMNE06.jpg,AMNE13.jpg,AMSA11.jpg,AMSA05.jpg,MS,2,num_8,16,num_8,0.68354689813,,,2017_Oct_04_1115,60.0081414919,MAFE4ImagesEEG,001,101914,
AFNE01.JPG,AFNE01.JPG,AFNE01.JPG,AFNE01.JPG,AFNE01.JPG,AFNE01.JPG,,,,,,,,,,,,,,,,,3,7,37,4,,,,,,,AMSA01.jpg,AMNE15.jpg,AMNE20.jpg,AMSA13.jpg,AMNE20.jpg,MN,1,num_2,32,num_4,0.950151854413,,,2017_Oct_04_1115,60.0081414919,MAFE4ImagesEEG,001,101914,
AFNE01.JPG,AFNE01.JPG,AFNE01.JPG,AFNE01.JPG,AFNE01.JPG,AFNE01.JPG,,,,,,,,,,,,,,,,,3,8,38,8,,,,,,,AMNE17.jpg,AMSA03.jpg,AMSA13.jpg,AMNE03.jpg,AMNE03.jpg,MN,1,num_4,32,num_8,1.00001603701,,,2017_Oct_04_1115,60.0081414919,MAFE4ImagesEEG,001,101914,
AFNE01.JPG,AFNE01.JPG,AFNE01.JPG,AFNE01.JPG,AFNE01.JPG,AFNE01.JPG,,,,,,,,,,,,,,,,,3,9,39,7,,,,,,,AMNE05.jpg,AMNE07.jpg,AMSA16.jpg,AMSA10.jpg,AMNE07.jpg,MN,1,num_6,32,num_8,0.766781523693,,,2017_Oct_04_1115,60.0081414919,MAFE4ImagesEEG,001,101914,
AFNE01.JPG,AFNE01.JPG,AFNE01.JPG,AFNE01.JPG,AFNE01.JPG,AFNE01.JPG,,,,,,,,,,,,,,,,,4,0,40,3,,,,,,,AMNE18.jpg,AMSA03.jpg,AMSA13.jpg,AMNE05.jpg,AMSA13.jpg,MS,2,num_2,32,num_6,1.40011783992,,,2017_Oct_04_1115,60.0081414919,MAFE4ImagesEEG,001,101914,
AFNE01.JPG,AFNE01.JPG,AFNE01.JPG,AFNE01.JPG,AFNE01.JPG,AFNE01.JPG,,,,,,,,,,,,,,,,,4,1,41,1,,,,,,,AMSA11.jpg,AMNE12.jpg,AMSA20.jpg,AMNE15.jpg,AMSA11.jpg,MS,2,num_8,16,num_8,0.933297282143,,,2017_Oct_04_1115,60.0081414919,MAFE4ImagesEEG,001,101914,
AFNE01.JPG,AFNE01.JPG,AFNE01.JPG,AFNE01.JPG,AFNE01.JPG,AFNE01.JPG,,,,,,,,,,,,,,,,,4,2,42,8,,,,,,,AMNE08.jpg,AMSA08.jpg,AMNE11.jpg,AMSA15.jpg,AMSA15.jpg,MS,2,num_4,16,num_4,0.633479045573,,,2017_Oct_04_1115,60.0081414919,MAFE4ImagesEEG,001,101914,
AFNE01.JPG,AFNE01.JPG,AFNE01.JPG,AFNE01.JPG,AFNE01.JPG,AFNE01.JPG,,,,,,,,,,,,,,,,,4,3,43,2,,,,,,,AMSA09.jpg,AMSA10.jpg,AMNE09.jpg,AMNE13.jpg,AMSA09.jpg,MS,2,num_8,16,num_8,0.716872437479,,,2017_Oct_04_1115,60.0081414919,MAFE4ImagesEEG,001,101914,
AFNE01.JPG,AFNE01.JPG,AFNE01.JPG,AFNE01.JPG,AFNE01.JPG,AFNE01.JPG,,,,,,,,,,,,,,,,,4,4,44,5,,,,,,,AMSA03.jpg,AMNE14.jpg,AMSA11.jpg,AMNE03.jpg,AMSA11.jpg,MS,2,num_2,16,num_2,1.46688278136,,,2017_Oct_04_1115,60.0081414919,MAFE4ImagesEEG,001,101914,
AFNE01.JPG,AFNE01.JPG,AFNE01.JPG,AFNE01.JPG,AFNE01.JPG,AFNE01.JPG,,,,,,,,,,,,,,,,,4,5,45,0,,,,,,,AMSA17.jpg,AMNE18.jpg,AMSA15.jpg,AMNE04.jpg,AMSA15.jpg,MS,2,num_2,32,num_6,0.850131936444,,,2017_Oct_04_1115,60.0081414919,MAFE4ImagesEEG,001,101914,
AFNE01.JPG,AFNE01.JPG,AFNE01.JPG,AFNE01.JPG,AFNE01.JPG,AFNE01.JPG,,,,,,,,,,,,,,,,,4,6,46,9,,,,,,,AMNE18.jpg,AMSA06.jpg,AMNE07.jpg,AMSA17.jpg,AMNE07.jpg,MN,1,num_2,16,num_2,0.750120678465,,,2017_Oct_04_1115,60.0081414919,MAFE4ImagesEEG,001,101914,
AFNE01.JPG,AFNE01.JPG,AFNE01.JPG,AFNE01.JPG,AFNE01.JPG,AFNE01.JPG,,,,,,,,,,,,,,,,,4,7,47,7,,,,,,,AMNE09.jpg,AMNE10.jpg,AMSA07.jpg,AMSA04.jpg,AMSA04.jpg,MS,2,num_4,16,num_4,1.08344278589,,,2017_Oct_04_1115,60.0081414919,MAFE4ImagesEEG,001,101914,
AFNE01.JPG,AFNE01.JPG,AFNE01.JPG,AFNE01.JPG,AFNE01.JPG,AFNE01.JPG,,,,,,,,,,,,,,,,,4,8,48,4,,,,,,,AMSA15.jpg,AMSA07.jpg,AMNE01.jpg,AMNE06.jpg,AMSA15.jpg,MS,2,num_8,16,num_8,0.950135817402,,,2017_Oct_04_1115,60.0081414919,MAFE4ImagesEEG,001,101914,
AFNE01.JPG,AFNE01.JPG,AFNE01.JPG,AFNE01.JPG,AFNE01.JPG,AFNE01.JPG,,,,,,,,,,,,,,,,,4,9,49,6,,,,,,,AMSA06.jpg,AMNE13.jpg,AMNE16.jpg,AMSA08.jpg,AMSA08.jpg,MS,2,num_4,32,num_6,0.683488844181,,,2017_Oct_04_1115,60.0081414919,MAFE4ImagesEEG,001,101914,
AFNE01.JPG,AFNE01.JPG,AFNE01.JPG,AFNE01.JPG,AFNE01.JPG,AFNE01.JPG,,,,,,,,,,,,,,,,,5,0,50,3,,,,,,,AMSA01.jpg,AMNE05.jpg,AMSA02.jpg,AMNE06.jpg,AMNE05.jpg,MN,1,num_6,32,num_4,1.06674986664,,,2017_Oct_04_1115,60.0081414919,MAFE4ImagesEEG,001,101914,
AFNE01.JPG,AFNE01.JPG,AFNE01.JPG,AFNE01.JPG,AFNE01.JPG,AFNE01.JPG,,,,,,,,,,,,,,,,,5,1,51,9,,,,,,,AMNE19.jpg,AMSA04.jpg,AMNE13.jpg,AMSA10.jpg,AMSA10.jpg,MS,2,num_4,32,num_6,1.51668025002,,,2017_Oct_04_1115,60.0081414919,MAFE4ImagesEEG,001,101914,
AFNE01.JPG,AFNE01.JPG,AFNE01.JPG,AFNE01.JPG,AFNE01.JPG,AFNE01.JPG,,,,,,,,,,,,,,,,,5,2,52,0,,,,,,,AMNE05.jpg,AMSA12.jpg,AMNE07.jpg,AMSA08.jpg,AMNE05.jpg,MN,1,num_8,16,num_8,0.683432073172,,,2017_Oct_04_1115,60.0081414919,MAFE4ImagesEEG,001,101914,
AFNE01.JPG,AFNE01.JPG,AFNE01.JPG,AFNE01.JPG,AFNE01.JPG,AFNE01.JPG,,,,,,,,,,,,,,,,,5,3,53,5,,,,,,,AMSA15.jpg,AMNE03.jpg,AMSA20.jpg,AMNE18.jpg,AMNE18.jpg,MN,1,num_4,16,num_4,0.716749273284,,,2017_Oct_04_1115,60.0081414919,MAFE4ImagesEEG,001,101914,
AFNE01.JPG,AFNE01.JPG,AFNE01.JPG,AFNE01.JPG,AFNE01.JPG,AFNE01.JPG,,,,,,,,,,,,,,,,,5,4,54,7,,,,,,,AMSA04.jpg,AMNE10.jpg,AMNE19.jpg,AMSA17.jpg,AMSA17.jpg,MS,2,num_4,16,num_4,0.833435809807,,,2017_Oct_04_1115,60.0081414919,MAFE4ImagesEEG,001,101914,
AFNE01.JPG,AFNE01.JPG,AFNE01.JPG,AFNE01.JPG,AFNE01.JPG,AFNE01.JPG,,,,,,,,,,,,,,,,,5,5,55,1,,,,,,,AMNE17.jpg,AMNE19.jpg,AMSA19.jpg,AMSA03.jpg,AMNE17.jpg,MN,1,num_8,16,num_8,0.883447212109,,,2017_Oct_04_1115,60.0081414919,MAFE4ImagesEEG,001,101914,
AFNE01.JPG,AFNE01.JPG,AFNE01.JPG,AFNE01.JPG,AFNE01.JPG,AFNE01.JPG,,,,,,,,,,,,,,,,,5,6,56,6,,,,,,,AMSA09.jpg,AMNE03.jpg,AMSA10.jpg,AMNE17.jpg,AMNE03.jpg,MN,1,num_6,32,num_4,0.850099220959,,,2017_Oct_04_1115,60.0081414919,MAFE4ImagesEEG,001,101914,
AFNE01.JPG,AFNE01.JPG,AFNE01.JPG,AFNE01.JPG,AFNE01.JPG,AFNE01.JPG,,,,,,,,,,,,,,,,,5,7,57,8,,,,,,,AMSA01.jpg,AMNE06.jpg,AMNE19.jpg,AMSA05.jpg,AMNE19.jpg,MN,1,num_2,16,num_2,0.983438584197,,,2017_Oct_04_1115,60.0081414919,MAFE4ImagesEEG,001,101914,
AFNE01.JPG,AFNE01.JPG,AFNE01.JPG,AFNE01.JPG,AFNE01.JPG,AFNE01.JPG,,,,,,,,,,,,,,,,,5,8,58,4,,,,,,,AMNE08.jpg,AMSA04.jpg,AMSA01.jpg,AMNE03.jpg,AMSA04.jpg,MS,2,num_6,16,num_6,0.883414817363,,,2017_Oct_04_1115,60.0081414919,MAFE4ImagesEEG,001,101914,
AFNE01.JPG,AFNE01.JPG,AFNE01.JPG,AFNE01.JPG,AFNE01.JPG,AFNE01.JPG,,,,,,,,,,,,,,,,,5,9,59,2,,,,,,,AMSA01.jpg,AMSA05.jpg,AMNE05.jpg,AMNE19.jpg,AMSA01.jpg,MS,2,num_8,32,num_4,0.783471556279,,,2017_Oct_04_1115,60.0081414919,MAFE4ImagesEEG,001,101914,
,,,,,,,,,,,,,,,,,,,,,,,,,,,,,,,,,,,,,,,,,,,space,4.0668278065,2017_Oct_04_1115,60.0081414919,MAFE4ImagesEEG,001,101914,
AFNE01.JPG,AFNE01.JPG,AFNE01.JPG,AFNE01.JPG,AFNE01.JPG,AFNE01.JPG,,,,,,,,,,,,,,,,,,,,,0,0,0,5,,,AFSA04.jpg,AFNE12.jpg,AFSA08.jpg,AFNE15.jpg,AFNE15.jpg,FN,3,num_4,16,num_4,1.05016279164,,,2017_Oct_04_1115,60.0081414919,MAFE4ImagesEEG,001,101914,
AFNE01.JPG,AFNE01.JPG,AFNE01.JPG,AFNE01.JPG,AFNE01.JPG,AFNE01.JPG,,,,,,,,,,,,,,,,,,,,,0,1,1,6,,,AFSA11.jpg,AFNE13.jpg,AFSA03.jpg,AFNE20.jpg,AFNE20.jpg,FN,3,num_4,16,num_4,1.50013807861,,,2017_Oct_04_1115,60.0081414919,MAFE4ImagesEEG,001,101914,
AFNE01.JPG,AFNE01.JPG,AFNE01.JPG,AFNE01.JPG,AFNE01.JPG,AFNE01.JPG,,,,,,,,,,,,,,,,,,,,,0,2,2,4,,,AFSA02.jpg,AFNE11.jpg,AFSA12.jpg,AFNE13.jpg,AFSA12.jpg,FS,4,num_2,16,num_2,0.783150174684,,,2017_Oct_04_1115,60.0081414919,MAFE4ImagesEEG,001,101914,
AFNE01.JPG,AFNE01.JPG,AFNE01.JPG,AFNE01.JPG,AFNE01.JPG,AFNE01.JPG,,,,,,,,,,,,,,,,,,,,,0,3,3,1,,,AFNE08.jpg,AFSA03.jpg,AFNE15.jpg,AFSA17.jpg,AFSA17.jpg,FS,4,num_4,32,num_8,0.783469631846,,,2017_Oct_04_1115,60.0081414919,MAFE4ImagesEEG,001,101914,
AFNE01.JPG,AFNE01.JPG,AFNE01.JPG,AFNE01.JPG,AFNE01.JPG,AFNE01.JPG,,,,,,,,,,,,,,,,,,,,,0,4,4,8,,,AFSA09.jpg,AFNE04.jpg,AFSA03.jpg,AFNE16.jpg,AFNE04.jpg,FN,3,num_6,16,num_6,0.716760819938,,,2017_Oct_04_1115,60.0081414919,MAFE4ImagesEEG,001,101914,
AFNE01.JPG,AFNE01.JPG,AFNE01.JPG,AFNE01.JPG,AFNE01.JPG,AFNE01.JPG,,,,,,,,,,,,,,,,,,,,,0,5,5,2,,,AFNE05.jpg,AFSA15.jpg,AFSA11.jpg,AFNE04.jpg,AFSA11.jpg,FS,4,num_2,16,num_2,0.95007359382,,,2017_Oct_04_1115,60.0081414919,MAFE4ImagesEEG,001,101914,
AFNE01.JPG,AFNE01.JPG,AFNE01.JPG,AFNE01.JPG,AFNE01.JPG,AFNE01.JPG,,,,,,,,,,,,,,,,,,,,,0,6,6,0,,,AFSA15.jpg,AFNE15.jpg,AFSA08.jpg,AFNE13.jpg,AFSA15.jpg,FS,4,num_8,16,num_8,1.3664263361,,,2017_Oct_04_1115,60.0081414919,MAFE4ImagesEEG,001,101914,
AFNE01.JPG,AFNE01.JPG,AFNE01.JPG,AFNE01.JPG,AFNE01.JPG,AFNE01.JPG,,,,,,,,,,,,,,,,,,,,,0,7,7,7,,,AFSA20.jpg,AFNE10.jpg,AFNE04.jpg,AFSA15.jpg,AFSA20.jpg,FS,4,num_8,16,num_8,1.05012654801,,,2017_Oct_04_1115,60.0081414919,MAFE4ImagesEEG,001,101914,
AFNE01.JPG,AFNE01.JPG,AFNE01.JPG,AFNE01.JPG,AFNE01.JPG,AFNE01.JPG,,,,,,,,,,,,,,,,,,,,,0,8,8,9,,,AFSA20.jpg,AFNE12.jpg,AFNE09.jpg,AFSA02.jpg,AFNE09.jpg,FN,3,num_2,16,num_2,1.2834313034,,,2017_Oct_04_1115,60.0081414919,MAFE4ImagesEEG,001,101914,
AFNE01.JPG,AFNE01.JPG,AFNE01.JPG,AFNE01.JPG,AFNE01.JPG,AFNE01.JPG,,,,,,,,,,,,,,,,,,,,,0,9,9,3,,,AFNE15.jpg,AFSA02.jpg,AFSA12.jpg,AFNE02.jpg,AFSA12.jpg,FS,4,num_2,16,num_2,0.783454557066,,,2017_Oct_04_1115,60.0081414919,MAFE4ImagesEEG,001,101914,
AFNE01.JPG,AFNE01.JPG,AFNE01.JPG,AFNE01.JPG,AFNE01.JPG,AFNE01.JPG,,,,,,,,,,,,,,,,,,,,,1,0,10,6,,,AFSA02.jpg,AFNE01.jpg,AFSA04.jpg,AFNE16.jpg,AFNE16.jpg,FN,3,num_4,32,num_6,0.683464147194,,,2017_Oct_04_1115,60.0081414919,MAFE4ImagesEEG,001,101914,
AFNE01.JPG,AFNE01.JPG,AFNE01.JPG,AFNE01.JPG,AFNE01.JPG,AFNE01.JPG,,,,,,,,,,,,,,,,,,,,,1,1,11,7,,,AFNE03.jpg,AFSA09.jpg,AFNE11.jpg,AFSA02.jpg,AFSA09.jpg,FS,4,num_6,16,num_6,1.26673453527,,,2017_Oct_04_1115,60.0081414919,MAFE4ImagesEEG,001,101914,
AFNE01.JPG,AFNE01.JPG,AFNE01.JPG,AFNE01.JPG,AFNE01.JPG,AFNE01.JPG,,,,,,,,,,,,,,,,,,,,,1,2,12,5,,,AFSA03.jpg,AFNE04.jpg,AFSA06.jpg,AFNE14.jpg,AFSA03.jpg,FS,4,num_8,16,num_8,0.883509435691,,,2017_Oct_04_1115,60.0081414919,MAFE4ImagesEEG,001,101914,
AFNE01.JPG,AFNE01.JPG,AFNE01.JPG,AFNE01.JPG,AFNE01.JPG,AFNE01.JPG,,,,,,,,,,,,,,,,,,,,,1,3,13,9,,,AFSA08.jpg,AFNE07.jpg,AFNE09.jpg,AFSA14.jpg,AFSA08.jpg,FS,4,num_8,32,num_4,1.1500852046,,,2017_Oct_04_1115,60.0081414919,MAFE4ImagesEEG,001,101914,
AFNE01.JPG,AFNE01.JPG,AFNE01.JPG,AFNE01.JPG,AFNE01.JPG,AFNE01.JPG,,,,,,,,,,,,,,,,,,,,,1,4,14,3,,,AFSA15.jpg,AFSA16.jpg,AFNE07.jpg,AFNE13.jpg,AFSA16.jpg,FS,4,num_6,32,num_2,1.00011546644,,,2017_Oct_04_1115,60.0081414919,MAFE4ImagesEEG,001,101914,
AFNE01.JPG,AFNE01.JPG,AFNE01.JPG,AFNE01.JPG,AFNE01.JPG,AFNE01.JPG,,,,,,,,,,,,,,,,,,,,,1,5,15,4,,,AFNE18.jpg,AFSA09.jpg,AFNE17.jpg,AFSA13.jpg,AFSA09.jpg,FS,4,num_6,16,num_6,1.16676176612,,,2017_Oct_04_1115,60.0081414919,MAFE4ImagesEEG,001,101914,
AFNE01.JPG,AFNE01.JPG,AFNE01.JPG,AFNE01.JPG,AFNE01.JPG,AFNE01.JPG,,,,,,,,,,,,,,,,,,,,,1,6,16,2,,,AFNE06.jpg,AFSA13.jpg,AFSA19.jpg,AFNE19.jpg,AFNE06.jpg,FN,3,num_8,16,num_8,0.81668227067,,,2017_Oct_04_1115,60.0081414919,MAFE4ImagesEEG,001,101914,
AFNE01.JPG,AFNE01.JPG,AFNE01.JPG,AFNE01.JPG,AFNE01.JPG,AFNE01.JPG,,,,,,,,,,,,,,,,,,,,,1,7,17,8,,,AFSA16.jpg,AFNE04.jpg,AFNE19.jpg,AFSA10.jpg,AFNE04.jpg,FN,3,num_6,16,num_6,0.616761108598,,,2017_Oct_04_1115,60.0081414919,MAFE4ImagesEEG,001,101914,
AFNE01.JPG,AFNE01.JPG,AFNE01.JPG,AFNE01.JPG,AFNE01.JPG,AFNE01.JPG,,,,,,,,,,,,,,,,,,,,,1,8,18,0,,,AFNE16.jpg,AFNE13.jpg,AFSA19.jpg,AFSA17.jpg,AFNE16.jpg,FN,3,num_8,16,num_8,0.816795491934,,,2017_Oct_04_1115,60.0081414919,MAFE4ImagesEEG,001,101914,
AFNE01.JPG,AFNE01.JPG,AFNE01.JPG,AFNE01.JPG,AFNE01.JPG,AFNE01.JPG,,,,,,,,,,,,,,,,,,,,,1,9,19,1,,,AFSA14.jpg,AFSA17.jpg,AFNE13.jpg,AFNE08.jpg,AFSA14.jpg,FS,4,num_8,16,num_8,0.883460041718,,,2017_Oct_04_1115,60.0081414919,MAFE4ImagesEEG,001,101914,
AFNE01.JPG,AFNE01.JPG,AFNE01.JPG,AFNE01.JPG,AFNE01.JPG,AFNE01.JPG,,,,,,,,,,,,,,,,,,,,,2,0,20,7,,,AFNE07.jpg,AFSA04.jpg,AFSA07.jpg,AFNE01.jpg,AFNE07.jpg,FN,3,num_8,16,num_8,0.600151261038,,,2017_Oct_04_1115,60.0081414919,MAFE4ImagesEEG,001,101914,
AFNE01.JPG,AFNE01.JPG,AFNE01.JPG,AFNE01.JPG,AFNE01.JPG,AFNE01.JPG,,,,,,,,,,,,,,,,,,,,,2,1,21,5,,,AFNE11.jpg,AFSA01.jpg,AFNE04.jpg,AFSA10.jpg,AFSA01.jpg,FS,4,num_6,32,num_4,1.05010666212,,,2017_Oct_04_1115,60.0081414919,MAFE4ImagesEEG,001,101914,
AFNE01.JPG,AFNE01.JPG,AFNE01.JPG,AFNE01.JPG,AFNE01.JPG,AFNE01.JPG,,,,,,,,,,,,,,,,,,,,,2,2,22,3,,,AFNE13.jpg,AFSA01.jpg,AFSA16.jpg,AFNE07.jpg,AFSA16.jpg,FS,4,num_2,16,num_2,1.83340501874,,,2017_Oct_04_1115,60.0081414919,MAFE4ImagesEEG,001,101914,
AFNE01.JPG,AFNE01.JPG,AFNE01.JPG,AFNE01.JPG,AFNE01.JPG,AFNE01.JPG,,,,,,,,,,,,,,,,,,,,,2,3,23,4,,,AFNE09.jpg,AFSA08.jpg,AFNE14.jpg,AFSA14.jpg,AFSA14.jpg,FS,4,num_4,16,num_4,1.0500800407,,,2017_Oct_04_1115,60.0081414919,MAFE4ImagesEEG,001,101914,
AFNE01.JPG,AFNE01.JPG,AFNE01.JPG,AFNE01.JPG,AFNE01.JPG,AFNE01.JPG,,,,,,,,,,,,,,,,,,,,,2,4,24,0,,,AFNE10.jpg,AFSA15.jpg,AFNE15.jpg,AFSA10.jpg,AFSA15.jpg,FS,4,num_6,16,num_6,0.833453450497,,,2017_Oct_04_1115,60.0081414919,MAFE4ImagesEEG,001,101914,
AFNE01.JPG,AFNE01.JPG,AFNE01.JPG,AFNE01.JPG,AFNE01.JPG,AFNE01.JPG,,,,,,,,,,,,,,,,,,,,,2,5,25,9,,,AFSA10.jpg,AFNE19.jpg,AFSA20.jpg,AFNE18.jpg,AFNE18.jpg,FN,3,num_4,16,num_4,1.11676768376,,,2017_Oct_04_1115,60.0081414919,MAFE4ImagesEEG,001,101914,
AFNE01.JPG,AFNE01.JPG,AFNE01.JPG,AFNE01.JPG,AFNE01.JPG,AFNE01.JPG,,,,,,,,,,,,,,,,,,,,,2,6,26,2,,,AFSA03.jpg,AFSA05.jpg,AFNE10.jpg,AFNE12.jpg,AFNE12.jpg,FN,3,num_4,16,num_4,0.63349123369,,,2017_Oct_04_1115,60.0081414919,MAFE4ImagesEEG,001,101914,
AFNE01.JPG,AFNE01.JPG,AFNE01.JPG,AFNE01.JPG,AFNE01.JPG,AFNE01.JPG,,,,,,,,,,,,,,,,,,,,,2,7,27,1,,,AFSA10.jpg,AFNE20.jpg,AFSA13.jpg,AFNE16.jpg,AFSA13.jpg,FS,4,num_2,32,num_4,0.866751085458,,,2017_Oct_04_1115,60.0081414919,MAFE4ImagesEEG,001,101914,
AFNE01.JPG,AFNE01.JPG,AFNE01.JPG,AFNE01.JPG,AFNE01.JPG,AFNE01.JPG,,,,,,,,,,,,,,,,,,,,,2,8,28,6,,,AFSA19.jpg,AFNE11.jpg,AFNE06.jpg,AFSA03.jpg,AFSA19.jpg,FS,4,num_8,16,num_8,1.01675610505,,,2017_Oct_04_1115,60.0081414919,MAFE4ImagesEEG,001,101914,
AFNE01.JPG,AFNE01.JPG,AFNE01.JPG,AFNE01.JPG,AFNE01.JPG,AFNE01.JPG,,,,,,,,,,,,,,,,,,,,,2,9,29,8,,,AFNE09.jpg,AFSA12.jpg,AFSA08.jpg,AFNE01.jpg,AFNE09.jpg,FN,3,num_8,16,num_8,0.700137501291,,,2017_Oct_04_1115,60.0081414919,MAFE4ImagesEEG,001,101914,
AFNE01.JPG,AFNE01.JPG,AFNE01.JPG,AFNE01.JPG,AFNE01.JPG,AFNE01.JPG,,,,,,,,,,,,,,,,,,,,,3,0,30,4,,,AFNE14.jpg,AFNE12.jpg,AFSA05.jpg,AFSA11.jpg,AFNE14.jpg,FN,3,num_8,16,num_8,0.750104641455,,,2017_Oct_04_1115,60.0081414919,MAFE4ImagesEEG,001,101914,
AFNE01.JPG,AFNE01.JPG,AFNE01.JPG,AFNE01.JPG,AFNE01.JPG,AFNE01.JPG,,,,,,,,,,,,,,,,,,,,,3,1,31,9,,,AFNE13.jpg,AFNE02.jpg,AFSA12.jpg,AFSA04.jpg,AFSA12.jpg,FS,4,num_2,16,num_2,1.15003099953,,,2017_Oct_04_1115,60.0081414919,MAFE4ImagesEEG,001,101914,
AFNE01.JPG,AFNE01.JPG,AFNE01.JPG,AFNE01.JPG,AFNE01.JPG,AFNE01.JPG,,,,,,,,,,,,,,,,,,,,,3,2,32,7,,,AFSA07.jpg,AFSA03.jpg,AFNE20.jpg,AFNE03.jpg,AFNE20.jpg,FN,3,num_2,32,num_4,0.8666362605,,,2017_Oct_04_1115,60.0081414919,MAFE4ImagesEEG,001,101914,
AFNE01.JPG,AFNE01.JPG,AFNE01.JPG,AFNE01.JPG,AFNE01.JPG,AFNE01.JPG,,,,,,,,,,,,,,,,,,,,,3,3,33,2,,,AFNE05.jpg,AFSA16.jpg,AFNE02.jpg,AFSA08.jpg,AFNE02.jpg,FN,3,num_2,16,num_2,0.833422980199,,,2017_Oct_04_1115,60.0081414919,MAFE4ImagesEEG,001,101914,
AFNE01.JPG,AFNE01.JPG,AFNE01.JPG,AFNE01.JPG,AFNE01.JPG,AFNE01.JPG,,,,,,,,,,,,,,,,,,,,,3,4,34,3,,,AFNE14.jpg,AFNE20.jpg,AFSA15.jpg,AFSA04.jpg,AFNE14.jpg,FN,3,num_8,32,num_6,0.783455840021,,,2017_Oct_04_1115,60.0081414919,MAFE4ImagesEEG,001,101914,
AFNE01.JPG,AFNE01.JPG,AFNE01.JPG,AFNE01.JPG,AFNE01.JPG,AFNE01.JPG,,,,,,,,,,,,,,,,,,,,,3,5,35,6,,,AFNE05.jpg,AFSA13.jpg,AFSA02.jpg,AFNE20.jpg,AFNE20.jpg,FN,3,num_4,16,num_4,0.866786046143,,,2017_Oct_04_1115,60.0081414919,MAFE4ImagesEEG,001,101914,
AFNE01.JPG,AFNE01.JPG,AFNE01.JPG,AFNE01.JPG,AFNE01.JPG,AFNE01.JPG,,,,,,,,,,,,,,,,,,,,,3,6,36,0,,,AFNE10.jpg,AFSA16.jpg,AFNE06.jpg,AFSA09.jpg,AFNE06.jpg,FN,3,num_2,16,num_2,1.90006475743,,,2017_Oct_04_1115,60.0081414919,MAFE4ImagesEEG,001,101914,
AFNE01.JPG,AFNE01.JPG,AFNE01.JPG,AFNE01.JPG,AFNE01.JPG,AFNE01.JPG,,,,,,,,,,,,,,,,,,,,,3,7,37,1,,,AFNE06.jpg,AFNE09.jpg,AFSA14.jpg,AFSA18.jpg,AFSA14.jpg,FS,4,num_2,32,num_4,1.1167144409,,,2017_Oct_04_1115,60.0081414919,MAFE4ImagesEEG,001,101914,
AFNE01.JPG,AFNE01.JPG,AFNE01.JPG,AFNE01.JPG,AFNE01.JPG,AFNE01.JPG,,,,,,,,,,,,,,,,,,,,,3,8,38,5,,,AFNE16.jpg,AFSA08.jpg,AFNE06.jpg,AFSA13.jpg,AFSA08.jpg,FS,4,num_6,32,num_4,1.05012077469,,,2017_Oct_04_1115,60.0081414919,MAFE4ImagesEEG,001,101914,
