IPosition2,IPosition3,IPosition1,IPosition6,IPosition4,IPosition5,TrialsF1.thisRepN,TrialsF1.thisTrialN,TrialsF1.thisN,TrialsF1.thisIndex,TrialsM1.thisRepN,TrialsM1.thisTrialN,TrialsM1.thisN,TrialsM1.thisIndex,TrialsF2.thisRepN,TrialsF2.thisTrialN,TrialsF2.thisN,TrialsF2.thisIndex,TrialsM2.thisRepN,TrialsM2.thisTrialN,TrialsM2.thisN,TrialsM2.thisIndex,TrialsF3.thisRepN,TrialsF3.thisTrialN,TrialsF3.thisN,TrialsF3.thisIndex,TrialsM3.thisRepN,TrialsM3.thisTrialN,TrialsM3.thisN,TrialsM3.thisIndex,InstrKey_resp.keys,InstrKey_resp.rt,Image0 _Position,Image1 _Position,Image2 _Position,Image3 _Position,Center_image,condition,code,correct_answer,accuracy,Key_Resp.keys,Key_Resp.rt,BreakKey_resp.keys,BreakKey_resp.rt,date,frameRate,expName,session,participant,
,,,,,,,,,,,,,,,,,,,,,,,,,,,,,,space,14.8493916374,,,,,,,,,,,,,,2017_Oct_18_1453,59.993592309,FEMA4ImagesEEG,001,102061,
AMNE23.JPG,AMNE24.JPG,AMNE22.JPG,AMSA24.JPG,AMSA22.JPG,AMSA23.JPG,0,0,0,9,,,,,,,,,,,,,,,,,,,,,,,AFNE03.jpg,AFSA18.jpg,AFSA09.jpg,AFNE18.jpg,AFNE03.jpg,FN,3,num_8,32,num_6,1.83338288759,,,2017_Oct_18_1453,59.993592309,FEMA4ImagesEEG,001,102061,
AMSA25.JPG,AMNE24.JPG,AMSA24.JPG,AMNE26.JPG,AMSA21.JPG,AMNE25.JPG,0,1,1,3,,,,,,,,,,,,,,,,,,,,,,,AFNE09.jpg,AFNE08.jpg,AFSA19.jpg,AFSA17.jpg,AFNE09.jpg,FN,3,num_8,16,num_8,0.966736427508,,,2017_Oct_18_1453,59.993592309,FEMA4ImagesEEG,001,102061,
AMSA21.JPG,AMNE23.JPG,AMNE21.JPG,AMSA25.JPG,AMNE25.JPG,AMSA23.JPG,0,2,2,5,,,,,,,,,,,,,,,,,,,,,,,AFNE14.jpg,AFSA11.jpg,AFSA19.jpg,AFNE08.jpg,AFNE14.jpg,FN,3,num_8,32,num_2,1.44994651669,,,2017_Oct_18_1453,59.993592309,FEMA4ImagesEEG,001,102061,
AFNE23.JPG,AFNE24.JPG,AFNE22.JPG,AFSA24.JPG,AFSA22.JPG,AFSA23.JPG,0,3,3,8,,,,,,,,,,,,,,,,,,,,,,,AFNE01.jpg,AFNE15.jpg,AFSA10.jpg,AFSA13.jpg,AFSA13.jpg,FS,4,num_4,32,num_8,1.26672375829,,,2017_Oct_18_1453,59.993592309,FEMA4ImagesEEG,001,102061,
AFNE22.JPG,AFSA24.JPG,AFSA22.JPG,AFNE25.JPG,AFNE24.JPG,AFSA25.JPG,0,4,4,6,,,,,,,,,,,,,,,,,,,,,,,AFNE05.jpg,AFSA07.jpg,AFNE10.jpg,AFSA06.jpg,AFSA06.jpg,FS,4,num_4,16,num_4,0.883416003941,,,2017_Oct_18_1453,59.993592309,FEMA4ImagesEEG,001,102061,
AFSA21.JPG,AFNE22.JPG,AFNE21.JPG,AFSA23.JPG,AFSA22.JPG,AFNE23.JPG,0,5,5,0,,,,,,,,,,,,,,,,,,,,,,,AFNE17.jpg,AFSA08.jpg,AFSA18.jpg,AFNE13.jpg,AFNE13.jpg,FN,3,num_4,32,num_6,0.666812923882,,,2017_Oct_18_1453,59.993592309,FEMA4ImagesEEG,001,102061,
AFSA25.JPG,AFNE24.JPG,AFSA24.JPG,AFNE21.JPG,AFSA21.JPG,AFNE25.JPG,0,6,6,2,,,,,,,,,,,,,,,,,,,,,,,AFNE06.jpg,AFSA17.jpg,AFNE02.jpg,AFSA11.jpg,AFSA11.jpg,FS,4,num_4,32,num_2,1.36673514456,,,2017_Oct_18_1453,59.993592309,FEMA4ImagesEEG,001,102061,
AMSA21.JPG,AMNE22.JPG,AMNE21.JPG,AMSA23.JPG,AMSA22.JPG,AMNE23.JPG,0,7,7,1,,,,,,,,,,,,,,,,,,,,,,,AFNE19.jpg,AFSA08.jpg,AFSA03.jpg,AFNE01.jpg,AFSA08.jpg,FS,4,num_6,32,num_8,1.56683553601,,,2017_Oct_18_1453,59.993592309,FEMA4ImagesEEG,001,102061,
AFSA21.JPG,AFNE23.JPG,AFNE21.JPG,AFSA25.JPG,AFNE25.JPG,AFSA23.JPG,0,8,8,4,,,,,,,,,,,,,,,,,,,,,,,AFNE19.jpg,AFNE01.jpg,AFSA19.jpg,AFSA14.jpg,AFNE19.jpg,FN,3,num_8,32,num_4,1.16673418233,,,2017_Oct_18_1453,59.993592309,FEMA4ImagesEEG,001,102061,
AMNE22.JPG,AMSA24.JPG,AMSA22.JPG,AMNE25.JPG,AMNE24.JPG,AMSA25.JPG,0,9,9,7,,,,,,,,,,,,,,,,,,,,,,,AFSA02.jpg,AFSA09.jpg,AFNE20.jpg,AFNE13.jpg,AFSA09.jpg,FS,4,num_6,16,num_6,0.666759681117,,,2017_Oct_18_1453,59.993592309,FEMA4ImagesEEG,001,102061,
AFSA25.JPG,AFNE24.JPG,AFSA24.JPG,AFNE21.JPG,AFSA21.JPG,AFNE25.JPG,,,,,0,0,0,2,,,,,,,,,,,,,,,,,,,AMNE17.jpg,AMNE14.jpg,AMSA13.jpg,AMSA01.jpg,AMSA01.jpg,MS,2,num_4,16,num_4,0.583500839537,,,2017_Oct_18_1453,59.993592309,FEMA4ImagesEEG,001,102061,
AMNE23.JPG,AMNE24.JPG,AMNE22.JPG,AMSA24.JPG,AMSA22.JPG,AMSA23.JPG,,,,,0,1,1,9,,,,,,,,,,,,,,,,,,,AMNE14.jpg,AMSA09.jpg,AMSA02.jpg,AMNE16.jpg,AMSA09.jpg,MS,2,num_6,16,num_6,0.500133267269,,,2017_Oct_18_1453,59.993592309,FEMA4ImagesEEG,001,102061,
AMNE22.JPG,AMSA24.JPG,AMSA22.JPG,AMNE25.JPG,AMNE24.JPG,AMSA25.JPG,,,,,0,2,2,7,,,,,,,,,,,,,,,,,,,AMNE17.jpg,AMSA16.jpg,AMSA07.jpg,AMNE09.jpg,AMNE09.jpg,MN,1,num_4,32,num_8,0.933534757743,,,2017_Oct_18_1453,59.993592309,FEMA4ImagesEEG,001,102061,
AMSA21.JPG,AMNE23.JPG,AMNE21.JPG,AMSA25.JPG,AMNE25.JPG,AMSA23.JPG,,,,,0,3,3,5,,,,,,,,,,,,,,,,,,,AMSA07.jpg,AMNE09.jpg,AMNE14.jpg,AMSA06.jpg,AMNE14.jpg,MN,1,num_2,16,num_2,1.05033300779,,,2017_Oct_18_1453,59.993592309,FEMA4ImagesEEG,001,102061,
AFNE22.JPG,AFSA24.JPG,AFSA22.JPG,AFNE25.JPG,AFNE24.JPG,AFSA25.JPG,,,,,0,4,4,6,,,,,,,,,,,,,,,,,,,AMNE15.jpg,AMSA06.jpg,AMSA04.jpg,AMNE13.jpg,AMSA06.jpg,MS,2,num_6,32,num_8,0.966795764311,,,2017_Oct_18_1453,59.993592309,FEMA4ImagesEEG,001,102061,
AMSA21.JPG,AMNE22.JPG,AMNE21.JPG,AMSA23.JPG,AMSA22.JPG,AMNE23.JPG,,,,,0,5,5,1,,,,,,,,,,,,,,,,,,,AMSA13.jpg,AMNE13.jpg,AMSA12.jpg,AMNE12.jpg,AMNE13.jpg,MN,1,num_6,32,num_2,1.60006478938,,,2017_Oct_18_1453,59.993592309,FEMA4ImagesEEG,001,102061,
AFNE23.JPG,AFNE24.JPG,AFNE22.JPG,AFSA24.JPG,AFSA22.JPG,AFSA23.JPG,,,,,0,6,6,8,,,,,,,,,,,,,,,,,,,AMSA10.jpg,AMNE20.jpg,AMSA05.jpg,AMNE07.jpg,AMSA10.jpg,MS,2,num_8,16,num_8,0.966789990998,,,2017_Oct_18_1453,59.993592309,FEMA4ImagesEEG,001,102061,
AMSA25.JPG,AMNE24.JPG,AMSA24.JPG,AMNE26.JPG,AMSA21.JPG,AMNE25.JPG,,,,,0,7,7,3,,,,,,,,,,,,,,,,,,,AMNE15.jpg,AMNE14.jpg,AMSA03.jpg,AMSA05.jpg,AMSA05.jpg,MS,2,num_4,32,num_8,1.10013198431,,,2017_Oct_18_1453,59.993592309,FEMA4ImagesEEG,001,102061,
AFSA21.JPG,AFNE23.JPG,AFNE21.JPG,AFSA25.JPG,AFNE25.JPG,AFSA23.JPG,,,,,0,8,8,4,,,,,,,,,,,,,,,,,,,AMSA17.jpg,AMNE14.jpg,AMSA13.jpg,AMNE18.jpg,AMSA13.jpg,MS,2,num_2,32,num_8,1.01675543132,,,2017_Oct_18_1453,59.993592309,FEMA4ImagesEEG,001,102061,
AFSA21.JPG,AFNE22.JPG,AFNE21.JPG,AFSA23.JPG,AFSA22.JPG,AFNE23.JPG,,,,,0,9,9,0,,,,,,,,,,,,,,,,,,,AMNE11.jpg,AMNE20.jpg,AMSA14.jpg,AMSA07.jpg,AMNE11.jpg,MN,1,num_8,32,num_2,1.39996183201,,,2017_Oct_18_1453,59.993592309,FEMA4ImagesEEG,001,102061,
AFSA25.JPG,AFNE24.JPG,AFSA24.JPG,AFNE21.JPG,AFSA21.JPG,AFNE25.JPG,,,,,,,,,0,0,0,2,,,,,,,,,,,,,,,AFNE03.jpg,AFSA20.jpg,AFNE17.jpg,AFSA11.jpg,AFSA20.jpg,FS,4,num_6,16,num_6,0.866750379675,,,2017_Oct_18_1453,59.993592309,FEMA4ImagesEEG,001,102061,
AFSA21.JPG,AFNE23.JPG,AFNE21.JPG,AFSA25.JPG,AFNE25.JPG,AFSA23.JPG,,,,,,,,,0,1,1,4,,,,,,,,,,,,,,,AFNE16.jpg,AFSA07.jpg,AFNE19.jpg,AFSA16.jpg,AFNE16.jpg,FN,3,num_8,32,num_4,1.40007761895,,,2017_Oct_18_1453,59.993592309,FEMA4ImagesEEG,001,102061,
AFNE23.JPG,AFNE24.JPG,AFNE22.JPG,AFSA24.JPG,AFSA22.JPG,AFSA23.JPG,,,,,,,,,0,2,2,8,,,,,,,,,,,,,,,AFNE15.jpg,AFSA02.jpg,AFSA03.jpg,AFNE09.jpg,AFNE15.jpg,FN,3,num_8,32,num_2,1.25005909626,,,2017_Oct_18_1453,59.993592309,FEMA4ImagesEEG,001,102061,
AFSA21.JPG,AFNE22.JPG,AFNE21.JPG,AFSA23.JPG,AFSA22.JPG,AFNE23.JPG,,,,,,,,,0,3,3,0,,,,,,,,,,,,,,,AFSA05.jpg,AFSA06.jpg,AFNE03.jpg,AFNE11.jpg,AFNE03.jpg,FN,3,num_2,32,num_4,1.16672167349,,,2017_Oct_18_1453,59.993592309,FEMA4ImagesEEG,001,102061,
AMSA21.JPG,AMNE23.JPG,AMNE21.JPG,AMSA25.JPG,AMNE25.JPG,AMSA23.JPG,,,,,,,,,0,4,4,5,,,,,,,,,,,,,,,AFSA03.jpg,AFNE17.jpg,AFNE13.jpg,AFSA20.jpg,AFNE13.jpg,FN,3,num_2,32,num_4,1.11671774443,,,2017_Oct_18_1453,59.993592309,FEMA4ImagesEEG,001,102061,
AMNE23.JPG,AMNE24.JPG,AMNE22.JPG,AMSA24.JPG,AMSA22.JPG,AMSA23.JPG,,,,,,,,,0,5,5,9,,,,,,,,,,,,,,,AFNE16.jpg,AFSA13.jpg,AFSA07.jpg,AFNE01.jpg,AFSA07.jpg,FS,4,num_2,32,num_6,0.850109131614,,,2017_Oct_18_1453,59.993592309,FEMA4ImagesEEG,001,102061,
AMSA25.JPG,AMNE24.JPG,AMSA24.JPG,AMNE26.JPG,AMSA21.JPG,AMNE25.JPG,,,,,,,,,0,6,6,3,,,,,,,,,,,,,,,AFNE10.jpg,AFSA16.jpg,AFNE14.jpg,AFSA19.jpg,AFSA16.jpg,FS,4,num_6,32,num_4,1.16673899342,,,2017_Oct_18_1453,59.993592309,FEMA4ImagesEEG,001,102061,
AFNE22.JPG,AFSA24.JPG,AFSA22.JPG,AFNE25.JPG,AFNE24.JPG,AFSA25.JPG,,,,,,,,,0,7,7,6,,,,,,,,,,,,,,,AFSA02.jpg,AFSA13.jpg,AFNE15.jpg,AFNE20.jpg,AFSA13.jpg,FS,4,num_6,32,num_2,0.883388741087,,,2017_Oct_18_1453,59.993592309,FEMA4ImagesEEG,001,102061,
AMNE22.JPG,AMSA24.JPG,AMSA22.JPG,AMNE25.JPG,AMNE24.JPG,AMSA25.JPG,,,,,,,,,0,8,8,7,,,,,,,,,,,,,,,AFNE07.jpg,AFSA20.jpg,AFSA04.jpg,AFNE15.jpg,AFNE15.jpg,FN,3,num_4,16,num_4,0.700132305035,,,2017_Oct_18_1453,59.993592309,FEMA4ImagesEEG,001,102061,
AMSA21.JPG,AMNE22.JPG,AMNE21.JPG,AMSA23.JPG,AMSA22.JPG,AMNE23.JPG,,,,,,,,,0,9,9,1,,,,,,,,,,,,,,,AFNE04.jpg,AFSA04.jpg,AFSA20.jpg,AFNE01.jpg,AFSA20.jpg,FS,4,num_2,32,num_6,1.16678229326,,,2017_Oct_18_1453,59.993592309,FEMA4ImagesEEG,001,102061,
AMSA25.JPG,AMNE24.JPG,AMSA24.JPG,AMNE26.JPG,AMSA21.JPG,AMNE25.JPG,,,,,,,,,,,,,0,0,0,3,,,,,,,,,,,AMSA16.jpg,AMNE19.jpg,AMSA14.jpg,AMNE13.jpg,AMNE13.jpg,MN,1,num_4,32,num_6,1.26663908307,,,2017_Oct_18_1453,59.993592309,FEMA4ImagesEEG,001,102061,
AMNE22.JPG,AMSA24.JPG,AMSA22.JPG,AMNE25.JPG,AMNE24.JPG,AMSA25.JPG,,,,,,,,,,,,,0,1,1,7,,,,,,,,,,,AMNE11.jpg,AMSA08.jpg,AMSA14.jpg,AMNE16.jpg,AMNE16.jpg,MN,1,num_4,16,num_4,0.833470128739,,,2017_Oct_18_1453,59.993592309,FEMA4ImagesEEG,001,102061,
AMSA21.JPG,AMNE23.JPG,AMNE21.JPG,AMSA25.JPG,AMNE25.JPG,AMSA23.JPG,,,,,,,,,,,,,0,2,2,5,,,,,,,,,,,AMSA01.jpg,AMNE16.jpg,AMNE06.jpg,AMSA09.jpg,AMNE06.jpg,MN,1,num_2,16,num_2,0.900009461824,,,2017_Oct_18_1453,59.993592309,FEMA4ImagesEEG,001,102061,
AFNE22.JPG,AFSA24.JPG,AFSA22.JPG,AFNE25.JPG,AFNE24.JPG,AFSA25.JPG,,,,,,,,,,,,,0,3,3,6,,,,,,,,,,,AMSA09.jpg,AMNE06.jpg,AMSA06.jpg,AMNE20.jpg,AMNE20.jpg,MN,1,num_4,16,num_4,0.866671157011,,,2017_Oct_18_1453,59.993592309,FEMA4ImagesEEG,001,102061,
AFSA21.JPG,AFNE23.JPG,AFNE21.JPG,AFSA25.JPG,AFNE25.JPG,AFSA23.JPG,,,,,,,,,,,,,0,4,4,4,,,,,,,,,,,AMNE02.jpg,AMSA06.jpg,AMNE20.jpg,AMSA08.jpg,AMNE02.jpg,MN,1,num_8,32,num_6,0.866803622441,,,2017_Oct_18_1453,59.993592309,FEMA4ImagesEEG,001,102061,
AFSA21.JPG,AFNE22.JPG,AFNE21.JPG,AFSA23.JPG,AFSA22.JPG,AFNE23.JPG,,,,,,,,,,,,,0,5,5,0,,,,,,,,,,,AMNE18.jpg,AMSA12.jpg,AMNE19.jpg,AMSA11.jpg,AMNE19.jpg,MN,1,num_2,32,num_8,0.883446474196,,,2017_Oct_18_1453,59.993592309,FEMA4ImagesEEG,001,102061,
AMNE23.JPG,AMNE24.JPG,AMNE22.JPG,AMSA24.JPG,AMSA22.JPG,AMSA23.JPG,,,,,,,,,,,,,0,6,6,9,,,,,,,,,,,AMSA01.jpg,AMNE20.jpg,AMSA18.jpg,AMNE03.jpg,AMNE20.jpg,MN,1,num_6,16,num_6,0.750229569283,,,2017_Oct_18_1453,59.993592309,FEMA4ImagesEEG,001,102061,
AFSA25.JPG,AFNE24.JPG,AFSA24.JPG,AFNE21.JPG,AFSA21.JPG,AFNE25.JPG,,,,,,,,,,,,,0,7,7,2,,,,,,,,,,,AMNE11.jpg,AMSA06.jpg,AMNE04.jpg,AMSA02.jpg,AMSA06.jpg,MS,2,num_6,16,num_6,0.916800815961,,,2017_Oct_18_1453,59.993592309,FEMA4ImagesEEG,001,102061,
AMSA21.JPG,AMNE22.JPG,AMNE21.JPG,AMSA23.JPG,AMSA22.JPG,AMNE23.JPG,,,,,,,,,,,,,0,8,8,1,,,,,,,,,,,AMSA17.jpg,AMNE10.jpg,AMNE19.jpg,AMSA05.jpg,AMSA05.jpg,MS,2,num_4,32,num_6,0.683593052134,,,2017_Oct_18_1453,59.993592309,FEMA4ImagesEEG,001,102061,
AFNE23.JPG,AFNE24.JPG,AFNE22.JPG,AFSA24.JPG,AFSA22.JPG,AFSA23.JPG,,,,,,,,,,,,,0,9,9,8,,,,,,,,,,,AMSA15.jpg,AMSA07.jpg,AMNE18.jpg,AMNE09.jpg,AMNE09.jpg,MN,1,num_4,16,num_4,0.699791358958,,,2017_Oct_18_1453,59.993592309,FEMA4ImagesEEG,001,102061,
AMSA21.JPG,AMNE22.JPG,AMNE21.JPG,AMSA23.JPG,AMSA22.JPG,AMNE23.JPG,,,,,,,,,,,,,,,,,0,0,0,1,,,,,,,AFSA15.jpg,AFNE09.jpg,AFSA14.jpg,AFNE10.jpg,AFSA14.jpg,FS,4,num_2,32,num_6,0.500174001179,,,2017_Oct_18_1453,59.993592309,FEMA4ImagesEEG,001,102061,
AMNE23.JPG,AMNE24.JPG,AMNE22.JPG,AMSA24.JPG,AMSA22.JPG,AMSA23.JPG,,,,,,,,,,,,,,,,,0,1,1,9,,,,,,,AFSA09.jpg,AFSA17.jpg,AFNE07.jpg,AFNE17.jpg,AFSA17.jpg,FS,4,num_6,32,num_4,1.26687258141,,,2017_Oct_18_1453,59.993592309,FEMA4ImagesEEG,001,102061,
AFSA21.JPG,AFNE23.JPG,AFNE21.JPG,AFSA25.JPG,AFNE25.JPG,AFSA23.JPG,,,,,,,,,,,,,,,,,0,2,2,4,,,,,,,AFSA05.jpg,AFSA02.jpg,AFNE02.jpg,AFNE15.jpg,AFSA05.jpg,FS,4,num_8,32,num_6,1.41677371347,,,2017_Oct_18_1453,59.993592309,FEMA4ImagesEEG,001,102061,
AMSA21.JPG,AMNE23.JPG,AMNE21.JPG,AMSA25.JPG,AMNE25.JPG,AMSA23.JPG,,,,,,,,,,,,,,,,,0,3,3,5,,,,,,,AFNE17.jpg,AFSA06.jpg,AFNE07.jpg,AFSA13.jpg,AFSA13.jpg,FS,4,num_4,32,num_8,1.05010303756,,,2017_Oct_18_1453,59.993592309,FEMA4ImagesEEG,001,102061,
AFNE23.JPG,AFNE24.JPG,AFNE22.JPG,AFSA24.JPG,AFSA22.JPG,AFSA23.JPG,,,,,,,,,,,,,,,,,0,4,4,8,,,,,,,AFNE03.jpg,AFNE02.jpg,AFSA09.jpg,AFSA18.jpg,AFSA18.jpg,FS,4,num_4,16,num_4,0.65012356489,,,2017_Oct_18_1453,59.993592309,FEMA4ImagesEEG,001,102061,
AMSA25.JPG,AMNE24.JPG,AMSA24.JPG,AMNE26.JPG,AMSA21.JPG,AMNE25.JPG,,,,,,,,,,,,,,,,,0,5,5,3,,,,,,,AFNE15.jpg,AFNE13.jpg,AFSA09.jpg,AFSA18.jpg,AFSA09.jpg,FS,4,num_2,16,num_2,0.866760322606,,,2017_Oct_18_1453,59.993592309,FEMA4ImagesEEG,001,102061,
AFSA25.JPG,AFNE24.JPG,AFSA24.JPG,AFNE21.JPG,AFSA21.JPG,AFNE25.JPG,,,,,,,,,,,,,,,,,0,6,6,2,,,,,,,AFSA03.jpg,AFNE12.jpg,AFNE13.jpg,AFSA19.jpg,AFNE13.jpg,FN,3,num_2,32,num_6,0.750117310468,,,2017_Oct_18_1453,59.993592309,FEMA4ImagesEEG,001,102061,
AMNE22.JPG,AMSA24.JPG,AMSA22.JPG,AMNE25.JPG,AMNE24.JPG,AMSA25.JPG,,,,,,,,,,,,,,,,,0,7,7,7,,,,,,,AFNE18.jpg,AFNE04.jpg,AFSA12.jpg,AFSA15.jpg,AFSA12.jpg,FS,4,num_2,32,num_8,1.03350893821,,,2017_Oct_18_1453,59.993592309,FEMA4ImagesEEG,001,102061,
AFSA21.JPG,AFNE22.JPG,AFNE21.JPG,AFSA23.JPG,AFSA22.JPG,AFNE23.JPG,,,,,,,,,,,,,,,,,0,8,8,0,,,,,,,AFSA14.jpg,AFNE16.jpg,AFSA01.jpg,AFNE10.jpg,AFNE16.jpg,FN,3,num_6,32,num_4,0.999961511247,,,2017_Oct_18_1453,59.993592309,FEMA4ImagesEEG,001,102061,
AFNE22.JPG,AFSA24.JPG,AFSA22.JPG,AFNE25.JPG,AFNE24.JPG,AFSA25.JPG,,,,,,,,,,,,,,,,,0,9,9,6,,,,,,,AFNE08.jpg,AFSA12.jpg,AFSA02.jpg,AFNE19.jpg,AFSA02.jpg,FS,4,num_2,32,num_6,1.43341432005,,,2017_Oct_18_1453,59.993592309,FEMA4ImagesEEG,001,102061,
AMSA25.JPG,AMNE24.JPG,AMSA24.JPG,AMNE26.JPG,AMSA21.JPG,AMNE25.JPG,,,,,,,,,,,,,,,,,,,,,0,0,0,3,,,AMSA09.jpg,AMNE10.jpg,AMSA11.jpg,AMNE17.jpg,AMNE17.jpg,MN,1,num_4,32,num_6,0.866542540476,,,2017_Oct_18_1453,59.993592309,FEMA4ImagesEEG,001,102061,
AFSA21.JPG,AFNE22.JPG,AFNE21.JPG,AFSA23.JPG,AFSA22.JPG,AFNE23.JPG,,,,,,,,,,,,,,,,,,,,,0,1,1,0,,,AMSA18.jpg,AMNE14.jpg,AMNE08.jpg,AMSA07.jpg,AMSA18.jpg,MS,2,num_8,32,num_4,0.616779807518,,,2017_Oct_18_1453,59.993592309,FEMA4ImagesEEG,001,102061,
AMNE23.JPG,AMNE24.JPG,AMNE22.JPG,AMSA24.JPG,AMSA22.JPG,AMSA23.JPG,,,,,,,,,,,,,,,,,,,,,0,2,2,9,,,AMSA17.jpg,AMSA08.jpg,AMNE11.jpg,AMNE07.jpg,AMSA08.jpg,MS,2,num_6,16,num_6,1.05008443468,,,2017_Oct_18_1453,59.993592309,FEMA4ImagesEEG,001,102061,
AFNE23.JPG,AFNE24.JPG,AFNE22.JPG,AFSA24.JPG,AFSA22.JPG,AFSA23.JPG,,,,,,,,,,,,,,,,,,,,,0,3,3,8,,,AMNE12.jpg,AMNE11.jpg,AMSA19.jpg,AMSA15.jpg,AMSA15.jpg,MS,2,num_4,32,num_2,1.11686656755,,,2017_Oct_18_1453,59.993592309,FEMA4ImagesEEG,001,102061,
AMSA21.JPG,AMNE22.JPG,AMNE21.JPG,AMSA23.JPG,AMSA22.JPG,AMNE23.JPG,,,,,,,,,,,,,,,,,,,,,0,4,4,1,,,AMNE07.jpg,AMNE02.jpg,AMSA19.jpg,AMSA14.jpg,AMNE02.jpg,MN,1,num_6,32,num_8,1.38339627846,,,2017_Oct_18_1453,59.993592309,FEMA4ImagesEEG,001,102061,
AFNE22.JPG,AFSA24.JPG,AFSA22.JPG,AFNE25.JPG,AFNE24.JPG,AFSA25.JPG,,,,,,,,,,,,,,,,,,,,,0,5,5,6,,,AMSA18.jpg,AMNE18.jpg,AMNE12.jpg,AMSA16.jpg,AMSA16.jpg,MS,2,num_4,32,num_8,1.05008892503,,,2017_Oct_18_1453,59.993592309,FEMA4ImagesEEG,001,102061,
AMNE22.JPG,AMSA24.JPG,AMSA22.JPG,AMNE25.JPG,AMNE24.JPG,AMSA25.JPG,,,,,,,,,,,,,,,,,,,,,0,6,6,7,,,AMSA01.jpg,AMSA20.jpg,AMNE13.jpg,AMNE14.jpg,AMNE14.jpg,MN,1,num_4,16,num_4,1.3500996698,,,2017_Oct_18_1453,59.993592309,FEMA4ImagesEEG,001,102061,
AFSA25.JPG,AFNE24.JPG,AFSA24.JPG,AFNE21.JPG,AFSA21.JPG,AFNE25.JPG,,,,,,,,,,,,,,,,,,,,,0,7,7,2,,,AMSA01.jpg,AMNE17.jpg,AMSA17.jpg,AMNE07.jpg,AMSA01.jpg,MS,2,num_8,32,num_6,0.500095419993,,,2017_Oct_18_1453,59.993592309,FEMA4ImagesEEG,001,102061,
AMSA21.JPG,AMNE23.JPG,AMNE21.JPG,AMSA25.JPG,AMNE25.JPG,AMSA23.JPG,,,,,,,,,,,,,,,,,,,,,0,8,8,5,,,AMSA14.jpg,AMSA17.jpg,AMNE08.jpg,AMNE12.jpg,AMSA17.jpg,MS,2,num_6,32,num_2,0.883473737049,,,2017_Oct_18_1453,59.993592309,FEMA4ImagesEEG,001,102061,
AFSA21.JPG,AFNE23.JPG,AFNE21.JPG,AFSA25.JPG,AFNE25.JPG,AFSA23.JPG,,,,,,,,,,,,,,,,,,,,,0,9,9,4,,,AMNE09.jpg,AMSA09.jpg,AMSA17.jpg,AMNE07.jpg,AMSA09.jpg,MS,2,num_6,32,num_4,1.15010383942,,,2017_Oct_18_1453,59.993592309,FEMA4ImagesEEG,001,102061,
,,,,,,,,,,,,,,,,,,,,,,,,,,,,,,,,,,,,,,,,,,,space,15.0820278434,2017_Oct_18_1453,59.993592309,FEMA4ImagesEEG,001,102061,
AFNE01.JPG,AFNE01.JPG,AFNE01.JPG,AFNE01.JPG,AFNE01.JPG,AFNE01.JPG,0,0,0,7,,,,,,,,,,,,,,,,,,,,,,,AFSA13.jpg,AFNE07.jpg,AFNE09.jpg,AFSA01.jpg,AFSA01.jpg,FS,4,num_4,16,num_4,0.783452087126,,,2017_Oct_18_1453,59.993592309,FEMA4ImagesEEG,001,102061,
AFNE01.JPG,AFNE01.JPG,AFNE01.JPG,AFNE01.JPG,AFNE01.JPG,AFNE01.JPG,0,1,1,6,,,,,,,,,,,,,,,,,,,,,,,AFNE18.jpg,AFNE13.jpg,AFSA14.jpg,AFSA12.jpg,AFSA12.jpg,FS,4,num_4,16,num_4,0.633427149631,,,2017_Oct_18_1453,59.993592309,FEMA4ImagesEEG,001,102061,
AFNE01.JPG,AFNE01.JPG,AFNE01.JPG,AFNE01.JPG,AFNE01.JPG,AFNE01.JPG,0,2,2,1,,,,,,,,,,,,,,,,,,,,,,,AFSA03.jpg,AFNE11.jpg,AFSA19.jpg,AFNE02.jpg,AFSA19.jpg,FS,4,num_2,32,num_6,0.750149384417,,,2017_Oct_18_1453,59.993592309,FEMA4ImagesEEG,001,102061,
AFNE01.JPG,AFNE01.JPG,AFNE01.JPG,AFNE01.JPG,AFNE01.JPG,AFNE01.JPG,0,3,3,2,,,,,,,,,,,,,,,,,,,,,,,AFNE16.jpg,AFSA02.jpg,AFNE03.jpg,AFSA13.jpg,AFSA02.jpg,FS,4,num_6,32,num_8,1.13350236304,,,2017_Oct_18_1453,59.993592309,FEMA4ImagesEEG,001,102061,
AFNE01.JPG,AFNE01.JPG,AFNE01.JPG,AFNE01.JPG,AFNE01.JPG,AFNE01.JPG,0,4,4,4,,,,,,,,,,,,,,,,,,,,,,,AFSA15.jpg,AFNE02.jpg,AFSA16.jpg,AFNE08.jpg,AFSA16.jpg,FS,4,num_2,16,num_2,1.00009333518,,,2017_Oct_18_1453,59.993592309,FEMA4ImagesEEG,001,102061,
AFNE01.JPG,AFNE01.JPG,AFNE01.JPG,AFNE01.JPG,AFNE01.JPG,AFNE01.JPG,0,5,5,5,,,,,,,,,,,,,,,,,,,,,,,AFNE16.jpg,AFNE07.jpg,AFSA17.jpg,AFSA07.jpg,AFNE16.jpg,FN,3,num_8,32,num_6,0.833630177731,,,2017_Oct_18_1453,59.993592309,FEMA4ImagesEEG,001,102061,
AFNE01.JPG,AFNE01.JPG,AFNE01.JPG,AFNE01.JPG,AFNE01.JPG,AFNE01.JPG,0,6,6,9,,,,,,,,,,,,,,,,,,,,,,,AFNE07.jpg,AFNE09.jpg,AFSA20.jpg,AFSA13.jpg,AFNE09.jpg,FN,3,num_6,32,num_8,0.533421857428,,,2017_Oct_18_1453,59.993592309,FEMA4ImagesEEG,001,102061,
AFNE01.JPG,AFNE01.JPG,AFNE01.JPG,AFNE01.JPG,AFNE01.JPG,AFNE01.JPG,0,7,7,8,,,,,,,,,,,,,,,,,,,,,,,AFNE15.jpg,AFNE06.jpg,AFSA01.jpg,AFSA09.jpg,AFNE15.jpg,FN,3,num_8,32,num_2,2.18357236443,,,2017_Oct_18_1453,59.993592309,FEMA4ImagesEEG,001,102061,
AFNE01.JPG,AFNE01.JPG,AFNE01.JPG,AFNE01.JPG,AFNE01.JPG,AFNE01.JPG,0,8,8,3,,,,,,,,,,,,,,,,,,,,,,,AFNE19.jpg,AFSA08.jpg,AFSA15.jpg,AFNE07.jpg,AFSA08.jpg,FS,4,num_6,32,num_4,0.816878274549,,,2017_Oct_18_1453,59.993592309,FEMA4ImagesEEG,001,102061,
AFNE01.JPG,AFNE01.JPG,AFNE01.JPG,AFNE01.JPG,AFNE01.JPG,AFNE01.JPG,0,9,9,0,,,,,,,,,,,,,,,,,,,,,,,AFNE13.jpg,AFNE17.jpg,AFSA12.jpg,AFSA01.jpg,AFNE13.jpg,FN,3,num_8,32,num_2,1.13342281965,,,2017_Oct_18_1453,59.993592309,FEMA4ImagesEEG,001,102061,
AFNE01.JPG,AFNE01.JPG,AFNE01.JPG,AFNE01.JPG,AFNE01.JPG,AFNE01.JPG,1,0,10,2,,,,,,,,,,,,,,,,,,,,,,,AFNE03.jpg,AFSA14.jpg,AFNE10.jpg,AFSA13.jpg,AFNE10.jpg,FN,3,num_2,16,num_2,0.750086840228,,,2017_Oct_18_1453,59.993592309,FEMA4ImagesEEG,001,102061,
AFNE01.JPG,AFNE01.JPG,AFNE01.JPG,AFNE01.JPG,AFNE01.JPG,AFNE01.JPG,1,1,11,1,,,,,,,,,,,,,,,,,,,,,,,AFSA15.jpg,AFSA03.jpg,AFNE08.jpg,AFNE17.jpg,AFSA03.jpg,FS,4,num_6,16,num_6,1.1000995896,,,2017_Oct_18_1453,59.993592309,FEMA4ImagesEEG,001,102061,
AFNE01.JPG,AFNE01.JPG,AFNE01.JPG,AFNE01.JPG,AFNE01.JPG,AFNE01.JPG,1,2,12,5,,,,,,,,,,,,,,,,,,,,,,,AFNE06.jpg,AFNE16.jpg,AFSA06.jpg,AFSA20.jpg,AFSA20.jpg,FS,4,num_4,32,num_6,1.98340237251,,,2017_Oct_18_1453,59.993592309,FEMA4ImagesEEG,001,102061,
AFNE01.JPG,AFNE01.JPG,AFNE01.JPG,AFNE01.JPG,AFNE01.JPG,AFNE01.JPG,1,3,13,3,,,,,,,,,,,,,,,,,,,,,,,AFNE12.jpg,AFNE13.jpg,AFSA20.jpg,AFSA05.jpg,AFSA20.jpg,FS,4,num_2,16,num_2,0.583497311396,,,2017_Oct_18_1453,59.993592309,FEMA4ImagesEEG,001,102061,
AFNE01.JPG,AFNE01.JPG,AFNE01.JPG,AFNE01.JPG,AFNE01.JPG,AFNE01.JPG,1,4,14,6,,,,,,,,,,,,,,,,,,,,,,,AFNE03.jpg,AFSA12.jpg,AFNE06.jpg,AFSA15.jpg,AFSA15.jpg,FS,4,num_4,32,num_6,1.50013422949,,,2017_Oct_18_1453,59.993592309,FEMA4ImagesEEG,001,102061,
AFNE01.JPG,AFNE01.JPG,AFNE01.JPG,AFNE01.JPG,AFNE01.JPG,AFNE01.JPG,1,5,15,0,,,,,,,,,,,,,,,,,,,,,,,AFSA12.jpg,AFNE19.jpg,AFSA04.jpg,AFNE07.jpg,AFSA04.jpg,FS,4,num_2,32,num_8,0.933491778647,,,2017_Oct_18_1453,59.993592309,FEMA4ImagesEEG,001,102061,
AFNE01.JPG,AFNE01.JPG,AFNE01.JPG,AFNE01.JPG,AFNE01.JPG,AFNE01.JPG,1,6,16,7,,,,,,,,,,,,,,,,,,,,,,,AFNE05.jpg,AFSA10.jpg,AFNE09.jpg,AFSA07.jpg,AFSA07.jpg,FS,4,num_4,16,num_4,1.01674131877,,,2017_Oct_18_1453,59.993592309,FEMA4ImagesEEG,001,102061,
AFNE01.JPG,AFNE01.JPG,AFNE01.JPG,AFNE01.JPG,AFNE01.JPG,AFNE01.JPG,1,7,17,8,,,,,,,,,,,,,,,,,,,,,,,AFSA11.jpg,AFNE19.jpg,AFSA03.jpg,AFNE20.jpg,AFNE20.jpg,FN,3,num_4,32,num_8,1.28341407949,,,2017_Oct_18_1453,59.993592309,FEMA4ImagesEEG,001,102061,
AFNE01.JPG,AFNE01.JPG,AFNE01.JPG,AFNE01.JPG,AFNE01.JPG,AFNE01.JPG,1,8,18,9,,,,,,,,,,,,,,,,,,,,,,,AFNE06.jpg,AFSA16.jpg,AFNE01.jpg,AFSA14.jpg,AFSA14.jpg,FS,4,num_4,32,num_6,0.683464435599,,,2017_Oct_18_1453,59.993592309,FEMA4ImagesEEG,001,102061,
AFNE01.JPG,AFNE01.JPG,AFNE01.JPG,AFNE01.JPG,AFNE01.JPG,AFNE01.JPG,1,9,19,4,,,,,,,,,,,,,,,,,,,,,,,AFNE07.jpg,AFNE16.jpg,AFSA06.jpg,AFSA03.jpg,AFNE16.jpg,FN,3,num_6,32,num_4,0.566760482965,,,2017_Oct_18_1453,59.993592309,FEMA4ImagesEEG,001,102061,
AFNE01.JPG,AFNE01.JPG,AFNE01.JPG,AFNE01.JPG,AFNE01.JPG,AFNE01.JPG,2,0,20,4,,,,,,,,,,,,,,,,,,,,,,,AFSA05.jpg,AFNE10.jpg,AFNE19.jpg,AFSA16.jpg,AFSA05.jpg,FS,4,num_8,16,num_8,1.20003207395,,,2017_Oct_18_1453,59.993592309,FEMA4ImagesEEG,001,102061,
AFNE01.JPG,AFNE01.JPG,AFNE01.JPG,AFNE01.JPG,AFNE01.JPG,AFNE01.JPG,2,1,21,6,,,,,,,,,,,,,,,,,,,,,,,AFSA14.jpg,AFNE12.jpg,AFSA07.jpg,AFNE01.jpg,AFSA07.jpg,FS,4,num_2,32,num_6,0.733444950674,,,2017_Oct_18_1453,59.993592309,FEMA4ImagesEEG,001,102061,
AFNE01.JPG,AFNE01.JPG,AFNE01.JPG,AFNE01.JPG,AFNE01.JPG,AFNE01.JPG,2,2,22,3,,,,,,,,,,,,,,,,,,,,,,,AFSA17.jpg,AFSA20.jpg,AFNE06.jpg,AFNE20.jpg,AFNE20.jpg,FN,3,num_4,16,num_4,0.816747092103,,,2017_Oct_18_1453,59.993592309,FEMA4ImagesEEG,001,102061,
AFNE01.JPG,AFNE01.JPG,AFNE01.JPG,AFNE01.JPG,AFNE01.JPG,AFNE01.JPG,2,3,23,2,,,,,,,,,,,,,,,,,,,,,,,AFNE14.jpg,AFNE20.jpg,AFSA05.jpg,AFSA01.jpg,AFSA05.jpg,FS,4,num_2,16,num_2,2.05004883258,,,2017_Oct_18_1453,59.993592309,FEMA4ImagesEEG,001,102061,
AFNE01.JPG,AFNE01.JPG,AFNE01.JPG,AFNE01.JPG,AFNE01.JPG,AFNE01.JPG,2,4,24,0,,,,,,,,,,,,,,,,,,,,,,,AFNE16.jpg,AFSA10.jpg,AFNE19.jpg,AFSA02.jpg,AFNE16.jpg,FN,3,num_8,32,num_6,1.21681380591,,,2017_Oct_18_1453,59.993592309,FEMA4ImagesEEG,001,102061,
AFNE01.JPG,AFNE01.JPG,AFNE01.JPG,AFNE01.JPG,AFNE01.JPG,AFNE01.JPG,2,5,25,5,,,,,,,,,,,,,,,,,,,,,,,AFSA10.jpg,AFSA19.jpg,AFNE18.jpg,AFNE16.jpg,AFSA10.jpg,FS,4,num_8,32,num_2,1.06672504125,,,2017_Oct_18_1453,59.993592309,FEMA4ImagesEEG,001,102061,
AFNE01.JPG,AFNE01.JPG,AFNE01.JPG,AFNE01.JPG,AFNE01.JPG,AFNE01.JPG,2,6,26,7,,,,,,,,,,,,,,,,,,,,,,,AFNE09.jpg,AFSA03.jpg,AFSA09.jpg,AFNE08.jpg,AFSA09.jpg,FS,4,num_2,32,num_8,0.616738111392,,,2017_Oct_18_1453,59.993592309,FEMA4ImagesEEG,001,102061,
AFNE01.JPG,AFNE01.JPG,AFNE01.JPG,AFNE01.JPG,AFNE01.JPG,AFNE01.JPG,2,7,27,9,,,,,,,,,,,,,,,,,,,,,,,AFSA02.jpg,AFSA01.jpg,AFNE02.jpg,AFNE10.jpg,AFNE02.jpg,FN,3,num_2,16,num_2,1.10022564024,,,2017_Oct_18_1453,59.993592309,FEMA4ImagesEEG,001,102061,
AFNE01.JPG,AFNE01.JPG,AFNE01.JPG,AFNE01.JPG,AFNE01.JPG,AFNE01.JPG,2,8,28,8,,,,,,,,,,,,,,,,,,,,,,,AFSA11.jpg,AFNE08.jpg,AFNE12.jpg,AFSA01.jpg,AFSA11.jpg,FS,4,num_8,32,num_6,1.26678245363,,,2017_Oct_18_1453,59.993592309,FEMA4ImagesEEG,001,102061,
AFNE01.JPG,AFNE01.JPG,AFNE01.JPG,AFNE01.JPG,AFNE01.JPG,AFNE01.JPG,2,9,29,1,,,,,,,,,,,,,,,,,,,,,,,AFNE16.jpg,AFNE11.jpg,AFSA03.jpg,AFSA20.jpg,AFSA20.jpg,FS,4,num_4,32,num_6,0.966777802896,,,2017_Oct_18_1453,59.993592309,FEMA4ImagesEEG,001,102061,
AFNE01.JPG,AFNE01.JPG,AFNE01.JPG,AFNE01.JPG,AFNE01.JPG,AFNE01.JPG,3,0,30,2,,,,,,,,,,,,,,,,,,,,,,,AFNE06.jpg,AFSA12.jpg,AFNE10.jpg,AFSA13.jpg,AFSA12.jpg,FS,4,num_6,16,num_6,1.98333309278,,,2017_Oct_18_1453,59.993592309,FEMA4ImagesEEG,001,102061,
AFNE01.JPG,AFNE01.JPG,AFNE01.JPG,AFNE01.JPG,AFNE01.JPG,AFNE01.JPG,3,1,31,7,,,,,,,,,,,,,,,,,,,,,,,AFNE19.jpg,AFSA18.jpg,AFSA05.jpg,AFNE11.jpg,AFNE19.jpg,FN,3,num_8,16,num_8,0.850095981295,,,2017_Oct_18_1453,59.993592309,FEMA4ImagesEEG,001,102061,
AFNE01.JPG,AFNE01.JPG,AFNE01.JPG,AFNE01.JPG,AFNE01.JPG,AFNE01.JPG,3,2,32,1,,,,,,,,,,,,,,,,,,,,,,,AFSA10.jpg,AFNE03.jpg,AFSA03.jpg,AFNE09.jpg,AFNE09.jpg,FN,3,num_4,16,num_4,1.06680522613,,,2017_Oct_18_1453,59.993592309,FEMA4ImagesEEG,001,102061,
AFNE01.JPG,AFNE01.JPG,AFNE01.JPG,AFNE01.JPG,AFNE01.JPG,AFNE01.JPG,3,3,33,0,,,,,,,,,,,,,,,,,,,,,,,AFSA06.jpg,AFNE19.jpg,AFNE14.jpg,AFSA17.jpg,AFSA06.jpg,FS,4,num_8,32,num_2,1.23347558131,,,2017_Oct_18_1453,59.993592309,FEMA4ImagesEEG,001,102061,
AFNE01.JPG,AFNE01.JPG,AFNE01.JPG,AFNE01.JPG,AFNE01.JPG,AFNE01.JPG,3,4,34,9,,,,,,,,,,,,,,,,,,,,,,,AFNE06.jpg,AFNE20.jpg,AFSA17.jpg,AFSA06.jpg,AFSA06.jpg,FS,4,num_4,16,num_4,0.566781331043,,,2017_Oct_18_1453,59.993592309,FEMA4ImagesEEG,001,102061,
AFNE01.JPG,AFNE01.JPG,AFNE01.JPG,AFNE01.JPG,AFNE01.JPG,AFNE01.JPG,3,5,35,5,,,,,,,,,,,,,,,,,,,,,,,AFNE03.jpg,AFSA01.jpg,AFNE14.jpg,AFSA04.jpg,AFNE14.jpg,FN,3,num_2,32,num_8,0.850076736926,,,2017_Oct_18_1453,59.993592309,FEMA4ImagesEEG,001,102061,
AFNE01.JPG,AFNE01.JPG,AFNE01.JPG,AFNE01.JPG,AFNE01.JPG,AFNE01.JPG,3,6,36,3,,,,,,,,,,,,,,,,,,,,,,,AFSA17.jpg,AFNE18.jpg,AFNE13.jpg,AFSA16.jpg,AFSA17.jpg,FS,4,num_8,32,num_6,0.750014673831,,,2017_Oct_18_1453,59.993592309,FEMA4ImagesEEG,001,102061,
AFNE01.JPG,AFNE01.JPG,AFNE01.JPG,AFNE01.JPG,AFNE01.JPG,AFNE01.JPG,3,7,37,4,,,,,,,,,,,,,,,,,,,,,,,AFNE11.jpg,AFSA18.jpg,AFSA16.jpg,AFNE02.jpg,AFSA16.jpg,FS,4,num_2,16,num_2,0.983437974603,,,2017_Oct_18_1453,59.993592309,FEMA4ImagesEEG,001,102061,
AFNE01.JPG,AFNE01.JPG,AFNE01.JPG,AFNE01.JPG,AFNE01.JPG,AFNE01.JPG,3,8,38,6,,,,,,,,,,,,,,,,,,,,,,,AFSA04.jpg,AFNE09.jpg,AFSA02.jpg,AFNE16.jpg,AFSA04.jpg,FS,4,num_8,16,num_8,0.98348576478,,,2017_Oct_18_1453,59.993592309,FEMA4ImagesEEG,001,102061,
AFNE01.JPG,AFNE01.JPG,AFNE01.JPG,AFNE01.JPG,AFNE01.JPG,AFNE01.JPG,3,9,39,8,,,,,,,,,,,,,,,,,,,,,,,AFSA06.jpg,AFNE15.jpg,AFSA04.jpg,AFNE10.jpg,AFSA04.jpg,FS,4,num_2,32,num_8,1.05009245317,,,2017_Oct_18_1453,59.993592309,FEMA4ImagesEEG,001,102061,
AFNE01.JPG,AFNE01.JPG,AFNE01.JPG,AFNE01.JPG,AFNE01.JPG,AFNE01.JPG,4,0,40,1,,,,,,,,,,,,,,,,,,,,,,,AFNE03.jpg,AFSA06.jpg,AFSA13.jpg,AFNE16.jpg,AFSA06.jpg,FS,4,num_6,32,num_4,0.416780769738,,,2017_Oct_18_1453,59.993592309,FEMA4ImagesEEG,001,102061,
AFNE01.JPG,AFNE01.JPG,AFNE01.JPG,AFNE01.JPG,AFNE01.JPG,AFNE01.JPG,4,1,41,4,,,,,,,,,,,,,,,,,,,,,,,AFNE02.jpg,AFSA20.jpg,AFSA16.jpg,AFNE05.jpg,AFSA16.jpg,FS,4,num_2,16,num_2,0.733333333337,,,2017_Oct_18_1453,59.993592309,FEMA4ImagesEEG,001,102061,
AFNE01.JPG,AFNE01.JPG,AFNE01.JPG,AFNE01.JPG,AFNE01.JPG,AFNE01.JPG,4,2,42,8,,,,,,,,,,,,,,,,,,,,,,,AFSA02.jpg,AFSA04.jpg,AFNE14.jpg,AFNE19.jpg,AFSA02.jpg,FS,4,num_8,32,num_4,0.433603556361,,,2017_Oct_18_1453,59.993592309,FEMA4ImagesEEG,001,102061,
AFNE01.JPG,AFNE01.JPG,AFNE01.JPG,AFNE01.JPG,AFNE01.JPG,AFNE01.JPG,4,3,43,9,,,,,,,,,,,,,,,,,,,,,,,AFSA05.jpg,AFNE02.jpg,AFNE13.jpg,AFSA11.jpg,AFNE02.jpg,FN,3,num_6,16,num_6,0.700129739125,,,2017_Oct_18_1453,59.993592309,FEMA4ImagesEEG,001,102061,
AFNE01.JPG,AFNE01.JPG,AFNE01.JPG,AFNE01.JPG,AFNE01.JPG,AFNE01.JPG,4,4,44,3,,,,,,,,,,,,,,,,,,,,,,,AFNE05.jpg,AFSA04.jpg,AFNE11.jpg,AFSA16.jpg,AFNE05.jpg,FN,3,num_8,16,num_8,0.750123083781,,,2017_Oct_18_1453,59.993592309,FEMA4ImagesEEG,001,102061,
AFNE01.JPG,AFNE01.JPG,AFNE01.JPG,AFNE01.JPG,AFNE01.JPG,AFNE01.JPG,4,5,45,7,,,,,,,,,,,,,,,,,,,,,,,AFSA03.jpg,AFSA19.jpg,AFNE13.jpg,AFNE19.jpg,AFSA19.jpg,FS,4,num_6,32,num_4,2.13334840808,,,2017_Oct_18_1453,59.993592309,FEMA4ImagesEEG,001,102061,
AFNE01.JPG,AFNE01.JPG,AFNE01.JPG,AFNE01.JPG,AFNE01.JPG,AFNE01.JPG,4,6,46,6,,,,,,,,,,,,,,,,,,,,,,,AFNE03.jpg,AFSA02.jpg,AFNE02.jpg,AFSA08.jpg,AFNE03.jpg,FN,3,num_8,16,num_8,1.30012813544,,,2017_Oct_18_1453,59.993592309,FEMA4ImagesEEG,001,102061,
AFNE01.JPG,AFNE01.JPG,AFNE01.JPG,AFNE01.JPG,AFNE01.JPG,AFNE01.JPG,4,7,47,0,,,,,,,,,,,,,,,,,,,,,,,AFSA02.jpg,AFNE05.jpg,AFNE12.jpg,AFSA18.jpg,AFNE05.jpg,FN,3,num_6,16,num_6,0.616794882269,,,2017_Oct_18_1453,59.993592309,FEMA4ImagesEEG,001,102061,
AFNE01.JPG,AFNE01.JPG,AFNE01.JPG,AFNE01.JPG,AFNE01.JPG,AFNE01.JPG,4,8,48,5,,,,,,,,,,,,,,,,,,,,,,,AFSA03.jpg,AFNE09.jpg,AFNE04.jpg,AFSA20.jpg,AFSA03.jpg,FS,4,num_8,32,num_6,0.666781170657,,,2017_Oct_18_1453,59.993592309,FEMA4ImagesEEG,001,102061,
AFNE01.JPG,AFNE01.JPG,AFNE01.JPG,AFNE01.JPG,AFNE01.JPG,AFNE01.JPG,4,9,49,2,,,,,,,,,,,,,,,,,,,,,,,AFSA11.jpg,AFNE15.jpg,AFSA07.jpg,AFNE18.jpg,AFSA07.jpg,FS,4,num_2,32,num_8,1.73340742417,,,2017_Oct_18_1453,59.993592309,FEMA4ImagesEEG,001,102061,
AFNE01.JPG,AFNE01.JPG,AFNE01.JPG,AFNE01.JPG,AFNE01.JPG,AFNE01.JPG,5,0,50,5,,,,,,,,,,,,,,,,,,,,,,,AFNE05.jpg,AFSA20.jpg,AFSA16.jpg,AFNE20.jpg,AFNE20.jpg,FN,3,num_4,32,num_6,0.316756233166,,,2017_Oct_18_1453,59.993592309,FEMA4ImagesEEG,001,102061,
AFNE01.JPG,AFNE01.JPG,AFNE01.JPG,AFNE01.JPG,AFNE01.JPG,AFNE01.JPG,5,1,51,1,,,,,,,,,,,,,,,,,,,,,,,AFNE20.jpg,AFSA08.jpg,AFNE03.jpg,AFSA16.jpg,AFNE20.jpg,FN,3,num_8,16,num_8,1.16675310596,,,2017_Oct_18_1453,59.993592309,FEMA4ImagesEEG,001,102061,
AFNE01.JPG,AFNE01.JPG,AFNE01.JPG,AFNE01.JPG,AFNE01.JPG,AFNE01.JPG,5,2,52,3,,,,,,,,,,,,,,,,,,,,,,,AFNE13.jpg,AFSA17.jpg,AFSA12.jpg,AFNE05.jpg,AFNE05.jpg,FN,3,num_4,16,num_4,0.616759600933,,,2017_Oct_18_1453,59.993592309,FEMA4ImagesEEG,001,102061,
AFNE01.JPG,AFNE01.JPG,AFNE01.JPG,AFNE01.JPG,AFNE01.JPG,AFNE01.JPG,5,3,53,8,,,,,,,,,,,,,,,,,,,,,,,AFNE06.jpg,AFSA01.jpg,AFSA08.jpg,AFNE16.jpg,AFNE16.jpg,FN,3,num_4,32,num_8,1.48343300313,,,2017_Oct_18_1453,59.993592309,FEMA4ImagesEEG,001,102061,
AFNE01.JPG,AFNE01.JPG,AFNE01.JPG,AFNE01.JPG,AFNE01.JPG,AFNE01.JPG,5,4,54,4,,,,,,,,,,,,,,,,,,,,,,,AFNE05.jpg,AFNE15.jpg,AFSA19.jpg,AFSA07.jpg,AFNE15.jpg,FN,3,num_6,32,num_4,0.733461629119,,,2017_Oct_18_1453,59.993592309,FEMA4ImagesEEG,001,102061,
AFNE01.JPG,AFNE01.JPG,AFNE01.JPG,AFNE01.JPG,AFNE01.JPG,AFNE01.JPG,5,5,55,7,,,,,,,,,,,,,,,,,,,,,,,AFNE02.jpg,AFNE01.jpg,AFSA14.jpg,AFSA16.jpg,AFNE01.jpg,FN,3,num_6,32,num_8,0.483501641385,,,2017_Oct_18_1453,59.993592309,FEMA4ImagesEEG,001,102061,
AFNE01.JPG,AFNE01.JPG,AFNE01.JPG,AFNE01.JPG,AFNE01.JPG,AFNE01.JPG,5,6,56,0,,,,,,,,,,,,,,,,,,,,,,,AFSA03.jpg,AFNE17.jpg,AFNE08.jpg,AFSA05.jpg,AFSA03.jpg,FS,4,num_8,32,num_4,0.316815569982,,,2017_Oct_18_1453,59.993592309,FEMA4ImagesEEG,001,102061,
AFNE01.JPG,AFNE01.JPG,AFNE01.JPG,AFNE01.JPG,AFNE01.JPG,AFNE01.JPG,5,7,57,2,,,,,,,,,,,,,,,,,,,,,,,AFSA07.jpg,AFNE10.jpg,AFNE12.jpg,AFSA01.jpg,AFNE10.jpg,FN,3,num_6,32,num_4,0.66681613127,,,2017_Oct_18_1453,59.993592309,FEMA4ImagesEEG,001,102061,
AFNE01.JPG,AFNE01.JPG,AFNE01.JPG,AFNE01.JPG,AFNE01.JPG,AFNE01.JPG,5,8,58,9,,,,,,,,,,,,,,,,,,,,,,,AFSA19.jpg,AFSA06.jpg,AFNE08.jpg,AFNE17.jpg,AFNE08.jpg,FN,3,num_2,32,num_6,0.416834012503,,,2017_Oct_18_1453,59.993592309,FEMA4ImagesEEG,001,102061,
AFNE01.JPG,AFNE01.JPG,AFNE01.JPG,AFNE01.JPG,AFNE01.JPG,AFNE01.JPG,5,9,59,6,,,,,,,,,,,,,,,,,,,,,,,AFSA17.jpg,AFSA18.jpg,AFNE17.jpg,AFNE09.jpg,AFSA17.jpg,FS,4,num_8,32,num_6,1.1834039762,,,2017_Oct_18_1453,59.993592309,FEMA4ImagesEEG,001,102061,
,,,,,,,,,,,,,,,,,,,,,,,,,,,,,,,,,,,,,,,,,,,space,12.0991999153,2017_Oct_18_1453,59.993592309,FEMA4ImagesEEG,001,102061,
AFNE01.JPG,AFNE01.JPG,AFNE01.JPG,AFNE01.JPG,AFNE01.JPG,AFNE01.JPG,,,,,0,0,0,3,,,,,,,,,,,,,,,,,,,AMNE13.jpg,AMSA08.jpg,AMSA15.jpg,AMNE19.jpg,AMSA15.jpg,MS,2,num_2,16,num_2,1.68342498464,,,2017_Oct_18_1453,59.993592309,FEMA4ImagesEEG,001,102061,
AFNE01.JPG,AFNE01.JPG,AFNE01.JPG,AFNE01.JPG,AFNE01.JPG,AFNE01.JPG,,,,,0,1,1,6,,,,,,,,,,,,,,,,,,,AMNE07.jpg,AMSA14.jpg,AMNE10.jpg,AMSA09.jpg,AMNE10.jpg,MN,1,num_2,32,num_8,0.799959266078,,,2017_Oct_18_1453,59.993592309,FEMA4ImagesEEG,001,102061,
AFNE01.JPG,AFNE01.JPG,AFNE01.JPG,AFNE01.JPG,AFNE01.JPG,AFNE01.JPG,,,,,0,2,2,4,,,,,,,,,,,,,,,,,,,AMNE10.jpg,AMSA11.jpg,AMSA02.jpg,AMNE07.jpg,AMSA02.jpg,MS,2,num_2,16,num_2,0.433463393201,,,2017_Oct_18_1453,59.993592309,FEMA4ImagesEEG,001,102061,
AFNE01.JPG,AFNE01.JPG,AFNE01.JPG,AFNE01.JPG,AFNE01.JPG,AFNE01.JPG,,,,,0,3,3,1,,,,,,,,,,,,,,,,,,,AMNE06.jpg,AMSA07.jpg,AMNE02.jpg,AMSA05.jpg,AMSA05.jpg,MS,2,num_4,32,num_6,0.783488651432,,,2017_Oct_18_1453,59.993592309,FEMA4ImagesEEG,001,102061,
AFNE01.JPG,AFNE01.JPG,AFNE01.JPG,AFNE01.JPG,AFNE01.JPG,AFNE01.JPG,,,,,0,4,4,2,,,,,,,,,,,,,,,,,,,AMNE09.jpg,AMSA17.jpg,AMSA07.jpg,AMNE02.jpg,AMNE09.jpg,MN,1,num_8,32,num_4,0.983463313023,,,2017_Oct_18_1453,59.993592309,FEMA4ImagesEEG,001,102061,
AFNE01.JPG,AFNE01.JPG,AFNE01.JPG,AFNE01.JPG,AFNE01.JPG,AFNE01.JPG,,,,,0,5,5,9,,,,,,,,,,,,,,,,,,,AMNE10.jpg,AMNE07.jpg,AMSA17.jpg,AMSA03.jpg,AMSA17.jpg,MS,2,num_2,32,num_8,1.0334309985,,,2017_Oct_18_1453,59.993592309,FEMA4ImagesEEG,001,102061,
AFNE01.JPG,AFNE01.JPG,AFNE01.JPG,AFNE01.JPG,AFNE01.JPG,AFNE01.JPG,,,,,0,6,6,7,,,,,,,,,,,,,,,,,,,AMSA19.jpg,AMNE01.jpg,AMSA06.jpg,AMNE05.jpg,AMNE05.jpg,MN,1,num_4,32,num_2,1.10009317481,,,2017_Oct_18_1453,59.993592309,FEMA4ImagesEEG,001,102061,
AFNE01.JPG,AFNE01.JPG,AFNE01.JPG,AFNE01.JPG,AFNE01.JPG,AFNE01.JPG,,,,,0,7,7,0,,,,,,,,,,,,,,,,,,,AMSA09.jpg,AMNE13.jpg,AMSA04.jpg,AMNE04.jpg,AMSA04.jpg,MS,2,num_2,16,num_2,0.683462831905,,,2017_Oct_18_1453,59.993592309,FEMA4ImagesEEG,001,102061,
AFNE01.JPG,AFNE01.JPG,AFNE01.JPG,AFNE01.JPG,AFNE01.JPG,AFNE01.JPG,,,,,0,8,8,5,,,,,,,,,,,,,,,,,,,AMNE04.jpg,AMSA08.jpg,AMNE15.jpg,AMSA10.jpg,AMNE04.jpg,MN,1,num_8,16,num_8,0.91660644782,,,2017_Oct_18_1453,59.993592309,FEMA4ImagesEEG,001,102061,
AFNE01.JPG,AFNE01.JPG,AFNE01.JPG,AFNE01.JPG,AFNE01.JPG,AFNE01.JPG,,,,,0,9,9,8,,,,,,,,,,,,,,,,,,,AMNE04.jpg,AMSA07.jpg,AMNE08.jpg,AMSA16.jpg,AMSA16.jpg,MS,2,num_4,16,num_4,1.06660893356,,,2017_Oct_18_1453,59.993592309,FEMA4ImagesEEG,001,102061,
AFNE01.JPG,AFNE01.JPG,AFNE01.JPG,AFNE01.JPG,AFNE01.JPG,AFNE01.JPG,,,,,1,0,10,0,,,,,,,,,,,,,,,,,,,AMNE14.jpg,AMNE15.jpg,AMSA16.jpg,AMSA20.jpg,AMSA16.jpg,MS,2,num_2,32,num_4,0.716761685733,,,2017_Oct_18_1453,59.993592309,FEMA4ImagesEEG,001,102061,
AFNE01.JPG,AFNE01.JPG,AFNE01.JPG,AFNE01.JPG,AFNE01.JPG,AFNE01.JPG,,,,,1,1,11,1,,,,,,,,,,,,,,,,,,,AMSA04.jpg,AMNE18.jpg,AMSA08.jpg,AMNE04.jpg,AMNE04.jpg,MN,1,num_4,32,num_2,1.20007761895,,,2017_Oct_18_1453,59.993592309,FEMA4ImagesEEG,001,102061,
AFNE01.JPG,AFNE01.JPG,AFNE01.JPG,AFNE01.JPG,AFNE01.JPG,AFNE01.JPG,,,,,1,2,12,8,,,,,,,,,,,,,,,,,,,AMNE19.jpg,AMNE20.jpg,AMSA05.jpg,AMSA18.jpg,AMSA18.jpg,MS,2,num_4,16,num_4,0.583459464149,,,2017_Oct_18_1453,59.993592309,FEMA4ImagesEEG,001,102061,
AFNE01.JPG,AFNE01.JPG,AFNE01.JPG,AFNE01.JPG,AFNE01.JPG,AFNE01.JPG,,,,,1,3,13,9,,,,,,,,,,,,,,,,,,,AMSA15.jpg,AMNE19.jpg,AMSA14.jpg,AMNE09.jpg,AMNE19.jpg,MN,1,num_6,16,num_6,1.1168287203,,,2017_Oct_18_1453,59.993592309,FEMA4ImagesEEG,001,102061,
AFNE01.JPG,AFNE01.JPG,AFNE01.JPG,AFNE01.JPG,AFNE01.JPG,AFNE01.JPG,,,,,1,4,14,7,,,,,,,,,,,,,,,,,,,AMSA15.jpg,AMSA18.jpg,AMNE20.jpg,AMNE06.jpg,AMSA15.jpg,MS,2,num_8,32,num_6,0.63348199609,,,2017_Oct_18_1453,59.993592309,FEMA4ImagesEEG,001,102061,
AFNE01.JPG,AFNE01.JPG,AFNE01.JPG,AFNE01.JPG,AFNE01.JPG,AFNE01.JPG,,,,,1,5,15,5,,,,,,,,,,,,,,,,,,,AMNE14.jpg,AMNE11.jpg,AMSA06.jpg,AMSA07.jpg,AMSA06.jpg,MS,2,num_2,32,num_8,1.26674075749,,,2017_Oct_18_1453,59.993592309,FEMA4ImagesEEG,001,102061,
AFNE01.JPG,AFNE01.JPG,AFNE01.JPG,AFNE01.JPG,AFNE01.JPG,AFNE01.JPG,,,,,1,6,16,6,,,,,,,,,,,,,,,,,,,AMNE10.jpg,AMNE11.jpg,AMSA02.jpg,AMSA18.jpg,AMNE10.jpg,MN,1,num_8,32,num_6,1.16700071684,,,2017_Oct_18_1453,59.993592309,FEMA4ImagesEEG,001,102061,
AFNE01.JPG,AFNE01.JPG,AFNE01.JPG,AFNE01.JPG,AFNE01.JPG,AFNE01.JPG,,,,,1,7,17,3,,,,,,,,,,,,,,,,,,,AMSA12.jpg,AMSA04.jpg,AMNE07.jpg,AMNE16.jpg,AMSA04.jpg,MS,2,num_6,16,num_6,0.783454973774,,,2017_Oct_18_1453,59.993592309,FEMA4ImagesEEG,001,102061,
AFNE01.JPG,AFNE01.JPG,AFNE01.JPG,AFNE01.JPG,AFNE01.JPG,AFNE01.JPG,,,,,1,8,18,2,,,,,,,,,,,,,,,,,,,AMSA18.jpg,AMNE19.jpg,AMSA03.jpg,AMNE15.jpg,AMSA18.jpg,MS,2,num_8,16,num_8,0.683500999905,,,2017_Oct_18_1453,59.993592309,FEMA4ImagesEEG,001,102061,
AFNE01.JPG,AFNE01.JPG,AFNE01.JPG,AFNE01.JPG,AFNE01.JPG,AFNE01.JPG,,,,,1,9,19,4,,,,,,,,,,,,,,,,,,,AMNE03.jpg,AMSA08.jpg,AMNE02.jpg,AMSA16.jpg,AMSA08.jpg,MS,2,num_6,16,num_6,1.68337302485,,,2017_Oct_18_1453,59.993592309,FEMA4ImagesEEG,001,102061,
AFNE01.JPG,AFNE01.JPG,AFNE01.JPG,AFNE01.JPG,AFNE01.JPG,AFNE01.JPG,,,,,2,0,20,1,,,,,,,,,,,,,,,,,,,AMSA12.jpg,AMSA19.jpg,AMNE03.jpg,AMNE10.jpg,AMSA19.jpg,MS,2,num_6,32,num_4,1.21669128342,,,2017_Oct_18_1453,59.993592309,FEMA4ImagesEEG,001,102061,
AFNE01.JPG,AFNE01.JPG,AFNE01.JPG,AFNE01.JPG,AFNE01.JPG,AFNE01.JPG,,,,,2,1,21,5,,,,,,,,,,,,,,,,,,,AMSA08.jpg,AMNE15.jpg,AMSA15.jpg,AMNE01.jpg,AMSA15.jpg,MS,2,num_2,32,num_8,0.450204391251,,,2017_Oct_18_1453,59.993592309,FEMA4ImagesEEG,001,102061,
AFNE01.JPG,AFNE01.JPG,AFNE01.JPG,AFNE01.JPG,AFNE01.JPG,AFNE01.JPG,,,,,2,2,22,4,,,,,,,,,,,,,,,,,,,AMSA19.jpg,AMNE15.jpg,AMNE02.jpg,AMSA03.jpg,AMNE02.jpg,MN,1,num_2,32,num_6,0.983448238258,,,2017_Oct_18_1453,59.993592309,FEMA4ImagesEEG,001,102061,
AFNE01.JPG,AFNE01.JPG,AFNE01.JPG,AFNE01.JPG,AFNE01.JPG,AFNE01.JPG,,,,,2,3,23,7,,,,,,,,,,,,,,,,,,,AMSA09.jpg,AMNE11.jpg,AMSA10.jpg,AMNE12.jpg,AMNE11.jpg,MN,1,num_6,32,num_4,1.58325643603,,,2017_Oct_18_1453,59.993592309,FEMA4ImagesEEG,001,102061,
AFNE01.JPG,AFNE01.JPG,AFNE01.JPG,AFNE01.JPG,AFNE01.JPG,AFNE01.JPG,,,,,2,4,24,0,,,,,,,,,,,,,,,,,,,AMNE09.jpg,AMSA06.jpg,AMSA11.jpg,AMNE15.jpg,AMNE09.jpg,MN,1,num_8,32,num_4,0.866809075,,,2017_Oct_18_1453,59.993592309,FEMA4ImagesEEG,001,102061,
AFNE01.JPG,AFNE01.JPG,AFNE01.JPG,AFNE01.JPG,AFNE01.JPG,AFNE01.JPG,,,,,2,5,25,8,,,,,,,,,,,,,,,,,,,AMSA07.jpg,AMNE09.jpg,AMNE07.jpg,AMSA17.jpg,AMSA17.jpg,MS,2,num_4,32,num_8,1.60004554501,,,2017_Oct_18_1453,59.993592309,FEMA4ImagesEEG,001,102061,
AFNE01.JPG,AFNE01.JPG,AFNE01.JPG,AFNE01.JPG,AFNE01.JPG,AFNE01.JPG,,,,,2,6,26,3,,,,,,,,,,,,,,,,,,,AMSA01.jpg,AMNE19.jpg,AMSA16.jpg,AMNE04.jpg,AMNE04.jpg,MN,1,num_4,32,num_2,1.26700889571,,,2017_Oct_18_1453,59.993592309,FEMA4ImagesEEG,001,102061,
AFNE01.JPG,AFNE01.JPG,AFNE01.JPG,AFNE01.JPG,AFNE01.JPG,AFNE01.JPG,,,,,2,7,27,2,,,,,,,,,,,,,,,,,,,AMSA17.jpg,AMSA01.jpg,AMNE06.jpg,AMNE04.jpg,AMNE06.jpg,MN,1,num_2,32,num_4,0.88348239701,,,2017_Oct_18_1453,59.993592309,FEMA4ImagesEEG,001,102061,
AFNE01.JPG,AFNE01.JPG,AFNE01.JPG,AFNE01.JPG,AFNE01.JPG,AFNE01.JPG,,,,,2,8,28,6,,,,,,,,,,,,,,,,,,,AMSA05.jpg,AMSA20.jpg,AMNE04.jpg,AMNE15.jpg,AMSA05.jpg,MS,2,num_8,32,num_6,0.53349626901,,,2017_Oct_18_1453,59.993592309,FEMA4ImagesEEG,001,102061,
AFNE01.JPG,AFNE01.JPG,AFNE01.JPG,AFNE01.JPG,AFNE01.JPG,AFNE01.JPG,,,,,2,9,29,9,,,,,,,,,,,,,,,,,,,AMNE04.jpg,AMSA10.jpg,AMNE20.jpg,AMSA15.jpg,AMSA10.jpg,MS,2,num_6,32,num_4,0.899981557479,,,2017_Oct_18_1453,59.993592309,FEMA4ImagesEEG,001,102061,
AFNE01.JPG,AFNE01.JPG,AFNE01.JPG,AFNE01.JPG,AFNE01.JPG,AFNE01.JPG,,,,,3,0,30,9,,,,,,,,,,,,,,,,,,,AMSA02.jpg,AMSA01.jpg,AMNE14.jpg,AMNE19.jpg,AMNE19.jpg,MN,1,num_4,32,num_6,0.766766256289,,,2017_Oct_18_1453,59.993592309,FEMA4ImagesEEG,001,102061,
AFNE01.JPG,AFNE01.JPG,AFNE01.JPG,AFNE01.JPG,AFNE01.JPG,AFNE01.JPG,,,,,3,1,31,3,,,,,,,,,,,,,,,,,,,AMSA16.jpg,AMNE08.jpg,AMNE19.jpg,AMSA03.jpg,AMSA03.jpg,MS,2,num_4,16,num_4,0.350205193099,,,2017_Oct_18_1453,59.993592309,FEMA4ImagesEEG,001,102061,
AFNE01.JPG,AFNE01.JPG,AFNE01.JPG,AFNE01.JPG,AFNE01.JPG,AFNE01.JPG,,,,,3,2,32,7,,,,,,,,,,,,,,,,,,,AMSA07.jpg,AMSA14.jpg,AMNE15.jpg,AMNE14.jpg,AMSA07.jpg,MS,2,num_8,16,num_8,1.70003961133,,,2017_Oct_18_1453,59.993592309,FEMA4ImagesEEG,001,102061,
AFNE01.JPG,AFNE01.JPG,AFNE01.JPG,AFNE01.JPG,AFNE01.JPG,AFNE01.JPG,,,,,3,3,33,0,,,,,,,,,,,,,,,,,,,AMNE13.jpg,AMSA12.jpg,AMNE19.jpg,AMSA19.jpg,AMSA12.jpg,MS,2,num_6,32,num_4,0.566797047271,,,2017_Oct_18_1453,59.993592309,FEMA4ImagesEEG,001,102061,
AFNE01.JPG,AFNE01.JPG,AFNE01.JPG,AFNE01.JPG,AFNE01.JPG,AFNE01.JPG,,,,,3,4,34,5,,,,,,,,,,,,,,,,,,,AMSA08.jpg,AMNE06.jpg,AMSA13.jpg,AMNE15.jpg,AMSA08.jpg,MS,2,num_8,32,num_6,1.76671076835,,,2017_Oct_18_1453,59.993592309,FEMA4ImagesEEG,001,102061,
AFNE01.JPG,AFNE01.JPG,AFNE01.JPG,AFNE01.JPG,AFNE01.JPG,AFNE01.JPG,,,,,3,5,35,1,,,,,,,,,,,,,,,,,,,AMSA09.jpg,AMSA18.jpg,AMNE15.jpg,AMNE03.jpg,AMSA18.jpg,MS,2,num_6,16,num_6,0.383487047729,,,2017_Oct_18_1453,59.993592309,FEMA4ImagesEEG,001,102061,
AFNE01.JPG,AFNE01.JPG,AFNE01.JPG,AFNE01.JPG,AFNE01.JPG,AFNE01.JPG,,,,,3,6,36,2,,,,,,,,,,,,,,,,,,,AMNE15.jpg,AMSA16.jpg,AMSA17.jpg,AMNE19.jpg,AMSA17.jpg,MS,2,num_2,32,num_8,0.900121079161,,,2017_Oct_18_1453,59.993592309,FEMA4ImagesEEG,001,102061,
AFNE01.JPG,AFNE01.JPG,AFNE01.JPG,AFNE01.JPG,AFNE01.JPG,AFNE01.JPG,,,,,3,7,37,6,,,,,,,,,,,,,,,,,,,AMSA06.jpg,AMNE12.jpg,AMNE10.jpg,AMSA03.jpg,AMSA03.jpg,MS,2,num_4,16,num_4,0.650148582572,,,2017_Oct_18_1453,59.993592309,FEMA4ImagesEEG,001,102061,
AFNE01.JPG,AFNE01.JPG,AFNE01.JPG,AFNE01.JPG,AFNE01.JPG,AFNE01.JPG,,,,,3,8,38,8,,,,,,,,,,,,,,,,,,,AMNE06.jpg,AMSA02.jpg,AMNE01.jpg,AMSA17.jpg,AMNE06.jpg,MN,1,num_8,32,num_6,0.783583590324,,,2017_Oct_18_1453,59.993592309,FEMA4ImagesEEG,001,102061,
AFNE01.JPG,AFNE01.JPG,AFNE01.JPG,AFNE01.JPG,AFNE01.JPG,AFNE01.JPG,,,,,3,9,39,4,,,,,,,,,,,,,,,,,,,AMNE11.jpg,AMSA17.jpg,AMNE04.jpg,AMSA10.jpg,AMNE04.jpg,MN,1,num_2,16,num_2,1.23341720672,,,2017_Oct_18_1453,59.993592309,FEMA4ImagesEEG,001,102061,
AFNE01.JPG,AFNE01.JPG,AFNE01.JPG,AFNE01.JPG,AFNE01.JPG,AFNE01.JPG,,,,,4,0,40,2,,,,,,,,,,,,,,,,,,,AMNE06.jpg,AMSA06.jpg,AMNE05.jpg,AMSA12.jpg,AMNE05.jpg,MN,1,num_2,32,num_8,0.833440941438,,,2017_Oct_18_1453,59.993592309,FEMA4ImagesEEG,001,102061,
AFNE01.JPG,AFNE01.JPG,AFNE01.JPG,AFNE01.JPG,AFNE01.JPG,AFNE01.JPG,,,,,4,1,41,6,,,,,,,,,,,,,,,,,,,AMNE05.jpg,AMSA07.jpg,AMNE16.jpg,AMSA17.jpg,AMSA17.jpg,MS,2,num_4,16,num_4,1.06674364414,,,2017_Oct_18_1453,59.993592309,FEMA4ImagesEEG,001,102061,
AFNE01.JPG,AFNE01.JPG,AFNE01.JPG,AFNE01.JPG,AFNE01.JPG,AFNE01.JPG,,,,,4,2,42,7,,,,,,,,,,,,,,,,,,,AMSA08.jpg,AMNE18.jpg,AMNE01.jpg,AMSA09.jpg,AMSA08.jpg,MS,2,num_8,16,num_8,0.78341905096,,,2017_Oct_18_1453,59.993592309,FEMA4ImagesEEG,001,102061,
AFNE01.JPG,AFNE01.JPG,AFNE01.JPG,AFNE01.JPG,AFNE01.JPG,AFNE01.JPG,,,,,4,3,43,8,,,,,,,,,,,,,,,,,,,AMSA04.jpg,AMNE13.jpg,AMSA17.jpg,AMNE15.jpg,AMSA04.jpg,MS,2,num_8,16,num_8,0.83345216731,,,2017_Oct_18_1453,59.993592309,FEMA4ImagesEEG,001,102061,
AFNE01.JPG,AFNE01.JPG,AFNE01.JPG,AFNE01.JPG,AFNE01.JPG,AFNE01.JPG,,,,,4,4,44,5,,,,,,,,,,,,,,,,,,,AMNE14.jpg,AMNE18.jpg,AMSA17.jpg,AMSA01.jpg,AMSA01.jpg,MS,2,num_4,16,num_4,0.483516395412,,,2017_Oct_18_1453,59.993592309,FEMA4ImagesEEG,001,102061,
AFNE01.JPG,AFNE01.JPG,AFNE01.JPG,AFNE01.JPG,AFNE01.JPG,AFNE01.JPG,,,,,4,5,45,3,,,,,,,,,,,,,,,,,,,AMSA01.jpg,AMNE15.jpg,AMNE06.jpg,AMSA10.jpg,AMNE15.jpg,MN,1,num_6,16,num_6,1.51671485777,,,2017_Oct_18_1453,59.993592309,FEMA4ImagesEEG,001,102061,
AFNE01.JPG,AFNE01.JPG,AFNE01.JPG,AFNE01.JPG,AFNE01.JPG,AFNE01.JPG,,,,,4,6,46,9,,,,,,,,,,,,,,,,,,,AMSA06.jpg,AMSA07.jpg,AMNE04.jpg,AMNE17.jpg,AMSA07.jpg,MS,2,num_6,32,num_8,0.900132305032,,,2017_Oct_18_1453,59.993592309,FEMA4ImagesEEG,001,102061,
AFNE01.JPG,AFNE01.JPG,AFNE01.JPG,AFNE01.JPG,AFNE01.JPG,AFNE01.JPG,,,,,4,7,47,0,,,,,,,,,,,,,,,,,,,AMNE04.jpg,AMSA04.jpg,AMNE15.jpg,AMSA02.jpg,AMSA04.jpg,MS,2,num_6,32,num_8,0.600135031316,,,2017_Oct_18_1453,59.993592309,FEMA4ImagesEEG,001,102061,
AFNE01.JPG,AFNE01.JPG,AFNE01.JPG,AFNE01.JPG,AFNE01.JPG,AFNE01.JPG,,,,,4,8,48,4,,,,,,,,,,,,,,,,,,,AMNE04.jpg,AMSA08.jpg,AMSA14.jpg,AMNE13.jpg,AMNE04.jpg,MN,1,num_8,32,num_4,0.683499075472,,,2017_Oct_18_1453,59.993592309,FEMA4ImagesEEG,001,102061,
AFNE01.JPG,AFNE01.JPG,AFNE01.JPG,AFNE01.JPG,AFNE01.JPG,AFNE01.JPG,,,,,4,9,49,1,,,,,,,,,,,,,,,,,,,AMSA11.jpg,AMNE02.jpg,AMSA17.jpg,AMNE19.jpg,AMNE19.jpg,MN,1,num_4,16,num_4,0.900070723059,,,2017_Oct_18_1453,59.993592309,FEMA4ImagesEEG,001,102061,
AFNE01.JPG,AFNE01.JPG,AFNE01.JPG,AFNE01.JPG,AFNE01.JPG,AFNE01.JPG,,,,,5,0,50,2,,,,,,,,,,,,,,,,,,,AMSA12.jpg,AMSA17.jpg,AMNE20.jpg,AMNE01.jpg,AMNE20.jpg,MN,1,num_2,32,num_8,0.833444790318,,,2017_Oct_18_1453,59.993592309,FEMA4ImagesEEG,001,102061,
AFNE01.JPG,AFNE01.JPG,AFNE01.JPG,AFNE01.JPG,AFNE01.JPG,AFNE01.JPG,,,,,5,1,51,6,,,,,,,,,,,,,,,,,,,AMNE04.jpg,AMNE11.jpg,AMSA15.jpg,AMSA14.jpg,AMNE11.jpg,MN,1,num_6,16,num_6,0.883463473379,,,2017_Oct_18_1453,59.993592309,FEMA4ImagesEEG,001,102061,
AFNE01.JPG,AFNE01.JPG,AFNE01.JPG,AFNE01.JPG,AFNE01.JPG,AFNE01.JPG,,,,,5,2,52,9,,,,,,,,,,,,,,,,,,,AMNE19.jpg,AMNE06.jpg,AMSA15.jpg,AMSA12.jpg,AMNE06.jpg,MN,1,num_6,32,num_8,1.00006703456,,,2017_Oct_18_1453,59.993592309,FEMA4ImagesEEG,001,102061,
AFNE01.JPG,AFNE01.JPG,AFNE01.JPG,AFNE01.JPG,AFNE01.JPG,AFNE01.JPG,,,,,5,3,53,1,,,,,,,,,,,,,,,,,,,AMSA08.jpg,AMNE10.jpg,AMSA03.jpg,AMNE13.jpg,AMSA08.jpg,MS,2,num_8,32,num_6,0.733465477999,,,2017_Oct_18_1453,59.993592309,FEMA4ImagesEEG,001,102061,
AFNE01.JPG,AFNE01.JPG,AFNE01.JPG,AFNE01.JPG,AFNE01.JPG,AFNE01.JPG,,,,,5,4,54,5,,,,,,,,,,,,,,,,,,,AMNE05.jpg,AMSA08.jpg,AMNE20.jpg,AMSA04.jpg,AMNE05.jpg,MN,1,num_8,32,num_4,0.450111056052,,,2017_Oct_18_1453,59.993592309,FEMA4ImagesEEG,001,102061,
AFNE01.JPG,AFNE01.JPG,AFNE01.JPG,AFNE01.JPG,AFNE01.JPG,AFNE01.JPG,,,,,5,5,55,4,,,,,,,,,,,,,,,,,,,AMNE06.jpg,AMSA20.jpg,AMSA01.jpg,AMNE01.jpg,AMSA20.jpg,MS,2,num_6,32,num_2,0.416808994807,,,2017_Oct_18_1453,59.993592309,FEMA4ImagesEEG,001,102061,
AFNE01.JPG,AFNE01.JPG,AFNE01.JPG,AFNE01.JPG,AFNE01.JPG,AFNE01.JPG,,,,,5,6,56,8,,,,,,,,,,,,,,,,,,,AMNE07.jpg,AMSA06.jpg,AMNE17.jpg,AMSA03.jpg,AMSA03.jpg,MS,2,num_4,16,num_4,0.400161652709,,,2017_Oct_18_1453,59.993592309,FEMA4ImagesEEG,001,102061,
AFNE01.JPG,AFNE01.JPG,AFNE01.JPG,AFNE01.JPG,AFNE01.JPG,AFNE01.JPG,,,,,5,7,57,7,,,,,,,,,,,,,,,,,,,AMNE03.jpg,AMSA13.jpg,AMNE14.jpg,AMSA18.jpg,AMNE03.jpg,MN,1,num_8,32,num_6,0.933439498098,,,2017_Oct_18_1453,59.993592309,FEMA4ImagesEEG,001,102061,
AFNE01.JPG,AFNE01.JPG,AFNE01.JPG,AFNE01.JPG,AFNE01.JPG,AFNE01.JPG,,,,,5,8,58,0,,,,,,,,,,,,,,,,,,,AMNE05.jpg,AMSA18.jpg,AMNE16.jpg,AMSA03.jpg,AMSA03.jpg,MS,2,num_4,16,num_4,0.750170873958,,,2017_Oct_18_1453,59.993592309,FEMA4ImagesEEG,001,102061,
AFNE01.JPG,AFNE01.JPG,AFNE01.JPG,AFNE01.JPG,AFNE01.JPG,AFNE01.JPG,,,,,5,9,59,3,,,,,,,,,,,,,,,,,,,AMNE02.jpg,AMNE10.jpg,AMSA03.jpg,AMSA19.jpg,AMNE02.jpg,MN,1,num_8,16,num_8,1.08349554734,,,2017_Oct_18_1453,59.993592309,FEMA4ImagesEEG,001,102061,
,,,,,,,,,,,,,,,,,,,,,,,,,,,,,,,,,,,,,,,,,,,space,7.71644704029,2017_Oct_18_1453,59.993592309,FEMA4ImagesEEG,001,102061,
AFNE01.JPG,AFNE01.JPG,AFNE01.JPG,AFNE01.JPG,AFNE01.JPG,AFNE01.JPG,,,,,,,,,0,0,0,3,,,,,,,,,,,,,,,AFNE17.jpg,AFNE10.jpg,AFSA06.jpg,AFSA11.jpg,AFSA06.jpg,FS,4,num_2,16,num_2,0.983462030053,,,2017_Oct_18_1453,59.993592309,FEMA4ImagesEEG,001,102061,
AFNE01.JPG,AFNE01.JPG,AFNE01.JPG,AFNE01.JPG,AFNE01.JPG,AFNE01.JPG,,,,,,,,,0,1,1,2,,,,,,,,,,,,,,,AFSA09.jpg,AFNE01.jpg,AFNE03.jpg,AFSA10.jpg,AFNE03.jpg,FN,3,num_2,32,num_6,1.18345240787,,,2017_Oct_18_1453,59.993592309,FEMA4ImagesEEG,001,102061,
AFNE01.JPG,AFNE01.JPG,AFNE01.JPG,AFNE01.JPG,AFNE01.JPG,AFNE01.JPG,,,,,,,,,0,2,2,6,,,,,,,,,,,,,,,AFNE15.jpg,AFSA01.jpg,AFSA06.jpg,AFNE12.jpg,AFNE15.jpg,FN,3,num_8,16,num_8,0.583423862059,,,2017_Oct_18_1453,59.993592309,FEMA4ImagesEEG,001,102061,
AFNE01.JPG,AFNE01.JPG,AFNE01.JPG,AFNE01.JPG,AFNE01.JPG,AFNE01.JPG,,,,,,,,,0,3,3,0,,,,,,,,,,,,,,,AFNE05.jpg,AFSA01.jpg,AFNE14.jpg,AFSA20.jpg,AFSA01.jpg,FS,4,num_6,16,num_6,0.416767940158,,,2017_Oct_18_1453,59.993592309,FEMA4ImagesEEG,001,102061,
AFNE01.JPG,AFNE01.JPG,AFNE01.JPG,AFNE01.JPG,AFNE01.JPG,AFNE01.JPG,,,,,,,,,0,4,4,9,,,,,,,,,,,,,,,AFSA03.jpg,AFNE15.jpg,AFSA15.jpg,AFNE05.jpg,AFNE15.jpg,FN,3,num_6,32,num_4,1.13335578509,,,2017_Oct_18_1453,59.993592309,FEMA4ImagesEEG,001,102061,
AFNE01.JPG,AFNE01.JPG,AFNE01.JPG,AFNE01.JPG,AFNE01.JPG,AFNE01.JPG,,,,,,,,,0,5,5,7,,,,,,,,,,,,,,,AFSA10.jpg,AFSA15.jpg,AFNE12.jpg,AFNE16.jpg,AFSA15.jpg,FS,4,num_6,16,num_6,0.516794401177,,,2017_Oct_18_1453,59.993592309,FEMA4ImagesEEG,001,102061,
AFNE01.JPG,AFNE01.JPG,AFNE01.JPG,AFNE01.JPG,AFNE01.JPG,AFNE01.JPG,,,,,,,,,0,6,6,1,,,,,,,,,,,,,,,AFNE17.jpg,AFSA19.jpg,AFNE03.jpg,AFSA05.jpg,AFNE17.jpg,FN,3,num_8,16,num_8,0.866761284822,,,2017_Oct_18_1453,59.993592309,FEMA4ImagesEEG,001,102061,
AFNE01.JPG,AFNE01.JPG,AFNE01.JPG,AFNE01.JPG,AFNE01.JPG,AFNE01.JPG,,,,,,,,,0,7,7,5,,,,,,,,,,,,,,,AFSA03.jpg,AFSA04.jpg,AFNE08.jpg,AFNE11.jpg,AFNE11.jpg,FN,3,num_4,32,num_8,1.06679528322,,,2017_Oct_18_1453,59.993592309,FEMA4ImagesEEG,001,102061,
AFNE01.JPG,AFNE01.JPG,AFNE01.JPG,AFNE01.JPG,AFNE01.JPG,AFNE01.JPG,,,,,,,,,0,8,8,4,,,,,,,,,,,,,,,AFNE11.jpg,AFSA14.jpg,AFNE16.jpg,AFSA12.jpg,AFSA12.jpg,FS,4,num_4,16,num_4,0.466662176317,,,2017_Oct_18_1453,59.993592309,FEMA4ImagesEEG,001,102061,
AFNE01.JPG,AFNE01.JPG,AFNE01.JPG,AFNE01.JPG,AFNE01.JPG,AFNE01.JPG,,,,,,,,,0,9,9,8,,,,,,,,,,,,,,,AFSA19.jpg,AFNE07.jpg,AFSA02.jpg,AFNE09.jpg,AFNE09.jpg,FN,3,num_4,32,num_6,0.933440781067,,,2017_Oct_18_1453,59.993592309,FEMA4ImagesEEG,001,102061,
AFNE01.JPG,AFNE01.JPG,AFNE01.JPG,AFNE01.JPG,AFNE01.JPG,AFNE01.JPG,,,,,,,,,1,0,10,4,,,,,,,,,,,,,,,AFNE02.jpg,AFSA04.jpg,AFNE11.jpg,AFSA19.jpg,AFNE02.jpg,FN,3,num_8,32,num_4,1.21672880994,,,2017_Oct_18_1453,59.993592309,FEMA4ImagesEEG,001,102061,
AFNE01.JPG,AFNE01.JPG,AFNE01.JPG,AFNE01.JPG,AFNE01.JPG,AFNE01.JPG,,,,,,,,,1,1,11,9,,,,,,,,,,,,,,,AFNE18.jpg,AFSA19.jpg,AFNE08.jpg,AFSA13.jpg,AFNE08.jpg,FN,3,num_2,32,num_8,0.78343829533,,,2017_Oct_18_1453,59.993592309,FEMA4ImagesEEG,001,102061,
AFNE01.JPG,AFNE01.JPG,AFNE01.JPG,AFNE01.JPG,AFNE01.JPG,AFNE01.JPG,,,,,,,,,1,2,12,5,,,,,,,,,,,,,,,AFNE19.jpg,AFNE06.jpg,AFSA05.jpg,AFSA15.jpg,AFSA05.jpg,FS,4,num_2,32,num_4,0.583471331498,,,2017_Oct_18_1453,59.993592309,FEMA4ImagesEEG,001,102061,
AFNE01.JPG,AFNE01.JPG,AFNE01.JPG,AFNE01.JPG,AFNE01.JPG,AFNE01.JPG,,,,,,,,,1,3,13,3,,,,,,,,,,,,,,,AFNE19.jpg,AFSA10.jpg,AFSA12.jpg,AFNE07.jpg,AFSA12.jpg,FS,4,num_2,32,num_6,0.783443427164,,,2017_Oct_18_1453,59.993592309,FEMA4ImagesEEG,001,102061,
AFNE01.JPG,AFNE01.JPG,AFNE01.JPG,AFNE01.JPG,AFNE01.JPG,AFNE01.JPG,,,,,,,,,1,4,14,0,,,,,,,,,,,,,,,AFSA01.jpg,AFNE19.jpg,AFSA12.jpg,AFNE01.jpg,AFSA01.jpg,FS,4,num_8,32,num_2,0.850136715206,,,2017_Oct_18_1453,59.993592309,FEMA4ImagesEEG,001,102061,
AFNE01.JPG,AFNE01.JPG,AFNE01.JPG,AFNE01.JPG,AFNE01.JPG,AFNE01.JPG,,,,,,,,,1,5,15,2,,,,,,,,,,,,,,,AFNE08.jpg,AFNE19.jpg,AFSA17.jpg,AFSA18.jpg,AFSA17.jpg,FS,4,num_2,32,num_4,0.550169591006,,,2017_Oct_18_1453,59.993592309,FEMA4ImagesEEG,001,102061,
AFNE01.JPG,AFNE01.JPG,AFNE01.JPG,AFNE01.JPG,AFNE01.JPG,AFNE01.JPG,,,,,,,,,1,6,16,7,,,,,,,,,,,,,,,AFSA01.jpg,AFNE04.jpg,AFNE07.jpg,AFSA09.jpg,AFSA09.jpg,FS,4,num_4,16,num_4,0.566765614814,,,2017_Oct_18_1453,59.993592309,FEMA4ImagesEEG,001,102061,
AFNE01.JPG,AFNE01.JPG,AFNE01.JPG,AFNE01.JPG,AFNE01.JPG,AFNE01.JPG,,,,,,,,,1,7,17,1,,,,,,,,,,,,,,,AFSA09.jpg,AFNE11.jpg,AFSA10.jpg,AFNE16.jpg,AFSA09.jpg,FS,4,num_8,32,num_2,0.366811159809,,,2017_Oct_18_1453,59.993592309,FEMA4ImagesEEG,001,102061,
AFNE01.JPG,AFNE01.JPG,AFNE01.JPG,AFNE01.JPG,AFNE01.JPG,AFNE01.JPG,,,,,,,,,1,8,18,6,,,,,,,,,,,,,,,AFNE05.jpg,AFSA11.jpg,AFNE01.jpg,AFSA09.jpg,AFNE05.jpg,FN,3,num_8,32,num_4,0.86677186923,,,2017_Oct_18_1453,59.993592309,FEMA4ImagesEEG,001,102061,
AFNE01.JPG,AFNE01.JPG,AFNE01.JPG,AFNE01.JPG,AFNE01.JPG,AFNE01.JPG,,,,,,,,,1,9,19,8,,,,,,,,,,,,,,,AFSA04.jpg,AFNE06.jpg,AFSA08.jpg,AFNE05.jpg,AFSA08.jpg,FS,4,num_2,32,num_8,0.783588080682,,,2017_Oct_18_1453,59.993592309,FEMA4ImagesEEG,001,102061,
AFNE01.JPG,AFNE01.JPG,AFNE01.JPG,AFNE01.JPG,AFNE01.JPG,AFNE01.JPG,,,,,,,,,2,0,20,4,,,,,,,,,,,,,,,AFNE19.jpg,AFSA02.jpg,AFSA12.jpg,AFNE12.jpg,AFNE19.jpg,FN,3,num_8,32,num_4,1.03344607326,,,2017_Oct_18_1453,59.993592309,FEMA4ImagesEEG,001,102061,
AFNE01.JPG,AFNE01.JPG,AFNE01.JPG,AFNE01.JPG,AFNE01.JPG,AFNE01.JPG,,,,,,,,,2,1,21,2,,,,,,,,,,,,,,,AFSA04.jpg,AFSA17.jpg,AFNE06.jpg,AFNE11.jpg,AFNE11.jpg,FN,3,num_4,32,num_8,0.633458582117,,,2017_Oct_18_1453,59.993592309,FEMA4ImagesEEG,001,102061,
AFNE01.JPG,AFNE01.JPG,AFNE01.JPG,AFNE01.JPG,AFNE01.JPG,AFNE01.JPG,,,,,,,,,2,2,22,7,,,,,,,,,,,,,,,AFNE06.jpg,AFNE19.jpg,AFSA09.jpg,AFSA08.jpg,AFSA09.jpg,FS,4,num_2,32,num_4,0.700144493152,,,2017_Oct_18_1453,59.993592309,FEMA4ImagesEEG,001,102061,
AFNE01.JPG,AFNE01.JPG,AFNE01.JPG,AFNE01.JPG,AFNE01.JPG,AFNE01.JPG,,,,,,,,,2,3,23,9,,,,,,,,,,,,,,,AFNE20.jpg,AFSA16.jpg,AFSA18.jpg,AFNE02.jpg,AFSA18.jpg,FS,4,num_2,32,num_6,0.700154115329,,,2017_Oct_18_1453,59.993592309,FEMA4ImagesEEG,001,102061,
AFNE01.JPG,AFNE01.JPG,AFNE01.JPG,AFNE01.JPG,AFNE01.JPG,AFNE01.JPG,,,,,,,,,2,4,24,3,,,,,,,,,,,,,,,AFSA17.jpg,AFSA03.jpg,AFNE18.jpg,AFNE02.jpg,AFSA03.jpg,FS,4,num_6,16,num_6,0.66677796327,,,2017_Oct_18_1453,59.993592309,FEMA4ImagesEEG,001,102061,
AFNE01.JPG,AFNE01.JPG,AFNE01.JPG,AFNE01.JPG,AFNE01.JPG,AFNE01.JPG,,,,,,,,,2,5,25,6,,,,,,,,,,,,,,,AFNE17.jpg,AFNE06.jpg,AFSA07.jpg,AFSA15.jpg,AFNE17.jpg,FN,3,num_8,32,num_4,0.71677002497,,,2017_Oct_18_1453,59.993592309,FEMA4ImagesEEG,001,102061,
AFNE01.JPG,AFNE01.JPG,AFNE01.JPG,AFNE01.JPG,AFNE01.JPG,AFNE01.JPG,,,,,,,,,2,6,26,1,,,,,,,,,,,,,,,AFSA16.jpg,AFSA10.jpg,AFNE12.jpg,AFNE15.jpg,AFSA16.jpg,FS,4,num_8,16,num_8,1.48341728689,,,2017_Oct_18_1453,59.993592309,FEMA4ImagesEEG,001,102061,
AFNE01.JPG,AFNE01.JPG,AFNE01.JPG,AFNE01.JPG,AFNE01.JPG,AFNE01.JPG,,,,,,,,,2,7,27,8,,,,,,,,,,,,,,,AFNE05.jpg,AFSA05.jpg,AFNE11.jpg,AFSA10.jpg,AFSA05.jpg,FS,4,num_6,32,num_2,1.65008283098,,,2017_Oct_18_1453,59.993592309,FEMA4ImagesEEG,001,102061,
AFNE01.JPG,AFNE01.JPG,AFNE01.JPG,AFNE01.JPG,AFNE01.JPG,AFNE01.JPG,,,,,,,,,2,8,28,5,,,,,,,,,,,,,,,AFNE20.jpg,AFNE09.jpg,AFSA20.jpg,AFSA18.jpg,AFNE20.jpg,FN,3,num_8,16,num_8,0.916779967883,,,2017_Oct_18_1453,59.993592309,FEMA4ImagesEEG,001,102061,
AFNE01.JPG,AFNE01.JPG,AFNE01.JPG,AFNE01.JPG,AFNE01.JPG,AFNE01.JPG,,,,,,,,,2,9,29,0,,,,,,,,,,,,,,,AFNE12.jpg,AFNE08.jpg,AFSA04.jpg,AFSA08.jpg,AFNE08.jpg,FN,3,num_6,32,num_8,0.733544379924,,,2017_Oct_18_1453,59.993592309,FEMA4ImagesEEG,001,102061,
AFNE01.JPG,AFNE01.JPG,AFNE01.JPG,AFNE01.JPG,AFNE01.JPG,AFNE01.JPG,,,,,,,,,3,0,30,7,,,,,,,,,,,,,,,AFNE10.jpg,AFNE06.jpg,AFSA01.jpg,AFSA19.jpg,AFNE06.jpg,FN,3,num_6,32,num_8,0.783433484248,,,2017_Oct_18_1453,59.993592309,FEMA4ImagesEEG,001,102061,
AFNE01.JPG,AFNE01.JPG,AFNE01.JPG,AFNE01.JPG,AFNE01.JPG,AFNE01.JPG,,,,,,,,,3,1,31,5,,,,,,,,,,,,,,,AFSA04.jpg,AFNE19.jpg,AFSA03.jpg,AFNE08.jpg,AFSA03.jpg,FS,4,num_2,16,num_2,0.483523130926,,,2017_Oct_18_1453,59.993592309,FEMA4ImagesEEG,001,102061,
AFNE01.JPG,AFNE01.JPG,AFNE01.JPG,AFNE01.JPG,AFNE01.JPG,AFNE01.JPG,,,,,,,,,3,2,32,1,,,,,,,,,,,,,,,AFNE07.jpg,AFSA12.jpg,AFNE11.jpg,AFSA17.jpg,AFSA17.jpg,FS,4,num_4,32,num_6,0.383455294519,,,2017_Oct_18_1453,59.993592309,FEMA4ImagesEEG,001,102061,
AFNE01.JPG,AFNE01.JPG,AFNE01.JPG,AFNE01.JPG,AFNE01.JPG,AFNE01.JPG,,,,,,,,,3,3,33,6,,,,,,,,,,,,,,,AFSA19.jpg,AFNE17.jpg,AFSA05.jpg,AFNE18.jpg,AFSA05.jpg,FS,4,num_2,32,num_4,0.300151549411,,,2017_Oct_18_1453,59.993592309,FEMA4ImagesEEG,001,102061,
AFNE01.JPG,AFNE01.JPG,AFNE01.JPG,AFNE01.JPG,AFNE01.JPG,AFNE01.JPG,,,,,,,,,3,4,34,3,,,,,,,,,,,,,,,AFNE14.jpg,AFSA08.jpg,AFSA13.jpg,AFNE16.jpg,AFNE14.jpg,FN,3,num_8,16,num_8,0.700375104832,,,2017_Oct_18_1453,59.993592309,FEMA4ImagesEEG,001,102061,
AFNE01.JPG,AFNE01.JPG,AFNE01.JPG,AFNE01.JPG,AFNE01.JPG,AFNE01.JPG,,,,,,,,,3,5,35,9,,,,,,,,,,,,,,,AFNE01.jpg,AFSA18.jpg,AFNE05.jpg,AFSA19.jpg,AFSA18.jpg,FS,4,num_6,16,num_6,0.633488090141,,,2017_Oct_18_1453,59.993592309,FEMA4ImagesEEG,001,102061,
AFNE01.JPG,AFNE01.JPG,AFNE01.JPG,AFNE01.JPG,AFNE01.JPG,AFNE01.JPG,,,,,,,,,3,6,36,8,,,,,,,,,,,,,,,AFSA03.jpg,AFNE20.jpg,AFSA04.jpg,AFNE17.jpg,AFNE17.jpg,FN,3,num_4,16,num_4,0.633509258943,,,2017_Oct_18_1453,59.993592309,FEMA4ImagesEEG,001,102061,
AFNE01.JPG,AFNE01.JPG,AFNE01.JPG,AFNE01.JPG,AFNE01.JPG,AFNE01.JPG,,,,,,,,,3,7,37,0,,,,,,,,,,,,,,,AFNE07.jpg,AFSA17.jpg,AFNE08.jpg,AFSA18.jpg,AFSA18.jpg,FS,4,num_4,32,num_8,0.933446233641,,,2017_Oct_18_1453,59.993592309,FEMA4ImagesEEG,001,102061,
AFNE01.JPG,AFNE01.JPG,AFNE01.JPG,AFNE01.JPG,AFNE01.JPG,AFNE01.JPG,,,,,,,,,3,8,38,2,,,,,,,,,,,,,,,AFNE02.jpg,AFSA13.jpg,AFSA16.jpg,AFNE14.jpg,AFNE14.jpg,FN,3,num_4,32,num_8,0.733460666917,,,2017_Oct_18_1453,59.993592309,FEMA4ImagesEEG,001,102061,
AFNE01.JPG,AFNE01.JPG,AFNE01.JPG,AFNE01.JPG,AFNE01.JPG,AFNE01.JPG,,,,,,,,,3,9,39,4,,,,,,,,,,,,,,,AFSA07.jpg,AFNE17.jpg,AFSA20.jpg,AFNE04.jpg,AFNE04.jpg,FN,3,num_4,16,num_4,0.400006414784,,,2017_Oct_18_1453,59.993592309,FEMA4ImagesEEG,001,102061,
AFNE01.JPG,AFNE01.JPG,AFNE01.JPG,AFNE01.JPG,AFNE01.JPG,AFNE01.JPG,,,,,,,,,4,0,40,2,,,,,,,,,,,,,,,AFSA08.jpg,AFNE17.jpg,AFNE19.jpg,AFSA04.jpg,AFNE17.jpg,FN,3,num_6,32,num_8,0.283502282866,,,2017_Oct_18_1453,59.993592309,FEMA4ImagesEEG,001,102061,
AFNE01.JPG,AFNE01.JPG,AFNE01.JPG,AFNE01.JPG,AFNE01.JPG,AFNE01.JPG,,,,,,,,,4,1,41,4,,,,,,,,,,,,,,,AFSA12.jpg,AFSA11.jpg,AFNE09.jpg,AFNE01.jpg,AFNE09.jpg,FN,3,num_2,32,num_4,0.800133427634,,,2017_Oct_18_1453,59.993592309,FEMA4ImagesEEG,001,102061,
AFNE01.JPG,AFNE01.JPG,AFNE01.JPG,AFNE01.JPG,AFNE01.JPG,AFNE01.JPG,,,,,,,,,4,2,42,5,,,,,,,,,,,,,,,AFNE08.jpg,AFNE02.jpg,AFSA02.jpg,AFSA07.jpg,AFNE08.jpg,FN,3,num_8,16,num_8,0.76677235034,,,2017_Oct_18_1453,59.993592309,FEMA4ImagesEEG,001,102061,
AFNE01.JPG,AFNE01.JPG,AFNE01.JPG,AFNE01.JPG,AFNE01.JPG,AFNE01.JPG,,,,,,,,,4,3,43,0,,,,,,,,,,,,,,,AFSA12.jpg,AFSA19.jpg,AFNE19.jpg,AFNE04.jpg,AFNE19.jpg,FN,3,num_2,32,num_6,0.916748535426,,,2017_Oct_18_1453,59.993592309,FEMA4ImagesEEG,001,102061,
AFNE01.JPG,AFNE01.JPG,AFNE01.JPG,AFNE01.JPG,AFNE01.JPG,AFNE01.JPG,,,,,,,,,4,4,44,7,,,,,,,,,,,,,,,AFNE08.jpg,AFSA07.jpg,AFSA17.jpg,AFNE06.jpg,AFSA17.jpg,FS,4,num_2,32,num_6,0.73359633972,,,2017_Oct_18_1453,59.993592309,FEMA4ImagesEEG,001,102061,
AFNE01.JPG,AFNE01.JPG,AFNE01.JPG,AFNE01.JPG,AFNE01.JPG,AFNE01.JPG,,,,,,,,,4,5,45,9,,,,,,,,,,,,,,,AFSA17.jpg,AFNE10.jpg,AFSA18.jpg,AFNE11.jpg,AFSA17.jpg,FS,4,num_8,32,num_2,0.783441502717,,,2017_Oct_18_1453,59.993592309,FEMA4ImagesEEG,001,102061,
AFNE01.JPG,AFNE01.JPG,AFNE01.JPG,AFNE01.JPG,AFNE01.JPG,AFNE01.JPG,,,,,,,,,4,6,46,6,,,,,,,,,,,,,,,AFSA14.jpg,AFNE02.jpg,AFNE20.jpg,AFSA11.jpg,AFSA11.jpg,FS,4,num_4,16,num_4,1.00016069048,,,2017_Oct_18_1453,59.993592309,FEMA4ImagesEEG,001,102061,
AFNE01.JPG,AFNE01.JPG,AFNE01.JPG,AFNE01.JPG,AFNE01.JPG,AFNE01.JPG,,,,,,,,,4,7,47,3,,,,,,,,,,,,,,,AFSA10.jpg,AFNE12.jpg,AFNE13.jpg,AFSA08.jpg,AFSA08.jpg,FS,4,num_4,16,num_4,0.533459063212,,,2017_Oct_18_1453,59.993592309,FEMA4ImagesEEG,001,102061,
AFNE01.JPG,AFNE01.JPG,AFNE01.JPG,AFNE01.JPG,AFNE01.JPG,AFNE01.JPG,,,,,,,,,4,8,48,8,,,,,,,,,,,,,,,AFSA10.jpg,AFNE19.jpg,AFNE06.jpg,AFSA20.jpg,AFSA10.jpg,FS,4,num_8,32,num_4,1.56669761804,,,2017_Oct_18_1453,59.993592309,FEMA4ImagesEEG,001,102061,
AFNE01.JPG,AFNE01.JPG,AFNE01.JPG,AFNE01.JPG,AFNE01.JPG,AFNE01.JPG,,,,,,,,,4,9,49,1,,,,,,,,,,,,,,,AFNE05.jpg,AFSA09.jpg,AFNE16.jpg,AFSA16.jpg,AFNE16.jpg,FN,3,num_2,32,num_6,0.666770586264,,,2017_Oct_18_1453,59.993592309,FEMA4ImagesEEG,001,102061,
AFNE01.JPG,AFNE01.JPG,AFNE01.JPG,AFNE01.JPG,AFNE01.JPG,AFNE01.JPG,,,,,,,,,5,0,50,8,,,,,,,,,,,,,,,AFSA17.jpg,AFSA18.jpg,AFNE08.jpg,AFNE04.jpg,AFSA18.jpg,FS,4,num_6,16,num_6,0.616764732767,,,2017_Oct_18_1453,59.993592309,FEMA4ImagesEEG,001,102061,
AFNE01.JPG,AFNE01.JPG,AFNE01.JPG,AFNE01.JPG,AFNE01.JPG,AFNE01.JPG,,,,,,,,,5,1,51,4,,,,,,,,,,,,,,,AFNE18.jpg,AFSA05.jpg,AFSA19.jpg,AFNE07.jpg,AFNE18.jpg,FN,3,num_8,16,num_8,1.51674404508,,,2017_Oct_18_1453,59.993592309,FEMA4ImagesEEG,001,102061,
AFNE01.JPG,AFNE01.JPG,AFNE01.JPG,AFNE01.JPG,AFNE01.JPG,AFNE01.JPG,,,,,,,,,5,2,52,0,,,,,,,,,,,,,,,AFNE02.jpg,AFNE08.jpg,AFSA07.jpg,AFSA11.jpg,AFNE08.jpg,FN,3,num_6,32,num_8,0.883465077088,,,2017_Oct_18_1453,59.993592309,FEMA4ImagesEEG,001,102061,
AFNE01.JPG,AFNE01.JPG,AFNE01.JPG,AFNE01.JPG,AFNE01.JPG,AFNE01.JPG,,,,,,,,,5,3,53,1,,,,,,,,,,,,,,,AFSA02.jpg,AFNE17.jpg,AFSA05.jpg,AFNE15.jpg,AFSA02.jpg,FS,4,num_8,32,num_6,0.866749417459,,,2017_Oct_18_1453,59.993592309,FEMA4ImagesEEG,001,102061,
AFNE01.JPG,AFNE01.JPG,AFNE01.JPG,AFNE01.JPG,AFNE01.JPG,AFNE01.JPG,,,,,,,,,5,4,54,2,,,,,,,,,,,,,,,AFNE03.jpg,AFSA05.jpg,AFNE16.jpg,AFSA16.jpg,AFNE16.jpg,FN,3,num_2,32,num_6,0.350131423009,,,2017_Oct_18_1453,59.993592309,FEMA4ImagesEEG,001,102061,
AFNE01.JPG,AFNE01.JPG,AFNE01.JPG,AFNE01.JPG,AFNE01.JPG,AFNE01.JPG,,,,,,,,,5,5,55,6,,,,,,,,,,,,,,,AFSA13.jpg,AFNE19.jpg,AFSA02.jpg,AFNE08.jpg,AFSA13.jpg,FS,4,num_8,32,num_2,0.433483599787,,,2017_Oct_18_1453,59.993592309,FEMA4ImagesEEG,001,102061,
AFNE01.JPG,AFNE01.JPG,AFNE01.JPG,AFNE01.JPG,AFNE01.JPG,AFNE01.JPG,,,,,,,,,5,6,56,3,,,,,,,,,,,,,,,AFSA01.jpg,AFSA03.jpg,AFNE18.jpg,AFNE02.jpg,AFSA01.jpg,FS,4,num_8,16,num_8,0.566789670265,,,2017_Oct_18_1453,59.993592309,FEMA4ImagesEEG,001,102061,
AFNE01.JPG,AFNE01.JPG,AFNE01.JPG,AFNE01.JPG,AFNE01.JPG,AFNE01.JPG,,,,,,,,,5,7,57,5,,,,,,,,,,,,,,,AFNE18.jpg,AFSA05.jpg,AFNE13.jpg,AFSA02.jpg,AFSA05.jpg,FS,4,num_6,32,num_4,0.366809235376,,,2017_Oct_18_1453,59.993592309,FEMA4ImagesEEG,001,102061,
AFNE01.JPG,AFNE01.JPG,AFNE01.JPG,AFNE01.JPG,AFNE01.JPG,AFNE01.JPG,,,,,,,,,5,8,58,9,,,,,,,,,,,,,,,AFSA07.jpg,AFNE07.jpg,AFNE05.jpg,AFSA03.jpg,AFSA07.jpg,FS,4,num_8,32,num_4,0.733426347797,,,2017_Oct_18_1453,59.993592309,FEMA4ImagesEEG,001,102061,
AFNE01.JPG,AFNE01.JPG,AFNE01.JPG,AFNE01.JPG,AFNE01.JPG,AFNE01.JPG,,,,,,,,,5,9,59,7,,,,,,,,,,,,,,,AFNE12.jpg,AFSA10.jpg,AFSA14.jpg,AFNE14.jpg,AFSA10.jpg,FS,4,num_6,32,num_4,0.366802820587,,,2017_Oct_18_1453,59.993592309,FEMA4ImagesEEG,001,102061,
,,,,,,,,,,,,,,,,,,,,,,,,,,,,,,,,,,,,,,,,,,,space,9.21610721679,2017_Oct_18_1453,59.993592309,FEMA4ImagesEEG,001,102061,
AFNE01.JPG,AFNE01.JPG,AFNE01.JPG,AFNE01.JPG,AFNE01.JPG,AFNE01.JPG,,,,,,,,,,,,,0,0,0,1,,,,,,,,,,,AMNE20.jpg,AMNE06.jpg,AMSA20.jpg,AMSA11.jpg,AMNE20.jpg,MN,1,num_8,16,num_8,0.58353708309,,,2017_Oct_18_1453,59.993592309,FEMA4ImagesEEG,001,102061,
AFNE01.JPG,AFNE01.JPG,AFNE01.JPG,AFNE01.JPG,AFNE01.JPG,AFNE01.JPG,,,,,,,,,,,,,0,1,1,9,,,,,,,,,,,AMNE18.jpg,AMNE01.jpg,AMSA11.jpg,AMSA05.jpg,AMSA11.jpg,MS,2,num_2,32,num_4,0.816792957849,,,2017_Oct_18_1453,59.993592309,FEMA4ImagesEEG,001,102061,
AFNE01.JPG,AFNE01.JPG,AFNE01.JPG,AFNE01.JPG,AFNE01.JPG,AFNE01.JPG,,,,,,,,,,,,,0,2,2,4,,,,,,,,,,,AMNE02.jpg,AMSA12.jpg,AMNE19.jpg,AMSA10.jpg,AMSA12.jpg,MS,2,num_6,32,num_4,0.816780128269,,,2017_Oct_18_1453,59.993592309,FEMA4ImagesEEG,001,102061,
AFNE01.JPG,AFNE01.JPG,AFNE01.JPG,AFNE01.JPG,AFNE01.JPG,AFNE01.JPG,,,,,,,,,,,,,0,3,3,5,,,,,,,,,,,AMNE08.jpg,AMSA14.jpg,AMSA08.jpg,AMNE12.jpg,AMSA14.jpg,MS,2,num_6,32,num_8,0.783417768005,,,2017_Oct_18_1453,59.993592309,FEMA4ImagesEEG,001,102061,
AFNE01.JPG,AFNE01.JPG,AFNE01.JPG,AFNE01.JPG,AFNE01.JPG,AFNE01.JPG,,,,,,,,,,,,,0,4,4,8,,,,,,,,,,,AMSA19.jpg,AMSA17.jpg,AMNE05.jpg,AMNE07.jpg,AMSA17.jpg,MS,2,num_6,16,num_6,0.450202466804,,,2017_Oct_18_1453,59.993592309,FEMA4ImagesEEG,001,102061,
AFNE01.JPG,AFNE01.JPG,AFNE01.JPG,AFNE01.JPG,AFNE01.JPG,AFNE01.JPG,,,,,,,,,,,,,0,5,5,3,,,,,,,,,,,AMNE13.jpg,AMNE10.jpg,AMSA17.jpg,AMSA10.jpg,AMSA17.jpg,MS,2,num_2,16,num_2,0.80006831752,,,2017_Oct_18_1453,59.993592309,FEMA4ImagesEEG,001,102061,
AFNE01.JPG,AFNE01.JPG,AFNE01.JPG,AFNE01.JPG,AFNE01.JPG,AFNE01.JPG,,,,,,,,,,,,,0,6,6,7,,,,,,,,,,,AMNE14.jpg,AMSA19.jpg,AMSA16.jpg,AMNE04.jpg,AMNE04.jpg,MN,1,num_4,32,num_2,0.566770425896,,,2017_Oct_18_1453,59.993592309,FEMA4ImagesEEG,001,102061,
AFNE01.JPG,AFNE01.JPG,AFNE01.JPG,AFNE01.JPG,AFNE01.JPG,AFNE01.JPG,,,,,,,,,,,,,0,7,7,0,,,,,,,,,,,AMNE16.jpg,AMSA19.jpg,AMNE13.jpg,AMSA02.jpg,AMNE13.jpg,MN,1,num_2,32,num_8,0.700127814678,,,2017_Oct_18_1453,59.993592309,FEMA4ImagesEEG,001,102061,
AFNE01.JPG,AFNE01.JPG,AFNE01.JPG,AFNE01.JPG,AFNE01.JPG,AFNE01.JPG,,,,,,,,,,,,,0,8,8,2,,,,,,,,,,,AMNE10.jpg,AMNE05.jpg,AMSA01.jpg,AMSA16.jpg,AMSA01.jpg,MS,2,num_2,32,num_4,0.883478868884,,,2017_Oct_18_1453,59.993592309,FEMA4ImagesEEG,001,102061,
AFNE01.JPG,AFNE01.JPG,AFNE01.JPG,AFNE01.JPG,AFNE01.JPG,AFNE01.JPG,,,,,,,,,,,,,0,9,9,6,,,,,,,,,,,AMSA14.jpg,AMNE17.jpg,AMSA04.jpg,AMNE19.jpg,AMNE19.jpg,MN,1,num_4,32,num_6,1.13343821515,,,2017_Oct_18_1453,59.993592309,FEMA4ImagesEEG,001,102061,
AFNE01.JPG,AFNE01.JPG,AFNE01.JPG,AFNE01.JPG,AFNE01.JPG,AFNE01.JPG,,,,,,,,,,,,,1,0,10,3,,,,,,,,,,,AMNE17.jpg,AMNE04.jpg,AMSA14.jpg,AMSA04.jpg,AMSA04.jpg,MS,2,num_4,16,num_4,0.36687081735,,,2017_Oct_18_1453,59.993592309,FEMA4ImagesEEG,001,102061,
AFNE01.JPG,AFNE01.JPG,AFNE01.JPG,AFNE01.JPG,AFNE01.JPG,AFNE01.JPG,,,,,,,,,,,,,1,1,11,0,,,,,,,,,,,AMSA03.jpg,AMSA20.jpg,AMNE20.jpg,AMNE01.jpg,AMSA20.jpg,MS,2,num_6,32,num_8,0.450138639644,,,2017_Oct_18_1453,59.993592309,FEMA4ImagesEEG,001,102061,
AFNE01.JPG,AFNE01.JPG,AFNE01.JPG,AFNE01.JPG,AFNE01.JPG,AFNE01.JPG,,,,,,,,,,,,,1,2,12,2,,,,,,,,,,,AMNE20.jpg,AMNE02.jpg,AMSA17.jpg,AMSA13.jpg,AMNE02.jpg,MN,1,num_6,16,num_6,0.716768742015,,,2017_Oct_18_1453,59.993592309,FEMA4ImagesEEG,001,102061,
AFNE01.JPG,AFNE01.JPG,AFNE01.JPG,AFNE01.JPG,AFNE01.JPG,AFNE01.JPG,,,,,,,,,,,,,1,3,13,8,,,,,,,,,,,AMNE18.jpg,AMSA05.jpg,AMSA02.jpg,AMNE09.jpg,AMSA05.jpg,MS,2,num_6,32,num_8,0.70023686612,,,2017_Oct_18_1453,59.993592309,FEMA4ImagesEEG,001,102061,
AFNE01.JPG,AFNE01.JPG,AFNE01.JPG,AFNE01.JPG,AFNE01.JPG,AFNE01.JPG,,,,,,,,,,,,,1,4,14,4,,,,,,,,,,,AMSA06.jpg,AMNE04.jpg,AMNE17.jpg,AMSA13.jpg,AMNE04.jpg,MN,1,num_6,32,num_4,0.500051157942,,,2017_Oct_18_1453,59.993592309,FEMA4ImagesEEG,001,102061,
AFNE01.JPG,AFNE01.JPG,AFNE01.JPG,AFNE01.JPG,AFNE01.JPG,AFNE01.JPG,,,,,,,,,,,,,1,5,15,9,,,,,,,,,,,AMSA14.jpg,AMNE01.jpg,AMSA09.jpg,AMNE13.jpg,AMSA09.jpg,MS,2,num_2,32,num_6,0.383443747909,,,2017_Oct_18_1453,59.993592309,FEMA4ImagesEEG,001,102061,
AFNE01.JPG,AFNE01.JPG,AFNE01.JPG,AFNE01.JPG,AFNE01.JPG,AFNE01.JPG,,,,,,,,,,,,,1,6,16,1,,,,,,,,,,,AMSA14.jpg,AMNE11.jpg,AMSA01.jpg,AMNE15.jpg,AMSA14.jpg,MS,2,num_8,16,num_8,0.633485844955,,,2017_Oct_18_1453,59.993592309,FEMA4ImagesEEG,001,102061,
AFNE01.JPG,AFNE01.JPG,AFNE01.JPG,AFNE01.JPG,AFNE01.JPG,AFNE01.JPG,,,,,,,,,,,,,1,7,17,6,,,,,,,,,,,AMSA07.jpg,AMNE09.jpg,AMNE20.jpg,AMSA18.jpg,AMSA07.jpg,MS,2,num_8,32,num_6,0.78345721896,,,2017_Oct_18_1453,59.993592309,FEMA4ImagesEEG,001,102061,
AFNE01.JPG,AFNE01.JPG,AFNE01.JPG,AFNE01.JPG,AFNE01.JPG,AFNE01.JPG,,,,,,,,,,,,,1,8,18,7,,,,,,,,,,,AMNE02.jpg,AMNE11.jpg,AMSA17.jpg,AMSA05.jpg,AMSA17.jpg,MS,2,num_2,32,num_8,0.116827758073,,,2017_Oct_18_1453,59.993592309,FEMA4ImagesEEG,001,102061,
AFNE01.JPG,AFNE01.JPG,AFNE01.JPG,AFNE01.JPG,AFNE01.JPG,AFNE01.JPG,,,,,,,,,,,,,1,9,19,5,,,,,,,,,,,AMSA03.jpg,AMNE08.jpg,AMNE09.jpg,AMSA04.jpg,AMNE09.jpg,MN,1,num_2,32,num_4,0.350165100652,,,2017_Oct_18_1453,59.993592309,FEMA4ImagesEEG,001,102061,
AFNE01.JPG,AFNE01.JPG,AFNE01.JPG,AFNE01.JPG,AFNE01.JPG,AFNE01.JPG,,,,,,,,,,,,,2,0,20,9,,,,,,,,,,,AMNE20.jpg,AMNE12.jpg,AMSA07.jpg,AMSA20.jpg,AMNE20.jpg,MN,1,num_8,16,num_8,0.833460506547,,,2017_Oct_18_1453,59.993592309,FEMA4ImagesEEG,001,102061,
AFNE01.JPG,AFNE01.JPG,AFNE01.JPG,AFNE01.JPG,AFNE01.JPG,AFNE01.JPG,,,,,,,,,,,,,2,1,21,8,,,,,,,,,,,AMNE11.jpg,AMNE01.jpg,AMSA09.jpg,AMSA18.jpg,AMNE01.jpg,MN,1,num_6,32,num_4,0.733506211924,,,2017_Oct_18_1453,59.993592309,FEMA4ImagesEEG,001,102061,
AFNE01.JPG,AFNE01.JPG,AFNE01.JPG,AFNE01.JPG,AFNE01.JPG,AFNE01.JPG,,,,,,,,,,,,,2,2,22,5,,,,,,,,,,,AMNE18.jpg,AMNE05.jpg,AMSA15.jpg,AMSA13.jpg,AMNE18.jpg,MN,1,num_8,32,num_2,0.766794802097,,,2017_Oct_18_1453,59.993592309,FEMA4ImagesEEG,001,102061,
AFNE01.JPG,AFNE01.JPG,AFNE01.JPG,AFNE01.JPG,AFNE01.JPG,AFNE01.JPG,,,,,,,,,,,,,2,3,23,6,,,,,,,,,,,AMNE19.jpg,AMSA09.jpg,AMSA07.jpg,AMNE13.jpg,AMSA09.jpg,MS,2,num_6,16,num_6,0.449991740956,,,2017_Oct_18_1453,59.993592309,FEMA4ImagesEEG,001,102061,
AFNE01.JPG,AFNE01.JPG,AFNE01.JPG,AFNE01.JPG,AFNE01.JPG,AFNE01.JPG,,,,,,,,,,,,,2,4,24,4,,,,,,,,,,,AMSA08.jpg,AMSA15.jpg,AMNE15.jpg,AMNE08.jpg,AMNE15.jpg,MN,1,num_2,32,num_4,0.60012893728,,,2017_Oct_18_1453,59.993592309,FEMA4ImagesEEG,001,102061,
AFNE01.JPG,AFNE01.JPG,AFNE01.JPG,AFNE01.JPG,AFNE01.JPG,AFNE01.JPG,,,,,,,,,,,,,2,5,25,2,,,,,,,,,,,AMNE03.jpg,AMSA02.jpg,AMSA07.jpg,AMNE13.jpg,AMSA07.jpg,MS,2,num_2,16,num_2,0.533511664486,,,2017_Oct_18_1453,59.993592309,FEMA4ImagesEEG,001,102061,
AFNE01.JPG,AFNE01.JPG,AFNE01.JPG,AFNE01.JPG,AFNE01.JPG,AFNE01.JPG,,,,,,,,,,,,,2,6,26,3,,,,,,,,,,,AMSA13.jpg,AMSA01.jpg,AMNE07.jpg,AMNE10.jpg,AMSA01.jpg,MS,2,num_6,32,num_4,1.68335410122,,,2017_Oct_18_1453,59.993592309,FEMA4ImagesEEG,001,102061,
AFNE01.JPG,AFNE01.JPG,AFNE01.JPG,AFNE01.JPG,AFNE01.JPG,AFNE01.JPG,,,,,,,,,,,,,2,7,27,1,,,,,,,,,,,AMSA16.jpg,AMNE11.jpg,AMSA06.jpg,AMNE20.jpg,AMSA06.jpg,MS,2,num_2,32,num_6,0.516770345697,,,2017_Oct_18_1453,59.993592309,FEMA4ImagesEEG,001,102061,
AFNE01.JPG,AFNE01.JPG,AFNE01.JPG,AFNE01.JPG,AFNE01.JPG,AFNE01.JPG,,,,,,,,,,,,,2,8,28,0,,,,,,,,,,,AMNE16.jpg,AMSA18.jpg,AMNE04.jpg,AMSA15.jpg,AMSA18.jpg,MS,2,num_6,16,num_6,0.366949398522,,,2017_Oct_18_1453,59.993592309,FEMA4ImagesEEG,001,102061,
AFNE01.JPG,AFNE01.JPG,AFNE01.JPG,AFNE01.JPG,AFNE01.JPG,AFNE01.JPG,,,,,,,,,,,,,2,9,29,7,,,,,,,,,,,AMNE13.jpg,AMNE02.jpg,AMSA10.jpg,AMSA20.jpg,AMNE02.jpg,MN,1,num_6,32,num_4,0.300133908735,,,2017_Oct_18_1453,59.993592309,FEMA4ImagesEEG,001,102061,
AFNE01.JPG,AFNE01.JPG,AFNE01.JPG,AFNE01.JPG,AFNE01.JPG,AFNE01.JPG,,,,,,,,,,,,,3,0,30,1,,,,,,,,,,,AMSA17.jpg,AMNE06.jpg,AMNE02.jpg,AMSA08.jpg,AMNE02.jpg,MN,1,num_2,16,num_2,0.61675126171,,,2017_Oct_18_1453,59.993592309,FEMA4ImagesEEG,001,102061,
AFNE01.JPG,AFNE01.JPG,AFNE01.JPG,AFNE01.JPG,AFNE01.JPG,AFNE01.JPG,,,,,,,,,,,,,3,1,31,3,,,,,,,,,,,AMSA05.jpg,AMSA02.jpg,AMNE01.jpg,AMNE20.jpg,AMSA05.jpg,MS,2,num_8,32,num_6,0.683426909076,,,2017_Oct_18_1453,59.993592309,FEMA4ImagesEEG,001,102061,
AFNE01.JPG,AFNE01.JPG,AFNE01.JPG,AFNE01.JPG,AFNE01.JPG,AFNE01.JPG,,,,,,,,,,,,,3,2,32,8,,,,,,,,,,,AMSA01.jpg,AMNE07.jpg,AMNE10.jpg,AMSA09.jpg,AMNE07.jpg,MN,1,num_6,32,num_8,0.800157803838,,,2017_Oct_18_1453,59.993592309,FEMA4ImagesEEG,001,102061,
AFNE01.JPG,AFNE01.JPG,AFNE01.JPG,AFNE01.JPG,AFNE01.JPG,AFNE01.JPG,,,,,,,,,,,,,3,3,33,6,,,,,,,,,,,AMNE13.jpg,AMSA02.jpg,AMNE04.jpg,AMSA20.jpg,AMNE04.jpg,MN,1,num_2,16,num_2,0.716797929315,,,2017_Oct_18_1453,59.993592309,FEMA4ImagesEEG,001,102061,
AFNE01.JPG,AFNE01.JPG,AFNE01.JPG,AFNE01.JPG,AFNE01.JPG,AFNE01.JPG,,,,,,,,,,,,,3,4,34,4,,,,,,,,,,,AMNE06.jpg,AMSA19.jpg,AMNE14.jpg,AMSA05.jpg,AMSA19.jpg,MS,2,num_6,32,num_4,0.66677796327,,,2017_Oct_18_1453,59.993592309,FEMA4ImagesEEG,001,102061,
AFNE01.JPG,AFNE01.JPG,AFNE01.JPG,AFNE01.JPG,AFNE01.JPG,AFNE01.JPG,,,,,,,,,,,,,3,5,35,0,,,,,,,,,,,AMSA20.jpg,AMSA07.jpg,AMNE16.jpg,AMNE18.jpg,AMNE16.jpg,MN,1,num_2,32,num_8,0.383498273615,,,2017_Oct_18_1453,59.993592309,FEMA4ImagesEEG,001,102061,
AFNE01.JPG,AFNE01.JPG,AFNE01.JPG,AFNE01.JPG,AFNE01.JPG,AFNE01.JPG,,,,,,,,,,,,,3,6,36,5,,,,,,,,,,,AMSA15.jpg,AMNE16.jpg,AMSA08.jpg,AMNE19.jpg,AMNE19.jpg,MN,1,num_4,32,num_6,0.900096061479,,,2017_Oct_18_1453,59.993592309,FEMA4ImagesEEG,001,102061,
AFNE01.JPG,AFNE01.JPG,AFNE01.JPG,AFNE01.JPG,AFNE01.JPG,AFNE01.JPG,,,,,,,,,,,,,3,7,37,9,,,,,,,,,,,AMSA12.jpg,AMNE01.jpg,AMNE04.jpg,AMSA18.jpg,AMSA12.jpg,MS,2,num_8,32,num_4,0.700123965813,,,2017_Oct_18_1453,59.993592309,FEMA4ImagesEEG,001,102061,
AFNE01.JPG,AFNE01.JPG,AFNE01.JPG,AFNE01.JPG,AFNE01.JPG,AFNE01.JPG,,,,,,,,,,,,,3,8,38,7,,,,,,,,,,,AMSA15.jpg,AMNE17.jpg,AMNE03.jpg,AMSA09.jpg,AMSA09.jpg,MS,2,num_4,16,num_4,0.750085877997,,,2017_Oct_18_1453,59.993592309,FEMA4ImagesEEG,001,102061,
AFNE01.JPG,AFNE01.JPG,AFNE01.JPG,AFNE01.JPG,AFNE01.JPG,AFNE01.JPG,,,,,,,,,,,,,3,9,39,2,,,,,,,,,,,AMSA19.jpg,AMNE04.jpg,AMNE09.jpg,AMSA05.jpg,AMNE04.jpg,MN,1,num_6,32,num_4,0.433502523418,,,2017_Oct_18_1453,59.993592309,FEMA4ImagesEEG,001,102061,
AFNE01.JPG,AFNE01.JPG,AFNE01.JPG,AFNE01.JPG,AFNE01.JPG,AFNE01.JPG,,,,,,,,,,,,,4,0,40,1,,,,,,,,,,,AMSA09.jpg,AMSA03.jpg,AMNE07.jpg,AMNE12.jpg,AMSA09.jpg,MS,2,num_8,32,num_6,0.366786783605,,,2017_Oct_18_1453,59.993592309,FEMA4ImagesEEG,001,102061,
AFNE01.JPG,AFNE01.JPG,AFNE01.JPG,AFNE01.JPG,AFNE01.JPG,AFNE01.JPG,,,,,,,,,,,,,4,1,41,2,,,,,,,,,,,AMSA16.jpg,AMNE07.jpg,AMNE16.jpg,AMSA12.jpg,AMSA12.jpg,MS,2,num_4,32,num_8,0.733453931389,,,2017_Oct_18_1453,59.993592309,FEMA4ImagesEEG,001,102061,
AFNE01.JPG,AFNE01.JPG,AFNE01.JPG,AFNE01.JPG,AFNE01.JPG,AFNE01.JPG,,,,,,,,,,,,,4,2,42,5,,,,,,,,,,,AMSA03.jpg,AMSA04.jpg,AMNE15.jpg,AMNE08.jpg,AMSA04.jpg,MS,2,num_6,32,num_4,0.716767138321,,,2017_Oct_18_1453,59.993592309,FEMA4ImagesEEG,001,102061,
AFNE01.JPG,AFNE01.JPG,AFNE01.JPG,AFNE01.JPG,AFNE01.JPG,AFNE01.JPG,,,,,,,,,,,,,4,3,43,3,,,,,,,,,,,AMSA17.jpg,AMNE10.jpg,AMSA05.jpg,AMNE19.jpg,AMSA17.jpg,MS,2,num_8,16,num_8,0.533509098575,,,2017_Oct_18_1453,59.993592309,FEMA4ImagesEEG,001,102061,
AFNE01.JPG,AFNE01.JPG,AFNE01.JPG,AFNE01.JPG,AFNE01.JPG,AFNE01.JPG,,,,,,,,,,,,,4,4,44,8,,,,,,,,,,,AMNE17.jpg,AMSA12.jpg,AMNE02.jpg,AMSA08.jpg,AMSA08.jpg,MS,2,num_4,32,num_8,0.583464275231,,,2017_Oct_18_1453,59.993592309,FEMA4ImagesEEG,001,102061,
AFNE01.JPG,AFNE01.JPG,AFNE01.JPG,AFNE01.JPG,AFNE01.JPG,AFNE01.JPG,,,,,,,,,,,,,4,5,45,9,,,,,,,,,,,AMSA12.jpg,AMNE19.jpg,AMSA13.jpg,AMNE16.jpg,AMSA12.jpg,MS,2,num_8,32,num_4,0.350135592613,,,2017_Oct_18_1453,59.993592309,FEMA4ImagesEEG,001,102061,
AFNE01.JPG,AFNE01.JPG,AFNE01.JPG,AFNE01.JPG,AFNE01.JPG,AFNE01.JPG,,,,,,,,,,,,,4,6,46,4,,,,,,,,,,,AMSA11.jpg,AMSA08.jpg,AMNE16.jpg,AMNE05.jpg,AMNE16.jpg,MN,1,num_2,16,num_2,1.18345304935,,,2017_Oct_18_1453,59.993592309,FEMA4ImagesEEG,001,102061,
AFNE01.JPG,AFNE01.JPG,AFNE01.JPG,AFNE01.JPG,AFNE01.JPG,AFNE01.JPG,,,,,,,,,,,,,4,7,47,0,,,,,,,,,,,AMNE11.jpg,AMSA15.jpg,AMSA10.jpg,AMNE06.jpg,AMNE06.jpg,MN,1,num_4,16,num_4,0.750149705156,,,2017_Oct_18_1453,59.993592309,FEMA4ImagesEEG,001,102061,
AFNE01.JPG,AFNE01.JPG,AFNE01.JPG,AFNE01.JPG,AFNE01.JPG,AFNE01.JPG,,,,,,,,,,,,,4,8,48,6,,,,,,,,,,,AMSA11.jpg,AMNE11.jpg,AMNE02.jpg,AMSA20.jpg,AMSA11.jpg,MS,2,num_8,32,num_4,0.833455053973,,,2017_Oct_18_1453,59.993592309,FEMA4ImagesEEG,001,102061,
AFNE01.JPG,AFNE01.JPG,AFNE01.JPG,AFNE01.JPG,AFNE01.JPG,AFNE01.JPG,,,,,,,,,,,,,4,9,49,7,,,,,,,,,,,AMNE16.jpg,AMSA12.jpg,AMSA19.jpg,AMNE05.jpg,AMNE05.jpg,MN,1,num_4,32,num_8,0.900105683671,,,2017_Oct_18_1453,59.993592309,FEMA4ImagesEEG,001,102061,
AFNE01.JPG,AFNE01.JPG,AFNE01.JPG,AFNE01.JPG,AFNE01.JPG,AFNE01.JPG,,,,,,,,,,,,,5,0,50,3,,,,,,,,,,,AMSA18.jpg,AMNE01.jpg,AMNE14.jpg,AMSA11.jpg,AMNE14.jpg,MN,1,num_2,32,num_6,1.23338000094,,,2017_Oct_18_1453,59.993592309,FEMA4ImagesEEG,001,102061,
AFNE01.JPG,AFNE01.JPG,AFNE01.JPG,AFNE01.JPG,AFNE01.JPG,AFNE01.JPG,,,,,,,,,,,,,5,1,51,4,,,,,,,,,,,AMSA07.jpg,AMSA18.jpg,AMNE04.jpg,AMNE08.jpg,AMSA07.jpg,MS,2,num_8,32,num_6,0.550169911745,,,2017_Oct_18_1453,59.993592309,FEMA4ImagesEEG,001,102061,
AFNE01.JPG,AFNE01.JPG,AFNE01.JPG,AFNE01.JPG,AFNE01.JPG,AFNE01.JPG,,,,,,,,,,,,,5,2,52,7,,,,,,,,,,,AMSA03.jpg,AMNE10.jpg,AMSA04.jpg,AMNE16.jpg,AMNE16.jpg,MN,1,num_4,16,num_4,0.916769062751,,,2017_Oct_18_1453,59.993592309,FEMA4ImagesEEG,001,102061,
AFNE01.JPG,AFNE01.JPG,AFNE01.JPG,AFNE01.JPG,AFNE01.JPG,AFNE01.JPG,,,,,,,,,,,,,5,3,53,6,,,,,,,,,,,AMSA07.jpg,AMNE02.jpg,AMNE07.jpg,AMSA14.jpg,AMNE07.jpg,MN,1,num_2,32,num_8,0.916809475922,,,2017_Oct_18_1453,59.993592309,FEMA4ImagesEEG,001,102061,
AFNE01.JPG,AFNE01.JPG,AFNE01.JPG,AFNE01.JPG,AFNE01.JPG,AFNE01.JPG,,,,,,,,,,,,,5,4,54,1,,,,,,,,,,,AMNE09.jpg,AMSA05.jpg,AMNE08.jpg,AMSA11.jpg,AMNE08.jpg,MN,1,num_2,32,num_8,0.933731050303,,,2017_Oct_18_1453,59.993592309,FEMA4ImagesEEG,001,102061,
AFNE01.JPG,AFNE01.JPG,AFNE01.JPG,AFNE01.JPG,AFNE01.JPG,AFNE01.JPG,,,,,,,,,,,,,5,5,55,5,,,,,,,,,,,AMNE02.jpg,AMSA03.jpg,AMNE05.jpg,AMSA09.jpg,AMNE05.jpg,MN,1,num_2,32,num_8,0.70012973914,,,2017_Oct_18_1453,59.993592309,FEMA4ImagesEEG,001,102061,
AFNE01.JPG,AFNE01.JPG,AFNE01.JPG,AFNE01.JPG,AFNE01.JPG,AFNE01.JPG,,,,,,,,,,,,,5,6,56,0,,,,,,,,,,,AMNE10.jpg,AMSA11.jpg,AMSA15.jpg,AMNE03.jpg,AMSA15.jpg,MS,2,num_2,32,num_8,0.566785500661,,,2017_Oct_18_1453,59.993592309,FEMA4ImagesEEG,001,102061,
AFNE01.JPG,AFNE01.JPG,AFNE01.JPG,AFNE01.JPG,AFNE01.JPG,AFNE01.JPG,,,,,,,,,,,,,5,7,57,2,,,,,,,,,,,AMNE08.jpg,AMSA01.jpg,AMSA16.jpg,AMNE12.jpg,AMNE08.jpg,MN,1,num_8,32,num_4,0.416778845305,,,2017_Oct_18_1453,59.993592309,FEMA4ImagesEEG,001,102061,
AFNE01.JPG,AFNE01.JPG,AFNE01.JPG,AFNE01.JPG,AFNE01.JPG,AFNE01.JPG,,,,,,,,,,,,,5,8,58,9,,,,,,,,,,,AMSA19.jpg,AMSA12.jpg,AMNE20.jpg,AMNE05.jpg,AMSA12.jpg,MS,2,num_6,32,num_8,0.533434045545,,,2017_Oct_18_1453,59.993592309,FEMA4ImagesEEG,001,102061,
AFNE01.JPG,AFNE01.JPG,AFNE01.JPG,AFNE01.JPG,AFNE01.JPG,AFNE01.JPG,,,,,,,,,,,,,5,9,59,8,,,,,,,,,,,AMNE15.jpg,AMNE19.jpg,AMSA18.jpg,AMSA01.jpg,AMNE15.jpg,MN,1,num_8,16,num_8,0.633504768601,,,2017_Oct_18_1453,59.993592309,FEMA4ImagesEEG,001,102061,
,,,,,,,,,,,,,,,,,,,,,,,,,,,,,,,,,,,,,,,,,,,space,14.1490447576,2017_Oct_18_1453,59.993592309,FEMA4ImagesEEG,001,102061,
AFNE01.JPG,AFNE01.JPG,AFNE01.JPG,AFNE01.JPG,AFNE01.JPG,AFNE01.JPG,,,,,,,,,,,,,,,,,0,0,0,0,,,,,,,AFSA07.jpg,AFSA03.jpg,AFNE02.jpg,AFNE12.jpg,AFNE12.jpg,FN,3,num_4,32,num_8,0.68318122263,,,2017_Oct_18_1453,59.993592309,FEMA4ImagesEEG,001,102061,
AFNE01.JPG,AFNE01.JPG,AFNE01.JPG,AFNE01.JPG,AFNE01.JPG,AFNE01.JPG,,,,,,,,,,,,,,,,,0,1,1,2,,,,,,,AFNE14.jpg,AFNE13.jpg,AFSA17.jpg,AFSA10.jpg,AFNE14.jpg,FN,3,num_8,16,num_8,0.633507975988,,,2017_Oct_18_1453,59.993592309,FEMA4ImagesEEG,001,102061,
AFNE01.JPG,AFNE01.JPG,AFNE01.JPG,AFNE01.JPG,AFNE01.JPG,AFNE01.JPG,,,,,,,,,,,,,,,,,0,2,2,5,,,,,,,AFSA15.jpg,AFNE09.jpg,AFSA07.jpg,AFNE12.jpg,AFSA15.jpg,FS,4,num_8,16,num_8,0.466757756687,,,2017_Oct_18_1453,59.993592309,FEMA4ImagesEEG,001,102061,
AFNE01.JPG,AFNE01.JPG,AFNE01.JPG,AFNE01.JPG,AFNE01.JPG,AFNE01.JPG,,,,,,,,,,,,,,,,,0,3,3,8,,,,,,,AFSA13.jpg,AFNE12.jpg,AFNE03.jpg,AFSA18.jpg,AFNE12.jpg,FN,3,num_6,16,num_6,0.716842512091,,,2017_Oct_18_1453,59.993592309,FEMA4ImagesEEG,001,102061,
AFNE01.JPG,AFNE01.JPG,AFNE01.JPG,AFNE01.JPG,AFNE01.JPG,AFNE01.JPG,,,,,,,,,,,,,,,,,0,4,4,4,,,,,,,AFNE20.jpg,AFSA20.jpg,AFNE10.jpg,AFSA16.jpg,AFNE10.jpg,FN,3,num_2,32,num_8,0.750095820928,,,2017_Oct_18_1453,59.993592309,FEMA4ImagesEEG,001,102061,
AFNE01.JPG,AFNE01.JPG,AFNE01.JPG,AFNE01.JPG,AFNE01.JPG,AFNE01.JPG,,,,,,,,,,,,,,,,,0,5,5,6,,,,,,,AFNE06.jpg,AFSA03.jpg,AFNE19.jpg,AFSA13.jpg,AFSA03.jpg,FS,4,num_6,16,num_6,0.866766737396,,,2017_Oct_18_1453,59.993592309,FEMA4ImagesEEG,001,102061,
AFNE01.JPG,AFNE01.JPG,AFNE01.JPG,AFNE01.JPG,AFNE01.JPG,AFNE01.JPG,,,,,,,,,,,,,,,,,0,6,6,1,,,,,,,AFSA11.jpg,AFNE07.jpg,AFSA01.jpg,AFNE10.jpg,AFNE07.jpg,FN,3,num_6,32,num_2,1.11677066644,,,2017_Oct_18_1453,59.993592309,FEMA4ImagesEEG,001,102061,
AFNE01.JPG,AFNE01.JPG,AFNE01.JPG,AFNE01.JPG,AFNE01.JPG,AFNE01.JPG,,,,,,,,,,,,,,,,,0,7,7,3,,,,,,,AFSA07.jpg,AFSA19.jpg,AFNE04.jpg,AFNE01.jpg,AFSA19.jpg,FS,4,num_6,32,num_4,0.433499957508,,,2017_Oct_18_1453,59.993592309,FEMA4ImagesEEG,001,102061,
AFNE01.JPG,AFNE01.JPG,AFNE01.JPG,AFNE01.JPG,AFNE01.JPG,AFNE01.JPG,,,,,,,,,,,,,,,,,0,8,8,7,,,,,,,AFNE15.jpg,AFSA10.jpg,AFNE11.jpg,AFSA02.jpg,AFSA10.jpg,FS,4,num_6,32,num_8,0.516972732337,,,2017_Oct_18_1453,59.993592309,FEMA4ImagesEEG,001,102061,
AFNE01.JPG,AFNE01.JPG,AFNE01.JPG,AFNE01.JPG,AFNE01.JPG,AFNE01.JPG,,,,,,,,,,,,,,,,,0,9,9,9,,,,,,,AFSA06.jpg,AFSA10.jpg,AFNE12.jpg,AFNE14.jpg,AFNE12.jpg,FN,3,num_2,32,num_8,0.483491698455,,,2017_Oct_18_1453,59.993592309,FEMA4ImagesEEG,001,102061,
AFNE01.JPG,AFNE01.JPG,AFNE01.JPG,AFNE01.JPG,AFNE01.JPG,AFNE01.JPG,,,,,,,,,,,,,,,,,1,0,10,9,,,,,,,AFSA04.jpg,AFNE03.jpg,AFNE19.jpg,AFSA01.jpg,AFNE19.jpg,FN,3,num_2,32,num_4,0.766753747448,,,2017_Oct_18_1453,59.993592309,FEMA4ImagesEEG,001,102061,
AFNE01.JPG,AFNE01.JPG,AFNE01.JPG,AFNE01.JPG,AFNE01.JPG,AFNE01.JPG,,,,,,,,,,,,,,,,,1,1,11,1,,,,,,,AFSA07.jpg,AFNE04.jpg,AFSA02.jpg,AFNE03.jpg,AFSA07.jpg,FS,4,num_8,32,num_2,0.716822305505,,,2017_Oct_18_1453,59.993592309,FEMA4ImagesEEG,001,102061,
AFNE01.JPG,AFNE01.JPG,AFNE01.JPG,AFNE01.JPG,AFNE01.JPG,AFNE01.JPG,,,,,,,,,,,,,,,,,1,2,12,3,,,,,,,AFSA17.jpg,AFSA02.jpg,AFNE20.jpg,AFNE17.jpg,AFSA17.jpg,FS,4,num_8,16,num_8,0.466783736585,,,2017_Oct_18_1453,59.993592309,FEMA4ImagesEEG,001,102061,
AFNE01.JPG,AFNE01.JPG,AFNE01.JPG,AFNE01.JPG,AFNE01.JPG,AFNE01.JPG,,,,,,,,,,,,,,,,,1,3,13,2,,,,,,,AFNE17.jpg,AFSA10.jpg,AFSA09.jpg,AFNE16.jpg,AFNE17.jpg,FN,3,num_8,32,num_4,0.98347934999,,,2017_Oct_18_1453,59.993592309,FEMA4ImagesEEG,001,102061,
AFNE01.JPG,AFNE01.JPG,AFNE01.JPG,AFNE01.JPG,AFNE01.JPG,AFNE01.JPG,,,,,,,,,,,,,,,,,1,4,14,0,,,,,,,AFSA10.jpg,AFSA04.jpg,AFNE17.jpg,AFNE06.jpg,AFNE06.jpg,FN,3,num_4,32,num_8,0.850111056046,,,2017_Oct_18_1453,59.993592309,FEMA4ImagesEEG,001,102061,
AFNE01.JPG,AFNE01.JPG,AFNE01.JPG,AFNE01.JPG,AFNE01.JPG,AFNE01.JPG,,,,,,,,,,,,,,,,,1,5,15,8,,,,,,,AFSA12.jpg,AFNE05.jpg,AFNE06.jpg,AFSA17.jpg,AFNE05.jpg,FN,3,num_6,16,num_6,0.950095500171,,,2017_Oct_18_1453,59.993592309,FEMA4ImagesEEG,001,102061,
AFNE01.JPG,AFNE01.JPG,AFNE01.JPG,AFNE01.JPG,AFNE01.JPG,AFNE01.JPG,,,,,,,,,,,,,,,,,1,6,16,6,,,,,,,AFNE08.jpg,AFNE17.jpg,AFSA14.jpg,AFSA13.jpg,AFSA14.jpg,FS,4,num_2,32,num_4,1.0001266921,,,2017_Oct_18_1453,59.993592309,FEMA4ImagesEEG,001,102061,
AFNE01.JPG,AFNE01.JPG,AFNE01.JPG,AFNE01.JPG,AFNE01.JPG,AFNE01.JPG,,,,,,,,,,,,,,,,,1,7,17,7,,,,,,,AFSA08.jpg,AFNE09.jpg,AFSA14.jpg,AFNE10.jpg,AFNE09.jpg,FN,3,num_6,32,num_8,1.11672447997,,,2017_Oct_18_1453,59.993592309,FEMA4ImagesEEG,001,102061,
AFNE01.JPG,AFNE01.JPG,AFNE01.JPG,AFNE01.JPG,AFNE01.JPG,AFNE01.JPG,,,,,,,,,,,,,,,,,1,8,18,4,,,,,,,AFNE03.jpg,AFSA14.jpg,AFNE04.jpg,AFSA03.jpg,AFSA03.jpg,FS,4,num_4,16,num_4,0.616787184525,,,2017_Oct_18_1453,59.993592309,FEMA4ImagesEEG,001,102061,
AFNE01.JPG,AFNE01.JPG,AFNE01.JPG,AFNE01.JPG,AFNE01.JPG,AFNE01.JPG,,,,,,,,,,,,,,,,,1,9,19,5,,,,,,,AFSA19.jpg,AFSA16.jpg,AFNE07.jpg,AFNE09.jpg,AFNE07.jpg,FN,3,num_2,32,num_6,0.833461789502,,,2017_Oct_18_1453,59.993592309,FEMA4ImagesEEG,001,102061,
AFNE01.JPG,AFNE01.JPG,AFNE01.JPG,AFNE01.JPG,AFNE01.JPG,AFNE01.JPG,,,,,,,,,,,,,,,,,2,0,20,5,,,,,,,AFSA12.jpg,AFNE14.jpg,AFNE11.jpg,AFSA17.jpg,AFSA17.jpg,FS,4,num_4,32,num_8,0.416775958656,,,2017_Oct_18_1453,59.993592309,FEMA4ImagesEEG,001,102061,
AFNE01.JPG,AFNE01.JPG,AFNE01.JPG,AFNE01.JPG,AFNE01.JPG,AFNE01.JPG,,,,,,,,,,,,,,,,,2,1,21,7,,,,,,,AFSA17.jpg,AFSA01.jpg,AFNE02.jpg,AFNE13.jpg,AFSA01.jpg,FS,4,num_6,16,num_6,0.383513989858,,,2017_Oct_18_1453,59.993592309,FEMA4ImagesEEG,001,102061,
AFNE01.JPG,AFNE01.JPG,AFNE01.JPG,AFNE01.JPG,AFNE01.JPG,AFNE01.JPG,,,,,,,,,,,,,,,,,2,2,22,0,,,,,,,AFNE08.jpg,AFNE10.jpg,AFSA17.jpg,AFSA15.jpg,AFSA17.jpg,FS,4,num_2,32,num_4,0.650282972434,,,2017_Oct_18_1453,59.993592309,FEMA4ImagesEEG,001,102061,
AFNE01.JPG,AFNE01.JPG,AFNE01.JPG,AFNE01.JPG,AFNE01.JPG,AFNE01.JPG,,,,,,,,,,,,,,,,,2,3,23,4,,,,,,,AFNE05.jpg,AFNE03.jpg,AFSA04.jpg,AFSA14.jpg,AFSA14.jpg,FS,4,num_4,32,num_2,0.73344976177,,,2017_Oct_18_1453,59.993592309,FEMA4ImagesEEG,001,102061,
AFNE01.JPG,AFNE01.JPG,AFNE01.JPG,AFNE01.JPG,AFNE01.JPG,AFNE01.JPG,,,,,,,,,,,,,,,,,2,4,24,2,,,,,,,AFNE10.jpg,AFSA12.jpg,AFNE17.jpg,AFSA18.jpg,AFNE17.jpg,FN,3,num_2,32,num_4,0.566853818164,,,2017_Oct_18_1453,59.993592309,FEMA4ImagesEEG,001,102061,
AFNE01.JPG,AFNE01.JPG,AFNE01.JPG,AFNE01.JPG,AFNE01.JPG,AFNE01.JPG,,,,,,,,,,,,,,,,,2,5,25,8,,,,,,,AFSA13.jpg,AFSA06.jpg,AFNE16.jpg,AFNE01.jpg,AFNE16.jpg,FN,3,num_2,32,num_4,1.25019669349,,,2017_Oct_18_1453,59.993592309,FEMA4ImagesEEG,001,102061,
AFNE01.JPG,AFNE01.JPG,AFNE01.JPG,AFNE01.JPG,AFNE01.JPG,AFNE01.JPG,,,,,,,,,,,,,,,,,2,6,26,3,,,,,,,AFSA15.jpg,AFNE04.jpg,AFSA04.jpg,AFNE09.jpg,AFSA04.jpg,FS,4,num_2,16,num_2,0.466727286432,,,2017_Oct_18_1453,59.993592309,FEMA4ImagesEEG,001,102061,
AFNE01.JPG,AFNE01.JPG,AFNE01.JPG,AFNE01.JPG,AFNE01.JPG,AFNE01.JPG,,,,,,,,,,,,,,,,,2,7,27,6,,,,,,,AFSA16.jpg,AFNE08.jpg,AFNE18.jpg,AFSA11.jpg,AFNE08.jpg,FN,3,num_6,32,num_8,0.583406221383,,,2017_Oct_18_1453,59.993592309,FEMA4ImagesEEG,001,102061,
AFNE01.JPG,AFNE01.JPG,AFNE01.JPG,AFNE01.JPG,AFNE01.JPG,AFNE01.JPG,,,,,,,,,,,,,,,,,2,8,28,9,,,,,,,AFNE12.jpg,AFSA10.jpg,AFNE13.jpg,AFSA20.jpg,AFSA20.jpg,FS,4,num_4,32,num_6,0.666747813753,,,2017_Oct_18_1453,59.993592309,FEMA4ImagesEEG,001,102061,
AFNE01.JPG,AFNE01.JPG,AFNE01.JPG,AFNE01.JPG,AFNE01.JPG,AFNE01.JPG,,,,,,,,,,,,,,,,,2,9,29,1,,,,,,,AFSA11.jpg,AFSA07.jpg,AFNE08.jpg,AFNE03.jpg,AFSA07.jpg,FS,4,num_6,32,num_2,0.700123003597,,,2017_Oct_18_1453,59.993592309,FEMA4ImagesEEG,001,102061,
AFNE01.JPG,AFNE01.JPG,AFNE01.JPG,AFNE01.JPG,AFNE01.JPG,AFNE01.JPG,,,,,,,,,,,,,,,,,3,0,30,7,,,,,,,AFSA06.jpg,AFNE16.jpg,AFNE11.jpg,AFSA09.jpg,AFNE16.jpg,FN,3,num_6,32,num_4,0.450186429836,,,2017_Oct_18_1453,59.993592309,FEMA4ImagesEEG,001,102061,
AFNE01.JPG,AFNE01.JPG,AFNE01.JPG,AFNE01.JPG,AFNE01.JPG,AFNE01.JPG,,,,,,,,,,,,,,,,,3,1,31,3,,,,,,,AFSA07.jpg,AFNE13.jpg,AFSA11.jpg,AFNE09.jpg,AFSA11.jpg,FS,4,num_2,32,num_8,0.500123965816,,,2017_Oct_18_1453,59.993592309,FEMA4ImagesEEG,001,102061,
AFNE01.JPG,AFNE01.JPG,AFNE01.JPG,AFNE01.JPG,AFNE01.JPG,AFNE01.JPG,,,,,,,,,,,,,,,,,3,2,32,2,,,,,,,AFSA11.jpg,AFNE20.jpg,AFNE03.jpg,AFSA04.jpg,AFNE03.jpg,FN,3,num_2,32,num_6,0.333522248897,,,2017_Oct_18_1453,59.993592309,FEMA4ImagesEEG,001,102061,
AFNE01.JPG,AFNE01.JPG,AFNE01.JPG,AFNE01.JPG,AFNE01.JPG,AFNE01.JPG,,,,,,,,,,,,,,,,,3,3,33,1,,,,,,,AFSA04.jpg,AFSA02.jpg,AFNE12.jpg,AFNE05.jpg,AFNE12.jpg,FN,3,num_2,16,num_2,0.633385132765,,,2017_Oct_18_1453,59.993592309,FEMA4ImagesEEG,001,102061,
AFNE01.JPG,AFNE01.JPG,AFNE01.JPG,AFNE01.JPG,AFNE01.JPG,AFNE01.JPG,,,,,,,,,,,,,,,,,3,4,34,0,,,,,,,AFSA16.jpg,AFNE16.jpg,AFSA03.jpg,AFNE14.jpg,AFNE14.jpg,FN,3,num_4,16,num_4,0.200158766049,,,2017_Oct_18_1453,59.993592309,FEMA4ImagesEEG,001,102061,
AFNE01.JPG,AFNE01.JPG,AFNE01.JPG,AFNE01.JPG,AFNE01.JPG,AFNE01.JPG,,,,,,,,,,,,,,,,,3,5,35,9,,,,,,,AFSA09.jpg,AFNE13.jpg,AFNE19.jpg,AFSA14.jpg,AFSA14.jpg,FS,4,num_4,16,num_4,0.750113461603,,,2017_Oct_18_1453,59.993592309,FEMA4ImagesEEG,001,102061,
AFNE01.JPG,AFNE01.JPG,AFNE01.JPG,AFNE01.JPG,AFNE01.JPG,AFNE01.JPG,,,,,,,,,,,,,,,,,3,6,36,5,,,,,,,AFNE05.jpg,AFNE11.jpg,AFSA12.jpg,AFSA05.jpg,AFSA05.jpg,FS,4,num_4,32,num_2,0.716780930103,,,2017_Oct_18_1453,59.993592309,FEMA4ImagesEEG,001,102061,
AFNE01.JPG,AFNE01.JPG,AFNE01.JPG,AFNE01.JPG,AFNE01.JPG,AFNE01.JPG,,,,,,,,,,,,,,,,,3,7,37,6,,,,,,,AFNE04.jpg,AFSA17.jpg,AFSA12.jpg,AFNE17.jpg,AFNE04.jpg,FN,3,num_8,16,num_8,0.900107287365,,,2017_Oct_18_1453,59.993592309,FEMA4ImagesEEG,001,102061,
AFNE01.JPG,AFNE01.JPG,AFNE01.JPG,AFNE01.JPG,AFNE01.JPG,AFNE01.JPG,,,,,,,,,,,,,,,,,3,8,38,8,,,,,,,AFNE20.jpg,AFSA07.jpg,AFNE05.jpg,AFSA17.jpg,AFSA07.jpg,FS,4,num_6,32,num_2,0.400163897881,,,2017_Oct_18_1453,59.993592309,FEMA4ImagesEEG,001,102061,
AFNE01.JPG,AFNE01.JPG,AFNE01.JPG,AFNE01.JPG,AFNE01.JPG,AFNE01.JPG,,,,,,,,,,,,,,,,,3,9,39,4,,,,,,,AFSA05.jpg,AFSA19.jpg,AFNE08.jpg,AFNE19.jpg,AFNE19.jpg,FN,3,num_4,32,num_8,3.01659698601,,,2017_Oct_18_1453,59.993592309,FEMA4ImagesEEG,001,102061,
AFNE01.JPG,AFNE01.JPG,AFNE01.JPG,AFNE01.JPG,AFNE01.JPG,AFNE01.JPG,,,,,,,,,,,,,,,,,4,0,40,4,,,,,,,AFSA09.jpg,AFNE11.jpg,AFSA07.jpg,AFNE20.jpg,AFSA07.jpg,FS,4,num_2,32,num_4,0.450153393671,,,2017_Oct_18_1453,59.993592309,FEMA4ImagesEEG,001,102061,
AFNE01.JPG,AFNE01.JPG,AFNE01.JPG,AFNE01.JPG,AFNE01.JPG,AFNE01.JPG,,,,,,,,,,,,,,,,,4,1,41,8,,,,,,,AFNE06.jpg,AFSA10.jpg,AFNE09.jpg,AFSA17.jpg,AFSA17.jpg,FS,4,num_4,16,num_4,0.383460747093,,,2017_Oct_18_1453,59.993592309,FEMA4ImagesEEG,001,102061,
AFNE01.JPG,AFNE01.JPG,AFNE01.JPG,AFNE01.JPG,AFNE01.JPG,AFNE01.JPG,,,,,,,,,,,,,,,,,4,2,42,0,,,,,,,AFSA16.jpg,AFSA18.jpg,AFNE07.jpg,AFNE05.jpg,AFNE07.jpg,FN,3,num_2,32,num_4,0.9167248007,,,2017_Oct_18_1453,59.993592309,FEMA4ImagesEEG,001,102061,
AFNE01.JPG,AFNE01.JPG,AFNE01.JPG,AFNE01.JPG,AFNE01.JPG,AFNE01.JPG,,,,,,,,,,,,,,,,,4,3,43,3,,,,,,,AFNE01.jpg,AFSA19.jpg,AFNE05.jpg,AFSA09.jpg,AFNE05.jpg,FN,3,num_2,32,num_8,0.866770586261,,,2017_Oct_18_1453,59.993592309,FEMA4ImagesEEG,001,102061,
AFNE01.JPG,AFNE01.JPG,AFNE01.JPG,AFNE01.JPG,AFNE01.JPG,AFNE01.JPG,,,,,,,,,,,,,,,,,4,4,44,6,,,,,,,AFSA19.jpg,AFNE03.jpg,AFSA17.jpg,AFNE02.jpg,AFSA19.jpg,FS,4,num_8,16,num_8,1.4166919249,,,2017_Oct_18_1453,59.993592309,FEMA4ImagesEEG,001,102061,
AFNE01.JPG,AFNE01.JPG,AFNE01.JPG,AFNE01.JPG,AFNE01.JPG,AFNE01.JPG,,,,,,,,,,,,,,,,,4,5,45,1,,,,,,,AFSA17.jpg,AFNE05.jpg,AFSA02.jpg,AFNE11.jpg,AFNE05.jpg,FN,3,num_6,32,num_4,0.433474939826,,,2017_Oct_18_1453,59.993592309,FEMA4ImagesEEG,001,102061,
AFNE01.JPG,AFNE01.JPG,AFNE01.JPG,AFNE01.JPG,AFNE01.JPG,AFNE01.JPG,,,,,,,,,,,,,,,,,4,6,46,2,,,,,,,AFSA07.jpg,AFNE05.jpg,AFNE16.jpg,AFSA13.jpg,AFSA13.jpg,FS,4,num_4,32,num_8,0.316692085282,,,2017_Oct_18_1453,59.993592309,FEMA4ImagesEEG,001,102061,
AFNE01.JPG,AFNE01.JPG,AFNE01.JPG,AFNE01.JPG,AFNE01.JPG,AFNE01.JPG,,,,,,,,,,,,,,,,,4,7,47,7,,,,,,,AFNE09.jpg,AFSA15.jpg,AFSA07.jpg,AFNE19.jpg,AFNE09.jpg,FN,3,num_8,32,num_6,0.616513272995,,,2017_Oct_18_1453,59.993592309,FEMA4ImagesEEG,001,102061,
AFNE01.JPG,AFNE01.JPG,AFNE01.JPG,AFNE01.JPG,AFNE01.JPG,AFNE01.JPG,,,,,,,,,,,,,,,,,4,8,48,9,,,,,,,AFSA02.jpg,AFNE01.jpg,AFSA07.jpg,AFNE18.jpg,AFSA02.jpg,FS,4,num_8,32,num_4,0.416809636299,,,2017_Oct_18_1453,59.993592309,FEMA4ImagesEEG,001,102061,
AFNE01.JPG,AFNE01.JPG,AFNE01.JPG,AFNE01.JPG,AFNE01.JPG,AFNE01.JPG,,,,,,,,,,,,,,,,,4,9,49,5,,,,,,,AFNE18.jpg,AFSA18.jpg,AFSA16.jpg,AFNE13.jpg,AFNE18.jpg,FN,3,num_8,32,num_4,0.550134630394,,,2017_Oct_18_1453,59.993592309,FEMA4ImagesEEG,001,102061,
AFNE01.JPG,AFNE01.JPG,AFNE01.JPG,AFNE01.JPG,AFNE01.JPG,AFNE01.JPG,,,,,,,,,,,,,,,,,5,0,50,2,,,,,,,AFSA04.jpg,AFNE17.jpg,AFSA06.jpg,AFNE03.jpg,AFNE03.jpg,FN,3,num_4,32,num_2,0.400386491092,,,2017_Oct_18_1453,59.993592309,FEMA4ImagesEEG,001,102061,
AFNE01.JPG,AFNE01.JPG,AFNE01.JPG,AFNE01.JPG,AFNE01.JPG,AFNE01.JPG,,,,,,,,,,,,,,,,,5,1,51,1,,,,,,,AFSA10.jpg,AFNE11.jpg,AFNE07.jpg,AFSA12.jpg,AFSA12.jpg,FS,4,num_4,16,num_4,0.466745247832,,,2017_Oct_18_1453,59.993592309,FEMA4ImagesEEG,001,102061,
AFNE01.JPG,AFNE01.JPG,AFNE01.JPG,AFNE01.JPG,AFNE01.JPG,AFNE01.JPG,,,,,,,,,,,,,,,,,5,2,52,6,,,,,,,AFNE12.jpg,AFNE09.jpg,AFSA01.jpg,AFSA02.jpg,AFSA01.jpg,FS,4,num_2,32,num_4,0.633449601402,,,2017_Oct_18_1453,59.993592309,FEMA4ImagesEEG,001,102061,
AFNE01.JPG,AFNE01.JPG,AFNE01.JPG,AFNE01.JPG,AFNE01.JPG,AFNE01.JPG,,,,,,,,,,,,,,,,,5,3,53,8,,,,,,,AFNE09.jpg,AFSA09.jpg,AFSA08.jpg,AFNE16.jpg,AFSA09.jpg,FS,4,num_6,32,num_8,0.416812522963,,,2017_Oct_18_1453,59.993592309,FEMA4ImagesEEG,001,102061,
AFNE01.JPG,AFNE01.JPG,AFNE01.JPG,AFNE01.JPG,AFNE01.JPG,AFNE01.JPG,,,,,,,,,,,,,,,,,5,4,54,7,,,,,,,AFNE10.jpg,AFSA09.jpg,AFSA16.jpg,AFNE01.jpg,AFNE10.jpg,FN,3,num_8,32,num_4,0.800103598856,,,2017_Oct_18_1453,59.993592309,FEMA4ImagesEEG,001,102061,
AFNE01.JPG,AFNE01.JPG,AFNE01.JPG,AFNE01.JPG,AFNE01.JPG,AFNE01.JPG,,,,,,,,,,,,,,,,,5,5,55,3,,,,,,,AFNE13.jpg,AFSA06.jpg,AFSA01.jpg,AFNE05.jpg,AFNE05.jpg,FN,3,num_4,32,num_6,0.383474859642,,,2017_Oct_18_1453,59.993592309,FEMA4ImagesEEG,001,102061,
AFNE01.JPG,AFNE01.JPG,AFNE01.JPG,AFNE01.JPG,AFNE01.JPG,AFNE01.JPG,,,,,,,,,,,,,,,,,5,6,56,0,,,,,,,AFNE06.jpg,AFSA16.jpg,AFSA17.jpg,AFNE09.jpg,AFSA16.jpg,FS,4,num_6,32,num_4,0.350125649697,,,2017_Oct_18_1453,59.993592309,FEMA4ImagesEEG,001,102061,
AFNE01.JPG,AFNE01.JPG,AFNE01.JPG,AFNE01.JPG,AFNE01.JPG,AFNE01.JPG,,,,,,,,,,,,,,,,,5,7,57,4,,,,,,,AFNE15.jpg,AFSA17.jpg,AFSA16.jpg,AFNE17.jpg,AFNE15.jpg,FN,3,num_8,16,num_8,0.483486566634,,,2017_Oct_18_1453,59.993592309,FEMA4ImagesEEG,001,102061,
AFNE01.JPG,AFNE01.JPG,AFNE01.JPG,AFNE01.JPG,AFNE01.JPG,AFNE01.JPG,,,,,,,,,,,,,,,,,5,8,58,9,,,,,,,AFNE05.jpg,AFSA01.jpg,AFSA20.jpg,AFNE19.jpg,AFNE05.jpg,FN,3,num_8,32,num_6,0.400085637448,,,2017_Oct_18_1453,59.993592309,FEMA4ImagesEEG,001,102061,
AFNE01.JPG,AFNE01.JPG,AFNE01.JPG,AFNE01.JPG,AFNE01.JPG,AFNE01.JPG,,,,,,,,,,,,,,,,,5,9,59,5,,,,,,,AFNE16.jpg,AFNE09.jpg,AFSA15.jpg,AFSA06.jpg,AFSA06.jpg,FS,4,num_4,32,num_2,0.616790712666,,,2017_Oct_18_1453,59.993592309,FEMA4ImagesEEG,001,102061,
,,,,,,,,,,,,,,,,,,,,,,,,,,,,,,,,,,,,,,,,,,,space,12.8488896801,2017_Oct_18_1453,59.993592309,FEMA4ImagesEEG,001,102061,
AFNE01.JPG,AFNE01.JPG,AFNE01.JPG,AFNE01.JPG,AFNE01.JPG,AFNE01.JPG,,,,,,,,,,,,,,,,,,,,,0,0,0,8,,,AMNE05.jpg,AMSA13.jpg,AMSA17.jpg,AMNE16.jpg,AMNE05.jpg,MN,1,num_8,16,num_8,0.633472373913,,,2017_Oct_18_1453,59.993592309,FEMA4ImagesEEG,001,102061,
AFNE01.JPG,AFNE01.JPG,AFNE01.JPG,AFNE01.JPG,AFNE01.JPG,AFNE01.JPG,,,,,,,,,,,,,,,,,,,,,0,1,1,6,,,AMSA05.jpg,AMNE03.jpg,AMSA11.jpg,AMNE09.jpg,AMSA05.jpg,MS,2,num_8,32,num_4,0.350173439889,,,2017_Oct_18_1453,59.993592309,FEMA4ImagesEEG,001,102061,
AFNE01.JPG,AFNE01.JPG,AFNE01.JPG,AFNE01.JPG,AFNE01.JPG,AFNE01.JPG,,,,,,,,,,,,,,,,,,,,,0,2,2,3,,,AMNE04.jpg,AMSA18.jpg,AMSA03.jpg,AMNE01.jpg,AMSA18.jpg,MS,2,num_6,16,num_6,0.383506612852,,,2017_Oct_18_1453,59.993592309,FEMA4ImagesEEG,001,102061,
AFNE01.JPG,AFNE01.JPG,AFNE01.JPG,AFNE01.JPG,AFNE01.JPG,AFNE01.JPG,,,,,,,,,,,,,,,,,,,,,0,3,3,2,,,AMNE12.jpg,AMNE08.jpg,AMSA01.jpg,AMSA05.jpg,AMSA05.jpg,MS,2,num_4,32,num_2,0.350142328141,,,2017_Oct_18_1453,59.993592309,FEMA4ImagesEEG,001,102061,
AFNE01.JPG,AFNE01.JPG,AFNE01.JPG,AFNE01.JPG,AFNE01.JPG,AFNE01.JPG,,,,,,,,,,,,,,,,,,,,,0,4,4,9,,,AMSA14.jpg,AMNE07.jpg,AMSA03.jpg,AMNE17.jpg,AMNE17.jpg,MN,1,num_4,32,num_8,0.80010007073,,,2017_Oct_18_1453,59.993592309,FEMA4ImagesEEG,001,102061,
AFNE01.JPG,AFNE01.JPG,AFNE01.JPG,AFNE01.JPG,AFNE01.JPG,AFNE01.JPG,,,,,,,,,,,,,,,,,,,,,0,5,5,4,,,AMNE01.jpg,AMSA20.jpg,AMNE03.jpg,AMSA09.jpg,AMSA09.jpg,MS,2,num_4,16,num_4,0.366787104358,,,2017_Oct_18_1453,59.993592309,FEMA4ImagesEEG,001,102061,
AFNE01.JPG,AFNE01.JPG,AFNE01.JPG,AFNE01.JPG,AFNE01.JPG,AFNE01.JPG,,,,,,,,,,,,,,,,,,,,,0,6,6,1,,,AMSA08.jpg,AMSA17.jpg,AMNE11.jpg,AMNE07.jpg,AMNE11.jpg,MN,1,num_2,32,num_6,0.300153473843,,,2017_Oct_18_1453,59.993592309,FEMA4ImagesEEG,001,102061,
AFNE01.JPG,AFNE01.JPG,AFNE01.JPG,AFNE01.JPG,AFNE01.JPG,AFNE01.JPG,,,,,,,,,,,,,,,,,,,,,0,7,7,7,,,AMNE06.jpg,AMNE20.jpg,AMSA02.jpg,AMSA13.jpg,AMNE20.jpg,MN,1,num_6,16,num_6,0.766778123638,,,2017_Oct_18_1453,59.993592309,FEMA4ImagesEEG,001,102061,
AFNE01.JPG,AFNE01.JPG,AFNE01.JPG,AFNE01.JPG,AFNE01.JPG,AFNE01.JPG,,,,,,,,,,,,,,,,,,,,,0,8,8,5,,,AMNE06.jpg,AMNE16.jpg,AMSA13.jpg,AMSA17.jpg,AMNE06.jpg,MN,1,num_8,16,num_8,0.933430838137,,,2017_Oct_18_1453,59.993592309,FEMA4ImagesEEG,001,102061,
AFNE01.JPG,AFNE01.JPG,AFNE01.JPG,AFNE01.JPG,AFNE01.JPG,AFNE01.JPG,,,,,,,,,,,,,,,,,,,,,0,9,9,0,,,AMNE13.jpg,AMNE12.jpg,AMSA16.jpg,AMSA14.jpg,AMSA16.jpg,MS,2,num_2,32,num_4,0.816769543861,,,2017_Oct_18_1453,59.993592309,FEMA4ImagesEEG,001,102061,
AFNE01.JPG,AFNE01.JPG,AFNE01.JPG,AFNE01.JPG,AFNE01.JPG,AFNE01.JPG,,,,,,,,,,,,,,,,,,,,,1,0,10,0,,,AMSA09.jpg,AMNE17.jpg,AMNE10.jpg,AMSA04.jpg,AMNE17.jpg,MN,1,num_6,32,num_8,0.816791674893,,,2017_Oct_18_1453,59.993592309,FEMA4ImagesEEG,001,102061,
AFNE01.JPG,AFNE01.JPG,AFNE01.JPG,AFNE01.JPG,AFNE01.JPG,AFNE01.JPG,,,,,,,,,,,,,,,,,,,,,1,1,11,1,,,AMSA12.jpg,AMNE19.jpg,AMNE08.jpg,AMSA11.jpg,AMSA12.jpg,MS,2,num_8,32,num_6,0.300130701347,,,2017_Oct_18_1453,59.993592309,FEMA4ImagesEEG,001,102061,
AFNE01.JPG,AFNE01.JPG,AFNE01.JPG,AFNE01.JPG,AFNE01.JPG,AFNE01.JPG,,,,,,,,,,,,,,,,,,,,,1,2,12,2,,,AMNE08.jpg,AMSA09.jpg,AMNE01.jpg,AMSA15.jpg,AMSA09.jpg,MS,2,num_6,32,num_4,0.550394108664,,,2017_Oct_18_1453,59.993592309,FEMA4ImagesEEG,001,102061,
AFNE01.JPG,AFNE01.JPG,AFNE01.JPG,AFNE01.JPG,AFNE01.JPG,AFNE01.JPG,,,,,,,,,,,,,,,,,,,,,1,3,13,7,,,AMNE04.jpg,AMSA10.jpg,AMNE18.jpg,AMSA07.jpg,AMSA07.jpg,MS,2,num_4,16,num_4,0.333496589737,,,2017_Oct_18_1453,59.993592309,FEMA4ImagesEEG,001,102061,
AFNE01.JPG,AFNE01.JPG,AFNE01.JPG,AFNE01.JPG,AFNE01.JPG,AFNE01.JPG,,,,,,,,,,,,,,,,,,,,,1,4,14,3,,,AMSA09.jpg,AMNE05.jpg,AMNE11.jpg,AMSA14.jpg,AMSA09.jpg,MS,2,num_8,32,num_4,0.266767378867,,,2017_Oct_18_1453,59.993592309,FEMA4ImagesEEG,001,102061,
AFNE01.JPG,AFNE01.JPG,AFNE01.JPG,AFNE01.JPG,AFNE01.JPG,AFNE01.JPG,,,,,,,,,,,,,,,,,,,,,1,5,15,6,,,AMNE02.jpg,AMSA14.jpg,AMNE20.jpg,AMSA09.jpg,AMSA14.jpg,MS,2,num_6,32,num_8,0.650167826941,,,2017_Oct_18_1453,59.993592309,FEMA4ImagesEEG,001,102061,
AFNE01.JPG,AFNE01.JPG,AFNE01.JPG,AFNE01.JPG,AFNE01.JPG,AFNE01.JPG,,,,,,,,,,,,,,,,,,,,,1,6,16,4,,,AMSA14.jpg,AMNE20.jpg,AMNE04.jpg,AMSA19.jpg,AMSA19.jpg,MS,2,num_4,16,num_4,0.333484401635,,,2017_Oct_18_1453,59.993592309,FEMA4ImagesEEG,001,102061,
AFNE01.JPG,AFNE01.JPG,AFNE01.JPG,AFNE01.JPG,AFNE01.JPG,AFNE01.JPG,,,,,,,,,,,,,,,,,,,,,1,7,17,5,,,AMSA09.jpg,AMNE14.jpg,AMNE04.jpg,AMSA19.jpg,AMNE04.jpg,MN,1,num_2,16,num_2,0.333456497305,,,2017_Oct_18_1453,59.993592309,FEMA4ImagesEEG,001,102061,
AFNE01.JPG,AFNE01.JPG,AFNE01.JPG,AFNE01.JPG,AFNE01.JPG,AFNE01.JPG,,,,,,,,,,,,,,,,,,,,,1,8,18,8,,,AMSA06.jpg,AMNE13.jpg,AMNE20.jpg,AMSA14.jpg,AMNE20.jpg,MN,1,num_2,32,num_8,0.333505249699,,,2017_Oct_18_1453,59.993592309,FEMA4ImagesEEG,001,102061,
AFNE01.JPG,AFNE01.JPG,AFNE01.JPG,AFNE01.JPG,AFNE01.JPG,AFNE01.JPG,,,,,,,,,,,,,,,,,,,,,1,9,19,9,,,AMSA08.jpg,AMNE03.jpg,AMNE19.jpg,AMSA16.jpg,AMSA08.jpg,MS,2,num_8,16,num_8,0.300141927219,,,2017_Oct_18_1453,59.993592309,FEMA4ImagesEEG,001,102061,
AFNE01.JPG,AFNE01.JPG,AFNE01.JPG,AFNE01.JPG,AFNE01.JPG,AFNE01.JPG,,,,,,,,,,,,,,,,,,,,,2,0,20,4,,,AMSA16.jpg,AMSA14.jpg,AMNE13.jpg,AMNE12.jpg,AMSA16.jpg,MS,2,num_8,32,num_6,0.33350877784,,,2017_Oct_18_1453,59.993592309,FEMA4ImagesEEG,001,102061,
AFNE01.JPG,AFNE01.JPG,AFNE01.JPG,AFNE01.JPG,AFNE01.JPG,AFNE01.JPG,,,,,,,,,,,,,,,,,,,,,2,1,21,8,,,AMSA08.jpg,AMSA07.jpg,AMNE02.jpg,AMNE08.jpg,AMSA07.jpg,MS,2,num_6,32,num_8,0.316806910021,,,2017_Oct_18_1453,59.993592309,FEMA4ImagesEEG,001,102061,
AFNE01.JPG,AFNE01.JPG,AFNE01.JPG,AFNE01.JPG,AFNE01.JPG,AFNE01.JPG,,,,,,,,,,,,,,,,,,,,,2,2,22,9,,,AMNE11.jpg,AMSA06.jpg,AMNE06.jpg,AMSA19.jpg,AMNE11.jpg,MN,1,num_8,32,num_2,0.466749738189,,,2017_Oct_18_1453,59.993592309,FEMA4ImagesEEG,001,102061,
AFNE01.JPG,AFNE01.JPG,AFNE01.JPG,AFNE01.JPG,AFNE01.JPG,AFNE01.JPG,,,,,,,,,,,,,,,,,,,,,2,3,23,0,,,AMSA13.jpg,AMSA19.jpg,AMNE03.jpg,AMNE17.jpg,AMSA13.jpg,MS,2,num_8,32,num_6,0.366764331833,,,2017_Oct_18_1453,59.993592309,FEMA4ImagesEEG,001,102061,
AFNE01.JPG,AFNE01.JPG,AFNE01.JPG,AFNE01.JPG,AFNE01.JPG,AFNE01.JPG,,,,,,,,,,,,,,,,,,,,,2,4,24,5,,,AMNE16.jpg,AMNE04.jpg,AMSA19.jpg,AMSA04.jpg,AMNE04.jpg,MN,1,num_6,32,num_8,0.900152190894,,,2017_Oct_18_1453,59.993592309,FEMA4ImagesEEG,001,102061,
AFNE01.JPG,AFNE01.JPG,AFNE01.JPG,AFNE01.JPG,AFNE01.JPG,AFNE01.JPG,,,,,,,,,,,,,,,,,,,,,2,5,25,1,,,AMSA18.jpg,AMNE18.jpg,AMNE03.jpg,AMSA07.jpg,AMNE03.jpg,MN,1,num_2,32,num_6,0.866783415855,,,2017_Oct_18_1453,59.993592309,FEMA4ImagesEEG,001,102061,
AFNE01.JPG,AFNE01.JPG,AFNE01.JPG,AFNE01.JPG,AFNE01.JPG,AFNE01.JPG,,,,,,,,,,,,,,,,,,,,,2,6,26,6,,,AMSA12.jpg,AMNE13.jpg,AMSA15.jpg,AMNE02.jpg,AMNE13.jpg,MN,1,num_6,32,num_8,0.683509018389,,,2017_Oct_18_1453,59.993592309,FEMA4ImagesEEG,001,102061,
AFNE01.JPG,AFNE01.JPG,AFNE01.JPG,AFNE01.JPG,AFNE01.JPG,AFNE01.JPG,,,,,,,,,,,,,,,,,,,,,2,7,27,7,,,AMSA09.jpg,AMNE07.jpg,AMSA20.jpg,AMNE09.jpg,AMNE09.jpg,MN,1,num_4,32,num_2,0.333496589737,,,2017_Oct_18_1453,59.993592309,FEMA4ImagesEEG,001,102061,
AFNE01.JPG,AFNE01.JPG,AFNE01.JPG,AFNE01.JPG,AFNE01.JPG,AFNE01.JPG,,,,,,,,,,,,,,,,,,,,,2,8,28,3,,,AMNE16.jpg,AMSA07.jpg,AMNE10.jpg,AMSA04.jpg,AMSA04.jpg,MS,2,num_4,32,num_8,0.250103999788,,,2017_Oct_18_1453,59.993592309,FEMA4ImagesEEG,001,102061,
AFNE01.JPG,AFNE01.JPG,AFNE01.JPG,AFNE01.JPG,AFNE01.JPG,AFNE01.JPG,,,,,,,,,,,,,,,,,,,,,2,9,29,2,,,AMSA08.jpg,AMNE09.jpg,AMNE19.jpg,AMSA14.jpg,AMSA08.jpg,MS,2,num_8,16,num_8,0.550108650496,,,2017_Oct_18_1453,59.993592309,FEMA4ImagesEEG,001,102061,
AFNE01.JPG,AFNE01.JPG,AFNE01.JPG,AFNE01.JPG,AFNE01.JPG,AFNE01.JPG,,,,,,,,,,,,,,,,,,,,,3,0,30,2,,,AMSA04.jpg,AMSA03.jpg,AMNE07.jpg,AMNE10.jpg,AMNE10.jpg,MN,1,num_4,32,num_6,0.666771227741,,,2017_Oct_18_1453,59.993592309,FEMA4ImagesEEG,001,102061,
AFNE01.JPG,AFNE01.JPG,AFNE01.JPG,AFNE01.JPG,AFNE01.JPG,AFNE01.JPG,,,,,,,,,,,,,,,,,,,,,3,1,31,7,,,AMNE09.jpg,AMSA06.jpg,AMNE19.jpg,AMSA10.jpg,AMNE09.jpg,MN,1,num_8,16,num_8,0.866769944783,,,2017_Oct_18_1453,59.993592309,FEMA4ImagesEEG,001,102061,
AFNE01.JPG,AFNE01.JPG,AFNE01.JPG,AFNE01.JPG,AFNE01.JPG,AFNE01.JPG,,,,,,,,,,,,,,,,,,,,,3,2,32,8,,,AMNE06.jpg,AMSA19.jpg,AMSA03.jpg,AMNE02.jpg,AMSA19.jpg,MS,2,num_6,32,num_8,1.50006655345,,,2017_Oct_18_1453,59.993592309,FEMA4ImagesEEG,001,102061,
AFNE01.JPG,AFNE01.JPG,AFNE01.JPG,AFNE01.JPG,AFNE01.JPG,AFNE01.JPG,,,,,,,,,,,,,,,,,,,,,3,3,33,1,,,AMNE17.jpg,AMSA07.jpg,AMSA15.jpg,AMNE03.jpg,AMSA07.jpg,MS,2,num_6,32,num_8,0.599899929279,,,2017_Oct_18_1453,59.993592309,FEMA4ImagesEEG,001,102061,
AFNE01.JPG,AFNE01.JPG,AFNE01.JPG,AFNE01.JPG,AFNE01.JPG,AFNE01.JPG,,,,,,,,,,,,,,,,,,,,,3,4,34,0,,,AMSA06.jpg,AMNE14.jpg,AMNE12.jpg,AMSA15.jpg,AMNE12.jpg,MN,1,num_2,32,num_4,0.450150186269,,,2017_Oct_18_1453,59.993592309,FEMA4ImagesEEG,001,102061,
AFNE01.JPG,AFNE01.JPG,AFNE01.JPG,AFNE01.JPG,AFNE01.JPG,AFNE01.JPG,,,,,,,,,,,,,,,,,,,,,3,5,35,6,,,AMNE11.jpg,AMSA18.jpg,AMNE06.jpg,AMSA16.jpg,AMNE06.jpg,MN,1,num_2,32,num_8,0.71683898395,,,2017_Oct_18_1453,59.993592309,FEMA4ImagesEEG,001,102061,
AFNE01.JPG,AFNE01.JPG,AFNE01.JPG,AFNE01.JPG,AFNE01.JPG,AFNE01.JPG,,,,,,,,,,,,,,,,,,,,,3,6,36,9,,,AMNE07.jpg,AMSA18.jpg,AMNE13.jpg,AMSA09.jpg,AMNE07.jpg,MN,1,num_8,32,num_6,0.333494023827,,,2017_Oct_18_1453,59.993592309,FEMA4ImagesEEG,001,102061,
AFNE01.JPG,AFNE01.JPG,AFNE01.JPG,AFNE01.JPG,AFNE01.JPG,AFNE01.JPG,,,,,,,,,,,,,,,,,,,,,3,7,37,4,,,AMSA18.jpg,AMSA03.jpg,AMNE04.jpg,AMNE11.jpg,AMSA18.jpg,MS,2,num_8,16,num_8,0.400162614926,,,2017_Oct_18_1453,59.993592309,FEMA4ImagesEEG,001,102061,
AFNE01.JPG,AFNE01.JPG,AFNE01.JPG,AFNE01.JPG,AFNE01.JPG,AFNE01.JPG,,,,,,,,,,,,,,,,,,,,,3,8,38,3,,,AMNE08.jpg,AMSA17.jpg,AMNE19.jpg,AMSA04.jpg,AMSA04.jpg,MS,2,num_4,16,num_4,0.300159888648,,,2017_Oct_18_1453,59.993592309,FEMA4ImagesEEG,001,102061,
AFNE01.JPG,AFNE01.JPG,AFNE01.JPG,AFNE01.JPG,AFNE01.JPG,AFNE01.JPG,,,,,,,,,,,,,,,,,,,,,3,9,39,5,,,AMSA16.jpg,AMSA12.jpg,AMNE20.jpg,AMNE17.jpg,AMSA12.jpg,MS,2,num_6,32,num_8,0.683446153445,,,2017_Oct_18_1453,59.993592309,FEMA4ImagesEEG,001,102061,
AFNE01.JPG,AFNE01.JPG,AFNE01.JPG,AFNE01.JPG,AFNE01.JPG,AFNE01.JPG,,,,,,,,,,,,,,,,,,,,,4,0,40,9,,,AMNE07.jpg,AMSA16.jpg,AMSA14.jpg,AMNE15.jpg,AMNE15.jpg,MN,1,num_4,32,num_8,0.683472454082,,,2017_Oct_18_1453,59.993592309,FEMA4ImagesEEG,001,102061,
