IPosition2,IPosition3,IPosition1,IPosition6,IPosition4,IPosition5,TrialsF1.thisRepN,TrialsF1.thisTrialN,TrialsF1.thisN,TrialsF1.thisIndex,TrialsM1.thisRepN,TrialsM1.thisTrialN,TrialsM1.thisN,TrialsM1.thisIndex,TrialsF2.thisRepN,TrialsF2.thisTrialN,TrialsF2.thisN,TrialsF2.thisIndex,TrialsM2.thisRepN,TrialsM2.thisTrialN,TrialsM2.thisN,TrialsM2.thisIndex,TrialsF3.thisRepN,TrialsF3.thisTrialN,TrialsF3.thisN,TrialsF3.thisIndex,TrialsM3.thisRepN,TrialsM3.thisTrialN,TrialsM3.thisN,TrialsM3.thisIndex,InstrKey_resp.keys,InstrKey_resp.rt,Image0 _Position,Image1 _Position,Image2 _Position,Image3 _Position,Center_image,condition,code,correct_answer,accuracy,Key_Resp.keys,Key_Resp.rt,BreakKey_resp.keys,BreakKey_resp.rt,date,frameRate,expName,session,participant,
,,,,,,,,,,,,,,,,,,,,,,,,,,,,,,space,22.2988105376,,,,,,,,,,,,,,2017_Oct_24_1551,59.977204118,FEMA4ImagesEEG,001,102198,
AFSA21.JPG,AFNE23.JPG,AFNE21.JPG,AFSA25.JPG,AFNE25.JPG,AFSA23.JPG,0,0,0,4,,,,,,,,,,,,,,,,,,,,,,,AFNE11.jpg,AFSA11.jpg,AFNE13.jpg,AFSA10.jpg,AFSA10.jpg,FS,4,num_4,48,None,,,,2017_Oct_24_1551,59.977204118,FEMA4ImagesEEG,001,102198,
AMNE22.JPG,AMSA24.JPG,AMSA22.JPG,AMNE25.JPG,AMNE24.JPG,AMSA25.JPG,0,1,1,7,,,,,,,,,,,,,,,,,,,,,,,AFSA08.jpg,AFNE09.jpg,AFSA02.jpg,AFNE04.jpg,AFSA08.jpg,FS,4,num_8,16,num_8,0.933422819595,,,2017_Oct_24_1551,59.977204118,FEMA4ImagesEEG,001,102198,
AFNE23.JPG,AFNE24.JPG,AFNE22.JPG,AFSA24.JPG,AFSA22.JPG,AFSA23.JPG,0,2,2,8,,,,,,,,,,,,,,,,,,,,,,,AFSA03.jpg,AFSA12.jpg,AFNE10.jpg,AFNE20.jpg,AFSA03.jpg,FS,4,num_8,32,num_6,2.21666594502,,,2017_Oct_24_1551,59.977204118,FEMA4ImagesEEG,001,102198,
AMSA25.JPG,AMNE24.JPG,AMSA24.JPG,AMNE26.JPG,AMSA21.JPG,AMNE25.JPG,0,3,3,3,,,,,,,,,,,,,,,,,,,,,,,AFNE17.jpg,AFSA11.jpg,AFNE10.jpg,AFSA19.jpg,AFNE10.jpg,FN,3,num_2,48,None,,,,2017_Oct_24_1551,59.977204118,FEMA4ImagesEEG,001,102198,
AMNE23.JPG,AMNE24.JPG,AMNE22.JPG,AMSA24.JPG,AMSA22.JPG,AMSA23.JPG,0,4,4,9,,,,,,,,,,,,,,,,,,,,,,,AFSA07.jpg,AFSA06.jpg,AFNE05.jpg,AFNE14.jpg,AFNE14.jpg,FN,3,num_4,48,None,,,,2017_Oct_24_1551,59.977204118,FEMA4ImagesEEG,001,102198,
AMSA21.JPG,AMNE23.JPG,AMNE21.JPG,AMSA25.JPG,AMNE25.JPG,AMSA23.JPG,0,5,5,5,,,,,,,,,,,,,,,,,,,,,,,AFNE11.jpg,AFSA02.jpg,AFNE02.jpg,AFSA04.jpg,AFNE02.jpg,FN,3,num_2,16,num_2,2.76660556579,,,2017_Oct_24_1551,59.977204118,FEMA4ImagesEEG,001,102198,
AFSA25.JPG,AFNE24.JPG,AFSA24.JPG,AFNE21.JPG,AFSA21.JPG,AFNE25.JPG,0,6,6,2,,,,,,,,,,,,,,,,,,,,,,,AFSA12.jpg,AFNE20.jpg,AFSA11.jpg,AFNE17.jpg,AFSA11.jpg,FS,4,num_2,32,num_4,3.89993216353,,,2017_Oct_24_1551,59.977204118,FEMA4ImagesEEG,001,102198,
AMSA21.JPG,AMNE22.JPG,AMNE21.JPG,AMSA23.JPG,AMSA22.JPG,AMNE23.JPG,0,7,7,1,,,,,,,,,,,,,,,,,,,,,,,AFNE06.jpg,AFSA14.jpg,AFSA12.jpg,AFNE20.jpg,AFSA14.jpg,FS,4,num_6,32,num_4,1.76669505215,,,2017_Oct_24_1551,59.977204118,FEMA4ImagesEEG,001,102198,
AFNE22.JPG,AFSA24.JPG,AFSA22.JPG,AFNE25.JPG,AFNE24.JPG,AFSA25.JPG,0,8,8,6,,,,,,,,,,,,,,,,,,,,,,,AFSA15.jpg,AFNE06.jpg,AFNE12.jpg,AFSA09.jpg,AFNE06.jpg,FN,3,num_6,32,num_8,1.51674757316,,,2017_Oct_24_1551,59.977204118,FEMA4ImagesEEG,001,102198,
AFSA21.JPG,AFNE22.JPG,AFNE21.JPG,AFSA23.JPG,AFSA22.JPG,AFNE23.JPG,0,9,9,0,,,,,,,,,,,,,,,,,,,,,,,AFSA18.jpg,AFNE18.jpg,AFNE01.jpg,AFSA03.jpg,AFNE01.jpg,FN,3,num_2,16,num_2,1.88336917595,,,2017_Oct_24_1551,59.977204118,FEMA4ImagesEEG,001,102198,
AFNE23.JPG,AFNE24.JPG,AFNE22.JPG,AFSA24.JPG,AFSA22.JPG,AFSA23.JPG,,,,,0,0,0,8,,,,,,,,,,,,,,,,,,,AMNE09.jpg,AMNE03.jpg,AMSA09.jpg,AMSA16.jpg,AMNE09.jpg,MN,1,num_8,16,num_8,3.19998011412,,,2017_Oct_24_1551,59.977204118,FEMA4ImagesEEG,001,102198,
AMSA21.JPG,AMNE23.JPG,AMNE21.JPG,AMSA25.JPG,AMNE25.JPG,AMSA23.JPG,,,,,0,1,1,5,,,,,,,,,,,,,,,,,,,AMSA19.jpg,AMSA14.jpg,AMNE01.jpg,AMNE05.jpg,AMNE01.jpg,MN,1,num_2,16,num_2,1.63337839721,,,2017_Oct_24_1551,59.977204118,FEMA4ImagesEEG,001,102198,
AMSA25.JPG,AMNE24.JPG,AMSA24.JPG,AMNE26.JPG,AMSA21.JPG,AMNE25.JPG,,,,,0,2,2,3,,,,,,,,,,,,,,,,,,,AMSA14.jpg,AMSA20.jpg,AMNE18.jpg,AMNE04.jpg,AMNE04.jpg,MN,1,num_4,16,num_4,1.35007016174,,,2017_Oct_24_1551,59.977204118,FEMA4ImagesEEG,001,102198,
AFSA21.JPG,AFNE23.JPG,AFNE21.JPG,AFSA25.JPG,AFNE25.JPG,AFSA23.JPG,,,,,0,3,3,4,,,,,,,,,,,,,,,,,,,AMNE13.jpg,AMNE03.jpg,AMSA05.jpg,AMSA09.jpg,AMSA09.jpg,MS,2,num_4,32,num_6,1.65011490497,,,2017_Oct_24_1551,59.977204118,FEMA4ImagesEEG,001,102198,
AFNE22.JPG,AFSA24.JPG,AFSA22.JPG,AFNE25.JPG,AFNE24.JPG,AFSA25.JPG,,,,,0,4,4,6,,,,,,,,,,,,,,,,,,,AMNE01.jpg,AMNE07.jpg,AMSA01.jpg,AMSA19.jpg,AMNE07.jpg,MN,1,num_6,32,num_8,1.61677243048,,,2017_Oct_24_1551,59.977204118,FEMA4ImagesEEG,001,102198,
AMSA21.JPG,AMNE22.JPG,AMNE21.JPG,AMSA23.JPG,AMSA22.JPG,AMNE23.JPG,,,,,0,5,5,1,,,,,,,,,,,,,,,,,,,AMSA18.jpg,AMNE12.jpg,AMNE18.jpg,AMSA01.jpg,AMSA18.jpg,MS,2,num_8,32,num_4,2.35001531523,,,2017_Oct_24_1551,59.977204118,FEMA4ImagesEEG,001,102198,
AMNE23.JPG,AMNE24.JPG,AMNE22.JPG,AMSA24.JPG,AMSA22.JPG,AMSA23.JPG,,,,,0,6,6,9,,,,,,,,,,,,,,,,,,,AMNE15.jpg,AMSA11.jpg,AMNE16.jpg,AMSA08.jpg,AMSA08.jpg,MS,2,num_4,32,num_2,2.59996407724,,,2017_Oct_24_1551,59.977204118,FEMA4ImagesEEG,001,102198,
AFSA25.JPG,AFNE24.JPG,AFSA24.JPG,AFNE21.JPG,AFSA21.JPG,AFNE25.JPG,,,,,0,7,7,2,,,,,,,,,,,,,,,,,,,AMNE10.jpg,AMNE16.jpg,AMSA18.jpg,AMSA02.jpg,AMSA02.jpg,MS,2,num_4,32,num_6,4.89980771672,,,2017_Oct_24_1551,59.977204118,FEMA4ImagesEEG,001,102198,
AFSA21.JPG,AFNE22.JPG,AFNE21.JPG,AFSA23.JPG,AFSA22.JPG,AFNE23.JPG,,,,,0,8,8,0,,,,,,,,,,,,,,,,,,,AMNE10.jpg,AMSA09.jpg,AMSA19.jpg,AMNE05.jpg,AMSA09.jpg,MS,2,num_6,16,num_6,1.2167230366,,,2017_Oct_24_1551,59.977204118,FEMA4ImagesEEG,001,102198,
AMNE22.JPG,AMSA24.JPG,AMSA22.JPG,AMNE25.JPG,AMNE24.JPG,AMSA25.JPG,,,,,0,9,9,7,,,,,,,,,,,,,,,,,,,AMSA18.jpg,AMSA20.jpg,AMNE20.jpg,AMNE04.jpg,AMNE20.jpg,MN,1,num_2,32,num_6,3.64992374415,,,2017_Oct_24_1551,59.977204118,FEMA4ImagesEEG,001,102198,
AFNE22.JPG,AFSA24.JPG,AFSA22.JPG,AFNE25.JPG,AFNE24.JPG,AFSA25.JPG,,,,,,,,,0,0,0,6,,,,,,,,,,,,,,,AFSA16.jpg,AFNE11.jpg,AFNE04.jpg,AFSA19.jpg,AFSA19.jpg,FS,4,num_4,32,num_8,2.99980531109,,,2017_Oct_24_1551,59.977204118,FEMA4ImagesEEG,001,102198,
AMNE23.JPG,AMNE24.JPG,AMNE22.JPG,AMSA24.JPG,AMSA22.JPG,AMSA23.JPG,,,,,,,,,0,1,1,9,,,,,,,,,,,,,,,AFSA17.jpg,AFSA10.jpg,AFNE15.jpg,AFNE20.jpg,AFSA10.jpg,FS,4,num_6,32,num_4,3.7832394368,,,2017_Oct_24_1551,59.977204118,FEMA4ImagesEEG,001,102198,
AMSA25.JPG,AMNE24.JPG,AMSA24.JPG,AMNE26.JPG,AMSA21.JPG,AMNE25.JPG,,,,,,,,,0,2,2,3,,,,,,,,,,,,,,,AFSA19.jpg,AFNE15.jpg,AFSA16.jpg,AFNE02.jpg,AFSA19.jpg,FS,4,num_8,32,num_2,2.11667925573,,,2017_Oct_24_1551,59.977204118,FEMA4ImagesEEG,001,102198,
AFSA25.JPG,AFNE24.JPG,AFSA24.JPG,AFNE21.JPG,AFSA21.JPG,AFNE25.JPG,,,,,,,,,0,3,3,2,,,,,,,,,,,,,,,AFSA01.jpg,AFSA03.jpg,AFNE02.jpg,AFNE08.jpg,AFNE08.jpg,FN,3,num_4,16,num_4,0.716614145553,,,2017_Oct_24_1551,59.977204118,FEMA4ImagesEEG,001,102198,
AFSA21.JPG,AFNE23.JPG,AFNE21.JPG,AFSA25.JPG,AFNE25.JPG,AFSA23.JPG,,,,,,,,,0,4,4,4,,,,,,,,,,,,,,,AFNE18.jpg,AFNE04.jpg,AFSA08.jpg,AFSA06.jpg,AFSA08.jpg,FS,4,num_2,16,num_2,1.26672279602,,,2017_Oct_24_1551,59.977204118,FEMA4ImagesEEG,001,102198,
AMSA21.JPG,AMNE23.JPG,AMNE21.JPG,AMSA25.JPG,AMNE25.JPG,AMSA23.JPG,,,,,,,,,0,5,5,5,,,,,,,,,,,,,,,AFSA11.jpg,AFNE12.jpg,AFSA04.jpg,AFNE17.jpg,AFNE12.jpg,FN,3,num_6,32,num_2,1.88336051605,,,2017_Oct_24_1551,59.977204118,FEMA4ImagesEEG,001,102198,
AMNE22.JPG,AMSA24.JPG,AMSA22.JPG,AMNE25.JPG,AMNE24.JPG,AMSA25.JPG,,,,,,,,,0,6,6,7,,,,,,,,,,,,,,,AFNE08.jpg,AFNE14.jpg,AFSA17.jpg,AFSA12.jpg,AFSA17.jpg,FS,4,num_2,32,num_6,1.08343236172,,,2017_Oct_24_1551,59.977204118,FEMA4ImagesEEG,001,102198,
AFNE23.JPG,AFNE24.JPG,AFNE22.JPG,AFSA24.JPG,AFSA22.JPG,AFSA23.JPG,,,,,,,,,0,7,7,8,,,,,,,,,,,,,,,AFSA07.jpg,AFNE02.jpg,AFNE19.jpg,AFSA03.jpg,AFNE19.jpg,FN,3,num_2,16,num_2,2.05002253188,,,2017_Oct_24_1551,59.977204118,FEMA4ImagesEEG,001,102198,
AMSA21.JPG,AMNE22.JPG,AMNE21.JPG,AMSA23.JPG,AMSA22.JPG,AMNE23.JPG,,,,,,,,,0,8,8,1,,,,,,,,,,,,,,,AFNE18.jpg,AFSA19.jpg,AFSA15.jpg,AFNE04.jpg,AFNE04.jpg,FN,3,num_4,32,num_8,1.15008395363,,,2017_Oct_24_1551,59.977204118,FEMA4ImagesEEG,001,102198,
AFSA21.JPG,AFNE22.JPG,AFNE21.JPG,AFSA23.JPG,AFSA22.JPG,AFNE23.JPG,,,,,,,,,0,9,9,0,,,,,,,,,,,,,,,AFSA06.jpg,AFNE14.jpg,AFSA13.jpg,AFNE09.jpg,AFSA06.jpg,FS,4,num_8,32,num_2,1.41670058481,,,2017_Oct_24_1551,59.977204118,FEMA4ImagesEEG,001,102198,
AMSA21.JPG,AMNE23.JPG,AMNE21.JPG,AMSA25.JPG,AMNE25.JPG,AMSA23.JPG,,,,,,,,,,,,,0,0,0,5,,,,,,,,,,,AMSA10.jpg,AMSA04.jpg,AMNE16.jpg,AMNE11.jpg,AMNE16.jpg,MN,1,num_2,32,num_8,1.18335778965,,,2017_Oct_24_1551,59.977204118,FEMA4ImagesEEG,001,102198,
AMSA25.JPG,AMNE24.JPG,AMSA24.JPG,AMNE26.JPG,AMSA21.JPG,AMNE25.JPG,,,,,,,,,,,,,0,1,1,3,,,,,,,,,,,AMNE17.jpg,AMNE10.jpg,AMSA03.jpg,AMSA20.jpg,AMSA03.jpg,MS,2,num_2,16,num_2,0.866776038776,,,2017_Oct_24_1551,59.977204118,FEMA4ImagesEEG,001,102198,
AFNE23.JPG,AFNE24.JPG,AFNE22.JPG,AFSA24.JPG,AFSA22.JPG,AFSA23.JPG,,,,,,,,,,,,,0,2,2,8,,,,,,,,,,,AMSA07.jpg,AMNE15.jpg,AMSA05.jpg,AMNE08.jpg,AMSA07.jpg,MS,2,num_8,16,num_8,0.8001417669,,,2017_Oct_24_1551,59.977204118,FEMA4ImagesEEG,001,102198,
AMNE22.JPG,AMSA24.JPG,AMSA22.JPG,AMNE25.JPG,AMNE24.JPG,AMSA25.JPG,,,,,,,,,,,,,0,3,3,7,,,,,,,,,,,AMNE03.jpg,AMSA02.jpg,AMNE15.jpg,AMSA03.jpg,AMNE03.jpg,MN,1,num_8,32,num_4,1.13341929147,,,2017_Oct_24_1551,59.977204118,FEMA4ImagesEEG,001,102198,
AFSA25.JPG,AFNE24.JPG,AFSA24.JPG,AFNE21.JPG,AFSA21.JPG,AFNE25.JPG,,,,,,,,,,,,,0,4,4,2,,,,,,,,,,,AMSA03.jpg,AMSA14.jpg,AMNE19.jpg,AMNE08.jpg,AMSA03.jpg,MS,2,num_8,16,num_8,0.63343869627,,,2017_Oct_24_1551,59.977204118,FEMA4ImagesEEG,001,102198,
AFNE22.JPG,AFSA24.JPG,AFSA22.JPG,AFNE25.JPG,AFNE24.JPG,AFSA25.JPG,,,,,,,,,,,,,0,5,5,6,,,,,,,,,,,AMNE18.jpg,AMSA19.jpg,AMNE15.jpg,AMSA17.jpg,AMNE18.jpg,MN,1,num_8,32,num_2,3.11658078863,,,2017_Oct_24_1551,59.977204118,FEMA4ImagesEEG,001,102198,
AFSA21.JPG,AFNE22.JPG,AFNE21.JPG,AFSA23.JPG,AFSA22.JPG,AFNE23.JPG,,,,,,,,,,,,,0,6,6,0,,,,,,,,,,,AMSA18.jpg,AMNE12.jpg,AMNE17.jpg,AMSA08.jpg,AMSA08.jpg,MS,2,num_4,32,num_2,1.48345128528,,,2017_Oct_24_1551,59.977204118,FEMA4ImagesEEG,001,102198,
AFSA21.JPG,AFNE23.JPG,AFNE21.JPG,AFSA25.JPG,AFNE25.JPG,AFSA23.JPG,,,,,,,,,,,,,0,7,7,4,,,,,,,,,,,AMNE03.jpg,AMSA14.jpg,AMNE12.jpg,AMSA16.jpg,AMNE03.jpg,MN,1,num_8,32,num_4,2.36662128207,,,2017_Oct_24_1551,59.977204118,FEMA4ImagesEEG,001,102198,
AMSA21.JPG,AMNE22.JPG,AMNE21.JPG,AMSA23.JPG,AMSA22.JPG,AMNE23.JPG,,,,,,,,,,,,,0,8,8,1,,,,,,,,,,,AMSA18.jpg,AMNE09.jpg,AMNE08.jpg,AMSA13.jpg,AMSA13.jpg,MS,2,num_4,32,num_6,1.71656539314,,,2017_Oct_24_1551,59.977204118,FEMA4ImagesEEG,001,102198,
AMNE23.JPG,AMNE24.JPG,AMNE22.JPG,AMSA24.JPG,AMSA22.JPG,AMSA23.JPG,,,,,,,,,,,,,0,9,9,9,,,,,,,,,,,AMSA08.jpg,AMSA01.jpg,AMNE03.jpg,AMNE01.jpg,AMNE03.jpg,MN,1,num_2,32,num_8,1.3337143719,,,2017_Oct_24_1551,59.977204118,FEMA4ImagesEEG,001,102198,
AFNE22.JPG,AFSA24.JPG,AFSA22.JPG,AFNE25.JPG,AFNE24.JPG,AFSA25.JPG,,,,,,,,,,,,,,,,,0,0,0,6,,,,,,,AFNE19.jpg,AFSA20.jpg,AFSA10.jpg,AFNE05.jpg,AFNE19.jpg,FN,3,num_8,32,num_2,1.63322604599,,,2017_Oct_24_1551,59.977204118,FEMA4ImagesEEG,001,102198,
AMNE22.JPG,AMSA24.JPG,AMSA22.JPG,AMNE25.JPG,AMNE24.JPG,AMSA25.JPG,,,,,,,,,,,,,,,,,0,1,1,7,,,,,,,AFSA02.jpg,AFNE08.jpg,AFNE12.jpg,AFSA19.jpg,AFSA02.jpg,FS,4,num_8,32,num_4,1.55008619872,,,2017_Oct_24_1551,59.977204118,FEMA4ImagesEEG,001,102198,
AMSA25.JPG,AMNE24.JPG,AMSA24.JPG,AMNE26.JPG,AMSA21.JPG,AMNE25.JPG,,,,,,,,,,,,,,,,,0,2,2,3,,,,,,,AFNE04.jpg,AFSA18.jpg,AFNE01.jpg,AFSA07.jpg,AFSA18.jpg,FS,4,num_6,16,num_6,2.03335530392,,,2017_Oct_24_1551,59.977204118,FEMA4ImagesEEG,001,102198,
AFNE23.JPG,AFNE24.JPG,AFNE22.JPG,AFSA24.JPG,AFSA22.JPG,AFSA23.JPG,,,,,,,,,,,,,,,,,0,3,3,8,,,,,,,AFNE07.jpg,AFNE20.jpg,AFSA01.jpg,AFSA15.jpg,AFNE07.jpg,FN,3,num_8,16,num_8,1.05010464124,,,2017_Oct_24_1551,59.977204118,FEMA4ImagesEEG,001,102198,
AMSA21.JPG,AMNE22.JPG,AMNE21.JPG,AMSA23.JPG,AMSA22.JPG,AMNE23.JPG,,,,,,,,,,,,,,,,,0,4,4,1,,,,,,,AFSA08.jpg,AFSA02.jpg,AFNE20.jpg,AFNE16.jpg,AFNE20.jpg,FN,3,num_2,16,num_2,1.36670178757,,,2017_Oct_24_1551,59.977204118,FEMA4ImagesEEG,001,102198,
AFSA21.JPG,AFNE23.JPG,AFNE21.JPG,AFSA25.JPG,AFNE25.JPG,AFSA23.JPG,,,,,,,,,,,,,,,,,0,5,5,4,,,,,,,AFSA02.jpg,AFNE09.jpg,AFNE15.jpg,AFSA03.jpg,AFNE09.jpg,FN,3,num_6,32,num_4,0.916749497643,,,2017_Oct_24_1551,59.977204118,FEMA4ImagesEEG,001,102198,
AFSA21.JPG,AFNE22.JPG,AFNE21.JPG,AFSA23.JPG,AFSA22.JPG,AFNE23.JPG,,,,,,,,,,,,,,,,,0,6,6,0,,,,,,,AFSA20.jpg,AFSA19.jpg,AFNE02.jpg,AFNE15.jpg,AFNE02.jpg,FN,3,num_2,16,num_2,1.31657084578,,,2017_Oct_24_1551,59.977204118,FEMA4ImagesEEG,001,102198,
AFSA25.JPG,AFNE24.JPG,AFSA24.JPG,AFNE21.JPG,AFSA21.JPG,AFNE25.JPG,,,,,,,,,,,,,,,,,0,7,7,2,,,,,,,AFNE12.jpg,AFNE04.jpg,AFSA10.jpg,AFSA04.jpg,AFNE12.jpg,FN,3,num_8,32,num_6,1.9833773548,,,2017_Oct_24_1551,59.977204118,FEMA4ImagesEEG,001,102198,
AMSA21.JPG,AMNE23.JPG,AMNE21.JPG,AMSA25.JPG,AMNE25.JPG,AMSA23.JPG,,,,,,,,,,,,,,,,,0,8,8,5,,,,,,,AFSA09.jpg,AFSA06.jpg,AFNE20.jpg,AFNE15.jpg,AFSA09.jpg,FS,4,num_8,32,num_6,1.08343845571,,,2017_Oct_24_1551,59.977204118,FEMA4ImagesEEG,001,102198,
AMNE23.JPG,AMNE24.JPG,AMNE22.JPG,AMSA24.JPG,AMSA22.JPG,AMSA23.JPG,,,,,,,,,,,,,,,,,0,9,9,9,,,,,,,AFNE10.jpg,AFNE12.jpg,AFSA07.jpg,AFSA03.jpg,AFSA07.jpg,FS,4,num_2,16,num_2,1.13342506485,,,2017_Oct_24_1551,59.977204118,FEMA4ImagesEEG,001,102198,
AFNE22.JPG,AFSA24.JPG,AFSA22.JPG,AFNE25.JPG,AFNE24.JPG,AFSA25.JPG,,,,,,,,,,,,,,,,,,,,,0,0,0,6,,,AMNE20.jpg,AMSA04.jpg,AMSA06.jpg,AMNE04.jpg,AMSA04.jpg,MS,2,num_6,16,num_6,1.26697265217,,,2017_Oct_24_1551,59.977204118,FEMA4ImagesEEG,001,102198,
AFSA25.JPG,AFNE24.JPG,AFSA24.JPG,AFNE21.JPG,AFSA21.JPG,AFNE25.JPG,,,,,,,,,,,,,,,,,,,,,0,1,1,2,,,AMNE08.jpg,AMSA19.jpg,AMSA18.jpg,AMNE12.jpg,AMSA18.jpg,MS,2,num_2,32,num_8,0.933496269048,,,2017_Oct_24_1551,59.977204118,FEMA4ImagesEEG,001,102198,
AMSA25.JPG,AMNE24.JPG,AMSA24.JPG,AMNE26.JPG,AMSA21.JPG,AMNE25.JPG,,,,,,,,,,,,,,,,,,,,,0,2,2,3,,,AMSA03.jpg,AMNE14.jpg,AMNE06.jpg,AMSA10.jpg,AMNE14.jpg,MN,1,num_6,32,num_4,1.51672800817,,,2017_Oct_24_1551,59.977204118,FEMA4ImagesEEG,001,102198,
AMNE23.JPG,AMNE24.JPG,AMNE22.JPG,AMSA24.JPG,AMSA22.JPG,AMSA23.JPG,,,,,,,,,,,,,,,,,,,,,0,3,3,9,,,AMNE04.jpg,AMNE15.jpg,AMSA03.jpg,AMSA13.jpg,AMSA03.jpg,MS,2,num_2,16,num_2,0.966745408135,,,2017_Oct_24_1551,59.977204118,FEMA4ImagesEEG,001,102198,
AFSA21.JPG,AFNE22.JPG,AFNE21.JPG,AFSA23.JPG,AFSA22.JPG,AFNE23.JPG,,,,,,,,,,,,,,,,,,,,,0,4,4,0,,,AMNE09.jpg,AMSA09.jpg,AMNE17.jpg,AMSA14.jpg,AMNE09.jpg,MN,1,num_8,16,num_8,0.916615107795,,,2017_Oct_24_1551,59.977204118,FEMA4ImagesEEG,001,102198,
AFNE23.JPG,AFNE24.JPG,AFNE22.JPG,AFSA24.JPG,AFSA22.JPG,AFSA23.JPG,,,,,,,,,,,,,,,,,,,,,0,5,5,8,,,AMNE07.jpg,AMNE10.jpg,AMSA08.jpg,AMSA10.jpg,AMNE07.jpg,MN,1,num_8,32,num_6,1.93337759539,,,2017_Oct_24_1551,59.977204118,FEMA4ImagesEEG,001,102198,
AMNE22.JPG,AMSA24.JPG,AMSA22.JPG,AMNE25.JPG,AMNE24.JPG,AMSA25.JPG,,,,,,,,,,,,,,,,,,,,,0,6,6,7,,,AMNE15.jpg,AMSA08.jpg,AMNE02.jpg,AMSA02.jpg,AMSA02.jpg,MS,2,num_4,16,num_4,0.650136073702,,,2017_Oct_24_1551,59.977204118,FEMA4ImagesEEG,001,102198,
AMSA21.JPG,AMNE22.JPG,AMNE21.JPG,AMSA23.JPG,AMSA22.JPG,AMNE23.JPG,,,,,,,,,,,,,,,,,,,,,0,7,7,1,,,AMSA02.jpg,AMNE19.jpg,AMNE07.jpg,AMSA14.jpg,AMNE19.jpg,MN,1,num_6,16,num_6,0.7501035186,,,2017_Oct_24_1551,59.977204118,FEMA4ImagesEEG,001,102198,
AMSA21.JPG,AMNE23.JPG,AMNE21.JPG,AMSA25.JPG,AMNE25.JPG,AMSA23.JPG,,,,,,,,,,,,,,,,,,,,,0,8,8,5,,,AMSA07.jpg,AMSA11.jpg,AMNE17.jpg,AMNE11.jpg,AMNE11.jpg,MN,1,num_4,32,num_8,1.36667099665,,,2017_Oct_24_1551,59.977204118,FEMA4ImagesEEG,001,102198,
AFSA21.JPG,AFNE23.JPG,AFNE21.JPG,AFSA25.JPG,AFNE25.JPG,AFSA23.JPG,,,,,,,,,,,,,,,,,,,,,0,9,9,4,,,AMNE18.jpg,AMSA10.jpg,AMNE06.jpg,AMSA13.jpg,AMNE18.jpg,MN,1,num_8,32,num_4,0.833427470294,,,2017_Oct_24_1551,59.977204118,FEMA4ImagesEEG,001,102198,
,,,,,,,,,,,,,,,,,,,,,,,,,,,,,,,,,,,,,,,,,,,space,1.93308059056,2017_Oct_24_1551,59.977204118,FEMA4ImagesEEG,001,102198,
AFNE01.JPG,AFNE01.JPG,AFNE01.JPG,AFNE01.JPG,AFNE01.JPG,AFNE01.JPG,0,0,0,5,,,,,,,,,,,,,,,,,,,,,,,AFNE15.jpg,AFSA11.jpg,AFNE17.jpg,AFSA20.jpg,AFNE15.jpg,FN,3,num_8,16,num_8,2.21686769021,,,2017_Oct_24_1551,59.977204118,FEMA4ImagesEEG,001,102198,
AFNE01.JPG,AFNE01.JPG,AFNE01.JPG,AFNE01.JPG,AFNE01.JPG,AFNE01.JPG,0,1,1,8,,,,,,,,,,,,,,,,,,,,,,,AFSA12.jpg,AFNE12.jpg,AFNE09.jpg,AFSA14.jpg,AFSA12.jpg,FS,4,num_8,32,num_6,0.816788467462,,,2017_Oct_24_1551,59.977204118,FEMA4ImagesEEG,001,102198,
AFNE01.JPG,AFNE01.JPG,AFNE01.JPG,AFNE01.JPG,AFNE01.JPG,AFNE01.JPG,0,2,2,7,,,,,,,,,,,,,,,,,,,,,,,AFNE07.jpg,AFSA18.jpg,AFSA05.jpg,AFNE09.jpg,AFNE07.jpg,FN,3,num_8,32,num_6,1.45039170317,,,2017_Oct_24_1551,59.977204118,FEMA4ImagesEEG,001,102198,
AFNE01.JPG,AFNE01.JPG,AFNE01.JPG,AFNE01.JPG,AFNE01.JPG,AFNE01.JPG,0,3,3,9,,,,,,,,,,,,,,,,,,,,,,,AFSA03.jpg,AFNE19.jpg,AFNE15.jpg,AFSA16.jpg,AFSA16.jpg,FS,4,num_4,16,num_4,0.716739554657,,,2017_Oct_24_1551,59.977204118,FEMA4ImagesEEG,001,102198,
AFNE01.JPG,AFNE01.JPG,AFNE01.JPG,AFNE01.JPG,AFNE01.JPG,AFNE01.JPG,0,4,4,6,,,,,,,,,,,,,,,,,,,,,,,AFSA01.jpg,AFSA19.jpg,AFNE17.jpg,AFNE11.jpg,AFSA19.jpg,FS,4,num_6,32,num_2,0.983476463356,,,2017_Oct_24_1551,59.977204118,FEMA4ImagesEEG,001,102198,
AFNE01.JPG,AFNE01.JPG,AFNE01.JPG,AFNE01.JPG,AFNE01.JPG,AFNE01.JPG,0,5,5,2,,,,,,,,,,,,,,,,,,,,,,,AFSA10.jpg,AFSA17.jpg,AFNE13.jpg,AFNE04.jpg,AFNE13.jpg,FN,3,num_2,32,num_8,0.96678133111,,,2017_Oct_24_1551,59.977204118,FEMA4ImagesEEG,001,102198,
AFNE01.JPG,AFNE01.JPG,AFNE01.JPG,AFNE01.JPG,AFNE01.JPG,AFNE01.JPG,0,6,6,1,,,,,,,,,,,,,,,,,,,,,,,AFNE20.jpg,AFNE19.jpg,AFSA10.jpg,AFSA16.jpg,AFNE20.jpg,FN,3,num_8,32,num_4,1.88320271217,,,2017_Oct_24_1551,59.977204118,FEMA4ImagesEEG,001,102198,
AFNE01.JPG,AFNE01.JPG,AFNE01.JPG,AFNE01.JPG,AFNE01.JPG,AFNE01.JPG,0,7,7,3,,,,,,,,,,,,,,,,,,,,,,,AFNE17.jpg,AFNE11.jpg,AFSA13.jpg,AFSA07.jpg,AFNE17.jpg,FN,3,num_8,32,num_6,0.616791354143,,,2017_Oct_24_1551,59.977204118,FEMA4ImagesEEG,001,102198,
AFNE01.JPG,AFNE01.JPG,AFNE01.JPG,AFNE01.JPG,AFNE01.JPG,AFNE01.JPG,0,8,8,4,,,,,,,,,,,,,,,,,,,,,,,AFNE07.jpg,AFNE18.jpg,AFSA07.jpg,AFSA16.jpg,AFSA07.jpg,FS,4,num_2,16,num_2,0.7667710674,,,2017_Oct_24_1551,59.977204118,FEMA4ImagesEEG,001,102198,
AFNE01.JPG,AFNE01.JPG,AFNE01.JPG,AFNE01.JPG,AFNE01.JPG,AFNE01.JPG,0,9,9,0,,,,,,,,,,,,,,,,,,,,,,,AFSA03.jpg,AFNE17.jpg,AFNE15.jpg,AFSA04.jpg,AFNE17.jpg,FN,3,num_6,32,num_8,0.683396759559,,,2017_Oct_24_1551,59.977204118,FEMA4ImagesEEG,001,102198,
AFNE01.JPG,AFNE01.JPG,AFNE01.JPG,AFNE01.JPG,AFNE01.JPG,AFNE01.JPG,1,0,10,7,,,,,,,,,,,,,,,,,,,,,,,AFNE14.jpg,AFNE20.jpg,AFSA02.jpg,AFSA16.jpg,AFNE14.jpg,FN,3,num_8,32,num_4,0.533463232918,,,2017_Oct_24_1551,59.977204118,FEMA4ImagesEEG,001,102198,
AFNE01.JPG,AFNE01.JPG,AFNE01.JPG,AFNE01.JPG,AFNE01.JPG,AFNE01.JPG,1,1,11,2,,,,,,,,,,,,,,,,,,,,,,,AFSA19.jpg,AFNE08.jpg,AFNE11.jpg,AFSA10.jpg,AFNE11.jpg,FN,3,num_2,32,num_6,0.733471251326,,,2017_Oct_24_1551,59.977204118,FEMA4ImagesEEG,001,102198,
AFNE01.JPG,AFNE01.JPG,AFNE01.JPG,AFNE01.JPG,AFNE01.JPG,AFNE01.JPG,1,2,12,4,,,,,,,,,,,,,,,,,,,,,,,AFNE14.jpg,AFNE17.jpg,AFSA18.jpg,AFSA02.jpg,AFSA18.jpg,FS,4,num_2,16,num_2,1.18337863777,,,2017_Oct_24_1551,59.977204118,FEMA4ImagesEEG,001,102198,
AFNE01.JPG,AFNE01.JPG,AFNE01.JPG,AFNE01.JPG,AFNE01.JPG,AFNE01.JPG,1,3,13,9,,,,,,,,,,,,,,,,,,,,,,,AFNE07.jpg,AFNE11.jpg,AFSA18.jpg,AFSA09.jpg,AFSA09.jpg,FS,4,num_4,32,num_6,1.26698836836,,,2017_Oct_24_1551,59.977204118,FEMA4ImagesEEG,001,102198,
AFNE01.JPG,AFNE01.JPG,AFNE01.JPG,AFNE01.JPG,AFNE01.JPG,AFNE01.JPG,1,4,14,1,,,,,,,,,,,,,,,,,,,,,,,AFSA06.jpg,AFNE03.jpg,AFNE04.jpg,AFSA13.jpg,AFNE04.jpg,FN,3,num_2,32,num_8,0.766777482117,,,2017_Oct_24_1551,59.977204118,FEMA4ImagesEEG,001,102198,
AFNE01.JPG,AFNE01.JPG,AFNE01.JPG,AFNE01.JPG,AFNE01.JPG,AFNE01.JPG,1,5,15,0,,,,,,,,,,,,,,,,,,,,,,,AFSA15.jpg,AFNE18.jpg,AFNE11.jpg,AFSA02.jpg,AFNE11.jpg,FN,3,num_2,16,num_2,1.23347975092,,,2017_Oct_24_1551,59.977204118,FEMA4ImagesEEG,001,102198,
AFNE01.JPG,AFNE01.JPG,AFNE01.JPG,AFNE01.JPG,AFNE01.JPG,AFNE01.JPG,1,6,16,8,,,,,,,,,,,,,,,,,,,,,,,AFSA17.jpg,AFSA04.jpg,AFNE05.jpg,AFNE11.jpg,AFSA17.jpg,FS,4,num_8,32,num_4,0.816764091258,,,2017_Oct_24_1551,59.977204118,FEMA4ImagesEEG,001,102198,
AFNE01.JPG,AFNE01.JPG,AFNE01.JPG,AFNE01.JPG,AFNE01.JPG,AFNE01.JPG,1,7,17,3,,,,,,,,,,,,,,,,,,,,,,,AFSA11.jpg,AFSA14.jpg,AFNE13.jpg,AFNE07.jpg,AFNE13.jpg,FN,3,num_2,32,num_6,1.05013126263,,,2017_Oct_24_1551,59.977204118,FEMA4ImagesEEG,001,102198,
AFNE01.JPG,AFNE01.JPG,AFNE01.JPG,AFNE01.JPG,AFNE01.JPG,AFNE01.JPG,1,8,18,6,,,,,,,,,,,,,,,,,,,,,,,AFSA17.jpg,AFNE18.jpg,AFNE04.jpg,AFSA03.jpg,AFSA17.jpg,FS,4,num_8,32,num_6,1.45008828363,,,2017_Oct_24_1551,59.977204118,FEMA4ImagesEEG,001,102198,
AFNE01.JPG,AFNE01.JPG,AFNE01.JPG,AFNE01.JPG,AFNE01.JPG,AFNE01.JPG,1,9,19,5,,,,,,,,,,,,,,,,,,,,,,,AFNE12.jpg,AFSA05.jpg,AFNE01.jpg,AFSA11.jpg,AFSA05.jpg,FS,4,num_6,32,num_8,1.85003953113,,,2017_Oct_24_1551,59.977204118,FEMA4ImagesEEG,001,102198,
AFNE01.JPG,AFNE01.JPG,AFNE01.JPG,AFNE01.JPG,AFNE01.JPG,AFNE01.JPG,2,0,20,0,,,,,,,,,,,,,,,,,,,,,,,AFSA05.jpg,AFNE01.jpg,AFNE05.jpg,AFSA17.jpg,AFSA17.jpg,FS,4,num_4,16,num_4,1.13343693211,,,2017_Oct_24_1551,59.977204118,FEMA4ImagesEEG,001,102198,
AFNE01.JPG,AFNE01.JPG,AFNE01.JPG,AFNE01.JPG,AFNE01.JPG,AFNE01.JPG,2,1,21,2,,,,,,,,,,,,,,,,,,,,,,,AFSA05.jpg,AFNE12.jpg,AFNE03.jpg,AFSA01.jpg,AFSA05.jpg,FS,4,num_8,32,num_4,1.38338633557,,,2017_Oct_24_1551,59.977204118,FEMA4ImagesEEG,001,102198,
AFNE01.JPG,AFNE01.JPG,AFNE01.JPG,AFNE01.JPG,AFNE01.JPG,AFNE01.JPG,2,2,22,8,,,,,,,,,,,,,,,,,,,,,,,AFNE11.jpg,AFSA09.jpg,AFNE17.jpg,AFSA12.jpg,AFSA09.jpg,FS,4,num_6,32,num_8,0.766790311667,,,2017_Oct_24_1551,59.977204118,FEMA4ImagesEEG,001,102198,
AFNE01.JPG,AFNE01.JPG,AFNE01.JPG,AFNE01.JPG,AFNE01.JPG,AFNE01.JPG,2,3,23,3,,,,,,,,,,,,,,,,,,,,,,,AFNE05.jpg,AFSA17.jpg,AFSA18.jpg,AFNE18.jpg,AFNE05.jpg,FN,3,num_8,16,num_8,1.23352722032,,,2017_Oct_24_1551,59.977204118,FEMA4ImagesEEG,001,102198,
AFNE01.JPG,AFNE01.JPG,AFNE01.JPG,AFNE01.JPG,AFNE01.JPG,AFNE01.JPG,2,4,24,9,,,,,,,,,,,,,,,,,,,,,,,AFNE02.jpg,AFSA07.jpg,AFSA17.jpg,AFNE13.jpg,AFSA17.jpg,FS,4,num_2,32,num_8,1.09999246267,,,2017_Oct_24_1551,59.977204118,FEMA4ImagesEEG,001,102198,
AFNE01.JPG,AFNE01.JPG,AFNE01.JPG,AFNE01.JPG,AFNE01.JPG,AFNE01.JPG,2,5,25,1,,,,,,,,,,,,,,,,,,,,,,,AFSA02.jpg,AFNE15.jpg,AFSA07.jpg,AFNE20.jpg,AFNE15.jpg,FN,3,num_6,16,num_6,1.20008627896,,,2017_Oct_24_1551,59.977204118,FEMA4ImagesEEG,001,102198,
AFNE01.JPG,AFNE01.JPG,AFNE01.JPG,AFNE01.JPG,AFNE01.JPG,AFNE01.JPG,2,6,26,7,,,,,,,,,,,,,,,,,,,,,,,AFSA05.jpg,AFSA10.jpg,AFNE16.jpg,AFNE05.jpg,AFSA05.jpg,FS,4,num_8,32,num_6,0.683440059307,,,2017_Oct_24_1551,59.977204118,FEMA4ImagesEEG,001,102198,
AFNE01.JPG,AFNE01.JPG,AFNE01.JPG,AFNE01.JPG,AFNE01.JPG,AFNE01.JPG,2,7,27,6,,,,,,,,,,,,,,,,,,,,,,,AFSA15.jpg,AFNE05.jpg,AFSA19.jpg,AFNE16.jpg,AFNE05.jpg,FN,3,num_6,32,num_2,1.35005893593,,,2017_Oct_24_1551,59.977204118,FEMA4ImagesEEG,001,102198,
AFNE01.JPG,AFNE01.JPG,AFNE01.JPG,AFNE01.JPG,AFNE01.JPG,AFNE01.JPG,2,8,28,5,,,,,,,,,,,,,,,,,,,,,,,AFSA15.jpg,AFNE04.jpg,AFNE05.jpg,AFSA12.jpg,AFNE04.jpg,FN,3,num_6,32,num_4,1.80006478936,,,2017_Oct_24_1551,59.977204118,FEMA4ImagesEEG,001,102198,
AFNE01.JPG,AFNE01.JPG,AFNE01.JPG,AFNE01.JPG,AFNE01.JPG,AFNE01.JPG,2,9,29,4,,,,,,,,,,,,,,,,,,,,,,,AFNE14.jpg,AFSA11.jpg,AFNE05.jpg,AFSA04.jpg,AFNE05.jpg,FN,3,num_2,32,num_8,1.05007577466,,,2017_Oct_24_1551,59.977204118,FEMA4ImagesEEG,001,102198,
AFNE01.JPG,AFNE01.JPG,AFNE01.JPG,AFNE01.JPG,AFNE01.JPG,AFNE01.JPG,3,0,30,8,,,,,,,,,,,,,,,,,,,,,,,AFSA20.jpg,AFNE17.jpg,AFNE07.jpg,AFSA02.jpg,AFNE17.jpg,FN,3,num_6,16,num_6,0.883450643742,,,2017_Oct_24_1551,59.977204118,FEMA4ImagesEEG,001,102198,
AFNE01.JPG,AFNE01.JPG,AFNE01.JPG,AFNE01.JPG,AFNE01.JPG,AFNE01.JPG,3,1,31,6,,,,,,,,,,,,,,,,,,,,,,,AFSA02.jpg,AFNE18.jpg,AFNE17.jpg,AFSA15.jpg,AFSA02.jpg,FS,4,num_8,16,num_8,0.650126130786,,,2017_Oct_24_1551,59.977204118,FEMA4ImagesEEG,001,102198,
AFNE01.JPG,AFNE01.JPG,AFNE01.JPG,AFNE01.JPG,AFNE01.JPG,AFNE01.JPG,3,2,32,0,,,,,,,,,,,,,,,,,,,,,,,AFSA03.jpg,AFNE18.jpg,AFNE03.jpg,AFSA08.jpg,AFSA08.jpg,FS,4,num_4,16,num_4,1.60011161736,,,2017_Oct_24_1551,59.977204118,FEMA4ImagesEEG,001,102198,
AFNE01.JPG,AFNE01.JPG,AFNE01.JPG,AFNE01.JPG,AFNE01.JPG,AFNE01.JPG,3,3,33,2,,,,,,,,,,,,,,,,,,,,,,,AFNE09.jpg,AFSA06.jpg,AFSA16.jpg,AFNE07.jpg,AFNE07.jpg,FN,3,num_4,32,num_6,0.566818857566,,,2017_Oct_24_1551,59.977204118,FEMA4ImagesEEG,001,102198,
AFNE01.JPG,AFNE01.JPG,AFNE01.JPG,AFNE01.JPG,AFNE01.JPG,AFNE01.JPG,3,4,34,9,,,,,,,,,,,,,,,,,,,,,,,AFNE04.jpg,AFSA13.jpg,AFSA14.jpg,AFNE11.jpg,AFNE11.jpg,FN,3,num_4,32,num_2,0.933757671737,,,2017_Oct_24_1551,59.977204118,FEMA4ImagesEEG,001,102198,
AFNE01.JPG,AFNE01.JPG,AFNE01.JPG,AFNE01.JPG,AFNE01.JPG,AFNE01.JPG,3,5,35,5,,,,,,,,,,,,,,,,,,,,,,,AFNE19.jpg,AFSA01.jpg,AFNE16.jpg,AFSA08.jpg,AFNE16.jpg,FN,3,num_2,32,num_8,0.800073449267,,,2017_Oct_24_1551,59.977204118,FEMA4ImagesEEG,001,102198,
AFNE01.JPG,AFNE01.JPG,AFNE01.JPG,AFNE01.JPG,AFNE01.JPG,AFNE01.JPG,3,6,36,1,,,,,,,,,,,,,,,,,,,,,,,AFSA10.jpg,AFSA11.jpg,AFNE12.jpg,AFNE13.jpg,AFNE12.jpg,FN,3,num_2,32,num_8,1.98338922218,,,2017_Oct_24_1551,59.977204118,FEMA4ImagesEEG,001,102198,
AFNE01.JPG,AFNE01.JPG,AFNE01.JPG,AFNE01.JPG,AFNE01.JPG,AFNE01.JPG,3,7,37,4,,,,,,,,,,,,,,,,,,,,,,,AFNE05.jpg,AFSA15.jpg,AFSA16.jpg,AFNE07.jpg,AFNE05.jpg,FN,3,num_8,32,num_4,0.666787906201,,,2017_Oct_24_1551,59.977204118,FEMA4ImagesEEG,001,102198,
AFNE01.JPG,AFNE01.JPG,AFNE01.JPG,AFNE01.JPG,AFNE01.JPG,AFNE01.JPG,3,8,38,7,,,,,,,,,,,,,,,,,,,,,,,AFNE05.jpg,AFSA08.jpg,AFNE04.jpg,AFSA12.jpg,AFSA08.jpg,FS,4,num_6,16,num_6,0.266873223009,,,2017_Oct_24_1551,59.977204118,FEMA4ImagesEEG,001,102198,
AFNE01.JPG,AFNE01.JPG,AFNE01.JPG,AFNE01.JPG,AFNE01.JPG,AFNE01.JPG,3,9,39,3,,,,,,,,,,,,,,,,,,,,,,,AFSA05.jpg,AFSA01.jpg,AFNE16.jpg,AFNE04.jpg,AFNE16.jpg,FN,3,num_2,32,num_8,1.40004233771,,,2017_Oct_24_1551,59.977204118,FEMA4ImagesEEG,001,102198,
AFNE01.JPG,AFNE01.JPG,AFNE01.JPG,AFNE01.JPG,AFNE01.JPG,AFNE01.JPG,4,0,40,2,,,,,,,,,,,,,,,,,,,,,,,AFNE01.jpg,AFSA14.jpg,AFNE10.jpg,AFSA04.jpg,AFNE01.jpg,FN,3,num_8,32,num_2,0.883421135717,,,2017_Oct_24_1551,59.977204118,FEMA4ImagesEEG,001,102198,
AFNE01.JPG,AFNE01.JPG,AFNE01.JPG,AFNE01.JPG,AFNE01.JPG,AFNE01.JPG,4,1,41,0,,,,,,,,,,,,,,,,,,,,,,,AFSA01.jpg,AFSA05.jpg,AFNE07.jpg,AFNE20.jpg,AFNE07.jpg,FN,3,num_2,32,num_4,0.933475741651,,,2017_Oct_24_1551,59.977204118,FEMA4ImagesEEG,001,102198,
AFNE01.JPG,AFNE01.JPG,AFNE01.JPG,AFNE01.JPG,AFNE01.JPG,AFNE01.JPG,4,2,42,7,,,,,,,,,,,,,,,,,,,,,,,AFSA07.jpg,AFSA01.jpg,AFNE15.jpg,AFNE08.jpg,AFSA01.jpg,FS,4,num_6,16,num_6,0.650199259399,,,2017_Oct_24_1551,59.977204118,FEMA4ImagesEEG,001,102198,
AFNE01.JPG,AFNE01.JPG,AFNE01.JPG,AFNE01.JPG,AFNE01.JPG,AFNE01.JPG,4,3,43,3,,,,,,,,,,,,,,,,,,,,,,,AFSA04.jpg,AFNE19.jpg,AFSA13.jpg,AFNE01.jpg,AFNE19.jpg,FN,3,num_6,16,num_6,0.883492660709,,,2017_Oct_24_1551,59.977204118,FEMA4ImagesEEG,001,102198,
AFNE01.JPG,AFNE01.JPG,AFNE01.JPG,AFNE01.JPG,AFNE01.JPG,AFNE01.JPG,4,4,44,6,,,,,,,,,,,,,,,,,,,,,,,AFSA09.jpg,AFSA06.jpg,AFNE04.jpg,AFNE16.jpg,AFSA06.jpg,FS,4,num_6,16,num_6,1.333415122,,,2017_Oct_24_1551,59.977204118,FEMA4ImagesEEG,001,102198,
AFNE01.JPG,AFNE01.JPG,AFNE01.JPG,AFNE01.JPG,AFNE01.JPG,AFNE01.JPG,4,5,45,9,,,,,,,,,,,,,,,,,,,,,,,AFSA17.jpg,AFSA04.jpg,AFNE06.jpg,AFNE07.jpg,AFNE06.jpg,FN,3,num_2,32,num_8,1.25013382849,,,2017_Oct_24_1551,59.977204118,FEMA4ImagesEEG,001,102198,
AFNE01.JPG,AFNE01.JPG,AFNE01.JPG,AFNE01.JPG,AFNE01.JPG,AFNE01.JPG,4,6,46,1,,,,,,,,,,,,,,,,,,,,,,,AFNE14.jpg,AFSA18.jpg,AFSA17.jpg,AFNE15.jpg,AFSA18.jpg,FS,4,num_6,32,num_2,0.866777321789,,,2017_Oct_24_1551,59.977204118,FEMA4ImagesEEG,001,102198,
AFNE01.JPG,AFNE01.JPG,AFNE01.JPG,AFNE01.JPG,AFNE01.JPG,AFNE01.JPG,4,7,47,5,,,,,,,,,,,,,,,,,,,,,,,AFNE13.jpg,AFSA10.jpg,AFNE15.jpg,AFSA04.jpg,AFNE15.jpg,FN,3,num_2,32,num_8,2.10001395212,,,2017_Oct_24_1551,59.977204118,FEMA4ImagesEEG,001,102198,
AFNE01.JPG,AFNE01.JPG,AFNE01.JPG,AFNE01.JPG,AFNE01.JPG,AFNE01.JPG,4,8,48,8,,,,,,,,,,,,,,,,,,,,,,,AFSA04.jpg,AFSA13.jpg,AFNE09.jpg,AFNE16.jpg,AFNE16.jpg,FN,3,num_4,16,num_4,3.38322339987,,,2017_Oct_24_1551,59.977204118,FEMA4ImagesEEG,001,102198,
AFNE01.JPG,AFNE01.JPG,AFNE01.JPG,AFNE01.JPG,AFNE01.JPG,AFNE01.JPG,4,9,49,4,,,,,,,,,,,,,,,,,,,,,,,AFSA07.jpg,AFNE01.jpg,AFNE14.jpg,AFSA03.jpg,AFNE01.jpg,FN,3,num_6,16,num_6,1.25007352955,,,2017_Oct_24_1551,59.977204118,FEMA4ImagesEEG,001,102198,
AFNE01.JPG,AFNE01.JPG,AFNE01.JPG,AFNE01.JPG,AFNE01.JPG,AFNE01.JPG,5,0,50,3,,,,,,,,,,,,,,,,,,,,,,,AFSA01.jpg,AFSA07.jpg,AFNE12.jpg,AFNE16.jpg,AFSA07.jpg,FS,4,num_6,32,num_2,0.683517036843,,,2017_Oct_24_1551,59.977204118,FEMA4ImagesEEG,001,102198,
AFNE01.JPG,AFNE01.JPG,AFNE01.JPG,AFNE01.JPG,AFNE01.JPG,AFNE01.JPG,5,1,51,6,,,,,,,,,,,,,,,,,,,,,,,AFSA04.jpg,AFNE14.jpg,AFSA07.jpg,AFNE15.jpg,AFNE14.jpg,FN,3,num_6,16,num_6,1.16679031181,,,2017_Oct_24_1551,59.977204118,FEMA4ImagesEEG,001,102198,
AFNE01.JPG,AFNE01.JPG,AFNE01.JPG,AFNE01.JPG,AFNE01.JPG,AFNE01.JPG,5,2,52,2,,,,,,,,,,,,,,,,,,,,,,,AFNE06.jpg,AFSA08.jpg,AFSA03.jpg,AFNE05.jpg,AFSA08.jpg,FS,4,num_6,16,num_6,1.65005364374,,,2017_Oct_24_1551,59.977204118,FEMA4ImagesEEG,001,102198,
AFNE01.JPG,AFNE01.JPG,AFNE01.JPG,AFNE01.JPG,AFNE01.JPG,AFNE01.JPG,5,3,53,1,,,,,,,,,,,,,,,,,,,,,,,AFSA05.jpg,AFNE17.jpg,AFSA14.jpg,AFNE06.jpg,AFNE06.jpg,FN,3,num_4,32,num_2,3.5498985661,,,2017_Oct_24_1551,59.977204118,FEMA4ImagesEEG,001,102198,
AFNE01.JPG,AFNE01.JPG,AFNE01.JPG,AFNE01.JPG,AFNE01.JPG,AFNE01.JPG,5,4,54,8,,,,,,,,,,,,,,,,,,,,,,,AFSA19.jpg,AFNE13.jpg,AFSA12.jpg,AFNE01.jpg,AFNE13.jpg,FN,3,num_6,32,num_8,0.800243761973,,,2017_Oct_24_1551,59.977204118,FEMA4ImagesEEG,001,102198,
AFNE01.JPG,AFNE01.JPG,AFNE01.JPG,AFNE01.JPG,AFNE01.JPG,AFNE01.JPG,5,5,55,9,,,,,,,,,,,,,,,,,,,,,,,AFSA16.jpg,AFNE12.jpg,AFSA02.jpg,AFNE02.jpg,AFNE12.jpg,FN,3,num_6,32,num_2,1.13343404559,,,2017_Oct_24_1551,59.977204118,FEMA4ImagesEEG,001,102198,
AFNE01.JPG,AFNE01.JPG,AFNE01.JPG,AFNE01.JPG,AFNE01.JPG,AFNE01.JPG,5,6,56,4,,,,,,,,,,,,,,,,,,,,,,,AFSA20.jpg,AFSA16.jpg,AFNE18.jpg,AFNE11.jpg,AFSA20.jpg,FS,4,num_8,32,num_4,0.800186349661,,,2017_Oct_24_1551,59.977204118,FEMA4ImagesEEG,001,102198,
AFNE01.JPG,AFNE01.JPG,AFNE01.JPG,AFNE01.JPG,AFNE01.JPG,AFNE01.JPG,5,7,57,0,,,,,,,,,,,,,,,,,,,,,,,AFNE13.jpg,AFSA20.jpg,AFNE11.jpg,AFSA07.jpg,AFNE11.jpg,FN,3,num_2,32,num_4,0.350183062023,,,2017_Oct_24_1551,59.977204118,FEMA4ImagesEEG,001,102198,
AFNE01.JPG,AFNE01.JPG,AFNE01.JPG,AFNE01.JPG,AFNE01.JPG,AFNE01.JPG,5,8,58,7,,,,,,,,,,,,,,,,,,,,,,,AFSA10.jpg,AFNE17.jpg,AFNE02.jpg,AFSA06.jpg,AFSA06.jpg,FS,4,num_4,16,num_4,2.31668150087,,,2017_Oct_24_1551,59.977204118,FEMA4ImagesEEG,001,102198,
AFNE01.JPG,AFNE01.JPG,AFNE01.JPG,AFNE01.JPG,AFNE01.JPG,AFNE01.JPG,5,9,59,5,,,,,,,,,,,,,,,,,,,,,,,AFSA17.jpg,AFSA02.jpg,AFNE11.jpg,AFNE02.jpg,AFNE02.jpg,FN,3,num_4,32,num_6,2.53332050378,,,2017_Oct_24_1551,59.977204118,FEMA4ImagesEEG,001,102198,
,,,,,,,,,,,,,,,,,,,,,,,,,,,,,,,,,,,,,,,,,,,space,5.6831087356,2017_Oct_24_1551,59.977204118,FEMA4ImagesEEG,001,102198,
AFNE01.JPG,AFNE01.JPG,AFNE01.JPG,AFNE01.JPG,AFNE01.JPG,AFNE01.JPG,,,,,0,0,0,6,,,,,,,,,,,,,,,,,,,AMNE08.jpg,AMSA13.jpg,AMNE19.jpg,AMSA04.jpg,AMSA13.jpg,MS,2,num_6,16,num_6,1.33340453752,,,2017_Oct_24_1551,59.977204118,FEMA4ImagesEEG,001,102198,
AFNE01.JPG,AFNE01.JPG,AFNE01.JPG,AFNE01.JPG,AFNE01.JPG,AFNE01.JPG,,,,,0,1,1,4,,,,,,,,,,,,,,,,,,,AMNE16.jpg,AMNE17.jpg,AMSA03.jpg,AMSA10.jpg,AMSA10.jpg,MS,2,num_4,32,num_8,0.583432842745,,,2017_Oct_24_1551,59.977204118,FEMA4ImagesEEG,001,102198,
AFNE01.JPG,AFNE01.JPG,AFNE01.JPG,AFNE01.JPG,AFNE01.JPG,AFNE01.JPG,,,,,0,2,2,5,,,,,,,,,,,,,,,,,,,AMNE14.jpg,AMSA03.jpg,AMSA13.jpg,AMNE07.jpg,AMSA03.jpg,MS,2,num_6,32,num_4,0.833488090197,,,2017_Oct_24_1551,59.977204118,FEMA4ImagesEEG,001,102198,
AFNE01.JPG,AFNE01.JPG,AFNE01.JPG,AFNE01.JPG,AFNE01.JPG,AFNE01.JPG,,,,,0,3,3,3,,,,,,,,,,,,,,,,,,,AMNE13.jpg,AMSA02.jpg,AMNE04.jpg,AMSA20.jpg,AMSA20.jpg,MS,2,num_4,32,num_2,1.30007264751,,,2017_Oct_24_1551,59.977204118,FEMA4ImagesEEG,001,102198,
AFNE01.JPG,AFNE01.JPG,AFNE01.JPG,AFNE01.JPG,AFNE01.JPG,AFNE01.JPG,,,,,0,4,4,1,,,,,,,,,,,,,,,,,,,AMSA05.jpg,AMSA06.jpg,AMNE01.jpg,AMNE07.jpg,AMSA06.jpg,MS,2,num_6,16,num_6,0.70015058713,,,2017_Oct_24_1551,59.977204118,FEMA4ImagesEEG,001,102198,
AFNE01.JPG,AFNE01.JPG,AFNE01.JPG,AFNE01.JPG,AFNE01.JPG,AFNE01.JPG,,,,,0,5,5,7,,,,,,,,,,,,,,,,,,,AMNE12.jpg,AMSA12.jpg,AMNE03.jpg,AMSA17.jpg,AMSA12.jpg,MS,2,num_6,16,num_6,3.88318218477,,,2017_Oct_24_1551,59.977204118,FEMA4ImagesEEG,001,102198,
AFNE01.JPG,AFNE01.JPG,AFNE01.JPG,AFNE01.JPG,AFNE01.JPG,AFNE01.JPG,,,,,0,6,6,2,,,,,,,,,,,,,,,,,,,AMSA02.jpg,AMNE09.jpg,AMNE05.jpg,AMSA04.jpg,AMSA04.jpg,MS,2,num_4,16,num_4,1.48341311736,,,2017_Oct_24_1551,59.977204118,FEMA4ImagesEEG,001,102198,
AFNE01.JPG,AFNE01.JPG,AFNE01.JPG,AFNE01.JPG,AFNE01.JPG,AFNE01.JPG,,,,,0,7,7,8,,,,,,,,,,,,,,,,,,,AMNE12.jpg,AMSA07.jpg,AMSA09.jpg,AMNE09.jpg,AMSA09.jpg,MS,2,num_2,16,num_2,0.816760883899,,,2017_Oct_24_1551,59.977204118,FEMA4ImagesEEG,001,102198,
AFNE01.JPG,AFNE01.JPG,AFNE01.JPG,AFNE01.JPG,AFNE01.JPG,AFNE01.JPG,,,,,0,8,8,0,,,,,,,,,,,,,,,,,,,AMNE20.jpg,AMSA15.jpg,AMSA18.jpg,AMNE18.jpg,AMSA15.jpg,MS,2,num_6,16,num_6,0.750123404549,,,2017_Oct_24_1551,59.977204118,FEMA4ImagesEEG,001,102198,
AFNE01.JPG,AFNE01.JPG,AFNE01.JPG,AFNE01.JPG,AFNE01.JPG,AFNE01.JPG,,,,,0,9,9,9,,,,,,,,,,,,,,,,,,,AMNE02.jpg,AMNE14.jpg,AMSA14.jpg,AMSA09.jpg,AMNE14.jpg,MN,1,num_6,32,num_8,1.46657076559,,,2017_Oct_24_1551,59.977204118,FEMA4ImagesEEG,001,102198,
AFNE01.JPG,AFNE01.JPG,AFNE01.JPG,AFNE01.JPG,AFNE01.JPG,AFNE01.JPG,,,,,1,0,10,8,,,,,,,,,,,,,,,,,,,AMSA16.jpg,AMSA19.jpg,AMNE04.jpg,AMNE07.jpg,AMNE07.jpg,MN,1,num_4,16,num_4,0.700122041395,,,2017_Oct_24_1551,59.977204118,FEMA4ImagesEEG,001,102198,
AFNE01.JPG,AFNE01.JPG,AFNE01.JPG,AFNE01.JPG,AFNE01.JPG,AFNE01.JPG,,,,,1,1,11,2,,,,,,,,,,,,,,,,,,,AMNE20.jpg,AMSA18.jpg,AMNE05.jpg,AMSA19.jpg,AMSA18.jpg,MS,2,num_6,16,num_6,0.700130380574,,,2017_Oct_24_1551,59.977204118,FEMA4ImagesEEG,001,102198,
AFNE01.JPG,AFNE01.JPG,AFNE01.JPG,AFNE01.JPG,AFNE01.JPG,AFNE01.JPG,,,,,1,2,12,3,,,,,,,,,,,,,,,,,,,AMSA18.jpg,AMNE03.jpg,AMNE20.jpg,AMSA07.jpg,AMNE03.jpg,MN,1,num_6,32,num_4,0.700098306756,,,2017_Oct_24_1551,59.977204118,FEMA4ImagesEEG,001,102198,
AFNE01.JPG,AFNE01.JPG,AFNE01.JPG,AFNE01.JPG,AFNE01.JPG,AFNE01.JPG,,,,,1,3,13,4,,,,,,,,,,,,,,,,,,,AMSA17.jpg,AMSA14.jpg,AMNE17.jpg,AMNE20.jpg,AMNE20.jpg,MN,1,num_4,32,num_2,1.93345296918,,,2017_Oct_24_1551,59.977204118,FEMA4ImagesEEG,001,102198,
AFNE01.JPG,AFNE01.JPG,AFNE01.JPG,AFNE01.JPG,AFNE01.JPG,AFNE01.JPG,,,,,1,4,14,7,,,,,,,,,,,,,,,,,,,AMSA16.jpg,AMNE07.jpg,AMSA04.jpg,AMNE16.jpg,AMSA16.jpg,MS,2,num_8,32,num_4,3.33367812831,,,2017_Oct_24_1551,59.977204118,FEMA4ImagesEEG,001,102198,
AFNE01.JPG,AFNE01.JPG,AFNE01.JPG,AFNE01.JPG,AFNE01.JPG,AFNE01.JPG,,,,,1,5,15,5,,,,,,,,,,,,,,,,,,,AMSA10.jpg,AMNE06.jpg,AMNE03.jpg,AMSA03.jpg,AMNE03.jpg,MN,1,num_2,32,num_6,2.28340670245,,,2017_Oct_24_1551,59.977204118,FEMA4ImagesEEG,001,102198,
AFNE01.JPG,AFNE01.JPG,AFNE01.JPG,AFNE01.JPG,AFNE01.JPG,AFNE01.JPG,,,,,1,6,16,6,,,,,,,,,,,,,,,,,,,AMNE19.jpg,AMNE07.jpg,AMSA11.jpg,AMSA06.jpg,AMNE19.jpg,MN,1,num_8,32,num_6,0.783551516361,,,2017_Oct_24_1551,59.977204118,FEMA4ImagesEEG,001,102198,
AFNE01.JPG,AFNE01.JPG,AFNE01.JPG,AFNE01.JPG,AFNE01.JPG,AFNE01.JPG,,,,,1,7,17,9,,,,,,,,,,,,,,,,,,,AMNE02.jpg,AMNE06.jpg,AMSA18.jpg,AMSA20.jpg,AMNE06.jpg,MN,1,num_6,32,num_8,0.450791985961,,,2017_Oct_24_1551,59.977204118,FEMA4ImagesEEG,001,102198,
AFNE01.JPG,AFNE01.JPG,AFNE01.JPG,AFNE01.JPG,AFNE01.JPG,AFNE01.JPG,,,,,1,8,18,0,,,,,,,,,,,,,,,,,,,AMNE17.jpg,AMNE07.jpg,AMSA16.jpg,AMSA07.jpg,AMSA07.jpg,MS,2,num_4,32,num_2,0.48350837687,,,2017_Oct_24_1551,59.977204118,FEMA4ImagesEEG,001,102198,
AFNE01.JPG,AFNE01.JPG,AFNE01.JPG,AFNE01.JPG,AFNE01.JPG,AFNE01.JPG,,,,,1,9,19,1,,,,,,,,,,,,,,,,,,,AMNE08.jpg,AMSA08.jpg,AMNE06.jpg,AMSA03.jpg,AMNE06.jpg,MN,1,num_2,32,num_6,0.733465157333,,,2017_Oct_24_1551,59.977204118,FEMA4ImagesEEG,001,102198,
AFNE01.JPG,AFNE01.JPG,AFNE01.JPG,AFNE01.JPG,AFNE01.JPG,AFNE01.JPG,,,,,2,0,20,0,,,,,,,,,,,,,,,,,,,AMSA20.jpg,AMNE01.jpg,AMSA09.jpg,AMNE15.jpg,AMNE15.jpg,MN,1,num_4,32,num_2,0.516774835996,,,2017_Oct_24_1551,59.977204118,FEMA4ImagesEEG,001,102198,
AFNE01.JPG,AFNE01.JPG,AFNE01.JPG,AFNE01.JPG,AFNE01.JPG,AFNE01.JPG,,,,,2,1,21,4,,,,,,,,,,,,,,,,,,,AMSA20.jpg,AMSA02.jpg,AMNE19.jpg,AMNE06.jpg,AMSA20.jpg,MS,2,num_8,32,num_2,1.05010881089,,,2017_Oct_24_1551,59.977204118,FEMA4ImagesEEG,001,102198,
AFNE01.JPG,AFNE01.JPG,AFNE01.JPG,AFNE01.JPG,AFNE01.JPG,AFNE01.JPG,,,,,2,2,22,7,,,,,,,,,,,,,,,,,,,AMNE02.jpg,AMSA08.jpg,AMNE17.jpg,AMSA14.jpg,AMNE02.jpg,MN,1,num_8,16,num_8,1.01676569495,,,2017_Oct_24_1551,59.977204118,FEMA4ImagesEEG,001,102198,
AFNE01.JPG,AFNE01.JPG,AFNE01.JPG,AFNE01.JPG,AFNE01.JPG,AFNE01.JPG,,,,,2,3,23,3,,,,,,,,,,,,,,,,,,,AMNE10.jpg,AMNE02.jpg,AMSA12.jpg,AMSA19.jpg,AMSA19.jpg,MS,2,num_4,32,num_8,0.833447676967,,,2017_Oct_24_1551,59.977204118,FEMA4ImagesEEG,001,102198,
AFNE01.JPG,AFNE01.JPG,AFNE01.JPG,AFNE01.JPG,AFNE01.JPG,AFNE01.JPG,,,,,2,4,24,2,,,,,,,,,,,,,,,,,,,AMSA16.jpg,AMNE01.jpg,AMSA12.jpg,AMNE06.jpg,AMNE06.jpg,MN,1,num_4,16,num_4,0.50013038062,,,2017_Oct_24_1551,59.977204118,FEMA4ImagesEEG,001,102198,
AFNE01.JPG,AFNE01.JPG,AFNE01.JPG,AFNE01.JPG,AFNE01.JPG,AFNE01.JPG,,,,,2,5,25,1,,,,,,,,,,,,,,,,,,,AMNE04.jpg,AMSA20.jpg,AMNE02.jpg,AMSA07.jpg,AMNE02.jpg,MN,1,num_2,16,num_2,1.45011522563,,,2017_Oct_24_1551,59.977204118,FEMA4ImagesEEG,001,102198,
AFNE01.JPG,AFNE01.JPG,AFNE01.JPG,AFNE01.JPG,AFNE01.JPG,AFNE01.JPG,,,,,2,6,26,5,,,,,,,,,,,,,,,,,,,AMNE01.jpg,AMSA08.jpg,AMNE18.jpg,AMSA16.jpg,AMSA16.jpg,MS,2,num_4,32,num_6,0.700098948204,,,2017_Oct_24_1551,59.977204118,FEMA4ImagesEEG,001,102198,
AFNE01.JPG,AFNE01.JPG,AFNE01.JPG,AFNE01.JPG,AFNE01.JPG,AFNE01.JPG,,,,,2,7,27,9,,,,,,,,,,,,,,,,,,,AMSA16.jpg,AMSA13.jpg,AMNE17.jpg,AMNE09.jpg,AMNE17.jpg,MN,1,num_2,32,num_4,1.21677435492,,,2017_Oct_24_1551,59.977204118,FEMA4ImagesEEG,001,102198,
AFNE01.JPG,AFNE01.JPG,AFNE01.JPG,AFNE01.JPG,AFNE01.JPG,AFNE01.JPG,,,,,2,8,28,6,,,,,,,,,,,,,,,,,,,AMNE13.jpg,AMSA05.jpg,AMNE20.jpg,AMSA09.jpg,AMSA05.jpg,MS,2,num_6,32,num_4,1.18344599311,,,2017_Oct_24_1551,59.977204118,FEMA4ImagesEEG,001,102198,
AFNE01.JPG,AFNE01.JPG,AFNE01.JPG,AFNE01.JPG,AFNE01.JPG,AFNE01.JPG,,,,,2,9,29,8,,,,,,,,,,,,,,,,,,,AMSA19.jpg,AMNE16.jpg,AMNE03.jpg,AMSA15.jpg,AMSA15.jpg,MS,2,num_4,16,num_4,0.416823748848,,,2017_Oct_24_1551,59.977204118,FEMA4ImagesEEG,001,102198,
AFNE01.JPG,AFNE01.JPG,AFNE01.JPG,AFNE01.JPG,AFNE01.JPG,AFNE01.JPG,,,,,3,0,30,3,,,,,,,,,,,,,,,,,,,AMSA03.jpg,AMNE06.jpg,AMSA05.jpg,AMNE14.jpg,AMSA05.jpg,MS,2,num_2,32,num_8,0.833459544345,,,2017_Oct_24_1551,59.977204118,FEMA4ImagesEEG,001,102198,
AFNE01.JPG,AFNE01.JPG,AFNE01.JPG,AFNE01.JPG,AFNE01.JPG,AFNE01.JPG,,,,,3,1,31,2,,,,,,,,,,,,,,,,,,,AMSA15.jpg,AMNE03.jpg,AMNE20.jpg,AMSA09.jpg,AMNE20.jpg,MN,1,num_2,16,num_2,0.683468925883,,,2017_Oct_24_1551,59.977204118,FEMA4ImagesEEG,001,102198,
AFNE01.JPG,AFNE01.JPG,AFNE01.JPG,AFNE01.JPG,AFNE01.JPG,AFNE01.JPG,,,,,3,2,32,4,,,,,,,,,,,,,,,,,,,AMSA06.jpg,AMNE06.jpg,AMSA01.jpg,AMNE14.jpg,AMNE14.jpg,MN,1,num_4,32,num_6,1.45009245316,,,2017_Oct_24_1551,59.977204118,FEMA4ImagesEEG,001,102198,
AFNE01.JPG,AFNE01.JPG,AFNE01.JPG,AFNE01.JPG,AFNE01.JPG,AFNE01.JPG,,,,,3,3,33,6,,,,,,,,,,,,,,,,,,,AMSA20.jpg,AMNE12.jpg,AMNE03.jpg,AMSA02.jpg,AMSA20.jpg,MS,2,num_8,32,num_4,0.666653516353,,,2017_Oct_24_1551,59.977204118,FEMA4ImagesEEG,001,102198,
AFNE01.JPG,AFNE01.JPG,AFNE01.JPG,AFNE01.JPG,AFNE01.JPG,AFNE01.JPG,,,,,3,4,34,1,,,,,,,,,,,,,,,,,,,AMNE02.jpg,AMNE13.jpg,AMSA19.jpg,AMSA13.jpg,AMSA13.jpg,MS,2,num_4,32,num_6,0.78346908628,,,2017_Oct_24_1551,59.977204118,FEMA4ImagesEEG,001,102198,
AFNE01.JPG,AFNE01.JPG,AFNE01.JPG,AFNE01.JPG,AFNE01.JPG,AFNE01.JPG,,,,,3,5,35,0,,,,,,,,,,,,,,,,,,,AMSA07.jpg,AMNE05.jpg,AMNE15.jpg,AMSA04.jpg,AMSA04.jpg,MS,2,num_4,32,num_6,1.95001948485,,,2017_Oct_24_1551,59.977204118,FEMA4ImagesEEG,001,102198,
AFNE01.JPG,AFNE01.JPG,AFNE01.JPG,AFNE01.JPG,AFNE01.JPG,AFNE01.JPG,,,,,3,6,36,7,,,,,,,,,,,,,,,,,,,AMSA17.jpg,AMNE01.jpg,AMSA10.jpg,AMNE19.jpg,AMNE01.jpg,MN,1,num_6,32,num_4,1.73369929707,,,2017_Oct_24_1551,59.977204118,FEMA4ImagesEEG,001,102198,
AFNE01.JPG,AFNE01.JPG,AFNE01.JPG,AFNE01.JPG,AFNE01.JPG,AFNE01.JPG,,,,,3,7,37,8,,,,,,,,,,,,,,,,,,,AMSA15.jpg,AMSA17.jpg,AMNE16.jpg,AMNE04.jpg,AMSA17.jpg,MS,2,num_6,16,num_6,1.28341055138,,,2017_Oct_24_1551,59.977204118,FEMA4ImagesEEG,001,102198,
AFNE01.JPG,AFNE01.JPG,AFNE01.JPG,AFNE01.JPG,AFNE01.JPG,AFNE01.JPG,,,,,3,8,38,5,,,,,,,,,,,,,,,,,,,AMNE07.jpg,AMSA15.jpg,AMNE04.jpg,AMSA13.jpg,AMNE04.jpg,MN,1,num_2,16,num_2,0.733483118704,,,2017_Oct_24_1551,59.977204118,FEMA4ImagesEEG,001,102198,
AFNE01.JPG,AFNE01.JPG,AFNE01.JPG,AFNE01.JPG,AFNE01.JPG,AFNE01.JPG,,,,,3,9,39,9,,,,,,,,,,,,,,,,,,,AMNE04.jpg,AMNE03.jpg,AMSA12.jpg,AMSA15.jpg,AMNE04.jpg,MN,1,num_8,32,num_4,3.33325507294,,,2017_Oct_24_1551,59.977204118,FEMA4ImagesEEG,001,102198,
AFNE01.JPG,AFNE01.JPG,AFNE01.JPG,AFNE01.JPG,AFNE01.JPG,AFNE01.JPG,,,,,4,0,40,4,,,,,,,,,,,,,,,,,,,AMNE06.jpg,AMNE08.jpg,AMSA17.jpg,AMSA02.jpg,AMNE06.jpg,MN,1,num_8,32,num_6,1.30008515634,,,2017_Oct_24_1551,59.977204118,FEMA4ImagesEEG,001,102198,
AFNE01.JPG,AFNE01.JPG,AFNE01.JPG,AFNE01.JPG,AFNE01.JPG,AFNE01.JPG,,,,,4,1,41,7,,,,,,,,,,,,,,,,,,,AMNE03.jpg,AMSA10.jpg,AMNE05.jpg,AMSA07.jpg,AMSA10.jpg,MS,2,num_6,32,num_2,1.31681140035,,,2017_Oct_24_1551,59.977204118,FEMA4ImagesEEG,001,102198,
AFNE01.JPG,AFNE01.JPG,AFNE01.JPG,AFNE01.JPG,AFNE01.JPG,AFNE01.JPG,,,,,4,2,42,0,,,,,,,,,,,,,,,,,,,AMSA16.jpg,AMNE20.jpg,AMSA20.jpg,AMNE12.jpg,AMNE20.jpg,MN,1,num_6,32,num_2,1.48346732231,,,2017_Oct_24_1551,59.977204118,FEMA4ImagesEEG,001,102198,
AFNE01.JPG,AFNE01.JPG,AFNE01.JPG,AFNE01.JPG,AFNE01.JPG,AFNE01.JPG,,,,,4,3,43,8,,,,,,,,,,,,,,,,,,,AMNE05.jpg,AMNE08.jpg,AMSA12.jpg,AMSA04.jpg,AMNE08.jpg,MN,1,num_6,32,num_8,2.00000096217,,,2017_Oct_24_1551,59.977204118,FEMA4ImagesEEG,001,102198,
AFNE01.JPG,AFNE01.JPG,AFNE01.JPG,AFNE01.JPG,AFNE01.JPG,AFNE01.JPG,,,,,4,4,44,5,,,,,,,,,,,,,,,,,,,AMNE08.jpg,AMSA12.jpg,AMNE12.jpg,AMSA06.jpg,AMNE12.jpg,MN,1,num_2,32,num_4,0.883476302959,,,2017_Oct_24_1551,59.977204118,FEMA4ImagesEEG,001,102198,
AFNE01.JPG,AFNE01.JPG,AFNE01.JPG,AFNE01.JPG,AFNE01.JPG,AFNE01.JPG,,,,,4,5,45,2,,,,,,,,,,,,,,,,,,,AMSA19.jpg,AMNE14.jpg,AMNE02.jpg,AMSA20.jpg,AMNE02.jpg,MN,1,num_2,32,num_4,0.750126291183,,,2017_Oct_24_1551,59.977204118,FEMA4ImagesEEG,001,102198,
AFNE01.JPG,AFNE01.JPG,AFNE01.JPG,AFNE01.JPG,AFNE01.JPG,AFNE01.JPG,,,,,4,6,46,1,,,,,,,,,,,,,,,,,,,AMNE20.jpg,AMSA13.jpg,AMSA05.jpg,AMNE07.jpg,AMNE07.jpg,MN,1,num_4,16,num_4,0.650157563272,,,2017_Oct_24_1551,59.977204118,FEMA4ImagesEEG,001,102198,
AFNE01.JPG,AFNE01.JPG,AFNE01.JPG,AFNE01.JPG,AFNE01.JPG,AFNE01.JPG,,,,,4,7,47,6,,,,,,,,,,,,,,,,,,,AMSA05.jpg,AMNE16.jpg,AMNE19.jpg,AMSA16.jpg,AMSA16.jpg,MS,2,num_4,32,num_6,0.750115386094,,,2017_Oct_24_1551,59.977204118,FEMA4ImagesEEG,001,102198,
AFNE01.JPG,AFNE01.JPG,AFNE01.JPG,AFNE01.JPG,AFNE01.JPG,AFNE01.JPG,,,,,4,8,48,3,,,,,,,,,,,,,,,,,,,AMNE09.jpg,AMNE16.jpg,AMSA04.jpg,AMSA01.jpg,AMSA04.jpg,MS,2,num_2,32,num_8,0.716764572309,,,2017_Oct_24_1551,59.977204118,FEMA4ImagesEEG,001,102198,
AFNE01.JPG,AFNE01.JPG,AFNE01.JPG,AFNE01.JPG,AFNE01.JPG,AFNE01.JPG,,,,,4,9,49,9,,,,,,,,,,,,,,,,,,,AMNE20.jpg,AMSA17.jpg,AMSA05.jpg,AMNE18.jpg,AMSA05.jpg,MS,2,num_2,32,num_8,1.11669978302,,,2017_Oct_24_1551,59.977204118,FEMA4ImagesEEG,001,102198,
AFNE01.JPG,AFNE01.JPG,AFNE01.JPG,AFNE01.JPG,AFNE01.JPG,AFNE01.JPG,,,,,5,0,50,4,,,,,,,,,,,,,,,,,,,AMNE10.jpg,AMNE05.jpg,AMSA14.jpg,AMSA09.jpg,AMNE10.jpg,MN,1,num_8,32,num_2,1.4834102306,,,2017_Oct_24_1551,59.977204118,FEMA4ImagesEEG,001,102198,
AFNE01.JPG,AFNE01.JPG,AFNE01.JPG,AFNE01.JPG,AFNE01.JPG,AFNE01.JPG,,,,,5,1,51,5,,,,,,,,,,,,,,,,,,,AMSA08.jpg,AMNE01.jpg,AMNE15.jpg,AMSA20.jpg,AMSA20.jpg,MS,2,num_4,16,num_4,1.71666482242,,,2017_Oct_24_1551,59.977204118,FEMA4ImagesEEG,001,102198,
AFNE01.JPG,AFNE01.JPG,AFNE01.JPG,AFNE01.JPG,AFNE01.JPG,AFNE01.JPG,,,,,5,2,52,7,,,,,,,,,,,,,,,,,,,AMSA16.jpg,AMSA18.jpg,AMNE02.jpg,AMNE12.jpg,AMNE02.jpg,MN,1,num_2,32,num_8,1.01671758399,,,2017_Oct_24_1551,59.977204118,FEMA4ImagesEEG,001,102198,
AFNE01.JPG,AFNE01.JPG,AFNE01.JPG,AFNE01.JPG,AFNE01.JPG,AFNE01.JPG,,,,,5,3,53,6,,,,,,,,,,,,,,,,,,,AMNE06.jpg,AMSA20.jpg,AMNE17.jpg,AMSA08.jpg,AMNE17.jpg,MN,1,num_2,32,num_4,0.733469647705,,,2017_Oct_24_1551,59.977204118,FEMA4ImagesEEG,001,102198,
AFNE01.JPG,AFNE01.JPG,AFNE01.JPG,AFNE01.JPG,AFNE01.JPG,AFNE01.JPG,,,,,5,4,54,8,,,,,,,,,,,,,,,,,,,AMSA06.jpg,AMSA14.jpg,AMNE05.jpg,AMNE09.jpg,AMSA06.jpg,MS,2,num_8,32,num_2,0.816871218267,,,2017_Oct_24_1551,59.977204118,FEMA4ImagesEEG,001,102198,
AFNE01.JPG,AFNE01.JPG,AFNE01.JPG,AFNE01.JPG,AFNE01.JPG,AFNE01.JPG,,,,,5,5,55,0,,,,,,,,,,,,,,,,,,,AMSA03.jpg,AMNE18.jpg,AMNE19.jpg,AMSA02.jpg,AMSA02.jpg,MS,2,num_4,32,num_6,1.50006110093,,,2017_Oct_24_1551,59.977204118,FEMA4ImagesEEG,001,102198,
AFNE01.JPG,AFNE01.JPG,AFNE01.JPG,AFNE01.JPG,AFNE01.JPG,AFNE01.JPG,,,,,5,6,56,1,,,,,,,,,,,,,,,,,,,AMSA13.jpg,AMSA06.jpg,AMNE13.jpg,AMNE15.jpg,AMSA06.jpg,MS,2,num_6,32,num_8,1.31670876371,,,2017_Oct_24_1551,59.977204118,FEMA4ImagesEEG,001,102198,
AFNE01.JPG,AFNE01.JPG,AFNE01.JPG,AFNE01.JPG,AFNE01.JPG,AFNE01.JPG,,,,,5,7,57,9,,,,,,,,,,,,,,,,,,,AMNE08.jpg,AMSA20.jpg,AMNE18.jpg,AMSA02.jpg,AMSA20.jpg,MS,2,num_6,32,num_8,1.11674436578,,,2017_Oct_24_1551,59.977204118,FEMA4ImagesEEG,001,102198,
AFNE01.JPG,AFNE01.JPG,AFNE01.JPG,AFNE01.JPG,AFNE01.JPG,AFNE01.JPG,,,,,5,8,58,2,,,,,,,,,,,,,,,,,,,AMNE06.jpg,AMSA04.jpg,AMSA18.jpg,AMNE17.jpg,AMSA18.jpg,MS,2,num_2,32,num_8,0.916757195373,,,2017_Oct_24_1551,59.977204118,FEMA4ImagesEEG,001,102198,
AFNE01.JPG,AFNE01.JPG,AFNE01.JPG,AFNE01.JPG,AFNE01.JPG,AFNE01.JPG,,,,,5,9,59,3,,,,,,,,,,,,,,,,,,,AMSA20.jpg,AMSA13.jpg,AMNE19.jpg,AMNE03.jpg,AMSA20.jpg,MS,2,num_8,32,num_2,1.21676377056,,,2017_Oct_24_1551,59.977204118,FEMA4ImagesEEG,001,102198,
,,,,,,,,,,,,,,,,,,,,,,,,,,,,,,,,,,,,,,,,,,,space,3.3832153813,2017_Oct_24_1551,59.977204118,FEMA4ImagesEEG,001,102198,
AFNE01.JPG,AFNE01.JPG,AFNE01.JPG,AFNE01.JPG,AFNE01.JPG,AFNE01.JPG,,,,,,,,,0,0,0,9,,,,,,,,,,,,,,,AFNE16.jpg,AFNE18.jpg,AFSA11.jpg,AFSA13.jpg,AFNE18.jpg,FN,3,num_6,32,num_4,1.06675294554,,,2017_Oct_24_1551,59.977204118,FEMA4ImagesEEG,001,102198,
AFNE01.JPG,AFNE01.JPG,AFNE01.JPG,AFNE01.JPG,AFNE01.JPG,AFNE01.JPG,,,,,,,,,0,1,1,5,,,,,,,,,,,,,,,AFNE03.jpg,AFSA07.jpg,AFNE13.jpg,AFSA11.jpg,AFNE03.jpg,FN,3,num_8,32,num_2,1.1167177445,,,2017_Oct_24_1551,59.977204118,FEMA4ImagesEEG,001,102198,
AFNE01.JPG,AFNE01.JPG,AFNE01.JPG,AFNE01.JPG,AFNE01.JPG,AFNE01.JPG,,,,,,,,,0,2,2,1,,,,,,,,,,,,,,,AFNE12.jpg,AFNE14.jpg,AFSA15.jpg,AFSA08.jpg,AFNE12.jpg,FN,3,num_8,16,num_8,0.867114419001,,,2017_Oct_24_1551,59.977204118,FEMA4ImagesEEG,001,102198,
AFNE01.JPG,AFNE01.JPG,AFNE01.JPG,AFNE01.JPG,AFNE01.JPG,AFNE01.JPG,,,,,,,,,0,3,3,3,,,,,,,,,,,,,,,AFNE01.jpg,AFSA01.jpg,AFNE15.jpg,AFSA16.jpg,AFNE01.jpg,FN,3,num_8,32,num_4,0.766793839866,,,2017_Oct_24_1551,59.977204118,FEMA4ImagesEEG,001,102198,
AFNE01.JPG,AFNE01.JPG,AFNE01.JPG,AFNE01.JPG,AFNE01.JPG,AFNE01.JPG,,,,,,,,,0,4,4,4,,,,,,,,,,,,,,,AFNE15.jpg,AFSA08.jpg,AFSA20.jpg,AFNE01.jpg,AFSA08.jpg,FS,4,num_6,32,num_8,0.666783736669,,,2017_Oct_24_1551,59.977204118,FEMA4ImagesEEG,001,102198,
AFNE01.JPG,AFNE01.JPG,AFNE01.JPG,AFNE01.JPG,AFNE01.JPG,AFNE01.JPG,,,,,,,,,0,5,5,0,,,,,,,,,,,,,,,AFSA07.jpg,AFNE20.jpg,AFSA03.jpg,AFNE08.jpg,AFNE20.jpg,FN,3,num_6,32,num_8,0.483422739431,,,2017_Oct_24_1551,59.977204118,FEMA4ImagesEEG,001,102198,
AFNE01.JPG,AFNE01.JPG,AFNE01.JPG,AFNE01.JPG,AFNE01.JPG,AFNE01.JPG,,,,,,,,,0,6,6,6,,,,,,,,,,,,,,,AFNE15.jpg,AFSA13.jpg,AFSA06.jpg,AFNE02.jpg,AFSA06.jpg,FS,4,num_2,32,num_6,1.16676048294,,,2017_Oct_24_1551,59.977204118,FEMA4ImagesEEG,001,102198,
AFNE01.JPG,AFNE01.JPG,AFNE01.JPG,AFNE01.JPG,AFNE01.JPG,AFNE01.JPG,,,,,,,,,0,7,7,8,,,,,,,,,,,,,,,AFSA11.jpg,AFNE04.jpg,AFSA03.jpg,AFNE09.jpg,AFNE04.jpg,FN,3,num_6,32,num_8,0.666814848315,,,2017_Oct_24_1551,59.977204118,FEMA4ImagesEEG,001,102198,
AFNE01.JPG,AFNE01.JPG,AFNE01.JPG,AFNE01.JPG,AFNE01.JPG,AFNE01.JPG,,,,,,,,,0,8,8,2,,,,,,,,,,,,,,,AFSA08.jpg,AFNE12.jpg,AFSA19.jpg,AFNE19.jpg,AFSA08.jpg,FS,4,num_8,32,num_4,0.616778524593,,,2017_Oct_24_1551,59.977204118,FEMA4ImagesEEG,001,102198,
AFNE01.JPG,AFNE01.JPG,AFNE01.JPG,AFNE01.JPG,AFNE01.JPG,AFNE01.JPG,,,,,,,,,0,9,9,7,,,,,,,,,,,,,,,AFSA11.jpg,AFNE01.jpg,AFSA12.jpg,AFNE09.jpg,AFNE09.jpg,FN,3,num_4,16,num_4,0.81675478979,,,2017_Oct_24_1551,59.977204118,FEMA4ImagesEEG,001,102198,
AFNE01.JPG,AFNE01.JPG,AFNE01.JPG,AFNE01.JPG,AFNE01.JPG,AFNE01.JPG,,,,,,,,,1,0,10,0,,,,,,,,,,,,,,,AFNE11.jpg,AFSA15.jpg,AFNE07.jpg,AFSA05.jpg,AFNE11.jpg,FN,3,num_8,32,num_4,0.650153393624,,,2017_Oct_24_1551,59.977204118,FEMA4ImagesEEG,001,102198,
AFNE01.JPG,AFNE01.JPG,AFNE01.JPG,AFNE01.JPG,AFNE01.JPG,AFNE01.JPG,,,,,,,,,1,1,11,4,,,,,,,,,,,,,,,AFNE13.jpg,AFSA20.jpg,AFSA18.jpg,AFNE03.jpg,AFNE03.jpg,FN,3,num_4,16,num_4,1.43340116972,,,2017_Oct_24_1551,59.977204118,FEMA4ImagesEEG,001,102198,
AFNE01.JPG,AFNE01.JPG,AFNE01.JPG,AFNE01.JPG,AFNE01.JPG,AFNE01.JPG,,,,,,,,,1,2,12,6,,,,,,,,,,,,,,,AFSA08.jpg,AFSA18.jpg,AFNE14.jpg,AFNE09.jpg,AFNE09.jpg,FN,3,num_4,32,num_6,1.63338032167,,,2017_Oct_24_1551,59.977204118,FEMA4ImagesEEG,001,102198,
AFNE01.JPG,AFNE01.JPG,AFNE01.JPG,AFNE01.JPG,AFNE01.JPG,AFNE01.JPG,,,,,,,,,1,3,13,1,,,,,,,,,,,,,,,AFNE18.jpg,AFSA04.jpg,AFSA18.jpg,AFNE05.jpg,AFNE05.jpg,FN,3,num_4,32,num_6,1.38339691993,,,2017_Oct_24_1551,59.977204118,FEMA4ImagesEEG,001,102198,
AFNE01.JPG,AFNE01.JPG,AFNE01.JPG,AFNE01.JPG,AFNE01.JPG,AFNE01.JPG,,,,,,,,,1,4,14,7,,,,,,,,,,,,,,,AFSA09.jpg,AFNE10.jpg,AFNE17.jpg,AFSA08.jpg,AFNE10.jpg,FN,3,num_6,32,num_8,1.20009846706,,,2017_Oct_24_1551,59.977204118,FEMA4ImagesEEG,001,102198,
AFNE01.JPG,AFNE01.JPG,AFNE01.JPG,AFNE01.JPG,AFNE01.JPG,AFNE01.JPG,,,,,,,,,1,5,15,3,,,,,,,,,,,,,,,AFNE13.jpg,AFNE10.jpg,AFSA04.jpg,AFSA18.jpg,AFNE10.jpg,FN,3,num_6,16,num_6,1.15012629121,,,2017_Oct_24_1551,59.977204118,FEMA4ImagesEEG,001,102198,
AFNE01.JPG,AFNE01.JPG,AFNE01.JPG,AFNE01.JPG,AFNE01.JPG,AFNE01.JPG,,,,,,,,,1,6,16,5,,,,,,,,,,,,,,,AFNE15.jpg,AFSA03.jpg,AFSA07.jpg,AFNE18.jpg,AFSA07.jpg,FS,4,num_2,32,num_4,1.43344062078,,,2017_Oct_24_1551,59.977204118,FEMA4ImagesEEG,001,102198,
AFNE01.JPG,AFNE01.JPG,AFNE01.JPG,AFNE01.JPG,AFNE01.JPG,AFNE01.JPG,,,,,,,,,1,7,17,8,,,,,,,,,,,,,,,AFNE10.jpg,AFNE01.jpg,AFSA20.jpg,AFSA14.jpg,AFSA20.jpg,FS,4,num_2,16,num_2,1.59994322911,,,2017_Oct_24_1551,59.977204118,FEMA4ImagesEEG,001,102198,
AFNE01.JPG,AFNE01.JPG,AFNE01.JPG,AFNE01.JPG,AFNE01.JPG,AFNE01.JPG,,,,,,,,,1,8,18,2,,,,,,,,,,,,,,,AFSA07.jpg,AFNE04.jpg,AFNE19.jpg,AFSA16.jpg,AFSA16.jpg,FS,4,num_4,32,num_6,1.53347702464,,,2017_Oct_24_1551,59.977204118,FEMA4ImagesEEG,001,102198,
AFNE01.JPG,AFNE01.JPG,AFNE01.JPG,AFNE01.JPG,AFNE01.JPG,AFNE01.JPG,,,,,,,,,1,9,19,9,,,,,,,,,,,,,,,AFNE16.jpg,AFSA10.jpg,AFNE08.jpg,AFSA01.jpg,AFSA01.jpg,FS,4,num_4,16,num_4,0.750148422201,,,2017_Oct_24_1551,59.977204118,FEMA4ImagesEEG,001,102198,
AFNE01.JPG,AFNE01.JPG,AFNE01.JPG,AFNE01.JPG,AFNE01.JPG,AFNE01.JPG,,,,,,,,,2,0,20,1,,,,,,,,,,,,,,,AFNE18.jpg,AFNE14.jpg,AFSA16.jpg,AFSA17.jpg,AFSA16.jpg,FS,4,num_2,32,num_8,1.35010063194,,,2017_Oct_24_1551,59.977204118,FEMA4ImagesEEG,001,102198,
AFNE01.JPG,AFNE01.JPG,AFNE01.JPG,AFNE01.JPG,AFNE01.JPG,AFNE01.JPG,,,,,,,,,2,1,21,4,,,,,,,,,,,,,,,AFSA15.jpg,AFNE13.jpg,AFSA12.jpg,AFNE06.jpg,AFNE13.jpg,FN,3,num_6,16,num_6,2.84997538326,,,2017_Oct_24_1551,59.977204118,FEMA4ImagesEEG,001,102198,
AFNE01.JPG,AFNE01.JPG,AFNE01.JPG,AFNE01.JPG,AFNE01.JPG,AFNE01.JPG,,,,,,,,,2,2,22,9,,,,,,,,,,,,,,,AFNE18.jpg,AFSA06.jpg,AFSA09.jpg,AFNE13.jpg,AFSA06.jpg,FS,4,num_6,16,num_6,1.00011322112,,,2017_Oct_24_1551,59.977204118,FEMA4ImagesEEG,001,102198,
AFNE01.JPG,AFNE01.JPG,AFNE01.JPG,AFNE01.JPG,AFNE01.JPG,AFNE01.JPG,,,,,,,,,2,3,23,0,,,,,,,,,,,,,,,AFSA04.jpg,AFNE02.jpg,AFNE19.jpg,AFSA13.jpg,AFNE02.jpg,FN,3,num_6,32,num_2,1.13343725295,,,2017_Oct_24_1551,59.977204118,FEMA4ImagesEEG,001,102198,
AFNE01.JPG,AFNE01.JPG,AFNE01.JPG,AFNE01.JPG,AFNE01.JPG,AFNE01.JPG,,,,,,,,,2,4,24,5,,,,,,,,,,,,,,,AFSA18.jpg,AFSA02.jpg,AFNE19.jpg,AFNE04.jpg,AFNE04.jpg,FN,3,num_4,16,num_4,2.266666346,,,2017_Oct_24_1551,59.977204118,FEMA4ImagesEEG,001,102198,
AFNE01.JPG,AFNE01.JPG,AFNE01.JPG,AFNE01.JPG,AFNE01.JPG,AFNE01.JPG,,,,,,,,,2,5,25,2,,,,,,,,,,,,,,,AFNE12.jpg,AFSA20.jpg,AFSA03.jpg,AFNE05.jpg,AFSA03.jpg,FS,4,num_2,16,num_2,0.950119876419,,,2017_Oct_24_1551,59.977204118,FEMA4ImagesEEG,001,102198,
AFNE01.JPG,AFNE01.JPG,AFNE01.JPG,AFNE01.JPG,AFNE01.JPG,AFNE01.JPG,,,,,,,,,2,6,26,3,,,,,,,,,,,,,,,AFSA01.jpg,AFSA05.jpg,AFNE04.jpg,AFNE08.jpg,AFNE08.jpg,FN,3,num_4,16,num_4,1.48343813489,,,2017_Oct_24_1551,59.977204118,FEMA4ImagesEEG,001,102198,
AFNE01.JPG,AFNE01.JPG,AFNE01.JPG,AFNE01.JPG,AFNE01.JPG,AFNE01.JPG,,,,,,,,,2,7,27,7,,,,,,,,,,,,,,,AFNE20.jpg,AFSA06.jpg,AFSA04.jpg,AFNE01.jpg,AFSA06.jpg,FS,4,num_6,32,num_4,0.916803061147,,,2017_Oct_24_1551,59.977204118,FEMA4ImagesEEG,001,102198,
AFNE01.JPG,AFNE01.JPG,AFNE01.JPG,AFNE01.JPG,AFNE01.JPG,AFNE01.JPG,,,,,,,,,2,8,28,6,,,,,,,,,,,,,,,AFSA10.jpg,AFNE08.jpg,AFSA11.jpg,AFNE16.jpg,AFNE08.jpg,FN,3,num_6,16,num_6,0.667563133524,,,2017_Oct_24_1551,59.977204118,FEMA4ImagesEEG,001,102198,
AFNE01.JPG,AFNE01.JPG,AFNE01.JPG,AFNE01.JPG,AFNE01.JPG,AFNE01.JPG,,,,,,,,,2,9,29,8,,,,,,,,,,,,,,,AFSA18.jpg,AFSA14.jpg,AFNE18.jpg,AFNE06.jpg,AFSA14.jpg,FS,4,num_6,32,num_8,0.700138399028,,,2017_Oct_24_1551,59.977204118,FEMA4ImagesEEG,001,102198,
AFNE01.JPG,AFNE01.JPG,AFNE01.JPG,AFNE01.JPG,AFNE01.JPG,AFNE01.JPG,,,,,,,,,3,0,30,3,,,,,,,,,,,,,,,AFSA15.jpg,AFSA07.jpg,AFNE08.jpg,AFNE16.jpg,AFNE16.jpg,FN,3,num_4,16,num_4,1.41668422718,,,2017_Oct_24_1551,59.977204118,FEMA4ImagesEEG,001,102198,
AFNE01.JPG,AFNE01.JPG,AFNE01.JPG,AFNE01.JPG,AFNE01.JPG,AFNE01.JPG,,,,,,,,,3,1,31,0,,,,,,,,,,,,,,,AFSA03.jpg,AFNE03.jpg,AFNE09.jpg,AFSA20.jpg,AFSA20.jpg,FS,4,num_4,32,num_8,1.78336195927,,,2017_Oct_24_1551,59.977204118,FEMA4ImagesEEG,001,102198,
AFNE01.JPG,AFNE01.JPG,AFNE01.JPG,AFNE01.JPG,AFNE01.JPG,AFNE01.JPG,,,,,,,,,3,2,32,8,,,,,,,,,,,,,,,AFSA19.jpg,AFSA11.jpg,AFNE12.jpg,AFNE11.jpg,AFSA11.jpg,FS,4,num_6,16,num_6,0.766748294816,,,2017_Oct_24_1551,59.977204118,FEMA4ImagesEEG,001,102198,
AFNE01.JPG,AFNE01.JPG,AFNE01.JPG,AFNE01.JPG,AFNE01.JPG,AFNE01.JPG,,,,,,,,,3,3,33,6,,,,,,,,,,,,,,,AFSA19.jpg,AFNE13.jpg,AFSA08.jpg,AFNE18.jpg,AFNE13.jpg,FN,3,num_6,32,num_8,1.11671934812,,,2017_Oct_24_1551,59.977204118,FEMA4ImagesEEG,001,102198,
AFNE01.JPG,AFNE01.JPG,AFNE01.JPG,AFNE01.JPG,AFNE01.JPG,AFNE01.JPG,,,,,,,,,3,4,34,1,,,,,,,,,,,,,,,AFSA05.jpg,AFSA15.jpg,AFNE17.jpg,AFNE01.jpg,AFNE01.jpg,FN,3,num_4,16,num_4,0.750116027542,,,2017_Oct_24_1551,59.977204118,FEMA4ImagesEEG,001,102198,
AFNE01.JPG,AFNE01.JPG,AFNE01.JPG,AFNE01.JPG,AFNE01.JPG,AFNE01.JPG,,,,,,,,,3,5,35,7,,,,,,,,,,,,,,,AFSA01.jpg,AFSA12.jpg,AFNE14.jpg,AFNE02.jpg,AFNE14.jpg,FN,3,num_2,16,num_2,1.2001414462,,,2017_Oct_24_1551,59.977204118,FEMA4ImagesEEG,001,102198,
AFNE01.JPG,AFNE01.JPG,AFNE01.JPG,AFNE01.JPG,AFNE01.JPG,AFNE01.JPG,,,,,,,,,3,6,36,4,,,,,,,,,,,,,,,AFSA12.jpg,AFNE05.jpg,AFSA18.jpg,AFNE08.jpg,AFNE05.jpg,FN,3,num_6,32,num_4,0.883429795736,,,2017_Oct_24_1551,59.977204118,FEMA4ImagesEEG,001,102198,
AFNE01.JPG,AFNE01.JPG,AFNE01.JPG,AFNE01.JPG,AFNE01.JPG,AFNE01.JPG,,,,,,,,,3,7,37,5,,,,,,,,,,,,,,,AFSA20.jpg,AFSA09.jpg,AFNE18.jpg,AFNE20.jpg,AFNE20.jpg,FN,3,num_4,32,num_8,1.38341359841,,,2017_Oct_24_1551,59.977204118,FEMA4ImagesEEG,001,102198,
AFNE01.JPG,AFNE01.JPG,AFNE01.JPG,AFNE01.JPG,AFNE01.JPG,AFNE01.JPG,,,,,,,,,3,8,38,2,,,,,,,,,,,,,,,AFNE05.jpg,AFSA07.jpg,AFNE17.jpg,AFSA11.jpg,AFNE05.jpg,FN,3,num_8,32,num_2,0.800132786157,,,2017_Oct_24_1551,59.977204118,FEMA4ImagesEEG,001,102198,
AFNE01.JPG,AFNE01.JPG,AFNE01.JPG,AFNE01.JPG,AFNE01.JPG,AFNE01.JPG,,,,,,,,,3,9,39,9,,,,,,,,,,,,,,,AFNE04.jpg,AFNE02.jpg,AFSA15.jpg,AFSA10.jpg,AFNE02.jpg,FN,3,num_6,16,num_6,1.10010760813,,,2017_Oct_24_1551,59.977204118,FEMA4ImagesEEG,001,102198,
AFNE01.JPG,AFNE01.JPG,AFNE01.JPG,AFNE01.JPG,AFNE01.JPG,AFNE01.JPG,,,,,,,,,4,0,40,3,,,,,,,,,,,,,,,AFSA16.jpg,AFSA02.jpg,AFNE05.jpg,AFNE01.jpg,AFSA02.jpg,FS,4,num_6,32,num_4,1.90004281874,,,2017_Oct_24_1551,59.977204118,FEMA4ImagesEEG,001,102198,
AFNE01.JPG,AFNE01.JPG,AFNE01.JPG,AFNE01.JPG,AFNE01.JPG,AFNE01.JPG,,,,,,,,,4,1,41,8,,,,,,,,,,,,,,,AFSA19.jpg,AFNE15.jpg,AFSA18.jpg,AFNE19.jpg,AFNE19.jpg,FN,3,num_4,16,num_4,0.683467322262,,,2017_Oct_24_1551,59.977204118,FEMA4ImagesEEG,001,102198,
AFNE01.JPG,AFNE01.JPG,AFNE01.JPG,AFNE01.JPG,AFNE01.JPG,AFNE01.JPG,,,,,,,,,4,2,42,5,,,,,,,,,,,,,,,AFSA16.jpg,AFSA19.jpg,AFNE12.jpg,AFNE11.jpg,AFNE11.jpg,FN,3,num_4,32,num_8,0.883463152684,,,2017_Oct_24_1551,59.977204118,FEMA4ImagesEEG,001,102198,
AFNE01.JPG,AFNE01.JPG,AFNE01.JPG,AFNE01.JPG,AFNE01.JPG,AFNE01.JPG,,,,,,,,,4,3,43,2,,,,,,,,,,,,,,,AFSA17.jpg,AFSA04.jpg,AFNE04.jpg,AFNE13.jpg,AFSA04.jpg,FS,4,num_6,16,num_6,0.800144653535,,,2017_Oct_24_1551,59.977204118,FEMA4ImagesEEG,001,102198,
AFNE01.JPG,AFNE01.JPG,AFNE01.JPG,AFNE01.JPG,AFNE01.JPG,AFNE01.JPG,,,,,,,,,4,4,44,7,,,,,,,,,,,,,,,AFNE10.jpg,AFSA07.jpg,AFNE05.jpg,AFSA08.jpg,AFSA07.jpg,FS,4,num_6,32,num_2,1.31670202827,,,2017_Oct_24_1551,59.977204118,FEMA4ImagesEEG,001,102198,
AFNE01.JPG,AFNE01.JPG,AFNE01.JPG,AFNE01.JPG,AFNE01.JPG,AFNE01.JPG,,,,,,,,,4,5,45,0,,,,,,,,,,,,,,,AFSA06.jpg,AFSA18.jpg,AFNE01.jpg,AFNE20.jpg,AFNE01.jpg,FN,3,num_2,32,num_8,0.850112018292,,,2017_Oct_24_1551,59.977204118,FEMA4ImagesEEG,001,102198,
AFNE01.JPG,AFNE01.JPG,AFNE01.JPG,AFNE01.JPG,AFNE01.JPG,AFNE01.JPG,,,,,,,,,4,6,46,1,,,,,,,,,,,,,,,AFSA05.jpg,AFNE01.jpg,AFSA06.jpg,AFNE14.jpg,AFSA05.jpg,FS,4,num_8,32,num_4,0.583478708519,,,2017_Oct_24_1551,59.977204118,FEMA4ImagesEEG,001,102198,
AFNE01.JPG,AFNE01.JPG,AFNE01.JPG,AFNE01.JPG,AFNE01.JPG,AFNE01.JPG,,,,,,,,,4,7,47,6,,,,,,,,,,,,,,,AFSA15.jpg,AFSA07.jpg,AFNE12.jpg,AFNE02.jpg,AFNE12.jpg,FN,3,num_2,16,num_2,2.41633109294,,,2017_Oct_24_1551,59.977204118,FEMA4ImagesEEG,001,102198,
AFNE01.JPG,AFNE01.JPG,AFNE01.JPG,AFNE01.JPG,AFNE01.JPG,AFNE01.JPG,,,,,,,,,4,8,48,9,,,,,,,,,,,,,,,AFSA08.jpg,AFSA13.jpg,AFNE17.jpg,AFNE03.jpg,AFSA08.jpg,FS,4,num_8,32,num_4,1.46674781374,,,2017_Oct_24_1551,59.977204118,FEMA4ImagesEEG,001,102198,
AFNE01.JPG,AFNE01.JPG,AFNE01.JPG,AFNE01.JPG,AFNE01.JPG,AFNE01.JPG,,,,,,,,,4,9,49,4,,,,,,,,,,,,,,,AFSA18.jpg,AFNE03.jpg,AFNE12.jpg,AFSA16.jpg,AFNE03.jpg,FN,3,num_6,16,num_6,0.733554964303,,,2017_Oct_24_1551,59.977204118,FEMA4ImagesEEG,001,102198,
AFNE01.JPG,AFNE01.JPG,AFNE01.JPG,AFNE01.JPG,AFNE01.JPG,AFNE01.JPG,,,,,,,,,5,0,50,8,,,,,,,,,,,,,,,AFSA03.jpg,AFNE17.jpg,AFSA20.jpg,AFNE15.jpg,AFSA20.jpg,FS,4,num_2,32,num_6,1.76698435913,,,2017_Oct_24_1551,59.977204118,FEMA4ImagesEEG,001,102198,
AFNE01.JPG,AFNE01.JPG,AFNE01.JPG,AFNE01.JPG,AFNE01.JPG,AFNE01.JPG,,,,,,,,,5,1,51,4,,,,,,,,,,,,,,,AFNE08.jpg,AFSA04.jpg,AFNE18.jpg,AFSA11.jpg,AFSA11.jpg,FS,4,num_4,32,num_6,0.700152190868,,,2017_Oct_24_1551,59.977204118,FEMA4ImagesEEG,001,102198,
AFNE01.JPG,AFNE01.JPG,AFNE01.JPG,AFNE01.JPG,AFNE01.JPG,AFNE01.JPG,,,,,,,,,5,2,52,1,,,,,,,,,,,,,,,AFSA12.jpg,AFSA10.jpg,AFNE12.jpg,AFNE03.jpg,AFNE03.jpg,FN,3,num_4,32,num_2,1.0834310787,,,2017_Oct_24_1551,59.977204118,FEMA4ImagesEEG,001,102198,
AFNE01.JPG,AFNE01.JPG,AFNE01.JPG,AFNE01.JPG,AFNE01.JPG,AFNE01.JPG,,,,,,,,,5,3,53,2,,,,,,,,,,,,,,,AFSA06.jpg,AFNE18.jpg,AFSA12.jpg,AFNE14.jpg,AFNE18.jpg,FN,3,num_6,32,num_4,0.700193245546,,,2017_Oct_24_1551,59.977204118,FEMA4ImagesEEG,001,102198,
AFNE01.JPG,AFNE01.JPG,AFNE01.JPG,AFNE01.JPG,AFNE01.JPG,AFNE01.JPG,,,,,,,,,5,4,54,0,,,,,,,,,,,,,,,AFSA06.jpg,AFNE16.jpg,AFSA14.jpg,AFNE13.jpg,AFNE13.jpg,FN,3,num_4,16,num_4,4.19988581678,,,2017_Oct_24_1551,59.977204118,FEMA4ImagesEEG,001,102198,
AFNE01.JPG,AFNE01.JPG,AFNE01.JPG,AFNE01.JPG,AFNE01.JPG,AFNE01.JPG,,,,,,,,,5,5,55,5,,,,,,,,,,,,,,,AFNE03.jpg,AFSA07.jpg,AFNE16.jpg,AFSA14.jpg,AFNE03.jpg,FN,3,num_8,16,num_8,0.566782293259,,,2017_Oct_24_1551,59.977204118,FEMA4ImagesEEG,001,102198,
AFNE01.JPG,AFNE01.JPG,AFNE01.JPG,AFNE01.JPG,AFNE01.JPG,AFNE01.JPG,,,,,,,,,5,6,56,3,,,,,,,,,,,,,,,AFSA03.jpg,AFNE09.jpg,AFNE04.jpg,AFSA11.jpg,AFSA11.jpg,FS,4,num_4,32,num_2,0.90002549882,,,2017_Oct_24_1551,59.977204118,FEMA4ImagesEEG,001,102198,
AFNE01.JPG,AFNE01.JPG,AFNE01.JPG,AFNE01.JPG,AFNE01.JPG,AFNE01.JPG,,,,,,,,,5,7,57,7,,,,,,,,,,,,,,,AFSA01.jpg,AFNE02.jpg,AFNE18.jpg,AFSA10.jpg,AFNE18.jpg,FN,3,num_2,16,num_2,0.666616310482,,,2017_Oct_24_1551,59.977204118,FEMA4ImagesEEG,001,102198,
AFNE01.JPG,AFNE01.JPG,AFNE01.JPG,AFNE01.JPG,AFNE01.JPG,AFNE01.JPG,,,,,,,,,5,8,58,6,,,,,,,,,,,,,,,AFNE06.jpg,AFSA14.jpg,AFSA08.jpg,AFNE18.jpg,AFSA14.jpg,FS,4,num_6,16,num_6,2.30000721663,,,2017_Oct_24_1551,59.977204118,FEMA4ImagesEEG,001,102198,
AFNE01.JPG,AFNE01.JPG,AFNE01.JPG,AFNE01.JPG,AFNE01.JPG,AFNE01.JPG,,,,,,,,,5,9,59,9,,,,,,,,,,,,,,,AFSA03.jpg,AFNE12.jpg,AFNE20.jpg,AFSA08.jpg,AFNE12.jpg,FN,3,num_6,16,num_6,1.21675767645,,,2017_Oct_24_1551,59.977204118,FEMA4ImagesEEG,001,102198,
,,,,,,,,,,,,,,,,,,,,,,,,,,,,,,,,,,,,,,,,,,,space,1.43337486906,2017_Oct_24_1551,59.977204118,FEMA4ImagesEEG,001,102198,
AFNE01.JPG,AFNE01.JPG,AFNE01.JPG,AFNE01.JPG,AFNE01.JPG,AFNE01.JPG,,,,,,,,,,,,,0,0,0,3,,,,,,,,,,,AMSA04.jpg,AMNE05.jpg,AMSA15.jpg,AMNE16.jpg,AMSA04.jpg,MS,2,num_8,32,num_2,1.53369159938,,,2017_Oct_24_1551,59.977204118,FEMA4ImagesEEG,001,102198,
AFNE01.JPG,AFNE01.JPG,AFNE01.JPG,AFNE01.JPG,AFNE01.JPG,AFNE01.JPG,,,,,,,,,,,,,0,1,1,6,,,,,,,,,,,AMSA01.jpg,AMNE05.jpg,AMNE10.jpg,AMSA15.jpg,AMNE10.jpg,MN,1,num_2,32,num_6,1.75002846564,,,2017_Oct_24_1551,59.977204118,FEMA4ImagesEEG,001,102198,
AFNE01.JPG,AFNE01.JPG,AFNE01.JPG,AFNE01.JPG,AFNE01.JPG,AFNE01.JPG,,,,,,,,,,,,,0,2,2,2,,,,,,,,,,,AMSA02.jpg,AMNE10.jpg,AMSA03.jpg,AMNE07.jpg,AMSA02.jpg,MS,2,num_8,32,num_2,1.01674388477,,,2017_Oct_24_1551,59.977204118,FEMA4ImagesEEG,001,102198,
AFNE01.JPG,AFNE01.JPG,AFNE01.JPG,AFNE01.JPG,AFNE01.JPG,AFNE01.JPG,,,,,,,,,,,,,0,3,3,7,,,,,,,,,,,AMNE11.jpg,AMNE03.jpg,AMSA15.jpg,AMSA07.jpg,AMNE03.jpg,MN,1,num_6,32,num_8,0.799968567444,,,2017_Oct_24_1551,59.977204118,FEMA4ImagesEEG,001,102198,
AFNE01.JPG,AFNE01.JPG,AFNE01.JPG,AFNE01.JPG,AFNE01.JPG,AFNE01.JPG,,,,,,,,,,,,,0,4,4,1,,,,,,,,,,,AMSA05.jpg,AMNE20.jpg,AMNE11.jpg,AMSA11.jpg,AMNE11.jpg,MN,1,num_2,16,num_2,1.13338882127,,,2017_Oct_24_1551,59.977204118,FEMA4ImagesEEG,001,102198,
AFNE01.JPG,AFNE01.JPG,AFNE01.JPG,AFNE01.JPG,AFNE01.JPG,AFNE01.JPG,,,,,,,,,,,,,0,5,5,9,,,,,,,,,,,AMSA03.jpg,AMNE10.jpg,AMNE13.jpg,AMSA05.jpg,AMSA03.jpg,MS,2,num_8,16,num_8,0.48348945321,,,2017_Oct_24_1551,59.977204118,FEMA4ImagesEEG,001,102198,
AFNE01.JPG,AFNE01.JPG,AFNE01.JPG,AFNE01.JPG,AFNE01.JPG,AFNE01.JPG,,,,,,,,,,,,,0,6,6,8,,,,,,,,,,,AMNE13.jpg,AMSA05.jpg,AMSA01.jpg,AMNE09.jpg,AMNE09.jpg,MN,1,num_4,16,num_4,0.900265411823,,,2017_Oct_24_1551,59.977204118,FEMA4ImagesEEG,001,102198,
AFNE01.JPG,AFNE01.JPG,AFNE01.JPG,AFNE01.JPG,AFNE01.JPG,AFNE01.JPG,,,,,,,,,,,,,0,7,7,0,,,,,,,,,,,AMSA01.jpg,AMNE19.jpg,AMNE12.jpg,AMSA06.jpg,AMNE12.jpg,MN,1,num_2,32,num_6,0.58334271505,,,2017_Oct_24_1551,59.977204118,FEMA4ImagesEEG,001,102198,
AFNE01.JPG,AFNE01.JPG,AFNE01.JPG,AFNE01.JPG,AFNE01.JPG,AFNE01.JPG,,,,,,,,,,,,,0,8,8,4,,,,,,,,,,,AMSA18.jpg,AMNE06.jpg,AMSA15.jpg,AMNE04.jpg,AMSA18.jpg,MS,2,num_8,16,num_8,0.416802580003,,,2017_Oct_24_1551,59.977204118,FEMA4ImagesEEG,001,102198,
AFNE01.JPG,AFNE01.JPG,AFNE01.JPG,AFNE01.JPG,AFNE01.JPG,AFNE01.JPG,,,,,,,,,,,,,0,9,9,5,,,,,,,,,,,AMNE20.jpg,AMNE09.jpg,AMSA12.jpg,AMSA16.jpg,AMSA16.jpg,MS,2,num_4,16,num_4,1.73334295547,,,2017_Oct_24_1551,59.977204118,FEMA4ImagesEEG,001,102198,
AFNE01.JPG,AFNE01.JPG,AFNE01.JPG,AFNE01.JPG,AFNE01.JPG,AFNE01.JPG,,,,,,,,,,,,,1,0,10,1,,,,,,,,,,,AMSA03.jpg,AMNE07.jpg,AMNE09.jpg,AMSA10.jpg,AMSA10.jpg,MS,2,num_4,32,num_6,0.400147540262,,,2017_Oct_24_1551,59.977204118,FEMA4ImagesEEG,001,102198,
AFNE01.JPG,AFNE01.JPG,AFNE01.JPG,AFNE01.JPG,AFNE01.JPG,AFNE01.JPG,,,,,,,,,,,,,1,1,11,5,,,,,,,,,,,AMSA01.jpg,AMNE06.jpg,AMNE17.jpg,AMSA11.jpg,AMSA11.jpg,MS,2,num_4,32,num_6,0.817008815473,,,2017_Oct_24_1551,59.977204118,FEMA4ImagesEEG,001,102198,
AFNE01.JPG,AFNE01.JPG,AFNE01.JPG,AFNE01.JPG,AFNE01.JPG,AFNE01.JPG,,,,,,,,,,,,,1,2,12,4,,,,,,,,,,,AMSA04.jpg,AMSA14.jpg,AMNE04.jpg,AMNE12.jpg,AMNE04.jpg,MN,1,num_2,16,num_2,1.10016630345,,,2017_Oct_24_1551,59.977204118,FEMA4ImagesEEG,001,102198,
AFNE01.JPG,AFNE01.JPG,AFNE01.JPG,AFNE01.JPG,AFNE01.JPG,AFNE01.JPG,,,,,,,,,,,,,1,3,13,3,,,,,,,,,,,AMNE10.jpg,AMNE08.jpg,AMSA18.jpg,AMSA19.jpg,AMSA19.jpg,MS,2,num_4,32,num_8,0.383467482636,,,2017_Oct_24_1551,59.977204118,FEMA4ImagesEEG,001,102198,
AFNE01.JPG,AFNE01.JPG,AFNE01.JPG,AFNE01.JPG,AFNE01.JPG,AFNE01.JPG,,,,,,,,,,,,,1,4,14,0,,,,,,,,,,,AMNE14.jpg,AMSA02.jpg,AMSA12.jpg,AMNE11.jpg,AMSA12.jpg,MS,2,num_2,32,num_4,0.650115867145,,,2017_Oct_24_1551,59.977204118,FEMA4ImagesEEG,001,102198,
AFNE01.JPG,AFNE01.JPG,AFNE01.JPG,AFNE01.JPG,AFNE01.JPG,AFNE01.JPG,,,,,,,,,,,,,1,5,15,7,,,,,,,,,,,AMNE10.jpg,AMNE19.jpg,AMSA15.jpg,AMSA20.jpg,AMNE10.jpg,MN,1,num_8,32,num_6,2.98327760492,,,2017_Oct_24_1551,59.977204118,FEMA4ImagesEEG,001,102198,
AFNE01.JPG,AFNE01.JPG,AFNE01.JPG,AFNE01.JPG,AFNE01.JPG,AFNE01.JPG,,,,,,,,,,,,,1,6,16,8,,,,,,,,,,,AMSA16.jpg,AMNE20.jpg,AMSA19.jpg,AMNE07.jpg,AMNE07.jpg,MN,1,num_4,32,num_6,1.23341816897,,,2017_Oct_24_1551,59.977204118,FEMA4ImagesEEG,001,102198,
AFNE01.JPG,AFNE01.JPG,AFNE01.JPG,AFNE01.JPG,AFNE01.JPG,AFNE01.JPG,,,,,,,,,,,,,1,7,17,6,,,,,,,,,,,AMSA18.jpg,AMSA04.jpg,AMNE05.jpg,AMNE11.jpg,AMSA18.jpg,MS,2,num_8,16,num_8,0.450185146881,,,2017_Oct_24_1551,59.977204118,FEMA4ImagesEEG,001,102198,
AFNE01.JPG,AFNE01.JPG,AFNE01.JPG,AFNE01.JPG,AFNE01.JPG,AFNE01.JPG,,,,,,,,,,,,,1,8,18,9,,,,,,,,,,,AMNE15.jpg,AMSA04.jpg,AMSA14.jpg,AMNE02.jpg,AMNE02.jpg,MN,1,num_4,32,num_6,0.984067906975,,,2017_Oct_24_1551,59.977204118,FEMA4ImagesEEG,001,102198,
AFNE01.JPG,AFNE01.JPG,AFNE01.JPG,AFNE01.JPG,AFNE01.JPG,AFNE01.JPG,,,,,,,,,,,,,1,9,19,2,,,,,,,,,,,AMSA18.jpg,AMNE12.jpg,AMNE13.jpg,AMSA19.jpg,AMNE13.jpg,MN,1,num_2,32,num_4,1.94986456784,,,2017_Oct_24_1551,59.977204118,FEMA4ImagesEEG,001,102198,
AFNE01.JPG,AFNE01.JPG,AFNE01.JPG,AFNE01.JPG,AFNE01.JPG,AFNE01.JPG,,,,,,,,,,,,,2,0,20,6,,,,,,,,,,,AMNE05.jpg,AMNE10.jpg,AMSA02.jpg,AMSA18.jpg,AMSA18.jpg,MS,2,num_4,16,num_4,1.66673851234,,,2017_Oct_24_1551,59.977204118,FEMA4ImagesEEG,001,102198,
AFNE01.JPG,AFNE01.JPG,AFNE01.JPG,AFNE01.JPG,AFNE01.JPG,AFNE01.JPG,,,,,,,,,,,,,2,1,21,9,,,,,,,,,,,AMSA12.jpg,AMSA17.jpg,AMNE02.jpg,AMNE16.jpg,AMNE16.jpg,MN,1,num_4,32,num_8,0.667077534017,,,2017_Oct_24_1551,59.977204118,FEMA4ImagesEEG,001,102198,
AFNE01.JPG,AFNE01.JPG,AFNE01.JPG,AFNE01.JPG,AFNE01.JPG,AFNE01.JPG,,,,,,,,,,,,,2,2,22,1,,,,,,,,,,,AMSA18.jpg,AMSA12.jpg,AMNE15.jpg,AMNE09.jpg,AMNE15.jpg,MN,1,num_2,16,num_2,2.91663627652,,,2017_Oct_24_1551,59.977204118,FEMA4ImagesEEG,001,102198,
AFNE01.JPG,AFNE01.JPG,AFNE01.JPG,AFNE01.JPG,AFNE01.JPG,AFNE01.JPG,,,,,,,,,,,,,2,3,23,2,,,,,,,,,,,AMSA03.jpg,AMSA11.jpg,AMNE14.jpg,AMNE08.jpg,AMNE14.jpg,MN,1,num_2,32,num_4,1.63337679347,,,2017_Oct_24_1551,59.977204118,FEMA4ImagesEEG,001,102198,
AFNE01.JPG,AFNE01.JPG,AFNE01.JPG,AFNE01.JPG,AFNE01.JPG,AFNE01.JPG,,,,,,,,,,,,,2,4,24,4,,,,,,,,,,,AMNE01.jpg,AMNE11.jpg,AMSA09.jpg,AMSA08.jpg,AMSA09.jpg,MS,2,num_2,32,num_8,1.01675126178,,,2017_Oct_24_1551,59.977204118,FEMA4ImagesEEG,001,102198,
AFNE01.JPG,AFNE01.JPG,AFNE01.JPG,AFNE01.JPG,AFNE01.JPG,AFNE01.JPG,,,,,,,,,,,,,2,5,25,0,,,,,,,,,,,AMSA13.jpg,AMNE10.jpg,AMSA01.jpg,AMNE15.jpg,AMSA01.jpg,MS,2,num_2,16,num_2,1.91667636903,,,2017_Oct_24_1551,59.977204118,FEMA4ImagesEEG,001,102198,
AFNE01.JPG,AFNE01.JPG,AFNE01.JPG,AFNE01.JPG,AFNE01.JPG,AFNE01.JPG,,,,,,,,,,,,,2,6,26,3,,,,,,,,,,,AMNE18.jpg,AMSA05.jpg,AMNE13.jpg,AMSA07.jpg,AMNE18.jpg,MN,1,num_8,32,num_4,0.950135592604,,,2017_Oct_24_1551,59.977204118,FEMA4ImagesEEG,001,102198,
AFNE01.JPG,AFNE01.JPG,AFNE01.JPG,AFNE01.JPG,AFNE01.JPG,AFNE01.JPG,,,,,,,,,,,,,2,7,27,7,,,,,,,,,,,AMSA10.jpg,AMNE06.jpg,AMSA02.jpg,AMNE16.jpg,AMSA10.jpg,MS,2,num_8,32,num_4,3.35004257818,,,2017_Oct_24_1551,59.977204118,FEMA4ImagesEEG,001,102198,
AFNE01.JPG,AFNE01.JPG,AFNE01.JPG,AFNE01.JPG,AFNE01.JPG,AFNE01.JPG,,,,,,,,,,,,,2,8,28,5,,,,,,,,,,,AMSA08.jpg,AMNE02.jpg,AMNE20.jpg,AMSA14.jpg,AMSA08.jpg,MS,2,num_8,32,num_4,1.08342338097,,,2017_Oct_24_1551,59.977204118,FEMA4ImagesEEG,001,102198,
AFNE01.JPG,AFNE01.JPG,AFNE01.JPG,AFNE01.JPG,AFNE01.JPG,AFNE01.JPG,,,,,,,,,,,,,2,9,29,8,,,,,,,,,,,AMNE17.jpg,AMNE09.jpg,AMSA12.jpg,AMSA20.jpg,AMSA12.jpg,MS,2,num_2,32,num_8,1.16662416863,,,2017_Oct_24_1551,59.977204118,FEMA4ImagesEEG,001,102198,
AFNE01.JPG,AFNE01.JPG,AFNE01.JPG,AFNE01.JPG,AFNE01.JPG,AFNE01.JPG,,,,,,,,,,,,,3,0,30,8,,,,,,,,,,,AMSA12.jpg,AMNE12.jpg,AMSA03.jpg,AMNE18.jpg,AMSA03.jpg,MS,2,num_2,32,num_8,0.566748936311,,,2017_Oct_24_1551,59.977204118,FEMA4ImagesEEG,001,102198,
AFNE01.JPG,AFNE01.JPG,AFNE01.JPG,AFNE01.JPG,AFNE01.JPG,AFNE01.JPG,,,,,,,,,,,,,3,1,31,1,,,,,,,,,,,AMSA11.jpg,AMNE17.jpg,AMNE03.jpg,AMSA03.jpg,AMSA03.jpg,MS,2,num_4,16,num_4,0.66675102117,,,2017_Oct_24_1551,59.977204118,FEMA4ImagesEEG,001,102198,
AFNE01.JPG,AFNE01.JPG,AFNE01.JPG,AFNE01.JPG,AFNE01.JPG,AFNE01.JPG,,,,,,,,,,,,,3,2,32,5,,,,,,,,,,,AMSA07.jpg,AMNE05.jpg,AMSA10.jpg,AMNE20.jpg,AMNE05.jpg,MN,1,num_6,32,num_2,1.71669304755,,,2017_Oct_24_1551,59.977204118,FEMA4ImagesEEG,001,102198,
AFNE01.JPG,AFNE01.JPG,AFNE01.JPG,AFNE01.JPG,AFNE01.JPG,AFNE01.JPG,,,,,,,,,,,,,3,3,33,9,,,,,,,,,,,AMNE20.jpg,AMSA03.jpg,AMNE14.jpg,AMSA01.jpg,AMNE20.jpg,MN,1,num_8,32,num_2,1.99999262299,,,2017_Oct_24_1551,59.977204118,FEMA4ImagesEEG,001,102198,
AFNE01.JPG,AFNE01.JPG,AFNE01.JPG,AFNE01.JPG,AFNE01.JPG,AFNE01.JPG,,,,,,,,,,,,,3,4,34,0,,,,,,,,,,,AMNE20.jpg,AMNE01.jpg,AMSA13.jpg,AMSA20.jpg,AMNE01.jpg,MN,1,num_6,32,num_2,1.4167185463,,,2017_Oct_24_1551,59.977204118,FEMA4ImagesEEG,001,102198,
AFNE01.JPG,AFNE01.JPG,AFNE01.JPG,AFNE01.JPG,AFNE01.JPG,AFNE01.JPG,,,,,,,,,,,,,3,5,35,4,,,,,,,,,,,AMSA17.jpg,AMSA02.jpg,AMNE17.jpg,AMNE04.jpg,AMNE04.jpg,MN,1,num_4,16,num_4,1.15012853628,,,2017_Oct_24_1551,59.977204118,FEMA4ImagesEEG,001,102198,
AFNE01.JPG,AFNE01.JPG,AFNE01.JPG,AFNE01.JPG,AFNE01.JPG,AFNE01.JPG,,,,,,,,,,,,,3,6,36,7,,,,,,,,,,,AMSA15.jpg,AMNE16.jpg,AMNE01.jpg,AMSA19.jpg,AMSA15.jpg,MS,2,num_8,16,num_8,1.06681067869,,,2017_Oct_24_1551,59.977204118,FEMA4ImagesEEG,001,102198,
AFNE01.JPG,AFNE01.JPG,AFNE01.JPG,AFNE01.JPG,AFNE01.JPG,AFNE01.JPG,,,,,,,,,,,,,3,7,37,2,,,,,,,,,,,AMNE02.jpg,AMNE09.jpg,AMSA19.jpg,AMSA14.jpg,AMNE02.jpg,MN,1,num_8,16,num_8,0.733449120307,,,2017_Oct_24_1551,59.977204118,FEMA4ImagesEEG,001,102198,
AFNE01.JPG,AFNE01.JPG,AFNE01.JPG,AFNE01.JPG,AFNE01.JPG,AFNE01.JPG,,,,,,,,,,,,,3,8,38,6,,,,,,,,,,,AMNE06.jpg,AMSA07.jpg,AMSA04.jpg,AMNE04.jpg,AMSA04.jpg,MS,2,num_2,16,num_2,0.616794240894,,,2017_Oct_24_1551,59.977204118,FEMA4ImagesEEG,001,102198,
AFNE01.JPG,AFNE01.JPG,AFNE01.JPG,AFNE01.JPG,AFNE01.JPG,AFNE01.JPG,,,,,,,,,,,,,3,9,39,3,,,,,,,,,,,AMSA09.jpg,AMNE18.jpg,AMNE07.jpg,AMSA20.jpg,AMNE07.jpg,MN,1,num_2,32,num_6,1.61635258247,,,2017_Oct_24_1551,59.977204118,FEMA4ImagesEEG,001,102198,
AFNE01.JPG,AFNE01.JPG,AFNE01.JPG,AFNE01.JPG,AFNE01.JPG,AFNE01.JPG,,,,,,,,,,,,,4,0,40,5,,,,,,,,,,,AMSA04.jpg,AMNE09.jpg,AMSA01.jpg,AMNE13.jpg,AMNE09.jpg,MN,1,num_6,32,num_4,0.666802660213,,,2017_Oct_24_1551,59.977204118,FEMA4ImagesEEG,001,102198,
AFNE01.JPG,AFNE01.JPG,AFNE01.JPG,AFNE01.JPG,AFNE01.JPG,AFNE01.JPG,,,,,,,,,,,,,4,1,41,1,,,,,,,,,,,AMSA03.jpg,AMNE20.jpg,AMSA11.jpg,AMNE08.jpg,AMNE20.jpg,MN,1,num_6,32,num_2,0.783456256846,,,2017_Oct_24_1551,59.977204118,FEMA4ImagesEEG,001,102198,
AFNE01.JPG,AFNE01.JPG,AFNE01.JPG,AFNE01.JPG,AFNE01.JPG,AFNE01.JPG,,,,,,,,,,,,,4,2,42,6,,,,,,,,,,,AMSA14.jpg,AMNE02.jpg,AMSA06.jpg,AMNE07.jpg,AMNE07.jpg,MN,1,num_4,16,num_4,0.500118833967,,,2017_Oct_24_1551,59.977204118,FEMA4ImagesEEG,001,102198,
AFNE01.JPG,AFNE01.JPG,AFNE01.JPG,AFNE01.JPG,AFNE01.JPG,AFNE01.JPG,,,,,,,,,,,,,4,3,43,7,,,,,,,,,,,AMSA09.jpg,AMNE08.jpg,AMNE05.jpg,AMSA15.jpg,AMSA15.jpg,MS,2,num_4,16,num_4,1.55005733226,,,2017_Oct_24_1551,59.977204118,FEMA4ImagesEEG,001,102198,
AFNE01.JPG,AFNE01.JPG,AFNE01.JPG,AFNE01.JPG,AFNE01.JPG,AFNE01.JPG,,,,,,,,,,,,,4,4,44,0,,,,,,,,,,,AMNE08.jpg,AMSA13.jpg,AMSA07.jpg,AMNE19.jpg,AMNE19.jpg,MN,1,num_4,32,num_8,0.63351856044,,,2017_Oct_24_1551,59.977204118,FEMA4ImagesEEG,001,102198,
AFNE01.JPG,AFNE01.JPG,AFNE01.JPG,AFNE01.JPG,AFNE01.JPG,AFNE01.JPG,,,,,,,,,,,,,4,5,45,3,,,,,,,,,,,AMSA02.jpg,AMSA16.jpg,AMNE18.jpg,AMNE11.jpg,AMSA16.jpg,MS,2,num_6,16,num_6,1.18344759673,,,2017_Oct_24_1551,59.977204118,FEMA4ImagesEEG,001,102198,
AFNE01.JPG,AFNE01.JPG,AFNE01.JPG,AFNE01.JPG,AFNE01.JPG,AFNE01.JPG,,,,,,,,,,,,,4,6,46,4,,,,,,,,,,,AMSA07.jpg,AMNE03.jpg,AMNE17.jpg,AMSA18.jpg,AMNE03.jpg,MN,1,num_6,32,num_2,1.1501493844,,,2017_Oct_24_1551,59.977204118,FEMA4ImagesEEG,001,102198,
AFNE01.JPG,AFNE01.JPG,AFNE01.JPG,AFNE01.JPG,AFNE01.JPG,AFNE01.JPG,,,,,,,,,,,,,4,7,47,9,,,,,,,,,,,AMSA18.jpg,AMSA16.jpg,AMNE11.jpg,AMNE14.jpg,AMNE11.jpg,MN,1,num_2,32,num_8,3.61654983729,,,2017_Oct_24_1551,59.977204118,FEMA4ImagesEEG,001,102198,
AFNE01.JPG,AFNE01.JPG,AFNE01.JPG,AFNE01.JPG,AFNE01.JPG,AFNE01.JPG,,,,,,,,,,,,,4,8,48,8,,,,,,,,,,,AMSA02.jpg,AMSA15.jpg,AMNE08.jpg,AMNE13.jpg,AMSA02.jpg,MS,2,num_8,32,num_4,1.03345794056,,,2017_Oct_24_1551,59.977204118,FEMA4ImagesEEG,001,102198,
AFNE01.JPG,AFNE01.JPG,AFNE01.JPG,AFNE01.JPG,AFNE01.JPG,AFNE01.JPG,,,,,,,,,,,,,4,9,49,2,,,,,,,,,,,AMSA06.jpg,AMNE12.jpg,AMSA12.jpg,AMNE10.jpg,AMSA06.jpg,MS,2,num_8,16,num_8,1.36677074665,,,2017_Oct_24_1551,59.977204118,FEMA4ImagesEEG,001,102198,
AFNE01.JPG,AFNE01.JPG,AFNE01.JPG,AFNE01.JPG,AFNE01.JPG,AFNE01.JPG,,,,,,,,,,,,,5,0,50,5,,,,,,,,,,,AMSA13.jpg,AMNE08.jpg,AMSA20.jpg,AMNE03.jpg,AMNE03.jpg,MN,1,num_4,32,num_6,0.750136234099,,,2017_Oct_24_1551,59.977204118,FEMA4ImagesEEG,001,102198,
AFNE01.JPG,AFNE01.JPG,AFNE01.JPG,AFNE01.JPG,AFNE01.JPG,AFNE01.JPG,,,,,,,,,,,,,5,1,51,9,,,,,,,,,,,AMSA15.jpg,AMNE08.jpg,AMNE15.jpg,AMSA03.jpg,AMSA03.jpg,MS,2,num_4,16,num_4,1.61669994332,,,2017_Oct_24_1551,59.977204118,FEMA4ImagesEEG,001,102198,
AFNE01.JPG,AFNE01.JPG,AFNE01.JPG,AFNE01.JPG,AFNE01.JPG,AFNE01.JPG,,,,,,,,,,,,,5,2,52,2,,,,,,,,,,,AMNE15.jpg,AMNE07.jpg,AMSA10.jpg,AMSA20.jpg,AMNE15.jpg,MN,1,num_8,32,num_4,1.75004001218,,,2017_Oct_24_1551,59.977204118,FEMA4ImagesEEG,001,102198,
AFNE01.JPG,AFNE01.JPG,AFNE01.JPG,AFNE01.JPG,AFNE01.JPG,AFNE01.JPG,,,,,,,,,,,,,5,3,53,6,,,,,,,,,,,AMSA19.jpg,AMSA11.jpg,AMNE16.jpg,AMNE13.jpg,AMSA19.jpg,MS,2,num_8,16,num_8,2.03330206126,,,2017_Oct_24_1551,59.977204118,FEMA4ImagesEEG,001,102198,
AFNE01.JPG,AFNE01.JPG,AFNE01.JPG,AFNE01.JPG,AFNE01.JPG,AFNE01.JPG,,,,,,,,,,,,,5,4,54,8,,,,,,,,,,,AMNE02.jpg,AMNE09.jpg,AMSA20.jpg,AMSA09.jpg,AMNE02.jpg,MN,1,num_8,32,num_2,2.18333822466,,,2017_Oct_24_1551,59.977204118,FEMA4ImagesEEG,001,102198,
AFNE01.JPG,AFNE01.JPG,AFNE01.JPG,AFNE01.JPG,AFNE01.JPG,AFNE01.JPG,,,,,,,,,,,,,5,5,55,0,,,,,,,,,,,AMSA14.jpg,AMNE03.jpg,AMSA11.jpg,AMNE02.jpg,AMSA14.jpg,MS,2,num_8,32,num_4,1.35005861521,,,2017_Oct_24_1551,59.977204118,FEMA4ImagesEEG,001,102198,
AFNE01.JPG,AFNE01.JPG,AFNE01.JPG,AFNE01.JPG,AFNE01.JPG,AFNE01.JPG,,,,,,,,,,,,,5,6,56,4,,,,,,,,,,,AMSA13.jpg,AMNE01.jpg,AMNE09.jpg,AMSA14.jpg,AMSA13.jpg,MS,2,num_8,32,num_6,1.61669769813,,,2017_Oct_24_1551,59.977204118,FEMA4ImagesEEG,001,102198,
AFNE01.JPG,AFNE01.JPG,AFNE01.JPG,AFNE01.JPG,AFNE01.JPG,AFNE01.JPG,,,,,,,,,,,,,5,7,57,7,,,,,,,,,,,AMSA06.jpg,AMNE19.jpg,AMNE11.jpg,AMSA15.jpg,AMSA06.jpg,MS,2,num_8,16,num_8,1.36673995561,,,2017_Oct_24_1551,59.977204118,FEMA4ImagesEEG,001,102198,
AFNE01.JPG,AFNE01.JPG,AFNE01.JPG,AFNE01.JPG,AFNE01.JPG,AFNE01.JPG,,,,,,,,,,,,,5,8,58,1,,,,,,,,,,,AMSA05.jpg,AMNE08.jpg,AMSA15.jpg,AMNE09.jpg,AMNE08.jpg,MN,1,num_6,16,num_6,0.683458662243,,,2017_Oct_24_1551,59.977204118,FEMA4ImagesEEG,001,102198,
AFNE01.JPG,AFNE01.JPG,AFNE01.JPG,AFNE01.JPG,AFNE01.JPG,AFNE01.JPG,,,,,,,,,,,,,5,9,59,3,,,,,,,,,,,AMSA05.jpg,AMNE04.jpg,AMSA16.jpg,AMNE16.jpg,AMSA05.jpg,MS,2,num_8,32,num_2,4.66617914266,,,2017_Oct_24_1551,59.977204118,FEMA4ImagesEEG,001,102198,
,,,,,,,,,,,,,,,,,,,,,,,,,,,,,,,,,,,,,,,,,,,space,2.1333638035,2017_Oct_24_1551,59.977204118,FEMA4ImagesEEG,001,102198,
AFNE01.JPG,AFNE01.JPG,AFNE01.JPG,AFNE01.JPG,AFNE01.JPG,AFNE01.JPG,,,,,,,,,,,,,,,,,0,0,0,8,,,,,,,AFSA11.jpg,AFNE02.jpg,AFNE07.jpg,AFSA08.jpg,AFNE02.jpg,FN,3,num_6,32,num_4,1.00011546619,,,2017_Oct_24_1551,59.977204118,FEMA4ImagesEEG,001,102198,
AFNE01.JPG,AFNE01.JPG,AFNE01.JPG,AFNE01.JPG,AFNE01.JPG,AFNE01.JPG,,,,,,,,,,,,,,,,,0,1,1,1,,,,,,,AFSA18.jpg,AFNE17.jpg,AFNE13.jpg,AFSA14.jpg,AFNE17.jpg,FN,3,num_6,32,num_8,1.20008146786,,,2017_Oct_24_1551,59.977204118,FEMA4ImagesEEG,001,102198,
AFNE01.JPG,AFNE01.JPG,AFNE01.JPG,AFNE01.JPG,AFNE01.JPG,AFNE01.JPG,,,,,,,,,,,,,,,,,0,2,2,7,,,,,,,AFNE15.jpg,AFSA15.jpg,AFNE08.jpg,AFSA08.jpg,AFSA08.jpg,FS,4,num_4,32,num_2,1.11673570576,,,2017_Oct_24_1551,59.977204118,FEMA4ImagesEEG,001,102198,
AFNE01.JPG,AFNE01.JPG,AFNE01.JPG,AFNE01.JPG,AFNE01.JPG,AFNE01.JPG,,,,,,,,,,,,,,,,,0,3,3,6,,,,,,,AFNE04.jpg,AFSA09.jpg,AFNE09.jpg,AFSA12.jpg,AFNE04.jpg,FN,3,num_8,16,num_8,0.566732257837,,,2017_Oct_24_1551,59.977204118,FEMA4ImagesEEG,001,102198,
AFNE01.JPG,AFNE01.JPG,AFNE01.JPG,AFNE01.JPG,AFNE01.JPG,AFNE01.JPG,,,,,,,,,,,,,,,,,0,4,4,5,,,,,,,AFSA13.jpg,AFNE01.jpg,AFSA12.jpg,AFNE17.jpg,AFSA12.jpg,FS,4,num_2,16,num_2,1.25018065656,,,2017_Oct_24_1551,59.977204118,FEMA4ImagesEEG,001,102198,
AFNE01.JPG,AFNE01.JPG,AFNE01.JPG,AFNE01.JPG,AFNE01.JPG,AFNE01.JPG,,,,,,,,,,,,,,,,,0,5,5,3,,,,,,,AFSA06.jpg,AFNE17.jpg,AFSA13.jpg,AFNE10.jpg,AFSA06.jpg,FS,4,num_8,32,num_4,0.733455535024,,,2017_Oct_24_1551,59.977204118,FEMA4ImagesEEG,001,102198,
AFNE01.JPG,AFNE01.JPG,AFNE01.JPG,AFNE01.JPG,AFNE01.JPG,AFNE01.JPG,,,,,,,,,,,,,,,,,0,6,6,9,,,,,,,AFNE13.jpg,AFSA17.jpg,AFSA18.jpg,AFNE15.jpg,AFSA18.jpg,FS,4,num_2,32,num_6,0.616786222323,,,2017_Oct_24_1551,59.977204118,FEMA4ImagesEEG,001,102198,
AFNE01.JPG,AFNE01.JPG,AFNE01.JPG,AFNE01.JPG,AFNE01.JPG,AFNE01.JPG,,,,,,,,,,,,,,,,,0,7,7,0,,,,,,,AFSA06.jpg,AFNE12.jpg,AFSA05.jpg,AFNE04.jpg,AFNE04.jpg,FN,3,num_4,16,num_4,0.516829041066,,,2017_Oct_24_1551,59.977204118,FEMA4ImagesEEG,001,102198,
AFNE01.JPG,AFNE01.JPG,AFNE01.JPG,AFNE01.JPG,AFNE01.JPG,AFNE01.JPG,,,,,,,,,,,,,,,,,0,8,8,4,,,,,,,AFSA18.jpg,AFSA03.jpg,AFNE17.jpg,AFNE19.jpg,AFSA18.jpg,FS,4,num_8,16,num_8,1.91667508602,,,2017_Oct_24_1551,59.977204118,FEMA4ImagesEEG,001,102198,
AFNE01.JPG,AFNE01.JPG,AFNE01.JPG,AFNE01.JPG,AFNE01.JPG,AFNE01.JPG,,,,,,,,,,,,,,,,,0,9,9,2,,,,,,,AFSA16.jpg,AFNE20.jpg,AFSA17.jpg,AFNE12.jpg,AFSA17.jpg,FS,4,num_2,32,num_8,0.716748856124,,,2017_Oct_24_1551,59.977204118,FEMA4ImagesEEG,001,102198,
AFNE01.JPG,AFNE01.JPG,AFNE01.JPG,AFNE01.JPG,AFNE01.JPG,AFNE01.JPG,,,,,,,,,,,,,,,,,1,0,10,0,,,,,,,AFNE15.jpg,AFSA11.jpg,AFNE13.jpg,AFSA17.jpg,AFSA17.jpg,FS,4,num_4,16,num_4,0.483471171116,,,2017_Oct_24_1551,59.977204118,FEMA4ImagesEEG,001,102198,
AFNE01.JPG,AFNE01.JPG,AFNE01.JPG,AFNE01.JPG,AFNE01.JPG,AFNE01.JPG,,,,,,,,,,,,,,,,,1,1,11,6,,,,,,,AFNE17.jpg,AFSA13.jpg,AFSA19.jpg,AFNE12.jpg,AFSA19.jpg,FS,4,num_2,16,num_2,4.69982503669,,,2017_Oct_24_1551,59.977204118,FEMA4ImagesEEG,001,102198,
AFNE01.JPG,AFNE01.JPG,AFNE01.JPG,AFNE01.JPG,AFNE01.JPG,AFNE01.JPG,,,,,,,,,,,,,,,,,1,2,12,4,,,,,,,AFNE06.jpg,AFSA13.jpg,AFSA02.jpg,AFNE12.jpg,AFNE12.jpg,FN,3,num_4,32,num_6,1.26674300269,,,2017_Oct_24_1551,59.977204118,FEMA4ImagesEEG,001,102198,
AFNE01.JPG,AFNE01.JPG,AFNE01.JPG,AFNE01.JPG,AFNE01.JPG,AFNE01.JPG,,,,,,,,,,,,,,,,,1,3,13,9,,,,,,,AFSA05.jpg,AFNE13.jpg,AFNE14.jpg,AFSA08.jpg,AFNE14.jpg,FN,3,num_2,32,num_6,0.983426427934,,,2017_Oct_24_1551,59.977204118,FEMA4ImagesEEG,001,102198,
AFNE01.JPG,AFNE01.JPG,AFNE01.JPG,AFNE01.JPG,AFNE01.JPG,AFNE01.JPG,,,,,,,,,,,,,,,,,1,4,14,1,,,,,,,AFSA09.jpg,AFNE11.jpg,AFSA15.jpg,AFNE14.jpg,AFSA09.jpg,FS,4,num_8,16,num_8,0.766788708046,,,2017_Oct_24_1551,59.977204118,FEMA4ImagesEEG,001,102198,
AFNE01.JPG,AFNE01.JPG,AFNE01.JPG,AFNE01.JPG,AFNE01.JPG,AFNE01.JPG,,,,,,,,,,,,,,,,,1,5,15,7,,,,,,,AFNE19.jpg,AFNE10.jpg,AFSA07.jpg,AFSA02.jpg,AFSA02.jpg,FS,4,num_4,48,None,,,,2017_Oct_24_1551,59.977204118,FEMA4ImagesEEG,001,102198,
AFNE01.JPG,AFNE01.JPG,AFNE01.JPG,AFNE01.JPG,AFNE01.JPG,AFNE01.JPG,,,,,,,,,,,,,,,,,1,6,16,3,,,,,,,AFSA19.jpg,AFNE10.jpg,AFSA02.jpg,AFNE09.jpg,AFSA02.jpg,FS,4,num_2,32,num_4,1.01672977209,,,2017_Oct_24_1551,59.977204118,FEMA4ImagesEEG,001,102198,
AFNE01.JPG,AFNE01.JPG,AFNE01.JPG,AFNE01.JPG,AFNE01.JPG,AFNE01.JPG,,,,,,,,,,,,,,,,,1,7,17,2,,,,,,,AFNE02.jpg,AFSA17.jpg,AFSA16.jpg,AFNE15.jpg,AFNE15.jpg,FN,3,num_4,48,None,,,,2017_Oct_24_1551,59.977204118,FEMA4ImagesEEG,001,102198,
AFNE01.JPG,AFNE01.JPG,AFNE01.JPG,AFNE01.JPG,AFNE01.JPG,AFNE01.JPG,,,,,,,,,,,,,,,,,1,8,18,5,,,,,,,AFSA12.jpg,AFNE20.jpg,AFSA19.jpg,AFNE19.jpg,AFNE20.jpg,FN,3,num_6,32,num_4,1.56673674821,,,2017_Oct_24_1551,59.977204118,FEMA4ImagesEEG,001,102198,
AFNE01.JPG,AFNE01.JPG,AFNE01.JPG,AFNE01.JPG,AFNE01.JPG,AFNE01.JPG,,,,,,,,,,,,,,,,,1,9,19,8,,,,,,,AFNE04.jpg,AFSA16.jpg,AFSA08.jpg,AFNE09.jpg,AFSA08.jpg,FS,4,num_2,32,num_6,3.54989471729,,,2017_Oct_24_1551,59.977204118,FEMA4ImagesEEG,001,102198,
AFNE01.JPG,AFNE01.JPG,AFNE01.JPG,AFNE01.JPG,AFNE01.JPG,AFNE01.JPG,,,,,,,,,,,,,,,,,2,0,20,6,,,,,,,AFNE13.jpg,AFSA03.jpg,AFNE07.jpg,AFSA13.jpg,AFNE13.jpg,FN,3,num_8,32,num_2,0.733505570446,,,2017_Oct_24_1551,59.977204118,FEMA4ImagesEEG,001,102198,
AFNE01.JPG,AFNE01.JPG,AFNE01.JPG,AFNE01.JPG,AFNE01.JPG,AFNE01.JPG,,,,,,,,,,,,,,,,,2,1,21,7,,,,,,,AFNE18.jpg,AFSA13.jpg,AFNE02.jpg,AFSA08.jpg,AFNE18.jpg,FN,3,num_8,32,num_4,0.916741799796,,,2017_Oct_24_1551,59.977204118,FEMA4ImagesEEG,001,102198,
AFNE01.JPG,AFNE01.JPG,AFNE01.JPG,AFNE01.JPG,AFNE01.JPG,AFNE01.JPG,,,,,,,,,,,,,,,,,2,2,22,2,,,,,,,AFNE01.jpg,AFSA12.jpg,AFNE09.jpg,AFSA20.jpg,AFSA20.jpg,FS,4,num_4,32,num_6,2.0498935947,,,2017_Oct_24_1551,59.977204118,FEMA4ImagesEEG,001,102198,
AFNE01.JPG,AFNE01.JPG,AFNE01.JPG,AFNE01.JPG,AFNE01.JPG,AFNE01.JPG,,,,,,,,,,,,,,,,,2,3,23,9,,,,,,,AFNE06.jpg,AFSA09.jpg,AFNE18.jpg,AFSA14.jpg,AFSA09.jpg,FS,4,num_6,16,num_6,1.1334391773,,,2017_Oct_24_1551,59.977204118,FEMA4ImagesEEG,001,102198,
AFNE01.JPG,AFNE01.JPG,AFNE01.JPG,AFNE01.JPG,AFNE01.JPG,AFNE01.JPG,,,,,,,,,,,,,,,,,2,4,24,3,,,,,,,AFNE14.jpg,AFSA03.jpg,AFNE06.jpg,AFSA05.jpg,AFNE14.jpg,FN,3,num_8,16,num_8,0.883408947615,,,2017_Oct_24_1551,59.977204118,FEMA4ImagesEEG,001,102198,
AFNE01.JPG,AFNE01.JPG,AFNE01.JPG,AFNE01.JPG,AFNE01.JPG,AFNE01.JPG,,,,,,,,,,,,,,,,,2,5,25,1,,,,,,,AFSA03.jpg,AFNE18.jpg,AFSA04.jpg,AFNE08.jpg,AFSA03.jpg,FS,4,num_8,32,num_4,0.650178732118,,,2017_Oct_24_1551,59.977204118,FEMA4ImagesEEG,001,102198,
AFNE01.JPG,AFNE01.JPG,AFNE01.JPG,AFNE01.JPG,AFNE01.JPG,AFNE01.JPG,,,,,,,,,,,,,,,,,2,6,26,8,,,,,,,AFSA19.jpg,AFNE01.jpg,AFSA03.jpg,AFNE09.jpg,AFNE09.jpg,FN,3,num_4,32,num_6,1.00019629253,,,2017_Oct_24_1551,59.977204118,FEMA4ImagesEEG,001,102198,
AFNE01.JPG,AFNE01.JPG,AFNE01.JPG,AFNE01.JPG,AFNE01.JPG,AFNE01.JPG,,,,,,,,,,,,,,,,,2,7,27,0,,,,,,,AFSA18.jpg,AFNE12.jpg,AFNE11.jpg,AFSA05.jpg,AFSA18.jpg,FS,4,num_8,32,num_4,0.766817895346,,,2017_Oct_24_1551,59.977204118,FEMA4ImagesEEG,001,102198,
AFNE01.JPG,AFNE01.JPG,AFNE01.JPG,AFNE01.JPG,AFNE01.JPG,AFNE01.JPG,,,,,,,,,,,,,,,,,2,8,28,5,,,,,,,AFNE20.jpg,AFSA18.jpg,AFSA08.jpg,AFNE10.jpg,AFNE10.jpg,FN,3,num_4,32,num_2,1.00012348476,,,2017_Oct_24_1551,59.977204118,FEMA4ImagesEEG,001,102198,
AFNE01.JPG,AFNE01.JPG,AFNE01.JPG,AFNE01.JPG,AFNE01.JPG,AFNE01.JPG,,,,,,,,,,,,,,,,,2,9,29,4,,,,,,,AFNE06.jpg,AFNE09.jpg,AFSA01.jpg,AFSA19.jpg,AFNE09.jpg,FN,3,num_6,16,num_6,0.91677772277,,,2017_Oct_24_1551,59.977204118,FEMA4ImagesEEG,001,102198,
AFNE01.JPG,AFNE01.JPG,AFNE01.JPG,AFNE01.JPG,AFNE01.JPG,AFNE01.JPG,,,,,,,,,,,,,,,,,3,0,30,4,,,,,,,AFSA17.jpg,AFNE15.jpg,AFNE01.jpg,AFSA01.jpg,AFSA01.jpg,FS,4,num_4,16,num_4,1.55011089565,,,2017_Oct_24_1551,59.977204118,FEMA4ImagesEEG,001,102198,
AFNE01.JPG,AFNE01.JPG,AFNE01.JPG,AFNE01.JPG,AFNE01.JPG,AFNE01.JPG,,,,,,,,,,,,,,,,,3,1,31,8,,,,,,,AFNE15.jpg,AFSA04.jpg,AFSA02.jpg,AFNE20.jpg,AFNE15.jpg,FN,3,num_8,16,num_8,3.66654671007,,,2017_Oct_24_1551,59.977204118,FEMA4ImagesEEG,001,102198,
AFNE01.JPG,AFNE01.JPG,AFNE01.JPG,AFNE01.JPG,AFNE01.JPG,AFNE01.JPG,,,,,,,,,,,,,,,,,3,2,32,6,,,,,,,AFSA06.jpg,AFNE16.jpg,AFSA05.jpg,AFNE11.jpg,AFNE11.jpg,FN,3,num_4,48,None,,,,2017_Oct_24_1551,59.977204118,FEMA4ImagesEEG,001,102198,
AFNE01.JPG,AFNE01.JPG,AFNE01.JPG,AFNE01.JPG,AFNE01.JPG,AFNE01.JPG,,,,,,,,,,,,,,,,,3,3,33,5,,,,,,,AFNE05.jpg,AFSA10.jpg,AFNE16.jpg,AFSA07.jpg,AFSA07.jpg,FS,4,num_4,16,num_4,1.05007545394,,,2017_Oct_24_1551,59.977204118,FEMA4ImagesEEG,001,102198,
AFNE01.JPG,AFNE01.JPG,AFNE01.JPG,AFNE01.JPG,AFNE01.JPG,AFNE01.JPG,,,,,,,,,,,,,,,,,3,4,34,1,,,,,,,AFNE15.jpg,AFSA03.jpg,AFSA13.jpg,AFNE17.jpg,AFSA03.jpg,FS,4,num_6,16,num_6,0.400125088403,,,2017_Oct_24_1551,59.977204118,FEMA4ImagesEEG,001,102198,
AFNE01.JPG,AFNE01.JPG,AFNE01.JPG,AFNE01.JPG,AFNE01.JPG,AFNE01.JPG,,,,,,,,,,,,,,,,,3,5,35,2,,,,,,,AFNE06.jpg,AFSA08.jpg,AFNE15.jpg,AFSA02.jpg,AFNE06.jpg,FN,3,num_8,32,num_4,1.13344302622,,,2017_Oct_24_1551,59.977204118,FEMA4ImagesEEG,001,102198,
AFNE01.JPG,AFNE01.JPG,AFNE01.JPG,AFNE01.JPG,AFNE01.JPG,AFNE01.JPG,,,,,,,,,,,,,,,,,3,6,36,7,,,,,,,AFNE07.jpg,AFSA20.jpg,AFSA19.jpg,AFNE13.jpg,AFNE07.jpg,FN,3,num_8,16,num_8,1.56675984152,,,2017_Oct_24_1551,59.977204118,FEMA4ImagesEEG,001,102198,
AFNE01.JPG,AFNE01.JPG,AFNE01.JPG,AFNE01.JPG,AFNE01.JPG,AFNE01.JPG,,,,,,,,,,,,,,,,,3,7,37,3,,,,,,,AFNE15.jpg,AFSA09.jpg,AFSA13.jpg,AFNE09.jpg,AFNE09.jpg,FN,3,num_4,16,num_4,0.60020623554,,,2017_Oct_24_1551,59.977204118,FEMA4ImagesEEG,001,102198,
AFNE01.JPG,AFNE01.JPG,AFNE01.JPG,AFNE01.JPG,AFNE01.JPG,AFNE01.JPG,,,,,,,,,,,,,,,,,3,8,38,9,,,,,,,AFNE17.jpg,AFSA03.jpg,AFSA08.jpg,AFNE09.jpg,AFSA08.jpg,FS,4,num_2,32,num_4,0.716763930861,,,2017_Oct_24_1551,59.977204118,FEMA4ImagesEEG,001,102198,
AFNE01.JPG,AFNE01.JPG,AFNE01.JPG,AFNE01.JPG,AFNE01.JPG,AFNE01.JPG,,,,,,,,,,,,,,,,,3,9,39,0,,,,,,,AFSA12.jpg,AFNE16.jpg,AFSA14.jpg,AFNE18.jpg,AFNE16.jpg,FN,3,num_6,32,num_2,0.800163897919,,,2017_Oct_24_1551,59.977204118,FEMA4ImagesEEG,001,102198,
AFNE01.JPG,AFNE01.JPG,AFNE01.JPG,AFNE01.JPG,AFNE01.JPG,AFNE01.JPG,,,,,,,,,,,,,,,,,4,0,40,8,,,,,,,AFNE14.jpg,AFNE15.jpg,AFSA06.jpg,AFSA05.jpg,AFSA05.jpg,FS,4,num_4,16,num_4,0.633475902141,,,2017_Oct_24_1551,59.977204118,FEMA4ImagesEEG,001,102198,
AFNE01.JPG,AFNE01.JPG,AFNE01.JPG,AFNE01.JPG,AFNE01.JPG,AFNE01.JPG,,,,,,,,,,,,,,,,,4,1,41,7,,,,,,,AFSA16.jpg,AFSA20.jpg,AFNE19.jpg,AFNE17.jpg,AFSA20.jpg,FS,4,num_6,16,num_6,2.21692542324,,,2017_Oct_24_1551,59.977204118,FEMA4ImagesEEG,001,102198,
AFNE01.JPG,AFNE01.JPG,AFNE01.JPG,AFNE01.JPG,AFNE01.JPG,AFNE01.JPG,,,,,,,,,,,,,,,,,4,2,42,9,,,,,,,AFNE12.jpg,AFSA16.jpg,AFSA06.jpg,AFNE09.jpg,AFSA06.jpg,FS,4,num_2,16,num_2,1.11638064717,,,2017_Oct_24_1551,59.977204118,FEMA4ImagesEEG,001,102198,
AFNE01.JPG,AFNE01.JPG,AFNE01.JPG,AFNE01.JPG,AFNE01.JPG,AFNE01.JPG,,,,,,,,,,,,,,,,,4,3,43,5,,,,,,,AFNE12.jpg,AFSA10.jpg,AFSA17.jpg,AFNE15.jpg,AFSA17.jpg,FS,4,num_2,32,num_4,1.25007128436,,,2017_Oct_24_1551,59.977204118,FEMA4ImagesEEG,001,102198,
AFNE01.JPG,AFNE01.JPG,AFNE01.JPG,AFNE01.JPG,AFNE01.JPG,AFNE01.JPG,,,,,,,,,,,,,,,,,4,4,44,6,,,,,,,AFNE02.jpg,AFSA10.jpg,AFNE15.jpg,AFSA08.jpg,AFNE15.jpg,FN,3,num_2,32,num_6,0.683121885755,,,2017_Oct_24_1551,59.977204118,FEMA4ImagesEEG,001,102198,
AFNE01.JPG,AFNE01.JPG,AFNE01.JPG,AFNE01.JPG,AFNE01.JPG,AFNE01.JPG,,,,,,,,,,,,,,,,,4,5,45,0,,,,,,,AFNE05.jpg,AFSA20.jpg,AFNE19.jpg,AFSA06.jpg,AFSA06.jpg,FS,4,num_4,32,num_6,1.26671958866,,,2017_Oct_24_1551,59.977204118,FEMA4ImagesEEG,001,102198,
AFNE01.JPG,AFNE01.JPG,AFNE01.JPG,AFNE01.JPG,AFNE01.JPG,AFNE01.JPG,,,,,,,,,,,,,,,,,4,6,46,1,,,,,,,AFNE10.jpg,AFSA04.jpg,AFNE18.jpg,AFSA16.jpg,AFSA04.jpg,FS,4,num_6,32,num_2,1.01674869587,,,2017_Oct_24_1551,59.977204118,FEMA4ImagesEEG,001,102198,
AFNE01.JPG,AFNE01.JPG,AFNE01.JPG,AFNE01.JPG,AFNE01.JPG,AFNE01.JPG,,,,,,,,,,,,,,,,,4,7,47,3,,,,,,,AFSA04.jpg,AFNE02.jpg,AFSA17.jpg,AFNE18.jpg,AFSA17.jpg,FS,4,num_2,32,num_4,0.683460907429,,,2017_Oct_24_1551,59.977204118,FEMA4ImagesEEG,001,102198,
AFNE01.JPG,AFNE01.JPG,AFNE01.JPG,AFNE01.JPG,AFNE01.JPG,AFNE01.JPG,,,,,,,,,,,,,,,,,4,8,48,2,,,,,,,AFSA07.jpg,AFNE19.jpg,AFSA03.jpg,AFNE14.jpg,AFNE19.jpg,FN,3,num_6,16,num_6,0.71679151454,,,2017_Oct_24_1551,59.977204118,FEMA4ImagesEEG,001,102198,
AFNE01.JPG,AFNE01.JPG,AFNE01.JPG,AFNE01.JPG,AFNE01.JPG,AFNE01.JPG,,,,,,,,,,,,,,,,,4,9,49,4,,,,,,,AFSA15.jpg,AFNE09.jpg,AFSA10.jpg,AFNE02.jpg,AFSA10.jpg,FS,4,num_2,16,num_2,0.883437814191,,,2017_Oct_24_1551,59.977204118,FEMA4ImagesEEG,001,102198,
AFNE01.JPG,AFNE01.JPG,AFNE01.JPG,AFNE01.JPG,AFNE01.JPG,AFNE01.JPG,,,,,,,,,,,,,,,,,5,0,50,4,,,,,,,AFSA19.jpg,AFNE11.jpg,AFNE04.jpg,AFSA04.jpg,AFNE11.jpg,FN,3,num_6,32,num_8,0.983590005082,,,2017_Oct_24_1551,59.977204118,FEMA4ImagesEEG,001,102198,
AFNE01.JPG,AFNE01.JPG,AFNE01.JPG,AFNE01.JPG,AFNE01.JPG,AFNE01.JPG,,,,,,,,,,,,,,,,,5,1,51,8,,,,,,,AFSA01.jpg,AFNE14.jpg,AFNE07.jpg,AFSA03.jpg,AFNE14.jpg,FN,3,num_6,32,num_4,0.816745809163,,,2017_Oct_24_1551,59.977204118,FEMA4ImagesEEG,001,102198,
AFNE01.JPG,AFNE01.JPG,AFNE01.JPG,AFNE01.JPG,AFNE01.JPG,AFNE01.JPG,,,,,,,,,,,,,,,,,5,2,52,3,,,,,,,AFNE19.jpg,AFNE10.jpg,AFSA07.jpg,AFSA17.jpg,AFNE10.jpg,FN,3,num_6,32,num_2,1.56678902882,,,2017_Oct_24_1551,59.977204118,FEMA4ImagesEEG,001,102198,
AFNE01.JPG,AFNE01.JPG,AFNE01.JPG,AFNE01.JPG,AFNE01.JPG,AFNE01.JPG,,,,,,,,,,,,,,,,,5,3,53,7,,,,,,,AFSA20.jpg,AFSA15.jpg,AFNE20.jpg,AFNE15.jpg,AFNE20.jpg,FN,3,num_2,32,num_4,0.899992141989,,,2017_Oct_24_1551,59.977204118,FEMA4ImagesEEG,001,102198,
AFNE01.JPG,AFNE01.JPG,AFNE01.JPG,AFNE01.JPG,AFNE01.JPG,AFNE01.JPG,,,,,,,,,,,,,,,,,5,4,54,1,,,,,,,AFNE18.jpg,AFSA20.jpg,AFSA05.jpg,AFNE01.jpg,AFSA05.jpg,FS,4,num_2,16,num_2,1.88330663182,,,2017_Oct_24_1551,59.977204118,FEMA4ImagesEEG,001,102198,
AFNE01.JPG,AFNE01.JPG,AFNE01.JPG,AFNE01.JPG,AFNE01.JPG,AFNE01.JPG,,,,,,,,,,,,,,,,,5,5,55,6,,,,,,,AFSA19.jpg,AFSA17.jpg,AFNE06.jpg,AFNE16.jpg,AFNE16.jpg,FN,3,num_4,32,num_6,3.23325651616,,,2017_Oct_24_1551,59.977204118,FEMA4ImagesEEG,001,102198,
AFNE01.JPG,AFNE01.JPG,AFNE01.JPG,AFNE01.JPG,AFNE01.JPG,AFNE01.JPG,,,,,,,,,,,,,,,,,5,6,56,0,,,,,,,AFNE19.jpg,AFSA04.jpg,AFNE03.jpg,AFSA17.jpg,AFSA17.jpg,FS,4,num_4,32,num_2,2.89994018211,,,2017_Oct_24_1551,59.977204118,FEMA4ImagesEEG,001,102198,
AFNE01.JPG,AFNE01.JPG,AFNE01.JPG,AFNE01.JPG,AFNE01.JPG,AFNE01.JPG,,,,,,,,,,,,,,,,,5,7,57,5,,,,,,,AFSA14.jpg,AFSA03.jpg,AFNE04.jpg,AFNE16.jpg,AFNE04.jpg,FN,3,num_2,16,num_2,1.56667901517,,,2017_Oct_24_1551,59.977204118,FEMA4ImagesEEG,001,102198,
AFNE01.JPG,AFNE01.JPG,AFNE01.JPG,AFNE01.JPG,AFNE01.JPG,AFNE01.JPG,,,,,,,,,,,,,,,,,5,8,58,2,,,,,,,AFSA17.jpg,AFNE17.jpg,AFSA11.jpg,AFNE16.jpg,AFNE17.jpg,FN,3,num_6,32,num_4,0.500146738254,,,2017_Oct_24_1551,59.977204118,FEMA4ImagesEEG,001,102198,
AFNE01.JPG,AFNE01.JPG,AFNE01.JPG,AFNE01.JPG,AFNE01.JPG,AFNE01.JPG,,,,,,,,,,,,,,,,,5,9,59,9,,,,,,,AFNE20.jpg,AFSA17.jpg,AFSA13.jpg,AFNE01.jpg,AFNE01.jpg,FN,3,num_4,32,num_6,0.950100952759,,,2017_Oct_24_1551,59.977204118,FEMA4ImagesEEG,001,102198,
,,,,,,,,,,,,,,,,,,,,,,,,,,,,,,,,,,,,,,,,,,,space,2.59998492524,2017_Oct_24_1551,59.977204118,FEMA4ImagesEEG,001,102198,
AFNE01.JPG,AFNE01.JPG,AFNE01.JPG,AFNE01.JPG,AFNE01.JPG,AFNE01.JPG,,,,,,,,,,,,,,,,,,,,,0,0,0,2,,,AMNE15.jpg,AMSA12.jpg,AMNE07.jpg,AMSA20.jpg,AMNE15.jpg,MN,1,num_8,16,num_8,1.11698684492,,,2017_Oct_24_1551,59.977204118,FEMA4ImagesEEG,001,102198,
AFNE01.JPG,AFNE01.JPG,AFNE01.JPG,AFNE01.JPG,AFNE01.JPG,AFNE01.JPG,,,,,,,,,,,,,,,,,,,,,0,1,1,7,,,AMNE15.jpg,AMNE14.jpg,AMSA11.jpg,AMSA01.jpg,AMSA11.jpg,MS,2,num_2,16,num_2,0.633420734783,,,2017_Oct_24_1551,59.977204118,FEMA4ImagesEEG,001,102198,
AFNE01.JPG,AFNE01.JPG,AFNE01.JPG,AFNE01.JPG,AFNE01.JPG,AFNE01.JPG,,,,,,,,,,,,,,,,,,,,,0,2,2,1,,,AMNE04.jpg,AMSA08.jpg,AMSA11.jpg,AMNE02.jpg,AMSA11.jpg,MS,2,num_2,32,num_4,1.06672824861,,,2017_Oct_24_1551,59.977204118,FEMA4ImagesEEG,001,102198,
AFNE01.JPG,AFNE01.JPG,AFNE01.JPG,AFNE01.JPG,AFNE01.JPG,AFNE01.JPG,,,,,,,,,,,,,,,,,,,,,0,3,3,8,,,AMSA13.jpg,AMNE02.jpg,AMNE15.jpg,AMSA19.jpg,AMNE02.jpg,MN,1,num_6,16,num_6,0.733427310013,,,2017_Oct_24_1551,59.977204118,FEMA4ImagesEEG,001,102198,
AFNE01.JPG,AFNE01.JPG,AFNE01.JPG,AFNE01.JPG,AFNE01.JPG,AFNE01.JPG,,,,,,,,,,,,,,,,,,,,,0,4,4,5,,,AMNE17.jpg,AMNE03.jpg,AMSA10.jpg,AMSA09.jpg,AMSA10.jpg,MS,2,num_2,32,num_8,3.56674348377,,,2017_Oct_24_1551,59.977204118,FEMA4ImagesEEG,001,102198,
AFNE01.JPG,AFNE01.JPG,AFNE01.JPG,AFNE01.JPG,AFNE01.JPG,AFNE01.JPG,,,,,,,,,,,,,,,,,,,,,0,5,5,3,,,AMSA12.jpg,AMNE20.jpg,AMNE07.jpg,AMSA20.jpg,AMNE20.jpg,MN,1,num_6,16,num_6,0.633482316742,,,2017_Oct_24_1551,59.977204118,FEMA4ImagesEEG,001,102198,
AFNE01.JPG,AFNE01.JPG,AFNE01.JPG,AFNE01.JPG,AFNE01.JPG,AFNE01.JPG,,,,,,,,,,,,,,,,,,,,,0,6,6,6,,,AMSA13.jpg,AMNE09.jpg,AMSA01.jpg,AMNE18.jpg,AMSA01.jpg,MS,2,num_2,16,num_2,0.666785019566,,,2017_Oct_24_1551,59.977204118,FEMA4ImagesEEG,001,102198,
AFNE01.JPG,AFNE01.JPG,AFNE01.JPG,AFNE01.JPG,AFNE01.JPG,AFNE01.JPG,,,,,,,,,,,,,,,,,,,,,0,7,7,4,,,AMNE20.jpg,AMSA04.jpg,AMNE01.jpg,AMSA08.jpg,AMSA08.jpg,MS,2,num_4,16,num_4,0.733454893692,,,2017_Oct_24_1551,59.977204118,FEMA4ImagesEEG,001,102198,
AFNE01.JPG,AFNE01.JPG,AFNE01.JPG,AFNE01.JPG,AFNE01.JPG,AFNE01.JPG,,,,,,,,,,,,,,,,,,,,,0,8,8,9,,,AMSA18.jpg,AMSA11.jpg,AMNE04.jpg,AMNE07.jpg,AMSA11.jpg,MS,2,num_6,16,num_6,0.716747252503,,,2017_Oct_24_1551,59.977204118,FEMA4ImagesEEG,001,102198,
AFNE01.JPG,AFNE01.JPG,AFNE01.JPG,AFNE01.JPG,AFNE01.JPG,AFNE01.JPG,,,,,,,,,,,,,,,,,,,,,0,9,9,0,,,AMSA07.jpg,AMNE14.jpg,AMNE20.jpg,AMSA15.jpg,AMNE20.jpg,MN,1,num_2,32,num_6,0.800153313437,,,2017_Oct_24_1551,59.977204118,FEMA4ImagesEEG,001,102198,
AFNE01.JPG,AFNE01.JPG,AFNE01.JPG,AFNE01.JPG,AFNE01.JPG,AFNE01.JPG,,,,,,,,,,,,,,,,,,,,,1,0,10,1,,,AMSA10.jpg,AMSA09.jpg,AMNE03.jpg,AMNE19.jpg,AMSA09.jpg,MS,2,num_6,32,num_2,0.866800735821,,,2017_Oct_24_1551,59.977204118,FEMA4ImagesEEG,001,102198,
AFNE01.JPG,AFNE01.JPG,AFNE01.JPG,AFNE01.JPG,AFNE01.JPG,AFNE01.JPG,,,,,,,,,,,,,,,,,,,,,1,1,11,6,,,AMSA13.jpg,AMSA20.jpg,AMNE09.jpg,AMNE11.jpg,AMNE09.jpg,MN,1,num_2,32,num_4,0.566748936311,,,2017_Oct_24_1551,59.977204118,FEMA4ImagesEEG,001,102198,
AFNE01.JPG,AFNE01.JPG,AFNE01.JPG,AFNE01.JPG,AFNE01.JPG,AFNE01.JPG,,,,,,,,,,,,,,,,,,,,,1,2,12,8,,,AMSA06.jpg,AMNE10.jpg,AMNE12.jpg,AMSA01.jpg,AMSA06.jpg,MS,2,num_8,16,num_8,1.4834063818,,,2017_Oct_24_1551,59.977204118,FEMA4ImagesEEG,001,102198,
AFNE01.JPG,AFNE01.JPG,AFNE01.JPG,AFNE01.JPG,AFNE01.JPG,AFNE01.JPG,,,,,,,,,,,,,,,,,,,,,1,3,13,9,,,AMSA08.jpg,AMNE09.jpg,AMSA17.jpg,AMNE15.jpg,AMNE15.jpg,MN,1,num_4,32,num_6,1.26677764254,,,2017_Oct_24_1551,59.977204118,FEMA4ImagesEEG,001,102198,
AFNE01.JPG,AFNE01.JPG,AFNE01.JPG,AFNE01.JPG,AFNE01.JPG,AFNE01.JPG,,,,,,,,,,,,,,,,,,,,,1,4,14,5,,,AMSA03.jpg,AMNE12.jpg,AMSA14.jpg,AMNE02.jpg,AMNE02.jpg,MN,1,num_4,16,num_4,0.816789429751,,,2017_Oct_24_1551,59.977204118,FEMA4ImagesEEG,001,102198,
AFNE01.JPG,AFNE01.JPG,AFNE01.JPG,AFNE01.JPG,AFNE01.JPG,AFNE01.JPG,,,,,,,,,,,,,,,,,,,,,1,5,15,0,,,AMNE05.jpg,AMSA13.jpg,AMSA04.jpg,AMNE11.jpg,AMNE11.jpg,MN,1,num_4,32,num_2,0.716801136732,,,2017_Oct_24_1551,59.977204118,FEMA4ImagesEEG,001,102198,
AFNE01.JPG,AFNE01.JPG,AFNE01.JPG,AFNE01.JPG,AFNE01.JPG,AFNE01.JPG,,,,,,,,,,,,,,,,,,,,,1,6,16,7,,,AMSA03.jpg,AMSA05.jpg,AMNE07.jpg,AMNE06.jpg,AMNE07.jpg,MN,1,num_2,16,num_2,0.45014313003,,,2017_Oct_24_1551,59.977204118,FEMA4ImagesEEG,001,102198,
AFNE01.JPG,AFNE01.JPG,AFNE01.JPG,AFNE01.JPG,AFNE01.JPG,AFNE01.JPG,,,,,,,,,,,,,,,,,,,,,1,7,17,4,,,AMNE20.jpg,AMNE07.jpg,AMSA10.jpg,AMSA19.jpg,AMNE07.jpg,MN,1,num_6,32,num_2,0.666794320918,,,2017_Oct_24_1551,59.977204118,FEMA4ImagesEEG,001,102198,
AFNE01.JPG,AFNE01.JPG,AFNE01.JPG,AFNE01.JPG,AFNE01.JPG,AFNE01.JPG,,,,,,,,,,,,,,,,,,,,,1,8,18,2,,,AMNE12.jpg,AMSA17.jpg,AMNE17.jpg,AMSA18.jpg,AMNE17.jpg,MN,1,num_2,32,num_6,0.96679383982,,,2017_Oct_24_1551,59.977204118,FEMA4ImagesEEG,001,102198,
AFNE01.JPG,AFNE01.JPG,AFNE01.JPG,AFNE01.JPG,AFNE01.JPG,AFNE01.JPG,,,,,,,,,,,,,,,,,,,,,1,9,19,3,,,AMSA07.jpg,AMSA15.jpg,AMNE14.jpg,AMNE05.jpg,AMSA15.jpg,MS,2,num_6,32,num_8,1.28345802077,,,2017_Oct_24_1551,59.977204118,FEMA4ImagesEEG,001,102198,
AFNE01.JPG,AFNE01.JPG,AFNE01.JPG,AFNE01.JPG,AFNE01.JPG,AFNE01.JPG,,,,,,,,,,,,,,,,,,,,,2,0,20,7,,,AMSA03.jpg,AMNE03.jpg,AMSA18.jpg,AMNE06.jpg,AMNE03.jpg,MN,1,num_6,32,num_2,3.86619582109,,,2017_Oct_24_1551,59.977204118,FEMA4ImagesEEG,001,102198,
AFNE01.JPG,AFNE01.JPG,AFNE01.JPG,AFNE01.JPG,AFNE01.JPG,AFNE01.JPG,,,,,,,,,,,,,,,,,,,,,2,1,21,9,,,AMNE03.jpg,AMSA02.jpg,AMNE14.jpg,AMSA14.jpg,AMNE14.jpg,MN,1,num_2,32,num_6,3.28327840671,,,2017_Oct_24_1551,59.977204118,FEMA4ImagesEEG,001,102198,
AFNE01.JPG,AFNE01.JPG,AFNE01.JPG,AFNE01.JPG,AFNE01.JPG,AFNE01.JPG,,,,,,,,,,,,,,,,,,,,,2,2,22,2,,,AMNE18.jpg,AMNE15.jpg,AMSA15.jpg,AMSA16.jpg,AMSA16.jpg,MS,2,num_4,32,num_6,0.616805145866,,,2017_Oct_24_1551,59.977204118,FEMA4ImagesEEG,001,102198,
AFNE01.JPG,AFNE01.JPG,AFNE01.JPG,AFNE01.JPG,AFNE01.JPG,AFNE01.JPG,,,,,,,,,,,,,,,,,,,,,2,3,23,8,,,AMNE01.jpg,AMSA19.jpg,AMNE17.jpg,AMSA05.jpg,AMNE17.jpg,MN,1,num_2,32,num_8,0.833468204364,,,2017_Oct_24_1551,59.977204118,FEMA4ImagesEEG,001,102198,
AFNE01.JPG,AFNE01.JPG,AFNE01.JPG,AFNE01.JPG,AFNE01.JPG,AFNE01.JPG,,,,,,,,,,,,,,,,,,,,,2,4,24,6,,,AMNE16.jpg,AMSA17.jpg,AMSA08.jpg,AMNE20.jpg,AMSA08.jpg,MS,2,num_2,16,num_2,0.783453370095,,,2017_Oct_24_1551,59.977204118,FEMA4ImagesEEG,001,102198,
AFNE01.JPG,AFNE01.JPG,AFNE01.JPG,AFNE01.JPG,AFNE01.JPG,AFNE01.JPG,,,,,,,,,,,,,,,,,,,,,2,5,25,0,,,AMNE11.jpg,AMNE12.jpg,AMSA19.jpg,AMSA16.jpg,AMSA16.jpg,MS,2,num_4,16,num_4,1.1000707231,,,2017_Oct_24_1551,59.977204118,FEMA4ImagesEEG,001,102198,
AFNE01.JPG,AFNE01.JPG,AFNE01.JPG,AFNE01.JPG,AFNE01.JPG,AFNE01.JPG,,,,,,,,,,,,,,,,,,,,,2,6,26,4,,,AMNE07.jpg,AMSA13.jpg,AMNE04.jpg,AMSA18.jpg,AMSA18.jpg,MS,2,num_4,16,num_4,0.916404381976,,,2017_Oct_24_1551,59.977204118,FEMA4ImagesEEG,001,102198,
AFNE01.JPG,AFNE01.JPG,AFNE01.JPG,AFNE01.JPG,AFNE01.JPG,AFNE01.JPG,,,,,,,,,,,,,,,,,,,,,2,7,27,1,,,AMSA05.jpg,AMNE11.jpg,AMSA10.jpg,AMNE17.jpg,AMSA05.jpg,MS,2,num_8,32,num_2,1.16675246437,,,2017_Oct_24_1551,59.977204118,FEMA4ImagesEEG,001,102198,
AFNE01.JPG,AFNE01.JPG,AFNE01.JPG,AFNE01.JPG,AFNE01.JPG,AFNE01.JPG,,,,,,,,,,,,,,,,,,,,,2,8,28,5,,,AMNE15.jpg,AMSA03.jpg,AMNE19.jpg,AMSA01.jpg,AMSA01.jpg,MS,2,num_4,16,num_4,0.566791274003,,,2017_Oct_24_1551,59.977204118,FEMA4ImagesEEG,001,102198,
AFNE01.JPG,AFNE01.JPG,AFNE01.JPG,AFNE01.JPG,AFNE01.JPG,AFNE01.JPG,,,,,,,,,,,,,,,,,,,,,2,9,29,3,,,AMSA12.jpg,AMNE09.jpg,AMNE20.jpg,AMSA14.jpg,AMNE20.jpg,MN,1,num_2,32,num_6,0.983471972984,,,2017_Oct_24_1551,59.977204118,FEMA4ImagesEEG,001,102198,
AFNE01.JPG,AFNE01.JPG,AFNE01.JPG,AFNE01.JPG,AFNE01.JPG,AFNE01.JPG,,,,,,,,,,,,,,,,,,,,,3,0,30,0,,,AMSA19.jpg,AMNE18.jpg,AMNE12.jpg,AMSA20.jpg,AMSA20.jpg,MS,2,num_4,32,num_2,1.25006134144,,,2017_Oct_24_1551,59.977204118,FEMA4ImagesEEG,001,102198,
AFNE01.JPG,AFNE01.JPG,AFNE01.JPG,AFNE01.JPG,AFNE01.JPG,AFNE01.JPG,,,,,,,,,,,,,,,,,,,,,3,1,31,1,,,AMNE16.jpg,AMSA15.jpg,AMNE04.jpg,AMSA17.jpg,AMSA15.jpg,MS,2,num_6,16,num_6,0.666799452854,,,2017_Oct_24_1551,59.977204118,FEMA4ImagesEEG,001,102198,
AFNE01.JPG,AFNE01.JPG,AFNE01.JPG,AFNE01.JPG,AFNE01.JPG,AFNE01.JPG,,,,,,,,,,,,,,,,,,,,,3,2,32,7,,,AMSA05.jpg,AMSA17.jpg,AMNE05.jpg,AMNE11.jpg,AMNE05.jpg,MN,1,num_2,32,num_4,0.750105763902,,,2017_Oct_24_1551,59.977204118,FEMA4ImagesEEG,001,102198,
AFNE01.JPG,AFNE01.JPG,AFNE01.JPG,AFNE01.JPG,AFNE01.JPG,AFNE01.JPG,,,,,,,,,,,,,,,,,,,,,3,3,33,6,,,AMSA07.jpg,AMSA08.jpg,AMNE07.jpg,AMNE11.jpg,AMSA08.jpg,MS,2,num_6,32,num_4,0.817060454632,,,2017_Oct_24_1551,59.977204118,FEMA4ImagesEEG,001,102198,
AFNE01.JPG,AFNE01.JPG,AFNE01.JPG,AFNE01.JPG,AFNE01.JPG,AFNE01.JPG,,,,,,,,,,,,,,,,,,,,,3,4,34,2,,,AMSA03.jpg,AMSA13.jpg,AMNE14.jpg,AMNE11.jpg,AMSA03.jpg,MS,2,num_8,32,num_6,3.00003848865,,,2017_Oct_24_1551,59.977204118,FEMA4ImagesEEG,001,102198,
AFNE01.JPG,AFNE01.JPG,AFNE01.JPG,AFNE01.JPG,AFNE01.JPG,AFNE01.JPG,,,,,,,,,,,,,,,,,,,,,3,5,35,3,,,AMSA12.jpg,AMSA15.jpg,AMNE20.jpg,AMNE19.jpg,AMSA15.jpg,MS,2,num_6,32,num_2,1.00021681993,,,2017_Oct_24_1551,59.977204118,FEMA4ImagesEEG,001,102198,
AFNE01.JPG,AFNE01.JPG,AFNE01.JPG,AFNE01.JPG,AFNE01.JPG,AFNE01.JPG,,,,,,,,,,,,,,,,,,,,,3,6,36,9,,,AMNE16.jpg,AMSA04.jpg,AMSA12.jpg,AMNE08.jpg,AMNE08.jpg,MN,1,num_4,32,num_2,1.93335450219,,,2017_Oct_24_1551,59.977204118,FEMA4ImagesEEG,001,102198,
AFNE01.JPG,AFNE01.JPG,AFNE01.JPG,AFNE01.JPG,AFNE01.JPG,AFNE01.JPG,,,,,,,,,,,,,,,,,,,,,3,7,37,4,,,AMSA07.jpg,AMNE12.jpg,AMNE19.jpg,AMSA16.jpg,AMSA16.jpg,MS,2,num_4,16,num_4,1.00000288663,,,2017_Oct_24_1551,59.977204118,FEMA4ImagesEEG,001,102198,
AFNE01.JPG,AFNE01.JPG,AFNE01.JPG,AFNE01.JPG,AFNE01.JPG,AFNE01.JPG,,,,,,,,,,,,,,,,,,,,,3,8,38,8,,,AMNE02.jpg,AMNE12.jpg,AMSA08.jpg,AMSA05.jpg,AMNE12.jpg,MN,1,num_6,16,num_6,0.716896396363,,,2017_Oct_24_1551,59.977204118,FEMA4ImagesEEG,001,102198,
AFNE01.JPG,AFNE01.JPG,AFNE01.JPG,AFNE01.JPG,AFNE01.JPG,AFNE01.JPG,,,,,,,,,,,,,,,,,,,,,3,9,39,5,,,AMNE12.jpg,AMSA03.jpg,AMNE04.jpg,AMSA13.jpg,AMSA13.jpg,MS,2,num_4,16,num_4,0.93343885662,,,2017_Oct_24_1551,59.977204118,FEMA4ImagesEEG,001,102198,
AFNE01.JPG,AFNE01.JPG,AFNE01.JPG,AFNE01.JPG,AFNE01.JPG,AFNE01.JPG,,,,,,,,,,,,,,,,,,,,,4,0,40,0,,,AMSA17.jpg,AMSA12.jpg,AMNE02.jpg,AMNE06.jpg,AMSA12.jpg,MS,2,num_6,32,num_8,1.48339098622,,,2017_Oct_24_1551,59.977204118,FEMA4ImagesEEG,001,102198,
