IPosition2,IPosition3,IPosition1,IPosition6,IPosition4,IPosition5,TrialsM1.thisRepN,TrialsM1.thisTrialN,TrialsM1.thisN,TrialsM1.thisIndex,TrialsF1.thisRepN,TrialsF1.thisTrialN,TrialsF1.thisN,TrialsF1.thisIndex,TrialsM2.thisRepN,TrialsM2.thisTrialN,TrialsM2.thisN,TrialsM2.thisIndex,TrialsF2.thisRepN,TrialsF2.thisTrialN,TrialsF2.thisN,TrialsF2.thisIndex,TrialsM3.thisRepN,TrialsM3.thisTrialN,TrialsM3.thisN,TrialsM3.thisIndex,TrialsF3.thisRepN,TrialsF3.thisTrialN,TrialsF3.thisN,TrialsF3.thisIndex,InstrKey_resp.keys,InstrKey_resp.rt,Image0 _Position,Image1 _Position,Image2 _Position,Image3 _Position,Center_image,condition,code,correct_answer,accuracy,Key_Resp.keys,Key_Resp.rt,BreakKey_resp.keys,BreakKey_resp.rt,date,frameRate,expName,session,participant,
,,,,,,,,,,,,,,,,,,,,,,,,,,,,,,space,13.2828303336,,,,,,,,,,,,,,2017_Oct_20_1512,59.9969402934,MAFE4ImagesEEG,001,102181,
AMSA21.JPG,AMNE23.JPG,AMNE21.JPG,AMSA25.JPG,AMNE25.JPG,AMSA23.JPG,0,0,0,5,,,,,,,,,,,,,,,,,,,,,,,AMNE16.jpg,AMSA02.jpg,AMSA08.jpg,AMNE20.jpg,AMSA02.jpg,MS,2,num_6,16,num_6,1.06673370121,,,2017_Oct_20_1512,59.9969402934,MAFE4ImagesEEG,001,102181,
AFNE22.JPG,AFSA24.JPG,AFSA22.JPG,AFNE25.JPG,AFNE24.JPG,AFSA25.JPG,0,1,1,6,,,,,,,,,,,,,,,,,,,,,,,AMNE06.jpg,AMSA01.jpg,AMSA09.jpg,AMNE09.jpg,AMNE09.jpg,MN,1,num_4,16,num_4,1.28340798547,,,2017_Oct_20_1512,59.9969402934,MAFE4ImagesEEG,001,102181,
AFSA25.JPG,AFNE24.JPG,AFSA24.JPG,AFNE21.JPG,AFSA21.JPG,AFNE25.JPG,0,2,2,2,,,,,,,,,,,,,,,,,,,,,,,AMNE08.jpg,AMSA20.jpg,AMSA02.jpg,AMNE14.jpg,AMNE14.jpg,MN,1,num_4,32,num_8,1.5999990378,,,2017_Oct_20_1512,59.9969402934,MAFE4ImagesEEG,001,102181,
AFSA21.JPG,AFNE23.JPG,AFNE21.JPG,AFSA25.JPG,AFNE25.JPG,AFSA23.JPG,0,3,3,4,,,,,,,,,,,,,,,,,,,,,,,AMSA12.jpg,AMSA01.jpg,AMNE01.jpg,AMNE11.jpg,AMSA01.jpg,MS,2,num_6,16,num_6,0.766858949966,,,2017_Oct_20_1512,59.9969402934,MAFE4ImagesEEG,001,102181,
AMSA25.JPG,AMNE24.JPG,AMSA24.JPG,AMNE26.JPG,AMSA21.JPG,AMNE25.JPG,0,4,4,3,,,,,,,,,,,,,,,,,,,,,,,AMSA03.jpg,AMNE16.jpg,AMNE03.jpg,AMSA17.jpg,AMSA03.jpg,MS,2,num_8,16,num_8,0.900074251229,,,2017_Oct_20_1512,59.9969402934,MAFE4ImagesEEG,001,102181,
AFSA21.JPG,AFNE22.JPG,AFNE21.JPG,AFSA23.JPG,AFSA22.JPG,AFNE23.JPG,0,5,5,0,,,,,,,,,,,,,,,,,,,,,,,AMNE17.jpg,AMNE01.jpg,AMSA13.jpg,AMSA14.jpg,AMNE01.jpg,MN,1,num_6,16,num_6,0.716777401976,,,2017_Oct_20_1512,59.9969402934,MAFE4ImagesEEG,001,102181,
AFNE23.JPG,AFNE24.JPG,AFNE22.JPG,AFSA24.JPG,AFSA22.JPG,AFSA23.JPG,0,6,6,8,,,,,,,,,,,,,,,,,,,,,,,AMNE04.jpg,AMSA12.jpg,AMNE18.jpg,AMSA10.jpg,AMNE18.jpg,MN,1,num_2,16,num_2,2.16664213006,,,2017_Oct_20_1512,59.9969402934,MAFE4ImagesEEG,001,102181,
AMSA21.JPG,AMNE22.JPG,AMNE21.JPG,AMSA23.JPG,AMSA22.JPG,AMNE23.JPG,0,7,7,1,,,,,,,,,,,,,,,,,,,,,,,AMNE14.jpg,AMSA07.jpg,AMSA17.jpg,AMNE08.jpg,AMSA17.jpg,MS,2,num_2,32,num_8,1.19999775483,,,2017_Oct_20_1512,59.9969402934,MAFE4ImagesEEG,001,102181,
AMNE22.JPG,AMSA24.JPG,AMSA22.JPG,AMNE25.JPG,AMNE24.JPG,AMSA25.JPG,0,8,8,7,,,,,,,,,,,,,,,,,,,,,,,AMSA02.jpg,AMSA07.jpg,AMNE15.jpg,AMNE17.jpg,AMSA02.jpg,MS,2,num_8,16,num_8,0.850145375181,,,2017_Oct_20_1512,59.9969402934,MAFE4ImagesEEG,001,102181,
AMNE23.JPG,AMNE24.JPG,AMNE22.JPG,AMSA24.JPG,AMSA22.JPG,AMSA23.JPG,0,9,9,9,,,,,,,,,,,,,,,,,,,,,,,AMSA17.jpg,AMNE03.jpg,AMNE05.jpg,AMSA16.jpg,AMNE05.jpg,MN,1,num_2,16,num_2,1.40009750484,,,2017_Oct_20_1512,59.9969402934,MAFE4ImagesEEG,001,102181,
AFNE22.JPG,AFSA24.JPG,AFSA22.JPG,AFNE25.JPG,AFNE24.JPG,AFSA25.JPG,,,,,0,0,0,6,,,,,,,,,,,,,,,,,,,AFSA15.jpg,AFNE04.jpg,AFSA04.jpg,AFNE13.jpg,AFNE04.jpg,FN,3,num_6,16,num_6,0.833476222819,,,2017_Oct_20_1512,59.9969402934,MAFE4ImagesEEG,001,102181,
AMNE22.JPG,AMSA24.JPG,AMSA22.JPG,AMNE25.JPG,AMNE24.JPG,AMSA25.JPG,,,,,0,1,1,7,,,,,,,,,,,,,,,,,,,AFNE20.jpg,AFSA19.jpg,AFNE07.jpg,AFSA04.jpg,AFSA04.jpg,FS,4,num_4,16,num_4,0.883433003095,,,2017_Oct_20_1512,59.9969402934,MAFE4ImagesEEG,001,102181,
AMNE23.JPG,AMNE24.JPG,AMNE22.JPG,AMSA24.JPG,AMSA22.JPG,AMSA23.JPG,,,,,0,2,2,9,,,,,,,,,,,,,,,,,,,AFNE09.jpg,AFSA04.jpg,AFSA13.jpg,AFNE14.jpg,AFSA13.jpg,FS,4,num_2,32,num_6,0.816787184565,,,2017_Oct_20_1512,59.9969402934,MAFE4ImagesEEG,001,102181,
AMSA21.JPG,AMNE23.JPG,AMNE21.JPG,AMSA25.JPG,AMNE25.JPG,AMSA23.JPG,,,,,0,3,3,5,,,,,,,,,,,,,,,,,,,AFSA20.jpg,AFSA13.jpg,AFNE07.jpg,AFNE01.jpg,AFNE01.jpg,FN,3,num_4,16,num_4,0.750140403688,,,2017_Oct_20_1512,59.9969402934,MAFE4ImagesEEG,001,102181,
AMSA21.JPG,AMNE22.JPG,AMNE21.JPG,AMSA23.JPG,AMSA22.JPG,AMNE23.JPG,,,,,0,4,4,1,,,,,,,,,,,,,,,,,,,AFNE03.jpg,AFNE18.jpg,AFSA13.jpg,AFSA05.jpg,AFNE18.jpg,FN,3,num_6,16,num_6,0.650120036735,,,2017_Oct_20_1512,59.9969402934,MAFE4ImagesEEG,001,102181,
AFNE23.JPG,AFNE24.JPG,AFNE22.JPG,AFSA24.JPG,AFSA22.JPG,AFSA23.JPG,,,,,0,5,5,8,,,,,,,,,,,,,,,,,,,AFSA10.jpg,AFNE14.jpg,AFNE12.jpg,AFSA15.jpg,AFSA15.jpg,FS,4,num_4,16,num_4,1.03343131923,,,2017_Oct_20_1512,59.9969402934,MAFE4ImagesEEG,001,102181,
AFSA25.JPG,AFNE24.JPG,AFSA24.JPG,AFNE21.JPG,AFSA21.JPG,AFNE25.JPG,,,,,0,6,6,2,,,,,,,,,,,,,,,,,,,AFNE08.jpg,AFSA01.jpg,AFNE20.jpg,AFSA19.jpg,AFSA01.jpg,FS,4,num_6,16,num_6,0.783462671563,,,2017_Oct_20_1512,59.9969402934,MAFE4ImagesEEG,001,102181,
AMSA25.JPG,AMNE24.JPG,AMSA24.JPG,AMNE26.JPG,AMSA21.JPG,AMNE25.JPG,,,,,0,7,7,3,,,,,,,,,,,,,,,,,,,AFSA05.jpg,AFNE07.jpg,AFNE14.jpg,AFSA13.jpg,AFNE07.jpg,FN,3,num_6,16,num_6,0.650128375972,,,2017_Oct_20_1512,59.9969402934,MAFE4ImagesEEG,001,102181,
AFSA21.JPG,AFNE22.JPG,AFNE21.JPG,AFSA23.JPG,AFSA22.JPG,AFNE23.JPG,,,,,0,8,8,0,,,,,,,,,,,,,,,,,,,AFNE10.jpg,AFSA09.jpg,AFSA18.jpg,AFNE07.jpg,AFSA09.jpg,FS,4,num_6,32,num_8,0.733461629134,,,2017_Oct_20_1512,59.9969402934,MAFE4ImagesEEG,001,102181,
AFSA21.JPG,AFNE23.JPG,AFNE21.JPG,AFSA25.JPG,AFNE25.JPG,AFSA23.JPG,,,,,0,9,9,4,,,,,,,,,,,,,,,,,,,AFSA13.jpg,AFNE07.jpg,AFNE04.jpg,AFSA14.jpg,AFSA14.jpg,FS,4,num_4,16,num_4,0.533349691017,,,2017_Oct_20_1512,59.9969402934,MAFE4ImagesEEG,001,102181,
AMSA21.JPG,AMNE23.JPG,AMNE21.JPG,AMSA25.JPG,AMNE25.JPG,AMSA23.JPG,,,,,,,,,0,0,0,5,,,,,,,,,,,,,,,AMNE02.jpg,AMSA05.jpg,AMNE13.jpg,AMSA12.jpg,AMNE13.jpg,MN,1,num_2,32,num_8,0.78344952123,,,2017_Oct_20_1512,59.9969402934,MAFE4ImagesEEG,001,102181,
AFSA21.JPG,AFNE22.JPG,AFNE21.JPG,AFSA23.JPG,AFSA22.JPG,AFNE23.JPG,,,,,,,,,0,1,1,0,,,,,,,,,,,,,,,AMSA10.jpg,AMNE10.jpg,AMSA05.jpg,AMNE19.jpg,AMNE19.jpg,MN,1,num_4,16,num_4,1.28339579731,,,2017_Oct_20_1512,59.9969402934,MAFE4ImagesEEG,001,102181,
AMSA25.JPG,AMNE24.JPG,AMSA24.JPG,AMNE26.JPG,AMSA21.JPG,AMNE25.JPG,,,,,,,,,0,2,2,3,,,,,,,,,,,,,,,AMNE16.jpg,AMNE04.jpg,AMSA15.jpg,AMSA13.jpg,AMNE04.jpg,MN,1,num_6,16,num_6,0.51677451533,,,2017_Oct_20_1512,59.9969402934,MAFE4ImagesEEG,001,102181,
AFNE22.JPG,AFSA24.JPG,AFSA22.JPG,AFNE25.JPG,AFNE24.JPG,AFSA25.JPG,,,,,,,,,0,3,3,6,,,,,,,,,,,,,,,AMSA06.jpg,AMSA14.jpg,AMNE11.jpg,AMNE08.jpg,AMSA06.jpg,MS,2,num_8,32,num_4,1.18342386209,,,2017_Oct_20_1512,59.9969402934,MAFE4ImagesEEG,001,102181,
AFSA21.JPG,AFNE23.JPG,AFNE21.JPG,AFSA25.JPG,AFNE25.JPG,AFSA23.JPG,,,,,,,,,0,4,4,4,,,,,,,,,,,,,,,AMNE04.jpg,AMNE03.jpg,AMSA03.jpg,AMSA14.jpg,AMSA03.jpg,MS,2,num_2,32,num_6,1.26674781379,,,2017_Oct_20_1512,59.9969402934,MAFE4ImagesEEG,001,102181,
AMSA21.JPG,AMNE22.JPG,AMNE21.JPG,AMSA23.JPG,AMSA22.JPG,AMNE23.JPG,,,,,,,,,0,5,5,1,,,,,,,,,,,,,,,AMSA10.jpg,AMNE10.jpg,AMSA16.jpg,AMNE18.jpg,AMNE10.jpg,MN,1,num_6,16,num_6,0.766798330238,,,2017_Oct_20_1512,59.9969402934,MAFE4ImagesEEG,001,102181,
AFSA25.JPG,AFNE24.JPG,AFSA24.JPG,AFNE21.JPG,AFSA21.JPG,AFNE25.JPG,,,,,,,,,0,6,6,2,,,,,,,,,,,,,,,AMSA02.jpg,AMNE13.jpg,AMSA17.jpg,AMNE04.jpg,AMNE13.jpg,MN,1,num_6,32,num_8,0.866797207622,,,2017_Oct_20_1512,59.9969402934,MAFE4ImagesEEG,001,102181,
AMNE22.JPG,AMSA24.JPG,AMSA22.JPG,AMNE25.JPG,AMNE24.JPG,AMSA25.JPG,,,,,,,,,0,7,7,7,,,,,,,,,,,,,,,AMNE01.jpg,AMNE04.jpg,AMSA18.jpg,AMSA11.jpg,AMNE04.jpg,MN,1,num_6,16,num_6,2.33331922081,,,2017_Oct_20_1512,59.9969402934,MAFE4ImagesEEG,001,102181,
AFNE23.JPG,AFNE24.JPG,AFNE22.JPG,AFSA24.JPG,AFSA22.JPG,AFSA23.JPG,,,,,,,,,0,8,8,8,,,,,,,,,,,,,,,AMNE03.jpg,AMNE17.jpg,AMSA08.jpg,AMSA06.jpg,AMNE03.jpg,MN,1,num_8,32,num_2,1.90006334602,,,2017_Oct_20_1512,59.9969402934,MAFE4ImagesEEG,001,102181,
AMNE23.JPG,AMNE24.JPG,AMNE22.JPG,AMSA24.JPG,AMSA22.JPG,AMSA23.JPG,,,,,,,,,0,9,9,9,,,,,,,,,,,,,,,AMSA06.jpg,AMNE11.jpg,AMSA18.jpg,AMNE18.jpg,AMNE11.jpg,MN,1,num_6,16,num_6,0.750084594998,,,2017_Oct_20_1512,59.9969402934,MAFE4ImagesEEG,001,102181,
AFNE22.JPG,AFSA24.JPG,AFSA22.JPG,AFNE25.JPG,AFNE24.JPG,AFSA25.JPG,,,,,,,,,,,,,0,0,0,6,,,,,,,,,,,AFSA07.jpg,AFNE14.jpg,AFNE10.jpg,AFSA11.jpg,AFSA11.jpg,FS,4,num_4,32,num_8,0.883441021608,,,2017_Oct_20_1512,59.9969402934,MAFE4ImagesEEG,001,102181,
AFSA25.JPG,AFNE24.JPG,AFSA24.JPG,AFNE21.JPG,AFSA21.JPG,AFNE25.JPG,,,,,,,,,,,,,0,1,1,2,,,,,,,,,,,AFSA03.jpg,AFNE18.jpg,AFSA17.jpg,AFNE14.jpg,AFSA17.jpg,FS,4,num_2,32,num_8,1.10016117158,,,2017_Oct_20_1512,59.9969402934,MAFE4ImagesEEG,001,102181,
AFSA21.JPG,AFNE23.JPG,AFNE21.JPG,AFSA25.JPG,AFNE25.JPG,AFSA23.JPG,,,,,,,,,,,,,0,2,2,4,,,,,,,,,,,AFNE04.jpg,AFSA12.jpg,AFNE01.jpg,AFSA02.jpg,AFNE04.jpg,FN,3,num_8,16,num_8,1.63338352903,,,2017_Oct_20_1512,59.9969402934,MAFE4ImagesEEG,001,102181,
AMSA25.JPG,AMNE24.JPG,AMSA24.JPG,AMNE26.JPG,AMSA21.JPG,AMNE25.JPG,,,,,,,,,,,,,0,3,3,3,,,,,,,,,,,AFNE10.jpg,AFSA01.jpg,AFSA06.jpg,AFNE16.jpg,AFNE10.jpg,FN,3,num_8,16,num_8,1.70007457194,,,2017_Oct_20_1512,59.9969402934,MAFE4ImagesEEG,001,102181,
AMNE22.JPG,AMSA24.JPG,AMSA22.JPG,AMNE25.JPG,AMNE24.JPG,AMSA25.JPG,,,,,,,,,,,,,0,4,4,7,,,,,,,,,,,AFNE09.jpg,AFSA18.jpg,AFNE04.jpg,AFSA05.jpg,AFSA05.jpg,FS,4,num_4,16,num_4,0.76675984147,,,2017_Oct_20_1512,59.9969402934,MAFE4ImagesEEG,001,102181,
AMSA21.JPG,AMNE22.JPG,AMNE21.JPG,AMSA23.JPG,AMSA22.JPG,AMNE23.JPG,,,,,,,,,,,,,0,5,5,1,,,,,,,,,,,AFSA14.jpg,AFSA06.jpg,AFNE11.jpg,AFNE19.jpg,AFNE11.jpg,FN,3,num_2,16,num_2,1.73336155841,,,2017_Oct_20_1512,59.9969402934,MAFE4ImagesEEG,001,102181,
AMNE23.JPG,AMNE24.JPG,AMNE22.JPG,AMSA24.JPG,AMSA22.JPG,AMSA23.JPG,,,,,,,,,,,,,0,6,6,9,,,,,,,,,,,AFSA20.jpg,AFNE09.jpg,AFNE08.jpg,AFSA02.jpg,AFNE09.jpg,FN,3,num_6,32,num_8,1.78338665626,,,2017_Oct_20_1512,59.9969402934,MAFE4ImagesEEG,001,102181,
AMSA21.JPG,AMNE23.JPG,AMNE21.JPG,AMSA25.JPG,AMNE25.JPG,AMSA23.JPG,,,,,,,,,,,,,0,7,7,5,,,,,,,,,,,AFSA06.jpg,AFSA15.jpg,AFNE15.jpg,AFNE03.jpg,AFNE15.jpg,FN,3,num_2,32,num_6,0.566783576214,,,2017_Oct_20_1512,59.9969402934,MAFE4ImagesEEG,001,102181,
AFNE23.JPG,AFNE24.JPG,AFNE22.JPG,AFSA24.JPG,AFSA22.JPG,AFSA23.JPG,,,,,,,,,,,,,0,8,8,8,,,,,,,,,,,AFNE12.jpg,AFNE17.jpg,AFSA07.jpg,AFSA10.jpg,AFSA10.jpg,FS,4,num_4,16,num_4,2.06671060796,,,2017_Oct_20_1512,59.9969402934,MAFE4ImagesEEG,001,102181,
AFSA21.JPG,AFNE22.JPG,AFNE21.JPG,AFSA23.JPG,AFSA22.JPG,AFNE23.JPG,,,,,,,,,,,,,0,9,9,0,,,,,,,,,,,AFSA04.jpg,AFSA06.jpg,AFNE04.jpg,AFNE08.jpg,AFSA04.jpg,FS,4,num_8,32,num_6,1.00009718409,,,2017_Oct_20_1512,59.9969402934,MAFE4ImagesEEG,001,102181,
AMSA21.JPG,AMNE23.JPG,AMNE21.JPG,AMSA25.JPG,AMNE25.JPG,AMSA23.JPG,,,,,,,,,,,,,,,,,0,0,0,5,,,,,,,AMSA09.jpg,AMNE01.jpg,AMNE17.jpg,AMSA03.jpg,AMNE17.jpg,MN,1,num_2,16,num_2,2.36666586477,,,2017_Oct_20_1512,59.9969402934,MAFE4ImagesEEG,001,102181,
AMSA21.JPG,AMNE22.JPG,AMNE21.JPG,AMSA23.JPG,AMSA22.JPG,AMNE23.JPG,,,,,,,,,,,,,,,,,0,1,1,1,,,,,,,AMSA05.jpg,AMNE02.jpg,AMNE10.jpg,AMSA12.jpg,AMSA05.jpg,MS,2,num_8,16,num_8,1.45038368466,,,2017_Oct_20_1512,59.9969402934,MAFE4ImagesEEG,001,102181,
AMNE22.JPG,AMSA24.JPG,AMSA22.JPG,AMNE25.JPG,AMNE24.JPG,AMSA25.JPG,,,,,,,,,,,,,,,,,0,2,2,7,,,,,,,AMSA19.jpg,AMSA16.jpg,AMNE01.jpg,AMNE07.jpg,AMNE01.jpg,MN,1,num_2,32,num_6,1.23344062071,,,2017_Oct_20_1512,59.9969402934,MAFE4ImagesEEG,001,102181,
AFSA21.JPG,AFNE23.JPG,AFNE21.JPG,AFSA25.JPG,AFNE25.JPG,AFSA23.JPG,,,,,,,,,,,,,,,,,0,3,3,4,,,,,,,AMNE01.jpg,AMSA03.jpg,AMNE20.jpg,AMSA02.jpg,AMSA03.jpg,MS,2,num_6,16,num_6,0.51678638265,,,2017_Oct_20_1512,59.9969402934,MAFE4ImagesEEG,001,102181,
AMNE23.JPG,AMNE24.JPG,AMNE22.JPG,AMSA24.JPG,AMSA22.JPG,AMSA23.JPG,,,,,,,,,,,,,,,,,0,4,4,9,,,,,,,AMNE08.jpg,AMSA03.jpg,AMNE06.jpg,AMSA05.jpg,AMNE06.jpg,MN,1,num_2,32,num_8,1.7000691194,,,2017_Oct_20_1512,59.9969402934,MAFE4ImagesEEG,001,102181,
AMSA25.JPG,AMNE24.JPG,AMSA24.JPG,AMNE26.JPG,AMSA21.JPG,AMNE25.JPG,,,,,,,,,,,,,,,,,0,5,5,3,,,,,,,AMSA07.jpg,AMNE15.jpg,AMNE18.jpg,AMSA19.jpg,AMSA19.jpg,MS,2,num_4,32,num_6,1.33346355357,,,2017_Oct_20_1512,59.9969402934,MAFE4ImagesEEG,001,102181,
AFSA25.JPG,AFNE24.JPG,AFSA24.JPG,AFNE21.JPG,AFSA21.JPG,AFNE25.JPG,,,,,,,,,,,,,,,,,0,6,6,2,,,,,,,AMSA07.jpg,AMNE19.jpg,AMNE01.jpg,AMSA05.jpg,AMSA05.jpg,MS,2,num_4,16,num_4,1.1499559785,,,2017_Oct_20_1512,59.9969402934,MAFE4ImagesEEG,001,102181,
AFNE22.JPG,AFSA24.JPG,AFSA22.JPG,AFNE25.JPG,AFNE24.JPG,AFSA25.JPG,,,,,,,,,,,,,,,,,0,7,7,6,,,,,,,AMNE11.jpg,AMNE16.jpg,AMSA02.jpg,AMSA13.jpg,AMNE11.jpg,MN,1,num_8,32,num_4,1.06676256779,,,2017_Oct_20_1512,59.9969402934,MAFE4ImagesEEG,001,102181,
AFNE23.JPG,AFNE24.JPG,AFNE22.JPG,AFSA24.JPG,AFSA22.JPG,AFSA23.JPG,,,,,,,,,,,,,,,,,0,8,8,8,,,,,,,AMNE09.jpg,AMNE19.jpg,AMSA04.jpg,AMSA09.jpg,AMSA09.jpg,MS,2,num_4,16,num_4,1.3667232772,,,2017_Oct_20_1512,59.9969402934,MAFE4ImagesEEG,001,102181,
AFSA21.JPG,AFNE22.JPG,AFNE21.JPG,AFSA23.JPG,AFSA22.JPG,AFNE23.JPG,,,,,,,,,,,,,,,,,0,9,9,0,,,,,,,AMSA19.jpg,AMNE20.jpg,AMNE19.jpg,AMSA13.jpg,AMSA13.jpg,MS,2,num_4,16,num_4,1.39977772749,,,2017_Oct_20_1512,59.9969402934,MAFE4ImagesEEG,001,102181,
AMSA21.JPG,AMNE23.JPG,AMNE21.JPG,AMSA25.JPG,AMNE25.JPG,AMSA23.JPG,,,,,,,,,,,,,,,,,,,,,0,0,0,5,,,AFSA13.jpg,AFNE18.jpg,AFNE15.jpg,AFSA06.jpg,AFNE18.jpg,FN,3,num_6,16,num_6,0.666824470507,,,2017_Oct_20_1512,59.9969402934,MAFE4ImagesEEG,001,102181,
AFSA25.JPG,AFNE24.JPG,AFSA24.JPG,AFNE21.JPG,AFSA21.JPG,AFNE25.JPG,,,,,,,,,,,,,,,,,,,,,0,1,1,2,,,AFNE16.jpg,AFSA10.jpg,AFSA17.jpg,AFNE03.jpg,AFSA10.jpg,FS,4,num_6,32,num_8,2.03342650813,,,2017_Oct_20_1512,59.9969402934,MAFE4ImagesEEG,001,102181,
AMSA25.JPG,AMNE24.JPG,AMSA24.JPG,AMNE26.JPG,AMSA21.JPG,AMNE25.JPG,,,,,,,,,,,,,,,,,,,,,0,2,2,3,,,AFSA02.jpg,AFSA01.jpg,AFNE19.jpg,AFNE08.jpg,AFSA01.jpg,FS,4,num_6,16,num_6,0.983860067732,,,2017_Oct_20_1512,59.9969402934,MAFE4ImagesEEG,001,102181,
AMNE23.JPG,AMNE24.JPG,AMNE22.JPG,AMSA24.JPG,AMSA22.JPG,AMSA23.JPG,,,,,,,,,,,,,,,,,,,,,0,3,3,9,,,AFSA20.jpg,AFSA09.jpg,AFNE08.jpg,AFNE10.jpg,AFSA20.jpg,FS,4,num_8,16,num_8,0.78349057585,,,2017_Oct_20_1512,59.9969402934,MAFE4ImagesEEG,001,102181,
AFSA21.JPG,AFNE23.JPG,AFNE21.JPG,AFSA25.JPG,AFNE25.JPG,AFSA23.JPG,,,,,,,,,,,,,,,,,,,,,0,4,4,4,,,AFNE07.jpg,AFNE19.jpg,AFSA15.jpg,AFSA12.jpg,AFSA12.jpg,FS,4,num_4,16,num_4,0.616764412029,,,2017_Oct_20_1512,59.9969402934,MAFE4ImagesEEG,001,102181,
AFNE23.JPG,AFNE24.JPG,AFNE22.JPG,AFSA24.JPG,AFSA22.JPG,AFSA23.JPG,,,,,,,,,,,,,,,,,,,,,0,5,5,8,,,AFNE09.jpg,AFSA06.jpg,AFNE10.jpg,AFSA02.jpg,AFSA02.jpg,FS,4,num_4,32,num_6,1.51670812228,,,2017_Oct_20_1512,59.9969402934,MAFE4ImagesEEG,001,102181,
AFNE22.JPG,AFSA24.JPG,AFSA22.JPG,AFNE25.JPG,AFNE24.JPG,AFSA25.JPG,,,,,,,,,,,,,,,,,,,,,0,6,6,6,,,AFSA20.jpg,AFNE07.jpg,AFSA05.jpg,AFNE05.jpg,AFSA20.jpg,FS,4,num_8,32,num_2,2.78332122543,,,2017_Oct_20_1512,59.9969402934,MAFE4ImagesEEG,001,102181,
AMSA21.JPG,AMNE22.JPG,AMNE21.JPG,AMSA23.JPG,AMSA22.JPG,AMNE23.JPG,,,,,,,,,,,,,,,,,,,,,0,7,7,1,,,AFNE17.jpg,AFSA05.jpg,AFSA11.jpg,AFNE19.jpg,AFSA11.jpg,FS,4,num_2,16,num_2,1.450066794,,,2017_Oct_20_1512,59.9969402934,MAFE4ImagesEEG,001,102181,
AFSA21.JPG,AFNE22.JPG,AFNE21.JPG,AFSA23.JPG,AFSA22.JPG,AFNE23.JPG,,,,,,,,,,,,,,,,,,,,,0,8,8,0,,,AFNE14.jpg,AFSA02.jpg,AFNE03.jpg,AFSA12.jpg,AFNE03.jpg,FN,3,num_2,32,num_6,0.650108490139,,,2017_Oct_20_1512,59.9969402934,MAFE4ImagesEEG,001,102181,
AMNE22.JPG,AMSA24.JPG,AMSA22.JPG,AMNE25.JPG,AMNE24.JPG,AMSA25.JPG,,,,,,,,,,,,,,,,,,,,,0,9,9,7,,,AFSA05.jpg,AFNE13.jpg,AFNE01.jpg,AFSA17.jpg,AFSA05.jpg,FS,4,num_8,32,num_4,0.816825352551,,,2017_Oct_20_1512,59.9969402934,MAFE4ImagesEEG,001,102181,
,,,,,,,,,,,,,,,,,,,,,,,,,,,,,,,,,,,,,,,,,,,space,11.682237607,2017_Oct_20_1512,59.9969402934,MAFE4ImagesEEG,001,102181,
AFNE01.JPG,AFNE01.JPG,AFNE01.JPG,AFNE01.JPG,AFNE01.JPG,AFNE01.JPG,0,0,0,7,,,,,,,,,,,,,,,,,,,,,,,AMSA03.jpg,AMSA04.jpg,AMNE16.jpg,AMNE03.jpg,AMSA04.jpg,MS,2,num_6,16,num_6,0.483465718571,,,2017_Oct_20_1512,59.9969402934,MAFE4ImagesEEG,001,102181,
AFNE01.JPG,AFNE01.JPG,AFNE01.JPG,AFNE01.JPG,AFNE01.JPG,AFNE01.JPG,0,1,1,1,,,,,,,,,,,,,,,,,,,,,,,AMSA15.jpg,AMNE16.jpg,AMNE02.jpg,AMSA03.jpg,AMSA15.jpg,MS,2,num_8,16,num_8,1.85010335833,,,2017_Oct_20_1512,59.9969402934,MAFE4ImagesEEG,001,102181,
AFNE01.JPG,AFNE01.JPG,AFNE01.JPG,AFNE01.JPG,AFNE01.JPG,AFNE01.JPG,0,2,2,4,,,,,,,,,,,,,,,,,,,,,,,AMNE08.jpg,AMSA08.jpg,AMSA14.jpg,AMNE05.jpg,AMNE05.jpg,MN,1,num_4,16,num_4,0.900144813873,,,2017_Oct_20_1512,59.9969402934,MAFE4ImagesEEG,001,102181,
AFNE01.JPG,AFNE01.JPG,AFNE01.JPG,AFNE01.JPG,AFNE01.JPG,AFNE01.JPG,0,3,3,0,,,,,,,,,,,,,,,,,,,,,,,AMNE01.jpg,AMSA09.jpg,AMSA12.jpg,AMNE02.jpg,AMNE01.jpg,MN,1,num_8,32,num_6,1.13340421679,,,2017_Oct_20_1512,59.9969402934,MAFE4ImagesEEG,001,102181,
AFNE01.JPG,AFNE01.JPG,AFNE01.JPG,AFNE01.JPG,AFNE01.JPG,AFNE01.JPG,0,4,4,3,,,,,,,,,,,,,,,,,,,,,,,AMNE18.jpg,AMSA15.jpg,AMSA06.jpg,AMNE15.jpg,AMSA15.jpg,MS,2,num_6,16,num_6,0.650135432254,,,2017_Oct_20_1512,59.9969402934,MAFE4ImagesEEG,001,102181,
AFNE01.JPG,AFNE01.JPG,AFNE01.JPG,AFNE01.JPG,AFNE01.JPG,AFNE01.JPG,0,5,5,2,,,,,,,,,,,,,,,,,,,,,,,AMNE01.jpg,AMNE07.jpg,AMSA02.jpg,AMSA03.jpg,AMSA02.jpg,MS,2,num_2,16,num_2,2.15002301306,,,2017_Oct_20_1512,59.9969402934,MAFE4ImagesEEG,001,102181,
AFNE01.JPG,AFNE01.JPG,AFNE01.JPG,AFNE01.JPG,AFNE01.JPG,AFNE01.JPG,0,6,6,5,,,,,,,,,,,,,,,,,,,,,,,AMNE05.jpg,AMNE13.jpg,AMSA06.jpg,AMSA07.jpg,AMSA07.jpg,MS,2,num_4,32,num_2,1.48341600399,,,2017_Oct_20_1512,59.9969402934,MAFE4ImagesEEG,001,102181,
AFNE01.JPG,AFNE01.JPG,AFNE01.JPG,AFNE01.JPG,AFNE01.JPG,AFNE01.JPG,0,7,7,9,,,,,,,,,,,,,,,,,,,,,,,AMSA10.jpg,AMNE12.jpg,AMSA17.jpg,AMNE14.jpg,AMSA17.jpg,MS,2,num_2,32,num_8,2.24992598937,,,2017_Oct_20_1512,59.9969402934,MAFE4ImagesEEG,001,102181,
AFNE01.JPG,AFNE01.JPG,AFNE01.JPG,AFNE01.JPG,AFNE01.JPG,AFNE01.JPG,0,8,8,8,,,,,,,,,,,,,,,,,,,,,,,AMSA04.jpg,AMNE16.jpg,AMSA18.jpg,AMNE01.jpg,AMNE01.jpg,MN,1,num_4,16,num_4,1.86667372298,,,2017_Oct_20_1512,59.9969402934,MAFE4ImagesEEG,001,102181,
AFNE01.JPG,AFNE01.JPG,AFNE01.JPG,AFNE01.JPG,AFNE01.JPG,AFNE01.JPG,0,9,9,6,,,,,,,,,,,,,,,,,,,,,,,AMSA11.jpg,AMSA01.jpg,AMNE06.jpg,AMNE14.jpg,AMSA11.jpg,MS,2,num_8,32,num_6,0.783474218159,,,2017_Oct_20_1512,59.9969402934,MAFE4ImagesEEG,001,102181,
AFNE01.JPG,AFNE01.JPG,AFNE01.JPG,AFNE01.JPG,AFNE01.JPG,AFNE01.JPG,1,0,10,0,,,,,,,,,,,,,,,,,,,,,,,AMSA18.jpg,AMNE18.jpg,AMSA10.jpg,AMNE14.jpg,AMSA18.jpg,MS,2,num_8,16,num_8,1.23342490447,,,2017_Oct_20_1512,59.9969402934,MAFE4ImagesEEG,001,102181,
AFNE01.JPG,AFNE01.JPG,AFNE01.JPG,AFNE01.JPG,AFNE01.JPG,AFNE01.JPG,1,1,11,6,,,,,,,,,,,,,,,,,,,,,,,AMSA19.jpg,AMNE06.jpg,AMSA12.jpg,AMNE03.jpg,AMSA12.jpg,MS,2,num_2,32,num_6,2.08338649588,,,2017_Oct_20_1512,59.9969402934,MAFE4ImagesEEG,001,102181,
AFNE01.JPG,AFNE01.JPG,AFNE01.JPG,AFNE01.JPG,AFNE01.JPG,AFNE01.JPG,1,2,12,8,,,,,,,,,,,,,,,,,,,,,,,AMNE03.jpg,AMSA09.jpg,AMSA08.jpg,AMNE16.jpg,AMNE03.jpg,MN,1,num_8,32,num_2,2.2833403094,,,2017_Oct_20_1512,59.9969402934,MAFE4ImagesEEG,001,102181,
AFNE01.JPG,AFNE01.JPG,AFNE01.JPG,AFNE01.JPG,AFNE01.JPG,AFNE01.JPG,1,3,13,1,,,,,,,,,,,,,,,,,,,,,,,AMNE16.jpg,AMNE13.jpg,AMSA02.jpg,AMSA11.jpg,AMNE16.jpg,MN,1,num_8,16,num_8,4.6497107732,,,2017_Oct_20_1512,59.9969402934,MAFE4ImagesEEG,001,102181,
AFNE01.JPG,AFNE01.JPG,AFNE01.JPG,AFNE01.JPG,AFNE01.JPG,AFNE01.JPG,1,4,14,9,,,,,,,,,,,,,,,,,,,,,,,AMNE13.jpg,AMSA04.jpg,AMNE03.jpg,AMSA16.jpg,AMSA04.jpg,MS,2,num_6,16,num_6,0.433503806358,,,2017_Oct_20_1512,59.9969402934,MAFE4ImagesEEG,001,102181,
AFNE01.JPG,AFNE01.JPG,AFNE01.JPG,AFNE01.JPG,AFNE01.JPG,AFNE01.JPG,1,5,15,4,,,,,,,,,,,,,,,,,,,,,,,AMSA05.jpg,AMNE01.jpg,AMSA17.jpg,AMNE04.jpg,AMSA05.jpg,MS,2,num_8,32,num_2,1.65006390738,,,2017_Oct_20_1512,59.9969402934,MAFE4ImagesEEG,001,102181,
AFNE01.JPG,AFNE01.JPG,AFNE01.JPG,AFNE01.JPG,AFNE01.JPG,AFNE01.JPG,1,6,16,2,,,,,,,,,,,,,,,,,,,,,,,AMNE11.jpg,AMSA19.jpg,AMNE03.jpg,AMSA18.jpg,AMSA18.jpg,MS,2,num_4,16,num_4,1.85004081408,,,2017_Oct_20_1512,59.9969402934,MAFE4ImagesEEG,001,102181,
AFNE01.JPG,AFNE01.JPG,AFNE01.JPG,AFNE01.JPG,AFNE01.JPG,AFNE01.JPG,1,7,17,7,,,,,,,,,,,,,,,,,,,,,,,AMSA09.jpg,AMSA02.jpg,AMNE01.jpg,AMNE18.jpg,AMNE18.jpg,MN,1,num_4,32,num_8,1.13342025375,,,2017_Oct_20_1512,59.9969402934,MAFE4ImagesEEG,001,102181,
AFNE01.JPG,AFNE01.JPG,AFNE01.JPG,AFNE01.JPG,AFNE01.JPG,AFNE01.JPG,1,8,18,5,,,,,,,,,,,,,,,,,,,,,,,AMNE02.jpg,AMNE17.jpg,AMSA02.jpg,AMSA19.jpg,AMNE02.jpg,MN,1,num_8,32,num_6,0.666799132072,,,2017_Oct_20_1512,59.9969402934,MAFE4ImagesEEG,001,102181,
AFNE01.JPG,AFNE01.JPG,AFNE01.JPG,AFNE01.JPG,AFNE01.JPG,AFNE01.JPG,1,9,19,3,,,,,,,,,,,,,,,,,,,,,,,AMNE03.jpg,AMSA20.jpg,AMSA17.jpg,AMNE02.jpg,AMNE03.jpg,MN,1,num_8,32,num_4,0.800106164825,,,2017_Oct_20_1512,59.9969402934,MAFE4ImagesEEG,001,102181,
AFNE01.JPG,AFNE01.JPG,AFNE01.JPG,AFNE01.JPG,AFNE01.JPG,AFNE01.JPG,2,0,20,1,,,,,,,,,,,,,,,,,,,,,,,AMNE17.jpg,AMNE05.jpg,AMSA10.jpg,AMSA06.jpg,AMSA06.jpg,MS,2,num_4,16,num_4,1.13367620384,,,2017_Oct_20_1512,59.9969402934,MAFE4ImagesEEG,001,102181,
AFNE01.JPG,AFNE01.JPG,AFNE01.JPG,AFNE01.JPG,AFNE01.JPG,AFNE01.JPG,2,1,21,7,,,,,,,,,,,,,,,,,,,,,,,AMNE18.jpg,AMSA14.jpg,AMSA15.jpg,AMNE08.jpg,AMSA15.jpg,MS,2,num_2,48,None,,,,2017_Oct_20_1512,59.9969402934,MAFE4ImagesEEG,001,102181,
AFNE01.JPG,AFNE01.JPG,AFNE01.JPG,AFNE01.JPG,AFNE01.JPG,AFNE01.JPG,2,2,22,0,,,,,,,,,,,,,,,,,,,,,,,AMNE10.jpg,AMNE11.jpg,AMSA18.jpg,AMSA05.jpg,AMNE11.jpg,MN,1,num_6,32,num_4,2.83333638037,,,2017_Oct_20_1512,59.9969402934,MAFE4ImagesEEG,001,102181,
AFNE01.JPG,AFNE01.JPG,AFNE01.JPG,AFNE01.JPG,AFNE01.JPG,AFNE01.JPG,2,3,23,6,,,,,,,,,,,,,,,,,,,,,,,AMNE07.jpg,AMNE13.jpg,AMSA17.jpg,AMSA05.jpg,AMNE07.jpg,MN,1,num_8,32,num_2,2.66661021649,,,2017_Oct_20_1512,59.9969402934,MAFE4ImagesEEG,001,102181,
AFNE01.JPG,AFNE01.JPG,AFNE01.JPG,AFNE01.JPG,AFNE01.JPG,AFNE01.JPG,2,4,24,8,,,,,,,,,,,,,,,,,,,,,,,AMNE06.jpg,AMNE15.jpg,AMSA09.jpg,AMSA16.jpg,AMNE15.jpg,MN,1,num_6,16,num_6,0.500211527746,,,2017_Oct_20_1512,59.9969402934,MAFE4ImagesEEG,001,102181,
AFNE01.JPG,AFNE01.JPG,AFNE01.JPG,AFNE01.JPG,AFNE01.JPG,AFNE01.JPG,2,5,25,3,,,,,,,,,,,,,,,,,,,,,,,AMNE07.jpg,AMNE16.jpg,AMSA06.jpg,AMSA18.jpg,AMNE16.jpg,MN,1,num_6,16,num_6,0.800049393903,,,2017_Oct_20_1512,59.9969402934,MAFE4ImagesEEG,001,102181,
AFNE01.JPG,AFNE01.JPG,AFNE01.JPG,AFNE01.JPG,AFNE01.JPG,AFNE01.JPG,2,6,26,9,,,,,,,,,,,,,,,,,,,,,,,AMSA13.jpg,AMNE08.jpg,AMNE13.jpg,AMSA07.jpg,AMSA07.jpg,MS,2,num_4,16,num_4,3.46628723183,,,2017_Oct_20_1512,59.9969402934,MAFE4ImagesEEG,001,102181,
AFNE01.JPG,AFNE01.JPG,AFNE01.JPG,AFNE01.JPG,AFNE01.JPG,AFNE01.JPG,2,7,27,2,,,,,,,,,,,,,,,,,,,,,,,AMSA12.jpg,AMNE04.jpg,AMNE05.jpg,AMSA20.jpg,AMNE04.jpg,MN,1,num_6,16,num_6,0.466771869222,,,2017_Oct_20_1512,59.9969402934,MAFE4ImagesEEG,001,102181,
AFNE01.JPG,AFNE01.JPG,AFNE01.JPG,AFNE01.JPG,AFNE01.JPG,AFNE01.JPG,2,8,28,4,,,,,,,,,,,,,,,,,,,,,,,AMSA10.jpg,AMSA06.jpg,AMNE19.jpg,AMNE07.jpg,AMSA06.jpg,MS,2,num_6,16,num_6,0.450168468407,,,2017_Oct_20_1512,59.9969402934,MAFE4ImagesEEG,001,102181,
AFNE01.JPG,AFNE01.JPG,AFNE01.JPG,AFNE01.JPG,AFNE01.JPG,AFNE01.JPG,2,9,29,5,,,,,,,,,,,,,,,,,,,,,,,AMSA12.jpg,AMNE04.jpg,AMSA07.jpg,AMNE11.jpg,AMSA12.jpg,MS,2,num_8,32,num_4,0.883430757967,,,2017_Oct_20_1512,59.9969402934,MAFE4ImagesEEG,001,102181,
AFNE01.JPG,AFNE01.JPG,AFNE01.JPG,AFNE01.JPG,AFNE01.JPG,AFNE01.JPG,3,0,30,6,,,,,,,,,,,,,,,,,,,,,,,AMSA17.jpg,AMNE10.jpg,AMSA02.jpg,AMNE11.jpg,AMNE11.jpg,MN,1,num_4,16,num_4,1.05016782694,,,2017_Oct_20_1512,59.9969402934,MAFE4ImagesEEG,001,102181,
AFNE01.JPG,AFNE01.JPG,AFNE01.JPG,AFNE01.JPG,AFNE01.JPG,AFNE01.JPG,3,1,31,0,,,,,,,,,,,,,,,,,,,,,,,AMNE17.jpg,AMSA08.jpg,AMNE15.jpg,AMSA20.jpg,AMSA08.jpg,MS,2,num_6,16,num_6,0.950125008239,,,2017_Oct_20_1512,59.9969402934,MAFE4ImagesEEG,001,102181,
AFNE01.JPG,AFNE01.JPG,AFNE01.JPG,AFNE01.JPG,AFNE01.JPG,AFNE01.JPG,3,2,32,4,,,,,,,,,,,,,,,,,,,,,,,AMSA04.jpg,AMNE12.jpg,AMNE18.jpg,AMSA20.jpg,AMSA04.jpg,MS,2,num_8,32,num_6,1.75010608463,,,2017_Oct_20_1512,59.9969402934,MAFE4ImagesEEG,001,102181,
AFNE01.JPG,AFNE01.JPG,AFNE01.JPG,AFNE01.JPG,AFNE01.JPG,AFNE01.JPG,3,3,33,8,,,,,,,,,,,,,,,,,,,,,,,AMSA07.jpg,AMNE18.jpg,AMNE02.jpg,AMSA04.jpg,AMSA07.jpg,MS,2,num_8,16,num_8,0.850171034341,,,2017_Oct_20_1512,59.9969402934,MAFE4ImagesEEG,001,102181,
AFNE01.JPG,AFNE01.JPG,AFNE01.JPG,AFNE01.JPG,AFNE01.JPG,AFNE01.JPG,3,4,34,7,,,,,,,,,,,,,,,,,,,,,,,AMNE13.jpg,AMSA18.jpg,AMNE06.jpg,AMSA03.jpg,AMSA03.jpg,MS,2,num_4,16,num_4,0.65016173292,,,2017_Oct_20_1512,59.9969402934,MAFE4ImagesEEG,001,102181,
AFNE01.JPG,AFNE01.JPG,AFNE01.JPG,AFNE01.JPG,AFNE01.JPG,AFNE01.JPG,3,5,35,2,,,,,,,,,,,,,,,,,,,,,,,AMSA09.jpg,AMNE16.jpg,AMSA20.jpg,AMNE20.jpg,AMSA09.jpg,MS,2,num_8,32,num_2,4.45018931647,,,2017_Oct_20_1512,59.9969402934,MAFE4ImagesEEG,001,102181,
AFNE01.JPG,AFNE01.JPG,AFNE01.JPG,AFNE01.JPG,AFNE01.JPG,AFNE01.JPG,3,6,36,3,,,,,,,,,,,,,,,,,,,,,,,AMNE14.jpg,AMNE05.jpg,AMSA16.jpg,AMSA11.jpg,AMSA16.jpg,MS,2,num_2,32,num_6,0.833459544287,,,2017_Oct_20_1512,59.9969402934,MAFE4ImagesEEG,001,102181,
AFNE01.JPG,AFNE01.JPG,AFNE01.JPG,AFNE01.JPG,AFNE01.JPG,AFNE01.JPG,3,7,37,9,,,,,,,,,,,,,,,,,,,,,,,AMSA04.jpg,AMSA17.jpg,AMNE19.jpg,AMNE10.jpg,AMNE19.jpg,MN,1,num_2,32,num_8,2.84998276026,,,2017_Oct_20_1512,59.9969402934,MAFE4ImagesEEG,001,102181,
AFNE01.JPG,AFNE01.JPG,AFNE01.JPG,AFNE01.JPG,AFNE01.JPG,AFNE01.JPG,3,8,38,5,,,,,,,,,,,,,,,,,,,,,,,AMSA06.jpg,AMNE17.jpg,AMSA13.jpg,AMNE14.jpg,AMSA06.jpg,MS,2,num_8,48,None,,,,2017_Oct_20_1512,59.9969402934,MAFE4ImagesEEG,001,102181,
AFNE01.JPG,AFNE01.JPG,AFNE01.JPG,AFNE01.JPG,AFNE01.JPG,AFNE01.JPG,3,9,39,1,,,,,,,,,,,,,,,,,,,,,,,AMSA20.jpg,AMNE11.jpg,AMSA07.jpg,AMNE02.jpg,AMSA20.jpg,MS,2,num_8,32,num_6,0.716779005714,,,2017_Oct_20_1512,59.9969402934,MAFE4ImagesEEG,001,102181,
AFNE01.JPG,AFNE01.JPG,AFNE01.JPG,AFNE01.JPG,AFNE01.JPG,AFNE01.JPG,4,0,40,5,,,,,,,,,,,,,,,,,,,,,,,AMSA16.jpg,AMNE11.jpg,AMNE17.jpg,AMSA18.jpg,AMNE17.jpg,MN,1,num_2,16,num_2,2.15001756046,,,2017_Oct_20_1512,59.9969402934,MAFE4ImagesEEG,001,102181,
AFNE01.JPG,AFNE01.JPG,AFNE01.JPG,AFNE01.JPG,AFNE01.JPG,AFNE01.JPG,4,1,41,3,,,,,,,,,,,,,,,,,,,,,,,AMNE09.jpg,AMSA19.jpg,AMSA18.jpg,AMNE16.jpg,AMNE09.jpg,MN,1,num_8,16,num_8,1.25007577467,,,2017_Oct_20_1512,59.9969402934,MAFE4ImagesEEG,001,102181,
AFNE01.JPG,AFNE01.JPG,AFNE01.JPG,AFNE01.JPG,AFNE01.JPG,AFNE01.JPG,4,2,42,8,,,,,,,,,,,,,,,,,,,,,,,AMNE01.jpg,AMSA10.jpg,AMNE06.jpg,AMSA06.jpg,AMNE06.jpg,MN,1,num_2,32,num_4,0.933419932961,,,2017_Oct_20_1512,59.9969402934,MAFE4ImagesEEG,001,102181,
AFNE01.JPG,AFNE01.JPG,AFNE01.JPG,AFNE01.JPG,AFNE01.JPG,AFNE01.JPG,4,3,43,7,,,,,,,,,,,,,,,,,,,,,,,AMSA14.jpg,AMNE17.jpg,AMNE12.jpg,AMSA20.jpg,AMSA14.jpg,MS,2,num_8,16,num_8,1.41672977211,,,2017_Oct_20_1512,59.9969402934,MAFE4ImagesEEG,001,102181,
AFNE01.JPG,AFNE01.JPG,AFNE01.JPG,AFNE01.JPG,AFNE01.JPG,AFNE01.JPG,4,4,44,4,,,,,,,,,,,,,,,,,,,,,,,AMSA11.jpg,AMNE02.jpg,AMNE11.jpg,AMSA20.jpg,AMSA20.jpg,MS,2,num_4,32,num_2,3.79989159002,,,2017_Oct_20_1512,59.9969402934,MAFE4ImagesEEG,001,102181,
AFNE01.JPG,AFNE01.JPG,AFNE01.JPG,AFNE01.JPG,AFNE01.JPG,AFNE01.JPG,4,5,45,6,,,,,,,,,,,,,,,,,,,,,,,AMNE17.jpg,AMNE19.jpg,AMSA13.jpg,AMSA16.jpg,AMSA16.jpg,MS,2,num_4,32,num_6,0.383482557372,,,2017_Oct_20_1512,59.9969402934,MAFE4ImagesEEG,001,102181,
AFNE01.JPG,AFNE01.JPG,AFNE01.JPG,AFNE01.JPG,AFNE01.JPG,AFNE01.JPG,4,6,46,2,,,,,,,,,,,,,,,,,,,,,,,AMSA02.jpg,AMNE19.jpg,AMNE02.jpg,AMSA20.jpg,AMNE19.jpg,MN,1,num_6,16,num_6,1.00027423224,,,2017_Oct_20_1512,59.9969402934,MAFE4ImagesEEG,001,102181,
AFNE01.JPG,AFNE01.JPG,AFNE01.JPG,AFNE01.JPG,AFNE01.JPG,AFNE01.JPG,4,7,47,1,,,,,,,,,,,,,,,,,,,,,,,AMSA16.jpg,AMSA06.jpg,AMNE02.jpg,AMNE19.jpg,AMSA16.jpg,MS,2,num_8,16,num_8,2.24996993068,,,2017_Oct_20_1512,59.9969402934,MAFE4ImagesEEG,001,102181,
AFNE01.JPG,AFNE01.JPG,AFNE01.JPG,AFNE01.JPG,AFNE01.JPG,AFNE01.JPG,4,8,48,9,,,,,,,,,,,,,,,,,,,,,,,AMSA12.jpg,AMSA07.jpg,AMNE04.jpg,AMNE19.jpg,AMSA07.jpg,MS,2,num_6,32,num_2,1.43340373569,,,2017_Oct_20_1512,59.9969402934,MAFE4ImagesEEG,001,102181,
AFNE01.JPG,AFNE01.JPG,AFNE01.JPG,AFNE01.JPG,AFNE01.JPG,AFNE01.JPG,4,9,49,0,,,,,,,,,,,,,,,,,,,,,,,AMSA14.jpg,AMSA06.jpg,AMNE14.jpg,AMNE09.jpg,AMSA14.jpg,MS,2,num_8,16,num_8,0.783494103991,,,2017_Oct_20_1512,59.9969402934,MAFE4ImagesEEG,001,102181,
AFNE01.JPG,AFNE01.JPG,AFNE01.JPG,AFNE01.JPG,AFNE01.JPG,AFNE01.JPG,5,0,50,2,,,,,,,,,,,,,,,,,,,,,,,AMSA17.jpg,AMNE18.jpg,AMSA03.jpg,AMNE20.jpg,AMSA03.jpg,MS,2,num_2,16,num_2,0.966732578643,,,2017_Oct_20_1512,59.9969402934,MAFE4ImagesEEG,001,102181,
AFNE01.JPG,AFNE01.JPG,AFNE01.JPG,AFNE01.JPG,AFNE01.JPG,AFNE01.JPG,5,1,51,4,,,,,,,,,,,,,,,,,,,,,,,AMNE20.jpg,AMSA06.jpg,AMNE05.jpg,AMSA13.jpg,AMSA13.jpg,MS,2,num_4,32,num_2,1.70006494975,,,2017_Oct_20_1512,59.9969402934,MAFE4ImagesEEG,001,102181,
AFNE01.JPG,AFNE01.JPG,AFNE01.JPG,AFNE01.JPG,AFNE01.JPG,AFNE01.JPG,5,2,52,0,,,,,,,,,,,,,,,,,,,,,,,AMSA08.jpg,AMSA10.jpg,AMNE06.jpg,AMNE02.jpg,AMNE06.jpg,MN,1,num_2,32,num_4,1.0501181123,,,2017_Oct_20_1512,59.9969402934,MAFE4ImagesEEG,001,102181,
AFNE01.JPG,AFNE01.JPG,AFNE01.JPG,AFNE01.JPG,AFNE01.JPG,AFNE01.JPG,5,3,53,7,,,,,,,,,,,,,,,,,,,,,,,AMSA11.jpg,AMNE05.jpg,AMNE09.jpg,AMSA06.jpg,AMNE09.jpg,MN,1,num_2,32,num_6,1.90004859201,,,2017_Oct_20_1512,59.9969402934,MAFE4ImagesEEG,001,102181,
AFNE01.JPG,AFNE01.JPG,AFNE01.JPG,AFNE01.JPG,AFNE01.JPG,AFNE01.JPG,5,4,54,8,,,,,,,,,,,,,,,,,,,,,,,AMNE17.jpg,AMSA09.jpg,AMSA10.jpg,AMNE12.jpg,AMSA10.jpg,MS,2,num_2,32,num_4,2.59995798313,,,2017_Oct_20_1512,59.9969402934,MAFE4ImagesEEG,001,102181,
AFNE01.JPG,AFNE01.JPG,AFNE01.JPG,AFNE01.JPG,AFNE01.JPG,AFNE01.JPG,5,5,55,1,,,,,,,,,,,,,,,,,,,,,,,AMSA04.jpg,AMSA10.jpg,AMNE19.jpg,AMNE01.jpg,AMSA10.jpg,MS,2,num_6,16,num_6,0.650166543957,,,2017_Oct_20_1512,59.9969402934,MAFE4ImagesEEG,001,102181,
AFNE01.JPG,AFNE01.JPG,AFNE01.JPG,AFNE01.JPG,AFNE01.JPG,AFNE01.JPG,5,6,56,5,,,,,,,,,,,,,,,,,,,,,,,AMSA12.jpg,AMNE04.jpg,AMNE13.jpg,AMSA10.jpg,AMSA12.jpg,MS,2,num_8,16,num_8,1.60004682792,,,2017_Oct_20_1512,59.9969402934,MAFE4ImagesEEG,001,102181,
AFNE01.JPG,AFNE01.JPG,AFNE01.JPG,AFNE01.JPG,AFNE01.JPG,AFNE01.JPG,5,7,57,9,,,,,,,,,,,,,,,,,,,,,,,AMNE09.jpg,AMSA03.jpg,AMNE01.jpg,AMSA08.jpg,AMNE09.jpg,MN,1,num_8,16,num_8,1.98332635721,,,2017_Oct_20_1512,59.9969402934,MAFE4ImagesEEG,001,102181,
AFNE01.JPG,AFNE01.JPG,AFNE01.JPG,AFNE01.JPG,AFNE01.JPG,AFNE01.JPG,5,8,58,3,,,,,,,,,,,,,,,,,,,,,,,AMNE13.jpg,AMSA19.jpg,AMNE04.jpg,AMSA02.jpg,AMNE04.jpg,MN,1,num_2,32,num_6,0.967075769906,,,2017_Oct_20_1512,59.9969402934,MAFE4ImagesEEG,001,102181,
AFNE01.JPG,AFNE01.JPG,AFNE01.JPG,AFNE01.JPG,AFNE01.JPG,AFNE01.JPG,5,9,59,6,,,,,,,,,,,,,,,,,,,,,,,AMNE12.jpg,AMNE06.jpg,AMSA08.jpg,AMSA15.jpg,AMNE12.jpg,MN,1,num_8,16,num_8,2.11666225654,,,2017_Oct_20_1512,59.9969402934,MAFE4ImagesEEG,001,102181,
,,,,,,,,,,,,,,,,,,,,,,,,,,,,,,,,,,,,,,,,,,,space,26.0481522999,2017_Oct_20_1512,59.9969402934,MAFE4ImagesEEG,001,102181,
AFNE01.JPG,AFNE01.JPG,AFNE01.JPG,AFNE01.JPG,AFNE01.JPG,AFNE01.JPG,,,,,0,0,0,5,,,,,,,,,,,,,,,,,,,AFNE13.jpg,AFNE12.jpg,AFSA17.jpg,AFSA06.jpg,AFSA17.jpg,FS,4,num_2,32,num_4,0.983192929591,,,2017_Oct_20_1512,59.9969402934,MAFE4ImagesEEG,001,102181,
AFNE01.JPG,AFNE01.JPG,AFNE01.JPG,AFNE01.JPG,AFNE01.JPG,AFNE01.JPG,,,,,0,1,1,6,,,,,,,,,,,,,,,,,,,AFNE02.jpg,AFSA15.jpg,AFSA16.jpg,AFNE18.jpg,AFNE18.jpg,FN,3,num_4,16,num_4,1.33320439601,,,2017_Oct_20_1512,59.9969402934,MAFE4ImagesEEG,001,102181,
AFNE01.JPG,AFNE01.JPG,AFNE01.JPG,AFNE01.JPG,AFNE01.JPG,AFNE01.JPG,,,,,0,2,2,7,,,,,,,,,,,,,,,,,,,AFSA20.jpg,AFNE12.jpg,AFSA18.jpg,AFNE18.jpg,AFNE12.jpg,FN,3,num_6,16,num_6,0.783503084735,,,2017_Oct_20_1512,59.9969402934,MAFE4ImagesEEG,001,102181,
AFNE01.JPG,AFNE01.JPG,AFNE01.JPG,AFNE01.JPG,AFNE01.JPG,AFNE01.JPG,,,,,0,3,3,8,,,,,,,,,,,,,,,,,,,AFNE14.jpg,AFNE11.jpg,AFSA15.jpg,AFSA06.jpg,AFSA15.jpg,FS,4,num_2,32,num_8,1.00005869532,,,2017_Oct_20_1512,59.9969402934,MAFE4ImagesEEG,001,102181,
AFNE01.JPG,AFNE01.JPG,AFNE01.JPG,AFNE01.JPG,AFNE01.JPG,AFNE01.JPG,,,,,0,4,4,2,,,,,,,,,,,,,,,,,,,AFNE17.jpg,AFNE06.jpg,AFSA08.jpg,AFSA02.jpg,AFSA08.jpg,FS,4,num_2,32,num_4,1.9834921796,,,2017_Oct_20_1512,59.9969402934,MAFE4ImagesEEG,001,102181,
AFNE01.JPG,AFNE01.JPG,AFNE01.JPG,AFNE01.JPG,AFNE01.JPG,AFNE01.JPG,,,,,0,5,5,4,,,,,,,,,,,,,,,,,,,AFSA05.jpg,AFSA20.jpg,AFNE11.jpg,AFNE15.jpg,AFSA20.jpg,FS,4,num_6,16,num_6,1.16673963494,,,2017_Oct_20_1512,59.9969402934,MAFE4ImagesEEG,001,102181,
AFNE01.JPG,AFNE01.JPG,AFNE01.JPG,AFNE01.JPG,AFNE01.JPG,AFNE01.JPG,,,,,0,6,6,9,,,,,,,,,,,,,,,,,,,AFSA07.jpg,AFNE05.jpg,AFSA17.jpg,AFNE10.jpg,AFSA07.jpg,FS,4,num_8,16,num_8,1.56669024104,,,2017_Oct_20_1512,59.9969402934,MAFE4ImagesEEG,001,102181,
AFNE01.JPG,AFNE01.JPG,AFNE01.JPG,AFNE01.JPG,AFNE01.JPG,AFNE01.JPG,,,,,0,7,7,3,,,,,,,,,,,,,,,,,,,AFSA20.jpg,AFSA12.jpg,AFNE19.jpg,AFNE09.jpg,AFSA20.jpg,FS,4,num_8,16,num_8,1.75007465208,,,2017_Oct_20_1512,59.9969402934,MAFE4ImagesEEG,001,102181,
AFNE01.JPG,AFNE01.JPG,AFNE01.JPG,AFNE01.JPG,AFNE01.JPG,AFNE01.JPG,,,,,0,8,8,0,,,,,,,,,,,,,,,,,,,AFNE20.jpg,AFSA01.jpg,AFSA15.jpg,AFNE03.jpg,AFSA15.jpg,FS,4,num_2,16,num_2,3.96651383431,,,2017_Oct_20_1512,59.9969402934,MAFE4ImagesEEG,001,102181,
AFNE01.JPG,AFNE01.JPG,AFNE01.JPG,AFNE01.JPG,AFNE01.JPG,AFNE01.JPG,,,,,0,9,9,1,,,,,,,,,,,,,,,,,,,AFNE05.jpg,AFSA18.jpg,AFSA15.jpg,AFNE04.jpg,AFSA15.jpg,FS,4,num_2,16,num_2,2.01666722796,,,2017_Oct_20_1512,59.9969402934,MAFE4ImagesEEG,001,102181,
AFNE01.JPG,AFNE01.JPG,AFNE01.JPG,AFNE01.JPG,AFNE01.JPG,AFNE01.JPG,,,,,1,0,10,5,,,,,,,,,,,,,,,,,,,AFNE05.jpg,AFSA09.jpg,AFNE16.jpg,AFSA10.jpg,AFNE16.jpg,FN,3,num_2,32,num_4,1.25007096358,,,2017_Oct_20_1512,59.9969402934,MAFE4ImagesEEG,001,102181,
AFNE01.JPG,AFNE01.JPG,AFNE01.JPG,AFNE01.JPG,AFNE01.JPG,AFNE01.JPG,,,,,1,1,11,2,,,,,,,,,,,,,,,,,,,AFNE12.jpg,AFNE13.jpg,AFSA01.jpg,AFSA15.jpg,AFNE13.jpg,FN,3,num_6,16,num_6,0.966859912209,,,2017_Oct_20_1512,59.9969402934,MAFE4ImagesEEG,001,102181,
AFNE01.JPG,AFNE01.JPG,AFNE01.JPG,AFNE01.JPG,AFNE01.JPG,AFNE01.JPG,,,,,1,2,12,3,,,,,,,,,,,,,,,,,,,AFNE05.jpg,AFSA12.jpg,AFNE03.jpg,AFSA01.jpg,AFNE05.jpg,FN,3,num_8,16,num_8,1.5001204377,,,2017_Oct_20_1512,59.9969402934,MAFE4ImagesEEG,001,102181,
AFNE01.JPG,AFNE01.JPG,AFNE01.JPG,AFNE01.JPG,AFNE01.JPG,AFNE01.JPG,,,,,1,3,13,4,,,,,,,,,,,,,,,,,,,AFSA04.jpg,AFSA05.jpg,AFNE09.jpg,AFNE14.jpg,AFSA04.jpg,FS,4,num_8,32,num_2,1.33339683973,,,2017_Oct_20_1512,59.9969402934,MAFE4ImagesEEG,001,102181,
AFNE01.JPG,AFNE01.JPG,AFNE01.JPG,AFNE01.JPG,AFNE01.JPG,AFNE01.JPG,,,,,1,4,14,8,,,,,,,,,,,,,,,,,,,AFNE08.jpg,AFNE06.jpg,AFSA01.jpg,AFSA15.jpg,AFSA01.jpg,FS,4,num_2,32,num_6,1.20009878778,,,2017_Oct_20_1512,59.9969402934,MAFE4ImagesEEG,001,102181,
AFNE01.JPG,AFNE01.JPG,AFNE01.JPG,AFNE01.JPG,AFNE01.JPG,AFNE01.JPG,,,,,1,5,15,6,,,,,,,,,,,,,,,,,,,AFSA19.jpg,AFNE09.jpg,AFSA14.jpg,AFNE10.jpg,AFNE10.jpg,FN,3,num_4,32,num_2,2.15016061033,,,2017_Oct_20_1512,59.9969402934,MAFE4ImagesEEG,001,102181,
AFNE01.JPG,AFNE01.JPG,AFNE01.JPG,AFNE01.JPG,AFNE01.JPG,AFNE01.JPG,,,,,1,6,16,7,,,,,,,,,,,,,,,,,,,AFNE14.jpg,AFSA13.jpg,AFNE12.jpg,AFSA12.jpg,AFSA13.jpg,FS,4,num_6,16,num_6,1.4999263903,,,2017_Oct_20_1512,59.9969402934,MAFE4ImagesEEG,001,102181,
AFNE01.JPG,AFNE01.JPG,AFNE01.JPG,AFNE01.JPG,AFNE01.JPG,AFNE01.JPG,,,,,1,7,17,1,,,,,,,,,,,,,,,,,,,AFSA20.jpg,AFSA03.jpg,AFNE20.jpg,AFNE05.jpg,AFSA03.jpg,FS,4,num_6,32,num_4,1.38344855903,,,2017_Oct_20_1512,59.9969402934,MAFE4ImagesEEG,001,102181,
AFNE01.JPG,AFNE01.JPG,AFNE01.JPG,AFNE01.JPG,AFNE01.JPG,AFNE01.JPG,,,,,1,8,18,9,,,,,,,,,,,,,,,,,,,AFNE09.jpg,AFSA06.jpg,AFSA01.jpg,AFNE12.jpg,AFSA01.jpg,FS,4,num_2,32,num_6,1.00017255783,,,2017_Oct_20_1512,59.9969402934,MAFE4ImagesEEG,001,102181,
AFNE01.JPG,AFNE01.JPG,AFNE01.JPG,AFNE01.JPG,AFNE01.JPG,AFNE01.JPG,,,,,1,9,19,0,,,,,,,,,,,,,,,,,,,AFSA12.jpg,AFNE09.jpg,AFNE07.jpg,AFSA15.jpg,AFNE09.jpg,FN,3,num_6,16,num_6,0.633384170593,,,2017_Oct_20_1512,59.9969402934,MAFE4ImagesEEG,001,102181,
AFNE01.JPG,AFNE01.JPG,AFNE01.JPG,AFNE01.JPG,AFNE01.JPG,AFNE01.JPG,,,,,2,0,20,9,,,,,,,,,,,,,,,,,,,AFNE13.jpg,AFNE09.jpg,AFSA10.jpg,AFSA12.jpg,AFNE13.jpg,FN,3,num_8,32,num_2,2.14972376311,,,2017_Oct_20_1512,59.9969402934,MAFE4ImagesEEG,001,102181,
AFNE01.JPG,AFNE01.JPG,AFNE01.JPG,AFNE01.JPG,AFNE01.JPG,AFNE01.JPG,,,,,2,1,21,1,,,,,,,,,,,,,,,,,,,AFNE13.jpg,AFNE01.jpg,AFSA03.jpg,AFSA14.jpg,AFNE01.jpg,FN,3,num_6,16,num_6,1.31672415923,,,2017_Oct_20_1512,59.9969402934,MAFE4ImagesEEG,001,102181,
AFNE01.JPG,AFNE01.JPG,AFNE01.JPG,AFNE01.JPG,AFNE01.JPG,AFNE01.JPG,,,,,2,2,22,0,,,,,,,,,,,,,,,,,,,AFSA12.jpg,AFSA15.jpg,AFNE07.jpg,AFNE16.jpg,AFSA12.jpg,FS,4,num_8,48,None,,,,2017_Oct_20_1512,59.9969402934,MAFE4ImagesEEG,001,102181,
AFNE01.JPG,AFNE01.JPG,AFNE01.JPG,AFNE01.JPG,AFNE01.JPG,AFNE01.JPG,,,,,2,3,23,8,,,,,,,,,,,,,,,,,,,AFSA09.jpg,AFNE14.jpg,AFNE20.jpg,AFSA19.jpg,AFNE14.jpg,FN,3,num_6,16,num_6,0.63349963678,,,2017_Oct_20_1512,59.9969402934,MAFE4ImagesEEG,001,102181,
AFNE01.JPG,AFNE01.JPG,AFNE01.JPG,AFNE01.JPG,AFNE01.JPG,AFNE01.JPG,,,,,2,4,24,4,,,,,,,,,,,,,,,,,,,AFSA01.jpg,AFNE04.jpg,AFSA19.jpg,AFNE13.jpg,AFSA01.jpg,FS,4,num_8,16,num_8,3.4665489553,,,2017_Oct_20_1512,59.9969402934,MAFE4ImagesEEG,001,102181,
AFNE01.JPG,AFNE01.JPG,AFNE01.JPG,AFNE01.JPG,AFNE01.JPG,AFNE01.JPG,,,,,2,5,25,3,,,,,,,,,,,,,,,,,,,AFSA10.jpg,AFNE14.jpg,AFSA12.jpg,AFNE19.jpg,AFNE19.jpg,FN,3,num_4,16,num_4,1.50004506391,,,2017_Oct_20_1512,59.9969402934,MAFE4ImagesEEG,001,102181,
AFNE01.JPG,AFNE01.JPG,AFNE01.JPG,AFNE01.JPG,AFNE01.JPG,AFNE01.JPG,,,,,2,6,26,5,,,,,,,,,,,,,,,,,,,AFNE14.jpg,AFSA18.jpg,AFSA06.jpg,AFNE18.jpg,AFSA18.jpg,FS,4,num_6,16,num_6,0.633465317602,,,2017_Oct_20_1512,59.9969402934,MAFE4ImagesEEG,001,102181,
AFNE01.JPG,AFNE01.JPG,AFNE01.JPG,AFNE01.JPG,AFNE01.JPG,AFNE01.JPG,,,,,2,7,27,2,,,,,,,,,,,,,,,,,,,AFSA07.jpg,AFNE03.jpg,AFNE11.jpg,AFSA11.jpg,AFSA11.jpg,FS,4,num_4,32,num_8,1.46667853399,,,2017_Oct_20_1512,59.9969402934,MAFE4ImagesEEG,001,102181,
AFNE01.JPG,AFNE01.JPG,AFNE01.JPG,AFNE01.JPG,AFNE01.JPG,AFNE01.JPG,,,,,2,8,28,7,,,,,,,,,,,,,,,,,,,AFSA09.jpg,AFNE20.jpg,AFSA08.jpg,AFNE14.jpg,AFSA08.jpg,FS,4,num_2,32,num_6,1.03345505393,,,2017_Oct_20_1512,59.9969402934,MAFE4ImagesEEG,001,102181,
AFNE01.JPG,AFNE01.JPG,AFNE01.JPG,AFNE01.JPG,AFNE01.JPG,AFNE01.JPG,,,,,2,9,29,6,,,,,,,,,,,,,,,,,,,AFSA14.jpg,AFNE18.jpg,AFSA10.jpg,AFNE01.jpg,AFSA10.jpg,FS,4,num_2,32,num_6,1.54973755492,,,2017_Oct_20_1512,59.9969402934,MAFE4ImagesEEG,001,102181,
AFNE01.JPG,AFNE01.JPG,AFNE01.JPG,AFNE01.JPG,AFNE01.JPG,AFNE01.JPG,,,,,3,0,30,7,,,,,,,,,,,,,,,,,,,AFNE19.jpg,AFNE05.jpg,AFSA10.jpg,AFSA14.jpg,AFNE19.jpg,FN,3,num_8,16,num_8,0.733549511759,,,2017_Oct_20_1512,59.9969402934,MAFE4ImagesEEG,001,102181,
AFNE01.JPG,AFNE01.JPG,AFNE01.JPG,AFNE01.JPG,AFNE01.JPG,AFNE01.JPG,,,,,3,1,31,0,,,,,,,,,,,,,,,,,,,AFNE11.jpg,AFNE19.jpg,AFSA06.jpg,AFSA20.jpg,AFSA20.jpg,FS,4,num_4,32,num_2,1.38342033391,,,2017_Oct_20_1512,59.9969402934,MAFE4ImagesEEG,001,102181,
AFNE01.JPG,AFNE01.JPG,AFNE01.JPG,AFNE01.JPG,AFNE01.JPG,AFNE01.JPG,,,,,3,2,32,9,,,,,,,,,,,,,,,,,,,AFNE06.jpg,AFSA04.jpg,AFNE01.jpg,AFSA09.jpg,AFNE01.jpg,FN,3,num_2,32,num_6,1.38373497938,,,2017_Oct_20_1512,59.9969402934,MAFE4ImagesEEG,001,102181,
AFNE01.JPG,AFNE01.JPG,AFNE01.JPG,AFNE01.JPG,AFNE01.JPG,AFNE01.JPG,,,,,3,3,33,3,,,,,,,,,,,,,,,,,,,AFNE05.jpg,AFNE17.jpg,AFSA15.jpg,AFSA02.jpg,AFSA02.jpg,FS,4,num_4,16,num_4,0.750127574138,,,2017_Oct_20_1512,59.9969402934,MAFE4ImagesEEG,001,102181,
AFNE01.JPG,AFNE01.JPG,AFNE01.JPG,AFNE01.JPG,AFNE01.JPG,AFNE01.JPG,,,,,3,4,34,4,,,,,,,,,,,,,,,,,,,AFSA13.jpg,AFSA11.jpg,AFNE09.jpg,AFNE17.jpg,AFSA13.jpg,FS,4,num_8,32,num_6,2.16665528045,,,2017_Oct_20_1512,59.9969402934,MAFE4ImagesEEG,001,102181,
AFNE01.JPG,AFNE01.JPG,AFNE01.JPG,AFNE01.JPG,AFNE01.JPG,AFNE01.JPG,,,,,3,5,35,1,,,,,,,,,,,,,,,,,,,AFNE07.jpg,AFNE02.jpg,AFSA08.jpg,AFSA06.jpg,AFNE02.jpg,FN,3,num_6,16,num_6,1.65002349415,,,2017_Oct_20_1512,59.9969402934,MAFE4ImagesEEG,001,102181,
AFNE01.JPG,AFNE01.JPG,AFNE01.JPG,AFNE01.JPG,AFNE01.JPG,AFNE01.JPG,,,,,3,6,36,6,,,,,,,,,,,,,,,,,,,AFNE15.jpg,AFSA05.jpg,AFNE05.jpg,AFSA03.jpg,AFNE15.jpg,FN,3,num_8,32,num_6,1.85004562518,,,2017_Oct_20_1512,59.9969402934,MAFE4ImagesEEG,001,102181,
AFNE01.JPG,AFNE01.JPG,AFNE01.JPG,AFNE01.JPG,AFNE01.JPG,AFNE01.JPG,,,,,3,7,37,5,,,,,,,,,,,,,,,,,,,AFNE09.jpg,AFSA08.jpg,AFNE18.jpg,AFSA14.jpg,AFNE18.jpg,FN,3,num_2,16,num_2,1.94991909346,,,2017_Oct_20_1512,59.9969402934,MAFE4ImagesEEG,001,102181,
AFNE01.JPG,AFNE01.JPG,AFNE01.JPG,AFNE01.JPG,AFNE01.JPG,AFNE01.JPG,,,,,3,8,38,8,,,,,,,,,,,,,,,,,,,AFSA09.jpg,AFSA13.jpg,AFNE19.jpg,AFNE12.jpg,AFNE12.jpg,FN,3,num_4,16,num_4,0.866746210027,,,2017_Oct_20_1512,59.9969402934,MAFE4ImagesEEG,001,102181,
AFNE01.JPG,AFNE01.JPG,AFNE01.JPG,AFNE01.JPG,AFNE01.JPG,AFNE01.JPG,,,,,3,9,39,2,,,,,,,,,,,,,,,,,,,AFSA17.jpg,AFSA14.jpg,AFNE19.jpg,AFNE04.jpg,AFNE04.jpg,FN,3,num_4,48,None,,,,2017_Oct_20_1512,59.9969402934,MAFE4ImagesEEG,001,102181,
AFNE01.JPG,AFNE01.JPG,AFNE01.JPG,AFNE01.JPG,AFNE01.JPG,AFNE01.JPG,,,,,4,0,40,3,,,,,,,,,,,,,,,,,,,AFSA04.jpg,AFNE04.jpg,AFSA17.jpg,AFNE01.jpg,AFNE01.jpg,FN,3,num_4,16,num_4,1.31673121551,,,2017_Oct_20_1512,59.9969402934,MAFE4ImagesEEG,001,102181,
AFNE01.JPG,AFNE01.JPG,AFNE01.JPG,AFNE01.JPG,AFNE01.JPG,AFNE01.JPG,,,,,4,1,41,1,,,,,,,,,,,,,,,,,,,AFSA16.jpg,AFNE07.jpg,AFNE15.jpg,AFSA03.jpg,AFSA16.jpg,FS,4,num_8,32,num_4,1.16671269276,,,2017_Oct_20_1512,59.9969402934,MAFE4ImagesEEG,001,102181,
AFNE01.JPG,AFNE01.JPG,AFNE01.JPG,AFNE01.JPG,AFNE01.JPG,AFNE01.JPG,,,,,4,2,42,8,,,,,,,,,,,,,,,,,,,AFSA05.jpg,AFNE01.jpg,AFSA20.jpg,AFNE04.jpg,AFSA05.jpg,FS,4,num_8,16,num_8,1.38341231545,,,2017_Oct_20_1512,59.9969402934,MAFE4ImagesEEG,001,102181,
AFNE01.JPG,AFNE01.JPG,AFNE01.JPG,AFNE01.JPG,AFNE01.JPG,AFNE01.JPG,,,,,4,3,43,4,,,,,,,,,,,,,,,,,,,AFNE05.jpg,AFNE11.jpg,AFSA17.jpg,AFSA13.jpg,AFSA17.jpg,FS,4,num_2,16,num_2,1.35005636996,,,2017_Oct_20_1512,59.9969402934,MAFE4ImagesEEG,001,102181,
AFNE01.JPG,AFNE01.JPG,AFNE01.JPG,AFNE01.JPG,AFNE01.JPG,AFNE01.JPG,,,,,4,4,44,2,,,,,,,,,,,,,,,,,,,AFSA15.jpg,AFNE05.jpg,AFNE16.jpg,AFSA04.jpg,AFNE05.jpg,FN,3,num_6,32,num_2,1.91665712465,,,2017_Oct_20_1512,59.9969402934,MAFE4ImagesEEG,001,102181,
AFNE01.JPG,AFNE01.JPG,AFNE01.JPG,AFNE01.JPG,AFNE01.JPG,AFNE01.JPG,,,,,4,5,45,9,,,,,,,,,,,,,,,,,,,AFNE16.jpg,AFSA19.jpg,AFNE07.jpg,AFSA13.jpg,AFNE16.jpg,FN,3,num_8,32,num_6,2.28333806427,,,2017_Oct_20_1512,59.9969402934,MAFE4ImagesEEG,001,102181,
AFNE01.JPG,AFNE01.JPG,AFNE01.JPG,AFNE01.JPG,AFNE01.JPG,AFNE01.JPG,,,,,4,6,46,0,,,,,,,,,,,,,,,,,,,AFSA09.jpg,AFNE08.jpg,AFNE12.jpg,AFSA16.jpg,AFSA09.jpg,FS,4,num_8,16,num_8,1.45004915335,,,2017_Oct_20_1512,59.9969402934,MAFE4ImagesEEG,001,102181,
AFNE01.JPG,AFNE01.JPG,AFNE01.JPG,AFNE01.JPG,AFNE01.JPG,AFNE01.JPG,,,,,4,7,47,5,,,,,,,,,,,,,,,,,,,AFNE04.jpg,AFNE12.jpg,AFSA17.jpg,AFSA13.jpg,AFSA13.jpg,FS,4,num_4,32,num_6,4.64986184146,,,2017_Oct_20_1512,59.9969402934,MAFE4ImagesEEG,001,102181,
AFNE01.JPG,AFNE01.JPG,AFNE01.JPG,AFNE01.JPG,AFNE01.JPG,AFNE01.JPG,,,,,4,8,48,7,,,,,,,,,,,,,,,,,,,AFSA02.jpg,AFNE03.jpg,AFSA12.jpg,AFNE16.jpg,AFNE16.jpg,FN,3,num_4,16,num_4,2.78330101888,,,2017_Oct_20_1512,59.9969402934,MAFE4ImagesEEG,001,102181,
AFNE01.JPG,AFNE01.JPG,AFNE01.JPG,AFNE01.JPG,AFNE01.JPG,AFNE01.JPG,,,,,4,9,49,6,,,,,,,,,,,,,,,,,,,AFSA09.jpg,AFSA16.jpg,AFNE02.jpg,AFNE17.jpg,AFNE02.jpg,FN,3,num_2,32,num_4,1.2667741144,,,2017_Oct_20_1512,59.9969402934,MAFE4ImagesEEG,001,102181,
AFNE01.JPG,AFNE01.JPG,AFNE01.JPG,AFNE01.JPG,AFNE01.JPG,AFNE01.JPG,,,,,5,0,50,1,,,,,,,,,,,,,,,,,,,AFSA16.jpg,AFNE19.jpg,AFNE02.jpg,AFSA02.jpg,AFSA16.jpg,FS,4,num_8,48,None,,,,2017_Oct_20_1512,59.9969402934,MAFE4ImagesEEG,001,102181,
AFNE01.JPG,AFNE01.JPG,AFNE01.JPG,AFNE01.JPG,AFNE01.JPG,AFNE01.JPG,,,,,5,1,51,9,,,,,,,,,,,,,,,,,,,AFSA11.jpg,AFSA17.jpg,AFNE14.jpg,AFNE02.jpg,AFNE02.jpg,FN,3,num_4,48,None,,,,2017_Oct_20_1512,59.9969402934,MAFE4ImagesEEG,001,102181,
AFNE01.JPG,AFNE01.JPG,AFNE01.JPG,AFNE01.JPG,AFNE01.JPG,AFNE01.JPG,,,,,5,2,52,5,,,,,,,,,,,,,,,,,,,AFNE10.jpg,AFSA07.jpg,AFNE05.jpg,AFSA17.jpg,AFSA07.jpg,FS,4,num_6,16,num_6,3.74992198014,,,2017_Oct_20_1512,59.9969402934,MAFE4ImagesEEG,001,102181,
AFNE01.JPG,AFNE01.JPG,AFNE01.JPG,AFNE01.JPG,AFNE01.JPG,AFNE01.JPG,,,,,5,3,53,8,,,,,,,,,,,,,,,,,,,AFSA01.jpg,AFNE09.jpg,AFSA14.jpg,AFNE12.jpg,AFNE12.jpg,FN,3,num_4,16,num_4,0.450175203907,,,2017_Oct_20_1512,59.9969402934,MAFE4ImagesEEG,001,102181,
AFNE01.JPG,AFNE01.JPG,AFNE01.JPG,AFNE01.JPG,AFNE01.JPG,AFNE01.JPG,,,,,5,4,54,3,,,,,,,,,,,,,,,,,,,AFNE07.jpg,AFSA16.jpg,AFNE16.jpg,AFSA04.jpg,AFSA16.jpg,FS,4,num_6,16,num_6,0.750179213181,,,2017_Oct_20_1512,59.9969402934,MAFE4ImagesEEG,001,102181,
AFNE01.JPG,AFNE01.JPG,AFNE01.JPG,AFNE01.JPG,AFNE01.JPG,AFNE01.JPG,,,,,5,5,55,6,,,,,,,,,,,,,,,,,,,AFNE20.jpg,AFSA08.jpg,AFSA14.jpg,AFNE11.jpg,AFNE11.jpg,FN,3,num_4,32,num_8,1.58337735484,,,2017_Oct_20_1512,59.9969402934,MAFE4ImagesEEG,001,102181,
AFNE01.JPG,AFNE01.JPG,AFNE01.JPG,AFNE01.JPG,AFNE01.JPG,AFNE01.JPG,,,,,5,6,56,2,,,,,,,,,,,,,,,,,,,AFSA18.jpg,AFNE20.jpg,AFNE01.jpg,AFSA16.jpg,AFNE20.jpg,FN,3,num_6,32,num_8,2.51641272119,,,2017_Oct_20_1512,59.9969402934,MAFE4ImagesEEG,001,102181,
AFNE01.JPG,AFNE01.JPG,AFNE01.JPG,AFNE01.JPG,AFNE01.JPG,AFNE01.JPG,,,,,5,7,57,0,,,,,,,,,,,,,,,,,,,AFNE11.jpg,AFSA11.jpg,AFNE16.jpg,AFSA04.jpg,AFSA04.jpg,FS,4,num_4,32,num_6,2.70001138625,,,2017_Oct_20_1512,59.9969402934,MAFE4ImagesEEG,001,102181,
AFNE01.JPG,AFNE01.JPG,AFNE01.JPG,AFNE01.JPG,AFNE01.JPG,AFNE01.JPG,,,,,5,8,58,4,,,,,,,,,,,,,,,,,,,AFNE05.jpg,AFSA03.jpg,AFSA07.jpg,AFNE11.jpg,AFNE05.jpg,FN,3,num_8,32,num_6,0.78348031221,,,2017_Oct_20_1512,59.9969402934,MAFE4ImagesEEG,001,102181,
AFNE01.JPG,AFNE01.JPG,AFNE01.JPG,AFNE01.JPG,AFNE01.JPG,AFNE01.JPG,,,,,5,9,59,7,,,,,,,,,,,,,,,,,,,AFSA13.jpg,AFNE16.jpg,AFSA05.jpg,AFNE18.jpg,AFSA05.jpg,FS,4,num_2,32,num_6,3.53331024008,,,2017_Oct_20_1512,59.9969402934,MAFE4ImagesEEG,001,102181,
,,,,,,,,,,,,,,,,,,,,,,,,,,,,,,,,,,,,,,,,,,,space,16.9988248105,2017_Oct_20_1512,59.9969402934,MAFE4ImagesEEG,001,102181,
AFNE01.JPG,AFNE01.JPG,AFNE01.JPG,AFNE01.JPG,AFNE01.JPG,AFNE01.JPG,,,,,,,,,0,0,0,0,,,,,,,,,,,,,,,AMNE15.jpg,AMNE05.jpg,AMSA11.jpg,AMSA02.jpg,AMNE05.jpg,MN,1,num_6,32,num_8,0.933476062375,,,2017_Oct_20_1512,59.9969402934,MAFE4ImagesEEG,001,102181,
AFNE01.JPG,AFNE01.JPG,AFNE01.JPG,AFNE01.JPG,AFNE01.JPG,AFNE01.JPG,,,,,,,,,0,1,1,2,,,,,,,,,,,,,,,AMSA10.jpg,AMNE10.jpg,AMSA12.jpg,AMNE06.jpg,AMSA10.jpg,MS,2,num_8,32,num_2,1.10006494977,,,2017_Oct_20_1512,59.9969402934,MAFE4ImagesEEG,001,102181,
AFNE01.JPG,AFNE01.JPG,AFNE01.JPG,AFNE01.JPG,AFNE01.JPG,AFNE01.JPG,,,,,,,,,0,2,2,9,,,,,,,,,,,,,,,AMSA10.jpg,AMSA07.jpg,AMNE12.jpg,AMNE01.jpg,AMNE12.jpg,MN,1,num_2,32,num_4,1.08298204339,,,2017_Oct_20_1512,59.9969402934,MAFE4ImagesEEG,001,102181,
AFNE01.JPG,AFNE01.JPG,AFNE01.JPG,AFNE01.JPG,AFNE01.JPG,AFNE01.JPG,,,,,,,,,0,3,3,4,,,,,,,,,,,,,,,AMSA20.jpg,AMSA16.jpg,AMNE06.jpg,AMNE07.jpg,AMNE06.jpg,MN,1,num_2,32,num_4,1.53342281963,,,2017_Oct_20_1512,59.9969402934,MAFE4ImagesEEG,001,102181,
AFNE01.JPG,AFNE01.JPG,AFNE01.JPG,AFNE01.JPG,AFNE01.JPG,AFNE01.JPG,,,,,,,,,0,4,4,5,,,,,,,,,,,,,,,AMNE05.jpg,AMSA09.jpg,AMNE14.jpg,AMSA17.jpg,AMSA17.jpg,MS,2,num_4,16,num_4,1.33339138719,,,2017_Oct_20_1512,59.9969402934,MAFE4ImagesEEG,001,102181,
AFNE01.JPG,AFNE01.JPG,AFNE01.JPG,AFNE01.JPG,AFNE01.JPG,AFNE01.JPG,,,,,,,,,0,5,5,7,,,,,,,,,,,,,,,AMNE15.jpg,AMSA15.jpg,AMNE20.jpg,AMSA09.jpg,AMNE20.jpg,MN,1,num_2,16,num_2,1.95027992543,,,2017_Oct_20_1512,59.9969402934,MAFE4ImagesEEG,001,102181,
AFNE01.JPG,AFNE01.JPG,AFNE01.JPG,AFNE01.JPG,AFNE01.JPG,AFNE01.JPG,,,,,,,,,0,6,6,6,,,,,,,,,,,,,,,AMNE06.jpg,AMSA04.jpg,AMSA06.jpg,AMNE10.jpg,AMSA04.jpg,MS,2,num_6,16,num_6,0.800157803809,,,2017_Oct_20_1512,59.9969402934,MAFE4ImagesEEG,001,102181,
AFNE01.JPG,AFNE01.JPG,AFNE01.JPG,AFNE01.JPG,AFNE01.JPG,AFNE01.JPG,,,,,,,,,0,7,7,1,,,,,,,,,,,,,,,AMSA06.jpg,AMNE05.jpg,AMSA14.jpg,AMNE17.jpg,AMNE17.jpg,MN,1,num_4,32,num_2,1.76675791707,,,2017_Oct_20_1512,59.9969402934,MAFE4ImagesEEG,001,102181,
AFNE01.JPG,AFNE01.JPG,AFNE01.JPG,AFNE01.JPG,AFNE01.JPG,AFNE01.JPG,,,,,,,,,0,8,8,8,,,,,,,,,,,,,,,AMNE07.jpg,AMNE12.jpg,AMSA05.jpg,AMSA02.jpg,AMSA02.jpg,MS,2,num_4,16,num_4,0.766752464522,,,2017_Oct_20_1512,59.9969402934,MAFE4ImagesEEG,001,102181,
AFNE01.JPG,AFNE01.JPG,AFNE01.JPG,AFNE01.JPG,AFNE01.JPG,AFNE01.JPG,,,,,,,,,0,9,9,3,,,,,,,,,,,,,,,AMNE05.jpg,AMSA02.jpg,AMSA08.jpg,AMNE11.jpg,AMSA02.jpg,MS,2,num_6,16,num_6,0.700130701298,,,2017_Oct_20_1512,59.9969402934,MAFE4ImagesEEG,001,102181,
AFNE01.JPG,AFNE01.JPG,AFNE01.JPG,AFNE01.JPG,AFNE01.JPG,AFNE01.JPG,,,,,,,,,1,0,10,7,,,,,,,,,,,,,,,AMNE03.jpg,AMSA19.jpg,AMSA02.jpg,AMNE07.jpg,AMNE03.jpg,MN,1,num_8,32,num_6,2.68328321778,,,2017_Oct_20_1512,59.9969402934,MAFE4ImagesEEG,001,102181,
AFNE01.JPG,AFNE01.JPG,AFNE01.JPG,AFNE01.JPG,AFNE01.JPG,AFNE01.JPG,,,,,,,,,1,1,11,1,,,,,,,,,,,,,,,AMSA18.jpg,AMNE20.jpg,AMSA06.jpg,AMNE18.jpg,AMSA18.jpg,MS,2,num_8,16,num_8,0.600168067496,,,2017_Oct_20_1512,59.9969402934,MAFE4ImagesEEG,001,102181,
AFNE01.JPG,AFNE01.JPG,AFNE01.JPG,AFNE01.JPG,AFNE01.JPG,AFNE01.JPG,,,,,,,,,1,2,12,4,,,,,,,,,,,,,,,AMSA15.jpg,AMSA09.jpg,AMNE14.jpg,AMNE15.jpg,AMSA15.jpg,MS,2,num_8,32,num_6,0.533468043897,,,2017_Oct_20_1512,59.9969402934,MAFE4ImagesEEG,001,102181,
AFNE01.JPG,AFNE01.JPG,AFNE01.JPG,AFNE01.JPG,AFNE01.JPG,AFNE01.JPG,,,,,,,,,1,3,13,3,,,,,,,,,,,,,,,AMSA18.jpg,AMNE10.jpg,AMSA06.jpg,AMNE15.jpg,AMNE10.jpg,MN,1,num_6,48,None,,,,2017_Oct_20_1512,59.9969402934,MAFE4ImagesEEG,001,102181,
AFNE01.JPG,AFNE01.JPG,AFNE01.JPG,AFNE01.JPG,AFNE01.JPG,AFNE01.JPG,,,,,,,,,1,4,14,5,,,,,,,,,,,,,,,AMNE05.jpg,AMSA09.jpg,AMNE14.jpg,AMSA20.jpg,AMSA20.jpg,MS,2,num_4,16,num_4,0.616808353341,,,2017_Oct_20_1512,59.9969402934,MAFE4ImagesEEG,001,102181,
AFNE01.JPG,AFNE01.JPG,AFNE01.JPG,AFNE01.JPG,AFNE01.JPG,AFNE01.JPG,,,,,,,,,1,5,15,2,,,,,,,,,,,,,,,AMSA13.jpg,AMNE06.jpg,AMSA07.jpg,AMNE14.jpg,AMSA07.jpg,MS,2,num_2,16,num_2,4.23320199049,,,2017_Oct_20_1512,59.9969402934,MAFE4ImagesEEG,001,102181,
AFNE01.JPG,AFNE01.JPG,AFNE01.JPG,AFNE01.JPG,AFNE01.JPG,AFNE01.JPG,,,,,,,,,1,6,16,6,,,,,,,,,,,,,,,AMNE01.jpg,AMSA08.jpg,AMNE09.jpg,AMSA17.jpg,AMNE09.jpg,MN,1,num_2,32,num_6,1.2834570586,,,2017_Oct_20_1512,59.9969402934,MAFE4ImagesEEG,001,102181,
AFNE01.JPG,AFNE01.JPG,AFNE01.JPG,AFNE01.JPG,AFNE01.JPG,AFNE01.JPG,,,,,,,,,1,7,17,0,,,,,,,,,,,,,,,AMSA13.jpg,AMNE18.jpg,AMSA18.jpg,AMNE13.jpg,AMNE18.jpg,MN,1,num_6,16,num_6,0.816738111374,,,2017_Oct_20_1512,59.9969402934,MAFE4ImagesEEG,001,102181,
AFNE01.JPG,AFNE01.JPG,AFNE01.JPG,AFNE01.JPG,AFNE01.JPG,AFNE01.JPG,,,,,,,,,1,8,18,8,,,,,,,,,,,,,,,AMNE10.jpg,AMSA18.jpg,AMNE05.jpg,AMSA15.jpg,AMSA15.jpg,MS,2,num_4,16,num_4,1.73336669023,,,2017_Oct_20_1512,59.9969402934,MAFE4ImagesEEG,001,102181,
AFNE01.JPG,AFNE01.JPG,AFNE01.JPG,AFNE01.JPG,AFNE01.JPG,AFNE01.JPG,,,,,,,,,1,9,19,9,,,,,,,,,,,,,,,AMNE15.jpg,AMSA10.jpg,AMSA09.jpg,AMNE12.jpg,AMNE15.jpg,MN,1,num_8,32,num_6,4.71647141653,,,2017_Oct_20_1512,59.9969402934,MAFE4ImagesEEG,001,102181,
AFNE01.JPG,AFNE01.JPG,AFNE01.JPG,AFNE01.JPG,AFNE01.JPG,AFNE01.JPG,,,,,,,,,2,0,20,5,,,,,,,,,,,,,,,AMNE07.jpg,AMNE01.jpg,AMSA01.jpg,AMSA02.jpg,AMNE01.jpg,MN,1,num_6,16,num_6,1.99995573791,,,2017_Oct_20_1512,59.9969402934,MAFE4ImagesEEG,001,102181,
AFNE01.JPG,AFNE01.JPG,AFNE01.JPG,AFNE01.JPG,AFNE01.JPG,AFNE01.JPG,,,,,,,,,2,1,21,9,,,,,,,,,,,,,,,AMSA08.jpg,AMNE05.jpg,AMNE15.jpg,AMSA14.jpg,AMSA08.jpg,MS,2,num_8,48,None,,,,2017_Oct_20_1512,59.9969402934,MAFE4ImagesEEG,001,102181,
AFNE01.JPG,AFNE01.JPG,AFNE01.JPG,AFNE01.JPG,AFNE01.JPG,AFNE01.JPG,,,,,,,,,2,2,22,0,,,,,,,,,,,,,,,AMNE10.jpg,AMSA16.jpg,AMSA04.jpg,AMNE02.jpg,AMNE10.jpg,MN,1,num_8,32,num_2,1.7667466912,,,2017_Oct_20_1512,59.9969402934,MAFE4ImagesEEG,001,102181,
AFNE01.JPG,AFNE01.JPG,AFNE01.JPG,AFNE01.JPG,AFNE01.JPG,AFNE01.JPG,,,,,,,,,2,3,23,7,,,,,,,,,,,,,,,AMSA14.jpg,AMNE11.jpg,AMNE10.jpg,AMSA06.jpg,AMNE10.jpg,MN,1,num_2,16,num_2,1.40032298467,,,2017_Oct_20_1512,59.9969402934,MAFE4ImagesEEG,001,102181,
AFNE01.JPG,AFNE01.JPG,AFNE01.JPG,AFNE01.JPG,AFNE01.JPG,AFNE01.JPG,,,,,,,,,2,4,24,2,,,,,,,,,,,,,,,AMNE03.jpg,AMNE15.jpg,AMSA14.jpg,AMSA12.jpg,AMNE03.jpg,MN,1,num_8,32,num_6,2.15003103158,,,2017_Oct_20_1512,59.9969402934,MAFE4ImagesEEG,001,102181,
AFNE01.JPG,AFNE01.JPG,AFNE01.JPG,AFNE01.JPG,AFNE01.JPG,AFNE01.JPG,,,,,,,,,2,5,25,3,,,,,,,,,,,,,,,AMNE10.jpg,AMNE08.jpg,AMSA14.jpg,AMSA19.jpg,AMSA14.jpg,MS,2,num_2,16,num_2,1.25016205362,,,2017_Oct_20_1512,59.9969402934,MAFE4ImagesEEG,001,102181,
AFNE01.JPG,AFNE01.JPG,AFNE01.JPG,AFNE01.JPG,AFNE01.JPG,AFNE01.JPG,,,,,,,,,2,6,26,1,,,,,,,,,,,,,,,AMNE17.jpg,AMSA14.jpg,AMNE05.jpg,AMSA09.jpg,AMSA09.jpg,MS,2,num_4,16,num_4,1.31671357481,,,2017_Oct_20_1512,59.9969402934,MAFE4ImagesEEG,001,102181,
AFNE01.JPG,AFNE01.JPG,AFNE01.JPG,AFNE01.JPG,AFNE01.JPG,AFNE01.JPG,,,,,,,,,2,7,27,4,,,,,,,,,,,,,,,AMNE08.jpg,AMNE05.jpg,AMSA02.jpg,AMSA17.jpg,AMSA17.jpg,MS,2,num_4,16,num_4,0.583486406307,,,2017_Oct_20_1512,59.9969402934,MAFE4ImagesEEG,001,102181,
AFNE01.JPG,AFNE01.JPG,AFNE01.JPG,AFNE01.JPG,AFNE01.JPG,AFNE01.JPG,,,,,,,,,2,8,28,8,,,,,,,,,,,,,,,AMSA10.jpg,AMNE14.jpg,AMSA01.jpg,AMNE05.jpg,AMNE05.jpg,MN,1,num_4,16,num_4,1.16671493801,,,2017_Oct_20_1512,59.9969402934,MAFE4ImagesEEG,001,102181,
AFNE01.JPG,AFNE01.JPG,AFNE01.JPG,AFNE01.JPG,AFNE01.JPG,AFNE01.JPG,,,,,,,,,2,9,29,6,,,,,,,,,,,,,,,AMNE06.jpg,AMSA05.jpg,AMSA08.jpg,AMNE19.jpg,AMSA05.jpg,MS,2,num_6,16,num_6,0.783393391815,,,2017_Oct_20_1512,59.9969402934,MAFE4ImagesEEG,001,102181,
AFNE01.JPG,AFNE01.JPG,AFNE01.JPG,AFNE01.JPG,AFNE01.JPG,AFNE01.JPG,,,,,,,,,3,0,30,1,,,,,,,,,,,,,,,AMSA18.jpg,AMSA01.jpg,AMNE14.jpg,AMNE08.jpg,AMSA18.jpg,MS,2,num_8,16,num_8,2.03336492617,,,2017_Oct_20_1512,59.9969402934,MAFE4ImagesEEG,001,102181,
AFNE01.JPG,AFNE01.JPG,AFNE01.JPG,AFNE01.JPG,AFNE01.JPG,AFNE01.JPG,,,,,,,,,3,1,31,6,,,,,,,,,,,,,,,AMSA13.jpg,AMSA11.jpg,AMNE15.jpg,AMNE09.jpg,AMSA13.jpg,MS,2,num_8,16,num_8,1.08341472095,,,2017_Oct_20_1512,59.9969402934,MAFE4ImagesEEG,001,102181,
AFNE01.JPG,AFNE01.JPG,AFNE01.JPG,AFNE01.JPG,AFNE01.JPG,AFNE01.JPG,,,,,,,,,3,2,32,4,,,,,,,,,,,,,,,AMSA01.jpg,AMNE15.jpg,AMNE16.jpg,AMSA12.jpg,AMSA01.jpg,MS,2,num_8,16,num_8,1.28340830619,,,2017_Oct_20_1512,59.9969402934,MAFE4ImagesEEG,001,102181,
AFNE01.JPG,AFNE01.JPG,AFNE01.JPG,AFNE01.JPG,AFNE01.JPG,AFNE01.JPG,,,,,,,,,3,3,33,9,,,,,,,,,,,,,,,AMSA16.jpg,AMSA20.jpg,AMNE12.jpg,AMNE11.jpg,AMNE11.jpg,MN,1,num_4,16,num_4,0.966783896962,,,2017_Oct_20_1512,59.9969402934,MAFE4ImagesEEG,001,102181,
AFNE01.JPG,AFNE01.JPG,AFNE01.JPG,AFNE01.JPG,AFNE01.JPG,AFNE01.JPG,,,,,,,,,3,4,34,2,,,,,,,,,,,,,,,AMSA19.jpg,AMSA03.jpg,AMNE16.jpg,AMNE06.jpg,AMNE16.jpg,MN,1,num_2,32,num_4,1.56668061885,,,2017_Oct_20_1512,59.9969402934,MAFE4ImagesEEG,001,102181,
AFNE01.JPG,AFNE01.JPG,AFNE01.JPG,AFNE01.JPG,AFNE01.JPG,AFNE01.JPG,,,,,,,,,3,5,35,8,,,,,,,,,,,,,,,AMSA12.jpg,AMSA19.jpg,AMNE02.jpg,AMNE12.jpg,AMNE12.jpg,MN,1,num_4,16,num_4,0.650140884856,,,2017_Oct_20_1512,59.9969402934,MAFE4ImagesEEG,001,102181,
AFNE01.JPG,AFNE01.JPG,AFNE01.JPG,AFNE01.JPG,AFNE01.JPG,AFNE01.JPG,,,,,,,,,3,6,36,3,,,,,,,,,,,,,,,AMSA13.jpg,AMNE08.jpg,AMSA05.jpg,AMNE03.jpg,AMSA05.jpg,MS,2,num_2,32,num_6,2.01667813311,,,2017_Oct_20_1512,59.9969402934,MAFE4ImagesEEG,001,102181,
AFNE01.JPG,AFNE01.JPG,AFNE01.JPG,AFNE01.JPG,AFNE01.JPG,AFNE01.JPG,,,,,,,,,3,7,37,0,,,,,,,,,,,,,,,AMSA07.jpg,AMSA14.jpg,AMNE20.jpg,AMNE02.jpg,AMNE20.jpg,MN,1,num_2,32,num_6,2.01650749968,,,2017_Oct_20_1512,59.9969402934,MAFE4ImagesEEG,001,102181,
AFNE01.JPG,AFNE01.JPG,AFNE01.JPG,AFNE01.JPG,AFNE01.JPG,AFNE01.JPG,,,,,,,,,3,8,38,7,,,,,,,,,,,,,,,AMSA06.jpg,AMSA13.jpg,AMNE06.jpg,AMNE14.jpg,AMSA13.jpg,MS,2,num_6,16,num_6,0.733462591365,,,2017_Oct_20_1512,59.9969402934,MAFE4ImagesEEG,001,102181,
AFNE01.JPG,AFNE01.JPG,AFNE01.JPG,AFNE01.JPG,AFNE01.JPG,AFNE01.JPG,,,,,,,,,3,9,39,5,,,,,,,,,,,,,,,AMSA15.jpg,AMNE18.jpg,AMNE14.jpg,AMSA06.jpg,AMNE14.jpg,MN,1,num_2,32,num_6,1.06672568276,,,2017_Oct_20_1512,59.9969402934,MAFE4ImagesEEG,001,102181,
AFNE01.JPG,AFNE01.JPG,AFNE01.JPG,AFNE01.JPG,AFNE01.JPG,AFNE01.JPG,,,,,,,,,4,0,40,7,,,,,,,,,,,,,,,AMNE05.jpg,AMSA04.jpg,AMNE16.jpg,AMSA07.jpg,AMNE16.jpg,MN,1,num_2,32,num_4,1.63339924533,,,2017_Oct_20_1512,59.9969402934,MAFE4ImagesEEG,001,102181,
AFNE01.JPG,AFNE01.JPG,AFNE01.JPG,AFNE01.JPG,AFNE01.JPG,AFNE01.JPG,,,,,,,,,4,1,41,2,,,,,,,,,,,,,,,AMSA13.jpg,AMNE04.jpg,AMSA05.jpg,AMNE03.jpg,AMSA05.jpg,MS,2,num_2,32,num_8,1.55009325501,,,2017_Oct_20_1512,59.9969402934,MAFE4ImagesEEG,001,102181,
AFNE01.JPG,AFNE01.JPG,AFNE01.JPG,AFNE01.JPG,AFNE01.JPG,AFNE01.JPG,,,,,,,,,4,2,42,1,,,,,,,,,,,,,,,AMSA04.jpg,AMNE12.jpg,AMSA01.jpg,AMNE18.jpg,AMNE18.jpg,MN,1,num_4,32,num_6,0.733439177391,,,2017_Oct_20_1512,59.9969402934,MAFE4ImagesEEG,001,102181,
AFNE01.JPG,AFNE01.JPG,AFNE01.JPG,AFNE01.JPG,AFNE01.JPG,AFNE01.JPG,,,,,,,,,4,3,43,5,,,,,,,,,,,,,,,AMSA05.jpg,AMNE13.jpg,AMNE12.jpg,AMSA07.jpg,AMSA07.jpg,MS,2,num_4,16,num_4,0.516777401965,,,2017_Oct_20_1512,59.9969402934,MAFE4ImagesEEG,001,102181,
AFNE01.JPG,AFNE01.JPG,AFNE01.JPG,AFNE01.JPG,AFNE01.JPG,AFNE01.JPG,,,,,,,,,4,4,44,0,,,,,,,,,,,,,,,AMSA20.jpg,AMNE01.jpg,AMNE19.jpg,AMSA02.jpg,AMSA20.jpg,MS,2,num_8,16,num_8,1.73338465166,,,2017_Oct_20_1512,59.9969402934,MAFE4ImagesEEG,001,102181,
AFNE01.JPG,AFNE01.JPG,AFNE01.JPG,AFNE01.JPG,AFNE01.JPG,AFNE01.JPG,,,,,,,,,4,5,45,8,,,,,,,,,,,,,,,AMNE14.jpg,AMSA06.jpg,AMNE19.jpg,AMSA11.jpg,AMNE19.jpg,MN,1,num_2,32,num_6,3.11657469464,,,2017_Oct_20_1512,59.9969402934,MAFE4ImagesEEG,001,102181,
AFNE01.JPG,AFNE01.JPG,AFNE01.JPG,AFNE01.JPG,AFNE01.JPG,AFNE01.JPG,,,,,,,,,4,6,46,4,,,,,,,,,,,,,,,AMSA01.jpg,AMSA04.jpg,AMNE19.jpg,AMNE13.jpg,AMNE19.jpg,MN,1,num_2,32,num_4,1.41673201736,,,2017_Oct_20_1512,59.9969402934,MAFE4ImagesEEG,001,102181,
AFNE01.JPG,AFNE01.JPG,AFNE01.JPG,AFNE01.JPG,AFNE01.JPG,AFNE01.JPG,,,,,,,,,4,7,47,6,,,,,,,,,,,,,,,AMNE06.jpg,AMSA06.jpg,AMSA05.jpg,AMNE05.jpg,AMNE06.jpg,MN,1,num_8,16,num_8,1.78342033393,,,2017_Oct_20_1512,59.9969402934,MAFE4ImagesEEG,001,102181,
AFNE01.JPG,AFNE01.JPG,AFNE01.JPG,AFNE01.JPG,AFNE01.JPG,AFNE01.JPG,,,,,,,,,4,8,48,3,,,,,,,,,,,,,,,AMSA11.jpg,AMNE16.jpg,AMNE01.jpg,AMSA06.jpg,AMSA11.jpg,MS,2,num_8,16,num_8,0.716788627848,,,2017_Oct_20_1512,59.9969402934,MAFE4ImagesEEG,001,102181,
AFNE01.JPG,AFNE01.JPG,AFNE01.JPG,AFNE01.JPG,AFNE01.JPG,AFNE01.JPG,,,,,,,,,4,9,49,9,,,,,,,,,,,,,,,AMNE02.jpg,AMSA17.jpg,AMSA13.jpg,AMNE11.jpg,AMNE11.jpg,MN,1,num_4,16,num_4,1.18342546577,,,2017_Oct_20_1512,59.9969402934,MAFE4ImagesEEG,001,102181,
AFNE01.JPG,AFNE01.JPG,AFNE01.JPG,AFNE01.JPG,AFNE01.JPG,AFNE01.JPG,,,,,,,,,5,0,50,2,,,,,,,,,,,,,,,AMSA17.jpg,AMNE11.jpg,AMSA15.jpg,AMNE10.jpg,AMSA15.jpg,MS,2,num_2,16,num_2,1.46672151313,,,2017_Oct_20_1512,59.9969402934,MAFE4ImagesEEG,001,102181,
AFNE01.JPG,AFNE01.JPG,AFNE01.JPG,AFNE01.JPG,AFNE01.JPG,AFNE01.JPG,,,,,,,,,5,1,51,5,,,,,,,,,,,,,,,AMSA20.jpg,AMSA11.jpg,AMNE09.jpg,AMNE15.jpg,AMSA20.jpg,MS,2,num_8,16,num_8,1.1001663034,,,2017_Oct_20_1512,59.9969402934,MAFE4ImagesEEG,001,102181,
AFNE01.JPG,AFNE01.JPG,AFNE01.JPG,AFNE01.JPG,AFNE01.JPG,AFNE01.JPG,,,,,,,,,5,2,52,0,,,,,,,,,,,,,,,AMSA13.jpg,AMNE11.jpg,AMSA09.jpg,AMNE20.jpg,AMSA13.jpg,MS,2,num_8,32,num_4,0.800136314298,,,2017_Oct_20_1512,59.9969402934,MAFE4ImagesEEG,001,102181,
AFNE01.JPG,AFNE01.JPG,AFNE01.JPG,AFNE01.JPG,AFNE01.JPG,AFNE01.JPG,,,,,,,,,5,3,53,1,,,,,,,,,,,,,,,AMNE02.jpg,AMSA19.jpg,AMNE03.jpg,AMSA12.jpg,AMSA19.jpg,MS,2,num_6,16,num_6,0.500120758428,,,2017_Oct_20_1512,59.9969402934,MAFE4ImagesEEG,001,102181,
AFNE01.JPG,AFNE01.JPG,AFNE01.JPG,AFNE01.JPG,AFNE01.JPG,AFNE01.JPG,,,,,,,,,5,4,54,6,,,,,,,,,,,,,,,AMNE15.jpg,AMSA03.jpg,AMNE03.jpg,AMSA13.jpg,AMNE03.jpg,MN,1,num_2,16,num_2,1.35037935461,,,2017_Oct_20_1512,59.9969402934,MAFE4ImagesEEG,001,102181,
AFNE01.JPG,AFNE01.JPG,AFNE01.JPG,AFNE01.JPG,AFNE01.JPG,AFNE01.JPG,,,,,,,,,5,5,55,4,,,,,,,,,,,,,,,AMNE19.jpg,AMNE11.jpg,AMSA12.jpg,AMSA20.jpg,AMSA20.jpg,MS,2,num_4,32,num_2,1.18339531624,,,2017_Oct_20_1512,59.9969402934,MAFE4ImagesEEG,001,102181,
AFNE01.JPG,AFNE01.JPG,AFNE01.JPG,AFNE01.JPG,AFNE01.JPG,AFNE01.JPG,,,,,,,,,5,6,56,3,,,,,,,,,,,,,,,AMSA15.jpg,AMSA02.jpg,AMNE14.jpg,AMNE08.jpg,AMSA02.jpg,MS,2,num_6,16,num_6,0.650123564876,,,2017_Oct_20_1512,59.9969402934,MAFE4ImagesEEG,001,102181,
AFNE01.JPG,AFNE01.JPG,AFNE01.JPG,AFNE01.JPG,AFNE01.JPG,AFNE01.JPG,,,,,,,,,5,7,57,8,,,,,,,,,,,,,,,AMSA05.jpg,AMNE15.jpg,AMNE03.jpg,AMSA12.jpg,AMSA12.jpg,MS,2,num_4,32,num_8,4.0832200321,,,2017_Oct_20_1512,59.9969402934,MAFE4ImagesEEG,001,102181,
AFNE01.JPG,AFNE01.JPG,AFNE01.JPG,AFNE01.JPG,AFNE01.JPG,AFNE01.JPG,,,,,,,,,5,8,58,9,,,,,,,,,,,,,,,AMNE04.jpg,AMSA19.jpg,AMNE16.jpg,AMSA03.jpg,AMSA03.jpg,MS,2,num_4,32,num_8,3.38327439746,,,2017_Oct_20_1512,59.9969402934,MAFE4ImagesEEG,001,102181,
AFNE01.JPG,AFNE01.JPG,AFNE01.JPG,AFNE01.JPG,AFNE01.JPG,AFNE01.JPG,,,,,,,,,5,9,59,7,,,,,,,,,,,,,,,AMSA15.jpg,AMNE11.jpg,AMNE16.jpg,AMSA16.jpg,AMSA15.jpg,MS,2,num_8,32,num_4,1.16673450312,,,2017_Oct_20_1512,59.9969402934,MAFE4ImagesEEG,001,102181,
,,,,,,,,,,,,,,,,,,,,,,,,,,,,,,,,,,,,,,,,,,,space,9.76589769375,2017_Oct_20_1512,59.9969402934,MAFE4ImagesEEG,001,102181,
AFNE01.JPG,AFNE01.JPG,AFNE01.JPG,AFNE01.JPG,AFNE01.JPG,AFNE01.JPG,,,,,,,,,,,,,0,0,0,7,,,,,,,,,,,AFSA05.jpg,AFNE04.jpg,AFSA10.jpg,AFNE20.jpg,AFSA05.jpg,FS,4,num_8,16,num_8,2.56683232862,,,2017_Oct_20_1512,59.9969402934,MAFE4ImagesEEG,001,102181,
AFNE01.JPG,AFNE01.JPG,AFNE01.JPG,AFNE01.JPG,AFNE01.JPG,AFNE01.JPG,,,,,,,,,,,,,0,1,1,4,,,,,,,,,,,AFSA02.jpg,AFNE09.jpg,AFSA18.jpg,AFNE02.jpg,AFSA18.jpg,FS,4,num_2,32,num_6,1.18341873022,,,2017_Oct_20_1512,59.9969402934,MAFE4ImagesEEG,001,102181,
AFNE01.JPG,AFNE01.JPG,AFNE01.JPG,AFNE01.JPG,AFNE01.JPG,AFNE01.JPG,,,,,,,,,,,,,0,2,2,6,,,,,,,,,,,AFNE11.jpg,AFNE19.jpg,AFSA12.jpg,AFSA06.jpg,AFSA06.jpg,FS,4,num_4,32,num_8,0.733504287491,,,2017_Oct_20_1512,59.9969402934,MAFE4ImagesEEG,001,102181,
AFNE01.JPG,AFNE01.JPG,AFNE01.JPG,AFNE01.JPG,AFNE01.JPG,AFNE01.JPG,,,,,,,,,,,,,0,3,3,8,,,,,,,,,,,AFNE03.jpg,AFNE04.jpg,AFSA19.jpg,AFSA04.jpg,AFNE03.jpg,FN,3,num_8,16,num_8,1.66667853401,,,2017_Oct_20_1512,59.9969402934,MAFE4ImagesEEG,001,102181,
AFNE01.JPG,AFNE01.JPG,AFNE01.JPG,AFNE01.JPG,AFNE01.JPG,AFNE01.JPG,,,,,,,,,,,,,0,4,4,0,,,,,,,,,,,AFNE19.jpg,AFSA09.jpg,AFSA06.jpg,AFNE03.jpg,AFNE03.jpg,FN,3,num_4,16,num_4,0.783447917551,,,2017_Oct_20_1512,59.9969402934,MAFE4ImagesEEG,001,102181,
AFNE01.JPG,AFNE01.JPG,AFNE01.JPG,AFNE01.JPG,AFNE01.JPG,AFNE01.JPG,,,,,,,,,,,,,0,5,5,5,,,,,,,,,,,AFSA03.jpg,AFNE07.jpg,AFNE13.jpg,AFSA18.jpg,AFSA03.jpg,FS,4,num_8,32,num_2,2.0333415122,,,2017_Oct_20_1512,59.9969402934,MAFE4ImagesEEG,001,102181,
AFNE01.JPG,AFNE01.JPG,AFNE01.JPG,AFNE01.JPG,AFNE01.JPG,AFNE01.JPG,,,,,,,,,,,,,0,6,6,1,,,,,,,,,,,AFSA02.jpg,AFNE01.jpg,AFNE07.jpg,AFSA17.jpg,AFSA17.jpg,FS,4,num_4,16,num_4,1.36671173054,,,2017_Oct_20_1512,59.9969402934,MAFE4ImagesEEG,001,102181,
AFNE01.JPG,AFNE01.JPG,AFNE01.JPG,AFNE01.JPG,AFNE01.JPG,AFNE01.JPG,,,,,,,,,,,,,0,7,7,2,,,,,,,,,,,AFNE14.jpg,AFNE15.jpg,AFSA19.jpg,AFSA16.jpg,AFSA19.jpg,FS,4,num_2,32,num_4,0.733479590563,,,2017_Oct_20_1512,59.9969402934,MAFE4ImagesEEG,001,102181,
AFNE01.JPG,AFNE01.JPG,AFNE01.JPG,AFNE01.JPG,AFNE01.JPG,AFNE01.JPG,,,,,,,,,,,,,0,8,8,9,,,,,,,,,,,AFNE12.jpg,AFSA20.jpg,AFNE05.jpg,AFSA15.jpg,AFSA15.jpg,FS,4,num_4,32,num_6,1.86668655253,,,2017_Oct_20_1512,59.9969402934,MAFE4ImagesEEG,001,102181,
AFNE01.JPG,AFNE01.JPG,AFNE01.JPG,AFNE01.JPG,AFNE01.JPG,AFNE01.JPG,,,,,,,,,,,,,0,9,9,3,,,,,,,,,,,AFNE09.jpg,AFSA17.jpg,AFSA16.jpg,AFNE10.jpg,AFNE10.jpg,FN,3,num_4,32,num_8,1.45007032214,,,2017_Oct_20_1512,59.9969402934,MAFE4ImagesEEG,001,102181,
AFNE01.JPG,AFNE01.JPG,AFNE01.JPG,AFNE01.JPG,AFNE01.JPG,AFNE01.JPG,,,,,,,,,,,,,1,0,10,6,,,,,,,,,,,AFNE10.jpg,AFNE12.jpg,AFSA01.jpg,AFSA19.jpg,AFNE12.jpg,FN,3,num_6,16,num_6,2.89991323999,,,2017_Oct_20_1512,59.9969402934,MAFE4ImagesEEG,001,102181,
AFNE01.JPG,AFNE01.JPG,AFNE01.JPG,AFNE01.JPG,AFNE01.JPG,AFNE01.JPG,,,,,,,,,,,,,1,1,11,0,,,,,,,,,,,AFSA11.jpg,AFSA04.jpg,AFNE01.jpg,AFNE07.jpg,AFSA04.jpg,FS,4,num_6,16,num_6,0.316795363382,,,2017_Oct_20_1512,59.9969402934,MAFE4ImagesEEG,001,102181,
AFNE01.JPG,AFNE01.JPG,AFNE01.JPG,AFNE01.JPG,AFNE01.JPG,AFNE01.JPG,,,,,,,,,,,,,1,2,12,5,,,,,,,,,,,AFNE13.jpg,AFSA03.jpg,AFSA12.jpg,AFNE17.jpg,AFNE17.jpg,FN,3,num_4,32,num_8,1.0000827508,,,2017_Oct_20_1512,59.9969402934,MAFE4ImagesEEG,001,102181,
AFNE01.JPG,AFNE01.JPG,AFNE01.JPG,AFNE01.JPG,AFNE01.JPG,AFNE01.JPG,,,,,,,,,,,,,1,3,13,9,,,,,,,,,,,AFNE14.jpg,AFSA02.jpg,AFNE05.jpg,AFSA14.jpg,AFSA02.jpg,FS,4,num_6,16,num_6,0.55014842219,,,2017_Oct_20_1512,59.9969402934,MAFE4ImagesEEG,001,102181,
AFNE01.JPG,AFNE01.JPG,AFNE01.JPG,AFNE01.JPG,AFNE01.JPG,AFNE01.JPG,,,,,,,,,,,,,1,4,14,2,,,,,,,,,,,AFNE04.jpg,AFNE12.jpg,AFSA07.jpg,AFSA01.jpg,AFNE12.jpg,FN,3,num_6,32,num_2,2.38333501719,,,2017_Oct_20_1512,59.9969402934,MAFE4ImagesEEG,001,102181,
AFNE01.JPG,AFNE01.JPG,AFNE01.JPG,AFNE01.JPG,AFNE01.JPG,AFNE01.JPG,,,,,,,,,,,,,1,5,15,1,,,,,,,,,,,AFSA01.jpg,AFSA08.jpg,AFNE08.jpg,AFNE05.jpg,AFNE05.jpg,FN,3,num_4,32,num_2,1.70005693129,,,2017_Oct_20_1512,59.9969402934,MAFE4ImagesEEG,001,102181,
AFNE01.JPG,AFNE01.JPG,AFNE01.JPG,AFNE01.JPG,AFNE01.JPG,AFNE01.JPG,,,,,,,,,,,,,1,6,16,8,,,,,,,,,,,AFSA05.jpg,AFNE11.jpg,AFNE08.jpg,AFSA11.jpg,AFSA11.jpg,FS,4,num_4,32,num_8,1.86671092868,,,2017_Oct_20_1512,59.9969402934,MAFE4ImagesEEG,001,102181,
AFNE01.JPG,AFNE01.JPG,AFNE01.JPG,AFNE01.JPG,AFNE01.JPG,AFNE01.JPG,,,,,,,,,,,,,1,7,17,3,,,,,,,,,,,AFNE13.jpg,AFNE04.jpg,AFSA10.jpg,AFSA16.jpg,AFSA16.jpg,FS,4,num_4,16,num_4,0.516805947758,,,2017_Oct_20_1512,59.9969402934,MAFE4ImagesEEG,001,102181,
AFNE01.JPG,AFNE01.JPG,AFNE01.JPG,AFNE01.JPG,AFNE01.JPG,AFNE01.JPG,,,,,,,,,,,,,1,8,18,4,,,,,,,,,,,AFSA04.jpg,AFNE20.jpg,AFSA09.jpg,AFNE04.jpg,AFSA09.jpg,FS,4,num_2,16,num_2,1.90002517804,,,2017_Oct_20_1512,59.9969402934,MAFE4ImagesEEG,001,102181,
AFNE01.JPG,AFNE01.JPG,AFNE01.JPG,AFNE01.JPG,AFNE01.JPG,AFNE01.JPG,,,,,,,,,,,,,1,9,19,7,,,,,,,,,,,AFNE11.jpg,AFSA03.jpg,AFNE14.jpg,AFSA17.jpg,AFSA17.jpg,FS,4,num_4,16,num_4,0.883390986302,,,2017_Oct_20_1512,59.9969402934,MAFE4ImagesEEG,001,102181,
AFNE01.JPG,AFNE01.JPG,AFNE01.JPG,AFNE01.JPG,AFNE01.JPG,AFNE01.JPG,,,,,,,,,,,,,2,0,20,8,,,,,,,,,,,AFSA15.jpg,AFNE16.jpg,AFNE14.jpg,AFSA05.jpg,AFNE14.jpg,FN,3,num_2,32,num_6,1.44994523376,,,2017_Oct_20_1512,59.9969402934,MAFE4ImagesEEG,001,102181,
AFNE01.JPG,AFNE01.JPG,AFNE01.JPG,AFNE01.JPG,AFNE01.JPG,AFNE01.JPG,,,,,,,,,,,,,2,1,21,0,,,,,,,,,,,AFSA07.jpg,AFNE06.jpg,AFSA15.jpg,AFNE08.jpg,AFSA07.jpg,FS,4,num_8,16,num_8,1.71703335212,,,2017_Oct_20_1512,59.9969402934,MAFE4ImagesEEG,001,102181,
AFNE01.JPG,AFNE01.JPG,AFNE01.JPG,AFNE01.JPG,AFNE01.JPG,AFNE01.JPG,,,,,,,,,,,,,2,2,22,6,,,,,,,,,,,AFSA15.jpg,AFNE09.jpg,AFSA13.jpg,AFNE10.jpg,AFNE09.jpg,FN,3,num_6,16,num_6,0.916770987213,,,2017_Oct_20_1512,59.9969402934,MAFE4ImagesEEG,001,102181,
AFNE01.JPG,AFNE01.JPG,AFNE01.JPG,AFNE01.JPG,AFNE01.JPG,AFNE01.JPG,,,,,,,,,,,,,2,3,23,5,,,,,,,,,,,AFNE03.jpg,AFSA12.jpg,AFNE13.jpg,AFSA18.jpg,AFNE03.jpg,FN,3,num_8,32,num_6,3.8165036508,,,2017_Oct_20_1512,59.9969402934,MAFE4ImagesEEG,001,102181,
AFNE01.JPG,AFNE01.JPG,AFNE01.JPG,AFNE01.JPG,AFNE01.JPG,AFNE01.JPG,,,,,,,,,,,,,2,4,24,2,,,,,,,,,,,AFSA19.jpg,AFNE14.jpg,AFNE07.jpg,AFSA07.jpg,AFSA07.jpg,FS,4,num_4,16,num_4,1.11672159331,,,2017_Oct_20_1512,59.9969402934,MAFE4ImagesEEG,001,102181,
AFNE01.JPG,AFNE01.JPG,AFNE01.JPG,AFNE01.JPG,AFNE01.JPG,AFNE01.JPG,,,,,,,,,,,,,2,5,25,7,,,,,,,,,,,AFNE11.jpg,AFSA16.jpg,AFNE09.jpg,AFSA13.jpg,AFSA16.jpg,FS,4,num_6,16,num_6,0.550188193913,,,2017_Oct_20_1512,59.9969402934,MAFE4ImagesEEG,001,102181,
AFNE01.JPG,AFNE01.JPG,AFNE01.JPG,AFNE01.JPG,AFNE01.JPG,AFNE01.JPG,,,,,,,,,,,,,2,6,26,9,,,,,,,,,,,AFNE17.jpg,AFSA04.jpg,AFNE18.jpg,AFSA08.jpg,AFSA08.jpg,FS,4,num_4,16,num_4,0.866776359559,,,2017_Oct_20_1512,59.9969402934,MAFE4ImagesEEG,001,102181,
AFNE01.JPG,AFNE01.JPG,AFNE01.JPG,AFNE01.JPG,AFNE01.JPG,AFNE01.JPG,,,,,,,,,,,,,2,7,27,4,,,,,,,,,,,AFNE01.jpg,AFSA02.jpg,AFNE13.jpg,AFSA10.jpg,AFNE13.jpg,FN,3,num_2,32,num_6,0.600131182407,,,2017_Oct_20_1512,59.9969402934,MAFE4ImagesEEG,001,102181,
AFNE01.JPG,AFNE01.JPG,AFNE01.JPG,AFNE01.JPG,AFNE01.JPG,AFNE01.JPG,,,,,,,,,,,,,2,8,28,3,,,,,,,,,,,AFSA17.jpg,AFNE07.jpg,AFSA08.jpg,AFNE19.jpg,AFSA17.jpg,FS,4,num_8,32,num_2,1.71668534976,,,2017_Oct_20_1512,59.9969402934,MAFE4ImagesEEG,001,102181,
AFNE01.JPG,AFNE01.JPG,AFNE01.JPG,AFNE01.JPG,AFNE01.JPG,AFNE01.JPG,,,,,,,,,,,,,2,9,29,1,,,,,,,,,,,AFNE03.jpg,AFNE04.jpg,AFSA06.jpg,AFSA05.jpg,AFNE03.jpg,FN,3,num_8,16,num_8,0.950091651292,,,2017_Oct_20_1512,59.9969402934,MAFE4ImagesEEG,001,102181,
AFNE01.JPG,AFNE01.JPG,AFNE01.JPG,AFNE01.JPG,AFNE01.JPG,AFNE01.JPG,,,,,,,,,,,,,3,0,30,4,,,,,,,,,,,AFNE03.jpg,AFSA07.jpg,AFSA09.jpg,AFNE17.jpg,AFNE17.jpg,FN,3,num_4,16,num_4,1.7666786944,,,2017_Oct_20_1512,59.9969402934,MAFE4ImagesEEG,001,102181,
AFNE01.JPG,AFNE01.JPG,AFNE01.JPG,AFNE01.JPG,AFNE01.JPG,AFNE01.JPG,,,,,,,,,,,,,3,1,31,9,,,,,,,,,,,AFSA09.jpg,AFNE15.jpg,AFNE16.jpg,AFSA18.jpg,AFNE15.jpg,FN,3,num_6,16,num_6,0.900124928041,,,2017_Oct_20_1512,59.9969402934,MAFE4ImagesEEG,001,102181,
AFNE01.JPG,AFNE01.JPG,AFNE01.JPG,AFNE01.JPG,AFNE01.JPG,AFNE01.JPG,,,,,,,,,,,,,3,2,32,3,,,,,,,,,,,AFNE04.jpg,AFSA10.jpg,AFNE12.jpg,AFSA01.jpg,AFSA10.jpg,FS,4,num_6,32,num_4,0.933468685369,,,2017_Oct_20_1512,59.9969402934,MAFE4ImagesEEG,001,102181,
AFNE01.JPG,AFNE01.JPG,AFNE01.JPG,AFNE01.JPG,AFNE01.JPG,AFNE01.JPG,,,,,,,,,,,,,3,3,33,7,,,,,,,,,,,AFSA15.jpg,AFNE06.jpg,AFSA20.jpg,AFNE17.jpg,AFNE17.jpg,FN,3,num_4,32,num_8,1.18343188055,,,2017_Oct_20_1512,59.9969402934,MAFE4ImagesEEG,001,102181,
AFNE01.JPG,AFNE01.JPG,AFNE01.JPG,AFNE01.JPG,AFNE01.JPG,AFNE01.JPG,,,,,,,,,,,,,3,4,34,5,,,,,,,,,,,AFNE18.jpg,AFSA09.jpg,AFNE06.jpg,AFSA07.jpg,AFNE06.jpg,FN,3,num_2,32,num_6,1.48337142111,,,2017_Oct_20_1512,59.9969402934,MAFE4ImagesEEG,001,102181,
AFNE01.JPG,AFNE01.JPG,AFNE01.JPG,AFNE01.JPG,AFNE01.JPG,AFNE01.JPG,,,,,,,,,,,,,3,5,35,2,,,,,,,,,,,AFSA13.jpg,AFNE11.jpg,AFNE09.jpg,AFSA04.jpg,AFSA13.jpg,FS,4,num_8,16,num_8,1.41676088388,,,2017_Oct_20_1512,59.9969402934,MAFE4ImagesEEG,001,102181,
AFNE01.JPG,AFNE01.JPG,AFNE01.JPG,AFNE01.JPG,AFNE01.JPG,AFNE01.JPG,,,,,,,,,,,,,3,6,36,8,,,,,,,,,,,AFSA01.jpg,AFNE11.jpg,AFNE14.jpg,AFSA11.jpg,AFNE11.jpg,FN,3,num_6,32,num_4,1.1167209518,,,2017_Oct_20_1512,59.9969402934,MAFE4ImagesEEG,001,102181,
AFNE01.JPG,AFNE01.JPG,AFNE01.JPG,AFNE01.JPG,AFNE01.JPG,AFNE01.JPG,,,,,,,,,,,,,3,7,37,1,,,,,,,,,,,AFSA19.jpg,AFNE11.jpg,AFSA07.jpg,AFNE17.jpg,AFSA07.jpg,FS,4,num_2,32,num_6,0.933455535094,,,2017_Oct_20_1512,59.9969402934,MAFE4ImagesEEG,001,102181,
AFNE01.JPG,AFNE01.JPG,AFNE01.JPG,AFNE01.JPG,AFNE01.JPG,AFNE01.JPG,,,,,,,,,,,,,3,8,38,6,,,,,,,,,,,AFSA20.jpg,AFNE17.jpg,AFSA12.jpg,AFNE06.jpg,AFSA20.jpg,FS,4,num_8,32,num_6,1.06672632421,,,2017_Oct_20_1512,59.9969402934,MAFE4ImagesEEG,001,102181,
AFNE01.JPG,AFNE01.JPG,AFNE01.JPG,AFNE01.JPG,AFNE01.JPG,AFNE01.JPG,,,,,,,,,,,,,3,9,39,0,,,,,,,,,,,AFNE14.jpg,AFSA20.jpg,AFNE15.jpg,AFSA09.jpg,AFNE14.jpg,FN,3,num_8,16,num_8,1.2334467147,,,2017_Oct_20_1512,59.9969402934,MAFE4ImagesEEG,001,102181,
AFNE01.JPG,AFNE01.JPG,AFNE01.JPG,AFNE01.JPG,AFNE01.JPG,AFNE01.JPG,,,,,,,,,,,,,4,0,40,4,,,,,,,,,,,AFSA09.jpg,AFNE18.jpg,AFSA02.jpg,AFNE09.jpg,AFNE09.jpg,FN,3,num_4,32,num_6,1.05016109144,,,2017_Oct_20_1512,59.9969402934,MAFE4ImagesEEG,001,102181,
AFNE01.JPG,AFNE01.JPG,AFNE01.JPG,AFNE01.JPG,AFNE01.JPG,AFNE01.JPG,,,,,,,,,,,,,4,1,41,8,,,,,,,,,,,AFSA19.jpg,AFNE20.jpg,AFSA20.jpg,AFNE06.jpg,AFNE20.jpg,FN,3,num_6,16,num_6,1.51674789394,,,2017_Oct_20_1512,59.9969402934,MAFE4ImagesEEG,001,102181,
AFNE01.JPG,AFNE01.JPG,AFNE01.JPG,AFNE01.JPG,AFNE01.JPG,AFNE01.JPG,,,,,,,,,,,,,4,2,42,6,,,,,,,,,,,AFSA07.jpg,AFSA08.jpg,AFNE02.jpg,AFNE17.jpg,AFNE02.jpg,FN,3,num_2,32,num_4,1.5334151219,,,2017_Oct_20_1512,59.9969402934,MAFE4ImagesEEG,001,102181,
AFNE01.JPG,AFNE01.JPG,AFNE01.JPG,AFNE01.JPG,AFNE01.JPG,AFNE01.JPG,,,,,,,,,,,,,4,3,43,2,,,,,,,,,,,AFSA09.jpg,AFNE20.jpg,AFSA13.jpg,AFNE06.jpg,AFSA09.jpg,FS,4,num_8,16,num_8,1.75002910709,,,2017_Oct_20_1512,59.9969402934,MAFE4ImagesEEG,001,102181,
AFNE01.JPG,AFNE01.JPG,AFNE01.JPG,AFNE01.JPG,AFNE01.JPG,AFNE01.JPG,,,,,,,,,,,,,4,4,44,9,,,,,,,,,,,AFSA17.jpg,AFNE05.jpg,AFNE15.jpg,AFSA11.jpg,AFNE05.jpg,FN,3,num_6,16,num_6,0.966725201637,,,2017_Oct_20_1512,59.9969402934,MAFE4ImagesEEG,001,102181,
AFNE01.JPG,AFNE01.JPG,AFNE01.JPG,AFNE01.JPG,AFNE01.JPG,AFNE01.JPG,,,,,,,,,,,,,4,5,45,1,,,,,,,,,,,AFNE05.jpg,AFNE02.jpg,AFSA03.jpg,AFSA14.jpg,AFNE02.jpg,FN,3,num_6,16,num_6,0.916757516155,,,2017_Oct_20_1512,59.9969402934,MAFE4ImagesEEG,001,102181,
AFNE01.JPG,AFNE01.JPG,AFNE01.JPG,AFNE01.JPG,AFNE01.JPG,AFNE01.JPG,,,,,,,,,,,,,4,6,46,5,,,,,,,,,,,AFSA05.jpg,AFNE14.jpg,AFNE09.jpg,AFSA06.jpg,AFSA05.jpg,FS,4,num_8,32,num_4,0.866788547661,,,2017_Oct_20_1512,59.9969402934,MAFE4ImagesEEG,001,102181,
AFNE01.JPG,AFNE01.JPG,AFNE01.JPG,AFNE01.JPG,AFNE01.JPG,AFNE01.JPG,,,,,,,,,,,,,4,7,47,0,,,,,,,,,,,AFSA11.jpg,AFSA15.jpg,AFNE13.jpg,AFNE04.jpg,AFNE13.jpg,FN,3,num_2,32,num_8,1.81667011458,,,2017_Oct_20_1512,59.9969402934,MAFE4ImagesEEG,001,102181,
AFNE01.JPG,AFNE01.JPG,AFNE01.JPG,AFNE01.JPG,AFNE01.JPG,AFNE01.JPG,,,,,,,,,,,,,4,8,48,3,,,,,,,,,,,AFNE01.jpg,AFSA05.jpg,AFSA10.jpg,AFNE13.jpg,AFSA05.jpg,FS,4,num_6,16,num_6,0.683428833494,,,2017_Oct_20_1512,59.9969402934,MAFE4ImagesEEG,001,102181,
AFNE01.JPG,AFNE01.JPG,AFNE01.JPG,AFNE01.JPG,AFNE01.JPG,AFNE01.JPG,,,,,,,,,,,,,4,9,49,7,,,,,,,,,,,AFSA03.jpg,AFNE01.jpg,AFSA17.jpg,AFNE08.jpg,AFNE08.jpg,FN,3,num_4,16,num_4,0.716739554715,,,2017_Oct_20_1512,59.9969402934,MAFE4ImagesEEG,001,102181,
AFNE01.JPG,AFNE01.JPG,AFNE01.JPG,AFNE01.JPG,AFNE01.JPG,AFNE01.JPG,,,,,,,,,,,,,5,0,50,6,,,,,,,,,,,AFNE10.jpg,AFSA16.jpg,AFSA05.jpg,AFNE18.jpg,AFSA16.jpg,FS,4,num_6,16,num_6,0.849872425839,,,2017_Oct_20_1512,59.9969402934,MAFE4ImagesEEG,001,102181,
AFNE01.JPG,AFNE01.JPG,AFNE01.JPG,AFNE01.JPG,AFNE01.JPG,AFNE01.JPG,,,,,,,,,,,,,5,1,51,8,,,,,,,,,,,AFSA17.jpg,AFNE06.jpg,AFSA07.jpg,AFNE16.jpg,AFSA07.jpg,FS,4,num_2,16,num_2,1.40006061975,,,2017_Oct_20_1512,59.9969402934,MAFE4ImagesEEG,001,102181,
AFNE01.JPG,AFNE01.JPG,AFNE01.JPG,AFNE01.JPG,AFNE01.JPG,AFNE01.JPG,,,,,,,,,,,,,5,2,52,2,,,,,,,,,,,AFNE15.jpg,AFSA05.jpg,AFNE09.jpg,AFSA06.jpg,AFSA06.jpg,FS,4,num_4,16,num_4,0.850142167765,,,2017_Oct_20_1512,59.9969402934,MAFE4ImagesEEG,001,102181,
AFNE01.JPG,AFNE01.JPG,AFNE01.JPG,AFNE01.JPG,AFNE01.JPG,AFNE01.JPG,,,,,,,,,,,,,5,3,53,3,,,,,,,,,,,AFNE09.jpg,AFNE19.jpg,AFSA05.jpg,AFSA12.jpg,AFSA05.jpg,FS,4,num_2,16,num_2,1.48353499826,,,2017_Oct_20_1512,59.9969402934,MAFE4ImagesEEG,001,102181,
AFNE01.JPG,AFNE01.JPG,AFNE01.JPG,AFNE01.JPG,AFNE01.JPG,AFNE01.JPG,,,,,,,,,,,,,5,4,54,0,,,,,,,,,,,AFSA01.jpg,AFSA20.jpg,AFNE01.jpg,AFNE02.jpg,AFSA20.jpg,FS,4,num_6,32,num_4,0.983439257601,,,2017_Oct_20_1512,59.9969402934,MAFE4ImagesEEG,001,102181,
AFNE01.JPG,AFNE01.JPG,AFNE01.JPG,AFNE01.JPG,AFNE01.JPG,AFNE01.JPG,,,,,,,,,,,,,5,5,55,7,,,,,,,,,,,AFSA12.jpg,AFNE05.jpg,AFSA14.jpg,AFNE03.jpg,AFSA12.jpg,FS,4,num_8,16,num_8,0.566635715251,,,2017_Oct_20_1512,59.9969402934,MAFE4ImagesEEG,001,102181,
AFNE01.JPG,AFNE01.JPG,AFNE01.JPG,AFNE01.JPG,AFNE01.JPG,AFNE01.JPG,,,,,,,,,,,,,5,6,56,5,,,,,,,,,,,AFSA06.jpg,AFNE12.jpg,AFNE02.jpg,AFSA10.jpg,AFSA06.jpg,FS,4,num_8,32,num_6,0.6334755813,,,2017_Oct_20_1512,59.9969402934,MAFE4ImagesEEG,001,102181,
AFNE01.JPG,AFNE01.JPG,AFNE01.JPG,AFNE01.JPG,AFNE01.JPG,AFNE01.JPG,,,,,,,,,,,,,5,7,57,4,,,,,,,,,,,AFSA09.jpg,AFSA02.jpg,AFNE15.jpg,AFNE02.jpg,AFSA02.jpg,FS,4,num_6,16,num_6,0.633494825684,,,2017_Oct_20_1512,59.9969402934,MAFE4ImagesEEG,001,102181,
AFNE01.JPG,AFNE01.JPG,AFNE01.JPG,AFNE01.JPG,AFNE01.JPG,AFNE01.JPG,,,,,,,,,,,,,5,8,58,1,,,,,,,,,,,AFSA13.jpg,AFNE12.jpg,AFSA01.jpg,AFNE02.jpg,AFSA01.jpg,FS,4,num_2,32,num_8,1.55005284183,,,2017_Oct_20_1512,59.9969402934,MAFE4ImagesEEG,001,102181,
AFNE01.JPG,AFNE01.JPG,AFNE01.JPG,AFNE01.JPG,AFNE01.JPG,AFNE01.JPG,,,,,,,,,,,,,5,9,59,9,,,,,,,,,,,AFSA19.jpg,AFNE16.jpg,AFSA01.jpg,AFNE05.jpg,AFNE05.jpg,FN,3,num_4,32,num_8,2.83333830483,,,2017_Oct_20_1512,59.9969402934,MAFE4ImagesEEG,001,102181,
,,,,,,,,,,,,,,,,,,,,,,,,,,,,,,,,,,,,,,,,,,,space,14.482087501,2017_Oct_20_1512,59.9969402934,MAFE4ImagesEEG,001,102181,
AFNE01.JPG,AFNE01.JPG,AFNE01.JPG,AFNE01.JPG,AFNE01.JPG,AFNE01.JPG,,,,,,,,,,,,,,,,,0,0,0,6,,,,,,,AMSA19.jpg,AMNE06.jpg,AMSA02.jpg,AMNE17.jpg,AMNE17.jpg,MN,1,num_4,32,num_8,0.633785415615,,,2017_Oct_20_1512,59.9969402934,MAFE4ImagesEEG,001,102181,
AFNE01.JPG,AFNE01.JPG,AFNE01.JPG,AFNE01.JPG,AFNE01.JPG,AFNE01.JPG,,,,,,,,,,,,,,,,,0,1,1,3,,,,,,,AMSA12.jpg,AMSA18.jpg,AMNE01.jpg,AMNE19.jpg,AMSA18.jpg,MS,2,num_6,16,num_6,0.666767699644,,,2017_Oct_20_1512,59.9969402934,MAFE4ImagesEEG,001,102181,
AFNE01.JPG,AFNE01.JPG,AFNE01.JPG,AFNE01.JPG,AFNE01.JPG,AFNE01.JPG,,,,,,,,,,,,,,,,,0,2,2,7,,,,,,,AMSA12.jpg,AMNE01.jpg,AMSA19.jpg,AMNE03.jpg,AMNE03.jpg,MN,1,num_4,32,num_6,2.25008347246,,,2017_Oct_20_1512,59.9969402934,MAFE4ImagesEEG,001,102181,
AFNE01.JPG,AFNE01.JPG,AFNE01.JPG,AFNE01.JPG,AFNE01.JPG,AFNE01.JPG,,,,,,,,,,,,,,,,,0,3,3,4,,,,,,,AMSA09.jpg,AMNE19.jpg,AMNE16.jpg,AMSA15.jpg,AMSA15.jpg,MS,2,num_4,16,num_4,2.11663018254,,,2017_Oct_20_1512,59.9969402934,MAFE4ImagesEEG,001,102181,
AFNE01.JPG,AFNE01.JPG,AFNE01.JPG,AFNE01.JPG,AFNE01.JPG,AFNE01.JPG,,,,,,,,,,,,,,,,,0,4,4,8,,,,,,,AMNE07.jpg,AMSA11.jpg,AMSA09.jpg,AMNE14.jpg,AMSA11.jpg,MS,2,num_6,32,num_2,2.48335795011,,,2017_Oct_20_1512,59.9969402934,MAFE4ImagesEEG,001,102181,
AFNE01.JPG,AFNE01.JPG,AFNE01.JPG,AFNE01.JPG,AFNE01.JPG,AFNE01.JPG,,,,,,,,,,,,,,,,,0,5,5,1,,,,,,,AMNE05.jpg,AMNE02.jpg,AMSA11.jpg,AMSA06.jpg,AMSA11.jpg,MS,2,num_2,32,num_6,2.48318795813,,,2017_Oct_20_1512,59.9969402934,MAFE4ImagesEEG,001,102181,
AFNE01.JPG,AFNE01.JPG,AFNE01.JPG,AFNE01.JPG,AFNE01.JPG,AFNE01.JPG,,,,,,,,,,,,,,,,,0,6,6,9,,,,,,,AMSA13.jpg,AMNE14.jpg,AMSA15.jpg,AMNE08.jpg,AMNE08.jpg,MN,1,num_4,32,num_8,0.766780048085,,,2017_Oct_20_1512,59.9969402934,MAFE4ImagesEEG,001,102181,
AFNE01.JPG,AFNE01.JPG,AFNE01.JPG,AFNE01.JPG,AFNE01.JPG,AFNE01.JPG,,,,,,,,,,,,,,,,,0,7,7,2,,,,,,,AMSA19.jpg,AMNE19.jpg,AMSA17.jpg,AMNE16.jpg,AMSA17.jpg,MS,2,num_2,16,num_2,2.2000644686,,,2017_Oct_20_1512,59.9969402934,MAFE4ImagesEEG,001,102181,
AFNE01.JPG,AFNE01.JPG,AFNE01.JPG,AFNE01.JPG,AFNE01.JPG,AFNE01.JPG,,,,,,,,,,,,,,,,,0,8,8,5,,,,,,,AMSA01.jpg,AMNE15.jpg,AMNE11.jpg,AMSA02.jpg,AMNE15.jpg,MN,1,num_6,48,None,,,,2017_Oct_20_1512,59.9969402934,MAFE4ImagesEEG,001,102181,
AFNE01.JPG,AFNE01.JPG,AFNE01.JPG,AFNE01.JPG,AFNE01.JPG,AFNE01.JPG,,,,,,,,,,,,,,,,,0,9,9,0,,,,,,,AMSA15.jpg,AMNE05.jpg,AMSA12.jpg,AMNE10.jpg,AMNE10.jpg,MN,1,num_4,32,num_6,1.50009958964,,,2017_Oct_20_1512,59.9969402934,MAFE4ImagesEEG,001,102181,
AFNE01.JPG,AFNE01.JPG,AFNE01.JPG,AFNE01.JPG,AFNE01.JPG,AFNE01.JPG,,,,,,,,,,,,,,,,,1,0,10,9,,,,,,,AMNE12.jpg,AMNE06.jpg,AMSA05.jpg,AMSA18.jpg,AMNE12.jpg,MN,1,num_8,32,num_6,1.21675735572,,,2017_Oct_20_1512,59.9969402934,MAFE4ImagesEEG,001,102181,
AFNE01.JPG,AFNE01.JPG,AFNE01.JPG,AFNE01.JPG,AFNE01.JPG,AFNE01.JPG,,,,,,,,,,,,,,,,,1,1,11,7,,,,,,,AMSA13.jpg,AMNE17.jpg,AMSA05.jpg,AMNE08.jpg,AMNE08.jpg,MN,1,num_4,16,num_4,1.08353243239,,,2017_Oct_20_1512,59.9969402934,MAFE4ImagesEEG,001,102181,
AFNE01.JPG,AFNE01.JPG,AFNE01.JPG,AFNE01.JPG,AFNE01.JPG,AFNE01.JPG,,,,,,,,,,,,,,,,,1,2,12,5,,,,,,,AMSA14.jpg,AMSA08.jpg,AMNE17.jpg,AMNE08.jpg,AMNE08.jpg,MN,1,num_4,32,num_6,0.516749497678,,,2017_Oct_20_1512,59.9969402934,MAFE4ImagesEEG,001,102181,
AFNE01.JPG,AFNE01.JPG,AFNE01.JPG,AFNE01.JPG,AFNE01.JPG,AFNE01.JPG,,,,,,,,,,,,,,,,,1,3,13,6,,,,,,,AMSA06.jpg,AMNE01.jpg,AMSA04.jpg,AMNE11.jpg,AMSA06.jpg,MS,2,num_8,32,num_2,2.79997690674,,,2017_Oct_20_1512,59.9969402934,MAFE4ImagesEEG,001,102181,
AFNE01.JPG,AFNE01.JPG,AFNE01.JPG,AFNE01.JPG,AFNE01.JPG,AFNE01.JPG,,,,,,,,,,,,,,,,,1,4,14,4,,,,,,,AMNE06.jpg,AMNE16.jpg,AMSA18.jpg,AMSA07.jpg,AMSA18.jpg,MS,2,num_2,48,None,,,,2017_Oct_20_1512,59.9969402934,MAFE4ImagesEEG,001,102181,
AFNE01.JPG,AFNE01.JPG,AFNE01.JPG,AFNE01.JPG,AFNE01.JPG,AFNE01.JPG,,,,,,,,,,,,,,,,,1,5,15,1,,,,,,,AMSA14.jpg,AMNE03.jpg,AMSA05.jpg,AMNE07.jpg,AMNE03.jpg,MN,1,num_6,16,num_6,1.63340084901,,,2017_Oct_20_1512,59.9969402934,MAFE4ImagesEEG,001,102181,
AFNE01.JPG,AFNE01.JPG,AFNE01.JPG,AFNE01.JPG,AFNE01.JPG,AFNE01.JPG,,,,,,,,,,,,,,,,,1,6,16,2,,,,,,,AMNE06.jpg,AMSA14.jpg,AMSA08.jpg,AMNE08.jpg,AMNE06.jpg,MN,1,num_8,32,num_6,0.549608296889,,,2017_Oct_20_1512,59.9969402934,MAFE4ImagesEEG,001,102181,
AFNE01.JPG,AFNE01.JPG,AFNE01.JPG,AFNE01.JPG,AFNE01.JPG,AFNE01.JPG,,,,,,,,,,,,,,,,,1,7,17,8,,,,,,,AMSA09.jpg,AMNE07.jpg,AMSA20.jpg,AMNE13.jpg,AMSA09.jpg,MS,2,num_8,16,num_8,0.68348945328,,,2017_Oct_20_1512,59.9969402934,MAFE4ImagesEEG,001,102181,
AFNE01.JPG,AFNE01.JPG,AFNE01.JPG,AFNE01.JPG,AFNE01.JPG,AFNE01.JPG,,,,,,,,,,,,,,,,,1,8,18,3,,,,,,,AMNE13.jpg,AMSA01.jpg,AMSA06.jpg,AMNE10.jpg,AMNE13.jpg,MN,1,num_8,32,num_4,1.26675615297,,,2017_Oct_20_1512,59.9969402934,MAFE4ImagesEEG,001,102181,
AFNE01.JPG,AFNE01.JPG,AFNE01.JPG,AFNE01.JPG,AFNE01.JPG,AFNE01.JPG,,,,,,,,,,,,,,,,,1,9,19,0,,,,,,,AMNE05.jpg,AMSA07.jpg,AMSA19.jpg,AMNE08.jpg,AMSA19.jpg,MS,2,num_2,48,None,,,,2017_Oct_20_1512,59.9969402934,MAFE4ImagesEEG,001,102181,
AFNE01.JPG,AFNE01.JPG,AFNE01.JPG,AFNE01.JPG,AFNE01.JPG,AFNE01.JPG,,,,,,,,,,,,,,,,,2,0,20,3,,,,,,,AMSA13.jpg,AMNE17.jpg,AMNE01.jpg,AMSA17.jpg,AMSA17.jpg,MS,2,num_4,32,num_6,0.600134710548,,,2017_Oct_20_1512,59.9969402934,MAFE4ImagesEEG,001,102181,
AFNE01.JPG,AFNE01.JPG,AFNE01.JPG,AFNE01.JPG,AFNE01.JPG,AFNE01.JPG,,,,,,,,,,,,,,,,,2,1,21,5,,,,,,,AMSA07.jpg,AMNE02.jpg,AMNE15.jpg,AMSA04.jpg,AMSA04.jpg,MS,2,num_4,16,num_4,0.633531389933,,,2017_Oct_20_1512,59.9969402934,MAFE4ImagesEEG,001,102181,
AFNE01.JPG,AFNE01.JPG,AFNE01.JPG,AFNE01.JPG,AFNE01.JPG,AFNE01.JPG,,,,,,,,,,,,,,,,,2,2,22,2,,,,,,,AMSA02.jpg,AMSA12.jpg,AMNE17.jpg,AMNE13.jpg,AMSA12.jpg,MS,2,num_6,16,num_6,0.583465558186,,,2017_Oct_20_1512,59.9969402934,MAFE4ImagesEEG,001,102181,
AFNE01.JPG,AFNE01.JPG,AFNE01.JPG,AFNE01.JPG,AFNE01.JPG,AFNE01.JPG,,,,,,,,,,,,,,,,,2,3,23,6,,,,,,,AMNE13.jpg,AMNE12.jpg,AMSA14.jpg,AMSA06.jpg,AMSA14.jpg,MS,2,num_2,16,num_2,1.68333517754,,,2017_Oct_20_1512,59.9969402934,MAFE4ImagesEEG,001,102181,
AFNE01.JPG,AFNE01.JPG,AFNE01.JPG,AFNE01.JPG,AFNE01.JPG,AFNE01.JPG,,,,,,,,,,,,,,,,,2,4,24,4,,,,,,,AMSA02.jpg,AMNE04.jpg,AMNE12.jpg,AMSA16.jpg,AMNE12.jpg,MN,1,num_2,32,num_8,2.11665904912,,,2017_Oct_20_1512,59.9969402934,MAFE4ImagesEEG,001,102181,
AFNE01.JPG,AFNE01.JPG,AFNE01.JPG,AFNE01.JPG,AFNE01.JPG,AFNE01.JPG,,,,,,,,,,,,,,,,,2,5,25,1,,,,,,,AMSA15.jpg,AMNE08.jpg,AMNE02.jpg,AMSA11.jpg,AMNE02.jpg,MN,1,num_2,32,num_6,1.43340277346,,,2017_Oct_20_1512,59.9969402934,MAFE4ImagesEEG,001,102181,
AFNE01.JPG,AFNE01.JPG,AFNE01.JPG,AFNE01.JPG,AFNE01.JPG,AFNE01.JPG,,,,,,,,,,,,,,,,,2,6,26,8,,,,,,,AMNE19.jpg,AMNE10.jpg,AMSA11.jpg,AMSA13.jpg,AMNE10.jpg,MN,1,num_6,32,num_4,0.883251143852,,,2017_Oct_20_1512,59.9969402934,MAFE4ImagesEEG,001,102181,
AFNE01.JPG,AFNE01.JPG,AFNE01.JPG,AFNE01.JPG,AFNE01.JPG,AFNE01.JPG,,,,,,,,,,,,,,,,,2,7,27,9,,,,,,,AMSA15.jpg,AMNE08.jpg,AMNE07.jpg,AMSA09.jpg,AMNE07.jpg,MN,1,num_2,32,num_6,1.1167549502,,,2017_Oct_20_1512,59.9969402934,MAFE4ImagesEEG,001,102181,
AFNE01.JPG,AFNE01.JPG,AFNE01.JPG,AFNE01.JPG,AFNE01.JPG,AFNE01.JPG,,,,,,,,,,,,,,,,,2,8,28,0,,,,,,,AMNE05.jpg,AMNE16.jpg,AMSA16.jpg,AMSA18.jpg,AMNE16.jpg,MN,1,num_6,16,num_6,0.866747813707,,,2017_Oct_20_1512,59.9969402934,MAFE4ImagesEEG,001,102181,
AFNE01.JPG,AFNE01.JPG,AFNE01.JPG,AFNE01.JPG,AFNE01.JPG,AFNE01.JPG,,,,,,,,,,,,,,,,,2,9,29,7,,,,,,,AMSA04.jpg,AMNE04.jpg,AMNE16.jpg,AMSA18.jpg,AMSA04.jpg,MS,2,num_8,16,num_8,1.65034776181,,,2017_Oct_20_1512,59.9969402934,MAFE4ImagesEEG,001,102181,
AFNE01.JPG,AFNE01.JPG,AFNE01.JPG,AFNE01.JPG,AFNE01.JPG,AFNE01.JPG,,,,,,,,,,,,,,,,,3,0,30,8,,,,,,,AMNE11.jpg,AMSA09.jpg,AMNE12.jpg,AMSA05.jpg,AMNE11.jpg,MN,1,num_8,48,None,,,,2017_Oct_20_1512,59.9969402934,MAFE4ImagesEEG,001,102181,
AFNE01.JPG,AFNE01.JPG,AFNE01.JPG,AFNE01.JPG,AFNE01.JPG,AFNE01.JPG,,,,,,,,,,,,,,,,,3,1,31,6,,,,,,,AMSA08.jpg,AMNE03.jpg,AMSA15.jpg,AMNE05.jpg,AMSA08.jpg,MS,2,num_8,32,num_6,0.616763449856,,,2017_Oct_20_1512,59.9969402934,MAFE4ImagesEEG,001,102181,
AFNE01.JPG,AFNE01.JPG,AFNE01.JPG,AFNE01.JPG,AFNE01.JPG,AFNE01.JPG,,,,,,,,,,,,,,,,,3,2,32,9,,,,,,,AMSA18.jpg,AMNE06.jpg,AMNE07.jpg,AMSA03.jpg,AMSA03.jpg,MS,2,num_4,16,num_4,0.750149705156,,,2017_Oct_20_1512,59.9969402934,MAFE4ImagesEEG,001,102181,
AFNE01.JPG,AFNE01.JPG,AFNE01.JPG,AFNE01.JPG,AFNE01.JPG,AFNE01.JPG,,,,,,,,,,,,,,,,,3,3,33,3,,,,,,,AMSA18.jpg,AMNE07.jpg,AMSA20.jpg,AMNE17.jpg,AMSA20.jpg,MS,2,num_2,16,num_2,1.46674364415,,,2017_Oct_20_1512,59.9969402934,MAFE4ImagesEEG,001,102181,
AFNE01.JPG,AFNE01.JPG,AFNE01.JPG,AFNE01.JPG,AFNE01.JPG,AFNE01.JPG,,,,,,,,,,,,,,,,,3,4,34,0,,,,,,,AMSA12.jpg,AMSA19.jpg,AMNE06.jpg,AMNE08.jpg,AMNE06.jpg,MN,1,num_2,16,num_2,2.01666851097,,,2017_Oct_20_1512,59.9969402934,MAFE4ImagesEEG,001,102181,
AFNE01.JPG,AFNE01.JPG,AFNE01.JPG,AFNE01.JPG,AFNE01.JPG,AFNE01.JPG,,,,,,,,,,,,,,,,,3,5,35,2,,,,,,,AMNE04.jpg,AMSA10.jpg,AMSA04.jpg,AMNE06.jpg,AMNE06.jpg,MN,1,num_4,48,None,,,,2017_Oct_20_1512,59.9969402934,MAFE4ImagesEEG,001,102181,
AFNE01.JPG,AFNE01.JPG,AFNE01.JPG,AFNE01.JPG,AFNE01.JPG,AFNE01.JPG,,,,,,,,,,,,,,,,,3,6,36,1,,,,,,,AMSA06.jpg,AMNE01.jpg,AMSA18.jpg,AMNE09.jpg,AMSA06.jpg,MS,2,num_8,32,num_4,1.01674292248,,,2017_Oct_20_1512,59.9969402934,MAFE4ImagesEEG,001,102181,
AFNE01.JPG,AFNE01.JPG,AFNE01.JPG,AFNE01.JPG,AFNE01.JPG,AFNE01.JPG,,,,,,,,,,,,,,,,,3,7,37,5,,,,,,,AMNE08.jpg,AMSA19.jpg,AMNE09.jpg,AMSA06.jpg,AMSA06.jpg,MS,2,num_4,16,num_4,0.80012444692,,,2017_Oct_20_1512,59.9969402934,MAFE4ImagesEEG,001,102181,
AFNE01.JPG,AFNE01.JPG,AFNE01.JPG,AFNE01.JPG,AFNE01.JPG,AFNE01.JPG,,,,,,,,,,,,,,,,,3,8,38,7,,,,,,,AMSA04.jpg,AMSA10.jpg,AMNE03.jpg,AMNE12.jpg,AMSA10.jpg,MS,2,num_6,48,None,,,,2017_Oct_20_1512,59.9969402934,MAFE4ImagesEEG,001,102181,
AFNE01.JPG,AFNE01.JPG,AFNE01.JPG,AFNE01.JPG,AFNE01.JPG,AFNE01.JPG,,,,,,,,,,,,,,,,,3,9,39,4,,,,,,,AMSA07.jpg,AMSA13.jpg,AMNE07.jpg,AMNE08.jpg,AMSA13.jpg,MS,2,num_6,32,num_2,1.96667452483,,,2017_Oct_20_1512,59.9969402934,MAFE4ImagesEEG,001,102181,
AFNE01.JPG,AFNE01.JPG,AFNE01.JPG,AFNE01.JPG,AFNE01.JPG,AFNE01.JPG,,,,,,,,,,,,,,,,,4,0,40,0,,,,,,,AMSA20.jpg,AMNE02.jpg,AMNE10.jpg,AMSA15.jpg,AMNE10.jpg,MN,1,num_2,48,None,,,,2017_Oct_20_1512,59.9969402934,MAFE4ImagesEEG,001,102181,
AFNE01.JPG,AFNE01.JPG,AFNE01.JPG,AFNE01.JPG,AFNE01.JPG,AFNE01.JPG,,,,,,,,,,,,,,,,,4,1,41,1,,,,,,,AMNE10.jpg,AMSA05.jpg,AMSA11.jpg,AMNE14.jpg,AMSA05.jpg,MS,2,num_6,16,num_6,2.50016405823,,,2017_Oct_20_1512,59.9969402934,MAFE4ImagesEEG,001,102181,
AFNE01.JPG,AFNE01.JPG,AFNE01.JPG,AFNE01.JPG,AFNE01.JPG,AFNE01.JPG,,,,,,,,,,,,,,,,,4,2,42,7,,,,,,,AMSA01.jpg,AMNE08.jpg,AMSA03.jpg,AMNE17.jpg,AMSA03.jpg,MS,2,num_2,32,num_8,1.03341624449,,,2017_Oct_20_1512,59.9969402934,MAFE4ImagesEEG,001,102181,
AFNE01.JPG,AFNE01.JPG,AFNE01.JPG,AFNE01.JPG,AFNE01.JPG,AFNE01.JPG,,,,,,,,,,,,,,,,,4,3,43,6,,,,,,,AMSA11.jpg,AMSA01.jpg,AMNE07.jpg,AMNE06.jpg,AMNE07.jpg,MN,1,num_2,16,num_2,1.66663908307,,,2017_Oct_20_1512,59.9969402934,MAFE4ImagesEEG,001,102181,
AFNE01.JPG,AFNE01.JPG,AFNE01.JPG,AFNE01.JPG,AFNE01.JPG,AFNE01.JPG,,,,,,,,,,,,,,,,,4,4,44,8,,,,,,,AMSA02.jpg,AMSA03.jpg,AMNE14.jpg,AMNE10.jpg,AMSA02.jpg,MS,2,num_8,16,num_8,0.900001764065,,,2017_Oct_20_1512,59.9969402934,MAFE4ImagesEEG,001,102181,
AFNE01.JPG,AFNE01.JPG,AFNE01.JPG,AFNE01.JPG,AFNE01.JPG,AFNE01.JPG,,,,,,,,,,,,,,,,,4,5,45,2,,,,,,,AMSA05.jpg,AMNE02.jpg,AMNE13.jpg,AMSA19.jpg,AMNE02.jpg,MN,1,num_6,16,num_6,0.800118352869,,,2017_Oct_20_1512,59.9969402934,MAFE4ImagesEEG,001,102181,
AFNE01.JPG,AFNE01.JPG,AFNE01.JPG,AFNE01.JPG,AFNE01.JPG,AFNE01.JPG,,,,,,,,,,,,,,,,,4,6,46,9,,,,,,,AMSA01.jpg,AMNE10.jpg,AMNE20.jpg,AMSA17.jpg,AMNE20.jpg,MN,1,num_2,32,num_8,1.13344591286,,,2017_Oct_20_1512,59.9969402934,MAFE4ImagesEEG,001,102181,
AFNE01.JPG,AFNE01.JPG,AFNE01.JPG,AFNE01.JPG,AFNE01.JPG,AFNE01.JPG,,,,,,,,,,,,,,,,,4,7,47,4,,,,,,,AMNE03.jpg,AMSA03.jpg,AMSA16.jpg,AMNE06.jpg,AMNE03.jpg,MN,1,num_8,16,num_8,1.08342145651,,,2017_Oct_20_1512,59.9969402934,MAFE4ImagesEEG,001,102181,
AFNE01.JPG,AFNE01.JPG,AFNE01.JPG,AFNE01.JPG,AFNE01.JPG,AFNE01.JPG,,,,,,,,,,,,,,,,,4,8,48,3,,,,,,,AMNE12.jpg,AMNE09.jpg,AMSA07.jpg,AMSA18.jpg,AMNE09.jpg,MN,1,num_6,32,num_8,1.16674188006,,,2017_Oct_20_1512,59.9969402934,MAFE4ImagesEEG,001,102181,
AFNE01.JPG,AFNE01.JPG,AFNE01.JPG,AFNE01.JPG,AFNE01.JPG,AFNE01.JPG,,,,,,,,,,,,,,,,,4,9,49,5,,,,,,,AMNE15.jpg,AMSA18.jpg,AMSA02.jpg,AMNE17.jpg,AMNE15.jpg,MN,1,num_8,32,num_4,0.86672760715,,,2017_Oct_20_1512,59.9969402934,MAFE4ImagesEEG,001,102181,
AFNE01.JPG,AFNE01.JPG,AFNE01.JPG,AFNE01.JPG,AFNE01.JPG,AFNE01.JPG,,,,,,,,,,,,,,,,,5,0,50,1,,,,,,,AMSA13.jpg,AMSA06.jpg,AMNE16.jpg,AMNE12.jpg,AMNE12.jpg,MN,1,num_4,32,num_2,1.75004482333,,,2017_Oct_20_1512,59.9969402934,MAFE4ImagesEEG,001,102181,
AFNE01.JPG,AFNE01.JPG,AFNE01.JPG,AFNE01.JPG,AFNE01.JPG,AFNE01.JPG,,,,,,,,,,,,,,,,,5,1,51,3,,,,,,,AMSA09.jpg,AMNE17.jpg,AMSA14.jpg,AMNE03.jpg,AMNE17.jpg,MN,1,num_6,16,num_6,0.900158284931,,,2017_Oct_20_1512,59.9969402934,MAFE4ImagesEEG,001,102181,
AFNE01.JPG,AFNE01.JPG,AFNE01.JPG,AFNE01.JPG,AFNE01.JPG,AFNE01.JPG,,,,,,,,,,,,,,,,,5,2,52,4,,,,,,,AMSA01.jpg,AMSA07.jpg,AMNE18.jpg,AMNE15.jpg,AMSA01.jpg,MS,2,num_8,16,num_8,0.700150266464,,,2017_Oct_20_1512,59.9969402934,MAFE4ImagesEEG,001,102181,
AFNE01.JPG,AFNE01.JPG,AFNE01.JPG,AFNE01.JPG,AFNE01.JPG,AFNE01.JPG,,,,,,,,,,,,,,,,,5,3,53,5,,,,,,,AMSA08.jpg,AMNE19.jpg,AMNE07.jpg,AMSA13.jpg,AMNE19.jpg,MN,1,num_6,32,num_4,0.833453450294,,,2017_Oct_20_1512,59.9969402934,MAFE4ImagesEEG,001,102181,
AFNE01.JPG,AFNE01.JPG,AFNE01.JPG,AFNE01.JPG,AFNE01.JPG,AFNE01.JPG,,,,,,,,,,,,,,,,,5,4,54,2,,,,,,,AMSA08.jpg,AMNE02.jpg,AMSA12.jpg,AMNE07.jpg,AMNE07.jpg,MN,1,num_4,16,num_4,1.26672375831,,,2017_Oct_20_1512,59.9969402934,MAFE4ImagesEEG,001,102181,
AFNE01.JPG,AFNE01.JPG,AFNE01.JPG,AFNE01.JPG,AFNE01.JPG,AFNE01.JPG,,,,,,,,,,,,,,,,,5,5,55,6,,,,,,,AMNE07.jpg,AMSA02.jpg,AMSA18.jpg,AMNE14.jpg,AMNE07.jpg,MN,1,num_8,32,num_6,1.08345513412,,,2017_Oct_20_1512,59.9969402934,MAFE4ImagesEEG,001,102181,
AFNE01.JPG,AFNE01.JPG,AFNE01.JPG,AFNE01.JPG,AFNE01.JPG,AFNE01.JPG,,,,,,,,,,,,,,,,,5,6,56,9,,,,,,,AMNE07.jpg,AMSA12.jpg,AMNE06.jpg,AMSA04.jpg,AMNE06.jpg,MN,1,num_2,48,None,,,,2017_Oct_20_1512,59.9969402934,MAFE4ImagesEEG,001,102181,
AFNE01.JPG,AFNE01.JPG,AFNE01.JPG,AFNE01.JPG,AFNE01.JPG,AFNE01.JPG,,,,,,,,,,,,,,,,,5,7,57,8,,,,,,,AMSA11.jpg,AMNE14.jpg,AMSA05.jpg,AMNE18.jpg,AMNE18.jpg,MN,1,num_4,32,num_6,4.79980274523,,,2017_Oct_20_1512,59.9969402934,MAFE4ImagesEEG,001,102181,
AFNE01.JPG,AFNE01.JPG,AFNE01.JPG,AFNE01.JPG,AFNE01.JPG,AFNE01.JPG,,,,,,,,,,,,,,,,,5,8,58,7,,,,,,,AMNE04.jpg,AMSA11.jpg,AMNE17.jpg,AMSA04.jpg,AMNE17.jpg,MN,1,num_2,32,num_8,1.18347036926,,,2017_Oct_20_1512,59.9969402934,MAFE4ImagesEEG,001,102181,
AFNE01.JPG,AFNE01.JPG,AFNE01.JPG,AFNE01.JPG,AFNE01.JPG,AFNE01.JPG,,,,,,,,,,,,,,,,,5,9,59,0,,,,,,,AMSA10.jpg,AMSA18.jpg,AMNE07.jpg,AMNE03.jpg,AMSA18.jpg,MS,2,num_6,16,num_6,0.716839946166,,,2017_Oct_20_1512,59.9969402934,MAFE4ImagesEEG,001,102181,
,,,,,,,,,,,,,,,,,,,,,,,,,,,,,,,,,,,,,,,,,,,space,4.53312100377,2017_Oct_20_1512,59.9969402934,MAFE4ImagesEEG,001,102181,
AFNE01.JPG,AFNE01.JPG,AFNE01.JPG,AFNE01.JPG,AFNE01.JPG,AFNE01.JPG,,,,,,,,,,,,,,,,,,,,,0,0,0,4,,,AFNE14.jpg,AFNE10.jpg,AFSA04.jpg,AFSA12.jpg,AFNE10.jpg,FN,3,num_6,16,num_6,0.65023967257,,,2017_Oct_20_1512,59.9969402934,MAFE4ImagesEEG,001,102181,
AFNE01.JPG,AFNE01.JPG,AFNE01.JPG,AFNE01.JPG,AFNE01.JPG,AFNE01.JPG,,,,,,,,,,,,,,,,,,,,,0,1,1,6,,,AFNE12.jpg,AFSA17.jpg,AFNE08.jpg,AFSA09.jpg,AFSA09.jpg,FS,4,num_4,32,num_6,0.716784778982,,,2017_Oct_20_1512,59.9969402934,MAFE4ImagesEEG,001,102181,
AFNE01.JPG,AFNE01.JPG,AFNE01.JPG,AFNE01.JPG,AFNE01.JPG,AFNE01.JPG,,,,,,,,,,,,,,,,,,,,,0,2,2,9,,,AFSA14.jpg,AFNE20.jpg,AFNE14.jpg,AFSA08.jpg,AFSA14.jpg,FS,4,num_8,32,num_4,0.716761044227,,,2017_Oct_20_1512,59.9969402934,MAFE4ImagesEEG,001,102181,
AFNE01.JPG,AFNE01.JPG,AFNE01.JPG,AFNE01.JPG,AFNE01.JPG,AFNE01.JPG,,,,,,,,,,,,,,,,,,,,,0,3,3,1,,,AFSA07.jpg,AFNE02.jpg,AFNE01.jpg,AFSA12.jpg,AFSA12.jpg,FS,4,num_4,16,num_4,0.666500844352,,,2017_Oct_20_1512,59.9969402934,MAFE4ImagesEEG,001,102181,
AFNE01.JPG,AFNE01.JPG,AFNE01.JPG,AFNE01.JPG,AFNE01.JPG,AFNE01.JPG,,,,,,,,,,,,,,,,,,,,,0,4,4,8,,,AFSA08.jpg,AFNE17.jpg,AFSA04.jpg,AFNE04.jpg,AFSA04.jpg,FS,4,num_2,32,num_6,0.633471732435,,,2017_Oct_20_1512,59.9969402934,MAFE4ImagesEEG,001,102181,
AFNE01.JPG,AFNE01.JPG,AFNE01.JPG,AFNE01.JPG,AFNE01.JPG,AFNE01.JPG,,,,,,,,,,,,,,,,,,,,,0,5,5,0,,,AFNE09.jpg,AFSA05.jpg,AFSA09.jpg,AFNE01.jpg,AFSA05.jpg,FS,4,num_6,16,num_6,0.583454653097,,,2017_Oct_20_1512,59.9969402934,MAFE4ImagesEEG,001,102181,
AFNE01.JPG,AFNE01.JPG,AFNE01.JPG,AFNE01.JPG,AFNE01.JPG,AFNE01.JPG,,,,,,,,,,,,,,,,,,,,,0,6,6,7,,,AFSA03.jpg,AFSA15.jpg,AFNE01.jpg,AFNE03.jpg,AFSA03.jpg,FS,4,num_8,48,None,,,,2017_Oct_20_1512,59.9969402934,MAFE4ImagesEEG,001,102181,
AFNE01.JPG,AFNE01.JPG,AFNE01.JPG,AFNE01.JPG,AFNE01.JPG,AFNE01.JPG,,,,,,,,,,,,,,,,,,,,,0,7,7,5,,,AFNE03.jpg,AFSA01.jpg,AFSA08.jpg,AFNE14.jpg,AFSA08.jpg,FS,4,num_2,32,num_8,0.950119876361,,,2017_Oct_20_1512,59.9969402934,MAFE4ImagesEEG,001,102181,
AFNE01.JPG,AFNE01.JPG,AFNE01.JPG,AFNE01.JPG,AFNE01.JPG,AFNE01.JPG,,,,,,,,,,,,,,,,,,,,,0,8,8,3,,,AFSA09.jpg,AFNE08.jpg,AFNE18.jpg,AFSA10.jpg,AFSA09.jpg,FS,4,num_8,16,num_8,1.13345104473,,,2017_Oct_20_1512,59.9969402934,MAFE4ImagesEEG,001,102181,
AFNE01.JPG,AFNE01.JPG,AFNE01.JPG,AFNE01.JPG,AFNE01.JPG,AFNE01.JPG,,,,,,,,,,,,,,,,,,,,,0,9,9,2,,,AFNE18.jpg,AFSA09.jpg,AFNE13.jpg,AFSA14.jpg,AFNE13.jpg,FN,3,num_2,32,num_8,1.10014128574,,,2017_Oct_20_1512,59.9969402934,MAFE4ImagesEEG,001,102181,
AFNE01.JPG,AFNE01.JPG,AFNE01.JPG,AFNE01.JPG,AFNE01.JPG,AFNE01.JPG,,,,,,,,,,,,,,,,,,,,,1,0,10,0,,,AFSA11.jpg,AFNE13.jpg,AFNE12.jpg,AFSA02.jpg,AFSA02.jpg,FS,4,num_4,32,num_2,0.683492660697,,,2017_Oct_20_1512,59.9969402934,MAFE4ImagesEEG,001,102181,
AFNE01.JPG,AFNE01.JPG,AFNE01.JPG,AFNE01.JPG,AFNE01.JPG,AFNE01.JPG,,,,,,,,,,,,,,,,,,,,,1,1,11,1,,,AFSA10.jpg,AFNE19.jpg,AFSA17.jpg,AFNE12.jpg,AFNE12.jpg,FN,3,num_4,16,num_4,1.35006502992,,,2017_Oct_20_1512,59.9969402934,MAFE4ImagesEEG,001,102181,
AFNE01.JPG,AFNE01.JPG,AFNE01.JPG,AFNE01.JPG,AFNE01.JPG,AFNE01.JPG,,,,,,,,,,,,,,,,,,,,,1,2,12,7,,,AFSA09.jpg,AFSA05.jpg,AFNE20.jpg,AFNE01.jpg,AFNE20.jpg,FN,3,num_2,16,num_2,1.65009437763,,,2017_Oct_20_1512,59.9969402934,MAFE4ImagesEEG,001,102181,
AFNE01.JPG,AFNE01.JPG,AFNE01.JPG,AFNE01.JPG,AFNE01.JPG,AFNE01.JPG,,,,,,,,,,,,,,,,,,,,,1,3,13,8,,,AFSA02.jpg,AFNE13.jpg,AFNE11.jpg,AFSA05.jpg,AFNE11.jpg,FN,3,num_2,16,num_2,1.76644744119,,,2017_Oct_20_1512,59.9969402934,MAFE4ImagesEEG,001,102181,
AFNE01.JPG,AFNE01.JPG,AFNE01.JPG,AFNE01.JPG,AFNE01.JPG,AFNE01.JPG,,,,,,,,,,,,,,,,,,,,,1,4,14,6,,,AFNE17.jpg,AFSA11.jpg,AFNE10.jpg,AFSA03.jpg,AFSA03.jpg,FS,4,num_4,32,num_6,0.666782453598,,,2017_Oct_20_1512,59.9969402934,MAFE4ImagesEEG,001,102181,
AFNE01.JPG,AFNE01.JPG,AFNE01.JPG,AFNE01.JPG,AFNE01.JPG,AFNE01.JPG,,,,,,,,,,,,,,,,,,,,,1,5,15,3,,,AFSA10.jpg,AFNE09.jpg,AFNE01.jpg,AFSA17.jpg,AFNE01.jpg,FN,3,num_2,32,num_8,0.750133026682,,,2017_Oct_20_1512,59.9969402934,MAFE4ImagesEEG,001,102181,
AFNE01.JPG,AFNE01.JPG,AFNE01.JPG,AFNE01.JPG,AFNE01.JPG,AFNE01.JPG,,,,,,,,,,,,,,,,,,,,,1,6,16,9,,,AFSA12.jpg,AFNE01.jpg,AFNE13.jpg,AFSA07.jpg,AFNE01.jpg,FN,3,num_6,32,num_4,0.483480793308,,,2017_Oct_20_1512,59.9969402934,MAFE4ImagesEEG,001,102181,
AFNE01.JPG,AFNE01.JPG,AFNE01.JPG,AFNE01.JPG,AFNE01.JPG,AFNE01.JPG,,,,,,,,,,,,,,,,,,,,,1,7,17,5,,,AFNE10.jpg,AFSA16.jpg,AFSA07.jpg,AFNE14.jpg,AFNE10.jpg,FN,3,num_8,48,None,,,,2017_Oct_20_1512,59.9969402934,MAFE4ImagesEEG,001,102181,
AFNE01.JPG,AFNE01.JPG,AFNE01.JPG,AFNE01.JPG,AFNE01.JPG,AFNE01.JPG,,,,,,,,,,,,,,,,,,,,,1,8,18,4,,,AFSA17.jpg,AFSA06.jpg,AFNE18.jpg,AFNE08.jpg,AFSA17.jpg,FS,4,num_8,32,num_6,3.31658688275,,,2017_Oct_20_1512,59.9969402934,MAFE4ImagesEEG,001,102181,
AFNE01.JPG,AFNE01.JPG,AFNE01.JPG,AFNE01.JPG,AFNE01.JPG,AFNE01.JPG,,,,,,,,,,,,,,,,,,,,,1,9,19,2,,,AFSA03.jpg,AFNE09.jpg,AFSA01.jpg,AFNE15.jpg,AFSA01.jpg,FS,4,num_2,32,num_8,0.983501160285,,,2017_Oct_20_1512,59.9969402934,MAFE4ImagesEEG,001,102181,
AFNE01.JPG,AFNE01.JPG,AFNE01.JPG,AFNE01.JPG,AFNE01.JPG,AFNE01.JPG,,,,,,,,,,,,,,,,,,,,,2,0,20,0,,,AFNE19.jpg,AFNE09.jpg,AFSA11.jpg,AFSA12.jpg,AFSA11.jpg,FS,4,num_2,32,num_6,0.583461067814,,,2017_Oct_20_1512,59.9969402934,MAFE4ImagesEEG,001,102181,
AFNE01.JPG,AFNE01.JPG,AFNE01.JPG,AFNE01.JPG,AFNE01.JPG,AFNE01.JPG,,,,,,,,,,,,,,,,,,,,,2,1,21,4,,,AFNE13.jpg,AFSA12.jpg,AFNE02.jpg,AFSA20.jpg,AFNE13.jpg,FN,3,num_8,16,num_8,1.36671397573,,,2017_Oct_20_1512,59.9969402934,MAFE4ImagesEEG,001,102181,
AFNE01.JPG,AFNE01.JPG,AFNE01.JPG,AFNE01.JPG,AFNE01.JPG,AFNE01.JPG,,,,,,,,,,,,,,,,,,,,,2,2,22,5,,,AFSA18.jpg,AFSA11.jpg,AFNE01.jpg,AFNE13.jpg,AFNE01.jpg,FN,3,num_2,32,num_4,1.18339820288,,,2017_Oct_20_1512,59.9969402934,MAFE4ImagesEEG,001,102181,
AFNE01.JPG,AFNE01.JPG,AFNE01.JPG,AFNE01.JPG,AFNE01.JPG,AFNE01.JPG,,,,,,,,,,,,,,,,,,,,,2,3,23,1,,,AFNE14.jpg,AFSA06.jpg,AFSA11.jpg,AFNE17.jpg,AFNE17.jpg,FN,3,num_4,16,num_4,1.08313150803,,,2017_Oct_20_1512,59.9969402934,MAFE4ImagesEEG,001,102181,
AFNE01.JPG,AFNE01.JPG,AFNE01.JPG,AFNE01.JPG,AFNE01.JPG,AFNE01.JPG,,,,,,,,,,,,,,,,,,,,,2,4,24,7,,,AFNE18.jpg,AFSA15.jpg,AFSA08.jpg,AFNE12.jpg,AFSA15.jpg,FS,4,num_6,16,num_6,1.03343067778,,,2017_Oct_20_1512,59.9969402934,MAFE4ImagesEEG,001,102181,
AFNE01.JPG,AFNE01.JPG,AFNE01.JPG,AFNE01.JPG,AFNE01.JPG,AFNE01.JPG,,,,,,,,,,,,,,,,,,,,,2,5,25,9,,,AFNE10.jpg,AFSA20.jpg,AFNE14.jpg,AFSA17.jpg,AFSA17.jpg,FS,4,num_4,48,None,,,,2017_Oct_20_1512,59.9969402934,MAFE4ImagesEEG,001,102181,
AFNE01.JPG,AFNE01.JPG,AFNE01.JPG,AFNE01.JPG,AFNE01.JPG,AFNE01.JPG,,,,,,,,,,,,,,,,,,,,,2,6,26,3,,,AFSA04.jpg,AFNE15.jpg,AFSA08.jpg,AFNE17.jpg,AFSA04.jpg,FS,4,num_8,48,None,,,,2017_Oct_20_1512,59.9969402934,MAFE4ImagesEEG,001,102181,
AFNE01.JPG,AFNE01.JPG,AFNE01.JPG,AFNE01.JPG,AFNE01.JPG,AFNE01.JPG,,,,,,,,,,,,,,,,,,,,,2,7,27,6,,,AFSA02.jpg,AFSA14.jpg,AFNE12.jpg,AFNE04.jpg,AFNE04.jpg,FN,3,num_4,32,num_6,1.13341031084,,,2017_Oct_20_1512,59.9969402934,MAFE4ImagesEEG,001,102181,
AFNE01.JPG,AFNE01.JPG,AFNE01.JPG,AFNE01.JPG,AFNE01.JPG,AFNE01.JPG,,,,,,,,,,,,,,,,,,,,,2,8,28,8,,,AFNE16.jpg,AFSA10.jpg,AFSA04.jpg,AFNE09.jpg,AFSA04.jpg,FS,4,num_2,32,num_6,0.750155478483,,,2017_Oct_20_1512,59.9969402934,MAFE4ImagesEEG,001,102181,
AFNE01.JPG,AFNE01.JPG,AFNE01.JPG,AFNE01.JPG,AFNE01.JPG,AFNE01.JPG,,,,,,,,,,,,,,,,,,,,,2,9,29,2,,,AFNE14.jpg,AFSA03.jpg,AFNE19.jpg,AFSA18.jpg,AFSA03.jpg,FS,4,num_6,32,num_4,0.616762487625,,,2017_Oct_20_1512,59.9969402934,MAFE4ImagesEEG,001,102181,
AFNE01.JPG,AFNE01.JPG,AFNE01.JPG,AFNE01.JPG,AFNE01.JPG,AFNE01.JPG,,,,,,,,,,,,,,,,,,,,,3,0,30,9,,,AFNE01.jpg,AFSA16.jpg,AFNE07.jpg,AFSA18.jpg,AFSA16.jpg,FS,4,num_6,32,num_2,1.51671774441,,,2017_Oct_20_1512,59.9969402934,MAFE4ImagesEEG,001,102181,
AFNE01.JPG,AFNE01.JPG,AFNE01.JPG,AFNE01.JPG,AFNE01.JPG,AFNE01.JPG,,,,,,,,,,,,,,,,,,,,,3,1,31,2,,,AFNE04.jpg,AFSA12.jpg,AFSA02.jpg,AFNE17.jpg,AFSA12.jpg,FS,4,num_6,16,num_6,0.650131904113,,,2017_Oct_20_1512,59.9969402934,MAFE4ImagesEEG,001,102181,
AFNE01.JPG,AFNE01.JPG,AFNE01.JPG,AFNE01.JPG,AFNE01.JPG,AFNE01.JPG,,,,,,,,,,,,,,,,,,,,,3,2,32,3,,,AFNE07.jpg,AFSA16.jpg,AFNE04.jpg,AFSA14.jpg,AFSA16.jpg,FS,4,num_6,16,num_6,0.583479029243,,,2017_Oct_20_1512,59.9969402934,MAFE4ImagesEEG,001,102181,
AFNE01.JPG,AFNE01.JPG,AFNE01.JPG,AFNE01.JPG,AFNE01.JPG,AFNE01.JPG,,,,,,,,,,,,,,,,,,,,,3,3,33,0,,,AFNE14.jpg,AFSA17.jpg,AFNE20.jpg,AFSA11.jpg,AFNE14.jpg,FN,3,num_8,16,num_8,1.233462431,,,2017_Oct_20_1512,59.9969402934,MAFE4ImagesEEG,001,102181,
AFNE01.JPG,AFNE01.JPG,AFNE01.JPG,AFNE01.JPG,AFNE01.JPG,AFNE01.JPG,,,,,,,,,,,,,,,,,,,,,3,4,34,6,,,AFNE11.jpg,AFSA17.jpg,AFNE15.jpg,AFSA05.jpg,AFNE11.jpg,FN,3,num_8,16,num_8,0.950187552429,,,2017_Oct_20_1512,59.9969402934,MAFE4ImagesEEG,001,102181,
AFNE01.JPG,AFNE01.JPG,AFNE01.JPG,AFNE01.JPG,AFNE01.JPG,AFNE01.JPG,,,,,,,,,,,,,,,,,,,,,3,5,35,5,,,AFNE11.jpg,AFNE18.jpg,AFSA04.jpg,AFSA12.jpg,AFNE18.jpg,FN,3,num_6,16,num_6,1.73342731001,,,2017_Oct_20_1512,59.9969402934,MAFE4ImagesEEG,001,102181,
AFNE01.JPG,AFNE01.JPG,AFNE01.JPG,AFNE01.JPG,AFNE01.JPG,AFNE01.JPG,,,,,,,,,,,,,,,,,,,,,3,6,36,7,,,AFSA14.jpg,AFSA03.jpg,AFNE05.jpg,AFNE15.jpg,AFSA14.jpg,FS,4,num_8,16,num_8,2.05003022967,,,2017_Oct_20_1512,59.9969402934,MAFE4ImagesEEG,001,102181,
AFNE01.JPG,AFNE01.JPG,AFNE01.JPG,AFNE01.JPG,AFNE01.JPG,AFNE01.JPG,,,,,,,,,,,,,,,,,,,,,3,7,37,4,,,AFSA13.jpg,AFNE01.jpg,AFSA14.jpg,AFNE03.jpg,AFNE01.jpg,FN,3,num_6,32,num_2,1.78336516675,,,2017_Oct_20_1512,59.9969402934,MAFE4ImagesEEG,001,102181,
AFNE01.JPG,AFNE01.JPG,AFNE01.JPG,AFNE01.JPG,AFNE01.JPG,AFNE01.JPG,,,,,,,,,,,,,,,,,,,,,3,8,38,8,,,AFNE12.jpg,AFSA14.jpg,AFSA18.jpg,AFNE08.jpg,AFNE08.jpg,FN,3,num_4,16,num_4,1.51669753785,,,2017_Oct_20_1512,59.9969402934,MAFE4ImagesEEG,001,102181,
AFNE01.JPG,AFNE01.JPG,AFNE01.JPG,AFNE01.JPG,AFNE01.JPG,AFNE01.JPG,,,,,,,,,,,,,,,,,,,,,3,9,39,1,,,AFNE20.jpg,AFNE06.jpg,AFSA18.jpg,AFSA19.jpg,AFNE20.jpg,FN,3,num_8,32,num_2,1.55006791663,,,2017_Oct_20_1512,59.9969402934,MAFE4ImagesEEG,001,102181,
AFNE01.JPG,AFNE01.JPG,AFNE01.JPG,AFNE01.JPG,AFNE01.JPG,AFNE01.JPG,,,,,,,,,,,,,,,,,,,,,4,0,40,4,,,AFNE11.jpg,AFNE18.jpg,AFSA20.jpg,AFSA01.jpg,AFNE11.jpg,FN,3,num_8,16,num_8,2.96658920805,,,2017_Oct_20_1512,59.9969402934,MAFE4ImagesEEG,001,102181,
