IPosition2,IPosition3,IPosition1,IPosition6,IPosition4,IPosition5,TrialsM1.thisRepN,TrialsM1.thisTrialN,TrialsM1.thisN,TrialsM1.thisIndex,TrialsF1.thisRepN,TrialsF1.thisTrialN,TrialsF1.thisN,TrialsF1.thisIndex,TrialsM2.thisRepN,TrialsM2.thisTrialN,TrialsM2.thisN,TrialsM2.thisIndex,TrialsF2.thisRepN,TrialsF2.thisTrialN,TrialsF2.thisN,TrialsF2.thisIndex,TrialsM3.thisRepN,TrialsM3.thisTrialN,TrialsM3.thisN,TrialsM3.thisIndex,TrialsF3.thisRepN,TrialsF3.thisTrialN,TrialsF3.thisN,TrialsF3.thisIndex,InstrKey_resp.keys,InstrKey_resp.rt,Image0 _Position,Image1 _Position,Image2 _Position,Image3 _Position,Center_image,condition,code,correct_answer,accuracy,Key_Resp.keys,Key_Resp.rt,BreakKey_resp.keys,BreakKey_resp.rt,date,frameRate,expName,session,participant,
,,,,,,,,,,,,,,,,,,,,,,,,,,,,,,space,13.8494663697,,,,,,,,,,,,,,2017_Nov_08_1046,60.0061780708,MAFE4ImagesEEG,001,102208,
AFSA25.JPG,AFNE24.JPG,AFSA24.JPG,AFNE21.JPG,AFSA21.JPG,AFNE25.JPG,0,0,0,2,,,,,,,,,,,,,,,,,,,,,,,AMNE07.jpg,AMSA11.jpg,AMSA05.jpg,AMNE02.jpg,AMSA11.jpg,MS,2,num_6,32,num_4,1.98340173089,,,2017_Nov_08_1046,60.0061780708,MAFE4ImagesEEG,001,102208,
AFNE23.JPG,AFNE24.JPG,AFNE22.JPG,AFSA24.JPG,AFSA22.JPG,AFSA23.JPG,0,1,1,8,,,,,,,,,,,,,,,,,,,,,,,AMSA09.jpg,AMNE19.jpg,AMSA16.jpg,AMNE03.jpg,AMNE19.jpg,MN,1,num_6,16,num_6,1.46668366576,,,2017_Nov_08_1046,60.0061780708,MAFE4ImagesEEG,001,102208,
AMNE23.JPG,AMNE24.JPG,AMNE22.JPG,AMSA24.JPG,AMSA22.JPG,AMSA23.JPG,0,2,2,9,,,,,,,,,,,,,,,,,,,,,,,AMSA12.jpg,AMNE07.jpg,AMNE15.jpg,AMSA03.jpg,AMNE15.jpg,MN,1,num_2,16,num_2,2.00007601525,,,2017_Nov_08_1046,60.0061780708,MAFE4ImagesEEG,001,102208,
AFSA21.JPG,AFNE22.JPG,AFNE21.JPG,AFSA23.JPG,AFSA22.JPG,AFNE23.JPG,0,3,3,0,,,,,,,,,,,,,,,,,,,,,,,AMNE02.jpg,AMNE03.jpg,AMSA20.jpg,AMSA08.jpg,AMSA20.jpg,MS,2,num_2,32,num_4,2.70000946196,,,2017_Nov_08_1046,60.0061780708,MAFE4ImagesEEG,001,102208,
AMNE22.JPG,AMSA24.JPG,AMSA22.JPG,AMNE25.JPG,AMNE24.JPG,AMSA25.JPG,0,4,4,7,,,,,,,,,,,,,,,,,,,,,,,AMNE04.jpg,AMNE20.jpg,AMSA05.jpg,AMSA02.jpg,AMSA02.jpg,MS,2,num_4,32,num_8,1.68340028753,,,2017_Nov_08_1046,60.0061780708,MAFE4ImagesEEG,001,102208,
AMSA25.JPG,AMNE24.JPG,AMSA24.JPG,AMNE26.JPG,AMSA21.JPG,AMNE25.JPG,0,5,5,3,,,,,,,,,,,,,,,,,,,,,,,AMNE02.jpg,AMNE18.jpg,AMSA07.jpg,AMSA08.jpg,AMNE18.jpg,MN,1,num_6,16,num_6,1.29977435991,,,2017_Nov_08_1046,60.0061780708,MAFE4ImagesEEG,001,102208,
AMSA21.JPG,AMNE23.JPG,AMNE21.JPG,AMSA25.JPG,AMNE25.JPG,AMSA23.JPG,0,6,6,5,,,,,,,,,,,,,,,,,,,,,,,AMSA16.jpg,AMNE10.jpg,AMSA10.jpg,AMNE01.jpg,AMNE01.jpg,MN,1,num_4,32,num_6,4.7331983021,,,2017_Nov_08_1046,60.0061780708,MAFE4ImagesEEG,001,102208,
AMSA21.JPG,AMNE22.JPG,AMNE21.JPG,AMSA23.JPG,AMSA22.JPG,AMNE23.JPG,0,7,7,1,,,,,,,,,,,,,,,,,,,,,,,AMNE08.jpg,AMSA14.jpg,AMNE11.jpg,AMSA16.jpg,AMNE08.jpg,MN,1,num_8,16,num_8,1.36680763168,,,2017_Nov_08_1046,60.0061780708,MAFE4ImagesEEG,001,102208,
AFSA21.JPG,AFNE23.JPG,AFNE21.JPG,AFSA25.JPG,AFNE25.JPG,AFSA23.JPG,0,8,8,4,,,,,,,,,,,,,,,,,,,,,,,AMNE17.jpg,AMSA03.jpg,AMNE08.jpg,AMSA06.jpg,AMNE08.jpg,MN,1,num_2,16,num_2,2.41663290886,,,2017_Nov_08_1046,60.0061780708,MAFE4ImagesEEG,001,102208,
AFNE22.JPG,AFSA24.JPG,AFSA22.JPG,AFNE25.JPG,AFNE24.JPG,AFSA25.JPG,0,9,9,6,,,,,,,,,,,,,,,,,,,,,,,AMSA01.jpg,AMNE05.jpg,AMSA08.jpg,AMNE20.jpg,AMNE20.jpg,MN,1,num_4,16,num_4,1.43340854673,,,2017_Nov_08_1046,60.0061780708,MAFE4ImagesEEG,001,102208,
AMSA21.JPG,AMNE22.JPG,AMNE21.JPG,AMSA23.JPG,AMSA22.JPG,AMNE23.JPG,,,,,0,0,0,1,,,,,,,,,,,,,,,,,,,AFNE19.jpg,AFSA08.jpg,AFNE15.jpg,AFSA07.jpg,AFNE19.jpg,FN,3,num_8,16,num_8,1.66668943898,,,2017_Nov_08_1046,60.0061780708,MAFE4ImagesEEG,001,102208,
AMNE23.JPG,AMNE24.JPG,AMNE22.JPG,AMSA24.JPG,AMSA22.JPG,AMSA23.JPG,,,,,0,1,1,9,,,,,,,,,,,,,,,,,,,AFSA11.jpg,AFNE05.jpg,AFSA12.jpg,AFNE08.jpg,AFSA11.jpg,FS,4,num_8,16,num_8,0.983466199599,,,2017_Nov_08_1046,60.0061780708,MAFE4ImagesEEG,001,102208,
AMSA25.JPG,AMNE24.JPG,AMSA24.JPG,AMNE26.JPG,AMSA21.JPG,AMNE25.JPG,,,,,0,2,2,3,,,,,,,,,,,,,,,,,,,AFNE05.jpg,AFSA11.jpg,AFSA02.jpg,AFNE01.jpg,AFNE05.jpg,FN,3,num_8,16,num_8,1.56675759633,,,2017_Nov_08_1046,60.0061780708,MAFE4ImagesEEG,001,102208,
AFNE22.JPG,AFSA24.JPG,AFSA22.JPG,AFNE25.JPG,AFNE24.JPG,AFSA25.JPG,,,,,0,3,3,6,,,,,,,,,,,,,,,,,,,AFNE01.jpg,AFSA02.jpg,AFSA20.jpg,AFNE15.jpg,AFSA20.jpg,FS,4,num_2,16,num_2,2.55002910714,,,2017_Nov_08_1046,60.0061780708,MAFE4ImagesEEG,001,102208,
AFSA21.JPG,AFNE22.JPG,AFNE21.JPG,AFSA23.JPG,AFSA22.JPG,AFNE23.JPG,,,,,0,4,4,0,,,,,,,,,,,,,,,,,,,AFSA03.jpg,AFSA02.jpg,AFNE13.jpg,AFNE12.jpg,AFSA02.jpg,FS,4,num_6,48,None,,,,2017_Nov_08_1046,60.0061780708,MAFE4ImagesEEG,001,102208,
AMNE22.JPG,AMSA24.JPG,AMSA22.JPG,AMNE25.JPG,AMNE24.JPG,AMSA25.JPG,,,,,0,5,5,7,,,,,,,,,,,,,,,,,,,AFSA16.jpg,AFNE06.jpg,AFSA04.jpg,AFNE17.jpg,AFNE06.jpg,FN,3,num_6,16,num_6,1.25012260256,,,2017_Nov_08_1046,60.0061780708,MAFE4ImagesEEG,001,102208,
AFSA21.JPG,AFNE23.JPG,AFNE21.JPG,AFSA25.JPG,AFNE25.JPG,AFSA23.JPG,,,,,0,6,6,4,,,,,,,,,,,,,,,,,,,AFSA08.jpg,AFNE11.jpg,AFNE03.jpg,AFSA07.jpg,AFNE11.jpg,FN,3,num_6,16,num_6,1.28338392987,,,2017_Nov_08_1046,60.0061780708,MAFE4ImagesEEG,001,102208,
AMSA21.JPG,AMNE23.JPG,AMNE21.JPG,AMSA25.JPG,AMNE25.JPG,AMSA23.JPG,,,,,0,7,7,5,,,,,,,,,,,,,,,,,,,AFSA02.jpg,AFNE15.jpg,AFNE06.jpg,AFSA03.jpg,AFNE06.jpg,FN,3,num_2,32,num_8,1.90001106565,,,2017_Nov_08_1046,60.0061780708,MAFE4ImagesEEG,001,102208,
AFSA25.JPG,AFNE24.JPG,AFSA24.JPG,AFNE21.JPG,AFSA21.JPG,AFNE25.JPG,,,,,0,8,8,2,,,,,,,,,,,,,,,,,,,AFNE13.jpg,AFNE04.jpg,AFSA11.jpg,AFSA06.jpg,AFNE13.jpg,FN,3,num_8,32,num_6,0.916820060229,,,2017_Nov_08_1046,60.0061780708,MAFE4ImagesEEG,001,102208,
AFNE23.JPG,AFNE24.JPG,AFNE22.JPG,AFSA24.JPG,AFSA22.JPG,AFSA23.JPG,,,,,0,9,9,8,,,,,,,,,,,,,,,,,,,AFNE01.jpg,AFSA20.jpg,AFNE17.jpg,AFSA06.jpg,AFSA06.jpg,FS,4,num_4,16,num_4,1.65005236072,,,2017_Nov_08_1046,60.0061780708,MAFE4ImagesEEG,001,102208,
AMNE22.JPG,AMSA24.JPG,AMSA22.JPG,AMNE25.JPG,AMNE24.JPG,AMSA25.JPG,,,,,,,,,0,0,0,7,,,,,,,,,,,,,,,AMNE10.jpg,AMSA10.jpg,AMNE16.jpg,AMSA18.jpg,AMNE16.jpg,MN,1,num_2,32,num_8,0.9999900572,,,2017_Nov_08_1046,60.0061780708,MAFE4ImagesEEG,001,102208,
AMNE23.JPG,AMNE24.JPG,AMNE22.JPG,AMSA24.JPG,AMSA22.JPG,AMSA23.JPG,,,,,,,,,0,1,1,9,,,,,,,,,,,,,,,AMNE20.jpg,AMSA01.jpg,AMNE09.jpg,AMSA09.jpg,AMNE09.jpg,MN,1,num_2,32,num_8,0.81678750529,,,2017_Nov_08_1046,60.0061780708,MAFE4ImagesEEG,001,102208,
AFSA21.JPG,AFNE23.JPG,AFNE21.JPG,AFSA25.JPG,AFNE25.JPG,AFSA23.JPG,,,,,,,,,0,2,2,4,,,,,,,,,,,,,,,AMSA11.jpg,AMSA18.jpg,AMNE05.jpg,AMNE08.jpg,AMSA11.jpg,MS,2,num_8,32,num_6,0.800129899522,,,2017_Nov_08_1046,60.0061780708,MAFE4ImagesEEG,001,102208,
AFNE23.JPG,AFNE24.JPG,AFNE22.JPG,AFSA24.JPG,AFSA22.JPG,AFSA23.JPG,,,,,,,,,0,3,3,8,,,,,,,,,,,,,,,AMSA05.jpg,AMNE15.jpg,AMSA03.jpg,AMNE19.jpg,AMSA05.jpg,MS,2,num_8,32,num_4,1.45005396451,,,2017_Nov_08_1046,60.0061780708,MAFE4ImagesEEG,001,102208,
AMSA21.JPG,AMNE23.JPG,AMNE21.JPG,AMSA25.JPG,AMNE25.JPG,AMSA23.JPG,,,,,,,,,0,4,4,5,,,,,,,,,,,,,,,AMNE06.jpg,AMSA07.jpg,AMNE03.jpg,AMSA13.jpg,AMSA13.jpg,MS,2,num_4,32,num_8,1.10013711592,,,2017_Nov_08_1046,60.0061780708,MAFE4ImagesEEG,001,102208,
AFNE22.JPG,AFSA24.JPG,AFSA22.JPG,AFNE25.JPG,AFNE24.JPG,AFSA25.JPG,,,,,,,,,0,5,5,6,,,,,,,,,,,,,,,AMSA03.jpg,AMNE15.jpg,AMSA14.jpg,AMNE17.jpg,AMSA14.jpg,MS,2,num_2,16,num_2,0.90015283227,,,2017_Nov_08_1046,60.0061780708,MAFE4ImagesEEG,001,102208,
AMSA25.JPG,AMNE24.JPG,AMSA24.JPG,AMNE26.JPG,AMSA21.JPG,AMNE25.JPG,,,,,,,,,0,6,6,3,,,,,,,,,,,,,,,AMNE20.jpg,AMNE13.jpg,AMSA07.jpg,AMSA03.jpg,AMNE20.jpg,MN,1,num_8,32,num_6,1.10011915467,,,2017_Nov_08_1046,60.0061780708,MAFE4ImagesEEG,001,102208,
AFSA21.JPG,AFNE22.JPG,AFNE21.JPG,AFSA23.JPG,AFSA22.JPG,AFNE23.JPG,,,,,,,,,0,7,7,0,,,,,,,,,,,,,,,AMNE14.jpg,AMNE05.jpg,AMSA02.jpg,AMSA18.jpg,AMNE14.jpg,MN,1,num_8,16,num_8,0.766849007225,,,2017_Nov_08_1046,60.0061780708,MAFE4ImagesEEG,001,102208,
AFSA25.JPG,AFNE24.JPG,AFSA24.JPG,AFNE21.JPG,AFSA21.JPG,AFNE25.JPG,,,,,,,,,0,8,8,2,,,,,,,,,,,,,,,AMSA14.jpg,AMNE03.jpg,AMNE10.jpg,AMSA18.jpg,AMSA14.jpg,MS,2,num_8,32,num_2,1.30011081533,,,2017_Nov_08_1046,60.0061780708,MAFE4ImagesEEG,001,102208,
AMSA21.JPG,AMNE22.JPG,AMNE21.JPG,AMSA23.JPG,AMSA22.JPG,AMNE23.JPG,,,,,,,,,0,9,9,1,,,,,,,,,,,,,,,AMSA08.jpg,AMSA16.jpg,AMNE14.jpg,AMNE10.jpg,AMNE14.jpg,MN,1,num_2,32,num_4,1.01669513225,,,2017_Nov_08_1046,60.0061780708,MAFE4ImagesEEG,001,102208,
AFNE22.JPG,AFSA24.JPG,AFSA22.JPG,AFNE25.JPG,AFNE24.JPG,AFSA25.JPG,,,,,,,,,,,,,0,0,0,6,,,,,,,,,,,AFSA06.jpg,AFNE04.jpg,AFSA11.jpg,AFNE07.jpg,AFSA11.jpg,FS,4,num_2,16,num_2,0.883474699222,,,2017_Nov_08_1046,60.0061780708,MAFE4ImagesEEG,001,102208,
AMNE23.JPG,AMNE24.JPG,AMNE22.JPG,AMSA24.JPG,AMSA22.JPG,AMSA23.JPG,,,,,,,,,,,,,0,1,1,9,,,,,,,,,,,AFSA18.jpg,AFSA03.jpg,AFNE12.jpg,AFNE09.jpg,AFSA03.jpg,FS,4,num_6,32,num_4,2.00002950802,,,2017_Nov_08_1046,60.0061780708,MAFE4ImagesEEG,001,102208,
AFSA21.JPG,AFNE22.JPG,AFNE21.JPG,AFSA23.JPG,AFSA22.JPG,AFNE23.JPG,,,,,,,,,,,,,0,2,2,0,,,,,,,,,,,AFSA04.jpg,AFSA10.jpg,AFNE15.jpg,AFNE06.jpg,AFNE15.jpg,FN,3,num_2,32,num_6,1.46671317401,,,2017_Nov_08_1046,60.0061780708,MAFE4ImagesEEG,001,102208,
AMSA21.JPG,AMNE22.JPG,AMNE21.JPG,AMSA23.JPG,AMSA22.JPG,AMNE23.JPG,,,,,,,,,,,,,0,3,3,1,,,,,,,,,,,AFSA15.jpg,AFNE14.jpg,AFNE13.jpg,AFSA04.jpg,AFNE13.jpg,FN,3,num_2,32,num_8,1.58345048339,,,2017_Nov_08_1046,60.0061780708,MAFE4ImagesEEG,001,102208,
AMSA25.JPG,AMNE24.JPG,AMSA24.JPG,AMNE26.JPG,AMSA21.JPG,AMNE25.JPG,,,,,,,,,,,,,0,4,4,3,,,,,,,,,,,AFNE17.jpg,AFNE20.jpg,AFSA05.jpg,AFSA01.jpg,AFNE17.jpg,FN,3,num_8,32,num_2,1.18344631372,,,2017_Nov_08_1046,60.0061780708,MAFE4ImagesEEG,001,102208,
AFNE23.JPG,AFNE24.JPG,AFNE22.JPG,AFSA24.JPG,AFSA22.JPG,AFSA23.JPG,,,,,,,,,,,,,0,5,5,8,,,,,,,,,,,AFSA06.jpg,AFNE14.jpg,AFSA19.jpg,AFNE16.jpg,AFNE14.jpg,FN,3,num_6,16,num_6,0.800144653302,,,2017_Nov_08_1046,60.0061780708,MAFE4ImagesEEG,001,102208,
AMNE22.JPG,AMSA24.JPG,AMSA22.JPG,AMNE25.JPG,AMNE24.JPG,AMSA25.JPG,,,,,,,,,,,,,0,6,6,7,,,,,,,,,,,AFNE16.jpg,AFSA14.jpg,AFSA02.jpg,AFNE11.jpg,AFSA02.jpg,FS,4,num_2,32,num_4,2.15002557891,,,2017_Nov_08_1046,60.0061780708,MAFE4ImagesEEG,001,102208,
AMSA21.JPG,AMNE23.JPG,AMNE21.JPG,AMSA25.JPG,AMNE25.JPG,AMSA23.JPG,,,,,,,,,,,,,0,7,7,5,,,,,,,,,,,AFNE14.jpg,AFNE18.jpg,AFSA15.jpg,AFSA19.jpg,AFSA19.jpg,FS,4,num_4,16,num_4,0.85012677242,,,2017_Nov_08_1046,60.0061780708,MAFE4ImagesEEG,001,102208,
AFSA25.JPG,AFNE24.JPG,AFSA24.JPG,AFNE21.JPG,AFSA21.JPG,AFNE25.JPG,,,,,,,,,,,,,0,8,8,2,,,,,,,,,,,AFSA18.jpg,AFNE06.jpg,AFNE18.jpg,AFSA20.jpg,AFNE18.jpg,FN,3,num_2,32,num_6,0.716820060275,,,2017_Nov_08_1046,60.0061780708,MAFE4ImagesEEG,001,102208,
AFSA21.JPG,AFNE23.JPG,AFNE21.JPG,AFSA25.JPG,AFNE25.JPG,AFSA23.JPG,,,,,,,,,,,,,0,9,9,4,,,,,,,,,,,AFSA12.jpg,AFNE12.jpg,AFSA18.jpg,AFNE16.jpg,AFNE16.jpg,FN,3,num_4,16,num_4,0.716782854637,,,2017_Nov_08_1046,60.0061780708,MAFE4ImagesEEG,001,102208,
AMSA21.JPG,AMNE22.JPG,AMNE21.JPG,AMSA23.JPG,AMSA22.JPG,AMNE23.JPG,,,,,,,,,,,,,,,,,0,0,0,1,,,,,,,AMSA15.jpg,AMNE08.jpg,AMSA03.jpg,AMNE04.jpg,AMNE04.jpg,MN,1,num_4,32,num_2,1.56676304876,,,2017_Nov_08_1046,60.0061780708,MAFE4ImagesEEG,001,102208,
AFNE22.JPG,AFSA24.JPG,AFSA22.JPG,AFNE25.JPG,AFNE24.JPG,AFSA25.JPG,,,,,,,,,,,,,,,,,0,1,1,6,,,,,,,AMSA18.jpg,AMNE07.jpg,AMSA11.jpg,AMNE16.jpg,AMSA18.jpg,MS,2,num_8,16,num_8,0.883452888811,,,2017_Nov_08_1046,60.0061780708,MAFE4ImagesEEG,001,102208,
AFSA21.JPG,AFNE22.JPG,AFNE21.JPG,AFSA23.JPG,AFSA22.JPG,AFNE23.JPG,,,,,,,,,,,,,,,,,0,2,2,0,,,,,,,AMSA02.jpg,AMSA04.jpg,AMNE01.jpg,AMNE02.jpg,AMNE01.jpg,MN,1,num_2,32,num_4,1.13345072418,,,2017_Nov_08_1046,60.0061780708,MAFE4ImagesEEG,001,102208,
AMNE23.JPG,AMNE24.JPG,AMNE22.JPG,AMSA24.JPG,AMSA22.JPG,AMSA23.JPG,,,,,,,,,,,,,,,,,0,3,3,9,,,,,,,AMSA15.jpg,AMSA06.jpg,AMNE16.jpg,AMNE12.jpg,AMNE12.jpg,MN,1,num_4,16,num_4,1.21683754073,,,2017_Nov_08_1046,60.0061780708,MAFE4ImagesEEG,001,102208,
AFNE23.JPG,AFNE24.JPG,AFNE22.JPG,AFSA24.JPG,AFSA22.JPG,AFSA23.JPG,,,,,,,,,,,,,,,,,0,4,4,8,,,,,,,AMNE02.jpg,AMNE06.jpg,AMSA18.jpg,AMSA19.jpg,AMNE02.jpg,MN,1,num_8,32,num_2,0.966748936335,,,2017_Nov_08_1046,60.0061780708,MAFE4ImagesEEG,001,102208,
AMSA21.JPG,AMNE23.JPG,AMNE21.JPG,AMSA25.JPG,AMNE25.JPG,AMSA23.JPG,,,,,,,,,,,,,,,,,0,5,5,5,,,,,,,AMNE15.jpg,AMSA04.jpg,AMNE01.jpg,AMSA07.jpg,AMNE15.jpg,MN,1,num_8,32,num_2,0.850133828586,,,2017_Nov_08_1046,60.0061780708,MAFE4ImagesEEG,001,102208,
AFSA21.JPG,AFNE23.JPG,AFNE21.JPG,AFSA25.JPG,AFNE25.JPG,AFSA23.JPG,,,,,,,,,,,,,,,,,0,6,6,4,,,,,,,AMSA17.jpg,AMNE15.jpg,AMSA02.jpg,AMNE01.jpg,AMNE15.jpg,MN,1,num_6,16,num_6,0.666823508218,,,2017_Nov_08_1046,60.0061780708,MAFE4ImagesEEG,001,102208,
AFSA25.JPG,AFNE24.JPG,AFSA24.JPG,AFNE21.JPG,AFSA21.JPG,AFNE25.JPG,,,,,,,,,,,,,,,,,0,7,7,2,,,,,,,AMSA16.jpg,AMSA01.jpg,AMNE12.jpg,AMNE19.jpg,AMSA01.jpg,MS,2,num_6,16,num_6,1.30011755088,,,2017_Nov_08_1046,60.0061780708,MAFE4ImagesEEG,001,102208,
AMSA25.JPG,AMNE24.JPG,AMSA24.JPG,AMNE26.JPG,AMSA21.JPG,AMNE25.JPG,,,,,,,,,,,,,,,,,0,8,8,3,,,,,,,AMSA02.jpg,AMNE11.jpg,AMNE02.jpg,AMSA18.jpg,AMSA18.jpg,MS,2,num_4,16,num_4,1.20010584383,,,2017_Nov_08_1046,60.0061780708,MAFE4ImagesEEG,001,102208,
AMNE22.JPG,AMSA24.JPG,AMSA22.JPG,AMNE25.JPG,AMNE24.JPG,AMSA25.JPG,,,,,,,,,,,,,,,,,0,9,9,7,,,,,,,AMSA15.jpg,AMSA01.jpg,AMNE17.jpg,AMNE15.jpg,AMSA01.jpg,MS,2,num_6,16,num_6,0.666783095105,,,2017_Nov_08_1046,60.0061780708,MAFE4ImagesEEG,001,102208,
AFSA21.JPG,AFNE23.JPG,AFNE21.JPG,AFSA25.JPG,AFNE25.JPG,AFSA23.JPG,,,,,,,,,,,,,,,,,,,,,0,0,0,4,,,AFSA15.jpg,AFNE05.jpg,AFSA17.jpg,AFNE02.jpg,AFNE05.jpg,FN,3,num_6,32,num_8,1.06677892548,,,2017_Nov_08_1046,60.0061780708,MAFE4ImagesEEG,001,102208,
AFSA21.JPG,AFNE22.JPG,AFNE21.JPG,AFSA23.JPG,AFSA22.JPG,AFNE23.JPG,,,,,,,,,,,,,,,,,,,,,0,1,1,0,,,AFSA03.jpg,AFNE11.jpg,AFNE20.jpg,AFSA13.jpg,AFNE20.jpg,FN,3,num_2,32,num_8,1.41658800538,,,2017_Nov_08_1046,60.0061780708,MAFE4ImagesEEG,001,102208,
AMSA21.JPG,AMNE23.JPG,AMNE21.JPG,AMSA25.JPG,AMNE25.JPG,AMSA23.JPG,,,,,,,,,,,,,,,,,,,,,0,2,2,5,,,AFNE01.jpg,AFSA09.jpg,AFSA04.jpg,AFNE06.jpg,AFNE01.jpg,FN,3,num_8,32,num_4,1.75007304852,,,2017_Nov_08_1046,60.0061780708,MAFE4ImagesEEG,001,102208,
AMNE22.JPG,AMSA24.JPG,AMSA22.JPG,AMNE25.JPG,AMNE24.JPG,AMSA25.JPG,,,,,,,,,,,,,,,,,,,,,0,3,3,7,,,AFSA04.jpg,AFSA18.jpg,AFNE01.jpg,AFNE09.jpg,AFSA04.jpg,FS,4,num_8,16,num_8,1.16674476676,,,2017_Nov_08_1046,60.0061780708,MAFE4ImagesEEG,001,102208,
AMSA21.JPG,AMNE22.JPG,AMNE21.JPG,AMSA23.JPG,AMSA22.JPG,AMNE23.JPG,,,,,,,,,,,,,,,,,,,,,0,4,4,1,,,AFNE16.jpg,AFNE02.jpg,AFSA04.jpg,AFSA05.jpg,AFSA04.jpg,FS,4,num_2,32,num_4,0.583480632864,,,2017_Nov_08_1046,60.0061780708,MAFE4ImagesEEG,001,102208,
AFNE22.JPG,AFSA24.JPG,AFSA22.JPG,AFNE25.JPG,AFNE24.JPG,AFSA25.JPG,,,,,,,,,,,,,,,,,,,,,0,5,5,6,,,AFNE14.jpg,AFNE01.jpg,AFSA11.jpg,AFSA16.jpg,AFNE14.jpg,FN,3,num_8,16,num_8,0.916788307019,,,2017_Nov_08_1046,60.0061780708,MAFE4ImagesEEG,001,102208,
AMSA25.JPG,AMNE24.JPG,AMSA24.JPG,AMNE26.JPG,AMSA21.JPG,AMNE25.JPG,,,,,,,,,,,,,,,,,,,,,0,6,6,3,,,AFNE12.jpg,AFSA01.jpg,AFSA02.jpg,AFNE02.jpg,AFNE12.jpg,FN,3,num_8,16,num_8,0.933433403959,,,2017_Nov_08_1046,60.0061780708,MAFE4ImagesEEG,001,102208,
AFNE23.JPG,AFNE24.JPG,AFNE22.JPG,AFSA24.JPG,AFSA22.JPG,AFSA23.JPG,,,,,,,,,,,,,,,,,,,,,0,7,7,8,,,AFSA17.jpg,AFSA16.jpg,AFNE01.jpg,AFNE16.jpg,AFNE01.jpg,FN,3,num_2,16,num_2,0.966795764398,,,2017_Nov_08_1046,60.0061780708,MAFE4ImagesEEG,001,102208,
AMNE23.JPG,AMNE24.JPG,AMNE22.JPG,AMSA24.JPG,AMSA22.JPG,AMSA23.JPG,,,,,,,,,,,,,,,,,,,,,0,8,8,9,,,AFNE06.jpg,AFSA03.jpg,AFSA13.jpg,AFNE10.jpg,AFSA03.jpg,FS,4,num_6,32,num_4,1.46675134171,,,2017_Nov_08_1046,60.0061780708,MAFE4ImagesEEG,001,102208,
AFSA25.JPG,AFNE24.JPG,AFSA24.JPG,AFNE21.JPG,AFSA21.JPG,AFNE25.JPG,,,,,,,,,,,,,,,,,,,,,0,9,9,2,,,AFSA13.jpg,AFNE04.jpg,AFNE10.jpg,AFSA02.jpg,AFNE10.jpg,FN,3,num_2,32,num_6,0.650125809945,,,2017_Nov_08_1046,60.0061780708,MAFE4ImagesEEG,001,102208,
,,,,,,,,,,,,,,,,,,,,,,,,,,,,,,,,,,,,,,,,,,,space,8.11622605077,2017_Nov_08_1046,60.0061780708,MAFE4ImagesEEG,001,102208,
AFNE01.JPG,AFNE01.JPG,AFNE01.JPG,AFNE01.JPG,AFNE01.JPG,AFNE01.JPG,0,0,0,2,,,,,,,,,,,,,,,,,,,,,,,AMNE15.jpg,AMNE16.jpg,AMSA15.jpg,AMSA05.jpg,AMNE15.jpg,MN,1,num_8,32,num_6,1.73332852218,,,2017_Nov_08_1046,60.0061780708,MAFE4ImagesEEG,001,102208,
AFNE01.JPG,AFNE01.JPG,AFNE01.JPG,AFNE01.JPG,AFNE01.JPG,AFNE01.JPG,0,1,1,9,,,,,,,,,,,,,,,,,,,,,,,AMSA09.jpg,AMNE02.jpg,AMNE05.jpg,AMSA10.jpg,AMNE02.jpg,MN,1,num_6,16,num_6,0.983455935959,,,2017_Nov_08_1046,60.0061780708,MAFE4ImagesEEG,001,102208,
AFNE01.JPG,AFNE01.JPG,AFNE01.JPG,AFNE01.JPG,AFNE01.JPG,AFNE01.JPG,0,2,2,7,,,,,,,,,,,,,,,,,,,,,,,AMSA06.jpg,AMNE14.jpg,AMNE12.jpg,AMSA02.jpg,AMSA06.jpg,MS,2,num_8,16,num_8,1.03344126209,,,2017_Nov_08_1046,60.0061780708,MAFE4ImagesEEG,001,102208,
AFNE01.JPG,AFNE01.JPG,AFNE01.JPG,AFNE01.JPG,AFNE01.JPG,AFNE01.JPG,0,3,3,6,,,,,,,,,,,,,,,,,,,,,,,AMSA10.jpg,AMNE07.jpg,AMSA05.jpg,AMNE15.jpg,AMNE15.jpg,MN,1,num_4,32,num_8,1.10013551242,,,2017_Nov_08_1046,60.0061780708,MAFE4ImagesEEG,001,102208,
AFNE01.JPG,AFNE01.JPG,AFNE01.JPG,AFNE01.JPG,AFNE01.JPG,AFNE01.JPG,0,4,4,8,,,,,,,,,,,,,,,,,,,,,,,AMNE05.jpg,AMSA09.jpg,AMSA13.jpg,AMNE11.jpg,AMSA13.jpg,MS,2,num_2,32,num_4,1.21677435492,,,2017_Nov_08_1046,60.0061780708,MAFE4ImagesEEG,001,102208,
AFNE01.JPG,AFNE01.JPG,AFNE01.JPG,AFNE01.JPG,AFNE01.JPG,AFNE01.JPG,0,5,5,1,,,,,,,,,,,,,,,,,,,,,,,AMSA05.jpg,AMNE12.jpg,AMNE08.jpg,AMSA16.jpg,AMNE08.jpg,MN,1,num_2,16,num_2,1.31649034028,,,2017_Nov_08_1046,60.0061780708,MAFE4ImagesEEG,001,102208,
AFNE01.JPG,AFNE01.JPG,AFNE01.JPG,AFNE01.JPG,AFNE01.JPG,AFNE01.JPG,0,6,6,3,,,,,,,,,,,,,,,,,,,,,,,AMNE07.jpg,AMNE09.jpg,AMSA13.jpg,AMSA01.jpg,AMNE07.jpg,MN,1,num_8,16,num_8,1.05033236649,,,2017_Nov_08_1046,60.0061780708,MAFE4ImagesEEG,001,102208,
AFNE01.JPG,AFNE01.JPG,AFNE01.JPG,AFNE01.JPG,AFNE01.JPG,AFNE01.JPG,0,7,7,0,,,,,,,,,,,,,,,,,,,,,,,AMSA10.jpg,AMNE03.jpg,AMNE02.jpg,AMSA02.jpg,AMNE03.jpg,MN,1,num_6,16,num_6,1.08340285369,,,2017_Nov_08_1046,60.0061780708,MAFE4ImagesEEG,001,102208,
AFNE01.JPG,AFNE01.JPG,AFNE01.JPG,AFNE01.JPG,AFNE01.JPG,AFNE01.JPG,0,8,8,4,,,,,,,,,,,,,,,,,,,,,,,AMSA07.jpg,AMNE15.jpg,AMNE09.jpg,AMSA13.jpg,AMNE15.jpg,MN,1,num_6,16,num_6,0.733481194358,,,2017_Nov_08_1046,60.0061780708,MAFE4ImagesEEG,001,102208,
AFNE01.JPG,AFNE01.JPG,AFNE01.JPG,AFNE01.JPG,AFNE01.JPG,AFNE01.JPG,0,9,9,5,,,,,,,,,,,,,,,,,,,,,,,AMNE01.jpg,AMSA16.jpg,AMNE12.jpg,AMSA09.jpg,AMNE12.jpg,MN,1,num_2,32,num_4,0.733461308293,,,2017_Nov_08_1046,60.0061780708,MAFE4ImagesEEG,001,102208,
AFNE01.JPG,AFNE01.JPG,AFNE01.JPG,AFNE01.JPG,AFNE01.JPG,AFNE01.JPG,1,0,10,1,,,,,,,,,,,,,,,,,,,,,,,AMNE10.jpg,AMSA16.jpg,AMNE08.jpg,AMSA06.jpg,AMSA06.jpg,MS,2,num_4,32,num_2,1.36676401109,,,2017_Nov_08_1046,60.0061780708,MAFE4ImagesEEG,001,102208,
AFNE01.JPG,AFNE01.JPG,AFNE01.JPG,AFNE01.JPG,AFNE01.JPG,AFNE01.JPG,1,1,11,3,,,,,,,,,,,,,,,,,,,,,,,AMNE13.jpg,AMSA03.jpg,AMNE17.jpg,AMSA02.jpg,AMSA03.jpg,MS,2,num_6,32,num_4,0.783469727729,,,2017_Nov_08_1046,60.0061780708,MAFE4ImagesEEG,001,102208,
AFNE01.JPG,AFNE01.JPG,AFNE01.JPG,AFNE01.JPG,AFNE01.JPG,AFNE01.JPG,1,2,12,8,,,,,,,,,,,,,,,,,,,,,,,AMNE08.jpg,AMNE13.jpg,AMSA18.jpg,AMSA20.jpg,AMNE13.jpg,MN,1,num_6,32,num_8,0.883480151882,,,2017_Nov_08_1046,60.0061780708,MAFE4ImagesEEG,001,102208,
AFNE01.JPG,AFNE01.JPG,AFNE01.JPG,AFNE01.JPG,AFNE01.JPG,AFNE01.JPG,1,3,13,2,,,,,,,,,,,,,,,,,,,,,,,AMSA13.jpg,AMNE18.jpg,AMNE07.jpg,AMSA09.jpg,AMNE18.jpg,MN,1,num_6,32,num_8,1.00012797513,,,2017_Nov_08_1046,60.0061780708,MAFE4ImagesEEG,001,102208,
AFNE01.JPG,AFNE01.JPG,AFNE01.JPG,AFNE01.JPG,AFNE01.JPG,AFNE01.JPG,1,4,14,6,,,,,,,,,,,,,,,,,,,,,,,AMSA09.jpg,AMNE19.jpg,AMSA07.jpg,AMNE16.jpg,AMSA09.jpg,MS,2,num_8,32,num_4,0.866733380593,,,2017_Nov_08_1046,60.0061780708,MAFE4ImagesEEG,001,102208,
AFNE01.JPG,AFNE01.JPG,AFNE01.JPG,AFNE01.JPG,AFNE01.JPG,AFNE01.JPG,1,5,15,9,,,,,,,,,,,,,,,,,,,,,,,AMSA11.jpg,AMNE03.jpg,AMNE14.jpg,AMSA15.jpg,AMSA15.jpg,MS,2,num_4,16,num_4,0.88346539787,,,2017_Nov_08_1046,60.0061780708,MAFE4ImagesEEG,001,102208,
AFNE01.JPG,AFNE01.JPG,AFNE01.JPG,AFNE01.JPG,AFNE01.JPG,AFNE01.JPG,1,6,16,7,,,,,,,,,,,,,,,,,,,,,,,AMSA02.jpg,AMNE10.jpg,AMNE01.jpg,AMSA09.jpg,AMSA09.jpg,MS,2,num_4,16,num_4,0.850154676475,,,2017_Nov_08_1046,60.0061780708,MAFE4ImagesEEG,001,102208,
AFNE01.JPG,AFNE01.JPG,AFNE01.JPG,AFNE01.JPG,AFNE01.JPG,AFNE01.JPG,1,7,17,4,,,,,,,,,,,,,,,,,,,,,,,AMSA09.jpg,AMSA20.jpg,AMNE06.jpg,AMNE15.jpg,AMSA20.jpg,MS,2,num_6,16,num_6,1.25009790575,,,2017_Nov_08_1046,60.0061780708,MAFE4ImagesEEG,001,102208,
AFNE01.JPG,AFNE01.JPG,AFNE01.JPG,AFNE01.JPG,AFNE01.JPG,AFNE01.JPG,1,8,18,0,,,,,,,,,,,,,,,,,,,,,,,AMNE04.jpg,AMSA05.jpg,AMNE14.jpg,AMSA01.jpg,AMSA05.jpg,MS,2,num_6,16,num_6,1.4334374133,,,2017_Nov_08_1046,60.0061780708,MAFE4ImagesEEG,001,102208,
AFNE01.JPG,AFNE01.JPG,AFNE01.JPG,AFNE01.JPG,AFNE01.JPG,AFNE01.JPG,1,9,19,5,,,,,,,,,,,,,,,,,,,,,,,AMNE15.jpg,AMNE12.jpg,AMSA12.jpg,AMSA05.jpg,AMNE15.jpg,MN,1,num_8,16,num_8,0.766821423545,,,2017_Nov_08_1046,60.0061780708,MAFE4ImagesEEG,001,102208,
AFNE01.JPG,AFNE01.JPG,AFNE01.JPG,AFNE01.JPG,AFNE01.JPG,AFNE01.JPG,2,0,20,6,,,,,,,,,,,,,,,,,,,,,,,AMSA10.jpg,AMNE15.jpg,AMSA16.jpg,AMNE20.jpg,AMNE15.jpg,MN,1,num_6,32,num_8,0.983473897446,,,2017_Nov_08_1046,60.0061780708,MAFE4ImagesEEG,001,102208,
AFNE01.JPG,AFNE01.JPG,AFNE01.JPG,AFNE01.JPG,AFNE01.JPG,AFNE01.JPG,2,1,21,9,,,,,,,,,,,,,,,,,,,,,,,AMSA10.jpg,AMNE03.jpg,AMSA02.jpg,AMNE16.jpg,AMNE16.jpg,MN,1,num_4,16,num_4,1.10020896187,,,2017_Nov_08_1046,60.0061780708,MAFE4ImagesEEG,001,102208,
AFNE01.JPG,AFNE01.JPG,AFNE01.JPG,AFNE01.JPG,AFNE01.JPG,AFNE01.JPG,2,2,22,7,,,,,,,,,,,,,,,,,,,,,,,AMNE03.jpg,AMSA17.jpg,AMNE17.jpg,AMSA03.jpg,AMNE17.jpg,MN,1,num_2,32,num_6,1.01677275123,,,2017_Nov_08_1046,60.0061780708,MAFE4ImagesEEG,001,102208,
AFNE01.JPG,AFNE01.JPG,AFNE01.JPG,AFNE01.JPG,AFNE01.JPG,AFNE01.JPG,2,3,23,5,,,,,,,,,,,,,,,,,,,,,,,AMNE02.jpg,AMSA02.jpg,AMSA05.jpg,AMNE12.jpg,AMNE02.jpg,MN,1,num_8,32,num_6,1.50009125052,,,2017_Nov_08_1046,60.0061780708,MAFE4ImagesEEG,001,102208,
AFNE01.JPG,AFNE01.JPG,AFNE01.JPG,AFNE01.JPG,AFNE01.JPG,AFNE01.JPG,2,4,24,3,,,,,,,,,,,,,,,,,,,,,,,AMSA10.jpg,AMSA19.jpg,AMNE03.jpg,AMNE05.jpg,AMSA10.jpg,MS,2,num_8,32,num_2,1.66668366571,,,2017_Nov_08_1046,60.0061780708,MAFE4ImagesEEG,001,102208,
AFNE01.JPG,AFNE01.JPG,AFNE01.JPG,AFNE01.JPG,AFNE01.JPG,AFNE01.JPG,2,5,25,2,,,,,,,,,,,,,,,,,,,,,,,AMSA17.jpg,AMSA16.jpg,AMNE19.jpg,AMNE12.jpg,AMNE19.jpg,MN,1,num_2,32,num_8,1.13352321112,,,2017_Nov_08_1046,60.0061780708,MAFE4ImagesEEG,001,102208,
AFNE01.JPG,AFNE01.JPG,AFNE01.JPG,AFNE01.JPG,AFNE01.JPG,AFNE01.JPG,2,6,26,0,,,,,,,,,,,,,,,,,,,,,,,AMSA05.jpg,AMSA08.jpg,AMNE12.jpg,AMNE09.jpg,AMSA05.jpg,MS,2,num_8,32,num_2,1.31673827162,,,2017_Nov_08_1046,60.0061780708,MAFE4ImagesEEG,001,102208,
AFNE01.JPG,AFNE01.JPG,AFNE01.JPG,AFNE01.JPG,AFNE01.JPG,AFNE01.JPG,2,7,27,4,,,,,,,,,,,,,,,,,,,,,,,AMNE07.jpg,AMNE14.jpg,AMSA06.jpg,AMSA19.jpg,AMSA19.jpg,MS,2,num_4,16,num_4,1.2667773217,,,2017_Nov_08_1046,60.0061780708,MAFE4ImagesEEG,001,102208,
AFNE01.JPG,AFNE01.JPG,AFNE01.JPG,AFNE01.JPG,AFNE01.JPG,AFNE01.JPG,2,8,28,1,,,,,,,,,,,,,,,,,,,,,,,AMSA09.jpg,AMNE05.jpg,AMNE15.jpg,AMSA02.jpg,AMNE15.jpg,MN,1,num_2,32,num_6,0.683493943652,,,2017_Nov_08_1046,60.0061780708,MAFE4ImagesEEG,001,102208,
AFNE01.JPG,AFNE01.JPG,AFNE01.JPG,AFNE01.JPG,AFNE01.JPG,AFNE01.JPG,2,9,29,8,,,,,,,,,,,,,,,,,,,,,,,AMSA10.jpg,AMNE10.jpg,AMNE04.jpg,AMSA19.jpg,AMNE04.jpg,MN,1,num_2,32,num_4,1.83339026477,,,2017_Nov_08_1046,60.0061780708,MAFE4ImagesEEG,001,102208,
AFNE01.JPG,AFNE01.JPG,AFNE01.JPG,AFNE01.JPG,AFNE01.JPG,AFNE01.JPG,3,0,30,0,,,,,,,,,,,,,,,,,,,,,,,AMSA20.jpg,AMSA17.jpg,AMNE02.jpg,AMNE08.jpg,AMSA20.jpg,MS,2,num_8,32,num_6,1.93330029701,,,2017_Nov_08_1046,60.0061780708,MAFE4ImagesEEG,001,102208,
AFNE01.JPG,AFNE01.JPG,AFNE01.JPG,AFNE01.JPG,AFNE01.JPG,AFNE01.JPG,3,1,31,1,,,,,,,,,,,,,,,,,,,,,,,AMNE09.jpg,AMSA03.jpg,AMNE04.jpg,AMSA05.jpg,AMNE09.jpg,MN,1,num_8,16,num_8,1.33342795144,,,2017_Nov_08_1046,60.0061780708,MAFE4ImagesEEG,001,102208,
AFNE01.JPG,AFNE01.JPG,AFNE01.JPG,AFNE01.JPG,AFNE01.JPG,AFNE01.JPG,3,2,32,4,,,,,,,,,,,,,,,,,,,,,,,AMNE09.jpg,AMNE17.jpg,AMSA01.jpg,AMSA09.jpg,AMNE09.jpg,MN,1,num_8,16,num_8,1.40012861649,,,2017_Nov_08_1046,60.0061780708,MAFE4ImagesEEG,001,102208,
AFNE01.JPG,AFNE01.JPG,AFNE01.JPG,AFNE01.JPG,AFNE01.JPG,AFNE01.JPG,3,3,33,9,,,,,,,,,,,,,,,,,,,,,,,AMNE11.jpg,AMNE19.jpg,AMSA03.jpg,AMSA19.jpg,AMSA03.jpg,MS,2,num_2,32,num_4,1.13348504319,,,2017_Nov_08_1046,60.0061780708,MAFE4ImagesEEG,001,102208,
AFNE01.JPG,AFNE01.JPG,AFNE01.JPG,AFNE01.JPG,AFNE01.JPG,AFNE01.JPG,3,4,34,2,,,,,,,,,,,,,,,,,,,,,,,AMSA16.jpg,AMSA18.jpg,AMNE19.jpg,AMNE01.jpg,AMSA18.jpg,MS,2,num_6,32,num_4,0.750123725273,,,2017_Nov_08_1046,60.0061780708,MAFE4ImagesEEG,001,102208,
AFNE01.JPG,AFNE01.JPG,AFNE01.JPG,AFNE01.JPG,AFNE01.JPG,AFNE01.JPG,3,5,35,7,,,,,,,,,,,,,,,,,,,,,,,AMSA07.jpg,AMSA04.jpg,AMNE12.jpg,AMNE03.jpg,AMSA07.jpg,MS,2,num_8,32,num_2,2.00002116896,,,2017_Nov_08_1046,60.0061780708,MAFE4ImagesEEG,001,102208,
AFNE01.JPG,AFNE01.JPG,AFNE01.JPG,AFNE01.JPG,AFNE01.JPG,AFNE01.JPG,3,6,36,3,,,,,,,,,,,,,,,,,,,,,,,AMNE02.jpg,AMNE05.jpg,AMSA10.jpg,AMSA08.jpg,AMSA08.jpg,MS,2,num_4,32,num_8,1.06676962413,,,2017_Nov_08_1046,60.0061780708,MAFE4ImagesEEG,001,102208,
AFNE01.JPG,AFNE01.JPG,AFNE01.JPG,AFNE01.JPG,AFNE01.JPG,AFNE01.JPG,3,7,37,6,,,,,,,,,,,,,,,,,,,,,,,AMSA04.jpg,AMNE04.jpg,AMSA13.jpg,AMNE09.jpg,AMSA13.jpg,MS,2,num_2,16,num_2,1.58307489753,,,2017_Nov_08_1046,60.0061780708,MAFE4ImagesEEG,001,102208,
AFNE01.JPG,AFNE01.JPG,AFNE01.JPG,AFNE01.JPG,AFNE01.JPG,AFNE01.JPG,3,8,38,5,,,,,,,,,,,,,,,,,,,,,,,AMNE02.jpg,AMSA18.jpg,AMSA13.jpg,AMNE10.jpg,AMNE02.jpg,MN,1,num_8,16,num_8,0.933468043804,,,2017_Nov_08_1046,60.0061780708,MAFE4ImagesEEG,001,102208,
AFNE01.JPG,AFNE01.JPG,AFNE01.JPG,AFNE01.JPG,AFNE01.JPG,AFNE01.JPG,3,9,39,8,,,,,,,,,,,,,,,,,,,,,,,AMNE01.jpg,AMSA09.jpg,AMNE06.jpg,AMSA19.jpg,AMSA19.jpg,MS,2,num_4,16,num_4,3.28359497664,,,2017_Nov_08_1046,60.0061780708,MAFE4ImagesEEG,001,102208,
AFNE01.JPG,AFNE01.JPG,AFNE01.JPG,AFNE01.JPG,AFNE01.JPG,AFNE01.JPG,4,0,40,2,,,,,,,,,,,,,,,,,,,,,,,AMNE19.jpg,AMSA18.jpg,AMNE14.jpg,AMSA06.jpg,AMSA06.jpg,MS,2,num_4,32,num_8,0.966639243532,,,2017_Nov_08_1046,60.0061780708,MAFE4ImagesEEG,001,102208,
AFNE01.JPG,AFNE01.JPG,AFNE01.JPG,AFNE01.JPG,AFNE01.JPG,AFNE01.JPG,4,1,41,6,,,,,,,,,,,,,,,,,,,,,,,AMSA05.jpg,AMNE09.jpg,AMSA08.jpg,AMNE20.jpg,AMNE09.jpg,MN,1,num_6,16,num_6,0.833462110255,,,2017_Nov_08_1046,60.0061780708,MAFE4ImagesEEG,001,102208,
AFNE01.JPG,AFNE01.JPG,AFNE01.JPG,AFNE01.JPG,AFNE01.JPG,AFNE01.JPG,4,2,42,0,,,,,,,,,,,,,,,,,,,,,,,AMSA17.jpg,AMSA01.jpg,AMNE04.jpg,AMNE20.jpg,AMNE04.jpg,MN,1,num_2,32,num_6,1.51673410228,,,2017_Nov_08_1046,60.0061780708,MAFE4ImagesEEG,001,102208,
AFNE01.JPG,AFNE01.JPG,AFNE01.JPG,AFNE01.JPG,AFNE01.JPG,AFNE01.JPG,4,3,43,3,,,,,,,,,,,,,,,,,,,,,,,AMNE04.jpg,AMSA14.jpg,AMSA10.jpg,AMNE02.jpg,AMNE02.jpg,MN,1,num_4,16,num_4,0.883480472723,,,2017_Nov_08_1046,60.0061780708,MAFE4ImagesEEG,001,102208,
AFNE01.JPG,AFNE01.JPG,AFNE01.JPG,AFNE01.JPG,AFNE01.JPG,AFNE01.JPG,4,4,44,9,,,,,,,,,,,,,,,,,,,,,,,AMSA17.jpg,AMNE09.jpg,AMSA16.jpg,AMNE04.jpg,AMSA17.jpg,MS,2,num_8,16,num_8,1.1001204378,,,2017_Nov_08_1046,60.0061780708,MAFE4ImagesEEG,001,102208,
AFNE01.JPG,AFNE01.JPG,AFNE01.JPG,AFNE01.JPG,AFNE01.JPG,AFNE01.JPG,4,5,45,5,,,,,,,,,,,,,,,,,,,,,,,AMNE15.jpg,AMSA17.jpg,AMSA18.jpg,AMNE19.jpg,AMSA17.jpg,MS,2,num_6,16,num_6,0.750164780067,,,2017_Nov_08_1046,60.0061780708,MAFE4ImagesEEG,001,102208,
AFNE01.JPG,AFNE01.JPG,AFNE01.JPG,AFNE01.JPG,AFNE01.JPG,AFNE01.JPG,4,6,46,4,,,,,,,,,,,,,,,,,,,,,,,AMSA12.jpg,AMNE13.jpg,AMSA03.jpg,AMNE16.jpg,AMSA12.jpg,MS,2,num_8,16,num_8,1.25010271673,,,2017_Nov_08_1046,60.0061780708,MAFE4ImagesEEG,001,102208,
AFNE01.JPG,AFNE01.JPG,AFNE01.JPG,AFNE01.JPG,AFNE01.JPG,AFNE01.JPG,4,7,47,7,,,,,,,,,,,,,,,,,,,,,,,AMNE10.jpg,AMSA07.jpg,AMNE20.jpg,AMSA11.jpg,AMNE10.jpg,MN,1,num_8,16,num_8,1.1001303806,,,2017_Nov_08_1046,60.0061780708,MAFE4ImagesEEG,001,102208,
AFNE01.JPG,AFNE01.JPG,AFNE01.JPG,AFNE01.JPG,AFNE01.JPG,AFNE01.JPG,4,8,48,8,,,,,,,,,,,,,,,,,,,,,,,AMNE13.jpg,AMNE12.jpg,AMSA18.jpg,AMSA03.jpg,AMSA18.jpg,MS,2,num_2,32,num_4,0.866847884608,,,2017_Nov_08_1046,60.0061780708,MAFE4ImagesEEG,001,102208,
AFNE01.JPG,AFNE01.JPG,AFNE01.JPG,AFNE01.JPG,AFNE01.JPG,AFNE01.JPG,4,9,49,1,,,,,,,,,,,,,,,,,,,,,,,AMSA18.jpg,AMSA06.jpg,AMNE17.jpg,AMNE08.jpg,AMNE17.jpg,MN,1,num_2,32,num_4,1.11676168581,,,2017_Nov_08_1046,60.0061780708,MAFE4ImagesEEG,001,102208,
AFNE01.JPG,AFNE01.JPG,AFNE01.JPG,AFNE01.JPG,AFNE01.JPG,AFNE01.JPG,5,0,50,1,,,,,,,,,,,,,,,,,,,,,,,AMSA17.jpg,AMSA13.jpg,AMNE03.jpg,AMNE06.jpg,AMNE03.jpg,MN,1,num_2,16,num_2,1.28352601756,,,2017_Nov_08_1046,60.0061780708,MAFE4ImagesEEG,001,102208,
AFNE01.JPG,AFNE01.JPG,AFNE01.JPG,AFNE01.JPG,AFNE01.JPG,AFNE01.JPG,5,1,51,7,,,,,,,,,,,,,,,,,,,,,,,AMNE20.jpg,AMNE06.jpg,AMSA05.jpg,AMSA09.jpg,AMSA09.jpg,MS,2,num_4,32,num_6,1.45008026506,,,2017_Nov_08_1046,60.0061780708,MAFE4ImagesEEG,001,102208,
AFNE01.JPG,AFNE01.JPG,AFNE01.JPG,AFNE01.JPG,AFNE01.JPG,AFNE01.JPG,5,2,52,9,,,,,,,,,,,,,,,,,,,,,,,AMSA02.jpg,AMNE04.jpg,AMSA19.jpg,AMNE10.jpg,AMSA02.jpg,MS,2,num_8,32,num_2,0.950143931899,,,2017_Nov_08_1046,60.0061780708,MAFE4ImagesEEG,001,102208,
AFNE01.JPG,AFNE01.JPG,AFNE01.JPG,AFNE01.JPG,AFNE01.JPG,AFNE01.JPG,5,3,53,3,,,,,,,,,,,,,,,,,,,,,,,AMSA04.jpg,AMNE15.jpg,AMSA19.jpg,AMNE17.jpg,AMNE15.jpg,MN,1,num_6,16,num_6,1.00016389787,,,2017_Nov_08_1046,60.0061780708,MAFE4ImagesEEG,001,102208,
AFNE01.JPG,AFNE01.JPG,AFNE01.JPG,AFNE01.JPG,AFNE01.JPG,AFNE01.JPG,5,4,54,0,,,,,,,,,,,,,,,,,,,,,,,AMNE16.jpg,AMSA01.jpg,AMSA11.jpg,AMNE03.jpg,AMSA01.jpg,MS,2,num_6,16,num_6,0.950133989099,,,2017_Nov_08_1046,60.0061780708,MAFE4ImagesEEG,001,102208,
AFNE01.JPG,AFNE01.JPG,AFNE01.JPG,AFNE01.JPG,AFNE01.JPG,AFNE01.JPG,5,5,55,5,,,,,,,,,,,,,,,,,,,,,,,AMSA01.jpg,AMSA15.jpg,AMNE08.jpg,AMNE03.jpg,AMNE03.jpg,MN,1,num_4,32,num_8,0.883461228106,,,2017_Nov_08_1046,60.0061780708,MAFE4ImagesEEG,001,102208,
AFNE01.JPG,AFNE01.JPG,AFNE01.JPG,AFNE01.JPG,AFNE01.JPG,AFNE01.JPG,5,6,56,8,,,,,,,,,,,,,,,,,,,,,,,AMSA06.jpg,AMNE06.jpg,AMNE07.jpg,AMSA18.jpg,AMNE06.jpg,MN,1,num_6,16,num_6,0.800172237214,,,2017_Nov_08_1046,60.0061780708,MAFE4ImagesEEG,001,102208,
AFNE01.JPG,AFNE01.JPG,AFNE01.JPG,AFNE01.JPG,AFNE01.JPG,AFNE01.JPG,5,7,57,6,,,,,,,,,,,,,,,,,,,,,,,AMNE10.jpg,AMSA16.jpg,AMNE19.jpg,AMSA11.jpg,AMSA11.jpg,MS,2,num_4,16,num_4,1.08345705853,,,2017_Nov_08_1046,60.0061780708,MAFE4ImagesEEG,001,102208,
AFNE01.JPG,AFNE01.JPG,AFNE01.JPG,AFNE01.JPG,AFNE01.JPG,AFNE01.JPG,5,8,58,2,,,,,,,,,,,,,,,,,,,,,,,AMNE10.jpg,AMSA07.jpg,AMNE20.jpg,AMSA05.jpg,AMNE10.jpg,MN,1,num_8,16,num_8,1.33345072391,,,2017_Nov_08_1046,60.0061780708,MAFE4ImagesEEG,001,102208,
AFNE01.JPG,AFNE01.JPG,AFNE01.JPG,AFNE01.JPG,AFNE01.JPG,AFNE01.JPG,5,9,59,4,,,,,,,,,,,,,,,,,,,,,,,AMSA15.jpg,AMSA10.jpg,AMNE17.jpg,AMNE18.jpg,AMNE18.jpg,MN,1,num_4,32,num_2,1.60005965736,,,2017_Nov_08_1046,60.0061780708,MAFE4ImagesEEG,001,102208,
,,,,,,,,,,,,,,,,,,,,,,,,,,,,,,,,,,,,,,,,,,,space,14.566001934,2017_Nov_08_1046,60.0061780708,MAFE4ImagesEEG,001,102208,
AFNE01.JPG,AFNE01.JPG,AFNE01.JPG,AFNE01.JPG,AFNE01.JPG,AFNE01.JPG,,,,,0,0,0,3,,,,,,,,,,,,,,,,,,,AFSA08.jpg,AFNE08.jpg,AFSA11.jpg,AFNE07.jpg,AFSA08.jpg,FS,4,num_8,16,num_8,1.15010929201,,,2017_Nov_08_1046,60.0061780708,MAFE4ImagesEEG,001,102208,
AFNE01.JPG,AFNE01.JPG,AFNE01.JPG,AFNE01.JPG,AFNE01.JPG,AFNE01.JPG,,,,,0,1,1,8,,,,,,,,,,,,,,,,,,,AFNE15.jpg,AFNE11.jpg,AFSA05.jpg,AFSA15.jpg,AFSA15.jpg,FS,4,num_4,16,num_4,1.0833845716,,,2017_Nov_08_1046,60.0061780708,MAFE4ImagesEEG,001,102208,
AFNE01.JPG,AFNE01.JPG,AFNE01.JPG,AFNE01.JPG,AFNE01.JPG,AFNE01.JPG,,,,,0,2,2,0,,,,,,,,,,,,,,,,,,,AFNE01.jpg,AFNE03.jpg,AFSA07.jpg,AFSA01.jpg,AFSA01.jpg,FS,4,num_4,16,num_4,1.03344607307,,,2017_Nov_08_1046,60.0061780708,MAFE4ImagesEEG,001,102208,
AFNE01.JPG,AFNE01.JPG,AFNE01.JPG,AFNE01.JPG,AFNE01.JPG,AFNE01.JPG,,,,,0,3,3,4,,,,,,,,,,,,,,,,,,,AFNE03.jpg,AFSA01.jpg,AFSA12.jpg,AFNE13.jpg,AFNE03.jpg,FN,3,num_8,16,num_8,0.766774916323,,,2017_Nov_08_1046,60.0061780708,MAFE4ImagesEEG,001,102208,
AFNE01.JPG,AFNE01.JPG,AFNE01.JPG,AFNE01.JPG,AFNE01.JPG,AFNE01.JPG,,,,,0,4,4,7,,,,,,,,,,,,,,,,,,,AFNE11.jpg,AFSA09.jpg,AFSA15.jpg,AFNE02.jpg,AFSA15.jpg,FS,4,num_2,16,num_2,0.666792396689,,,2017_Nov_08_1046,60.0061780708,MAFE4ImagesEEG,001,102208,
AFNE01.JPG,AFNE01.JPG,AFNE01.JPG,AFNE01.JPG,AFNE01.JPG,AFNE01.JPG,,,,,0,5,5,5,,,,,,,,,,,,,,,,,,,AFNE18.jpg,AFNE12.jpg,AFSA17.jpg,AFSA02.jpg,AFNE18.jpg,FN,3,num_8,32,num_6,0.783443427179,,,2017_Nov_08_1046,60.0061780708,MAFE4ImagesEEG,001,102208,
AFNE01.JPG,AFNE01.JPG,AFNE01.JPG,AFNE01.JPG,AFNE01.JPG,AFNE01.JPG,,,,,0,6,6,1,,,,,,,,,,,,,,,,,,,AFNE06.jpg,AFSA15.jpg,AFSA07.jpg,AFNE20.jpg,AFSA07.jpg,FS,4,num_2,32,num_6,1.03311763611,,,2017_Nov_08_1046,60.0061780708,MAFE4ImagesEEG,001,102208,
AFNE01.JPG,AFNE01.JPG,AFNE01.JPG,AFNE01.JPG,AFNE01.JPG,AFNE01.JPG,,,,,0,7,7,6,,,,,,,,,,,,,,,,,,,AFSA05.jpg,AFSA04.jpg,AFNE16.jpg,AFNE05.jpg,AFSA05.jpg,FS,4,num_8,16,num_8,1.30011049472,,,2017_Nov_08_1046,60.0061780708,MAFE4ImagesEEG,001,102208,
AFNE01.JPG,AFNE01.JPG,AFNE01.JPG,AFNE01.JPG,AFNE01.JPG,AFNE01.JPG,,,,,0,8,8,2,,,,,,,,,,,,,,,,,,,AFSA14.jpg,AFSA11.jpg,AFNE15.jpg,AFNE05.jpg,AFNE15.jpg,FN,3,num_2,16,num_2,0.950167345814,,,2017_Nov_08_1046,60.0061780708,MAFE4ImagesEEG,001,102208,
AFNE01.JPG,AFNE01.JPG,AFNE01.JPG,AFNE01.JPG,AFNE01.JPG,AFNE01.JPG,,,,,0,9,9,9,,,,,,,,,,,,,,,,,,,AFSA20.jpg,AFSA16.jpg,AFNE18.jpg,AFNE20.jpg,AFNE20.jpg,FN,3,num_4,32,num_8,1.50034271018,,,2017_Nov_08_1046,60.0061780708,MAFE4ImagesEEG,001,102208,
AFNE01.JPG,AFNE01.JPG,AFNE01.JPG,AFNE01.JPG,AFNE01.JPG,AFNE01.JPG,,,,,1,0,10,2,,,,,,,,,,,,,,,,,,,AFNE19.jpg,AFSA08.jpg,AFSA14.jpg,AFNE03.jpg,AFSA08.jpg,FS,4,num_6,32,num_2,1.05011394271,,,2017_Nov_08_1046,60.0061780708,MAFE4ImagesEEG,001,102208,
AFNE01.JPG,AFNE01.JPG,AFNE01.JPG,AFNE01.JPG,AFNE01.JPG,AFNE01.JPG,,,,,1,1,11,1,,,,,,,,,,,,,,,,,,,AFNE19.jpg,AFSA15.jpg,AFSA08.jpg,AFNE03.jpg,AFSA08.jpg,FS,4,num_2,32,num_4,1.23345441255,,,2017_Nov_08_1046,60.0061780708,MAFE4ImagesEEG,001,102208,
AFNE01.JPG,AFNE01.JPG,AFNE01.JPG,AFNE01.JPG,AFNE01.JPG,AFNE01.JPG,,,,,1,2,12,8,,,,,,,,,,,,,,,,,,,AFNE20.jpg,AFSA16.jpg,AFSA01.jpg,AFNE09.jpg,AFSA16.jpg,FS,4,num_6,16,num_6,0.750152591849,,,2017_Nov_08_1046,60.0061780708,MAFE4ImagesEEG,001,102208,
AFNE01.JPG,AFNE01.JPG,AFNE01.JPG,AFNE01.JPG,AFNE01.JPG,AFNE01.JPG,,,,,1,3,13,7,,,,,,,,,,,,,,,,,,,AFSA16.jpg,AFNE09.jpg,AFNE02.jpg,AFSA14.jpg,AFNE09.jpg,FN,3,num_6,16,num_6,0.800123484572,,,2017_Nov_08_1046,60.0061780708,MAFE4ImagesEEG,001,102208,
AFNE01.JPG,AFNE01.JPG,AFNE01.JPG,AFNE01.JPG,AFNE01.JPG,AFNE01.JPG,,,,,1,4,14,4,,,,,,,,,,,,,,,,,,,AFSA15.jpg,AFNE16.jpg,AFSA19.jpg,AFNE12.jpg,AFSA15.jpg,FS,4,num_8,32,num_2,1.28353467747,,,2017_Nov_08_1046,60.0061780708,MAFE4ImagesEEG,001,102208,
AFNE01.JPG,AFNE01.JPG,AFNE01.JPG,AFNE01.JPG,AFNE01.JPG,AFNE01.JPG,,,,,1,5,15,9,,,,,,,,,,,,,,,,,,,AFSA19.jpg,AFNE01.jpg,AFNE03.jpg,AFSA10.jpg,AFNE01.jpg,FN,3,num_6,16,num_6,1.61671726312,,,2017_Nov_08_1046,60.0061780708,MAFE4ImagesEEG,001,102208,
AFNE01.JPG,AFNE01.JPG,AFNE01.JPG,AFNE01.JPG,AFNE01.JPG,AFNE01.JPG,,,,,1,6,16,0,,,,,,,,,,,,,,,,,,,AFSA03.jpg,AFNE03.jpg,AFNE20.jpg,AFSA18.jpg,AFNE03.jpg,FN,3,num_6,32,num_8,1.60011867364,,,2017_Nov_08_1046,60.0061780708,MAFE4ImagesEEG,001,102208,
AFNE01.JPG,AFNE01.JPG,AFNE01.JPG,AFNE01.JPG,AFNE01.JPG,AFNE01.JPG,,,,,1,7,17,6,,,,,,,,,,,,,,,,,,,AFSA16.jpg,AFNE01.jpg,AFNE11.jpg,AFSA01.jpg,AFSA16.jpg,FS,4,num_8,32,num_4,1.25011779158,,,2017_Nov_08_1046,60.0061780708,MAFE4ImagesEEG,001,102208,
AFNE01.JPG,AFNE01.JPG,AFNE01.JPG,AFNE01.JPG,AFNE01.JPG,AFNE01.JPG,,,,,1,8,18,3,,,,,,,,,,,,,,,,,,,AFNE02.jpg,AFSA09.jpg,AFSA12.jpg,AFNE05.jpg,AFNE02.jpg,FN,3,num_8,16,num_8,0.833451525774,,,2017_Nov_08_1046,60.0061780708,MAFE4ImagesEEG,001,102208,
AFNE01.JPG,AFNE01.JPG,AFNE01.JPG,AFNE01.JPG,AFNE01.JPG,AFNE01.JPG,,,,,1,9,19,5,,,,,,,,,,,,,,,,,,,AFNE08.jpg,AFNE17.jpg,AFSA05.jpg,AFSA02.jpg,AFNE17.jpg,FN,3,num_6,16,num_6,1.76701033907,,,2017_Nov_08_1046,60.0061780708,MAFE4ImagesEEG,001,102208,
AFNE01.JPG,AFNE01.JPG,AFNE01.JPG,AFNE01.JPG,AFNE01.JPG,AFNE01.JPG,,,,,2,0,20,7,,,,,,,,,,,,,,,,,,,AFSA10.jpg,AFSA17.jpg,AFNE12.jpg,AFNE14.jpg,AFNE14.jpg,FN,3,num_4,16,num_4,0.716779005714,,,2017_Nov_08_1046,60.0061780708,MAFE4ImagesEEG,001,102208,
AFNE01.JPG,AFNE01.JPG,AFNE01.JPG,AFNE01.JPG,AFNE01.JPG,AFNE01.JPG,,,,,2,1,21,2,,,,,,,,,,,,,,,,,,,AFSA19.jpg,AFNE01.jpg,AFSA10.jpg,AFNE04.jpg,AFNE04.jpg,FN,3,num_4,16,num_4,1.19997818978,,,2017_Nov_08_1046,60.0061780708,MAFE4ImagesEEG,001,102208,
AFNE01.JPG,AFNE01.JPG,AFNE01.JPG,AFNE01.JPG,AFNE01.JPG,AFNE01.JPG,,,,,2,2,22,3,,,,,,,,,,,,,,,,,,,AFNE15.jpg,AFSA19.jpg,AFNE08.jpg,AFSA02.jpg,AFSA19.jpg,FS,4,num_6,32,num_4,1.90003544162,,,2017_Nov_08_1046,60.0061780708,MAFE4ImagesEEG,001,102208,
AFNE01.JPG,AFNE01.JPG,AFNE01.JPG,AFNE01.JPG,AFNE01.JPG,AFNE01.JPG,,,,,2,3,23,8,,,,,,,,,,,,,,,,,,,AFSA19.jpg,AFNE08.jpg,AFSA01.jpg,AFNE13.jpg,AFSA01.jpg,FS,4,num_2,16,num_2,1.25010432047,,,2017_Nov_08_1046,60.0061780708,MAFE4ImagesEEG,001,102208,
AFNE01.JPG,AFNE01.JPG,AFNE01.JPG,AFNE01.JPG,AFNE01.JPG,AFNE01.JPG,,,,,2,4,24,1,,,,,,,,,,,,,,,,,,,AFSA09.jpg,AFNE07.jpg,AFNE10.jpg,AFSA20.jpg,AFNE07.jpg,FN,3,num_6,16,num_6,0.91680915514,,,2017_Nov_08_1046,60.0061780708,MAFE4ImagesEEG,001,102208,
AFNE01.JPG,AFNE01.JPG,AFNE01.JPG,AFNE01.JPG,AFNE01.JPG,AFNE01.JPG,,,,,2,5,25,6,,,,,,,,,,,,,,,,,,,AFSA05.jpg,AFNE20.jpg,AFNE03.jpg,AFSA14.jpg,AFNE20.jpg,FN,3,num_6,32,num_4,1.1001233242,,,2017_Nov_08_1046,60.0061780708,MAFE4ImagesEEG,001,102208,
AFNE01.JPG,AFNE01.JPG,AFNE01.JPG,AFNE01.JPG,AFNE01.JPG,AFNE01.JPG,,,,,2,6,26,9,,,,,,,,,,,,,,,,,,,AFNE08.jpg,AFSA05.jpg,AFNE19.jpg,AFSA08.jpg,AFSA08.jpg,FS,4,num_4,32,num_6,1.83340982976,,,2017_Nov_08_1046,60.0061780708,MAFE4ImagesEEG,001,102208,
AFNE01.JPG,AFNE01.JPG,AFNE01.JPG,AFNE01.JPG,AFNE01.JPG,AFNE01.JPG,,,,,2,7,27,0,,,,,,,,,,,,,,,,,,,AFSA16.jpg,AFNE13.jpg,AFNE01.jpg,AFSA04.jpg,AFSA16.jpg,FS,4,num_8,32,num_6,1.36641408433,,,2017_Nov_08_1046,60.0061780708,MAFE4ImagesEEG,001,102208,
AFNE01.JPG,AFNE01.JPG,AFNE01.JPG,AFNE01.JPG,AFNE01.JPG,AFNE01.JPG,,,,,2,8,28,5,,,,,,,,,,,,,,,,,,,AFNE07.jpg,AFSA18.jpg,AFNE19.jpg,AFSA01.jpg,AFNE19.jpg,FN,3,num_2,16,num_2,1.56673450326,,,2017_Nov_08_1046,60.0061780708,MAFE4ImagesEEG,001,102208,
AFNE01.JPG,AFNE01.JPG,AFNE01.JPG,AFNE01.JPG,AFNE01.JPG,AFNE01.JPG,,,,,2,9,29,4,,,,,,,,,,,,,,,,,,,AFSA03.jpg,AFNE05.jpg,AFSA02.jpg,AFNE13.jpg,AFNE05.jpg,FN,3,num_6,32,num_4,1.05014313012,,,2017_Nov_08_1046,60.0061780708,MAFE4ImagesEEG,001,102208,
AFNE01.JPG,AFNE01.JPG,AFNE01.JPG,AFNE01.JPG,AFNE01.JPG,AFNE01.JPG,,,,,3,0,30,6,,,,,,,,,,,,,,,,,,,AFNE19.jpg,AFSA06.jpg,AFSA05.jpg,AFNE09.jpg,AFNE19.jpg,FN,3,num_8,16,num_8,1.13369095791,,,2017_Nov_08_1046,60.0061780708,MAFE4ImagesEEG,001,102208,
AFNE01.JPG,AFNE01.JPG,AFNE01.JPG,AFNE01.JPG,AFNE01.JPG,AFNE01.JPG,,,,,3,1,31,3,,,,,,,,,,,,,,,,,,,AFSA11.jpg,AFNE03.jpg,AFNE13.jpg,AFSA01.jpg,AFNE13.jpg,FN,3,num_2,16,num_2,2.0333876987,,,2017_Nov_08_1046,60.0061780708,MAFE4ImagesEEG,001,102208,
AFNE01.JPG,AFNE01.JPG,AFNE01.JPG,AFNE01.JPG,AFNE01.JPG,AFNE01.JPG,,,,,3,2,32,8,,,,,,,,,,,,,,,,,,,AFSA20.jpg,AFNE06.jpg,AFSA02.jpg,AFNE18.jpg,AFNE18.jpg,FN,3,num_4,16,num_4,1.23345633689,,,2017_Nov_08_1046,60.0061780708,MAFE4ImagesEEG,001,102208,
AFNE01.JPG,AFNE01.JPG,AFNE01.JPG,AFNE01.JPG,AFNE01.JPG,AFNE01.JPG,,,,,3,3,33,0,,,,,,,,,,,,,,,,,,,AFNE02.jpg,AFSA13.jpg,AFNE04.jpg,AFSA19.jpg,AFSA19.jpg,FS,4,num_4,16,num_4,1.46676737885,,,2017_Nov_08_1046,60.0061780708,MAFE4ImagesEEG,001,102208,
AFNE01.JPG,AFNE01.JPG,AFNE01.JPG,AFNE01.JPG,AFNE01.JPG,AFNE01.JPG,,,,,3,4,34,5,,,,,,,,,,,,,,,,,,,AFNE20.jpg,AFSA02.jpg,AFSA04.jpg,AFNE15.jpg,AFNE20.jpg,FN,3,num_8,16,num_8,1.25013318704,,,2017_Nov_08_1046,60.0061780708,MAFE4ImagesEEG,001,102208,
AFNE01.JPG,AFNE01.JPG,AFNE01.JPG,AFNE01.JPG,AFNE01.JPG,AFNE01.JPG,,,,,3,5,35,2,,,,,,,,,,,,,,,,,,,AFNE08.jpg,AFNE18.jpg,AFSA10.jpg,AFSA13.jpg,AFSA10.jpg,FS,4,num_2,16,num_2,1.00013567298,,,2017_Nov_08_1046,60.0061780708,MAFE4ImagesEEG,001,102208,
AFNE01.JPG,AFNE01.JPG,AFNE01.JPG,AFNE01.JPG,AFNE01.JPG,AFNE01.JPG,,,,,3,6,36,9,,,,,,,,,,,,,,,,,,,AFSA12.jpg,AFSA18.jpg,AFNE02.jpg,AFNE10.jpg,AFSA18.jpg,FS,4,num_6,16,num_6,0.566785179777,,,2017_Nov_08_1046,60.0061780708,MAFE4ImagesEEG,001,102208,
AFNE01.JPG,AFNE01.JPG,AFNE01.JPG,AFNE01.JPG,AFNE01.JPG,AFNE01.JPG,,,,,3,7,37,7,,,,,,,,,,,,,,,,,,,AFSA01.jpg,AFNE15.jpg,AFNE05.jpg,AFSA12.jpg,AFSA12.jpg,FS,4,num_4,32,num_8,1.1499765059,,,2017_Nov_08_1046,60.0061780708,MAFE4ImagesEEG,001,102208,
AFNE01.JPG,AFNE01.JPG,AFNE01.JPG,AFNE01.JPG,AFNE01.JPG,AFNE01.JPG,,,,,3,8,38,1,,,,,,,,,,,,,,,,,,,AFNE18.jpg,AFNE11.jpg,AFSA20.jpg,AFSA13.jpg,AFSA20.jpg,FS,4,num_2,32,num_6,1.16679416085,,,2017_Nov_08_1046,60.0061780708,MAFE4ImagesEEG,001,102208,
AFNE01.JPG,AFNE01.JPG,AFNE01.JPG,AFNE01.JPG,AFNE01.JPG,AFNE01.JPG,,,,,3,9,39,4,,,,,,,,,,,,,,,,,,,AFNE20.jpg,AFSA06.jpg,AFSA05.jpg,AFNE18.jpg,AFSA05.jpg,FS,4,num_2,32,num_6,0.516867850674,,,2017_Nov_08_1046,60.0061780708,MAFE4ImagesEEG,001,102208,
AFNE01.JPG,AFNE01.JPG,AFNE01.JPG,AFNE01.JPG,AFNE01.JPG,AFNE01.JPG,,,,,4,0,40,5,,,,,,,,,,,,,,,,,,,AFSA07.jpg,AFNE15.jpg,AFNE06.jpg,AFSA13.jpg,AFSA13.jpg,FS,4,num_4,16,num_4,0.950165742077,,,2017_Nov_08_1046,60.0061780708,MAFE4ImagesEEG,001,102208,
AFNE01.JPG,AFNE01.JPG,AFNE01.JPG,AFNE01.JPG,AFNE01.JPG,AFNE01.JPG,,,,,4,1,41,2,,,,,,,,,,,,,,,,,,,AFNE03.jpg,AFNE01.jpg,AFSA16.jpg,AFSA08.jpg,AFSA16.jpg,FS,4,num_2,16,num_2,0.983434446389,,,2017_Nov_08_1046,60.0061780708,MAFE4ImagesEEG,001,102208,
AFNE01.JPG,AFNE01.JPG,AFNE01.JPG,AFNE01.JPG,AFNE01.JPG,AFNE01.JPG,,,,,4,2,42,7,,,,,,,,,,,,,,,,,,,AFNE17.jpg,AFNE09.jpg,AFSA18.jpg,AFSA03.jpg,AFNE09.jpg,FN,3,num_6,32,num_8,1.31674372451,,,2017_Nov_08_1046,60.0061780708,MAFE4ImagesEEG,001,102208,
AFNE01.JPG,AFNE01.JPG,AFNE01.JPG,AFNE01.JPG,AFNE01.JPG,AFNE01.JPG,,,,,4,3,43,6,,,,,,,,,,,,,,,,,,,AFSA05.jpg,AFNE18.jpg,AFSA09.jpg,AFNE02.jpg,AFSA05.jpg,FS,4,num_8,32,num_2,1.03343420592,,,2017_Nov_08_1046,60.0061780708,MAFE4ImagesEEG,001,102208,
AFNE01.JPG,AFNE01.JPG,AFNE01.JPG,AFNE01.JPG,AFNE01.JPG,AFNE01.JPG,,,,,4,4,44,3,,,,,,,,,,,,,,,,,,,AFNE02.jpg,AFSA10.jpg,AFSA17.jpg,AFNE03.jpg,AFSA17.jpg,FS,4,num_2,32,num_8,1.06677218992,,,2017_Nov_08_1046,60.0061780708,MAFE4ImagesEEG,001,102208,
AFNE01.JPG,AFNE01.JPG,AFNE01.JPG,AFNE01.JPG,AFNE01.JPG,AFNE01.JPG,,,,,4,5,45,9,,,,,,,,,,,,,,,,,,,AFNE16.jpg,AFSA09.jpg,AFNE10.jpg,AFSA15.jpg,AFSA09.jpg,FS,4,num_6,32,num_2,1.83338160464,,,2017_Nov_08_1046,60.0061780708,MAFE4ImagesEEG,001,102208,
AFNE01.JPG,AFNE01.JPG,AFNE01.JPG,AFNE01.JPG,AFNE01.JPG,AFNE01.JPG,,,,,4,6,46,8,,,,,,,,,,,,,,,,,,,AFSA10.jpg,AFSA15.jpg,AFNE17.jpg,AFNE12.jpg,AFNE12.jpg,FN,3,num_4,32,num_8,1.01663964428,,,2017_Nov_08_1046,60.0061780708,MAFE4ImagesEEG,001,102208,
AFNE01.JPG,AFNE01.JPG,AFNE01.JPG,AFNE01.JPG,AFNE01.JPG,AFNE01.JPG,,,,,4,7,47,4,,,,,,,,,,,,,,,,,,,AFSA17.jpg,AFSA04.jpg,AFNE14.jpg,AFNE12.jpg,AFSA04.jpg,FS,4,num_6,16,num_6,1.01680161781,,,2017_Nov_08_1046,60.0061780708,MAFE4ImagesEEG,001,102208,
AFNE01.JPG,AFNE01.JPG,AFNE01.JPG,AFNE01.JPG,AFNE01.JPG,AFNE01.JPG,,,,,4,8,48,1,,,,,,,,,,,,,,,,,,,AFNE15.jpg,AFSA17.jpg,AFSA06.jpg,AFNE14.jpg,AFSA17.jpg,FS,4,num_6,32,num_2,0.783453049371,,,2017_Nov_08_1046,60.0061780708,MAFE4ImagesEEG,001,102208,
AFNE01.JPG,AFNE01.JPG,AFNE01.JPG,AFNE01.JPG,AFNE01.JPG,AFNE01.JPG,,,,,4,9,49,0,,,,,,,,,,,,,,,,,,,AFNE07.jpg,AFSA15.jpg,AFNE20.jpg,AFSA10.jpg,AFNE07.jpg,FN,3,num_8,16,num_8,1.2668174142,,,2017_Nov_08_1046,60.0061780708,MAFE4ImagesEEG,001,102208,
AFNE01.JPG,AFNE01.JPG,AFNE01.JPG,AFNE01.JPG,AFNE01.JPG,AFNE01.JPG,,,,,5,0,50,8,,,,,,,,,,,,,,,,,,,AFSA12.jpg,AFNE17.jpg,AFSA13.jpg,AFNE02.jpg,AFSA13.jpg,FS,4,num_2,16,num_2,1.38340461766,,,2017_Nov_08_1046,60.0061780708,MAFE4ImagesEEG,001,102208,
AFNE01.JPG,AFNE01.JPG,AFNE01.JPG,AFNE01.JPG,AFNE01.JPG,AFNE01.JPG,,,,,5,1,51,1,,,,,,,,,,,,,,,,,,,AFNE15.jpg,AFNE20.jpg,AFSA18.jpg,AFSA15.jpg,AFNE20.jpg,FN,3,num_6,16,num_6,0.933319862233,,,2017_Nov_08_1046,60.0061780708,MAFE4ImagesEEG,001,102208,
AFNE01.JPG,AFNE01.JPG,AFNE01.JPG,AFNE01.JPG,AFNE01.JPG,AFNE01.JPG,,,,,5,2,52,3,,,,,,,,,,,,,,,,,,,AFSA04.jpg,AFNE08.jpg,AFNE18.jpg,AFSA02.jpg,AFSA02.jpg,FS,4,num_4,32,num_8,1.35012051789,,,2017_Nov_08_1046,60.0061780708,MAFE4ImagesEEG,001,102208,
AFNE01.JPG,AFNE01.JPG,AFNE01.JPG,AFNE01.JPG,AFNE01.JPG,AFNE01.JPG,,,,,5,3,53,2,,,,,,,,,,,,,,,,,,,AFNE14.jpg,AFSA05.jpg,AFNE08.jpg,AFSA08.jpg,AFNE14.jpg,FN,3,num_8,16,num_8,1.13344559213,,,2017_Nov_08_1046,60.0061780708,MAFE4ImagesEEG,001,102208,
AFNE01.JPG,AFNE01.JPG,AFNE01.JPG,AFNE01.JPG,AFNE01.JPG,AFNE01.JPG,,,,,5,4,54,7,,,,,,,,,,,,,,,,,,,AFSA03.jpg,AFNE08.jpg,AFSA15.jpg,AFNE02.jpg,AFSA15.jpg,FS,4,num_2,32,num_8,2.25006903918,,,2017_Nov_08_1046,60.0061780708,MAFE4ImagesEEG,001,102208,
AFNE01.JPG,AFNE01.JPG,AFNE01.JPG,AFNE01.JPG,AFNE01.JPG,AFNE01.JPG,,,,,5,5,55,9,,,,,,,,,,,,,,,,,,,AFNE09.jpg,AFSA07.jpg,AFNE18.jpg,AFSA03.jpg,AFNE18.jpg,FN,3,num_2,32,num_6,1.70004378096,,,2017_Nov_08_1046,60.0061780708,MAFE4ImagesEEG,001,102208,
AFNE01.JPG,AFNE01.JPG,AFNE01.JPG,AFNE01.JPG,AFNE01.JPG,AFNE01.JPG,,,,,5,6,56,6,,,,,,,,,,,,,,,,,,,AFSA12.jpg,AFSA18.jpg,AFNE05.jpg,AFNE10.jpg,AFSA12.jpg,FS,4,num_8,32,num_4,1.26673883316,,,2017_Nov_08_1046,60.0061780708,MAFE4ImagesEEG,001,102208,
AFNE01.JPG,AFNE01.JPG,AFNE01.JPG,AFNE01.JPG,AFNE01.JPG,AFNE01.JPG,,,,,5,7,57,0,,,,,,,,,,,,,,,,,,,AFSA06.jpg,AFSA09.jpg,AFNE20.jpg,AFNE03.jpg,AFNE03.jpg,FN,3,num_4,32,num_8,1.13346419507,,,2017_Nov_08_1046,60.0061780708,MAFE4ImagesEEG,001,102208,
AFNE01.JPG,AFNE01.JPG,AFNE01.JPG,AFNE01.JPG,AFNE01.JPG,AFNE01.JPG,,,,,5,8,58,5,,,,,,,,,,,,,,,,,,,AFSA18.jpg,AFSA20.jpg,AFNE13.jpg,AFNE05.jpg,AFSA18.jpg,FS,4,num_8,32,num_6,1.55003359751,,,2017_Nov_08_1046,60.0061780708,MAFE4ImagesEEG,001,102208,
AFNE01.JPG,AFNE01.JPG,AFNE01.JPG,AFNE01.JPG,AFNE01.JPG,AFNE01.JPG,,,,,5,9,59,4,,,,,,,,,,,,,,,,,,,AFSA13.jpg,AFNE11.jpg,AFNE12.jpg,AFSA03.jpg,AFSA13.jpg,FS,4,num_8,16,num_8,1.00013920083,,,2017_Nov_08_1046,60.0061780708,MAFE4ImagesEEG,001,102208,
,,,,,,,,,,,,,,,,,,,,,,,,,,,,,,,,,,,,,,,,,,,space,21.0155350175,2017_Nov_08_1046,60.0061780708,MAFE4ImagesEEG,001,102208,
AFNE01.JPG,AFNE01.JPG,AFNE01.JPG,AFNE01.JPG,AFNE01.JPG,AFNE01.JPG,,,,,,,,,0,0,0,4,,,,,,,,,,,,,,,AMNE10.jpg,AMSA12.jpg,AMNE02.jpg,AMSA01.jpg,AMSA12.jpg,MS,2,num_6,32,num_4,1.51665904908,,,2017_Nov_08_1046,60.0061780708,MAFE4ImagesEEG,001,102208,
AFNE01.JPG,AFNE01.JPG,AFNE01.JPG,AFNE01.JPG,AFNE01.JPG,AFNE01.JPG,,,,,,,,,0,1,1,6,,,,,,,,,,,,,,,AMSA16.jpg,AMNE06.jpg,AMNE16.jpg,AMSA15.jpg,AMNE06.jpg,MN,1,num_6,16,num_6,0.816800014116,,,2017_Nov_08_1046,60.0061780708,MAFE4ImagesEEG,001,102208,
AFNE01.JPG,AFNE01.JPG,AFNE01.JPG,AFNE01.JPG,AFNE01.JPG,AFNE01.JPG,,,,,,,,,0,2,2,2,,,,,,,,,,,,,,,AMSA11.jpg,AMNE11.jpg,AMSA13.jpg,AMNE01.jpg,AMSA13.jpg,MS,2,num_2,32,num_8,0.800145615591,,,2017_Nov_08_1046,60.0061780708,MAFE4ImagesEEG,001,102208,
AFNE01.JPG,AFNE01.JPG,AFNE01.JPG,AFNE01.JPG,AFNE01.JPG,AFNE01.JPG,,,,,,,,,0,3,3,8,,,,,,,,,,,,,,,AMNE07.jpg,AMSA09.jpg,AMNE14.jpg,AMSA08.jpg,AMNE14.jpg,MN,1,num_2,16,num_2,0.85014313017,,,2017_Nov_08_1046,60.0061780708,MAFE4ImagesEEG,001,102208,
AFNE01.JPG,AFNE01.JPG,AFNE01.JPG,AFNE01.JPG,AFNE01.JPG,AFNE01.JPG,,,,,,,,,0,4,4,0,,,,,,,,,,,,,,,AMNE03.jpg,AMSA11.jpg,AMNE11.jpg,AMSA08.jpg,AMSA08.jpg,MS,2,num_4,16,num_4,1.15010768827,,,2017_Nov_08_1046,60.0061780708,MAFE4ImagesEEG,001,102208,
AFNE01.JPG,AFNE01.JPG,AFNE01.JPG,AFNE01.JPG,AFNE01.JPG,AFNE01.JPG,,,,,,,,,0,5,5,3,,,,,,,,,,,,,,,AMSA14.jpg,AMNE20.jpg,AMNE19.jpg,AMSA11.jpg,AMSA14.jpg,MS,2,num_8,32,num_2,1.08343332377,,,2017_Nov_08_1046,60.0061780708,MAFE4ImagesEEG,001,102208,
AFNE01.JPG,AFNE01.JPG,AFNE01.JPG,AFNE01.JPG,AFNE01.JPG,AFNE01.JPG,,,,,,,,,0,6,6,7,,,,,,,,,,,,,,,AMNE06.jpg,AMSA20.jpg,AMNE18.jpg,AMSA06.jpg,AMSA06.jpg,MS,2,num_4,32,num_8,0.816744205309,,,2017_Nov_08_1046,60.0061780708,MAFE4ImagesEEG,001,102208,
AFNE01.JPG,AFNE01.JPG,AFNE01.JPG,AFNE01.JPG,AFNE01.JPG,AFNE01.JPG,,,,,,,,,0,7,7,5,,,,,,,,,,,,,,,AMSA06.jpg,AMSA05.jpg,AMNE19.jpg,AMNE11.jpg,AMNE19.jpg,MN,1,num_2,16,num_2,1.2000987879,,,2017_Nov_08_1046,60.0061780708,MAFE4ImagesEEG,001,102208,
AFNE01.JPG,AFNE01.JPG,AFNE01.JPG,AFNE01.JPG,AFNE01.JPG,AFNE01.JPG,,,,,,,,,0,8,8,9,,,,,,,,,,,,,,,AMSA12.jpg,AMNE06.jpg,AMSA18.jpg,AMNE12.jpg,AMNE12.jpg,MN,1,num_4,16,num_4,1.13343404559,,,2017_Nov_08_1046,60.0061780708,MAFE4ImagesEEG,001,102208,
AFNE01.JPG,AFNE01.JPG,AFNE01.JPG,AFNE01.JPG,AFNE01.JPG,AFNE01.JPG,,,,,,,,,0,9,9,1,,,,,,,,,,,,,,,AMSA08.jpg,AMSA14.jpg,AMNE06.jpg,AMNE10.jpg,AMNE10.jpg,MN,1,num_4,32,num_8,1.21679648617,,,2017_Nov_08_1046,60.0061780708,MAFE4ImagesEEG,001,102208,
AFNE01.JPG,AFNE01.JPG,AFNE01.JPG,AFNE01.JPG,AFNE01.JPG,AFNE01.JPG,,,,,,,,,1,0,10,9,,,,,,,,,,,,,,,AMNE09.jpg,AMSA19.jpg,AMSA18.jpg,AMNE20.jpg,AMNE20.jpg,MN,1,num_4,32,num_8,0.883496188791,,,2017_Nov_08_1046,60.0061780708,MAFE4ImagesEEG,001,102208,
AFNE01.JPG,AFNE01.JPG,AFNE01.JPG,AFNE01.JPG,AFNE01.JPG,AFNE01.JPG,,,,,,,,,1,1,11,7,,,,,,,,,,,,,,,AMSA20.jpg,AMNE15.jpg,AMSA17.jpg,AMNE03.jpg,AMNE15.jpg,MN,1,num_6,16,num_6,1.56671333429,,,2017_Nov_08_1046,60.0061780708,MAFE4ImagesEEG,001,102208,
AFNE01.JPG,AFNE01.JPG,AFNE01.JPG,AFNE01.JPG,AFNE01.JPG,AFNE01.JPG,,,,,,,,,1,2,12,3,,,,,,,,,,,,,,,AMSA12.jpg,AMSA01.jpg,AMNE04.jpg,AMNE01.jpg,AMSA01.jpg,MS,2,num_6,32,num_4,1.41669513239,,,2017_Nov_08_1046,60.0061780708,MAFE4ImagesEEG,001,102208,
AFNE01.JPG,AFNE01.JPG,AFNE01.JPG,AFNE01.JPG,AFNE01.JPG,AFNE01.JPG,,,,,,,,,1,3,13,0,,,,,,,,,,,,,,,AMSA10.jpg,AMNE02.jpg,AMSA03.jpg,AMNE05.jpg,AMNE05.jpg,MN,1,num_4,32,num_8,1.0667571153,,,2017_Nov_08_1046,60.0061780708,MAFE4ImagesEEG,001,102208,
AFNE01.JPG,AFNE01.JPG,AFNE01.JPG,AFNE01.JPG,AFNE01.JPG,AFNE01.JPG,,,,,,,,,1,4,14,5,,,,,,,,,,,,,,,AMSA02.jpg,AMNE06.jpg,AMSA17.jpg,AMNE16.jpg,AMNE16.jpg,MN,1,num_4,32,num_6,1.66677475604,,,2017_Nov_08_1046,60.0061780708,MAFE4ImagesEEG,001,102208,
AFNE01.JPG,AFNE01.JPG,AFNE01.JPG,AFNE01.JPG,AFNE01.JPG,AFNE01.JPG,,,,,,,,,1,5,15,4,,,,,,,,,,,,,,,AMSA09.jpg,AMNE08.jpg,AMNE07.jpg,AMSA07.jpg,AMNE08.jpg,MN,1,num_6,16,num_6,1.08350260369,,,2017_Nov_08_1046,60.0061780708,MAFE4ImagesEEG,001,102208,
AFNE01.JPG,AFNE01.JPG,AFNE01.JPG,AFNE01.JPG,AFNE01.JPG,AFNE01.JPG,,,,,,,,,1,6,16,2,,,,,,,,,,,,,,,AMNE16.jpg,AMSA15.jpg,AMSA04.jpg,AMNE11.jpg,AMNE11.jpg,MN,1,num_4,16,num_4,1.35009197216,,,2017_Nov_08_1046,60.0061780708,MAFE4ImagesEEG,001,102208,
AFNE01.JPG,AFNE01.JPG,AFNE01.JPG,AFNE01.JPG,AFNE01.JPG,AFNE01.JPG,,,,,,,,,1,7,17,6,,,,,,,,,,,,,,,AMSA12.jpg,AMNE10.jpg,AMSA05.jpg,AMNE12.jpg,AMSA12.jpg,MS,2,num_8,16,num_8,1.20009429753,,,2017_Nov_08_1046,60.0061780708,MAFE4ImagesEEG,001,102208,
AFNE01.JPG,AFNE01.JPG,AFNE01.JPG,AFNE01.JPG,AFNE01.JPG,AFNE01.JPG,,,,,,,,,1,8,18,8,,,,,,,,,,,,,,,AMNE02.jpg,AMSA18.jpg,AMNE05.jpg,AMSA03.jpg,AMNE02.jpg,MN,1,num_8,32,num_2,1.1001874723,,,2017_Nov_08_1046,60.0061780708,MAFE4ImagesEEG,001,102208,
AFNE01.JPG,AFNE01.JPG,AFNE01.JPG,AFNE01.JPG,AFNE01.JPG,AFNE01.JPG,,,,,,,,,1,9,19,1,,,,,,,,,,,,,,,AMNE01.jpg,AMSA16.jpg,AMNE10.jpg,AMSA08.jpg,AMNE10.jpg,MN,1,num_2,32,num_4,1.43349931599,,,2017_Nov_08_1046,60.0061780708,MAFE4ImagesEEG,001,102208,
AFNE01.JPG,AFNE01.JPG,AFNE01.JPG,AFNE01.JPG,AFNE01.JPG,AFNE01.JPG,,,,,,,,,2,0,20,9,,,,,,,,,,,,,,,AMNE04.jpg,AMNE12.jpg,AMSA04.jpg,AMSA16.jpg,AMNE12.jpg,MN,1,num_6,32,num_8,2.06672439957,,,2017_Nov_08_1046,60.0061780708,MAFE4ImagesEEG,001,102208,
AFNE01.JPG,AFNE01.JPG,AFNE01.JPG,AFNE01.JPG,AFNE01.JPG,AFNE01.JPG,,,,,,,,,2,1,21,3,,,,,,,,,,,,,,,AMNE11.jpg,AMSA07.jpg,AMSA20.jpg,AMNE05.jpg,AMSA07.jpg,MS,2,num_6,16,num_6,0.55017087399,,,2017_Nov_08_1046,60.0061780708,MAFE4ImagesEEG,001,102208,
AFNE01.JPG,AFNE01.JPG,AFNE01.JPG,AFNE01.JPG,AFNE01.JPG,AFNE01.JPG,,,,,,,,,2,2,22,0,,,,,,,,,,,,,,,AMNE20.jpg,AMSA09.jpg,AMNE04.jpg,AMSA13.jpg,AMNE20.jpg,MN,1,num_8,16,num_8,0.750207758974,,,2017_Nov_08_1046,60.0061780708,MAFE4ImagesEEG,001,102208,
AFNE01.JPG,AFNE01.JPG,AFNE01.JPG,AFNE01.JPG,AFNE01.JPG,AFNE01.JPG,,,,,,,,,2,3,23,5,,,,,,,,,,,,,,,AMNE20.jpg,AMSA12.jpg,AMSA01.jpg,AMNE16.jpg,AMSA01.jpg,MS,2,num_2,16,num_2,0.566458667163,,,2017_Nov_08_1046,60.0061780708,MAFE4ImagesEEG,001,102208,
AFNE01.JPG,AFNE01.JPG,AFNE01.JPG,AFNE01.JPG,AFNE01.JPG,AFNE01.JPG,,,,,,,,,2,4,24,8,,,,,,,,,,,,,,,AMNE13.jpg,AMSA18.jpg,AMSA10.jpg,AMNE19.jpg,AMNE19.jpg,MN,1,num_4,16,num_4,0.766780048143,,,2017_Nov_08_1046,60.0061780708,MAFE4ImagesEEG,001,102208,
AFNE01.JPG,AFNE01.JPG,AFNE01.JPG,AFNE01.JPG,AFNE01.JPG,AFNE01.JPG,,,,,,,,,2,5,25,6,,,,,,,,,,,,,,,AMSA10.jpg,AMNE03.jpg,AMNE18.jpg,AMSA14.jpg,AMNE18.jpg,MN,1,num_2,32,num_8,1.28348111408,,,2017_Nov_08_1046,60.0061780708,MAFE4ImagesEEG,001,102208,
AFNE01.JPG,AFNE01.JPG,AFNE01.JPG,AFNE01.JPG,AFNE01.JPG,AFNE01.JPG,,,,,,,,,2,6,26,7,,,,,,,,,,,,,,,AMSA08.jpg,AMSA10.jpg,AMNE19.jpg,AMNE14.jpg,AMNE14.jpg,MN,1,num_4,16,num_4,0.733447195729,,,2017_Nov_08_1046,60.0061780708,MAFE4ImagesEEG,001,102208,
AFNE01.JPG,AFNE01.JPG,AFNE01.JPG,AFNE01.JPG,AFNE01.JPG,AFNE01.JPG,,,,,,,,,2,7,27,1,,,,,,,,,,,,,,,AMNE18.jpg,AMNE05.jpg,AMSA09.jpg,AMSA16.jpg,AMSA16.jpg,MS,2,num_4,32,num_8,1.08306703926,,,2017_Nov_08_1046,60.0061780708,MAFE4ImagesEEG,001,102208,
AFNE01.JPG,AFNE01.JPG,AFNE01.JPG,AFNE01.JPG,AFNE01.JPG,AFNE01.JPG,,,,,,,,,2,8,28,2,,,,,,,,,,,,,,,AMSA16.jpg,AMNE13.jpg,AMSA18.jpg,AMNE19.jpg,AMNE13.jpg,MN,1,num_6,16,num_6,0.933497551829,,,2017_Nov_08_1046,60.0061780708,MAFE4ImagesEEG,001,102208,
AFNE01.JPG,AFNE01.JPG,AFNE01.JPG,AFNE01.JPG,AFNE01.JPG,AFNE01.JPG,,,,,,,,,2,9,29,4,,,,,,,,,,,,,,,AMSA13.jpg,AMNE08.jpg,AMSA16.jpg,AMNE02.jpg,AMSA13.jpg,MS,2,num_8,32,num_4,1.11726941634,,,2017_Nov_08_1046,60.0061780708,MAFE4ImagesEEG,001,102208,
AFNE01.JPG,AFNE01.JPG,AFNE01.JPG,AFNE01.JPG,AFNE01.JPG,AFNE01.JPG,,,,,,,,,3,0,30,1,,,,,,,,,,,,,,,AMNE04.jpg,AMSA07.jpg,AMNE11.jpg,AMSA20.jpg,AMNE11.jpg,MN,1,num_2,32,num_8,1.11678285454,,,2017_Nov_08_1046,60.0061780708,MAFE4ImagesEEG,001,102208,
AFNE01.JPG,AFNE01.JPG,AFNE01.JPG,AFNE01.JPG,AFNE01.JPG,AFNE01.JPG,,,,,,,,,3,1,31,7,,,,,,,,,,,,,,,AMNE18.jpg,AMNE03.jpg,AMSA16.jpg,AMSA20.jpg,AMNE18.jpg,MN,1,num_8,32,num_4,1.20011642831,,,2017_Nov_08_1046,60.0061780708,MAFE4ImagesEEG,001,102208,
AFNE01.JPG,AFNE01.JPG,AFNE01.JPG,AFNE01.JPG,AFNE01.JPG,AFNE01.JPG,,,,,,,,,3,2,32,6,,,,,,,,,,,,,,,AMNE02.jpg,AMSA19.jpg,AMSA16.jpg,AMNE15.jpg,AMSA19.jpg,MS,2,num_6,16,num_6,0.983464596095,,,2017_Nov_08_1046,60.0061780708,MAFE4ImagesEEG,001,102208,
AFNE01.JPG,AFNE01.JPG,AFNE01.JPG,AFNE01.JPG,AFNE01.JPG,AFNE01.JPG,,,,,,,,,3,3,33,4,,,,,,,,,,,,,,,AMSA20.jpg,AMNE17.jpg,AMSA17.jpg,AMNE19.jpg,AMSA20.jpg,MS,2,num_8,16,num_8,0.600209122058,,,2017_Nov_08_1046,60.0061780708,MAFE4ImagesEEG,001,102208,
AFNE01.JPG,AFNE01.JPG,AFNE01.JPG,AFNE01.JPG,AFNE01.JPG,AFNE01.JPG,,,,,,,,,3,4,34,2,,,,,,,,,,,,,,,AMSA13.jpg,AMNE19.jpg,AMNE13.jpg,AMSA18.jpg,AMNE13.jpg,MN,1,num_2,32,num_6,1.16675118147,,,2017_Nov_08_1046,60.0061780708,MAFE4ImagesEEG,001,102208,
AFNE01.JPG,AFNE01.JPG,AFNE01.JPG,AFNE01.JPG,AFNE01.JPG,AFNE01.JPG,,,,,,,,,3,5,35,9,,,,,,,,,,,,,,,AMNE07.jpg,AMSA08.jpg,AMSA16.jpg,AMNE16.jpg,AMSA08.jpg,MS,2,num_6,16,num_6,0.800143691245,,,2017_Nov_08_1046,60.0061780708,MAFE4ImagesEEG,001,102208,
AFNE01.JPG,AFNE01.JPG,AFNE01.JPG,AFNE01.JPG,AFNE01.JPG,AFNE01.JPG,,,,,,,,,3,6,36,8,,,,,,,,,,,,,,,AMNE13.jpg,AMSA07.jpg,AMSA17.jpg,AMNE12.jpg,AMNE12.jpg,MN,1,num_4,32,num_8,1.05010720715,,,2017_Nov_08_1046,60.0061780708,MAFE4ImagesEEG,001,102208,
AFNE01.JPG,AFNE01.JPG,AFNE01.JPG,AFNE01.JPG,AFNE01.JPG,AFNE01.JPG,,,,,,,,,3,7,37,0,,,,,,,,,,,,,,,AMNE02.jpg,AMSA07.jpg,AMSA11.jpg,AMNE14.jpg,AMNE02.jpg,MN,1,num_8,16,num_8,0.983454011614,,,2017_Nov_08_1046,60.0061780708,MAFE4ImagesEEG,001,102208,
AFNE01.JPG,AFNE01.JPG,AFNE01.JPG,AFNE01.JPG,AFNE01.JPG,AFNE01.JPG,,,,,,,,,3,8,38,5,,,,,,,,,,,,,,,AMSA13.jpg,AMSA20.jpg,AMNE12.jpg,AMNE14.jpg,AMSA13.jpg,MS,2,num_8,32,num_6,1.10008451482,,,2017_Nov_08_1046,60.0061780708,MAFE4ImagesEEG,001,102208,
AFNE01.JPG,AFNE01.JPG,AFNE01.JPG,AFNE01.JPG,AFNE01.JPG,AFNE01.JPG,,,,,,,,,3,9,39,3,,,,,,,,,,,,,,,AMSA09.jpg,AMNE08.jpg,AMSA04.jpg,AMNE09.jpg,AMNE08.jpg,MN,1,num_6,32,num_8,1.36674604961,,,2017_Nov_08_1046,60.0061780708,MAFE4ImagesEEG,001,102208,
AFNE01.JPG,AFNE01.JPG,AFNE01.JPG,AFNE01.JPG,AFNE01.JPG,AFNE01.JPG,,,,,,,,,4,0,40,3,,,,,,,,,,,,,,,AMNE20.jpg,AMSA06.jpg,AMNE08.jpg,AMSA05.jpg,AMSA05.jpg,MS,2,num_4,16,num_4,0.900190038141,,,2017_Nov_08_1046,60.0061780708,MAFE4ImagesEEG,001,102208,
AFNE01.JPG,AFNE01.JPG,AFNE01.JPG,AFNE01.JPG,AFNE01.JPG,AFNE01.JPG,,,,,,,,,4,1,41,9,,,,,,,,,,,,,,,AMNE09.jpg,AMNE02.jpg,AMSA03.jpg,AMSA09.jpg,AMSA03.jpg,MS,2,num_2,32,num_4,0.966802499956,,,2017_Nov_08_1046,60.0061780708,MAFE4ImagesEEG,001,102208,
AFNE01.JPG,AFNE01.JPG,AFNE01.JPG,AFNE01.JPG,AFNE01.JPG,AFNE01.JPG,,,,,,,,,4,2,42,5,,,,,,,,,,,,,,,AMNE13.jpg,AMSA04.jpg,AMSA18.jpg,AMNE07.jpg,AMNE07.jpg,MN,1,num_4,16,num_4,0.916757195489,,,2017_Nov_08_1046,60.0061780708,MAFE4ImagesEEG,001,102208,
AFNE01.JPG,AFNE01.JPG,AFNE01.JPG,AFNE01.JPG,AFNE01.JPG,AFNE01.JPG,,,,,,,,,4,3,43,4,,,,,,,,,,,,,,,AMSA04.jpg,AMNE15.jpg,AMSA16.jpg,AMNE02.jpg,AMSA16.jpg,MS,2,num_2,32,num_8,1.58345625666,,,2017_Nov_08_1046,60.0061780708,MAFE4ImagesEEG,001,102208,
AFNE01.JPG,AFNE01.JPG,AFNE01.JPG,AFNE01.JPG,AFNE01.JPG,AFNE01.JPG,,,,,,,,,4,4,44,6,,,,,,,,,,,,,,,AMNE19.jpg,AMSA18.jpg,AMNE10.jpg,AMSA06.jpg,AMNE10.jpg,MN,1,num_2,32,num_8,0.900136795361,,,2017_Nov_08_1046,60.0061780708,MAFE4ImagesEEG,001,102208,
AFNE01.JPG,AFNE01.JPG,AFNE01.JPG,AFNE01.JPG,AFNE01.JPG,AFNE01.JPG,,,,,,,,,4,5,45,7,,,,,,,,,,,,,,,AMSA03.jpg,AMSA09.jpg,AMNE16.jpg,AMNE03.jpg,AMSA09.jpg,MS,2,num_6,16,num_6,0.816786543,,,2017_Nov_08_1046,60.0061780708,MAFE4ImagesEEG,001,102208,
AFNE01.JPG,AFNE01.JPG,AFNE01.JPG,AFNE01.JPG,AFNE01.JPG,AFNE01.JPG,,,,,,,,,4,6,46,0,,,,,,,,,,,,,,,AMNE15.jpg,AMNE16.jpg,AMSA01.jpg,AMSA13.jpg,AMSA13.jpg,MS,2,num_4,32,num_2,0.916605806444,,,2017_Nov_08_1046,60.0061780708,MAFE4ImagesEEG,001,102208,
AFNE01.JPG,AFNE01.JPG,AFNE01.JPG,AFNE01.JPG,AFNE01.JPG,AFNE01.JPG,,,,,,,,,4,7,47,2,,,,,,,,,,,,,,,AMSA09.jpg,AMNE03.jpg,AMSA07.jpg,AMNE15.jpg,AMSA09.jpg,MS,2,num_8,16,num_8,1.30004859203,,,2017_Nov_08_1046,60.0061780708,MAFE4ImagesEEG,001,102208,
AFNE01.JPG,AFNE01.JPG,AFNE01.JPG,AFNE01.JPG,AFNE01.JPG,AFNE01.JPG,,,,,,,,,4,8,48,8,,,,,,,,,,,,,,,AMNE05.jpg,AMNE18.jpg,AMSA09.jpg,AMSA08.jpg,AMNE05.jpg,MN,1,num_8,16,num_8,1.0834615489,,,2017_Nov_08_1046,60.0061780708,MAFE4ImagesEEG,001,102208,
AFNE01.JPG,AFNE01.JPG,AFNE01.JPG,AFNE01.JPG,AFNE01.JPG,AFNE01.JPG,,,,,,,,,4,9,49,1,,,,,,,,,,,,,,,AMSA06.jpg,AMSA09.jpg,AMNE12.jpg,AMNE20.jpg,AMNE12.jpg,MN,1,num_2,32,num_8,1.50008868449,,,2017_Nov_08_1046,60.0061780708,MAFE4ImagesEEG,001,102208,
AFNE01.JPG,AFNE01.JPG,AFNE01.JPG,AFNE01.JPG,AFNE01.JPG,AFNE01.JPG,,,,,,,,,5,0,50,8,,,,,,,,,,,,,,,AMNE11.jpg,AMSA12.jpg,AMNE03.jpg,AMSA03.jpg,AMSA12.jpg,MS,2,num_6,16,num_6,1.48343813489,,,2017_Nov_08_1046,60.0061780708,MAFE4ImagesEEG,001,102208,
AFNE01.JPG,AFNE01.JPG,AFNE01.JPG,AFNE01.JPG,AFNE01.JPG,AFNE01.JPG,,,,,,,,,5,1,51,9,,,,,,,,,,,,,,,AMNE15.jpg,AMSA14.jpg,AMNE01.jpg,AMSA10.jpg,AMNE01.jpg,MN,1,num_2,16,num_2,1.26672247541,,,2017_Nov_08_1046,60.0061780708,MAFE4ImagesEEG,001,102208,
AFNE01.JPG,AFNE01.JPG,AFNE01.JPG,AFNE01.JPG,AFNE01.JPG,AFNE01.JPG,,,,,,,,,5,2,52,5,,,,,,,,,,,,,,,AMNE05.jpg,AMSA15.jpg,AMSA10.jpg,AMNE01.jpg,AMNE01.jpg,MN,1,num_4,16,num_4,0.433540370781,,,2017_Nov_08_1046,60.0061780708,MAFE4ImagesEEG,001,102208,
AFNE01.JPG,AFNE01.JPG,AFNE01.JPG,AFNE01.JPG,AFNE01.JPG,AFNE01.JPG,,,,,,,,,5,3,53,2,,,,,,,,,,,,,,,AMNE20.jpg,AMNE04.jpg,AMSA03.jpg,AMSA14.jpg,AMNE20.jpg,MN,1,num_8,16,num_8,0.566822064808,,,2017_Nov_08_1046,60.0061780708,MAFE4ImagesEEG,001,102208,
AFNE01.JPG,AFNE01.JPG,AFNE01.JPG,AFNE01.JPG,AFNE01.JPG,AFNE01.JPG,,,,,,,,,5,4,54,4,,,,,,,,,,,,,,,AMNE18.jpg,AMNE08.jpg,AMSA02.jpg,AMSA08.jpg,AMNE18.jpg,MN,1,num_8,16,num_8,0.983457218856,,,2017_Nov_08_1046,60.0061780708,MAFE4ImagesEEG,001,102208,
AFNE01.JPG,AFNE01.JPG,AFNE01.JPG,AFNE01.JPG,AFNE01.JPG,AFNE01.JPG,,,,,,,,,5,5,55,6,,,,,,,,,,,,,,,AMSA18.jpg,AMNE10.jpg,AMNE14.jpg,AMSA04.jpg,AMSA04.jpg,MS,2,num_4,16,num_4,1.08344422909,,,2017_Nov_08_1046,60.0061780708,MAFE4ImagesEEG,001,102208,
AFNE01.JPG,AFNE01.JPG,AFNE01.JPG,AFNE01.JPG,AFNE01.JPG,AFNE01.JPG,,,,,,,,,5,6,56,3,,,,,,,,,,,,,,,AMSA06.jpg,AMNE04.jpg,AMNE15.jpg,AMSA05.jpg,AMNE15.jpg,MN,1,num_2,16,num_2,1.10012107925,,,2017_Nov_08_1046,60.0061780708,MAFE4ImagesEEG,001,102208,
AFNE01.JPG,AFNE01.JPG,AFNE01.JPG,AFNE01.JPG,AFNE01.JPG,AFNE01.JPG,,,,,,,,,5,7,57,7,,,,,,,,,,,,,,,AMSA12.jpg,AMNE11.jpg,AMSA10.jpg,AMNE05.jpg,AMNE11.jpg,MN,1,num_6,32,num_8,1.06677668053,,,2017_Nov_08_1046,60.0061780708,MAFE4ImagesEEG,001,102208,
AFNE01.JPG,AFNE01.JPG,AFNE01.JPG,AFNE01.JPG,AFNE01.JPG,AFNE01.JPG,,,,,,,,,5,8,58,1,,,,,,,,,,,,,,,AMSA08.jpg,AMNE19.jpg,AMNE17.jpg,AMSA14.jpg,AMNE17.jpg,MN,1,num_2,16,num_2,1.21674773353,,,2017_Nov_08_1046,60.0061780708,MAFE4ImagesEEG,001,102208,
AFNE01.JPG,AFNE01.JPG,AFNE01.JPG,AFNE01.JPG,AFNE01.JPG,AFNE01.JPG,,,,,,,,,5,9,59,0,,,,,,,,,,,,,,,AMNE15.jpg,AMSA18.jpg,AMSA16.jpg,AMNE04.jpg,AMNE15.jpg,MN,1,num_8,16,num_8,0.716780930059,,,2017_Nov_08_1046,60.0061780708,MAFE4ImagesEEG,001,102208,
,,,,,,,,,,,,,,,,,,,,,,,,,,,,,,,,,,,,,,,,,,,space,22.148775978,2017_Nov_08_1046,60.0061780708,MAFE4ImagesEEG,001,102208,
AFNE01.JPG,AFNE01.JPG,AFNE01.JPG,AFNE01.JPG,AFNE01.JPG,AFNE01.JPG,,,,,,,,,,,,,0,0,0,6,,,,,,,,,,,AFSA08.jpg,AFNE15.jpg,AFNE13.jpg,AFSA05.jpg,AFNE15.jpg,FN,3,num_6,32,num_8,1.68345385115,,,2017_Nov_08_1046,60.0061780708,MAFE4ImagesEEG,001,102208,
AFNE01.JPG,AFNE01.JPG,AFNE01.JPG,AFNE01.JPG,AFNE01.JPG,AFNE01.JPG,,,,,,,,,,,,,0,1,1,2,,,,,,,,,,,AFSA13.jpg,AFNE14.jpg,AFNE10.jpg,AFSA08.jpg,AFNE14.jpg,FN,3,num_6,32,num_8,1.25011843303,,,2017_Nov_08_1046,60.0061780708,MAFE4ImagesEEG,001,102208,
AFNE01.JPG,AFNE01.JPG,AFNE01.JPG,AFNE01.JPG,AFNE01.JPG,AFNE01.JPG,,,,,,,,,,,,,0,2,2,8,,,,,,,,,,,AFSA09.jpg,AFNE15.jpg,AFNE02.jpg,AFSA10.jpg,AFNE02.jpg,FN,3,num_2,16,num_2,0.68351607467,,,2017_Nov_08_1046,60.0061780708,MAFE4ImagesEEG,001,102208,
AFNE01.JPG,AFNE01.JPG,AFNE01.JPG,AFNE01.JPG,AFNE01.JPG,AFNE01.JPG,,,,,,,,,,,,,0,3,3,9,,,,,,,,,,,AFSA12.jpg,AFNE13.jpg,AFNE19.jpg,AFSA11.jpg,AFSA11.jpg,FS,4,num_4,16,num_4,1.01674099802,,,2017_Nov_08_1046,60.0061780708,MAFE4ImagesEEG,001,102208,
AFNE01.JPG,AFNE01.JPG,AFNE01.JPG,AFNE01.JPG,AFNE01.JPG,AFNE01.JPG,,,,,,,,,,,,,0,4,4,5,,,,,,,,,,,AFSA06.jpg,AFSA12.jpg,AFNE08.jpg,AFNE18.jpg,AFSA06.jpg,FS,4,num_8,16,num_8,0.800133106997,,,2017_Nov_08_1046,60.0061780708,MAFE4ImagesEEG,001,102208,
AFNE01.JPG,AFNE01.JPG,AFNE01.JPG,AFNE01.JPG,AFNE01.JPG,AFNE01.JPG,,,,,,,,,,,,,0,5,5,1,,,,,,,,,,,AFNE01.jpg,AFSA12.jpg,AFNE19.jpg,AFSA10.jpg,AFSA12.jpg,FS,4,num_6,16,num_6,0.766777482349,,,2017_Nov_08_1046,60.0061780708,MAFE4ImagesEEG,001,102208,
AFNE01.JPG,AFNE01.JPG,AFNE01.JPG,AFNE01.JPG,AFNE01.JPG,AFNE01.JPG,,,,,,,,,,,,,0,6,6,0,,,,,,,,,,,AFSA07.jpg,AFNE08.jpg,AFNE11.jpg,AFSA09.jpg,AFSA07.jpg,FS,4,num_8,32,num_4,1.51673025335,,,2017_Nov_08_1046,60.0061780708,MAFE4ImagesEEG,001,102208,
AFNE01.JPG,AFNE01.JPG,AFNE01.JPG,AFNE01.JPG,AFNE01.JPG,AFNE01.JPG,,,,,,,,,,,,,0,7,7,7,,,,,,,,,,,AFSA08.jpg,AFNE18.jpg,AFNE17.jpg,AFSA01.jpg,AFNE17.jpg,FN,3,num_2,16,num_2,1.15011217864,,,2017_Nov_08_1046,60.0061780708,MAFE4ImagesEEG,001,102208,
AFNE01.JPG,AFNE01.JPG,AFNE01.JPG,AFNE01.JPG,AFNE01.JPG,AFNE01.JPG,,,,,,,,,,,,,0,8,8,4,,,,,,,,,,,AFNE12.jpg,AFSA02.jpg,AFSA10.jpg,AFNE07.jpg,AFNE12.jpg,FN,3,num_8,16,num_8,1.03348424123,,,2017_Nov_08_1046,60.0061780708,MAFE4ImagesEEG,001,102208,
AFNE01.JPG,AFNE01.JPG,AFNE01.JPG,AFNE01.JPG,AFNE01.JPG,AFNE01.JPG,,,,,,,,,,,,,0,9,9,3,,,,,,,,,,,AFNE14.jpg,AFSA19.jpg,AFSA08.jpg,AFNE08.jpg,AFNE08.jpg,FN,3,num_4,32,num_8,1.20012605074,,,2017_Nov_08_1046,60.0061780708,MAFE4ImagesEEG,001,102208,
AFNE01.JPG,AFNE01.JPG,AFNE01.JPG,AFNE01.JPG,AFNE01.JPG,AFNE01.JPG,,,,,,,,,,,,,1,0,10,9,,,,,,,,,,,AFSA14.jpg,AFNE20.jpg,AFSA11.jpg,AFNE04.jpg,AFNE04.jpg,FN,3,num_4,16,num_4,0.800134069053,,,2017_Nov_08_1046,60.0061780708,MAFE4ImagesEEG,001,102208,
AFNE01.JPG,AFNE01.JPG,AFNE01.JPG,AFNE01.JPG,AFNE01.JPG,AFNE01.JPG,,,,,,,,,,,,,1,1,11,5,,,,,,,,,,,AFNE13.jpg,AFNE20.jpg,AFSA16.jpg,AFSA20.jpg,AFSA16.jpg,FS,4,num_2,16,num_2,1.10012685251,,,2017_Nov_08_1046,60.0061780708,MAFE4ImagesEEG,001,102208,
AFNE01.JPG,AFNE01.JPG,AFNE01.JPG,AFNE01.JPG,AFNE01.JPG,AFNE01.JPG,,,,,,,,,,,,,1,2,12,7,,,,,,,,,,,AFNE18.jpg,AFNE14.jpg,AFSA16.jpg,AFSA11.jpg,AFSA11.jpg,FS,4,num_4,16,num_4,1.03347461903,,,2017_Nov_08_1046,60.0061780708,MAFE4ImagesEEG,001,102208,
AFNE01.JPG,AFNE01.JPG,AFNE01.JPG,AFNE01.JPG,AFNE01.JPG,AFNE01.JPG,,,,,,,,,,,,,1,3,13,8,,,,,,,,,,,AFSA01.jpg,AFSA06.jpg,AFNE07.jpg,AFNE14.jpg,AFNE07.jpg,FN,3,num_2,16,num_2,1.55012212135,,,2017_Nov_08_1046,60.0061780708,MAFE4ImagesEEG,001,102208,
AFNE01.JPG,AFNE01.JPG,AFNE01.JPG,AFNE01.JPG,AFNE01.JPG,AFNE01.JPG,,,,,,,,,,,,,1,4,14,2,,,,,,,,,,,AFSA06.jpg,AFSA12.jpg,AFNE08.jpg,AFNE03.jpg,AFNE03.jpg,FN,3,num_4,32,num_8,0.883481114171,,,2017_Nov_08_1046,60.0061780708,MAFE4ImagesEEG,001,102208,
AFNE01.JPG,AFNE01.JPG,AFNE01.JPG,AFNE01.JPG,AFNE01.JPG,AFNE01.JPG,,,,,,,,,,,,,1,5,15,0,,,,,,,,,,,AFSA09.jpg,AFNE18.jpg,AFSA02.jpg,AFNE13.jpg,AFSA02.jpg,FS,4,num_2,32,num_4,0.850154997315,,,2017_Nov_08_1046,60.0061780708,MAFE4ImagesEEG,001,102208,
AFNE01.JPG,AFNE01.JPG,AFNE01.JPG,AFNE01.JPG,AFNE01.JPG,AFNE01.JPG,,,,,,,,,,,,,1,6,16,4,,,,,,,,,,,AFSA05.jpg,AFSA18.jpg,AFNE10.jpg,AFNE17.jpg,AFNE17.jpg,FN,3,num_4,32,num_8,0.883230616571,,,2017_Nov_08_1046,60.0061780708,MAFE4ImagesEEG,001,102208,
AFNE01.JPG,AFNE01.JPG,AFNE01.JPG,AFNE01.JPG,AFNE01.JPG,AFNE01.JPG,,,,,,,,,,,,,1,7,17,6,,,,,,,,,,,AFNE10.jpg,AFSA05.jpg,AFNE18.jpg,AFSA06.jpg,AFNE10.jpg,FN,3,num_8,16,num_8,1.05017199647,,,2017_Nov_08_1046,60.0061780708,MAFE4ImagesEEG,001,102208,
AFNE01.JPG,AFNE01.JPG,AFNE01.JPG,AFNE01.JPG,AFNE01.JPG,AFNE01.JPG,,,,,,,,,,,,,1,8,18,3,,,,,,,,,,,AFNE18.jpg,AFSA13.jpg,AFNE15.jpg,AFSA14.jpg,AFNE18.jpg,FN,3,num_8,16,num_8,1.51674949774,,,2017_Nov_08_1046,60.0061780708,MAFE4ImagesEEG,001,102208,
AFNE01.JPG,AFNE01.JPG,AFNE01.JPG,AFNE01.JPG,AFNE01.JPG,AFNE01.JPG,,,,,,,,,,,,,1,9,19,1,,,,,,,,,,,AFSA13.jpg,AFSA16.jpg,AFNE05.jpg,AFNE16.jpg,AFNE16.jpg,FN,3,num_4,16,num_4,1.51696920418,,,2017_Nov_08_1046,60.0061780708,MAFE4ImagesEEG,001,102208,
AFNE01.JPG,AFNE01.JPG,AFNE01.JPG,AFNE01.JPG,AFNE01.JPG,AFNE01.JPG,,,,,,,,,,,,,2,0,20,3,,,,,,,,,,,AFNE17.jpg,AFNE07.jpg,AFSA02.jpg,AFSA05.jpg,AFNE17.jpg,FN,3,num_8,16,num_8,0.93348183576,,,2017_Nov_08_1046,60.0061780708,MAFE4ImagesEEG,001,102208,
AFNE01.JPG,AFNE01.JPG,AFNE01.JPG,AFNE01.JPG,AFNE01.JPG,AFNE01.JPG,,,,,,,,,,,,,2,1,21,9,,,,,,,,,,,AFNE03.jpg,AFSA05.jpg,AFNE01.jpg,AFSA02.jpg,AFNE03.jpg,FN,3,num_8,16,num_8,0.700152832316,,,2017_Nov_08_1046,60.0061780708,MAFE4ImagesEEG,001,102208,
AFNE01.JPG,AFNE01.JPG,AFNE01.JPG,AFNE01.JPG,AFNE01.JPG,AFNE01.JPG,,,,,,,,,,,,,2,2,22,0,,,,,,,,,,,AFSA09.jpg,AFNE08.jpg,AFSA14.jpg,AFNE19.jpg,AFSA09.jpg,FS,4,num_8,32,num_4,1.2833085563,,,2017_Nov_08_1046,60.0061780708,MAFE4ImagesEEG,001,102208,
AFNE01.JPG,AFNE01.JPG,AFNE01.JPG,AFNE01.JPG,AFNE01.JPG,AFNE01.JPG,,,,,,,,,,,,,2,3,23,5,,,,,,,,,,,AFSA02.jpg,AFNE10.jpg,AFNE06.jpg,AFSA04.jpg,AFNE10.jpg,FN,3,num_6,16,num_6,1.00010905159,,,2017_Nov_08_1046,60.0061780708,MAFE4ImagesEEG,001,102208,
AFNE01.JPG,AFNE01.JPG,AFNE01.JPG,AFNE01.JPG,AFNE01.JPG,AFNE01.JPG,,,,,,,,,,,,,2,4,24,2,,,,,,,,,,,AFSA11.jpg,AFSA08.jpg,AFNE03.jpg,AFNE20.jpg,AFSA08.jpg,FS,4,num_6,32,num_8,1.46670291037,,,2017_Nov_08_1046,60.0061780708,MAFE4ImagesEEG,001,102208,
AFNE01.JPG,AFNE01.JPG,AFNE01.JPG,AFNE01.JPG,AFNE01.JPG,AFNE01.JPG,,,,,,,,,,,,,2,5,25,7,,,,,,,,,,,AFNE18.jpg,AFNE15.jpg,AFSA16.jpg,AFSA07.jpg,AFSA07.jpg,FS,4,num_4,16,num_4,0.716810438083,,,2017_Nov_08_1046,60.0061780708,MAFE4ImagesEEG,001,102208,
AFNE01.JPG,AFNE01.JPG,AFNE01.JPG,AFNE01.JPG,AFNE01.JPG,AFNE01.JPG,,,,,,,,,,,,,2,6,26,6,,,,,,,,,,,AFSA14.jpg,AFSA16.jpg,AFNE14.jpg,AFNE09.jpg,AFNE09.jpg,FN,3,num_4,16,num_4,1.03350861743,,,2017_Nov_08_1046,60.0061780708,MAFE4ImagesEEG,001,102208,
AFNE01.JPG,AFNE01.JPG,AFNE01.JPG,AFNE01.JPG,AFNE01.JPG,AFNE01.JPG,,,,,,,,,,,,,2,7,27,4,,,,,,,,,,,AFNE10.jpg,AFSA17.jpg,AFNE12.jpg,AFSA13.jpg,AFSA13.jpg,FS,4,num_4,32,num_6,1.10013102205,,,2017_Nov_08_1046,60.0061780708,MAFE4ImagesEEG,001,102208,
AFNE01.JPG,AFNE01.JPG,AFNE01.JPG,AFNE01.JPG,AFNE01.JPG,AFNE01.JPG,,,,,,,,,,,,,2,8,28,1,,,,,,,,,,,AFSA11.jpg,AFSA15.jpg,AFNE12.jpg,AFNE11.jpg,AFSA15.jpg,FS,4,num_6,16,num_6,1.00014786096,,,2017_Nov_08_1046,60.0061780708,MAFE4ImagesEEG,001,102208,
AFNE01.JPG,AFNE01.JPG,AFNE01.JPG,AFNE01.JPG,AFNE01.JPG,AFNE01.JPG,,,,,,,,,,,,,2,9,29,8,,,,,,,,,,,AFSA15.jpg,AFNE15.jpg,AFNE18.jpg,AFSA08.jpg,AFNE15.jpg,FN,3,num_6,16,num_6,0.850138318725,,,2017_Nov_08_1046,60.0061780708,MAFE4ImagesEEG,001,102208,
AFNE01.JPG,AFNE01.JPG,AFNE01.JPG,AFNE01.JPG,AFNE01.JPG,AFNE01.JPG,,,,,,,,,,,,,3,0,30,2,,,,,,,,,,,AFSA13.jpg,AFNE17.jpg,AFNE12.jpg,AFSA20.jpg,AFSA13.jpg,FS,4,num_8,16,num_8,0.88348560431,,,2017_Nov_08_1046,60.0061780708,MAFE4ImagesEEG,001,102208,
AFNE01.JPG,AFNE01.JPG,AFNE01.JPG,AFNE01.JPG,AFNE01.JPG,AFNE01.JPG,,,,,,,,,,,,,3,1,31,5,,,,,,,,,,,AFSA14.jpg,AFNE01.jpg,AFNE14.jpg,AFSA04.jpg,AFNE14.jpg,FN,3,num_2,32,num_8,1.15012789494,,,2017_Nov_08_1046,60.0061780708,MAFE4ImagesEEG,001,102208,
AFNE01.JPG,AFNE01.JPG,AFNE01.JPG,AFNE01.JPG,AFNE01.JPG,AFNE01.JPG,,,,,,,,,,,,,3,2,32,6,,,,,,,,,,,AFNE06.jpg,AFSA08.jpg,AFSA15.jpg,AFNE07.jpg,AFNE07.jpg,FN,3,num_4,16,num_4,2.15007208614,,,2017_Nov_08_1046,60.0061780708,MAFE4ImagesEEG,001,102208,
AFNE01.JPG,AFNE01.JPG,AFNE01.JPG,AFNE01.JPG,AFNE01.JPG,AFNE01.JPG,,,,,,,,,,,,,3,3,33,4,,,,,,,,,,,AFSA12.jpg,AFSA11.jpg,AFNE18.jpg,AFNE15.jpg,AFNE18.jpg,FN,3,num_2,32,num_8,0.883469246794,,,2017_Nov_08_1046,60.0061780708,MAFE4ImagesEEG,001,102208,
AFNE01.JPG,AFNE01.JPG,AFNE01.JPG,AFNE01.JPG,AFNE01.JPG,AFNE01.JPG,,,,,,,,,,,,,3,4,34,7,,,,,,,,,,,AFNE01.jpg,AFNE06.jpg,AFSA01.jpg,AFSA18.jpg,AFNE06.jpg,FN,3,num_6,16,num_6,1.11672351789,,,2017_Nov_08_1046,60.0061780708,MAFE4ImagesEEG,001,102208,
AFNE01.JPG,AFNE01.JPG,AFNE01.JPG,AFNE01.JPG,AFNE01.JPG,AFNE01.JPG,,,,,,,,,,,,,3,5,35,0,,,,,,,,,,,AFSA13.jpg,AFSA15.jpg,AFNE05.jpg,AFNE10.jpg,AFSA15.jpg,FS,4,num_6,32,num_8,0.933493703138,,,2017_Nov_08_1046,60.0061780708,MAFE4ImagesEEG,001,102208,
AFNE01.JPG,AFNE01.JPG,AFNE01.JPG,AFNE01.JPG,AFNE01.JPG,AFNE01.JPG,,,,,,,,,,,,,3,6,36,3,,,,,,,,,,,AFSA05.jpg,AFNE01.jpg,AFSA20.jpg,AFNE08.jpg,AFSA20.jpg,FS,4,num_2,16,num_2,1.1334427055,,,2017_Nov_08_1046,60.0061780708,MAFE4ImagesEEG,001,102208,
AFNE01.JPG,AFNE01.JPG,AFNE01.JPG,AFNE01.JPG,AFNE01.JPG,AFNE01.JPG,,,,,,,,,,,,,3,7,37,9,,,,,,,,,,,AFSA18.jpg,AFSA02.jpg,AFNE02.jpg,AFNE10.jpg,AFSA02.jpg,FS,4,num_6,32,num_2,1.06672792789,,,2017_Nov_08_1046,60.0061780708,MAFE4ImagesEEG,001,102208,
AFNE01.JPG,AFNE01.JPG,AFNE01.JPG,AFNE01.JPG,AFNE01.JPG,AFNE01.JPG,,,,,,,,,,,,,3,8,38,8,,,,,,,,,,,AFNE07.jpg,AFSA08.jpg,AFSA03.jpg,AFNE08.jpg,AFNE07.jpg,FN,3,num_8,16,num_8,0.516872340813,,,2017_Nov_08_1046,60.0061780708,MAFE4ImagesEEG,001,102208,
AFNE01.JPG,AFNE01.JPG,AFNE01.JPG,AFNE01.JPG,AFNE01.JPG,AFNE01.JPG,,,,,,,,,,,,,3,9,39,1,,,,,,,,,,,AFNE12.jpg,AFSA15.jpg,AFNE04.jpg,AFSA04.jpg,AFNE04.jpg,FN,3,num_2,32,num_8,1.20009525958,,,2017_Nov_08_1046,60.0061780708,MAFE4ImagesEEG,001,102208,
AFNE01.JPG,AFNE01.JPG,AFNE01.JPG,AFNE01.JPG,AFNE01.JPG,AFNE01.JPG,,,,,,,,,,,,,4,0,40,6,,,,,,,,,,,AFNE19.jpg,AFNE17.jpg,AFSA20.jpg,AFSA01.jpg,AFSA20.jpg,FS,4,num_2,32,num_8,1.65004305937,,,2017_Nov_08_1046,60.0061780708,MAFE4ImagesEEG,001,102208,
AFNE01.JPG,AFNE01.JPG,AFNE01.JPG,AFNE01.JPG,AFNE01.JPG,AFNE01.JPG,,,,,,,,,,,,,4,1,41,2,,,,,,,,,,,AFSA20.jpg,AFNE05.jpg,AFSA02.jpg,AFNE12.jpg,AFSA20.jpg,FS,4,num_8,32,num_2,1.46670162724,,,2017_Nov_08_1046,60.0061780708,MAFE4ImagesEEG,001,102208,
AFNE01.JPG,AFNE01.JPG,AFNE01.JPG,AFNE01.JPG,AFNE01.JPG,AFNE01.JPG,,,,,,,,,,,,,4,2,42,9,,,,,,,,,,,AFNE09.jpg,AFSA17.jpg,AFSA19.jpg,AFNE11.jpg,AFNE11.jpg,FN,3,num_4,32,num_8,0.700165341143,,,2017_Nov_08_1046,60.0061780708,MAFE4ImagesEEG,001,102208,
AFNE01.JPG,AFNE01.JPG,AFNE01.JPG,AFNE01.JPG,AFNE01.JPG,AFNE01.JPG,,,,,,,,,,,,,4,3,43,5,,,,,,,,,,,AFNE18.jpg,AFSA15.jpg,AFSA05.jpg,AFNE13.jpg,AFNE18.jpg,FN,3,num_8,16,num_8,1.08344807802,,,2017_Nov_08_1046,60.0061780708,MAFE4ImagesEEG,001,102208,
AFNE01.JPG,AFNE01.JPG,AFNE01.JPG,AFNE01.JPG,AFNE01.JPG,AFNE01.JPG,,,,,,,,,,,,,4,4,44,3,,,,,,,,,,,AFNE08.jpg,AFSA08.jpg,AFSA11.jpg,AFNE04.jpg,AFSA11.jpg,FS,4,num_2,32,num_6,1.06678983057,,,2017_Nov_08_1046,60.0061780708,MAFE4ImagesEEG,001,102208,
AFNE01.JPG,AFNE01.JPG,AFNE01.JPG,AFNE01.JPG,AFNE01.JPG,AFNE01.JPG,,,,,,,,,,,,,4,5,45,7,,,,,,,,,,,AFSA01.jpg,AFNE17.jpg,AFSA03.jpg,AFNE18.jpg,AFSA01.jpg,FS,4,num_8,16,num_8,0.800144653535,,,2017_Nov_08_1046,60.0061780708,MAFE4ImagesEEG,001,102208,
AFNE01.JPG,AFNE01.JPG,AFNE01.JPG,AFNE01.JPG,AFNE01.JPG,AFNE01.JPG,,,,,,,,,,,,,4,6,46,4,,,,,,,,,,,AFSA11.jpg,AFSA15.jpg,AFNE10.jpg,AFNE14.jpg,AFSA15.jpg,FS,4,num_6,16,num_6,0.583490255056,,,2017_Nov_08_1046,60.0061780708,MAFE4ImagesEEG,001,102208,
AFNE01.JPG,AFNE01.JPG,AFNE01.JPG,AFNE01.JPG,AFNE01.JPG,AFNE01.JPG,,,,,,,,,,,,,4,7,47,0,,,,,,,,,,,AFSA19.jpg,AFNE17.jpg,AFSA09.jpg,AFNE12.jpg,AFSA19.jpg,FS,4,num_8,32,num_2,1.21678237361,,,2017_Nov_08_1046,60.0061780708,MAFE4ImagesEEG,001,102208,
AFNE01.JPG,AFNE01.JPG,AFNE01.JPG,AFNE01.JPG,AFNE01.JPG,AFNE01.JPG,,,,,,,,,,,,,4,8,48,1,,,,,,,,,,,AFNE04.jpg,AFNE18.jpg,AFSA09.jpg,AFSA19.jpg,AFNE18.jpg,FN,3,num_6,32,num_8,0.866808433551,,,2017_Nov_08_1046,60.0061780708,MAFE4ImagesEEG,001,102208,
AFNE01.JPG,AFNE01.JPG,AFNE01.JPG,AFNE01.JPG,AFNE01.JPG,AFNE01.JPG,,,,,,,,,,,,,4,9,49,8,,,,,,,,,,,AFNE01.jpg,AFNE12.jpg,AFSA12.jpg,AFSA11.jpg,AFNE12.jpg,FN,3,num_6,16,num_6,0.916774835903,,,2017_Nov_08_1046,60.0061780708,MAFE4ImagesEEG,001,102208,
AFNE01.JPG,AFNE01.JPG,AFNE01.JPG,AFNE01.JPG,AFNE01.JPG,AFNE01.JPG,,,,,,,,,,,,,5,0,50,9,,,,,,,,,,,AFSA12.jpg,AFSA10.jpg,AFNE08.jpg,AFNE09.jpg,AFSA10.jpg,FS,4,num_6,16,num_6,1.58345144568,,,2017_Nov_08_1046,60.0061780708,MAFE4ImagesEEG,001,102208,
AFNE01.JPG,AFNE01.JPG,AFNE01.JPG,AFNE01.JPG,AFNE01.JPG,AFNE01.JPG,,,,,,,,,,,,,5,1,51,7,,,,,,,,,,,AFNE10.jpg,AFSA01.jpg,AFNE19.jpg,AFSA15.jpg,AFNE19.jpg,FN,3,num_2,16,num_2,0.833779963199,,,2017_Nov_08_1046,60.0061780708,MAFE4ImagesEEG,001,102208,
AFNE01.JPG,AFNE01.JPG,AFNE01.JPG,AFNE01.JPG,AFNE01.JPG,AFNE01.JPG,,,,,,,,,,,,,5,2,52,1,,,,,,,,,,,AFNE08.jpg,AFNE14.jpg,AFSA09.jpg,AFSA06.jpg,AFNE14.jpg,FN,3,num_6,32,num_8,0.966787745943,,,2017_Nov_08_1046,60.0061780708,MAFE4ImagesEEG,001,102208,
AFNE01.JPG,AFNE01.JPG,AFNE01.JPG,AFNE01.JPG,AFNE01.JPG,AFNE01.JPG,,,,,,,,,,,,,5,3,53,3,,,,,,,,,,,AFNE19.jpg,AFSA07.jpg,AFSA08.jpg,AFNE08.jpg,AFNE08.jpg,FN,3,num_4,32,num_8,1.21674516774,,,2017_Nov_08_1046,60.0061780708,MAFE4ImagesEEG,001,102208,
AFNE01.JPG,AFNE01.JPG,AFNE01.JPG,AFNE01.JPG,AFNE01.JPG,AFNE01.JPG,,,,,,,,,,,,,5,4,54,8,,,,,,,,,,,AFNE08.jpg,AFSA13.jpg,AFNE02.jpg,AFSA20.jpg,AFNE02.jpg,FN,3,num_2,32,num_8,0.766797367949,,,2017_Nov_08_1046,60.0061780708,MAFE4ImagesEEG,001,102208,
AFNE01.JPG,AFNE01.JPG,AFNE01.JPG,AFNE01.JPG,AFNE01.JPG,AFNE01.JPG,,,,,,,,,,,,,5,5,55,2,,,,,,,,,,,AFNE09.jpg,AFSA03.jpg,AFNE20.jpg,AFSA15.jpg,AFNE09.jpg,FN,3,num_8,32,num_2,0.950170232449,,,2017_Nov_08_1046,60.0061780708,MAFE4ImagesEEG,001,102208,
AFNE01.JPG,AFNE01.JPG,AFNE01.JPG,AFNE01.JPG,AFNE01.JPG,AFNE01.JPG,,,,,,,,,,,,,5,6,56,4,,,,,,,,,,,AFNE05.jpg,AFNE18.jpg,AFSA14.jpg,AFSA02.jpg,AFNE18.jpg,FN,3,num_6,32,num_8,1.00015235133,,,2017_Nov_08_1046,60.0061780708,MAFE4ImagesEEG,001,102208,
AFNE01.JPG,AFNE01.JPG,AFNE01.JPG,AFNE01.JPG,AFNE01.JPG,AFNE01.JPG,,,,,,,,,,,,,5,7,57,6,,,,,,,,,,,AFSA15.jpg,AFNE10.jpg,AFNE07.jpg,AFSA04.jpg,AFNE10.jpg,FN,3,num_6,16,num_6,0.950130460784,,,2017_Nov_08_1046,60.0061780708,MAFE4ImagesEEG,001,102208,
AFNE01.JPG,AFNE01.JPG,AFNE01.JPG,AFNE01.JPG,AFNE01.JPG,AFNE01.JPG,,,,,,,,,,,,,5,8,58,0,,,,,,,,,,,AFNE17.jpg,AFSA03.jpg,AFNE11.jpg,AFSA14.jpg,AFSA14.jpg,FS,4,num_4,16,num_4,1.05011843308,,,2017_Nov_08_1046,60.0061780708,MAFE4ImagesEEG,001,102208,
AFNE01.JPG,AFNE01.JPG,AFNE01.JPG,AFNE01.JPG,AFNE01.JPG,AFNE01.JPG,,,,,,,,,,,,,5,9,59,5,,,,,,,,,,,AFNE08.jpg,AFNE15.jpg,AFSA12.jpg,AFSA11.jpg,AFNE15.jpg,FN,3,num_6,32,num_2,1.7165891279,,,2017_Nov_08_1046,60.0061780708,MAFE4ImagesEEG,001,102208,
,,,,,,,,,,,,,,,,,,,,,,,,,,,,,,,,,,,,,,,,,,,space,29.6646626864,2017_Nov_08_1046,60.0061780708,MAFE4ImagesEEG,001,102208,
AFNE01.JPG,AFNE01.JPG,AFNE01.JPG,AFNE01.JPG,AFNE01.JPG,AFNE01.JPG,,,,,,,,,,,,,,,,,0,0,0,6,,,,,,,AMNE12.jpg,AMSA12.jpg,AMNE16.jpg,AMSA06.jpg,AMNE16.jpg,MN,1,num_2,32,num_8,1.15014938451,,,2017_Nov_08_1046,60.0061780708,MAFE4ImagesEEG,001,102208,
AFNE01.JPG,AFNE01.JPG,AFNE01.JPG,AFNE01.JPG,AFNE01.JPG,AFNE01.JPG,,,,,,,,,,,,,,,,,0,1,1,4,,,,,,,AMSA16.jpg,AMNE04.jpg,AMNE17.jpg,AMSA08.jpg,AMSA08.jpg,MS,2,num_4,32,num_6,0.916873303242,,,2017_Nov_08_1046,60.0061780708,MAFE4ImagesEEG,001,102208,
AFNE01.JPG,AFNE01.JPG,AFNE01.JPG,AFNE01.JPG,AFNE01.JPG,AFNE01.JPG,,,,,,,,,,,,,,,,,0,2,2,3,,,,,,,AMNE18.jpg,AMSA14.jpg,AMNE04.jpg,AMSA11.jpg,AMNE04.jpg,MN,1,num_2,16,num_2,0.816767619457,,,2017_Nov_08_1046,60.0061780708,MAFE4ImagesEEG,001,102208,
AFNE01.JPG,AFNE01.JPG,AFNE01.JPG,AFNE01.JPG,AFNE01.JPG,AFNE01.JPG,,,,,,,,,,,,,,,,,0,3,3,5,,,,,,,AMSA17.jpg,AMNE02.jpg,AMSA08.jpg,AMNE11.jpg,AMNE11.jpg,MN,1,num_4,32,num_6,0.633488090243,,,2017_Nov_08_1046,60.0061780708,MAFE4ImagesEEG,001,102208,
AFNE01.JPG,AFNE01.JPG,AFNE01.JPG,AFNE01.JPG,AFNE01.JPG,AFNE01.JPG,,,,,,,,,,,,,,,,,0,4,4,7,,,,,,,AMNE05.jpg,AMNE03.jpg,AMSA20.jpg,AMSA09.jpg,AMSA09.jpg,MS,2,num_4,16,num_4,0.74986456777,,,2017_Nov_08_1046,60.0061780708,MAFE4ImagesEEG,001,102208,
AFNE01.JPG,AFNE01.JPG,AFNE01.JPG,AFNE01.JPG,AFNE01.JPG,AFNE01.JPG,,,,,,,,,,,,,,,,,0,5,5,9,,,,,,,AMNE19.jpg,AMSA13.jpg,AMSA02.jpg,AMNE11.jpg,AMSA02.jpg,MS,2,num_2,16,num_2,1.21673875279,,,2017_Nov_08_1046,60.0061780708,MAFE4ImagesEEG,001,102208,
AFNE01.JPG,AFNE01.JPG,AFNE01.JPG,AFNE01.JPG,AFNE01.JPG,AFNE01.JPG,,,,,,,,,,,,,,,,,0,6,6,2,,,,,,,AMSA10.jpg,AMNE02.jpg,AMSA04.jpg,AMNE13.jpg,AMNE13.jpg,MN,1,num_4,32,num_8,0.900150587084,,,2017_Nov_08_1046,60.0061780708,MAFE4ImagesEEG,001,102208,
AFNE01.JPG,AFNE01.JPG,AFNE01.JPG,AFNE01.JPG,AFNE01.JPG,AFNE01.JPG,,,,,,,,,,,,,,,,,0,7,7,1,,,,,,,AMNE17.jpg,AMSA20.jpg,AMSA17.jpg,AMNE06.jpg,AMSA17.jpg,MS,2,num_2,32,num_4,1.21676088381,,,2017_Nov_08_1046,60.0061780708,MAFE4ImagesEEG,001,102208,
AFNE01.JPG,AFNE01.JPG,AFNE01.JPG,AFNE01.JPG,AFNE01.JPG,AFNE01.JPG,,,,,,,,,,,,,,,,,0,8,8,8,,,,,,,AMSA15.jpg,AMNE05.jpg,AMNE07.jpg,AMSA04.jpg,AMNE05.jpg,MN,1,num_6,16,num_6,1.10015154956,,,2017_Nov_08_1046,60.0061780708,MAFE4ImagesEEG,001,102208,
AFNE01.JPG,AFNE01.JPG,AFNE01.JPG,AFNE01.JPG,AFNE01.JPG,AFNE01.JPG,,,,,,,,,,,,,,,,,0,9,9,0,,,,,,,AMNE15.jpg,AMNE05.jpg,AMSA06.jpg,AMSA04.jpg,AMSA06.jpg,MS,2,num_2,32,num_4,1.30009413697,,,2017_Nov_08_1046,60.0061780708,MAFE4ImagesEEG,001,102208,
AFNE01.JPG,AFNE01.JPG,AFNE01.JPG,AFNE01.JPG,AFNE01.JPG,AFNE01.JPG,,,,,,,,,,,,,,,,,1,0,10,7,,,,,,,AMSA04.jpg,AMSA05.jpg,AMNE10.jpg,AMNE07.jpg,AMNE07.jpg,MN,1,num_4,32,num_2,0.93346547801,,,2017_Nov_08_1046,60.0061780708,MAFE4ImagesEEG,001,102208,
AFNE01.JPG,AFNE01.JPG,AFNE01.JPG,AFNE01.JPG,AFNE01.JPG,AFNE01.JPG,,,,,,,,,,,,,,,,,1,1,11,4,,,,,,,AMNE11.jpg,AMSA16.jpg,AMNE20.jpg,AMSA18.jpg,AMNE20.jpg,MN,1,num_2,16,num_2,1.46669649542,,,2017_Nov_08_1046,60.0061780708,MAFE4ImagesEEG,001,102208,
AFNE01.JPG,AFNE01.JPG,AFNE01.JPG,AFNE01.JPG,AFNE01.JPG,AFNE01.JPG,,,,,,,,,,,,,,,,,1,2,12,0,,,,,,,AMNE19.jpg,AMSA14.jpg,AMNE20.jpg,AMSA19.jpg,AMNE20.jpg,MN,1,num_2,16,num_2,1.30014256877,,,2017_Nov_08_1046,60.0061780708,MAFE4ImagesEEG,001,102208,
AFNE01.JPG,AFNE01.JPG,AFNE01.JPG,AFNE01.JPG,AFNE01.JPG,AFNE01.JPG,,,,,,,,,,,,,,,,,1,3,13,1,,,,,,,AMSA01.jpg,AMSA03.jpg,AMNE08.jpg,AMNE18.jpg,AMNE18.jpg,MN,1,num_4,32,num_2,1.15048680245,,,2017_Nov_08_1046,60.0061780708,MAFE4ImagesEEG,001,102208,
AFNE01.JPG,AFNE01.JPG,AFNE01.JPG,AFNE01.JPG,AFNE01.JPG,AFNE01.JPG,,,,,,,,,,,,,,,,,1,4,14,6,,,,,,,AMNE19.jpg,AMNE20.jpg,AMSA16.jpg,AMSA19.jpg,AMSA19.jpg,MS,2,num_4,16,num_4,0.716781571507,,,2017_Nov_08_1046,60.0061780708,MAFE4ImagesEEG,001,102208,
AFNE01.JPG,AFNE01.JPG,AFNE01.JPG,AFNE01.JPG,AFNE01.JPG,AFNE01.JPG,,,,,,,,,,,,,,,,,1,5,15,9,,,,,,,AMNE20.jpg,AMSA17.jpg,AMSA10.jpg,AMNE19.jpg,AMSA17.jpg,MS,2,num_6,16,num_6,0.766786142252,,,2017_Nov_08_1046,60.0061780708,MAFE4ImagesEEG,001,102208,
AFNE01.JPG,AFNE01.JPG,AFNE01.JPG,AFNE01.JPG,AFNE01.JPG,AFNE01.JPG,,,,,,,,,,,,,,,,,1,6,16,2,,,,,,,AMSA03.jpg,AMNE11.jpg,AMNE05.jpg,AMSA12.jpg,AMSA03.jpg,MS,2,num_8,32,num_4,1.11679375987,,,2017_Nov_08_1046,60.0061780708,MAFE4ImagesEEG,001,102208,
AFNE01.JPG,AFNE01.JPG,AFNE01.JPG,AFNE01.JPG,AFNE01.JPG,AFNE01.JPG,,,,,,,,,,,,,,,,,1,7,17,5,,,,,,,AMSA16.jpg,AMNE04.jpg,AMNE08.jpg,AMSA07.jpg,AMSA16.jpg,MS,2,num_8,32,num_4,1.01680546673,,,2017_Nov_08_1046,60.0061780708,MAFE4ImagesEEG,001,102208,
AFNE01.JPG,AFNE01.JPG,AFNE01.JPG,AFNE01.JPG,AFNE01.JPG,AFNE01.JPG,,,,,,,,,,,,,,,,,1,8,18,8,,,,,,,AMSA11.jpg,AMNE08.jpg,AMSA12.jpg,AMNE14.jpg,AMSA11.jpg,MS,2,num_8,32,num_4,1.03376392624,,,2017_Nov_08_1046,60.0061780708,MAFE4ImagesEEG,001,102208,
AFNE01.JPG,AFNE01.JPG,AFNE01.JPG,AFNE01.JPG,AFNE01.JPG,AFNE01.JPG,,,,,,,,,,,,,,,,,1,9,19,3,,,,,,,AMSA04.jpg,AMNE15.jpg,AMNE19.jpg,AMSA16.jpg,AMNE19.jpg,MN,1,num_2,32,num_4,0.683469888289,,,2017_Nov_08_1046,60.0061780708,MAFE4ImagesEEG,001,102208,
AFNE01.JPG,AFNE01.JPG,AFNE01.JPG,AFNE01.JPG,AFNE01.JPG,AFNE01.JPG,,,,,,,,,,,,,,,,,2,0,20,7,,,,,,,AMSA11.jpg,AMNE11.jpg,AMNE18.jpg,AMSA03.jpg,AMSA11.jpg,MS,2,num_8,16,num_8,1.3167244799,,,2017_Nov_08_1046,60.0061780708,MAFE4ImagesEEG,001,102208,
AFNE01.JPG,AFNE01.JPG,AFNE01.JPG,AFNE01.JPG,AFNE01.JPG,AFNE01.JPG,,,,,,,,,,,,,,,,,2,1,21,5,,,,,,,AMSA17.jpg,AMSA18.jpg,AMNE14.jpg,AMNE17.jpg,AMNE17.jpg,MN,1,num_4,32,num_8,0.966770105064,,,2017_Nov_08_1046,60.0061780708,MAFE4ImagesEEG,001,102208,
AFNE01.JPG,AFNE01.JPG,AFNE01.JPG,AFNE01.JPG,AFNE01.JPG,AFNE01.JPG,,,,,,,,,,,,,,,,,2,2,22,8,,,,,,,AMNE20.jpg,AMSA13.jpg,AMNE08.jpg,AMSA04.jpg,AMNE08.jpg,MN,1,num_2,32,num_4,0.950150025776,,,2017_Nov_08_1046,60.0061780708,MAFE4ImagesEEG,001,102208,
AFNE01.JPG,AFNE01.JPG,AFNE01.JPG,AFNE01.JPG,AFNE01.JPG,AFNE01.JPG,,,,,,,,,,,,,,,,,2,3,23,0,,,,,,,AMNE07.jpg,AMSA11.jpg,AMSA12.jpg,AMNE03.jpg,AMSA11.jpg,MS,2,num_6,16,num_6,0.950129819335,,,2017_Nov_08_1046,60.0061780708,MAFE4ImagesEEG,001,102208,
AFNE01.JPG,AFNE01.JPG,AFNE01.JPG,AFNE01.JPG,AFNE01.JPG,AFNE01.JPG,,,,,,,,,,,,,,,,,2,4,24,9,,,,,,,AMSA06.jpg,AMNE09.jpg,AMNE19.jpg,AMSA13.jpg,AMNE19.jpg,MN,1,num_2,32,num_8,0.96673578606,,,2017_Nov_08_1046,60.0061780708,MAFE4ImagesEEG,001,102208,
AFNE01.JPG,AFNE01.JPG,AFNE01.JPG,AFNE01.JPG,AFNE01.JPG,AFNE01.JPG,,,,,,,,,,,,,,,,,2,5,25,1,,,,,,,AMNE11.jpg,AMSA16.jpg,AMNE14.jpg,AMSA07.jpg,AMSA16.jpg,MS,2,num_6,32,num_4,1.08346796385,,,2017_Nov_08_1046,60.0061780708,MAFE4ImagesEEG,001,102208,
AFNE01.JPG,AFNE01.JPG,AFNE01.JPG,AFNE01.JPG,AFNE01.JPG,AFNE01.JPG,,,,,,,,,,,,,,,,,2,6,26,3,,,,,,,AMSA20.jpg,AMSA09.jpg,AMNE20.jpg,AMNE14.jpg,AMNE20.jpg,MN,1,num_2,32,num_8,0.816788788186,,,2017_Nov_08_1046,60.0061780708,MAFE4ImagesEEG,001,102208,
AFNE01.JPG,AFNE01.JPG,AFNE01.JPG,AFNE01.JPG,AFNE01.JPG,AFNE01.JPG,,,,,,,,,,,,,,,,,2,7,27,6,,,,,,,AMNE05.jpg,AMNE02.jpg,AMSA02.jpg,AMSA19.jpg,AMNE02.jpg,MN,1,num_6,32,num_2,0.966781651834,,,2017_Nov_08_1046,60.0061780708,MAFE4ImagesEEG,001,102208,
AFNE01.JPG,AFNE01.JPG,AFNE01.JPG,AFNE01.JPG,AFNE01.JPG,AFNE01.JPG,,,,,,,,,,,,,,,,,2,8,28,4,,,,,,,AMNE03.jpg,AMSA02.jpg,AMSA12.jpg,AMNE16.jpg,AMSA12.jpg,MS,2,num_2,32,num_8,1.05011682934,,,2017_Nov_08_1046,60.0061780708,MAFE4ImagesEEG,001,102208,
AFNE01.JPG,AFNE01.JPG,AFNE01.JPG,AFNE01.JPG,AFNE01.JPG,AFNE01.JPG,,,,,,,,,,,,,,,,,2,9,29,2,,,,,,,AMSA07.jpg,AMSA05.jpg,AMNE15.jpg,AMNE01.jpg,AMNE01.jpg,MN,1,num_4,16,num_4,1.00010007084,,,2017_Nov_08_1046,60.0061780708,MAFE4ImagesEEG,001,102208,
AFNE01.JPG,AFNE01.JPG,AFNE01.JPG,AFNE01.JPG,AFNE01.JPG,AFNE01.JPG,,,,,,,,,,,,,,,,,3,0,30,7,,,,,,,AMNE01.jpg,AMSA04.jpg,AMNE05.jpg,AMSA07.jpg,AMNE01.jpg,MN,1,num_8,16,num_8,0.76674957783,,,2017_Nov_08_1046,60.0061780708,MAFE4ImagesEEG,001,102208,
AFNE01.JPG,AFNE01.JPG,AFNE01.JPG,AFNE01.JPG,AFNE01.JPG,AFNE01.JPG,,,,,,,,,,,,,,,,,3,1,31,9,,,,,,,AMSA18.jpg,AMNE06.jpg,AMSA09.jpg,AMNE18.jpg,AMSA09.jpg,MS,2,num_2,32,num_6,1.15012693265,,,2017_Nov_08_1046,60.0061780708,MAFE4ImagesEEG,001,102208,
AFNE01.JPG,AFNE01.JPG,AFNE01.JPG,AFNE01.JPG,AFNE01.JPG,AFNE01.JPG,,,,,,,,,,,,,,,,,3,2,32,2,,,,,,,AMSA13.jpg,AMNE20.jpg,AMSA19.jpg,AMNE14.jpg,AMSA13.jpg,MS,2,num_8,32,num_6,1.48329636827,,,2017_Nov_08_1046,60.0061780708,MAFE4ImagesEEG,001,102208,
AFNE01.JPG,AFNE01.JPG,AFNE01.JPG,AFNE01.JPG,AFNE01.JPG,AFNE01.JPG,,,,,,,,,,,,,,,,,3,3,33,1,,,,,,,AMSA17.jpg,AMSA02.jpg,AMNE14.jpg,AMNE17.jpg,AMSA02.jpg,MS,2,num_6,16,num_6,0.58354253578,,,2017_Nov_08_1046,60.0061780708,MAFE4ImagesEEG,001,102208,
AFNE01.JPG,AFNE01.JPG,AFNE01.JPG,AFNE01.JPG,AFNE01.JPG,AFNE01.JPG,,,,,,,,,,,,,,,,,3,4,34,6,,,,,,,AMNE12.jpg,AMNE19.jpg,AMSA17.jpg,AMSA03.jpg,AMNE19.jpg,MN,1,num_6,16,num_6,1.31677387375,,,2017_Nov_08_1046,60.0061780708,MAFE4ImagesEEG,001,102208,
AFNE01.JPG,AFNE01.JPG,AFNE01.JPG,AFNE01.JPG,AFNE01.JPG,AFNE01.JPG,,,,,,,,,,,,,,,,,3,5,35,4,,,,,,,AMNE11.jpg,AMSA02.jpg,AMSA12.jpg,AMNE09.jpg,AMSA12.jpg,MS,2,num_2,32,num_8,0.783467803383,,,2017_Nov_08_1046,60.0061780708,MAFE4ImagesEEG,001,102208,
AFNE01.JPG,AFNE01.JPG,AFNE01.JPG,AFNE01.JPG,AFNE01.JPG,AFNE01.JPG,,,,,,,,,,,,,,,,,3,6,36,5,,,,,,,AMNE19.jpg,AMNE08.jpg,AMSA18.jpg,AMSA11.jpg,AMNE19.jpg,MN,1,num_8,16,num_8,1.48347662366,,,2017_Nov_08_1046,60.0061780708,MAFE4ImagesEEG,001,102208,
AFNE01.JPG,AFNE01.JPG,AFNE01.JPG,AFNE01.JPG,AFNE01.JPG,AFNE01.JPG,,,,,,,,,,,,,,,,,3,7,37,0,,,,,,,AMSA20.jpg,AMSA01.jpg,AMNE11.jpg,AMNE17.jpg,AMSA01.jpg,MS,2,num_6,16,num_6,0.966808914673,,,2017_Nov_08_1046,60.0061780708,MAFE4ImagesEEG,001,102208,
AFNE01.JPG,AFNE01.JPG,AFNE01.JPG,AFNE01.JPG,AFNE01.JPG,AFNE01.JPG,,,,,,,,,,,,,,,,,3,8,38,3,,,,,,,AMNE12.jpg,AMSA18.jpg,AMSA13.jpg,AMNE20.jpg,AMNE12.jpg,MN,1,num_8,16,num_8,0.816811881494,,,2017_Nov_08_1046,60.0061780708,MAFE4ImagesEEG,001,102208,
AFNE01.JPG,AFNE01.JPG,AFNE01.JPG,AFNE01.JPG,AFNE01.JPG,AFNE01.JPG,,,,,,,,,,,,,,,,,3,9,39,8,,,,,,,AMSA20.jpg,AMSA10.jpg,AMNE12.jpg,AMNE01.jpg,AMNE01.jpg,MN,1,num_4,16,num_4,0.983439257601,,,2017_Nov_08_1046,60.0061780708,MAFE4ImagesEEG,001,102208,
AFNE01.JPG,AFNE01.JPG,AFNE01.JPG,AFNE01.JPG,AFNE01.JPG,AFNE01.JPG,,,,,,,,,,,,,,,,,4,0,40,6,,,,,,,AMNE15.jpg,AMNE13.jpg,AMSA15.jpg,AMSA13.jpg,AMNE13.jpg,MN,1,num_6,16,num_6,1.18369103805,,,2017_Nov_08_1046,60.0061780708,MAFE4ImagesEEG,001,102208,
AFNE01.JPG,AFNE01.JPG,AFNE01.JPG,AFNE01.JPG,AFNE01.JPG,AFNE01.JPG,,,,,,,,,,,,,,,,,4,1,41,7,,,,,,,AMSA11.jpg,AMNE08.jpg,AMNE14.jpg,AMSA20.jpg,AMSA20.jpg,MS,2,num_4,16,num_4,0.900138399098,,,2017_Nov_08_1046,60.0061780708,MAFE4ImagesEEG,001,102208,
AFNE01.JPG,AFNE01.JPG,AFNE01.JPG,AFNE01.JPG,AFNE01.JPG,AFNE01.JPG,,,,,,,,,,,,,,,,,4,2,42,9,,,,,,,AMNE12.jpg,AMSA14.jpg,AMSA05.jpg,AMNE15.jpg,AMSA05.jpg,MS,2,num_2,32,num_8,0.83346916642,,,2017_Nov_08_1046,60.0061780708,MAFE4ImagesEEG,001,102208,
AFNE01.JPG,AFNE01.JPG,AFNE01.JPG,AFNE01.JPG,AFNE01.JPG,AFNE01.JPG,,,,,,,,,,,,,,,,,4,3,43,8,,,,,,,AMNE07.jpg,AMSA04.jpg,AMNE11.jpg,AMSA10.jpg,AMSA10.jpg,MS,2,num_4,32,num_8,1.61673843232,,,2017_Nov_08_1046,60.0061780708,MAFE4ImagesEEG,001,102208,
AFNE01.JPG,AFNE01.JPG,AFNE01.JPG,AFNE01.JPG,AFNE01.JPG,AFNE01.JPG,,,,,,,,,,,,,,,,,4,4,44,0,,,,,,,AMNE17.jpg,AMSA12.jpg,AMSA08.jpg,AMNE06.jpg,AMNE06.jpg,MN,1,num_4,32,num_6,1.21673939447,,,2017_Nov_08_1046,60.0061780708,MAFE4ImagesEEG,001,102208,
AFNE01.JPG,AFNE01.JPG,AFNE01.JPG,AFNE01.JPG,AFNE01.JPG,AFNE01.JPG,,,,,,,,,,,,,,,,,4,5,45,5,,,,,,,AMSA17.jpg,AMNE09.jpg,AMNE07.jpg,AMSA20.jpg,AMNE07.jpg,MN,1,num_2,32,num_8,1.25015980843,,,2017_Nov_08_1046,60.0061780708,MAFE4ImagesEEG,001,102208,
AFNE01.JPG,AFNE01.JPG,AFNE01.JPG,AFNE01.JPG,AFNE01.JPG,AFNE01.JPG,,,,,,,,,,,,,,,,,4,6,46,3,,,,,,,AMNE04.jpg,AMSA12.jpg,AMNE14.jpg,AMSA19.jpg,AMNE14.jpg,MN,1,num_2,16,num_2,1.61667685024,,,2017_Nov_08_1046,60.0061780708,MAFE4ImagesEEG,001,102208,
AFNE01.JPG,AFNE01.JPG,AFNE01.JPG,AFNE01.JPG,AFNE01.JPG,AFNE01.JPG,,,,,,,,,,,,,,,,,4,7,47,4,,,,,,,AMNE13.jpg,AMSA13.jpg,AMSA20.jpg,AMNE08.jpg,AMNE13.jpg,MN,1,num_8,32,num_6,0.866730814567,,,2017_Nov_08_1046,60.0061780708,MAFE4ImagesEEG,001,102208,
AFNE01.JPG,AFNE01.JPG,AFNE01.JPG,AFNE01.JPG,AFNE01.JPG,AFNE01.JPG,,,,,,,,,,,,,,,,,4,8,48,1,,,,,,,AMNE05.jpg,AMNE08.jpg,AMSA17.jpg,AMSA05.jpg,AMSA05.jpg,MS,2,num_4,32,num_2,1.38339852379,,,2017_Nov_08_1046,60.0061780708,MAFE4ImagesEEG,001,102208,
AFNE01.JPG,AFNE01.JPG,AFNE01.JPG,AFNE01.JPG,AFNE01.JPG,AFNE01.JPG,,,,,,,,,,,,,,,,,4,9,49,2,,,,,,,AMSA05.jpg,AMNE17.jpg,AMSA04.jpg,AMNE06.jpg,AMNE17.jpg,MN,1,num_6,16,num_6,1.36679640599,,,2017_Nov_08_1046,60.0061780708,MAFE4ImagesEEG,001,102208,
AFNE01.JPG,AFNE01.JPG,AFNE01.JPG,AFNE01.JPG,AFNE01.JPG,AFNE01.JPG,,,,,,,,,,,,,,,,,5,0,50,5,,,,,,,AMNE03.jpg,AMSA14.jpg,AMSA11.jpg,AMNE02.jpg,AMNE03.jpg,MN,1,num_8,32,num_4,1.11680402327,,,2017_Nov_08_1046,60.0061780708,MAFE4ImagesEEG,001,102208,
AFNE01.JPG,AFNE01.JPG,AFNE01.JPG,AFNE01.JPG,AFNE01.JPG,AFNE01.JPG,,,,,,,,,,,,,,,,,5,1,51,1,,,,,,,AMNE12.jpg,AMSA03.jpg,AMNE14.jpg,AMSA17.jpg,AMSA17.jpg,MS,2,num_4,16,num_4,1.06677026558,,,2017_Nov_08_1046,60.0061780708,MAFE4ImagesEEG,001,102208,
AFNE01.JPG,AFNE01.JPG,AFNE01.JPG,AFNE01.JPG,AFNE01.JPG,AFNE01.JPG,,,,,,,,,,,,,,,,,5,2,52,7,,,,,,,AMSA18.jpg,AMNE08.jpg,AMNE09.jpg,AMSA01.jpg,AMSA01.jpg,MS,2,num_4,16,num_4,0.833465638338,,,2017_Nov_08_1046,60.0061780708,MAFE4ImagesEEG,001,102208,
AFNE01.JPG,AFNE01.JPG,AFNE01.JPG,AFNE01.JPG,AFNE01.JPG,AFNE01.JPG,,,,,,,,,,,,,,,,,5,3,53,6,,,,,,,AMNE08.jpg,AMSA19.jpg,AMSA14.jpg,AMNE15.jpg,AMNE15.jpg,MN,1,num_4,32,num_8,1.03349354258,,,2017_Nov_08_1046,60.0061780708,MAFE4ImagesEEG,001,102208,
AFNE01.JPG,AFNE01.JPG,AFNE01.JPG,AFNE01.JPG,AFNE01.JPG,AFNE01.JPG,,,,,,,,,,,,,,,,,5,4,54,0,,,,,,,AMNE17.jpg,AMSA02.jpg,AMNE09.jpg,AMSA05.jpg,AMNE09.jpg,MN,1,num_2,16,num_2,1.00016453955,,,2017_Nov_08_1046,60.0061780708,MAFE4ImagesEEG,001,102208,
AFNE01.JPG,AFNE01.JPG,AFNE01.JPG,AFNE01.JPG,AFNE01.JPG,AFNE01.JPG,,,,,,,,,,,,,,,,,5,5,55,4,,,,,,,AMNE20.jpg,AMNE13.jpg,AMSA19.jpg,AMSA14.jpg,AMNE13.jpg,MN,1,num_6,32,num_8,1.08343781414,,,2017_Nov_08_1046,60.0061780708,MAFE4ImagesEEG,001,102208,
AFNE01.JPG,AFNE01.JPG,AFNE01.JPG,AFNE01.JPG,AFNE01.JPG,AFNE01.JPG,,,,,,,,,,,,,,,,,5,6,56,8,,,,,,,AMSA14.jpg,AMNE01.jpg,AMNE05.jpg,AMSA05.jpg,AMSA14.jpg,MS,2,num_8,16,num_8,0.633486807346,,,2017_Nov_08_1046,60.0061780708,MAFE4ImagesEEG,001,102208,
AFNE01.JPG,AFNE01.JPG,AFNE01.JPG,AFNE01.JPG,AFNE01.JPG,AFNE01.JPG,,,,,,,,,,,,,,,,,5,7,57,3,,,,,,,AMNE07.jpg,AMNE12.jpg,AMSA01.jpg,AMSA18.jpg,AMNE12.jpg,MN,1,num_6,16,num_6,0.716796004912,,,2017_Nov_08_1046,60.0061780708,MAFE4ImagesEEG,001,102208,
AFNE01.JPG,AFNE01.JPG,AFNE01.JPG,AFNE01.JPG,AFNE01.JPG,AFNE01.JPG,,,,,,,,,,,,,,,,,5,8,58,2,,,,,,,AMSA04.jpg,AMSA12.jpg,AMNE13.jpg,AMNE08.jpg,AMSA12.jpg,MS,2,num_6,16,num_6,1.51671581995,,,2017_Nov_08_1046,60.0061780708,MAFE4ImagesEEG,001,102208,
AFNE01.JPG,AFNE01.JPG,AFNE01.JPG,AFNE01.JPG,AFNE01.JPG,AFNE01.JPG,,,,,,,,,,,,,,,,,5,9,59,9,,,,,,,AMNE19.jpg,AMSA14.jpg,AMSA07.jpg,AMNE05.jpg,AMSA07.jpg,MS,2,num_2,32,num_8,0.833476864267,,,2017_Nov_08_1046,60.0061780708,MAFE4ImagesEEG,001,102208,
,,,,,,,,,,,,,,,,,,,,,,,,,,,,,,,,,,,,,,,,,,,space,31.3980662616,2017_Nov_08_1046,60.0061780708,MAFE4ImagesEEG,001,102208,
AFNE01.JPG,AFNE01.JPG,AFNE01.JPG,AFNE01.JPG,AFNE01.JPG,AFNE01.JPG,,,,,,,,,,,,,,,,,,,,,0,0,0,7,,,AFNE20.jpg,AFSA11.jpg,AFSA01.jpg,AFNE16.jpg,AFSA01.jpg,FS,4,num_2,32,num_8,1.38346235082,,,2017_Nov_08_1046,60.0061780708,MAFE4ImagesEEG,001,102208,
AFNE01.JPG,AFNE01.JPG,AFNE01.JPG,AFNE01.JPG,AFNE01.JPG,AFNE01.JPG,,,,,,,,,,,,,,,,,,,,,0,1,1,3,,,AFSA10.jpg,AFSA18.jpg,AFNE09.jpg,AFNE14.jpg,AFSA10.jpg,FS,4,num_8,16,num_8,1.04997474165,,,2017_Nov_08_1046,60.0061780708,MAFE4ImagesEEG,001,102208,
AFNE01.JPG,AFNE01.JPG,AFNE01.JPG,AFNE01.JPG,AFNE01.JPG,AFNE01.JPG,,,,,,,,,,,,,,,,,,,,,0,2,2,2,,,AFSA19.jpg,AFSA11.jpg,AFNE02.jpg,AFNE03.jpg,AFSA19.jpg,FS,4,num_8,32,num_2,0.900120758452,,,2017_Nov_08_1046,60.0061780708,MAFE4ImagesEEG,001,102208,
AFNE01.JPG,AFNE01.JPG,AFNE01.JPG,AFNE01.JPG,AFNE01.JPG,AFNE01.JPG,,,,,,,,,,,,,,,,,,,,,0,3,3,9,,,AFSA05.jpg,AFSA01.jpg,AFNE18.jpg,AFNE20.jpg,AFSA01.jpg,FS,4,num_6,32,num_8,0.766822064761,,,2017_Nov_08_1046,60.0061780708,MAFE4ImagesEEG,001,102208,
AFNE01.JPG,AFNE01.JPG,AFNE01.JPG,AFNE01.JPG,AFNE01.JPG,AFNE01.JPG,,,,,,,,,,,,,,,,,,,,,0,4,4,8,,,AFNE12.jpg,AFSA06.jpg,AFNE02.jpg,AFSA13.jpg,AFSA13.jpg,FS,4,num_4,16,num_4,1.05008924566,,,2017_Nov_08_1046,60.0061780708,MAFE4ImagesEEG,001,102208,
AFNE01.JPG,AFNE01.JPG,AFNE01.JPG,AFNE01.JPG,AFNE01.JPG,AFNE01.JPG,,,,,,,,,,,,,,,,,,,,,0,5,5,6,,,AFNE16.jpg,AFSA03.jpg,AFNE02.jpg,AFSA16.jpg,AFSA16.jpg,FS,4,num_4,32,num_6,1.33345457306,,,2017_Nov_08_1046,60.0061780708,MAFE4ImagesEEG,001,102208,
AFNE01.JPG,AFNE01.JPG,AFNE01.JPG,AFNE01.JPG,AFNE01.JPG,AFNE01.JPG,,,,,,,,,,,,,,,,,,,,,0,6,6,1,,,AFNE02.jpg,AFSA05.jpg,AFSA19.jpg,AFNE07.jpg,AFSA19.jpg,FS,4,num_2,32,num_6,1.28344807774,,,2017_Nov_08_1046,60.0061780708,MAFE4ImagesEEG,001,102208,
AFNE01.JPG,AFNE01.JPG,AFNE01.JPG,AFNE01.JPG,AFNE01.JPG,AFNE01.JPG,,,,,,,,,,,,,,,,,,,,,0,7,7,4,,,AFSA02.jpg,AFSA14.jpg,AFNE20.jpg,AFNE06.jpg,AFNE20.jpg,FN,3,num_2,32,num_4,1.08345737937,,,2017_Nov_08_1046,60.0061780708,MAFE4ImagesEEG,001,102208,
AFNE01.JPG,AFNE01.JPG,AFNE01.JPG,AFNE01.JPG,AFNE01.JPG,AFNE01.JPG,,,,,,,,,,,,,,,,,,,,,0,8,8,5,,,AFSA17.jpg,AFNE12.jpg,AFSA15.jpg,AFNE05.jpg,AFSA17.jpg,FS,4,num_8,32,num_2,1.08349137777,,,2017_Nov_08_1046,60.0061780708,MAFE4ImagesEEG,001,102208,
AFNE01.JPG,AFNE01.JPG,AFNE01.JPG,AFNE01.JPG,AFNE01.JPG,AFNE01.JPG,,,,,,,,,,,,,,,,,,,,,0,9,9,0,,,AFNE20.jpg,AFSA04.jpg,AFNE09.jpg,AFSA12.jpg,AFSA04.jpg,FS,4,num_6,32,num_2,1.43345184671,,,2017_Nov_08_1046,60.0061780708,MAFE4ImagesEEG,001,102208,
AFNE01.JPG,AFNE01.JPG,AFNE01.JPG,AFNE01.JPG,AFNE01.JPG,AFNE01.JPG,,,,,,,,,,,,,,,,,,,,,1,0,10,4,,,AFNE06.jpg,AFNE03.jpg,AFSA08.jpg,AFSA13.jpg,AFNE03.jpg,FN,3,num_6,32,num_4,1.40008884482,,,2017_Nov_08_1046,60.0061780708,MAFE4ImagesEEG,001,102208,
AFNE01.JPG,AFNE01.JPG,AFNE01.JPG,AFNE01.JPG,AFNE01.JPG,AFNE01.JPG,,,,,,,,,,,,,,,,,,,,,1,1,11,2,,,AFNE03.jpg,AFSA06.jpg,AFNE07.jpg,AFSA20.jpg,AFNE03.jpg,FN,3,num_8,16,num_8,0.533487608889,,,2017_Nov_08_1046,60.0061780708,MAFE4ImagesEEG,001,102208,
AFNE01.JPG,AFNE01.JPG,AFNE01.JPG,AFNE01.JPG,AFNE01.JPG,AFNE01.JPG,,,,,,,,,,,,,,,,,,,,,1,2,12,9,,,AFSA04.jpg,AFSA10.jpg,AFNE13.jpg,AFNE02.jpg,AFNE02.jpg,FN,3,num_4,32,num_2,1.05009533977,,,2017_Nov_08_1046,60.0061780708,MAFE4ImagesEEG,001,102208,
AFNE01.JPG,AFNE01.JPG,AFNE01.JPG,AFNE01.JPG,AFNE01.JPG,AFNE01.JPG,,,,,,,,,,,,,,,,,,,,,1,3,13,0,,,AFSA06.jpg,AFSA03.jpg,AFNE17.jpg,AFNE15.jpg,AFSA03.jpg,FS,4,num_6,32,num_8,2.44967420888,,,2017_Nov_08_1046,60.0061780708,MAFE4ImagesEEG,001,102208,
AFNE01.JPG,AFNE01.JPG,AFNE01.JPG,AFNE01.JPG,AFNE01.JPG,AFNE01.JPG,,,,,,,,,,,,,,,,,,,,,1,4,14,3,,,AFNE11.jpg,AFNE19.jpg,AFSA03.jpg,AFSA08.jpg,AFSA03.jpg,FS,4,num_2,16,num_2,0.466814527521,,,2017_Nov_08_1046,60.0061780708,MAFE4ImagesEEG,001,102208,
AFNE01.JPG,AFNE01.JPG,AFNE01.JPG,AFNE01.JPG,AFNE01.JPG,AFNE01.JPG,,,,,,,,,,,,,,,,,,,,,1,5,15,7,,,AFSA07.jpg,AFNE13.jpg,AFSA12.jpg,AFNE16.jpg,AFNE13.jpg,FN,3,num_6,32,num_4,1.38347967062,,,2017_Nov_08_1046,60.0061780708,MAFE4ImagesEEG,001,102208,
AFNE01.JPG,AFNE01.JPG,AFNE01.JPG,AFNE01.JPG,AFNE01.JPG,AFNE01.JPG,,,,,,,,,,,,,,,,,,,,,1,6,16,6,,,AFSA13.jpg,AFNE11.jpg,AFSA11.jpg,AFNE07.jpg,AFNE07.jpg,FN,3,num_4,16,num_4,1.15002974845,,,2017_Nov_08_1046,60.0061780708,MAFE4ImagesEEG,001,102208,
AFNE01.JPG,AFNE01.JPG,AFNE01.JPG,AFNE01.JPG,AFNE01.JPG,AFNE01.JPG,,,,,,,,,,,,,,,,,,,,,1,7,17,5,,,AFNE13.jpg,AFNE04.jpg,AFSA02.jpg,AFSA03.jpg,AFSA03.jpg,FS,4,num_4,16,num_4,0.650172638008,,,2017_Nov_08_1046,60.0061780708,MAFE4ImagesEEG,001,102208,
AFNE01.JPG,AFNE01.JPG,AFNE01.JPG,AFNE01.JPG,AFNE01.JPG,AFNE01.JPG,,,,,,,,,,,,,,,,,,,,,1,8,18,8,,,AFNE16.jpg,AFNE15.jpg,AFSA13.jpg,AFSA10.jpg,AFSA10.jpg,FS,4,num_4,32,num_6,0.816769222962,,,2017_Nov_08_1046,60.0061780708,MAFE4ImagesEEG,001,102208,
AFNE01.JPG,AFNE01.JPG,AFNE01.JPG,AFNE01.JPG,AFNE01.JPG,AFNE01.JPG,,,,,,,,,,,,,,,,,,,,,1,9,19,1,,,AFSA20.jpg,AFNE13.jpg,AFNE17.jpg,AFSA01.jpg,AFSA20.jpg,FS,4,num_8,32,num_4,0.616828880738,,,2017_Nov_08_1046,60.0061780708,MAFE4ImagesEEG,001,102208,
AFNE01.JPG,AFNE01.JPG,AFNE01.JPG,AFNE01.JPG,AFNE01.JPG,AFNE01.JPG,,,,,,,,,,,,,,,,,,,,,2,0,20,7,,,AFSA20.jpg,AFSA04.jpg,AFNE19.jpg,AFNE20.jpg,AFNE20.jpg,FN,3,num_4,16,num_4,1.8833585917,,,2017_Nov_08_1046,60.0061780708,MAFE4ImagesEEG,001,102208,
AFNE01.JPG,AFNE01.JPG,AFNE01.JPG,AFNE01.JPG,AFNE01.JPG,AFNE01.JPG,,,,,,,,,,,,,,,,,,,,,2,1,21,8,,,AFNE08.jpg,AFSA20.jpg,AFNE03.jpg,AFSA02.jpg,AFNE03.jpg,FN,3,num_2,16,num_2,0.950145856244,,,2017_Nov_08_1046,60.0061780708,MAFE4ImagesEEG,001,102208,
AFNE01.JPG,AFNE01.JPG,AFNE01.JPG,AFNE01.JPG,AFNE01.JPG,AFNE01.JPG,,,,,,,,,,,,,,,,,,,,,2,2,22,5,,,AFSA19.jpg,AFNE09.jpg,AFSA11.jpg,AFNE16.jpg,AFSA19.jpg,FS,4,num_8,32,num_4,1.23344222456,,,2017_Nov_08_1046,60.0061780708,MAFE4ImagesEEG,001,102208,
AFNE01.JPG,AFNE01.JPG,AFNE01.JPG,AFNE01.JPG,AFNE01.JPG,AFNE01.JPG,,,,,,,,,,,,,,,,,,,,,2,3,23,9,,,AFNE04.jpg,AFSA15.jpg,AFNE08.jpg,AFSA03.jpg,AFNE04.jpg,FN,3,num_8,16,num_8,0.933456176659,,,2017_Nov_08_1046,60.0061780708,MAFE4ImagesEEG,001,102208,
AFNE01.JPG,AFNE01.JPG,AFNE01.JPG,AFNE01.JPG,AFNE01.JPG,AFNE01.JPG,,,,,,,,,,,,,,,,,,,,,2,4,24,4,,,AFSA01.jpg,AFNE01.jpg,AFSA14.jpg,AFNE08.jpg,AFNE08.jpg,FN,3,num_4,32,num_6,1.1997754823,,,2017_Nov_08_1046,60.0061780708,MAFE4ImagesEEG,001,102208,
AFNE01.JPG,AFNE01.JPG,AFNE01.JPG,AFNE01.JPG,AFNE01.JPG,AFNE01.JPG,,,,,,,,,,,,,,,,,,,,,2,5,25,1,,,AFNE14.jpg,AFSA13.jpg,AFSA06.jpg,AFNE20.jpg,AFSA13.jpg,FS,4,num_6,32,num_4,2.01671790495,,,2017_Nov_08_1046,60.0061780708,MAFE4ImagesEEG,001,102208,
AFNE01.JPG,AFNE01.JPG,AFNE01.JPG,AFNE01.JPG,AFNE01.JPG,AFNE01.JPG,,,,,,,,,,,,,,,,,,,,,2,6,26,2,,,AFNE07.jpg,AFSA20.jpg,AFNE08.jpg,AFSA14.jpg,AFSA20.jpg,FS,4,num_6,32,num_8,2.05011298065,,,2017_Nov_08_1046,60.0061780708,MAFE4ImagesEEG,001,102208,
AFNE01.JPG,AFNE01.JPG,AFNE01.JPG,AFNE01.JPG,AFNE01.JPG,AFNE01.JPG,,,,,,,,,,,,,,,,,,,,,2,7,27,0,,,AFSA03.jpg,AFNE16.jpg,AFNE10.jpg,AFSA04.jpg,AFSA04.jpg,FS,4,num_4,32,num_8,1.03333092784,,,2017_Nov_08_1046,60.0061780708,MAFE4ImagesEEG,001,102208,
AFNE01.JPG,AFNE01.JPG,AFNE01.JPG,AFNE01.JPG,AFNE01.JPG,AFNE01.JPG,,,,,,,,,,,,,,,,,,,,,2,8,28,6,,,AFNE06.jpg,AFSA11.jpg,AFSA02.jpg,AFNE18.jpg,AFSA11.jpg,FS,4,num_6,16,num_6,1.25008956646,,,2017_Nov_08_1046,60.0061780708,MAFE4ImagesEEG,001,102208,
AFNE01.JPG,AFNE01.JPG,AFNE01.JPG,AFNE01.JPG,AFNE01.JPG,AFNE01.JPG,,,,,,,,,,,,,,,,,,,,,2,9,29,3,,,AFSA10.jpg,AFSA15.jpg,AFNE08.jpg,AFNE11.jpg,AFNE11.jpg,FN,3,num_4,16,num_4,0.983475821791,,,2017_Nov_08_1046,60.0061780708,MAFE4ImagesEEG,001,102208,
AFNE01.JPG,AFNE01.JPG,AFNE01.JPG,AFNE01.JPG,AFNE01.JPG,AFNE01.JPG,,,,,,,,,,,,,,,,,,,,,3,0,30,5,,,AFSA10.jpg,AFNE18.jpg,AFSA04.jpg,AFNE14.jpg,AFNE18.jpg,FN,3,num_6,32,num_8,0.883499075426,,,2017_Nov_08_1046,60.0061780708,MAFE4ImagesEEG,001,102208,
AFNE01.JPG,AFNE01.JPG,AFNE01.JPG,AFNE01.JPG,AFNE01.JPG,AFNE01.JPG,,,,,,,,,,,,,,,,,,,,,3,1,31,4,,,AFNE04.jpg,AFSA01.jpg,AFNE03.jpg,AFSA15.jpg,AFNE04.jpg,FN,3,num_8,16,num_8,0.833460827358,,,2017_Nov_08_1046,60.0061780708,MAFE4ImagesEEG,001,102208,
AFNE01.JPG,AFNE01.JPG,AFNE01.JPG,AFNE01.JPG,AFNE01.JPG,AFNE01.JPG,,,,,,,,,,,,,,,,,,,,,3,2,32,3,,,AFNE10.jpg,AFNE14.jpg,AFSA16.jpg,AFSA11.jpg,AFSA11.jpg,FS,4,num_4,32,num_8,1.66666281782,,,2017_Nov_08_1046,60.0061780708,MAFE4ImagesEEG,001,102208,
AFNE01.JPG,AFNE01.JPG,AFNE01.JPG,AFNE01.JPG,AFNE01.JPG,AFNE01.JPG,,,,,,,,,,,,,,,,,,,,,3,3,33,1,,,AFSA08.jpg,AFSA03.jpg,AFNE09.jpg,AFNE12.jpg,AFSA03.jpg,FS,4,num_6,32,num_2,1.10014256858,,,2017_Nov_08_1046,60.0061780708,MAFE4ImagesEEG,001,102208,
AFNE01.JPG,AFNE01.JPG,AFNE01.JPG,AFNE01.JPG,AFNE01.JPG,AFNE01.JPG,,,,,,,,,,,,,,,,,,,,,3,4,34,8,,,AFSA14.jpg,AFNE12.jpg,AFNE15.jpg,AFSA07.jpg,AFSA14.jpg,FS,4,num_8,16,num_8,1.88334800722,,,2017_Nov_08_1046,60.0061780708,MAFE4ImagesEEG,001,102208,
AFNE01.JPG,AFNE01.JPG,AFNE01.JPG,AFNE01.JPG,AFNE01.JPG,AFNE01.JPG,,,,,,,,,,,,,,,,,,,,,3,5,35,6,,,AFSA06.jpg,AFNE14.jpg,AFNE08.jpg,AFSA13.jpg,AFSA06.jpg,FS,4,num_8,32,num_2,1.21665792633,,,2017_Nov_08_1046,60.0061780708,MAFE4ImagesEEG,001,102208,
AFNE01.JPG,AFNE01.JPG,AFNE01.JPG,AFNE01.JPG,AFNE01.JPG,AFNE01.JPG,,,,,,,,,,,,,,,,,,,,,3,6,36,7,,,AFNE06.jpg,AFSA12.jpg,AFNE08.jpg,AFSA14.jpg,AFNE06.jpg,FN,3,num_8,16,num_8,1.31673955475,,,2017_Nov_08_1046,60.0061780708,MAFE4ImagesEEG,001,102208,
AFNE01.JPG,AFNE01.JPG,AFNE01.JPG,AFNE01.JPG,AFNE01.JPG,AFNE01.JPG,,,,,,,,,,,,,,,,,,,,,3,7,37,0,,,AFSA09.jpg,AFSA18.jpg,AFNE07.jpg,AFNE17.jpg,AFSA18.jpg,FS,4,num_6,32,num_4,0.866731776856,,,2017_Nov_08_1046,60.0061780708,MAFE4ImagesEEG,001,102208,
AFNE01.JPG,AFNE01.JPG,AFNE01.JPG,AFNE01.JPG,AFNE01.JPG,AFNE01.JPG,,,,,,,,,,,,,,,,,,,,,3,8,38,9,,,AFNE19.jpg,AFSA13.jpg,AFNE04.jpg,AFSA19.jpg,AFSA19.jpg,FS,4,num_4,16,num_4,1.30012268294,,,2017_Nov_08_1046,60.0061780708,MAFE4ImagesEEG,001,102208,
AFNE01.JPG,AFNE01.JPG,AFNE01.JPG,AFNE01.JPG,AFNE01.JPG,AFNE01.JPG,,,,,,,,,,,,,,,,,,,,,3,9,39,2,,,AFSA09.jpg,AFSA18.jpg,AFNE07.jpg,AFNE10.jpg,AFNE10.jpg,FN,3,num_4,16,num_4,0.83344895998,,,2017_Nov_08_1046,60.0061780708,MAFE4ImagesEEG,001,102208,
