IPosition2,IPosition3,IPosition1,IPosition6,IPosition4,IPosition5,TrialsM1.thisRepN,TrialsM1.thisTrialN,TrialsM1.thisN,TrialsM1.thisIndex,TrialsF1.thisRepN,TrialsF1.thisTrialN,TrialsF1.thisN,TrialsF1.thisIndex,TrialsM2.thisRepN,TrialsM2.thisTrialN,TrialsM2.thisN,TrialsM2.thisIndex,TrialsF2.thisRepN,TrialsF2.thisTrialN,TrialsF2.thisN,TrialsF2.thisIndex,TrialsM3.thisRepN,TrialsM3.thisTrialN,TrialsM3.thisN,TrialsM3.thisIndex,TrialsF3.thisRepN,TrialsF3.thisTrialN,TrialsF3.thisN,TrialsF3.thisIndex,InstrKey_resp.keys,InstrKey_resp.rt,Image0 _Position,Image1 _Position,Image2 _Position,Image3 _Position,Center_image,condition,code,correct_answer,accuracy,Key_Resp.keys,Key_Resp.rt,BreakKey_resp.keys,BreakKey_resp.rt,date,frameRate,expName,session,participant,
,,,,,,,,,,,,,,,,,,,,,,,,,,,,,,space,10.8661117873,,,,,,,,,,,,,,2017_Nov_03_1650,59.9985567269,MAFE4ImagesEEG,001,102296,
AMNE22.JPG,AMSA24.JPG,AMSA22.JPG,AMNE25.JPG,AMNE24.JPG,AMSA25.JPG,0,0,0,7,,,,,,,,,,,,,,,,,,,,,,,AMSA20.jpg,AMNE18.jpg,AMNE19.jpg,AMSA06.jpg,AMSA20.jpg,MS,2,num_8,48,None,,,,2017_Nov_03_1650,59.9985567269,MAFE4ImagesEEG,001,102296,
AFNE23.JPG,AFNE24.JPG,AFNE22.JPG,AFSA24.JPG,AFSA22.JPG,AFSA23.JPG,0,1,1,8,,,,,,,,,,,,,,,,,,,,,,,AMSA19.jpg,AMNE01.jpg,AMSA12.jpg,AMNE20.jpg,AMNE01.jpg,MN,1,num_6,32,num_2,0.850135432323,,,2017_Nov_03_1650,59.9985567269,MAFE4ImagesEEG,001,102296,
AMSA25.JPG,AMNE24.JPG,AMSA24.JPG,AMNE26.JPG,AMSA21.JPG,AMNE25.JPG,0,2,2,3,,,,,,,,,,,,,,,,,,,,,,,AMSA10.jpg,AMNE06.jpg,AMNE18.jpg,AMSA07.jpg,AMNE18.jpg,MN,1,num_2,32,num_4,0.816707641119,,,2017_Nov_03_1650,59.9985567269,MAFE4ImagesEEG,001,102296,
AMNE23.JPG,AMNE24.JPG,AMNE22.JPG,AMSA24.JPG,AMSA22.JPG,AMSA23.JPG,0,3,3,9,,,,,,,,,,,,,,,,,,,,,,,AMNE05.jpg,AMSA15.jpg,AMNE16.jpg,AMSA12.jpg,AMSA12.jpg,MS,2,num_4,32,num_8,1.03348456183,,,2017_Nov_03_1650,59.9985567269,MAFE4ImagesEEG,001,102296,
AFSA25.JPG,AFNE24.JPG,AFSA24.JPG,AFNE21.JPG,AFSA21.JPG,AFNE25.JPG,0,4,4,2,,,,,,,,,,,,,,,,,,,,,,,AMNE18.jpg,AMSA03.jpg,AMSA08.jpg,AMNE13.jpg,AMNE18.jpg,MN,1,num_8,32,num_4,1.18344887975,,,2017_Nov_03_1650,59.9985567269,MAFE4ImagesEEG,001,102296,
AFSA21.JPG,AFNE23.JPG,AFNE21.JPG,AFSA25.JPG,AFNE25.JPG,AFSA23.JPG,0,5,5,4,,,,,,,,,,,,,,,,,,,,,,,AMSA14.jpg,AMNE01.jpg,AMSA01.jpg,AMNE17.jpg,AMNE17.jpg,MN,1,num_4,16,num_4,1.20011610771,,,2017_Nov_03_1650,59.9985567269,MAFE4ImagesEEG,001,102296,
AFNE22.JPG,AFSA24.JPG,AFSA22.JPG,AFNE25.JPG,AFNE24.JPG,AFSA25.JPG,0,6,6,6,,,,,,,,,,,,,,,,,,,,,,,AMSA14.jpg,AMNE15.jpg,AMNE16.jpg,AMSA08.jpg,AMSA14.jpg,MS,2,num_8,16,num_8,0.750096141594,,,2017_Nov_03_1650,59.9985567269,MAFE4ImagesEEG,001,102296,
AMSA21.JPG,AMNE23.JPG,AMNE21.JPG,AMSA25.JPG,AMNE25.JPG,AMSA23.JPG,0,7,7,5,,,,,,,,,,,,,,,,,,,,,,,AMNE15.jpg,AMNE01.jpg,AMSA15.jpg,AMSA04.jpg,AMSA15.jpg,MS,2,num_2,32,num_6,0.733509419253,,,2017_Nov_03_1650,59.9985567269,MAFE4ImagesEEG,001,102296,
AFSA21.JPG,AFNE22.JPG,AFNE21.JPG,AFSA23.JPG,AFSA22.JPG,AFNE23.JPG,0,8,8,0,,,,,,,,,,,,,,,,,,,,,,,AMNE11.jpg,AMNE08.jpg,AMSA12.jpg,AMSA14.jpg,AMSA12.jpg,MS,2,num_2,32,num_4,1.08344711573,,,2017_Nov_03_1650,59.9985567269,MAFE4ImagesEEG,001,102296,
AMSA21.JPG,AMNE22.JPG,AMNE21.JPG,AMSA23.JPG,AMSA22.JPG,AMNE23.JPG,0,9,9,1,,,,,,,,,,,,,,,,,,,,,,,AMSA12.jpg,AMNE12.jpg,AMNE01.jpg,AMSA19.jpg,AMNE12.jpg,MN,1,num_6,32,num_2,0.95016061049,,,2017_Nov_03_1650,59.9985567269,MAFE4ImagesEEG,001,102296,
AFNE22.JPG,AFSA24.JPG,AFSA22.JPG,AFNE25.JPG,AFNE24.JPG,AFSA25.JPG,,,,,0,0,0,6,,,,,,,,,,,,,,,,,,,AFNE05.jpg,AFSA07.jpg,AFNE16.jpg,AFSA05.jpg,AFSA07.jpg,FS,4,num_6,16,num_6,0.683490736177,,,2017_Nov_03_1650,59.9985567269,MAFE4ImagesEEG,001,102296,
AMNE22.JPG,AMSA24.JPG,AMSA22.JPG,AMNE25.JPG,AMNE24.JPG,AMSA25.JPG,,,,,0,1,1,7,,,,,,,,,,,,,,,,,,,AFNE19.jpg,AFSA14.jpg,AFNE03.jpg,AFSA17.jpg,AFSA14.jpg,FS,4,num_6,32,num_8,0.98357653385,,,2017_Nov_03_1650,59.9985567269,MAFE4ImagesEEG,001,102296,
AFSA21.JPG,AFNE23.JPG,AFNE21.JPG,AFSA25.JPG,AFNE25.JPG,AFSA23.JPG,,,,,0,2,2,4,,,,,,,,,,,,,,,,,,,AFNE19.jpg,AFSA13.jpg,AFNE10.jpg,AFSA12.jpg,AFSA12.jpg,FS,4,num_4,16,num_4,1.36668446753,,,2017_Nov_03_1650,59.9985567269,MAFE4ImagesEEG,001,102296,
AMSA25.JPG,AMNE24.JPG,AMSA24.JPG,AMNE26.JPG,AMSA21.JPG,AMNE25.JPG,,,,,0,3,3,3,,,,,,,,,,,,,,,,,,,AFNE01.jpg,AFSA18.jpg,AFSA14.jpg,AFNE10.jpg,AFNE01.jpg,FN,3,num_8,16,num_8,0.9334337248,,,2017_Nov_03_1650,59.9985567269,MAFE4ImagesEEG,001,102296,
AMSA21.JPG,AMNE23.JPG,AMNE21.JPG,AMSA25.JPG,AMNE25.JPG,AMSA23.JPG,,,,,0,4,4,5,,,,,,,,,,,,,,,,,,,AFNE08.jpg,AFNE18.jpg,AFSA08.jpg,AFSA01.jpg,AFNE08.jpg,FN,3,num_8,16,num_8,0.683531790739,,,2017_Nov_03_1650,59.9985567269,MAFE4ImagesEEG,001,102296,
AFNE23.JPG,AFNE24.JPG,AFNE22.JPG,AFSA24.JPG,AFSA22.JPG,AFSA23.JPG,,,,,0,5,5,8,,,,,,,,,,,,,,,,,,,AFSA08.jpg,AFNE15.jpg,AFNE06.jpg,AFSA18.jpg,AFNE06.jpg,FN,3,num_2,32,num_6,1.2167522239,,,2017_Nov_03_1650,59.9985567269,MAFE4ImagesEEG,001,102296,
AMSA21.JPG,AMNE22.JPG,AMNE21.JPG,AMSA23.JPG,AMSA22.JPG,AMNE23.JPG,,,,,0,6,6,1,,,,,,,,,,,,,,,,,,,AFNE13.jpg,AFNE17.jpg,AFSA02.jpg,AFSA11.jpg,AFNE17.jpg,FN,3,num_6,32,num_8,0.950130140176,,,2017_Nov_03_1650,59.9985567269,MAFE4ImagesEEG,001,102296,
AFSA25.JPG,AFNE24.JPG,AFSA24.JPG,AFNE21.JPG,AFSA21.JPG,AFNE25.JPG,,,,,0,7,7,2,,,,,,,,,,,,,,,,,,,AFNE08.jpg,AFSA04.jpg,AFSA14.jpg,AFNE15.jpg,AFSA04.jpg,FS,4,num_6,32,num_8,0.733517437708,,,2017_Nov_03_1650,59.9985567269,MAFE4ImagesEEG,001,102296,
AFSA21.JPG,AFNE22.JPG,AFNE21.JPG,AFSA23.JPG,AFSA22.JPG,AFNE23.JPG,,,,,0,8,8,0,,,,,,,,,,,,,,,,,,,AFSA20.jpg,AFNE09.jpg,AFSA04.jpg,AFNE07.jpg,AFSA04.jpg,FS,4,num_2,16,num_2,0.683486887487,,,2017_Nov_03_1650,59.9985567269,MAFE4ImagesEEG,001,102296,
AMNE23.JPG,AMNE24.JPG,AMNE22.JPG,AMSA24.JPG,AMSA22.JPG,AMSA23.JPG,,,,,0,9,9,9,,,,,,,,,,,,,,,,,,,AFSA06.jpg,AFSA01.jpg,AFNE05.jpg,AFNE01.jpg,AFSA06.jpg,FS,4,num_8,16,num_8,0.733478949172,,,2017_Nov_03_1650,59.9985567269,MAFE4ImagesEEG,001,102296,
AMSA21.JPG,AMNE23.JPG,AMNE21.JPG,AMSA25.JPG,AMNE25.JPG,AMSA23.JPG,,,,,,,,,0,0,0,5,,,,,,,,,,,,,,,AMNE15.jpg,AMSA18.jpg,AMSA17.jpg,AMNE11.jpg,AMSA18.jpg,MS,2,num_6,16,num_6,0.583488330478,,,2017_Nov_03_1650,59.9985567269,MAFE4ImagesEEG,001,102296,
AMSA25.JPG,AMNE24.JPG,AMSA24.JPG,AMNE26.JPG,AMSA21.JPG,AMNE25.JPG,,,,,,,,,0,1,1,3,,,,,,,,,,,,,,,AMSA07.jpg,AMSA15.jpg,AMNE10.jpg,AMNE17.jpg,AMNE17.jpg,MN,1,num_4,16,num_4,0.716783816926,,,2017_Nov_03_1650,59.9985567269,MAFE4ImagesEEG,001,102296,
AFNE23.JPG,AFNE24.JPG,AFNE22.JPG,AFSA24.JPG,AFSA22.JPG,AFSA23.JPG,,,,,,,,,0,2,2,8,,,,,,,,,,,,,,,AMNE01.jpg,AMSA05.jpg,AMSA13.jpg,AMNE05.jpg,AMSA05.jpg,MS,2,num_6,16,num_6,0.933420574525,,,2017_Nov_03_1650,59.9985567269,MAFE4ImagesEEG,001,102296,
AFSA25.JPG,AFNE24.JPG,AFSA24.JPG,AFNE21.JPG,AFSA21.JPG,AFNE25.JPG,,,,,,,,,0,3,3,2,,,,,,,,,,,,,,,AMNE01.jpg,AMSA06.jpg,AMSA01.jpg,AMNE04.jpg,AMSA01.jpg,MS,2,num_2,32,num_8,0.95014296961,,,2017_Nov_03_1650,59.9985567269,MAFE4ImagesEEG,001,102296,
AFSA21.JPG,AFNE22.JPG,AFNE21.JPG,AFSA23.JPG,AFSA22.JPG,AFNE23.JPG,,,,,,,,,0,4,4,0,,,,,,,,,,,,,,,AMNE12.jpg,AMSA14.jpg,AMNE19.jpg,AMSA05.jpg,AMNE19.jpg,MN,1,num_2,32,num_8,1.31657918496,,,2017_Nov_03_1650,59.9985567269,MAFE4ImagesEEG,001,102296,
AMNE22.JPG,AMSA24.JPG,AMSA22.JPG,AMNE25.JPG,AMNE24.JPG,AMSA25.JPG,,,,,,,,,0,5,5,7,,,,,,,,,,,,,,,AMNE02.jpg,AMNE17.jpg,AMSA02.jpg,AMSA16.jpg,AMSA02.jpg,MS,2,num_2,16,num_2,1.11676585535,,,2017_Nov_03_1650,59.9985567269,MAFE4ImagesEEG,001,102296,
AMSA21.JPG,AMNE22.JPG,AMNE21.JPG,AMSA23.JPG,AMSA22.JPG,AMNE23.JPG,,,,,,,,,0,6,6,1,,,,,,,,,,,,,,,AMNE15.jpg,AMSA09.jpg,AMNE13.jpg,AMSA08.jpg,AMSA08.jpg,MS,2,num_4,16,num_4,1.48348368006,,,2017_Nov_03_1650,59.9985567269,MAFE4ImagesEEG,001,102296,
AFNE22.JPG,AFSA24.JPG,AFSA22.JPG,AFNE25.JPG,AFNE24.JPG,AFSA25.JPG,,,,,,,,,0,7,7,6,,,,,,,,,,,,,,,AMSA09.jpg,AMNE13.jpg,AMSA11.jpg,AMNE14.jpg,AMNE13.jpg,MN,1,num_6,16,num_6,0.716801457573,,,2017_Nov_03_1650,59.9985567269,MAFE4ImagesEEG,001,102296,
AMNE23.JPG,AMNE24.JPG,AMNE22.JPG,AMSA24.JPG,AMSA22.JPG,AMSA23.JPG,,,,,,,,,0,8,8,9,,,,,,,,,,,,,,,AMSA01.jpg,AMSA17.jpg,AMNE19.jpg,AMNE05.jpg,AMSA01.jpg,MS,2,num_8,16,num_8,0.583544139285,,,2017_Nov_03_1650,59.9985567269,MAFE4ImagesEEG,001,102296,
AFSA21.JPG,AFNE23.JPG,AFNE21.JPG,AFSA25.JPG,AFNE25.JPG,AFSA23.JPG,,,,,,,,,0,9,9,4,,,,,,,,,,,,,,,AMNE07.jpg,AMSA20.jpg,AMSA07.jpg,AMNE15.jpg,AMNE07.jpg,MN,1,num_8,16,num_8,0.9664471203,,,2017_Nov_03_1650,59.9985567269,MAFE4ImagesEEG,001,102296,
AFSA21.JPG,AFNE23.JPG,AFNE21.JPG,AFSA25.JPG,AFNE25.JPG,AFSA23.JPG,,,,,,,,,,,,,0,0,0,4,,,,,,,,,,,AFSA16.jpg,AFSA08.jpg,AFNE16.jpg,AFNE11.jpg,AFNE11.jpg,FN,3,num_4,32,num_6,1.35008106683,,,2017_Nov_03_1650,59.9985567269,MAFE4ImagesEEG,001,102296,
AFNE22.JPG,AFSA24.JPG,AFSA22.JPG,AFNE25.JPG,AFNE24.JPG,AFSA25.JPG,,,,,,,,,,,,,0,1,1,6,,,,,,,,,,,AFNE10.jpg,AFNE08.jpg,AFSA09.jpg,AFSA13.jpg,AFNE08.jpg,FN,3,num_6,32,num_8,0.93351326813,,,2017_Nov_03_1650,59.9985567269,MAFE4ImagesEEG,001,102296,
AFSA25.JPG,AFNE24.JPG,AFSA24.JPG,AFNE21.JPG,AFSA21.JPG,AFNE25.JPG,,,,,,,,,,,,,0,2,2,2,,,,,,,,,,,AFNE09.jpg,AFSA03.jpg,AFSA12.jpg,AFNE19.jpg,AFSA12.jpg,FS,4,num_2,16,num_2,0.93372206972,,,2017_Nov_03_1650,59.9985567269,MAFE4ImagesEEG,001,102296,
AMSA21.JPG,AMNE23.JPG,AMNE21.JPG,AMSA25.JPG,AMNE25.JPG,AMSA23.JPG,,,,,,,,,,,,,0,3,3,5,,,,,,,,,,,AFNE18.jpg,AFNE01.jpg,AFSA16.jpg,AFSA01.jpg,AFNE01.jpg,FN,3,num_6,16,num_6,1.36669184477,,,2017_Nov_03_1650,59.9985567269,MAFE4ImagesEEG,001,102296,
AMSA21.JPG,AMNE22.JPG,AMNE21.JPG,AMSA23.JPG,AMSA22.JPG,AMNE23.JPG,,,,,,,,,,,,,0,4,4,1,,,,,,,,,,,AFNE17.jpg,AFSA08.jpg,AFNE15.jpg,AFSA15.jpg,AFSA15.jpg,FS,4,num_4,16,num_4,1.26676032273,,,2017_Nov_03_1650,59.9985567269,MAFE4ImagesEEG,001,102296,
AFNE23.JPG,AFNE24.JPG,AFNE22.JPG,AFSA24.JPG,AFSA22.JPG,AFSA23.JPG,,,,,,,,,,,,,0,5,5,8,,,,,,,,,,,AFNE15.jpg,AFNE13.jpg,AFSA20.jpg,AFSA05.jpg,AFSA20.jpg,FS,4,num_2,32,num_4,0.983483519638,,,2017_Nov_03_1650,59.9985567269,MAFE4ImagesEEG,001,102296,
AMNE23.JPG,AMNE24.JPG,AMNE22.JPG,AMSA24.JPG,AMSA22.JPG,AMSA23.JPG,,,,,,,,,,,,,0,6,6,9,,,,,,,,,,,AFNE16.jpg,AFNE17.jpg,AFSA14.jpg,AFSA11.jpg,AFSA14.jpg,FS,4,num_2,32,num_6,0.816794240847,,,2017_Nov_03_1650,59.9985567269,MAFE4ImagesEEG,001,102296,
AMSA25.JPG,AMNE24.JPG,AMSA24.JPG,AMNE26.JPG,AMSA21.JPG,AMNE25.JPG,,,,,,,,,,,,,0,7,7,3,,,,,,,,,,,AFSA12.jpg,AFNE13.jpg,AFNE20.jpg,AFSA20.jpg,AFNE13.jpg,FN,3,num_6,32,num_8,0.833501882153,,,2017_Nov_03_1650,59.9985567269,MAFE4ImagesEEG,001,102296,
AMNE22.JPG,AMSA24.JPG,AMSA22.JPG,AMNE25.JPG,AMNE24.JPG,AMSA25.JPG,,,,,,,,,,,,,0,8,8,7,,,,,,,,,,,AFSA05.jpg,AFNE20.jpg,AFSA15.jpg,AFNE15.jpg,AFNE15.jpg,FN,3,num_4,16,num_4,1.4333944344,,,2017_Nov_03_1650,59.9985567269,MAFE4ImagesEEG,001,102296,
AFSA21.JPG,AFNE22.JPG,AFNE21.JPG,AFSA23.JPG,AFSA22.JPG,AFNE23.JPG,,,,,,,,,,,,,0,9,9,0,,,,,,,,,,,AFSA11.jpg,AFNE03.jpg,AFSA18.jpg,AFNE15.jpg,AFSA18.jpg,FS,4,num_2,16,num_2,0.950118914247,,,2017_Nov_03_1650,59.9985567269,MAFE4ImagesEEG,001,102296,
AFNE23.JPG,AFNE24.JPG,AFNE22.JPG,AFSA24.JPG,AFSA22.JPG,AFSA23.JPG,,,,,,,,,,,,,,,,,0,0,0,8,,,,,,,AMNE14.jpg,AMSA13.jpg,AMSA09.jpg,AMNE01.jpg,AMNE14.jpg,MN,1,num_8,32,num_4,1.20008243015,,,2017_Nov_03_1650,59.9985567269,MAFE4ImagesEEG,001,102296,
AFSA25.JPG,AFNE24.JPG,AFSA24.JPG,AFNE21.JPG,AFSA21.JPG,AFNE25.JPG,,,,,,,,,,,,,,,,,0,1,1,2,,,,,,,AMNE09.jpg,AMSA09.jpg,AMNE02.jpg,AMSA13.jpg,AMSA13.jpg,MS,2,num_4,32,num_2,1.03340918827,,,2017_Nov_03_1650,59.9985567269,MAFE4ImagesEEG,001,102296,
AMSA21.JPG,AMNE23.JPG,AMNE21.JPG,AMSA25.JPG,AMNE25.JPG,AMSA23.JPG,,,,,,,,,,,,,,,,,0,2,2,5,,,,,,,AMNE15.jpg,AMSA18.jpg,AMSA06.jpg,AMNE08.jpg,AMSA18.jpg,MS,2,num_6,16,num_6,1.90036965231,,,2017_Nov_03_1650,59.9985567269,MAFE4ImagesEEG,001,102296,
AFNE22.JPG,AFSA24.JPG,AFSA22.JPG,AFNE25.JPG,AFNE24.JPG,AFSA25.JPG,,,,,,,,,,,,,,,,,0,3,3,6,,,,,,,AMSA06.jpg,AMSA11.jpg,AMNE06.jpg,AMNE03.jpg,AMNE03.jpg,MN,1,num_4,16,num_4,0.866802339442,,,2017_Nov_03_1650,59.9985567269,MAFE4ImagesEEG,001,102296,
AFSA21.JPG,AFNE22.JPG,AFNE21.JPG,AFSA23.JPG,AFSA22.JPG,AFNE23.JPG,,,,,,,,,,,,,,,,,0,4,4,0,,,,,,,AMSA16.jpg,AMNE02.jpg,AMNE09.jpg,AMSA12.jpg,AMSA12.jpg,MS,2,num_4,16,num_4,0.966625130968,,,2017_Nov_03_1650,59.9985567269,MAFE4ImagesEEG,001,102296,
AMNE22.JPG,AMSA24.JPG,AMSA22.JPG,AMNE25.JPG,AMNE24.JPG,AMSA25.JPG,,,,,,,,,,,,,,,,,0,5,5,7,,,,,,,AMSA11.jpg,AMNE13.jpg,AMNE12.jpg,AMSA02.jpg,AMNE12.jpg,MN,1,num_2,32,num_6,2.23335498315,,,2017_Nov_03_1650,59.9985567269,MAFE4ImagesEEG,001,102296,
AMNE23.JPG,AMNE24.JPG,AMNE22.JPG,AMSA24.JPG,AMSA22.JPG,AMSA23.JPG,,,,,,,,,,,,,,,,,0,6,6,9,,,,,,,AMSA20.jpg,AMNE10.jpg,AMSA02.jpg,AMNE08.jpg,AMNE08.jpg,MN,1,num_4,32,num_8,0.666767058196,,,2017_Nov_03_1650,59.9985567269,MAFE4ImagesEEG,001,102296,
AMSA21.JPG,AMNE22.JPG,AMNE21.JPG,AMSA23.JPG,AMSA22.JPG,AMNE23.JPG,,,,,,,,,,,,,,,,,0,7,7,1,,,,,,,AMNE10.jpg,AMSA02.jpg,AMNE06.jpg,AMSA20.jpg,AMSA02.jpg,MS,2,num_6,32,num_4,1.01678397716,,,2017_Nov_03_1650,59.9985567269,MAFE4ImagesEEG,001,102296,
AMSA25.JPG,AMNE24.JPG,AMSA24.JPG,AMNE26.JPG,AMSA21.JPG,AMNE25.JPG,,,,,,,,,,,,,,,,,0,8,8,3,,,,,,,AMNE20.jpg,AMNE02.jpg,AMSA08.jpg,AMSA12.jpg,AMNE02.jpg,MN,1,num_6,16,num_6,0.816760883899,,,2017_Nov_03_1650,59.9985567269,MAFE4ImagesEEG,001,102296,
AFSA21.JPG,AFNE23.JPG,AFNE21.JPG,AFSA25.JPG,AFNE25.JPG,AFSA23.JPG,,,,,,,,,,,,,,,,,0,9,9,4,,,,,,,AMSA04.jpg,AMNE16.jpg,AMSA03.jpg,AMNE05.jpg,AMSA04.jpg,MS,2,num_8,16,num_8,1.61667364277,,,2017_Nov_03_1650,59.9985567269,MAFE4ImagesEEG,001,102296,
AMNE22.JPG,AMSA24.JPG,AMSA22.JPG,AMNE25.JPG,AMNE24.JPG,AMSA25.JPG,,,,,,,,,,,,,,,,,,,,,0,0,0,7,,,AFNE03.jpg,AFSA06.jpg,AFSA16.jpg,AFNE07.jpg,AFSA06.jpg,FS,4,num_6,32,num_2,1.28340894775,,,2017_Nov_03_1650,59.9985567269,MAFE4ImagesEEG,001,102296,
AFSA21.JPG,AFNE23.JPG,AFNE21.JPG,AFSA25.JPG,AFNE25.JPG,AFSA23.JPG,,,,,,,,,,,,,,,,,,,,,0,1,1,4,,,AFNE12.jpg,AFSA19.jpg,AFNE16.jpg,AFSA06.jpg,AFNE12.jpg,FN,3,num_8,16,num_8,0.550126611954,,,2017_Nov_03_1650,59.9985567269,MAFE4ImagesEEG,001,102296,
AMSA21.JPG,AMNE22.JPG,AMNE21.JPG,AMSA23.JPG,AMSA22.JPG,AMNE23.JPG,,,,,,,,,,,,,,,,,,,,,0,2,2,1,,,AFNE14.jpg,AFNE03.jpg,AFSA20.jpg,AFSA08.jpg,AFNE14.jpg,FN,3,num_8,16,num_8,0.666791113559,,,2017_Nov_03_1650,59.9985567269,MAFE4ImagesEEG,001,102296,
AMSA21.JPG,AMNE23.JPG,AMNE21.JPG,AMSA25.JPG,AMNE25.JPG,AMSA23.JPG,,,,,,,,,,,,,,,,,,,,,0,3,3,5,,,AFSA01.jpg,AFSA11.jpg,AFNE07.jpg,AFNE10.jpg,AFNE07.jpg,FN,3,num_2,16,num_2,1.86674396484,,,2017_Nov_03_1650,59.9985567269,MAFE4ImagesEEG,001,102296,
AFSA21.JPG,AFNE22.JPG,AFNE21.JPG,AFSA23.JPG,AFSA22.JPG,AFNE23.JPG,,,,,,,,,,,,,,,,,,,,,0,4,4,0,,,AFSA07.jpg,AFSA04.jpg,AFNE07.jpg,AFNE19.jpg,AFSA07.jpg,FS,4,num_8,16,num_8,0.716865284601,,,2017_Nov_03_1650,59.9985567269,MAFE4ImagesEEG,001,102296,
AFSA25.JPG,AFNE24.JPG,AFSA24.JPG,AFNE21.JPG,AFSA21.JPG,AFNE25.JPG,,,,,,,,,,,,,,,,,,,,,0,5,5,2,,,AFNE02.jpg,AFSA20.jpg,AFSA08.jpg,AFNE08.jpg,AFSA20.jpg,FS,4,num_6,32,num_2,1.31680017454,,,2017_Nov_03_1650,59.9985567269,MAFE4ImagesEEG,001,102296,
AFNE23.JPG,AFNE24.JPG,AFNE22.JPG,AFSA24.JPG,AFSA22.JPG,AFSA23.JPG,,,,,,,,,,,,,,,,,,,,,0,6,6,8,,,AFNE16.jpg,AFSA09.jpg,AFSA14.jpg,AFNE15.jpg,AFNE15.jpg,FN,3,num_4,32,num_8,0.716789910803,,,2017_Nov_03_1650,59.9985567269,MAFE4ImagesEEG,001,102296,
AMNE23.JPG,AMNE24.JPG,AMNE22.JPG,AMSA24.JPG,AMSA22.JPG,AMSA23.JPG,,,,,,,,,,,,,,,,,,,,,0,7,7,9,,,AFSA06.jpg,AFSA09.jpg,AFNE01.jpg,AFNE04.jpg,AFSA09.jpg,FS,4,num_6,16,num_6,1.40045128041,,,2017_Nov_03_1650,59.9985567269,MAFE4ImagesEEG,001,102296,
AMSA25.JPG,AMNE24.JPG,AMSA24.JPG,AMNE26.JPG,AMSA21.JPG,AMNE25.JPG,,,,,,,,,,,,,,,,,,,,,0,8,8,3,,,AFNE05.jpg,AFSA14.jpg,AFSA11.jpg,AFNE19.jpg,AFSA14.jpg,FS,4,num_6,32,num_2,1.28346475633,,,2017_Nov_03_1650,59.9985567269,MAFE4ImagesEEG,001,102296,
AFNE22.JPG,AFSA24.JPG,AFSA22.JPG,AFNE25.JPG,AFNE24.JPG,AFSA25.JPG,,,,,,,,,,,,,,,,,,,,,0,9,9,6,,,AFSA02.jpg,AFSA11.jpg,AFNE07.jpg,AFNE17.jpg,AFSA11.jpg,FS,4,num_6,16,num_6,0.716798250098,,,2017_Nov_03_1650,59.9985567269,MAFE4ImagesEEG,001,102296,
,,,,,,,,,,,,,,,,,,,,,,,,,,,,,,,,,,,,,,,,,,,space,5.36645866698,2017_Nov_03_1650,59.9985567269,MAFE4ImagesEEG,001,102296,
AFNE01.JPG,AFNE01.JPG,AFNE01.JPG,AFNE01.JPG,AFNE01.JPG,AFNE01.JPG,0,0,0,4,,,,,,,,,,,,,,,,,,,,,,,AMSA08.jpg,AMNE08.jpg,AMNE04.jpg,AMSA18.jpg,AMNE04.jpg,MN,1,num_2,32,num_4,0.749855907634,,,2017_Nov_03_1650,59.9985567269,MAFE4ImagesEEG,001,102296,
AFNE01.JPG,AFNE01.JPG,AFNE01.JPG,AFNE01.JPG,AFNE01.JPG,AFNE01.JPG,0,1,1,5,,,,,,,,,,,,,,,,,,,,,,,AMNE15.jpg,AMSA16.jpg,AMSA20.jpg,AMNE18.jpg,AMSA20.jpg,MS,2,num_2,32,num_6,0.766800575424,,,2017_Nov_03_1650,59.9985567269,MAFE4ImagesEEG,001,102296,
AFNE01.JPG,AFNE01.JPG,AFNE01.JPG,AFNE01.JPG,AFNE01.JPG,AFNE01.JPG,0,2,2,9,,,,,,,,,,,,,,,,,,,,,,,AMSA15.jpg,AMNE07.jpg,AMSA20.jpg,AMNE04.jpg,AMSA20.jpg,MS,2,num_2,32,num_8,0.600145936478,,,2017_Nov_03_1650,59.9985567269,MAFE4ImagesEEG,001,102296,
AFNE01.JPG,AFNE01.JPG,AFNE01.JPG,AFNE01.JPG,AFNE01.JPG,AFNE01.JPG,0,3,3,3,,,,,,,,,,,,,,,,,,,,,,,AMSA06.jpg,AMSA08.jpg,AMNE11.jpg,AMNE18.jpg,AMSA08.jpg,MS,2,num_6,32,num_4,0.866756794276,,,2017_Nov_03_1650,59.9985567269,MAFE4ImagesEEG,001,102296,
AFNE01.JPG,AFNE01.JPG,AFNE01.JPG,AFNE01.JPG,AFNE01.JPG,AFNE01.JPG,0,4,4,1,,,,,,,,,,,,,,,,,,,,,,,AMNE20.jpg,AMSA01.jpg,AMNE10.jpg,AMSA02.jpg,AMNE10.jpg,MN,1,num_2,32,num_8,0.883312405087,,,2017_Nov_03_1650,59.9985567269,MAFE4ImagesEEG,001,102296,
AFNE01.JPG,AFNE01.JPG,AFNE01.JPG,AFNE01.JPG,AFNE01.JPG,AFNE01.JPG,0,5,5,2,,,,,,,,,,,,,,,,,,,,,,,AMSA01.jpg,AMSA18.jpg,AMNE13.jpg,AMNE04.jpg,AMSA01.jpg,MS,2,num_8,16,num_8,0.933503966779,,,2017_Nov_03_1650,59.9985567269,MAFE4ImagesEEG,001,102296,
AFNE01.JPG,AFNE01.JPG,AFNE01.JPG,AFNE01.JPG,AFNE01.JPG,AFNE01.JPG,0,6,6,6,,,,,,,,,,,,,,,,,,,,,,,AMNE08.jpg,AMSA16.jpg,AMSA08.jpg,AMNE16.jpg,AMNE16.jpg,MN,1,num_4,32,num_2,0.850181939546,,,2017_Nov_03_1650,59.9985567269,MAFE4ImagesEEG,001,102296,
AFNE01.JPG,AFNE01.JPG,AFNE01.JPG,AFNE01.JPG,AFNE01.JPG,AFNE01.JPG,0,7,7,7,,,,,,,,,,,,,,,,,,,,,,,AMSA04.jpg,AMNE18.jpg,AMSA16.jpg,AMNE06.jpg,AMSA16.jpg,MS,2,num_2,32,num_4,0.600225800648,,,2017_Nov_03_1650,59.9985567269,MAFE4ImagesEEG,001,102296,
AFNE01.JPG,AFNE01.JPG,AFNE01.JPG,AFNE01.JPG,AFNE01.JPG,AFNE01.JPG,0,8,8,8,,,,,,,,,,,,,,,,,,,,,,,AMSA03.jpg,AMNE17.jpg,AMNE04.jpg,AMSA19.jpg,AMSA03.jpg,MS,2,num_8,16,num_8,0.533744521439,,,2017_Nov_03_1650,59.9985567269,MAFE4ImagesEEG,001,102296,
AFNE01.JPG,AFNE01.JPG,AFNE01.JPG,AFNE01.JPG,AFNE01.JPG,AFNE01.JPG,0,9,9,0,,,,,,,,,,,,,,,,,,,,,,,AMNE20.jpg,AMNE09.jpg,AMSA05.jpg,AMSA07.jpg,AMSA05.jpg,MS,2,num_2,16,num_2,0.933613980422,,,2017_Nov_03_1650,59.9985567269,MAFE4ImagesEEG,001,102296,
AFNE01.JPG,AFNE01.JPG,AFNE01.JPG,AFNE01.JPG,AFNE01.JPG,AFNE01.JPG,1,0,10,2,,,,,,,,,,,,,,,,,,,,,,,AMSA14.jpg,AMNE20.jpg,AMNE05.jpg,AMSA08.jpg,AMSA08.jpg,MS,2,num_4,16,num_4,1.01675446914,,,2017_Nov_03_1650,59.9985567269,MAFE4ImagesEEG,001,102296,
AFNE01.JPG,AFNE01.JPG,AFNE01.JPG,AFNE01.JPG,AFNE01.JPG,AFNE01.JPG,1,1,11,1,,,,,,,,,,,,,,,,,,,,,,,AMSA01.jpg,AMSA08.jpg,AMNE11.jpg,AMNE09.jpg,AMNE11.jpg,MN,1,num_2,16,num_2,1.20009365608,,,2017_Nov_03_1650,59.9985567269,MAFE4ImagesEEG,001,102296,
AFNE01.JPG,AFNE01.JPG,AFNE01.JPG,AFNE01.JPG,AFNE01.JPG,AFNE01.JPG,1,2,12,4,,,,,,,,,,,,,,,,,,,,,,,AMNE02.jpg,AMSA04.jpg,AMSA19.jpg,AMNE19.jpg,AMNE02.jpg,MN,1,num_8,16,num_8,1.43339635874,,,2017_Nov_03_1650,59.9985567269,MAFE4ImagesEEG,001,102296,
AFNE01.JPG,AFNE01.JPG,AFNE01.JPG,AFNE01.JPG,AFNE01.JPG,AFNE01.JPG,1,3,13,7,,,,,,,,,,,,,,,,,,,,,,,AMNE13.jpg,AMSA09.jpg,AMSA14.jpg,AMNE17.jpg,AMNE17.jpg,MN,1,num_4,16,num_4,1.46681613126,,,2017_Nov_03_1650,59.9985567269,MAFE4ImagesEEG,001,102296,
AFNE01.JPG,AFNE01.JPG,AFNE01.JPG,AFNE01.JPG,AFNE01.JPG,AFNE01.JPG,1,4,14,3,,,,,,,,,,,,,,,,,,,,,,,AMSA08.jpg,AMNE03.jpg,AMSA18.jpg,AMNE05.jpg,AMNE03.jpg,MN,1,num_6,32,num_8,1.01677275123,,,2017_Nov_03_1650,59.9985567269,MAFE4ImagesEEG,001,102296,
AFNE01.JPG,AFNE01.JPG,AFNE01.JPG,AFNE01.JPG,AFNE01.JPG,AFNE01.JPG,1,5,15,6,,,,,,,,,,,,,,,,,,,,,,,AMNE19.jpg,AMNE03.jpg,AMSA04.jpg,AMSA20.jpg,AMNE03.jpg,MN,1,num_6,32,num_8,1.10014449316,,,2017_Nov_03_1650,59.9985567269,MAFE4ImagesEEG,001,102296,
AFNE01.JPG,AFNE01.JPG,AFNE01.JPG,AFNE01.JPG,AFNE01.JPG,AFNE01.JPG,1,6,16,9,,,,,,,,,,,,,,,,,,,,,,,AMSA02.jpg,AMNE11.jpg,AMSA04.jpg,AMNE10.jpg,AMSA02.jpg,MS,2,num_8,16,num_8,0.750147780636,,,2017_Nov_03_1650,59.9985567269,MAFE4ImagesEEG,001,102296,
AFNE01.JPG,AFNE01.JPG,AFNE01.JPG,AFNE01.JPG,AFNE01.JPG,AFNE01.JPG,1,7,17,8,,,,,,,,,,,,,,,,,,,,,,,AMNE07.jpg,AMNE10.jpg,AMSA19.jpg,AMSA16.jpg,AMNE10.jpg,MN,1,num_6,16,num_6,0.883488170337,,,2017_Nov_03_1650,59.9985567269,MAFE4ImagesEEG,001,102296,
AFNE01.JPG,AFNE01.JPG,AFNE01.JPG,AFNE01.JPG,AFNE01.JPG,AFNE01.JPG,1,8,18,5,,,,,,,,,,,,,,,,,,,,,,,AMSA07.jpg,AMNE03.jpg,AMNE08.jpg,AMSA03.jpg,AMSA07.jpg,MS,2,num_8,16,num_8,1.05020182533,,,2017_Nov_03_1650,59.9985567269,MAFE4ImagesEEG,001,102296,
AFNE01.JPG,AFNE01.JPG,AFNE01.JPG,AFNE01.JPG,AFNE01.JPG,AFNE01.JPG,1,9,19,0,,,,,,,,,,,,,,,,,,,,,,,AMNE03.jpg,AMSA17.jpg,AMNE09.jpg,AMSA04.jpg,AMSA04.jpg,MS,2,num_4,16,num_4,0.750168628991,,,2017_Nov_03_1650,59.9985567269,MAFE4ImagesEEG,001,102296,
AFNE01.JPG,AFNE01.JPG,AFNE01.JPG,AFNE01.JPG,AFNE01.JPG,AFNE01.JPG,2,0,20,5,,,,,,,,,,,,,,,,,,,,,,,AMSA10.jpg,AMSA04.jpg,AMNE06.jpg,AMNE10.jpg,AMSA04.jpg,MS,2,num_6,16,num_6,0.766767218476,,,2017_Nov_03_1650,59.9985567269,MAFE4ImagesEEG,001,102296,
AFNE01.JPG,AFNE01.JPG,AFNE01.JPG,AFNE01.JPG,AFNE01.JPG,AFNE01.JPG,2,1,21,6,,,,,,,,,,,,,,,,,,,,,,,AMSA03.jpg,AMSA17.jpg,AMNE07.jpg,AMNE19.jpg,AMNE19.jpg,MN,1,num_4,16,num_4,1.21675446909,,,2017_Nov_03_1650,59.9985567269,MAFE4ImagesEEG,001,102296,
AFNE01.JPG,AFNE01.JPG,AFNE01.JPG,AFNE01.JPG,AFNE01.JPG,AFNE01.JPG,2,2,22,2,,,,,,,,,,,,,,,,,,,,,,,AMSA18.jpg,AMSA14.jpg,AMNE06.jpg,AMNE16.jpg,AMNE06.jpg,MN,1,num_2,32,num_4,1.31669914164,,,2017_Nov_03_1650,59.9985567269,MAFE4ImagesEEG,001,102296,
AFNE01.JPG,AFNE01.JPG,AFNE01.JPG,AFNE01.JPG,AFNE01.JPG,AFNE01.JPG,2,3,23,4,,,,,,,,,,,,,,,,,,,,,,,AMNE18.jpg,AMNE02.jpg,AMSA19.jpg,AMSA08.jpg,AMNE02.jpg,MN,1,num_6,32,num_8,0.799957020907,,,2017_Nov_03_1650,59.9985567269,MAFE4ImagesEEG,001,102296,
AFNE01.JPG,AFNE01.JPG,AFNE01.JPG,AFNE01.JPG,AFNE01.JPG,AFNE01.JPG,2,4,24,8,,,,,,,,,,,,,,,,,,,,,,,AMSA05.jpg,AMSA12.jpg,AMNE18.jpg,AMNE16.jpg,AMSA12.jpg,MS,2,num_6,32,num_4,0.766785179731,,,2017_Nov_03_1650,59.9985567269,MAFE4ImagesEEG,001,102296,
AFNE01.JPG,AFNE01.JPG,AFNE01.JPG,AFNE01.JPG,AFNE01.JPG,AFNE01.JPG,2,5,25,1,,,,,,,,,,,,,,,,,,,,,,,AMSA14.jpg,AMNE04.jpg,AMSA08.jpg,AMNE06.jpg,AMNE04.jpg,MN,1,num_6,32,num_8,0.983505971264,,,2017_Nov_03_1650,59.9985567269,MAFE4ImagesEEG,001,102296,
AFNE01.JPG,AFNE01.JPG,AFNE01.JPG,AFNE01.JPG,AFNE01.JPG,AFNE01.JPG,2,6,26,3,,,,,,,,,,,,,,,,,,,,,,,AMNE12.jpg,AMSA10.jpg,AMNE14.jpg,AMSA15.jpg,AMNE12.jpg,MN,1,num_8,32,num_6,0.633476864314,,,2017_Nov_03_1650,59.9985567269,MAFE4ImagesEEG,001,102296,
AFNE01.JPG,AFNE01.JPG,AFNE01.JPG,AFNE01.JPG,AFNE01.JPG,AFNE01.JPG,2,7,27,0,,,,,,,,,,,,,,,,,,,,,,,AMNE03.jpg,AMSA18.jpg,AMNE07.jpg,AMSA02.jpg,AMSA02.jpg,MS,2,num_4,16,num_4,0.566800575238,,,2017_Nov_03_1650,59.9985567269,MAFE4ImagesEEG,001,102296,
AFNE01.JPG,AFNE01.JPG,AFNE01.JPG,AFNE01.JPG,AFNE01.JPG,AFNE01.JPG,2,8,28,9,,,,,,,,,,,,,,,,,,,,,,,AMNE01.jpg,AMSA08.jpg,AMSA16.jpg,AMNE05.jpg,AMSA16.jpg,MS,2,num_2,16,num_2,1.23345729918,,,2017_Nov_03_1650,59.9985567269,MAFE4ImagesEEG,001,102296,
AFNE01.JPG,AFNE01.JPG,AFNE01.JPG,AFNE01.JPG,AFNE01.JPG,AFNE01.JPG,2,9,29,7,,,,,,,,,,,,,,,,,,,,,,,AMNE14.jpg,AMSA12.jpg,AMNE02.jpg,AMSA17.jpg,AMNE14.jpg,MN,1,num_8,32,num_4,0.716770987259,,,2017_Nov_03_1650,59.9985567269,MAFE4ImagesEEG,001,102296,
AFNE01.JPG,AFNE01.JPG,AFNE01.JPG,AFNE01.JPG,AFNE01.JPG,AFNE01.JPG,3,0,30,1,,,,,,,,,,,,,,,,,,,,,,,AMNE13.jpg,AMSA17.jpg,AMSA02.jpg,AMNE04.jpg,AMNE04.jpg,MN,1,num_4,16,num_4,0.783413919155,,,2017_Nov_03_1650,59.9985567269,MAFE4ImagesEEG,001,102296,
AFNE01.JPG,AFNE01.JPG,AFNE01.JPG,AFNE01.JPG,AFNE01.JPG,AFNE01.JPG,3,1,31,2,,,,,,,,,,,,,,,,,,,,,,,AMSA03.jpg,AMNE17.jpg,AMNE06.jpg,AMSA05.jpg,AMNE06.jpg,MN,1,num_2,32,num_8,1.16678453842,,,2017_Nov_03_1650,59.9985567269,MAFE4ImagesEEG,001,102296,
AFNE01.JPG,AFNE01.JPG,AFNE01.JPG,AFNE01.JPG,AFNE01.JPG,AFNE01.JPG,3,2,32,0,,,,,,,,,,,,,,,,,,,,,,,AMSA04.jpg,AMNE02.jpg,AMSA13.jpg,AMNE08.jpg,AMSA13.jpg,MS,2,num_2,32,num_4,0.883473416325,,,2017_Nov_03_1650,59.9985567269,MAFE4ImagesEEG,001,102296,
AFNE01.JPG,AFNE01.JPG,AFNE01.JPG,AFNE01.JPG,AFNE01.JPG,AFNE01.JPG,3,3,33,7,,,,,,,,,,,,,,,,,,,,,,,AMSA11.jpg,AMNE04.jpg,AMSA18.jpg,AMNE16.jpg,AMNE04.jpg,MN,1,num_6,16,num_6,1.23354261578,,,2017_Nov_03_1650,59.9985567269,MAFE4ImagesEEG,001,102296,
AFNE01.JPG,AFNE01.JPG,AFNE01.JPG,AFNE01.JPG,AFNE01.JPG,AFNE01.JPG,3,4,34,4,,,,,,,,,,,,,,,,,,,,,,,AMNE02.jpg,AMSA11.jpg,AMNE16.jpg,AMSA07.jpg,AMNE16.jpg,MN,1,num_2,16,num_2,1.03345056367,,,2017_Nov_03_1650,59.9985567269,MAFE4ImagesEEG,001,102296,
AFNE01.JPG,AFNE01.JPG,AFNE01.JPG,AFNE01.JPG,AFNE01.JPG,AFNE01.JPG,3,5,35,6,,,,,,,,,,,,,,,,,,,,,,,AMNE03.jpg,AMSA06.jpg,AMSA11.jpg,AMNE01.jpg,AMNE03.jpg,MN,1,num_8,32,num_4,1.21675992152,,,2017_Nov_03_1650,59.9985567269,MAFE4ImagesEEG,001,102296,
AFNE01.JPG,AFNE01.JPG,AFNE01.JPG,AFNE01.JPG,AFNE01.JPG,AFNE01.JPG,3,6,36,8,,,,,,,,,,,,,,,,,,,,,,,AMNE12.jpg,AMSA16.jpg,AMNE20.jpg,AMSA17.jpg,AMNE20.jpg,MN,1,num_2,16,num_2,1.56675727549,,,2017_Nov_03_1650,59.9985567269,MAFE4ImagesEEG,001,102296,
AFNE01.JPG,AFNE01.JPG,AFNE01.JPG,AFNE01.JPG,AFNE01.JPG,AFNE01.JPG,3,7,37,3,,,,,,,,,,,,,,,,,,,,,,,AMNE03.jpg,AMNE16.jpg,AMSA20.jpg,AMSA19.jpg,AMSA19.jpg,MS,2,num_4,32,num_2,3.18334175274,,,2017_Nov_03_1650,59.9985567269,MAFE4ImagesEEG,001,102296,
AFNE01.JPG,AFNE01.JPG,AFNE01.JPG,AFNE01.JPG,AFNE01.JPG,AFNE01.JPG,3,8,38,9,,,,,,,,,,,,,,,,,,,,,,,AMSA03.jpg,AMNE01.jpg,AMSA11.jpg,AMNE08.jpg,AMSA03.jpg,MS,2,num_8,32,num_2,0.733469647588,,,2017_Nov_03_1650,59.9985567269,MAFE4ImagesEEG,001,102296,
AFNE01.JPG,AFNE01.JPG,AFNE01.JPG,AFNE01.JPG,AFNE01.JPG,AFNE01.JPG,3,9,39,5,,,,,,,,,,,,,,,,,,,,,,,AMSA12.jpg,AMNE04.jpg,AMSA07.jpg,AMNE14.jpg,AMSA12.jpg,MS,2,num_8,16,num_8,1.36676112446,,,2017_Nov_03_1650,59.9985567269,MAFE4ImagesEEG,001,102296,
AFNE01.JPG,AFNE01.JPG,AFNE01.JPG,AFNE01.JPG,AFNE01.JPG,AFNE01.JPG,4,0,40,5,,,,,,,,,,,,,,,,,,,,,,,AMSA03.jpg,AMSA15.jpg,AMNE10.jpg,AMNE06.jpg,AMSA03.jpg,MS,2,num_8,16,num_8,1.6667074007,,,2017_Nov_03_1650,59.9985567269,MAFE4ImagesEEG,001,102296,
AFNE01.JPG,AFNE01.JPG,AFNE01.JPG,AFNE01.JPG,AFNE01.JPG,AFNE01.JPG,4,1,41,7,,,,,,,,,,,,,,,,,,,,,,,AMNE12.jpg,AMSA02.jpg,AMSA19.jpg,AMNE05.jpg,AMNE12.jpg,MN,1,num_8,32,num_4,1.11676104413,,,2017_Nov_03_1650,59.9985567269,MAFE4ImagesEEG,001,102296,
AFNE01.JPG,AFNE01.JPG,AFNE01.JPG,AFNE01.JPG,AFNE01.JPG,AFNE01.JPG,4,2,42,3,,,,,,,,,,,,,,,,,,,,,,,AMNE17.jpg,AMSA10.jpg,AMSA05.jpg,AMNE14.jpg,AMNE14.jpg,MN,1,num_4,16,num_4,1.25011682929,,,2017_Nov_03_1650,59.9985567269,MAFE4ImagesEEG,001,102296,
AFNE01.JPG,AFNE01.JPG,AFNE01.JPG,AFNE01.JPG,AFNE01.JPG,AFNE01.JPG,4,3,43,8,,,,,,,,,,,,,,,,,,,,,,,AMNE03.jpg,AMSA08.jpg,AMSA14.jpg,AMNE10.jpg,AMNE03.jpg,MN,1,num_8,16,num_8,1.11675174278,,,2017_Nov_03_1650,59.9985567269,MAFE4ImagesEEG,001,102296,
AFNE01.JPG,AFNE01.JPG,AFNE01.JPG,AFNE01.JPG,AFNE01.JPG,AFNE01.JPG,4,4,44,0,,,,,,,,,,,,,,,,,,,,,,,AMSA13.jpg,AMNE02.jpg,AMNE03.jpg,AMSA03.jpg,AMSA03.jpg,MS,2,num_4,32,num_2,2.56665335596,,,2017_Nov_03_1650,59.9985567269,MAFE4ImagesEEG,001,102296,
AFNE01.JPG,AFNE01.JPG,AFNE01.JPG,AFNE01.JPG,AFNE01.JPG,AFNE01.JPG,4,5,45,1,,,,,,,,,,,,,,,,,,,,,,,AMSA04.jpg,AMNE04.jpg,AMNE17.jpg,AMSA09.jpg,AMNE17.jpg,MN,1,num_2,32,num_8,0.716832248261,,,2017_Nov_03_1650,59.9985567269,MAFE4ImagesEEG,001,102296,
AFNE01.JPG,AFNE01.JPG,AFNE01.JPG,AFNE01.JPG,AFNE01.JPG,AFNE01.JPG,4,6,46,4,,,,,,,,,,,,,,,,,,,,,,,AMSA12.jpg,AMNE14.jpg,AMSA09.jpg,AMNE03.jpg,AMNE03.jpg,MN,1,num_4,16,num_4,0.983793033287,,,2017_Nov_03_1650,59.9985567269,MAFE4ImagesEEG,001,102296,
AFNE01.JPG,AFNE01.JPG,AFNE01.JPG,AFNE01.JPG,AFNE01.JPG,AFNE01.JPG,4,7,47,6,,,,,,,,,,,,,,,,,,,,,,,AMNE06.jpg,AMNE13.jpg,AMSA10.jpg,AMSA20.jpg,AMSA10.jpg,MS,2,num_2,32,num_6,0.733475420857,,,2017_Nov_03_1650,59.9985567269,MAFE4ImagesEEG,001,102296,
AFNE01.JPG,AFNE01.JPG,AFNE01.JPG,AFNE01.JPG,AFNE01.JPG,AFNE01.JPG,4,8,48,9,,,,,,,,,,,,,,,,,,,,,,,AMNE03.jpg,AMNE16.jpg,AMSA18.jpg,AMSA06.jpg,AMSA18.jpg,MS,2,num_2,16,num_2,0.666807471309,,,2017_Nov_03_1650,59.9985567269,MAFE4ImagesEEG,001,102296,
AFNE01.JPG,AFNE01.JPG,AFNE01.JPG,AFNE01.JPG,AFNE01.JPG,AFNE01.JPG,4,9,49,2,,,,,,,,,,,,,,,,,,,,,,,AMNE01.jpg,AMNE15.jpg,AMSA03.jpg,AMSA06.jpg,AMSA06.jpg,MS,2,num_4,16,num_4,0.883451605914,,,2017_Nov_03_1650,59.9985567269,MAFE4ImagesEEG,001,102296,
AFNE01.JPG,AFNE01.JPG,AFNE01.JPG,AFNE01.JPG,AFNE01.JPG,AFNE01.JPG,5,0,50,7,,,,,,,,,,,,,,,,,,,,,,,AMSA02.jpg,AMSA20.jpg,AMNE07.jpg,AMNE06.jpg,AMNE07.jpg,MN,1,num_2,16,num_2,1.28332363116,,,2017_Nov_03_1650,59.9985567269,MAFE4ImagesEEG,001,102296,
AFNE01.JPG,AFNE01.JPG,AFNE01.JPG,AFNE01.JPG,AFNE01.JPG,AFNE01.JPG,5,1,51,8,,,,,,,,,,,,,,,,,,,,,,,AMSA14.jpg,AMNE13.jpg,AMNE12.jpg,AMSA03.jpg,AMSA14.jpg,MS,2,num_8,16,num_8,0.916417852975,,,2017_Nov_03_1650,59.9985567269,MAFE4ImagesEEG,001,102296,
AFNE01.JPG,AFNE01.JPG,AFNE01.JPG,AFNE01.JPG,AFNE01.JPG,AFNE01.JPG,5,2,52,5,,,,,,,,,,,,,,,,,,,,,,,AMSA12.jpg,AMNE06.jpg,AMNE11.jpg,AMSA20.jpg,AMSA20.jpg,MS,2,num_4,32,num_8,1.11670908448,,,2017_Nov_03_1650,59.9985567269,MAFE4ImagesEEG,001,102296,
AFNE01.JPG,AFNE01.JPG,AFNE01.JPG,AFNE01.JPG,AFNE01.JPG,AFNE01.JPG,5,3,53,4,,,,,,,,,,,,,,,,,,,,,,,AMSA20.jpg,AMNE03.jpg,AMSA04.jpg,AMNE01.jpg,AMSA20.jpg,MS,2,num_8,16,num_8,1.38339531631,,,2017_Nov_03_1650,59.9985567269,MAFE4ImagesEEG,001,102296,
AFNE01.JPG,AFNE01.JPG,AFNE01.JPG,AFNE01.JPG,AFNE01.JPG,AFNE01.JPG,5,4,54,0,,,,,,,,,,,,,,,,,,,,,,,AMNE11.jpg,AMSA06.jpg,AMSA09.jpg,AMNE13.jpg,AMSA06.jpg,MS,2,num_6,16,num_6,0.950145214796,,,2017_Nov_03_1650,59.9985567269,MAFE4ImagesEEG,001,102296,
AFNE01.JPG,AFNE01.JPG,AFNE01.JPG,AFNE01.JPG,AFNE01.JPG,AFNE01.JPG,5,5,55,1,,,,,,,,,,,,,,,,,,,,,,,AMSA05.jpg,AMNE09.jpg,AMSA07.jpg,AMNE04.jpg,AMNE09.jpg,MN,1,num_6,32,num_8,1.4501303006,,,2017_Nov_03_1650,59.9985567269,MAFE4ImagesEEG,001,102296,
AFNE01.JPG,AFNE01.JPG,AFNE01.JPG,AFNE01.JPG,AFNE01.JPG,AFNE01.JPG,5,6,56,2,,,,,,,,,,,,,,,,,,,,,,,AMSA14.jpg,AMSA17.jpg,AMNE13.jpg,AMNE20.jpg,AMSA14.jpg,MS,2,num_8,16,num_8,0.733557850821,,,2017_Nov_03_1650,59.9985567269,MAFE4ImagesEEG,001,102296,
AFNE01.JPG,AFNE01.JPG,AFNE01.JPG,AFNE01.JPG,AFNE01.JPG,AFNE01.JPG,5,7,57,3,,,,,,,,,,,,,,,,,,,,,,,AMSA15.jpg,AMNE14.jpg,AMNE08.jpg,AMSA10.jpg,AMNE14.jpg,MN,1,num_6,16,num_6,1.31678477908,,,2017_Nov_03_1650,59.9985567269,MAFE4ImagesEEG,001,102296,
AFNE01.JPG,AFNE01.JPG,AFNE01.JPG,AFNE01.JPG,AFNE01.JPG,AFNE01.JPG,5,8,58,6,,,,,,,,,,,,,,,,,,,,,,,AMNE08.jpg,AMSA05.jpg,AMSA06.jpg,AMNE16.jpg,AMNE16.jpg,MN,1,num_4,16,num_4,0.983453049324,,,2017_Nov_03_1650,59.9985567269,MAFE4ImagesEEG,001,102296,
AFNE01.JPG,AFNE01.JPG,AFNE01.JPG,AFNE01.JPG,AFNE01.JPG,AFNE01.JPG,5,9,59,9,,,,,,,,,,,,,,,,,,,,,,,AMSA19.jpg,AMSA07.jpg,AMNE02.jpg,AMNE14.jpg,AMNE14.jpg,MN,1,num_4,16,num_4,1.28343300312,,,2017_Nov_03_1650,59.9985567269,MAFE4ImagesEEG,001,102296,
,,,,,,,,,,,,,,,,,,,,,,,,,,,,,,,,,,,,,,,,,,,space,8.98281830573,2017_Nov_03_1650,59.9985567269,MAFE4ImagesEEG,001,102296,
AFNE01.JPG,AFNE01.JPG,AFNE01.JPG,AFNE01.JPG,AFNE01.JPG,AFNE01.JPG,,,,,0,0,0,6,,,,,,,,,,,,,,,,,,,AFSA08.jpg,AFNE16.jpg,AFSA06.jpg,AFNE15.jpg,AFNE16.jpg,FN,3,num_6,32,num_4,0.850123244105,,,2017_Nov_03_1650,59.9985567269,MAFE4ImagesEEG,001,102296,
AFNE01.JPG,AFNE01.JPG,AFNE01.JPG,AFNE01.JPG,AFNE01.JPG,AFNE01.JPG,,,,,0,1,1,7,,,,,,,,,,,,,,,,,,,AFSA20.jpg,AFNE09.jpg,AFSA09.jpg,AFNE08.jpg,AFSA09.jpg,FS,4,num_2,32,num_8,0.950132385362,,,2017_Nov_03_1650,59.9985567269,MAFE4ImagesEEG,001,102296,
AFNE01.JPG,AFNE01.JPG,AFNE01.JPG,AFNE01.JPG,AFNE01.JPG,AFNE01.JPG,,,,,0,2,2,5,,,,,,,,,,,,,,,,,,,AFSA17.jpg,AFSA14.jpg,AFNE01.jpg,AFNE17.jpg,AFNE01.jpg,FN,3,num_2,32,num_4,1.05013190419,,,2017_Nov_03_1650,59.9985567269,MAFE4ImagesEEG,001,102296,
AFNE01.JPG,AFNE01.JPG,AFNE01.JPG,AFNE01.JPG,AFNE01.JPG,AFNE01.JPG,,,,,0,3,3,9,,,,,,,,,,,,,,,,,,,AFSA07.jpg,AFNE03.jpg,AFNE10.jpg,AFSA20.jpg,AFNE03.jpg,FN,3,num_6,32,num_8,0.70015058713,,,2017_Nov_03_1650,59.9985567269,MAFE4ImagesEEG,001,102296,
AFNE01.JPG,AFNE01.JPG,AFNE01.JPG,AFNE01.JPG,AFNE01.JPG,AFNE01.JPG,,,,,0,4,4,1,,,,,,,,,,,,,,,,,,,AFNE14.jpg,AFSA10.jpg,AFNE15.jpg,AFSA17.jpg,AFNE15.jpg,FN,3,num_2,32,num_6,1.35005925666,,,2017_Nov_03_1650,59.9985567269,MAFE4ImagesEEG,001,102296,
AFNE01.JPG,AFNE01.JPG,AFNE01.JPG,AFNE01.JPG,AFNE01.JPG,AFNE01.JPG,,,,,0,5,5,8,,,,,,,,,,,,,,,,,,,AFSA17.jpg,AFNE06.jpg,AFNE12.jpg,AFSA05.jpg,AFNE06.jpg,FN,3,num_6,32,num_8,1.0501379983,,,2017_Nov_03_1650,59.9985567269,MAFE4ImagesEEG,001,102296,
AFNE01.JPG,AFNE01.JPG,AFNE01.JPG,AFNE01.JPG,AFNE01.JPG,AFNE01.JPG,,,,,0,6,6,3,,,,,,,,,,,,,,,,,,,AFNE17.jpg,AFSA11.jpg,AFNE03.jpg,AFSA07.jpg,AFNE17.jpg,FN,3,num_8,32,num_2,1.01679488225,,,2017_Nov_03_1650,59.9985567269,MAFE4ImagesEEG,001,102296,
AFNE01.JPG,AFNE01.JPG,AFNE01.JPG,AFNE01.JPG,AFNE01.JPG,AFNE01.JPG,,,,,0,7,7,2,,,,,,,,,,,,,,,,,,,AFSA03.jpg,AFSA06.jpg,AFNE03.jpg,AFNE20.jpg,AFSA06.jpg,FS,4,num_6,16,num_6,0.916794401128,,,2017_Nov_03_1650,59.9985567269,MAFE4ImagesEEG,001,102296,
AFNE01.JPG,AFNE01.JPG,AFNE01.JPG,AFNE01.JPG,AFNE01.JPG,AFNE01.JPG,,,,,0,8,8,4,,,,,,,,,,,,,,,,,,,AFNE09.jpg,AFSA20.jpg,AFSA15.jpg,AFNE01.jpg,AFSA20.jpg,FS,4,num_6,32,num_4,0.900115947239,,,2017_Nov_03_1650,59.9985567269,MAFE4ImagesEEG,001,102296,
AFNE01.JPG,AFNE01.JPG,AFNE01.JPG,AFNE01.JPG,AFNE01.JPG,AFNE01.JPG,,,,,0,9,9,0,,,,,,,,,,,,,,,,,,,AFSA07.jpg,AFNE13.jpg,AFNE05.jpg,AFSA08.jpg,AFSA07.jpg,FS,4,num_8,16,num_8,0.866765454412,,,2017_Nov_03_1650,59.9985567269,MAFE4ImagesEEG,001,102296,
AFNE01.JPG,AFNE01.JPG,AFNE01.JPG,AFNE01.JPG,AFNE01.JPG,AFNE01.JPG,,,,,1,0,10,1,,,,,,,,,,,,,,,,,,,AFSA14.jpg,AFNE15.jpg,AFNE04.jpg,AFSA16.jpg,AFNE15.jpg,FN,3,num_6,32,num_2,1.0838300786,,,2017_Nov_03_1650,59.9985567269,MAFE4ImagesEEG,001,102296,
AFNE01.JPG,AFNE01.JPG,AFNE01.JPG,AFNE01.JPG,AFNE01.JPG,AFNE01.JPG,,,,,1,1,11,6,,,,,,,,,,,,,,,,,,,AFNE13.jpg,AFSA16.jpg,AFSA11.jpg,AFNE02.jpg,AFSA11.jpg,FS,4,num_2,32,num_8,1.25013062102,,,2017_Nov_03_1650,59.9985567269,MAFE4ImagesEEG,001,102296,
AFNE01.JPG,AFNE01.JPG,AFNE01.JPG,AFNE01.JPG,AFNE01.JPG,AFNE01.JPG,,,,,1,2,12,7,,,,,,,,,,,,,,,,,,,AFSA05.jpg,AFNE06.jpg,AFNE15.jpg,AFSA15.jpg,AFNE15.jpg,FN,3,num_2,16,num_2,0.633475902025,,,2017_Nov_03_1650,59.9985567269,MAFE4ImagesEEG,001,102296,
AFNE01.JPG,AFNE01.JPG,AFNE01.JPG,AFNE01.JPG,AFNE01.JPG,AFNE01.JPG,,,,,1,3,13,5,,,,,,,,,,,,,,,,,,,AFSA02.jpg,AFNE04.jpg,AFSA12.jpg,AFNE01.jpg,AFSA12.jpg,FS,4,num_2,16,num_2,0.583519442473,,,2017_Nov_03_1650,59.9985567269,MAFE4ImagesEEG,001,102296,
AFNE01.JPG,AFNE01.JPG,AFNE01.JPG,AFNE01.JPG,AFNE01.JPG,AFNE01.JPG,,,,,1,4,14,2,,,,,,,,,,,,,,,,,,,AFNE18.jpg,AFNE09.jpg,AFSA20.jpg,AFSA10.jpg,AFSA10.jpg,FS,4,num_4,32,num_8,0.68345288909,,,2017_Nov_03_1650,59.9985567269,MAFE4ImagesEEG,001,102296,
AFNE01.JPG,AFNE01.JPG,AFNE01.JPG,AFNE01.JPG,AFNE01.JPG,AFNE01.JPG,,,,,1,5,15,4,,,,,,,,,,,,,,,,,,,AFNE01.jpg,AFNE04.jpg,AFSA14.jpg,AFSA02.jpg,AFSA02.jpg,FS,4,num_4,16,num_4,0.783439578256,,,2017_Nov_03_1650,59.9985567269,MAFE4ImagesEEG,001,102296,
AFNE01.JPG,AFNE01.JPG,AFNE01.JPG,AFNE01.JPG,AFNE01.JPG,AFNE01.JPG,,,,,1,6,16,0,,,,,,,,,,,,,,,,,,,AFNE17.jpg,AFSA07.jpg,AFSA08.jpg,AFNE15.jpg,AFNE17.jpg,FN,3,num_8,16,num_8,0.65016173292,,,2017_Nov_03_1650,59.9985567269,MAFE4ImagesEEG,001,102296,
AFNE01.JPG,AFNE01.JPG,AFNE01.JPG,AFNE01.JPG,AFNE01.JPG,AFNE01.JPG,,,,,1,7,17,3,,,,,,,,,,,,,,,,,,,AFNE19.jpg,AFSA16.jpg,AFNE17.jpg,AFSA11.jpg,AFSA16.jpg,FS,4,num_6,32,num_4,0.566942021484,,,2017_Nov_03_1650,59.9985567269,MAFE4ImagesEEG,001,102296,
AFNE01.JPG,AFNE01.JPG,AFNE01.JPG,AFNE01.JPG,AFNE01.JPG,AFNE01.JPG,,,,,1,8,18,9,,,,,,,,,,,,,,,,,,,AFNE06.jpg,AFSA15.jpg,AFSA17.jpg,AFNE18.jpg,AFSA17.jpg,FS,4,num_2,16,num_2,1.83336075651,,,2017_Nov_03_1650,59.9985567269,MAFE4ImagesEEG,001,102296,
AFNE01.JPG,AFNE01.JPG,AFNE01.JPG,AFNE01.JPG,AFNE01.JPG,AFNE01.JPG,,,,,1,9,19,8,,,,,,,,,,,,,,,,,,,AFSA11.jpg,AFNE14.jpg,AFSA16.jpg,AFNE08.jpg,AFNE08.jpg,FN,3,num_4,16,num_4,0.716791835381,,,2017_Nov_03_1650,59.9985567269,MAFE4ImagesEEG,001,102296,
AFNE01.JPG,AFNE01.JPG,AFNE01.JPG,AFNE01.JPG,AFNE01.JPG,AFNE01.JPG,,,,,2,0,20,8,,,,,,,,,,,,,,,,,,,AFSA18.jpg,AFNE01.jpg,AFSA05.jpg,AFNE10.jpg,AFSA18.jpg,FS,4,num_8,32,num_4,0.966773312539,,,2017_Nov_03_1650,59.9985567269,MAFE4ImagesEEG,001,102296,
AFNE01.JPG,AFNE01.JPG,AFNE01.JPG,AFNE01.JPG,AFNE01.JPG,AFNE01.JPG,,,,,2,1,21,9,,,,,,,,,,,,,,,,,,,AFSA18.jpg,AFNE14.jpg,AFSA16.jpg,AFNE07.jpg,AFNE07.jpg,FN,3,num_4,16,num_4,0.583509178832,,,2017_Nov_03_1650,59.9985567269,MAFE4ImagesEEG,001,102296,
AFNE01.JPG,AFNE01.JPG,AFNE01.JPG,AFNE01.JPG,AFNE01.JPG,AFNE01.JPG,,,,,2,2,22,4,,,,,,,,,,,,,,,,,,,AFSA13.jpg,AFNE07.jpg,AFNE01.jpg,AFSA09.jpg,AFNE01.jpg,FN,3,num_2,32,num_4,1.26660444308,,,2017_Nov_03_1650,59.9985567269,MAFE4ImagesEEG,001,102296,
AFNE01.JPG,AFNE01.JPG,AFNE01.JPG,AFNE01.JPG,AFNE01.JPG,AFNE01.JPG,,,,,2,3,23,6,,,,,,,,,,,,,,,,,,,AFNE05.jpg,AFSA01.jpg,AFSA17.jpg,AFNE01.jpg,AFSA17.jpg,FS,4,num_2,16,num_2,1.00017704815,,,2017_Nov_03_1650,59.9985567269,MAFE4ImagesEEG,001,102296,
AFNE01.JPG,AFNE01.JPG,AFNE01.JPG,AFNE01.JPG,AFNE01.JPG,AFNE01.JPG,,,,,2,4,24,3,,,,,,,,,,,,,,,,,,,AFNE18.jpg,AFNE09.jpg,AFSA01.jpg,AFSA18.jpg,AFNE09.jpg,FN,3,num_6,32,num_8,1.10017496347,,,2017_Nov_03_1650,59.9985567269,MAFE4ImagesEEG,001,102296,
AFNE01.JPG,AFNE01.JPG,AFNE01.JPG,AFNE01.JPG,AFNE01.JPG,AFNE01.JPG,,,,,2,5,25,1,,,,,,,,,,,,,,,,,,,AFNE04.jpg,AFSA02.jpg,AFSA07.jpg,AFNE14.jpg,AFSA07.jpg,FS,4,num_2,16,num_2,1.3834075043,,,2017_Nov_03_1650,59.9985567269,MAFE4ImagesEEG,001,102296,
AFNE01.JPG,AFNE01.JPG,AFNE01.JPG,AFNE01.JPG,AFNE01.JPG,AFNE01.JPG,,,,,2,6,26,7,,,,,,,,,,,,,,,,,,,AFSA16.jpg,AFNE17.jpg,AFSA18.jpg,AFNE07.jpg,AFNE17.jpg,FN,3,num_6,32,num_2,1.13340197154,,,2017_Nov_03_1650,59.9985567269,MAFE4ImagesEEG,001,102296,
AFNE01.JPG,AFNE01.JPG,AFNE01.JPG,AFNE01.JPG,AFNE01.JPG,AFNE01.JPG,,,,,2,7,27,2,,,,,,,,,,,,,,,,,,,AFNE11.jpg,AFNE01.jpg,AFSA04.jpg,AFSA17.jpg,AFSA17.jpg,FS,4,num_4,16,num_4,0.750139120733,,,2017_Nov_03_1650,59.9985567269,MAFE4ImagesEEG,001,102296,
AFNE01.JPG,AFNE01.JPG,AFNE01.JPG,AFNE01.JPG,AFNE01.JPG,AFNE01.JPG,,,,,2,8,28,0,,,,,,,,,,,,,,,,,,,AFNE12.jpg,AFSA04.jpg,AFNE08.jpg,AFSA03.jpg,AFSA03.jpg,FS,4,num_4,16,num_4,0.833499636734,,,2017_Nov_03_1650,59.9985567269,MAFE4ImagesEEG,001,102296,
AFNE01.JPG,AFNE01.JPG,AFNE01.JPG,AFNE01.JPG,AFNE01.JPG,AFNE01.JPG,,,,,2,9,29,5,,,,,,,,,,,,,,,,,,,AFSA01.jpg,AFNE09.jpg,AFSA08.jpg,AFNE11.jpg,AFNE09.jpg,FN,3,num_6,32,num_8,0.550105442991,,,2017_Nov_03_1650,59.9985567269,MAFE4ImagesEEG,001,102296,
AFNE01.JPG,AFNE01.JPG,AFNE01.JPG,AFNE01.JPG,AFNE01.JPG,AFNE01.JPG,,,,,3,0,30,2,,,,,,,,,,,,,,,,,,,AFNE15.jpg,AFSA03.jpg,AFSA05.jpg,AFNE19.jpg,AFNE19.jpg,FN,3,num_4,16,num_4,0.900490250206,,,2017_Nov_03_1650,59.9985567269,MAFE4ImagesEEG,001,102296,
AFNE01.JPG,AFNE01.JPG,AFNE01.JPG,AFNE01.JPG,AFNE01.JPG,AFNE01.JPG,,,,,3,1,31,1,,,,,,,,,,,,,,,,,,,AFNE01.jpg,AFSA17.jpg,AFNE15.jpg,AFSA04.jpg,AFSA04.jpg,FS,4,num_4,32,num_6,0.883492660709,,,2017_Nov_03_1650,59.9985567269,MAFE4ImagesEEG,001,102296,
AFNE01.JPG,AFNE01.JPG,AFNE01.JPG,AFNE01.JPG,AFNE01.JPG,AFNE01.JPG,,,,,3,2,32,3,,,,,,,,,,,,,,,,,,,AFNE12.jpg,AFSA11.jpg,AFNE13.jpg,AFSA03.jpg,AFSA03.jpg,FS,4,num_4,16,num_4,1.13343404536,,,2017_Nov_03_1650,59.9985567269,MAFE4ImagesEEG,001,102296,
AFNE01.JPG,AFNE01.JPG,AFNE01.JPG,AFNE01.JPG,AFNE01.JPG,AFNE01.JPG,,,,,3,3,33,7,,,,,,,,,,,,,,,,,,,AFSA04.jpg,AFSA10.jpg,AFNE20.jpg,AFNE18.jpg,AFNE18.jpg,FN,3,num_4,32,num_2,1.30010279687,,,2017_Nov_03_1650,59.9985567269,MAFE4ImagesEEG,001,102296,
AFNE01.JPG,AFNE01.JPG,AFNE01.JPG,AFNE01.JPG,AFNE01.JPG,AFNE01.JPG,,,,,3,4,34,8,,,,,,,,,,,,,,,,,,,AFNE17.jpg,AFSA13.jpg,AFNE15.jpg,AFSA10.jpg,AFSA13.jpg,FS,4,num_6,16,num_6,1.1001146643,,,2017_Nov_03_1650,59.9985567269,MAFE4ImagesEEG,001,102296,
AFNE01.JPG,AFNE01.JPG,AFNE01.JPG,AFNE01.JPG,AFNE01.JPG,AFNE01.JPG,,,,,3,5,35,0,,,,,,,,,,,,,,,,,,,AFSA06.jpg,AFNE04.jpg,AFNE16.jpg,AFSA17.jpg,AFNE04.jpg,FN,3,num_6,32,num_4,1.18343091826,,,2017_Nov_03_1650,59.9985567269,MAFE4ImagesEEG,001,102296,
AFNE01.JPG,AFNE01.JPG,AFNE01.JPG,AFNE01.JPG,AFNE01.JPG,AFNE01.JPG,,,,,3,6,36,5,,,,,,,,,,,,,,,,,,,AFSA02.jpg,AFSA07.jpg,AFNE03.jpg,AFNE09.jpg,AFSA07.jpg,FS,4,num_6,16,num_6,0.550209041918,,,2017_Nov_03_1650,59.9985567269,MAFE4ImagesEEG,001,102296,
AFNE01.JPG,AFNE01.JPG,AFNE01.JPG,AFNE01.JPG,AFNE01.JPG,AFNE01.JPG,,,,,3,7,37,9,,,,,,,,,,,,,,,,,,,AFSA19.jpg,AFNE17.jpg,AFNE18.jpg,AFSA07.jpg,AFNE17.jpg,FN,3,num_6,32,num_8,0.816514876671,,,2017_Nov_03_1650,59.9985567269,MAFE4ImagesEEG,001,102296,
AFNE01.JPG,AFNE01.JPG,AFNE01.JPG,AFNE01.JPG,AFNE01.JPG,AFNE01.JPG,,,,,3,8,38,6,,,,,,,,,,,,,,,,,,,AFSA07.jpg,AFNE20.jpg,AFNE19.jpg,AFSA20.jpg,AFSA07.jpg,FS,4,num_8,32,num_4,1.90007553413,,,2017_Nov_03_1650,59.9985567269,MAFE4ImagesEEG,001,102296,
AFNE01.JPG,AFNE01.JPG,AFNE01.JPG,AFNE01.JPG,AFNE01.JPG,AFNE01.JPG,,,,,3,9,39,4,,,,,,,,,,,,,,,,,,,AFNE17.jpg,AFSA03.jpg,AFSA10.jpg,AFNE05.jpg,AFSA03.jpg,FS,4,num_6,32,num_8,0.716834814521,,,2017_Nov_03_1650,59.9985567269,MAFE4ImagesEEG,001,102296,
AFNE01.JPG,AFNE01.JPG,AFNE01.JPG,AFNE01.JPG,AFNE01.JPG,AFNE01.JPG,,,,,4,0,40,4,,,,,,,,,,,,,,,,,,,AFNE15.jpg,AFNE18.jpg,AFSA05.jpg,AFSA01.jpg,AFSA01.jpg,FS,4,num_4,16,num_4,0.800146578113,,,2017_Nov_03_1650,59.9985567269,MAFE4ImagesEEG,001,102296,
AFNE01.JPG,AFNE01.JPG,AFNE01.JPG,AFNE01.JPG,AFNE01.JPG,AFNE01.JPG,,,,,4,1,41,2,,,,,,,,,,,,,,,,,,,AFSA12.jpg,AFNE06.jpg,AFSA18.jpg,AFNE18.jpg,AFNE06.jpg,FN,3,num_6,32,num_8,0.78352842317,,,2017_Nov_03_1650,59.9985567269,MAFE4ImagesEEG,001,102296,
AFNE01.JPG,AFNE01.JPG,AFNE01.JPG,AFNE01.JPG,AFNE01.JPG,AFNE01.JPG,,,,,4,2,42,7,,,,,,,,,,,,,,,,,,,AFSA02.jpg,AFNE11.jpg,AFSA03.jpg,AFNE20.jpg,AFNE20.jpg,FN,3,num_4,32,num_2,0.766730974894,,,2017_Nov_03_1650,59.9985567269,MAFE4ImagesEEG,001,102296,
AFNE01.JPG,AFNE01.JPG,AFNE01.JPG,AFNE01.JPG,AFNE01.JPG,AFNE01.JPG,,,,,4,3,43,9,,,,,,,,,,,,,,,,,,,AFSA10.jpg,AFSA03.jpg,AFNE15.jpg,AFNE02.jpg,AFNE15.jpg,FN,3,num_2,32,num_8,1.20007986412,,,2017_Nov_03_1650,59.9985567269,MAFE4ImagesEEG,001,102296,
AFNE01.JPG,AFNE01.JPG,AFNE01.JPG,AFNE01.JPG,AFNE01.JPG,AFNE01.JPG,,,,,4,4,44,1,,,,,,,,,,,,,,,,,,,AFNE04.jpg,AFNE19.jpg,AFSA07.jpg,AFSA16.jpg,AFSA16.jpg,FS,4,num_4,32,num_2,0.750154837035,,,2017_Nov_03_1650,59.9985567269,MAFE4ImagesEEG,001,102296,
AFNE01.JPG,AFNE01.JPG,AFNE01.JPG,AFNE01.JPG,AFNE01.JPG,AFNE01.JPG,,,,,4,5,45,8,,,,,,,,,,,,,,,,,,,AFNE08.jpg,AFSA14.jpg,AFSA01.jpg,AFNE16.jpg,AFNE16.jpg,FN,3,num_4,16,num_4,0.616787184495,,,2017_Nov_03_1650,59.9985567269,MAFE4ImagesEEG,001,102296,
AFNE01.JPG,AFNE01.JPG,AFNE01.JPG,AFNE01.JPG,AFNE01.JPG,AFNE01.JPG,,,,,4,6,46,6,,,,,,,,,,,,,,,,,,,AFNE08.jpg,AFSA09.jpg,AFSA12.jpg,AFNE04.jpg,AFSA12.jpg,FS,4,num_2,16,num_2,0.449993344722,,,2017_Nov_03_1650,59.9985567269,MAFE4ImagesEEG,001,102296,
AFNE01.JPG,AFNE01.JPG,AFNE01.JPG,AFNE01.JPG,AFNE01.JPG,AFNE01.JPG,,,,,4,7,47,3,,,,,,,,,,,,,,,,,,,AFSA16.jpg,AFNE14.jpg,AFNE13.jpg,AFSA19.jpg,AFNE13.jpg,FN,3,num_2,32,num_8,1.00008820323,,,2017_Nov_03_1650,59.9985567269,MAFE4ImagesEEG,001,102296,
AFNE01.JPG,AFNE01.JPG,AFNE01.JPG,AFNE01.JPG,AFNE01.JPG,AFNE01.JPG,,,,,4,8,48,0,,,,,,,,,,,,,,,,,,,AFNE07.jpg,AFNE13.jpg,AFSA17.jpg,AFSA05.jpg,AFNE07.jpg,FN,3,num_8,16,num_8,0.500147379702,,,2017_Nov_03_1650,59.9985567269,MAFE4ImagesEEG,001,102296,
AFNE01.JPG,AFNE01.JPG,AFNE01.JPG,AFNE01.JPG,AFNE01.JPG,AFNE01.JPG,,,,,4,9,49,5,,,,,,,,,,,,,,,,,,,AFSA17.jpg,AFNE04.jpg,AFSA10.jpg,AFNE17.jpg,AFSA17.jpg,FS,4,num_8,32,num_4,0.850107848644,,,2017_Nov_03_1650,59.9985567269,MAFE4ImagesEEG,001,102296,
AFNE01.JPG,AFNE01.JPG,AFNE01.JPG,AFNE01.JPG,AFNE01.JPG,AFNE01.JPG,,,,,5,0,50,9,,,,,,,,,,,,,,,,,,,AFSA14.jpg,AFSA18.jpg,AFNE09.jpg,AFNE08.jpg,AFSA18.jpg,FS,4,num_6,16,num_6,1.06676577521,,,2017_Nov_03_1650,59.9985567269,MAFE4ImagesEEG,001,102296,
AFNE01.JPG,AFNE01.JPG,AFNE01.JPG,AFNE01.JPG,AFNE01.JPG,AFNE01.JPG,,,,,5,1,51,8,,,,,,,,,,,,,,,,,,,AFNE09.jpg,AFSA02.jpg,AFSA07.jpg,AFNE13.jpg,AFNE13.jpg,FN,3,num_4,16,num_4,0.716793118278,,,2017_Nov_03_1650,59.9985567269,MAFE4ImagesEEG,001,102296,
AFNE01.JPG,AFNE01.JPG,AFNE01.JPG,AFNE01.JPG,AFNE01.JPG,AFNE01.JPG,,,,,5,2,52,5,,,,,,,,,,,,,,,,,,,AFNE09.jpg,AFSA19.jpg,AFNE20.jpg,AFSA08.jpg,AFNE20.jpg,FN,3,num_2,32,num_8,1.13327463786,,,2017_Nov_03_1650,59.9985567269,MAFE4ImagesEEG,001,102296,
AFNE01.JPG,AFNE01.JPG,AFNE01.JPG,AFNE01.JPG,AFNE01.JPG,AFNE01.JPG,,,,,5,3,53,0,,,,,,,,,,,,,,,,,,,AFSA11.jpg,AFNE11.jpg,AFSA19.jpg,AFNE01.jpg,AFSA19.jpg,FS,4,num_2,16,num_2,0.95013912092,,,2017_Nov_03_1650,59.9985567269,MAFE4ImagesEEG,001,102296,
AFNE01.JPG,AFNE01.JPG,AFNE01.JPG,AFNE01.JPG,AFNE01.JPG,AFNE01.JPG,,,,,5,4,54,4,,,,,,,,,,,,,,,,,,,AFSA19.jpg,AFNE05.jpg,AFNE09.jpg,AFSA04.jpg,AFNE05.jpg,FN,3,num_6,32,num_4,0.650102075189,,,2017_Nov_03_1650,59.9985567269,MAFE4ImagesEEG,001,102296,
AFNE01.JPG,AFNE01.JPG,AFNE01.JPG,AFNE01.JPG,AFNE01.JPG,AFNE01.JPG,,,,,5,5,55,2,,,,,,,,,,,,,,,,,,,AFNE18.jpg,AFNE06.jpg,AFSA16.jpg,AFSA20.jpg,AFNE18.jpg,FN,3,num_8,16,num_8,0.950194929494,,,2017_Nov_03_1650,59.9985567269,MAFE4ImagesEEG,001,102296,
AFNE01.JPG,AFNE01.JPG,AFNE01.JPG,AFNE01.JPG,AFNE01.JPG,AFNE01.JPG,,,,,5,6,56,1,,,,,,,,,,,,,,,,,,,AFNE09.jpg,AFSA05.jpg,AFSA17.jpg,AFNE08.jpg,AFSA05.jpg,FS,4,num_6,16,num_6,0.616836578352,,,2017_Nov_03_1650,59.9985567269,MAFE4ImagesEEG,001,102296,
AFNE01.JPG,AFNE01.JPG,AFNE01.JPG,AFNE01.JPG,AFNE01.JPG,AFNE01.JPG,,,,,5,7,57,3,,,,,,,,,,,,,,,,,,,AFSA14.jpg,AFNE13.jpg,AFSA20.jpg,AFNE20.jpg,AFNE20.jpg,FN,3,num_4,32,num_8,0.93346547801,,,2017_Nov_03_1650,59.9985567269,MAFE4ImagesEEG,001,102296,
AFNE01.JPG,AFNE01.JPG,AFNE01.JPG,AFNE01.JPG,AFNE01.JPG,AFNE01.JPG,,,,,5,8,58,7,,,,,,,,,,,,,,,,,,,AFNE19.jpg,AFNE07.jpg,AFSA13.jpg,AFSA05.jpg,AFSA05.jpg,FS,4,num_4,16,num_4,0.616780449171,,,2017_Nov_03_1650,59.9985567269,MAFE4ImagesEEG,001,102296,
AFNE01.JPG,AFNE01.JPG,AFNE01.JPG,AFNE01.JPG,AFNE01.JPG,AFNE01.JPG,,,,,5,9,59,6,,,,,,,,,,,,,,,,,,,AFSA15.jpg,AFNE18.jpg,AFSA17.jpg,AFNE20.jpg,AFNE18.jpg,FN,3,num_6,16,num_6,0.833519522799,,,2017_Nov_03_1650,59.9985567269,MAFE4ImagesEEG,001,102296,
,,,,,,,,,,,,,,,,,,,,,,,,,,,,,,,,,,,,,,,,,,,space,19.6319440503,2017_Nov_03_1650,59.9985567269,MAFE4ImagesEEG,001,102296,
AFNE01.JPG,AFNE01.JPG,AFNE01.JPG,AFNE01.JPG,AFNE01.JPG,AFNE01.JPG,,,,,,,,,0,0,0,4,,,,,,,,,,,,,,,AMSA17.jpg,AMNE08.jpg,AMSA06.jpg,AMNE15.jpg,AMSA06.jpg,MS,2,num_2,16,num_2,0.816674925853,,,2017_Nov_03_1650,59.9985567269,MAFE4ImagesEEG,001,102296,
AFNE01.JPG,AFNE01.JPG,AFNE01.JPG,AFNE01.JPG,AFNE01.JPG,AFNE01.JPG,,,,,,,,,0,1,1,1,,,,,,,,,,,,,,,AMNE08.jpg,AMSA03.jpg,AMSA18.jpg,AMNE18.jpg,AMSA18.jpg,MS,2,num_2,32,num_4,0.483363723615,,,2017_Nov_03_1650,59.9985567269,MAFE4ImagesEEG,001,102296,
AFNE01.JPG,AFNE01.JPG,AFNE01.JPG,AFNE01.JPG,AFNE01.JPG,AFNE01.JPG,,,,,,,,,0,2,2,9,,,,,,,,,,,,,,,AMSA20.jpg,AMSA19.jpg,AMNE09.jpg,AMNE15.jpg,AMSA20.jpg,MS,2,num_8,16,num_8,0.516809155233,,,2017_Nov_03_1650,59.9985567269,MAFE4ImagesEEG,001,102296,
AFNE01.JPG,AFNE01.JPG,AFNE01.JPG,AFNE01.JPG,AFNE01.JPG,AFNE01.JPG,,,,,,,,,0,3,3,3,,,,,,,,,,,,,,,AMSA07.jpg,AMNE15.jpg,AMSA20.jpg,AMNE13.jpg,AMNE15.jpg,MN,1,num_6,16,num_6,1.65007160511,,,2017_Nov_03_1650,59.9985567269,MAFE4ImagesEEG,001,102296,
AFNE01.JPG,AFNE01.JPG,AFNE01.JPG,AFNE01.JPG,AFNE01.JPG,AFNE01.JPG,,,,,,,,,0,4,4,2,,,,,,,,,,,,,,,AMSA05.jpg,AMNE20.jpg,AMNE07.jpg,AMSA08.jpg,AMSA05.jpg,MS,2,num_8,32,num_4,0.383510141168,,,2017_Nov_03_1650,59.9985567269,MAFE4ImagesEEG,001,102296,
AFNE01.JPG,AFNE01.JPG,AFNE01.JPG,AFNE01.JPG,AFNE01.JPG,AFNE01.JPG,,,,,,,,,0,5,5,8,,,,,,,,,,,,,,,AMSA14.jpg,AMSA15.jpg,AMNE13.jpg,AMNE10.jpg,AMNE13.jpg,MN,1,num_2,32,num_8,0.78344374802,,,2017_Nov_03_1650,59.9985567269,MAFE4ImagesEEG,001,102296,
AFNE01.JPG,AFNE01.JPG,AFNE01.JPG,AFNE01.JPG,AFNE01.JPG,AFNE01.JPG,,,,,,,,,0,6,6,5,,,,,,,,,,,,,,,AMNE16.jpg,AMNE10.jpg,AMSA13.jpg,AMSA02.jpg,AMSA13.jpg,MS,2,num_2,16,num_2,0.866721833823,,,2017_Nov_03_1650,59.9985567269,MAFE4ImagesEEG,001,102296,
AFNE01.JPG,AFNE01.JPG,AFNE01.JPG,AFNE01.JPG,AFNE01.JPG,AFNE01.JPG,,,,,,,,,0,7,7,6,,,,,,,,,,,,,,,AMSA20.jpg,AMNE10.jpg,AMNE11.jpg,AMSA09.jpg,AMNE10.jpg,MN,1,num_6,16,num_6,0.733459383948,,,2017_Nov_03_1650,59.9985567269,MAFE4ImagesEEG,001,102296,
AFNE01.JPG,AFNE01.JPG,AFNE01.JPG,AFNE01.JPG,AFNE01.JPG,AFNE01.JPG,,,,,,,,,0,8,8,0,,,,,,,,,,,,,,,AMSA17.jpg,AMSA06.jpg,AMNE12.jpg,AMNE15.jpg,AMSA17.jpg,MS,2,num_8,32,num_6,0.983472293708,,,2017_Nov_03_1650,59.9985567269,MAFE4ImagesEEG,001,102296,
AFNE01.JPG,AFNE01.JPG,AFNE01.JPG,AFNE01.JPG,AFNE01.JPG,AFNE01.JPG,,,,,,,,,0,9,9,7,,,,,,,,,,,,,,,AMNE18.jpg,AMNE02.jpg,AMSA05.jpg,AMSA18.jpg,AMSA18.jpg,MS,2,num_4,32,num_8,0.766840347089,,,2017_Nov_03_1650,59.9985567269,MAFE4ImagesEEG,001,102296,
AFNE01.JPG,AFNE01.JPG,AFNE01.JPG,AFNE01.JPG,AFNE01.JPG,AFNE01.JPG,,,,,,,,,1,0,10,1,,,,,,,,,,,,,,,AMSA10.jpg,AMNE11.jpg,AMSA13.jpg,AMNE13.jpg,AMNE13.jpg,MN,1,num_4,32,num_8,0.68379415595,,,2017_Nov_03_1650,59.9985567269,MAFE4ImagesEEG,001,102296,
AFNE01.JPG,AFNE01.JPG,AFNE01.JPG,AFNE01.JPG,AFNE01.JPG,AFNE01.JPG,,,,,,,,,1,1,11,7,,,,,,,,,,,,,,,AMSA10.jpg,AMSA03.jpg,AMNE19.jpg,AMNE14.jpg,AMNE14.jpg,MN,1,num_4,16,num_4,0.616785580991,,,2017_Nov_03_1650,59.9985567269,MAFE4ImagesEEG,001,102296,
AFNE01.JPG,AFNE01.JPG,AFNE01.JPG,AFNE01.JPG,AFNE01.JPG,AFNE01.JPG,,,,,,,,,1,2,12,0,,,,,,,,,,,,,,,AMNE05.jpg,AMSA16.jpg,AMSA08.jpg,AMNE07.jpg,AMSA16.jpg,MS,2,num_6,32,num_8,1.3167815716,,,2017_Nov_03_1650,59.9985567269,MAFE4ImagesEEG,001,102296,
AFNE01.JPG,AFNE01.JPG,AFNE01.JPG,AFNE01.JPG,AFNE01.JPG,AFNE01.JPG,,,,,,,,,1,3,13,4,,,,,,,,,,,,,,,AMSA11.jpg,AMNE12.jpg,AMSA06.jpg,AMNE04.jpg,AMSA06.jpg,MS,2,num_2,32,num_8,0.88354975218,,,2017_Nov_03_1650,59.9985567269,MAFE4ImagesEEG,001,102296,
AFNE01.JPG,AFNE01.JPG,AFNE01.JPG,AFNE01.JPG,AFNE01.JPG,AFNE01.JPG,,,,,,,,,1,4,14,2,,,,,,,,,,,,,,,AMSA15.jpg,AMNE15.jpg,AMNE05.jpg,AMSA12.jpg,AMNE15.jpg,MN,1,num_6,16,num_6,0.700163095957,,,2017_Nov_03_1650,59.9985567269,MAFE4ImagesEEG,001,102296,
AFNE01.JPG,AFNE01.JPG,AFNE01.JPG,AFNE01.JPG,AFNE01.JPG,AFNE01.JPG,,,,,,,,,1,5,15,6,,,,,,,,,,,,,,,AMSA13.jpg,AMNE06.jpg,AMSA01.jpg,AMNE12.jpg,AMSA13.jpg,MS,2,num_8,16,num_8,1.08348335908,,,2017_Nov_03_1650,59.9985567269,MAFE4ImagesEEG,001,102296,
AFNE01.JPG,AFNE01.JPG,AFNE01.JPG,AFNE01.JPG,AFNE01.JPG,AFNE01.JPG,,,,,,,,,1,6,16,9,,,,,,,,,,,,,,,AMNE11.jpg,AMSA01.jpg,AMSA03.jpg,AMNE04.jpg,AMSA01.jpg,MS,2,num_6,16,num_6,0.500190679682,,,2017_Nov_03_1650,59.9985567269,MAFE4ImagesEEG,001,102296,
AFNE01.JPG,AFNE01.JPG,AFNE01.JPG,AFNE01.JPG,AFNE01.JPG,AFNE01.JPG,,,,,,,,,1,7,17,5,,,,,,,,,,,,,,,AMSA12.jpg,AMNE15.jpg,AMNE13.jpg,AMSA06.jpg,AMSA12.jpg,MS,2,num_8,32,num_4,0.866711891023,,,2017_Nov_03_1650,59.9985567269,MAFE4ImagesEEG,001,102296,
AFNE01.JPG,AFNE01.JPG,AFNE01.JPG,AFNE01.JPG,AFNE01.JPG,AFNE01.JPG,,,,,,,,,1,8,18,8,,,,,,,,,,,,,,,AMNE05.jpg,AMSA05.jpg,AMNE01.jpg,AMSA03.jpg,AMNE05.jpg,MN,1,num_8,32,num_6,0.81678782613,,,2017_Nov_03_1650,59.9985567269,MAFE4ImagesEEG,001,102296,
AFNE01.JPG,AFNE01.JPG,AFNE01.JPG,AFNE01.JPG,AFNE01.JPG,AFNE01.JPG,,,,,,,,,1,9,19,3,,,,,,,,,,,,,,,AMNE13.jpg,AMSA12.jpg,AMSA02.jpg,AMNE01.jpg,AMSA12.jpg,MS,2,num_6,32,num_8,0.80002405541,,,2017_Nov_03_1650,59.9985567269,MAFE4ImagesEEG,001,102296,
AFNE01.JPG,AFNE01.JPG,AFNE01.JPG,AFNE01.JPG,AFNE01.JPG,AFNE01.JPG,,,,,,,,,2,0,20,1,,,,,,,,,,,,,,,AMSA10.jpg,AMNE13.jpg,AMNE07.jpg,AMSA16.jpg,AMSA10.jpg,MS,2,num_8,16,num_8,0.766828479711,,,2017_Nov_03_1650,59.9985567269,MAFE4ImagesEEG,001,102296,
AFNE01.JPG,AFNE01.JPG,AFNE01.JPG,AFNE01.JPG,AFNE01.JPG,AFNE01.JPG,,,,,,,,,2,1,21,4,,,,,,,,,,,,,,,AMSA01.jpg,AMNE12.jpg,AMSA16.jpg,AMNE06.jpg,AMSA01.jpg,MS,2,num_8,16,num_8,0.400161331985,,,2017_Nov_03_1650,59.9985567269,MAFE4ImagesEEG,001,102296,
AFNE01.JPG,AFNE01.JPG,AFNE01.JPG,AFNE01.JPG,AFNE01.JPG,AFNE01.JPG,,,,,,,,,2,2,22,7,,,,,,,,,,,,,,,AMSA19.jpg,AMSA01.jpg,AMNE12.jpg,AMNE20.jpg,AMNE12.jpg,MN,1,num_2,16,num_2,0.916742120637,,,2017_Nov_03_1650,59.9985567269,MAFE4ImagesEEG,001,102296,
AFNE01.JPG,AFNE01.JPG,AFNE01.JPG,AFNE01.JPG,AFNE01.JPG,AFNE01.JPG,,,,,,,,,2,3,23,2,,,,,,,,,,,,,,,AMSA20.jpg,AMNE16.jpg,AMNE19.jpg,AMSA14.jpg,AMSA20.jpg,MS,2,num_8,32,num_2,0.93345521437,,,2017_Nov_03_1650,59.9985567269,MAFE4ImagesEEG,001,102296,
AFNE01.JPG,AFNE01.JPG,AFNE01.JPG,AFNE01.JPG,AFNE01.JPG,AFNE01.JPG,,,,,,,,,2,4,24,9,,,,,,,,,,,,,,,AMNE14.jpg,AMSA12.jpg,AMNE16.jpg,AMSA18.jpg,AMSA12.jpg,MS,2,num_6,16,num_6,0.566785821458,,,2017_Nov_03_1650,59.9985567269,MAFE4ImagesEEG,001,102296,
AFNE01.JPG,AFNE01.JPG,AFNE01.JPG,AFNE01.JPG,AFNE01.JPG,AFNE01.JPG,,,,,,,,,2,5,25,8,,,,,,,,,,,,,,,AMNE04.jpg,AMNE20.jpg,AMSA04.jpg,AMSA02.jpg,AMSA04.jpg,MS,2,num_2,32,num_4,0.800118352752,,,2017_Nov_03_1650,59.9985567269,MAFE4ImagesEEG,001,102296,
AFNE01.JPG,AFNE01.JPG,AFNE01.JPG,AFNE01.JPG,AFNE01.JPG,AFNE01.JPG,,,,,,,,,2,6,26,3,,,,,,,,,,,,,,,AMSA13.jpg,AMNE13.jpg,AMNE15.jpg,AMSA12.jpg,AMNE13.jpg,MN,1,num_6,32,num_2,1.08341183444,,,2017_Nov_03_1650,59.9985567269,MAFE4ImagesEEG,001,102296,
AFNE01.JPG,AFNE01.JPG,AFNE01.JPG,AFNE01.JPG,AFNE01.JPG,AFNE01.JPG,,,,,,,,,2,7,27,0,,,,,,,,,,,,,,,AMNE17.jpg,AMNE12.jpg,AMSA05.jpg,AMSA06.jpg,AMSA05.jpg,MS,2,num_2,32,num_8,0.766784217674,,,2017_Nov_03_1650,59.9985567269,MAFE4ImagesEEG,001,102296,
AFNE01.JPG,AFNE01.JPG,AFNE01.JPG,AFNE01.JPG,AFNE01.JPG,AFNE01.JPG,,,,,,,,,2,8,28,6,,,,,,,,,,,,,,,AMNE02.jpg,AMNE16.jpg,AMSA15.jpg,AMSA19.jpg,AMSA15.jpg,MS,2,num_2,16,num_2,0.666802980937,,,2017_Nov_03_1650,59.9985567269,MAFE4ImagesEEG,001,102296,
AFNE01.JPG,AFNE01.JPG,AFNE01.JPG,AFNE01.JPG,AFNE01.JPG,AFNE01.JPG,,,,,,,,,2,9,29,5,,,,,,,,,,,,,,,AMNE14.jpg,AMSA04.jpg,AMSA03.jpg,AMNE18.jpg,AMSA03.jpg,MS,2,num_2,16,num_2,1.05012420635,,,2017_Nov_03_1650,59.9985567269,MAFE4ImagesEEG,001,102296,
AFNE01.JPG,AFNE01.JPG,AFNE01.JPG,AFNE01.JPG,AFNE01.JPG,AFNE01.JPG,,,,,,,,,3,0,30,6,,,,,,,,,,,,,,,AMSA01.jpg,AMSA17.jpg,AMNE05.jpg,AMNE04.jpg,AMSA17.jpg,MS,2,num_6,16,num_6,0.616887896787,,,2017_Nov_03_1650,59.9985567269,MAFE4ImagesEEG,001,102296,
AFNE01.JPG,AFNE01.JPG,AFNE01.JPG,AFNE01.JPG,AFNE01.JPG,AFNE01.JPG,,,,,,,,,3,1,31,9,,,,,,,,,,,,,,,AMSA03.jpg,AMNE14.jpg,AMNE17.jpg,AMSA12.jpg,AMNE17.jpg,MN,1,num_2,32,num_8,0.566769142868,,,2017_Nov_03_1650,59.9985567269,MAFE4ImagesEEG,001,102296,
AFNE01.JPG,AFNE01.JPG,AFNE01.JPG,AFNE01.JPG,AFNE01.JPG,AFNE01.JPG,,,,,,,,,3,2,32,8,,,,,,,,,,,,,,,AMSA14.jpg,AMSA13.jpg,AMNE12.jpg,AMNE15.jpg,AMSA13.jpg,MS,2,num_6,32,num_2,1.15011474467,,,2017_Nov_03_1650,59.9985567269,MAFE4ImagesEEG,001,102296,
AFNE01.JPG,AFNE01.JPG,AFNE01.JPG,AFNE01.JPG,AFNE01.JPG,AFNE01.JPG,,,,,,,,,3,3,33,2,,,,,,,,,,,,,,,AMSA11.jpg,AMSA04.jpg,AMNE17.jpg,AMNE12.jpg,AMSA04.jpg,MS,2,num_6,32,num_2,0.617036398966,,,2017_Nov_03_1650,59.9985567269,MAFE4ImagesEEG,001,102296,
AFNE01.JPG,AFNE01.JPG,AFNE01.JPG,AFNE01.JPG,AFNE01.JPG,AFNE01.JPG,,,,,,,,,3,4,34,5,,,,,,,,,,,,,,,AMNE19.jpg,AMNE05.jpg,AMSA04.jpg,AMSA08.jpg,AMNE05.jpg,MN,1,num_6,32,num_4,0.966766256141,,,2017_Nov_03_1650,59.9985567269,MAFE4ImagesEEG,001,102296,
AFNE01.JPG,AFNE01.JPG,AFNE01.JPG,AFNE01.JPG,AFNE01.JPG,AFNE01.JPG,,,,,,,,,3,5,35,1,,,,,,,,,,,,,,,AMSA07.jpg,AMNE12.jpg,AMSA01.jpg,AMNE15.jpg,AMNE12.jpg,MN,1,num_6,32,num_8,1.18343893671,,,2017_Nov_03_1650,59.9985567269,MAFE4ImagesEEG,001,102296,
AFNE01.JPG,AFNE01.JPG,AFNE01.JPG,AFNE01.JPG,AFNE01.JPG,AFNE01.JPG,,,,,,,,,3,6,36,3,,,,,,,,,,,,,,,AMNE19.jpg,AMNE08.jpg,AMSA17.jpg,AMSA10.jpg,AMNE19.jpg,MN,1,num_8,32,num_4,0.783466841094,,,2017_Nov_03_1650,59.9985567269,MAFE4ImagesEEG,001,102296,
AFNE01.JPG,AFNE01.JPG,AFNE01.JPG,AFNE01.JPG,AFNE01.JPG,AFNE01.JPG,,,,,,,,,3,7,37,7,,,,,,,,,,,,,,,AMNE04.jpg,AMNE17.jpg,AMSA09.jpg,AMSA13.jpg,AMSA13.jpg,MS,2,num_4,32,num_8,0.766737389844,,,2017_Nov_03_1650,59.9985567269,MAFE4ImagesEEG,001,102296,
AFNE01.JPG,AFNE01.JPG,AFNE01.JPG,AFNE01.JPG,AFNE01.JPG,AFNE01.JPG,,,,,,,,,3,8,38,0,,,,,,,,,,,,,,,AMSA11.jpg,AMNE17.jpg,AMSA20.jpg,AMNE08.jpg,AMNE17.jpg,MN,1,num_6,32,num_4,0.716776760528,,,2017_Nov_03_1650,59.9985567269,MAFE4ImagesEEG,001,102296,
AFNE01.JPG,AFNE01.JPG,AFNE01.JPG,AFNE01.JPG,AFNE01.JPG,AFNE01.JPG,,,,,,,,,3,9,39,4,,,,,,,,,,,,,,,AMNE12.jpg,AMNE01.jpg,AMSA16.jpg,AMSA02.jpg,AMSA02.jpg,MS,2,num_4,32,num_6,0.800170954084,,,2017_Nov_03_1650,59.9985567269,MAFE4ImagesEEG,001,102296,
AFNE01.JPG,AFNE01.JPG,AFNE01.JPG,AFNE01.JPG,AFNE01.JPG,AFNE01.JPG,,,,,,,,,4,0,40,0,,,,,,,,,,,,,,,AMSA15.jpg,AMNE17.jpg,AMSA03.jpg,AMNE16.jpg,AMNE17.jpg,MN,1,num_6,32,num_4,1.2834278713,,,2017_Nov_03_1650,59.9985567269,MAFE4ImagesEEG,001,102296,
AFNE01.JPG,AFNE01.JPG,AFNE01.JPG,AFNE01.JPG,AFNE01.JPG,AFNE01.JPG,,,,,,,,,4,1,41,6,,,,,,,,,,,,,,,AMNE08.jpg,AMSA12.jpg,AMNE20.jpg,AMSA02.jpg,AMSA12.jpg,MS,2,num_6,16,num_6,0.450145054376,,,2017_Nov_03_1650,59.9985567269,MAFE4ImagesEEG,001,102296,
AFNE01.JPG,AFNE01.JPG,AFNE01.JPG,AFNE01.JPG,AFNE01.JPG,AFNE01.JPG,,,,,,,,,4,2,42,9,,,,,,,,,,,,,,,AMNE14.jpg,AMSA08.jpg,AMNE20.jpg,AMSA15.jpg,AMNE20.jpg,MN,1,num_2,32,num_4,0.633455374744,,,2017_Nov_03_1650,59.9985567269,MAFE4ImagesEEG,001,102296,
AFNE01.JPG,AFNE01.JPG,AFNE01.JPG,AFNE01.JPG,AFNE01.JPG,AFNE01.JPG,,,,,,,,,4,3,43,7,,,,,,,,,,,,,,,AMNE18.jpg,AMSA20.jpg,AMSA09.jpg,AMNE05.jpg,AMNE05.jpg,MN,1,num_4,32,num_8,0.366859912174,,,2017_Nov_03_1650,59.9985567269,MAFE4ImagesEEG,001,102296,
AFNE01.JPG,AFNE01.JPG,AFNE01.JPG,AFNE01.JPG,AFNE01.JPG,AFNE01.JPG,,,,,,,,,4,4,44,4,,,,,,,,,,,,,,,AMNE03.jpg,AMNE19.jpg,AMSA01.jpg,AMSA15.jpg,AMNE03.jpg,MN,1,num_8,32,num_2,0.917066067457,,,2017_Nov_03_1650,59.9985567269,MAFE4ImagesEEG,001,102296,
AFNE01.JPG,AFNE01.JPG,AFNE01.JPG,AFNE01.JPG,AFNE01.JPG,AFNE01.JPG,,,,,,,,,4,5,45,5,,,,,,,,,,,,,,,AMSA01.jpg,AMNE14.jpg,AMNE06.jpg,AMSA06.jpg,AMNE06.jpg,MN,1,num_2,16,num_2,0.650158204604,,,2017_Nov_03_1650,59.9985567269,MAFE4ImagesEEG,001,102296,
AFNE01.JPG,AFNE01.JPG,AFNE01.JPG,AFNE01.JPG,AFNE01.JPG,AFNE01.JPG,,,,,,,,,4,6,46,8,,,,,,,,,,,,,,,AMNE16.jpg,AMSA14.jpg,AMSA17.jpg,AMNE09.jpg,AMSA14.jpg,MS,2,num_6,16,num_6,0.733466440113,,,2017_Nov_03_1650,59.9985567269,MAFE4ImagesEEG,001,102296,
AFNE01.JPG,AFNE01.JPG,AFNE01.JPG,AFNE01.JPG,AFNE01.JPG,AFNE01.JPG,,,,,,,,,4,7,47,1,,,,,,,,,,,,,,,AMNE19.jpg,AMSA20.jpg,AMSA14.jpg,AMNE07.jpg,AMSA20.jpg,MS,2,num_6,32,num_4,1.65011201845,,,2017_Nov_03_1650,59.9985567269,MAFE4ImagesEEG,001,102296,
AFNE01.JPG,AFNE01.JPG,AFNE01.JPG,AFNE01.JPG,AFNE01.JPG,AFNE01.JPG,,,,,,,,,4,8,48,3,,,,,,,,,,,,,,,AMSA14.jpg,AMNE05.jpg,AMNE17.jpg,AMSA02.jpg,AMNE05.jpg,MN,1,num_6,32,num_4,1.03344863909,,,2017_Nov_03_1650,59.9985567269,MAFE4ImagesEEG,001,102296,
AFNE01.JPG,AFNE01.JPG,AFNE01.JPG,AFNE01.JPG,AFNE01.JPG,AFNE01.JPG,,,,,,,,,4,9,49,2,,,,,,,,,,,,,,,AMSA09.jpg,AMNE17.jpg,AMSA19.jpg,AMNE02.jpg,AMNE17.jpg,MN,1,num_6,32,num_8,0.383536762325,,,2017_Nov_03_1650,59.9985567269,MAFE4ImagesEEG,001,102296,
AFNE01.JPG,AFNE01.JPG,AFNE01.JPG,AFNE01.JPG,AFNE01.JPG,AFNE01.JPG,,,,,,,,,5,0,50,7,,,,,,,,,,,,,,,AMNE10.jpg,AMSA16.jpg,AMNE05.jpg,AMSA01.jpg,AMSA16.jpg,MS,2,num_6,16,num_6,0.600131182466,,,2017_Nov_03_1650,59.9985567269,MAFE4ImagesEEG,001,102296,
AFNE01.JPG,AFNE01.JPG,AFNE01.JPG,AFNE01.JPG,AFNE01.JPG,AFNE01.JPG,,,,,,,,,5,1,51,3,,,,,,,,,,,,,,,AMSA01.jpg,AMNE08.jpg,AMSA14.jpg,AMNE03.jpg,AMNE03.jpg,MN,1,num_4,16,num_4,1.10010407981,,,2017_Nov_03_1650,59.9985567269,MAFE4ImagesEEG,001,102296,
AFNE01.JPG,AFNE01.JPG,AFNE01.JPG,AFNE01.JPG,AFNE01.JPG,AFNE01.JPG,,,,,,,,,5,2,52,5,,,,,,,,,,,,,,,AMNE05.jpg,AMSA04.jpg,AMNE19.jpg,AMSA13.jpg,AMNE19.jpg,MN,1,num_2,32,num_8,0.750177930342,,,2017_Nov_03_1650,59.9985567269,MAFE4ImagesEEG,001,102296,
AFNE01.JPG,AFNE01.JPG,AFNE01.JPG,AFNE01.JPG,AFNE01.JPG,AFNE01.JPG,,,,,,,,,5,3,53,6,,,,,,,,,,,,,,,AMNE10.jpg,AMNE16.jpg,AMSA04.jpg,AMSA06.jpg,AMSA06.jpg,MS,2,num_4,32,num_6,0.616788146785,,,2017_Nov_03_1650,59.9985567269,MAFE4ImagesEEG,001,102296,
AFNE01.JPG,AFNE01.JPG,AFNE01.JPG,AFNE01.JPG,AFNE01.JPG,AFNE01.JPG,,,,,,,,,5,4,54,8,,,,,,,,,,,,,,,AMSA01.jpg,AMNE02.jpg,AMSA20.jpg,AMNE11.jpg,AMNE11.jpg,MN,1,num_4,16,num_4,0.750201664865,,,2017_Nov_03_1650,59.9985567269,MAFE4ImagesEEG,001,102296,
AFNE01.JPG,AFNE01.JPG,AFNE01.JPG,AFNE01.JPG,AFNE01.JPG,AFNE01.JPG,,,,,,,,,5,5,55,1,,,,,,,,,,,,,,,AMSA03.jpg,AMSA07.jpg,AMNE16.jpg,AMNE11.jpg,AMNE16.jpg,MN,1,num_2,16,num_2,0.616800655611,,,2017_Nov_03_1650,59.9985567269,MAFE4ImagesEEG,001,102296,
AFNE01.JPG,AFNE01.JPG,AFNE01.JPG,AFNE01.JPG,AFNE01.JPG,AFNE01.JPG,,,,,,,,,5,6,56,2,,,,,,,,,,,,,,,AMNE03.jpg,AMSA07.jpg,AMNE12.jpg,AMSA13.jpg,AMSA13.jpg,MS,2,num_4,16,num_4,0.767063581618,,,2017_Nov_03_1650,59.9985567269,MAFE4ImagesEEG,001,102296,
AFNE01.JPG,AFNE01.JPG,AFNE01.JPG,AFNE01.JPG,AFNE01.JPG,AFNE01.JPG,,,,,,,,,5,7,57,9,,,,,,,,,,,,,,,AMNE15.jpg,AMNE09.jpg,AMSA20.jpg,AMSA08.jpg,AMNE15.jpg,MN,1,num_8,16,num_8,0.600190839963,,,2017_Nov_03_1650,59.9985567269,MAFE4ImagesEEG,001,102296,
AFNE01.JPG,AFNE01.JPG,AFNE01.JPG,AFNE01.JPG,AFNE01.JPG,AFNE01.JPG,,,,,,,,,5,8,58,0,,,,,,,,,,,,,,,AMNE20.jpg,AMSA01.jpg,AMSA02.jpg,AMNE13.jpg,AMSA01.jpg,MS,2,num_6,16,num_6,0.650142809143,,,2017_Nov_03_1650,59.9985567269,MAFE4ImagesEEG,001,102296,
AFNE01.JPG,AFNE01.JPG,AFNE01.JPG,AFNE01.JPG,AFNE01.JPG,AFNE01.JPG,,,,,,,,,5,9,59,4,,,,,,,,,,,,,,,AMNE11.jpg,AMSA01.jpg,AMSA20.jpg,AMNE09.jpg,AMNE11.jpg,MN,1,num_8,16,num_8,0.950148422271,,,2017_Nov_03_1650,59.9985567269,MAFE4ImagesEEG,001,102296,
,,,,,,,,,,,,,,,,,,,,,,,,,,,,,,,,,,,,,,,,,,,space,26.5143991185,2017_Nov_03_1650,59.9985567269,MAFE4ImagesEEG,001,102296,
AFNE01.JPG,AFNE01.JPG,AFNE01.JPG,AFNE01.JPG,AFNE01.JPG,AFNE01.JPG,,,,,,,,,,,,,0,0,0,9,,,,,,,,,,,AFNE09.jpg,AFNE04.jpg,AFSA15.jpg,AFSA12.jpg,AFNE09.jpg,FN,3,num_8,16,num_8,0.866758077405,,,2017_Nov_03_1650,59.9985567269,MAFE4ImagesEEG,001,102296,
AFNE01.JPG,AFNE01.JPG,AFNE01.JPG,AFNE01.JPG,AFNE01.JPG,AFNE01.JPG,,,,,,,,,,,,,0,1,1,4,,,,,,,,,,,AFSA14.jpg,AFNE01.jpg,AFSA10.jpg,AFNE07.jpg,AFNE01.jpg,FN,3,num_6,16,num_6,0.633476543473,,,2017_Nov_03_1650,59.9985567269,MAFE4ImagesEEG,001,102296,
AFNE01.JPG,AFNE01.JPG,AFNE01.JPG,AFNE01.JPG,AFNE01.JPG,AFNE01.JPG,,,,,,,,,,,,,0,2,2,6,,,,,,,,,,,AFSA12.jpg,AFNE17.jpg,AFSA06.jpg,AFNE11.jpg,AFNE17.jpg,FN,3,num_6,32,num_8,0.450290349312,,,2017_Nov_03_1650,59.9985567269,MAFE4ImagesEEG,001,102296,
AFNE01.JPG,AFNE01.JPG,AFNE01.JPG,AFNE01.JPG,AFNE01.JPG,AFNE01.JPG,,,,,,,,,,,,,0,3,3,7,,,,,,,,,,,AFSA14.jpg,AFSA08.jpg,AFNE09.jpg,AFNE06.jpg,AFSA14.jpg,FS,4,num_8,32,num_6,0.68347790651,,,2017_Nov_03_1650,59.9985567269,MAFE4ImagesEEG,001,102296,
AFNE01.JPG,AFNE01.JPG,AFNE01.JPG,AFNE01.JPG,AFNE01.JPG,AFNE01.JPG,,,,,,,,,,,,,0,4,4,5,,,,,,,,,,,AFSA03.jpg,AFNE18.jpg,AFNE17.jpg,AFSA18.jpg,AFSA18.jpg,FS,4,num_4,16,num_4,0.700158926426,,,2017_Nov_03_1650,59.9985567269,MAFE4ImagesEEG,001,102296,
AFNE01.JPG,AFNE01.JPG,AFNE01.JPG,AFNE01.JPG,AFNE01.JPG,AFNE01.JPG,,,,,,,,,,,,,0,5,5,8,,,,,,,,,,,AFNE20.jpg,AFSA05.jpg,AFNE09.jpg,AFSA14.jpg,AFSA14.jpg,FS,4,num_4,32,num_2,0.850129017606,,,2017_Nov_03_1650,59.9985567269,MAFE4ImagesEEG,001,102296,
AFNE01.JPG,AFNE01.JPG,AFNE01.JPG,AFNE01.JPG,AFNE01.JPG,AFNE01.JPG,,,,,,,,,,,,,0,6,6,2,,,,,,,,,,,AFNE08.jpg,AFNE17.jpg,AFSA10.jpg,AFSA17.jpg,AFNE08.jpg,FN,3,num_8,32,num_6,0.750136875547,,,2017_Nov_03_1650,59.9985567269,MAFE4ImagesEEG,001,102296,
AFNE01.JPG,AFNE01.JPG,AFNE01.JPG,AFNE01.JPG,AFNE01.JPG,AFNE01.JPG,,,,,,,,,,,,,0,7,7,0,,,,,,,,,,,AFNE07.jpg,AFSA07.jpg,AFSA08.jpg,AFNE17.jpg,AFSA07.jpg,FS,4,num_6,32,num_8,0.633492901223,,,2017_Nov_03_1650,59.9985567269,MAFE4ImagesEEG,001,102296,
AFNE01.JPG,AFNE01.JPG,AFNE01.JPG,AFNE01.JPG,AFNE01.JPG,AFNE01.JPG,,,,,,,,,,,,,0,8,8,3,,,,,,,,,,,AFNE08.jpg,AFNE16.jpg,AFSA09.jpg,AFSA05.jpg,AFNE16.jpg,FN,3,num_6,32,num_2,1.23343773419,,,2017_Nov_03_1650,59.9985567269,MAFE4ImagesEEG,001,102296,
AFNE01.JPG,AFNE01.JPG,AFNE01.JPG,AFNE01.JPG,AFNE01.JPG,AFNE01.JPG,,,,,,,,,,,,,0,9,9,1,,,,,,,,,,,AFSA01.jpg,AFNE06.jpg,AFSA15.jpg,AFNE16.jpg,AFSA15.jpg,FS,4,num_2,32,num_6,0.533566831844,,,2017_Nov_03_1650,59.9985567269,MAFE4ImagesEEG,001,102296,
AFNE01.JPG,AFNE01.JPG,AFNE01.JPG,AFNE01.JPG,AFNE01.JPG,AFNE01.JPG,,,,,,,,,,,,,1,0,10,9,,,,,,,,,,,AFNE03.jpg,AFNE17.jpg,AFSA12.jpg,AFSA03.jpg,AFSA12.jpg,FS,4,num_2,32,num_8,0.650159487734,,,2017_Nov_03_1650,59.9985567269,MAFE4ImagesEEG,001,102296,
AFNE01.JPG,AFNE01.JPG,AFNE01.JPG,AFNE01.JPG,AFNE01.JPG,AFNE01.JPG,,,,,,,,,,,,,1,1,11,6,,,,,,,,,,,AFSA02.jpg,AFNE05.jpg,AFSA12.jpg,AFNE10.jpg,AFSA02.jpg,FS,4,num_8,32,num_6,1.18341712654,,,2017_Nov_03_1650,59.9985567269,MAFE4ImagesEEG,001,102296,
AFNE01.JPG,AFNE01.JPG,AFNE01.JPG,AFNE01.JPG,AFNE01.JPG,AFNE01.JPG,,,,,,,,,,,,,1,2,12,8,,,,,,,,,,,AFSA01.jpg,AFNE05.jpg,AFSA09.jpg,AFNE02.jpg,AFNE05.jpg,FN,3,num_6,32,num_8,0.700150907971,,,2017_Nov_03_1650,59.9985567269,MAFE4ImagesEEG,001,102296,
AFNE01.JPG,AFNE01.JPG,AFNE01.JPG,AFNE01.JPG,AFNE01.JPG,AFNE01.JPG,,,,,,,,,,,,,1,3,13,4,,,,,,,,,,,AFSA10.jpg,AFSA07.jpg,AFNE02.jpg,AFNE04.jpg,AFNE02.jpg,FN,3,num_2,16,num_2,0.933473496465,,,2017_Nov_03_1650,59.9985567269,MAFE4ImagesEEG,001,102296,
AFNE01.JPG,AFNE01.JPG,AFNE01.JPG,AFNE01.JPG,AFNE01.JPG,AFNE01.JPG,,,,,,,,,,,,,1,4,14,1,,,,,,,,,,,AFNE20.jpg,AFNE09.jpg,AFSA17.jpg,AFSA11.jpg,AFNE09.jpg,FN,3,num_6,32,num_8,0.733493061503,,,2017_Nov_03_1650,59.9985567269,MAFE4ImagesEEG,001,102296,
AFNE01.JPG,AFNE01.JPG,AFNE01.JPG,AFNE01.JPG,AFNE01.JPG,AFNE01.JPG,,,,,,,,,,,,,1,5,15,5,,,,,,,,,,,AFNE13.jpg,AFNE02.jpg,AFSA08.jpg,AFSA06.jpg,AFNE02.jpg,FN,3,num_6,16,num_6,0.73351070215,,,2017_Nov_03_1650,59.9985567269,MAFE4ImagesEEG,001,102296,
AFNE01.JPG,AFNE01.JPG,AFNE01.JPG,AFNE01.JPG,AFNE01.JPG,AFNE01.JPG,,,,,,,,,,,,,1,6,16,7,,,,,,,,,,,AFNE15.jpg,AFSA15.jpg,AFSA12.jpg,AFNE01.jpg,AFSA12.jpg,FS,4,num_2,16,num_2,1.56676497334,,,2017_Nov_03_1650,59.9985567269,MAFE4ImagesEEG,001,102296,
AFNE01.JPG,AFNE01.JPG,AFNE01.JPG,AFNE01.JPG,AFNE01.JPG,AFNE01.JPG,,,,,,,,,,,,,1,7,17,0,,,,,,,,,,,AFSA11.jpg,AFNE13.jpg,AFSA12.jpg,AFNE03.jpg,AFNE13.jpg,FN,3,num_6,32,num_4,0.833472053055,,,2017_Nov_03_1650,59.9985567269,MAFE4ImagesEEG,001,102296,
AFNE01.JPG,AFNE01.JPG,AFNE01.JPG,AFNE01.JPG,AFNE01.JPG,AFNE01.JPG,,,,,,,,,,,,,1,8,18,2,,,,,,,,,,,AFSA13.jpg,AFNE13.jpg,AFSA11.jpg,AFNE11.jpg,AFSA13.jpg,FS,4,num_8,16,num_8,0.650103358319,,,2017_Nov_03_1650,59.9985567269,MAFE4ImagesEEG,001,102296,
AFNE01.JPG,AFNE01.JPG,AFNE01.JPG,AFNE01.JPG,AFNE01.JPG,AFNE01.JPG,,,,,,,,,,,,,1,9,19,3,,,,,,,,,,,AFSA02.jpg,AFSA20.jpg,AFNE05.jpg,AFNE01.jpg,AFSA02.jpg,FS,4,num_8,32,num_4,0.950138479238,,,2017_Nov_03_1650,59.9985567269,MAFE4ImagesEEG,001,102296,
AFNE01.JPG,AFNE01.JPG,AFNE01.JPG,AFNE01.JPG,AFNE01.JPG,AFNE01.JPG,,,,,,,,,,,,,2,0,20,5,,,,,,,,,,,AFNE01.jpg,AFSA18.jpg,AFSA07.jpg,AFNE03.jpg,AFNE01.jpg,FN,3,num_8,32,num_6,2.54994250741,,,2017_Nov_03_1650,59.9985567269,MAFE4ImagesEEG,001,102296,
AFNE01.JPG,AFNE01.JPG,AFNE01.JPG,AFNE01.JPG,AFNE01.JPG,AFNE01.JPG,,,,,,,,,,,,,2,1,21,7,,,,,,,,,,,AFSA10.jpg,AFNE17.jpg,AFSA12.jpg,AFNE20.jpg,AFNE20.jpg,FN,3,num_4,32,num_2,0.616593778599,,,2017_Nov_03_1650,59.9985567269,MAFE4ImagesEEG,001,102296,
AFNE01.JPG,AFNE01.JPG,AFNE01.JPG,AFNE01.JPG,AFNE01.JPG,AFNE01.JPG,,,,,,,,,,,,,2,2,22,6,,,,,,,,,,,AFNE07.jpg,AFSA17.jpg,AFSA10.jpg,AFNE14.jpg,AFNE07.jpg,FN,3,num_8,16,num_8,0.700127173215,,,2017_Nov_03_1650,59.9985567269,MAFE4ImagesEEG,001,102296,
AFNE01.JPG,AFNE01.JPG,AFNE01.JPG,AFNE01.JPG,AFNE01.JPG,AFNE01.JPG,,,,,,,,,,,,,2,3,23,1,,,,,,,,,,,AFSA08.jpg,AFNE20.jpg,AFNE03.jpg,AFSA15.jpg,AFNE03.jpg,FN,3,num_2,32,num_4,0.666805867571,,,2017_Nov_03_1650,59.9985567269,MAFE4ImagesEEG,001,102296,
AFNE01.JPG,AFNE01.JPG,AFNE01.JPG,AFNE01.JPG,AFNE01.JPG,AFNE01.JPG,,,,,,,,,,,,,2,4,24,3,,,,,,,,,,,AFSA01.jpg,AFNE10.jpg,AFNE12.jpg,AFSA12.jpg,AFSA12.jpg,FS,4,num_4,32,num_8,0.633492580382,,,2017_Nov_03_1650,59.9985567269,MAFE4ImagesEEG,001,102296,
AFNE01.JPG,AFNE01.JPG,AFNE01.JPG,AFNE01.JPG,AFNE01.JPG,AFNE01.JPG,,,,,,,,,,,,,2,5,25,9,,,,,,,,,,,AFNE04.jpg,AFSA07.jpg,AFSA17.jpg,AFNE01.jpg,AFSA07.jpg,FS,4,num_6,32,num_8,0.683505169349,,,2017_Nov_03_1650,59.9985567269,MAFE4ImagesEEG,001,102296,
AFNE01.JPG,AFNE01.JPG,AFNE01.JPG,AFNE01.JPG,AFNE01.JPG,AFNE01.JPG,,,,,,,,,,,,,2,6,26,8,,,,,,,,,,,AFNE19.jpg,AFSA08.jpg,AFSA06.jpg,AFNE12.jpg,AFSA06.jpg,FS,4,num_2,32,num_6,0.66676352988,,,2017_Nov_03_1650,59.9985567269,MAFE4ImagesEEG,001,102296,
AFNE01.JPG,AFNE01.JPG,AFNE01.JPG,AFNE01.JPG,AFNE01.JPG,AFNE01.JPG,,,,,,,,,,,,,2,7,27,2,,,,,,,,,,,AFNE17.jpg,AFSA01.jpg,AFNE01.jpg,AFSA18.jpg,AFSA01.jpg,FS,4,num_6,32,num_8,0.550187552348,,,2017_Nov_03_1650,59.9985567269,MAFE4ImagesEEG,001,102296,
AFNE01.JPG,AFNE01.JPG,AFNE01.JPG,AFNE01.JPG,AFNE01.JPG,AFNE01.JPG,,,,,,,,,,,,,2,8,28,4,,,,,,,,,,,AFNE16.jpg,AFSA06.jpg,AFNE05.jpg,AFSA10.jpg,AFSA10.jpg,FS,4,num_4,16,num_4,0.950082029216,,,2017_Nov_03_1650,59.9985567269,MAFE4ImagesEEG,001,102296,
AFNE01.JPG,AFNE01.JPG,AFNE01.JPG,AFNE01.JPG,AFNE01.JPG,AFNE01.JPG,,,,,,,,,,,,,2,9,29,0,,,,,,,,,,,AFNE11.jpg,AFSA01.jpg,AFSA14.jpg,AFNE01.jpg,AFNE01.jpg,FN,3,num_4,32,num_2,0.90019100043,,,2017_Nov_03_1650,59.9985567269,MAFE4ImagesEEG,001,102296,
AFNE01.JPG,AFNE01.JPG,AFNE01.JPG,AFNE01.JPG,AFNE01.JPG,AFNE01.JPG,,,,,,,,,,,,,3,0,30,7,,,,,,,,,,,AFSA18.jpg,AFNE01.jpg,AFSA07.jpg,AFNE07.jpg,AFNE07.jpg,FN,3,num_4,16,num_4,0.53358800034,,,2017_Nov_03_1650,59.9985567269,MAFE4ImagesEEG,001,102296,
AFNE01.JPG,AFNE01.JPG,AFNE01.JPG,AFNE01.JPG,AFNE01.JPG,AFNE01.JPG,,,,,,,,,,,,,3,1,31,3,,,,,,,,,,,AFNE19.jpg,AFNE11.jpg,AFSA10.jpg,AFSA03.jpg,AFNE19.jpg,FN,3,num_8,16,num_8,1.35008651949,,,2017_Nov_03_1650,59.9985567269,MAFE4ImagesEEG,001,102296,
AFNE01.JPG,AFNE01.JPG,AFNE01.JPG,AFNE01.JPG,AFNE01.JPG,AFNE01.JPG,,,,,,,,,,,,,3,2,32,4,,,,,,,,,,,AFNE14.jpg,AFSA20.jpg,AFNE10.jpg,AFSA07.jpg,AFSA20.jpg,FS,4,num_6,32,num_8,0.516808513785,,,2017_Nov_03_1650,59.9985567269,MAFE4ImagesEEG,001,102296,
AFNE01.JPG,AFNE01.JPG,AFNE01.JPG,AFNE01.JPG,AFNE01.JPG,AFNE01.JPG,,,,,,,,,,,,,3,3,33,0,,,,,,,,,,,AFSA03.jpg,AFSA10.jpg,AFNE01.jpg,AFNE13.jpg,AFNE01.jpg,FN,3,num_2,32,num_8,1.11679151445,,,2017_Nov_03_1650,59.9985567269,MAFE4ImagesEEG,001,102296,
AFNE01.JPG,AFNE01.JPG,AFNE01.JPG,AFNE01.JPG,AFNE01.JPG,AFNE01.JPG,,,,,,,,,,,,,3,4,34,9,,,,,,,,,,,AFNE18.jpg,AFNE02.jpg,AFSA03.jpg,AFSA16.jpg,AFNE02.jpg,FN,3,num_6,32,num_4,1.21563508827,,,2017_Nov_03_1650,59.9985567269,MAFE4ImagesEEG,001,102296,
AFNE01.JPG,AFNE01.JPG,AFNE01.JPG,AFNE01.JPG,AFNE01.JPG,AFNE01.JPG,,,,,,,,,,,,,3,5,35,6,,,,,,,,,,,AFNE05.jpg,AFSA12.jpg,AFNE16.jpg,AFSA02.jpg,AFSA02.jpg,FS,4,num_4,16,num_4,0.633473656839,,,2017_Nov_03_1650,59.9985567269,MAFE4ImagesEEG,001,102296,
AFNE01.JPG,AFNE01.JPG,AFNE01.JPG,AFNE01.JPG,AFNE01.JPG,AFNE01.JPG,,,,,,,,,,,,,3,6,36,8,,,,,,,,,,,AFSA02.jpg,AFNE16.jpg,AFNE15.jpg,AFSA12.jpg,AFNE16.jpg,FN,3,num_6,32,num_8,0.800476298202,,,2017_Nov_03_1650,59.9985567269,MAFE4ImagesEEG,001,102296,
AFNE01.JPG,AFNE01.JPG,AFNE01.JPG,AFNE01.JPG,AFNE01.JPG,AFNE01.JPG,,,,,,,,,,,,,3,7,37,2,,,,,,,,,,,AFSA16.jpg,AFNE08.jpg,AFNE14.jpg,AFSA11.jpg,AFNE14.jpg,FN,3,num_2,16,num_2,0.783349771285,,,2017_Nov_03_1650,59.9985567269,MAFE4ImagesEEG,001,102296,
AFNE01.JPG,AFNE01.JPG,AFNE01.JPG,AFNE01.JPG,AFNE01.JPG,AFNE01.JPG,,,,,,,,,,,,,3,8,38,5,,,,,,,,,,,AFNE12.jpg,AFSA07.jpg,AFSA15.jpg,AFNE14.jpg,AFSA07.jpg,FS,4,num_6,16,num_6,0.65016173292,,,2017_Nov_03_1650,59.9985567269,MAFE4ImagesEEG,001,102296,
AFNE01.JPG,AFNE01.JPG,AFNE01.JPG,AFNE01.JPG,AFNE01.JPG,AFNE01.JPG,,,,,,,,,,,,,3,9,39,1,,,,,,,,,,,AFSA15.jpg,AFSA10.jpg,AFNE01.jpg,AFNE13.jpg,AFNE01.jpg,FN,3,num_2,32,num_4,0.633485203609,,,2017_Nov_03_1650,59.9985567269,MAFE4ImagesEEG,001,102296,
AFNE01.JPG,AFNE01.JPG,AFNE01.JPG,AFNE01.JPG,AFNE01.JPG,AFNE01.JPG,,,,,,,,,,,,,4,0,40,5,,,,,,,,,,,AFNE09.jpg,AFNE12.jpg,AFSA17.jpg,AFSA08.jpg,AFSA08.jpg,FS,4,num_4,16,num_4,0.733601471642,,,2017_Nov_03_1650,59.9985567269,MAFE4ImagesEEG,001,102296,
AFNE01.JPG,AFNE01.JPG,AFNE01.JPG,AFNE01.JPG,AFNE01.JPG,AFNE01.JPG,,,,,,,,,,,,,4,1,41,3,,,,,,,,,,,AFNE20.jpg,AFNE03.jpg,AFSA06.jpg,AFSA05.jpg,AFSA06.jpg,FS,4,num_2,16,num_2,1.00020110351,,,2017_Nov_03_1650,59.9985567269,MAFE4ImagesEEG,001,102296,
AFNE01.JPG,AFNE01.JPG,AFNE01.JPG,AFNE01.JPG,AFNE01.JPG,AFNE01.JPG,,,,,,,,,,,,,4,2,42,9,,,,,,,,,,,AFNE19.jpg,AFNE13.jpg,AFSA20.jpg,AFSA09.jpg,AFSA20.jpg,FS,4,num_2,32,num_4,0.733457138762,,,2017_Nov_03_1650,59.9985567269,MAFE4ImagesEEG,001,102296,
AFNE01.JPG,AFNE01.JPG,AFNE01.JPG,AFNE01.JPG,AFNE01.JPG,AFNE01.JPG,,,,,,,,,,,,,4,3,43,8,,,,,,,,,,,AFNE08.jpg,AFSA01.jpg,AFNE16.jpg,AFSA09.jpg,AFSA09.jpg,FS,4,num_4,32,num_6,0.466768982587,,,2017_Nov_03_1650,59.9985567269,MAFE4ImagesEEG,001,102296,
AFNE01.JPG,AFNE01.JPG,AFNE01.JPG,AFNE01.JPG,AFNE01.JPG,AFNE01.JPG,,,,,,,,,,,,,4,4,44,4,,,,,,,,,,,AFSA02.jpg,AFNE03.jpg,AFSA18.jpg,AFNE02.jpg,AFSA18.jpg,FS,4,num_2,16,num_2,0.916776119033,,,2017_Nov_03_1650,59.9985567269,MAFE4ImagesEEG,001,102296,
AFNE01.JPG,AFNE01.JPG,AFNE01.JPG,AFNE01.JPG,AFNE01.JPG,AFNE01.JPG,,,,,,,,,,,,,4,5,45,1,,,,,,,,,,,AFSA01.jpg,AFSA05.jpg,AFNE09.jpg,AFNE06.jpg,AFNE06.jpg,FN,3,num_4,16,num_4,0.683475661324,,,2017_Nov_03_1650,59.9985567269,MAFE4ImagesEEG,001,102296,
AFNE01.JPG,AFNE01.JPG,AFNE01.JPG,AFNE01.JPG,AFNE01.JPG,AFNE01.JPG,,,,,,,,,,,,,4,6,46,0,,,,,,,,,,,AFNE07.jpg,AFSA06.jpg,AFNE09.jpg,AFSA08.jpg,AFSA06.jpg,FS,4,num_6,32,num_8,1.05009181169,,,2017_Nov_03_1650,59.9985567269,MAFE4ImagesEEG,001,102296,
AFNE01.JPG,AFNE01.JPG,AFNE01.JPG,AFNE01.JPG,AFNE01.JPG,AFNE01.JPG,,,,,,,,,,,,,4,7,47,7,,,,,,,,,,,AFNE19.jpg,AFSA09.jpg,AFSA07.jpg,AFNE12.jpg,AFNE19.jpg,FN,3,num_8,16,num_8,0.68357027974,,,2017_Nov_03_1650,59.9985567269,MAFE4ImagesEEG,001,102296,
AFNE01.JPG,AFNE01.JPG,AFNE01.JPG,AFNE01.JPG,AFNE01.JPG,AFNE01.JPG,,,,,,,,,,,,,4,8,48,2,,,,,,,,,,,AFSA13.jpg,AFSA11.jpg,AFNE20.jpg,AFNE08.jpg,AFSA11.jpg,FS,4,num_6,16,num_6,0.533509098459,,,2017_Nov_03_1650,59.9985567269,MAFE4ImagesEEG,001,102296,
AFNE01.JPG,AFNE01.JPG,AFNE01.JPG,AFNE01.JPG,AFNE01.JPG,AFNE01.JPG,,,,,,,,,,,,,4,9,49,6,,,,,,,,,,,AFSA02.jpg,AFNE09.jpg,AFNE08.jpg,AFSA05.jpg,AFSA05.jpg,FS,4,num_4,32,num_8,0.616760242498,,,2017_Nov_03_1650,59.9985567269,MAFE4ImagesEEG,001,102296,
AFNE01.JPG,AFNE01.JPG,AFNE01.JPG,AFNE01.JPG,AFNE01.JPG,AFNE01.JPG,,,,,,,,,,,,,5,0,50,6,,,,,,,,,,,AFNE05.jpg,AFNE04.jpg,AFSA08.jpg,AFSA07.jpg,AFNE05.jpg,FN,3,num_8,32,num_4,0.783466520254,,,2017_Nov_03_1650,59.9985567269,MAFE4ImagesEEG,001,102296,
AFNE01.JPG,AFNE01.JPG,AFNE01.JPG,AFNE01.JPG,AFNE01.JPG,AFNE01.JPG,,,,,,,,,,,,,5,1,51,8,,,,,,,,,,,AFSA17.jpg,AFNE11.jpg,AFNE15.jpg,AFSA07.jpg,AFSA17.jpg,FS,4,num_8,32,num_4,0.866763530066,,,2017_Nov_03_1650,59.9985567269,MAFE4ImagesEEG,001,102296,
AFNE01.JPG,AFNE01.JPG,AFNE01.JPG,AFNE01.JPG,AFNE01.JPG,AFNE01.JPG,,,,,,,,,,,,,5,2,52,9,,,,,,,,,,,AFNE11.jpg,AFSA04.jpg,AFNE15.jpg,AFSA20.jpg,AFSA20.jpg,FS,4,num_4,32,num_8,0.883418890415,,,2017_Nov_03_1650,59.9985567269,MAFE4ImagesEEG,001,102296,
AFNE01.JPG,AFNE01.JPG,AFNE01.JPG,AFNE01.JPG,AFNE01.JPG,AFNE01.JPG,,,,,,,,,,,,,5,3,53,4,,,,,,,,,,,AFNE13.jpg,AFSA16.jpg,AFNE17.jpg,AFSA09.jpg,AFSA16.jpg,FS,4,num_6,32,num_4,0.900168548571,,,2017_Nov_03_1650,59.9985567269,MAFE4ImagesEEG,001,102296,
AFNE01.JPG,AFNE01.JPG,AFNE01.JPG,AFNE01.JPG,AFNE01.JPG,AFNE01.JPG,,,,,,,,,,,,,5,4,54,0,,,,,,,,,,,AFSA03.jpg,AFNE07.jpg,AFSA08.jpg,AFNE05.jpg,AFNE05.jpg,FN,3,num_4,32,num_8,0.766755351098,,,2017_Nov_03_1650,59.9985567269,MAFE4ImagesEEG,001,102296,
AFNE01.JPG,AFNE01.JPG,AFNE01.JPG,AFNE01.JPG,AFNE01.JPG,AFNE01.JPG,,,,,,,,,,,,,5,5,55,5,,,,,,,,,,,AFNE19.jpg,AFSA03.jpg,AFSA01.jpg,AFNE08.jpg,AFNE08.jpg,FN,3,num_4,32,num_2,0.783454653108,,,2017_Nov_03_1650,59.9985567269,MAFE4ImagesEEG,001,102296,
AFNE01.JPG,AFNE01.JPG,AFNE01.JPG,AFNE01.JPG,AFNE01.JPG,AFNE01.JPG,,,,,,,,,,,,,5,6,56,7,,,,,,,,,,,AFSA19.jpg,AFSA14.jpg,AFNE10.jpg,AFNE03.jpg,AFNE03.jpg,FN,3,num_4,16,num_4,1.48341568327,,,2017_Nov_03_1650,59.9985567269,MAFE4ImagesEEG,001,102296,
AFNE01.JPG,AFNE01.JPG,AFNE01.JPG,AFNE01.JPG,AFNE01.JPG,AFNE01.JPG,,,,,,,,,,,,,5,7,57,2,,,,,,,,,,,AFSA12.jpg,AFNE16.jpg,AFSA18.jpg,AFNE15.jpg,AFSA12.jpg,FS,4,num_8,16,num_8,0.483482396929,,,2017_Nov_03_1650,59.9985567269,MAFE4ImagesEEG,001,102296,
AFNE01.JPG,AFNE01.JPG,AFNE01.JPG,AFNE01.JPG,AFNE01.JPG,AFNE01.JPG,,,,,,,,,,,,,5,8,58,1,,,,,,,,,,,AFSA14.jpg,AFNE09.jpg,AFSA18.jpg,AFNE02.jpg,AFSA14.jpg,FS,4,num_8,32,num_4,0.833472694503,,,2017_Nov_03_1650,59.9985567269,MAFE4ImagesEEG,001,102296,
AFNE01.JPG,AFNE01.JPG,AFNE01.JPG,AFNE01.JPG,AFNE01.JPG,AFNE01.JPG,,,,,,,,,,,,,5,9,59,3,,,,,,,,,,,AFSA12.jpg,AFNE13.jpg,AFSA19.jpg,AFNE01.jpg,AFNE13.jpg,FN,3,num_6,32,num_4,0.766731295735,,,2017_Nov_03_1650,59.9985567269,MAFE4ImagesEEG,001,102296,
,,,,,,,,,,,,,,,,,,,,,,,,,,,,,,,,,,,,,,,,,,,space,18.8989535875,2017_Nov_03_1650,59.9985567269,MAFE4ImagesEEG,001,102296,
AFNE01.JPG,AFNE01.JPG,AFNE01.JPG,AFNE01.JPG,AFNE01.JPG,AFNE01.JPG,,,,,,,,,,,,,,,,,0,0,0,3,,,,,,,AMSA10.jpg,AMNE01.jpg,AMNE13.jpg,AMSA09.jpg,AMNE13.jpg,MN,1,num_2,32,num_4,0.833515994484,,,2017_Nov_03_1650,59.9985567269,MAFE4ImagesEEG,001,102296,
AFNE01.JPG,AFNE01.JPG,AFNE01.JPG,AFNE01.JPG,AFNE01.JPG,AFNE01.JPG,,,,,,,,,,,,,,,,,0,1,1,6,,,,,,,AMNE18.jpg,AMSA18.jpg,AMSA07.jpg,AMNE15.jpg,AMNE15.jpg,MN,1,num_4,16,num_4,0.76680282061,,,2017_Nov_03_1650,59.9985567269,MAFE4ImagesEEG,001,102296,
AFNE01.JPG,AFNE01.JPG,AFNE01.JPG,AFNE01.JPG,AFNE01.JPG,AFNE01.JPG,,,,,,,,,,,,,,,,,0,2,2,7,,,,,,,AMNE04.jpg,AMSA19.jpg,AMNE14.jpg,AMSA06.jpg,AMSA06.jpg,MS,2,num_4,32,num_8,0.66680682986,,,2017_Nov_03_1650,59.9985567269,MAFE4ImagesEEG,001,102296,
AFNE01.JPG,AFNE01.JPG,AFNE01.JPG,AFNE01.JPG,AFNE01.JPG,AFNE01.JPG,,,,,,,,,,,,,,,,,0,3,3,9,,,,,,,AMSA09.jpg,AMNE10.jpg,AMNE17.jpg,AMSA01.jpg,AMNE17.jpg,MN,1,num_2,32,num_8,0.699830489233,,,2017_Nov_03_1650,59.9985567269,MAFE4ImagesEEG,001,102296,
AFNE01.JPG,AFNE01.JPG,AFNE01.JPG,AFNE01.JPG,AFNE01.JPG,AFNE01.JPG,,,,,,,,,,,,,,,,,0,4,4,8,,,,,,,AMNE14.jpg,AMSA06.jpg,AMSA02.jpg,AMNE03.jpg,AMNE14.jpg,MN,1,num_8,32,num_2,0.866783736506,,,2017_Nov_03_1650,59.9985567269,MAFE4ImagesEEG,001,102296,
AFNE01.JPG,AFNE01.JPG,AFNE01.JPG,AFNE01.JPG,AFNE01.JPG,AFNE01.JPG,,,,,,,,,,,,,,,,,0,5,5,5,,,,,,,AMSA07.jpg,AMNE17.jpg,AMNE09.jpg,AMSA13.jpg,AMSA13.jpg,MS,2,num_4,16,num_4,0.483598504914,,,2017_Nov_03_1650,59.9985567269,MAFE4ImagesEEG,001,102296,
AFNE01.JPG,AFNE01.JPG,AFNE01.JPG,AFNE01.JPG,AFNE01.JPG,AFNE01.JPG,,,,,,,,,,,,,,,,,0,6,6,2,,,,,,,AMSA02.jpg,AMSA19.jpg,AMNE02.jpg,AMNE07.jpg,AMNE07.jpg,MN,1,num_4,32,num_6,1.1667309748,,,2017_Nov_03_1650,59.9985567269,MAFE4ImagesEEG,001,102296,
AFNE01.JPG,AFNE01.JPG,AFNE01.JPG,AFNE01.JPG,AFNE01.JPG,AFNE01.JPG,,,,,,,,,,,,,,,,,0,7,7,0,,,,,,,AMSA09.jpg,AMNE04.jpg,AMSA07.jpg,AMNE09.jpg,AMSA09.jpg,MS,2,num_8,32,num_2,1.23344286578,,,2017_Nov_03_1650,59.9985567269,MAFE4ImagesEEG,001,102296,
AFNE01.JPG,AFNE01.JPG,AFNE01.JPG,AFNE01.JPG,AFNE01.JPG,AFNE01.JPG,,,,,,,,,,,,,,,,,0,8,8,4,,,,,,,AMSA09.jpg,AMNE01.jpg,AMNE15.jpg,AMSA13.jpg,AMSA13.jpg,MS,2,num_4,16,num_4,0.83342233859,,,2017_Nov_03_1650,59.9985567269,MAFE4ImagesEEG,001,102296,
AFNE01.JPG,AFNE01.JPG,AFNE01.JPG,AFNE01.JPG,AFNE01.JPG,AFNE01.JPG,,,,,,,,,,,,,,,,,0,9,9,1,,,,,,,AMSA04.jpg,AMNE17.jpg,AMSA05.jpg,AMNE07.jpg,AMNE17.jpg,MN,1,num_6,16,num_6,1.33339780197,,,2017_Nov_03_1650,59.9985567269,MAFE4ImagesEEG,001,102296,
AFNE01.JPG,AFNE01.JPG,AFNE01.JPG,AFNE01.JPG,AFNE01.JPG,AFNE01.JPG,,,,,,,,,,,,,,,,,1,0,10,5,,,,,,,AMSA16.jpg,AMNE01.jpg,AMNE02.jpg,AMSA05.jpg,AMSA16.jpg,MS,2,num_8,32,num_4,1.24995966698,,,2017_Nov_03_1650,59.9985567269,MAFE4ImagesEEG,001,102296,
AFNE01.JPG,AFNE01.JPG,AFNE01.JPG,AFNE01.JPG,AFNE01.JPG,AFNE01.JPG,,,,,,,,,,,,,,,,,1,1,11,4,,,,,,,AMNE15.jpg,AMNE19.jpg,AMSA20.jpg,AMSA18.jpg,AMSA20.jpg,MS,2,num_2,16,num_2,0.650120998966,,,2017_Nov_03_1650,59.9985567269,MAFE4ImagesEEG,001,102296,
AFNE01.JPG,AFNE01.JPG,AFNE01.JPG,AFNE01.JPG,AFNE01.JPG,AFNE01.JPG,,,,,,,,,,,,,,,,,1,2,12,3,,,,,,,AMSA19.jpg,AMSA10.jpg,AMNE06.jpg,AMNE17.jpg,AMNE06.jpg,MN,1,num_2,16,num_2,0.699998877244,,,2017_Nov_03_1650,59.9985567269,MAFE4ImagesEEG,001,102296,
AFNE01.JPG,AFNE01.JPG,AFNE01.JPG,AFNE01.JPG,AFNE01.JPG,AFNE01.JPG,,,,,,,,,,,,,,,,,1,3,13,7,,,,,,,AMNE18.jpg,AMSA08.jpg,AMNE09.jpg,AMSA15.jpg,AMSA15.jpg,MS,2,num_4,32,num_6,0.566822385648,,,2017_Nov_03_1650,59.9985567269,MAFE4ImagesEEG,001,102296,
AFNE01.JPG,AFNE01.JPG,AFNE01.JPG,AFNE01.JPG,AFNE01.JPG,AFNE01.JPG,,,,,,,,,,,,,,,,,1,4,14,2,,,,,,,AMNE11.jpg,AMNE16.jpg,AMSA11.jpg,AMSA01.jpg,AMSA01.jpg,MS,2,num_4,16,num_4,0.516828720458,,,2017_Nov_03_1650,59.9985567269,MAFE4ImagesEEG,001,102296,
AFNE01.JPG,AFNE01.JPG,AFNE01.JPG,AFNE01.JPG,AFNE01.JPG,AFNE01.JPG,,,,,,,,,,,,,,,,,1,5,15,6,,,,,,,AMNE12.jpg,AMSA13.jpg,AMNE11.jpg,AMSA04.jpg,AMNE11.jpg,MN,1,num_2,32,num_8,0.666939936578,,,2017_Nov_03_1650,59.9985567269,MAFE4ImagesEEG,001,102296,
AFNE01.JPG,AFNE01.JPG,AFNE01.JPG,AFNE01.JPG,AFNE01.JPG,AFNE01.JPG,,,,,,,,,,,,,,,,,1,6,16,9,,,,,,,AMSA06.jpg,AMSA20.jpg,AMNE20.jpg,AMNE05.jpg,AMSA20.jpg,MS,2,num_6,32,num_8,0.633462430909,,,2017_Nov_03_1650,59.9985567269,MAFE4ImagesEEG,001,102296,
AFNE01.JPG,AFNE01.JPG,AFNE01.JPG,AFNE01.JPG,AFNE01.JPG,AFNE01.JPG,,,,,,,,,,,,,,,,,1,7,17,8,,,,,,,AMNE18.jpg,AMSA06.jpg,AMSA20.jpg,AMNE03.jpg,AMSA06.jpg,MS,2,num_6,32,num_4,1.00010199519,,,2017_Nov_03_1650,59.9985567269,MAFE4ImagesEEG,001,102296,
AFNE01.JPG,AFNE01.JPG,AFNE01.JPG,AFNE01.JPG,AFNE01.JPG,AFNE01.JPG,,,,,,,,,,,,,,,,,1,8,18,1,,,,,,,AMNE09.jpg,AMSA05.jpg,AMSA20.jpg,AMNE17.jpg,AMNE17.jpg,MN,1,num_4,32,num_8,1.05009373603,,,2017_Nov_03_1650,59.9985567269,MAFE4ImagesEEG,001,102296,
AFNE01.JPG,AFNE01.JPG,AFNE01.JPG,AFNE01.JPG,AFNE01.JPG,AFNE01.JPG,,,,,,,,,,,,,,,,,1,9,19,0,,,,,,,AMSA13.jpg,AMSA11.jpg,AMNE14.jpg,AMNE09.jpg,AMSA11.jpg,MS,2,num_6,16,num_6,1.16671814537,,,2017_Nov_03_1650,59.9985567269,MAFE4ImagesEEG,001,102296,
AFNE01.JPG,AFNE01.JPG,AFNE01.JPG,AFNE01.JPG,AFNE01.JPG,AFNE01.JPG,,,,,,,,,,,,,,,,,2,0,20,1,,,,,,,AMNE20.jpg,AMSA17.jpg,AMNE05.jpg,AMSA20.jpg,AMNE20.jpg,MN,1,num_8,32,num_4,0.833504127106,,,2017_Nov_03_1650,59.9985567269,MAFE4ImagesEEG,001,102296,
AFNE01.JPG,AFNE01.JPG,AFNE01.JPG,AFNE01.JPG,AFNE01.JPG,AFNE01.JPG,,,,,,,,,,,,,,,,,2,1,21,0,,,,,,,AMSA09.jpg,AMNE17.jpg,AMSA08.jpg,AMNE19.jpg,AMNE17.jpg,MN,1,num_6,32,num_8,0.750124046113,,,2017_Nov_03_1650,59.9985567269,MAFE4ImagesEEG,001,102296,
AFNE01.JPG,AFNE01.JPG,AFNE01.JPG,AFNE01.JPG,AFNE01.JPG,AFNE01.JPG,,,,,,,,,,,,,,,,,2,2,22,4,,,,,,,AMNE04.jpg,AMNE10.jpg,AMSA04.jpg,AMSA05.jpg,AMSA04.jpg,MS,2,num_2,16,num_2,1.53340004734,,,2017_Nov_03_1650,59.9985567269,MAFE4ImagesEEG,001,102296,
AFNE01.JPG,AFNE01.JPG,AFNE01.JPG,AFNE01.JPG,AFNE01.JPG,AFNE01.JPG,,,,,,,,,,,,,,,,,2,3,23,5,,,,,,,AMNE06.jpg,AMSA13.jpg,AMSA19.jpg,AMNE08.jpg,AMNE06.jpg,MN,1,num_8,16,num_8,1.1167238385,,,2017_Nov_03_1650,59.9985567269,MAFE4ImagesEEG,001,102296,
AFNE01.JPG,AFNE01.JPG,AFNE01.JPG,AFNE01.JPG,AFNE01.JPG,AFNE01.JPG,,,,,,,,,,,,,,,,,2,4,24,3,,,,,,,AMNE07.jpg,AMSA04.jpg,AMNE08.jpg,AMSA15.jpg,AMNE08.jpg,MN,1,num_2,16,num_2,0.583519442473,,,2017_Nov_03_1650,59.9985567269,MAFE4ImagesEEG,001,102296,
AFNE01.JPG,AFNE01.JPG,AFNE01.JPG,AFNE01.JPG,AFNE01.JPG,AFNE01.JPG,,,,,,,,,,,,,,,,,2,5,25,7,,,,,,,AMNE03.jpg,AMNE02.jpg,AMSA19.jpg,AMSA07.jpg,AMNE03.jpg,MN,1,num_8,16,num_8,0.816805787617,,,2017_Nov_03_1650,59.9985567269,MAFE4ImagesEEG,001,102296,
AFNE01.JPG,AFNE01.JPG,AFNE01.JPG,AFNE01.JPG,AFNE01.JPG,AFNE01.JPG,,,,,,,,,,,,,,,,,2,6,26,2,,,,,,,AMNE15.jpg,AMSA10.jpg,AMNE07.jpg,AMSA03.jpg,AMSA10.jpg,MS,2,num_6,32,num_2,1.18343572947,,,2017_Nov_03_1650,59.9985567269,MAFE4ImagesEEG,001,102296,
AFNE01.JPG,AFNE01.JPG,AFNE01.JPG,AFNE01.JPG,AFNE01.JPG,AFNE01.JPG,,,,,,,,,,,,,,,,,2,7,27,9,,,,,,,AMSA07.jpg,AMNE14.jpg,AMSA20.jpg,AMNE16.jpg,AMNE14.jpg,MN,1,num_6,16,num_6,0.716788948746,,,2017_Nov_03_1650,59.9985567269,MAFE4ImagesEEG,001,102296,
AFNE01.JPG,AFNE01.JPG,AFNE01.JPG,AFNE01.JPG,AFNE01.JPG,AFNE01.JPG,,,,,,,,,,,,,,,,,2,8,28,8,,,,,,,AMSA01.jpg,AMNE13.jpg,AMSA17.jpg,AMNE14.jpg,AMNE13.jpg,MN,1,num_6,32,num_2,0.800108089112,,,2017_Nov_03_1650,59.9985567269,MAFE4ImagesEEG,001,102296,
AFNE01.JPG,AFNE01.JPG,AFNE01.JPG,AFNE01.JPG,AFNE01.JPG,AFNE01.JPG,,,,,,,,,,,,,,,,,2,9,29,6,,,,,,,AMNE20.jpg,AMSA19.jpg,AMSA20.jpg,AMNE09.jpg,AMSA19.jpg,MS,2,num_6,32,num_4,1.10022788541,,,2017_Nov_03_1650,59.9985567269,MAFE4ImagesEEG,001,102296,
AFNE01.JPG,AFNE01.JPG,AFNE01.JPG,AFNE01.JPG,AFNE01.JPG,AFNE01.JPG,,,,,,,,,,,,,,,,,3,0,30,6,,,,,,,AMNE08.jpg,AMSA15.jpg,AMNE17.jpg,AMSA03.jpg,AMSA03.jpg,MS,2,num_4,32,num_8,0.916770345764,,,2017_Nov_03_1650,59.9985567269,MAFE4ImagesEEG,001,102296,
AFNE01.JPG,AFNE01.JPG,AFNE01.JPG,AFNE01.JPG,AFNE01.JPG,AFNE01.JPG,,,,,,,,,,,,,,,,,3,1,31,3,,,,,,,AMSA18.jpg,AMNE05.jpg,AMSA17.jpg,AMNE03.jpg,AMSA17.jpg,MS,2,num_2,16,num_2,1.05013318709,,,2017_Nov_03_1650,59.9985567269,MAFE4ImagesEEG,001,102296,
AFNE01.JPG,AFNE01.JPG,AFNE01.JPG,AFNE01.JPG,AFNE01.JPG,AFNE01.JPG,,,,,,,,,,,,,,,,,3,2,32,5,,,,,,,AMSA13.jpg,AMNE09.jpg,AMSA08.jpg,AMNE01.jpg,AMNE09.jpg,MN,1,num_6,32,num_4,0.783487368375,,,2017_Nov_03_1650,59.9985567269,MAFE4ImagesEEG,001,102296,
AFNE01.JPG,AFNE01.JPG,AFNE01.JPG,AFNE01.JPG,AFNE01.JPG,AFNE01.JPG,,,,,,,,,,,,,,,,,3,3,33,4,,,,,,,AMSA17.jpg,AMNE14.jpg,AMNE11.jpg,AMSA08.jpg,AMNE11.jpg,MN,1,num_2,16,num_2,1.00016678451,,,2017_Nov_03_1650,59.9985567269,MAFE4ImagesEEG,001,102296,
AFNE01.JPG,AFNE01.JPG,AFNE01.JPG,AFNE01.JPG,AFNE01.JPG,AFNE01.JPG,,,,,,,,,,,,,,,,,3,4,34,8,,,,,,,AMNE14.jpg,AMSA02.jpg,AMSA09.jpg,AMNE08.jpg,AMNE14.jpg,MN,1,num_8,16,num_8,0.850039851852,,,2017_Nov_03_1650,59.9985567269,MAFE4ImagesEEG,001,102296,
AFNE01.JPG,AFNE01.JPG,AFNE01.JPG,AFNE01.JPG,AFNE01.JPG,AFNE01.JPG,,,,,,,,,,,,,,,,,3,5,35,9,,,,,,,AMNE15.jpg,AMSA01.jpg,AMNE19.jpg,AMSA06.jpg,AMNE19.jpg,MN,1,num_2,32,num_4,0.900006575044,,,2017_Nov_03_1650,59.9985567269,MAFE4ImagesEEG,001,102296,
AFNE01.JPG,AFNE01.JPG,AFNE01.JPG,AFNE01.JPG,AFNE01.JPG,AFNE01.JPG,,,,,,,,,,,,,,,,,3,6,36,2,,,,,,,AMNE02.jpg,AMNE15.jpg,AMSA19.jpg,AMSA02.jpg,AMSA19.jpg,MS,2,num_2,32,num_8,0.916790231597,,,2017_Nov_03_1650,59.9985567269,MAFE4ImagesEEG,001,102296,
AFNE01.JPG,AFNE01.JPG,AFNE01.JPG,AFNE01.JPG,AFNE01.JPG,AFNE01.JPG,,,,,,,,,,,,,,,,,3,7,37,1,,,,,,,AMNE18.jpg,AMSA16.jpg,AMSA13.jpg,AMNE12.jpg,AMSA13.jpg,MS,2,num_2,16,num_2,0.78346523759,,,2017_Nov_03_1650,59.9985567269,MAFE4ImagesEEG,001,102296,
AFNE01.JPG,AFNE01.JPG,AFNE01.JPG,AFNE01.JPG,AFNE01.JPG,AFNE01.JPG,,,,,,,,,,,,,,,,,3,8,38,7,,,,,,,AMSA14.jpg,AMSA16.jpg,AMNE15.jpg,AMNE08.jpg,AMSA14.jpg,MS,2,num_8,16,num_8,0.650150827831,,,2017_Nov_03_1650,59.9985567269,MAFE4ImagesEEG,001,102296,
AFNE01.JPG,AFNE01.JPG,AFNE01.JPG,AFNE01.JPG,AFNE01.JPG,AFNE01.JPG,,,,,,,,,,,,,,,,,3,9,39,0,,,,,,,AMSA04.jpg,AMSA08.jpg,AMNE18.jpg,AMNE01.jpg,AMSA04.jpg,MS,2,num_8,32,num_4,1.38353708293,,,2017_Nov_03_1650,59.9985567269,MAFE4ImagesEEG,001,102296,
AFNE01.JPG,AFNE01.JPG,AFNE01.JPG,AFNE01.JPG,AFNE01.JPG,AFNE01.JPG,,,,,,,,,,,,,,,,,4,0,40,0,,,,,,,AMNE07.jpg,AMSA06.jpg,AMSA05.jpg,AMNE14.jpg,AMSA05.jpg,MS,2,num_2,32,num_8,1.00007826043,,,2017_Nov_03_1650,59.9985567269,MAFE4ImagesEEG,001,102296,
AFNE01.JPG,AFNE01.JPG,AFNE01.JPG,AFNE01.JPG,AFNE01.JPG,AFNE01.JPG,,,,,,,,,,,,,,,,,4,1,41,5,,,,,,,AMNE08.jpg,AMSA02.jpg,AMNE03.jpg,AMSA13.jpg,AMSA13.jpg,MS,2,num_4,32,num_8,1.01679584431,,,2017_Nov_03_1650,59.9985567269,MAFE4ImagesEEG,001,102296,
AFNE01.JPG,AFNE01.JPG,AFNE01.JPG,AFNE01.JPG,AFNE01.JPG,AFNE01.JPG,,,,,,,,,,,,,,,,,4,2,42,7,,,,,,,AMSA01.jpg,AMNE12.jpg,AMNE01.jpg,AMSA11.jpg,AMSA01.jpg,MS,2,num_8,32,num_4,0.883459624369,,,2017_Nov_03_1650,59.9985567269,MAFE4ImagesEEG,001,102296,
AFNE01.JPG,AFNE01.JPG,AFNE01.JPG,AFNE01.JPG,AFNE01.JPG,AFNE01.JPG,,,,,,,,,,,,,,,,,4,3,43,6,,,,,,,AMSA03.jpg,AMNE20.jpg,AMNE02.jpg,AMSA18.jpg,AMSA03.jpg,MS,2,num_8,32,num_4,0.833487769589,,,2017_Nov_03_1650,59.9985567269,MAFE4ImagesEEG,001,102296,
AFNE01.JPG,AFNE01.JPG,AFNE01.JPG,AFNE01.JPG,AFNE01.JPG,AFNE01.JPG,,,,,,,,,,,,,,,,,4,4,44,8,,,,,,,AMSA07.jpg,AMNE03.jpg,AMNE18.jpg,AMSA15.jpg,AMNE03.jpg,MN,1,num_6,32,num_8,0.900128135458,,,2017_Nov_03_1650,59.9985567269,MAFE4ImagesEEG,001,102296,
AFNE01.JPG,AFNE01.JPG,AFNE01.JPG,AFNE01.JPG,AFNE01.JPG,AFNE01.JPG,,,,,,,,,,,,,,,,,4,5,45,4,,,,,,,AMNE02.jpg,AMSA07.jpg,AMSA09.jpg,AMNE13.jpg,AMNE02.jpg,MN,1,num_8,16,num_8,0.766638601897,,,2017_Nov_03_1650,59.9985567269,MAFE4ImagesEEG,001,102296,
AFNE01.JPG,AFNE01.JPG,AFNE01.JPG,AFNE01.JPG,AFNE01.JPG,AFNE01.JPG,,,,,,,,,,,,,,,,,4,6,46,2,,,,,,,AMNE17.jpg,AMSA03.jpg,AMNE14.jpg,AMSA16.jpg,AMSA16.jpg,MS,2,num_4,32,num_8,1.2000772981,,,2017_Nov_03_1650,59.9985567269,MAFE4ImagesEEG,001,102296,
AFNE01.JPG,AFNE01.JPG,AFNE01.JPG,AFNE01.JPG,AFNE01.JPG,AFNE01.JPG,,,,,,,,,,,,,,,,,4,7,47,9,,,,,,,AMNE01.jpg,AMNE07.jpg,AMSA07.jpg,AMSA02.jpg,AMNE01.jpg,MN,1,num_8,16,num_8,0.483459624695,,,2017_Nov_03_1650,59.9985567269,MAFE4ImagesEEG,001,102296,
AFNE01.JPG,AFNE01.JPG,AFNE01.JPG,AFNE01.JPG,AFNE01.JPG,AFNE01.JPG,,,,,,,,,,,,,,,,,4,8,48,3,,,,,,,AMNE03.jpg,AMNE12.jpg,AMSA10.jpg,AMSA05.jpg,AMNE03.jpg,MN,1,num_8,32,num_4,1.06641360302,,,2017_Nov_03_1650,59.9985567269,MAFE4ImagesEEG,001,102296,
AFNE01.JPG,AFNE01.JPG,AFNE01.JPG,AFNE01.JPG,AFNE01.JPG,AFNE01.JPG,,,,,,,,,,,,,,,,,4,9,49,1,,,,,,,AMSA11.jpg,AMNE15.jpg,AMSA04.jpg,AMNE03.jpg,AMNE15.jpg,MN,1,num_6,16,num_6,0.46683826251,,,2017_Nov_03_1650,59.9985567269,MAFE4ImagesEEG,001,102296,
AFNE01.JPG,AFNE01.JPG,AFNE01.JPG,AFNE01.JPG,AFNE01.JPG,AFNE01.JPG,,,,,,,,,,,,,,,,,5,0,50,1,,,,,,,AMNE14.jpg,AMSA07.jpg,AMNE16.jpg,AMSA05.jpg,AMSA05.jpg,MS,2,num_4,16,num_4,0.733498514164,,,2017_Nov_03_1650,59.9985567269,MAFE4ImagesEEG,001,102296,
AFNE01.JPG,AFNE01.JPG,AFNE01.JPG,AFNE01.JPG,AFNE01.JPG,AFNE01.JPG,,,,,,,,,,,,,,,,,5,1,51,4,,,,,,,AMNE16.jpg,AMSA01.jpg,AMNE14.jpg,AMSA16.jpg,AMNE14.jpg,MN,1,num_2,32,num_8,0.833567633526,,,2017_Nov_03_1650,59.9985567269,MAFE4ImagesEEG,001,102296,
AFNE01.JPG,AFNE01.JPG,AFNE01.JPG,AFNE01.JPG,AFNE01.JPG,AFNE01.JPG,,,,,,,,,,,,,,,,,5,2,52,5,,,,,,,AMNE01.jpg,AMSA11.jpg,AMNE19.jpg,AMSA12.jpg,AMSA11.jpg,MS,2,num_6,32,num_2,0.933451044606,,,2017_Nov_03_1650,59.9985567269,MAFE4ImagesEEG,001,102296,
AFNE01.JPG,AFNE01.JPG,AFNE01.JPG,AFNE01.JPG,AFNE01.JPG,AFNE01.JPG,,,,,,,,,,,,,,,,,5,3,53,0,,,,,,,AMNE04.jpg,AMSA17.jpg,AMSA08.jpg,AMNE10.jpg,AMNE10.jpg,MN,1,num_4,16,num_4,0.833460506517,,,2017_Nov_03_1650,59.9985567269,MAFE4ImagesEEG,001,102296,
AFNE01.JPG,AFNE01.JPG,AFNE01.JPG,AFNE01.JPG,AFNE01.JPG,AFNE01.JPG,,,,,,,,,,,,,,,,,5,4,54,8,,,,,,,AMNE16.jpg,AMSA10.jpg,AMSA04.jpg,AMNE01.jpg,AMNE16.jpg,MN,1,num_8,32,num_6,0.600169671234,,,2017_Nov_03_1650,59.9985567269,MAFE4ImagesEEG,001,102296,
AFNE01.JPG,AFNE01.JPG,AFNE01.JPG,AFNE01.JPG,AFNE01.JPG,AFNE01.JPG,,,,,,,,,,,,,,,,,5,5,55,7,,,,,,,AMSA19.jpg,AMNE01.jpg,AMNE04.jpg,AMSA02.jpg,AMSA02.jpg,MS,2,num_4,16,num_4,0.966789349681,,,2017_Nov_03_1650,59.9985567269,MAFE4ImagesEEG,001,102296,
AFNE01.JPG,AFNE01.JPG,AFNE01.JPG,AFNE01.JPG,AFNE01.JPG,AFNE01.JPG,,,,,,,,,,,,,,,,,5,6,56,9,,,,,,,AMSA20.jpg,AMNE05.jpg,AMSA12.jpg,AMNE04.jpg,AMSA20.jpg,MS,2,num_8,32,num_6,0.850491132354,,,2017_Nov_03_1650,59.9985567269,MAFE4ImagesEEG,001,102296,
AFNE01.JPG,AFNE01.JPG,AFNE01.JPG,AFNE01.JPG,AFNE01.JPG,AFNE01.JPG,,,,,,,,,,,,,,,,,5,7,57,2,,,,,,,AMSA11.jpg,AMSA18.jpg,AMNE15.jpg,AMNE06.jpg,AMNE06.jpg,MN,1,num_4,16,num_4,0.850131262559,,,2017_Nov_03_1650,59.9985567269,MAFE4ImagesEEG,001,102296,
AFNE01.JPG,AFNE01.JPG,AFNE01.JPG,AFNE01.JPG,AFNE01.JPG,AFNE01.JPG,,,,,,,,,,,,,,,,,5,8,58,6,,,,,,,AMNE08.jpg,AMNE05.jpg,AMSA07.jpg,AMSA12.jpg,AMSA12.jpg,MS,2,num_4,32,num_2,1.58342706948,,,2017_Nov_03_1650,59.9985567269,MAFE4ImagesEEG,001,102296,
AFNE01.JPG,AFNE01.JPG,AFNE01.JPG,AFNE01.JPG,AFNE01.JPG,AFNE01.JPG,,,,,,,,,,,,,,,,,5,9,59,3,,,,,,,AMSA06.jpg,AMNE17.jpg,AMSA11.jpg,AMNE10.jpg,AMNE17.jpg,MN,1,num_6,16,num_6,0.73345778021,,,2017_Nov_03_1650,59.9985567269,MAFE4ImagesEEG,001,102296,
,,,,,,,,,,,,,,,,,,,,,,,,,,,,,,,,,,,,,,,,,,,space,28.4146574743,2017_Nov_03_1650,59.9985567269,MAFE4ImagesEEG,001,102296,
AFNE01.JPG,AFNE01.JPG,AFNE01.JPG,AFNE01.JPG,AFNE01.JPG,AFNE01.JPG,,,,,,,,,,,,,,,,,,,,,0,0,0,6,,,AFNE03.jpg,AFNE12.jpg,AFSA06.jpg,AFSA02.jpg,AFSA02.jpg,FS,4,num_4,16,num_4,0.783468124224,,,2017_Nov_03_1650,59.9985567269,MAFE4ImagesEEG,001,102296,
AFNE01.JPG,AFNE01.JPG,AFNE01.JPG,AFNE01.JPG,AFNE01.JPG,AFNE01.JPG,,,,,,,,,,,,,,,,,,,,,0,1,1,2,,,AFNE15.jpg,AFNE09.jpg,AFSA09.jpg,AFSA03.jpg,AFNE09.jpg,FN,3,num_6,32,num_8,0.600170954131,,,2017_Nov_03_1650,59.9985567269,MAFE4ImagesEEG,001,102296,
AFNE01.JPG,AFNE01.JPG,AFNE01.JPG,AFNE01.JPG,AFNE01.JPG,AFNE01.JPG,,,,,,,,,,,,,,,,,,,,,0,2,2,7,,,AFNE08.jpg,AFNE15.jpg,AFSA16.jpg,AFSA07.jpg,AFNE15.jpg,FN,3,num_6,16,num_6,0.450137035921,,,2017_Nov_03_1650,59.9985567269,MAFE4ImagesEEG,001,102296,
AFNE01.JPG,AFNE01.JPG,AFNE01.JPG,AFNE01.JPG,AFNE01.JPG,AFNE01.JPG,,,,,,,,,,,,,,,,,,,,,0,3,3,0,,,AFSA17.jpg,AFNE18.jpg,AFSA02.jpg,AFNE11.jpg,AFNE11.jpg,FN,3,num_4,16,num_4,0.683485283749,,,2017_Nov_03_1650,59.9985567269,MAFE4ImagesEEG,001,102296,
AFNE01.JPG,AFNE01.JPG,AFNE01.JPG,AFNE01.JPG,AFNE01.JPG,AFNE01.JPG,,,,,,,,,,,,,,,,,,,,,0,4,4,4,,,AFNE16.jpg,AFSA01.jpg,AFNE05.jpg,AFSA08.jpg,AFNE16.jpg,FN,3,num_8,16,num_8,0.766785500804,,,2017_Nov_03_1650,59.9985567269,MAFE4ImagesEEG,001,102296,
AFNE01.JPG,AFNE01.JPG,AFNE01.JPG,AFNE01.JPG,AFNE01.JPG,AFNE01.JPG,,,,,,,,,,,,,,,,,,,,,0,5,5,1,,,AFSA06.jpg,AFNE07.jpg,AFNE14.jpg,AFSA08.jpg,AFSA08.jpg,FS,4,num_4,16,num_4,0.700138078304,,,2017_Nov_03_1650,59.9985567269,MAFE4ImagesEEG,001,102296,
AFNE01.JPG,AFNE01.JPG,AFNE01.JPG,AFNE01.JPG,AFNE01.JPG,AFNE01.JPG,,,,,,,,,,,,,,,,,,,,,0,6,6,5,,,AFNE19.jpg,AFNE07.jpg,AFSA01.jpg,AFSA20.jpg,AFSA01.jpg,FS,4,num_2,32,num_8,0.716808192898,,,2017_Nov_03_1650,59.9985567269,MAFE4ImagesEEG,001,102296,
AFNE01.JPG,AFNE01.JPG,AFNE01.JPG,AFNE01.JPG,AFNE01.JPG,AFNE01.JPG,,,,,,,,,,,,,,,,,,,,,0,7,7,8,,,AFSA12.jpg,AFNE10.jpg,AFSA01.jpg,AFNE11.jpg,AFSA12.jpg,FS,4,num_8,16,num_8,0.466821263079,,,2017_Nov_03_1650,59.9985567269,MAFE4ImagesEEG,001,102296,
AFNE01.JPG,AFNE01.JPG,AFNE01.JPG,AFNE01.JPG,AFNE01.JPG,AFNE01.JPG,,,,,,,,,,,,,,,,,,,,,0,8,8,3,,,AFSA15.jpg,AFNE08.jpg,AFSA16.jpg,AFNE09.jpg,AFSA15.jpg,FS,4,num_8,32,num_4,1.26702621579,,,2017_Nov_03_1650,59.9985567269,MAFE4ImagesEEG,001,102296,
AFNE01.JPG,AFNE01.JPG,AFNE01.JPG,AFNE01.JPG,AFNE01.JPG,AFNE01.JPG,,,,,,,,,,,,,,,,,,,,,0,9,9,9,,,AFSA14.jpg,AFSA06.jpg,AFNE07.jpg,AFNE17.jpg,AFNE07.jpg,FN,3,num_2,16,num_2,1.283385213,,,2017_Nov_03_1650,59.9985567269,MAFE4ImagesEEG,001,102296,
AFNE01.JPG,AFNE01.JPG,AFNE01.JPG,AFNE01.JPG,AFNE01.JPG,AFNE01.JPG,,,,,,,,,,,,,,,,,,,,,1,0,10,9,,,AFNE06.jpg,AFSA06.jpg,AFSA12.jpg,AFNE08.jpg,AFSA06.jpg,FS,4,num_6,32,num_4,0.849959667074,,,2017_Nov_03_1650,59.9985567269,MAFE4ImagesEEG,001,102296,
AFNE01.JPG,AFNE01.JPG,AFNE01.JPG,AFNE01.JPG,AFNE01.JPG,AFNE01.JPG,,,,,,,,,,,,,,,,,,,,,1,1,11,1,,,AFNE11.jpg,AFSA03.jpg,AFNE14.jpg,AFSA09.jpg,AFSA09.jpg,FS,4,num_4,32,num_6,0.816773071885,,,2017_Nov_03_1650,59.9985567269,MAFE4ImagesEEG,001,102296,
AFNE01.JPG,AFNE01.JPG,AFNE01.JPG,AFNE01.JPG,AFNE01.JPG,AFNE01.JPG,,,,,,,,,,,,,,,,,,,,,1,2,12,8,,,AFNE13.jpg,AFSA03.jpg,AFSA07.jpg,AFNE09.jpg,AFNE13.jpg,FN,3,num_8,16,num_8,0.833452167455,,,2017_Nov_03_1650,59.9985567269,MAFE4ImagesEEG,001,102296,
AFNE01.JPG,AFNE01.JPG,AFNE01.JPG,AFNE01.JPG,AFNE01.JPG,AFNE01.JPG,,,,,,,,,,,,,,,,,,,,,1,3,13,4,,,AFNE06.jpg,AFSA02.jpg,AFSA06.jpg,AFNE13.jpg,AFSA06.jpg,FS,4,num_2,32,num_4,0.616858068155,,,2017_Nov_03_1650,59.9985567269,MAFE4ImagesEEG,001,102296,
AFNE01.JPG,AFNE01.JPG,AFNE01.JPG,AFNE01.JPG,AFNE01.JPG,AFNE01.JPG,,,,,,,,,,,,,,,,,,,,,1,4,14,3,,,AFSA18.jpg,AFNE09.jpg,AFSA10.jpg,AFNE04.jpg,AFNE09.jpg,FN,3,num_6,16,num_6,0.85025442671,,,2017_Nov_03_1650,59.9985567269,MAFE4ImagesEEG,001,102296,
AFNE01.JPG,AFNE01.JPG,AFNE01.JPG,AFNE01.JPG,AFNE01.JPG,AFNE01.JPG,,,,,,,,,,,,,,,,,,,,,1,5,15,2,,,AFNE08.jpg,AFNE09.jpg,AFSA08.jpg,AFSA14.jpg,AFSA14.jpg,FS,4,num_4,16,num_4,0.883472774876,,,2017_Nov_03_1650,59.9985567269,MAFE4ImagesEEG,001,102296,
AFNE01.JPG,AFNE01.JPG,AFNE01.JPG,AFNE01.JPG,AFNE01.JPG,AFNE01.JPG,,,,,,,,,,,,,,,,,,,,,1,6,16,5,,,AFNE15.jpg,AFSA19.jpg,AFNE11.jpg,AFSA01.jpg,AFSA19.jpg,FS,4,num_6,16,num_6,0.866302627372,,,2017_Nov_03_1650,59.9985567269,MAFE4ImagesEEG,001,102296,
AFNE01.JPG,AFNE01.JPG,AFNE01.JPG,AFNE01.JPG,AFNE01.JPG,AFNE01.JPG,,,,,,,,,,,,,,,,,,,,,1,7,17,7,,,AFNE12.jpg,AFSA11.jpg,AFNE08.jpg,AFSA06.jpg,AFNE12.jpg,FN,3,num_8,16,num_8,0.850116829388,,,2017_Nov_03_1650,59.9985567269,MAFE4ImagesEEG,001,102296,
AFNE01.JPG,AFNE01.JPG,AFNE01.JPG,AFNE01.JPG,AFNE01.JPG,AFNE01.JPG,,,,,,,,,,,,,,,,,,,,,1,8,18,0,,,AFNE15.jpg,AFSA04.jpg,AFNE19.jpg,AFSA18.jpg,AFNE15.jpg,FN,3,num_8,16,num_8,1.38339435402,,,2017_Nov_03_1650,59.9985567269,MAFE4ImagesEEG,001,102296,
AFNE01.JPG,AFNE01.JPG,AFNE01.JPG,AFNE01.JPG,AFNE01.JPG,AFNE01.JPG,,,,,,,,,,,,,,,,,,,,,1,9,19,6,,,AFNE02.jpg,AFSA07.jpg,AFNE13.jpg,AFSA14.jpg,AFNE02.jpg,FN,3,num_8,32,num_4,0.750133026624,,,2017_Nov_03_1650,59.9985567269,MAFE4ImagesEEG,001,102296,
AFNE01.JPG,AFNE01.JPG,AFNE01.JPG,AFNE01.JPG,AFNE01.JPG,AFNE01.JPG,,,,,,,,,,,,,,,,,,,,,2,0,20,1,,,AFSA14.jpg,AFNE17.jpg,AFSA16.jpg,AFNE12.jpg,AFSA16.jpg,FS,4,num_2,32,num_8,0.666797528276,,,2017_Nov_03_1650,59.9985567269,MAFE4ImagesEEG,001,102296,
AFNE01.JPG,AFNE01.JPG,AFNE01.JPG,AFNE01.JPG,AFNE01.JPG,AFNE01.JPG,,,,,,,,,,,,,,,,,,,,,2,1,21,9,,,AFSA09.jpg,AFNE18.jpg,AFSA01.jpg,AFNE16.jpg,AFSA09.jpg,FS,4,num_8,32,num_4,0.833500919864,,,2017_Nov_03_1650,59.9985567269,MAFE4ImagesEEG,001,102296,
AFNE01.JPG,AFNE01.JPG,AFNE01.JPG,AFNE01.JPG,AFNE01.JPG,AFNE01.JPG,,,,,,,,,,,,,,,,,,,,,2,2,22,7,,,AFNE10.jpg,AFNE19.jpg,AFSA02.jpg,AFSA06.jpg,AFSA02.jpg,FS,4,num_2,32,num_4,0.983469086234,,,2017_Nov_03_1650,59.9985567269,MAFE4ImagesEEG,001,102296,
AFNE01.JPG,AFNE01.JPG,AFNE01.JPG,AFNE01.JPG,AFNE01.JPG,AFNE01.JPG,,,,,,,,,,,,,,,,,,,,,2,3,23,2,,,AFSA10.jpg,AFNE18.jpg,AFSA19.jpg,AFNE09.jpg,AFNE18.jpg,FN,3,num_6,32,num_4,0.700277279364,,,2017_Nov_03_1650,59.9985567269,MAFE4ImagesEEG,001,102296,
AFNE01.JPG,AFNE01.JPG,AFNE01.JPG,AFNE01.JPG,AFNE01.JPG,AFNE01.JPG,,,,,,,,,,,,,,,,,,,,,2,4,24,5,,,AFSA09.jpg,AFNE03.jpg,AFNE18.jpg,AFSA06.jpg,AFNE03.jpg,FN,3,num_6,16,num_6,0.61679520295,,,2017_Nov_03_1650,59.9985567269,MAFE4ImagesEEG,001,102296,
AFNE01.JPG,AFNE01.JPG,AFNE01.JPG,AFNE01.JPG,AFNE01.JPG,AFNE01.JPG,,,,,,,,,,,,,,,,,,,,,2,5,25,6,,,AFSA02.jpg,AFNE17.jpg,AFSA17.jpg,AFNE06.jpg,AFNE17.jpg,FN,3,num_6,32,num_8,0.800142729189,,,2017_Nov_03_1650,59.9985567269,MAFE4ImagesEEG,001,102296,
AFNE01.JPG,AFNE01.JPG,AFNE01.JPG,AFNE01.JPG,AFNE01.JPG,AFNE01.JPG,,,,,,,,,,,,,,,,,,,,,2,6,26,4,,,AFSA01.jpg,AFNE03.jpg,AFSA14.jpg,AFNE19.jpg,AFSA14.jpg,FS,4,num_2,32,num_4,0.750165421516,,,2017_Nov_03_1650,59.9985567269,MAFE4ImagesEEG,001,102296,
AFNE01.JPG,AFNE01.JPG,AFNE01.JPG,AFNE01.JPG,AFNE01.JPG,AFNE01.JPG,,,,,,,,,,,,,,,,,,,,,2,7,27,3,,,AFSA06.jpg,AFSA03.jpg,AFNE15.jpg,AFNE01.jpg,AFSA06.jpg,FS,4,num_8,32,num_6,0.666777000995,,,2017_Nov_03_1650,59.9985567269,MAFE4ImagesEEG,001,102296,
AFNE01.JPG,AFNE01.JPG,AFNE01.JPG,AFNE01.JPG,AFNE01.JPG,AFNE01.JPG,,,,,,,,,,,,,,,,,,,,,2,8,28,8,,,AFSA01.jpg,AFNE03.jpg,AFSA11.jpg,AFNE10.jpg,AFSA11.jpg,FS,4,num_2,16,num_2,0.516858228249,,,2017_Nov_03_1650,59.9985567269,MAFE4ImagesEEG,001,102296,
AFNE01.JPG,AFNE01.JPG,AFNE01.JPG,AFNE01.JPG,AFNE01.JPG,AFNE01.JPG,,,,,,,,,,,,,,,,,,,,,2,9,29,0,,,AFNE20.jpg,AFSA12.jpg,AFNE07.jpg,AFSA19.jpg,AFNE07.jpg,FN,3,num_2,32,num_6,0.600132144755,,,2017_Nov_03_1650,59.9985567269,MAFE4ImagesEEG,001,102296,
AFNE01.JPG,AFNE01.JPG,AFNE01.JPG,AFNE01.JPG,AFNE01.JPG,AFNE01.JPG,,,,,,,,,,,,,,,,,,,,,3,0,30,1,,,AFSA18.jpg,AFNE14.jpg,AFNE20.jpg,AFSA04.jpg,AFSA18.jpg,FS,4,num_8,16,num_8,0.650139922509,,,2017_Nov_03_1650,59.9985567269,MAFE4ImagesEEG,001,102296,
AFNE01.JPG,AFNE01.JPG,AFNE01.JPG,AFNE01.JPG,AFNE01.JPG,AFNE01.JPG,,,,,,,,,,,,,,,,,,,,,3,1,31,8,,,AFSA03.jpg,AFNE15.jpg,AFSA19.jpg,AFNE04.jpg,AFSA19.jpg,FS,4,num_2,16,num_2,3.81679295772,,,2017_Nov_03_1650,59.9985567269,MAFE4ImagesEEG,001,102296,
AFNE01.JPG,AFNE01.JPG,AFNE01.JPG,AFNE01.JPG,AFNE01.JPG,AFNE01.JPG,,,,,,,,,,,,,,,,,,,,,3,2,32,4,,,AFSA20.jpg,AFSA15.jpg,AFNE13.jpg,AFNE02.jpg,AFSA20.jpg,FS,4,num_8,32,num_4,1.00013631419,,,2017_Nov_03_1650,59.9985567269,MAFE4ImagesEEG,001,102296,
AFNE01.JPG,AFNE01.JPG,AFNE01.JPG,AFNE01.JPG,AFNE01.JPG,AFNE01.JPG,,,,,,,,,,,,,,,,,,,,,3,3,33,9,,,AFSA04.jpg,AFNE06.jpg,AFNE20.jpg,AFSA16.jpg,AFNE06.jpg,FN,3,num_6,32,num_2,0.866736266995,,,2017_Nov_03_1650,59.9985567269,MAFE4ImagesEEG,001,102296,
AFNE01.JPG,AFNE01.JPG,AFNE01.JPG,AFNE01.JPG,AFNE01.JPG,AFNE01.JPG,,,,,,,,,,,,,,,,,,,,,3,4,34,3,,,AFSA19.jpg,AFNE17.jpg,AFSA11.jpg,AFNE07.jpg,AFNE17.jpg,FN,3,num_6,32,num_2,1.9500284656,,,2017_Nov_03_1650,59.9985567269,MAFE4ImagesEEG,001,102296,
AFNE01.JPG,AFNE01.JPG,AFNE01.JPG,AFNE01.JPG,AFNE01.JPG,AFNE01.JPG,,,,,,,,,,,,,,,,,,,,,3,5,35,2,,,AFSA05.jpg,AFSA12.jpg,AFNE17.jpg,AFNE12.jpg,AFNE17.jpg,FN,3,num_2,16,num_2,0.933451686287,,,2017_Nov_03_1650,59.9985567269,MAFE4ImagesEEG,001,102296,
AFNE01.JPG,AFNE01.JPG,AFNE01.JPG,AFNE01.JPG,AFNE01.JPG,AFNE01.JPG,,,,,,,,,,,,,,,,,,,,,3,6,36,6,,,AFSA20.jpg,AFNE03.jpg,AFNE12.jpg,AFSA19.jpg,AFNE03.jpg,FN,3,num_6,32,num_2,0.983458181145,,,2017_Nov_03_1650,59.9985567269,MAFE4ImagesEEG,001,102296,
AFNE01.JPG,AFNE01.JPG,AFNE01.JPG,AFNE01.JPG,AFNE01.JPG,AFNE01.JPG,,,,,,,,,,,,,,,,,,,,,3,7,37,0,,,AFNE19.jpg,AFSA11.jpg,AFNE07.jpg,AFSA20.jpg,AFSA20.jpg,FS,4,num_4,32,num_8,1.33343853592,,,2017_Nov_03_1650,59.9985567269,MAFE4ImagesEEG,001,102296,
AFNE01.JPG,AFNE01.JPG,AFNE01.JPG,AFNE01.JPG,AFNE01.JPG,AFNE01.JPG,,,,,,,,,,,,,,,,,,,,,3,8,38,7,,,AFNE17.jpg,AFSA17.jpg,AFNE03.jpg,AFSA09.jpg,AFNE03.jpg,FN,3,num_2,16,num_2,1.53310175939,,,2017_Nov_03_1650,59.9985567269,MAFE4ImagesEEG,001,102296,
