IPosition2,IPosition3,IPosition1,IPosition6,IPosition4,IPosition5,TrialsF1.thisRepN,TrialsF1.thisTrialN,TrialsF1.thisN,TrialsF1.thisIndex,TrialsM1.thisRepN,TrialsM1.thisTrialN,TrialsM1.thisN,TrialsM1.thisIndex,TrialsF2.thisRepN,TrialsF2.thisTrialN,TrialsF2.thisN,TrialsF2.thisIndex,TrialsM2.thisRepN,TrialsM2.thisTrialN,TrialsM2.thisN,TrialsM2.thisIndex,TrialsF3.thisRepN,TrialsF3.thisTrialN,TrialsF3.thisN,TrialsF3.thisIndex,TrialsM3.thisRepN,TrialsM3.thisTrialN,TrialsM3.thisN,TrialsM3.thisIndex,InstrKey_resp.keys,InstrKey_resp.rt,Image0 _Position,Image1 _Position,Image2 _Position,Image3 _Position,Center_image,condition,code,correct_answer,accuracy,Key_Resp.keys,Key_Resp.rt,BreakKey_resp.keys,BreakKey_resp.rt,date,frameRate,expName,session,participant,
,,,,,,,,,,,,,,,,,,,,,,,,,,,,,,space,12.7493215558,,,,,,,,,,,,,,2017_Oct_19_1453,60.0029445325,FEMA4ImagesEEG,001,102220,
AMNE23.JPG,AMNE24.JPG,AMNE22.JPG,AMSA24.JPG,AMSA22.JPG,AMSA23.JPG,0,0,0,9,,,,,,,,,,,,,,,,,,,,,,,AFNE20.jpg,AFSA10.jpg,AFSA20.jpg,AFNE13.jpg,AFNE20.jpg,FN,3,num_8,48,None,,,,2017_Oct_19_1453,60.0029445325,FEMA4ImagesEEG,001,102220,
AFSA25.JPG,AFNE24.JPG,AFSA24.JPG,AFNE21.JPG,AFSA21.JPG,AFNE25.JPG,0,1,1,2,,,,,,,,,,,,,,,,,,,,,,,AFNE03.jpg,AFSA11.jpg,AFSA10.jpg,AFNE14.jpg,AFNE03.jpg,FN,3,num_8,48,None,,,,2017_Oct_19_1453,60.0029445325,FEMA4ImagesEEG,001,102220,
AMSA21.JPG,AMNE23.JPG,AMNE21.JPG,AMSA25.JPG,AMNE25.JPG,AMSA23.JPG,0,2,2,5,,,,,,,,,,,,,,,,,,,,,,,AFNE04.jpg,AFNE19.jpg,AFSA15.jpg,AFSA08.jpg,AFSA15.jpg,FS,4,num_2,32,num_4,1.61668903823,,,2017_Oct_19_1453,60.0029445325,FEMA4ImagesEEG,001,102220,
AFSA21.JPG,AFNE22.JPG,AFNE21.JPG,AFSA23.JPG,AFSA22.JPG,AFNE23.JPG,0,3,3,0,,,,,,,,,,,,,,,,,,,,,,,AFNE20.jpg,AFSA10.jpg,AFNE19.jpg,AFSA03.jpg,AFNE19.jpg,FN,3,num_2,16,num_2,2.10001138627,,,2017_Oct_19_1453,60.0029445325,FEMA4ImagesEEG,001,102220,
AFNE23.JPG,AFNE24.JPG,AFNE22.JPG,AFSA24.JPG,AFSA22.JPG,AFSA23.JPG,0,4,4,8,,,,,,,,,,,,,,,,,,,,,,,AFSA15.jpg,AFSA03.jpg,AFNE09.jpg,AFNE14.jpg,AFSA03.jpg,FS,4,num_6,32,num_4,1.65006005848,,,2017_Oct_19_1453,60.0029445325,FEMA4ImagesEEG,001,102220,
AMSA21.JPG,AMNE22.JPG,AMNE21.JPG,AMSA23.JPG,AMSA22.JPG,AMNE23.JPG,0,5,5,1,,,,,,,,,,,,,,,,,,,,,,,AFSA02.jpg,AFSA03.jpg,AFNE06.jpg,AFNE09.jpg,AFNE06.jpg,FN,3,num_2,48,None,,,,2017_Oct_19_1453,60.0029445325,FEMA4ImagesEEG,001,102220,
AFSA21.JPG,AFNE23.JPG,AFNE21.JPG,AFSA25.JPG,AFNE25.JPG,AFSA23.JPG,0,6,6,4,,,,,,,,,,,,,,,,,,,,,,,AFNE15.jpg,AFSA13.jpg,AFSA09.jpg,AFNE16.jpg,AFSA09.jpg,FS,4,num_2,16,num_2,1.41671918778,,,2017_Oct_19_1453,60.0029445325,FEMA4ImagesEEG,001,102220,
AMSA25.JPG,AMNE24.JPG,AMSA24.JPG,AMNE26.JPG,AMSA21.JPG,AMNE25.JPG,0,7,7,3,,,,,,,,,,,,,,,,,,,,,,,AFSA12.jpg,AFNE03.jpg,AFSA19.jpg,AFNE07.jpg,AFSA12.jpg,FS,4,num_8,16,num_8,2.56659883025,,,2017_Oct_19_1453,60.0029445325,FEMA4ImagesEEG,001,102220,
AMNE22.JPG,AMSA24.JPG,AMSA22.JPG,AMNE25.JPG,AMNE24.JPG,AMSA25.JPG,0,8,8,7,,,,,,,,,,,,,,,,,,,,,,,AFSA01.jpg,AFSA11.jpg,AFNE08.jpg,AFNE16.jpg,AFNE08.jpg,FN,3,num_2,32,num_4,1.1167889486,,,2017_Oct_19_1453,60.0029445325,FEMA4ImagesEEG,001,102220,
AFNE22.JPG,AFSA24.JPG,AFSA22.JPG,AFNE25.JPG,AFNE24.JPG,AFSA25.JPG,0,9,9,6,,,,,,,,,,,,,,,,,,,,,,,AFSA10.jpg,AFSA03.jpg,AFNE12.jpg,AFNE13.jpg,AFSA10.jpg,FS,4,num_8,32,num_2,2.15003937075,,,2017_Oct_19_1453,60.0029445325,FEMA4ImagesEEG,001,102220,
AMNE23.JPG,AMNE24.JPG,AMNE22.JPG,AMSA24.JPG,AMSA22.JPG,AMSA23.JPG,,,,,0,0,0,9,,,,,,,,,,,,,,,,,,,AMSA10.jpg,AMSA02.jpg,AMNE18.jpg,AMNE07.jpg,AMSA10.jpg,MS,2,num_8,32,num_4,1.450066794,,,2017_Oct_19_1453,60.0029445325,FEMA4ImagesEEG,001,102220,
AMSA25.JPG,AMNE24.JPG,AMSA24.JPG,AMNE26.JPG,AMSA21.JPG,AMNE25.JPG,,,,,0,1,1,3,,,,,,,,,,,,,,,,,,,AMSA19.jpg,AMNE13.jpg,AMSA11.jpg,AMNE01.jpg,AMNE13.jpg,MN,1,num_6,16,num_6,2.01671052779,,,2017_Oct_19_1453,60.0029445325,FEMA4ImagesEEG,001,102220,
AFSA21.JPG,AFNE22.JPG,AFNE21.JPG,AFSA23.JPG,AFSA22.JPG,AFNE23.JPG,,,,,0,2,2,0,,,,,,,,,,,,,,,,,,,AMSA20.jpg,AMSA07.jpg,AMNE07.jpg,AMNE09.jpg,AMNE07.jpg,MN,1,num_2,32,num_4,1.85005011555,,,2017_Oct_19_1453,60.0029445325,FEMA4ImagesEEG,001,102220,
AMSA21.JPG,AMNE22.JPG,AMNE21.JPG,AMSA23.JPG,AMSA22.JPG,AMNE23.JPG,,,,,0,3,3,1,,,,,,,,,,,,,,,,,,,AMNE20.jpg,AMSA04.jpg,AMNE08.jpg,AMSA19.jpg,AMSA19.jpg,MS,2,num_4,32,num_6,4.43282383864,,,2017_Oct_19_1453,60.0029445325,FEMA4ImagesEEG,001,102220,
AFSA25.JPG,AFNE24.JPG,AFSA24.JPG,AFNE21.JPG,AFSA21.JPG,AFNE25.JPG,,,,,0,4,4,2,,,,,,,,,,,,,,,,,,,AMNE14.jpg,AMNE05.jpg,AMSA10.jpg,AMSA13.jpg,AMSA10.jpg,MS,2,num_2,16,num_2,2.50000529218,,,2017_Oct_19_1453,60.0029445325,FEMA4ImagesEEG,001,102220,
AMSA21.JPG,AMNE23.JPG,AMNE21.JPG,AMSA25.JPG,AMNE25.JPG,AMSA23.JPG,,,,,0,5,5,5,,,,,,,,,,,,,,,,,,,AMSA03.jpg,AMSA14.jpg,AMNE02.jpg,AMNE14.jpg,AMNE02.jpg,MN,1,num_2,32,num_4,1.00014465352,,,2017_Oct_19_1453,60.0029445325,FEMA4ImagesEEG,001,102220,
AMNE22.JPG,AMSA24.JPG,AMSA22.JPG,AMNE25.JPG,AMNE24.JPG,AMSA25.JPG,,,,,0,6,6,7,,,,,,,,,,,,,,,,,,,AMNE06.jpg,AMSA10.jpg,AMNE18.jpg,AMSA16.jpg,AMNE06.jpg,MN,1,num_8,32,num_4,1.13345168621,,,2017_Oct_19_1453,60.0029445325,FEMA4ImagesEEG,001,102220,
AFNE22.JPG,AFSA24.JPG,AFSA22.JPG,AFNE25.JPG,AFNE24.JPG,AFSA25.JPG,,,,,0,7,7,6,,,,,,,,,,,,,,,,,,,AMNE16.jpg,AMSA09.jpg,AMSA12.jpg,AMNE02.jpg,AMNE02.jpg,MN,1,num_4,32,num_6,0.683511263545,,,2017_Oct_19_1453,60.0029445325,FEMA4ImagesEEG,001,102220,
AFSA21.JPG,AFNE23.JPG,AFNE21.JPG,AFSA25.JPG,AFNE25.JPG,AFSA23.JPG,,,,,0,8,8,4,,,,,,,,,,,,,,,,,,,AMSA07.jpg,AMNE14.jpg,AMSA11.jpg,AMNE07.jpg,AMNE07.jpg,MN,1,num_4,16,num_4,1.03345152584,,,2017_Oct_19_1453,60.0029445325,FEMA4ImagesEEG,001,102220,
AFNE23.JPG,AFNE24.JPG,AFNE22.JPG,AFSA24.JPG,AFSA22.JPG,AFSA23.JPG,,,,,0,9,9,8,,,,,,,,,,,,,,,,,,,AMSA02.jpg,AMNE17.jpg,AMNE10.jpg,AMSA06.jpg,AMSA02.jpg,MS,2,num_8,32,num_4,0.500174963381,,,2017_Oct_19_1453,60.0029445325,FEMA4ImagesEEG,001,102220,
AMNE22.JPG,AMSA24.JPG,AMSA22.JPG,AMNE25.JPG,AMNE24.JPG,AMSA25.JPG,,,,,,,,,0,0,0,7,,,,,,,,,,,,,,,AFSA19.jpg,AFNE08.jpg,AFSA15.jpg,AFNE01.jpg,AFSA15.jpg,FS,4,num_2,16,num_2,1.11681556996,,,2017_Oct_19_1453,60.0029445325,FEMA4ImagesEEG,001,102220,
AFSA21.JPG,AFNE22.JPG,AFNE21.JPG,AFSA23.JPG,AFSA22.JPG,AFNE23.JPG,,,,,,,,,0,1,1,0,,,,,,,,,,,,,,,AFSA05.jpg,AFNE06.jpg,AFSA01.jpg,AFNE05.jpg,AFNE05.jpg,FN,3,num_4,32,num_6,1.31678060937,,,2017_Oct_19_1453,60.0029445325,FEMA4ImagesEEG,001,102220,
AMSA21.JPG,AMNE23.JPG,AMNE21.JPG,AMSA25.JPG,AMNE25.JPG,AMSA23.JPG,,,,,,,,,0,2,2,5,,,,,,,,,,,,,,,AFSA03.jpg,AFNE19.jpg,AFSA01.jpg,AFNE11.jpg,AFSA01.jpg,FS,4,num_2,32,num_4,2.13339812271,,,2017_Oct_19_1453,60.0029445325,FEMA4ImagesEEG,001,102220,
AMSA21.JPG,AMNE22.JPG,AMNE21.JPG,AMSA23.JPG,AMSA22.JPG,AMNE23.JPG,,,,,,,,,0,3,3,1,,,,,,,,,,,,,,,AFNE15.jpg,AFSA16.jpg,AFSA12.jpg,AFNE05.jpg,AFNE05.jpg,FN,3,num_4,32,num_8,1.06674396488,,,2017_Oct_19_1453,60.0029445325,FEMA4ImagesEEG,001,102220,
AFNE22.JPG,AFSA24.JPG,AFSA22.JPG,AFNE25.JPG,AFNE24.JPG,AFSA25.JPG,,,,,,,,,0,4,4,6,,,,,,,,,,,,,,,AFNE20.jpg,AFSA17.jpg,AFSA08.jpg,AFNE05.jpg,AFNE05.jpg,FN,3,num_4,16,num_4,2.93331729635,,,2017_Oct_19_1453,60.0029445325,FEMA4ImagesEEG,001,102220,
AMNE23.JPG,AMNE24.JPG,AMNE22.JPG,AMSA24.JPG,AMSA22.JPG,AMSA23.JPG,,,,,,,,,0,5,5,9,,,,,,,,,,,,,,,AFSA12.jpg,AFSA02.jpg,AFNE04.jpg,AFNE16.jpg,AFSA12.jpg,FS,4,num_8,32,num_6,1.28342658834,,,2017_Oct_19_1453,60.0029445325,FEMA4ImagesEEG,001,102220,
AFSA25.JPG,AFNE24.JPG,AFSA24.JPG,AFNE21.JPG,AFSA21.JPG,AFNE25.JPG,,,,,,,,,0,6,6,2,,,,,,,,,,,,,,,AFSA11.jpg,AFNE08.jpg,AFNE14.jpg,AFSA16.jpg,AFNE14.jpg,FN,3,num_2,16,num_2,1.76692694676,,,2017_Oct_19_1453,60.0029445325,FEMA4ImagesEEG,001,102220,
AFNE23.JPG,AFNE24.JPG,AFNE22.JPG,AFSA24.JPG,AFSA22.JPG,AFSA23.JPG,,,,,,,,,0,7,7,8,,,,,,,,,,,,,,,AFSA03.jpg,AFNE18.jpg,AFSA02.jpg,AFNE09.jpg,AFNE09.jpg,FN,3,num_4,16,num_4,1.73341961225,,,2017_Oct_19_1453,60.0029445325,FEMA4ImagesEEG,001,102220,
AMSA25.JPG,AMNE24.JPG,AMSA24.JPG,AMNE26.JPG,AMSA21.JPG,AMNE25.JPG,,,,,,,,,0,8,8,3,,,,,,,,,,,,,,,AFSA06.jpg,AFNE09.jpg,AFNE20.jpg,AFSA19.jpg,AFSA06.jpg,FS,4,num_8,32,num_4,2.54996463846,,,2017_Oct_19_1453,60.0029445325,FEMA4ImagesEEG,001,102220,
AFSA21.JPG,AFNE23.JPG,AFNE21.JPG,AFSA25.JPG,AFNE25.JPG,AFSA23.JPG,,,,,,,,,0,9,9,4,,,,,,,,,,,,,,,AFNE07.jpg,AFSA11.jpg,AFSA17.jpg,AFNE16.jpg,AFSA11.jpg,FS,4,num_6,16,num_6,1.36560710374,,,2017_Oct_19_1453,60.0029445325,FEMA4ImagesEEG,001,102220,
AMNE23.JPG,AMNE24.JPG,AMNE22.JPG,AMSA24.JPG,AMSA22.JPG,AMSA23.JPG,,,,,,,,,,,,,0,0,0,9,,,,,,,,,,,AMSA02.jpg,AMNE14.jpg,AMNE04.jpg,AMSA01.jpg,AMSA02.jpg,MS,2,num_8,16,num_8,1.36670691948,,,2017_Oct_19_1453,60.0029445325,FEMA4ImagesEEG,001,102220,
AFNE22.JPG,AFSA24.JPG,AFSA22.JPG,AFNE25.JPG,AFNE24.JPG,AFSA25.JPG,,,,,,,,,,,,,0,1,1,6,,,,,,,,,,,AMNE12.jpg,AMNE07.jpg,AMSA04.jpg,AMSA13.jpg,AMSA04.jpg,MS,2,num_2,16,num_2,1.05018867503,,,2017_Oct_19_1453,60.0029445325,FEMA4ImagesEEG,001,102220,
AMNE22.JPG,AMSA24.JPG,AMSA22.JPG,AMNE25.JPG,AMNE24.JPG,AMSA25.JPG,,,,,,,,,,,,,0,2,2,7,,,,,,,,,,,AMSA09.jpg,AMSA02.jpg,AMNE20.jpg,AMNE13.jpg,AMSA02.jpg,MS,2,num_6,32,num_8,1.41671052779,,,2017_Oct_19_1453,60.0029445325,FEMA4ImagesEEG,001,102220,
AMSA21.JPG,AMNE23.JPG,AMNE21.JPG,AMSA25.JPG,AMNE25.JPG,AMSA23.JPG,,,,,,,,,,,,,0,3,3,5,,,,,,,,,,,AMSA12.jpg,AMNE13.jpg,AMSA18.jpg,AMNE11.jpg,AMNE13.jpg,MN,1,num_6,16,num_6,1.54974236598,,,2017_Oct_19_1453,60.0029445325,FEMA4ImagesEEG,001,102220,
AFSA21.JPG,AFNE23.JPG,AFNE21.JPG,AFSA25.JPG,AFNE25.JPG,AFSA23.JPG,,,,,,,,,,,,,0,4,4,4,,,,,,,,,,,AMSA17.jpg,AMNE19.jpg,AMSA08.jpg,AMNE15.jpg,AMNE19.jpg,MN,1,num_6,16,num_6,1.4334261874,,,2017_Oct_19_1453,60.0029445325,FEMA4ImagesEEG,001,102220,
AFSA25.JPG,AFNE24.JPG,AFSA24.JPG,AFNE21.JPG,AFSA21.JPG,AFNE25.JPG,,,,,,,,,,,,,0,5,5,2,,,,,,,,,,,AMSA10.jpg,AMNE18.jpg,AMNE19.jpg,AMSA20.jpg,AMNE18.jpg,MN,1,num_6,16,num_6,1.05011907453,,,2017_Oct_19_1453,60.0029445325,FEMA4ImagesEEG,001,102220,
AMSA21.JPG,AMNE22.JPG,AMNE21.JPG,AMSA23.JPG,AMSA22.JPG,AMNE23.JPG,,,,,,,,,,,,,0,6,6,1,,,,,,,,,,,AMNE14.jpg,AMSA08.jpg,AMSA13.jpg,AMNE18.jpg,AMNE18.jpg,MN,1,num_4,16,num_4,1.35009742461,,,2017_Oct_19_1453,60.0029445325,FEMA4ImagesEEG,001,102220,
AMSA25.JPG,AMNE24.JPG,AMSA24.JPG,AMNE26.JPG,AMSA21.JPG,AMNE25.JPG,,,,,,,,,,,,,0,7,7,3,,,,,,,,,,,AMNE18.jpg,AMSA20.jpg,AMNE01.jpg,AMSA08.jpg,AMNE01.jpg,MN,1,num_2,32,num_8,1.41672752699,,,2017_Oct_19_1453,60.0029445325,FEMA4ImagesEEG,001,102220,
AFNE23.JPG,AFNE24.JPG,AFNE22.JPG,AFSA24.JPG,AFSA22.JPG,AFSA23.JPG,,,,,,,,,,,,,0,8,8,8,,,,,,,,,,,AMSA12.jpg,AMSA18.jpg,AMNE11.jpg,AMNE03.jpg,AMSA18.jpg,MS,2,num_6,16,num_6,0.66661983871,,,2017_Oct_19_1453,60.0029445325,FEMA4ImagesEEG,001,102220,
AFSA21.JPG,AFNE22.JPG,AFNE21.JPG,AFSA23.JPG,AFSA22.JPG,AFNE23.JPG,,,,,,,,,,,,,0,9,9,0,,,,,,,,,,,AMNE08.jpg,AMNE15.jpg,AMSA01.jpg,AMSA05.jpg,AMNE15.jpg,MN,1,num_6,32,num_8,1.08343588977,,,2017_Oct_19_1453,60.0029445325,FEMA4ImagesEEG,001,102220,
AFNE23.JPG,AFNE24.JPG,AFNE22.JPG,AFSA24.JPG,AFSA22.JPG,AFSA23.JPG,,,,,,,,,,,,,,,,,0,0,0,8,,,,,,,AFSA06.jpg,AFNE13.jpg,AFNE02.jpg,AFSA02.jpg,AFSA02.jpg,FS,4,num_4,32,num_8,1.11671710294,,,2017_Oct_19_1453,60.0029445325,FEMA4ImagesEEG,001,102220,
AMNE23.JPG,AMNE24.JPG,AMNE22.JPG,AMSA24.JPG,AMSA22.JPG,AMSA23.JPG,,,,,,,,,,,,,,,,,0,1,1,9,,,,,,,AFNE03.jpg,AFSA15.jpg,AFNE06.jpg,AFSA19.jpg,AFSA19.jpg,FS,4,num_4,16,num_4,1.11673057399,,,2017_Oct_19_1453,60.0029445325,FEMA4ImagesEEG,001,102220,
AFSA21.JPG,AFNE22.JPG,AFNE21.JPG,AFSA23.JPG,AFSA22.JPG,AFNE23.JPG,,,,,,,,,,,,,,,,,0,2,2,0,,,,,,,AFNE13.jpg,AFNE19.jpg,AFSA10.jpg,AFSA04.jpg,AFNE19.jpg,FN,3,num_6,16,num_6,1.23342233856,,,2017_Oct_19_1453,60.0029445325,FEMA4ImagesEEG,001,102220,
AFSA21.JPG,AFNE23.JPG,AFNE21.JPG,AFSA25.JPG,AFNE25.JPG,AFSA23.JPG,,,,,,,,,,,,,,,,,0,3,3,4,,,,,,,AFSA01.jpg,AFSA07.jpg,AFNE03.jpg,AFNE20.jpg,AFNE20.jpg,FN,3,num_4,16,num_4,1.28346186969,,,2017_Oct_19_1453,60.0029445325,FEMA4ImagesEEG,001,102220,
AMSA21.JPG,AMNE22.JPG,AMNE21.JPG,AMSA23.JPG,AMSA22.JPG,AMNE23.JPG,,,,,,,,,,,,,,,,,0,4,4,1,,,,,,,AFNE20.jpg,AFNE14.jpg,AFSA18.jpg,AFSA15.jpg,AFSA15.jpg,FS,4,num_4,32,num_2,2.71670170745,,,2017_Oct_19_1453,60.0029445325,FEMA4ImagesEEG,001,102220,
AFNE22.JPG,AFSA24.JPG,AFSA22.JPG,AFNE25.JPG,AFNE24.JPG,AFSA25.JPG,,,,,,,,,,,,,,,,,0,5,5,6,,,,,,,AFSA06.jpg,AFNE12.jpg,AFSA16.jpg,AFNE05.jpg,AFSA06.jpg,FS,4,num_8,16,num_8,2.23332900336,,,2017_Oct_19_1453,60.0029445325,FEMA4ImagesEEG,001,102220,
AMSA25.JPG,AMNE24.JPG,AMSA24.JPG,AMNE26.JPG,AMSA21.JPG,AMNE25.JPG,,,,,,,,,,,,,,,,,0,6,6,3,,,,,,,AFNE01.jpg,AFNE07.jpg,AFSA10.jpg,AFSA17.jpg,AFNE07.jpg,FN,3,num_6,16,num_6,1.23368662788,,,2017_Oct_19_1453,60.0029445325,FEMA4ImagesEEG,001,102220,
AMSA21.JPG,AMNE23.JPG,AMNE21.JPG,AMSA25.JPG,AMNE25.JPG,AMSA23.JPG,,,,,,,,,,,,,,,,,0,7,7,5,,,,,,,AFSA16.jpg,AFNE12.jpg,AFSA11.jpg,AFNE11.jpg,AFNE12.jpg,FN,3,num_6,16,num_6,0.866816772759,,,2017_Oct_19_1453,60.0029445325,FEMA4ImagesEEG,001,102220,
AFSA25.JPG,AFNE24.JPG,AFSA24.JPG,AFNE21.JPG,AFSA21.JPG,AFNE25.JPG,,,,,,,,,,,,,,,,,0,8,8,2,,,,,,,AFSA11.jpg,AFNE12.jpg,AFSA14.jpg,AFNE05.jpg,AFNE12.jpg,FN,3,num_6,16,num_6,1.36673931417,,,2017_Oct_19_1453,60.0029445325,FEMA4ImagesEEG,001,102220,
AMNE22.JPG,AMSA24.JPG,AMSA22.JPG,AMNE25.JPG,AMNE24.JPG,AMSA25.JPG,,,,,,,,,,,,,,,,,0,9,9,7,,,,,,,AFSA01.jpg,AFNE14.jpg,AFSA17.jpg,AFNE13.jpg,AFSA01.jpg,FS,4,num_8,32,num_2,1.26670900427,,,2017_Oct_19_1453,60.0029445325,FEMA4ImagesEEG,001,102220,
AMNE22.JPG,AMSA24.JPG,AMSA22.JPG,AMNE25.JPG,AMNE24.JPG,AMSA25.JPG,,,,,,,,,,,,,,,,,,,,,0,0,0,7,,,AMSA12.jpg,AMNE01.jpg,AMSA13.jpg,AMNE19.jpg,AMNE01.jpg,MN,1,num_6,32,num_8,2.35002173009,,,2017_Oct_19_1453,60.0029445325,FEMA4ImagesEEG,001,102220,
AMNE23.JPG,AMNE24.JPG,AMNE22.JPG,AMSA24.JPG,AMSA22.JPG,AMSA23.JPG,,,,,,,,,,,,,,,,,,,,,0,1,1,9,,,AMSA01.jpg,AMNE02.jpg,AMSA03.jpg,AMNE19.jpg,AMSA03.jpg,MS,2,num_2,16,num_2,2.60000128293,,,2017_Oct_19_1453,60.0029445325,FEMA4ImagesEEG,001,102220,
AMSA21.JPG,AMNE23.JPG,AMNE21.JPG,AMSA25.JPG,AMNE25.JPG,AMSA23.JPG,,,,,,,,,,,,,,,,,,,,,0,2,2,5,,,AMNE09.jpg,AMSA09.jpg,AMSA13.jpg,AMNE18.jpg,AMNE09.jpg,MN,1,num_8,16,num_8,1.08343075795,,,2017_Oct_19_1453,60.0029445325,FEMA4ImagesEEG,001,102220,
AMSA21.JPG,AMNE22.JPG,AMNE21.JPG,AMSA23.JPG,AMSA22.JPG,AMNE23.JPG,,,,,,,,,,,,,,,,,,,,,0,3,3,1,,,AMSA05.jpg,AMNE03.jpg,AMSA12.jpg,AMNE01.jpg,AMNE03.jpg,MN,1,num_6,32,num_4,1.61644206883,,,2017_Oct_19_1453,60.0029445325,FEMA4ImagesEEG,001,102220,
AFSA25.JPG,AFNE24.JPG,AFSA24.JPG,AFNE21.JPG,AFSA21.JPG,AFNE25.JPG,,,,,,,,,,,,,,,,,,,,,0,4,4,2,,,AMNE20.jpg,AMSA01.jpg,AMNE03.jpg,AMSA10.jpg,AMNE20.jpg,MN,1,num_8,32,num_2,1.10010151405,,,2017_Oct_19_1453,60.0029445325,FEMA4ImagesEEG,001,102220,
AFSA21.JPG,AFNE23.JPG,AFNE21.JPG,AFSA25.JPG,AFNE25.JPG,AFSA23.JPG,,,,,,,,,,,,,,,,,,,,,0,5,5,4,,,AMSA01.jpg,AMNE02.jpg,AMSA14.jpg,AMNE06.jpg,AMNE02.jpg,MN,1,num_6,32,num_4,1.56670884389,,,2017_Oct_19_1453,60.0029445325,FEMA4ImagesEEG,001,102220,
AFNE22.JPG,AFSA24.JPG,AFSA22.JPG,AFNE25.JPG,AFNE24.JPG,AFSA25.JPG,,,,,,,,,,,,,,,,,,,,,0,6,6,6,,,AMNE19.jpg,AMSA16.jpg,AMSA17.jpg,AMNE02.jpg,AMSA17.jpg,MS,2,num_2,16,num_2,1.11662857886,,,2017_Oct_19_1453,60.0029445325,FEMA4ImagesEEG,001,102220,
AMSA25.JPG,AMNE24.JPG,AMSA24.JPG,AMNE26.JPG,AMSA21.JPG,AMNE25.JPG,,,,,,,,,,,,,,,,,,,,,0,7,7,3,,,AMNE12.jpg,AMNE01.jpg,AMSA20.jpg,AMSA11.jpg,AMNE12.jpg,MN,1,num_8,16,num_8,1.18345657748,,,2017_Oct_19_1453,60.0029445325,FEMA4ImagesEEG,001,102220,
AFSA21.JPG,AFNE22.JPG,AFNE21.JPG,AFSA23.JPG,AFSA22.JPG,AFNE23.JPG,,,,,,,,,,,,,,,,,,,,,0,8,8,0,,,AMNE07.jpg,AMNE15.jpg,AMSA16.jpg,AMSA04.jpg,AMSA04.jpg,MS,2,num_4,32,num_2,1.45012645153,,,2017_Oct_19_1453,60.0029445325,FEMA4ImagesEEG,001,102220,
AFNE23.JPG,AFNE24.JPG,AFNE22.JPG,AFSA24.JPG,AFSA22.JPG,AFSA23.JPG,,,,,,,,,,,,,,,,,,,,,0,9,9,8,,,AMNE05.jpg,AMSA14.jpg,AMNE18.jpg,AMSA10.jpg,AMNE05.jpg,MN,1,num_8,16,num_8,1.2501107353,,,2017_Oct_19_1453,60.0029445325,FEMA4ImagesEEG,001,102220,
,,,,,,,,,,,,,,,,,,,,,,,,,,,,,,,,,,,,,,,,,,,space,4.21648472719,2017_Oct_19_1453,60.0029445325,FEMA4ImagesEEG,001,102220,
AFNE01.JPG,AFNE01.JPG,AFNE01.JPG,AFNE01.JPG,AFNE01.JPG,AFNE01.JPG,0,0,0,9,,,,,,,,,,,,,,,,,,,,,,,AFNE10.jpg,AFSA20.jpg,AFSA19.jpg,AFNE02.jpg,AFSA19.jpg,FS,4,num_2,32,num_6,1.58338409037,,,2017_Oct_19_1453,60.0029445325,FEMA4ImagesEEG,001,102220,
AFNE01.JPG,AFNE01.JPG,AFNE01.JPG,AFNE01.JPG,AFNE01.JPG,AFNE01.JPG,0,1,1,4,,,,,,,,,,,,,,,,,,,,,,,AFNE17.jpg,AFSA20.jpg,AFNE03.jpg,AFSA16.jpg,AFNE17.jpg,FN,3,num_8,16,num_8,1.00009141074,,,2017_Oct_19_1453,60.0029445325,FEMA4ImagesEEG,001,102220,
AFNE01.JPG,AFNE01.JPG,AFNE01.JPG,AFNE01.JPG,AFNE01.JPG,AFNE01.JPG,0,2,2,0,,,,,,,,,,,,,,,,,,,,,,,AFSA05.jpg,AFNE06.jpg,AFNE08.jpg,AFSA17.jpg,AFNE08.jpg,FN,3,num_2,16,num_2,2.03339796234,,,2017_Oct_19_1453,60.0029445325,FEMA4ImagesEEG,001,102220,
AFNE01.JPG,AFNE01.JPG,AFNE01.JPG,AFNE01.JPG,AFNE01.JPG,AFNE01.JPG,0,3,3,3,,,,,,,,,,,,,,,,,,,,,,,AFSA20.jpg,AFSA18.jpg,AFNE16.jpg,AFNE19.jpg,AFSA20.jpg,FS,4,num_8,16,num_8,0.933711805963,,,2017_Oct_19_1453,60.0029445325,FEMA4ImagesEEG,001,102220,
AFNE01.JPG,AFNE01.JPG,AFNE01.JPG,AFNE01.JPG,AFNE01.JPG,AFNE01.JPG,0,4,4,2,,,,,,,,,,,,,,,,,,,,,,,AFSA18.jpg,AFSA15.jpg,AFNE12.jpg,AFNE18.jpg,AFNE18.jpg,FN,3,num_4,16,num_4,1.11681941885,,,2017_Oct_19_1453,60.0029445325,FEMA4ImagesEEG,001,102220,
AFNE01.JPG,AFNE01.JPG,AFNE01.JPG,AFNE01.JPG,AFNE01.JPG,AFNE01.JPG,0,5,5,8,,,,,,,,,,,,,,,,,,,,,,,AFNE04.jpg,AFSA02.jpg,AFSA06.jpg,AFNE09.jpg,AFNE09.jpg,FN,3,num_4,16,num_4,0.86682799866,,,2017_Oct_19_1453,60.0029445325,FEMA4ImagesEEG,001,102220,
AFNE01.JPG,AFNE01.JPG,AFNE01.JPG,AFNE01.JPG,AFNE01.JPG,AFNE01.JPG,0,6,6,1,,,,,,,,,,,,,,,,,,,,,,,AFSA13.jpg,AFNE04.jpg,AFSA17.jpg,AFNE01.jpg,AFNE01.jpg,FN,3,num_4,32,num_6,1.3667110891,,,2017_Oct_19_1453,60.0029445325,FEMA4ImagesEEG,001,102220,
AFNE01.JPG,AFNE01.JPG,AFNE01.JPG,AFNE01.JPG,AFNE01.JPG,AFNE01.JPG,0,7,7,5,,,,,,,,,,,,,,,,,,,,,,,AFSA19.jpg,AFSA02.jpg,AFNE20.jpg,AFNE12.jpg,AFSA19.jpg,FS,4,num_8,32,num_6,1.73340646192,,,2017_Oct_19_1453,60.0029445325,FEMA4ImagesEEG,001,102220,
AFNE01.JPG,AFNE01.JPG,AFNE01.JPG,AFNE01.JPG,AFNE01.JPG,AFNE01.JPG,0,8,8,7,,,,,,,,,,,,,,,,,,,,,,,AFNE03.jpg,AFNE18.jpg,AFSA17.jpg,AFSA12.jpg,AFSA17.jpg,FS,4,num_2,16,num_2,1.05010977309,,,2017_Oct_19_1453,60.0029445325,FEMA4ImagesEEG,001,102220,
AFNE01.JPG,AFNE01.JPG,AFNE01.JPG,AFNE01.JPG,AFNE01.JPG,AFNE01.JPG,0,9,9,6,,,,,,,,,,,,,,,,,,,,,,,AFSA18.jpg,AFNE01.jpg,AFSA07.jpg,AFNE20.jpg,AFNE20.jpg,FN,3,num_4,16,num_4,1.4166367577,,,2017_Oct_19_1453,60.0029445325,FEMA4ImagesEEG,001,102220,
AFNE01.JPG,AFNE01.JPG,AFNE01.JPG,AFNE01.JPG,AFNE01.JPG,AFNE01.JPG,1,0,10,1,,,,,,,,,,,,,,,,,,,,,,,AFNE02.jpg,AFSA18.jpg,AFNE12.jpg,AFSA16.jpg,AFSA16.jpg,FS,4,num_4,16,num_4,0.966792556923,,,2017_Oct_19_1453,60.0029445325,FEMA4ImagesEEG,001,102220,
AFNE01.JPG,AFNE01.JPG,AFNE01.JPG,AFNE01.JPG,AFNE01.JPG,AFNE01.JPG,1,1,11,7,,,,,,,,,,,,,,,,,,,,,,,AFSA06.jpg,AFNE15.jpg,AFSA20.jpg,AFNE04.jpg,AFNE15.jpg,FN,3,num_6,16,num_6,1.3500938965,,,2017_Oct_19_1453,60.0029445325,FEMA4ImagesEEG,001,102220,
AFNE01.JPG,AFNE01.JPG,AFNE01.JPG,AFNE01.JPG,AFNE01.JPG,AFNE01.JPG,1,2,12,8,,,,,,,,,,,,,,,,,,,,,,,AFSA09.jpg,AFNE12.jpg,AFNE18.jpg,AFSA19.jpg,AFSA19.jpg,FS,4,num_4,32,num_8,2.11666418094,,,2017_Oct_19_1453,60.0029445325,FEMA4ImagesEEG,001,102220,
AFNE01.JPG,AFNE01.JPG,AFNE01.JPG,AFNE01.JPG,AFNE01.JPG,AFNE01.JPG,1,3,13,6,,,,,,,,,,,,,,,,,,,,,,,AFNE04.jpg,AFSA09.jpg,AFSA14.jpg,AFNE16.jpg,AFSA14.jpg,FS,4,num_2,32,num_4,1.1834671619,,,2017_Oct_19_1453,60.0029445325,FEMA4ImagesEEG,001,102220,
AFNE01.JPG,AFNE01.JPG,AFNE01.JPG,AFNE01.JPG,AFNE01.JPG,AFNE01.JPG,1,4,14,3,,,,,,,,,,,,,,,,,,,,,,,AFSA18.jpg,AFNE03.jpg,AFNE06.jpg,AFSA17.jpg,AFSA17.jpg,FS,4,num_4,16,num_4,0.816747092089,,,2017_Oct_19_1453,60.0029445325,FEMA4ImagesEEG,001,102220,
AFNE01.JPG,AFNE01.JPG,AFNE01.JPG,AFNE01.JPG,AFNE01.JPG,AFNE01.JPG,1,5,15,0,,,,,,,,,,,,,,,,,,,,,,,AFSA13.jpg,AFSA01.jpg,AFNE17.jpg,AFNE13.jpg,AFSA01.jpg,FS,4,num_6,32,num_8,1.7503059053,,,2017_Oct_19_1453,60.0029445325,FEMA4ImagesEEG,001,102220,
AFNE01.JPG,AFNE01.JPG,AFNE01.JPG,AFNE01.JPG,AFNE01.JPG,AFNE01.JPG,1,6,16,5,,,,,,,,,,,,,,,,,,,,,,,AFSA11.jpg,AFNE03.jpg,AFNE10.jpg,AFSA18.jpg,AFSA11.jpg,FS,4,num_8,32,num_4,3.56658471772,,,2017_Oct_19_1453,60.0029445325,FEMA4ImagesEEG,001,102220,
AFNE01.JPG,AFNE01.JPG,AFNE01.JPG,AFNE01.JPG,AFNE01.JPG,AFNE01.JPG,1,7,17,4,,,,,,,,,,,,,,,,,,,,,,,AFSA04.jpg,AFNE09.jpg,AFSA16.jpg,AFNE04.jpg,AFNE04.jpg,FN,3,num_4,32,num_6,1.13339459457,,,2017_Oct_19_1453,60.0029445325,FEMA4ImagesEEG,001,102220,
AFNE01.JPG,AFNE01.JPG,AFNE01.JPG,AFNE01.JPG,AFNE01.JPG,AFNE01.JPG,1,8,18,2,,,,,,,,,,,,,,,,,,,,,,,AFSA08.jpg,AFNE10.jpg,AFNE19.jpg,AFSA01.jpg,AFSA08.jpg,FS,4,num_8,16,num_8,1.91670106599,,,2017_Oct_19_1453,60.0029445325,FEMA4ImagesEEG,001,102220,
AFNE01.JPG,AFNE01.JPG,AFNE01.JPG,AFNE01.JPG,AFNE01.JPG,AFNE01.JPG,1,9,19,9,,,,,,,,,,,,,,,,,,,,,,,AFSA05.jpg,AFNE01.jpg,AFSA20.jpg,AFNE09.jpg,AFSA05.jpg,FS,4,num_8,16,num_8,0.966772029584,,,2017_Oct_19_1453,60.0029445325,FEMA4ImagesEEG,001,102220,
AFNE01.JPG,AFNE01.JPG,AFNE01.JPG,AFNE01.JPG,AFNE01.JPG,AFNE01.JPG,2,0,20,6,,,,,,,,,,,,,,,,,,,,,,,AFNE15.jpg,AFSA04.jpg,AFNE04.jpg,AFSA12.jpg,AFSA04.jpg,FS,4,num_6,16,num_6,0.6668058676,,,2017_Oct_19_1453,60.0029445325,FEMA4ImagesEEG,001,102220,
AFNE01.JPG,AFNE01.JPG,AFNE01.JPG,AFNE01.JPG,AFNE01.JPG,AFNE01.JPG,2,1,21,2,,,,,,,,,,,,,,,,,,,,,,,AFNE09.jpg,AFNE04.jpg,AFSA12.jpg,AFSA07.jpg,AFSA07.jpg,FS,4,num_4,16,num_4,0.700105362921,,,2017_Oct_19_1453,60.0029445325,FEMA4ImagesEEG,001,102220,
AFNE01.JPG,AFNE01.JPG,AFNE01.JPG,AFNE01.JPG,AFNE01.JPG,AFNE01.JPG,2,2,22,3,,,,,,,,,,,,,,,,,,,,,,,AFNE20.jpg,AFNE13.jpg,AFSA16.jpg,AFSA02.jpg,AFNE20.jpg,FN,3,num_8,32,num_6,1.61677531718,,,2017_Oct_19_1453,60.0029445325,FEMA4ImagesEEG,001,102220,
AFNE01.JPG,AFNE01.JPG,AFNE01.JPG,AFNE01.JPG,AFNE01.JPG,AFNE01.JPG,2,3,23,1,,,,,,,,,,,,,,,,,,,,,,,AFSA01.jpg,AFNE11.jpg,AFSA08.jpg,AFNE15.jpg,AFSA01.jpg,FS,4,num_8,32,num_2,1.36679512286,,,2017_Oct_19_1453,60.0029445325,FEMA4ImagesEEG,001,102220,
AFNE01.JPG,AFNE01.JPG,AFNE01.JPG,AFNE01.JPG,AFNE01.JPG,AFNE01.JPG,2,4,24,7,,,,,,,,,,,,,,,,,,,,,,,AFSA03.jpg,AFNE05.jpg,AFSA06.jpg,AFNE16.jpg,AFSA03.jpg,FS,4,num_8,16,num_8,1.18349185883,,,2017_Oct_19_1453,60.0029445325,FEMA4ImagesEEG,001,102220,
AFNE01.JPG,AFNE01.JPG,AFNE01.JPG,AFNE01.JPG,AFNE01.JPG,AFNE01.JPG,2,5,25,5,,,,,,,,,,,,,,,,,,,,,,,AFNE10.jpg,AFNE20.jpg,AFSA11.jpg,AFSA20.jpg,AFNE10.jpg,FN,3,num_8,32,num_6,2.0001007122,,,2017_Oct_19_1453,60.0029445325,FEMA4ImagesEEG,001,102220,
AFNE01.JPG,AFNE01.JPG,AFNE01.JPG,AFNE01.JPG,AFNE01.JPG,AFNE01.JPG,2,6,26,4,,,,,,,,,,,,,,,,,,,,,,,AFSA18.jpg,AFNE10.jpg,AFSA10.jpg,AFNE14.jpg,AFNE10.jpg,FN,3,num_6,32,num_8,2.06672504125,,,2017_Oct_19_1453,60.0029445325,FEMA4ImagesEEG,001,102220,
AFNE01.JPG,AFNE01.JPG,AFNE01.JPG,AFNE01.JPG,AFNE01.JPG,AFNE01.JPG,2,7,27,8,,,,,,,,,,,,,,,,,,,,,,,AFNE05.jpg,AFNE02.jpg,AFSA19.jpg,AFSA14.jpg,AFNE02.jpg,FN,3,num_6,16,num_6,1.21670667891,,,2017_Oct_19_1453,60.0029445325,FEMA4ImagesEEG,001,102220,
AFNE01.JPG,AFNE01.JPG,AFNE01.JPG,AFNE01.JPG,AFNE01.JPG,AFNE01.JPG,2,8,28,0,,,,,,,,,,,,,,,,,,,,,,,AFNE04.jpg,AFNE09.jpg,AFSA02.jpg,AFSA03.jpg,AFSA03.jpg,FS,4,num_4,16,num_4,0.866748455242,,,2017_Oct_19_1453,60.0029445325,FEMA4ImagesEEG,001,102220,
AFNE01.JPG,AFNE01.JPG,AFNE01.JPG,AFNE01.JPG,AFNE01.JPG,AFNE01.JPG,2,9,29,9,,,,,,,,,,,,,,,,,,,,,,,AFSA15.jpg,AFNE12.jpg,AFNE03.jpg,AFSA16.jpg,AFSA16.jpg,FS,4,num_4,16,num_4,0.900133908755,,,2017_Oct_19_1453,60.0029445325,FEMA4ImagesEEG,001,102220,
AFNE01.JPG,AFNE01.JPG,AFNE01.JPG,AFNE01.JPG,AFNE01.JPG,AFNE01.JPG,3,0,30,6,,,,,,,,,,,,,,,,,,,,,,,AFNE07.jpg,AFSA10.jpg,AFNE05.jpg,AFSA19.jpg,AFSA10.jpg,FS,4,num_6,32,num_4,1.85006358661,,,2017_Oct_19_1453,60.0029445325,FEMA4ImagesEEG,001,102220,
AFNE01.JPG,AFNE01.JPG,AFNE01.JPG,AFNE01.JPG,AFNE01.JPG,AFNE01.JPG,3,1,31,2,,,,,,,,,,,,,,,,,,,,,,,AFNE12.jpg,AFNE16.jpg,AFSA16.jpg,AFSA20.jpg,AFSA16.jpg,FS,4,num_2,16,num_2,1.21672079145,,,2017_Oct_19_1453,60.0029445325,FEMA4ImagesEEG,001,102220,
AFNE01.JPG,AFNE01.JPG,AFNE01.JPG,AFNE01.JPG,AFNE01.JPG,AFNE01.JPG,3,2,32,3,,,,,,,,,,,,,,,,,,,,,,,AFSA07.jpg,AFSA09.jpg,AFNE11.jpg,AFNE14.jpg,AFNE14.jpg,FN,3,num_4,16,num_4,0.916740516928,,,2017_Oct_19_1453,60.0029445325,FEMA4ImagesEEG,001,102220,
AFNE01.JPG,AFNE01.JPG,AFNE01.JPG,AFNE01.JPG,AFNE01.JPG,AFNE01.JPG,3,3,33,7,,,,,,,,,,,,,,,,,,,,,,,AFNE14.jpg,AFSA18.jpg,AFSA09.jpg,AFNE16.jpg,AFSA18.jpg,FS,4,num_6,16,num_6,1.19960388672,,,2017_Oct_19_1453,60.0029445325,FEMA4ImagesEEG,001,102220,
AFNE01.JPG,AFNE01.JPG,AFNE01.JPG,AFNE01.JPG,AFNE01.JPG,AFNE01.JPG,3,4,34,1,,,,,,,,,,,,,,,,,,,,,,,AFNE16.jpg,AFSA03.jpg,AFNE17.jpg,AFSA10.jpg,AFNE17.jpg,FN,3,num_2,32,num_8,1.38341167395,,,2017_Oct_19_1453,60.0029445325,FEMA4ImagesEEG,001,102220,
AFNE01.JPG,AFNE01.JPG,AFNE01.JPG,AFNE01.JPG,AFNE01.JPG,AFNE01.JPG,3,5,35,5,,,,,,,,,,,,,,,,,,,,,,,AFNE11.jpg,AFSA07.jpg,AFNE14.jpg,AFSA13.jpg,AFNE14.jpg,FN,3,num_2,32,num_8,1.18346395451,,,2017_Oct_19_1453,60.0029445325,FEMA4ImagesEEG,001,102220,
AFNE01.JPG,AFNE01.JPG,AFNE01.JPG,AFNE01.JPG,AFNE01.JPG,AFNE01.JPG,3,6,36,4,,,,,,,,,,,,,,,,,,,,,,,AFNE06.jpg,AFSA07.jpg,AFSA12.jpg,AFNE13.jpg,AFSA07.jpg,FS,4,num_6,32,num_8,1.20011867362,,,2017_Oct_19_1453,60.0029445325,FEMA4ImagesEEG,001,102220,
AFNE01.JPG,AFNE01.JPG,AFNE01.JPG,AFNE01.JPG,AFNE01.JPG,AFNE01.JPG,3,7,37,9,,,,,,,,,,,,,,,,,,,,,,,AFNE20.jpg,AFSA01.jpg,AFNE09.jpg,AFSA18.jpg,AFSA18.jpg,FS,4,num_4,16,num_4,1.68338360923,,,2017_Oct_19_1453,60.0029445325,FEMA4ImagesEEG,001,102220,
AFNE01.JPG,AFNE01.JPG,AFNE01.JPG,AFNE01.JPG,AFNE01.JPG,AFNE01.JPG,3,8,38,0,,,,,,,,,,,,,,,,,,,,,,,AFNE11.jpg,AFNE13.jpg,AFSA04.jpg,AFSA20.jpg,AFNE13.jpg,FN,3,num_6,16,num_6,1.36667420404,,,2017_Oct_19_1453,60.0029445325,FEMA4ImagesEEG,001,102220,
AFNE01.JPG,AFNE01.JPG,AFNE01.JPG,AFNE01.JPG,AFNE01.JPG,AFNE01.JPG,3,9,39,8,,,,,,,,,,,,,,,,,,,,,,,AFNE16.jpg,AFSA18.jpg,AFNE20.jpg,AFSA07.jpg,AFSA18.jpg,FS,4,num_6,32,num_8,1.5001149851,,,2017_Oct_19_1453,60.0029445325,FEMA4ImagesEEG,001,102220,
AFNE01.JPG,AFNE01.JPG,AFNE01.JPG,AFNE01.JPG,AFNE01.JPG,AFNE01.JPG,4,0,40,8,,,,,,,,,,,,,,,,,,,,,,,AFSA06.jpg,AFNE09.jpg,AFSA18.jpg,AFNE19.jpg,AFSA18.jpg,FS,4,num_2,32,num_8,0.966754388908,,,2017_Oct_19_1453,60.0029445325,FEMA4ImagesEEG,001,102220,
AFNE01.JPG,AFNE01.JPG,AFNE01.JPG,AFNE01.JPG,AFNE01.JPG,AFNE01.JPG,4,1,41,6,,,,,,,,,,,,,,,,,,,,,,,AFNE07.jpg,AFSA16.jpg,AFSA14.jpg,AFNE08.jpg,AFSA14.jpg,FS,4,num_2,32,num_6,0.916741799883,,,2017_Oct_19_1453,60.0029445325,FEMA4ImagesEEG,001,102220,
AFNE01.JPG,AFNE01.JPG,AFNE01.JPG,AFNE01.JPG,AFNE01.JPG,AFNE01.JPG,4,2,42,1,,,,,,,,,,,,,,,,,,,,,,,AFSA02.jpg,AFNE16.jpg,AFNE15.jpg,AFSA09.jpg,AFSA09.jpg,FS,4,num_4,16,num_4,1.81673265883,,,2017_Oct_19_1453,60.0029445325,FEMA4ImagesEEG,001,102220,
AFNE01.JPG,AFNE01.JPG,AFNE01.JPG,AFNE01.JPG,AFNE01.JPG,AFNE01.JPG,4,3,43,9,,,,,,,,,,,,,,,,,,,,,,,AFSA04.jpg,AFNE16.jpg,AFNE05.jpg,AFSA10.jpg,AFSA04.jpg,FS,4,num_8,32,num_4,1.75011410308,,,2017_Oct_19_1453,60.0029445325,FEMA4ImagesEEG,001,102220,
AFNE01.JPG,AFNE01.JPG,AFNE01.JPG,AFNE01.JPG,AFNE01.JPG,AFNE01.JPG,4,4,44,0,,,,,,,,,,,,,,,,,,,,,,,AFNE03.jpg,AFSA09.jpg,AFNE02.jpg,AFSA03.jpg,AFNE02.jpg,FN,3,num_2,32,num_8,0.811992449802,,,2017_Oct_19_1453,60.0029445325,FEMA4ImagesEEG,001,102220,
AFNE01.JPG,AFNE01.JPG,AFNE01.JPG,AFNE01.JPG,AFNE01.JPG,AFNE01.JPG,4,5,45,3,,,,,,,,,,,,,,,,,,,,,,,AFNE04.jpg,AFSA09.jpg,AFSA15.jpg,AFNE08.jpg,AFNE08.jpg,FN,3,num_4,32,num_8,0.883486566629,,,2017_Oct_19_1453,60.0029445325,FEMA4ImagesEEG,001,102220,
AFNE01.JPG,AFNE01.JPG,AFNE01.JPG,AFNE01.JPG,AFNE01.JPG,AFNE01.JPG,4,6,46,7,,,,,,,,,,,,,,,,,,,,,,,AFNE04.jpg,AFSA15.jpg,AFSA06.jpg,AFNE07.jpg,AFNE07.jpg,FN,3,num_4,32,num_8,1.06680682983,,,2017_Oct_19_1453,60.0029445325,FEMA4ImagesEEG,001,102220,
AFNE01.JPG,AFNE01.JPG,AFNE01.JPG,AFNE01.JPG,AFNE01.JPG,AFNE01.JPG,4,7,47,2,,,,,,,,,,,,,,,,,,,,,,,AFNE16.jpg,AFSA08.jpg,AFNE13.jpg,AFSA17.jpg,AFSA17.jpg,FS,4,num_4,16,num_4,0.950152591802,,,2017_Oct_19_1453,60.0029445325,FEMA4ImagesEEG,001,102220,
AFNE01.JPG,AFNE01.JPG,AFNE01.JPG,AFNE01.JPG,AFNE01.JPG,AFNE01.JPG,4,8,48,4,,,,,,,,,,,,,,,,,,,,,,,AFSA13.jpg,AFNE12.jpg,AFSA08.jpg,AFNE07.jpg,AFSA13.jpg,FS,4,num_8,16,num_8,1.06673530492,,,2017_Oct_19_1453,60.0029445325,FEMA4ImagesEEG,001,102220,
AFNE01.JPG,AFNE01.JPG,AFNE01.JPG,AFNE01.JPG,AFNE01.JPG,AFNE01.JPG,4,9,49,5,,,,,,,,,,,,,,,,,,,,,,,AFSA18.jpg,AFNE03.jpg,AFSA17.jpg,AFNE04.jpg,AFNE04.jpg,FN,3,num_4,16,num_4,0.916835135111,,,2017_Oct_19_1453,60.0029445325,FEMA4ImagesEEG,001,102220,
AFNE01.JPG,AFNE01.JPG,AFNE01.JPG,AFNE01.JPG,AFNE01.JPG,AFNE01.JPG,5,0,50,4,,,,,,,,,,,,,,,,,,,,,,,AFSA01.jpg,AFSA02.jpg,AFNE19.jpg,AFNE01.jpg,AFSA01.jpg,FS,4,num_8,16,num_8,1.3500582944,,,2017_Oct_19_1453,60.0029445325,FEMA4ImagesEEG,001,102220,
AFNE01.JPG,AFNE01.JPG,AFNE01.JPG,AFNE01.JPG,AFNE01.JPG,AFNE01.JPG,5,1,51,2,,,,,,,,,,,,,,,,,,,,,,,AFNE04.jpg,AFSA13.jpg,AFNE20.jpg,AFSA16.jpg,AFNE20.jpg,FN,3,num_2,16,num_2,1.68339611808,,,2017_Oct_19_1453,60.0029445325,FEMA4ImagesEEG,001,102220,
AFNE01.JPG,AFNE01.JPG,AFNE01.JPG,AFNE01.JPG,AFNE01.JPG,AFNE01.JPG,5,2,52,9,,,,,,,,,,,,,,,,,,,,,,,AFNE12.jpg,AFSA15.jpg,AFSA05.jpg,AFNE19.jpg,AFNE19.jpg,FN,3,num_4,32,num_2,1.81665343617,,,2017_Oct_19_1453,60.0029445325,FEMA4ImagesEEG,001,102220,
AFNE01.JPG,AFNE01.JPG,AFNE01.JPG,AFNE01.JPG,AFNE01.JPG,AFNE01.JPG,5,3,53,5,,,,,,,,,,,,,,,,,,,,,,,AFNE10.jpg,AFSA02.jpg,AFSA08.jpg,AFNE20.jpg,AFSA02.jpg,FS,4,num_6,16,num_6,1.83342298004,,,2017_Oct_19_1453,60.0029445325,FEMA4ImagesEEG,001,102220,
AFNE01.JPG,AFNE01.JPG,AFNE01.JPG,AFNE01.JPG,AFNE01.JPG,AFNE01.JPG,5,4,54,7,,,,,,,,,,,,,,,,,,,,,,,AFSA10.jpg,AFNE19.jpg,AFNE05.jpg,AFSA12.jpg,AFSA12.jpg,FS,4,num_4,32,num_8,1.31663242774,,,2017_Oct_19_1453,60.0029445325,FEMA4ImagesEEG,001,102220,
AFNE01.JPG,AFNE01.JPG,AFNE01.JPG,AFNE01.JPG,AFNE01.JPG,AFNE01.JPG,5,5,55,3,,,,,,,,,,,,,,,,,,,,,,,AFSA13.jpg,AFNE14.jpg,AFNE03.jpg,AFSA09.jpg,AFSA13.jpg,FS,4,num_8,16,num_8,0.966780048067,,,2017_Oct_19_1453,60.0029445325,FEMA4ImagesEEG,001,102220,
AFNE01.JPG,AFNE01.JPG,AFNE01.JPG,AFNE01.JPG,AFNE01.JPG,AFNE01.JPG,5,6,56,1,,,,,,,,,,,,,,,,,,,,,,,AFNE07.jpg,AFNE15.jpg,AFSA18.jpg,AFSA17.jpg,AFNE15.jpg,FN,3,num_6,16,num_6,0.900202867721,,,2017_Oct_19_1453,60.0029445325,FEMA4ImagesEEG,001,102220,
AFNE01.JPG,AFNE01.JPG,AFNE01.JPG,AFNE01.JPG,AFNE01.JPG,AFNE01.JPG,5,7,57,0,,,,,,,,,,,,,,,,,,,,,,,AFNE20.jpg,AFSA07.jpg,AFNE15.jpg,AFSA13.jpg,AFNE20.jpg,FN,3,num_8,16,num_8,0.966634753073,,,2017_Oct_19_1453,60.0029445325,FEMA4ImagesEEG,001,102220,
AFNE01.JPG,AFNE01.JPG,AFNE01.JPG,AFNE01.JPG,AFNE01.JPG,AFNE01.JPG,5,8,58,8,,,,,,,,,,,,,,,,,,,,,,,AFSA17.jpg,AFNE19.jpg,AFNE04.jpg,AFSA07.jpg,AFSA07.jpg,FS,4,num_4,16,num_4,1.66651046652,,,2017_Oct_19_1453,60.0029445325,FEMA4ImagesEEG,001,102220,
AFNE01.JPG,AFNE01.JPG,AFNE01.JPG,AFNE01.JPG,AFNE01.JPG,AFNE01.JPG,5,9,59,6,,,,,,,,,,,,,,,,,,,,,,,AFNE05.jpg,AFSA04.jpg,AFSA06.jpg,AFNE17.jpg,AFNE05.jpg,FN,3,num_8,32,num_4,0.867046101484,,,2017_Oct_19_1453,60.0029445325,FEMA4ImagesEEG,001,102220,
,,,,,,,,,,,,,,,,,,,,,,,,,,,,,,,,,,,,,,,,,,,space,5.16647855297,2017_Oct_19_1453,60.0029445325,FEMA4ImagesEEG,001,102220,
AFNE01.JPG,AFNE01.JPG,AFNE01.JPG,AFNE01.JPG,AFNE01.JPG,AFNE01.JPG,,,,,0,0,0,2,,,,,,,,,,,,,,,,,,,AMSA06.jpg,AMNE20.jpg,AMSA05.jpg,AMNE06.jpg,AMNE20.jpg,MN,1,num_6,32,num_4,0.983506292105,,,2017_Oct_19_1453,60.0029445325,FEMA4ImagesEEG,001,102220,
AFNE01.JPG,AFNE01.JPG,AFNE01.JPG,AFNE01.JPG,AFNE01.JPG,AFNE01.JPG,,,,,0,1,1,4,,,,,,,,,,,,,,,,,,,AMNE19.jpg,AMSA04.jpg,AMSA02.jpg,AMNE13.jpg,AMNE19.jpg,MN,1,num_8,16,num_8,0.91681621148,,,2017_Oct_19_1453,60.0029445325,FEMA4ImagesEEG,001,102220,
AFNE01.JPG,AFNE01.JPG,AFNE01.JPG,AFNE01.JPG,AFNE01.JPG,AFNE01.JPG,,,,,0,2,2,5,,,,,,,,,,,,,,,,,,,AMSA16.jpg,AMNE19.jpg,AMNE20.jpg,AMSA02.jpg,AMNE20.jpg,MN,1,num_2,32,num_6,1.11677708125,,,2017_Oct_19_1453,60.0029445325,FEMA4ImagesEEG,001,102220,
AFNE01.JPG,AFNE01.JPG,AFNE01.JPG,AFNE01.JPG,AFNE01.JPG,AFNE01.JPG,,,,,0,3,3,3,,,,,,,,,,,,,,,,,,,AMSA03.jpg,AMNE18.jpg,AMSA18.jpg,AMNE13.jpg,AMSA18.jpg,MS,2,num_2,32,num_8,0.73344334698,,,2017_Oct_19_1453,60.0029445325,FEMA4ImagesEEG,001,102220,
AFNE01.JPG,AFNE01.JPG,AFNE01.JPG,AFNE01.JPG,AFNE01.JPG,AFNE01.JPG,,,,,0,4,4,0,,,,,,,,,,,,,,,,,,,AMSA10.jpg,AMNE02.jpg,AMNE10.jpg,AMSA11.jpg,AMNE10.jpg,MN,1,num_2,16,num_2,2.26665512007,,,2017_Oct_19_1453,60.0029445325,FEMA4ImagesEEG,001,102220,
AFNE01.JPG,AFNE01.JPG,AFNE01.JPG,AFNE01.JPG,AFNE01.JPG,AFNE01.JPG,,,,,0,5,5,6,,,,,,,,,,,,,,,,,,,AMSA19.jpg,AMNE02.jpg,AMNE08.jpg,AMSA01.jpg,AMNE08.jpg,MN,1,num_2,16,num_2,1.68337559074,,,2017_Oct_19_1453,60.0029445325,FEMA4ImagesEEG,001,102220,
AFNE01.JPG,AFNE01.JPG,AFNE01.JPG,AFNE01.JPG,AFNE01.JPG,AFNE01.JPG,,,,,0,6,6,1,,,,,,,,,,,,,,,,,,,AMSA04.jpg,AMNE06.jpg,AMNE11.jpg,AMSA13.jpg,AMNE06.jpg,MN,1,num_6,16,num_6,0.883376552985,,,2017_Oct_19_1453,60.0029445325,FEMA4ImagesEEG,001,102220,
AFNE01.JPG,AFNE01.JPG,AFNE01.JPG,AFNE01.JPG,AFNE01.JPG,AFNE01.JPG,,,,,0,7,7,8,,,,,,,,,,,,,,,,,,,AMSA07.jpg,AMNE10.jpg,AMNE06.jpg,AMSA20.jpg,AMSA07.jpg,MS,2,num_8,32,num_4,1.05005685109,,,2017_Oct_19_1453,60.0029445325,FEMA4ImagesEEG,001,102220,
AFNE01.JPG,AFNE01.JPG,AFNE01.JPG,AFNE01.JPG,AFNE01.JPG,AFNE01.JPG,,,,,0,8,8,9,,,,,,,,,,,,,,,,,,,AMSA14.jpg,AMNE18.jpg,AMSA09.jpg,AMNE01.jpg,AMSA14.jpg,MS,2,num_8,32,num_4,1.33348311868,,,2017_Oct_19_1453,60.0029445325,FEMA4ImagesEEG,001,102220,
AFNE01.JPG,AFNE01.JPG,AFNE01.JPG,AFNE01.JPG,AFNE01.JPG,AFNE01.JPG,,,,,0,9,9,7,,,,,,,,,,,,,,,,,,,AMNE13.jpg,AMSA19.jpg,AMNE19.jpg,AMSA03.jpg,AMSA03.jpg,MS,2,num_4,16,num_4,0.866790472093,,,2017_Oct_19_1453,60.0029445325,FEMA4ImagesEEG,001,102220,
AFNE01.JPG,AFNE01.JPG,AFNE01.JPG,AFNE01.JPG,AFNE01.JPG,AFNE01.JPG,,,,,1,0,10,4,,,,,,,,,,,,,,,,,,,AMSA18.jpg,AMNE20.jpg,AMSA03.jpg,AMNE14.jpg,AMSA03.jpg,MS,2,num_2,16,num_2,1.33349338235,,,2017_Oct_19_1453,60.0029445325,FEMA4ImagesEEG,001,102220,
AFNE01.JPG,AFNE01.JPG,AFNE01.JPG,AFNE01.JPG,AFNE01.JPG,AFNE01.JPG,,,,,1,1,11,9,,,,,,,,,,,,,,,,,,,AMNE17.jpg,AMSA08.jpg,AMNE05.jpg,AMSA07.jpg,AMNE05.jpg,MN,1,num_2,32,num_8,1.03350541007,,,2017_Oct_19_1453,60.0029445325,FEMA4ImagesEEG,001,102220,
AFNE01.JPG,AFNE01.JPG,AFNE01.JPG,AFNE01.JPG,AFNE01.JPG,AFNE01.JPG,,,,,1,2,12,0,,,,,,,,,,,,,,,,,,,AMSA20.jpg,AMNE02.jpg,AMNE07.jpg,AMSA15.jpg,AMNE07.jpg,MN,1,num_2,32,num_8,0.816638040647,,,2017_Oct_19_1453,60.0029445325,FEMA4ImagesEEG,001,102220,
AFNE01.JPG,AFNE01.JPG,AFNE01.JPG,AFNE01.JPG,AFNE01.JPG,AFNE01.JPG,,,,,1,3,13,8,,,,,,,,,,,,,,,,,,,AMNE17.jpg,AMSA02.jpg,AMNE05.jpg,AMSA03.jpg,AMSA02.jpg,MS,2,num_6,16,num_6,0.850103358302,,,2017_Oct_19_1453,60.0029445325,FEMA4ImagesEEG,001,102220,
AFNE01.JPG,AFNE01.JPG,AFNE01.JPG,AFNE01.JPG,AFNE01.JPG,AFNE01.JPG,,,,,1,4,14,7,,,,,,,,,,,,,,,,,,,AMNE19.jpg,AMSA07.jpg,AMSA01.jpg,AMNE17.jpg,AMNE19.jpg,MN,1,num_8,16,num_8,0.949946997804,,,2017_Oct_19_1453,60.0029445325,FEMA4ImagesEEG,001,102220,
AFNE01.JPG,AFNE01.JPG,AFNE01.JPG,AFNE01.JPG,AFNE01.JPG,AFNE01.JPG,,,,,1,5,15,3,,,,,,,,,,,,,,,,,,,AMNE08.jpg,AMSA11.jpg,AMNE20.jpg,AMSA02.jpg,AMNE08.jpg,MN,1,num_8,16,num_8,0.850104320532,,,2017_Oct_19_1453,60.0029445325,FEMA4ImagesEEG,001,102220,
AFNE01.JPG,AFNE01.JPG,AFNE01.JPG,AFNE01.JPG,AFNE01.JPG,AFNE01.JPG,,,,,1,6,16,1,,,,,,,,,,,,,,,,,,,AMSA17.jpg,AMNE12.jpg,AMNE07.jpg,AMSA15.jpg,AMNE07.jpg,MN,1,num_2,32,num_8,0.93349626899,,,2017_Oct_19_1453,60.0029445325,FEMA4ImagesEEG,001,102220,
AFNE01.JPG,AFNE01.JPG,AFNE01.JPG,AFNE01.JPG,AFNE01.JPG,AFNE01.JPG,,,,,1,7,17,6,,,,,,,,,,,,,,,,,,,AMNE16.jpg,AMNE13.jpg,AMSA04.jpg,AMSA05.jpg,AMNE16.jpg,MN,1,num_8,16,num_8,0.983483840333,,,2017_Oct_19_1453,60.0029445325,FEMA4ImagesEEG,001,102220,
AFNE01.JPG,AFNE01.JPG,AFNE01.JPG,AFNE01.JPG,AFNE01.JPG,AFNE01.JPG,,,,,1,8,18,5,,,,,,,,,,,,,,,,,,,AMNE14.jpg,AMSA18.jpg,AMSA06.jpg,AMNE17.jpg,AMSA18.jpg,MS,2,num_6,16,num_6,3.88325050237,,,2017_Oct_19_1453,60.0029445325,FEMA4ImagesEEG,001,102220,
AFNE01.JPG,AFNE01.JPG,AFNE01.JPG,AFNE01.JPG,AFNE01.JPG,AFNE01.JPG,,,,,1,9,19,2,,,,,,,,,,,,,,,,,,,AMNE12.jpg,AMSA12.jpg,AMNE18.jpg,AMSA05.jpg,AMNE18.jpg,MN,1,num_2,32,num_8,0.700137757609,,,2017_Oct_19_1453,60.0029445325,FEMA4ImagesEEG,001,102220,
AFNE01.JPG,AFNE01.JPG,AFNE01.JPG,AFNE01.JPG,AFNE01.JPG,AFNE01.JPG,,,,,2,0,20,0,,,,,,,,,,,,,,,,,,,AMSA20.jpg,AMNE14.jpg,AMNE20.jpg,AMSA01.jpg,AMNE20.jpg,MN,1,num_2,32,num_6,2.10002453657,,,2017_Oct_19_1453,60.0029445325,FEMA4ImagesEEG,001,102220,
AFNE01.JPG,AFNE01.JPG,AFNE01.JPG,AFNE01.JPG,AFNE01.JPG,AFNE01.JPG,,,,,2,1,21,7,,,,,,,,,,,,,,,,,,,AMNE07.jpg,AMSA19.jpg,AMNE19.jpg,AMSA01.jpg,AMSA19.jpg,MS,2,num_6,32,num_4,1.0001395217,,,2017_Oct_19_1453,60.0029445325,FEMA4ImagesEEG,001,102220,
AFNE01.JPG,AFNE01.JPG,AFNE01.JPG,AFNE01.JPG,AFNE01.JPG,AFNE01.JPG,,,,,2,2,22,4,,,,,,,,,,,,,,,,,,,AMNE10.jpg,AMNE11.jpg,AMSA13.jpg,AMSA06.jpg,AMSA13.jpg,MS,2,num_2,32,num_4,0.633536521811,,,2017_Oct_19_1453,60.0029445325,FEMA4ImagesEEG,001,102220,
AFNE01.JPG,AFNE01.JPG,AFNE01.JPG,AFNE01.JPG,AFNE01.JPG,AFNE01.JPG,,,,,2,3,23,9,,,,,,,,,,,,,,,,,,,AMSA01.jpg,AMNE19.jpg,AMNE18.jpg,AMSA11.jpg,AMSA01.jpg,MS,2,num_8,16,num_8,0.950080104696,,,2017_Oct_19_1453,60.0029445325,FEMA4ImagesEEG,001,102220,
AFNE01.JPG,AFNE01.JPG,AFNE01.JPG,AFNE01.JPG,AFNE01.JPG,AFNE01.JPG,,,,,2,4,24,1,,,,,,,,,,,,,,,,,,,AMNE08.jpg,AMNE16.jpg,AMSA01.jpg,AMSA13.jpg,AMSA01.jpg,MS,2,num_2,32,num_4,0.700191962591,,,2017_Oct_19_1453,60.0029445325,FEMA4ImagesEEG,001,102220,
AFNE01.JPG,AFNE01.JPG,AFNE01.JPG,AFNE01.JPG,AFNE01.JPG,AFNE01.JPG,,,,,2,5,25,2,,,,,,,,,,,,,,,,,,,AMSA10.jpg,AMNE06.jpg,AMSA18.jpg,AMNE19.jpg,AMNE19.jpg,MN,1,num_4,32,num_6,1.16674380453,,,2017_Oct_19_1453,60.0029445325,FEMA4ImagesEEG,001,102220,
AFNE01.JPG,AFNE01.JPG,AFNE01.JPG,AFNE01.JPG,AFNE01.JPG,AFNE01.JPG,,,,,2,6,26,6,,,,,,,,,,,,,,,,,,,AMNE08.jpg,AMNE13.jpg,AMSA07.jpg,AMSA15.jpg,AMSA15.jpg,MS,2,num_4,16,num_4,0.983312565455,,,2017_Oct_19_1453,60.0029445325,FEMA4ImagesEEG,001,102220,
AFNE01.JPG,AFNE01.JPG,AFNE01.JPG,AFNE01.JPG,AFNE01.JPG,AFNE01.JPG,,,,,2,7,27,8,,,,,,,,,,,,,,,,,,,AMNE03.jpg,AMSA12.jpg,AMSA09.jpg,AMNE15.jpg,AMNE15.jpg,MN,1,num_4,32,num_6,1.73341127305,,,2017_Oct_19_1453,60.0029445325,FEMA4ImagesEEG,001,102220,
AFNE01.JPG,AFNE01.JPG,AFNE01.JPG,AFNE01.JPG,AFNE01.JPG,AFNE01.JPG,,,,,2,8,28,3,,,,,,,,,,,,,,,,,,,AMNE08.jpg,AMSA19.jpg,AMSA14.jpg,AMNE02.jpg,AMSA19.jpg,MS,2,num_6,16,num_6,0.833435168141,,,2017_Oct_19_1453,60.0029445325,FEMA4ImagesEEG,001,102220,
AFNE01.JPG,AFNE01.JPG,AFNE01.JPG,AFNE01.JPG,AFNE01.JPG,AFNE01.JPG,,,,,2,9,29,5,,,,,,,,,,,,,,,,,,,AMNE02.jpg,AMSA05.jpg,AMSA20.jpg,AMNE20.jpg,AMNE20.jpg,MN,1,num_4,16,num_4,0.966954851116,,,2017_Oct_19_1453,60.0029445325,FEMA4ImagesEEG,001,102220,
AFNE01.JPG,AFNE01.JPG,AFNE01.JPG,AFNE01.JPG,AFNE01.JPG,AFNE01.JPG,,,,,3,0,30,4,,,,,,,,,,,,,,,,,,,AMNE02.jpg,AMSA09.jpg,AMSA06.jpg,AMNE01.jpg,AMSA09.jpg,MS,2,num_6,16,num_6,1.50012781468,,,2017_Oct_19_1453,60.0029445325,FEMA4ImagesEEG,001,102220,
AFNE01.JPG,AFNE01.JPG,AFNE01.JPG,AFNE01.JPG,AFNE01.JPG,AFNE01.JPG,,,,,3,1,31,7,,,,,,,,,,,,,,,,,,,AMNE13.jpg,AMNE11.jpg,AMSA08.jpg,AMSA09.jpg,AMNE11.jpg,MN,1,num_6,16,num_6,2.90001523512,,,2017_Oct_19_1453,60.0029445325,FEMA4ImagesEEG,001,102220,
AFNE01.JPG,AFNE01.JPG,AFNE01.JPG,AFNE01.JPG,AFNE01.JPG,AFNE01.JPG,,,,,3,2,32,3,,,,,,,,,,,,,,,,,,,AMSA17.jpg,AMSA13.jpg,AMNE17.jpg,AMNE11.jpg,AMNE17.jpg,MN,1,num_2,32,num_6,1.09997033159,,,2017_Oct_19_1453,60.0029445325,FEMA4ImagesEEG,001,102220,
AFNE01.JPG,AFNE01.JPG,AFNE01.JPG,AFNE01.JPG,AFNE01.JPG,AFNE01.JPG,,,,,3,3,33,6,,,,,,,,,,,,,,,,,,,AMNE16.jpg,AMSA20.jpg,AMSA05.jpg,AMNE17.jpg,AMNE17.jpg,MN,1,num_4,16,num_4,1.0502698221,,,2017_Oct_19_1453,60.0029445325,FEMA4ImagesEEG,001,102220,
AFNE01.JPG,AFNE01.JPG,AFNE01.JPG,AFNE01.JPG,AFNE01.JPG,AFNE01.JPG,,,,,3,4,34,9,,,,,,,,,,,,,,,,,,,AMSA10.jpg,AMNE09.jpg,AMSA13.jpg,AMNE11.jpg,AMSA13.jpg,MS,2,num_2,32,num_8,1.10008130746,,,2017_Oct_19_1453,60.0029445325,FEMA4ImagesEEG,001,102220,
AFNE01.JPG,AFNE01.JPG,AFNE01.JPG,AFNE01.JPG,AFNE01.JPG,AFNE01.JPG,,,,,3,5,35,5,,,,,,,,,,,,,,,,,,,AMNE07.jpg,AMNE09.jpg,AMSA15.jpg,AMSA18.jpg,AMSA15.jpg,MS,2,num_2,32,num_4,1.25009950943,,,2017_Oct_19_1453,60.0029445325,FEMA4ImagesEEG,001,102220,
AFNE01.JPG,AFNE01.JPG,AFNE01.JPG,AFNE01.JPG,AFNE01.JPG,AFNE01.JPG,,,,,3,6,36,1,,,,,,,,,,,,,,,,,,,AMSA06.jpg,AMNE03.jpg,AMSA14.jpg,AMNE15.jpg,AMSA14.jpg,MS,2,num_2,32,num_8,0.983489292907,,,2017_Oct_19_1453,60.0029445325,FEMA4ImagesEEG,001,102220,
AFNE01.JPG,AFNE01.JPG,AFNE01.JPG,AFNE01.JPG,AFNE01.JPG,AFNE01.JPG,,,,,3,7,37,8,,,,,,,,,,,,,,,,,,,AMSA10.jpg,AMSA19.jpg,AMNE10.jpg,AMNE13.jpg,AMSA10.jpg,MS,2,num_8,32,num_4,0.883492019202,,,2017_Oct_19_1453,60.0029445325,FEMA4ImagesEEG,001,102220,
AFNE01.JPG,AFNE01.JPG,AFNE01.JPG,AFNE01.JPG,AFNE01.JPG,AFNE01.JPG,,,,,3,8,38,2,,,,,,,,,,,,,,,,,,,AMSA04.jpg,AMSA13.jpg,AMNE01.jpg,AMNE16.jpg,AMNE01.jpg,MN,1,num_2,32,num_4,0.833381283883,,,2017_Oct_19_1453,60.0029445325,FEMA4ImagesEEG,001,102220,
AFNE01.JPG,AFNE01.JPG,AFNE01.JPG,AFNE01.JPG,AFNE01.JPG,AFNE01.JPG,,,,,3,9,39,0,,,,,,,,,,,,,,,,,,,AMNE06.jpg,AMSA05.jpg,AMSA06.jpg,AMNE17.jpg,AMSA06.jpg,MS,2,num_2,32,num_8,0.800120918779,,,2017_Oct_19_1453,60.0029445325,FEMA4ImagesEEG,001,102220,
AFNE01.JPG,AFNE01.JPG,AFNE01.JPG,AFNE01.JPG,AFNE01.JPG,AFNE01.JPG,,,,,4,0,40,6,,,,,,,,,,,,,,,,,,,AMNE16.jpg,AMSA02.jpg,AMNE15.jpg,AMSA04.jpg,AMNE16.jpg,MN,1,num_8,16,num_8,0.916787344904,,,2017_Oct_19_1453,60.0029445325,FEMA4ImagesEEG,001,102220,
AFNE01.JPG,AFNE01.JPG,AFNE01.JPG,AFNE01.JPG,AFNE01.JPG,AFNE01.JPG,,,,,4,1,41,5,,,,,,,,,,,,,,,,,,,AMSA14.jpg,AMNE09.jpg,AMNE12.jpg,AMSA06.jpg,AMSA06.jpg,MS,2,num_4,16,num_4,0.816834012483,,,2017_Oct_19_1453,60.0029445325,FEMA4ImagesEEG,001,102220,
AFNE01.JPG,AFNE01.JPG,AFNE01.JPG,AFNE01.JPG,AFNE01.JPG,AFNE01.JPG,,,,,4,2,42,1,,,,,,,,,,,,,,,,,,,AMSA16.jpg,AMNE10.jpg,AMNE15.jpg,AMSA06.jpg,AMSA16.jpg,MS,2,num_8,16,num_8,1.23343035701,,,2017_Oct_19_1453,60.0029445325,FEMA4ImagesEEG,001,102220,
AFNE01.JPG,AFNE01.JPG,AFNE01.JPG,AFNE01.JPG,AFNE01.JPG,AFNE01.JPG,,,,,4,3,43,9,,,,,,,,,,,,,,,,,,,AMNE16.jpg,AMSA16.jpg,AMSA20.jpg,AMNE20.jpg,AMSA20.jpg,MS,2,num_2,16,num_2,1.56654622898,,,2017_Oct_19_1453,60.0029445325,FEMA4ImagesEEG,001,102220,
AFNE01.JPG,AFNE01.JPG,AFNE01.JPG,AFNE01.JPG,AFNE01.JPG,AFNE01.JPG,,,,,4,4,44,2,,,,,,,,,,,,,,,,,,,AMSA06.jpg,AMNE05.jpg,AMNE11.jpg,AMSA01.jpg,AMNE11.jpg,MN,1,num_2,32,num_8,1.70048736368,,,2017_Oct_19_1453,60.0029445325,FEMA4ImagesEEG,001,102220,
AFNE01.JPG,AFNE01.JPG,AFNE01.JPG,AFNE01.JPG,AFNE01.JPG,AFNE01.JPG,,,,,4,5,45,0,,,,,,,,,,,,,,,,,,,AMSA12.jpg,AMNE06.jpg,AMNE10.jpg,AMSA20.jpg,AMSA12.jpg,MS,2,num_8,32,num_4,1.7166882364,,,2017_Oct_19_1453,60.0029445325,FEMA4ImagesEEG,001,102220,
AFNE01.JPG,AFNE01.JPG,AFNE01.JPG,AFNE01.JPG,AFNE01.JPG,AFNE01.JPG,,,,,4,6,46,4,,,,,,,,,,,,,,,,,,,AMNE08.jpg,AMSA16.jpg,AMSA10.jpg,AMNE06.jpg,AMNE06.jpg,MN,1,num_4,16,num_4,0.616833050299,,,2017_Oct_19_1453,60.0029445325,FEMA4ImagesEEG,001,102220,
AFNE01.JPG,AFNE01.JPG,AFNE01.JPG,AFNE01.JPG,AFNE01.JPG,AFNE01.JPG,,,,,4,7,47,7,,,,,,,,,,,,,,,,,,,AMSA01.jpg,AMSA05.jpg,AMNE13.jpg,AMNE14.jpg,AMSA05.jpg,MS,2,num_6,32,num_8,0.900116588804,,,2017_Oct_19_1453,60.0029445325,FEMA4ImagesEEG,001,102220,
AFNE01.JPG,AFNE01.JPG,AFNE01.JPG,AFNE01.JPG,AFNE01.JPG,AFNE01.JPG,,,,,4,8,48,8,,,,,,,,,,,,,,,,,,,AMSA01.jpg,AMNE18.jpg,AMSA08.jpg,AMNE16.jpg,AMSA01.jpg,MS,2,num_8,16,num_8,0.916744686547,,,2017_Oct_19_1453,60.0029445325,FEMA4ImagesEEG,001,102220,
AFNE01.JPG,AFNE01.JPG,AFNE01.JPG,AFNE01.JPG,AFNE01.JPG,AFNE01.JPG,,,,,4,9,49,3,,,,,,,,,,,,,,,,,,,AMNE07.jpg,AMNE08.jpg,AMSA02.jpg,AMSA05.jpg,AMNE07.jpg,MN,1,num_8,16,num_8,1.40010263663,,,2017_Oct_19_1453,60.0029445325,FEMA4ImagesEEG,001,102220,
AFNE01.JPG,AFNE01.JPG,AFNE01.JPG,AFNE01.JPG,AFNE01.JPG,AFNE01.JPG,,,,,5,0,50,3,,,,,,,,,,,,,,,,,,,AMNE20.jpg,AMSA20.jpg,AMSA15.jpg,AMNE02.jpg,AMSA15.jpg,MS,2,num_2,32,num_8,1.3061769616,,,2017_Oct_19_1453,60.0029445325,FEMA4ImagesEEG,001,102220,
AFNE01.JPG,AFNE01.JPG,AFNE01.JPG,AFNE01.JPG,AFNE01.JPG,AFNE01.JPG,,,,,5,1,51,7,,,,,,,,,,,,,,,,,,,AMNE11.jpg,AMNE09.jpg,AMSA01.jpg,AMSA03.jpg,AMSA03.jpg,MS,2,num_4,32,num_2,1.11677034572,,,2017_Oct_19_1453,60.0029445325,FEMA4ImagesEEG,001,102220,
AFNE01.JPG,AFNE01.JPG,AFNE01.JPG,AFNE01.JPG,AFNE01.JPG,AFNE01.JPG,,,,,5,2,52,4,,,,,,,,,,,,,,,,,,,AMNE09.jpg,AMNE16.jpg,AMSA09.jpg,AMSA07.jpg,AMNE09.jpg,MN,1,num_8,16,num_8,1.23344254514,,,2017_Oct_19_1453,60.0029445325,FEMA4ImagesEEG,001,102220,
AFNE01.JPG,AFNE01.JPG,AFNE01.JPG,AFNE01.JPG,AFNE01.JPG,AFNE01.JPG,,,,,5,3,53,2,,,,,,,,,,,,,,,,,,,AMSA04.jpg,AMSA13.jpg,AMNE15.jpg,AMNE01.jpg,AMNE01.jpg,MN,1,num_4,16,num_4,1.00010616478,,,2017_Oct_19_1453,60.0029445325,FEMA4ImagesEEG,001,102220,
AFNE01.JPG,AFNE01.JPG,AFNE01.JPG,AFNE01.JPG,AFNE01.JPG,AFNE01.JPG,,,,,5,4,54,8,,,,,,,,,,,,,,,,,,,AMNE15.jpg,AMSA15.jpg,AMNE16.jpg,AMSA05.jpg,AMSA05.jpg,MS,2,num_4,32,num_8,1.3166705957,,,2017_Oct_19_1453,60.0029445325,FEMA4ImagesEEG,001,102220,
AFNE01.JPG,AFNE01.JPG,AFNE01.JPG,AFNE01.JPG,AFNE01.JPG,AFNE01.JPG,,,,,5,5,55,9,,,,,,,,,,,,,,,,,,,AMSA01.jpg,AMNE15.jpg,AMNE06.jpg,AMSA10.jpg,AMNE15.jpg,MN,1,num_6,32,num_2,1.60010199517,,,2017_Oct_19_1453,60.0029445325,FEMA4ImagesEEG,001,102220,
AFNE01.JPG,AFNE01.JPG,AFNE01.JPG,AFNE01.JPG,AFNE01.JPG,AFNE01.JPG,,,,,5,6,56,0,,,,,,,,,,,,,,,,,,,AMSA08.jpg,AMSA09.jpg,AMNE09.jpg,AMNE18.jpg,AMNE09.jpg,MN,1,num_2,16,num_2,1.43319557572,,,2017_Oct_19_1453,60.0029445325,FEMA4ImagesEEG,001,102220,
AFNE01.JPG,AFNE01.JPG,AFNE01.JPG,AFNE01.JPG,AFNE01.JPG,AFNE01.JPG,,,,,5,7,57,6,,,,,,,,,,,,,,,,,,,AMNE17.jpg,AMSA01.jpg,AMSA06.jpg,AMNE18.jpg,AMNE18.jpg,MN,1,num_4,16,num_4,1.13346836466,,,2017_Oct_19_1453,60.0029445325,FEMA4ImagesEEG,001,102220,
AFNE01.JPG,AFNE01.JPG,AFNE01.JPG,AFNE01.JPG,AFNE01.JPG,AFNE01.JPG,,,,,5,8,58,1,,,,,,,,,,,,,,,,,,,AMNE08.jpg,AMSA09.jpg,AMSA18.jpg,AMNE11.jpg,AMNE08.jpg,MN,1,num_8,16,num_8,1.33345713877,,,2017_Oct_19_1453,60.0029445325,FEMA4ImagesEEG,001,102220,
AFNE01.JPG,AFNE01.JPG,AFNE01.JPG,AFNE01.JPG,AFNE01.JPG,AFNE01.JPG,,,,,5,9,59,5,,,,,,,,,,,,,,,,,,,AMSA11.jpg,AMNE08.jpg,AMNE18.jpg,AMSA18.jpg,AMSA11.jpg,MS,2,num_8,16,num_8,0.950124366733,,,2017_Oct_19_1453,60.0029445325,FEMA4ImagesEEG,001,102220,
,,,,,,,,,,,,,,,,,,,,,,,,,,,,,,,,,,,,,,,,,,,space,2.84995389369,2017_Oct_19_1453,60.0029445325,FEMA4ImagesEEG,001,102220,
AFNE01.JPG,AFNE01.JPG,AFNE01.JPG,AFNE01.JPG,AFNE01.JPG,AFNE01.JPG,,,,,,,,,0,0,0,8,,,,,,,,,,,,,,,AFSA04.jpg,AFSA18.jpg,AFNE13.jpg,AFNE17.jpg,AFSA18.jpg,FS,4,num_6,32,num_8,0.800137918006,,,2017_Oct_19_1453,60.0029445325,FEMA4ImagesEEG,001,102220,
AFNE01.JPG,AFNE01.JPG,AFNE01.JPG,AFNE01.JPG,AFNE01.JPG,AFNE01.JPG,,,,,,,,,0,1,1,7,,,,,,,,,,,,,,,AFSA07.jpg,AFNE09.jpg,AFSA13.jpg,AFNE01.jpg,AFSA13.jpg,FS,4,num_2,16,num_2,1.16673738975,,,2017_Oct_19_1453,60.0029445325,FEMA4ImagesEEG,001,102220,
AFNE01.JPG,AFNE01.JPG,AFNE01.JPG,AFNE01.JPG,AFNE01.JPG,AFNE01.JPG,,,,,,,,,0,2,2,5,,,,,,,,,,,,,,,AFNE13.jpg,AFNE16.jpg,AFSA07.jpg,AFSA20.jpg,AFSA20.jpg,FS,4,num_4,16,num_4,0.650116508623,,,2017_Oct_19_1453,60.0029445325,FEMA4ImagesEEG,001,102220,
AFNE01.JPG,AFNE01.JPG,AFNE01.JPG,AFNE01.JPG,AFNE01.JPG,AFNE01.JPG,,,,,,,,,0,3,3,1,,,,,,,,,,,,,,,AFSA14.jpg,AFSA03.jpg,AFNE01.jpg,AFNE18.jpg,AFSA14.jpg,FS,4,num_8,16,num_8,0.750111216417,,,2017_Oct_19_1453,60.0029445325,FEMA4ImagesEEG,001,102220,
AFNE01.JPG,AFNE01.JPG,AFNE01.JPG,AFNE01.JPG,AFNE01.JPG,AFNE01.JPG,,,,,,,,,0,4,4,4,,,,,,,,,,,,,,,AFNE02.jpg,AFNE09.jpg,AFSA16.jpg,AFSA10.jpg,AFNE02.jpg,FN,3,num_8,16,num_8,1.30007906229,,,2017_Oct_19_1453,60.0029445325,FEMA4ImagesEEG,001,102220,
AFNE01.JPG,AFNE01.JPG,AFNE01.JPG,AFNE01.JPG,AFNE01.JPG,AFNE01.JPG,,,,,,,,,0,5,5,9,,,,,,,,,,,,,,,AFSA13.jpg,AFNE16.jpg,AFNE02.jpg,AFSA03.jpg,AFSA13.jpg,FS,4,num_8,32,num_4,0.783504046936,,,2017_Oct_19_1453,60.0029445325,FEMA4ImagesEEG,001,102220,
AFNE01.JPG,AFNE01.JPG,AFNE01.JPG,AFNE01.JPG,AFNE01.JPG,AFNE01.JPG,,,,,,,,,0,6,6,3,,,,,,,,,,,,,,,AFSA06.jpg,AFNE03.jpg,AFSA16.jpg,AFNE20.jpg,AFSA16.jpg,FS,4,num_2,32,num_4,1.0501367152,,,2017_Oct_19_1453,60.0029445325,FEMA4ImagesEEG,001,102220,
AFNE01.JPG,AFNE01.JPG,AFNE01.JPG,AFNE01.JPG,AFNE01.JPG,AFNE01.JPG,,,,,,,,,0,7,7,0,,,,,,,,,,,,,,,AFSA12.jpg,AFNE15.jpg,AFSA13.jpg,AFNE13.jpg,AFNE15.jpg,FN,3,num_6,16,num_6,1.01672143294,,,2017_Oct_19_1453,60.0029445325,FEMA4ImagesEEG,001,102220,
AFNE01.JPG,AFNE01.JPG,AFNE01.JPG,AFNE01.JPG,AFNE01.JPG,AFNE01.JPG,,,,,,,,,0,8,8,2,,,,,,,,,,,,,,,AFSA14.jpg,AFNE16.jpg,AFNE04.jpg,AFSA12.jpg,AFSA12.jpg,FS,4,num_4,16,num_4,1.3167174237,,,2017_Oct_19_1453,60.0029445325,FEMA4ImagesEEG,001,102220,
AFNE01.JPG,AFNE01.JPG,AFNE01.JPG,AFNE01.JPG,AFNE01.JPG,AFNE01.JPG,,,,,,,,,0,9,9,6,,,,,,,,,,,,,,,AFSA12.jpg,AFNE19.jpg,AFNE11.jpg,AFSA05.jpg,AFNE19.jpg,FN,3,num_6,32,num_2,1.10008643928,,,2017_Oct_19_1453,60.0029445325,FEMA4ImagesEEG,001,102220,
AFNE01.JPG,AFNE01.JPG,AFNE01.JPG,AFNE01.JPG,AFNE01.JPG,AFNE01.JPG,,,,,,,,,1,0,10,5,,,,,,,,,,,,,,,AFSA03.jpg,AFNE02.jpg,AFNE07.jpg,AFSA14.jpg,AFNE02.jpg,FN,3,num_6,16,num_6,0.683480151842,,,2017_Oct_19_1453,60.0029445325,FEMA4ImagesEEG,001,102220,
AFNE01.JPG,AFNE01.JPG,AFNE01.JPG,AFNE01.JPG,AFNE01.JPG,AFNE01.JPG,,,,,,,,,1,1,11,8,,,,,,,,,,,,,,,AFSA17.jpg,AFNE02.jpg,AFSA19.jpg,AFNE12.jpg,AFSA17.jpg,FS,4,num_8,16,num_8,1.20013086169,,,2017_Oct_19_1453,60.0029445325,FEMA4ImagesEEG,001,102220,
AFNE01.JPG,AFNE01.JPG,AFNE01.JPG,AFNE01.JPG,AFNE01.JPG,AFNE01.JPG,,,,,,,,,1,2,12,7,,,,,,,,,,,,,,,AFNE17.jpg,AFSA03.jpg,AFSA18.jpg,AFNE01.jpg,AFNE01.jpg,FN,3,num_4,32,num_8,0.900166624167,,,2017_Oct_19_1453,60.0029445325,FEMA4ImagesEEG,001,102220,
AFNE01.JPG,AFNE01.JPG,AFNE01.JPG,AFNE01.JPG,AFNE01.JPG,AFNE01.JPG,,,,,,,,,1,3,13,6,,,,,,,,,,,,,,,AFNE10.jpg,AFNE05.jpg,AFSA17.jpg,AFSA07.jpg,AFNE05.jpg,FN,3,num_6,16,num_6,2.100026461,,,2017_Oct_19_1453,60.0029445325,FEMA4ImagesEEG,001,102220,
AFNE01.JPG,AFNE01.JPG,AFNE01.JPG,AFNE01.JPG,AFNE01.JPG,AFNE01.JPG,,,,,,,,,1,4,14,2,,,,,,,,,,,,,,,AFSA06.jpg,AFSA02.jpg,AFNE10.jpg,AFNE17.jpg,AFSA02.jpg,FS,4,num_6,32,num_4,0.666768661846,,,2017_Oct_19_1453,60.0029445325,FEMA4ImagesEEG,001,102220,
AFNE01.JPG,AFNE01.JPG,AFNE01.JPG,AFNE01.JPG,AFNE01.JPG,AFNE01.JPG,,,,,,,,,1,5,15,4,,,,,,,,,,,,,,,AFNE08.jpg,AFSA09.jpg,AFNE05.jpg,AFSA12.jpg,AFSA12.jpg,FS,4,num_4,16,num_4,0.883428833506,,,2017_Oct_19_1453,60.0029445325,FEMA4ImagesEEG,001,102220,
AFNE01.JPG,AFNE01.JPG,AFNE01.JPG,AFNE01.JPG,AFNE01.JPG,AFNE01.JPG,,,,,,,,,1,6,16,3,,,,,,,,,,,,,,,AFNE13.jpg,AFNE01.jpg,AFSA07.jpg,AFSA15.jpg,AFSA15.jpg,FS,4,num_4,16,num_4,0.700151549419,,,2017_Oct_19_1453,60.0029445325,FEMA4ImagesEEG,001,102220,
AFNE01.JPG,AFNE01.JPG,AFNE01.JPG,AFNE01.JPG,AFNE01.JPG,AFNE01.JPG,,,,,,,,,1,7,17,1,,,,,,,,,,,,,,,AFNE04.jpg,AFSA10.jpg,AFNE10.jpg,AFSA06.jpg,AFNE04.jpg,FN,3,num_8,16,num_8,0.966746691178,,,2017_Oct_19_1453,60.0029445325,FEMA4ImagesEEG,001,102220,
AFNE01.JPG,AFNE01.JPG,AFNE01.JPG,AFNE01.JPG,AFNE01.JPG,AFNE01.JPG,,,,,,,,,1,8,18,0,,,,,,,,,,,,,,,AFNE12.jpg,AFSA09.jpg,AFNE08.jpg,AFSA13.jpg,AFSA09.jpg,FS,4,num_6,32,num_4,0.816853898345,,,2017_Oct_19_1453,60.0029445325,FEMA4ImagesEEG,001,102220,
AFNE01.JPG,AFNE01.JPG,AFNE01.JPG,AFNE01.JPG,AFNE01.JPG,AFNE01.JPG,,,,,,,,,1,9,19,9,,,,,,,,,,,,,,,AFSA11.jpg,AFSA12.jpg,AFNE12.jpg,AFNE07.jpg,AFNE07.jpg,FN,3,num_4,32,num_2,1.88336211973,,,2017_Oct_19_1453,60.0029445325,FEMA4ImagesEEG,001,102220,
AFNE01.JPG,AFNE01.JPG,AFNE01.JPG,AFNE01.JPG,AFNE01.JPG,AFNE01.JPG,,,,,,,,,2,0,20,9,,,,,,,,,,,,,,,AFSA14.jpg,AFSA13.jpg,AFNE16.jpg,AFNE12.jpg,AFNE12.jpg,FN,3,num_4,16,num_4,0.650138318917,,,2017_Oct_19_1453,60.0029445325,FEMA4ImagesEEG,001,102220,
AFNE01.JPG,AFNE01.JPG,AFNE01.JPG,AFNE01.JPG,AFNE01.JPG,AFNE01.JPG,,,,,,,,,2,1,21,8,,,,,,,,,,,,,,,AFNE16.jpg,AFSA07.jpg,AFSA06.jpg,AFNE18.jpg,AFNE16.jpg,FN,3,num_8,16,num_8,1.03342907407,,,2017_Oct_19_1453,60.0029445325,FEMA4ImagesEEG,001,102220,
AFNE01.JPG,AFNE01.JPG,AFNE01.JPG,AFNE01.JPG,AFNE01.JPG,AFNE01.JPG,,,,,,,,,2,2,22,7,,,,,,,,,,,,,,,AFSA07.jpg,AFSA20.jpg,AFNE08.jpg,AFNE06.jpg,AFNE08.jpg,FN,3,num_2,32,num_4,1.90003993205,,,2017_Oct_19_1453,60.0029445325,FEMA4ImagesEEG,001,102220,
AFNE01.JPG,AFNE01.JPG,AFNE01.JPG,AFNE01.JPG,AFNE01.JPG,AFNE01.JPG,,,,,,,,,2,3,23,3,,,,,,,,,,,,,,,AFSA17.jpg,AFNE04.jpg,AFNE05.jpg,AFSA12.jpg,AFSA12.jpg,FS,4,num_4,16,num_4,0.950200061256,,,2017_Oct_19_1453,60.0029445325,FEMA4ImagesEEG,001,102220,
AFNE01.JPG,AFNE01.JPG,AFNE01.JPG,AFNE01.JPG,AFNE01.JPG,AFNE01.JPG,,,,,,,,,2,4,24,2,,,,,,,,,,,,,,,AFSA18.jpg,AFNE20.jpg,AFNE18.jpg,AFSA03.jpg,AFNE18.jpg,FN,3,num_2,32,num_8,1.11677259087,,,2017_Oct_19_1453,60.0029445325,FEMA4ImagesEEG,001,102220,
AFNE01.JPG,AFNE01.JPG,AFNE01.JPG,AFNE01.JPG,AFNE01.JPG,AFNE01.JPG,,,,,,,,,2,5,25,6,,,,,,,,,,,,,,,AFSA18.jpg,AFNE15.jpg,AFNE12.jpg,AFSA08.jpg,AFSA08.jpg,FS,4,num_4,16,num_4,1.00015106832,,,2017_Oct_19_1453,60.0029445325,FEMA4ImagesEEG,001,102220,
AFNE01.JPG,AFNE01.JPG,AFNE01.JPG,AFNE01.JPG,AFNE01.JPG,AFNE01.JPG,,,,,,,,,2,6,26,5,,,,,,,,,,,,,,,AFNE10.jpg,AFNE06.jpg,AFSA11.jpg,AFSA05.jpg,AFSA05.jpg,FS,4,num_4,16,num_4,0.800125729875,,,2017_Oct_19_1453,60.0029445325,FEMA4ImagesEEG,001,102220,
AFNE01.JPG,AFNE01.JPG,AFNE01.JPG,AFNE01.JPG,AFNE01.JPG,AFNE01.JPG,,,,,,,,,2,7,27,4,,,,,,,,,,,,,,,AFNE10.jpg,AFNE03.jpg,AFSA12.jpg,AFSA16.jpg,AFSA16.jpg,FS,4,num_4,32,num_2,1.61671565962,,,2017_Oct_19_1453,60.0029445325,FEMA4ImagesEEG,001,102220,
AFNE01.JPG,AFNE01.JPG,AFNE01.JPG,AFNE01.JPG,AFNE01.JPG,AFNE01.JPG,,,,,,,,,2,8,28,0,,,,,,,,,,,,,,,AFSA08.jpg,AFNE06.jpg,AFNE13.jpg,AFSA10.jpg,AFNE06.jpg,FN,3,num_6,32,num_8,0.716758478346,,,2017_Oct_19_1453,60.0029445325,FEMA4ImagesEEG,001,102220,
AFNE01.JPG,AFNE01.JPG,AFNE01.JPG,AFNE01.JPG,AFNE01.JPG,AFNE01.JPG,,,,,,,,,2,9,29,1,,,,,,,,,,,,,,,AFNE18.jpg,AFNE13.jpg,AFSA05.jpg,AFSA14.jpg,AFSA05.jpg,FS,4,num_2,16,num_2,0.666825111985,,,2017_Oct_19_1453,60.0029445325,FEMA4ImagesEEG,001,102220,
AFNE01.JPG,AFNE01.JPG,AFNE01.JPG,AFNE01.JPG,AFNE01.JPG,AFNE01.JPG,,,,,,,,,3,0,30,5,,,,,,,,,,,,,,,AFSA16.jpg,AFNE04.jpg,AFNE16.jpg,AFSA19.jpg,AFSA16.jpg,FS,4,num_8,16,num_8,0.966769463674,,,2017_Oct_19_1453,60.0029445325,FEMA4ImagesEEG,001,102220,
AFNE01.JPG,AFNE01.JPG,AFNE01.JPG,AFNE01.JPG,AFNE01.JPG,AFNE01.JPG,,,,,,,,,3,1,31,1,,,,,,,,,,,,,,,AFNE15.jpg,AFNE08.jpg,AFSA08.jpg,AFSA18.jpg,AFNE15.jpg,FN,3,num_8,16,num_8,0.816804504459,,,2017_Oct_19_1453,60.0029445325,FEMA4ImagesEEG,001,102220,
AFNE01.JPG,AFNE01.JPG,AFNE01.JPG,AFNE01.JPG,AFNE01.JPG,AFNE01.JPG,,,,,,,,,3,2,32,6,,,,,,,,,,,,,,,AFSA06.jpg,AFNE19.jpg,AFSA20.jpg,AFNE07.jpg,AFNE07.jpg,FN,3,num_4,16,num_4,0.883413438045,,,2017_Oct_19_1453,60.0029445325,FEMA4ImagesEEG,001,102220,
AFNE01.JPG,AFNE01.JPG,AFNE01.JPG,AFNE01.JPG,AFNE01.JPG,AFNE01.JPG,,,,,,,,,3,3,33,7,,,,,,,,,,,,,,,AFNE11.jpg,AFSA18.jpg,AFNE09.jpg,AFSA14.jpg,AFSA14.jpg,FS,4,num_4,16,num_4,1.13349498605,,,2017_Oct_19_1453,60.0029445325,FEMA4ImagesEEG,001,102220,
AFNE01.JPG,AFNE01.JPG,AFNE01.JPG,AFNE01.JPG,AFNE01.JPG,AFNE01.JPG,,,,,,,,,3,4,34,3,,,,,,,,,,,,,,,AFSA19.jpg,AFNE08.jpg,AFSA17.jpg,AFNE05.jpg,AFNE08.jpg,FN,3,num_6,16,num_6,0.883557450055,,,2017_Oct_19_1453,60.0029445325,FEMA4ImagesEEG,001,102220,
AFNE01.JPG,AFNE01.JPG,AFNE01.JPG,AFNE01.JPG,AFNE01.JPG,AFNE01.JPG,,,,,,,,,3,5,35,4,,,,,,,,,,,,,,,AFNE13.jpg,AFNE03.jpg,AFSA12.jpg,AFSA06.jpg,AFNE03.jpg,FN,3,num_6,32,num_8,1.33338401018,,,2017_Oct_19_1453,60.0029445325,FEMA4ImagesEEG,001,102220,
AFNE01.JPG,AFNE01.JPG,AFNE01.JPG,AFNE01.JPG,AFNE01.JPG,AFNE01.JPG,,,,,,,,,3,6,36,9,,,,,,,,,,,,,,,AFSA11.jpg,AFSA15.jpg,AFNE13.jpg,AFNE20.jpg,AFSA15.jpg,FS,4,num_6,16,num_6,1.03344029994,,,2017_Oct_19_1453,60.0029445325,FEMA4ImagesEEG,001,102220,
AFNE01.JPG,AFNE01.JPG,AFNE01.JPG,AFNE01.JPG,AFNE01.JPG,AFNE01.JPG,,,,,,,,,3,7,37,0,,,,,,,,,,,,,,,AFSA02.jpg,AFNE01.jpg,AFSA14.jpg,AFNE19.jpg,AFNE01.jpg,FN,3,num_6,32,num_4,0.900109211798,,,2017_Oct_19_1453,60.0029445325,FEMA4ImagesEEG,001,102220,
AFNE01.JPG,AFNE01.JPG,AFNE01.JPG,AFNE01.JPG,AFNE01.JPG,AFNE01.JPG,,,,,,,,,3,8,38,2,,,,,,,,,,,,,,,AFSA13.jpg,AFNE01.jpg,AFSA07.jpg,AFNE19.jpg,AFSA07.jpg,FS,4,num_2,32,num_6,0.716768100538,,,2017_Oct_19_1453,60.0029445325,FEMA4ImagesEEG,001,102220,
AFNE01.JPG,AFNE01.JPG,AFNE01.JPG,AFNE01.JPG,AFNE01.JPG,AFNE01.JPG,,,,,,,,,3,9,39,8,,,,,,,,,,,,,,,AFNE06.jpg,AFSA09.jpg,AFSA13.jpg,AFNE08.jpg,AFSA09.jpg,FS,4,num_6,16,num_6,0.70009926887,,,2017_Oct_19_1453,60.0029445325,FEMA4ImagesEEG,001,102220,
AFNE01.JPG,AFNE01.JPG,AFNE01.JPG,AFNE01.JPG,AFNE01.JPG,AFNE01.JPG,,,,,,,,,4,0,40,4,,,,,,,,,,,,,,,AFNE02.jpg,AFNE01.jpg,AFSA07.jpg,AFSA09.jpg,AFNE02.jpg,FN,3,num_8,32,num_6,0.833406622318,,,2017_Oct_19_1453,60.0029445325,FEMA4ImagesEEG,001,102220,
AFNE01.JPG,AFNE01.JPG,AFNE01.JPG,AFNE01.JPG,AFNE01.JPG,AFNE01.JPG,,,,,,,,,4,1,41,0,,,,,,,,,,,,,,,AFNE12.jpg,AFNE15.jpg,AFSA12.jpg,AFSA07.jpg,AFNE15.jpg,FN,3,num_6,32,num_4,0.816827276954,,,2017_Oct_19_1453,60.0029445325,FEMA4ImagesEEG,001,102220,
AFNE01.JPG,AFNE01.JPG,AFNE01.JPG,AFNE01.JPG,AFNE01.JPG,AFNE01.JPG,,,,,,,,,4,2,42,8,,,,,,,,,,,,,,,AFSA17.jpg,AFNE10.jpg,AFNE18.jpg,AFSA19.jpg,AFSA19.jpg,FS,4,num_4,16,num_4,0.700029989152,,,2017_Oct_19_1453,60.0029445325,FEMA4ImagesEEG,001,102220,
AFNE01.JPG,AFNE01.JPG,AFNE01.JPG,AFNE01.JPG,AFNE01.JPG,AFNE01.JPG,,,,,,,,,4,3,43,2,,,,,,,,,,,,,,,AFSA13.jpg,AFNE07.jpg,AFSA16.jpg,AFNE02.jpg,AFNE02.jpg,FN,3,num_4,16,num_4,0.766757917067,,,2017_Oct_19_1453,60.0029445325,FEMA4ImagesEEG,001,102220,
AFNE01.JPG,AFNE01.JPG,AFNE01.JPG,AFNE01.JPG,AFNE01.JPG,AFNE01.JPG,,,,,,,,,4,4,44,9,,,,,,,,,,,,,,,AFNE02.jpg,AFSA05.jpg,AFSA09.jpg,AFNE11.jpg,AFSA05.jpg,FS,4,num_6,32,num_8,0.666770265525,,,2017_Oct_19_1453,60.0029445325,FEMA4ImagesEEG,001,102220,
AFNE01.JPG,AFNE01.JPG,AFNE01.JPG,AFNE01.JPG,AFNE01.JPG,AFNE01.JPG,,,,,,,,,4,5,45,5,,,,,,,,,,,,,,,AFSA07.jpg,AFNE07.jpg,AFNE04.jpg,AFSA15.jpg,AFNE07.jpg,FN,3,num_6,16,num_6,0.850109452353,,,2017_Oct_19_1453,60.0029445325,FEMA4ImagesEEG,001,102220,
AFNE01.JPG,AFNE01.JPG,AFNE01.JPG,AFNE01.JPG,AFNE01.JPG,AFNE01.JPG,,,,,,,,,4,6,46,7,,,,,,,,,,,,,,,AFSA20.jpg,AFSA09.jpg,AFNE13.jpg,AFNE14.jpg,AFSA09.jpg,FS,4,num_6,16,num_6,0.766766897752,,,2017_Oct_19_1453,60.0029445325,FEMA4ImagesEEG,001,102220,
AFNE01.JPG,AFNE01.JPG,AFNE01.JPG,AFNE01.JPG,AFNE01.JPG,AFNE01.JPG,,,,,,,,,4,7,47,3,,,,,,,,,,,,,,,AFSA05.jpg,AFNE14.jpg,AFNE08.jpg,AFSA20.jpg,AFNE08.jpg,FN,3,num_2,16,num_2,1.11660901376,,,2017_Oct_19_1453,60.0029445325,FEMA4ImagesEEG,001,102220,
AFNE01.JPG,AFNE01.JPG,AFNE01.JPG,AFNE01.JPG,AFNE01.JPG,AFNE01.JPG,,,,,,,,,4,8,48,1,,,,,,,,,,,,,,,AFNE07.jpg,AFNE02.jpg,AFSA13.jpg,AFSA14.jpg,AFNE07.jpg,FN,3,num_8,16,num_8,0.716812683328,,,2017_Oct_19_1453,60.0029445325,FEMA4ImagesEEG,001,102220,
AFNE01.JPG,AFNE01.JPG,AFNE01.JPG,AFNE01.JPG,AFNE01.JPG,AFNE01.JPG,,,,,,,,,4,9,49,6,,,,,,,,,,,,,,,AFNE18.jpg,AFNE06.jpg,AFSA02.jpg,AFSA04.jpg,AFSA02.jpg,FS,4,num_2,32,num_4,1.03346724209,,,2017_Oct_19_1453,60.0029445325,FEMA4ImagesEEG,001,102220,
AFNE01.JPG,AFNE01.JPG,AFNE01.JPG,AFNE01.JPG,AFNE01.JPG,AFNE01.JPG,,,,,,,,,5,0,50,4,,,,,,,,,,,,,,,AFSA04.jpg,AFSA11.jpg,AFNE01.jpg,AFNE13.jpg,AFNE01.jpg,FN,3,num_2,32,num_8,1.98336195934,,,2017_Oct_19_1453,60.0029445325,FEMA4ImagesEEG,001,102220,
AFNE01.JPG,AFNE01.JPG,AFNE01.JPG,AFNE01.JPG,AFNE01.JPG,AFNE01.JPG,,,,,,,,,5,1,51,6,,,,,,,,,,,,,,,AFNE15.jpg,AFSA16.jpg,AFSA12.jpg,AFNE17.jpg,AFSA16.jpg,FS,4,num_6,32,num_2,1.38348897218,,,2017_Oct_19_1453,60.0029445325,FEMA4ImagesEEG,001,102220,
AFNE01.JPG,AFNE01.JPG,AFNE01.JPG,AFNE01.JPG,AFNE01.JPG,AFNE01.JPG,,,,,,,,,5,2,52,7,,,,,,,,,,,,,,,AFSA14.jpg,AFSA05.jpg,AFNE18.jpg,AFNE16.jpg,AFSA14.jpg,FS,4,num_8,32,num_6,0.915942837804,,,2017_Oct_19_1453,60.0029445325,FEMA4ImagesEEG,001,102220,
AFNE01.JPG,AFNE01.JPG,AFNE01.JPG,AFNE01.JPG,AFNE01.JPG,AFNE01.JPG,,,,,,,,,5,3,53,0,,,,,,,,,,,,,,,AFNE09.jpg,AFNE07.jpg,AFSA05.jpg,AFSA18.jpg,AFNE07.jpg,FN,3,num_6,32,num_8,0.967070317332,,,2017_Oct_19_1453,60.0029445325,FEMA4ImagesEEG,001,102220,
AFNE01.JPG,AFNE01.JPG,AFNE01.JPG,AFNE01.JPG,AFNE01.JPG,AFNE01.JPG,,,,,,,,,5,4,54,2,,,,,,,,,,,,,,,AFNE15.jpg,AFSA12.jpg,AFNE08.jpg,AFSA18.jpg,AFNE08.jpg,FN,3,num_2,16,num_2,1.01678526012,,,2017_Oct_19_1453,60.0029445325,FEMA4ImagesEEG,001,102220,
AFNE01.JPG,AFNE01.JPG,AFNE01.JPG,AFNE01.JPG,AFNE01.JPG,AFNE01.JPG,,,,,,,,,5,5,55,9,,,,,,,,,,,,,,,AFNE07.jpg,AFNE18.jpg,AFSA06.jpg,AFSA05.jpg,AFNE07.jpg,FN,3,num_8,16,num_8,1.15009742463,,,2017_Oct_19_1453,60.0029445325,FEMA4ImagesEEG,001,102220,
AFNE01.JPG,AFNE01.JPG,AFNE01.JPG,AFNE01.JPG,AFNE01.JPG,AFNE01.JPG,,,,,,,,,5,6,56,5,,,,,,,,,,,,,,,AFSA14.jpg,AFNE14.jpg,AFSA17.jpg,AFNE09.jpg,AFSA14.jpg,FS,4,num_8,16,num_8,0.550127253373,,,2017_Oct_19_1453,60.0029445325,FEMA4ImagesEEG,001,102220,
AFNE01.JPG,AFNE01.JPG,AFNE01.JPG,AFNE01.JPG,AFNE01.JPG,AFNE01.JPG,,,,,,,,,5,7,57,3,,,,,,,,,,,,,,,AFSA01.jpg,AFNE18.jpg,AFSA20.jpg,AFNE16.jpg,AFNE18.jpg,FN,3,num_6,32,num_2,1.90002293285,,,2017_Oct_19_1453,60.0029445325,FEMA4ImagesEEG,001,102220,
AFNE01.JPG,AFNE01.JPG,AFNE01.JPG,AFNE01.JPG,AFNE01.JPG,AFNE01.JPG,,,,,,,,,5,8,58,8,,,,,,,,,,,,,,,AFSA16.jpg,AFNE07.jpg,AFNE11.jpg,AFSA06.jpg,AFSA16.jpg,FS,4,num_8,16,num_8,0.883488491061,,,2017_Oct_19_1453,60.0029445325,FEMA4ImagesEEG,001,102220,
AFNE01.JPG,AFNE01.JPG,AFNE01.JPG,AFNE01.JPG,AFNE01.JPG,AFNE01.JPG,,,,,,,,,5,9,59,1,,,,,,,,,,,,,,,AFSA20.jpg,AFNE12.jpg,AFNE15.jpg,AFSA06.jpg,AFSA06.jpg,FS,4,num_4,16,num_4,1.6334396585,,,2017_Oct_19_1453,60.0029445325,FEMA4ImagesEEG,001,102220,
,,,,,,,,,,,,,,,,,,,,,,,,,,,,,,,,,,,,,,,,,,,space,53.2459706299,2017_Oct_19_1453,60.0029445325,FEMA4ImagesEEG,001,102220,
AFNE01.JPG,AFNE01.JPG,AFNE01.JPG,AFNE01.JPG,AFNE01.JPG,AFNE01.JPG,,,,,,,,,,,,,0,0,0,6,,,,,,,,,,,AMSA14.jpg,AMNE17.jpg,AMNE18.jpg,AMSA05.jpg,AMSA14.jpg,MS,2,num_8,32,num_4,2.41662841849,,,2017_Oct_19_1453,60.0029445325,FEMA4ImagesEEG,001,102220,
AFNE01.JPG,AFNE01.JPG,AFNE01.JPG,AFNE01.JPG,AFNE01.JPG,AFNE01.JPG,,,,,,,,,,,,,0,1,1,9,,,,,,,,,,,AMSA17.jpg,AMNE04.jpg,AMNE19.jpg,AMSA09.jpg,AMSA09.jpg,MS,2,num_4,32,num_6,1.86667853405,,,2017_Oct_19_1453,60.0029445325,FEMA4ImagesEEG,001,102220,
AFNE01.JPG,AFNE01.JPG,AFNE01.JPG,AFNE01.JPG,AFNE01.JPG,AFNE01.JPG,,,,,,,,,,,,,0,2,2,7,,,,,,,,,,,AMSA11.jpg,AMNE16.jpg,AMNE10.jpg,AMSA18.jpg,AMNE16.jpg,MN,1,num_6,32,num_2,1.16667003444,,,2017_Oct_19_1453,60.0029445325,FEMA4ImagesEEG,001,102220,
AFNE01.JPG,AFNE01.JPG,AFNE01.JPG,AFNE01.JPG,AFNE01.JPG,AFNE01.JPG,,,,,,,,,,,,,0,3,3,1,,,,,,,,,,,AMNE07.jpg,AMSA17.jpg,AMSA10.jpg,AMNE14.jpg,AMNE14.jpg,MN,1,num_4,32,num_8,1.66671990941,,,2017_Oct_19_1453,60.0029445325,FEMA4ImagesEEG,001,102220,
AFNE01.JPG,AFNE01.JPG,AFNE01.JPG,AFNE01.JPG,AFNE01.JPG,AFNE01.JPG,,,,,,,,,,,,,0,4,4,8,,,,,,,,,,,AMNE16.jpg,AMNE19.jpg,AMSA05.jpg,AMSA09.jpg,AMNE16.jpg,MN,1,num_8,32,num_6,2.13335899249,,,2017_Oct_19_1453,60.0029445325,FEMA4ImagesEEG,001,102220,
AFNE01.JPG,AFNE01.JPG,AFNE01.JPG,AFNE01.JPG,AFNE01.JPG,AFNE01.JPG,,,,,,,,,,,,,0,5,5,4,,,,,,,,,,,AMSA15.jpg,AMSA17.jpg,AMNE20.jpg,AMNE19.jpg,AMSA15.jpg,MS,2,num_8,32,num_6,1.01681893773,,,2017_Oct_19_1453,60.0029445325,FEMA4ImagesEEG,001,102220,
AFNE01.JPG,AFNE01.JPG,AFNE01.JPG,AFNE01.JPG,AFNE01.JPG,AFNE01.JPG,,,,,,,,,,,,,0,6,6,5,,,,,,,,,,,AMSA17.jpg,AMNE07.jpg,AMNE05.jpg,AMSA11.jpg,AMNE07.jpg,MN,1,num_6,32,num_2,0.866755190771,,,2017_Oct_19_1453,60.0029445325,FEMA4ImagesEEG,001,102220,
AFNE01.JPG,AFNE01.JPG,AFNE01.JPG,AFNE01.JPG,AFNE01.JPG,AFNE01.JPG,,,,,,,,,,,,,0,7,7,0,,,,,,,,,,,AMSA15.jpg,AMSA20.jpg,AMNE04.jpg,AMNE01.jpg,AMSA15.jpg,MS,2,num_8,16,num_8,0.766814687959,,,2017_Oct_19_1453,60.0029445325,FEMA4ImagesEEG,001,102220,
AFNE01.JPG,AFNE01.JPG,AFNE01.JPG,AFNE01.JPG,AFNE01.JPG,AFNE01.JPG,,,,,,,,,,,,,0,8,8,3,,,,,,,,,,,AMNE15.jpg,AMNE04.jpg,AMSA19.jpg,AMSA04.jpg,AMSA04.jpg,MS,2,num_4,32,num_8,0.816764412011,,,2017_Oct_19_1453,60.0029445325,FEMA4ImagesEEG,001,102220,
AFNE01.JPG,AFNE01.JPG,AFNE01.JPG,AFNE01.JPG,AFNE01.JPG,AFNE01.JPG,,,,,,,,,,,,,0,9,9,2,,,,,,,,,,,AMSA04.jpg,AMNE06.jpg,AMSA09.jpg,AMNE10.jpg,AMNE06.jpg,MN,1,num_6,32,num_2,1.05017360023,,,2017_Oct_19_1453,60.0029445325,FEMA4ImagesEEG,001,102220,
