IPosition2,IPosition3,IPosition1,IPosition6,IPosition4,IPosition5,TrialsF1.thisRepN,TrialsF1.thisTrialN,TrialsF1.thisN,TrialsF1.thisIndex,TrialsM1.thisRepN,TrialsM1.thisTrialN,TrialsM1.thisN,TrialsM1.thisIndex,TrialsF2.thisRepN,TrialsF2.thisTrialN,TrialsF2.thisN,TrialsF2.thisIndex,TrialsM2.thisRepN,TrialsM2.thisTrialN,TrialsM2.thisN,TrialsM2.thisIndex,TrialsF3.thisRepN,TrialsF3.thisTrialN,TrialsF3.thisN,TrialsF3.thisIndex,TrialsM3.thisRepN,TrialsM3.thisTrialN,TrialsM3.thisN,TrialsM3.thisIndex,InstrKey_resp.keys,InstrKey_resp.rt,Image0 _Position,Image1 _Position,Image2 _Position,Image3 _Position,Center_image,condition,code,correct_answer,accuracy,Key_Resp.keys,Key_Resp.rt,BreakKey_resp.keys,BreakKey_resp.rt,date,frameRate,expName,session,participant,
,,,,,,,,,,,,,,,,,,,,,,,,,,,,,,space,20.7155932316,,,,,,,,,,,,,,2017_Oct_31_1214,60.0029445953,FEMA4ImagesEEG,001,102275,
AFSA21.JPG,AFNE22.JPG,AFNE21.JPG,AFSA23.JPG,AFSA22.JPG,AFNE23.JPG,0,0,0,0,,,,,,,,,,,,,,,,,,,,,,,AFNE09.jpg,AFSA13.jpg,AFSA18.jpg,AFNE12.jpg,AFSA13.jpg,FS,4,num_6,32,num_8,1.10012941831,,,2017_Oct_31_1214,60.0029445953,FEMA4ImagesEEG,001,102275,
AFNE22.JPG,AFSA24.JPG,AFSA22.JPG,AFNE25.JPG,AFNE24.JPG,AFSA25.JPG,0,1,1,6,,,,,,,,,,,,,,,,,,,,,,,AFSA20.jpg,AFSA07.jpg,AFNE15.jpg,AFNE18.jpg,AFNE18.jpg,FN,3,num_4,32,num_6,1.40005260124,,,2017_Oct_31_1214,60.0029445953,FEMA4ImagesEEG,001,102275,
AMSA21.JPG,AMNE23.JPG,AMNE21.JPG,AMSA25.JPG,AMNE25.JPG,AMSA23.JPG,0,2,2,5,,,,,,,,,,,,,,,,,,,,,,,AFSA13.jpg,AFSA14.jpg,AFNE12.jpg,AFNE03.jpg,AFSA13.jpg,FS,4,num_8,16,num_8,3.58308387827,,,2017_Oct_31_1214,60.0029445953,FEMA4ImagesEEG,001,102275,
AMNE23.JPG,AMNE24.JPG,AMNE22.JPG,AMSA24.JPG,AMSA22.JPG,AMSA23.JPG,0,3,3,9,,,,,,,,,,,,,,,,,,,,,,,AFSA11.jpg,AFNE19.jpg,AFSA08.jpg,AFNE06.jpg,AFSA11.jpg,FS,4,num_8,32,num_2,0.966769463615,,,2017_Oct_31_1214,60.0029445953,FEMA4ImagesEEG,001,102275,
AFNE23.JPG,AFNE24.JPG,AFNE22.JPG,AFSA24.JPG,AFSA22.JPG,AFSA23.JPG,0,4,4,8,,,,,,,,,,,,,,,,,,,,,,,AFSA04.jpg,AFNE08.jpg,AFNE07.jpg,AFSA16.jpg,AFSA04.jpg,FS,4,num_8,16,num_8,1.21647799178,,,2017_Oct_31_1214,60.0029445953,FEMA4ImagesEEG,001,102275,
AFSA21.JPG,AFNE23.JPG,AFNE21.JPG,AFSA25.JPG,AFNE25.JPG,AFSA23.JPG,0,5,5,4,,,,,,,,,,,,,,,,,,,,,,,AFNE19.jpg,AFSA19.jpg,AFNE09.jpg,AFSA06.jpg,AFNE09.jpg,FN,3,num_2,32,num_4,1.4334043772,,,2017_Oct_31_1214,60.0029445953,FEMA4ImagesEEG,001,102275,
AMNE22.JPG,AMSA24.JPG,AMSA22.JPG,AMNE25.JPG,AMNE24.JPG,AMSA25.JPG,0,6,6,7,,,,,,,,,,,,,,,,,,,,,,,AFSA09.jpg,AFNE17.jpg,AFSA06.jpg,AFNE12.jpg,AFNE17.jpg,FN,3,num_6,16,num_6,1.11675879895,,,2017_Oct_31_1214,60.0029445953,FEMA4ImagesEEG,001,102275,
AMSA21.JPG,AMNE22.JPG,AMNE21.JPG,AMSA23.JPG,AMSA22.JPG,AMNE23.JPG,0,7,7,1,,,,,,,,,,,,,,,,,,,,,,,AFSA03.jpg,AFNE20.jpg,AFSA01.jpg,AFNE19.jpg,AFSA01.jpg,FS,4,num_2,16,num_2,1.61695717648,,,2017_Oct_31_1214,60.0029445953,FEMA4ImagesEEG,001,102275,
AFSA25.JPG,AFNE24.JPG,AFSA24.JPG,AFNE21.JPG,AFSA21.JPG,AFNE25.JPG,0,8,8,2,,,,,,,,,,,,,,,,,,,,,,,AFNE15.jpg,AFSA06.jpg,AFSA17.jpg,AFNE20.jpg,AFSA17.jpg,FS,4,num_2,16,num_2,2.16666843067,,,2017_Oct_31_1214,60.0029445953,FEMA4ImagesEEG,001,102275,
AMSA25.JPG,AMNE24.JPG,AMSA24.JPG,AMNE26.JPG,AMSA21.JPG,AMNE25.JPG,0,9,9,3,,,,,,,,,,,,,,,,,,,,,,,AFSA17.jpg,AFNE16.jpg,AFNE12.jpg,AFSA12.jpg,AFNE12.jpg,FN,3,num_2,16,num_2,1.35005637002,,,2017_Oct_31_1214,60.0029445953,FEMA4ImagesEEG,001,102275,
AMNE22.JPG,AMSA24.JPG,AMSA22.JPG,AMNE25.JPG,AMNE24.JPG,AMSA25.JPG,,,,,0,0,0,7,,,,,,,,,,,,,,,,,,,AMNE02.jpg,AMSA01.jpg,AMNE04.jpg,AMSA20.jpg,AMSA20.jpg,MS,2,num_4,16,num_4,0.983447917504,,,2017_Oct_31_1214,60.0029445953,FEMA4ImagesEEG,001,102275,
AFSA21.JPG,AFNE23.JPG,AFNE21.JPG,AFSA25.JPG,AFNE25.JPG,AFSA23.JPG,,,,,0,1,1,4,,,,,,,,,,,,,,,,,,,AMNE01.jpg,AMSA01.jpg,AMSA02.jpg,AMNE20.jpg,AMNE20.jpg,MN,1,num_4,32,num_8,2.63335145498,,,2017_Oct_31_1214,60.0029445953,FEMA4ImagesEEG,001,102275,
AFSA25.JPG,AFNE24.JPG,AFSA24.JPG,AFNE21.JPG,AFSA21.JPG,AFNE25.JPG,,,,,0,2,2,2,,,,,,,,,,,,,,,,,,,AMSA11.jpg,AMNE02.jpg,AMNE09.jpg,AMSA07.jpg,AMSA07.jpg,MS,2,num_4,32,num_6,2.0833361398,,,2017_Oct_31_1214,60.0029445953,FEMA4ImagesEEG,001,102275,
AMSA21.JPG,AMNE22.JPG,AMNE21.JPG,AMSA23.JPG,AMSA22.JPG,AMNE23.JPG,,,,,0,3,3,1,,,,,,,,,,,,,,,,,,,AMNE02.jpg,AMNE10.jpg,AMSA09.jpg,AMSA14.jpg,AMSA14.jpg,MS,2,num_4,16,num_4,1.98346299236,,,2017_Oct_31_1214,60.0029445953,FEMA4ImagesEEG,001,102275,
AMNE23.JPG,AMNE24.JPG,AMNE22.JPG,AMSA24.JPG,AMSA22.JPG,AMSA23.JPG,,,,,0,4,4,9,,,,,,,,,,,,,,,,,,,AMSA15.jpg,AMNE19.jpg,AMNE06.jpg,AMSA11.jpg,AMSA15.jpg,MS,2,num_8,32,num_4,1.85004690825,,,2017_Oct_31_1214,60.0029445953,FEMA4ImagesEEG,001,102275,
AMSA21.JPG,AMNE23.JPG,AMNE21.JPG,AMSA25.JPG,AMNE25.JPG,AMSA23.JPG,,,,,0,5,5,5,,,,,,,,,,,,,,,,,,,AMNE08.jpg,AMNE10.jpg,AMSA04.jpg,AMSA18.jpg,AMSA18.jpg,MS,2,num_4,16,num_4,0.733508777805,,,2017_Oct_31_1214,60.0029445953,FEMA4ImagesEEG,001,102275,
AFSA21.JPG,AFNE22.JPG,AFNE21.JPG,AFSA23.JPG,AFSA22.JPG,AFNE23.JPG,,,,,0,6,6,0,,,,,,,,,,,,,,,,,,,AMSA09.jpg,AMNE01.jpg,AMNE18.jpg,AMSA13.jpg,AMNE01.jpg,MN,1,num_6,32,num_8,2.06698516104,,,2017_Oct_31_1214,60.0029445953,FEMA4ImagesEEG,001,102275,
AFNE22.JPG,AFSA24.JPG,AFSA22.JPG,AFNE25.JPG,AFNE24.JPG,AFSA25.JPG,,,,,0,7,7,6,,,,,,,,,,,,,,,,,,,AMNE02.jpg,AMSA19.jpg,AMNE03.jpg,AMSA11.jpg,AMSA11.jpg,MS,2,num_4,32,num_6,2.53330767411,,,2017_Oct_31_1214,60.0029445953,FEMA4ImagesEEG,001,102275,
AFNE23.JPG,AFNE24.JPG,AFNE22.JPG,AFSA24.JPG,AFSA22.JPG,AFSA23.JPG,,,,,0,8,8,8,,,,,,,,,,,,,,,,,,,AMSA02.jpg,AMSA05.jpg,AMNE09.jpg,AMNE11.jpg,AMSA05.jpg,MS,2,num_6,16,num_6,0.733453931287,,,2017_Oct_31_1214,60.0029445953,FEMA4ImagesEEG,001,102275,
AMSA25.JPG,AMNE24.JPG,AMSA24.JPG,AMNE26.JPG,AMSA21.JPG,AMNE25.JPG,,,,,0,9,9,3,,,,,,,,,,,,,,,,,,,AMSA03.jpg,AMSA12.jpg,AMNE03.jpg,AMNE10.jpg,AMSA12.jpg,MS,2,num_6,16,num_6,1.11674981844,,,2017_Oct_31_1214,60.0029445953,FEMA4ImagesEEG,001,102275,
AMNE22.JPG,AMSA24.JPG,AMSA22.JPG,AMNE25.JPG,AMNE24.JPG,AMSA25.JPG,,,,,,,,,0,0,0,7,,,,,,,,,,,,,,,AFSA08.jpg,AFNE13.jpg,AFNE19.jpg,AFSA01.jpg,AFSA01.jpg,FS,4,num_4,32,num_8,1.53336829389,,,2017_Oct_31_1214,60.0029445953,FEMA4ImagesEEG,001,102275,
AFSA25.JPG,AFNE24.JPG,AFSA24.JPG,AFNE21.JPG,AFSA21.JPG,AFNE25.JPG,,,,,,,,,0,1,1,2,,,,,,,,,,,,,,,AFSA17.jpg,AFNE15.jpg,AFNE16.jpg,AFSA12.jpg,AFSA17.jpg,FS,4,num_8,16,num_8,0.716633069329,,,2017_Oct_31_1214,60.0029445953,FEMA4ImagesEEG,001,102275,
AMSA25.JPG,AMNE24.JPG,AMSA24.JPG,AMNE26.JPG,AMSA21.JPG,AMNE25.JPG,,,,,,,,,0,2,2,3,,,,,,,,,,,,,,,AFNE01.jpg,AFSA06.jpg,AFSA19.jpg,AFNE05.jpg,AFNE01.jpg,FN,3,num_8,32,num_4,0.766818857519,,,2017_Oct_31_1214,60.0029445953,FEMA4ImagesEEG,001,102275,
AMNE23.JPG,AMNE24.JPG,AMNE22.JPG,AMSA24.JPG,AMSA22.JPG,AMSA23.JPG,,,,,,,,,0,3,3,9,,,,,,,,,,,,,,,AFNE03.jpg,AFNE07.jpg,AFSA01.jpg,AFSA13.jpg,AFSA13.jpg,FS,4,num_4,16,num_4,0.850152752129,,,2017_Oct_31_1214,60.0029445953,FEMA4ImagesEEG,001,102275,
AFSA21.JPG,AFNE23.JPG,AFNE21.JPG,AFSA25.JPG,AFNE25.JPG,AFSA23.JPG,,,,,,,,,0,4,4,4,,,,,,,,,,,,,,,AFSA15.jpg,AFSA06.jpg,AFNE11.jpg,AFNE06.jpg,AFNE06.jpg,FN,3,num_4,32,num_8,2.54970612237,,,2017_Oct_31_1214,60.0029445953,FEMA4ImagesEEG,001,102275,
AFNE22.JPG,AFSA24.JPG,AFSA22.JPG,AFNE25.JPG,AFNE24.JPG,AFSA25.JPG,,,,,,,,,0,5,5,6,,,,,,,,,,,,,,,AFSA18.jpg,AFSA05.jpg,AFNE05.jpg,AFNE20.jpg,AFSA05.jpg,FS,4,num_6,32,num_2,1.26677571819,,,2017_Oct_31_1214,60.0029445953,FEMA4ImagesEEG,001,102275,
AMSA21.JPG,AMNE22.JPG,AMNE21.JPG,AMSA23.JPG,AMSA22.JPG,AMNE23.JPG,,,,,,,,,0,6,6,1,,,,,,,,,,,,,,,AFSA06.jpg,AFNE11.jpg,AFNE18.jpg,AFSA08.jpg,AFNE11.jpg,FN,3,num_6,16,num_6,0.783506291918,,,2017_Oct_31_1214,60.0029445953,FEMA4ImagesEEG,001,102275,
AMSA21.JPG,AMNE23.JPG,AMNE21.JPG,AMSA25.JPG,AMNE25.JPG,AMSA23.JPG,,,,,,,,,0,7,7,5,,,,,,,,,,,,,,,AFNE08.jpg,AFSA20.jpg,AFNE05.jpg,AFSA09.jpg,AFNE08.jpg,FN,3,num_8,16,num_8,1.45032659289,,,2017_Oct_31_1214,60.0029445953,FEMA4ImagesEEG,001,102275,
AFNE23.JPG,AFNE24.JPG,AFNE22.JPG,AFSA24.JPG,AFSA22.JPG,AFSA23.JPG,,,,,,,,,0,8,8,8,,,,,,,,,,,,,,,AFNE16.jpg,AFSA02.jpg,AFSA13.jpg,AFNE03.jpg,AFSA13.jpg,FS,4,num_2,16,num_2,1.56670339149,,,2017_Oct_31_1214,60.0029445953,FEMA4ImagesEEG,001,102275,
AFSA21.JPG,AFNE22.JPG,AFNE21.JPG,AFSA23.JPG,AFSA22.JPG,AFNE23.JPG,,,,,,,,,0,9,9,0,,,,,,,,,,,,,,,AFNE19.jpg,AFSA02.jpg,AFNE17.jpg,AFSA06.jpg,AFSA06.jpg,FS,4,num_4,16,num_4,0.733441422693,,,2017_Oct_31_1214,60.0029445953,FEMA4ImagesEEG,001,102275,
AMSA21.JPG,AMNE22.JPG,AMNE21.JPG,AMSA23.JPG,AMSA22.JPG,AMNE23.JPG,,,,,,,,,,,,,0,0,0,1,,,,,,,,,,,AMSA09.jpg,AMNE17.jpg,AMSA11.jpg,AMNE05.jpg,AMNE17.jpg,MN,1,num_6,16,num_6,0.5501541954,,,2017_Oct_31_1214,60.0029445953,FEMA4ImagesEEG,001,102275,
AFNE23.JPG,AFNE24.JPG,AFNE22.JPG,AFSA24.JPG,AFSA22.JPG,AFSA23.JPG,,,,,,,,,,,,,0,1,1,8,,,,,,,,,,,AMSA17.jpg,AMNE03.jpg,AMNE05.jpg,AMSA04.jpg,AMSA04.jpg,MS,2,num_4,16,num_4,1.41669320781,,,2017_Oct_31_1214,60.0029445953,FEMA4ImagesEEG,001,102275,
AMSA25.JPG,AMNE24.JPG,AMSA24.JPG,AMNE26.JPG,AMSA21.JPG,AMNE25.JPG,,,,,,,,,,,,,0,2,2,3,,,,,,,,,,,AMSA02.jpg,AMNE19.jpg,AMNE06.jpg,AMSA05.jpg,AMSA05.jpg,MS,2,num_4,32,num_2,1.93336380343,,,2017_Oct_31_1214,60.0029445953,FEMA4ImagesEEG,001,102275,
AMNE22.JPG,AMSA24.JPG,AMSA22.JPG,AMNE25.JPG,AMNE24.JPG,AMSA25.JPG,,,,,,,,,,,,,0,3,3,7,,,,,,,,,,,AMNE08.jpg,AMSA02.jpg,AMNE11.jpg,AMSA01.jpg,AMNE11.jpg,MN,1,num_2,32,num_6,1.71666706749,,,2017_Oct_31_1214,60.0029445953,FEMA4ImagesEEG,001,102275,
AFSA21.JPG,AFNE22.JPG,AFNE21.JPG,AFSA23.JPG,AFSA22.JPG,AFNE23.JPG,,,,,,,,,,,,,0,4,4,0,,,,,,,,,,,AMNE20.jpg,AMNE17.jpg,AMSA02.jpg,AMSA15.jpg,AMSA15.jpg,MS,2,num_4,16,num_4,1.16675406834,,,2017_Oct_31_1214,60.0029445953,FEMA4ImagesEEG,001,102275,
AMSA21.JPG,AMNE23.JPG,AMNE21.JPG,AMSA25.JPG,AMNE25.JPG,AMSA23.JPG,,,,,,,,,,,,,0,5,5,5,,,,,,,,,,,AMNE16.jpg,AMNE04.jpg,AMSA15.jpg,AMSA05.jpg,AMSA05.jpg,MS,2,num_4,16,num_4,0.916864001658,,,2017_Oct_31_1214,60.0029445953,FEMA4ImagesEEG,001,102275,
AFSA21.JPG,AFNE23.JPG,AFNE21.JPG,AFSA25.JPG,AFNE25.JPG,AFSA23.JPG,,,,,,,,,,,,,0,6,6,4,,,,,,,,,,,AMSA17.jpg,AMNE02.jpg,AMNE19.jpg,AMSA10.jpg,AMNE02.jpg,MN,1,num_6,16,num_6,1.10007970384,,,2017_Oct_31_1214,60.0029445953,FEMA4ImagesEEG,001,102275,
AFNE22.JPG,AFSA24.JPG,AFSA22.JPG,AFNE25.JPG,AFNE24.JPG,AFSA25.JPG,,,,,,,,,,,,,0,7,7,6,,,,,,,,,,,AMSA12.jpg,AMNE09.jpg,AMNE16.jpg,AMSA15.jpg,AMNE09.jpg,MN,1,num_6,32,num_8,1.44985799259,,,2017_Oct_31_1214,60.0029445953,FEMA4ImagesEEG,001,102275,
AMNE23.JPG,AMNE24.JPG,AMNE22.JPG,AMSA24.JPG,AMSA22.JPG,AMSA23.JPG,,,,,,,,,,,,,0,8,8,9,,,,,,,,,,,AMSA16.jpg,AMSA18.jpg,AMNE01.jpg,AMNE18.jpg,AMNE18.jpg,MN,1,num_4,32,num_6,0.716746611055,,,2017_Oct_31_1214,60.0029445953,FEMA4ImagesEEG,001,102275,
AFSA25.JPG,AFNE24.JPG,AFSA24.JPG,AFNE21.JPG,AFSA21.JPG,AFNE25.JPG,,,,,,,,,,,,,0,9,9,2,,,,,,,,,,,AMNE01.jpg,AMSA15.jpg,AMNE17.jpg,AMSA14.jpg,AMNE17.jpg,MN,1,num_2,32,num_4,1.96665752563,,,2017_Oct_31_1214,60.0029445953,FEMA4ImagesEEG,001,102275,
AFNE23.JPG,AFNE24.JPG,AFNE22.JPG,AFSA24.JPG,AFSA22.JPG,AFSA23.JPG,,,,,,,,,,,,,,,,,0,0,0,8,,,,,,,AFNE18.jpg,AFSA12.jpg,AFSA17.jpg,AFNE17.jpg,AFSA17.jpg,FS,4,num_2,32,num_6,0.983437974472,,,2017_Oct_31_1214,60.0029445953,FEMA4ImagesEEG,001,102275,
AMNE22.JPG,AMSA24.JPG,AMSA22.JPG,AMNE25.JPG,AMNE24.JPG,AMSA25.JPG,,,,,,,,,,,,,,,,,0,1,1,7,,,,,,,AFNE17.jpg,AFSA05.jpg,AFSA14.jpg,AFNE03.jpg,AFNE17.jpg,FN,3,num_8,16,num_8,1.26669906126,,,2017_Oct_31_1214,60.0029445953,FEMA4ImagesEEG,001,102275,
AMSA21.JPG,AMNE23.JPG,AMNE21.JPG,AMSA25.JPG,AMNE25.JPG,AMSA23.JPG,,,,,,,,,,,,,,,,,0,2,2,5,,,,,,,AFSA18.jpg,AFNE18.jpg,AFSA13.jpg,AFNE20.jpg,AFNE20.jpg,FN,3,num_4,32,num_8,1.61666722782,,,2017_Oct_31_1214,60.0029445953,FEMA4ImagesEEG,001,102275,
AFSA21.JPG,AFNE22.JPG,AFNE21.JPG,AFSA23.JPG,AFSA22.JPG,AFNE23.JPG,,,,,,,,,,,,,,,,,0,3,3,0,,,,,,,AFSA01.jpg,AFSA16.jpg,AFNE09.jpg,AFNE16.jpg,AFNE16.jpg,FN,3,num_4,32,num_2,0.850112018175,,,2017_Oct_31_1214,60.0029445953,FEMA4ImagesEEG,001,102275,
AFSA21.JPG,AFNE23.JPG,AFNE21.JPG,AFSA25.JPG,AFNE25.JPG,AFSA23.JPG,,,,,,,,,,,,,,,,,0,4,4,4,,,,,,,AFNE12.jpg,AFSA12.jpg,AFNE08.jpg,AFSA07.jpg,AFNE12.jpg,FN,3,num_8,16,num_8,2.16670788173,,,2017_Oct_31_1214,60.0029445953,FEMA4ImagesEEG,001,102275,
AMNE23.JPG,AMNE24.JPG,AMNE22.JPG,AMSA24.JPG,AMSA22.JPG,AMSA23.JPG,,,,,,,,,,,,,,,,,0,5,5,9,,,,,,,AFNE04.jpg,AFSA15.jpg,AFSA16.jpg,AFNE18.jpg,AFSA16.jpg,FS,4,num_2,32,num_6,0.566800896311,,,2017_Oct_31_1214,60.0029445953,FEMA4ImagesEEG,001,102275,
AFSA25.JPG,AFNE24.JPG,AFSA24.JPG,AFNE21.JPG,AFSA21.JPG,AFNE25.JPG,,,,,,,,,,,,,,,,,0,6,6,2,,,,,,,AFSA20.jpg,AFNE08.jpg,AFSA14.jpg,AFNE11.jpg,AFSA14.jpg,FS,4,num_2,32,num_8,1.8333873779,,,2017_Oct_31_1214,60.0029445953,FEMA4ImagesEEG,001,102275,
AMSA25.JPG,AMNE24.JPG,AMSA24.JPG,AMNE26.JPG,AMSA21.JPG,AMNE25.JPG,,,,,,,,,,,,,,,,,0,7,7,3,,,,,,,AFNE10.jpg,AFSA09.jpg,AFNE07.jpg,AFSA12.jpg,AFSA12.jpg,FS,4,num_4,16,num_4,0.716762006516,,,2017_Oct_31_1214,60.0029445953,FEMA4ImagesEEG,001,102275,
AMSA21.JPG,AMNE22.JPG,AMNE21.JPG,AMSA23.JPG,AMSA22.JPG,AMNE23.JPG,,,,,,,,,,,,,,,,,0,8,8,1,,,,,,,AFSA13.jpg,AFNE19.jpg,AFNE11.jpg,AFSA09.jpg,AFNE19.jpg,FN,3,num_6,32,num_8,1.45008315169,,,2017_Oct_31_1214,60.0029445953,FEMA4ImagesEEG,001,102275,
AFNE22.JPG,AFSA24.JPG,AFSA22.JPG,AFNE25.JPG,AFNE24.JPG,AFSA25.JPG,,,,,,,,,,,,,,,,,0,9,9,6,,,,,,,AFSA16.jpg,AFNE05.jpg,AFSA08.jpg,AFNE17.jpg,AFSA16.jpg,FS,4,num_8,32,num_2,0.433548710076,,,2017_Oct_31_1214,60.0029445953,FEMA4ImagesEEG,001,102275,
AFNE22.JPG,AFSA24.JPG,AFSA22.JPG,AFNE25.JPG,AFNE24.JPG,AFSA25.JPG,,,,,,,,,,,,,,,,,,,,,0,0,0,6,,,AMSA11.jpg,AMNE07.jpg,AMSA17.jpg,AMNE18.jpg,AMSA11.jpg,MS,2,num_8,32,num_2,2.28330053762,,,2017_Oct_31_1214,60.0029445953,FEMA4ImagesEEG,001,102275,
AMNE23.JPG,AMNE24.JPG,AMNE22.JPG,AMSA24.JPG,AMSA22.JPG,AMSA23.JPG,,,,,,,,,,,,,,,,,,,,,0,1,1,9,,,AMNE03.jpg,AMNE19.jpg,AMSA19.jpg,AMSA06.jpg,AMNE19.jpg,MN,1,num_6,16,num_6,1.93338240637,,,2017_Oct_31_1214,60.0029445953,FEMA4ImagesEEG,001,102275,
AMNE22.JPG,AMSA24.JPG,AMSA22.JPG,AMNE25.JPG,AMNE24.JPG,AMSA25.JPG,,,,,,,,,,,,,,,,,,,,,0,2,2,7,,,AMNE07.jpg,AMSA12.jpg,AMSA06.jpg,AMNE17.jpg,AMNE07.jpg,MN,1,num_8,16,num_8,0.9334436676,,,2017_Oct_31_1214,60.0029445953,FEMA4ImagesEEG,001,102275,
AMSA25.JPG,AMNE24.JPG,AMSA24.JPG,AMNE26.JPG,AMSA21.JPG,AMNE25.JPG,,,,,,,,,,,,,,,,,,,,,0,3,3,3,,,AMSA15.jpg,AMNE16.jpg,AMSA01.jpg,AMNE13.jpg,AMNE13.jpg,MN,1,num_4,32,num_8,1.20005837455,,,2017_Oct_31_1214,60.0029445953,FEMA4ImagesEEG,001,102275,
AMSA21.JPG,AMNE22.JPG,AMNE21.JPG,AMSA23.JPG,AMSA22.JPG,AMNE23.JPG,,,,,,,,,,,,,,,,,,,,,0,4,4,1,,,AMSA18.jpg,AMNE05.jpg,AMNE02.jpg,AMSA04.jpg,AMNE02.jpg,MN,1,num_2,32,num_6,1.300069761,,,2017_Oct_31_1214,60.0029445953,FEMA4ImagesEEG,001,102275,
AFSA21.JPG,AFNE22.JPG,AFNE21.JPG,AFSA23.JPG,AFSA22.JPG,AFNE23.JPG,,,,,,,,,,,,,,,,,,,,,0,5,5,0,,,AMSA14.jpg,AMSA03.jpg,AMNE18.jpg,AMNE01.jpg,AMSA03.jpg,MS,2,num_6,32,num_8,1.16642755549,,,2017_Oct_31_1214,60.0029445953,FEMA4ImagesEEG,001,102275,
AMSA21.JPG,AMNE23.JPG,AMNE21.JPG,AMSA25.JPG,AMNE25.JPG,AMSA23.JPG,,,,,,,,,,,,,,,,,,,,,0,6,6,5,,,AMNE15.jpg,AMSA15.jpg,AMNE02.jpg,AMSA12.jpg,AMSA12.jpg,MS,2,num_4,32,num_2,3.86639115144,,,2017_Oct_31_1214,60.0029445953,FEMA4ImagesEEG,001,102275,
AFSA25.JPG,AFNE24.JPG,AFSA24.JPG,AFNE21.JPG,AFSA21.JPG,AFNE25.JPG,,,,,,,,,,,,,,,,,,,,,0,7,7,2,,,AMNE09.jpg,AMSA03.jpg,AMNE03.jpg,AMSA11.jpg,AMNE09.jpg,MN,1,num_8,16,num_8,0.266850129701,,,2017_Oct_31_1214,60.0029445953,FEMA4ImagesEEG,001,102275,
AFSA21.JPG,AFNE23.JPG,AFNE21.JPG,AFSA25.JPG,AFNE25.JPG,AFSA23.JPG,,,,,,,,,,,,,,,,,,,,,0,8,8,4,,,AMNE18.jpg,AMNE15.jpg,AMSA14.jpg,AMSA07.jpg,AMNE18.jpg,MN,1,num_8,32,num_4,1.68338393001,,,2017_Oct_31_1214,60.0029445953,FEMA4ImagesEEG,001,102275,
AFNE23.JPG,AFNE24.JPG,AFNE22.JPG,AFSA24.JPG,AFSA22.JPG,AFSA23.JPG,,,,,,,,,,,,,,,,,,,,,0,9,9,8,,,AMSA07.jpg,AMSA03.jpg,AMNE15.jpg,AMNE20.jpg,AMNE15.jpg,MN,1,num_2,32,num_4,0.883473095717,,,2017_Oct_31_1214,60.0029445953,FEMA4ImagesEEG,001,102275,
,,,,,,,,,,,,,,,,,,,,,,,,,,,,,,,,,,,,,,,,,,,space,6.98295686534,2017_Oct_31_1214,60.0029445953,FEMA4ImagesEEG,001,102275,
AFNE01.JPG,AFNE01.JPG,AFNE01.JPG,AFNE01.JPG,AFNE01.JPG,AFNE01.JPG,0,0,0,3,,,,,,,,,,,,,,,,,,,,,,,AFSA04.jpg,AFNE20.jpg,AFNE14.jpg,AFSA08.jpg,AFNE14.jpg,FN,3,num_2,32,num_8,1.03382614953,,,2017_Oct_31_1214,60.0029445953,FEMA4ImagesEEG,001,102275,
AFNE01.JPG,AFNE01.JPG,AFNE01.JPG,AFNE01.JPG,AFNE01.JPG,AFNE01.JPG,0,1,1,9,,,,,,,,,,,,,,,,,,,,,,,AFNE12.jpg,AFSA13.jpg,AFSA03.jpg,AFNE15.jpg,AFNE12.jpg,FN,3,num_8,32,num_2,1.03359746234,,,2017_Oct_31_1214,60.0029445953,FEMA4ImagesEEG,001,102275,
AFNE01.JPG,AFNE01.JPG,AFNE01.JPG,AFNE01.JPG,AFNE01.JPG,AFNE01.JPG,0,2,2,8,,,,,,,,,,,,,,,,,,,,,,,AFSA05.jpg,AFNE17.jpg,AFSA04.jpg,AFNE18.jpg,AFNE17.jpg,FN,3,num_6,16,num_6,1.11672608368,,,2017_Oct_31_1214,60.0029445953,FEMA4ImagesEEG,001,102275,
AFNE01.JPG,AFNE01.JPG,AFNE01.JPG,AFNE01.JPG,AFNE01.JPG,AFNE01.JPG,0,3,3,1,,,,,,,,,,,,,,,,,,,,,,,AFNE18.jpg,AFSA04.jpg,AFSA20.jpg,AFNE02.jpg,AFNE18.jpg,FN,3,num_8,16,num_8,0.533506853273,,,2017_Oct_31_1214,60.0029445953,FEMA4ImagesEEG,001,102275,
AFNE01.JPG,AFNE01.JPG,AFNE01.JPG,AFNE01.JPG,AFNE01.JPG,AFNE01.JPG,0,4,4,0,,,,,,,,,,,,,,,,,,,,,,,AFSA20.jpg,AFNE04.jpg,AFNE08.jpg,AFSA12.jpg,AFSA20.jpg,FS,4,num_8,32,num_6,1.04979127878,,,2017_Oct_31_1214,60.0029445953,FEMA4ImagesEEG,001,102275,
AFNE01.JPG,AFNE01.JPG,AFNE01.JPG,AFNE01.JPG,AFNE01.JPG,AFNE01.JPG,0,5,5,7,,,,,,,,,,,,,,,,,,,,,,,AFNE07.jpg,AFSA02.jpg,AFSA06.jpg,AFNE01.jpg,AFNE01.jpg,FN,3,num_4,32,num_8,1.20013246546,,,2017_Oct_31_1214,60.0029445953,FEMA4ImagesEEG,001,102275,
AFNE01.JPG,AFNE01.JPG,AFNE01.JPG,AFNE01.JPG,AFNE01.JPG,AFNE01.JPG,0,6,6,4,,,,,,,,,,,,,,,,,,,,,,,AFSA17.jpg,AFSA15.jpg,AFNE07.jpg,AFNE15.jpg,AFNE07.jpg,FN,3,num_2,16,num_2,1.05013703601,,,2017_Oct_31_1214,60.0029445953,FEMA4ImagesEEG,001,102275,
AFNE01.JPG,AFNE01.JPG,AFNE01.JPG,AFNE01.JPG,AFNE01.JPG,AFNE01.JPG,0,7,7,6,,,,,,,,,,,,,,,,,,,,,,,AFNE18.jpg,AFSA08.jpg,AFNE17.jpg,AFSA19.jpg,AFSA19.jpg,FS,4,num_4,32,num_8,0.750104160048,,,2017_Oct_31_1214,60.0029445953,FEMA4ImagesEEG,001,102275,
AFNE01.JPG,AFNE01.JPG,AFNE01.JPG,AFNE01.JPG,AFNE01.JPG,AFNE01.JPG,0,8,8,2,,,,,,,,,,,,,,,,,,,,,,,AFSA11.jpg,AFNE04.jpg,AFNE18.jpg,AFSA15.jpg,AFNE18.jpg,FN,3,num_2,32,num_6,1.05011394271,,,2017_Oct_31_1214,60.0029445953,FEMA4ImagesEEG,001,102275,
AFNE01.JPG,AFNE01.JPG,AFNE01.JPG,AFNE01.JPG,AFNE01.JPG,AFNE01.JPG,0,9,9,5,,,,,,,,,,,,,,,,,,,,,,,AFNE18.jpg,AFSA07.jpg,AFNE11.jpg,AFSA10.jpg,AFSA07.jpg,FS,4,num_6,32,num_2,1.33340870705,,,2017_Oct_31_1214,60.0029445953,FEMA4ImagesEEG,001,102275,
AFNE01.JPG,AFNE01.JPG,AFNE01.JPG,AFNE01.JPG,AFNE01.JPG,AFNE01.JPG,1,0,10,8,,,,,,,,,,,,,,,,,,,,,,,AFNE14.jpg,AFSA11.jpg,AFSA09.jpg,AFNE17.jpg,AFSA11.jpg,FS,4,num_6,32,num_2,2.08335891226,,,2017_Oct_31_1214,60.0029445953,FEMA4ImagesEEG,001,102275,
AFNE01.JPG,AFNE01.JPG,AFNE01.JPG,AFNE01.JPG,AFNE01.JPG,AFNE01.JPG,1,1,11,2,,,,,,,,,,,,,,,,,,,,,,,AFSA01.jpg,AFNE16.jpg,AFNE19.jpg,AFSA04.jpg,AFNE19.jpg,FN,3,num_2,32,num_6,1.68340060837,,,2017_Oct_31_1214,60.0029445953,FEMA4ImagesEEG,001,102275,
AFNE01.JPG,AFNE01.JPG,AFNE01.JPG,AFNE01.JPG,AFNE01.JPG,AFNE01.JPG,1,2,12,5,,,,,,,,,,,,,,,,,,,,,,,AFSA06.jpg,AFNE15.jpg,AFSA17.jpg,AFNE09.jpg,AFSA17.jpg,FS,4,num_2,32,num_6,1.38343284256,,,2017_Oct_31_1214,60.0029445953,FEMA4ImagesEEG,001,102275,
AFNE01.JPG,AFNE01.JPG,AFNE01.JPG,AFNE01.JPG,AFNE01.JPG,AFNE01.JPG,1,3,13,9,,,,,,,,,,,,,,,,,,,,,,,AFSA06.jpg,AFNE09.jpg,AFNE16.jpg,AFSA09.jpg,AFSA06.jpg,FS,4,num_8,16,num_8,1.6834134378,,,2017_Oct_31_1214,60.0029445953,FEMA4ImagesEEG,001,102275,
AFNE01.JPG,AFNE01.JPG,AFNE01.JPG,AFNE01.JPG,AFNE01.JPG,AFNE01.JPG,1,4,14,0,,,,,,,,,,,,,,,,,,,,,,,AFSA17.jpg,AFSA09.jpg,AFNE16.jpg,AFNE17.jpg,AFNE16.jpg,FN,3,num_2,32,num_6,1.75004931353,,,2017_Oct_31_1214,60.0029445953,FEMA4ImagesEEG,001,102275,
AFNE01.JPG,AFNE01.JPG,AFNE01.JPG,AFNE01.JPG,AFNE01.JPG,AFNE01.JPG,1,5,15,6,,,,,,,,,,,,,,,,,,,,,,,AFSA10.jpg,AFNE19.jpg,AFSA14.jpg,AFNE12.jpg,AFNE19.jpg,FN,3,num_6,16,num_6,0.616814126726,,,2017_Oct_31_1214,60.0029445953,FEMA4ImagesEEG,001,102275,
AFNE01.JPG,AFNE01.JPG,AFNE01.JPG,AFNE01.JPG,AFNE01.JPG,AFNE01.JPG,1,6,16,1,,,,,,,,,,,,,,,,,,,,,,,AFNE12.jpg,AFNE02.jpg,AFSA20.jpg,AFSA08.jpg,AFNE12.jpg,FN,3,num_8,16,num_8,1.60004009237,,,2017_Oct_31_1214,60.0029445953,FEMA4ImagesEEG,001,102275,
AFNE01.JPG,AFNE01.JPG,AFNE01.JPG,AFNE01.JPG,AFNE01.JPG,AFNE01.JPG,1,7,17,3,,,,,,,,,,,,,,,,,,,,,,,AFSA07.jpg,AFNE12.jpg,AFSA19.jpg,AFNE08.jpg,AFNE08.jpg,FN,3,num_4,32,num_2,2.36666522338,,,2017_Oct_31_1214,60.0029445953,FEMA4ImagesEEG,001,102275,
AFNE01.JPG,AFNE01.JPG,AFNE01.JPG,AFNE01.JPG,AFNE01.JPG,AFNE01.JPG,1,8,18,7,,,,,,,,,,,,,,,,,,,,,,,AFNE02.jpg,AFSA02.jpg,AFNE03.jpg,AFSA07.jpg,AFSA07.jpg,FS,4,num_4,32,num_6,0.966767859878,,,2017_Oct_31_1214,60.0029445953,FEMA4ImagesEEG,001,102275,
AFNE01.JPG,AFNE01.JPG,AFNE01.JPG,AFNE01.JPG,AFNE01.JPG,AFNE01.JPG,1,9,19,4,,,,,,,,,,,,,,,,,,,,,,,AFSA03.jpg,AFNE19.jpg,AFSA05.jpg,AFNE06.jpg,AFSA05.jpg,FS,4,num_2,16,num_2,1.98336067633,,,2017_Oct_31_1214,60.0029445953,FEMA4ImagesEEG,001,102275,
AFNE01.JPG,AFNE01.JPG,AFNE01.JPG,AFNE01.JPG,AFNE01.JPG,AFNE01.JPG,2,0,20,6,,,,,,,,,,,,,,,,,,,,,,,AFSA09.jpg,AFNE04.jpg,AFSA07.jpg,AFNE01.jpg,AFSA07.jpg,FS,4,num_2,32,num_8,1.0501235649,,,2017_Oct_31_1214,60.0029445953,FEMA4ImagesEEG,001,102275,
AFNE01.JPG,AFNE01.JPG,AFNE01.JPG,AFNE01.JPG,AFNE01.JPG,AFNE01.JPG,2,1,21,0,,,,,,,,,,,,,,,,,,,,,,,AFNE18.jpg,AFNE11.jpg,AFSA11.jpg,AFSA06.jpg,AFNE11.jpg,FN,3,num_6,16,num_6,1.21672367817,,,2017_Oct_31_1214,60.0029445953,FEMA4ImagesEEG,001,102275,
AFNE01.JPG,AFNE01.JPG,AFNE01.JPG,AFNE01.JPG,AFNE01.JPG,AFNE01.JPG,2,2,22,1,,,,,,,,,,,,,,,,,,,,,,,AFNE05.jpg,AFSA05.jpg,AFSA01.jpg,AFNE17.jpg,AFNE05.jpg,FN,3,num_8,32,num_6,1.15010608477,,,2017_Oct_31_1214,60.0029445953,FEMA4ImagesEEG,001,102275,
AFNE01.JPG,AFNE01.JPG,AFNE01.JPG,AFNE01.JPG,AFNE01.JPG,AFNE01.JPG,2,3,23,2,,,,,,,,,,,,,,,,,,,,,,,AFSA01.jpg,AFNE12.jpg,AFSA15.jpg,AFNE03.jpg,AFNE03.jpg,FN,3,num_4,32,num_6,0.750094537856,,,2017_Oct_31_1214,60.0029445953,FEMA4ImagesEEG,001,102275,
AFNE01.JPG,AFNE01.JPG,AFNE01.JPG,AFNE01.JPG,AFNE01.JPG,AFNE01.JPG,2,4,24,8,,,,,,,,,,,,,,,,,,,,,,,AFSA07.jpg,AFSA14.jpg,AFNE07.jpg,AFNE16.jpg,AFNE07.jpg,FN,3,num_2,32,num_8,0.983480633004,,,2017_Oct_31_1214,60.0029445953,FEMA4ImagesEEG,001,102275,
AFNE01.JPG,AFNE01.JPG,AFNE01.JPG,AFNE01.JPG,AFNE01.JPG,AFNE01.JPG,2,5,25,3,,,,,,,,,,,,,,,,,,,,,,,AFSA08.jpg,AFSA10.jpg,AFNE05.jpg,AFNE11.jpg,AFSA08.jpg,FS,4,num_8,16,num_8,0.633511824999,,,2017_Oct_31_1214,60.0029445953,FEMA4ImagesEEG,001,102275,
AFNE01.JPG,AFNE01.JPG,AFNE01.JPG,AFNE01.JPG,AFNE01.JPG,AFNE01.JPG,2,6,26,9,,,,,,,,,,,,,,,,,,,,,,,AFSA06.jpg,AFSA01.jpg,AFNE18.jpg,AFNE03.jpg,AFNE03.jpg,FN,3,num_4,32,num_6,0.950057332171,,,2017_Oct_31_1214,60.0029445953,FEMA4ImagesEEG,001,102275,
AFNE01.JPG,AFNE01.JPG,AFNE01.JPG,AFNE01.JPG,AFNE01.JPG,AFNE01.JPG,2,7,27,5,,,,,,,,,,,,,,,,,,,,,,,AFSA20.jpg,AFNE20.jpg,AFNE19.jpg,AFSA18.jpg,AFSA20.jpg,FS,4,num_8,32,num_4,0.916760402732,,,2017_Oct_31_1214,60.0029445953,FEMA4ImagesEEG,001,102275,
AFNE01.JPG,AFNE01.JPG,AFNE01.JPG,AFNE01.JPG,AFNE01.JPG,AFNE01.JPG,2,8,28,7,,,,,,,,,,,,,,,,,,,,,,,AFSA09.jpg,AFNE16.jpg,AFSA13.jpg,AFNE13.jpg,AFNE16.jpg,FN,3,num_6,32,num_4,1.01682342822,,,2017_Oct_31_1214,60.0029445953,FEMA4ImagesEEG,001,102275,
AFNE01.JPG,AFNE01.JPG,AFNE01.JPG,AFNE01.JPG,AFNE01.JPG,AFNE01.JPG,2,9,29,4,,,,,,,,,,,,,,,,,,,,,,,AFNE02.jpg,AFNE12.jpg,AFSA13.jpg,AFSA01.jpg,AFNE12.jpg,FN,3,num_6,16,num_6,0.550139441621,,,2017_Oct_31_1214,60.0029445953,FEMA4ImagesEEG,001,102275,
AFNE01.JPG,AFNE01.JPG,AFNE01.JPG,AFNE01.JPG,AFNE01.JPG,AFNE01.JPG,3,0,30,3,,,,,,,,,,,,,,,,,,,,,,,AFSA11.jpg,AFSA09.jpg,AFNE08.jpg,AFNE20.jpg,AFNE20.jpg,FN,3,num_4,32,num_8,1.13342314027,,,2017_Oct_31_1214,60.0029445953,FEMA4ImagesEEG,001,102275,
AFNE01.JPG,AFNE01.JPG,AFNE01.JPG,AFNE01.JPG,AFNE01.JPG,AFNE01.JPG,3,1,31,7,,,,,,,,,,,,,,,,,,,,,,,AFSA17.jpg,AFNE17.jpg,AFNE12.jpg,AFSA05.jpg,AFNE17.jpg,FN,3,num_6,32,num_8,1.06673851237,,,2017_Oct_31_1214,60.0029445953,FEMA4ImagesEEG,001,102275,
AFNE01.JPG,AFNE01.JPG,AFNE01.JPG,AFNE01.JPG,AFNE01.JPG,AFNE01.JPG,3,2,32,5,,,,,,,,,,,,,,,,,,,,,,,AFNE18.jpg,AFNE08.jpg,AFSA10.jpg,AFSA11.jpg,AFNE08.jpg,FN,3,num_6,16,num_6,0.683455134276,,,2017_Oct_31_1214,60.0029445953,FEMA4ImagesEEG,001,102275,
AFNE01.JPG,AFNE01.JPG,AFNE01.JPG,AFNE01.JPG,AFNE01.JPG,AFNE01.JPG,3,3,33,1,,,,,,,,,,,,,,,,,,,,,,,AFNE15.jpg,AFNE11.jpg,AFSA03.jpg,AFSA17.jpg,AFNE11.jpg,FN,3,num_6,32,num_8,0.683466039365,,,2017_Oct_31_1214,60.0029445953,FEMA4ImagesEEG,001,102275,
AFNE01.JPG,AFNE01.JPG,AFNE01.JPG,AFNE01.JPG,AFNE01.JPG,AFNE01.JPG,3,4,34,6,,,,,,,,,,,,,,,,,,,,,,,AFSA16.jpg,AFNE05.jpg,AFSA14.jpg,AFNE01.jpg,AFSA16.jpg,FS,4,num_8,32,num_6,1.0167955237,,,2017_Oct_31_1214,60.0029445953,FEMA4ImagesEEG,001,102275,
AFNE01.JPG,AFNE01.JPG,AFNE01.JPG,AFNE01.JPG,AFNE01.JPG,AFNE01.JPG,3,5,35,9,,,,,,,,,,,,,,,,,,,,,,,AFSA09.jpg,AFNE08.jpg,AFSA18.jpg,AFNE03.jpg,AFSA18.jpg,FS,4,num_2,16,num_2,0.750145856291,,,2017_Oct_31_1214,60.0029445953,FEMA4ImagesEEG,001,102275,
AFNE01.JPG,AFNE01.JPG,AFNE01.JPG,AFNE01.JPG,AFNE01.JPG,AFNE01.JPG,3,6,36,0,,,,,,,,,,,,,,,,,,,,,,,AFNE15.jpg,AFNE19.jpg,AFSA12.jpg,AFSA04.jpg,AFNE15.jpg,FN,3,num_8,16,num_8,1.43312084326,,,2017_Oct_31_1214,60.0029445953,FEMA4ImagesEEG,001,102275,
AFNE01.JPG,AFNE01.JPG,AFNE01.JPG,AFNE01.JPG,AFNE01.JPG,AFNE01.JPG,3,7,37,2,,,,,,,,,,,,,,,,,,,,,,,AFNE13.jpg,AFNE06.jpg,AFSA08.jpg,AFSA05.jpg,AFSA05.jpg,FS,4,num_4,16,num_4,0.566797367996,,,2017_Oct_31_1214,60.0029445953,FEMA4ImagesEEG,001,102275,
AFNE01.JPG,AFNE01.JPG,AFNE01.JPG,AFNE01.JPG,AFNE01.JPG,AFNE01.JPG,3,8,38,8,,,,,,,,,,,,,,,,,,,,,,,AFSA20.jpg,AFNE08.jpg,AFSA07.jpg,AFNE07.jpg,AFSA07.jpg,FS,4,num_2,32,num_6,1.6334319606,,,2017_Oct_31_1214,60.0029445953,FEMA4ImagesEEG,001,102275,
AFNE01.JPG,AFNE01.JPG,AFNE01.JPG,AFNE01.JPG,AFNE01.JPG,AFNE01.JPG,3,9,39,4,,,,,,,,,,,,,,,,,,,,,,,AFSA06.jpg,AFNE10.jpg,AFSA09.jpg,AFNE02.jpg,AFNE10.jpg,FN,3,num_6,16,num_6,0.700417763088,,,2017_Oct_31_1214,60.0029445953,FEMA4ImagesEEG,001,102275,
AFNE01.JPG,AFNE01.JPG,AFNE01.JPG,AFNE01.JPG,AFNE01.JPG,AFNE01.JPG,4,0,40,9,,,,,,,,,,,,,,,,,,,,,,,AFNE05.jpg,AFNE13.jpg,AFSA10.jpg,AFSA20.jpg,AFSA10.jpg,FS,4,num_2,16,num_2,0.466774114408,,,2017_Oct_31_1214,60.0029445953,FEMA4ImagesEEG,001,102275,
AFNE01.JPG,AFNE01.JPG,AFNE01.JPG,AFNE01.JPG,AFNE01.JPG,AFNE01.JPG,4,1,41,5,,,,,,,,,,,,,,,,,,,,,,,AFSA05.jpg,AFNE03.jpg,AFSA20.jpg,AFNE14.jpg,AFNE03.jpg,FN,3,num_6,32,num_8,1.58339852351,,,2017_Oct_31_1214,60.0029445953,FEMA4ImagesEEG,001,102275,
AFNE01.JPG,AFNE01.JPG,AFNE01.JPG,AFNE01.JPG,AFNE01.JPG,AFNE01.JPG,4,2,42,7,,,,,,,,,,,,,,,,,,,,,,,AFNE18.jpg,AFNE12.jpg,AFSA07.jpg,AFSA18.jpg,AFNE18.jpg,FN,3,num_8,32,num_6,1.80002084794,,,2017_Oct_31_1214,60.0029445953,FEMA4ImagesEEG,001,102275,
AFNE01.JPG,AFNE01.JPG,AFNE01.JPG,AFNE01.JPG,AFNE01.JPG,AFNE01.JPG,4,3,43,8,,,,,,,,,,,,,,,,,,,,,,,AFNE03.jpg,AFSA02.jpg,AFSA04.jpg,AFNE17.jpg,AFNE17.jpg,FN,3,num_4,32,num_8,1.29994916264,,,2017_Oct_31_1214,60.0029445953,FEMA4ImagesEEG,001,102275,
AFNE01.JPG,AFNE01.JPG,AFNE01.JPG,AFNE01.JPG,AFNE01.JPG,AFNE01.JPG,4,4,44,4,,,,,,,,,,,,,,,,,,,,,,,AFSA11.jpg,AFSA16.jpg,AFNE06.jpg,AFNE05.jpg,AFNE06.jpg,FN,3,num_2,32,num_4,1.0834201735,,,2017_Oct_31_1214,60.0029445953,FEMA4ImagesEEG,001,102275,
AFNE01.JPG,AFNE01.JPG,AFNE01.JPG,AFNE01.JPG,AFNE01.JPG,AFNE01.JPG,4,5,45,1,,,,,,,,,,,,,,,,,,,,,,,AFSA18.jpg,AFSA04.jpg,AFNE10.jpg,AFNE03.jpg,AFNE03.jpg,FN,3,num_4,32,num_2,2.21664894582,,,2017_Oct_31_1214,60.0029445953,FEMA4ImagesEEG,001,102275,
AFNE01.JPG,AFNE01.JPG,AFNE01.JPG,AFNE01.JPG,AFNE01.JPG,AFNE01.JPG,4,6,46,6,,,,,,,,,,,,,,,,,,,,,,,AFSA01.jpg,AFSA05.jpg,AFNE03.jpg,AFNE19.jpg,AFNE19.jpg,FN,3,num_4,32,num_8,1.01674260176,,,2017_Oct_31_1214,60.0029445953,FEMA4ImagesEEG,001,102275,
AFNE01.JPG,AFNE01.JPG,AFNE01.JPG,AFNE01.JPG,AFNE01.JPG,AFNE01.JPG,4,7,47,0,,,,,,,,,,,,,,,,,,,,,,,AFNE17.jpg,AFNE19.jpg,AFSA15.jpg,AFSA07.jpg,AFSA15.jpg,FS,4,num_2,32,num_4,1.0667256827,,,2017_Oct_31_1214,60.0029445953,FEMA4ImagesEEG,001,102275,
AFNE01.JPG,AFNE01.JPG,AFNE01.JPG,AFNE01.JPG,AFNE01.JPG,AFNE01.JPG,4,8,48,3,,,,,,,,,,,,,,,,,,,,,,,AFSA14.jpg,AFNE06.jpg,AFNE09.jpg,AFSA20.jpg,AFSA14.jpg,FS,4,num_8,32,num_2,1.13343949802,,,2017_Oct_31_1214,60.0029445953,FEMA4ImagesEEG,001,102275,
AFNE01.JPG,AFNE01.JPG,AFNE01.JPG,AFNE01.JPG,AFNE01.JPG,AFNE01.JPG,4,9,49,2,,,,,,,,,,,,,,,,,,,,,,,AFNE17.jpg,AFSA18.jpg,AFSA20.jpg,AFNE02.jpg,AFSA20.jpg,FS,4,num_2,32,num_8,1.01704890793,,,2017_Oct_31_1214,60.0029445953,FEMA4ImagesEEG,001,102275,
AFNE01.JPG,AFNE01.JPG,AFNE01.JPG,AFNE01.JPG,AFNE01.JPG,AFNE01.JPG,5,0,50,5,,,,,,,,,,,,,,,,,,,,,,,AFNE12.jpg,AFNE06.jpg,AFSA09.jpg,AFSA20.jpg,AFNE06.jpg,FN,3,num_6,32,num_2,0.983486406272,,,2017_Oct_31_1214,60.0029445953,FEMA4ImagesEEG,001,102275,
AFNE01.JPG,AFNE01.JPG,AFNE01.JPG,AFNE01.JPG,AFNE01.JPG,AFNE01.JPG,5,1,51,8,,,,,,,,,,,,,,,,,,,,,,,AFNE12.jpg,AFSA10.jpg,AFNE14.jpg,AFSA12.jpg,AFSA10.jpg,FS,4,num_6,32,num_2,2.51666482235,,,2017_Oct_31_1214,60.0029445953,FEMA4ImagesEEG,001,102275,
AFNE01.JPG,AFNE01.JPG,AFNE01.JPG,AFNE01.JPG,AFNE01.JPG,AFNE01.JPG,5,2,52,9,,,,,,,,,,,,,,,,,,,,,,,AFNE08.jpg,AFSA12.jpg,AFNE17.jpg,AFSA02.jpg,AFNE08.jpg,FN,3,num_8,32,num_6,1.20023285691,,,2017_Oct_31_1214,60.0029445953,FEMA4ImagesEEG,001,102275,
AFNE01.JPG,AFNE01.JPG,AFNE01.JPG,AFNE01.JPG,AFNE01.JPG,AFNE01.JPG,5,3,53,6,,,,,,,,,,,,,,,,,,,,,,,AFSA10.jpg,AFNE11.jpg,AFSA18.jpg,AFNE10.jpg,AFNE11.jpg,FN,3,num_6,32,num_8,0.950092613697,,,2017_Oct_31_1214,60.0029445953,FEMA4ImagesEEG,001,102275,
AFNE01.JPG,AFNE01.JPG,AFNE01.JPG,AFNE01.JPG,AFNE01.JPG,AFNE01.JPG,5,4,54,7,,,,,,,,,,,,,,,,,,,,,,,AFSA17.jpg,AFNE08.jpg,AFNE15.jpg,AFSA07.jpg,AFNE15.jpg,FN,3,num_2,32,num_6,1.35008555744,,,2017_Oct_31_1214,60.0029445953,FEMA4ImagesEEG,001,102275,
AFNE01.JPG,AFNE01.JPG,AFNE01.JPG,AFNE01.JPG,AFNE01.JPG,AFNE01.JPG,5,5,55,4,,,,,,,,,,,,,,,,,,,,,,,AFSA01.jpg,AFNE18.jpg,AFSA02.jpg,AFNE16.jpg,AFNE16.jpg,FN,3,num_4,32,num_8,1.03346948721,,,2017_Oct_31_1214,60.0029445953,FEMA4ImagesEEG,001,102275,
AFNE01.JPG,AFNE01.JPG,AFNE01.JPG,AFNE01.JPG,AFNE01.JPG,AFNE01.JPG,5,6,56,2,,,,,,,,,,,,,,,,,,,,,,,AFNE15.jpg,AFSA03.jpg,AFNE11.jpg,AFSA04.jpg,AFSA03.jpg,FS,4,num_6,32,num_2,1.73338689678,,,2017_Oct_31_1214,60.0029445953,FEMA4ImagesEEG,001,102275,
AFNE01.JPG,AFNE01.JPG,AFNE01.JPG,AFNE01.JPG,AFNE01.JPG,AFNE01.JPG,5,7,57,1,,,,,,,,,,,,,,,,,,,,,,,AFNE02.jpg,AFNE08.jpg,AFSA01.jpg,AFSA16.jpg,AFNE08.jpg,FN,3,num_6,32,num_8,1.1834142399,,,2017_Oct_31_1214,60.0029445953,FEMA4ImagesEEG,001,102275,
AFNE01.JPG,AFNE01.JPG,AFNE01.JPG,AFNE01.JPG,AFNE01.JPG,AFNE01.JPG,5,8,58,3,,,,,,,,,,,,,,,,,,,,,,,AFNE01.jpg,AFSA16.jpg,AFSA04.jpg,AFNE10.jpg,AFNE01.jpg,FN,3,num_8,16,num_8,1.33318451024,,,2017_Oct_31_1214,60.0029445953,FEMA4ImagesEEG,001,102275,
AFNE01.JPG,AFNE01.JPG,AFNE01.JPG,AFNE01.JPG,AFNE01.JPG,AFNE01.JPG,5,9,59,0,,,,,,,,,,,,,,,,,,,,,,,AFSA08.jpg,AFSA18.jpg,AFNE10.jpg,AFNE02.jpg,AFNE10.jpg,FN,3,num_2,16,num_2,0.550164779881,,,2017_Oct_31_1214,60.0029445953,FEMA4ImagesEEG,001,102275,
,,,,,,,,,,,,,,,,,,,,,,,,,,,,,,,,,,,,,,,,,,,space,3.46644952591,2017_Oct_31_1214,60.0029445953,FEMA4ImagesEEG,001,102275,
AFNE01.JPG,AFNE01.JPG,AFNE01.JPG,AFNE01.JPG,AFNE01.JPG,AFNE01.JPG,,,,,0,0,0,1,,,,,,,,,,,,,,,,,,,AMSA05.jpg,AMNE17.jpg,AMNE08.jpg,AMSA18.jpg,AMSA05.jpg,MS,2,num_8,32,num_4,1.31670331117,,,2017_Oct_31_1214,60.0029445953,FEMA4ImagesEEG,001,102275,
AFNE01.JPG,AFNE01.JPG,AFNE01.JPG,AFNE01.JPG,AFNE01.JPG,AFNE01.JPG,,,,,0,1,1,6,,,,,,,,,,,,,,,,,,,AMSA04.jpg,AMNE07.jpg,AMNE13.jpg,AMSA11.jpg,AMSA11.jpg,MS,2,num_4,16,num_4,0.516799533041,,,2017_Oct_31_1214,60.0029445953,FEMA4ImagesEEG,001,102275,
AFNE01.JPG,AFNE01.JPG,AFNE01.JPG,AFNE01.JPG,AFNE01.JPG,AFNE01.JPG,,,,,0,2,2,4,,,,,,,,,,,,,,,,,,,AMSA20.jpg,AMNE15.jpg,AMNE05.jpg,AMSA12.jpg,AMSA20.jpg,MS,2,num_8,32,num_4,1.94991460303,,,2017_Oct_31_1214,60.0029445953,FEMA4ImagesEEG,001,102275,
AFNE01.JPG,AFNE01.JPG,AFNE01.JPG,AFNE01.JPG,AFNE01.JPG,AFNE01.JPG,,,,,0,3,3,0,,,,,,,,,,,,,,,,,,,AMNE18.jpg,AMSA09.jpg,AMSA02.jpg,AMNE03.jpg,AMNE18.jpg,MN,1,num_8,16,num_8,1.26672311663,,,2017_Oct_31_1214,60.0029445953,FEMA4ImagesEEG,001,102275,
AFNE01.JPG,AFNE01.JPG,AFNE01.JPG,AFNE01.JPG,AFNE01.JPG,AFNE01.JPG,,,,,0,4,4,5,,,,,,,,,,,,,,,,,,,AMNE06.jpg,AMNE18.jpg,AMSA05.jpg,AMSA14.jpg,AMNE18.jpg,MN,1,num_6,32,num_2,1.21677467576,,,2017_Oct_31_1214,60.0029445953,FEMA4ImagesEEG,001,102275,
AFNE01.JPG,AFNE01.JPG,AFNE01.JPG,AFNE01.JPG,AFNE01.JPG,AFNE01.JPG,,,,,0,5,5,3,,,,,,,,,,,,,,,,,,,AMNE09.jpg,AMSA05.jpg,AMNE14.jpg,AMSA02.jpg,AMNE14.jpg,MN,1,num_2,32,num_4,0.683441983769,,,2017_Oct_31_1214,60.0029445953,FEMA4ImagesEEG,001,102275,
AFNE01.JPG,AFNE01.JPG,AFNE01.JPG,AFNE01.JPG,AFNE01.JPG,AFNE01.JPG,,,,,0,6,6,2,,,,,,,,,,,,,,,,,,,AMSA07.jpg,AMNE19.jpg,AMSA03.jpg,AMNE14.jpg,AMNE19.jpg,MN,1,num_6,16,num_6,0.783438936807,,,2017_Oct_31_1214,60.0029445953,FEMA4ImagesEEG,001,102275,
AFNE01.JPG,AFNE01.JPG,AFNE01.JPG,AFNE01.JPG,AFNE01.JPG,AFNE01.JPG,,,,,0,7,7,9,,,,,,,,,,,,,,,,,,,AMSA11.jpg,AMNE07.jpg,AMSA08.jpg,AMNE20.jpg,AMNE07.jpg,MN,1,num_6,16,num_6,0.450214013457,,,2017_Oct_31_1214,60.0029445953,FEMA4ImagesEEG,001,102275,
AFNE01.JPG,AFNE01.JPG,AFNE01.JPG,AFNE01.JPG,AFNE01.JPG,AFNE01.JPG,,,,,0,8,8,8,,,,,,,,,,,,,,,,,,,AMNE03.jpg,AMNE13.jpg,AMSA07.jpg,AMSA03.jpg,AMNE13.jpg,MN,1,num_6,16,num_6,0.666778925573,,,2017_Oct_31_1214,60.0029445953,FEMA4ImagesEEG,001,102275,
AFNE01.JPG,AFNE01.JPG,AFNE01.JPG,AFNE01.JPG,AFNE01.JPG,AFNE01.JPG,,,,,0,9,9,7,,,,,,,,,,,,,,,,,,,AMSA14.jpg,AMSA17.jpg,AMNE15.jpg,AMNE10.jpg,AMNE10.jpg,MN,1,num_4,32,num_2,1.13341832929,,,2017_Oct_31_1214,60.0029445953,FEMA4ImagesEEG,001,102275,
AFNE01.JPG,AFNE01.JPG,AFNE01.JPG,AFNE01.JPG,AFNE01.JPG,AFNE01.JPG,,,,,1,0,10,5,,,,,,,,,,,,,,,,,,,AMSA10.jpg,AMNE11.jpg,AMNE03.jpg,AMSA20.jpg,AMNE11.jpg,MN,1,num_6,16,num_6,1.06677251076,,,2017_Oct_31_1214,60.0029445953,FEMA4ImagesEEG,001,102275,
AFNE01.JPG,AFNE01.JPG,AFNE01.JPG,AFNE01.JPG,AFNE01.JPG,AFNE01.JPG,,,,,1,1,11,3,,,,,,,,,,,,,,,,,,,AMNE18.jpg,AMNE03.jpg,AMSA01.jpg,AMSA17.jpg,AMNE18.jpg,MN,1,num_8,16,num_8,1.20009525958,,,2017_Oct_31_1214,60.0029445953,FEMA4ImagesEEG,001,102275,
AFNE01.JPG,AFNE01.JPG,AFNE01.JPG,AFNE01.JPG,AFNE01.JPG,AFNE01.JPG,,,,,1,2,12,2,,,,,,,,,,,,,,,,,,,AMSA13.jpg,AMNE19.jpg,AMNE10.jpg,AMSA08.jpg,AMNE10.jpg,MN,1,num_2,16,num_2,0.600138559472,,,2017_Oct_31_1214,60.0029445953,FEMA4ImagesEEG,001,102275,
AFNE01.JPG,AFNE01.JPG,AFNE01.JPG,AFNE01.JPG,AFNE01.JPG,AFNE01.JPG,,,,,1,3,13,7,,,,,,,,,,,,,,,,,,,AMNE16.jpg,AMSA01.jpg,AMSA02.jpg,AMNE10.jpg,AMSA02.jpg,MS,2,num_2,32,num_6,0.70013519167,,,2017_Oct_31_1214,60.0029445953,FEMA4ImagesEEG,001,102275,
AFNE01.JPG,AFNE01.JPG,AFNE01.JPG,AFNE01.JPG,AFNE01.JPG,AFNE01.JPG,,,,,1,4,14,6,,,,,,,,,,,,,,,,,,,AMSA14.jpg,AMNE19.jpg,AMNE03.jpg,AMSA06.jpg,AMNE19.jpg,MN,1,num_6,32,num_2,1.33341576322,,,2017_Oct_31_1214,60.0029445953,FEMA4ImagesEEG,001,102275,
AFNE01.JPG,AFNE01.JPG,AFNE01.JPG,AFNE01.JPG,AFNE01.JPG,AFNE01.JPG,,,,,1,5,15,9,,,,,,,,,,,,,,,,,,,AMSA13.jpg,AMNE05.jpg,AMNE07.jpg,AMSA12.jpg,AMSA13.jpg,MS,2,num_8,32,num_6,1.15010704682,,,2017_Oct_31_1214,60.0029445953,FEMA4ImagesEEG,001,102275,
AFNE01.JPG,AFNE01.JPG,AFNE01.JPG,AFNE01.JPG,AFNE01.JPG,AFNE01.JPG,,,,,1,6,16,4,,,,,,,,,,,,,,,,,,,AMNE05.jpg,AMSA20.jpg,AMSA15.jpg,AMNE10.jpg,AMNE05.jpg,MN,1,num_8,32,num_4,0.916829682654,,,2017_Oct_31_1214,60.0029445953,FEMA4ImagesEEG,001,102275,
AFNE01.JPG,AFNE01.JPG,AFNE01.JPG,AFNE01.JPG,AFNE01.JPG,AFNE01.JPG,,,,,1,7,17,8,,,,,,,,,,,,,,,,,,,AMNE19.jpg,AMNE09.jpg,AMSA09.jpg,AMSA10.jpg,AMNE19.jpg,MN,1,num_8,16,num_8,1.300077138,,,2017_Oct_31_1214,60.0029445953,FEMA4ImagesEEG,001,102275,
AFNE01.JPG,AFNE01.JPG,AFNE01.JPG,AFNE01.JPG,AFNE01.JPG,AFNE01.JPG,,,,,1,8,18,0,,,,,,,,,,,,,,,,,,,AMNE17.jpg,AMSA19.jpg,AMNE07.jpg,AMSA07.jpg,AMNE07.jpg,MN,1,num_2,32,num_8,0.649790958036,,,2017_Oct_31_1214,60.0029445953,FEMA4ImagesEEG,001,102275,
AFNE01.JPG,AFNE01.JPG,AFNE01.JPG,AFNE01.JPG,AFNE01.JPG,AFNE01.JPG,,,,,1,9,19,1,,,,,,,,,,,,,,,,,,,AMNE20.jpg,AMSA01.jpg,AMNE04.jpg,AMSA15.jpg,AMNE20.jpg,MN,1,num_8,16,num_8,0.949981316924,,,2017_Oct_31_1214,60.0029445953,FEMA4ImagesEEG,001,102275,
AFNE01.JPG,AFNE01.JPG,AFNE01.JPG,AFNE01.JPG,AFNE01.JPG,AFNE01.JPG,,,,,2,0,20,2,,,,,,,,,,,,,,,,,,,AMSA08.jpg,AMNE01.jpg,AMSA04.jpg,AMNE20.jpg,AMSA08.jpg,MS,2,num_8,16,num_8,1.20006350637,,,2017_Oct_31_1214,60.0029445953,FEMA4ImagesEEG,001,102275,
AFNE01.JPG,AFNE01.JPG,AFNE01.JPG,AFNE01.JPG,AFNE01.JPG,AFNE01.JPG,,,,,2,1,21,5,,,,,,,,,,,,,,,,,,,AMNE01.jpg,AMSA09.jpg,AMNE05.jpg,AMSA12.jpg,AMSA12.jpg,MS,2,num_4,16,num_4,0.900114022894,,,2017_Oct_31_1214,60.0029445953,FEMA4ImagesEEG,001,102275,
AFNE01.JPG,AFNE01.JPG,AFNE01.JPG,AFNE01.JPG,AFNE01.JPG,AFNE01.JPG,,,,,2,2,22,4,,,,,,,,,,,,,,,,,,,AMSA09.jpg,AMNE08.jpg,AMSA07.jpg,AMNE03.jpg,AMNE08.jpg,MN,1,num_6,32,num_8,1.56667901506,,,2017_Oct_31_1214,60.0029445953,FEMA4ImagesEEG,001,102275,
AFNE01.JPG,AFNE01.JPG,AFNE01.JPG,AFNE01.JPG,AFNE01.JPG,AFNE01.JPG,,,,,2,3,23,8,,,,,,,,,,,,,,,,,,,AMSA06.jpg,AMSA07.jpg,AMNE12.jpg,AMNE03.jpg,AMNE03.jpg,MN,1,num_4,32,num_6,0.850086038234,,,2017_Oct_31_1214,60.0029445953,FEMA4ImagesEEG,001,102275,
AFNE01.JPG,AFNE01.JPG,AFNE01.JPG,AFNE01.JPG,AFNE01.JPG,AFNE01.JPG,,,,,2,4,24,0,,,,,,,,,,,,,,,,,,,AMNE11.jpg,AMNE03.jpg,AMSA08.jpg,AMSA09.jpg,AMSA08.jpg,MS,2,num_2,16,num_2,1.65001162677,,,2017_Oct_31_1214,60.0029445953,FEMA4ImagesEEG,001,102275,
AFNE01.JPG,AFNE01.JPG,AFNE01.JPG,AFNE01.JPG,AFNE01.JPG,AFNE01.JPG,,,,,2,5,25,3,,,,,,,,,,,,,,,,,,,AMSA06.jpg,AMSA19.jpg,AMNE20.jpg,AMNE04.jpg,AMSA06.jpg,MS,2,num_8,16,num_8,1.18340942892,,,2017_Oct_31_1214,60.0029445953,FEMA4ImagesEEG,001,102275,
AFNE01.JPG,AFNE01.JPG,AFNE01.JPG,AFNE01.JPG,AFNE01.JPG,AFNE01.JPG,,,,,2,6,26,7,,,,,,,,,,,,,,,,,,,AMNE16.jpg,AMSA15.jpg,AMSA10.jpg,AMNE09.jpg,AMNE16.jpg,MN,1,num_8,16,num_8,0.933457459323,,,2017_Oct_31_1214,60.0029445953,FEMA4ImagesEEG,001,102275,
AFNE01.JPG,AFNE01.JPG,AFNE01.JPG,AFNE01.JPG,AFNE01.JPG,AFNE01.JPG,,,,,2,7,27,1,,,,,,,,,,,,,,,,,,,AMSA09.jpg,AMSA01.jpg,AMNE06.jpg,AMNE16.jpg,AMNE16.jpg,MN,1,num_4,16,num_4,0.483495226596,,,2017_Oct_31_1214,60.0029445953,FEMA4ImagesEEG,001,102275,
AFNE01.JPG,AFNE01.JPG,AFNE01.JPG,AFNE01.JPG,AFNE01.JPG,AFNE01.JPG,,,,,2,8,28,9,,,,,,,,,,,,,,,,,,,AMSA11.jpg,AMNE20.jpg,AMNE03.jpg,AMSA16.jpg,AMSA11.jpg,MS,2,num_8,16,num_8,1.63335337956,,,2017_Oct_31_1214,60.0029445953,FEMA4ImagesEEG,001,102275,
AFNE01.JPG,AFNE01.JPG,AFNE01.JPG,AFNE01.JPG,AFNE01.JPG,AFNE01.JPG,,,,,2,9,29,6,,,,,,,,,,,,,,,,,,,AMNE17.jpg,AMSA14.jpg,AMSA18.jpg,AMNE10.jpg,AMNE10.jpg,MN,1,num_4,16,num_4,1.50007425132,,,2017_Oct_31_1214,60.0029445953,FEMA4ImagesEEG,001,102275,
AFNE01.JPG,AFNE01.JPG,AFNE01.JPG,AFNE01.JPG,AFNE01.JPG,AFNE01.JPG,,,,,3,0,30,1,,,,,,,,,,,,,,,,,,,AMSA14.jpg,AMNE02.jpg,AMSA07.jpg,AMNE20.jpg,AMNE02.jpg,MN,1,num_6,32,num_2,1.51688388758,,,2017_Oct_31_1214,60.0029445953,FEMA4ImagesEEG,001,102275,
AFNE01.JPG,AFNE01.JPG,AFNE01.JPG,AFNE01.JPG,AFNE01.JPG,AFNE01.JPG,,,,,3,1,31,4,,,,,,,,,,,,,,,,,,,AMSA15.jpg,AMNE08.jpg,AMSA19.jpg,AMNE16.jpg,AMNE16.jpg,MN,1,num_4,32,num_8,0.85009469837,,,2017_Oct_31_1214,60.0029445953,FEMA4ImagesEEG,001,102275,
AFNE01.JPG,AFNE01.JPG,AFNE01.JPG,AFNE01.JPG,AFNE01.JPG,AFNE01.JPG,,,,,3,2,32,9,,,,,,,,,,,,,,,,,,,AMNE14.jpg,AMSA19.jpg,AMNE08.jpg,AMSA10.jpg,AMNE14.jpg,MN,1,num_8,32,num_6,0.950084915617,,,2017_Oct_31_1214,60.0029445953,FEMA4ImagesEEG,001,102275,
AFNE01.JPG,AFNE01.JPG,AFNE01.JPG,AFNE01.JPG,AFNE01.JPG,AFNE01.JPG,,,,,3,3,33,8,,,,,,,,,,,,,,,,,,,AMSA12.jpg,AMSA14.jpg,AMNE16.jpg,AMNE07.jpg,AMSA12.jpg,MS,2,num_8,16,num_8,0.900103759253,,,2017_Oct_31_1214,60.0029445953,FEMA4ImagesEEG,001,102275,
AFNE01.JPG,AFNE01.JPG,AFNE01.JPG,AFNE01.JPG,AFNE01.JPG,AFNE01.JPG,,,,,3,4,34,2,,,,,,,,,,,,,,,,,,,AMSA01.jpg,AMSA16.jpg,AMNE08.jpg,AMNE13.jpg,AMNE08.jpg,MN,1,num_2,32,num_6,1.60004907311,,,2017_Oct_31_1214,60.0029445953,FEMA4ImagesEEG,001,102275,
AFNE01.JPG,AFNE01.JPG,AFNE01.JPG,AFNE01.JPG,AFNE01.JPG,AFNE01.JPG,,,,,3,5,35,5,,,,,,,,,,,,,,,,,,,AMSA01.jpg,AMSA09.jpg,AMNE07.jpg,AMNE14.jpg,AMNE07.jpg,MN,1,num_2,16,num_2,2.28331721621,,,2017_Oct_31_1214,60.0029445953,FEMA4ImagesEEG,001,102275,
AFNE01.JPG,AFNE01.JPG,AFNE01.JPG,AFNE01.JPG,AFNE01.JPG,AFNE01.JPG,,,,,3,6,36,3,,,,,,,,,,,,,,,,,,,AMSA11.jpg,AMSA05.jpg,AMNE01.jpg,AMNE12.jpg,AMNE12.jpg,MN,1,num_4,32,num_6,1.38341231551,,,2017_Oct_31_1214,60.0029445953,FEMA4ImagesEEG,001,102275,
AFNE01.JPG,AFNE01.JPG,AFNE01.JPG,AFNE01.JPG,AFNE01.JPG,AFNE01.JPG,,,,,3,7,37,7,,,,,,,,,,,,,,,,,,,AMNE06.jpg,AMSA08.jpg,AMSA02.jpg,AMNE07.jpg,AMNE07.jpg,MN,1,num_4,32,num_6,1.06672375835,,,2017_Oct_31_1214,60.0029445953,FEMA4ImagesEEG,001,102275,
AFNE01.JPG,AFNE01.JPG,AFNE01.JPG,AFNE01.JPG,AFNE01.JPG,AFNE01.JPG,,,,,3,8,38,6,,,,,,,,,,,,,,,,,,,AMSA17.jpg,AMSA11.jpg,AMNE07.jpg,AMNE04.jpg,AMSA11.jpg,MS,2,num_6,32,num_4,1.65006262437,,,2017_Oct_31_1214,60.0029445953,FEMA4ImagesEEG,001,102275,
AFNE01.JPG,AFNE01.JPG,AFNE01.JPG,AFNE01.JPG,AFNE01.JPG,AFNE01.JPG,,,,,3,9,39,0,,,,,,,,,,,,,,,,,,,AMSA08.jpg,AMNE05.jpg,AMSA06.jpg,AMNE08.jpg,AMSA08.jpg,MS,2,num_8,16,num_8,1.11655705399,,,2017_Oct_31_1214,60.0029445953,FEMA4ImagesEEG,001,102275,
AFNE01.JPG,AFNE01.JPG,AFNE01.JPG,AFNE01.JPG,AFNE01.JPG,AFNE01.JPG,,,,,4,0,40,7,,,,,,,,,,,,,,,,,,,AMSA14.jpg,AMSA17.jpg,AMNE15.jpg,AMNE03.jpg,AMSA14.jpg,MS,2,num_8,32,num_6,1.13342410279,,,2017_Oct_31_1214,60.0029445953,FEMA4ImagesEEG,001,102275,
AFNE01.JPG,AFNE01.JPG,AFNE01.JPG,AFNE01.JPG,AFNE01.JPG,AFNE01.JPG,,,,,4,1,41,8,,,,,,,,,,,,,,,,,,,AMNE08.jpg,AMNE19.jpg,AMSA10.jpg,AMSA09.jpg,AMNE08.jpg,MN,1,num_8,32,num_2,2.03334920993,,,2017_Oct_31_1214,60.0029445953,FEMA4ImagesEEG,001,102275,
AFNE01.JPG,AFNE01.JPG,AFNE01.JPG,AFNE01.JPG,AFNE01.JPG,AFNE01.JPG,,,,,4,2,42,5,,,,,,,,,,,,,,,,,,,AMSA05.jpg,AMNE16.jpg,AMSA06.jpg,AMNE20.jpg,AMSA06.jpg,MS,2,num_2,16,num_2,1.00042947009,,,2017_Oct_31_1214,60.0029445953,FEMA4ImagesEEG,001,102275,
AFNE01.JPG,AFNE01.JPG,AFNE01.JPG,AFNE01.JPG,AFNE01.JPG,AFNE01.JPG,,,,,4,3,43,6,,,,,,,,,,,,,,,,,,,AMSA08.jpg,AMNE01.jpg,AMSA02.jpg,AMNE05.jpg,AMNE01.jpg,MN,1,num_6,32,num_2,1.0167345833,,,2017_Oct_31_1214,60.0029445953,FEMA4ImagesEEG,001,102275,
AFNE01.JPG,AFNE01.JPG,AFNE01.JPG,AFNE01.JPG,AFNE01.JPG,AFNE01.JPG,,,,,4,4,44,1,,,,,,,,,,,,,,,,,,,AMNE05.jpg,AMNE17.jpg,AMSA03.jpg,AMSA01.jpg,AMNE17.jpg,MN,1,num_6,16,num_6,0.933589604218,,,2017_Oct_31_1214,60.0029445953,FEMA4ImagesEEG,001,102275,
AFNE01.JPG,AFNE01.JPG,AFNE01.JPG,AFNE01.JPG,AFNE01.JPG,AFNE01.JPG,,,,,4,5,45,2,,,,,,,,,,,,,,,,,,,AMSA19.jpg,AMNE11.jpg,AMSA05.jpg,AMNE17.jpg,AMSA05.jpg,MS,2,num_2,16,num_2,1.10005468619,,,2017_Oct_31_1214,60.0029445953,FEMA4ImagesEEG,001,102275,
AFNE01.JPG,AFNE01.JPG,AFNE01.JPG,AFNE01.JPG,AFNE01.JPG,AFNE01.JPG,,,,,4,6,46,4,,,,,,,,,,,,,,,,,,,AMSA01.jpg,AMNE17.jpg,AMNE20.jpg,AMSA14.jpg,AMNE17.jpg,MN,1,num_6,16,num_6,1.18342193775,,,2017_Oct_31_1214,60.0029445953,FEMA4ImagesEEG,001,102275,
AFNE01.JPG,AFNE01.JPG,AFNE01.JPG,AFNE01.JPG,AFNE01.JPG,AFNE01.JPG,,,,,4,7,47,3,,,,,,,,,,,,,,,,,,,AMSA03.jpg,AMSA19.jpg,AMNE18.jpg,AMNE15.jpg,AMNE15.jpg,MN,1,num_4,32,num_2,1.01673682826,,,2017_Oct_31_1214,60.0029445953,FEMA4ImagesEEG,001,102275,
AFNE01.JPG,AFNE01.JPG,AFNE01.JPG,AFNE01.JPG,AFNE01.JPG,AFNE01.JPG,,,,,4,8,48,0,,,,,,,,,,,,,,,,,,,AMNE16.jpg,AMSA19.jpg,AMNE12.jpg,AMSA02.jpg,AMSA19.jpg,MS,2,num_6,16,num_6,0.883434606716,,,2017_Oct_31_1214,60.0029445953,FEMA4ImagesEEG,001,102275,
AFNE01.JPG,AFNE01.JPG,AFNE01.JPG,AFNE01.JPG,AFNE01.JPG,AFNE01.JPG,,,,,4,9,49,9,,,,,,,,,,,,,,,,,,,AMSA19.jpg,AMSA17.jpg,AMNE01.jpg,AMNE14.jpg,AMNE01.jpg,MN,1,num_2,16,num_2,1.11669882084,,,2017_Oct_31_1214,60.0029445953,FEMA4ImagesEEG,001,102275,
AFNE01.JPG,AFNE01.JPG,AFNE01.JPG,AFNE01.JPG,AFNE01.JPG,AFNE01.JPG,,,,,5,0,50,4,,,,,,,,,,,,,,,,,,,AMNE14.jpg,AMSA13.jpg,AMNE04.jpg,AMSA14.jpg,AMSA14.jpg,MS,2,num_4,16,num_4,0.666818376631,,,2017_Oct_31_1214,60.0029445953,FEMA4ImagesEEG,001,102275,
AFNE01.JPG,AFNE01.JPG,AFNE01.JPG,AFNE01.JPG,AFNE01.JPG,AFNE01.JPG,,,,,5,1,51,0,,,,,,,,,,,,,,,,,,,AMNE04.jpg,AMSA11.jpg,AMSA08.jpg,AMNE07.jpg,AMNE07.jpg,MN,1,num_4,32,num_6,0.733465478057,,,2017_Oct_31_1214,60.0029445953,FEMA4ImagesEEG,001,102275,
AFNE01.JPG,AFNE01.JPG,AFNE01.JPG,AFNE01.JPG,AFNE01.JPG,AFNE01.JPG,,,,,5,2,52,3,,,,,,,,,,,,,,,,,,,AMSA10.jpg,AMNE17.jpg,AMNE02.jpg,AMSA15.jpg,AMSA10.jpg,MS,2,num_8,32,num_4,0.683473095531,,,2017_Oct_31_1214,60.0029445953,FEMA4ImagesEEG,001,102275,
AFNE01.JPG,AFNE01.JPG,AFNE01.JPG,AFNE01.JPG,AFNE01.JPG,AFNE01.JPG,,,,,5,3,53,6,,,,,,,,,,,,,,,,,,,AMSA02.jpg,AMSA01.jpg,AMNE12.jpg,AMNE19.jpg,AMSA01.jpg,MS,2,num_6,32,num_8,1.01676120469,,,2017_Oct_31_1214,60.0029445953,FEMA4ImagesEEG,001,102275,
AFNE01.JPG,AFNE01.JPG,AFNE01.JPG,AFNE01.JPG,AFNE01.JPG,AFNE01.JPG,,,,,5,4,54,1,,,,,,,,,,,,,,,,,,,AMNE20.jpg,AMNE05.jpg,AMSA03.jpg,AMSA07.jpg,AMNE05.jpg,MN,1,num_6,16,num_6,0.633474619128,,,2017_Oct_31_1214,60.0029445953,FEMA4ImagesEEG,001,102275,
AFNE01.JPG,AFNE01.JPG,AFNE01.JPG,AFNE01.JPG,AFNE01.JPG,AFNE01.JPG,,,,,5,5,55,8,,,,,,,,,,,,,,,,,,,AMSA20.jpg,AMNE14.jpg,AMNE02.jpg,AMSA09.jpg,AMSA09.jpg,MS,2,num_4,32,num_8,1.31675559189,,,2017_Oct_31_1214,60.0029445953,FEMA4ImagesEEG,001,102275,
AFNE01.JPG,AFNE01.JPG,AFNE01.JPG,AFNE01.JPG,AFNE01.JPG,AFNE01.JPG,,,,,5,6,56,2,,,,,,,,,,,,,,,,,,,AMNE03.jpg,AMNE18.jpg,AMSA18.jpg,AMSA17.jpg,AMSA18.jpg,MS,2,num_2,16,num_2,1.01673811139,,,2017_Oct_31_1214,60.0029445953,FEMA4ImagesEEG,001,102275,
AFNE01.JPG,AFNE01.JPG,AFNE01.JPG,AFNE01.JPG,AFNE01.JPG,AFNE01.JPG,,,,,5,7,57,9,,,,,,,,,,,,,,,,,,,AMSA19.jpg,AMNE08.jpg,AMNE09.jpg,AMSA06.jpg,AMSA06.jpg,MS,2,num_4,32,num_8,1.18344406877,,,2017_Oct_31_1214,60.0029445953,FEMA4ImagesEEG,001,102275,
AFNE01.JPG,AFNE01.JPG,AFNE01.JPG,AFNE01.JPG,AFNE01.JPG,AFNE01.JPG,,,,,5,8,58,5,,,,,,,,,,,,,,,,,,,AMSA09.jpg,AMSA13.jpg,AMNE13.jpg,AMNE03.jpg,AMNE03.jpg,MN,1,num_4,16,num_4,1.06675166264,,,2017_Oct_31_1214,60.0029445953,FEMA4ImagesEEG,001,102275,
AFNE01.JPG,AFNE01.JPG,AFNE01.JPG,AFNE01.JPG,AFNE01.JPG,AFNE01.JPG,,,,,5,9,59,7,,,,,,,,,,,,,,,,,,,AMSA10.jpg,AMNE03.jpg,AMNE07.jpg,AMSA05.jpg,AMNE07.jpg,MN,1,num_2,32,num_8,1.61667300109,,,2017_Oct_31_1214,60.0029445953,FEMA4ImagesEEG,001,102275,
,,,,,,,,,,,,,,,,,,,,,,,,,,,,,,,,,,,,,,,,,,,space,26.7981323339,2017_Oct_31_1214,60.0029445953,FEMA4ImagesEEG,001,102275,
AFNE01.JPG,AFNE01.JPG,AFNE01.JPG,AFNE01.JPG,AFNE01.JPG,AFNE01.JPG,,,,,,,,,0,0,0,1,,,,,,,,,,,,,,,AFNE07.jpg,AFSA18.jpg,AFSA08.jpg,AFNE14.jpg,AFNE07.jpg,FN,3,num_8,16,num_8,0.883412796538,,,2017_Oct_31_1214,60.0029445953,FEMA4ImagesEEG,001,102275,
AFNE01.JPG,AFNE01.JPG,AFNE01.JPG,AFNE01.JPG,AFNE01.JPG,AFNE01.JPG,,,,,,,,,0,1,1,2,,,,,,,,,,,,,,,AFSA05.jpg,AFNE04.jpg,AFNE15.jpg,AFSA17.jpg,AFSA17.jpg,FS,4,num_4,16,num_4,1.00015523797,,,2017_Oct_31_1214,60.0029445953,FEMA4ImagesEEG,001,102275,
AFNE01.JPG,AFNE01.JPG,AFNE01.JPG,AFNE01.JPG,AFNE01.JPG,AFNE01.JPG,,,,,,,,,0,2,2,9,,,,,,,,,,,,,,,AFNE06.jpg,AFSA08.jpg,AFNE01.jpg,AFSA13.jpg,AFSA13.jpg,FS,4,num_4,16,num_4,0.633338304702,,,2017_Oct_31_1214,60.0029445953,FEMA4ImagesEEG,001,102275,
AFNE01.JPG,AFNE01.JPG,AFNE01.JPG,AFNE01.JPG,AFNE01.JPG,AFNE01.JPG,,,,,,,,,0,3,3,6,,,,,,,,,,,,,,,AFNE13.jpg,AFNE04.jpg,AFSA18.jpg,AFSA17.jpg,AFSA18.jpg,FS,4,num_2,32,num_6,0.866807792103,,,2017_Oct_31_1214,60.0029445953,FEMA4ImagesEEG,001,102275,
AFNE01.JPG,AFNE01.JPG,AFNE01.JPG,AFNE01.JPG,AFNE01.JPG,AFNE01.JPG,,,,,,,,,0,4,4,0,,,,,,,,,,,,,,,AFSA01.jpg,AFSA07.jpg,AFNE04.jpg,AFNE11.jpg,AFSA07.jpg,FS,4,num_6,32,num_2,1.43341688602,,,2017_Oct_31_1214,60.0029445953,FEMA4ImagesEEG,001,102275,
AFNE01.JPG,AFNE01.JPG,AFNE01.JPG,AFNE01.JPG,AFNE01.JPG,AFNE01.JPG,,,,,,,,,0,5,5,5,,,,,,,,,,,,,,,AFNE07.jpg,AFSA20.jpg,AFNE01.jpg,AFSA11.jpg,AFNE01.jpg,FN,3,num_2,32,num_6,0.800111938035,,,2017_Oct_31_1214,60.0029445953,FEMA4ImagesEEG,001,102275,
AFNE01.JPG,AFNE01.JPG,AFNE01.JPG,AFNE01.JPG,AFNE01.JPG,AFNE01.JPG,,,,,,,,,0,6,6,7,,,,,,,,,,,,,,,AFNE11.jpg,AFSA08.jpg,AFNE12.jpg,AFSA13.jpg,AFNE11.jpg,FN,3,num_8,16,num_8,1.44972584792,,,2017_Oct_31_1214,60.0029445953,FEMA4ImagesEEG,001,102275,
AFNE01.JPG,AFNE01.JPG,AFNE01.JPG,AFNE01.JPG,AFNE01.JPG,AFNE01.JPG,,,,,,,,,0,7,7,3,,,,,,,,,,,,,,,AFNE08.jpg,AFSA09.jpg,AFSA05.jpg,AFNE05.jpg,AFSA09.jpg,FS,4,num_6,16,num_6,0.850163978059,,,2017_Oct_31_1214,60.0029445953,FEMA4ImagesEEG,001,102275,
AFNE01.JPG,AFNE01.JPG,AFNE01.JPG,AFNE01.JPG,AFNE01.JPG,AFNE01.JPG,,,,,,,,,0,8,8,4,,,,,,,,,,,,,,,AFNE12.jpg,AFNE05.jpg,AFSA05.jpg,AFSA10.jpg,AFSA05.jpg,FS,4,num_2,32,num_4,1.03341015032,,,2017_Oct_31_1214,60.0029445953,FEMA4ImagesEEG,001,102275,
AFNE01.JPG,AFNE01.JPG,AFNE01.JPG,AFNE01.JPG,AFNE01.JPG,AFNE01.JPG,,,,,,,,,0,9,9,8,,,,,,,,,,,,,,,AFSA02.jpg,AFNE08.jpg,AFNE19.jpg,AFSA07.jpg,AFSA02.jpg,FS,4,num_8,16,num_8,0.883482076228,,,2017_Oct_31_1214,60.0029445953,FEMA4ImagesEEG,001,102275,
AFNE01.JPG,AFNE01.JPG,AFNE01.JPG,AFNE01.JPG,AFNE01.JPG,AFNE01.JPG,,,,,,,,,1,0,10,4,,,,,,,,,,,,,,,AFSA01.jpg,AFNE15.jpg,AFSA14.jpg,AFNE02.jpg,AFSA14.jpg,FS,4,num_2,32,num_4,0.983445351711,,,2017_Oct_31_1214,60.0029445953,FEMA4ImagesEEG,001,102275,
AFNE01.JPG,AFNE01.JPG,AFNE01.JPG,AFNE01.JPG,AFNE01.JPG,AFNE01.JPG,,,,,,,,,1,1,11,6,,,,,,,,,,,,,,,AFNE02.jpg,AFSA20.jpg,AFSA06.jpg,AFNE09.jpg,AFSA06.jpg,FS,4,num_2,32,num_8,1.30003480031,,,2017_Oct_31_1214,60.0029445953,FEMA4ImagesEEG,001,102275,
AFNE01.JPG,AFNE01.JPG,AFNE01.JPG,AFNE01.JPG,AFNE01.JPG,AFNE01.JPG,,,,,,,,,1,2,12,7,,,,,,,,,,,,,,,AFSA02.jpg,AFNE14.jpg,AFNE15.jpg,AFSA10.jpg,AFNE15.jpg,FN,3,num_2,16,num_2,0.91674083774,,,2017_Oct_31_1214,60.0029445953,FEMA4ImagesEEG,001,102275,
AFNE01.JPG,AFNE01.JPG,AFNE01.JPG,AFNE01.JPG,AFNE01.JPG,AFNE01.JPG,,,,,,,,,1,3,13,3,,,,,,,,,,,,,,,AFSA18.jpg,AFSA08.jpg,AFNE05.jpg,AFNE14.jpg,AFSA18.jpg,FS,4,num_8,32,num_6,0.866795924725,,,2017_Oct_31_1214,60.0029445953,FEMA4ImagesEEG,001,102275,
AFNE01.JPG,AFNE01.JPG,AFNE01.JPG,AFNE01.JPG,AFNE01.JPG,AFNE01.JPG,,,,,,,,,1,4,14,2,,,,,,,,,,,,,,,AFSA09.jpg,AFNE02.jpg,AFSA13.jpg,AFNE01.jpg,AFSA09.jpg,FS,4,num_8,16,num_8,1.00014080456,,,2017_Oct_31_1214,60.0029445953,FEMA4ImagesEEG,001,102275,
AFNE01.JPG,AFNE01.JPG,AFNE01.JPG,AFNE01.JPG,AFNE01.JPG,AFNE01.JPG,,,,,,,,,1,5,15,5,,,,,,,,,,,,,,,AFNE06.jpg,AFNE10.jpg,AFSA18.jpg,AFSA16.jpg,AFSA18.jpg,FS,4,num_2,32,num_6,1.21674933727,,,2017_Oct_31_1214,60.0029445953,FEMA4ImagesEEG,001,102275,
AFNE01.JPG,AFNE01.JPG,AFNE01.JPG,AFNE01.JPG,AFNE01.JPG,AFNE01.JPG,,,,,,,,,1,6,16,9,,,,,,,,,,,,,,,AFSA01.jpg,AFNE02.jpg,AFSA19.jpg,AFNE11.jpg,AFSA01.jpg,FS,4,num_8,32,num_6,1.00012765429,,,2017_Oct_31_1214,60.0029445953,FEMA4ImagesEEG,001,102275,
AFNE01.JPG,AFNE01.JPG,AFNE01.JPG,AFNE01.JPG,AFNE01.JPG,AFNE01.JPG,,,,,,,,,1,7,17,8,,,,,,,,,,,,,,,AFNE07.jpg,AFNE10.jpg,AFSA04.jpg,AFSA08.jpg,AFSA04.jpg,FS,4,num_2,16,num_2,1.25013158354,,,2017_Oct_31_1214,60.0029445953,FEMA4ImagesEEG,001,102275,
AFNE01.JPG,AFNE01.JPG,AFNE01.JPG,AFNE01.JPG,AFNE01.JPG,AFNE01.JPG,,,,,,,,,1,8,18,0,,,,,,,,,,,,,,,AFSA15.jpg,AFSA19.jpg,AFNE19.jpg,AFNE03.jpg,AFNE19.jpg,FN,3,num_2,32,num_4,1.08340830612,,,2017_Oct_31_1214,60.0029445953,FEMA4ImagesEEG,001,102275,
AFNE01.JPG,AFNE01.JPG,AFNE01.JPG,AFNE01.JPG,AFNE01.JPG,AFNE01.JPG,,,,,,,,,1,9,19,1,,,,,,,,,,,,,,,AFNE18.jpg,AFNE17.jpg,AFSA10.jpg,AFSA19.jpg,AFSA19.jpg,FS,4,num_4,16,num_4,0.866734022042,,,2017_Oct_31_1214,60.0029445953,FEMA4ImagesEEG,001,102275,
AFNE01.JPG,AFNE01.JPG,AFNE01.JPG,AFNE01.JPG,AFNE01.JPG,AFNE01.JPG,,,,,,,,,2,0,20,7,,,,,,,,,,,,,,,AFNE05.jpg,AFSA03.jpg,AFNE15.jpg,AFSA07.jpg,AFSA07.jpg,FS,4,num_4,32,num_6,0.900394028518,,,2017_Oct_31_1214,60.0029445953,FEMA4ImagesEEG,001,102275,
AFNE01.JPG,AFNE01.JPG,AFNE01.JPG,AFNE01.JPG,AFNE01.JPG,AFNE01.JPG,,,,,,,,,2,1,21,2,,,,,,,,,,,,,,,AFNE12.jpg,AFSA02.jpg,AFSA03.jpg,AFNE11.jpg,AFNE11.jpg,FN,3,num_4,32,num_2,0.966765294084,,,2017_Oct_31_1214,60.0029445953,FEMA4ImagesEEG,001,102275,
AFNE01.JPG,AFNE01.JPG,AFNE01.JPG,AFNE01.JPG,AFNE01.JPG,AFNE01.JPG,,,,,,,,,2,2,22,0,,,,,,,,,,,,,,,AFNE02.jpg,AFSA07.jpg,AFNE12.jpg,AFSA02.jpg,AFNE12.jpg,FN,3,num_2,16,num_2,1.33342730999,,,2017_Oct_31_1214,60.0029445953,FEMA4ImagesEEG,001,102275,
AFNE01.JPG,AFNE01.JPG,AFNE01.JPG,AFNE01.JPG,AFNE01.JPG,AFNE01.JPG,,,,,,,,,2,3,23,1,,,,,,,,,,,,,,,AFSA08.jpg,AFSA05.jpg,AFNE06.jpg,AFNE18.jpg,AFNE18.jpg,FN,3,num_4,16,num_4,0.583509820281,,,2017_Oct_31_1214,60.0029445953,FEMA4ImagesEEG,001,102275,
AFNE01.JPG,AFNE01.JPG,AFNE01.JPG,AFNE01.JPG,AFNE01.JPG,AFNE01.JPG,,,,,,,,,2,4,24,3,,,,,,,,,,,,,,,AFNE19.jpg,AFNE01.jpg,AFSA12.jpg,AFSA20.jpg,AFSA12.jpg,FS,4,num_2,16,num_2,1.30010792869,,,2017_Oct_31_1214,60.0029445953,FEMA4ImagesEEG,001,102275,
AFNE01.JPG,AFNE01.JPG,AFNE01.JPG,AFNE01.JPG,AFNE01.JPG,AFNE01.JPG,,,,,,,,,2,5,25,9,,,,,,,,,,,,,,,AFSA20.jpg,AFNE19.jpg,AFNE16.jpg,AFSA11.jpg,AFSA20.jpg,FS,4,num_8,16,num_8,1.16670435341,,,2017_Oct_31_1214,60.0029445953,FEMA4ImagesEEG,001,102275,
AFNE01.JPG,AFNE01.JPG,AFNE01.JPG,AFNE01.JPG,AFNE01.JPG,AFNE01.JPG,,,,,,,,,2,6,26,8,,,,,,,,,,,,,,,AFNE07.jpg,AFNE05.jpg,AFSA11.jpg,AFSA17.jpg,AFNE05.jpg,FN,3,num_6,32,num_4,1.5000716853,,,2017_Oct_31_1214,60.0029445953,FEMA4ImagesEEG,001,102275,
AFNE01.JPG,AFNE01.JPG,AFNE01.JPG,AFNE01.JPG,AFNE01.JPG,AFNE01.JPG,,,,,,,,,2,7,27,4,,,,,,,,,,,,,,,AFNE13.jpg,AFSA11.jpg,AFNE06.jpg,AFSA17.jpg,AFSA11.jpg,FS,4,num_6,16,num_6,1.73350332514,,,2017_Oct_31_1214,60.0029445953,FEMA4ImagesEEG,001,102275,
AFNE01.JPG,AFNE01.JPG,AFNE01.JPG,AFNE01.JPG,AFNE01.JPG,AFNE01.JPG,,,,,,,,,2,8,28,5,,,,,,,,,,,,,,,AFNE20.jpg,AFNE10.jpg,AFSA03.jpg,AFSA08.jpg,AFNE20.jpg,FN,3,num_8,32,num_2,1.58336837403,,,2017_Oct_31_1214,60.0029445953,FEMA4ImagesEEG,001,102275,
AFNE01.JPG,AFNE01.JPG,AFNE01.JPG,AFNE01.JPG,AFNE01.JPG,AFNE01.JPG,,,,,,,,,2,9,29,6,,,,,,,,,,,,,,,AFNE13.jpg,AFSA03.jpg,AFSA13.jpg,AFNE02.jpg,AFNE13.jpg,FN,3,num_8,16,num_8,1.15008170833,,,2017_Oct_31_1214,60.0029445953,FEMA4ImagesEEG,001,102275,
AFNE01.JPG,AFNE01.JPG,AFNE01.JPG,AFNE01.JPG,AFNE01.JPG,AFNE01.JPG,,,,,,,,,3,0,30,3,,,,,,,,,,,,,,,AFSA13.jpg,AFSA15.jpg,AFNE09.jpg,AFNE18.jpg,AFSA13.jpg,FS,4,num_8,32,num_6,1.13372046594,,,2017_Oct_31_1214,60.0029445953,FEMA4ImagesEEG,001,102275,
AFNE01.JPG,AFNE01.JPG,AFNE01.JPG,AFNE01.JPG,AFNE01.JPG,AFNE01.JPG,,,,,,,,,3,1,31,8,,,,,,,,,,,,,,,AFSA08.jpg,AFNE17.jpg,AFSA13.jpg,AFNE04.jpg,AFSA08.jpg,FS,4,num_8,32,num_4,1.41671469738,,,2017_Oct_31_1214,60.0029445953,FEMA4ImagesEEG,001,102275,
AFNE01.JPG,AFNE01.JPG,AFNE01.JPG,AFNE01.JPG,AFNE01.JPG,AFNE01.JPG,,,,,,,,,3,2,32,1,,,,,,,,,,,,,,,AFSA04.jpg,AFNE12.jpg,AFNE20.jpg,AFSA19.jpg,AFNE20.jpg,FN,3,num_2,32,num_8,1.23342650826,,,2017_Oct_31_1214,60.0029445953,FEMA4ImagesEEG,001,102275,
AFNE01.JPG,AFNE01.JPG,AFNE01.JPG,AFNE01.JPG,AFNE01.JPG,AFNE01.JPG,,,,,,,,,3,3,33,6,,,,,,,,,,,,,,,AFNE01.jpg,AFSA09.jpg,AFSA01.jpg,AFNE19.jpg,AFSA09.jpg,FS,4,num_6,32,num_4,0.866802339442,,,2017_Oct_31_1214,60.0029445953,FEMA4ImagesEEG,001,102275,
AFNE01.JPG,AFNE01.JPG,AFNE01.JPG,AFNE01.JPG,AFNE01.JPG,AFNE01.JPG,,,,,,,,,3,4,34,4,,,,,,,,,,,,,,,AFNE15.jpg,AFSA15.jpg,AFSA19.jpg,AFNE02.jpg,AFSA19.jpg,FS,4,num_2,16,num_2,1.0834445497,,,2017_Oct_31_1214,60.0029445953,FEMA4ImagesEEG,001,102275,
AFNE01.JPG,AFNE01.JPG,AFNE01.JPG,AFNE01.JPG,AFNE01.JPG,AFNE01.JPG,,,,,,,,,3,5,35,7,,,,,,,,,,,,,,,AFSA04.jpg,AFNE10.jpg,AFSA12.jpg,AFNE02.jpg,AFSA04.jpg,FS,4,num_8,32,num_6,1.10008900519,,,2017_Oct_31_1214,60.0029445953,FEMA4ImagesEEG,001,102275,
AFNE01.JPG,AFNE01.JPG,AFNE01.JPG,AFNE01.JPG,AFNE01.JPG,AFNE01.JPG,,,,,,,,,3,6,36,9,,,,,,,,,,,,,,,AFSA12.jpg,AFSA01.jpg,AFNE19.jpg,AFNE03.jpg,AFNE19.jpg,FN,3,num_2,16,num_2,1.05008828337,,,2017_Oct_31_1214,60.0029445953,FEMA4ImagesEEG,001,102275,
AFNE01.JPG,AFNE01.JPG,AFNE01.JPG,AFNE01.JPG,AFNE01.JPG,AFNE01.JPG,,,,,,,,,3,7,37,0,,,,,,,,,,,,,,,AFSA16.jpg,AFNE20.jpg,AFNE11.jpg,AFSA10.jpg,AFNE20.jpg,FN,3,num_6,32,num_8,1.25010271673,,,2017_Oct_31_1214,60.0029445953,FEMA4ImagesEEG,001,102275,
AFNE01.JPG,AFNE01.JPG,AFNE01.JPG,AFNE01.JPG,AFNE01.JPG,AFNE01.JPG,,,,,,,,,3,8,38,5,,,,,,,,,,,,,,,AFSA11.jpg,AFNE06.jpg,AFNE19.jpg,AFSA02.jpg,AFSA02.jpg,FS,4,num_4,32,num_2,0.916777081089,,,2017_Oct_31_1214,60.0029445953,FEMA4ImagesEEG,001,102275,
AFNE01.JPG,AFNE01.JPG,AFNE01.JPG,AFNE01.JPG,AFNE01.JPG,AFNE01.JPG,,,,,,,,,3,9,39,2,,,,,,,,,,,,,,,AFNE17.jpg,AFNE13.jpg,AFSA18.jpg,AFSA09.jpg,AFNE17.jpg,FN,3,num_8,32,num_6,0.733471892774,,,2017_Oct_31_1214,60.0029445953,FEMA4ImagesEEG,001,102275,
AFNE01.JPG,AFNE01.JPG,AFNE01.JPG,AFNE01.JPG,AFNE01.JPG,AFNE01.JPG,,,,,,,,,4,0,40,9,,,,,,,,,,,,,,,AFNE15.jpg,AFNE06.jpg,AFSA18.jpg,AFSA09.jpg,AFNE06.jpg,FN,3,num_6,16,num_6,0.916741479188,,,2017_Oct_31_1214,60.0029445953,FEMA4ImagesEEG,001,102275,
AFNE01.JPG,AFNE01.JPG,AFNE01.JPG,AFNE01.JPG,AFNE01.JPG,AFNE01.JPG,,,,,,,,,4,1,41,8,,,,,,,,,,,,,,,AFSA17.jpg,AFNE05.jpg,AFNE08.jpg,AFSA08.jpg,AFNE08.jpg,FN,3,num_2,32,num_8,1.9166908022,,,2017_Oct_31_1214,60.0029445953,FEMA4ImagesEEG,001,102275,
AFNE01.JPG,AFNE01.JPG,AFNE01.JPG,AFNE01.JPG,AFNE01.JPG,AFNE01.JPG,,,,,,,,,4,2,42,6,,,,,,,,,,,,,,,AFNE20.jpg,AFSA14.jpg,AFSA15.jpg,AFNE15.jpg,AFNE20.jpg,FN,3,num_8,32,num_2,1.60004618648,,,2017_Oct_31_1214,60.0029445953,FEMA4ImagesEEG,001,102275,
AFNE01.JPG,AFNE01.JPG,AFNE01.JPG,AFNE01.JPG,AFNE01.JPG,AFNE01.JPG,,,,,,,,,4,3,43,7,,,,,,,,,,,,,,,AFNE07.jpg,AFNE05.jpg,AFSA06.jpg,AFSA02.jpg,AFNE07.jpg,FN,3,num_8,32,num_4,1.15008331207,,,2017_Oct_31_1214,60.0029445953,FEMA4ImagesEEG,001,102275,
AFNE01.JPG,AFNE01.JPG,AFNE01.JPG,AFNE01.JPG,AFNE01.JPG,AFNE01.JPG,,,,,,,,,4,4,44,4,,,,,,,,,,,,,,,AFSA17.jpg,AFNE07.jpg,AFNE10.jpg,AFSA01.jpg,AFNE07.jpg,FN,3,num_6,16,num_6,0.566760482965,,,2017_Oct_31_1214,60.0029445953,FEMA4ImagesEEG,001,102275,
AFNE01.JPG,AFNE01.JPG,AFNE01.JPG,AFNE01.JPG,AFNE01.JPG,AFNE01.JPG,,,,,,,,,4,5,45,1,,,,,,,,,,,,,,,AFNE07.jpg,AFSA14.jpg,AFNE14.jpg,AFSA03.jpg,AFSA14.jpg,FS,4,num_6,32,num_8,0.983403014019,,,2017_Oct_31_1214,60.0029445953,FEMA4ImagesEEG,001,102275,
AFNE01.JPG,AFNE01.JPG,AFNE01.JPG,AFNE01.JPG,AFNE01.JPG,AFNE01.JPG,,,,,,,,,4,6,46,2,,,,,,,,,,,,,,,AFSA12.jpg,AFNE07.jpg,AFNE04.jpg,AFSA19.jpg,AFNE07.jpg,FN,3,num_6,32,num_2,0.900143210078,,,2017_Oct_31_1214,60.0029445953,FEMA4ImagesEEG,001,102275,
AFNE01.JPG,AFNE01.JPG,AFNE01.JPG,AFNE01.JPG,AFNE01.JPG,AFNE01.JPG,,,,,,,,,4,7,47,5,,,,,,,,,,,,,,,AFNE06.jpg,AFSA08.jpg,AFSA15.jpg,AFNE12.jpg,AFSA15.jpg,FS,4,num_2,32,num_6,1.26671573962,,,2017_Oct_31_1214,60.0029445953,FEMA4ImagesEEG,001,102275,
AFNE01.JPG,AFNE01.JPG,AFNE01.JPG,AFNE01.JPG,AFNE01.JPG,AFNE01.JPG,,,,,,,,,4,8,48,3,,,,,,,,,,,,,,,AFSA13.jpg,AFNE20.jpg,AFNE16.jpg,AFSA08.jpg,AFNE20.jpg,FN,3,num_6,32,num_2,0.783562742407,,,2017_Oct_31_1214,60.0029445953,FEMA4ImagesEEG,001,102275,
AFNE01.JPG,AFNE01.JPG,AFNE01.JPG,AFNE01.JPG,AFNE01.JPG,AFNE01.JPG,,,,,,,,,4,9,49,0,,,,,,,,,,,,,,,AFSA14.jpg,AFSA01.jpg,AFNE01.jpg,AFNE04.jpg,AFNE04.jpg,FN,3,num_4,16,num_4,0.599782859441,,,2017_Oct_31_1214,60.0029445953,FEMA4ImagesEEG,001,102275,
AFNE01.JPG,AFNE01.JPG,AFNE01.JPG,AFNE01.JPG,AFNE01.JPG,AFNE01.JPG,,,,,,,,,5,0,50,0,,,,,,,,,,,,,,,AFNE18.jpg,AFNE14.jpg,AFSA09.jpg,AFSA11.jpg,AFNE18.jpg,FN,3,num_8,16,num_8,1.0334447904,,,2017_Oct_31_1214,60.0029445953,FEMA4ImagesEEG,001,102275,
AFNE01.JPG,AFNE01.JPG,AFNE01.JPG,AFNE01.JPG,AFNE01.JPG,AFNE01.JPG,,,,,,,,,5,1,51,7,,,,,,,,,,,,,,,AFNE17.jpg,AFNE13.jpg,AFSA06.jpg,AFSA07.jpg,AFSA07.jpg,FS,4,num_4,32,num_6,1.13345713867,,,2017_Oct_31_1214,60.0029445953,FEMA4ImagesEEG,001,102275,
AFNE01.JPG,AFNE01.JPG,AFNE01.JPG,AFNE01.JPG,AFNE01.JPG,AFNE01.JPG,,,,,,,,,5,2,52,4,,,,,,,,,,,,,,,AFSA05.jpg,AFNE15.jpg,AFNE19.jpg,AFSA16.jpg,AFNE15.jpg,FN,3,num_6,16,num_6,0.950140403816,,,2017_Oct_31_1214,60.0029445953,FEMA4ImagesEEG,001,102275,
AFNE01.JPG,AFNE01.JPG,AFNE01.JPG,AFNE01.JPG,AFNE01.JPG,AFNE01.JPG,,,,,,,,,5,3,53,8,,,,,,,,,,,,,,,AFNE02.jpg,AFSA18.jpg,AFSA05.jpg,AFNE05.jpg,AFSA18.jpg,FS,4,num_6,16,num_6,0.950133347418,,,2017_Oct_31_1214,60.0029445953,FEMA4ImagesEEG,001,102275,
AFNE01.JPG,AFNE01.JPG,AFNE01.JPG,AFNE01.JPG,AFNE01.JPG,AFNE01.JPG,,,,,,,,,5,4,54,2,,,,,,,,,,,,,,,AFSA05.jpg,AFNE13.jpg,AFSA07.jpg,AFNE16.jpg,AFSA07.jpg,FS,4,num_2,32,num_8,0.650185146835,,,2017_Oct_31_1214,60.0029445953,FEMA4ImagesEEG,001,102275,
AFNE01.JPG,AFNE01.JPG,AFNE01.JPG,AFNE01.JPG,AFNE01.JPG,AFNE01.JPG,,,,,,,,,5,5,55,1,,,,,,,,,,,,,,,AFSA06.jpg,AFSA17.jpg,AFNE16.jpg,AFNE17.jpg,AFSA06.jpg,FS,4,num_8,32,num_6,0.733461949741,,,2017_Oct_31_1214,60.0029445953,FEMA4ImagesEEG,001,102275,
AFNE01.JPG,AFNE01.JPG,AFNE01.JPG,AFNE01.JPG,AFNE01.JPG,AFNE01.JPG,,,,,,,,,5,6,56,3,,,,,,,,,,,,,,,AFSA20.jpg,AFNE14.jpg,AFSA13.jpg,AFNE01.jpg,AFSA20.jpg,FS,4,num_8,32,num_4,1.23339700024,,,2017_Oct_31_1214,60.0029445953,FEMA4ImagesEEG,001,102275,
AFNE01.JPG,AFNE01.JPG,AFNE01.JPG,AFNE01.JPG,AFNE01.JPG,AFNE01.JPG,,,,,,,,,5,7,57,9,,,,,,,,,,,,,,,AFSA01.jpg,AFSA07.jpg,AFNE04.jpg,AFNE14.jpg,AFNE14.jpg,FN,3,num_4,32,num_6,1.55005893577,,,2017_Oct_31_1214,60.0029445953,FEMA4ImagesEEG,001,102275,
AFNE01.JPG,AFNE01.JPG,AFNE01.JPG,AFNE01.JPG,AFNE01.JPG,AFNE01.JPG,,,,,,,,,5,8,58,5,,,,,,,,,,,,,,,AFNE07.jpg,AFNE17.jpg,AFSA02.jpg,AFSA08.jpg,AFNE17.jpg,FN,3,num_6,32,num_8,1.16675438872,,,2017_Oct_31_1214,60.0029445953,FEMA4ImagesEEG,001,102275,
AFNE01.JPG,AFNE01.JPG,AFNE01.JPG,AFNE01.JPG,AFNE01.JPG,AFNE01.JPG,,,,,,,,,5,9,59,6,,,,,,,,,,,,,,,AFNE20.jpg,AFSA06.jpg,AFNE05.jpg,AFSA09.jpg,AFSA06.jpg,FS,4,num_6,32,num_4,1.15009165136,,,2017_Oct_31_1214,60.0029445953,FEMA4ImagesEEG,001,102275,
,,,,,,,,,,,,,,,,,,,,,,,,,,,,,,,,,,,,,,,,,,,space,4.44951704657,2017_Oct_31_1214,60.0029445953,FEMA4ImagesEEG,001,102275,
AFNE01.JPG,AFNE01.JPG,AFNE01.JPG,AFNE01.JPG,AFNE01.JPG,AFNE01.JPG,,,,,,,,,,,,,0,0,0,5,,,,,,,,,,,AMNE14.jpg,AMNE05.jpg,AMSA03.jpg,AMSA16.jpg,AMSA03.jpg,MS,2,num_2,16,num_2,1.15010031126,,,2017_Oct_31_1214,60.0029445953,FEMA4ImagesEEG,001,102275,
AFNE01.JPG,AFNE01.JPG,AFNE01.JPG,AFNE01.JPG,AFNE01.JPG,AFNE01.JPG,,,,,,,,,,,,,0,1,1,0,,,,,,,,,,,AMSA07.jpg,AMNE01.jpg,AMNE08.jpg,AMSA12.jpg,AMNE08.jpg,MN,1,num_2,16,num_2,1.05009341519,,,2017_Oct_31_1214,60.0029445953,FEMA4ImagesEEG,001,102275,
AFNE01.JPG,AFNE01.JPG,AFNE01.JPG,AFNE01.JPG,AFNE01.JPG,AFNE01.JPG,,,,,,,,,,,,,0,2,2,6,,,,,,,,,,,AMNE17.jpg,AMNE03.jpg,AMSA15.jpg,AMSA14.jpg,AMNE17.jpg,MN,1,num_8,16,num_8,1.13341993303,,,2017_Oct_31_1214,60.0029445953,FEMA4ImagesEEG,001,102275,
AFNE01.JPG,AFNE01.JPG,AFNE01.JPG,AFNE01.JPG,AFNE01.JPG,AFNE01.JPG,,,,,,,,,,,,,0,3,3,1,,,,,,,,,,,AMNE15.jpg,AMSA11.jpg,AMNE20.jpg,AMSA17.jpg,AMSA11.jpg,MS,2,num_6,16,num_6,1.00012989948,,,2017_Oct_31_1214,60.0029445953,FEMA4ImagesEEG,001,102275,
AFNE01.JPG,AFNE01.JPG,AFNE01.JPG,AFNE01.JPG,AFNE01.JPG,AFNE01.JPG,,,,,,,,,,,,,0,4,4,3,,,,,,,,,,,AMNE10.jpg,AMNE12.jpg,AMSA16.jpg,AMSA08.jpg,AMNE10.jpg,MN,1,num_8,16,num_8,1.16676176596,,,2017_Oct_31_1214,60.0029445953,FEMA4ImagesEEG,001,102275,
AFNE01.JPG,AFNE01.JPG,AFNE01.JPG,AFNE01.JPG,AFNE01.JPG,AFNE01.JPG,,,,,,,,,,,,,0,5,5,7,,,,,,,,,,,AMNE08.jpg,AMNE14.jpg,AMSA01.jpg,AMSA02.jpg,AMNE14.jpg,MN,1,num_6,32,num_8,0.983424182748,,,2017_Oct_31_1214,60.0029445953,FEMA4ImagesEEG,001,102275,
AFNE01.JPG,AFNE01.JPG,AFNE01.JPG,AFNE01.JPG,AFNE01.JPG,AFNE01.JPG,,,,,,,,,,,,,0,6,6,2,,,,,,,,,,,AMNE05.jpg,AMNE20.jpg,AMSA12.jpg,AMSA11.jpg,AMSA11.jpg,MS,2,num_4,16,num_4,1.50007040217,,,2017_Oct_31_1214,60.0029445953,FEMA4ImagesEEG,001,102275,
AFNE01.JPG,AFNE01.JPG,AFNE01.JPG,AFNE01.JPG,AFNE01.JPG,AFNE01.JPG,,,,,,,,,,,,,0,7,7,9,,,,,,,,,,,AMNE06.jpg,AMSA18.jpg,AMSA11.jpg,AMNE12.jpg,AMSA11.jpg,MS,2,num_2,16,num_2,0.583856860409,,,2017_Oct_31_1214,60.0029445953,FEMA4ImagesEEG,001,102275,
AFNE01.JPG,AFNE01.JPG,AFNE01.JPG,AFNE01.JPG,AFNE01.JPG,AFNE01.JPG,,,,,,,,,,,,,0,8,8,8,,,,,,,,,,,AMSA07.jpg,AMSA04.jpg,AMNE04.jpg,AMNE01.jpg,AMSA04.jpg,MS,2,num_6,32,num_2,2.43330591009,,,2017_Oct_31_1214,60.0029445953,FEMA4ImagesEEG,001,102275,
AFNE01.JPG,AFNE01.JPG,AFNE01.JPG,AFNE01.JPG,AFNE01.JPG,AFNE01.JPG,,,,,,,,,,,,,0,9,9,4,,,,,,,,,,,AMSA06.jpg,AMSA03.jpg,AMNE01.jpg,AMNE17.jpg,AMSA06.jpg,MS,2,num_8,16,num_8,0.966789990896,,,2017_Oct_31_1214,60.0029445953,FEMA4ImagesEEG,001,102275,
AFNE01.JPG,AFNE01.JPG,AFNE01.JPG,AFNE01.JPG,AFNE01.JPG,AFNE01.JPG,,,,,,,,,,,,,1,0,10,7,,,,,,,,,,,AMSA19.jpg,AMSA05.jpg,AMNE09.jpg,AMNE20.jpg,AMNE20.jpg,MN,1,num_4,16,num_4,0.966769143008,,,2017_Oct_31_1214,60.0029445953,FEMA4ImagesEEG,001,102275,
AFNE01.JPG,AFNE01.JPG,AFNE01.JPG,AFNE01.JPG,AFNE01.JPG,AFNE01.JPG,,,,,,,,,,,,,1,1,11,4,,,,,,,,,,,AMSA19.jpg,AMNE01.jpg,AMSA17.jpg,AMNE20.jpg,AMSA19.jpg,MS,2,num_8,16,num_8,2.18322564522,,,2017_Oct_31_1214,60.0029445953,FEMA4ImagesEEG,001,102275,
AFNE01.JPG,AFNE01.JPG,AFNE01.JPG,AFNE01.JPG,AFNE01.JPG,AFNE01.JPG,,,,,,,,,,,,,1,2,12,6,,,,,,,,,,,AMSA05.jpg,AMNE13.jpg,AMSA13.jpg,AMNE02.jpg,AMNE02.jpg,MN,1,num_4,32,num_6,2.16696254886,,,2017_Oct_31_1214,60.0029445953,FEMA4ImagesEEG,001,102275,
AFNE01.JPG,AFNE01.JPG,AFNE01.JPG,AFNE01.JPG,AFNE01.JPG,AFNE01.JPG,,,,,,,,,,,,,1,3,13,9,,,,,,,,,,,AMNE04.jpg,AMSA08.jpg,AMNE11.jpg,AMSA05.jpg,AMSA05.jpg,MS,2,num_4,32,num_2,2.28331015981,,,2017_Oct_31_1214,60.0029445953,FEMA4ImagesEEG,001,102275,
AFNE01.JPG,AFNE01.JPG,AFNE01.JPG,AFNE01.JPG,AFNE01.JPG,AFNE01.JPG,,,,,,,,,,,,,1,4,14,0,,,,,,,,,,,AMSA03.jpg,AMNE02.jpg,AMSA10.jpg,AMNE01.jpg,AMNE02.jpg,MN,1,num_6,16,num_6,1.06677251076,,,2017_Oct_31_1214,60.0029445953,FEMA4ImagesEEG,001,102275,
AFNE01.JPG,AFNE01.JPG,AFNE01.JPG,AFNE01.JPG,AFNE01.JPG,AFNE01.JPG,,,,,,,,,,,,,1,5,15,1,,,,,,,,,,,AMSA01.jpg,AMNE11.jpg,AMSA03.jpg,AMNE04.jpg,AMSA01.jpg,MS,2,num_8,16,num_8,2.18334367732,,,2017_Oct_31_1214,60.0029445953,FEMA4ImagesEEG,001,102275,
AFNE01.JPG,AFNE01.JPG,AFNE01.JPG,AFNE01.JPG,AFNE01.JPG,AFNE01.JPG,,,,,,,,,,,,,1,6,16,3,,,,,,,,,,,AMNE10.jpg,AMSA13.jpg,AMSA04.jpg,AMNE17.jpg,AMNE17.jpg,MN,1,num_4,32,num_8,1.03340758453,,,2017_Oct_31_1214,60.0029445953,FEMA4ImagesEEG,001,102275,
AFNE01.JPG,AFNE01.JPG,AFNE01.JPG,AFNE01.JPG,AFNE01.JPG,AFNE01.JPG,,,,,,,,,,,,,1,7,17,5,,,,,,,,,,,AMSA02.jpg,AMSA12.jpg,AMNE13.jpg,AMNE03.jpg,AMNE13.jpg,MN,1,num_2,16,num_2,1.45012131962,,,2017_Oct_31_1214,60.0029445953,FEMA4ImagesEEG,001,102275,
AFNE01.JPG,AFNE01.JPG,AFNE01.JPG,AFNE01.JPG,AFNE01.JPG,AFNE01.JPG,,,,,,,,,,,,,1,8,18,2,,,,,,,,,,,AMNE19.jpg,AMSA20.jpg,AMSA17.jpg,AMNE09.jpg,AMNE19.jpg,MN,1,num_8,32,num_4,0.883435569005,,,2017_Oct_31_1214,60.0029445953,FEMA4ImagesEEG,001,102275,
AFNE01.JPG,AFNE01.JPG,AFNE01.JPG,AFNE01.JPG,AFNE01.JPG,AFNE01.JPG,,,,,,,,,,,,,1,9,19,8,,,,,,,,,,,AMSA19.jpg,AMSA10.jpg,AMNE11.jpg,AMNE17.jpg,AMSA19.jpg,MS,2,num_8,16,num_8,1.33342153672,,,2017_Oct_31_1214,60.0029445953,FEMA4ImagesEEG,001,102275,
AFNE01.JPG,AFNE01.JPG,AFNE01.JPG,AFNE01.JPG,AFNE01.JPG,AFNE01.JPG,,,,,,,,,,,,,2,0,20,1,,,,,,,,,,,AMNE14.jpg,AMNE08.jpg,AMSA08.jpg,AMSA20.jpg,AMSA20.jpg,MS,2,num_4,16,num_4,0.916721913964,,,2017_Oct_31_1214,60.0029445953,FEMA4ImagesEEG,001,102275,
AFNE01.JPG,AFNE01.JPG,AFNE01.JPG,AFNE01.JPG,AFNE01.JPG,AFNE01.JPG,,,,,,,,,,,,,2,1,21,7,,,,,,,,,,,AMSA05.jpg,AMSA15.jpg,AMNE19.jpg,AMNE11.jpg,AMNE11.jpg,MN,1,num_4,32,num_8,1.03343869629,,,2017_Oct_31_1214,60.0029445953,FEMA4ImagesEEG,001,102275,
AFNE01.JPG,AFNE01.JPG,AFNE01.JPG,AFNE01.JPG,AFNE01.JPG,AFNE01.JPG,,,,,,,,,,,,,2,2,22,8,,,,,,,,,,,AMNE11.jpg,AMNE15.jpg,AMSA03.jpg,AMSA09.jpg,AMSA03.jpg,MS,2,num_2,16,num_2,0.566820461303,,,2017_Oct_31_1214,60.0029445953,FEMA4ImagesEEG,001,102275,
AFNE01.JPG,AFNE01.JPG,AFNE01.JPG,AFNE01.JPG,AFNE01.JPG,AFNE01.JPG,,,,,,,,,,,,,2,3,23,3,,,,,,,,,,,AMSA10.jpg,AMNE05.jpg,AMNE11.jpg,AMSA17.jpg,AMNE11.jpg,MN,1,num_2,32,num_8,1.28344070097,,,2017_Oct_31_1214,60.0029445953,FEMA4ImagesEEG,001,102275,
AFNE01.JPG,AFNE01.JPG,AFNE01.JPG,AFNE01.JPG,AFNE01.JPG,AFNE01.JPG,,,,,,,,,,,,,2,4,24,4,,,,,,,,,,,AMSA03.jpg,AMSA08.jpg,AMNE18.jpg,AMNE12.jpg,AMSA08.jpg,MS,2,num_6,32,num_2,1.15012244228,,,2017_Oct_31_1214,60.0029445953,FEMA4ImagesEEG,001,102275,
AFNE01.JPG,AFNE01.JPG,AFNE01.JPG,AFNE01.JPG,AFNE01.JPG,AFNE01.JPG,,,,,,,,,,,,,2,5,25,0,,,,,,,,,,,AMSA02.jpg,AMNE04.jpg,AMSA13.jpg,AMNE05.jpg,AMSA02.jpg,MS,2,num_8,16,num_8,1.10010215547,,,2017_Oct_31_1214,60.0029445953,FEMA4ImagesEEG,001,102275,
AFNE01.JPG,AFNE01.JPG,AFNE01.JPG,AFNE01.JPG,AFNE01.JPG,AFNE01.JPG,,,,,,,,,,,,,2,6,26,6,,,,,,,,,,,AMSA07.jpg,AMNE17.jpg,AMNE20.jpg,AMSA03.jpg,AMNE17.jpg,MN,1,num_6,16,num_6,0.733464515768,,,2017_Oct_31_1214,60.0029445953,FEMA4ImagesEEG,001,102275,
AFNE01.JPG,AFNE01.JPG,AFNE01.JPG,AFNE01.JPG,AFNE01.JPG,AFNE01.JPG,,,,,,,,,,,,,2,7,27,9,,,,,,,,,,,AMNE16.jpg,AMSA15.jpg,AMNE07.jpg,AMSA19.jpg,AMNE07.jpg,MN,1,num_2,32,num_8,0.633488731459,,,2017_Oct_31_1214,60.0029445953,FEMA4ImagesEEG,001,102275,
AFNE01.JPG,AFNE01.JPG,AFNE01.JPG,AFNE01.JPG,AFNE01.JPG,AFNE01.JPG,,,,,,,,,,,,,2,8,28,5,,,,,,,,,,,AMNE03.jpg,AMSA18.jpg,AMNE06.jpg,AMSA06.jpg,AMNE03.jpg,MN,1,num_8,32,num_4,1.63350733439,,,2017_Oct_31_1214,60.0029445953,FEMA4ImagesEEG,001,102275,
AFNE01.JPG,AFNE01.JPG,AFNE01.JPG,AFNE01.JPG,AFNE01.JPG,AFNE01.JPG,,,,,,,,,,,,,2,9,29,2,,,,,,,,,,,AMSA19.jpg,AMNE01.jpg,AMNE05.jpg,AMSA05.jpg,AMNE01.jpg,MN,1,num_6,16,num_6,0.800119956722,,,2017_Oct_31_1214,60.0029445953,FEMA4ImagesEEG,001,102275,
AFNE01.JPG,AFNE01.JPG,AFNE01.JPG,AFNE01.JPG,AFNE01.JPG,AFNE01.JPG,,,,,,,,,,,,,3,0,30,4,,,,,,,,,,,AMNE13.jpg,AMNE20.jpg,AMSA15.jpg,AMSA19.jpg,AMSA19.jpg,MS,2,num_4,32,num_8,0.883716857759,,,2017_Oct_31_1214,60.0029445953,FEMA4ImagesEEG,001,102275,
AFNE01.JPG,AFNE01.JPG,AFNE01.JPG,AFNE01.JPG,AFNE01.JPG,AFNE01.JPG,,,,,,,,,,,,,3,1,31,2,,,,,,,,,,,AMNE11.jpg,AMNE17.jpg,AMSA19.jpg,AMSA05.jpg,AMSA19.jpg,MS,2,num_2,16,num_2,0.366695372853,,,2017_Oct_31_1214,60.0029445953,FEMA4ImagesEEG,001,102275,
AFNE01.JPG,AFNE01.JPG,AFNE01.JPG,AFNE01.JPG,AFNE01.JPG,AFNE01.JPG,,,,,,,,,,,,,3,2,32,6,,,,,,,,,,,AMSA12.jpg,AMNE06.jpg,AMSA19.jpg,AMNE13.jpg,AMSA19.jpg,MS,2,num_2,16,num_2,0.916752384277,,,2017_Oct_31_1214,60.0029445953,FEMA4ImagesEEG,001,102275,
AFNE01.JPG,AFNE01.JPG,AFNE01.JPG,AFNE01.JPG,AFNE01.JPG,AFNE01.JPG,,,,,,,,,,,,,3,3,33,8,,,,,,,,,,,AMNE13.jpg,AMSA11.jpg,AMSA03.jpg,AMNE03.jpg,AMNE13.jpg,MN,1,num_8,16,num_8,0.966760803713,,,2017_Oct_31_1214,60.0029445953,FEMA4ImagesEEG,001,102275,
AFNE01.JPG,AFNE01.JPG,AFNE01.JPG,AFNE01.JPG,AFNE01.JPG,AFNE01.JPG,,,,,,,,,,,,,3,4,34,9,,,,,,,,,,,AMNE17.jpg,AMSA18.jpg,AMNE02.jpg,AMSA06.jpg,AMSA06.jpg,MS,2,num_4,32,num_8,0.933423781767,,,2017_Oct_31_1214,60.0029445953,FEMA4ImagesEEG,001,102275,
AFNE01.JPG,AFNE01.JPG,AFNE01.JPG,AFNE01.JPG,AFNE01.JPG,AFNE01.JPG,,,,,,,,,,,,,3,5,35,0,,,,,,,,,,,AMSA16.jpg,AMNE08.jpg,AMNE05.jpg,AMSA13.jpg,AMNE08.jpg,MN,1,num_6,32,num_4,0.900085156318,,,2017_Oct_31_1214,60.0029445953,FEMA4ImagesEEG,001,102275,
AFNE01.JPG,AFNE01.JPG,AFNE01.JPG,AFNE01.JPG,AFNE01.JPG,AFNE01.JPG,,,,,,,,,,,,,3,6,36,7,,,,,,,,,,,AMNE08.jpg,AMNE13.jpg,AMSA11.jpg,AMSA13.jpg,AMSA13.jpg,MS,2,num_4,16,num_4,0.950155799277,,,2017_Oct_31_1214,60.0029445953,FEMA4ImagesEEG,001,102275,
AFNE01.JPG,AFNE01.JPG,AFNE01.JPG,AFNE01.JPG,AFNE01.JPG,AFNE01.JPG,,,,,,,,,,,,,3,7,37,5,,,,,,,,,,,AMNE09.jpg,AMNE03.jpg,AMSA10.jpg,AMSA18.jpg,AMSA10.jpg,MS,2,num_2,32,num_4,0.800092052203,,,2017_Oct_31_1214,60.0029445953,FEMA4ImagesEEG,001,102275,
AFNE01.JPG,AFNE01.JPG,AFNE01.JPG,AFNE01.JPG,AFNE01.JPG,AFNE01.JPG,,,,,,,,,,,,,3,8,38,3,,,,,,,,,,,AMNE01.jpg,AMNE16.jpg,AMSA13.jpg,AMSA02.jpg,AMNE16.jpg,MN,1,num_6,32,num_8,0.783467161935,,,2017_Oct_31_1214,60.0029445953,FEMA4ImagesEEG,001,102275,
AFNE01.JPG,AFNE01.JPG,AFNE01.JPG,AFNE01.JPG,AFNE01.JPG,AFNE01.JPG,,,,,,,,,,,,,3,9,39,1,,,,,,,,,,,AMNE08.jpg,AMSA13.jpg,AMSA03.jpg,AMNE04.jpg,AMNE04.jpg,MN,1,num_4,32,num_2,1.15003391821,,,2017_Oct_31_1214,60.0029445953,FEMA4ImagesEEG,001,102275,
AFNE01.JPG,AFNE01.JPG,AFNE01.JPG,AFNE01.JPG,AFNE01.JPG,AFNE01.JPG,,,,,,,,,,,,,4,0,40,6,,,,,,,,,,,AMNE01.jpg,AMNE08.jpg,AMSA05.jpg,AMSA14.jpg,AMSA14.jpg,MS,2,num_4,16,num_4,0.466835696483,,,2017_Oct_31_1214,60.0029445953,FEMA4ImagesEEG,001,102275,
AFNE01.JPG,AFNE01.JPG,AFNE01.JPG,AFNE01.JPG,AFNE01.JPG,AFNE01.JPG,,,,,,,,,,,,,4,1,41,8,,,,,,,,,,,AMNE14.jpg,AMSA02.jpg,AMNE06.jpg,AMSA07.jpg,AMNE06.jpg,MN,1,num_2,32,num_8,0.933411273174,,,2017_Oct_31_1214,60.0029445953,FEMA4ImagesEEG,001,102275,
AFNE01.JPG,AFNE01.JPG,AFNE01.JPG,AFNE01.JPG,AFNE01.JPG,AFNE01.JPG,,,,,,,,,,,,,4,2,42,9,,,,,,,,,,,AMSA06.jpg,AMSA10.jpg,AMNE01.jpg,AMNE03.jpg,AMNE03.jpg,MN,1,num_4,32,num_2,1.14974557329,,,2017_Oct_31_1214,60.0029445953,FEMA4ImagesEEG,001,102275,
AFNE01.JPG,AFNE01.JPG,AFNE01.JPG,AFNE01.JPG,AFNE01.JPG,AFNE01.JPG,,,,,,,,,,,,,4,3,43,5,,,,,,,,,,,AMNE15.jpg,AMSA04.jpg,AMSA06.jpg,AMNE08.jpg,AMSA04.jpg,MS,2,num_6,16,num_6,1.14996912889,,,2017_Oct_31_1214,60.0029445953,FEMA4ImagesEEG,001,102275,
AFNE01.JPG,AFNE01.JPG,AFNE01.JPG,AFNE01.JPG,AFNE01.JPG,AFNE01.JPG,,,,,,,,,,,,,4,4,44,2,,,,,,,,,,,AMNE01.jpg,AMSA18.jpg,AMSA05.jpg,AMNE11.jpg,AMSA05.jpg,MS,2,num_2,16,num_2,0.850085717626,,,2017_Oct_31_1214,60.0029445953,FEMA4ImagesEEG,001,102275,
AFNE01.JPG,AFNE01.JPG,AFNE01.JPG,AFNE01.JPG,AFNE01.JPG,AFNE01.JPG,,,,,,,,,,,,,4,5,45,4,,,,,,,,,,,AMSA20.jpg,AMNE03.jpg,AMNE16.jpg,AMSA13.jpg,AMNE16.jpg,MN,1,num_2,32,num_8,1.20040605613,,,2017_Oct_31_1214,60.0029445953,FEMA4ImagesEEG,001,102275,
AFNE01.JPG,AFNE01.JPG,AFNE01.JPG,AFNE01.JPG,AFNE01.JPG,AFNE01.JPG,,,,,,,,,,,,,4,6,46,1,,,,,,,,,,,AMNE09.jpg,AMNE20.jpg,AMSA01.jpg,AMSA11.jpg,AMSA11.jpg,MS,2,num_4,32,num_6,0.816749337362,,,2017_Oct_31_1214,60.0029445953,FEMA4ImagesEEG,001,102275,
AFNE01.JPG,AFNE01.JPG,AFNE01.JPG,AFNE01.JPG,AFNE01.JPG,AFNE01.JPG,,,,,,,,,,,,,4,7,47,7,,,,,,,,,,,AMNE12.jpg,AMNE02.jpg,AMSA18.jpg,AMSA10.jpg,AMNE12.jpg,MN,1,num_8,16,num_8,1.1667110892,,,2017_Oct_31_1214,60.0029445953,FEMA4ImagesEEG,001,102275,
AFNE01.JPG,AFNE01.JPG,AFNE01.JPG,AFNE01.JPG,AFNE01.JPG,AFNE01.JPG,,,,,,,,,,,,,4,8,48,3,,,,,,,,,,,AMSA06.jpg,AMNE12.jpg,AMNE13.jpg,AMSA20.jpg,AMNE13.jpg,MN,1,num_2,32,num_4,0.78343220125,,,2017_Oct_31_1214,60.0029445953,FEMA4ImagesEEG,001,102275,
AFNE01.JPG,AFNE01.JPG,AFNE01.JPG,AFNE01.JPG,AFNE01.JPG,AFNE01.JPG,,,,,,,,,,,,,4,9,49,0,,,,,,,,,,,AMNE18.jpg,AMSA05.jpg,AMNE16.jpg,AMSA16.jpg,AMNE18.jpg,MN,1,num_8,32,num_2,1.15012917784,,,2017_Oct_31_1214,60.0029445953,FEMA4ImagesEEG,001,102275,
AFNE01.JPG,AFNE01.JPG,AFNE01.JPG,AFNE01.JPG,AFNE01.JPG,AFNE01.JPG,,,,,,,,,,,,,5,0,50,4,,,,,,,,,,,AMSA16.jpg,AMNE09.jpg,AMNE06.jpg,AMSA08.jpg,AMSA16.jpg,MS,2,num_8,32,num_2,1.16665399726,,,2017_Oct_31_1214,60.0029445953,FEMA4ImagesEEG,001,102275,
AFNE01.JPG,AFNE01.JPG,AFNE01.JPG,AFNE01.JPG,AFNE01.JPG,AFNE01.JPG,,,,,,,,,,,,,5,1,51,1,,,,,,,,,,,AMNE20.jpg,AMSA03.jpg,AMNE02.jpg,AMSA12.jpg,AMSA12.jpg,MS,2,num_4,16,num_4,0.900129418354,,,2017_Oct_31_1214,60.0029445953,FEMA4ImagesEEG,001,102275,
AFNE01.JPG,AFNE01.JPG,AFNE01.JPG,AFNE01.JPG,AFNE01.JPG,AFNE01.JPG,,,,,,,,,,,,,5,2,52,2,,,,,,,,,,,AMNE20.jpg,AMSA17.jpg,AMSA10.jpg,AMNE18.jpg,AMSA10.jpg,MS,2,num_2,16,num_2,1.38338120375,,,2017_Oct_31_1214,60.0029445953,FEMA4ImagesEEG,001,102275,
AFNE01.JPG,AFNE01.JPG,AFNE01.JPG,AFNE01.JPG,AFNE01.JPG,AFNE01.JPG,,,,,,,,,,,,,5,3,53,8,,,,,,,,,,,AMSA04.jpg,AMSA03.jpg,AMNE08.jpg,AMNE18.jpg,AMNE08.jpg,MN,1,num_2,32,num_8,1.03344254522,,,2017_Oct_31_1214,60.0029445953,FEMA4ImagesEEG,001,102275,
AFNE01.JPG,AFNE01.JPG,AFNE01.JPG,AFNE01.JPG,AFNE01.JPG,AFNE01.JPG,,,,,,,,,,,,,5,4,54,6,,,,,,,,,,,AMNE03.jpg,AMNE19.jpg,AMSA07.jpg,AMSA15.jpg,AMSA15.jpg,MS,2,num_4,16,num_4,0.566755351145,,,2017_Oct_31_1214,60.0029445953,FEMA4ImagesEEG,001,102275,
AFNE01.JPG,AFNE01.JPG,AFNE01.JPG,AFNE01.JPG,AFNE01.JPG,AFNE01.JPG,,,,,,,,,,,,,5,5,55,9,,,,,,,,,,,AMNE19.jpg,AMNE10.jpg,AMSA01.jpg,AMSA04.jpg,AMNE10.jpg,MN,1,num_6,32,num_8,0.833472694503,,,2017_Oct_31_1214,60.0029445953,FEMA4ImagesEEG,001,102275,
AFNE01.JPG,AFNE01.JPG,AFNE01.JPG,AFNE01.JPG,AFNE01.JPG,AFNE01.JPG,,,,,,,,,,,,,5,6,56,5,,,,,,,,,,,AMSA04.jpg,AMNE09.jpg,AMNE11.jpg,AMSA16.jpg,AMSA04.jpg,MS,2,num_8,32,num_2,1.00011225883,,,2017_Oct_31_1214,60.0029445953,FEMA4ImagesEEG,001,102275,
AFNE01.JPG,AFNE01.JPG,AFNE01.JPG,AFNE01.JPG,AFNE01.JPG,AFNE01.JPG,,,,,,,,,,,,,5,7,57,3,,,,,,,,,,,AMSA03.jpg,AMNE10.jpg,AMSA09.jpg,AMNE14.jpg,AMSA09.jpg,MS,2,num_2,32,num_8,0.583470690064,,,2017_Oct_31_1214,60.0029445953,FEMA4ImagesEEG,001,102275,
AFNE01.JPG,AFNE01.JPG,AFNE01.JPG,AFNE01.JPG,AFNE01.JPG,AFNE01.JPG,,,,,,,,,,,,,5,8,58,0,,,,,,,,,,,AMNE01.jpg,AMSA02.jpg,AMSA01.jpg,AMNE04.jpg,AMNE01.jpg,MN,1,num_8,32,num_2,0.283475982025,,,2017_Oct_31_1214,60.0029445953,FEMA4ImagesEEG,001,102275,
AFNE01.JPG,AFNE01.JPG,AFNE01.JPG,AFNE01.JPG,AFNE01.JPG,AFNE01.JPG,,,,,,,,,,,,,5,9,59,7,,,,,,,,,,,AMNE06.jpg,AMNE18.jpg,AMSA13.jpg,AMSA16.jpg,AMNE18.jpg,MN,1,num_6,32,num_8,0.750096141594,,,2017_Oct_31_1214,60.0029445953,FEMA4ImagesEEG,001,102275,
,,,,,,,,,,,,,,,,,,,,,,,,,,,,,,,,,,,,,,,,,,,space,2.84997570398,2017_Oct_31_1214,60.0029445953,FEMA4ImagesEEG,001,102275,
AFNE01.JPG,AFNE01.JPG,AFNE01.JPG,AFNE01.JPG,AFNE01.JPG,AFNE01.JPG,,,,,,,,,,,,,,,,,0,0,0,8,,,,,,,AFSA12.jpg,AFNE04.jpg,AFNE07.jpg,AFSA03.jpg,AFSA12.jpg,FS,4,num_8,16,num_8,1.05008154805,,,2017_Oct_31_1214,60.0029445953,FEMA4ImagesEEG,001,102275,
AFNE01.JPG,AFNE01.JPG,AFNE01.JPG,AFNE01.JPG,AFNE01.JPG,AFNE01.JPG,,,,,,,,,,,,,,,,,0,1,1,4,,,,,,,AFNE13.jpg,AFNE06.jpg,AFSA18.jpg,AFSA10.jpg,AFNE13.jpg,FN,3,num_8,16,num_8,1.28341119294,,,2017_Oct_31_1214,60.0029445953,FEMA4ImagesEEG,001,102275,
AFNE01.JPG,AFNE01.JPG,AFNE01.JPG,AFNE01.JPG,AFNE01.JPG,AFNE01.JPG,,,,,,,,,,,,,,,,,0,2,2,9,,,,,,,AFSA16.jpg,AFNE16.jpg,AFNE18.jpg,AFSA15.jpg,AFSA16.jpg,FS,4,num_8,32,num_6,0.650131262606,,,2017_Oct_31_1214,60.0029445953,FEMA4ImagesEEG,001,102275,
AFNE01.JPG,AFNE01.JPG,AFNE01.JPG,AFNE01.JPG,AFNE01.JPG,AFNE01.JPG,,,,,,,,,,,,,,,,,0,3,3,3,,,,,,,AFSA17.jpg,AFNE06.jpg,AFSA15.jpg,AFNE17.jpg,AFSA15.jpg,FS,4,num_2,16,num_2,1.30009157117,,,2017_Oct_31_1214,60.0029445953,FEMA4ImagesEEG,001,102275,
AFNE01.JPG,AFNE01.JPG,AFNE01.JPG,AFNE01.JPG,AFNE01.JPG,AFNE01.JPG,,,,,,,,,,,,,,,,,0,4,4,1,,,,,,,AFSA12.jpg,AFNE17.jpg,AFNE01.jpg,AFSA13.jpg,AFSA12.jpg,FS,4,num_8,16,num_8,0.433476864127,,,2017_Oct_31_1214,60.0029445953,FEMA4ImagesEEG,001,102275,
AFNE01.JPG,AFNE01.JPG,AFNE01.JPG,AFNE01.JPG,AFNE01.JPG,AFNE01.JPG,,,,,,,,,,,,,,,,,0,5,5,7,,,,,,,AFNE07.jpg,AFSA06.jpg,AFNE15.jpg,AFSA07.jpg,AFNE15.jpg,FN,3,num_2,16,num_2,0.933431800222,,,2017_Oct_31_1214,60.0029445953,FEMA4ImagesEEG,001,102275,
AFNE01.JPG,AFNE01.JPG,AFNE01.JPG,AFNE01.JPG,AFNE01.JPG,AFNE01.JPG,,,,,,,,,,,,,,,,,0,6,6,2,,,,,,,AFNE17.jpg,AFNE03.jpg,AFSA04.jpg,AFSA01.jpg,AFSA01.jpg,FS,4,num_4,32,num_6,0.750104480889,,,2017_Oct_31_1214,60.0029445953,FEMA4ImagesEEG,001,102275,
AFNE01.JPG,AFNE01.JPG,AFNE01.JPG,AFNE01.JPG,AFNE01.JPG,AFNE01.JPG,,,,,,,,,,,,,,,,,0,7,7,5,,,,,,,AFNE03.jpg,AFSA01.jpg,AFNE01.jpg,AFSA09.jpg,AFNE01.jpg,FN,3,num_2,32,num_8,1.20004746947,,,2017_Oct_31_1214,60.0029445953,FEMA4ImagesEEG,001,102275,
AFNE01.JPG,AFNE01.JPG,AFNE01.JPG,AFNE01.JPG,AFNE01.JPG,AFNE01.JPG,,,,,,,,,,,,,,,,,0,8,8,0,,,,,,,AFSA18.jpg,AFSA14.jpg,AFNE06.jpg,AFNE09.jpg,AFSA14.jpg,FS,4,num_6,32,num_2,0.866732738912,,,2017_Oct_31_1214,60.0029445953,FEMA4ImagesEEG,001,102275,
AFNE01.JPG,AFNE01.JPG,AFNE01.JPG,AFNE01.JPG,AFNE01.JPG,AFNE01.JPG,,,,,,,,,,,,,,,,,0,9,9,6,,,,,,,AFSA08.jpg,AFSA03.jpg,AFNE13.jpg,AFNE18.jpg,AFSA08.jpg,FS,4,num_8,32,num_6,1.10011177766,,,2017_Oct_31_1214,60.0029445953,FEMA4ImagesEEG,001,102275,
AFNE01.JPG,AFNE01.JPG,AFNE01.JPG,AFNE01.JPG,AFNE01.JPG,AFNE01.JPG,,,,,,,,,,,,,,,,,1,0,10,8,,,,,,,AFNE04.jpg,AFSA15.jpg,AFSA10.jpg,AFNE05.jpg,AFNE04.jpg,FN,3,num_8,32,num_2,1.55012404593,,,2017_Oct_31_1214,60.0029445953,FEMA4ImagesEEG,001,102275,
AFNE01.JPG,AFNE01.JPG,AFNE01.JPG,AFNE01.JPG,AFNE01.JPG,AFNE01.JPG,,,,,,,,,,,,,,,,,1,1,11,6,,,,,,,AFNE15.jpg,AFNE18.jpg,AFSA20.jpg,AFSA07.jpg,AFSA20.jpg,FS,4,num_2,32,num_4,0.983418088872,,,2017_Oct_31_1214,60.0029445953,FEMA4ImagesEEG,001,102275,
AFNE01.JPG,AFNE01.JPG,AFNE01.JPG,AFNE01.JPG,AFNE01.JPG,AFNE01.JPG,,,,,,,,,,,,,,,,,1,2,12,4,,,,,,,AFSA04.jpg,AFSA11.jpg,AFNE19.jpg,AFNE20.jpg,AFNE20.jpg,FN,3,num_4,32,num_8,1.15012725326,,,2017_Oct_31_1214,60.0029445953,FEMA4ImagesEEG,001,102275,
AFNE01.JPG,AFNE01.JPG,AFNE01.JPG,AFNE01.JPG,AFNE01.JPG,AFNE01.JPG,,,,,,,,,,,,,,,,,1,3,13,5,,,,,,,AFNE12.jpg,AFSA15.jpg,AFNE13.jpg,AFSA06.jpg,AFSA15.jpg,FS,4,num_6,16,num_6,0.750159006566,,,2017_Oct_31_1214,60.0029445953,FEMA4ImagesEEG,001,102275,
AFNE01.JPG,AFNE01.JPG,AFNE01.JPG,AFNE01.JPG,AFNE01.JPG,AFNE01.JPG,,,,,,,,,,,,,,,,,1,4,14,7,,,,,,,AFNE02.jpg,AFSA17.jpg,AFNE14.jpg,AFSA04.jpg,AFNE02.jpg,FN,3,num_8,32,num_4,1.01669256645,,,2017_Oct_31_1214,60.0029445953,FEMA4ImagesEEG,001,102275,
AFNE01.JPG,AFNE01.JPG,AFNE01.JPG,AFNE01.JPG,AFNE01.JPG,AFNE01.JPG,,,,,,,,,,,,,,,,,1,5,15,9,,,,,,,AFSA19.jpg,AFNE11.jpg,AFSA04.jpg,AFNE05.jpg,AFSA19.jpg,FS,4,num_8,32,num_2,1.35007368983,,,2017_Oct_31_1214,60.0029445953,FEMA4ImagesEEG,001,102275,
AFNE01.JPG,AFNE01.JPG,AFNE01.JPG,AFNE01.JPG,AFNE01.JPG,AFNE01.JPG,,,,,,,,,,,,,,,,,1,6,16,2,,,,,,,AFSA07.jpg,AFSA05.jpg,AFNE11.jpg,AFNE10.jpg,AFSA05.jpg,FS,4,num_6,16,num_6,0.883428191999,,,2017_Oct_31_1214,60.0029445953,FEMA4ImagesEEG,001,102275,
AFNE01.JPG,AFNE01.JPG,AFNE01.JPG,AFNE01.JPG,AFNE01.JPG,AFNE01.JPG,,,,,,,,,,,,,,,,,1,7,17,3,,,,,,,AFSA14.jpg,AFSA13.jpg,AFNE19.jpg,AFNE17.jpg,AFNE19.jpg,FN,3,num_2,32,num_4,1.13341672556,,,2017_Oct_31_1214,60.0029445953,FEMA4ImagesEEG,001,102275,
AFNE01.JPG,AFNE01.JPG,AFNE01.JPG,AFNE01.JPG,AFNE01.JPG,AFNE01.JPG,,,,,,,,,,,,,,,,,1,8,18,1,,,,,,,AFSA06.jpg,AFNE20.jpg,AFSA07.jpg,AFNE16.jpg,AFSA06.jpg,FS,4,num_8,16,num_8,1.03349322197,,,2017_Oct_31_1214,60.0029445953,FEMA4ImagesEEG,001,102275,
AFNE01.JPG,AFNE01.JPG,AFNE01.JPG,AFNE01.JPG,AFNE01.JPG,AFNE01.JPG,,,,,,,,,,,,,,,,,1,9,19,0,,,,,,,AFSA18.jpg,AFSA02.jpg,AFNE07.jpg,AFNE01.jpg,AFNE07.jpg,FN,3,num_2,16,num_2,1.41674099793,,,2017_Oct_31_1214,60.0029445953,FEMA4ImagesEEG,001,102275,
AFNE01.JPG,AFNE01.JPG,AFNE01.JPG,AFNE01.JPG,AFNE01.JPG,AFNE01.JPG,,,,,,,,,,,,,,,,,2,0,20,0,,,,,,,AFNE10.jpg,AFNE13.jpg,AFSA13.jpg,AFSA19.jpg,AFSA19.jpg,FS,4,num_4,32,num_6,1.26675647381,,,2017_Oct_31_1214,60.0029445953,FEMA4ImagesEEG,001,102275,
AFNE01.JPG,AFNE01.JPG,AFNE01.JPG,AFNE01.JPG,AFNE01.JPG,AFNE01.JPG,,,,,,,,,,,,,,,,,2,1,21,3,,,,,,,AFNE10.jpg,AFNE09.jpg,AFSA03.jpg,AFSA01.jpg,AFNE09.jpg,FN,3,num_6,32,num_8,0.983452407876,,,2017_Oct_31_1214,60.0029445953,FEMA4ImagesEEG,001,102275,
AFNE01.JPG,AFNE01.JPG,AFNE01.JPG,AFNE01.JPG,AFNE01.JPG,AFNE01.JPG,,,,,,,,,,,,,,,,,2,2,22,4,,,,,,,AFNE17.jpg,AFNE10.jpg,AFSA02.jpg,AFSA13.jpg,AFSA02.jpg,FS,4,num_2,16,num_2,0.433426507981,,,2017_Oct_31_1214,60.0029445953,FEMA4ImagesEEG,001,102275,
AFNE01.JPG,AFNE01.JPG,AFNE01.JPG,AFNE01.JPG,AFNE01.JPG,AFNE01.JPG,,,,,,,,,,,,,,,,,2,3,23,9,,,,,,,AFNE05.jpg,AFNE12.jpg,AFSA17.jpg,AFSA11.jpg,AFSA17.jpg,FS,4,num_2,32,num_8,1.15007304843,,,2017_Oct_31_1214,60.0029445953,FEMA4ImagesEEG,001,102275,
AFNE01.JPG,AFNE01.JPG,AFNE01.JPG,AFNE01.JPG,AFNE01.JPG,AFNE01.JPG,,,,,,,,,,,,,,,,,2,4,24,8,,,,,,,AFSA20.jpg,AFSA07.jpg,AFNE18.jpg,AFNE07.jpg,AFSA20.jpg,FS,4,num_8,32,num_4,0.983475501183,,,2017_Oct_31_1214,60.0029445953,FEMA4ImagesEEG,001,102275,
AFNE01.JPG,AFNE01.JPG,AFNE01.JPG,AFNE01.JPG,AFNE01.JPG,AFNE01.JPG,,,,,,,,,,,,,,,,,2,5,25,6,,,,,,,AFSA04.jpg,AFNE08.jpg,AFNE06.jpg,AFSA08.jpg,AFSA08.jpg,FS,4,num_4,32,num_6,1.10013839928,,,2017_Oct_31_1214,60.0029445953,FEMA4ImagesEEG,001,102275,
AFNE01.JPG,AFNE01.JPG,AFNE01.JPG,AFNE01.JPG,AFNE01.JPG,AFNE01.JPG,,,,,,,,,,,,,,,,,2,6,26,5,,,,,,,AFSA19.jpg,AFNE18.jpg,AFNE08.jpg,AFSA12.jpg,AFSA12.jpg,FS,4,num_4,16,num_4,1.18343508779,,,2017_Oct_31_1214,60.0029445953,FEMA4ImagesEEG,001,102275,
AFNE01.JPG,AFNE01.JPG,AFNE01.JPG,AFNE01.JPG,AFNE01.JPG,AFNE01.JPG,,,,,,,,,,,,,,,,,2,7,27,1,,,,,,,AFNE08.jpg,AFSA02.jpg,AFNE12.jpg,AFSA16.jpg,AFNE08.jpg,FN,3,num_8,32,num_2,1.24994523381,,,2017_Oct_31_1214,60.0029445953,FEMA4ImagesEEG,001,102275,
AFNE01.JPG,AFNE01.JPG,AFNE01.JPG,AFNE01.JPG,AFNE01.JPG,AFNE01.JPG,,,,,,,,,,,,,,,,,2,8,28,2,,,,,,,AFNE20.jpg,AFSA01.jpg,AFNE17.jpg,AFSA16.jpg,AFSA01.jpg,FS,4,num_6,32,num_8,0.967041450785,,,2017_Oct_31_1214,60.0029445953,FEMA4ImagesEEG,001,102275,
AFNE01.JPG,AFNE01.JPG,AFNE01.JPG,AFNE01.JPG,AFNE01.JPG,AFNE01.JPG,,,,,,,,,,,,,,,,,2,9,29,7,,,,,,,AFSA02.jpg,AFNE13.jpg,AFNE08.jpg,AFSA11.jpg,AFSA11.jpg,FS,4,num_4,32,num_6,0.91672961181,,,2017_Oct_31_1214,60.0029445953,FEMA4ImagesEEG,001,102275,
AFNE01.JPG,AFNE01.JPG,AFNE01.JPG,AFNE01.JPG,AFNE01.JPG,AFNE01.JPG,,,,,,,,,,,,,,,,,3,0,30,6,,,,,,,AFSA02.jpg,AFNE14.jpg,AFNE13.jpg,AFSA18.jpg,AFNE14.jpg,FN,3,num_6,32,num_8,1.03352048481,,,2017_Oct_31_1214,60.0029445953,FEMA4ImagesEEG,001,102275,
AFNE01.JPG,AFNE01.JPG,AFNE01.JPG,AFNE01.JPG,AFNE01.JPG,AFNE01.JPG,,,,,,,,,,,,,,,,,3,1,31,9,,,,,,,AFNE15.jpg,AFNE07.jpg,AFSA06.jpg,AFSA03.jpg,AFSA06.jpg,FS,4,num_2,16,num_2,0.81678109034,,,2017_Oct_31_1214,60.0029445953,FEMA4ImagesEEG,001,102275,
AFNE01.JPG,AFNE01.JPG,AFNE01.JPG,AFNE01.JPG,AFNE01.JPG,AFNE01.JPG,,,,,,,,,,,,,,,,,3,2,32,2,,,,,,,AFSA06.jpg,AFNE02.jpg,AFNE11.jpg,AFSA02.jpg,AFSA06.jpg,FS,4,num_8,32,num_4,0.933452006895,,,2017_Oct_31_1214,60.0029445953,FEMA4ImagesEEG,001,102275,
AFNE01.JPG,AFNE01.JPG,AFNE01.JPG,AFNE01.JPG,AFNE01.JPG,AFNE01.JPG,,,,,,,,,,,,,,,,,3,3,33,4,,,,,,,AFNE10.jpg,AFSA13.jpg,AFNE03.jpg,AFSA15.jpg,AFNE10.jpg,FN,3,num_8,16,num_8,1.18328434043,,,2017_Oct_31_1214,60.0029445953,FEMA4ImagesEEG,001,102275,
AFNE01.JPG,AFNE01.JPG,AFNE01.JPG,AFNE01.JPG,AFNE01.JPG,AFNE01.JPG,,,,,,,,,,,,,,,,,3,4,34,1,,,,,,,AFNE11.jpg,AFSA07.jpg,AFNE10.jpg,AFSA14.jpg,AFNE11.jpg,FN,3,num_8,32,num_6,0.916735064238,,,2017_Oct_31_1214,60.0029445953,FEMA4ImagesEEG,001,102275,
AFNE01.JPG,AFNE01.JPG,AFNE01.JPG,AFNE01.JPG,AFNE01.JPG,AFNE01.JPG,,,,,,,,,,,,,,,,,3,5,35,7,,,,,,,AFSA12.jpg,AFNE14.jpg,AFNE03.jpg,AFSA08.jpg,AFNE14.jpg,FN,3,num_6,32,num_2,0.91675078054,,,2017_Oct_31_1214,60.0029445953,FEMA4ImagesEEG,001,102275,
AFNE01.JPG,AFNE01.JPG,AFNE01.JPG,AFNE01.JPG,AFNE01.JPG,AFNE01.JPG,,,,,,,,,,,,,,,,,3,6,36,3,,,,,,,AFSA18.jpg,AFNE19.jpg,AFNE05.jpg,AFSA13.jpg,AFSA13.jpg,FS,4,num_4,32,num_6,0.716768421466,,,2017_Oct_31_1214,60.0029445953,FEMA4ImagesEEG,001,102275,
AFNE01.JPG,AFNE01.JPG,AFNE01.JPG,AFNE01.JPG,AFNE01.JPG,AFNE01.JPG,,,,,,,,,,,,,,,,,3,7,37,0,,,,,,,AFSA19.jpg,AFSA11.jpg,AFNE03.jpg,AFNE15.jpg,AFSA19.jpg,FS,4,num_8,32,num_2,0.833494825754,,,2017_Oct_31_1214,60.0029445953,FEMA4ImagesEEG,001,102275,
AFNE01.JPG,AFNE01.JPG,AFNE01.JPG,AFNE01.JPG,AFNE01.JPG,AFNE01.JPG,,,,,,,,,,,,,,,,,3,8,38,8,,,,,,,AFSA15.jpg,AFSA19.jpg,AFNE01.jpg,AFNE19.jpg,AFSA15.jpg,FS,4,num_8,16,num_8,0.6001340691,,,2017_Oct_31_1214,60.0029445953,FEMA4ImagesEEG,001,102275,
AFNE01.JPG,AFNE01.JPG,AFNE01.JPG,AFNE01.JPG,AFNE01.JPG,AFNE01.JPG,,,,,,,,,,,,,,,,,3,9,39,5,,,,,,,AFNE03.jpg,AFSA12.jpg,AFNE06.jpg,AFSA08.jpg,AFSA08.jpg,FS,4,num_4,32,num_2,0.833481033798,,,2017_Oct_31_1214,60.0029445953,FEMA4ImagesEEG,001,102275,
AFNE01.JPG,AFNE01.JPG,AFNE01.JPG,AFNE01.JPG,AFNE01.JPG,AFNE01.JPG,,,,,,,,,,,,,,,,,4,0,40,9,,,,,,,AFNE01.jpg,AFNE18.jpg,AFSA05.jpg,AFSA18.jpg,AFNE01.jpg,FN,3,num_8,16,num_8,0.883759515826,,,2017_Oct_31_1214,60.0029445953,FEMA4ImagesEEG,001,102275,
AFNE01.JPG,AFNE01.JPG,AFNE01.JPG,AFNE01.JPG,AFNE01.JPG,AFNE01.JPG,,,,,,,,,,,,,,,,,4,1,41,1,,,,,,,AFSA18.jpg,AFNE05.jpg,AFSA06.jpg,AFNE13.jpg,AFNE05.jpg,FN,3,num_6,32,num_4,0.683464756235,,,2017_Oct_31_1214,60.0029445953,FEMA4ImagesEEG,001,102275,
AFNE01.JPG,AFNE01.JPG,AFNE01.JPG,AFNE01.JPG,AFNE01.JPG,AFNE01.JPG,,,,,,,,,,,,,,,,,4,2,42,0,,,,,,,AFSA18.jpg,AFNE09.jpg,AFNE10.jpg,AFSA10.jpg,AFNE09.jpg,FN,3,num_6,32,num_2,0.566761124413,,,2017_Oct_31_1214,60.0029445953,FEMA4ImagesEEG,001,102275,
AFNE01.JPG,AFNE01.JPG,AFNE01.JPG,AFNE01.JPG,AFNE01.JPG,AFNE01.JPG,,,,,,,,,,,,,,,,,4,3,43,6,,,,,,,AFSA01.jpg,AFSA11.jpg,AFNE04.jpg,AFNE13.jpg,AFNE13.jpg,FN,3,num_4,32,num_6,0.683459624648,,,2017_Oct_31_1214,60.0029445953,FEMA4ImagesEEG,001,102275,
AFNE01.JPG,AFNE01.JPG,AFNE01.JPG,AFNE01.JPG,AFNE01.JPG,AFNE01.JPG,,,,,,,,,,,,,,,,,4,4,44,5,,,,,,,AFSA15.jpg,AFNE03.jpg,AFNE13.jpg,AFSA06.jpg,AFNE13.jpg,FN,3,num_2,32,num_8,0.650141205639,,,2017_Oct_31_1214,60.0029445953,FEMA4ImagesEEG,001,102275,
AFNE01.JPG,AFNE01.JPG,AFNE01.JPG,AFNE01.JPG,AFNE01.JPG,AFNE01.JPG,,,,,,,,,,,,,,,,,4,5,45,8,,,,,,,AFNE08.jpg,AFSA20.jpg,AFSA01.jpg,AFNE07.jpg,AFNE07.jpg,FN,3,num_4,32,num_6,1.15010640537,,,2017_Oct_31_1214,60.0029445953,FEMA4ImagesEEG,001,102275,
AFNE01.JPG,AFNE01.JPG,AFNE01.JPG,AFNE01.JPG,AFNE01.JPG,AFNE01.JPG,,,,,,,,,,,,,,,,,4,6,46,4,,,,,,,AFNE02.jpg,AFSA10.jpg,AFNE06.jpg,AFSA20.jpg,AFSA20.jpg,FS,4,num_4,32,num_8,0.983433163492,,,2017_Oct_31_1214,60.0029445953,FEMA4ImagesEEG,001,102275,
AFNE01.JPG,AFNE01.JPG,AFNE01.JPG,AFNE01.JPG,AFNE01.JPG,AFNE01.JPG,,,,,,,,,,,,,,,,,4,7,47,3,,,,,,,AFNE02.jpg,AFSA12.jpg,AFNE15.jpg,AFSA16.jpg,AFNE02.jpg,FN,3,num_8,32,num_4,1.40010456112,,,2017_Oct_31_1214,60.0029445953,FEMA4ImagesEEG,001,102275,
AFNE01.JPG,AFNE01.JPG,AFNE01.JPG,AFNE01.JPG,AFNE01.JPG,AFNE01.JPG,,,,,,,,,,,,,,,,,4,8,48,2,,,,,,,AFNE19.jpg,AFSA07.jpg,AFSA13.jpg,AFNE03.jpg,AFNE03.jpg,FN,3,num_4,32,num_6,0.983109537279,,,2017_Oct_31_1214,60.0029445953,FEMA4ImagesEEG,001,102275,
AFNE01.JPG,AFNE01.JPG,AFNE01.JPG,AFNE01.JPG,AFNE01.JPG,AFNE01.JPG,,,,,,,,,,,,,,,,,4,9,49,7,,,,,,,AFNE11.jpg,AFNE02.jpg,AFSA12.jpg,AFSA02.jpg,AFSA02.jpg,FS,4,num_4,32,num_8,1.06673722947,,,2017_Oct_31_1214,60.0029445953,FEMA4ImagesEEG,001,102275,
AFNE01.JPG,AFNE01.JPG,AFNE01.JPG,AFNE01.JPG,AFNE01.JPG,AFNE01.JPG,,,,,,,,,,,,,,,,,5,0,50,6,,,,,,,AFNE02.jpg,AFSA15.jpg,AFNE04.jpg,AFSA17.jpg,AFNE04.jpg,FN,3,num_2,32,num_6,0.650105924346,,,2017_Oct_31_1214,60.0029445953,FEMA4ImagesEEG,001,102275,
AFNE01.JPG,AFNE01.JPG,AFNE01.JPG,AFNE01.JPG,AFNE01.JPG,AFNE01.JPG,,,,,,,,,,,,,,,,,5,1,51,8,,,,,,,AFNE05.jpg,AFNE04.jpg,AFSA19.jpg,AFSA20.jpg,AFSA19.jpg,FS,4,num_2,16,num_2,1.06673562573,,,2017_Oct_31_1214,60.0029445953,FEMA4ImagesEEG,001,102275,
AFNE01.JPG,AFNE01.JPG,AFNE01.JPG,AFNE01.JPG,AFNE01.JPG,AFNE01.JPG,,,,,,,,,,,,,,,,,5,2,52,3,,,,,,,AFSA01.jpg,AFSA05.jpg,AFNE02.jpg,AFNE05.jpg,AFSA01.jpg,FS,4,num_8,32,num_4,0.966712051304,,,2017_Oct_31_1214,60.0029445953,FEMA4ImagesEEG,001,102275,
AFNE01.JPG,AFNE01.JPG,AFNE01.JPG,AFNE01.JPG,AFNE01.JPG,AFNE01.JPG,,,,,,,,,,,,,,,,,5,3,53,5,,,,,,,AFNE01.jpg,AFNE15.jpg,AFSA15.jpg,AFSA13.jpg,AFSA15.jpg,FS,4,num_2,16,num_2,1.76669088239,,,2017_Oct_31_1214,60.0029445953,FEMA4ImagesEEG,001,102275,
AFNE01.JPG,AFNE01.JPG,AFNE01.JPG,AFNE01.JPG,AFNE01.JPG,AFNE01.JPG,,,,,,,,,,,,,,,,,5,4,54,7,,,,,,,AFSA13.jpg,AFSA14.jpg,AFNE20.jpg,AFNE05.jpg,AFSA13.jpg,FS,4,num_8,32,num_4,0.900183302583,,,2017_Oct_31_1214,60.0029445953,FEMA4ImagesEEG,001,102275,
AFNE01.JPG,AFNE01.JPG,AFNE01.JPG,AFNE01.JPG,AFNE01.JPG,AFNE01.JPG,,,,,,,,,,,,,,,,,5,5,55,9,,,,,,,AFSA04.jpg,AFNE17.jpg,AFSA07.jpg,AFNE12.jpg,AFSA07.jpg,FS,4,num_2,32,num_6,0.883448398672,,,2017_Oct_31_1214,60.0029445953,FEMA4ImagesEEG,001,102275,
AFNE01.JPG,AFNE01.JPG,AFNE01.JPG,AFNE01.JPG,AFNE01.JPG,AFNE01.JPG,,,,,,,,,,,,,,,,,5,6,56,1,,,,,,,AFSA08.jpg,AFNE12.jpg,AFSA16.jpg,AFNE05.jpg,AFNE05.jpg,FN,3,num_4,32,num_8,1.20013984246,,,2017_Oct_31_1214,60.0029445953,FEMA4ImagesEEG,001,102275,
AFNE01.JPG,AFNE01.JPG,AFNE01.JPG,AFNE01.JPG,AFNE01.JPG,AFNE01.JPG,,,,,,,,,,,,,,,,,5,7,57,2,,,,,,,AFSA14.jpg,AFSA06.jpg,AFNE10.jpg,AFNE13.jpg,AFNE10.jpg,FN,3,num_2,32,num_8,0.850124206394,,,2017_Oct_31_1214,60.0029445953,FEMA4ImagesEEG,001,102275,
AFNE01.JPG,AFNE01.JPG,AFNE01.JPG,AFNE01.JPG,AFNE01.JPG,AFNE01.JPG,,,,,,,,,,,,,,,,,5,8,58,0,,,,,,,AFNE13.jpg,AFSA09.jpg,AFSA13.jpg,AFNE04.jpg,AFSA13.jpg,FS,4,num_2,16,num_2,1.5500615018,,,2017_Oct_31_1214,60.0029445953,FEMA4ImagesEEG,001,102275,
AFNE01.JPG,AFNE01.JPG,AFNE01.JPG,AFNE01.JPG,AFNE01.JPG,AFNE01.JPG,,,,,,,,,,,,,,,,,5,9,59,4,,,,,,,AFSA08.jpg,AFNE04.jpg,AFSA15.jpg,AFNE06.jpg,AFNE06.jpg,FN,3,num_4,32,num_2,1.18307072786,,,2017_Oct_31_1214,60.0029445953,FEMA4ImagesEEG,001,102275,
,,,,,,,,,,,,,,,,,,,,,,,,,,,,,,,,,,,,,,,,,,,space,8.16616679402,2017_Oct_31_1214,60.0029445953,FEMA4ImagesEEG,001,102275,
AFNE01.JPG,AFNE01.JPG,AFNE01.JPG,AFNE01.JPG,AFNE01.JPG,AFNE01.JPG,,,,,,,,,,,,,,,,,,,,,0,0,0,6,,,AMNE15.jpg,AMSA12.jpg,AMSA11.jpg,AMNE04.jpg,AMSA12.jpg,MS,2,num_6,16,num_6,0.650162695209,,,2017_Oct_31_1214,60.0029445953,FEMA4ImagesEEG,001,102275,
AFNE01.JPG,AFNE01.JPG,AFNE01.JPG,AFNE01.JPG,AFNE01.JPG,AFNE01.JPG,,,,,,,,,,,,,,,,,,,,,0,1,1,0,,,AMSA08.jpg,AMNE09.jpg,AMSA02.jpg,AMNE10.jpg,AMNE09.jpg,MN,1,num_6,32,num_4,0.68344775727,,,2017_Oct_31_1214,60.0029445953,FEMA4ImagesEEG,001,102275,
AFNE01.JPG,AFNE01.JPG,AFNE01.JPG,AFNE01.JPG,AFNE01.JPG,AFNE01.JPG,,,,,,,,,,,,,,,,,,,,,0,2,2,3,,,AMNE20.jpg,AMSA06.jpg,AMSA08.jpg,AMNE16.jpg,AMSA06.jpg,MS,2,num_6,32,num_8,0.883474057773,,,2017_Oct_31_1214,60.0029445953,FEMA4ImagesEEG,001,102275,
AFNE01.JPG,AFNE01.JPG,AFNE01.JPG,AFNE01.JPG,AFNE01.JPG,AFNE01.JPG,,,,,,,,,,,,,,,,,,,,,0,3,3,4,,,AMNE02.jpg,AMSA19.jpg,AMSA02.jpg,AMNE16.jpg,AMSA02.jpg,MS,2,num_2,16,num_2,0.733473496279,,,2017_Oct_31_1214,60.0029445953,FEMA4ImagesEEG,001,102275,
AFNE01.JPG,AFNE01.JPG,AFNE01.JPG,AFNE01.JPG,AFNE01.JPG,AFNE01.JPG,,,,,,,,,,,,,,,,,,,,,0,4,4,9,,,AMNE17.jpg,AMNE16.jpg,AMSA03.jpg,AMSA01.jpg,AMSA03.jpg,MS,2,num_2,32,num_4,0.666877713287,,,2017_Oct_31_1214,60.0029445953,FEMA4ImagesEEG,001,102275,
AFNE01.JPG,AFNE01.JPG,AFNE01.JPG,AFNE01.JPG,AFNE01.JPG,AFNE01.JPG,,,,,,,,,,,,,,,,,,,,,0,5,5,8,,,AMNE19.jpg,AMSA12.jpg,AMNE04.jpg,AMSA18.jpg,AMNE04.jpg,MN,1,num_2,16,num_2,1.15009838692,,,2017_Oct_31_1214,60.0029445953,FEMA4ImagesEEG,001,102275,
AFNE01.JPG,AFNE01.JPG,AFNE01.JPG,AFNE01.JPG,AFNE01.JPG,AFNE01.JPG,,,,,,,,,,,,,,,,,,,,,0,6,6,2,,,AMSA19.jpg,AMNE17.jpg,AMSA17.jpg,AMNE03.jpg,AMSA19.jpg,MS,2,num_8,16,num_8,0.816800014116,,,2017_Oct_31_1214,60.0029445953,FEMA4ImagesEEG,001,102275,
AFNE01.JPG,AFNE01.JPG,AFNE01.JPG,AFNE01.JPG,AFNE01.JPG,AFNE01.JPG,,,,,,,,,,,,,,,,,,,,,0,7,7,7,,,AMSA04.jpg,AMNE09.jpg,AMSA12.jpg,AMNE10.jpg,AMSA12.jpg,MS,2,num_2,32,num_6,1.00011386233,,,2017_Oct_31_1214,60.0029445953,FEMA4ImagesEEG,001,102275,
AFNE01.JPG,AFNE01.JPG,AFNE01.JPG,AFNE01.JPG,AFNE01.JPG,AFNE01.JPG,,,,,,,,,,,,,,,,,,,,,0,8,8,5,,,AMSA20.jpg,AMNE08.jpg,AMNE04.jpg,AMSA05.jpg,AMNE04.jpg,MN,1,num_2,16,num_2,0.750141045079,,,2017_Oct_31_1214,60.0029445953,FEMA4ImagesEEG,001,102275,
AFNE01.JPG,AFNE01.JPG,AFNE01.JPG,AFNE01.JPG,AFNE01.JPG,AFNE01.JPG,,,,,,,,,,,,,,,,,,,,,0,9,9,1,,,AMNE03.jpg,AMNE09.jpg,AMSA03.jpg,AMSA15.jpg,AMNE03.jpg,MN,1,num_8,16,num_8,1.15013430966,,,2017_Oct_31_1214,60.0029445953,FEMA4ImagesEEG,001,102275,
AFNE01.JPG,AFNE01.JPG,AFNE01.JPG,AFNE01.JPG,AFNE01.JPG,AFNE01.JPG,,,,,,,,,,,,,,,,,,,,,1,0,10,8,,,AMNE10.jpg,AMSA06.jpg,AMSA17.jpg,AMNE14.jpg,AMNE14.jpg,MN,1,num_4,16,num_4,0.449995910516,,,2017_Oct_31_1214,60.0029445953,FEMA4ImagesEEG,001,102275,
AFNE01.JPG,AFNE01.JPG,AFNE01.JPG,AFNE01.JPG,AFNE01.JPG,AFNE01.JPG,,,,,,,,,,,,,,,,,,,,,1,1,11,9,,,AMNE08.jpg,AMSA07.jpg,AMSA11.jpg,AMNE14.jpg,AMNE08.jpg,MN,1,num_8,16,num_8,1.03374564392,,,2017_Oct_31_1214,60.0029445953,FEMA4ImagesEEG,001,102275,
AFNE01.JPG,AFNE01.JPG,AFNE01.JPG,AFNE01.JPG,AFNE01.JPG,AFNE01.JPG,,,,,,,,,,,,,,,,,,,,,1,2,12,1,,,AMNE17.jpg,AMSA17.jpg,AMSA08.jpg,AMNE06.jpg,AMNE17.jpg,MN,1,num_8,32,num_6,0.916762006469,,,2017_Oct_31_1214,60.0029445953,FEMA4ImagesEEG,001,102275,
AFNE01.JPG,AFNE01.JPG,AFNE01.JPG,AFNE01.JPG,AFNE01.JPG,AFNE01.JPG,,,,,,,,,,,,,,,,,,,,,1,3,13,5,,,AMSA10.jpg,AMNE14.jpg,AMNE17.jpg,AMSA07.jpg,AMNE14.jpg,MN,1,num_6,16,num_6,1.13342346111,,,2017_Oct_31_1214,60.0029445953,FEMA4ImagesEEG,001,102275,
AFNE01.JPG,AFNE01.JPG,AFNE01.JPG,AFNE01.JPG,AFNE01.JPG,AFNE01.JPG,,,,,,,,,,,,,,,,,,,,,1,4,14,7,,,AMNE13.jpg,AMSA10.jpg,AMSA13.jpg,AMNE10.jpg,AMSA10.jpg,MS,2,num_6,32,num_2,0.766837460455,,,2017_Oct_31_1214,60.0029445953,FEMA4ImagesEEG,001,102275,
AFNE01.JPG,AFNE01.JPG,AFNE01.JPG,AFNE01.JPG,AFNE01.JPG,AFNE01.JPG,,,,,,,,,,,,,,,,,,,,,1,5,15,2,,,AMSA16.jpg,AMNE07.jpg,AMSA12.jpg,AMNE03.jpg,AMSA12.jpg,MS,2,num_2,32,num_8,0.866748134606,,,2017_Oct_31_1214,60.0029445953,FEMA4ImagesEEG,001,102275,
AFNE01.JPG,AFNE01.JPG,AFNE01.JPG,AFNE01.JPG,AFNE01.JPG,AFNE01.JPG,,,,,,,,,,,,,,,,,,,,,1,6,16,4,,,AMSA02.jpg,AMNE03.jpg,AMSA11.jpg,AMNE10.jpg,AMSA11.jpg,MS,2,num_2,32,num_4,0.983401089674,,,2017_Oct_31_1214,60.0029445953,FEMA4ImagesEEG,001,102275,
AFNE01.JPG,AFNE01.JPG,AFNE01.JPG,AFNE01.JPG,AFNE01.JPG,AFNE01.JPG,,,,,,,,,,,,,,,,,,,,,1,7,17,3,,,AMSA15.jpg,AMNE02.jpg,AMSA14.jpg,AMNE13.jpg,AMSA15.jpg,MS,2,num_8,16,num_8,1.51668310468,,,2017_Oct_31_1214,60.0029445953,FEMA4ImagesEEG,001,102275,
AFNE01.JPG,AFNE01.JPG,AFNE01.JPG,AFNE01.JPG,AFNE01.JPG,AFNE01.JPG,,,,,,,,,,,,,,,,,,,,,1,8,18,0,,,AMNE13.jpg,AMNE20.jpg,AMSA14.jpg,AMSA16.jpg,AMSA16.jpg,MS,2,num_4,32,num_6,1.0502258807,,,2017_Oct_31_1214,60.0029445953,FEMA4ImagesEEG,001,102275,
AFNE01.JPG,AFNE01.JPG,AFNE01.JPG,AFNE01.JPG,AFNE01.JPG,AFNE01.JPG,,,,,,,,,,,,,,,,,,,,,1,9,19,6,,,AMNE02.jpg,AMSA13.jpg,AMNE14.jpg,AMSA09.jpg,AMNE14.jpg,MN,1,num_2,32,num_8,1.46664678073,,,2017_Oct_31_1214,60.0029445953,FEMA4ImagesEEG,001,102275,
AFNE01.JPG,AFNE01.JPG,AFNE01.JPG,AFNE01.JPG,AFNE01.JPG,AFNE01.JPG,,,,,,,,,,,,,,,,,,,,,2,0,20,4,,,AMSA18.jpg,AMSA06.jpg,AMNE11.jpg,AMNE17.jpg,AMNE11.jpg,MN,1,num_2,32,num_4,1.16674444615,,,2017_Oct_31_1214,60.0029445953,FEMA4ImagesEEG,001,102275,
AFNE01.JPG,AFNE01.JPG,AFNE01.JPG,AFNE01.JPG,AFNE01.JPG,AFNE01.JPG,,,,,,,,,,,,,,,,,,,,,2,1,21,6,,,AMSA07.jpg,AMNE15.jpg,AMSA20.jpg,AMNE05.jpg,AMNE05.jpg,MN,1,num_4,16,num_4,1.51676328946,,,2017_Oct_31_1214,60.0029445953,FEMA4ImagesEEG,001,102275,
AFNE01.JPG,AFNE01.JPG,AFNE01.JPG,AFNE01.JPG,AFNE01.JPG,AFNE01.JPG,,,,,,,,,,,,,,,,,,,,,2,2,22,0,,,AMSA02.jpg,AMNE12.jpg,AMSA13.jpg,AMNE09.jpg,AMSA02.jpg,MS,2,num_8,16,num_8,1.46675454918,,,2017_Oct_31_1214,60.0029445953,FEMA4ImagesEEG,001,102275,
AFNE01.JPG,AFNE01.JPG,AFNE01.JPG,AFNE01.JPG,AFNE01.JPG,AFNE01.JPG,,,,,,,,,,,,,,,,,,,,,2,3,23,3,,,AMSA07.jpg,AMSA15.jpg,AMNE13.jpg,AMNE10.jpg,AMNE13.jpg,MN,1,num_2,32,num_6,1.88333229092,,,2017_Oct_31_1214,60.0029445953,FEMA4ImagesEEG,001,102275,
AFNE01.JPG,AFNE01.JPG,AFNE01.JPG,AFNE01.JPG,AFNE01.JPG,AFNE01.JPG,,,,,,,,,,,,,,,,,,,,,2,4,24,1,,,AMSA18.jpg,AMNE08.jpg,AMNE18.jpg,AMSA03.jpg,AMSA03.jpg,MS,2,num_4,32,num_2,0.616827597842,,,2017_Oct_31_1214,60.0029445953,FEMA4ImagesEEG,001,102275,
AFNE01.JPG,AFNE01.JPG,AFNE01.JPG,AFNE01.JPG,AFNE01.JPG,AFNE01.JPG,,,,,,,,,,,,,,,,,,,,,2,5,25,8,,,AMNE18.jpg,AMNE04.jpg,AMSA12.jpg,AMSA03.jpg,AMSA12.jpg,MS,2,num_2,32,num_8,0.950110254344,,,2017_Oct_31_1214,60.0029445953,FEMA4ImagesEEG,001,102275,
AFNE01.JPG,AFNE01.JPG,AFNE01.JPG,AFNE01.JPG,AFNE01.JPG,AFNE01.JPG,,,,,,,,,,,,,,,,,,,,,2,6,26,5,,,AMSA07.jpg,AMNE02.jpg,AMSA03.jpg,AMNE01.jpg,AMSA07.jpg,MS,2,num_8,32,num_6,0.800098467153,,,2017_Oct_31_1214,60.0029445953,FEMA4ImagesEEG,001,102275,
AFNE01.JPG,AFNE01.JPG,AFNE01.JPG,AFNE01.JPG,AFNE01.JPG,AFNE01.JPG,,,,,,,,,,,,,,,,,,,,,2,7,27,9,,,AMNE11.jpg,AMNE02.jpg,AMSA19.jpg,AMSA14.jpg,AMNE11.jpg,MN,1,num_8,16,num_8,1.10012332443,,,2017_Oct_31_1214,60.0029445953,FEMA4ImagesEEG,001,102275,
AFNE01.JPG,AFNE01.JPG,AFNE01.JPG,AFNE01.JPG,AFNE01.JPG,AFNE01.JPG,,,,,,,,,,,,,,,,,,,,,2,8,28,2,,,AMNE12.jpg,AMSA12.jpg,AMNE15.jpg,AMSA19.jpg,AMNE15.jpg,MN,1,num_2,16,num_2,0.750182741322,,,2017_Oct_31_1214,60.0029445953,FEMA4ImagesEEG,001,102275,
AFNE01.JPG,AFNE01.JPG,AFNE01.JPG,AFNE01.JPG,AFNE01.JPG,AFNE01.JPG,,,,,,,,,,,,,,,,,,,,,2,9,29,7,,,AMSA09.jpg,AMNE09.jpg,AMNE12.jpg,AMSA04.jpg,AMNE09.jpg,MN,1,num_6,16,num_6,0.633437413257,,,2017_Oct_31_1214,60.0029445953,FEMA4ImagesEEG,001,102275,
AFNE01.JPG,AFNE01.JPG,AFNE01.JPG,AFNE01.JPG,AFNE01.JPG,AFNE01.JPG,,,,,,,,,,,,,,,,,,,,,3,0,30,2,,,AMNE16.jpg,AMSA02.jpg,AMNE13.jpg,AMSA13.jpg,AMNE13.jpg,MN,1,num_2,16,num_2,1.06671189098,,,2017_Oct_31_1214,60.0029445953,FEMA4ImagesEEG,001,102275,
AFNE01.JPG,AFNE01.JPG,AFNE01.JPG,AFNE01.JPG,AFNE01.JPG,AFNE01.JPG,,,,,,,,,,,,,,,,,,,,,3,1,31,7,,,AMSA20.jpg,AMSA14.jpg,AMNE14.jpg,AMNE15.jpg,AMNE15.jpg,MN,1,num_4,16,num_4,0.833437092602,,,2017_Oct_31_1214,60.0029445953,FEMA4ImagesEEG,001,102275,
AFNE01.JPG,AFNE01.JPG,AFNE01.JPG,AFNE01.JPG,AFNE01.JPG,AFNE01.JPG,,,,,,,,,,,,,,,,,,,,,3,2,32,4,,,AMNE09.jpg,AMSA11.jpg,AMNE13.jpg,AMSA07.jpg,AMSA07.jpg,MS,2,num_4,16,num_4,0.833447677083,,,2017_Oct_31_1214,60.0029445953,FEMA4ImagesEEG,001,102275,
AFNE01.JPG,AFNE01.JPG,AFNE01.JPG,AFNE01.JPG,AFNE01.JPG,AFNE01.JPG,,,,,,,,,,,,,,,,,,,,,3,3,33,6,,,AMNE19.jpg,AMSA06.jpg,AMNE07.jpg,AMSA02.jpg,AMSA02.jpg,MS,2,num_4,32,num_8,0.816746771336,,,2017_Oct_31_1214,60.0029445953,FEMA4ImagesEEG,001,102275,
AFNE01.JPG,AFNE01.JPG,AFNE01.JPG,AFNE01.JPG,AFNE01.JPG,AFNE01.JPG,,,,,,,,,,,,,,,,,,,,,3,4,34,5,,,AMSA14.jpg,AMNE07.jpg,AMSA04.jpg,AMNE12.jpg,AMNE07.jpg,MN,1,num_6,16,num_6,1.03345409175,,,2017_Oct_31_1214,60.0029445953,FEMA4ImagesEEG,001,102275,
AFNE01.JPG,AFNE01.JPG,AFNE01.JPG,AFNE01.JPG,AFNE01.JPG,AFNE01.JPG,,,,,,,,,,,,,,,,,,,,,3,5,35,1,,,AMNE01.jpg,AMSA11.jpg,AMNE18.jpg,AMSA17.jpg,AMNE18.jpg,MN,1,num_2,32,num_4,1.31682230555,,,2017_Oct_31_1214,60.0029445953,FEMA4ImagesEEG,001,102275,
AFNE01.JPG,AFNE01.JPG,AFNE01.JPG,AFNE01.JPG,AFNE01.JPG,AFNE01.JPG,,,,,,,,,,,,,,,,,,,,,3,6,36,9,,,AMSA01.jpg,AMNE02.jpg,AMSA17.jpg,AMNE17.jpg,AMNE02.jpg,MN,1,num_6,32,num_2,0.783436050173,,,2017_Oct_31_1214,60.0029445953,FEMA4ImagesEEG,001,102275,
AFNE01.JPG,AFNE01.JPG,AFNE01.JPG,AFNE01.JPG,AFNE01.JPG,AFNE01.JPG,,,,,,,,,,,,,,,,,,,,,3,7,37,8,,,AMSA19.jpg,AMSA05.jpg,AMNE20.jpg,AMNE03.jpg,AMNE20.jpg,MN,1,num_2,32,num_4,0.93346547801,,,2017_Oct_31_1214,60.0029445953,FEMA4ImagesEEG,001,102275,
AFNE01.JPG,AFNE01.JPG,AFNE01.JPG,AFNE01.JPG,AFNE01.JPG,AFNE01.JPG,,,,,,,,,,,,,,,,,,,,,3,8,38,0,,,AMNE08.jpg,AMSA18.jpg,AMSA16.jpg,AMNE09.jpg,AMSA16.jpg,MS,2,num_2,16,num_2,0.783467161702,,,2017_Oct_31_1214,60.0029445953,FEMA4ImagesEEG,001,102275,
