IPosition2,IPosition3,IPosition1,IPosition6,IPosition4,IPosition5,TrialsF1.thisRepN,TrialsF1.thisTrialN,TrialsF1.thisN,TrialsF1.thisIndex,TrialsM1.thisRepN,TrialsM1.thisTrialN,TrialsM1.thisN,TrialsM1.thisIndex,TrialsF2.thisRepN,TrialsF2.thisTrialN,TrialsF2.thisN,TrialsF2.thisIndex,TrialsM2.thisRepN,TrialsM2.thisTrialN,TrialsM2.thisN,TrialsM2.thisIndex,TrialsF3.thisRepN,TrialsF3.thisTrialN,TrialsF3.thisN,TrialsF3.thisIndex,TrialsM3.thisRepN,TrialsM3.thisTrialN,TrialsM3.thisN,TrialsM3.thisIndex,InstrKey_resp.keys,InstrKey_resp.rt,Image0 _Position,Image1 _Position,Image2 _Position,Image3 _Position,Center_image,condition,code,correct_answer,accuracy,Key_Resp.keys,Key_Resp.rt,BreakKey_resp.keys,BreakKey_resp.rt,date,frameRate,expName,session,participant,
,,,,,,,,,,,,,,,,,,,,,,,,,,,,,,space,15.3160040991,,,,,,,,,,,,,,2017_Nov_10_1446,60.0087190049,FEMA4ImagesEEG,001,102264,
AMSA25.JPG,AMNE24.JPG,AMSA24.JPG,AMNE26.JPG,AMSA21.JPG,AMNE25.JPG,0,0,0,3,,,,,,,,,,,,,,,,,,,,,,,AFSA09.jpg,AFNE13.jpg,AFNE12.jpg,AFSA03.jpg,AFSA09.jpg,FS,4,num_8,32,num_4,1.61668871762,,,2017_Nov_10_1446,60.0087190049,FEMA4ImagesEEG,001,102264,
AFSA21.JPG,AFNE23.JPG,AFNE21.JPG,AFSA25.JPG,AFNE25.JPG,AFSA23.JPG,0,1,1,4,,,,,,,,,,,,,,,,,,,,,,,AFNE09.jpg,AFNE04.jpg,AFSA19.jpg,AFSA12.jpg,AFNE09.jpg,FN,3,num_8,32,num_6,1.68338072253,,,2017_Nov_10_1446,60.0087190049,FEMA4ImagesEEG,001,102264,
AMNE22.JPG,AMSA24.JPG,AMSA22.JPG,AMNE25.JPG,AMNE24.JPG,AMSA25.JPG,0,2,2,7,,,,,,,,,,,,,,,,,,,,,,,AFNE05.jpg,AFSA07.jpg,AFNE06.jpg,AFSA17.jpg,AFNE05.jpg,FN,3,num_8,32,num_2,2.39999615098,,,2017_Nov_10_1446,60.0087190049,FEMA4ImagesEEG,001,102264,
AMSA21.JPG,AMNE22.JPG,AMNE21.JPG,AMSA23.JPG,AMSA22.JPG,AMNE23.JPG,0,3,3,1,,,,,,,,,,,,,,,,,,,,,,,AFSA10.jpg,AFNE08.jpg,AFSA11.jpg,AFNE14.jpg,AFNE14.jpg,FN,3,num_4,32,num_8,1.08341953205,,,2017_Nov_10_1446,60.0087190049,FEMA4ImagesEEG,001,102264,
AFNE23.JPG,AFNE24.JPG,AFNE22.JPG,AFSA24.JPG,AFSA22.JPG,AFSA23.JPG,0,4,4,8,,,,,,,,,,,,,,,,,,,,,,,AFSA13.jpg,AFSA04.jpg,AFNE20.jpg,AFNE16.jpg,AFSA04.jpg,FS,4,num_6,32,num_4,1.16672456008,,,2017_Nov_10_1446,60.0087190049,FEMA4ImagesEEG,001,102264,
AMSA21.JPG,AMNE23.JPG,AMNE21.JPG,AMSA25.JPG,AMNE25.JPG,AMSA23.JPG,0,5,5,5,,,,,,,,,,,,,,,,,,,,,,,AFNE13.jpg,AFSA10.jpg,AFNE06.jpg,AFSA14.jpg,AFSA10.jpg,FS,4,num_6,16,num_6,1.13343949802,,,2017_Nov_10_1446,60.0087190049,FEMA4ImagesEEG,001,102264,
AFNE22.JPG,AFSA24.JPG,AFSA22.JPG,AFNE25.JPG,AFNE24.JPG,AFSA25.JPG,0,6,6,6,,,,,,,,,,,,,,,,,,,,,,,AFSA06.jpg,AFNE12.jpg,AFNE17.jpg,AFSA12.jpg,AFSA06.jpg,FS,4,num_8,32,num_4,1.86669617472,,,2017_Nov_10_1446,60.0087190049,FEMA4ImagesEEG,001,102264,
AFSA25.JPG,AFNE24.JPG,AFSA24.JPG,AFNE21.JPG,AFSA21.JPG,AFNE25.JPG,0,7,7,2,,,,,,,,,,,,,,,,,,,,,,,AFSA19.jpg,AFNE14.jpg,AFSA11.jpg,AFNE20.jpg,AFSA19.jpg,FS,4,num_8,32,num_6,1.80002950784,,,2017_Nov_10_1446,60.0087190049,FEMA4ImagesEEG,001,102264,
AFSA21.JPG,AFNE22.JPG,AFNE21.JPG,AFSA23.JPG,AFSA22.JPG,AFNE23.JPG,0,8,8,0,,,,,,,,,,,,,,,,,,,,,,,AFNE14.jpg,AFSA10.jpg,AFNE02.jpg,AFSA05.jpg,AFNE02.jpg,FN,3,num_2,32,num_8,1.10036933143,,,2017_Nov_10_1446,60.0087190049,FEMA4ImagesEEG,001,102264,
AMNE23.JPG,AMNE24.JPG,AMNE22.JPG,AMSA24.JPG,AMSA22.JPG,AMSA23.JPG,0,9,9,9,,,,,,,,,,,,,,,,,,,,,,,AFNE18.jpg,AFNE02.jpg,AFSA12.jpg,AFSA03.jpg,AFNE02.jpg,FN,3,num_6,32,num_8,0.866788547719,,,2017_Nov_10_1446,60.0087190049,FEMA4ImagesEEG,001,102264,
AFNE23.JPG,AFNE24.JPG,AFNE22.JPG,AFSA24.JPG,AFSA22.JPG,AFSA23.JPG,,,,,0,0,0,8,,,,,,,,,,,,,,,,,,,AMSA08.jpg,AMSA20.jpg,AMNE06.jpg,AMNE02.jpg,AMNE06.jpg,MN,1,num_2,32,num_6,1.16665944993,,,2017_Nov_10_1446,60.0087190049,FEMA4ImagesEEG,001,102264,
AFNE22.JPG,AFSA24.JPG,AFSA22.JPG,AFNE25.JPG,AFNE24.JPG,AFSA25.JPG,,,,,0,1,1,6,,,,,,,,,,,,,,,,,,,AMSA02.jpg,AMSA07.jpg,AMNE14.jpg,AMNE17.jpg,AMNE14.jpg,MN,1,num_2,16,num_2,3.46647133632,,,2017_Nov_10_1446,60.0087190049,FEMA4ImagesEEG,001,102264,
AMSA21.JPG,AMNE23.JPG,AMNE21.JPG,AMSA25.JPG,AMNE25.JPG,AMSA23.JPG,,,,,0,2,2,5,,,,,,,,,,,,,,,,,,,AMNE01.jpg,AMSA07.jpg,AMSA17.jpg,AMNE03.jpg,AMNE01.jpg,MN,1,num_8,32,num_4,1.35003744625,,,2017_Nov_10_1446,60.0087190049,FEMA4ImagesEEG,001,102264,
AMSA21.JPG,AMNE22.JPG,AMNE21.JPG,AMSA23.JPG,AMSA22.JPG,AMNE23.JPG,,,,,0,3,3,1,,,,,,,,,,,,,,,,,,,AMNE08.jpg,AMSA19.jpg,AMNE13.jpg,AMSA11.jpg,AMSA11.jpg,MS,2,num_4,32,num_6,1.45007032226,,,2017_Nov_10_1446,60.0087190049,FEMA4ImagesEEG,001,102264,
AMNE23.JPG,AMNE24.JPG,AMNE22.JPG,AMSA24.JPG,AMSA22.JPG,AMSA23.JPG,,,,,0,4,4,9,,,,,,,,,,,,,,,,,,,AMNE09.jpg,AMNE05.jpg,AMSA13.jpg,AMSA08.jpg,AMSA13.jpg,MS,2,num_2,16,num_2,1.36712901271,,,2017_Nov_10_1446,60.0087190049,FEMA4ImagesEEG,001,102264,
AFSA25.JPG,AFNE24.JPG,AFSA24.JPG,AFNE21.JPG,AFSA21.JPG,AFNE25.JPG,,,,,0,5,5,2,,,,,,,,,,,,,,,,,,,AMSA02.jpg,AMSA03.jpg,AMNE03.jpg,AMNE04.jpg,AMNE04.jpg,MN,1,num_4,16,num_4,1.28309269855,,,2017_Nov_10_1446,60.0087190049,FEMA4ImagesEEG,001,102264,
AMSA25.JPG,AMNE24.JPG,AMSA24.JPG,AMNE26.JPG,AMSA21.JPG,AMNE25.JPG,,,,,0,6,6,3,,,,,,,,,,,,,,,,,,,AMSA06.jpg,AMNE06.jpg,AMNE02.jpg,AMSA14.jpg,AMSA06.jpg,MS,2,num_8,32,num_2,1.53340614121,,,2017_Nov_10_1446,60.0087190049,FEMA4ImagesEEG,001,102264,
AFSA21.JPG,AFNE23.JPG,AFNE21.JPG,AFSA25.JPG,AFNE25.JPG,AFSA23.JPG,,,,,0,7,7,4,,,,,,,,,,,,,,,,,,,AMSA05.jpg,AMSA06.jpg,AMNE08.jpg,AMNE18.jpg,AMNE08.jpg,MN,1,num_2,16,num_2,1.10015251162,,,2017_Nov_10_1446,60.0087190049,FEMA4ImagesEEG,001,102264,
AMNE22.JPG,AMSA24.JPG,AMSA22.JPG,AMNE25.JPG,AMNE24.JPG,AMSA25.JPG,,,,,0,8,8,7,,,,,,,,,,,,,,,,,,,AMSA05.jpg,AMNE15.jpg,AMSA20.jpg,AMNE13.jpg,AMSA05.jpg,MS,2,num_8,32,num_6,3.13356875605,,,2017_Nov_10_1446,60.0087190049,FEMA4ImagesEEG,001,102264,
AFSA21.JPG,AFNE22.JPG,AFNE21.JPG,AFSA23.JPG,AFSA22.JPG,AFNE23.JPG,,,,,0,9,9,0,,,,,,,,,,,,,,,,,,,AMSA06.jpg,AMNE13.jpg,AMSA12.jpg,AMNE01.jpg,AMSA06.jpg,MS,2,num_8,16,num_8,1.11680723075,,,2017_Nov_10_1446,60.0087190049,FEMA4ImagesEEG,001,102264,
AMNE23.JPG,AMNE24.JPG,AMNE22.JPG,AMSA24.JPG,AMSA22.JPG,AMSA23.JPG,,,,,,,,,0,0,0,9,,,,,,,,,,,,,,,AFSA13.jpg,AFNE10.jpg,AFSA11.jpg,AFNE09.jpg,AFNE09.jpg,FN,3,num_4,32,num_6,1.33347926987,,,2017_Nov_10_1446,60.0087190049,FEMA4ImagesEEG,001,102264,
AMNE22.JPG,AMSA24.JPG,AMSA22.JPG,AMNE25.JPG,AMNE24.JPG,AMSA25.JPG,,,,,,,,,0,1,1,7,,,,,,,,,,,,,,,AFNE20.jpg,AFSA19.jpg,AFNE17.jpg,AFSA07.jpg,AFSA07.jpg,FS,4,num_4,16,num_4,1.28328321781,,,2017_Nov_10_1446,60.0087190049,FEMA4ImagesEEG,001,102264,
AFSA25.JPG,AFNE24.JPG,AFSA24.JPG,AFNE21.JPG,AFSA21.JPG,AFNE25.JPG,,,,,,,,,0,2,2,2,,,,,,,,,,,,,,,AFSA09.jpg,AFSA08.jpg,AFNE18.jpg,AFNE20.jpg,AFNE18.jpg,FN,3,num_2,32,num_4,2.06665512011,,,2017_Nov_10_1446,60.0087190049,FEMA4ImagesEEG,001,102264,
AFSA21.JPG,AFNE22.JPG,AFNE21.JPG,AFSA23.JPG,AFSA22.JPG,AFNE23.JPG,,,,,,,,,0,3,3,0,,,,,,,,,,,,,,,AFNE19.jpg,AFSA13.jpg,AFSA04.jpg,AFNE05.jpg,AFSA04.jpg,FS,4,num_2,16,num_2,1.3334093485,,,2017_Nov_10_1446,60.0087190049,FEMA4ImagesEEG,001,102264,
AFNE23.JPG,AFNE24.JPG,AFNE22.JPG,AFSA24.JPG,AFSA22.JPG,AFSA23.JPG,,,,,,,,,0,4,4,8,,,,,,,,,,,,,,,AFNE07.jpg,AFSA15.jpg,AFNE09.jpg,AFSA02.jpg,AFSA02.jpg,FS,4,num_4,32,num_8,1.21674965811,,,2017_Nov_10_1446,60.0087190049,FEMA4ImagesEEG,001,102264,
AFSA21.JPG,AFNE23.JPG,AFNE21.JPG,AFSA25.JPG,AFNE25.JPG,AFSA23.JPG,,,,,,,,,0,5,5,4,,,,,,,,,,,,,,,AFNE12.jpg,AFNE04.jpg,AFSA10.jpg,AFSA15.jpg,AFSA10.jpg,FS,4,num_2,32,num_8,1.90002902714,,,2017_Nov_10_1446,60.0087190049,FEMA4ImagesEEG,001,102264,
AMSA21.JPG,AMNE22.JPG,AMNE21.JPG,AMSA23.JPG,AMSA22.JPG,AMNE23.JPG,,,,,,,,,0,6,6,1,,,,,,,,,,,,,,,AFNE17.jpg,AFNE15.jpg,AFSA17.jpg,AFSA19.jpg,AFNE15.jpg,FN,3,num_6,32,num_2,0.816798410378,,,2017_Nov_10_1446,60.0087190049,FEMA4ImagesEEG,001,102264,
AFNE22.JPG,AFSA24.JPG,AFSA22.JPG,AFNE25.JPG,AFNE24.JPG,AFSA25.JPG,,,,,,,,,0,7,7,6,,,,,,,,,,,,,,,AFNE20.jpg,AFSA01.jpg,AFNE13.jpg,AFSA19.jpg,AFSA01.jpg,FS,4,num_6,32,num_2,2.03337583132,,,2017_Nov_10_1446,60.0087190049,FEMA4ImagesEEG,001,102264,
AMSA21.JPG,AMNE23.JPG,AMNE21.JPG,AMSA25.JPG,AMNE25.JPG,AMSA23.JPG,,,,,,,,,0,8,8,5,,,,,,,,,,,,,,,AFSA07.jpg,AFNE19.jpg,AFSA15.jpg,AFNE04.jpg,AFNE04.jpg,FN,3,num_4,16,num_4,0.733477024827,,,2017_Nov_10_1446,60.0087190049,FEMA4ImagesEEG,001,102264,
AMSA25.JPG,AMNE24.JPG,AMSA24.JPG,AMNE26.JPG,AMSA21.JPG,AMNE25.JPG,,,,,,,,,0,9,9,3,,,,,,,,,,,,,,,AFSA02.jpg,AFNE08.jpg,AFSA11.jpg,AFNE05.jpg,AFNE05.jpg,FN,3,num_4,32,num_6,0.916743403533,,,2017_Nov_10_1446,60.0087190049,FEMA4ImagesEEG,001,102264,
AMSA25.JPG,AMNE24.JPG,AMSA24.JPG,AMNE26.JPG,AMSA21.JPG,AMNE25.JPG,,,,,,,,,,,,,0,0,0,3,,,,,,,,,,,AMSA18.jpg,AMNE16.jpg,AMNE19.jpg,AMSA19.jpg,AMNE16.jpg,MN,1,num_6,32,num_4,1.38342097541,,,2017_Nov_10_1446,60.0087190049,FEMA4ImagesEEG,001,102264,
AFSA25.JPG,AFNE24.JPG,AFSA24.JPG,AFNE21.JPG,AFSA21.JPG,AFNE25.JPG,,,,,,,,,,,,,0,1,1,2,,,,,,,,,,,AMNE13.jpg,AMSA14.jpg,AMNE16.jpg,AMSA09.jpg,AMNE16.jpg,MN,1,num_2,32,num_4,0.983466199832,,,2017_Nov_10_1446,60.0087190049,FEMA4ImagesEEG,001,102264,
AFSA21.JPG,AFNE23.JPG,AFNE21.JPG,AFSA25.JPG,AFNE25.JPG,AFSA23.JPG,,,,,,,,,,,,,0,2,2,4,,,,,,,,,,,AMSA05.jpg,AMNE18.jpg,AMSA16.jpg,AMNE06.jpg,AMNE06.jpg,MN,1,num_4,32,num_2,1.75006021885,,,2017_Nov_10_1446,60.0087190049,FEMA4ImagesEEG,001,102264,
AMSA21.JPG,AMNE23.JPG,AMNE21.JPG,AMSA25.JPG,AMNE25.JPG,AMSA23.JPG,,,,,,,,,,,,,0,3,3,5,,,,,,,,,,,AMNE05.jpg,AMSA20.jpg,AMNE09.jpg,AMSA09.jpg,AMSA09.jpg,MS,2,num_4,32,num_8,0.666757436004,,,2017_Nov_10_1446,60.0087190049,FEMA4ImagesEEG,001,102264,
AFNE23.JPG,AFNE24.JPG,AFNE22.JPG,AFSA24.JPG,AFSA22.JPG,AFSA23.JPG,,,,,,,,,,,,,0,4,4,8,,,,,,,,,,,AMSA10.jpg,AMSA16.jpg,AMNE02.jpg,AMNE14.jpg,AMSA16.jpg,MS,2,num_6,16,num_6,0.966768822167,,,2017_Nov_10_1446,60.0087190049,FEMA4ImagesEEG,001,102264,
AFNE22.JPG,AFSA24.JPG,AFSA22.JPG,AFNE25.JPG,AFNE24.JPG,AFSA25.JPG,,,,,,,,,,,,,0,5,5,6,,,,,,,,,,,AMSA02.jpg,AMSA12.jpg,AMNE10.jpg,AMNE08.jpg,AMNE08.jpg,MN,1,num_4,32,num_6,2.19998813281,,,2017_Nov_10_1446,60.0087190049,FEMA4ImagesEEG,001,102264,
AMNE22.JPG,AMSA24.JPG,AMSA22.JPG,AMNE25.JPG,AMNE24.JPG,AMSA25.JPG,,,,,,,,,,,,,0,6,6,7,,,,,,,,,,,AMNE13.jpg,AMNE12.jpg,AMSA05.jpg,AMSA12.jpg,AMSA05.jpg,MS,2,num_2,32,num_6,1.16650709882,,,2017_Nov_10_1446,60.0087190049,FEMA4ImagesEEG,001,102264,
AFSA21.JPG,AFNE22.JPG,AFNE21.JPG,AFSA23.JPG,AFSA22.JPG,AFNE23.JPG,,,,,,,,,,,,,0,7,7,0,,,,,,,,,,,AMNE13.jpg,AMNE08.jpg,AMSA13.jpg,AMSA03.jpg,AMSA13.jpg,MS,2,num_2,16,num_2,0.716804343974,,,2017_Nov_10_1446,60.0087190049,FEMA4ImagesEEG,001,102264,
AMSA21.JPG,AMNE22.JPG,AMNE21.JPG,AMSA23.JPG,AMSA22.JPG,AMNE23.JPG,,,,,,,,,,,,,0,8,8,1,,,,,,,,,,,AMSA01.jpg,AMNE17.jpg,AMSA18.jpg,AMNE11.jpg,AMNE17.jpg,MN,1,num_6,32,num_8,1.38343893667,,,2017_Nov_10_1446,60.0087190049,FEMA4ImagesEEG,001,102264,
AMNE23.JPG,AMNE24.JPG,AMNE22.JPG,AMSA24.JPG,AMSA22.JPG,AMSA23.JPG,,,,,,,,,,,,,0,9,9,9,,,,,,,,,,,AMNE10.jpg,AMSA01.jpg,AMSA19.jpg,AMNE20.jpg,AMSA01.jpg,MS,2,num_6,32,num_2,2.49999438715,,,2017_Nov_10_1446,60.0087190049,FEMA4ImagesEEG,001,102264,
AFNE23.JPG,AFNE24.JPG,AFNE22.JPG,AFSA24.JPG,AFSA22.JPG,AFSA23.JPG,,,,,,,,,,,,,,,,,0,0,0,8,,,,,,,AFNE03.jpg,AFSA01.jpg,AFSA05.jpg,AFNE05.jpg,AFNE05.jpg,FN,3,num_4,16,num_4,0.850102716824,,,2017_Nov_10_1446,60.0087190049,FEMA4ImagesEEG,001,102264,
AMSA25.JPG,AMNE24.JPG,AMSA24.JPG,AMNE26.JPG,AMSA21.JPG,AMNE25.JPG,,,,,,,,,,,,,,,,,0,1,1,3,,,,,,,AFSA06.jpg,AFNE01.jpg,AFNE02.jpg,AFSA11.jpg,AFNE02.jpg,FN,3,num_2,16,num_2,0.733509740094,,,2017_Nov_10_1446,60.0087190049,FEMA4ImagesEEG,001,102264,
AMSA21.JPG,AMNE23.JPG,AMNE21.JPG,AMSA25.JPG,AMNE25.JPG,AMSA23.JPG,,,,,,,,,,,,,,,,,0,2,2,5,,,,,,,AFNE15.jpg,AFNE10.jpg,AFSA01.jpg,AFSA11.jpg,AFSA11.jpg,FS,4,num_4,32,num_6,1.28342177719,,,2017_Nov_10_1446,60.0087190049,FEMA4ImagesEEG,001,102264,
AFSA21.JPG,AFNE22.JPG,AFNE21.JPG,AFSA23.JPG,AFSA22.JPG,AFNE23.JPG,,,,,,,,,,,,,,,,,0,3,3,0,,,,,,,AFNE18.jpg,AFSA20.jpg,AFSA19.jpg,AFNE01.jpg,AFNE18.jpg,FN,3,num_8,32,num_2,0.950140724424,,,2017_Nov_10_1446,60.0087190049,FEMA4ImagesEEG,001,102264,
AFSA21.JPG,AFNE23.JPG,AFNE21.JPG,AFSA25.JPG,AFNE25.JPG,AFSA23.JPG,,,,,,,,,,,,,,,,,0,4,4,4,,,,,,,AFNE12.jpg,AFSA11.jpg,AFSA03.jpg,AFNE01.jpg,AFNE12.jpg,FN,3,num_8,32,num_6,1.95003295597,,,2017_Nov_10_1446,60.0087190049,FEMA4ImagesEEG,001,102264,
AFSA25.JPG,AFNE24.JPG,AFSA24.JPG,AFNE21.JPG,AFSA21.JPG,AFNE25.JPG,,,,,,,,,,,,,,,,,0,5,5,2,,,,,,,AFNE20.jpg,AFSA17.jpg,AFNE06.jpg,AFSA01.jpg,AFSA01.jpg,FS,4,num_4,16,num_4,1.35006791656,,,2017_Nov_10_1446,60.0087190049,FEMA4ImagesEEG,001,102264,
AMNE23.JPG,AMNE24.JPG,AMNE22.JPG,AMSA24.JPG,AMSA22.JPG,AMSA23.JPG,,,,,,,,,,,,,,,,,0,6,6,9,,,,,,,AFNE01.jpg,AFSA07.jpg,AFNE06.jpg,AFSA01.jpg,AFNE06.jpg,FN,3,num_2,32,num_8,1.38342225831,,,2017_Nov_10_1446,60.0087190049,FEMA4ImagesEEG,001,102264,
AMNE22.JPG,AMSA24.JPG,AMSA22.JPG,AMNE25.JPG,AMNE24.JPG,AMSA25.JPG,,,,,,,,,,,,,,,,,0,7,7,7,,,,,,,AFNE02.jpg,AFSA07.jpg,AFSA13.jpg,AFNE01.jpg,AFNE01.jpg,FN,3,num_4,32,num_8,1.93335674726,,,2017_Nov_10_1446,60.0087190049,FEMA4ImagesEEG,001,102264,
AMSA21.JPG,AMNE22.JPG,AMNE21.JPG,AMSA23.JPG,AMSA22.JPG,AMNE23.JPG,,,,,,,,,,,,,,,,,0,8,8,1,,,,,,,AFSA08.jpg,AFNE10.jpg,AFSA12.jpg,AFNE03.jpg,AFSA12.jpg,FS,4,num_2,32,num_6,1.58341680584,,,2017_Nov_10_1446,60.0087190049,FEMA4ImagesEEG,001,102264,
AFNE22.JPG,AFSA24.JPG,AFSA22.JPG,AFNE25.JPG,AFNE24.JPG,AFSA25.JPG,,,,,,,,,,,,,,,,,0,9,9,6,,,,,,,AFSA13.jpg,AFNE09.jpg,AFSA14.jpg,AFNE08.jpg,AFSA14.jpg,FS,4,num_2,16,num_2,1.75005733222,,,2017_Nov_10_1446,60.0087190049,FEMA4ImagesEEG,001,102264,
AMNE22.JPG,AMSA24.JPG,AMSA22.JPG,AMNE25.JPG,AMNE24.JPG,AMSA25.JPG,,,,,,,,,,,,,,,,,,,,,0,0,0,7,,,AMSA02.jpg,AMSA12.jpg,AMNE06.jpg,AMNE18.jpg,AMNE18.jpg,MN,1,num_4,16,num_4,0.933402933879,,,2017_Nov_10_1446,60.0087190049,FEMA4ImagesEEG,001,102264,
AFNE22.JPG,AFSA24.JPG,AFSA22.JPG,AFNE25.JPG,AFNE24.JPG,AFSA25.JPG,,,,,,,,,,,,,,,,,,,,,0,1,1,6,,,AMNE10.jpg,AMSA04.jpg,AMNE19.jpg,AMSA09.jpg,AMSA09.jpg,MS,2,num_4,32,num_8,2.00006767595,,,2017_Nov_10_1446,60.0087190049,FEMA4ImagesEEG,001,102264,
AMSA21.JPG,AMNE23.JPG,AMNE21.JPG,AMSA25.JPG,AMNE25.JPG,AMSA23.JPG,,,,,,,,,,,,,,,,,,,,,0,2,2,5,,,AMNE18.jpg,AMSA06.jpg,AMSA09.jpg,AMNE17.jpg,AMNE18.jpg,MN,1,num_8,32,num_6,1.18338184524,,,2017_Nov_10_1446,60.0087190049,FEMA4ImagesEEG,001,102264,
AFSA21.JPG,AFNE22.JPG,AFNE21.JPG,AFSA23.JPG,AFSA22.JPG,AFNE23.JPG,,,,,,,,,,,,,,,,,,,,,0,3,3,0,,,AMNE18.jpg,AMSA03.jpg,AMSA17.jpg,AMNE11.jpg,AMSA17.jpg,MS,2,num_2,32,num_6,1.59995092684,,,2017_Nov_10_1446,60.0087190049,FEMA4ImagesEEG,001,102264,
AFNE23.JPG,AFNE24.JPG,AFNE22.JPG,AFSA24.JPG,AFSA22.JPG,AFSA23.JPG,,,,,,,,,,,,,,,,,,,,,0,4,4,8,,,AMNE20.jpg,AMSA13.jpg,AMSA05.jpg,AMNE11.jpg,AMSA05.jpg,MS,2,num_2,16,num_2,1.63336909586,,,2017_Nov_10_1446,60.0087190049,FEMA4ImagesEEG,001,102264,
AFSA25.JPG,AFNE24.JPG,AFSA24.JPG,AFNE21.JPG,AFSA21.JPG,AFNE25.JPG,,,,,,,,,,,,,,,,,,,,,0,5,5,2,,,AMSA13.jpg,AMSA05.jpg,AMNE20.jpg,AMNE17.jpg,AMSA05.jpg,MS,2,num_6,32,num_8,1.08354911092,,,2017_Nov_10_1446,60.0087190049,FEMA4ImagesEEG,001,102264,
AMSA25.JPG,AMNE24.JPG,AMSA24.JPG,AMNE26.JPG,AMSA21.JPG,AMNE25.JPG,,,,,,,,,,,,,,,,,,,,,0,6,6,3,,,AMNE18.jpg,AMSA05.jpg,AMSA10.jpg,AMNE07.jpg,AMSA05.jpg,MS,2,num_6,32,num_2,1.50007393025,,,2017_Nov_10_1446,60.0087190049,FEMA4ImagesEEG,001,102264,
AMNE23.JPG,AMNE24.JPG,AMNE22.JPG,AMSA24.JPG,AMSA22.JPG,AMSA23.JPG,,,,,,,,,,,,,,,,,,,,,0,7,7,9,,,AMNE08.jpg,AMSA09.jpg,AMSA20.jpg,AMNE07.jpg,AMSA09.jpg,MS,2,num_6,32,num_8,0.750109291868,,,2017_Nov_10_1446,60.0087190049,FEMA4ImagesEEG,001,102264,
AMSA21.JPG,AMNE22.JPG,AMNE21.JPG,AMSA23.JPG,AMSA22.JPG,AMNE23.JPG,,,,,,,,,,,,,,,,,,,,,0,8,8,1,,,AMSA12.jpg,AMSA16.jpg,AMNE11.jpg,AMNE06.jpg,AMNE06.jpg,MN,1,num_4,32,num_6,1.38344952115,,,2017_Nov_10_1446,60.0087190049,FEMA4ImagesEEG,001,102264,
AFSA21.JPG,AFNE23.JPG,AFNE21.JPG,AFSA25.JPG,AFNE25.JPG,AFSA23.JPG,,,,,,,,,,,,,,,,,,,,,0,9,9,4,,,AMSA15.jpg,AMNE20.jpg,AMSA03.jpg,AMNE19.jpg,AMSA03.jpg,MS,2,num_2,16,num_2,1.00013022032,,,2017_Nov_10_1446,60.0087190049,FEMA4ImagesEEG,001,102264,
,,,,,,,,,,,,,,,,,,,,,,,,,,,,,,,,,,,,,,,,,,,space,11.4159192634,2017_Nov_10_1446,60.0087190049,FEMA4ImagesEEG,001,102264,
AFNE01.JPG,AFNE01.JPG,AFNE01.JPG,AFNE01.JPG,AFNE01.JPG,AFNE01.JPG,0,0,0,3,,,,,,,,,,,,,,,,,,,,,,,AFSA11.jpg,AFSA09.jpg,AFNE08.jpg,AFNE17.jpg,AFSA11.jpg,FS,4,num_8,32,num_2,1.26677443529,,,2017_Nov_10_1446,60.0087190049,FEMA4ImagesEEG,001,102264,
AFNE01.JPG,AFNE01.JPG,AFNE01.JPG,AFNE01.JPG,AFNE01.JPG,AFNE01.JPG,0,1,1,6,,,,,,,,,,,,,,,,,,,,,,,AFNE18.jpg,AFSA06.jpg,AFNE11.jpg,AFSA04.jpg,AFSA04.jpg,FS,4,num_4,32,num_8,0.883431078633,,,2017_Nov_10_1446,60.0087190049,FEMA4ImagesEEG,001,102264,
AFNE01.JPG,AFNE01.JPG,AFNE01.JPG,AFNE01.JPG,AFNE01.JPG,AFNE01.JPG,0,2,2,9,,,,,,,,,,,,,,,,,,,,,,,AFSA08.jpg,AFSA01.jpg,AFNE17.jpg,AFNE11.jpg,AFSA01.jpg,FS,4,num_6,16,num_6,1.70004570554,,,2017_Nov_10_1446,60.0087190049,FEMA4ImagesEEG,001,102264,
AFNE01.JPG,AFNE01.JPG,AFNE01.JPG,AFNE01.JPG,AFNE01.JPG,AFNE01.JPG,0,3,3,7,,,,,,,,,,,,,,,,,,,,,,,AFNE16.jpg,AFNE12.jpg,AFSA03.jpg,AFSA17.jpg,AFNE16.jpg,FN,3,num_8,32,num_4,1.3333836894,,,2017_Nov_10_1446,60.0087190049,FEMA4ImagesEEG,001,102264,
AFNE01.JPG,AFNE01.JPG,AFNE01.JPG,AFNE01.JPG,AFNE01.JPG,AFNE01.JPG,0,4,4,0,,,,,,,,,,,,,,,,,,,,,,,AFSA20.jpg,AFNE15.jpg,AFNE06.jpg,AFSA06.jpg,AFSA06.jpg,FS,4,num_4,32,num_8,2.15003167302,,,2017_Nov_10_1446,60.0087190049,FEMA4ImagesEEG,001,102264,
AFNE01.JPG,AFNE01.JPG,AFNE01.JPG,AFNE01.JPG,AFNE01.JPG,AFNE01.JPG,0,5,5,2,,,,,,,,,,,,,,,,,,,,,,,AFSA17.jpg,AFSA16.jpg,AFNE15.jpg,AFNE17.jpg,AFSA17.jpg,FS,4,num_8,32,num_4,1.21674645063,,,2017_Nov_10_1446,60.0087190049,FEMA4ImagesEEG,001,102264,
AFNE01.JPG,AFNE01.JPG,AFNE01.JPG,AFNE01.JPG,AFNE01.JPG,AFNE01.JPG,0,6,6,4,,,,,,,,,,,,,,,,,,,,,,,AFSA10.jpg,AFSA08.jpg,AFNE16.jpg,AFNE08.jpg,AFSA08.jpg,FS,4,num_6,32,num_4,0.933428913821,,,2017_Nov_10_1446,60.0087190049,FEMA4ImagesEEG,001,102264,
AFNE01.JPG,AFNE01.JPG,AFNE01.JPG,AFNE01.JPG,AFNE01.JPG,AFNE01.JPG,0,7,7,8,,,,,,,,,,,,,,,,,,,,,,,AFNE01.jpg,AFSA03.jpg,AFSA12.jpg,AFNE12.jpg,AFSA12.jpg,FS,4,num_2,32,num_8,1.41672688536,,,2017_Nov_10_1446,60.0087190049,FEMA4ImagesEEG,001,102264,
AFNE01.JPG,AFNE01.JPG,AFNE01.JPG,AFNE01.JPG,AFNE01.JPG,AFNE01.JPG,0,8,8,5,,,,,,,,,,,,,,,,,,,,,,,AFNE20.jpg,AFSA04.jpg,AFNE08.jpg,AFSA11.jpg,AFNE08.jpg,FN,3,num_2,16,num_2,3.7498687373,,,2017_Nov_10_1446,60.0087190049,FEMA4ImagesEEG,001,102264,
AFNE01.JPG,AFNE01.JPG,AFNE01.JPG,AFNE01.JPG,AFNE01.JPG,AFNE01.JPG,0,9,9,1,,,,,,,,,,,,,,,,,,,,,,,AFSA12.jpg,AFNE11.jpg,AFNE15.jpg,AFSA18.jpg,AFNE11.jpg,FN,3,num_6,32,num_4,0.900119154714,,,2017_Nov_10_1446,60.0087190049,FEMA4ImagesEEG,001,102264,
AFNE01.JPG,AFNE01.JPG,AFNE01.JPG,AFNE01.JPG,AFNE01.JPG,AFNE01.JPG,1,0,10,8,,,,,,,,,,,,,,,,,,,,,,,AFNE09.jpg,AFSA20.jpg,AFNE17.jpg,AFSA19.jpg,AFNE17.jpg,FN,3,num_2,16,num_2,0.91676104418,,,2017_Nov_10_1446,60.0087190049,FEMA4ImagesEEG,001,102264,
AFNE01.JPG,AFNE01.JPG,AFNE01.JPG,AFNE01.JPG,AFNE01.JPG,AFNE01.JPG,1,1,11,5,,,,,,,,,,,,,,,,,,,,,,,AFNE10.jpg,AFNE04.jpg,AFSA11.jpg,AFSA12.jpg,AFNE10.jpg,FN,3,num_8,16,num_8,0.950127253309,,,2017_Nov_10_1446,60.0087190049,FEMA4ImagesEEG,001,102264,
AFNE01.JPG,AFNE01.JPG,AFNE01.JPG,AFNE01.JPG,AFNE01.JPG,AFNE01.JPG,1,2,12,7,,,,,,,,,,,,,,,,,,,,,,,AFNE13.jpg,AFNE10.jpg,AFSA10.jpg,AFSA01.jpg,AFSA10.jpg,FS,4,num_2,16,num_2,0.700107607991,,,2017_Nov_10_1446,60.0087190049,FEMA4ImagesEEG,001,102264,
AFNE01.JPG,AFNE01.JPG,AFNE01.JPG,AFNE01.JPG,AFNE01.JPG,AFNE01.JPG,1,3,13,1,,,,,,,,,,,,,,,,,,,,,,,AFSA20.jpg,AFNE04.jpg,AFSA04.jpg,AFNE01.jpg,AFSA20.jpg,FS,4,num_8,16,num_8,2.78331288625,,,2017_Nov_10_1446,60.0087190049,FEMA4ImagesEEG,001,102264,
AFNE01.JPG,AFNE01.JPG,AFNE01.JPG,AFNE01.JPG,AFNE01.JPG,AFNE01.JPG,1,4,14,3,,,,,,,,,,,,,,,,,,,,,,,AFNE10.jpg,AFSA01.jpg,AFSA07.jpg,AFNE20.jpg,AFSA01.jpg,FS,4,num_6,32,num_4,1.60007665679,,,2017_Nov_10_1446,60.0087190049,FEMA4ImagesEEG,001,102264,
AFNE01.JPG,AFNE01.JPG,AFNE01.JPG,AFNE01.JPG,AFNE01.JPG,AFNE01.JPG,1,5,15,4,,,,,,,,,,,,,,,,,,,,,,,AFNE04.jpg,AFSA19.jpg,AFSA11.jpg,AFNE17.jpg,AFNE17.jpg,FN,3,num_4,16,num_4,2.51661350415,,,2017_Nov_10_1446,60.0087190049,FEMA4ImagesEEG,001,102264,
AFNE01.JPG,AFNE01.JPG,AFNE01.JPG,AFNE01.JPG,AFNE01.JPG,AFNE01.JPG,1,6,16,0,,,,,,,,,,,,,,,,,,,,,,,AFNE19.jpg,AFNE04.jpg,AFSA14.jpg,AFSA20.jpg,AFNE04.jpg,FN,3,num_6,16,num_6,0.55042105075,,,2017_Nov_10_1446,60.0087190049,FEMA4ImagesEEG,001,102264,
AFNE01.JPG,AFNE01.JPG,AFNE01.JPG,AFNE01.JPG,AFNE01.JPG,AFNE01.JPG,1,7,17,9,,,,,,,,,,,,,,,,,,,,,,,AFSA09.jpg,AFNE05.jpg,AFNE13.jpg,AFSA15.jpg,AFSA09.jpg,FS,4,num_8,32,num_2,1.7500438611,,,2017_Nov_10_1446,60.0087190049,FEMA4ImagesEEG,001,102264,
AFNE01.JPG,AFNE01.JPG,AFNE01.JPG,AFNE01.JPG,AFNE01.JPG,AFNE01.JPG,1,8,18,2,,,,,,,,,,,,,,,,,,,,,,,AFSA14.jpg,AFSA15.jpg,AFNE18.jpg,AFNE06.jpg,AFSA14.jpg,FS,4,num_8,16,num_8,1.31670651864,,,2017_Nov_10_1446,60.0087190049,FEMA4ImagesEEG,001,102264,
AFNE01.JPG,AFNE01.JPG,AFNE01.JPG,AFNE01.JPG,AFNE01.JPG,AFNE01.JPG,1,9,19,6,,,,,,,,,,,,,,,,,,,,,,,AFNE19.jpg,AFSA08.jpg,AFSA04.jpg,AFNE05.jpg,AFNE19.jpg,FN,3,num_8,32,num_2,2.64998179814,,,2017_Nov_10_1446,60.0087190049,FEMA4ImagesEEG,001,102264,
AFNE01.JPG,AFNE01.JPG,AFNE01.JPG,AFNE01.JPG,AFNE01.JPG,AFNE01.JPG,2,0,20,5,,,,,,,,,,,,,,,,,,,,,,,AFNE07.jpg,AFNE01.jpg,AFSA16.jpg,AFSA11.jpg,AFNE07.jpg,FN,3,num_8,16,num_8,0.633332531434,,,2017_Nov_10_1446,60.0087190049,FEMA4ImagesEEG,001,102264,
AFNE01.JPG,AFNE01.JPG,AFNE01.JPG,AFNE01.JPG,AFNE01.JPG,AFNE01.JPG,2,1,21,7,,,,,,,,,,,,,,,,,,,,,,,AFSA01.jpg,AFSA11.jpg,AFNE13.jpg,AFNE14.jpg,AFNE14.jpg,FN,3,num_4,16,num_4,1.13345104456,,,2017_Nov_10_1446,60.0087190049,FEMA4ImagesEEG,001,102264,
AFNE01.JPG,AFNE01.JPG,AFNE01.JPG,AFNE01.JPG,AFNE01.JPG,AFNE01.JPG,2,2,22,0,,,,,,,,,,,,,,,,,,,,,,,AFSA03.jpg,AFNE18.jpg,AFSA13.jpg,AFNE15.jpg,AFNE15.jpg,FN,3,num_4,16,num_4,0.966750860913,,,2017_Nov_10_1446,60.0087190049,FEMA4ImagesEEG,001,102264,
AFNE01.JPG,AFNE01.JPG,AFNE01.JPG,AFNE01.JPG,AFNE01.JPG,AFNE01.JPG,2,3,23,2,,,,,,,,,,,,,,,,,,,,,,,AFNE19.jpg,AFNE06.jpg,AFSA16.jpg,AFSA05.jpg,AFSA16.jpg,FS,4,num_2,32,num_6,0.866778284078,,,2017_Nov_10_1446,60.0087190049,FEMA4ImagesEEG,001,102264,
AFNE01.JPG,AFNE01.JPG,AFNE01.JPG,AFNE01.JPG,AFNE01.JPG,AFNE01.JPG,2,4,24,1,,,,,,,,,,,,,,,,,,,,,,,AFNE10.jpg,AFNE17.jpg,AFSA19.jpg,AFSA18.jpg,AFSA18.jpg,FS,4,num_4,32,num_2,1.36673354078,,,2017_Nov_10_1446,60.0087190049,FEMA4ImagesEEG,001,102264,
AFNE01.JPG,AFNE01.JPG,AFNE01.JPG,AFNE01.JPG,AFNE01.JPG,AFNE01.JPG,2,5,25,8,,,,,,,,,,,,,,,,,,,,,,,AFSA06.jpg,AFNE12.jpg,AFNE18.jpg,AFSA14.jpg,AFSA14.jpg,FS,4,num_4,32,num_6,1.73344398849,,,2017_Nov_10_1446,60.0087190049,FEMA4ImagesEEG,001,102264,
AFNE01.JPG,AFNE01.JPG,AFNE01.JPG,AFNE01.JPG,AFNE01.JPG,AFNE01.JPG,2,6,26,9,,,,,,,,,,,,,,,,,,,,,,,AFSA03.jpg,AFNE11.jpg,AFNE10.jpg,AFSA05.jpg,AFSA03.jpg,FS,4,num_8,16,num_8,0.983442144236,,,2017_Nov_10_1446,60.0087190049,FEMA4ImagesEEG,001,102264,
AFNE01.JPG,AFNE01.JPG,AFNE01.JPG,AFNE01.JPG,AFNE01.JPG,AFNE01.JPG,2,7,27,6,,,,,,,,,,,,,,,,,,,,,,,AFSA03.jpg,AFNE02.jpg,AFSA05.jpg,AFNE09.jpg,AFSA05.jpg,FS,4,num_2,16,num_2,0.850505244918,,,2017_Nov_10_1446,60.0087190049,FEMA4ImagesEEG,001,102264,
AFNE01.JPG,AFNE01.JPG,AFNE01.JPG,AFNE01.JPG,AFNE01.JPG,AFNE01.JPG,2,8,28,3,,,,,,,,,,,,,,,,,,,,,,,AFSA07.jpg,AFSA14.jpg,AFNE07.jpg,AFNE03.jpg,AFNE07.jpg,FN,3,num_2,32,num_8,2.91663114494,,,2017_Nov_10_1446,60.0087190049,FEMA4ImagesEEG,001,102264,
AFNE01.JPG,AFNE01.JPG,AFNE01.JPG,AFNE01.JPG,AFNE01.JPG,AFNE01.JPG,2,9,29,4,,,,,,,,,,,,,,,,,,,,,,,AFNE15.jpg,AFSA15.jpg,AFNE18.jpg,AFSA01.jpg,AFNE18.jpg,FN,3,num_2,16,num_2,1.0667596811,,,2017_Nov_10_1446,60.0087190049,FEMA4ImagesEEG,001,102264,
AFNE01.JPG,AFNE01.JPG,AFNE01.JPG,AFNE01.JPG,AFNE01.JPG,AFNE01.JPG,3,0,30,8,,,,,,,,,,,,,,,,,,,,,,,AFSA04.jpg,AFNE07.jpg,AFSA16.jpg,AFNE15.jpg,AFNE15.jpg,FN,3,num_4,32,num_8,1.05010849028,,,2017_Nov_10_1446,60.0087190049,FEMA4ImagesEEG,001,102264,
AFNE01.JPG,AFNE01.JPG,AFNE01.JPG,AFNE01.JPG,AFNE01.JPG,AFNE01.JPG,3,1,31,7,,,,,,,,,,,,,,,,,,,,,,,AFNE08.jpg,AFSA18.jpg,AFSA20.jpg,AFNE14.jpg,AFSA20.jpg,FS,4,num_2,32,num_6,1.01673009293,,,2017_Nov_10_1446,60.0087190049,FEMA4ImagesEEG,001,102264,
AFNE01.JPG,AFNE01.JPG,AFNE01.JPG,AFNE01.JPG,AFNE01.JPG,AFNE01.JPG,3,2,32,3,,,,,,,,,,,,,,,,,,,,,,,AFSA09.jpg,AFSA16.jpg,AFNE14.jpg,AFNE13.jpg,AFNE14.jpg,FN,3,num_2,32,num_8,2.53335674736,,,2017_Nov_10_1446,60.0087190049,FEMA4ImagesEEG,001,102264,
AFNE01.JPG,AFNE01.JPG,AFNE01.JPG,AFNE01.JPG,AFNE01.JPG,AFNE01.JPG,3,3,33,5,,,,,,,,,,,,,,,,,,,,,,,AFNE17.jpg,AFNE06.jpg,AFSA17.jpg,AFSA10.jpg,AFSA17.jpg,FS,4,num_2,48,None,,,,2017_Nov_10_1446,60.0087190049,FEMA4ImagesEEG,001,102264,
AFNE01.JPG,AFNE01.JPG,AFNE01.JPG,AFNE01.JPG,AFNE01.JPG,AFNE01.JPG,3,4,34,1,,,,,,,,,,,,,,,,,,,,,,,AFNE15.jpg,AFSA18.jpg,AFSA09.jpg,AFNE05.jpg,AFSA09.jpg,FS,4,num_2,16,num_2,1.08344519138,,,2017_Nov_10_1446,60.0087190049,FEMA4ImagesEEG,001,102264,
AFNE01.JPG,AFNE01.JPG,AFNE01.JPG,AFNE01.JPG,AFNE01.JPG,AFNE01.JPG,3,5,35,2,,,,,,,,,,,,,,,,,,,,,,,AFSA04.jpg,AFNE11.jpg,AFSA15.jpg,AFNE03.jpg,AFNE03.jpg,FN,3,num_4,16,num_4,1.0167599218,,,2017_Nov_10_1446,60.0087190049,FEMA4ImagesEEG,001,102264,
AFNE01.JPG,AFNE01.JPG,AFNE01.JPG,AFNE01.JPG,AFNE01.JPG,AFNE01.JPG,3,6,36,4,,,,,,,,,,,,,,,,,,,,,,,AFNE17.jpg,AFNE15.jpg,AFSA12.jpg,AFSA04.jpg,AFSA12.jpg,FS,4,num_2,32,num_8,0.716767779784,,,2017_Nov_10_1446,60.0087190049,FEMA4ImagesEEG,001,102264,
AFNE01.JPG,AFNE01.JPG,AFNE01.JPG,AFNE01.JPG,AFNE01.JPG,AFNE01.JPG,3,7,37,9,,,,,,,,,,,,,,,,,,,,,,,AFNE03.jpg,AFSA10.jpg,AFSA19.jpg,AFNE12.jpg,AFSA10.jpg,FS,4,num_6,32,num_4,0.866770586232,,,2017_Nov_10_1446,60.0087190049,FEMA4ImagesEEG,001,102264,
AFNE01.JPG,AFNE01.JPG,AFNE01.JPG,AFNE01.JPG,AFNE01.JPG,AFNE01.JPG,3,8,38,0,,,,,,,,,,,,,,,,,,,,,,,AFSA11.jpg,AFNE19.jpg,AFSA10.jpg,AFNE09.jpg,AFSA10.jpg,FS,4,num_2,32,num_6,1.11678798636,,,2017_Nov_10_1446,60.0087190049,FEMA4ImagesEEG,001,102264,
AFNE01.JPG,AFNE01.JPG,AFNE01.JPG,AFNE01.JPG,AFNE01.JPG,AFNE01.JPG,3,9,39,6,,,,,,,,,,,,,,,,,,,,,,,AFNE11.jpg,AFSA19.jpg,AFNE17.jpg,AFSA06.jpg,AFSA06.jpg,FS,4,num_4,32,num_2,1.65011907439,,,2017_Nov_10_1446,60.0087190049,FEMA4ImagesEEG,001,102264,
AFNE01.JPG,AFNE01.JPG,AFNE01.JPG,AFNE01.JPG,AFNE01.JPG,AFNE01.JPG,4,0,40,8,,,,,,,,,,,,,,,,,,,,,,,AFSA09.jpg,AFNE09.jpg,AFNE17.jpg,AFSA18.jpg,AFNE09.jpg,FN,3,num_6,32,num_4,1.13343468704,,,2017_Nov_10_1446,60.0087190049,FEMA4ImagesEEG,001,102264,
AFNE01.JPG,AFNE01.JPG,AFNE01.JPG,AFNE01.JPG,AFNE01.JPG,AFNE01.JPG,4,1,41,6,,,,,,,,,,,,,,,,,,,,,,,AFNE18.jpg,AFSA03.jpg,AFSA10.jpg,AFNE05.jpg,AFNE18.jpg,FN,3,num_8,32,num_6,0.850107848644,,,2017_Nov_10_1446,60.0087190049,FEMA4ImagesEEG,001,102264,
AFNE01.JPG,AFNE01.JPG,AFNE01.JPG,AFNE01.JPG,AFNE01.JPG,AFNE01.JPG,4,2,42,5,,,,,,,,,,,,,,,,,,,,,,,AFNE03.jpg,AFSA13.jpg,AFSA04.jpg,AFNE17.jpg,AFNE17.jpg,FN,3,num_4,32,num_2,1.31671100901,,,2017_Nov_10_1446,60.0087190049,FEMA4ImagesEEG,001,102264,
AFNE01.JPG,AFNE01.JPG,AFNE01.JPG,AFNE01.JPG,AFNE01.JPG,AFNE01.JPG,4,3,43,3,,,,,,,,,,,,,,,,,,,,,,,AFNE17.jpg,AFSA03.jpg,AFSA08.jpg,AFNE20.jpg,AFNE17.jpg,FN,3,num_8,32,num_2,2.28334479989,,,2017_Nov_10_1446,60.0087190049,FEMA4ImagesEEG,001,102264,
AFNE01.JPG,AFNE01.JPG,AFNE01.JPG,AFNE01.JPG,AFNE01.JPG,AFNE01.JPG,4,4,44,0,,,,,,,,,,,,,,,,,,,,,,,AFNE04.jpg,AFNE03.jpg,AFSA19.jpg,AFSA17.jpg,AFNE04.jpg,FN,3,num_8,32,num_4,1.16675791703,,,2017_Nov_10_1446,60.0087190049,FEMA4ImagesEEG,001,102264,
AFNE01.JPG,AFNE01.JPG,AFNE01.JPG,AFNE01.JPG,AFNE01.JPG,AFNE01.JPG,4,5,45,9,,,,,,,,,,,,,,,,,,,,,,,AFSA01.jpg,AFSA07.jpg,AFNE10.jpg,AFNE01.jpg,AFSA01.jpg,FS,4,num_8,16,num_8,1.18340461771,,,2017_Nov_10_1446,60.0087190049,FEMA4ImagesEEG,001,102264,
AFNE01.JPG,AFNE01.JPG,AFNE01.JPG,AFNE01.JPG,AFNE01.JPG,AFNE01.JPG,4,6,46,2,,,,,,,,,,,,,,,,,,,,,,,AFNE09.jpg,AFSA09.jpg,AFSA10.jpg,AFNE02.jpg,AFSA10.jpg,FS,4,num_2,16,num_2,1.3000883637,,,2017_Nov_10_1446,60.0087190049,FEMA4ImagesEEG,001,102264,
AFNE01.JPG,AFNE01.JPG,AFNE01.JPG,AFNE01.JPG,AFNE01.JPG,AFNE01.JPG,4,7,47,1,,,,,,,,,,,,,,,,,,,,,,,AFNE19.jpg,AFSA19.jpg,AFSA09.jpg,AFNE05.jpg,AFNE19.jpg,FN,3,num_8,32,num_6,1.35011378233,,,2017_Nov_10_1446,60.0087190049,FEMA4ImagesEEG,001,102264,
AFNE01.JPG,AFNE01.JPG,AFNE01.JPG,AFNE01.JPG,AFNE01.JPG,AFNE01.JPG,4,8,48,4,,,,,,,,,,,,,,,,,,,,,,,AFNE03.jpg,AFSA19.jpg,AFSA03.jpg,AFNE09.jpg,AFSA19.jpg,FS,4,num_6,32,num_4,1.40003303625,,,2017_Nov_10_1446,60.0087190049,FEMA4ImagesEEG,001,102264,
AFNE01.JPG,AFNE01.JPG,AFNE01.JPG,AFNE01.JPG,AFNE01.JPG,AFNE01.JPG,4,9,49,7,,,,,,,,,,,,,,,,,,,,,,,AFNE02.jpg,AFNE16.jpg,AFSA01.jpg,AFSA13.jpg,AFSA13.jpg,FS,4,num_4,32,num_6,1.76670082542,,,2017_Nov_10_1446,60.0087190049,FEMA4ImagesEEG,001,102264,
AFNE01.JPG,AFNE01.JPG,AFNE01.JPG,AFNE01.JPG,AFNE01.JPG,AFNE01.JPG,5,0,50,9,,,,,,,,,,,,,,,,,,,,,,,AFSA05.jpg,AFNE13.jpg,AFSA16.jpg,AFNE03.jpg,AFSA16.jpg,FS,4,num_2,16,num_2,1.36668061884,,,2017_Nov_10_1446,60.0087190049,FEMA4ImagesEEG,001,102264,
AFNE01.JPG,AFNE01.JPG,AFNE01.JPG,AFNE01.JPG,AFNE01.JPG,AFNE01.JPG,5,1,51,1,,,,,,,,,,,,,,,,,,,,,,,AFSA19.jpg,AFNE10.jpg,AFNE12.jpg,AFSA04.jpg,AFSA19.jpg,FS,4,num_8,16,num_8,1.46670772135,,,2017_Nov_10_1446,60.0087190049,FEMA4ImagesEEG,001,102264,
AFNE01.JPG,AFNE01.JPG,AFNE01.JPG,AFNE01.JPG,AFNE01.JPG,AFNE01.JPG,5,2,52,0,,,,,,,,,,,,,,,,,,,,,,,AFNE08.jpg,AFNE14.jpg,AFSA06.jpg,AFSA16.jpg,AFSA06.jpg,FS,4,num_2,16,num_2,1.20018346305,,,2017_Nov_10_1446,60.0087190049,FEMA4ImagesEEG,001,102264,
AFNE01.JPG,AFNE01.JPG,AFNE01.JPG,AFNE01.JPG,AFNE01.JPG,AFNE01.JPG,5,3,53,6,,,,,,,,,,,,,,,,,,,,,,,AFSA09.jpg,AFNE06.jpg,AFNE01.jpg,AFSA14.jpg,AFNE01.jpg,FN,3,num_2,32,num_8,1.53340421664,,,2017_Nov_10_1446,60.0087190049,FEMA4ImagesEEG,001,102264,
AFNE01.JPG,AFNE01.JPG,AFNE01.JPG,AFNE01.JPG,AFNE01.JPG,AFNE01.JPG,5,4,54,5,,,,,,,,,,,,,,,,,,,,,,,AFNE14.jpg,AFSA10.jpg,AFNE12.jpg,AFSA01.jpg,AFNE14.jpg,FN,3,num_8,32,num_2,0.900139682228,,,2017_Nov_10_1446,60.0087190049,FEMA4ImagesEEG,001,102264,
AFNE01.JPG,AFNE01.JPG,AFNE01.JPG,AFNE01.JPG,AFNE01.JPG,AFNE01.JPG,5,5,55,7,,,,,,,,,,,,,,,,,,,,,,,AFNE09.jpg,AFNE06.jpg,AFSA15.jpg,AFSA08.jpg,AFNE06.jpg,FN,3,num_6,32,num_2,1.91673538508,,,2017_Nov_10_1446,60.0087190049,FEMA4ImagesEEG,001,102264,
AFNE01.JPG,AFNE01.JPG,AFNE01.JPG,AFNE01.JPG,AFNE01.JPG,AFNE01.JPG,5,6,56,3,,,,,,,,,,,,,,,,,,,,,,,AFSA09.jpg,AFNE08.jpg,AFNE14.jpg,AFSA20.jpg,AFSA09.jpg,FS,4,num_8,16,num_8,2.73357292567,,,2017_Nov_10_1446,60.0087190049,FEMA4ImagesEEG,001,102264,
AFNE01.JPG,AFNE01.JPG,AFNE01.JPG,AFNE01.JPG,AFNE01.JPG,AFNE01.JPG,5,7,57,2,,,,,,,,,,,,,,,,,,,,,,,AFSA13.jpg,AFNE12.jpg,AFSA05.jpg,AFNE01.jpg,AFNE12.jpg,FN,3,num_6,16,num_6,0.78348544403,,,2017_Nov_10_1446,60.0087190049,FEMA4ImagesEEG,001,102264,
AFNE01.JPG,AFNE01.JPG,AFNE01.JPG,AFNE01.JPG,AFNE01.JPG,AFNE01.JPG,5,8,58,4,,,,,,,,,,,,,,,,,,,,,,,AFSA14.jpg,AFNE06.jpg,AFSA01.jpg,AFNE10.jpg,AFNE10.jpg,FN,3,num_4,32,num_8,1.15009582089,,,2017_Nov_10_1446,60.0087190049,FEMA4ImagesEEG,001,102264,
AFNE01.JPG,AFNE01.JPG,AFNE01.JPG,AFNE01.JPG,AFNE01.JPG,AFNE01.JPG,5,9,59,8,,,,,,,,,,,,,,,,,,,,,,,AFNE09.jpg,AFSA17.jpg,AFNE02.jpg,AFSA14.jpg,AFSA17.jpg,FS,4,num_6,32,num_4,0.900067515671,,,2017_Nov_10_1446,60.0087190049,FEMA4ImagesEEG,001,102264,
,,,,,,,,,,,,,,,,,,,,,,,,,,,,,,,,,,,,,,,,,,,space,13.7324609219,2017_Nov_10_1446,60.0087190049,FEMA4ImagesEEG,001,102264,
AFNE01.JPG,AFNE01.JPG,AFNE01.JPG,AFNE01.JPG,AFNE01.JPG,AFNE01.JPG,,,,,0,0,0,2,,,,,,,,,,,,,,,,,,,AMSA01.jpg,AMNE05.jpg,AMSA02.jpg,AMNE09.jpg,AMSA02.jpg,MS,2,num_2,16,num_2,0.833443507319,,,2017_Nov_10_1446,60.0087190049,FEMA4ImagesEEG,001,102264,
AFNE01.JPG,AFNE01.JPG,AFNE01.JPG,AFNE01.JPG,AFNE01.JPG,AFNE01.JPG,,,,,0,1,1,8,,,,,,,,,,,,,,,,,,,AMSA10.jpg,AMSA16.jpg,AMNE14.jpg,AMNE05.jpg,AMSA10.jpg,MS,2,num_8,16,num_8,0.749911716441,,,2017_Nov_10_1446,60.0087190049,FEMA4ImagesEEG,001,102264,
AFNE01.JPG,AFNE01.JPG,AFNE01.JPG,AFNE01.JPG,AFNE01.JPG,AFNE01.JPG,,,,,0,2,2,7,,,,,,,,,,,,,,,,,,,AMNE11.jpg,AMSA20.jpg,AMNE06.jpg,AMSA18.jpg,AMSA18.jpg,MS,2,num_4,16,num_4,0.883474057773,,,2017_Nov_10_1446,60.0087190049,FEMA4ImagesEEG,001,102264,
AFNE01.JPG,AFNE01.JPG,AFNE01.JPG,AFNE01.JPG,AFNE01.JPG,AFNE01.JPG,,,,,0,3,3,0,,,,,,,,,,,,,,,,,,,AMSA18.jpg,AMNE05.jpg,AMSA17.jpg,AMNE03.jpg,AMSA17.jpg,MS,2,num_2,32,num_6,0.700154115213,,,2017_Nov_10_1446,60.0087190049,FEMA4ImagesEEG,001,102264,
AFNE01.JPG,AFNE01.JPG,AFNE01.JPG,AFNE01.JPG,AFNE01.JPG,AFNE01.JPG,,,,,0,4,4,5,,,,,,,,,,,,,,,,,,,AMSA10.jpg,AMNE07.jpg,AMNE11.jpg,AMSA02.jpg,AMNE07.jpg,MN,1,num_6,32,num_8,0.666776680388,,,2017_Nov_10_1446,60.0087190049,FEMA4ImagesEEG,001,102264,
AFNE01.JPG,AFNE01.JPG,AFNE01.JPG,AFNE01.JPG,AFNE01.JPG,AFNE01.JPG,,,,,0,5,5,9,,,,,,,,,,,,,,,,,,,AMSA12.jpg,AMNE13.jpg,AMSA08.jpg,AMNE06.jpg,AMNE13.jpg,MN,1,num_6,16,num_6,1.08346443577,,,2017_Nov_10_1446,60.0087190049,FEMA4ImagesEEG,001,102264,
AFNE01.JPG,AFNE01.JPG,AFNE01.JPG,AFNE01.JPG,AFNE01.JPG,AFNE01.JPG,,,,,0,6,6,6,,,,,,,,,,,,,,,,,,,AMNE05.jpg,AMSA09.jpg,AMSA04.jpg,AMNE15.jpg,AMNE05.jpg,MN,1,num_8,32,num_4,1.13342506485,,,2017_Nov_10_1446,60.0087190049,FEMA4ImagesEEG,001,102264,
AFNE01.JPG,AFNE01.JPG,AFNE01.JPG,AFNE01.JPG,AFNE01.JPG,AFNE01.JPG,,,,,0,7,7,1,,,,,,,,,,,,,,,,,,,AMSA20.jpg,AMSA05.jpg,AMNE09.jpg,AMNE12.jpg,AMSA05.jpg,MS,2,num_6,32,num_8,0.900138399098,,,2017_Nov_10_1446,60.0087190049,FEMA4ImagesEEG,001,102264,
AFNE01.JPG,AFNE01.JPG,AFNE01.JPG,AFNE01.JPG,AFNE01.JPG,AFNE01.JPG,,,,,0,8,8,3,,,,,,,,,,,,,,,,,,,AMSA04.jpg,AMNE04.jpg,AMNE13.jpg,AMSA11.jpg,AMSA11.jpg,MS,2,num_4,32,num_2,1.71665135142,,,2017_Nov_10_1446,60.0087190049,FEMA4ImagesEEG,001,102264,
AFNE01.JPG,AFNE01.JPG,AFNE01.JPG,AFNE01.JPG,AFNE01.JPG,AFNE01.JPG,,,,,0,9,9,4,,,,,,,,,,,,,,,,,,,AMSA14.jpg,AMNE06.jpg,AMSA19.jpg,AMNE20.jpg,AMSA14.jpg,MS,2,num_8,16,num_8,0.466868411982,,,2017_Nov_10_1446,60.0087190049,FEMA4ImagesEEG,001,102264,
AFNE01.JPG,AFNE01.JPG,AFNE01.JPG,AFNE01.JPG,AFNE01.JPG,AFNE01.JPG,,,,,1,0,10,6,,,,,,,,,,,,,,,,,,,AMSA02.jpg,AMNE08.jpg,AMNE14.jpg,AMSA04.jpg,AMSA02.jpg,MS,2,num_8,32,num_6,0.566775236977,,,2017_Nov_10_1446,60.0087190049,FEMA4ImagesEEG,001,102264,
AFNE01.JPG,AFNE01.JPG,AFNE01.JPG,AFNE01.JPG,AFNE01.JPG,AFNE01.JPG,,,,,1,1,11,5,,,,,,,,,,,,,,,,,,,AMNE11.jpg,AMNE06.jpg,AMSA01.jpg,AMSA16.jpg,AMNE06.jpg,MN,1,num_6,32,num_2,1.63342586649,,,2017_Nov_10_1446,60.0087190049,FEMA4ImagesEEG,001,102264,
AFNE01.JPG,AFNE01.JPG,AFNE01.JPG,AFNE01.JPG,AFNE01.JPG,AFNE01.JPG,,,,,1,2,12,7,,,,,,,,,,,,,,,,,,,AMSA05.jpg,AMSA12.jpg,AMNE13.jpg,AMNE05.jpg,AMNE05.jpg,MN,1,num_4,32,num_2,3.98295045062,,,2017_Nov_10_1446,60.0087190049,FEMA4ImagesEEG,001,102264,
AFNE01.JPG,AFNE01.JPG,AFNE01.JPG,AFNE01.JPG,AFNE01.JPG,AFNE01.JPG,,,,,1,3,13,8,,,,,,,,,,,,,,,,,,,AMNE10.jpg,AMSA13.jpg,AMNE15.jpg,AMSA09.jpg,AMNE10.jpg,MN,1,num_8,32,num_4,1.10011883406,,,2017_Nov_10_1446,60.0087190049,FEMA4ImagesEEG,001,102264,
AFNE01.JPG,AFNE01.JPG,AFNE01.JPG,AFNE01.JPG,AFNE01.JPG,AFNE01.JPG,,,,,1,4,14,0,,,,,,,,,,,,,,,,,,,AMNE20.jpg,AMNE01.jpg,AMSA07.jpg,AMSA16.jpg,AMNE01.jpg,MN,1,num_6,16,num_6,1.15017183614,,,2017_Nov_10_1446,60.0087190049,FEMA4ImagesEEG,001,102264,
AFNE01.JPG,AFNE01.JPG,AFNE01.JPG,AFNE01.JPG,AFNE01.JPG,AFNE01.JPG,,,,,1,5,15,3,,,,,,,,,,,,,,,,,,,AMSA07.jpg,AMNE07.jpg,AMNE11.jpg,AMSA05.jpg,AMSA05.jpg,MS,2,num_4,16,num_4,1.20010103309,,,2017_Nov_10_1446,60.0087190049,FEMA4ImagesEEG,001,102264,
AFNE01.JPG,AFNE01.JPG,AFNE01.JPG,AFNE01.JPG,AFNE01.JPG,AFNE01.JPG,,,,,1,6,16,4,,,,,,,,,,,,,,,,,,,AMSA05.jpg,AMNE19.jpg,AMSA10.jpg,AMNE20.jpg,AMNE19.jpg,MN,1,num_6,16,num_6,0.950117310509,,,2017_Nov_10_1446,60.0087190049,FEMA4ImagesEEG,001,102264,
AFNE01.JPG,AFNE01.JPG,AFNE01.JPG,AFNE01.JPG,AFNE01.JPG,AFNE01.JPG,,,,,1,7,17,1,,,,,,,,,,,,,,,,,,,AMSA18.jpg,AMSA08.jpg,AMNE20.jpg,AMNE08.jpg,AMSA18.jpg,MS,2,num_8,16,num_8,0.566770425765,,,2017_Nov_10_1446,60.0087190049,FEMA4ImagesEEG,001,102264,
AFNE01.JPG,AFNE01.JPG,AFNE01.JPG,AFNE01.JPG,AFNE01.JPG,AFNE01.JPG,,,,,1,8,18,9,,,,,,,,,,,,,,,,,,,AMSA08.jpg,AMSA14.jpg,AMNE15.jpg,AMNE01.jpg,AMSA08.jpg,MS,2,num_8,32,num_4,0.966620319756,,,2017_Nov_10_1446,60.0087190049,FEMA4ImagesEEG,001,102264,
AFNE01.JPG,AFNE01.JPG,AFNE01.JPG,AFNE01.JPG,AFNE01.JPG,AFNE01.JPG,,,,,1,9,19,2,,,,,,,,,,,,,,,,,,,AMNE12.jpg,AMSA06.jpg,AMSA09.jpg,AMNE19.jpg,AMSA09.jpg,MS,2,num_2,32,num_6,2.05003022985,,,2017_Nov_10_1446,60.0087190049,FEMA4ImagesEEG,001,102264,
AFNE01.JPG,AFNE01.JPG,AFNE01.JPG,AFNE01.JPG,AFNE01.JPG,AFNE01.JPG,,,,,2,0,20,0,,,,,,,,,,,,,,,,,,,AMSA17.jpg,AMSA10.jpg,AMNE07.jpg,AMNE14.jpg,AMSA10.jpg,MS,2,num_6,32,num_2,2.48331497097,,,2017_Nov_10_1446,60.0087190049,FEMA4ImagesEEG,001,102264,
AFNE01.JPG,AFNE01.JPG,AFNE01.JPG,AFNE01.JPG,AFNE01.JPG,AFNE01.JPG,,,,,2,1,21,6,,,,,,,,,,,,,,,,,,,AMSA08.jpg,AMNE04.jpg,AMNE19.jpg,AMSA09.jpg,AMNE04.jpg,MN,1,num_6,16,num_6,0.833492901176,,,2017_Nov_10_1446,60.0087190049,FEMA4ImagesEEG,001,102264,
AFNE01.JPG,AFNE01.JPG,AFNE01.JPG,AFNE01.JPG,AFNE01.JPG,AFNE01.JPG,,,,,2,2,22,4,,,,,,,,,,,,,,,,,,,AMNE04.jpg,AMSA13.jpg,AMSA11.jpg,AMNE02.jpg,AMNE02.jpg,MN,1,num_4,32,num_8,1.29976698291,,,2017_Nov_10_1446,60.0087190049,FEMA4ImagesEEG,001,102264,
AFNE01.JPG,AFNE01.JPG,AFNE01.JPG,AFNE01.JPG,AFNE01.JPG,AFNE01.JPG,,,,,2,3,23,2,,,,,,,,,,,,,,,,,,,AMNE20.jpg,AMNE10.jpg,AMSA04.jpg,AMSA06.jpg,AMNE10.jpg,MN,1,num_6,32,num_4,0.7167812509,,,2017_Nov_10_1446,60.0087190049,FEMA4ImagesEEG,001,102264,
AFNE01.JPG,AFNE01.JPG,AFNE01.JPG,AFNE01.JPG,AFNE01.JPG,AFNE01.JPG,,,,,2,4,24,5,,,,,,,,,,,,,,,,,,,AMNE14.jpg,AMSA15.jpg,AMSA20.jpg,AMNE15.jpg,AMNE14.jpg,MN,1,num_8,32,num_6,0.81677114754,,,2017_Nov_10_1446,60.0087190049,FEMA4ImagesEEG,001,102264,
AFNE01.JPG,AFNE01.JPG,AFNE01.JPG,AFNE01.JPG,AFNE01.JPG,AFNE01.JPG,,,,,2,5,25,1,,,,,,,,,,,,,,,,,,,AMSA05.jpg,AMNE20.jpg,AMNE01.jpg,AMSA08.jpg,AMNE01.jpg,MN,1,num_2,16,num_2,0.850160129368,,,2017_Nov_10_1446,60.0087190049,FEMA4ImagesEEG,001,102264,
AFNE01.JPG,AFNE01.JPG,AFNE01.JPG,AFNE01.JPG,AFNE01.JPG,AFNE01.JPG,,,,,2,6,26,3,,,,,,,,,,,,,,,,,,,AMSA16.jpg,AMSA05.jpg,AMNE17.jpg,AMNE04.jpg,AMNE04.jpg,MN,1,num_4,16,num_4,1.28341343789,,,2017_Nov_10_1446,60.0087190049,FEMA4ImagesEEG,001,102264,
AFNE01.JPG,AFNE01.JPG,AFNE01.JPG,AFNE01.JPG,AFNE01.JPG,AFNE01.JPG,,,,,2,7,27,9,,,,,,,,,,,,,,,,,,,AMSA17.jpg,AMNE06.jpg,AMNE18.jpg,AMSA05.jpg,AMSA05.jpg,MS,2,num_4,32,num_2,3.383272473,,,2017_Nov_10_1446,60.0087190049,FEMA4ImagesEEG,001,102264,
AFNE01.JPG,AFNE01.JPG,AFNE01.JPG,AFNE01.JPG,AFNE01.JPG,AFNE01.JPG,,,,,2,8,28,8,,,,,,,,,,,,,,,,,,,AMNE20.jpg,AMNE19.jpg,AMSA08.jpg,AMSA03.jpg,AMSA08.jpg,MS,2,num_2,32,num_6,1.01675254479,,,2017_Nov_10_1446,60.0087190049,FEMA4ImagesEEG,001,102264,
AFNE01.JPG,AFNE01.JPG,AFNE01.JPG,AFNE01.JPG,AFNE01.JPG,AFNE01.JPG,,,,,2,9,29,7,,,,,,,,,,,,,,,,,,,AMSA08.jpg,AMNE10.jpg,AMSA06.jpg,AMNE15.jpg,AMNE15.jpg,MN,1,num_4,32,num_6,1.03344094148,,,2017_Nov_10_1446,60.0087190049,FEMA4ImagesEEG,001,102264,
AFNE01.JPG,AFNE01.JPG,AFNE01.JPG,AFNE01.JPG,AFNE01.JPG,AFNE01.JPG,,,,,3,0,30,4,,,,,,,,,,,,,,,,,,,AMSA04.jpg,AMNE01.jpg,AMNE09.jpg,AMSA06.jpg,AMNE09.jpg,MN,1,num_2,32,num_8,0.933485684451,,,2017_Nov_10_1446,60.0087190049,FEMA4ImagesEEG,001,102264,
AFNE01.JPG,AFNE01.JPG,AFNE01.JPG,AFNE01.JPG,AFNE01.JPG,AFNE01.JPG,,,,,3,1,31,6,,,,,,,,,,,,,,,,,,,AMSA09.jpg,AMNE14.jpg,AMNE16.jpg,AMSA04.jpg,AMNE14.jpg,MN,1,num_6,32,num_2,1.20009974996,,,2017_Nov_10_1446,60.0087190049,FEMA4ImagesEEG,001,102264,
AFNE01.JPG,AFNE01.JPG,AFNE01.JPG,AFNE01.JPG,AFNE01.JPG,AFNE01.JPG,,,,,3,2,32,0,,,,,,,,,,,,,,,,,,,AMSA07.jpg,AMNE17.jpg,AMNE20.jpg,AMSA12.jpg,AMNE20.jpg,MN,1,num_2,32,num_6,1.26672151312,,,2017_Nov_10_1446,60.0087190049,FEMA4ImagesEEG,001,102264,
AFNE01.JPG,AFNE01.JPG,AFNE01.JPG,AFNE01.JPG,AFNE01.JPG,AFNE01.JPG,,,,,3,3,33,5,,,,,,,,,,,,,,,,,,,AMSA07.jpg,AMNE20.jpg,AMSA15.jpg,AMNE10.jpg,AMSA15.jpg,MS,2,num_2,32,num_6,1.75005476642,,,2017_Nov_10_1446,60.0087190049,FEMA4ImagesEEG,001,102264,
AFNE01.JPG,AFNE01.JPG,AFNE01.JPG,AFNE01.JPG,AFNE01.JPG,AFNE01.JPG,,,,,3,4,34,2,,,,,,,,,,,,,,,,,,,AMSA18.jpg,AMNE17.jpg,AMSA02.jpg,AMNE15.jpg,AMNE17.jpg,MN,1,num_6,32,num_2,1.18345016264,,,2017_Nov_10_1446,60.0087190049,FEMA4ImagesEEG,001,102264,
AFNE01.JPG,AFNE01.JPG,AFNE01.JPG,AFNE01.JPG,AFNE01.JPG,AFNE01.JPG,,,,,3,5,35,3,,,,,,,,,,,,,,,,,,,AMSA12.jpg,AMNE17.jpg,AMSA09.jpg,AMNE01.jpg,AMNE17.jpg,MN,1,num_6,16,num_6,0.566776199033,,,2017_Nov_10_1446,60.0087190049,FEMA4ImagesEEG,001,102264,
AFNE01.JPG,AFNE01.JPG,AFNE01.JPG,AFNE01.JPG,AFNE01.JPG,AFNE01.JPG,,,,,3,6,36,9,,,,,,,,,,,,,,,,,,,AMSA01.jpg,AMNE10.jpg,AMSA06.jpg,AMNE14.jpg,AMSA01.jpg,MS,2,num_8,16,num_8,0.850116508547,,,2017_Nov_10_1446,60.0087190049,FEMA4ImagesEEG,001,102264,
AFNE01.JPG,AFNE01.JPG,AFNE01.JPG,AFNE01.JPG,AFNE01.JPG,AFNE01.JPG,,,,,3,7,37,8,,,,,,,,,,,,,,,,,,,AMSA09.jpg,AMSA20.jpg,AMNE06.jpg,AMNE18.jpg,AMNE06.jpg,MN,1,num_2,32,num_8,1.5834152021,,,2017_Nov_10_1446,60.0087190049,FEMA4ImagesEEG,001,102264,
AFNE01.JPG,AFNE01.JPG,AFNE01.JPG,AFNE01.JPG,AFNE01.JPG,AFNE01.JPG,,,,,3,8,38,1,,,,,,,,,,,,,,,,,,,AMNE19.jpg,AMSA18.jpg,AMSA16.jpg,AMNE12.jpg,AMNE19.jpg,MN,1,num_8,32,num_2,1.50008483557,,,2017_Nov_10_1446,60.0087190049,FEMA4ImagesEEG,001,102264,
AFNE01.JPG,AFNE01.JPG,AFNE01.JPG,AFNE01.JPG,AFNE01.JPG,AFNE01.JPG,,,,,3,9,39,7,,,,,,,,,,,,,,,,,,,AMSA13.jpg,AMNE11.jpg,AMNE07.jpg,AMSA02.jpg,AMSA02.jpg,MS,2,num_4,32,num_6,0.783434767276,,,2017_Nov_10_1446,60.0087190049,FEMA4ImagesEEG,001,102264,
AFNE01.JPG,AFNE01.JPG,AFNE01.JPG,AFNE01.JPG,AFNE01.JPG,AFNE01.JPG,,,,,4,0,40,1,,,,,,,,,,,,,,,,,,,AMNE01.jpg,AMSA14.jpg,AMSA06.jpg,AMNE10.jpg,AMSA14.jpg,MS,2,num_6,16,num_6,0.833444790449,,,2017_Nov_10_1446,60.0087190049,FEMA4ImagesEEG,001,102264,
AFNE01.JPG,AFNE01.JPG,AFNE01.JPG,AFNE01.JPG,AFNE01.JPG,AFNE01.JPG,,,,,4,1,41,9,,,,,,,,,,,,,,,,,,,AMNE19.jpg,AMNE18.jpg,AMSA04.jpg,AMSA13.jpg,AMSA13.jpg,MS,2,num_4,32,num_8,1.83334151213,,,2017_Nov_10_1446,60.0087190049,FEMA4ImagesEEG,001,102264,
AFNE01.JPG,AFNE01.JPG,AFNE01.JPG,AFNE01.JPG,AFNE01.JPG,AFNE01.JPG,,,,,4,2,42,5,,,,,,,,,,,,,,,,,,,AMNE19.jpg,AMSA19.jpg,AMSA01.jpg,AMNE11.jpg,AMNE11.jpg,MN,1,num_4,16,num_4,1.1500717653,,,2017_Nov_10_1446,60.0087190049,FEMA4ImagesEEG,001,102264,
AFNE01.JPG,AFNE01.JPG,AFNE01.JPG,AFNE01.JPG,AFNE01.JPG,AFNE01.JPG,,,,,4,3,43,4,,,,,,,,,,,,,,,,,,,AMSA12.jpg,AMSA06.jpg,AMNE09.jpg,AMNE05.jpg,AMNE05.jpg,MN,1,num_4,32,num_6,1.61639876897,,,2017_Nov_10_1446,60.0087190049,FEMA4ImagesEEG,001,102264,
AFNE01.JPG,AFNE01.JPG,AFNE01.JPG,AFNE01.JPG,AFNE01.JPG,AFNE01.JPG,,,,,4,4,44,6,,,,,,,,,,,,,,,,,,,AMNE03.jpg,AMSA16.jpg,AMSA11.jpg,AMNE12.jpg,AMSA11.jpg,MS,2,num_2,32,num_8,1.40011450392,,,2017_Nov_10_1446,60.0087190049,FEMA4ImagesEEG,001,102264,
AFNE01.JPG,AFNE01.JPG,AFNE01.JPG,AFNE01.JPG,AFNE01.JPG,AFNE01.JPG,,,,,4,5,45,0,,,,,,,,,,,,,,,,,,,AMSA18.jpg,AMSA12.jpg,AMNE01.jpg,AMNE09.jpg,AMSA12.jpg,MS,2,num_6,16,num_6,2.45032242336,,,2017_Nov_10_1446,60.0087190049,FEMA4ImagesEEG,001,102264,
AFNE01.JPG,AFNE01.JPG,AFNE01.JPG,AFNE01.JPG,AFNE01.JPG,AFNE01.JPG,,,,,4,6,46,7,,,,,,,,,,,,,,,,,,,AMSA12.jpg,AMSA09.jpg,AMNE01.jpg,AMNE18.jpg,AMNE18.jpg,MN,1,num_4,32,num_8,0.700155077502,,,2017_Nov_10_1446,60.0087190049,FEMA4ImagesEEG,001,102264,
AFNE01.JPG,AFNE01.JPG,AFNE01.JPG,AFNE01.JPG,AFNE01.JPG,AFNE01.JPG,,,,,4,7,47,2,,,,,,,,,,,,,,,,,,,AMNE16.jpg,AMNE07.jpg,AMSA14.jpg,AMSA10.jpg,AMNE07.jpg,MN,1,num_6,16,num_6,1.35006855801,,,2017_Nov_10_1446,60.0087190049,FEMA4ImagesEEG,001,102264,
AFNE01.JPG,AFNE01.JPG,AFNE01.JPG,AFNE01.JPG,AFNE01.JPG,AFNE01.JPG,,,,,4,8,48,8,,,,,,,,,,,,,,,,,,,AMNE13.jpg,AMNE04.jpg,AMSA06.jpg,AMSA04.jpg,AMNE13.jpg,MN,1,num_8,16,num_8,0.816768260906,,,2017_Nov_10_1446,60.0087190049,FEMA4ImagesEEG,001,102264,
AFNE01.JPG,AFNE01.JPG,AFNE01.JPG,AFNE01.JPG,AFNE01.JPG,AFNE01.JPG,,,,,4,9,49,3,,,,,,,,,,,,,,,,,,,AMSA20.jpg,AMNE12.jpg,AMSA17.jpg,AMNE13.jpg,AMSA20.jpg,MS,2,num_8,16,num_8,1.50007136445,,,2017_Nov_10_1446,60.0087190049,FEMA4ImagesEEG,001,102264,
AFNE01.JPG,AFNE01.JPG,AFNE01.JPG,AFNE01.JPG,AFNE01.JPG,AFNE01.JPG,,,,,5,0,50,6,,,,,,,,,,,,,,,,,,,AMSA04.jpg,AMSA08.jpg,AMNE02.jpg,AMNE01.jpg,AMNE01.jpg,MN,1,num_4,32,num_6,0.800131503027,,,2017_Nov_10_1446,60.0087190049,FEMA4ImagesEEG,001,102264,
AFNE01.JPG,AFNE01.JPG,AFNE01.JPG,AFNE01.JPG,AFNE01.JPG,AFNE01.JPG,,,,,5,1,51,2,,,,,,,,,,,,,,,,,,,AMSA07.jpg,AMNE08.jpg,AMNE18.jpg,AMSA06.jpg,AMNE08.jpg,MN,1,num_6,32,num_4,0.966820140602,,,2017_Nov_10_1446,60.0087190049,FEMA4ImagesEEG,001,102264,
AFNE01.JPG,AFNE01.JPG,AFNE01.JPG,AFNE01.JPG,AFNE01.JPG,AFNE01.JPG,,,,,5,2,52,8,,,,,,,,,,,,,,,,,,,AMNE15.jpg,AMNE09.jpg,AMSA03.jpg,AMSA18.jpg,AMSA18.jpg,MS,2,num_4,32,num_8,1.21674837498,,,2017_Nov_10_1446,60.0087190049,FEMA4ImagesEEG,001,102264,
AFNE01.JPG,AFNE01.JPG,AFNE01.JPG,AFNE01.JPG,AFNE01.JPG,AFNE01.JPG,,,,,5,3,53,3,,,,,,,,,,,,,,,,,,,AMNE14.jpg,AMSA19.jpg,AMSA15.jpg,AMNE09.jpg,AMNE14.jpg,MN,1,num_8,16,num_8,0.850165260956,,,2017_Nov_10_1446,60.0087190049,FEMA4ImagesEEG,001,102264,
AFNE01.JPG,AFNE01.JPG,AFNE01.JPG,AFNE01.JPG,AFNE01.JPG,AFNE01.JPG,,,,,5,4,54,1,,,,,,,,,,,,,,,,,,,AMSA09.jpg,AMNE18.jpg,AMSA19.jpg,AMNE14.jpg,AMNE14.jpg,MN,1,num_4,16,num_4,1.01673939452,,,2017_Nov_10_1446,60.0087190049,FEMA4ImagesEEG,001,102264,
AFNE01.JPG,AFNE01.JPG,AFNE01.JPG,AFNE01.JPG,AFNE01.JPG,AFNE01.JPG,,,,,5,5,55,5,,,,,,,,,,,,,,,,,,,AMNE16.jpg,AMNE20.jpg,AMSA05.jpg,AMSA15.jpg,AMSA15.jpg,MS,2,num_4,32,num_8,1.06673690863,,,2017_Nov_10_1446,60.0087190049,FEMA4ImagesEEG,001,102264,
AFNE01.JPG,AFNE01.JPG,AFNE01.JPG,AFNE01.JPG,AFNE01.JPG,AFNE01.JPG,,,,,5,6,56,4,,,,,,,,,,,,,,,,,,,AMSA10.jpg,AMNE06.jpg,AMNE09.jpg,AMSA11.jpg,AMSA10.jpg,MS,2,num_8,32,num_6,0.900152190821,,,2017_Nov_10_1446,60.0087190049,FEMA4ImagesEEG,001,102264,
AFNE01.JPG,AFNE01.JPG,AFNE01.JPG,AFNE01.JPG,AFNE01.JPG,AFNE01.JPG,,,,,5,7,57,7,,,,,,,,,,,,,,,,,,,AMNE20.jpg,AMSA10.jpg,AMSA17.jpg,AMNE04.jpg,AMSA10.jpg,MS,2,num_6,32,num_8,1.0834673224,,,2017_Nov_10_1446,60.0087190049,FEMA4ImagesEEG,001,102264,
AFNE01.JPG,AFNE01.JPG,AFNE01.JPG,AFNE01.JPG,AFNE01.JPG,AFNE01.JPG,,,,,5,8,58,0,,,,,,,,,,,,,,,,,,,AMNE04.jpg,AMNE01.jpg,AMSA20.jpg,AMSA19.jpg,AMNE04.jpg,MN,1,num_8,32,num_4,2.68330342439,,,2017_Nov_10_1446,60.0087190049,FEMA4ImagesEEG,001,102264,
AFNE01.JPG,AFNE01.JPG,AFNE01.JPG,AFNE01.JPG,AFNE01.JPG,AFNE01.JPG,,,,,5,9,59,9,,,,,,,,,,,,,,,,,,,AMNE09.jpg,AMSA06.jpg,AMSA01.jpg,AMNE02.jpg,AMSA06.jpg,MS,2,num_6,32,num_2,3.26656884118,,,2017_Nov_10_1446,60.0087190049,FEMA4ImagesEEG,001,102264,
,,,,,,,,,,,,,,,,,,,,,,,,,,,,,,,,,,,,,,,,,,,space,7.68285054038,2017_Nov_10_1446,60.0087190049,FEMA4ImagesEEG,001,102264,
AFNE01.JPG,AFNE01.JPG,AFNE01.JPG,AFNE01.JPG,AFNE01.JPG,AFNE01.JPG,,,,,,,,,0,0,0,9,,,,,,,,,,,,,,,AFSA20.jpg,AFNE13.jpg,AFSA12.jpg,AFNE06.jpg,AFSA12.jpg,FS,4,num_2,32,num_8,1.48345256806,,,2017_Nov_10_1446,60.0087190049,FEMA4ImagesEEG,001,102264,
AFNE01.JPG,AFNE01.JPG,AFNE01.JPG,AFNE01.JPG,AFNE01.JPG,AFNE01.JPG,,,,,,,,,0,1,1,5,,,,,,,,,,,,,,,AFSA17.jpg,AFNE11.jpg,AFSA12.jpg,AFNE02.jpg,AFNE02.jpg,FN,3,num_4,32,num_2,1.63339860365,,,2017_Nov_10_1446,60.0087190049,FEMA4ImagesEEG,001,102264,
AFNE01.JPG,AFNE01.JPG,AFNE01.JPG,AFNE01.JPG,AFNE01.JPG,AFNE01.JPG,,,,,,,,,0,2,2,7,,,,,,,,,,,,,,,AFSA08.jpg,AFNE08.jpg,AFSA12.jpg,AFNE07.jpg,AFSA12.jpg,FS,4,num_2,32,num_8,1.00016999198,,,2017_Nov_10_1446,60.0087190049,FEMA4ImagesEEG,001,102264,
AFNE01.JPG,AFNE01.JPG,AFNE01.JPG,AFNE01.JPG,AFNE01.JPG,AFNE01.JPG,,,,,,,,,0,3,3,3,,,,,,,,,,,,,,,AFSA08.jpg,AFSA01.jpg,AFNE07.jpg,AFNE02.jpg,AFSA01.jpg,FS,4,num_6,16,num_6,1.43339347211,,,2017_Nov_10_1446,60.0087190049,FEMA4ImagesEEG,001,102264,
AFNE01.JPG,AFNE01.JPG,AFNE01.JPG,AFNE01.JPG,AFNE01.JPG,AFNE01.JPG,,,,,,,,,0,4,4,8,,,,,,,,,,,,,,,AFSA12.jpg,AFNE01.jpg,AFSA18.jpg,AFNE04.jpg,AFSA12.jpg,FS,4,num_8,16,num_8,1.40037815203,,,2017_Nov_10_1446,60.0087190049,FEMA4ImagesEEG,001,102264,
AFNE01.JPG,AFNE01.JPG,AFNE01.JPG,AFNE01.JPG,AFNE01.JPG,AFNE01.JPG,,,,,,,,,0,5,5,2,,,,,,,,,,,,,,,AFNE01.jpg,AFNE12.jpg,AFSA10.jpg,AFSA19.jpg,AFNE01.jpg,FN,3,num_8,32,num_4,1.76669954229,,,2017_Nov_10_1446,60.0087190049,FEMA4ImagesEEG,001,102264,
AFNE01.JPG,AFNE01.JPG,AFNE01.JPG,AFNE01.JPG,AFNE01.JPG,AFNE01.JPG,,,,,,,,,0,6,6,6,,,,,,,,,,,,,,,AFSA07.jpg,AFNE11.jpg,AFNE20.jpg,AFSA13.jpg,AFNE20.jpg,FN,3,num_2,16,num_2,1.61671950854,,,2017_Nov_10_1446,60.0087190049,FEMA4ImagesEEG,001,102264,
AFNE01.JPG,AFNE01.JPG,AFNE01.JPG,AFNE01.JPG,AFNE01.JPG,AFNE01.JPG,,,,,,,,,0,7,7,0,,,,,,,,,,,,,,,AFNE20.jpg,AFSA19.jpg,AFSA16.jpg,AFNE06.jpg,AFNE20.jpg,FN,3,num_8,32,num_6,0.983489613747,,,2017_Nov_10_1446,60.0087190049,FEMA4ImagesEEG,001,102264,
AFNE01.JPG,AFNE01.JPG,AFNE01.JPG,AFNE01.JPG,AFNE01.JPG,AFNE01.JPG,,,,,,,,,0,8,8,1,,,,,,,,,,,,,,,AFNE10.jpg,AFSA02.jpg,AFSA18.jpg,AFNE09.jpg,AFSA18.jpg,FS,4,num_2,32,num_8,1.53336701076,,,2017_Nov_10_1446,60.0087190049,FEMA4ImagesEEG,001,102264,
AFNE01.JPG,AFNE01.JPG,AFNE01.JPG,AFNE01.JPG,AFNE01.JPG,AFNE01.JPG,,,,,,,,,0,9,9,4,,,,,,,,,,,,,,,AFNE13.jpg,AFNE16.jpg,AFSA12.jpg,AFSA03.jpg,AFNE16.jpg,FN,3,num_6,16,num_6,1.2334197727,,,2017_Nov_10_1446,60.0087190049,FEMA4ImagesEEG,001,102264,
AFNE01.JPG,AFNE01.JPG,AFNE01.JPG,AFNE01.JPG,AFNE01.JPG,AFNE01.JPG,,,,,,,,,1,0,10,6,,,,,,,,,,,,,,,AFNE09.jpg,AFSA03.jpg,AFNE07.jpg,AFSA13.jpg,AFSA03.jpg,FS,4,num_6,32,num_8,1.03342233854,,,2017_Nov_10_1446,60.0087190049,FEMA4ImagesEEG,001,102264,
AFNE01.JPG,AFNE01.JPG,AFNE01.JPG,AFNE01.JPG,AFNE01.JPG,AFNE01.JPG,,,,,,,,,1,1,11,7,,,,,,,,,,,,,,,AFSA17.jpg,AFNE05.jpg,AFNE11.jpg,AFSA12.jpg,AFNE11.jpg,FN,3,num_2,32,num_4,1.20011482481,,,2017_Nov_10_1446,60.0087190049,FEMA4ImagesEEG,001,102264,
AFNE01.JPG,AFNE01.JPG,AFNE01.JPG,AFNE01.JPG,AFNE01.JPG,AFNE01.JPG,,,,,,,,,1,2,12,8,,,,,,,,,,,,,,,AFSA10.jpg,AFSA07.jpg,AFNE14.jpg,AFNE09.jpg,AFSA10.jpg,FS,4,num_8,32,num_6,0.816500122659,,,2017_Nov_10_1446,60.0087190049,FEMA4ImagesEEG,001,102264,
AFNE01.JPG,AFNE01.JPG,AFNE01.JPG,AFNE01.JPG,AFNE01.JPG,AFNE01.JPG,,,,,,,,,1,3,13,1,,,,,,,,,,,,,,,AFNE03.jpg,AFSA03.jpg,AFSA05.jpg,AFNE12.jpg,AFSA05.jpg,FS,4,num_2,32,num_8,0.983429956017,,,2017_Nov_10_1446,60.0087190049,FEMA4ImagesEEG,001,102264,
AFNE01.JPG,AFNE01.JPG,AFNE01.JPG,AFNE01.JPG,AFNE01.JPG,AFNE01.JPG,,,,,,,,,1,4,14,3,,,,,,,,,,,,,,,AFNE05.jpg,AFSA03.jpg,AFNE02.jpg,AFSA11.jpg,AFSA03.jpg,FS,4,num_6,16,num_6,0.733467081795,,,2017_Nov_10_1446,60.0087190049,FEMA4ImagesEEG,001,102264,
AFNE01.JPG,AFNE01.JPG,AFNE01.JPG,AFNE01.JPG,AFNE01.JPG,AFNE01.JPG,,,,,,,,,1,5,15,5,,,,,,,,,,,,,,,AFSA04.jpg,AFNE19.jpg,AFNE14.jpg,AFSA02.jpg,AFNE14.jpg,FN,3,num_2,32,num_6,1.08344390825,,,2017_Nov_10_1446,60.0087190049,FEMA4ImagesEEG,001,102264,
AFNE01.JPG,AFNE01.JPG,AFNE01.JPG,AFNE01.JPG,AFNE01.JPG,AFNE01.JPG,,,,,,,,,1,6,16,9,,,,,,,,,,,,,,,AFNE15.jpg,AFSA04.jpg,AFSA13.jpg,AFNE11.jpg,AFNE11.jpg,FN,3,num_4,16,num_4,1.250081548,,,2017_Nov_10_1446,60.0087190049,FEMA4ImagesEEG,001,102264,
AFNE01.JPG,AFNE01.JPG,AFNE01.JPG,AFNE01.JPG,AFNE01.JPG,AFNE01.JPG,,,,,,,,,1,7,17,4,,,,,,,,,,,,,,,AFSA08.jpg,AFNE19.jpg,AFSA04.jpg,AFNE17.jpg,AFSA08.jpg,FS,4,num_8,32,num_2,2.7166061271,,,2017_Nov_10_1446,60.0087190049,FEMA4ImagesEEG,001,102264,
AFNE01.JPG,AFNE01.JPG,AFNE01.JPG,AFNE01.JPG,AFNE01.JPG,AFNE01.JPG,,,,,,,,,1,8,18,2,,,,,,,,,,,,,,,AFNE03.jpg,AFSA01.jpg,AFNE09.jpg,AFSA09.jpg,AFSA09.jpg,FS,4,num_4,32,num_2,1.30024809204,,,2017_Nov_10_1446,60.0087190049,FEMA4ImagesEEG,001,102264,
AFNE01.JPG,AFNE01.JPG,AFNE01.JPG,AFNE01.JPG,AFNE01.JPG,AFNE01.JPG,,,,,,,,,1,9,19,0,,,,,,,,,,,,,,,AFNE02.jpg,AFSA02.jpg,AFSA08.jpg,AFNE06.jpg,AFNE02.jpg,FN,3,num_8,32,num_6,0.733451365493,,,2017_Nov_10_1446,60.0087190049,FEMA4ImagesEEG,001,102264,
AFNE01.JPG,AFNE01.JPG,AFNE01.JPG,AFNE01.JPG,AFNE01.JPG,AFNE01.JPG,,,,,,,,,2,0,20,7,,,,,,,,,,,,,,,AFSA11.jpg,AFNE11.jpg,AFSA16.jpg,AFNE14.jpg,AFNE11.jpg,FN,3,num_6,32,num_8,0.983427390223,,,2017_Nov_10_1446,60.0087190049,FEMA4ImagesEEG,001,102264,
AFNE01.JPG,AFNE01.JPG,AFNE01.JPG,AFNE01.JPG,AFNE01.JPG,AFNE01.JPG,,,,,,,,,2,1,21,3,,,,,,,,,,,,,,,AFSA07.jpg,AFNE01.jpg,AFSA18.jpg,AFNE19.jpg,AFSA18.jpg,FS,4,num_2,32,num_8,1.61670379224,,,2017_Nov_10_1446,60.0087190049,FEMA4ImagesEEG,001,102264,
AFNE01.JPG,AFNE01.JPG,AFNE01.JPG,AFNE01.JPG,AFNE01.JPG,AFNE01.JPG,,,,,,,,,2,2,22,6,,,,,,,,,,,,,,,AFNE14.jpg,AFSA01.jpg,AFNE07.jpg,AFSA15.jpg,AFNE07.jpg,FN,3,num_2,32,num_6,1.76666650642,,,2017_Nov_10_1446,60.0087190049,FEMA4ImagesEEG,001,102264,
AFNE01.JPG,AFNE01.JPG,AFNE01.JPG,AFNE01.JPG,AFNE01.JPG,AFNE01.JPG,,,,,,,,,2,3,23,4,,,,,,,,,,,,,,,AFNE13.jpg,AFSA10.jpg,AFSA11.jpg,AFNE10.jpg,AFNE13.jpg,FN,3,num_8,16,num_8,0.700131342746,,,2017_Nov_10_1446,60.0087190049,FEMA4ImagesEEG,001,102264,
AFNE01.JPG,AFNE01.JPG,AFNE01.JPG,AFNE01.JPG,AFNE01.JPG,AFNE01.JPG,,,,,,,,,2,4,24,8,,,,,,,,,,,,,,,AFNE14.jpg,AFSA11.jpg,AFSA05.jpg,AFNE12.jpg,AFNE14.jpg,FN,3,num_8,16,num_8,1.81665728521,,,2017_Nov_10_1446,60.0087190049,FEMA4ImagesEEG,001,102264,
AFNE01.JPG,AFNE01.JPG,AFNE01.JPG,AFNE01.JPG,AFNE01.JPG,AFNE01.JPG,,,,,,,,,2,5,25,2,,,,,,,,,,,,,,,AFNE12.jpg,AFSA05.jpg,AFSA11.jpg,AFNE02.jpg,AFSA11.jpg,FS,4,num_2,32,num_8,1.78340846649,,,2017_Nov_10_1446,60.0087190049,FEMA4ImagesEEG,001,102264,
AFNE01.JPG,AFNE01.JPG,AFNE01.JPG,AFNE01.JPG,AFNE01.JPG,AFNE01.JPG,,,,,,,,,2,6,26,5,,,,,,,,,,,,,,,AFSA01.jpg,AFNE12.jpg,AFNE16.jpg,AFSA16.jpg,AFNE16.jpg,FN,3,num_2,32,num_6,2.1499864487,,,2017_Nov_10_1446,60.0087190049,FEMA4ImagesEEG,001,102264,
AFNE01.JPG,AFNE01.JPG,AFNE01.JPG,AFNE01.JPG,AFNE01.JPG,AFNE01.JPG,,,,,,,,,2,7,27,0,,,,,,,,,,,,,,,AFSA02.jpg,AFNE16.jpg,AFNE12.jpg,AFSA10.jpg,AFSA10.jpg,FS,4,num_4,32,num_8,1.01675350685,,,2017_Nov_10_1446,60.0087190049,FEMA4ImagesEEG,001,102264,
AFNE01.JPG,AFNE01.JPG,AFNE01.JPG,AFNE01.JPG,AFNE01.JPG,AFNE01.JPG,,,,,,,,,2,8,28,9,,,,,,,,,,,,,,,AFSA13.jpg,AFSA07.jpg,AFNE12.jpg,AFNE10.jpg,AFSA13.jpg,FS,4,num_8,32,num_4,1.05011714995,,,2017_Nov_10_1446,60.0087190049,FEMA4ImagesEEG,001,102264,
AFNE01.JPG,AFNE01.JPG,AFNE01.JPG,AFNE01.JPG,AFNE01.JPG,AFNE01.JPG,,,,,,,,,2,9,29,1,,,,,,,,,,,,,,,AFNE01.jpg,AFSA02.jpg,AFNE14.jpg,AFSA16.jpg,AFNE01.jpg,FN,3,num_8,32,num_6,0.883445191197,,,2017_Nov_10_1446,60.0087190049,FEMA4ImagesEEG,001,102264,
AFNE01.JPG,AFNE01.JPG,AFNE01.JPG,AFNE01.JPG,AFNE01.JPG,AFNE01.JPG,,,,,,,,,3,0,30,6,,,,,,,,,,,,,,,AFSA04.jpg,AFSA16.jpg,AFNE15.jpg,AFNE02.jpg,AFSA04.jpg,FS,4,num_8,32,num_6,0.916727687232,,,2017_Nov_10_1446,60.0087190049,FEMA4ImagesEEG,001,102264,
AFNE01.JPG,AFNE01.JPG,AFNE01.JPG,AFNE01.JPG,AFNE01.JPG,AFNE01.JPG,,,,,,,,,3,1,31,5,,,,,,,,,,,,,,,AFSA02.jpg,AFNE06.jpg,AFSA07.jpg,AFNE14.jpg,AFNE06.jpg,FN,3,num_6,32,num_2,1.21667749179,,,2017_Nov_10_1446,60.0087190049,FEMA4ImagesEEG,001,102264,
AFNE01.JPG,AFNE01.JPG,AFNE01.JPG,AFNE01.JPG,AFNE01.JPG,AFNE01.JPG,,,,,,,,,3,2,32,3,,,,,,,,,,,,,,,AFNE11.jpg,AFSA17.jpg,AFSA16.jpg,AFNE04.jpg,AFNE11.jpg,FN,3,num_8,16,num_8,0.866770586232,,,2017_Nov_10_1446,60.0087190049,FEMA4ImagesEEG,001,102264,
AFNE01.JPG,AFNE01.JPG,AFNE01.JPG,AFNE01.JPG,AFNE01.JPG,AFNE01.JPG,,,,,,,,,3,3,33,9,,,,,,,,,,,,,,,AFSA05.jpg,AFSA12.jpg,AFNE04.jpg,AFNE12.jpg,AFNE12.jpg,FN,3,num_4,32,num_8,1.466725362,,,2017_Nov_10_1446,60.0087190049,FEMA4ImagesEEG,001,102264,
AFNE01.JPG,AFNE01.JPG,AFNE01.JPG,AFNE01.JPG,AFNE01.JPG,AFNE01.JPG,,,,,,,,,3,4,34,4,,,,,,,,,,,,,,,AFNE15.jpg,AFSA04.jpg,AFNE05.jpg,AFSA02.jpg,AFNE15.jpg,FN,3,num_8,32,num_6,1.0834201735,,,2017_Nov_10_1446,60.0087190049,FEMA4ImagesEEG,001,102264,
AFNE01.JPG,AFNE01.JPG,AFNE01.JPG,AFNE01.JPG,AFNE01.JPG,AFNE01.JPG,,,,,,,,,3,5,35,2,,,,,,,,,,,,,,,AFNE09.jpg,AFSA16.jpg,AFSA02.jpg,AFNE14.jpg,AFNE14.jpg,FN,3,num_4,32,num_8,0.850094056688,,,2017_Nov_10_1446,60.0087190049,FEMA4ImagesEEG,001,102264,
AFNE01.JPG,AFNE01.JPG,AFNE01.JPG,AFNE01.JPG,AFNE01.JPG,AFNE01.JPG,,,,,,,,,3,6,36,1,,,,,,,,,,,,,,,AFNE01.jpg,AFSA14.jpg,AFSA05.jpg,AFNE02.jpg,AFNE01.jpg,FN,3,num_8,32,num_2,0.483464756515,,,2017_Nov_10_1446,60.0087190049,FEMA4ImagesEEG,001,102264,
AFNE01.JPG,AFNE01.JPG,AFNE01.JPG,AFNE01.JPG,AFNE01.JPG,AFNE01.JPG,,,,,,,,,3,7,37,8,,,,,,,,,,,,,,,AFSA10.jpg,AFSA02.jpg,AFNE14.jpg,AFNE08.jpg,AFNE14.jpg,FN,3,num_2,32,num_8,1.11674468662,,,2017_Nov_10_1446,60.0087190049,FEMA4ImagesEEG,001,102264,
AFNE01.JPG,AFNE01.JPG,AFNE01.JPG,AFNE01.JPG,AFNE01.JPG,AFNE01.JPG,,,,,,,,,3,8,38,7,,,,,,,,,,,,,,,AFSA07.jpg,AFNE05.jpg,AFSA04.jpg,AFNE18.jpg,AFNE18.jpg,FN,3,num_4,32,num_6,1.1834498418,,,2017_Nov_10_1446,60.0087190049,FEMA4ImagesEEG,001,102264,
AFNE01.JPG,AFNE01.JPG,AFNE01.JPG,AFNE01.JPG,AFNE01.JPG,AFNE01.JPG,,,,,,,,,3,9,39,0,,,,,,,,,,,,,,,AFSA14.jpg,AFNE07.jpg,AFNE08.jpg,AFSA07.jpg,AFNE07.jpg,FN,3,num_6,32,num_8,1.96669024089,,,2017_Nov_10_1446,60.0087190049,FEMA4ImagesEEG,001,102264,
AFNE01.JPG,AFNE01.JPG,AFNE01.JPG,AFNE01.JPG,AFNE01.JPG,AFNE01.JPG,,,,,,,,,4,0,40,0,,,,,,,,,,,,,,,AFNE06.jpg,AFSA17.jpg,AFSA19.jpg,AFNE04.jpg,AFSA19.jpg,FS,4,num_2,16,num_2,1.28337911889,,,2017_Nov_10_1446,60.0087190049,FEMA4ImagesEEG,001,102264,
AFNE01.JPG,AFNE01.JPG,AFNE01.JPG,AFNE01.JPG,AFNE01.JPG,AFNE01.JPG,,,,,,,,,4,1,41,8,,,,,,,,,,,,,,,AFSA15.jpg,AFNE07.jpg,AFNE11.jpg,AFSA08.jpg,AFNE11.jpg,FN,3,num_2,32,num_6,0.66673851246,,,2017_Nov_10_1446,60.0087190049,FEMA4ImagesEEG,001,102264,
AFNE01.JPG,AFNE01.JPG,AFNE01.JPG,AFNE01.JPG,AFNE01.JPG,AFNE01.JPG,,,,,,,,,4,2,42,3,,,,,,,,,,,,,,,AFSA16.jpg,AFNE12.jpg,AFSA06.jpg,AFNE18.jpg,AFNE18.jpg,FN,3,num_4,32,num_8,0.600157803856,,,2017_Nov_10_1446,60.0087190049,FEMA4ImagesEEG,001,102264,
AFNE01.JPG,AFNE01.JPG,AFNE01.JPG,AFNE01.JPG,AFNE01.JPG,AFNE01.JPG,,,,,,,,,4,3,43,7,,,,,,,,,,,,,,,AFSA03.jpg,AFNE09.jpg,AFSA12.jpg,AFNE05.jpg,AFSA12.jpg,FS,4,num_2,32,num_6,1.06657750113,,,2017_Nov_10_1446,60.0087190049,FEMA4ImagesEEG,001,102264,
AFNE01.JPG,AFNE01.JPG,AFNE01.JPG,AFNE01.JPG,AFNE01.JPG,AFNE01.JPG,,,,,,,,,4,4,44,9,,,,,,,,,,,,,,,AFNE20.jpg,AFNE08.jpg,AFSA06.jpg,AFSA10.jpg,AFNE08.jpg,FN,3,num_6,32,num_2,1.56671044766,,,2017_Nov_10_1446,60.0087190049,FEMA4ImagesEEG,001,102264,
AFNE01.JPG,AFNE01.JPG,AFNE01.JPG,AFNE01.JPG,AFNE01.JPG,AFNE01.JPG,,,,,,,,,4,5,45,4,,,,,,,,,,,,,,,AFNE12.jpg,AFSA03.jpg,AFNE08.jpg,AFSA20.jpg,AFSA20.jpg,FS,4,num_4,32,num_6,0.600154275773,,,2017_Nov_10_1446,60.0087190049,FEMA4ImagesEEG,001,102264,
AFNE01.JPG,AFNE01.JPG,AFNE01.JPG,AFNE01.JPG,AFNE01.JPG,AFNE01.JPG,,,,,,,,,4,6,46,5,,,,,,,,,,,,,,,AFSA19.jpg,AFNE05.jpg,AFNE07.jpg,AFSA04.jpg,AFSA19.jpg,FS,4,num_8,16,num_8,3.13326661964,,,2017_Nov_10_1446,60.0087190049,FEMA4ImagesEEG,001,102264,
AFNE01.JPG,AFNE01.JPG,AFNE01.JPG,AFNE01.JPG,AFNE01.JPG,AFNE01.JPG,,,,,,,,,4,7,47,2,,,,,,,,,,,,,,,AFSA04.jpg,AFNE17.jpg,AFNE04.jpg,AFSA06.jpg,AFNE04.jpg,FN,3,num_2,16,num_2,0.466796886874,,,2017_Nov_10_1446,60.0087190049,FEMA4ImagesEEG,001,102264,
AFNE01.JPG,AFNE01.JPG,AFNE01.JPG,AFNE01.JPG,AFNE01.JPG,AFNE01.JPG,,,,,,,,,4,8,48,6,,,,,,,,,,,,,,,AFNE11.jpg,AFSA15.jpg,AFSA10.jpg,AFNE16.jpg,AFSA15.jpg,FS,4,num_6,32,num_4,1.06672439957,,,2017_Nov_10_1446,60.0087190049,FEMA4ImagesEEG,001,102264,
AFNE01.JPG,AFNE01.JPG,AFNE01.JPG,AFNE01.JPG,AFNE01.JPG,AFNE01.JPG,,,,,,,,,4,9,49,1,,,,,,,,,,,,,,,AFSA20.jpg,AFNE03.jpg,AFSA18.jpg,AFNE19.jpg,AFNE19.jpg,FN,3,num_4,32,num_6,0.583434125641,,,2017_Nov_10_1446,60.0087190049,FEMA4ImagesEEG,001,102264,
AFNE01.JPG,AFNE01.JPG,AFNE01.JPG,AFNE01.JPG,AFNE01.JPG,AFNE01.JPG,,,,,,,,,5,0,50,4,,,,,,,,,,,,,,,AFNE17.jpg,AFNE08.jpg,AFSA02.jpg,AFSA04.jpg,AFNE17.jpg,FN,3,num_8,32,num_2,0.53346162918,,,2017_Nov_10_1446,60.0087190049,FEMA4ImagesEEG,001,102264,
AFNE01.JPG,AFNE01.JPG,AFNE01.JPG,AFNE01.JPG,AFNE01.JPG,AFNE01.JPG,,,,,,,,,5,1,51,3,,,,,,,,,,,,,,,AFSA03.jpg,AFNE20.jpg,AFNE19.jpg,AFSA06.jpg,AFSA03.jpg,FS,4,num_8,16,num_8,0.700222753687,,,2017_Nov_10_1446,60.0087190049,FEMA4ImagesEEG,001,102264,
AFNE01.JPG,AFNE01.JPG,AFNE01.JPG,AFNE01.JPG,AFNE01.JPG,AFNE01.JPG,,,,,,,,,5,2,52,6,,,,,,,,,,,,,,,AFSA08.jpg,AFNE19.jpg,AFSA07.jpg,AFNE01.jpg,AFNE01.jpg,FN,3,num_4,32,num_6,1.31672544219,,,2017_Nov_10_1446,60.0087190049,FEMA4ImagesEEG,001,102264,
AFNE01.JPG,AFNE01.JPG,AFNE01.JPG,AFNE01.JPG,AFNE01.JPG,AFNE01.JPG,,,,,,,,,5,3,53,5,,,,,,,,,,,,,,,AFSA09.jpg,AFSA17.jpg,AFNE17.jpg,AFNE20.jpg,AFSA17.jpg,FS,4,num_6,32,num_2,0.400184425293,,,2017_Nov_10_1446,60.0087190049,FEMA4ImagesEEG,001,102264,
AFNE01.JPG,AFNE01.JPG,AFNE01.JPG,AFNE01.JPG,AFNE01.JPG,AFNE01.JPG,,,,,,,,,5,4,54,9,,,,,,,,,,,,,,,AFNE12.jpg,AFSA09.jpg,AFNE20.jpg,AFSA07.jpg,AFNE20.jpg,FN,3,num_2,32,num_8,1.15009261365,,,2017_Nov_10_1446,60.0087190049,FEMA4ImagesEEG,001,102264,
AFNE01.JPG,AFNE01.JPG,AFNE01.JPG,AFNE01.JPG,AFNE01.JPG,AFNE01.JPG,,,,,,,,,5,5,55,1,,,,,,,,,,,,,,,AFNE02.jpg,AFNE01.jpg,AFSA14.jpg,AFSA11.jpg,AFNE02.jpg,FN,3,num_8,32,num_6,1.60012989957,,,2017_Nov_10_1446,60.0087190049,FEMA4ImagesEEG,001,102264,
AFNE01.JPG,AFNE01.JPG,AFNE01.JPG,AFNE01.JPG,AFNE01.JPG,AFNE01.JPG,,,,,,,,,5,6,56,2,,,,,,,,,,,,,,,AFNE13.jpg,AFSA02.jpg,AFSA11.jpg,AFNE02.jpg,AFNE02.jpg,FN,3,num_4,16,num_4,1.05010239617,,,2017_Nov_10_1446,60.0087190049,FEMA4ImagesEEG,001,102264,
AFNE01.JPG,AFNE01.JPG,AFNE01.JPG,AFNE01.JPG,AFNE01.JPG,AFNE01.JPG,,,,,,,,,5,7,57,8,,,,,,,,,,,,,,,AFNE04.jpg,AFNE12.jpg,AFSA16.jpg,AFSA10.jpg,AFSA16.jpg,FS,4,num_2,32,num_8,1.33377114264,,,2017_Nov_10_1446,60.0087190049,FEMA4ImagesEEG,001,102264,
AFNE01.JPG,AFNE01.JPG,AFNE01.JPG,AFNE01.JPG,AFNE01.JPG,AFNE01.JPG,,,,,,,,,5,8,58,7,,,,,,,,,,,,,,,AFSA05.jpg,AFNE10.jpg,AFSA20.jpg,AFNE16.jpg,AFNE16.jpg,FN,3,num_4,48,None,,,,2017_Nov_10_1446,60.0087190049,FEMA4ImagesEEG,001,102264,
AFNE01.JPG,AFNE01.JPG,AFNE01.JPG,AFNE01.JPG,AFNE01.JPG,AFNE01.JPG,,,,,,,,,5,9,59,0,,,,,,,,,,,,,,,AFSA06.jpg,AFSA13.jpg,AFNE10.jpg,AFNE07.jpg,AFSA06.jpg,FS,4,num_8,16,num_8,0.766767860157,,,2017_Nov_10_1446,60.0087190049,FEMA4ImagesEEG,001,102264,
,,,,,,,,,,,,,,,,,,,,,,,,,,,,,,,,,,,,,,,,,,,space,23.481668615,2017_Nov_10_1446,60.0087190049,FEMA4ImagesEEG,001,102264,
AFNE01.JPG,AFNE01.JPG,AFNE01.JPG,AFNE01.JPG,AFNE01.JPG,AFNE01.JPG,,,,,,,,,,,,,0,0,0,5,,,,,,,,,,,AMNE18.jpg,AMSA05.jpg,AMSA09.jpg,AMNE15.jpg,AMNE18.jpg,MN,1,num_8,16,num_8,1.96667933604,,,2017_Nov_10_1446,60.0087190049,FEMA4ImagesEEG,001,102264,
AFNE01.JPG,AFNE01.JPG,AFNE01.JPG,AFNE01.JPG,AFNE01.JPG,AFNE01.JPG,,,,,,,,,,,,,0,1,1,7,,,,,,,,,,,AMSA14.jpg,AMSA10.jpg,AMNE12.jpg,AMNE16.jpg,AMNE16.jpg,MN,1,num_4,32,num_6,0.883439417928,,,2017_Nov_10_1446,60.0087190049,FEMA4ImagesEEG,001,102264,
AFNE01.JPG,AFNE01.JPG,AFNE01.JPG,AFNE01.JPG,AFNE01.JPG,AFNE01.JPG,,,,,,,,,,,,,0,2,2,0,,,,,,,,,,,AMSA20.jpg,AMSA11.jpg,AMNE09.jpg,AMNE15.jpg,AMSA20.jpg,MS,2,num_8,32,num_4,0.950117631117,,,2017_Nov_10_1446,60.0087190049,FEMA4ImagesEEG,001,102264,
AFNE01.JPG,AFNE01.JPG,AFNE01.JPG,AFNE01.JPG,AFNE01.JPG,AFNE01.JPG,,,,,,,,,,,,,0,3,3,3,,,,,,,,,,,AMNE06.jpg,AMNE19.jpg,AMSA16.jpg,AMSA12.jpg,AMNE06.jpg,MN,1,num_8,16,num_8,0.883441663114,,,2017_Nov_10_1446,60.0087190049,FEMA4ImagesEEG,001,102264,
AFNE01.JPG,AFNE01.JPG,AFNE01.JPG,AFNE01.JPG,AFNE01.JPG,AFNE01.JPG,,,,,,,,,,,,,0,4,4,9,,,,,,,,,,,AMSA02.jpg,AMNE20.jpg,AMSA15.jpg,AMNE14.jpg,AMNE20.jpg,MN,1,num_6,16,num_6,1.30011787172,,,2017_Nov_10_1446,60.0087190049,FEMA4ImagesEEG,001,102264,
AFNE01.JPG,AFNE01.JPG,AFNE01.JPG,AFNE01.JPG,AFNE01.JPG,AFNE01.JPG,,,,,,,,,,,,,0,5,5,2,,,,,,,,,,,AMNE05.jpg,AMNE19.jpg,AMSA04.jpg,AMSA11.jpg,AMNE05.jpg,MN,1,num_8,16,num_8,0.983414560556,,,2017_Nov_10_1446,60.0087190049,FEMA4ImagesEEG,001,102264,
AFNE01.JPG,AFNE01.JPG,AFNE01.JPG,AFNE01.JPG,AFNE01.JPG,AFNE01.JPG,,,,,,,,,,,,,0,6,6,4,,,,,,,,,,,AMNE03.jpg,AMSA20.jpg,AMSA12.jpg,AMNE08.jpg,AMNE08.jpg,MN,1,num_4,32,num_8,0.816794882296,,,2017_Nov_10_1446,60.0087190049,FEMA4ImagesEEG,001,102264,
AFNE01.JPG,AFNE01.JPG,AFNE01.JPG,AFNE01.JPG,AFNE01.JPG,AFNE01.JPG,,,,,,,,,,,,,0,7,7,8,,,,,,,,,,,AMNE14.jpg,AMSA12.jpg,AMSA04.jpg,AMNE08.jpg,AMSA12.jpg,MS,2,num_6,16,num_6,0.983542214846,,,2017_Nov_10_1446,60.0087190049,FEMA4ImagesEEG,001,102264,
AFNE01.JPG,AFNE01.JPG,AFNE01.JPG,AFNE01.JPG,AFNE01.JPG,AFNE01.JPG,,,,,,,,,,,,,0,8,8,6,,,,,,,,,,,AMSA04.jpg,AMNE08.jpg,AMNE04.jpg,AMSA16.jpg,AMNE04.jpg,MN,1,num_2,32,num_6,1.21674773353,,,2017_Nov_10_1446,60.0087190049,FEMA4ImagesEEG,001,102264,
AFNE01.JPG,AFNE01.JPG,AFNE01.JPG,AFNE01.JPG,AFNE01.JPG,AFNE01.JPG,,,,,,,,,,,,,0,9,9,1,,,,,,,,,,,AMSA03.jpg,AMNE06.jpg,AMNE04.jpg,AMSA08.jpg,AMNE04.jpg,MN,1,num_2,16,num_2,1.35009934916,,,2017_Nov_10_1446,60.0087190049,FEMA4ImagesEEG,001,102264,
AFNE01.JPG,AFNE01.JPG,AFNE01.JPG,AFNE01.JPG,AFNE01.JPG,AFNE01.JPG,,,,,,,,,,,,,1,0,10,1,,,,,,,,,,,AMSA07.jpg,AMNE06.jpg,AMNE01.jpg,AMSA16.jpg,AMNE01.jpg,MN,1,num_2,32,num_8,1.06673498428,,,2017_Nov_10_1446,60.0087190049,FEMA4ImagesEEG,001,102264,
AFNE01.JPG,AFNE01.JPG,AFNE01.JPG,AFNE01.JPG,AFNE01.JPG,AFNE01.JPG,,,,,,,,,,,,,1,1,11,4,,,,,,,,,,,AMSA17.jpg,AMNE11.jpg,AMSA20.jpg,AMNE03.jpg,AMSA20.jpg,MS,2,num_2,32,num_8,1.05011330126,,,2017_Nov_10_1446,60.0087190049,FEMA4ImagesEEG,001,102264,
AFNE01.JPG,AFNE01.JPG,AFNE01.JPG,AFNE01.JPG,AFNE01.JPG,AFNE01.JPG,,,,,,,,,,,,,1,2,12,5,,,,,,,,,,,AMNE09.jpg,AMSA08.jpg,AMSA12.jpg,AMNE16.jpg,AMSA12.jpg,MS,2,num_2,32,num_6,0.600324267754,,,2017_Nov_10_1446,60.0087190049,FEMA4ImagesEEG,001,102264,
AFNE01.JPG,AFNE01.JPG,AFNE01.JPG,AFNE01.JPG,AFNE01.JPG,AFNE01.JPG,,,,,,,,,,,,,1,3,13,0,,,,,,,,,,,AMSA17.jpg,AMNE06.jpg,AMSA11.jpg,AMNE11.jpg,AMNE06.jpg,MN,1,num_6,32,num_8,0.916740196291,,,2017_Nov_10_1446,60.0087190049,FEMA4ImagesEEG,001,102264,
AFNE01.JPG,AFNE01.JPG,AFNE01.JPG,AFNE01.JPG,AFNE01.JPG,AFNE01.JPG,,,,,,,,,,,,,1,4,14,7,,,,,,,,,,,AMSA01.jpg,AMSA07.jpg,AMNE12.jpg,AMNE11.jpg,AMNE11.jpg,MN,1,num_4,32,num_8,1.88336693076,,,2017_Nov_10_1446,60.0087190049,FEMA4ImagesEEG,001,102264,
AFNE01.JPG,AFNE01.JPG,AFNE01.JPG,AFNE01.JPG,AFNE01.JPG,AFNE01.JPG,,,,,,,,,,,,,1,5,15,9,,,,,,,,,,,AMNE14.jpg,AMSA20.jpg,AMNE06.jpg,AMSA05.jpg,AMSA20.jpg,MS,2,num_6,16,num_6,0.500169831561,,,2017_Nov_10_1446,60.0087190049,FEMA4ImagesEEG,001,102264,
AFNE01.JPG,AFNE01.JPG,AFNE01.JPG,AFNE01.JPG,AFNE01.JPG,AFNE01.JPG,,,,,,,,,,,,,1,6,16,8,,,,,,,,,,,AMNE09.jpg,AMNE15.jpg,AMSA13.jpg,AMSA02.jpg,AMSA13.jpg,MS,2,num_2,32,num_8,1.08347918978,,,2017_Nov_10_1446,60.0087190049,FEMA4ImagesEEG,001,102264,
AFNE01.JPG,AFNE01.JPG,AFNE01.JPG,AFNE01.JPG,AFNE01.JPG,AFNE01.JPG,,,,,,,,,,,,,1,7,17,3,,,,,,,,,,,AMNE09.jpg,AMNE03.jpg,AMSA02.jpg,AMSA05.jpg,AMNE03.jpg,MN,1,num_6,16,num_6,0.883479831042,,,2017_Nov_10_1446,60.0087190049,FEMA4ImagesEEG,001,102264,
AFNE01.JPG,AFNE01.JPG,AFNE01.JPG,AFNE01.JPG,AFNE01.JPG,AFNE01.JPG,,,,,,,,,,,,,1,8,18,2,,,,,,,,,,,AMSA18.jpg,AMSA09.jpg,AMNE14.jpg,AMNE13.jpg,AMSA09.jpg,MS,2,num_6,16,num_6,1.10014866269,,,2017_Nov_10_1446,60.0087190049,FEMA4ImagesEEG,001,102264,
AFNE01.JPG,AFNE01.JPG,AFNE01.JPG,AFNE01.JPG,AFNE01.JPG,AFNE01.JPG,,,,,,,,,,,,,1,9,19,6,,,,,,,,,,,AMNE03.jpg,AMNE18.jpg,AMSA14.jpg,AMSA12.jpg,AMSA14.jpg,MS,2,num_2,16,num_2,1.083452889,,,2017_Nov_10_1446,60.0087190049,FEMA4ImagesEEG,001,102264,
AFNE01.JPG,AFNE01.JPG,AFNE01.JPG,AFNE01.JPG,AFNE01.JPG,AFNE01.JPG,,,,,,,,,,,,,2,0,20,7,,,,,,,,,,,AMNE18.jpg,AMSA03.jpg,AMSA15.jpg,AMNE17.jpg,AMNE17.jpg,MN,1,num_4,16,num_4,0.916756554041,,,2017_Nov_10_1446,60.0087190049,FEMA4ImagesEEG,001,102264,
AFNE01.JPG,AFNE01.JPG,AFNE01.JPG,AFNE01.JPG,AFNE01.JPG,AFNE01.JPG,,,,,,,,,,,,,2,1,21,0,,,,,,,,,,,AMSA17.jpg,AMSA14.jpg,AMNE04.jpg,AMNE12.jpg,AMSA14.jpg,MS,2,num_6,32,num_2,0.98341712635,,,2017_Nov_10_1446,60.0087190049,FEMA4ImagesEEG,001,102264,
AFNE01.JPG,AFNE01.JPG,AFNE01.JPG,AFNE01.JPG,AFNE01.JPG,AFNE01.JPG,,,,,,,,,,,,,2,2,22,3,,,,,,,,,,,AMSA09.jpg,AMNE19.jpg,AMNE16.jpg,AMSA03.jpg,AMSA03.jpg,MS,2,num_4,16,num_4,0.950150988065,,,2017_Nov_10_1446,60.0087190049,FEMA4ImagesEEG,001,102264,
AFNE01.JPG,AFNE01.JPG,AFNE01.JPG,AFNE01.JPG,AFNE01.JPG,AFNE01.JPG,,,,,,,,,,,,,2,3,23,2,,,,,,,,,,,AMNE17.jpg,AMNE08.jpg,AMSA06.jpg,AMSA01.jpg,AMSA06.jpg,MS,2,num_2,32,num_6,0.683442304377,,,2017_Nov_10_1446,60.0087190049,FEMA4ImagesEEG,001,102264,
AFNE01.JPG,AFNE01.JPG,AFNE01.JPG,AFNE01.JPG,AFNE01.JPG,AFNE01.JPG,,,,,,,,,,,,,2,4,24,4,,,,,,,,,,,AMSA04.jpg,AMNE03.jpg,AMNE07.jpg,AMSA18.jpg,AMSA04.jpg,MS,2,num_8,16,num_8,1.766729692,,,2017_Nov_10_1446,60.0087190049,FEMA4ImagesEEG,001,102264,
AFNE01.JPG,AFNE01.JPG,AFNE01.JPG,AFNE01.JPG,AFNE01.JPG,AFNE01.JPG,,,,,,,,,,,,,2,5,25,9,,,,,,,,,,,AMNE17.jpg,AMSA16.jpg,AMSA09.jpg,AMNE08.jpg,AMSA16.jpg,MS,2,num_6,16,num_6,0.800104240421,,,2017_Nov_10_1446,60.0087190049,FEMA4ImagesEEG,001,102264,
AFNE01.JPG,AFNE01.JPG,AFNE01.JPG,AFNE01.JPG,AFNE01.JPG,AFNE01.JPG,,,,,,,,,,,,,2,6,26,8,,,,,,,,,,,AMNE20.jpg,AMNE18.jpg,AMSA08.jpg,AMSA11.jpg,AMSA11.jpg,MS,2,num_4,48,None,,,,2017_Nov_10_1446,60.0087190049,FEMA4ImagesEEG,001,102264,
AFNE01.JPG,AFNE01.JPG,AFNE01.JPG,AFNE01.JPG,AFNE01.JPG,AFNE01.JPG,,,,,,,,,,,,,2,7,27,6,,,,,,,,,,,AMSA11.jpg,AMSA05.jpg,AMNE09.jpg,AMNE16.jpg,AMNE09.jpg,MN,1,num_2,32,num_8,1.26671349467,,,2017_Nov_10_1446,60.0087190049,FEMA4ImagesEEG,001,102264,
AFNE01.JPG,AFNE01.JPG,AFNE01.JPG,AFNE01.JPG,AFNE01.JPG,AFNE01.JPG,,,,,,,,,,,,,2,8,28,5,,,,,,,,,,,AMNE10.jpg,AMSA05.jpg,AMSA14.jpg,AMNE08.jpg,AMNE10.jpg,MN,1,num_8,32,num_2,2.33335450222,,,2017_Nov_10_1446,60.0087190049,FEMA4ImagesEEG,001,102264,
AFNE01.JPG,AFNE01.JPG,AFNE01.JPG,AFNE01.JPG,AFNE01.JPG,AFNE01.JPG,,,,,,,,,,,,,2,9,29,1,,,,,,,,,,,AMNE02.jpg,AMNE07.jpg,AMSA15.jpg,AMSA16.jpg,AMNE07.jpg,MN,1,num_6,32,num_4,4.0498775579,,,2017_Nov_10_1446,60.0087190049,FEMA4ImagesEEG,001,102264,
AFNE01.JPG,AFNE01.JPG,AFNE01.JPG,AFNE01.JPG,AFNE01.JPG,AFNE01.JPG,,,,,,,,,,,,,3,0,30,7,,,,,,,,,,,AMNE16.jpg,AMSA19.jpg,AMSA11.jpg,AMNE01.jpg,AMSA19.jpg,MS,2,num_6,32,num_8,3.93287050631,,,2017_Nov_10_1446,60.0087190049,FEMA4ImagesEEG,001,102264,
AFNE01.JPG,AFNE01.JPG,AFNE01.JPG,AFNE01.JPG,AFNE01.JPG,AFNE01.JPG,,,,,,,,,,,,,3,1,31,5,,,,,,,,,,,AMSA02.jpg,AMNE14.jpg,AMNE19.jpg,AMSA11.jpg,AMNE14.jpg,MN,1,num_6,16,num_6,0.983314489946,,,2017_Nov_10_1446,60.0087190049,FEMA4ImagesEEG,001,102264,
AFNE01.JPG,AFNE01.JPG,AFNE01.JPG,AFNE01.JPG,AFNE01.JPG,AFNE01.JPG,,,,,,,,,,,,,3,2,32,3,,,,,,,,,,,AMNE01.jpg,AMSA18.jpg,AMSA13.jpg,AMNE09.jpg,AMSA18.jpg,MS,2,num_6,16,num_6,0.700110815465,,,2017_Nov_10_1446,60.0087190049,FEMA4ImagesEEG,001,102264,
AFNE01.JPG,AFNE01.JPG,AFNE01.JPG,AFNE01.JPG,AFNE01.JPG,AFNE01.JPG,,,,,,,,,,,,,3,3,33,4,,,,,,,,,,,AMSA04.jpg,AMNE20.jpg,AMSA13.jpg,AMNE12.jpg,AMSA04.jpg,MS,2,num_8,16,num_8,1.16677459562,,,2017_Nov_10_1446,60.0087190049,FEMA4ImagesEEG,001,102264,
AFNE01.JPG,AFNE01.JPG,AFNE01.JPG,AFNE01.JPG,AFNE01.JPG,AFNE01.JPG,,,,,,,,,,,,,3,4,34,6,,,,,,,,,,,AMNE12.jpg,AMNE20.jpg,AMSA07.jpg,AMSA13.jpg,AMSA13.jpg,MS,2,num_4,32,num_2,0.63341592392,,,2017_Nov_10_1446,60.0087190049,FEMA4ImagesEEG,001,102264,
AFNE01.JPG,AFNE01.JPG,AFNE01.JPG,AFNE01.JPG,AFNE01.JPG,AFNE01.JPG,,,,,,,,,,,,,3,5,35,9,,,,,,,,,,,AMSA09.jpg,AMNE18.jpg,AMNE17.jpg,AMSA12.jpg,AMNE17.jpg,MN,1,num_2,32,num_6,0.666760964086,,,2017_Nov_10_1446,60.0087190049,FEMA4ImagesEEG,001,102264,
AFNE01.JPG,AFNE01.JPG,AFNE01.JPG,AFNE01.JPG,AFNE01.JPG,AFNE01.JPG,,,,,,,,,,,,,3,6,36,8,,,,,,,,,,,AMNE05.jpg,AMSA19.jpg,AMSA15.jpg,AMNE18.jpg,AMNE18.jpg,MN,1,num_4,16,num_4,0.583487689262,,,2017_Nov_10_1446,60.0087190049,FEMA4ImagesEEG,001,102264,
AFNE01.JPG,AFNE01.JPG,AFNE01.JPG,AFNE01.JPG,AFNE01.JPG,AFNE01.JPG,,,,,,,,,,,,,3,7,37,1,,,,,,,,,,,AMNE09.jpg,AMSA03.jpg,AMSA17.jpg,AMNE20.jpg,AMNE09.jpg,MN,1,num_8,32,num_6,0.666752624791,,,2017_Nov_10_1446,60.0087190049,FEMA4ImagesEEG,001,102264,
AFNE01.JPG,AFNE01.JPG,AFNE01.JPG,AFNE01.JPG,AFNE01.JPG,AFNE01.JPG,,,,,,,,,,,,,3,8,38,0,,,,,,,,,,,AMSA12.jpg,AMNE04.jpg,AMSA15.jpg,AMNE16.jpg,AMSA15.jpg,MS,2,num_2,16,num_2,0.566816291772,,,2017_Nov_10_1446,60.0087190049,FEMA4ImagesEEG,001,102264,
AFNE01.JPG,AFNE01.JPG,AFNE01.JPG,AFNE01.JPG,AFNE01.JPG,AFNE01.JPG,,,,,,,,,,,,,3,9,39,2,,,,,,,,,,,AMSA04.jpg,AMNE14.jpg,AMNE18.jpg,AMSA02.jpg,AMNE14.jpg,MN,1,num_6,16,num_6,0.783445993206,,,2017_Nov_10_1446,60.0087190049,FEMA4ImagesEEG,001,102264,
AFNE01.JPG,AFNE01.JPG,AFNE01.JPG,AFNE01.JPG,AFNE01.JPG,AFNE01.JPG,,,,,,,,,,,,,4,0,40,7,,,,,,,,,,,AMNE11.jpg,AMSA17.jpg,AMNE17.jpg,AMSA15.jpg,AMSA17.jpg,MS,2,num_6,32,num_4,1.10008579772,,,2017_Nov_10_1446,60.0087190049,FEMA4ImagesEEG,001,102264,
AFNE01.JPG,AFNE01.JPG,AFNE01.JPG,AFNE01.JPG,AFNE01.JPG,AFNE01.JPG,,,,,,,,,,,,,4,1,41,6,,,,,,,,,,,AMSA09.jpg,AMNE09.jpg,AMSA15.jpg,AMNE05.jpg,AMSA09.jpg,MS,2,num_8,16,num_8,0.816728168633,,,2017_Nov_10_1446,60.0087190049,FEMA4ImagesEEG,001,102264,
AFNE01.JPG,AFNE01.JPG,AFNE01.JPG,AFNE01.JPG,AFNE01.JPG,AFNE01.JPG,,,,,,,,,,,,,4,2,42,0,,,,,,,,,,,AMNE12.jpg,AMNE20.jpg,AMSA08.jpg,AMSA02.jpg,AMSA08.jpg,MS,2,num_2,16,num_2,0.883400287712,,,2017_Nov_10_1446,60.0087190049,FEMA4ImagesEEG,001,102264,
AFNE01.JPG,AFNE01.JPG,AFNE01.JPG,AFNE01.JPG,AFNE01.JPG,AFNE01.JPG,,,,,,,,,,,,,4,3,43,8,,,,,,,,,,,AMNE03.jpg,AMSA10.jpg,AMSA06.jpg,AMNE02.jpg,AMNE02.jpg,MN,1,num_4,32,num_8,0.716799853835,,,2017_Nov_10_1446,60.0087190049,FEMA4ImagesEEG,001,102264,
AFNE01.JPG,AFNE01.JPG,AFNE01.JPG,AFNE01.JPG,AFNE01.JPG,AFNE01.JPG,,,,,,,,,,,,,4,4,44,5,,,,,,,,,,,AMNE05.jpg,AMSA06.jpg,AMNE13.jpg,AMSA13.jpg,AMSA06.jpg,MS,2,num_6,32,num_4,1.03337743506,,,2017_Nov_10_1446,60.0087190049,FEMA4ImagesEEG,001,102264,
AFNE01.JPG,AFNE01.JPG,AFNE01.JPG,AFNE01.JPG,AFNE01.JPG,AFNE01.JPG,,,,,,,,,,,,,4,5,45,4,,,,,,,,,,,AMSA08.jpg,AMNE10.jpg,AMSA12.jpg,AMNE13.jpg,AMSA12.jpg,MS,2,num_2,32,num_6,0.516782854451,,,2017_Nov_10_1446,60.0087190049,FEMA4ImagesEEG,001,102264,
AFNE01.JPG,AFNE01.JPG,AFNE01.JPG,AFNE01.JPG,AFNE01.JPG,AFNE01.JPG,,,,,,,,,,,,,4,6,46,3,,,,,,,,,,,AMSA09.jpg,AMNE16.jpg,AMNE09.jpg,AMSA20.jpg,AMSA09.jpg,MS,2,num_8,48,None,,,,2017_Nov_10_1446,60.0087190049,FEMA4ImagesEEG,001,102264,
AFNE01.JPG,AFNE01.JPG,AFNE01.JPG,AFNE01.JPG,AFNE01.JPG,AFNE01.JPG,,,,,,,,,,,,,4,7,47,9,,,,,,,,,,,AMNE05.jpg,AMSA07.jpg,AMSA03.jpg,AMNE16.jpg,AMNE05.jpg,MN,1,num_8,16,num_8,0.450146978954,,,2017_Nov_10_1446,60.0087190049,FEMA4ImagesEEG,001,102264,
AFNE01.JPG,AFNE01.JPG,AFNE01.JPG,AFNE01.JPG,AFNE01.JPG,AFNE01.JPG,,,,,,,,,,,,,4,8,48,2,,,,,,,,,,,AMSA07.jpg,AMNE13.jpg,AMSA05.jpg,AMNE20.jpg,AMNE20.jpg,MN,1,num_4,32,num_6,0.833492259728,,,2017_Nov_10_1446,60.0087190049,FEMA4ImagesEEG,001,102264,
AFNE01.JPG,AFNE01.JPG,AFNE01.JPG,AFNE01.JPG,AFNE01.JPG,AFNE01.JPG,,,,,,,,,,,,,4,9,49,1,,,,,,,,,,,AMSA14.jpg,AMNE10.jpg,AMNE04.jpg,AMSA02.jpg,AMSA14.jpg,MS,2,num_8,32,num_2,1.26670515561,,,2017_Nov_10_1446,60.0087190049,FEMA4ImagesEEG,001,102264,
AFNE01.JPG,AFNE01.JPG,AFNE01.JPG,AFNE01.JPG,AFNE01.JPG,AFNE01.JPG,,,,,,,,,,,,,5,0,50,4,,,,,,,,,,,AMNE07.jpg,AMSA08.jpg,AMSA09.jpg,AMNE18.jpg,AMNE07.jpg,MN,1,num_8,32,num_6,1.06675037951,,,2017_Nov_10_1446,60.0087190049,FEMA4ImagesEEG,001,102264,
AFNE01.JPG,AFNE01.JPG,AFNE01.JPG,AFNE01.JPG,AFNE01.JPG,AFNE01.JPG,,,,,,,,,,,,,5,1,51,1,,,,,,,,,,,AMNE05.jpg,AMSA15.jpg,AMSA02.jpg,AMNE04.jpg,AMNE04.jpg,MN,1,num_4,32,num_2,0.849963836605,,,2017_Nov_10_1446,60.0087190049,FEMA4ImagesEEG,001,102264,
AFNE01.JPG,AFNE01.JPG,AFNE01.JPG,AFNE01.JPG,AFNE01.JPG,AFNE01.JPG,,,,,,,,,,,,,5,2,52,5,,,,,,,,,,,AMNE20.jpg,AMNE19.jpg,AMSA02.jpg,AMSA16.jpg,AMNE19.jpg,MN,1,num_6,32,num_4,1.2500886044,,,2017_Nov_10_1446,60.0087190049,FEMA4ImagesEEG,001,102264,
AFNE01.JPG,AFNE01.JPG,AFNE01.JPG,AFNE01.JPG,AFNE01.JPG,AFNE01.JPG,,,,,,,,,,,,,5,3,53,8,,,,,,,,,,,AMSA18.jpg,AMNE14.jpg,AMNE12.jpg,AMSA09.jpg,AMSA18.jpg,MS,2,num_8,16,num_8,0.616767940111,,,2017_Nov_10_1446,60.0087190049,FEMA4ImagesEEG,001,102264,
AFNE01.JPG,AFNE01.JPG,AFNE01.JPG,AFNE01.JPG,AFNE01.JPG,AFNE01.JPG,,,,,,,,,,,,,5,4,54,9,,,,,,,,,,,AMSA01.jpg,AMSA06.jpg,AMNE10.jpg,AMNE15.jpg,AMNE10.jpg,MN,1,num_2,32,num_6,0.850108169485,,,2017_Nov_10_1446,60.0087190049,FEMA4ImagesEEG,001,102264,
AFNE01.JPG,AFNE01.JPG,AFNE01.JPG,AFNE01.JPG,AFNE01.JPG,AFNE01.JPG,,,,,,,,,,,,,5,5,55,2,,,,,,,,,,,AMSA13.jpg,AMNE08.jpg,AMNE02.jpg,AMSA15.jpg,AMSA13.jpg,MS,2,num_8,32,num_4,1.65013030055,,,2017_Nov_10_1446,60.0087190049,FEMA4ImagesEEG,001,102264,
AFNE01.JPG,AFNE01.JPG,AFNE01.JPG,AFNE01.JPG,AFNE01.JPG,AFNE01.JPG,,,,,,,,,,,,,5,6,56,7,,,,,,,,,,,AMSA01.jpg,AMNE04.jpg,AMSA06.jpg,AMNE05.jpg,AMSA01.jpg,MS,2,num_8,32,num_6,0.966736427508,,,2017_Nov_10_1446,60.0087190049,FEMA4ImagesEEG,001,102264,
AFNE01.JPG,AFNE01.JPG,AFNE01.JPG,AFNE01.JPG,AFNE01.JPG,AFNE01.JPG,,,,,,,,,,,,,5,7,57,0,,,,,,,,,,,AMSA14.jpg,AMNE13.jpg,AMSA06.jpg,AMNE14.jpg,AMSA14.jpg,MS,2,num_8,32,num_4,0.933340068907,,,2017_Nov_10_1446,60.0087190049,FEMA4ImagesEEG,001,102264,
AFNE01.JPG,AFNE01.JPG,AFNE01.JPG,AFNE01.JPG,AFNE01.JPG,AFNE01.JPG,,,,,,,,,,,,,5,8,58,3,,,,,,,,,,,AMSA15.jpg,AMNE15.jpg,AMNE03.jpg,AMSA08.jpg,AMSA15.jpg,MS,2,num_8,32,num_6,0.433597462485,,,2017_Nov_10_1446,60.0087190049,FEMA4ImagesEEG,001,102264,
AFNE01.JPG,AFNE01.JPG,AFNE01.JPG,AFNE01.JPG,AFNE01.JPG,AFNE01.JPG,,,,,,,,,,,,,5,9,59,6,,,,,,,,,,,AMSA12.jpg,AMNE09.jpg,AMSA15.jpg,AMNE15.jpg,AMNE15.jpg,MN,1,num_4,16,num_4,0.700191321084,,,2017_Nov_10_1446,60.0087190049,FEMA4ImagesEEG,001,102264,
,,,,,,,,,,,,,,,,,,,,,,,,,,,,,,,,,,,,,,,,,,,space,10.3993598039,2017_Nov_10_1446,60.0087190049,FEMA4ImagesEEG,001,102264,
AFNE01.JPG,AFNE01.JPG,AFNE01.JPG,AFNE01.JPG,AFNE01.JPG,AFNE01.JPG,,,,,,,,,,,,,,,,,0,0,0,9,,,,,,,AFSA15.jpg,AFSA03.jpg,AFNE13.jpg,AFNE14.jpg,AFSA15.jpg,FS,4,num_8,16,num_8,1.85004338017,,,2017_Nov_10_1446,60.0087190049,FEMA4ImagesEEG,001,102264,
AFNE01.JPG,AFNE01.JPG,AFNE01.JPG,AFNE01.JPG,AFNE01.JPG,AFNE01.JPG,,,,,,,,,,,,,,,,,0,1,1,1,,,,,,,AFNE01.jpg,AFNE19.jpg,AFSA13.jpg,AFSA12.jpg,AFSA13.jpg,FS,4,num_2,16,num_2,1.23343035695,,,2017_Nov_10_1446,60.0087190049,FEMA4ImagesEEG,001,102264,
AFNE01.JPG,AFNE01.JPG,AFNE01.JPG,AFNE01.JPG,AFNE01.JPG,AFNE01.JPG,,,,,,,,,,,,,,,,,0,2,2,3,,,,,,,AFNE15.jpg,AFSA17.jpg,AFSA19.jpg,AFNE07.jpg,AFNE15.jpg,FN,3,num_8,16,num_8,0.766745408066,,,2017_Nov_10_1446,60.0087190049,FEMA4ImagesEEG,001,102264,
AFNE01.JPG,AFNE01.JPG,AFNE01.JPG,AFNE01.JPG,AFNE01.JPG,AFNE01.JPG,,,,,,,,,,,,,,,,,0,3,3,2,,,,,,,AFSA01.jpg,AFNE10.jpg,AFSA20.jpg,AFNE11.jpg,AFSA20.jpg,FS,4,num_2,32,num_4,0.900167265674,,,2017_Nov_10_1446,60.0087190049,FEMA4ImagesEEG,001,102264,
AFNE01.JPG,AFNE01.JPG,AFNE01.JPG,AFNE01.JPG,AFNE01.JPG,AFNE01.JPG,,,,,,,,,,,,,,,,,0,4,4,4,,,,,,,AFNE10.jpg,AFNE05.jpg,AFSA10.jpg,AFSA05.jpg,AFSA10.jpg,FS,4,num_2,32,num_6,0.833330607042,,,2017_Nov_10_1446,60.0087190049,FEMA4ImagesEEG,001,102264,
AFNE01.JPG,AFNE01.JPG,AFNE01.JPG,AFNE01.JPG,AFNE01.JPG,AFNE01.JPG,,,,,,,,,,,,,,,,,0,5,5,7,,,,,,,AFNE17.jpg,AFSA04.jpg,AFSA19.jpg,AFNE03.jpg,AFNE03.jpg,FN,3,num_4,32,num_8,0.83358687791,,,2017_Nov_10_1446,60.0087190049,FEMA4ImagesEEG,001,102264,
AFNE01.JPG,AFNE01.JPG,AFNE01.JPG,AFNE01.JPG,AFNE01.JPG,AFNE01.JPG,,,,,,,,,,,,,,,,,0,6,6,8,,,,,,,AFNE15.jpg,AFSA08.jpg,AFNE19.jpg,AFSA06.jpg,AFNE15.jpg,FN,3,num_8,16,num_8,2.16665944993,,,2017_Nov_10_1446,60.0087190049,FEMA4ImagesEEG,001,102264,
AFNE01.JPG,AFNE01.JPG,AFNE01.JPG,AFNE01.JPG,AFNE01.JPG,AFNE01.JPG,,,,,,,,,,,,,,,,,0,7,7,6,,,,,,,AFNE01.jpg,AFNE18.jpg,AFSA16.jpg,AFSA01.jpg,AFSA16.jpg,FS,4,num_2,32,num_6,3.26657621819,,,2017_Nov_10_1446,60.0087190049,FEMA4ImagesEEG,001,102264,
AFNE01.JPG,AFNE01.JPG,AFNE01.JPG,AFNE01.JPG,AFNE01.JPG,AFNE01.JPG,,,,,,,,,,,,,,,,,0,8,8,5,,,,,,,AFSA02.jpg,AFSA08.jpg,AFNE10.jpg,AFNE12.jpg,AFSA08.jpg,FS,4,num_6,32,num_8,1.8333613982,,,2017_Nov_10_1446,60.0087190049,FEMA4ImagesEEG,001,102264,
AFNE01.JPG,AFNE01.JPG,AFNE01.JPG,AFNE01.JPG,AFNE01.JPG,AFNE01.JPG,,,,,,,,,,,,,,,,,0,9,9,0,,,,,,,AFNE07.jpg,AFSA07.jpg,AFNE14.jpg,AFSA16.jpg,AFSA07.jpg,FS,4,num_6,16,num_6,0.566803462105,,,2017_Nov_10_1446,60.0087190049,FEMA4ImagesEEG,001,102264,
AFNE01.JPG,AFNE01.JPG,AFNE01.JPG,AFNE01.JPG,AFNE01.JPG,AFNE01.JPG,,,,,,,,,,,,,,,,,1,0,10,7,,,,,,,AFNE18.jpg,AFSA12.jpg,AFNE14.jpg,AFSA07.jpg,AFNE14.jpg,FN,3,num_2,32,num_8,0.883438776247,,,2017_Nov_10_1446,60.0087190049,FEMA4ImagesEEG,001,102264,
AFNE01.JPG,AFNE01.JPG,AFNE01.JPG,AFNE01.JPG,AFNE01.JPG,AFNE01.JPG,,,,,,,,,,,,,,,,,1,1,11,2,,,,,,,AFSA18.jpg,AFSA11.jpg,AFNE14.jpg,AFNE11.jpg,AFSA11.jpg,FS,4,num_6,16,num_6,1.08344134223,,,2017_Nov_10_1446,60.0087190049,FEMA4ImagesEEG,001,102264,
AFNE01.JPG,AFNE01.JPG,AFNE01.JPG,AFNE01.JPG,AFNE01.JPG,AFNE01.JPG,,,,,,,,,,,,,,,,,1,2,12,9,,,,,,,AFNE17.jpg,AFSA13.jpg,AFNE07.jpg,AFSA02.jpg,AFSA13.jpg,FS,4,num_6,16,num_6,1.08345962455,,,2017_Nov_10_1446,60.0087190049,FEMA4ImagesEEG,001,102264,
AFNE01.JPG,AFNE01.JPG,AFNE01.JPG,AFNE01.JPG,AFNE01.JPG,AFNE01.JPG,,,,,,,,,,,,,,,,,1,3,13,1,,,,,,,AFNE11.jpg,AFSA18.jpg,AFNE06.jpg,AFSA17.jpg,AFSA17.jpg,FS,4,num_4,16,num_4,1.35040052352,,,2017_Nov_10_1446,60.0087190049,FEMA4ImagesEEG,001,102264,
AFNE01.JPG,AFNE01.JPG,AFNE01.JPG,AFNE01.JPG,AFNE01.JPG,AFNE01.JPG,,,,,,,,,,,,,,,,,1,4,14,8,,,,,,,AFNE08.jpg,AFSA07.jpg,AFSA12.jpg,AFNE19.jpg,AFSA12.jpg,FS,4,num_2,32,num_8,1.41671181074,,,2017_Nov_10_1446,60.0087190049,FEMA4ImagesEEG,001,102264,
AFNE01.JPG,AFNE01.JPG,AFNE01.JPG,AFNE01.JPG,AFNE01.JPG,AFNE01.JPG,,,,,,,,,,,,,,,,,1,5,15,0,,,,,,,AFNE14.jpg,AFSA03.jpg,AFNE08.jpg,AFSA07.jpg,AFNE08.jpg,FN,3,num_2,16,num_2,2.59998139716,,,2017_Nov_10_1446,60.0087190049,FEMA4ImagesEEG,001,102264,
AFNE01.JPG,AFNE01.JPG,AFNE01.JPG,AFNE01.JPG,AFNE01.JPG,AFNE01.JPG,,,,,,,,,,,,,,,,,1,6,16,6,,,,,,,AFSA09.jpg,AFNE05.jpg,AFSA04.jpg,AFNE10.jpg,AFNE05.jpg,FN,3,num_6,32,num_2,0.433468204457,,,2017_Nov_10_1446,60.0087190049,FEMA4ImagesEEG,001,102264,
AFNE01.JPG,AFNE01.JPG,AFNE01.JPG,AFNE01.JPG,AFNE01.JPG,AFNE01.JPG,,,,,,,,,,,,,,,,,1,7,17,3,,,,,,,AFNE20.jpg,AFSA14.jpg,AFSA16.jpg,AFNE10.jpg,AFNE10.jpg,FN,3,num_4,32,num_8,0.883649502415,,,2017_Nov_10_1446,60.0087190049,FEMA4ImagesEEG,001,102264,
AFNE01.JPG,AFNE01.JPG,AFNE01.JPG,AFNE01.JPG,AFNE01.JPG,AFNE01.JPG,,,,,,,,,,,,,,,,,1,8,18,4,,,,,,,AFSA20.jpg,AFSA13.jpg,AFNE11.jpg,AFNE06.jpg,AFNE06.jpg,FN,3,num_4,16,num_4,1.43351920205,,,2017_Nov_10_1446,60.0087190049,FEMA4ImagesEEG,001,102264,
AFNE01.JPG,AFNE01.JPG,AFNE01.JPG,AFNE01.JPG,AFNE01.JPG,AFNE01.JPG,,,,,,,,,,,,,,,,,1,9,19,5,,,,,,,AFSA11.jpg,AFNE14.jpg,AFSA05.jpg,AFNE15.jpg,AFNE14.jpg,FN,3,num_6,32,num_8,1.25005492661,,,2017_Nov_10_1446,60.0087190049,FEMA4ImagesEEG,001,102264,
AFNE01.JPG,AFNE01.JPG,AFNE01.JPG,AFNE01.JPG,AFNE01.JPG,AFNE01.JPG,,,,,,,,,,,,,,,,,2,0,20,1,,,,,,,AFNE10.jpg,AFNE05.jpg,AFSA01.jpg,AFSA19.jpg,AFNE10.jpg,FN,3,num_8,16,num_8,0.483486245852,,,2017_Nov_10_1446,60.0087190049,FEMA4ImagesEEG,001,102264,
AFNE01.JPG,AFNE01.JPG,AFNE01.JPG,AFNE01.JPG,AFNE01.JPG,AFNE01.JPG,,,,,,,,,,,,,,,,,2,1,21,0,,,,,,,AFNE08.jpg,AFSA01.jpg,AFSA10.jpg,AFNE14.jpg,AFNE08.jpg,FN,3,num_8,32,num_6,1.63304418675,,,2017_Nov_10_1446,60.0087190049,FEMA4ImagesEEG,001,102264,
AFNE01.JPG,AFNE01.JPG,AFNE01.JPG,AFNE01.JPG,AFNE01.JPG,AFNE01.JPG,,,,,,,,,,,,,,,,,2,2,22,5,,,,,,,AFNE20.jpg,AFSA02.jpg,AFNE09.jpg,AFSA05.jpg,AFNE20.jpg,FN,3,num_8,16,num_8,0.650155959651,,,2017_Nov_10_1446,60.0087190049,FEMA4ImagesEEG,001,102264,
AFNE01.JPG,AFNE01.JPG,AFNE01.JPG,AFNE01.JPG,AFNE01.JPG,AFNE01.JPG,,,,,,,,,,,,,,,,,2,3,23,3,,,,,,,AFNE16.jpg,AFNE18.jpg,AFSA05.jpg,AFSA08.jpg,AFSA05.jpg,FS,4,num_2,32,num_6,1.05008026515,,,2017_Nov_10_1446,60.0087190049,FEMA4ImagesEEG,001,102264,
AFNE01.JPG,AFNE01.JPG,AFNE01.JPG,AFNE01.JPG,AFNE01.JPG,AFNE01.JPG,,,,,,,,,,,,,,,,,2,4,24,6,,,,,,,AFSA05.jpg,AFNE02.jpg,AFSA07.jpg,AFNE10.jpg,AFNE02.jpg,FN,3,num_6,32,num_2,3.80026140274,,,2017_Nov_10_1446,60.0087190049,FEMA4ImagesEEG,001,102264,
AFNE01.JPG,AFNE01.JPG,AFNE01.JPG,AFNE01.JPG,AFNE01.JPG,AFNE01.JPG,,,,,,,,,,,,,,,,,2,5,25,7,,,,,,,AFSA05.jpg,AFNE17.jpg,AFSA09.jpg,AFNE19.jpg,AFNE17.jpg,FN,3,num_6,16,num_6,1.03341239574,,,2017_Nov_10_1446,60.0087190049,FEMA4ImagesEEG,001,102264,
AFNE01.JPG,AFNE01.JPG,AFNE01.JPG,AFNE01.JPG,AFNE01.JPG,AFNE01.JPG,,,,,,,,,,,,,,,,,2,6,26,2,,,,,,,AFNE20.jpg,AFNE02.jpg,AFSA11.jpg,AFSA03.jpg,AFSA11.jpg,FS,4,num_2,32,num_8,0.550152912503,,,2017_Nov_10_1446,60.0087190049,FEMA4ImagesEEG,001,102264,
AFNE01.JPG,AFNE01.JPG,AFNE01.JPG,AFNE01.JPG,AFNE01.JPG,AFNE01.JPG,,,,,,,,,,,,,,,,,2,7,27,8,,,,,,,AFNE09.jpg,AFSA10.jpg,AFNE12.jpg,AFSA08.jpg,AFSA08.jpg,FS,4,num_4,32,num_6,0.683079227572,,,2017_Nov_10_1446,60.0087190049,FEMA4ImagesEEG,001,102264,
AFNE01.JPG,AFNE01.JPG,AFNE01.JPG,AFNE01.JPG,AFNE01.JPG,AFNE01.JPG,,,,,,,,,,,,,,,,,2,8,28,4,,,,,,,AFSA09.jpg,AFSA05.jpg,AFNE13.jpg,AFNE08.jpg,AFSA05.jpg,FS,4,num_6,32,num_4,1.93341383897,,,2017_Nov_10_1446,60.0087190049,FEMA4ImagesEEG,001,102264,
AFNE01.JPG,AFNE01.JPG,AFNE01.JPG,AFNE01.JPG,AFNE01.JPG,AFNE01.JPG,,,,,,,,,,,,,,,,,2,9,29,9,,,,,,,AFNE01.jpg,AFNE10.jpg,AFSA10.jpg,AFSA20.jpg,AFSA20.jpg,FS,4,num_4,32,num_6,0.533850686159,,,2017_Nov_10_1446,60.0087190049,FEMA4ImagesEEG,001,102264,
AFNE01.JPG,AFNE01.JPG,AFNE01.JPG,AFNE01.JPG,AFNE01.JPG,AFNE01.JPG,,,,,,,,,,,,,,,,,3,0,30,9,,,,,,,AFSA04.jpg,AFNE06.jpg,AFSA06.jpg,AFNE07.jpg,AFSA06.jpg,FS,4,num_2,32,num_4,0.70012396574,,,2017_Nov_10_1446,60.0087190049,FEMA4ImagesEEG,001,102264,
AFNE01.JPG,AFNE01.JPG,AFNE01.JPG,AFNE01.JPG,AFNE01.JPG,AFNE01.JPG,,,,,,,,,,,,,,,,,3,1,31,3,,,,,,,AFSA17.jpg,AFSA20.jpg,AFNE01.jpg,AFNE02.jpg,AFNE01.jpg,FN,3,num_2,32,num_6,0.500003367662,,,2017_Nov_10_1446,60.0087190049,FEMA4ImagesEEG,001,102264,
AFNE01.JPG,AFNE01.JPG,AFNE01.JPG,AFNE01.JPG,AFNE01.JPG,AFNE01.JPG,,,,,,,,,,,,,,,,,3,2,32,7,,,,,,,AFNE20.jpg,AFSA20.jpg,AFSA18.jpg,AFNE04.jpg,AFSA20.jpg,FS,4,num_6,32,num_8,0.783423220739,,,2017_Nov_10_1446,60.0087190049,FEMA4ImagesEEG,001,102264,
AFNE01.JPG,AFNE01.JPG,AFNE01.JPG,AFNE01.JPG,AFNE01.JPG,AFNE01.JPG,,,,,,,,,,,,,,,,,3,3,33,1,,,,,,,AFNE15.jpg,AFNE06.jpg,AFSA07.jpg,AFSA08.jpg,AFNE06.jpg,FN,3,num_6,16,num_6,0.85014665802,,,2017_Nov_10_1446,60.0087190049,FEMA4ImagesEEG,001,102264,
AFNE01.JPG,AFNE01.JPG,AFNE01.JPG,AFNE01.JPG,AFNE01.JPG,AFNE01.JPG,,,,,,,,,,,,,,,,,3,4,34,5,,,,,,,AFSA16.jpg,AFNE18.jpg,AFNE13.jpg,AFSA10.jpg,AFNE18.jpg,FN,3,num_6,32,num_2,1.33342057443,,,2017_Nov_10_1446,60.0087190049,FEMA4ImagesEEG,001,102264,
AFNE01.JPG,AFNE01.JPG,AFNE01.JPG,AFNE01.JPG,AFNE01.JPG,AFNE01.JPG,,,,,,,,,,,,,,,,,3,5,35,6,,,,,,,AFNE06.jpg,AFSA03.jpg,AFNE05.jpg,AFSA18.jpg,AFNE06.jpg,FN,3,num_8,32,num_4,1.13344559213,,,2017_Nov_10_1446,60.0087190049,FEMA4ImagesEEG,001,102264,
AFNE01.JPG,AFNE01.JPG,AFNE01.JPG,AFNE01.JPG,AFNE01.JPG,AFNE01.JPG,,,,,,,,,,,,,,,,,3,6,36,0,,,,,,,AFNE10.jpg,AFNE05.jpg,AFSA09.jpg,AFSA17.jpg,AFSA17.jpg,FS,4,num_4,32,num_2,0.250157884089,,,2017_Nov_10_1446,60.0087190049,FEMA4ImagesEEG,001,102264,
AFNE01.JPG,AFNE01.JPG,AFNE01.JPG,AFNE01.JPG,AFNE01.JPG,AFNE01.JPG,,,,,,,,,,,,,,,,,3,7,37,2,,,,,,,AFNE07.jpg,AFSA06.jpg,AFNE02.jpg,AFSA08.jpg,AFSA06.jpg,FS,4,num_6,32,num_4,0.000192122999579,,,2017_Nov_10_1446,60.0087190049,FEMA4ImagesEEG,001,102264,
AFNE01.JPG,AFNE01.JPG,AFNE01.JPG,AFNE01.JPG,AFNE01.JPG,AFNE01.JPG,,,,,,,,,,,,,,,,,3,8,38,8,,,,,,,AFSA07.jpg,AFSA04.jpg,AFNE11.jpg,AFNE01.jpg,AFNE11.jpg,FN,3,num_2,32,num_6,0.350113140885,,,2017_Nov_10_1446,60.0087190049,FEMA4ImagesEEG,001,102264,
AFNE01.JPG,AFNE01.JPG,AFNE01.JPG,AFNE01.JPG,AFNE01.JPG,AFNE01.JPG,,,,,,,,,,,,,,,,,3,9,39,4,,,,,,,AFNE04.jpg,AFSA01.jpg,AFNE19.jpg,AFSA03.jpg,AFSA03.jpg,FS,4,num_4,32,num_8,0.450119074667,,,2017_Nov_10_1446,60.0087190049,FEMA4ImagesEEG,001,102264,
AFNE01.JPG,AFNE01.JPG,AFNE01.JPG,AFNE01.JPG,AFNE01.JPG,AFNE01.JPG,,,,,,,,,,,,,,,,,4,0,40,9,,,,,,,AFNE04.jpg,AFSA08.jpg,AFSA12.jpg,AFNE15.jpg,AFSA08.jpg,FS,4,num_6,16,num_6,0.266784698702,,,2017_Nov_10_1446,60.0087190049,FEMA4ImagesEEG,001,102264,
AFNE01.JPG,AFNE01.JPG,AFNE01.JPG,AFNE01.JPG,AFNE01.JPG,AFNE01.JPG,,,,,,,,,,,,,,,,,4,1,41,2,,,,,,,AFNE08.jpg,AFSA16.jpg,AFSA04.jpg,AFNE17.jpg,AFNE17.jpg,FN,3,num_4,16,num_4,0.566776519874,,,2017_Nov_10_1446,60.0087190049,FEMA4ImagesEEG,001,102264,
AFNE01.JPG,AFNE01.JPG,AFNE01.JPG,AFNE01.JPG,AFNE01.JPG,AFNE01.JPG,,,,,,,,,,,,,,,,,4,2,42,7,,,,,,,AFNE13.jpg,AFSA04.jpg,AFSA15.jpg,AFNE02.jpg,AFNE02.jpg,FN,3,num_4,32,num_6,0.366808273131,,,2017_Nov_10_1446,60.0087190049,FEMA4ImagesEEG,001,102264,
AFNE01.JPG,AFNE01.JPG,AFNE01.JPG,AFNE01.JPG,AFNE01.JPG,AFNE01.JPG,,,,,,,,,,,,,,,,,4,3,43,5,,,,,,,AFSA07.jpg,AFNE14.jpg,AFNE07.jpg,AFSA12.jpg,AFNE14.jpg,FN,3,num_6,32,num_2,0.616804825142,,,2017_Nov_10_1446,60.0087190049,FEMA4ImagesEEG,001,102264,
AFNE01.JPG,AFNE01.JPG,AFNE01.JPG,AFNE01.JPG,AFNE01.JPG,AFNE01.JPG,,,,,,,,,,,,,,,,,4,4,44,4,,,,,,,AFNE14.jpg,AFNE17.jpg,AFSA03.jpg,AFSA15.jpg,AFSA03.jpg,FS,4,num_2,32,num_8,1.24976369506,,,2017_Nov_10_1446,60.0087190049,FEMA4ImagesEEG,001,102264,
AFNE01.JPG,AFNE01.JPG,AFNE01.JPG,AFNE01.JPG,AFNE01.JPG,AFNE01.JPG,,,,,,,,,,,,,,,,,4,5,45,0,,,,,,,AFSA09.jpg,AFNE17.jpg,AFSA04.jpg,AFNE03.jpg,AFNE17.jpg,FN,3,num_6,32,num_2,0.649996872758,,,2017_Nov_10_1446,60.0087190049,FEMA4ImagesEEG,001,102264,
AFNE01.JPG,AFNE01.JPG,AFNE01.JPG,AFNE01.JPG,AFNE01.JPG,AFNE01.JPG,,,,,,,,,,,,,,,,,4,6,46,8,,,,,,,AFSA14.jpg,AFNE06.jpg,AFSA17.jpg,AFNE16.jpg,AFSA14.jpg,FS,4,num_8,32,num_6,1.65006647329,,,2017_Nov_10_1446,60.0087190049,FEMA4ImagesEEG,001,102264,
AFNE01.JPG,AFNE01.JPG,AFNE01.JPG,AFNE01.JPG,AFNE01.JPG,AFNE01.JPG,,,,,,,,,,,,,,,,,4,7,47,3,,,,,,,AFSA13.jpg,AFNE07.jpg,AFNE09.jpg,AFSA12.jpg,AFSA12.jpg,FS,4,num_4,32,num_8,1.00010520243,,,2017_Nov_10_1446,60.0087190049,FEMA4ImagesEEG,001,102264,
AFNE01.JPG,AFNE01.JPG,AFNE01.JPG,AFNE01.JPG,AFNE01.JPG,AFNE01.JPG,,,,,,,,,,,,,,,,,4,8,48,1,,,,,,,AFSA11.jpg,AFSA19.jpg,AFNE20.jpg,AFNE10.jpg,AFNE10.jpg,FN,3,num_4,16,num_4,0.766736427555,,,2017_Nov_10_1446,60.0087190049,FEMA4ImagesEEG,001,102264,
AFNE01.JPG,AFNE01.JPG,AFNE01.JPG,AFNE01.JPG,AFNE01.JPG,AFNE01.JPG,,,,,,,,,,,,,,,,,4,9,49,6,,,,,,,AFSA09.jpg,AFNE07.jpg,AFSA10.jpg,AFNE03.jpg,AFNE03.jpg,FN,3,num_4,32,num_6,0.483642766718,,,2017_Nov_10_1446,60.0087190049,FEMA4ImagesEEG,001,102264,
AFNE01.JPG,AFNE01.JPG,AFNE01.JPG,AFNE01.JPG,AFNE01.JPG,AFNE01.JPG,,,,,,,,,,,,,,,,,5,0,50,5,,,,,,,AFSA02.jpg,AFNE01.jpg,AFNE03.jpg,AFSA17.jpg,AFNE01.jpg,FN,3,num_6,32,num_2,1.00013920106,,,2017_Nov_10_1446,60.0087190049,FEMA4ImagesEEG,001,102264,
AFNE01.JPG,AFNE01.JPG,AFNE01.JPG,AFNE01.JPG,AFNE01.JPG,AFNE01.JPG,,,,,,,,,,,,,,,,,5,1,51,4,,,,,,,AFSA05.jpg,AFNE04.jpg,AFSA10.jpg,AFNE17.jpg,AFSA05.jpg,FS,4,num_8,32,num_4,0.683446794981,,,2017_Nov_10_1446,60.0087190049,FEMA4ImagesEEG,001,102264,
AFNE01.JPG,AFNE01.JPG,AFNE01.JPG,AFNE01.JPG,AFNE01.JPG,AFNE01.JPG,,,,,,,,,,,,,,,,,5,2,52,6,,,,,,,AFSA07.jpg,AFNE10.jpg,AFSA03.jpg,AFNE14.jpg,AFNE14.jpg,FN,3,num_4,32,num_6,0.950160931097,,,2017_Nov_10_1446,60.0087190049,FEMA4ImagesEEG,001,102264,
AFNE01.JPG,AFNE01.JPG,AFNE01.JPG,AFNE01.JPG,AFNE01.JPG,AFNE01.JPG,,,,,,,,,,,,,,,,,5,3,53,7,,,,,,,AFNE18.jpg,AFSA05.jpg,AFNE11.jpg,AFSA03.jpg,AFNE11.jpg,FN,3,num_2,32,num_6,0.783438936807,,,2017_Nov_10_1446,60.0087190049,FEMA4ImagesEEG,001,102264,
AFNE01.JPG,AFNE01.JPG,AFNE01.JPG,AFNE01.JPG,AFNE01.JPG,AFNE01.JPG,,,,,,,,,,,,,,,,,5,4,54,3,,,,,,,AFSA03.jpg,AFNE14.jpg,AFSA19.jpg,AFNE07.jpg,AFSA19.jpg,FS,4,num_2,32,num_6,1.65008571767,,,2017_Nov_10_1446,60.0087190049,FEMA4ImagesEEG,001,102264,
AFNE01.JPG,AFNE01.JPG,AFNE01.JPG,AFNE01.JPG,AFNE01.JPG,AFNE01.JPG,,,,,,,,,,,,,,,,,5,5,55,1,,,,,,,AFNE05.jpg,AFNE11.jpg,AFSA08.jpg,AFSA01.jpg,AFSA08.jpg,FS,4,num_2,32,num_6,0.783117235173,,,2017_Nov_10_1446,60.0087190049,FEMA4ImagesEEG,001,102264,
AFNE01.JPG,AFNE01.JPG,AFNE01.JPG,AFNE01.JPG,AFNE01.JPG,AFNE01.JPG,,,,,,,,,,,,,,,,,5,6,56,0,,,,,,,AFNE15.jpg,AFNE10.jpg,AFSA01.jpg,AFSA19.jpg,AFNE10.jpg,FN,3,num_6,32,num_8,1.53339459444,,,2017_Nov_10_1446,60.0087190049,FEMA4ImagesEEG,001,102264,
AFNE01.JPG,AFNE01.JPG,AFNE01.JPG,AFNE01.JPG,AFNE01.JPG,AFNE01.JPG,,,,,,,,,,,,,,,,,5,7,57,8,,,,,,,AFNE12.jpg,AFNE11.jpg,AFSA05.jpg,AFSA13.jpg,AFSA05.jpg,FS,4,num_2,32,num_8,2.8002771188,,,2017_Nov_10_1446,60.0087190049,FEMA4ImagesEEG,001,102264,
AFNE01.JPG,AFNE01.JPG,AFNE01.JPG,AFNE01.JPG,AFNE01.JPG,AFNE01.JPG,,,,,,,,,,,,,,,,,5,8,58,2,,,,,,,AFSA04.jpg,AFSA15.jpg,AFNE07.jpg,AFNE17.jpg,AFSA04.jpg,FS,4,num_8,32,num_6,0.816799693275,,,2017_Nov_10_1446,60.0087190049,FEMA4ImagesEEG,001,102264,
AFNE01.JPG,AFNE01.JPG,AFNE01.JPG,AFNE01.JPG,AFNE01.JPG,AFNE01.JPG,,,,,,,,,,,,,,,,,5,9,59,9,,,,,,,AFNE16.jpg,AFNE18.jpg,AFSA16.jpg,AFSA14.jpg,AFSA16.jpg,FS,4,num_2,32,num_6,0.533467081841,,,2017_Nov_10_1446,60.0087190049,FEMA4ImagesEEG,001,102264,
,,,,,,,,,,,,,,,,,,,,,,,,,,,,,,,,,,,,,,,,,,,space,13.099143465,2017_Nov_10_1446,60.0087190049,FEMA4ImagesEEG,001,102264,
AFNE01.JPG,AFNE01.JPG,AFNE01.JPG,AFNE01.JPG,AFNE01.JPG,AFNE01.JPG,,,,,,,,,,,,,,,,,,,,,0,0,0,0,,,AMNE03.jpg,AMSA01.jpg,AMSA08.jpg,AMNE17.jpg,AMSA08.jpg,MS,2,num_2,32,num_8,1.26671670214,,,2017_Nov_10_1446,60.0087190049,FEMA4ImagesEEG,001,102264,
AFNE01.JPG,AFNE01.JPG,AFNE01.JPG,AFNE01.JPG,AFNE01.JPG,AFNE01.JPG,,,,,,,,,,,,,,,,,,,,,0,1,1,1,,,AMSA11.jpg,AMSA08.jpg,AMNE10.jpg,AMNE08.jpg,AMNE08.jpg,MN,1,num_4,32,num_8,0.983450804139,,,2017_Nov_10_1446,60.0087190049,FEMA4ImagesEEG,001,102264,
AFNE01.JPG,AFNE01.JPG,AFNE01.JPG,AFNE01.JPG,AFNE01.JPG,AFNE01.JPG,,,,,,,,,,,,,,,,,,,,,0,2,2,3,,,AMSA02.jpg,AMSA05.jpg,AMNE03.jpg,AMNE05.jpg,AMSA05.jpg,MS,2,num_6,16,num_6,1.09997001081,,,2017_Nov_10_1446,60.0087190049,FEMA4ImagesEEG,001,102264,
AFNE01.JPG,AFNE01.JPG,AFNE01.JPG,AFNE01.JPG,AFNE01.JPG,AFNE01.JPG,,,,,,,,,,,,,,,,,,,,,0,3,3,6,,,AMSA19.jpg,AMNE02.jpg,AMNE20.jpg,AMSA03.jpg,AMNE20.jpg,MN,1,num_2,32,num_4,1.06683730008,,,2017_Nov_10_1446,60.0087190049,FEMA4ImagesEEG,001,102264,
AFNE01.JPG,AFNE01.JPG,AFNE01.JPG,AFNE01.JPG,AFNE01.JPG,AFNE01.JPG,,,,,,,,,,,,,,,,,,,,,0,4,4,5,,,AMNE20.jpg,AMNE15.jpg,AMSA09.jpg,AMSA06.jpg,AMSA06.jpg,MS,2,num_4,32,num_8,0.500157643342,,,2017_Nov_10_1446,60.0087190049,FEMA4ImagesEEG,001,102264,
AFNE01.JPG,AFNE01.JPG,AFNE01.JPG,AFNE01.JPG,AFNE01.JPG,AFNE01.JPG,,,,,,,,,,,,,,,,,,,,,0,5,5,4,,,AMNE09.jpg,AMSA20.jpg,AMSA02.jpg,AMNE14.jpg,AMSA02.jpg,MS,2,num_2,16,num_2,0.483438455733,,,2017_Nov_10_1446,60.0087190049,FEMA4ImagesEEG,001,102264,
AFNE01.JPG,AFNE01.JPG,AFNE01.JPG,AFNE01.JPG,AFNE01.JPG,AFNE01.JPG,,,,,,,,,,,,,,,,,,,,,0,6,6,9,,,AMSA04.jpg,AMSA10.jpg,AMNE13.jpg,AMNE14.jpg,AMNE14.jpg,MN,1,num_4,32,num_8,0.617004966596,,,2017_Nov_10_1446,60.0087190049,FEMA4ImagesEEG,001,102264,
AFNE01.JPG,AFNE01.JPG,AFNE01.JPG,AFNE01.JPG,AFNE01.JPG,AFNE01.JPG,,,,,,,,,,,,,,,,,,,,,0,7,7,8,,,AMNE19.jpg,AMSA04.jpg,AMSA07.jpg,AMNE11.jpg,AMSA04.jpg,MS,2,num_6,16,num_6,1.90000561299,,,2017_Nov_10_1446,60.0087190049,FEMA4ImagesEEG,001,102264,
AFNE01.JPG,AFNE01.JPG,AFNE01.JPG,AFNE01.JPG,AFNE01.JPG,AFNE01.JPG,,,,,,,,,,,,,,,,,,,,,0,8,8,7,,,AMNE19.jpg,AMSA19.jpg,AMSA11.jpg,AMNE17.jpg,AMNE17.jpg,MN,1,num_4,32,num_6,3.68329604738,,,2017_Nov_10_1446,60.0087190049,FEMA4ImagesEEG,001,102264,
AFNE01.JPG,AFNE01.JPG,AFNE01.JPG,AFNE01.JPG,AFNE01.JPG,AFNE01.JPG,,,,,,,,,,,,,,,,,,,,,0,9,9,2,,,AMSA01.jpg,AMNE20.jpg,AMNE04.jpg,AMSA13.jpg,AMNE20.jpg,MN,1,num_6,32,num_8,0.60021393327,,,2017_Nov_10_1446,60.0087190049,FEMA4ImagesEEG,001,102264,
AFNE01.JPG,AFNE01.JPG,AFNE01.JPG,AFNE01.JPG,AFNE01.JPG,AFNE01.JPG,,,,,,,,,,,,,,,,,,,,,1,0,10,4,,,AMNE04.jpg,AMSA17.jpg,AMNE20.jpg,AMSA07.jpg,AMNE04.jpg,MN,1,num_8,32,num_4,0.566797367996,,,2017_Nov_10_1446,60.0087190049,FEMA4ImagesEEG,001,102264,
AFNE01.JPG,AFNE01.JPG,AFNE01.JPG,AFNE01.JPG,AFNE01.JPG,AFNE01.JPG,,,,,,,,,,,,,,,,,,,,,1,1,11,7,,,AMNE08.jpg,AMNE19.jpg,AMSA05.jpg,AMSA11.jpg,AMSA11.jpg,MS,2,num_4,32,num_6,0.466816772707,,,2017_Nov_10_1446,60.0087190049,FEMA4ImagesEEG,001,102264,
AFNE01.JPG,AFNE01.JPG,AFNE01.JPG,AFNE01.JPG,AFNE01.JPG,AFNE01.JPG,,,,,,,,,,,,,,,,,,,,,1,2,12,3,,,AMNE17.jpg,AMNE20.jpg,AMSA18.jpg,AMSA06.jpg,AMSA06.jpg,MS,2,num_4,16,num_4,0.650170713663,,,2017_Nov_10_1446,60.0087190049,FEMA4ImagesEEG,001,102264,
AFNE01.JPG,AFNE01.JPG,AFNE01.JPG,AFNE01.JPG,AFNE01.JPG,AFNE01.JPG,,,,,,,,,,,,,,,,,,,,,1,3,13,8,,,AMSA17.jpg,AMSA09.jpg,AMNE10.jpg,AMNE03.jpg,AMSA09.jpg,MS,2,num_6,32,num_8,0.916799532948,,,2017_Nov_10_1446,60.0087190049,FEMA4ImagesEEG,001,102264,
AFNE01.JPG,AFNE01.JPG,AFNE01.JPG,AFNE01.JPG,AFNE01.JPG,AFNE01.JPG,,,,,,,,,,,,,,,,,,,,,1,4,14,6,,,AMNE02.jpg,AMNE13.jpg,AMSA17.jpg,AMSA19.jpg,AMNE13.jpg,MN,1,num_6,32,num_2,0.883542696014,,,2017_Nov_10_1446,60.0087190049,FEMA4ImagesEEG,001,102264,
AFNE01.JPG,AFNE01.JPG,AFNE01.JPG,AFNE01.JPG,AFNE01.JPG,AFNE01.JPG,,,,,,,,,,,,,,,,,,,,,1,5,15,9,,,AMNE17.jpg,AMNE02.jpg,AMSA19.jpg,AMSA15.jpg,AMSA15.jpg,MS,2,num_4,32,num_8,2.08336147806,,,2017_Nov_10_1446,60.0087190049,FEMA4ImagesEEG,001,102264,
AFNE01.JPG,AFNE01.JPG,AFNE01.JPG,AFNE01.JPG,AFNE01.JPG,AFNE01.JPG,,,,,,,,,,,,,,,,,,,,,1,6,16,5,,,AMSA16.jpg,AMNE18.jpg,AMNE12.jpg,AMSA09.jpg,AMNE12.jpg,MN,1,num_2,32,num_8,0.7004225743,,,2017_Nov_10_1446,60.0087190049,FEMA4ImagesEEG,001,102264,
AFNE01.JPG,AFNE01.JPG,AFNE01.JPG,AFNE01.JPG,AFNE01.JPG,AFNE01.JPG,,,,,,,,,,,,,,,,,,,,,1,7,17,2,,,AMNE17.jpg,AMNE06.jpg,AMSA12.jpg,AMSA06.jpg,AMNE17.jpg,MN,1,num_8,32,num_4,0.566772029502,,,2017_Nov_10_1446,60.0087190049,FEMA4ImagesEEG,001,102264,
AFNE01.JPG,AFNE01.JPG,AFNE01.JPG,AFNE01.JPG,AFNE01.JPG,AFNE01.JPG,,,,,,,,,,,,,,,,,,,,,1,8,18,0,,,AMSA07.jpg,AMNE19.jpg,AMSA11.jpg,AMNE14.jpg,AMNE14.jpg,MN,1,num_4,16,num_4,0.650116187753,,,2017_Nov_10_1446,60.0087190049,FEMA4ImagesEEG,001,102264,
AFNE01.JPG,AFNE01.JPG,AFNE01.JPG,AFNE01.JPG,AFNE01.JPG,AFNE01.JPG,,,,,,,,,,,,,,,,,,,,,1,9,19,1,,,AMNE17.jpg,AMNE15.jpg,AMSA17.jpg,AMSA19.jpg,AMNE15.jpg,MN,1,num_6,16,num_6,0.716813645558,,,2017_Nov_10_1446,60.0087190049,FEMA4ImagesEEG,001,102264,
AFNE01.JPG,AFNE01.JPG,AFNE01.JPG,AFNE01.JPG,AFNE01.JPG,AFNE01.JPG,,,,,,,,,,,,,,,,,,,,,2,0,20,9,,,AMNE18.jpg,AMNE14.jpg,AMSA03.jpg,AMSA10.jpg,AMSA03.jpg,MS,2,num_2,32,num_4,0.466812282335,,,2017_Nov_10_1446,60.0087190049,FEMA4ImagesEEG,001,102264,
AFNE01.JPG,AFNE01.JPG,AFNE01.JPG,AFNE01.JPG,AFNE01.JPG,AFNE01.JPG,,,,,,,,,,,,,,,,,,,,,2,1,21,0,,,AMSA12.jpg,AMNE04.jpg,AMNE14.jpg,AMSA03.jpg,AMSA03.jpg,MS,2,num_4,32,num_2,2.09987699636,,,2017_Nov_10_1446,60.0087190049,FEMA4ImagesEEG,001,102264,
AFNE01.JPG,AFNE01.JPG,AFNE01.JPG,AFNE01.JPG,AFNE01.JPG,AFNE01.JPG,,,,,,,,,,,,,,,,,,,,,2,2,22,5,,,AMNE13.jpg,AMSA11.jpg,AMSA12.jpg,AMNE03.jpg,AMNE13.jpg,MN,1,num_8,32,num_6,1.28343139938,,,2017_Nov_10_1446,60.0087190049,FEMA4ImagesEEG,001,102264,
AFNE01.JPG,AFNE01.JPG,AFNE01.JPG,AFNE01.JPG,AFNE01.JPG,AFNE01.JPG,,,,,,,,,,,,,,,,,,,,,2,3,23,7,,,AMNE01.jpg,AMSA18.jpg,AMNE15.jpg,AMSA16.jpg,AMSA18.jpg,MS,2,num_6,32,num_8,0.533476383192,,,2017_Nov_10_1446,60.0087190049,FEMA4ImagesEEG,001,102264,
AFNE01.JPG,AFNE01.JPG,AFNE01.JPG,AFNE01.JPG,AFNE01.JPG,AFNE01.JPG,,,,,,,,,,,,,,,,,,,,,2,4,24,2,,,AMSA17.jpg,AMSA16.jpg,AMNE17.jpg,AMNE05.jpg,AMSA17.jpg,MS,2,num_8,48,None,,,,2017_Nov_10_1446,60.0087190049,FEMA4ImagesEEG,001,102264,
AFNE01.JPG,AFNE01.JPG,AFNE01.JPG,AFNE01.JPG,AFNE01.JPG,AFNE01.JPG,,,,,,,,,,,,,,,,,,,,,2,5,25,4,,,AMSA10.jpg,AMNE17.jpg,AMSA16.jpg,AMNE03.jpg,AMSA10.jpg,MS,2,num_8,32,num_4,1.40009301458,,,2017_Nov_10_1446,60.0087190049,FEMA4ImagesEEG,001,102264,
AFNE01.JPG,AFNE01.JPG,AFNE01.JPG,AFNE01.JPG,AFNE01.JPG,AFNE01.JPG,,,,,,,,,,,,,,,,,,,,,2,6,26,6,,,AMNE03.jpg,AMSA10.jpg,AMNE15.jpg,AMSA09.jpg,AMNE03.jpg,MN,1,num_8,16,num_8,0.800015395507,,,2017_Nov_10_1446,60.0087190049,FEMA4ImagesEEG,001,102264,
AFNE01.JPG,AFNE01.JPG,AFNE01.JPG,AFNE01.JPG,AFNE01.JPG,AFNE01.JPG,,,,,,,,,,,,,,,,,,,,,2,7,27,3,,,AMSA05.jpg,AMSA10.jpg,AMNE04.jpg,AMNE07.jpg,AMSA10.jpg,MS,2,num_6,16,num_6,0.916725442279,,,2017_Nov_10_1446,60.0087190049,FEMA4ImagesEEG,001,102264,
AFNE01.JPG,AFNE01.JPG,AFNE01.JPG,AFNE01.JPG,AFNE01.JPG,AFNE01.JPG,,,,,,,,,,,,,,,,,,,,,2,8,28,1,,,AMSA11.jpg,AMSA06.jpg,AMNE20.jpg,AMNE08.jpg,AMNE08.jpg,MN,1,num_4,32,num_8,0.866746210027,,,2017_Nov_10_1446,60.0087190049,FEMA4ImagesEEG,001,102264,
AFNE01.JPG,AFNE01.JPG,AFNE01.JPG,AFNE01.JPG,AFNE01.JPG,AFNE01.JPG,,,,,,,,,,,,,,,,,,,,,2,9,29,8,,,AMNE07.jpg,AMSA10.jpg,AMSA06.jpg,AMNE12.jpg,AMNE12.jpg,MN,1,num_4,16,num_4,0.71681300411,,,2017_Nov_10_1446,60.0087190049,FEMA4ImagesEEG,001,102264,
AFNE01.JPG,AFNE01.JPG,AFNE01.JPG,AFNE01.JPG,AFNE01.JPG,AFNE01.JPG,,,,,,,,,,,,,,,,,,,,,3,0,30,9,,,AMNE01.jpg,AMNE15.jpg,AMSA08.jpg,AMSA15.jpg,AMNE01.jpg,MN,1,num_8,16,num_8,1.05011714995,,,2017_Nov_10_1446,60.0087190049,FEMA4ImagesEEG,001,102264,
AFNE01.JPG,AFNE01.JPG,AFNE01.JPG,AFNE01.JPG,AFNE01.JPG,AFNE01.JPG,,,,,,,,,,,,,,,,,,,,,3,1,31,6,,,AMNE07.jpg,AMNE05.jpg,AMSA13.jpg,AMSA09.jpg,AMSA13.jpg,MS,2,num_2,16,num_2,3.18324553105,,,2017_Nov_10_1446,60.0087190049,FEMA4ImagesEEG,001,102264,
AFNE01.JPG,AFNE01.JPG,AFNE01.JPG,AFNE01.JPG,AFNE01.JPG,AFNE01.JPG,,,,,,,,,,,,,,,,,,,,,3,2,32,8,,,AMNE18.jpg,AMSA10.jpg,AMNE12.jpg,AMSA08.jpg,AMSA10.jpg,MS,2,num_6,32,num_8,2.40003207396,,,2017_Nov_10_1446,60.0087190049,FEMA4ImagesEEG,001,102264,
AFNE01.JPG,AFNE01.JPG,AFNE01.JPG,AFNE01.JPG,AFNE01.JPG,AFNE01.JPG,,,,,,,,,,,,,,,,,,,,,3,3,33,7,,,AMNE14.jpg,AMSA10.jpg,AMNE05.jpg,AMSA16.jpg,AMSA10.jpg,MS,2,num_6,32,num_2,1.00019051926,,,2017_Nov_10_1446,60.0087190049,FEMA4ImagesEEG,001,102264,
AFNE01.JPG,AFNE01.JPG,AFNE01.JPG,AFNE01.JPG,AFNE01.JPG,AFNE01.JPG,,,,,,,,,,,,,,,,,,,,,3,4,34,4,,,AMSA11.jpg,AMSA06.jpg,AMNE05.jpg,AMNE06.jpg,AMNE05.jpg,MN,1,num_2,32,num_8,1.49985614838,,,2017_Nov_10_1446,60.0087190049,FEMA4ImagesEEG,001,102264,
AFNE01.JPG,AFNE01.JPG,AFNE01.JPG,AFNE01.JPG,AFNE01.JPG,AFNE01.JPG,,,,,,,,,,,,,,,,,,,,,3,5,35,3,,,AMNE03.jpg,AMSA20.jpg,AMNE20.jpg,AMSA02.jpg,AMNE20.jpg,MN,1,num_2,32,num_4,4.58312685741,,,2017_Nov_10_1446,60.0087190049,FEMA4ImagesEEG,001,102264,
AFNE01.JPG,AFNE01.JPG,AFNE01.JPG,AFNE01.JPG,AFNE01.JPG,AFNE01.JPG,,,,,,,,,,,,,,,,,,,,,3,6,36,1,,,AMNE07.jpg,AMNE19.jpg,AMSA04.jpg,AMSA14.jpg,AMSA14.jpg,MS,2,num_4,16,num_4,0.466883486602,,,2017_Nov_10_1446,60.0087190049,FEMA4ImagesEEG,001,102264,
AFNE01.JPG,AFNE01.JPG,AFNE01.JPG,AFNE01.JPG,AFNE01.JPG,AFNE01.JPG,,,,,,,,,,,,,,,,,,,,,3,7,37,0,,,AMNE11.jpg,AMSA11.jpg,AMNE06.jpg,AMSA18.jpg,AMNE11.jpg,MN,1,num_8,16,num_8,2.46663202695,,,2017_Nov_10_1446,60.0087190049,FEMA4ImagesEEG,001,102264,
AFNE01.JPG,AFNE01.JPG,AFNE01.JPG,AFNE01.JPG,AFNE01.JPG,AFNE01.JPG,,,,,,,,,,,,,,,,,,,,,3,8,38,5,,,AMSA11.jpg,AMNE13.jpg,AMSA07.jpg,AMNE04.jpg,AMSA11.jpg,MS,2,num_8,32,num_4,1.74995212979,,,2017_Nov_10_1446,60.0087190049,FEMA4ImagesEEG,001,102264,
AFNE01.JPG,AFNE01.JPG,AFNE01.JPG,AFNE01.JPG,AFNE01.JPG,AFNE01.JPG,,,,,,,,,,,,,,,,,,,,,3,9,39,2,,,AMNE04.jpg,AMSA15.jpg,AMNE19.jpg,AMSA13.jpg,AMNE19.jpg,MN,1,num_2,32,num_8,1.03343516821,,,2017_Nov_10_1446,60.0087190049,FEMA4ImagesEEG,001,102264,
