IPosition2,IPosition3,IPosition1,IPosition6,IPosition4,IPosition5,TrialsM1.thisRepN,TrialsM1.thisTrialN,TrialsM1.thisN,TrialsM1.thisIndex,TrialsF1.thisRepN,TrialsF1.thisTrialN,TrialsF1.thisN,TrialsF1.thisIndex,TrialsM2.thisRepN,TrialsM2.thisTrialN,TrialsM2.thisN,TrialsM2.thisIndex,TrialsF2.thisRepN,TrialsF2.thisTrialN,TrialsF2.thisN,TrialsF2.thisIndex,TrialsM3.thisRepN,TrialsM3.thisTrialN,TrialsM3.thisN,TrialsM3.thisIndex,TrialsF3.thisRepN,TrialsF3.thisTrialN,TrialsF3.thisN,TrialsF3.thisIndex,InstrKey_resp.keys,InstrKey_resp.rt,Image0 _Position,Image1 _Position,Image2 _Position,Image3 _Position,Center_image,condition,code,correct_answer,accuracy,Key_Resp.keys,Key_Resp.rt,BreakKey_resp.keys,BreakKey_resp.rt,date,frameRate,expName,session,participant,
,,,,,,,,,,,,,,,,,,,,,,,,,,,,,,space,19.1990563844,,,,,,,,,,,,,,2017_Nov_06_1502,60.0201555785,MAFE4ImagesEEG,001,102348,
AMSA25.JPG,AMNE24.JPG,AMSA24.JPG,AMNE26.JPG,AMSA21.JPG,AMNE25.JPG,0,0,0,3,,,,,,,,,,,,,,,,,,,,,,,AMSA09.jpg,AMNE05.jpg,AMNE15.jpg,AMSA12.jpg,AMNE15.jpg,MN,1,num_2,32,num_6,3.44988653855,,,2017_Nov_06_1502,60.0201555785,MAFE4ImagesEEG,001,102348,
AFNE22.JPG,AFSA24.JPG,AFSA22.JPG,AFNE25.JPG,AFNE24.JPG,AFSA25.JPG,0,1,1,6,,,,,,,,,,,,,,,,,,,,,,,AMNE08.jpg,AMSA19.jpg,AMNE13.jpg,AMSA10.jpg,AMSA10.jpg,MS,2,num_4,32,num_8,2.00005612941,,,2017_Nov_06_1502,60.0201555785,MAFE4ImagesEEG,001,102348,
AMSA21.JPG,AMNE22.JPG,AMNE21.JPG,AMSA23.JPG,AMSA22.JPG,AMNE23.JPG,0,2,2,1,,,,,,,,,,,,,,,,,,,,,,,AMSA13.jpg,AMNE15.jpg,AMNE07.jpg,AMSA11.jpg,AMNE15.jpg,MN,1,num_6,32,num_4,0.350246568443,,,2017_Nov_06_1502,60.0201555785,MAFE4ImagesEEG,001,102348,
AMNE22.JPG,AMSA24.JPG,AMSA22.JPG,AMNE25.JPG,AMNE24.JPG,AMSA25.JPG,0,3,3,7,,,,,,,,,,,,,,,,,,,,,,,AMNE08.jpg,AMNE16.jpg,AMSA11.jpg,AMSA15.jpg,AMSA15.jpg,MS,2,num_4,32,num_2,1.21678590146,,,2017_Nov_06_1502,60.0201555785,MAFE4ImagesEEG,001,102348,
AMSA21.JPG,AMNE23.JPG,AMNE21.JPG,AMSA25.JPG,AMNE25.JPG,AMSA23.JPG,0,4,4,5,,,,,,,,,,,,,,,,,,,,,,,AMNE14.jpg,AMSA15.jpg,AMSA12.jpg,AMNE18.jpg,AMNE18.jpg,MN,1,num_4,32,num_8,1.30006719497,,,2017_Nov_06_1502,60.0201555785,MAFE4ImagesEEG,001,102348,
AFNE23.JPG,AFNE24.JPG,AFNE22.JPG,AFSA24.JPG,AFSA22.JPG,AFSA23.JPG,0,5,5,8,,,,,,,,,,,,,,,,,,,,,,,AMNE17.jpg,AMNE20.jpg,AMSA12.jpg,AMSA02.jpg,AMSA12.jpg,MS,2,num_2,16,num_2,0.666816772893,,,2017_Nov_06_1502,60.0201555785,MAFE4ImagesEEG,001,102348,
AFSA21.JPG,AFNE23.JPG,AFNE21.JPG,AFSA25.JPG,AFNE25.JPG,AFSA23.JPG,0,6,6,4,,,,,,,,,,,,,,,,,,,,,,,AMNE13.jpg,AMNE14.jpg,AMSA19.jpg,AMSA04.jpg,AMSA04.jpg,MS,2,num_4,16,num_4,0.616856785025,,,2017_Nov_06_1502,60.0201555785,MAFE4ImagesEEG,001,102348,
AFSA21.JPG,AFNE22.JPG,AFNE21.JPG,AFSA23.JPG,AFSA22.JPG,AFNE23.JPG,0,7,7,0,,,,,,,,,,,,,,,,,,,,,,,AMNE13.jpg,AMSA10.jpg,AMNE14.jpg,AMSA07.jpg,AMNE14.jpg,MN,1,num_2,32,num_8,0.350171836326,,,2017_Nov_06_1502,60.0201555785,MAFE4ImagesEEG,001,102348,
AMNE23.JPG,AMNE24.JPG,AMNE22.JPG,AMSA24.JPG,AMSA22.JPG,AMSA23.JPG,0,8,8,9,,,,,,,,,,,,,,,,,,,,,,,AMNE17.jpg,AMSA15.jpg,AMNE07.jpg,AMSA07.jpg,AMSA07.jpg,MS,2,num_4,32,num_2,0.833435168257,,,2017_Nov_06_1502,60.0201555785,MAFE4ImagesEEG,001,102348,
AFSA25.JPG,AFNE24.JPG,AFSA24.JPG,AFNE21.JPG,AFSA21.JPG,AFNE25.JPG,0,9,9,2,,,,,,,,,,,,,,,,,,,,,,,AMSA13.jpg,AMSA12.jpg,AMNE15.jpg,AMNE05.jpg,AMNE05.jpg,MN,1,num_4,32,num_8,0.550130781485,,,2017_Nov_06_1502,60.0201555785,MAFE4ImagesEEG,001,102348,
AMSA21.JPG,AMNE22.JPG,AMNE21.JPG,AMSA23.JPG,AMSA22.JPG,AMNE23.JPG,,,,,0,0,0,1,,,,,,,,,,,,,,,,,,,AFNE09.jpg,AFNE02.jpg,AFSA05.jpg,AFSA15.jpg,AFSA15.jpg,FS,4,num_4,32,num_2,1.70004859194,,,2017_Nov_06_1502,60.0201555785,MAFE4ImagesEEG,001,102348,
AFSA21.JPG,AFNE22.JPG,AFNE21.JPG,AFSA23.JPG,AFSA22.JPG,AFNE23.JPG,,,,,0,1,1,0,,,,,,,,,,,,,,,,,,,AFSA18.jpg,AFNE09.jpg,AFSA14.jpg,AFNE14.jpg,AFSA18.jpg,FS,4,num_8,16,num_8,0.783398202853,,,2017_Nov_06_1502,60.0201555785,MAFE4ImagesEEG,001,102348,
AMSA21.JPG,AMNE23.JPG,AMNE21.JPG,AMSA25.JPG,AMNE25.JPG,AMSA23.JPG,,,,,0,2,2,5,,,,,,,,,,,,,,,,,,,AFNE10.jpg,AFSA15.jpg,AFSA17.jpg,AFNE13.jpg,AFSA15.jpg,FS,4,num_6,16,num_6,0.600136635127,,,2017_Nov_06_1502,60.0201555785,MAFE4ImagesEEG,001,102348,
AFNE23.JPG,AFNE24.JPG,AFNE22.JPG,AFSA24.JPG,AFSA22.JPG,AFSA23.JPG,,,,,0,3,3,8,,,,,,,,,,,,,,,,,,,AFSA03.jpg,AFNE01.jpg,AFSA05.jpg,AFNE15.jpg,AFSA03.jpg,FS,4,num_8,32,num_4,0.600129578728,,,2017_Nov_06_1502,60.0201555785,MAFE4ImagesEEG,001,102348,
AFSA25.JPG,AFNE24.JPG,AFSA24.JPG,AFNE21.JPG,AFSA21.JPG,AFNE25.JPG,,,,,0,4,4,2,,,,,,,,,,,,,,,,,,,AFSA15.jpg,AFSA17.jpg,AFNE18.jpg,AFNE01.jpg,AFNE18.jpg,FN,3,num_2,16,num_2,0.966746691149,,,2017_Nov_06_1502,60.0201555785,MAFE4ImagesEEG,001,102348,
AMSA25.JPG,AMNE24.JPG,AMSA24.JPG,AMNE26.JPG,AMSA21.JPG,AMNE25.JPG,,,,,0,5,5,3,,,,,,,,,,,,,,,,,,,AFSA19.jpg,AFSA18.jpg,AFNE04.jpg,AFNE11.jpg,AFNE11.jpg,FN,3,num_4,32,num_6,0.916786062066,,,2017_Nov_06_1502,60.0201555785,MAFE4ImagesEEG,001,102348,
AMNE23.JPG,AMNE24.JPG,AMNE22.JPG,AMSA24.JPG,AMSA22.JPG,AMSA23.JPG,,,,,0,6,6,9,,,,,,,,,,,,,,,,,,,AFNE20.jpg,AFSA15.jpg,AFSA11.jpg,AFNE05.jpg,AFSA11.jpg,FS,4,num_2,16,num_2,1.23341143341,,,2017_Nov_06_1502,60.0201555785,MAFE4ImagesEEG,001,102348,
AFNE22.JPG,AFSA24.JPG,AFSA22.JPG,AFNE25.JPG,AFNE24.JPG,AFSA25.JPG,,,,,0,7,7,6,,,,,,,,,,,,,,,,,,,AFSA02.jpg,AFNE15.jpg,AFNE02.jpg,AFSA04.jpg,AFSA04.jpg,FS,4,num_4,16,num_4,0.633445752552,,,2017_Nov_06_1502,60.0201555785,MAFE4ImagesEEG,001,102348,
AFSA21.JPG,AFNE23.JPG,AFNE21.JPG,AFSA25.JPG,AFNE25.JPG,AFSA23.JPG,,,,,0,8,8,4,,,,,,,,,,,,,,,,,,,AFNE08.jpg,AFSA16.jpg,AFNE15.jpg,AFSA15.jpg,AFSA16.jpg,FS,4,num_6,16,num_6,0.465195755241,,,2017_Nov_06_1502,60.0201555785,MAFE4ImagesEEG,001,102348,
AMNE22.JPG,AMSA24.JPG,AMSA22.JPG,AMNE25.JPG,AMNE24.JPG,AMSA25.JPG,,,,,0,9,9,7,,,,,,,,,,,,,,,,,,,AFNE18.jpg,AFNE04.jpg,AFSA19.jpg,AFSA07.jpg,AFNE18.jpg,FN,3,num_8,32,num_6,1.31686143577,,,2017_Nov_06_1502,60.0201555785,MAFE4ImagesEEG,001,102348,
AMSA21.JPG,AMNE22.JPG,AMNE21.JPG,AMSA23.JPG,AMSA22.JPG,AMNE23.JPG,,,,,,,,,0,0,0,1,,,,,,,,,,,,,,,AMNE17.jpg,AMSA11.jpg,AMNE03.jpg,AMSA08.jpg,AMSA08.jpg,MS,2,num_4,32,num_2,1.05017295876,,,2017_Nov_06_1502,60.0201555785,MAFE4ImagesEEG,001,102348,
AMNE23.JPG,AMNE24.JPG,AMNE22.JPG,AMSA24.JPG,AMSA22.JPG,AMSA23.JPG,,,,,,,,,0,1,1,9,,,,,,,,,,,,,,,AMNE05.jpg,AMNE19.jpg,AMSA13.jpg,AMSA03.jpg,AMSA03.jpg,MS,2,num_4,16,num_4,0.733495306922,,,2017_Nov_06_1502,60.0201555785,MAFE4ImagesEEG,001,102348,
AMSA25.JPG,AMNE24.JPG,AMSA24.JPG,AMNE26.JPG,AMSA21.JPG,AMNE25.JPG,,,,,,,,,0,2,2,3,,,,,,,,,,,,,,,AMSA05.jpg,AMNE07.jpg,AMSA02.jpg,AMNE19.jpg,AMSA05.jpg,MS,2,num_8,32,num_2,0.983442144003,,,2017_Nov_06_1502,60.0201555785,MAFE4ImagesEEG,001,102348,
AFNE22.JPG,AFSA24.JPG,AFSA22.JPG,AFNE25.JPG,AFNE24.JPG,AFSA25.JPG,,,,,,,,,0,3,3,6,,,,,,,,,,,,,,,AMSA03.jpg,AMNE05.jpg,AMNE16.jpg,AMSA09.jpg,AMNE05.jpg,MN,1,num_6,16,num_6,1.21671148995,,,2017_Nov_06_1502,60.0201555785,MAFE4ImagesEEG,001,102348,
AMNE22.JPG,AMSA24.JPG,AMSA22.JPG,AMNE25.JPG,AMNE24.JPG,AMSA25.JPG,,,,,,,,,0,4,4,7,,,,,,,,,,,,,,,AMSA15.jpg,AMSA19.jpg,AMNE13.jpg,AMNE02.jpg,AMNE02.jpg,MN,1,num_4,32,num_2,0.866765133804,,,2017_Nov_06_1502,60.0201555785,MAFE4ImagesEEG,001,102348,
AFNE23.JPG,AFNE24.JPG,AFNE22.JPG,AFSA24.JPG,AFSA22.JPG,AFSA23.JPG,,,,,,,,,0,5,5,8,,,,,,,,,,,,,,,AMNE16.jpg,AMNE19.jpg,AMSA01.jpg,AMSA02.jpg,AMNE19.jpg,MN,1,num_6,16,num_6,0.866772189969,,,2017_Nov_06_1502,60.0201555785,MAFE4ImagesEEG,001,102348,
AFSA21.JPG,AFNE22.JPG,AFNE21.JPG,AFSA23.JPG,AFSA22.JPG,AFNE23.JPG,,,,,,,,,0,6,6,0,,,,,,,,,,,,,,,AMSA17.jpg,AMNE03.jpg,AMSA08.jpg,AMNE13.jpg,AMNE13.jpg,MN,1,num_4,32,num_6,1.11674276204,,,2017_Nov_06_1502,60.0201555785,MAFE4ImagesEEG,001,102348,
AFSA21.JPG,AFNE23.JPG,AFNE21.JPG,AFSA25.JPG,AFNE25.JPG,AFSA23.JPG,,,,,,,,,0,7,7,4,,,,,,,,,,,,,,,AMSA02.jpg,AMNE05.jpg,AMSA03.jpg,AMNE02.jpg,AMNE02.jpg,MN,1,num_4,16,num_4,0.999978831271,,,2017_Nov_06_1502,60.0201555785,MAFE4ImagesEEG,001,102348,
AMSA21.JPG,AMNE23.JPG,AMNE21.JPG,AMSA25.JPG,AMNE25.JPG,AMSA23.JPG,,,,,,,,,0,8,8,5,,,,,,,,,,,,,,,AMNE20.jpg,AMSA10.jpg,AMSA05.jpg,AMNE12.jpg,AMSA10.jpg,MS,2,num_6,32,num_2,0.700134229381,,,2017_Nov_06_1502,60.0201555785,MAFE4ImagesEEG,001,102348,
AFSA25.JPG,AFNE24.JPG,AFSA24.JPG,AFNE21.JPG,AFSA21.JPG,AFNE25.JPG,,,,,,,,,0,9,9,2,,,,,,,,,,,,,,,AMNE10.jpg,AMSA01.jpg,AMNE15.jpg,AMSA10.jpg,AMNE10.jpg,MN,1,num_8,32,num_2,1.18349474529,,,2017_Nov_06_1502,60.0201555785,MAFE4ImagesEEG,001,102348,
AMSA21.JPG,AMNE22.JPG,AMNE21.JPG,AMSA23.JPG,AMSA22.JPG,AMNE23.JPG,,,,,,,,,,,,,0,0,0,1,,,,,,,,,,,AFNE05.jpg,AFSA13.jpg,AFNE12.jpg,AFSA19.jpg,AFNE12.jpg,FN,3,num_2,32,num_6,0.60015555867,,,2017_Nov_06_1502,60.0201555785,MAFE4ImagesEEG,001,102348,
AMNE22.JPG,AMSA24.JPG,AMSA22.JPG,AMNE25.JPG,AMNE24.JPG,AMSA25.JPG,,,,,,,,,,,,,0,1,1,7,,,,,,,,,,,AFSA02.jpg,AFNE04.jpg,AFSA01.jpg,AFNE09.jpg,AFNE09.jpg,FN,3,num_4,32,num_6,0.716762647964,,,2017_Nov_06_1502,60.0201555785,MAFE4ImagesEEG,001,102348,
AFSA21.JPG,AFNE23.JPG,AFNE21.JPG,AFSA25.JPG,AFNE25.JPG,AFSA23.JPG,,,,,,,,,,,,,0,2,2,4,,,,,,,,,,,AFSA05.jpg,AFNE14.jpg,AFSA01.jpg,AFNE07.jpg,AFSA05.jpg,FS,4,num_8,16,num_8,0.433494505007,,,2017_Nov_06_1502,60.0201555785,MAFE4ImagesEEG,001,102348,
AFSA25.JPG,AFNE24.JPG,AFSA24.JPG,AFNE21.JPG,AFSA21.JPG,AFNE25.JPG,,,,,,,,,,,,,0,3,3,2,,,,,,,,,,,AFSA08.jpg,AFSA17.jpg,AFNE15.jpg,AFNE08.jpg,AFNE15.jpg,FN,3,num_2,16,num_2,0.583445993019,,,2017_Nov_06_1502,60.0201555785,MAFE4ImagesEEG,001,102348,
AMSA25.JPG,AMNE24.JPG,AMSA24.JPG,AMNE26.JPG,AMSA21.JPG,AMNE25.JPG,,,,,,,,,,,,,0,4,4,3,,,,,,,,,,,AFNE06.jpg,AFNE16.jpg,AFSA01.jpg,AFSA08.jpg,AFNE06.jpg,FN,3,num_8,32,num_2,1.11674981844,,,2017_Nov_06_1502,60.0201555785,MAFE4ImagesEEG,001,102348,
AMSA21.JPG,AMNE23.JPG,AMNE21.JPG,AMSA25.JPG,AMNE25.JPG,AMSA23.JPG,,,,,,,,,,,,,0,5,5,5,,,,,,,,,,,AFSA01.jpg,AFNE08.jpg,AFNE01.jpg,AFSA02.jpg,AFNE08.jpg,FN,3,num_6,32,num_8,0.700150587363,,,2017_Nov_06_1502,60.0201555785,MAFE4ImagesEEG,001,102348,
AFNE22.JPG,AFSA24.JPG,AFSA22.JPG,AFNE25.JPG,AFNE24.JPG,AFSA25.JPG,,,,,,,,,,,,,0,6,6,6,,,,,,,,,,,AFNE17.jpg,AFNE12.jpg,AFSA07.jpg,AFSA04.jpg,AFNE17.jpg,FN,3,num_8,32,num_2,1.01659441995,,,2017_Nov_06_1502,60.0201555785,MAFE4ImagesEEG,001,102348,
AMNE23.JPG,AMNE24.JPG,AMNE22.JPG,AMSA24.JPG,AMSA22.JPG,AMSA23.JPG,,,,,,,,,,,,,0,7,7,9,,,,,,,,,,,AFNE20.jpg,AFSA11.jpg,AFSA03.jpg,AFNE14.jpg,AFNE20.jpg,FN,3,num_8,32,num_6,0.533469006186,,,2017_Nov_06_1502,60.0201555785,MAFE4ImagesEEG,001,102348,
AFSA21.JPG,AFNE22.JPG,AFNE21.JPG,AFSA23.JPG,AFSA22.JPG,AFNE23.JPG,,,,,,,,,,,,,0,8,8,0,,,,,,,,,,,AFSA16.jpg,AFSA02.jpg,AFNE10.jpg,AFNE20.jpg,AFSA16.jpg,FS,4,num_8,16,num_8,0.566790632438,,,2017_Nov_06_1502,60.0201555785,MAFE4ImagesEEG,001,102348,
AFNE23.JPG,AFNE24.JPG,AFNE22.JPG,AFSA24.JPG,AFSA22.JPG,AFSA23.JPG,,,,,,,,,,,,,0,9,9,8,,,,,,,,,,,AFSA16.jpg,AFNE19.jpg,AFSA18.jpg,AFNE10.jpg,AFNE10.jpg,FN,3,num_4,32,num_2,0.716720631113,,,2017_Nov_06_1502,60.0201555785,MAFE4ImagesEEG,001,102348,
AMSA21.JPG,AMNE22.JPG,AMNE21.JPG,AMSA23.JPG,AMSA22.JPG,AMNE23.JPG,,,,,,,,,,,,,,,,,0,0,0,1,,,,,,,AMNE09.jpg,AMNE01.jpg,AMSA18.jpg,AMSA07.jpg,AMNE01.jpg,MN,1,num_6,16,num_6,0.733522569528,,,2017_Nov_06_1502,60.0201555785,MAFE4ImagesEEG,001,102348,
AFSA21.JPG,AFNE22.JPG,AFNE21.JPG,AFSA23.JPG,AFSA22.JPG,AFNE23.JPG,,,,,,,,,,,,,,,,,0,1,1,0,,,,,,,AMSA18.jpg,AMNE18.jpg,AMNE02.jpg,AMSA06.jpg,AMSA06.jpg,MS,2,num_4,32,num_2,1.23351663607,,,2017_Nov_06_1502,60.0201555785,MAFE4ImagesEEG,001,102348,
AMNE23.JPG,AMNE24.JPG,AMNE22.JPG,AMSA24.JPG,AMSA22.JPG,AMSA23.JPG,,,,,,,,,,,,,,,,,0,2,2,9,,,,,,,AMSA07.jpg,AMNE19.jpg,AMNE13.jpg,AMSA09.jpg,AMSA07.jpg,MS,2,num_8,32,num_4,0.633526258171,,,2017_Nov_06_1502,60.0201555785,MAFE4ImagesEEG,001,102348,
AFSA21.JPG,AFNE23.JPG,AFNE21.JPG,AFSA25.JPG,AFNE25.JPG,AFSA23.JPG,,,,,,,,,,,,,,,,,0,3,3,4,,,,,,,AMNE09.jpg,AMNE04.jpg,AMSA14.jpg,AMSA20.jpg,AMSA14.jpg,MS,2,num_2,16,num_2,0.466790472157,,,2017_Nov_06_1502,60.0201555785,MAFE4ImagesEEG,001,102348,
AFSA25.JPG,AFNE24.JPG,AFSA24.JPG,AFNE21.JPG,AFSA21.JPG,AFNE25.JPG,,,,,,,,,,,,,,,,,0,4,4,2,,,,,,,AMNE12.jpg,AMNE19.jpg,AMSA11.jpg,AMSA08.jpg,AMSA08.jpg,MS,2,num_4,16,num_4,0.866832168307,,,2017_Nov_06_1502,60.0201555785,MAFE4ImagesEEG,001,102348,
AFNE23.JPG,AFNE24.JPG,AFNE22.JPG,AFSA24.JPG,AFSA22.JPG,AFSA23.JPG,,,,,,,,,,,,,,,,,0,5,5,8,,,,,,,AMSA18.jpg,AMSA13.jpg,AMNE05.jpg,AMNE15.jpg,AMNE05.jpg,MN,1,num_2,16,num_2,0.966769463615,,,2017_Nov_06_1502,60.0201555785,MAFE4ImagesEEG,001,102348,
AMSA21.JPG,AMNE23.JPG,AMNE21.JPG,AMSA25.JPG,AMNE25.JPG,AMSA23.JPG,,,,,,,,,,,,,,,,,0,6,6,5,,,,,,,AMSA09.jpg,AMNE03.jpg,AMNE06.jpg,AMSA18.jpg,AMSA09.jpg,MS,2,num_8,16,num_8,0.650120357517,,,2017_Nov_06_1502,60.0201555785,MAFE4ImagesEEG,001,102348,
AMNE22.JPG,AMSA24.JPG,AMSA22.JPG,AMNE25.JPG,AMNE24.JPG,AMSA25.JPG,,,,,,,,,,,,,,,,,0,7,7,7,,,,,,,AMSA03.jpg,AMSA19.jpg,AMNE02.jpg,AMNE13.jpg,AMNE13.jpg,MN,1,num_4,32,num_6,0.766764011001,,,2017_Nov_06_1502,60.0201555785,MAFE4ImagesEEG,001,102348,
AMSA25.JPG,AMNE24.JPG,AMSA24.JPG,AMNE26.JPG,AMSA21.JPG,AMNE25.JPG,,,,,,,,,,,,,,,,,0,8,8,3,,,,,,,AMSA12.jpg,AMSA11.jpg,AMNE02.jpg,AMNE08.jpg,AMSA12.jpg,MS,2,num_8,32,num_2,0.883486566599,,,2017_Nov_06_1502,60.0201555785,MAFE4ImagesEEG,001,102348,
AFNE22.JPG,AFSA24.JPG,AFSA22.JPG,AFNE25.JPG,AFNE24.JPG,AFSA25.JPG,,,,,,,,,,,,,,,,,0,9,9,6,,,,,,,AMSA12.jpg,AMNE10.jpg,AMNE08.jpg,AMSA15.jpg,AMNE10.jpg,MN,1,num_6,16,num_6,0.750095820753,,,2017_Nov_06_1502,60.0201555785,MAFE4ImagesEEG,001,102348,
AMNE22.JPG,AMSA24.JPG,AMSA22.JPG,AMNE25.JPG,AMNE24.JPG,AMSA25.JPG,,,,,,,,,,,,,,,,,,,,,0,0,0,7,,,AFNE12.jpg,AFSA04.jpg,AFNE02.jpg,AFSA18.jpg,AFSA04.jpg,FS,4,num_6,32,num_2,1.36672616377,,,2017_Nov_06_1502,60.0201555785,MAFE4ImagesEEG,001,102348,
AFNE23.JPG,AFNE24.JPG,AFNE22.JPG,AFSA24.JPG,AFSA22.JPG,AFSA23.JPG,,,,,,,,,,,,,,,,,,,,,0,1,1,8,,,AFSA05.jpg,AFNE14.jpg,AFNE16.jpg,AFSA01.jpg,AFSA01.jpg,FS,4,num_4,32,num_8,0.983452087035,,,2017_Nov_06_1502,60.0201555785,MAFE4ImagesEEG,001,102348,
AMSA25.JPG,AMNE24.JPG,AMSA24.JPG,AMNE26.JPG,AMSA21.JPG,AMNE25.JPG,,,,,,,,,,,,,,,,,,,,,0,2,2,3,,,AFSA17.jpg,AFNE09.jpg,AFNE19.jpg,AFSA13.jpg,AFNE19.jpg,FN,3,num_2,16,num_2,1.05014409241,,,2017_Nov_06_1502,60.0201555785,MAFE4ImagesEEG,001,102348,
AMNE23.JPG,AMNE24.JPG,AMNE22.JPG,AMSA24.JPG,AMSA22.JPG,AMSA23.JPG,,,,,,,,,,,,,,,,,,,,,0,3,3,9,,,AFSA04.jpg,AFSA15.jpg,AFNE03.jpg,AFNE09.jpg,AFNE03.jpg,FN,3,num_2,32,num_8,0.950154516147,,,2017_Nov_06_1502,60.0201555785,MAFE4ImagesEEG,001,102348,
AMSA21.JPG,AMNE22.JPG,AMNE21.JPG,AMSA23.JPG,AMSA22.JPG,AMNE23.JPG,,,,,,,,,,,,,,,,,,,,,0,4,4,1,,,AFNE07.jpg,AFSA17.jpg,AFNE12.jpg,AFSA02.jpg,AFSA17.jpg,FS,4,num_6,16,num_6,0.766752143856,,,2017_Nov_06_1502,60.0201555785,MAFE4ImagesEEG,001,102348,
AFNE22.JPG,AFSA24.JPG,AFSA22.JPG,AFNE25.JPG,AFNE24.JPG,AFSA25.JPG,,,,,,,,,,,,,,,,,,,,,0,5,5,6,,,AFSA20.jpg,AFNE19.jpg,AFNE02.jpg,AFSA19.jpg,AFNE02.jpg,FN,3,num_2,16,num_2,0.883485924918,,,2017_Nov_06_1502,60.0201555785,MAFE4ImagesEEG,001,102348,
AFSA25.JPG,AFNE24.JPG,AFSA24.JPG,AFNE21.JPG,AFSA21.JPG,AFNE25.JPG,,,,,,,,,,,,,,,,,,,,,0,6,6,2,,,AFNE14.jpg,AFSA07.jpg,AFNE10.jpg,AFSA16.jpg,AFNE10.jpg,FN,3,num_2,32,num_8,0.866747172317,,,2017_Nov_06_1502,60.0201555785,MAFE4ImagesEEG,001,102348,
AMSA21.JPG,AMNE23.JPG,AMNE21.JPG,AMSA25.JPG,AMNE25.JPG,AMSA23.JPG,,,,,,,,,,,,,,,,,,,,,0,7,7,5,,,AFSA01.jpg,AFNE09.jpg,AFSA07.jpg,AFNE08.jpg,AFNE09.jpg,FN,3,num_6,32,num_2,1.08342306013,,,2017_Nov_06_1502,60.0201555785,MAFE4ImagesEEG,001,102348,
AFSA21.JPG,AFNE22.JPG,AFNE21.JPG,AFSA23.JPG,AFSA22.JPG,AFNE23.JPG,,,,,,,,,,,,,,,,,,,,,0,8,8,0,,,AFNE02.jpg,AFSA02.jpg,AFSA17.jpg,AFNE15.jpg,AFSA17.jpg,FS,4,num_2,32,num_6,0.56680025463,,,2017_Nov_06_1502,60.0201555785,MAFE4ImagesEEG,001,102348,
AFSA21.JPG,AFNE23.JPG,AFNE21.JPG,AFSA25.JPG,AFNE25.JPG,AFSA23.JPG,,,,,,,,,,,,,,,,,,,,,0,9,9,4,,,AFSA07.jpg,AFNE06.jpg,AFNE20.jpg,AFSA01.jpg,AFSA07.jpg,FS,4,num_8,16,num_8,0.616754148155,,,2017_Nov_06_1502,60.0201555785,MAFE4ImagesEEG,001,102348,
,,,,,,,,,,,,,,,,,,,,,,,,,,,,,,,,,,,,,,,,,,,space,16.9151788363,2017_Nov_06_1502,60.0201555785,MAFE4ImagesEEG,001,102348,
AFNE01.JPG,AFNE01.JPG,AFNE01.JPG,AFNE01.JPG,AFNE01.JPG,AFNE01.JPG,0,0,0,3,,,,,,,,,,,,,,,,,,,,,,,AMSA02.jpg,AMNE09.jpg,AMSA01.jpg,AMNE13.jpg,AMSA01.jpg,MS,2,num_2,32,num_6,0.716809476027,,,2017_Nov_06_1502,60.0201555785,MAFE4ImagesEEG,001,102348,
AFNE01.JPG,AFNE01.JPG,AFNE01.JPG,AFNE01.JPG,AFNE01.JPG,AFNE01.JPG,0,1,1,5,,,,,,,,,,,,,,,,,,,,,,,AMSA01.jpg,AMSA04.jpg,AMNE12.jpg,AMNE11.jpg,AMSA04.jpg,MS,2,num_6,32,num_8,0.483563223388,,,2017_Nov_06_1502,60.0201555785,MAFE4ImagesEEG,001,102348,
AFNE01.JPG,AFNE01.JPG,AFNE01.JPG,AFNE01.JPG,AFNE01.JPG,AFNE01.JPG,0,2,2,0,,,,,,,,,,,,,,,,,,,,,,,AMNE09.jpg,AMNE14.jpg,AMSA07.jpg,AMSA19.jpg,AMSA07.jpg,MS,2,num_2,16,num_2,0.966710126726,,,2017_Nov_06_1502,60.0201555785,MAFE4ImagesEEG,001,102348,
AFNE01.JPG,AFNE01.JPG,AFNE01.JPG,AFNE01.JPG,AFNE01.JPG,AFNE01.JPG,0,3,3,6,,,,,,,,,,,,,,,,,,,,,,,AMSA06.jpg,AMSA16.jpg,AMNE19.jpg,AMNE01.jpg,AMSA16.jpg,MS,2,num_6,32,num_8,0.91680434416,,,2017_Nov_06_1502,60.0201555785,MAFE4ImagesEEG,001,102348,
AFNE01.JPG,AFNE01.JPG,AFNE01.JPG,AFNE01.JPG,AFNE01.JPG,AFNE01.JPG,0,4,4,9,,,,,,,,,,,,,,,,,,,,,,,AMSA05.jpg,AMNE15.jpg,AMNE09.jpg,AMSA17.jpg,AMSA17.jpg,MS,2,num_4,16,num_4,0.600178010529,,,2017_Nov_06_1502,60.0201555785,MAFE4ImagesEEG,001,102348,
AFNE01.JPG,AFNE01.JPG,AFNE01.JPG,AFNE01.JPG,AFNE01.JPG,AFNE01.JPG,0,5,5,2,,,,,,,,,,,,,,,,,,,,,,,AMSA02.jpg,AMSA16.jpg,AMNE10.jpg,AMNE14.jpg,AMNE14.jpg,MN,1,num_4,16,num_4,0.866733701201,,,2017_Nov_06_1502,60.0201555785,MAFE4ImagesEEG,001,102348,
AFNE01.JPG,AFNE01.JPG,AFNE01.JPG,AFNE01.JPG,AFNE01.JPG,AFNE01.JPG,0,6,6,4,,,,,,,,,,,,,,,,,,,,,,,AMSA03.jpg,AMNE12.jpg,AMSA15.jpg,AMNE02.jpg,AMSA15.jpg,MS,2,num_2,32,num_8,1.21679616533,,,2017_Nov_06_1502,60.0201555785,MAFE4ImagesEEG,001,102348,
AFNE01.JPG,AFNE01.JPG,AFNE01.JPG,AFNE01.JPG,AFNE01.JPG,AFNE01.JPG,0,7,7,1,,,,,,,,,,,,,,,,,,,,,,,AMNE07.jpg,AMSA12.jpg,AMNE12.jpg,AMSA17.jpg,AMSA17.jpg,MS,2,num_4,32,num_6,0.800147860777,,,2017_Nov_06_1502,60.0201555785,MAFE4ImagesEEG,001,102348,
AFNE01.JPG,AFNE01.JPG,AFNE01.JPG,AFNE01.JPG,AFNE01.JPG,AFNE01.JPG,0,8,8,8,,,,,,,,,,,,,,,,,,,,,,,AMNE01.jpg,AMNE12.jpg,AMSA02.jpg,AMSA17.jpg,AMSA02.jpg,MS,2,num_2,16,num_2,0.650224277051,,,2017_Nov_06_1502,60.0201555785,MAFE4ImagesEEG,001,102348,
AFNE01.JPG,AFNE01.JPG,AFNE01.JPG,AFNE01.JPG,AFNE01.JPG,AFNE01.JPG,0,9,9,7,,,,,,,,,,,,,,,,,,,,,,,AMSA15.jpg,AMSA04.jpg,AMNE18.jpg,AMNE13.jpg,AMNE18.jpg,MN,1,num_2,32,num_4,0.866768020438,,,2017_Nov_06_1502,60.0201555785,MAFE4ImagesEEG,001,102348,
AFNE01.JPG,AFNE01.JPG,AFNE01.JPG,AFNE01.JPG,AFNE01.JPG,AFNE01.JPG,1,0,10,0,,,,,,,,,,,,,,,,,,,,,,,AMNE14.jpg,AMSA09.jpg,AMSA01.jpg,AMNE03.jpg,AMSA01.jpg,MS,2,num_2,32,num_8,0.550348242978,,,2017_Nov_06_1502,60.0201555785,MAFE4ImagesEEG,001,102348,
AFNE01.JPG,AFNE01.JPG,AFNE01.JPG,AFNE01.JPG,AFNE01.JPG,AFNE01.JPG,1,1,11,5,,,,,,,,,,,,,,,,,,,,,,,AMSA11.jpg,AMNE12.jpg,AMSA15.jpg,AMNE08.jpg,AMNE08.jpg,MN,1,num_4,16,num_4,0.766775236931,,,2017_Nov_06_1502,60.0201555785,MAFE4ImagesEEG,001,102348,
AFNE01.JPG,AFNE01.JPG,AFNE01.JPG,AFNE01.JPG,AFNE01.JPG,AFNE01.JPG,1,2,12,2,,,,,,,,,,,,,,,,,,,,,,,AMSA10.jpg,AMNE15.jpg,AMNE19.jpg,AMSA06.jpg,AMNE15.jpg,MN,1,num_6,16,num_6,0.800150426803,,,2017_Nov_06_1502,60.0201555785,MAFE4ImagesEEG,001,102348,
AFNE01.JPG,AFNE01.JPG,AFNE01.JPG,AFNE01.JPG,AFNE01.JPG,AFNE01.JPG,1,3,13,4,,,,,,,,,,,,,,,,,,,,,,,AMSA12.jpg,AMNE12.jpg,AMSA06.jpg,AMNE11.jpg,AMSA06.jpg,MS,2,num_2,16,num_2,1.06678181211,,,2017_Nov_06_1502,60.0201555785,MAFE4ImagesEEG,001,102348,
AFNE01.JPG,AFNE01.JPG,AFNE01.JPG,AFNE01.JPG,AFNE01.JPG,AFNE01.JPG,1,4,14,3,,,,,,,,,,,,,,,,,,,,,,,AMSA07.jpg,AMNE14.jpg,AMSA02.jpg,AMNE19.jpg,AMNE19.jpg,MN,1,num_4,32,num_8,0.883420173544,,,2017_Nov_06_1502,60.0201555785,MAFE4ImagesEEG,001,102348,
AFNE01.JPG,AFNE01.JPG,AFNE01.JPG,AFNE01.JPG,AFNE01.JPG,AFNE01.JPG,1,5,15,9,,,,,,,,,,,,,,,,,,,,,,,AMSA08.jpg,AMNE04.jpg,AMNE16.jpg,AMSA14.jpg,AMNE04.jpg,MN,1,num_6,32,num_4,0.73347542109,,,2017_Nov_06_1502,60.0201555785,MAFE4ImagesEEG,001,102348,
AFNE01.JPG,AFNE01.JPG,AFNE01.JPG,AFNE01.JPG,AFNE01.JPG,AFNE01.JPG,1,6,16,7,,,,,,,,,,,,,,,,,,,,,,,AMSA15.jpg,AMSA08.jpg,AMNE20.jpg,AMNE02.jpg,AMNE20.jpg,MN,1,num_2,32,num_4,1.05043115397,,,2017_Nov_06_1502,60.0201555785,MAFE4ImagesEEG,001,102348,
AFNE01.JPG,AFNE01.JPG,AFNE01.JPG,AFNE01.JPG,AFNE01.JPG,AFNE01.JPG,1,7,17,8,,,,,,,,,,,,,,,,,,,,,,,AMNE09.jpg,AMSA01.jpg,AMSA05.jpg,AMNE02.jpg,AMNE02.jpg,MN,1,num_4,16,num_4,0.733506853459,,,2017_Nov_06_1502,60.0201555785,MAFE4ImagesEEG,001,102348,
AFNE01.JPG,AFNE01.JPG,AFNE01.JPG,AFNE01.JPG,AFNE01.JPG,AFNE01.JPG,1,8,18,6,,,,,,,,,,,,,,,,,,,,,,,AMNE03.jpg,AMSA18.jpg,AMSA06.jpg,AMNE10.jpg,AMSA18.jpg,MS,2,num_6,32,num_8,1.06676673749,,,2017_Nov_06_1502,60.0201555785,MAFE4ImagesEEG,001,102348,
AFNE01.JPG,AFNE01.JPG,AFNE01.JPG,AFNE01.JPG,AFNE01.JPG,AFNE01.JPG,1,9,19,1,,,,,,,,,,,,,,,,,,,,,,,AMNE16.jpg,AMSA16.jpg,AMNE03.jpg,AMSA14.jpg,AMNE16.jpg,MN,1,num_8,32,num_6,1.26671926794,,,2017_Nov_06_1502,60.0201555785,MAFE4ImagesEEG,001,102348,
AFNE01.JPG,AFNE01.JPG,AFNE01.JPG,AFNE01.JPG,AFNE01.JPG,AFNE01.JPG,2,0,20,1,,,,,,,,,,,,,,,,,,,,,,,AMSA07.jpg,AMNE09.jpg,AMSA09.jpg,AMNE02.jpg,AMSA07.jpg,MS,2,num_8,16,num_8,0.716736668022,,,2017_Nov_06_1502,60.0201555785,MAFE4ImagesEEG,001,102348,
AFNE01.JPG,AFNE01.JPG,AFNE01.JPG,AFNE01.JPG,AFNE01.JPG,AFNE01.JPG,2,1,21,9,,,,,,,,,,,,,,,,,,,,,,,AMNE18.jpg,AMSA11.jpg,AMSA10.jpg,AMNE17.jpg,AMNE17.jpg,MN,1,num_4,16,num_4,0.933186113834,,,2017_Nov_06_1502,60.0201555785,MAFE4ImagesEEG,001,102348,
AFNE01.JPG,AFNE01.JPG,AFNE01.JPG,AFNE01.JPG,AFNE01.JPG,AFNE01.JPG,2,2,22,0,,,,,,,,,,,,,,,,,,,,,,,AMNE19.jpg,AMSA13.jpg,AMNE17.jpg,AMSA07.jpg,AMSA13.jpg,MS,2,num_6,32,num_2,0.933494023746,,,2017_Nov_06_1502,60.0201555785,MAFE4ImagesEEG,001,102348,
AFNE01.JPG,AFNE01.JPG,AFNE01.JPG,AFNE01.JPG,AFNE01.JPG,AFNE01.JPG,2,3,23,6,,,,,,,,,,,,,,,,,,,,,,,AMNE06.jpg,AMSA02.jpg,AMSA04.jpg,AMNE20.jpg,AMSA02.jpg,MS,2,num_6,16,num_6,0.583455615211,,,2017_Nov_06_1502,60.0201555785,MAFE4ImagesEEG,001,102348,
AFNE01.JPG,AFNE01.JPG,AFNE01.JPG,AFNE01.JPG,AFNE01.JPG,AFNE01.JPG,2,4,24,3,,,,,,,,,,,,,,,,,,,,,,,AMNE08.jpg,AMSA18.jpg,AMSA15.jpg,AMNE15.jpg,AMNE15.jpg,MN,1,num_4,32,num_8,1.31674372428,,,2017_Nov_06_1502,60.0201555785,MAFE4ImagesEEG,001,102348,
AFNE01.JPG,AFNE01.JPG,AFNE01.JPG,AFNE01.JPG,AFNE01.JPG,AFNE01.JPG,2,5,25,8,,,,,,,,,,,,,,,,,,,,,,,AMSA02.jpg,AMNE13.jpg,AMSA11.jpg,AMNE01.jpg,AMSA02.jpg,MS,2,num_8,32,num_2,0.6335147114,,,2017_Nov_06_1502,60.0201555785,MAFE4ImagesEEG,001,102348,
AFNE01.JPG,AFNE01.JPG,AFNE01.JPG,AFNE01.JPG,AFNE01.JPG,AFNE01.JPG,2,6,26,2,,,,,,,,,,,,,,,,,,,,,,,AMNE02.jpg,AMSA07.jpg,AMNE14.jpg,AMSA01.jpg,AMSA01.jpg,MS,2,num_4,32,num_8,0.683502603788,,,2017_Nov_06_1502,60.0201555785,MAFE4ImagesEEG,001,102348,
AFNE01.JPG,AFNE01.JPG,AFNE01.JPG,AFNE01.JPG,AFNE01.JPG,AFNE01.JPG,2,7,27,7,,,,,,,,,,,,,,,,,,,,,,,AMNE20.jpg,AMSA09.jpg,AMSA05.jpg,AMNE04.jpg,AMNE04.jpg,MN,1,num_4,32,num_2,0.733479911229,,,2017_Nov_06_1502,60.0201555785,MAFE4ImagesEEG,001,102348,
AFNE01.JPG,AFNE01.JPG,AFNE01.JPG,AFNE01.JPG,AFNE01.JPG,AFNE01.JPG,2,8,28,5,,,,,,,,,,,,,,,,,,,,,,,AMSA02.jpg,AMSA17.jpg,AMNE20.jpg,AMNE17.jpg,AMSA17.jpg,MS,2,num_6,32,num_8,0.650124206441,,,2017_Nov_06_1502,60.0201555785,MAFE4ImagesEEG,001,102348,
AFNE01.JPG,AFNE01.JPG,AFNE01.JPG,AFNE01.JPG,AFNE01.JPG,AFNE01.JPG,2,9,29,4,,,,,,,,,,,,,,,,,,,,,,,AMSA09.jpg,AMNE19.jpg,AMSA14.jpg,AMNE15.jpg,AMSA09.jpg,MS,2,num_8,32,num_4,0.650137356482,,,2017_Nov_06_1502,60.0201555785,MAFE4ImagesEEG,001,102348,
AFNE01.JPG,AFNE01.JPG,AFNE01.JPG,AFNE01.JPG,AFNE01.JPG,AFNE01.JPG,3,0,30,3,,,,,,,,,,,,,,,,,,,,,,,AMNE15.jpg,AMSA04.jpg,AMSA03.jpg,AMNE10.jpg,AMNE10.jpg,MN,1,num_4,32,num_2,0.666800094303,,,2017_Nov_06_1502,60.0201555785,MAFE4ImagesEEG,001,102348,
AFNE01.JPG,AFNE01.JPG,AFNE01.JPG,AFNE01.JPG,AFNE01.JPG,AFNE01.JPG,3,1,31,7,,,,,,,,,,,,,,,,,,,,,,,AMSA10.jpg,AMSA13.jpg,AMNE11.jpg,AMNE04.jpg,AMSA10.jpg,MS,2,num_8,32,num_6,0.350105763879,,,2017_Nov_06_1502,60.0201555785,MAFE4ImagesEEG,001,102348,
AFNE01.JPG,AFNE01.JPG,AFNE01.JPG,AFNE01.JPG,AFNE01.JPG,AFNE01.JPG,3,2,32,8,,,,,,,,,,,,,,,,,,,,,,,AMNE03.jpg,AMSA18.jpg,AMSA19.jpg,AMNE18.jpg,AMNE18.jpg,MN,1,num_4,32,num_2,0.816796806641,,,2017_Nov_06_1502,60.0201555785,MAFE4ImagesEEG,001,102348,
AFNE01.JPG,AFNE01.JPG,AFNE01.JPG,AFNE01.JPG,AFNE01.JPG,AFNE01.JPG,3,3,33,2,,,,,,,,,,,,,,,,,,,,,,,AMNE09.jpg,AMSA18.jpg,AMSA04.jpg,AMNE06.jpg,AMSA18.jpg,MS,2,num_6,16,num_6,0.350193646504,,,2017_Nov_06_1502,60.0201555785,MAFE4ImagesEEG,001,102348,
AFNE01.JPG,AFNE01.JPG,AFNE01.JPG,AFNE01.JPG,AFNE01.JPG,AFNE01.JPG,3,4,34,1,,,,,,,,,,,,,,,,,,,,,,,AMNE17.jpg,AMNE04.jpg,AMSA19.jpg,AMSA13.jpg,AMNE17.jpg,MN,1,num_8,32,num_2,1.06679079286,,,2017_Nov_06_1502,60.0201555785,MAFE4ImagesEEG,001,102348,
AFNE01.JPG,AFNE01.JPG,AFNE01.JPG,AFNE01.JPG,AFNE01.JPG,AFNE01.JPG,3,5,35,4,,,,,,,,,,,,,,,,,,,,,,,AMNE03.jpg,AMNE19.jpg,AMSA02.jpg,AMSA18.jpg,AMSA02.jpg,MS,2,num_2,32,num_4,1.05015820474,,,2017_Nov_06_1502,60.0201555785,MAFE4ImagesEEG,001,102348,
AFNE01.JPG,AFNE01.JPG,AFNE01.JPG,AFNE01.JPG,AFNE01.JPG,AFNE01.JPG,3,6,36,0,,,,,,,,,,,,,,,,,,,,,,,AMNE11.jpg,AMNE01.jpg,AMSA18.jpg,AMSA17.jpg,AMSA17.jpg,MS,2,num_4,32,num_8,0.850200542249,,,2017_Nov_06_1502,60.0201555785,MAFE4ImagesEEG,001,102348,
AFNE01.JPG,AFNE01.JPG,AFNE01.JPG,AFNE01.JPG,AFNE01.JPG,AFNE01.JPG,3,7,37,5,,,,,,,,,,,,,,,,,,,,,,,AMSA04.jpg,AMNE10.jpg,AMSA18.jpg,AMNE13.jpg,AMNE13.jpg,MN,1,num_4,32,num_8,0.51679023169,,,2017_Nov_06_1502,60.0201555785,MAFE4ImagesEEG,001,102348,
AFNE01.JPG,AFNE01.JPG,AFNE01.JPG,AFNE01.JPG,AFNE01.JPG,AFNE01.JPG,3,8,38,6,,,,,,,,,,,,,,,,,,,,,,,AMNE01.jpg,AMSA19.jpg,AMSA17.jpg,AMNE17.jpg,AMSA19.jpg,MS,2,num_6,16,num_6,0.55015547853,,,2017_Nov_06_1502,60.0201555785,MAFE4ImagesEEG,001,102348,
AFNE01.JPG,AFNE01.JPG,AFNE01.JPG,AFNE01.JPG,AFNE01.JPG,AFNE01.JPG,3,9,39,9,,,,,,,,,,,,,,,,,,,,,,,AMNE11.jpg,AMNE15.jpg,AMSA09.jpg,AMSA06.jpg,AMSA09.jpg,MS,2,num_2,32,num_6,1.21669577365,,,2017_Nov_06_1502,60.0201555785,MAFE4ImagesEEG,001,102348,
AFNE01.JPG,AFNE01.JPG,AFNE01.JPG,AFNE01.JPG,AFNE01.JPG,AFNE01.JPG,4,0,40,3,,,,,,,,,,,,,,,,,,,,,,,AMSA05.jpg,AMSA13.jpg,AMNE20.jpg,AMNE08.jpg,AMNE20.jpg,MN,1,num_2,32,num_4,0.716721593402,,,2017_Nov_06_1502,60.0201555785,MAFE4ImagesEEG,001,102348,
AFNE01.JPG,AFNE01.JPG,AFNE01.JPG,AFNE01.JPG,AFNE01.JPG,AFNE01.JPG,4,1,41,6,,,,,,,,,,,,,,,,,,,,,,,AMSA14.jpg,AMSA19.jpg,AMNE09.jpg,AMNE03.jpg,AMSA19.jpg,MS,2,num_6,32,num_8,1.05010111304,,,2017_Nov_06_1502,60.0201555785,MAFE4ImagesEEG,001,102348,
AFNE01.JPG,AFNE01.JPG,AFNE01.JPG,AFNE01.JPG,AFNE01.JPG,AFNE01.JPG,4,2,42,5,,,,,,,,,,,,,,,,,,,,,,,AMSA10.jpg,AMNE15.jpg,AMSA12.jpg,AMNE16.jpg,AMNE15.jpg,MN,1,num_6,32,num_2,1.13379680179,,,2017_Nov_06_1502,60.0201555785,MAFE4ImagesEEG,001,102348,
AFNE01.JPG,AFNE01.JPG,AFNE01.JPG,AFNE01.JPG,AFNE01.JPG,AFNE01.JPG,4,3,43,4,,,,,,,,,,,,,,,,,,,,,,,AMSA04.jpg,AMSA09.jpg,AMNE06.jpg,AMNE09.jpg,AMSA04.jpg,MS,2,num_8,32,num_6,0.533496589866,,,2017_Nov_06_1502,60.0201555785,MAFE4ImagesEEG,001,102348,
AFNE01.JPG,AFNE01.JPG,AFNE01.JPG,AFNE01.JPG,AFNE01.JPG,AFNE01.JPG,4,4,44,2,,,,,,,,,,,,,,,,,,,,,,,AMNE06.jpg,AMSA10.jpg,AMSA20.jpg,AMNE12.jpg,AMNE06.jpg,MN,1,num_8,16,num_8,0.500164699741,,,2017_Nov_06_1502,60.0201555785,MAFE4ImagesEEG,001,102348,
AFNE01.JPG,AFNE01.JPG,AFNE01.JPG,AFNE01.JPG,AFNE01.JPG,AFNE01.JPG,4,5,45,1,,,,,,,,,,,,,,,,,,,,,,,AMSA02.jpg,AMNE17.jpg,AMSA18.jpg,AMNE13.jpg,AMSA02.jpg,MS,2,num_8,32,num_2,0.400181217818,,,2017_Nov_06_1502,60.0201555785,MAFE4ImagesEEG,001,102348,
AFNE01.JPG,AFNE01.JPG,AFNE01.JPG,AFNE01.JPG,AFNE01.JPG,AFNE01.JPG,4,6,46,8,,,,,,,,,,,,,,,,,,,,,,,AMNE09.jpg,AMSA11.jpg,AMNE05.jpg,AMSA09.jpg,AMNE05.jpg,MN,1,num_2,32,num_8,0.566756313434,,,2017_Nov_06_1502,60.0201555785,MAFE4ImagesEEG,001,102348,
AFNE01.JPG,AFNE01.JPG,AFNE01.JPG,AFNE01.JPG,AFNE01.JPG,AFNE01.JPG,4,7,47,0,,,,,,,,,,,,,,,,,,,,,,,AMSA15.jpg,AMSA08.jpg,AMNE07.jpg,AMNE08.jpg,AMSA08.jpg,MS,2,num_6,32,num_2,0.700159567874,,,2017_Nov_06_1502,60.0201555785,MAFE4ImagesEEG,001,102348,
AFNE01.JPG,AFNE01.JPG,AFNE01.JPG,AFNE01.JPG,AFNE01.JPG,AFNE01.JPG,4,8,48,9,,,,,,,,,,,,,,,,,,,,,,,AMSA09.jpg,AMNE20.jpg,AMNE03.jpg,AMSA04.jpg,AMSA09.jpg,MS,2,num_8,16,num_8,0.416796806734,,,2017_Nov_06_1502,60.0201555785,MAFE4ImagesEEG,001,102348,
AFNE01.JPG,AFNE01.JPG,AFNE01.JPG,AFNE01.JPG,AFNE01.JPG,AFNE01.JPG,4,9,49,7,,,,,,,,,,,,,,,,,,,,,,,AMNE15.jpg,AMNE18.jpg,AMSA06.jpg,AMSA14.jpg,AMNE18.jpg,MN,1,num_6,16,num_6,1.40014016326,,,2017_Nov_06_1502,60.0201555785,MAFE4ImagesEEG,001,102348,
AFNE01.JPG,AFNE01.JPG,AFNE01.JPG,AFNE01.JPG,AFNE01.JPG,AFNE01.JPG,5,0,50,1,,,,,,,,,,,,,,,,,,,,,,,AMSA13.jpg,AMNE06.jpg,AMNE10.jpg,AMSA17.jpg,AMSA13.jpg,MS,2,num_8,32,num_2,0.466820942238,,,2017_Nov_06_1502,60.0201555785,MAFE4ImagesEEG,001,102348,
AFNE01.JPG,AFNE01.JPG,AFNE01.JPG,AFNE01.JPG,AFNE01.JPG,AFNE01.JPG,5,1,51,4,,,,,,,,,,,,,,,,,,,,,,,AMSA15.jpg,AMSA16.jpg,AMNE12.jpg,AMNE02.jpg,AMSA15.jpg,MS,2,num_8,16,num_8,0.700164699694,,,2017_Nov_06_1502,60.0201555785,MAFE4ImagesEEG,001,102348,
AFNE01.JPG,AFNE01.JPG,AFNE01.JPG,AFNE01.JPG,AFNE01.JPG,AFNE01.JPG,5,2,52,2,,,,,,,,,,,,,,,,,,,,,,,AMSA05.jpg,AMNE11.jpg,AMNE05.jpg,AMSA09.jpg,AMNE05.jpg,MN,1,num_2,16,num_2,0.966745087411,,,2017_Nov_06_1502,60.0201555785,MAFE4ImagesEEG,001,102348,
AFNE01.JPG,AFNE01.JPG,AFNE01.JPG,AFNE01.JPG,AFNE01.JPG,AFNE01.JPG,5,3,53,9,,,,,,,,,,,,,,,,,,,,,,,AMSA14.jpg,AMNE10.jpg,AMSA20.jpg,AMNE06.jpg,AMNE10.jpg,MN,1,num_6,32,num_8,0.76685478026,,,2017_Nov_06_1502,60.0201555785,MAFE4ImagesEEG,001,102348,
AFNE01.JPG,AFNE01.JPG,AFNE01.JPG,AFNE01.JPG,AFNE01.JPG,AFNE01.JPG,5,4,54,6,,,,,,,,,,,,,,,,,,,,,,,AMSA02.jpg,AMSA14.jpg,AMNE18.jpg,AMNE13.jpg,AMNE18.jpg,MN,1,num_2,32,num_6,0.56679512281,,,2017_Nov_06_1502,60.0201555785,MAFE4ImagesEEG,001,102348,
AFNE01.JPG,AFNE01.JPG,AFNE01.JPG,AFNE01.JPG,AFNE01.JPG,AFNE01.JPG,5,5,55,3,,,,,,,,,,,,,,,,,,,,,,,AMSA03.jpg,AMNE18.jpg,AMSA07.jpg,AMNE10.jpg,AMNE18.jpg,MN,1,num_6,16,num_6,0.683465718525,,,2017_Nov_06_1502,60.0201555785,MAFE4ImagesEEG,001,102348,
AFNE01.JPG,AFNE01.JPG,AFNE01.JPG,AFNE01.JPG,AFNE01.JPG,AFNE01.JPG,5,6,56,5,,,,,,,,,,,,,,,,,,,,,,,AMNE10.jpg,AMNE20.jpg,AMSA12.jpg,AMSA13.jpg,AMNE10.jpg,MN,1,num_8,16,num_8,0.583640682045,,,2017_Nov_06_1502,60.0201555785,MAFE4ImagesEEG,001,102348,
AFNE01.JPG,AFNE01.JPG,AFNE01.JPG,AFNE01.JPG,AFNE01.JPG,AFNE01.JPG,5,7,57,0,,,,,,,,,,,,,,,,,,,,,,,AMNE07.jpg,AMSA07.jpg,AMNE15.jpg,AMSA14.jpg,AMSA07.jpg,MS,2,num_6,32,num_4,0.950109933503,,,2017_Nov_06_1502,60.0201555785,MAFE4ImagesEEG,001,102348,
AFNE01.JPG,AFNE01.JPG,AFNE01.JPG,AFNE01.JPG,AFNE01.JPG,AFNE01.JPG,5,8,58,7,,,,,,,,,,,,,,,,,,,,,,,AMNE04.jpg,AMSA19.jpg,AMSA06.jpg,AMNE13.jpg,AMNE04.jpg,MN,1,num_8,32,num_2,1.14988798182,,,2017_Nov_06_1502,60.0201555785,MAFE4ImagesEEG,001,102348,
AFNE01.JPG,AFNE01.JPG,AFNE01.JPG,AFNE01.JPG,AFNE01.JPG,AFNE01.JPG,5,9,59,8,,,,,,,,,,,,,,,,,,,,,,,AMNE19.jpg,AMSA08.jpg,AMSA10.jpg,AMNE04.jpg,AMSA10.jpg,MS,2,num_2,16,num_2,0.766826555133,,,2017_Nov_06_1502,60.0201555785,MAFE4ImagesEEG,001,102348,
,,,,,,,,,,,,,,,,,,,,,,,,,,,,,,,,,,,,,,,,,,,space,30.181094652,2017_Nov_06_1502,60.0201555785,MAFE4ImagesEEG,001,102348,
AFNE01.JPG,AFNE01.JPG,AFNE01.JPG,AFNE01.JPG,AFNE01.JPG,AFNE01.JPG,,,,,0,0,0,0,,,,,,,,,,,,,,,,,,,AFSA18.jpg,AFSA20.jpg,AFNE01.jpg,AFNE14.jpg,AFNE14.jpg,FN,3,num_4,16,num_4,0.633508617524,,,2017_Nov_06_1502,60.0201555785,MAFE4ImagesEEG,001,102348,
AFNE01.JPG,AFNE01.JPG,AFNE01.JPG,AFNE01.JPG,AFNE01.JPG,AFNE01.JPG,,,,,0,1,1,1,,,,,,,,,,,,,,,,,,,AFSA14.jpg,AFNE20.jpg,AFNE04.jpg,AFSA17.jpg,AFSA14.jpg,FS,4,num_8,32,num_2,0.566759520676,,,2017_Nov_06_1502,60.0201555785,MAFE4ImagesEEG,001,102348,
AFNE01.JPG,AFNE01.JPG,AFNE01.JPG,AFNE01.JPG,AFNE01.JPG,AFNE01.JPG,,,,,0,2,2,9,,,,,,,,,,,,,,,,,,,AFNE07.jpg,AFSA18.jpg,AFNE08.jpg,AFSA05.jpg,AFNE08.jpg,FN,3,num_2,16,num_2,0.883447436383,,,2017_Nov_06_1502,60.0201555785,MAFE4ImagesEEG,001,102348,
AFNE01.JPG,AFNE01.JPG,AFNE01.JPG,AFNE01.JPG,AFNE01.JPG,AFNE01.JPG,,,,,0,3,3,5,,,,,,,,,,,,,,,,,,,AFNE08.jpg,AFNE02.jpg,AFSA13.jpg,AFSA10.jpg,AFNE02.jpg,FN,3,num_6,32,num_8,0.633502844255,,,2017_Nov_06_1502,60.0201555785,MAFE4ImagesEEG,001,102348,
AFNE01.JPG,AFNE01.JPG,AFNE01.JPG,AFNE01.JPG,AFNE01.JPG,AFNE01.JPG,,,,,0,4,4,7,,,,,,,,,,,,,,,,,,,AFSA20.jpg,AFSA06.jpg,AFNE11.jpg,AFNE14.jpg,AFSA20.jpg,FS,4,num_8,32,num_4,0.3335501533,,,2017_Nov_06_1502,60.0201555785,MAFE4ImagesEEG,001,102348,
AFNE01.JPG,AFNE01.JPG,AFNE01.JPG,AFNE01.JPG,AFNE01.JPG,AFNE01.JPG,,,,,0,5,5,2,,,,,,,,,,,,,,,,,,,AFSA18.jpg,AFNE07.jpg,AFNE19.jpg,AFSA11.jpg,AFNE07.jpg,FN,3,num_6,32,num_2,0.800140483771,,,2017_Nov_06_1502,60.0201555785,MAFE4ImagesEEG,001,102348,
AFNE01.JPG,AFNE01.JPG,AFNE01.JPG,AFNE01.JPG,AFNE01.JPG,AFNE01.JPG,,,,,0,6,6,6,,,,,,,,,,,,,,,,,,,AFNE11.jpg,AFSA13.jpg,AFSA19.jpg,AFNE06.jpg,AFSA13.jpg,FS,4,num_6,32,num_8,0.733481835807,,,2017_Nov_06_1502,60.0201555785,MAFE4ImagesEEG,001,102348,
AFNE01.JPG,AFNE01.JPG,AFNE01.JPG,AFNE01.JPG,AFNE01.JPG,AFNE01.JPG,,,,,0,7,7,3,,,,,,,,,,,,,,,,,,,AFSA11.jpg,AFSA04.jpg,AFNE10.jpg,AFNE09.jpg,AFNE09.jpg,FN,3,num_4,32,num_2,0.933420895133,,,2017_Nov_06_1502,60.0201555785,MAFE4ImagesEEG,001,102348,
AFNE01.JPG,AFNE01.JPG,AFNE01.JPG,AFNE01.JPG,AFNE01.JPG,AFNE01.JPG,,,,,0,8,8,8,,,,,,,,,,,,,,,,,,,AFNE10.jpg,AFSA15.jpg,AFNE11.jpg,AFSA13.jpg,AFNE11.jpg,FN,3,num_2,16,num_2,0.733496268978,,,2017_Nov_06_1502,60.0201555785,MAFE4ImagesEEG,001,102348,
AFNE01.JPG,AFNE01.JPG,AFNE01.JPG,AFNE01.JPG,AFNE01.JPG,AFNE01.JPG,,,,,0,9,9,4,,,,,,,,,,,,,,,,,,,AFSA04.jpg,AFNE04.jpg,AFSA11.jpg,AFNE10.jpg,AFNE10.jpg,FN,3,num_4,32,num_6,0.566811480559,,,2017_Nov_06_1502,60.0201555785,MAFE4ImagesEEG,001,102348,
AFNE01.JPG,AFNE01.JPG,AFNE01.JPG,AFNE01.JPG,AFNE01.JPG,AFNE01.JPG,,,,,1,0,10,1,,,,,,,,,,,,,,,,,,,AFSA07.jpg,AFSA04.jpg,AFNE12.jpg,AFNE10.jpg,AFSA07.jpg,FS,4,num_8,32,num_2,1.43339186814,,,2017_Nov_06_1502,60.0201555785,MAFE4ImagesEEG,001,102348,
AFNE01.JPG,AFNE01.JPG,AFNE01.JPG,AFNE01.JPG,AFNE01.JPG,AFNE01.JPG,,,,,1,1,11,0,,,,,,,,,,,,,,,,,,,AFNE05.jpg,AFNE15.jpg,AFSA19.jpg,AFSA04.jpg,AFNE15.jpg,FN,3,num_6,32,num_8,0.500188434497,,,2017_Nov_06_1502,60.0201555785,MAFE4ImagesEEG,001,102348,
AFNE01.JPG,AFNE01.JPG,AFNE01.JPG,AFNE01.JPG,AFNE01.JPG,AFNE01.JPG,,,,,1,2,12,8,,,,,,,,,,,,,,,,,,,AFSA06.jpg,AFNE01.jpg,AFNE20.jpg,AFSA05.jpg,AFNE01.jpg,FN,3,num_6,16,num_6,0.816831446486,,,2017_Nov_06_1502,60.0201555785,MAFE4ImagesEEG,001,102348,
AFNE01.JPG,AFNE01.JPG,AFNE01.JPG,AFNE01.JPG,AFNE01.JPG,AFNE01.JPG,,,,,1,3,13,4,,,,,,,,,,,,,,,,,,,AFNE16.jpg,AFNE13.jpg,AFSA06.jpg,AFSA14.jpg,AFSA14.jpg,FS,4,num_4,32,num_2,0.350144894095,,,2017_Nov_06_1502,60.0201555785,MAFE4ImagesEEG,001,102348,
AFNE01.JPG,AFNE01.JPG,AFNE01.JPG,AFNE01.JPG,AFNE01.JPG,AFNE01.JPG,,,,,1,4,14,5,,,,,,,,,,,,,,,,,,,AFNE01.jpg,AFSA03.jpg,AFNE02.jpg,AFSA01.jpg,AFNE01.jpg,FN,3,num_8,32,num_4,0.616788146552,,,2017_Nov_06_1502,60.0201555785,MAFE4ImagesEEG,001,102348,
AFNE01.JPG,AFNE01.JPG,AFNE01.JPG,AFNE01.JPG,AFNE01.JPG,AFNE01.JPG,,,,,1,5,15,6,,,,,,,,,,,,,,,,,,,AFSA03.jpg,AFSA12.jpg,AFNE06.jpg,AFNE18.jpg,AFNE06.jpg,FN,3,num_2,32,num_8,0.883470209083,,,2017_Nov_06_1502,60.0201555785,MAFE4ImagesEEG,001,102348,
AFNE01.JPG,AFNE01.JPG,AFNE01.JPG,AFNE01.JPG,AFNE01.JPG,AFNE01.JPG,,,,,1,6,16,9,,,,,,,,,,,,,,,,,,,AFSA07.jpg,AFNE10.jpg,AFSA02.jpg,AFNE09.jpg,AFNE10.jpg,FN,3,num_6,16,num_6,0.616755431285,,,2017_Nov_06_1502,60.0201555785,MAFE4ImagesEEG,001,102348,
AFNE01.JPG,AFNE01.JPG,AFNE01.JPG,AFNE01.JPG,AFNE01.JPG,AFNE01.JPG,,,,,1,7,17,7,,,,,,,,,,,,,,,,,,,AFNE20.jpg,AFSA16.jpg,AFNE07.jpg,AFSA08.jpg,AFNE20.jpg,FN,3,num_8,32,num_2,0.716791514307,,,2017_Nov_06_1502,60.0201555785,MAFE4ImagesEEG,001,102348,
AFNE01.JPG,AFNE01.JPG,AFNE01.JPG,AFNE01.JPG,AFNE01.JPG,AFNE01.JPG,,,,,1,8,18,2,,,,,,,,,,,,,,,,,,,AFSA14.jpg,AFSA05.jpg,AFNE15.jpg,AFNE02.jpg,AFSA05.jpg,FS,4,num_6,32,num_8,0.583476784173,,,2017_Nov_06_1502,60.0201555785,MAFE4ImagesEEG,001,102348,
AFNE01.JPG,AFNE01.JPG,AFNE01.JPG,AFNE01.JPG,AFNE01.JPG,AFNE01.JPG,,,,,1,9,19,3,,,,,,,,,,,,,,,,,,,AFSA13.jpg,AFSA18.jpg,AFNE08.jpg,AFNE18.jpg,AFNE08.jpg,FN,3,num_2,16,num_2,0.46680394304,,,2017_Nov_06_1502,60.0201555785,MAFE4ImagesEEG,001,102348,
AFNE01.JPG,AFNE01.JPG,AFNE01.JPG,AFNE01.JPG,AFNE01.JPG,AFNE01.JPG,,,,,2,0,20,5,,,,,,,,,,,,,,,,,,,AFNE16.jpg,AFSA13.jpg,AFNE13.jpg,AFSA19.jpg,AFNE16.jpg,FN,3,num_8,16,num_8,0.566790632438,,,2017_Nov_06_1502,60.0201555785,MAFE4ImagesEEG,001,102348,
AFNE01.JPG,AFNE01.JPG,AFNE01.JPG,AFNE01.JPG,AFNE01.JPG,AFNE01.JPG,,,,,2,1,21,1,,,,,,,,,,,,,,,,,,,AFSA19.jpg,AFNE07.jpg,AFNE18.jpg,AFSA06.jpg,AFNE18.jpg,FN,3,num_2,32,num_6,0.333519682987,,,2017_Nov_06_1502,60.0201555785,MAFE4ImagesEEG,001,102348,
AFNE01.JPG,AFNE01.JPG,AFNE01.JPG,AFNE01.JPG,AFNE01.JPG,AFNE01.JPG,,,,,2,2,22,3,,,,,,,,,,,,,,,,,,,AFSA08.jpg,AFNE09.jpg,AFNE04.jpg,AFSA04.jpg,AFNE09.jpg,FN,3,num_6,32,num_2,0.566839705454,,,2017_Nov_06_1502,60.0201555785,MAFE4ImagesEEG,001,102348,
AFNE01.JPG,AFNE01.JPG,AFNE01.JPG,AFNE01.JPG,AFNE01.JPG,AFNE01.JPG,,,,,2,3,23,2,,,,,,,,,,,,,,,,,,,AFNE17.jpg,AFSA07.jpg,AFNE03.jpg,AFSA02.jpg,AFSA02.jpg,FS,4,num_4,32,num_8,0.983496349305,,,2017_Nov_06_1502,60.0201555785,MAFE4ImagesEEG,001,102348,
AFNE01.JPG,AFNE01.JPG,AFNE01.JPG,AFNE01.JPG,AFNE01.JPG,AFNE01.JPG,,,,,2,4,24,9,,,,,,,,,,,,,,,,,,,AFNE04.jpg,AFSA10.jpg,AFSA01.jpg,AFNE03.jpg,AFSA10.jpg,FS,4,num_6,32,num_4,0.850129979663,,,2017_Nov_06_1502,60.0201555785,MAFE4ImagesEEG,001,102348,
AFNE01.JPG,AFNE01.JPG,AFNE01.JPG,AFNE01.JPG,AFNE01.JPG,AFNE01.JPG,,,,,2,5,25,6,,,,,,,,,,,,,,,,,,,AFSA15.jpg,AFSA04.jpg,AFNE14.jpg,AFNE15.jpg,AFNE14.jpg,FN,3,num_2,32,num_8,0.333465798758,,,2017_Nov_06_1502,60.0201555785,MAFE4ImagesEEG,001,102348,
AFNE01.JPG,AFNE01.JPG,AFNE01.JPG,AFNE01.JPG,AFNE01.JPG,AFNE01.JPG,,,,,2,6,26,8,,,,,,,,,,,,,,,,,,,AFSA04.jpg,AFNE13.jpg,AFSA18.jpg,AFNE03.jpg,AFSA18.jpg,FS,4,num_2,16,num_2,0.516836097464,,,2017_Nov_06_1502,60.0201555785,MAFE4ImagesEEG,001,102348,
AFNE01.JPG,AFNE01.JPG,AFNE01.JPG,AFNE01.JPG,AFNE01.JPG,AFNE01.JPG,,,,,2,7,27,0,,,,,,,,,,,,,,,,,,,AFSA11.jpg,AFNE18.jpg,AFSA01.jpg,AFNE12.jpg,AFSA11.jpg,FS,4,num_8,16,num_8,1.15014906367,,,2017_Nov_06_1502,60.0201555785,MAFE4ImagesEEG,001,102348,
AFNE01.JPG,AFNE01.JPG,AFNE01.JPG,AFNE01.JPG,AFNE01.JPG,AFNE01.JPG,,,,,2,8,28,4,,,,,,,,,,,,,,,,,,,AFSA03.jpg,AFSA15.jpg,AFNE09.jpg,AFNE03.jpg,AFNE03.jpg,FN,3,num_4,32,num_2,1.13345906301,,,2017_Nov_06_1502,60.0201555785,MAFE4ImagesEEG,001,102348,
AFNE01.JPG,AFNE01.JPG,AFNE01.JPG,AFNE01.JPG,AFNE01.JPG,AFNE01.JPG,,,,,2,9,29,7,,,,,,,,,,,,,,,,,,,AFNE19.jpg,AFSA07.jpg,AFSA12.jpg,AFNE18.jpg,AFSA07.jpg,FS,4,num_6,16,num_6,0.650158846285,,,2017_Nov_06_1502,60.0201555785,MAFE4ImagesEEG,001,102348,
AFNE01.JPG,AFNE01.JPG,AFNE01.JPG,AFNE01.JPG,AFNE01.JPG,AFNE01.JPG,,,,,3,0,30,0,,,,,,,,,,,,,,,,,,,AFSA12.jpg,AFSA18.jpg,AFNE01.jpg,AFNE04.jpg,AFNE04.jpg,FN,3,num_4,32,num_2,0.733418649994,,,2017_Nov_06_1502,60.0201555785,MAFE4ImagesEEG,001,102348,
AFNE01.JPG,AFNE01.JPG,AFNE01.JPG,AFNE01.JPG,AFNE01.JPG,AFNE01.JPG,,,,,3,1,31,1,,,,,,,,,,,,,,,,,,,AFNE07.jpg,AFSA13.jpg,AFNE05.jpg,AFSA20.jpg,AFSA13.jpg,FS,4,num_6,32,num_8,0.60028834478,,,2017_Nov_06_1502,60.0201555785,MAFE4ImagesEEG,001,102348,
AFNE01.JPG,AFNE01.JPG,AFNE01.JPG,AFNE01.JPG,AFNE01.JPG,AFNE01.JPG,,,,,3,2,32,6,,,,,,,,,,,,,,,,,,,AFNE13.jpg,AFNE16.jpg,AFSA19.jpg,AFSA01.jpg,AFNE13.jpg,FN,3,num_8,32,num_4,0.616787825944,,,2017_Nov_06_1502,60.0201555785,MAFE4ImagesEEG,001,102348,
AFNE01.JPG,AFNE01.JPG,AFNE01.JPG,AFNE01.JPG,AFNE01.JPG,AFNE01.JPG,,,,,3,3,33,9,,,,,,,,,,,,,,,,,,,AFNE01.jpg,AFSA18.jpg,AFNE15.jpg,AFSA11.jpg,AFSA11.jpg,FS,4,num_4,32,num_6,0.433534276439,,,2017_Nov_06_1502,60.0201555785,MAFE4ImagesEEG,001,102348,
AFNE01.JPG,AFNE01.JPG,AFNE01.JPG,AFNE01.JPG,AFNE01.JPG,AFNE01.JPG,,,,,3,4,34,5,,,,,,,,,,,,,,,,,,,AFSA08.jpg,AFNE19.jpg,AFNE17.jpg,AFSA20.jpg,AFSA08.jpg,FS,4,num_8,16,num_8,0.533484081039,,,2017_Nov_06_1502,60.0201555785,MAFE4ImagesEEG,001,102348,
AFNE01.JPG,AFNE01.JPG,AFNE01.JPG,AFNE01.JPG,AFNE01.JPG,AFNE01.JPG,,,,,3,5,35,7,,,,,,,,,,,,,,,,,,,AFNE07.jpg,AFSA05.jpg,AFNE09.jpg,AFSA03.jpg,AFSA03.jpg,FS,4,num_4,32,num_6,0.750134630362,,,2017_Nov_06_1502,60.0201555785,MAFE4ImagesEEG,001,102348,
AFNE01.JPG,AFNE01.JPG,AFNE01.JPG,AFNE01.JPG,AFNE01.JPG,AFNE01.JPG,,,,,3,6,36,2,,,,,,,,,,,,,,,,,,,AFNE11.jpg,AFNE02.jpg,AFSA09.jpg,AFSA14.jpg,AFSA14.jpg,FS,4,num_4,16,num_4,0.633524333593,,,2017_Nov_06_1502,60.0201555785,MAFE4ImagesEEG,001,102348,
AFNE01.JPG,AFNE01.JPG,AFNE01.JPG,AFNE01.JPG,AFNE01.JPG,AFNE01.JPG,,,,,3,7,37,8,,,,,,,,,,,,,,,,,,,AFSA05.jpg,AFSA20.jpg,AFNE06.jpg,AFNE18.jpg,AFNE18.jpg,FN,3,num_4,32,num_8,0.583497311454,,,2017_Nov_06_1502,60.0201555785,MAFE4ImagesEEG,001,102348,
AFNE01.JPG,AFNE01.JPG,AFNE01.JPG,AFNE01.JPG,AFNE01.JPG,AFNE01.JPG,,,,,3,8,38,4,,,,,,,,,,,,,,,,,,,AFNE11.jpg,AFNE16.jpg,AFSA09.jpg,AFSA15.jpg,AFSA15.jpg,FS,4,num_4,16,num_4,0.766780689592,,,2017_Nov_06_1502,60.0201555785,MAFE4ImagesEEG,001,102348,
AFNE01.JPG,AFNE01.JPG,AFNE01.JPG,AFNE01.JPG,AFNE01.JPG,AFNE01.JPG,,,,,3,9,39,3,,,,,,,,,,,,,,,,,,,AFNE15.jpg,AFNE10.jpg,AFSA03.jpg,AFSA18.jpg,AFNE10.jpg,FN,3,num_6,32,num_8,0.400158765959,,,2017_Nov_06_1502,60.0201555785,MAFE4ImagesEEG,001,102348,
AFNE01.JPG,AFNE01.JPG,AFNE01.JPG,AFNE01.JPG,AFNE01.JPG,AFNE01.JPG,,,,,4,0,40,0,,,,,,,,,,,,,,,,,,,AFSA12.jpg,AFNE08.jpg,AFNE07.jpg,AFSA10.jpg,AFSA10.jpg,FS,4,num_4,32,num_2,0.516839625547,,,2017_Nov_06_1502,60.0201555785,MAFE4ImagesEEG,001,102348,
AFNE01.JPG,AFNE01.JPG,AFNE01.JPG,AFNE01.JPG,AFNE01.JPG,AFNE01.JPG,,,,,4,1,41,3,,,,,,,,,,,,,,,,,,,AFSA18.jpg,AFNE11.jpg,AFNE07.jpg,AFSA10.jpg,AFSA10.jpg,FS,4,num_4,16,num_4,0.783429314615,,,2017_Nov_06_1502,60.0201555785,MAFE4ImagesEEG,001,102348,
AFNE01.JPG,AFNE01.JPG,AFNE01.JPG,AFNE01.JPG,AFNE01.JPG,AFNE01.JPG,,,,,4,2,42,4,,,,,,,,,,,,,,,,,,,AFSA05.jpg,AFSA11.jpg,AFNE01.jpg,AFNE19.jpg,AFNE19.jpg,FN,3,num_4,32,num_2,0.366828800412,,,2017_Nov_06_1502,60.0201555785,MAFE4ImagesEEG,001,102348,
AFNE01.JPG,AFNE01.JPG,AFNE01.JPG,AFNE01.JPG,AFNE01.JPG,AFNE01.JPG,,,,,4,3,43,9,,,,,,,,,,,,,,,,,,,AFNE18.jpg,AFSA06.jpg,AFSA12.jpg,AFNE10.jpg,AFNE18.jpg,FN,3,num_8,32,num_6,0.766804424347,,,2017_Nov_06_1502,60.0201555785,MAFE4ImagesEEG,001,102348,
AFNE01.JPG,AFNE01.JPG,AFNE01.JPG,AFNE01.JPG,AFNE01.JPG,AFNE01.JPG,,,,,4,4,44,8,,,,,,,,,,,,,,,,,,,AFNE20.jpg,AFNE15.jpg,AFSA13.jpg,AFSA12.jpg,AFSA12.jpg,FS,4,num_4,32,num_8,0.466854620026,,,2017_Nov_06_1502,60.0201555785,MAFE4ImagesEEG,001,102348,
AFNE01.JPG,AFNE01.JPG,AFNE01.JPG,AFNE01.JPG,AFNE01.JPG,AFNE01.JPG,,,,,4,5,45,6,,,,,,,,,,,,,,,,,,,AFSA10.jpg,AFNE09.jpg,AFNE03.jpg,AFSA14.jpg,AFNE03.jpg,FN,3,num_2,16,num_2,0.933447195916,,,2017_Nov_06_1502,60.0201555785,MAFE4ImagesEEG,001,102348,
AFNE01.JPG,AFNE01.JPG,AFNE01.JPG,AFNE01.JPG,AFNE01.JPG,AFNE01.JPG,,,,,4,6,46,2,,,,,,,,,,,,,,,,,,,AFSA03.jpg,AFNE07.jpg,AFNE15.jpg,AFSA07.jpg,AFNE07.jpg,FN,3,num_6,16,num_6,0.73346772301,,,2017_Nov_06_1502,60.0201555785,MAFE4ImagesEEG,001,102348,
AFNE01.JPG,AFNE01.JPG,AFNE01.JPG,AFNE01.JPG,AFNE01.JPG,AFNE01.JPG,,,,,4,7,47,7,,,,,,,,,,,,,,,,,,,AFSA07.jpg,AFSA19.jpg,AFNE01.jpg,AFNE07.jpg,AFSA19.jpg,FS,4,num_6,16,num_6,0.933500438463,,,2017_Nov_06_1502,60.0201555785,MAFE4ImagesEEG,001,102348,
AFNE01.JPG,AFNE01.JPG,AFNE01.JPG,AFNE01.JPG,AFNE01.JPG,AFNE01.JPG,,,,,4,8,48,5,,,,,,,,,,,,,,,,,,,AFNE02.jpg,AFSA05.jpg,AFSA03.jpg,AFNE09.jpg,AFSA03.jpg,FS,4,num_2,32,num_4,0.850111055886,,,2017_Nov_06_1502,60.0201555785,MAFE4ImagesEEG,001,102348,
AFNE01.JPG,AFNE01.JPG,AFNE01.JPG,AFNE01.JPG,AFNE01.JPG,AFNE01.JPG,,,,,4,9,49,1,,,,,,,,,,,,,,,,,,,AFNE05.jpg,AFSA17.jpg,AFNE20.jpg,AFSA11.jpg,AFNE20.jpg,FN,3,num_2,32,num_8,0.73346387432,,,2017_Nov_06_1502,60.0201555785,MAFE4ImagesEEG,001,102348,
AFNE01.JPG,AFNE01.JPG,AFNE01.JPG,AFNE01.JPG,AFNE01.JPG,AFNE01.JPG,,,,,5,0,50,7,,,,,,,,,,,,,,,,,,,AFSA12.jpg,AFNE03.jpg,AFSA14.jpg,AFNE11.jpg,AFSA12.jpg,FS,4,num_8,16,num_8,0.900163737591,,,2017_Nov_06_1502,60.0201555785,MAFE4ImagesEEG,001,102348,
AFNE01.JPG,AFNE01.JPG,AFNE01.JPG,AFNE01.JPG,AFNE01.JPG,AFNE01.JPG,,,,,5,1,51,3,,,,,,,,,,,,,,,,,,,AFSA15.jpg,AFNE01.jpg,AFNE05.jpg,AFSA01.jpg,AFSA15.jpg,FS,4,num_8,32,num_4,1.41669769818,,,2017_Nov_06_1502,60.0201555785,MAFE4ImagesEEG,001,102348,
AFNE01.JPG,AFNE01.JPG,AFNE01.JPG,AFNE01.JPG,AFNE01.JPG,AFNE01.JPG,,,,,5,2,52,5,,,,,,,,,,,,,,,,,,,AFNE01.jpg,AFNE20.jpg,AFSA15.jpg,AFSA20.jpg,AFSA20.jpg,FS,4,num_4,16,num_4,0.866831206018,,,2017_Nov_06_1502,60.0201555785,MAFE4ImagesEEG,001,102348,
AFNE01.JPG,AFNE01.JPG,AFNE01.JPG,AFNE01.JPG,AFNE01.JPG,AFNE01.JPG,,,,,5,3,53,0,,,,,,,,,,,,,,,,,,,AFSA02.jpg,AFSA18.jpg,AFNE08.jpg,AFNE14.jpg,AFNE08.jpg,FN,3,num_2,16,num_2,0.950159647968,,,2017_Nov_06_1502,60.0201555785,MAFE4ImagesEEG,001,102348,
AFNE01.JPG,AFNE01.JPG,AFNE01.JPG,AFNE01.JPG,AFNE01.JPG,AFNE01.JPG,,,,,5,4,54,9,,,,,,,,,,,,,,,,,,,AFSA15.jpg,AFNE09.jpg,AFSA03.jpg,AFNE10.jpg,AFNE09.jpg,FN,3,num_6,16,num_6,0.800137276528,,,2017_Nov_06_1502,60.0201555785,MAFE4ImagesEEG,001,102348,
AFNE01.JPG,AFNE01.JPG,AFNE01.JPG,AFNE01.JPG,AFNE01.JPG,AFNE01.JPG,,,,,5,5,55,2,,,,,,,,,,,,,,,,,,,AFSA10.jpg,AFNE20.jpg,AFNE13.jpg,AFSA06.jpg,AFSA06.jpg,FS,4,num_4,16,num_4,0.500265732873,,,2017_Nov_06_1502,60.0201555785,MAFE4ImagesEEG,001,102348,
AFNE01.JPG,AFNE01.JPG,AFNE01.JPG,AFNE01.JPG,AFNE01.JPG,AFNE01.JPG,,,,,5,6,56,1,,,,,,,,,,,,,,,,,,,AFSA07.jpg,AFNE09.jpg,AFNE10.jpg,AFSA15.jpg,AFSA07.jpg,FS,4,num_8,32,num_2,0.416785581037,,,2017_Nov_06_1502,60.0201555785,MAFE4ImagesEEG,001,102348,
AFNE01.JPG,AFNE01.JPG,AFNE01.JPG,AFNE01.JPG,AFNE01.JPG,AFNE01.JPG,,,,,5,7,57,8,,,,,,,,,,,,,,,,,,,AFSA02.jpg,AFSA01.jpg,AFNE01.jpg,AFNE15.jpg,AFNE01.jpg,FN,3,num_2,32,num_8,0.500147059094,,,2017_Nov_06_1502,60.0201555785,MAFE4ImagesEEG,001,102348,
AFNE01.JPG,AFNE01.JPG,AFNE01.JPG,AFNE01.JPG,AFNE01.JPG,AFNE01.JPG,,,,,5,8,58,4,,,,,,,,,,,,,,,,,,,AFNE06.jpg,AFSA09.jpg,AFNE01.jpg,AFSA01.jpg,AFNE01.jpg,FN,3,num_2,16,num_2,0.416657926515,,,2017_Nov_06_1502,60.0201555785,MAFE4ImagesEEG,001,102348,
AFNE01.JPG,AFNE01.JPG,AFNE01.JPG,AFNE01.JPG,AFNE01.JPG,AFNE01.JPG,,,,,5,9,59,6,,,,,,,,,,,,,,,,,,,AFNE18.jpg,AFSA01.jpg,AFNE05.jpg,AFSA07.jpg,AFNE05.jpg,FN,3,num_2,32,num_8,1.05011682934,,,2017_Nov_06_1502,60.0201555785,MAFE4ImagesEEG,001,102348,
,,,,,,,,,,,,,,,,,,,,,,,,,,,,,,,,,,,,,,,,,,,space,19.6985812089,2017_Nov_06_1502,60.0201555785,MAFE4ImagesEEG,001,102348,
AFNE01.JPG,AFNE01.JPG,AFNE01.JPG,AFNE01.JPG,AFNE01.JPG,AFNE01.JPG,,,,,,,,,0,0,0,9,,,,,,,,,,,,,,,AMNE03.jpg,AMNE06.jpg,AMSA15.jpg,AMSA18.jpg,AMNE06.jpg,MN,1,num_6,32,num_8,0.950116669061,,,2017_Nov_06_1502,60.0201555785,MAFE4ImagesEEG,001,102348,
AFNE01.JPG,AFNE01.JPG,AFNE01.JPG,AFNE01.JPG,AFNE01.JPG,AFNE01.JPG,,,,,,,,,0,1,1,6,,,,,,,,,,,,,,,AMSA17.jpg,AMSA10.jpg,AMNE20.jpg,AMNE12.jpg,AMSA10.jpg,MS,2,num_6,32,num_2,0.350053803995,,,2017_Nov_06_1502,60.0201555785,MAFE4ImagesEEG,001,102348,
AFNE01.JPG,AFNE01.JPG,AFNE01.JPG,AFNE01.JPG,AFNE01.JPG,AFNE01.JPG,,,,,,,,,0,2,2,0,,,,,,,,,,,,,,,AMNE05.jpg,AMSA02.jpg,AMNE10.jpg,AMSA06.jpg,AMNE10.jpg,MN,1,num_2,32,num_8,0.600191802252,,,2017_Nov_06_1502,60.0201555785,MAFE4ImagesEEG,001,102348,
AFNE01.JPG,AFNE01.JPG,AFNE01.JPG,AFNE01.JPG,AFNE01.JPG,AFNE01.JPG,,,,,,,,,0,3,3,3,,,,,,,,,,,,,,,AMNE12.jpg,AMSA05.jpg,AMSA10.jpg,AMNE07.jpg,AMNE12.jpg,MN,1,num_8,32,num_6,0.533488250338,,,2017_Nov_06_1502,60.0201555785,MAFE4ImagesEEG,001,102348,
AFNE01.JPG,AFNE01.JPG,AFNE01.JPG,AFNE01.JPG,AFNE01.JPG,AFNE01.JPG,,,,,,,,,0,4,4,8,,,,,,,,,,,,,,,AMSA08.jpg,AMNE10.jpg,AMSA03.jpg,AMNE11.jpg,AMSA08.jpg,MS,2,num_8,16,num_8,2.64998757141,,,2017_Nov_06_1502,60.0201555785,MAFE4ImagesEEG,001,102348,
AFNE01.JPG,AFNE01.JPG,AFNE01.JPG,AFNE01.JPG,AFNE01.JPG,AFNE01.JPG,,,,,,,,,0,5,5,7,,,,,,,,,,,,,,,AMSA01.jpg,AMNE13.jpg,AMNE17.jpg,AMSA10.jpg,AMNE13.jpg,MN,1,num_6,32,num_4,0.616789109074,,,2017_Nov_06_1502,60.0201555785,MAFE4ImagesEEG,001,102348,
AFNE01.JPG,AFNE01.JPG,AFNE01.JPG,AFNE01.JPG,AFNE01.JPG,AFNE01.JPG,,,,,,,,,0,6,6,1,,,,,,,,,,,,,,,AMNE11.jpg,AMSA02.jpg,AMSA04.jpg,AMNE04.jpg,AMNE11.jpg,MN,1,num_8,16,num_8,0.583366770297,,,2017_Nov_06_1502,60.0201555785,MAFE4ImagesEEG,001,102348,
AFNE01.JPG,AFNE01.JPG,AFNE01.JPG,AFNE01.JPG,AFNE01.JPG,AFNE01.JPG,,,,,,,,,0,7,7,4,,,,,,,,,,,,,,,AMNE15.jpg,AMSA05.jpg,AMNE14.jpg,AMSA19.jpg,AMNE15.jpg,MN,1,num_8,32,num_2,0.350183703471,,,2017_Nov_06_1502,60.0201555785,MAFE4ImagesEEG,001,102348,
AFNE01.JPG,AFNE01.JPG,AFNE01.JPG,AFNE01.JPG,AFNE01.JPG,AFNE01.JPG,,,,,,,,,0,8,8,5,,,,,,,,,,,,,,,AMNE19.jpg,AMSA01.jpg,AMSA07.jpg,AMNE20.jpg,AMNE20.jpg,MN,1,num_4,16,num_4,0.683615824673,,,2017_Nov_06_1502,60.0201555785,MAFE4ImagesEEG,001,102348,
AFNE01.JPG,AFNE01.JPG,AFNE01.JPG,AFNE01.JPG,AFNE01.JPG,AFNE01.JPG,,,,,,,,,0,9,9,2,,,,,,,,,,,,,,,AMSA15.jpg,AMNE08.jpg,AMNE10.jpg,AMSA20.jpg,AMNE10.jpg,MN,1,num_2,32,num_8,0.600192764541,,,2017_Nov_06_1502,60.0201555785,MAFE4ImagesEEG,001,102348,
AFNE01.JPG,AFNE01.JPG,AFNE01.JPG,AFNE01.JPG,AFNE01.JPG,AFNE01.JPG,,,,,,,,,1,0,10,0,,,,,,,,,,,,,,,AMNE20.jpg,AMSA07.jpg,AMSA10.jpg,AMNE16.jpg,AMNE16.jpg,MN,1,num_4,32,num_2,1.01708194404,,,2017_Nov_06_1502,60.0201555785,MAFE4ImagesEEG,001,102348,
AFNE01.JPG,AFNE01.JPG,AFNE01.JPG,AFNE01.JPG,AFNE01.JPG,AFNE01.JPG,,,,,,,,,1,1,11,8,,,,,,,,,,,,,,,AMNE02.jpg,AMNE06.jpg,AMSA06.jpg,AMSA02.jpg,AMNE06.jpg,MN,1,num_6,32,num_4,1.13350011804,,,2017_Nov_06_1502,60.0201555785,MAFE4ImagesEEG,001,102348,
AFNE01.JPG,AFNE01.JPG,AFNE01.JPG,AFNE01.JPG,AFNE01.JPG,AFNE01.JPG,,,,,,,,,1,2,12,2,,,,,,,,,,,,,,,AMNE16.jpg,AMSA16.jpg,AMNE07.jpg,AMSA18.jpg,AMNE16.jpg,MN,1,num_8,16,num_8,0.716780930059,,,2017_Nov_06_1502,60.0201555785,MAFE4ImagesEEG,001,102348,
AFNE01.JPG,AFNE01.JPG,AFNE01.JPG,AFNE01.JPG,AFNE01.JPG,AFNE01.JPG,,,,,,,,,1,3,13,4,,,,,,,,,,,,,,,AMSA06.jpg,AMSA01.jpg,AMNE07.jpg,AMNE09.jpg,AMNE07.jpg,MN,1,num_2,32,num_6,1.00013342779,,,2017_Nov_06_1502,60.0201555785,MAFE4ImagesEEG,001,102348,
AFNE01.JPG,AFNE01.JPG,AFNE01.JPG,AFNE01.JPG,AFNE01.JPG,AFNE01.JPG,,,,,,,,,1,4,14,3,,,,,,,,,,,,,,,AMNE04.jpg,AMSA08.jpg,AMSA14.jpg,AMNE06.jpg,AMSA14.jpg,MS,2,num_2,16,num_2,0.383527460741,,,2017_Nov_06_1502,60.0201555785,MAFE4ImagesEEG,001,102348,
AFNE01.JPG,AFNE01.JPG,AFNE01.JPG,AFNE01.JPG,AFNE01.JPG,AFNE01.JPG,,,,,,,,,1,5,15,1,,,,,,,,,,,,,,,AMNE14.jpg,AMSA15.jpg,AMSA19.jpg,AMNE04.jpg,AMSA15.jpg,MS,2,num_6,16,num_6,0.51680562715,,,2017_Nov_06_1502,60.0201555785,MAFE4ImagesEEG,001,102348,
AFNE01.JPG,AFNE01.JPG,AFNE01.JPG,AFNE01.JPG,AFNE01.JPG,AFNE01.JPG,,,,,,,,,1,6,16,9,,,,,,,,,,,,,,,AMSA18.jpg,AMNE08.jpg,AMSA19.jpg,AMNE16.jpg,AMSA18.jpg,MS,2,num_8,16,num_8,0.933556888951,,,2017_Nov_06_1502,60.0201555785,MAFE4ImagesEEG,001,102348,
AFNE01.JPG,AFNE01.JPG,AFNE01.JPG,AFNE01.JPG,AFNE01.JPG,AFNE01.JPG,,,,,,,,,1,7,17,5,,,,,,,,,,,,,,,AMSA17.jpg,AMNE02.jpg,AMSA16.jpg,AMNE05.jpg,AMSA16.jpg,MS,2,num_2,32,num_4,1.1167494976,,,2017_Nov_06_1502,60.0201555785,MAFE4ImagesEEG,001,102348,
AFNE01.JPG,AFNE01.JPG,AFNE01.JPG,AFNE01.JPG,AFNE01.JPG,AFNE01.JPG,,,,,,,,,1,8,18,7,,,,,,,,,,,,,,,AMSA06.jpg,AMNE11.jpg,AMNE14.jpg,AMSA02.jpg,AMSA02.jpg,MS,2,num_4,32,num_8,0.466808754485,,,2017_Nov_06_1502,60.0201555785,MAFE4ImagesEEG,001,102348,
AFNE01.JPG,AFNE01.JPG,AFNE01.JPG,AFNE01.JPG,AFNE01.JPG,AFNE01.JPG,,,,,,,,,1,9,19,6,,,,,,,,,,,,,,,AMNE16.jpg,AMNE20.jpg,AMSA16.jpg,AMSA18.jpg,AMSA16.jpg,MS,2,num_2,32,num_6,0.433469487354,,,2017_Nov_06_1502,60.0201555785,MAFE4ImagesEEG,001,102348,
AFNE01.JPG,AFNE01.JPG,AFNE01.JPG,AFNE01.JPG,AFNE01.JPG,AFNE01.JPG,,,,,,,,,2,0,20,4,,,,,,,,,,,,,,,AMSA18.jpg,AMNE09.jpg,AMSA08.jpg,AMNE02.jpg,AMSA18.jpg,MS,2,num_8,32,num_4,0.433432281483,,,2017_Nov_06_1502,60.0201555785,MAFE4ImagesEEG,001,102348,
AFNE01.JPG,AFNE01.JPG,AFNE01.JPG,AFNE01.JPG,AFNE01.JPG,AFNE01.JPG,,,,,,,,,2,1,21,7,,,,,,,,,,,,,,,AMSA20.jpg,AMNE03.jpg,AMNE04.jpg,AMSA08.jpg,AMNE04.jpg,MN,1,num_2,16,num_2,0.883459303761,,,2017_Nov_06_1502,60.0201555785,MAFE4ImagesEEG,001,102348,
AFNE01.JPG,AFNE01.JPG,AFNE01.JPG,AFNE01.JPG,AFNE01.JPG,AFNE01.JPG,,,,,,,,,2,2,22,2,,,,,,,,,,,,,,,AMNE14.jpg,AMSA19.jpg,AMSA01.jpg,AMNE08.jpg,AMNE14.jpg,MN,1,num_8,16,num_8,0.766787745757,,,2017_Nov_06_1502,60.0201555785,MAFE4ImagesEEG,001,102348,
AFNE01.JPG,AFNE01.JPG,AFNE01.JPG,AFNE01.JPG,AFNE01.JPG,AFNE01.JPG,,,,,,,,,2,3,23,3,,,,,,,,,,,,,,,AMSA20.jpg,AMSA15.jpg,AMNE07.jpg,AMNE12.jpg,AMNE12.jpg,MN,1,num_4,32,num_2,1.5833982029,,,2017_Nov_06_1502,60.0201555785,MAFE4ImagesEEG,001,102348,
AFNE01.JPG,AFNE01.JPG,AFNE01.JPG,AFNE01.JPG,AFNE01.JPG,AFNE01.JPG,,,,,,,,,2,4,24,9,,,,,,,,,,,,,,,AMNE18.jpg,AMSA12.jpg,AMSA10.jpg,AMNE05.jpg,AMSA10.jpg,MS,2,num_2,16,num_2,0.450171034317,,,2017_Nov_06_1502,60.0201555785,MAFE4ImagesEEG,001,102348,
AFNE01.JPG,AFNE01.JPG,AFNE01.JPG,AFNE01.JPG,AFNE01.JPG,AFNE01.JPG,,,,,,,,,2,5,25,1,,,,,,,,,,,,,,,AMSA10.jpg,AMSA20.jpg,AMNE01.jpg,AMNE08.jpg,AMNE01.jpg,MN,1,num_2,16,num_2,0.749990297481,,,2017_Nov_06_1502,60.0201555785,MAFE4ImagesEEG,001,102348,
AFNE01.JPG,AFNE01.JPG,AFNE01.JPG,AFNE01.JPG,AFNE01.JPG,AFNE01.JPG,,,,,,,,,2,6,26,8,,,,,,,,,,,,,,,AMSA01.jpg,AMSA11.jpg,AMNE17.jpg,AMNE09.jpg,AMSA01.jpg,MS,2,num_8,16,num_8,0.550164459273,,,2017_Nov_06_1502,60.0201555785,MAFE4ImagesEEG,001,102348,
AFNE01.JPG,AFNE01.JPG,AFNE01.JPG,AFNE01.JPG,AFNE01.JPG,AFNE01.JPG,,,,,,,,,2,7,27,5,,,,,,,,,,,,,,,AMSA19.jpg,AMSA17.jpg,AMNE19.jpg,AMNE13.jpg,AMNE19.jpg,MN,1,num_2,32,num_6,0.833456978435,,,2017_Nov_06_1502,60.0201555785,MAFE4ImagesEEG,001,102348,
AFNE01.JPG,AFNE01.JPG,AFNE01.JPG,AFNE01.JPG,AFNE01.JPG,AFNE01.JPG,,,,,,,,,2,8,28,6,,,,,,,,,,,,,,,AMSA10.jpg,AMNE13.jpg,AMSA13.jpg,AMNE07.jpg,AMSA10.jpg,MS,2,num_8,16,num_8,0.583496990614,,,2017_Nov_06_1502,60.0201555785,MAFE4ImagesEEG,001,102348,
AFNE01.JPG,AFNE01.JPG,AFNE01.JPG,AFNE01.JPG,AFNE01.JPG,AFNE01.JPG,,,,,,,,,2,9,29,0,,,,,,,,,,,,,,,AMSA14.jpg,AMNE15.jpg,AMNE09.jpg,AMSA10.jpg,AMNE15.jpg,MN,1,num_6,32,num_2,0.733482156647,,,2017_Nov_06_1502,60.0201555785,MAFE4ImagesEEG,001,102348,
AFNE01.JPG,AFNE01.JPG,AFNE01.JPG,AFNE01.JPG,AFNE01.JPG,AFNE01.JPG,,,,,,,,,3,0,30,1,,,,,,,,,,,,,,,AMSA16.jpg,AMSA09.jpg,AMNE11.jpg,AMNE06.jpg,AMSA09.jpg,MS,2,num_6,16,num_6,0.69985839352,,,2017_Nov_06_1502,60.0201555785,MAFE4ImagesEEG,001,102348,
AFNE01.JPG,AFNE01.JPG,AFNE01.JPG,AFNE01.JPG,AFNE01.JPG,AFNE01.JPG,,,,,,,,,3,1,31,4,,,,,,,,,,,,,,,AMSA16.jpg,AMSA04.jpg,AMNE17.jpg,AMNE12.jpg,AMNE12.jpg,MN,1,num_4,32,num_8,0.283520885743,,,2017_Nov_06_1502,60.0201555785,MAFE4ImagesEEG,001,102348,
AFNE01.JPG,AFNE01.JPG,AFNE01.JPG,AFNE01.JPG,AFNE01.JPG,AFNE01.JPG,,,,,,,,,3,2,32,2,,,,,,,,,,,,,,,AMNE13.jpg,AMSA16.jpg,AMNE10.jpg,AMSA15.jpg,AMSA16.jpg,MS,2,num_6,32,num_2,0.483533394756,,,2017_Nov_06_1502,60.0201555785,MAFE4ImagesEEG,001,102348,
AFNE01.JPG,AFNE01.JPG,AFNE01.JPG,AFNE01.JPG,AFNE01.JPG,AFNE01.JPG,,,,,,,,,3,3,33,6,,,,,,,,,,,,,,,AMSA07.jpg,AMNE14.jpg,AMSA20.jpg,AMNE02.jpg,AMNE02.jpg,MN,1,num_4,32,num_8,0.800458978163,,,2017_Nov_06_1502,60.0201555785,MAFE4ImagesEEG,001,102348,
AFNE01.JPG,AFNE01.JPG,AFNE01.JPG,AFNE01.JPG,AFNE01.JPG,AFNE01.JPG,,,,,,,,,3,4,34,7,,,,,,,,,,,,,,,AMNE17.jpg,AMSA04.jpg,AMNE20.jpg,AMSA20.jpg,AMSA04.jpg,MS,2,num_6,16,num_6,0.566762086703,,,2017_Nov_06_1502,60.0201555785,MAFE4ImagesEEG,001,102348,
AFNE01.JPG,AFNE01.JPG,AFNE01.JPG,AFNE01.JPG,AFNE01.JPG,AFNE01.JPG,,,,,,,,,3,5,35,3,,,,,,,,,,,,,,,AMSA20.jpg,AMNE10.jpg,AMNE07.jpg,AMSA12.jpg,AMSA20.jpg,MS,2,num_8,32,num_4,1.38342065457,,,2017_Nov_06_1502,60.0201555785,MAFE4ImagesEEG,001,102348,
AFNE01.JPG,AFNE01.JPG,AFNE01.JPG,AFNE01.JPG,AFNE01.JPG,AFNE01.JPG,,,,,,,,,3,6,36,9,,,,,,,,,,,,,,,AMNE16.jpg,AMSA20.jpg,AMNE12.jpg,AMSA17.jpg,AMSA20.jpg,MS,2,num_6,32,num_2,0.31689767912,,,2017_Nov_06_1502,60.0201555785,MAFE4ImagesEEG,001,102348,
AFNE01.JPG,AFNE01.JPG,AFNE01.JPG,AFNE01.JPG,AFNE01.JPG,AFNE01.JPG,,,,,,,,,3,7,37,8,,,,,,,,,,,,,,,AMNE06.jpg,AMSA18.jpg,AMSA17.jpg,AMNE08.jpg,AMNE06.jpg,MN,1,num_8,32,num_6,0.533485684544,,,2017_Nov_06_1502,60.0201555785,MAFE4ImagesEEG,001,102348,
AFNE01.JPG,AFNE01.JPG,AFNE01.JPG,AFNE01.JPG,AFNE01.JPG,AFNE01.JPG,,,,,,,,,3,8,38,5,,,,,,,,,,,,,,,AMSA11.jpg,AMNE20.jpg,AMSA14.jpg,AMNE13.jpg,AMSA11.jpg,MS,2,num_8,16,num_8,0.700127173215,,,2017_Nov_06_1502,60.0201555785,MAFE4ImagesEEG,001,102348,
AFNE01.JPG,AFNE01.JPG,AFNE01.JPG,AFNE01.JPG,AFNE01.JPG,AFNE01.JPG,,,,,,,,,3,9,39,0,,,,,,,,,,,,,,,AMSA05.jpg,AMSA01.jpg,AMNE07.jpg,AMNE04.jpg,AMNE07.jpg,MN,1,num_2,32,num_4,0.583464275114,,,2017_Nov_06_1502,60.0201555785,MAFE4ImagesEEG,001,102348,
AFNE01.JPG,AFNE01.JPG,AFNE01.JPG,AFNE01.JPG,AFNE01.JPG,AFNE01.JPG,,,,,,,,,4,0,40,6,,,,,,,,,,,,,,,AMNE10.jpg,AMSA15.jpg,AMNE03.jpg,AMSA01.jpg,AMNE03.jpg,MN,1,num_2,16,num_2,0.483479830902,,,2017_Nov_06_1502,60.0201555785,MAFE4ImagesEEG,001,102348,
AFNE01.JPG,AFNE01.JPG,AFNE01.JPG,AFNE01.JPG,AFNE01.JPG,AFNE01.JPG,,,,,,,,,4,1,41,8,,,,,,,,,,,,,,,AMSA14.jpg,AMNE15.jpg,AMSA12.jpg,AMNE06.jpg,AMSA12.jpg,MS,2,num_2,32,num_8,0.433497391641,,,2017_Nov_06_1502,60.0201555785,MAFE4ImagesEEG,001,102348,
AFNE01.JPG,AFNE01.JPG,AFNE01.JPG,AFNE01.JPG,AFNE01.JPG,AFNE01.JPG,,,,,,,,,4,2,42,7,,,,,,,,,,,,,,,AMNE19.jpg,AMNE09.jpg,AMSA17.jpg,AMSA13.jpg,AMSA13.jpg,MS,2,num_4,32,num_2,0.300149624934,,,2017_Nov_06_1502,60.0201555785,MAFE4ImagesEEG,001,102348,
AFNE01.JPG,AFNE01.JPG,AFNE01.JPG,AFNE01.JPG,AFNE01.JPG,AFNE01.JPG,,,,,,,,,4,3,43,5,,,,,,,,,,,,,,,AMNE07.jpg,AMSA04.jpg,AMNE09.jpg,AMSA01.jpg,AMSA01.jpg,MS,2,num_4,32,num_8,0.500165661797,,,2017_Nov_06_1502,60.0201555785,MAFE4ImagesEEG,001,102348,
AFNE01.JPG,AFNE01.JPG,AFNE01.JPG,AFNE01.JPG,AFNE01.JPG,AFNE01.JPG,,,,,,,,,4,4,44,3,,,,,,,,,,,,,,,AMSA07.jpg,AMNE16.jpg,AMSA18.jpg,AMNE03.jpg,AMNE03.jpg,MN,1,num_4,32,num_6,0.483480793191,,,2017_Nov_06_1502,60.0201555785,MAFE4ImagesEEG,001,102348,
AFNE01.JPG,AFNE01.JPG,AFNE01.JPG,AFNE01.JPG,AFNE01.JPG,AFNE01.JPG,,,,,,,,,4,5,45,4,,,,,,,,,,,,,,,AMSA11.jpg,AMSA03.jpg,AMNE08.jpg,AMNE06.jpg,AMSA03.jpg,MS,2,num_6,32,num_2,0.333503966685,,,2017_Nov_06_1502,60.0201555785,MAFE4ImagesEEG,001,102348,
AFNE01.JPG,AFNE01.JPG,AFNE01.JPG,AFNE01.JPG,AFNE01.JPG,AFNE01.JPG,,,,,,,,,4,6,46,1,,,,,,,,,,,,,,,AMNE08.jpg,AMSA20.jpg,AMNE13.jpg,AMSA02.jpg,AMNE13.jpg,MN,1,num_2,32,num_8,0.283480151789,,,2017_Nov_06_1502,60.0201555785,MAFE4ImagesEEG,001,102348,
AFNE01.JPG,AFNE01.JPG,AFNE01.JPG,AFNE01.JPG,AFNE01.JPG,AFNE01.JPG,,,,,,,,,4,7,47,2,,,,,,,,,,,,,,,AMSA15.jpg,AMNE10.jpg,AMNE02.jpg,AMSA06.jpg,AMSA06.jpg,MS,2,num_4,32,num_6,0.400153313531,,,2017_Nov_06_1502,60.0201555785,MAFE4ImagesEEG,001,102348,
AFNE01.JPG,AFNE01.JPG,AFNE01.JPG,AFNE01.JPG,AFNE01.JPG,AFNE01.JPG,,,,,,,,,4,8,48,9,,,,,,,,,,,,,,,AMNE10.jpg,AMNE20.jpg,AMSA02.jpg,AMSA17.jpg,AMNE10.jpg,MN,1,num_8,32,num_2,0.366800896125,,,2017_Nov_06_1502,60.0201555785,MAFE4ImagesEEG,001,102348,
AFNE01.JPG,AFNE01.JPG,AFNE01.JPG,AFNE01.JPG,AFNE01.JPG,AFNE01.JPG,,,,,,,,,4,9,49,0,,,,,,,,,,,,,,,AMSA02.jpg,AMNE03.jpg,AMSA15.jpg,AMNE14.jpg,AMSA15.jpg,MS,2,num_2,32,num_8,0.383540611248,,,2017_Nov_06_1502,60.0201555785,MAFE4ImagesEEG,001,102348,
AFNE01.JPG,AFNE01.JPG,AFNE01.JPG,AFNE01.JPG,AFNE01.JPG,AFNE01.JPG,,,,,,,,,5,0,50,5,,,,,,,,,,,,,,,AMNE19.jpg,AMSA19.jpg,AMSA13.jpg,AMNE03.jpg,AMSA13.jpg,MS,2,num_2,32,num_6,0.350193967111,,,2017_Nov_06_1502,60.0201555785,MAFE4ImagesEEG,001,102348,
AFNE01.JPG,AFNE01.JPG,AFNE01.JPG,AFNE01.JPG,AFNE01.JPG,AFNE01.JPG,,,,,,,,,5,1,51,6,,,,,,,,,,,,,,,AMNE02.jpg,AMSA06.jpg,AMNE16.jpg,AMSA05.jpg,AMSA05.jpg,MS,2,num_4,16,num_4,0.600183142116,,,2017_Nov_06_1502,60.0201555785,MAFE4ImagesEEG,001,102348,
AFNE01.JPG,AFNE01.JPG,AFNE01.JPG,AFNE01.JPG,AFNE01.JPG,AFNE01.JPG,,,,,,,,,5,2,52,0,,,,,,,,,,,,,,,AMNE04.jpg,AMSA20.jpg,AMNE02.jpg,AMSA17.jpg,AMNE02.jpg,MN,1,num_2,16,num_2,0.500183623284,,,2017_Nov_06_1502,60.0201555785,MAFE4ImagesEEG,001,102348,
AFNE01.JPG,AFNE01.JPG,AFNE01.JPG,AFNE01.JPG,AFNE01.JPG,AFNE01.JPG,,,,,,,,,5,3,53,4,,,,,,,,,,,,,,,AMNE20.jpg,AMSA05.jpg,AMSA16.jpg,AMNE18.jpg,AMSA05.jpg,MS,2,num_6,16,num_6,0.400262044277,,,2017_Nov_06_1502,60.0201555785,MAFE4ImagesEEG,001,102348,
AFNE01.JPG,AFNE01.JPG,AFNE01.JPG,AFNE01.JPG,AFNE01.JPG,AFNE01.JPG,,,,,,,,,5,4,54,8,,,,,,,,,,,,,,,AMSA16.jpg,AMNE01.jpg,AMSA14.jpg,AMNE06.jpg,AMNE06.jpg,MN,1,num_4,16,num_4,0.433502202621,,,2017_Nov_06_1502,60.0201555785,MAFE4ImagesEEG,001,102348,
AFNE01.JPG,AFNE01.JPG,AFNE01.JPG,AFNE01.JPG,AFNE01.JPG,AFNE01.JPG,,,,,,,,,5,5,55,7,,,,,,,,,,,,,,,AMSA03.jpg,AMNE09.jpg,AMNE03.jpg,AMSA20.jpg,AMSA20.jpg,MS,2,num_4,32,num_8,0.300170793897,,,2017_Nov_06_1502,60.0201555785,MAFE4ImagesEEG,001,102348,
AFNE01.JPG,AFNE01.JPG,AFNE01.JPG,AFNE01.JPG,AFNE01.JPG,AFNE01.JPG,,,,,,,,,5,6,56,9,,,,,,,,,,,,,,,AMNE13.jpg,AMSA08.jpg,AMSA17.jpg,AMNE01.jpg,AMNE13.jpg,MN,1,num_8,32,num_2,0.41680546687,,,2017_Nov_06_1502,60.0201555785,MAFE4ImagesEEG,001,102348,
AFNE01.JPG,AFNE01.JPG,AFNE01.JPG,AFNE01.JPG,AFNE01.JPG,AFNE01.JPG,,,,,,,,,5,7,57,2,,,,,,,,,,,,,,,AMSA04.jpg,AMSA09.jpg,AMNE04.jpg,AMNE20.jpg,AMSA04.jpg,MS,2,num_8,16,num_8,0.350153874839,,,2017_Nov_06_1502,60.0201555785,MAFE4ImagesEEG,001,102348,
AFNE01.JPG,AFNE01.JPG,AFNE01.JPG,AFNE01.JPG,AFNE01.JPG,AFNE01.JPG,,,,,,,,,5,8,58,1,,,,,,,,,,,,,,,AMNE18.jpg,AMSA15.jpg,AMSA13.jpg,AMNE07.jpg,AMSA13.jpg,MS,2,num_2,16,num_2,2.01667685015,,,2017_Nov_06_1502,60.0201555785,MAFE4ImagesEEG,001,102348,
AFNE01.JPG,AFNE01.JPG,AFNE01.JPG,AFNE01.JPG,AFNE01.JPG,AFNE01.JPG,,,,,,,,,5,9,59,3,,,,,,,,,,,,,,,AMNE15.jpg,AMSA16.jpg,AMSA01.jpg,AMNE11.jpg,AMSA16.jpg,MS,2,num_6,16,num_6,0.333562982967,,,2017_Nov_06_1502,60.0201555785,MAFE4ImagesEEG,001,102348,
,,,,,,,,,,,,,,,,,,,,,,,,,,,,,,,,,,,,,,,,,,,space,43.9798059205,2017_Nov_06_1502,60.0201555785,MAFE4ImagesEEG,001,102348,
AFNE01.JPG,AFNE01.JPG,AFNE01.JPG,AFNE01.JPG,AFNE01.JPG,AFNE01.JPG,,,,,,,,,,,,,0,0,0,7,,,,,,,,,,,AFNE20.jpg,AFSA20.jpg,AFSA06.jpg,AFNE02.jpg,AFSA20.jpg,FS,4,num_6,32,num_8,0.433548068395,,,2017_Nov_06_1502,60.0201555785,MAFE4ImagesEEG,001,102348,
AFNE01.JPG,AFNE01.JPG,AFNE01.JPG,AFNE01.JPG,AFNE01.JPG,AFNE01.JPG,,,,,,,,,,,,,0,1,1,6,,,,,,,,,,,AFNE13.jpg,AFSA07.jpg,AFSA11.jpg,AFNE07.jpg,AFSA07.jpg,FS,4,num_6,32,num_2,0.383556968998,,,2017_Nov_06_1502,60.0201555785,MAFE4ImagesEEG,001,102348,
AFNE01.JPG,AFNE01.JPG,AFNE01.JPG,AFNE01.JPG,AFNE01.JPG,AFNE01.JPG,,,,,,,,,,,,,0,2,2,8,,,,,,,,,,,AFSA08.jpg,AFNE02.jpg,AFNE03.jpg,AFSA17.jpg,AFNE03.jpg,FN,3,num_2,32,num_6,0.416793599259,,,2017_Nov_06_1502,60.0201555785,MAFE4ImagesEEG,001,102348,
AFNE01.JPG,AFNE01.JPG,AFNE01.JPG,AFNE01.JPG,AFNE01.JPG,AFNE01.JPG,,,,,,,,,,,,,0,3,3,4,,,,,,,,,,,AFSA09.jpg,AFNE10.jpg,AFNE07.jpg,AFSA06.jpg,AFSA09.jpg,FS,4,num_8,32,num_4,0.700111136306,,,2017_Nov_06_1502,60.0201555785,MAFE4ImagesEEG,001,102348,
AFNE01.JPG,AFNE01.JPG,AFNE01.JPG,AFNE01.JPG,AFNE01.JPG,AFNE01.JPG,,,,,,,,,,,,,0,4,4,1,,,,,,,,,,,AFSA16.jpg,AFSA12.jpg,AFNE17.jpg,AFNE01.jpg,AFSA12.jpg,FS,4,num_6,32,num_2,0.766899683746,,,2017_Nov_06_1502,60.0201555785,MAFE4ImagesEEG,001,102348,
AFNE01.JPG,AFNE01.JPG,AFNE01.JPG,AFNE01.JPG,AFNE01.JPG,AFNE01.JPG,,,,,,,,,,,,,0,5,5,5,,,,,,,,,,,AFSA12.jpg,AFNE15.jpg,AFNE19.jpg,AFSA05.jpg,AFNE15.jpg,FN,3,num_6,16,num_6,0.650192844681,,,2017_Nov_06_1502,60.0201555785,MAFE4ImagesEEG,001,102348,
AFNE01.JPG,AFNE01.JPG,AFNE01.JPG,AFNE01.JPG,AFNE01.JPG,AFNE01.JPG,,,,,,,,,,,,,0,6,6,2,,,,,,,,,,,AFSA02.jpg,AFNE12.jpg,AFSA09.jpg,AFNE19.jpg,AFSA09.jpg,FS,4,num_2,32,num_8,0.583548629656,,,2017_Nov_06_1502,60.0201555785,MAFE4ImagesEEG,001,102348,
AFNE01.JPG,AFNE01.JPG,AFNE01.JPG,AFNE01.JPG,AFNE01.JPG,AFNE01.JPG,,,,,,,,,,,,,0,7,7,0,,,,,,,,,,,AFNE19.jpg,AFSA11.jpg,AFSA14.jpg,AFNE11.jpg,AFNE11.jpg,FN,3,num_4,32,num_6,0.600080184871,,,2017_Nov_06_1502,60.0201555785,MAFE4ImagesEEG,001,102348,
AFNE01.JPG,AFNE01.JPG,AFNE01.JPG,AFNE01.JPG,AFNE01.JPG,AFNE01.JPG,,,,,,,,,,,,,0,8,8,9,,,,,,,,,,,AFSA19.jpg,AFSA12.jpg,AFNE03.jpg,AFNE12.jpg,AFNE03.jpg,FN,3,num_2,32,num_4,0.533496589633,,,2017_Nov_06_1502,60.0201555785,MAFE4ImagesEEG,001,102348,
AFNE01.JPG,AFNE01.JPG,AFNE01.JPG,AFNE01.JPG,AFNE01.JPG,AFNE01.JPG,,,,,,,,,,,,,0,9,9,3,,,,,,,,,,,AFSA13.jpg,AFSA18.jpg,AFNE12.jpg,AFNE03.jpg,AFSA13.jpg,FS,4,num_8,32,num_6,0.600161331939,,,2017_Nov_06_1502,60.0201555785,MAFE4ImagesEEG,001,102348,
AFNE01.JPG,AFNE01.JPG,AFNE01.JPG,AFNE01.JPG,AFNE01.JPG,AFNE01.JPG,,,,,,,,,,,,,1,0,10,6,,,,,,,,,,,AFNE11.jpg,AFSA20.jpg,AFSA01.jpg,AFNE15.jpg,AFSA01.jpg,FS,4,num_2,32,num_8,0.700139361434,,,2017_Nov_06_1502,60.0201555785,MAFE4ImagesEEG,001,102348,
AFNE01.JPG,AFNE01.JPG,AFNE01.JPG,AFNE01.JPG,AFNE01.JPG,AFNE01.JPG,,,,,,,,,,,,,1,1,11,7,,,,,,,,,,,AFSA17.jpg,AFSA11.jpg,AFNE01.jpg,AFNE05.jpg,AFSA17.jpg,FS,4,num_8,32,num_6,0.666808754206,,,2017_Nov_06_1502,60.0201555785,MAFE4ImagesEEG,001,102348,
AFNE01.JPG,AFNE01.JPG,AFNE01.JPG,AFNE01.JPG,AFNE01.JPG,AFNE01.JPG,,,,,,,,,,,,,1,2,12,5,,,,,,,,,,,AFSA06.jpg,AFNE17.jpg,AFNE20.jpg,AFSA14.jpg,AFSA06.jpg,FS,4,num_8,32,num_2,0.283522489481,,,2017_Nov_06_1502,60.0201555785,MAFE4ImagesEEG,001,102348,
AFNE01.JPG,AFNE01.JPG,AFNE01.JPG,AFNE01.JPG,AFNE01.JPG,AFNE01.JPG,,,,,,,,,,,,,1,3,13,0,,,,,,,,,,,AFSA10.jpg,AFNE17.jpg,AFSA09.jpg,AFNE19.jpg,AFSA10.jpg,FS,4,num_8,32,num_4,0.483521206537,,,2017_Nov_06_1502,60.0201555785,MAFE4ImagesEEG,001,102348,
AFNE01.JPG,AFNE01.JPG,AFNE01.JPG,AFNE01.JPG,AFNE01.JPG,AFNE01.JPG,,,,,,,,,,,,,1,4,14,2,,,,,,,,,,,AFNE05.jpg,AFSA12.jpg,AFSA07.jpg,AFNE17.jpg,AFSA07.jpg,FS,4,num_2,32,num_6,0.766781651648,,,2017_Nov_06_1502,60.0201555785,MAFE4ImagesEEG,001,102348,
AFNE01.JPG,AFNE01.JPG,AFNE01.JPG,AFNE01.JPG,AFNE01.JPG,AFNE01.JPG,,,,,,,,,,,,,1,5,15,9,,,,,,,,,,,AFSA04.jpg,AFNE18.jpg,AFSA07.jpg,AFNE08.jpg,AFSA04.jpg,FS,4,num_8,16,num_8,0.800137276528,,,2017_Nov_06_1502,60.0201555785,MAFE4ImagesEEG,001,102348,
AFNE01.JPG,AFNE01.JPG,AFNE01.JPG,AFNE01.JPG,AFNE01.JPG,AFNE01.JPG,,,,,,,,,,,,,1,6,16,3,,,,,,,,,,,AFNE17.jpg,AFSA14.jpg,AFSA19.jpg,AFNE04.jpg,AFNE04.jpg,FN,3,num_4,32,num_2,0.366765935672,,,2017_Nov_06_1502,60.0201555785,MAFE4ImagesEEG,001,102348,
AFNE01.JPG,AFNE01.JPG,AFNE01.JPG,AFNE01.JPG,AFNE01.JPG,AFNE01.JPG,,,,,,,,,,,,,1,7,17,4,,,,,,,,,,,AFNE13.jpg,AFNE06.jpg,AFSA06.jpg,AFSA13.jpg,AFNE06.jpg,FN,3,num_6,16,num_6,0.483744441299,,,2017_Nov_06_1502,60.0201555785,MAFE4ImagesEEG,001,102348,
AFNE01.JPG,AFNE01.JPG,AFNE01.JPG,AFNE01.JPG,AFNE01.JPG,AFNE01.JPG,,,,,,,,,,,,,1,8,18,1,,,,,,,,,,,AFNE16.jpg,AFSA16.jpg,AFNE07.jpg,AFSA04.jpg,AFSA16.jpg,FS,4,num_6,32,num_8,0.516766817542,,,2017_Nov_06_1502,60.0201555785,MAFE4ImagesEEG,001,102348,
AFNE01.JPG,AFNE01.JPG,AFNE01.JPG,AFNE01.JPG,AFNE01.JPG,AFNE01.JPG,,,,,,,,,,,,,1,9,19,8,,,,,,,,,,,AFSA13.jpg,AFSA12.jpg,AFNE10.jpg,AFNE16.jpg,AFNE10.jpg,FN,3,num_2,32,num_8,2.26663074386,,,2017_Nov_06_1502,60.0201555785,MAFE4ImagesEEG,001,102348,
AFNE01.JPG,AFNE01.JPG,AFNE01.JPG,AFNE01.JPG,AFNE01.JPG,AFNE01.JPG,,,,,,,,,,,,,2,0,20,5,,,,,,,,,,,AFNE14.jpg,AFSA17.jpg,AFNE07.jpg,AFSA05.jpg,AFSA17.jpg,FS,4,num_6,32,num_2,0.383461709134,,,2017_Nov_06_1502,60.0201555785,MAFE4ImagesEEG,001,102348,
AFNE01.JPG,AFNE01.JPG,AFNE01.JPG,AFNE01.JPG,AFNE01.JPG,AFNE01.JPG,,,,,,,,,,,,,2,1,21,8,,,,,,,,,,,AFNE10.jpg,AFSA14.jpg,AFSA05.jpg,AFNE15.jpg,AFSA14.jpg,FS,4,num_6,16,num_6,0.650146658299,,,2017_Nov_06_1502,60.0201555785,MAFE4ImagesEEG,001,102348,
AFNE01.JPG,AFNE01.JPG,AFNE01.JPG,AFNE01.JPG,AFNE01.JPG,AFNE01.JPG,,,,,,,,,,,,,2,2,22,9,,,,,,,,,,,AFSA18.jpg,AFSA09.jpg,AFNE06.jpg,AFNE09.jpg,AFSA18.jpg,FS,4,num_8,32,num_4,0.700123003684,,,2017_Nov_06_1502,60.0201555785,MAFE4ImagesEEG,001,102348,
AFNE01.JPG,AFNE01.JPG,AFNE01.JPG,AFNE01.JPG,AFNE01.JPG,AFNE01.JPG,,,,,,,,,,,,,2,3,23,7,,,,,,,,,,,AFNE16.jpg,AFSA14.jpg,AFSA10.jpg,AFNE19.jpg,AFNE19.jpg,FN,3,num_4,32,num_8,0.94997843029,,,2017_Nov_06_1502,60.0201555785,MAFE4ImagesEEG,001,102348,
AFNE01.JPG,AFNE01.JPG,AFNE01.JPG,AFNE01.JPG,AFNE01.JPG,AFNE01.JPG,,,,,,,,,,,,,2,4,24,3,,,,,,,,,,,AFNE14.jpg,AFNE01.jpg,AFSA20.jpg,AFSA14.jpg,AFSA14.jpg,FS,4,num_4,32,num_2,0.300163737498,,,2017_Nov_06_1502,60.0201555785,MAFE4ImagesEEG,001,102348,
AFNE01.JPG,AFNE01.JPG,AFNE01.JPG,AFNE01.JPG,AFNE01.JPG,AFNE01.JPG,,,,,,,,,,,,,2,5,25,1,,,,,,,,,,,AFNE02.jpg,AFSA20.jpg,AFSA14.jpg,AFNE09.jpg,AFNE09.jpg,FN,3,num_4,32,num_8,0.700182660948,,,2017_Nov_06_1502,60.0201555785,MAFE4ImagesEEG,001,102348,
AFNE01.JPG,AFNE01.JPG,AFNE01.JPG,AFNE01.JPG,AFNE01.JPG,AFNE01.JPG,,,,,,,,,,,,,2,6,26,4,,,,,,,,,,,AFNE10.jpg,AFSA03.jpg,AFSA10.jpg,AFNE01.jpg,AFNE01.jpg,FN,3,num_4,32,num_6,0.666770265438,,,2017_Nov_06_1502,60.0201555785,MAFE4ImagesEEG,001,102348,
AFNE01.JPG,AFNE01.JPG,AFNE01.JPG,AFNE01.JPG,AFNE01.JPG,AFNE01.JPG,,,,,,,,,,,,,2,7,27,0,,,,,,,,,,,AFSA14.jpg,AFNE03.jpg,AFNE18.jpg,AFSA19.jpg,AFSA14.jpg,FS,4,num_8,32,num_2,0.883472774876,,,2017_Nov_06_1502,60.0201555785,MAFE4ImagesEEG,001,102348,
AFNE01.JPG,AFNE01.JPG,AFNE01.JPG,AFNE01.JPG,AFNE01.JPG,AFNE01.JPG,,,,,,,,,,,,,2,8,28,2,,,,,,,,,,,AFSA05.jpg,AFSA20.jpg,AFNE10.jpg,AFNE07.jpg,AFSA05.jpg,FS,4,num_8,16,num_8,0.95013655466,,,2017_Nov_06_1502,60.0201555785,MAFE4ImagesEEG,001,102348,
AFNE01.JPG,AFNE01.JPG,AFNE01.JPG,AFNE01.JPG,AFNE01.JPG,AFNE01.JPG,,,,,,,,,,,,,2,9,29,6,,,,,,,,,,,AFNE12.jpg,AFSA14.jpg,AFSA08.jpg,AFNE01.jpg,AFSA08.jpg,FS,4,num_2,16,num_2,0.900082590291,,,2017_Nov_06_1502,60.0201555785,MAFE4ImagesEEG,001,102348,
AFNE01.JPG,AFNE01.JPG,AFNE01.JPG,AFNE01.JPG,AFNE01.JPG,AFNE01.JPG,,,,,,,,,,,,,3,0,30,0,,,,,,,,,,,AFSA19.jpg,AFSA07.jpg,AFNE07.jpg,AFNE11.jpg,AFNE11.jpg,FN,3,num_4,16,num_4,0.666777321836,,,2017_Nov_06_1502,60.0201555785,MAFE4ImagesEEG,001,102348,
AFNE01.JPG,AFNE01.JPG,AFNE01.JPG,AFNE01.JPG,AFNE01.JPG,AFNE01.JPG,,,,,,,,,,,,,3,1,31,5,,,,,,,,,,,AFSA14.jpg,AFSA15.jpg,AFNE11.jpg,AFNE15.jpg,AFSA15.jpg,FS,4,num_6,16,num_6,0.700174642494,,,2017_Nov_06_1502,60.0201555785,MAFE4ImagesEEG,001,102348,
AFNE01.JPG,AFNE01.JPG,AFNE01.JPG,AFNE01.JPG,AFNE01.JPG,AFNE01.JPG,,,,,,,,,,,,,3,2,32,8,,,,,,,,,,,AFSA16.jpg,AFSA05.jpg,AFNE14.jpg,AFNE06.jpg,AFNE14.jpg,FN,3,num_2,16,num_2,0.549884774256,,,2017_Nov_06_1502,60.0201555785,MAFE4ImagesEEG,001,102348,
AFNE01.JPG,AFNE01.JPG,AFNE01.JPG,AFNE01.JPG,AFNE01.JPG,AFNE01.JPG,,,,,,,,,,,,,3,3,33,3,,,,,,,,,,,AFNE20.jpg,AFSA03.jpg,AFSA09.jpg,AFNE03.jpg,AFNE20.jpg,FN,3,num_8,32,num_4,0.350180175388,,,2017_Nov_06_1502,60.0201555785,MAFE4ImagesEEG,001,102348,
AFNE01.JPG,AFNE01.JPG,AFNE01.JPG,AFNE01.JPG,AFNE01.JPG,AFNE01.JPG,,,,,,,,,,,,,3,4,34,9,,,,,,,,,,,AFNE19.jpg,AFSA08.jpg,AFSA11.jpg,AFNE06.jpg,AFSA11.jpg,FS,4,num_2,32,num_6,0.716762968805,,,2017_Nov_06_1502,60.0201555785,MAFE4ImagesEEG,001,102348,
AFNE01.JPG,AFNE01.JPG,AFNE01.JPG,AFNE01.JPG,AFNE01.JPG,AFNE01.JPG,,,,,,,,,,,,,3,5,35,2,,,,,,,,,,,AFNE01.jpg,AFSA17.jpg,AFSA19.jpg,AFNE05.jpg,AFSA19.jpg,FS,4,num_2,16,num_2,0.383479350014,,,2017_Nov_06_1502,60.0201555785,MAFE4ImagesEEG,001,102348,
AFNE01.JPG,AFNE01.JPG,AFNE01.JPG,AFNE01.JPG,AFNE01.JPG,AFNE01.JPG,,,,,,,,,,,,,3,6,36,7,,,,,,,,,,,AFSA13.jpg,AFNE12.jpg,AFNE08.jpg,AFSA11.jpg,AFNE12.jpg,FN,3,num_6,16,num_6,0.733437252929,,,2017_Nov_06_1502,60.0201555785,MAFE4ImagesEEG,001,102348,
AFNE01.JPG,AFNE01.JPG,AFNE01.JPG,AFNE01.JPG,AFNE01.JPG,AFNE01.JPG,,,,,,,,,,,,,3,7,37,1,,,,,,,,,,,AFSA01.jpg,AFNE01.jpg,AFNE14.jpg,AFSA03.jpg,AFSA03.jpg,FS,4,num_4,32,num_8,0.53348825057,,,2017_Nov_06_1502,60.0201555785,MAFE4ImagesEEG,001,102348,
AFNE01.JPG,AFNE01.JPG,AFNE01.JPG,AFNE01.JPG,AFNE01.JPG,AFNE01.JPG,,,,,,,,,,,,,3,8,38,4,,,,,,,,,,,AFNE01.jpg,AFNE14.jpg,AFSA06.jpg,AFSA12.jpg,AFSA12.jpg,FS,4,num_4,32,num_2,0.450194448233,,,2017_Nov_06_1502,60.0201555785,MAFE4ImagesEEG,001,102348,
AFNE01.JPG,AFNE01.JPG,AFNE01.JPG,AFNE01.JPG,AFNE01.JPG,AFNE01.JPG,,,,,,,,,,,,,3,9,39,6,,,,,,,,,,,AFSA13.jpg,AFSA17.jpg,AFNE14.jpg,AFNE19.jpg,AFNE19.jpg,FN,3,num_4,16,num_4,0.600183462957,,,2017_Nov_06_1502,60.0201555785,MAFE4ImagesEEG,001,102348,
AFNE01.JPG,AFNE01.JPG,AFNE01.JPG,AFNE01.JPG,AFNE01.JPG,AFNE01.JPG,,,,,,,,,,,,,4,0,40,1,,,,,,,,,,,AFSA04.jpg,AFNE13.jpg,AFSA01.jpg,AFNE09.jpg,AFNE09.jpg,FN,3,num_4,32,num_6,0.483500999864,,,2017_Nov_06_1502,60.0201555785,MAFE4ImagesEEG,001,102348,
AFNE01.JPG,AFNE01.JPG,AFNE01.JPG,AFNE01.JPG,AFNE01.JPG,AFNE01.JPG,,,,,,,,,,,,,4,1,41,5,,,,,,,,,,,AFSA13.jpg,AFNE16.jpg,AFSA18.jpg,AFNE14.jpg,AFSA13.jpg,FS,4,num_8,16,num_8,0.800152671989,,,2017_Nov_06_1502,60.0201555785,MAFE4ImagesEEG,001,102348,
AFNE01.JPG,AFNE01.JPG,AFNE01.JPG,AFNE01.JPG,AFNE01.JPG,AFNE01.JPG,,,,,,,,,,,,,4,2,42,3,,,,,,,,,,,AFNE15.jpg,AFNE20.jpg,AFSA13.jpg,AFSA04.jpg,AFSA13.jpg,FS,4,num_2,16,num_2,0.516845398815,,,2017_Nov_06_1502,60.0201555785,MAFE4ImagesEEG,001,102348,
AFNE01.JPG,AFNE01.JPG,AFNE01.JPG,AFNE01.JPG,AFNE01.JPG,AFNE01.JPG,,,,,,,,,,,,,4,3,43,9,,,,,,,,,,,AFSA18.jpg,AFSA03.jpg,AFNE18.jpg,AFNE15.jpg,AFSA18.jpg,FS,4,num_8,32,num_6,0.650150186149,,,2017_Nov_06_1502,60.0201555785,MAFE4ImagesEEG,001,102348,
AFNE01.JPG,AFNE01.JPG,AFNE01.JPG,AFNE01.JPG,AFNE01.JPG,AFNE01.JPG,,,,,,,,,,,,,4,4,44,6,,,,,,,,,,,AFNE01.jpg,AFNE16.jpg,AFSA12.jpg,AFSA06.jpg,AFNE16.jpg,FN,3,num_6,32,num_2,0.383477746276,,,2017_Nov_06_1502,60.0201555785,MAFE4ImagesEEG,001,102348,
AFNE01.JPG,AFNE01.JPG,AFNE01.JPG,AFNE01.JPG,AFNE01.JPG,AFNE01.JPG,,,,,,,,,,,,,4,5,45,2,,,,,,,,,,,AFSA17.jpg,AFSA04.jpg,AFNE19.jpg,AFNE05.jpg,AFNE05.jpg,FN,3,num_4,32,num_8,0.433474298334,,,2017_Nov_06_1502,60.0201555785,MAFE4ImagesEEG,001,102348,
AFNE01.JPG,AFNE01.JPG,AFNE01.JPG,AFNE01.JPG,AFNE01.JPG,AFNE01.JPG,,,,,,,,,,,,,4,6,46,8,,,,,,,,,,,AFNE17.jpg,AFSA07.jpg,AFNE19.jpg,AFSA05.jpg,AFNE17.jpg,FN,3,num_8,32,num_2,1.45015307306,,,2017_Nov_06_1502,60.0201555785,MAFE4ImagesEEG,001,102348,
AFNE01.JPG,AFNE01.JPG,AFNE01.JPG,AFNE01.JPG,AFNE01.JPG,AFNE01.JPG,,,,,,,,,,,,,4,7,47,4,,,,,,,,,,,AFNE04.jpg,AFSA06.jpg,AFNE08.jpg,AFSA10.jpg,AFSA10.jpg,FS,4,num_4,32,num_6,0.383461709134,,,2017_Nov_06_1502,60.0201555785,MAFE4ImagesEEG,001,102348,
AFNE01.JPG,AFNE01.JPG,AFNE01.JPG,AFNE01.JPG,AFNE01.JPG,AFNE01.JPG,,,,,,,,,,,,,4,8,48,0,,,,,,,,,,,AFNE07.jpg,AFNE04.jpg,AFSA15.jpg,AFSA05.jpg,AFNE04.jpg,FN,3,num_6,16,num_6,0.833457940491,,,2017_Nov_06_1502,60.0201555785,MAFE4ImagesEEG,001,102348,
AFNE01.JPG,AFNE01.JPG,AFNE01.JPG,AFNE01.JPG,AFNE01.JPG,AFNE01.JPG,,,,,,,,,,,,,4,9,49,7,,,,,,,,,,,AFNE02.jpg,AFSA03.jpg,AFNE16.jpg,AFSA19.jpg,AFSA03.jpg,FS,4,num_6,32,num_2,0.850130941952,,,2017_Nov_06_1502,60.0201555785,MAFE4ImagesEEG,001,102348,
AFNE01.JPG,AFNE01.JPG,AFNE01.JPG,AFNE01.JPG,AFNE01.JPG,AFNE01.JPG,,,,,,,,,,,,,5,0,50,3,,,,,,,,,,,AFNE16.jpg,AFNE20.jpg,AFSA18.jpg,AFSA16.jpg,AFNE16.jpg,FN,3,num_8,32,num_4,0.650139601901,,,2017_Nov_06_1502,60.0201555785,MAFE4ImagesEEG,001,102348,
AFNE01.JPG,AFNE01.JPG,AFNE01.JPG,AFNE01.JPG,AFNE01.JPG,AFNE01.JPG,,,,,,,,,,,,,5,1,51,0,,,,,,,,,,,AFSA07.jpg,AFSA19.jpg,AFNE15.jpg,AFNE20.jpg,AFNE20.jpg,FN,3,num_4,32,num_8,0.616783335572,,,2017_Nov_06_1502,60.0201555785,MAFE4ImagesEEG,001,102348,
AFNE01.JPG,AFNE01.JPG,AFNE01.JPG,AFNE01.JPG,AFNE01.JPG,AFNE01.JPG,,,,,,,,,,,,,5,2,52,4,,,,,,,,,,,AFSA01.jpg,AFNE02.jpg,AFSA15.jpg,AFNE11.jpg,AFNE11.jpg,FN,3,num_4,16,num_4,0.450140243396,,,2017_Nov_06_1502,60.0201555785,MAFE4ImagesEEG,001,102348,
AFNE01.JPG,AFNE01.JPG,AFNE01.JPG,AFNE01.JPG,AFNE01.JPG,AFNE01.JPG,,,,,,,,,,,,,5,3,53,5,,,,,,,,,,,AFNE19.jpg,AFNE06.jpg,AFSA07.jpg,AFSA02.jpg,AFSA07.jpg,FS,4,num_2,32,num_8,0.416812523035,,,2017_Nov_06_1502,60.0201555785,MAFE4ImagesEEG,001,102348,
AFNE01.JPG,AFNE01.JPG,AFNE01.JPG,AFNE01.JPG,AFNE01.JPG,AFNE01.JPG,,,,,,,,,,,,,5,4,54,7,,,,,,,,,,,AFNE09.jpg,AFNE07.jpg,AFSA20.jpg,AFSA18.jpg,AFSA20.jpg,FS,4,num_2,16,num_2,0.666831847513,,,2017_Nov_06_1502,60.0201555785,MAFE4ImagesEEG,001,102348,
AFNE01.JPG,AFNE01.JPG,AFNE01.JPG,AFNE01.JPG,AFNE01.JPG,AFNE01.JPG,,,,,,,,,,,,,5,5,55,8,,,,,,,,,,,AFNE02.jpg,AFSA10.jpg,AFSA13.jpg,AFNE03.jpg,AFSA10.jpg,FS,4,num_6,16,num_6,0.533525456209,,,2017_Nov_06_1502,60.0201555785,MAFE4ImagesEEG,001,102348,
AFNE01.JPG,AFNE01.JPG,AFNE01.JPG,AFNE01.JPG,AFNE01.JPG,AFNE01.JPG,,,,,,,,,,,,,5,6,56,1,,,,,,,,,,,AFNE02.jpg,AFSA09.jpg,AFSA05.jpg,AFNE06.jpg,AFSA09.jpg,FS,4,num_6,32,num_8,0.333506532712,,,2017_Nov_06_1502,60.0201555785,MAFE4ImagesEEG,001,102348,
AFNE01.JPG,AFNE01.JPG,AFNE01.JPG,AFNE01.JPG,AFNE01.JPG,AFNE01.JPG,,,,,,,,,,,,,5,7,57,9,,,,,,,,,,,AFNE01.jpg,AFNE15.jpg,AFSA04.jpg,AFSA14.jpg,AFNE01.jpg,FN,3,num_8,32,num_2,0.483577335952,,,2017_Nov_06_1502,60.0201555785,MAFE4ImagesEEG,001,102348,
AFNE01.JPG,AFNE01.JPG,AFNE01.JPG,AFNE01.JPG,AFNE01.JPG,AFNE01.JPG,,,,,,,,,,,,,5,8,58,6,,,,,,,,,,,AFSA07.jpg,AFSA05.jpg,AFNE16.jpg,AFNE20.jpg,AFNE20.jpg,FN,3,num_4,16,num_4,0.350165741984,,,2017_Nov_06_1502,60.0201555785,MAFE4ImagesEEG,001,102348,
AFNE01.JPG,AFNE01.JPG,AFNE01.JPG,AFNE01.JPG,AFNE01.JPG,AFNE01.JPG,,,,,,,,,,,,,5,9,59,2,,,,,,,,,,,AFSA12.jpg,AFNE18.jpg,AFNE11.jpg,AFSA04.jpg,AFNE18.jpg,FN,3,num_6,16,num_6,0.316817173501,,,2017_Nov_06_1502,60.0201555785,MAFE4ImagesEEG,001,102348,
,,,,,,,,,,,,,,,,,,,,,,,,,,,,,,,,,,,,,,,,,,,space,56.2460883411,2017_Nov_06_1502,60.0201555785,MAFE4ImagesEEG,001,102348,
AFNE01.JPG,AFNE01.JPG,AFNE01.JPG,AFNE01.JPG,AFNE01.JPG,AFNE01.JPG,,,,,,,,,,,,,,,,,0,0,0,5,,,,,,,AMNE01.jpg,AMNE18.jpg,AMSA05.jpg,AMSA06.jpg,AMSA05.jpg,MS,2,num_2,32,num_6,0.466842752649,,,2017_Nov_06_1502,60.0201555785,MAFE4ImagesEEG,001,102348,
AFNE01.JPG,AFNE01.JPG,AFNE01.JPG,AFNE01.JPG,AFNE01.JPG,AFNE01.JPG,,,,,,,,,,,,,,,,,0,1,1,3,,,,,,,AMNE17.jpg,AMSA18.jpg,AMSA08.jpg,AMNE19.jpg,AMSA08.jpg,MS,2,num_2,16,num_2,0.333492740989,,,2017_Nov_06_1502,60.0201555785,MAFE4ImagesEEG,001,102348,
AFNE01.JPG,AFNE01.JPG,AFNE01.JPG,AFNE01.JPG,AFNE01.JPG,AFNE01.JPG,,,,,,,,,,,,,,,,,0,2,2,1,,,,,,,AMNE12.jpg,AMNE11.jpg,AMSA05.jpg,AMSA09.jpg,AMSA09.jpg,MS,2,num_4,16,num_4,0.250257313251,,,2017_Nov_06_1502,60.0201555785,MAFE4ImagesEEG,001,102348,
AFNE01.JPG,AFNE01.JPG,AFNE01.JPG,AFNE01.JPG,AFNE01.JPG,AFNE01.JPG,,,,,,,,,,,,,,,,,0,3,3,4,,,,,,,AMNE16.jpg,AMSA19.jpg,AMNE13.jpg,AMSA12.jpg,AMNE13.jpg,MN,1,num_2,32,num_8,0.300184906228,,,2017_Nov_06_1502,60.0201555785,MAFE4ImagesEEG,001,102348,
AFNE01.JPG,AFNE01.JPG,AFNE01.JPG,AFNE01.JPG,AFNE01.JPG,AFNE01.JPG,,,,,,,,,,,,,,,,,0,4,4,2,,,,,,,AMNE01.jpg,AMSA14.jpg,AMNE11.jpg,AMSA19.jpg,AMNE11.jpg,MN,1,num_2,16,num_2,0.333559134044,,,2017_Nov_06_1502,60.0201555785,MAFE4ImagesEEG,001,102348,
AFNE01.JPG,AFNE01.JPG,AFNE01.JPG,AFNE01.JPG,AFNE01.JPG,AFNE01.JPG,,,,,,,,,,,,,,,,,0,5,5,8,,,,,,,AMNE18.jpg,AMNE06.jpg,AMSA03.jpg,AMSA05.jpg,AMNE06.jpg,MN,1,num_6,32,num_8,0.333486326039,,,2017_Nov_06_1502,60.0201555785,MAFE4ImagesEEG,001,102348,
AFNE01.JPG,AFNE01.JPG,AFNE01.JPG,AFNE01.JPG,AFNE01.JPG,AFNE01.JPG,,,,,,,,,,,,,,,,,0,6,6,6,,,,,,,AMNE04.jpg,AMSA15.jpg,AMSA20.jpg,AMNE14.jpg,AMNE14.jpg,MN,1,num_4,32,num_8,0.683492339915,,,2017_Nov_06_1502,60.0201555785,MAFE4ImagesEEG,001,102348,
AFNE01.JPG,AFNE01.JPG,AFNE01.JPG,AFNE01.JPG,AFNE01.JPG,AFNE01.JPG,,,,,,,,,,,,,,,,,0,7,7,0,,,,,,,AMSA02.jpg,AMNE17.jpg,AMSA20.jpg,AMNE12.jpg,AMSA02.jpg,MS,2,num_8,32,num_4,0.633455695352,,,2017_Nov_06_1502,60.0201555785,MAFE4ImagesEEG,001,102348,
AFNE01.JPG,AFNE01.JPG,AFNE01.JPG,AFNE01.JPG,AFNE01.JPG,AFNE01.JPG,,,,,,,,,,,,,,,,,0,8,8,9,,,,,,,AMSA17.jpg,AMNE03.jpg,AMSA10.jpg,AMNE11.jpg,AMNE11.jpg,MN,1,num_4,32,num_2,0.666781491367,,,2017_Nov_06_1502,60.0201555785,MAFE4ImagesEEG,001,102348,
AFNE01.JPG,AFNE01.JPG,AFNE01.JPG,AFNE01.JPG,AFNE01.JPG,AFNE01.JPG,,,,,,,,,,,,,,,,,0,9,9,7,,,,,,,AMSA01.jpg,AMNE13.jpg,AMSA11.jpg,AMNE05.jpg,AMSA01.jpg,MS,2,num_8,16,num_8,0.53349466552,,,2017_Nov_06_1502,60.0201555785,MAFE4ImagesEEG,001,102348,
AFNE01.JPG,AFNE01.JPG,AFNE01.JPG,AFNE01.JPG,AFNE01.JPG,AFNE01.JPG,,,,,,,,,,,,,,,,,1,0,10,4,,,,,,,AMNE11.jpg,AMNE09.jpg,AMSA06.jpg,AMSA19.jpg,AMSA06.jpg,MS,2,num_2,16,num_2,0.516951884143,,,2017_Nov_06_1502,60.0201555785,MAFE4ImagesEEG,001,102348,
AFNE01.JPG,AFNE01.JPG,AFNE01.JPG,AFNE01.JPG,AFNE01.JPG,AFNE01.JPG,,,,,,,,,,,,,,,,,1,1,11,3,,,,,,,AMSA04.jpg,AMNE13.jpg,AMNE03.jpg,AMSA17.jpg,AMSA17.jpg,MS,2,num_4,32,num_6,0.433515673736,,,2017_Nov_06_1502,60.0201555785,MAFE4ImagesEEG,001,102348,
AFNE01.JPG,AFNE01.JPG,AFNE01.JPG,AFNE01.JPG,AFNE01.JPG,AFNE01.JPG,,,,,,,,,,,,,,,,,1,2,12,0,,,,,,,AMSA18.jpg,AMNE04.jpg,AMSA09.jpg,AMNE08.jpg,AMSA18.jpg,MS,2,num_8,16,num_8,1.11675206362,,,2017_Nov_06_1502,60.0201555785,MAFE4ImagesEEG,001,102348,
AFNE01.JPG,AFNE01.JPG,AFNE01.JPG,AFNE01.JPG,AFNE01.JPG,AFNE01.JPG,,,,,,,,,,,,,,,,,1,3,13,7,,,,,,,AMSA16.jpg,AMNE01.jpg,AMSA08.jpg,AMNE06.jpg,AMNE01.jpg,MN,1,num_6,32,num_2,0.300137116108,,,2017_Nov_06_1502,60.0201555785,MAFE4ImagesEEG,001,102348,
AFNE01.JPG,AFNE01.JPG,AFNE01.JPG,AFNE01.JPG,AFNE01.JPG,AFNE01.JPG,,,,,,,,,,,,,,,,,1,4,14,9,,,,,,,AMSA18.jpg,AMSA07.jpg,AMNE10.jpg,AMNE12.jpg,AMSA07.jpg,MS,2,num_6,16,num_6,0.316800495377,,,2017_Nov_06_1502,60.0201555785,MAFE4ImagesEEG,001,102348,
AFNE01.JPG,AFNE01.JPG,AFNE01.JPG,AFNE01.JPG,AFNE01.JPG,AFNE01.JPG,,,,,,,,,,,,,,,,,1,5,15,6,,,,,,,AMSA19.jpg,AMNE17.jpg,AMNE02.jpg,AMSA12.jpg,AMSA12.jpg,MS,2,num_4,32,num_8,0.316780930152,,,2017_Nov_06_1502,60.0201555785,MAFE4ImagesEEG,001,102348,
AFNE01.JPG,AFNE01.JPG,AFNE01.JPG,AFNE01.JPG,AFNE01.JPG,AFNE01.JPG,,,,,,,,,,,,,,,,,1,6,16,2,,,,,,,AMNE15.jpg,AMNE12.jpg,AMSA18.jpg,AMSA09.jpg,AMSA18.jpg,MS,2,num_2,16,num_2,0.35005187965,,,2017_Nov_06_1502,60.0201555785,MAFE4ImagesEEG,001,102348,
AFNE01.JPG,AFNE01.JPG,AFNE01.JPG,AFNE01.JPG,AFNE01.JPG,AFNE01.JPG,,,,,,,,,,,,,,,,,1,7,17,8,,,,,,,AMSA01.jpg,AMNE01.jpg,AMSA16.jpg,AMNE16.jpg,AMNE01.jpg,MN,1,num_6,32,num_8,0.450198617997,,,2017_Nov_06_1502,60.0201555785,MAFE4ImagesEEG,001,102348,
AFNE01.JPG,AFNE01.JPG,AFNE01.JPG,AFNE01.JPG,AFNE01.JPG,AFNE01.JPG,,,,,,,,,,,,,,,,,1,8,18,5,,,,,,,AMSA10.jpg,AMNE01.jpg,AMNE07.jpg,AMSA14.jpg,AMNE07.jpg,MN,1,num_2,32,num_6,0.783445672132,,,2017_Nov_06_1502,60.0201555785,MAFE4ImagesEEG,001,102348,
AFNE01.JPG,AFNE01.JPG,AFNE01.JPG,AFNE01.JPG,AFNE01.JPG,AFNE01.JPG,,,,,,,,,,,,,,,,,1,9,19,1,,,,,,,AMNE12.jpg,AMSA15.jpg,AMNE13.jpg,AMSA16.jpg,AMSA15.jpg,MS,2,num_6,32,num_8,0.316803061171,,,2017_Nov_06_1502,60.0201555785,MAFE4ImagesEEG,001,102348,
AFNE01.JPG,AFNE01.JPG,AFNE01.JPG,AFNE01.JPG,AFNE01.JPG,AFNE01.JPG,,,,,,,,,,,,,,,,,2,0,20,2,,,,,,,AMNE11.jpg,AMSA06.jpg,AMNE19.jpg,AMSA13.jpg,AMSA13.jpg,MS,2,num_4,32,num_2,0.350234701065,,,2017_Nov_06_1502,60.0201555785,MAFE4ImagesEEG,001,102348,
AFNE01.JPG,AFNE01.JPG,AFNE01.JPG,AFNE01.JPG,AFNE01.JPG,AFNE01.JPG,,,,,,,,,,,,,,,,,2,1,21,7,,,,,,,AMSA17.jpg,AMNE09.jpg,AMNE16.jpg,AMSA13.jpg,AMNE09.jpg,MN,1,num_6,32,num_8,0.316812041914,,,2017_Nov_06_1502,60.0201555785,MAFE4ImagesEEG,001,102348,
AFNE01.JPG,AFNE01.JPG,AFNE01.JPG,AFNE01.JPG,AFNE01.JPG,AFNE01.JPG,,,,,,,,,,,,,,,,,2,2,22,3,,,,,,,AMSA01.jpg,AMNE06.jpg,AMNE18.jpg,AMSA17.jpg,AMSA01.jpg,MS,2,num_8,16,num_8,0.48355135601,,,2017_Nov_06_1502,60.0201555785,MAFE4ImagesEEG,001,102348,
AFNE01.JPG,AFNE01.JPG,AFNE01.JPG,AFNE01.JPG,AFNE01.JPG,AFNE01.JPG,,,,,,,,,,,,,,,,,2,3,23,4,,,,,,,AMSA19.jpg,AMNE19.jpg,AMSA07.jpg,AMNE10.jpg,AMSA19.jpg,MS,2,num_8,32,num_6,0.750217381166,,,2017_Nov_06_1502,60.0201555785,MAFE4ImagesEEG,001,102348,
AFNE01.JPG,AFNE01.JPG,AFNE01.JPG,AFNE01.JPG,AFNE01.JPG,AFNE01.JPG,,,,,,,,,,,,,,,,,2,4,24,6,,,,,,,AMNE14.jpg,AMNE17.jpg,AMSA17.jpg,AMSA05.jpg,AMNE14.jpg,MN,1,num_8,32,num_2,1.05008443468,,,2017_Nov_06_1502,60.0201555785,MAFE4ImagesEEG,001,102348,
AFNE01.JPG,AFNE01.JPG,AFNE01.JPG,AFNE01.JPG,AFNE01.JPG,AFNE01.JPG,,,,,,,,,,,,,,,,,2,5,25,1,,,,,,,AMSA19.jpg,AMSA07.jpg,AMNE03.jpg,AMNE18.jpg,AMNE18.jpg,MN,1,num_4,32,num_8,0.716824230039,,,2017_Nov_06_1502,60.0201555785,MAFE4ImagesEEG,001,102348,
AFNE01.JPG,AFNE01.JPG,AFNE01.JPG,AFNE01.JPG,AFNE01.JPG,AFNE01.JPG,,,,,,,,,,,,,,,,,2,6,26,0,,,,,,,AMNE15.jpg,AMNE17.jpg,AMSA06.jpg,AMSA04.jpg,AMNE15.jpg,MN,1,num_8,32,num_6,0.366800896125,,,2017_Nov_06_1502,60.0201555785,MAFE4ImagesEEG,001,102348,
AFNE01.JPG,AFNE01.JPG,AFNE01.JPG,AFNE01.JPG,AFNE01.JPG,AFNE01.JPG,,,,,,,,,,,,,,,,,2,7,27,9,,,,,,,AMSA05.jpg,AMNE15.jpg,AMNE08.jpg,AMSA09.jpg,AMSA09.jpg,MS,2,num_4,32,num_8,0.316814607708,,,2017_Nov_06_1502,60.0201555785,MAFE4ImagesEEG,001,102348,
AFNE01.JPG,AFNE01.JPG,AFNE01.JPG,AFNE01.JPG,AFNE01.JPG,AFNE01.JPG,,,,,,,,,,,,,,,,,2,8,28,8,,,,,,,AMNE03.jpg,AMNE01.jpg,AMSA14.jpg,AMSA16.jpg,AMNE01.jpg,MN,1,num_6,32,num_2,0.316843153676,,,2017_Nov_06_1502,60.0201555785,MAFE4ImagesEEG,001,102348,
AFNE01.JPG,AFNE01.JPG,AFNE01.JPG,AFNE01.JPG,AFNE01.JPG,AFNE01.JPG,,,,,,,,,,,,,,,,,2,9,29,5,,,,,,,AMSA10.jpg,AMNE11.jpg,AMNE06.jpg,AMSA17.jpg,AMNE06.jpg,MN,1,num_2,32,num_6,0.266792075941,,,2017_Nov_06_1502,60.0201555785,MAFE4ImagesEEG,001,102348,
AFNE01.JPG,AFNE01.JPG,AFNE01.JPG,AFNE01.JPG,AFNE01.JPG,AFNE01.JPG,,,,,,,,,,,,,,,,,3,0,30,1,,,,,,,AMNE12.jpg,AMNE01.jpg,AMSA04.jpg,AMSA10.jpg,AMNE01.jpg,MN,1,num_6,16,num_6,0.683505169582,,,2017_Nov_06_1502,60.0201555785,MAFE4ImagesEEG,001,102348,
AFNE01.JPG,AFNE01.JPG,AFNE01.JPG,AFNE01.JPG,AFNE01.JPG,AFNE01.JPG,,,,,,,,,,,,,,,,,3,1,31,3,,,,,,,AMNE01.jpg,AMSA10.jpg,AMSA18.jpg,AMNE03.jpg,AMNE03.jpg,MN,1,num_4,32,num_6,0.566792557016,,,2017_Nov_06_1502,60.0201555785,MAFE4ImagesEEG,001,102348,
AFNE01.JPG,AFNE01.JPG,AFNE01.JPG,AFNE01.JPG,AFNE01.JPG,AFNE01.JPG,,,,,,,,,,,,,,,,,3,2,32,6,,,,,,,AMSA14.jpg,AMSA20.jpg,AMNE13.jpg,AMNE07.jpg,AMNE07.jpg,MN,1,num_4,32,num_6,0.899823433021,,,2017_Nov_06_1502,60.0201555785,MAFE4ImagesEEG,001,102348,
AFNE01.JPG,AFNE01.JPG,AFNE01.JPG,AFNE01.JPG,AFNE01.JPG,AFNE01.JPG,,,,,,,,,,,,,,,,,3,3,33,0,,,,,,,AMSA19.jpg,AMSA13.jpg,AMNE11.jpg,AMNE09.jpg,AMNE11.jpg,MN,1,num_2,16,num_2,0.333516154904,,,2017_Nov_06_1502,60.0201555785,MAFE4ImagesEEG,001,102348,
AFNE01.JPG,AFNE01.JPG,AFNE01.JPG,AFNE01.JPG,AFNE01.JPG,AFNE01.JPG,,,,,,,,,,,,,,,,,3,4,34,9,,,,,,,AMNE07.jpg,AMNE18.jpg,AMSA13.jpg,AMSA08.jpg,AMSA13.jpg,MS,2,num_2,32,num_4,0.616743563907,,,2017_Nov_06_1502,60.0201555785,MAFE4ImagesEEG,001,102348,
AFNE01.JPG,AFNE01.JPG,AFNE01.JPG,AFNE01.JPG,AFNE01.JPG,AFNE01.JPG,,,,,,,,,,,,,,,,,3,5,35,8,,,,,,,AMSA19.jpg,AMNE19.jpg,AMNE13.jpg,AMSA04.jpg,AMSA04.jpg,MS,2,num_4,32,num_6,0.350198136875,,,2017_Nov_06_1502,60.0201555785,MAFE4ImagesEEG,001,102348,
AFNE01.JPG,AFNE01.JPG,AFNE01.JPG,AFNE01.JPG,AFNE01.JPG,AFNE01.JPG,,,,,,,,,,,,,,,,,3,6,36,2,,,,,,,AMSA05.jpg,AMNE16.jpg,AMNE06.jpg,AMSA03.jpg,AMNE16.jpg,MN,1,num_6,32,num_2,0.28348432132,,,2017_Nov_06_1502,60.0201555785,MAFE4ImagesEEG,001,102348,
AFNE01.JPG,AFNE01.JPG,AFNE01.JPG,AFNE01.JPG,AFNE01.JPG,AFNE01.JPG,,,,,,,,,,,,,,,,,3,7,37,5,,,,,,,AMSA13.jpg,AMNE17.jpg,AMNE02.jpg,AMSA10.jpg,AMSA10.jpg,MS,2,num_4,32,num_8,0.450157242594,,,2017_Nov_06_1502,60.0201555785,MAFE4ImagesEEG,001,102348,
AFNE01.JPG,AFNE01.JPG,AFNE01.JPG,AFNE01.JPG,AFNE01.JPG,AFNE01.JPG,,,,,,,,,,,,,,,,,3,8,38,7,,,,,,,AMNE13.jpg,AMNE02.jpg,AMSA15.jpg,AMSA07.jpg,AMSA07.jpg,MS,2,num_4,16,num_4,0.266830885317,,,2017_Nov_06_1502,60.0201555785,MAFE4ImagesEEG,001,102348,
AFNE01.JPG,AFNE01.JPG,AFNE01.JPG,AFNE01.JPG,AFNE01.JPG,AFNE01.JPG,,,,,,,,,,,,,,,,,3,9,39,4,,,,,,,AMSA15.jpg,AMNE02.jpg,AMNE20.jpg,AMSA19.jpg,AMSA15.jpg,MS,2,num_8,32,num_2,0.333622640464,,,2017_Nov_06_1502,60.0201555785,MAFE4ImagesEEG,001,102348,
AFNE01.JPG,AFNE01.JPG,AFNE01.JPG,AFNE01.JPG,AFNE01.JPG,AFNE01.JPG,,,,,,,,,,,,,,,,,4,0,40,3,,,,,,,AMNE09.jpg,AMSA19.jpg,AMSA18.jpg,AMNE07.jpg,AMSA18.jpg,MS,2,num_2,32,num_8,0.500173359644,,,2017_Nov_06_1502,60.0201555785,MAFE4ImagesEEG,001,102348,
AFNE01.JPG,AFNE01.JPG,AFNE01.JPG,AFNE01.JPG,AFNE01.JPG,AFNE01.JPG,,,,,,,,,,,,,,,,,4,1,41,0,,,,,,,AMNE17.jpg,AMNE10.jpg,AMSA20.jpg,AMSA15.jpg,AMNE10.jpg,MN,1,num_6,16,num_6,0.366813404951,,,2017_Nov_06_1502,60.0201555785,MAFE4ImagesEEG,001,102348,
AFNE01.JPG,AFNE01.JPG,AFNE01.JPG,AFNE01.JPG,AFNE01.JPG,AFNE01.JPG,,,,,,,,,,,,,,,,,4,2,42,6,,,,,,,AMNE09.jpg,AMSA20.jpg,AMSA13.jpg,AMNE13.jpg,AMNE13.jpg,MN,1,num_4,32,num_8,0.36683553597,,,2017_Nov_06_1502,60.0201555785,MAFE4ImagesEEG,001,102348,
AFNE01.JPG,AFNE01.JPG,AFNE01.JPG,AFNE01.JPG,AFNE01.JPG,AFNE01.JPG,,,,,,,,,,,,,,,,,4,3,43,8,,,,,,,AMSA12.jpg,AMNE12.jpg,AMSA09.jpg,AMNE08.jpg,AMSA09.jpg,MS,2,num_2,16,num_2,0.616764412029,,,2017_Nov_06_1502,60.0201555785,MAFE4ImagesEEG,001,102348,
AFNE01.JPG,AFNE01.JPG,AFNE01.JPG,AFNE01.JPG,AFNE01.JPG,AFNE01.JPG,,,,,,,,,,,,,,,,,4,4,44,7,,,,,,,AMNE04.jpg,AMSA16.jpg,AMNE16.jpg,AMSA04.jpg,AMSA04.jpg,MS,2,num_4,32,num_8,0.7335270599,,,2017_Nov_06_1502,60.0201555785,MAFE4ImagesEEG,001,102348,
AFNE01.JPG,AFNE01.JPG,AFNE01.JPG,AFNE01.JPG,AFNE01.JPG,AFNE01.JPG,,,,,,,,,,,,,,,,,4,5,45,5,,,,,,,AMNE03.jpg,AMSA16.jpg,AMSA02.jpg,AMNE08.jpg,AMSA16.jpg,MS,2,num_6,16,num_6,0.516820381163,,,2017_Nov_06_1502,60.0201555785,MAFE4ImagesEEG,001,102348,
AFNE01.JPG,AFNE01.JPG,AFNE01.JPG,AFNE01.JPG,AFNE01.JPG,AFNE01.JPG,,,,,,,,,,,,,,,,,4,6,46,9,,,,,,,AMSA06.jpg,AMNE04.jpg,AMNE13.jpg,AMSA16.jpg,AMNE04.jpg,MN,1,num_6,16,num_6,0.516771307914,,,2017_Nov_06_1502,60.0201555785,MAFE4ImagesEEG,001,102348,
AFNE01.JPG,AFNE01.JPG,AFNE01.JPG,AFNE01.JPG,AFNE01.JPG,AFNE01.JPG,,,,,,,,,,,,,,,,,4,7,47,2,,,,,,,AMSA16.jpg,AMNE06.jpg,AMSA17.jpg,AMNE07.jpg,AMSA17.jpg,MS,2,num_2,16,num_2,0.633345361101,,,2017_Nov_06_1502,60.0201555785,MAFE4ImagesEEG,001,102348,
AFNE01.JPG,AFNE01.JPG,AFNE01.JPG,AFNE01.JPG,AFNE01.JPG,AFNE01.JPG,,,,,,,,,,,,,,,,,4,8,48,4,,,,,,,AMSA13.jpg,AMNE04.jpg,AMNE18.jpg,AMSA19.jpg,AMSA13.jpg,MS,2,num_8,16,num_8,0.733480552677,,,2017_Nov_06_1502,60.0201555785,MAFE4ImagesEEG,001,102348,
AFNE01.JPG,AFNE01.JPG,AFNE01.JPG,AFNE01.JPG,AFNE01.JPG,AFNE01.JPG,,,,,,,,,,,,,,,,,4,9,49,1,,,,,,,AMNE03.jpg,AMSA02.jpg,AMSA20.jpg,AMNE08.jpg,AMNE08.jpg,MN,1,num_4,32,num_2,0.633477505762,,,2017_Nov_06_1502,60.0201555785,MAFE4ImagesEEG,001,102348,
AFNE01.JPG,AFNE01.JPG,AFNE01.JPG,AFNE01.JPG,AFNE01.JPG,AFNE01.JPG,,,,,,,,,,,,,,,,,5,0,50,8,,,,,,,AMNE07.jpg,AMSA03.jpg,AMNE09.jpg,AMSA19.jpg,AMSA03.jpg,MS,2,num_6,16,num_6,0.400170954177,,,2017_Nov_06_1502,60.0201555785,MAFE4ImagesEEG,001,102348,
AFNE01.JPG,AFNE01.JPG,AFNE01.JPG,AFNE01.JPG,AFNE01.JPG,AFNE01.JPG,,,,,,,,,,,,,,,,,5,1,51,7,,,,,,,AMNE07.jpg,AMNE11.jpg,AMSA19.jpg,AMSA15.jpg,AMSA19.jpg,MS,2,num_2,32,num_6,0.53351455112,,,2017_Nov_06_1502,60.0201555785,MAFE4ImagesEEG,001,102348,
AFNE01.JPG,AFNE01.JPG,AFNE01.JPG,AFNE01.JPG,AFNE01.JPG,AFNE01.JPG,,,,,,,,,,,,,,,,,5,2,52,3,,,,,,,AMSA05.jpg,AMNE02.jpg,AMSA15.jpg,AMNE09.jpg,AMSA05.jpg,MS,2,num_8,32,num_2,0.28349554725,,,2017_Nov_06_1502,60.0201555785,MAFE4ImagesEEG,001,102348,
AFNE01.JPG,AFNE01.JPG,AFNE01.JPG,AFNE01.JPG,AFNE01.JPG,AFNE01.JPG,,,,,,,,,,,,,,,,,5,3,53,9,,,,,,,AMSA01.jpg,AMSA06.jpg,AMNE07.jpg,AMNE02.jpg,AMSA06.jpg,MS,2,num_6,32,num_4,0.300150266616,,,2017_Nov_06_1502,60.0201555785,MAFE4ImagesEEG,001,102348,
AFNE01.JPG,AFNE01.JPG,AFNE01.JPG,AFNE01.JPG,AFNE01.JPG,AFNE01.JPG,,,,,,,,,,,,,,,,,5,4,54,6,,,,,,,AMNE02.jpg,AMSA09.jpg,AMNE12.jpg,AMSA01.jpg,AMNE02.jpg,MN,1,num_8,16,num_8,0.316784458235,,,2017_Nov_06_1502,60.0201555785,MAFE4ImagesEEG,001,102348,
AFNE01.JPG,AFNE01.JPG,AFNE01.JPG,AFNE01.JPG,AFNE01.JPG,AFNE01.JPG,,,,,,,,,,,,,,,,,5,5,55,4,,,,,,,AMNE01.jpg,AMSA05.jpg,AMNE15.jpg,AMSA15.jpg,AMSA15.jpg,MS,2,num_4,32,num_6,0.300175925717,,,2017_Nov_06_1502,60.0201555785,MAFE4ImagesEEG,001,102348,
AFNE01.JPG,AFNE01.JPG,AFNE01.JPG,AFNE01.JPG,AFNE01.JPG,AFNE01.JPG,,,,,,,,,,,,,,,,,5,6,56,2,,,,,,,AMNE05.jpg,AMNE08.jpg,AMSA03.jpg,AMSA04.jpg,AMNE05.jpg,MN,1,num_8,32,num_2,0.350213532336,,,2017_Nov_06_1502,60.0201555785,MAFE4ImagesEEG,001,102348,
AFNE01.JPG,AFNE01.JPG,AFNE01.JPG,AFNE01.JPG,AFNE01.JPG,AFNE01.JPG,,,,,,,,,,,,,,,,,5,7,57,5,,,,,,,AMSA09.jpg,AMSA13.jpg,AMNE18.jpg,AMNE19.jpg,AMSA13.jpg,MS,2,num_6,32,num_8,0.333515192615,,,2017_Nov_06_1502,60.0201555785,MAFE4ImagesEEG,001,102348,
AFNE01.JPG,AFNE01.JPG,AFNE01.JPG,AFNE01.JPG,AFNE01.JPG,AFNE01.JPG,,,,,,,,,,,,,,,,,5,8,58,1,,,,,,,AMSA19.jpg,AMSA08.jpg,AMNE05.jpg,AMNE10.jpg,AMSA19.jpg,MS,2,num_8,32,num_6,0.283513829345,,,2017_Nov_06_1502,60.0201555785,MAFE4ImagesEEG,001,102348,
AFNE01.JPG,AFNE01.JPG,AFNE01.JPG,AFNE01.JPG,AFNE01.JPG,AFNE01.JPG,,,,,,,,,,,,,,,,,5,9,59,0,,,,,,,AMNE09.jpg,AMNE17.jpg,AMSA19.jpg,AMSA09.jpg,AMSA09.jpg,MS,2,num_4,32,num_2,0.416848445777,,,2017_Nov_06_1502,60.0201555785,MAFE4ImagesEEG,001,102348,
,,,,,,,,,,,,,,,,,,,,,,,,,,,,,,,,,,,,,,,,,,,space,43.7134423528,2017_Nov_06_1502,60.0201555785,MAFE4ImagesEEG,001,102348,
AFNE01.JPG,AFNE01.JPG,AFNE01.JPG,AFNE01.JPG,AFNE01.JPG,AFNE01.JPG,,,,,,,,,,,,,,,,,,,,,0,0,0,6,,,AFNE01.jpg,AFSA04.jpg,AFNE20.jpg,AFSA16.jpg,AFSA04.jpg,FS,4,num_6,32,num_8,0.516815249342,,,2017_Nov_06_1502,60.0201555785,MAFE4ImagesEEG,001,102348,
AFNE01.JPG,AFNE01.JPG,AFNE01.JPG,AFNE01.JPG,AFNE01.JPG,AFNE01.JPG,,,,,,,,,,,,,,,,,,,,,0,1,1,1,,,AFNE06.jpg,AFNE19.jpg,AFSA02.jpg,AFSA05.jpg,AFSA02.jpg,FS,4,num_2,16,num_2,0.300167586422,,,2017_Nov_06_1502,60.0201555785,MAFE4ImagesEEG,001,102348,
AFNE01.JPG,AFNE01.JPG,AFNE01.JPG,AFNE01.JPG,AFNE01.JPG,AFNE01.JPG,,,,,,,,,,,,,,,,,,,,,0,2,2,5,,,AFSA11.jpg,AFNE15.jpg,AFNE14.jpg,AFSA14.jpg,AFSA14.jpg,FS,4,num_4,32,num_6,0.333554643439,,,2017_Nov_06_1502,60.0201555785,MAFE4ImagesEEG,001,102348,
AFNE01.JPG,AFNE01.JPG,AFNE01.JPG,AFNE01.JPG,AFNE01.JPG,AFNE01.JPG,,,,,,,,,,,,,,,,,,,,,0,3,3,8,,,AFNE13.jpg,AFSA11.jpg,AFNE17.jpg,AFSA19.jpg,AFNE13.jpg,FN,3,num_8,32,num_4,0.366863440489,,,2017_Nov_06_1502,60.0201555785,MAFE4ImagesEEG,001,102348,
AFNE01.JPG,AFNE01.JPG,AFNE01.JPG,AFNE01.JPG,AFNE01.JPG,AFNE01.JPG,,,,,,,,,,,,,,,,,,,,,0,4,4,0,,,AFSA06.jpg,AFNE06.jpg,AFSA04.jpg,AFNE20.jpg,AFNE20.jpg,FN,3,num_4,32,num_2,0.300162454601,,,2017_Nov_06_1502,60.0201555785,MAFE4ImagesEEG,001,102348,
AFNE01.JPG,AFNE01.JPG,AFNE01.JPG,AFNE01.JPG,AFNE01.JPG,AFNE01.JPG,,,,,,,,,,,,,,,,,,,,,0,5,5,4,,,AFSA12.jpg,AFNE10.jpg,AFNE20.jpg,AFSA13.jpg,AFNE20.jpg,FN,3,num_2,32,num_8,0.333540210268,,,2017_Nov_06_1502,60.0201555785,MAFE4ImagesEEG,001,102348,
AFNE01.JPG,AFNE01.JPG,AFNE01.JPG,AFNE01.JPG,AFNE01.JPG,AFNE01.JPG,,,,,,,,,,,,,,,,,,,,,0,6,6,9,,,AFSA15.jpg,AFSA01.jpg,AFNE01.jpg,AFNE11.jpg,AFNE01.jpg,FN,3,num_2,16,num_2,0.33350685332,,,2017_Nov_06_1502,60.0201555785,MAFE4ImagesEEG,001,102348,
AFNE01.JPG,AFNE01.JPG,AFNE01.JPG,AFNE01.JPG,AFNE01.JPG,AFNE01.JPG,,,,,,,,,,,,,,,,,,,,,0,7,7,2,,,AFNE16.jpg,AFSA10.jpg,AFSA02.jpg,AFNE14.jpg,AFSA10.jpg,FS,4,num_6,32,num_8,0.499848450534,,,2017_Nov_06_1502,60.0201555785,MAFE4ImagesEEG,001,102348,
AFNE01.JPG,AFNE01.JPG,AFNE01.JPG,AFNE01.JPG,AFNE01.JPG,AFNE01.JPG,,,,,,,,,,,,,,,,,,,,,0,8,8,7,,,AFNE15.jpg,AFSA10.jpg,AFNE08.jpg,AFSA16.jpg,AFNE15.jpg,FN,3,num_8,32,num_2,0.316809796495,,,2017_Nov_06_1502,60.0201555785,MAFE4ImagesEEG,001,102348,
AFNE01.JPG,AFNE01.JPG,AFNE01.JPG,AFNE01.JPG,AFNE01.JPG,AFNE01.JPG,,,,,,,,,,,,,,,,,,,,,0,9,9,3,,,AFSA13.jpg,AFNE16.jpg,AFNE17.jpg,AFSA04.jpg,AFNE16.jpg,FN,3,num_6,16,num_6,0.533473496558,,,2017_Nov_06_1502,60.0201555785,MAFE4ImagesEEG,001,102348,
AFNE01.JPG,AFNE01.JPG,AFNE01.JPG,AFNE01.JPG,AFNE01.JPG,AFNE01.JPG,,,,,,,,,,,,,,,,,,,,,1,0,10,9,,,AFSA08.jpg,AFNE17.jpg,AFNE04.jpg,AFSA10.jpg,AFNE17.jpg,FN,3,num_6,32,num_8,0.416833691765,,,2017_Nov_06_1502,60.0201555785,MAFE4ImagesEEG,001,102348,
AFNE01.JPG,AFNE01.JPG,AFNE01.JPG,AFNE01.JPG,AFNE01.JPG,AFNE01.JPG,,,,,,,,,,,,,,,,,,,,,1,1,11,8,,,AFNE14.jpg,AFSA03.jpg,AFNE08.jpg,AFSA19.jpg,AFSA03.jpg,FS,4,num_6,32,num_2,0.866748776054,,,2017_Nov_06_1502,60.0201555785,MAFE4ImagesEEG,001,102348,
AFNE01.JPG,AFNE01.JPG,AFNE01.JPG,AFNE01.JPG,AFNE01.JPG,AFNE01.JPG,,,,,,,,,,,,,,,,,,,,,1,2,12,3,,,AFNE18.jpg,AFNE17.jpg,AFSA17.jpg,AFSA05.jpg,AFSA05.jpg,FS,4,num_4,32,num_6,0.53351968294,,,2017_Nov_06_1502,60.0201555785,MAFE4ImagesEEG,001,102348,
AFNE01.JPG,AFNE01.JPG,AFNE01.JPG,AFNE01.JPG,AFNE01.JPG,AFNE01.JPG,,,,,,,,,,,,,,,,,,,,,1,3,13,5,,,AFNE07.jpg,AFNE02.jpg,AFSA05.jpg,AFSA12.jpg,AFNE02.jpg,FN,3,num_6,32,num_2,0.350180175388,,,2017_Nov_06_1502,60.0201555785,MAFE4ImagesEEG,001,102348,
AFNE01.JPG,AFNE01.JPG,AFNE01.JPG,AFNE01.JPG,AFNE01.JPG,AFNE01.JPG,,,,,,,,,,,,,,,,,,,,,1,4,14,4,,,AFNE17.jpg,AFNE18.jpg,AFSA14.jpg,AFSA02.jpg,AFNE17.jpg,FN,3,num_8,16,num_8,0.550145214889,,,2017_Nov_06_1502,60.0201555785,MAFE4ImagesEEG,001,102348,
AFNE01.JPG,AFNE01.JPG,AFNE01.JPG,AFNE01.JPG,AFNE01.JPG,AFNE01.JPG,,,,,,,,,,,,,,,,,,,,,1,5,15,0,,,AFSA03.jpg,AFNE11.jpg,AFSA10.jpg,AFNE20.jpg,AFNE20.jpg,FN,3,num_4,32,num_2,0.650120998966,,,2017_Nov_06_1502,60.0201555785,MAFE4ImagesEEG,001,102348,
AFNE01.JPG,AFNE01.JPG,AFNE01.JPG,AFNE01.JPG,AFNE01.JPG,AFNE01.JPG,,,,,,,,,,,,,,,,,,,,,1,6,16,1,,,AFNE16.jpg,AFNE06.jpg,AFSA11.jpg,AFSA12.jpg,AFSA12.jpg,FS,4,num_4,32,num_6,0.400088524213,,,2017_Nov_06_1502,60.0201555785,MAFE4ImagesEEG,001,102348,
AFNE01.JPG,AFNE01.JPG,AFNE01.JPG,AFNE01.JPG,AFNE01.JPG,AFNE01.JPG,,,,,,,,,,,,,,,,,,,,,1,7,17,2,,,AFSA07.jpg,AFSA03.jpg,AFNE18.jpg,AFNE10.jpg,AFSA07.jpg,FS,4,num_8,32,num_4,0.600172237027,,,2017_Nov_06_1502,60.0201555785,MAFE4ImagesEEG,001,102348,
AFNE01.JPG,AFNE01.JPG,AFNE01.JPG,AFNE01.JPG,AFNE01.JPG,AFNE01.JPG,,,,,,,,,,,,,,,,,,,,,1,8,18,6,,,AFNE15.jpg,AFSA03.jpg,AFNE13.jpg,AFSA18.jpg,AFNE15.jpg,FN,3,num_8,16,num_8,0.3502276449,,,2017_Nov_06_1502,60.0201555785,MAFE4ImagesEEG,001,102348,
AFNE01.JPG,AFNE01.JPG,AFNE01.JPG,AFNE01.JPG,AFNE01.JPG,AFNE01.JPG,,,,,,,,,,,,,,,,,,,,,1,9,19,7,,,AFSA06.jpg,AFNE02.jpg,AFNE05.jpg,AFSA12.jpg,AFNE02.jpg,FN,3,num_6,16,num_6,0.700197094353,,,2017_Nov_06_1502,60.0201555785,MAFE4ImagesEEG,001,102348,
AFNE01.JPG,AFNE01.JPG,AFNE01.JPG,AFNE01.JPG,AFNE01.JPG,AFNE01.JPG,,,,,,,,,,,,,,,,,,,,,2,0,20,5,,,AFNE20.jpg,AFSA06.jpg,AFNE06.jpg,AFSA11.jpg,AFSA06.jpg,FS,4,num_6,32,num_2,0.816747092176,,,2017_Nov_06_1502,60.0201555785,MAFE4ImagesEEG,001,102348,
AFNE01.JPG,AFNE01.JPG,AFNE01.JPG,AFNE01.JPG,AFNE01.JPG,AFNE01.JPG,,,,,,,,,,,,,,,,,,,,,2,1,21,2,,,AFNE07.jpg,AFSA02.jpg,AFSA06.jpg,AFNE20.jpg,AFNE07.jpg,FN,3,num_8,16,num_8,0.500186509918,,,2017_Nov_06_1502,60.0201555785,MAFE4ImagesEEG,001,102348,
AFNE01.JPG,AFNE01.JPG,AFNE01.JPG,AFNE01.JPG,AFNE01.JPG,AFNE01.JPG,,,,,,,,,,,,,,,,,,,,,2,2,22,0,,,AFNE16.jpg,AFSA19.jpg,AFSA01.jpg,AFNE01.jpg,AFNE16.jpg,FN,3,num_8,32,num_6,0.483514150139,,,2017_Nov_06_1502,60.0201555785,MAFE4ImagesEEG,001,102348,
AFNE01.JPG,AFNE01.JPG,AFNE01.JPG,AFNE01.JPG,AFNE01.JPG,AFNE01.JPG,,,,,,,,,,,,,,,,,,,,,2,3,23,8,,,AFNE17.jpg,AFSA06.jpg,AFSA12.jpg,AFNE14.jpg,AFSA12.jpg,FS,4,num_2,32,num_8,0.600143370451,,,2017_Nov_06_1502,60.0201555785,MAFE4ImagesEEG,001,102348,
AFNE01.JPG,AFNE01.JPG,AFNE01.JPG,AFNE01.JPG,AFNE01.JPG,AFNE01.JPG,,,,,,,,,,,,,,,,,,,,,2,4,24,9,,,AFNE10.jpg,AFNE18.jpg,AFSA12.jpg,AFSA04.jpg,AFSA04.jpg,FS,4,num_4,32,num_2,0.483469888102,,,2017_Nov_06_1502,60.0201555785,MAFE4ImagesEEG,001,102348,
AFNE01.JPG,AFNE01.JPG,AFNE01.JPG,AFNE01.JPG,AFNE01.JPG,AFNE01.JPG,,,,,,,,,,,,,,,,,,,,,2,5,25,4,,,AFSA07.jpg,AFSA03.jpg,AFNE09.jpg,AFNE19.jpg,AFNE19.jpg,FN,3,num_4,16,num_4,0.566716862377,,,2017_Nov_06_1502,60.0201555785,MAFE4ImagesEEG,001,102348,
AFNE01.JPG,AFNE01.JPG,AFNE01.JPG,AFNE01.JPG,AFNE01.JPG,AFNE01.JPG,,,,,,,,,,,,,,,,,,,,,2,6,26,6,,,AFNE03.jpg,AFNE04.jpg,AFSA18.jpg,AFSA15.jpg,AFSA15.jpg,FS,4,num_4,32,num_2,0.450121961301,,,2017_Nov_06_1502,60.0201555785,MAFE4ImagesEEG,001,102348,
AFNE01.JPG,AFNE01.JPG,AFNE01.JPG,AFNE01.JPG,AFNE01.JPG,AFNE01.JPG,,,,,,,,,,,,,,,,,,,,,2,7,27,3,,,AFSA15.jpg,AFNE10.jpg,AFNE15.jpg,AFSA17.jpg,AFNE10.jpg,FN,3,num_6,16,num_6,0.400187632535,,,2017_Nov_06_1502,60.0201555785,MAFE4ImagesEEG,001,102348,
AFNE01.JPG,AFNE01.JPG,AFNE01.JPG,AFNE01.JPG,AFNE01.JPG,AFNE01.JPG,,,,,,,,,,,,,,,,,,,,,2,8,28,1,,,AFSA05.jpg,AFNE20.jpg,AFNE18.jpg,AFSA17.jpg,AFNE20.jpg,FN,3,num_6,32,num_8,0.300139682135,,,2017_Nov_06_1502,60.0201555785,MAFE4ImagesEEG,001,102348,
AFNE01.JPG,AFNE01.JPG,AFNE01.JPG,AFNE01.JPG,AFNE01.JPG,AFNE01.JPG,,,,,,,,,,,,,,,,,,,,,2,9,29,7,,,AFSA04.jpg,AFNE12.jpg,AFNE14.jpg,AFSA03.jpg,AFNE14.jpg,FN,3,num_2,32,num_6,0.500157322735,,,2017_Nov_06_1502,60.0201555785,MAFE4ImagesEEG,001,102348,
AFNE01.JPG,AFNE01.JPG,AFNE01.JPG,AFNE01.JPG,AFNE01.JPG,AFNE01.JPG,,,,,,,,,,,,,,,,,,,,,3,0,30,8,,,AFNE16.jpg,AFSA20.jpg,AFNE10.jpg,AFSA08.jpg,AFSA08.jpg,FS,4,num_4,32,num_2,0.316820380976,,,2017_Nov_06_1502,60.0201555785,MAFE4ImagesEEG,001,102348,
AFNE01.JPG,AFNE01.JPG,AFNE01.JPG,AFNE01.JPG,AFNE01.JPG,AFNE01.JPG,,,,,,,,,,,,,,,,,,,,,3,1,31,6,,,AFSA12.jpg,AFNE01.jpg,AFSA04.jpg,AFNE06.jpg,AFNE06.jpg,FN,3,num_4,32,num_8,0.300178170903,,,2017_Nov_06_1502,60.0201555785,MAFE4ImagesEEG,001,102348,
AFNE01.JPG,AFNE01.JPG,AFNE01.JPG,AFNE01.JPG,AFNE01.JPG,AFNE01.JPG,,,,,,,,,,,,,,,,,,,,,3,2,32,2,,,AFNE01.jpg,AFSA14.jpg,AFNE19.jpg,AFSA02.jpg,AFNE19.jpg,FN,3,num_2,16,num_2,0.283463152591,,,2017_Nov_06_1502,60.0201555785,MAFE4ImagesEEG,001,102348,
AFNE01.JPG,AFNE01.JPG,AFNE01.JPG,AFNE01.JPG,AFNE01.JPG,AFNE01.JPG,,,,,,,,,,,,,,,,,,,,,3,3,33,9,,,AFNE18.jpg,AFSA12.jpg,AFNE01.jpg,AFSA09.jpg,AFSA09.jpg,FS,4,num_4,32,num_8,0.400166784413,,,2017_Nov_06_1502,60.0201555785,MAFE4ImagesEEG,001,102348,
AFNE01.JPG,AFNE01.JPG,AFNE01.JPG,AFNE01.JPG,AFNE01.JPG,AFNE01.JPG,,,,,,,,,,,,,,,,,,,,,3,4,34,1,,,AFSA10.jpg,AFNE03.jpg,AFNE06.jpg,AFSA04.jpg,AFSA10.jpg,FS,4,num_8,32,num_6,0.450118753826,,,2017_Nov_06_1502,60.0201555785,MAFE4ImagesEEG,001,102348,
AFNE01.JPG,AFNE01.JPG,AFNE01.JPG,AFNE01.JPG,AFNE01.JPG,AFNE01.JPG,,,,,,,,,,,,,,,,,,,,,3,5,35,0,,,AFNE17.jpg,AFSA11.jpg,AFNE11.jpg,AFSA19.jpg,AFSA11.jpg,FS,4,num_6,32,num_2,0.333489212673,,,2017_Nov_06_1502,60.0201555785,MAFE4ImagesEEG,001,102348,
AFNE01.JPG,AFNE01.JPG,AFNE01.JPG,AFNE01.JPG,AFNE01.JPG,AFNE01.JPG,,,,,,,,,,,,,,,,,,,,,3,6,36,4,,,AFSA09.jpg,AFNE19.jpg,AFNE18.jpg,AFSA07.jpg,AFNE19.jpg,FN,3,num_6,16,num_6,0.383469406981,,,2017_Nov_06_1502,60.0201555785,MAFE4ImagesEEG,001,102348,
AFNE01.JPG,AFNE01.JPG,AFNE01.JPG,AFNE01.JPG,AFNE01.JPG,AFNE01.JPG,,,,,,,,,,,,,,,,,,,,,3,7,37,7,,,AFNE06.jpg,AFSA11.jpg,AFSA07.jpg,AFNE10.jpg,AFSA11.jpg,FS,4,num_6,32,num_4,0.28355007316,,,2017_Nov_06_1502,60.0201555785,MAFE4ImagesEEG,001,102348,
AFNE01.JPG,AFNE01.JPG,AFNE01.JPG,AFNE01.JPG,AFNE01.JPG,AFNE01.JPG,,,,,,,,,,,,,,,,,,,,,3,8,38,5,,,AFNE19.jpg,AFSA14.jpg,AFSA04.jpg,AFNE02.jpg,AFNE02.jpg,FN,3,num_4,32,num_6,0.71678638272,,,2017_Nov_06_1502,60.0201555785,MAFE4ImagesEEG,001,102348,
