IPosition2,IPosition3,IPosition1,IPosition6,IPosition4,IPosition5,TrialsF1.thisRepN,TrialsF1.thisTrialN,TrialsF1.thisN,TrialsF1.thisIndex,TrialsM1.thisRepN,TrialsM1.thisTrialN,TrialsM1.thisN,TrialsM1.thisIndex,TrialsF2.thisRepN,TrialsF2.thisTrialN,TrialsF2.thisN,TrialsF2.thisIndex,TrialsM2.thisRepN,TrialsM2.thisTrialN,TrialsM2.thisN,TrialsM2.thisIndex,TrialsF3.thisRepN,TrialsF3.thisTrialN,TrialsF3.thisN,TrialsF3.thisIndex,TrialsM3.thisRepN,TrialsM3.thisTrialN,TrialsM3.thisN,TrialsM3.thisIndex,InstrKey_resp.keys,InstrKey_resp.rt,Image0 _Position,Image1 _Position,Image2 _Position,Image3 _Position,Center_image,condition,code,correct_answer,accuracy,Key_Resp.keys,Key_Resp.rt,BreakKey_resp.keys,BreakKey_resp.rt,date,frameRate,expName,session,participant,
,,,,,,,,,,,,,,,,,,,,,,,,,,,,,,space,8.61615661066,,,,,,,,,,,,,,2017_Nov_15_1311,60.0058315774,FEMA4ImagesEEG,001,102344,
AFNE23.JPG,AFNE24.JPG,AFNE22.JPG,AFSA24.JPG,AFSA22.JPG,AFSA23.JPG,0,0,0,8,,,,,,,,,,,,,,,,,,,,,,,AFNE14.jpg,AFNE09.jpg,AFSA03.jpg,AFSA13.jpg,AFNE09.jpg,FN,3,num_6,16,num_6,1.86706342176,,,2017_Nov_15_1311,60.0058315774,FEMA4ImagesEEG,001,102344,
AFSA21.JPG,AFNE23.JPG,AFNE21.JPG,AFSA25.JPG,AFNE25.JPG,AFSA23.JPG,0,1,1,4,,,,,,,,,,,,,,,,,,,,,,,AFNE18.jpg,AFSA08.jpg,AFNE13.jpg,AFSA04.jpg,AFSA08.jpg,FS,4,num_6,32,num_4,1.50006302539,,,2017_Nov_15_1311,60.0058315774,FEMA4ImagesEEG,001,102344,
AFSA25.JPG,AFNE24.JPG,AFSA24.JPG,AFNE21.JPG,AFSA21.JPG,AFNE25.JPG,0,2,2,2,,,,,,,,,,,,,,,,,,,,,,,AFNE08.jpg,AFSA06.jpg,AFNE11.jpg,AFSA03.jpg,AFNE11.jpg,FN,3,num_2,16,num_2,1.80007312866,,,2017_Nov_15_1311,60.0058315774,FEMA4ImagesEEG,001,102344,
AMSA21.JPG,AMNE22.JPG,AMNE21.JPG,AMSA23.JPG,AMSA22.JPG,AMNE23.JPG,0,3,3,1,,,,,,,,,,,,,,,,,,,,,,,AFSA03.jpg,AFSA13.jpg,AFNE02.jpg,AFNE06.jpg,AFNE02.jpg,FN,3,num_2,32,num_4,1.71666482231,,,2017_Nov_15_1311,60.0058315774,FEMA4ImagesEEG,001,102344,
AMNE23.JPG,AMNE24.JPG,AMNE22.JPG,AMSA24.JPG,AMSA22.JPG,AMSA23.JPG,0,4,4,9,,,,,,,,,,,,,,,,,,,,,,,AFNE09.jpg,AFNE13.jpg,AFSA17.jpg,AFSA14.jpg,AFSA17.jpg,FS,4,num_2,32,num_4,1.08348239679,,,2017_Nov_15_1311,60.0058315774,FEMA4ImagesEEG,001,102344,
AMSA25.JPG,AMNE24.JPG,AMSA24.JPG,AMNE26.JPG,AMSA21.JPG,AMNE25.JPG,0,5,5,3,,,,,,,,,,,,,,,,,,,,,,,AFNE14.jpg,AFSA06.jpg,AFSA02.jpg,AFNE11.jpg,AFSA06.jpg,FS,4,num_6,32,num_8,1.45005268138,,,2017_Nov_15_1311,60.0058315774,FEMA4ImagesEEG,001,102344,
AMNE22.JPG,AMSA24.JPG,AMSA22.JPG,AMNE25.JPG,AMNE24.JPG,AMSA25.JPG,0,6,6,7,,,,,,,,,,,,,,,,,,,,,,,AFNE20.jpg,AFSA19.jpg,AFNE01.jpg,AFSA12.jpg,AFSA12.jpg,FS,4,num_4,16,num_4,1.15009389631,,,2017_Nov_15_1311,60.0058315774,FEMA4ImagesEEG,001,102344,
AFSA21.JPG,AFNE22.JPG,AFNE21.JPG,AFSA23.JPG,AFSA22.JPG,AFNE23.JPG,0,7,7,0,,,,,,,,,,,,,,,,,,,,,,,AFSA16.jpg,AFSA14.jpg,AFNE20.jpg,AFNE14.jpg,AFNE14.jpg,FN,3,num_4,32,num_2,1.30022050813,,,2017_Nov_15_1311,60.0058315774,FEMA4ImagesEEG,001,102344,
AFNE22.JPG,AFSA24.JPG,AFSA22.JPG,AFNE25.JPG,AFNE24.JPG,AFSA25.JPG,0,8,8,6,,,,,,,,,,,,,,,,,,,,,,,AFNE01.jpg,AFSA10.jpg,AFSA17.jpg,AFNE10.jpg,AFNE01.jpg,FN,3,num_8,32,num_6,1.56671846611,,,2017_Nov_15_1311,60.0058315774,FEMA4ImagesEEG,001,102344,
AMSA21.JPG,AMNE23.JPG,AMNE21.JPG,AMSA25.JPG,AMNE25.JPG,AMSA23.JPG,0,9,9,5,,,,,,,,,,,,,,,,,,,,,,,AFSA08.jpg,AFNE02.jpg,AFSA13.jpg,AFNE11.jpg,AFSA13.jpg,FS,4,num_2,32,num_8,1.15010383911,,,2017_Nov_15_1311,60.0058315774,FEMA4ImagesEEG,001,102344,
AMSA21.JPG,AMNE23.JPG,AMNE21.JPG,AMSA25.JPG,AMNE25.JPG,AMSA23.JPG,,,,,0,0,0,5,,,,,,,,,,,,,,,,,,,AMSA12.jpg,AMNE08.jpg,AMSA20.jpg,AMNE01.jpg,AMSA12.jpg,MS,2,num_8,32,num_2,1.46669649519,,,2017_Nov_15_1311,60.0058315774,FEMA4ImagesEEG,001,102344,
AFSA21.JPG,AFNE22.JPG,AFNE21.JPG,AFSA23.JPG,AFSA22.JPG,AFNE23.JPG,,,,,0,1,1,0,,,,,,,,,,,,,,,,,,,AMNE14.jpg,AMSA14.jpg,AMSA03.jpg,AMNE06.jpg,AMSA14.jpg,MS,2,num_6,32,num_8,1.20008563716,,,2017_Nov_15_1311,60.0058315774,FEMA4ImagesEEG,001,102344,
AMSA25.JPG,AMNE24.JPG,AMSA24.JPG,AMNE26.JPG,AMSA21.JPG,AMNE25.JPG,,,,,0,2,2,3,,,,,,,,,,,,,,,,,,,AMSA19.jpg,AMNE13.jpg,AMSA05.jpg,AMNE04.jpg,AMSA05.jpg,MS,2,num_2,32,num_6,1.36672937125,,,2017_Nov_15_1311,60.0058315774,FEMA4ImagesEEG,001,102344,
AFNE22.JPG,AFSA24.JPG,AFSA22.JPG,AFNE25.JPG,AFNE24.JPG,AFSA25.JPG,,,,,0,3,3,6,,,,,,,,,,,,,,,,,,,AMNE11.jpg,AMSA04.jpg,AMNE18.jpg,AMSA01.jpg,AMSA01.jpg,MS,2,num_4,16,num_4,1.23339283047,,,2017_Nov_15_1311,60.0058315774,FEMA4ImagesEEG,001,102344,
AMNE22.JPG,AMSA24.JPG,AMSA22.JPG,AMNE25.JPG,AMNE24.JPG,AMSA25.JPG,,,,,0,4,4,7,,,,,,,,,,,,,,,,,,,AMSA16.jpg,AMNE14.jpg,AMSA01.jpg,AMNE16.jpg,AMNE14.jpg,MN,1,num_6,32,num_4,2.01665568119,,,2017_Nov_15_1311,60.0058315774,FEMA4ImagesEEG,001,102344,
AMSA21.JPG,AMNE22.JPG,AMNE21.JPG,AMSA23.JPG,AMSA22.JPG,AMNE23.JPG,,,,,0,5,5,1,,,,,,,,,,,,,,,,,,,AMNE09.jpg,AMSA20.jpg,AMSA19.jpg,AMNE06.jpg,AMSA20.jpg,MS,2,num_6,32,num_2,1.35017343983,,,2017_Nov_15_1311,60.0058315774,FEMA4ImagesEEG,001,102344,
AFSA25.JPG,AFNE24.JPG,AFSA24.JPG,AFNE21.JPG,AFSA21.JPG,AFNE25.JPG,,,,,0,6,6,2,,,,,,,,,,,,,,,,,,,AMSA17.jpg,AMSA01.jpg,AMNE02.jpg,AMNE10.jpg,AMSA17.jpg,MS,2,num_8,32,num_4,0.950198457576,,,2017_Nov_15_1311,60.0058315774,FEMA4ImagesEEG,001,102344,
AMNE23.JPG,AMNE24.JPG,AMNE22.JPG,AMSA24.JPG,AMSA22.JPG,AMSA23.JPG,,,,,0,7,7,9,,,,,,,,,,,,,,,,,,,AMSA12.jpg,AMSA06.jpg,AMNE07.jpg,AMNE01.jpg,AMNE01.jpg,MN,1,num_4,48,None,,,,2017_Nov_15_1311,60.0058315774,FEMA4ImagesEEG,001,102344,
AFSA21.JPG,AFNE23.JPG,AFNE21.JPG,AFSA25.JPG,AFNE25.JPG,AFSA23.JPG,,,,,0,8,8,4,,,,,,,,,,,,,,,,,,,AMNE20.jpg,AMSA03.jpg,AMSA07.jpg,AMNE02.jpg,AMNE20.jpg,MN,1,num_8,32,num_6,1.36672840919,,,2017_Nov_15_1311,60.0058315774,FEMA4ImagesEEG,001,102344,
AFNE23.JPG,AFNE24.JPG,AFNE22.JPG,AFSA24.JPG,AFSA22.JPG,AFSA23.JPG,,,,,0,9,9,8,,,,,,,,,,,,,,,,,,,AMSA11.jpg,AMNE20.jpg,AMSA01.jpg,AMNE04.jpg,AMSA01.jpg,MS,2,num_2,16,num_2,1.70003929036,,,2017_Nov_15_1311,60.0058315774,FEMA4ImagesEEG,001,102344,
AFSA25.JPG,AFNE24.JPG,AFSA24.JPG,AFNE21.JPG,AFSA21.JPG,AFNE25.JPG,,,,,,,,,0,0,0,2,,,,,,,,,,,,,,,AFSA10.jpg,AFSA09.jpg,AFNE15.jpg,AFNE18.jpg,AFNE18.jpg,FN,3,num_4,32,num_2,1.60006318567,,,2017_Nov_15_1311,60.0058315774,FEMA4ImagesEEG,001,102344,
AFNE22.JPG,AFSA24.JPG,AFSA22.JPG,AFNE25.JPG,AFNE24.JPG,AFSA25.JPG,,,,,,,,,0,1,1,6,,,,,,,,,,,,,,,AFSA20.jpg,AFNE10.jpg,AFNE16.jpg,AFSA01.jpg,AFSA01.jpg,FS,4,num_4,32,num_8,1.15045504924,,,2017_Nov_15_1311,60.0058315774,FEMA4ImagesEEG,001,102344,
AMSA25.JPG,AMNE24.JPG,AMSA24.JPG,AMNE26.JPG,AMSA21.JPG,AMNE25.JPG,,,,,,,,,0,2,2,3,,,,,,,,,,,,,,,AFSA15.jpg,AFSA02.jpg,AFNE11.jpg,AFNE09.jpg,AFSA15.jpg,FS,4,num_8,32,num_2,1.08339868393,,,2017_Nov_15_1311,60.0058315774,FEMA4ImagesEEG,001,102344,
AMSA21.JPG,AMNE23.JPG,AMNE21.JPG,AMSA25.JPG,AMNE25.JPG,AMSA23.JPG,,,,,,,,,0,3,3,5,,,,,,,,,,,,,,,AFNE16.jpg,AFNE17.jpg,AFSA11.jpg,AFSA06.jpg,AFSA06.jpg,FS,4,num_4,16,num_4,1.10009991052,,,2017_Nov_15_1311,60.0058315774,FEMA4ImagesEEG,001,102344,
AFSA21.JPG,AFNE22.JPG,AFNE21.JPG,AFSA23.JPG,AFSA22.JPG,AFNE23.JPG,,,,,,,,,0,4,4,0,,,,,,,,,,,,,,,AFNE08.jpg,AFSA13.jpg,AFSA18.jpg,AFNE19.jpg,AFSA18.jpg,FS,4,num_2,32,num_8,1.73339683982,,,2017_Nov_15_1311,60.0058315774,FEMA4ImagesEEG,001,102344,
AMNE23.JPG,AMNE24.JPG,AMNE22.JPG,AMSA24.JPG,AMSA22.JPG,AMSA23.JPG,,,,,,,,,0,5,5,9,,,,,,,,,,,,,,,AFSA07.jpg,AFSA09.jpg,AFNE10.jpg,AFNE09.jpg,AFNE10.jpg,FN,3,num_2,32,num_4,1.70006687427,,,2017_Nov_15_1311,60.0058315774,FEMA4ImagesEEG,001,102344,
AFNE23.JPG,AFNE24.JPG,AFNE22.JPG,AFSA24.JPG,AFSA22.JPG,AFSA23.JPG,,,,,,,,,0,6,6,8,,,,,,,,,,,,,,,AFNE01.jpg,AFSA17.jpg,AFNE03.jpg,AFSA05.jpg,AFNE01.jpg,FN,3,num_8,16,num_8,0.983440540265,,,2017_Nov_15_1311,60.0058315774,FEMA4ImagesEEG,001,102344,
AFSA21.JPG,AFNE23.JPG,AFNE21.JPG,AFSA25.JPG,AFNE25.JPG,AFSA23.JPG,,,,,,,,,0,7,7,4,,,,,,,,,,,,,,,AFSA16.jpg,AFNE11.jpg,AFSA15.jpg,AFNE09.jpg,AFNE11.jpg,FN,3,num_6,32,num_2,1.36672391882,,,2017_Nov_15_1311,60.0058315774,FEMA4ImagesEEG,001,102344,
AMNE22.JPG,AMSA24.JPG,AMSA22.JPG,AMNE25.JPG,AMNE24.JPG,AMSA25.JPG,,,,,,,,,0,8,8,7,,,,,,,,,,,,,,,AFSA02.jpg,AFNE01.jpg,AFNE03.jpg,AFSA07.jpg,AFNE01.jpg,FN,3,num_6,32,num_4,1.6500841137,,,2017_Nov_15_1311,60.0058315774,FEMA4ImagesEEG,001,102344,
AMSA21.JPG,AMNE22.JPG,AMNE21.JPG,AMSA23.JPG,AMSA22.JPG,AMNE23.JPG,,,,,,,,,0,9,9,1,,,,,,,,,,,,,,,AFNE05.jpg,AFNE17.jpg,AFSA01.jpg,AFSA12.jpg,AFNE05.jpg,FN,3,num_8,32,num_2,1.10005949717,,,2017_Nov_15_1311,60.0058315774,FEMA4ImagesEEG,001,102344,
AMSA25.JPG,AMNE24.JPG,AMSA24.JPG,AMNE26.JPG,AMSA21.JPG,AMNE25.JPG,,,,,,,,,,,,,0,0,0,3,,,,,,,,,,,AMSA04.jpg,AMSA11.jpg,AMNE18.jpg,AMNE17.jpg,AMSA11.jpg,MS,2,num_6,32,num_4,1.08347918978,,,2017_Nov_15_1311,60.0058315774,FEMA4ImagesEEG,001,102344,
AMSA21.JPG,AMNE23.JPG,AMNE21.JPG,AMSA25.JPG,AMNE25.JPG,AMSA23.JPG,,,,,,,,,,,,,0,1,1,5,,,,,,,,,,,AMSA01.jpg,AMNE13.jpg,AMSA18.jpg,AMNE14.jpg,AMSA01.jpg,MS,2,num_8,32,num_2,1.93337438814,,,2017_Nov_15_1311,60.0058315774,FEMA4ImagesEEG,001,102344,
AMNE22.JPG,AMSA24.JPG,AMSA22.JPG,AMNE25.JPG,AMNE24.JPG,AMSA25.JPG,,,,,,,,,,,,,0,2,2,7,,,,,,,,,,,AMNE12.jpg,AMNE20.jpg,AMSA17.jpg,AMSA11.jpg,AMNE12.jpg,MN,1,num_8,16,num_8,1.85006583156,,,2017_Nov_15_1311,60.0058315774,FEMA4ImagesEEG,001,102344,
AMNE23.JPG,AMNE24.JPG,AMNE22.JPG,AMSA24.JPG,AMSA22.JPG,AMSA23.JPG,,,,,,,,,,,,,0,3,3,9,,,,,,,,,,,AMNE13.jpg,AMSA15.jpg,AMSA08.jpg,AMNE01.jpg,AMSA08.jpg,MS,2,num_2,16,num_2,1.6167730717,,,2017_Nov_15_1311,60.0058315774,FEMA4ImagesEEG,001,102344,
AFSA21.JPG,AFNE22.JPG,AFNE21.JPG,AFSA23.JPG,AFSA22.JPG,AFNE23.JPG,,,,,,,,,,,,,0,4,4,0,,,,,,,,,,,AMSA09.jpg,AMNE03.jpg,AMNE10.jpg,AMSA11.jpg,AMNE03.jpg,MN,1,num_6,32,num_2,1.40007120417,,,2017_Nov_15_1311,60.0058315774,FEMA4ImagesEEG,001,102344,
AFSA25.JPG,AFNE24.JPG,AFSA24.JPG,AFNE21.JPG,AFSA21.JPG,AFNE25.JPG,,,,,,,,,,,,,0,5,5,2,,,,,,,,,,,AMSA03.jpg,AMNE01.jpg,AMSA17.jpg,AMNE02.jpg,AMNE01.jpg,MN,1,num_6,32,num_4,2.93328810902,,,2017_Nov_15_1311,60.0058315774,FEMA4ImagesEEG,001,102344,
AFNE23.JPG,AFNE24.JPG,AFNE22.JPG,AFSA24.JPG,AFSA22.JPG,AFSA23.JPG,,,,,,,,,,,,,0,6,6,8,,,,,,,,,,,AMSA18.jpg,AMSA16.jpg,AMNE14.jpg,AMNE17.jpg,AMSA16.jpg,MS,2,num_6,16,num_6,2.0497066034,,,2017_Nov_15_1311,60.0058315774,FEMA4ImagesEEG,001,102344,
AFSA21.JPG,AFNE23.JPG,AFNE21.JPG,AFSA25.JPG,AFNE25.JPG,AFSA23.JPG,,,,,,,,,,,,,0,7,7,4,,,,,,,,,,,AMSA19.jpg,AMSA06.jpg,AMNE06.jpg,AMNE11.jpg,AMSA19.jpg,MS,2,num_8,32,num_4,1.26671541901,,,2017_Nov_15_1311,60.0058315774,FEMA4ImagesEEG,001,102344,
AMSA21.JPG,AMNE22.JPG,AMNE21.JPG,AMSA23.JPG,AMSA22.JPG,AMNE23.JPG,,,,,,,,,,,,,0,8,8,1,,,,,,,,,,,AMNE16.jpg,AMNE19.jpg,AMSA03.jpg,AMSA20.jpg,AMNE19.jpg,MN,1,num_6,16,num_6,2.08337494917,,,2017_Nov_15_1311,60.0058315774,FEMA4ImagesEEG,001,102344,
AFNE22.JPG,AFSA24.JPG,AFSA22.JPG,AFNE25.JPG,AFNE24.JPG,AFSA25.JPG,,,,,,,,,,,,,0,9,9,6,,,,,,,,,,,AMNE02.jpg,AMSA02.jpg,AMNE16.jpg,AMSA19.jpg,AMNE16.jpg,MN,1,num_2,32,num_8,2.90029844828,,,2017_Nov_15_1311,60.0058315774,FEMA4ImagesEEG,001,102344,
AFSA21.JPG,AFNE23.JPG,AFNE21.JPG,AFSA25.JPG,AFNE25.JPG,AFSA23.JPG,,,,,,,,,,,,,,,,,0,0,0,4,,,,,,,AFNE03.jpg,AFSA04.jpg,AFSA12.jpg,AFNE17.jpg,AFSA12.jpg,FS,4,num_2,16,num_2,2.13336187927,,,2017_Nov_15_1311,60.0058315774,FEMA4ImagesEEG,001,102344,
AMSA21.JPG,AMNE22.JPG,AMNE21.JPG,AMSA23.JPG,AMSA22.JPG,AMNE23.JPG,,,,,,,,,,,,,,,,,0,1,1,1,,,,,,,AFNE04.jpg,AFSA14.jpg,AFNE12.jpg,AFSA08.jpg,AFSA08.jpg,FS,4,num_4,16,num_4,1.43342233868,,,2017_Nov_15_1311,60.0058315774,FEMA4ImagesEEG,001,102344,
AFSA25.JPG,AFNE24.JPG,AFSA24.JPG,AFNE21.JPG,AFSA21.JPG,AFNE25.JPG,,,,,,,,,,,,,,,,,0,2,2,2,,,,,,,AFNE07.jpg,AFNE01.jpg,AFSA07.jpg,AFSA01.jpg,AFSA01.jpg,FS,4,num_4,32,num_2,1.4167470918,,,2017_Nov_15_1311,60.0058315774,FEMA4ImagesEEG,001,102344,
AMSA25.JPG,AMNE24.JPG,AMSA24.JPG,AMNE26.JPG,AMSA21.JPG,AMNE25.JPG,,,,,,,,,,,,,,,,,0,3,3,3,,,,,,,AFNE17.jpg,AFSA04.jpg,AFNE08.jpg,AFSA17.jpg,AFSA17.jpg,FS,4,num_4,32,num_6,1.51670266967,,,2017_Nov_15_1311,60.0058315774,FEMA4ImagesEEG,001,102344,
AFSA21.JPG,AFNE22.JPG,AFNE21.JPG,AFSA23.JPG,AFSA22.JPG,AFNE23.JPG,,,,,,,,,,,,,,,,,0,4,4,0,,,,,,,AFNE04.jpg,AFSA09.jpg,AFNE05.jpg,AFSA04.jpg,AFSA04.jpg,FS,4,num_4,16,num_4,1.13341383915,,,2017_Nov_15_1311,60.0058315774,FEMA4ImagesEEG,001,102344,
AMNE22.JPG,AMSA24.JPG,AMSA22.JPG,AMNE25.JPG,AMNE24.JPG,AMSA25.JPG,,,,,,,,,,,,,,,,,0,5,5,7,,,,,,,AFNE05.jpg,AFSA15.jpg,AFNE04.jpg,AFSA20.jpg,AFNE05.jpg,FN,3,num_8,16,num_8,1.78341424,,,2017_Nov_15_1311,60.0058315774,FEMA4ImagesEEG,001,102344,
AMNE23.JPG,AMNE24.JPG,AMNE22.JPG,AMSA24.JPG,AMSA22.JPG,AMSA23.JPG,,,,,,,,,,,,,,,,,0,6,6,9,,,,,,,AFNE13.jpg,AFSA13.jpg,AFNE16.jpg,AFSA18.jpg,AFNE16.jpg,FN,3,num_2,32,num_8,1.55006278493,,,2017_Nov_15_1311,60.0058315774,FEMA4ImagesEEG,001,102344,
AMSA21.JPG,AMNE23.JPG,AMNE21.JPG,AMSA25.JPG,AMNE25.JPG,AMSA23.JPG,,,,,,,,,,,,,,,,,0,7,7,5,,,,,,,AFSA10.jpg,AFSA07.jpg,AFNE15.jpg,AFNE20.jpg,AFSA10.jpg,FS,4,num_8,32,num_4,2.1667296919,,,2017_Nov_15_1311,60.0058315774,FEMA4ImagesEEG,001,102344,
AFNE22.JPG,AFSA24.JPG,AFSA22.JPG,AFNE25.JPG,AFNE24.JPG,AFSA25.JPG,,,,,,,,,,,,,,,,,0,8,8,6,,,,,,,AFSA15.jpg,AFSA08.jpg,AFNE04.jpg,AFNE01.jpg,AFNE01.jpg,FN,3,num_4,32,num_8,1.8500549267,,,2017_Nov_15_1311,60.0058315774,FEMA4ImagesEEG,001,102344,
AFNE23.JPG,AFNE24.JPG,AFNE22.JPG,AFSA24.JPG,AFSA22.JPG,AFSA23.JPG,,,,,,,,,,,,,,,,,0,9,9,8,,,,,,,AFSA20.jpg,AFSA05.jpg,AFNE14.jpg,AFNE01.jpg,AFNE01.jpg,FN,3,num_4,16,num_4,2.21665856801,,,2017_Nov_15_1311,60.0058315774,FEMA4ImagesEEG,001,102344,
AMSA21.JPG,AMNE23.JPG,AMNE21.JPG,AMSA25.JPG,AMNE25.JPG,AMSA23.JPG,,,,,,,,,,,,,,,,,,,,,0,0,0,5,,,AMNE13.jpg,AMSA04.jpg,AMSA13.jpg,AMNE16.jpg,AMSA13.jpg,MS,2,num_2,32,num_8,1.80005516717,,,2017_Nov_15_1311,60.0058315774,FEMA4ImagesEEG,001,102344,
AFSA21.JPG,AFNE22.JPG,AFNE21.JPG,AFSA23.JPG,AFSA22.JPG,AFNE23.JPG,,,,,,,,,,,,,,,,,,,,,0,1,1,0,,,AMSA03.jpg,AMNE10.jpg,AMSA12.jpg,AMNE16.jpg,AMNE16.jpg,MN,1,num_4,32,num_6,0.950121800881,,,2017_Nov_15_1311,60.0058315774,FEMA4ImagesEEG,001,102344,
AFSA25.JPG,AFNE24.JPG,AFSA24.JPG,AFNE21.JPG,AFSA21.JPG,AFNE25.JPG,,,,,,,,,,,,,,,,,,,,,0,2,2,2,,,AMSA05.jpg,AMNE03.jpg,AMSA16.jpg,AMNE04.jpg,AMNE04.jpg,MN,1,num_4,16,num_4,1.31674436573,,,2017_Nov_15_1311,60.0058315774,FEMA4ImagesEEG,001,102344,
AFSA21.JPG,AFNE23.JPG,AFNE21.JPG,AFSA25.JPG,AFNE25.JPG,AFSA23.JPG,,,,,,,,,,,,,,,,,,,,,0,3,3,4,,,AMNE10.jpg,AMSA11.jpg,AMSA07.jpg,AMNE16.jpg,AMSA07.jpg,MS,2,num_2,32,num_4,1.83340662206,,,2017_Nov_15_1311,60.0058315774,FEMA4ImagesEEG,001,102344,
AFNE22.JPG,AFSA24.JPG,AFSA22.JPG,AFNE25.JPG,AFNE24.JPG,AFSA25.JPG,,,,,,,,,,,,,,,,,,,,,0,4,4,6,,,AMNE14.jpg,AMNE02.jpg,AMSA15.jpg,AMSA18.jpg,AMNE14.jpg,MN,1,num_8,16,num_8,1.3334135185,,,2017_Nov_15_1311,60.0058315774,FEMA4ImagesEEG,001,102344,
AMNE22.JPG,AMSA24.JPG,AMSA22.JPG,AMNE25.JPG,AMNE24.JPG,AMSA25.JPG,,,,,,,,,,,,,,,,,,,,,0,5,5,7,,,AMNE13.jpg,AMSA09.jpg,AMNE05.jpg,AMSA03.jpg,AMNE05.jpg,MN,1,num_2,16,num_2,2.73302542372,,,2017_Nov_15_1311,60.0058315774,FEMA4ImagesEEG,001,102344,
AMSA21.JPG,AMNE22.JPG,AMNE21.JPG,AMSA23.JPG,AMSA22.JPG,AMNE23.JPG,,,,,,,,,,,,,,,,,,,,,0,6,6,1,,,AMSA05.jpg,AMNE02.jpg,AMNE10.jpg,AMSA18.jpg,AMSA05.jpg,MS,2,num_8,32,num_4,1.01677307207,,,2017_Nov_15_1311,60.0058315774,FEMA4ImagesEEG,001,102344,
AMSA25.JPG,AMNE24.JPG,AMSA24.JPG,AMNE26.JPG,AMSA21.JPG,AMNE25.JPG,,,,,,,,,,,,,,,,,,,,,0,7,7,3,,,AMNE11.jpg,AMNE17.jpg,AMSA07.jpg,AMSA18.jpg,AMSA18.jpg,MS,2,num_4,16,num_4,1.60004169634,,,2017_Nov_15_1311,60.0058315774,FEMA4ImagesEEG,001,102344,
AFNE23.JPG,AFNE24.JPG,AFNE22.JPG,AFSA24.JPG,AFSA22.JPG,AFSA23.JPG,,,,,,,,,,,,,,,,,,,,,0,8,8,8,,,AMSA18.jpg,AMNE13.jpg,AMNE11.jpg,AMSA17.jpg,AMSA18.jpg,MS,2,num_8,16,num_8,0.833734097425,,,2017_Nov_15_1311,60.0058315774,FEMA4ImagesEEG,001,102344,
AMNE23.JPG,AMNE24.JPG,AMNE22.JPG,AMSA24.JPG,AMSA22.JPG,AMSA23.JPG,,,,,,,,,,,,,,,,,,,,,0,9,9,9,,,AMSA15.jpg,AMNE15.jpg,AMNE08.jpg,AMSA09.jpg,AMSA15.jpg,MS,2,num_8,16,num_8,0.98356659105,,,2017_Nov_15_1311,60.0058315774,FEMA4ImagesEEG,001,102344,
,,,,,,,,,,,,,,,,,,,,,,,,,,,,,,,,,,,,,,,,,,,space,13.7824051934,2017_Nov_15_1311,60.0058315774,FEMA4ImagesEEG,001,102344,
AFNE01.JPG,AFNE01.JPG,AFNE01.JPG,AFNE01.JPG,AFNE01.JPG,AFNE01.JPG,0,0,0,2,,,,,,,,,,,,,,,,,,,,,,,AFSA12.jpg,AFNE14.jpg,AFSA08.jpg,AFNE05.jpg,AFNE14.jpg,FN,3,num_6,32,num_8,2.01666498277,,,2017_Nov_15_1311,60.0058315774,FEMA4ImagesEEG,001,102344,
AFNE01.JPG,AFNE01.JPG,AFNE01.JPG,AFNE01.JPG,AFNE01.JPG,AFNE01.JPG,0,1,1,3,,,,,,,,,,,,,,,,,,,,,,,AFNE18.jpg,AFSA02.jpg,AFNE13.jpg,AFSA06.jpg,AFNE18.jpg,FN,3,num_8,32,num_6,1.30015796423,,,2017_Nov_15_1311,60.0058315774,FEMA4ImagesEEG,001,102344,
AFNE01.JPG,AFNE01.JPG,AFNE01.JPG,AFNE01.JPG,AFNE01.JPG,AFNE01.JPG,0,2,2,8,,,,,,,,,,,,,,,,,,,,,,,AFNE02.jpg,AFSA13.jpg,AFSA18.jpg,AFNE17.jpg,AFSA13.jpg,FS,4,num_6,32,num_4,2.28339708038,,,2017_Nov_15_1311,60.0058315774,FEMA4ImagesEEG,001,102344,
AFNE01.JPG,AFNE01.JPG,AFNE01.JPG,AFNE01.JPG,AFNE01.JPG,AFNE01.JPG,0,3,3,4,,,,,,,,,,,,,,,,,,,,,,,AFNE15.jpg,AFNE13.jpg,AFSA15.jpg,AFSA14.jpg,AFNE13.jpg,FN,3,num_6,32,num_2,2.41671373509,,,2017_Nov_15_1311,60.0058315774,FEMA4ImagesEEG,001,102344,
AFNE01.JPG,AFNE01.JPG,AFNE01.JPG,AFNE01.JPG,AFNE01.JPG,AFNE01.JPG,0,4,4,0,,,,,,,,,,,,,,,,,,,,,,,AFNE11.jpg,AFNE04.jpg,AFSA14.jpg,AFSA13.jpg,AFSA13.jpg,FS,4,num_4,32,num_6,1.65008988697,,,2017_Nov_15_1311,60.0058315774,FEMA4ImagesEEG,001,102344,
AFNE01.JPG,AFNE01.JPG,AFNE01.JPG,AFNE01.JPG,AFNE01.JPG,AFNE01.JPG,0,5,5,9,,,,,,,,,,,,,,,,,,,,,,,AFSA17.jpg,AFNE18.jpg,AFSA09.jpg,AFNE10.jpg,AFNE10.jpg,FN,3,num_4,32,num_8,1.46672279621,,,2017_Nov_15_1311,60.0058315774,FEMA4ImagesEEG,001,102344,
AFNE01.JPG,AFNE01.JPG,AFNE01.JPG,AFNE01.JPG,AFNE01.JPG,AFNE01.JPG,0,6,6,1,,,,,,,,,,,,,,,,,,,,,,,AFNE12.jpg,AFNE08.jpg,AFSA19.jpg,AFSA01.jpg,AFNE12.jpg,FN,3,num_8,32,num_4,1.03346339334,,,2017_Nov_15_1311,60.0058315774,FEMA4ImagesEEG,001,102344,
AFNE01.JPG,AFNE01.JPG,AFNE01.JPG,AFNE01.JPG,AFNE01.JPG,AFNE01.JPG,0,7,7,7,,,,,,,,,,,,,,,,,,,,,,,AFSA09.jpg,AFNE15.jpg,AFSA16.jpg,AFNE03.jpg,AFNE15.jpg,FN,3,num_6,16,num_6,0.833510862663,,,2017_Nov_15_1311,60.0058315774,FEMA4ImagesEEG,001,102344,
AFNE01.JPG,AFNE01.JPG,AFNE01.JPG,AFNE01.JPG,AFNE01.JPG,AFNE01.JPG,0,8,8,6,,,,,,,,,,,,,,,,,,,,,,,AFNE01.jpg,AFNE05.jpg,AFSA07.jpg,AFSA05.jpg,AFSA05.jpg,FS,4,num_4,32,num_2,1.26672504097,,,2017_Nov_15_1311,60.0058315774,FEMA4ImagesEEG,001,102344,
AFNE01.JPG,AFNE01.JPG,AFNE01.JPG,AFNE01.JPG,AFNE01.JPG,AFNE01.JPG,0,9,9,5,,,,,,,,,,,,,,,,,,,,,,,AFSA17.jpg,AFNE09.jpg,AFNE03.jpg,AFSA12.jpg,AFSA17.jpg,FS,4,num_8,16,num_8,1.10009413678,,,2017_Nov_15_1311,60.0058315774,FEMA4ImagesEEG,001,102344,
AFNE01.JPG,AFNE01.JPG,AFNE01.JPG,AFNE01.JPG,AFNE01.JPG,AFNE01.JPG,1,0,10,9,,,,,,,,,,,,,,,,,,,,,,,AFSA20.jpg,AFNE18.jpg,AFNE16.jpg,AFSA09.jpg,AFNE18.jpg,FN,3,num_6,32,num_2,1.28343107831,,,2017_Nov_15_1311,60.0058315774,FEMA4ImagesEEG,001,102344,
AFNE01.JPG,AFNE01.JPG,AFNE01.JPG,AFNE01.JPG,AFNE01.JPG,AFNE01.JPG,1,1,11,1,,,,,,,,,,,,,,,,,,,,,,,AFNE18.jpg,AFSA10.jpg,AFSA06.jpg,AFNE15.jpg,AFNE18.jpg,FN,3,num_8,32,num_6,1.23325972352,,,2017_Nov_15_1311,60.0058315774,FEMA4ImagesEEG,001,102344,
AFNE01.JPG,AFNE01.JPG,AFNE01.JPG,AFNE01.JPG,AFNE01.JPG,AFNE01.JPG,1,2,12,5,,,,,,,,,,,,,,,,,,,,,,,AFSA03.jpg,AFSA17.jpg,AFNE12.jpg,AFNE01.jpg,AFSA03.jpg,FS,4,num_8,32,num_6,1.05009052902,,,2017_Nov_15_1311,60.0058315774,FEMA4ImagesEEG,001,102344,
AFNE01.JPG,AFNE01.JPG,AFNE01.JPG,AFNE01.JPG,AFNE01.JPG,AFNE01.JPG,1,3,13,7,,,,,,,,,,,,,,,,,,,,,,,AFNE03.jpg,AFSA14.jpg,AFSA16.jpg,AFNE10.jpg,AFNE10.jpg,FN,3,num_4,16,num_4,0.716756874695,,,2017_Nov_15_1311,60.0058315774,FEMA4ImagesEEG,001,102344,
AFNE01.JPG,AFNE01.JPG,AFNE01.JPG,AFNE01.JPG,AFNE01.JPG,AFNE01.JPG,1,4,14,6,,,,,,,,,,,,,,,,,,,,,,,AFSA09.jpg,AFSA03.jpg,AFNE16.jpg,AFNE20.jpg,AFNE16.jpg,FN,3,num_2,32,num_8,1.33344430896,,,2017_Nov_15_1311,60.0058315774,FEMA4ImagesEEG,001,102344,
AFNE01.JPG,AFNE01.JPG,AFNE01.JPG,AFNE01.JPG,AFNE01.JPG,AFNE01.JPG,1,5,15,8,,,,,,,,,,,,,,,,,,,,,,,AFSA01.jpg,AFNE20.jpg,AFSA19.jpg,AFNE14.jpg,AFSA19.jpg,FS,4,num_2,16,num_2,1.43349193875,,,2017_Nov_15_1311,60.0058315774,FEMA4ImagesEEG,001,102344,
AFNE01.JPG,AFNE01.JPG,AFNE01.JPG,AFNE01.JPG,AFNE01.JPG,AFNE01.JPG,1,6,16,0,,,,,,,,,,,,,,,,,,,,,,,AFSA14.jpg,AFNE13.jpg,AFNE14.jpg,AFSA07.jpg,AFSA07.jpg,FS,4,num_4,32,num_8,2.13338336861,,,2017_Nov_15_1311,60.0058315774,FEMA4ImagesEEG,001,102344,
AFNE01.JPG,AFNE01.JPG,AFNE01.JPG,AFNE01.JPG,AFNE01.JPG,AFNE01.JPG,1,7,17,2,,,,,,,,,,,,,,,,,,,,,,,AFSA16.jpg,AFSA01.jpg,AFNE17.jpg,AFNE13.jpg,AFNE13.jpg,FN,3,num_4,32,num_6,1.13347510016,,,2017_Nov_15_1311,60.0058315774,FEMA4ImagesEEG,001,102344,
AFNE01.JPG,AFNE01.JPG,AFNE01.JPG,AFNE01.JPG,AFNE01.JPG,AFNE01.JPG,1,8,18,4,,,,,,,,,,,,,,,,,,,,,,,AFSA05.jpg,AFNE16.jpg,AFNE14.jpg,AFSA10.jpg,AFNE14.jpg,FN,3,num_2,32,num_4,1.56677363347,,,2017_Nov_15_1311,60.0058315774,FEMA4ImagesEEG,001,102344,
AFNE01.JPG,AFNE01.JPG,AFNE01.JPG,AFNE01.JPG,AFNE01.JPG,AFNE01.JPG,1,9,19,3,,,,,,,,,,,,,,,,,,,,,,,AFNE01.jpg,AFSA04.jpg,AFNE02.jpg,AFSA07.jpg,AFSA04.jpg,FS,4,num_6,32,num_2,1.45012645144,,,2017_Nov_15_1311,60.0058315774,FEMA4ImagesEEG,001,102344,
AFNE01.JPG,AFNE01.JPG,AFNE01.JPG,AFNE01.JPG,AFNE01.JPG,AFNE01.JPG,2,0,20,4,,,,,,,,,,,,,,,,,,,,,,,AFNE13.jpg,AFNE15.jpg,AFSA07.jpg,AFSA14.jpg,AFSA07.jpg,FS,4,num_2,32,num_8,1.11686913343,,,2017_Nov_15_1311,60.0058315774,FEMA4ImagesEEG,001,102344,
AFNE01.JPG,AFNE01.JPG,AFNE01.JPG,AFNE01.JPG,AFNE01.JPG,AFNE01.JPG,2,1,21,6,,,,,,,,,,,,,,,,,,,,,,,AFNE15.jpg,AFNE20.jpg,AFSA19.jpg,AFSA10.jpg,AFSA19.jpg,FS,4,num_2,32,num_4,1.21670828247,,,2017_Nov_15_1311,60.0058315774,FEMA4ImagesEEG,001,102344,
AFNE01.JPG,AFNE01.JPG,AFNE01.JPG,AFNE01.JPG,AFNE01.JPG,AFNE01.JPG,2,2,22,9,,,,,,,,,,,,,,,,,,,,,,,AFNE20.jpg,AFNE07.jpg,AFSA02.jpg,AFSA01.jpg,AFNE07.jpg,FN,3,num_6,16,num_6,0.883426909335,,,2017_Nov_15_1311,60.0058315774,FEMA4ImagesEEG,001,102344,
AFNE01.JPG,AFNE01.JPG,AFNE01.JPG,AFNE01.JPG,AFNE01.JPG,AFNE01.JPG,2,3,23,5,,,,,,,,,,,,,,,,,,,,,,,AFNE14.jpg,AFSA08.jpg,AFNE07.jpg,AFSA06.jpg,AFNE07.jpg,FN,3,num_2,32,num_8,0.950108970981,,,2017_Nov_15_1311,60.0058315774,FEMA4ImagesEEG,001,102344,
AFNE01.JPG,AFNE01.JPG,AFNE01.JPG,AFNE01.JPG,AFNE01.JPG,AFNE01.JPG,2,4,24,2,,,,,,,,,,,,,,,,,,,,,,,AFNE08.jpg,AFNE14.jpg,AFSA17.jpg,AFSA02.jpg,AFNE14.jpg,FN,3,num_6,16,num_6,0.98347646324,,,2017_Nov_15_1311,60.0058315774,FEMA4ImagesEEG,001,102344,
AFNE01.JPG,AFNE01.JPG,AFNE01.JPG,AFNE01.JPG,AFNE01.JPG,AFNE01.JPG,2,5,25,3,,,,,,,,,,,,,,,,,,,,,,,AFSA02.jpg,AFNE04.jpg,AFSA06.jpg,AFNE20.jpg,AFNE04.jpg,FN,3,num_6,32,num_4,0.983448558953,,,2017_Nov_15_1311,60.0058315774,FEMA4ImagesEEG,001,102344,
AFNE01.JPG,AFNE01.JPG,AFNE01.JPG,AFNE01.JPG,AFNE01.JPG,AFNE01.JPG,2,6,26,0,,,,,,,,,,,,,,,,,,,,,,,AFNE13.jpg,AFSA20.jpg,AFSA06.jpg,AFNE07.jpg,AFSA06.jpg,FS,4,num_2,32,num_8,1.86693801219,,,2017_Nov_15_1311,60.0058315774,FEMA4ImagesEEG,001,102344,
AFNE01.JPG,AFNE01.JPG,AFNE01.JPG,AFNE01.JPG,AFNE01.JPG,AFNE01.JPG,2,7,27,7,,,,,,,,,,,,,,,,,,,,,,,AFSA08.jpg,AFNE10.jpg,AFSA03.jpg,AFNE08.jpg,AFNE08.jpg,FN,3,num_4,32,num_2,1.01673490414,,,2017_Nov_15_1311,60.0058315774,FEMA4ImagesEEG,001,102344,
AFNE01.JPG,AFNE01.JPG,AFNE01.JPG,AFNE01.JPG,AFNE01.JPG,AFNE01.JPG,2,8,28,1,,,,,,,,,,,,,,,,,,,,,,,AFNE02.jpg,AFSA17.jpg,AFSA08.jpg,AFNE20.jpg,AFNE20.jpg,FN,3,num_4,32,num_8,1.43347814726,,,2017_Nov_15_1311,60.0058315774,FEMA4ImagesEEG,001,102344,
AFNE01.JPG,AFNE01.JPG,AFNE01.JPG,AFNE01.JPG,AFNE01.JPG,AFNE01.JPG,2,9,29,8,,,,,,,,,,,,,,,,,,,,,,,AFNE07.jpg,AFSA01.jpg,AFSA05.jpg,AFNE18.jpg,AFNE18.jpg,FN,3,num_4,16,num_4,0.816768902354,,,2017_Nov_15_1311,60.0058315774,FEMA4ImagesEEG,001,102344,
AFNE01.JPG,AFNE01.JPG,AFNE01.JPG,AFNE01.JPG,AFNE01.JPG,AFNE01.JPG,3,0,30,2,,,,,,,,,,,,,,,,,,,,,,,AFNE07.jpg,AFNE02.jpg,AFSA19.jpg,AFSA16.jpg,AFNE07.jpg,FN,3,num_8,32,num_6,1.43347750558,,,2017_Nov_15_1311,60.0058315774,FEMA4ImagesEEG,001,102344,
AFNE01.JPG,AFNE01.JPG,AFNE01.JPG,AFNE01.JPG,AFNE01.JPG,AFNE01.JPG,3,1,31,6,,,,,,,,,,,,,,,,,,,,,,,AFSA13.jpg,AFNE14.jpg,AFSA19.jpg,AFNE15.jpg,AFNE15.jpg,FN,3,num_4,16,num_4,1.81670475472,,,2017_Nov_15_1311,60.0058315774,FEMA4ImagesEEG,001,102344,
AFNE01.JPG,AFNE01.JPG,AFNE01.JPG,AFNE01.JPG,AFNE01.JPG,AFNE01.JPG,3,2,32,0,,,,,,,,,,,,,,,,,,,,,,,AFNE15.jpg,AFSA15.jpg,AFNE12.jpg,AFSA08.jpg,AFNE15.jpg,FN,3,num_8,16,num_8,0.983423220925,,,2017_Nov_15_1311,60.0058315774,FEMA4ImagesEEG,001,102344,
AFNE01.JPG,AFNE01.JPG,AFNE01.JPG,AFNE01.JPG,AFNE01.JPG,AFNE01.JPG,3,3,33,1,,,,,,,,,,,,,,,,,,,,,,,AFNE12.jpg,AFNE09.jpg,AFSA17.jpg,AFSA08.jpg,AFNE12.jpg,FN,3,num_8,16,num_8,2.05001579644,,,2017_Nov_15_1311,60.0058315774,FEMA4ImagesEEG,001,102344,
AFNE01.JPG,AFNE01.JPG,AFNE01.JPG,AFNE01.JPG,AFNE01.JPG,AFNE01.JPG,3,4,34,4,,,,,,,,,,,,,,,,,,,,,,,AFSA03.jpg,AFNE18.jpg,AFNE13.jpg,AFSA04.jpg,AFSA04.jpg,FS,4,num_4,32,num_2,0.933476062492,,,2017_Nov_15_1311,60.0058315774,FEMA4ImagesEEG,001,102344,
AFNE01.JPG,AFNE01.JPG,AFNE01.JPG,AFNE01.JPG,AFNE01.JPG,AFNE01.JPG,3,5,35,5,,,,,,,,,,,,,,,,,,,,,,,AFSA06.jpg,AFSA09.jpg,AFNE20.jpg,AFNE16.jpg,AFSA09.jpg,FS,4,num_6,32,num_4,1.71674596937,,,2017_Nov_15_1311,60.0058315774,FEMA4ImagesEEG,001,102344,
AFNE01.JPG,AFNE01.JPG,AFNE01.JPG,AFNE01.JPG,AFNE01.JPG,AFNE01.JPG,3,6,36,8,,,,,,,,,,,,,,,,,,,,,,,AFSA17.jpg,AFNE15.jpg,AFNE16.jpg,AFSA06.jpg,AFSA17.jpg,FS,4,num_8,16,num_8,1.26674813451,,,2017_Nov_15_1311,60.0058315774,FEMA4ImagesEEG,001,102344,
AFNE01.JPG,AFNE01.JPG,AFNE01.JPG,AFNE01.JPG,AFNE01.JPG,AFNE01.JPG,3,7,37,3,,,,,,,,,,,,,,,,,,,,,,,AFNE08.jpg,AFSA04.jpg,AFNE06.jpg,AFSA09.jpg,AFNE06.jpg,FN,3,num_2,16,num_2,1.35009614145,,,2017_Nov_15_1311,60.0058315774,FEMA4ImagesEEG,001,102344,
AFNE01.JPG,AFNE01.JPG,AFNE01.JPG,AFNE01.JPG,AFNE01.JPG,AFNE01.JPG,3,8,38,7,,,,,,,,,,,,,,,,,,,,,,,AFNE02.jpg,AFNE08.jpg,AFSA01.jpg,AFSA14.jpg,AFSA01.jpg,FS,4,num_2,32,num_8,1.00015491713,,,2017_Nov_15_1311,60.0058315774,FEMA4ImagesEEG,001,102344,
AFNE01.JPG,AFNE01.JPG,AFNE01.JPG,AFNE01.JPG,AFNE01.JPG,AFNE01.JPG,3,9,39,9,,,,,,,,,,,,,,,,,,,,,,,AFNE17.jpg,AFNE03.jpg,AFSA11.jpg,AFSA16.jpg,AFNE03.jpg,FN,3,num_6,32,num_4,1.6167191877,,,2017_Nov_15_1311,60.0058315774,FEMA4ImagesEEG,001,102344,
AFNE01.JPG,AFNE01.JPG,AFNE01.JPG,AFNE01.JPG,AFNE01.JPG,AFNE01.JPG,4,0,40,4,,,,,,,,,,,,,,,,,,,,,,,AFNE10.jpg,AFSA15.jpg,AFSA19.jpg,AFNE14.jpg,AFNE10.jpg,FN,3,num_8,16,num_8,1.25014312984,,,2017_Nov_15_1311,60.0058315774,FEMA4ImagesEEG,001,102344,
AFNE01.JPG,AFNE01.JPG,AFNE01.JPG,AFNE01.JPG,AFNE01.JPG,AFNE01.JPG,4,1,41,7,,,,,,,,,,,,,,,,,,,,,,,AFSA15.jpg,AFNE10.jpg,AFSA20.jpg,AFNE12.jpg,AFNE12.jpg,FN,3,num_4,32,num_8,0.983448558953,,,2017_Nov_15_1311,60.0058315774,FEMA4ImagesEEG,001,102344,
AFNE01.JPG,AFNE01.JPG,AFNE01.JPG,AFNE01.JPG,AFNE01.JPG,AFNE01.JPG,4,2,42,2,,,,,,,,,,,,,,,,,,,,,,,AFNE09.jpg,AFNE01.jpg,AFSA06.jpg,AFSA08.jpg,AFNE01.jpg,FN,3,num_6,16,num_6,0.849987571128,,,2017_Nov_15_1311,60.0058315774,FEMA4ImagesEEG,001,102344,
AFNE01.JPG,AFNE01.JPG,AFNE01.JPG,AFNE01.JPG,AFNE01.JPG,AFNE01.JPG,4,3,43,8,,,,,,,,,,,,,,,,,,,,,,,AFSA02.jpg,AFSA12.jpg,AFNE11.jpg,AFNE01.jpg,AFSA12.jpg,FS,4,num_6,16,num_6,1.01673971489,,,2017_Nov_15_1311,60.0058315774,FEMA4ImagesEEG,001,102344,
AFNE01.JPG,AFNE01.JPG,AFNE01.JPG,AFNE01.JPG,AFNE01.JPG,AFNE01.JPG,4,4,44,9,,,,,,,,,,,,,,,,,,,,,,,AFSA11.jpg,AFSA07.jpg,AFNE11.jpg,AFNE05.jpg,AFNE11.jpg,FN,3,num_2,32,num_4,1.23342650803,,,2017_Nov_15_1311,60.0058315774,FEMA4ImagesEEG,001,102344,
AFNE01.JPG,AFNE01.JPG,AFNE01.JPG,AFNE01.JPG,AFNE01.JPG,AFNE01.JPG,4,5,45,3,,,,,,,,,,,,,,,,,,,,,,,AFNE03.jpg,AFSA16.jpg,AFSA04.jpg,AFNE12.jpg,AFNE12.jpg,FN,3,num_4,32,num_8,0.916761044413,,,2017_Nov_15_1311,60.0058315774,FEMA4ImagesEEG,001,102344,
AFNE01.JPG,AFNE01.JPG,AFNE01.JPG,AFNE01.JPG,AFNE01.JPG,AFNE01.JPG,4,6,46,6,,,,,,,,,,,,,,,,,,,,,,,AFSA15.jpg,AFSA17.jpg,AFNE10.jpg,AFNE13.jpg,AFSA17.jpg,FS,4,num_6,32,num_4,1.0001408048,,,2017_Nov_15_1311,60.0058315774,FEMA4ImagesEEG,001,102344,
AFNE01.JPG,AFNE01.JPG,AFNE01.JPG,AFNE01.JPG,AFNE01.JPG,AFNE01.JPG,4,7,47,1,,,,,,,,,,,,,,,,,,,,,,,AFSA12.jpg,AFSA09.jpg,AFNE06.jpg,AFNE18.jpg,AFNE18.jpg,FN,3,num_4,32,num_2,1.3667242392,,,2017_Nov_15_1311,60.0058315774,FEMA4ImagesEEG,001,102344,
AFNE01.JPG,AFNE01.JPG,AFNE01.JPG,AFNE01.JPG,AFNE01.JPG,AFNE01.JPG,4,8,48,5,,,,,,,,,,,,,,,,,,,,,,,AFNE14.jpg,AFSA15.jpg,AFNE11.jpg,AFSA05.jpg,AFNE11.jpg,FN,3,num_2,32,num_4,0.916614145506,,,2017_Nov_15_1311,60.0058315774,FEMA4ImagesEEG,001,102344,
AFNE01.JPG,AFNE01.JPG,AFNE01.JPG,AFNE01.JPG,AFNE01.JPG,AFNE01.JPG,4,9,49,0,,,,,,,,,,,,,,,,,,,,,,,AFNE18.jpg,AFSA20.jpg,AFNE04.jpg,AFSA01.jpg,AFNE04.jpg,FN,3,num_2,16,num_2,1.11674308265,,,2017_Nov_15_1311,60.0058315774,FEMA4ImagesEEG,001,102344,
AFNE01.JPG,AFNE01.JPG,AFNE01.JPG,AFNE01.JPG,AFNE01.JPG,AFNE01.JPG,5,0,50,3,,,,,,,,,,,,,,,,,,,,,,,AFSA04.jpg,AFNE09.jpg,AFNE04.jpg,AFSA01.jpg,AFNE04.jpg,FN,3,num_2,16,num_2,0.866776038893,,,2017_Nov_15_1311,60.0058315774,FEMA4ImagesEEG,001,102344,
AFNE01.JPG,AFNE01.JPG,AFNE01.JPG,AFNE01.JPG,AFNE01.JPG,AFNE01.JPG,5,1,51,6,,,,,,,,,,,,,,,,,,,,,,,AFNE08.jpg,AFSA08.jpg,AFSA14.jpg,AFNE15.jpg,AFNE15.jpg,FN,3,num_4,16,num_4,1.0334630725,,,2017_Nov_15_1311,60.0058315774,FEMA4ImagesEEG,001,102344,
AFNE01.JPG,AFNE01.JPG,AFNE01.JPG,AFNE01.JPG,AFNE01.JPG,AFNE01.JPG,5,2,52,7,,,,,,,,,,,,,,,,,,,,,,,AFSA03.jpg,AFNE06.jpg,AFNE13.jpg,AFSA19.jpg,AFNE13.jpg,FN,3,num_2,32,num_8,1.3167389133,,,2017_Nov_15_1311,60.0058315774,FEMA4ImagesEEG,001,102344,
AFNE01.JPG,AFNE01.JPG,AFNE01.JPG,AFNE01.JPG,AFNE01.JPG,AFNE01.JPG,5,3,53,5,,,,,,,,,,,,,,,,,,,,,,,AFSA15.jpg,AFNE07.jpg,AFSA10.jpg,AFNE03.jpg,AFSA10.jpg,FS,4,num_2,16,num_2,0.983425465878,,,2017_Nov_15_1311,60.0058315774,FEMA4ImagesEEG,001,102344,
AFNE01.JPG,AFNE01.JPG,AFNE01.JPG,AFNE01.JPG,AFNE01.JPG,AFNE01.JPG,5,4,54,4,,,,,,,,,,,,,,,,,,,,,,,AFNE06.jpg,AFNE10.jpg,AFSA19.jpg,AFSA11.jpg,AFSA19.jpg,FS,4,num_2,32,num_8,0.816740035545,,,2017_Nov_15_1311,60.0058315774,FEMA4ImagesEEG,001,102344,
AFNE01.JPG,AFNE01.JPG,AFNE01.JPG,AFNE01.JPG,AFNE01.JPG,AFNE01.JPG,5,5,55,0,,,,,,,,,,,,,,,,,,,,,,,AFNE10.jpg,AFSA15.jpg,AFNE15.jpg,AFSA04.jpg,AFSA15.jpg,FS,4,num_6,16,num_6,0.866752304137,,,2017_Nov_15_1311,60.0058315774,FEMA4ImagesEEG,001,102344,
AFNE01.JPG,AFNE01.JPG,AFNE01.JPG,AFNE01.JPG,AFNE01.JPG,AFNE01.JPG,5,6,56,8,,,,,,,,,,,,,,,,,,,,,,,AFNE01.jpg,AFSA18.jpg,AFNE13.jpg,AFSA07.jpg,AFNE01.jpg,FN,3,num_8,32,num_2,0.96677748207,,,2017_Nov_15_1311,60.0058315774,FEMA4ImagesEEG,001,102344,
AFNE01.JPG,AFNE01.JPG,AFNE01.JPG,AFNE01.JPG,AFNE01.JPG,AFNE01.JPG,5,7,57,9,,,,,,,,,,,,,,,,,,,,,,,AFSA09.jpg,AFNE13.jpg,AFNE18.jpg,AFSA07.jpg,AFSA07.jpg,FS,4,num_4,16,num_4,0.83343901718,,,2017_Nov_15_1311,60.0058315774,FEMA4ImagesEEG,001,102344,
AFNE01.JPG,AFNE01.JPG,AFNE01.JPG,AFNE01.JPG,AFNE01.JPG,AFNE01.JPG,5,8,58,1,,,,,,,,,,,,,,,,,,,,,,,AFNE04.jpg,AFSA01.jpg,AFNE02.jpg,AFSA09.jpg,AFSA01.jpg,FS,4,num_6,16,num_6,0.766712371726,,,2017_Nov_15_1311,60.0058315774,FEMA4ImagesEEG,001,102344,
AFNE01.JPG,AFNE01.JPG,AFNE01.JPG,AFNE01.JPG,AFNE01.JPG,AFNE01.JPG,5,9,59,2,,,,,,,,,,,,,,,,,,,,,,,AFNE11.jpg,AFSA03.jpg,AFNE06.jpg,AFSA07.jpg,AFSA03.jpg,FS,4,num_6,32,num_8,1.25008090679,,,2017_Nov_15_1311,60.0058315774,FEMA4ImagesEEG,001,102344,
,,,,,,,,,,,,,,,,,,,,,,,,,,,,,,,,,,,,,,,,,,,space,31.5140700396,2017_Nov_15_1311,60.0058315774,FEMA4ImagesEEG,001,102344,
AFNE01.JPG,AFNE01.JPG,AFNE01.JPG,AFNE01.JPG,AFNE01.JPG,AFNE01.JPG,,,,,0,0,0,9,,,,,,,,,,,,,,,,,,,AMSA10.jpg,AMSA13.jpg,AMNE16.jpg,AMNE20.jpg,AMSA13.jpg,MS,2,num_6,32,num_8,0.933491457719,,,2017_Nov_15_1311,60.0058315774,FEMA4ImagesEEG,001,102344,
AFNE01.JPG,AFNE01.JPG,AFNE01.JPG,AFNE01.JPG,AFNE01.JPG,AFNE01.JPG,,,,,0,1,1,0,,,,,,,,,,,,,,,,,,,AMSA15.jpg,AMNE20.jpg,AMNE05.jpg,AMSA19.jpg,AMSA15.jpg,MS,2,num_8,16,num_8,0.883523772005,,,2017_Nov_15_1311,60.0058315774,FEMA4ImagesEEG,001,102344,
AFNE01.JPG,AFNE01.JPG,AFNE01.JPG,AFNE01.JPG,AFNE01.JPG,AFNE01.JPG,,,,,0,2,2,6,,,,,,,,,,,,,,,,,,,AMNE02.jpg,AMNE15.jpg,AMSA05.jpg,AMSA17.jpg,AMNE02.jpg,MN,1,num_8,16,num_8,0.833775472827,,,2017_Nov_15_1311,60.0058315774,FEMA4ImagesEEG,001,102344,
AFNE01.JPG,AFNE01.JPG,AFNE01.JPG,AFNE01.JPG,AFNE01.JPG,AFNE01.JPG,,,,,0,3,3,8,,,,,,,,,,,,,,,,,,,AMNE16.jpg,AMNE06.jpg,AMSA08.jpg,AMSA15.jpg,AMSA15.jpg,MS,2,num_4,32,num_2,1.39992077695,,,2017_Nov_15_1311,60.0058315774,FEMA4ImagesEEG,001,102344,
AFNE01.JPG,AFNE01.JPG,AFNE01.JPG,AFNE01.JPG,AFNE01.JPG,AFNE01.JPG,,,,,0,4,4,4,,,,,,,,,,,,,,,,,,,AMSA16.jpg,AMNE07.jpg,AMNE19.jpg,AMSA19.jpg,AMSA19.jpg,MS,2,num_4,16,num_4,1.31673538499,,,2017_Nov_15_1311,60.0058315774,FEMA4ImagesEEG,001,102344,
AFNE01.JPG,AFNE01.JPG,AFNE01.JPG,AFNE01.JPG,AFNE01.JPG,AFNE01.JPG,,,,,0,5,5,2,,,,,,,,,,,,,,,,,,,AMNE13.jpg,AMNE09.jpg,AMSA13.jpg,AMSA17.jpg,AMNE09.jpg,MN,1,num_6,16,num_6,1.06677700067,,,2017_Nov_15_1311,60.0058315774,FEMA4ImagesEEG,001,102344,
AFNE01.JPG,AFNE01.JPG,AFNE01.JPG,AFNE01.JPG,AFNE01.JPG,AFNE01.JPG,,,,,0,6,6,7,,,,,,,,,,,,,,,,,,,AMNE08.jpg,AMSA15.jpg,AMSA13.jpg,AMNE20.jpg,AMNE08.jpg,MN,1,num_8,32,num_4,1.40005228017,,,2017_Nov_15_1311,60.0058315774,FEMA4ImagesEEG,001,102344,
AFNE01.JPG,AFNE01.JPG,AFNE01.JPG,AFNE01.JPG,AFNE01.JPG,AFNE01.JPG,,,,,0,7,7,3,,,,,,,,,,,,,,,,,,,AMSA03.jpg,AMNE13.jpg,AMSA11.jpg,AMNE02.jpg,AMNE02.jpg,MN,1,num_4,32,num_8,1.11680498533,,,2017_Nov_15_1311,60.0058315774,FEMA4ImagesEEG,001,102344,
AFNE01.JPG,AFNE01.JPG,AFNE01.JPG,AFNE01.JPG,AFNE01.JPG,AFNE01.JPG,,,,,0,8,8,1,,,,,,,,,,,,,,,,,,,AMSA03.jpg,AMNE17.jpg,AMNE20.jpg,AMSA16.jpg,AMNE20.jpg,MN,1,num_2,32,num_6,1.01678301487,,,2017_Nov_15_1311,60.0058315774,FEMA4ImagesEEG,001,102344,
AFNE01.JPG,AFNE01.JPG,AFNE01.JPG,AFNE01.JPG,AFNE01.JPG,AFNE01.JPG,,,,,0,9,9,5,,,,,,,,,,,,,,,,,,,AMNE15.jpg,AMSA16.jpg,AMNE16.jpg,AMSA06.jpg,AMNE15.jpg,MN,1,num_8,32,num_2,1.08343556896,,,2017_Nov_15_1311,60.0058315774,FEMA4ImagesEEG,001,102344,
AFNE01.JPG,AFNE01.JPG,AFNE01.JPG,AFNE01.JPG,AFNE01.JPG,AFNE01.JPG,,,,,1,0,10,9,,,,,,,,,,,,,,,,,,,AMSA09.jpg,AMNE06.jpg,AMNE03.jpg,AMSA05.jpg,AMNE06.jpg,MN,1,num_6,16,num_6,1.2667433233,,,2017_Nov_15_1311,60.0058315774,FEMA4ImagesEEG,001,102344,
AFNE01.JPG,AFNE01.JPG,AFNE01.JPG,AFNE01.JPG,AFNE01.JPG,AFNE01.JPG,,,,,1,1,11,0,,,,,,,,,,,,,,,,,,,AMNE01.jpg,AMSA10.jpg,AMSA20.jpg,AMNE20.jpg,AMNE20.jpg,MN,1,num_4,32,num_8,1.41676377039,,,2017_Nov_15_1311,60.0058315774,FEMA4ImagesEEG,001,102344,
AFNE01.JPG,AFNE01.JPG,AFNE01.JPG,AFNE01.JPG,AFNE01.JPG,AFNE01.JPG,,,,,1,2,12,5,,,,,,,,,,,,,,,,,,,AMNE12.jpg,AMSA15.jpg,AMSA09.jpg,AMNE18.jpg,AMNE18.jpg,MN,1,num_4,16,num_4,1.25039811758,,,2017_Nov_15_1311,60.0058315774,FEMA4ImagesEEG,001,102344,
AFNE01.JPG,AFNE01.JPG,AFNE01.JPG,AFNE01.JPG,AFNE01.JPG,AFNE01.JPG,,,,,1,3,13,2,,,,,,,,,,,,,,,,,,,AMNE12.jpg,AMSA12.jpg,AMNE02.jpg,AMSA17.jpg,AMNE02.jpg,MN,1,num_2,32,num_4,0.933437894564,,,2017_Nov_15_1311,60.0058315774,FEMA4ImagesEEG,001,102344,
AFNE01.JPG,AFNE01.JPG,AFNE01.JPG,AFNE01.JPG,AFNE01.JPG,AFNE01.JPG,,,,,1,4,14,1,,,,,,,,,,,,,,,,,,,AMSA20.jpg,AMNE01.jpg,AMSA19.jpg,AMNE14.jpg,AMNE01.jpg,MN,1,num_6,16,num_6,0.883492981549,,,2017_Nov_15_1311,60.0058315774,FEMA4ImagesEEG,001,102344,
AFNE01.JPG,AFNE01.JPG,AFNE01.JPG,AFNE01.JPG,AFNE01.JPG,AFNE01.JPG,,,,,1,5,15,7,,,,,,,,,,,,,,,,,,,AMNE07.jpg,AMSA08.jpg,AMNE17.jpg,AMSA16.jpg,AMNE17.jpg,MN,1,num_2,32,num_6,1.56683778111,,,2017_Nov_15_1311,60.0058315774,FEMA4ImagesEEG,001,102344,
AFNE01.JPG,AFNE01.JPG,AFNE01.JPG,AFNE01.JPG,AFNE01.JPG,AFNE01.JPG,,,,,1,6,16,8,,,,,,,,,,,,,,,,,,,AMSA13.jpg,AMNE19.jpg,AMSA08.jpg,AMNE08.jpg,AMNE08.jpg,MN,1,num_4,16,num_4,1.13344591297,,,2017_Nov_15_1311,60.0058315774,FEMA4ImagesEEG,001,102344,
AFNE01.JPG,AFNE01.JPG,AFNE01.JPG,AFNE01.JPG,AFNE01.JPG,AFNE01.JPG,,,,,1,7,17,3,,,,,,,,,,,,,,,,,,,AMNE02.jpg,AMSA02.jpg,AMSA08.jpg,AMNE20.jpg,AMSA02.jpg,MS,2,num_6,32,num_8,1.2334396583,,,2017_Nov_15_1311,60.0058315774,FEMA4ImagesEEG,001,102344,
AFNE01.JPG,AFNE01.JPG,AFNE01.JPG,AFNE01.JPG,AFNE01.JPG,AFNE01.JPG,,,,,1,8,18,6,,,,,,,,,,,,,,,,,,,AMSA06.jpg,AMSA18.jpg,AMNE07.jpg,AMNE06.jpg,AMNE07.jpg,MN,1,num_2,32,num_4,1.21678846749,,,2017_Nov_15_1311,60.0058315774,FEMA4ImagesEEG,001,102344,
AFNE01.JPG,AFNE01.JPG,AFNE01.JPG,AFNE01.JPG,AFNE01.JPG,AFNE01.JPG,,,,,1,9,19,4,,,,,,,,,,,,,,,,,,,AMSA13.jpg,AMNE01.jpg,AMNE18.jpg,AMSA18.jpg,AMSA13.jpg,MS,2,num_8,32,num_4,0.966788066551,,,2017_Nov_15_1311,60.0058315774,FEMA4ImagesEEG,001,102344,
AFNE01.JPG,AFNE01.JPG,AFNE01.JPG,AFNE01.JPG,AFNE01.JPG,AFNE01.JPG,,,,,2,0,20,7,,,,,,,,,,,,,,,,,,,AMSA03.jpg,AMNE03.jpg,AMNE11.jpg,AMSA13.jpg,AMNE11.jpg,MN,1,num_2,16,num_2,1.16672872985,,,2017_Nov_15_1311,60.0058315774,FEMA4ImagesEEG,001,102344,
AFNE01.JPG,AFNE01.JPG,AFNE01.JPG,AFNE01.JPG,AFNE01.JPG,AFNE01.JPG,,,,,2,1,21,9,,,,,,,,,,,,,,,,,,,AMSA20.jpg,AMSA17.jpg,AMNE12.jpg,AMNE08.jpg,AMNE12.jpg,MN,1,num_2,32,num_6,1.18340301421,,,2017_Nov_15_1311,60.0058315774,FEMA4ImagesEEG,001,102344,
AFNE01.JPG,AFNE01.JPG,AFNE01.JPG,AFNE01.JPG,AFNE01.JPG,AFNE01.JPG,,,,,2,2,22,6,,,,,,,,,,,,,,,,,,,AMNE18.jpg,AMNE01.jpg,AMSA03.jpg,AMSA04.jpg,AMNE18.jpg,MN,1,num_8,32,num_4,1.68339836318,,,2017_Nov_15_1311,60.0058315774,FEMA4ImagesEEG,001,102344,
AFNE01.JPG,AFNE01.JPG,AFNE01.JPG,AFNE01.JPG,AFNE01.JPG,AFNE01.JPG,,,,,2,3,23,8,,,,,,,,,,,,,,,,,,,AMNE18.jpg,AMSA05.jpg,AMNE13.jpg,AMSA09.jpg,AMSA05.jpg,MS,2,num_6,32,num_2,1.46696270909,,,2017_Nov_15_1311,60.0058315774,FEMA4ImagesEEG,001,102344,
AFNE01.JPG,AFNE01.JPG,AFNE01.JPG,AFNE01.JPG,AFNE01.JPG,AFNE01.JPG,,,,,2,4,24,4,,,,,,,,,,,,,,,,,,,AMSA03.jpg,AMNE01.jpg,AMNE04.jpg,AMSA08.jpg,AMSA08.jpg,MS,2,num_4,16,num_4,1.01675767638,,,2017_Nov_15_1311,60.0058315774,FEMA4ImagesEEG,001,102344,
AFNE01.JPG,AFNE01.JPG,AFNE01.JPG,AFNE01.JPG,AFNE01.JPG,AFNE01.JPG,,,,,2,5,25,2,,,,,,,,,,,,,,,,,,,AMSA08.jpg,AMSA12.jpg,AMNE14.jpg,AMNE07.jpg,AMSA08.jpg,MS,2,num_8,16,num_8,1.6167105278,,,2017_Nov_15_1311,60.0058315774,FEMA4ImagesEEG,001,102344,
AFNE01.JPG,AFNE01.JPG,AFNE01.JPG,AFNE01.JPG,AFNE01.JPG,AFNE01.JPG,,,,,2,6,26,3,,,,,,,,,,,,,,,,,,,AMNE01.jpg,AMSA02.jpg,AMNE04.jpg,AMSA06.jpg,AMSA02.jpg,MS,2,num_6,16,num_6,0.833491297439,,,2017_Nov_15_1311,60.0058315774,FEMA4ImagesEEG,001,102344,
AFNE01.JPG,AFNE01.JPG,AFNE01.JPG,AFNE01.JPG,AFNE01.JPG,AFNE01.JPG,,,,,2,7,27,0,,,,,,,,,,,,,,,,,,,AMSA03.jpg,AMNE16.jpg,AMNE19.jpg,AMSA20.jpg,AMSA03.jpg,MS,2,num_8,32,num_4,1.68337206263,,,2017_Nov_15_1311,60.0058315774,FEMA4ImagesEEG,001,102344,
AFNE01.JPG,AFNE01.JPG,AFNE01.JPG,AFNE01.JPG,AFNE01.JPG,AFNE01.JPG,,,,,2,8,28,1,,,,,,,,,,,,,,,,,,,AMNE15.jpg,AMNE13.jpg,AMSA17.jpg,AMSA13.jpg,AMNE13.jpg,MN,1,num_6,32,num_2,1.2167519033,,,2017_Nov_15_1311,60.0058315774,FEMA4ImagesEEG,001,102344,
AFNE01.JPG,AFNE01.JPG,AFNE01.JPG,AFNE01.JPG,AFNE01.JPG,AFNE01.JPG,,,,,2,9,29,5,,,,,,,,,,,,,,,,,,,AMNE14.jpg,AMSA15.jpg,AMNE04.jpg,AMSA02.jpg,AMNE14.jpg,MN,1,num_8,16,num_8,1.28348143445,,,2017_Nov_15_1311,60.0058315774,FEMA4ImagesEEG,001,102344,
AFNE01.JPG,AFNE01.JPG,AFNE01.JPG,AFNE01.JPG,AFNE01.JPG,AFNE01.JPG,,,,,3,0,30,4,,,,,,,,,,,,,,,,,,,AMSA19.jpg,AMNE11.jpg,AMNE16.jpg,AMSA20.jpg,AMNE11.jpg,MN,1,num_6,16,num_6,0.950133989099,,,2017_Nov_15_1311,60.0058315774,FEMA4ImagesEEG,001,102344,
AFNE01.JPG,AFNE01.JPG,AFNE01.JPG,AFNE01.JPG,AFNE01.JPG,AFNE01.JPG,,,,,3,1,31,5,,,,,,,,,,,,,,,,,,,AMNE09.jpg,AMSA14.jpg,AMSA13.jpg,AMNE17.jpg,AMSA14.jpg,MS,2,num_6,32,num_8,1.73343147989,,,2017_Nov_15_1311,60.0058315774,FEMA4ImagesEEG,001,102344,
AFNE01.JPG,AFNE01.JPG,AFNE01.JPG,AFNE01.JPG,AFNE01.JPG,AFNE01.JPG,,,,,3,2,32,1,,,,,,,,,,,,,,,,,,,AMNE11.jpg,AMSA15.jpg,AMNE12.jpg,AMSA11.jpg,AMSA11.jpg,MS,2,num_4,32,num_2,1.83339956589,,,2017_Nov_15_1311,60.0058315774,FEMA4ImagesEEG,001,102344,
AFNE01.JPG,AFNE01.JPG,AFNE01.JPG,AFNE01.JPG,AFNE01.JPG,AFNE01.JPG,,,,,3,3,33,2,,,,,,,,,,,,,,,,,,,AMSA15.jpg,AMNE10.jpg,AMNE20.jpg,AMSA01.jpg,AMNE20.jpg,MN,1,num_2,32,num_6,0.850136394612,,,2017_Nov_15_1311,60.0058315774,FEMA4ImagesEEG,001,102344,
AFNE01.JPG,AFNE01.JPG,AFNE01.JPG,AFNE01.JPG,AFNE01.JPG,AFNE01.JPG,,,,,3,4,34,3,,,,,,,,,,,,,,,,,,,AMNE17.jpg,AMSA10.jpg,AMNE19.jpg,AMSA20.jpg,AMSA20.jpg,MS,2,num_4,32,num_8,1.66667564726,,,2017_Nov_15_1311,60.0058315774,FEMA4ImagesEEG,001,102344,
AFNE01.JPG,AFNE01.JPG,AFNE01.JPG,AFNE01.JPG,AFNE01.JPG,AFNE01.JPG,,,,,3,5,35,8,,,,,,,,,,,,,,,,,,,AMNE08.jpg,AMSA03.jpg,AMSA13.jpg,AMNE18.jpg,AMNE18.jpg,MN,1,num_4,16,num_4,1.33342666831,,,2017_Nov_15_1311,60.0058315774,FEMA4ImagesEEG,001,102344,
AFNE01.JPG,AFNE01.JPG,AFNE01.JPG,AFNE01.JPG,AFNE01.JPG,AFNE01.JPG,,,,,3,6,36,7,,,,,,,,,,,,,,,,,,,AMSA17.jpg,AMSA06.jpg,AMNE15.jpg,AMNE14.jpg,AMSA06.jpg,MS,2,num_6,16,num_6,1.0505591291,,,2017_Nov_15_1311,60.0058315774,FEMA4ImagesEEG,001,102344,
AFNE01.JPG,AFNE01.JPG,AFNE01.JPG,AFNE01.JPG,AFNE01.JPG,AFNE01.JPG,,,,,3,7,37,9,,,,,,,,,,,,,,,,,,,AMSA11.jpg,AMSA14.jpg,AMNE08.jpg,AMNE04.jpg,AMNE08.jpg,MN,1,num_2,32,num_8,1.13326244988,,,2017_Nov_15_1311,60.0058315774,FEMA4ImagesEEG,001,102344,
AFNE01.JPG,AFNE01.JPG,AFNE01.JPG,AFNE01.JPG,AFNE01.JPG,AFNE01.JPG,,,,,3,8,38,6,,,,,,,,,,,,,,,,,,,AMSA03.jpg,AMSA08.jpg,AMNE14.jpg,AMNE09.jpg,AMSA08.jpg,MS,2,num_6,16,num_6,0.683481755666,,,2017_Nov_15_1311,60.0058315774,FEMA4ImagesEEG,001,102344,
AFNE01.JPG,AFNE01.JPG,AFNE01.JPG,AFNE01.JPG,AFNE01.JPG,AFNE01.JPG,,,,,3,9,39,0,,,,,,,,,,,,,,,,,,,AMNE14.jpg,AMSA09.jpg,AMSA12.jpg,AMNE18.jpg,AMNE18.jpg,MN,1,num_4,32,num_6,1.33342121588,,,2017_Nov_15_1311,60.0058315774,FEMA4ImagesEEG,001,102344,
AFNE01.JPG,AFNE01.JPG,AFNE01.JPG,AFNE01.JPG,AFNE01.JPG,AFNE01.JPG,,,,,4,0,40,9,,,,,,,,,,,,,,,,,,,AMNE18.jpg,AMSA12.jpg,AMNE12.jpg,AMSA03.jpg,AMSA03.jpg,MS,2,num_4,32,num_2,1.93338946253,,,2017_Nov_15_1311,60.0058315774,FEMA4ImagesEEG,001,102344,
AFNE01.JPG,AFNE01.JPG,AFNE01.JPG,AFNE01.JPG,AFNE01.JPG,AFNE01.JPG,,,,,4,1,41,1,,,,,,,,,,,,,,,,,,,AMNE12.jpg,AMSA08.jpg,AMNE04.jpg,AMSA03.jpg,AMNE04.jpg,MN,1,num_2,32,num_8,1.40000000037,,,2017_Nov_15_1311,60.0058315774,FEMA4ImagesEEG,001,102344,
AFNE01.JPG,AFNE01.JPG,AFNE01.JPG,AFNE01.JPG,AFNE01.JPG,AFNE01.JPG,,,,,4,2,42,3,,,,,,,,,,,,,,,,,,,AMSA11.jpg,AMNE05.jpg,AMNE01.jpg,AMSA14.jpg,AMNE05.jpg,MN,1,num_6,16,num_6,1.6498862179,,,2017_Nov_15_1311,60.0058315774,FEMA4ImagesEEG,001,102344,
AFNE01.JPG,AFNE01.JPG,AFNE01.JPG,AFNE01.JPG,AFNE01.JPG,AFNE01.JPG,,,,,4,3,43,8,,,,,,,,,,,,,,,,,,,AMNE11.jpg,AMNE03.jpg,AMSA17.jpg,AMSA02.jpg,AMSA02.jpg,MS,2,num_4,16,num_4,0.950234701391,,,2017_Nov_15_1311,60.0058315774,FEMA4ImagesEEG,001,102344,
AFNE01.JPG,AFNE01.JPG,AFNE01.JPG,AFNE01.JPG,AFNE01.JPG,AFNE01.JPG,,,,,4,4,44,2,,,,,,,,,,,,,,,,,,,AMSA04.jpg,AMNE11.jpg,AMNE01.jpg,AMSA15.jpg,AMSA04.jpg,MS,2,num_8,16,num_8,1.13344976213,,,2017_Nov_15_1311,60.0058315774,FEMA4ImagesEEG,001,102344,
AFNE01.JPG,AFNE01.JPG,AFNE01.JPG,AFNE01.JPG,AFNE01.JPG,AFNE01.JPG,,,,,4,5,45,5,,,,,,,,,,,,,,,,,,,AMNE13.jpg,AMSA12.jpg,AMSA11.jpg,AMNE01.jpg,AMNE01.jpg,MN,1,num_4,32,num_2,1.65007288801,,,2017_Nov_15_1311,60.0058315774,FEMA4ImagesEEG,001,102344,
AFNE01.JPG,AFNE01.JPG,AFNE01.JPG,AFNE01.JPG,AFNE01.JPG,AFNE01.JPG,,,,,4,6,46,6,,,,,,,,,,,,,,,,,,,AMSA09.jpg,AMSA18.jpg,AMNE20.jpg,AMNE07.jpg,AMSA09.jpg,MS,2,num_8,32,num_6,1.21674228087,,,2017_Nov_15_1311,60.0058315774,FEMA4ImagesEEG,001,102344,
AFNE01.JPG,AFNE01.JPG,AFNE01.JPG,AFNE01.JPG,AFNE01.JPG,AFNE01.JPG,,,,,4,7,47,0,,,,,,,,,,,,,,,,,,,AMNE09.jpg,AMNE20.jpg,AMSA08.jpg,AMSA05.jpg,AMNE09.jpg,MN,1,num_8,32,num_6,0.850103037432,,,2017_Nov_15_1311,60.0058315774,FEMA4ImagesEEG,001,102344,
AFNE01.JPG,AFNE01.JPG,AFNE01.JPG,AFNE01.JPG,AFNE01.JPG,AFNE01.JPG,,,,,4,8,48,4,,,,,,,,,,,,,,,,,,,AMNE18.jpg,AMSA11.jpg,AMNE07.jpg,AMSA16.jpg,AMNE18.jpg,MN,1,num_8,16,num_8,0.916756553575,,,2017_Nov_15_1311,60.0058315774,FEMA4ImagesEEG,001,102344,
AFNE01.JPG,AFNE01.JPG,AFNE01.JPG,AFNE01.JPG,AFNE01.JPG,AFNE01.JPG,,,,,4,9,49,7,,,,,,,,,,,,,,,,,,,AMNE18.jpg,AMNE10.jpg,AMSA04.jpg,AMSA13.jpg,AMNE18.jpg,MN,1,num_8,16,num_8,1.21677884506,,,2017_Nov_15_1311,60.0058315774,FEMA4ImagesEEG,001,102344,
AFNE01.JPG,AFNE01.JPG,AFNE01.JPG,AFNE01.JPG,AFNE01.JPG,AFNE01.JPG,,,,,5,0,50,7,,,,,,,,,,,,,,,,,,,AMNE16.jpg,AMSA14.jpg,AMSA08.jpg,AMNE01.jpg,AMSA14.jpg,MS,2,num_6,32,num_4,1.00012316415,,,2017_Nov_15_1311,60.0058315774,FEMA4ImagesEEG,001,102344,
AFNE01.JPG,AFNE01.JPG,AFNE01.JPG,AFNE01.JPG,AFNE01.JPG,AFNE01.JPG,,,,,5,1,51,1,,,,,,,,,,,,,,,,,,,AMNE07.jpg,AMNE09.jpg,AMSA12.jpg,AMSA03.jpg,AMSA03.jpg,MS,2,num_4,32,num_2,1.31677259086,,,2017_Nov_15_1311,60.0058315774,FEMA4ImagesEEG,001,102344,
AFNE01.JPG,AFNE01.JPG,AFNE01.JPG,AFNE01.JPG,AFNE01.JPG,AFNE01.JPG,,,,,5,2,52,3,,,,,,,,,,,,,,,,,,,AMSA11.jpg,AMNE20.jpg,AMNE07.jpg,AMSA16.jpg,AMSA16.jpg,MS,2,num_4,32,num_6,0.966858629603,,,2017_Nov_15_1311,60.0058315774,FEMA4ImagesEEG,001,102344,
AFNE01.JPG,AFNE01.JPG,AFNE01.JPG,AFNE01.JPG,AFNE01.JPG,AFNE01.JPG,,,,,5,3,53,6,,,,,,,,,,,,,,,,,,,AMNE14.jpg,AMSA07.jpg,AMNE16.jpg,AMSA11.jpg,AMSA07.jpg,MS,2,num_6,32,num_2,1.16677812394,,,2017_Nov_15_1311,60.0058315774,FEMA4ImagesEEG,001,102344,
AFNE01.JPG,AFNE01.JPG,AFNE01.JPG,AFNE01.JPG,AFNE01.JPG,AFNE01.JPG,,,,,5,4,54,4,,,,,,,,,,,,,,,,,,,AMNE05.jpg,AMSA07.jpg,AMNE14.jpg,AMSA05.jpg,AMNE05.jpg,MN,1,num_8,16,num_8,0.866734021809,,,2017_Nov_15_1311,60.0058315774,FEMA4ImagesEEG,001,102344,
AFNE01.JPG,AFNE01.JPG,AFNE01.JPG,AFNE01.JPG,AFNE01.JPG,AFNE01.JPG,,,,,5,5,55,2,,,,,,,,,,,,,,,,,,,AMSA19.jpg,AMNE04.jpg,AMSA02.jpg,AMNE01.jpg,AMSA02.jpg,MS,2,num_2,32,num_4,0.900108570233,,,2017_Nov_15_1311,60.0058315774,FEMA4ImagesEEG,001,102344,
AFNE01.JPG,AFNE01.JPG,AFNE01.JPG,AFNE01.JPG,AFNE01.JPG,AFNE01.JPG,,,,,5,6,56,9,,,,,,,,,,,,,,,,,,,AMSA17.jpg,AMSA18.jpg,AMNE02.jpg,AMNE15.jpg,AMNE15.jpg,MN,1,num_4,32,num_8,1.08350452827,,,2017_Nov_15_1311,60.0058315774,FEMA4ImagesEEG,001,102344,
AFNE01.JPG,AFNE01.JPG,AFNE01.JPG,AFNE01.JPG,AFNE01.JPG,AFNE01.JPG,,,,,5,7,57,0,,,,,,,,,,,,,,,,,,,AMSA19.jpg,AMNE20.jpg,AMSA16.jpg,AMNE08.jpg,AMNE20.jpg,MN,1,num_6,16,num_6,0.966766577214,,,2017_Nov_15_1311,60.0058315774,FEMA4ImagesEEG,001,102344,
AFNE01.JPG,AFNE01.JPG,AFNE01.JPG,AFNE01.JPG,AFNE01.JPG,AFNE01.JPG,,,,,5,8,58,5,,,,,,,,,,,,,,,,,,,AMNE04.jpg,AMSA05.jpg,AMNE20.jpg,AMSA15.jpg,AMSA05.jpg,MS,2,num_6,32,num_2,1.40007858118,,,2017_Nov_15_1311,60.0058315774,FEMA4ImagesEEG,001,102344,
AFNE01.JPG,AFNE01.JPG,AFNE01.JPG,AFNE01.JPG,AFNE01.JPG,AFNE01.JPG,,,,,5,9,59,8,,,,,,,,,,,,,,,,,,,AMSA17.jpg,AMNE14.jpg,AMNE09.jpg,AMSA06.jpg,AMNE09.jpg,MN,1,num_2,16,num_2,1.01674228115,,,2017_Nov_15_1311,60.0058315774,FEMA4ImagesEEG,001,102344,
,,,,,,,,,,,,,,,,,,,,,,,,,,,,,,,,,,,,,,,,,,,space,20.1149841477,2017_Nov_15_1311,60.0058315774,FEMA4ImagesEEG,001,102344,
AFNE01.JPG,AFNE01.JPG,AFNE01.JPG,AFNE01.JPG,AFNE01.JPG,AFNE01.JPG,,,,,,,,,0,0,0,7,,,,,,,,,,,,,,,AFSA09.jpg,AFNE19.jpg,AFNE02.jpg,AFSA12.jpg,AFNE02.jpg,FN,3,num_2,32,num_6,1.10007008165,,,2017_Nov_15_1311,60.0058315774,FEMA4ImagesEEG,001,102344,
AFNE01.JPG,AFNE01.JPG,AFNE01.JPG,AFNE01.JPG,AFNE01.JPG,AFNE01.JPG,,,,,,,,,0,1,1,1,,,,,,,,,,,,,,,AFSA09.jpg,AFSA12.jpg,AFNE19.jpg,AFNE02.jpg,AFNE19.jpg,FN,3,num_2,32,num_8,0.850418965798,,,2017_Nov_15_1311,60.0058315774,FEMA4ImagesEEG,001,102344,
AFNE01.JPG,AFNE01.JPG,AFNE01.JPG,AFNE01.JPG,AFNE01.JPG,AFNE01.JPG,,,,,,,,,0,2,2,8,,,,,,,,,,,,,,,AFNE11.jpg,AFNE18.jpg,AFSA11.jpg,AFSA16.jpg,AFSA16.jpg,FS,4,num_4,16,num_4,0.88343075756,,,2017_Nov_15_1311,60.0058315774,FEMA4ImagesEEG,001,102344,
AFNE01.JPG,AFNE01.JPG,AFNE01.JPG,AFNE01.JPG,AFNE01.JPG,AFNE01.JPG,,,,,,,,,0,3,3,9,,,,,,,,,,,,,,,AFSA06.jpg,AFNE20.jpg,AFNE19.jpg,AFSA11.jpg,AFNE20.jpg,FN,3,num_6,32,num_2,0.866837299895,,,2017_Nov_15_1311,60.0058315774,FEMA4ImagesEEG,001,102344,
AFNE01.JPG,AFNE01.JPG,AFNE01.JPG,AFNE01.JPG,AFNE01.JPG,AFNE01.JPG,,,,,,,,,0,4,4,4,,,,,,,,,,,,,,,AFNE19.jpg,AFSA19.jpg,AFNE06.jpg,AFSA13.jpg,AFNE19.jpg,FN,3,num_8,16,num_8,0.983463954646,,,2017_Nov_15_1311,60.0058315774,FEMA4ImagesEEG,001,102344,
AFNE01.JPG,AFNE01.JPG,AFNE01.JPG,AFNE01.JPG,AFNE01.JPG,AFNE01.JPG,,,,,,,,,0,5,5,6,,,,,,,,,,,,,,,AFSA17.jpg,AFNE13.jpg,AFNE20.jpg,AFSA06.jpg,AFNE13.jpg,FN,3,num_6,16,num_6,0.66679528309,,,2017_Nov_15_1311,60.0058315774,FEMA4ImagesEEG,001,102344,
AFNE01.JPG,AFNE01.JPG,AFNE01.JPG,AFNE01.JPG,AFNE01.JPG,AFNE01.JPG,,,,,,,,,0,6,6,5,,,,,,,,,,,,,,,AFNE07.jpg,AFSA20.jpg,AFSA07.jpg,AFNE06.jpg,AFSA07.jpg,FS,4,num_2,32,num_8,1.11660644785,,,2017_Nov_15_1311,60.0058315774,FEMA4ImagesEEG,001,102344,
AFNE01.JPG,AFNE01.JPG,AFNE01.JPG,AFNE01.JPG,AFNE01.JPG,AFNE01.JPG,,,,,,,,,0,7,7,2,,,,,,,,,,,,,,,AFNE16.jpg,AFSA04.jpg,AFNE04.jpg,AFSA18.jpg,AFNE04.jpg,FN,3,num_2,32,num_4,0.750201985706,,,2017_Nov_15_1311,60.0058315774,FEMA4ImagesEEG,001,102344,
AFNE01.JPG,AFNE01.JPG,AFNE01.JPG,AFNE01.JPG,AFNE01.JPG,AFNE01.JPG,,,,,,,,,0,8,8,3,,,,,,,,,,,,,,,AFSA17.jpg,AFNE07.jpg,AFSA07.jpg,AFNE13.jpg,AFSA17.jpg,FS,4,num_8,32,num_6,1.00014369143,,,2017_Nov_15_1311,60.0058315774,FEMA4ImagesEEG,001,102344,
AFNE01.JPG,AFNE01.JPG,AFNE01.JPG,AFNE01.JPG,AFNE01.JPG,AFNE01.JPG,,,,,,,,,0,9,9,0,,,,,,,,,,,,,,,AFNE07.jpg,AFSA08.jpg,AFNE20.jpg,AFSA15.jpg,AFNE20.jpg,FN,3,num_2,32,num_4,0.666518806014,,,2017_Nov_15_1311,60.0058315774,FEMA4ImagesEEG,001,102344,
AFNE01.JPG,AFNE01.JPG,AFNE01.JPG,AFNE01.JPG,AFNE01.JPG,AFNE01.JPG,,,,,,,,,1,0,10,2,,,,,,,,,,,,,,,AFNE13.jpg,AFSA11.jpg,AFSA17.jpg,AFNE17.jpg,AFNE13.jpg,FN,3,num_8,32,num_2,1.13342506485,,,2017_Nov_15_1311,60.0058315774,FEMA4ImagesEEG,001,102344,
AFNE01.JPG,AFNE01.JPG,AFNE01.JPG,AFNE01.JPG,AFNE01.JPG,AFNE01.JPG,,,,,,,,,1,1,11,1,,,,,,,,,,,,,,,AFNE14.jpg,AFNE13.jpg,AFSA06.jpg,AFSA03.jpg,AFSA06.jpg,FS,4,num_2,32,num_4,1.46672760742,,,2017_Nov_15_1311,60.0058315774,FEMA4ImagesEEG,001,102344,
AFNE01.JPG,AFNE01.JPG,AFNE01.JPG,AFNE01.JPG,AFNE01.JPG,AFNE01.JPG,,,,,,,,,1,2,12,6,,,,,,,,,,,,,,,AFSA04.jpg,AFSA14.jpg,AFNE18.jpg,AFNE01.jpg,AFSA04.jpg,FS,4,num_8,16,num_8,1.20010391995,,,2017_Nov_15_1311,60.0058315774,FEMA4ImagesEEG,001,102344,
AFNE01.JPG,AFNE01.JPG,AFNE01.JPG,AFNE01.JPG,AFNE01.JPG,AFNE01.JPG,,,,,,,,,1,3,13,0,,,,,,,,,,,,,,,AFNE09.jpg,AFSA01.jpg,AFSA06.jpg,AFNE20.jpg,AFSA06.jpg,FS,4,num_2,32,num_6,1.50011113659,,,2017_Nov_15_1311,60.0058315774,FEMA4ImagesEEG,001,102344,
AFNE01.JPG,AFNE01.JPG,AFNE01.JPG,AFNE01.JPG,AFNE01.JPG,AFNE01.JPG,,,,,,,,,1,4,14,9,,,,,,,,,,,,,,,AFSA16.jpg,AFSA06.jpg,AFNE03.jpg,AFNE07.jpg,AFSA16.jpg,FS,4,num_8,32,num_2,1.53338433104,,,2017_Nov_15_1311,60.0058315774,FEMA4ImagesEEG,001,102344,
AFNE01.JPG,AFNE01.JPG,AFNE01.JPG,AFNE01.JPG,AFNE01.JPG,AFNE01.JPG,,,,,,,,,1,5,15,3,,,,,,,,,,,,,,,AFSA10.jpg,AFSA19.jpg,AFNE06.jpg,AFNE03.jpg,AFNE06.jpg,FN,3,num_2,32,num_8,1.06675519049,,,2017_Nov_15_1311,60.0058315774,FEMA4ImagesEEG,001,102344,
AFNE01.JPG,AFNE01.JPG,AFNE01.JPG,AFNE01.JPG,AFNE01.JPG,AFNE01.JPG,,,,,,,,,1,6,16,8,,,,,,,,,,,,,,,AFSA06.jpg,AFNE03.jpg,AFSA11.jpg,AFNE12.jpg,AFSA11.jpg,FS,4,num_2,32,num_4,1.48345769988,,,2017_Nov_15_1311,60.0058315774,FEMA4ImagesEEG,001,102344,
AFNE01.JPG,AFNE01.JPG,AFNE01.JPG,AFNE01.JPG,AFNE01.JPG,AFNE01.JPG,,,,,,,,,1,7,17,5,,,,,,,,,,,,,,,AFNE05.jpg,AFNE13.jpg,AFSA09.jpg,AFSA08.jpg,AFSA09.jpg,FS,4,num_2,32,num_8,1.01682631485,,,2017_Nov_15_1311,60.0058315774,FEMA4ImagesEEG,001,102344,
AFNE01.JPG,AFNE01.JPG,AFNE01.JPG,AFNE01.JPG,AFNE01.JPG,AFNE01.JPG,,,,,,,,,1,8,18,4,,,,,,,,,,,,,,,AFSA04.jpg,AFNE08.jpg,AFSA17.jpg,AFNE15.jpg,AFNE08.jpg,FN,3,num_6,32,num_8,1.38341167383,,,2017_Nov_15_1311,60.0058315774,FEMA4ImagesEEG,001,102344,
AFNE01.JPG,AFNE01.JPG,AFNE01.JPG,AFNE01.JPG,AFNE01.JPG,AFNE01.JPG,,,,,,,,,1,9,19,7,,,,,,,,,,,,,,,AFNE20.jpg,AFSA06.jpg,AFSA04.jpg,AFNE03.jpg,AFNE20.jpg,FN,3,num_8,32,num_4,1.26676128479,,,2017_Nov_15_1311,60.0058315774,FEMA4ImagesEEG,001,102344,
AFNE01.JPG,AFNE01.JPG,AFNE01.JPG,AFNE01.JPG,AFNE01.JPG,AFNE01.JPG,,,,,,,,,2,0,20,8,,,,,,,,,,,,,,,AFNE19.jpg,AFSA03.jpg,AFSA12.jpg,AFNE06.jpg,AFSA12.jpg,FS,4,num_2,16,num_2,1.21671309369,,,2017_Nov_15_1311,60.0058315774,FEMA4ImagesEEG,001,102344,
AFNE01.JPG,AFNE01.JPG,AFNE01.JPG,AFNE01.JPG,AFNE01.JPG,AFNE01.JPG,,,,,,,,,2,1,21,2,,,,,,,,,,,,,,,AFNE07.jpg,AFSA13.jpg,AFNE05.jpg,AFSA11.jpg,AFNE07.jpg,FN,3,num_8,32,num_6,1.05013799807,,,2017_Nov_15_1311,60.0058315774,FEMA4ImagesEEG,001,102344,
AFNE01.JPG,AFNE01.JPG,AFNE01.JPG,AFNE01.JPG,AFNE01.JPG,AFNE01.JPG,,,,,,,,,2,2,22,9,,,,,,,,,,,,,,,AFSA19.jpg,AFNE20.jpg,AFSA08.jpg,AFNE02.jpg,AFSA08.jpg,FS,4,num_2,32,num_8,1.11676810076,,,2017_Nov_15_1311,60.0058315774,FEMA4ImagesEEG,001,102344,
AFNE01.JPG,AFNE01.JPG,AFNE01.JPG,AFNE01.JPG,AFNE01.JPG,AFNE01.JPG,,,,,,,,,2,3,23,0,,,,,,,,,,,,,,,AFNE17.jpg,AFSA17.jpg,AFNE15.jpg,AFSA19.jpg,AFSA19.jpg,FS,4,num_4,16,num_4,0.700108890887,,,2017_Nov_15_1311,60.0058315774,FEMA4ImagesEEG,001,102344,
AFNE01.JPG,AFNE01.JPG,AFNE01.JPG,AFNE01.JPG,AFNE01.JPG,AFNE01.JPG,,,,,,,,,2,4,24,6,,,,,,,,,,,,,,,AFNE08.jpg,AFSA03.jpg,AFSA16.jpg,AFNE18.jpg,AFSA16.jpg,FS,4,num_2,32,num_6,0.850127734244,,,2017_Nov_15_1311,60.0058315774,FEMA4ImagesEEG,001,102344,
AFNE01.JPG,AFNE01.JPG,AFNE01.JPG,AFNE01.JPG,AFNE01.JPG,AFNE01.JPG,,,,,,,,,2,5,25,3,,,,,,,,,,,,,,,AFSA09.jpg,AFNE20.jpg,AFNE02.jpg,AFSA20.jpg,AFNE20.jpg,FN,3,num_6,32,num_8,0.800152030773,,,2017_Nov_15_1311,60.0058315774,FEMA4ImagesEEG,001,102344,
AFNE01.JPG,AFNE01.JPG,AFNE01.JPG,AFNE01.JPG,AFNE01.JPG,AFNE01.JPG,,,,,,,,,2,6,26,4,,,,,,,,,,,,,,,AFNE14.jpg,AFSA02.jpg,AFSA10.jpg,AFNE05.jpg,AFSA10.jpg,FS,4,num_2,32,num_4,0.933460667264,,,2017_Nov_15_1311,60.0058315774,FEMA4ImagesEEG,001,102344,
AFNE01.JPG,AFNE01.JPG,AFNE01.JPG,AFNE01.JPG,AFNE01.JPG,AFNE01.JPG,,,,,,,,,2,7,27,5,,,,,,,,,,,,,,,AFNE19.jpg,AFSA10.jpg,AFSA19.jpg,AFNE14.jpg,AFNE19.jpg,FN,3,num_8,32,num_2,1.24995934637,,,2017_Nov_15_1311,60.0058315774,FEMA4ImagesEEG,001,102344,
AFNE01.JPG,AFNE01.JPG,AFNE01.JPG,AFNE01.JPG,AFNE01.JPG,AFNE01.JPG,,,,,,,,,2,8,28,1,,,,,,,,,,,,,,,AFNE05.jpg,AFNE08.jpg,AFSA10.jpg,AFSA06.jpg,AFSA10.jpg,FS,4,num_2,32,num_8,2.21665632306,,,2017_Nov_15_1311,60.0058315774,FEMA4ImagesEEG,001,102344,
AFNE01.JPG,AFNE01.JPG,AFNE01.JPG,AFNE01.JPG,AFNE01.JPG,AFNE01.JPG,,,,,,,,,2,9,29,7,,,,,,,,,,,,,,,AFSA15.jpg,AFSA13.jpg,AFNE12.jpg,AFNE10.jpg,AFNE12.jpg,FN,3,num_2,32,num_6,0.700150907971,,,2017_Nov_15_1311,60.0058315774,FEMA4ImagesEEG,001,102344,
AFNE01.JPG,AFNE01.JPG,AFNE01.JPG,AFNE01.JPG,AFNE01.JPG,AFNE01.JPG,,,,,,,,,3,0,30,2,,,,,,,,,,,,,,,AFNE05.jpg,AFNE10.jpg,AFSA03.jpg,AFSA07.jpg,AFNE05.jpg,FN,3,num_8,16,num_8,1.11662120186,,,2017_Nov_15_1311,60.0058315774,FEMA4ImagesEEG,001,102344,
AFNE01.JPG,AFNE01.JPG,AFNE01.JPG,AFNE01.JPG,AFNE01.JPG,AFNE01.JPG,,,,,,,,,3,1,31,3,,,,,,,,,,,,,,,AFSA07.jpg,AFSA10.jpg,AFNE04.jpg,AFNE12.jpg,AFSA07.jpg,FS,4,num_8,32,num_2,1.00011931499,,,2017_Nov_15_1311,60.0058315774,FEMA4ImagesEEG,001,102344,
AFNE01.JPG,AFNE01.JPG,AFNE01.JPG,AFNE01.JPG,AFNE01.JPG,AFNE01.JPG,,,,,,,,,3,2,32,8,,,,,,,,,,,,,,,AFSA13.jpg,AFNE16.jpg,AFSA15.jpg,AFNE07.jpg,AFNE16.jpg,FN,3,num_6,32,num_4,0.766771708615,,,2017_Nov_15_1311,60.0058315774,FEMA4ImagesEEG,001,102344,
AFNE01.JPG,AFNE01.JPG,AFNE01.JPG,AFNE01.JPG,AFNE01.JPG,AFNE01.JPG,,,,,,,,,3,3,33,7,,,,,,,,,,,,,,,AFNE04.jpg,AFSA08.jpg,AFNE05.jpg,AFSA16.jpg,AFNE04.jpg,FN,3,num_8,32,num_6,0.983521366958,,,2017_Nov_15_1311,60.0058315774,FEMA4ImagesEEG,001,102344,
AFNE01.JPG,AFNE01.JPG,AFNE01.JPG,AFNE01.JPG,AFNE01.JPG,AFNE01.JPG,,,,,,,,,3,4,34,4,,,,,,,,,,,,,,,AFSA08.jpg,AFSA13.jpg,AFNE15.jpg,AFNE20.jpg,AFNE15.jpg,FN,3,num_2,32,num_8,0.900154115167,,,2017_Nov_15_1311,60.0058315774,FEMA4ImagesEEG,001,102344,
AFNE01.JPG,AFNE01.JPG,AFNE01.JPG,AFNE01.JPG,AFNE01.JPG,AFNE01.JPG,,,,,,,,,3,5,35,1,,,,,,,,,,,,,,,AFNE16.jpg,AFSA08.jpg,AFNE11.jpg,AFSA20.jpg,AFSA20.jpg,FS,4,num_4,32,num_2,1.03342682915,,,2017_Nov_15_1311,60.0058315774,FEMA4ImagesEEG,001,102344,
AFNE01.JPG,AFNE01.JPG,AFNE01.JPG,AFNE01.JPG,AFNE01.JPG,AFNE01.JPG,,,,,,,,,3,6,36,0,,,,,,,,,,,,,,,AFSA14.jpg,AFNE12.jpg,AFNE10.jpg,AFSA15.jpg,AFSA14.jpg,FS,4,num_8,32,num_4,1.43340373551,,,2017_Nov_15_1311,60.0058315774,FEMA4ImagesEEG,001,102344,
AFNE01.JPG,AFNE01.JPG,AFNE01.JPG,AFNE01.JPG,AFNE01.JPG,AFNE01.JPG,,,,,,,,,3,7,37,6,,,,,,,,,,,,,,,AFNE08.jpg,AFSA06.jpg,AFNE19.jpg,AFSA10.jpg,AFSA06.jpg,FS,4,num_6,16,num_6,0.700127814896,,,2017_Nov_15_1311,60.0058315774,FEMA4ImagesEEG,001,102344,
AFNE01.JPG,AFNE01.JPG,AFNE01.JPG,AFNE01.JPG,AFNE01.JPG,AFNE01.JPG,,,,,,,,,3,8,38,5,,,,,,,,,,,,,,,AFSA20.jpg,AFNE19.jpg,AFNE09.jpg,AFSA03.jpg,AFNE19.jpg,FN,3,num_6,32,num_8,0.800132465549,,,2017_Nov_15_1311,60.0058315774,FEMA4ImagesEEG,001,102344,
AFNE01.JPG,AFNE01.JPG,AFNE01.JPG,AFNE01.JPG,AFNE01.JPG,AFNE01.JPG,,,,,,,,,3,9,39,9,,,,,,,,,,,,,,,AFSA18.jpg,AFSA16.jpg,AFNE06.jpg,AFNE08.jpg,AFSA18.jpg,FS,4,num_8,32,num_4,1.56669248641,,,2017_Nov_15_1311,60.0058315774,FEMA4ImagesEEG,001,102344,
AFNE01.JPG,AFNE01.JPG,AFNE01.JPG,AFNE01.JPG,AFNE01.JPG,AFNE01.JPG,,,,,,,,,4,0,40,4,,,,,,,,,,,,,,,AFNE13.jpg,AFSA18.jpg,AFSA09.jpg,AFNE17.jpg,AFNE17.jpg,FN,3,num_4,32,num_6,1.56668831641,,,2017_Nov_15_1311,60.0058315774,FEMA4ImagesEEG,001,102344,
AFNE01.JPG,AFNE01.JPG,AFNE01.JPG,AFNE01.JPG,AFNE01.JPG,AFNE01.JPG,,,,,,,,,4,1,41,9,,,,,,,,,,,,,,,AFNE16.jpg,AFSA07.jpg,AFSA08.jpg,AFNE07.jpg,AFSA08.jpg,FS,4,num_2,32,num_8,1.11676040292,,,2017_Nov_15_1311,60.0058315774,FEMA4ImagesEEG,001,102344,
AFNE01.JPG,AFNE01.JPG,AFNE01.JPG,AFNE01.JPG,AFNE01.JPG,AFNE01.JPG,,,,,,,,,4,2,42,6,,,,,,,,,,,,,,,AFNE17.jpg,AFNE04.jpg,AFSA12.jpg,AFSA19.jpg,AFSA12.jpg,FS,4,num_2,32,num_6,1.11674179975,,,2017_Nov_15_1311,60.0058315774,FEMA4ImagesEEG,001,102344,
AFNE01.JPG,AFNE01.JPG,AFNE01.JPG,AFNE01.JPG,AFNE01.JPG,AFNE01.JPG,,,,,,,,,4,3,43,5,,,,,,,,,,,,,,,AFSA20.jpg,AFNE15.jpg,AFSA17.jpg,AFNE04.jpg,AFSA20.jpg,FS,4,num_8,32,num_4,1.65008154791,,,2017_Nov_15_1311,60.0058315774,FEMA4ImagesEEG,001,102344,
AFNE01.JPG,AFNE01.JPG,AFNE01.JPG,AFNE01.JPG,AFNE01.JPG,AFNE01.JPG,,,,,,,,,4,4,44,2,,,,,,,,,,,,,,,AFSA13.jpg,AFNE05.jpg,AFNE15.jpg,AFSA08.jpg,AFNE05.jpg,FN,3,num_6,32,num_8,1.30039499048,,,2017_Nov_15_1311,60.0058315774,FEMA4ImagesEEG,001,102344,
AFNE01.JPG,AFNE01.JPG,AFNE01.JPG,AFNE01.JPG,AFNE01.JPG,AFNE01.JPG,,,,,,,,,4,5,45,3,,,,,,,,,,,,,,,AFNE02.jpg,AFNE03.jpg,AFSA12.jpg,AFSA10.jpg,AFSA12.jpg,FS,4,num_2,32,num_4,0.933422499336,,,2017_Nov_15_1311,60.0058315774,FEMA4ImagesEEG,001,102344,
AFNE01.JPG,AFNE01.JPG,AFNE01.JPG,AFNE01.JPG,AFNE01.JPG,AFNE01.JPG,,,,,,,,,4,6,46,7,,,,,,,,,,,,,,,AFSA02.jpg,AFSA03.jpg,AFNE07.jpg,AFNE06.jpg,AFNE07.jpg,FN,3,num_2,16,num_2,1.11677098693,,,2017_Nov_15_1311,60.0058315774,FEMA4ImagesEEG,001,102344,
AFNE01.JPG,AFNE01.JPG,AFNE01.JPG,AFNE01.JPG,AFNE01.JPG,AFNE01.JPG,,,,,,,,,4,7,47,1,,,,,,,,,,,,,,,AFNE14.jpg,AFSA11.jpg,AFSA10.jpg,AFNE09.jpg,AFSA11.jpg,FS,4,num_6,16,num_6,1.29995269096,,,2017_Nov_15_1311,60.0058315774,FEMA4ImagesEEG,001,102344,
AFNE01.JPG,AFNE01.JPG,AFNE01.JPG,AFNE01.JPG,AFNE01.JPG,AFNE01.JPG,,,,,,,,,4,8,48,0,,,,,,,,,,,,,,,AFSA02.jpg,AFNE02.jpg,AFSA17.jpg,AFNE09.jpg,AFSA17.jpg,FS,4,num_2,32,num_8,1.68325082306,,,2017_Nov_15_1311,60.0058315774,FEMA4ImagesEEG,001,102344,
AFNE01.JPG,AFNE01.JPG,AFNE01.JPG,AFNE01.JPG,AFNE01.JPG,AFNE01.JPG,,,,,,,,,4,9,49,8,,,,,,,,,,,,,,,AFNE11.jpg,AFSA20.jpg,AFNE16.jpg,AFSA03.jpg,AFNE16.jpg,FN,3,num_2,32,num_4,1.15013719629,,,2017_Nov_15_1311,60.0058315774,FEMA4ImagesEEG,001,102344,
AFNE01.JPG,AFNE01.JPG,AFNE01.JPG,AFNE01.JPG,AFNE01.JPG,AFNE01.JPG,,,,,,,,,5,0,50,2,,,,,,,,,,,,,,,AFNE06.jpg,AFNE07.jpg,AFSA11.jpg,AFSA05.jpg,AFNE06.jpg,FN,3,num_8,16,num_8,1.01677692123,,,2017_Nov_15_1311,60.0058315774,FEMA4ImagesEEG,001,102344,
AFNE01.JPG,AFNE01.JPG,AFNE01.JPG,AFNE01.JPG,AFNE01.JPG,AFNE01.JPG,,,,,,,,,5,1,51,5,,,,,,,,,,,,,,,AFNE12.jpg,AFSA07.jpg,AFSA15.jpg,AFNE07.jpg,AFNE12.jpg,FN,3,num_8,32,num_4,1.20014176657,,,2017_Nov_15_1311,60.0058315774,FEMA4ImagesEEG,001,102344,
AFNE01.JPG,AFNE01.JPG,AFNE01.JPG,AFNE01.JPG,AFNE01.JPG,AFNE01.JPG,,,,,,,,,5,2,52,7,,,,,,,,,,,,,,,AFNE18.jpg,AFSA04.jpg,AFNE01.jpg,AFSA03.jpg,AFNE18.jpg,FN,3,num_8,16,num_8,0.883482076228,,,2017_Nov_15_1311,60.0058315774,FEMA4ImagesEEG,001,102344,
AFNE01.JPG,AFNE01.JPG,AFNE01.JPG,AFNE01.JPG,AFNE01.JPG,AFNE01.JPG,,,,,,,,,5,3,53,8,,,,,,,,,,,,,,,AFNE12.jpg,AFSA18.jpg,AFSA03.jpg,AFNE04.jpg,AFNE12.jpg,FN,3,num_8,32,num_6,0.533500759397,,,2017_Nov_15_1311,60.0058315774,FEMA4ImagesEEG,001,102344,
AFNE01.JPG,AFNE01.JPG,AFNE01.JPG,AFNE01.JPG,AFNE01.JPG,AFNE01.JPG,,,,,,,,,5,4,54,1,,,,,,,,,,,,,,,AFSA19.jpg,AFNE15.jpg,AFSA01.jpg,AFNE17.jpg,AFSA19.jpg,FS,4,num_8,32,num_4,0.916683425661,,,2017_Nov_15_1311,60.0058315774,FEMA4ImagesEEG,001,102344,
AFNE01.JPG,AFNE01.JPG,AFNE01.JPG,AFNE01.JPG,AFNE01.JPG,AFNE01.JPG,,,,,,,,,5,5,55,3,,,,,,,,,,,,,,,AFSA09.jpg,AFNE18.jpg,AFSA10.jpg,AFNE12.jpg,AFSA09.jpg,FS,4,num_8,16,num_8,2.08339900477,,,2017_Nov_15_1311,60.0058315774,FEMA4ImagesEEG,001,102344,
AFNE01.JPG,AFNE01.JPG,AFNE01.JPG,AFNE01.JPG,AFNE01.JPG,AFNE01.JPG,,,,,,,,,5,6,56,9,,,,,,,,,,,,,,,AFNE02.jpg,AFNE10.jpg,AFSA14.jpg,AFSA17.jpg,AFSA17.jpg,FS,4,num_4,16,num_4,0.600190198515,,,2017_Nov_15_1311,60.0058315774,FEMA4ImagesEEG,001,102344,
AFNE01.JPG,AFNE01.JPG,AFNE01.JPG,AFNE01.JPG,AFNE01.JPG,AFNE01.JPG,,,,,,,,,5,7,57,4,,,,,,,,,,,,,,,AFSA10.jpg,AFNE10.jpg,AFSA15.jpg,AFNE20.jpg,AFSA10.jpg,FS,4,num_8,32,num_2,1.01672688546,,,2017_Nov_15_1311,60.0058315774,FEMA4ImagesEEG,001,102344,
AFNE01.JPG,AFNE01.JPG,AFNE01.JPG,AFNE01.JPG,AFNE01.JPG,AFNE01.JPG,,,,,,,,,5,8,58,0,,,,,,,,,,,,,,,AFNE20.jpg,AFNE05.jpg,AFSA07.jpg,AFSA19.jpg,AFSA07.jpg,FS,4,num_2,32,num_6,0.600237988867,,,2017_Nov_15_1311,60.0058315774,FEMA4ImagesEEG,001,102344,
AFNE01.JPG,AFNE01.JPG,AFNE01.JPG,AFNE01.JPG,AFNE01.JPG,AFNE01.JPG,,,,,,,,,5,9,59,6,,,,,,,,,,,,,,,AFNE14.jpg,AFSA01.jpg,AFSA17.jpg,AFNE10.jpg,AFNE10.jpg,FN,3,num_4,32,num_6,1.13343083812,,,2017_Nov_15_1311,60.0058315774,FEMA4ImagesEEG,001,102344,
,,,,,,,,,,,,,,,,,,,,,,,,,,,,,,,,,,,,,,,,,,,space,11.8159510167,2017_Nov_15_1311,60.0058315774,FEMA4ImagesEEG,001,102344,
AFNE01.JPG,AFNE01.JPG,AFNE01.JPG,AFNE01.JPG,AFNE01.JPG,AFNE01.JPG,,,,,,,,,,,,,0,0,0,8,,,,,,,,,,,AMSA04.jpg,AMSA07.jpg,AMNE01.jpg,AMNE06.jpg,AMSA04.jpg,MS,2,num_8,16,num_8,1.78310312238,,,2017_Nov_15_1311,60.0058315774,FEMA4ImagesEEG,001,102344,
AFNE01.JPG,AFNE01.JPG,AFNE01.JPG,AFNE01.JPG,AFNE01.JPG,AFNE01.JPG,,,,,,,,,,,,,0,1,1,3,,,,,,,,,,,AMNE07.jpg,AMSA05.jpg,AMNE05.jpg,AMSA12.jpg,AMSA12.jpg,MS,2,num_4,32,num_2,0.766777161043,,,2017_Nov_15_1311,60.0058315774,FEMA4ImagesEEG,001,102344,
AFNE01.JPG,AFNE01.JPG,AFNE01.JPG,AFNE01.JPG,AFNE01.JPG,AFNE01.JPG,,,,,,,,,,,,,0,2,2,0,,,,,,,,,,,AMNE13.jpg,AMSA16.jpg,AMSA03.jpg,AMNE12.jpg,AMNE13.jpg,MN,1,num_8,16,num_8,0.700132626109,,,2017_Nov_15_1311,60.0058315774,FEMA4ImagesEEG,001,102344,
AFNE01.JPG,AFNE01.JPG,AFNE01.JPG,AFNE01.JPG,AFNE01.JPG,AFNE01.JPG,,,,,,,,,,,,,0,3,3,6,,,,,,,,,,,AMNE16.jpg,AMSA11.jpg,AMSA20.jpg,AMNE12.jpg,AMSA20.jpg,MS,2,num_2,16,num_2,2.03366866661,,,2017_Nov_15_1311,60.0058315774,FEMA4ImagesEEG,001,102344,
AFNE01.JPG,AFNE01.JPG,AFNE01.JPG,AFNE01.JPG,AFNE01.JPG,AFNE01.JPG,,,,,,,,,,,,,0,4,4,4,,,,,,,,,,,AMSA13.jpg,AMSA18.jpg,AMNE10.jpg,AMNE05.jpg,AMSA18.jpg,MS,2,num_6,16,num_6,0.866762246937,,,2017_Nov_15_1311,60.0058315774,FEMA4ImagesEEG,001,102344,
AFNE01.JPG,AFNE01.JPG,AFNE01.JPG,AFNE01.JPG,AFNE01.JPG,AFNE01.JPG,,,,,,,,,,,,,0,5,5,9,,,,,,,,,,,AMNE03.jpg,AMSA01.jpg,AMSA13.jpg,AMNE12.jpg,AMSA01.jpg,MS,2,num_6,16,num_6,1.01677146833,,,2017_Nov_15_1311,60.0058315774,FEMA4ImagesEEG,001,102344,
AFNE01.JPG,AFNE01.JPG,AFNE01.JPG,AFNE01.JPG,AFNE01.JPG,AFNE01.JPG,,,,,,,,,,,,,0,6,6,2,,,,,,,,,,,AMNE03.jpg,AMSA04.jpg,AMNE07.jpg,AMSA14.jpg,AMSA14.jpg,MS,2,num_4,16,num_4,1.01672977209,,,2017_Nov_15_1311,60.0058315774,FEMA4ImagesEEG,001,102344,
AFNE01.JPG,AFNE01.JPG,AFNE01.JPG,AFNE01.JPG,AFNE01.JPG,AFNE01.JPG,,,,,,,,,,,,,0,7,7,7,,,,,,,,,,,AMNE14.jpg,AMSA12.jpg,AMNE20.jpg,AMSA14.jpg,AMNE20.jpg,MN,1,num_2,16,num_2,0.89995333273,,,2017_Nov_15_1311,60.0058315774,FEMA4ImagesEEG,001,102344,
AFNE01.JPG,AFNE01.JPG,AFNE01.JPG,AFNE01.JPG,AFNE01.JPG,AFNE01.JPG,,,,,,,,,,,,,0,8,8,1,,,,,,,,,,,AMNE17.jpg,AMNE06.jpg,AMSA10.jpg,AMSA17.jpg,AMSA17.jpg,MS,2,num_4,32,num_6,0.85004819138,,,2017_Nov_15_1311,60.0058315774,FEMA4ImagesEEG,001,102344,
AFNE01.JPG,AFNE01.JPG,AFNE01.JPG,AFNE01.JPG,AFNE01.JPG,AFNE01.JPG,,,,,,,,,,,,,0,9,9,5,,,,,,,,,,,AMSA06.jpg,AMNE06.jpg,AMNE03.jpg,AMSA19.jpg,AMNE03.jpg,MN,1,num_2,32,num_4,1.30014064442,,,2017_Nov_15_1311,60.0058315774,FEMA4ImagesEEG,001,102344,
AFNE01.JPG,AFNE01.JPG,AFNE01.JPG,AFNE01.JPG,AFNE01.JPG,AFNE01.JPG,,,,,,,,,,,,,1,0,10,4,,,,,,,,,,,AMSA18.jpg,AMSA14.jpg,AMNE19.jpg,AMNE04.jpg,AMNE19.jpg,MN,1,num_2,32,num_6,1.35011506546,,,2017_Nov_15_1311,60.0058315774,FEMA4ImagesEEG,001,102344,
AFNE01.JPG,AFNE01.JPG,AFNE01.JPG,AFNE01.JPG,AFNE01.JPG,AFNE01.JPG,,,,,,,,,,,,,1,1,11,7,,,,,,,,,,,AMNE01.jpg,AMSA15.jpg,AMNE17.jpg,AMSA13.jpg,AMNE17.jpg,MN,1,num_2,32,num_4,1.05008475576,,,2017_Nov_15_1311,60.0058315774,FEMA4ImagesEEG,001,102344,
AFNE01.JPG,AFNE01.JPG,AFNE01.JPG,AFNE01.JPG,AFNE01.JPG,AFNE01.JPG,,,,,,,,,,,,,1,2,12,1,,,,,,,,,,,AMSA12.jpg,AMSA06.jpg,AMNE05.jpg,AMNE06.jpg,AMSA06.jpg,MS,2,num_6,32,num_8,1.08343011653,,,2017_Nov_15_1311,60.0058315774,FEMA4ImagesEEG,001,102344,
AFNE01.JPG,AFNE01.JPG,AFNE01.JPG,AFNE01.JPG,AFNE01.JPG,AFNE01.JPG,,,,,,,,,,,,,1,3,13,3,,,,,,,,,,,AMSA13.jpg,AMNE09.jpg,AMSA04.jpg,AMNE15.jpg,AMNE09.jpg,MN,1,num_6,32,num_2,0.883478548378,,,2017_Nov_15_1311,60.0058315774,FEMA4ImagesEEG,001,102344,
AFNE01.JPG,AFNE01.JPG,AFNE01.JPG,AFNE01.JPG,AFNE01.JPG,AFNE01.JPG,,,,,,,,,,,,,1,4,14,9,,,,,,,,,,,AMNE02.jpg,AMSA07.jpg,AMNE16.jpg,AMSA02.jpg,AMNE02.jpg,MN,1,num_8,32,num_6,0.733590886928,,,2017_Nov_15_1311,60.0058315774,FEMA4ImagesEEG,001,102344,
AFNE01.JPG,AFNE01.JPG,AFNE01.JPG,AFNE01.JPG,AFNE01.JPG,AFNE01.JPG,,,,,,,,,,,,,1,5,15,2,,,,,,,,,,,AMSA12.jpg,AMNE15.jpg,AMSA05.jpg,AMNE14.jpg,AMNE15.jpg,MN,1,num_6,16,num_6,2.30003929092,,,2017_Nov_15_1311,60.0058315774,FEMA4ImagesEEG,001,102344,
AFNE01.JPG,AFNE01.JPG,AFNE01.JPG,AFNE01.JPG,AFNE01.JPG,AFNE01.JPG,,,,,,,,,,,,,1,6,16,8,,,,,,,,,,,AMNE05.jpg,AMNE02.jpg,AMSA11.jpg,AMSA13.jpg,AMNE02.jpg,MN,1,num_6,16,num_6,1.15012629097,,,2017_Nov_15_1311,60.0058315774,FEMA4ImagesEEG,001,102344,
AFNE01.JPG,AFNE01.JPG,AFNE01.JPG,AFNE01.JPG,AFNE01.JPG,AFNE01.JPG,,,,,,,,,,,,,1,7,17,6,,,,,,,,,,,AMSA20.jpg,AMNE04.jpg,AMNE17.jpg,AMSA03.jpg,AMNE04.jpg,MN,1,num_6,32,num_4,1.13343981886,,,2017_Nov_15_1311,60.0058315774,FEMA4ImagesEEG,001,102344,
AFNE01.JPG,AFNE01.JPG,AFNE01.JPG,AFNE01.JPG,AFNE01.JPG,AFNE01.JPG,,,,,,,,,,,,,1,8,18,0,,,,,,,,,,,AMNE17.jpg,AMSA18.jpg,AMSA13.jpg,AMNE11.jpg,AMNE11.jpg,MN,1,num_4,32,num_8,1.51672832901,,,2017_Nov_15_1311,60.0058315774,FEMA4ImagesEEG,001,102344,
AFNE01.JPG,AFNE01.JPG,AFNE01.JPG,AFNE01.JPG,AFNE01.JPG,AFNE01.JPG,,,,,,,,,,,,,1,9,19,5,,,,,,,,,,,AMNE04.jpg,AMSA16.jpg,AMNE10.jpg,AMSA18.jpg,AMNE04.jpg,MN,1,num_8,32,num_2,0.966774595436,,,2017_Nov_15_1311,60.0058315774,FEMA4ImagesEEG,001,102344,
AFNE01.JPG,AFNE01.JPG,AFNE01.JPG,AFNE01.JPG,AFNE01.JPG,AFNE01.JPG,,,,,,,,,,,,,2,0,20,7,,,,,,,,,,,AMNE19.jpg,AMNE09.jpg,AMSA14.jpg,AMSA12.jpg,AMSA12.jpg,MS,2,num_4,16,num_4,1.33342089551,,,2017_Nov_15_1311,60.0058315774,FEMA4ImagesEEG,001,102344,
AFNE01.JPG,AFNE01.JPG,AFNE01.JPG,AFNE01.JPG,AFNE01.JPG,AFNE01.JPG,,,,,,,,,,,,,2,1,21,5,,,,,,,,,,,AMSA11.jpg,AMSA19.jpg,AMNE01.jpg,AMNE11.jpg,AMSA11.jpg,MS,2,num_8,16,num_8,0.86680426402,,,2017_Nov_15_1311,60.0058315774,FEMA4ImagesEEG,001,102344,
AFNE01.JPG,AFNE01.JPG,AFNE01.JPG,AFNE01.JPG,AFNE01.JPG,AFNE01.JPG,,,,,,,,,,,,,2,2,22,1,,,,,,,,,,,AMSA03.jpg,AMSA18.jpg,AMNE07.jpg,AMNE15.jpg,AMSA18.jpg,MS,2,num_6,16,num_6,0.900178170763,,,2017_Nov_15_1311,60.0058315774,FEMA4ImagesEEG,001,102344,
AFNE01.JPG,AFNE01.JPG,AFNE01.JPG,AFNE01.JPG,AFNE01.JPG,AFNE01.JPG,,,,,,,,,,,,,2,3,23,4,,,,,,,,,,,AMNE09.jpg,AMNE19.jpg,AMSA01.jpg,AMSA09.jpg,AMSA01.jpg,MS,2,num_2,16,num_2,0.78350340575,,,2017_Nov_15_1311,60.0058315774,FEMA4ImagesEEG,001,102344,
AFNE01.JPG,AFNE01.JPG,AFNE01.JPG,AFNE01.JPG,AFNE01.JPG,AFNE01.JPG,,,,,,,,,,,,,2,4,24,0,,,,,,,,,,,AMSA19.jpg,AMSA14.jpg,AMNE16.jpg,AMNE15.jpg,AMSA19.jpg,MS,2,num_8,32,num_4,1.21704570064,,,2017_Nov_15_1311,60.0058315774,FEMA4ImagesEEG,001,102344,
AFNE01.JPG,AFNE01.JPG,AFNE01.JPG,AFNE01.JPG,AFNE01.JPG,AFNE01.JPG,,,,,,,,,,,,,2,5,25,2,,,,,,,,,,,AMSA18.jpg,AMSA14.jpg,AMNE07.jpg,AMNE02.jpg,AMNE02.jpg,MN,1,num_4,32,num_8,1.13339202898,,,2017_Nov_15_1311,60.0058315774,FEMA4ImagesEEG,001,102344,
AFNE01.JPG,AFNE01.JPG,AFNE01.JPG,AFNE01.JPG,AFNE01.JPG,AFNE01.JPG,,,,,,,,,,,,,2,6,26,8,,,,,,,,,,,AMNE15.jpg,AMNE20.jpg,AMSA18.jpg,AMSA05.jpg,AMNE20.jpg,MN,1,num_6,16,num_6,1.00008852407,,,2017_Nov_15_1311,60.0058315774,FEMA4ImagesEEG,001,102344,
AFNE01.JPG,AFNE01.JPG,AFNE01.JPG,AFNE01.JPG,AFNE01.JPG,AFNE01.JPG,,,,,,,,,,,,,2,7,27,6,,,,,,,,,,,AMNE05.jpg,AMNE20.jpg,AMSA19.jpg,AMSA12.jpg,AMSA12.jpg,MS,2,num_4,32,num_8,0.966797688976,,,2017_Nov_15_1311,60.0058315774,FEMA4ImagesEEG,001,102344,
AFNE01.JPG,AFNE01.JPG,AFNE01.JPG,AFNE01.JPG,AFNE01.JPG,AFNE01.JPG,,,,,,,,,,,,,2,8,28,3,,,,,,,,,,,AMNE13.jpg,AMSA18.jpg,AMSA12.jpg,AMNE19.jpg,AMNE13.jpg,MN,1,num_8,16,num_8,0.98344984185,,,2017_Nov_15_1311,60.0058315774,FEMA4ImagesEEG,001,102344,
AFNE01.JPG,AFNE01.JPG,AFNE01.JPG,AFNE01.JPG,AFNE01.JPG,AFNE01.JPG,,,,,,,,,,,,,2,9,29,9,,,,,,,,,,,AMNE05.jpg,AMSA15.jpg,AMSA18.jpg,AMNE17.jpg,AMNE17.jpg,MN,1,num_4,16,num_4,0.683446794748,,,2017_Nov_15_1311,60.0058315774,FEMA4ImagesEEG,001,102344,
AFNE01.JPG,AFNE01.JPG,AFNE01.JPG,AFNE01.JPG,AFNE01.JPG,AFNE01.JPG,,,,,,,,,,,,,3,0,30,4,,,,,,,,,,,AMSA20.jpg,AMSA09.jpg,AMNE04.jpg,AMNE20.jpg,AMNE20.jpg,MN,1,num_4,32,num_8,1.03340437682,,,2017_Nov_15_1311,60.0058315774,FEMA4ImagesEEG,001,102344,
AFNE01.JPG,AFNE01.JPG,AFNE01.JPG,AFNE01.JPG,AFNE01.JPG,AFNE01.JPG,,,,,,,,,,,,,3,1,31,1,,,,,,,,,,,AMNE20.jpg,AMNE10.jpg,AMSA15.jpg,AMSA12.jpg,AMSA12.jpg,MS,2,num_4,16,num_4,0.900157322641,,,2017_Nov_15_1311,60.0058315774,FEMA4ImagesEEG,001,102344,
AFNE01.JPG,AFNE01.JPG,AFNE01.JPG,AFNE01.JPG,AFNE01.JPG,AFNE01.JPG,,,,,,,,,,,,,3,2,32,2,,,,,,,,,,,AMNE14.jpg,AMNE15.jpg,AMSA18.jpg,AMSA04.jpg,AMNE14.jpg,MN,1,num_8,32,num_4,1.86672792817,,,2017_Nov_15_1311,60.0058315774,FEMA4ImagesEEG,001,102344,
AFNE01.JPG,AFNE01.JPG,AFNE01.JPG,AFNE01.JPG,AFNE01.JPG,AFNE01.JPG,,,,,,,,,,,,,3,3,33,7,,,,,,,,,,,AMNE01.jpg,AMSA20.jpg,AMSA02.jpg,AMNE20.jpg,AMSA20.jpg,MS,2,num_6,16,num_6,1.55009261379,,,2017_Nov_15_1311,60.0058315774,FEMA4ImagesEEG,001,102344,
AFNE01.JPG,AFNE01.JPG,AFNE01.JPG,AFNE01.JPG,AFNE01.JPG,AFNE01.JPG,,,,,,,,,,,,,3,4,34,3,,,,,,,,,,,AMSA09.jpg,AMSA19.jpg,AMNE14.jpg,AMNE15.jpg,AMNE14.jpg,MN,1,num_2,32,num_8,1.2833739873,,,2017_Nov_15_1311,60.0058315774,FEMA4ImagesEEG,001,102344,
AFNE01.JPG,AFNE01.JPG,AFNE01.JPG,AFNE01.JPG,AFNE01.JPG,AFNE01.JPG,,,,,,,,,,,,,3,5,35,5,,,,,,,,,,,AMSA17.jpg,AMNE07.jpg,AMSA14.jpg,AMNE19.jpg,AMSA14.jpg,MS,2,num_2,16,num_2,0.850111697335,,,2017_Nov_15_1311,60.0058315774,FEMA4ImagesEEG,001,102344,
AFNE01.JPG,AFNE01.JPG,AFNE01.JPG,AFNE01.JPG,AFNE01.JPG,AFNE01.JPG,,,,,,,,,,,,,3,6,36,6,,,,,,,,,,,AMSA05.jpg,AMNE09.jpg,AMSA12.jpg,AMNE03.jpg,AMSA12.jpg,MS,2,num_2,32,num_6,1.06672856957,,,2017_Nov_15_1311,60.0058315774,FEMA4ImagesEEG,001,102344,
AFNE01.JPG,AFNE01.JPG,AFNE01.JPG,AFNE01.JPG,AFNE01.JPG,AFNE01.JPG,,,,,,,,,,,,,3,7,37,0,,,,,,,,,,,AMSA13.jpg,AMSA18.jpg,AMNE11.jpg,AMNE08.jpg,AMNE08.jpg,MN,1,num_4,32,num_8,0.900127173401,,,2017_Nov_15_1311,60.0058315774,FEMA4ImagesEEG,001,102344,
AFNE01.JPG,AFNE01.JPG,AFNE01.JPG,AFNE01.JPG,AFNE01.JPG,AFNE01.JPG,,,,,,,,,,,,,3,8,38,9,,,,,,,,,,,AMNE11.jpg,AMSA01.jpg,AMSA05.jpg,AMNE16.jpg,AMSA05.jpg,MS,2,num_2,32,num_8,1.28346892586,,,2017_Nov_15_1311,60.0058315774,FEMA4ImagesEEG,001,102344,
AFNE01.JPG,AFNE01.JPG,AFNE01.JPG,AFNE01.JPG,AFNE01.JPG,AFNE01.JPG,,,,,,,,,,,,,3,9,39,8,,,,,,,,,,,AMSA01.jpg,AMSA11.jpg,AMNE16.jpg,AMNE04.jpg,AMNE16.jpg,MN,1,num_2,32,num_6,0.75011891406,,,2017_Nov_15_1311,60.0058315774,FEMA4ImagesEEG,001,102344,
AFNE01.JPG,AFNE01.JPG,AFNE01.JPG,AFNE01.JPG,AFNE01.JPG,AFNE01.JPG,,,,,,,,,,,,,4,0,40,6,,,,,,,,,,,AMNE09.jpg,AMSA07.jpg,AMSA18.jpg,AMNE16.jpg,AMNE09.jpg,MN,1,num_8,16,num_8,0.916783816647,,,2017_Nov_15_1311,60.0058315774,FEMA4ImagesEEG,001,102344,
AFNE01.JPG,AFNE01.JPG,AFNE01.JPG,AFNE01.JPG,AFNE01.JPG,AFNE01.JPG,,,,,,,,,,,,,4,1,41,1,,,,,,,,,,,AMSA06.jpg,AMSA03.jpg,AMNE16.jpg,AMNE05.jpg,AMSA03.jpg,MS,2,num_6,16,num_6,0.833833526354,,,2017_Nov_15_1311,60.0058315774,FEMA4ImagesEEG,001,102344,
AFNE01.JPG,AFNE01.JPG,AFNE01.JPG,AFNE01.JPG,AFNE01.JPG,AFNE01.JPG,,,,,,,,,,,,,4,2,42,4,,,,,,,,,,,AMNE15.jpg,AMSA09.jpg,AMNE02.jpg,AMSA07.jpg,AMNE15.jpg,MN,1,num_8,16,num_8,0.866775718052,,,2017_Nov_15_1311,60.0058315774,FEMA4ImagesEEG,001,102344,
AFNE01.JPG,AFNE01.JPG,AFNE01.JPG,AFNE01.JPG,AFNE01.JPG,AFNE01.JPG,,,,,,,,,,,,,4,3,43,2,,,,,,,,,,,AMSA01.jpg,AMSA19.jpg,AMNE17.jpg,AMNE13.jpg,AMSA01.jpg,MS,2,num_8,32,num_6,1.83319076477,,,2017_Nov_15_1311,60.0058315774,FEMA4ImagesEEG,001,102344,
AFNE01.JPG,AFNE01.JPG,AFNE01.JPG,AFNE01.JPG,AFNE01.JPG,AFNE01.JPG,,,,,,,,,,,,,4,4,44,7,,,,,,,,,,,AMNE14.jpg,AMNE09.jpg,AMSA13.jpg,AMSA16.jpg,AMNE09.jpg,MN,1,num_6,32,num_2,1.10006238427,,,2017_Nov_15_1311,60.0058315774,FEMA4ImagesEEG,001,102344,
AFNE01.JPG,AFNE01.JPG,AFNE01.JPG,AFNE01.JPG,AFNE01.JPG,AFNE01.JPG,,,,,,,,,,,,,4,5,45,8,,,,,,,,,,,AMSA07.jpg,AMNE14.jpg,AMSA06.jpg,AMNE02.jpg,AMSA07.jpg,MS,2,num_8,16,num_8,0.983547988348,,,2017_Nov_15_1311,60.0058315774,FEMA4ImagesEEG,001,102344,
AFNE01.JPG,AFNE01.JPG,AFNE01.JPG,AFNE01.JPG,AFNE01.JPG,AFNE01.JPG,,,,,,,,,,,,,4,6,46,3,,,,,,,,,,,AMNE13.jpg,AMSA04.jpg,AMNE14.jpg,AMSA17.jpg,AMSA04.jpg,MS,2,num_6,16,num_6,0.949966883752,,,2017_Nov_15_1311,60.0058315774,FEMA4ImagesEEG,001,102344,
AFNE01.JPG,AFNE01.JPG,AFNE01.JPG,AFNE01.JPG,AFNE01.JPG,AFNE01.JPG,,,,,,,,,,,,,4,7,47,0,,,,,,,,,,,AMSA20.jpg,AMNE07.jpg,AMSA02.jpg,AMNE10.jpg,AMNE10.jpg,MN,1,num_4,32,num_8,0.950133027043,,,2017_Nov_15_1311,60.0058315774,FEMA4ImagesEEG,001,102344,
AFNE01.JPG,AFNE01.JPG,AFNE01.JPG,AFNE01.JPG,AFNE01.JPG,AFNE01.JPG,,,,,,,,,,,,,4,8,48,5,,,,,,,,,,,AMNE01.jpg,AMNE20.jpg,AMSA06.jpg,AMSA16.jpg,AMSA06.jpg,MS,2,num_2,32,num_6,0.799960548989,,,2017_Nov_15_1311,60.0058315774,FEMA4ImagesEEG,001,102344,
AFNE01.JPG,AFNE01.JPG,AFNE01.JPG,AFNE01.JPG,AFNE01.JPG,AFNE01.JPG,,,,,,,,,,,,,4,9,49,9,,,,,,,,,,,AMSA08.jpg,AMNE20.jpg,AMSA17.jpg,AMNE02.jpg,AMNE02.jpg,MN,1,num_4,16,num_4,0.933404216543,,,2017_Nov_15_1311,60.0058315774,FEMA4ImagesEEG,001,102344,
AFNE01.JPG,AFNE01.JPG,AFNE01.JPG,AFNE01.JPG,AFNE01.JPG,AFNE01.JPG,,,,,,,,,,,,,5,0,50,3,,,,,,,,,,,AMNE05.jpg,AMSA17.jpg,AMNE03.jpg,AMSA10.jpg,AMNE03.jpg,MN,1,num_2,32,num_4,1.90004763007,,,2017_Nov_15_1311,60.0058315774,FEMA4ImagesEEG,001,102344,
AFNE01.JPG,AFNE01.JPG,AFNE01.JPG,AFNE01.JPG,AFNE01.JPG,AFNE01.JPG,,,,,,,,,,,,,5,1,51,8,,,,,,,,,,,AMSA06.jpg,AMNE04.jpg,AMNE08.jpg,AMSA19.jpg,AMNE04.jpg,MN,1,num_6,32,num_2,1.61674516788,,,2017_Nov_15_1311,60.0058315774,FEMA4ImagesEEG,001,102344,
AFNE01.JPG,AFNE01.JPG,AFNE01.JPG,AFNE01.JPG,AFNE01.JPG,AFNE01.JPG,,,,,,,,,,,,,5,2,52,9,,,,,,,,,,,AMNE15.jpg,AMNE01.jpg,AMSA02.jpg,AMSA10.jpg,AMSA02.jpg,MS,2,num_2,32,num_8,1.20009622211,,,2017_Nov_15_1311,60.0058315774,FEMA4ImagesEEG,001,102344,
AFNE01.JPG,AFNE01.JPG,AFNE01.JPG,AFNE01.JPG,AFNE01.JPG,AFNE01.JPG,,,,,,,,,,,,,5,3,53,4,,,,,,,,,,,AMNE10.jpg,AMSA08.jpg,AMNE07.jpg,AMSA20.jpg,AMNE10.jpg,MN,1,num_8,32,num_4,1.56670178799,,,2017_Nov_15_1311,60.0058315774,FEMA4ImagesEEG,001,102344,
AFNE01.JPG,AFNE01.JPG,AFNE01.JPG,AFNE01.JPG,AFNE01.JPG,AFNE01.JPG,,,,,,,,,,,,,5,4,54,5,,,,,,,,,,,AMSA02.jpg,AMNE18.jpg,AMNE01.jpg,AMSA11.jpg,AMNE18.jpg,MN,1,num_6,16,num_6,0.833325795829,,,2017_Nov_15_1311,60.0058315774,FEMA4ImagesEEG,001,102344,
AFNE01.JPG,AFNE01.JPG,AFNE01.JPG,AFNE01.JPG,AFNE01.JPG,AFNE01.JPG,,,,,,,,,,,,,5,5,55,1,,,,,,,,,,,AMNE20.jpg,AMSA04.jpg,AMNE04.jpg,AMSA15.jpg,AMNE04.jpg,MN,1,num_2,32,num_4,1.16674220096,,,2017_Nov_15_1311,60.0058315774,FEMA4ImagesEEG,001,102344,
AFNE01.JPG,AFNE01.JPG,AFNE01.JPG,AFNE01.JPG,AFNE01.JPG,AFNE01.JPG,,,,,,,,,,,,,5,6,56,7,,,,,,,,,,,AMNE15.jpg,AMSA18.jpg,AMSA06.jpg,AMNE20.jpg,AMSA06.jpg,MS,2,num_2,32,num_8,1.05016910983,,,2017_Nov_15_1311,60.0058315774,FEMA4ImagesEEG,001,102344,
AFNE01.JPG,AFNE01.JPG,AFNE01.JPG,AFNE01.JPG,AFNE01.JPG,AFNE01.JPG,,,,,,,,,,,,,5,7,57,0,,,,,,,,,,,AMSA17.jpg,AMNE14.jpg,AMSA08.jpg,AMNE13.jpg,AMNE14.jpg,MN,1,num_6,16,num_6,0.866736588068,,,2017_Nov_15_1311,60.0058315774,FEMA4ImagesEEG,001,102344,
AFNE01.JPG,AFNE01.JPG,AFNE01.JPG,AFNE01.JPG,AFNE01.JPG,AFNE01.JPG,,,,,,,,,,,,,5,8,58,6,,,,,,,,,,,AMNE07.jpg,AMSA14.jpg,AMSA17.jpg,AMNE09.jpg,AMSA17.jpg,MS,2,num_2,32,num_4,0.733447837178,,,2017_Nov_15_1311,60.0058315774,FEMA4ImagesEEG,001,102344,
AFNE01.JPG,AFNE01.JPG,AFNE01.JPG,AFNE01.JPG,AFNE01.JPG,AFNE01.JPG,,,,,,,,,,,,,5,9,59,2,,,,,,,,,,,AMSA18.jpg,AMNE17.jpg,AMNE19.jpg,AMSA02.jpg,AMNE17.jpg,MN,1,num_6,32,num_2,0.816760241985,,,2017_Nov_15_1311,60.0058315774,FEMA4ImagesEEG,001,102344,
,,,,,,,,,,,,,,,,,,,,,,,,,,,,,,,,,,,,,,,,,,,space,17.7488228059,2017_Nov_15_1311,60.0058315774,FEMA4ImagesEEG,001,102344,
AFNE01.JPG,AFNE01.JPG,AFNE01.JPG,AFNE01.JPG,AFNE01.JPG,AFNE01.JPG,,,,,,,,,,,,,,,,,0,0,0,1,,,,,,,AFSA03.jpg,AFSA02.jpg,AFNE04.jpg,AFNE09.jpg,AFSA03.jpg,FS,4,num_8,32,num_6,0.983468765393,,,2017_Nov_15_1311,60.0058315774,FEMA4ImagesEEG,001,102344,
AFNE01.JPG,AFNE01.JPG,AFNE01.JPG,AFNE01.JPG,AFNE01.JPG,AFNE01.JPG,,,,,,,,,,,,,,,,,0,1,1,2,,,,,,,AFNE07.jpg,AFNE04.jpg,AFSA07.jpg,AFSA17.jpg,AFNE07.jpg,FN,3,num_8,16,num_8,0.849819824565,,,2017_Nov_15_1311,60.0058315774,FEMA4ImagesEEG,001,102344,
AFNE01.JPG,AFNE01.JPG,AFNE01.JPG,AFNE01.JPG,AFNE01.JPG,AFNE01.JPG,,,,,,,,,,,,,,,,,0,2,2,8,,,,,,,AFSA14.jpg,AFNE19.jpg,AFSA02.jpg,AFNE17.jpg,AFNE19.jpg,FN,3,num_6,32,num_4,0.91684219148,,,2017_Nov_15_1311,60.0058315774,FEMA4ImagesEEG,001,102344,
AFNE01.JPG,AFNE01.JPG,AFNE01.JPG,AFNE01.JPG,AFNE01.JPG,AFNE01.JPG,,,,,,,,,,,,,,,,,0,3,3,4,,,,,,,AFSA04.jpg,AFNE09.jpg,AFNE02.jpg,AFSA16.jpg,AFSA16.jpg,FS,4,num_4,16,num_4,0.916806268506,,,2017_Nov_15_1311,60.0058315774,FEMA4ImagesEEG,001,102344,
AFNE01.JPG,AFNE01.JPG,AFNE01.JPG,AFNE01.JPG,AFNE01.JPG,AFNE01.JPG,,,,,,,,,,,,,,,,,0,4,4,7,,,,,,,AFNE05.jpg,AFSA09.jpg,AFSA02.jpg,AFNE04.jpg,AFSA02.jpg,FS,4,num_2,16,num_2,1.30013454985,,,2017_Nov_15_1311,60.0058315774,FEMA4ImagesEEG,001,102344,
AFNE01.JPG,AFNE01.JPG,AFNE01.JPG,AFNE01.JPG,AFNE01.JPG,AFNE01.JPG,,,,,,,,,,,,,,,,,0,5,5,6,,,,,,,AFNE05.jpg,AFSA03.jpg,AFNE17.jpg,AFSA07.jpg,AFSA07.jpg,FS,4,num_4,32,num_8,0.833464676049,,,2017_Nov_15_1311,60.0058315774,FEMA4ImagesEEG,001,102344,
AFNE01.JPG,AFNE01.JPG,AFNE01.JPG,AFNE01.JPG,AFNE01.JPG,AFNE01.JPG,,,,,,,,,,,,,,,,,0,6,6,3,,,,,,,AFNE12.jpg,AFSA17.jpg,AFNE16.jpg,AFSA11.jpg,AFSA11.jpg,FS,4,num_4,16,num_4,1.0501094521,,,2017_Nov_15_1311,60.0058315774,FEMA4ImagesEEG,001,102344,
AFNE01.JPG,AFNE01.JPG,AFNE01.JPG,AFNE01.JPG,AFNE01.JPG,AFNE01.JPG,,,,,,,,,,,,,,,,,0,7,7,5,,,,,,,AFNE04.jpg,AFSA18.jpg,AFNE18.jpg,AFSA16.jpg,AFSA16.jpg,FS,4,num_4,32,num_8,1.14995950647,,,2017_Nov_15_1311,60.0058315774,FEMA4ImagesEEG,001,102344,
AFNE01.JPG,AFNE01.JPG,AFNE01.JPG,AFNE01.JPG,AFNE01.JPG,AFNE01.JPG,,,,,,,,,,,,,,,,,0,8,8,9,,,,,,,AFNE10.jpg,AFSA05.jpg,AFSA01.jpg,AFNE18.jpg,AFSA05.jpg,FS,4,num_6,16,num_6,0.916779326741,,,2017_Nov_15_1311,60.0058315774,FEMA4ImagesEEG,001,102344,
AFNE01.JPG,AFNE01.JPG,AFNE01.JPG,AFNE01.JPG,AFNE01.JPG,AFNE01.JPG,,,,,,,,,,,,,,,,,0,9,9,0,,,,,,,AFNE04.jpg,AFSA08.jpg,AFSA17.jpg,AFNE05.jpg,AFSA17.jpg,FS,4,num_2,32,num_4,0.900131022092,,,2017_Nov_15_1311,60.0058315774,FEMA4ImagesEEG,001,102344,
AFNE01.JPG,AFNE01.JPG,AFNE01.JPG,AFNE01.JPG,AFNE01.JPG,AFNE01.JPG,,,,,,,,,,,,,,,,,1,0,10,9,,,,,,,AFNE04.jpg,AFSA09.jpg,AFNE15.jpg,AFSA15.jpg,AFNE04.jpg,FN,3,num_8,32,num_2,1.98335426161,,,2017_Nov_15_1311,60.0058315774,FEMA4ImagesEEG,001,102344,
AFNE01.JPG,AFNE01.JPG,AFNE01.JPG,AFNE01.JPG,AFNE01.JPG,AFNE01.JPG,,,,,,,,,,,,,,,,,1,1,11,2,,,,,,,AFNE12.jpg,AFNE19.jpg,AFSA15.jpg,AFSA12.jpg,AFNE12.jpg,FN,3,num_8,16,num_8,1.00016325666,,,2017_Nov_15_1311,60.0058315774,FEMA4ImagesEEG,001,102344,
AFNE01.JPG,AFNE01.JPG,AFNE01.JPG,AFNE01.JPG,AFNE01.JPG,AFNE01.JPG,,,,,,,,,,,,,,,,,1,2,12,3,,,,,,,AFSA12.jpg,AFNE01.jpg,AFSA14.jpg,AFNE11.jpg,AFSA12.jpg,FS,4,num_8,32,num_6,1.10014288966,,,2017_Nov_15_1311,60.0058315774,FEMA4ImagesEEG,001,102344,
AFNE01.JPG,AFNE01.JPG,AFNE01.JPG,AFNE01.JPG,AFNE01.JPG,AFNE01.JPG,,,,,,,,,,,,,,,,,1,3,13,5,,,,,,,AFNE16.jpg,AFSA08.jpg,AFSA04.jpg,AFNE14.jpg,AFNE16.jpg,FN,3,num_8,32,num_4,0.783465237822,,,2017_Nov_15_1311,60.0058315774,FEMA4ImagesEEG,001,102344,
AFNE01.JPG,AFNE01.JPG,AFNE01.JPG,AFNE01.JPG,AFNE01.JPG,AFNE01.JPG,,,,,,,,,,,,,,,,,1,4,14,8,,,,,,,AFNE07.jpg,AFSA07.jpg,AFNE12.jpg,AFSA12.jpg,AFNE12.jpg,FN,3,num_2,32,num_8,0.783475501463,,,2017_Nov_15_1311,60.0058315774,FEMA4ImagesEEG,001,102344,
AFNE01.JPG,AFNE01.JPG,AFNE01.JPG,AFNE01.JPG,AFNE01.JPG,AFNE01.JPG,,,,,,,,,,,,,,,,,1,5,15,6,,,,,,,AFNE20.jpg,AFSA09.jpg,AFSA12.jpg,AFNE14.jpg,AFSA09.jpg,FS,4,num_6,32,num_2,0.800386170391,,,2017_Nov_15_1311,60.0058315774,FEMA4ImagesEEG,001,102344,
AFNE01.JPG,AFNE01.JPG,AFNE01.JPG,AFNE01.JPG,AFNE01.JPG,AFNE01.JPG,,,,,,,,,,,,,,,,,1,6,16,7,,,,,,,AFSA11.jpg,AFNE08.jpg,AFNE09.jpg,AFSA09.jpg,AFNE08.jpg,FN,3,num_6,32,num_4,3.66657557664,,,2017_Nov_15_1311,60.0058315774,FEMA4ImagesEEG,001,102344,
AFNE01.JPG,AFNE01.JPG,AFNE01.JPG,AFNE01.JPG,AFNE01.JPG,AFNE01.JPG,,,,,,,,,,,,,,,,,1,7,17,4,,,,,,,AFSA14.jpg,AFNE07.jpg,AFSA12.jpg,AFNE10.jpg,AFSA12.jpg,FS,4,num_2,32,num_6,0.666751662735,,,2017_Nov_15_1311,60.0058315774,FEMA4ImagesEEG,001,102344,
AFNE01.JPG,AFNE01.JPG,AFNE01.JPG,AFNE01.JPG,AFNE01.JPG,AFNE01.JPG,,,,,,,,,,,,,,,,,1,8,18,0,,,,,,,AFSA11.jpg,AFSA15.jpg,AFNE19.jpg,AFNE04.jpg,AFNE04.jpg,FN,3,num_4,32,num_6,1.05007288791,,,2017_Nov_15_1311,60.0058315774,FEMA4ImagesEEG,001,102344,
AFNE01.JPG,AFNE01.JPG,AFNE01.JPG,AFNE01.JPG,AFNE01.JPG,AFNE01.JPG,,,,,,,,,,,,,,,,,1,9,19,1,,,,,,,AFNE19.jpg,AFSA11.jpg,AFNE01.jpg,AFSA06.jpg,AFSA11.jpg,FS,4,num_6,16,num_6,0.783463312779,,,2017_Nov_15_1311,60.0058315774,FEMA4ImagesEEG,001,102344,
AFNE01.JPG,AFNE01.JPG,AFNE01.JPG,AFNE01.JPG,AFNE01.JPG,AFNE01.JPG,,,,,,,,,,,,,,,,,2,0,20,7,,,,,,,AFSA04.jpg,AFNE04.jpg,AFSA16.jpg,AFNE18.jpg,AFSA16.jpg,FS,4,num_2,32,num_8,1.05023069168,,,2017_Nov_15_1311,60.0058315774,FEMA4ImagesEEG,001,102344,
AFNE01.JPG,AFNE01.JPG,AFNE01.JPG,AFNE01.JPG,AFNE01.JPG,AFNE01.JPG,,,,,,,,,,,,,,,,,2,1,21,3,,,,,,,AFSA15.jpg,AFNE15.jpg,AFNE11.jpg,AFSA07.jpg,AFSA07.jpg,FS,4,num_4,32,num_6,0.900109532289,,,2017_Nov_15_1311,60.0058315774,FEMA4ImagesEEG,001,102344,
AFNE01.JPG,AFNE01.JPG,AFNE01.JPG,AFNE01.JPG,AFNE01.JPG,AFNE01.JPG,,,,,,,,,,,,,,,,,2,2,22,0,,,,,,,AFNE09.jpg,AFSA02.jpg,AFNE07.jpg,AFSA20.jpg,AFNE09.jpg,FN,3,num_8,32,num_2,1.03344382811,,,2017_Nov_15_1311,60.0058315774,FEMA4ImagesEEG,001,102344,
AFNE01.JPG,AFNE01.JPG,AFNE01.JPG,AFNE01.JPG,AFNE01.JPG,AFNE01.JPG,,,,,,,,,,,,,,,,,2,3,23,9,,,,,,,AFSA01.jpg,AFSA15.jpg,AFNE01.jpg,AFNE09.jpg,AFNE09.jpg,FN,3,num_4,32,num_6,1.48338777898,,,2017_Nov_15_1311,60.0058315774,FEMA4ImagesEEG,001,102344,
AFNE01.JPG,AFNE01.JPG,AFNE01.JPG,AFNE01.JPG,AFNE01.JPG,AFNE01.JPG,,,,,,,,,,,,,,,,,2,4,24,5,,,,,,,AFNE20.jpg,AFSA03.jpg,AFSA08.jpg,AFNE19.jpg,AFSA03.jpg,FS,4,num_6,32,num_2,1.03345505381,,,2017_Nov_15_1311,60.0058315774,FEMA4ImagesEEG,001,102344,
AFNE01.JPG,AFNE01.JPG,AFNE01.JPG,AFNE01.JPG,AFNE01.JPG,AFNE01.JPG,,,,,,,,,,,,,,,,,2,5,25,8,,,,,,,AFSA15.jpg,AFSA07.jpg,AFNE04.jpg,AFNE19.jpg,AFNE19.jpg,FN,3,num_4,16,num_4,0.683430116624,,,2017_Nov_15_1311,60.0058315774,FEMA4ImagesEEG,001,102344,
AFNE01.JPG,AFNE01.JPG,AFNE01.JPG,AFNE01.JPG,AFNE01.JPG,AFNE01.JPG,,,,,,,,,,,,,,,,,2,6,26,2,,,,,,,AFSA11.jpg,AFNE16.jpg,AFNE01.jpg,AFSA15.jpg,AFNE01.jpg,FN,3,num_2,32,num_6,1.03346211044,,,2017_Nov_15_1311,60.0058315774,FEMA4ImagesEEG,001,102344,
AFNE01.JPG,AFNE01.JPG,AFNE01.JPG,AFNE01.JPG,AFNE01.JPG,AFNE01.JPG,,,,,,,,,,,,,,,,,2,7,27,1,,,,,,,AFSA09.jpg,AFSA02.jpg,AFNE01.jpg,AFNE17.jpg,AFSA02.jpg,FS,4,num_6,32,num_8,0.916781571694,,,2017_Nov_15_1311,60.0058315774,FEMA4ImagesEEG,001,102344,
AFNE01.JPG,AFNE01.JPG,AFNE01.JPG,AFNE01.JPG,AFNE01.JPG,AFNE01.JPG,,,,,,,,,,,,,,,,,2,8,28,6,,,,,,,AFNE12.jpg,AFNE01.jpg,AFSA13.jpg,AFSA16.jpg,AFSA13.jpg,FS,4,num_2,16,num_2,0.866793037858,,,2017_Nov_15_1311,60.0058315774,FEMA4ImagesEEG,001,102344,
AFNE01.JPG,AFNE01.JPG,AFNE01.JPG,AFNE01.JPG,AFNE01.JPG,AFNE01.JPG,,,,,,,,,,,,,,,,,2,9,29,4,,,,,,,AFNE08.jpg,AFSA15.jpg,AFNE07.jpg,AFSA18.jpg,AFSA18.jpg,FS,4,num_4,16,num_4,0.783446313813,,,2017_Nov_15_1311,60.0058315774,FEMA4ImagesEEG,001,102344,
AFNE01.JPG,AFNE01.JPG,AFNE01.JPG,AFNE01.JPG,AFNE01.JPG,AFNE01.JPG,,,,,,,,,,,,,,,,,3,0,30,6,,,,,,,AFSA02.jpg,AFNE09.jpg,AFSA16.jpg,AFNE19.jpg,AFNE19.jpg,FN,3,num_4,32,num_8,0.716803702526,,,2017_Nov_15_1311,60.0058315774,FEMA4ImagesEEG,001,102344,
AFNE01.JPG,AFNE01.JPG,AFNE01.JPG,AFNE01.JPG,AFNE01.JPG,AFNE01.JPG,,,,,,,,,,,,,,,,,3,1,31,2,,,,,,,AFSA10.jpg,AFNE14.jpg,AFNE12.jpg,AFSA12.jpg,AFSA10.jpg,FS,4,num_8,32,num_6,0.85014794115,,,2017_Nov_15_1311,60.0058315774,FEMA4ImagesEEG,001,102344,
AFNE01.JPG,AFNE01.JPG,AFNE01.JPG,AFNE01.JPG,AFNE01.JPG,AFNE01.JPG,,,,,,,,,,,,,,,,,3,2,32,4,,,,,,,AFNE08.jpg,AFSA20.jpg,AFNE09.jpg,AFSA01.jpg,AFSA20.jpg,FS,4,num_6,32,num_8,0.81677243067,,,2017_Nov_15_1311,60.0058315774,FEMA4ImagesEEG,001,102344,
AFNE01.JPG,AFNE01.JPG,AFNE01.JPG,AFNE01.JPG,AFNE01.JPG,AFNE01.JPG,,,,,,,,,,,,,,,,,3,3,33,8,,,,,,,AFSA07.jpg,AFSA04.jpg,AFNE07.jpg,AFNE18.jpg,AFSA07.jpg,FS,4,num_8,32,num_6,0.966767860111,,,2017_Nov_15_1311,60.0058315774,FEMA4ImagesEEG,001,102344,
AFNE01.JPG,AFNE01.JPG,AFNE01.JPG,AFNE01.JPG,AFNE01.JPG,AFNE01.JPG,,,,,,,,,,,,,,,,,3,4,34,3,,,,,,,AFSA18.jpg,AFSA04.jpg,AFNE05.jpg,AFNE04.jpg,AFSA04.jpg,FS,4,num_6,32,num_4,0.683344479185,,,2017_Nov_15_1311,60.0058315774,FEMA4ImagesEEG,001,102344,
AFNE01.JPG,AFNE01.JPG,AFNE01.JPG,AFNE01.JPG,AFNE01.JPG,AFNE01.JPG,,,,,,,,,,,,,,,,,3,5,35,0,,,,,,,AFSA07.jpg,AFNE07.jpg,AFSA14.jpg,AFNE09.jpg,AFNE09.jpg,FN,3,num_4,32,num_8,0.850110094063,,,2017_Nov_15_1311,60.0058315774,FEMA4ImagesEEG,001,102344,
AFNE01.JPG,AFNE01.JPG,AFNE01.JPG,AFNE01.JPG,AFNE01.JPG,AFNE01.JPG,,,,,,,,,,,,,,,,,3,6,36,1,,,,,,,AFNE05.jpg,AFSA15.jpg,AFNE15.jpg,AFSA04.jpg,AFSA04.jpg,FS,4,num_4,16,num_4,1.31680306094,,,2017_Nov_15_1311,60.0058315774,FEMA4ImagesEEG,001,102344,
AFNE01.JPG,AFNE01.JPG,AFNE01.JPG,AFNE01.JPG,AFNE01.JPG,AFNE01.JPG,,,,,,,,,,,,,,,,,3,7,37,7,,,,,,,AFNE10.jpg,AFNE05.jpg,AFSA14.jpg,AFSA09.jpg,AFSA09.jpg,FS,4,num_4,32,num_8,0.849993344396,,,2017_Nov_15_1311,60.0058315774,FEMA4ImagesEEG,001,102344,
AFNE01.JPG,AFNE01.JPG,AFNE01.JPG,AFNE01.JPG,AFNE01.JPG,AFNE01.JPG,,,,,,,,,,,,,,,,,3,8,38,9,,,,,,,AFSA18.jpg,AFNE14.jpg,AFSA11.jpg,AFNE19.jpg,AFNE19.jpg,FN,3,num_4,16,num_4,0.916753667407,,,2017_Nov_15_1311,60.0058315774,FEMA4ImagesEEG,001,102344,
AFNE01.JPG,AFNE01.JPG,AFNE01.JPG,AFNE01.JPG,AFNE01.JPG,AFNE01.JPG,,,,,,,,,,,,,,,,,3,9,39,5,,,,,,,AFNE17.jpg,AFSA09.jpg,AFSA18.jpg,AFNE01.jpg,AFSA09.jpg,FS,4,num_6,32,num_2,0.983442144003,,,2017_Nov_15_1311,60.0058315774,FEMA4ImagesEEG,001,102344,
AFNE01.JPG,AFNE01.JPG,AFNE01.JPG,AFNE01.JPG,AFNE01.JPG,AFNE01.JPG,,,,,,,,,,,,,,,,,4,0,40,9,,,,,,,AFSA13.jpg,AFNE16.jpg,AFNE17.jpg,AFSA20.jpg,AFNE17.jpg,FN,3,num_2,32,num_6,0.683468284551,,,2017_Nov_15_1311,60.0058315774,FEMA4ImagesEEG,001,102344,
AFNE01.JPG,AFNE01.JPG,AFNE01.JPG,AFNE01.JPG,AFNE01.JPG,AFNE01.JPG,,,,,,,,,,,,,,,,,4,1,41,6,,,,,,,AFSA13.jpg,AFNE13.jpg,AFSA04.jpg,AFNE10.jpg,AFSA04.jpg,FS,4,num_2,32,num_8,1.05015050666,,,2017_Nov_15_1311,60.0058315774,FEMA4ImagesEEG,001,102344,
AFNE01.JPG,AFNE01.JPG,AFNE01.JPG,AFNE01.JPG,AFNE01.JPG,AFNE01.JPG,,,,,,,,,,,,,,,,,4,2,42,1,,,,,,,AFNE09.jpg,AFNE13.jpg,AFSA01.jpg,AFSA17.jpg,AFSA01.jpg,FS,4,num_2,16,num_2,0.800105523318,,,2017_Nov_15_1311,60.0058315774,FEMA4ImagesEEG,001,102344,
AFNE01.JPG,AFNE01.JPG,AFNE01.JPG,AFNE01.JPG,AFNE01.JPG,AFNE01.JPG,,,,,,,,,,,,,,,,,4,3,43,7,,,,,,,AFNE11.jpg,AFNE01.jpg,AFSA08.jpg,AFSA03.jpg,AFNE11.jpg,FN,3,num_8,32,num_4,0.583496669773,,,2017_Nov_15_1311,60.0058315774,FEMA4ImagesEEG,001,102344,
AFNE01.JPG,AFNE01.JPG,AFNE01.JPG,AFNE01.JPG,AFNE01.JPG,AFNE01.JPG,,,,,,,,,,,,,,,,,4,4,44,0,,,,,,,AFNE03.jpg,AFSA14.jpg,AFSA04.jpg,AFNE18.jpg,AFNE03.jpg,FN,3,num_8,32,num_6,1.20005003549,,,2017_Nov_15_1311,60.0058315774,FEMA4ImagesEEG,001,102344,
AFNE01.JPG,AFNE01.JPG,AFNE01.JPG,AFNE01.JPG,AFNE01.JPG,AFNE01.JPG,,,,,,,,,,,,,,,,,4,5,45,3,,,,,,,AFSA02.jpg,AFSA05.jpg,AFNE06.jpg,AFNE10.jpg,AFNE10.jpg,FN,3,num_4,16,num_4,0.633193009999,,,2017_Nov_15_1311,60.0058315774,FEMA4ImagesEEG,001,102344,
AFNE01.JPG,AFNE01.JPG,AFNE01.JPG,AFNE01.JPG,AFNE01.JPG,AFNE01.JPG,,,,,,,,,,,,,,,,,4,6,46,5,,,,,,,AFSA17.jpg,AFNE15.jpg,AFNE09.jpg,AFSA09.jpg,AFNE15.jpg,FN,3,num_6,16,num_6,0.883459303528,,,2017_Nov_15_1311,60.0058315774,FEMA4ImagesEEG,001,102344,
AFNE01.JPG,AFNE01.JPG,AFNE01.JPG,AFNE01.JPG,AFNE01.JPG,AFNE01.JPG,,,,,,,,,,,,,,,,,4,7,47,4,,,,,,,AFSA10.jpg,AFSA13.jpg,AFNE07.jpg,AFNE06.jpg,AFSA10.jpg,FS,4,num_8,32,num_2,1.33341768803,,,2017_Nov_15_1311,60.0058315774,FEMA4ImagesEEG,001,102344,
AFNE01.JPG,AFNE01.JPG,AFNE01.JPG,AFNE01.JPG,AFNE01.JPG,AFNE01.JPG,,,,,,,,,,,,,,,,,4,8,48,2,,,,,,,AFSA15.jpg,AFNE13.jpg,AFNE05.jpg,AFSA02.jpg,AFNE05.jpg,FN,3,num_2,32,num_4,1.00010648556,,,2017_Nov_15_1311,60.0058315774,FEMA4ImagesEEG,001,102344,
AFNE01.JPG,AFNE01.JPG,AFNE01.JPG,AFNE01.JPG,AFNE01.JPG,AFNE01.JPG,,,,,,,,,,,,,,,,,4,9,49,8,,,,,,,AFNE07.jpg,AFSA18.jpg,AFNE04.jpg,AFSA07.jpg,AFNE07.jpg,FN,3,num_8,32,num_6,1.38340397598,,,2017_Nov_15_1311,60.0058315774,FEMA4ImagesEEG,001,102344,
AFNE01.JPG,AFNE01.JPG,AFNE01.JPG,AFNE01.JPG,AFNE01.JPG,AFNE01.JPG,,,,,,,,,,,,,,,,,5,0,50,7,,,,,,,AFSA09.jpg,AFNE01.jpg,AFSA12.jpg,AFNE06.jpg,AFNE01.jpg,FN,3,num_6,16,num_6,1.01683369186,,,2017_Nov_15_1311,60.0058315774,FEMA4ImagesEEG,001,102344,
AFNE01.JPG,AFNE01.JPG,AFNE01.JPG,AFNE01.JPG,AFNE01.JPG,AFNE01.JPG,,,,,,,,,,,,,,,,,5,1,51,9,,,,,,,AFNE03.jpg,AFNE08.jpg,AFSA15.jpg,AFSA03.jpg,AFNE08.jpg,FN,3,num_6,16,num_6,0.900097986218,,,2017_Nov_15_1311,60.0058315774,FEMA4ImagesEEG,001,102344,
AFNE01.JPG,AFNE01.JPG,AFNE01.JPG,AFNE01.JPG,AFNE01.JPG,AFNE01.JPG,,,,,,,,,,,,,,,,,5,2,52,3,,,,,,,AFNE04.jpg,AFNE20.jpg,AFSA08.jpg,AFSA17.jpg,AFNE20.jpg,FN,3,num_6,32,num_4,0.983402372804,,,2017_Nov_15_1311,60.0058315774,FEMA4ImagesEEG,001,102344,
AFNE01.JPG,AFNE01.JPG,AFNE01.JPG,AFNE01.JPG,AFNE01.JPG,AFNE01.JPG,,,,,,,,,,,,,,,,,5,3,53,1,,,,,,,AFSA06.jpg,AFNE06.jpg,AFSA07.jpg,AFNE20.jpg,AFSA06.jpg,FS,4,num_8,32,num_2,0.65015211096,,,2017_Nov_15_1311,60.0058315774,FEMA4ImagesEEG,001,102344,
AFNE01.JPG,AFNE01.JPG,AFNE01.JPG,AFNE01.JPG,AFNE01.JPG,AFNE01.JPG,,,,,,,,,,,,,,,,,5,4,54,5,,,,,,,AFNE14.jpg,AFNE15.jpg,AFSA06.jpg,AFSA08.jpg,AFNE14.jpg,FN,3,num_8,16,num_8,0.833526258357,,,2017_Nov_15_1311,60.0058315774,FEMA4ImagesEEG,001,102344,
AFNE01.JPG,AFNE01.JPG,AFNE01.JPG,AFNE01.JPG,AFNE01.JPG,AFNE01.JPG,,,,,,,,,,,,,,,,,5,5,55,2,,,,,,,AFSA02.jpg,AFNE14.jpg,AFNE13.jpg,AFSA13.jpg,AFSA13.jpg,FS,4,num_4,32,num_2,0.883417607285,,,2017_Nov_15_1311,60.0058315774,FEMA4ImagesEEG,001,102344,
AFNE01.JPG,AFNE01.JPG,AFNE01.JPG,AFNE01.JPG,AFNE01.JPG,AFNE01.JPG,,,,,,,,,,,,,,,,,5,6,56,0,,,,,,,AFSA12.jpg,AFNE09.jpg,AFNE11.jpg,AFSA20.jpg,AFNE09.jpg,FN,3,num_6,32,num_4,0.283522810321,,,2017_Nov_15_1311,60.0058315774,FEMA4ImagesEEG,001,102344,
AFNE01.JPG,AFNE01.JPG,AFNE01.JPG,AFNE01.JPG,AFNE01.JPG,AFNE01.JPG,,,,,,,,,,,,,,,,,5,7,57,4,,,,,,,AFNE10.jpg,AFSA16.jpg,AFSA03.jpg,AFNE18.jpg,AFSA03.jpg,FS,4,num_2,32,num_8,0.916778043378,,,2017_Nov_15_1311,60.0058315774,FEMA4ImagesEEG,001,102344,
AFNE01.JPG,AFNE01.JPG,AFNE01.JPG,AFNE01.JPG,AFNE01.JPG,AFNE01.JPG,,,,,,,,,,,,,,,,,5,8,58,8,,,,,,,AFNE17.jpg,AFSA06.jpg,AFNE01.jpg,AFSA09.jpg,AFNE01.jpg,FN,3,num_2,32,num_4,0.883555525448,,,2017_Nov_15_1311,60.0058315774,FEMA4ImagesEEG,001,102344,
AFNE01.JPG,AFNE01.JPG,AFNE01.JPG,AFNE01.JPG,AFNE01.JPG,AFNE01.JPG,,,,,,,,,,,,,,,,,5,9,59,6,,,,,,,AFNE19.jpg,AFSA17.jpg,AFSA08.jpg,AFNE16.jpg,AFNE19.jpg,FN,3,num_8,32,num_6,0.733456497546,,,2017_Nov_15_1311,60.0058315774,FEMA4ImagesEEG,001,102344,
,,,,,,,,,,,,,,,,,,,,,,,,,,,,,,,,,,,,,,,,,,,space,50.6962189628,2017_Nov_15_1311,60.0058315774,FEMA4ImagesEEG,001,102344,
AFNE01.JPG,AFNE01.JPG,AFNE01.JPG,AFNE01.JPG,AFNE01.JPG,AFNE01.JPG,,,,,,,,,,,,,,,,,,,,,0,0,0,1,,,AMNE10.jpg,AMSA10.jpg,AMNE07.jpg,AMSA09.jpg,AMSA09.jpg,MS,2,num_4,16,num_4,0.800131503027,,,2017_Nov_15_1311,60.0058315774,FEMA4ImagesEEG,001,102344,
AFNE01.JPG,AFNE01.JPG,AFNE01.JPG,AFNE01.JPG,AFNE01.JPG,AFNE01.JPG,,,,,,,,,,,,,,,,,,,,,0,1,1,4,,,AMNE13.jpg,AMSA18.jpg,AMNE04.jpg,AMSA12.jpg,AMSA18.jpg,MS,2,num_6,16,num_6,1.26672824891,,,2017_Nov_15_1311,60.0058315774,FEMA4ImagesEEG,001,102344,
AFNE01.JPG,AFNE01.JPG,AFNE01.JPG,AFNE01.JPG,AFNE01.JPG,AFNE01.JPG,,,,,,,,,,,,,,,,,,,,,0,2,2,9,,,AMNE03.jpg,AMNE05.jpg,AMSA12.jpg,AMSA14.jpg,AMNE05.jpg,MN,1,num_6,32,num_8,1.10011370247,,,2017_Nov_15_1311,60.0058315774,FEMA4ImagesEEG,001,102344,
AFNE01.JPG,AFNE01.JPG,AFNE01.JPG,AFNE01.JPG,AFNE01.JPG,AFNE01.JPG,,,,,,,,,,,,,,,,,,,,,0,3,3,6,,,AMNE20.jpg,AMSA09.jpg,AMSA02.jpg,AMNE10.jpg,AMSA09.jpg,MS,2,num_6,16,num_6,0.76676850114,,,2017_Nov_15_1311,60.0058315774,FEMA4ImagesEEG,001,102344,
AFNE01.JPG,AFNE01.JPG,AFNE01.JPG,AFNE01.JPG,AFNE01.JPG,AFNE01.JPG,,,,,,,,,,,,,,,,,,,,,0,4,4,2,,,AMSA11.jpg,AMNE02.jpg,AMSA10.jpg,AMNE10.jpg,AMNE10.jpg,MN,1,num_4,32,num_8,0.800120918546,,,2017_Nov_15_1311,60.0058315774,FEMA4ImagesEEG,001,102344,
AFNE01.JPG,AFNE01.JPG,AFNE01.JPG,AFNE01.JPG,AFNE01.JPG,AFNE01.JPG,,,,,,,,,,,,,,,,,,,,,0,5,5,3,,,AMSA19.jpg,AMNE11.jpg,AMSA15.jpg,AMNE07.jpg,AMSA19.jpg,MS,2,num_8,32,num_4,0.733482477255,,,2017_Nov_15_1311,60.0058315774,FEMA4ImagesEEG,001,102344,
AFNE01.JPG,AFNE01.JPG,AFNE01.JPG,AFNE01.JPG,AFNE01.JPG,AFNE01.JPG,,,,,,,,,,,,,,,,,,,,,0,6,6,0,,,AMNE20.jpg,AMNE08.jpg,AMSA16.jpg,AMSA05.jpg,AMSA05.jpg,MS,2,num_4,32,num_2,0.783487047534,,,2017_Nov_15_1311,60.0058315774,FEMA4ImagesEEG,001,102344,
AFNE01.JPG,AFNE01.JPG,AFNE01.JPG,AFNE01.JPG,AFNE01.JPG,AFNE01.JPG,,,,,,,,,,,,,,,,,,,,,0,7,7,5,,,AMSA06.jpg,AMSA15.jpg,AMNE17.jpg,AMNE08.jpg,AMNE17.jpg,MN,1,num_2,32,num_6,0.600103278179,,,2017_Nov_15_1311,60.0058315774,FEMA4ImagesEEG,001,102344,
AFNE01.JPG,AFNE01.JPG,AFNE01.JPG,AFNE01.JPG,AFNE01.JPG,AFNE01.JPG,,,,,,,,,,,,,,,,,,,,,0,8,8,8,,,AMNE13.jpg,AMNE09.jpg,AMSA18.jpg,AMSA01.jpg,AMNE13.jpg,MN,1,num_8,32,num_6,0.816763449926,,,2017_Nov_15_1311,60.0058315774,FEMA4ImagesEEG,001,102344,
AFNE01.JPG,AFNE01.JPG,AFNE01.JPG,AFNE01.JPG,AFNE01.JPG,AFNE01.JPG,,,,,,,,,,,,,,,,,,,,,0,9,9,7,,,AMSA08.jpg,AMSA19.jpg,AMNE11.jpg,AMNE16.jpg,AMNE16.jpg,MN,1,num_4,32,num_8,1.36672488088,,,2017_Nov_15_1311,60.0058315774,FEMA4ImagesEEG,001,102344,
AFNE01.JPG,AFNE01.JPG,AFNE01.JPG,AFNE01.JPG,AFNE01.JPG,AFNE01.JPG,,,,,,,,,,,,,,,,,,,,,1,0,10,0,,,AMNE17.jpg,AMNE08.jpg,AMSA12.jpg,AMSA18.jpg,AMSA12.jpg,MS,2,num_2,32,num_6,0.483676444273,,,2017_Nov_15_1311,60.0058315774,FEMA4ImagesEEG,001,102344,
AFNE01.JPG,AFNE01.JPG,AFNE01.JPG,AFNE01.JPG,AFNE01.JPG,AFNE01.JPG,,,,,,,,,,,,,,,,,,,,,1,1,11,1,,,AMNE06.jpg,AMSA14.jpg,AMSA08.jpg,AMNE05.jpg,AMNE06.jpg,MN,1,num_8,32,num_4,0.850099830423,,,2017_Nov_15_1311,60.0058315774,FEMA4ImagesEEG,001,102344,
AFNE01.JPG,AFNE01.JPG,AFNE01.JPG,AFNE01.JPG,AFNE01.JPG,AFNE01.JPG,,,,,,,,,,,,,,,,,,,,,1,2,12,8,,,AMNE08.jpg,AMNE11.jpg,AMSA20.jpg,AMSA11.jpg,AMNE11.jpg,MN,1,num_6,16,num_6,0.833460186142,,,2017_Nov_15_1311,60.0058315774,FEMA4ImagesEEG,001,102344,
AFNE01.JPG,AFNE01.JPG,AFNE01.JPG,AFNE01.JPG,AFNE01.JPG,AFNE01.JPG,,,,,,,,,,,,,,,,,,,,,1,3,13,5,,,AMSA14.jpg,AMNE06.jpg,AMNE02.jpg,AMSA06.jpg,AMSA14.jpg,MS,2,num_8,16,num_8,0.933494986035,,,2017_Nov_15_1311,60.0058315774,FEMA4ImagesEEG,001,102344,
AFNE01.JPG,AFNE01.JPG,AFNE01.JPG,AFNE01.JPG,AFNE01.JPG,AFNE01.JPG,,,,,,,,,,,,,,,,,,,,,1,4,14,3,,,AMSA16.jpg,AMNE12.jpg,AMNE17.jpg,AMSA07.jpg,AMNE12.jpg,MN,1,num_6,16,num_6,0.633524975274,,,2017_Nov_15_1311,60.0058315774,FEMA4ImagesEEG,001,102344,
AFNE01.JPG,AFNE01.JPG,AFNE01.JPG,AFNE01.JPG,AFNE01.JPG,AFNE01.JPG,,,,,,,,,,,,,,,,,,,,,1,5,15,2,,,AMSA13.jpg,AMSA03.jpg,AMNE07.jpg,AMNE13.jpg,AMSA13.jpg,MS,2,num_8,32,num_2,1.10011562658,,,2017_Nov_15_1311,60.0058315774,FEMA4ImagesEEG,001,102344,
AFNE01.JPG,AFNE01.JPG,AFNE01.JPG,AFNE01.JPG,AFNE01.JPG,AFNE01.JPG,,,,,,,,,,,,,,,,,,,,,1,6,16,9,,,AMSA13.jpg,AMNE03.jpg,AMSA09.jpg,AMNE17.jpg,AMNE17.jpg,MN,1,num_4,16,num_4,0.616764732637,,,2017_Nov_15_1311,60.0058315774,FEMA4ImagesEEG,001,102344,
AFNE01.JPG,AFNE01.JPG,AFNE01.JPG,AFNE01.JPG,AFNE01.JPG,AFNE01.JPG,,,,,,,,,,,,,,,,,,,,,1,7,17,6,,,AMNE06.jpg,AMNE09.jpg,AMSA01.jpg,AMSA06.jpg,AMSA06.jpg,MS,2,num_4,32,num_8,0.733437894378,,,2017_Nov_15_1311,60.0058315774,FEMA4ImagesEEG,001,102344,
AFNE01.JPG,AFNE01.JPG,AFNE01.JPG,AFNE01.JPG,AFNE01.JPG,AFNE01.JPG,,,,,,,,,,,,,,,,,,,,,1,8,18,4,,,AMSA04.jpg,AMSA19.jpg,AMNE02.jpg,AMNE13.jpg,AMNE02.jpg,MN,1,num_2,16,num_2,1.28346347343,,,2017_Nov_15_1311,60.0058315774,FEMA4ImagesEEG,001,102344,
AFNE01.JPG,AFNE01.JPG,AFNE01.JPG,AFNE01.JPG,AFNE01.JPG,AFNE01.JPG,,,,,,,,,,,,,,,,,,,,,1,9,19,7,,,AMSA17.jpg,AMSA15.jpg,AMNE03.jpg,AMNE10.jpg,AMNE03.jpg,MN,1,num_2,32,num_4,1.93341544271,,,2017_Nov_15_1311,60.0058315774,FEMA4ImagesEEG,001,102344,
AFNE01.JPG,AFNE01.JPG,AFNE01.JPG,AFNE01.JPG,AFNE01.JPG,AFNE01.JPG,,,,,,,,,,,,,,,,,,,,,2,0,20,3,,,AMSA19.jpg,AMNE03.jpg,AMSA14.jpg,AMNE17.jpg,AMSA19.jpg,MS,2,num_8,16,num_8,1.04994908255,,,2017_Nov_15_1311,60.0058315774,FEMA4ImagesEEG,001,102344,
AFNE01.JPG,AFNE01.JPG,AFNE01.JPG,AFNE01.JPG,AFNE01.JPG,AFNE01.JPG,,,,,,,,,,,,,,,,,,,,,2,1,21,9,,,AMSA13.jpg,AMNE17.jpg,AMSA09.jpg,AMNE04.jpg,AMNE17.jpg,MN,1,num_6,16,num_6,0.31679760851,,,2017_Nov_15_1311,60.0058315774,FEMA4ImagesEEG,001,102344,
AFNE01.JPG,AFNE01.JPG,AFNE01.JPG,AFNE01.JPG,AFNE01.JPG,AFNE01.JPG,,,,,,,,,,,,,,,,,,,,,2,2,22,5,,,AMSA13.jpg,AMNE13.jpg,AMSA15.jpg,AMNE04.jpg,AMNE04.jpg,MN,1,num_4,16,num_4,0.250143450685,,,2017_Nov_15_1311,60.0058315774,FEMA4ImagesEEG,001,102344,
AFNE01.JPG,AFNE01.JPG,AFNE01.JPG,AFNE01.JPG,AFNE01.JPG,AFNE01.JPG,,,,,,,,,,,,,,,,,,,,,2,3,23,2,,,AMNE10.jpg,AMSA01.jpg,AMNE09.jpg,AMSA02.jpg,AMSA01.jpg,MS,2,num_6,16,num_6,0.916819739621,,,2017_Nov_15_1311,60.0058315774,FEMA4ImagesEEG,001,102344,
AFNE01.JPG,AFNE01.JPG,AFNE01.JPG,AFNE01.JPG,AFNE01.JPG,AFNE01.JPG,,,,,,,,,,,,,,,,,,,,,2,4,24,4,,,AMNE09.jpg,AMSA20.jpg,AMSA10.jpg,AMNE01.jpg,AMNE09.jpg,MN,1,num_8,16,num_8,0.783460426144,,,2017_Nov_15_1311,60.0058315774,FEMA4ImagesEEG,001,102344,
AFNE01.JPG,AFNE01.JPG,AFNE01.JPG,AFNE01.JPG,AFNE01.JPG,AFNE01.JPG,,,,,,,,,,,,,,,,,,,,,2,5,25,7,,,AMNE01.jpg,AMSA12.jpg,AMNE03.jpg,AMSA08.jpg,AMSA08.jpg,MS,2,num_4,32,num_2,0.483317537233,,,2017_Nov_15_1311,60.0058315774,FEMA4ImagesEEG,001,102344,
AFNE01.JPG,AFNE01.JPG,AFNE01.JPG,AFNE01.JPG,AFNE01.JPG,AFNE01.JPG,,,,,,,,,,,,,,,,,,,,,2,6,26,0,,,AMSA12.jpg,AMNE02.jpg,AMSA14.jpg,AMNE07.jpg,AMSA14.jpg,MS,2,num_2,32,num_6,0.666626253165,,,2017_Nov_15_1311,60.0058315774,FEMA4ImagesEEG,001,102344,
AFNE01.JPG,AFNE01.JPG,AFNE01.JPG,AFNE01.JPG,AFNE01.JPG,AFNE01.JPG,,,,,,,,,,,,,,,,,,,,,2,7,27,1,,,AMSA14.jpg,AMSA19.jpg,AMNE01.jpg,AMNE07.jpg,AMSA14.jpg,MS,2,num_8,32,num_6,0.916822626255,,,2017_Nov_15_1311,60.0058315774,FEMA4ImagesEEG,001,102344,
AFNE01.JPG,AFNE01.JPG,AFNE01.JPG,AFNE01.JPG,AFNE01.JPG,AFNE01.JPG,,,,,,,,,,,,,,,,,,,,,2,8,28,6,,,AMSA16.jpg,AMNE16.jpg,AMSA05.jpg,AMNE09.jpg,AMNE09.jpg,MN,1,num_4,32,num_8,0.633465317544,,,2017_Nov_15_1311,60.0058315774,FEMA4ImagesEEG,001,102344,
AFNE01.JPG,AFNE01.JPG,AFNE01.JPG,AFNE01.JPG,AFNE01.JPG,AFNE01.JPG,,,,,,,,,,,,,,,,,,,,,2,9,29,8,,,AMNE15.jpg,AMSA11.jpg,AMSA12.jpg,AMNE18.jpg,AMNE15.jpg,MN,1,num_8,32,num_2,0.683465718292,,,2017_Nov_15_1311,60.0058315774,FEMA4ImagesEEG,001,102344,
AFNE01.JPG,AFNE01.JPG,AFNE01.JPG,AFNE01.JPG,AFNE01.JPG,AFNE01.JPG,,,,,,,,,,,,,,,,,,,,,3,0,30,3,,,AMNE05.jpg,AMSA02.jpg,AMSA05.jpg,AMNE13.jpg,AMNE05.jpg,MN,1,num_8,32,num_4,1.13343821513,,,2017_Nov_15_1311,60.0058315774,FEMA4ImagesEEG,001,102344,
AFNE01.JPG,AFNE01.JPG,AFNE01.JPG,AFNE01.JPG,AFNE01.JPG,AFNE01.JPG,,,,,,,,,,,,,,,,,,,,,3,1,31,9,,,AMSA16.jpg,AMNE14.jpg,AMSA15.jpg,AMNE19.jpg,AMNE14.jpg,MN,1,num_6,16,num_6,0.666774755809,,,2017_Nov_15_1311,60.0058315774,FEMA4ImagesEEG,001,102344,
AFNE01.JPG,AFNE01.JPG,AFNE01.JPG,AFNE01.JPG,AFNE01.JPG,AFNE01.JPG,,,,,,,,,,,,,,,,,,,,,3,2,32,1,,,AMSA05.jpg,AMSA15.jpg,AMNE10.jpg,AMNE15.jpg,AMSA15.jpg,MS,2,num_6,32,num_8,0.833453449886,,,2017_Nov_15_1311,60.0058315774,FEMA4ImagesEEG,001,102344,
AFNE01.JPG,AFNE01.JPG,AFNE01.JPG,AFNE01.JPG,AFNE01.JPG,AFNE01.JPG,,,,,,,,,,,,,,,,,,,,,3,3,33,0,,,AMSA12.jpg,AMNE11.jpg,AMSA08.jpg,AMNE04.jpg,AMNE04.jpg,MN,1,num_4,32,num_6,0.516868171282,,,2017_Nov_15_1311,60.0058315774,FEMA4ImagesEEG,001,102344,
AFNE01.JPG,AFNE01.JPG,AFNE01.JPG,AFNE01.JPG,AFNE01.JPG,AFNE01.JPG,,,,,,,,,,,,,,,,,,,,,3,4,34,7,,,AMNE07.jpg,AMSA13.jpg,AMSA11.jpg,AMNE12.jpg,AMNE12.jpg,MN,1,num_4,32,num_2,0.933460025582,,,2017_Nov_15_1311,60.0058315774,FEMA4ImagesEEG,001,102344,
AFNE01.JPG,AFNE01.JPG,AFNE01.JPG,AFNE01.JPG,AFNE01.JPG,AFNE01.JPG,,,,,,,,,,,,,,,,,,,,,3,5,35,5,,,AMSA06.jpg,AMNE04.jpg,AMSA09.jpg,AMNE07.jpg,AMNE07.jpg,MN,1,num_4,16,num_4,0.450164940674,,,2017_Nov_15_1311,60.0058315774,FEMA4ImagesEEG,001,102344,
AFNE01.JPG,AFNE01.JPG,AFNE01.JPG,AFNE01.JPG,AFNE01.JPG,AFNE01.JPG,,,,,,,,,,,,,,,,,,,,,3,6,36,6,,,AMNE02.jpg,AMNE20.jpg,AMSA03.jpg,AMSA20.jpg,AMSA03.jpg,MS,2,num_2,32,num_8,0.700116268359,,,2017_Nov_15_1311,60.0058315774,FEMA4ImagesEEG,001,102344,
AFNE01.JPG,AFNE01.JPG,AFNE01.JPG,AFNE01.JPG,AFNE01.JPG,AFNE01.JPG,,,,,,,,,,,,,,,,,,,,,3,7,37,2,,,AMSA03.jpg,AMSA14.jpg,AMNE18.jpg,AMNE16.jpg,AMSA14.jpg,MS,2,num_6,32,num_2,1.13346900605,,,2017_Nov_15_1311,60.0058315774,FEMA4ImagesEEG,001,102344,
AFNE01.JPG,AFNE01.JPG,AFNE01.JPG,AFNE01.JPG,AFNE01.JPG,AFNE01.JPG,,,,,,,,,,,,,,,,,,,,,3,8,38,4,,,AMNE07.jpg,AMSA11.jpg,AMSA04.jpg,AMNE08.jpg,AMNE08.jpg,MN,1,num_4,32,num_8,1.03342650784,,,2017_Nov_15_1311,60.0058315774,FEMA4ImagesEEG,001,102344,
AFNE01.JPG,AFNE01.JPG,AFNE01.JPG,AFNE01.JPG,AFNE01.JPG,AFNE01.JPG,,,,,,,,,,,,,,,,,,,,,3,9,39,8,,,AMNE15.jpg,AMSA02.jpg,AMNE05.jpg,AMSA20.jpg,AMNE05.jpg,MN,1,num_2,32,num_6,0.300148662645,,,2017_Nov_15_1311,60.0058315774,FEMA4ImagesEEG,001,102344,
