IPosition2,IPosition3,IPosition1,IPosition6,IPosition4,IPosition5,TrialsM1.thisRepN,TrialsM1.thisTrialN,TrialsM1.thisN,TrialsM1.thisIndex,TrialsF1.thisRepN,TrialsF1.thisTrialN,TrialsF1.thisN,TrialsF1.thisIndex,TrialsM2.thisRepN,TrialsM2.thisTrialN,TrialsM2.thisN,TrialsM2.thisIndex,TrialsF2.thisRepN,TrialsF2.thisTrialN,TrialsF2.thisN,TrialsF2.thisIndex,TrialsM3.thisRepN,TrialsM3.thisTrialN,TrialsM3.thisN,TrialsM3.thisIndex,TrialsF3.thisRepN,TrialsF3.thisTrialN,TrialsF3.thisN,TrialsF3.thisIndex,InstrKey_resp.keys,InstrKey_resp.rt,Image0 _Position,Image1 _Position,Image2 _Position,Image3 _Position,Center_image,condition,code,correct_answer,accuracy,Key_Resp.keys,Key_Resp.rt,BreakKey_resp.keys,BreakKey_resp.rt,date,frameRate,expName,session,participant,
,,,,,,,,,,,,,,,,,,,,,,,,,,,,,,space,8.19936987583,,,,,,,,,,,,,,2017_Nov_30_1152,60.0050809253,MAFE4ImagesEEG,001,102379,
AFNE22.JPG,AFSA24.JPG,AFSA22.JPG,AFNE25.JPG,AFNE24.JPG,AFSA25.JPG,0,0,0,6,,,,,,,,,,,,,,,,,,,,,,,AMNE15.jpg,AMNE05.jpg,AMSA03.jpg,AMSA12.jpg,AMSA03.jpg,MS,2,num_2,32,num_4,1.26673633128,,,2017_Nov_30_1152,60.0050809253,MAFE4ImagesEEG,001,102379,
AFSA21.JPG,AFNE22.JPG,AFNE21.JPG,AFSA23.JPG,AFSA22.JPG,AFNE23.JPG,0,1,1,0,,,,,,,,,,,,,,,,,,,,,,,AMSA12.jpg,AMNE12.jpg,AMSA03.jpg,AMNE09.jpg,AMSA03.jpg,MS,2,num_2,16,num_2,1.21670807421,,,2017_Nov_30_1152,60.0050809253,MAFE4ImagesEEG,001,102379,
AMNE22.JPG,AMSA24.JPG,AMSA22.JPG,AMNE25.JPG,AMNE24.JPG,AMSA25.JPG,0,2,2,7,,,,,,,,,,,,,,,,,,,,,,,AMNE09.jpg,AMSA05.jpg,AMSA16.jpg,AMNE18.jpg,AMSA16.jpg,MS,2,num_2,16,num_2,1.58341367845,,,2017_Nov_30_1152,60.0050809253,MAFE4ImagesEEG,001,102379,
AMSA21.JPG,AMNE23.JPG,AMNE21.JPG,AMSA25.JPG,AMNE25.JPG,AMSA23.JPG,0,3,3,5,,,,,,,,,,,,,,,,,,,,,,,AMNE13.jpg,AMNE09.jpg,AMSA04.jpg,AMSA19.jpg,AMNE13.jpg,MN,1,num_8,32,num_6,0.966752817156,,,2017_Nov_30_1152,60.0050809253,MAFE4ImagesEEG,001,102379,
AMSA25.JPG,AMNE24.JPG,AMSA24.JPG,AMNE26.JPG,AMSA21.JPG,AMNE25.JPG,0,4,4,3,,,,,,,,,,,,,,,,,,,,,,,AMSA07.jpg,AMNE19.jpg,AMSA13.jpg,AMNE09.jpg,AMSA13.jpg,MS,2,num_2,32,num_4,1.35006084421,,,2017_Nov_30_1152,60.0050809253,MAFE4ImagesEEG,001,102379,
AMSA21.JPG,AMNE22.JPG,AMNE21.JPG,AMSA23.JPG,AMSA22.JPG,AMNE23.JPG,0,5,5,1,,,,,,,,,,,,,,,,,,,,,,,AMSA16.jpg,AMNE20.jpg,AMNE03.jpg,AMSA14.jpg,AMNE20.jpg,MN,1,num_6,16,num_6,1.28342920227,,,2017_Nov_30_1152,60.0050809253,MAFE4ImagesEEG,001,102379,
AMNE23.JPG,AMNE24.JPG,AMNE22.JPG,AMSA24.JPG,AMSA22.JPG,AMSA23.JPG,0,6,6,9,,,,,,,,,,,,,,,,,,,,,,,AMNE16.jpg,AMSA09.jpg,AMSA19.jpg,AMNE05.jpg,AMSA19.jpg,MS,2,num_2,32,num_6,1.3167469477,,,2017_Nov_30_1152,60.0050809253,MAFE4ImagesEEG,001,102379,
AFSA21.JPG,AFNE23.JPG,AFNE21.JPG,AFSA25.JPG,AFNE25.JPG,AFSA23.JPG,0,7,7,4,,,,,,,,,,,,,,,,,,,,,,,AMNE03.jpg,AMSA14.jpg,AMSA06.jpg,AMNE19.jpg,AMNE19.jpg,MN,1,num_4,16,num_4,0.899901148165,,,2017_Nov_30_1152,60.0050809253,MAFE4ImagesEEG,001,102379,
AFSA25.JPG,AFNE24.JPG,AFSA24.JPG,AFNE21.JPG,AFSA21.JPG,AFNE25.JPG,0,8,8,2,,,,,,,,,,,,,,,,,,,,,,,AMSA01.jpg,AMSA15.jpg,AMNE11.jpg,AMNE05.jpg,AMSA15.jpg,MS,2,num_6,16,num_6,0.900101289502,,,2017_Nov_30_1152,60.0050809253,MAFE4ImagesEEG,001,102379,
AFNE23.JPG,AFNE24.JPG,AFNE22.JPG,AFSA24.JPG,AFSA22.JPG,AFSA23.JPG,0,9,9,8,,,,,,,,,,,,,,,,,,,,,,,AMNE07.jpg,AMSA07.jpg,AMNE04.jpg,AMSA15.jpg,AMSA07.jpg,MS,2,num_6,32,num_8,1.2500938162,,,2017_Nov_30_1152,60.0050809253,MAFE4ImagesEEG,001,102379,
AFNE22.JPG,AFSA24.JPG,AFSA22.JPG,AFNE25.JPG,AFNE24.JPG,AFSA25.JPG,,,,,0,0,0,6,,,,,,,,,,,,,,,,,,,AFNE02.jpg,AFNE11.jpg,AFSA09.jpg,AFSA10.jpg,AFNE02.jpg,FN,3,num_8,16,num_8,1.66672536195,,,2017_Nov_30_1152,60.0050809253,MAFE4ImagesEEG,001,102379,
AMSA25.JPG,AMNE24.JPG,AMSA24.JPG,AMNE26.JPG,AMSA21.JPG,AMNE25.JPG,,,,,0,1,1,3,,,,,,,,,,,,,,,,,,,AFSA05.jpg,AFNE17.jpg,AFSA07.jpg,AFNE06.jpg,AFSA05.jpg,FS,4,num_8,32,num_6,0.933423845912,,,2017_Nov_30_1152,60.0050809253,MAFE4ImagesEEG,001,102379,
AFNE23.JPG,AFNE24.JPG,AFNE22.JPG,AFSA24.JPG,AFSA22.JPG,AFSA23.JPG,,,,,0,2,2,8,,,,,,,,,,,,,,,,,,,AFSA05.jpg,AFNE05.jpg,AFNE09.jpg,AFSA08.jpg,AFNE05.jpg,FN,3,num_6,16,num_6,0.933425128926,,,2017_Nov_30_1152,60.0050809253,MAFE4ImagesEEG,001,102379,
AMNE22.JPG,AMSA24.JPG,AMSA22.JPG,AMNE25.JPG,AMNE24.JPG,AMSA25.JPG,,,,,0,3,3,7,,,,,,,,,,,,,,,,,,,AFNE18.jpg,AFSA01.jpg,AFSA05.jpg,AFNE05.jpg,AFSA01.jpg,FS,4,num_6,16,num_6,1.6501707295,,,2017_Nov_30_1152,60.0050809253,MAFE4ImagesEEG,001,102379,
AFSA21.JPG,AFNE23.JPG,AFNE21.JPG,AFSA25.JPG,AFNE25.JPG,AFSA23.JPG,,,,,0,4,4,4,,,,,,,,,,,,,,,,,,,AFNE01.jpg,AFSA05.jpg,AFSA17.jpg,AFNE13.jpg,AFSA17.jpg,FS,4,num_2,32,num_4,1.88336319418,,,2017_Nov_30_1152,60.0050809253,MAFE4ImagesEEG,001,102379,
AMSA21.JPG,AMNE23.JPG,AMNE21.JPG,AMSA25.JPG,AMNE25.JPG,AMSA23.JPG,,,,,0,5,5,5,,,,,,,,,,,,,,,,,,,AFSA03.jpg,AFNE17.jpg,AFSA02.jpg,AFNE04.jpg,AFSA02.jpg,FS,4,num_2,32,num_8,1.21672346955,,,2017_Nov_30_1152,60.0050809253,MAFE4ImagesEEG,001,102379,
AFSA21.JPG,AFNE22.JPG,AFNE21.JPG,AFSA23.JPG,AFSA22.JPG,AFNE23.JPG,,,,,0,6,6,0,,,,,,,,,,,,,,,,,,,AFNE18.jpg,AFSA07.jpg,AFNE20.jpg,AFSA08.jpg,AFNE20.jpg,FN,3,num_2,32,num_8,2.21653198835,,,2017_Nov_30_1152,60.0050809253,MAFE4ImagesEEG,001,102379,
AMNE23.JPG,AMNE24.JPG,AMNE22.JPG,AMSA24.JPG,AMSA22.JPG,AMSA23.JPG,,,,,0,7,7,9,,,,,,,,,,,,,,,,,,,AFNE09.jpg,AFSA02.jpg,AFSA03.jpg,AFNE16.jpg,AFSA02.jpg,FS,4,num_6,16,num_6,1.10010366293,,,2017_Nov_30_1152,60.0050809253,MAFE4ImagesEEG,001,102379,
AFSA25.JPG,AFNE24.JPG,AFSA24.JPG,AFNE21.JPG,AFSA21.JPG,AFNE25.JPG,,,,,0,8,8,2,,,,,,,,,,,,,,,,,,,AFSA10.jpg,AFNE07.jpg,AFNE15.jpg,AFSA03.jpg,AFNE15.jpg,FN,3,num_2,16,num_2,1.50010007061,,,2017_Nov_30_1152,60.0050809253,MAFE4ImagesEEG,001,102379,
AMSA21.JPG,AMNE22.JPG,AMNE21.JPG,AMSA23.JPG,AMSA22.JPG,AMNE23.JPG,,,,,0,9,9,1,,,,,,,,,,,,,,,,,,,AFNE07.jpg,AFSA18.jpg,AFSA17.jpg,AFNE18.jpg,AFSA17.jpg,FS,4,num_2,32,num_8,1.96668706567,,,2017_Nov_30_1152,60.0050809253,MAFE4ImagesEEG,001,102379,
AFSA25.JPG,AFNE24.JPG,AFSA24.JPG,AFNE21.JPG,AFSA21.JPG,AFNE25.JPG,,,,,,,,,0,0,0,2,,,,,,,,,,,,,,,AMSA11.jpg,AMNE11.jpg,AMSA06.jpg,AMNE01.jpg,AMSA11.jpg,MS,2,num_8,16,num_8,0.866827485384,,,2017_Nov_30_1152,60.0050809253,MAFE4ImagesEEG,001,102379,
AMSA25.JPG,AMNE24.JPG,AMSA24.JPG,AMNE26.JPG,AMSA21.JPG,AMNE25.JPG,,,,,,,,,0,1,1,3,,,,,,,,,,,,,,,AMSA07.jpg,AMNE20.jpg,AMSA10.jpg,AMNE17.jpg,AMNE17.jpg,MN,1,num_4,16,num_4,1.31674149504,,,2017_Nov_30_1152,60.0050809253,MAFE4ImagesEEG,001,102379,
AMNE22.JPG,AMSA24.JPG,AMSA22.JPG,AMNE25.JPG,AMNE24.JPG,AMSA25.JPG,,,,,,,,,0,2,2,7,,,,,,,,,,,,,,,AMSA16.jpg,AMNE20.jpg,AMSA11.jpg,AMNE04.jpg,AMSA11.jpg,MS,2,num_2,32,num_8,1.23340286955,,,2017_Nov_30_1152,60.0050809253,MAFE4ImagesEEG,001,102379,
AFNE22.JPG,AFSA24.JPG,AFSA22.JPG,AFNE25.JPG,AFNE24.JPG,AFSA25.JPG,,,,,,,,,0,3,3,6,,,,,,,,,,,,,,,AMSA11.jpg,AMSA05.jpg,AMNE03.jpg,AMNE14.jpg,AMNE03.jpg,MN,1,num_2,16,num_2,2.38331380032,,,2017_Nov_30_1152,60.0050809253,MAFE4ImagesEEG,001,102379,
AFSA21.JPG,AFNE23.JPG,AFNE21.JPG,AFSA25.JPG,AFNE25.JPG,AFSA23.JPG,,,,,,,,,0,4,4,4,,,,,,,,,,,,,,,AMSA06.jpg,AMNE13.jpg,AMSA09.jpg,AMNE15.jpg,AMNE15.jpg,MN,1,num_4,32,num_8,1.23325821618,,,2017_Nov_30_1152,60.0050809253,MAFE4ImagesEEG,001,102379,
AMNE23.JPG,AMNE24.JPG,AMNE22.JPG,AMSA24.JPG,AMSA22.JPG,AMSA23.JPG,,,,,,,,,0,5,5,9,,,,,,,,,,,,,,,AMSA04.jpg,AMNE15.jpg,AMNE19.jpg,AMSA07.jpg,AMNE19.jpg,MN,1,num_2,16,num_2,0.950125377043,,,2017_Nov_30_1152,60.0050809253,MAFE4ImagesEEG,001,102379,
AMSA21.JPG,AMNE23.JPG,AMNE21.JPG,AMSA25.JPG,AMNE25.JPG,AMSA23.JPG,,,,,,,,,0,6,6,5,,,,,,,,,,,,,,,AMSA16.jpg,AMNE02.jpg,AMSA17.jpg,AMNE20.jpg,AMSA16.jpg,MS,2,num_8,16,num_8,0.633505121223,,,2017_Nov_30_1152,60.0050809253,MAFE4ImagesEEG,001,102379,
AMSA21.JPG,AMNE22.JPG,AMNE21.JPG,AMSA23.JPG,AMSA22.JPG,AMNE23.JPG,,,,,,,,,0,7,7,1,,,,,,,,,,,,,,,AMSA13.jpg,AMNE10.jpg,AMNE04.jpg,AMSA11.jpg,AMNE10.jpg,MN,1,num_6,32,num_2,1.56671375118,,,2017_Nov_30_1152,60.0050809253,MAFE4ImagesEEG,001,102379,
AFSA21.JPG,AFNE22.JPG,AFNE21.JPG,AFSA23.JPG,AFSA22.JPG,AFNE23.JPG,,,,,,,,,0,8,8,0,,,,,,,,,,,,,,,AMSA05.jpg,AMNE06.jpg,AMSA09.jpg,AMNE18.jpg,AMNE06.jpg,MN,1,num_6,32,num_4,1.08338417055,,,2017_Nov_30_1152,60.0050809253,MAFE4ImagesEEG,001,102379,
AFNE23.JPG,AFNE24.JPG,AFNE22.JPG,AFSA24.JPG,AFSA22.JPG,AFSA23.JPG,,,,,,,,,0,9,9,8,,,,,,,,,,,,,,,AMNE19.jpg,AMNE01.jpg,AMSA13.jpg,AMSA05.jpg,AMSA05.jpg,MS,2,num_4,16,num_4,1.13343744527,,,2017_Nov_30_1152,60.0050809253,MAFE4ImagesEEG,001,102379,
AFSA25.JPG,AFNE24.JPG,AFSA24.JPG,AFNE21.JPG,AFSA21.JPG,AFNE25.JPG,,,,,,,,,,,,,0,0,0,2,,,,,,,,,,,AFNE18.jpg,AFNE03.jpg,AFSA20.jpg,AFSA03.jpg,AFSA20.jpg,FS,4,num_2,16,num_2,1.73364727281,,,2017_Nov_30_1152,60.0050809253,MAFE4ImagesEEG,001,102379,
AFNE22.JPG,AFSA24.JPG,AFSA22.JPG,AFNE25.JPG,AFNE24.JPG,AFSA25.JPG,,,,,,,,,,,,,0,1,1,6,,,,,,,,,,,AFNE11.jpg,AFSA11.jpg,AFSA17.jpg,AFNE12.jpg,AFSA11.jpg,FS,4,num_6,16,num_6,0.883471604087,,,2017_Nov_30_1152,60.0050809253,MAFE4ImagesEEG,001,102379,
AMSA21.JPG,AMNE23.JPG,AMNE21.JPG,AMSA25.JPG,AMNE25.JPG,AMSA23.JPG,,,,,,,,,,,,,0,2,2,5,,,,,,,,,,,AFNE13.jpg,AFSA16.jpg,AFSA13.jpg,AFNE12.jpg,AFSA13.jpg,FS,4,num_2,32,num_4,1.16675294552,,,2017_Nov_30_1152,60.0050809253,MAFE4ImagesEEG,001,102379,
AFNE23.JPG,AFNE24.JPG,AFNE22.JPG,AFSA24.JPG,AFSA22.JPG,AFSA23.JPG,,,,,,,,,,,,,0,3,3,8,,,,,,,,,,,AFNE19.jpg,AFSA12.jpg,AFSA14.jpg,AFNE18.jpg,AFSA14.jpg,FS,4,num_2,16,num_2,1.08342714957,,,2017_Nov_30_1152,60.0050809253,MAFE4ImagesEEG,001,102379,
AMSA21.JPG,AMNE22.JPG,AMNE21.JPG,AMSA23.JPG,AMSA22.JPG,AMNE23.JPG,,,,,,,,,,,,,0,4,4,1,,,,,,,,,,,AFSA15.jpg,AFSA07.jpg,AFNE13.jpg,AFNE12.jpg,AFNE12.jpg,FN,3,num_4,32,num_6,1.58341945172,,,2017_Nov_30_1152,60.0050809253,MAFE4ImagesEEG,001,102379,
AMNE22.JPG,AMSA24.JPG,AMSA22.JPG,AMNE25.JPG,AMNE24.JPG,AMSA25.JPG,,,,,,,,,,,,,0,5,5,7,,,,,,,,,,,AFSA20.jpg,AFNE11.jpg,AFSA13.jpg,AFNE12.jpg,AFSA13.jpg,FS,4,num_2,32,num_8,1.0334745869,,,2017_Nov_30_1152,60.0050809253,MAFE4ImagesEEG,001,102379,
AFSA21.JPG,AFNE23.JPG,AFNE21.JPG,AFSA25.JPG,AFNE25.JPG,AFSA23.JPG,,,,,,,,,,,,,0,6,6,4,,,,,,,,,,,AFSA10.jpg,AFSA03.jpg,AFNE15.jpg,AFNE12.jpg,AFSA10.jpg,FS,4,num_8,32,num_6,1.10007800371,,,2017_Nov_30_1152,60.0050809253,MAFE4ImagesEEG,001,102379,
AFSA21.JPG,AFNE22.JPG,AFNE21.JPG,AFSA23.JPG,AFSA22.JPG,AFNE23.JPG,,,,,,,,,,,,,0,7,7,0,,,,,,,,,,,AFSA19.jpg,AFNE08.jpg,AFNE11.jpg,AFSA16.jpg,AFNE11.jpg,FN,3,num_2,32,num_4,1.2500716853,,,2017_Nov_30_1152,60.0050809253,MAFE4ImagesEEG,001,102379,
AMSA25.JPG,AMNE24.JPG,AMSA24.JPG,AMNE26.JPG,AMSA21.JPG,AMNE25.JPG,,,,,,,,,,,,,0,8,8,3,,,,,,,,,,,AFSA14.jpg,AFNE06.jpg,AFNE08.jpg,AFSA06.jpg,AFSA14.jpg,FS,4,num_8,16,num_8,0.699821155868,,,2017_Nov_30_1152,60.0050809253,MAFE4ImagesEEG,001,102379,
AMNE23.JPG,AMNE24.JPG,AMNE22.JPG,AMSA24.JPG,AMSA22.JPG,AMSA23.JPG,,,,,,,,,,,,,0,9,9,9,,,,,,,,,,,AFNE14.jpg,AFNE20.jpg,AFSA11.jpg,AFSA10.jpg,AFNE14.jpg,FN,3,num_8,32,num_6,1.03343000403,,,2017_Nov_30_1152,60.0050809253,MAFE4ImagesEEG,001,102379,
AFSA21.JPG,AFNE22.JPG,AFNE21.JPG,AFSA23.JPG,AFSA22.JPG,AFNE23.JPG,,,,,,,,,,,,,,,,,0,0,0,0,,,,,,,AMSA18.jpg,AMSA14.jpg,AMNE13.jpg,AMNE04.jpg,AMNE13.jpg,MN,1,num_2,16,num_2,0.800121111097,,,2017_Nov_30_1152,60.0050809253,MAFE4ImagesEEG,001,102379,
AFSA21.JPG,AFNE23.JPG,AFNE21.JPG,AFSA25.JPG,AFNE25.JPG,AFSA23.JPG,,,,,,,,,,,,,,,,,0,1,1,4,,,,,,,AMNE03.jpg,AMSA04.jpg,AMSA02.jpg,AMNE11.jpg,AMSA04.jpg,MS,2,num_6,32,num_8,1.14995487209,,,2017_Nov_30_1152,60.0050809253,MAFE4ImagesEEG,001,102379,
AMSA21.JPG,AMNE22.JPG,AMNE21.JPG,AMSA23.JPG,AMSA22.JPG,AMNE23.JPG,,,,,,,,,,,,,,,,,0,2,2,1,,,,,,,AMSA12.jpg,AMNE10.jpg,AMNE18.jpg,AMSA17.jpg,AMNE18.jpg,MN,1,num_2,32,num_6,0.800139713916,,,2017_Nov_30_1152,60.0050809253,MAFE4ImagesEEG,001,102379,
AFNE23.JPG,AFNE24.JPG,AFNE22.JPG,AFSA24.JPG,AFSA22.JPG,AFSA23.JPG,,,,,,,,,,,,,,,,,0,3,3,8,,,,,,,AMNE19.jpg,AMNE13.jpg,AMSA13.jpg,AMSA15.jpg,AMNE19.jpg,MN,1,num_8,32,num_6,1.01675541524,,,2017_Nov_30_1152,60.0050809253,MAFE4ImagesEEG,001,102379,
AFSA25.JPG,AFNE24.JPG,AFSA24.JPG,AFNE21.JPG,AFSA21.JPG,AFNE25.JPG,,,,,,,,,,,,,,,,,0,4,4,2,,,,,,,AMNE14.jpg,AMSA15.jpg,AMSA16.jpg,AMNE12.jpg,AMNE12.jpg,MN,1,num_4,16,num_4,0.766761348932,,,2017_Nov_30_1152,60.0050809253,MAFE4ImagesEEG,001,102379,
AMNE23.JPG,AMNE24.JPG,AMNE22.JPG,AMSA24.JPG,AMSA22.JPG,AMSA23.JPG,,,,,,,,,,,,,,,,,0,5,5,9,,,,,,,AMSA18.jpg,AMSA07.jpg,AMNE03.jpg,AMNE07.jpg,AMNE07.jpg,MN,1,num_4,16,num_4,1.08342490438,,,2017_Nov_30_1152,60.0050809253,MAFE4ImagesEEG,001,102379,
AMNE22.JPG,AMSA24.JPG,AMSA22.JPG,AMNE25.JPG,AMNE24.JPG,AMSA25.JPG,,,,,,,,,,,,,,,,,0,6,6,7,,,,,,,AMNE19.jpg,AMSA18.jpg,AMSA11.jpg,AMNE15.jpg,AMNE15.jpg,MN,1,num_4,16,num_4,1.08346307243,,,2017_Nov_30_1152,60.0050809253,MAFE4ImagesEEG,001,102379,
AMSA21.JPG,AMNE23.JPG,AMNE21.JPG,AMSA25.JPG,AMNE25.JPG,AMSA23.JPG,,,,,,,,,,,,,,,,,0,7,7,5,,,,,,,AMSA09.jpg,AMNE08.jpg,AMNE18.jpg,AMSA20.jpg,AMSA20.jpg,MS,2,num_4,16,num_4,1.98337095603,,,2017_Nov_30_1152,60.0050809253,MAFE4ImagesEEG,001,102379,
AMSA25.JPG,AMNE24.JPG,AMSA24.JPG,AMNE26.JPG,AMSA21.JPG,AMNE25.JPG,,,,,,,,,,,,,,,,,0,8,8,3,,,,,,,AMSA09.jpg,AMNE07.jpg,AMNE20.jpg,AMSA12.jpg,AMSA12.jpg,MS,2,num_4,16,num_4,0.633444501553,,,2017_Nov_30_1152,60.0050809253,MAFE4ImagesEEG,001,102379,
AFNE22.JPG,AFSA24.JPG,AFSA22.JPG,AFNE25.JPG,AFNE24.JPG,AFSA25.JPG,,,,,,,,,,,,,,,,,0,9,9,6,,,,,,,AMNE09.jpg,AMSA20.jpg,AMSA09.jpg,AMNE20.jpg,AMSA20.jpg,MS,2,num_6,16,num_6,0.783199873753,,,2017_Nov_30_1152,60.0050809253,MAFE4ImagesEEG,001,102379,
AMNE23.JPG,AMNE24.JPG,AMNE22.JPG,AMSA24.JPG,AMSA22.JPG,AMSA23.JPG,,,,,,,,,,,,,,,,,,,,,0,0,0,9,,,AFSA18.jpg,AFSA05.jpg,AFNE01.jpg,AFNE16.jpg,AFNE01.jpg,FN,3,num_2,16,num_2,0.883462623344,,,2017_Nov_30_1152,60.0050809253,MAFE4ImagesEEG,001,102379,
AMSA25.JPG,AMNE24.JPG,AMSA24.JPG,AMNE26.JPG,AMSA21.JPG,AMNE25.JPG,,,,,,,,,,,,,,,,,,,,,0,1,1,3,,,AFSA01.jpg,AFSA10.jpg,AFNE16.jpg,AFNE03.jpg,AFNE03.jpg,FN,3,num_4,16,num_4,0.866763978964,,,2017_Nov_30_1152,60.0050809253,MAFE4ImagesEEG,001,102379,
AFNE23.JPG,AFNE24.JPG,AFNE22.JPG,AFSA24.JPG,AFSA22.JPG,AFSA23.JPG,,,,,,,,,,,,,,,,,,,,,0,2,2,8,,,AFNE08.jpg,AFSA09.jpg,AFSA19.jpg,AFNE13.jpg,AFNE08.jpg,FN,3,num_8,32,num_4,0.883461340331,,,2017_Nov_30_1152,60.0050809253,MAFE4ImagesEEG,001,102379,
AFSA25.JPG,AFNE24.JPG,AFSA24.JPG,AFNE21.JPG,AFSA21.JPG,AFNE25.JPG,,,,,,,,,,,,,,,,,,,,,0,3,3,2,,,AFNE18.jpg,AFNE06.jpg,AFSA09.jpg,AFSA14.jpg,AFNE06.jpg,FN,3,num_6,16,num_6,1.16675936023,,,2017_Nov_30_1152,60.0050809253,MAFE4ImagesEEG,001,102379,
AMSA21.JPG,AMNE23.JPG,AMNE21.JPG,AMSA25.JPG,AMNE25.JPG,AMSA23.JPG,,,,,,,,,,,,,,,,,,,,,0,4,4,5,,,AFNE02.jpg,AFSA11.jpg,AFNE09.jpg,AFSA19.jpg,AFNE09.jpg,FN,3,num_2,16,num_2,2.11670512334,,,2017_Nov_30_1152,60.0050809253,MAFE4ImagesEEG,001,102379,
AMSA21.JPG,AMNE22.JPG,AMNE21.JPG,AMSA23.JPG,AMSA22.JPG,AMNE23.JPG,,,,,,,,,,,,,,,,,,,,,0,5,5,1,,,AFNE06.jpg,AFSA01.jpg,AFNE05.jpg,AFSA18.jpg,AFNE06.jpg,FN,3,num_8,16,num_8,0.950104849646,,,2017_Nov_30_1152,60.0050809253,MAFE4ImagesEEG,001,102379,
AFNE22.JPG,AFSA24.JPG,AFSA22.JPG,AFNE25.JPG,AFNE24.JPG,AFSA25.JPG,,,,,,,,,,,,,,,,,,,,,0,6,6,6,,,AFSA20.jpg,AFNE04.jpg,AFNE02.jpg,AFSA09.jpg,AFNE02.jpg,FN,3,num_2,32,num_6,0.950119282934,,,2017_Nov_30_1152,60.0050809253,MAFE4ImagesEEG,001,102379,
AMNE22.JPG,AMSA24.JPG,AMSA22.JPG,AMNE25.JPG,AMNE24.JPG,AMSA25.JPG,,,,,,,,,,,,,,,,,,,,,0,7,7,7,,,AFNE03.jpg,AFNE12.jpg,AFSA13.jpg,AFSA20.jpg,AFSA20.jpg,FS,4,num_4,32,num_2,1.26673921791,,,2017_Nov_30_1152,60.0050809253,MAFE4ImagesEEG,001,102379,
AFSA21.JPG,AFNE22.JPG,AFNE21.JPG,AFSA23.JPG,AFSA22.JPG,AFNE23.JPG,,,,,,,,,,,,,,,,,,,,,0,8,8,0,,,AFSA19.jpg,AFNE16.jpg,AFSA07.jpg,AFNE02.jpg,AFSA07.jpg,FS,4,num_2,16,num_2,0.61675002682,,,2017_Nov_30_1152,60.0050809253,MAFE4ImagesEEG,001,102379,
AFSA21.JPG,AFNE23.JPG,AFNE21.JPG,AFSA25.JPG,AFNE25.JPG,AFSA23.JPG,,,,,,,,,,,,,,,,,,,,,0,9,9,4,,,AFNE11.jpg,AFNE12.jpg,AFSA19.jpg,AFSA12.jpg,AFNE11.jpg,FN,3,num_8,16,num_8,0.950109660742,,,2017_Nov_30_1152,60.0050809253,MAFE4ImagesEEG,001,102379,
,,,,,,,,,,,,,,,,,,,,,,,,,,,,,,,,,,,,,,,,,,,space,5.14942661452,2017_Nov_30_1152,60.0050809253,MAFE4ImagesEEG,001,102379,
AFNE01.JPG,AFNE01.JPG,AFNE01.JPG,AFNE01.JPG,AFNE01.JPG,AFNE01.JPG,0,0,0,8,,,,,,,,,,,,,,,,,,,,,,,AMNE04.jpg,AMSA20.jpg,AMSA07.jpg,AMNE12.jpg,AMSA07.jpg,MS,2,num_2,32,num_4,0.98347070592,,,2017_Nov_30_1152,60.0050809253,MAFE4ImagesEEG,001,102379,
AFNE01.JPG,AFNE01.JPG,AFNE01.JPG,AFNE01.JPG,AFNE01.JPG,AFNE01.JPG,0,1,1,7,,,,,,,,,,,,,,,,,,,,,,,AMNE17.jpg,AMSA06.jpg,AMSA19.jpg,AMNE04.jpg,AMSA06.jpg,MS,2,num_6,32,num_2,2.70001071272,,,2017_Nov_30_1152,60.0050809253,MAFE4ImagesEEG,001,102379,
AFNE01.JPG,AFNE01.JPG,AFNE01.JPG,AFNE01.JPG,AFNE01.JPG,AFNE01.JPG,0,2,2,9,,,,,,,,,,,,,,,,,,,,,,,AMNE16.jpg,AMNE15.jpg,AMSA14.jpg,AMSA03.jpg,AMNE15.jpg,MN,1,num_6,16,num_6,0.766802403494,,,2017_Nov_30_1152,60.0050809253,MAFE4ImagesEEG,001,102379,
AFNE01.JPG,AFNE01.JPG,AFNE01.JPG,AFNE01.JPG,AFNE01.JPG,AFNE01.JPG,0,3,3,0,,,,,,,,,,,,,,,,,,,,,,,AMNE05.jpg,AMNE14.jpg,AMSA05.jpg,AMSA03.jpg,AMNE05.jpg,MN,1,num_8,16,num_8,0.783438182902,,,2017_Nov_30_1152,60.0050809253,MAFE4ImagesEEG,001,102379,
AFNE01.JPG,AFNE01.JPG,AFNE01.JPG,AFNE01.JPG,AFNE01.JPG,AFNE01.JPG,0,4,4,6,,,,,,,,,,,,,,,,,,,,,,,AMSA20.jpg,AMNE10.jpg,AMNE13.jpg,AMSA18.jpg,AMSA20.jpg,MS,2,num_8,16,num_8,0.583491618047,,,2017_Nov_30_1152,60.0050809253,MAFE4ImagesEEG,001,102379,
AFNE01.JPG,AFNE01.JPG,AFNE01.JPG,AFNE01.JPG,AFNE01.JPG,AFNE01.JPG,0,5,5,3,,,,,,,,,,,,,,,,,,,,,,,AMSA20.jpg,AMNE11.jpg,AMSA07.jpg,AMNE18.jpg,AMSA07.jpg,MS,2,num_2,16,num_2,0.566754805855,,,2017_Nov_30_1152,60.0050809253,MAFE4ImagesEEG,001,102379,
AFNE01.JPG,AFNE01.JPG,AFNE01.JPG,AFNE01.JPG,AFNE01.JPG,AFNE01.JPG,0,6,6,1,,,,,,,,,,,,,,,,,,,,,,,AMNE14.jpg,AMSA20.jpg,AMNE19.jpg,AMSA11.jpg,AMSA11.jpg,MS,2,num_4,32,num_6,1.06672626,,,2017_Nov_30_1152,60.0050809253,MAFE4ImagesEEG,001,102379,
AFNE01.JPG,AFNE01.JPG,AFNE01.JPG,AFNE01.JPG,AFNE01.JPG,AFNE01.JPG,0,7,7,4,,,,,,,,,,,,,,,,,,,,,,,AMNE02.jpg,AMNE01.jpg,AMSA10.jpg,AMSA16.jpg,AMNE02.jpg,MN,1,num_8,16,num_8,0.61677632737,,,2017_Nov_30_1152,60.0050809253,MAFE4ImagesEEG,001,102379,
AFNE01.JPG,AFNE01.JPG,AFNE01.JPG,AFNE01.JPG,AFNE01.JPG,AFNE01.JPG,0,8,8,2,,,,,,,,,,,,,,,,,,,,,,,AMSA17.jpg,AMNE19.jpg,AMSA15.jpg,AMNE06.jpg,AMNE06.jpg,MN,1,num_4,32,num_6,1.16678983055,,,2017_Nov_30_1152,60.0050809253,MAFE4ImagesEEG,001,102379,
AFNE01.JPG,AFNE01.JPG,AFNE01.JPG,AFNE01.JPG,AFNE01.JPG,AFNE01.JPG,0,9,9,5,,,,,,,,,,,,,,,,,,,,,,,AMSA11.jpg,AMSA06.jpg,AMNE19.jpg,AMNE12.jpg,AMSA11.jpg,MS,2,num_8,32,num_4,1.10009115399,,,2017_Nov_30_1152,60.0050809253,MAFE4ImagesEEG,001,102379,
AFNE01.JPG,AFNE01.JPG,AFNE01.JPG,AFNE01.JPG,AFNE01.JPG,AFNE01.JPG,1,0,10,2,,,,,,,,,,,,,,,,,,,,,,,AMNE02.jpg,AMNE12.jpg,AMSA14.jpg,AMSA05.jpg,AMSA14.jpg,MS,2,num_2,16,num_2,0.816812378471,,,2017_Nov_30_1152,60.0050809253,MAFE4ImagesEEG,001,102379,
AFNE01.JPG,AFNE01.JPG,AFNE01.JPG,AFNE01.JPG,AFNE01.JPG,AFNE01.JPG,1,1,11,7,,,,,,,,,,,,,,,,,,,,,,,AMNE11.jpg,AMNE20.jpg,AMSA08.jpg,AMSA20.jpg,AMSA20.jpg,MS,2,num_4,32,num_6,1.16668013774,,,2017_Nov_30_1152,60.0050809253,MAFE4ImagesEEG,001,102379,
AFNE01.JPG,AFNE01.JPG,AFNE01.JPG,AFNE01.JPG,AFNE01.JPG,AFNE01.JPG,1,2,12,0,,,,,,,,,,,,,,,,,,,,,,,AMNE09.jpg,AMSA17.jpg,AMNE17.jpg,AMSA02.jpg,AMNE17.jpg,MN,1,num_2,16,num_2,0.800098659354,,,2017_Nov_30_1152,60.0050809253,MAFE4ImagesEEG,001,102379,
AFNE01.JPG,AFNE01.JPG,AFNE01.JPG,AFNE01.JPG,AFNE01.JPG,AFNE01.JPG,1,3,13,4,,,,,,,,,,,,,,,,,,,,,,,AMSA20.jpg,AMNE15.jpg,AMSA07.jpg,AMNE11.jpg,AMNE11.jpg,MN,1,num_4,16,num_4,0.86678129877,,,2017_Nov_30_1152,60.0050809253,MAFE4ImagesEEG,001,102379,
AFNE01.JPG,AFNE01.JPG,AFNE01.JPG,AFNE01.JPG,AFNE01.JPG,AFNE01.JPG,1,4,14,1,,,,,,,,,,,,,,,,,,,,,,,AMNE10.jpg,AMSA15.jpg,AMSA16.jpg,AMNE17.jpg,AMSA15.jpg,MS,2,num_6,16,num_6,2.03338702512,,,2017_Nov_30_1152,60.0050809253,MAFE4ImagesEEG,001,102379,
AFNE01.JPG,AFNE01.JPG,AFNE01.JPG,AFNE01.JPG,AFNE01.JPG,AFNE01.JPG,1,5,15,8,,,,,,,,,,,,,,,,,,,,,,,AMSA17.jpg,AMNE12.jpg,AMSA12.jpg,AMNE03.jpg,AMNE12.jpg,MN,1,num_6,32,num_4,0.916739955661,,,2017_Nov_30_1152,60.0050809253,MAFE4ImagesEEG,001,102379,
AFNE01.JPG,AFNE01.JPG,AFNE01.JPG,AFNE01.JPG,AFNE01.JPG,AFNE01.JPG,1,6,16,9,,,,,,,,,,,,,,,,,,,,,,,AMSA04.jpg,AMNE19.jpg,AMNE01.jpg,AMSA13.jpg,AMSA13.jpg,MS,2,num_4,32,num_8,1.41671173053,,,2017_Nov_30_1152,60.0050809253,MAFE4ImagesEEG,001,102379,
AFNE01.JPG,AFNE01.JPG,AFNE01.JPG,AFNE01.JPG,AFNE01.JPG,AFNE01.JPG,1,7,17,5,,,,,,,,,,,,,,,,,,,,,,,AMNE01.jpg,AMSA12.jpg,AMNE07.jpg,AMSA06.jpg,AMSA06.jpg,MS,2,num_4,16,num_4,0.816746626981,,,2017_Nov_30_1152,60.0050809253,MAFE4ImagesEEG,001,102379,
AFNE01.JPG,AFNE01.JPG,AFNE01.JPG,AFNE01.JPG,AFNE01.JPG,AFNE01.JPG,1,8,18,3,,,,,,,,,,,,,,,,,,,,,,,AMNE08.jpg,AMSA12.jpg,AMNE16.jpg,AMSA16.jpg,AMSA16.jpg,MS,2,num_4,32,num_6,1.01676407515,,,2017_Nov_30_1152,60.0050809253,MAFE4ImagesEEG,001,102379,
AFNE01.JPG,AFNE01.JPG,AFNE01.JPG,AFNE01.JPG,AFNE01.JPG,AFNE01.JPG,1,9,19,6,,,,,,,,,,,,,,,,,,,,,,,AMNE16.jpg,AMSA07.jpg,AMSA10.jpg,AMNE20.jpg,AMSA07.jpg,MS,2,num_6,16,num_6,0.750115947216,,,2017_Nov_30_1152,60.0050809253,MAFE4ImagesEEG,001,102379,
AFNE01.JPG,AFNE01.JPG,AFNE01.JPG,AFNE01.JPG,AFNE01.JPG,AFNE01.JPG,2,0,20,8,,,,,,,,,,,,,,,,,,,,,,,AMSA04.jpg,AMNE16.jpg,AMSA05.jpg,AMNE17.jpg,AMNE17.jpg,MN,1,num_4,16,num_4,1.03340947686,,,2017_Nov_30_1152,60.0050809253,MAFE4ImagesEEG,001,102379,
AFNE01.JPG,AFNE01.JPG,AFNE01.JPG,AFNE01.JPG,AFNE01.JPG,AFNE01.JPG,2,1,21,2,,,,,,,,,,,,,,,,,,,,,,,AMNE14.jpg,AMSA18.jpg,AMNE07.jpg,AMSA15.jpg,AMNE14.jpg,MN,1,num_8,16,num_8,0.600114568137,,,2017_Nov_30_1152,60.0050809253,MAFE4ImagesEEG,001,102379,
AFNE01.JPG,AFNE01.JPG,AFNE01.JPG,AFNE01.JPG,AFNE01.JPG,AFNE01.JPG,2,2,22,1,,,,,,,,,,,,,,,,,,,,,,,AMNE11.jpg,AMSA20.jpg,AMSA15.jpg,AMNE10.jpg,AMNE10.jpg,MN,1,num_4,32,num_2,0.733435584931,,,2017_Nov_30_1152,60.0050809253,MAFE4ImagesEEG,001,102379,
AFNE01.JPG,AFNE01.JPG,AFNE01.JPG,AFNE01.JPG,AFNE01.JPG,AFNE01.JPG,2,3,23,3,,,,,,,,,,,,,,,,,,,,,,,AMNE10.jpg,AMNE09.jpg,AMSA17.jpg,AMSA19.jpg,AMSA19.jpg,MS,2,num_4,32,num_2,1.68335633038,,,2017_Nov_30_1152,60.0050809253,MAFE4ImagesEEG,001,102379,
AFNE01.JPG,AFNE01.JPG,AFNE01.JPG,AFNE01.JPG,AFNE01.JPG,AFNE01.JPG,2,4,24,7,,,,,,,,,,,,,,,,,,,,,,,AMNE03.jpg,AMSA03.jpg,AMNE01.jpg,AMSA16.jpg,AMNE01.jpg,MN,1,num_2,32,num_6,1.28367488843,,,2017_Nov_30_1152,60.0050809253,MAFE4ImagesEEG,001,102379,
AFNE01.JPG,AFNE01.JPG,AFNE01.JPG,AFNE01.JPG,AFNE01.JPG,AFNE01.JPG,2,5,25,5,,,,,,,,,,,,,,,,,,,,,,,AMSA10.jpg,AMNE07.jpg,AMNE04.jpg,AMSA13.jpg,AMSA10.jpg,MS,2,num_8,16,num_8,0.733445207123,,,2017_Nov_30_1152,60.0050809253,MAFE4ImagesEEG,001,102379,
AFNE01.JPG,AFNE01.JPG,AFNE01.JPG,AFNE01.JPG,AFNE01.JPG,AFNE01.JPG,2,6,26,0,,,,,,,,,,,,,,,,,,,,,,,AMSA03.jpg,AMNE04.jpg,AMSA07.jpg,AMNE19.jpg,AMSA03.jpg,MS,2,num_8,16,num_8,0.666775076417,,,2017_Nov_30_1152,60.0050809253,MAFE4ImagesEEG,001,102379,
AFNE01.JPG,AFNE01.JPG,AFNE01.JPG,AFNE01.JPG,AFNE01.JPG,AFNE01.JPG,2,7,27,9,,,,,,,,,,,,,,,,,,,,,,,AMSA02.jpg,AMSA05.jpg,AMNE15.jpg,AMNE20.jpg,AMSA05.jpg,MS,2,num_6,16,num_6,1.10007319262,,,2017_Nov_30_1152,60.0050809253,MAFE4ImagesEEG,001,102379,
AFNE01.JPG,AFNE01.JPG,AFNE01.JPG,AFNE01.JPG,AFNE01.JPG,AFNE01.JPG,2,8,28,4,,,,,,,,,,,,,,,,,,,,,,,AMSA11.jpg,AMNE16.jpg,AMSA15.jpg,AMNE04.jpg,AMSA15.jpg,MS,2,num_2,16,num_2,0.566779502667,,,2017_Nov_30_1152,60.0050809253,MAFE4ImagesEEG,001,102379,
AFNE01.JPG,AFNE01.JPG,AFNE01.JPG,AFNE01.JPG,AFNE01.JPG,AFNE01.JPG,2,9,29,6,,,,,,,,,,,,,,,,,,,,,,,AMSA09.jpg,AMNE11.jpg,AMNE13.jpg,AMSA11.jpg,AMNE11.jpg,MN,1,num_6,16,num_6,1.03350858518,,,2017_Nov_30_1152,60.0050809253,MAFE4ImagesEEG,001,102379,
AFNE01.JPG,AFNE01.JPG,AFNE01.JPG,AFNE01.JPG,AFNE01.JPG,AFNE01.JPG,3,0,30,8,,,,,,,,,,,,,,,,,,,,,,,AMSA07.jpg,AMSA12.jpg,AMNE17.jpg,AMNE11.jpg,AMSA12.jpg,MS,2,num_6,16,num_6,0.650161748868,,,2017_Nov_30_1152,60.0050809253,MAFE4ImagesEEG,001,102379,
AFNE01.JPG,AFNE01.JPG,AFNE01.JPG,AFNE01.JPG,AFNE01.JPG,AFNE01.JPG,3,1,31,0,,,,,,,,,,,,,,,,,,,,,,,AMSA07.jpg,AMNE17.jpg,AMNE18.jpg,AMSA12.jpg,AMSA07.jpg,MS,2,num_8,16,num_8,0.466812153929,,,2017_Nov_30_1152,60.0050809253,MAFE4ImagesEEG,001,102379,
AFNE01.JPG,AFNE01.JPG,AFNE01.JPG,AFNE01.JPG,AFNE01.JPG,AFNE01.JPG,3,2,32,1,,,,,,,,,,,,,,,,,,,,,,,AMSA07.jpg,AMSA04.jpg,AMNE13.jpg,AMNE05.jpg,AMSA07.jpg,MS,2,num_8,16,num_8,0.949813297833,,,2017_Nov_30_1152,60.0050809253,MAFE4ImagesEEG,001,102379,
AFNE01.JPG,AFNE01.JPG,AFNE01.JPG,AFNE01.JPG,AFNE01.JPG,AFNE01.JPG,3,3,33,7,,,,,,,,,,,,,,,,,,,,,,,AMSA07.jpg,AMNE17.jpg,AMSA14.jpg,AMNE02.jpg,AMSA14.jpg,MS,2,num_2,16,num_2,1.35011953942,,,2017_Nov_30_1152,60.0050809253,MAFE4ImagesEEG,001,102379,
AFNE01.JPG,AFNE01.JPG,AFNE01.JPG,AFNE01.JPG,AFNE01.JPG,AFNE01.JPG,3,4,34,9,,,,,,,,,,,,,,,,,,,,,,,AMSA08.jpg,AMNE03.jpg,AMSA19.jpg,AMNE04.jpg,AMSA19.jpg,MS,2,num_2,16,num_2,0.516738736769,,,2017_Nov_30_1152,60.0050809253,MAFE4ImagesEEG,001,102379,
AFNE01.JPG,AFNE01.JPG,AFNE01.JPG,AFNE01.JPG,AFNE01.JPG,AFNE01.JPG,3,5,35,6,,,,,,,,,,,,,,,,,,,,,,,AMNE13.jpg,AMSA10.jpg,AMNE02.jpg,AMSA14.jpg,AMSA10.jpg,MS,2,num_6,16,num_6,0.60003245878,,,2017_Nov_30_1152,60.0050809253,MAFE4ImagesEEG,001,102379,
AFNE01.JPG,AFNE01.JPG,AFNE01.JPG,AFNE01.JPG,AFNE01.JPG,AFNE01.JPG,3,6,36,3,,,,,,,,,,,,,,,,,,,,,,,AMNE09.jpg,AMSA18.jpg,AMNE03.jpg,AMSA12.jpg,AMSA12.jpg,MS,2,num_4,16,num_4,1.00011803198,,,2017_Nov_30_1152,60.0050809253,MAFE4ImagesEEG,001,102379,
AFNE01.JPG,AFNE01.JPG,AFNE01.JPG,AFNE01.JPG,AFNE01.JPG,AFNE01.JPG,3,7,37,2,,,,,,,,,,,,,,,,,,,,,,,AMNE05.jpg,AMNE03.jpg,AMSA17.jpg,AMSA01.jpg,AMNE05.jpg,MN,1,num_8,32,num_2,1.13342301198,,,2017_Nov_30_1152,60.0050809253,MAFE4ImagesEEG,001,102379,
AFNE01.JPG,AFNE01.JPG,AFNE01.JPG,AFNE01.JPG,AFNE01.JPG,AFNE01.JPG,3,8,38,4,,,,,,,,,,,,,,,,,,,,,,,AMNE17.jpg,AMSA13.jpg,AMNE06.jpg,AMSA02.jpg,AMSA13.jpg,MS,2,num_6,32,num_2,1.13342525717,,,2017_Nov_30_1152,60.0050809253,MAFE4ImagesEEG,001,102379,
AFNE01.JPG,AFNE01.JPG,AFNE01.JPG,AFNE01.JPG,AFNE01.JPG,AFNE01.JPG,3,9,39,5,,,,,,,,,,,,,,,,,,,,,,,AMNE02.jpg,AMNE12.jpg,AMSA08.jpg,AMSA16.jpg,AMNE12.jpg,MN,1,num_6,16,num_6,1.03334757418,,,2017_Nov_30_1152,60.0050809253,MAFE4ImagesEEG,001,102379,
AFNE01.JPG,AFNE01.JPG,AFNE01.JPG,AFNE01.JPG,AFNE01.JPG,AFNE01.JPG,4,0,40,7,,,,,,,,,,,,,,,,,,,,,,,AMNE19.jpg,AMNE06.jpg,AMSA19.jpg,AMSA12.jpg,AMNE19.jpg,MN,1,num_8,32,num_6,0.900094874669,,,2017_Nov_30_1152,60.0050809253,MAFE4ImagesEEG,001,102379,
AFNE01.JPG,AFNE01.JPG,AFNE01.JPG,AFNE01.JPG,AFNE01.JPG,AFNE01.JPG,4,1,41,0,,,,,,,,,,,,,,,,,,,,,,,AMSA12.jpg,AMNE04.jpg,AMNE15.jpg,AMSA13.jpg,AMNE04.jpg,MN,1,num_6,32,num_2,1.16671670205,,,2017_Nov_30_1152,60.0050809253,MAFE4ImagesEEG,001,102379,
AFNE01.JPG,AFNE01.JPG,AFNE01.JPG,AFNE01.JPG,AFNE01.JPG,AFNE01.JPG,4,2,42,2,,,,,,,,,,,,,,,,,,,,,,,AMSA18.jpg,AMSA09.jpg,AMNE13.jpg,AMNE20.jpg,AMSA09.jpg,MS,2,num_6,16,num_6,1.06673042965,,,2017_Nov_30_1152,60.0050809253,MAFE4ImagesEEG,001,102379,
AFNE01.JPG,AFNE01.JPG,AFNE01.JPG,AFNE01.JPG,AFNE01.JPG,AFNE01.JPG,4,3,43,6,,,,,,,,,,,,,,,,,,,,,,,AMSA02.jpg,AMNE01.jpg,AMNE17.jpg,AMSA18.jpg,AMNE17.jpg,MN,1,num_2,16,num_2,0.866774242604,,,2017_Nov_30_1152,60.0050809253,MAFE4ImagesEEG,001,102379,
AFNE01.JPG,AFNE01.JPG,AFNE01.JPG,AFNE01.JPG,AFNE01.JPG,AFNE01.JPG,4,4,44,3,,,,,,,,,,,,,,,,,,,,,,,AMSA14.jpg,AMNE04.jpg,AMSA04.jpg,AMNE13.jpg,AMNE13.jpg,MN,1,num_4,32,num_6,1.08346595895,,,2017_Nov_30_1152,60.0050809253,MAFE4ImagesEEG,001,102379,
AFNE01.JPG,AFNE01.JPG,AFNE01.JPG,AFNE01.JPG,AFNE01.JPG,AFNE01.JPG,4,5,45,4,,,,,,,,,,,,,,,,,,,,,,,AMSA09.jpg,AMNE12.jpg,AMNE15.jpg,AMSA15.jpg,AMSA15.jpg,MS,2,num_4,16,num_4,0.666803301545,,,2017_Nov_30_1152,60.0050809253,MAFE4ImagesEEG,001,102379,
AFNE01.JPG,AFNE01.JPG,AFNE01.JPG,AFNE01.JPG,AFNE01.JPG,AFNE01.JPG,4,6,46,5,,,,,,,,,,,,,,,,,,,,,,,AMSA04.jpg,AMNE01.jpg,AMNE13.jpg,AMSA08.jpg,AMSA08.jpg,MS,2,num_4,32,num_2,1.16672792786,,,2017_Nov_30_1152,60.0050809253,MAFE4ImagesEEG,001,102379,
AFNE01.JPG,AFNE01.JPG,AFNE01.JPG,AFNE01.JPG,AFNE01.JPG,AFNE01.JPG,4,7,47,1,,,,,,,,,,,,,,,,,,,,,,,AMSA09.jpg,AMNE05.jpg,AMNE06.jpg,AMSA19.jpg,AMSA09.jpg,MS,2,num_8,32,num_6,0.733494921704,,,2017_Nov_30_1152,60.0050809253,MAFE4ImagesEEG,001,102379,
AFNE01.JPG,AFNE01.JPG,AFNE01.JPG,AFNE01.JPG,AFNE01.JPG,AFNE01.JPG,4,8,48,9,,,,,,,,,,,,,,,,,,,,,,,AMNE04.jpg,AMNE01.jpg,AMSA04.jpg,AMSA11.jpg,AMSA11.jpg,MS,2,num_4,16,num_4,0.666765775066,,,2017_Nov_30_1152,60.0050809253,MAFE4ImagesEEG,001,102379,
AFNE01.JPG,AFNE01.JPG,AFNE01.JPG,AFNE01.JPG,AFNE01.JPG,AFNE01.JPG,4,9,49,8,,,,,,,,,,,,,,,,,,,,,,,AMNE02.jpg,AMSA16.jpg,AMSA13.jpg,AMNE08.jpg,AMNE08.jpg,MN,1,num_4,32,num_6,1.06678399304,,,2017_Nov_30_1152,60.0050809253,MAFE4ImagesEEG,001,102379,
AFNE01.JPG,AFNE01.JPG,AFNE01.JPG,AFNE01.JPG,AFNE01.JPG,AFNE01.JPG,5,0,50,5,,,,,,,,,,,,,,,,,,,,,,,AMSA04.jpg,AMNE08.jpg,AMNE02.jpg,AMSA17.jpg,AMNE02.jpg,MN,1,num_2,32,num_8,0.833505570306,,,2017_Nov_30_1152,60.0050809253,MAFE4ImagesEEG,001,102379,
AFNE01.JPG,AFNE01.JPG,AFNE01.JPG,AFNE01.JPG,AFNE01.JPG,AFNE01.JPG,5,1,51,2,,,,,,,,,,,,,,,,,,,,,,,AMSA02.jpg,AMNE06.jpg,AMSA03.jpg,AMNE10.jpg,AMSA03.jpg,MS,2,num_2,16,num_2,1.03344315442,,,2017_Nov_30_1152,60.0050809253,MAFE4ImagesEEG,001,102379,
AFNE01.JPG,AFNE01.JPG,AFNE01.JPG,AFNE01.JPG,AFNE01.JPG,AFNE01.JPG,5,2,52,3,,,,,,,,,,,,,,,,,,,,,,,AMSA03.jpg,AMNE16.jpg,AMNE07.jpg,AMSA01.jpg,AMSA03.jpg,MS,2,num_8,32,num_4,0.816731872852,,,2017_Nov_30_1152,60.0050809253,MAFE4ImagesEEG,001,102379,
AFNE01.JPG,AFNE01.JPG,AFNE01.JPG,AFNE01.JPG,AFNE01.JPG,AFNE01.JPG,5,3,53,4,,,,,,,,,,,,,,,,,,,,,,,AMNE14.jpg,AMNE11.jpg,AMSA20.jpg,AMSA12.jpg,AMSA12.jpg,MS,2,num_4,16,num_4,1.0334332115,,,2017_Nov_30_1152,60.0050809253,MAFE4ImagesEEG,001,102379,
AFNE01.JPG,AFNE01.JPG,AFNE01.JPG,AFNE01.JPG,AFNE01.JPG,AFNE01.JPG,5,4,54,6,,,,,,,,,,,,,,,,,,,,,,,AMSA16.jpg,AMSA20.jpg,AMNE10.jpg,AMNE13.jpg,AMNE10.jpg,MN,1,num_2,16,num_2,1.0000987876,,,2017_Nov_30_1152,60.0050809253,MAFE4ImagesEEG,001,102379,
AFNE01.JPG,AFNE01.JPG,AFNE01.JPG,AFNE01.JPG,AFNE01.JPG,AFNE01.JPG,5,5,55,0,,,,,,,,,,,,,,,,,,,,,,,AMNE16.jpg,AMSA16.jpg,AMNE13.jpg,AMSA11.jpg,AMNE16.jpg,MN,1,num_8,32,num_2,0.866792204091,,,2017_Nov_30_1152,60.0050809253,MAFE4ImagesEEG,001,102379,
AFNE01.JPG,AFNE01.JPG,AFNE01.JPG,AFNE01.JPG,AFNE01.JPG,AFNE01.JPG,5,6,56,7,,,,,,,,,,,,,,,,,,,,,,,AMSA07.jpg,AMNE19.jpg,AMSA15.jpg,AMNE11.jpg,AMSA07.jpg,MS,2,num_8,16,num_8,0.56682087807,,,2017_Nov_30_1152,60.0050809253,MAFE4ImagesEEG,001,102379,
AFNE01.JPG,AFNE01.JPG,AFNE01.JPG,AFNE01.JPG,AFNE01.JPG,AFNE01.JPG,5,7,57,8,,,,,,,,,,,,,,,,,,,,,,,AMNE09.jpg,AMSA11.jpg,AMSA18.jpg,AMNE01.jpg,AMSA18.jpg,MS,2,num_2,16,num_2,0.650155654759,,,2017_Nov_30_1152,60.0050809253,MAFE4ImagesEEG,001,102379,
AFNE01.JPG,AFNE01.JPG,AFNE01.JPG,AFNE01.JPG,AFNE01.JPG,AFNE01.JPG,5,8,58,1,,,,,,,,,,,,,,,,,,,,,,,AMSA04.jpg,AMNE19.jpg,AMNE09.jpg,AMSA10.jpg,AMSA04.jpg,MS,2,num_8,16,num_8,0.60021560092,,,2017_Nov_30_1152,60.0050809253,MAFE4ImagesEEG,001,102379,
AFNE01.JPG,AFNE01.JPG,AFNE01.JPG,AFNE01.JPG,AFNE01.JPG,AFNE01.JPG,5,9,59,9,,,,,,,,,,,,,,,,,,,,,,,AMSA17.jpg,AMNE17.jpg,AMNE13.jpg,AMSA05.jpg,AMSA05.jpg,MS,2,num_4,16,num_4,1.45004968252,,,2017_Nov_30_1152,60.0050809253,MAFE4ImagesEEG,001,102379,
,,,,,,,,,,,,,,,,,,,,,,,,,,,,,,,,,,,,,,,,,,,space,7.3663050012,2017_Nov_30_1152,60.0050809253,MAFE4ImagesEEG,001,102379,
AFNE01.JPG,AFNE01.JPG,AFNE01.JPG,AFNE01.JPG,AFNE01.JPG,AFNE01.JPG,,,,,0,0,0,7,,,,,,,,,,,,,,,,,,,AFNE03.jpg,AFSA13.jpg,AFNE10.jpg,AFSA19.jpg,AFNE03.jpg,FN,3,num_8,16,num_8,0.83343468688,,,2017_Nov_30_1152,60.0050809253,MAFE4ImagesEEG,001,102379,
AFNE01.JPG,AFNE01.JPG,AFNE01.JPG,AFNE01.JPG,AFNE01.JPG,AFNE01.JPG,,,,,0,1,1,2,,,,,,,,,,,,,,,,,,,AFNE18.jpg,AFNE11.jpg,AFSA12.jpg,AFSA18.jpg,AFNE18.jpg,FN,3,num_8,16,num_8,1.70002995699,,,2017_Nov_30_1152,60.0050809253,MAFE4ImagesEEG,001,102379,
AFNE01.JPG,AFNE01.JPG,AFNE01.JPG,AFNE01.JPG,AFNE01.JPG,AFNE01.JPG,,,,,0,2,2,0,,,,,,,,,,,,,,,,,,,AFNE02.jpg,AFSA16.jpg,AFSA10.jpg,AFNE07.jpg,AFSA16.jpg,FS,4,num_6,16,num_6,0.816803397727,,,2017_Nov_30_1152,60.0050809253,MAFE4ImagesEEG,001,102379,
AFNE01.JPG,AFNE01.JPG,AFNE01.JPG,AFNE01.JPG,AFNE01.JPG,AFNE01.JPG,,,,,0,3,3,8,,,,,,,,,,,,,,,,,,,AFSA19.jpg,AFNE03.jpg,AFNE14.jpg,AFSA04.jpg,AFNE14.jpg,FN,3,num_2,16,num_2,1.56672337337,,,2017_Nov_30_1152,60.0050809253,MAFE4ImagesEEG,001,102379,
AFNE01.JPG,AFNE01.JPG,AFNE01.JPG,AFNE01.JPG,AFNE01.JPG,AFNE01.JPG,,,,,0,4,4,4,,,,,,,,,,,,,,,,,,,AFSA10.jpg,AFSA05.jpg,AFNE20.jpg,AFNE18.jpg,AFSA05.jpg,FS,4,num_6,16,num_6,0.833514550934,,,2017_Nov_30_1152,60.0050809253,MAFE4ImagesEEG,001,102379,
AFNE01.JPG,AFNE01.JPG,AFNE01.JPG,AFNE01.JPG,AFNE01.JPG,AFNE01.JPG,,,,,0,5,5,9,,,,,,,,,,,,,,,,,,,AFSA13.jpg,AFSA06.jpg,AFNE16.jpg,AFNE02.jpg,AFSA06.jpg,FS,4,num_6,16,num_6,1.31671551522,,,2017_Nov_30_1152,60.0050809253,MAFE4ImagesEEG,001,102379,
AFNE01.JPG,AFNE01.JPG,AFNE01.JPG,AFNE01.JPG,AFNE01.JPG,AFNE01.JPG,,,,,0,6,6,6,,,,,,,,,,,,,,,,,,,AFNE18.jpg,AFNE14.jpg,AFSA12.jpg,AFSA16.jpg,AFNE14.jpg,FN,3,num_6,32,num_4,1.15007707372,,,2017_Nov_30_1152,60.0050809253,MAFE4ImagesEEG,001,102379,
AFNE01.JPG,AFNE01.JPG,AFNE01.JPG,AFNE01.JPG,AFNE01.JPG,AFNE01.JPG,,,,,0,7,7,1,,,,,,,,,,,,,,,,,,,AFSA06.jpg,AFNE17.jpg,AFNE16.jpg,AFSA19.jpg,AFNE17.jpg,FN,3,num_6,16,num_6,1.61697807233,,,2017_Nov_30_1152,60.0050809253,MAFE4ImagesEEG,001,102379,
AFNE01.JPG,AFNE01.JPG,AFNE01.JPG,AFNE01.JPG,AFNE01.JPG,AFNE01.JPG,,,,,0,8,8,3,,,,,,,,,,,,,,,,,,,AFNE07.jpg,AFSA10.jpg,AFNE10.jpg,AFSA02.jpg,AFNE10.jpg,FN,3,num_2,16,num_2,0.83346387418,,,2017_Nov_30_1152,60.0050809253,MAFE4ImagesEEG,001,102379,
AFNE01.JPG,AFNE01.JPG,AFNE01.JPG,AFNE01.JPG,AFNE01.JPG,AFNE01.JPG,,,,,0,9,9,5,,,,,,,,,,,,,,,,,,,AFSA07.jpg,AFSA12.jpg,AFNE04.jpg,AFNE06.jpg,AFNE06.jpg,FN,3,num_4,16,num_4,1.00013054081,,,2017_Nov_30_1152,60.0050809253,MAFE4ImagesEEG,001,102379,
AFNE01.JPG,AFNE01.JPG,AFNE01.JPG,AFNE01.JPG,AFNE01.JPG,AFNE01.JPG,,,,,1,0,10,4,,,,,,,,,,,,,,,,,,,AFSA11.jpg,AFNE14.jpg,AFSA05.jpg,AFNE03.jpg,AFSA11.jpg,FS,4,num_8,32,num_2,1.16680137708,,,2017_Nov_30_1152,60.0050809253,MAFE4ImagesEEG,001,102379,
AFNE01.JPG,AFNE01.JPG,AFNE01.JPG,AFNE01.JPG,AFNE01.JPG,AFNE01.JPG,,,,,1,1,11,3,,,,,,,,,,,,,,,,,,,AFNE19.jpg,AFSA02.jpg,AFSA05.jpg,AFNE09.jpg,AFSA05.jpg,FS,4,num_2,16,num_2,0.616832456668,,,2017_Nov_30_1152,60.0050809253,MAFE4ImagesEEG,001,102379,
AFNE01.JPG,AFNE01.JPG,AFNE01.JPG,AFNE01.JPG,AFNE01.JPG,AFNE01.JPG,,,,,1,2,12,0,,,,,,,,,,,,,,,,,,,AFNE03.jpg,AFSA03.jpg,AFSA08.jpg,AFNE19.jpg,AFSA08.jpg,FS,4,num_2,32,num_8,1.85008842777,,,2017_Nov_30_1152,60.0050809253,MAFE4ImagesEEG,001,102379,
AFNE01.JPG,AFNE01.JPG,AFNE01.JPG,AFNE01.JPG,AFNE01.JPG,AFNE01.JPG,,,,,1,3,13,5,,,,,,,,,,,,,,,,,,,AFNE01.jpg,AFSA06.jpg,AFSA09.jpg,AFNE13.jpg,AFSA06.jpg,FS,4,num_6,32,num_2,1.01674739667,,,2017_Nov_30_1152,60.0050809253,MAFE4ImagesEEG,001,102379,
AFNE01.JPG,AFNE01.JPG,AFNE01.JPG,AFNE01.JPG,AFNE01.JPG,AFNE01.JPG,,,,,1,4,14,2,,,,,,,,,,,,,,,,,,,AFSA04.jpg,AFNE20.jpg,AFSA12.jpg,AFNE09.jpg,AFNE09.jpg,FN,3,num_4,16,num_4,2.56664639595,,,2017_Nov_30_1152,60.0050809253,MAFE4ImagesEEG,001,102379,
AFNE01.JPG,AFNE01.JPG,AFNE01.JPG,AFNE01.JPG,AFNE01.JPG,AFNE01.JPG,,,,,1,5,15,8,,,,,,,,,,,,,,,,,,,AFNE06.jpg,AFSA07.jpg,AFNE04.jpg,AFSA18.jpg,AFSA18.jpg,FS,4,num_4,16,num_4,0.983406237327,,,2017_Nov_30_1152,60.0050809253,MAFE4ImagesEEG,001,102379,
AFNE01.JPG,AFNE01.JPG,AFNE01.JPG,AFNE01.JPG,AFNE01.JPG,AFNE01.JPG,,,,,1,6,16,6,,,,,,,,,,,,,,,,,,,AFSA12.jpg,AFSA16.jpg,AFNE02.jpg,AFNE07.jpg,AFSA16.jpg,FS,4,num_6,16,num_6,0.700149592827,,,2017_Nov_30_1152,60.0050809253,MAFE4ImagesEEG,001,102379,
AFNE01.JPG,AFNE01.JPG,AFNE01.JPG,AFNE01.JPG,AFNE01.JPG,AFNE01.JPG,,,,,1,7,17,7,,,,,,,,,,,,,,,,,,,AFNE07.jpg,AFSA01.jpg,AFNE20.jpg,AFSA05.jpg,AFSA05.jpg,FS,4,num_4,16,num_4,0.850102540338,,,2017_Nov_30_1152,60.0050809253,MAFE4ImagesEEG,001,102379,
AFNE01.JPG,AFNE01.JPG,AFNE01.JPG,AFNE01.JPG,AFNE01.JPG,AFNE01.JPG,,,,,1,8,18,9,,,,,,,,,,,,,,,,,,,AFNE04.jpg,AFNE10.jpg,AFSA11.jpg,AFSA04.jpg,AFSA04.jpg,FS,4,num_4,16,num_4,0.900176983909,,,2017_Nov_30_1152,60.0050809253,MAFE4ImagesEEG,001,102379,
AFNE01.JPG,AFNE01.JPG,AFNE01.JPG,AFNE01.JPG,AFNE01.JPG,AFNE01.JPG,,,,,1,9,19,1,,,,,,,,,,,,,,,,,,,AFNE12.jpg,AFSA01.jpg,AFSA08.jpg,AFNE11.jpg,AFSA08.jpg,FS,4,num_2,32,num_6,0.433513011434,,,2017_Nov_30_1152,60.0050809253,MAFE4ImagesEEG,001,102379,
AFNE01.JPG,AFNE01.JPG,AFNE01.JPG,AFNE01.JPG,AFNE01.JPG,AFNE01.JPG,,,,,2,0,20,6,,,,,,,,,,,,,,,,,,,AFSA14.jpg,AFSA12.jpg,AFNE18.jpg,AFNE06.jpg,AFNE18.jpg,FN,3,num_2,32,num_4,0.950116075575,,,2017_Nov_30_1152,60.0050809253,MAFE4ImagesEEG,001,102379,
AFNE01.JPG,AFNE01.JPG,AFNE01.JPG,AFNE01.JPG,AFNE01.JPG,AFNE01.JPG,,,,,2,1,21,3,,,,,,,,,,,,,,,,,,,AFNE04.jpg,AFSA08.jpg,AFSA11.jpg,AFNE09.jpg,AFNE09.jpg,FN,3,num_4,16,num_4,0.716737582115,,,2017_Nov_30_1152,60.0050809253,MAFE4ImagesEEG,001,102379,
AFNE01.JPG,AFNE01.JPG,AFNE01.JPG,AFNE01.JPG,AFNE01.JPG,AFNE01.JPG,,,,,2,2,22,5,,,,,,,,,,,,,,,,,,,AFSA18.jpg,AFNE08.jpg,AFSA07.jpg,AFNE19.jpg,AFSA18.jpg,FS,4,num_8,32,num_2,0.950305953156,,,2017_Nov_30_1152,60.0050809253,MAFE4ImagesEEG,001,102379,
AFNE01.JPG,AFNE01.JPG,AFNE01.JPG,AFNE01.JPG,AFNE01.JPG,AFNE01.JPG,,,,,2,3,23,1,,,,,,,,,,,,,,,,,,,AFNE10.jpg,AFSA03.jpg,AFSA12.jpg,AFNE02.jpg,AFSA12.jpg,FS,4,num_2,16,num_2,0.500163897756,,,2017_Nov_30_1152,60.0050809253,MAFE4ImagesEEG,001,102379,
AFNE01.JPG,AFNE01.JPG,AFNE01.JPG,AFNE01.JPG,AFNE01.JPG,AFNE01.JPG,,,,,2,4,24,4,,,,,,,,,,,,,,,,,,,AFSA20.jpg,AFNE02.jpg,AFSA13.jpg,AFNE16.jpg,AFNE16.jpg,FN,3,num_4,32,num_6,0.933432505932,,,2017_Nov_30_1152,60.0050809253,MAFE4ImagesEEG,001,102379,
AFNE01.JPG,AFNE01.JPG,AFNE01.JPG,AFNE01.JPG,AFNE01.JPG,AFNE01.JPG,,,,,2,5,25,9,,,,,,,,,,,,,,,,,,,AFSA17.jpg,AFNE03.jpg,AFSA02.jpg,AFNE06.jpg,AFNE03.jpg,FN,3,num_6,16,num_6,0.750137757394,,,2017_Nov_30_1152,60.0050809253,MAFE4ImagesEEG,001,102379,
AFNE01.JPG,AFNE01.JPG,AFNE01.JPG,AFNE01.JPG,AFNE01.JPG,AFNE01.JPG,,,,,2,6,26,0,,,,,,,,,,,,,,,,,,,AFNE06.jpg,AFNE01.jpg,AFSA01.jpg,AFSA02.jpg,AFNE06.jpg,FN,3,num_8,16,num_8,1.20008672785,,,2017_Nov_30_1152,60.0050809253,MAFE4ImagesEEG,001,102379,
AFNE01.JPG,AFNE01.JPG,AFNE01.JPG,AFNE01.JPG,AFNE01.JPG,AFNE01.JPG,,,,,2,7,27,7,,,,,,,,,,,,,,,,,,,AFNE15.jpg,AFSA17.jpg,AFSA01.jpg,AFNE07.jpg,AFNE15.jpg,FN,3,num_8,16,num_8,0.633451878442,,,2017_Nov_30_1152,60.0050809253,MAFE4ImagesEEG,001,102379,
AFNE01.JPG,AFNE01.JPG,AFNE01.JPG,AFNE01.JPG,AFNE01.JPG,AFNE01.JPG,,,,,2,8,28,2,,,,,,,,,,,,,,,,,,,AFSA18.jpg,AFSA09.jpg,AFNE19.jpg,AFNE02.jpg,AFSA18.jpg,FS,4,num_8,32,num_6,0.933435071725,,,2017_Nov_30_1152,60.0050809253,MAFE4ImagesEEG,001,102379,
AFNE01.JPG,AFNE01.JPG,AFNE01.JPG,AFNE01.JPG,AFNE01.JPG,AFNE01.JPG,,,,,2,9,29,8,,,,,,,,,,,,,,,,,,,AFSA20.jpg,AFNE20.jpg,AFNE06.jpg,AFSA02.jpg,AFSA02.jpg,FS,4,num_4,32,num_2,0.51679967728,,,2017_Nov_30_1152,60.0050809253,MAFE4ImagesEEG,001,102379,
AFNE01.JPG,AFNE01.JPG,AFNE01.JPG,AFNE01.JPG,AFNE01.JPG,AFNE01.JPG,,,,,3,0,30,2,,,,,,,,,,,,,,,,,,,AFNE02.jpg,AFSA05.jpg,AFNE20.jpg,AFSA07.jpg,AFSA05.jpg,FS,4,num_6,16,num_6,0.599987234571,,,2017_Nov_30_1152,60.0050809253,MAFE4ImagesEEG,001,102379,
AFNE01.JPG,AFNE01.JPG,AFNE01.JPG,AFNE01.JPG,AFNE01.JPG,AFNE01.JPG,,,,,3,1,31,3,,,,,,,,,,,,,,,,,,,AFSA04.jpg,AFNE10.jpg,AFNE05.jpg,AFSA06.jpg,AFNE05.jpg,FN,3,num_2,16,num_2,1.25004923355,,,2017_Nov_30_1152,60.0050809253,MAFE4ImagesEEG,001,102379,
AFNE01.JPG,AFNE01.JPG,AFNE01.JPG,AFNE01.JPG,AFNE01.JPG,AFNE01.JPG,,,,,3,2,32,4,,,,,,,,,,,,,,,,,,,AFSA12.jpg,AFNE11.jpg,AFSA19.jpg,AFNE13.jpg,AFSA19.jpg,FS,4,num_2,16,num_2,0.983474875451,,,2017_Nov_30_1152,60.0050809253,MAFE4ImagesEEG,001,102379,
AFNE01.JPG,AFNE01.JPG,AFNE01.JPG,AFNE01.JPG,AFNE01.JPG,AFNE01.JPG,,,,,3,3,33,6,,,,,,,,,,,,,,,,,,,AFNE15.jpg,AFSA03.jpg,AFSA04.jpg,AFNE10.jpg,AFSA04.jpg,FS,4,num_2,32,num_6,0.733457395341,,,2017_Nov_30_1152,60.0050809253,MAFE4ImagesEEG,001,102379,
AFNE01.JPG,AFNE01.JPG,AFNE01.JPG,AFNE01.JPG,AFNE01.JPG,AFNE01.JPG,,,,,3,4,34,5,,,,,,,,,,,,,,,,,,,AFSA14.jpg,AFSA18.jpg,AFNE03.jpg,AFNE16.jpg,AFSA18.jpg,FS,4,num_6,16,num_6,0.85010703071,,,2017_Nov_30_1152,60.0050809253,MAFE4ImagesEEG,001,102379,
AFNE01.JPG,AFNE01.JPG,AFNE01.JPG,AFNE01.JPG,AFNE01.JPG,AFNE01.JPG,,,,,3,5,35,1,,,,,,,,,,,,,,,,,,,AFNE17.jpg,AFNE18.jpg,AFSA16.jpg,AFSA15.jpg,AFNE18.jpg,FN,3,num_6,16,num_6,0.866778091411,,,2017_Nov_30_1152,60.0050809253,MAFE4ImagesEEG,001,102379,
AFNE01.JPG,AFNE01.JPG,AFNE01.JPG,AFNE01.JPG,AFNE01.JPG,AFNE01.JPG,,,,,3,6,36,0,,,,,,,,,,,,,,,,,,,AFSA01.jpg,AFNE17.jpg,AFNE05.jpg,AFSA15.jpg,AFSA01.jpg,FS,4,num_8,16,num_8,0.666783415712,,,2017_Nov_30_1152,60.0050809253,MAFE4ImagesEEG,001,102379,
AFNE01.JPG,AFNE01.JPG,AFNE01.JPG,AFNE01.JPG,AFNE01.JPG,AFNE01.JPG,,,,,3,7,37,8,,,,,,,,,,,,,,,,,,,AFSA12.jpg,AFSA13.jpg,AFNE19.jpg,AFNE10.jpg,AFSA12.jpg,FS,4,num_8,32,num_6,0.783319509472,,,2017_Nov_30_1152,60.0050809253,MAFE4ImagesEEG,001,102379,
AFNE01.JPG,AFNE01.JPG,AFNE01.JPG,AFNE01.JPG,AFNE01.JPG,AFNE01.JPG,,,,,3,8,38,7,,,,,,,,,,,,,,,,,,,AFSA14.jpg,AFNE07.jpg,AFNE14.jpg,AFSA18.jpg,AFNE14.jpg,FN,3,num_2,16,num_2,0.86661740113,,,2017_Nov_30_1152,60.0050809253,MAFE4ImagesEEG,001,102379,
AFNE01.JPG,AFNE01.JPG,AFNE01.JPG,AFNE01.JPG,AFNE01.JPG,AFNE01.JPG,,,,,3,9,39,9,,,,,,,,,,,,,,,,,,,AFSA05.jpg,AFNE06.jpg,AFNE02.jpg,AFSA09.jpg,AFNE06.jpg,FN,3,num_6,32,num_2,0.866748262662,,,2017_Nov_30_1152,60.0050809253,MAFE4ImagesEEG,001,102379,
AFNE01.JPG,AFNE01.JPG,AFNE01.JPG,AFNE01.JPG,AFNE01.JPG,AFNE01.JPG,,,,,4,0,40,4,,,,,,,,,,,,,,,,,,,AFNE17.jpg,AFSA15.jpg,AFNE10.jpg,AFSA11.jpg,AFSA11.jpg,FS,4,num_4,16,num_4,0.86687238887,,,2017_Nov_30_1152,60.0050809253,MAFE4ImagesEEG,001,102379,
AFNE01.JPG,AFNE01.JPG,AFNE01.JPG,AFNE01.JPG,AFNE01.JPG,AFNE01.JPG,,,,,4,1,41,9,,,,,,,,,,,,,,,,,,,AFSA17.jpg,AFSA18.jpg,AFNE14.jpg,AFNE08.jpg,AFSA18.jpg,FS,4,num_6,16,num_6,0.683444533614,,,2017_Nov_30_1152,60.0050809253,MAFE4ImagesEEG,001,102379,
AFNE01.JPG,AFNE01.JPG,AFNE01.JPG,AFNE01.JPG,AFNE01.JPG,AFNE01.JPG,,,,,4,2,42,8,,,,,,,,,,,,,,,,,,,AFSA18.jpg,AFSA07.jpg,AFNE06.jpg,AFNE10.jpg,AFNE06.jpg,FN,3,num_2,16,num_2,0.650163352373,,,2017_Nov_30_1152,60.0050809253,MAFE4ImagesEEG,001,102379,
AFNE01.JPG,AFNE01.JPG,AFNE01.JPG,AFNE01.JPG,AFNE01.JPG,AFNE01.JPG,,,,,4,3,43,3,,,,,,,,,,,,,,,,,,,AFNE15.jpg,AFSA06.jpg,AFSA09.jpg,AFNE11.jpg,AFSA09.jpg,FS,4,num_2,16,num_2,0.566792011494,,,2017_Nov_30_1152,60.0050809253,MAFE4ImagesEEG,001,102379,
AFNE01.JPG,AFNE01.JPG,AFNE01.JPG,AFNE01.JPG,AFNE01.JPG,AFNE01.JPG,,,,,4,4,44,1,,,,,,,,,,,,,,,,,,,AFNE16.jpg,AFNE12.jpg,AFSA01.jpg,AFSA09.jpg,AFNE12.jpg,FN,3,num_6,32,num_4,0.883419965045,,,2017_Nov_30_1152,60.0050809253,MAFE4ImagesEEG,001,102379,
AFNE01.JPG,AFNE01.JPG,AFNE01.JPG,AFNE01.JPG,AFNE01.JPG,AFNE01.JPG,,,,,4,5,45,5,,,,,,,,,,,,,,,,,,,AFSA06.jpg,AFNE13.jpg,AFSA19.jpg,AFNE05.jpg,AFNE13.jpg,FN,3,num_6,32,num_8,0.600146962679,,,2017_Nov_30_1152,60.0050809253,MAFE4ImagesEEG,001,102379,
AFNE01.JPG,AFNE01.JPG,AFNE01.JPG,AFNE01.JPG,AFNE01.JPG,AFNE01.JPG,,,,,4,6,46,7,,,,,,,,,,,,,,,,,,,AFNE20.jpg,AFSA04.jpg,AFSA17.jpg,AFNE18.jpg,AFSA04.jpg,FS,4,num_6,16,num_6,1.33340678271,,,2017_Nov_30_1152,60.0050809253,MAFE4ImagesEEG,001,102379,
AFNE01.JPG,AFNE01.JPG,AFNE01.JPG,AFNE01.JPG,AFNE01.JPG,AFNE01.JPG,,,,,4,7,47,6,,,,,,,,,,,,,,,,,,,AFNE06.jpg,AFSA07.jpg,AFSA20.jpg,AFNE17.jpg,AFSA07.jpg,FS,4,num_6,32,num_4,1.38348635798,,,2017_Nov_30_1152,60.0050809253,MAFE4ImagesEEG,001,102379,
AFNE01.JPG,AFNE01.JPG,AFNE01.JPG,AFNE01.JPG,AFNE01.JPG,AFNE01.JPG,,,,,4,8,48,0,,,,,,,,,,,,,,,,,,,AFNE18.jpg,AFSA11.jpg,AFNE08.jpg,AFSA13.jpg,AFNE08.jpg,FN,3,num_2,32,num_8,1.03350249119,,,2017_Nov_30_1152,60.0050809253,MAFE4ImagesEEG,001,102379,
AFNE01.JPG,AFNE01.JPG,AFNE01.JPG,AFNE01.JPG,AFNE01.JPG,AFNE01.JPG,,,,,4,9,49,2,,,,,,,,,,,,,,,,,,,AFSA16.jpg,AFSA11.jpg,AFNE08.jpg,AFNE18.jpg,AFSA16.jpg,FS,4,num_8,32,num_6,0.950136923464,,,2017_Nov_30_1152,60.0050809253,MAFE4ImagesEEG,001,102379,
AFNE01.JPG,AFNE01.JPG,AFNE01.JPG,AFNE01.JPG,AFNE01.JPG,AFNE01.JPG,,,,,5,0,50,4,,,,,,,,,,,,,,,,,,,AFNE13.jpg,AFSA09.jpg,AFNE09.jpg,AFSA07.jpg,AFSA07.jpg,FS,4,num_4,16,num_4,0.750152832246,,,2017_Nov_30_1152,60.0050809253,MAFE4ImagesEEG,001,102379,
AFNE01.JPG,AFNE01.JPG,AFNE01.JPG,AFNE01.JPG,AFNE01.JPG,AFNE01.JPG,,,,,5,1,51,5,,,,,,,,,,,,,,,,,,,AFNE04.jpg,AFNE06.jpg,AFSA09.jpg,AFSA18.jpg,AFSA09.jpg,FS,4,num_2,32,num_4,0.716769014485,,,2017_Nov_30_1152,60.0050809253,MAFE4ImagesEEG,001,102379,
AFNE01.JPG,AFNE01.JPG,AFNE01.JPG,AFNE01.JPG,AFNE01.JPG,AFNE01.JPG,,,,,5,2,52,8,,,,,,,,,,,,,,,,,,,AFNE02.jpg,AFSA04.jpg,AFSA20.jpg,AFNE08.jpg,AFNE08.jpg,FN,3,num_4,16,num_4,1.3667341501,,,2017_Nov_30_1152,60.0050809253,MAFE4ImagesEEG,001,102379,
AFNE01.JPG,AFNE01.JPG,AFNE01.JPG,AFNE01.JPG,AFNE01.JPG,AFNE01.JPG,,,,,5,3,53,0,,,,,,,,,,,,,,,,,,,AFSA01.jpg,AFNE19.jpg,AFNE01.jpg,AFSA04.jpg,AFSA01.jpg,FS,4,num_8,16,num_8,0.883516507456,,,2017_Nov_30_1152,60.0050809253,MAFE4ImagesEEG,001,102379,
AFNE01.JPG,AFNE01.JPG,AFNE01.JPG,AFNE01.JPG,AFNE01.JPG,AFNE01.JPG,,,,,5,4,54,6,,,,,,,,,,,,,,,,,,,AFNE04.jpg,AFSA19.jpg,AFSA17.jpg,AFNE07.jpg,AFNE04.jpg,FN,3,num_8,32,num_4,1.05008117913,,,2017_Nov_30_1152,60.0050809253,MAFE4ImagesEEG,001,102379,
AFNE01.JPG,AFNE01.JPG,AFNE01.JPG,AFNE01.JPG,AFNE01.JPG,AFNE01.JPG,,,,,5,5,55,1,,,,,,,,,,,,,,,,,,,AFSA17.jpg,AFNE12.jpg,AFNE17.jpg,AFSA03.jpg,AFNE17.jpg,FN,3,num_2,32,num_6,0.866809844621,,,2017_Nov_30_1152,60.0050809253,MAFE4ImagesEEG,001,102379,
AFNE01.JPG,AFNE01.JPG,AFNE01.JPG,AFNE01.JPG,AFNE01.JPG,AFNE01.JPG,,,,,5,6,56,9,,,,,,,,,,,,,,,,,,,AFNE07.jpg,AFSA05.jpg,AFNE18.jpg,AFSA06.jpg,AFNE07.jpg,FN,3,num_8,16,num_8,0.700008788262,,,2017_Nov_30_1152,60.0050809253,MAFE4ImagesEEG,001,102379,
AFNE01.JPG,AFNE01.JPG,AFNE01.JPG,AFNE01.JPG,AFNE01.JPG,AFNE01.JPG,,,,,5,7,57,7,,,,,,,,,,,,,,,,,,,AFNE15.jpg,AFNE14.jpg,AFSA13.jpg,AFSA20.jpg,AFNE15.jpg,FN,3,num_8,32,num_4,1.05009593302,,,2017_Nov_30_1152,60.0050809253,MAFE4ImagesEEG,001,102379,
AFNE01.JPG,AFNE01.JPG,AFNE01.JPG,AFNE01.JPG,AFNE01.JPG,AFNE01.JPG,,,,,5,8,58,3,,,,,,,,,,,,,,,,,,,AFSA03.jpg,AFSA05.jpg,AFNE03.jpg,AFNE16.jpg,AFSA03.jpg,FS,4,num_8,16,num_8,0.733427245752,,,2017_Nov_30_1152,60.0050809253,MAFE4ImagesEEG,001,102379,
AFNE01.JPG,AFNE01.JPG,AFNE01.JPG,AFNE01.JPG,AFNE01.JPG,AFNE01.JPG,,,,,5,9,59,2,,,,,,,,,,,,,,,,,,,AFNE18.jpg,AFSA12.jpg,AFSA15.jpg,AFNE17.jpg,AFNE18.jpg,FN,3,num_8,16,num_8,1.21675329842,,,2017_Nov_30_1152,60.0050809253,MAFE4ImagesEEG,001,102379,
,,,,,,,,,,,,,,,,,,,,,,,,,,,,,,,,,,,,,,,,,,,space,5.36608337041,2017_Nov_30_1152,60.0050809253,MAFE4ImagesEEG,001,102379,
AFNE01.JPG,AFNE01.JPG,AFNE01.JPG,AFNE01.JPG,AFNE01.JPG,AFNE01.JPG,,,,,,,,,0,0,0,2,,,,,,,,,,,,,,,AMNE16.jpg,AMNE17.jpg,AMSA09.jpg,AMSA20.jpg,AMNE16.jpg,MN,1,num_8,32,num_6,1.03342904197,,,2017_Nov_30_1152,60.0050809253,MAFE4ImagesEEG,001,102379,
AFNE01.JPG,AFNE01.JPG,AFNE01.JPG,AFNE01.JPG,AFNE01.JPG,AFNE01.JPG,,,,,,,,,0,1,1,5,,,,,,,,,,,,,,,AMSA08.jpg,AMSA10.jpg,AMNE14.jpg,AMNE18.jpg,AMSA10.jpg,MS,2,num_6,16,num_6,0.816788002383,,,2017_Nov_30_1152,60.0050809253,MAFE4ImagesEEG,001,102379,
AFNE01.JPG,AFNE01.JPG,AFNE01.JPG,AFNE01.JPG,AFNE01.JPG,AFNE01.JPG,,,,,,,,,0,2,2,9,,,,,,,,,,,,,,,AMSA13.jpg,AMNE02.jpg,AMNE19.jpg,AMSA08.jpg,AMNE19.jpg,MN,1,num_2,32,num_4,0.783474426484,,,2017_Nov_30_1152,60.0050809253,MAFE4ImagesEEG,001,102379,
AFNE01.JPG,AFNE01.JPG,AFNE01.JPG,AFNE01.JPG,AFNE01.JPG,AFNE01.JPG,,,,,,,,,0,3,3,7,,,,,,,,,,,,,,,AMSA17.jpg,AMNE06.jpg,AMNE01.jpg,AMSA06.jpg,AMSA17.jpg,MS,2,num_8,16,num_8,0.900137532968,,,2017_Nov_30_1152,60.0050809253,MAFE4ImagesEEG,001,102379,
AFNE01.JPG,AFNE01.JPG,AFNE01.JPG,AFNE01.JPG,AFNE01.JPG,AFNE01.JPG,,,,,,,,,0,4,4,1,,,,,,,,,,,,,,,AMSA13.jpg,AMSA11.jpg,AMNE20.jpg,AMNE08.jpg,AMSA11.jpg,MS,2,num_6,16,num_6,0.483327014837,,,2017_Nov_30_1152,60.0050809253,MAFE4ImagesEEG,001,102379,
AFNE01.JPG,AFNE01.JPG,AFNE01.JPG,AFNE01.JPG,AFNE01.JPG,AFNE01.JPG,,,,,,,,,0,5,5,3,,,,,,,,,,,,,,,AMNE08.jpg,AMNE10.jpg,AMSA10.jpg,AMSA12.jpg,AMSA12.jpg,MS,2,num_4,16,num_4,0.850131086074,,,2017_Nov_30_1152,60.0050809253,MAFE4ImagesEEG,001,102379,
AFNE01.JPG,AFNE01.JPG,AFNE01.JPG,AFNE01.JPG,AFNE01.JPG,AFNE01.JPG,,,,,,,,,0,6,6,0,,,,,,,,,,,,,,,AMSA02.jpg,AMSA05.jpg,AMNE02.jpg,AMNE09.jpg,AMNE02.jpg,MN,1,num_2,32,num_6,0.700161139481,,,2017_Nov_30_1152,60.0050809253,MAFE4ImagesEEG,001,102379,
AFNE01.JPG,AFNE01.JPG,AFNE01.JPG,AFNE01.JPG,AFNE01.JPG,AFNE01.JPG,,,,,,,,,0,7,7,8,,,,,,,,,,,,,,,AMNE16.jpg,AMNE13.jpg,AMSA16.jpg,AMSA20.jpg,AMNE16.jpg,MN,1,num_8,16,num_8,0.95009234082,,,2017_Nov_30_1152,60.0050809253,MAFE4ImagesEEG,001,102379,
AFNE01.JPG,AFNE01.JPG,AFNE01.JPG,AFNE01.JPG,AFNE01.JPG,AFNE01.JPG,,,,,,,,,0,8,8,6,,,,,,,,,,,,,,,AMNE10.jpg,AMSA10.jpg,AMSA20.jpg,AMNE14.jpg,AMNE14.jpg,MN,1,num_4,16,num_4,0.866764620412,,,2017_Nov_30_1152,60.0050809253,MAFE4ImagesEEG,001,102379,
AFNE01.JPG,AFNE01.JPG,AFNE01.JPG,AFNE01.JPG,AFNE01.JPG,AFNE01.JPG,,,,,,,,,0,9,9,4,,,,,,,,,,,,,,,AMNE02.jpg,AMNE09.jpg,AMSA17.jpg,AMSA13.jpg,AMNE02.jpg,MN,1,num_8,16,num_8,0.950119603658,,,2017_Nov_30_1152,60.0050809253,MAFE4ImagesEEG,001,102379,
AFNE01.JPG,AFNE01.JPG,AFNE01.JPG,AFNE01.JPG,AFNE01.JPG,AFNE01.JPG,,,,,,,,,1,0,10,5,,,,,,,,,,,,,,,AMSA19.jpg,AMNE05.jpg,AMNE04.jpg,AMSA15.jpg,AMNE04.jpg,MN,1,num_2,16,num_2,0.766508606379,,,2017_Nov_30_1152,60.0050809253,MAFE4ImagesEEG,001,102379,
AFNE01.JPG,AFNE01.JPG,AFNE01.JPG,AFNE01.JPG,AFNE01.JPG,AFNE01.JPG,,,,,,,,,1,1,11,6,,,,,,,,,,,,,,,AMSA20.jpg,AMNE06.jpg,AMNE12.jpg,AMSA03.jpg,AMSA03.jpg,MS,2,num_4,16,num_4,0.650152768008,,,2017_Nov_30_1152,60.0050809253,MAFE4ImagesEEG,001,102379,
AFNE01.JPG,AFNE01.JPG,AFNE01.JPG,AFNE01.JPG,AFNE01.JPG,AFNE01.JPG,,,,,,,,,1,2,12,0,,,,,,,,,,,,,,,AMSA16.jpg,AMSA07.jpg,AMNE09.jpg,AMNE16.jpg,AMNE09.jpg,MN,1,num_2,32,num_4,0.616750668269,,,2017_Nov_30_1152,60.0050809253,MAFE4ImagesEEG,001,102379,
AFNE01.JPG,AFNE01.JPG,AFNE01.JPG,AFNE01.JPG,AFNE01.JPG,AFNE01.JPG,,,,,,,,,1,3,13,9,,,,,,,,,,,,,,,AMSA06.jpg,AMNE09.jpg,AMSA09.jpg,AMNE18.jpg,AMSA06.jpg,MS,2,num_8,16,num_8,0.900132721872,,,2017_Nov_30_1152,60.0050809253,MAFE4ImagesEEG,001,102379,
AFNE01.JPG,AFNE01.JPG,AFNE01.JPG,AFNE01.JPG,AFNE01.JPG,AFNE01.JPG,,,,,,,,,1,4,14,3,,,,,,,,,,,,,,,AMSA10.jpg,AMNE08.jpg,AMNE10.jpg,AMSA13.jpg,AMSA10.jpg,MS,2,num_8,32,num_4,1.33342089516,,,2017_Nov_30_1152,60.0050809253,MAFE4ImagesEEG,001,102379,
AFNE01.JPG,AFNE01.JPG,AFNE01.JPG,AFNE01.JPG,AFNE01.JPG,AFNE01.JPG,,,,,,,,,1,5,15,4,,,,,,,,,,,,,,,AMNE16.jpg,AMSA07.jpg,AMSA15.jpg,AMNE13.jpg,AMSA15.jpg,MS,2,num_2,16,num_2,0.600156264147,,,2017_Nov_30_1152,60.0050809253,MAFE4ImagesEEG,001,102379,
AFNE01.JPG,AFNE01.JPG,AFNE01.JPG,AFNE01.JPG,AFNE01.JPG,AFNE01.JPG,,,,,,,,,1,6,16,8,,,,,,,,,,,,,,,AMNE04.jpg,AMSA06.jpg,AMNE07.jpg,AMSA13.jpg,AMNE04.jpg,MN,1,num_8,32,num_4,0.683468909818,,,2017_Nov_30_1152,60.0050809253,MAFE4ImagesEEG,001,102379,
AFNE01.JPG,AFNE01.JPG,AFNE01.JPG,AFNE01.JPG,AFNE01.JPG,AFNE01.JPG,,,,,,,,,1,7,17,1,,,,,,,,,,,,,,,AMNE08.jpg,AMSA06.jpg,AMNE13.jpg,AMSA03.jpg,AMSA06.jpg,MS,2,num_6,16,num_6,0.650171370944,,,2017_Nov_30_1152,60.0050809253,MAFE4ImagesEEG,001,102379,
AFNE01.JPG,AFNE01.JPG,AFNE01.JPG,AFNE01.JPG,AFNE01.JPG,AFNE01.JPG,,,,,,,,,1,8,18,7,,,,,,,,,,,,,,,AMSA20.jpg,AMNE17.jpg,AMNE03.jpg,AMSA18.jpg,AMNE03.jpg,MN,1,num_2,16,num_2,0.916793198325,,,2017_Nov_30_1152,60.0050809253,MAFE4ImagesEEG,001,102379,
AFNE01.JPG,AFNE01.JPG,AFNE01.JPG,AFNE01.JPG,AFNE01.JPG,AFNE01.JPG,,,,,,,,,1,9,19,2,,,,,,,,,,,,,,,AMSA13.jpg,AMNE18.jpg,AMSA09.jpg,AMNE20.jpg,AMSA13.jpg,MS,2,num_8,16,num_8,0.900129514514,,,2017_Nov_30_1152,60.0050809253,MAFE4ImagesEEG,001,102379,
AFNE01.JPG,AFNE01.JPG,AFNE01.JPG,AFNE01.JPG,AFNE01.JPG,AFNE01.JPG,,,,,,,,,2,0,20,8,,,,,,,,,,,,,,,AMNE05.jpg,AMSA19.jpg,AMSA06.jpg,AMNE19.jpg,AMSA06.jpg,MS,2,num_2,32,num_6,1.11677440291,,,2017_Nov_30_1152,60.0050809253,MAFE4ImagesEEG,001,102379,
AFNE01.JPG,AFNE01.JPG,AFNE01.JPG,AFNE01.JPG,AFNE01.JPG,AFNE01.JPG,,,,,,,,,2,1,21,1,,,,,,,,,,,,,,,AMSA10.jpg,AMNE16.jpg,AMSA19.jpg,AMNE14.jpg,AMSA10.jpg,MS,2,num_8,32,num_2,0.800251331297,,,2017_Nov_30_1152,60.0050809253,MAFE4ImagesEEG,001,102379,
AFNE01.JPG,AFNE01.JPG,AFNE01.JPG,AFNE01.JPG,AFNE01.JPG,AFNE01.JPG,,,,,,,,,2,2,22,5,,,,,,,,,,,,,,,AMSA20.jpg,AMSA09.jpg,AMNE06.jpg,AMNE12.jpg,AMSA20.jpg,MS,2,num_8,16,num_8,0.866804071353,,,2017_Nov_30_1152,60.0050809253,MAFE4ImagesEEG,001,102379,
AFNE01.JPG,AFNE01.JPG,AFNE01.JPG,AFNE01.JPG,AFNE01.JPG,AFNE01.JPG,,,,,,,,,2,3,23,2,,,,,,,,,,,,,,,AMSA06.jpg,AMSA18.jpg,AMNE17.jpg,AMNE11.jpg,AMNE11.jpg,MN,1,num_4,16,num_4,0.783449408831,,,2017_Nov_30_1152,60.0050809253,MAFE4ImagesEEG,001,102379,
AFNE01.JPG,AFNE01.JPG,AFNE01.JPG,AFNE01.JPG,AFNE01.JPG,AFNE01.JPG,,,,,,,,,2,4,24,0,,,,,,,,,,,,,,,AMNE07.jpg,AMSA12.jpg,AMSA14.jpg,AMNE10.jpg,AMSA14.jpg,MS,2,num_2,16,num_2,0.600137661211,,,2017_Nov_30_1152,60.0050809253,MAFE4ImagesEEG,001,102379,
AFNE01.JPG,AFNE01.JPG,AFNE01.JPG,AFNE01.JPG,AFNE01.JPG,AFNE01.JPG,,,,,,,,,2,5,25,3,,,,,,,,,,,,,,,AMNE16.jpg,AMNE17.jpg,AMSA06.jpg,AMSA17.jpg,AMNE16.jpg,MN,1,num_8,16,num_8,0.933437637636,,,2017_Nov_30_1152,60.0050809253,MAFE4ImagesEEG,001,102379,
AFNE01.JPG,AFNE01.JPG,AFNE01.JPG,AFNE01.JPG,AFNE01.JPG,AFNE01.JPG,,,,,,,,,2,6,26,4,,,,,,,,,,,,,,,AMNE13.jpg,AMSA03.jpg,AMSA07.jpg,AMNE14.jpg,AMSA03.jpg,MS,2,num_6,16,num_6,0.683456080267,,,2017_Nov_30_1152,60.0050809253,MAFE4ImagesEEG,001,102379,
AFNE01.JPG,AFNE01.JPG,AFNE01.JPG,AFNE01.JPG,AFNE01.JPG,AFNE01.JPG,,,,,,,,,2,7,27,9,,,,,,,,,,,,,,,AMNE12.jpg,AMSA05.jpg,AMNE05.jpg,AMSA20.jpg,AMSA20.jpg,MS,2,num_4,16,num_4,0.983466215548,,,2017_Nov_30_1152,60.0050809253,MAFE4ImagesEEG,001,102379,
AFNE01.JPG,AFNE01.JPG,AFNE01.JPG,AFNE01.JPG,AFNE01.JPG,AFNE01.JPG,,,,,,,,,2,8,28,7,,,,,,,,,,,,,,,AMNE03.jpg,AMSA20.jpg,AMNE01.jpg,AMSA12.jpg,AMSA20.jpg,MS,2,num_6,16,num_6,0.733482092153,,,2017_Nov_30_1152,60.0050809253,MAFE4ImagesEEG,001,102379,
AFNE01.JPG,AFNE01.JPG,AFNE01.JPG,AFNE01.JPG,AFNE01.JPG,AFNE01.JPG,,,,,,,,,2,9,29,6,,,,,,,,,,,,,,,AMSA04.jpg,AMNE19.jpg,AMNE13.jpg,AMSA09.jpg,AMSA04.jpg,MS,2,num_8,16,num_8,0.833449440892,,,2017_Nov_30_1152,60.0050809253,MAFE4ImagesEEG,001,102379,
AFNE01.JPG,AFNE01.JPG,AFNE01.JPG,AFNE01.JPG,AFNE01.JPG,AFNE01.JPG,,,,,,,,,3,0,30,7,,,,,,,,,,,,,,,AMNE15.jpg,AMSA11.jpg,AMSA03.jpg,AMNE02.jpg,AMSA03.jpg,MS,2,num_2,32,num_6,1.21675843012,,,2017_Nov_30_1152,60.0050809253,MAFE4ImagesEEG,001,102379,
AFNE01.JPG,AFNE01.JPG,AFNE01.JPG,AFNE01.JPG,AFNE01.JPG,AFNE01.JPG,,,,,,,,,3,1,31,8,,,,,,,,,,,,,,,AMNE16.jpg,AMNE17.jpg,AMSA15.jpg,AMSA19.jpg,AMNE17.jpg,MN,1,num_6,32,num_8,1.10012515238,,,2017_Nov_30_1152,60.0050809253,MAFE4ImagesEEG,001,102379,
AFNE01.JPG,AFNE01.JPG,AFNE01.JPG,AFNE01.JPG,AFNE01.JPG,AFNE01.JPG,,,,,,,,,3,2,32,5,,,,,,,,,,,,,,,AMNE16.jpg,AMSA13.jpg,AMSA18.jpg,AMNE08.jpg,AMSA18.jpg,MS,2,num_2,16,num_2,0.683496172656,,,2017_Nov_30_1152,60.0050809253,MAFE4ImagesEEG,001,102379,
AFNE01.JPG,AFNE01.JPG,AFNE01.JPG,AFNE01.JPG,AFNE01.JPG,AFNE01.JPG,,,,,,,,,3,3,33,0,,,,,,,,,,,,,,,AMSA09.jpg,AMNE06.jpg,AMNE12.jpg,AMSA16.jpg,AMSA16.jpg,MS,2,num_4,16,num_4,0.633481707308,,,2017_Nov_30_1152,60.0050809253,MAFE4ImagesEEG,001,102379,
AFNE01.JPG,AFNE01.JPG,AFNE01.JPG,AFNE01.JPG,AFNE01.JPG,AFNE01.JPG,,,,,,,,,3,4,34,2,,,,,,,,,,,,,,,AMSA18.jpg,AMSA09.jpg,AMNE09.jpg,AMNE11.jpg,AMNE11.jpg,MN,1,num_4,32,num_2,1.08347590198,,,2017_Nov_30_1152,60.0050809253,MAFE4ImagesEEG,001,102379,
AFNE01.JPG,AFNE01.JPG,AFNE01.JPG,AFNE01.JPG,AFNE01.JPG,AFNE01.JPG,,,,,,,,,3,5,35,1,,,,,,,,,,,,,,,AMNE18.jpg,AMNE16.jpg,AMSA12.jpg,AMSA19.jpg,AMNE16.jpg,MN,1,num_6,16,num_6,0.633489084314,,,2017_Nov_30_1152,60.0050809253,MAFE4ImagesEEG,001,102379,
AFNE01.JPG,AFNE01.JPG,AFNE01.JPG,AFNE01.JPG,AFNE01.JPG,AFNE01.JPG,,,,,,,,,3,6,36,9,,,,,,,,,,,,,,,AMSA17.jpg,AMNE18.jpg,AMNE07.jpg,AMSA07.jpg,AMNE18.jpg,MN,1,num_6,32,num_8,0.883466151427,,,2017_Nov_30_1152,60.0050809253,MAFE4ImagesEEG,001,102379,
AFNE01.JPG,AFNE01.JPG,AFNE01.JPG,AFNE01.JPG,AFNE01.JPG,AFNE01.JPG,,,,,,,,,3,7,37,4,,,,,,,,,,,,,,,AMSA02.jpg,AMNE11.jpg,AMNE13.jpg,AMSA07.jpg,AMSA07.jpg,MS,2,num_4,16,num_4,0.966763722361,,,2017_Nov_30_1152,60.0050809253,MAFE4ImagesEEG,001,102379,
AFNE01.JPG,AFNE01.JPG,AFNE01.JPG,AFNE01.JPG,AFNE01.JPG,AFNE01.JPG,,,,,,,,,3,8,38,3,,,,,,,,,,,,,,,AMNE12.jpg,AMNE17.jpg,AMSA13.jpg,AMSA16.jpg,AMNE17.jpg,MN,1,num_6,16,num_6,1.4834434432,,,2017_Nov_30_1152,60.0050809253,MAFE4ImagesEEG,001,102379,
AFNE01.JPG,AFNE01.JPG,AFNE01.JPG,AFNE01.JPG,AFNE01.JPG,AFNE01.JPG,,,,,,,,,3,9,39,6,,,,,,,,,,,,,,,AMNE01.jpg,AMSA09.jpg,AMNE06.jpg,AMSA08.jpg,AMNE01.jpg,MN,1,num_8,32,num_4,0.83343725279,,,2017_Nov_30_1152,60.0050809253,MAFE4ImagesEEG,001,102379,
AFNE01.JPG,AFNE01.JPG,AFNE01.JPG,AFNE01.JPG,AFNE01.JPG,AFNE01.JPG,,,,,,,,,4,0,40,8,,,,,,,,,,,,,,,AMSA18.jpg,AMSA08.jpg,AMNE07.jpg,AMNE04.jpg,AMNE04.jpg,MN,1,num_4,32,num_2,1.20010116114,,,2017_Nov_30_1152,60.0050809253,MAFE4ImagesEEG,001,102379,
AFNE01.JPG,AFNE01.JPG,AFNE01.JPG,AFNE01.JPG,AFNE01.JPG,AFNE01.JPG,,,,,,,,,4,1,41,9,,,,,,,,,,,,,,,AMNE02.jpg,AMNE18.jpg,AMSA16.jpg,AMSA19.jpg,AMSA16.jpg,MS,2,num_2,16,num_2,0.533499604557,,,2017_Nov_30_1152,60.0050809253,MAFE4ImagesEEG,001,102379,
AFNE01.JPG,AFNE01.JPG,AFNE01.JPG,AFNE01.JPG,AFNE01.JPG,AFNE01.JPG,,,,,,,,,4,2,42,3,,,,,,,,,,,,,,,AMNE01.jpg,AMSA15.jpg,AMSA07.jpg,AMNE03.jpg,AMSA07.jpg,MS,2,num_2,16,num_2,1.43342544953,,,2017_Nov_30_1152,60.0050809253,MAFE4ImagesEEG,001,102379,
AFNE01.JPG,AFNE01.JPG,AFNE01.JPG,AFNE01.JPG,AFNE01.JPG,AFNE01.JPG,,,,,,,,,4,3,43,2,,,,,,,,,,,,,,,AMNE16.jpg,AMSA03.jpg,AMNE18.jpg,AMSA14.jpg,AMSA14.jpg,MS,2,num_4,16,num_4,0.550154949189,,,2017_Nov_30_1152,60.0050809253,MAFE4ImagesEEG,001,102379,
AFNE01.JPG,AFNE01.JPG,AFNE01.JPG,AFNE01.JPG,AFNE01.JPG,AFNE01.JPG,,,,,,,,,4,4,44,0,,,,,,,,,,,,,,,AMNE13.jpg,AMSA06.jpg,AMNE19.jpg,AMSA03.jpg,AMNE13.jpg,MN,1,num_8,32,num_2,1.04979892855,,,2017_Nov_30_1152,60.0050809253,MAFE4ImagesEEG,001,102379,
AFNE01.JPG,AFNE01.JPG,AFNE01.JPG,AFNE01.JPG,AFNE01.JPG,AFNE01.JPG,,,,,,,,,4,5,45,7,,,,,,,,,,,,,,,AMSA02.jpg,AMNE18.jpg,AMSA01.jpg,AMNE03.jpg,AMNE03.jpg,MN,1,num_4,16,num_4,0.883465189254,,,2017_Nov_30_1152,60.0050809253,MAFE4ImagesEEG,001,102379,
AFNE01.JPG,AFNE01.JPG,AFNE01.JPG,AFNE01.JPG,AFNE01.JPG,AFNE01.JPG,,,,,,,,,4,6,46,5,,,,,,,,,,,,,,,AMNE11.jpg,AMNE18.jpg,AMSA06.jpg,AMSA02.jpg,AMSA06.jpg,MS,2,num_2,32,num_6,0.88357359916,,,2017_Nov_30_1152,60.0050809253,MAFE4ImagesEEG,001,102379,
AFNE01.JPG,AFNE01.JPG,AFNE01.JPG,AFNE01.JPG,AFNE01.JPG,AFNE01.JPG,,,,,,,,,4,7,47,4,,,,,,,,,,,,,,,AMNE14.jpg,AMSA15.jpg,AMSA19.jpg,AMNE09.jpg,AMSA15.jpg,MS,2,num_6,16,num_6,0.716659963247,,,2017_Nov_30_1152,60.0050809253,MAFE4ImagesEEG,001,102379,
AFNE01.JPG,AFNE01.JPG,AFNE01.JPG,AFNE01.JPG,AFNE01.JPG,AFNE01.JPG,,,,,,,,,4,8,48,1,,,,,,,,,,,,,,,AMNE19.jpg,AMNE15.jpg,AMSA14.jpg,AMSA13.jpg,AMSA14.jpg,MS,2,num_2,16,num_2,0.566849103197,,,2017_Nov_30_1152,60.0050809253,MAFE4ImagesEEG,001,102379,
AFNE01.JPG,AFNE01.JPG,AFNE01.JPG,AFNE01.JPG,AFNE01.JPG,AFNE01.JPG,,,,,,,,,4,9,49,6,,,,,,,,,,,,,,,AMSA15.jpg,AMNE02.jpg,AMSA20.jpg,AMNE12.jpg,AMSA20.jpg,MS,2,num_2,16,num_2,0.866741206497,,,2017_Nov_30_1152,60.0050809253,MAFE4ImagesEEG,001,102379,
AFNE01.JPG,AFNE01.JPG,AFNE01.JPG,AFNE01.JPG,AFNE01.JPG,AFNE01.JPG,,,,,,,,,5,0,50,5,,,,,,,,,,,,,,,AMNE11.jpg,AMNE14.jpg,AMSA03.jpg,AMSA06.jpg,AMSA03.jpg,MS,2,num_2,16,num_2,0.650129033369,,,2017_Nov_30_1152,60.0050809253,MAFE4ImagesEEG,001,102379,
AFNE01.JPG,AFNE01.JPG,AFNE01.JPG,AFNE01.JPG,AFNE01.JPG,AFNE01.JPG,,,,,,,,,5,1,51,0,,,,,,,,,,,,,,,AMSA08.jpg,AMSA12.jpg,AMNE18.jpg,AMNE01.jpg,AMSA12.jpg,MS,2,num_6,32,num_8,0.950159054482,,,2017_Nov_30_1152,60.0050809253,MAFE4ImagesEEG,001,102379,
AFNE01.JPG,AFNE01.JPG,AFNE01.JPG,AFNE01.JPG,AFNE01.JPG,AFNE01.JPG,,,,,,,,,5,2,52,7,,,,,,,,,,,,,,,AMSA20.jpg,AMNE18.jpg,AMSA06.jpg,AMNE06.jpg,AMNE06.jpg,MN,1,num_4,32,num_2,0.766780593316,,,2017_Nov_30_1152,60.0050809253,MAFE4ImagesEEG,001,102379,
AFNE01.JPG,AFNE01.JPG,AFNE01.JPG,AFNE01.JPG,AFNE01.JPG,AFNE01.JPG,,,,,,,,,5,3,53,1,,,,,,,,,,,,,,,AMSA11.jpg,AMNE10.jpg,AMNE17.jpg,AMSA09.jpg,AMNE17.jpg,MN,1,num_2,16,num_2,0.650107543799,,,2017_Nov_30_1152,60.0050809253,MAFE4ImagesEEG,001,102379,
AFNE01.JPG,AFNE01.JPG,AFNE01.JPG,AFNE01.JPG,AFNE01.JPG,AFNE01.JPG,,,,,,,,,5,4,54,6,,,,,,,,,,,,,,,AMNE12.jpg,AMSA01.jpg,AMSA12.jpg,AMNE05.jpg,AMNE05.jpg,MN,1,num_4,16,num_4,0.850158990477,,,2017_Nov_30_1152,60.0050809253,MAFE4ImagesEEG,001,102379,
AFNE01.JPG,AFNE01.JPG,AFNE01.JPG,AFNE01.JPG,AFNE01.JPG,AFNE01.JPG,,,,,,,,,5,5,55,9,,,,,,,,,,,,,,,AMNE07.jpg,AMSA11.jpg,AMNE15.jpg,AMSA20.jpg,AMSA20.jpg,MS,2,num_4,16,num_4,1.86669502,,,2017_Nov_30_1152,60.0050809253,MAFE4ImagesEEG,001,102379,
AFNE01.JPG,AFNE01.JPG,AFNE01.JPG,AFNE01.JPG,AFNE01.JPG,AFNE01.JPG,,,,,,,,,5,6,56,3,,,,,,,,,,,,,,,AMSA11.jpg,AMNE06.jpg,AMNE11.jpg,AMSA04.jpg,AMSA11.jpg,MS,2,num_8,16,num_8,0.800151902135,,,2017_Nov_30_1152,60.0050809253,MAFE4ImagesEEG,001,102379,
AFNE01.JPG,AFNE01.JPG,AFNE01.JPG,AFNE01.JPG,AFNE01.JPG,AFNE01.JPG,,,,,,,,,5,7,57,8,,,,,,,,,,,,,,,AMSA10.jpg,AMNE01.jpg,AMSA07.jpg,AMNE08.jpg,AMNE01.jpg,MN,1,num_6,32,num_4,1.18346602318,,,2017_Nov_30_1152,60.0050809253,MAFE4ImagesEEG,001,102379,
AFNE01.JPG,AFNE01.JPG,AFNE01.JPG,AFNE01.JPG,AFNE01.JPG,AFNE01.JPG,,,,,,,,,5,8,58,2,,,,,,,,,,,,,,,AMSA07.jpg,AMSA10.jpg,AMNE16.jpg,AMNE02.jpg,AMSA07.jpg,MS,2,num_8,16,num_8,0.666608933592,,,2017_Nov_30_1152,60.0050809253,MAFE4ImagesEEG,001,102379,
AFNE01.JPG,AFNE01.JPG,AFNE01.JPG,AFNE01.JPG,AFNE01.JPG,AFNE01.JPG,,,,,,,,,5,9,59,4,,,,,,,,,,,,,,,AMNE01.jpg,AMNE02.jpg,AMSA12.jpg,AMSA20.jpg,AMSA12.jpg,MS,2,num_2,32,num_4,0.816786077805,,,2017_Nov_30_1152,60.0050809253,MAFE4ImagesEEG,001,102379,
,,,,,,,,,,,,,,,,,,,,,,,,,,,,,,,,,,,,,,,,,,,space,5.16640590574,2017_Nov_30_1152,60.0050809253,MAFE4ImagesEEG,001,102379,
AFNE01.JPG,AFNE01.JPG,AFNE01.JPG,AFNE01.JPG,AFNE01.JPG,AFNE01.JPG,,,,,,,,,,,,,0,0,0,1,,,,,,,,,,,AFSA09.jpg,AFNE20.jpg,AFSA07.jpg,AFNE19.jpg,AFNE19.jpg,FN,3,num_4,32,num_2,1.38343247387,,,2017_Nov_30_1152,60.0050809253,MAFE4ImagesEEG,001,102379,
AFNE01.JPG,AFNE01.JPG,AFNE01.JPG,AFNE01.JPG,AFNE01.JPG,AFNE01.JPG,,,,,,,,,,,,,0,1,1,4,,,,,,,,,,,AFSA04.jpg,AFNE12.jpg,AFNE18.jpg,AFSA02.jpg,AFNE18.jpg,FN,3,num_2,16,num_2,0.933496974409,,,2017_Nov_30_1152,60.0050809253,MAFE4ImagesEEG,001,102379,
AFNE01.JPG,AFNE01.JPG,AFNE01.JPG,AFNE01.JPG,AFNE01.JPG,AFNE01.JPG,,,,,,,,,,,,,0,2,2,3,,,,,,,,,,,AFSA09.jpg,AFNE10.jpg,AFNE07.jpg,AFSA06.jpg,AFNE10.jpg,FN,3,num_6,32,num_2,0.950146225048,,,2017_Nov_30_1152,60.0050809253,MAFE4ImagesEEG,001,102379,
AFNE01.JPG,AFNE01.JPG,AFNE01.JPG,AFNE01.JPG,AFNE01.JPG,AFNE01.JPG,,,,,,,,,,,,,0,3,3,8,,,,,,,,,,,AFNE18.jpg,AFSA04.jpg,AFSA05.jpg,AFNE02.jpg,AFSA05.jpg,FS,4,num_2,16,num_2,0.616768308915,,,2017_Nov_30_1152,60.0050809253,MAFE4ImagesEEG,001,102379,
AFNE01.JPG,AFNE01.JPG,AFNE01.JPG,AFNE01.JPG,AFNE01.JPG,AFNE01.JPG,,,,,,,,,,,,,0,4,4,0,,,,,,,,,,,AFNE11.jpg,AFSA12.jpg,AFSA03.jpg,AFNE06.jpg,AFSA03.jpg,FS,4,num_2,32,num_4,1.16672632424,,,2017_Nov_30_1152,60.0050809253,MAFE4ImagesEEG,001,102379,
AFNE01.JPG,AFNE01.JPG,AFNE01.JPG,AFNE01.JPG,AFNE01.JPG,AFNE01.JPG,,,,,,,,,,,,,0,5,5,2,,,,,,,,,,,AFSA15.jpg,AFNE10.jpg,AFSA04.jpg,AFNE08.jpg,AFSA04.jpg,FS,4,num_2,16,num_2,0.550103951478,,,2017_Nov_30_1152,60.0050809253,MAFE4ImagesEEG,001,102379,
AFNE01.JPG,AFNE01.JPG,AFNE01.JPG,AFNE01.JPG,AFNE01.JPG,AFNE01.JPG,,,,,,,,,,,,,0,6,6,7,,,,,,,,,,,AFSA12.jpg,AFNE03.jpg,AFSA04.jpg,AFNE04.jpg,AFNE04.jpg,FN,3,num_4,16,num_4,1.05007412285,,,2017_Nov_30_1152,60.0050809253,MAFE4ImagesEEG,001,102379,
AFNE01.JPG,AFNE01.JPG,AFNE01.JPG,AFNE01.JPG,AFNE01.JPG,AFNE01.JPG,,,,,,,,,,,,,0,7,7,5,,,,,,,,,,,AFSA08.jpg,AFNE01.jpg,AFNE10.jpg,AFSA07.jpg,AFSA07.jpg,FS,4,num_4,16,num_4,0.716802692157,,,2017_Nov_30_1152,60.0050809253,MAFE4ImagesEEG,001,102379,
AFNE01.JPG,AFNE01.JPG,AFNE01.JPG,AFNE01.JPG,AFNE01.JPG,AFNE01.JPG,,,,,,,,,,,,,0,8,8,9,,,,,,,,,,,AFSA01.jpg,AFNE10.jpg,AFNE06.jpg,AFSA05.jpg,AFNE10.jpg,FN,3,num_6,32,num_2,0.833517437568,,,2017_Nov_30_1152,60.0050809253,MAFE4ImagesEEG,001,102379,
AFNE01.JPG,AFNE01.JPG,AFNE01.JPG,AFNE01.JPG,AFNE01.JPG,AFNE01.JPG,,,,,,,,,,,,,0,9,9,6,,,,,,,,,,,AFSA05.jpg,AFSA17.jpg,AFNE14.jpg,AFNE19.jpg,AFNE14.jpg,FN,3,num_2,32,num_4,0.983446971281,,,2017_Nov_30_1152,60.0050809253,MAFE4ImagesEEG,001,102379,
AFNE01.JPG,AFNE01.JPG,AFNE01.JPG,AFNE01.JPG,AFNE01.JPG,AFNE01.JPG,,,,,,,,,,,,,1,0,10,5,,,,,,,,,,,AFSA08.jpg,AFSA06.jpg,AFNE16.jpg,AFNE08.jpg,AFSA06.jpg,FS,4,num_6,32,num_8,0.650142183644,,,2017_Nov_30_1152,60.0050809253,MAFE4ImagesEEG,001,102379,
AFNE01.JPG,AFNE01.JPG,AFNE01.JPG,AFNE01.JPG,AFNE01.JPG,AFNE01.JPG,,,,,,,,,,,,,1,1,11,7,,,,,,,,,,,AFNE05.jpg,AFSA04.jpg,AFSA03.jpg,AFNE15.jpg,AFNE05.jpg,FN,3,num_8,16,num_8,1.3167177604,,,2017_Nov_30_1152,60.0050809253,MAFE4ImagesEEG,001,102379,
AFNE01.JPG,AFNE01.JPG,AFNE01.JPG,AFNE01.JPG,AFNE01.JPG,AFNE01.JPG,,,,,,,,,,,,,1,2,12,1,,,,,,,,,,,AFNE14.jpg,AFSA05.jpg,AFNE07.jpg,AFSA16.jpg,AFNE14.jpg,FN,3,num_8,16,num_8,1.21673854429,,,2017_Nov_30_1152,60.0050809253,MAFE4ImagesEEG,001,102379,
AFNE01.JPG,AFNE01.JPG,AFNE01.JPG,AFNE01.JPG,AFNE01.JPG,AFNE01.JPG,,,,,,,,,,,,,1,3,13,8,,,,,,,,,,,AFSA09.jpg,AFNE12.jpg,AFNE18.jpg,AFSA02.jpg,AFSA02.jpg,FS,4,num_4,32,num_2,1.46670791379,,,2017_Nov_30_1152,60.0050809253,MAFE4ImagesEEG,001,102379,
AFNE01.JPG,AFNE01.JPG,AFNE01.JPG,AFNE01.JPG,AFNE01.JPG,AFNE01.JPG,,,,,,,,,,,,,1,4,14,0,,,,,,,,,,,AFSA04.jpg,AFNE04.jpg,AFSA10.jpg,AFNE01.jpg,AFSA04.jpg,FS,4,num_8,16,num_8,0.600136057474,,,2017_Nov_30_1152,60.0050809253,MAFE4ImagesEEG,001,102379,
AFNE01.JPG,AFNE01.JPG,AFNE01.JPG,AFNE01.JPG,AFNE01.JPG,AFNE01.JPG,,,,,,,,,,,,,1,5,15,6,,,,,,,,,,,AFNE19.jpg,AFSA17.jpg,AFSA19.jpg,AFNE15.jpg,AFNE15.jpg,FN,3,num_4,16,num_4,0.650128071196,,,2017_Nov_30_1152,60.0050809253,MAFE4ImagesEEG,001,102379,
AFNE01.JPG,AFNE01.JPG,AFNE01.JPG,AFNE01.JPG,AFNE01.JPG,AFNE01.JPG,,,,,,,,,,,,,1,6,16,4,,,,,,,,,,,AFSA01.jpg,AFNE11.jpg,AFSA06.jpg,AFNE16.jpg,AFSA06.jpg,FS,4,num_2,32,num_8,0.650125184446,,,2017_Nov_30_1152,60.0050809253,MAFE4ImagesEEG,001,102379,
AFNE01.JPG,AFNE01.JPG,AFNE01.JPG,AFNE01.JPG,AFNE01.JPG,AFNE01.JPG,,,,,,,,,,,,,1,7,17,3,,,,,,,,,,,AFNE02.jpg,AFSA03.jpg,AFNE05.jpg,AFSA04.jpg,AFSA03.jpg,FS,4,num_6,16,num_6,0.800111168181,,,2017_Nov_30_1152,60.0050809253,MAFE4ImagesEEG,001,102379,
AFNE01.JPG,AFNE01.JPG,AFNE01.JPG,AFNE01.JPG,AFNE01.JPG,AFNE01.JPG,,,,,,,,,,,,,1,8,18,9,,,,,,,,,,,AFSA16.jpg,AFSA14.jpg,AFNE17.jpg,AFNE16.jpg,AFSA14.jpg,FS,4,num_6,32,num_2,0.816802756279,,,2017_Nov_30_1152,60.0050809253,MAFE4ImagesEEG,001,102379,
AFNE01.JPG,AFNE01.JPG,AFNE01.JPG,AFNE01.JPG,AFNE01.JPG,AFNE01.JPG,,,,,,,,,,,,,1,9,19,2,,,,,,,,,,,AFNE01.jpg,AFSA03.jpg,AFSA01.jpg,AFNE11.jpg,AFSA03.jpg,FS,4,num_6,16,num_6,0.833465798642,,,2017_Nov_30_1152,60.0050809253,MAFE4ImagesEEG,001,102379,
AFNE01.JPG,AFNE01.JPG,AFNE01.JPG,AFNE01.JPG,AFNE01.JPG,AFNE01.JPG,,,,,,,,,,,,,2,0,20,5,,,,,,,,,,,AFNE11.jpg,AFSA11.jpg,AFNE18.jpg,AFSA16.jpg,AFNE11.jpg,FN,3,num_8,32,num_4,0.800082622445,,,2017_Nov_30_1152,60.0050809253,MAFE4ImagesEEG,001,102379,
AFNE01.JPG,AFNE01.JPG,AFNE01.JPG,AFNE01.JPG,AFNE01.JPG,AFNE01.JPG,,,,,,,,,,,,,2,1,21,0,,,,,,,,,,,AFSA12.jpg,AFSA13.jpg,AFNE03.jpg,AFNE02.jpg,AFSA12.jpg,FS,4,num_8,16,num_8,0.733432056848,,,2017_Nov_30_1152,60.0050809253,MAFE4ImagesEEG,001,102379,
AFNE01.JPG,AFNE01.JPG,AFNE01.JPG,AFNE01.JPG,AFNE01.JPG,AFNE01.JPG,,,,,,,,,,,,,2,2,22,1,,,,,,,,,,,AFSA19.jpg,AFNE17.jpg,AFSA03.jpg,AFNE20.jpg,AFNE17.jpg,FN,3,num_6,32,num_4,0.716802050709,,,2017_Nov_30_1152,60.0050809253,MAFE4ImagesEEG,001,102379,
AFNE01.JPG,AFNE01.JPG,AFNE01.JPG,AFNE01.JPG,AFNE01.JPG,AFNE01.JPG,,,,,,,,,,,,,2,3,23,3,,,,,,,,,,,AFSA05.jpg,AFNE18.jpg,AFNE10.jpg,AFSA01.jpg,AFSA01.jpg,FS,4,num_4,16,num_4,0.933450467302,,,2017_Nov_30_1152,60.0050809253,MAFE4ImagesEEG,001,102379,
AFNE01.JPG,AFNE01.JPG,AFNE01.JPG,AFNE01.JPG,AFNE01.JPG,AFNE01.JPG,,,,,,,,,,,,,2,4,24,9,,,,,,,,,,,AFNE02.jpg,AFNE17.jpg,AFSA04.jpg,AFSA19.jpg,AFSA04.jpg,FS,4,num_2,16,num_2,0.800261915661,,,2017_Nov_30_1152,60.0050809253,MAFE4ImagesEEG,001,102379,
AFNE01.JPG,AFNE01.JPG,AFNE01.JPG,AFNE01.JPG,AFNE01.JPG,AFNE01.JPG,,,,,,,,,,,,,2,5,25,4,,,,,,,,,,,AFSA10.jpg,AFNE17.jpg,AFNE03.jpg,AFSA16.jpg,AFSA10.jpg,FS,4,num_8,32,num_6,0.750128776766,,,2017_Nov_30_1152,60.0050809253,MAFE4ImagesEEG,001,102379,
AFNE01.JPG,AFNE01.JPG,AFNE01.JPG,AFNE01.JPG,AFNE01.JPG,AFNE01.JPG,,,,,,,,,,,,,2,6,26,6,,,,,,,,,,,AFSA19.jpg,AFSA10.jpg,AFNE08.jpg,AFNE04.jpg,AFSA19.jpg,FS,4,num_8,32,num_2,0.983462046017,,,2017_Nov_30_1152,60.0050809253,MAFE4ImagesEEG,001,102379,
AFNE01.JPG,AFNE01.JPG,AFNE01.JPG,AFNE01.JPG,AFNE01.JPG,AFNE01.JPG,,,,,,,,,,,,,2,7,27,2,,,,,,,,,,,AFSA02.jpg,AFNE10.jpg,AFSA11.jpg,AFNE09.jpg,AFSA11.jpg,FS,4,num_2,16,num_2,0.933458806598,,,2017_Nov_30_1152,60.0050809253,MAFE4ImagesEEG,001,102379,
AFNE01.JPG,AFNE01.JPG,AFNE01.JPG,AFNE01.JPG,AFNE01.JPG,AFNE01.JPG,,,,,,,,,,,,,2,8,28,7,,,,,,,,,,,AFSA16.jpg,AFNE16.jpg,AFSA15.jpg,AFNE13.jpg,AFNE16.jpg,FN,3,num_6,32,num_8,1.16646684613,,,2017_Nov_30_1152,60.0050809253,MAFE4ImagesEEG,001,102379,
AFNE01.JPG,AFNE01.JPG,AFNE01.JPG,AFNE01.JPG,AFNE01.JPG,AFNE01.JPG,,,,,,,,,,,,,2,9,29,8,,,,,,,,,,,AFNE03.jpg,AFSA18.jpg,AFSA14.jpg,AFNE20.jpg,AFNE20.jpg,FN,3,num_4,16,num_4,0.966760194162,,,2017_Nov_30_1152,60.0050809253,MAFE4ImagesEEG,001,102379,
AFNE01.JPG,AFNE01.JPG,AFNE01.JPG,AFNE01.JPG,AFNE01.JPG,AFNE01.JPG,,,,,,,,,,,,,3,0,30,4,,,,,,,,,,,AFSA09.jpg,AFNE19.jpg,AFSA19.jpg,AFNE20.jpg,AFNE19.jpg,FN,3,num_6,32,num_4,1.06674486294,,,2017_Nov_30_1152,60.0050809253,MAFE4ImagesEEG,001,102379,
AFNE01.JPG,AFNE01.JPG,AFNE01.JPG,AFNE01.JPG,AFNE01.JPG,AFNE01.JPG,,,,,,,,,,,,,3,1,31,6,,,,,,,,,,,AFNE04.jpg,AFNE07.jpg,AFSA04.jpg,AFSA10.jpg,AFNE04.jpg,FN,3,num_8,16,num_8,0.550229360582,,,2017_Nov_30_1152,60.0050809253,MAFE4ImagesEEG,001,102379,
AFNE01.JPG,AFNE01.JPG,AFNE01.JPG,AFNE01.JPG,AFNE01.JPG,AFNE01.JPG,,,,,,,,,,,,,3,2,32,9,,,,,,,,,,,AFSA10.jpg,AFNE14.jpg,AFSA17.jpg,AFNE19.jpg,AFSA17.jpg,FS,4,num_2,32,num_4,0.983294940903,,,2017_Nov_30_1152,60.0050809253,MAFE4ImagesEEG,001,102379,
AFNE01.JPG,AFNE01.JPG,AFNE01.JPG,AFNE01.JPG,AFNE01.JPG,AFNE01.JPG,,,,,,,,,,,,,3,3,33,2,,,,,,,,,,,AFNE09.jpg,AFSA08.jpg,AFNE08.jpg,AFSA06.jpg,AFSA06.jpg,FS,4,num_4,16,num_4,0.616781779914,,,2017_Nov_30_1152,60.0050809253,MAFE4ImagesEEG,001,102379,
AFNE01.JPG,AFNE01.JPG,AFNE01.JPG,AFNE01.JPG,AFNE01.JPG,AFNE01.JPG,,,,,,,,,,,,,3,4,34,7,,,,,,,,,,,AFSA19.jpg,AFNE15.jpg,AFNE13.jpg,AFSA11.jpg,AFSA11.jpg,FS,4,num_4,32,num_6,0.600129001308,,,2017_Nov_30_1152,60.0050809253,MAFE4ImagesEEG,001,102379,
AFNE01.JPG,AFNE01.JPG,AFNE01.JPG,AFNE01.JPG,AFNE01.JPG,AFNE01.JPG,,,,,,,,,,,,,3,5,35,8,,,,,,,,,,,AFNE13.jpg,AFSA10.jpg,AFSA11.jpg,AFNE20.jpg,AFNE13.jpg,FN,3,num_8,16,num_8,0.733476639609,,,2017_Nov_30_1152,60.0050809253,MAFE4ImagesEEG,001,102379,
AFNE01.JPG,AFNE01.JPG,AFNE01.JPG,AFNE01.JPG,AFNE01.JPG,AFNE01.JPG,,,,,,,,,,,,,3,6,36,1,,,,,,,,,,,AFSA16.jpg,AFSA18.jpg,AFNE09.jpg,AFNE02.jpg,AFNE02.jpg,FN,3,num_4,16,num_4,1.00021232932,,,2017_Nov_30_1152,60.0050809253,MAFE4ImagesEEG,001,102379,
AFNE01.JPG,AFNE01.JPG,AFNE01.JPG,AFNE01.JPG,AFNE01.JPG,AFNE01.JPG,,,,,,,,,,,,,3,7,37,0,,,,,,,,,,,AFNE02.jpg,AFNE18.jpg,AFSA11.jpg,AFSA09.jpg,AFSA09.jpg,FS,4,num_4,16,num_4,0.533567601233,,,2017_Nov_30_1152,60.0050809253,MAFE4ImagesEEG,001,102379,
AFNE01.JPG,AFNE01.JPG,AFNE01.JPG,AFNE01.JPG,AFNE01.JPG,AFNE01.JPG,,,,,,,,,,,,,3,8,38,5,,,,,,,,,,,AFNE02.jpg,AFSA05.jpg,AFNE07.jpg,AFSA02.jpg,AFNE07.jpg,FN,3,num_2,32,num_4,0.900114439661,,,2017_Nov_30_1152,60.0050809253,MAFE4ImagesEEG,001,102379,
AFNE01.JPG,AFNE01.JPG,AFNE01.JPG,AFNE01.JPG,AFNE01.JPG,AFNE01.JPG,,,,,,,,,,,,,3,9,39,3,,,,,,,,,,,AFSA10.jpg,AFNE07.jpg,AFSA11.jpg,AFNE15.jpg,AFSA10.jpg,FS,4,num_8,32,num_6,0.733467338141,,,2017_Nov_30_1152,60.0050809253,MAFE4ImagesEEG,001,102379,
AFNE01.JPG,AFNE01.JPG,AFNE01.JPG,AFNE01.JPG,AFNE01.JPG,AFNE01.JPG,,,,,,,,,,,,,4,0,40,8,,,,,,,,,,,AFSA19.jpg,AFNE19.jpg,AFNE17.jpg,AFSA14.jpg,AFSA19.jpg,FS,4,num_8,16,num_8,1.48340014333,,,2017_Nov_30_1152,60.0050809253,MAFE4ImagesEEG,001,102379,
AFNE01.JPG,AFNE01.JPG,AFNE01.JPG,AFNE01.JPG,AFNE01.JPG,AFNE01.JPG,,,,,,,,,,,,,4,1,41,0,,,,,,,,,,,AFNE01.jpg,AFSA03.jpg,AFNE19.jpg,AFSA11.jpg,AFNE19.jpg,FN,3,num_2,32,num_6,0.983464932535,,,2017_Nov_30_1152,60.0050809253,MAFE4ImagesEEG,001,102379,
AFNE01.JPG,AFNE01.JPG,AFNE01.JPG,AFNE01.JPG,AFNE01.JPG,AFNE01.JPG,,,,,,,,,,,,,4,2,42,4,,,,,,,,,,,AFNE20.jpg,AFSA02.jpg,AFSA03.jpg,AFNE04.jpg,AFNE20.jpg,FN,3,num_8,32,num_6,1.0671502772,,,2017_Nov_30_1152,60.0050809253,MAFE4ImagesEEG,001,102379,
AFNE01.JPG,AFNE01.JPG,AFNE01.JPG,AFNE01.JPG,AFNE01.JPG,AFNE01.JPG,,,,,,,,,,,,,4,3,43,1,,,,,,,,,,,AFNE02.jpg,AFSA20.jpg,AFSA01.jpg,AFNE09.jpg,AFSA20.jpg,FS,4,num_6,16,num_6,0.750201584538,,,2017_Nov_30_1152,60.0050809253,MAFE4ImagesEEG,001,102379,
AFNE01.JPG,AFNE01.JPG,AFNE01.JPG,AFNE01.JPG,AFNE01.JPG,AFNE01.JPG,,,,,,,,,,,,,4,4,44,9,,,,,,,,,,,AFNE05.jpg,AFSA14.jpg,AFNE18.jpg,AFSA13.jpg,AFSA14.jpg,FS,4,num_6,32,num_4,0.933419355541,,,2017_Nov_30_1152,60.0050809253,MAFE4ImagesEEG,001,102379,
AFNE01.JPG,AFNE01.JPG,AFNE01.JPG,AFNE01.JPG,AFNE01.JPG,AFNE01.JPG,,,,,,,,,,,,,4,5,45,6,,,,,,,,,,,AFNE12.jpg,AFSA07.jpg,AFNE19.jpg,AFSA04.jpg,AFNE19.jpg,FN,3,num_2,32,num_8,0.783443314838,,,2017_Nov_30_1152,60.0050809253,MAFE4ImagesEEG,001,102379,
AFNE01.JPG,AFNE01.JPG,AFNE01.JPG,AFNE01.JPG,AFNE01.JPG,AFNE01.JPG,,,,,,,,,,,,,4,6,46,7,,,,,,,,,,,AFSA17.jpg,AFNE02.jpg,AFNE03.jpg,AFSA14.jpg,AFSA14.jpg,FS,4,num_4,16,num_4,0.833503645845,,,2017_Nov_30_1152,60.0050809253,MAFE4ImagesEEG,001,102379,
AFNE01.JPG,AFNE01.JPG,AFNE01.JPG,AFNE01.JPG,AFNE01.JPG,AFNE01.JPG,,,,,,,,,,,,,4,7,47,2,,,,,,,,,,,AFNE18.jpg,AFSA17.jpg,AFSA05.jpg,AFNE12.jpg,AFNE12.jpg,FN,3,num_4,16,num_4,1.21671769628,,,2017_Nov_30_1152,60.0050809253,MAFE4ImagesEEG,001,102379,
AFNE01.JPG,AFNE01.JPG,AFNE01.JPG,AFNE01.JPG,AFNE01.JPG,AFNE01.JPG,,,,,,,,,,,,,4,8,48,3,,,,,,,,,,,AFNE15.jpg,AFSA04.jpg,AFSA10.jpg,AFNE12.jpg,AFNE12.jpg,FN,3,num_4,16,num_4,1.55005423701,,,2017_Nov_30_1152,60.0050809253,MAFE4ImagesEEG,001,102379,
AFNE01.JPG,AFNE01.JPG,AFNE01.JPG,AFNE01.JPG,AFNE01.JPG,AFNE01.JPG,,,,,,,,,,,,,4,9,49,5,,,,,,,,,,,AFSA02.jpg,AFSA13.jpg,AFNE13.jpg,AFNE14.jpg,AFNE14.jpg,FN,3,num_4,16,num_4,1.01677305589,,,2017_Nov_30_1152,60.0050809253,MAFE4ImagesEEG,001,102379,
AFNE01.JPG,AFNE01.JPG,AFNE01.JPG,AFNE01.JPG,AFNE01.JPG,AFNE01.JPG,,,,,,,,,,,,,5,0,50,9,,,,,,,,,,,AFNE11.jpg,AFSA16.jpg,AFNE19.jpg,AFSA19.jpg,AFSA19.jpg,FS,4,num_4,16,num_4,0.616827324964,,,2017_Nov_30_1152,60.0050809253,MAFE4ImagesEEG,001,102379,
AFNE01.JPG,AFNE01.JPG,AFNE01.JPG,AFNE01.JPG,AFNE01.JPG,AFNE01.JPG,,,,,,,,,,,,,5,1,51,5,,,,,,,,,,,AFSA20.jpg,AFNE11.jpg,AFNE15.jpg,AFSA17.jpg,AFNE15.jpg,FN,3,num_2,32,num_4,0.966779117822,,,2017_Nov_30_1152,60.0050809253,MAFE4ImagesEEG,001,102379,
AFNE01.JPG,AFNE01.JPG,AFNE01.JPG,AFNE01.JPG,AFNE01.JPG,AFNE01.JPG,,,,,,,,,,,,,5,2,52,1,,,,,,,,,,,AFSA18.jpg,AFNE01.jpg,AFNE18.jpg,AFSA06.jpg,AFSA06.jpg,FS,4,num_4,16,num_4,1.25006911927,,,2017_Nov_30_1152,60.0050809253,MAFE4ImagesEEG,001,102379,
AFNE01.JPG,AFNE01.JPG,AFNE01.JPG,AFNE01.JPG,AFNE01.JPG,AFNE01.JPG,,,,,,,,,,,,,5,3,53,4,,,,,,,,,,,AFNE02.jpg,AFSA08.jpg,AFSA18.jpg,AFNE15.jpg,AFNE02.jpg,FN,3,num_8,32,num_4,1.36675692268,,,2017_Nov_30_1152,60.0050809253,MAFE4ImagesEEG,001,102379,
AFNE01.JPG,AFNE01.JPG,AFNE01.JPG,AFNE01.JPG,AFNE01.JPG,AFNE01.JPG,,,,,,,,,,,,,5,4,54,2,,,,,,,,,,,AFNE14.jpg,AFSA13.jpg,AFSA09.jpg,AFNE05.jpg,AFNE05.jpg,FN,3,num_4,16,num_4,1.10013220867,,,2017_Nov_30_1152,60.0050809253,MAFE4ImagesEEG,001,102379,
AFNE01.JPG,AFNE01.JPG,AFNE01.JPG,AFNE01.JPG,AFNE01.JPG,AFNE01.JPG,,,,,,,,,,,,,5,5,55,7,,,,,,,,,,,AFNE08.jpg,AFSA14.jpg,AFSA05.jpg,AFNE09.jpg,AFNE09.jpg,FN,3,num_4,32,num_8,0.783482124214,,,2017_Nov_30_1152,60.0050809253,MAFE4ImagesEEG,001,102379,
AFNE01.JPG,AFNE01.JPG,AFNE01.JPG,AFNE01.JPG,AFNE01.JPG,AFNE01.JPG,,,,,,,,,,,,,5,6,56,6,,,,,,,,,,,AFSA08.jpg,AFSA02.jpg,AFNE15.jpg,AFNE06.jpg,AFSA08.jpg,FS,4,num_8,16,num_8,0.466803494026,,,2017_Nov_30_1152,60.0050809253,MAFE4ImagesEEG,001,102379,
AFNE01.JPG,AFNE01.JPG,AFNE01.JPG,AFNE01.JPG,AFNE01.JPG,AFNE01.JPG,,,,,,,,,,,,,5,7,57,3,,,,,,,,,,,AFNE02.jpg,AFNE08.jpg,AFSA06.jpg,AFSA17.jpg,AFNE02.jpg,FN,3,num_8,32,num_4,2.10002668551,,,2017_Nov_30_1152,60.0050809253,MAFE4ImagesEEG,001,102379,
AFNE01.JPG,AFNE01.JPG,AFNE01.JPG,AFNE01.JPG,AFNE01.JPG,AFNE01.JPG,,,,,,,,,,,,,5,8,58,8,,,,,,,,,,,AFSA08.jpg,AFNE05.jpg,AFNE09.jpg,AFSA14.jpg,AFSA14.jpg,FS,4,num_4,16,num_4,0.800160882878,,,2017_Nov_30_1152,60.0050809253,MAFE4ImagesEEG,001,102379,
AFNE01.JPG,AFNE01.JPG,AFNE01.JPG,AFNE01.JPG,AFNE01.JPG,AFNE01.JPG,,,,,,,,,,,,,5,9,59,0,,,,,,,,,,,AFNE16.jpg,AFSA18.jpg,AFSA02.jpg,AFNE14.jpg,AFNE14.jpg,FN,3,num_4,16,num_4,0.666788868373,,,2017_Nov_30_1152,60.0050809253,MAFE4ImagesEEG,001,102379,
,,,,,,,,,,,,,,,,,,,,,,,,,,,,,,,,,,,,,,,,,,,space,6.99962698028,2017_Nov_30_1152,60.0050809253,MAFE4ImagesEEG,001,102379,
AFNE01.JPG,AFNE01.JPG,AFNE01.JPG,AFNE01.JPG,AFNE01.JPG,AFNE01.JPG,,,,,,,,,,,,,,,,,0,0,0,2,,,,,,,AMSA04.jpg,AMNE15.jpg,AMSA11.jpg,AMNE02.jpg,AMSA11.jpg,MS,2,num_2,16,num_2,0.716488047037,,,2017_Nov_30_1152,60.0050809253,MAFE4ImagesEEG,001,102379,
AFNE01.JPG,AFNE01.JPG,AFNE01.JPG,AFNE01.JPG,AFNE01.JPG,AFNE01.JPG,,,,,,,,,,,,,,,,,0,1,1,3,,,,,,,AMNE08.jpg,AMSA13.jpg,AMNE07.jpg,AMSA02.jpg,AMSA13.jpg,MS,2,num_6,32,num_4,0.666788226808,,,2017_Nov_30_1152,60.0050809253,MAFE4ImagesEEG,001,102379,
AFNE01.JPG,AFNE01.JPG,AFNE01.JPG,AFNE01.JPG,AFNE01.JPG,AFNE01.JPG,,,,,,,,,,,,,,,,,0,2,2,7,,,,,,,AMSA08.jpg,AMNE06.jpg,AMNE20.jpg,AMSA04.jpg,AMSA04.jpg,MS,2,num_4,16,num_4,0.650092148338,,,2017_Nov_30_1152,60.0050809253,MAFE4ImagesEEG,001,102379,
AFNE01.JPG,AFNE01.JPG,AFNE01.JPG,AFNE01.JPG,AFNE01.JPG,AFNE01.JPG,,,,,,,,,,,,,,,,,0,3,3,5,,,,,,,AMNE04.jpg,AMNE12.jpg,AMSA01.jpg,AMSA20.jpg,AMSA20.jpg,MS,2,num_4,16,num_4,0.700142536545,,,2017_Nov_30_1152,60.0050809253,MAFE4ImagesEEG,001,102379,
AFNE01.JPG,AFNE01.JPG,AFNE01.JPG,AFNE01.JPG,AFNE01.JPG,AFNE01.JPG,,,,,,,,,,,,,,,,,0,4,4,8,,,,,,,AMSA11.jpg,AMNE12.jpg,AMSA18.jpg,AMNE19.jpg,AMNE19.jpg,MN,1,num_4,32,num_6,1.01677305589,,,2017_Nov_30_1152,60.0050809253,MAFE4ImagesEEG,001,102379,
AFNE01.JPG,AFNE01.JPG,AFNE01.JPG,AFNE01.JPG,AFNE01.JPG,AFNE01.JPG,,,,,,,,,,,,,,,,,0,5,5,1,,,,,,,AMSA11.jpg,AMSA05.jpg,AMNE04.jpg,AMNE03.jpg,AMSA11.jpg,MS,2,num_8,16,num_8,0.700138366898,,,2017_Nov_30_1152,60.0050809253,MAFE4ImagesEEG,001,102379,
AFNE01.JPG,AFNE01.JPG,AFNE01.JPG,AFNE01.JPG,AFNE01.JPG,AFNE01.JPG,,,,,,,,,,,,,,,,,0,6,6,6,,,,,,,AMNE02.jpg,AMNE03.jpg,AMSA09.jpg,AMSA18.jpg,AMSA09.jpg,MS,2,num_2,16,num_2,0.816824566573,,,2017_Nov_30_1152,60.0050809253,MAFE4ImagesEEG,001,102379,
AFNE01.JPG,AFNE01.JPG,AFNE01.JPG,AFNE01.JPG,AFNE01.JPG,AFNE01.JPG,,,,,,,,,,,,,,,,,0,7,7,0,,,,,,,AMSA17.jpg,AMNE08.jpg,AMSA03.jpg,AMNE07.jpg,AMSA17.jpg,MS,2,num_8,16,num_8,0.783425032743,,,2017_Nov_30_1152,60.0050809253,MAFE4ImagesEEG,001,102379,
AFNE01.JPG,AFNE01.JPG,AFNE01.JPG,AFNE01.JPG,AFNE01.JPG,AFNE01.JPG,,,,,,,,,,,,,,,,,0,8,8,4,,,,,,,AMNE15.jpg,AMSA15.jpg,AMNE10.jpg,AMSA10.jpg,AMSA15.jpg,MS,2,num_6,16,num_6,0.616836305591,,,2017_Nov_30_1152,60.0050809253,MAFE4ImagesEEG,001,102379,
AFNE01.JPG,AFNE01.JPG,AFNE01.JPG,AFNE01.JPG,AFNE01.JPG,AFNE01.JPG,,,,,,,,,,,,,,,,,0,9,9,9,,,,,,,AMSA04.jpg,AMNE14.jpg,AMNE04.jpg,AMSA16.jpg,AMSA04.jpg,MS,2,num_8,32,num_2,1.08344158286,,,2017_Nov_30_1152,60.0050809253,MAFE4ImagesEEG,001,102379,
AFNE01.JPG,AFNE01.JPG,AFNE01.JPG,AFNE01.JPG,AFNE01.JPG,AFNE01.JPG,,,,,,,,,,,,,,,,,1,0,10,7,,,,,,,AMNE03.jpg,AMSA15.jpg,AMSA11.jpg,AMNE01.jpg,AMNE01.jpg,MN,1,num_4,16,num_4,0.850209987955,,,2017_Nov_30_1152,60.0050809253,MAFE4ImagesEEG,001,102379,
AFNE01.JPG,AFNE01.JPG,AFNE01.JPG,AFNE01.JPG,AFNE01.JPG,AFNE01.JPG,,,,,,,,,,,,,,,,,1,1,11,9,,,,,,,AMNE09.jpg,AMNE18.jpg,AMSA10.jpg,AMSA07.jpg,AMSA07.jpg,MS,2,num_4,16,num_4,0.71679371153,,,2017_Nov_30_1152,60.0050809253,MAFE4ImagesEEG,001,102379,
AFNE01.JPG,AFNE01.JPG,AFNE01.JPG,AFNE01.JPG,AFNE01.JPG,AFNE01.JPG,,,,,,,,,,,,,,,,,1,2,12,1,,,,,,,AMSA11.jpg,AMNE01.jpg,AMSA17.jpg,AMNE13.jpg,AMSA17.jpg,MS,2,num_2,16,num_2,0.83334520075,,,2017_Nov_30_1152,60.0050809253,MAFE4ImagesEEG,001,102379,
AFNE01.JPG,AFNE01.JPG,AFNE01.JPG,AFNE01.JPG,AFNE01.JPG,AFNE01.JPG,,,,,,,,,,,,,,,,,1,3,13,8,,,,,,,AMSA06.jpg,AMSA08.jpg,AMNE13.jpg,AMNE06.jpg,AMSA06.jpg,MS,2,num_8,16,num_8,0.75014288933,,,2017_Nov_30_1152,60.0050809253,MAFE4ImagesEEG,001,102379,
AFNE01.JPG,AFNE01.JPG,AFNE01.JPG,AFNE01.JPG,AFNE01.JPG,AFNE01.JPG,,,,,,,,,,,,,,,,,1,4,14,4,,,,,,,AMSA18.jpg,AMNE15.jpg,AMNE01.jpg,AMSA12.jpg,AMNE15.jpg,MN,1,num_6,16,num_6,0.633471764391,,,2017_Nov_30_1152,60.0050809253,MAFE4ImagesEEG,001,102379,
AFNE01.JPG,AFNE01.JPG,AFNE01.JPG,AFNE01.JPG,AFNE01.JPG,AFNE01.JPG,,,,,,,,,,,,,,,,,1,5,15,5,,,,,,,AMNE12.jpg,AMNE17.jpg,AMSA04.jpg,AMSA08.jpg,AMSA08.jpg,MS,2,num_4,16,num_4,1.00039258483,,,2017_Nov_30_1152,60.0050809253,MAFE4ImagesEEG,001,102379,
AFNE01.JPG,AFNE01.JPG,AFNE01.JPG,AFNE01.JPG,AFNE01.JPG,AFNE01.JPG,,,,,,,,,,,,,,,,,1,6,16,6,,,,,,,AMNE10.jpg,AMSA20.jpg,AMNE08.jpg,AMSA06.jpg,AMNE08.jpg,MN,1,num_2,32,num_6,0.616770874825,,,2017_Nov_30_1152,60.0050809253,MAFE4ImagesEEG,001,102379,
AFNE01.JPG,AFNE01.JPG,AFNE01.JPG,AFNE01.JPG,AFNE01.JPG,AFNE01.JPG,,,,,,,,,,,,,,,,,1,7,17,0,,,,,,,AMNE10.jpg,AMNE13.jpg,AMSA20.jpg,AMSA19.jpg,AMNE10.jpg,MN,1,num_8,32,num_2,0.650143466657,,,2017_Nov_30_1152,60.0050809253,MAFE4ImagesEEG,001,102379,
AFNE01.JPG,AFNE01.JPG,AFNE01.JPG,AFNE01.JPG,AFNE01.JPG,AFNE01.JPG,,,,,,,,,,,,,,,,,1,8,18,3,,,,,,,AMNE19.jpg,AMNE03.jpg,AMSA13.jpg,AMSA15.jpg,AMSA15.jpg,MS,2,num_4,32,num_2,0.966735818074,,,2017_Nov_30_1152,60.0050809253,MAFE4ImagesEEG,001,102379,
AFNE01.JPG,AFNE01.JPG,AFNE01.JPG,AFNE01.JPG,AFNE01.JPG,AFNE01.JPG,,,,,,,,,,,,,,,,,1,9,19,2,,,,,,,AMSA08.jpg,AMSA20.jpg,AMNE10.jpg,AMNE01.jpg,AMNE01.jpg,MN,1,num_4,16,num_4,0.499991339981,,,2017_Nov_30_1152,60.0050809253,MAFE4ImagesEEG,001,102379,
AFNE01.JPG,AFNE01.JPG,AFNE01.JPG,AFNE01.JPG,AFNE01.JPG,AFNE01.JPG,,,,,,,,,,,,,,,,,2,0,20,2,,,,,,,AMSA20.jpg,AMNE02.jpg,AMNE13.jpg,AMSA15.jpg,AMNE02.jpg,MN,1,num_6,32,num_2,0.883450114401,,,2017_Nov_30_1152,60.0050809253,MAFE4ImagesEEG,001,102379,
AFNE01.JPG,AFNE01.JPG,AFNE01.JPG,AFNE01.JPG,AFNE01.JPG,AFNE01.JPG,,,,,,,,,,,,,,,,,2,1,21,1,,,,,,,AMSA01.jpg,AMNE08.jpg,AMNE20.jpg,AMSA16.jpg,AMNE20.jpg,MN,1,num_2,16,num_2,0.800117262173,,,2017_Nov_30_1152,60.0050809253,MAFE4ImagesEEG,001,102379,
AFNE01.JPG,AFNE01.JPG,AFNE01.JPG,AFNE01.JPG,AFNE01.JPG,AFNE01.JPG,,,,,,,,,,,,,,,,,2,2,22,4,,,,,,,AMSA19.jpg,AMSA04.jpg,AMNE02.jpg,AMNE17.jpg,AMNE02.jpg,MN,1,num_2,32,num_6,1.25008323183,,,2017_Nov_30_1152,60.0050809253,MAFE4ImagesEEG,001,102379,
AFNE01.JPG,AFNE01.JPG,AFNE01.JPG,AFNE01.JPG,AFNE01.JPG,AFNE01.JPG,,,,,,,,,,,,,,,,,2,3,23,7,,,,,,,AMSA10.jpg,AMNE09.jpg,AMSA09.jpg,AMNE01.jpg,AMNE01.jpg,MN,1,num_4,16,num_4,0.866516368347,,,2017_Nov_30_1152,60.0050809253,MAFE4ImagesEEG,001,102379,
AFNE01.JPG,AFNE01.JPG,AFNE01.JPG,AFNE01.JPG,AFNE01.JPG,AFNE01.JPG,,,,,,,,,,,,,,,,,2,4,24,3,,,,,,,AMNE19.jpg,AMNE17.jpg,AMSA14.jpg,AMSA17.jpg,AMNE17.jpg,MN,1,num_6,16,num_6,1.03342294786,,,2017_Nov_30_1152,60.0050809253,MAFE4ImagesEEG,001,102379,
AFNE01.JPG,AFNE01.JPG,AFNE01.JPG,AFNE01.JPG,AFNE01.JPG,AFNE01.JPG,,,,,,,,,,,,,,,,,2,5,25,9,,,,,,,AMSA11.jpg,AMNE12.jpg,AMNE04.jpg,AMSA13.jpg,AMNE04.jpg,MN,1,num_2,32,num_4,0.700211816118,,,2017_Nov_30_1152,60.0050809253,MAFE4ImagesEEG,001,102379,
AFNE01.JPG,AFNE01.JPG,AFNE01.JPG,AFNE01.JPG,AFNE01.JPG,AFNE01.JPG,,,,,,,,,,,,,,,,,2,6,26,8,,,,,,,AMSA15.jpg,AMNE06.jpg,AMNE01.jpg,AMSA01.jpg,AMNE06.jpg,MN,1,num_6,32,num_4,0.683489757823,,,2017_Nov_30_1152,60.0050809253,MAFE4ImagesEEG,001,102379,
AFNE01.JPG,AFNE01.JPG,AFNE01.JPG,AFNE01.JPG,AFNE01.JPG,AFNE01.JPG,,,,,,,,,,,,,,,,,2,7,27,6,,,,,,,AMNE01.jpg,AMNE13.jpg,AMSA04.jpg,AMSA10.jpg,AMNE01.jpg,MN,1,num_8,32,num_6,0.866751149297,,,2017_Nov_30_1152,60.0050809253,MAFE4ImagesEEG,001,102379,
AFNE01.JPG,AFNE01.JPG,AFNE01.JPG,AFNE01.JPG,AFNE01.JPG,AFNE01.JPG,,,,,,,,,,,,,,,,,2,8,28,5,,,,,,,AMSA13.jpg,AMNE16.jpg,AMSA06.jpg,AMNE17.jpg,AMSA06.jpg,MS,2,num_2,32,num_8,0.616806476959,,,2017_Nov_30_1152,60.0050809253,MAFE4ImagesEEG,001,102379,
AFNE01.JPG,AFNE01.JPG,AFNE01.JPG,AFNE01.JPG,AFNE01.JPG,AFNE01.JPG,,,,,,,,,,,,,,,,,2,9,29,0,,,,,,,AMNE06.jpg,AMSA09.jpg,AMNE15.jpg,AMSA13.jpg,AMNE06.jpg,MN,1,num_8,32,num_2,1.1500892617,,,2017_Nov_30_1152,60.0050809253,MAFE4ImagesEEG,001,102379,
AFNE01.JPG,AFNE01.JPG,AFNE01.JPG,AFNE01.JPG,AFNE01.JPG,AFNE01.JPG,,,,,,,,,,,,,,,,,3,0,30,6,,,,,,,AMNE17.jpg,AMNE12.jpg,AMSA09.jpg,AMSA13.jpg,AMNE17.jpg,MN,1,num_8,32,num_6,0.86677135597,,,2017_Nov_30_1152,60.0050809253,MAFE4ImagesEEG,001,102379,
AFNE01.JPG,AFNE01.JPG,AFNE01.JPG,AFNE01.JPG,AFNE01.JPG,AFNE01.JPG,,,,,,,,,,,,,,,,,3,1,31,4,,,,,,,AMNE07.jpg,AMSA12.jpg,AMSA14.jpg,AMNE20.jpg,AMSA12.jpg,MS,2,num_6,16,num_6,0.76663529838,,,2017_Nov_30_1152,60.0050809253,MAFE4ImagesEEG,001,102379,
AFNE01.JPG,AFNE01.JPG,AFNE01.JPG,AFNE01.JPG,AFNE01.JPG,AFNE01.JPG,,,,,,,,,,,,,,,,,3,2,32,8,,,,,,,AMNE20.jpg,AMSA17.jpg,AMNE18.jpg,AMSA01.jpg,AMNE20.jpg,MN,1,num_8,16,num_8,0.716803012998,,,2017_Nov_30_1152,60.0050809253,MAFE4ImagesEEG,001,102379,
AFNE01.JPG,AFNE01.JPG,AFNE01.JPG,AFNE01.JPG,AFNE01.JPG,AFNE01.JPG,,,,,,,,,,,,,,,,,3,3,33,7,,,,,,,AMNE11.jpg,AMNE19.jpg,AMSA13.jpg,AMSA06.jpg,AMNE19.jpg,MN,1,num_6,32,num_2,0.733442962053,,,2017_Nov_30_1152,60.0050809253,MAFE4ImagesEEG,001,102379,
AFNE01.JPG,AFNE01.JPG,AFNE01.JPG,AFNE01.JPG,AFNE01.JPG,AFNE01.JPG,,,,,,,,,,,,,,,,,3,4,34,9,,,,,,,AMNE02.jpg,AMSA09.jpg,AMSA14.jpg,AMNE06.jpg,AMNE06.jpg,MN,1,num_4,16,num_4,0.716790183331,,,2017_Nov_30_1152,60.0050809253,MAFE4ImagesEEG,001,102379,
AFNE01.JPG,AFNE01.JPG,AFNE01.JPG,AFNE01.JPG,AFNE01.JPG,AFNE01.JPG,,,,,,,,,,,,,,,,,3,5,35,5,,,,,,,AMSA18.jpg,AMNE19.jpg,AMSA17.jpg,AMNE10.jpg,AMNE19.jpg,MN,1,num_6,16,num_6,0.783475068049,,,2017_Nov_30_1152,60.0050809253,MAFE4ImagesEEG,001,102379,
AFNE01.JPG,AFNE01.JPG,AFNE01.JPG,AFNE01.JPG,AFNE01.JPG,AFNE01.JPG,,,,,,,,,,,,,,,,,3,6,36,2,,,,,,,AMSA13.jpg,AMSA18.jpg,AMNE01.jpg,AMNE19.jpg,AMSA13.jpg,MS,2,num_8,16,num_8,0.800148694776,,,2017_Nov_30_1152,60.0050809253,MAFE4ImagesEEG,001,102379,
AFNE01.JPG,AFNE01.JPG,AFNE01.JPG,AFNE01.JPG,AFNE01.JPG,AFNE01.JPG,,,,,,,,,,,,,,,,,3,7,37,3,,,,,,,AMSA06.jpg,AMNE09.jpg,AMSA09.jpg,AMNE06.jpg,AMNE06.jpg,MN,1,num_4,16,num_4,1.01677754615,,,2017_Nov_30_1152,60.0050809253,MAFE4ImagesEEG,001,102379,
AFNE01.JPG,AFNE01.JPG,AFNE01.JPG,AFNE01.JPG,AFNE01.JPG,AFNE01.JPG,,,,,,,,,,,,,,,,,3,8,38,1,,,,,,,AMNE06.jpg,AMSA14.jpg,AMSA12.jpg,AMNE09.jpg,AMNE06.jpg,MN,1,num_8,32,num_4,0.783435937832,,,2017_Nov_30_1152,60.0050809253,MAFE4ImagesEEG,001,102379,
AFNE01.JPG,AFNE01.JPG,AFNE01.JPG,AFNE01.JPG,AFNE01.JPG,AFNE01.JPG,,,,,,,,,,,,,,,,,3,9,39,0,,,,,,,AMNE12.jpg,AMSA02.jpg,AMSA09.jpg,AMNE14.jpg,AMSA02.jpg,MS,2,num_6,32,num_8,2.26660418662,,,2017_Nov_30_1152,60.0050809253,MAFE4ImagesEEG,001,102379,
AFNE01.JPG,AFNE01.JPG,AFNE01.JPG,AFNE01.JPG,AFNE01.JPG,AFNE01.JPG,,,,,,,,,,,,,,,,,4,0,40,6,,,,,,,AMSA18.jpg,AMNE14.jpg,AMNE05.jpg,AMSA08.jpg,AMNE05.jpg,MN,1,num_2,32,num_4,0.816750155063,,,2017_Nov_30_1152,60.0050809253,MAFE4ImagesEEG,001,102379,
AFNE01.JPG,AFNE01.JPG,AFNE01.JPG,AFNE01.JPG,AFNE01.JPG,AFNE01.JPG,,,,,,,,,,,,,,,,,4,1,41,0,,,,,,,AMSA18.jpg,AMNE18.jpg,AMNE15.jpg,AMSA02.jpg,AMNE18.jpg,MN,1,num_6,16,num_6,1.03339408129,,,2017_Nov_30_1152,60.0050809253,MAFE4ImagesEEG,001,102379,
AFNE01.JPG,AFNE01.JPG,AFNE01.JPG,AFNE01.JPG,AFNE01.JPG,AFNE01.JPG,,,,,,,,,,,,,,,,,4,2,42,1,,,,,,,AMNE13.jpg,AMSA20.jpg,AMSA18.jpg,AMNE20.jpg,AMNE13.jpg,MN,1,num_8,16,num_8,1.05005584075,,,2017_Nov_30_1152,60.0050809253,MAFE4ImagesEEG,001,102379,
AFNE01.JPG,AFNE01.JPG,AFNE01.JPG,AFNE01.JPG,AFNE01.JPG,AFNE01.JPG,,,,,,,,,,,,,,,,,4,3,43,9,,,,,,,AMSA02.jpg,AMNE10.jpg,AMSA11.jpg,AMNE13.jpg,AMSA11.jpg,MS,2,num_2,16,num_2,1.11809199955,,,2017_Nov_30_1152,60.0050809253,MAFE4ImagesEEG,001,102379,
AFNE01.JPG,AFNE01.JPG,AFNE01.JPG,AFNE01.JPG,AFNE01.JPG,AFNE01.JPG,,,,,,,,,,,,,,,,,4,4,44,8,,,,,,,AMSA16.jpg,AMSA12.jpg,AMNE20.jpg,AMNE02.jpg,AMNE02.jpg,MN,1,num_4,16,num_4,0.550285810721,,,2017_Nov_30_1152,60.0050809253,MAFE4ImagesEEG,001,102379,
AFNE01.JPG,AFNE01.JPG,AFNE01.JPG,AFNE01.JPG,AFNE01.JPG,AFNE01.JPG,,,,,,,,,,,,,,,,,4,5,45,7,,,,,,,AMNE12.jpg,AMNE06.jpg,AMSA09.jpg,AMSA10.jpg,AMNE06.jpg,MN,1,num_6,32,num_8,1.05011646042,,,2017_Nov_30_1152,60.0050809253,MAFE4ImagesEEG,001,102379,
AFNE01.JPG,AFNE01.JPG,AFNE01.JPG,AFNE01.JPG,AFNE01.JPG,AFNE01.JPG,,,,,,,,,,,,,,,,,4,6,46,4,,,,,,,AMNE14.jpg,AMSA05.jpg,AMNE03.jpg,AMSA03.jpg,AMSA03.jpg,MS,2,num_4,16,num_4,1.15006552706,,,2017_Nov_30_1152,60.0050809253,MAFE4ImagesEEG,001,102379,
AFNE01.JPG,AFNE01.JPG,AFNE01.JPG,AFNE01.JPG,AFNE01.JPG,AFNE01.JPG,,,,,,,,,,,,,,,,,4,7,47,5,,,,,,,AMNE07.jpg,AMSA12.jpg,AMSA16.jpg,AMNE11.jpg,AMNE11.jpg,MN,1,num_4,32,num_6,0.716778957401,,,2017_Nov_30_1152,60.0050809253,MAFE4ImagesEEG,001,102379,
AFNE01.JPG,AFNE01.JPG,AFNE01.JPG,AFNE01.JPG,AFNE01.JPG,AFNE01.JPG,,,,,,,,,,,,,,,,,4,8,48,2,,,,,,,AMNE11.jpg,AMSA09.jpg,AMNE13.jpg,AMSA14.jpg,AMSA14.jpg,MS,2,num_4,16,num_4,0.500145936385,,,2017_Nov_30_1152,60.0050809253,MAFE4ImagesEEG,001,102379,
AFNE01.JPG,AFNE01.JPG,AFNE01.JPG,AFNE01.JPG,AFNE01.JPG,AFNE01.JPG,,,,,,,,,,,,,,,,,4,9,49,3,,,,,,,AMNE14.jpg,AMSA09.jpg,AMNE19.jpg,AMSA06.jpg,AMNE19.jpg,MN,1,num_2,16,num_2,0.633542968542,,,2017_Nov_30_1152,60.0050809253,MAFE4ImagesEEG,001,102379,
AFNE01.JPG,AFNE01.JPG,AFNE01.JPG,AFNE01.JPG,AFNE01.JPG,AFNE01.JPG,,,,,,,,,,,,,,,,,5,0,50,4,,,,,,,AMSA19.jpg,AMNE04.jpg,AMSA07.jpg,AMNE03.jpg,AMNE04.jpg,MN,1,num_6,32,num_4,0.750120758312,,,2017_Nov_30_1152,60.0050809253,MAFE4ImagesEEG,001,102379,
AFNE01.JPG,AFNE01.JPG,AFNE01.JPG,AFNE01.JPG,AFNE01.JPG,AFNE01.JPG,,,,,,,,,,,,,,,,,5,1,51,1,,,,,,,AMSA02.jpg,AMNE15.jpg,AMSA11.jpg,AMNE02.jpg,AMNE02.jpg,MN,1,num_4,32,num_2,0.550181249739,,,2017_Nov_30_1152,60.0050809253,MAFE4ImagesEEG,001,102379,
AFNE01.JPG,AFNE01.JPG,AFNE01.JPG,AFNE01.JPG,AFNE01.JPG,AFNE01.JPG,,,,,,,,,,,,,,,,,5,2,52,5,,,,,,,AMSA09.jpg,AMNE06.jpg,AMSA14.jpg,AMNE19.jpg,AMNE06.jpg,MN,1,num_6,16,num_6,1.10009788966,,,2017_Nov_30_1152,60.0050809253,MAFE4ImagesEEG,001,102379,
AFNE01.JPG,AFNE01.JPG,AFNE01.JPG,AFNE01.JPG,AFNE01.JPG,AFNE01.JPG,,,,,,,,,,,,,,,,,5,3,53,6,,,,,,,AMSA10.jpg,AMSA15.jpg,AMNE10.jpg,AMNE18.jpg,AMSA10.jpg,MS,2,num_8,16,num_8,1.16684916732,,,2017_Nov_30_1152,60.0050809253,MAFE4ImagesEEG,001,102379,
AFNE01.JPG,AFNE01.JPG,AFNE01.JPG,AFNE01.JPG,AFNE01.JPG,AFNE01.JPG,,,,,,,,,,,,,,,,,5,4,54,9,,,,,,,AMSA18.jpg,AMSA09.jpg,AMNE08.jpg,AMNE03.jpg,AMNE03.jpg,MN,1,num_4,16,num_4,1.18342560995,,,2017_Nov_30_1152,60.0050809253,MAFE4ImagesEEG,001,102379,
AFNE01.JPG,AFNE01.JPG,AFNE01.JPG,AFNE01.JPG,AFNE01.JPG,AFNE01.JPG,,,,,,,,,,,,,,,,,5,5,55,2,,,,,,,AMSA11.jpg,AMSA12.jpg,AMNE01.jpg,AMNE10.jpg,AMNE01.jpg,MN,1,num_2,16,num_2,0.750157643342,,,2017_Nov_30_1152,60.0050809253,MAFE4ImagesEEG,001,102379,
AFNE01.JPG,AFNE01.JPG,AFNE01.JPG,AFNE01.JPG,AFNE01.JPG,AFNE01.JPG,,,,,,,,,,,,,,,,,5,6,56,3,,,,,,,AMNE09.jpg,AMSA19.jpg,AMNE08.jpg,AMSA14.jpg,AMSA14.jpg,MS,2,num_4,16,num_4,0.533480360173,,,2017_Nov_30_1152,60.0050809253,MAFE4ImagesEEG,001,102379,
AFNE01.JPG,AFNE01.JPG,AFNE01.JPG,AFNE01.JPG,AFNE01.JPG,AFNE01.JPG,,,,,,,,,,,,,,,,,5,7,57,7,,,,,,,AMSA02.jpg,AMNE15.jpg,AMSA18.jpg,AMNE03.jpg,AMSA02.jpg,MS,2,num_8,16,num_8,0.766480060644,,,2017_Nov_30_1152,60.0050809253,MAFE4ImagesEEG,001,102379,
AFNE01.JPG,AFNE01.JPG,AFNE01.JPG,AFNE01.JPG,AFNE01.JPG,AFNE01.JPG,,,,,,,,,,,,,,,,,5,8,58,0,,,,,,,AMSA11.jpg,AMNE11.jpg,AMNE03.jpg,AMSA12.jpg,AMNE03.jpg,MN,1,num_2,32,num_6,0.950104849646,,,2017_Nov_30_1152,60.0050809253,MAFE4ImagesEEG,001,102379,
AFNE01.JPG,AFNE01.JPG,AFNE01.JPG,AFNE01.JPG,AFNE01.JPG,AFNE01.JPG,,,,,,,,,,,,,,,,,5,9,59,8,,,,,,,AMSA09.jpg,AMNE09.jpg,AMSA19.jpg,AMNE02.jpg,AMNE09.jpg,MN,1,num_6,16,num_6,1.23343815096,,,2017_Nov_30_1152,60.0050809253,MAFE4ImagesEEG,001,102379,
,,,,,,,,,,,,,,,,,,,,,,,,,,,,,,,,,,,,,,,,,,,space,5.85016380146,2017_Nov_30_1152,60.0050809253,MAFE4ImagesEEG,001,102379,
AFNE01.JPG,AFNE01.JPG,AFNE01.JPG,AFNE01.JPG,AFNE01.JPG,AFNE01.JPG,,,,,,,,,,,,,,,,,,,,,0,0,0,6,,,AFNE01.jpg,AFNE19.jpg,AFSA12.jpg,AFSA16.jpg,AFNE19.jpg,FN,3,num_6,16,num_6,0.716782485601,,,2017_Nov_30_1152,60.0050809253,MAFE4ImagesEEG,001,102379,
AFNE01.JPG,AFNE01.JPG,AFNE01.JPG,AFNE01.JPG,AFNE01.JPG,AFNE01.JPG,,,,,,,,,,,,,,,,,,,,,0,1,1,7,,,AFSA13.jpg,AFNE18.jpg,AFSA06.jpg,AFNE02.jpg,AFSA13.jpg,FS,4,num_8,32,num_2,0.633484593942,,,2017_Nov_30_1152,60.0050809253,MAFE4ImagesEEG,001,102379,
AFNE01.JPG,AFNE01.JPG,AFNE01.JPG,AFNE01.JPG,AFNE01.JPG,AFNE01.JPG,,,,,,,,,,,,,,,,,,,,,0,2,2,4,,,AFSA01.jpg,AFNE02.jpg,AFNE14.jpg,AFSA15.jpg,AFSA01.jpg,FS,4,num_8,16,num_8,0.650072262506,,,2017_Nov_30_1152,60.0050809253,MAFE4ImagesEEG,001,102379,
AFNE01.JPG,AFNE01.JPG,AFNE01.JPG,AFNE01.JPG,AFNE01.JPG,AFNE01.JPG,,,,,,,,,,,,,,,,,,,,,0,3,3,2,,,AFNE12.jpg,AFSA13.jpg,AFNE03.jpg,AFSA03.jpg,AFNE03.jpg,FN,3,num_2,32,num_4,0.833459383808,,,2017_Nov_30_1152,60.0050809253,MAFE4ImagesEEG,001,102379,
AFNE01.JPG,AFNE01.JPG,AFNE01.JPG,AFNE01.JPG,AFNE01.JPG,AFNE01.JPG,,,,,,,,,,,,,,,,,,,,,0,4,4,0,,,AFNE04.jpg,AFNE06.jpg,AFSA09.jpg,AFSA03.jpg,AFSA03.jpg,FS,4,num_4,16,num_4,1.25008291111,,,2017_Nov_30_1152,60.0050809253,MAFE4ImagesEEG,001,102379,
AFNE01.JPG,AFNE01.JPG,AFNE01.JPG,AFNE01.JPG,AFNE01.JPG,AFNE01.JPG,,,,,,,,,,,,,,,,,,,,,0,5,5,1,,,AFNE02.jpg,AFSA07.jpg,AFSA18.jpg,AFNE01.jpg,AFSA07.jpg,FS,4,num_6,32,num_2,0.683441005414,,,2017_Nov_30_1152,60.0050809253,MAFE4ImagesEEG,001,102379,
AFNE01.JPG,AFNE01.JPG,AFNE01.JPG,AFNE01.JPG,AFNE01.JPG,AFNE01.JPG,,,,,,,,,,,,,,,,,,,,,0,6,6,8,,,AFSA15.jpg,AFNE02.jpg,AFSA20.jpg,AFNE09.jpg,AFSA15.jpg,FS,4,num_8,16,num_8,1.11678691185,,,2017_Nov_30_1152,60.0050809253,MAFE4ImagesEEG,001,102379,
AFNE01.JPG,AFNE01.JPG,AFNE01.JPG,AFNE01.JPG,AFNE01.JPG,AFNE01.JPG,,,,,,,,,,,,,,,,,,,,,0,7,7,5,,,AFSA10.jpg,AFNE16.jpg,AFSA16.jpg,AFNE06.jpg,AFSA10.jpg,FS,4,num_8,16,num_8,1.23312735453,,,2017_Nov_30_1152,60.0050809253,MAFE4ImagesEEG,001,102379,
AFNE01.JPG,AFNE01.JPG,AFNE01.JPG,AFNE01.JPG,AFNE01.JPG,AFNE01.JPG,,,,,,,,,,,,,,,,,,,,,0,8,8,9,,,AFNE10.jpg,AFNE19.jpg,AFSA02.jpg,AFSA19.jpg,AFNE19.jpg,FN,3,num_6,32,num_4,0.583475581137,,,2017_Nov_30_1152,60.0050809253,MAFE4ImagesEEG,001,102379,
AFNE01.JPG,AFNE01.JPG,AFNE01.JPG,AFNE01.JPG,AFNE01.JPG,AFNE01.JPG,,,,,,,,,,,,,,,,,,,,,0,9,9,3,,,AFSA05.jpg,AFSA18.jpg,AFNE15.jpg,AFNE18.jpg,AFSA05.jpg,FS,4,num_8,16,num_8,1.40007883764,,,2017_Nov_30_1152,60.0050809253,MAFE4ImagesEEG,001,102379,
AFNE01.JPG,AFNE01.JPG,AFNE01.JPG,AFNE01.JPG,AFNE01.JPG,AFNE01.JPG,,,,,,,,,,,,,,,,,,,,,1,0,10,9,,,AFNE16.jpg,AFNE20.jpg,AFSA03.jpg,AFSA17.jpg,AFSA17.jpg,FS,4,num_4,32,num_2,0.950109981466,,,2017_Nov_30_1152,60.0050809253,MAFE4ImagesEEG,001,102379,
AFNE01.JPG,AFNE01.JPG,AFNE01.JPG,AFNE01.JPG,AFNE01.JPG,AFNE01.JPG,,,,,,,,,,,,,,,,,,,,,1,1,11,2,,,AFSA03.jpg,AFNE14.jpg,AFSA16.jpg,AFNE11.jpg,AFSA03.jpg,FS,4,num_8,16,num_8,0.983463970362,,,2017_Nov_30_1152,60.0050809253,MAFE4ImagesEEG,001,102379,
AFNE01.JPG,AFNE01.JPG,AFNE01.JPG,AFNE01.JPG,AFNE01.JPG,AFNE01.JPG,,,,,,,,,,,,,,,,,,,,,1,2,12,6,,,AFSA19.jpg,AFNE15.jpg,AFNE09.jpg,AFSA10.jpg,AFNE15.jpg,FN,3,num_6,32,num_2,1.68342625152,,,2017_Nov_30_1152,60.0050809253,MAFE4ImagesEEG,001,102379,
AFNE01.JPG,AFNE01.JPG,AFNE01.JPG,AFNE01.JPG,AFNE01.JPG,AFNE01.JPG,,,,,,,,,,,,,,,,,,,,,1,3,13,0,,,AFSA20.jpg,AFNE16.jpg,AFSA04.jpg,AFNE07.jpg,AFSA20.jpg,FS,4,num_8,16,num_8,1.01677818771,,,2017_Nov_30_1152,60.0050809253,MAFE4ImagesEEG,001,102379,
AFNE01.JPG,AFNE01.JPG,AFNE01.JPG,AFNE01.JPG,AFNE01.JPG,AFNE01.JPG,,,,,,,,,,,,,,,,,,,,,1,4,14,8,,,AFNE05.jpg,AFSA15.jpg,AFSA06.jpg,AFNE17.jpg,AFNE05.jpg,FN,3,num_8,32,num_4,0.883410984301,,,2017_Nov_30_1152,60.0050809253,MAFE4ImagesEEG,001,102379,
AFNE01.JPG,AFNE01.JPG,AFNE01.JPG,AFNE01.JPG,AFNE01.JPG,AFNE01.JPG,,,,,,,,,,,,,,,,,,,,,1,5,15,3,,,AFSA06.jpg,AFNE18.jpg,AFSA10.jpg,AFNE05.jpg,AFSA10.jpg,FS,4,num_2,16,num_2,0.933453674661,,,2017_Nov_30_1152,60.0050809253,MAFE4ImagesEEG,001,102379,
AFNE01.JPG,AFNE01.JPG,AFNE01.JPG,AFNE01.JPG,AFNE01.JPG,AFNE01.JPG,,,,,,,,,,,,,,,,,,,,,1,6,16,5,,,AFSA01.jpg,AFNE15.jpg,AFNE11.jpg,AFSA09.jpg,AFSA01.jpg,FS,4,num_8,32,num_6,1.1501367311,,,2017_Nov_30_1152,60.0050809253,MAFE4ImagesEEG,001,102379,
AFNE01.JPG,AFNE01.JPG,AFNE01.JPG,AFNE01.JPG,AFNE01.JPG,AFNE01.JPG,,,,,,,,,,,,,,,,,,,,,1,7,17,1,,,AFSA01.jpg,AFSA08.jpg,AFNE03.jpg,AFNE16.jpg,AFSA08.jpg,FS,4,num_6,32,num_8,1.15011395863,,,2017_Nov_30_1152,60.0050809253,MAFE4ImagesEEG,001,102379,
AFNE01.JPG,AFNE01.JPG,AFNE01.JPG,AFNE01.JPG,AFNE01.JPG,AFNE01.JPG,,,,,,,,,,,,,,,,,,,,,1,8,18,7,,,AFNE16.jpg,AFSA20.jpg,AFNE18.jpg,AFSA02.jpg,AFSA20.jpg,FS,4,num_6,32,num_2,2.38333593134,,,2017_Nov_30_1152,60.0050809253,MAFE4ImagesEEG,001,102379,
AFNE01.JPG,AFNE01.JPG,AFNE01.JPG,AFNE01.JPG,AFNE01.JPG,AFNE01.JPG,,,,,,,,,,,,,,,,,,,,,1,9,19,4,,,AFSA11.jpg,AFNE08.jpg,AFNE10.jpg,AFSA12.jpg,AFSA11.jpg,FS,4,num_8,32,num_4,1.23345386714,,,2017_Nov_30_1152,60.0050809253,MAFE4ImagesEEG,001,102379,
AFNE01.JPG,AFNE01.JPG,AFNE01.JPG,AFNE01.JPG,AFNE01.JPG,AFNE01.JPG,,,,,,,,,,,,,,,,,,,,,2,0,20,9,,,AFNE10.jpg,AFNE02.jpg,AFSA01.jpg,AFSA13.jpg,AFSA13.jpg,FS,4,num_4,32,num_2,0.917056204402,,,2017_Nov_30_1152,60.0050809253,MAFE4ImagesEEG,001,102379,
AFNE01.JPG,AFNE01.JPG,AFNE01.JPG,AFNE01.JPG,AFNE01.JPG,AFNE01.JPG,,,,,,,,,,,,,,,,,,,,,2,1,21,4,,,AFNE10.jpg,AFSA19.jpg,AFNE05.jpg,AFSA10.jpg,AFNE10.jpg,FN,3,num_8,32,num_2,0.850203252397,,,2017_Nov_30_1152,60.0050809253,MAFE4ImagesEEG,001,102379,
AFNE01.JPG,AFNE01.JPG,AFNE01.JPG,AFNE01.JPG,AFNE01.JPG,AFNE01.JPG,,,,,,,,,,,,,,,,,,,,,2,2,22,7,,,AFSA09.jpg,AFSA02.jpg,AFNE18.jpg,AFNE03.jpg,AFSA02.jpg,FS,4,num_6,16,num_6,0.850107351434,,,2017_Nov_30_1152,60.0050809253,MAFE4ImagesEEG,001,102379,
AFNE01.JPG,AFNE01.JPG,AFNE01.JPG,AFNE01.JPG,AFNE01.JPG,AFNE01.JPG,,,,,,,,,,,,,,,,,,,,,2,3,23,8,,,AFSA01.jpg,AFSA06.jpg,AFNE09.jpg,AFNE11.jpg,AFNE11.jpg,FN,3,num_4,16,num_4,0.566689054249,,,2017_Nov_30_1152,60.0050809253,MAFE4ImagesEEG,001,102379,
AFNE01.JPG,AFNE01.JPG,AFNE01.JPG,AFNE01.JPG,AFNE01.JPG,AFNE01.JPG,,,,,,,,,,,,,,,,,,,,,2,4,24,3,,,AFSA13.jpg,AFSA04.jpg,AFNE05.jpg,AFNE02.jpg,AFSA04.jpg,FS,4,num_6,16,num_6,0.900093591656,,,2017_Nov_30_1152,60.0050809253,MAFE4ImagesEEG,001,102379,
AFNE01.JPG,AFNE01.JPG,AFNE01.JPG,AFNE01.JPG,AFNE01.JPG,AFNE01.JPG,,,,,,,,,,,,,,,,,,,,,2,5,25,6,,,AFSA20.jpg,AFSA07.jpg,AFNE08.jpg,AFNE05.jpg,AFSA07.jpg,FS,4,num_6,32,num_8,0.833466119366,,,2017_Nov_30_1152,60.0050809253,MAFE4ImagesEEG,001,102379,
AFNE01.JPG,AFNE01.JPG,AFNE01.JPG,AFNE01.JPG,AFNE01.JPG,AFNE01.JPG,,,,,,,,,,,,,,,,,,,,,2,6,26,0,,,AFSA12.jpg,AFNE05.jpg,AFSA06.jpg,AFNE03.jpg,AFSA12.jpg,FS,4,num_8,16,num_8,2.28334581002,,,2017_Nov_30_1152,60.0050809253,MAFE4ImagesEEG,001,102379,
AFNE01.JPG,AFNE01.JPG,AFNE01.JPG,AFNE01.JPG,AFNE01.JPG,AFNE01.JPG,,,,,,,,,,,,,,,,,,,,,2,7,27,1,,,AFSA17.jpg,AFNE09.jpg,AFSA08.jpg,AFNE01.jpg,AFSA17.jpg,FS,4,num_8,16,num_8,0.683458966902,,,2017_Nov_30_1152,60.0050809253,MAFE4ImagesEEG,001,102379,
AFNE01.JPG,AFNE01.JPG,AFNE01.JPG,AFNE01.JPG,AFNE01.JPG,AFNE01.JPG,,,,,,,,,,,,,,,,,,,,,2,8,28,2,,,AFNE18.jpg,AFSA06.jpg,AFNE12.jpg,AFSA13.jpg,AFNE12.jpg,FN,3,num_2,32,num_4,0.733489469159,,,2017_Nov_30_1152,60.0050809253,MAFE4ImagesEEG,001,102379,
AFNE01.JPG,AFNE01.JPG,AFNE01.JPG,AFNE01.JPG,AFNE01.JPG,AFNE01.JPG,,,,,,,,,,,,,,,,,,,,,2,9,29,5,,,AFNE14.jpg,AFNE10.jpg,AFSA02.jpg,AFSA12.jpg,AFNE10.jpg,FN,3,num_6,32,num_8,1.03328342631,,,2017_Nov_30_1152,60.0050809253,MAFE4ImagesEEG,001,102379,
AFNE01.JPG,AFNE01.JPG,AFNE01.JPG,AFNE01.JPG,AFNE01.JPG,AFNE01.JPG,,,,,,,,,,,,,,,,,,,,,3,0,30,5,,,AFNE18.jpg,AFSA07.jpg,AFSA13.jpg,AFNE20.jpg,AFNE18.jpg,FN,3,num_8,16,num_8,0.850132369087,,,2017_Nov_30_1152,60.0050809253,MAFE4ImagesEEG,001,102379,
AFNE01.JPG,AFNE01.JPG,AFNE01.JPG,AFNE01.JPG,AFNE01.JPG,AFNE01.JPG,,,,,,,,,,,,,,,,,,,,,3,1,31,6,,,AFSA14.jpg,AFNE09.jpg,AFNE03.jpg,AFSA06.jpg,AFNE03.jpg,FN,3,num_2,32,num_6,0.783454219927,,,2017_Nov_30_1152,60.0050809253,MAFE4ImagesEEG,001,102379,
AFNE01.JPG,AFNE01.JPG,AFNE01.JPG,AFNE01.JPG,AFNE01.JPG,AFNE01.JPG,,,,,,,,,,,,,,,,,,,,,3,2,32,3,,,AFNE05.jpg,AFSA12.jpg,AFSA02.jpg,AFNE16.jpg,AFSA02.jpg,FS,4,num_2,16,num_2,0.800123677007,,,2017_Nov_30_1152,60.0050809253,MAFE4ImagesEEG,001,102379,
AFNE01.JPG,AFNE01.JPG,AFNE01.JPG,AFNE01.JPG,AFNE01.JPG,AFNE01.JPG,,,,,,,,,,,,,,,,,,,,,3,3,33,7,,,AFNE02.jpg,AFSA01.jpg,AFSA14.jpg,AFNE03.jpg,AFNE02.jpg,FN,3,num_8,32,num_6,0.916775557562,,,2017_Nov_30_1152,60.0050809253,MAFE4ImagesEEG,001,102379,
AFNE01.JPG,AFNE01.JPG,AFNE01.JPG,AFNE01.JPG,AFNE01.JPG,AFNE01.JPG,,,,,,,,,,,,,,,,,,,,,3,4,34,4,,,AFNE18.jpg,AFSA20.jpg,AFNE09.jpg,AFSA17.jpg,AFSA20.jpg,FS,4,num_6,16,num_6,0.63351442269,,,2017_Nov_30_1152,60.0050809253,MAFE4ImagesEEG,001,102379,
AFNE01.JPG,AFNE01.JPG,AFNE01.JPG,AFNE01.JPG,AFNE01.JPG,AFNE01.JPG,,,,,,,,,,,,,,,,,,,,,3,5,35,0,,,AFSA17.jpg,AFSA04.jpg,AFNE20.jpg,AFNE11.jpg,AFNE11.jpg,FN,3,num_4,16,num_4,1.43341646891,,,2017_Nov_30_1152,60.0050809253,MAFE4ImagesEEG,001,102379,
AFNE01.JPG,AFNE01.JPG,AFNE01.JPG,AFNE01.JPG,AFNE01.JPG,AFNE01.JPG,,,,,,,,,,,,,,,,,,,,,3,6,36,8,,,AFSA07.jpg,AFNE05.jpg,AFNE01.jpg,AFSA19.jpg,AFSA07.jpg,FS,4,num_8,16,num_8,1.10014952859,,,2017_Nov_30_1152,60.0050809253,MAFE4ImagesEEG,001,102379,
AFNE01.JPG,AFNE01.JPG,AFNE01.JPG,AFNE01.JPG,AFNE01.JPG,AFNE01.JPG,,,,,,,,,,,,,,,,,,,,,3,7,37,9,,,AFSA19.jpg,AFNE11.jpg,AFNE09.jpg,AFSA05.jpg,AFNE09.jpg,FN,3,num_2,16,num_2,1.216724111,,,2017_Nov_30_1152,60.0050809253,MAFE4ImagesEEG,001,102379,
AFNE01.JPG,AFNE01.JPG,AFNE01.JPG,AFNE01.JPG,AFNE01.JPG,AFNE01.JPG,,,,,,,,,,,,,,,,,,,,,3,8,38,2,,,AFSA12.jpg,AFSA17.jpg,AFNE19.jpg,AFNE03.jpg,AFSA12.jpg,FS,4,num_8,16,num_8,0.550180928898,,,2017_Nov_30_1152,60.0050809253,MAFE4ImagesEEG,001,102379,
