IPosition2,IPosition3,IPosition1,IPosition6,IPosition4,IPosition5,TrialsM1.thisRepN,TrialsM1.thisTrialN,TrialsM1.thisN,TrialsM1.thisIndex,TrialsF1.thisRepN,TrialsF1.thisTrialN,TrialsF1.thisN,TrialsF1.thisIndex,TrialsM2.thisRepN,TrialsM2.thisTrialN,TrialsM2.thisN,TrialsM2.thisIndex,TrialsF2.thisRepN,TrialsF2.thisTrialN,TrialsF2.thisN,TrialsF2.thisIndex,TrialsM3.thisRepN,TrialsM3.thisTrialN,TrialsM3.thisN,TrialsM3.thisIndex,TrialsF3.thisRepN,TrialsF3.thisTrialN,TrialsF3.thisN,TrialsF3.thisIndex,InstrKey_resp.keys,InstrKey_resp.rt,Image0 _Position,Image1 _Position,Image2 _Position,Image3 _Position,Center_image,condition,code,correct_answer,accuracy,Key_Resp.keys,Key_Resp.rt,BreakKey_resp.keys,BreakKey_resp.rt,date,frameRate,expName,session,participant,
,,,,,,,,,,,,,,,,,,,,,,,,,,,,,,space,16.1326629878,,,,,,,,,,,,,,2017_Nov_14_1155,60.0120685678,MAFE4ImagesEEG,001,102330,
AFSA21.JPG,AFNE23.JPG,AFNE21.JPG,AFSA25.JPG,AFNE25.JPG,AFSA23.JPG,0,0,0,4,,,,,,,,,,,,,,,,,,,,,,,AMNE09.jpg,AMSA10.jpg,AMNE16.jpg,AMSA08.jpg,AMSA08.jpg,MS,2,num_4,32,num_2,1.21670122677,,,2017_Nov_14_1155,60.0120685678,MAFE4ImagesEEG,001,102330,
AMSA21.JPG,AMNE22.JPG,AMNE21.JPG,AMSA23.JPG,AMSA22.JPG,AMNE23.JPG,0,1,1,1,,,,,,,,,,,,,,,,,,,,,,,AMNE08.jpg,AMSA08.jpg,AMSA04.jpg,AMNE10.jpg,AMNE10.jpg,MN,1,num_4,16,num_4,1.00025466736,,,2017_Nov_14_1155,60.0120685678,MAFE4ImagesEEG,001,102330,
AFSA21.JPG,AFNE22.JPG,AFNE21.JPG,AFSA23.JPG,AFSA22.JPG,AFNE23.JPG,0,2,2,0,,,,,,,,,,,,,,,,,,,,,,,AMNE19.jpg,AMNE20.jpg,AMSA12.jpg,AMSA02.jpg,AMNE19.jpg,MN,1,num_8,16,num_8,0.816805145703,,,2017_Nov_14_1155,60.0120685678,MAFE4ImagesEEG,001,102330,
AFSA25.JPG,AFNE24.JPG,AFSA24.JPG,AFNE21.JPG,AFSA21.JPG,AFNE25.JPG,0,3,3,2,,,,,,,,,,,,,,,,,,,,,,,AMSA14.jpg,AMNE03.jpg,AMNE16.jpg,AMSA13.jpg,AMNE03.jpg,MN,1,num_6,32,num_4,0.983441823162,,,2017_Nov_14_1155,60.0120685678,MAFE4ImagesEEG,001,102330,
AFNE23.JPG,AFNE24.JPG,AFNE22.JPG,AFSA24.JPG,AFSA22.JPG,AFSA23.JPG,0,4,4,8,,,,,,,,,,,,,,,,,,,,,,,AMSA19.jpg,AMNE20.jpg,AMNE04.jpg,AMSA16.jpg,AMSA16.jpg,MS,2,num_4,32,num_8,0.9167988915,,,2017_Nov_14_1155,60.0120685678,MAFE4ImagesEEG,001,102330,
AMNE23.JPG,AMNE24.JPG,AMNE22.JPG,AMSA24.JPG,AMSA22.JPG,AMSA23.JPG,0,5,5,9,,,,,,,,,,,,,,,,,,,,,,,AMSA03.jpg,AMSA05.jpg,AMNE03.jpg,AMNE19.jpg,AMSA03.jpg,MS,2,num_8,16,num_8,0.633454733528,,,2017_Nov_14_1155,60.0120685678,MAFE4ImagesEEG,001,102330,
AMSA21.JPG,AMNE23.JPG,AMNE21.JPG,AMSA25.JPG,AMNE25.JPG,AMSA23.JPG,0,6,6,5,,,,,,,,,,,,,,,,,,,,,,,AMSA09.jpg,AMNE01.jpg,AMSA15.jpg,AMNE06.jpg,AMNE06.jpg,MN,1,num_4,16,num_4,0.966725522652,,,2017_Nov_14_1155,60.0120685678,MAFE4ImagesEEG,001,102330,
AMNE22.JPG,AMSA24.JPG,AMSA22.JPG,AMNE25.JPG,AMNE24.JPG,AMSA25.JPG,0,7,7,7,,,,,,,,,,,,,,,,,,,,,,,AMSA11.jpg,AMNE20.jpg,AMSA18.jpg,AMNE13.jpg,AMSA18.jpg,MS,2,num_2,16,num_2,1.10013262555,,,2017_Nov_14_1155,60.0120685678,MAFE4ImagesEEG,001,102330,
AMSA25.JPG,AMNE24.JPG,AMSA24.JPG,AMNE26.JPG,AMSA21.JPG,AMNE25.JPG,0,8,8,3,,,,,,,,,,,,,,,,,,,,,,,AMSA06.jpg,AMSA20.jpg,AMNE12.jpg,AMNE08.jpg,AMNE08.jpg,MN,1,num_4,32,num_8,0.616773072165,,,2017_Nov_14_1155,60.0120685678,MAFE4ImagesEEG,001,102330,
AFNE22.JPG,AFSA24.JPG,AFSA22.JPG,AFNE25.JPG,AFNE24.JPG,AFSA25.JPG,0,9,9,6,,,,,,,,,,,,,,,,,,,,,,,AMSA15.jpg,AMNE01.jpg,AMSA14.jpg,AMNE12.jpg,AMSA14.jpg,MS,2,num_2,16,num_2,0.95013783779,,,2017_Nov_14_1155,60.0120685678,MAFE4ImagesEEG,001,102330,
AMNE23.JPG,AMNE24.JPG,AMNE22.JPG,AMSA24.JPG,AMSA22.JPG,AMSA23.JPG,,,,,0,0,0,9,,,,,,,,,,,,,,,,,,,AFSA13.jpg,AFSA03.jpg,AFNE07.jpg,AFNE17.jpg,AFNE07.jpg,FN,3,num_2,16,num_2,0.483461228199,,,2017_Nov_14_1155,60.0120685678,MAFE4ImagesEEG,001,102330,
AMSA21.JPG,AMNE23.JPG,AMNE21.JPG,AMSA25.JPG,AMNE25.JPG,AMSA23.JPG,,,,,0,1,1,5,,,,,,,,,,,,,,,,,,,AFNE15.jpg,AFSA20.jpg,AFSA07.jpg,AFNE16.jpg,AFNE16.jpg,FN,3,num_4,16,num_4,0.566783576272,,,2017_Nov_14_1155,60.0120685678,MAFE4ImagesEEG,001,102330,
AMSA21.JPG,AMNE22.JPG,AMNE21.JPG,AMSA23.JPG,AMSA22.JPG,AMNE23.JPG,,,,,0,2,2,1,,,,,,,,,,,,,,,,,,,AFNE16.jpg,AFNE01.jpg,AFSA09.jpg,AFSA16.jpg,AFNE01.jpg,FN,3,num_6,16,num_6,0.700171435252,,,2017_Nov_14_1155,60.0120685678,MAFE4ImagesEEG,001,102330,
AFSA21.JPG,AFNE23.JPG,AFNE21.JPG,AFSA25.JPG,AFNE25.JPG,AFSA23.JPG,,,,,0,3,3,4,,,,,,,,,,,,,,,,,,,AFNE18.jpg,AFSA08.jpg,AFNE20.jpg,AFSA13.jpg,AFNE20.jpg,FN,3,num_2,32,num_8,0.566787104588,,,2017_Nov_14_1155,60.0120685678,MAFE4ImagesEEG,001,102330,
AMSA25.JPG,AMNE24.JPG,AMSA24.JPG,AMNE26.JPG,AMSA21.JPG,AMNE25.JPG,,,,,0,4,4,3,,,,,,,,,,,,,,,,,,,AFNE14.jpg,AFSA01.jpg,AFSA10.jpg,AFNE06.jpg,AFNE14.jpg,FN,3,num_8,32,num_4,0.850179373752,,,2017_Nov_14_1155,60.0120685678,MAFE4ImagesEEG,001,102330,
AFNE23.JPG,AFNE24.JPG,AFNE22.JPG,AFSA24.JPG,AFSA22.JPG,AFSA23.JPG,,,,,0,5,5,8,,,,,,,,,,,,,,,,,,,AFSA14.jpg,AFNE17.jpg,AFNE04.jpg,AFSA15.jpg,AFNE04.jpg,FN,3,num_2,16,num_2,0.616774996277,,,2017_Nov_14_1155,60.0120685678,MAFE4ImagesEEG,001,102330,
AMNE22.JPG,AMSA24.JPG,AMSA22.JPG,AMNE25.JPG,AMNE24.JPG,AMSA25.JPG,,,,,0,6,6,7,,,,,,,,,,,,,,,,,,,AFNE12.jpg,AFSA18.jpg,AFSA11.jpg,AFNE07.jpg,AFNE07.jpg,FN,3,num_4,16,num_4,0.816803862806,,,2017_Nov_14_1155,60.0120685678,MAFE4ImagesEEG,001,102330,
AFNE22.JPG,AFSA24.JPG,AFSA22.JPG,AFNE25.JPG,AFNE24.JPG,AFSA25.JPG,,,,,0,7,7,6,,,,,,,,,,,,,,,,,,,AFNE10.jpg,AFNE04.jpg,AFSA09.jpg,AFSA12.jpg,AFSA12.jpg,FS,4,num_4,16,num_4,0.750167987309,,,2017_Nov_14_1155,60.0120685678,MAFE4ImagesEEG,001,102330,
AFSA25.JPG,AFNE24.JPG,AFSA24.JPG,AFNE21.JPG,AFSA21.JPG,AFNE25.JPG,,,,,0,8,8,2,,,,,,,,,,,,,,,,,,,AFNE13.jpg,AFSA09.jpg,AFNE11.jpg,AFSA18.jpg,AFSA09.jpg,FS,4,num_6,32,num_4,0.700165661983,,,2017_Nov_14_1155,60.0120685678,MAFE4ImagesEEG,001,102330,
AFSA21.JPG,AFNE22.JPG,AFNE21.JPG,AFSA23.JPG,AFSA22.JPG,AFNE23.JPG,,,,,0,9,9,0,,,,,,,,,,,,,,,,,,,AFSA10.jpg,AFSA09.jpg,AFNE20.jpg,AFNE09.jpg,AFSA09.jpg,FS,4,num_6,32,num_8,0.716842191294,,,2017_Nov_14_1155,60.0120685678,MAFE4ImagesEEG,001,102330,
AMSA25.JPG,AMNE24.JPG,AMSA24.JPG,AMNE26.JPG,AMSA21.JPG,AMNE25.JPG,,,,,,,,,0,0,0,3,,,,,,,,,,,,,,,AMNE11.jpg,AMNE15.jpg,AMSA11.jpg,AMSA08.jpg,AMNE11.jpg,MN,1,num_8,32,num_4,1.03345729923,,,2017_Nov_14_1155,60.0120685678,MAFE4ImagesEEG,001,102330,
AMNE22.JPG,AMSA24.JPG,AMSA22.JPG,AMNE25.JPG,AMNE24.JPG,AMSA25.JPG,,,,,,,,,0,1,1,7,,,,,,,,,,,,,,,AMNE14.jpg,AMSA13.jpg,AMNE11.jpg,AMSA16.jpg,AMSA16.jpg,MS,2,num_4,32,num_8,0.783509499393,,,2017_Nov_14_1155,60.0120685678,MAFE4ImagesEEG,001,102330,
AFSA21.JPG,AFNE23.JPG,AFNE21.JPG,AFSA25.JPG,AFNE25.JPG,AFSA23.JPG,,,,,,,,,0,2,2,4,,,,,,,,,,,,,,,AMSA07.jpg,AMSA01.jpg,AMNE13.jpg,AMNE20.jpg,AMSA01.jpg,MS,2,num_6,16,num_6,0.533512626309,,,2017_Nov_14_1155,60.0120685678,MAFE4ImagesEEG,001,102330,
AMSA21.JPG,AMNE22.JPG,AMNE21.JPG,AMSA23.JPG,AMSA22.JPG,AMNE23.JPG,,,,,,,,,0,3,3,1,,,,,,,,,,,,,,,AMSA17.jpg,AMNE13.jpg,AMSA15.jpg,AMNE06.jpg,AMNE06.jpg,MN,1,num_4,16,num_4,0.550141686574,,,2017_Nov_14_1155,60.0120685678,MAFE4ImagesEEG,001,102330,
AFSA21.JPG,AFNE22.JPG,AFNE21.JPG,AFSA23.JPG,AFSA22.JPG,AFNE23.JPG,,,,,,,,,0,4,4,0,,,,,,,,,,,,,,,AMNE10.jpg,AMNE04.jpg,AMSA19.jpg,AMSA16.jpg,AMSA19.jpg,MS,2,num_2,16,num_2,0.800108089112,,,2017_Nov_14_1155,60.0120685678,MAFE4ImagesEEG,001,102330,
AMNE23.JPG,AMNE24.JPG,AMNE22.JPG,AMSA24.JPG,AMSA22.JPG,AMSA23.JPG,,,,,,,,,0,5,5,9,,,,,,,,,,,,,,,AMNE16.jpg,AMSA11.jpg,AMSA18.jpg,AMNE18.jpg,AMSA18.jpg,MS,2,num_2,16,num_2,0.616777241696,,,2017_Nov_14_1155,60.0120685678,MAFE4ImagesEEG,001,102330,
AFNE23.JPG,AFNE24.JPG,AFNE22.JPG,AFSA24.JPG,AFSA22.JPG,AFSA23.JPG,,,,,,,,,0,6,6,8,,,,,,,,,,,,,,,AMSA09.jpg,AMNE11.jpg,AMNE18.jpg,AMSA19.jpg,AMSA09.jpg,MS,2,num_8,32,num_6,0.800151709467,,,2017_Nov_14_1155,60.0120685678,MAFE4ImagesEEG,001,102330,
AFNE22.JPG,AFSA24.JPG,AFSA22.JPG,AFNE25.JPG,AFNE24.JPG,AFSA25.JPG,,,,,,,,,0,7,7,6,,,,,,,,,,,,,,,AMNE16.jpg,AMSA07.jpg,AMNE05.jpg,AMSA08.jpg,AMNE16.jpg,MN,1,num_8,32,num_2,0.766795764677,,,2017_Nov_14_1155,60.0120685678,MAFE4ImagesEEG,001,102330,
AFSA25.JPG,AFNE24.JPG,AFSA24.JPG,AFNE21.JPG,AFSA21.JPG,AFNE25.JPG,,,,,,,,,0,8,8,2,,,,,,,,,,,,,,,AMNE20.jpg,AMSA08.jpg,AMSA11.jpg,AMNE07.jpg,AMNE20.jpg,MN,1,num_8,32,num_4,1.08344390849,,,2017_Nov_14_1155,60.0120685678,MAFE4ImagesEEG,001,102330,
AMSA21.JPG,AMNE23.JPG,AMNE21.JPG,AMSA25.JPG,AMNE25.JPG,AMSA23.JPG,,,,,,,,,0,9,9,5,,,,,,,,,,,,,,,AMNE09.jpg,AMSA20.jpg,AMSA06.jpg,AMNE08.jpg,AMSA06.jpg,MS,2,num_2,16,num_2,0.566836819053,,,2017_Nov_14_1155,60.0120685678,MAFE4ImagesEEG,001,102330,
AMNE22.JPG,AMSA24.JPG,AMSA22.JPG,AMNE25.JPG,AMNE24.JPG,AMSA25.JPG,,,,,,,,,,,,,0,0,0,7,,,,,,,,,,,AFNE19.jpg,AFNE05.jpg,AFSA15.jpg,AFSA10.jpg,AFNE19.jpg,FN,3,num_8,16,num_8,0.450123564806,,,2017_Nov_14_1155,60.0120685678,MAFE4ImagesEEG,001,102330,
AFSA25.JPG,AFNE24.JPG,AFSA24.JPG,AFNE21.JPG,AFSA21.JPG,AFNE25.JPG,,,,,,,,,,,,,0,1,1,2,,,,,,,,,,,AFNE10.jpg,AFNE15.jpg,AFSA03.jpg,AFSA14.jpg,AFSA14.jpg,FS,4,num_4,16,num_4,0.816795523744,,,2017_Nov_14_1155,60.0120685678,MAFE4ImagesEEG,001,102330,
AMSA21.JPG,AMNE23.JPG,AMNE21.JPG,AMSA25.JPG,AMNE25.JPG,AMSA23.JPG,,,,,,,,,,,,,0,2,2,5,,,,,,,,,,,AFSA12.jpg,AFNE19.jpg,AFSA17.jpg,AFNE04.jpg,AFSA17.jpg,FS,4,num_2,16,num_2,0.983527140226,,,2017_Nov_14_1155,60.0120685678,MAFE4ImagesEEG,001,102330,
AMNE23.JPG,AMNE24.JPG,AMNE22.JPG,AMSA24.JPG,AMSA22.JPG,AMSA23.JPG,,,,,,,,,,,,,0,3,3,9,,,,,,,,,,,AFNE07.jpg,AFSA09.jpg,AFSA10.jpg,AFNE03.jpg,AFNE07.jpg,FN,3,num_8,16,num_8,0.800171274692,,,2017_Nov_14_1155,60.0120685678,MAFE4ImagesEEG,001,102330,
AMSA21.JPG,AMNE22.JPG,AMNE21.JPG,AMSA23.JPG,AMSA22.JPG,AMNE23.JPG,,,,,,,,,,,,,0,4,4,1,,,,,,,,,,,AFNE10.jpg,AFSA08.jpg,AFNE03.jpg,AFSA06.jpg,AFSA06.jpg,FS,4,num_4,16,num_4,0.766767859925,,,2017_Nov_14_1155,60.0120685678,MAFE4ImagesEEG,001,102330,
AFNE23.JPG,AFNE24.JPG,AFNE22.JPG,AFSA24.JPG,AFSA22.JPG,AFSA23.JPG,,,,,,,,,,,,,0,5,5,8,,,,,,,,,,,AFSA01.jpg,AFSA07.jpg,AFNE09.jpg,AFNE05.jpg,AFNE05.jpg,FN,3,num_4,16,num_4,0.550151629839,,,2017_Nov_14_1155,60.0120685678,MAFE4ImagesEEG,001,102330,
AFSA21.JPG,AFNE23.JPG,AFNE21.JPG,AFSA25.JPG,AFNE25.JPG,AFSA23.JPG,,,,,,,,,,,,,0,6,6,4,,,,,,,,,,,AFSA18.jpg,AFNE14.jpg,AFNE17.jpg,AFSA03.jpg,AFNE14.jpg,FN,3,num_6,16,num_6,1.23343388503,,,2017_Nov_14_1155,60.0120685678,MAFE4ImagesEEG,001,102330,
AFSA21.JPG,AFNE22.JPG,AFNE21.JPG,AFSA23.JPG,AFSA22.JPG,AFNE23.JPG,,,,,,,,,,,,,0,7,7,0,,,,,,,,,,,AFNE14.jpg,AFNE01.jpg,AFSA04.jpg,AFSA14.jpg,AFSA04.jpg,FS,4,num_2,16,num_2,1.51673153648,,,2017_Nov_14_1155,60.0120685678,MAFE4ImagesEEG,001,102330,
AMSA25.JPG,AMNE24.JPG,AMSA24.JPG,AMNE26.JPG,AMSA21.JPG,AMNE25.JPG,,,,,,,,,,,,,0,8,8,3,,,,,,,,,,,AFNE09.jpg,AFSA04.jpg,AFSA05.jpg,AFNE05.jpg,AFNE05.jpg,FN,3,num_4,16,num_4,0.550168628804,,,2017_Nov_14_1155,60.0120685678,MAFE4ImagesEEG,001,102330,
AFNE22.JPG,AFSA24.JPG,AFSA22.JPG,AFNE25.JPG,AFNE24.JPG,AFSA25.JPG,,,,,,,,,,,,,0,9,9,6,,,,,,,,,,,AFNE02.jpg,AFNE07.jpg,AFSA17.jpg,AFSA19.jpg,AFNE07.jpg,FN,3,num_6,16,num_6,0.516809154768,,,2017_Nov_14_1155,60.0120685678,MAFE4ImagesEEG,001,102330,
AFSA25.JPG,AFNE24.JPG,AFSA24.JPG,AFNE21.JPG,AFSA21.JPG,AFNE25.JPG,,,,,,,,,,,,,,,,,0,0,0,2,,,,,,,AMSA10.jpg,AMSA14.jpg,AMNE09.jpg,AMNE07.jpg,AMNE07.jpg,MN,1,num_4,16,num_4,0.716618956998,,,2017_Nov_14_1155,60.0120685678,MAFE4ImagesEEG,001,102330,
AMSA21.JPG,AMNE23.JPG,AMNE21.JPG,AMSA25.JPG,AMNE25.JPG,AMSA23.JPG,,,,,,,,,,,,,,,,,0,1,1,5,,,,,,,AMSA02.jpg,AMSA05.jpg,AMNE13.jpg,AMNE07.jpg,AMSA02.jpg,MS,2,num_8,16,num_8,1.10004730942,,,2017_Nov_14_1155,60.0120685678,MAFE4ImagesEEG,001,102330,
AFNE23.JPG,AFNE24.JPG,AFNE22.JPG,AFSA24.JPG,AFSA22.JPG,AFSA23.JPG,,,,,,,,,,,,,,,,,0,2,2,8,,,,,,,AMNE12.jpg,AMSA01.jpg,AMSA19.jpg,AMNE01.jpg,AMNE12.jpg,MN,1,num_8,32,num_2,0.883511584252,,,2017_Nov_14_1155,60.0120685678,MAFE4ImagesEEG,001,102330,
AMSA21.JPG,AMNE22.JPG,AMNE21.JPG,AMSA23.JPG,AMSA22.JPG,AMNE23.JPG,,,,,,,,,,,,,,,,,0,3,3,1,,,,,,,AMNE18.jpg,AMSA04.jpg,AMNE10.jpg,AMSA07.jpg,AMNE18.jpg,MN,1,num_8,16,num_8,0.933491137344,,,2017_Nov_14_1155,60.0120685678,MAFE4ImagesEEG,001,102330,
AFSA21.JPG,AFNE22.JPG,AFNE21.JPG,AFSA23.JPG,AFSA22.JPG,AFNE23.JPG,,,,,,,,,,,,,,,,,0,4,4,0,,,,,,,AMNE13.jpg,AMNE19.jpg,AMSA18.jpg,AMSA15.jpg,AMSA18.jpg,MS,2,num_2,16,num_2,0.866783736739,,,2017_Nov_14_1155,60.0120685678,MAFE4ImagesEEG,001,102330,
AMNE22.JPG,AMSA24.JPG,AMSA22.JPG,AMNE25.JPG,AMNE24.JPG,AMSA25.JPG,,,,,,,,,,,,,,,,,0,5,5,7,,,,,,,AMSA06.jpg,AMNE06.jpg,AMNE13.jpg,AMSA13.jpg,AMNE13.jpg,MN,1,num_2,32,num_6,0.866777001414,,,2017_Nov_14_1155,60.0120685678,MAFE4ImagesEEG,001,102330,
AFNE22.JPG,AFSA24.JPG,AFSA22.JPG,AFNE25.JPG,AFNE24.JPG,AFSA25.JPG,,,,,,,,,,,,,,,,,0,6,6,6,,,,,,,AMNE03.jpg,AMSA19.jpg,AMNE02.jpg,AMSA13.jpg,AMNE02.jpg,MN,1,num_2,16,num_2,0.800007055979,,,2017_Nov_14_1155,60.0120685678,MAFE4ImagesEEG,001,102330,
AMSA25.JPG,AMNE24.JPG,AMSA24.JPG,AMNE26.JPG,AMSA21.JPG,AMNE25.JPG,,,,,,,,,,,,,,,,,0,7,7,3,,,,,,,AMNE18.jpg,AMNE02.jpg,AMSA08.jpg,AMSA19.jpg,AMSA08.jpg,MS,2,num_2,32,num_8,0.883824305143,,,2017_Nov_14_1155,60.0120685678,MAFE4ImagesEEG,001,102330,
AFSA21.JPG,AFNE23.JPG,AFNE21.JPG,AFSA25.JPG,AFNE25.JPG,AFSA23.JPG,,,,,,,,,,,,,,,,,0,8,8,4,,,,,,,AMNE09.jpg,AMNE12.jpg,AMSA11.jpg,AMSA17.jpg,AMNE12.jpg,MN,1,num_6,32,num_2,1.03347686445,,,2017_Nov_14_1155,60.0120685678,MAFE4ImagesEEG,001,102330,
AMNE23.JPG,AMNE24.JPG,AMNE22.JPG,AMSA24.JPG,AMSA22.JPG,AMSA23.JPG,,,,,,,,,,,,,,,,,0,9,9,9,,,,,,,AMNE11.jpg,AMNE01.jpg,AMSA18.jpg,AMSA02.jpg,AMSA02.jpg,MS,2,num_4,32,num_2,0.500281448942,,,2017_Nov_14_1155,60.0120685678,MAFE4ImagesEEG,001,102330,
AFNE22.JPG,AFSA24.JPG,AFSA22.JPG,AFNE25.JPG,AFNE24.JPG,AFSA25.JPG,,,,,,,,,,,,,,,,,,,,,0,0,0,6,,,AFNE14.jpg,AFSA10.jpg,AFNE01.jpg,AFSA19.jpg,AFNE14.jpg,FN,3,num_8,32,num_6,0.833490656223,,,2017_Nov_14_1155,60.0120685678,MAFE4ImagesEEG,001,102330,
AMSA21.JPG,AMNE22.JPG,AMNE21.JPG,AMSA23.JPG,AMSA22.JPG,AMNE23.JPG,,,,,,,,,,,,,,,,,,,,,0,1,1,1,,,AFSA16.jpg,AFNE15.jpg,AFNE10.jpg,AFSA20.jpg,AFSA16.jpg,FS,4,num_8,32,num_4,0.61642218288,,,2017_Nov_14_1155,60.0120685678,MAFE4ImagesEEG,001,102330,
AMSA21.JPG,AMNE23.JPG,AMNE21.JPG,AMSA25.JPG,AMNE25.JPG,AMSA23.JPG,,,,,,,,,,,,,,,,,,,,,0,2,2,5,,,AFSA06.jpg,AFNE14.jpg,AFNE18.jpg,AFSA16.jpg,AFNE14.jpg,FN,3,num_6,16,num_6,0.733472855296,,,2017_Nov_14_1155,60.0120685678,MAFE4ImagesEEG,001,102330,
AMSA25.JPG,AMNE24.JPG,AMSA24.JPG,AMNE26.JPG,AMSA21.JPG,AMNE25.JPG,,,,,,,,,,,,,,,,,,,,,0,3,3,3,,,AFNE13.jpg,AFSA09.jpg,AFNE17.jpg,AFSA10.jpg,AFNE17.jpg,FN,3,num_2,16,num_2,0.983473255765,,,2017_Nov_14_1155,60.0120685678,MAFE4ImagesEEG,001,102330,
AFNE23.JPG,AFNE24.JPG,AFNE22.JPG,AFSA24.JPG,AFSA22.JPG,AFSA23.JPG,,,,,,,,,,,,,,,,,,,,,0,4,4,8,,,AFNE06.jpg,AFNE16.jpg,AFSA07.jpg,AFSA03.jpg,AFNE06.jpg,FN,3,num_8,16,num_8,0.283488811925,,,2017_Nov_14_1155,60.0120685678,MAFE4ImagesEEG,001,102330,
AMNE23.JPG,AMNE24.JPG,AMNE22.JPG,AMSA24.JPG,AMSA22.JPG,AMSA23.JPG,,,,,,,,,,,,,,,,,,,,,0,5,5,9,,,AFNE20.jpg,AFSA18.jpg,AFSA10.jpg,AFNE03.jpg,AFSA10.jpg,FS,4,num_2,32,num_8,1.30012460705,,,2017_Nov_14_1155,60.0120685678,MAFE4ImagesEEG,001,102330,
AMNE22.JPG,AMSA24.JPG,AMSA22.JPG,AMNE25.JPG,AMNE24.JPG,AMSA25.JPG,,,,,,,,,,,,,,,,,,,,,0,6,6,7,,,AFSA10.jpg,AFSA15.jpg,AFNE07.jpg,AFNE16.jpg,AFNE07.jpg,FN,3,num_2,16,num_2,1.36669761781,,,2017_Nov_14_1155,60.0120685678,MAFE4ImagesEEG,001,102330,
AFSA21.JPG,AFNE23.JPG,AFNE21.JPG,AFSA25.JPG,AFNE25.JPG,AFSA23.JPG,,,,,,,,,,,,,,,,,,,,,0,7,7,4,,,AFNE11.jpg,AFSA09.jpg,AFNE16.jpg,AFSA02.jpg,AFSA09.jpg,FS,4,num_6,16,num_6,0.633507013787,,,2017_Nov_14_1155,60.0120685678,MAFE4ImagesEEG,001,102330,
AFSA25.JPG,AFNE24.JPG,AFSA24.JPG,AFNE21.JPG,AFSA21.JPG,AFNE25.JPG,,,,,,,,,,,,,,,,,,,,,0,8,8,2,,,AFSA17.jpg,AFSA11.jpg,AFNE02.jpg,AFNE06.jpg,AFNE06.jpg,FN,3,num_4,16,num_4,0.966806028038,,,2017_Nov_14_1155,60.0120685678,MAFE4ImagesEEG,001,102330,
AFSA21.JPG,AFNE22.JPG,AFNE21.JPG,AFSA23.JPG,AFSA22.JPG,AFNE23.JPG,,,,,,,,,,,,,,,,,,,,,0,9,9,0,,,AFNE10.jpg,AFNE14.jpg,AFSA06.jpg,AFSA01.jpg,AFSA06.jpg,FS,4,num_2,32,num_4,0.483484962955,,,2017_Nov_14_1155,60.0120685678,MAFE4ImagesEEG,001,102330,
,,,,,,,,,,,,,,,,,,,,,,,,,,,,,,,,,,,,,,,,,,,space,24.5312931095,2017_Nov_14_1155,60.0120685678,MAFE4ImagesEEG,001,102330,
AFNE01.JPG,AFNE01.JPG,AFNE01.JPG,AFNE01.JPG,AFNE01.JPG,AFNE01.JPG,0,0,0,6,,,,,,,,,,,,,,,,,,,,,,,AMNE08.jpg,AMNE03.jpg,AMSA08.jpg,AMSA17.jpg,AMNE03.jpg,MN,1,num_6,32,num_4,0.800142728724,,,2017_Nov_14_1155,60.0120685678,MAFE4ImagesEEG,001,102330,
AFNE01.JPG,AFNE01.JPG,AFNE01.JPG,AFNE01.JPG,AFNE01.JPG,AFNE01.JPG,0,1,1,0,,,,,,,,,,,,,,,,,,,,,,,AMNE13.jpg,AMSA13.jpg,AMSA04.jpg,AMNE07.jpg,AMNE07.jpg,MN,1,num_4,16,num_4,0.866776680108,,,2017_Nov_14_1155,60.0120685678,MAFE4ImagesEEG,001,102330,
AFNE01.JPG,AFNE01.JPG,AFNE01.JPG,AFNE01.JPG,AFNE01.JPG,AFNE01.JPG,0,2,2,7,,,,,,,,,,,,,,,,,,,,,,,AMNE01.jpg,AMSA16.jpg,AMSA11.jpg,AMNE15.jpg,AMSA11.jpg,MS,2,num_2,32,num_8,0.66679175524,,,2017_Nov_14_1155,60.0120685678,MAFE4ImagesEEG,001,102330,
AFNE01.JPG,AFNE01.JPG,AFNE01.JPG,AFNE01.JPG,AFNE01.JPG,AFNE01.JPG,0,3,3,4,,,,,,,,,,,,,,,,,,,,,,,AMNE16.jpg,AMSA05.jpg,AMNE19.jpg,AMSA08.jpg,AMSA05.jpg,MS,2,num_6,16,num_6,0.850136715453,,,2017_Nov_14_1155,60.0120685678,MAFE4ImagesEEG,001,102330,
AFNE01.JPG,AFNE01.JPG,AFNE01.JPG,AFNE01.JPG,AFNE01.JPG,AFNE01.JPG,0,4,4,3,,,,,,,,,,,,,,,,,,,,,,,AMSA12.jpg,AMSA10.jpg,AMNE17.jpg,AMNE10.jpg,AMNE10.jpg,MN,1,num_4,16,num_4,0.800181538798,,,2017_Nov_14_1155,60.0120685678,MAFE4ImagesEEG,001,102330,
AFNE01.JPG,AFNE01.JPG,AFNE01.JPG,AFNE01.JPG,AFNE01.JPG,AFNE01.JPG,0,5,5,2,,,,,,,,,,,,,,,,,,,,,,,AMSA09.jpg,AMNE16.jpg,AMNE18.jpg,AMSA03.jpg,AMNE16.jpg,MN,1,num_6,32,num_2,1.15045248345,,,2017_Nov_14_1155,60.0120685678,MAFE4ImagesEEG,001,102330,
AFNE01.JPG,AFNE01.JPG,AFNE01.JPG,AFNE01.JPG,AFNE01.JPG,AFNE01.JPG,0,6,6,9,,,,,,,,,,,,,,,,,,,,,,,AMNE11.jpg,AMSA17.jpg,AMSA03.jpg,AMNE12.jpg,AMNE11.jpg,MN,1,num_8,16,num_8,0.783468765672,,,2017_Nov_14_1155,60.0120685678,MAFE4ImagesEEG,001,102330,
AFNE01.JPG,AFNE01.JPG,AFNE01.JPG,AFNE01.JPG,AFNE01.JPG,AFNE01.JPG,0,7,7,1,,,,,,,,,,,,,,,,,,,,,,,AMSA02.jpg,AMSA09.jpg,AMNE17.jpg,AMNE07.jpg,AMSA02.jpg,MS,2,num_8,16,num_8,0.667023329064,,,2017_Nov_14_1155,60.0120685678,MAFE4ImagesEEG,001,102330,
AFNE01.JPG,AFNE01.JPG,AFNE01.JPG,AFNE01.JPG,AFNE01.JPG,AFNE01.JPG,0,8,8,5,,,,,,,,,,,,,,,,,,,,,,,AMSA04.jpg,AMNE10.jpg,AMNE12.jpg,AMSA20.jpg,AMSA20.jpg,MS,2,num_4,16,num_4,0.566781972535,,,2017_Nov_14_1155,60.0120685678,MAFE4ImagesEEG,001,102330,
AFNE01.JPG,AFNE01.JPG,AFNE01.JPG,AFNE01.JPG,AFNE01.JPG,AFNE01.JPG,0,9,9,8,,,,,,,,,,,,,,,,,,,,,,,AMSA01.jpg,AMNE10.jpg,AMNE12.jpg,AMSA09.jpg,AMSA09.jpg,MS,2,num_4,32,num_2,0.933448158205,,,2017_Nov_14_1155,60.0120685678,MAFE4ImagesEEG,001,102330,
AFNE01.JPG,AFNE01.JPG,AFNE01.JPG,AFNE01.JPG,AFNE01.JPG,AFNE01.JPG,1,0,10,8,,,,,,,,,,,,,,,,,,,,,,,AMNE18.jpg,AMSA20.jpg,AMNE20.jpg,AMSA12.jpg,AMNE20.jpg,MN,1,num_2,16,num_2,0.733498834539,,,2017_Nov_14_1155,60.0120685678,MAFE4ImagesEEG,001,102330,
AFNE01.JPG,AFNE01.JPG,AFNE01.JPG,AFNE01.JPG,AFNE01.JPG,AFNE01.JPG,1,1,11,1,,,,,,,,,,,,,,,,,,,,,,,AMNE17.jpg,AMSA03.jpg,AMNE04.jpg,AMSA05.jpg,AMNE04.jpg,MN,1,num_2,32,num_6,0.633529786486,,,2017_Nov_14_1155,60.0120685678,MAFE4ImagesEEG,001,102330,
AFNE01.JPG,AFNE01.JPG,AFNE01.JPG,AFNE01.JPG,AFNE01.JPG,AFNE01.JPG,1,2,12,7,,,,,,,,,,,,,,,,,,,,,,,AMSA05.jpg,AMNE08.jpg,AMSA02.jpg,AMNE01.jpg,AMNE01.jpg,MN,1,num_4,16,num_4,0.516742761713,,,2017_Nov_14_1155,60.0120685678,MAFE4ImagesEEG,001,102330,
AFNE01.JPG,AFNE01.JPG,AFNE01.JPG,AFNE01.JPG,AFNE01.JPG,AFNE01.JPG,1,3,13,5,,,,,,,,,,,,,,,,,,,,,,,AMNE19.jpg,AMNE05.jpg,AMSA13.jpg,AMSA16.jpg,AMSA16.jpg,MS,2,num_4,16,num_4,1.01676312927,,,2017_Nov_14_1155,60.0120685678,MAFE4ImagesEEG,001,102330,
AFNE01.JPG,AFNE01.JPG,AFNE01.JPG,AFNE01.JPG,AFNE01.JPG,AFNE01.JPG,1,4,14,0,,,,,,,,,,,,,,,,,,,,,,,AMNE18.jpg,AMSA18.jpg,AMNE13.jpg,AMSA10.jpg,AMSA10.jpg,MS,2,num_4,32,num_6,0.633498353884,,,2017_Nov_14_1155,60.0120685678,MAFE4ImagesEEG,001,102330,
AFNE01.JPG,AFNE01.JPG,AFNE01.JPG,AFNE01.JPG,AFNE01.JPG,AFNE01.JPG,1,5,15,6,,,,,,,,,,,,,,,,,,,,,,,AMSA02.jpg,AMNE03.jpg,AMSA17.jpg,AMNE04.jpg,AMSA02.jpg,MS,2,num_8,16,num_8,0.533511343878,,,2017_Nov_14_1155,60.0120685678,MAFE4ImagesEEG,001,102330,
AFNE01.JPG,AFNE01.JPG,AFNE01.JPG,AFNE01.JPG,AFNE01.JPG,AFNE01.JPG,1,6,16,3,,,,,,,,,,,,,,,,,,,,,,,AMSA20.jpg,AMNE16.jpg,AMNE13.jpg,AMSA09.jpg,AMSA09.jpg,MS,2,num_4,16,num_4,0.766788708046,,,2017_Nov_14_1155,60.0120685678,MAFE4ImagesEEG,001,102330,
AFNE01.JPG,AFNE01.JPG,AFNE01.JPG,AFNE01.JPG,AFNE01.JPG,AFNE01.JPG,1,7,17,4,,,,,,,,,,,,,,,,,,,,,,,AMSA09.jpg,AMNE15.jpg,AMSA11.jpg,AMNE19.jpg,AMNE19.jpg,MN,1,num_4,16,num_4,0.900181698613,,,2017_Nov_14_1155,60.0120685678,MAFE4ImagesEEG,001,102330,
AFNE01.JPG,AFNE01.JPG,AFNE01.JPG,AFNE01.JPG,AFNE01.JPG,AFNE01.JPG,1,8,18,9,,,,,,,,,,,,,,,,,,,,,,,AMSA14.jpg,AMSA09.jpg,AMNE17.jpg,AMNE12.jpg,AMNE12.jpg,MN,1,num_4,32,num_6,1.0334489597,,,2017_Nov_14_1155,60.0120685678,MAFE4ImagesEEG,001,102330,
AFNE01.JPG,AFNE01.JPG,AFNE01.JPG,AFNE01.JPG,AFNE01.JPG,AFNE01.JPG,1,9,19,2,,,,,,,,,,,,,,,,,,,,,,,AMSA06.jpg,AMNE09.jpg,AMNE19.jpg,AMSA09.jpg,AMSA06.jpg,MS,2,num_8,32,num_4,0.450178090483,,,2017_Nov_14_1155,60.0120685678,MAFE4ImagesEEG,001,102330,
AFNE01.JPG,AFNE01.JPG,AFNE01.JPG,AFNE01.JPG,AFNE01.JPG,AFNE01.JPG,2,0,20,6,,,,,,,,,,,,,,,,,,,,,,,AMSA18.jpg,AMNE13.jpg,AMSA11.jpg,AMNE04.jpg,AMSA11.jpg,MS,2,num_2,32,num_8,1.68340670224,,,2017_Nov_14_1155,60.0120685678,MAFE4ImagesEEG,001,102330,
AFNE01.JPG,AFNE01.JPG,AFNE01.JPG,AFNE01.JPG,AFNE01.JPG,AFNE01.JPG,2,1,21,8,,,,,,,,,,,,,,,,,,,,,,,AMNE18.jpg,AMSA12.jpg,AMNE01.jpg,AMSA20.jpg,AMNE01.jpg,MN,1,num_2,16,num_2,0.783190684393,,,2017_Nov_14_1155,60.0120685678,MAFE4ImagesEEG,001,102330,
AFNE01.JPG,AFNE01.JPG,AFNE01.JPG,AFNE01.JPG,AFNE01.JPG,AFNE01.JPG,2,2,22,1,,,,,,,,,,,,,,,,,,,,,,,AMNE14.jpg,AMNE17.jpg,AMSA01.jpg,AMSA17.jpg,AMSA17.jpg,MS,2,num_4,32,num_6,0.550094858743,,,2017_Nov_14_1155,60.0120685678,MAFE4ImagesEEG,001,102330,
AFNE01.JPG,AFNE01.JPG,AFNE01.JPG,AFNE01.JPG,AFNE01.JPG,AFNE01.JPG,2,3,23,9,,,,,,,,,,,,,,,,,,,,,,,AMSA07.jpg,AMSA13.jpg,AMNE13.jpg,AMNE04.jpg,AMNE13.jpg,MN,1,num_2,32,num_8,0.933462270536,,,2017_Nov_14_1155,60.0120685678,MAFE4ImagesEEG,001,102330,
AFNE01.JPG,AFNE01.JPG,AFNE01.JPG,AFNE01.JPG,AFNE01.JPG,AFNE01.JPG,2,4,24,5,,,,,,,,,,,,,,,,,,,,,,,AMSA15.jpg,AMNE06.jpg,AMSA10.jpg,AMNE13.jpg,AMSA10.jpg,MS,2,num_2,32,num_8,0.600173199084,,,2017_Nov_14_1155,60.0120685678,MAFE4ImagesEEG,001,102330,
AFNE01.JPG,AFNE01.JPG,AFNE01.JPG,AFNE01.JPG,AFNE01.JPG,AFNE01.JPG,2,5,25,2,,,,,,,,,,,,,,,,,,,,,,,AMNE08.jpg,AMSA11.jpg,AMSA20.jpg,AMNE02.jpg,AMSA20.jpg,MS,2,num_2,16,num_2,0.56683200784,,,2017_Nov_14_1155,60.0120685678,MAFE4ImagesEEG,001,102330,
AFNE01.JPG,AFNE01.JPG,AFNE01.JPG,AFNE01.JPG,AFNE01.JPG,AFNE01.JPG,2,6,26,3,,,,,,,,,,,,,,,,,,,,,,,AMNE04.jpg,AMSA18.jpg,AMNE06.jpg,AMSA02.jpg,AMSA18.jpg,MS,2,num_6,32,num_4,0.550161893014,,,2017_Nov_14_1155,60.0120685678,MAFE4ImagesEEG,001,102330,
AFNE01.JPG,AFNE01.JPG,AFNE01.JPG,AFNE01.JPG,AFNE01.JPG,AFNE01.JPG,2,7,27,0,,,,,,,,,,,,,,,,,,,,,,,AMNE19.jpg,AMSA18.jpg,AMNE03.jpg,AMSA02.jpg,AMNE19.jpg,MN,1,num_8,16,num_8,0.916698500048,,,2017_Nov_14_1155,60.0120685678,MAFE4ImagesEEG,001,102330,
AFNE01.JPG,AFNE01.JPG,AFNE01.JPG,AFNE01.JPG,AFNE01.JPG,AFNE01.JPG,2,8,28,7,,,,,,,,,,,,,,,,,,,,,,,AMSA04.jpg,AMSA13.jpg,AMNE15.jpg,AMNE20.jpg,AMSA04.jpg,MS,2,num_8,16,num_8,0.816777883098,,,2017_Nov_14_1155,60.0120685678,MAFE4ImagesEEG,001,102330,
AFNE01.JPG,AFNE01.JPG,AFNE01.JPG,AFNE01.JPG,AFNE01.JPG,AFNE01.JPG,2,9,29,4,,,,,,,,,,,,,,,,,,,,,,,AMNE07.jpg,AMSA08.jpg,AMNE02.jpg,AMSA17.jpg,AMSA08.jpg,MS,2,num_6,16,num_6,0.91664333269,,,2017_Nov_14_1155,60.0120685678,MAFE4ImagesEEG,001,102330,
AFNE01.JPG,AFNE01.JPG,AFNE01.JPG,AFNE01.JPG,AFNE01.JPG,AFNE01.JPG,3,0,30,6,,,,,,,,,,,,,,,,,,,,,,,AMNE13.jpg,AMNE09.jpg,AMSA02.jpg,AMSA10.jpg,AMNE13.jpg,MN,1,num_8,32,num_6,0.816426352598,,,2017_Nov_14_1155,60.0120685678,MAFE4ImagesEEG,001,102330,
AFNE01.JPG,AFNE01.JPG,AFNE01.JPG,AFNE01.JPG,AFNE01.JPG,AFNE01.JPG,3,1,31,0,,,,,,,,,,,,,,,,,,,,,,,AMNE10.jpg,AMSA10.jpg,AMNE04.jpg,AMSA01.jpg,AMSA01.jpg,MS,2,num_4,16,num_4,0.666770265438,,,2017_Nov_14_1155,60.0120685678,MAFE4ImagesEEG,001,102330,
AFNE01.JPG,AFNE01.JPG,AFNE01.JPG,AFNE01.JPG,AFNE01.JPG,AFNE01.JPG,3,2,32,1,,,,,,,,,,,,,,,,,,,,,,,AMSA05.jpg,AMSA04.jpg,AMNE18.jpg,AMNE20.jpg,AMNE20.jpg,MN,1,num_4,16,num_4,0.666815489531,,,2017_Nov_14_1155,60.0120685678,MAFE4ImagesEEG,001,102330,
AFNE01.JPG,AFNE01.JPG,AFNE01.JPG,AFNE01.JPG,AFNE01.JPG,AFNE01.JPG,3,3,33,5,,,,,,,,,,,,,,,,,,,,,,,AMSA17.jpg,AMNE04.jpg,AMNE12.jpg,AMSA08.jpg,AMSA17.jpg,MS,2,num_8,16,num_8,0.750133988913,,,2017_Nov_14_1155,60.0120685678,MAFE4ImagesEEG,001,102330,
AFNE01.JPG,AFNE01.JPG,AFNE01.JPG,AFNE01.JPG,AFNE01.JPG,AFNE01.JPG,3,4,34,2,,,,,,,,,,,,,,,,,,,,,,,AMNE11.jpg,AMSA19.jpg,AMSA15.jpg,AMNE04.jpg,AMNE11.jpg,MN,1,num_8,32,num_6,0.733435007744,,,2017_Nov_14_1155,60.0120685678,MAFE4ImagesEEG,001,102330,
AFNE01.JPG,AFNE01.JPG,AFNE01.JPG,AFNE01.JPG,AFNE01.JPG,AFNE01.JPG,3,5,35,9,,,,,,,,,,,,,,,,,,,,,,,AMSA20.jpg,AMSA18.jpg,AMNE16.jpg,AMNE09.jpg,AMSA18.jpg,MS,2,num_6,16,num_6,0.566825913731,,,2017_Nov_14_1155,60.0120685678,MAFE4ImagesEEG,001,102330,
AFNE01.JPG,AFNE01.JPG,AFNE01.JPG,AFNE01.JPG,AFNE01.JPG,AFNE01.JPG,3,6,36,4,,,,,,,,,,,,,,,,,,,,,,,AMNE18.jpg,AMNE04.jpg,AMSA12.jpg,AMSA15.jpg,AMNE18.jpg,MN,1,num_8,16,num_8,0.867056365125,,,2017_Nov_14_1155,60.0120685678,MAFE4ImagesEEG,001,102330,
AFNE01.JPG,AFNE01.JPG,AFNE01.JPG,AFNE01.JPG,AFNE01.JPG,AFNE01.JPG,3,7,37,3,,,,,,,,,,,,,,,,,,,,,,,AMSA05.jpg,AMNE07.jpg,AMNE03.jpg,AMSA13.jpg,AMSA05.jpg,MS,2,num_8,32,num_2,0.400201424025,,,2017_Nov_14_1155,60.0120685678,MAFE4ImagesEEG,001,102330,
AFNE01.JPG,AFNE01.JPG,AFNE01.JPG,AFNE01.JPG,AFNE01.JPG,AFNE01.JPG,3,8,38,8,,,,,,,,,,,,,,,,,,,,,,,AMNE14.jpg,AMNE03.jpg,AMSA13.jpg,AMSA04.jpg,AMSA04.jpg,MS,2,num_4,16,num_4,0.616794241127,,,2017_Nov_14_1155,60.0120685678,MAFE4ImagesEEG,001,102330,
AFNE01.JPG,AFNE01.JPG,AFNE01.JPG,AFNE01.JPG,AFNE01.JPG,AFNE01.JPG,3,9,39,7,,,,,,,,,,,,,,,,,,,,,,,AMNE11.jpg,AMSA19.jpg,AMNE07.jpg,AMSA20.jpg,AMNE07.jpg,MN,1,num_2,16,num_2,0.516798891593,,,2017_Nov_14_1155,60.0120685678,MAFE4ImagesEEG,001,102330,
AFNE01.JPG,AFNE01.JPG,AFNE01.JPG,AFNE01.JPG,AFNE01.JPG,AFNE01.JPG,4,0,40,4,,,,,,,,,,,,,,,,,,,,,,,AMSA04.jpg,AMNE15.jpg,AMSA09.jpg,AMNE01.jpg,AMNE15.jpg,MN,1,num_6,16,num_6,0.68345770007,,,2017_Nov_14_1155,60.0120685678,MAFE4ImagesEEG,001,102330,
AFNE01.JPG,AFNE01.JPG,AFNE01.JPG,AFNE01.JPG,AFNE01.JPG,AFNE01.JPG,4,1,41,6,,,,,,,,,,,,,,,,,,,,,,,AMNE16.jpg,AMSA08.jpg,AMNE09.jpg,AMSA11.jpg,AMSA08.jpg,MS,2,num_6,32,num_4,0.883464435581,,,2017_Nov_14_1155,60.0120685678,MAFE4ImagesEEG,001,102330,
AFNE01.JPG,AFNE01.JPG,AFNE01.JPG,AFNE01.JPG,AFNE01.JPG,AFNE01.JPG,4,2,42,2,,,,,,,,,,,,,,,,,,,,,,,AMSA10.jpg,AMNE02.jpg,AMNE03.jpg,AMSA16.jpg,AMSA10.jpg,MS,2,num_8,32,num_4,0.666786944028,,,2017_Nov_14_1155,60.0120685678,MAFE4ImagesEEG,001,102330,
AFNE01.JPG,AFNE01.JPG,AFNE01.JPG,AFNE01.JPG,AFNE01.JPG,AFNE01.JPG,4,3,43,7,,,,,,,,,,,,,,,,,,,,,,,AMSA03.jpg,AMNE12.jpg,AMNE01.jpg,AMSA06.jpg,AMNE12.jpg,MN,1,num_6,32,num_4,1.08343300316,,,2017_Nov_14_1155,60.0120685678,MAFE4ImagesEEG,001,102330,
AFNE01.JPG,AFNE01.JPG,AFNE01.JPG,AFNE01.JPG,AFNE01.JPG,AFNE01.JPG,4,4,44,3,,,,,,,,,,,,,,,,,,,,,,,AMNE06.jpg,AMSA06.jpg,AMSA08.jpg,AMNE14.jpg,AMNE14.jpg,MN,1,num_4,16,num_4,0.666832809802,,,2017_Nov_14_1155,60.0120685678,MAFE4ImagesEEG,001,102330,
AFNE01.JPG,AFNE01.JPG,AFNE01.JPG,AFNE01.JPG,AFNE01.JPG,AFNE01.JPG,4,5,45,1,,,,,,,,,,,,,,,,,,,,,,,AMNE13.jpg,AMSA04.jpg,AMSA14.jpg,AMNE04.jpg,AMSA14.jpg,MS,2,num_2,16,num_2,0.850144733675,,,2017_Nov_14_1155,60.0120685678,MAFE4ImagesEEG,001,102330,
AFNE01.JPG,AFNE01.JPG,AFNE01.JPG,AFNE01.JPG,AFNE01.JPG,AFNE01.JPG,4,6,46,5,,,,,,,,,,,,,,,,,,,,,,,AMSA12.jpg,AMNE19.jpg,AMSA05.jpg,AMNE04.jpg,AMSA05.jpg,MS,2,num_2,16,num_2,1.41683433298,,,2017_Nov_14_1155,60.0120685678,MAFE4ImagesEEG,001,102330,
AFNE01.JPG,AFNE01.JPG,AFNE01.JPG,AFNE01.JPG,AFNE01.JPG,AFNE01.JPG,4,7,47,0,,,,,,,,,,,,,,,,,,,,,,,AMNE11.jpg,AMSA13.jpg,AMSA14.jpg,AMNE08.jpg,AMNE08.jpg,MN,1,num_4,32,num_6,0.800469883252,,,2017_Nov_14_1155,60.0120685678,MAFE4ImagesEEG,001,102330,
AFNE01.JPG,AFNE01.JPG,AFNE01.JPG,AFNE01.JPG,AFNE01.JPG,AFNE01.JPG,4,8,48,9,,,,,,,,,,,,,,,,,,,,,,,AMNE06.jpg,AMSA08.jpg,AMSA04.jpg,AMNE13.jpg,AMNE06.jpg,MN,1,num_8,16,num_8,0.833467563149,,,2017_Nov_14_1155,60.0120685678,MAFE4ImagesEEG,001,102330,
AFNE01.JPG,AFNE01.JPG,AFNE01.JPG,AFNE01.JPG,AFNE01.JPG,AFNE01.JPG,4,9,49,8,,,,,,,,,,,,,,,,,,,,,,,AMSA18.jpg,AMSA04.jpg,AMNE06.jpg,AMNE04.jpg,AMSA18.jpg,MS,2,num_8,32,num_6,0.800135673024,,,2017_Nov_14_1155,60.0120685678,MAFE4ImagesEEG,001,102330,
AFNE01.JPG,AFNE01.JPG,AFNE01.JPG,AFNE01.JPG,AFNE01.JPG,AFNE01.JPG,5,0,50,7,,,,,,,,,,,,,,,,,,,,,,,AMSA12.jpg,AMNE17.jpg,AMSA03.jpg,AMNE09.jpg,AMNE09.jpg,MN,1,num_4,16,num_4,0.90015315311,,,2017_Nov_14_1155,60.0120685678,MAFE4ImagesEEG,001,102330,
AFNE01.JPG,AFNE01.JPG,AFNE01.JPG,AFNE01.JPG,AFNE01.JPG,AFNE01.JPG,5,1,51,0,,,,,,,,,,,,,,,,,,,,,,,AMSA13.jpg,AMNE08.jpg,AMSA11.jpg,AMNE15.jpg,AMNE08.jpg,MN,1,num_6,16,num_6,0.950084915385,,,2017_Nov_14_1155,60.0120685678,MAFE4ImagesEEG,001,102330,
AFNE01.JPG,AFNE01.JPG,AFNE01.JPG,AFNE01.JPG,AFNE01.JPG,AFNE01.JPG,5,2,52,2,,,,,,,,,,,,,,,,,,,,,,,AMNE10.jpg,AMSA16.jpg,AMSA15.jpg,AMNE04.jpg,AMSA16.jpg,MS,2,num_6,16,num_6,0.533481194172,,,2017_Nov_14_1155,60.0120685678,MAFE4ImagesEEG,001,102330,
AFNE01.JPG,AFNE01.JPG,AFNE01.JPG,AFNE01.JPG,AFNE01.JPG,AFNE01.JPG,5,3,53,6,,,,,,,,,,,,,,,,,,,,,,,AMSA06.jpg,AMSA17.jpg,AMNE20.jpg,AMNE19.jpg,AMNE19.jpg,MN,1,num_4,16,num_4,0.700137116015,,,2017_Nov_14_1155,60.0120685678,MAFE4ImagesEEG,001,102330,
AFNE01.JPG,AFNE01.JPG,AFNE01.JPG,AFNE01.JPG,AFNE01.JPG,AFNE01.JPG,5,4,54,1,,,,,,,,,,,,,,,,,,,,,,,AMNE13.jpg,AMNE05.jpg,AMSA11.jpg,AMSA14.jpg,AMNE13.jpg,MN,1,num_8,16,num_8,0.85012773471,,,2017_Nov_14_1155,60.0120685678,MAFE4ImagesEEG,001,102330,
AFNE01.JPG,AFNE01.JPG,AFNE01.JPG,AFNE01.JPG,AFNE01.JPG,AFNE01.JPG,5,5,55,8,,,,,,,,,,,,,,,,,,,,,,,AMSA18.jpg,AMNE12.jpg,AMNE02.jpg,AMSA12.jpg,AMSA12.jpg,MS,2,num_4,32,num_8,1.03343260195,,,2017_Nov_14_1155,60.0120685678,MAFE4ImagesEEG,001,102330,
AFNE01.JPG,AFNE01.JPG,AFNE01.JPG,AFNE01.JPG,AFNE01.JPG,AFNE01.JPG,5,6,56,5,,,,,,,,,,,,,,,,,,,,,,,AMNE06.jpg,AMSA03.jpg,AMSA12.jpg,AMNE03.jpg,AMSA12.jpg,MS,2,num_2,32,num_8,0.783473576419,,,2017_Nov_14_1155,60.0120685678,MAFE4ImagesEEG,001,102330,
AFNE01.JPG,AFNE01.JPG,AFNE01.JPG,AFNE01.JPG,AFNE01.JPG,AFNE01.JPG,5,7,57,3,,,,,,,,,,,,,,,,,,,,,,,AMSA03.jpg,AMNE08.jpg,AMSA05.jpg,AMNE07.jpg,AMSA05.jpg,MS,2,num_2,32,num_4,0.733471892774,,,2017_Nov_14_1155,60.0120685678,MAFE4ImagesEEG,001,102330,
AFNE01.JPG,AFNE01.JPG,AFNE01.JPG,AFNE01.JPG,AFNE01.JPG,AFNE01.JPG,5,8,58,4,,,,,,,,,,,,,,,,,,,,,,,AMNE07.jpg,AMSA19.jpg,AMSA15.jpg,AMNE02.jpg,AMNE02.jpg,MN,1,num_4,16,num_4,0.483520885929,,,2017_Nov_14_1155,60.0120685678,MAFE4ImagesEEG,001,102330,
AFNE01.JPG,AFNE01.JPG,AFNE01.JPG,AFNE01.JPG,AFNE01.JPG,AFNE01.JPG,5,9,59,9,,,,,,,,,,,,,,,,,,,,,,,AMSA07.jpg,AMSA16.jpg,AMNE20.jpg,AMNE02.jpg,AMSA07.jpg,MS,2,num_8,32,num_6,0.633440941572,,,2017_Nov_14_1155,60.0120685678,MAFE4ImagesEEG,001,102330,
,,,,,,,,,,,,,,,,,,,,,,,,,,,,,,,,,,,,,,,,,,,space,25.3984306217,2017_Nov_14_1155,60.0120685678,MAFE4ImagesEEG,001,102330,
AFNE01.JPG,AFNE01.JPG,AFNE01.JPG,AFNE01.JPG,AFNE01.JPG,AFNE01.JPG,,,,,0,0,0,1,,,,,,,,,,,,,,,,,,,AFSA19.jpg,AFNE06.jpg,AFNE16.jpg,AFSA04.jpg,AFSA04.jpg,FS,4,num_4,16,num_4,0.433546785731,,,2017_Nov_14_1155,60.0120685678,MAFE4ImagesEEG,001,102330,
AFNE01.JPG,AFNE01.JPG,AFNE01.JPG,AFNE01.JPG,AFNE01.JPG,AFNE01.JPG,,,,,0,1,1,0,,,,,,,,,,,,,,,,,,,AFNE12.jpg,AFSA08.jpg,AFSA14.jpg,AFNE15.jpg,AFSA08.jpg,FS,4,num_6,16,num_6,0.850183222443,,,2017_Nov_14_1155,60.0120685678,MAFE4ImagesEEG,001,102330,
AFNE01.JPG,AFNE01.JPG,AFNE01.JPG,AFNE01.JPG,AFNE01.JPG,AFNE01.JPG,,,,,0,2,2,4,,,,,,,,,,,,,,,,,,,AFSA13.jpg,AFNE10.jpg,AFSA09.jpg,AFNE03.jpg,AFSA13.jpg,FS,4,num_8,32,num_2,0.900106966496,,,2017_Nov_14_1155,60.0120685678,MAFE4ImagesEEG,001,102330,
AFNE01.JPG,AFNE01.JPG,AFNE01.JPG,AFNE01.JPG,AFNE01.JPG,AFNE01.JPG,,,,,0,3,3,6,,,,,,,,,,,,,,,,,,,AFSA03.jpg,AFNE16.jpg,AFNE14.jpg,AFSA05.jpg,AFNE14.jpg,FN,3,num_2,16,num_2,1.26674813451,,,2017_Nov_14_1155,60.0120685678,MAFE4ImagesEEG,001,102330,
AFNE01.JPG,AFNE01.JPG,AFNE01.JPG,AFNE01.JPG,AFNE01.JPG,AFNE01.JPG,,,,,0,4,4,2,,,,,,,,,,,,,,,,,,,AFSA14.jpg,AFNE19.jpg,AFNE17.jpg,AFSA03.jpg,AFSA03.jpg,FS,4,num_4,16,num_4,0.400135351811,,,2017_Nov_14_1155,60.0120685678,MAFE4ImagesEEG,001,102330,
AFNE01.JPG,AFNE01.JPG,AFNE01.JPG,AFNE01.JPG,AFNE01.JPG,AFNE01.JPG,,,,,0,5,5,3,,,,,,,,,,,,,,,,,,,AFNE05.jpg,AFNE14.jpg,AFSA17.jpg,AFSA16.jpg,AFNE14.jpg,FN,3,num_6,32,num_2,1.39998300094,,,2017_Nov_14_1155,60.0120685678,MAFE4ImagesEEG,001,102330,
AFNE01.JPG,AFNE01.JPG,AFNE01.JPG,AFNE01.JPG,AFNE01.JPG,AFNE01.JPG,,,,,0,6,6,5,,,,,,,,,,,,,,,,,,,AFNE04.jpg,AFNE06.jpg,AFSA05.jpg,AFSA08.jpg,AFNE06.jpg,FN,3,num_6,16,num_6,0.583472614177,,,2017_Nov_14_1155,60.0120685678,MAFE4ImagesEEG,001,102330,
AFNE01.JPG,AFNE01.JPG,AFNE01.JPG,AFNE01.JPG,AFNE01.JPG,AFNE01.JPG,,,,,0,7,7,7,,,,,,,,,,,,,,,,,,,AFNE03.jpg,AFNE13.jpg,AFSA13.jpg,AFSA12.jpg,AFSA12.jpg,FS,4,num_4,16,num_4,0.516828399617,,,2017_Nov_14_1155,60.0120685678,MAFE4ImagesEEG,001,102330,
AFNE01.JPG,AFNE01.JPG,AFNE01.JPG,AFNE01.JPG,AFNE01.JPG,AFNE01.JPG,,,,,0,8,8,9,,,,,,,,,,,,,,,,,,,AFNE02.jpg,AFSA06.jpg,AFNE20.jpg,AFSA08.jpg,AFSA06.jpg,FS,4,num_6,16,num_6,0.983507575002,,,2017_Nov_14_1155,60.0120685678,MAFE4ImagesEEG,001,102330,
AFNE01.JPG,AFNE01.JPG,AFNE01.JPG,AFNE01.JPG,AFNE01.JPG,AFNE01.JPG,,,,,0,9,9,8,,,,,,,,,,,,,,,,,,,AFSA08.jpg,AFSA17.jpg,AFNE05.jpg,AFNE01.jpg,AFSA17.jpg,FS,4,num_6,16,num_6,1.21673843218,,,2017_Nov_14_1155,60.0120685678,MAFE4ImagesEEG,001,102330,
AFNE01.JPG,AFNE01.JPG,AFNE01.JPG,AFNE01.JPG,AFNE01.JPG,AFNE01.JPG,,,,,1,0,10,9,,,,,,,,,,,,,,,,,,,AFSA15.jpg,AFNE15.jpg,AFSA11.jpg,AFNE12.jpg,AFNE15.jpg,FN,3,num_6,32,num_4,0.716743724421,,,2017_Nov_14_1155,60.0120685678,MAFE4ImagesEEG,001,102330,
AFNE01.JPG,AFNE01.JPG,AFNE01.JPG,AFNE01.JPG,AFNE01.JPG,AFNE01.JPG,,,,,1,1,11,6,,,,,,,,,,,,,,,,,,,AFNE17.jpg,AFSA10.jpg,AFNE18.jpg,AFSA01.jpg,AFSA01.jpg,FS,4,num_4,16,num_4,0.61675992189,,,2017_Nov_14_1155,60.0120685678,MAFE4ImagesEEG,001,102330,
AFNE01.JPG,AFNE01.JPG,AFNE01.JPG,AFNE01.JPG,AFNE01.JPG,AFNE01.JPG,,,,,1,2,12,4,,,,,,,,,,,,,,,,,,,AFSA20.jpg,AFNE09.jpg,AFSA07.jpg,AFNE20.jpg,AFSA07.jpg,FS,4,num_2,16,num_2,0.850094056688,,,2017_Nov_14_1155,60.0120685678,MAFE4ImagesEEG,001,102330,
AFNE01.JPG,AFNE01.JPG,AFNE01.JPG,AFNE01.JPG,AFNE01.JPG,AFNE01.JPG,,,,,1,3,13,2,,,,,,,,,,,,,,,,,,,AFSA04.jpg,AFNE11.jpg,AFSA17.jpg,AFNE20.jpg,AFNE11.jpg,FN,3,num_6,16,num_6,1.0335156736,,,2017_Nov_14_1155,60.0120685678,MAFE4ImagesEEG,001,102330,
AFNE01.JPG,AFNE01.JPG,AFNE01.JPG,AFNE01.JPG,AFNE01.JPG,AFNE01.JPG,,,,,1,4,14,7,,,,,,,,,,,,,,,,,,,AFNE17.jpg,AFSA16.jpg,AFNE14.jpg,AFSA04.jpg,AFNE14.jpg,FN,3,num_2,32,num_6,0.800157483201,,,2017_Nov_14_1155,60.0120685678,MAFE4ImagesEEG,001,102330,
AFNE01.JPG,AFNE01.JPG,AFNE01.JPG,AFNE01.JPG,AFNE01.JPG,AFNE01.JPG,,,,,1,5,15,5,,,,,,,,,,,,,,,,,,,AFNE05.jpg,AFSA15.jpg,AFSA17.jpg,AFNE15.jpg,AFNE05.jpg,FN,3,num_8,16,num_8,0.600210404955,,,2017_Nov_14_1155,60.0120685678,MAFE4ImagesEEG,001,102330,
AFNE01.JPG,AFNE01.JPG,AFNE01.JPG,AFNE01.JPG,AFNE01.JPG,AFNE01.JPG,,,,,1,6,16,3,,,,,,,,,,,,,,,,,,,AFSA15.jpg,AFNE17.jpg,AFSA02.jpg,AFNE07.jpg,AFNE17.jpg,FN,3,num_6,16,num_6,1.08342370205,,,2017_Nov_14_1155,60.0120685678,MAFE4ImagesEEG,001,102330,
AFNE01.JPG,AFNE01.JPG,AFNE01.JPG,AFNE01.JPG,AFNE01.JPG,AFNE01.JPG,,,,,1,7,17,1,,,,,,,,,,,,,,,,,,,AFNE01.jpg,AFSA19.jpg,AFNE02.jpg,AFSA14.jpg,AFNE01.jpg,FN,3,num_8,32,num_4,0.616781411227,,,2017_Nov_14_1155,60.0120685678,MAFE4ImagesEEG,001,102330,
AFNE01.JPG,AFNE01.JPG,AFNE01.JPG,AFNE01.JPG,AFNE01.JPG,AFNE01.JPG,,,,,1,8,18,8,,,,,,,,,,,,,,,,,,,AFNE07.jpg,AFSA17.jpg,AFNE03.jpg,AFSA02.jpg,AFNE03.jpg,FN,3,num_2,32,num_8,0.550255869981,,,2017_Nov_14_1155,60.0120685678,MAFE4ImagesEEG,001,102330,
AFNE01.JPG,AFNE01.JPG,AFNE01.JPG,AFNE01.JPG,AFNE01.JPG,AFNE01.JPG,,,,,1,9,19,0,,,,,,,,,,,,,,,,,,,AFSA04.jpg,AFNE11.jpg,AFSA20.jpg,AFNE12.jpg,AFSA04.jpg,FS,4,num_8,32,num_4,0.616779165808,,,2017_Nov_14_1155,60.0120685678,MAFE4ImagesEEG,001,102330,
AFNE01.JPG,AFNE01.JPG,AFNE01.JPG,AFNE01.JPG,AFNE01.JPG,AFNE01.JPG,,,,,2,0,20,0,,,,,,,,,,,,,,,,,,,AFSA03.jpg,AFNE05.jpg,AFSA09.jpg,AFNE10.jpg,AFSA09.jpg,FS,4,num_2,16,num_2,1.16670339135,,,2017_Nov_14_1155,60.0120685678,MAFE4ImagesEEG,001,102330,
AFNE01.JPG,AFNE01.JPG,AFNE01.JPG,AFNE01.JPG,AFNE01.JPG,AFNE01.JPG,,,,,2,1,21,9,,,,,,,,,,,,,,,,,,,AFNE12.jpg,AFSA03.jpg,AFSA04.jpg,AFNE15.jpg,AFSA03.jpg,FS,4,num_6,16,num_6,0.650012268685,,,2017_Nov_14_1155,60.0120685678,MAFE4ImagesEEG,001,102330,
AFNE01.JPG,AFNE01.JPG,AFNE01.JPG,AFNE01.JPG,AFNE01.JPG,AFNE01.JPG,,,,,2,2,22,2,,,,,,,,,,,,,,,,,,,AFNE01.jpg,AFNE15.jpg,AFSA11.jpg,AFSA16.jpg,AFNE15.jpg,FN,3,num_6,16,num_6,0.600242158398,,,2017_Nov_14_1155,60.0120685678,MAFE4ImagesEEG,001,102330,
AFNE01.JPG,AFNE01.JPG,AFNE01.JPG,AFNE01.JPG,AFNE01.JPG,AFNE01.JPG,,,,,2,3,23,3,,,,,,,,,,,,,,,,,,,AFSA14.jpg,AFSA13.jpg,AFNE13.jpg,AFNE03.jpg,AFNE03.jpg,FN,3,num_4,16,num_4,0.683439738583,,,2017_Nov_14_1155,60.0120685678,MAFE4ImagesEEG,001,102330,
AFNE01.JPG,AFNE01.JPG,AFNE01.JPG,AFNE01.JPG,AFNE01.JPG,AFNE01.JPG,,,,,2,4,24,5,,,,,,,,,,,,,,,,,,,AFNE05.jpg,AFSA12.jpg,AFNE01.jpg,AFSA15.jpg,AFNE05.jpg,FN,3,num_8,16,num_8,1.43342811149,,,2017_Nov_14_1155,60.0120685678,MAFE4ImagesEEG,001,102330,
AFNE01.JPG,AFNE01.JPG,AFNE01.JPG,AFNE01.JPG,AFNE01.JPG,AFNE01.JPG,,,,,2,5,25,7,,,,,,,,,,,,,,,,,,,AFSA13.jpg,AFNE03.jpg,AFSA19.jpg,AFNE12.jpg,AFSA19.jpg,FS,4,num_2,16,num_2,0.633490656037,,,2017_Nov_14_1155,60.0120685678,MAFE4ImagesEEG,001,102330,
AFNE01.JPG,AFNE01.JPG,AFNE01.JPG,AFNE01.JPG,AFNE01.JPG,AFNE01.JPG,,,,,2,6,26,4,,,,,,,,,,,,,,,,,,,AFSA09.jpg,AFNE03.jpg,AFNE02.jpg,AFSA14.jpg,AFNE02.jpg,FN,3,num_2,16,num_2,1.11679632543,,,2017_Nov_14_1155,60.0120685678,MAFE4ImagesEEG,001,102330,
AFNE01.JPG,AFNE01.JPG,AFNE01.JPG,AFNE01.JPG,AFNE01.JPG,AFNE01.JPG,,,,,2,7,27,1,,,,,,,,,,,,,,,,,,,AFNE05.jpg,AFSA16.jpg,AFNE03.jpg,AFSA05.jpg,AFSA16.jpg,FS,4,num_6,16,num_6,0.70014705928,,,2017_Nov_14_1155,60.0120685678,MAFE4ImagesEEG,001,102330,
AFNE01.JPG,AFNE01.JPG,AFNE01.JPG,AFNE01.JPG,AFNE01.JPG,AFNE01.JPG,,,,,2,8,28,6,,,,,,,,,,,,,,,,,,,AFNE18.jpg,AFSA03.jpg,AFNE14.jpg,AFSA08.jpg,AFNE18.jpg,FN,3,num_8,16,num_8,0.783467161935,,,2017_Nov_14_1155,60.0120685678,MAFE4ImagesEEG,001,102330,
AFNE01.JPG,AFNE01.JPG,AFNE01.JPG,AFNE01.JPG,AFNE01.JPG,AFNE01.JPG,,,,,2,9,29,8,,,,,,,,,,,,,,,,,,,AFNE11.jpg,AFNE09.jpg,AFSA02.jpg,AFSA11.jpg,AFNE11.jpg,FN,3,num_8,16,num_8,0.616868652403,,,2017_Nov_14_1155,60.0120685678,MAFE4ImagesEEG,001,102330,
AFNE01.JPG,AFNE01.JPG,AFNE01.JPG,AFNE01.JPG,AFNE01.JPG,AFNE01.JPG,,,,,3,0,30,8,,,,,,,,,,,,,,,,,,,AFSA08.jpg,AFNE11.jpg,AFNE13.jpg,AFSA15.jpg,AFNE11.jpg,FN,3,num_6,16,num_6,1.03343645111,,,2017_Nov_14_1155,60.0120685678,MAFE4ImagesEEG,001,102330,
AFNE01.JPG,AFNE01.JPG,AFNE01.JPG,AFNE01.JPG,AFNE01.JPG,AFNE01.JPG,,,,,3,1,31,9,,,,,,,,,,,,,,,,,,,AFNE10.jpg,AFSA04.jpg,AFSA02.jpg,AFNE08.jpg,AFSA04.jpg,FS,4,num_6,32,num_8,0.683466039132,,,2017_Nov_14_1155,60.0120685678,MAFE4ImagesEEG,001,102330,
AFNE01.JPG,AFNE01.JPG,AFNE01.JPG,AFNE01.JPG,AFNE01.JPG,AFNE01.JPG,,,,,3,2,32,7,,,,,,,,,,,,,,,,,,,AFNE10.jpg,AFSA10.jpg,AFNE04.jpg,AFSA20.jpg,AFNE04.jpg,FN,3,num_2,32,num_6,0.583479029126,,,2017_Nov_14_1155,60.0120685678,MAFE4ImagesEEG,001,102330,
AFNE01.JPG,AFNE01.JPG,AFNE01.JPG,AFNE01.JPG,AFNE01.JPG,AFNE01.JPG,,,,,3,3,33,4,,,,,,,,,,,,,,,,,,,AFNE02.jpg,AFNE11.jpg,AFSA03.jpg,AFSA16.jpg,AFSA03.jpg,FS,4,num_2,32,num_6,0.900178491604,,,2017_Nov_14_1155,60.0120685678,MAFE4ImagesEEG,001,102330,
AFNE01.JPG,AFNE01.JPG,AFNE01.JPG,AFNE01.JPG,AFNE01.JPG,AFNE01.JPG,,,,,3,4,34,1,,,,,,,,,,,,,,,,,,,AFSA02.jpg,AFSA08.jpg,AFNE03.jpg,AFNE12.jpg,AFNE03.jpg,FN,3,num_2,32,num_6,0.73339587776,,,2017_Nov_14_1155,60.0120685678,MAFE4ImagesEEG,001,102330,
AFNE01.JPG,AFNE01.JPG,AFNE01.JPG,AFNE01.JPG,AFNE01.JPG,AFNE01.JPG,,,,,3,5,35,2,,,,,,,,,,,,,,,,,,,AFNE12.jpg,AFSA16.jpg,AFSA03.jpg,AFNE02.jpg,AFNE12.jpg,FN,3,num_8,16,num_8,0.666789830662,,,2017_Nov_14_1155,60.0120685678,MAFE4ImagesEEG,001,102330,
AFNE01.JPG,AFNE01.JPG,AFNE01.JPG,AFNE01.JPG,AFNE01.JPG,AFNE01.JPG,,,,,3,6,36,3,,,,,,,,,,,,,,,,,,,AFNE02.jpg,AFNE03.jpg,AFSA17.jpg,AFSA19.jpg,AFSA17.jpg,FS,4,num_2,16,num_2,0.700162133668,,,2017_Nov_14_1155,60.0120685678,MAFE4ImagesEEG,001,102330,
AFNE01.JPG,AFNE01.JPG,AFNE01.JPG,AFNE01.JPG,AFNE01.JPG,AFNE01.JPG,,,,,3,7,37,0,,,,,,,,,,,,,,,,,,,AFNE14.jpg,AFNE20.jpg,AFSA05.jpg,AFSA20.jpg,AFSA20.jpg,FS,4,num_4,16,num_4,0.516829361673,,,2017_Nov_14_1155,60.0120685678,MAFE4ImagesEEG,001,102330,
AFNE01.JPG,AFNE01.JPG,AFNE01.JPG,AFNE01.JPG,AFNE01.JPG,AFNE01.JPG,,,,,3,8,38,6,,,,,,,,,,,,,,,,,,,AFNE03.jpg,AFNE02.jpg,AFSA18.jpg,AFSA06.jpg,AFSA18.jpg,FS,4,num_2,32,num_8,0.616809636354,,,2017_Nov_14_1155,60.0120685678,MAFE4ImagesEEG,001,102330,
AFNE01.JPG,AFNE01.JPG,AFNE01.JPG,AFNE01.JPG,AFNE01.JPG,AFNE01.JPG,,,,,3,9,39,5,,,,,,,,,,,,,,,,,,,AFSA11.jpg,AFSA18.jpg,AFNE02.jpg,AFNE03.jpg,AFNE03.jpg,FN,3,num_4,16,num_4,0.933538286015,,,2017_Nov_14_1155,60.0120685678,MAFE4ImagesEEG,001,102330,
AFNE01.JPG,AFNE01.JPG,AFNE01.JPG,AFNE01.JPG,AFNE01.JPG,AFNE01.JPG,,,,,4,0,40,9,,,,,,,,,,,,,,,,,,,AFSA15.jpg,AFNE16.jpg,AFNE13.jpg,AFSA11.jpg,AFNE16.jpg,FN,3,num_6,16,num_6,0.850125489291,,,2017_Nov_14_1155,60.0120685678,MAFE4ImagesEEG,001,102330,
AFNE01.JPG,AFNE01.JPG,AFNE01.JPG,AFNE01.JPG,AFNE01.JPG,AFNE01.JPG,,,,,4,1,41,1,,,,,,,,,,,,,,,,,,,AFNE06.jpg,AFNE18.jpg,AFSA11.jpg,AFSA20.jpg,AFNE18.jpg,FN,3,num_6,32,num_8,0.816802259535,,,2017_Nov_14_1155,60.0120685678,MAFE4ImagesEEG,001,102330,
AFNE01.JPG,AFNE01.JPG,AFNE01.JPG,AFNE01.JPG,AFNE01.JPG,AFNE01.JPG,,,,,4,2,42,2,,,,,,,,,,,,,,,,,,,AFNE09.jpg,AFNE04.jpg,AFSA03.jpg,AFSA06.jpg,AFNE04.jpg,FN,3,num_6,16,num_6,0.633424262982,,,2017_Nov_14_1155,60.0120685678,MAFE4ImagesEEG,001,102330,
AFNE01.JPG,AFNE01.JPG,AFNE01.JPG,AFNE01.JPG,AFNE01.JPG,AFNE01.JPG,,,,,4,3,43,8,,,,,,,,,,,,,,,,,,,AFSA20.jpg,AFSA02.jpg,AFNE03.jpg,AFNE19.jpg,AFSA02.jpg,FS,4,num_6,32,num_4,0.51679408038,,,2017_Nov_14_1155,60.0120685678,MAFE4ImagesEEG,001,102330,
AFNE01.JPG,AFNE01.JPG,AFNE01.JPG,AFNE01.JPG,AFNE01.JPG,AFNE01.JPG,,,,,4,4,44,5,,,,,,,,,,,,,,,,,,,AFSA11.jpg,AFNE04.jpg,AFNE18.jpg,AFSA02.jpg,AFSA11.jpg,FS,4,num_8,16,num_8,0.566679335665,,,2017_Nov_14_1155,60.0120685678,MAFE4ImagesEEG,001,102330,
AFNE01.JPG,AFNE01.JPG,AFNE01.JPG,AFNE01.JPG,AFNE01.JPG,AFNE01.JPG,,,,,4,5,45,7,,,,,,,,,,,,,,,,,,,AFNE14.jpg,AFNE17.jpg,AFSA09.jpg,AFSA06.jpg,AFSA09.jpg,FS,4,num_2,32,num_6,0.75012500817,,,2017_Nov_14_1155,60.0120685678,MAFE4ImagesEEG,001,102330,
AFNE01.JPG,AFNE01.JPG,AFNE01.JPG,AFNE01.JPG,AFNE01.JPG,AFNE01.JPG,,,,,4,6,46,6,,,,,,,,,,,,,,,,,,,AFNE12.jpg,AFSA02.jpg,AFNE17.jpg,AFSA07.jpg,AFSA07.jpg,FS,4,num_4,16,num_4,0.516785420477,,,2017_Nov_14_1155,60.0120685678,MAFE4ImagesEEG,001,102330,
AFNE01.JPG,AFNE01.JPG,AFNE01.JPG,AFNE01.JPG,AFNE01.JPG,AFNE01.JPG,,,,,4,7,47,4,,,,,,,,,,,,,,,,,,,AFSA03.jpg,AFSA15.jpg,AFNE12.jpg,AFNE03.jpg,AFNE12.jpg,FN,3,num_2,16,num_2,0.65012548957,,,2017_Nov_14_1155,60.0120685678,MAFE4ImagesEEG,001,102330,
AFNE01.JPG,AFNE01.JPG,AFNE01.JPG,AFNE01.JPG,AFNE01.JPG,AFNE01.JPG,,,,,4,8,48,3,,,,,,,,,,,,,,,,,,,AFSA06.jpg,AFNE02.jpg,AFSA18.jpg,AFNE18.jpg,AFSA18.jpg,FS,4,num_2,32,num_8,0.483499716967,,,2017_Nov_14_1155,60.0120685678,MAFE4ImagesEEG,001,102330,
AFNE01.JPG,AFNE01.JPG,AFNE01.JPG,AFNE01.JPG,AFNE01.JPG,AFNE01.JPG,,,,,4,9,49,0,,,,,,,,,,,,,,,,,,,AFNE06.jpg,AFSA06.jpg,AFNE18.jpg,AFSA18.jpg,AFNE06.jpg,FN,3,num_8,32,num_6,0.600129257888,,,2017_Nov_14_1155,60.0120685678,MAFE4ImagesEEG,001,102330,
AFNE01.JPG,AFNE01.JPG,AFNE01.JPG,AFNE01.JPG,AFNE01.JPG,AFNE01.JPG,,,,,5,0,50,3,,,,,,,,,,,,,,,,,,,AFNE16.jpg,AFSA18.jpg,AFSA04.jpg,AFNE05.jpg,AFNE05.jpg,FN,3,num_4,32,num_8,0.716776119079,,,2017_Nov_14_1155,60.0120685678,MAFE4ImagesEEG,001,102330,
AFNE01.JPG,AFNE01.JPG,AFNE01.JPG,AFNE01.JPG,AFNE01.JPG,AFNE01.JPG,,,,,5,1,51,2,,,,,,,,,,,,,,,,,,,AFSA20.jpg,AFSA18.jpg,AFNE05.jpg,AFNE17.jpg,AFNE05.jpg,FN,3,num_2,16,num_2,0.583466199692,,,2017_Nov_14_1155,60.0120685678,MAFE4ImagesEEG,001,102330,
AFNE01.JPG,AFNE01.JPG,AFNE01.JPG,AFNE01.JPG,AFNE01.JPG,AFNE01.JPG,,,,,5,2,52,9,,,,,,,,,,,,,,,,,,,AFSA01.jpg,AFSA15.jpg,AFNE13.jpg,AFNE06.jpg,AFSA01.jpg,FS,4,num_8,16,num_8,0.683542696293,,,2017_Nov_14_1155,60.0120685678,MAFE4ImagesEEG,001,102330,
AFNE01.JPG,AFNE01.JPG,AFNE01.JPG,AFNE01.JPG,AFNE01.JPG,AFNE01.JPG,,,,,5,3,53,8,,,,,,,,,,,,,,,,,,,AFNE17.jpg,AFSA15.jpg,AFNE02.jpg,AFSA05.jpg,AFNE17.jpg,FN,3,num_8,32,num_4,0.800173840486,,,2017_Nov_14_1155,60.0120685678,MAFE4ImagesEEG,001,102330,
AFNE01.JPG,AFNE01.JPG,AFNE01.JPG,AFNE01.JPG,AFNE01.JPG,AFNE01.JPG,,,,,5,4,54,1,,,,,,,,,,,,,,,,,,,AFNE15.jpg,AFNE12.jpg,AFSA15.jpg,AFSA02.jpg,AFSA02.jpg,FS,4,num_4,32,num_2,1.71669529285,,,2017_Nov_14_1155,60.0120685678,MAFE4ImagesEEG,001,102330,
AFNE01.JPG,AFNE01.JPG,AFNE01.JPG,AFNE01.JPG,AFNE01.JPG,AFNE01.JPG,,,,,5,5,55,7,,,,,,,,,,,,,,,,,,,AFNE01.jpg,AFNE11.jpg,AFSA13.jpg,AFSA07.jpg,AFNE11.jpg,FN,3,num_6,16,num_6,1.50009798585,,,2017_Nov_14_1155,60.0120685678,MAFE4ImagesEEG,001,102330,
AFNE01.JPG,AFNE01.JPG,AFNE01.JPG,AFNE01.JPG,AFNE01.JPG,AFNE01.JPG,,,,,5,6,56,5,,,,,,,,,,,,,,,,,,,AFSA10.jpg,AFNE07.jpg,AFNE11.jpg,AFSA18.jpg,AFSA18.jpg,FS,4,num_4,16,num_4,0.483489453327,,,2017_Nov_14_1155,60.0120685678,MAFE4ImagesEEG,001,102330,
AFNE01.JPG,AFNE01.JPG,AFNE01.JPG,AFNE01.JPG,AFNE01.JPG,AFNE01.JPG,,,,,5,7,57,4,,,,,,,,,,,,,,,,,,,AFNE05.jpg,AFNE14.jpg,AFSA13.jpg,AFSA04.jpg,AFSA04.jpg,FS,4,num_4,32,num_6,0.96684066765,,,2017_Nov_14_1155,60.0120685678,MAFE4ImagesEEG,001,102330,
AFNE01.JPG,AFNE01.JPG,AFNE01.JPG,AFNE01.JPG,AFNE01.JPG,AFNE01.JPG,,,,,5,8,58,0,,,,,,,,,,,,,,,,,,,AFNE14.jpg,AFSA17.jpg,AFNE15.jpg,AFSA14.jpg,AFNE14.jpg,FN,3,num_8,16,num_8,0.683595297392,,,2017_Nov_14_1155,60.0120685678,MAFE4ImagesEEG,001,102330,
AFNE01.JPG,AFNE01.JPG,AFNE01.JPG,AFNE01.JPG,AFNE01.JPG,AFNE01.JPG,,,,,5,9,59,6,,,,,,,,,,,,,,,,,,,AFNE13.jpg,AFSA19.jpg,AFNE17.jpg,AFSA17.jpg,AFNE13.jpg,FN,3,num_8,16,num_8,0.966726163868,,,2017_Nov_14_1155,60.0120685678,MAFE4ImagesEEG,001,102330,
,,,,,,,,,,,,,,,,,,,,,,,,,,,,,,,,,,,,,,,,,,,space,60.0451767999,2017_Nov_14_1155,60.0120685678,MAFE4ImagesEEG,001,102330,
AFNE01.JPG,AFNE01.JPG,AFNE01.JPG,AFNE01.JPG,AFNE01.JPG,AFNE01.JPG,,,,,,,,,0,0,0,4,,,,,,,,,,,,,,,AMSA03.jpg,AMSA09.jpg,AMNE17.jpg,AMNE19.jpg,AMSA03.jpg,MS,2,num_8,16,num_8,0.550022050738,,,2017_Nov_14_1155,60.0120685678,MAFE4ImagesEEG,001,102330,
AFNE01.JPG,AFNE01.JPG,AFNE01.JPG,AFNE01.JPG,AFNE01.JPG,AFNE01.JPG,,,,,,,,,0,1,1,2,,,,,,,,,,,,,,,AMSA19.jpg,AMSA12.jpg,AMNE20.jpg,AMNE10.jpg,AMNE20.jpg,MN,1,num_2,16,num_2,0.866802981123,,,2017_Nov_14_1155,60.0120685678,MAFE4ImagesEEG,001,102330,
AFNE01.JPG,AFNE01.JPG,AFNE01.JPG,AFNE01.JPG,AFNE01.JPG,AFNE01.JPG,,,,,,,,,0,2,2,0,,,,,,,,,,,,,,,AMSA01.jpg,AMNE06.jpg,AMNE18.jpg,AMSA03.jpg,AMNE06.jpg,MN,1,num_6,32,num_2,1.06661951775,,,2017_Nov_14_1155,60.0120685678,MAFE4ImagesEEG,001,102330,
AFNE01.JPG,AFNE01.JPG,AFNE01.JPG,AFNE01.JPG,AFNE01.JPG,AFNE01.JPG,,,,,,,,,0,3,3,5,,,,,,,,,,,,,,,AMNE17.jpg,AMSA08.jpg,AMNE02.jpg,AMSA07.jpg,AMSA08.jpg,MS,2,num_6,16,num_6,0.8000933351,,,2017_Nov_14_1155,60.0120685678,MAFE4ImagesEEG,001,102330,
AFNE01.JPG,AFNE01.JPG,AFNE01.JPG,AFNE01.JPG,AFNE01.JPG,AFNE01.JPG,,,,,,,,,0,4,4,6,,,,,,,,,,,,,,,AMSA02.jpg,AMNE08.jpg,AMNE10.jpg,AMSA03.jpg,AMSA02.jpg,MS,2,num_8,16,num_8,0.600166142918,,,2017_Nov_14_1155,60.0120685678,MAFE4ImagesEEG,001,102330,
AFNE01.JPG,AFNE01.JPG,AFNE01.JPG,AFNE01.JPG,AFNE01.JPG,AFNE01.JPG,,,,,,,,,0,5,5,3,,,,,,,,,,,,,,,AMNE12.jpg,AMSA20.jpg,AMSA17.jpg,AMNE09.jpg,AMSA20.jpg,MS,2,num_6,16,num_6,0.900131984148,,,2017_Nov_14_1155,60.0120685678,MAFE4ImagesEEG,001,102330,
AFNE01.JPG,AFNE01.JPG,AFNE01.JPG,AFNE01.JPG,AFNE01.JPG,AFNE01.JPG,,,,,,,,,0,6,6,7,,,,,,,,,,,,,,,AMSA04.jpg,AMNE03.jpg,AMNE05.jpg,AMSA12.jpg,AMSA12.jpg,MS,2,num_4,32,num_8,0.43351310771,,,2017_Nov_14_1155,60.0120685678,MAFE4ImagesEEG,001,102330,
AFNE01.JPG,AFNE01.JPG,AFNE01.JPG,AFNE01.JPG,AFNE01.JPG,AFNE01.JPG,,,,,,,,,0,7,7,1,,,,,,,,,,,,,,,AMNE15.jpg,AMNE08.jpg,AMSA12.jpg,AMSA03.jpg,AMNE08.jpg,MN,1,num_6,32,num_8,1.06680458458,,,2017_Nov_14_1155,60.0120685678,MAFE4ImagesEEG,001,102330,
AFNE01.JPG,AFNE01.JPG,AFNE01.JPG,AFNE01.JPG,AFNE01.JPG,AFNE01.JPG,,,,,,,,,0,8,8,9,,,,,,,,,,,,,,,AMSA19.jpg,AMNE15.jpg,AMSA04.jpg,AMNE17.jpg,AMSA19.jpg,MS,2,num_8,32,num_2,0.866723437328,,,2017_Nov_14_1155,60.0120685678,MAFE4ImagesEEG,001,102330,
AFNE01.JPG,AFNE01.JPG,AFNE01.JPG,AFNE01.JPG,AFNE01.JPG,AFNE01.JPG,,,,,,,,,0,9,9,8,,,,,,,,,,,,,,,AMNE07.jpg,AMSA15.jpg,AMNE18.jpg,AMSA06.jpg,AMNE07.jpg,MN,1,num_8,32,num_4,0.866662818007,,,2017_Nov_14_1155,60.0120685678,MAFE4ImagesEEG,001,102330,
AFNE01.JPG,AFNE01.JPG,AFNE01.JPG,AFNE01.JPG,AFNE01.JPG,AFNE01.JPG,,,,,,,,,1,0,10,9,,,,,,,,,,,,,,,AMNE16.jpg,AMSA03.jpg,AMSA04.jpg,AMNE20.jpg,AMNE16.jpg,MN,1,num_8,16,num_8,0.883499396034,,,2017_Nov_14_1155,60.0120685678,MAFE4ImagesEEG,001,102330,
AFNE01.JPG,AFNE01.JPG,AFNE01.JPG,AFNE01.JPG,AFNE01.JPG,AFNE01.JPG,,,,,,,,,1,1,11,5,,,,,,,,,,,,,,,AMSA17.jpg,AMSA05.jpg,AMNE13.jpg,AMNE06.jpg,AMSA17.jpg,MS,2,num_8,16,num_8,0.500185227022,,,2017_Nov_14_1155,60.0120685678,MAFE4ImagesEEG,001,102330,
AFNE01.JPG,AFNE01.JPG,AFNE01.JPG,AFNE01.JPG,AFNE01.JPG,AFNE01.JPG,,,,,,,,,1,2,12,8,,,,,,,,,,,,,,,AMSA03.jpg,AMNE20.jpg,AMSA11.jpg,AMNE05.jpg,AMSA03.jpg,MS,2,num_8,16,num_8,0.699883411173,,,2017_Nov_14_1155,60.0120685678,MAFE4ImagesEEG,001,102330,
AFNE01.JPG,AFNE01.JPG,AFNE01.JPG,AFNE01.JPG,AFNE01.JPG,AFNE01.JPG,,,,,,,,,1,3,13,6,,,,,,,,,,,,,,,AMNE09.jpg,AMNE19.jpg,AMSA12.jpg,AMSA01.jpg,AMNE19.jpg,MN,1,num_6,16,num_6,0.733524815179,,,2017_Nov_14_1155,60.0120685678,MAFE4ImagesEEG,001,102330,
AFNE01.JPG,AFNE01.JPG,AFNE01.JPG,AFNE01.JPG,AFNE01.JPG,AFNE01.JPG,,,,,,,,,1,4,14,1,,,,,,,,,,,,,,,AMSA03.jpg,AMNE12.jpg,AMSA01.jpg,AMNE05.jpg,AMNE12.jpg,MN,1,num_6,32,num_4,0.93347509997,,,2017_Nov_14_1155,60.0120685678,MAFE4ImagesEEG,001,102330,
AFNE01.JPG,AFNE01.JPG,AFNE01.JPG,AFNE01.JPG,AFNE01.JPG,AFNE01.JPG,,,,,,,,,1,5,15,0,,,,,,,,,,,,,,,AMSA09.jpg,AMNE09.jpg,AMNE12.jpg,AMSA10.jpg,AMSA09.jpg,MS,2,num_8,16,num_8,0.633485844824,,,2017_Nov_14_1155,60.0120685678,MAFE4ImagesEEG,001,102330,
AFNE01.JPG,AFNE01.JPG,AFNE01.JPG,AFNE01.JPG,AFNE01.JPG,AFNE01.JPG,,,,,,,,,1,6,16,2,,,,,,,,,,,,,,,AMSA18.jpg,AMNE04.jpg,AMNE06.jpg,AMSA12.jpg,AMSA12.jpg,MS,2,num_4,16,num_4,0.883465077262,,,2017_Nov_14_1155,60.0120685678,MAFE4ImagesEEG,001,102330,
AFNE01.JPG,AFNE01.JPG,AFNE01.JPG,AFNE01.JPG,AFNE01.JPG,AFNE01.JPG,,,,,,,,,1,7,17,3,,,,,,,,,,,,,,,AMNE18.jpg,AMSA11.jpg,AMSA05.jpg,AMNE15.jpg,AMNE15.jpg,MN,1,num_4,16,num_4,0.800140804611,,,2017_Nov_14_1155,60.0120685678,MAFE4ImagesEEG,001,102330,
AFNE01.JPG,AFNE01.JPG,AFNE01.JPG,AFNE01.JPG,AFNE01.JPG,AFNE01.JPG,,,,,,,,,1,8,18,7,,,,,,,,,,,,,,,AMNE14.jpg,AMNE04.jpg,AMSA20.jpg,AMSA12.jpg,AMNE14.jpg,MN,1,num_8,16,num_8,0.650157883763,,,2017_Nov_14_1155,60.0120685678,MAFE4ImagesEEG,001,102330,
AFNE01.JPG,AFNE01.JPG,AFNE01.JPG,AFNE01.JPG,AFNE01.JPG,AFNE01.JPG,,,,,,,,,1,9,19,4,,,,,,,,,,,,,,,AMSA19.jpg,AMNE11.jpg,AMSA05.jpg,AMNE18.jpg,AMSA05.jpg,MS,2,num_2,32,num_4,0.716844436713,,,2017_Nov_14_1155,60.0120685678,MAFE4ImagesEEG,001,102330,
AFNE01.JPG,AFNE01.JPG,AFNE01.JPG,AFNE01.JPG,AFNE01.JPG,AFNE01.JPG,,,,,,,,,2,0,20,8,,,,,,,,,,,,,,,AMNE18.jpg,AMSA19.jpg,AMSA17.jpg,AMNE01.jpg,AMNE01.jpg,MN,1,num_4,16,num_4,0.633459865116,,,2017_Nov_14_1155,60.0120685678,MAFE4ImagesEEG,001,102330,
AFNE01.JPG,AFNE01.JPG,AFNE01.JPG,AFNE01.JPG,AFNE01.JPG,AFNE01.JPG,,,,,,,,,2,1,21,4,,,,,,,,,,,,,,,AMSA14.jpg,AMNE08.jpg,AMNE15.jpg,AMSA10.jpg,AMSA10.jpg,MS,2,num_4,32,num_6,0.700157964136,,,2017_Nov_14_1155,60.0120685678,MAFE4ImagesEEG,001,102330,
AFNE01.JPG,AFNE01.JPG,AFNE01.JPG,AFNE01.JPG,AFNE01.JPG,AFNE01.JPG,,,,,,,,,2,2,22,5,,,,,,,,,,,,,,,AMNE20.jpg,AMSA19.jpg,AMSA06.jpg,AMNE08.jpg,AMSA19.jpg,MS,2,num_6,16,num_6,0.950127253309,,,2017_Nov_14_1155,60.0120685678,MAFE4ImagesEEG,001,102330,
AFNE01.JPG,AFNE01.JPG,AFNE01.JPG,AFNE01.JPG,AFNE01.JPG,AFNE01.JPG,,,,,,,,,2,3,23,1,,,,,,,,,,,,,,,AMNE10.jpg,AMSA11.jpg,AMSA09.jpg,AMNE06.jpg,AMNE10.jpg,MN,1,num_8,16,num_8,0.850089566316,,,2017_Nov_14_1155,60.0120685678,MAFE4ImagesEEG,001,102330,
AFNE01.JPG,AFNE01.JPG,AFNE01.JPG,AFNE01.JPG,AFNE01.JPG,AFNE01.JPG,,,,,,,,,2,4,24,9,,,,,,,,,,,,,,,AMSA12.jpg,AMNE01.jpg,AMNE02.jpg,AMSA14.jpg,AMNE02.jpg,MN,1,num_2,32,num_6,0.833619914018,,,2017_Nov_14_1155,60.0120685678,MAFE4ImagesEEG,001,102330,
AFNE01.JPG,AFNE01.JPG,AFNE01.JPG,AFNE01.JPG,AFNE01.JPG,AFNE01.JPG,,,,,,,,,2,5,25,0,,,,,,,,,,,,,,,AMSA05.jpg,AMSA18.jpg,AMNE03.jpg,AMNE13.jpg,AMNE03.jpg,MN,1,num_2,16,num_2,1.10011241911,,,2017_Nov_14_1155,60.0120685678,MAFE4ImagesEEG,001,102330,
AFNE01.JPG,AFNE01.JPG,AFNE01.JPG,AFNE01.JPG,AFNE01.JPG,AFNE01.JPG,,,,,,,,,2,6,26,6,,,,,,,,,,,,,,,AMSA01.jpg,AMNE07.jpg,AMNE19.jpg,AMSA12.jpg,AMNE07.jpg,MN,1,num_6,16,num_6,0.733468364459,,,2017_Nov_14_1155,60.0120685678,MAFE4ImagesEEG,001,102330,
AFNE01.JPG,AFNE01.JPG,AFNE01.JPG,AFNE01.JPG,AFNE01.JPG,AFNE01.JPG,,,,,,,,,2,7,27,2,,,,,,,,,,,,,,,AMNE14.jpg,AMSA13.jpg,AMNE03.jpg,AMSA06.jpg,AMSA06.jpg,MS,2,num_4,16,num_4,0.883468284737,,,2017_Nov_14_1155,60.0120685678,MAFE4ImagesEEG,001,102330,
AFNE01.JPG,AFNE01.JPG,AFNE01.JPG,AFNE01.JPG,AFNE01.JPG,AFNE01.JPG,,,,,,,,,2,8,28,3,,,,,,,,,,,,,,,AMSA19.jpg,AMNE17.jpg,AMNE14.jpg,AMSA03.jpg,AMSA03.jpg,MS,2,num_4,32,num_8,0.716789269354,,,2017_Nov_14_1155,60.0120685678,MAFE4ImagesEEG,001,102330,
AFNE01.JPG,AFNE01.JPG,AFNE01.JPG,AFNE01.JPG,AFNE01.JPG,AFNE01.JPG,,,,,,,,,2,9,29,7,,,,,,,,,,,,,,,AMNE13.jpg,AMSA07.jpg,AMNE07.jpg,AMSA17.jpg,AMNE13.jpg,MN,1,num_8,32,num_4,0.750089085661,,,2017_Nov_14_1155,60.0120685678,MAFE4ImagesEEG,001,102330,
AFNE01.JPG,AFNE01.JPG,AFNE01.JPG,AFNE01.JPG,AFNE01.JPG,AFNE01.JPG,,,,,,,,,3,0,30,5,,,,,,,,,,,,,,,AMNE20.jpg,AMSA13.jpg,AMNE15.jpg,AMSA01.jpg,AMSA13.jpg,MS,2,num_6,16,num_6,0.750139441341,,,2017_Nov_14_1155,60.0120685678,MAFE4ImagesEEG,001,102330,
AFNE01.JPG,AFNE01.JPG,AFNE01.JPG,AFNE01.JPG,AFNE01.JPG,AFNE01.JPG,,,,,,,,,3,1,31,4,,,,,,,,,,,,,,,AMSA03.jpg,AMNE02.jpg,AMSA17.jpg,AMNE01.jpg,AMSA17.jpg,MS,2,num_2,32,num_8,0.750166383572,,,2017_Nov_14_1155,60.0120685678,MAFE4ImagesEEG,001,102330,
AFNE01.JPG,AFNE01.JPG,AFNE01.JPG,AFNE01.JPG,AFNE01.JPG,AFNE01.JPG,,,,,,,,,3,2,32,0,,,,,,,,,,,,,,,AMNE10.jpg,AMNE13.jpg,AMSA16.jpg,AMSA01.jpg,AMSA01.jpg,MS,2,num_4,16,num_4,0.666471978184,,,2017_Nov_14_1155,60.0120685678,MAFE4ImagesEEG,001,102330,
AFNE01.JPG,AFNE01.JPG,AFNE01.JPG,AFNE01.JPG,AFNE01.JPG,AFNE01.JPG,,,,,,,,,3,3,33,9,,,,,,,,,,,,,,,AMNE02.jpg,AMSA06.jpg,AMNE08.jpg,AMSA03.jpg,AMNE02.jpg,MN,1,num_8,32,num_4,0.650169751607,,,2017_Nov_14_1155,60.0120685678,MAFE4ImagesEEG,001,102330,
AFNE01.JPG,AFNE01.JPG,AFNE01.JPG,AFNE01.JPG,AFNE01.JPG,AFNE01.JPG,,,,,,,,,3,4,34,2,,,,,,,,,,,,,,,AMNE13.jpg,AMSA16.jpg,AMNE03.jpg,AMSA09.jpg,AMNE03.jpg,MN,1,num_2,16,num_2,0.883561940398,,,2017_Nov_14_1155,60.0120685678,MAFE4ImagesEEG,001,102330,
AFNE01.JPG,AFNE01.JPG,AFNE01.JPG,AFNE01.JPG,AFNE01.JPG,AFNE01.JPG,,,,,,,,,3,5,35,6,,,,,,,,,,,,,,,AMNE17.jpg,AMSA19.jpg,AMSA05.jpg,AMNE02.jpg,AMSA19.jpg,MS,2,num_6,16,num_6,0.566790632438,,,2017_Nov_14_1155,60.0120685678,MAFE4ImagesEEG,001,102330,
AFNE01.JPG,AFNE01.JPG,AFNE01.JPG,AFNE01.JPG,AFNE01.JPG,AFNE01.JPG,,,,,,,,,3,6,36,3,,,,,,,,,,,,,,,AMNE03.jpg,AMNE19.jpg,AMSA20.jpg,AMSA07.jpg,AMNE03.jpg,MN,1,num_8,32,num_4,0.616807070561,,,2017_Nov_14_1155,60.0120685678,MAFE4ImagesEEG,001,102330,
AFNE01.JPG,AFNE01.JPG,AFNE01.JPG,AFNE01.JPG,AFNE01.JPG,AFNE01.JPG,,,,,,,,,3,7,37,1,,,,,,,,,,,,,,,AMNE10.jpg,AMNE07.jpg,AMSA15.jpg,AMSA02.jpg,AMSA02.jpg,MS,2,num_4,16,num_4,0.583471331745,,,2017_Nov_14_1155,60.0120685678,MAFE4ImagesEEG,001,102330,
AFNE01.JPG,AFNE01.JPG,AFNE01.JPG,AFNE01.JPG,AFNE01.JPG,AFNE01.JPG,,,,,,,,,3,8,38,7,,,,,,,,,,,,,,,AMSA07.jpg,AMSA05.jpg,AMNE03.jpg,AMNE11.jpg,AMNE03.jpg,MN,1,num_2,32,num_4,0.533473817632,,,2017_Nov_14_1155,60.0120685678,MAFE4ImagesEEG,001,102330,
AFNE01.JPG,AFNE01.JPG,AFNE01.JPG,AFNE01.JPG,AFNE01.JPG,AFNE01.JPG,,,,,,,,,3,9,39,8,,,,,,,,,,,,,,,AMSA06.jpg,AMSA04.jpg,AMNE07.jpg,AMNE12.jpg,AMSA06.jpg,MS,2,num_8,32,num_4,0.933454893529,,,2017_Nov_14_1155,60.0120685678,MAFE4ImagesEEG,001,102330,
AFNE01.JPG,AFNE01.JPG,AFNE01.JPG,AFNE01.JPG,AFNE01.JPG,AFNE01.JPG,,,,,,,,,4,0,40,1,,,,,,,,,,,,,,,AMNE16.jpg,AMNE20.jpg,AMSA05.jpg,AMSA15.jpg,AMSA15.jpg,MS,2,num_4,16,num_4,0.683502282947,,,2017_Nov_14_1155,60.0120685678,MAFE4ImagesEEG,001,102330,
AFNE01.JPG,AFNE01.JPG,AFNE01.JPG,AFNE01.JPG,AFNE01.JPG,AFNE01.JPG,,,,,,,,,4,1,41,0,,,,,,,,,,,,,,,AMNE16.jpg,AMSA05.jpg,AMSA01.jpg,AMNE03.jpg,AMSA05.jpg,MS,2,num_6,32,num_8,0.683480151929,,,2017_Nov_14_1155,60.0120685678,MAFE4ImagesEEG,001,102330,
AFNE01.JPG,AFNE01.JPG,AFNE01.JPG,AFNE01.JPG,AFNE01.JPG,AFNE01.JPG,,,,,,,,,4,2,42,6,,,,,,,,,,,,,,,AMSA06.jpg,AMNE20.jpg,AMNE19.jpg,AMSA08.jpg,AMNE19.jpg,MN,1,num_2,32,num_6,0.800155878998,,,2017_Nov_14_1155,60.0120685678,MAFE4ImagesEEG,001,102330,
AFNE01.JPG,AFNE01.JPG,AFNE01.JPG,AFNE01.JPG,AFNE01.JPG,AFNE01.JPG,,,,,,,,,4,3,43,2,,,,,,,,,,,,,,,AMNE15.jpg,AMNE08.jpg,AMSA14.jpg,AMSA09.jpg,AMSA09.jpg,MS,2,num_4,16,num_4,0.816748375073,,,2017_Nov_14_1155,60.0120685678,MAFE4ImagesEEG,001,102330,
AFNE01.JPG,AFNE01.JPG,AFNE01.JPG,AFNE01.JPG,AFNE01.JPG,AFNE01.JPG,,,,,,,,,4,4,44,7,,,,,,,,,,,,,,,AMSA16.jpg,AMNE09.jpg,AMSA13.jpg,AMNE01.jpg,AMNE09.jpg,MN,1,num_6,16,num_6,0.766823668499,,,2017_Nov_14_1155,60.0120685678,MAFE4ImagesEEG,001,102330,
AFNE01.JPG,AFNE01.JPG,AFNE01.JPG,AFNE01.JPG,AFNE01.JPG,AFNE01.JPG,,,,,,,,,4,5,45,9,,,,,,,,,,,,,,,AMSA14.jpg,AMSA08.jpg,AMNE19.jpg,AMNE03.jpg,AMNE03.jpg,MN,1,num_4,32,num_6,0.850170713849,,,2017_Nov_14_1155,60.0120685678,MAFE4ImagesEEG,001,102330,
AFNE01.JPG,AFNE01.JPG,AFNE01.JPG,AFNE01.JPG,AFNE01.JPG,AFNE01.JPG,,,,,,,,,4,6,46,5,,,,,,,,,,,,,,,AMSA20.jpg,AMSA17.jpg,AMNE15.jpg,AMNE20.jpg,AMNE15.jpg,MN,1,num_2,16,num_2,1.00009782566,,,2017_Nov_14_1155,60.0120685678,MAFE4ImagesEEG,001,102330,
AFNE01.JPG,AFNE01.JPG,AFNE01.JPG,AFNE01.JPG,AFNE01.JPG,AFNE01.JPG,,,,,,,,,4,7,47,8,,,,,,,,,,,,,,,AMNE07.jpg,AMNE09.jpg,AMSA02.jpg,AMSA03.jpg,AMSA03.jpg,MS,2,num_4,16,num_4,0.600162615068,,,2017_Nov_14_1155,60.0120685678,MAFE4ImagesEEG,001,102330,
AFNE01.JPG,AFNE01.JPG,AFNE01.JPG,AFNE01.JPG,AFNE01.JPG,AFNE01.JPG,,,,,,,,,4,8,48,4,,,,,,,,,,,,,,,AMNE15.jpg,AMNE20.jpg,AMSA03.jpg,AMSA14.jpg,AMNE20.jpg,MN,1,num_6,16,num_6,0.616851973813,,,2017_Nov_14_1155,60.0120685678,MAFE4ImagesEEG,001,102330,
AFNE01.JPG,AFNE01.JPG,AFNE01.JPG,AFNE01.JPG,AFNE01.JPG,AFNE01.JPG,,,,,,,,,4,9,49,3,,,,,,,,,,,,,,,AMSA17.jpg,AMNE02.jpg,AMSA06.jpg,AMNE14.jpg,AMNE02.jpg,MN,1,num_6,32,num_8,0.383493141737,,,2017_Nov_14_1155,60.0120685678,MAFE4ImagesEEG,001,102330,
AFNE01.JPG,AFNE01.JPG,AFNE01.JPG,AFNE01.JPG,AFNE01.JPG,AFNE01.JPG,,,,,,,,,5,0,50,2,,,,,,,,,,,,,,,AMSA07.jpg,AMNE08.jpg,AMNE10.jpg,AMSA08.jpg,AMSA08.jpg,MS,2,num_4,32,num_2,0.86681420682,,,2017_Nov_14_1155,60.0120685678,MAFE4ImagesEEG,001,102330,
AFNE01.JPG,AFNE01.JPG,AFNE01.JPG,AFNE01.JPG,AFNE01.JPG,AFNE01.JPG,,,,,,,,,5,1,51,3,,,,,,,,,,,,,,,AMSA09.jpg,AMNE02.jpg,AMNE19.jpg,AMSA04.jpg,AMNE02.jpg,MN,1,num_6,16,num_6,0.766788066365,,,2017_Nov_14_1155,60.0120685678,MAFE4ImagesEEG,001,102330,
AFNE01.JPG,AFNE01.JPG,AFNE01.JPG,AFNE01.JPG,AFNE01.JPG,AFNE01.JPG,,,,,,,,,5,2,52,8,,,,,,,,,,,,,,,AMNE13.jpg,AMSA02.jpg,AMSA15.jpg,AMNE02.jpg,AMSA15.jpg,MS,2,num_2,32,num_8,1.10015764367,,,2017_Nov_14_1155,60.0120685678,MAFE4ImagesEEG,001,102330,
AFNE01.JPG,AFNE01.JPG,AFNE01.JPG,AFNE01.JPG,AFNE01.JPG,AFNE01.JPG,,,,,,,,,5,3,53,5,,,,,,,,,,,,,,,AMNE13.jpg,AMNE15.jpg,AMSA12.jpg,AMSA03.jpg,AMNE15.jpg,MN,1,num_6,16,num_6,0.566832328681,,,2017_Nov_14_1155,60.0120685678,MAFE4ImagesEEG,001,102330,
AFNE01.JPG,AFNE01.JPG,AFNE01.JPG,AFNE01.JPG,AFNE01.JPG,AFNE01.JPG,,,,,,,,,5,4,54,9,,,,,,,,,,,,,,,AMNE19.jpg,AMSA14.jpg,AMNE07.jpg,AMSA07.jpg,AMNE19.jpg,MN,1,num_8,16,num_8,0.583516876679,,,2017_Nov_14_1155,60.0120685678,MAFE4ImagesEEG,001,102330,
AFNE01.JPG,AFNE01.JPG,AFNE01.JPG,AFNE01.JPG,AFNE01.JPG,AFNE01.JPG,,,,,,,,,5,5,55,7,,,,,,,,,,,,,,,AMNE05.jpg,AMSA09.jpg,AMSA02.jpg,AMNE13.jpg,AMSA09.jpg,MS,2,num_6,16,num_6,0.63349931594,,,2017_Nov_14_1155,60.0120685678,MAFE4ImagesEEG,001,102330,
AFNE01.JPG,AFNE01.JPG,AFNE01.JPG,AFNE01.JPG,AFNE01.JPG,AFNE01.JPG,,,,,,,,,5,6,56,4,,,,,,,,,,,,,,,AMSA10.jpg,AMNE02.jpg,AMSA02.jpg,AMNE07.jpg,AMNE07.jpg,MN,1,num_4,16,num_4,0.700165982824,,,2017_Nov_14_1155,60.0120685678,MAFE4ImagesEEG,001,102330,
AFNE01.JPG,AFNE01.JPG,AFNE01.JPG,AFNE01.JPG,AFNE01.JPG,AFNE01.JPG,,,,,,,,,5,7,57,6,,,,,,,,,,,,,,,AMNE01.jpg,AMSA13.jpg,AMNE16.jpg,AMSA17.jpg,AMSA17.jpg,MS,2,num_4,32,num_2,1.8834099099,,,2017_Nov_14_1155,60.0120685678,MAFE4ImagesEEG,001,102330,
AFNE01.JPG,AFNE01.JPG,AFNE01.JPG,AFNE01.JPG,AFNE01.JPG,AFNE01.JPG,,,,,,,,,5,8,58,1,,,,,,,,,,,,,,,AMSA06.jpg,AMNE17.jpg,AMNE14.jpg,AMSA08.jpg,AMNE14.jpg,MN,1,num_2,16,num_2,0.583522008266,,,2017_Nov_14_1155,60.0120685678,MAFE4ImagesEEG,001,102330,
AFNE01.JPG,AFNE01.JPG,AFNE01.JPG,AFNE01.JPG,AFNE01.JPG,AFNE01.JPG,,,,,,,,,5,9,59,0,,,,,,,,,,,,,,,AMNE07.jpg,AMNE05.jpg,AMSA01.jpg,AMSA19.jpg,AMSA01.jpg,MS,2,num_2,16,num_2,0.500133908819,,,2017_Nov_14_1155,60.0120685678,MAFE4ImagesEEG,001,102330,
,,,,,,,,,,,,,,,,,,,,,,,,,,,,,,,,,,,,,,,,,,,space,31.4310703557,2017_Nov_14_1155,60.0120685678,MAFE4ImagesEEG,001,102330,
AFNE01.JPG,AFNE01.JPG,AFNE01.JPG,AFNE01.JPG,AFNE01.JPG,AFNE01.JPG,,,,,,,,,,,,,0,0,0,3,,,,,,,,,,,AFSA07.jpg,AFNE13.jpg,AFNE12.jpg,AFSA16.jpg,AFSA07.jpg,FS,4,num_8,16,num_8,0.716631465126,,,2017_Nov_14_1155,60.0120685678,MAFE4ImagesEEG,001,102330,
AFNE01.JPG,AFNE01.JPG,AFNE01.JPG,AFNE01.JPG,AFNE01.JPG,AFNE01.JPG,,,,,,,,,,,,,0,1,1,0,,,,,,,,,,,AFNE06.jpg,AFSA20.jpg,AFNE09.jpg,AFSA16.jpg,AFSA16.jpg,FS,4,num_4,32,num_2,1.48329572659,,,2017_Nov_14_1155,60.0120685678,MAFE4ImagesEEG,001,102330,
AFNE01.JPG,AFNE01.JPG,AFNE01.JPG,AFNE01.JPG,AFNE01.JPG,AFNE01.JPG,,,,,,,,,,,,,0,2,2,6,,,,,,,,,,,AFNE09.jpg,AFSA02.jpg,AFNE17.jpg,AFSA16.jpg,AFNE17.jpg,FN,3,num_2,32,num_6,0.800108409952,,,2017_Nov_14_1155,60.0120685678,MAFE4ImagesEEG,001,102330,
AFNE01.JPG,AFNE01.JPG,AFNE01.JPG,AFNE01.JPG,AFNE01.JPG,AFNE01.JPG,,,,,,,,,,,,,0,3,3,9,,,,,,,,,,,AFSA07.jpg,AFNE04.jpg,AFNE01.jpg,AFSA09.jpg,AFNE04.jpg,FN,3,num_6,16,num_6,0.450191241223,,,2017_Nov_14_1155,60.0120685678,MAFE4ImagesEEG,001,102330,
AFNE01.JPG,AFNE01.JPG,AFNE01.JPG,AFNE01.JPG,AFNE01.JPG,AFNE01.JPG,,,,,,,,,,,,,0,4,4,4,,,,,,,,,,,AFNE14.jpg,AFSA05.jpg,AFNE13.jpg,AFSA07.jpg,AFNE13.jpg,FN,3,num_2,16,num_2,0.716804665048,,,2017_Nov_14_1155,60.0120685678,MAFE4ImagesEEG,001,102330,
AFNE01.JPG,AFNE01.JPG,AFNE01.JPG,AFNE01.JPG,AFNE01.JPG,AFNE01.JPG,,,,,,,,,,,,,0,5,5,5,,,,,,,,,,,AFSA12.jpg,AFNE12.jpg,AFSA16.jpg,AFNE09.jpg,AFNE09.jpg,FN,3,num_4,16,num_4,1.45005396474,,,2017_Nov_14_1155,60.0120685678,MAFE4ImagesEEG,001,102330,
AFNE01.JPG,AFNE01.JPG,AFNE01.JPG,AFNE01.JPG,AFNE01.JPG,AFNE01.JPG,,,,,,,,,,,,,0,6,6,7,,,,,,,,,,,AFNE02.jpg,AFSA05.jpg,AFNE09.jpg,AFSA17.jpg,AFSA17.jpg,FS,4,num_4,16,num_4,1.10011562658,,,2017_Nov_14_1155,60.0120685678,MAFE4ImagesEEG,001,102330,
AFNE01.JPG,AFNE01.JPG,AFNE01.JPG,AFNE01.JPG,AFNE01.JPG,AFNE01.JPG,,,,,,,,,,,,,0,7,7,8,,,,,,,,,,,AFSA09.jpg,AFNE18.jpg,AFNE10.jpg,AFSA19.jpg,AFSA19.jpg,FS,4,num_4,32,num_8,0.666758077685,,,2017_Nov_14_1155,60.0120685678,MAFE4ImagesEEG,001,102330,
AFNE01.JPG,AFNE01.JPG,AFNE01.JPG,AFNE01.JPG,AFNE01.JPG,AFNE01.JPG,,,,,,,,,,,,,0,8,8,2,,,,,,,,,,,AFNE20.jpg,AFNE02.jpg,AFSA01.jpg,AFSA09.jpg,AFSA09.jpg,FS,4,num_4,16,num_4,0.950110574719,,,2017_Nov_14_1155,60.0120685678,MAFE4ImagesEEG,001,102330,
AFNE01.JPG,AFNE01.JPG,AFNE01.JPG,AFNE01.JPG,AFNE01.JPG,AFNE01.JPG,,,,,,,,,,,,,0,9,9,1,,,,,,,,,,,AFNE16.jpg,AFNE06.jpg,AFSA13.jpg,AFSA07.jpg,AFSA13.jpg,FS,4,num_2,32,num_4,0.93346547801,,,2017_Nov_14_1155,60.0120685678,MAFE4ImagesEEG,001,102330,
AFNE01.JPG,AFNE01.JPG,AFNE01.JPG,AFNE01.JPG,AFNE01.JPG,AFNE01.JPG,,,,,,,,,,,,,1,0,10,4,,,,,,,,,,,AFSA05.jpg,AFNE15.jpg,AFSA12.jpg,AFNE18.jpg,AFNE18.jpg,FN,3,num_4,32,num_6,0.800035923254,,,2017_Nov_14_1155,60.0120685678,MAFE4ImagesEEG,001,102330,
AFNE01.JPG,AFNE01.JPG,AFNE01.JPG,AFNE01.JPG,AFNE01.JPG,AFNE01.JPG,,,,,,,,,,,,,1,1,11,9,,,,,,,,,,,AFSA02.jpg,AFSA18.jpg,AFNE01.jpg,AFNE02.jpg,AFNE02.jpg,FN,3,num_4,32,num_2,1.04979416542,,,2017_Nov_14_1155,60.0120685678,MAFE4ImagesEEG,001,102330,
AFNE01.JPG,AFNE01.JPG,AFNE01.JPG,AFNE01.JPG,AFNE01.JPG,AFNE01.JPG,,,,,,,,,,,,,1,2,12,7,,,,,,,,,,,AFNE18.jpg,AFNE08.jpg,AFSA05.jpg,AFSA08.jpg,AFNE18.jpg,FN,3,num_8,16,num_8,0.733455214184,,,2017_Nov_14_1155,60.0120685678,MAFE4ImagesEEG,001,102330,
AFNE01.JPG,AFNE01.JPG,AFNE01.JPG,AFNE01.JPG,AFNE01.JPG,AFNE01.JPG,,,,,,,,,,,,,1,3,13,1,,,,,,,,,,,AFNE03.jpg,AFSA11.jpg,AFSA19.jpg,AFNE08.jpg,AFSA19.jpg,FS,4,num_2,16,num_2,0.650121961255,,,2017_Nov_14_1155,60.0120685678,MAFE4ImagesEEG,001,102330,
AFNE01.JPG,AFNE01.JPG,AFNE01.JPG,AFNE01.JPG,AFNE01.JPG,AFNE01.JPG,,,,,,,,,,,,,1,4,14,0,,,,,,,,,,,AFNE01.jpg,AFSA17.jpg,AFNE11.jpg,AFSA11.jpg,AFNE01.jpg,FN,3,num_8,16,num_8,0.850123885553,,,2017_Nov_14_1155,60.0120685678,MAFE4ImagesEEG,001,102330,
AFNE01.JPG,AFNE01.JPG,AFNE01.JPG,AFNE01.JPG,AFNE01.JPG,AFNE01.JPG,,,,,,,,,,,,,1,5,15,5,,,,,,,,,,,AFNE19.jpg,AFSA02.jpg,AFSA20.jpg,AFNE03.jpg,AFSA02.jpg,FS,4,num_6,16,num_6,0.716805627104,,,2017_Nov_14_1155,60.0120685678,MAFE4ImagesEEG,001,102330,
AFNE01.JPG,AFNE01.JPG,AFNE01.JPG,AFNE01.JPG,AFNE01.JPG,AFNE01.JPG,,,,,,,,,,,,,1,6,16,2,,,,,,,,,,,AFSA02.jpg,AFNE09.jpg,AFSA19.jpg,AFNE15.jpg,AFNE15.jpg,FN,3,num_4,16,num_4,0.550159648061,,,2017_Nov_14_1155,60.0120685678,MAFE4ImagesEEG,001,102330,
AFNE01.JPG,AFNE01.JPG,AFNE01.JPG,AFNE01.JPG,AFNE01.JPG,AFNE01.JPG,,,,,,,,,,,,,1,7,17,3,,,,,,,,,,,AFSA06.jpg,AFNE13.jpg,AFSA16.jpg,AFNE05.jpg,AFNE05.jpg,FN,3,num_4,16,num_4,0.650139601901,,,2017_Nov_14_1155,60.0120685678,MAFE4ImagesEEG,001,102330,
AFNE01.JPG,AFNE01.JPG,AFNE01.JPG,AFNE01.JPG,AFNE01.JPG,AFNE01.JPG,,,,,,,,,,,,,1,8,18,6,,,,,,,,,,,AFSA11.jpg,AFSA12.jpg,AFNE14.jpg,AFNE16.jpg,AFSA12.jpg,FS,4,num_6,16,num_6,0.61681316467,,,2017_Nov_14_1155,60.0120685678,MAFE4ImagesEEG,001,102330,
AFNE01.JPG,AFNE01.JPG,AFNE01.JPG,AFNE01.JPG,AFNE01.JPG,AFNE01.JPG,,,,,,,,,,,,,1,9,19,8,,,,,,,,,,,AFSA04.jpg,AFNE17.jpg,AFNE07.jpg,AFSA02.jpg,AFSA04.jpg,FS,4,num_8,32,num_6,1.01672913041,,,2017_Nov_14_1155,60.0120685678,MAFE4ImagesEEG,001,102330,
AFNE01.JPG,AFNE01.JPG,AFNE01.JPG,AFNE01.JPG,AFNE01.JPG,AFNE01.JPG,,,,,,,,,,,,,2,0,20,2,,,,,,,,,,,AFNE05.jpg,AFSA04.jpg,AFSA05.jpg,AFNE02.jpg,AFSA04.jpg,FS,4,num_6,32,num_2,1.11662922055,,,2017_Nov_14_1155,60.0120685678,MAFE4ImagesEEG,001,102330,
AFNE01.JPG,AFNE01.JPG,AFNE01.JPG,AFNE01.JPG,AFNE01.JPG,AFNE01.JPG,,,,,,,,,,,,,2,1,21,0,,,,,,,,,,,AFNE12.jpg,AFSA01.jpg,AFNE08.jpg,AFSA11.jpg,AFSA11.jpg,FS,4,num_4,16,num_4,0.41685742652,,,2017_Nov_14_1155,60.0120685678,MAFE4ImagesEEG,001,102330,
AFNE01.JPG,AFNE01.JPG,AFNE01.JPG,AFNE01.JPG,AFNE01.JPG,AFNE01.JPG,,,,,,,,,,,,,2,2,22,6,,,,,,,,,,,AFNE16.jpg,AFNE02.jpg,AFSA15.jpg,AFSA20.jpg,AFNE16.jpg,FN,3,num_8,16,num_8,0.533471251372,,,2017_Nov_14_1155,60.0120685678,MAFE4ImagesEEG,001,102330,
AFNE01.JPG,AFNE01.JPG,AFNE01.JPG,AFNE01.JPG,AFNE01.JPG,AFNE01.JPG,,,,,,,,,,,,,2,3,23,5,,,,,,,,,,,AFSA18.jpg,AFSA12.jpg,AFNE12.jpg,AFNE07.jpg,AFNE07.jpg,FN,3,num_4,32,num_6,0.949900811072,,,2017_Nov_14_1155,60.0120685678,MAFE4ImagesEEG,001,102330,
AFNE01.JPG,AFNE01.JPG,AFNE01.JPG,AFNE01.JPG,AFNE01.JPG,AFNE01.JPG,,,,,,,,,,,,,2,4,24,8,,,,,,,,,,,AFSA09.jpg,AFSA07.jpg,AFNE08.jpg,AFNE12.jpg,AFSA07.jpg,FS,4,num_6,32,num_4,0.600022130646,,,2017_Nov_14_1155,60.0120685678,MAFE4ImagesEEG,001,102330,
AFNE01.JPG,AFNE01.JPG,AFNE01.JPG,AFNE01.JPG,AFNE01.JPG,AFNE01.JPG,,,,,,,,,,,,,2,5,25,1,,,,,,,,,,,AFSA11.jpg,AFNE02.jpg,AFNE18.jpg,AFSA05.jpg,AFNE18.jpg,FN,3,num_2,32,num_6,0.666819979902,,,2017_Nov_14_1155,60.0120685678,MAFE4ImagesEEG,001,102330,
AFNE01.JPG,AFNE01.JPG,AFNE01.JPG,AFNE01.JPG,AFNE01.JPG,AFNE01.JPG,,,,,,,,,,,,,2,6,26,7,,,,,,,,,,,AFNE16.jpg,AFSA14.jpg,AFNE15.jpg,AFSA05.jpg,AFSA05.jpg,FS,4,num_4,32,num_8,0.983459143434,,,2017_Nov_14_1155,60.0120685678,MAFE4ImagesEEG,001,102330,
AFNE01.JPG,AFNE01.JPG,AFNE01.JPG,AFNE01.JPG,AFNE01.JPG,AFNE01.JPG,,,,,,,,,,,,,2,7,27,4,,,,,,,,,,,AFSA02.jpg,AFNE20.jpg,AFNE03.jpg,AFSA16.jpg,AFNE03.jpg,FN,3,num_2,16,num_2,0.63348937314,,,2017_Nov_14_1155,60.0120685678,MAFE4ImagesEEG,001,102330,
AFNE01.JPG,AFNE01.JPG,AFNE01.JPG,AFNE01.JPG,AFNE01.JPG,AFNE01.JPG,,,,,,,,,,,,,2,8,28,3,,,,,,,,,,,AFSA09.jpg,AFNE02.jpg,AFSA11.jpg,AFNE15.jpg,AFNE02.jpg,FN,3,num_6,16,num_6,1.1667624074,,,2017_Nov_14_1155,60.0120685678,MAFE4ImagesEEG,001,102330,
AFNE01.JPG,AFNE01.JPG,AFNE01.JPG,AFNE01.JPG,AFNE01.JPG,AFNE01.JPG,,,,,,,,,,,,,2,9,29,9,,,,,,,,,,,AFSA18.jpg,AFNE10.jpg,AFNE04.jpg,AFSA03.jpg,AFSA03.jpg,FS,4,num_4,32,num_8,0.51682070177,,,2017_Nov_14_1155,60.0120685678,MAFE4ImagesEEG,001,102330,
AFNE01.JPG,AFNE01.JPG,AFNE01.JPG,AFNE01.JPG,AFNE01.JPG,AFNE01.JPG,,,,,,,,,,,,,3,0,30,3,,,,,,,,,,,AFSA17.jpg,AFNE18.jpg,AFNE14.jpg,AFSA04.jpg,AFSA04.jpg,FS,4,num_4,32,num_2,0.750154516194,,,2017_Nov_14_1155,60.0120685678,MAFE4ImagesEEG,001,102330,
AFNE01.JPG,AFNE01.JPG,AFNE01.JPG,AFNE01.JPG,AFNE01.JPG,AFNE01.JPG,,,,,,,,,,,,,3,1,31,2,,,,,,,,,,,AFNE04.jpg,AFNE07.jpg,AFSA15.jpg,AFSA02.jpg,AFNE07.jpg,FN,3,num_6,16,num_6,1.01668551052,,,2017_Nov_14_1155,60.0120685678,MAFE4ImagesEEG,001,102330,
AFNE01.JPG,AFNE01.JPG,AFNE01.JPG,AFNE01.JPG,AFNE01.JPG,AFNE01.JPG,,,,,,,,,,,,,3,2,32,9,,,,,,,,,,,AFNE09.jpg,AFSA11.jpg,AFNE14.jpg,AFSA13.jpg,AFNE09.jpg,FN,3,num_8,16,num_8,0.766795764212,,,2017_Nov_14_1155,60.0120685678,MAFE4ImagesEEG,001,102330,
AFNE01.JPG,AFNE01.JPG,AFNE01.JPG,AFNE01.JPG,AFNE01.JPG,AFNE01.JPG,,,,,,,,,,,,,3,3,33,5,,,,,,,,,,,AFNE20.jpg,AFNE11.jpg,AFSA05.jpg,AFSA09.jpg,AFNE20.jpg,FN,3,num_8,32,num_4,1.28345994512,,,2017_Nov_14_1155,60.0120685678,MAFE4ImagesEEG,001,102330,
AFNE01.JPG,AFNE01.JPG,AFNE01.JPG,AFNE01.JPG,AFNE01.JPG,AFNE01.JPG,,,,,,,,,,,,,3,4,34,6,,,,,,,,,,,AFNE12.jpg,AFSA07.jpg,AFNE15.jpg,AFSA14.jpg,AFSA07.jpg,FS,4,num_6,32,num_2,1.04976914776,,,2017_Nov_14_1155,60.0120685678,MAFE4ImagesEEG,001,102330,
AFNE01.JPG,AFNE01.JPG,AFNE01.JPG,AFNE01.JPG,AFNE01.JPG,AFNE01.JPG,,,,,,,,,,,,,3,5,35,0,,,,,,,,,,,AFNE10.jpg,AFSA08.jpg,AFNE04.jpg,AFSA01.jpg,AFSA08.jpg,FS,4,num_6,32,num_4,0.516824230086,,,2017_Nov_14_1155,60.0120685678,MAFE4ImagesEEG,001,102330,
AFNE01.JPG,AFNE01.JPG,AFNE01.JPG,AFNE01.JPG,AFNE01.JPG,AFNE01.JPG,,,,,,,,,,,,,3,6,36,1,,,,,,,,,,,AFNE19.jpg,AFSA15.jpg,AFSA01.jpg,AFNE16.jpg,AFSA15.jpg,FS,4,num_6,16,num_6,0.66682190448,,,2017_Nov_14_1155,60.0120685678,MAFE4ImagesEEG,001,102330,
AFNE01.JPG,AFNE01.JPG,AFNE01.JPG,AFNE01.JPG,AFNE01.JPG,AFNE01.JPG,,,,,,,,,,,,,3,7,37,4,,,,,,,,,,,AFSA04.jpg,AFNE17.jpg,AFNE06.jpg,AFSA09.jpg,AFNE17.jpg,FN,3,num_6,16,num_6,0.763377643656,,,2017_Nov_14_1155,60.0120685678,MAFE4ImagesEEG,001,102330,
AFNE01.JPG,AFNE01.JPG,AFNE01.JPG,AFNE01.JPG,AFNE01.JPG,AFNE01.JPG,,,,,,,,,,,,,3,8,38,8,,,,,,,,,,,AFSA16.jpg,AFSA14.jpg,AFNE02.jpg,AFNE13.jpg,AFNE02.jpg,FN,3,num_2,32,num_8,0.633496108931,,,2017_Nov_14_1155,60.0120685678,MAFE4ImagesEEG,001,102330,
AFNE01.JPG,AFNE01.JPG,AFNE01.JPG,AFNE01.JPG,AFNE01.JPG,AFNE01.JPG,,,,,,,,,,,,,3,9,39,7,,,,,,,,,,,AFNE19.jpg,AFNE01.jpg,AFSA05.jpg,AFSA20.jpg,AFNE19.jpg,FN,3,num_8,16,num_8,1.0834131171,,,2017_Nov_14_1155,60.0120685678,MAFE4ImagesEEG,001,102330,
AFNE01.JPG,AFNE01.JPG,AFNE01.JPG,AFNE01.JPG,AFNE01.JPG,AFNE01.JPG,,,,,,,,,,,,,4,0,40,5,,,,,,,,,,,AFNE18.jpg,AFSA08.jpg,AFSA04.jpg,AFNE04.jpg,AFSA04.jpg,FS,4,num_2,32,num_4,0.933498514351,,,2017_Nov_14_1155,60.0120685678,MAFE4ImagesEEG,001,102330,
AFNE01.JPG,AFNE01.JPG,AFNE01.JPG,AFNE01.JPG,AFNE01.JPG,AFNE01.JPG,,,,,,,,,,,,,4,1,41,3,,,,,,,,,,,AFSA16.jpg,AFSA07.jpg,AFNE12.jpg,AFNE16.jpg,AFSA16.jpg,FS,4,num_8,16,num_8,0.616796806455,,,2017_Nov_14_1155,60.0120685678,MAFE4ImagesEEG,001,102330,
AFNE01.JPG,AFNE01.JPG,AFNE01.JPG,AFNE01.JPG,AFNE01.JPG,AFNE01.JPG,,,,,,,,,,,,,4,2,42,8,,,,,,,,,,,AFNE03.jpg,AFNE10.jpg,AFSA15.jpg,AFSA17.jpg,AFNE10.jpg,FN,3,num_6,16,num_6,0.483479510061,,,2017_Nov_14_1155,60.0120685678,MAFE4ImagesEEG,001,102330,
AFNE01.JPG,AFNE01.JPG,AFNE01.JPG,AFNE01.JPG,AFNE01.JPG,AFNE01.JPG,,,,,,,,,,,,,4,3,43,1,,,,,,,,,,,AFNE18.jpg,AFSA10.jpg,AFNE03.jpg,AFSA17.jpg,AFSA10.jpg,FS,4,num_6,16,num_6,0.850125810131,,,2017_Nov_14_1155,60.0120685678,MAFE4ImagesEEG,001,102330,
AFNE01.JPG,AFNE01.JPG,AFNE01.JPG,AFNE01.JPG,AFNE01.JPG,AFNE01.JPG,,,,,,,,,,,,,4,4,44,6,,,,,,,,,,,AFSA15.jpg,AFSA14.jpg,AFNE08.jpg,AFNE16.jpg,AFNE08.jpg,FN,3,num_2,16,num_2,0.716770987492,,,2017_Nov_14_1155,60.0120685678,MAFE4ImagesEEG,001,102330,
AFNE01.JPG,AFNE01.JPG,AFNE01.JPG,AFNE01.JPG,AFNE01.JPG,AFNE01.JPG,,,,,,,,,,,,,4,5,45,0,,,,,,,,,,,AFSA07.jpg,AFNE08.jpg,AFSA14.jpg,AFNE12.jpg,AFNE08.jpg,FN,3,num_6,16,num_6,1.16673161648,,,2017_Nov_14_1155,60.0120685678,MAFE4ImagesEEG,001,102330,
AFNE01.JPG,AFNE01.JPG,AFNE01.JPG,AFNE01.JPG,AFNE01.JPG,AFNE01.JPG,,,,,,,,,,,,,4,6,46,2,,,,,,,,,,,AFNE03.jpg,AFNE11.jpg,AFSA03.jpg,AFSA09.jpg,AFSA03.jpg,FS,4,num_2,32,num_8,0.966789670289,,,2017_Nov_14_1155,60.0120685678,MAFE4ImagesEEG,001,102330,
AFNE01.JPG,AFNE01.JPG,AFNE01.JPG,AFNE01.JPG,AFNE01.JPG,AFNE01.JPG,,,,,,,,,,,,,4,7,47,9,,,,,,,,,,,AFNE14.jpg,AFSA06.jpg,AFSA01.jpg,AFNE12.jpg,AFNE12.jpg,FN,3,num_4,16,num_4,0.550161572639,,,2017_Nov_14_1155,60.0120685678,MAFE4ImagesEEG,001,102330,
AFNE01.JPG,AFNE01.JPG,AFNE01.JPG,AFNE01.JPG,AFNE01.JPG,AFNE01.JPG,,,,,,,,,,,,,4,8,48,4,,,,,,,,,,,AFNE02.jpg,AFNE06.jpg,AFSA05.jpg,AFSA01.jpg,AFNE06.jpg,FN,3,num_6,16,num_6,0.783476463519,,,2017_Nov_14_1155,60.0120685678,MAFE4ImagesEEG,001,102330,
AFNE01.JPG,AFNE01.JPG,AFNE01.JPG,AFNE01.JPG,AFNE01.JPG,AFNE01.JPG,,,,,,,,,,,,,4,9,49,7,,,,,,,,,,,AFNE06.jpg,AFSA04.jpg,AFSA19.jpg,AFNE20.jpg,AFNE20.jpg,FN,3,num_4,32,num_2,0.900535153691,,,2017_Nov_14_1155,60.0120685678,MAFE4ImagesEEG,001,102330,
AFNE01.JPG,AFNE01.JPG,AFNE01.JPG,AFNE01.JPG,AFNE01.JPG,AFNE01.JPG,,,,,,,,,,,,,5,0,50,0,,,,,,,,,,,AFSA08.jpg,AFSA17.jpg,AFNE19.jpg,AFNE15.jpg,AFNE19.jpg,FN,3,num_2,16,num_2,0.700182019267,,,2017_Nov_14_1155,60.0120685678,MAFE4ImagesEEG,001,102330,
AFNE01.JPG,AFNE01.JPG,AFNE01.JPG,AFNE01.JPG,AFNE01.JPG,AFNE01.JPG,,,,,,,,,,,,,5,1,51,1,,,,,,,,,,,AFNE13.jpg,AFSA08.jpg,AFSA20.jpg,AFNE02.jpg,AFSA20.jpg,FS,4,num_2,16,num_2,0.833454412408,,,2017_Nov_14_1155,60.0120685678,MAFE4ImagesEEG,001,102330,
AFNE01.JPG,AFNE01.JPG,AFNE01.JPG,AFNE01.JPG,AFNE01.JPG,AFNE01.JPG,,,,,,,,,,,,,5,2,52,2,,,,,,,,,,,AFSA14.jpg,AFNE15.jpg,AFNE20.jpg,AFSA16.jpg,AFSA16.jpg,FS,4,num_4,32,num_8,0.583438616246,,,2017_Nov_14_1155,60.0120685678,MAFE4ImagesEEG,001,102330,
AFNE01.JPG,AFNE01.JPG,AFNE01.JPG,AFNE01.JPG,AFNE01.JPG,AFNE01.JPG,,,,,,,,,,,,,5,3,53,7,,,,,,,,,,,AFNE20.jpg,AFSA17.jpg,AFNE06.jpg,AFSA12.jpg,AFSA17.jpg,FS,4,num_6,16,num_6,0.433476222679,,,2017_Nov_14_1155,60.0120685678,MAFE4ImagesEEG,001,102330,
AFNE01.JPG,AFNE01.JPG,AFNE01.JPG,AFNE01.JPG,AFNE01.JPG,AFNE01.JPG,,,,,,,,,,,,,5,4,54,4,,,,,,,,,,,AFSA16.jpg,AFSA18.jpg,AFNE05.jpg,AFNE17.jpg,AFSA16.jpg,FS,4,num_8,16,num_8,0.616788146552,,,2017_Nov_14_1155,60.0120685678,MAFE4ImagesEEG,001,102330,
AFNE01.JPG,AFNE01.JPG,AFNE01.JPG,AFNE01.JPG,AFNE01.JPG,AFNE01.JPG,,,,,,,,,,,,,5,5,55,3,,,,,,,,,,,AFNE01.jpg,AFSA19.jpg,AFNE12.jpg,AFSA12.jpg,AFNE01.jpg,FN,3,num_8,32,num_6,0.900205112528,,,2017_Nov_14_1155,60.0120685678,MAFE4ImagesEEG,001,102330,
AFNE01.JPG,AFNE01.JPG,AFNE01.JPG,AFNE01.JPG,AFNE01.JPG,AFNE01.JPG,,,,,,,,,,,,,5,6,56,9,,,,,,,,,,,AFNE16.jpg,AFSA20.jpg,AFSA12.jpg,AFNE04.jpg,AFNE04.jpg,FN,3,num_4,16,num_4,0.600160049275,,,2017_Nov_14_1155,60.0120685678,MAFE4ImagesEEG,001,102330,
AFNE01.JPG,AFNE01.JPG,AFNE01.JPG,AFNE01.JPG,AFNE01.JPG,AFNE01.JPG,,,,,,,,,,,,,5,7,57,6,,,,,,,,,,,AFNE06.jpg,AFSA07.jpg,AFSA17.jpg,AFNE16.jpg,AFNE06.jpg,FN,3,num_8,32,num_6,0.700160850771,,,2017_Nov_14_1155,60.0120685678,MAFE4ImagesEEG,001,102330,
AFNE01.JPG,AFNE01.JPG,AFNE01.JPG,AFNE01.JPG,AFNE01.JPG,AFNE01.JPG,,,,,,,,,,,,,5,8,58,5,,,,,,,,,,,AFSA16.jpg,AFSA03.jpg,AFNE03.jpg,AFNE08.jpg,AFSA16.jpg,FS,4,num_8,16,num_8,0.650184184313,,,2017_Nov_14_1155,60.0120685678,MAFE4ImagesEEG,001,102330,
AFNE01.JPG,AFNE01.JPG,AFNE01.JPG,AFNE01.JPG,AFNE01.JPG,AFNE01.JPG,,,,,,,,,,,,,5,9,59,8,,,,,,,,,,,AFSA14.jpg,AFNE16.jpg,AFSA12.jpg,AFNE07.jpg,AFSA12.jpg,FS,4,num_2,16,num_2,0.566849006806,,,2017_Nov_14_1155,60.0120685678,MAFE4ImagesEEG,001,102330,
,,,,,,,,,,,,,,,,,,,,,,,,,,,,,,,,,,,,,,,,,,,space,34.9310929677,2017_Nov_14_1155,60.0120685678,MAFE4ImagesEEG,001,102330,
AFNE01.JPG,AFNE01.JPG,AFNE01.JPG,AFNE01.JPG,AFNE01.JPG,AFNE01.JPG,,,,,,,,,,,,,,,,,0,0,0,1,,,,,,,AMNE13.jpg,AMNE17.jpg,AMSA17.jpg,AMSA04.jpg,AMNE17.jpg,MN,1,num_6,16,num_6,0.533460666891,,,2017_Nov_14_1155,60.0120685678,MAFE4ImagesEEG,001,102330,
AFNE01.JPG,AFNE01.JPG,AFNE01.JPG,AFNE01.JPG,AFNE01.JPG,AFNE01.JPG,,,,,,,,,,,,,,,,,0,1,1,7,,,,,,,AMNE03.jpg,AMNE13.jpg,AMSA20.jpg,AMSA15.jpg,AMSA20.jpg,MS,2,num_2,16,num_2,0.667480703443,,,2017_Nov_14_1155,60.0120685678,MAFE4ImagesEEG,001,102330,
AFNE01.JPG,AFNE01.JPG,AFNE01.JPG,AFNE01.JPG,AFNE01.JPG,AFNE01.JPG,,,,,,,,,,,,,,,,,0,2,2,9,,,,,,,AMNE15.jpg,AMNE18.jpg,AMSA13.jpg,AMSA06.jpg,AMSA06.jpg,MS,2,num_4,16,num_4,0.633551275823,,,2017_Nov_14_1155,60.0120685678,MAFE4ImagesEEG,001,102330,
AFNE01.JPG,AFNE01.JPG,AFNE01.JPG,AFNE01.JPG,AFNE01.JPG,AFNE01.JPG,,,,,,,,,,,,,,,,,0,3,3,6,,,,,,,AMSA07.jpg,AMNE08.jpg,AMNE01.jpg,AMSA12.jpg,AMNE01.jpg,MN,1,num_2,16,num_2,0.650197655894,,,2017_Nov_14_1155,60.0120685678,MAFE4ImagesEEG,001,102330,
AFNE01.JPG,AFNE01.JPG,AFNE01.JPG,AFNE01.JPG,AFNE01.JPG,AFNE01.JPG,,,,,,,,,,,,,,,,,0,4,4,8,,,,,,,AMSA14.jpg,AMNE12.jpg,AMNE14.jpg,AMSA04.jpg,AMSA04.jpg,MS,2,num_4,16,num_4,0.55021898495,,,2017_Nov_14_1155,60.0120685678,MAFE4ImagesEEG,001,102330,
AFNE01.JPG,AFNE01.JPG,AFNE01.JPG,AFNE01.JPG,AFNE01.JPG,AFNE01.JPG,,,,,,,,,,,,,,,,,0,5,5,4,,,,,,,AMSA09.jpg,AMNE11.jpg,AMNE13.jpg,AMSA19.jpg,AMNE11.jpg,MN,1,num_6,16,num_6,0.800234781578,,,2017_Nov_14_1155,60.0120685678,MAFE4ImagesEEG,001,102330,
AFNE01.JPG,AFNE01.JPG,AFNE01.JPG,AFNE01.JPG,AFNE01.JPG,AFNE01.JPG,,,,,,,,,,,,,,,,,0,6,6,2,,,,,,,AMNE05.jpg,AMSA08.jpg,AMSA19.jpg,AMNE12.jpg,AMNE05.jpg,MN,1,num_8,16,num_8,0.932696986478,,,2017_Nov_14_1155,60.0120685678,MAFE4ImagesEEG,001,102330,
AFNE01.JPG,AFNE01.JPG,AFNE01.JPG,AFNE01.JPG,AFNE01.JPG,AFNE01.JPG,,,,,,,,,,,,,,,,,0,7,7,0,,,,,,,AMSA05.jpg,AMNE18.jpg,AMSA12.jpg,AMNE01.jpg,AMNE18.jpg,MN,1,num_6,16,num_6,0.650158204604,,,2017_Nov_14_1155,60.0120685678,MAFE4ImagesEEG,001,102330,
AFNE01.JPG,AFNE01.JPG,AFNE01.JPG,AFNE01.JPG,AFNE01.JPG,AFNE01.JPG,,,,,,,,,,,,,,,,,0,8,8,5,,,,,,,AMSA17.jpg,AMNE16.jpg,AMNE20.jpg,AMSA09.jpg,AMNE20.jpg,MN,1,num_2,32,num_8,0.68350100005,,,2017_Nov_14_1155,60.0120685678,MAFE4ImagesEEG,001,102330,
AFNE01.JPG,AFNE01.JPG,AFNE01.JPG,AFNE01.JPG,AFNE01.JPG,AFNE01.JPG,,,,,,,,,,,,,,,,,0,9,9,3,,,,,,,AMNE02.jpg,AMSA08.jpg,AMSA06.jpg,AMNE06.jpg,AMNE02.jpg,MN,1,num_8,32,num_2,0.833520805463,,,2017_Nov_14_1155,60.0120685678,MAFE4ImagesEEG,001,102330,
AFNE01.JPG,AFNE01.JPG,AFNE01.JPG,AFNE01.JPG,AFNE01.JPG,AFNE01.JPG,,,,,,,,,,,,,,,,,1,0,10,5,,,,,,,AMSA14.jpg,AMNE03.jpg,AMNE01.jpg,AMSA12.jpg,AMNE03.jpg,MN,1,num_6,32,num_8,0.600349606015,,,2017_Nov_14_1155,60.0120685678,MAFE4ImagesEEG,001,102330,
AFNE01.JPG,AFNE01.JPG,AFNE01.JPG,AFNE01.JPG,AFNE01.JPG,AFNE01.JPG,,,,,,,,,,,,,,,,,1,1,11,4,,,,,,,AMNE08.jpg,AMSA14.jpg,AMSA09.jpg,AMNE03.jpg,AMSA14.jpg,MS,2,num_6,32,num_4,0.633481675293,,,2017_Nov_14_1155,60.0120685678,MAFE4ImagesEEG,001,102330,
AFNE01.JPG,AFNE01.JPG,AFNE01.JPG,AFNE01.JPG,AFNE01.JPG,AFNE01.JPG,,,,,,,,,,,,,,,,,1,2,12,8,,,,,,,AMSA09.jpg,AMNE01.jpg,AMSA03.jpg,AMNE18.jpg,AMNE18.jpg,MN,1,num_4,32,num_8,0.650104320608,,,2017_Nov_14_1155,60.0120685678,MAFE4ImagesEEG,001,102330,
AFNE01.JPG,AFNE01.JPG,AFNE01.JPG,AFNE01.JPG,AFNE01.JPG,AFNE01.JPG,,,,,,,,,,,,,,,,,1,3,13,9,,,,,,,AMNE10.jpg,AMSA07.jpg,AMNE13.jpg,AMSA09.jpg,AMNE13.jpg,MN,1,num_2,32,num_8,0.783190684393,,,2017_Nov_14_1155,60.0120685678,MAFE4ImagesEEG,001,102330,
AFNE01.JPG,AFNE01.JPG,AFNE01.JPG,AFNE01.JPG,AFNE01.JPG,AFNE01.JPG,,,,,,,,,,,,,,,,,1,4,14,2,,,,,,,AMNE04.jpg,AMSA18.jpg,AMSA20.jpg,AMNE11.jpg,AMSA18.jpg,MS,2,num_6,16,num_6,0.70019003842,,,2017_Nov_14_1155,60.0120685678,MAFE4ImagesEEG,001,102330,
AFNE01.JPG,AFNE01.JPG,AFNE01.JPG,AFNE01.JPG,AFNE01.JPG,AFNE01.JPG,,,,,,,,,,,,,,,,,1,5,15,0,,,,,,,AMNE12.jpg,AMSA14.jpg,AMNE18.jpg,AMSA07.jpg,AMSA14.jpg,MS,2,num_6,16,num_6,0.650135753211,,,2017_Nov_14_1155,60.0120685678,MAFE4ImagesEEG,001,102330,
AFNE01.JPG,AFNE01.JPG,AFNE01.JPG,AFNE01.JPG,AFNE01.JPG,AFNE01.JPG,,,,,,,,,,,,,,,,,1,6,16,6,,,,,,,AMNE20.jpg,AMNE01.jpg,AMSA08.jpg,AMSA05.jpg,AMSA05.jpg,MS,2,num_4,16,num_4,1.01674420573,,,2017_Nov_14_1155,60.0120685678,MAFE4ImagesEEG,001,102330,
AFNE01.JPG,AFNE01.JPG,AFNE01.JPG,AFNE01.JPG,AFNE01.JPG,AFNE01.JPG,,,,,,,,,,,,,,,,,1,7,17,7,,,,,,,AMNE02.jpg,AMSA09.jpg,AMNE07.jpg,AMSA04.jpg,AMNE07.jpg,MN,1,num_2,16,num_2,0.883315612096,,,2017_Nov_14_1155,60.0120685678,MAFE4ImagesEEG,001,102330,
AFNE01.JPG,AFNE01.JPG,AFNE01.JPG,AFNE01.JPG,AFNE01.JPG,AFNE01.JPG,,,,,,,,,,,,,,,,,1,8,18,3,,,,,,,AMNE06.jpg,AMNE07.jpg,AMSA10.jpg,AMSA01.jpg,AMNE06.jpg,MN,1,num_8,32,num_6,0.833495788276,,,2017_Nov_14_1155,60.0120685678,MAFE4ImagesEEG,001,102330,
AFNE01.JPG,AFNE01.JPG,AFNE01.JPG,AFNE01.JPG,AFNE01.JPG,AFNE01.JPG,,,,,,,,,,,,,,,,,1,9,19,1,,,,,,,AMSA01.jpg,AMNE08.jpg,AMNE18.jpg,AMSA02.jpg,AMSA02.jpg,MS,2,num_4,32,num_8,0.666820942424,,,2017_Nov_14_1155,60.0120685678,MAFE4ImagesEEG,001,102330,
AFNE01.JPG,AFNE01.JPG,AFNE01.JPG,AFNE01.JPG,AFNE01.JPG,AFNE01.JPG,,,,,,,,,,,,,,,,,2,0,20,5,,,,,,,AMNE06.jpg,AMSA19.jpg,AMNE20.jpg,AMSA05.jpg,AMNE06.jpg,MN,1,num_8,32,num_6,0.950101915281,,,2017_Nov_14_1155,60.0120685678,MAFE4ImagesEEG,001,102330,
AFNE01.JPG,AFNE01.JPG,AFNE01.JPG,AFNE01.JPG,AFNE01.JPG,AFNE01.JPG,,,,,,,,,,,,,,,,,2,1,21,0,,,,,,,AMNE15.jpg,AMSA05.jpg,AMNE13.jpg,AMSA12.jpg,AMNE13.jpg,MN,1,num_2,32,num_8,0.649983722251,,,2017_Nov_14_1155,60.0120685678,MAFE4ImagesEEG,001,102330,
AFNE01.JPG,AFNE01.JPG,AFNE01.JPG,AFNE01.JPG,AFNE01.JPG,AFNE01.JPG,,,,,,,,,,,,,,,,,2,2,22,2,,,,,,,AMNE20.jpg,AMSA02.jpg,AMSA07.jpg,AMNE07.jpg,AMSA07.jpg,MS,2,num_2,32,num_8,0.650169751607,,,2017_Nov_14_1155,60.0120685678,MAFE4ImagesEEG,001,102330,
AFNE01.JPG,AFNE01.JPG,AFNE01.JPG,AFNE01.JPG,AFNE01.JPG,AFNE01.JPG,,,,,,,,,,,,,,,,,2,3,23,4,,,,,,,AMNE18.jpg,AMNE10.jpg,AMSA08.jpg,AMSA19.jpg,AMSA08.jpg,MS,2,num_2,16,num_2,1.2501014336,,,2017_Nov_14_1155,60.0120685678,MAFE4ImagesEEG,001,102330,
AFNE01.JPG,AFNE01.JPG,AFNE01.JPG,AFNE01.JPG,AFNE01.JPG,AFNE01.JPG,,,,,,,,,,,,,,,,,2,4,24,6,,,,,,,AMNE04.jpg,AMSA02.jpg,AMSA20.jpg,AMNE19.jpg,AMNE04.jpg,MN,1,num_8,32,num_6,0.666790472344,,,2017_Nov_14_1155,60.0120685678,MAFE4ImagesEEG,001,102330,
AFNE01.JPG,AFNE01.JPG,AFNE01.JPG,AFNE01.JPG,AFNE01.JPG,AFNE01.JPG,,,,,,,,,,,,,,,,,2,5,25,1,,,,,,,AMSA01.jpg,AMSA02.jpg,AMNE16.jpg,AMNE08.jpg,AMNE08.jpg,MN,1,num_4,32,num_8,0.350180496462,,,2017_Nov_14_1155,60.0120685678,MAFE4ImagesEEG,001,102330,
AFNE01.JPG,AFNE01.JPG,AFNE01.JPG,AFNE01.JPG,AFNE01.JPG,AFNE01.JPG,,,,,,,,,,,,,,,,,2,6,26,9,,,,,,,AMSA15.jpg,AMSA03.jpg,AMNE12.jpg,AMNE15.jpg,AMSA15.jpg,MS,2,num_8,32,num_6,0.8670268571,,,2017_Nov_14_1155,60.0120685678,MAFE4ImagesEEG,001,102330,
AFNE01.JPG,AFNE01.JPG,AFNE01.JPG,AFNE01.JPG,AFNE01.JPG,AFNE01.JPG,,,,,,,,,,,,,,,,,2,7,27,7,,,,,,,AMNE07.jpg,AMNE12.jpg,AMSA12.jpg,AMSA17.jpg,AMSA17.jpg,MS,2,num_4,16,num_4,0.466905617621,,,2017_Nov_14_1155,60.0120685678,MAFE4ImagesEEG,001,102330,
AFNE01.JPG,AFNE01.JPG,AFNE01.JPG,AFNE01.JPG,AFNE01.JPG,AFNE01.JPG,,,,,,,,,,,,,,,,,2,8,28,3,,,,,,,AMNE03.jpg,AMNE10.jpg,AMSA06.jpg,AMSA15.jpg,AMSA15.jpg,MS,2,num_4,16,num_4,0.60004811082,,,2017_Nov_14_1155,60.0120685678,MAFE4ImagesEEG,001,102330,
AFNE01.JPG,AFNE01.JPG,AFNE01.JPG,AFNE01.JPG,AFNE01.JPG,AFNE01.JPG,,,,,,,,,,,,,,,,,2,9,29,8,,,,,,,AMNE19.jpg,AMNE13.jpg,AMSA02.jpg,AMSA19.jpg,AMSA19.jpg,MS,2,num_4,16,num_4,0.600154917222,,,2017_Nov_14_1155,60.0120685678,MAFE4ImagesEEG,001,102330,
AFNE01.JPG,AFNE01.JPG,AFNE01.JPG,AFNE01.JPG,AFNE01.JPG,AFNE01.JPG,,,,,,,,,,,,,,,,,3,0,30,1,,,,,,,AMNE14.jpg,AMSA14.jpg,AMNE17.jpg,AMSA13.jpg,AMNE14.jpg,MN,1,num_8,16,num_8,0.750152592082,,,2017_Nov_14_1155,60.0120685678,MAFE4ImagesEEG,001,102330,
AFNE01.JPG,AFNE01.JPG,AFNE01.JPG,AFNE01.JPG,AFNE01.JPG,AFNE01.JPG,,,,,,,,,,,,,,,,,3,1,31,9,,,,,,,AMNE17.jpg,AMNE10.jpg,AMSA17.jpg,AMSA09.jpg,AMSA17.jpg,MS,2,num_2,16,num_2,0.700200622436,,,2017_Nov_14_1155,60.0120685678,MAFE4ImagesEEG,001,102330,
AFNE01.JPG,AFNE01.JPG,AFNE01.JPG,AFNE01.JPG,AFNE01.JPG,AFNE01.JPG,,,,,,,,,,,,,,,,,3,2,32,4,,,,,,,AMSA06.jpg,AMSA02.jpg,AMNE14.jpg,AMNE02.jpg,AMNE14.jpg,MN,1,num_2,16,num_2,0.5667890287,,,2017_Nov_14_1155,60.0120685678,MAFE4ImagesEEG,001,102330,
AFNE01.JPG,AFNE01.JPG,AFNE01.JPG,AFNE01.JPG,AFNE01.JPG,AFNE01.JPG,,,,,,,,,,,,,,,,,3,3,33,8,,,,,,,AMNE03.jpg,AMNE15.jpg,AMSA13.jpg,AMSA04.jpg,AMSA04.jpg,MS,2,num_4,16,num_4,0.716411117464,,,2017_Nov_14_1155,60.0120685678,MAFE4ImagesEEG,001,102330,
AFNE01.JPG,AFNE01.JPG,AFNE01.JPG,AFNE01.JPG,AFNE01.JPG,AFNE01.JPG,,,,,,,,,,,,,,,,,3,4,34,6,,,,,,,AMSA10.jpg,AMNE04.jpg,AMNE11.jpg,AMSA18.jpg,AMSA10.jpg,MS,2,num_8,16,num_8,0.783366770484,,,2017_Nov_14_1155,60.0120685678,MAFE4ImagesEEG,001,102330,
AFNE01.JPG,AFNE01.JPG,AFNE01.JPG,AFNE01.JPG,AFNE01.JPG,AFNE01.JPG,,,,,,,,,,,,,,,,,3,5,35,5,,,,,,,AMSA18.jpg,AMNE14.jpg,AMSA07.jpg,AMNE11.jpg,AMSA18.jpg,MS,2,num_8,16,num_8,0.983607325237,,,2017_Nov_14_1155,60.0120685678,MAFE4ImagesEEG,001,102330,
AFNE01.JPG,AFNE01.JPG,AFNE01.JPG,AFNE01.JPG,AFNE01.JPG,AFNE01.JPG,,,,,,,,,,,,,,,,,3,6,36,0,,,,,,,AMSA09.jpg,AMNE10.jpg,AMSA11.jpg,AMNE14.jpg,AMSA11.jpg,MS,2,num_2,16,num_2,1.26670836285,,,2017_Nov_14_1155,60.0120685678,MAFE4ImagesEEG,001,102330,
AFNE01.JPG,AFNE01.JPG,AFNE01.JPG,AFNE01.JPG,AFNE01.JPG,AFNE01.JPG,,,,,,,,,,,,,,,,,3,7,37,7,,,,,,,AMNE07.jpg,AMSA08.jpg,AMNE18.jpg,AMSA16.jpg,AMNE07.jpg,MN,1,num_8,16,num_8,0.816793920007,,,2017_Nov_14_1155,60.0120685678,MAFE4ImagesEEG,001,102330,
AFNE01.JPG,AFNE01.JPG,AFNE01.JPG,AFNE01.JPG,AFNE01.JPG,AFNE01.JPG,,,,,,,,,,,,,,,,,3,8,38,3,,,,,,,AMSA19.jpg,AMNE11.jpg,AMSA05.jpg,AMNE04.jpg,AMSA19.jpg,MS,2,num_8,16,num_8,0.766790953465,,,2017_Nov_14_1155,60.0120685678,MAFE4ImagesEEG,001,102330,
AFNE01.JPG,AFNE01.JPG,AFNE01.JPG,AFNE01.JPG,AFNE01.JPG,AFNE01.JPG,,,,,,,,,,,,,,,,,3,9,39,2,,,,,,,AMSA20.jpg,AMNE01.jpg,AMNE11.jpg,AMSA19.jpg,AMSA20.jpg,MS,2,num_8,16,num_8,0.500465232879,,,2017_Nov_14_1155,60.0120685678,MAFE4ImagesEEG,001,102330,
AFNE01.JPG,AFNE01.JPG,AFNE01.JPG,AFNE01.JPG,AFNE01.JPG,AFNE01.JPG,,,,,,,,,,,,,,,,,4,0,40,0,,,,,,,AMNE09.jpg,AMNE08.jpg,AMSA14.jpg,AMSA01.jpg,AMNE08.jpg,MN,1,num_6,16,num_6,0.816775958985,,,2017_Nov_14_1155,60.0120685678,MAFE4ImagesEEG,001,102330,
AFNE01.JPG,AFNE01.JPG,AFNE01.JPG,AFNE01.JPG,AFNE01.JPG,AFNE01.JPG,,,,,,,,,,,,,,,,,4,1,41,9,,,,,,,AMNE15.jpg,AMSA20.jpg,AMNE02.jpg,AMSA01.jpg,AMSA01.jpg,MS,2,num_4,16,num_4,0.600124767981,,,2017_Nov_14_1155,60.0120685678,MAFE4ImagesEEG,001,102330,
AFNE01.JPG,AFNE01.JPG,AFNE01.JPG,AFNE01.JPG,AFNE01.JPG,AFNE01.JPG,,,,,,,,,,,,,,,,,4,2,42,1,,,,,,,AMNE13.jpg,AMSA17.jpg,AMNE19.jpg,AMSA11.jpg,AMNE13.jpg,MN,1,num_8,32,num_2,0.800162935629,,,2017_Nov_14_1155,60.0120685678,MAFE4ImagesEEG,001,102330,
AFNE01.JPG,AFNE01.JPG,AFNE01.JPG,AFNE01.JPG,AFNE01.JPG,AFNE01.JPG,,,,,,,,,,,,,,,,,4,3,43,4,,,,,,,AMNE01.jpg,AMNE07.jpg,AMSA13.jpg,AMSA15.jpg,AMSA15.jpg,MS,2,num_4,32,num_6,0.900133908726,,,2017_Nov_14_1155,60.0120685678,MAFE4ImagesEEG,001,102330,
AFNE01.JPG,AFNE01.JPG,AFNE01.JPG,AFNE01.JPG,AFNE01.JPG,AFNE01.JPG,,,,,,,,,,,,,,,,,4,4,44,3,,,,,,,AMNE17.jpg,AMNE08.jpg,AMSA14.jpg,AMSA11.jpg,AMNE17.jpg,MN,1,num_8,32,num_6,0.750126932282,,,2017_Nov_14_1155,60.0120685678,MAFE4ImagesEEG,001,102330,
AFNE01.JPG,AFNE01.JPG,AFNE01.JPG,AFNE01.JPG,AFNE01.JPG,AFNE01.JPG,,,,,,,,,,,,,,,,,4,5,45,5,,,,,,,AMSA10.jpg,AMNE05.jpg,AMNE18.jpg,AMSA02.jpg,AMSA02.jpg,MS,2,num_4,16,num_4,0.300171756186,,,2017_Nov_14_1155,60.0120685678,MAFE4ImagesEEG,001,102330,
AFNE01.JPG,AFNE01.JPG,AFNE01.JPG,AFNE01.JPG,AFNE01.JPG,AFNE01.JPG,,,,,,,,,,,,,,,,,4,6,46,6,,,,,,,AMNE06.jpg,AMNE16.jpg,AMSA04.jpg,AMSA09.jpg,AMNE16.jpg,MN,1,num_6,16,num_6,0.916765213944,,,2017_Nov_14_1155,60.0120685678,MAFE4ImagesEEG,001,102330,
AFNE01.JPG,AFNE01.JPG,AFNE01.JPG,AFNE01.JPG,AFNE01.JPG,AFNE01.JPG,,,,,,,,,,,,,,,,,4,7,47,8,,,,,,,AMNE16.jpg,AMSA14.jpg,AMNE17.jpg,AMSA16.jpg,AMNE16.jpg,MN,1,num_8,16,num_8,0.68345770007,,,2017_Nov_14_1155,60.0120685678,MAFE4ImagesEEG,001,102330,
AFNE01.JPG,AFNE01.JPG,AFNE01.JPG,AFNE01.JPG,AFNE01.JPG,AFNE01.JPG,,,,,,,,,,,,,,,,,4,8,48,2,,,,,,,AMNE01.jpg,AMSA07.jpg,AMSA17.jpg,AMNE08.jpg,AMNE01.jpg,MN,1,num_8,16,num_8,0.566446799785,,,2017_Nov_14_1155,60.0120685678,MAFE4ImagesEEG,001,102330,
AFNE01.JPG,AFNE01.JPG,AFNE01.JPG,AFNE01.JPG,AFNE01.JPG,AFNE01.JPG,,,,,,,,,,,,,,,,,4,9,49,7,,,,,,,AMNE07.jpg,AMNE15.jpg,AMSA14.jpg,AMSA07.jpg,AMNE07.jpg,MN,1,num_8,16,num_8,0.800149464514,,,2017_Nov_14_1155,60.0120685678,MAFE4ImagesEEG,001,102330,
AFNE01.JPG,AFNE01.JPG,AFNE01.JPG,AFNE01.JPG,AFNE01.JPG,AFNE01.JPG,,,,,,,,,,,,,,,,,5,0,50,5,,,,,,,AMSA16.jpg,AMNE05.jpg,AMSA11.jpg,AMNE02.jpg,AMSA16.jpg,MS,2,num_8,16,num_8,0.733507815748,,,2017_Nov_14_1155,60.0120685678,MAFE4ImagesEEG,001,102330,
AFNE01.JPG,AFNE01.JPG,AFNE01.JPG,AFNE01.JPG,AFNE01.JPG,AFNE01.JPG,,,,,,,,,,,,,,,,,5,1,51,8,,,,,,,AMSA09.jpg,AMSA20.jpg,AMNE10.jpg,AMNE20.jpg,AMSA09.jpg,MS,2,num_8,32,num_2,1.0834031743,,,2017_Nov_14_1155,60.0120685678,MAFE4ImagesEEG,001,102330,
AFNE01.JPG,AFNE01.JPG,AFNE01.JPG,AFNE01.JPG,AFNE01.JPG,AFNE01.JPG,,,,,,,,,,,,,,,,,5,2,52,9,,,,,,,AMSA12.jpg,AMNE01.jpg,AMSA16.jpg,AMNE18.jpg,AMSA12.jpg,MS,2,num_8,16,num_8,0.616822465789,,,2017_Nov_14_1155,60.0120685678,MAFE4ImagesEEG,001,102330,
AFNE01.JPG,AFNE01.JPG,AFNE01.JPG,AFNE01.JPG,AFNE01.JPG,AFNE01.JPG,,,,,,,,,,,,,,,,,5,3,53,7,,,,,,,AMNE16.jpg,AMNE06.jpg,AMSA16.jpg,AMSA14.jpg,AMNE16.jpg,MN,1,num_8,32,num_6,0.83343516849,,,2017_Nov_14_1155,60.0120685678,MAFE4ImagesEEG,001,102330,
AFNE01.JPG,AFNE01.JPG,AFNE01.JPG,AFNE01.JPG,AFNE01.JPG,AFNE01.JPG,,,,,,,,,,,,,,,,,5,4,54,0,,,,,,,AMSA04.jpg,AMSA19.jpg,AMNE16.jpg,AMNE17.jpg,AMSA04.jpg,MS,2,num_8,16,num_8,0.616832408588,,,2017_Nov_14_1155,60.0120685678,MAFE4ImagesEEG,001,102330,
AFNE01.JPG,AFNE01.JPG,AFNE01.JPG,AFNE01.JPG,AFNE01.JPG,AFNE01.JPG,,,,,,,,,,,,,,,,,5,5,55,1,,,,,,,AMSA07.jpg,AMSA15.jpg,AMNE12.jpg,AMNE18.jpg,AMSA07.jpg,MS,2,num_8,32,num_2,1.0167570347,,,2017_Nov_14_1155,60.0120685678,MAFE4ImagesEEG,001,102330,
AFNE01.JPG,AFNE01.JPG,AFNE01.JPG,AFNE01.JPG,AFNE01.JPG,AFNE01.JPG,,,,,,,,,,,,,,,,,5,6,56,4,,,,,,,AMSA09.jpg,AMNE14.jpg,AMSA03.jpg,AMNE03.jpg,AMNE14.jpg,MN,1,num_6,16,num_6,0.750105763786,,,2017_Nov_14_1155,60.0120685678,MAFE4ImagesEEG,001,102330,
AFNE01.JPG,AFNE01.JPG,AFNE01.JPG,AFNE01.JPG,AFNE01.JPG,AFNE01.JPG,,,,,,,,,,,,,,,,,5,7,57,6,,,,,,,AMNE05.jpg,AMSA11.jpg,AMNE16.jpg,AMSA02.jpg,AMNE16.jpg,MN,1,num_2,32,num_8,0.666783094872,,,2017_Nov_14_1155,60.0120685678,MAFE4ImagesEEG,001,102330,
AFNE01.JPG,AFNE01.JPG,AFNE01.JPG,AFNE01.JPG,AFNE01.JPG,AFNE01.JPG,,,,,,,,,,,,,,,,,5,8,58,2,,,,,,,AMNE15.jpg,AMNE20.jpg,AMSA13.jpg,AMSA02.jpg,AMNE20.jpg,MN,1,num_6,16,num_6,0.650152752176,,,2017_Nov_14_1155,60.0120685678,MAFE4ImagesEEG,001,102330,
AFNE01.JPG,AFNE01.JPG,AFNE01.JPG,AFNE01.JPG,AFNE01.JPG,AFNE01.JPG,,,,,,,,,,,,,,,,,5,9,59,3,,,,,,,AMNE18.jpg,AMSA20.jpg,AMSA17.jpg,AMNE06.jpg,AMNE06.jpg,MN,1,num_4,32,num_8,0.683502282947,,,2017_Nov_14_1155,60.0120685678,MAFE4ImagesEEG,001,102330,
,,,,,,,,,,,,,,,,,,,,,,,,,,,,,,,,,,,,,,,,,,,space,52.3627329571,2017_Nov_14_1155,60.0120685678,MAFE4ImagesEEG,001,102330,
AFNE01.JPG,AFNE01.JPG,AFNE01.JPG,AFNE01.JPG,AFNE01.JPG,AFNE01.JPG,,,,,,,,,,,,,,,,,,,,,0,0,0,3,,,AFNE12.jpg,AFSA16.jpg,AFSA08.jpg,AFNE19.jpg,AFNE19.jpg,FN,3,num_4,16,num_4,0.483421456534,,,2017_Nov_14_1155,60.0120685678,MAFE4ImagesEEG,001,102330,
AFNE01.JPG,AFNE01.JPG,AFNE01.JPG,AFNE01.JPG,AFNE01.JPG,AFNE01.JPG,,,,,,,,,,,,,,,,,,,,,0,1,1,1,,,AFNE19.jpg,AFSA08.jpg,AFSA04.jpg,AFNE16.jpg,AFSA08.jpg,FS,4,num_6,16,num_6,0.533494344447,,,2017_Nov_14_1155,60.0120685678,MAFE4ImagesEEG,001,102330,
AFNE01.JPG,AFNE01.JPG,AFNE01.JPG,AFNE01.JPG,AFNE01.JPG,AFNE01.JPG,,,,,,,,,,,,,,,,,,,,,0,2,2,7,,,AFSA19.jpg,AFNE20.jpg,AFNE12.jpg,AFSA04.jpg,AFSA04.jpg,FS,4,num_4,16,num_4,0.71683321055,,,2017_Nov_14_1155,60.0120685678,MAFE4ImagesEEG,001,102330,
AFNE01.JPG,AFNE01.JPG,AFNE01.JPG,AFNE01.JPG,AFNE01.JPG,AFNE01.JPG,,,,,,,,,,,,,,,,,,,,,0,3,3,2,,,AFSA13.jpg,AFSA10.jpg,AFNE15.jpg,AFNE01.jpg,AFNE15.jpg,FN,3,num_2,32,num_6,0.88344743615,,,2017_Nov_14_1155,60.0120685678,MAFE4ImagesEEG,001,102330,
AFNE01.JPG,AFNE01.JPG,AFNE01.JPG,AFNE01.JPG,AFNE01.JPG,AFNE01.JPG,,,,,,,,,,,,,,,,,,,,,0,4,4,5,,,AFNE14.jpg,AFSA14.jpg,AFNE09.jpg,AFSA11.jpg,AFNE14.jpg,FN,3,num_8,32,num_2,0.866785019636,,,2017_Nov_14_1155,60.0120685678,MAFE4ImagesEEG,001,102330,
AFNE01.JPG,AFNE01.JPG,AFNE01.JPG,AFNE01.JPG,AFNE01.JPG,AFNE01.JPG,,,,,,,,,,,,,,,,,,,,,0,5,5,8,,,AFSA09.jpg,AFNE05.jpg,AFNE16.jpg,AFSA19.jpg,AFNE05.jpg,FN,3,num_6,16,num_6,0.733581906185,,,2017_Nov_14_1155,60.0120685678,MAFE4ImagesEEG,001,102330,
AFNE01.JPG,AFNE01.JPG,AFNE01.JPG,AFNE01.JPG,AFNE01.JPG,AFNE01.JPG,,,,,,,,,,,,,,,,,,,,,0,6,6,0,,,AFSA19.jpg,AFNE19.jpg,AFSA20.jpg,AFNE08.jpg,AFSA20.jpg,FS,4,num_2,16,num_2,0.916825833265,,,2017_Nov_14_1155,60.0120685678,MAFE4ImagesEEG,001,102330,
AFNE01.JPG,AFNE01.JPG,AFNE01.JPG,AFNE01.JPG,AFNE01.JPG,AFNE01.JPG,,,,,,,,,,,,,,,,,,,,,0,7,7,9,,,AFNE14.jpg,AFNE07.jpg,AFSA15.jpg,AFSA06.jpg,AFSA06.jpg,FS,4,num_4,32,num_8,0.60015074769,,,2017_Nov_14_1155,60.0120685678,MAFE4ImagesEEG,001,102330,
AFNE01.JPG,AFNE01.JPG,AFNE01.JPG,AFNE01.JPG,AFNE01.JPG,AFNE01.JPG,,,,,,,,,,,,,,,,,,,,,0,8,8,6,,,AFSA04.jpg,AFNE03.jpg,AFSA09.jpg,AFNE14.jpg,AFNE03.jpg,FN,3,num_6,16,num_6,0.533518079203,,,2017_Nov_14_1155,60.0120685678,MAFE4ImagesEEG,001,102330,
AFNE01.JPG,AFNE01.JPG,AFNE01.JPG,AFNE01.JPG,AFNE01.JPG,AFNE01.JPG,,,,,,,,,,,,,,,,,,,,,0,9,9,4,,,AFSA15.jpg,AFSA17.jpg,AFNE09.jpg,AFNE10.jpg,AFSA15.jpg,FS,4,num_8,16,num_8,0.600195971783,,,2017_Nov_14_1155,60.0120685678,MAFE4ImagesEEG,001,102330,
AFNE01.JPG,AFNE01.JPG,AFNE01.JPG,AFNE01.JPG,AFNE01.JPG,AFNE01.JPG,,,,,,,,,,,,,,,,,,,,,1,0,10,4,,,AFSA16.jpg,AFSA11.jpg,AFNE13.jpg,AFNE05.jpg,AFSA16.jpg,FS,4,num_8,32,num_2,0.833479750901,,,2017_Nov_14_1155,60.0120685678,MAFE4ImagesEEG,001,102330,
AFNE01.JPG,AFNE01.JPG,AFNE01.JPG,AFNE01.JPG,AFNE01.JPG,AFNE01.JPG,,,,,,,,,,,,,,,,,,,,,1,1,11,5,,,AFNE17.jpg,AFSA17.jpg,AFSA10.jpg,AFNE09.jpg,AFSA10.jpg,FS,4,num_2,32,num_8,2.03344190354,,,2017_Nov_14_1155,60.0120685678,MAFE4ImagesEEG,001,102330,
AFNE01.JPG,AFNE01.JPG,AFNE01.JPG,AFNE01.JPG,AFNE01.JPG,AFNE01.JPG,,,,,,,,,,,,,,,,,,,,,1,2,12,9,,,AFNE16.jpg,AFSA20.jpg,AFNE11.jpg,AFSA16.jpg,AFSA20.jpg,FS,4,num_6,16,num_6,0.600165180862,,,2017_Nov_14_1155,60.0120685678,MAFE4ImagesEEG,001,102330,
AFNE01.JPG,AFNE01.JPG,AFNE01.JPG,AFNE01.JPG,AFNE01.JPG,AFNE01.JPG,,,,,,,,,,,,,,,,,,,,,1,3,13,3,,,AFSA06.jpg,AFSA17.jpg,AFNE06.jpg,AFNE13.jpg,AFSA17.jpg,FS,4,num_6,32,num_2,1.00008210959,,,2017_Nov_14_1155,60.0120685678,MAFE4ImagesEEG,001,102330,
AFNE01.JPG,AFNE01.JPG,AFNE01.JPG,AFNE01.JPG,AFNE01.JPG,AFNE01.JPG,,,,,,,,,,,,,,,,,,,,,1,4,14,1,,,AFSA12.jpg,AFNE01.jpg,AFSA05.jpg,AFNE17.jpg,AFSA12.jpg,FS,4,num_8,16,num_8,0.733611414209,,,2017_Nov_14_1155,60.0120685678,MAFE4ImagesEEG,001,102330,
AFNE01.JPG,AFNE01.JPG,AFNE01.JPG,AFNE01.JPG,AFNE01.JPG,AFNE01.JPG,,,,,,,,,,,,,,,,,,,,,1,5,15,8,,,AFNE11.jpg,AFSA01.jpg,AFSA11.jpg,AFNE12.jpg,AFSA01.jpg,FS,4,num_6,32,num_2,0.616910669021,,,2017_Nov_14_1155,60.0120685678,MAFE4ImagesEEG,001,102330,
AFNE01.JPG,AFNE01.JPG,AFNE01.JPG,AFNE01.JPG,AFNE01.JPG,AFNE01.JPG,,,,,,,,,,,,,,,,,,,,,1,6,16,7,,,AFNE08.jpg,AFSA14.jpg,AFNE04.jpg,AFSA15.jpg,AFSA14.jpg,FS,4,num_6,16,num_6,0.31685085129,,,2017_Nov_14_1155,60.0120685678,MAFE4ImagesEEG,001,102330,
AFNE01.JPG,AFNE01.JPG,AFNE01.JPG,AFNE01.JPG,AFNE01.JPG,AFNE01.JPG,,,,,,,,,,,,,,,,,,,,,1,7,17,6,,,AFNE10.jpg,AFNE15.jpg,AFSA18.jpg,AFSA04.jpg,AFNE15.jpg,FN,3,num_6,32,num_8,0.633578538895,,,2017_Nov_14_1155,60.0120685678,MAFE4ImagesEEG,001,102330,
AFNE01.JPG,AFNE01.JPG,AFNE01.JPG,AFNE01.JPG,AFNE01.JPG,AFNE01.JPG,,,,,,,,,,,,,,,,,,,,,1,8,18,0,,,AFSA08.jpg,AFNE05.jpg,AFSA09.jpg,AFNE19.jpg,AFSA08.jpg,FS,4,num_8,16,num_8,0.600690231193,,,2017_Nov_14_1155,60.0120685678,MAFE4ImagesEEG,001,102330,
AFNE01.JPG,AFNE01.JPG,AFNE01.JPG,AFNE01.JPG,AFNE01.JPG,AFNE01.JPG,,,,,,,,,,,,,,,,,,,,,1,9,19,2,,,AFSA16.jpg,AFSA15.jpg,AFNE15.jpg,AFNE04.jpg,AFNE15.jpg,FN,3,num_2,32,num_4,1.26675711526,,,2017_Nov_14_1155,60.0120685678,MAFE4ImagesEEG,001,102330,
AFNE01.JPG,AFNE01.JPG,AFNE01.JPG,AFNE01.JPG,AFNE01.JPG,AFNE01.JPG,,,,,,,,,,,,,,,,,,,,,2,0,20,8,,,AFSA03.jpg,AFSA13.jpg,AFNE18.jpg,AFNE05.jpg,AFSA13.jpg,FS,4,num_6,32,num_8,0.616778524593,,,2017_Nov_14_1155,60.0120685678,MAFE4ImagesEEG,001,102330,
AFNE01.JPG,AFNE01.JPG,AFNE01.JPG,AFNE01.JPG,AFNE01.JPG,AFNE01.JPG,,,,,,,,,,,,,,,,,,,,,2,1,21,1,,,AFSA09.jpg,AFSA12.jpg,AFNE08.jpg,AFNE17.jpg,AFSA09.jpg,FS,4,num_8,16,num_8,0.683537885081,,,2017_Nov_14_1155,60.0120685678,MAFE4ImagesEEG,001,102330,
AFNE01.JPG,AFNE01.JPG,AFNE01.JPG,AFNE01.JPG,AFNE01.JPG,AFNE01.JPG,,,,,,,,,,,,,,,,,,,,,2,2,22,6,,,AFNE17.jpg,AFNE14.jpg,AFSA07.jpg,AFSA08.jpg,AFSA07.jpg,FS,4,num_2,16,num_2,0.750142007601,,,2017_Nov_14_1155,60.0120685678,MAFE4ImagesEEG,001,102330,
AFNE01.JPG,AFNE01.JPG,AFNE01.JPG,AFNE01.JPG,AFNE01.JPG,AFNE01.JPG,,,,,,,,,,,,,,,,,,,,,2,3,23,5,,,AFNE07.jpg,AFNE12.jpg,AFSA14.jpg,AFSA11.jpg,AFNE07.jpg,FN,3,num_8,32,num_6,0.733454252128,,,2017_Nov_14_1155,60.0120685678,MAFE4ImagesEEG,001,102330,
AFNE01.JPG,AFNE01.JPG,AFNE01.JPG,AFNE01.JPG,AFNE01.JPG,AFNE01.JPG,,,,,,,,,,,,,,,,,,,,,2,4,24,4,,,AFSA15.jpg,AFSA20.jpg,AFNE16.jpg,AFNE15.jpg,AFSA15.jpg,FS,4,num_8,16,num_8,0.766824951395,,,2017_Nov_14_1155,60.0120685678,MAFE4ImagesEEG,001,102330,
AFNE01.JPG,AFNE01.JPG,AFNE01.JPG,AFNE01.JPG,AFNE01.JPG,AFNE01.JPG,,,,,,,,,,,,,,,,,,,,,2,5,25,2,,,AFNE11.jpg,AFSA19.jpg,AFNE08.jpg,AFSA03.jpg,AFNE11.jpg,FN,3,num_8,32,num_4,0.950006334577,,,2017_Nov_14_1155,60.0120685678,MAFE4ImagesEEG,001,102330,
AFNE01.JPG,AFNE01.JPG,AFNE01.JPG,AFNE01.JPG,AFNE01.JPG,AFNE01.JPG,,,,,,,,,,,,,,,,,,,,,2,6,26,3,,,AFSA06.jpg,AFNE14.jpg,AFSA03.jpg,AFNE17.jpg,AFSA03.jpg,FS,4,num_2,32,num_8,0.60024664877,,,2017_Nov_14_1155,60.0120685678,MAFE4ImagesEEG,001,102330,
AFNE01.JPG,AFNE01.JPG,AFNE01.JPG,AFNE01.JPG,AFNE01.JPG,AFNE01.JPG,,,,,,,,,,,,,,,,,,,,,2,7,27,7,,,AFNE20.jpg,AFSA02.jpg,AFNE17.jpg,AFSA14.jpg,AFNE20.jpg,FN,3,num_8,16,num_8,0.650747082662,,,2017_Nov_14_1155,60.0120685678,MAFE4ImagesEEG,001,102330,
AFNE01.JPG,AFNE01.JPG,AFNE01.JPG,AFNE01.JPG,AFNE01.JPG,AFNE01.JPG,,,,,,,,,,,,,,,,,,,,,2,8,28,9,,,AFSA06.jpg,AFNE06.jpg,AFNE18.jpg,AFSA18.jpg,AFSA06.jpg,FS,4,num_8,16,num_8,0.566677731927,,,2017_Nov_14_1155,60.0120685678,MAFE4ImagesEEG,001,102330,
AFNE01.JPG,AFNE01.JPG,AFNE01.JPG,AFNE01.JPG,AFNE01.JPG,AFNE01.JPG,,,,,,,,,,,,,,,,,,,,,2,9,29,0,,,AFNE11.jpg,AFSA06.jpg,AFSA11.jpg,AFNE02.jpg,AFSA11.jpg,FS,4,num_2,16,num_2,0.516805947758,,,2017_Nov_14_1155,60.0120685678,MAFE4ImagesEEG,001,102330,
AFNE01.JPG,AFNE01.JPG,AFNE01.JPG,AFNE01.JPG,AFNE01.JPG,AFNE01.JPG,,,,,,,,,,,,,,,,,,,,,3,0,30,4,,,AFNE15.jpg,AFSA01.jpg,AFNE01.jpg,AFSA02.jpg,AFNE15.jpg,FN,3,num_8,16,num_8,0.616783014964,,,2017_Nov_14_1155,60.0120685678,MAFE4ImagesEEG,001,102330,
AFNE01.JPG,AFNE01.JPG,AFNE01.JPG,AFNE01.JPG,AFNE01.JPG,AFNE01.JPG,,,,,,,,,,,,,,,,,,,,,3,1,31,0,,,AFSA15.jpg,AFNE08.jpg,AFNE10.jpg,AFSA08.jpg,AFNE10.jpg,FN,3,num_2,32,num_8,0.750109291635,,,2017_Nov_14_1155,60.0120685678,MAFE4ImagesEEG,001,102330,
AFNE01.JPG,AFNE01.JPG,AFNE01.JPG,AFNE01.JPG,AFNE01.JPG,AFNE01.JPG,,,,,,,,,,,,,,,,,,,,,3,2,32,1,,,AFSA09.jpg,AFNE03.jpg,AFSA05.jpg,AFNE19.jpg,AFSA09.jpg,FS,4,num_8,32,num_6,0.766724880785,,,2017_Nov_14_1155,60.0120685678,MAFE4ImagesEEG,001,102330,
AFNE01.JPG,AFNE01.JPG,AFNE01.JPG,AFNE01.JPG,AFNE01.JPG,AFNE01.JPG,,,,,,,,,,,,,,,,,,,,,3,3,33,6,,,AFSA08.jpg,AFNE20.jpg,AFSA17.jpg,AFNE01.jpg,AFSA17.jpg,FS,4,num_2,16,num_2,0.716752384324,,,2017_Nov_14_1155,60.0120685678,MAFE4ImagesEEG,001,102330,
AFNE01.JPG,AFNE01.JPG,AFNE01.JPG,AFNE01.JPG,AFNE01.JPG,AFNE01.JPG,,,,,,,,,,,,,,,,,,,,,3,4,34,2,,,AFSA08.jpg,AFSA19.jpg,AFNE12.jpg,AFNE05.jpg,AFNE12.jpg,FN,3,num_2,16,num_2,0.7168296827,,,2017_Nov_14_1155,60.0120685678,MAFE4ImagesEEG,001,102330,
AFNE01.JPG,AFNE01.JPG,AFNE01.JPG,AFNE01.JPG,AFNE01.JPG,AFNE01.JPG,,,,,,,,,,,,,,,,,,,,,3,5,35,5,,,AFSA03.jpg,AFNE11.jpg,AFNE13.jpg,AFSA04.jpg,AFNE11.jpg,FN,3,num_6,16,num_6,0.450043700635,,,2017_Nov_14_1155,60.0120685678,MAFE4ImagesEEG,001,102330,
AFNE01.JPG,AFNE01.JPG,AFNE01.JPG,AFNE01.JPG,AFNE01.JPG,AFNE01.JPG,,,,,,,,,,,,,,,,,,,,,3,6,36,8,,,AFSA06.jpg,AFNE10.jpg,AFSA20.jpg,AFNE13.jpg,AFNE10.jpg,FN,3,num_6,16,num_6,0.483513829298,,,2017_Nov_14_1155,60.0120685678,MAFE4ImagesEEG,001,102330,
AFNE01.JPG,AFNE01.JPG,AFNE01.JPG,AFNE01.JPG,AFNE01.JPG,AFNE01.JPG,,,,,,,,,,,,,,,,,,,,,3,7,37,3,,,AFNE16.jpg,AFSA19.jpg,AFSA06.jpg,AFNE17.jpg,AFSA06.jpg,FS,4,num_2,32,num_4,0.867060213815,,,2017_Nov_14_1155,60.0120685678,MAFE4ImagesEEG,001,102330,
AFNE01.JPG,AFNE01.JPG,AFNE01.JPG,AFNE01.JPG,AFNE01.JPG,AFNE01.JPG,,,,,,,,,,,,,,,,,,,,,3,8,38,9,,,AFNE20.jpg,AFNE04.jpg,AFSA18.jpg,AFSA08.jpg,AFSA08.jpg,FS,4,num_4,32,num_8,0.750098386779,,,2017_Nov_14_1155,60.0120685678,MAFE4ImagesEEG,001,102330,
