IPosition2,IPosition3,IPosition1,IPosition6,IPosition4,IPosition5,TrialsM1.thisRepN,TrialsM1.thisTrialN,TrialsM1.thisN,TrialsM1.thisIndex,TrialsF1.thisRepN,TrialsF1.thisTrialN,TrialsF1.thisN,TrialsF1.thisIndex,TrialsM2.thisRepN,TrialsM2.thisTrialN,TrialsM2.thisN,TrialsM2.thisIndex,TrialsF2.thisRepN,TrialsF2.thisTrialN,TrialsF2.thisN,TrialsF2.thisIndex,TrialsM3.thisRepN,TrialsM3.thisTrialN,TrialsM3.thisN,TrialsM3.thisIndex,TrialsF3.thisRepN,TrialsF3.thisTrialN,TrialsF3.thisN,TrialsF3.thisIndex,InstrKey_resp.keys,InstrKey_resp.rt,Image0 _Position,Image1 _Position,Image2 _Position,Image3 _Position,Center_image,condition,code,correct_answer,accuracy,Key_Resp.keys,Key_Resp.rt,BreakKey_resp.keys,BreakKey_resp.rt,date,frameRate,expName,session,participant,
,,,,,,,,,,,,,,,,,,,,,,,,,,,,,,space,6.03317023721,,,,,,,,,,,,,,2017_Nov_13_1801,59.9976329322,MAFE4ImagesEEG,001,102397,
AMSA21.JPG,AMNE23.JPG,AMNE21.JPG,AMSA25.JPG,AMNE25.JPG,AMSA23.JPG,0,0,0,5,,,,,,,,,,,,,,,,,,,,,,,AMNE03.jpg,AMSA11.jpg,AMNE20.jpg,AMSA19.jpg,AMSA11.jpg,MS,2,num_6,32,num_8,1.58343540877,,,2017_Nov_13_1801,59.9976329322,MAFE4ImagesEEG,001,102397,
AMNE22.JPG,AMSA24.JPG,AMSA22.JPG,AMNE25.JPG,AMNE24.JPG,AMSA25.JPG,0,1,1,7,,,,,,,,,,,,,,,,,,,,,,,AMNE02.jpg,AMSA20.jpg,AMSA19.jpg,AMNE09.jpg,AMSA20.jpg,MS,2,num_6,32,num_4,1.31667123688,,,2017_Nov_13_1801,59.9976329322,MAFE4ImagesEEG,001,102397,
AFNE22.JPG,AFSA24.JPG,AFSA22.JPG,AFNE25.JPG,AFNE24.JPG,AFSA25.JPG,0,2,2,6,,,,,,,,,,,,,,,,,,,,,,,AMNE16.jpg,AMSA18.jpg,AMNE09.jpg,AMSA19.jpg,AMNE09.jpg,MN,1,num_2,32,num_4,1.35006278474,,,2017_Nov_13_1801,59.9976329322,MAFE4ImagesEEG,001,102397,
AFSA21.JPG,AFNE23.JPG,AFNE21.JPG,AFSA25.JPG,AFNE25.JPG,AFSA23.JPG,0,3,3,4,,,,,,,,,,,,,,,,,,,,,,,AMSA14.jpg,AMNE03.jpg,AMSA05.jpg,AMNE16.jpg,AMSA14.jpg,MS,2,num_8,16,num_8,0.850153393578,,,2017_Nov_13_1801,59.9976329322,MAFE4ImagesEEG,001,102397,
AFNE23.JPG,AFNE24.JPG,AFNE22.JPG,AFSA24.JPG,AFSA22.JPG,AFSA23.JPG,0,4,4,8,,,,,,,,,,,,,,,,,,,,,,,AMSA15.jpg,AMNE10.jpg,AMSA06.jpg,AMNE17.jpg,AMSA15.jpg,MS,2,num_8,16,num_8,0.750088123139,,,2017_Nov_13_1801,59.9976329322,MAFE4ImagesEEG,001,102397,
AMSA25.JPG,AMNE24.JPG,AMSA24.JPG,AMNE26.JPG,AMSA21.JPG,AMNE25.JPG,0,5,5,3,,,,,,,,,,,,,,,,,,,,,,,AMNE03.jpg,AMSA15.jpg,AMNE04.jpg,AMSA08.jpg,AMNE04.jpg,MN,1,num_2,32,num_4,1.06673626695,,,2017_Nov_13_1801,59.9976329322,MAFE4ImagesEEG,001,102397,
AMNE23.JPG,AMNE24.JPG,AMNE22.JPG,AMSA24.JPG,AMSA22.JPG,AMSA23.JPG,0,6,6,9,,,,,,,,,,,,,,,,,,,,,,,AMNE12.jpg,AMNE06.jpg,AMSA06.jpg,AMSA12.jpg,AMSA12.jpg,MS,2,num_4,32,num_2,0.833551596384,,,2017_Nov_13_1801,59.9976329322,MAFE4ImagesEEG,001,102397,
AFSA25.JPG,AFNE24.JPG,AFSA24.JPG,AFNE21.JPG,AFSA21.JPG,AFNE25.JPG,0,7,7,2,,,,,,,,,,,,,,,,,,,,,,,AMNE06.jpg,AMSA18.jpg,AMSA14.jpg,AMNE02.jpg,AMNE06.jpg,MN,1,num_8,32,num_4,0.883446474094,,,2017_Nov_13_1801,59.9976329322,MAFE4ImagesEEG,001,102397,
AMSA21.JPG,AMNE22.JPG,AMNE21.JPG,AMSA23.JPG,AMSA22.JPG,AMNE23.JPG,0,8,8,1,,,,,,,,,,,,,,,,,,,,,,,AMSA07.jpg,AMNE18.jpg,AMNE14.jpg,AMSA06.jpg,AMSA06.jpg,MS,2,num_4,32,num_6,1.13341383869,,,2017_Nov_13_1801,59.9976329322,MAFE4ImagesEEG,001,102397,
AFSA21.JPG,AFNE22.JPG,AFNE21.JPG,AFSA23.JPG,AFSA22.JPG,AFNE23.JPG,0,9,9,0,,,,,,,,,,,,,,,,,,,,,,,AMNE05.jpg,AMNE09.jpg,AMSA18.jpg,AMSA10.jpg,AMSA10.jpg,MS,2,num_4,16,num_4,0.833468524739,,,2017_Nov_13_1801,59.9976329322,MAFE4ImagesEEG,001,102397,
AMNE22.JPG,AMSA24.JPG,AMSA22.JPG,AMNE25.JPG,AMNE24.JPG,AMSA25.JPG,,,,,0,0,0,7,,,,,,,,,,,,,,,,,,,AFNE06.jpg,AFSA16.jpg,AFSA07.jpg,AFNE02.jpg,AFSA07.jpg,FS,4,num_2,32,num_6,0.950113782194,,,2017_Nov_13_1801,59.9976329322,MAFE4ImagesEEG,001,102397,
AFNE22.JPG,AFSA24.JPG,AFSA22.JPG,AFNE25.JPG,AFNE24.JPG,AFSA25.JPG,,,,,0,1,1,6,,,,,,,,,,,,,,,,,,,AFSA15.jpg,AFNE06.jpg,AFSA07.jpg,AFNE11.jpg,AFNE06.jpg,FN,3,num_6,16,num_6,1.11679664627,,,2017_Nov_13_1801,59.9976329322,MAFE4ImagesEEG,001,102397,
AFNE23.JPG,AFNE24.JPG,AFNE22.JPG,AFSA24.JPG,AFSA22.JPG,AFSA23.JPG,,,,,0,2,2,8,,,,,,,,,,,,,,,,,,,AFNE17.jpg,AFNE12.jpg,AFSA01.jpg,AFSA07.jpg,AFNE12.jpg,FN,3,num_6,32,num_4,0.933481194079,,,2017_Nov_13_1801,59.9976329322,MAFE4ImagesEEG,001,102397,
AMSA25.JPG,AMNE24.JPG,AMSA24.JPG,AMNE26.JPG,AMSA21.JPG,AMNE25.JPG,,,,,0,3,3,3,,,,,,,,,,,,,,,,,,,AFNE14.jpg,AFSA08.jpg,AFSA13.jpg,AFNE19.jpg,AFNE19.jpg,FN,3,num_4,32,num_8,0.783505650703,,,2017_Nov_13_1801,59.9976329322,MAFE4ImagesEEG,001,102397,
AMSA21.JPG,AMNE22.JPG,AMNE21.JPG,AMSA23.JPG,AMSA22.JPG,AMNE23.JPG,,,,,0,4,4,1,,,,,,,,,,,,,,,,,,,AFSA19.jpg,AFNE10.jpg,AFSA17.jpg,AFNE04.jpg,AFNE10.jpg,FN,3,num_6,32,num_2,0.350158685818,,,2017_Nov_13_1801,59.9976329322,MAFE4ImagesEEG,001,102397,
AMNE23.JPG,AMNE24.JPG,AMNE22.JPG,AMSA24.JPG,AMSA22.JPG,AMSA23.JPG,,,,,0,5,5,9,,,,,,,,,,,,,,,,,,,AFSA17.jpg,AFNE19.jpg,AFNE02.jpg,AFSA12.jpg,AFSA17.jpg,FS,4,num_8,16,num_8,0.916770345997,,,2017_Nov_13_1801,59.9976329322,MAFE4ImagesEEG,001,102397,
AFSA21.JPG,AFNE23.JPG,AFNE21.JPG,AFSA25.JPG,AFNE25.JPG,AFSA23.JPG,,,,,0,6,6,4,,,,,,,,,,,,,,,,,,,AFSA01.jpg,AFSA16.jpg,AFNE09.jpg,AFNE12.jpg,AFNE09.jpg,FN,3,num_2,32,num_8,0.983533234335,,,2017_Nov_13_1801,59.9976329322,MAFE4ImagesEEG,001,102397,
AMSA21.JPG,AMNE23.JPG,AMNE21.JPG,AMSA25.JPG,AMNE25.JPG,AMSA23.JPG,,,,,0,7,7,5,,,,,,,,,,,,,,,,,,,AFSA10.jpg,AFNE08.jpg,AFNE18.jpg,AFSA06.jpg,AFNE18.jpg,FN,3,num_2,16,num_2,0.616759601049,,,2017_Nov_13_1801,59.9976329322,MAFE4ImagesEEG,001,102397,
AFSA21.JPG,AFNE22.JPG,AFNE21.JPG,AFSA23.JPG,AFSA22.JPG,AFNE23.JPG,,,,,0,8,8,0,,,,,,,,,,,,,,,,,,,AFNE02.jpg,AFSA08.jpg,AFNE12.jpg,AFSA02.jpg,AFSA08.jpg,FS,4,num_6,32,num_4,0.966756633949,,,2017_Nov_13_1801,59.9976329322,MAFE4ImagesEEG,001,102397,
AFSA25.JPG,AFNE24.JPG,AFSA24.JPG,AFNE21.JPG,AFSA21.JPG,AFNE25.JPG,,,,,0,9,9,2,,,,,,,,,,,,,,,,,,,AFNE02.jpg,AFSA11.jpg,AFNE11.jpg,AFSA04.jpg,AFSA04.jpg,FS,4,num_4,32,num_8,1.3834062214,,,2017_Nov_13_1801,59.9976329322,MAFE4ImagesEEG,001,102397,
AFNE23.JPG,AFNE24.JPG,AFNE22.JPG,AFSA24.JPG,AFSA22.JPG,AFSA23.JPG,,,,,,,,,0,0,0,8,,,,,,,,,,,,,,,AMNE07.jpg,AMSA06.jpg,AMNE09.jpg,AMSA03.jpg,AMNE09.jpg,MN,1,num_2,32,num_8,0.816807711963,,,2017_Nov_13_1801,59.9976329322,MAFE4ImagesEEG,001,102397,
AFSA25.JPG,AFNE24.JPG,AFSA24.JPG,AFNE21.JPG,AFSA21.JPG,AFNE25.JPG,,,,,,,,,0,1,1,2,,,,,,,,,,,,,,,AMNE15.jpg,AMNE10.jpg,AMSA17.jpg,AMSA08.jpg,AMNE10.jpg,MN,1,num_6,32,num_8,0.900135832839,,,2017_Nov_13_1801,59.9976329322,MAFE4ImagesEEG,001,102397,
AMNE23.JPG,AMNE24.JPG,AMNE22.JPG,AMSA24.JPG,AMSA22.JPG,AMSA23.JPG,,,,,,,,,0,2,2,9,,,,,,,,,,,,,,,AMSA12.jpg,AMSA17.jpg,AMNE03.jpg,AMNE10.jpg,AMSA17.jpg,MS,2,num_6,32,num_8,0.983447276056,,,2017_Nov_13_1801,59.9976329322,MAFE4ImagesEEG,001,102397,
AMSA21.JPG,AMNE22.JPG,AMNE21.JPG,AMSA23.JPG,AMSA22.JPG,AMNE23.JPG,,,,,,,,,0,3,3,1,,,,,,,,,,,,,,,AMNE03.jpg,AMNE13.jpg,AMSA03.jpg,AMSA07.jpg,AMSA07.jpg,MS,2,num_4,16,num_4,0.833444790449,,,2017_Nov_13_1801,59.9976329322,MAFE4ImagesEEG,001,102397,
AMNE22.JPG,AMSA24.JPG,AMSA22.JPG,AMNE25.JPG,AMNE24.JPG,AMSA25.JPG,,,,,,,,,0,4,4,7,,,,,,,,,,,,,,,AMSA11.jpg,AMNE15.jpg,AMNE16.jpg,AMSA20.jpg,AMNE16.jpg,MN,1,num_2,32,num_6,0.916661935858,,,2017_Nov_13_1801,59.9976329322,MAFE4ImagesEEG,001,102397,
AMSA21.JPG,AMNE23.JPG,AMNE21.JPG,AMSA25.JPG,AMNE25.JPG,AMSA23.JPG,,,,,,,,,0,5,5,5,,,,,,,,,,,,,,,AMNE17.jpg,AMSA02.jpg,AMNE02.jpg,AMSA11.jpg,AMSA11.jpg,MS,2,num_4,16,num_4,0.966802178882,,,2017_Nov_13_1801,59.9976329322,MAFE4ImagesEEG,001,102397,
AFSA21.JPG,AFNE22.JPG,AFNE21.JPG,AFSA23.JPG,AFSA22.JPG,AFNE23.JPG,,,,,,,,,0,6,6,0,,,,,,,,,,,,,,,AMNE08.jpg,AMNE15.jpg,AMSA08.jpg,AMSA05.jpg,AMSA08.jpg,MS,2,num_2,16,num_2,1.78327311482,,,2017_Nov_13_1801,59.9976329322,MAFE4ImagesEEG,001,102397,
AFSA21.JPG,AFNE23.JPG,AFNE21.JPG,AFSA25.JPG,AFNE25.JPG,AFSA23.JPG,,,,,,,,,0,7,7,4,,,,,,,,,,,,,,,AMSA13.jpg,AMNE18.jpg,AMSA15.jpg,AMNE09.jpg,AMSA15.jpg,MS,2,num_2,32,num_8,1.06662497064,,,2017_Nov_13_1801,59.9976329322,MAFE4ImagesEEG,001,102397,
AMSA25.JPG,AMNE24.JPG,AMSA24.JPG,AMNE26.JPG,AMSA21.JPG,AMNE25.JPG,,,,,,,,,0,8,8,3,,,,,,,,,,,,,,,AMNE06.jpg,AMNE20.jpg,AMSA08.jpg,AMSA07.jpg,AMNE20.jpg,MN,1,num_6,32,num_8,0.683432361577,,,2017_Nov_13_1801,59.9976329322,MAFE4ImagesEEG,001,102397,
AFNE22.JPG,AFSA24.JPG,AFSA22.JPG,AFNE25.JPG,AFNE24.JPG,AFSA25.JPG,,,,,,,,,0,9,9,6,,,,,,,,,,,,,,,AMNE16.jpg,AMSA19.jpg,AMSA07.jpg,AMNE05.jpg,AMSA07.jpg,MS,2,num_2,16,num_2,0.550125007983,,,2017_Nov_13_1801,59.9976329322,MAFE4ImagesEEG,001,102397,
AFSA21.JPG,AFNE23.JPG,AFNE21.JPG,AFSA25.JPG,AFNE25.JPG,AFSA23.JPG,,,,,,,,,,,,,0,0,0,4,,,,,,,,,,,AFNE16.jpg,AFSA20.jpg,AFNE08.jpg,AFSA01.jpg,AFSA20.jpg,FS,4,num_6,32,num_8,0.816751582548,,,2017_Nov_13_1801,59.9976329322,MAFE4ImagesEEG,001,102397,
AMNE23.JPG,AMNE24.JPG,AMNE22.JPG,AMSA24.JPG,AMSA22.JPG,AMSA23.JPG,,,,,,,,,,,,,0,1,1,9,,,,,,,,,,,AFNE08.jpg,AFSA07.jpg,AFNE17.jpg,AFSA06.jpg,AFSA06.jpg,FS,4,num_4,32,num_2,0.783459464088,,,2017_Nov_13_1801,59.9976329322,MAFE4ImagesEEG,001,102397,
AFNE23.JPG,AFNE24.JPG,AFNE22.JPG,AFSA24.JPG,AFSA22.JPG,AFSA23.JPG,,,,,,,,,,,,,0,2,2,8,,,,,,,,,,,AFSA09.jpg,AFSA19.jpg,AFNE10.jpg,AFNE17.jpg,AFNE17.jpg,FN,3,num_4,16,num_4,0.800139200874,,,2017_Nov_13_1801,59.9976329322,MAFE4ImagesEEG,001,102397,
AFSA25.JPG,AFNE24.JPG,AFSA24.JPG,AFNE21.JPG,AFSA21.JPG,AFNE25.JPG,,,,,,,,,,,,,0,3,3,2,,,,,,,,,,,AFNE02.jpg,AFNE13.jpg,AFSA15.jpg,AFSA17.jpg,AFSA15.jpg,FS,4,num_2,32,num_6,1.0334079056,,,2017_Nov_13_1801,59.9976329322,MAFE4ImagesEEG,001,102397,
AFNE22.JPG,AFSA24.JPG,AFSA22.JPG,AFNE25.JPG,AFNE24.JPG,AFSA25.JPG,,,,,,,,,,,,,0,4,4,6,,,,,,,,,,,AFSA12.jpg,AFNE13.jpg,AFNE17.jpg,AFSA18.jpg,AFNE17.jpg,FN,3,num_2,32,num_8,0.833453449886,,,2017_Nov_13_1801,59.9976329322,MAFE4ImagesEEG,001,102397,
AFSA21.JPG,AFNE22.JPG,AFNE21.JPG,AFSA23.JPG,AFSA22.JPG,AFNE23.JPG,,,,,,,,,,,,,0,5,5,0,,,,,,,,,,,AFNE08.jpg,AFNE12.jpg,AFSA11.jpg,AFSA03.jpg,AFSA03.jpg,FS,4,num_4,32,num_8,0.700102476403,,,2017_Nov_13_1801,59.9976329322,MAFE4ImagesEEG,001,102397,
AMSA25.JPG,AMNE24.JPG,AMSA24.JPG,AMNE26.JPG,AMSA21.JPG,AMNE25.JPG,,,,,,,,,,,,,0,6,6,3,,,,,,,,,,,AFNE12.jpg,AFNE03.jpg,AFSA02.jpg,AFSA15.jpg,AFNE12.jpg,FN,3,num_8,32,num_4,0.883333253209,,,2017_Nov_13_1801,59.9976329322,MAFE4ImagesEEG,001,102397,
AMNE22.JPG,AMSA24.JPG,AMSA22.JPG,AMNE25.JPG,AMNE24.JPG,AMSA25.JPG,,,,,,,,,,,,,0,7,7,7,,,,,,,,,,,AFNE09.jpg,AFSA18.jpg,AFNE18.jpg,AFSA15.jpg,AFNE09.jpg,FN,3,num_8,16,num_8,0.816822145134,,,2017_Nov_13_1801,59.9976329322,MAFE4ImagesEEG,001,102397,
AMSA21.JPG,AMNE23.JPG,AMNE21.JPG,AMSA25.JPG,AMNE25.JPG,AMSA23.JPG,,,,,,,,,,,,,0,8,8,5,,,,,,,,,,,AFNE10.jpg,AFNE15.jpg,AFSA03.jpg,AFSA17.jpg,AFSA17.jpg,FS,4,num_4,16,num_4,0.883486566599,,,2017_Nov_13_1801,59.9976329322,MAFE4ImagesEEG,001,102397,
AMSA21.JPG,AMNE22.JPG,AMNE21.JPG,AMSA23.JPG,AMSA22.JPG,AMNE23.JPG,,,,,,,,,,,,,0,9,9,1,,,,,,,,,,,AFNE07.jpg,AFNE01.jpg,AFSA16.jpg,AFSA20.jpg,AFSA16.jpg,FS,4,num_2,16,num_2,0.766826555133,,,2017_Nov_13_1801,59.9976329322,MAFE4ImagesEEG,001,102397,
AMSA21.JPG,AMNE22.JPG,AMNE21.JPG,AMSA23.JPG,AMSA22.JPG,AMNE23.JPG,,,,,,,,,,,,,,,,,0,0,0,1,,,,,,,AMNE07.jpg,AMSA05.jpg,AMSA08.jpg,AMNE10.jpg,AMSA08.jpg,MS,2,num_2,32,num_6,0.35014329059,,,2017_Nov_13_1801,59.9976329322,MAFE4ImagesEEG,001,102397,
AMNE22.JPG,AMSA24.JPG,AMSA22.JPG,AMNE25.JPG,AMNE24.JPG,AMSA25.JPG,,,,,,,,,,,,,,,,,0,1,1,7,,,,,,,AMNE13.jpg,AMSA08.jpg,AMSA14.jpg,AMNE12.jpg,AMSA14.jpg,MS,2,num_2,32,num_8,0.833474298008,,,2017_Nov_13_1801,59.9976329322,MAFE4ImagesEEG,001,102397,
AMNE23.JPG,AMNE24.JPG,AMNE22.JPG,AMSA24.JPG,AMSA22.JPG,AMSA23.JPG,,,,,,,,,,,,,,,,,0,2,2,9,,,,,,,AMNE01.jpg,AMNE12.jpg,AMSA13.jpg,AMSA15.jpg,AMSA13.jpg,MS,2,num_2,32,num_8,0.883431399241,,,2017_Nov_13_1801,59.9976329322,MAFE4ImagesEEG,001,102397,
AFSA21.JPG,AFNE23.JPG,AFNE21.JPG,AFSA25.JPG,AFNE25.JPG,AFSA23.JPG,,,,,,,,,,,,,,,,,0,3,3,4,,,,,,,AMNE05.jpg,AMSA06.jpg,AMSA16.jpg,AMNE02.jpg,AMSA06.jpg,MS,2,num_6,32,num_2,0.416819258593,,,2017_Nov_13_1801,59.9976329322,MAFE4ImagesEEG,001,102397,
AFNE23.JPG,AFNE24.JPG,AFNE22.JPG,AFSA24.JPG,AFSA22.JPG,AFSA23.JPG,,,,,,,,,,,,,,,,,0,4,4,8,,,,,,,AMSA18.jpg,AMSA04.jpg,AMNE10.jpg,AMNE09.jpg,AMSA18.jpg,MS,2,num_8,16,num_8,0.900128456298,,,2017_Nov_13_1801,59.9976329322,MAFE4ImagesEEG,001,102397,
AFSA21.JPG,AFNE22.JPG,AFNE21.JPG,AFSA23.JPG,AFSA22.JPG,AFNE23.JPG,,,,,,,,,,,,,,,,,0,5,5,0,,,,,,,AMSA03.jpg,AMNE09.jpg,AMSA12.jpg,AMNE10.jpg,AMSA03.jpg,MS,2,num_8,16,num_8,1.03346627997,,,2017_Nov_13_1801,59.9976329322,MAFE4ImagesEEG,001,102397,
AFNE22.JPG,AFSA24.JPG,AFSA22.JPG,AFNE25.JPG,AFNE24.JPG,AFSA25.JPG,,,,,,,,,,,,,,,,,0,6,6,6,,,,,,,AMSA16.jpg,AMNE12.jpg,AMNE06.jpg,AMSA13.jpg,AMSA13.jpg,MS,2,num_4,16,num_4,2.21664445521,,,2017_Nov_13_1801,59.9976329322,MAFE4ImagesEEG,001,102397,
AFSA25.JPG,AFNE24.JPG,AFSA24.JPG,AFNE21.JPG,AFSA21.JPG,AFNE25.JPG,,,,,,,,,,,,,,,,,0,7,7,2,,,,,,,AMSA19.jpg,AMNE15.jpg,AMSA20.jpg,AMNE05.jpg,AMSA19.jpg,MS,2,num_8,32,num_6,0.933427951764,,,2017_Nov_13_1801,59.9976329322,MAFE4ImagesEEG,001,102397,
AMSA25.JPG,AMNE24.JPG,AMSA24.JPG,AMNE26.JPG,AMSA21.JPG,AMNE25.JPG,,,,,,,,,,,,,,,,,0,8,8,3,,,,,,,AMSA19.jpg,AMSA08.jpg,AMNE20.jpg,AMNE06.jpg,AMNE06.jpg,MN,1,num_4,32,num_2,0.350315848365,,,2017_Nov_13_1801,59.9976329322,MAFE4ImagesEEG,001,102397,
AMSA21.JPG,AMNE23.JPG,AMNE21.JPG,AMSA25.JPG,AMNE25.JPG,AMSA23.JPG,,,,,,,,,,,,,,,,,0,9,9,5,,,,,,,AMSA17.jpg,AMSA19.jpg,AMNE13.jpg,AMNE06.jpg,AMSA19.jpg,MS,2,num_6,32,num_8,0.700143851805,,,2017_Nov_13_1801,59.9976329322,MAFE4ImagesEEG,001,102397,
AFNE23.JPG,AFNE24.JPG,AFNE22.JPG,AFSA24.JPG,AFSA22.JPG,AFSA23.JPG,,,,,,,,,,,,,,,,,,,,,0,0,0,8,,,AFNE11.jpg,AFNE14.jpg,AFSA06.jpg,AFSA13.jpg,AFSA13.jpg,FS,4,num_4,16,num_4,0.666773152538,,,2017_Nov_13_1801,59.9976329322,MAFE4ImagesEEG,001,102397,
AMSA25.JPG,AMNE24.JPG,AMSA24.JPG,AMNE26.JPG,AMSA21.JPG,AMNE25.JPG,,,,,,,,,,,,,,,,,,,,,0,1,1,3,,,AFNE02.jpg,AFNE09.jpg,AFSA14.jpg,AFSA08.jpg,AFNE02.jpg,FN,3,num_8,16,num_8,1.06679367973,,,2017_Nov_13_1801,59.9976329322,MAFE4ImagesEEG,001,102397,
AFSA25.JPG,AFNE24.JPG,AFSA24.JPG,AFNE21.JPG,AFSA21.JPG,AFNE25.JPG,,,,,,,,,,,,,,,,,,,,,0,2,2,2,,,AFSA02.jpg,AFNE17.jpg,AFNE11.jpg,AFSA04.jpg,AFSA04.jpg,FS,4,num_4,32,num_8,0.950044181664,,,2017_Nov_13_1801,59.9976329322,MAFE4ImagesEEG,001,102397,
AFSA21.JPG,AFNE22.JPG,AFNE21.JPG,AFSA23.JPG,AFSA22.JPG,AFNE23.JPG,,,,,,,,,,,,,,,,,,,,,0,3,3,0,,,AFNE13.jpg,AFNE16.jpg,AFSA10.jpg,AFSA18.jpg,AFNE16.jpg,FN,3,num_6,16,num_6,0.983504367527,,,2017_Nov_13_1801,59.9976329322,MAFE4ImagesEEG,001,102397,
AMNE22.JPG,AMSA24.JPG,AMSA22.JPG,AMNE25.JPG,AMNE24.JPG,AMSA25.JPG,,,,,,,,,,,,,,,,,,,,,0,4,4,7,,,AFNE11.jpg,AFNE13.jpg,AFSA06.jpg,AFSA08.jpg,AFSA06.jpg,FS,4,num_2,16,num_2,1.16681532934,,,2017_Nov_13_1801,59.9976329322,MAFE4ImagesEEG,001,102397,
AMNE23.JPG,AMNE24.JPG,AMNE22.JPG,AMSA24.JPG,AMSA22.JPG,AMSA23.JPG,,,,,,,,,,,,,,,,,,,,,0,5,5,9,,,AFNE12.jpg,AFNE17.jpg,AFSA06.jpg,AFSA08.jpg,AFSA06.jpg,FS,4,num_2,16,num_2,0.666777642444,,,2017_Nov_13_1801,59.9976329322,MAFE4ImagesEEG,001,102397,
AFNE22.JPG,AFSA24.JPG,AFSA22.JPG,AFNE25.JPG,AFNE24.JPG,AFSA25.JPG,,,,,,,,,,,,,,,,,,,,,0,6,6,6,,,AFSA17.jpg,AFNE04.jpg,AFNE09.jpg,AFSA13.jpg,AFSA17.jpg,FS,4,num_8,16,num_8,0.900136154145,,,2017_Nov_13_1801,59.9976329322,MAFE4ImagesEEG,001,102397,
AMSA21.JPG,AMNE22.JPG,AMNE21.JPG,AMSA23.JPG,AMSA22.JPG,AMNE23.JPG,,,,,,,,,,,,,,,,,,,,,0,7,7,1,,,AFSA18.jpg,AFNE18.jpg,AFNE10.jpg,AFSA13.jpg,AFSA18.jpg,FS,4,num_8,32,num_4,0.933471251279,,,2017_Nov_13_1801,59.9976329322,MAFE4ImagesEEG,001,102397,
AMSA21.JPG,AMNE23.JPG,AMNE21.JPG,AMSA25.JPG,AMNE25.JPG,AMSA23.JPG,,,,,,,,,,,,,,,,,,,,,0,8,8,5,,,AFNE10.jpg,AFSA06.jpg,AFNE09.jpg,AFSA04.jpg,AFNE10.jpg,FN,3,num_8,16,num_8,0.816661775578,,,2017_Nov_13_1801,59.9976329322,MAFE4ImagesEEG,001,102397,
AFSA21.JPG,AFNE23.JPG,AFNE21.JPG,AFSA25.JPG,AFNE25.JPG,AFSA23.JPG,,,,,,,,,,,,,,,,,,,,,0,9,9,4,,,AFNE19.jpg,AFNE15.jpg,AFSA15.jpg,AFSA11.jpg,AFSA15.jpg,FS,4,num_2,32,num_4,0.93348183576,,,2017_Nov_13_1801,59.9976329322,MAFE4ImagesEEG,001,102397,
,,,,,,,,,,,,,,,,,,,,,,,,,,,,,,,,,,,,,,,,,,,space,4.24978775065,2017_Nov_13_1801,59.9976329322,MAFE4ImagesEEG,001,102397,
AFNE01.JPG,AFNE01.JPG,AFNE01.JPG,AFNE01.JPG,AFNE01.JPG,AFNE01.JPG,0,0,0,1,,,,,,,,,,,,,,,,,,,,,,,AMSA02.jpg,AMNE13.jpg,AMNE03.jpg,AMSA04.jpg,AMSA04.jpg,MS,2,num_4,16,num_4,1.21672207443,,,2017_Nov_13_1801,59.9976329322,MAFE4ImagesEEG,001,102397,
AFNE01.JPG,AFNE01.JPG,AFNE01.JPG,AFNE01.JPG,AFNE01.JPG,AFNE01.JPG,0,1,1,8,,,,,,,,,,,,,,,,,,,,,,,AMNE11.jpg,AMSA20.jpg,AMNE07.jpg,AMSA12.jpg,AMNE07.jpg,MN,1,num_2,32,num_8,0.86679784907,,,2017_Nov_13_1801,59.9976329322,MAFE4ImagesEEG,001,102397,
AFNE01.JPG,AFNE01.JPG,AFNE01.JPG,AFNE01.JPG,AFNE01.JPG,AFNE01.JPG,0,2,2,2,,,,,,,,,,,,,,,,,,,,,,,AMSA10.jpg,AMNE01.jpg,AMNE05.jpg,AMSA19.jpg,AMSA10.jpg,MS,2,num_8,16,num_8,0.716771307867,,,2017_Nov_13_1801,59.9976329322,MAFE4ImagesEEG,001,102397,
AFNE01.JPG,AFNE01.JPG,AFNE01.JPG,AFNE01.JPG,AFNE01.JPG,AFNE01.JPG,0,3,3,0,,,,,,,,,,,,,,,,,,,,,,,AMSA07.jpg,AMNE17.jpg,AMSA16.jpg,AMNE06.jpg,AMNE17.jpg,MN,1,num_6,32,num_2,0.633463713806,,,2017_Nov_13_1801,59.9976329322,MAFE4ImagesEEG,001,102397,
AFNE01.JPG,AFNE01.JPG,AFNE01.JPG,AFNE01.JPG,AFNE01.JPG,AFNE01.JPG,0,4,4,9,,,,,,,,,,,,,,,,,,,,,,,AMSA09.jpg,AMSA03.jpg,AMNE04.jpg,AMNE10.jpg,AMSA03.jpg,MS,2,num_6,16,num_6,0.499840111006,,,2017_Nov_13_1801,59.9976329322,MAFE4ImagesEEG,001,102397,
AFNE01.JPG,AFNE01.JPG,AFNE01.JPG,AFNE01.JPG,AFNE01.JPG,AFNE01.JPG,0,5,5,4,,,,,,,,,,,,,,,,,,,,,,,AMSA18.jpg,AMNE09.jpg,AMNE16.jpg,AMSA04.jpg,AMNE09.jpg,MN,1,num_6,16,num_6,0.999986849725,,,2017_Nov_13_1801,59.9976329322,MAFE4ImagesEEG,001,102397,
AFNE01.JPG,AFNE01.JPG,AFNE01.JPG,AFNE01.JPG,AFNE01.JPG,AFNE01.JPG,0,6,6,5,,,,,,,,,,,,,,,,,,,,,,,AMNE15.jpg,AMSA12.jpg,AMNE02.jpg,AMSA20.jpg,AMNE15.jpg,MN,1,num_8,32,num_4,0.766795443371,,,2017_Nov_13_1801,59.9976329322,MAFE4ImagesEEG,001,102397,
AFNE01.JPG,AFNE01.JPG,AFNE01.JPG,AFNE01.JPG,AFNE01.JPG,AFNE01.JPG,0,7,7,3,,,,,,,,,,,,,,,,,,,,,,,AMNE11.jpg,AMSA02.jpg,AMSA11.jpg,AMNE02.jpg,AMNE11.jpg,MN,1,num_8,32,num_4,1.01674741274,,,2017_Nov_13_1801,59.9976329322,MAFE4ImagesEEG,001,102397,
AFNE01.JPG,AFNE01.JPG,AFNE01.JPG,AFNE01.JPG,AFNE01.JPG,AFNE01.JPG,0,8,8,7,,,,,,,,,,,,,,,,,,,,,,,AMSA07.jpg,AMSA11.jpg,AMNE05.jpg,AMNE01.jpg,AMNE05.jpg,MN,1,num_2,32,num_8,0.916779005434,,,2017_Nov_13_1801,59.9976329322,MAFE4ImagesEEG,001,102397,
AFNE01.JPG,AFNE01.JPG,AFNE01.JPG,AFNE01.JPG,AFNE01.JPG,AFNE01.JPG,0,9,9,6,,,,,,,,,,,,,,,,,,,,,,,AMNE05.jpg,AMNE15.jpg,AMSA20.jpg,AMSA11.jpg,AMSA20.jpg,MS,2,num_2,16,num_2,0.73346900614,,,2017_Nov_13_1801,59.9976329322,MAFE4ImagesEEG,001,102397,
AFNE01.JPG,AFNE01.JPG,AFNE01.JPG,AFNE01.JPG,AFNE01.JPG,AFNE01.JPG,1,0,10,1,,,,,,,,,,,,,,,,,,,,,,,AMNE15.jpg,AMNE16.jpg,AMSA12.jpg,AMSA06.jpg,AMSA12.jpg,MS,2,num_2,16,num_2,0.699793283362,,,2017_Nov_13_1801,59.9976329322,MAFE4ImagesEEG,001,102397,
AFNE01.JPG,AFNE01.JPG,AFNE01.JPG,AFNE01.JPG,AFNE01.JPG,AFNE01.JPG,1,1,11,4,,,,,,,,,,,,,,,,,,,,,,,AMSA07.jpg,AMSA14.jpg,AMNE07.jpg,AMNE19.jpg,AMNE07.jpg,MN,1,num_2,32,num_8,0.700128135737,,,2017_Nov_13_1801,59.9976329322,MAFE4ImagesEEG,001,102397,
AFNE01.JPG,AFNE01.JPG,AFNE01.JPG,AFNE01.JPG,AFNE01.JPG,AFNE01.JPG,1,2,12,5,,,,,,,,,,,,,,,,,,,,,,,AMSA01.jpg,AMSA02.jpg,AMNE03.jpg,AMNE02.jpg,AMNE02.jpg,MN,1,num_4,32,num_2,1.03348199604,,,2017_Nov_13_1801,59.9976329322,MAFE4ImagesEEG,001,102397,
AFNE01.JPG,AFNE01.JPG,AFNE01.JPG,AFNE01.JPG,AFNE01.JPG,AFNE01.JPG,1,3,13,7,,,,,,,,,,,,,,,,,,,,,,,AMNE11.jpg,AMSA05.jpg,AMSA19.jpg,AMNE02.jpg,AMNE11.jpg,MN,1,num_8,16,num_8,0.500127173029,,,2017_Nov_13_1801,59.9976329322,MAFE4ImagesEEG,001,102397,
AFNE01.JPG,AFNE01.JPG,AFNE01.JPG,AFNE01.JPG,AFNE01.JPG,AFNE01.JPG,1,4,14,3,,,,,,,,,,,,,,,,,,,,,,,AMNE05.jpg,AMSA18.jpg,AMNE13.jpg,AMSA04.jpg,AMNE05.jpg,MN,1,num_8,16,num_8,0.48344519129,,,2017_Nov_13_1801,59.9976329322,MAFE4ImagesEEG,001,102397,
AFNE01.JPG,AFNE01.JPG,AFNE01.JPG,AFNE01.JPG,AFNE01.JPG,AFNE01.JPG,1,5,15,8,,,,,,,,,,,,,,,,,,,,,,,AMSA01.jpg,AMNE05.jpg,AMSA12.jpg,AMNE01.jpg,AMNE05.jpg,MN,1,num_6,16,num_6,0.650117470883,,,2017_Nov_13_1801,59.9976329322,MAFE4ImagesEEG,001,102397,
AFNE01.JPG,AFNE01.JPG,AFNE01.JPG,AFNE01.JPG,AFNE01.JPG,AFNE01.JPG,1,6,16,0,,,,,,,,,,,,,,,,,,,,,,,AMNE14.jpg,AMNE08.jpg,AMSA04.jpg,AMSA20.jpg,AMSA04.jpg,MS,2,num_2,32,num_8,0.616755752359,,,2017_Nov_13_1801,59.9976329322,MAFE4ImagesEEG,001,102397,
AFNE01.JPG,AFNE01.JPG,AFNE01.JPG,AFNE01.JPG,AFNE01.JPG,AFNE01.JPG,1,7,17,6,,,,,,,,,,,,,,,,,,,,,,,AMNE03.jpg,AMSA07.jpg,AMNE15.jpg,AMSA20.jpg,AMSA07.jpg,MS,2,num_6,32,num_2,0.716851813719,,,2017_Nov_13_1801,59.9976329322,MAFE4ImagesEEG,001,102397,
AFNE01.JPG,AFNE01.JPG,AFNE01.JPG,AFNE01.JPG,AFNE01.JPG,AFNE01.JPG,1,8,18,9,,,,,,,,,,,,,,,,,,,,,,,AMNE20.jpg,AMSA03.jpg,AMSA13.jpg,AMNE19.jpg,AMSA13.jpg,MS,2,num_2,32,num_8,0.566833290737,,,2017_Nov_13_1801,59.9976329322,MAFE4ImagesEEG,001,102397,
AFNE01.JPG,AFNE01.JPG,AFNE01.JPG,AFNE01.JPG,AFNE01.JPG,AFNE01.JPG,1,9,19,2,,,,,,,,,,,,,,,,,,,,,,,AMNE08.jpg,AMSA04.jpg,AMNE06.jpg,AMSA06.jpg,AMSA06.jpg,MS,2,num_4,32,num_6,0.300153473858,,,2017_Nov_13_1801,59.9976329322,MAFE4ImagesEEG,001,102397,
AFNE01.JPG,AFNE01.JPG,AFNE01.JPG,AFNE01.JPG,AFNE01.JPG,AFNE01.JPG,2,0,20,7,,,,,,,,,,,,,,,,,,,,,,,AMSA10.jpg,AMNE02.jpg,AMNE14.jpg,AMSA02.jpg,AMSA02.jpg,MS,2,num_4,32,num_2,0.650192203,,,2017_Nov_13_1801,59.9976329322,MAFE4ImagesEEG,001,102397,
AFNE01.JPG,AFNE01.JPG,AFNE01.JPG,AFNE01.JPG,AFNE01.JPG,AFNE01.JPG,2,1,21,9,,,,,,,,,,,,,,,,,,,,,,,AMNE09.jpg,AMSA05.jpg,AMNE16.jpg,AMSA16.jpg,AMSA16.jpg,MS,2,num_4,32,num_8,0.550132385455,,,2017_Nov_13_1801,59.9976329322,MAFE4ImagesEEG,001,102397,
AFNE01.JPG,AFNE01.JPG,AFNE01.JPG,AFNE01.JPG,AFNE01.JPG,AFNE01.JPG,2,2,22,1,,,,,,,,,,,,,,,,,,,,,,,AMSA16.jpg,AMSA02.jpg,AMNE12.jpg,AMNE09.jpg,AMNE12.jpg,MN,1,num_2,32,num_8,0.616791674867,,,2017_Nov_13_1801,59.9976329322,MAFE4ImagesEEG,001,102397,
AFNE01.JPG,AFNE01.JPG,AFNE01.JPG,AFNE01.JPG,AFNE01.JPG,AFNE01.JPG,2,3,23,3,,,,,,,,,,,,,,,,,,,,,,,AMNE19.jpg,AMSA02.jpg,AMNE03.jpg,AMSA17.jpg,AMNE19.jpg,MN,1,num_8,32,num_2,0.883482397068,,,2017_Nov_13_1801,59.9976329322,MAFE4ImagesEEG,001,102397,
AFNE01.JPG,AFNE01.JPG,AFNE01.JPG,AFNE01.JPG,AFNE01.JPG,AFNE01.JPG,2,4,24,4,,,,,,,,,,,,,,,,,,,,,,,AMNE12.jpg,AMNE19.jpg,AMSA19.jpg,AMSA09.jpg,AMSA19.jpg,MS,2,num_2,16,num_2,1.36673514452,,,2017_Nov_13_1801,59.9976329322,MAFE4ImagesEEG,001,102397,
AFNE01.JPG,AFNE01.JPG,AFNE01.JPG,AFNE01.JPG,AFNE01.JPG,AFNE01.JPG,2,5,25,5,,,,,,,,,,,,,,,,,,,,,,,AMSA03.jpg,AMSA11.jpg,AMNE08.jpg,AMNE01.jpg,AMNE08.jpg,MN,1,num_2,16,num_2,1.00013310695,,,2017_Nov_13_1801,59.9976329322,MAFE4ImagesEEG,001,102397,
AFNE01.JPG,AFNE01.JPG,AFNE01.JPG,AFNE01.JPG,AFNE01.JPG,AFNE01.JPG,2,6,26,0,,,,,,,,,,,,,,,,,,,,,,,AMNE19.jpg,AMSA10.jpg,AMSA12.jpg,AMNE02.jpg,AMNE19.jpg,MN,1,num_8,16,num_8,0.716761044227,,,2017_Nov_13_1801,59.9976329322,MAFE4ImagesEEG,001,102397,
AFNE01.JPG,AFNE01.JPG,AFNE01.JPG,AFNE01.JPG,AFNE01.JPG,AFNE01.JPG,2,7,27,8,,,,,,,,,,,,,,,,,,,,,,,AMNE16.jpg,AMSA16.jpg,AMSA09.jpg,AMNE13.jpg,AMSA09.jpg,MS,2,num_2,32,num_8,0.733495948371,,,2017_Nov_13_1801,59.9976329322,MAFE4ImagesEEG,001,102397,
AFNE01.JPG,AFNE01.JPG,AFNE01.JPG,AFNE01.JPG,AFNE01.JPG,AFNE01.JPG,2,8,28,6,,,,,,,,,,,,,,,,,,,,,,,AMSA13.jpg,AMNE04.jpg,AMNE12.jpg,AMSA17.jpg,AMSA13.jpg,MS,2,num_8,32,num_4,1.55006278493,,,2017_Nov_13_1801,59.9976329322,MAFE4ImagesEEG,001,102397,
AFNE01.JPG,AFNE01.JPG,AFNE01.JPG,AFNE01.JPG,AFNE01.JPG,AFNE01.JPG,2,9,29,2,,,,,,,,,,,,,,,,,,,,,,,AMNE19.jpg,AMNE01.jpg,AMSA10.jpg,AMSA01.jpg,AMSA01.jpg,MS,2,num_4,16,num_4,0.600198537577,,,2017_Nov_13_1801,59.9976329322,MAFE4ImagesEEG,001,102397,
AFNE01.JPG,AFNE01.JPG,AFNE01.JPG,AFNE01.JPG,AFNE01.JPG,AFNE01.JPG,3,0,30,4,,,,,,,,,,,,,,,,,,,,,,,AMSA02.jpg,AMNE17.jpg,AMNE07.jpg,AMSA06.jpg,AMSA02.jpg,MS,2,num_8,16,num_8,0.78350051865,,,2017_Nov_13_1801,59.9976329322,MAFE4ImagesEEG,001,102397,
AFNE01.JPG,AFNE01.JPG,AFNE01.JPG,AFNE01.JPG,AFNE01.JPG,AFNE01.JPG,3,1,31,5,,,,,,,,,,,,,,,,,,,,,,,AMNE16.jpg,AMSA19.jpg,AMNE12.jpg,AMSA14.jpg,AMNE12.jpg,MN,1,num_2,16,num_2,0.583520084154,,,2017_Nov_13_1801,59.9976329322,MAFE4ImagesEEG,001,102397,
AFNE01.JPG,AFNE01.JPG,AFNE01.JPG,AFNE01.JPG,AFNE01.JPG,AFNE01.JPG,3,2,32,2,,,,,,,,,,,,,,,,,,,,,,,AMSA02.jpg,AMSA19.jpg,AMNE16.jpg,AMNE17.jpg,AMSA02.jpg,MS,2,num_8,16,num_8,0.666777322069,,,2017_Nov_13_1801,59.9976329322,MAFE4ImagesEEG,001,102397,
AFNE01.JPG,AFNE01.JPG,AFNE01.JPG,AFNE01.JPG,AFNE01.JPG,AFNE01.JPG,3,3,33,6,,,,,,,,,,,,,,,,,,,,,,,AMNE09.jpg,AMSA02.jpg,AMNE20.jpg,AMSA12.jpg,AMNE09.jpg,MN,1,num_8,32,num_6,0.416834654287,,,2017_Nov_13_1801,59.9976329322,MAFE4ImagesEEG,001,102397,
AFNE01.JPG,AFNE01.JPG,AFNE01.JPG,AFNE01.JPG,AFNE01.JPG,AFNE01.JPG,3,4,34,3,,,,,,,,,,,,,,,,,,,,,,,AMNE01.jpg,AMSA17.jpg,AMNE04.jpg,AMSA13.jpg,AMNE01.jpg,MN,1,num_8,32,num_2,0.516796325799,,,2017_Nov_13_1801,59.9976329322,MAFE4ImagesEEG,001,102397,
AFNE01.JPG,AFNE01.JPG,AFNE01.JPG,AFNE01.JPG,AFNE01.JPG,AFNE01.JPG,3,5,35,7,,,,,,,,,,,,,,,,,,,,,,,AMNE16.jpg,AMNE08.jpg,AMSA08.jpg,AMSA12.jpg,AMSA12.jpg,MS,2,num_4,16,num_4,0.650119395461,,,2017_Nov_13_1801,59.9976329322,MAFE4ImagesEEG,001,102397,
AFNE01.JPG,AFNE01.JPG,AFNE01.JPG,AFNE01.JPG,AFNE01.JPG,AFNE01.JPG,3,6,36,1,,,,,,,,,,,,,,,,,,,,,,,AMSA20.jpg,AMNE09.jpg,AMSA09.jpg,AMNE04.jpg,AMSA09.jpg,MS,2,num_2,32,num_6,0.716797288042,,,2017_Nov_13_1801,59.9976329322,MAFE4ImagesEEG,001,102397,
AFNE01.JPG,AFNE01.JPG,AFNE01.JPG,AFNE01.JPG,AFNE01.JPG,AFNE01.JPG,3,7,37,9,,,,,,,,,,,,,,,,,,,,,,,AMNE18.jpg,AMSA15.jpg,AMNE01.jpg,AMSA03.jpg,AMNE18.jpg,MN,1,num_8,16,num_8,0.783425465692,,,2017_Nov_13_1801,59.9976329322,MAFE4ImagesEEG,001,102397,
AFNE01.JPG,AFNE01.JPG,AFNE01.JPG,AFNE01.JPG,AFNE01.JPG,AFNE01.JPG,3,8,38,0,,,,,,,,,,,,,,,,,,,,,,,AMNE07.jpg,AMNE01.jpg,AMSA14.jpg,AMSA06.jpg,AMNE07.jpg,MN,1,num_8,16,num_8,0.850179373287,,,2017_Nov_13_1801,59.9976329322,MAFE4ImagesEEG,001,102397,
AFNE01.JPG,AFNE01.JPG,AFNE01.JPG,AFNE01.JPG,AFNE01.JPG,AFNE01.JPG,3,9,39,8,,,,,,,,,,,,,,,,,,,,,,,AMSA02.jpg,AMNE12.jpg,AMNE16.jpg,AMSA01.jpg,AMNE16.jpg,MN,1,num_2,32,num_6,1.1664990806,,,2017_Nov_13_1801,59.9976329322,MAFE4ImagesEEG,001,102397,
AFNE01.JPG,AFNE01.JPG,AFNE01.JPG,AFNE01.JPG,AFNE01.JPG,AFNE01.JPG,4,0,40,1,,,,,,,,,,,,,,,,,,,,,,,AMSA06.jpg,AMNE15.jpg,AMSA20.jpg,AMNE09.jpg,AMNE09.jpg,MN,1,num_4,32,num_6,0.950109933503,,,2017_Nov_13_1801,59.9976329322,MAFE4ImagesEEG,001,102397,
AFNE01.JPG,AFNE01.JPG,AFNE01.JPG,AFNE01.JPG,AFNE01.JPG,AFNE01.JPG,4,1,41,3,,,,,,,,,,,,,,,,,,,,,,,AMNE17.jpg,AMSA18.jpg,AMSA03.jpg,AMNE06.jpg,AMSA03.jpg,MS,2,num_2,16,num_2,0.833620555233,,,2017_Nov_13_1801,59.9976329322,MAFE4ImagesEEG,001,102397,
AFNE01.JPG,AFNE01.JPG,AFNE01.JPG,AFNE01.JPG,AFNE01.JPG,AFNE01.JPG,4,2,42,8,,,,,,,,,,,,,,,,,,,,,,,AMSA17.jpg,AMNE09.jpg,AMSA12.jpg,AMNE07.jpg,AMNE07.jpg,MN,1,num_4,32,num_8,0.683476623613,,,2017_Nov_13_1801,59.9976329322,MAFE4ImagesEEG,001,102397,
AFNE01.JPG,AFNE01.JPG,AFNE01.JPG,AFNE01.JPG,AFNE01.JPG,AFNE01.JPG,4,3,43,7,,,,,,,,,,,,,,,,,,,,,,,AMNE14.jpg,AMSA07.jpg,AMNE11.jpg,AMSA11.jpg,AMNE14.jpg,MN,1,num_8,32,num_2,0.366824631114,,,2017_Nov_13_1801,59.9976329322,MAFE4ImagesEEG,001,102397,
AFNE01.JPG,AFNE01.JPG,AFNE01.JPG,AFNE01.JPG,AFNE01.JPG,AFNE01.JPG,4,4,44,0,,,,,,,,,,,,,,,,,,,,,,,AMSA14.jpg,AMNE16.jpg,AMSA01.jpg,AMNE13.jpg,AMNE13.jpg,MN,1,num_4,32,num_6,0.833499316126,,,2017_Nov_13_1801,59.9976329322,MAFE4ImagesEEG,001,102397,
AFNE01.JPG,AFNE01.JPG,AFNE01.JPG,AFNE01.JPG,AFNE01.JPG,AFNE01.JPG,4,5,45,4,,,,,,,,,,,,,,,,,,,,,,,AMSA15.jpg,AMNE18.jpg,AMNE07.jpg,AMSA14.jpg,AMNE07.jpg,MN,1,num_2,32,num_4,1.3000742509,,,2017_Nov_13_1801,59.9976329322,MAFE4ImagesEEG,001,102397,
AFNE01.JPG,AFNE01.JPG,AFNE01.JPG,AFNE01.JPG,AFNE01.JPG,AFNE01.JPG,4,6,46,9,,,,,,,,,,,,,,,,,,,,,,,AMNE14.jpg,AMSA08.jpg,AMNE05.jpg,AMSA15.jpg,AMSA15.jpg,MS,2,num_4,32,num_6,0.850109452382,,,2017_Nov_13_1801,59.9976329322,MAFE4ImagesEEG,001,102397,
AFNE01.JPG,AFNE01.JPG,AFNE01.JPG,AFNE01.JPG,AFNE01.JPG,AFNE01.JPG,4,7,47,5,,,,,,,,,,,,,,,,,,,,,,,AMSA09.jpg,AMNE02.jpg,AMSA04.jpg,AMNE15.jpg,AMNE15.jpg,MN,1,num_4,16,num_4,0.933456176426,,,2017_Nov_13_1801,59.9976329322,MAFE4ImagesEEG,001,102397,
AFNE01.JPG,AFNE01.JPG,AFNE01.JPG,AFNE01.JPG,AFNE01.JPG,AFNE01.JPG,4,8,48,6,,,,,,,,,,,,,,,,,,,,,,,AMNE19.jpg,AMSA02.jpg,AMNE05.jpg,AMSA05.jpg,AMSA02.jpg,MS,2,num_6,32,num_2,0.350181137677,,,2017_Nov_13_1801,59.9976329322,MAFE4ImagesEEG,001,102397,
AFNE01.JPG,AFNE01.JPG,AFNE01.JPG,AFNE01.JPG,AFNE01.JPG,AFNE01.JPG,4,9,49,2,,,,,,,,,,,,,,,,,,,,,,,AMSA01.jpg,AMSA10.jpg,AMNE10.jpg,AMNE07.jpg,AMNE07.jpg,MN,1,num_4,32,num_2,0.766807631589,,,2017_Nov_13_1801,59.9976329322,MAFE4ImagesEEG,001,102397,
AFNE01.JPG,AFNE01.JPG,AFNE01.JPG,AFNE01.JPG,AFNE01.JPG,AFNE01.JPG,5,0,50,4,,,,,,,,,,,,,,,,,,,,,,,AMNE12.jpg,AMSA07.jpg,AMNE16.jpg,AMSA01.jpg,AMSA07.jpg,MS,2,num_6,16,num_6,1.16674957797,,,2017_Nov_13_1801,59.9976329322,MAFE4ImagesEEG,001,102397,
AFNE01.JPG,AFNE01.JPG,AFNE01.JPG,AFNE01.JPG,AFNE01.JPG,AFNE01.JPG,5,1,51,8,,,,,,,,,,,,,,,,,,,,,,,AMSA08.jpg,AMSA18.jpg,AMNE09.jpg,AMNE18.jpg,AMNE18.jpg,MN,1,num_4,16,num_4,0.883465076797,,,2017_Nov_13_1801,59.9976329322,MAFE4ImagesEEG,001,102397,
AFNE01.JPG,AFNE01.JPG,AFNE01.JPG,AFNE01.JPG,AFNE01.JPG,AFNE01.JPG,5,2,52,1,,,,,,,,,,,,,,,,,,,,,,,AMSA01.jpg,AMNE07.jpg,AMNE01.jpg,AMSA04.jpg,AMSA04.jpg,MS,2,num_4,32,num_8,1.05014248844,,,2017_Nov_13_1801,59.9976329322,MAFE4ImagesEEG,001,102397,
AFNE01.JPG,AFNE01.JPG,AFNE01.JPG,AFNE01.JPG,AFNE01.JPG,AFNE01.JPG,5,3,53,0,,,,,,,,,,,,,,,,,,,,,,,AMNE07.jpg,AMSA11.jpg,AMSA19.jpg,AMNE12.jpg,AMNE07.jpg,MN,1,num_8,16,num_8,0.883545262273,,,2017_Nov_13_1801,59.9976329322,MAFE4ImagesEEG,001,102397,
AFNE01.JPG,AFNE01.JPG,AFNE01.JPG,AFNE01.JPG,AFNE01.JPG,AFNE01.JPG,5,4,54,5,,,,,,,,,,,,,,,,,,,,,,,AMSA04.jpg,AMNE14.jpg,AMNE19.jpg,AMSA03.jpg,AMNE19.jpg,MN,1,num_2,16,num_2,0.766764011234,,,2017_Nov_13_1801,59.9976329322,MAFE4ImagesEEG,001,102397,
AFNE01.JPG,AFNE01.JPG,AFNE01.JPG,AFNE01.JPG,AFNE01.JPG,AFNE01.JPG,5,5,55,2,,,,,,,,,,,,,,,,,,,,,,,AMSA09.jpg,AMNE15.jpg,AMNE04.jpg,AMSA17.jpg,AMNE15.jpg,MN,1,num_6,16,num_6,0.316835776437,,,2017_Nov_13_1801,59.9976329322,MAFE4ImagesEEG,001,102397,
AFNE01.JPG,AFNE01.JPG,AFNE01.JPG,AFNE01.JPG,AFNE01.JPG,AFNE01.JPG,5,6,56,9,,,,,,,,,,,,,,,,,,,,,,,AMNE09.jpg,AMNE10.jpg,AMSA07.jpg,AMSA09.jpg,AMNE09.jpg,MN,1,num_8,16,num_8,0.366879156791,,,2017_Nov_13_1801,59.9976329322,MAFE4ImagesEEG,001,102397,
AFNE01.JPG,AFNE01.JPG,AFNE01.JPG,AFNE01.JPG,AFNE01.JPG,AFNE01.JPG,5,7,57,7,,,,,,,,,,,,,,,,,,,,,,,AMSA12.jpg,AMNE08.jpg,AMSA10.jpg,AMNE03.jpg,AMNE03.jpg,MN,1,num_4,16,num_4,0.333461950067,,,2017_Nov_13_1801,59.9976329322,MAFE4ImagesEEG,001,102397,
AFNE01.JPG,AFNE01.JPG,AFNE01.JPG,AFNE01.JPG,AFNE01.JPG,AFNE01.JPG,5,8,58,6,,,,,,,,,,,,,,,,,,,,,,,AMNE10.jpg,AMSA04.jpg,AMNE03.jpg,AMSA20.jpg,AMNE10.jpg,MN,1,num_8,32,num_2,0.333528343122,,,2017_Nov_13_1801,59.9976329322,MAFE4ImagesEEG,001,102397,
AFNE01.JPG,AFNE01.JPG,AFNE01.JPG,AFNE01.JPG,AFNE01.JPG,AFNE01.JPG,5,9,59,3,,,,,,,,,,,,,,,,,,,,,,,AMNE19.jpg,AMNE14.jpg,AMSA13.jpg,AMSA07.jpg,AMNE14.jpg,MN,1,num_6,16,num_6,0.466835696716,,,2017_Nov_13_1801,59.9976329322,MAFE4ImagesEEG,001,102397,
,,,,,,,,,,,,,,,,,,,,,,,,,,,,,,,,,,,,,,,,,,,space,5.8163824114,2017_Nov_13_1801,59.9976329322,MAFE4ImagesEEG,001,102397,
AFNE01.JPG,AFNE01.JPG,AFNE01.JPG,AFNE01.JPG,AFNE01.JPG,AFNE01.JPG,,,,,0,0,0,4,,,,,,,,,,,,,,,,,,,AFNE19.jpg,AFSA03.jpg,AFNE05.jpg,AFSA17.jpg,AFSA03.jpg,FS,4,num_6,32,num_2,0.533488250338,,,2017_Nov_13_1801,59.9976329322,MAFE4ImagesEEG,001,102397,
AFNE01.JPG,AFNE01.JPG,AFNE01.JPG,AFNE01.JPG,AFNE01.JPG,AFNE01.JPG,,,,,0,1,1,2,,,,,,,,,,,,,,,,,,,AFSA08.jpg,AFNE07.jpg,AFNE01.jpg,AFSA13.jpg,AFNE01.jpg,FN,3,num_2,32,num_6,0.533551115543,,,2017_Nov_13_1801,59.9976329322,MAFE4ImagesEEG,001,102397,
AFNE01.JPG,AFNE01.JPG,AFNE01.JPG,AFNE01.JPG,AFNE01.JPG,AFNE01.JPG,,,,,0,2,2,1,,,,,,,,,,,,,,,,,,,AFSA07.jpg,AFNE17.jpg,AFSA08.jpg,AFNE19.jpg,AFSA07.jpg,FS,4,num_8,32,num_6,0.783458181191,,,2017_Nov_13_1801,59.9976329322,MAFE4ImagesEEG,001,102397,
AFNE01.JPG,AFNE01.JPG,AFNE01.JPG,AFNE01.JPG,AFNE01.JPG,AFNE01.JPG,,,,,0,3,3,6,,,,,,,,,,,,,,,,,,,AFSA03.jpg,AFNE01.jpg,AFNE18.jpg,AFSA11.jpg,AFNE18.jpg,FN,3,num_2,32,num_8,0.766777161509,,,2017_Nov_13_1801,59.9976329322,MAFE4ImagesEEG,001,102397,
AFNE01.JPG,AFNE01.JPG,AFNE01.JPG,AFNE01.JPG,AFNE01.JPG,AFNE01.JPG,,,,,0,4,4,8,,,,,,,,,,,,,,,,,,,AFNE19.jpg,AFSA07.jpg,AFSA05.jpg,AFNE20.jpg,AFSA07.jpg,FS,4,num_6,32,num_4,0.983426427934,,,2017_Nov_13_1801,59.9976329322,MAFE4ImagesEEG,001,102397,
AFNE01.JPG,AFNE01.JPG,AFNE01.JPG,AFNE01.JPG,AFNE01.JPG,AFNE01.JPG,,,,,0,5,5,7,,,,,,,,,,,,,,,,,,,AFSA12.jpg,AFSA05.jpg,AFNE14.jpg,AFNE03.jpg,AFSA12.jpg,FS,4,num_8,16,num_8,0.883438135032,,,2017_Nov_13_1801,59.9976329322,MAFE4ImagesEEG,001,102397,
AFNE01.JPG,AFNE01.JPG,AFNE01.JPG,AFNE01.JPG,AFNE01.JPG,AFNE01.JPG,,,,,0,6,6,3,,,,,,,,,,,,,,,,,,,AFSA07.jpg,AFNE16.jpg,AFSA04.jpg,AFNE13.jpg,AFSA07.jpg,FS,4,num_8,16,num_8,0.766758237965,,,2017_Nov_13_1801,59.9976329322,MAFE4ImagesEEG,001,102397,
AFNE01.JPG,AFNE01.JPG,AFNE01.JPG,AFNE01.JPG,AFNE01.JPG,AFNE01.JPG,,,,,0,7,7,9,,,,,,,,,,,,,,,,,,,AFSA20.jpg,AFNE19.jpg,AFSA01.jpg,AFNE08.jpg,AFSA20.jpg,FS,4,num_8,32,num_4,0.70012396574,,,2017_Nov_13_1801,59.9976329322,MAFE4ImagesEEG,001,102397,
AFNE01.JPG,AFNE01.JPG,AFNE01.JPG,AFNE01.JPG,AFNE01.JPG,AFNE01.JPG,,,,,0,8,8,0,,,,,,,,,,,,,,,,,,,AFSA20.jpg,AFSA07.jpg,AFNE15.jpg,AFNE16.jpg,AFSA20.jpg,FS,4,num_8,32,num_4,0.716805306263,,,2017_Nov_13_1801,59.9976329322,MAFE4ImagesEEG,001,102397,
AFNE01.JPG,AFNE01.JPG,AFNE01.JPG,AFNE01.JPG,AFNE01.JPG,AFNE01.JPG,,,,,0,9,9,5,,,,,,,,,,,,,,,,,,,AFSA05.jpg,AFNE11.jpg,AFNE19.jpg,AFSA18.jpg,AFSA05.jpg,FS,4,num_8,16,num_8,0.933515192475,,,2017_Nov_13_1801,59.9976329322,MAFE4ImagesEEG,001,102397,
AFNE01.JPG,AFNE01.JPG,AFNE01.JPG,AFNE01.JPG,AFNE01.JPG,AFNE01.JPG,,,,,1,0,10,6,,,,,,,,,,,,,,,,,,,AFNE10.jpg,AFNE11.jpg,AFSA05.jpg,AFSA12.jpg,AFNE10.jpg,FN,3,num_8,16,num_8,0.550152591895,,,2017_Nov_13_1801,59.9976329322,MAFE4ImagesEEG,001,102397,
AFNE01.JPG,AFNE01.JPG,AFNE01.JPG,AFNE01.JPG,AFNE01.JPG,AFNE01.JPG,,,,,1,1,11,3,,,,,,,,,,,,,,,,,,,AFNE11.jpg,AFNE10.jpg,AFSA07.jpg,AFSA13.jpg,AFNE11.jpg,FN,3,num_8,32,num_2,1.26672696555,,,2017_Nov_13_1801,59.9976329322,MAFE4ImagesEEG,001,102397,
AFNE01.JPG,AFNE01.JPG,AFNE01.JPG,AFNE01.JPG,AFNE01.JPG,AFNE01.JPG,,,,,1,2,12,5,,,,,,,,,,,,,,,,,,,AFNE12.jpg,AFNE18.jpg,AFSA02.jpg,AFSA01.jpg,AFSA02.jpg,FS,4,num_2,16,num_2,0.800113862846,,,2017_Nov_13_1801,59.9976329322,MAFE4ImagesEEG,001,102397,
AFNE01.JPG,AFNE01.JPG,AFNE01.JPG,AFNE01.JPG,AFNE01.JPG,AFNE01.JPG,,,,,1,3,13,9,,,,,,,,,,,,,,,,,,,AFNE07.jpg,AFSA17.jpg,AFNE06.jpg,AFSA19.jpg,AFNE07.jpg,FN,3,num_8,32,num_6,1.8667067592,,,2017_Nov_13_1801,59.9976329322,MAFE4ImagesEEG,001,102397,
AFNE01.JPG,AFNE01.JPG,AFNE01.JPG,AFNE01.JPG,AFNE01.JPG,AFNE01.JPG,,,,,1,4,14,1,,,,,,,,,,,,,,,,,,,AFNE12.jpg,AFSA05.jpg,AFSA19.jpg,AFNE03.jpg,AFNE12.jpg,FN,3,num_8,32,num_4,0.750138800126,,,2017_Nov_13_1801,59.9976329322,MAFE4ImagesEEG,001,102397,
AFNE01.JPG,AFNE01.JPG,AFNE01.JPG,AFNE01.JPG,AFNE01.JPG,AFNE01.JPG,,,,,1,5,15,7,,,,,,,,,,,,,,,,,,,AFSA17.jpg,AFSA03.jpg,AFNE10.jpg,AFNE13.jpg,AFSA17.jpg,FS,4,num_8,32,num_6,0.716856624465,,,2017_Nov_13_1801,59.9976329322,MAFE4ImagesEEG,001,102397,
AFNE01.JPG,AFNE01.JPG,AFNE01.JPG,AFNE01.JPG,AFNE01.JPG,AFNE01.JPG,,,,,1,6,16,2,,,,,,,,,,,,,,,,,,,AFSA09.jpg,AFNE18.jpg,AFNE04.jpg,AFSA08.jpg,AFNE18.jpg,FN,3,num_6,32,num_2,0.85015820479,,,2017_Nov_13_1801,59.9976329322,MAFE4ImagesEEG,001,102397,
AFNE01.JPG,AFNE01.JPG,AFNE01.JPG,AFNE01.JPG,AFNE01.JPG,AFNE01.JPG,,,,,1,7,17,4,,,,,,,,,,,,,,,,,,,AFSA13.jpg,AFNE18.jpg,AFNE13.jpg,AFSA09.jpg,AFNE18.jpg,FN,3,num_6,32,num_4,0.816738432273,,,2017_Nov_13_1801,59.9976329322,MAFE4ImagesEEG,001,102397,
AFNE01.JPG,AFNE01.JPG,AFNE01.JPG,AFNE01.JPG,AFNE01.JPG,AFNE01.JPG,,,,,1,8,18,8,,,,,,,,,,,,,,,,,,,AFSA18.jpg,AFNE15.jpg,AFSA11.jpg,AFNE11.jpg,AFNE11.jpg,FN,3,num_4,32,num_2,0.700141606387,,,2017_Nov_13_1801,59.9976329322,MAFE4ImagesEEG,001,102397,
AFNE01.JPG,AFNE01.JPG,AFNE01.JPG,AFNE01.JPG,AFNE01.JPG,AFNE01.JPG,,,,,1,9,19,0,,,,,,,,,,,,,,,,,,,AFNE03.jpg,AFSA20.jpg,AFSA13.jpg,AFNE11.jpg,AFSA13.jpg,FS,4,num_2,32,num_8,0.866754228715,,,2017_Nov_13_1801,59.9976329322,MAFE4ImagesEEG,001,102397,
AFNE01.JPG,AFNE01.JPG,AFNE01.JPG,AFNE01.JPG,AFNE01.JPG,AFNE01.JPG,,,,,2,0,20,0,,,,,,,,,,,,,,,,,,,AFSA09.jpg,AFNE09.jpg,AFNE17.jpg,AFSA18.jpg,AFSA09.jpg,FS,4,num_8,32,num_6,0.350127253681,,,2017_Nov_13_1801,59.9976329322,MAFE4ImagesEEG,001,102397,
AFNE01.JPG,AFNE01.JPG,AFNE01.JPG,AFNE01.JPG,AFNE01.JPG,AFNE01.JPG,,,,,2,1,21,4,,,,,,,,,,,,,,,,,,,AFSA20.jpg,AFSA02.jpg,AFNE14.jpg,AFNE05.jpg,AFSA20.jpg,FS,4,num_8,32,num_4,0.816821183078,,,2017_Nov_13_1801,59.9976329322,MAFE4ImagesEEG,001,102397,
AFNE01.JPG,AFNE01.JPG,AFNE01.JPG,AFNE01.JPG,AFNE01.JPG,AFNE01.JPG,,,,,2,2,22,8,,,,,,,,,,,,,,,,,,,AFNE17.jpg,AFNE01.jpg,AFSA08.jpg,AFSA14.jpg,AFSA08.jpg,FS,4,num_2,16,num_2,0.250147299375,,,2017_Nov_13_1801,59.9976329322,MAFE4ImagesEEG,001,102397,
AFNE01.JPG,AFNE01.JPG,AFNE01.JPG,AFNE01.JPG,AFNE01.JPG,AFNE01.JPG,,,,,2,3,23,6,,,,,,,,,,,,,,,,,,,AFSA10.jpg,AFSA06.jpg,AFNE09.jpg,AFNE19.jpg,AFSA06.jpg,FS,4,num_6,32,num_2,0.883323310409,,,2017_Nov_13_1801,59.9976329322,MAFE4ImagesEEG,001,102397,
AFNE01.JPG,AFNE01.JPG,AFNE01.JPG,AFNE01.JPG,AFNE01.JPG,AFNE01.JPG,,,,,2,4,24,5,,,,,,,,,,,,,,,,,,,AFSA06.jpg,AFNE12.jpg,AFNE13.jpg,AFSA01.jpg,AFNE13.jpg,FN,3,num_2,32,num_4,0.700151549652,,,2017_Nov_13_1801,59.9976329322,MAFE4ImagesEEG,001,102397,
AFNE01.JPG,AFNE01.JPG,AFNE01.JPG,AFNE01.JPG,AFNE01.JPG,AFNE01.JPG,,,,,2,5,25,9,,,,,,,,,,,,,,,,,,,AFSA06.jpg,AFNE14.jpg,AFSA12.jpg,AFNE02.jpg,AFSA06.jpg,FS,4,num_8,32,num_2,0.700109532569,,,2017_Nov_13_1801,59.9976329322,MAFE4ImagesEEG,001,102397,
AFNE01.JPG,AFNE01.JPG,AFNE01.JPG,AFNE01.JPG,AFNE01.JPG,AFNE01.JPG,,,,,2,6,26,3,,,,,,,,,,,,,,,,,,,AFNE02.jpg,AFSA14.jpg,AFSA15.jpg,AFNE01.jpg,AFNE02.jpg,FN,3,num_8,16,num_8,0.900095419958,,,2017_Nov_13_1801,59.9976329322,MAFE4ImagesEEG,001,102397,
AFNE01.JPG,AFNE01.JPG,AFNE01.JPG,AFNE01.JPG,AFNE01.JPG,AFNE01.JPG,,,,,2,7,27,2,,,,,,,,,,,,,,,,,,,AFNE13.jpg,AFSA13.jpg,AFNE20.jpg,AFSA02.jpg,AFSA02.jpg,FS,4,num_4,32,num_2,0.483813399915,,,2017_Nov_13_1801,59.9976329322,MAFE4ImagesEEG,001,102397,
AFNE01.JPG,AFNE01.JPG,AFNE01.JPG,AFNE01.JPG,AFNE01.JPG,AFNE01.JPG,,,,,2,8,28,1,,,,,,,,,,,,,,,,,,,AFNE14.jpg,AFNE03.jpg,AFSA06.jpg,AFSA04.jpg,AFSA04.jpg,FS,4,num_4,32,num_6,0.300155077595,,,2017_Nov_13_1801,59.9976329322,MAFE4ImagesEEG,001,102397,
AFNE01.JPG,AFNE01.JPG,AFNE01.JPG,AFNE01.JPG,AFNE01.JPG,AFNE01.JPG,,,,,2,9,29,7,,,,,,,,,,,,,,,,,,,AFNE04.jpg,AFNE12.jpg,AFSA02.jpg,AFSA19.jpg,AFSA02.jpg,FS,4,num_2,32,num_4,0.416855181102,,,2017_Nov_13_1801,59.9976329322,MAFE4ImagesEEG,001,102397,
AFNE01.JPG,AFNE01.JPG,AFNE01.JPG,AFNE01.JPG,AFNE01.JPG,AFNE01.JPG,,,,,3,0,30,0,,,,,,,,,,,,,,,,,,,AFNE08.jpg,AFNE07.jpg,AFSA05.jpg,AFSA13.jpg,AFSA13.jpg,FS,4,num_4,32,num_8,0.750117310323,,,2017_Nov_13_1801,59.9976329322,MAFE4ImagesEEG,001,102397,
AFNE01.JPG,AFNE01.JPG,AFNE01.JPG,AFNE01.JPG,AFNE01.JPG,AFNE01.JPG,,,,,3,1,31,5,,,,,,,,,,,,,,,,,,,AFSA02.jpg,AFSA01.jpg,AFNE16.jpg,AFNE13.jpg,AFNE16.jpg,FN,3,num_2,16,num_2,1.00013663527,,,2017_Nov_13_1801,59.9976329322,MAFE4ImagesEEG,001,102397,
AFNE01.JPG,AFNE01.JPG,AFNE01.JPG,AFNE01.JPG,AFNE01.JPG,AFNE01.JPG,,,,,3,2,32,1,,,,,,,,,,,,,,,,,,,AFSA18.jpg,AFSA19.jpg,AFNE20.jpg,AFNE08.jpg,AFSA19.jpg,FS,4,num_6,16,num_6,0.933472855017,,,2017_Nov_13_1801,59.9976329322,MAFE4ImagesEEG,001,102397,
AFNE01.JPG,AFNE01.JPG,AFNE01.JPG,AFNE01.JPG,AFNE01.JPG,AFNE01.JPG,,,,,3,3,33,8,,,,,,,,,,,,,,,,,,,AFNE15.jpg,AFSA14.jpg,AFSA06.jpg,AFNE09.jpg,AFNE09.jpg,FN,3,num_4,16,num_4,0.750009541865,,,2017_Nov_13_1801,59.9976329322,MAFE4ImagesEEG,001,102397,
AFNE01.JPG,AFNE01.JPG,AFNE01.JPG,AFNE01.JPG,AFNE01.JPG,AFNE01.JPG,,,,,3,4,34,9,,,,,,,,,,,,,,,,,,,AFSA06.jpg,AFNE05.jpg,AFNE02.jpg,AFSA14.jpg,AFNE02.jpg,FN,3,num_2,16,num_2,0.33348311903,,,2017_Nov_13_1801,59.9976329322,MAFE4ImagesEEG,001,102397,
AFNE01.JPG,AFNE01.JPG,AFNE01.JPG,AFNE01.JPG,AFNE01.JPG,AFNE01.JPG,,,,,3,5,35,2,,,,,,,,,,,,,,,,,,,AFSA19.jpg,AFNE11.jpg,AFNE08.jpg,AFSA05.jpg,AFSA19.jpg,FS,4,num_8,32,num_6,0.400182179641,,,2017_Nov_13_1801,59.9976329322,MAFE4ImagesEEG,001,102397,
AFNE01.JPG,AFNE01.JPG,AFNE01.JPG,AFNE01.JPG,AFNE01.JPG,AFNE01.JPG,,,,,3,6,36,7,,,,,,,,,,,,,,,,,,,AFNE03.jpg,AFSA11.jpg,AFNE02.jpg,AFSA13.jpg,AFSA11.jpg,FS,4,num_6,32,num_4,0.783454974182,,,2017_Nov_13_1801,59.9976329322,MAFE4ImagesEEG,001,102397,
AFNE01.JPG,AFNE01.JPG,AFNE01.JPG,AFNE01.JPG,AFNE01.JPG,AFNE01.JPG,,,,,3,7,37,6,,,,,,,,,,,,,,,,,,,AFSA05.jpg,AFNE19.jpg,AFNE06.jpg,AFSA11.jpg,AFNE06.jpg,FN,3,num_2,32,num_8,0.433485844638,,,2017_Nov_13_1801,59.9976329322,MAFE4ImagesEEG,001,102397,
AFNE01.JPG,AFNE01.JPG,AFNE01.JPG,AFNE01.JPG,AFNE01.JPG,AFNE01.JPG,,,,,3,8,38,4,,,,,,,,,,,,,,,,,,,AFSA05.jpg,AFNE15.jpg,AFNE09.jpg,AFSA19.jpg,AFNE09.jpg,FN,3,num_2,16,num_2,0.66679528309,,,2017_Nov_13_1801,59.9976329322,MAFE4ImagesEEG,001,102397,
AFNE01.JPG,AFNE01.JPG,AFNE01.JPG,AFNE01.JPG,AFNE01.JPG,AFNE01.JPG,,,,,3,9,39,3,,,,,,,,,,,,,,,,,,,AFNE16.jpg,AFSA06.jpg,AFNE04.jpg,AFSA13.jpg,AFSA06.jpg,FS,4,num_6,32,num_8,0.316860794555,,,2017_Nov_13_1801,59.9976329322,MAFE4ImagesEEG,001,102397,
AFNE01.JPG,AFNE01.JPG,AFNE01.JPG,AFNE01.JPG,AFNE01.JPG,AFNE01.JPG,,,,,4,0,40,0,,,,,,,,,,,,,,,,,,,AFSA20.jpg,AFSA13.jpg,AFNE11.jpg,AFNE02.jpg,AFSA20.jpg,FS,4,num_8,16,num_8,0.650220748968,,,2017_Nov_13_1801,59.9976329322,MAFE4ImagesEEG,001,102397,
AFNE01.JPG,AFNE01.JPG,AFNE01.JPG,AFNE01.JPG,AFNE01.JPG,AFNE01.JPG,,,,,4,1,41,2,,,,,,,,,,,,,,,,,,,AFNE10.jpg,AFNE15.jpg,AFSA02.jpg,AFSA17.jpg,AFSA02.jpg,FS,4,num_2,16,num_2,0.650132545736,,,2017_Nov_13_1801,59.9976329322,MAFE4ImagesEEG,001,102397,
AFNE01.JPG,AFNE01.JPG,AFNE01.JPG,AFNE01.JPG,AFNE01.JPG,AFNE01.JPG,,,,,4,2,42,9,,,,,,,,,,,,,,,,,,,AFNE07.jpg,AFSA01.jpg,AFSA04.jpg,AFNE09.jpg,AFSA04.jpg,FS,4,num_2,32,num_8,0.833453450352,,,2017_Nov_13_1801,59.9976329322,MAFE4ImagesEEG,001,102397,
AFNE01.JPG,AFNE01.JPG,AFNE01.JPG,AFNE01.JPG,AFNE01.JPG,AFNE01.JPG,,,,,4,3,43,4,,,,,,,,,,,,,,,,,,,AFNE11.jpg,AFSA15.jpg,AFSA09.jpg,AFNE10.jpg,AFSA15.jpg,FS,4,num_6,16,num_6,0.516805626918,,,2017_Nov_13_1801,59.9976329322,MAFE4ImagesEEG,001,102397,
AFNE01.JPG,AFNE01.JPG,AFNE01.JPG,AFNE01.JPG,AFNE01.JPG,AFNE01.JPG,,,,,4,4,44,7,,,,,,,,,,,,,,,,,,,AFSA12.jpg,AFSA02.jpg,AFNE16.jpg,AFNE08.jpg,AFNE16.jpg,FN,3,num_2,32,num_4,0.850097264163,,,2017_Nov_13_1801,59.9976329322,MAFE4ImagesEEG,001,102397,
AFNE01.JPG,AFNE01.JPG,AFNE01.JPG,AFNE01.JPG,AFNE01.JPG,AFNE01.JPG,,,,,4,5,45,3,,,,,,,,,,,,,,,,,,,AFSA07.jpg,AFNE13.jpg,AFSA03.jpg,AFNE03.jpg,AFNE13.jpg,FN,3,num_6,32,num_4,0.48350484902,,,2017_Nov_13_1801,59.9976329322,MAFE4ImagesEEG,001,102397,
AFNE01.JPG,AFNE01.JPG,AFNE01.JPG,AFNE01.JPG,AFNE01.JPG,AFNE01.JPG,,,,,4,6,46,1,,,,,,,,,,,,,,,,,,,AFSA06.jpg,AFSA13.jpg,AFNE16.jpg,AFNE01.jpg,AFSA13.jpg,FS,4,num_6,32,num_4,0.616787825711,,,2017_Nov_13_1801,59.9976329322,MAFE4ImagesEEG,001,102397,
AFNE01.JPG,AFNE01.JPG,AFNE01.JPG,AFNE01.JPG,AFNE01.JPG,AFNE01.JPG,,,,,4,7,47,6,,,,,,,,,,,,,,,,,,,AFNE20.jpg,AFSA16.jpg,AFSA04.jpg,AFNE11.jpg,AFSA04.jpg,FS,4,num_2,32,num_4,0.850109131541,,,2017_Nov_13_1801,59.9976329322,MAFE4ImagesEEG,001,102397,
AFNE01.JPG,AFNE01.JPG,AFNE01.JPG,AFNE01.JPG,AFNE01.JPG,AFNE01.JPG,,,,,4,8,48,8,,,,,,,,,,,,,,,,,,,AFSA01.jpg,AFSA18.jpg,AFNE14.jpg,AFNE18.jpg,AFNE14.jpg,FN,3,num_2,16,num_2,0.716750459746,,,2017_Nov_13_1801,59.9976329322,MAFE4ImagesEEG,001,102397,
AFNE01.JPG,AFNE01.JPG,AFNE01.JPG,AFNE01.JPG,AFNE01.JPG,AFNE01.JPG,,,,,4,9,49,5,,,,,,,,,,,,,,,,,,,AFNE03.jpg,AFNE06.jpg,AFSA19.jpg,AFSA09.jpg,AFSA19.jpg,FS,4,num_2,32,num_8,0.933464194648,,,2017_Nov_13_1801,59.9976329322,MAFE4ImagesEEG,001,102397,
AFNE01.JPG,AFNE01.JPG,AFNE01.JPG,AFNE01.JPG,AFNE01.JPG,AFNE01.JPG,,,,,5,0,50,6,,,,,,,,,,,,,,,,,,,AFNE20.jpg,AFNE08.jpg,AFSA08.jpg,AFSA02.jpg,AFSA02.jpg,FS,4,num_4,16,num_4,0.550173760392,,,2017_Nov_13_1801,59.9976329322,MAFE4ImagesEEG,001,102397,
AFNE01.JPG,AFNE01.JPG,AFNE01.JPG,AFNE01.JPG,AFNE01.JPG,AFNE01.JPG,,,,,5,1,51,1,,,,,,,,,,,,,,,,,,,AFNE14.jpg,AFSA12.jpg,AFSA08.jpg,AFNE11.jpg,AFSA12.jpg,FS,4,num_6,32,num_8,1.16695613367,,,2017_Nov_13_1801,59.9976329322,MAFE4ImagesEEG,001,102397,
AFNE01.JPG,AFNE01.JPG,AFNE01.JPG,AFNE01.JPG,AFNE01.JPG,AFNE01.JPG,,,,,5,2,52,4,,,,,,,,,,,,,,,,,,,AFSA02.jpg,AFNE14.jpg,AFSA17.jpg,AFNE19.jpg,AFNE19.jpg,FN,3,num_4,32,num_2,1.45005460596,,,2017_Nov_13_1801,59.9976329322,MAFE4ImagesEEG,001,102397,
AFNE01.JPG,AFNE01.JPG,AFNE01.JPG,AFNE01.JPG,AFNE01.JPG,AFNE01.JPG,,,,,5,3,53,3,,,,,,,,,,,,,,,,,,,AFSA09.jpg,AFNE13.jpg,AFSA19.jpg,AFNE10.jpg,AFSA19.jpg,FS,4,num_2,16,num_2,0.766848044936,,,2017_Nov_13_1801,59.9976329322,MAFE4ImagesEEG,001,102397,
AFNE01.JPG,AFNE01.JPG,AFNE01.JPG,AFNE01.JPG,AFNE01.JPG,AFNE01.JPG,,,,,5,4,54,8,,,,,,,,,,,,,,,,,,,AFSA19.jpg,AFNE17.jpg,AFNE11.jpg,AFSA13.jpg,AFSA13.jpg,FS,4,num_4,32,num_6,0.66679817019,,,2017_Nov_13_1801,59.9976329322,MAFE4ImagesEEG,001,102397,
AFNE01.JPG,AFNE01.JPG,AFNE01.JPG,AFNE01.JPG,AFNE01.JPG,AFNE01.JPG,,,,,5,5,55,5,,,,,,,,,,,,,,,,,,,AFSA01.jpg,AFSA09.jpg,AFNE12.jpg,AFNE18.jpg,AFNE18.jpg,FN,3,num_4,32,num_6,0.816645738669,,,2017_Nov_13_1801,59.9976329322,MAFE4ImagesEEG,001,102397,
AFNE01.JPG,AFNE01.JPG,AFNE01.JPG,AFNE01.JPG,AFNE01.JPG,AFNE01.JPG,,,,,5,6,56,9,,,,,,,,,,,,,,,,,,,AFSA20.jpg,AFNE14.jpg,AFSA10.jpg,AFNE06.jpg,AFNE06.jpg,FN,3,num_4,32,num_6,0.500159246847,,,2017_Nov_13_1801,59.9976329322,MAFE4ImagesEEG,001,102397,
AFNE01.JPG,AFNE01.JPG,AFNE01.JPG,AFNE01.JPG,AFNE01.JPG,AFNE01.JPG,,,,,5,7,57,7,,,,,,,,,,,,,,,,,,,AFNE12.jpg,AFNE17.jpg,AFSA16.jpg,AFSA10.jpg,AFSA16.jpg,FS,4,num_2,16,num_2,0.750115706585,,,2017_Nov_13_1801,59.9976329322,MAFE4ImagesEEG,001,102397,
AFNE01.JPG,AFNE01.JPG,AFNE01.JPG,AFNE01.JPG,AFNE01.JPG,AFNE01.JPG,,,,,5,8,58,2,,,,,,,,,,,,,,,,,,,AFNE14.jpg,AFSA19.jpg,AFNE12.jpg,AFSA17.jpg,AFSA17.jpg,FS,4,num_4,32,num_2,0.683470209129,,,2017_Nov_13_1801,59.9976329322,MAFE4ImagesEEG,001,102397,
AFNE01.JPG,AFNE01.JPG,AFNE01.JPG,AFNE01.JPG,AFNE01.JPG,AFNE01.JPG,,,,,5,9,59,0,,,,,,,,,,,,,,,,,,,AFNE17.jpg,AFSA18.jpg,AFNE01.jpg,AFSA15.jpg,AFNE17.jpg,FN,3,num_8,32,num_4,0.900113702286,,,2017_Nov_13_1801,59.9976329322,MAFE4ImagesEEG,001,102397,
,,,,,,,,,,,,,,,,,,,,,,,,,,,,,,,,,,,,,,,,,,,space,2.749665068,2017_Nov_13_1801,59.9976329322,MAFE4ImagesEEG,001,102397,
AFNE01.JPG,AFNE01.JPG,AFNE01.JPG,AFNE01.JPG,AFNE01.JPG,AFNE01.JPG,,,,,,,,,0,0,0,1,,,,,,,,,,,,,,,AMNE13.jpg,AMSA11.jpg,AMSA03.jpg,AMNE08.jpg,AMNE08.jpg,MN,1,num_4,32,num_6,0.583350733388,,,2017_Nov_13_1801,59.9976329322,MAFE4ImagesEEG,001,102397,
AFNE01.JPG,AFNE01.JPG,AFNE01.JPG,AFNE01.JPG,AFNE01.JPG,AFNE01.JPG,,,,,,,,,0,1,1,7,,,,,,,,,,,,,,,AMNE15.jpg,AMNE09.jpg,AMSA18.jpg,AMSA09.jpg,AMSA18.jpg,MS,2,num_2,32,num_4,0.81679905206,,,2017_Nov_13_1801,59.9976329322,MAFE4ImagesEEG,001,102397,
AFNE01.JPG,AFNE01.JPG,AFNE01.JPG,AFNE01.JPG,AFNE01.JPG,AFNE01.JPG,,,,,,,,,0,2,2,3,,,,,,,,,,,,,,,AMNE14.jpg,AMSA03.jpg,AMNE10.jpg,AMSA17.jpg,AMNE14.jpg,MN,1,num_8,16,num_8,0.533500117715,,,2017_Nov_13_1801,59.9976329322,MAFE4ImagesEEG,001,102397,
AFNE01.JPG,AFNE01.JPG,AFNE01.JPG,AFNE01.JPG,AFNE01.JPG,AFNE01.JPG,,,,,,,,,0,3,3,8,,,,,,,,,,,,,,,AMNE09.jpg,AMSA09.jpg,AMNE17.jpg,AMSA20.jpg,AMNE09.jpg,MN,1,num_8,32,num_2,0.316830324009,,,2017_Nov_13_1801,59.9976329322,MAFE4ImagesEEG,001,102397,
AFNE01.JPG,AFNE01.JPG,AFNE01.JPG,AFNE01.JPG,AFNE01.JPG,AFNE01.JPG,,,,,,,,,0,4,4,0,,,,,,,,,,,,,,,AMNE07.jpg,AMSA17.jpg,AMSA10.jpg,AMNE12.jpg,AMSA10.jpg,MS,2,num_2,32,num_6,2.15006374661,,,2017_Nov_13_1801,59.9976329322,MAFE4ImagesEEG,001,102397,
AFNE01.JPG,AFNE01.JPG,AFNE01.JPG,AFNE01.JPG,AFNE01.JPG,AFNE01.JPG,,,,,,,,,0,5,5,6,,,,,,,,,,,,,,,AMSA16.jpg,AMNE02.jpg,AMSA10.jpg,AMNE20.jpg,AMSA10.jpg,MS,2,num_2,32,num_4,0.649803146254,,,2017_Nov_13_1801,59.9976329322,MAFE4ImagesEEG,001,102397,
AFNE01.JPG,AFNE01.JPG,AFNE01.JPG,AFNE01.JPG,AFNE01.JPG,AFNE01.JPG,,,,,,,,,0,6,6,2,,,,,,,,,,,,,,,AMNE05.jpg,AMNE03.jpg,AMSA05.jpg,AMSA12.jpg,AMSA12.jpg,MS,2,num_4,32,num_2,0.733557530213,,,2017_Nov_13_1801,59.9976329322,MAFE4ImagesEEG,001,102397,
AFNE01.JPG,AFNE01.JPG,AFNE01.JPG,AFNE01.JPG,AFNE01.JPG,AFNE01.JPG,,,,,,,,,0,7,7,5,,,,,,,,,,,,,,,AMSA06.jpg,AMSA02.jpg,AMNE15.jpg,AMNE03.jpg,AMNE15.jpg,MN,1,num_2,16,num_2,0.616787826177,,,2017_Nov_13_1801,59.9976329322,MAFE4ImagesEEG,001,102397,
AFNE01.JPG,AFNE01.JPG,AFNE01.JPG,AFNE01.JPG,AFNE01.JPG,AFNE01.JPG,,,,,,,,,0,8,8,4,,,,,,,,,,,,,,,AMSA14.jpg,AMNE15.jpg,AMNE10.jpg,AMSA10.jpg,AMSA14.jpg,MS,2,num_8,32,num_6,0.766671638004,,,2017_Nov_13_1801,59.9976329322,MAFE4ImagesEEG,001,102397,
AFNE01.JPG,AFNE01.JPG,AFNE01.JPG,AFNE01.JPG,AFNE01.JPG,AFNE01.JPG,,,,,,,,,0,9,9,9,,,,,,,,,,,,,,,AMNE03.jpg,AMSA15.jpg,AMNE18.jpg,AMSA08.jpg,AMSA15.jpg,MS,2,num_6,32,num_8,0.716762327123,,,2017_Nov_13_1801,59.9976329322,MAFE4ImagesEEG,001,102397,
AFNE01.JPG,AFNE01.JPG,AFNE01.JPG,AFNE01.JPG,AFNE01.JPG,AFNE01.JPG,,,,,,,,,1,0,10,7,,,,,,,,,,,,,,,AMNE02.jpg,AMSA02.jpg,AMSA08.jpg,AMNE08.jpg,AMNE02.jpg,MN,1,num_8,32,num_2,0.483494264074,,,2017_Nov_13_1801,59.9976329322,MAFE4ImagesEEG,001,102397,
AFNE01.JPG,AFNE01.JPG,AFNE01.JPG,AFNE01.JPG,AFNE01.JPG,AFNE01.JPG,,,,,,,,,1,1,11,9,,,,,,,,,,,,,,,AMSA03.jpg,AMNE14.jpg,AMSA16.jpg,AMNE15.jpg,AMSA16.jpg,MS,2,num_2,32,num_6,0.566849969327,,,2017_Nov_13_1801,59.9976329322,MAFE4ImagesEEG,001,102397,
AFNE01.JPG,AFNE01.JPG,AFNE01.JPG,AFNE01.JPG,AFNE01.JPG,AFNE01.JPG,,,,,,,,,1,2,12,8,,,,,,,,,,,,,,,AMNE08.jpg,AMSA11.jpg,AMNE02.jpg,AMSA15.jpg,AMSA15.jpg,MS,2,num_4,16,num_4,0.483564506285,,,2017_Nov_13_1801,59.9976329322,MAFE4ImagesEEG,001,102397,
AFNE01.JPG,AFNE01.JPG,AFNE01.JPG,AFNE01.JPG,AFNE01.JPG,AFNE01.JPG,,,,,,,,,1,3,13,3,,,,,,,,,,,,,,,AMSA08.jpg,AMSA18.jpg,AMNE14.jpg,AMNE01.jpg,AMNE01.jpg,MN,1,num_4,32,num_2,0.316860794555,,,2017_Nov_13_1801,59.9976329322,MAFE4ImagesEEG,001,102397,
AFNE01.JPG,AFNE01.JPG,AFNE01.JPG,AFNE01.JPG,AFNE01.JPG,AFNE01.JPG,,,,,,,,,1,4,14,4,,,,,,,,,,,,,,,AMSA08.jpg,AMNE09.jpg,AMSA16.jpg,AMNE06.jpg,AMSA16.jpg,MS,2,num_2,16,num_2,0.750146818813,,,2017_Nov_13_1801,59.9976329322,MAFE4ImagesEEG,001,102397,
AFNE01.JPG,AFNE01.JPG,AFNE01.JPG,AFNE01.JPG,AFNE01.JPG,AFNE01.JPG,,,,,,,,,1,5,15,1,,,,,,,,,,,,,,,AMNE09.jpg,AMNE02.jpg,AMSA07.jpg,AMSA01.jpg,AMNE09.jpg,MN,1,num_8,16,num_8,0.633503485937,,,2017_Nov_13_1801,59.9976329322,MAFE4ImagesEEG,001,102397,
AFNE01.JPG,AFNE01.JPG,AFNE01.JPG,AFNE01.JPG,AFNE01.JPG,AFNE01.JPG,,,,,,,,,1,6,16,6,,,,,,,,,,,,,,,AMSA10.jpg,AMNE07.jpg,AMNE18.jpg,AMSA18.jpg,AMSA18.jpg,MS,2,num_4,32,num_2,0.8501543561,,,2017_Nov_13_1801,59.9976329322,MAFE4ImagesEEG,001,102397,
AFNE01.JPG,AFNE01.JPG,AFNE01.JPG,AFNE01.JPG,AFNE01.JPG,AFNE01.JPG,,,,,,,,,1,7,17,0,,,,,,,,,,,,,,,AMNE01.jpg,AMSA11.jpg,AMSA19.jpg,AMNE19.jpg,AMSA11.jpg,MS,2,num_6,32,num_8,0.683501641266,,,2017_Nov_13_1801,59.9976329322,MAFE4ImagesEEG,001,102397,
AFNE01.JPG,AFNE01.JPG,AFNE01.JPG,AFNE01.JPG,AFNE01.JPG,AFNE01.JPG,,,,,,,,,1,8,18,5,,,,,,,,,,,,,,,AMSA18.jpg,AMNE05.jpg,AMNE03.jpg,AMSA04.jpg,AMSA18.jpg,MS,2,num_8,32,num_4,0.550154516008,,,2017_Nov_13_1801,59.9976329322,MAFE4ImagesEEG,001,102397,
AFNE01.JPG,AFNE01.JPG,AFNE01.JPG,AFNE01.JPG,AFNE01.JPG,AFNE01.JPG,,,,,,,,,1,9,19,2,,,,,,,,,,,,,,,AMNE18.jpg,AMSA13.jpg,AMSA11.jpg,AMNE05.jpg,AMSA13.jpg,MS,2,num_6,32,num_2,0.433532031719,,,2017_Nov_13_1801,59.9976329322,MAFE4ImagesEEG,001,102397,
AFNE01.JPG,AFNE01.JPG,AFNE01.JPG,AFNE01.JPG,AFNE01.JPG,AFNE01.JPG,,,,,,,,,2,0,20,5,,,,,,,,,,,,,,,AMSA10.jpg,AMSA16.jpg,AMNE01.jpg,AMNE10.jpg,AMSA10.jpg,MS,2,num_8,16,num_8,0.700136795174,,,2017_Nov_13_1801,59.9976329322,MAFE4ImagesEEG,001,102397,
AFNE01.JPG,AFNE01.JPG,AFNE01.JPG,AFNE01.JPG,AFNE01.JPG,AFNE01.JPG,,,,,,,,,2,1,21,1,,,,,,,,,,,,,,,AMNE09.jpg,AMNE02.jpg,AMSA03.jpg,AMSA14.jpg,AMSA14.jpg,MS,2,num_4,16,num_4,0.550144252833,,,2017_Nov_13_1801,59.9976329322,MAFE4ImagesEEG,001,102397,
AFNE01.JPG,AFNE01.JPG,AFNE01.JPG,AFNE01.JPG,AFNE01.JPG,AFNE01.JPG,,,,,,,,,2,2,22,2,,,,,,,,,,,,,,,AMNE18.jpg,AMSA10.jpg,AMSA17.jpg,AMNE07.jpg,AMNE07.jpg,MN,1,num_4,32,num_6,0.733494665474,,,2017_Nov_13_1801,59.9976329322,MAFE4ImagesEEG,001,102397,
AFNE01.JPG,AFNE01.JPG,AFNE01.JPG,AFNE01.JPG,AFNE01.JPG,AFNE01.JPG,,,,,,,,,2,3,23,8,,,,,,,,,,,,,,,AMSA19.jpg,AMSA16.jpg,AMNE01.jpg,AMNE17.jpg,AMSA16.jpg,MS,2,num_6,32,num_4,0.750152912922,,,2017_Nov_13_1801,59.9976329322,MAFE4ImagesEEG,001,102397,
AFNE01.JPG,AFNE01.JPG,AFNE01.JPG,AFNE01.JPG,AFNE01.JPG,AFNE01.JPG,,,,,,,,,2,4,24,3,,,,,,,,,,,,,,,AMNE18.jpg,AMSA02.jpg,AMSA07.jpg,AMNE15.jpg,AMSA07.jpg,MS,2,num_2,32,num_4,0.633503485937,,,2017_Nov_13_1801,59.9976329322,MAFE4ImagesEEG,001,102397,
AFNE01.JPG,AFNE01.JPG,AFNE01.JPG,AFNE01.JPG,AFNE01.JPG,AFNE01.JPG,,,,,,,,,2,5,25,0,,,,,,,,,,,,,,,AMSA10.jpg,AMNE16.jpg,AMSA04.jpg,AMNE08.jpg,AMNE08.jpg,MN,1,num_4,16,num_4,0.73347894894,,,2017_Nov_13_1801,59.9976329322,MAFE4ImagesEEG,001,102397,
AFNE01.JPG,AFNE01.JPG,AFNE01.JPG,AFNE01.JPG,AFNE01.JPG,AFNE01.JPG,,,,,,,,,2,6,26,9,,,,,,,,,,,,,,,AMNE06.jpg,AMSA13.jpg,AMNE07.jpg,AMSA01.jpg,AMSA13.jpg,MS,2,num_6,32,num_4,0.800125088543,,,2017_Nov_13_1801,59.9976329322,MAFE4ImagesEEG,001,102397,
AFNE01.JPG,AFNE01.JPG,AFNE01.JPG,AFNE01.JPG,AFNE01.JPG,AFNE01.JPG,,,,,,,,,2,7,27,4,,,,,,,,,,,,,,,AMSA11.jpg,AMNE06.jpg,AMSA12.jpg,AMNE12.jpg,AMSA12.jpg,MS,2,num_2,16,num_2,0.500163096003,,,2017_Nov_13_1801,59.9976329322,MAFE4ImagesEEG,001,102397,
AFNE01.JPG,AFNE01.JPG,AFNE01.JPG,AFNE01.JPG,AFNE01.JPG,AFNE01.JPG,,,,,,,,,2,8,28,7,,,,,,,,,,,,,,,AMSA16.jpg,AMSA11.jpg,AMNE12.jpg,AMNE10.jpg,AMSA16.jpg,MS,2,num_8,16,num_8,0.46676256787,,,2017_Nov_13_1801,59.9976329322,MAFE4ImagesEEG,001,102397,
AFNE01.JPG,AFNE01.JPG,AFNE01.JPG,AFNE01.JPG,AFNE01.JPG,AFNE01.JPG,,,,,,,,,2,9,29,6,,,,,,,,,,,,,,,AMSA10.jpg,AMNE07.jpg,AMSA04.jpg,AMNE05.jpg,AMSA10.jpg,MS,2,num_8,32,num_6,0.566839384846,,,2017_Nov_13_1801,59.9976329322,MAFE4ImagesEEG,001,102397,
AFNE01.JPG,AFNE01.JPG,AFNE01.JPG,AFNE01.JPG,AFNE01.JPG,AFNE01.JPG,,,,,,,,,3,0,30,3,,,,,,,,,,,,,,,AMNE02.jpg,AMNE16.jpg,AMSA12.jpg,AMSA20.jpg,AMSA12.jpg,MS,2,num_2,16,num_2,0.600147219375,,,2017_Nov_13_1801,59.9976329322,MAFE4ImagesEEG,001,102397,
AFNE01.JPG,AFNE01.JPG,AFNE01.JPG,AFNE01.JPG,AFNE01.JPG,AFNE01.JPG,,,,,,,,,3,1,31,5,,,,,,,,,,,,,,,AMNE13.jpg,AMSA09.jpg,AMNE10.jpg,AMSA10.jpg,AMNE13.jpg,MN,1,num_8,16,num_8,0.483506452758,,,2017_Nov_13_1801,59.9976329322,MAFE4ImagesEEG,001,102397,
AFNE01.JPG,AFNE01.JPG,AFNE01.JPG,AFNE01.JPG,AFNE01.JPG,AFNE01.JPG,,,,,,,,,3,2,32,1,,,,,,,,,,,,,,,AMNE11.jpg,AMNE14.jpg,AMSA14.jpg,AMSA05.jpg,AMNE14.jpg,MN,1,num_6,32,num_4,0.783483519219,,,2017_Nov_13_1801,59.9976329322,MAFE4ImagesEEG,001,102397,
AFNE01.JPG,AFNE01.JPG,AFNE01.JPG,AFNE01.JPG,AFNE01.JPG,AFNE01.JPG,,,,,,,,,3,3,33,0,,,,,,,,,,,,,,,AMSA09.jpg,AMNE05.jpg,AMNE06.jpg,AMSA13.jpg,AMSA09.jpg,MS,2,num_8,16,num_8,2.73332018266,,,2017_Nov_13_1801,59.9976329322,MAFE4ImagesEEG,001,102397,
AFNE01.JPG,AFNE01.JPG,AFNE01.JPG,AFNE01.JPG,AFNE01.JPG,AFNE01.JPG,,,,,,,,,3,4,34,6,,,,,,,,,,,,,,,AMNE10.jpg,AMSA18.jpg,AMSA13.jpg,AMNE07.jpg,AMSA18.jpg,MS,2,num_6,16,num_6,0.366809556261,,,2017_Nov_13_1801,59.9976329322,MAFE4ImagesEEG,001,102397,
AFNE01.JPG,AFNE01.JPG,AFNE01.JPG,AFNE01.JPG,AFNE01.JPG,AFNE01.JPG,,,,,,,,,3,5,35,2,,,,,,,,,,,,,,,AMNE08.jpg,AMSA09.jpg,AMSA20.jpg,AMNE20.jpg,AMSA09.jpg,MS,2,num_6,32,num_8,0.933451365214,,,2017_Nov_13_1801,59.9976329322,MAFE4ImagesEEG,001,102397,
AFNE01.JPG,AFNE01.JPG,AFNE01.JPG,AFNE01.JPG,AFNE01.JPG,AFNE01.JPG,,,,,,,,,3,6,36,9,,,,,,,,,,,,,,,AMNE06.jpg,AMSA06.jpg,AMSA07.jpg,AMNE04.jpg,AMSA07.jpg,MS,2,num_2,32,num_4,0.316921093501,,,2017_Nov_13_1801,59.9976329322,MAFE4ImagesEEG,001,102397,
AFNE01.JPG,AFNE01.JPG,AFNE01.JPG,AFNE01.JPG,AFNE01.JPG,AFNE01.JPG,,,,,,,,,3,7,37,8,,,,,,,,,,,,,,,AMSA10.jpg,AMNE08.jpg,AMSA07.jpg,AMNE07.jpg,AMSA10.jpg,MS,2,num_8,32,num_2,0.316807230935,,,2017_Nov_13_1801,59.9976329322,MAFE4ImagesEEG,001,102397,
AFNE01.JPG,AFNE01.JPG,AFNE01.JPG,AFNE01.JPG,AFNE01.JPG,AFNE01.JPG,,,,,,,,,3,8,38,7,,,,,,,,,,,,,,,AMSA18.jpg,AMSA11.jpg,AMNE08.jpg,AMNE04.jpg,AMNE04.jpg,MN,1,num_4,16,num_4,0.816706999671,,,2017_Nov_13_1801,59.9976329322,MAFE4ImagesEEG,001,102397,
AFNE01.JPG,AFNE01.JPG,AFNE01.JPG,AFNE01.JPG,AFNE01.JPG,AFNE01.JPG,,,,,,,,,3,9,39,4,,,,,,,,,,,,,,,AMNE15.jpg,AMSA05.jpg,AMNE12.jpg,AMSA07.jpg,AMSA07.jpg,MS,2,num_4,32,num_2,0.333604358137,,,2017_Nov_13_1801,59.9976329322,MAFE4ImagesEEG,001,102397,
AFNE01.JPG,AFNE01.JPG,AFNE01.JPG,AFNE01.JPG,AFNE01.JPG,AFNE01.JPG,,,,,,,,,4,0,40,4,,,,,,,,,,,,,,,AMNE15.jpg,AMSA03.jpg,AMNE19.jpg,AMSA13.jpg,AMSA03.jpg,MS,2,num_6,16,num_6,0.333484722301,,,2017_Nov_13_1801,59.9976329322,MAFE4ImagesEEG,001,102397,
AFNE01.JPG,AFNE01.JPG,AFNE01.JPG,AFNE01.JPG,AFNE01.JPG,AFNE01.JPG,,,,,,,,,4,1,41,1,,,,,,,,,,,,,,,AMSA01.jpg,AMNE13.jpg,AMSA03.jpg,AMNE05.jpg,AMSA01.jpg,MS,2,num_8,16,num_8,0.433458261192,,,2017_Nov_13_1801,59.9976329322,MAFE4ImagesEEG,001,102397,
AFNE01.JPG,AFNE01.JPG,AFNE01.JPG,AFNE01.JPG,AFNE01.JPG,AFNE01.JPG,,,,,,,,,4,2,42,2,,,,,,,,,,,,,,,AMSA10.jpg,AMSA12.jpg,AMNE18.jpg,AMNE16.jpg,AMSA12.jpg,MS,2,num_6,32,num_4,0.333510381635,,,2017_Nov_13_1801,59.9976329322,MAFE4ImagesEEG,001,102397,
AFNE01.JPG,AFNE01.JPG,AFNE01.JPG,AFNE01.JPG,AFNE01.JPG,AFNE01.JPG,,,,,,,,,4,3,43,0,,,,,,,,,,,,,,,AMNE02.jpg,AMNE10.jpg,AMSA03.jpg,AMSA14.jpg,AMNE02.jpg,MN,1,num_8,32,num_2,0.383492179215,,,2017_Nov_13_1801,59.9976329322,MAFE4ImagesEEG,001,102397,
AFNE01.JPG,AFNE01.JPG,AFNE01.JPG,AFNE01.JPG,AFNE01.JPG,AFNE01.JPG,,,,,,,,,4,4,44,5,,,,,,,,,,,,,,,AMNE15.jpg,AMSA01.jpg,AMSA03.jpg,AMNE18.jpg,AMSA03.jpg,MS,2,num_2,32,num_6,0.250228125602,,,2017_Nov_13_1801,59.9976329322,MAFE4ImagesEEG,001,102397,
AFNE01.JPG,AFNE01.JPG,AFNE01.JPG,AFNE01.JPG,AFNE01.JPG,AFNE01.JPG,,,,,,,,,4,5,45,7,,,,,,,,,,,,,,,AMSA14.jpg,AMSA12.jpg,AMNE15.jpg,AMNE03.jpg,AMSA14.jpg,MS,2,num_8,32,num_4,0.166855421849,,,2017_Nov_13_1801,59.9976329322,MAFE4ImagesEEG,001,102397,
AFNE01.JPG,AFNE01.JPG,AFNE01.JPG,AFNE01.JPG,AFNE01.JPG,AFNE01.JPG,,,,,,,,,4,6,46,6,,,,,,,,,,,,,,,AMNE08.jpg,AMSA18.jpg,AMNE10.jpg,AMSA17.jpg,AMNE10.jpg,MN,1,num_2,32,num_8,0.366823668592,,,2017_Nov_13_1801,59.9976329322,MAFE4ImagesEEG,001,102397,
AFNE01.JPG,AFNE01.JPG,AFNE01.JPG,AFNE01.JPG,AFNE01.JPG,AFNE01.JPG,,,,,,,,,4,7,47,8,,,,,,,,,,,,,,,AMNE05.jpg,AMSA18.jpg,AMNE13.jpg,AMSA13.jpg,AMSA13.jpg,MS,2,num_4,32,num_2,0.79981782008,,,2017_Nov_13_1801,59.9976329322,MAFE4ImagesEEG,001,102397,
AFNE01.JPG,AFNE01.JPG,AFNE01.JPG,AFNE01.JPG,AFNE01.JPG,AFNE01.JPG,,,,,,,,,4,8,48,3,,,,,,,,,,,,,,,AMNE16.jpg,AMSA07.jpg,AMNE06.jpg,AMSA09.jpg,AMNE06.jpg,MN,1,num_2,32,num_4,0.600158124696,,,2017_Nov_13_1801,59.9976329322,MAFE4ImagesEEG,001,102397,
AFNE01.JPG,AFNE01.JPG,AFNE01.JPG,AFNE01.JPG,AFNE01.JPG,AFNE01.JPG,,,,,,,,,4,9,49,9,,,,,,,,,,,,,,,AMNE12.jpg,AMSA02.jpg,AMNE18.jpg,AMSA03.jpg,AMSA03.jpg,MS,2,num_4,32,num_6,0.616863520816,,,2017_Nov_13_1801,59.9976329322,MAFE4ImagesEEG,001,102397,
AFNE01.JPG,AFNE01.JPG,AFNE01.JPG,AFNE01.JPG,AFNE01.JPG,AFNE01.JPG,,,,,,,,,5,0,50,0,,,,,,,,,,,,,,,AMSA15.jpg,AMNE15.jpg,AMNE10.jpg,AMSA18.jpg,AMSA18.jpg,MS,2,num_4,16,num_4,0.600209763739,,,2017_Nov_13_1801,59.9976329322,MAFE4ImagesEEG,001,102397,
AFNE01.JPG,AFNE01.JPG,AFNE01.JPG,AFNE01.JPG,AFNE01.JPG,AFNE01.JPG,,,,,,,,,5,1,51,2,,,,,,,,,,,,,,,AMSA01.jpg,AMNE12.jpg,AMNE13.jpg,AMSA05.jpg,AMSA01.jpg,MS,2,num_8,32,num_4,1.56676176609,,,2017_Nov_13_1801,59.9976329322,MAFE4ImagesEEG,001,102397,
AFNE01.JPG,AFNE01.JPG,AFNE01.JPG,AFNE01.JPG,AFNE01.JPG,AFNE01.JPG,,,,,,,,,5,2,52,9,,,,,,,,,,,,,,,AMNE04.jpg,AMNE12.jpg,AMSA16.jpg,AMSA19.jpg,AMSA16.jpg,MS,2,num_2,32,num_4,0.567016112152,,,2017_Nov_13_1801,59.9976329322,MAFE4ImagesEEG,001,102397,
AFNE01.JPG,AFNE01.JPG,AFNE01.JPG,AFNE01.JPG,AFNE01.JPG,AFNE01.JPG,,,,,,,,,5,3,53,5,,,,,,,,,,,,,,,AMNE07.jpg,AMSA20.jpg,AMNE02.jpg,AMSA12.jpg,AMSA12.jpg,MS,2,num_4,16,num_4,0.933467402589,,,2017_Nov_13_1801,59.9976329322,MAFE4ImagesEEG,001,102397,
AFNE01.JPG,AFNE01.JPG,AFNE01.JPG,AFNE01.JPG,AFNE01.JPG,AFNE01.JPG,,,,,,,,,5,4,54,7,,,,,,,,,,,,,,,AMNE20.jpg,AMSA05.jpg,AMNE14.jpg,AMSA12.jpg,AMNE20.jpg,MN,1,num_8,16,num_8,0.766852214467,,,2017_Nov_13_1801,59.9976329322,MAFE4ImagesEEG,001,102397,
AFNE01.JPG,AFNE01.JPG,AFNE01.JPG,AFNE01.JPG,AFNE01.JPG,AFNE01.JPG,,,,,,,,,5,5,55,4,,,,,,,,,,,,,,,AMNE20.jpg,AMSA19.jpg,AMNE03.jpg,AMSA10.jpg,AMSA10.jpg,MS,2,num_4,32,num_2,0.683468284085,,,2017_Nov_13_1801,59.9976329322,MAFE4ImagesEEG,001,102397,
AFNE01.JPG,AFNE01.JPG,AFNE01.JPG,AFNE01.JPG,AFNE01.JPG,AFNE01.JPG,,,,,,,,,5,6,56,3,,,,,,,,,,,,,,,AMSA02.jpg,AMNE20.jpg,AMSA08.jpg,AMNE03.jpg,AMNE03.jpg,MN,1,num_4,32,num_8,0.750119234901,,,2017_Nov_13_1801,59.9976329322,MAFE4ImagesEEG,001,102397,
AFNE01.JPG,AFNE01.JPG,AFNE01.JPG,AFNE01.JPG,AFNE01.JPG,AFNE01.JPG,,,,,,,,,5,7,57,1,,,,,,,,,,,,,,,AMNE02.jpg,AMSA09.jpg,AMSA03.jpg,AMNE01.jpg,AMSA03.jpg,MS,2,num_2,32,num_4,0.333485363983,,,2017_Nov_13_1801,59.9976329322,MAFE4ImagesEEG,001,102397,
AFNE01.JPG,AFNE01.JPG,AFNE01.JPG,AFNE01.JPG,AFNE01.JPG,AFNE01.JPG,,,,,,,,,5,8,58,8,,,,,,,,,,,,,,,AMSA04.jpg,AMSA15.jpg,AMNE16.jpg,AMNE02.jpg,AMNE02.jpg,MN,1,num_4,32,num_6,0.316836738959,,,2017_Nov_13_1801,59.9976329322,MAFE4ImagesEEG,001,102397,
AFNE01.JPG,AFNE01.JPG,AFNE01.JPG,AFNE01.JPG,AFNE01.JPG,AFNE01.JPG,,,,,,,,,5,9,59,6,,,,,,,,,,,,,,,AMSA12.jpg,AMNE18.jpg,AMNE08.jpg,AMSA09.jpg,AMNE08.jpg,MN,1,num_2,32,num_8,0.166838102043,,,2017_Nov_13_1801,59.9976329322,MAFE4ImagesEEG,001,102397,
,,,,,,,,,,,,,,,,,,,,,,,,,,,,,,,,,,,,,,,,,,,space,13.0494342954,2017_Nov_13_1801,59.9976329322,MAFE4ImagesEEG,001,102397,
AFNE01.JPG,AFNE01.JPG,AFNE01.JPG,AFNE01.JPG,AFNE01.JPG,AFNE01.JPG,,,,,,,,,,,,,0,0,0,0,,,,,,,,,,,AFSA09.jpg,AFSA03.jpg,AFNE01.jpg,AFNE16.jpg,AFSA03.jpg,FS,4,num_6,32,num_8,0.616778524593,,,2017_Nov_13_1801,59.9976329322,MAFE4ImagesEEG,001,102397,
AFNE01.JPG,AFNE01.JPG,AFNE01.JPG,AFNE01.JPG,AFNE01.JPG,AFNE01.JPG,,,,,,,,,,,,,0,1,1,8,,,,,,,,,,,AFNE11.jpg,AFSA04.jpg,AFSA09.jpg,AFNE18.jpg,AFNE18.jpg,FN,3,num_4,32,num_6,0.616772109643,,,2017_Nov_13_1801,59.9976329322,MAFE4ImagesEEG,001,102397,
AFNE01.JPG,AFNE01.JPG,AFNE01.JPG,AFNE01.JPG,AFNE01.JPG,AFNE01.JPG,,,,,,,,,,,,,0,2,2,7,,,,,,,,,,,AFSA12.jpg,AFNE12.jpg,AFSA03.jpg,AFNE16.jpg,AFSA03.jpg,FS,4,num_2,16,num_2,0.616776921321,,,2017_Nov_13_1801,59.9976329322,MAFE4ImagesEEG,001,102397,
AFNE01.JPG,AFNE01.JPG,AFNE01.JPG,AFNE01.JPG,AFNE01.JPG,AFNE01.JPG,,,,,,,,,,,,,0,3,3,4,,,,,,,,,,,AFNE20.jpg,AFSA17.jpg,AFSA09.jpg,AFNE17.jpg,AFSA17.jpg,FS,4,num_6,32,num_4,0.483547186479,,,2017_Nov_13_1801,59.9976329322,MAFE4ImagesEEG,001,102397,
AFNE01.JPG,AFNE01.JPG,AFNE01.JPG,AFNE01.JPG,AFNE01.JPG,AFNE01.JPG,,,,,,,,,,,,,0,4,4,6,,,,,,,,,,,AFSA01.jpg,AFNE19.jpg,AFNE13.jpg,AFSA08.jpg,AFNE19.jpg,FN,3,num_6,32,num_8,0.566768180579,,,2017_Nov_13_1801,59.9976329322,MAFE4ImagesEEG,001,102397,
AFNE01.JPG,AFNE01.JPG,AFNE01.JPG,AFNE01.JPG,AFNE01.JPG,AFNE01.JPG,,,,,,,,,,,,,0,5,5,2,,,,,,,,,,,AFNE03.jpg,AFSA08.jpg,AFNE13.jpg,AFSA05.jpg,AFSA08.jpg,FS,4,num_6,16,num_6,0.450190599542,,,2017_Nov_13_1801,59.9976329322,MAFE4ImagesEEG,001,102397,
AFNE01.JPG,AFNE01.JPG,AFNE01.JPG,AFNE01.JPG,AFNE01.JPG,AFNE01.JPG,,,,,,,,,,,,,0,6,6,5,,,,,,,,,,,AFSA14.jpg,AFNE13.jpg,AFSA01.jpg,AFNE09.jpg,AFNE09.jpg,FN,3,num_4,32,num_2,0.716773232445,,,2017_Nov_13_1801,59.9976329322,MAFE4ImagesEEG,001,102397,
AFNE01.JPG,AFNE01.JPG,AFNE01.JPG,AFNE01.JPG,AFNE01.JPG,AFNE01.JPG,,,,,,,,,,,,,0,7,7,1,,,,,,,,,,,AFSA10.jpg,AFSA17.jpg,AFNE02.jpg,AFNE20.jpg,AFSA10.jpg,FS,4,num_8,32,num_4,0.850163016003,,,2017_Nov_13_1801,59.9976329322,MAFE4ImagesEEG,001,102397,
AFNE01.JPG,AFNE01.JPG,AFNE01.JPG,AFNE01.JPG,AFNE01.JPG,AFNE01.JPG,,,,,,,,,,,,,0,8,8,9,,,,,,,,,,,AFNE09.jpg,AFNE03.jpg,AFSA18.jpg,AFSA02.jpg,AFSA02.jpg,FS,4,num_4,32,num_8,0.350199420005,,,2017_Nov_13_1801,59.9976329322,MAFE4ImagesEEG,001,102397,
AFNE01.JPG,AFNE01.JPG,AFNE01.JPG,AFNE01.JPG,AFNE01.JPG,AFNE01.JPG,,,,,,,,,,,,,0,9,9,3,,,,,,,,,,,AFNE06.jpg,AFSA02.jpg,AFSA18.jpg,AFNE17.jpg,AFNE17.jpg,FN,3,num_4,32,num_2,0.283522489015,,,2017_Nov_13_1801,59.9976329322,MAFE4ImagesEEG,001,102397,
AFNE01.JPG,AFNE01.JPG,AFNE01.JPG,AFNE01.JPG,AFNE01.JPG,AFNE01.JPG,,,,,,,,,,,,,1,0,10,5,,,,,,,,,,,AFNE05.jpg,AFNE09.jpg,AFSA04.jpg,AFSA13.jpg,AFSA13.jpg,FS,4,num_4,32,num_6,0.816754789557,,,2017_Nov_13_1801,59.9976329322,MAFE4ImagesEEG,001,102397,
AFNE01.JPG,AFNE01.JPG,AFNE01.JPG,AFNE01.JPG,AFNE01.JPG,AFNE01.JPG,,,,,,,,,,,,,1,1,11,9,,,,,,,,,,,AFSA13.jpg,AFNE16.jpg,AFNE19.jpg,AFSA11.jpg,AFNE19.jpg,FN,3,num_2,16,num_2,0.883478868753,,,2017_Nov_13_1801,59.9976329322,MAFE4ImagesEEG,001,102397,
AFNE01.JPG,AFNE01.JPG,AFNE01.JPG,AFNE01.JPG,AFNE01.JPG,AFNE01.JPG,,,,,,,,,,,,,1,2,12,0,,,,,,,,,,,AFSA15.jpg,AFNE18.jpg,AFNE06.jpg,AFSA03.jpg,AFSA03.jpg,FS,4,num_4,32,num_8,0.866746530868,,,2017_Nov_13_1801,59.9976329322,MAFE4ImagesEEG,001,102397,
AFNE01.JPG,AFNE01.JPG,AFNE01.JPG,AFNE01.JPG,AFNE01.JPG,AFNE01.JPG,,,,,,,,,,,,,1,3,13,4,,,,,,,,,,,AFNE07.jpg,AFSA12.jpg,AFSA18.jpg,AFNE11.jpg,AFSA12.jpg,FS,4,num_6,32,num_2,0.60017063329,,,2017_Nov_13_1801,59.9976329322,MAFE4ImagesEEG,001,102397,
AFNE01.JPG,AFNE01.JPG,AFNE01.JPG,AFNE01.JPG,AFNE01.JPG,AFNE01.JPG,,,,,,,,,,,,,1,4,14,6,,,,,,,,,,,AFSA18.jpg,AFSA12.jpg,AFNE17.jpg,AFNE03.jpg,AFSA12.jpg,FS,4,num_6,32,num_4,0.41678782599,,,2017_Nov_13_1801,59.9976329322,MAFE4ImagesEEG,001,102397,
AFNE01.JPG,AFNE01.JPG,AFNE01.JPG,AFNE01.JPG,AFNE01.JPG,AFNE01.JPG,,,,,,,,,,,,,1,5,15,2,,,,,,,,,,,AFSA19.jpg,AFNE16.jpg,AFNE19.jpg,AFSA10.jpg,AFNE16.jpg,FN,3,num_6,16,num_6,0.933432121295,,,2017_Nov_13_1801,59.9976329322,MAFE4ImagesEEG,001,102397,
AFNE01.JPG,AFNE01.JPG,AFNE01.JPG,AFNE01.JPG,AFNE01.JPG,AFNE01.JPG,,,,,,,,,,,,,1,6,16,8,,,,,,,,,,,AFSA11.jpg,AFNE01.jpg,AFNE17.jpg,AFSA10.jpg,AFNE17.jpg,FN,3,num_2,32,num_4,0.416649266612,,,2017_Nov_13_1801,59.9976329322,MAFE4ImagesEEG,001,102397,
AFNE01.JPG,AFNE01.JPG,AFNE01.JPG,AFNE01.JPG,AFNE01.JPG,AFNE01.JPG,,,,,,,,,,,,,1,7,17,1,,,,,,,,,,,AFSA15.jpg,AFNE19.jpg,AFNE09.jpg,AFSA16.jpg,AFSA16.jpg,FS,4,num_4,16,num_4,0.950100952759,,,2017_Nov_13_1801,59.9976329322,MAFE4ImagesEEG,001,102397,
AFNE01.JPG,AFNE01.JPG,AFNE01.JPG,AFNE01.JPG,AFNE01.JPG,AFNE01.JPG,,,,,,,,,,,,,1,8,18,3,,,,,,,,,,,AFNE16.jpg,AFNE06.jpg,AFSA10.jpg,AFSA07.jpg,AFNE06.jpg,FN,3,num_6,16,num_6,0.733494665474,,,2017_Nov_13_1801,59.9976329322,MAFE4ImagesEEG,001,102397,
AFNE01.JPG,AFNE01.JPG,AFNE01.JPG,AFNE01.JPG,AFNE01.JPG,AFNE01.JPG,,,,,,,,,,,,,1,9,19,7,,,,,,,,,,,AFSA14.jpg,AFNE07.jpg,AFSA19.jpg,AFNE10.jpg,AFSA14.jpg,FS,4,num_8,16,num_8,0.766804744955,,,2017_Nov_13_1801,59.9976329322,MAFE4ImagesEEG,001,102397,
AFNE01.JPG,AFNE01.JPG,AFNE01.JPG,AFNE01.JPG,AFNE01.JPG,AFNE01.JPG,,,,,,,,,,,,,2,0,20,6,,,,,,,,,,,AFNE18.jpg,AFSA10.jpg,AFSA05.jpg,AFNE13.jpg,AFNE18.jpg,FN,3,num_8,32,num_2,0.966764331795,,,2017_Nov_13_1801,59.9976329322,MAFE4ImagesEEG,001,102397,
AFNE01.JPG,AFNE01.JPG,AFNE01.JPG,AFNE01.JPG,AFNE01.JPG,AFNE01.JPG,,,,,,,,,,,,,2,1,21,1,,,,,,,,,,,AFNE09.jpg,AFSA10.jpg,AFSA17.jpg,AFNE02.jpg,AFSA17.jpg,FS,4,num_2,32,num_4,0.800106485374,,,2017_Nov_13_1801,59.9976329322,MAFE4ImagesEEG,001,102397,
AFNE01.JPG,AFNE01.JPG,AFNE01.JPG,AFNE01.JPG,AFNE01.JPG,AFNE01.JPG,,,,,,,,,,,,,2,2,22,5,,,,,,,,,,,AFNE15.jpg,AFNE05.jpg,AFSA09.jpg,AFSA11.jpg,AFNE05.jpg,FN,3,num_6,32,num_4,0.550139761996,,,2017_Nov_13_1801,59.9976329322,MAFE4ImagesEEG,001,102397,
AFNE01.JPG,AFNE01.JPG,AFNE01.JPG,AFNE01.JPG,AFNE01.JPG,AFNE01.JPG,,,,,,,,,,,,,2,3,23,2,,,,,,,,,,,AFNE02.jpg,AFSA18.jpg,AFSA13.jpg,AFNE01.jpg,AFSA18.jpg,FS,4,num_6,16,num_6,0.383461067919,,,2017_Nov_13_1801,59.9976329322,MAFE4ImagesEEG,001,102397,
AFNE01.JPG,AFNE01.JPG,AFNE01.JPG,AFNE01.JPG,AFNE01.JPG,AFNE01.JPG,,,,,,,,,,,,,2,4,24,9,,,,,,,,,,,AFSA12.jpg,AFNE08.jpg,AFSA19.jpg,AFNE02.jpg,AFSA12.jpg,FS,4,num_8,32,num_4,0.433494184166,,,2017_Nov_13_1801,59.9976329322,MAFE4ImagesEEG,001,102397,
AFNE01.JPG,AFNE01.JPG,AFNE01.JPG,AFNE01.JPG,AFNE01.JPG,AFNE01.JPG,,,,,,,,,,,,,2,5,25,7,,,,,,,,,,,AFSA15.jpg,AFSA12.jpg,AFNE13.jpg,AFNE07.jpg,AFNE13.jpg,FN,3,num_2,32,num_6,0.633455053903,,,2017_Nov_13_1801,59.9976329322,MAFE4ImagesEEG,001,102397,
AFNE01.JPG,AFNE01.JPG,AFNE01.JPG,AFNE01.JPG,AFNE01.JPG,AFNE01.JPG,,,,,,,,,,,,,2,6,26,4,,,,,,,,,,,AFNE06.jpg,AFNE07.jpg,AFSA09.jpg,AFSA18.jpg,AFSA18.jpg,FS,4,num_4,32,num_6,0.933493382297,,,2017_Nov_13_1801,59.9976329322,MAFE4ImagesEEG,001,102397,
AFNE01.JPG,AFNE01.JPG,AFNE01.JPG,AFNE01.JPG,AFNE01.JPG,AFNE01.JPG,,,,,,,,,,,,,2,7,27,3,,,,,,,,,,,AFSA13.jpg,AFNE18.jpg,AFSA18.jpg,AFNE11.jpg,AFNE18.jpg,FN,3,num_6,32,num_8,0.683493943419,,,2017_Nov_13_1801,59.9976329322,MAFE4ImagesEEG,001,102397,
AFNE01.JPG,AFNE01.JPG,AFNE01.JPG,AFNE01.JPG,AFNE01.JPG,AFNE01.JPG,,,,,,,,,,,,,2,8,28,0,,,,,,,,,,,AFNE11.jpg,AFSA07.jpg,AFSA19.jpg,AFNE16.jpg,AFSA19.jpg,FS,4,num_2,16,num_2,0.866793679539,,,2017_Nov_13_1801,59.9976329322,MAFE4ImagesEEG,001,102397,
AFNE01.JPG,AFNE01.JPG,AFNE01.JPG,AFNE01.JPG,AFNE01.JPG,AFNE01.JPG,,,,,,,,,,,,,2,9,29,8,,,,,,,,,,,AFNE20.jpg,AFSA18.jpg,AFNE17.jpg,AFSA20.jpg,AFNE17.jpg,FN,3,num_2,16,num_2,0.48351126397,,,2017_Nov_13_1801,59.9976329322,MAFE4ImagesEEG,001,102397,
AFNE01.JPG,AFNE01.JPG,AFNE01.JPG,AFNE01.JPG,AFNE01.JPG,AFNE01.JPG,,,,,,,,,,,,,3,0,30,2,,,,,,,,,,,AFSA14.jpg,AFNE17.jpg,AFNE04.jpg,AFSA20.jpg,AFNE04.jpg,FN,3,num_2,32,num_4,0.800131824333,,,2017_Nov_13_1801,59.9976329322,MAFE4ImagesEEG,001,102397,
AFNE01.JPG,AFNE01.JPG,AFNE01.JPG,AFNE01.JPG,AFNE01.JPG,AFNE01.JPG,,,,,,,,,,,,,3,1,31,5,,,,,,,,,,,AFNE16.jpg,AFSA18.jpg,AFNE11.jpg,AFSA17.jpg,AFNE16.jpg,FN,3,num_8,16,num_8,0.550277038477,,,2017_Nov_13_1801,59.9976329322,MAFE4ImagesEEG,001,102397,
AFNE01.JPG,AFNE01.JPG,AFNE01.JPG,AFNE01.JPG,AFNE01.JPG,AFNE01.JPG,,,,,,,,,,,,,3,2,32,7,,,,,,,,,,,AFSA20.jpg,AFNE13.jpg,AFNE02.jpg,AFSA10.jpg,AFSA10.jpg,FS,4,num_4,32,num_8,0.766765935346,,,2017_Nov_13_1801,59.9976329322,MAFE4ImagesEEG,001,102397,
AFNE01.JPG,AFNE01.JPG,AFNE01.JPG,AFNE01.JPG,AFNE01.JPG,AFNE01.JPG,,,,,,,,,,,,,3,3,33,3,,,,,,,,,,,AFNE09.jpg,AFSA07.jpg,AFNE15.jpg,AFSA19.jpg,AFNE09.jpg,FN,3,num_8,16,num_8,0.683473095763,,,2017_Nov_13_1801,59.9976329322,MAFE4ImagesEEG,001,102397,
AFNE01.JPG,AFNE01.JPG,AFNE01.JPG,AFNE01.JPG,AFNE01.JPG,AFNE01.JPG,,,,,,,,,,,,,3,4,34,6,,,,,,,,,,,AFSA03.jpg,AFSA11.jpg,AFNE18.jpg,AFNE11.jpg,AFSA11.jpg,FS,4,num_6,32,num_4,0.600168388337,,,2017_Nov_13_1801,59.9976329322,MAFE4ImagesEEG,001,102397,
AFNE01.JPG,AFNE01.JPG,AFNE01.JPG,AFNE01.JPG,AFNE01.JPG,AFNE01.JPG,,,,,,,,,,,,,3,5,35,0,,,,,,,,,,,AFSA16.jpg,AFNE07.jpg,AFNE19.jpg,AFSA08.jpg,AFNE07.jpg,FN,3,num_6,16,num_6,0.60042882897,,,2017_Nov_13_1801,59.9976329322,MAFE4ImagesEEG,001,102397,
AFNE01.JPG,AFNE01.JPG,AFNE01.JPG,AFNE01.JPG,AFNE01.JPG,AFNE01.JPG,,,,,,,,,,,,,3,6,36,9,,,,,,,,,,,AFNE15.jpg,AFSA09.jpg,AFSA05.jpg,AFNE17.jpg,AFNE15.jpg,FN,3,num_8,16,num_8,0.716658407822,,,2017_Nov_13_1801,59.9976329322,MAFE4ImagesEEG,001,102397,
AFNE01.JPG,AFNE01.JPG,AFNE01.JPG,AFNE01.JPG,AFNE01.JPG,AFNE01.JPG,,,,,,,,,,,,,3,7,37,1,,,,,,,,,,,AFSA02.jpg,AFSA17.jpg,AFNE15.jpg,AFNE03.jpg,AFSA17.jpg,FS,4,num_6,32,num_8,0.533464515582,,,2017_Nov_13_1801,59.9976329322,MAFE4ImagesEEG,001,102397,
AFNE01.JPG,AFNE01.JPG,AFNE01.JPG,AFNE01.JPG,AFNE01.JPG,AFNE01.JPG,,,,,,,,,,,,,3,8,38,8,,,,,,,,,,,AFSA05.jpg,AFSA14.jpg,AFNE02.jpg,AFNE01.jpg,AFSA05.jpg,FS,4,num_8,32,num_6,0.683484963141,,,2017_Nov_13_1801,59.9976329322,MAFE4ImagesEEG,001,102397,
AFNE01.JPG,AFNE01.JPG,AFNE01.JPG,AFNE01.JPG,AFNE01.JPG,AFNE01.JPG,,,,,,,,,,,,,3,9,39,4,,,,,,,,,,,AFNE13.jpg,AFSA07.jpg,AFNE05.jpg,AFSA04.jpg,AFSA04.jpg,FS,4,num_4,16,num_4,0.316832568962,,,2017_Nov_13_1801,59.9976329322,MAFE4ImagesEEG,001,102397,
AFNE01.JPG,AFNE01.JPG,AFNE01.JPG,AFNE01.JPG,AFNE01.JPG,AFNE01.JPG,,,,,,,,,,,,,4,0,40,5,,,,,,,,,,,AFNE01.jpg,AFSA15.jpg,AFSA16.jpg,AFNE10.jpg,AFSA16.jpg,FS,4,num_2,16,num_2,0.466833451297,,,2017_Nov_13_1801,59.9976329322,MAFE4ImagesEEG,001,102397,
AFNE01.JPG,AFNE01.JPG,AFNE01.JPG,AFNE01.JPG,AFNE01.JPG,AFNE01.JPG,,,,,,,,,,,,,4,1,41,2,,,,,,,,,,,AFNE18.jpg,AFSA02.jpg,AFNE11.jpg,AFSA06.jpg,AFSA02.jpg,FS,4,num_6,32,num_2,0.74974332843,,,2017_Nov_13_1801,59.9976329322,MAFE4ImagesEEG,001,102397,
AFNE01.JPG,AFNE01.JPG,AFNE01.JPG,AFNE01.JPG,AFNE01.JPG,AFNE01.JPG,,,,,,,,,,,,,4,2,42,6,,,,,,,,,,,AFNE02.jpg,AFSA14.jpg,AFNE16.jpg,AFSA19.jpg,AFSA14.jpg,FS,4,num_6,32,num_8,0.283563864883,,,2017_Nov_13_1801,59.9976329322,MAFE4ImagesEEG,001,102397,
AFNE01.JPG,AFNE01.JPG,AFNE01.JPG,AFNE01.JPG,AFNE01.JPG,AFNE01.JPG,,,,,,,,,,,,,4,3,43,7,,,,,,,,,,,AFNE19.jpg,AFNE20.jpg,AFSA13.jpg,AFSA05.jpg,AFSA13.jpg,FS,4,num_2,32,num_6,0.333474138286,,,2017_Nov_13_1801,59.9976329322,MAFE4ImagesEEG,001,102397,
AFNE01.JPG,AFNE01.JPG,AFNE01.JPG,AFNE01.JPG,AFNE01.JPG,AFNE01.JPG,,,,,,,,,,,,,4,4,44,8,,,,,,,,,,,AFNE07.jpg,AFNE02.jpg,AFSA18.jpg,AFSA10.jpg,AFNE02.jpg,FN,3,num_6,32,num_4,0.633463072591,,,2017_Nov_13_1801,59.9976329322,MAFE4ImagesEEG,001,102397,
AFNE01.JPG,AFNE01.JPG,AFNE01.JPG,AFNE01.JPG,AFNE01.JPG,AFNE01.JPG,,,,,,,,,,,,,4,5,45,3,,,,,,,,,,,AFNE02.jpg,AFNE03.jpg,AFSA18.jpg,AFSA16.jpg,AFNE03.jpg,FN,3,num_6,32,num_8,0.383535158355,,,2017_Nov_13_1801,59.9976329322,MAFE4ImagesEEG,001,102397,
AFNE01.JPG,AFNE01.JPG,AFNE01.JPG,AFNE01.JPG,AFNE01.JPG,AFNE01.JPG,,,,,,,,,,,,,4,6,46,1,,,,,,,,,,,AFSA14.jpg,AFSA16.jpg,AFNE08.jpg,AFNE19.jpg,AFSA14.jpg,FS,4,num_8,32,num_2,0.933472855017,,,2017_Nov_13_1801,59.9976329322,MAFE4ImagesEEG,001,102397,
AFNE01.JPG,AFNE01.JPG,AFNE01.JPG,AFNE01.JPG,AFNE01.JPG,AFNE01.JPG,,,,,,,,,,,,,4,7,47,4,,,,,,,,,,,AFNE12.jpg,AFSA10.jpg,AFNE04.jpg,AFSA08.jpg,AFSA08.jpg,FS,4,num_4,32,num_8,0.633517919108,,,2017_Nov_13_1801,59.9976329322,MAFE4ImagesEEG,001,102397,
AFNE01.JPG,AFNE01.JPG,AFNE01.JPG,AFNE01.JPG,AFNE01.JPG,AFNE01.JPG,,,,,,,,,,,,,4,8,48,0,,,,,,,,,,,AFNE04.jpg,AFNE01.jpg,AFSA05.jpg,AFSA16.jpg,AFSA05.jpg,FS,4,num_2,32,num_6,0.816762166563,,,2017_Nov_13_1801,59.9976329322,MAFE4ImagesEEG,001,102397,
AFNE01.JPG,AFNE01.JPG,AFNE01.JPG,AFNE01.JPG,AFNE01.JPG,AFNE01.JPG,,,,,,,,,,,,,4,9,49,9,,,,,,,,,,,AFNE05.jpg,AFSA11.jpg,AFSA08.jpg,AFNE13.jpg,AFNE05.jpg,FN,3,num_8,32,num_2,0.616827277001,,,2017_Nov_13_1801,59.9976329322,MAFE4ImagesEEG,001,102397,
AFNE01.JPG,AFNE01.JPG,AFNE01.JPG,AFNE01.JPG,AFNE01.JPG,AFNE01.JPG,,,,,,,,,,,,,5,0,50,6,,,,,,,,,,,AFSA16.jpg,AFNE16.jpg,AFNE13.jpg,AFSA14.jpg,AFSA14.jpg,FS,4,num_4,16,num_4,0.900127172936,,,2017_Nov_13_1801,59.9976329322,MAFE4ImagesEEG,001,102397,
AFNE01.JPG,AFNE01.JPG,AFNE01.JPG,AFNE01.JPG,AFNE01.JPG,AFNE01.JPG,,,,,,,,,,,,,5,1,51,1,,,,,,,,,,,AFNE19.jpg,AFSA11.jpg,AFSA04.jpg,AFNE07.jpg,AFNE07.jpg,FN,3,num_4,32,num_6,0.53345296951,,,2017_Nov_13_1801,59.9976329322,MAFE4ImagesEEG,001,102397,
AFNE01.JPG,AFNE01.JPG,AFNE01.JPG,AFNE01.JPG,AFNE01.JPG,AFNE01.JPG,,,,,,,,,,,,,5,2,52,0,,,,,,,,,,,AFNE03.jpg,AFNE17.jpg,AFSA15.jpg,AFSA09.jpg,AFSA15.jpg,FS,4,num_2,32,num_8,0.900147059001,,,2017_Nov_13_1801,59.9976329322,MAFE4ImagesEEG,001,102397,
AFNE01.JPG,AFNE01.JPG,AFNE01.JPG,AFNE01.JPG,AFNE01.JPG,AFNE01.JPG,,,,,,,,,,,,,5,3,53,8,,,,,,,,,,,AFNE15.jpg,AFNE09.jpg,AFSA09.jpg,AFSA06.jpg,AFNE09.jpg,FN,3,num_6,32,num_2,0.733444950543,,,2017_Nov_13_1801,59.9976329322,MAFE4ImagesEEG,001,102397,
AFNE01.JPG,AFNE01.JPG,AFNE01.JPG,AFNE01.JPG,AFNE01.JPG,AFNE01.JPG,,,,,,,,,,,,,5,4,54,9,,,,,,,,,,,AFNE19.jpg,AFNE18.jpg,AFSA17.jpg,AFSA09.jpg,AFNE19.jpg,FN,3,num_8,16,num_8,0.850105282385,,,2017_Nov_13_1801,59.9976329322,MAFE4ImagesEEG,001,102397,
AFNE01.JPG,AFNE01.JPG,AFNE01.JPG,AFNE01.JPG,AFNE01.JPG,AFNE01.JPG,,,,,,,,,,,,,5,5,55,3,,,,,,,,,,,AFSA03.jpg,AFNE12.jpg,AFNE09.jpg,AFSA08.jpg,AFSA08.jpg,FS,4,num_4,32,num_6,0.583486726973,,,2017_Nov_13_1801,59.9976329322,MAFE4ImagesEEG,001,102397,
AFNE01.JPG,AFNE01.JPG,AFNE01.JPG,AFNE01.JPG,AFNE01.JPG,AFNE01.JPG,,,,,,,,,,,,,5,6,56,5,,,,,,,,,,,AFNE05.jpg,AFNE01.jpg,AFSA11.jpg,AFSA17.jpg,AFSA11.jpg,FS,4,num_2,16,num_2,0.46684852615,,,2017_Nov_13_1801,59.9976329322,MAFE4ImagesEEG,001,102397,
AFNE01.JPG,AFNE01.JPG,AFNE01.JPG,AFNE01.JPG,AFNE01.JPG,AFNE01.JPG,,,,,,,,,,,,,5,7,57,4,,,,,,,,,,,AFNE17.jpg,AFNE07.jpg,AFSA16.jpg,AFSA07.jpg,AFNE17.jpg,FN,3,num_8,32,num_4,0.450141205452,,,2017_Nov_13_1801,59.9976329322,MAFE4ImagesEEG,001,102397,
AFNE01.JPG,AFNE01.JPG,AFNE01.JPG,AFNE01.JPG,AFNE01.JPG,AFNE01.JPG,,,,,,,,,,,,,5,8,58,7,,,,,,,,,,,AFNE09.jpg,AFSA01.jpg,AFNE03.jpg,AFSA03.jpg,AFSA03.jpg,FS,4,num_4,32,num_6,0.766798971687,,,2017_Nov_13_1801,59.9976329322,MAFE4ImagesEEG,001,102397,
AFNE01.JPG,AFNE01.JPG,AFNE01.JPG,AFNE01.JPG,AFNE01.JPG,AFNE01.JPG,,,,,,,,,,,,,5,9,59,2,,,,,,,,,,,AFSA06.jpg,AFSA07.jpg,AFNE09.jpg,AFNE03.jpg,AFSA06.jpg,FS,4,num_8,32,num_4,0.233527861536,,,2017_Nov_13_1801,59.9976329322,MAFE4ImagesEEG,001,102397,
,,,,,,,,,,,,,,,,,,,,,,,,,,,,,,,,,,,,,,,,,,,space,4.09972945601,2017_Nov_13_1801,59.9976329322,MAFE4ImagesEEG,001,102397,
AFNE01.JPG,AFNE01.JPG,AFNE01.JPG,AFNE01.JPG,AFNE01.JPG,AFNE01.JPG,,,,,,,,,,,,,,,,,0,0,0,0,,,,,,,AMNE04.jpg,AMSA18.jpg,AMSA08.jpg,AMNE08.jpg,AMNE04.jpg,MN,1,num_8,16,num_8,0.516798891593,,,2017_Nov_13_1801,59.9976329322,MAFE4ImagesEEG,001,102397,
AFNE01.JPG,AFNE01.JPG,AFNE01.JPG,AFNE01.JPG,AFNE01.JPG,AFNE01.JPG,,,,,,,,,,,,,,,,,0,1,1,9,,,,,,,AMSA14.jpg,AMNE13.jpg,AMSA17.jpg,AMNE20.jpg,AMSA14.jpg,MS,2,num_8,16,num_8,0.616787184495,,,2017_Nov_13_1801,59.9976329322,MAFE4ImagesEEG,001,102397,
AFNE01.JPG,AFNE01.JPG,AFNE01.JPG,AFNE01.JPG,AFNE01.JPG,AFNE01.JPG,,,,,,,,,,,,,,,,,0,2,2,6,,,,,,,AMNE02.jpg,AMSA17.jpg,AMSA19.jpg,AMNE18.jpg,AMSA19.jpg,MS,2,num_2,16,num_2,0.600124767516,,,2017_Nov_13_1801,59.9976329322,MAFE4ImagesEEG,001,102397,
AFNE01.JPG,AFNE01.JPG,AFNE01.JPG,AFNE01.JPG,AFNE01.JPG,AFNE01.JPG,,,,,,,,,,,,,,,,,0,3,3,8,,,,,,,AMSA10.jpg,AMNE18.jpg,AMNE15.jpg,AMSA02.jpg,AMSA10.jpg,MS,2,num_8,16,num_8,0.616766015999,,,2017_Nov_13_1801,59.9976329322,MAFE4ImagesEEG,001,102397,
AFNE01.JPG,AFNE01.JPG,AFNE01.JPG,AFNE01.JPG,AFNE01.JPG,AFNE01.JPG,,,,,,,,,,,,,,,,,0,4,4,2,,,,,,,AMSA11.jpg,AMNE14.jpg,AMNE11.jpg,AMSA14.jpg,AMSA14.jpg,MS,2,num_4,32,num_6,0.683625767473,,,2017_Nov_13_1801,59.9976329322,MAFE4ImagesEEG,001,102397,
AFNE01.JPG,AFNE01.JPG,AFNE01.JPG,AFNE01.JPG,AFNE01.JPG,AFNE01.JPG,,,,,,,,,,,,,,,,,0,5,5,5,,,,,,,AMNE08.jpg,AMNE19.jpg,AMSA18.jpg,AMSA13.jpg,AMSA13.jpg,MS,2,num_4,32,num_2,0.68355392199,,,2017_Nov_13_1801,59.9976329322,MAFE4ImagesEEG,001,102397,
AFNE01.JPG,AFNE01.JPG,AFNE01.JPG,AFNE01.JPG,AFNE01.JPG,AFNE01.JPG,,,,,,,,,,,,,,,,,0,6,6,4,,,,,,,AMSA03.jpg,AMSA02.jpg,AMNE16.jpg,AMNE13.jpg,AMNE16.jpg,MN,1,num_2,16,num_2,0.450206636451,,,2017_Nov_13_1801,59.9976329322,MAFE4ImagesEEG,001,102397,
AFNE01.JPG,AFNE01.JPG,AFNE01.JPG,AFNE01.JPG,AFNE01.JPG,AFNE01.JPG,,,,,,,,,,,,,,,,,0,7,7,3,,,,,,,AMNE02.jpg,AMSA02.jpg,AMNE20.jpg,AMSA19.jpg,AMSA02.jpg,MS,2,num_6,32,num_4,0.85016814759,,,2017_Nov_13_1801,59.9976329322,MAFE4ImagesEEG,001,102397,
AFNE01.JPG,AFNE01.JPG,AFNE01.JPG,AFNE01.JPG,AFNE01.JPG,AFNE01.JPG,,,,,,,,,,,,,,,,,0,8,8,1,,,,,,,AMNE11.jpg,AMNE13.jpg,AMSA03.jpg,AMSA16.jpg,AMSA16.jpg,MS,2,num_4,32,num_6,0.616784618702,,,2017_Nov_13_1801,59.9976329322,MAFE4ImagesEEG,001,102397,
AFNE01.JPG,AFNE01.JPG,AFNE01.JPG,AFNE01.JPG,AFNE01.JPG,AFNE01.JPG,,,,,,,,,,,,,,,,,0,9,9,7,,,,,,,AMNE17.jpg,AMSA05.jpg,AMSA18.jpg,AMNE01.jpg,AMSA05.jpg,MS,2,num_6,32,num_4,0.866779246368,,,2017_Nov_13_1801,59.9976329322,MAFE4ImagesEEG,001,102397,
AFNE01.JPG,AFNE01.JPG,AFNE01.JPG,AFNE01.JPG,AFNE01.JPG,AFNE01.JPG,,,,,,,,,,,,,,,,,1,0,10,2,,,,,,,AMNE08.jpg,AMSA07.jpg,AMSA04.jpg,AMNE02.jpg,AMSA04.jpg,MS,2,num_2,32,num_4,0.733721748926,,,2017_Nov_13_1801,59.9976329322,MAFE4ImagesEEG,001,102397,
AFNE01.JPG,AFNE01.JPG,AFNE01.JPG,AFNE01.JPG,AFNE01.JPG,AFNE01.JPG,,,,,,,,,,,,,,,,,1,1,11,5,,,,,,,AMSA08.jpg,AMNE11.jpg,AMNE20.jpg,AMSA07.jpg,AMSA08.jpg,MS,2,num_8,16,num_8,0.866607971489,,,2017_Nov_13_1801,59.9976329322,MAFE4ImagesEEG,001,102397,
AFNE01.JPG,AFNE01.JPG,AFNE01.JPG,AFNE01.JPG,AFNE01.JPG,AFNE01.JPG,,,,,,,,,,,,,,,,,1,2,12,1,,,,,,,AMSA08.jpg,AMNE14.jpg,AMNE10.jpg,AMSA20.jpg,AMNE10.jpg,MN,1,num_2,32,num_8,0.850165261421,,,2017_Nov_13_1801,59.9976329322,MAFE4ImagesEEG,001,102397,
AFNE01.JPG,AFNE01.JPG,AFNE01.JPG,AFNE01.JPG,AFNE01.JPG,AFNE01.JPG,,,,,,,,,,,,,,,,,1,3,13,0,,,,,,,AMSA14.jpg,AMNE07.jpg,AMNE16.jpg,AMSA12.jpg,AMSA14.jpg,MS,2,num_8,32,num_2,0.633449601475,,,2017_Nov_13_1801,59.9976329322,MAFE4ImagesEEG,001,102397,
AFNE01.JPG,AFNE01.JPG,AFNE01.JPG,AFNE01.JPG,AFNE01.JPG,AFNE01.JPG,,,,,,,,,,,,,,,,,1,4,14,6,,,,,,,AMSA19.jpg,AMNE13.jpg,AMNE09.jpg,AMSA11.jpg,AMNE13.jpg,MN,1,num_6,32,num_8,0.383474859875,,,2017_Nov_13_1801,59.9976329322,MAFE4ImagesEEG,001,102397,
AFNE01.JPG,AFNE01.JPG,AFNE01.JPG,AFNE01.JPG,AFNE01.JPG,AFNE01.JPG,,,,,,,,,,,,,,,,,1,5,15,4,,,,,,,AMNE07.jpg,AMSA10.jpg,AMNE15.jpg,AMSA11.jpg,AMNE15.jpg,MN,1,num_2,32,num_8,0.566773953848,,,2017_Nov_13_1801,59.9976329322,MAFE4ImagesEEG,001,102397,
AFNE01.JPG,AFNE01.JPG,AFNE01.JPG,AFNE01.JPG,AFNE01.JPG,AFNE01.JPG,,,,,,,,,,,,,,,,,1,6,16,3,,,,,,,AMNE05.jpg,AMSA05.jpg,AMNE16.jpg,AMSA11.jpg,AMNE16.jpg,MN,1,num_2,32,num_6,0.550130781252,,,2017_Nov_13_1801,59.9976329322,MAFE4ImagesEEG,001,102397,
AFNE01.JPG,AFNE01.JPG,AFNE01.JPG,AFNE01.JPG,AFNE01.JPG,AFNE01.JPG,,,,,,,,,,,,,,,,,1,7,17,9,,,,,,,AMSA08.jpg,AMNE17.jpg,AMSA05.jpg,AMNE16.jpg,AMNE16.jpg,MN,1,num_4,32,num_2,0.26678983029,,,2017_Nov_13_1801,59.9976329322,MAFE4ImagesEEG,001,102397,
AFNE01.JPG,AFNE01.JPG,AFNE01.JPG,AFNE01.JPG,AFNE01.JPG,AFNE01.JPG,,,,,,,,,,,,,,,,,1,8,18,7,,,,,,,AMNE20.jpg,AMSA11.jpg,AMNE14.jpg,AMSA13.jpg,AMSA13.jpg,MS,2,num_4,32,num_8,0.716836738866,,,2017_Nov_13_1801,59.9976329322,MAFE4ImagesEEG,001,102397,
AFNE01.JPG,AFNE01.JPG,AFNE01.JPG,AFNE01.JPG,AFNE01.JPG,AFNE01.JPG,,,,,,,,,,,,,,,,,1,9,19,8,,,,,,,AMNE02.jpg,AMNE06.jpg,AMSA17.jpg,AMSA12.jpg,AMNE02.jpg,MN,1,num_8,32,num_2,2.93337374646,,,2017_Nov_13_1801,59.9976329322,MAFE4ImagesEEG,001,102397,
AFNE01.JPG,AFNE01.JPG,AFNE01.JPG,AFNE01.JPG,AFNE01.JPG,AFNE01.JPG,,,,,,,,,,,,,,,,,2,0,20,4,,,,,,,AMSA05.jpg,AMSA19.jpg,AMNE07.jpg,AMNE03.jpg,AMNE03.jpg,MN,1,num_4,32,num_6,0.383303584997,,,2017_Nov_13_1801,59.9976329322,MAFE4ImagesEEG,001,102397,
AFNE01.JPG,AFNE01.JPG,AFNE01.JPG,AFNE01.JPG,AFNE01.JPG,AFNE01.JPG,,,,,,,,,,,,,,,,,2,1,21,8,,,,,,,AMNE17.jpg,AMSA02.jpg,AMSA20.jpg,AMNE14.jpg,AMNE14.jpg,MN,1,num_4,32,num_8,0.983738186769,,,2017_Nov_13_1801,59.9976329322,MAFE4ImagesEEG,001,102397,
AFNE01.JPG,AFNE01.JPG,AFNE01.JPG,AFNE01.JPG,AFNE01.JPG,AFNE01.JPG,,,,,,,,,,,,,,,,,2,2,22,5,,,,,,,AMSA01.jpg,AMSA04.jpg,AMNE02.jpg,AMNE18.jpg,AMNE18.jpg,MN,1,num_4,32,num_8,0.583495707717,,,2017_Nov_13_1801,59.9976329322,MAFE4ImagesEEG,001,102397,
AFNE01.JPG,AFNE01.JPG,AFNE01.JPG,AFNE01.JPG,AFNE01.JPG,AFNE01.JPG,,,,,,,,,,,,,,,,,2,3,23,1,,,,,,,AMNE04.jpg,AMNE17.jpg,AMSA12.jpg,AMSA07.jpg,AMSA07.jpg,MS,2,num_4,16,num_4,0.750109933317,,,2017_Nov_13_1801,59.9976329322,MAFE4ImagesEEG,001,102397,
AFNE01.JPG,AFNE01.JPG,AFNE01.JPG,AFNE01.JPG,AFNE01.JPG,AFNE01.JPG,,,,,,,,,,,,,,,,,2,4,24,0,,,,,,,AMSA20.jpg,AMNE03.jpg,AMNE15.jpg,AMSA10.jpg,AMSA10.jpg,MS,2,num_4,32,num_2,0.933443346992,,,2017_Nov_13_1801,59.9976329322,MAFE4ImagesEEG,001,102397,
AFNE01.JPG,AFNE01.JPG,AFNE01.JPG,AFNE01.JPG,AFNE01.JPG,AFNE01.JPG,,,,,,,,,,,,,,,,,2,5,25,9,,,,,,,AMNE08.jpg,AMSA09.jpg,AMSA15.jpg,AMNE09.jpg,AMSA09.jpg,MS,2,num_6,16,num_6,0.93346547801,,,2017_Nov_13_1801,59.9976329322,MAFE4ImagesEEG,001,102397,
AFNE01.JPG,AFNE01.JPG,AFNE01.JPG,AFNE01.JPG,AFNE01.JPG,AFNE01.JPG,,,,,,,,,,,,,,,,,2,6,26,3,,,,,,,AMSA05.jpg,AMNE09.jpg,AMNE20.jpg,AMSA17.jpg,AMSA05.jpg,MS,2,num_8,16,num_8,0.683571883477,,,2017_Nov_13_1801,59.9976329322,MAFE4ImagesEEG,001,102397,
AFNE01.JPG,AFNE01.JPG,AFNE01.JPG,AFNE01.JPG,AFNE01.JPG,AFNE01.JPG,,,,,,,,,,,,,,,,,2,7,27,2,,,,,,,AMNE18.jpg,AMSA10.jpg,AMSA06.jpg,AMNE08.jpg,AMSA06.jpg,MS,2,num_2,32,num_6,1.00013855984,,,2017_Nov_13_1801,59.9976329322,MAFE4ImagesEEG,001,102397,
AFNE01.JPG,AFNE01.JPG,AFNE01.JPG,AFNE01.JPG,AFNE01.JPG,AFNE01.JPG,,,,,,,,,,,,,,,,,2,8,28,6,,,,,,,AMSA11.jpg,AMNE18.jpg,AMNE17.jpg,AMSA20.jpg,AMSA11.jpg,MS,2,num_8,32,num_2,1.2334111128,,,2017_Nov_13_1801,59.9976329322,MAFE4ImagesEEG,001,102397,
AFNE01.JPG,AFNE01.JPG,AFNE01.JPG,AFNE01.JPG,AFNE01.JPG,AFNE01.JPG,,,,,,,,,,,,,,,,,2,9,29,7,,,,,,,AMSA04.jpg,AMNE19.jpg,AMSA01.jpg,AMNE11.jpg,AMNE19.jpg,MN,1,num_6,32,num_4,0.400183463003,,,2017_Nov_13_1801,59.9976329322,MAFE4ImagesEEG,001,102397,
AFNE01.JPG,AFNE01.JPG,AFNE01.JPG,AFNE01.JPG,AFNE01.JPG,AFNE01.JPG,,,,,,,,,,,,,,,,,3,0,30,6,,,,,,,AMSA06.jpg,AMNE01.jpg,AMNE04.jpg,AMSA13.jpg,AMNE04.jpg,MN,1,num_2,32,num_8,0.533510381822,,,2017_Nov_13_1801,59.9976329322,MAFE4ImagesEEG,001,102397,
AFNE01.JPG,AFNE01.JPG,AFNE01.JPG,AFNE01.JPG,AFNE01.JPG,AFNE01.JPG,,,,,,,,,,,,,,,,,3,1,31,1,,,,,,,AMSA08.jpg,AMSA09.jpg,AMNE16.jpg,AMNE20.jpg,AMSA08.jpg,MS,2,num_8,16,num_8,0.733455535024,,,2017_Nov_13_1801,59.9976329322,MAFE4ImagesEEG,001,102397,
AFNE01.JPG,AFNE01.JPG,AFNE01.JPG,AFNE01.JPG,AFNE01.JPG,AFNE01.JPG,,,,,,,,,,,,,,,,,3,2,32,0,,,,,,,AMNE08.jpg,AMNE12.jpg,AMSA19.jpg,AMSA11.jpg,AMNE08.jpg,MN,1,num_8,32,num_2,0.50012107892,,,2017_Nov_13_1801,59.9976329322,MAFE4ImagesEEG,001,102397,
AFNE01.JPG,AFNE01.JPG,AFNE01.JPG,AFNE01.JPG,AFNE01.JPG,AFNE01.JPG,,,,,,,,,,,,,,,,,3,3,33,2,,,,,,,AMNE18.jpg,AMSA14.jpg,AMNE02.jpg,AMSA15.jpg,AMSA14.jpg,MS,2,num_6,32,num_4,1.25037021376,,,2017_Nov_13_1801,59.9976329322,MAFE4ImagesEEG,001,102397,
AFNE01.JPG,AFNE01.JPG,AFNE01.JPG,AFNE01.JPG,AFNE01.JPG,AFNE01.JPG,,,,,,,,,,,,,,,,,3,4,34,4,,,,,,,AMSA16.jpg,AMSA10.jpg,AMNE18.jpg,AMNE19.jpg,AMNE18.jpg,MN,1,num_2,32,num_8,0.25015050685,,,2017_Nov_13_1801,59.9976329322,MAFE4ImagesEEG,001,102397,
AFNE01.JPG,AFNE01.JPG,AFNE01.JPG,AFNE01.JPG,AFNE01.JPG,AFNE01.JPG,,,,,,,,,,,,,,,,,3,5,35,3,,,,,,,AMNE16.jpg,AMSA19.jpg,AMNE04.jpg,AMSA15.jpg,AMNE04.jpg,MN,1,num_2,16,num_2,0.650179052725,,,2017_Nov_13_1801,59.9976329322,MAFE4ImagesEEG,001,102397,
AFNE01.JPG,AFNE01.JPG,AFNE01.JPG,AFNE01.JPG,AFNE01.JPG,AFNE01.JPG,,,,,,,,,,,,,,,,,3,6,36,7,,,,,,,AMSA14.jpg,AMNE20.jpg,AMSA12.jpg,AMNE07.jpg,AMSA14.jpg,MS,2,num_8,16,num_8,0.633519202005,,,2017_Nov_13_1801,59.9976329322,MAFE4ImagesEEG,001,102397,
AFNE01.JPG,AFNE01.JPG,AFNE01.JPG,AFNE01.JPG,AFNE01.JPG,AFNE01.JPG,,,,,,,,,,,,,,,,,3,7,37,8,,,,,,,AMNE14.jpg,AMNE17.jpg,AMSA09.jpg,AMSA03.jpg,AMSA03.jpg,MS,2,num_4,32,num_6,1.73343180027,,,2017_Nov_13_1801,59.9976329322,MAFE4ImagesEEG,001,102397,
AFNE01.JPG,AFNE01.JPG,AFNE01.JPG,AFNE01.JPG,AFNE01.JPG,AFNE01.JPG,,,,,,,,,,,,,,,,,3,8,38,9,,,,,,,AMSA14.jpg,AMNE16.jpg,AMSA12.jpg,AMNE17.jpg,AMNE17.jpg,MN,1,num_4,16,num_4,0.350188193843,,,2017_Nov_13_1801,59.9976329322,MAFE4ImagesEEG,001,102397,
AFNE01.JPG,AFNE01.JPG,AFNE01.JPG,AFNE01.JPG,AFNE01.JPG,AFNE01.JPG,,,,,,,,,,,,,,,,,3,9,39,5,,,,,,,AMNE11.jpg,AMSA08.jpg,AMNE01.jpg,AMSA10.jpg,AMNE11.jpg,MN,1,num_8,16,num_8,1.30005083699,,,2017_Nov_13_1801,59.9976329322,MAFE4ImagesEEG,001,102397,
AFNE01.JPG,AFNE01.JPG,AFNE01.JPG,AFNE01.JPG,AFNE01.JPG,AFNE01.JPG,,,,,,,,,,,,,,,,,4,0,40,1,,,,,,,AMSA03.jpg,AMNE16.jpg,AMNE07.jpg,AMSA08.jpg,AMSA08.jpg,MS,2,num_4,16,num_4,0.883454171941,,,2017_Nov_13_1801,59.9976329322,MAFE4ImagesEEG,001,102397,
AFNE01.JPG,AFNE01.JPG,AFNE01.JPG,AFNE01.JPG,AFNE01.JPG,AFNE01.JPG,,,,,,,,,,,,,,,,,4,1,41,0,,,,,,,AMSA11.jpg,AMNE11.jpg,AMSA12.jpg,AMNE19.jpg,AMNE19.jpg,MN,1,num_4,32,num_2,0.350189155899,,,2017_Nov_13_1801,59.9976329322,MAFE4ImagesEEG,001,102397,
AFNE01.JPG,AFNE01.JPG,AFNE01.JPG,AFNE01.JPG,AFNE01.JPG,AFNE01.JPG,,,,,,,,,,,,,,,,,4,2,42,5,,,,,,,AMSA17.jpg,AMNE04.jpg,AMNE13.jpg,AMSA12.jpg,AMSA17.jpg,MS,2,num_8,32,num_2,0.566712692846,,,2017_Nov_13_1801,59.9976329322,MAFE4ImagesEEG,001,102397,
AFNE01.JPG,AFNE01.JPG,AFNE01.JPG,AFNE01.JPG,AFNE01.JPG,AFNE01.JPG,,,,,,,,,,,,,,,,,4,3,43,3,,,,,,,AMNE11.jpg,AMSA14.jpg,AMSA06.jpg,AMNE05.jpg,AMSA06.jpg,MS,2,num_2,32,num_8,0.550171836279,,,2017_Nov_13_1801,59.9976329322,MAFE4ImagesEEG,001,102397,
AFNE01.JPG,AFNE01.JPG,AFNE01.JPG,AFNE01.JPG,AFNE01.JPG,AFNE01.JPG,,,,,,,,,,,,,,,,,4,4,44,4,,,,,,,AMNE01.jpg,AMNE11.jpg,AMSA09.jpg,AMSA13.jpg,AMNE11.jpg,MN,1,num_6,32,num_2,0.750130781438,,,2017_Nov_13_1801,59.9976329322,MAFE4ImagesEEG,001,102397,
AFNE01.JPG,AFNE01.JPG,AFNE01.JPG,AFNE01.JPG,AFNE01.JPG,AFNE01.JPG,,,,,,,,,,,,,,,,,4,5,45,6,,,,,,,AMNE18.jpg,AMSA04.jpg,AMNE07.jpg,AMSA17.jpg,AMNE07.jpg,MN,1,num_2,32,num_8,0.466803622432,,,2017_Nov_13_1801,59.9976329322,MAFE4ImagesEEG,001,102397,
AFNE01.JPG,AFNE01.JPG,AFNE01.JPG,AFNE01.JPG,AFNE01.JPG,AFNE01.JPG,,,,,,,,,,,,,,,,,4,6,46,7,,,,,,,AMSA05.jpg,AMSA20.jpg,AMNE20.jpg,AMNE14.jpg,AMNE14.jpg,MN,1,num_4,32,num_8,0.583505009301,,,2017_Nov_13_1801,59.9976329322,MAFE4ImagesEEG,001,102397,
AFNE01.JPG,AFNE01.JPG,AFNE01.JPG,AFNE01.JPG,AFNE01.JPG,AFNE01.JPG,,,,,,,,,,,,,,,,,4,7,47,9,,,,,,,AMSA13.jpg,AMNE13.jpg,AMSA12.jpg,AMNE01.jpg,AMSA13.jpg,MS,2,num_8,32,num_6,0.650169751141,,,2017_Nov_13_1801,59.9976329322,MAFE4ImagesEEG,001,102397,
AFNE01.JPG,AFNE01.JPG,AFNE01.JPG,AFNE01.JPG,AFNE01.JPG,AFNE01.JPG,,,,,,,,,,,,,,,,,4,8,48,8,,,,,,,AMNE12.jpg,AMSA01.jpg,AMSA20.jpg,AMNE18.jpg,AMNE18.jpg,MN,1,num_4,32,num_8,0.516733139753,,,2017_Nov_13_1801,59.9976329322,MAFE4ImagesEEG,001,102397,
AFNE01.JPG,AFNE01.JPG,AFNE01.JPG,AFNE01.JPG,AFNE01.JPG,AFNE01.JPG,,,,,,,,,,,,,,,,,4,9,49,2,,,,,,,AMSA03.jpg,AMNE19.jpg,AMNE18.jpg,AMSA15.jpg,AMNE18.jpg,MN,1,num_2,16,num_2,0.750147139654,,,2017_Nov_13_1801,59.9976329322,MAFE4ImagesEEG,001,102397,
AFNE01.JPG,AFNE01.JPG,AFNE01.JPG,AFNE01.JPG,AFNE01.JPG,AFNE01.JPG,,,,,,,,,,,,,,,,,5,0,50,0,,,,,,,AMSA14.jpg,AMNE13.jpg,AMSA04.jpg,AMNE15.jpg,AMSA14.jpg,MS,2,num_8,16,num_8,0.683460266329,,,2017_Nov_13_1801,59.9976329322,MAFE4ImagesEEG,001,102397,
AFNE01.JPG,AFNE01.JPG,AFNE01.JPG,AFNE01.JPG,AFNE01.JPG,AFNE01.JPG,,,,,,,,,,,,,,,,,5,1,51,2,,,,,,,AMNE09.jpg,AMNE20.jpg,AMSA13.jpg,AMSA12.jpg,AMSA13.jpg,MS,2,num_2,16,num_2,0.350216739811,,,2017_Nov_13_1801,59.9976329322,MAFE4ImagesEEG,001,102397,
AFNE01.JPG,AFNE01.JPG,AFNE01.JPG,AFNE01.JPG,AFNE01.JPG,AFNE01.JPG,,,,,,,,,,,,,,,,,5,2,52,8,,,,,,,AMNE07.jpg,AMSA19.jpg,AMNE05.jpg,AMSA15.jpg,AMSA19.jpg,MS,2,num_6,32,num_8,0.433478467632,,,2017_Nov_13_1801,59.9976329322,MAFE4ImagesEEG,001,102397,
AFNE01.JPG,AFNE01.JPG,AFNE01.JPG,AFNE01.JPG,AFNE01.JPG,AFNE01.JPG,,,,,,,,,,,,,,,,,5,3,53,4,,,,,,,AMSA10.jpg,AMNE04.jpg,AMSA05.jpg,AMNE05.jpg,AMSA10.jpg,MS,2,num_8,32,num_6,0.933423140086,,,2017_Nov_13_1801,59.9976329322,MAFE4ImagesEEG,001,102397,
AFNE01.JPG,AFNE01.JPG,AFNE01.JPG,AFNE01.JPG,AFNE01.JPG,AFNE01.JPG,,,,,,,,,,,,,,,,,5,4,54,6,,,,,,,AMSA04.jpg,AMNE13.jpg,AMNE07.jpg,AMSA16.jpg,AMSA04.jpg,MS,2,num_8,32,num_2,0.866783736274,,,2017_Nov_13_1801,59.9976329322,MAFE4ImagesEEG,001,102397,
AFNE01.JPG,AFNE01.JPG,AFNE01.JPG,AFNE01.JPG,AFNE01.JPG,AFNE01.JPG,,,,,,,,,,,,,,,,,5,5,55,7,,,,,,,AMNE06.jpg,AMNE19.jpg,AMSA04.jpg,AMSA14.jpg,AMNE19.jpg,MN,1,num_6,32,num_8,0.68350420706,,,2017_Nov_13_1801,59.9976329322,MAFE4ImagesEEG,001,102397,
AFNE01.JPG,AFNE01.JPG,AFNE01.JPG,AFNE01.JPG,AFNE01.JPG,AFNE01.JPG,,,,,,,,,,,,,,,,,5,6,56,3,,,,,,,AMNE02.jpg,AMNE05.jpg,AMSA09.jpg,AMSA18.jpg,AMSA18.jpg,MS,2,num_4,32,num_2,0.633478467818,,,2017_Nov_13_1801,59.9976329322,MAFE4ImagesEEG,001,102397,
AFNE01.JPG,AFNE01.JPG,AFNE01.JPG,AFNE01.JPG,AFNE01.JPG,AFNE01.JPG,,,,,,,,,,,,,,,,,5,7,57,9,,,,,,,AMNE11.jpg,AMSA09.jpg,AMNE05.jpg,AMSA11.jpg,AMNE11.jpg,MN,1,num_8,32,num_6,0.450124206021,,,2017_Nov_13_1801,59.9976329322,MAFE4ImagesEEG,001,102397,
AFNE01.JPG,AFNE01.JPG,AFNE01.JPG,AFNE01.JPG,AFNE01.JPG,AFNE01.JPG,,,,,,,,,,,,,,,,,5,8,58,1,,,,,,,AMNE10.jpg,AMNE20.jpg,AMSA20.jpg,AMSA11.jpg,AMSA11.jpg,MS,2,num_4,32,num_2,0.850138960406,,,2017_Nov_13_1801,59.9976329322,MAFE4ImagesEEG,001,102397,
AFNE01.JPG,AFNE01.JPG,AFNE01.JPG,AFNE01.JPG,AFNE01.JPG,AFNE01.JPG,,,,,,,,,,,,,,,,,5,9,59,5,,,,,,,AMSA09.jpg,AMSA06.jpg,AMNE03.jpg,AMNE04.jpg,AMSA06.jpg,MS,2,num_6,32,num_2,0.683480472304,,,2017_Nov_13_1801,59.9976329322,MAFE4ImagesEEG,001,102397,
,,,,,,,,,,,,,,,,,,,,,,,,,,,,,,,,,,,,,,,,,,,space,2.48331529181,2017_Nov_13_1801,59.9976329322,MAFE4ImagesEEG,001,102397,
AFNE01.JPG,AFNE01.JPG,AFNE01.JPG,AFNE01.JPG,AFNE01.JPG,AFNE01.JPG,,,,,,,,,,,,,,,,,,,,,0,0,0,2,,,AFNE03.jpg,AFSA15.jpg,AFSA10.jpg,AFNE12.jpg,AFNE03.jpg,FN,3,num_8,32,num_4,0.66685109213,,,2017_Nov_13_1801,59.9976329322,MAFE4ImagesEEG,001,102397,
AFNE01.JPG,AFNE01.JPG,AFNE01.JPG,AFNE01.JPG,AFNE01.JPG,AFNE01.JPG,,,,,,,,,,,,,,,,,,,,,0,1,1,8,,,AFNE17.jpg,AFSA03.jpg,AFSA10.jpg,AFNE14.jpg,AFNE14.jpg,FN,3,num_4,32,num_2,0.950089085381,,,2017_Nov_13_1801,59.9976329322,MAFE4ImagesEEG,001,102397,
AFNE01.JPG,AFNE01.JPG,AFNE01.JPG,AFNE01.JPG,AFNE01.JPG,AFNE01.JPG,,,,,,,,,,,,,,,,,,,,,0,2,2,5,,,AFNE06.jpg,AFSA04.jpg,AFSA05.jpg,AFNE13.jpg,AFSA04.jpg,FS,4,num_6,16,num_6,0.700149304233,,,2017_Nov_13_1801,59.9976329322,MAFE4ImagesEEG,001,102397,
AFNE01.JPG,AFNE01.JPG,AFNE01.JPG,AFNE01.JPG,AFNE01.JPG,AFNE01.JPG,,,,,,,,,,,,,,,,,,,,,0,3,3,7,,,AFNE06.jpg,AFSA07.jpg,AFNE01.jpg,AFSA15.jpg,AFNE01.jpg,FN,3,num_2,32,num_8,0.300141927321,,,2017_Nov_13_1801,59.9976329322,MAFE4ImagesEEG,001,102397,
AFNE01.JPG,AFNE01.JPG,AFNE01.JPG,AFNE01.JPG,AFNE01.JPG,AFNE01.JPG,,,,,,,,,,,,,,,,,,,,,0,4,4,4,,,AFNE13.jpg,AFSA02.jpg,AFNE03.jpg,AFSA15.jpg,AFNE03.jpg,FN,3,num_2,16,num_2,0.366797368042,,,2017_Nov_13_1801,59.9976329322,MAFE4ImagesEEG,001,102397,
AFNE01.JPG,AFNE01.JPG,AFNE01.JPG,AFNE01.JPG,AFNE01.JPG,AFNE01.JPG,,,,,,,,,,,,,,,,,,,,,0,5,5,1,,,AFNE10.jpg,AFSA10.jpg,AFNE11.jpg,AFSA03.jpg,AFSA10.jpg,FS,4,num_6,32,num_8,0.716831607278,,,2017_Nov_13_1801,59.9976329322,MAFE4ImagesEEG,001,102397,
AFNE01.JPG,AFNE01.JPG,AFNE01.JPG,AFNE01.JPG,AFNE01.JPG,AFNE01.JPG,,,,,,,,,,,,,,,,,,,,,0,6,6,0,,,AFSA17.jpg,AFNE04.jpg,AFNE16.jpg,AFSA10.jpg,AFNE04.jpg,FN,3,num_6,32,num_4,0.366672279779,,,2017_Nov_13_1801,59.9976329322,MAFE4ImagesEEG,001,102397,
AFNE01.JPG,AFNE01.JPG,AFNE01.JPG,AFNE01.JPG,AFNE01.JPG,AFNE01.JPG,,,,,,,,,,,,,,,,,,,,,0,7,7,9,,,AFSA17.jpg,AFNE02.jpg,AFNE15.jpg,AFSA02.jpg,AFSA17.jpg,FS,4,num_8,16,num_8,0.600131503306,,,2017_Nov_13_1801,59.9976329322,MAFE4ImagesEEG,001,102397,
AFNE01.JPG,AFNE01.JPG,AFNE01.JPG,AFNE01.JPG,AFNE01.JPG,AFNE01.JPG,,,,,,,,,,,,,,,,,,,,,0,8,8,6,,,AFNE13.jpg,AFNE15.jpg,AFSA15.jpg,AFSA05.jpg,AFNE15.jpg,FN,3,num_6,16,num_6,0.283467963804,,,2017_Nov_13_1801,59.9976329322,MAFE4ImagesEEG,001,102397,
AFNE01.JPG,AFNE01.JPG,AFNE01.JPG,AFNE01.JPG,AFNE01.JPG,AFNE01.JPG,,,,,,,,,,,,,,,,,,,,,0,9,9,3,,,AFNE10.jpg,AFSA02.jpg,AFNE18.jpg,AFSA10.jpg,AFNE18.jpg,FN,3,num_2,32,num_8,0.783422579058,,,2017_Nov_13_1801,59.9976329322,MAFE4ImagesEEG,001,102397,
AFNE01.JPG,AFNE01.JPG,AFNE01.JPG,AFNE01.JPG,AFNE01.JPG,AFNE01.JPG,,,,,,,,,,,,,,,,,,,,,1,0,10,3,,,AFNE06.jpg,AFNE16.jpg,AFSA04.jpg,AFSA08.jpg,AFNE06.jpg,FN,3,num_8,16,num_8,0.633467883337,,,2017_Nov_13_1801,59.9976329322,MAFE4ImagesEEG,001,102397,
AFNE01.JPG,AFNE01.JPG,AFNE01.JPG,AFNE01.JPG,AFNE01.JPG,AFNE01.JPG,,,,,,,,,,,,,,,,,,,,,1,1,11,8,,,AFNE07.jpg,AFNE01.jpg,AFSA07.jpg,AFSA11.jpg,AFNE07.jpg,FN,3,num_8,32,num_4,0.850161091425,,,2017_Nov_13_1801,59.9976329322,MAFE4ImagesEEG,001,102397,
AFNE01.JPG,AFNE01.JPG,AFNE01.JPG,AFNE01.JPG,AFNE01.JPG,AFNE01.JPG,,,,,,,,,,,,,,,,,,,,,1,2,12,1,,,AFSA11.jpg,AFNE03.jpg,AFNE14.jpg,AFSA18.jpg,AFSA18.jpg,FS,4,num_4,32,num_6,0.583462992217,,,2017_Nov_13_1801,59.9976329322,MAFE4ImagesEEG,001,102397,
AFNE01.JPG,AFNE01.JPG,AFNE01.JPG,AFNE01.JPG,AFNE01.JPG,AFNE01.JPG,,,,,,,,,,,,,,,,,,,,,1,3,13,6,,,AFSA12.jpg,AFNE16.jpg,AFNE08.jpg,AFSA05.jpg,AFSA12.jpg,FS,4,num_8,16,num_8,0.900117871817,,,2017_Nov_13_1801,59.9976329322,MAFE4ImagesEEG,001,102397,
AFNE01.JPG,AFNE01.JPG,AFNE01.JPG,AFNE01.JPG,AFNE01.JPG,AFNE01.JPG,,,,,,,,,,,,,,,,,,,,,1,4,14,7,,,AFSA06.jpg,AFNE02.jpg,AFSA16.jpg,AFNE17.jpg,AFSA16.jpg,FS,4,num_2,16,num_2,0.666818376631,,,2017_Nov_13_1801,59.9976329322,MAFE4ImagesEEG,001,102397,
AFNE01.JPG,AFNE01.JPG,AFNE01.JPG,AFNE01.JPG,AFNE01.JPG,AFNE01.JPG,,,,,,,,,,,,,,,,,,,,,1,5,15,5,,,AFNE10.jpg,AFSA10.jpg,AFSA18.jpg,AFNE13.jpg,AFSA18.jpg,FS,4,num_2,32,num_6,0.666760643478,,,2017_Nov_13_1801,59.9976329322,MAFE4ImagesEEG,001,102397,
AFNE01.JPG,AFNE01.JPG,AFNE01.JPG,AFNE01.JPG,AFNE01.JPG,AFNE01.JPG,,,,,,,,,,,,,,,,,,,,,1,6,16,2,,,AFSA06.jpg,AFNE12.jpg,AFSA14.jpg,AFNE18.jpg,AFSA14.jpg,FS,4,num_2,32,num_4,0.716850851197,,,2017_Nov_13_1801,59.9976329322,MAFE4ImagesEEG,001,102397,
AFNE01.JPG,AFNE01.JPG,AFNE01.JPG,AFNE01.JPG,AFNE01.JPG,AFNE01.JPG,,,,,,,,,,,,,,,,,,,,,1,7,17,0,,,AFNE07.jpg,AFNE06.jpg,AFSA12.jpg,AFSA05.jpg,AFNE06.jpg,FN,3,num_6,32,num_2,1.05036347779,,,2017_Nov_13_1801,59.9976329322,MAFE4ImagesEEG,001,102397,
AFNE01.JPG,AFNE01.JPG,AFNE01.JPG,AFNE01.JPG,AFNE01.JPG,AFNE01.JPG,,,,,,,,,,,,,,,,,,,,,1,8,18,4,,,AFNE03.jpg,AFNE20.jpg,AFSA01.jpg,AFSA10.jpg,AFSA01.jpg,FS,4,num_2,32,num_8,1.01677435497,,,2017_Nov_13_1801,59.9976329322,MAFE4ImagesEEG,001,102397,
AFNE01.JPG,AFNE01.JPG,AFNE01.JPG,AFNE01.JPG,AFNE01.JPG,AFNE01.JPG,,,,,,,,,,,,,,,,,,,,,1,9,19,9,,,AFNE13.jpg,AFSA02.jpg,AFNE12.jpg,AFSA05.jpg,AFNE12.jpg,FN,3,num_2,32,num_6,0.816657926887,,,2017_Nov_13_1801,59.9976329322,MAFE4ImagesEEG,001,102397,
AFNE01.JPG,AFNE01.JPG,AFNE01.JPG,AFNE01.JPG,AFNE01.JPG,AFNE01.JPG,,,,,,,,,,,,,,,,,,,,,2,0,20,1,,,AFNE14.jpg,AFSA02.jpg,AFNE10.jpg,AFSA16.jpg,AFSA16.jpg,FS,4,num_4,16,num_4,0.833823904395,,,2017_Nov_13_1801,59.9976329322,MAFE4ImagesEEG,001,102397,
AFNE01.JPG,AFNE01.JPG,AFNE01.JPG,AFNE01.JPG,AFNE01.JPG,AFNE01.JPG,,,,,,,,,,,,,,,,,,,,,2,1,21,4,,,AFSA05.jpg,AFNE20.jpg,AFSA16.jpg,AFNE16.jpg,AFNE20.jpg,FN,3,num_6,16,num_6,0.550148101524,,,2017_Nov_13_1801,59.9976329322,MAFE4ImagesEEG,001,102397,
AFNE01.JPG,AFNE01.JPG,AFNE01.JPG,AFNE01.JPG,AFNE01.JPG,AFNE01.JPG,,,,,,,,,,,,,,,,,,,,,2,2,22,9,,,AFSA11.jpg,AFNE13.jpg,AFNE16.jpg,AFSA04.jpg,AFNE16.jpg,FN,3,num_2,32,num_4,0.666770265438,,,2017_Nov_13_1801,59.9976329322,MAFE4ImagesEEG,001,102397,
AFNE01.JPG,AFNE01.JPG,AFNE01.JPG,AFNE01.JPG,AFNE01.JPG,AFNE01.JPG,,,,,,,,,,,,,,,,,,,,,2,3,23,6,,,AFSA17.jpg,AFSA15.jpg,AFNE17.jpg,AFNE19.jpg,AFNE17.jpg,FN,3,num_2,32,num_6,0.350215456448,,,2017_Nov_13_1801,59.9976329322,MAFE4ImagesEEG,001,102397,
AFNE01.JPG,AFNE01.JPG,AFNE01.JPG,AFNE01.JPG,AFNE01.JPG,AFNE01.JPG,,,,,,,,,,,,,,,,,,,,,2,4,24,0,,,AFSA03.jpg,AFNE09.jpg,AFSA10.jpg,AFNE07.jpg,AFNE09.jpg,FN,3,num_6,32,num_4,0.650114263408,,,2017_Nov_13_1801,59.9976329322,MAFE4ImagesEEG,001,102397,
AFNE01.JPG,AFNE01.JPG,AFNE01.JPG,AFNE01.JPG,AFNE01.JPG,AFNE01.JPG,,,,,,,,,,,,,,,,,,,,,2,5,25,8,,,AFNE14.jpg,AFSA11.jpg,AFNE15.jpg,AFSA10.jpg,AFSA10.jpg,FS,4,num_4,32,num_8,0.783563383389,,,2017_Nov_13_1801,59.9976329322,MAFE4ImagesEEG,001,102397,
AFNE01.JPG,AFNE01.JPG,AFNE01.JPG,AFNE01.JPG,AFNE01.JPG,AFNE01.JPG,,,,,,,,,,,,,,,,,,,,,2,6,26,5,,,AFSA14.jpg,AFNE09.jpg,AFNE03.jpg,AFSA06.jpg,AFSA14.jpg,FS,4,num_8,32,num_4,0.733474459033,,,2017_Nov_13_1801,59.9976329322,MAFE4ImagesEEG,001,102397,
AFNE01.JPG,AFNE01.JPG,AFNE01.JPG,AFNE01.JPG,AFNE01.JPG,AFNE01.JPG,,,,,,,,,,,,,,,,,,,,,2,7,27,3,,,AFNE01.jpg,AFNE17.jpg,AFSA14.jpg,AFSA18.jpg,AFNE01.jpg,FN,3,num_8,32,num_2,1.23354486097,,,2017_Nov_13_1801,59.9976329322,MAFE4ImagesEEG,001,102397,
AFNE01.JPG,AFNE01.JPG,AFNE01.JPG,AFNE01.JPG,AFNE01.JPG,AFNE01.JPG,,,,,,,,,,,,,,,,,,,,,2,8,28,2,,,AFNE04.jpg,AFSA05.jpg,AFNE06.jpg,AFSA11.jpg,AFNE04.jpg,FN,3,num_8,16,num_8,0.783472935203,,,2017_Nov_13_1801,59.9976329322,MAFE4ImagesEEG,001,102397,
AFNE01.JPG,AFNE01.JPG,AFNE01.JPG,AFNE01.JPG,AFNE01.JPG,AFNE01.JPG,,,,,,,,,,,,,,,,,,,,,2,9,29,7,,,AFSA02.jpg,AFNE19.jpg,AFSA16.jpg,AFNE12.jpg,AFSA16.jpg,FS,4,num_2,16,num_2,2.31666835072,,,2017_Nov_13_1801,59.9976329322,MAFE4ImagesEEG,001,102397,
AFNE01.JPG,AFNE01.JPG,AFNE01.JPG,AFNE01.JPG,AFNE01.JPG,AFNE01.JPG,,,,,,,,,,,,,,,,,,,,,3,0,30,5,,,AFSA11.jpg,AFNE16.jpg,AFNE12.jpg,AFSA18.jpg,AFSA11.jpg,FS,4,num_8,16,num_8,0.716868171468,,,2017_Nov_13_1801,59.9976329322,MAFE4ImagesEEG,001,102397,
AFNE01.JPG,AFNE01.JPG,AFNE01.JPG,AFNE01.JPG,AFNE01.JPG,AFNE01.JPG,,,,,,,,,,,,,,,,,,,,,3,1,31,2,,,AFNE03.jpg,AFNE20.jpg,AFSA17.jpg,AFSA14.jpg,AFSA17.jpg,FS,4,num_2,32,num_6,0.633484241087,,,2017_Nov_13_1801,59.9976329322,MAFE4ImagesEEG,001,102397,
AFNE01.JPG,AFNE01.JPG,AFNE01.JPG,AFNE01.JPG,AFNE01.JPG,AFNE01.JPG,,,,,,,,,,,,,,,,,,,,,3,2,32,3,,,AFNE10.jpg,AFNE19.jpg,AFSA18.jpg,AFSA06.jpg,AFSA06.jpg,FS,4,num_4,16,num_4,0.700163096189,,,2017_Nov_13_1801,59.9976329322,MAFE4ImagesEEG,001,102397,
AFNE01.JPG,AFNE01.JPG,AFNE01.JPG,AFNE01.JPG,AFNE01.JPG,AFNE01.JPG,,,,,,,,,,,,,,,,,,,,,3,3,33,9,,,AFNE03.jpg,AFSA11.jpg,AFSA03.jpg,AFNE15.jpg,AFNE15.jpg,FN,3,num_4,32,num_6,0.766801858321,,,2017_Nov_13_1801,59.9976329322,MAFE4ImagesEEG,001,102397,
AFNE01.JPG,AFNE01.JPG,AFNE01.JPG,AFNE01.JPG,AFNE01.JPG,AFNE01.JPG,,,,,,,,,,,,,,,,,,,,,3,4,34,8,,,AFSA07.jpg,AFNE06.jpg,AFNE13.jpg,AFSA16.jpg,AFNE06.jpg,FN,3,num_6,32,num_2,0.999991340097,,,2017_Nov_13_1801,59.9976329322,MAFE4ImagesEEG,001,102397,
AFNE01.JPG,AFNE01.JPG,AFNE01.JPG,AFNE01.JPG,AFNE01.JPG,AFNE01.JPG,,,,,,,,,,,,,,,,,,,,,3,5,35,0,,,AFSA13.jpg,AFNE03.jpg,AFSA10.jpg,AFNE09.jpg,AFNE09.jpg,FN,3,num_4,32,num_8,0.400180255994,,,2017_Nov_13_1801,59.9976329322,MAFE4ImagesEEG,001,102397,
AFNE01.JPG,AFNE01.JPG,AFNE01.JPG,AFNE01.JPG,AFNE01.JPG,AFNE01.JPG,,,,,,,,,,,,,,,,,,,,,3,6,36,7,,,AFNE09.jpg,AFSA02.jpg,AFSA18.jpg,AFNE04.jpg,AFSA02.jpg,FS,4,num_6,16,num_6,0.616767619271,,,2017_Nov_13_1801,59.9976329322,MAFE4ImagesEEG,001,102397,
AFNE01.JPG,AFNE01.JPG,AFNE01.JPG,AFNE01.JPG,AFNE01.JPG,AFNE01.JPG,,,,,,,,,,,,,,,,,,,,,3,7,37,6,,,AFSA01.jpg,AFNE08.jpg,AFSA17.jpg,AFNE20.jpg,AFSA01.jpg,FS,4,num_8,16,num_8,0.816760563292,,,2017_Nov_13_1801,59.9976329322,MAFE4ImagesEEG,001,102397,
AFNE01.JPG,AFNE01.JPG,AFNE01.JPG,AFNE01.JPG,AFNE01.JPG,AFNE01.JPG,,,,,,,,,,,,,,,,,,,,,3,8,38,4,,,AFSA12.jpg,AFNE06.jpg,AFNE05.jpg,AFSA13.jpg,AFSA12.jpg,FS,4,num_8,32,num_2,1.43343548896,,,2017_Nov_13_1801,59.9976329322,MAFE4ImagesEEG,001,102397,
