IPosition2,IPosition3,IPosition1,IPosition6,IPosition4,IPosition5,TrialsF1.thisRepN,TrialsF1.thisTrialN,TrialsF1.thisN,TrialsF1.thisIndex,TrialsM1.thisRepN,TrialsM1.thisTrialN,TrialsM1.thisN,TrialsM1.thisIndex,TrialsF2.thisRepN,TrialsF2.thisTrialN,TrialsF2.thisN,TrialsF2.thisIndex,TrialsM2.thisRepN,TrialsM2.thisTrialN,TrialsM2.thisN,TrialsM2.thisIndex,TrialsF3.thisRepN,TrialsF3.thisTrialN,TrialsF3.thisN,TrialsF3.thisIndex,TrialsM3.thisRepN,TrialsM3.thisTrialN,TrialsM3.thisN,TrialsM3.thisIndex,InstrKey_resp.keys,InstrKey_resp.rt,Image0 _Position,Image1 _Position,Image2 _Position,Image3 _Position,Center_image,condition,code,correct_answer,accuracy,Key_Resp.keys,Key_Resp.rt,BreakKey_resp.keys,BreakKey_resp.rt,date,frameRate,expName,session,participant,
,,,,,,,,,,,,,,,,,,,,,,,,,,,,,,space,14.715812891,,,,,,,,,,,,,,2017_Nov_29_1822,60.0136281018,FEMA4ImagesEEG,001,102451,
AMSA25.JPG,AMNE24.JPG,AMSA24.JPG,AMNE26.JPG,AMSA21.JPG,AMNE25.JPG,0,0,0,3,,,,,,,,,,,,,,,,,,,,,,,AFSA11.jpg,AFSA01.jpg,AFNE20.jpg,AFNE02.jpg,AFSA01.jpg,FS,4,num_6,32,num_8,1.03348324681,,,2017_Nov_29_1822,60.0136281018,FEMA4ImagesEEG,001,102451,
AFSA21.JPG,AFNE22.JPG,AFNE21.JPG,AFSA23.JPG,AFSA22.JPG,AFNE23.JPG,0,1,1,0,,,,,,,,,,,,,,,,,,,,,,,AFNE04.jpg,AFSA12.jpg,AFNE02.jpg,AFSA07.jpg,AFSA07.jpg,FS,4,num_4,16,num_4,0.833462591167,,,2017_Nov_29_1822,60.0136281018,FEMA4ImagesEEG,001,102451,
AMSA21.JPG,AMNE23.JPG,AMNE21.JPG,AMSA25.JPG,AMNE25.JPG,AMSA23.JPG,0,2,2,5,,,,,,,,,,,,,,,,,,,,,,,AFSA13.jpg,AFSA09.jpg,AFNE01.jpg,AFNE12.jpg,AFSA13.jpg,FS,4,num_8,32,num_2,1.41668575059,,,2017_Nov_29_1822,60.0136281018,FEMA4ImagesEEG,001,102451,
AFNE23.JPG,AFNE24.JPG,AFNE22.JPG,AFSA24.JPG,AFSA22.JPG,AFSA23.JPG,0,3,3,8,,,,,,,,,,,,,,,,,,,,,,,AFNE15.jpg,AFSA12.jpg,AFSA10.jpg,AFNE14.jpg,AFNE14.jpg,FN,3,num_4,16,num_4,1.26685949508,,,2017_Nov_29_1822,60.0136281018,FEMA4ImagesEEG,001,102451,
AFSA21.JPG,AFNE23.JPG,AFNE21.JPG,AFSA25.JPG,AFNE25.JPG,AFSA23.JPG,0,4,4,4,,,,,,,,,,,,,,,,,,,,,,,AFSA08.jpg,AFNE17.jpg,AFNE03.jpg,AFSA09.jpg,AFNE17.jpg,FN,3,num_6,32,num_2,0.883477377356,,,2017_Nov_29_1822,60.0136281018,FEMA4ImagesEEG,001,102451,
AMNE23.JPG,AMNE24.JPG,AMNE22.JPG,AMSA24.JPG,AMSA22.JPG,AMSA23.JPG,0,5,5,9,,,,,,,,,,,,,,,,,,,,,,,AFNE03.jpg,AFNE18.jpg,AFSA13.jpg,AFSA08.jpg,AFSA08.jpg,FS,4,num_4,32,num_2,1.46677238238,,,2017_Nov_29_1822,60.0136281018,FEMA4ImagesEEG,001,102451,
AFNE22.JPG,AFSA24.JPG,AFSA22.JPG,AFNE25.JPG,AFNE24.JPG,AFSA25.JPG,0,6,6,6,,,,,,,,,,,,,,,,,,,,,,,AFSA09.jpg,AFNE05.jpg,AFNE09.jpg,AFSA02.jpg,AFSA02.jpg,FS,4,num_4,32,num_6,1.00011354173,,,2017_Nov_29_1822,60.0136281018,FEMA4ImagesEEG,001,102451,
AMNE22.JPG,AMSA24.JPG,AMSA22.JPG,AMNE25.JPG,AMNE24.JPG,AMSA25.JPG,0,7,7,7,,,,,,,,,,,,,,,,,,,,,,,AFNE15.jpg,AFSA09.jpg,AFNE13.jpg,AFSA10.jpg,AFSA09.jpg,FS,4,num_6,16,num_6,0.716855293373,,,2017_Nov_29_1822,60.0136281018,FEMA4ImagesEEG,001,102451,
AFSA25.JPG,AFNE24.JPG,AFSA24.JPG,AFNE21.JPG,AFSA21.JPG,AFNE25.JPG,0,8,8,2,,,,,,,,,,,,,,,,,,,,,,,AFNE17.jpg,AFSA15.jpg,AFSA09.jpg,AFNE13.jpg,AFNE13.jpg,FN,3,num_4,16,num_4,0.850121463998,,,2017_Nov_29_1822,60.0136281018,FEMA4ImagesEEG,001,102451,
AMSA21.JPG,AMNE22.JPG,AMNE21.JPG,AMSA23.JPG,AMSA22.JPG,AMNE23.JPG,0,9,9,1,,,,,,,,,,,,,,,,,,,,,,,AFSA04.jpg,AFNE10.jpg,AFSA19.jpg,AFNE16.jpg,AFSA04.jpg,FS,4,num_8,32,num_4,0.916725201532,,,2017_Nov_29_1822,60.0136281018,FEMA4ImagesEEG,001,102451,
AMSA25.JPG,AMNE24.JPG,AMSA24.JPG,AMNE26.JPG,AMSA21.JPG,AMNE25.JPG,,,,,0,0,0,3,,,,,,,,,,,,,,,,,,,AMNE17.jpg,AMNE20.jpg,AMSA14.jpg,AMSA10.jpg,AMSA10.jpg,MS,2,num_4,32,num_8,0.816816868843,,,2017_Nov_29_1822,60.0136281018,FEMA4ImagesEEG,001,102451,
AMNE23.JPG,AMNE24.JPG,AMNE22.JPG,AMSA24.JPG,AMSA22.JPG,AMSA23.JPG,,,,,0,1,1,9,,,,,,,,,,,,,,,,,,,AMNE19.jpg,AMNE17.jpg,AMSA17.jpg,AMSA08.jpg,AMNE17.jpg,MN,1,num_6,32,num_2,1.38338949473,,,2017_Nov_29_1822,60.0136281018,FEMA4ImagesEEG,001,102451,
AFSA21.JPG,AFNE22.JPG,AFNE21.JPG,AFSA23.JPG,AFSA22.JPG,AFNE23.JPG,,,,,0,2,2,0,,,,,,,,,,,,,,,,,,,AMNE07.jpg,AMNE16.jpg,AMSA03.jpg,AMSA15.jpg,AMNE16.jpg,MN,1,num_6,16,num_6,0.816800831817,,,2017_Nov_29_1822,60.0136281018,FEMA4ImagesEEG,001,102451,
AMNE22.JPG,AMSA24.JPG,AMSA22.JPG,AMNE25.JPG,AMNE24.JPG,AMSA25.JPG,,,,,0,3,3,7,,,,,,,,,,,,,,,,,,,AMNE09.jpg,AMSA17.jpg,AMNE10.jpg,AMSA09.jpg,AMNE09.jpg,MN,1,num_8,32,num_2,1.01676888624,,,2017_Nov_29_1822,60.0136281018,FEMA4ImagesEEG,001,102451,
AFSA25.JPG,AFNE24.JPG,AFSA24.JPG,AFNE21.JPG,AFSA21.JPG,AFNE25.JPG,,,,,0,4,4,2,,,,,,,,,,,,,,,,,,,AMNE17.jpg,AMNE16.jpg,AMSA14.jpg,AMSA05.jpg,AMNE17.jpg,MN,1,num_8,16,num_8,1.56673427846,,,2017_Nov_29_1822,60.0136281018,FEMA4ImagesEEG,001,102451,
AFNE23.JPG,AFNE24.JPG,AFNE22.JPG,AFSA24.JPG,AFSA22.JPG,AFSA23.JPG,,,,,0,5,5,8,,,,,,,,,,,,,,,,,,,AMNE15.jpg,AMNE05.jpg,AMSA13.jpg,AMSA14.jpg,AMNE15.jpg,MN,1,num_8,32,num_6,1.1667260034,,,2017_Nov_29_1822,60.0136281018,FEMA4ImagesEEG,001,102451,
AFNE22.JPG,AFSA24.JPG,AFSA22.JPG,AFNE25.JPG,AFNE24.JPG,AFSA25.JPG,,,,,0,6,6,6,,,,,,,,,,,,,,,,,,,AMNE11.jpg,AMNE16.jpg,AMSA12.jpg,AMSA17.jpg,AMNE11.jpg,MN,1,num_8,16,num_8,1.16675358696,,,2017_Nov_29_1822,60.0136281018,FEMA4ImagesEEG,001,102451,
AFSA21.JPG,AFNE23.JPG,AFNE21.JPG,AFSA25.JPG,AFNE25.JPG,AFSA23.JPG,,,,,0,7,7,4,,,,,,,,,,,,,,,,,,,AMNE16.jpg,AMNE09.jpg,AMSA12.jpg,AMSA11.jpg,AMNE09.jpg,MN,1,num_6,32,num_8,0.85021062952,,,2017_Nov_29_1822,60.0136281018,FEMA4ImagesEEG,001,102451,
AMSA21.JPG,AMNE23.JPG,AMNE21.JPG,AMSA25.JPG,AMNE25.JPG,AMSA23.JPG,,,,,0,8,8,5,,,,,,,,,,,,,,,,,,,AMNE08.jpg,AMSA04.jpg,AMSA06.jpg,AMNE13.jpg,AMSA06.jpg,MS,2,num_2,32,num_4,1.75014160643,,,2017_Nov_29_1822,60.0136281018,FEMA4ImagesEEG,001,102451,
AMSA21.JPG,AMNE22.JPG,AMNE21.JPG,AMSA23.JPG,AMSA22.JPG,AMNE23.JPG,,,,,0,9,9,1,,,,,,,,,,,,,,,,,,,AMNE05.jpg,AMSA17.jpg,AMSA10.jpg,AMNE10.jpg,AMSA17.jpg,MS,2,num_6,16,num_6,0.650170087931,,,2017_Nov_29_1822,60.0136281018,FEMA4ImagesEEG,001,102451,
AFNE23.JPG,AFNE24.JPG,AFNE22.JPG,AFSA24.JPG,AFSA22.JPG,AFSA23.JPG,,,,,,,,,0,0,0,8,,,,,,,,,,,,,,,AFNE14.jpg,AFNE13.jpg,AFSA06.jpg,AFSA09.jpg,AFNE14.jpg,FN,3,num_8,16,num_8,1.03348934092,,,2017_Nov_29_1822,60.0136281018,FEMA4ImagesEEG,001,102451,
AMSA21.JPG,AMNE22.JPG,AMNE21.JPG,AMSA23.JPG,AMSA22.JPG,AMNE23.JPG,,,,,,,,,0,1,1,1,,,,,,,,,,,,,,,AFSA18.jpg,AFNE20.jpg,AFSA09.jpg,AFNE02.jpg,AFSA09.jpg,FS,4,num_2,32,num_8,0.733577993116,,,2017_Nov_29_1822,60.0136281018,FEMA4ImagesEEG,001,102451,
AMSA25.JPG,AMNE24.JPG,AMSA24.JPG,AMNE26.JPG,AMSA21.JPG,AMNE25.JPG,,,,,,,,,0,2,2,3,,,,,,,,,,,,,,,AFSA07.jpg,AFSA17.jpg,AFNE14.jpg,AFNE18.jpg,AFNE14.jpg,FN,3,num_2,16,num_2,1.29993219569,,,2017_Nov_29_1822,60.0136281018,FEMA4ImagesEEG,001,102451,
AFNE22.JPG,AFSA24.JPG,AFSA22.JPG,AFNE25.JPG,AFNE24.JPG,AFSA25.JPG,,,,,,,,,0,3,3,6,,,,,,,,,,,,,,,AFSA10.jpg,AFNE06.jpg,AFSA14.jpg,AFNE07.jpg,AFNE06.jpg,FN,3,num_6,16,num_6,0.583476543427,,,2017_Nov_29_1822,60.0136281018,FEMA4ImagesEEG,001,102451,
AMNE22.JPG,AMSA24.JPG,AMSA22.JPG,AMNE25.JPG,AMNE24.JPG,AMSA25.JPG,,,,,,,,,0,4,4,7,,,,,,,,,,,,,,,AFSA13.jpg,AFSA06.jpg,AFNE17.jpg,AFNE12.jpg,AFSA06.jpg,FS,4,num_6,16,num_6,0.966430153698,,,2017_Nov_29_1822,60.0136281018,FEMA4ImagesEEG,001,102451,
AMSA21.JPG,AMNE23.JPG,AMNE21.JPG,AMSA25.JPG,AMNE25.JPG,AMSA23.JPG,,,,,,,,,0,5,5,5,,,,,,,,,,,,,,,AFNE20.jpg,AFSA16.jpg,AFNE04.jpg,AFSA12.jpg,AFSA16.jpg,FS,4,num_6,16,num_6,0.816853753873,,,2017_Nov_29_1822,60.0136281018,FEMA4ImagesEEG,001,102451,
AMNE23.JPG,AMNE24.JPG,AMNE22.JPG,AMSA24.JPG,AMSA22.JPG,AMSA23.JPG,,,,,,,,,0,6,6,9,,,,,,,,,,,,,,,AFSA03.jpg,AFSA09.jpg,AFNE01.jpg,AFNE14.jpg,AFSA09.jpg,FS,4,num_6,16,num_6,0.783465125016,,,2017_Nov_29_1822,60.0136281018,FEMA4ImagesEEG,001,102451,
AFSA25.JPG,AFNE24.JPG,AFSA24.JPG,AFNE21.JPG,AFSA21.JPG,AFNE25.JPG,,,,,,,,,0,7,7,2,,,,,,,,,,,,,,,AFSA05.jpg,AFNE19.jpg,AFNE14.jpg,AFSA18.jpg,AFNE14.jpg,FN,3,num_2,32,num_8,1.38341162575,,,2017_Nov_29_1822,60.0136281018,FEMA4ImagesEEG,001,102451,
AFSA21.JPG,AFNE22.JPG,AFNE21.JPG,AFSA23.JPG,AFSA22.JPG,AFNE23.JPG,,,,,,,,,0,8,8,0,,,,,,,,,,,,,,,AFSA20.jpg,AFNE13.jpg,AFSA09.jpg,AFNE05.jpg,AFNE05.jpg,FN,3,num_4,32,num_8,1.79975835513,,,2017_Nov_29_1822,60.0136281018,FEMA4ImagesEEG,001,102451,
AFSA21.JPG,AFNE23.JPG,AFNE21.JPG,AFSA25.JPG,AFNE25.JPG,AFSA23.JPG,,,,,,,,,0,9,9,4,,,,,,,,,,,,,,,AFNE07.jpg,AFNE09.jpg,AFSA16.jpg,AFSA20.jpg,AFNE07.jpg,FN,3,num_8,16,num_8,1.11679460946,,,2017_Nov_29_1822,60.0136281018,FEMA4ImagesEEG,001,102451,
AMSA21.JPG,AMNE22.JPG,AMNE21.JPG,AMSA23.JPG,AMSA22.JPG,AMNE23.JPG,,,,,,,,,,,,,0,0,0,1,,,,,,,,,,,AMNE10.jpg,AMSA16.jpg,AMSA07.jpg,AMNE18.jpg,AMNE18.jpg,MN,1,num_4,16,num_4,0.583448318299,,,2017_Nov_29_1822,60.0136281018,FEMA4ImagesEEG,001,102451,
AFSA21.JPG,AFNE22.JPG,AFNE21.JPG,AFSA23.JPG,AFSA22.JPG,AFNE23.JPG,,,,,,,,,,,,,0,1,1,0,,,,,,,,,,,AMSA15.jpg,AMSA06.jpg,AMNE04.jpg,AMNE18.jpg,AMNE18.jpg,MN,1,num_4,16,num_4,1.43343571329,,,2017_Nov_29_1822,60.0136281018,FEMA4ImagesEEG,001,102451,
AFSA21.JPG,AFNE23.JPG,AFNE21.JPG,AFSA25.JPG,AFNE25.JPG,AFSA23.JPG,,,,,,,,,,,,,0,2,2,4,,,,,,,,,,,AMNE13.jpg,AMSA08.jpg,AMNE17.jpg,AMSA07.jpg,AMSA08.jpg,MS,2,num_6,16,num_6,0.950118641485,,,2017_Nov_29_1822,60.0136281018,FEMA4ImagesEEG,001,102451,
AFNE22.JPG,AFSA24.JPG,AFSA22.JPG,AFNE25.JPG,AFNE24.JPG,AFSA25.JPG,,,,,,,,,,,,,0,3,3,6,,,,,,,,,,,AMSA09.jpg,AMSA18.jpg,AMNE03.jpg,AMNE02.jpg,AMNE02.jpg,MN,1,num_4,32,num_8,1.20004663547,,,2017_Nov_29_1822,60.0136281018,FEMA4ImagesEEG,001,102451,
AFSA25.JPG,AFNE24.JPG,AFSA24.JPG,AFNE21.JPG,AFSA21.JPG,AFNE25.JPG,,,,,,,,,,,,,0,4,4,2,,,,,,,,,,,AMNE02.jpg,AMNE10.jpg,AMSA18.jpg,AMSA10.jpg,AMNE10.jpg,MN,1,num_6,16,num_6,0.500163256307,,,2017_Nov_29_1822,60.0136281018,FEMA4ImagesEEG,001,102451,
AMNE22.JPG,AMSA24.JPG,AMSA22.JPG,AMNE25.JPG,AMNE24.JPG,AMSA25.JPG,,,,,,,,,,,,,0,5,5,7,,,,,,,,,,,AMSA10.jpg,AMSA14.jpg,AMNE11.jpg,AMNE15.jpg,AMSA10.jpg,MS,2,num_8,32,num_4,1.5000378472,,,2017_Nov_29_1822,60.0136281018,FEMA4ImagesEEG,001,102451,
AFNE23.JPG,AFNE24.JPG,AFNE22.JPG,AFSA24.JPG,AFSA22.JPG,AFSA23.JPG,,,,,,,,,,,,,0,6,6,8,,,,,,,,,,,AMNE01.jpg,AMSA04.jpg,AMSA19.jpg,AMNE10.jpg,AMNE10.jpg,MN,1,num_4,32,num_8,0.883486037259,,,2017_Nov_29_1822,60.0136281018,FEMA4ImagesEEG,001,102451,
AMSA25.JPG,AMNE24.JPG,AMSA24.JPG,AMNE26.JPG,AMSA21.JPG,AMNE25.JPG,,,,,,,,,,,,,0,7,7,3,,,,,,,,,,,AMNE05.jpg,AMSA13.jpg,AMNE18.jpg,AMSA05.jpg,AMNE18.jpg,MN,1,num_2,16,num_2,1.36672645248,,,2017_Nov_29_1822,60.0136281018,FEMA4ImagesEEG,001,102451,
AMSA21.JPG,AMNE23.JPG,AMNE21.JPG,AMSA25.JPG,AMNE25.JPG,AMSA23.JPG,,,,,,,,,,,,,0,8,8,5,,,,,,,,,,,AMSA09.jpg,AMNE02.jpg,AMNE01.jpg,AMSA04.jpg,AMNE01.jpg,MN,1,num_2,32,num_8,1.35010029515,,,2017_Nov_29_1822,60.0136281018,FEMA4ImagesEEG,001,102451,
AMNE23.JPG,AMNE24.JPG,AMNE22.JPG,AMSA24.JPG,AMSA22.JPG,AMSA23.JPG,,,,,,,,,,,,,0,9,9,9,,,,,,,,,,,AMNE13.jpg,AMSA01.jpg,AMSA06.jpg,AMNE07.jpg,AMSA06.jpg,MS,2,num_2,32,num_8,1.03349318984,,,2017_Nov_29_1822,60.0136281018,FEMA4ImagesEEG,001,102451,
AMSA21.JPG,AMNE23.JPG,AMNE21.JPG,AMSA25.JPG,AMNE25.JPG,AMSA23.JPG,,,,,,,,,,,,,,,,,0,0,0,5,,,,,,,AFSA10.jpg,AFSA16.jpg,AFNE13.jpg,AFNE08.jpg,AFSA10.jpg,FS,4,num_8,16,num_8,0.466797720641,,,2017_Nov_29_1822,60.0136281018,FEMA4ImagesEEG,001,102451,
AFNE23.JPG,AFNE24.JPG,AFNE22.JPG,AFSA24.JPG,AFSA22.JPG,AFSA23.JPG,,,,,,,,,,,,,,,,,0,1,1,8,,,,,,,AFSA20.jpg,AFNE11.jpg,AFNE06.jpg,AFSA18.jpg,AFSA20.jpg,FS,4,num_8,32,num_4,0.883479943266,,,2017_Nov_29_1822,60.0136281018,FEMA4ImagesEEG,001,102451,
AFSA21.JPG,AFNE22.JPG,AFNE21.JPG,AFSA23.JPG,AFSA22.JPG,AFNE23.JPG,,,,,,,,,,,,,,,,,0,2,2,0,,,,,,,AFNE07.jpg,AFSA05.jpg,AFNE06.jpg,AFSA20.jpg,AFSA20.jpg,FS,4,num_4,32,num_6,0.800137468847,,,2017_Nov_29_1822,60.0136281018,FEMA4ImagesEEG,001,102451,
AFSA21.JPG,AFNE23.JPG,AFNE21.JPG,AFSA25.JPG,AFNE25.JPG,AFSA23.JPG,,,,,,,,,,,,,,,,,0,3,3,4,,,,,,,AFNE10.jpg,AFSA20.jpg,AFSA02.jpg,AFNE03.jpg,AFSA20.jpg,FS,4,num_6,32,num_4,1.01689012558,,,2017_Nov_29_1822,60.0136281018,FEMA4ImagesEEG,001,102451,
AFNE22.JPG,AFSA24.JPG,AFSA22.JPG,AFNE25.JPG,AFNE24.JPG,AFSA25.JPG,,,,,,,,,,,,,,,,,0,4,4,6,,,,,,,AFNE12.jpg,AFSA01.jpg,AFNE15.jpg,AFSA18.jpg,AFSA18.jpg,FS,4,num_4,32,num_6,1.43346425903,,,2017_Nov_29_1822,60.0136281018,FEMA4ImagesEEG,001,102451,
AMSA21.JPG,AMNE22.JPG,AMNE21.JPG,AMSA23.JPG,AMSA22.JPG,AMNE23.JPG,,,,,,,,,,,,,,,,,0,5,5,1,,,,,,,AFNE18.jpg,AFNE11.jpg,AFSA17.jpg,AFSA02.jpg,AFSA17.jpg,FS,4,num_2,32,num_8,1.05023032287,,,2017_Nov_29_1822,60.0136281018,FEMA4ImagesEEG,001,102451,
AMSA25.JPG,AMNE24.JPG,AMSA24.JPG,AMNE26.JPG,AMSA21.JPG,AMNE25.JPG,,,,,,,,,,,,,,,,,0,6,6,3,,,,,,,AFSA08.jpg,AFNE07.jpg,AFSA19.jpg,AFNE20.jpg,AFSA19.jpg,FS,4,num_2,16,num_2,1.16683248885,,,2017_Nov_29_1822,60.0136281018,FEMA4ImagesEEG,001,102451,
AMNE23.JPG,AMNE24.JPG,AMNE22.JPG,AMSA24.JPG,AMSA22.JPG,AMSA23.JPG,,,,,,,,,,,,,,,,,0,7,7,9,,,,,,,AFSA20.jpg,AFNE13.jpg,AFNE14.jpg,AFSA17.jpg,AFNE13.jpg,FN,3,num_6,16,num_6,0.816707817488,,,2017_Nov_29_1822,60.0136281018,FEMA4ImagesEEG,001,102451,
AMNE22.JPG,AMSA24.JPG,AMSA22.JPG,AMNE25.JPG,AMNE24.JPG,AMSA25.JPG,,,,,,,,,,,,,,,,,0,8,8,7,,,,,,,AFNE04.jpg,AFSA04.jpg,AFSA19.jpg,AFNE01.jpg,AFNE01.jpg,FN,3,num_4,16,num_4,0.800188466324,,,2017_Nov_29_1822,60.0136281018,FEMA4ImagesEEG,001,102451,
AFSA25.JPG,AFNE24.JPG,AFSA24.JPG,AFNE21.JPG,AFSA21.JPG,AFNE25.JPG,,,,,,,,,,,,,,,,,0,9,9,2,,,,,,,AFNE01.jpg,AFSA02.jpg,AFNE04.jpg,AFSA05.jpg,AFNE01.jpg,FN,3,num_8,16,num_8,1.30011084746,,,2017_Nov_29_1822,60.0136281018,FEMA4ImagesEEG,001,102451,
AMNE22.JPG,AMSA24.JPG,AMSA22.JPG,AMNE25.JPG,AMNE24.JPG,AMSA25.JPG,,,,,,,,,,,,,,,,,,,,,0,0,0,7,,,AMSA13.jpg,AMSA17.jpg,AMNE04.jpg,AMNE16.jpg,AMNE16.jpg,MN,1,num_4,16,num_4,1.34986775927,,,2017_Nov_29_1822,60.0136281018,FEMA4ImagesEEG,001,102451,
AFSA25.JPG,AFNE24.JPG,AFSA24.JPG,AFNE21.JPG,AFSA21.JPG,AFNE25.JPG,,,,,,,,,,,,,,,,,,,,,0,1,1,2,,,AMSA06.jpg,AMNE12.jpg,AMNE01.jpg,AMSA03.jpg,AMSA06.jpg,MS,2,num_8,16,num_8,1.21673277102,,,2017_Nov_29_1822,60.0136281018,FEMA4ImagesEEG,001,102451,
AFNE22.JPG,AFSA24.JPG,AFSA22.JPG,AFNE25.JPG,AFNE24.JPG,AFSA25.JPG,,,,,,,,,,,,,,,,,,,,,0,2,2,6,,,AMSA11.jpg,AMNE15.jpg,AMSA18.jpg,AMNE03.jpg,AMNE03.jpg,MN,1,num_4,32,num_2,1.66676705808,,,2017_Nov_29_1822,60.0136281018,FEMA4ImagesEEG,001,102451,
AFSA21.JPG,AFNE22.JPG,AFNE21.JPG,AFSA23.JPG,AFSA22.JPG,AFNE23.JPG,,,,,,,,,,,,,,,,,,,,,0,3,3,0,,,AMNE16.jpg,AMNE12.jpg,AMSA02.jpg,AMSA13.jpg,AMSA13.jpg,MS,2,num_4,32,num_6,0.616794288857,,,2017_Nov_29_1822,60.0136281018,FEMA4ImagesEEG,001,102451,
AMSA21.JPG,AMNE23.JPG,AMNE21.JPG,AMSA25.JPG,AMNE25.JPG,AMSA23.JPG,,,,,,,,,,,,,,,,,,,,,0,4,4,5,,,AMNE04.jpg,AMSA10.jpg,AMNE12.jpg,AMSA05.jpg,AMSA05.jpg,MS,2,num_4,16,num_4,0.866793166148,,,2017_Nov_29_1822,60.0136281018,FEMA4ImagesEEG,001,102451,
AMNE23.JPG,AMNE24.JPG,AMNE22.JPG,AMSA24.JPG,AMSA22.JPG,AMSA23.JPG,,,,,,,,,,,,,,,,,,,,,0,5,5,9,,,AMSA04.jpg,AMSA09.jpg,AMNE12.jpg,AMNE07.jpg,AMNE12.jpg,MN,1,num_2,32,num_6,1.6166573331,,,2017_Nov_29_1822,60.0136281018,FEMA4ImagesEEG,001,102451,
AFSA21.JPG,AFNE23.JPG,AFNE21.JPG,AFSA25.JPG,AFNE25.JPG,AFSA23.JPG,,,,,,,,,,,,,,,,,,,,,0,6,6,4,,,AMNE20.jpg,AMNE03.jpg,AMSA04.jpg,AMSA08.jpg,AMNE03.jpg,MN,1,num_6,32,num_8,0.833482477115,,,2017_Nov_29_1822,60.0136281018,FEMA4ImagesEEG,001,102451,
AFNE23.JPG,AFNE24.JPG,AFNE22.JPG,AFSA24.JPG,AFSA22.JPG,AFSA23.JPG,,,,,,,,,,,,,,,,,,,,,0,7,7,8,,,AMSA18.jpg,AMNE10.jpg,AMSA12.jpg,AMNE12.jpg,AMSA12.jpg,MS,2,num_2,16,num_2,1.10010141775,,,2017_Nov_29_1822,60.0136281018,FEMA4ImagesEEG,001,102451,
AMSA25.JPG,AMNE24.JPG,AMSA24.JPG,AMNE26.JPG,AMSA21.JPG,AMNE25.JPG,,,,,,,,,,,,,,,,,,,,,0,8,8,3,,,AMNE05.jpg,AMSA10.jpg,AMNE13.jpg,AMSA18.jpg,AMSA18.jpg,MS,2,num_4,16,num_4,0.533577223425,,,2017_Nov_29_1822,60.0136281018,FEMA4ImagesEEG,001,102451,
AMSA21.JPG,AMNE22.JPG,AMNE21.JPG,AMSA23.JPG,AMSA22.JPG,AMNE23.JPG,,,,,,,,,,,,,,,,,,,,,0,9,9,1,,,AMNE15.jpg,AMNE17.jpg,AMSA19.jpg,AMSA03.jpg,AMNE15.jpg,MN,1,num_8,32,num_6,1.5833630017,,,2017_Nov_29_1822,60.0136281018,FEMA4ImagesEEG,001,102451,
,,,,,,,,,,,,,,,,,,,,,,,,,,,,,,,,,,,,,,,,,,,space,11.2156387296,2017_Nov_29_1822,60.0136281018,FEMA4ImagesEEG,001,102451,
AFNE01.JPG,AFNE01.JPG,AFNE01.JPG,AFNE01.JPG,AFNE01.JPG,AFNE01.JPG,0,0,0,3,,,,,,,,,,,,,,,,,,,,,,,AFSA19.jpg,AFSA16.jpg,AFNE16.jpg,AFNE18.jpg,AFNE18.jpg,FN,3,num_4,16,num_4,0.68328256032,,,2017_Nov_29_1822,60.0136281018,FEMA4ImagesEEG,001,102451,
AFNE01.JPG,AFNE01.JPG,AFNE01.JPG,AFNE01.JPG,AFNE01.JPG,AFNE01.JPG,0,1,1,8,,,,,,,,,,,,,,,,,,,,,,,AFNE14.jpg,AFSA10.jpg,AFNE05.jpg,AFSA02.jpg,AFSA10.jpg,FS,4,num_6,16,num_6,0.983519137488,,,2017_Nov_29_1822,60.0136281018,FEMA4ImagesEEG,001,102451,
AFNE01.JPG,AFNE01.JPG,AFNE01.JPG,AFNE01.JPG,AFNE01.JPG,AFNE01.JPG,0,2,2,0,,,,,,,,,,,,,,,,,,,,,,,AFSA17.jpg,AFNE19.jpg,AFSA09.jpg,AFNE09.jpg,AFNE09.jpg,FN,3,num_4,16,num_4,0.650136731216,,,2017_Nov_29_1822,60.0136281018,FEMA4ImagesEEG,001,102451,
AFNE01.JPG,AFNE01.JPG,AFNE01.JPG,AFNE01.JPG,AFNE01.JPG,AFNE01.JPG,0,3,3,6,,,,,,,,,,,,,,,,,,,,,,,AFNE19.jpg,AFNE11.jpg,AFSA12.jpg,AFSA07.jpg,AFNE11.jpg,FN,3,num_6,16,num_6,0.733503260999,,,2017_Nov_29_1822,60.0136281018,FEMA4ImagesEEG,001,102451,
AFNE01.JPG,AFNE01.JPG,AFNE01.JPG,AFNE01.JPG,AFNE01.JPG,AFNE01.JPG,0,4,4,4,,,,,,,,,,,,,,,,,,,,,,,AFSA02.jpg,AFNE05.jpg,AFNE07.jpg,AFSA01.jpg,AFNE05.jpg,FN,3,num_6,16,num_6,1.26670970989,,,2017_Nov_29_1822,60.0136281018,FEMA4ImagesEEG,001,102451,
AFNE01.JPG,AFNE01.JPG,AFNE01.JPG,AFNE01.JPG,AFNE01.JPG,AFNE01.JPG,0,5,5,7,,,,,,,,,,,,,,,,,,,,,,,AFSA07.jpg,AFSA16.jpg,AFNE14.jpg,AFNE16.jpg,AFNE16.jpg,FN,3,num_4,32,num_6,0.766814591596,,,2017_Nov_29_1822,60.0136281018,FEMA4ImagesEEG,001,102451,
AFNE01.JPG,AFNE01.JPG,AFNE01.JPG,AFNE01.JPG,AFNE01.JPG,AFNE01.JPG,0,6,6,5,,,,,,,,,,,,,,,,,,,,,,,AFNE13.jpg,AFSA13.jpg,AFSA16.jpg,AFNE19.jpg,AFSA13.jpg,FS,4,num_6,16,num_6,0.56678431388,,,2017_Nov_29_1822,60.0136281018,FEMA4ImagesEEG,001,102451,
AFNE01.JPG,AFNE01.JPG,AFNE01.JPG,AFNE01.JPG,AFNE01.JPG,AFNE01.JPG,0,7,7,2,,,,,,,,,,,,,,,,,,,,,,,AFNE15.jpg,AFNE07.jpg,AFSA13.jpg,AFSA17.jpg,AFNE07.jpg,FN,3,num_6,16,num_6,0.633497102768,,,2017_Nov_29_1822,60.0136281018,FEMA4ImagesEEG,001,102451,
AFNE01.JPG,AFNE01.JPG,AFNE01.JPG,AFNE01.JPG,AFNE01.JPG,AFNE01.JPG,0,8,8,1,,,,,,,,,,,,,,,,,,,,,,,AFSA19.jpg,AFNE05.jpg,AFNE06.jpg,AFSA15.jpg,AFSA19.jpg,FS,4,num_8,32,num_2,1.05016457126,,,2017_Nov_29_1822,60.0136281018,FEMA4ImagesEEG,001,102451,
AFNE01.JPG,AFNE01.JPG,AFNE01.JPG,AFNE01.JPG,AFNE01.JPG,AFNE01.JPG,0,9,9,9,,,,,,,,,,,,,,,,,,,,,,,AFNE20.jpg,AFSA06.jpg,AFSA16.jpg,AFNE01.jpg,AFSA16.jpg,FS,4,num_2,32,num_8,1.35010157817,,,2017_Nov_29_1822,60.0136281018,FEMA4ImagesEEG,001,102451,
AFNE01.JPG,AFNE01.JPG,AFNE01.JPG,AFNE01.JPG,AFNE01.JPG,AFNE01.JPG,1,0,10,7,,,,,,,,,,,,,,,,,,,,,,,AFSA18.jpg,AFSA09.jpg,AFNE09.jpg,AFNE15.jpg,AFSA18.jpg,FS,4,num_8,16,num_8,1.81672866549,,,2017_Nov_29_1822,60.0136281018,FEMA4ImagesEEG,001,102451,
AFNE01.JPG,AFNE01.JPG,AFNE01.JPG,AFNE01.JPG,AFNE01.JPG,AFNE01.JPG,1,1,11,6,,,,,,,,,,,,,,,,,,,,,,,AFSA08.jpg,AFSA09.jpg,AFNE06.jpg,AFNE05.jpg,AFSA09.jpg,FS,4,num_6,32,num_8,1.0000962218,,,2017_Nov_29_1822,60.0136281018,FEMA4ImagesEEG,001,102451,
AFNE01.JPG,AFNE01.JPG,AFNE01.JPG,AFNE01.JPG,AFNE01.JPG,AFNE01.JPG,1,2,12,0,,,,,,,,,,,,,,,,,,,,,,,AFSA15.jpg,AFNE08.jpg,AFNE05.jpg,AFSA08.jpg,AFSA08.jpg,FS,4,num_4,16,num_4,1.11683117377,,,2017_Nov_29_1822,60.0136281018,FEMA4ImagesEEG,001,102451,
AFNE01.JPG,AFNE01.JPG,AFNE01.JPG,AFNE01.JPG,AFNE01.JPG,AFNE01.JPG,1,3,13,4,,,,,,,,,,,,,,,,,,,,,,,AFSA18.jpg,AFSA08.jpg,AFNE11.jpg,AFNE19.jpg,AFNE19.jpg,FN,3,num_4,32,num_6,1.60006741947,,,2017_Nov_29_1822,60.0136281018,FEMA4ImagesEEG,001,102451,
AFNE01.JPG,AFNE01.JPG,AFNE01.JPG,AFNE01.JPG,AFNE01.JPG,AFNE01.JPG,1,4,14,9,,,,,,,,,,,,,,,,,,,,,,,AFNE12.jpg,AFSA11.jpg,AFSA20.jpg,AFNE15.jpg,AFNE15.jpg,FN,3,num_4,32,num_8,1.51668421109,,,2017_Nov_29_1822,60.0136281018,FEMA4ImagesEEG,001,102451,
AFNE01.JPG,AFNE01.JPG,AFNE01.JPG,AFNE01.JPG,AFNE01.JPG,AFNE01.JPG,1,5,15,1,,,,,,,,,,,,,,,,,,,,,,,AFSA11.jpg,AFNE11.jpg,AFSA08.jpg,AFNE20.jpg,AFSA11.jpg,FS,4,num_8,16,num_8,1.35010510625,,,2017_Nov_29_1822,60.0136281018,FEMA4ImagesEEG,001,102451,
AFNE01.JPG,AFNE01.JPG,AFNE01.JPG,AFNE01.JPG,AFNE01.JPG,AFNE01.JPG,1,6,16,5,,,,,,,,,,,,,,,,,,,,,,,AFSA07.jpg,AFSA20.jpg,AFNE05.jpg,AFNE02.jpg,AFSA20.jpg,FS,4,num_6,32,num_8,1.01681026164,,,2017_Nov_29_1822,60.0136281018,FEMA4ImagesEEG,001,102451,
AFNE01.JPG,AFNE01.JPG,AFNE01.JPG,AFNE01.JPG,AFNE01.JPG,AFNE01.JPG,1,7,17,3,,,,,,,,,,,,,,,,,,,,,,,AFSA13.jpg,AFSA15.jpg,AFNE09.jpg,AFNE07.jpg,AFNE07.jpg,FN,3,num_4,16,num_4,0.883442737511,,,2017_Nov_29_1822,60.0136281018,FEMA4ImagesEEG,001,102451,
AFNE01.JPG,AFNE01.JPG,AFNE01.JPG,AFNE01.JPG,AFNE01.JPG,AFNE01.JPG,1,8,18,8,,,,,,,,,,,,,,,,,,,,,,,AFSA04.jpg,AFSA01.jpg,AFNE04.jpg,AFNE20.jpg,AFNE20.jpg,FN,3,num_4,32,num_2,0.833442384726,,,2017_Nov_29_1822,60.0136281018,FEMA4ImagesEEG,001,102451,
AFNE01.JPG,AFNE01.JPG,AFNE01.JPG,AFNE01.JPG,AFNE01.JPG,AFNE01.JPG,1,9,19,2,,,,,,,,,,,,,,,,,,,,,,,AFNE20.jpg,AFSA10.jpg,AFNE08.jpg,AFSA04.jpg,AFSA10.jpg,FS,4,num_6,16,num_6,1.29996843927,,,2017_Nov_29_1822,60.0136281018,FEMA4ImagesEEG,001,102451,
AFNE01.JPG,AFNE01.JPG,AFNE01.JPG,AFNE01.JPG,AFNE01.JPG,AFNE01.JPG,2,0,20,7,,,,,,,,,,,,,,,,,,,,,,,AFSA02.jpg,AFNE20.jpg,AFNE11.jpg,AFSA15.jpg,AFNE11.jpg,FN,3,num_2,16,num_2,0.633464066661,,,2017_Nov_29_1822,60.0136281018,FEMA4ImagesEEG,001,102451,
AFNE01.JPG,AFNE01.JPG,AFNE01.JPG,AFNE01.JPG,AFNE01.JPG,AFNE01.JPG,2,1,21,8,,,,,,,,,,,,,,,,,,,,,,,AFNE06.jpg,AFSA09.jpg,AFSA11.jpg,AFNE04.jpg,AFSA09.jpg,FS,4,num_6,32,num_8,1.38344049233,,,2017_Nov_29_1822,60.0136281018,FEMA4ImagesEEG,001,102451,
AFNE01.JPG,AFNE01.JPG,AFNE01.JPG,AFNE01.JPG,AFNE01.JPG,AFNE01.JPG,2,2,22,3,,,,,,,,,,,,,,,,,,,,,,,AFSA08.jpg,AFNE06.jpg,AFNE03.jpg,AFSA13.jpg,AFNE03.jpg,FN,3,num_2,32,num_6,1.55012415815,,,2017_Nov_29_1822,60.0136281018,FEMA4ImagesEEG,001,102451,
AFNE01.JPG,AFNE01.JPG,AFNE01.JPG,AFNE01.JPG,AFNE01.JPG,AFNE01.JPG,2,3,23,2,,,,,,,,,,,,,,,,,,,,,,,AFNE02.jpg,AFNE08.jpg,AFSA06.jpg,AFSA03.jpg,AFSA03.jpg,FS,4,num_4,16,num_4,0.767073748866,,,2017_Nov_29_1822,60.0136281018,FEMA4ImagesEEG,001,102451,
AFNE01.JPG,AFNE01.JPG,AFNE01.JPG,AFNE01.JPG,AFNE01.JPG,AFNE01.JPG,2,4,24,9,,,,,,,,,,,,,,,,,,,,,,,AFSA12.jpg,AFSA19.jpg,AFNE02.jpg,AFNE01.jpg,AFSA12.jpg,FS,4,num_8,32,num_6,0.833467081655,,,2017_Nov_29_1822,60.0136281018,FEMA4ImagesEEG,001,102451,
AFNE01.JPG,AFNE01.JPG,AFNE01.JPG,AFNE01.JPG,AFNE01.JPG,AFNE01.JPG,2,5,25,1,,,,,,,,,,,,,,,,,,,,,,,AFNE14.jpg,AFSA08.jpg,AFNE16.jpg,AFSA09.jpg,AFNE14.jpg,FN,3,num_8,32,num_6,1.33340453741,,,2017_Nov_29_1822,60.0136281018,FEMA4ImagesEEG,001,102451,
AFNE01.JPG,AFNE01.JPG,AFNE01.JPG,AFNE01.JPG,AFNE01.JPG,AFNE01.JPG,2,6,26,0,,,,,,,,,,,,,,,,,,,,,,,AFSA06.jpg,AFNE12.jpg,AFNE11.jpg,AFSA11.jpg,AFSA06.jpg,FS,4,num_8,32,num_2,1.21662339894,,,2017_Nov_29_1822,60.0136281018,FEMA4ImagesEEG,001,102451,
AFNE01.JPG,AFNE01.JPG,AFNE01.JPG,AFNE01.JPG,AFNE01.JPG,AFNE01.JPG,2,7,27,4,,,,,,,,,,,,,,,,,,,,,,,AFSA06.jpg,AFSA16.jpg,AFNE01.jpg,AFNE18.jpg,AFSA06.jpg,FS,4,num_8,16,num_8,1.15011684527,,,2017_Nov_29_1822,60.0136281018,FEMA4ImagesEEG,001,102451,
AFNE01.JPG,AFNE01.JPG,AFNE01.JPG,AFNE01.JPG,AFNE01.JPG,AFNE01.JPG,2,8,28,5,,,,,,,,,,,,,,,,,,,,,,,AFSA06.jpg,AFNE06.jpg,AFSA14.jpg,AFNE14.jpg,AFNE14.jpg,FN,3,num_4,16,num_4,0.716763241217,,,2017_Nov_29_1822,60.0136281018,FEMA4ImagesEEG,001,102451,
AFNE01.JPG,AFNE01.JPG,AFNE01.JPG,AFNE01.JPG,AFNE01.JPG,AFNE01.JPG,2,9,29,6,,,,,,,,,,,,,,,,,,,,,,,AFSA07.jpg,AFNE13.jpg,AFSA14.jpg,AFNE17.jpg,AFSA14.jpg,FS,4,num_2,32,num_8,1.05007283983,,,2017_Nov_29_1822,60.0136281018,FEMA4ImagesEEG,001,102451,
AFNE01.JPG,AFNE01.JPG,AFNE01.JPG,AFNE01.JPG,AFNE01.JPG,AFNE01.JPG,3,0,30,1,,,,,,,,,,,,,,,,,,,,,,,AFSA11.jpg,AFNE07.jpg,AFNE02.jpg,AFSA01.jpg,AFNE02.jpg,FN,3,num_2,32,num_4,1.31674662698,,,2017_Nov_29_1822,60.0136281018,FEMA4ImagesEEG,001,102451,
AFNE01.JPG,AFNE01.JPG,AFNE01.JPG,AFNE01.JPG,AFNE01.JPG,AFNE01.JPG,3,1,31,4,,,,,,,,,,,,,,,,,,,,,,,AFNE03.jpg,AFSA08.jpg,AFNE15.jpg,AFSA03.jpg,AFSA03.jpg,FS,4,num_4,16,num_4,0.983510798309,,,2017_Nov_29_1822,60.0136281018,FEMA4ImagesEEG,001,102451,
AFNE01.JPG,AFNE01.JPG,AFNE01.JPG,AFNE01.JPG,AFNE01.JPG,AFNE01.JPG,3,2,32,8,,,,,,,,,,,,,,,,,,,,,,,AFNE01.jpg,AFNE13.jpg,AFSA04.jpg,AFSA16.jpg,AFSA04.jpg,FS,4,num_2,16,num_2,0.883454925613,,,2017_Nov_29_1822,60.0136281018,FEMA4ImagesEEG,001,102451,
AFNE01.JPG,AFNE01.JPG,AFNE01.JPG,AFNE01.JPG,AFNE01.JPG,AFNE01.JPG,3,3,33,0,,,,,,,,,,,,,,,,,,,,,,,AFSA13.jpg,AFNE04.jpg,AFNE01.jpg,AFSA14.jpg,AFNE01.jpg,FN,3,num_2,32,num_4,1.05018477782,,,2017_Nov_29_1822,60.0136281018,FEMA4ImagesEEG,001,102451,
AFNE01.JPG,AFNE01.JPG,AFNE01.JPG,AFNE01.JPG,AFNE01.JPG,AFNE01.JPG,3,4,34,3,,,,,,,,,,,,,,,,,,,,,,,AFSA01.jpg,AFNE08.jpg,AFNE01.jpg,AFSA14.jpg,AFNE08.jpg,FN,3,num_6,16,num_6,2.03332063206,,,2017_Nov_29_1822,60.0136281018,FEMA4ImagesEEG,001,102451,
AFNE01.JPG,AFNE01.JPG,AFNE01.JPG,AFNE01.JPG,AFNE01.JPG,AFNE01.JPG,3,5,35,6,,,,,,,,,,,,,,,,,,,,,,,AFNE10.jpg,AFSA05.jpg,AFNE16.jpg,AFSA15.jpg,AFSA05.jpg,FS,4,num_6,32,num_2,2.31666066882,,,2017_Nov_29_1822,60.0136281018,FEMA4ImagesEEG,001,102451,
AFNE01.JPG,AFNE01.JPG,AFNE01.JPG,AFNE01.JPG,AFNE01.JPG,AFNE01.JPG,3,6,36,7,,,,,,,,,,,,,,,,,,,,,,,AFSA15.jpg,AFNE11.jpg,AFSA10.jpg,AFNE04.jpg,AFSA10.jpg,FS,4,num_2,16,num_2,1.03350666084,,,2017_Nov_29_1822,60.0136281018,FEMA4ImagesEEG,001,102451,
AFNE01.JPG,AFNE01.JPG,AFNE01.JPG,AFNE01.JPG,AFNE01.JPG,AFNE01.JPG,3,7,37,2,,,,,,,,,,,,,,,,,,,,,,,AFNE17.jpg,AFSA03.jpg,AFSA15.jpg,AFNE15.jpg,AFSA03.jpg,FS,4,num_6,16,num_6,1.63339639059,,,2017_Nov_29_1822,60.0136281018,FEMA4ImagesEEG,001,102451,
AFNE01.JPG,AFNE01.JPG,AFNE01.JPG,AFNE01.JPG,AFNE01.JPG,AFNE01.JPG,3,8,38,9,,,,,,,,,,,,,,,,,,,,,,,AFSA08.jpg,AFNE05.jpg,AFSA18.jpg,AFNE02.jpg,AFSA18.jpg,FS,4,num_2,32,num_8,1.16676320916,,,2017_Nov_29_1822,60.0136281018,FEMA4ImagesEEG,001,102451,
AFNE01.JPG,AFNE01.JPG,AFNE01.JPG,AFNE01.JPG,AFNE01.JPG,AFNE01.JPG,3,9,39,5,,,,,,,,,,,,,,,,,,,,,,,AFSA18.jpg,AFNE07.jpg,AFNE12.jpg,AFSA17.jpg,AFSA18.jpg,FS,4,num_8,32,num_4,0.833496910287,,,2017_Nov_29_1822,60.0136281018,FEMA4ImagesEEG,001,102451,
AFNE01.JPG,AFNE01.JPG,AFNE01.JPG,AFNE01.JPG,AFNE01.JPG,AFNE01.JPG,4,0,40,9,,,,,,,,,,,,,,,,,,,,,,,AFSA20.jpg,AFNE18.jpg,AFSA01.jpg,AFNE04.jpg,AFNE18.jpg,FN,3,num_6,32,num_8,1.08344350732,,,2017_Nov_29_1822,60.0136281018,FEMA4ImagesEEG,001,102451,
AFNE01.JPG,AFNE01.JPG,AFNE01.JPG,AFNE01.JPG,AFNE01.JPG,AFNE01.JPG,4,1,41,1,,,,,,,,,,,,,,,,,,,,,,,AFSA08.jpg,AFNE07.jpg,AFNE19.jpg,AFSA07.jpg,AFNE19.jpg,FN,3,num_2,32,num_8,1.316649443,,,2017_Nov_29_1822,60.0136281018,FEMA4ImagesEEG,001,102451,
AFNE01.JPG,AFNE01.JPG,AFNE01.JPG,AFNE01.JPG,AFNE01.JPG,AFNE01.JPG,4,2,42,4,,,,,,,,,,,,,,,,,,,,,,,AFSA12.jpg,AFSA10.jpg,AFNE16.jpg,AFNE18.jpg,AFSA10.jpg,FS,4,num_6,16,num_6,0.483787596226,,,2017_Nov_29_1822,60.0136281018,FEMA4ImagesEEG,001,102451,
AFNE01.JPG,AFNE01.JPG,AFNE01.JPG,AFNE01.JPG,AFNE01.JPG,AFNE01.JPG,4,3,43,2,,,,,,,,,,,,,,,,,,,,,,,AFNE09.jpg,AFSA18.jpg,AFSA05.jpg,AFNE05.jpg,AFNE09.jpg,FN,3,num_8,16,num_8,1.48348385631,,,2017_Nov_29_1822,60.0136281018,FEMA4ImagesEEG,001,102451,
AFNE01.JPG,AFNE01.JPG,AFNE01.JPG,AFNE01.JPG,AFNE01.JPG,AFNE01.JPG,4,4,44,3,,,,,,,,,,,,,,,,,,,,,,,AFSA01.jpg,AFSA07.jpg,AFNE15.jpg,AFNE18.jpg,AFSA07.jpg,FS,4,num_6,16,num_6,1.38347769808,,,2017_Nov_29_1822,60.0136281018,FEMA4ImagesEEG,001,102451,
AFNE01.JPG,AFNE01.JPG,AFNE01.JPG,AFNE01.JPG,AFNE01.JPG,AFNE01.JPG,4,5,45,5,,,,,,,,,,,,,,,,,,,,,,,AFSA17.jpg,AFNE13.jpg,AFSA16.jpg,AFNE03.jpg,AFNE13.jpg,FN,3,num_6,32,num_8,2.13335758122,,,2017_Nov_29_1822,60.0136281018,FEMA4ImagesEEG,001,102451,
AFNE01.JPG,AFNE01.JPG,AFNE01.JPG,AFNE01.JPG,AFNE01.JPG,AFNE01.JPG,4,6,46,6,,,,,,,,,,,,,,,,,,,,,,,AFNE15.jpg,AFSA15.jpg,AFNE16.jpg,AFSA04.jpg,AFNE16.jpg,FN,3,num_2,16,num_2,1.16675454914,,,2017_Nov_29_1822,60.0136281018,FEMA4ImagesEEG,001,102451,
AFNE01.JPG,AFNE01.JPG,AFNE01.JPG,AFNE01.JPG,AFNE01.JPG,AFNE01.JPG,4,7,47,8,,,,,,,,,,,,,,,,,,,,,,,AFNE07.jpg,AFSA15.jpg,AFSA07.jpg,AFNE06.jpg,AFNE06.jpg,FN,3,num_4,16,num_4,0.700302264537,,,2017_Nov_29_1822,60.0136281018,FEMA4ImagesEEG,001,102451,
AFNE01.JPG,AFNE01.JPG,AFNE01.JPG,AFNE01.JPG,AFNE01.JPG,AFNE01.JPG,4,8,48,0,,,,,,,,,,,,,,,,,,,,,,,AFSA18.jpg,AFNE07.jpg,AFSA01.jpg,AFNE01.jpg,AFNE01.jpg,FN,3,num_4,32,num_8,0.950154884951,,,2017_Nov_29_1822,60.0136281018,FEMA4ImagesEEG,001,102451,
AFNE01.JPG,AFNE01.JPG,AFNE01.JPG,AFNE01.JPG,AFNE01.JPG,AFNE01.JPG,4,9,49,7,,,,,,,,,,,,,,,,,,,,,,,AFNE01.jpg,AFSA18.jpg,AFSA01.jpg,AFNE06.jpg,AFSA18.jpg,FS,4,num_6,16,num_6,0.550124158151,,,2017_Nov_29_1822,60.0136281018,FEMA4ImagesEEG,001,102451,
AFNE01.JPG,AFNE01.JPG,AFNE01.JPG,AFNE01.JPG,AFNE01.JPG,AFNE01.JPG,5,0,50,5,,,,,,,,,,,,,,,,,,,,,,,AFNE03.jpg,AFSA01.jpg,AFNE11.jpg,AFSA02.jpg,AFSA02.jpg,FS,4,num_4,16,num_4,0.800141959102,,,2017_Nov_29_1822,60.0136281018,FEMA4ImagesEEG,001,102451,
AFNE01.JPG,AFNE01.JPG,AFNE01.JPG,AFNE01.JPG,AFNE01.JPG,AFNE01.JPG,5,1,51,7,,,,,,,,,,,,,,,,,,,,,,,AFNE07.jpg,AFNE04.jpg,AFSA10.jpg,AFSA17.jpg,AFSA10.jpg,FS,4,num_2,16,num_2,0.766782838386,,,2017_Nov_29_1822,60.0136281018,FEMA4ImagesEEG,001,102451,
AFNE01.JPG,AFNE01.JPG,AFNE01.JPG,AFNE01.JPG,AFNE01.JPG,AFNE01.JPG,5,2,52,3,,,,,,,,,,,,,,,,,,,,,,,AFSA12.jpg,AFNE15.jpg,AFNE04.jpg,AFSA20.jpg,AFNE04.jpg,FN,3,num_2,32,num_8,0.849903040449,,,2017_Nov_29_1822,60.0136281018,FEMA4ImagesEEG,001,102451,
AFNE01.JPG,AFNE01.JPG,AFNE01.JPG,AFNE01.JPG,AFNE01.JPG,AFNE01.JPG,5,3,53,8,,,,,,,,,,,,,,,,,,,,,,,AFSA05.jpg,AFNE08.jpg,AFSA15.jpg,AFNE04.jpg,AFNE04.jpg,FN,3,num_4,16,num_4,0.883378910366,,,2017_Nov_29_1822,60.0136281018,FEMA4ImagesEEG,001,102451,
AFNE01.JPG,AFNE01.JPG,AFNE01.JPG,AFNE01.JPG,AFNE01.JPG,AFNE01.JPG,5,4,54,6,,,,,,,,,,,,,,,,,,,,,,,AFSA14.jpg,AFNE18.jpg,AFSA04.jpg,AFNE19.jpg,AFSA04.jpg,FS,4,num_2,16,num_2,0.600160754519,,,2017_Nov_29_1822,60.0136281018,FEMA4ImagesEEG,001,102451,
AFNE01.JPG,AFNE01.JPG,AFNE01.JPG,AFNE01.JPG,AFNE01.JPG,AFNE01.JPG,5,5,55,2,,,,,,,,,,,,,,,,,,,,,,,AFNE15.jpg,AFSA10.jpg,AFSA11.jpg,AFNE08.jpg,AFNE15.jpg,FN,3,num_8,16,num_8,0.883511696476,,,2017_Nov_29_1822,60.0136281018,FEMA4ImagesEEG,001,102451,
AFNE01.JPG,AFNE01.JPG,AFNE01.JPG,AFNE01.JPG,AFNE01.JPG,AFNE01.JPG,5,6,56,1,,,,,,,,,,,,,,,,,,,,,,,AFNE10.jpg,AFNE15.jpg,AFSA07.jpg,AFSA08.jpg,AFSA08.jpg,FS,4,num_4,16,num_4,0.733455470763,,,2017_Nov_29_1822,60.0136281018,FEMA4ImagesEEG,001,102451,
AFNE01.JPG,AFNE01.JPG,AFNE01.JPG,AFNE01.JPG,AFNE01.JPG,AFNE01.JPG,5,7,57,0,,,,,,,,,,,,,,,,,,,,,,,AFNE05.jpg,AFSA09.jpg,AFSA15.jpg,AFNE03.jpg,AFSA15.jpg,FS,4,num_2,32,num_6,0.700156007544,,,2017_Nov_29_1822,60.0136281018,FEMA4ImagesEEG,001,102451,
AFNE01.JPG,AFNE01.JPG,AFNE01.JPG,AFNE01.JPG,AFNE01.JPG,AFNE01.JPG,5,8,58,9,,,,,,,,,,,,,,,,,,,,,,,AFNE17.jpg,AFNE13.jpg,AFSA09.jpg,AFSA11.jpg,AFNE13.jpg,FN,3,num_6,16,num_6,0.983475517016,,,2017_Nov_29_1822,60.0136281018,FEMA4ImagesEEG,001,102451,
AFNE01.JPG,AFNE01.JPG,AFNE01.JPG,AFNE01.JPG,AFNE01.JPG,AFNE01.JPG,5,9,59,4,,,,,,,,,,,,,,,,,,,,,,,AFNE07.jpg,AFNE01.jpg,AFSA16.jpg,AFSA13.jpg,AFSA13.jpg,FS,4,num_4,16,num_4,0.666814848199,,,2017_Nov_29_1822,60.0136281018,FEMA4ImagesEEG,001,102451,
,,,,,,,,,,,,,,,,,,,,,,,,,,,,,,,,,,,,,,,,,,,space,13.2156159572,2017_Nov_29_1822,60.0136281018,FEMA4ImagesEEG,001,102451,
AFNE01.JPG,AFNE01.JPG,AFNE01.JPG,AFNE01.JPG,AFNE01.JPG,AFNE01.JPG,,,,,0,0,0,7,,,,,,,,,,,,,,,,,,,AMSA11.jpg,AMNE05.jpg,AMNE02.jpg,AMSA15.jpg,AMNE02.jpg,MN,1,num_2,32,num_8,1.00014337047,,,2017_Nov_29_1822,60.0136281018,FEMA4ImagesEEG,001,102451,
AFNE01.JPG,AFNE01.JPG,AFNE01.JPG,AFNE01.JPG,AFNE01.JPG,AFNE01.JPG,,,,,0,1,1,1,,,,,,,,,,,,,,,,,,,AMSA18.jpg,AMNE16.jpg,AMSA10.jpg,AMNE06.jpg,AMSA18.jpg,MS,2,num_8,16,num_8,0.916823668522,,,2017_Nov_29_1822,60.0136281018,FEMA4ImagesEEG,001,102451,
AFNE01.JPG,AFNE01.JPG,AFNE01.JPG,AFNE01.JPG,AFNE01.JPG,AFNE01.JPG,,,,,0,2,2,8,,,,,,,,,,,,,,,,,,,AMSA18.jpg,AMSA01.jpg,AMNE02.jpg,AMNE12.jpg,AMSA18.jpg,MS,2,num_8,32,num_6,0.950165469316,,,2017_Nov_29_1822,60.0136281018,FEMA4ImagesEEG,001,102451,
AFNE01.JPG,AFNE01.JPG,AFNE01.JPG,AFNE01.JPG,AFNE01.JPG,AFNE01.JPG,,,,,0,3,3,6,,,,,,,,,,,,,,,,,,,AMNE10.jpg,AMSA20.jpg,AMSA04.jpg,AMNE15.jpg,AMSA20.jpg,MS,2,num_6,16,num_6,0.933480296051,,,2017_Nov_29_1822,60.0136281018,FEMA4ImagesEEG,001,102451,
AFNE01.JPG,AFNE01.JPG,AFNE01.JPG,AFNE01.JPG,AFNE01.JPG,AFNE01.JPG,,,,,0,4,4,0,,,,,,,,,,,,,,,,,,,AMSA08.jpg,AMNE12.jpg,AMNE20.jpg,AMSA18.jpg,AMSA18.jpg,MS,2,num_4,16,num_4,0.633480424411,,,2017_Nov_29_1822,60.0136281018,FEMA4ImagesEEG,001,102451,
AFNE01.JPG,AFNE01.JPG,AFNE01.JPG,AFNE01.JPG,AFNE01.JPG,AFNE01.JPG,,,,,0,5,5,2,,,,,,,,,,,,,,,,,,,AMSA12.jpg,AMNE12.jpg,AMNE05.jpg,AMSA16.jpg,AMNE12.jpg,MN,1,num_6,32,num_8,1.85012306762,,,2017_Nov_29_1822,60.0136281018,FEMA4ImagesEEG,001,102451,
AFNE01.JPG,AFNE01.JPG,AFNE01.JPG,AFNE01.JPG,AFNE01.JPG,AFNE01.JPG,,,,,0,6,6,9,,,,,,,,,,,,,,,,,,,AMSA09.jpg,AMSA15.jpg,AMNE11.jpg,AMNE10.jpg,AMNE11.jpg,MN,1,num_2,16,num_2,0.550284206984,,,2017_Nov_29_1822,60.0136281018,FEMA4ImagesEEG,001,102451,
AFNE01.JPG,AFNE01.JPG,AFNE01.JPG,AFNE01.JPG,AFNE01.JPG,AFNE01.JPG,,,,,0,7,7,4,,,,,,,,,,,,,,,,,,,AMNE12.jpg,AMSA14.jpg,AMNE01.jpg,AMSA20.jpg,AMNE01.jpg,MN,1,num_2,32,num_8,0.983434783062,,,2017_Nov_29_1822,60.0136281018,FEMA4ImagesEEG,001,102451,
AFNE01.JPG,AFNE01.JPG,AFNE01.JPG,AFNE01.JPG,AFNE01.JPG,AFNE01.JPG,,,,,0,8,8,3,,,,,,,,,,,,,,,,,,,AMNE20.jpg,AMSA09.jpg,AMSA11.jpg,AMNE10.jpg,AMSA11.jpg,MS,2,num_2,32,num_6,0.983446008991,,,2017_Nov_29_1822,60.0136281018,FEMA4ImagesEEG,001,102451,
AFNE01.JPG,AFNE01.JPG,AFNE01.JPG,AFNE01.JPG,AFNE01.JPG,AFNE01.JPG,,,,,0,9,9,5,,,,,,,,,,,,,,,,,,,AMNE04.jpg,AMSA19.jpg,AMSA15.jpg,AMNE02.jpg,AMSA19.jpg,MS,2,num_6,32,num_8,1.13354970398,,,2017_Nov_29_1822,60.0136281018,FEMA4ImagesEEG,001,102451,
AFNE01.JPG,AFNE01.JPG,AFNE01.JPG,AFNE01.JPG,AFNE01.JPG,AFNE01.JPG,,,,,1,0,10,7,,,,,,,,,,,,,,,,,,,AMSA11.jpg,AMNE20.jpg,AMSA18.jpg,AMNE01.jpg,AMSA11.jpg,MS,2,num_8,16,num_8,0.966737742419,,,2017_Nov_29_1822,60.0136281018,FEMA4ImagesEEG,001,102451,
AFNE01.JPG,AFNE01.JPG,AFNE01.JPG,AFNE01.JPG,AFNE01.JPG,AFNE01.JPG,,,,,1,1,11,8,,,,,,,,,,,,,,,,,,,AMSA17.jpg,AMNE08.jpg,AMSA08.jpg,AMNE11.jpg,AMNE11.jpg,MN,1,num_4,32,num_8,1.30010186683,,,2017_Nov_29_1822,60.0136281018,FEMA4ImagesEEG,001,102451,
AFNE01.JPG,AFNE01.JPG,AFNE01.JPG,AFNE01.JPG,AFNE01.JPG,AFNE01.JPG,,,,,1,2,12,4,,,,,,,,,,,,,,,,,,,AMNE08.jpg,AMSA17.jpg,AMNE05.jpg,AMSA11.jpg,AMNE08.jpg,MN,1,num_8,16,num_8,0.883471924695,,,2017_Nov_29_1822,60.0136281018,FEMA4ImagesEEG,001,102451,
AFNE01.JPG,AFNE01.JPG,AFNE01.JPG,AFNE01.JPG,AFNE01.JPG,AFNE01.JPG,,,,,1,3,13,5,,,,,,,,,,,,,,,,,,,AMSA18.jpg,AMNE05.jpg,AMNE08.jpg,AMSA15.jpg,AMSA15.jpg,MS,2,num_4,32,num_8,1.01693951956,,,2017_Nov_29_1822,60.0136281018,FEMA4ImagesEEG,001,102451,
AFNE01.JPG,AFNE01.JPG,AFNE01.JPG,AFNE01.JPG,AFNE01.JPG,AFNE01.JPG,,,,,1,4,14,6,,,,,,,,,,,,,,,,,,,AMSA11.jpg,AMSA09.jpg,AMNE13.jpg,AMNE14.jpg,AMSA11.jpg,MS,2,num_8,16,num_8,1.3667533946,,,2017_Nov_29_1822,60.0136281018,FEMA4ImagesEEG,001,102451,
AFNE01.JPG,AFNE01.JPG,AFNE01.JPG,AFNE01.JPG,AFNE01.JPG,AFNE01.JPG,,,,,1,5,15,0,,,,,,,,,,,,,,,,,,,AMSA03.jpg,AMNE15.jpg,AMNE05.jpg,AMSA01.jpg,AMNE05.jpg,MN,1,num_2,32,num_6,0.783737111953,,,2017_Nov_29_1822,60.0136281018,FEMA4ImagesEEG,001,102451,
AFNE01.JPG,AFNE01.JPG,AFNE01.JPG,AFNE01.JPG,AFNE01.JPG,AFNE01.JPG,,,,,1,6,16,1,,,,,,,,,,,,,,,,,,,AMNE07.jpg,AMSA15.jpg,AMNE03.jpg,AMSA05.jpg,AMNE07.jpg,MN,1,num_8,16,num_8,1.11680134502,,,2017_Nov_29_1822,60.0136281018,FEMA4ImagesEEG,001,102451,
AFNE01.JPG,AFNE01.JPG,AFNE01.JPG,AFNE01.JPG,AFNE01.JPG,AFNE01.JPG,,,,,1,7,17,9,,,,,,,,,,,,,,,,,,,AMNE15.jpg,AMNE07.jpg,AMSA01.jpg,AMSA13.jpg,AMSA13.jpg,MS,2,num_4,16,num_4,0.7334705455,,,2017_Nov_29_1822,60.0136281018,FEMA4ImagesEEG,001,102451,
AFNE01.JPG,AFNE01.JPG,AFNE01.JPG,AFNE01.JPG,AFNE01.JPG,AFNE01.JPG,,,,,1,8,18,2,,,,,,,,,,,,,,,,,,,AMNE10.jpg,AMSA03.jpg,AMNE03.jpg,AMSA15.jpg,AMSA03.jpg,MS,2,num_6,16,num_6,0.666818055557,,,2017_Nov_29_1822,60.0136281018,FEMA4ImagesEEG,001,102451,
AFNE01.JPG,AFNE01.JPG,AFNE01.JPG,AFNE01.JPG,AFNE01.JPG,AFNE01.JPG,,,,,1,9,19,3,,,,,,,,,,,,,,,,,,,AMSA08.jpg,AMSA04.jpg,AMNE13.jpg,AMNE15.jpg,AMNE15.jpg,MN,1,num_4,16,num_4,1.00019404723,,,2017_Nov_29_1822,60.0136281018,FEMA4ImagesEEG,001,102451,
AFNE01.JPG,AFNE01.JPG,AFNE01.JPG,AFNE01.JPG,AFNE01.JPG,AFNE01.JPG,,,,,2,0,20,5,,,,,,,,,,,,,,,,,,,AMSA20.jpg,AMNE05.jpg,AMNE06.jpg,AMSA04.jpg,AMNE06.jpg,MN,1,num_2,32,num_8,1.13343520008,,,2017_Nov_29_1822,60.0136281018,FEMA4ImagesEEG,001,102451,
AFNE01.JPG,AFNE01.JPG,AFNE01.JPG,AFNE01.JPG,AFNE01.JPG,AFNE01.JPG,,,,,2,1,21,2,,,,,,,,,,,,,,,,,,,AMNE13.jpg,AMNE02.jpg,AMSA10.jpg,AMSA19.jpg,AMNE13.jpg,MN,1,num_8,32,num_2,1.25009606138,,,2017_Nov_29_1822,60.0136281018,FEMA4ImagesEEG,001,102451,
AFNE01.JPG,AFNE01.JPG,AFNE01.JPG,AFNE01.JPG,AFNE01.JPG,AFNE01.JPG,,,,,2,2,22,1,,,,,,,,,,,,,,,,,,,AMNE14.jpg,AMSA11.jpg,AMSA12.jpg,AMNE02.jpg,AMSA12.jpg,MS,2,num_2,16,num_2,1.1667465308,,,2017_Nov_29_1822,60.0136281018,FEMA4ImagesEEG,001,102451,
AFNE01.JPG,AFNE01.JPG,AFNE01.JPG,AFNE01.JPG,AFNE01.JPG,AFNE01.JPG,,,,,2,3,23,0,,,,,,,,,,,,,,,,,,,AMNE04.jpg,AMSA16.jpg,AMSA04.jpg,AMNE05.jpg,AMNE04.jpg,MN,1,num_8,16,num_8,0.800067547592,,,2017_Nov_29_1822,60.0136281018,FEMA4ImagesEEG,001,102451,
AFNE01.JPG,AFNE01.JPG,AFNE01.JPG,AFNE01.JPG,AFNE01.JPG,AFNE01.JPG,,,,,2,4,24,3,,,,,,,,,,,,,,,,,,,AMSA06.jpg,AMNE06.jpg,AMNE02.jpg,AMSA19.jpg,AMNE06.jpg,MN,1,num_6,16,num_6,1.20011174551,,,2017_Nov_29_1822,60.0136281018,FEMA4ImagesEEG,001,102451,
AFNE01.JPG,AFNE01.JPG,AFNE01.JPG,AFNE01.JPG,AFNE01.JPG,AFNE01.JPG,,,,,2,5,25,6,,,,,,,,,,,,,,,,,,,AMNE18.jpg,AMSA05.jpg,AMSA08.jpg,AMNE19.jpg,AMNE19.jpg,MN,1,num_4,32,num_8,0.866776166949,,,2017_Nov_29_1822,60.0136281018,FEMA4ImagesEEG,001,102451,
AFNE01.JPG,AFNE01.JPG,AFNE01.JPG,AFNE01.JPG,AFNE01.JPG,AFNE01.JPG,,,,,2,6,26,7,,,,,,,,,,,,,,,,,,,AMNE16.jpg,AMNE12.jpg,AMSA17.jpg,AMSA04.jpg,AMSA04.jpg,MS,2,num_4,16,num_4,1.06676282431,,,2017_Nov_29_1822,60.0136281018,FEMA4ImagesEEG,001,102451,
AFNE01.JPG,AFNE01.JPG,AFNE01.JPG,AFNE01.JPG,AFNE01.JPG,AFNE01.JPG,,,,,2,7,27,4,,,,,,,,,,,,,,,,,,,AMSA17.jpg,AMNE04.jpg,AMNE07.jpg,AMSA11.jpg,AMSA11.jpg,MS,2,num_4,16,num_4,0.800113413366,,,2017_Nov_29_1822,60.0136281018,FEMA4ImagesEEG,001,102451,
AFNE01.JPG,AFNE01.JPG,AFNE01.JPG,AFNE01.JPG,AFNE01.JPG,AFNE01.JPG,,,,,2,8,28,9,,,,,,,,,,,,,,,,,,,AMSA03.jpg,AMNE01.jpg,AMNE12.jpg,AMSA20.jpg,AMSA03.jpg,MS,2,num_8,16,num_8,0.666806508903,,,2017_Nov_29_1822,60.0136281018,FEMA4ImagesEEG,001,102451,
AFNE01.JPG,AFNE01.JPG,AFNE01.JPG,AFNE01.JPG,AFNE01.JPG,AFNE01.JPG,,,,,2,9,29,8,,,,,,,,,,,,,,,,,,,AMSA12.jpg,AMSA17.jpg,AMNE12.jpg,AMNE05.jpg,AMSA17.jpg,MS,2,num_6,16,num_6,0.633486197563,,,2017_Nov_29_1822,60.0136281018,FEMA4ImagesEEG,001,102451,
AFNE01.JPG,AFNE01.JPG,AFNE01.JPG,AFNE01.JPG,AFNE01.JPG,AFNE01.JPG,,,,,3,0,30,2,,,,,,,,,,,,,,,,,,,AMSA12.jpg,AMNE19.jpg,AMSA06.jpg,AMNE04.jpg,AMNE19.jpg,MN,1,num_6,16,num_6,0.716788579593,,,2017_Nov_29_1822,60.0136281018,FEMA4ImagesEEG,001,102451,
AFNE01.JPG,AFNE01.JPG,AFNE01.JPG,AFNE01.JPG,AFNE01.JPG,AFNE01.JPG,,,,,3,1,31,6,,,,,,,,,,,,,,,,,,,AMSA14.jpg,AMSA10.jpg,AMNE20.jpg,AMNE09.jpg,AMSA10.jpg,MS,2,num_6,16,num_6,0.883189032786,,,2017_Nov_29_1822,60.0136281018,FEMA4ImagesEEG,001,102451,
AFNE01.JPG,AFNE01.JPG,AFNE01.JPG,AFNE01.JPG,AFNE01.JPG,AFNE01.JPG,,,,,3,2,32,7,,,,,,,,,,,,,,,,,,,AMNE19.jpg,AMSA20.jpg,AMNE11.jpg,AMSA16.jpg,AMSA20.jpg,MS,2,num_6,16,num_6,0.566786559066,,,2017_Nov_29_1822,60.0136281018,FEMA4ImagesEEG,001,102451,
AFNE01.JPG,AFNE01.JPG,AFNE01.JPG,AFNE01.JPG,AFNE01.JPG,AFNE01.JPG,,,,,3,3,33,8,,,,,,,,,,,,,,,,,,,AMSA19.jpg,AMNE16.jpg,AMNE10.jpg,AMSA15.jpg,AMSA15.jpg,MS,2,num_4,16,num_4,0.483542872244,,,2017_Nov_29_1822,60.0136281018,FEMA4ImagesEEG,001,102451,
AFNE01.JPG,AFNE01.JPG,AFNE01.JPG,AFNE01.JPG,AFNE01.JPG,AFNE01.JPG,,,,,3,4,34,5,,,,,,,,,,,,,,,,,,,AMSA20.jpg,AMSA03.jpg,AMNE11.jpg,AMNE01.jpg,AMSA03.jpg,MS,2,num_6,16,num_6,0.633479782846,,,2017_Nov_29_1822,60.0136281018,FEMA4ImagesEEG,001,102451,
AFNE01.JPG,AFNE01.JPG,AFNE01.JPG,AFNE01.JPG,AFNE01.JPG,AFNE01.JPG,,,,,3,5,35,3,,,,,,,,,,,,,,,,,,,AMSA01.jpg,AMNE10.jpg,AMNE19.jpg,AMSA02.jpg,AMNE10.jpg,MN,1,num_6,16,num_6,0.500140163,,,2017_Nov_29_1822,60.0136281018,FEMA4ImagesEEG,001,102451,
AFNE01.JPG,AFNE01.JPG,AFNE01.JPG,AFNE01.JPG,AFNE01.JPG,AFNE01.JPG,,,,,3,6,36,0,,,,,,,,,,,,,,,,,,,AMNE12.jpg,AMNE20.jpg,AMSA06.jpg,AMSA12.jpg,AMSA12.jpg,MS,2,num_4,16,num_4,0.816755607608,,,2017_Nov_29_1822,60.0136281018,FEMA4ImagesEEG,001,102451,
AFNE01.JPG,AFNE01.JPG,AFNE01.JPG,AFNE01.JPG,AFNE01.JPG,AFNE01.JPG,,,,,3,7,37,4,,,,,,,,,,,,,,,,,,,AMNE14.jpg,AMSA02.jpg,AMNE01.jpg,AMSA17.jpg,AMSA02.jpg,MS,2,num_6,16,num_6,0.600111360662,,,2017_Nov_29_1822,60.0136281018,FEMA4ImagesEEG,001,102451,
AFNE01.JPG,AFNE01.JPG,AFNE01.JPG,AFNE01.JPG,AFNE01.JPG,AFNE01.JPG,,,,,3,8,38,9,,,,,,,,,,,,,,,,,,,AMNE07.jpg,AMNE12.jpg,AMSA20.jpg,AMSA06.jpg,AMNE12.jpg,MN,1,num_6,16,num_6,0.666584557504,,,2017_Nov_29_1822,60.0136281018,FEMA4ImagesEEG,001,102451,
AFNE01.JPG,AFNE01.JPG,AFNE01.JPG,AFNE01.JPG,AFNE01.JPG,AFNE01.JPG,,,,,3,9,39,1,,,,,,,,,,,,,,,,,,,AMNE10.jpg,AMSA03.jpg,AMNE11.jpg,AMSA15.jpg,AMNE11.jpg,MN,1,num_2,32,num_8,1.16672824859,,,2017_Nov_29_1822,60.0136281018,FEMA4ImagesEEG,001,102451,
AFNE01.JPG,AFNE01.JPG,AFNE01.JPG,AFNE01.JPG,AFNE01.JPG,AFNE01.JPG,,,,,4,0,40,9,,,,,,,,,,,,,,,,,,,AMNE11.jpg,AMSA07.jpg,AMSA03.jpg,AMNE14.jpg,AMSA03.jpg,MS,2,num_2,16,num_2,1.58339667937,,,2017_Nov_29_1822,60.0136281018,FEMA4ImagesEEG,001,102451,
AFNE01.JPG,AFNE01.JPG,AFNE01.JPG,AFNE01.JPG,AFNE01.JPG,AFNE01.JPG,,,,,4,1,41,2,,,,,,,,,,,,,,,,,,,AMSA14.jpg,AMSA06.jpg,AMNE04.jpg,AMNE06.jpg,AMNE06.jpg,MN,1,num_4,16,num_4,0.833460346097,,,2017_Nov_29_1822,60.0136281018,FEMA4ImagesEEG,001,102451,
AFNE01.JPG,AFNE01.JPG,AFNE01.JPG,AFNE01.JPG,AFNE01.JPG,AFNE01.JPG,,,,,4,2,42,3,,,,,,,,,,,,,,,,,,,AMNE04.jpg,AMSA19.jpg,AMNE01.jpg,AMSA03.jpg,AMSA19.jpg,MS,2,num_6,16,num_6,0.883482188336,,,2017_Nov_29_1822,60.0136281018,FEMA4ImagesEEG,001,102451,
AFNE01.JPG,AFNE01.JPG,AFNE01.JPG,AFNE01.JPG,AFNE01.JPG,AFNE01.JPG,,,,,4,3,43,5,,,,,,,,,,,,,,,,,,,AMNE19.jpg,AMNE01.jpg,AMSA04.jpg,AMSA10.jpg,AMNE01.jpg,MN,1,num_6,16,num_6,1.03348741645,,,2017_Nov_29_1822,60.0136281018,FEMA4ImagesEEG,001,102451,
AFNE01.JPG,AFNE01.JPG,AFNE01.JPG,AFNE01.JPG,AFNE01.JPG,AFNE01.JPG,,,,,4,4,44,1,,,,,,,,,,,,,,,,,,,AMSA15.jpg,AMNE01.jpg,AMNE17.jpg,AMSA20.jpg,AMSA20.jpg,MS,2,num_4,32,num_8,0.983446329716,,,2017_Nov_29_1822,60.0136281018,FEMA4ImagesEEG,001,102451,
AFNE01.JPG,AFNE01.JPG,AFNE01.JPG,AFNE01.JPG,AFNE01.JPG,AFNE01.JPG,,,,,4,5,45,8,,,,,,,,,,,,,,,,,,,AMNE08.jpg,AMNE20.jpg,AMSA11.jpg,AMSA04.jpg,AMNE08.jpg,MN,1,num_8,32,num_6,1.08346756268,,,2017_Nov_29_1822,60.0136281018,FEMA4ImagesEEG,001,102451,
AFNE01.JPG,AFNE01.JPG,AFNE01.JPG,AFNE01.JPG,AFNE01.JPG,AFNE01.JPG,,,,,4,6,46,4,,,,,,,,,,,,,,,,,,,AMNE06.jpg,AMSA03.jpg,AMNE03.jpg,AMSA17.jpg,AMSA17.jpg,MS,2,num_4,16,num_4,0.750074251206,,,2017_Nov_29_1822,60.0136281018,FEMA4ImagesEEG,001,102451,
AFNE01.JPG,AFNE01.JPG,AFNE01.JPG,AFNE01.JPG,AFNE01.JPG,AFNE01.JPG,,,,,4,7,47,0,,,,,,,,,,,,,,,,,,,AMSA13.jpg,AMNE17.jpg,AMSA15.jpg,AMNE16.jpg,AMNE16.jpg,MN,1,num_4,16,num_4,0.833500438486,,,2017_Nov_29_1822,60.0136281018,FEMA4ImagesEEG,001,102451,
AFNE01.JPG,AFNE01.JPG,AFNE01.JPG,AFNE01.JPG,AFNE01.JPG,AFNE01.JPG,,,,,4,8,48,6,,,,,,,,,,,,,,,,,,,AMSA11.jpg,AMSA07.jpg,AMNE08.jpg,AMNE16.jpg,AMNE16.jpg,MN,1,num_4,16,num_4,0.68374250026,,,2017_Nov_29_1822,60.0136281018,FEMA4ImagesEEG,001,102451,
AFNE01.JPG,AFNE01.JPG,AFNE01.JPG,AFNE01.JPG,AFNE01.JPG,AFNE01.JPG,,,,,4,9,49,7,,,,,,,,,,,,,,,,,,,AMSA06.jpg,AMNE12.jpg,AMNE09.jpg,AMSA10.jpg,AMSA10.jpg,MS,2,num_4,16,num_4,0.783411561511,,,2017_Nov_29_1822,60.0136281018,FEMA4ImagesEEG,001,102451,
AFNE01.JPG,AFNE01.JPG,AFNE01.JPG,AFNE01.JPG,AFNE01.JPG,AFNE01.JPG,,,,,5,0,50,7,,,,,,,,,,,,,,,,,,,AMNE13.jpg,AMNE06.jpg,AMSA20.jpg,AMSA19.jpg,AMNE06.jpg,MN,1,num_6,16,num_6,0.633641114691,,,2017_Nov_29_1822,60.0136281018,FEMA4ImagesEEG,001,102451,
AFNE01.JPG,AFNE01.JPG,AFNE01.JPG,AFNE01.JPG,AFNE01.JPG,AFNE01.JPG,,,,,5,1,51,9,,,,,,,,,,,,,,,,,,,AMNE04.jpg,AMNE05.jpg,AMSA15.jpg,AMSA12.jpg,AMNE05.jpg,MN,1,num_6,32,num_8,1.25007072301,,,2017_Nov_29_1822,60.0136281018,FEMA4ImagesEEG,001,102451,
AFNE01.JPG,AFNE01.JPG,AFNE01.JPG,AFNE01.JPG,AFNE01.JPG,AFNE01.JPG,,,,,5,2,52,8,,,,,,,,,,,,,,,,,,,AMSA20.jpg,AMSA13.jpg,AMNE11.jpg,AMNE03.jpg,AMSA20.jpg,MS,2,num_8,32,num_4,1.73343686794,,,2017_Nov_29_1822,60.0136281018,FEMA4ImagesEEG,001,102451,
AFNE01.JPG,AFNE01.JPG,AFNE01.JPG,AFNE01.JPG,AFNE01.JPG,AFNE01.JPG,,,,,5,3,53,1,,,,,,,,,,,,,,,,,,,AMNE13.jpg,AMNE17.jpg,AMSA07.jpg,AMSA13.jpg,AMSA07.jpg,MS,2,num_2,16,num_2,1.35009516333,,,2017_Nov_29_1822,60.0136281018,FEMA4ImagesEEG,001,102451,
AFNE01.JPG,AFNE01.JPG,AFNE01.JPG,AFNE01.JPG,AFNE01.JPG,AFNE01.JPG,,,,,5,4,54,4,,,,,,,,,,,,,,,,,,,AMSA10.jpg,AMNE10.jpg,AMSA03.jpg,AMNE20.jpg,AMNE10.jpg,MN,1,num_6,16,num_6,0.533511792659,,,2017_Nov_29_1822,60.0136281018,FEMA4ImagesEEG,001,102451,
AFNE01.JPG,AFNE01.JPG,AFNE01.JPG,AFNE01.JPG,AFNE01.JPG,AFNE01.JPG,,,,,5,5,55,6,,,,,,,,,,,,,,,,,,,AMSA11.jpg,AMSA20.jpg,AMNE07.jpg,AMNE11.jpg,AMSA20.jpg,MS,2,num_6,32,num_8,1.00015587918,,,2017_Nov_29_1822,60.0136281018,FEMA4ImagesEEG,001,102451,
AFNE01.JPG,AFNE01.JPG,AFNE01.JPG,AFNE01.JPG,AFNE01.JPG,AFNE01.JPG,,,,,5,6,56,0,,,,,,,,,,,,,,,,,,,AMSA02.jpg,AMSA01.jpg,AMNE03.jpg,AMNE05.jpg,AMNE03.jpg,MN,1,num_2,32,num_6,0.466755383182,,,2017_Nov_29_1822,60.0136281018,FEMA4ImagesEEG,001,102451,
AFNE01.JPG,AFNE01.JPG,AFNE01.JPG,AFNE01.JPG,AFNE01.JPG,AFNE01.JPG,,,,,5,7,57,2,,,,,,,,,,,,,,,,,,,AMSA18.jpg,AMNE13.jpg,AMSA04.jpg,AMNE20.jpg,AMSA18.jpg,MS,2,num_8,16,num_8,1.38345877442,,,2017_Nov_29_1822,60.0136281018,FEMA4ImagesEEG,001,102451,
AFNE01.JPG,AFNE01.JPG,AFNE01.JPG,AFNE01.JPG,AFNE01.JPG,AFNE01.JPG,,,,,5,8,58,3,,,,,,,,,,,,,,,,,,,AMSA17.jpg,AMNE10.jpg,AMSA18.jpg,AMNE19.jpg,AMSA17.jpg,MS,2,num_8,16,num_8,0.716790183331,,,2017_Nov_29_1822,60.0136281018,FEMA4ImagesEEG,001,102451,
AFNE01.JPG,AFNE01.JPG,AFNE01.JPG,AFNE01.JPG,AFNE01.JPG,AFNE01.JPG,,,,,5,9,59,5,,,,,,,,,,,,,,,,,,,AMSA07.jpg,AMNE03.jpg,AMNE07.jpg,AMSA05.jpg,AMSA05.jpg,MS,2,num_4,32,num_8,1.4834569142,,,2017_Nov_29_1822,60.0136281018,FEMA4ImagesEEG,001,102451,
,,,,,,,,,,,,,,,,,,,,,,,,,,,,,,,,,,,,,,,,,,,space,7.81642813294,2017_Nov_29_1822,60.0136281018,FEMA4ImagesEEG,001,102451,
AFNE01.JPG,AFNE01.JPG,AFNE01.JPG,AFNE01.JPG,AFNE01.JPG,AFNE01.JPG,,,,,,,,,0,0,0,8,,,,,,,,,,,,,,,AFNE14.jpg,AFSA20.jpg,AFNE10.jpg,AFSA03.jpg,AFNE14.jpg,FN,3,num_8,16,num_8,1.98339918104,,,2017_Nov_29_1822,60.0136281018,FEMA4ImagesEEG,001,102451,
AFNE01.JPG,AFNE01.JPG,AFNE01.JPG,AFNE01.JPG,AFNE01.JPG,AFNE01.JPG,,,,,,,,,0,1,1,9,,,,,,,,,,,,,,,AFNE10.jpg,AFSA10.jpg,AFNE01.jpg,AFSA05.jpg,AFSA10.jpg,FS,4,num_6,32,num_4,0.800139072468,,,2017_Nov_29_1822,60.0136281018,FEMA4ImagesEEG,001,102451,
AFNE01.JPG,AFNE01.JPG,AFNE01.JPG,AFNE01.JPG,AFNE01.JPG,AFNE01.JPG,,,,,,,,,0,2,2,3,,,,,,,,,,,,,,,AFSA01.jpg,AFSA07.jpg,AFNE01.jpg,AFNE08.jpg,AFNE08.jpg,FN,3,num_4,32,num_8,0.833448478719,,,2017_Nov_29_1822,60.0136281018,FEMA4ImagesEEG,001,102451,
AFNE01.JPG,AFNE01.JPG,AFNE01.JPG,AFNE01.JPG,AFNE01.JPG,AFNE01.JPG,,,,,,,,,0,3,3,0,,,,,,,,,,,,,,,AFNE05.jpg,AFSA08.jpg,AFNE04.jpg,AFSA03.jpg,AFSA08.jpg,FS,4,num_6,16,num_6,0.733447131584,,,2017_Nov_29_1822,60.0136281018,FEMA4ImagesEEG,001,102451,
AFNE01.JPG,AFNE01.JPG,AFNE01.JPG,AFNE01.JPG,AFNE01.JPG,AFNE01.JPG,,,,,,,,,0,4,4,4,,,,,,,,,,,,,,,AFSA18.jpg,AFSA05.jpg,AFNE05.jpg,AFNE17.jpg,AFSA18.jpg,FS,4,num_8,32,num_4,1.10006613634,,,2017_Nov_29_1822,60.0136281018,FEMA4ImagesEEG,001,102451,
AFNE01.JPG,AFNE01.JPG,AFNE01.JPG,AFNE01.JPG,AFNE01.JPG,AFNE01.JPG,,,,,,,,,0,5,5,2,,,,,,,,,,,,,,,AFSA14.jpg,AFNE20.jpg,AFNE06.jpg,AFSA06.jpg,AFNE20.jpg,FN,3,num_6,16,num_6,0.78347699251,,,2017_Nov_29_1822,60.0136281018,FEMA4ImagesEEG,001,102451,
AFNE01.JPG,AFNE01.JPG,AFNE01.JPG,AFNE01.JPG,AFNE01.JPG,AFNE01.JPG,,,,,,,,,0,6,6,7,,,,,,,,,,,,,,,AFNE20.jpg,AFSA14.jpg,AFSA18.jpg,AFNE12.jpg,AFNE20.jpg,FN,3,num_8,32,num_4,0.700126178795,,,2017_Nov_29_1822,60.0136281018,FEMA4ImagesEEG,001,102451,
AFNE01.JPG,AFNE01.JPG,AFNE01.JPG,AFNE01.JPG,AFNE01.JPG,AFNE01.JPG,,,,,,,,,0,7,7,1,,,,,,,,,,,,,,,AFSA03.jpg,AFNE19.jpg,AFSA01.jpg,AFNE04.jpg,AFNE19.jpg,FN,3,num_6,32,num_2,0.833451686078,,,2017_Nov_29_1822,60.0136281018,FEMA4ImagesEEG,001,102451,
AFNE01.JPG,AFNE01.JPG,AFNE01.JPG,AFNE01.JPG,AFNE01.JPG,AFNE01.JPG,,,,,,,,,0,8,8,6,,,,,,,,,,,,,,,AFNE20.jpg,AFNE10.jpg,AFSA15.jpg,AFSA17.jpg,AFNE20.jpg,FN,3,num_8,32,num_6,0.933444694034,,,2017_Nov_29_1822,60.0136281018,FEMA4ImagesEEG,001,102451,
AFNE01.JPG,AFNE01.JPG,AFNE01.JPG,AFNE01.JPG,AFNE01.JPG,AFNE01.JPG,,,,,,,,,0,9,9,5,,,,,,,,,,,,,,,AFNE15.jpg,AFNE11.jpg,AFSA05.jpg,AFSA01.jpg,AFSA05.jpg,FS,4,num_2,32,num_6,0.95007854898,,,2017_Nov_29_1822,60.0136281018,FEMA4ImagesEEG,001,102451,
AFNE01.JPG,AFNE01.JPG,AFNE01.JPG,AFNE01.JPG,AFNE01.JPG,AFNE01.JPG,,,,,,,,,1,0,10,5,,,,,,,,,,,,,,,AFSA02.jpg,AFSA01.jpg,AFNE09.jpg,AFNE15.jpg,AFNE09.jpg,FN,3,num_2,16,num_2,1.43339626247,,,2017_Nov_29_1822,60.0136281018,FEMA4ImagesEEG,001,102451,
AFNE01.JPG,AFNE01.JPG,AFNE01.JPG,AFNE01.JPG,AFNE01.JPG,AFNE01.JPG,,,,,,,,,1,1,11,1,,,,,,,,,,,,,,,AFSA10.jpg,AFNE14.jpg,AFSA20.jpg,AFNE08.jpg,AFNE08.jpg,FN,3,num_4,16,num_4,0.583491938887,,,2017_Nov_29_1822,60.0136281018,FEMA4ImagesEEG,001,102451,
AFNE01.JPG,AFNE01.JPG,AFNE01.JPG,AFNE01.JPG,AFNE01.JPG,AFNE01.JPG,,,,,,,,,1,2,12,7,,,,,,,,,,,,,,,AFSA06.jpg,AFNE20.jpg,AFSA11.jpg,AFNE05.jpg,AFSA11.jpg,FS,4,num_2,16,num_2,0.666789188981,,,2017_Nov_29_1822,60.0136281018,FEMA4ImagesEEG,001,102451,
AFNE01.JPG,AFNE01.JPG,AFNE01.JPG,AFNE01.JPG,AFNE01.JPG,AFNE01.JPG,,,,,,,,,1,3,13,8,,,,,,,,,,,,,,,AFSA08.jpg,AFNE16.jpg,AFSA02.jpg,AFNE10.jpg,AFSA08.jpg,FS,4,num_8,32,num_4,1.41670467425,,,2017_Nov_29_1822,60.0136281018,FEMA4ImagesEEG,001,102451,
AFNE01.JPG,AFNE01.JPG,AFNE01.JPG,AFNE01.JPG,AFNE01.JPG,AFNE01.JPG,,,,,,,,,1,4,14,6,,,,,,,,,,,,,,,AFSA14.jpg,AFNE04.jpg,AFNE11.jpg,AFSA09.jpg,AFNE04.jpg,FN,3,num_6,16,num_6,0.666677892557,,,2017_Nov_29_1822,60.0136281018,FEMA4ImagesEEG,001,102451,
AFNE01.JPG,AFNE01.JPG,AFNE01.JPG,AFNE01.JPG,AFNE01.JPG,AFNE01.JPG,,,,,,,,,1,5,15,2,,,,,,,,,,,,,,,AFSA16.jpg,AFNE11.jpg,AFSA10.jpg,AFNE15.jpg,AFSA10.jpg,FS,4,num_2,16,num_2,0.533501849626,,,2017_Nov_29_1822,60.0136281018,FEMA4ImagesEEG,001,102451,
AFNE01.JPG,AFNE01.JPG,AFNE01.JPG,AFNE01.JPG,AFNE01.JPG,AFNE01.JPG,,,,,,,,,1,6,16,3,,,,,,,,,,,,,,,AFNE05.jpg,AFSA08.jpg,AFNE13.jpg,AFSA13.jpg,AFSA08.jpg,FS,4,num_6,16,num_6,1.38340521103,,,2017_Nov_29_1822,60.0136281018,FEMA4ImagesEEG,001,102451,
AFNE01.JPG,AFNE01.JPG,AFNE01.JPG,AFNE01.JPG,AFNE01.JPG,AFNE01.JPG,,,,,,,,,1,7,17,4,,,,,,,,,,,,,,,AFSA03.jpg,AFSA02.jpg,AFNE04.jpg,AFNE13.jpg,AFSA02.jpg,FS,4,num_6,32,num_2,0.899704855867,,,2017_Nov_29_1822,60.0136281018,FEMA4ImagesEEG,001,102451,
AFNE01.JPG,AFNE01.JPG,AFNE01.JPG,AFNE01.JPG,AFNE01.JPG,AFNE01.JPG,,,,,,,,,1,8,18,9,,,,,,,,,,,,,,,AFNE14.jpg,AFSA01.jpg,AFNE10.jpg,AFSA07.jpg,AFNE10.jpg,FN,3,num_2,16,num_2,0.766761348932,,,2017_Nov_29_1822,60.0136281018,FEMA4ImagesEEG,001,102451,
AFNE01.JPG,AFNE01.JPG,AFNE01.JPG,AFNE01.JPG,AFNE01.JPG,AFNE01.JPG,,,,,,,,,1,9,19,0,,,,,,,,,,,,,,,AFSA16.jpg,AFNE01.jpg,AFNE17.jpg,AFSA18.jpg,AFSA16.jpg,FS,4,num_8,16,num_8,2.30000949383,,,2017_Nov_29_1822,60.0136281018,FEMA4ImagesEEG,001,102451,
AFNE01.JPG,AFNE01.JPG,AFNE01.JPG,AFNE01.JPG,AFNE01.JPG,AFNE01.JPG,,,,,,,,,2,0,20,1,,,,,,,,,,,,,,,AFSA08.jpg,AFNE19.jpg,AFNE10.jpg,AFSA11.jpg,AFSA08.jpg,FS,4,num_8,32,num_6,0.867060341989,,,2017_Nov_29_1822,60.0136281018,FEMA4ImagesEEG,001,102451,
AFNE01.JPG,AFNE01.JPG,AFNE01.JPG,AFNE01.JPG,AFNE01.JPG,AFNE01.JPG,,,,,,,,,2,1,21,9,,,,,,,,,,,,,,,AFSA06.jpg,AFNE12.jpg,AFNE07.jpg,AFSA16.jpg,AFSA06.jpg,FS,4,num_8,16,num_8,0.76689445565,,,2017_Nov_29_1822,60.0136281018,FEMA4ImagesEEG,001,102451,
AFNE01.JPG,AFNE01.JPG,AFNE01.JPG,AFNE01.JPG,AFNE01.JPG,AFNE01.JPG,,,,,,,,,2,2,22,0,,,,,,,,,,,,,,,AFNE04.jpg,AFSA16.jpg,AFNE17.jpg,AFSA02.jpg,AFNE04.jpg,FN,3,num_8,16,num_8,0.750118513126,,,2017_Nov_29_1822,60.0136281018,FEMA4ImagesEEG,001,102451,
AFNE01.JPG,AFNE01.JPG,AFNE01.JPG,AFNE01.JPG,AFNE01.JPG,AFNE01.JPG,,,,,,,,,2,3,23,6,,,,,,,,,,,,,,,AFSA02.jpg,AFNE10.jpg,AFSA17.jpg,AFNE16.jpg,AFSA02.jpg,FS,4,num_8,32,num_6,0.933434109553,,,2017_Nov_29_1822,60.0136281018,FEMA4ImagesEEG,001,102451,
AFNE01.JPG,AFNE01.JPG,AFNE01.JPG,AFNE01.JPG,AFNE01.JPG,AFNE01.JPG,,,,,,,,,2,4,24,4,,,,,,,,,,,,,,,AFNE04.jpg,AFSA12.jpg,AFNE06.jpg,AFSA07.jpg,AFNE06.jpg,FN,3,num_2,32,num_8,1.38337858964,,,2017_Nov_29_1822,60.0136281018,FEMA4ImagesEEG,001,102451,
AFNE01.JPG,AFNE01.JPG,AFNE01.JPG,AFNE01.JPG,AFNE01.JPG,AFNE01.JPG,,,,,,,,,2,5,25,7,,,,,,,,,,,,,,,AFSA02.jpg,AFSA04.jpg,AFNE03.jpg,AFNE18.jpg,AFNE03.jpg,FN,3,num_2,32,num_4,1.20005176729,,,2017_Nov_29_1822,60.0136281018,FEMA4ImagesEEG,001,102451,
AFNE01.JPG,AFNE01.JPG,AFNE01.JPG,AFNE01.JPG,AFNE01.JPG,AFNE01.JPG,,,,,,,,,2,6,26,2,,,,,,,,,,,,,,,AFNE10.jpg,AFSA17.jpg,AFSA02.jpg,AFNE06.jpg,AFNE06.jpg,FN,3,num_4,16,num_4,0.783547875821,,,2017_Nov_29_1822,60.0136281018,FEMA4ImagesEEG,001,102451,
AFNE01.JPG,AFNE01.JPG,AFNE01.JPG,AFNE01.JPG,AFNE01.JPG,AFNE01.JPG,,,,,,,,,2,7,27,3,,,,,,,,,,,,,,,AFNE19.jpg,AFNE08.jpg,AFSA10.jpg,AFSA20.jpg,AFNE19.jpg,FN,3,num_8,16,num_8,0.816634047427,,,2017_Nov_29_1822,60.0136281018,FEMA4ImagesEEG,001,102451,
AFNE01.JPG,AFNE01.JPG,AFNE01.JPG,AFNE01.JPG,AFNE01.JPG,AFNE01.JPG,,,,,,,,,2,8,28,5,,,,,,,,,,,,,,,AFNE03.jpg,AFNE02.jpg,AFSA07.jpg,AFSA18.jpg,AFSA18.jpg,FS,4,num_4,16,num_4,1.14979770978,,,2017_Nov_29_1822,60.0136281018,FEMA4ImagesEEG,001,102451,
AFNE01.JPG,AFNE01.JPG,AFNE01.JPG,AFNE01.JPG,AFNE01.JPG,AFNE01.JPG,,,,,,,,,2,9,29,8,,,,,,,,,,,,,,,AFSA14.jpg,AFNE07.jpg,AFSA04.jpg,AFNE19.jpg,AFNE07.jpg,FN,3,num_6,16,num_6,0.450180864776,,,2017_Nov_29_1822,60.0136281018,FEMA4ImagesEEG,001,102451,
AFNE01.JPG,AFNE01.JPG,AFNE01.JPG,AFNE01.JPG,AFNE01.JPG,AFNE01.JPG,,,,,,,,,3,0,30,2,,,,,,,,,,,,,,,AFSA02.jpg,AFSA12.jpg,AFNE15.jpg,AFNE09.jpg,AFNE15.jpg,FN,3,num_2,16,num_2,0.58352465427,,,2017_Nov_29_1822,60.0136281018,FEMA4ImagesEEG,001,102451,
AFNE01.JPG,AFNE01.JPG,AFNE01.JPG,AFNE01.JPG,AFNE01.JPG,AFNE01.JPG,,,,,,,,,3,1,31,0,,,,,,,,,,,,,,,AFSA01.jpg,AFSA02.jpg,AFNE19.jpg,AFNE04.jpg,AFNE19.jpg,FN,3,num_2,16,num_2,0.833500117762,,,2017_Nov_29_1822,60.0136281018,FEMA4ImagesEEG,001,102451,
AFNE01.JPG,AFNE01.JPG,AFNE01.JPG,AFNE01.JPG,AFNE01.JPG,AFNE01.JPG,,,,,,,,,3,2,32,4,,,,,,,,,,,,,,,AFNE01.jpg,AFNE18.jpg,AFSA08.jpg,AFSA07.jpg,AFNE01.jpg,FN,3,num_8,32,num_6,0.966763722361,,,2017_Nov_29_1822,60.0136281018,FEMA4ImagesEEG,001,102451,
AFNE01.JPG,AFNE01.JPG,AFNE01.JPG,AFNE01.JPG,AFNE01.JPG,AFNE01.JPG,,,,,,,,,3,3,33,9,,,,,,,,,,,,,,,AFSA17.jpg,AFNE04.jpg,AFSA20.jpg,AFNE14.jpg,AFSA20.jpg,FS,4,num_2,32,num_8,1.1334743303,,,2017_Nov_29_1822,60.0136281018,FEMA4ImagesEEG,001,102451,
AFNE01.JPG,AFNE01.JPG,AFNE01.JPG,AFNE01.JPG,AFNE01.JPG,AFNE01.JPG,,,,,,,,,3,4,34,1,,,,,,,,,,,,,,,AFSA01.jpg,AFSA10.jpg,AFNE04.jpg,AFNE20.jpg,AFNE04.jpg,FN,3,num_2,16,num_2,0.61677119555,,,2017_Nov_29_1822,60.0136281018,FEMA4ImagesEEG,001,102451,
AFNE01.JPG,AFNE01.JPG,AFNE01.JPG,AFNE01.JPG,AFNE01.JPG,AFNE01.JPG,,,,,,,,,3,5,35,6,,,,,,,,,,,,,,,AFSA04.jpg,AFNE09.jpg,AFSA18.jpg,AFNE12.jpg,AFSA04.jpg,FS,4,num_8,32,num_6,0.883600220433,,,2017_Nov_29_1822,60.0136281018,FEMA4ImagesEEG,001,102451,
AFNE01.JPG,AFNE01.JPG,AFNE01.JPG,AFNE01.JPG,AFNE01.JPG,AFNE01.JPG,,,,,,,,,3,6,36,8,,,,,,,,,,,,,,,AFSA17.jpg,AFNE02.jpg,AFSA09.jpg,AFNE08.jpg,AFNE02.jpg,FN,3,num_6,16,num_6,0.566967135179,,,2017_Nov_29_1822,60.0136281018,FEMA4ImagesEEG,001,102451,
AFNE01.JPG,AFNE01.JPG,AFNE01.JPG,AFNE01.JPG,AFNE01.JPG,AFNE01.JPG,,,,,,,,,3,7,37,5,,,,,,,,,,,,,,,AFSA15.jpg,AFNE20.jpg,AFSA16.jpg,AFNE07.jpg,AFNE07.jpg,FN,3,num_4,16,num_4,1.15010048752,,,2017_Nov_29_1822,60.0136281018,FEMA4ImagesEEG,001,102451,
AFNE01.JPG,AFNE01.JPG,AFNE01.JPG,AFNE01.JPG,AFNE01.JPG,AFNE01.JPG,,,,,,,,,3,8,38,7,,,,,,,,,,,,,,,AFSA14.jpg,AFNE02.jpg,AFNE09.jpg,AFSA18.jpg,AFNE09.jpg,FN,3,num_2,32,num_6,1.03343032487,,,2017_Nov_29_1822,60.0136281018,FEMA4ImagesEEG,001,102451,
AFNE01.JPG,AFNE01.JPG,AFNE01.JPG,AFNE01.JPG,AFNE01.JPG,AFNE01.JPG,,,,,,,,,3,9,39,3,,,,,,,,,,,,,,,AFSA04.jpg,AFSA07.jpg,AFNE19.jpg,AFNE10.jpg,AFSA07.jpg,FS,4,num_6,16,num_6,0.933489597519,,,2017_Nov_29_1822,60.0136281018,FEMA4ImagesEEG,001,102451,
AFNE01.JPG,AFNE01.JPG,AFNE01.JPG,AFNE01.JPG,AFNE01.JPG,AFNE01.JPG,,,,,,,,,4,0,40,7,,,,,,,,,,,,,,,AFNE05.jpg,AFNE20.jpg,AFSA16.jpg,AFSA04.jpg,AFSA04.jpg,FS,4,num_4,32,num_8,1.06679970922,,,2017_Nov_29_1822,60.0136281018,FEMA4ImagesEEG,001,102451,
AFNE01.JPG,AFNE01.JPG,AFNE01.JPG,AFNE01.JPG,AFNE01.JPG,AFNE01.JPG,,,,,,,,,4,1,41,3,,,,,,,,,,,,,,,AFSA04.jpg,AFNE12.jpg,AFNE15.jpg,AFSA18.jpg,AFNE12.jpg,FN,3,num_6,16,num_6,0.76675172674,,,2017_Nov_29_1822,60.0136281018,FEMA4ImagesEEG,001,102451,
AFNE01.JPG,AFNE01.JPG,AFNE01.JPG,AFNE01.JPG,AFNE01.JPG,AFNE01.JPG,,,,,,,,,4,2,42,8,,,,,,,,,,,,,,,AFNE12.jpg,AFSA01.jpg,AFNE16.jpg,AFSA19.jpg,AFNE16.jpg,FN,3,num_2,32,num_6,1.06682793435,,,2017_Nov_29_1822,60.0136281018,FEMA4ImagesEEG,001,102451,
AFNE01.JPG,AFNE01.JPG,AFNE01.JPG,AFNE01.JPG,AFNE01.JPG,AFNE01.JPG,,,,,,,,,4,3,43,5,,,,,,,,,,,,,,,AFSA12.jpg,AFNE04.jpg,AFNE11.jpg,AFSA09.jpg,AFNE11.jpg,FN,3,num_2,32,num_6,0.950116075459,,,2017_Nov_29_1822,60.0136281018,FEMA4ImagesEEG,001,102451,
AFNE01.JPG,AFNE01.JPG,AFNE01.JPG,AFNE01.JPG,AFNE01.JPG,AFNE01.JPG,,,,,,,,,4,4,44,1,,,,,,,,,,,,,,,AFSA02.jpg,AFNE07.jpg,AFNE09.jpg,AFSA13.jpg,AFSA02.jpg,FS,4,num_8,32,num_4,0.916821423336,,,2017_Nov_29_1822,60.0136281018,FEMA4ImagesEEG,001,102451,
AFNE01.JPG,AFNE01.JPG,AFNE01.JPG,AFNE01.JPG,AFNE01.JPG,AFNE01.JPG,,,,,,,,,4,5,45,6,,,,,,,,,,,,,,,AFNE01.jpg,AFSA11.jpg,AFSA15.jpg,AFNE17.jpg,AFSA11.jpg,FS,4,num_6,16,num_6,0.933499219595,,,2017_Nov_29_1822,60.0136281018,FEMA4ImagesEEG,001,102451,
AFNE01.JPG,AFNE01.JPG,AFNE01.JPG,AFNE01.JPG,AFNE01.JPG,AFNE01.JPG,,,,,,,,,4,6,46,4,,,,,,,,,,,,,,,AFSA18.jpg,AFNE18.jpg,AFNE12.jpg,AFSA01.jpg,AFSA01.jpg,FS,4,num_4,32,num_6,0.983113723109,,,2017_Nov_29_1822,60.0136281018,FEMA4ImagesEEG,001,102451,
AFNE01.JPG,AFNE01.JPG,AFNE01.JPG,AFNE01.JPG,AFNE01.JPG,AFNE01.JPG,,,,,,,,,4,7,47,2,,,,,,,,,,,,,,,AFNE17.jpg,AFSA03.jpg,AFNE12.jpg,AFSA10.jpg,AFSA03.jpg,FS,4,num_6,16,num_6,0.716779278242,,,2017_Nov_29_1822,60.0136281018,FEMA4ImagesEEG,001,102451,
AFNE01.JPG,AFNE01.JPG,AFNE01.JPG,AFNE01.JPG,AFNE01.JPG,AFNE01.JPG,,,,,,,,,4,8,48,9,,,,,,,,,,,,,,,AFSA06.jpg,AFNE10.jpg,AFNE05.jpg,AFSA18.jpg,AFSA18.jpg,FS,4,num_4,16,num_4,0.866616118234,,,2017_Nov_29_1822,60.0136281018,FEMA4ImagesEEG,001,102451,
AFNE01.JPG,AFNE01.JPG,AFNE01.JPG,AFNE01.JPG,AFNE01.JPG,AFNE01.JPG,,,,,,,,,4,9,49,0,,,,,,,,,,,,,,,AFSA17.jpg,AFNE03.jpg,AFSA05.jpg,AFNE18.jpg,AFNE03.jpg,FN,3,num_6,32,num_8,1.51674258569,,,2017_Nov_29_1822,60.0136281018,FEMA4ImagesEEG,001,102451,
AFNE01.JPG,AFNE01.JPG,AFNE01.JPG,AFNE01.JPG,AFNE01.JPG,AFNE01.JPG,,,,,,,,,5,0,50,2,,,,,,,,,,,,,,,AFSA20.jpg,AFNE09.jpg,AFNE10.jpg,AFSA18.jpg,AFSA20.jpg,FS,4,num_8,32,num_2,1.06678495521,,,2017_Nov_29_1822,60.0136281018,FEMA4ImagesEEG,001,102451,
AFNE01.JPG,AFNE01.JPG,AFNE01.JPG,AFNE01.JPG,AFNE01.JPG,AFNE01.JPG,,,,,,,,,5,1,51,8,,,,,,,,,,,,,,,AFNE03.jpg,AFNE11.jpg,AFSA10.jpg,AFSA02.jpg,AFNE03.jpg,FN,3,num_8,16,num_8,1.16657557676,,,2017_Nov_29_1822,60.0136281018,FEMA4ImagesEEG,001,102451,
AFNE01.JPG,AFNE01.JPG,AFNE01.JPG,AFNE01.JPG,AFNE01.JPG,AFNE01.JPG,,,,,,,,,5,2,52,3,,,,,,,,,,,,,,,AFNE01.jpg,AFSA15.jpg,AFNE08.jpg,AFSA17.jpg,AFSA15.jpg,FS,4,num_6,16,num_6,0.916779085761,,,2017_Nov_29_1822,60.0136281018,FEMA4ImagesEEG,001,102451,
AFNE01.JPG,AFNE01.JPG,AFNE01.JPG,AFNE01.JPG,AFNE01.JPG,AFNE01.JPG,,,,,,,,,5,3,53,1,,,,,,,,,,,,,,,AFSA14.jpg,AFNE19.jpg,AFSA11.jpg,AFNE18.jpg,AFSA11.jpg,FS,4,num_2,16,num_2,0.483766748221,,,2017_Nov_29_1822,60.0136281018,FEMA4ImagesEEG,001,102451,
AFNE01.JPG,AFNE01.JPG,AFNE01.JPG,AFNE01.JPG,AFNE01.JPG,AFNE01.JPG,,,,,,,,,5,4,54,7,,,,,,,,,,,,,,,AFSA16.jpg,AFNE09.jpg,AFNE14.jpg,AFSA04.jpg,AFNE09.jpg,FN,3,num_6,32,num_4,0.883416436845,,,2017_Nov_29_1822,60.0136281018,FEMA4ImagesEEG,001,102451,
AFNE01.JPG,AFNE01.JPG,AFNE01.JPG,AFNE01.JPG,AFNE01.JPG,AFNE01.JPG,,,,,,,,,5,5,55,9,,,,,,,,,,,,,,,AFNE10.jpg,AFNE11.jpg,AFSA08.jpg,AFSA14.jpg,AFSA14.jpg,FS,4,num_4,16,num_4,0.98347070592,,,2017_Nov_29_1822,60.0136281018,FEMA4ImagesEEG,001,102451,
AFNE01.JPG,AFNE01.JPG,AFNE01.JPG,AFNE01.JPG,AFNE01.JPG,AFNE01.JPG,,,,,,,,,5,6,56,4,,,,,,,,,,,,,,,AFSA09.jpg,AFSA10.jpg,AFNE17.jpg,AFNE02.jpg,AFNE17.jpg,FN,3,num_2,32,num_8,0.883433756884,,,2017_Nov_29_1822,60.0136281018,FEMA4ImagesEEG,001,102451,
AFNE01.JPG,AFNE01.JPG,AFNE01.JPG,AFNE01.JPG,AFNE01.JPG,AFNE01.JPG,,,,,,,,,5,7,57,0,,,,,,,,,,,,,,,AFSA13.jpg,AFNE01.jpg,AFSA01.jpg,AFNE07.jpg,AFNE01.jpg,FN,3,num_6,32,num_4,0.950095868902,,,2017_Nov_29_1822,60.0136281018,FEMA4ImagesEEG,001,102451,
AFNE01.JPG,AFNE01.JPG,AFNE01.JPG,AFNE01.JPG,AFNE01.JPG,AFNE01.JPG,,,,,,,,,5,8,58,5,,,,,,,,,,,,,,,AFSA18.jpg,AFNE06.jpg,AFNE16.jpg,AFSA15.jpg,AFNE16.jpg,FN,3,num_2,16,num_2,0.80014869466,,,2017_Nov_29_1822,60.0136281018,FEMA4ImagesEEG,001,102451,
AFNE01.JPG,AFNE01.JPG,AFNE01.JPG,AFNE01.JPG,AFNE01.JPG,AFNE01.JPG,,,,,,,,,5,9,59,6,,,,,,,,,,,,,,,AFSA02.jpg,AFSA20.jpg,AFNE10.jpg,AFNE11.jpg,AFNE11.jpg,FN,3,num_4,16,num_4,0.616815136862,,,2017_Nov_29_1822,60.0136281018,FEMA4ImagesEEG,001,102451,
,,,,,,,,,,,,,,,,,,,,,,,,,,,,,,,,,,,,,,,,,,,space,10.1159975727,2017_Nov_29_1822,60.0136281018,FEMA4ImagesEEG,001,102451,
AFNE01.JPG,AFNE01.JPG,AFNE01.JPG,AFNE01.JPG,AFNE01.JPG,AFNE01.JPG,,,,,,,,,,,,,0,0,0,5,,,,,,,,,,,AMSA11.jpg,AMSA08.jpg,AMNE20.jpg,AMNE10.jpg,AMNE20.jpg,MN,1,num_2,32,num_8,0.916795764118,,,2017_Nov_29_1822,60.0136281018,FEMA4ImagesEEG,001,102451,
AFNE01.JPG,AFNE01.JPG,AFNE01.JPG,AFNE01.JPG,AFNE01.JPG,AFNE01.JPG,,,,,,,,,,,,,0,1,1,9,,,,,,,,,,,AMSA04.jpg,AMNE20.jpg,AMNE03.jpg,AMSA12.jpg,AMSA04.jpg,MS,2,num_8,32,num_2,0.950102925184,,,2017_Nov_29_1822,60.0136281018,FEMA4ImagesEEG,001,102451,
AFNE01.JPG,AFNE01.JPG,AFNE01.JPG,AFNE01.JPG,AFNE01.JPG,AFNE01.JPG,,,,,,,,,,,,,0,2,2,2,,,,,,,,,,,AMNE10.jpg,AMSA02.jpg,AMNE13.jpg,AMSA13.jpg,AMSA13.jpg,MS,2,num_4,16,num_4,0.566783672315,,,2017_Nov_29_1822,60.0136281018,FEMA4ImagesEEG,001,102451,
AFNE01.JPG,AFNE01.JPG,AFNE01.JPG,AFNE01.JPG,AFNE01.JPG,AFNE01.JPG,,,,,,,,,,,,,0,3,3,8,,,,,,,,,,,AMNE17.jpg,AMNE15.jpg,AMSA05.jpg,AMSA08.jpg,AMNE15.jpg,MN,1,num_6,16,num_6,1.36671683029,,,2017_Nov_29_1822,60.0136281018,FEMA4ImagesEEG,001,102451,
AFNE01.JPG,AFNE01.JPG,AFNE01.JPG,AFNE01.JPG,AFNE01.JPG,AFNE01.JPG,,,,,,,,,,,,,0,4,4,4,,,,,,,,,,,AMSA14.jpg,AMNE03.jpg,AMNE17.jpg,AMSA01.jpg,AMSA01.jpg,MS,2,num_4,16,num_4,1.03343898489,,,2017_Nov_29_1822,60.0136281018,FEMA4ImagesEEG,001,102451,
AFNE01.JPG,AFNE01.JPG,AFNE01.JPG,AFNE01.JPG,AFNE01.JPG,AFNE01.JPG,,,,,,,,,,,,,0,5,5,7,,,,,,,,,,,AMSA06.jpg,AMNE05.jpg,AMSA20.jpg,AMNE06.jpg,AMSA20.jpg,MS,2,num_2,32,num_4,0.833496589563,,,2017_Nov_29_1822,60.0136281018,FEMA4ImagesEEG,001,102451,
AFNE01.JPG,AFNE01.JPG,AFNE01.JPG,AFNE01.JPG,AFNE01.JPG,AFNE01.JPG,,,,,,,,,,,,,0,6,6,6,,,,,,,,,,,AMNE02.jpg,AMSA07.jpg,AMSA20.jpg,AMNE10.jpg,AMNE02.jpg,MN,1,num_8,16,num_8,1.40004163189,,,2017_Nov_29_1822,60.0136281018,FEMA4ImagesEEG,001,102451,
AFNE01.JPG,AFNE01.JPG,AFNE01.JPG,AFNE01.JPG,AFNE01.JPG,AFNE01.JPG,,,,,,,,,,,,,0,7,7,3,,,,,,,,,,,AMSA14.jpg,AMNE02.jpg,AMNE10.jpg,AMSA18.jpg,AMSA18.jpg,MS,2,num_4,16,num_4,0.683481739252,,,2017_Nov_29_1822,60.0136281018,FEMA4ImagesEEG,001,102451,
AFNE01.JPG,AFNE01.JPG,AFNE01.JPG,AFNE01.JPG,AFNE01.JPG,AFNE01.JPG,,,,,,,,,,,,,0,8,8,1,,,,,,,,,,,AMNE15.jpg,AMSA15.jpg,AMSA17.jpg,AMNE03.jpg,AMSA15.jpg,MS,2,num_6,16,num_6,0.633476896212,,,2017_Nov_29_1822,60.0136281018,FEMA4ImagesEEG,001,102451,
AFNE01.JPG,AFNE01.JPG,AFNE01.JPG,AFNE01.JPG,AFNE01.JPG,AFNE01.JPG,,,,,,,,,,,,,0,9,9,0,,,,,,,,,,,AMSA01.jpg,AMNE03.jpg,AMNE14.jpg,AMSA12.jpg,AMNE14.jpg,MN,1,num_2,16,num_2,0.850186894648,,,2017_Nov_29_1822,60.0136281018,FEMA4ImagesEEG,001,102451,
AFNE01.JPG,AFNE01.JPG,AFNE01.JPG,AFNE01.JPG,AFNE01.JPG,AFNE01.JPG,,,,,,,,,,,,,1,0,10,3,,,,,,,,,,,AMSA08.jpg,AMSA07.jpg,AMNE05.jpg,AMNE14.jpg,AMNE14.jpg,MN,1,num_4,16,num_4,1.01721118554,,,2017_Nov_29_1822,60.0136281018,FEMA4ImagesEEG,001,102451,
AFNE01.JPG,AFNE01.JPG,AFNE01.JPG,AFNE01.JPG,AFNE01.JPG,AFNE01.JPG,,,,,,,,,,,,,1,1,11,0,,,,,,,,,,,AMSA17.jpg,AMNE11.jpg,AMSA13.jpg,AMNE16.jpg,AMNE11.jpg,MN,1,num_6,32,num_8,1.01676599961,,,2017_Nov_29_1822,60.0136281018,FEMA4ImagesEEG,001,102451,
AFNE01.JPG,AFNE01.JPG,AFNE01.JPG,AFNE01.JPG,AFNE01.JPG,AFNE01.JPG,,,,,,,,,,,,,1,2,12,4,,,,,,,,,,,AMNE11.jpg,AMNE12.jpg,AMSA05.jpg,AMSA12.jpg,AMNE12.jpg,MN,1,num_6,16,num_6,0.716898593237,,,2017_Nov_29_1822,60.0136281018,FEMA4ImagesEEG,001,102451,
AFNE01.JPG,AFNE01.JPG,AFNE01.JPG,AFNE01.JPG,AFNE01.JPG,AFNE01.JPG,,,,,,,,,,,,,1,3,13,2,,,,,,,,,,,AMNE11.jpg,AMSA16.jpg,AMNE17.jpg,AMSA18.jpg,AMSA16.jpg,MS,2,num_6,32,num_4,0.649986304343,,,2017_Nov_29_1822,60.0136281018,FEMA4ImagesEEG,001,102451,
AFNE01.JPG,AFNE01.JPG,AFNE01.JPG,AFNE01.JPG,AFNE01.JPG,AFNE01.JPG,,,,,,,,,,,,,1,4,14,6,,,,,,,,,,,AMSA05.jpg,AMSA04.jpg,AMNE06.jpg,AMNE11.jpg,AMSA05.jpg,MS,2,num_8,32,num_4,1.0002290078,,,2017_Nov_29_1822,60.0136281018,FEMA4ImagesEEG,001,102451,
AFNE01.JPG,AFNE01.JPG,AFNE01.JPG,AFNE01.JPG,AFNE01.JPG,AFNE01.JPG,,,,,,,,,,,,,1,5,15,9,,,,,,,,,,,AMNE12.jpg,AMSA16.jpg,AMNE19.jpg,AMSA19.jpg,AMNE12.jpg,MN,1,num_8,32,num_4,1.05010395159,,,2017_Nov_29_1822,60.0136281018,FEMA4ImagesEEG,001,102451,
AFNE01.JPG,AFNE01.JPG,AFNE01.JPG,AFNE01.JPG,AFNE01.JPG,AFNE01.JPG,,,,,,,,,,,,,1,6,16,7,,,,,,,,,,,AMNE04.jpg,AMNE16.jpg,AMSA08.jpg,AMSA15.jpg,AMNE16.jpg,MN,1,num_6,32,num_4,0.916796405683,,,2017_Nov_29_1822,60.0136281018,FEMA4ImagesEEG,001,102451,
AFNE01.JPG,AFNE01.JPG,AFNE01.JPG,AFNE01.JPG,AFNE01.JPG,AFNE01.JPG,,,,,,,,,,,,,1,7,17,8,,,,,,,,,,,AMSA08.jpg,AMSA20.jpg,AMNE13.jpg,AMNE09.jpg,AMSA08.jpg,MS,2,num_8,32,num_2,1.36669918953,,,2017_Nov_29_1822,60.0136281018,FEMA4ImagesEEG,001,102451,
AFNE01.JPG,AFNE01.JPG,AFNE01.JPG,AFNE01.JPG,AFNE01.JPG,AFNE01.JPG,,,,,,,,,,,,,1,8,18,1,,,,,,,,,,,AMSA14.jpg,AMNE10.jpg,AMNE03.jpg,AMSA01.jpg,AMNE03.jpg,MN,1,num_2,32,num_8,0.766798233963,,,2017_Nov_29_1822,60.0136281018,FEMA4ImagesEEG,001,102451,
AFNE01.JPG,AFNE01.JPG,AFNE01.JPG,AFNE01.JPG,AFNE01.JPG,AFNE01.JPG,,,,,,,,,,,,,1,9,19,5,,,,,,,,,,,AMSA12.jpg,AMNE04.jpg,AMSA04.jpg,AMNE02.jpg,AMSA04.jpg,MS,2,num_2,32,num_6,0.966787457,,,2017_Nov_29_1822,60.0136281018,FEMA4ImagesEEG,001,102451,
AFNE01.JPG,AFNE01.JPG,AFNE01.JPG,AFNE01.JPG,AFNE01.JPG,AFNE01.JPG,,,,,,,,,,,,,2,0,20,7,,,,,,,,,,,AMNE13.jpg,AMNE02.jpg,AMSA12.jpg,AMSA18.jpg,AMNE13.jpg,MN,1,num_8,16,num_8,1.20010533067,,,2017_Nov_29_1822,60.0136281018,FEMA4ImagesEEG,001,102451,
AFNE01.JPG,AFNE01.JPG,AFNE01.JPG,AFNE01.JPG,AFNE01.JPG,AFNE01.JPG,,,,,,,,,,,,,2,1,21,1,,,,,,,,,,,AMSA02.jpg,AMNE16.jpg,AMSA12.jpg,AMNE20.jpg,AMNE20.jpg,MN,1,num_4,16,num_4,0.883499829099,,,2017_Nov_29_1822,60.0136281018,FEMA4ImagesEEG,001,102451,
AFNE01.JPG,AFNE01.JPG,AFNE01.JPG,AFNE01.JPG,AFNE01.JPG,AFNE01.JPG,,,,,,,,,,,,,2,2,22,9,,,,,,,,,,,AMSA08.jpg,AMNE05.jpg,AMSA15.jpg,AMNE12.jpg,AMNE05.jpg,MN,1,num_6,16,num_6,0.683533699135,,,2017_Nov_29_1822,60.0136281018,FEMA4ImagesEEG,001,102451,
AFNE01.JPG,AFNE01.JPG,AFNE01.JPG,AFNE01.JPG,AFNE01.JPG,AFNE01.JPG,,,,,,,,,,,,,2,3,23,0,,,,,,,,,,,AMSA07.jpg,AMNE07.jpg,AMNE17.jpg,AMSA18.jpg,AMSA07.jpg,MS,2,num_8,32,num_2,0.883495659451,,,2017_Nov_29_1822,60.0136281018,FEMA4ImagesEEG,001,102451,
AFNE01.JPG,AFNE01.JPG,AFNE01.JPG,AFNE01.JPG,AFNE01.JPG,AFNE01.JPG,,,,,,,,,,,,,2,4,24,8,,,,,,,,,,,AMNE05.jpg,AMSA01.jpg,AMNE20.jpg,AMSA10.jpg,AMNE05.jpg,MN,1,num_8,32,num_2,0.983417463256,,,2017_Nov_29_1822,60.0136281018,FEMA4ImagesEEG,001,102451,
AFNE01.JPG,AFNE01.JPG,AFNE01.JPG,AFNE01.JPG,AFNE01.JPG,AFNE01.JPG,,,,,,,,,,,,,2,5,25,6,,,,,,,,,,,AMNE16.jpg,AMNE12.jpg,AMSA07.jpg,AMSA18.jpg,AMNE12.jpg,MN,1,num_6,32,num_8,0.967053670669,,,2017_Nov_29_1822,60.0136281018,FEMA4ImagesEEG,001,102451,
AFNE01.JPG,AFNE01.JPG,AFNE01.JPG,AFNE01.JPG,AFNE01.JPG,AFNE01.JPG,,,,,,,,,,,,,2,6,26,2,,,,,,,,,,,AMNE03.jpg,AMSA17.jpg,AMSA01.jpg,AMNE20.jpg,AMNE20.jpg,MN,1,num_4,32,num_8,1.18347051344,,,2017_Nov_29_1822,60.0136281018,FEMA4ImagesEEG,001,102451,
AFNE01.JPG,AFNE01.JPG,AFNE01.JPG,AFNE01.JPG,AFNE01.JPG,AFNE01.JPG,,,,,,,,,,,,,2,7,27,4,,,,,,,,,,,AMSA05.jpg,AMSA10.jpg,AMNE02.jpg,AMNE10.jpg,AMNE10.jpg,MN,1,num_4,16,num_4,0.86666262534,,,2017_Nov_29_1822,60.0136281018,FEMA4ImagesEEG,001,102451,
AFNE01.JPG,AFNE01.JPG,AFNE01.JPG,AFNE01.JPG,AFNE01.JPG,AFNE01.JPG,,,,,,,,,,,,,2,8,28,5,,,,,,,,,,,AMSA03.jpg,AMNE16.jpg,AMNE12.jpg,AMSA05.jpg,AMSA05.jpg,MS,2,num_4,32,num_2,1.05009497085,,,2017_Nov_29_1822,60.0136281018,FEMA4ImagesEEG,001,102451,
AFNE01.JPG,AFNE01.JPG,AFNE01.JPG,AFNE01.JPG,AFNE01.JPG,AFNE01.JPG,,,,,,,,,,,,,2,9,29,3,,,,,,,,,,,AMSA04.jpg,AMSA13.jpg,AMNE16.jpg,AMNE13.jpg,AMNE13.jpg,MN,1,num_4,32,num_6,0.983409444685,,,2017_Nov_29_1822,60.0136281018,FEMA4ImagesEEG,001,102451,
AFNE01.JPG,AFNE01.JPG,AFNE01.JPG,AFNE01.JPG,AFNE01.JPG,AFNE01.JPG,,,,,,,,,,,,,3,0,30,8,,,,,,,,,,,AMNE04.jpg,AMSA06.jpg,AMNE14.jpg,AMSA20.jpg,AMSA06.jpg,MS,2,num_6,32,num_8,1.28341990081,,,2017_Nov_29_1822,60.0136281018,FEMA4ImagesEEG,001,102451,
AFNE01.JPG,AFNE01.JPG,AFNE01.JPG,AFNE01.JPG,AFNE01.JPG,AFNE01.JPG,,,,,,,,,,,,,3,1,31,6,,,,,,,,,,,AMSA17.jpg,AMSA14.jpg,AMNE05.jpg,AMNE09.jpg,AMNE09.jpg,MN,1,num_4,32,num_2,1.35012627498,,,2017_Nov_29_1822,60.0136281018,FEMA4ImagesEEG,001,102451,
AFNE01.JPG,AFNE01.JPG,AFNE01.JPG,AFNE01.JPG,AFNE01.JPG,AFNE01.JPG,,,,,,,,,,,,,3,2,32,1,,,,,,,,,,,AMNE20.jpg,AMNE14.jpg,AMSA02.jpg,AMSA19.jpg,AMNE20.jpg,MN,1,num_8,32,num_2,0.883405210916,,,2017_Nov_29_1822,60.0136281018,FEMA4ImagesEEG,001,102451,
AFNE01.JPG,AFNE01.JPG,AFNE01.JPG,AFNE01.JPG,AFNE01.JPG,AFNE01.JPG,,,,,,,,,,,,,3,3,33,7,,,,,,,,,,,AMNE10.jpg,AMNE02.jpg,AMSA16.jpg,AMSA07.jpg,AMSA07.jpg,MS,2,num_4,16,num_4,1.61672629206,,,2017_Nov_29_1822,60.0136281018,FEMA4ImagesEEG,001,102451,
AFNE01.JPG,AFNE01.JPG,AFNE01.JPG,AFNE01.JPG,AFNE01.JPG,AFNE01.JPG,,,,,,,,,,,,,3,4,34,9,,,,,,,,,,,AMSA17.jpg,AMNE18.jpg,AMNE03.jpg,AMSA10.jpg,AMSA10.jpg,MS,2,num_4,16,num_4,0.850140066701,,,2017_Nov_29_1822,60.0136281018,FEMA4ImagesEEG,001,102451,
AFNE01.JPG,AFNE01.JPG,AFNE01.JPG,AFNE01.JPG,AFNE01.JPG,AFNE01.JPG,,,,,,,,,,,,,3,5,35,3,,,,,,,,,,,AMNE10.jpg,AMNE09.jpg,AMSA11.jpg,AMSA03.jpg,AMNE10.jpg,MN,1,num_8,16,num_8,0.533492868999,,,2017_Nov_29_1822,60.0136281018,FEMA4ImagesEEG,001,102451,
AFNE01.JPG,AFNE01.JPG,AFNE01.JPG,AFNE01.JPG,AFNE01.JPG,AFNE01.JPG,,,,,,,,,,,,,3,6,36,0,,,,,,,,,,,AMNE17.jpg,AMNE15.jpg,AMSA12.jpg,AMSA09.jpg,AMSA09.jpg,MS,2,num_4,32,num_2,0.666902089259,,,2017_Nov_29_1822,60.0136281018,FEMA4ImagesEEG,001,102451,
AFNE01.JPG,AFNE01.JPG,AFNE01.JPG,AFNE01.JPG,AFNE01.JPG,AFNE01.JPG,,,,,,,,,,,,,3,7,37,2,,,,,,,,,,,AMNE15.jpg,AMNE04.jpg,AMSA07.jpg,AMSA06.jpg,AMNE04.jpg,MN,1,num_6,16,num_6,0.749984123395,,,2017_Nov_29_1822,60.0136281018,FEMA4ImagesEEG,001,102451,
AFNE01.JPG,AFNE01.JPG,AFNE01.JPG,AFNE01.JPG,AFNE01.JPG,AFNE01.JPG,,,,,,,,,,,,,3,8,38,5,,,,,,,,,,,AMSA03.jpg,AMSA05.jpg,AMNE18.jpg,AMNE04.jpg,AMSA03.jpg,MS,2,num_8,32,num_4,1.05038395687,,,2017_Nov_29_1822,60.0136281018,FEMA4ImagesEEG,001,102451,
AFNE01.JPG,AFNE01.JPG,AFNE01.JPG,AFNE01.JPG,AFNE01.JPG,AFNE01.JPG,,,,,,,,,,,,,3,9,39,4,,,,,,,,,,,AMSA17.jpg,AMSA06.jpg,AMNE15.jpg,AMNE10.jpg,AMSA06.jpg,MS,2,num_6,16,num_6,0.600187696633,,,2017_Nov_29_1822,60.0136281018,FEMA4ImagesEEG,001,102451,
AFNE01.JPG,AFNE01.JPG,AFNE01.JPG,AFNE01.JPG,AFNE01.JPG,AFNE01.JPG,,,,,,,,,,,,,4,0,40,6,,,,,,,,,,,AMNE20.jpg,AMSA08.jpg,AMSA02.jpg,AMNE08.jpg,AMNE08.jpg,MN,1,num_4,16,num_4,0.666767378803,,,2017_Nov_29_1822,60.0136281018,FEMA4ImagesEEG,001,102451,
AFNE01.JPG,AFNE01.JPG,AFNE01.JPG,AFNE01.JPG,AFNE01.JPG,AFNE01.JPG,,,,,,,,,,,,,4,1,41,9,,,,,,,,,,,AMNE03.jpg,AMNE02.jpg,AMSA05.jpg,AMSA17.jpg,AMNE03.jpg,MN,1,num_8,32,num_6,1.2167276392,,,2017_Nov_29_1822,60.0136281018,FEMA4ImagesEEG,001,102451,
AFNE01.JPG,AFNE01.JPG,AFNE01.JPG,AFNE01.JPG,AFNE01.JPG,AFNE01.JPG,,,,,,,,,,,,,4,2,42,2,,,,,,,,,,,AMNE15.jpg,AMSA04.jpg,AMNE20.jpg,AMSA10.jpg,AMSA04.jpg,MS,2,num_6,16,num_6,0.766832873691,,,2017_Nov_29_1822,60.0136281018,FEMA4ImagesEEG,001,102451,
AFNE01.JPG,AFNE01.JPG,AFNE01.JPG,AFNE01.JPG,AFNE01.JPG,AFNE01.JPG,,,,,,,,,,,,,4,3,43,8,,,,,,,,,,,AMSA18.jpg,AMNE01.jpg,AMNE12.jpg,AMSA15.jpg,AMSA18.jpg,MS,2,num_8,16,num_8,0.716777033056,,,2017_Nov_29_1822,60.0136281018,FEMA4ImagesEEG,001,102451,
AFNE01.JPG,AFNE01.JPG,AFNE01.JPG,AFNE01.JPG,AFNE01.JPG,AFNE01.JPG,,,,,,,,,,,,,4,4,44,1,,,,,,,,,,,AMSA14.jpg,AMNE18.jpg,AMNE19.jpg,AMSA19.jpg,AMNE18.jpg,MN,1,num_6,16,num_6,0.633449954214,,,2017_Nov_29_1822,60.0136281018,FEMA4ImagesEEG,001,102451,
AFNE01.JPG,AFNE01.JPG,AFNE01.JPG,AFNE01.JPG,AFNE01.JPG,AFNE01.JPG,,,,,,,,,,,,,4,5,45,5,,,,,,,,,,,AMSA01.jpg,AMSA11.jpg,AMNE03.jpg,AMNE16.jpg,AMSA11.jpg,MS,2,num_6,16,num_6,0.61696363904,,,2017_Nov_29_1822,60.0136281018,FEMA4ImagesEEG,001,102451,
AFNE01.JPG,AFNE01.JPG,AFNE01.JPG,AFNE01.JPG,AFNE01.JPG,AFNE01.JPG,,,,,,,,,,,,,4,6,46,7,,,,,,,,,,,AMSA10.jpg,AMNE12.jpg,AMSA18.jpg,AMNE08.jpg,AMNE12.jpg,MN,1,num_6,16,num_6,0.866766544874,,,2017_Nov_29_1822,60.0136281018,FEMA4ImagesEEG,001,102451,
AFNE01.JPG,AFNE01.JPG,AFNE01.JPG,AFNE01.JPG,AFNE01.JPG,AFNE01.JPG,,,,,,,,,,,,,4,7,47,0,,,,,,,,,,,AMNE05.jpg,AMSA01.jpg,AMNE20.jpg,AMSA03.jpg,AMNE05.jpg,MN,1,num_8,16,num_8,1.0501113286,,,2017_Nov_29_1822,60.0136281018,FEMA4ImagesEEG,001,102451,
AFNE01.JPG,AFNE01.JPG,AFNE01.JPG,AFNE01.JPG,AFNE01.JPG,AFNE01.JPG,,,,,,,,,,,,,4,8,48,3,,,,,,,,,,,AMNE11.jpg,AMSA10.jpg,AMSA15.jpg,AMNE15.jpg,AMSA10.jpg,MS,2,num_6,16,num_6,0.616877039545,,,2017_Nov_29_1822,60.0136281018,FEMA4ImagesEEG,001,102451,
AFNE01.JPG,AFNE01.JPG,AFNE01.JPG,AFNE01.JPG,AFNE01.JPG,AFNE01.JPG,,,,,,,,,,,,,4,9,49,4,,,,,,,,,,,AMNE09.jpg,AMSA07.jpg,AMNE12.jpg,AMSA15.jpg,AMSA07.jpg,MS,2,num_6,16,num_6,0.883436322678,,,2017_Nov_29_1822,60.0136281018,FEMA4ImagesEEG,001,102451,
AFNE01.JPG,AFNE01.JPG,AFNE01.JPG,AFNE01.JPG,AFNE01.JPG,AFNE01.JPG,,,,,,,,,,,,,5,0,50,4,,,,,,,,,,,AMNE07.jpg,AMSA08.jpg,AMNE10.jpg,AMSA05.jpg,AMNE07.jpg,MN,1,num_8,32,num_4,1.20008801087,,,2017_Nov_29_1822,60.0136281018,FEMA4ImagesEEG,001,102451,
AFNE01.JPG,AFNE01.JPG,AFNE01.JPG,AFNE01.JPG,AFNE01.JPG,AFNE01.JPG,,,,,,,,,,,,,5,1,51,3,,,,,,,,,,,AMSA06.jpg,AMSA19.jpg,AMNE08.jpg,AMNE03.jpg,AMNE08.jpg,MN,1,num_2,16,num_2,1.00015940738,,,2017_Nov_29_1822,60.0136281018,FEMA4ImagesEEG,001,102451,
AFNE01.JPG,AFNE01.JPG,AFNE01.JPG,AFNE01.JPG,AFNE01.JPG,AFNE01.JPG,,,,,,,,,,,,,5,2,52,1,,,,,,,,,,,AMNE17.jpg,AMSA13.jpg,AMSA16.jpg,AMNE07.jpg,AMNE07.jpg,MN,1,num_4,16,num_4,0.900165757979,,,2017_Nov_29_1822,60.0136281018,FEMA4ImagesEEG,001,102451,
AFNE01.JPG,AFNE01.JPG,AFNE01.JPG,AFNE01.JPG,AFNE01.JPG,AFNE01.JPG,,,,,,,,,,,,,5,3,53,7,,,,,,,,,,,AMNE20.jpg,AMNE03.jpg,AMSA02.jpg,AMSA10.jpg,AMSA02.jpg,MS,2,num_2,16,num_2,0.983471668093,,,2017_Nov_29_1822,60.0136281018,FEMA4ImagesEEG,001,102451,
AFNE01.JPG,AFNE01.JPG,AFNE01.JPG,AFNE01.JPG,AFNE01.JPG,AFNE01.JPG,,,,,,,,,,,,,5,4,54,8,,,,,,,,,,,AMNE17.jpg,AMSA16.jpg,AMSA14.jpg,AMNE08.jpg,AMNE08.jpg,MN,1,num_4,16,num_4,0.616812891676,,,2017_Nov_29_1822,60.0136281018,FEMA4ImagesEEG,001,102451,
AFNE01.JPG,AFNE01.JPG,AFNE01.JPG,AFNE01.JPG,AFNE01.JPG,AFNE01.JPG,,,,,,,,,,,,,5,5,55,9,,,,,,,,,,,AMSA02.jpg,AMNE01.jpg,AMSA05.jpg,AMNE02.jpg,AMNE01.jpg,MN,1,num_6,16,num_6,0.900083328015,,,2017_Nov_29_1822,60.0136281018,FEMA4ImagesEEG,001,102451,
AFNE01.JPG,AFNE01.JPG,AFNE01.JPG,AFNE01.JPG,AFNE01.JPG,AFNE01.JPG,,,,,,,,,,,,,5,6,56,5,,,,,,,,,,,AMNE03.jpg,AMSA11.jpg,AMNE10.jpg,AMSA17.jpg,AMNE03.jpg,MN,1,num_8,16,num_8,0.950123452581,,,2017_Nov_29_1822,60.0136281018,FEMA4ImagesEEG,001,102451,
AFNE01.JPG,AFNE01.JPG,AFNE01.JPG,AFNE01.JPG,AFNE01.JPG,AFNE01.JPG,,,,,,,,,,,,,5,7,57,2,,,,,,,,,,,AMNE15.jpg,AMNE16.jpg,AMSA06.jpg,AMSA11.jpg,AMSA11.jpg,MS,2,num_4,16,num_4,0.616805835394,,,2017_Nov_29_1822,60.0136281018,FEMA4ImagesEEG,001,102451,
AFNE01.JPG,AFNE01.JPG,AFNE01.JPG,AFNE01.JPG,AFNE01.JPG,AFNE01.JPG,,,,,,,,,,,,,5,8,58,0,,,,,,,,,,,AMNE13.jpg,AMSA15.jpg,AMSA10.jpg,AMNE01.jpg,AMSA15.jpg,MS,2,num_6,16,num_6,0.51665438246,,,2017_Nov_29_1822,60.0136281018,FEMA4ImagesEEG,001,102451,
AFNE01.JPG,AFNE01.JPG,AFNE01.JPG,AFNE01.JPG,AFNE01.JPG,AFNE01.JPG,,,,,,,,,,,,,5,9,59,6,,,,,,,,,,,AMNE13.jpg,AMNE16.jpg,AMSA17.jpg,AMSA15.jpg,AMSA15.jpg,MS,2,num_4,16,num_4,0.700177817838,,,2017_Nov_29_1822,60.0136281018,FEMA4ImagesEEG,001,102451,
,,,,,,,,,,,,,,,,,,,,,,,,,,,,,,,,,,,,,,,,,,,space,13.5324729184,2017_Nov_29_1822,60.0136281018,FEMA4ImagesEEG,001,102451,
AFNE01.JPG,AFNE01.JPG,AFNE01.JPG,AFNE01.JPG,AFNE01.JPG,AFNE01.JPG,,,,,,,,,,,,,,,,,0,0,0,5,,,,,,,AFSA20.jpg,AFNE03.jpg,AFNE07.jpg,AFSA10.jpg,AFNE03.jpg,FN,3,num_6,16,num_6,0.533474266063,,,2017_Nov_29_1822,60.0136281018,FEMA4ImagesEEG,001,102451,
AFNE01.JPG,AFNE01.JPG,AFNE01.JPG,AFNE01.JPG,AFNE01.JPG,AFNE01.JPG,,,,,,,,,,,,,,,,,0,1,1,9,,,,,,,AFNE03.jpg,AFSA10.jpg,AFSA09.jpg,AFNE08.jpg,AFSA10.jpg,FS,4,num_6,32,num_2,0.633470481378,,,2017_Nov_29_1822,60.0136281018,FEMA4ImagesEEG,001,102451,
AFNE01.JPG,AFNE01.JPG,AFNE01.JPG,AFNE01.JPG,AFNE01.JPG,AFNE01.JPG,,,,,,,,,,,,,,,,,0,2,2,6,,,,,,,AFSA08.jpg,AFNE20.jpg,AFNE09.jpg,AFSA17.jpg,AFSA08.jpg,FS,4,num_8,16,num_8,1.23340447329,,,2017_Nov_29_1822,60.0136281018,FEMA4ImagesEEG,001,102451,
AFNE01.JPG,AFNE01.JPG,AFNE01.JPG,AFNE01.JPG,AFNE01.JPG,AFNE01.JPG,,,,,,,,,,,,,,,,,0,3,3,0,,,,,,,AFNE04.jpg,AFSA09.jpg,AFNE13.jpg,AFSA17.jpg,AFSA17.jpg,FS,4,num_4,32,num_6,0.866747621214,,,2017_Nov_29_1822,60.0136281018,FEMA4ImagesEEG,001,102451,
AFNE01.JPG,AFNE01.JPG,AFNE01.JPG,AFNE01.JPG,AFNE01.JPG,AFNE01.JPG,,,,,,,,,,,,,,,,,0,4,4,7,,,,,,,AFNE18.jpg,AFNE09.jpg,AFSA18.jpg,AFSA10.jpg,AFNE18.jpg,FN,3,num_8,16,num_8,0.933139670989,,,2017_Nov_29_1822,60.0136281018,FEMA4ImagesEEG,001,102451,
AFNE01.JPG,AFNE01.JPG,AFNE01.JPG,AFNE01.JPG,AFNE01.JPG,AFNE01.JPG,,,,,,,,,,,,,,,,,0,5,5,2,,,,,,,AFNE08.jpg,AFSA10.jpg,AFNE18.jpg,AFSA13.jpg,AFNE08.jpg,FN,3,num_8,32,num_2,1.00011065498,,,2017_Nov_29_1822,60.0136281018,FEMA4ImagesEEG,001,102451,
AFNE01.JPG,AFNE01.JPG,AFNE01.JPG,AFNE01.JPG,AFNE01.JPG,AFNE01.JPG,,,,,,,,,,,,,,,,,0,6,6,8,,,,,,,AFSA16.jpg,AFNE03.jpg,AFSA17.jpg,AFNE17.jpg,AFSA17.jpg,FS,4,num_2,32,num_6,1.03346496471,,,2017_Nov_29_1822,60.0136281018,FEMA4ImagesEEG,001,102451,
AFNE01.JPG,AFNE01.JPG,AFNE01.JPG,AFNE01.JPG,AFNE01.JPG,AFNE01.JPG,,,,,,,,,,,,,,,,,0,7,7,3,,,,,,,AFSA10.jpg,AFSA16.jpg,AFNE03.jpg,AFNE11.jpg,AFSA10.jpg,FS,4,num_8,16,num_8,0.816680875374,,,2017_Nov_29_1822,60.0136281018,FEMA4ImagesEEG,001,102451,
AFNE01.JPG,AFNE01.JPG,AFNE01.JPG,AFNE01.JPG,AFNE01.JPG,AFNE01.JPG,,,,,,,,,,,,,,,,,0,8,8,4,,,,,,,AFSA05.jpg,AFSA08.jpg,AFNE11.jpg,AFNE07.jpg,AFNE07.jpg,FN,3,num_4,16,num_4,0.583448318415,,,2017_Nov_29_1822,60.0136281018,FEMA4ImagesEEG,001,102451,
AFNE01.JPG,AFNE01.JPG,AFNE01.JPG,AFNE01.JPG,AFNE01.JPG,AFNE01.JPG,,,,,,,,,,,,,,,,,0,9,9,1,,,,,,,AFNE15.jpg,AFSA15.jpg,AFSA20.jpg,AFNE11.jpg,AFSA20.jpg,FS,4,num_2,32,num_4,0.983436386916,,,2017_Nov_29_1822,60.0136281018,FEMA4ImagesEEG,001,102451,
AFNE01.JPG,AFNE01.JPG,AFNE01.JPG,AFNE01.JPG,AFNE01.JPG,AFNE01.JPG,,,,,,,,,,,,,,,,,1,0,10,9,,,,,,,AFNE03.jpg,AFSA02.jpg,AFNE06.jpg,AFSA01.jpg,AFNE03.jpg,FN,3,num_8,32,num_2,0.966754741617,,,2017_Nov_29_1822,60.0136281018,FEMA4ImagesEEG,001,102451,
AFNE01.JPG,AFNE01.JPG,AFNE01.JPG,AFNE01.JPG,AFNE01.JPG,AFNE01.JPG,,,,,,,,,,,,,,,,,1,1,11,5,,,,,,,AFNE04.jpg,AFSA01.jpg,AFSA15.jpg,AFNE02.jpg,AFNE02.jpg,FN,3,num_4,16,num_4,1.76670169132,,,2017_Nov_29_1822,60.0136281018,FEMA4ImagesEEG,001,102451,
AFNE01.JPG,AFNE01.JPG,AFNE01.JPG,AFNE01.JPG,AFNE01.JPG,AFNE01.JPG,,,,,,,,,,,,,,,,,1,2,12,7,,,,,,,AFSA10.jpg,AFNE03.jpg,AFSA01.jpg,AFNE11.jpg,AFNE03.jpg,FN,3,num_6,32,num_8,0.783469936112,,,2017_Nov_29_1822,60.0136281018,FEMA4ImagesEEG,001,102451,
AFNE01.JPG,AFNE01.JPG,AFNE01.JPG,AFNE01.JPG,AFNE01.JPG,AFNE01.JPG,,,,,,,,,,,,,,,,,1,3,13,8,,,,,,,AFNE06.jpg,AFNE14.jpg,AFSA13.jpg,AFSA04.jpg,AFSA13.jpg,FS,4,num_2,16,num_2,1.40011796786,,,2017_Nov_29_1822,60.0136281018,FEMA4ImagesEEG,001,102451,
AFNE01.JPG,AFNE01.JPG,AFNE01.JPG,AFNE01.JPG,AFNE01.JPG,AFNE01.JPG,,,,,,,,,,,,,,,,,1,4,14,1,,,,,,,AFNE03.jpg,AFSA10.jpg,AFSA18.jpg,AFNE06.jpg,AFSA18.jpg,FS,4,num_2,32,num_6,0.683463777881,,,2017_Nov_29_1822,60.0136281018,FEMA4ImagesEEG,001,102451,
AFNE01.JPG,AFNE01.JPG,AFNE01.JPG,AFNE01.JPG,AFNE01.JPG,AFNE01.JPG,,,,,,,,,,,,,,,,,1,5,15,3,,,,,,,AFNE01.jpg,AFSA07.jpg,AFSA13.jpg,AFNE05.jpg,AFNE05.jpg,FN,3,num_4,32,num_2,1.39980813372,,,2017_Nov_29_1822,60.0136281018,FEMA4ImagesEEG,001,102451,
AFNE01.JPG,AFNE01.JPG,AFNE01.JPG,AFNE01.JPG,AFNE01.JPG,AFNE01.JPG,,,,,,,,,,,,,,,,,1,6,16,2,,,,,,,AFNE09.jpg,AFSA08.jpg,AFNE06.jpg,AFSA16.jpg,AFSA16.jpg,FS,4,num_4,32,num_6,0.800161844934,,,2017_Nov_29_1822,60.0136281018,FEMA4ImagesEEG,001,102451,
AFNE01.JPG,AFNE01.JPG,AFNE01.JPG,AFNE01.JPG,AFNE01.JPG,AFNE01.JPG,,,,,,,,,,,,,,,,,1,7,17,6,,,,,,,AFNE10.jpg,AFSA09.jpg,AFNE11.jpg,AFSA12.jpg,AFNE10.jpg,FN,3,num_8,32,num_2,1.75006238383,,,2017_Nov_29_1822,60.0136281018,FEMA4ImagesEEG,001,102451,
AFNE01.JPG,AFNE01.JPG,AFNE01.JPG,AFNE01.JPG,AFNE01.JPG,AFNE01.JPG,,,,,,,,,,,,,,,,,1,8,18,0,,,,,,,AFSA07.jpg,AFSA18.jpg,AFNE19.jpg,AFNE07.jpg,AFNE07.jpg,FN,3,num_4,16,num_4,0.76681491232,,,2017_Nov_29_1822,60.0136281018,FEMA4ImagesEEG,001,102451,
AFNE01.JPG,AFNE01.JPG,AFNE01.JPG,AFNE01.JPG,AFNE01.JPG,AFNE01.JPG,,,,,,,,,,,,,,,,,1,9,19,4,,,,,,,AFNE20.jpg,AFNE18.jpg,AFSA12.jpg,AFSA16.jpg,AFNE20.jpg,FN,3,num_8,32,num_6,1.15011171345,,,2017_Nov_29_1822,60.0136281018,FEMA4ImagesEEG,001,102451,
AFNE01.JPG,AFNE01.JPG,AFNE01.JPG,AFNE01.JPG,AFNE01.JPG,AFNE01.JPG,,,,,,,,,,,,,,,,,2,0,20,8,,,,,,,AFSA07.jpg,AFSA17.jpg,AFNE13.jpg,AFNE16.jpg,AFSA17.jpg,FS,4,num_6,32,num_8,0.816735721775,,,2017_Nov_29_1822,60.0136281018,FEMA4ImagesEEG,001,102451,
AFNE01.JPG,AFNE01.JPG,AFNE01.JPG,AFNE01.JPG,AFNE01.JPG,AFNE01.JPG,,,,,,,,,,,,,,,,,2,1,21,2,,,,,,,AFSA09.jpg,AFSA01.jpg,AFNE17.jpg,AFNE11.jpg,AFNE17.jpg,FN,3,num_2,32,num_8,1.05008053756,,,2017_Nov_29_1822,60.0136281018,FEMA4ImagesEEG,001,102451,
AFNE01.JPG,AFNE01.JPG,AFNE01.JPG,AFNE01.JPG,AFNE01.JPG,AFNE01.JPG,,,,,,,,,,,,,,,,,2,2,22,7,,,,,,,AFSA01.jpg,AFNE20.jpg,AFNE13.jpg,AFSA18.jpg,AFNE13.jpg,FN,3,num_2,16,num_2,1.167030385,,,2017_Nov_29_1822,60.0136281018,FEMA4ImagesEEG,001,102451,
AFNE01.JPG,AFNE01.JPG,AFNE01.JPG,AFNE01.JPG,AFNE01.JPG,AFNE01.JPG,,,,,,,,,,,,,,,,,2,3,23,6,,,,,,,AFNE05.jpg,AFNE07.jpg,AFSA01.jpg,AFSA02.jpg,AFNE07.jpg,FN,3,num_6,16,num_6,0.783501368598,,,2017_Nov_29_1822,60.0136281018,FEMA4ImagesEEG,001,102451,
AFNE01.JPG,AFNE01.JPG,AFNE01.JPG,AFNE01.JPG,AFNE01.JPG,AFNE01.JPG,,,,,,,,,,,,,,,,,2,4,24,4,,,,,,,AFNE13.jpg,AFSA16.jpg,AFSA12.jpg,AFNE11.jpg,AFNE11.jpg,FN,3,num_4,16,num_4,0.583487127791,,,2017_Nov_29_1822,60.0136281018,FEMA4ImagesEEG,001,102451,
AFNE01.JPG,AFNE01.JPG,AFNE01.JPG,AFNE01.JPG,AFNE01.JPG,AFNE01.JPG,,,,,,,,,,,,,,,,,2,5,25,3,,,,,,,AFNE05.jpg,AFSA09.jpg,AFSA10.jpg,AFNE10.jpg,AFSA10.jpg,FS,4,num_2,32,num_8,1.81675560761,,,2017_Nov_29_1822,60.0136281018,FEMA4ImagesEEG,001,102451,
AFNE01.JPG,AFNE01.JPG,AFNE01.JPG,AFNE01.JPG,AFNE01.JPG,AFNE01.JPG,,,,,,,,,,,,,,,,,2,6,26,5,,,,,,,AFSA15.jpg,AFSA16.jpg,AFNE20.jpg,AFNE04.jpg,AFSA16.jpg,FS,4,num_6,32,num_8,0.83318098227,,,2017_Nov_29_1822,60.0136281018,FEMA4ImagesEEG,001,102451,
AFNE01.JPG,AFNE01.JPG,AFNE01.JPG,AFNE01.JPG,AFNE01.JPG,AFNE01.JPG,,,,,,,,,,,,,,,,,2,7,27,9,,,,,,,AFNE05.jpg,AFSA18.jpg,AFSA15.jpg,AFNE20.jpg,AFNE05.jpg,FN,3,num_8,16,num_8,0.900117005571,,,2017_Nov_29_1822,60.0136281018,FEMA4ImagesEEG,001,102451,
AFNE01.JPG,AFNE01.JPG,AFNE01.JPG,AFNE01.JPG,AFNE01.JPG,AFNE01.JPG,,,,,,,,,,,,,,,,,2,8,28,1,,,,,,,AFSA12.jpg,AFSA17.jpg,AFNE12.jpg,AFNE19.jpg,AFNE19.jpg,FN,3,num_4,32,num_2,1.31673411815,,,2017_Nov_29_1822,60.0136281018,FEMA4ImagesEEG,001,102451,
AFNE01.JPG,AFNE01.JPG,AFNE01.JPG,AFNE01.JPG,AFNE01.JPG,AFNE01.JPG,,,,,,,,,,,,,,,,,2,9,29,0,,,,,,,AFSA02.jpg,AFSA04.jpg,AFNE02.jpg,AFNE19.jpg,AFSA04.jpg,FS,4,num_6,16,num_6,1.10031503008,,,2017_Nov_29_1822,60.0136281018,FEMA4ImagesEEG,001,102451,
AFNE01.JPG,AFNE01.JPG,AFNE01.JPG,AFNE01.JPG,AFNE01.JPG,AFNE01.JPG,,,,,,,,,,,,,,,,,3,0,30,2,,,,,,,AFSA03.jpg,AFNE16.jpg,AFNE05.jpg,AFSA19.jpg,AFNE05.jpg,FN,3,num_2,32,num_6,0.833529946394,,,2017_Nov_29_1822,60.0136281018,FEMA4ImagesEEG,001,102451,
AFNE01.JPG,AFNE01.JPG,AFNE01.JPG,AFNE01.JPG,AFNE01.JPG,AFNE01.JPG,,,,,,,,,,,,,,,,,3,1,31,7,,,,,,,AFSA04.jpg,AFNE06.jpg,AFSA17.jpg,AFNE09.jpg,AFSA17.jpg,FS,4,num_2,16,num_2,1.18341470486,,,2017_Nov_29_1822,60.0136281018,FEMA4ImagesEEG,001,102451,
AFNE01.JPG,AFNE01.JPG,AFNE01.JPG,AFNE01.JPG,AFNE01.JPG,AFNE01.JPG,,,,,,,,,,,,,,,,,3,2,32,3,,,,,,,AFSA19.jpg,AFSA13.jpg,AFNE17.jpg,AFNE12.jpg,AFSA13.jpg,FS,4,num_6,32,num_8,0.866763658123,,,2017_Nov_29_1822,60.0136281018,FEMA4ImagesEEG,001,102451,
AFNE01.JPG,AFNE01.JPG,AFNE01.JPG,AFNE01.JPG,AFNE01.JPG,AFNE01.JPG,,,,,,,,,,,,,,,,,3,3,33,6,,,,,,,AFSA14.jpg,AFNE05.jpg,AFNE16.jpg,AFSA02.jpg,AFSA02.jpg,FS,4,num_4,16,num_4,0.850091955974,,,2017_Nov_29_1822,60.0136281018,FEMA4ImagesEEG,001,102451,
AFNE01.JPG,AFNE01.JPG,AFNE01.JPG,AFNE01.JPG,AFNE01.JPG,AFNE01.JPG,,,,,,,,,,,,,,,,,3,4,34,9,,,,,,,AFNE03.jpg,AFSA06.jpg,AFNE15.jpg,AFSA20.jpg,AFNE15.jpg,FN,3,num_2,16,num_2,0.550109404139,,,2017_Nov_29_1822,60.0136281018,FEMA4ImagesEEG,001,102451,
AFNE01.JPG,AFNE01.JPG,AFNE01.JPG,AFNE01.JPG,AFNE01.JPG,AFNE01.JPG,,,,,,,,,,,,,,,,,3,5,35,4,,,,,,,AFSA12.jpg,AFNE15.jpg,AFSA19.jpg,AFNE04.jpg,AFSA19.jpg,FS,4,num_2,32,num_4,1.43342673266,,,2017_Nov_29_1822,60.0136281018,FEMA4ImagesEEG,001,102451,
AFNE01.JPG,AFNE01.JPG,AFNE01.JPG,AFNE01.JPG,AFNE01.JPG,AFNE01.JPG,,,,,,,,,,,,,,,,,3,6,36,5,,,,,,,AFNE15.jpg,AFSA16.jpg,AFNE10.jpg,AFSA02.jpg,AFNE15.jpg,FN,3,num_8,16,num_8,0.833424102515,,,2017_Nov_29_1822,60.0136281018,FEMA4ImagesEEG,001,102451,
AFNE01.JPG,AFNE01.JPG,AFNE01.JPG,AFNE01.JPG,AFNE01.JPG,AFNE01.JPG,,,,,,,,,,,,,,,,,3,7,37,0,,,,,,,AFNE03.jpg,AFNE20.jpg,AFSA03.jpg,AFSA06.jpg,AFNE20.jpg,FN,3,num_6,32,num_4,1.49976714328,,,2017_Nov_29_1822,60.0136281018,FEMA4ImagesEEG,001,102451,
AFNE01.JPG,AFNE01.JPG,AFNE01.JPG,AFNE01.JPG,AFNE01.JPG,AFNE01.JPG,,,,,,,,,,,,,,,,,3,8,38,8,,,,,,,AFSA10.jpg,AFNE16.jpg,AFNE15.jpg,AFSA12.jpg,AFSA12.jpg,FS,4,num_4,32,num_6,0.83344751643,,,2017_Nov_29_1822,60.0136281018,FEMA4ImagesEEG,001,102451,
AFNE01.JPG,AFNE01.JPG,AFNE01.JPG,AFNE01.JPG,AFNE01.JPG,AFNE01.JPG,,,,,,,,,,,,,,,,,3,9,39,1,,,,,,,AFNE16.jpg,AFNE10.jpg,AFSA02.jpg,AFSA09.jpg,AFSA09.jpg,FS,4,num_4,32,num_8,1.15005943296,,,2017_Nov_29_1822,60.0136281018,FEMA4ImagesEEG,001,102451,
AFNE01.JPG,AFNE01.JPG,AFNE01.JPG,AFNE01.JPG,AFNE01.JPG,AFNE01.JPG,,,,,,,,,,,,,,,,,4,0,40,4,,,,,,,AFSA15.jpg,AFNE07.jpg,AFNE04.jpg,AFSA20.jpg,AFSA20.jpg,FS,4,num_4,16,num_4,1.08369047649,,,2017_Nov_29_1822,60.0136281018,FEMA4ImagesEEG,001,102451,
AFNE01.JPG,AFNE01.JPG,AFNE01.JPG,AFNE01.JPG,AFNE01.JPG,AFNE01.JPG,,,,,,,,,,,,,,,,,4,1,41,7,,,,,,,AFNE17.jpg,AFNE04.jpg,AFSA06.jpg,AFSA09.jpg,AFNE04.jpg,FN,3,num_6,16,num_6,0.783506821143,,,2017_Nov_29_1822,60.0136281018,FEMA4ImagesEEG,001,102451,
AFNE01.JPG,AFNE01.JPG,AFNE01.JPG,AFNE01.JPG,AFNE01.JPG,AFNE01.JPG,,,,,,,,,,,,,,,,,4,2,42,5,,,,,,,AFSA07.jpg,AFSA11.jpg,AFNE08.jpg,AFNE02.jpg,AFNE08.jpg,FN,3,num_2,32,num_4,1.01678396098,,,2017_Nov_29_1822,60.0136281018,FEMA4ImagesEEG,001,102451,
AFNE01.JPG,AFNE01.JPG,AFNE01.JPG,AFNE01.JPG,AFNE01.JPG,AFNE01.JPG,,,,,,,,,,,,,,,,,4,3,43,6,,,,,,,AFNE16.jpg,AFNE19.jpg,AFSA15.jpg,AFSA10.jpg,AFSA10.jpg,FS,4,num_4,32,num_8,0.933487993781,,,2017_Nov_29_1822,60.0136281018,FEMA4ImagesEEG,001,102451,
AFNE01.JPG,AFNE01.JPG,AFNE01.JPG,AFNE01.JPG,AFNE01.JPG,AFNE01.JPG,,,,,,,,,,,,,,,,,4,4,44,1,,,,,,,AFSA20.jpg,AFNE13.jpg,AFSA10.jpg,AFNE06.jpg,AFNE13.jpg,FN,3,num_6,32,num_8,1.45010388747,,,2017_Nov_29_1822,60.0136281018,FEMA4ImagesEEG,001,102451,
AFNE01.JPG,AFNE01.JPG,AFNE01.JPG,AFNE01.JPG,AFNE01.JPG,AFNE01.JPG,,,,,,,,,,,,,,,,,4,5,45,2,,,,,,,AFNE09.jpg,AFNE04.jpg,AFSA13.jpg,AFSA05.jpg,AFNE09.jpg,FN,3,num_8,32,num_6,1.00010873063,,,2017_Nov_29_1822,60.0136281018,FEMA4ImagesEEG,001,102451,
AFNE01.JPG,AFNE01.JPG,AFNE01.JPG,AFNE01.JPG,AFNE01.JPG,AFNE01.JPG,,,,,,,,,,,,,,,,,4,6,46,0,,,,,,,AFSA06.jpg,AFNE08.jpg,AFSA10.jpg,AFNE12.jpg,AFSA10.jpg,FS,4,num_2,16,num_2,0.700096029323,,,2017_Nov_29_1822,60.0136281018,FEMA4ImagesEEG,001,102451,
AFNE01.JPG,AFNE01.JPG,AFNE01.JPG,AFNE01.JPG,AFNE01.JPG,AFNE01.JPG,,,,,,,,,,,,,,,,,4,7,47,8,,,,,,,AFNE14.jpg,AFNE08.jpg,AFSA07.jpg,AFSA18.jpg,AFSA07.jpg,FS,4,num_2,16,num_2,0.566773729399,,,2017_Nov_29_1822,60.0136281018,FEMA4ImagesEEG,001,102451,
AFNE01.JPG,AFNE01.JPG,AFNE01.JPG,AFNE01.JPG,AFNE01.JPG,AFNE01.JPG,,,,,,,,,,,,,,,,,4,8,48,9,,,,,,,AFSA13.jpg,AFNE18.jpg,AFSA06.jpg,AFNE11.jpg,AFSA13.jpg,FS,4,num_8,16,num_8,1.24979360437,,,2017_Nov_29_1822,60.0136281018,FEMA4ImagesEEG,001,102451,
AFNE01.JPG,AFNE01.JPG,AFNE01.JPG,AFNE01.JPG,AFNE01.JPG,AFNE01.JPG,,,,,,,,,,,,,,,,,4,9,49,3,,,,,,,AFNE08.jpg,AFSA07.jpg,AFSA17.jpg,AFNE11.jpg,AFSA17.jpg,FS,4,num_2,16,num_2,0.733478564071,,,2017_Nov_29_1822,60.0136281018,FEMA4ImagesEEG,001,102451,
AFNE01.JPG,AFNE01.JPG,AFNE01.JPG,AFNE01.JPG,AFNE01.JPG,AFNE01.JPG,,,,,,,,,,,,,,,,,5,0,50,4,,,,,,,AFNE18.jpg,AFNE05.jpg,AFSA07.jpg,AFSA11.jpg,AFNE05.jpg,FN,3,num_6,32,num_2,0.700003656326,,,2017_Nov_29_1822,60.0136281018,FEMA4ImagesEEG,001,102451,
AFNE01.JPG,AFNE01.JPG,AFNE01.JPG,AFNE01.JPG,AFNE01.JPG,AFNE01.JPG,,,,,,,,,,,,,,,,,5,1,51,0,,,,,,,AFNE17.jpg,AFSA18.jpg,AFSA08.jpg,AFNE18.jpg,AFSA18.jpg,FS,4,num_6,32,num_8,1.18346057064,,,2017_Nov_29_1822,60.0136281018,FEMA4ImagesEEG,001,102451,
AFNE01.JPG,AFNE01.JPG,AFNE01.JPG,AFNE01.JPG,AFNE01.JPG,AFNE01.JPG,,,,,,,,,,,,,,,,,5,2,52,1,,,,,,,AFSA06.jpg,AFNE09.jpg,AFNE17.jpg,AFSA07.jpg,AFNE17.jpg,FN,3,num_2,32,num_8,1.35004993912,,,2017_Nov_29_1822,60.0136281018,FEMA4ImagesEEG,001,102451,
AFNE01.JPG,AFNE01.JPG,AFNE01.JPG,AFNE01.JPG,AFNE01.JPG,AFNE01.JPG,,,,,,,,,,,,,,,,,5,3,53,6,,,,,,,AFSA03.jpg,AFNE09.jpg,AFNE07.jpg,AFSA06.jpg,AFNE07.jpg,FN,3,num_2,16,num_2,0.633519554511,,,2017_Nov_29_1822,60.0136281018,FEMA4ImagesEEG,001,102451,
AFNE01.JPG,AFNE01.JPG,AFNE01.JPG,AFNE01.JPG,AFNE01.JPG,AFNE01.JPG,,,,,,,,,,,,,,,,,5,4,54,5,,,,,,,AFNE11.jpg,AFNE10.jpg,AFSA01.jpg,AFSA06.jpg,AFNE11.jpg,FN,3,num_8,16,num_8,0.566792011494,,,2017_Nov_29_1822,60.0136281018,FEMA4ImagesEEG,001,102451,
AFNE01.JPG,AFNE01.JPG,AFNE01.JPG,AFNE01.JPG,AFNE01.JPG,AFNE01.JPG,,,,,,,,,,,,,,,,,5,5,55,8,,,,,,,AFNE01.jpg,AFSA14.jpg,AFNE11.jpg,AFSA13.jpg,AFSA13.jpg,FS,4,num_4,16,num_4,0.566783030867,,,2017_Nov_29_1822,60.0136281018,FEMA4ImagesEEG,001,102451,
AFNE01.JPG,AFNE01.JPG,AFNE01.JPG,AFNE01.JPG,AFNE01.JPG,AFNE01.JPG,,,,,,,,,,,,,,,,,5,6,56,3,,,,,,,AFSA13.jpg,AFNE14.jpg,AFSA12.jpg,AFNE13.jpg,AFSA12.jpg,FS,4,num_2,16,num_2,1.11679589248,,,2017_Nov_29_1822,60.0136281018,FEMA4ImagesEEG,001,102451,
AFNE01.JPG,AFNE01.JPG,AFNE01.JPG,AFNE01.JPG,AFNE01.JPG,AFNE01.JPG,,,,,,,,,,,,,,,,,5,7,57,9,,,,,,,AFNE01.jpg,AFNE11.jpg,AFSA10.jpg,AFSA19.jpg,AFNE01.jpg,FN,3,num_8,16,num_8,1.03343898489,,,2017_Nov_29_1822,60.0136281018,FEMA4ImagesEEG,001,102451,
AFNE01.JPG,AFNE01.JPG,AFNE01.JPG,AFNE01.JPG,AFNE01.JPG,AFNE01.JPG,,,,,,,,,,,,,,,,,5,8,58,7,,,,,,,AFNE03.jpg,AFNE20.jpg,AFSA16.jpg,AFSA20.jpg,AFSA20.jpg,FS,4,num_4,32,num_6,1.10015883006,,,2017_Nov_29_1822,60.0136281018,FEMA4ImagesEEG,001,102451,
AFNE01.JPG,AFNE01.JPG,AFNE01.JPG,AFNE01.JPG,AFNE01.JPG,AFNE01.JPG,,,,,,,,,,,,,,,,,5,9,59,2,,,,,,,AFSA07.jpg,AFNE12.jpg,AFSA11.jpg,AFNE19.jpg,AFNE19.jpg,FN,3,num_4,16,num_4,0.616800062126,,,2017_Nov_29_1822,60.0136281018,FEMA4ImagesEEG,001,102451,
,,,,,,,,,,,,,,,,,,,,,,,,,,,,,,,,,,,,,,,,,,,space,12.2655646709,2017_Nov_29_1822,60.0136281018,FEMA4ImagesEEG,001,102451,
AFNE01.JPG,AFNE01.JPG,AFNE01.JPG,AFNE01.JPG,AFNE01.JPG,AFNE01.JPG,,,,,,,,,,,,,,,,,,,,,0,0,0,8,,,AMNE13.jpg,AMSA08.jpg,AMNE14.jpg,AMSA07.jpg,AMNE14.jpg,MN,1,num_2,32,num_6,0.866759488592,,,2017_Nov_29_1822,60.0136281018,FEMA4ImagesEEG,001,102451,
AFNE01.JPG,AFNE01.JPG,AFNE01.JPG,AFNE01.JPG,AFNE01.JPG,AFNE01.JPG,,,,,,,,,,,,,,,,,,,,,0,1,1,9,,,AMNE17.jpg,AMSA09.jpg,AMSA16.jpg,AMNE10.jpg,AMNE10.jpg,MN,1,num_4,16,num_4,0.650146032451,,,2017_Nov_29_1822,60.0136281018,FEMA4ImagesEEG,001,102451,
AFNE01.JPG,AFNE01.JPG,AFNE01.JPG,AFNE01.JPG,AFNE01.JPG,AFNE01.JPG,,,,,,,,,,,,,,,,,,,,,0,2,2,7,,,AMNE15.jpg,AMSA19.jpg,AMSA11.jpg,AMNE09.jpg,AMNE09.jpg,MN,1,num_4,16,num_4,0.616811287939,,,2017_Nov_29_1822,60.0136281018,FEMA4ImagesEEG,001,102451,
AFNE01.JPG,AFNE01.JPG,AFNE01.JPG,AFNE01.JPG,AFNE01.JPG,AFNE01.JPG,,,,,,,,,,,,,,,,,,,,,0,3,3,5,,,AMSA06.jpg,AMSA04.jpg,AMNE17.jpg,AMNE07.jpg,AMNE17.jpg,MN,1,num_2,32,num_8,0.900180832716,,,2017_Nov_29_1822,60.0136281018,FEMA4ImagesEEG,001,102451,
AFNE01.JPG,AFNE01.JPG,AFNE01.JPG,AFNE01.JPG,AFNE01.JPG,AFNE01.JPG,,,,,,,,,,,,,,,,,,,,,0,4,4,0,,,AMSA13.jpg,AMSA02.jpg,AMNE15.jpg,AMNE02.jpg,AMSA02.jpg,MS,2,num_6,16,num_6,0.5666592255,,,2017_Nov_29_1822,60.0136281018,FEMA4ImagesEEG,001,102451,
AFNE01.JPG,AFNE01.JPG,AFNE01.JPG,AFNE01.JPG,AFNE01.JPG,AFNE01.JPG,,,,,,,,,,,,,,,,,,,,,0,5,5,3,,,AMNE13.jpg,AMNE08.jpg,AMSA08.jpg,AMSA12.jpg,AMSA12.jpg,MS,2,num_4,16,num_4,1.3334385358,,,2017_Nov_29_1822,60.0136281018,FEMA4ImagesEEG,001,102451,
AFNE01.JPG,AFNE01.JPG,AFNE01.JPG,AFNE01.JPG,AFNE01.JPG,AFNE01.JPG,,,,,,,,,,,,,,,,,,,,,0,6,6,6,,,AMNE08.jpg,AMSA20.jpg,AMSA05.jpg,AMNE19.jpg,AMNE19.jpg,MN,1,num_4,32,num_6,0.600157547044,,,2017_Nov_29_1822,60.0136281018,FEMA4ImagesEEG,001,102451,
AFNE01.JPG,AFNE01.JPG,AFNE01.JPG,AFNE01.JPG,AFNE01.JPG,AFNE01.JPG,,,,,,,,,,,,,,,,,,,,,0,7,7,4,,,AMSA15.jpg,AMSA19.jpg,AMNE02.jpg,AMNE10.jpg,AMNE02.jpg,MN,1,num_2,16,num_2,0.833407744882,,,2017_Nov_29_1822,60.0136281018,FEMA4ImagesEEG,001,102451,
AFNE01.JPG,AFNE01.JPG,AFNE01.JPG,AFNE01.JPG,AFNE01.JPG,AFNE01.JPG,,,,,,,,,,,,,,,,,,,,,0,8,8,1,,,AMSA08.jpg,AMNE03.jpg,AMSA18.jpg,AMNE09.jpg,AMSA18.jpg,MS,2,num_2,16,num_2,0.466818889487,,,2017_Nov_29_1822,60.0136281018,FEMA4ImagesEEG,001,102451,
AFNE01.JPG,AFNE01.JPG,AFNE01.JPG,AFNE01.JPG,AFNE01.JPG,AFNE01.JPG,,,,,,,,,,,,,,,,,,,,,0,9,9,2,,,AMNE10.jpg,AMSA15.jpg,AMNE17.jpg,AMSA02.jpg,AMNE10.jpg,MN,1,num_8,16,num_8,0.683513492579,,,2017_Nov_29_1822,60.0136281018,FEMA4ImagesEEG,001,102451,
AFNE01.JPG,AFNE01.JPG,AFNE01.JPG,AFNE01.JPG,AFNE01.JPG,AFNE01.JPG,,,,,,,,,,,,,,,,,,,,,1,0,10,4,,,AMSA13.jpg,AMNE15.jpg,AMNE18.jpg,AMSA04.jpg,AMSA13.jpg,MS,2,num_8,32,num_6,0.600129963597,,,2017_Nov_29_1822,60.0136281018,FEMA4ImagesEEG,001,102451,
AFNE01.JPG,AFNE01.JPG,AFNE01.JPG,AFNE01.JPG,AFNE01.JPG,AFNE01.JPG,,,,,,,,,,,,,,,,,,,,,1,1,11,5,,,AMSA09.jpg,AMNE17.jpg,AMNE18.jpg,AMSA19.jpg,AMNE18.jpg,MN,1,num_2,32,num_6,0.933442769572,,,2017_Nov_29_1822,60.0136281018,FEMA4ImagesEEG,001,102451,
AFNE01.JPG,AFNE01.JPG,AFNE01.JPG,AFNE01.JPG,AFNE01.JPG,AFNE01.JPG,,,,,,,,,,,,,,,,,,,,,1,2,12,2,,,AMNE11.jpg,AMNE12.jpg,AMSA19.jpg,AMSA16.jpg,AMNE11.jpg,MN,1,num_8,32,num_6,0.900169286062,,,2017_Nov_29_1822,60.0136281018,FEMA4ImagesEEG,001,102451,
AFNE01.JPG,AFNE01.JPG,AFNE01.JPG,AFNE01.JPG,AFNE01.JPG,AFNE01.JPG,,,,,,,,,,,,,,,,,,,,,1,3,13,7,,,AMSA17.jpg,AMNE18.jpg,AMSA08.jpg,AMNE12.jpg,AMSA17.jpg,MS,2,num_8,16,num_8,1.41673161637,,,2017_Nov_29_1822,60.0136281018,FEMA4ImagesEEG,001,102451,
AFNE01.JPG,AFNE01.JPG,AFNE01.JPG,AFNE01.JPG,AFNE01.JPG,AFNE01.JPG,,,,,,,,,,,,,,,,,,,,,1,4,14,8,,,AMNE10.jpg,AMSA13.jpg,AMSA12.jpg,AMNE14.jpg,AMSA12.jpg,MS,2,num_2,16,num_2,0.933507558773,,,2017_Nov_29_1822,60.0136281018,FEMA4ImagesEEG,001,102451,
AFNE01.JPG,AFNE01.JPG,AFNE01.JPG,AFNE01.JPG,AFNE01.JPG,AFNE01.JPG,,,,,,,,,,,,,,,,,,,,,1,5,15,6,,,AMNE10.jpg,AMSA05.jpg,AMSA18.jpg,AMNE05.jpg,AMNE05.jpg,MN,1,num_4,16,num_4,0.866812731256,,,2017_Nov_29_1822,60.0136281018,FEMA4ImagesEEG,001,102451,
AFNE01.JPG,AFNE01.JPG,AFNE01.JPG,AFNE01.JPG,AFNE01.JPG,AFNE01.JPG,,,,,,,,,,,,,,,,,,,,,1,6,16,3,,,AMNE02.jpg,AMSA10.jpg,AMNE14.jpg,AMSA06.jpg,AMSA06.jpg,MS,2,num_4,32,num_6,1.06673139194,,,2017_Nov_29_1822,60.0136281018,FEMA4ImagesEEG,001,102451,
AFNE01.JPG,AFNE01.JPG,AFNE01.JPG,AFNE01.JPG,AFNE01.JPG,AFNE01.JPG,,,,,,,,,,,,,,,,,,,,,1,7,17,9,,,AMNE17.jpg,AMSA19.jpg,AMSA05.jpg,AMNE02.jpg,AMSA05.jpg,MS,2,num_2,32,num_4,0.86682940973,,,2017_Nov_29_1822,60.0136281018,FEMA4ImagesEEG,001,102451,
AFNE01.JPG,AFNE01.JPG,AFNE01.JPG,AFNE01.JPG,AFNE01.JPG,AFNE01.JPG,,,,,,,,,,,,,,,,,,,,,1,8,18,0,,,AMNE07.jpg,AMNE02.jpg,AMSA17.jpg,AMSA19.jpg,AMSA19.jpg,MS,2,num_4,16,num_4,0.950150073855,,,2017_Nov_29_1822,60.0136281018,FEMA4ImagesEEG,001,102451,
AFNE01.JPG,AFNE01.JPG,AFNE01.JPG,AFNE01.JPG,AFNE01.JPG,AFNE01.JPG,,,,,,,,,,,,,,,,,,,,,1,9,19,1,,,AMNE20.jpg,AMSA11.jpg,AMNE11.jpg,AMSA03.jpg,AMNE11.jpg,MN,1,num_2,32,num_8,0.883491810528,,,2017_Nov_29_1822,60.0136281018,FEMA4ImagesEEG,001,102451,
AFNE01.JPG,AFNE01.JPG,AFNE01.JPG,AFNE01.JPG,AFNE01.JPG,AFNE01.JPG,,,,,,,,,,,,,,,,,,,,,2,0,20,8,,,AMNE16.jpg,AMNE17.jpg,AMSA04.jpg,AMSA10.jpg,AMSA04.jpg,MS,2,num_2,16,num_2,0.56681574625,,,2017_Nov_29_1822,60.0136281018,FEMA4ImagesEEG,001,102451,
AFNE01.JPG,AFNE01.JPG,AFNE01.JPG,AFNE01.JPG,AFNE01.JPG,AFNE01.JPG,,,,,,,,,,,,,,,,,,,,,2,1,21,5,,,AMSA18.jpg,AMNE14.jpg,AMSA02.jpg,AMNE20.jpg,AMSA18.jpg,MS,2,num_8,16,num_8,1.05012223369,,,2017_Nov_29_1822,60.0136281018,FEMA4ImagesEEG,001,102451,
AFNE01.JPG,AFNE01.JPG,AFNE01.JPG,AFNE01.JPG,AFNE01.JPG,AFNE01.JPG,,,,,,,,,,,,,,,,,,,,,2,2,22,9,,,AMNE07.jpg,AMNE12.jpg,AMSA18.jpg,AMSA12.jpg,AMSA18.jpg,MS,2,num_2,16,num_2,0.51687922061,,,2017_Nov_29_1822,60.0136281018,FEMA4ImagesEEG,001,102451,
AFNE01.JPG,AFNE01.JPG,AFNE01.JPG,AFNE01.JPG,AFNE01.JPG,AFNE01.JPG,,,,,,,,,,,,,,,,,,,,,2,3,23,2,,,AMNE07.jpg,AMSA17.jpg,AMNE15.jpg,AMSA19.jpg,AMSA19.jpg,MS,2,num_4,32,num_8,1.01672975603,,,2017_Nov_29_1822,60.0136281018,FEMA4ImagesEEG,001,102451,
AFNE01.JPG,AFNE01.JPG,AFNE01.JPG,AFNE01.JPG,AFNE01.JPG,AFNE01.JPG,,,,,,,,,,,,,,,,,,,,,2,4,24,1,,,AMSA09.jpg,AMNE11.jpg,AMNE13.jpg,AMSA01.jpg,AMSA01.jpg,MS,2,num_4,16,num_4,0.716763241333,,,2017_Nov_29_1822,60.0136281018,FEMA4ImagesEEG,001,102451,
AFNE01.JPG,AFNE01.JPG,AFNE01.JPG,AFNE01.JPG,AFNE01.JPG,AFNE01.JPG,,,,,,,,,,,,,,,,,,,,,2,5,25,7,,,AMSA15.jpg,AMNE07.jpg,AMNE11.jpg,AMSA03.jpg,AMNE11.jpg,MN,1,num_2,16,num_2,0.850208384218,,,2017_Nov_29_1822,60.0136281018,FEMA4ImagesEEG,001,102451,
AFNE01.JPG,AFNE01.JPG,AFNE01.JPG,AFNE01.JPG,AFNE01.JPG,AFNE01.JPG,,,,,,,,,,,,,,,,,,,,,2,6,26,6,,,AMNE12.jpg,AMSA05.jpg,AMNE06.jpg,AMSA09.jpg,AMNE12.jpg,MN,1,num_8,32,num_4,0.799981589545,,,2017_Nov_29_1822,60.0136281018,FEMA4ImagesEEG,001,102451,
AFNE01.JPG,AFNE01.JPG,AFNE01.JPG,AFNE01.JPG,AFNE01.JPG,AFNE01.JPG,,,,,,,,,,,,,,,,,,,,,2,7,27,3,,,AMNE01.jpg,AMSA13.jpg,AMSA18.jpg,AMNE07.jpg,AMNE07.jpg,MN,1,num_4,32,num_6,1.03344956913,,,2017_Nov_29_1822,60.0136281018,FEMA4ImagesEEG,001,102451,
AFNE01.JPG,AFNE01.JPG,AFNE01.JPG,AFNE01.JPG,AFNE01.JPG,AFNE01.JPG,,,,,,,,,,,,,,,,,,,,,2,8,28,0,,,AMNE20.jpg,AMNE09.jpg,AMSA16.jpg,AMSA14.jpg,AMNE09.jpg,MN,1,num_6,32,num_8,1.13339350407,,,2017_Nov_29_1822,60.0136281018,FEMA4ImagesEEG,001,102451,
AFNE01.JPG,AFNE01.JPG,AFNE01.JPG,AFNE01.JPG,AFNE01.JPG,AFNE01.JPG,,,,,,,,,,,,,,,,,,,,,2,9,29,4,,,AMSA20.jpg,AMNE01.jpg,AMSA16.jpg,AMNE06.jpg,AMSA20.jpg,MS,2,num_8,32,num_4,1.00023381889,,,2017_Nov_29_1822,60.0136281018,FEMA4ImagesEEG,001,102451,
AFNE01.JPG,AFNE01.JPG,AFNE01.JPG,AFNE01.JPG,AFNE01.JPG,AFNE01.JPG,,,,,,,,,,,,,,,,,,,,,3,0,30,9,,,AMSA10.jpg,AMNE01.jpg,AMSA07.jpg,AMNE15.jpg,AMNE15.jpg,MN,1,num_4,32,num_2,0.80010347045,,,2017_Nov_29_1822,60.0136281018,FEMA4ImagesEEG,001,102451,
AFNE01.JPG,AFNE01.JPG,AFNE01.JPG,AFNE01.JPG,AFNE01.JPG,AFNE01.JPG,,,,,,,,,,,,,,,,,,,,,3,1,31,6,,,AMNE16.jpg,AMSA06.jpg,AMNE10.jpg,AMSA12.jpg,AMNE10.jpg,MN,1,num_2,32,num_4,0.716797881178,,,2017_Nov_29_1822,60.0136281018,FEMA4ImagesEEG,001,102451,
AFNE01.JPG,AFNE01.JPG,AFNE01.JPG,AFNE01.JPG,AFNE01.JPG,AFNE01.JPG,,,,,,,,,,,,,,,,,,,,,3,2,32,3,,,AMNE16.jpg,AMSA11.jpg,AMNE05.jpg,AMSA04.jpg,AMNE16.jpg,MN,1,num_8,16,num_8,1.3167430989,,,2017_Nov_29_1822,60.0136281018,FEMA4ImagesEEG,001,102451,
AFNE01.JPG,AFNE01.JPG,AFNE01.JPG,AFNE01.JPG,AFNE01.JPG,AFNE01.JPG,,,,,,,,,,,,,,,,,,,,,3,3,33,4,,,AMNE06.jpg,AMSA10.jpg,AMNE08.jpg,AMSA03.jpg,AMNE08.jpg,MN,1,num_2,32,num_8,1.11672180169,,,2017_Nov_29_1822,60.0136281018,FEMA4ImagesEEG,001,102451,
AFNE01.JPG,AFNE01.JPG,AFNE01.JPG,AFNE01.JPG,AFNE01.JPG,AFNE01.JPG,,,,,,,,,,,,,,,,,,,,,3,4,34,1,,,AMNE10.jpg,AMSA04.jpg,AMNE06.jpg,AMSA06.jpg,AMSA06.jpg,MS,2,num_4,32,num_2,1.43342737411,,,2017_Nov_29_1822,60.0136281018,FEMA4ImagesEEG,001,102451,
AFNE01.JPG,AFNE01.JPG,AFNE01.JPG,AFNE01.JPG,AFNE01.JPG,AFNE01.JPG,,,,,,,,,,,,,,,,,,,,,3,5,35,7,,,AMSA05.jpg,AMSA19.jpg,AMNE03.jpg,AMNE09.jpg,AMNE03.jpg,MN,1,num_2,16,num_2,1.30007941509,,,2017_Nov_29_1822,60.0136281018,FEMA4ImagesEEG,001,102451,
AFNE01.JPG,AFNE01.JPG,AFNE01.JPG,AFNE01.JPG,AFNE01.JPG,AFNE01.JPG,,,,,,,,,,,,,,,,,,,,,3,6,36,8,,,AMSA12.jpg,AMNE15.jpg,AMNE10.jpg,AMSA02.jpg,AMSA02.jpg,MS,2,num_4,16,num_4,0.666801697924,,,2017_Nov_29_1822,60.0136281018,FEMA4ImagesEEG,001,102451,
AFNE01.JPG,AFNE01.JPG,AFNE01.JPG,AFNE01.JPG,AFNE01.JPG,AFNE01.JPG,,,,,,,,,,,,,,,,,,,,,3,7,37,0,,,AMNE05.jpg,AMNE07.jpg,AMSA10.jpg,AMSA01.jpg,AMNE05.jpg,MN,1,num_8,16,num_8,0.76679085684,,,2017_Nov_29_1822,60.0136281018,FEMA4ImagesEEG,001,102451,
AFNE01.JPG,AFNE01.JPG,AFNE01.JPG,AFNE01.JPG,AFNE01.JPG,AFNE01.JPG,,,,,,,,,,,,,,,,,,,,,3,8,38,5,,,AMSA18.jpg,AMNE06.jpg,AMSA05.jpg,AMNE18.jpg,AMSA18.jpg,MS,2,num_8,32,num_2,1.28342054226,,,2017_Nov_29_1822,60.0136281018,FEMA4ImagesEEG,001,102451,
