IPosition2,IPosition3,IPosition1,IPosition6,IPosition4,IPosition5,TrialsF1.thisRepN,TrialsF1.thisTrialN,TrialsF1.thisN,TrialsF1.thisIndex,TrialsM1.thisRepN,TrialsM1.thisTrialN,TrialsM1.thisN,TrialsM1.thisIndex,TrialsF2.thisRepN,TrialsF2.thisTrialN,TrialsF2.thisN,TrialsF2.thisIndex,TrialsM2.thisRepN,TrialsM2.thisTrialN,TrialsM2.thisN,TrialsM2.thisIndex,TrialsF3.thisRepN,TrialsF3.thisTrialN,TrialsF3.thisN,TrialsF3.thisIndex,TrialsM3.thisRepN,TrialsM3.thisTrialN,TrialsM3.thisN,TrialsM3.thisIndex,InstrKey_resp.keys,InstrKey_resp.rt,Image0 _Position,Image1 _Position,Image2 _Position,Image3 _Position,Center_image,condition,code,correct_answer,accuracy,Key_Resp.keys,Key_Resp.rt,BreakKey_resp.keys,BreakKey_resp.rt,date,frameRate,expName,session,participant,
,,,,,,,,,,,,,,,,,,,,,,,,,,,,,,space,19.8323242879,,,,,,,,,,,,,,2017_Dec_12_1522,60.0099317403,FEMA4ImagesEEG,001,102477,
AFSA21.JPG,AFNE22.JPG,AFNE21.JPG,AFSA23.JPG,AFSA22.JPG,AFNE23.JPG,0,0,0,0,,,,,,,,,,,,,,,,,,,,,,,AFNE03.jpg,AFNE10.jpg,AFSA10.jpg,AFSA06.jpg,AFNE03.jpg,FN,3,num_8,32,num_2,2.0500834242,,,2017_Dec_12_1522,60.0099317403,FEMA4ImagesEEG,001,102477,
AMSA25.JPG,AMNE24.JPG,AMSA24.JPG,AMNE26.JPG,AMSA21.JPG,AMNE25.JPG,0,1,1,3,,,,,,,,,,,,,,,,,,,,,,,AFSA19.jpg,AFNE10.jpg,AFNE01.jpg,AFSA15.jpg,AFSA19.jpg,FS,4,num_8,16,num_8,2.76666769292,,,2017_Dec_12_1522,60.0099317403,FEMA4ImagesEEG,001,102477,
AMNE22.JPG,AMSA24.JPG,AMSA22.JPG,AMNE25.JPG,AMNE24.JPG,AMSA25.JPG,0,2,2,7,,,,,,,,,,,,,,,,,,,,,,,AFNE19.jpg,AFSA07.jpg,AFNE12.jpg,AFSA03.jpg,AFSA03.jpg,FS,4,num_4,16,num_4,1.51674900041,,,2017_Dec_12_1522,60.0099317403,FEMA4ImagesEEG,001,102477,
AFNE23.JPG,AFNE24.JPG,AFNE22.JPG,AFSA24.JPG,AFSA22.JPG,AFSA23.JPG,0,3,3,8,,,,,,,,,,,,,,,,,,,,,,,AFSA20.jpg,AFSA18.jpg,AFNE01.jpg,AFNE19.jpg,AFNE19.jpg,FN,3,num_4,32,num_8,2.15003345301,,,2017_Dec_12_1522,60.0099317403,FEMA4ImagesEEG,001,102477,
AFSA25.JPG,AFNE24.JPG,AFSA24.JPG,AFNE21.JPG,AFSA21.JPG,AFNE25.JPG,0,4,4,2,,,,,,,,,,,,,,,,,,,,,,,AFSA13.jpg,AFSA15.jpg,AFNE17.jpg,AFNE12.jpg,AFSA13.jpg,FS,4,num_8,32,num_2,3.31632806244,,,2017_Dec_12_1522,60.0099317403,FEMA4ImagesEEG,001,102477,
AFSA21.JPG,AFNE23.JPG,AFNE21.JPG,AFSA25.JPG,AFNE25.JPG,AFSA23.JPG,0,5,5,4,,,,,,,,,,,,,,,,,,,,,,,AFNE04.jpg,AFSA10.jpg,AFSA13.jpg,AFNE15.jpg,AFNE15.jpg,FN,3,num_4,16,num_4,2.10002796841,,,2017_Dec_12_1522,60.0099317403,FEMA4ImagesEEG,001,102477,
AFNE22.JPG,AFSA24.JPG,AFSA22.JPG,AFNE25.JPG,AFNE24.JPG,AFSA25.JPG,0,6,6,6,,,,,,,,,,,,,,,,,,,,,,,AFNE01.jpg,AFNE14.jpg,AFSA08.jpg,AFSA01.jpg,AFSA08.jpg,FS,4,num_2,16,num_2,2.66666057264,,,2017_Dec_12_1522,60.0099317403,FEMA4ImagesEEG,001,102477,
AMSA21.JPG,AMNE22.JPG,AMNE21.JPG,AMSA23.JPG,AMSA22.JPG,AMNE23.JPG,0,7,7,1,,,,,,,,,,,,,,,,,,,,,,,AFNE15.jpg,AFNE07.jpg,AFSA18.jpg,AFSA04.jpg,AFSA18.jpg,FS,4,num_2,16,num_2,0.750089967391,,,2017_Dec_12_1522,60.0099317403,FEMA4ImagesEEG,001,102477,
AMNE23.JPG,AMNE24.JPG,AMNE22.JPG,AMSA24.JPG,AMSA22.JPG,AMSA23.JPG,0,8,8,9,,,,,,,,,,,,,,,,,,,,,,,AFSA12.jpg,AFNE16.jpg,AFSA08.jpg,AFNE03.jpg,AFNE16.jpg,FN,3,num_6,32,num_8,1.21674944949,,,2017_Dec_12_1522,60.0099317403,FEMA4ImagesEEG,001,102477,
AMSA21.JPG,AMNE23.JPG,AMNE21.JPG,AMSA25.JPG,AMNE25.JPG,AMSA23.JPG,0,9,9,5,,,,,,,,,,,,,,,,,,,,,,,AFSA20.jpg,AFNE02.jpg,AFSA05.jpg,AFNE13.jpg,AFSA05.jpg,FS,4,num_2,32,num_6,1.11675900733,,,2017_Dec_12_1522,60.0099317403,FEMA4ImagesEEG,001,102477,
AMSA21.JPG,AMNE23.JPG,AMNE21.JPG,AMSA25.JPG,AMNE25.JPG,AMSA23.JPG,,,,,0,0,0,5,,,,,,,,,,,,,,,,,,,AMNE19.jpg,AMNE02.jpg,AMSA17.jpg,AMSA13.jpg,AMNE02.jpg,MN,1,num_6,16,num_6,0.800132016419,,,2017_Dec_12_1522,60.0099317403,FEMA4ImagesEEG,001,102477,
AFSA21.JPG,AFNE23.JPG,AFNE21.JPG,AFSA25.JPG,AFNE25.JPG,AFSA23.JPG,,,,,0,1,1,4,,,,,,,,,,,,,,,,,,,AMSA06.jpg,AMNE09.jpg,AMSA17.jpg,AMNE16.jpg,AMSA17.jpg,MS,2,num_2,16,num_2,1.15009439364,,,2017_Dec_12_1522,60.0099317403,FEMA4ImagesEEG,001,102477,
AFSA25.JPG,AFNE24.JPG,AFSA24.JPG,AFNE21.JPG,AFSA21.JPG,AFNE25.JPG,,,,,0,2,2,2,,,,,,,,,,,,,,,,,,,AMSA15.jpg,AMSA14.jpg,AMNE18.jpg,AMNE04.jpg,AMNE04.jpg,MN,1,num_4,16,num_4,0.916783255292,,,2017_Dec_12_1522,60.0099317403,FEMA4ImagesEEG,001,102477,
AFSA21.JPG,AFNE22.JPG,AFNE21.JPG,AFSA23.JPG,AFSA22.JPG,AFNE23.JPG,,,,,0,3,3,0,,,,,,,,,,,,,,,,,,,AMSA19.jpg,AMNE19.jpg,AMSA05.jpg,AMNE06.jpg,AMNE06.jpg,MN,1,num_4,16,num_4,2.68331880379,,,2017_Dec_12_1522,60.0099317403,FEMA4ImagesEEG,001,102477,
AFNE22.JPG,AFSA24.JPG,AFSA22.JPG,AFNE25.JPG,AFNE24.JPG,AFSA25.JPG,,,,,0,4,4,6,,,,,,,,,,,,,,,,,,,AMSA03.jpg,AMNE19.jpg,AMSA19.jpg,AMNE06.jpg,AMSA03.jpg,MS,2,num_8,32,num_2,1.28343625856,,,2017_Dec_12_1522,60.0099317403,FEMA4ImagesEEG,001,102477,
AMNE23.JPG,AMNE24.JPG,AMNE22.JPG,AMSA24.JPG,AMSA22.JPG,AMSA23.JPG,,,,,0,5,5,9,,,,,,,,,,,,,,,,,,,AMNE10.jpg,AMSA13.jpg,AMNE07.jpg,AMSA06.jpg,AMNE07.jpg,MN,1,num_2,32,num_8,1.01681731781,,,2017_Dec_12_1522,60.0099317403,FEMA4ImagesEEG,001,102477,
AMSA21.JPG,AMNE22.JPG,AMNE21.JPG,AMSA23.JPG,AMSA22.JPG,AMNE23.JPG,,,,,0,6,6,1,,,,,,,,,,,,,,,,,,,AMNE06.jpg,AMSA19.jpg,AMNE03.jpg,AMSA09.jpg,AMSA09.jpg,MS,2,num_4,16,num_4,1.31673796708,,,2017_Dec_12_1522,60.0099317403,FEMA4ImagesEEG,001,102477,
AFNE23.JPG,AFNE24.JPG,AFNE22.JPG,AFSA24.JPG,AFSA22.JPG,AFSA23.JPG,,,,,0,7,7,8,,,,,,,,,,,,,,,,,,,AMNE08.jpg,AMNE01.jpg,AMSA15.jpg,AMSA14.jpg,AMNE01.jpg,MN,1,num_6,32,num_8,1.23344969749,,,2017_Dec_12_1522,60.0099317403,FEMA4ImagesEEG,001,102477,
AMNE22.JPG,AMSA24.JPG,AMSA22.JPG,AMNE25.JPG,AMNE24.JPG,AMSA25.JPG,,,,,0,8,8,7,,,,,,,,,,,,,,,,,,,AMNE18.jpg,AMNE17.jpg,AMSA17.jpg,AMSA13.jpg,AMNE17.jpg,MN,1,num_6,32,num_4,2.38331732852,,,2017_Dec_12_1522,60.0099317403,FEMA4ImagesEEG,001,102477,
AMSA25.JPG,AMNE24.JPG,AMSA24.JPG,AMNE26.JPG,AMSA21.JPG,AMNE25.JPG,,,,,0,9,9,3,,,,,,,,,,,,,,,,,,,AMSA04.jpg,AMNE15.jpg,AMSA17.jpg,AMNE04.jpg,AMSA17.jpg,MS,2,num_2,16,num_2,2.40002751956,,,2017_Dec_12_1522,60.0099317403,FEMA4ImagesEEG,001,102477,
AFNE22.JPG,AFSA24.JPG,AFSA22.JPG,AFNE25.JPG,AFNE24.JPG,AFSA25.JPG,,,,,,,,,0,0,0,6,,,,,,,,,,,,,,,AFSA03.jpg,AFNE01.jpg,AFSA19.jpg,AFNE12.jpg,AFNE12.jpg,FN,3,num_4,32,num_6,2.26658782898,,,2017_Dec_12_1522,60.0099317403,FEMA4ImagesEEG,001,102477,
AFSA21.JPG,AFNE23.JPG,AFNE21.JPG,AFSA25.JPG,AFNE25.JPG,AFSA23.JPG,,,,,,,,,0,1,1,4,,,,,,,,,,,,,,,AFNE07.jpg,AFNE06.jpg,AFSA20.jpg,AFSA01.jpg,AFSA20.jpg,FS,4,num_2,16,num_2,2.43335745297,,,2017_Dec_12_1522,60.0099317403,FEMA4ImagesEEG,001,102477,
AFSA25.JPG,AFNE24.JPG,AFSA24.JPG,AFNE21.JPG,AFSA21.JPG,AFNE25.JPG,,,,,,,,,0,2,2,2,,,,,,,,,,,,,,,AFSA17.jpg,AFNE15.jpg,AFSA02.jpg,AFNE17.jpg,AFSA02.jpg,FS,4,num_2,32,num_8,1.48340046406,,,2017_Dec_12_1522,60.0099317403,FEMA4ImagesEEG,001,102477,
AMSA21.JPG,AMNE23.JPG,AMNE21.JPG,AMSA25.JPG,AMNE25.JPG,AMSA23.JPG,,,,,,,,,0,3,3,5,,,,,,,,,,,,,,,AFSA18.jpg,AFNE11.jpg,AFNE12.jpg,AFSA15.jpg,AFNE12.jpg,FN,3,num_2,16,num_2,1.71670935699,,,2017_Dec_12_1522,60.0099317403,FEMA4ImagesEEG,001,102477,
AMSA25.JPG,AMNE24.JPG,AMSA24.JPG,AMNE26.JPG,AMSA21.JPG,AMNE25.JPG,,,,,,,,,0,4,4,3,,,,,,,,,,,,,,,AFNE09.jpg,AFSA05.jpg,AFNE17.jpg,AFSA11.jpg,AFSA05.jpg,FS,4,num_6,32,num_4,1.18345479737,,,2017_Dec_12_1522,60.0099317403,FEMA4ImagesEEG,001,102477,
AMNE23.JPG,AMNE24.JPG,AMNE22.JPG,AMSA24.JPG,AMSA22.JPG,AMSA23.JPG,,,,,,,,,0,5,5,9,,,,,,,,,,,,,,,AFNE17.jpg,AFNE09.jpg,AFSA20.jpg,AFSA19.jpg,AFNE17.jpg,FN,3,num_8,32,num_4,1.73341505765,,,2017_Dec_12_1522,60.0099317403,FEMA4ImagesEEG,001,102477,
AMNE22.JPG,AMSA24.JPG,AMSA22.JPG,AMNE25.JPG,AMNE24.JPG,AMSA25.JPG,,,,,,,,,0,6,6,7,,,,,,,,,,,,,,,AFNE17.jpg,AFSA04.jpg,AFNE15.jpg,AFSA15.jpg,AFNE17.jpg,FN,3,num_8,32,num_4,1.51700110151,,,2017_Dec_12_1522,60.0099317403,FEMA4ImagesEEG,001,102477,
AFNE23.JPG,AFNE24.JPG,AFNE22.JPG,AFSA24.JPG,AFSA22.JPG,AFSA23.JPG,,,,,,,,,0,7,7,8,,,,,,,,,,,,,,,AFSA19.jpg,AFNE02.jpg,AFSA04.jpg,AFNE06.jpg,AFSA19.jpg,FS,4,num_8,32,num_2,2.06653509941,,,2017_Dec_12_1522,60.0099317403,FEMA4ImagesEEG,001,102477,
AMSA21.JPG,AMNE22.JPG,AMNE21.JPG,AMSA23.JPG,AMSA22.JPG,AMNE23.JPG,,,,,,,,,0,8,8,1,,,,,,,,,,,,,,,AFSA11.jpg,AFNE05.jpg,AFNE18.jpg,AFSA12.jpg,AFSA11.jpg,FS,4,num_8,16,num_8,1.63345989701,,,2017_Dec_12_1522,60.0099317403,FEMA4ImagesEEG,001,102477,
AFSA21.JPG,AFNE22.JPG,AFNE21.JPG,AFSA23.JPG,AFSA22.JPG,AFNE23.JPG,,,,,,,,,0,9,9,0,,,,,,,,,,,,,,,AFSA19.jpg,AFNE13.jpg,AFNE09.jpg,AFSA05.jpg,AFSA19.jpg,FS,4,num_8,16,num_8,2.46695424151,,,2017_Dec_12_1522,60.0099317403,FEMA4ImagesEEG,001,102477,
AMNE22.JPG,AMSA24.JPG,AMSA22.JPG,AMNE25.JPG,AMNE24.JPG,AMSA25.JPG,,,,,,,,,,,,,0,0,0,7,,,,,,,,,,,AMSA05.jpg,AMNE09.jpg,AMNE15.jpg,AMSA15.jpg,AMNE09.jpg,MN,1,num_6,16,num_6,1.33376344456,,,2017_Dec_12_1522,60.0099317403,FEMA4ImagesEEG,001,102477,
AFSA21.JPG,AFNE23.JPG,AFNE21.JPG,AFSA25.JPG,AFNE25.JPG,AFSA23.JPG,,,,,,,,,,,,,0,1,1,4,,,,,,,,,,,AMSA08.jpg,AMSA05.jpg,AMNE19.jpg,AMNE02.jpg,AMNE19.jpg,MN,1,num_2,32,num_8,2.48334176885,,,2017_Dec_12_1522,60.0099317403,FEMA4ImagesEEG,001,102477,
AMSA21.JPG,AMNE22.JPG,AMNE21.JPG,AMSA23.JPG,AMSA22.JPG,AMNE23.JPG,,,,,,,,,,,,,0,2,2,1,,,,,,,,,,,AMNE02.jpg,AMSA18.jpg,AMNE10.jpg,AMSA04.jpg,AMSA04.jpg,MS,2,num_4,48,None,,,,2017_Dec_12_1522,60.0099317403,FEMA4ImagesEEG,001,102477,
AMSA25.JPG,AMNE24.JPG,AMSA24.JPG,AMNE26.JPG,AMSA21.JPG,AMNE25.JPG,,,,,,,,,,,,,0,3,3,3,,,,,,,,,,,AMSA10.jpg,AMSA14.jpg,AMNE05.jpg,AMNE14.jpg,AMNE05.jpg,MN,1,num_2,32,num_8,0.750105042243,,,2017_Dec_12_1522,60.0099317403,FEMA4ImagesEEG,001,102477,
AFNE23.JPG,AFNE24.JPG,AFNE22.JPG,AFSA24.JPG,AFSA22.JPG,AFSA23.JPG,,,,,,,,,,,,,0,4,4,8,,,,,,,,,,,AMSA06.jpg,AMNE13.jpg,AMSA03.jpg,AMNE15.jpg,AMNE13.jpg,MN,1,num_6,32,num_8,1.56680580345,,,2017_Dec_12_1522,60.0099317403,FEMA4ImagesEEG,001,102477,
AFNE22.JPG,AFSA24.JPG,AFSA22.JPG,AFNE25.JPG,AFNE24.JPG,AFSA25.JPG,,,,,,,,,,,,,0,5,5,6,,,,,,,,,,,AMSA01.jpg,AMNE13.jpg,AMSA16.jpg,AMNE03.jpg,AMSA01.jpg,MS,2,num_8,16,num_8,1.03347843559,,,2017_Dec_12_1522,60.0099317403,FEMA4ImagesEEG,001,102477,
AFSA21.JPG,AFNE22.JPG,AFNE21.JPG,AFSA23.JPG,AFSA22.JPG,AFNE23.JPG,,,,,,,,,,,,,0,6,6,0,,,,,,,,,,,AMSA07.jpg,AMNE11.jpg,AMNE12.jpg,AMSA15.jpg,AMNE11.jpg,MN,1,num_6,32,num_2,2.70005016378,,,2017_Dec_12_1522,60.0099317403,FEMA4ImagesEEG,001,102477,
AFSA25.JPG,AFNE24.JPG,AFSA24.JPG,AFNE21.JPG,AFSA21.JPG,AFNE25.JPG,,,,,,,,,,,,,0,7,7,2,,,,,,,,,,,AMNE03.jpg,AMSA18.jpg,AMSA08.jpg,AMNE14.jpg,AMNE03.jpg,MN,1,num_8,16,num_8,1.46673902543,,,2017_Dec_12_1522,60.0099317403,FEMA4ImagesEEG,001,102477,
AMSA21.JPG,AMNE23.JPG,AMNE21.JPG,AMSA25.JPG,AMNE25.JPG,AMSA23.JPG,,,,,,,,,,,,,0,8,8,5,,,,,,,,,,,AMSA17.jpg,AMNE15.jpg,AMSA10.jpg,AMNE19.jpg,AMNE15.jpg,MN,1,num_6,32,num_4,0.966789060738,,,2017_Dec_12_1522,60.0099317403,FEMA4ImagesEEG,001,102477,
AMNE23.JPG,AMNE24.JPG,AMNE22.JPG,AMSA24.JPG,AMSA22.JPG,AMSA23.JPG,,,,,,,,,,,,,0,9,9,9,,,,,,,,,,,AMNE19.jpg,AMSA17.jpg,AMSA08.jpg,AMNE08.jpg,AMSA08.jpg,MS,2,num_2,16,num_2,0.883493734989,,,2017_Dec_12_1522,60.0099317403,FEMA4ImagesEEG,001,102477,
AFNE23.JPG,AFNE24.JPG,AFNE22.JPG,AFSA24.JPG,AFSA22.JPG,AFSA23.JPG,,,,,,,,,,,,,,,,,0,0,0,8,,,,,,,AFSA11.jpg,AFNE12.jpg,AFNE11.jpg,AFSA07.jpg,AFNE12.jpg,FN,3,num_6,32,num_2,1.31671487377,,,2017_Dec_12_1522,60.0099317403,FEMA4ImagesEEG,001,102477,
AMNE22.JPG,AMSA24.JPG,AMSA22.JPG,AMNE25.JPG,AMNE24.JPG,AMSA25.JPG,,,,,,,,,,,,,,,,,0,1,1,7,,,,,,,AFSA03.jpg,AFNE16.jpg,AFSA02.jpg,AFNE01.jpg,AFSA02.jpg,FS,4,num_2,32,num_8,0.70013900823,,,2017_Dec_12_1522,60.0099317403,FEMA4ImagesEEG,001,102477,
AFNE22.JPG,AFSA24.JPG,AFSA22.JPG,AFNE25.JPG,AFNE24.JPG,AFSA25.JPG,,,,,,,,,,,,,,,,,0,2,2,6,,,,,,,AFSA08.jpg,AFNE20.jpg,AFNE06.jpg,AFSA10.jpg,AFNE06.jpg,FN,3,num_2,32,num_6,0.883489565458,,,2017_Dec_12_1522,60.0099317403,FEMA4ImagesEEG,001,102477,
AFSA21.JPG,AFNE23.JPG,AFNE21.JPG,AFSA25.JPG,AFNE25.JPG,AFSA23.JPG,,,,,,,,,,,,,,,,,0,3,3,4,,,,,,,AFNE15.jpg,AFNE08.jpg,AFSA11.jpg,AFSA19.jpg,AFNE08.jpg,FN,3,num_6,16,num_6,0.700098274508,,,2017_Dec_12_1522,60.0099317403,FEMA4ImagesEEG,001,102477,
AFSA25.JPG,AFNE24.JPG,AFSA24.JPG,AFNE21.JPG,AFSA21.JPG,AFNE25.JPG,,,,,,,,,,,,,,,,,0,4,4,2,,,,,,,AFSA10.jpg,AFSA06.jpg,AFNE01.jpg,AFNE16.jpg,AFNE16.jpg,FN,3,num_4,32,num_2,1.75008419389,,,2017_Dec_12_1522,60.0099317403,FEMA4ImagesEEG,001,102477,
AMSA21.JPG,AMNE22.JPG,AMNE21.JPG,AMSA23.JPG,AMSA22.JPG,AMNE23.JPG,,,,,,,,,,,,,,,,,0,5,5,1,,,,,,,AFNE17.jpg,AFNE02.jpg,AFSA15.jpg,AFSA19.jpg,AFNE02.jpg,FN,3,num_6,32,num_8,1.35006822133,,,2017_Dec_12_1522,60.0099317403,FEMA4ImagesEEG,001,102477,
AMSA21.JPG,AMNE23.JPG,AMNE21.JPG,AMSA25.JPG,AMNE25.JPG,AMSA23.JPG,,,,,,,,,,,,,,,,,0,6,6,5,,,,,,,AFNE13.jpg,AFNE14.jpg,AFSA01.jpg,AFSA10.jpg,AFNE14.jpg,FN,3,num_6,32,num_4,1.13345252001,,,2017_Dec_12_1522,60.0099317403,FEMA4ImagesEEG,001,102477,
AFSA21.JPG,AFNE22.JPG,AFNE21.JPG,AFSA23.JPG,AFSA22.JPG,AFNE23.JPG,,,,,,,,,,,,,,,,,0,7,7,0,,,,,,,AFNE03.jpg,AFSA13.jpg,AFSA07.jpg,AFNE11.jpg,AFNE03.jpg,FN,3,num_8,32,num_4,1.88339911704,,,2017_Dec_12_1522,60.0099317403,FEMA4ImagesEEG,001,102477,
AMNE23.JPG,AMNE24.JPG,AMNE22.JPG,AMSA24.JPG,AMSA22.JPG,AMSA23.JPG,,,,,,,,,,,,,,,,,0,8,8,9,,,,,,,AFNE07.jpg,AFNE02.jpg,AFSA11.jpg,AFSA12.jpg,AFNE07.jpg,FN,3,num_8,16,num_8,0.633458614117,,,2017_Dec_12_1522,60.0099317403,FEMA4ImagesEEG,001,102477,
AMSA25.JPG,AMNE24.JPG,AMSA24.JPG,AMNE26.JPG,AMSA21.JPG,AMNE25.JPG,,,,,,,,,,,,,,,,,0,9,9,3,,,,,,,AFSA03.jpg,AFNE05.jpg,AFSA02.jpg,AFNE10.jpg,AFNE10.jpg,FN,3,num_4,32,num_2,1.30007684906,,,2017_Dec_12_1522,60.0099317403,FEMA4ImagesEEG,001,102477,
AFSA25.JPG,AFNE24.JPG,AFSA24.JPG,AFNE21.JPG,AFSA21.JPG,AFNE25.JPG,,,,,,,,,,,,,,,,,,,,,0,0,0,2,,,AMNE12.jpg,AMSA01.jpg,AMSA15.jpg,AMNE04.jpg,AMSA01.jpg,MS,2,num_6,16,num_6,1.24992895615,,,2017_Dec_12_1522,60.0099317403,FEMA4ImagesEEG,001,102477,
AMSA25.JPG,AMNE24.JPG,AMSA24.JPG,AMNE26.JPG,AMSA21.JPG,AMNE25.JPG,,,,,,,,,,,,,,,,,,,,,0,1,1,3,,,AMSA11.jpg,AMSA03.jpg,AMNE03.jpg,AMNE10.jpg,AMSA11.jpg,MS,2,num_8,32,num_2,1.03345405962,,,2017_Dec_12_1522,60.0099317403,FEMA4ImagesEEG,001,102477,
AMSA21.JPG,AMNE23.JPG,AMNE21.JPG,AMSA25.JPG,AMNE25.JPG,AMSA23.JPG,,,,,,,,,,,,,,,,,,,,,0,2,2,5,,,AMNE11.jpg,AMSA14.jpg,AMNE17.jpg,AMSA10.jpg,AMNE17.jpg,MN,1,num_2,32,num_4,1.36674922495,,,2017_Dec_12_1522,60.0099317403,FEMA4ImagesEEG,001,102477,
AFSA21.JPG,AFNE23.JPG,AFNE21.JPG,AFSA25.JPG,AFNE25.JPG,AFSA23.JPG,,,,,,,,,,,,,,,,,,,,,0,3,3,4,,,AMSA01.jpg,AMSA14.jpg,AMNE03.jpg,AMNE13.jpg,AMSA14.jpg,MS,2,num_6,32,num_8,0.883204748854,,,2017_Dec_12_1522,60.0099317403,FEMA4ImagesEEG,001,102477,
AFNE23.JPG,AFNE24.JPG,AFNE22.JPG,AFSA24.JPG,AFSA22.JPG,AFSA23.JPG,,,,,,,,,,,,,,,,,,,,,0,4,4,8,,,AMSA04.jpg,AMNE05.jpg,AMSA18.jpg,AMNE20.jpg,AMSA18.jpg,MS,2,num_2,16,num_2,0.483474234119,,,2017_Dec_12_1522,60.0099317403,FEMA4ImagesEEG,001,102477,
AFNE22.JPG,AFSA24.JPG,AFSA22.JPG,AFNE25.JPG,AFNE24.JPG,AFSA25.JPG,,,,,,,,,,,,,,,,,,,,,0,5,5,6,,,AMNE11.jpg,AMSA19.jpg,AMSA10.jpg,AMNE13.jpg,AMSA19.jpg,MS,2,num_6,32,num_8,2.85002941173,,,2017_Dec_12_1522,60.0099317403,FEMA4ImagesEEG,001,102477,
AMSA21.JPG,AMNE22.JPG,AMNE21.JPG,AMSA23.JPG,AMSA22.JPG,AMNE23.JPG,,,,,,,,,,,,,,,,,,,,,0,6,6,1,,,AMNE09.jpg,AMNE12.jpg,AMSA17.jpg,AMSA11.jpg,AMNE12.jpg,MN,1,num_6,16,num_6,1.46641700319,,,2017_Dec_12_1522,60.0099317403,FEMA4ImagesEEG,001,102477,
AMNE22.JPG,AMSA24.JPG,AMSA22.JPG,AMNE25.JPG,AMNE24.JPG,AMSA25.JPG,,,,,,,,,,,,,,,,,,,,,0,7,7,7,,,AMNE02.jpg,AMSA04.jpg,AMNE06.jpg,AMSA01.jpg,AMNE06.jpg,MN,1,num_2,16,num_2,0.516862221528,,,2017_Dec_12_1522,60.0099317403,FEMA4ImagesEEG,001,102477,
AMNE23.JPG,AMNE24.JPG,AMNE22.JPG,AMSA24.JPG,AMSA22.JPG,AMSA23.JPG,,,,,,,,,,,,,,,,,,,,,0,8,8,9,,,AMNE12.jpg,AMSA10.jpg,AMSA01.jpg,AMNE20.jpg,AMNE12.jpg,MN,1,num_8,16,num_8,1.28339809063,,,2017_Dec_12_1522,60.0099317403,FEMA4ImagesEEG,001,102477,
AFSA21.JPG,AFNE22.JPG,AFNE21.JPG,AFSA23.JPG,AFSA22.JPG,AFNE23.JPG,,,,,,,,,,,,,,,,,,,,,0,9,9,0,,,AMSA17.jpg,AMNE07.jpg,AMNE13.jpg,AMSA13.jpg,AMNE13.jpg,MN,1,num_2,32,num_6,0.783449408831,,,2017_Dec_12_1522,60.0099317403,FEMA4ImagesEEG,001,102477,
,,,,,,,,,,,,,,,,,,,,,,,,,,,,,,,,,,,,,,,,,,,space,12.415835792,2017_Dec_12_1522,60.0099317403,FEMA4ImagesEEG,001,102477,
AFNE01.JPG,AFNE01.JPG,AFNE01.JPG,AFNE01.JPG,AFNE01.JPG,AFNE01.JPG,0,0,0,6,,,,,,,,,,,,,,,,,,,,,,,AFSA13.jpg,AFNE01.jpg,AFSA07.jpg,AFNE13.jpg,AFNE13.jpg,FN,3,num_4,32,num_2,1.10008922964,,,2017_Dec_12_1522,60.0099317403,FEMA4ImagesEEG,001,102477,
AFNE01.JPG,AFNE01.JPG,AFNE01.JPG,AFNE01.JPG,AFNE01.JPG,AFNE01.JPG,0,1,1,2,,,,,,,,,,,,,,,,,,,,,,,AFNE19.jpg,AFNE10.jpg,AFSA10.jpg,AFSA05.jpg,AFNE19.jpg,FN,3,num_8,16,num_8,1.41673867265,,,2017_Dec_12_1522,60.0099317403,FEMA4ImagesEEG,001,102477,
AFNE01.JPG,AFNE01.JPG,AFNE01.JPG,AFNE01.JPG,AFNE01.JPG,AFNE01.JPG,0,2,2,1,,,,,,,,,,,,,,,,,,,,,,,AFNE06.jpg,AFSA01.jpg,AFSA03.jpg,AFNE19.jpg,AFSA03.jpg,FS,4,num_2,16,num_2,1.03347362461,,,2017_Dec_12_1522,60.0099317403,FEMA4ImagesEEG,001,102477,
AFNE01.JPG,AFNE01.JPG,AFNE01.JPG,AFNE01.JPG,AFNE01.JPG,AFNE01.JPG,0,3,3,3,,,,,,,,,,,,,,,,,,,,,,,AFSA07.jpg,AFSA08.jpg,AFNE11.jpg,AFNE17.jpg,AFNE17.jpg,FN,3,num_4,32,num_8,1.15011909045,,,2017_Dec_12_1522,60.0099317403,FEMA4ImagesEEG,001,102477,
AFNE01.JPG,AFNE01.JPG,AFNE01.JPG,AFNE01.JPG,AFNE01.JPG,AFNE01.JPG,0,4,4,0,,,,,,,,,,,,,,,,,,,,,,,AFSA11.jpg,AFSA17.jpg,AFNE08.jpg,AFNE06.jpg,AFSA17.jpg,FS,4,num_6,32,num_4,1.11679076077,,,2017_Dec_12_1522,60.0099317403,FEMA4ImagesEEG,001,102477,
AFNE01.JPG,AFNE01.JPG,AFNE01.JPG,AFNE01.JPG,AFNE01.JPG,AFNE01.JPG,0,5,5,7,,,,,,,,,,,,,,,,,,,,,,,AFSA16.jpg,AFSA08.jpg,AFNE10.jpg,AFNE17.jpg,AFSA08.jpg,FS,4,num_6,32,num_2,3.11660409067,,,2017_Dec_12_1522,60.0099317403,FEMA4ImagesEEG,001,102477,
AFNE01.JPG,AFNE01.JPG,AFNE01.JPG,AFNE01.JPG,AFNE01.JPG,AFNE01.JPG,0,6,6,4,,,,,,,,,,,,,,,,,,,,,,,AFNE11.jpg,AFSA10.jpg,AFNE14.jpg,AFSA17.jpg,AFNE11.jpg,FN,3,num_8,16,num_8,0.883460057434,,,2017_Dec_12_1522,60.0099317403,FEMA4ImagesEEG,001,102477,
AFNE01.JPG,AFNE01.JPG,AFNE01.JPG,AFNE01.JPG,AFNE01.JPG,AFNE01.JPG,0,7,7,5,,,,,,,,,,,,,,,,,,,,,,,AFNE02.jpg,AFSA07.jpg,AFSA11.jpg,AFNE01.jpg,AFSA11.jpg,FS,4,num_2,16,num_2,1.03343962622,,,2017_Dec_12_1522,60.0099317403,FEMA4ImagesEEG,001,102477,
AFNE01.JPG,AFNE01.JPG,AFNE01.JPG,AFNE01.JPG,AFNE01.JPG,AFNE01.JPG,0,8,8,8,,,,,,,,,,,,,,,,,,,,,,,AFSA19.jpg,AFNE13.jpg,AFSA07.jpg,AFNE07.jpg,AFSA07.jpg,FS,4,num_2,32,num_8,0.883468717337,,,2017_Dec_12_1522,60.0099317403,FEMA4ImagesEEG,001,102477,
AFNE01.JPG,AFNE01.JPG,AFNE01.JPG,AFNE01.JPG,AFNE01.JPG,AFNE01.JPG,0,9,9,9,,,,,,,,,,,,,,,,,,,,,,,AFSA16.jpg,AFNE06.jpg,AFSA11.jpg,AFNE03.jpg,AFSA11.jpg,FS,4,num_2,16,num_2,1.18344870326,,,2017_Dec_12_1522,60.0099317403,FEMA4ImagesEEG,001,102477,
AFNE01.JPG,AFNE01.JPG,AFNE01.JPG,AFNE01.JPG,AFNE01.JPG,AFNE01.JPG,1,0,10,3,,,,,,,,,,,,,,,,,,,,,,,AFSA04.jpg,AFNE07.jpg,AFNE12.jpg,AFSA18.jpg,AFSA04.jpg,FS,4,num_8,16,num_8,1.6667173435,,,2017_Dec_12_1522,60.0099317403,FEMA4ImagesEEG,001,102477,
AFNE01.JPG,AFNE01.JPG,AFNE01.JPG,AFNE01.JPG,AFNE01.JPG,AFNE01.JPG,1,1,11,1,,,,,,,,,,,,,,,,,,,,,,,AFSA16.jpg,AFSA11.jpg,AFNE10.jpg,AFNE09.jpg,AFNE10.jpg,FN,3,num_2,16,num_2,0.850113124819,,,2017_Dec_12_1522,60.0099317403,FEMA4ImagesEEG,001,102477,
AFNE01.JPG,AFNE01.JPG,AFNE01.JPG,AFNE01.JPG,AFNE01.JPG,AFNE01.JPG,1,2,12,5,,,,,,,,,,,,,,,,,,,,,,,AFSA04.jpg,AFNE09.jpg,AFSA06.jpg,AFNE17.jpg,AFSA04.jpg,FS,4,num_8,16,num_8,1.61675195117,,,2017_Dec_12_1522,60.0099317403,FEMA4ImagesEEG,001,102477,
AFNE01.JPG,AFNE01.JPG,AFNE01.JPG,AFNE01.JPG,AFNE01.JPG,AFNE01.JPG,1,3,13,4,,,,,,,,,,,,,,,,,,,,,,,AFNE19.jpg,AFNE06.jpg,AFSA13.jpg,AFSA06.jpg,AFSA06.jpg,FS,4,num_4,16,num_4,1.35010927566,,,2017_Dec_12_1522,60.0099317403,FEMA4ImagesEEG,001,102477,
AFNE01.JPG,AFNE01.JPG,AFNE01.JPG,AFNE01.JPG,AFNE01.JPG,AFNE01.JPG,1,4,14,2,,,,,,,,,,,,,,,,,,,,,,,AFSA06.jpg,AFNE19.jpg,AFNE17.jpg,AFSA14.jpg,AFNE17.jpg,FN,3,num_2,32,num_8,0.783441711217,,,2017_Dec_12_1522,60.0099317403,FEMA4ImagesEEG,001,102477,
AFNE01.JPG,AFNE01.JPG,AFNE01.JPG,AFNE01.JPG,AFNE01.JPG,AFNE01.JPG,1,5,15,6,,,,,,,,,,,,,,,,,,,,,,,AFSA12.jpg,AFNE02.jpg,AFNE12.jpg,AFSA05.jpg,AFNE12.jpg,FN,3,num_2,16,num_2,1.01678011217,,,2017_Dec_12_1522,60.0099317403,FEMA4ImagesEEG,001,102477,
AFNE01.JPG,AFNE01.JPG,AFNE01.JPG,AFNE01.JPG,AFNE01.JPG,AFNE01.JPG,1,6,16,8,,,,,,,,,,,,,,,,,,,,,,,AFSA17.jpg,AFSA15.jpg,AFNE11.jpg,AFNE14.jpg,AFNE14.jpg,FN,3,num_4,32,num_8,1.65008765808,,,2017_Dec_12_1522,60.0099317403,FEMA4ImagesEEG,001,102477,
AFNE01.JPG,AFNE01.JPG,AFNE01.JPG,AFNE01.JPG,AFNE01.JPG,AFNE01.JPG,1,7,17,9,,,,,,,,,,,,,,,,,,,,,,,AFSA19.jpg,AFNE04.jpg,AFSA05.jpg,AFNE05.jpg,AFSA19.jpg,FS,4,num_8,32,num_2,0.683460249798,,,2017_Dec_12_1522,60.0099317403,FEMA4ImagesEEG,001,102477,
AFNE01.JPG,AFNE01.JPG,AFNE01.JPG,AFNE01.JPG,AFNE01.JPG,AFNE01.JPG,1,8,18,0,,,,,,,,,,,,,,,,,,,,,,,AFNE14.jpg,AFNE11.jpg,AFSA07.jpg,AFSA06.jpg,AFNE14.jpg,FN,3,num_8,32,num_2,1.51671564346,,,2017_Dec_12_1522,60.0099317403,FEMA4ImagesEEG,001,102477,
AFNE01.JPG,AFNE01.JPG,AFNE01.JPG,AFNE01.JPG,AFNE01.JPG,AFNE01.JPG,1,9,19,7,,,,,,,,,,,,,,,,,,,,,,,AFNE10.jpg,AFNE01.jpg,AFSA05.jpg,AFSA02.jpg,AFNE01.jpg,FN,3,num_6,32,num_8,4.81649067695,,,2017_Dec_12_1522,60.0099317403,FEMA4ImagesEEG,001,102477,
AFNE01.JPG,AFNE01.JPG,AFNE01.JPG,AFNE01.JPG,AFNE01.JPG,AFNE01.JPG,2,0,20,6,,,,,,,,,,,,,,,,,,,,,,,AFNE18.jpg,AFSA13.jpg,AFNE19.jpg,AFSA20.jpg,AFSA13.jpg,FS,4,num_6,32,num_8,0.833506211638,,,2017_Dec_12_1522,60.0099317403,FEMA4ImagesEEG,001,102477,
AFNE01.JPG,AFNE01.JPG,AFNE01.JPG,AFNE01.JPG,AFNE01.JPG,AFNE01.JPG,2,1,21,8,,,,,,,,,,,,,,,,,,,,,,,AFNE04.jpg,AFNE10.jpg,AFSA06.jpg,AFSA01.jpg,AFNE04.jpg,FN,3,num_8,32,num_2,1.59984675096,,,2017_Dec_12_1522,60.0099317403,FEMA4ImagesEEG,001,102477,
AFNE01.JPG,AFNE01.JPG,AFNE01.JPG,AFNE01.JPG,AFNE01.JPG,AFNE01.JPG,2,2,22,7,,,,,,,,,,,,,,,,,,,,,,,AFSA06.jpg,AFSA10.jpg,AFNE10.jpg,AFNE02.jpg,AFSA10.jpg,FS,4,num_6,16,num_6,1.33343693195,,,2017_Dec_12_1522,60.0099317403,FEMA4ImagesEEG,001,102477,
AFNE01.JPG,AFNE01.JPG,AFNE01.JPG,AFNE01.JPG,AFNE01.JPG,AFNE01.JPG,2,3,23,2,,,,,,,,,,,,,,,,,,,,,,,AFNE04.jpg,AFNE20.jpg,AFSA01.jpg,AFSA20.jpg,AFSA01.jpg,FS,4,num_2,16,num_2,1.08346660039,,,2017_Dec_12_1522,60.0099317403,FEMA4ImagesEEG,001,102477,
AFNE01.JPG,AFNE01.JPG,AFNE01.JPG,AFNE01.JPG,AFNE01.JPG,AFNE01.JPG,2,4,24,3,,,,,,,,,,,,,,,,,,,,,,,AFNE02.jpg,AFSA10.jpg,AFNE14.jpg,AFSA11.jpg,AFSA10.jpg,FS,4,num_6,16,num_6,1.46697188215,,,2017_Dec_12_1522,60.0099317403,FEMA4ImagesEEG,001,102477,
AFNE01.JPG,AFNE01.JPG,AFNE01.JPG,AFNE01.JPG,AFNE01.JPG,AFNE01.JPG,2,5,25,4,,,,,,,,,,,,,,,,,,,,,,,AFNE19.jpg,AFSA13.jpg,AFSA09.jpg,AFNE11.jpg,AFSA09.jpg,FS,4,num_2,32,num_8,1.10011969972,,,2017_Dec_12_1522,60.0099317403,FEMA4ImagesEEG,001,102477,
AFNE01.JPG,AFNE01.JPG,AFNE01.JPG,AFNE01.JPG,AFNE01.JPG,AFNE01.JPG,2,6,26,9,,,,,,,,,,,,,,,,,,,,,,,AFSA06.jpg,AFNE15.jpg,AFSA02.jpg,AFNE01.jpg,AFNE01.jpg,FN,3,num_4,32,num_8,0.816795058548,,,2017_Dec_12_1522,60.0099317403,FEMA4ImagesEEG,001,102477,
AFNE01.JPG,AFNE01.JPG,AFNE01.JPG,AFNE01.JPG,AFNE01.JPG,AFNE01.JPG,2,7,27,1,,,,,,,,,,,,,,,,,,,,,,,AFSA06.jpg,AFNE09.jpg,AFSA03.jpg,AFNE19.jpg,AFNE19.jpg,FN,3,num_4,32,num_6,0.883470000234,,,2017_Dec_12_1522,60.0099317403,FEMA4ImagesEEG,001,102477,
AFNE01.JPG,AFNE01.JPG,AFNE01.JPG,AFNE01.JPG,AFNE01.JPG,AFNE01.JPG,2,8,28,5,,,,,,,,,,,,,,,,,,,,,,,AFNE14.jpg,AFNE09.jpg,AFSA17.jpg,AFSA01.jpg,AFNE09.jpg,FN,3,num_6,32,num_8,0.866791241802,,,2017_Dec_12_1522,60.0099317403,FEMA4ImagesEEG,001,102477,
AFNE01.JPG,AFNE01.JPG,AFNE01.JPG,AFNE01.JPG,AFNE01.JPG,AFNE01.JPG,2,9,29,0,,,,,,,,,,,,,,,,,,,,,,,AFSA08.jpg,AFSA06.jpg,AFNE06.jpg,AFNE10.jpg,AFNE10.jpg,FN,3,num_4,16,num_4,1.33347189263,,,2017_Dec_12_1522,60.0099317403,FEMA4ImagesEEG,001,102477,
AFNE01.JPG,AFNE01.JPG,AFNE01.JPG,AFNE01.JPG,AFNE01.JPG,AFNE01.JPG,3,0,30,7,,,,,,,,,,,,,,,,,,,,,,,AFSA11.jpg,AFNE10.jpg,AFNE11.jpg,AFSA17.jpg,AFNE10.jpg,FN,3,num_6,16,num_6,0.48353260872,,,2017_Dec_12_1522,60.0099317403,FEMA4ImagesEEG,001,102477,
AFNE01.JPG,AFNE01.JPG,AFNE01.JPG,AFNE01.JPG,AFNE01.JPG,AFNE01.JPG,3,1,31,3,,,,,,,,,,,,,,,,,,,,,,,AFSA10.jpg,AFSA19.jpg,AFNE05.jpg,AFNE06.jpg,AFSA10.jpg,FS,4,num_8,32,num_4,1.46671817754,,,2017_Dec_12_1522,60.0099317403,FEMA4ImagesEEG,001,102477,
AFNE01.JPG,AFNE01.JPG,AFNE01.JPG,AFNE01.JPG,AFNE01.JPG,AFNE01.JPG,3,2,32,0,,,,,,,,,,,,,,,,,,,,,,,AFSA13.jpg,AFNE19.jpg,AFNE14.jpg,AFSA07.jpg,AFNE19.jpg,FN,3,num_6,32,num_8,0.816777417902,,,2017_Dec_12_1522,60.0099317403,FEMA4ImagesEEG,001,102477,
AFNE01.JPG,AFNE01.JPG,AFNE01.JPG,AFNE01.JPG,AFNE01.JPG,AFNE01.JPG,3,3,33,1,,,,,,,,,,,,,,,,,,,,,,,AFNE10.jpg,AFSA18.jpg,AFSA09.jpg,AFNE12.jpg,AFSA18.jpg,FS,4,num_6,32,num_2,0.950125056319,,,2017_Dec_12_1522,60.0099317403,FEMA4ImagesEEG,001,102477,
AFNE01.JPG,AFNE01.JPG,AFNE01.JPG,AFNE01.JPG,AFNE01.JPG,AFNE01.JPG,3,4,34,9,,,,,,,,,,,,,,,,,,,,,,,AFNE20.jpg,AFNE18.jpg,AFSA11.jpg,AFSA09.jpg,AFNE20.jpg,FN,3,num_8,16,num_8,0.750009461772,,,2017_Dec_12_1522,60.0099317403,FEMA4ImagesEEG,001,102477,
AFNE01.JPG,AFNE01.JPG,AFNE01.JPG,AFNE01.JPG,AFNE01.JPG,AFNE01.JPG,3,5,35,6,,,,,,,,,,,,,,,,,,,,,,,AFNE13.jpg,AFSA14.jpg,AFSA11.jpg,AFNE07.jpg,AFSA14.jpg,FS,4,num_6,32,num_4,3.83323518722,,,2017_Dec_12_1522,60.0099317403,FEMA4ImagesEEG,001,102477,
AFNE01.JPG,AFNE01.JPG,AFNE01.JPG,AFNE01.JPG,AFNE01.JPG,AFNE01.JPG,3,6,36,8,,,,,,,,,,,,,,,,,,,,,,,AFNE04.jpg,AFSA19.jpg,AFNE13.jpg,AFSA20.jpg,AFNE04.jpg,FN,3,num_8,32,num_6,0.550177400932,,,2017_Dec_12_1522,60.0099317403,FEMA4ImagesEEG,001,102477,
AFNE01.JPG,AFNE01.JPG,AFNE01.JPG,AFNE01.JPG,AFNE01.JPG,AFNE01.JPG,3,7,37,4,,,,,,,,,,,,,,,,,,,,,,,AFNE10.jpg,AFSA13.jpg,AFNE04.jpg,AFSA07.jpg,AFNE10.jpg,FN,3,num_8,16,num_8,1.76671003061,,,2017_Dec_12_1522,60.0099317403,FEMA4ImagesEEG,001,102477,
AFNE01.JPG,AFNE01.JPG,AFNE01.JPG,AFNE01.JPG,AFNE01.JPG,AFNE01.JPG,3,8,38,2,,,,,,,,,,,,,,,,,,,,,,,AFNE07.jpg,AFSA12.jpg,AFNE20.jpg,AFSA02.jpg,AFSA02.jpg,FS,4,num_4,32,num_8,0.650130316382,,,2017_Dec_12_1522,60.0099317403,FEMA4ImagesEEG,001,102477,
AFNE01.JPG,AFNE01.JPG,AFNE01.JPG,AFNE01.JPG,AFNE01.JPG,AFNE01.JPG,3,9,39,5,,,,,,,,,,,,,,,,,,,,,,,AFNE05.jpg,AFNE01.jpg,AFSA06.jpg,AFSA01.jpg,AFNE01.jpg,FN,3,num_6,32,num_8,1.3667072081,,,2017_Dec_12_1522,60.0099317403,FEMA4ImagesEEG,001,102477,
AFNE01.JPG,AFNE01.JPG,AFNE01.JPG,AFNE01.JPG,AFNE01.JPG,AFNE01.JPG,4,0,40,9,,,,,,,,,,,,,,,,,,,,,,,AFSA11.jpg,AFNE08.jpg,AFSA04.jpg,AFNE15.jpg,AFSA11.jpg,FS,4,num_8,16,num_8,0.433454316109,,,2017_Dec_12_1522,60.0099317403,FEMA4ImagesEEG,001,102477,
AFNE01.JPG,AFNE01.JPG,AFNE01.JPG,AFNE01.JPG,AFNE01.JPG,AFNE01.JPG,4,1,41,2,,,,,,,,,,,,,,,,,,,,,,,AFSA19.jpg,AFNE01.jpg,AFNE07.jpg,AFSA11.jpg,AFSA11.jpg,FS,4,num_4,16,num_4,0.750125569291,,,2017_Dec_12_1522,60.0099317403,FEMA4ImagesEEG,001,102477,
AFNE01.JPG,AFNE01.JPG,AFNE01.JPG,AFNE01.JPG,AFNE01.JPG,AFNE01.JPG,4,2,42,4,,,,,,,,,,,,,,,,,,,,,,,AFSA03.jpg,AFSA19.jpg,AFNE06.jpg,AFNE03.jpg,AFSA03.jpg,FS,4,num_8,32,num_6,0.683453834848,,,2017_Dec_12_1522,60.0099317403,FEMA4ImagesEEG,001,102477,
AFNE01.JPG,AFNE01.JPG,AFNE01.JPG,AFNE01.JPG,AFNE01.JPG,AFNE01.JPG,4,3,43,5,,,,,,,,,,,,,,,,,,,,,,,AFSA03.jpg,AFNE06.jpg,AFNE16.jpg,AFSA12.jpg,AFSA03.jpg,FS,4,num_8,16,num_8,0.766885154182,,,2017_Dec_12_1522,60.0099317403,FEMA4ImagesEEG,001,102477,
AFNE01.JPG,AFNE01.JPG,AFNE01.JPG,AFNE01.JPG,AFNE01.JPG,AFNE01.JPG,4,4,44,8,,,,,,,,,,,,,,,,,,,,,,,AFNE20.jpg,AFSA19.jpg,AFNE03.jpg,AFSA17.jpg,AFNE03.jpg,FN,3,num_2,32,num_4,1.1500684137,,,2017_Dec_12_1522,60.0099317403,FEMA4ImagesEEG,001,102477,
AFNE01.JPG,AFNE01.JPG,AFNE01.JPG,AFNE01.JPG,AFNE01.JPG,AFNE01.JPG,4,5,45,1,,,,,,,,,,,,,,,,,,,,,,,AFSA13.jpg,AFNE09.jpg,AFSA01.jpg,AFNE10.jpg,AFNE09.jpg,FN,3,num_6,32,num_8,1.01680288441,,,2017_Dec_12_1522,60.0099317403,FEMA4ImagesEEG,001,102477,
AFNE01.JPG,AFNE01.JPG,AFNE01.JPG,AFNE01.JPG,AFNE01.JPG,AFNE01.JPG,4,6,46,7,,,,,,,,,,,,,,,,,,,,,,,AFSA05.jpg,AFNE15.jpg,AFSA16.jpg,AFNE08.jpg,AFNE15.jpg,FN,3,num_6,16,num_6,1.11675002682,,,2017_Dec_12_1522,60.0099317403,FEMA4ImagesEEG,001,102477,
AFNE01.JPG,AFNE01.JPG,AFNE01.JPG,AFNE01.JPG,AFNE01.JPG,AFNE01.JPG,4,7,47,0,,,,,,,,,,,,,,,,,,,,,,,AFNE02.jpg,AFSA16.jpg,AFNE08.jpg,AFSA10.jpg,AFNE02.jpg,FN,3,num_8,16,num_8,1.28344716365,,,2017_Dec_12_1522,60.0099317403,FEMA4ImagesEEG,001,102477,
AFNE01.JPG,AFNE01.JPG,AFNE01.JPG,AFNE01.JPG,AFNE01.JPG,AFNE01.JPG,4,8,48,3,,,,,,,,,,,,,,,,,,,,,,,AFSA20.jpg,AFSA17.jpg,AFNE18.jpg,AFNE19.jpg,AFNE19.jpg,FN,3,num_4,32,num_2,0.850142312003,,,2017_Dec_12_1522,60.0099317403,FEMA4ImagesEEG,001,102477,
AFNE01.JPG,AFNE01.JPG,AFNE01.JPG,AFNE01.JPG,AFNE01.JPG,AFNE01.JPG,4,9,49,6,,,,,,,,,,,,,,,,,,,,,,,AFNE04.jpg,AFSA12.jpg,AFSA19.jpg,AFNE19.jpg,AFNE04.jpg,FN,3,num_8,16,num_8,2.75009477837,,,2017_Dec_12_1522,60.0099317403,FEMA4ImagesEEG,001,102477,
AFNE01.JPG,AFNE01.JPG,AFNE01.JPG,AFNE01.JPG,AFNE01.JPG,AFNE01.JPG,5,0,50,2,,,,,,,,,,,,,,,,,,,,,,,AFSA04.jpg,AFNE16.jpg,AFNE05.jpg,AFSA01.jpg,AFSA04.jpg,FS,4,num_8,16,num_8,1.00011931499,,,2017_Dec_12_1522,60.0099317403,FEMA4ImagesEEG,001,102477,
AFNE01.JPG,AFNE01.JPG,AFNE01.JPG,AFNE01.JPG,AFNE01.JPG,AFNE01.JPG,5,1,51,5,,,,,,,,,,,,,,,,,,,,,,,AFNE06.jpg,AFNE03.jpg,AFSA16.jpg,AFSA12.jpg,AFSA12.jpg,FS,4,num_4,32,num_6,1.86668251106,,,2017_Dec_12_1522,60.0099317403,FEMA4ImagesEEG,001,102477,
AFNE01.JPG,AFNE01.JPG,AFNE01.JPG,AFNE01.JPG,AFNE01.JPG,AFNE01.JPG,5,2,52,0,,,,,,,,,,,,,,,,,,,,,,,AFNE18.jpg,AFSA09.jpg,AFSA17.jpg,AFNE19.jpg,AFSA17.jpg,FS,4,num_2,16,num_2,1.33334071026,,,2017_Dec_12_1522,60.0099317403,FEMA4ImagesEEG,001,102477,
AFNE01.JPG,AFNE01.JPG,AFNE01.JPG,AFNE01.JPG,AFNE01.JPG,AFNE01.JPG,5,3,53,6,,,,,,,,,,,,,,,,,,,,,,,AFSA17.jpg,AFNE02.jpg,AFSA14.jpg,AFNE13.jpg,AFSA17.jpg,FS,4,num_8,48,None,,,,2017_Dec_12_1522,60.0099317403,FEMA4ImagesEEG,001,102477,
AFNE01.JPG,AFNE01.JPG,AFNE01.JPG,AFNE01.JPG,AFNE01.JPG,AFNE01.JPG,5,4,54,7,,,,,,,,,,,,,,,,,,,,,,,AFSA16.jpg,AFNE11.jpg,AFSA10.jpg,AFNE08.jpg,AFSA16.jpg,FS,4,num_8,16,num_8,0.783474747324,,,2017_Dec_12_1522,60.0099317403,FEMA4ImagesEEG,001,102477,
AFNE01.JPG,AFNE01.JPG,AFNE01.JPG,AFNE01.JPG,AFNE01.JPG,AFNE01.JPG,5,5,55,1,,,,,,,,,,,,,,,,,,,,,,,AFSA14.jpg,AFSA13.jpg,AFNE08.jpg,AFNE03.jpg,AFNE08.jpg,FN,3,num_2,16,num_2,0.816824245732,,,2017_Dec_12_1522,60.0099317403,FEMA4ImagesEEG,001,102477,
AFNE01.JPG,AFNE01.JPG,AFNE01.JPG,AFNE01.JPG,AFNE01.JPG,AFNE01.JPG,5,6,56,8,,,,,,,,,,,,,,,,,,,,,,,AFSA04.jpg,AFSA13.jpg,AFNE06.jpg,AFNE08.jpg,AFNE08.jpg,FN,3,num_4,16,num_4,2.0999849895,,,2017_Dec_12_1522,60.0099317403,FEMA4ImagesEEG,001,102477,
AFNE01.JPG,AFNE01.JPG,AFNE01.JPG,AFNE01.JPG,AFNE01.JPG,AFNE01.JPG,5,7,57,3,,,,,,,,,,,,,,,,,,,,,,,AFSA04.jpg,AFNE18.jpg,AFSA13.jpg,AFNE02.jpg,AFNE02.jpg,FN,3,num_4,32,num_6,0.700505292509,,,2017_Dec_12_1522,60.0099317403,FEMA4ImagesEEG,001,102477,
AFNE01.JPG,AFNE01.JPG,AFNE01.JPG,AFNE01.JPG,AFNE01.JPG,AFNE01.JPG,5,8,58,9,,,,,,,,,,,,,,,,,,,,,,,AFNE17.jpg,AFSA12.jpg,AFSA11.jpg,AFNE18.jpg,AFSA12.jpg,FS,4,num_6,32,num_4,0.750111777568,,,2017_Dec_12_1522,60.0099317403,FEMA4ImagesEEG,001,102477,
AFNE01.JPG,AFNE01.JPG,AFNE01.JPG,AFNE01.JPG,AFNE01.JPG,AFNE01.JPG,5,9,59,4,,,,,,,,,,,,,,,,,,,,,,,AFSA02.jpg,AFNE13.jpg,AFNE15.jpg,AFSA08.jpg,AFSA02.jpg,FS,4,num_8,32,num_4,0.683609393658,,,2017_Dec_12_1522,60.0099317403,FEMA4ImagesEEG,001,102477,
,,,,,,,,,,,,,,,,,,,,,,,,,,,,,,,,,,,,,,,,,,,space,33.2141190672,2017_Dec_12_1522,60.0099317403,FEMA4ImagesEEG,001,102477,
AFNE01.JPG,AFNE01.JPG,AFNE01.JPG,AFNE01.JPG,AFNE01.JPG,AFNE01.JPG,,,,,0,0,0,6,,,,,,,,,,,,,,,,,,,AMNE17.jpg,AMSA05.jpg,AMNE05.jpg,AMSA10.jpg,AMSA10.jpg,MS,2,num_4,16,num_4,1.01683784509,,,2017_Dec_12_1522,60.0099317403,FEMA4ImagesEEG,001,102477,
AFNE01.JPG,AFNE01.JPG,AFNE01.JPG,AFNE01.JPG,AFNE01.JPG,AFNE01.JPG,,,,,0,1,1,2,,,,,,,,,,,,,,,,,,,AMNE03.jpg,AMSA05.jpg,AMSA16.jpg,AMNE16.jpg,AMSA05.jpg,MS,2,num_6,32,num_8,2.03333121655,,,2017_Dec_12_1522,60.0099317403,FEMA4ImagesEEG,001,102477,
AFNE01.JPG,AFNE01.JPG,AFNE01.JPG,AFNE01.JPG,AFNE01.JPG,AFNE01.JPG,,,,,0,2,2,5,,,,,,,,,,,,,,,,,,,AMNE14.jpg,AMSA12.jpg,AMNE11.jpg,AMSA05.jpg,AMSA12.jpg,MS,2,num_6,32,num_2,0.666883807164,,,2017_Dec_12_1522,60.0099317403,FEMA4ImagesEEG,001,102477,
AFNE01.JPG,AFNE01.JPG,AFNE01.JPG,AFNE01.JPG,AFNE01.JPG,AFNE01.JPG,,,,,0,3,3,8,,,,,,,,,,,,,,,,,,,AMNE13.jpg,AMNE09.jpg,AMSA05.jpg,AMSA04.jpg,AMSA05.jpg,MS,2,num_2,32,num_6,3.13331299857,,,2017_Dec_12_1522,60.0099317403,FEMA4ImagesEEG,001,102477,
AFNE01.JPG,AFNE01.JPG,AFNE01.JPG,AFNE01.JPG,AFNE01.JPG,AFNE01.JPG,,,,,0,4,4,9,,,,,,,,,,,,,,,,,,,AMSA13.jpg,AMSA10.jpg,AMNE06.jpg,AMNE09.jpg,AMNE06.jpg,MN,1,num_2,32,num_8,0.716832520906,,,2017_Dec_12_1522,60.0099317403,FEMA4ImagesEEG,001,102477,
AFNE01.JPG,AFNE01.JPG,AFNE01.JPG,AFNE01.JPG,AFNE01.JPG,AFNE01.JPG,,,,,0,5,5,7,,,,,,,,,,,,,,,,,,,AMNE11.jpg,AMSA06.jpg,AMNE12.jpg,AMSA07.jpg,AMSA07.jpg,MS,2,num_4,16,num_4,0.966792588821,,,2017_Dec_12_1522,60.0099317403,FEMA4ImagesEEG,001,102477,
AFNE01.JPG,AFNE01.JPG,AFNE01.JPG,AFNE01.JPG,AFNE01.JPG,AFNE01.JPG,,,,,0,6,6,4,,,,,,,,,,,,,,,,,,,AMSA17.jpg,AMSA06.jpg,AMNE10.jpg,AMNE01.jpg,AMSA17.jpg,MS,2,num_8,32,num_6,1.24984748871,,,2017_Dec_12_1522,60.0099317403,FEMA4ImagesEEG,001,102477,
AFNE01.JPG,AFNE01.JPG,AFNE01.JPG,AFNE01.JPG,AFNE01.JPG,AFNE01.JPG,,,,,0,7,7,1,,,,,,,,,,,,,,,,,,,AMSA18.jpg,AMNE06.jpg,AMSA16.jpg,AMNE05.jpg,AMSA16.jpg,MS,2,num_2,32,num_4,1.51673328411,,,2017_Dec_12_1522,60.0099317403,FEMA4ImagesEEG,001,102477,
AFNE01.JPG,AFNE01.JPG,AFNE01.JPG,AFNE01.JPG,AFNE01.JPG,AFNE01.JPG,,,,,0,8,8,3,,,,,,,,,,,,,,,,,,,AMSA05.jpg,AMNE02.jpg,AMSA16.jpg,AMNE05.jpg,AMNE05.jpg,MN,1,num_4,32,num_8,0.850170536898,,,2017_Dec_12_1522,60.0099317403,FEMA4ImagesEEG,001,102477,
AFNE01.JPG,AFNE01.JPG,AFNE01.JPG,AFNE01.JPG,AFNE01.JPG,AFNE01.JPG,,,,,0,9,9,0,,,,,,,,,,,,,,,,,,,AMNE15.jpg,AMSA16.jpg,AMNE14.jpg,AMSA05.jpg,AMNE15.jpg,MN,1,num_8,16,num_8,1.30012239423,,,2017_Dec_12_1522,60.0099317403,FEMA4ImagesEEG,001,102477,
AFNE01.JPG,AFNE01.JPG,AFNE01.JPG,AFNE01.JPG,AFNE01.JPG,AFNE01.JPG,,,,,1,0,10,4,,,,,,,,,,,,,,,,,,,AMSA19.jpg,AMNE02.jpg,AMNE16.jpg,AMSA04.jpg,AMNE16.jpg,MN,1,num_2,32,num_6,0.650108505972,,,2017_Dec_12_1522,60.0099317403,FEMA4ImagesEEG,001,102477,
AFNE01.JPG,AFNE01.JPG,AFNE01.JPG,AFNE01.JPG,AFNE01.JPG,AFNE01.JPG,,,,,1,1,11,2,,,,,,,,,,,,,,,,,,,AMSA08.jpg,AMNE06.jpg,AMNE08.jpg,AMSA01.jpg,AMNE06.jpg,MN,1,num_6,32,num_4,0.700119443238,,,2017_Dec_12_1522,60.0099317403,FEMA4ImagesEEG,001,102477,
AFNE01.JPG,AFNE01.JPG,AFNE01.JPG,AFNE01.JPG,AFNE01.JPG,AFNE01.JPG,,,,,1,2,12,8,,,,,,,,,,,,,,,,,,,AMNE01.jpg,AMSA07.jpg,AMSA15.jpg,AMNE09.jpg,AMNE09.jpg,MN,1,num_4,16,num_4,1.03346047434,,,2017_Dec_12_1522,60.0099317403,FEMA4ImagesEEG,001,102477,
AFNE01.JPG,AFNE01.JPG,AFNE01.JPG,AFNE01.JPG,AFNE01.JPG,AFNE01.JPG,,,,,1,3,13,1,,,,,,,,,,,,,,,,,,,AMNE12.jpg,AMNE02.jpg,AMSA03.jpg,AMSA09.jpg,AMSA09.jpg,MS,2,num_4,16,num_4,1.10012194514,,,2017_Dec_12_1522,60.0099317403,FEMA4ImagesEEG,001,102477,
AFNE01.JPG,AFNE01.JPG,AFNE01.JPG,AFNE01.JPG,AFNE01.JPG,AFNE01.JPG,,,,,1,4,14,9,,,,,,,,,,,,,,,,,,,AMNE04.jpg,AMNE16.jpg,AMSA07.jpg,AMSA05.jpg,AMNE16.jpg,MN,1,num_6,32,num_8,0.950123131741,,,2017_Dec_12_1522,60.0099317403,FEMA4ImagesEEG,001,102477,
AFNE01.JPG,AFNE01.JPG,AFNE01.JPG,AFNE01.JPG,AFNE01.JPG,AFNE01.JPG,,,,,1,5,15,0,,,,,,,,,,,,,,,,,,,AMNE07.jpg,AMSA05.jpg,AMSA07.jpg,AMNE12.jpg,AMNE12.jpg,MN,1,num_4,16,num_4,1.00015331316,,,2017_Dec_12_1522,60.0099317403,FEMA4ImagesEEG,001,102477,
AFNE01.JPG,AFNE01.JPG,AFNE01.JPG,AFNE01.JPG,AFNE01.JPG,AFNE01.JPG,,,,,1,6,16,5,,,,,,,,,,,,,,,,,,,AMNE04.jpg,AMSA14.jpg,AMSA06.jpg,AMNE08.jpg,AMNE08.jpg,MN,1,num_4,16,num_4,0.93349601212,,,2017_Dec_12_1522,60.0099317403,FEMA4ImagesEEG,001,102477,
AFNE01.JPG,AFNE01.JPG,AFNE01.JPG,AFNE01.JPG,AFNE01.JPG,AFNE01.JPG,,,,,1,7,17,3,,,,,,,,,,,,,,,,,,,AMSA10.jpg,AMNE13.jpg,AMSA05.jpg,AMNE18.jpg,AMSA10.jpg,MS,2,num_8,16,num_8,0.6834531934,,,2017_Dec_12_1522,60.0099317403,FEMA4ImagesEEG,001,102477,
AFNE01.JPG,AFNE01.JPG,AFNE01.JPG,AFNE01.JPG,AFNE01.JPG,AFNE01.JPG,,,,,1,8,18,7,,,,,,,,,,,,,,,,,,,AMSA13.jpg,AMNE02.jpg,AMSA01.jpg,AMNE08.jpg,AMNE02.jpg,MN,1,num_6,32,num_8,1.05014981749,,,2017_Dec_12_1522,60.0099317403,FEMA4ImagesEEG,001,102477,
AFNE01.JPG,AFNE01.JPG,AFNE01.JPG,AFNE01.JPG,AFNE01.JPG,AFNE01.JPG,,,,,1,9,19,6,,,,,,,,,,,,,,,,,,,AMNE09.jpg,AMSA20.jpg,AMSA05.jpg,AMNE04.jpg,AMSA05.jpg,MS,2,num_2,32,num_6,0.433548934292,,,2017_Dec_12_1522,60.0099317403,FEMA4ImagesEEG,001,102477,
AFNE01.JPG,AFNE01.JPG,AFNE01.JPG,AFNE01.JPG,AFNE01.JPG,AFNE01.JPG,,,,,2,0,20,8,,,,,,,,,,,,,,,,,,,AMSA20.jpg,AMSA07.jpg,AMNE15.jpg,AMNE17.jpg,AMNE15.jpg,MN,1,num_2,32,num_8,1.28346640803,,,2017_Dec_12_1522,60.0099317403,FEMA4ImagesEEG,001,102477,
AFNE01.JPG,AFNE01.JPG,AFNE01.JPG,AFNE01.JPG,AFNE01.JPG,AFNE01.JPG,,,,,2,1,21,0,,,,,,,,,,,,,,,,,,,AMSA17.jpg,AMSA06.jpg,AMNE01.jpg,AMNE03.jpg,AMSA17.jpg,MS,2,num_8,32,num_6,0.833480552537,,,2017_Dec_12_1522,60.0099317403,FEMA4ImagesEEG,001,102477,
AFNE01.JPG,AFNE01.JPG,AFNE01.JPG,AFNE01.JPG,AFNE01.JPG,AFNE01.JPG,,,,,2,2,22,4,,,,,,,,,,,,,,,,,,,AMSA13.jpg,AMNE06.jpg,AMSA11.jpg,AMNE14.jpg,AMSA13.jpg,MS,2,num_8,32,num_4,0.683534661308,,,2017_Dec_12_1522,60.0099317403,FEMA4ImagesEEG,001,102477,
AFNE01.JPG,AFNE01.JPG,AFNE01.JPG,AFNE01.JPG,AFNE01.JPG,AFNE01.JPG,,,,,2,3,23,3,,,,,,,,,,,,,,,,,,,AMNE17.jpg,AMSA16.jpg,AMNE04.jpg,AMSA04.jpg,AMSA04.jpg,MS,2,num_4,32,num_6,0.566786558833,,,2017_Dec_12_1522,60.0099317403,FEMA4ImagesEEG,001,102477,
AFNE01.JPG,AFNE01.JPG,AFNE01.JPG,AFNE01.JPG,AFNE01.JPG,AFNE01.JPG,,,,,2,4,24,2,,,,,,,,,,,,,,,,,,,AMNE10.jpg,AMNE06.jpg,AMSA18.jpg,AMSA13.jpg,AMNE10.jpg,MN,1,num_8,32,num_6,1.05007187766,,,2017_Dec_12_1522,60.0099317403,FEMA4ImagesEEG,001,102477,
AFNE01.JPG,AFNE01.JPG,AFNE01.JPG,AFNE01.JPG,AFNE01.JPG,AFNE01.JPG,,,,,2,5,25,9,,,,,,,,,,,,,,,,,,,AMSA08.jpg,AMNE03.jpg,AMNE14.jpg,AMSA13.jpg,AMNE14.jpg,MN,1,num_2,16,num_2,1.2334570745,,,2017_Dec_12_1522,60.0099317403,FEMA4ImagesEEG,001,102477,
AFNE01.JPG,AFNE01.JPG,AFNE01.JPG,AFNE01.JPG,AFNE01.JPG,AFNE01.JPG,,,,,2,6,26,5,,,,,,,,,,,,,,,,,,,AMNE15.jpg,AMSA05.jpg,AMNE17.jpg,AMSA13.jpg,AMSA13.jpg,MS,2,num_4,32,num_8,0.81684252806,,,2017_Dec_12_1522,60.0099317403,FEMA4ImagesEEG,001,102477,
AFNE01.JPG,AFNE01.JPG,AFNE01.JPG,AFNE01.JPG,AFNE01.JPG,AFNE01.JPG,,,,,2,7,27,6,,,,,,,,,,,,,,,,,,,AMSA15.jpg,AMNE05.jpg,AMNE07.jpg,AMSA14.jpg,AMSA14.jpg,MS,2,num_4,16,num_4,1.15013737278,,,2017_Dec_12_1522,60.0099317403,FEMA4ImagesEEG,001,102477,
AFNE01.JPG,AFNE01.JPG,AFNE01.JPG,AFNE01.JPG,AFNE01.JPG,AFNE01.JPG,,,,,2,8,28,1,,,,,,,,,,,,,,,,,,,AMSA06.jpg,AMNE03.jpg,AMSA14.jpg,AMNE16.jpg,AMSA14.jpg,MS,2,num_2,16,num_2,1.58335851133,,,2017_Dec_12_1522,60.0099317403,FEMA4ImagesEEG,001,102477,
AFNE01.JPG,AFNE01.JPG,AFNE01.JPG,AFNE01.JPG,AFNE01.JPG,AFNE01.JPG,,,,,2,9,29,7,,,,,,,,,,,,,,,,,,,AMNE15.jpg,AMNE02.jpg,AMSA01.jpg,AMSA02.jpg,AMNE15.jpg,MN,1,num_8,32,num_4,1.05009817821,,,2017_Dec_12_1522,60.0099317403,FEMA4ImagesEEG,001,102477,
AFNE01.JPG,AFNE01.JPG,AFNE01.JPG,AFNE01.JPG,AFNE01.JPG,AFNE01.JPG,,,,,3,0,30,6,,,,,,,,,,,,,,,,,,,AMNE13.jpg,AMSA14.jpg,AMSA08.jpg,AMNE04.jpg,AMSA08.jpg,MS,2,num_2,16,num_2,1.63344802964,,,2017_Dec_12_1522,60.0099317403,FEMA4ImagesEEG,001,102477,
AFNE01.JPG,AFNE01.JPG,AFNE01.JPG,AFNE01.JPG,AFNE01.JPG,AFNE01.JPG,,,,,3,1,31,3,,,,,,,,,,,,,,,,,,,AMSA05.jpg,AMNE02.jpg,AMSA18.jpg,AMNE19.jpg,AMSA05.jpg,MS,2,num_8,16,num_8,1.4835390232,,,2017_Dec_12_1522,60.0099317403,FEMA4ImagesEEG,001,102477,
AFNE01.JPG,AFNE01.JPG,AFNE01.JPG,AFNE01.JPG,AFNE01.JPG,AFNE01.JPG,,,,,3,2,32,5,,,,,,,,,,,,,,,,,,,AMSA01.jpg,AMNE05.jpg,AMSA18.jpg,AMNE12.jpg,AMNE12.jpg,MN,1,num_4,16,num_4,0.750189396553,,,2017_Dec_12_1522,60.0099317403,FEMA4ImagesEEG,001,102477,
AFNE01.JPG,AFNE01.JPG,AFNE01.JPG,AFNE01.JPG,AFNE01.JPG,AFNE01.JPG,,,,,3,3,33,4,,,,,,,,,,,,,,,,,,,AMSA11.jpg,AMSA18.jpg,AMNE07.jpg,AMNE13.jpg,AMSA11.jpg,MS,2,num_8,32,num_6,0.783491105074,,,2017_Dec_12_1522,60.0099317403,FEMA4ImagesEEG,001,102477,
AFNE01.JPG,AFNE01.JPG,AFNE01.JPG,AFNE01.JPG,AFNE01.JPG,AFNE01.JPG,,,,,3,4,34,9,,,,,,,,,,,,,,,,,,,AMNE08.jpg,AMNE07.jpg,AMSA18.jpg,AMSA19.jpg,AMNE08.jpg,MN,1,num_8,48,None,,,,2017_Dec_12_1522,60.0099317403,FEMA4ImagesEEG,001,102477,
AFNE01.JPG,AFNE01.JPG,AFNE01.JPG,AFNE01.JPG,AFNE01.JPG,AFNE01.JPG,,,,,3,5,35,0,,,,,,,,,,,,,,,,,,,AMNE01.jpg,AMNE17.jpg,AMSA01.jpg,AMSA08.jpg,AMNE17.jpg,MN,1,num_6,16,num_6,0.81677805935,,,2017_Dec_12_1522,60.0099317403,FEMA4ImagesEEG,001,102477,
AFNE01.JPG,AFNE01.JPG,AFNE01.JPG,AFNE01.JPG,AFNE01.JPG,AFNE01.JPG,,,,,3,6,36,7,,,,,,,,,,,,,,,,,,,AMSA03.jpg,AMNE17.jpg,AMSA07.jpg,AMNE04.jpg,AMSA07.jpg,MS,2,num_2,32,num_8,1.25009574043,,,2017_Dec_12_1522,60.0099317403,FEMA4ImagesEEG,001,102477,
AFNE01.JPG,AFNE01.JPG,AFNE01.JPG,AFNE01.JPG,AFNE01.JPG,AFNE01.JPG,,,,,3,7,37,1,,,,,,,,,,,,,,,,,,,AMNE03.jpg,AMNE07.jpg,AMSA19.jpg,AMSA10.jpg,AMSA10.jpg,MS,2,num_4,32,num_2,1.23346028174,,,2017_Dec_12_1522,60.0099317403,FEMA4ImagesEEG,001,102477,
AFNE01.JPG,AFNE01.JPG,AFNE01.JPG,AFNE01.JPG,AFNE01.JPG,AFNE01.JPG,,,,,3,8,38,8,,,,,,,,,,,,,,,,,,,AMSA11.jpg,AMNE10.jpg,AMSA10.jpg,AMNE14.jpg,AMNE10.jpg,MN,1,num_6,32,num_8,0.950116717024,,,2017_Dec_12_1522,60.0099317403,FEMA4ImagesEEG,001,102477,
AFNE01.JPG,AFNE01.JPG,AFNE01.JPG,AFNE01.JPG,AFNE01.JPG,AFNE01.JPG,,,,,3,9,39,2,,,,,,,,,,,,,,,,,,,AMNE09.jpg,AMSA05.jpg,AMSA11.jpg,AMNE03.jpg,AMNE03.jpg,MN,1,num_4,16,num_4,0.900166720152,,,2017_Dec_12_1522,60.0099317403,FEMA4ImagesEEG,001,102477,
AFNE01.JPG,AFNE01.JPG,AFNE01.JPG,AFNE01.JPG,AFNE01.JPG,AFNE01.JPG,,,,,4,0,40,8,,,,,,,,,,,,,,,,,,,AMNE08.jpg,AMSA08.jpg,AMNE07.jpg,AMSA01.jpg,AMSA01.jpg,MS,2,num_4,16,num_4,0.800141959218,,,2017_Dec_12_1522,60.0099317403,FEMA4ImagesEEG,001,102477,
AFNE01.JPG,AFNE01.JPG,AFNE01.JPG,AFNE01.JPG,AFNE01.JPG,AFNE01.JPG,,,,,4,1,41,9,,,,,,,,,,,,,,,,,,,AMNE14.jpg,AMSA19.jpg,AMSA14.jpg,AMNE15.jpg,AMNE15.jpg,MN,1,num_4,16,num_4,1.33347253408,,,2017_Dec_12_1522,60.0099317403,FEMA4ImagesEEG,001,102477,
AFNE01.JPG,AFNE01.JPG,AFNE01.JPG,AFNE01.JPG,AFNE01.JPG,AFNE01.JPG,,,,,4,2,42,2,,,,,,,,,,,,,,,,,,,AMSA08.jpg,AMNE03.jpg,AMNE05.jpg,AMSA05.jpg,AMSA05.jpg,MS,2,num_4,16,num_4,0.883500791155,,,2017_Dec_12_1522,60.0099317403,FEMA4ImagesEEG,001,102477,
AFNE01.JPG,AFNE01.JPG,AFNE01.JPG,AFNE01.JPG,AFNE01.JPG,AFNE01.JPG,,,,,4,3,43,6,,,,,,,,,,,,,,,,,,,AMNE15.jpg,AMSA15.jpg,AMNE13.jpg,AMSA19.jpg,AMSA19.jpg,MS,2,num_4,32,num_8,0.816803718451,,,2017_Dec_12_1522,60.0099317403,FEMA4ImagesEEG,001,102477,
AFNE01.JPG,AFNE01.JPG,AFNE01.JPG,AFNE01.JPG,AFNE01.JPG,AFNE01.JPG,,,,,4,4,44,4,,,,,,,,,,,,,,,,,,,AMSA13.jpg,AMSA17.jpg,AMNE07.jpg,AMNE04.jpg,AMSA13.jpg,MS,2,num_8,16,num_8,1.90001340699,,,2017_Dec_12_1522,60.0099317403,FEMA4ImagesEEG,001,102477,
AFNE01.JPG,AFNE01.JPG,AFNE01.JPG,AFNE01.JPG,AFNE01.JPG,AFNE01.JPG,,,,,4,5,45,7,,,,,,,,,,,,,,,,,,,AMSA15.jpg,AMSA14.jpg,AMNE12.jpg,AMNE09.jpg,AMSA14.jpg,MS,2,num_6,16,num_6,1.01679711137,,,2017_Dec_12_1522,60.0099317403,FEMA4ImagesEEG,001,102477,
AFNE01.JPG,AFNE01.JPG,AFNE01.JPG,AFNE01.JPG,AFNE01.JPG,AFNE01.JPG,,,,,4,6,46,0,,,,,,,,,,,,,,,,,,,AMSA11.jpg,AMSA19.jpg,AMNE20.jpg,AMNE13.jpg,AMSA19.jpg,MS,2,num_6,16,num_6,1.05016970308,,,2017_Dec_12_1522,60.0099317403,FEMA4ImagesEEG,001,102477,
AFNE01.JPG,AFNE01.JPG,AFNE01.JPG,AFNE01.JPG,AFNE01.JPG,AFNE01.JPG,,,,,4,7,47,3,,,,,,,,,,,,,,,,,,,AMNE06.jpg,AMSA09.jpg,AMSA20.jpg,AMNE05.jpg,AMSA09.jpg,MS,2,num_6,32,num_2,1.00010488159,,,2017_Dec_12_1522,60.0099317403,FEMA4ImagesEEG,001,102477,
AFNE01.JPG,AFNE01.JPG,AFNE01.JPG,AFNE01.JPG,AFNE01.JPG,AFNE01.JPG,,,,,4,8,48,1,,,,,,,,,,,,,,,,,,,AMNE04.jpg,AMSA12.jpg,AMNE13.jpg,AMSA17.jpg,AMNE04.jpg,MN,1,num_8,16,num_8,1.50002309307,,,2017_Dec_12_1522,60.0099317403,FEMA4ImagesEEG,001,102477,
AFNE01.JPG,AFNE01.JPG,AFNE01.JPG,AFNE01.JPG,AFNE01.JPG,AFNE01.JPG,,,,,4,9,49,5,,,,,,,,,,,,,,,,,,,AMSA05.jpg,AMNE12.jpg,AMSA17.jpg,AMNE11.jpg,AMSA05.jpg,MS,2,num_8,32,num_4,2.09972134163,,,2017_Dec_12_1522,60.0099317403,FEMA4ImagesEEG,001,102477,
AFNE01.JPG,AFNE01.JPG,AFNE01.JPG,AFNE01.JPG,AFNE01.JPG,AFNE01.JPG,,,,,5,0,50,4,,,,,,,,,,,,,,,,,,,AMNE12.jpg,AMSA02.jpg,AMSA04.jpg,AMNE02.jpg,AMNE02.jpg,MN,1,num_4,32,num_2,1.08343837527,,,2017_Dec_12_1522,60.0099317403,FEMA4ImagesEEG,001,102477,
AFNE01.JPG,AFNE01.JPG,AFNE01.JPG,AFNE01.JPG,AFNE01.JPG,AFNE01.JPG,,,,,5,1,51,7,,,,,,,,,,,,,,,,,,,AMNE15.jpg,AMSA02.jpg,AMSA11.jpg,AMNE03.jpg,AMSA02.jpg,MS,2,num_6,16,num_6,0.650136410259,,,2017_Dec_12_1522,60.0099317403,FEMA4ImagesEEG,001,102477,
AFNE01.JPG,AFNE01.JPG,AFNE01.JPG,AFNE01.JPG,AFNE01.JPG,AFNE01.JPG,,,,,5,2,52,3,,,,,,,,,,,,,,,,,,,AMNE07.jpg,AMSA10.jpg,AMNE10.jpg,AMSA14.jpg,AMNE07.jpg,MN,1,num_8,16,num_8,0.800217332784,,,2017_Dec_12_1522,60.0099317403,FEMA4ImagesEEG,001,102477,
AFNE01.JPG,AFNE01.JPG,AFNE01.JPG,AFNE01.JPG,AFNE01.JPG,AFNE01.JPG,,,,,5,3,53,6,,,,,,,,,,,,,,,,,,,AMSA05.jpg,AMSA09.jpg,AMNE05.jpg,AMNE12.jpg,AMNE12.jpg,MN,1,num_4,32,num_8,2.03344764491,,,2017_Dec_12_1522,60.0099317403,FEMA4ImagesEEG,001,102477,
AFNE01.JPG,AFNE01.JPG,AFNE01.JPG,AFNE01.JPG,AFNE01.JPG,AFNE01.JPG,,,,,5,4,54,2,,,,,,,,,,,,,,,,,,,AMSA16.jpg,AMNE06.jpg,AMNE10.jpg,AMSA15.jpg,AMSA16.jpg,MS,2,num_8,16,num_8,0.950121848844,,,2017_Dec_12_1522,60.0099317403,FEMA4ImagesEEG,001,102477,
AFNE01.JPG,AFNE01.JPG,AFNE01.JPG,AFNE01.JPG,AFNE01.JPG,AFNE01.JPG,,,,,5,5,55,1,,,,,,,,,,,,,,,,,,,AMSA15.jpg,AMNE15.jpg,AMNE14.jpg,AMSA05.jpg,AMSA05.jpg,MS,2,num_4,32,num_2,0.850134293549,,,2017_Dec_12_1522,60.0099317403,FEMA4ImagesEEG,001,102477,
AFNE01.JPG,AFNE01.JPG,AFNE01.JPG,AFNE01.JPG,AFNE01.JPG,AFNE01.JPG,,,,,5,6,56,5,,,,,,,,,,,,,,,,,,,AMSA01.jpg,AMNE07.jpg,AMSA15.jpg,AMNE06.jpg,AMNE07.jpg,MN,1,num_6,32,num_8,0.283469615504,,,2017_Dec_12_1522,60.0099317403,FEMA4ImagesEEG,001,102477,
AFNE01.JPG,AFNE01.JPG,AFNE01.JPG,AFNE01.JPG,AFNE01.JPG,AFNE01.JPG,,,,,5,7,57,9,,,,,,,,,,,,,,,,,,,AMNE10.jpg,AMSA08.jpg,AMNE11.jpg,AMSA17.jpg,AMNE11.jpg,MN,1,num_2,32,num_6,0.750122361816,,,2017_Dec_12_1522,60.0099317403,FEMA4ImagesEEG,001,102477,
AFNE01.JPG,AFNE01.JPG,AFNE01.JPG,AFNE01.JPG,AFNE01.JPG,AFNE01.JPG,,,,,5,8,58,0,,,,,,,,,,,,,,,,,,,AMNE14.jpg,AMSA10.jpg,AMSA01.jpg,AMNE08.jpg,AMNE08.jpg,MN,1,num_4,16,num_4,0.833461308153,,,2017_Dec_12_1522,60.0099317403,FEMA4ImagesEEG,001,102477,
AFNE01.JPG,AFNE01.JPG,AFNE01.JPG,AFNE01.JPG,AFNE01.JPG,AFNE01.JPG,,,,,5,9,59,8,,,,,,,,,,,,,,,,,,,AMNE13.jpg,AMSA09.jpg,AMNE15.jpg,AMSA08.jpg,AMNE13.jpg,MN,1,num_8,16,num_8,0.966456454247,,,2017_Dec_12_1522,60.0099317403,FEMA4ImagesEEG,001,102477,
,,,,,,,,,,,,,,,,,,,,,,,,,,,,,,,,,,,,,,,,,,,space,31.3643465678,2017_Dec_12_1522,60.0099317403,FEMA4ImagesEEG,001,102477,
AFNE01.JPG,AFNE01.JPG,AFNE01.JPG,AFNE01.JPG,AFNE01.JPG,AFNE01.JPG,,,,,,,,,0,0,0,5,,,,,,,,,,,,,,,AFNE18.jpg,AFNE02.jpg,AFSA15.jpg,AFSA17.jpg,AFNE18.jpg,FN,3,num_8,16,num_8,0.783409316558,,,2017_Dec_12_1522,60.0099317403,FEMA4ImagesEEG,001,102477,
AFNE01.JPG,AFNE01.JPG,AFNE01.JPG,AFNE01.JPG,AFNE01.JPG,AFNE01.JPG,,,,,,,,,0,1,1,4,,,,,,,,,,,,,,,AFNE12.jpg,AFNE10.jpg,AFSA16.jpg,AFSA19.jpg,AFNE10.jpg,FN,3,num_6,16,num_6,0.766490645008,,,2017_Dec_12_1522,60.0099317403,FEMA4ImagesEEG,001,102477,
AFNE01.JPG,AFNE01.JPG,AFNE01.JPG,AFNE01.JPG,AFNE01.JPG,AFNE01.JPG,,,,,,,,,0,2,2,8,,,,,,,,,,,,,,,AFSA12.jpg,AFNE20.jpg,AFNE06.jpg,AFSA08.jpg,AFSA12.jpg,FS,4,num_8,32,num_2,0.650202803547,,,2017_Dec_12_1522,60.0099317403,FEMA4ImagesEEG,001,102477,
AFNE01.JPG,AFNE01.JPG,AFNE01.JPG,AFNE01.JPG,AFNE01.JPG,AFNE01.JPG,,,,,,,,,0,3,3,7,,,,,,,,,,,,,,,AFSA03.jpg,AFNE18.jpg,AFNE10.jpg,AFSA20.jpg,AFSA03.jpg,FS,4,num_8,16,num_8,0.600145358825,,,2017_Dec_12_1522,60.0099317403,FEMA4ImagesEEG,001,102477,
AFNE01.JPG,AFNE01.JPG,AFNE01.JPG,AFNE01.JPG,AFNE01.JPG,AFNE01.JPG,,,,,,,,,0,4,4,9,,,,,,,,,,,,,,,AFNE07.jpg,AFNE08.jpg,AFSA17.jpg,AFSA04.jpg,AFSA17.jpg,FS,4,num_2,32,num_4,1.11676510144,,,2017_Dec_12_1522,60.0099317403,FEMA4ImagesEEG,001,102477,
AFNE01.JPG,AFNE01.JPG,AFNE01.JPG,AFNE01.JPG,AFNE01.JPG,AFNE01.JPG,,,,,,,,,0,5,5,1,,,,,,,,,,,,,,,AFNE11.jpg,AFSA16.jpg,AFNE05.jpg,AFSA15.jpg,AFSA15.jpg,FS,4,num_4,32,num_2,0.73352122237,,,2017_Dec_12_1522,60.0099317403,FEMA4ImagesEEG,001,102477,
AFNE01.JPG,AFNE01.JPG,AFNE01.JPG,AFNE01.JPG,AFNE01.JPG,AFNE01.JPG,,,,,,,,,0,6,6,0,,,,,,,,,,,,,,,AFNE16.jpg,AFSA05.jpg,AFSA18.jpg,AFNE07.jpg,AFNE16.jpg,FN,3,num_8,16,num_8,0.750179774361,,,2017_Dec_12_1522,60.0099317403,FEMA4ImagesEEG,001,102477,
AFNE01.JPG,AFNE01.JPG,AFNE01.JPG,AFNE01.JPG,AFNE01.JPG,AFNE01.JPG,,,,,,,,,0,7,7,2,,,,,,,,,,,,,,,AFSA08.jpg,AFNE12.jpg,AFNE11.jpg,AFSA13.jpg,AFNE12.jpg,FN,3,num_6,16,num_6,1.06682697218,,,2017_Dec_12_1522,60.0099317403,FEMA4ImagesEEG,001,102477,
AFNE01.JPG,AFNE01.JPG,AFNE01.JPG,AFNE01.JPG,AFNE01.JPG,AFNE01.JPG,,,,,,,,,0,8,8,3,,,,,,,,,,,,,,,AFSA10.jpg,AFNE04.jpg,AFNE20.jpg,AFSA15.jpg,AFSA10.jpg,FS,4,num_8,16,num_8,1.23341954802,,,2017_Dec_12_1522,60.0099317403,FEMA4ImagesEEG,001,102477,
AFNE01.JPG,AFNE01.JPG,AFNE01.JPG,AFNE01.JPG,AFNE01.JPG,AFNE01.JPG,,,,,,,,,0,9,9,6,,,,,,,,,,,,,,,AFSA15.jpg,AFNE04.jpg,AFNE05.jpg,AFSA14.jpg,AFSA14.jpg,FS,4,num_4,16,num_4,1.2501146642,,,2017_Dec_12_1522,60.0099317403,FEMA4ImagesEEG,001,102477,
AFNE01.JPG,AFNE01.JPG,AFNE01.JPG,AFNE01.JPG,AFNE01.JPG,AFNE01.JPG,,,,,,,,,1,0,10,4,,,,,,,,,,,,,,,AFSA07.jpg,AFNE10.jpg,AFSA18.jpg,AFNE13.jpg,AFSA18.jpg,FS,4,num_2,16,num_2,1.50004779012,,,2017_Dec_12_1522,60.0099317403,FEMA4ImagesEEG,001,102477,
AFNE01.JPG,AFNE01.JPG,AFNE01.JPG,AFNE01.JPG,AFNE01.JPG,AFNE01.JPG,,,,,,,,,1,1,11,5,,,,,,,,,,,,,,,AFSA14.jpg,AFNE15.jpg,AFSA15.jpg,AFNE02.jpg,AFNE15.jpg,FN,3,num_6,16,num_6,0.950157771586,,,2017_Dec_12_1522,60.0099317403,FEMA4ImagesEEG,001,102477,
AFNE01.JPG,AFNE01.JPG,AFNE01.JPG,AFNE01.JPG,AFNE01.JPG,AFNE01.JPG,,,,,,,,,1,2,12,9,,,,,,,,,,,,,,,AFSA12.jpg,AFNE16.jpg,AFNE01.jpg,AFSA09.jpg,AFSA12.jpg,FS,4,num_8,32,num_6,0.983450820204,,,2017_Dec_12_1522,60.0099317403,FEMA4ImagesEEG,001,102477,
AFNE01.JPG,AFNE01.JPG,AFNE01.JPG,AFNE01.JPG,AFNE01.JPG,AFNE01.JPG,,,,,,,,,1,3,13,8,,,,,,,,,,,,,,,AFNE07.jpg,AFNE15.jpg,AFSA14.jpg,AFSA18.jpg,AFNE07.jpg,FN,3,num_8,16,num_8,1.10014311387,,,2017_Dec_12_1522,60.0099317403,FEMA4ImagesEEG,001,102477,
AFNE01.JPG,AFNE01.JPG,AFNE01.JPG,AFNE01.JPG,AFNE01.JPG,AFNE01.JPG,,,,,,,,,1,4,14,2,,,,,,,,,,,,,,,AFSA20.jpg,AFNE10.jpg,AFNE08.jpg,AFSA18.jpg,AFNE08.jpg,FN,3,num_2,32,num_8,0.783286473248,,,2017_Dec_12_1522,60.0099317403,FEMA4ImagesEEG,001,102477,
AFNE01.JPG,AFNE01.JPG,AFNE01.JPG,AFNE01.JPG,AFNE01.JPG,AFNE01.JPG,,,,,,,,,1,5,15,1,,,,,,,,,,,,,,,AFNE03.jpg,AFSA14.jpg,AFNE20.jpg,AFSA05.jpg,AFNE03.jpg,FN,3,num_8,32,num_2,0.466840699781,,,2017_Dec_12_1522,60.0099317403,FEMA4ImagesEEG,001,102477,
AFNE01.JPG,AFNE01.JPG,AFNE01.JPG,AFNE01.JPG,AFNE01.JPG,AFNE01.JPG,,,,,,,,,1,6,16,0,,,,,,,,,,,,,,,AFNE05.jpg,AFNE11.jpg,AFSA13.jpg,AFSA04.jpg,AFSA13.jpg,FS,4,num_2,32,num_6,0.600101417629,,,2017_Dec_12_1522,60.0099317403,FEMA4ImagesEEG,001,102477,
AFNE01.JPG,AFNE01.JPG,AFNE01.JPG,AFNE01.JPG,AFNE01.JPG,AFNE01.JPG,,,,,,,,,1,7,17,6,,,,,,,,,,,,,,,AFNE04.jpg,AFSA14.jpg,AFSA18.jpg,AFNE14.jpg,AFNE14.jpg,FN,3,num_4,32,num_8,0.500158124371,,,2017_Dec_12_1522,60.0099317403,FEMA4ImagesEEG,001,102477,
AFNE01.JPG,AFNE01.JPG,AFNE01.JPG,AFNE01.JPG,AFNE01.JPG,AFNE01.JPG,,,,,,,,,1,8,18,3,,,,,,,,,,,,,,,AFSA18.jpg,AFNE05.jpg,AFSA15.jpg,AFNE16.jpg,AFNE16.jpg,FN,3,num_4,32,num_2,0.466850001132,,,2017_Dec_12_1522,60.0099317403,FEMA4ImagesEEG,001,102477,
AFNE01.JPG,AFNE01.JPG,AFNE01.JPG,AFNE01.JPG,AFNE01.JPG,AFNE01.JPG,,,,,,,,,1,9,19,7,,,,,,,,,,,,,,,AFSA10.jpg,AFNE07.jpg,AFSA14.jpg,AFNE13.jpg,AFNE13.jpg,FN,3,num_4,16,num_4,0.566812538775,,,2017_Dec_12_1522,60.0099317403,FEMA4ImagesEEG,001,102477,
AFNE01.JPG,AFNE01.JPG,AFNE01.JPG,AFNE01.JPG,AFNE01.JPG,AFNE01.JPG,,,,,,,,,2,0,20,9,,,,,,,,,,,,,,,AFNE10.jpg,AFNE16.jpg,AFSA14.jpg,AFSA11.jpg,AFNE16.jpg,FN,3,num_6,16,num_6,0.616776968818,,,2017_Dec_12_1522,60.0099317403,FEMA4ImagesEEG,001,102477,
AFNE01.JPG,AFNE01.JPG,AFNE01.JPG,AFNE01.JPG,AFNE01.JPG,AFNE01.JPG,,,,,,,,,2,1,21,7,,,,,,,,,,,,,,,AFSA04.jpg,AFNE18.jpg,AFNE01.jpg,AFSA19.jpg,AFNE18.jpg,FN,3,num_6,32,num_2,0.633508328814,,,2017_Dec_12_1522,60.0099317403,FEMA4ImagesEEG,001,102477,
AFNE01.JPG,AFNE01.JPG,AFNE01.JPG,AFNE01.JPG,AFNE01.JPG,AFNE01.JPG,,,,,,,,,2,2,22,2,,,,,,,,,,,,,,,AFSA02.jpg,AFSA14.jpg,AFNE06.jpg,AFNE19.jpg,AFSA14.jpg,FS,4,num_6,16,num_6,0.983504062984,,,2017_Dec_12_1522,60.0099317403,FEMA4ImagesEEG,001,102477,
AFNE01.JPG,AFNE01.JPG,AFNE01.JPG,AFNE01.JPG,AFNE01.JPG,AFNE01.JPG,,,,,,,,,2,3,23,6,,,,,,,,,,,,,,,AFSA09.jpg,AFNE13.jpg,AFNE18.jpg,AFSA12.jpg,AFNE13.jpg,FN,3,num_6,32,num_4,0.733166484861,,,2017_Dec_12_1522,60.0099317403,FEMA4ImagesEEG,001,102477,
AFNE01.JPG,AFNE01.JPG,AFNE01.JPG,AFNE01.JPG,AFNE01.JPG,AFNE01.JPG,,,,,,,,,2,4,24,8,,,,,,,,,,,,,,,AFNE08.jpg,AFNE18.jpg,AFSA11.jpg,AFSA18.jpg,AFNE08.jpg,FN,3,num_8,32,num_6,0.933482862078,,,2017_Dec_12_1522,60.0099317403,FEMA4ImagesEEG,001,102477,
AFNE01.JPG,AFNE01.JPG,AFNE01.JPG,AFNE01.JPG,AFNE01.JPG,AFNE01.JPG,,,,,,,,,2,5,25,1,,,,,,,,,,,,,,,AFSA14.jpg,AFSA07.jpg,AFNE05.jpg,AFNE06.jpg,AFSA14.jpg,FS,4,num_8,32,num_2,1.0504365582,,,2017_Dec_12_1522,60.0099317403,FEMA4ImagesEEG,001,102477,
AFNE01.JPG,AFNE01.JPG,AFNE01.JPG,AFNE01.JPG,AFNE01.JPG,AFNE01.JPG,,,,,,,,,2,6,26,3,,,,,,,,,,,,,,,AFNE01.jpg,AFSA18.jpg,AFSA02.jpg,AFNE08.jpg,AFNE08.jpg,FN,3,num_4,32,num_8,0.966752175707,,,2017_Dec_12_1522,60.0099317403,FEMA4ImagesEEG,001,102477,
AFNE01.JPG,AFNE01.JPG,AFNE01.JPG,AFNE01.JPG,AFNE01.JPG,AFNE01.JPG,,,,,,,,,2,7,27,5,,,,,,,,,,,,,,,AFSA17.jpg,AFNE02.jpg,AFSA12.jpg,AFNE17.jpg,AFNE02.jpg,FN,3,num_6,16,num_6,0.866505463142,,,2017_Dec_12_1522,60.0099317403,FEMA4ImagesEEG,001,102477,
AFNE01.JPG,AFNE01.JPG,AFNE01.JPG,AFNE01.JPG,AFNE01.JPG,AFNE01.JPG,,,,,,,,,2,8,28,4,,,,,,,,,,,,,,,AFSA17.jpg,AFNE03.jpg,AFNE08.jpg,AFSA09.jpg,AFSA09.jpg,FS,4,num_4,32,num_8,0.966771099251,,,2017_Dec_12_1522,60.0099317403,FEMA4ImagesEEG,001,102477,
AFNE01.JPG,AFNE01.JPG,AFNE01.JPG,AFNE01.JPG,AFNE01.JPG,AFNE01.JPG,,,,,,,,,2,9,29,0,,,,,,,,,,,,,,,AFNE11.jpg,AFNE06.jpg,AFSA15.jpg,AFSA08.jpg,AFNE06.jpg,FN,3,num_6,16,num_6,0.700191609561,,,2017_Dec_12_1522,60.0099317403,FEMA4ImagesEEG,001,102477,
AFNE01.JPG,AFNE01.JPG,AFNE01.JPG,AFNE01.JPG,AFNE01.JPG,AFNE01.JPG,,,,,,,,,3,0,30,5,,,,,,,,,,,,,,,AFNE11.jpg,AFSA09.jpg,AFNE07.jpg,AFSA15.jpg,AFSA15.jpg,FS,4,num_4,32,num_8,1.10011103982,,,2017_Dec_12_1522,60.0099317403,FEMA4ImagesEEG,001,102477,
AFNE01.JPG,AFNE01.JPG,AFNE01.JPG,AFNE01.JPG,AFNE01.JPG,AFNE01.JPG,,,,,,,,,3,1,31,0,,,,,,,,,,,,,,,AFSA05.jpg,AFSA14.jpg,AFNE17.jpg,AFNE15.jpg,AFSA05.jpg,FS,4,num_8,32,num_6,1.16677315207,,,2017_Dec_12_1522,60.0099317403,FEMA4ImagesEEG,001,102477,
AFNE01.JPG,AFNE01.JPG,AFNE01.JPG,AFNE01.JPG,AFNE01.JPG,AFNE01.JPG,,,,,,,,,3,2,32,7,,,,,,,,,,,,,,,AFSA05.jpg,AFNE19.jpg,AFNE08.jpg,AFSA01.jpg,AFNE19.jpg,FN,3,num_6,32,num_8,1.1334878013,,,2017_Dec_12_1522,60.0099317403,FEMA4ImagesEEG,001,102477,
AFNE01.JPG,AFNE01.JPG,AFNE01.JPG,AFNE01.JPG,AFNE01.JPG,AFNE01.JPG,,,,,,,,,3,3,33,6,,,,,,,,,,,,,,,AFSA10.jpg,AFSA02.jpg,AFNE03.jpg,AFNE19.jpg,AFSA02.jpg,FS,4,num_6,32,num_2,0.283499444369,,,2017_Dec_12_1522,60.0099317403,FEMA4ImagesEEG,001,102477,
AFNE01.JPG,AFNE01.JPG,AFNE01.JPG,AFNE01.JPG,AFNE01.JPG,AFNE01.JPG,,,,,,,,,3,4,34,2,,,,,,,,,,,,,,,AFNE12.jpg,AFSA14.jpg,AFNE06.jpg,AFSA04.jpg,AFNE12.jpg,FN,3,num_8,32,num_6,0.36681786296,,,2017_Dec_12_1522,60.0099317403,FEMA4ImagesEEG,001,102477,
AFNE01.JPG,AFNE01.JPG,AFNE01.JPG,AFNE01.JPG,AFNE01.JPG,AFNE01.JPG,,,,,,,,,3,5,35,8,,,,,,,,,,,,,,,AFNE14.jpg,AFNE12.jpg,AFSA07.jpg,AFSA01.jpg,AFSA01.jpg,FS,4,num_4,16,num_4,0.666689439211,,,2017_Dec_12_1522,60.0099317403,FEMA4ImagesEEG,001,102477,
AFNE01.JPG,AFNE01.JPG,AFNE01.JPG,AFNE01.JPG,AFNE01.JPG,AFNE01.JPG,,,,,,,,,3,6,36,4,,,,,,,,,,,,,,,AFSA18.jpg,AFSA07.jpg,AFNE03.jpg,AFNE05.jpg,AFSA07.jpg,FS,4,num_6,16,num_6,1.16675102105,,,2017_Dec_12_1522,60.0099317403,FEMA4ImagesEEG,001,102477,
AFNE01.JPG,AFNE01.JPG,AFNE01.JPG,AFNE01.JPG,AFNE01.JPG,AFNE01.JPG,,,,,,,,,3,7,37,1,,,,,,,,,,,,,,,AFSA03.jpg,AFNE15.jpg,AFSA17.jpg,AFNE16.jpg,AFNE15.jpg,FN,3,num_6,16,num_6,0.816772286082,,,2017_Dec_12_1522,60.0099317403,FEMA4ImagesEEG,001,102477,
AFNE01.JPG,AFNE01.JPG,AFNE01.JPG,AFNE01.JPG,AFNE01.JPG,AFNE01.JPG,,,,,,,,,3,8,38,9,,,,,,,,,,,,,,,AFSA07.jpg,AFNE19.jpg,AFNE05.jpg,AFSA08.jpg,AFSA07.jpg,FS,4,num_8,16,num_8,0.900157418801,,,2017_Dec_12_1522,60.0099317403,FEMA4ImagesEEG,001,102477,
AFNE01.JPG,AFNE01.JPG,AFNE01.JPG,AFNE01.JPG,AFNE01.JPG,AFNE01.JPG,,,,,,,,,3,9,39,3,,,,,,,,,,,,,,,AFSA09.jpg,AFNE06.jpg,AFSA20.jpg,AFNE01.jpg,AFNE01.jpg,FN,3,num_4,32,num_6,0.966843265807,,,2017_Dec_12_1522,60.0099317403,FEMA4ImagesEEG,001,102477,
AFNE01.JPG,AFNE01.JPG,AFNE01.JPG,AFNE01.JPG,AFNE01.JPG,AFNE01.JPG,,,,,,,,,4,0,40,9,,,,,,,,,,,,,,,AFSA14.jpg,AFNE05.jpg,AFNE18.jpg,AFSA12.jpg,AFNE05.jpg,FN,3,num_6,48,None,,,,2017_Dec_12_1522,60.0099317403,FEMA4ImagesEEG,001,102477,
AFNE01.JPG,AFNE01.JPG,AFNE01.JPG,AFNE01.JPG,AFNE01.JPG,AFNE01.JPG,,,,,,,,,4,1,41,7,,,,,,,,,,,,,,,AFSA10.jpg,AFNE05.jpg,AFSA11.jpg,AFNE09.jpg,AFSA10.jpg,FS,4,num_8,16,num_8,1.31674662698,,,2017_Dec_12_1522,60.0099317403,FEMA4ImagesEEG,001,102477,
AFNE01.JPG,AFNE01.JPG,AFNE01.JPG,AFNE01.JPG,AFNE01.JPG,AFNE01.JPG,,,,,,,,,4,2,42,0,,,,,,,,,,,,,,,AFSA07.jpg,AFNE10.jpg,AFSA06.jpg,AFNE19.jpg,AFSA07.jpg,FS,4,num_8,16,num_8,0.966770457802,,,2017_Dec_12_1522,60.0099317403,FEMA4ImagesEEG,001,102477,
AFNE01.JPG,AFNE01.JPG,AFNE01.JPG,AFNE01.JPG,AFNE01.JPG,AFNE01.JPG,,,,,,,,,4,3,43,2,,,,,,,,,,,,,,,AFNE17.jpg,AFNE03.jpg,AFSA03.jpg,AFSA20.jpg,AFNE03.jpg,FN,3,num_6,32,num_8,3.34995403816,,,2017_Dec_12_1522,60.0099317403,FEMA4ImagesEEG,001,102477,
AFNE01.JPG,AFNE01.JPG,AFNE01.JPG,AFNE01.JPG,AFNE01.JPG,AFNE01.JPG,,,,,,,,,4,4,44,1,,,,,,,,,,,,,,,AFNE01.jpg,AFSA07.jpg,AFNE12.jpg,AFSA11.jpg,AFNE01.jpg,FN,3,num_8,32,num_2,0.300191673916,,,2017_Dec_12_1522,60.0099317403,FEMA4ImagesEEG,001,102477,
AFNE01.JPG,AFNE01.JPG,AFNE01.JPG,AFNE01.JPG,AFNE01.JPG,AFNE01.JPG,,,,,,,,,4,5,45,8,,,,,,,,,,,,,,,AFSA06.jpg,AFNE06.jpg,AFSA19.jpg,AFNE17.jpg,AFSA06.jpg,FS,4,num_8,32,num_6,0.51676952769,,,2017_Dec_12_1522,60.0099317403,FEMA4ImagesEEG,001,102477,
AFNE01.JPG,AFNE01.JPG,AFNE01.JPG,AFNE01.JPG,AFNE01.JPG,AFNE01.JPG,,,,,,,,,4,6,46,6,,,,,,,,,,,,,,,AFSA09.jpg,AFSA15.jpg,AFNE20.jpg,AFNE15.jpg,AFSA09.jpg,FS,4,num_8,32,num_4,0.750106645748,,,2017_Dec_12_1522,60.0099317403,FEMA4ImagesEEG,001,102477,
AFNE01.JPG,AFNE01.JPG,AFNE01.JPG,AFNE01.JPG,AFNE01.JPG,AFNE01.JPG,,,,,,,,,4,7,47,4,,,,,,,,,,,,,,,AFSA01.jpg,AFNE13.jpg,AFNE16.jpg,AFSA14.jpg,AFNE16.jpg,FN,3,num_2,32,num_8,0.633457972435,,,2017_Dec_12_1522,60.0099317403,FEMA4ImagesEEG,001,102477,
AFNE01.JPG,AFNE01.JPG,AFNE01.JPG,AFNE01.JPG,AFNE01.JPG,AFNE01.JPG,,,,,,,,,4,8,48,3,,,,,,,,,,,,,,,AFNE03.jpg,AFSA04.jpg,AFNE05.jpg,AFSA14.jpg,AFSA14.jpg,FS,4,num_4,32,num_6,0.716781844152,,,2017_Dec_12_1522,60.0099317403,FEMA4ImagesEEG,001,102477,
AFNE01.JPG,AFNE01.JPG,AFNE01.JPG,AFNE01.JPG,AFNE01.JPG,AFNE01.JPG,,,,,,,,,4,9,49,5,,,,,,,,,,,,,,,AFSA13.jpg,AFSA18.jpg,AFNE05.jpg,AFNE06.jpg,AFSA18.jpg,FS,4,num_6,48,None,,,,2017_Dec_12_1522,60.0099317403,FEMA4ImagesEEG,001,102477,
AFNE01.JPG,AFNE01.JPG,AFNE01.JPG,AFNE01.JPG,AFNE01.JPG,AFNE01.JPG,,,,,,,,,5,0,50,1,,,,,,,,,,,,,,,AFNE10.jpg,AFNE17.jpg,AFSA11.jpg,AFSA06.jpg,AFNE10.jpg,FN,3,num_8,16,num_8,0.900191096356,,,2017_Dec_12_1522,60.0099317403,FEMA4ImagesEEG,001,102477,
AFNE01.JPG,AFNE01.JPG,AFNE01.JPG,AFNE01.JPG,AFNE01.JPG,AFNE01.JPG,,,,,,,,,5,1,51,7,,,,,,,,,,,,,,,AFSA13.jpg,AFNE17.jpg,AFSA09.jpg,AFNE13.jpg,AFSA09.jpg,FS,4,num_2,32,num_8,1.00014625699,,,2017_Dec_12_1522,60.0099317403,FEMA4ImagesEEG,001,102477,
AFNE01.JPG,AFNE01.JPG,AFNE01.JPG,AFNE01.JPG,AFNE01.JPG,AFNE01.JPG,,,,,,,,,5,2,52,6,,,,,,,,,,,,,,,AFNE15.jpg,AFSA14.jpg,AFNE08.jpg,AFSA15.jpg,AFSA15.jpg,FS,4,num_4,32,num_8,0.550153987017,,,2017_Dec_12_1522,60.0099317403,FEMA4ImagesEEG,001,102477,
AFNE01.JPG,AFNE01.JPG,AFNE01.JPG,AFNE01.JPG,AFNE01.JPG,AFNE01.JPG,,,,,,,,,5,3,53,8,,,,,,,,,,,,,,,AFNE03.jpg,AFNE16.jpg,AFSA09.jpg,AFSA12.jpg,AFNE03.jpg,FN,3,num_8,32,num_2,1.1000616462,,,2017_Dec_12_1522,60.0099317403,FEMA4ImagesEEG,001,102477,
AFNE01.JPG,AFNE01.JPG,AFNE01.JPG,AFNE01.JPG,AFNE01.JPG,AFNE01.JPG,,,,,,,,,5,4,54,0,,,,,,,,,,,,,,,AFNE17.jpg,AFNE14.jpg,AFSA20.jpg,AFSA13.jpg,AFSA20.jpg,FS,4,num_2,32,num_6,1.20013098978,,,2017_Dec_12_1522,60.0099317403,FEMA4ImagesEEG,001,102477,
AFNE01.JPG,AFNE01.JPG,AFNE01.JPG,AFNE01.JPG,AFNE01.JPG,AFNE01.JPG,,,,,,,,,5,5,55,4,,,,,,,,,,,,,,,AFSA08.jpg,AFNE08.jpg,AFSA11.jpg,AFNE04.jpg,AFNE04.jpg,FN,3,num_4,16,num_4,0.78346672887,,,2017_Dec_12_1522,60.0099317403,FEMA4ImagesEEG,001,102477,
AFNE01.JPG,AFNE01.JPG,AFNE01.JPG,AFNE01.JPG,AFNE01.JPG,AFNE01.JPG,,,,,,,,,5,6,56,2,,,,,,,,,,,,,,,AFSA18.jpg,AFNE13.jpg,AFNE03.jpg,AFSA11.jpg,AFNE13.jpg,FN,3,num_6,16,num_6,1.46672010189,,,2017_Dec_12_1522,60.0099317403,FEMA4ImagesEEG,001,102477,
AFNE01.JPG,AFNE01.JPG,AFNE01.JPG,AFNE01.JPG,AFNE01.JPG,AFNE01.JPG,,,,,,,,,5,7,57,5,,,,,,,,,,,,,,,AFNE19.jpg,AFSA16.jpg,AFNE10.jpg,AFSA02.jpg,AFNE10.jpg,FN,3,num_2,16,num_2,1.1167606113,,,2017_Dec_12_1522,60.0099317403,FEMA4ImagesEEG,001,102477,
AFNE01.JPG,AFNE01.JPG,AFNE01.JPG,AFNE01.JPG,AFNE01.JPG,AFNE01.JPG,,,,,,,,,5,8,58,3,,,,,,,,,,,,,,,AFNE16.jpg,AFSA06.jpg,AFSA09.jpg,AFNE01.jpg,AFSA09.jpg,FS,4,num_2,32,num_8,1.08349001431,,,2017_Dec_12_1522,60.0099317403,FEMA4ImagesEEG,001,102477,
AFNE01.JPG,AFNE01.JPG,AFNE01.JPG,AFNE01.JPG,AFNE01.JPG,AFNE01.JPG,,,,,,,,,5,9,59,9,,,,,,,,,,,,,,,AFSA15.jpg,AFNE04.jpg,AFSA05.jpg,AFNE18.jpg,AFSA15.jpg,FS,4,num_8,16,num_8,1.00013118237,,,2017_Dec_12_1522,60.0099317403,FEMA4ImagesEEG,001,102477,
,,,,,,,,,,,,,,,,,,,,,,,,,,,,,,,,,,,,,,,,,,,space,23.2152669928,2017_Dec_12_1522,60.0099317403,FEMA4ImagesEEG,001,102477,
AFNE01.JPG,AFNE01.JPG,AFNE01.JPG,AFNE01.JPG,AFNE01.JPG,AFNE01.JPG,,,,,,,,,,,,,0,0,0,2,,,,,,,,,,,AMSA15.jpg,AMNE16.jpg,AMNE15.jpg,AMSA12.jpg,AMNE15.jpg,MN,1,num_2,32,num_4,1.10017711204,,,2017_Dec_12_1522,60.0099317403,FEMA4ImagesEEG,001,102477,
AFNE01.JPG,AFNE01.JPG,AFNE01.JPG,AFNE01.JPG,AFNE01.JPG,AFNE01.JPG,,,,,,,,,,,,,0,1,1,3,,,,,,,,,,,AMNE11.jpg,AMSA02.jpg,AMNE03.jpg,AMSA20.jpg,AMSA20.jpg,MS,2,num_4,32,num_6,0.900015010498,,,2017_Dec_12_1522,60.0099317403,FEMA4ImagesEEG,001,102477,
AFNE01.JPG,AFNE01.JPG,AFNE01.JPG,AFNE01.JPG,AFNE01.JPG,AFNE01.JPG,,,,,,,,,,,,,0,2,2,8,,,,,,,,,,,AMNE09.jpg,AMSA12.jpg,AMNE11.jpg,AMSA02.jpg,AMSA02.jpg,MS,2,num_4,32,num_2,0.300195522606,,,2017_Dec_12_1522,60.0099317403,FEMA4ImagesEEG,001,102477,
AFNE01.JPG,AFNE01.JPG,AFNE01.JPG,AFNE01.JPG,AFNE01.JPG,AFNE01.JPG,,,,,,,,,,,,,0,3,3,6,,,,,,,,,,,AMSA13.jpg,AMNE02.jpg,AMNE08.jpg,AMSA16.jpg,AMSA16.jpg,MS,2,num_4,32,num_8,0.700163384667,,,2017_Dec_12_1522,60.0099317403,FEMA4ImagesEEG,001,102477,
AFNE01.JPG,AFNE01.JPG,AFNE01.JPG,AFNE01.JPG,AFNE01.JPG,AFNE01.JPG,,,,,,,,,,,,,0,4,4,9,,,,,,,,,,,AMNE12.jpg,AMNE03.jpg,AMSA10.jpg,AMSA13.jpg,AMNE03.jpg,MN,1,num_6,16,num_6,0.516796790529,,,2017_Dec_12_1522,60.0099317403,FEMA4ImagesEEG,001,102477,
AFNE01.JPG,AFNE01.JPG,AFNE01.JPG,AFNE01.JPG,AFNE01.JPG,AFNE01.JPG,,,,,,,,,,,,,0,5,5,5,,,,,,,,,,,AMSA19.jpg,AMNE01.jpg,AMSA17.jpg,AMNE20.jpg,AMNE20.jpg,MN,1,num_4,16,num_4,0.999867214123,,,2017_Dec_12_1522,60.0099317403,FEMA4ImagesEEG,001,102477,
AFNE01.JPG,AFNE01.JPG,AFNE01.JPG,AFNE01.JPG,AFNE01.JPG,AFNE01.JPG,,,,,,,,,,,,,0,6,6,1,,,,,,,,,,,AMNE19.jpg,AMSA16.jpg,AMNE05.jpg,AMSA02.jpg,AMSA02.jpg,MS,2,num_4,32,num_2,1.13345765183,,,2017_Dec_12_1522,60.0099317403,FEMA4ImagesEEG,001,102477,
AFNE01.JPG,AFNE01.JPG,AFNE01.JPG,AFNE01.JPG,AFNE01.JPG,AFNE01.JPG,,,,,,,,,,,,,0,7,7,4,,,,,,,,,,,AMNE18.jpg,AMNE20.jpg,AMSA13.jpg,AMSA05.jpg,AMNE18.jpg,MN,1,num_8,16,num_8,1.38344273739,,,2017_Dec_12_1522,60.0099317403,FEMA4ImagesEEG,001,102477,
AFNE01.JPG,AFNE01.JPG,AFNE01.JPG,AFNE01.JPG,AFNE01.JPG,AFNE01.JPG,,,,,,,,,,,,,0,8,8,7,,,,,,,,,,,AMSA02.jpg,AMSA20.jpg,AMNE12.jpg,AMNE15.jpg,AMSA02.jpg,MS,2,num_8,32,num_6,1.7002515879,,,2017_Dec_12_1522,60.0099317403,FEMA4ImagesEEG,001,102477,
AFNE01.JPG,AFNE01.JPG,AFNE01.JPG,AFNE01.JPG,AFNE01.JPG,AFNE01.JPG,,,,,,,,,,,,,0,9,9,0,,,,,,,,,,,AMSA01.jpg,AMSA02.jpg,AMNE09.jpg,AMNE05.jpg,AMNE05.jpg,MN,1,num_4,32,num_8,0.800156071549,,,2017_Dec_12_1522,60.0099317403,FEMA4ImagesEEG,001,102477,
AFNE01.JPG,AFNE01.JPG,AFNE01.JPG,AFNE01.JPG,AFNE01.JPG,AFNE01.JPG,,,,,,,,,,,,,1,0,10,2,,,,,,,,,,,AMSA18.jpg,AMNE03.jpg,AMSA13.jpg,AMNE20.jpg,AMNE03.jpg,MN,1,num_6,16,num_6,0.883476094343,,,2017_Dec_12_1522,60.0099317403,FEMA4ImagesEEG,001,102477,
AFNE01.JPG,AFNE01.JPG,AFNE01.JPG,AFNE01.JPG,AFNE01.JPG,AFNE01.JPG,,,,,,,,,,,,,1,1,11,6,,,,,,,,,,,AMNE04.jpg,AMSA12.jpg,AMSA01.jpg,AMNE08.jpg,AMNE08.jpg,MN,1,num_4,32,num_8,0.800169221824,,,2017_Dec_12_1522,60.0099317403,FEMA4ImagesEEG,001,102477,
AFNE01.JPG,AFNE01.JPG,AFNE01.JPG,AFNE01.JPG,AFNE01.JPG,AFNE01.JPG,,,,,,,,,,,,,1,2,12,3,,,,,,,,,,,AMSA20.jpg,AMNE15.jpg,AMNE16.jpg,AMSA18.jpg,AMSA18.jpg,MS,2,num_4,32,num_6,1.2667039365,,,2017_Dec_12_1522,60.0099317403,FEMA4ImagesEEG,001,102477,
AFNE01.JPG,AFNE01.JPG,AFNE01.JPG,AFNE01.JPG,AFNE01.JPG,AFNE01.JPG,,,,,,,,,,,,,1,3,13,0,,,,,,,,,,,AMSA06.jpg,AMSA08.jpg,AMNE09.jpg,AMNE14.jpg,AMSA08.jpg,MS,2,num_6,32,num_8,0.866730622016,,,2017_Dec_12_1522,60.0099317403,FEMA4ImagesEEG,001,102477,
AFNE01.JPG,AFNE01.JPG,AFNE01.JPG,AFNE01.JPG,AFNE01.JPG,AFNE01.JPG,,,,,,,,,,,,,1,4,14,1,,,,,,,,,,,AMSA08.jpg,AMSA13.jpg,AMNE08.jpg,AMNE03.jpg,AMSA13.jpg,MS,2,num_6,32,num_8,0.650122939376,,,2017_Dec_12_1522,60.0099317403,FEMA4ImagesEEG,001,102477,
AFNE01.JPG,AFNE01.JPG,AFNE01.JPG,AFNE01.JPG,AFNE01.JPG,AFNE01.JPG,,,,,,,,,,,,,1,5,15,5,,,,,,,,,,,AMNE14.jpg,AMNE05.jpg,AMSA06.jpg,AMSA16.jpg,AMNE05.jpg,MN,1,num_6,16,num_6,0.950105170254,,,2017_Dec_12_1522,60.0099317403,FEMA4ImagesEEG,001,102477,
AFNE01.JPG,AFNE01.JPG,AFNE01.JPG,AFNE01.JPG,AFNE01.JPG,AFNE01.JPG,,,,,,,,,,,,,1,6,16,4,,,,,,,,,,,AMSA20.jpg,AMSA19.jpg,AMNE17.jpg,AMNE09.jpg,AMSA19.jpg,MS,2,num_6,32,num_2,1.13344257697,,,2017_Dec_12_1522,60.0099317403,FEMA4ImagesEEG,001,102477,
AFNE01.JPG,AFNE01.JPG,AFNE01.JPG,AFNE01.JPG,AFNE01.JPG,AFNE01.JPG,,,,,,,,,,,,,1,7,17,8,,,,,,,,,,,AMSA02.jpg,AMSA10.jpg,AMNE01.jpg,AMNE20.jpg,AMSA02.jpg,MS,2,num_8,32,num_6,0.733493638691,,,2017_Dec_12_1522,60.0099317403,FEMA4ImagesEEG,001,102477,
AFNE01.JPG,AFNE01.JPG,AFNE01.JPG,AFNE01.JPG,AFNE01.JPG,AFNE01.JPG,,,,,,,,,,,,,1,8,18,9,,,,,,,,,,,AMSA17.jpg,AMNE20.jpg,AMSA19.jpg,AMNE17.jpg,AMNE17.jpg,MN,1,num_4,32,num_6,0.766765197739,,,2017_Dec_12_1522,60.0099317403,FEMA4ImagesEEG,001,102477,
AFNE01.JPG,AFNE01.JPG,AFNE01.JPG,AFNE01.JPG,AFNE01.JPG,AFNE01.JPG,,,,,,,,,,,,,1,9,19,7,,,,,,,,,,,AMSA16.jpg,AMSA14.jpg,AMNE10.jpg,AMNE12.jpg,AMSA14.jpg,MS,2,num_6,32,num_8,1.53339376068,,,2017_Dec_12_1522,60.0099317403,FEMA4ImagesEEG,001,102477,
AFNE01.JPG,AFNE01.JPG,AFNE01.JPG,AFNE01.JPG,AFNE01.JPG,AFNE01.JPG,,,,,,,,,,,,,2,0,20,4,,,,,,,,,,,AMNE18.jpg,AMNE06.jpg,AMSA18.jpg,AMSA08.jpg,AMNE18.jpg,MN,1,num_8,32,num_6,0.550145006273,,,2017_Dec_12_1522,60.0099317403,FEMA4ImagesEEG,001,102477,
AFNE01.JPG,AFNE01.JPG,AFNE01.JPG,AFNE01.JPG,AFNE01.JPG,AFNE01.JPG,,,,,,,,,,,,,2,1,21,8,,,,,,,,,,,AMSA11.jpg,AMNE12.jpg,AMNE09.jpg,AMSA08.jpg,AMNE09.jpg,MN,1,num_2,16,num_2,0.566814142512,,,2017_Dec_12_1522,60.0099317403,FEMA4ImagesEEG,001,102477,
AFNE01.JPG,AFNE01.JPG,AFNE01.JPG,AFNE01.JPG,AFNE01.JPG,AFNE01.JPG,,,,,,,,,,,,,2,2,22,2,,,,,,,,,,,AMSA08.jpg,AMNE05.jpg,AMNE01.jpg,AMSA03.jpg,AMSA08.jpg,MS,2,num_8,16,num_8,0.883418682031,,,2017_Dec_12_1522,60.0099317403,FEMA4ImagesEEG,001,102477,
AFNE01.JPG,AFNE01.JPG,AFNE01.JPG,AFNE01.JPG,AFNE01.JPG,AFNE01.JPG,,,,,,,,,,,,,2,3,23,5,,,,,,,,,,,AMNE11.jpg,AMNE20.jpg,AMSA07.jpg,AMSA13.jpg,AMNE11.jpg,MN,1,num_8,16,num_8,1.13344546384,,,2017_Dec_12_1522,60.0099317403,FEMA4ImagesEEG,001,102477,
AFNE01.JPG,AFNE01.JPG,AFNE01.JPG,AFNE01.JPG,AFNE01.JPG,AFNE01.JPG,,,,,,,,,,,,,2,4,24,0,,,,,,,,,,,AMSA17.jpg,AMNE09.jpg,AMNE17.jpg,AMSA09.jpg,AMNE09.jpg,MN,1,num_6,32,num_8,0.633497102885,,,2017_Dec_12_1522,60.0099317403,FEMA4ImagesEEG,001,102477,
AFNE01.JPG,AFNE01.JPG,AFNE01.JPG,AFNE01.JPG,AFNE01.JPG,AFNE01.JPG,,,,,,,,,,,,,2,5,25,6,,,,,,,,,,,AMNE12.jpg,AMSA07.jpg,AMNE01.jpg,AMSA14.jpg,AMNE12.jpg,MN,1,num_8,32,num_6,0.866756281117,,,2017_Dec_12_1522,60.0099317403,FEMA4ImagesEEG,001,102477,
AFNE01.JPG,AFNE01.JPG,AFNE01.JPG,AFNE01.JPG,AFNE01.JPG,AFNE01.JPG,,,,,,,,,,,,,2,6,26,3,,,,,,,,,,,AMSA16.jpg,AMSA04.jpg,AMNE01.jpg,AMNE15.jpg,AMNE15.jpg,MN,1,num_4,32,num_8,0.683532736963,,,2017_Dec_12_1522,60.0099317403,FEMA4ImagesEEG,001,102477,
AFNE01.JPG,AFNE01.JPG,AFNE01.JPG,AFNE01.JPG,AFNE01.JPG,AFNE01.JPG,,,,,,,,,,,,,2,7,27,1,,,,,,,,,,,AMNE03.jpg,AMNE14.jpg,AMSA08.jpg,AMSA10.jpg,AMSA08.jpg,MS,2,num_2,16,num_2,1.41672937106,,,2017_Dec_12_1522,60.0099317403,FEMA4ImagesEEG,001,102477,
AFNE01.JPG,AFNE01.JPG,AFNE01.JPG,AFNE01.JPG,AFNE01.JPG,AFNE01.JPG,,,,,,,,,,,,,2,8,28,9,,,,,,,,,,,AMSA11.jpg,AMNE13.jpg,AMSA15.jpg,AMNE05.jpg,AMNE13.jpg,MN,1,num_6,16,num_6,1.06676988048,,,2017_Dec_12_1522,60.0099317403,FEMA4ImagesEEG,001,102477,
AFNE01.JPG,AFNE01.JPG,AFNE01.JPG,AFNE01.JPG,AFNE01.JPG,AFNE01.JPG,,,,,,,,,,,,,2,9,29,7,,,,,,,,,,,AMSA05.jpg,AMNE02.jpg,AMSA09.jpg,AMNE04.jpg,AMNE02.jpg,MN,1,num_6,16,num_6,1.05018862686,,,2017_Dec_12_1522,60.0099317403,FEMA4ImagesEEG,001,102477,
AFNE01.JPG,AFNE01.JPG,AFNE01.JPG,AFNE01.JPG,AFNE01.JPG,AFNE01.JPG,,,,,,,,,,,,,3,0,30,7,,,,,,,,,,,AMSA01.jpg,AMNE12.jpg,AMSA08.jpg,AMNE19.jpg,AMNE19.jpg,MN,1,num_4,16,num_4,0.933440203778,,,2017_Dec_12_1522,60.0099317403,FEMA4ImagesEEG,001,102477,
AFNE01.JPG,AFNE01.JPG,AFNE01.JPG,AFNE01.JPG,AFNE01.JPG,AFNE01.JPG,,,,,,,,,,,,,3,1,31,0,,,,,,,,,,,AMSA18.jpg,AMNE03.jpg,AMNE07.jpg,AMSA09.jpg,AMSA09.jpg,MS,2,num_4,32,num_6,1.06688021496,,,2017_Dec_12_1522,60.0099317403,FEMA4ImagesEEG,001,102477,
AFNE01.JPG,AFNE01.JPG,AFNE01.JPG,AFNE01.JPG,AFNE01.JPG,AFNE01.JPG,,,,,,,,,,,,,3,2,32,1,,,,,,,,,,,AMNE08.jpg,AMSA19.jpg,AMSA09.jpg,AMNE10.jpg,AMSA19.jpg,MS,2,num_6,16,num_6,1.01677914988,,,2017_Dec_12_1522,60.0099317403,FEMA4ImagesEEG,001,102477,
AFNE01.JPG,AFNE01.JPG,AFNE01.JPG,AFNE01.JPG,AFNE01.JPG,AFNE01.JPG,,,,,,,,,,,,,3,3,33,9,,,,,,,,,,,AMSA01.jpg,AMNE12.jpg,AMSA19.jpg,AMNE04.jpg,AMSA01.jpg,MS,2,num_8,16,num_8,0.86676013004,,,2017_Dec_12_1522,60.0099317403,FEMA4ImagesEEG,001,102477,
AFNE01.JPG,AFNE01.JPG,AFNE01.JPG,AFNE01.JPG,AFNE01.JPG,AFNE01.JPG,,,,,,,,,,,,,3,4,34,3,,,,,,,,,,,AMNE13.jpg,AMNE04.jpg,AMSA17.jpg,AMSA11.jpg,AMNE04.jpg,MN,1,num_6,32,num_8,1.68340155459,,,2017_Dec_12_1522,60.0099317403,FEMA4ImagesEEG,001,102477,
AFNE01.JPG,AFNE01.JPG,AFNE01.JPG,AFNE01.JPG,AFNE01.JPG,AFNE01.JPG,,,,,,,,,,,,,3,5,35,5,,,,,,,,,,,AMSA11.jpg,AMNE01.jpg,AMNE20.jpg,AMSA05.jpg,AMNE20.jpg,MN,1,num_2,32,num_6,0.350197799969,,,2017_Dec_12_1522,60.0099317403,FEMA4ImagesEEG,001,102477,
AFNE01.JPG,AFNE01.JPG,AFNE01.JPG,AFNE01.JPG,AFNE01.JPG,AFNE01.JPG,,,,,,,,,,,,,3,6,36,4,,,,,,,,,,,AMNE17.jpg,AMSA01.jpg,AMNE09.jpg,AMSA13.jpg,AMNE17.jpg,MN,1,num_8,32,num_4,0.516791337868,,,2017_Dec_12_1522,60.0099317403,FEMA4ImagesEEG,001,102477,
AFNE01.JPG,AFNE01.JPG,AFNE01.JPG,AFNE01.JPG,AFNE01.JPG,AFNE01.JPG,,,,,,,,,,,,,3,7,37,8,,,,,,,,,,,AMNE10.jpg,AMNE17.jpg,AMSA17.jpg,AMSA09.jpg,AMNE10.jpg,MN,1,num_8,16,num_8,0.500177047914,,,2017_Dec_12_1522,60.0099317403,FEMA4ImagesEEG,001,102477,
AFNE01.JPG,AFNE01.JPG,AFNE01.JPG,AFNE01.JPG,AFNE01.JPG,AFNE01.JPG,,,,,,,,,,,,,3,8,38,2,,,,,,,,,,,AMSA20.jpg,AMNE04.jpg,AMSA05.jpg,AMNE16.jpg,AMSA05.jpg,MS,2,num_2,32,num_8,0.683347991202,,,2017_Dec_12_1522,60.0099317403,FEMA4ImagesEEG,001,102477,
AFNE01.JPG,AFNE01.JPG,AFNE01.JPG,AFNE01.JPG,AFNE01.JPG,AFNE01.JPG,,,,,,,,,,,,,3,9,39,6,,,,,,,,,,,AMSA10.jpg,AMSA15.jpg,AMNE15.jpg,AMNE11.jpg,AMNE15.jpg,MN,1,num_2,32,num_8,1.050093367,,,2017_Dec_12_1522,60.0099317403,FEMA4ImagesEEG,001,102477,
AFNE01.JPG,AFNE01.JPG,AFNE01.JPG,AFNE01.JPG,AFNE01.JPG,AFNE01.JPG,,,,,,,,,,,,,4,0,40,5,,,,,,,,,,,AMNE13.jpg,AMNE11.jpg,AMSA07.jpg,AMSA09.jpg,AMSA07.jpg,MS,2,num_2,32,num_8,1.75004506391,,,2017_Dec_12_1522,60.0099317403,FEMA4ImagesEEG,001,102477,
AFNE01.JPG,AFNE01.JPG,AFNE01.JPG,AFNE01.JPG,AFNE01.JPG,AFNE01.JPG,,,,,,,,,,,,,4,1,41,0,,,,,,,,,,,AMNE10.jpg,AMSA11.jpg,AMNE01.jpg,AMSA05.jpg,AMNE10.jpg,MN,1,num_8,16,num_8,0.600165565498,,,2017_Dec_12_1522,60.0099317403,FEMA4ImagesEEG,001,102477,
AFNE01.JPG,AFNE01.JPG,AFNE01.JPG,AFNE01.JPG,AFNE01.JPG,AFNE01.JPG,,,,,,,,,,,,,4,2,42,9,,,,,,,,,,,AMSA03.jpg,AMNE05.jpg,AMSA06.jpg,AMNE04.jpg,AMSA06.jpg,MS,2,num_2,32,num_8,1.00007120403,,,2017_Dec_12_1522,60.0099317403,FEMA4ImagesEEG,001,102477,
AFNE01.JPG,AFNE01.JPG,AFNE01.JPG,AFNE01.JPG,AFNE01.JPG,AFNE01.JPG,,,,,,,,,,,,,4,3,43,7,,,,,,,,,,,AMSA15.jpg,AMNE14.jpg,AMSA06.jpg,AMNE19.jpg,AMSA06.jpg,MS,2,num_2,32,num_6,0.450141734676,,,2017_Dec_12_1522,60.0099317403,FEMA4ImagesEEG,001,102477,
AFNE01.JPG,AFNE01.JPG,AFNE01.JPG,AFNE01.JPG,AFNE01.JPG,AFNE01.JPG,,,,,,,,,,,,,4,4,44,3,,,,,,,,,,,AMNE13.jpg,AMNE02.jpg,AMSA02.jpg,AMSA07.jpg,AMSA02.jpg,MS,2,num_2,32,num_8,4.46653054492,,,2017_Dec_12_1522,60.0099317403,FEMA4ImagesEEG,001,102477,
AFNE01.JPG,AFNE01.JPG,AFNE01.JPG,AFNE01.JPG,AFNE01.JPG,AFNE01.JPG,,,,,,,,,,,,,4,5,45,2,,,,,,,,,,,AMNE01.jpg,AMSA17.jpg,AMNE03.jpg,AMSA10.jpg,AMSA17.jpg,MS,2,num_6,16,num_6,0.533493189607,,,2017_Dec_12_1522,60.0099317403,FEMA4ImagesEEG,001,102477,
AFNE01.JPG,AFNE01.JPG,AFNE01.JPG,AFNE01.JPG,AFNE01.JPG,AFNE01.JPG,,,,,,,,,,,,,4,6,46,1,,,,,,,,,,,AMNE12.jpg,AMSA14.jpg,AMNE02.jpg,AMSA10.jpg,AMNE02.jpg,MN,1,num_2,16,num_2,1.66669745743,,,2017_Dec_12_1522,60.0099317403,FEMA4ImagesEEG,001,102477,
AFNE01.JPG,AFNE01.JPG,AFNE01.JPG,AFNE01.JPG,AFNE01.JPG,AFNE01.JPG,,,,,,,,,,,,,4,7,47,8,,,,,,,,,,,AMNE01.jpg,AMNE14.jpg,AMSA01.jpg,AMSA20.jpg,AMNE01.jpg,MN,1,num_8,32,num_6,3.76642649737,,,2017_Dec_12_1522,60.0099317403,FEMA4ImagesEEG,001,102477,
AFNE01.JPG,AFNE01.JPG,AFNE01.JPG,AFNE01.JPG,AFNE01.JPG,AFNE01.JPG,,,,,,,,,,,,,4,8,48,4,,,,,,,,,,,AMSA19.jpg,AMNE18.jpg,AMNE15.jpg,AMSA01.jpg,AMSA01.jpg,MS,2,num_4,16,num_4,0.866296341177,,,2017_Dec_12_1522,60.0099317403,FEMA4ImagesEEG,001,102477,
AFNE01.JPG,AFNE01.JPG,AFNE01.JPG,AFNE01.JPG,AFNE01.JPG,AFNE01.JPG,,,,,,,,,,,,,4,9,49,6,,,,,,,,,,,AMNE10.jpg,AMSA14.jpg,AMSA07.jpg,AMNE18.jpg,AMSA07.jpg,MS,2,num_2,32,num_6,0.833465798758,,,2017_Dec_12_1522,60.0099317403,FEMA4ImagesEEG,001,102477,
AFNE01.JPG,AFNE01.JPG,AFNE01.JPG,AFNE01.JPG,AFNE01.JPG,AFNE01.JPG,,,,,,,,,,,,,5,0,50,4,,,,,,,,,,,AMNE05.jpg,AMSA01.jpg,AMSA20.jpg,AMNE06.jpg,AMNE06.jpg,MN,1,num_4,32,num_8,1.0501761178,,,2017_Dec_12_1522,60.0099317403,FEMA4ImagesEEG,001,102477,
AFNE01.JPG,AFNE01.JPG,AFNE01.JPG,AFNE01.JPG,AFNE01.JPG,AFNE01.JPG,,,,,,,,,,,,,5,1,51,7,,,,,,,,,,,AMSA14.jpg,AMSA02.jpg,AMNE13.jpg,AMNE17.jpg,AMNE13.jpg,MN,1,num_2,16,num_2,0.26685019373,,,2017_Dec_12_1522,60.0099317403,FEMA4ImagesEEG,001,102477,
AFNE01.JPG,AFNE01.JPG,AFNE01.JPG,AFNE01.JPG,AFNE01.JPG,AFNE01.JPG,,,,,,,,,,,,,5,2,52,8,,,,,,,,,,,AMNE13.jpg,AMSA17.jpg,AMNE14.jpg,AMSA06.jpg,AMSA17.jpg,MS,2,num_6,16,num_6,1.08343548863,,,2017_Dec_12_1522,60.0099317403,FEMA4ImagesEEG,001,102477,
AFNE01.JPG,AFNE01.JPG,AFNE01.JPG,AFNE01.JPG,AFNE01.JPG,AFNE01.JPG,,,,,,,,,,,,,5,3,53,0,,,,,,,,,,,AMNE12.jpg,AMSA09.jpg,AMSA19.jpg,AMNE13.jpg,AMSA19.jpg,MS,2,num_2,16,num_2,0.716772863409,,,2017_Dec_12_1522,60.0099317403,FEMA4ImagesEEG,001,102477,
AFNE01.JPG,AFNE01.JPG,AFNE01.JPG,AFNE01.JPG,AFNE01.JPG,AFNE01.JPG,,,,,,,,,,,,,5,4,54,5,,,,,,,,,,,AMNE15.jpg,AMNE19.jpg,AMSA15.jpg,AMSA07.jpg,AMSA07.jpg,MS,2,num_4,32,num_8,0.816824245732,,,2017_Dec_12_1522,60.0099317403,FEMA4ImagesEEG,001,102477,
AFNE01.JPG,AFNE01.JPG,AFNE01.JPG,AFNE01.JPG,AFNE01.JPG,AFNE01.JPG,,,,,,,,,,,,,5,5,55,9,,,,,,,,,,,AMSA16.jpg,AMNE08.jpg,AMNE12.jpg,AMSA01.jpg,AMSA01.jpg,MS,2,num_4,32,num_6,0.43346490059,,,2017_Dec_12_1522,60.0099317403,FEMA4ImagesEEG,001,102477,
AFNE01.JPG,AFNE01.JPG,AFNE01.JPG,AFNE01.JPG,AFNE01.JPG,AFNE01.JPG,,,,,,,,,,,,,5,6,56,3,,,,,,,,,,,AMNE09.jpg,AMSA18.jpg,AMNE10.jpg,AMSA11.jpg,AMNE09.jpg,MN,1,num_8,16,num_8,0.800141958985,,,2017_Dec_12_1522,60.0099317403,FEMA4ImagesEEG,001,102477,
AFNE01.JPG,AFNE01.JPG,AFNE01.JPG,AFNE01.JPG,AFNE01.JPG,AFNE01.JPG,,,,,,,,,,,,,5,7,57,1,,,,,,,,,,,AMSA19.jpg,AMNE16.jpg,AMNE02.jpg,AMSA09.jpg,AMSA19.jpg,MS,2,num_8,32,num_4,1.26674755709,,,2017_Dec_12_1522,60.0099317403,FEMA4ImagesEEG,001,102477,
AFNE01.JPG,AFNE01.JPG,AFNE01.JPG,AFNE01.JPG,AFNE01.JPG,AFNE01.JPG,,,,,,,,,,,,,5,8,58,6,,,,,,,,,,,AMSA20.jpg,AMNE15.jpg,AMNE14.jpg,AMSA10.jpg,AMNE14.jpg,MN,1,num_2,16,num_2,2.18337076367,,,2017_Dec_12_1522,60.0099317403,FEMA4ImagesEEG,001,102477,
AFNE01.JPG,AFNE01.JPG,AFNE01.JPG,AFNE01.JPG,AFNE01.JPG,AFNE01.JPG,,,,,,,,,,,,,5,9,59,2,,,,,,,,,,,AMSA01.jpg,AMNE17.jpg,AMSA13.jpg,AMNE06.jpg,AMSA13.jpg,MS,2,num_2,32,num_8,4.04955612915,,,2017_Dec_12_1522,60.0099317403,FEMA4ImagesEEG,001,102477,
,,,,,,,,,,,,,,,,,,,,,,,,,,,,,,,,,,,,,,,,,,,space,32.1312423062,2017_Dec_12_1522,60.0099317403,FEMA4ImagesEEG,001,102477,
AFNE01.JPG,AFNE01.JPG,AFNE01.JPG,AFNE01.JPG,AFNE01.JPG,AFNE01.JPG,,,,,,,,,,,,,,,,,0,0,0,5,,,,,,,AFSA04.jpg,AFNE07.jpg,AFNE19.jpg,AFSA17.jpg,AFNE07.jpg,FN,3,num_6,16,num_6,1.933267646,,,2017_Dec_12_1522,60.0099317403,FEMA4ImagesEEG,001,102477,
AFNE01.JPG,AFNE01.JPG,AFNE01.JPG,AFNE01.JPG,AFNE01.JPG,AFNE01.JPG,,,,,,,,,,,,,,,,,0,1,1,9,,,,,,,AFNE05.jpg,AFNE07.jpg,AFSA15.jpg,AFSA20.jpg,AFSA15.jpg,FS,4,num_2,32,num_6,0.550154949306,,,2017_Dec_12_1522,60.0099317403,FEMA4ImagesEEG,001,102477,
AFNE01.JPG,AFNE01.JPG,AFNE01.JPG,AFNE01.JPG,AFNE01.JPG,AFNE01.JPG,,,,,,,,,,,,,,,,,0,2,2,3,,,,,,,AFNE18.jpg,AFSA03.jpg,AFNE12.jpg,AFSA02.jpg,AFSA02.jpg,FS,4,num_4,16,num_4,0.833476383006,,,2017_Dec_12_1522,60.0099317403,FEMA4ImagesEEG,001,102477,
AFNE01.JPG,AFNE01.JPG,AFNE01.JPG,AFNE01.JPG,AFNE01.JPG,AFNE01.JPG,,,,,,,,,,,,,,,,,0,3,3,0,,,,,,,AFNE06.jpg,AFSA18.jpg,AFNE02.jpg,AFSA09.jpg,AFSA09.jpg,FS,4,num_4,32,num_8,0.933478050865,,,2017_Dec_12_1522,60.0099317403,FEMA4ImagesEEG,001,102477,
AFNE01.JPG,AFNE01.JPG,AFNE01.JPG,AFNE01.JPG,AFNE01.JPG,AFNE01.JPG,,,,,,,,,,,,,,,,,0,4,4,1,,,,,,,AFSA09.jpg,AFNE01.jpg,AFSA04.jpg,AFNE08.jpg,AFSA04.jpg,FS,4,num_2,32,num_8,1.0,,,2017_Dec_12_1522,60.0099317403,FEMA4ImagesEEG,001,102477,
AFNE01.JPG,AFNE01.JPG,AFNE01.JPG,AFNE01.JPG,AFNE01.JPG,AFNE01.JPG,,,,,,,,,,,,,,,,,0,5,5,7,,,,,,,AFSA07.jpg,AFNE01.jpg,AFNE16.jpg,AFSA10.jpg,AFSA07.jpg,FS,4,num_8,16,num_8,0.850184970303,,,2017_Dec_12_1522,60.0099317403,FEMA4ImagesEEG,001,102477,
AFNE01.JPG,AFNE01.JPG,AFNE01.JPG,AFNE01.JPG,AFNE01.JPG,AFNE01.JPG,,,,,,,,,,,,,,,,,0,6,6,2,,,,,,,AFSA06.jpg,AFNE12.jpg,AFSA16.jpg,AFNE07.jpg,AFSA16.jpg,FS,4,num_2,32,num_4,0.683506757021,,,2017_Dec_12_1522,60.0099317403,FEMA4ImagesEEG,001,102477,
AFNE01.JPG,AFNE01.JPG,AFNE01.JPG,AFNE01.JPG,AFNE01.JPG,AFNE01.JPG,,,,,,,,,,,,,,,,,0,7,7,8,,,,,,,AFNE02.jpg,AFSA01.jpg,AFSA17.jpg,AFNE05.jpg,AFNE05.jpg,FN,3,num_4,32,num_6,0.716791145504,,,2017_Dec_12_1522,60.0099317403,FEMA4ImagesEEG,001,102477,
AFNE01.JPG,AFNE01.JPG,AFNE01.JPG,AFNE01.JPG,AFNE01.JPG,AFNE01.JPG,,,,,,,,,,,,,,,,,0,8,8,4,,,,,,,AFNE03.jpg,AFSA07.jpg,AFNE14.jpg,AFSA19.jpg,AFSA07.jpg,FS,4,num_6,32,num_8,2.56666467804,,,2017_Dec_12_1522,60.0099317403,FEMA4ImagesEEG,001,102477,
AFNE01.JPG,AFNE01.JPG,AFNE01.JPG,AFNE01.JPG,AFNE01.JPG,AFNE01.JPG,,,,,,,,,,,,,,,,,0,9,9,6,,,,,,,AFSA08.jpg,AFSA03.jpg,AFNE10.jpg,AFNE16.jpg,AFSA03.jpg,FS,4,num_6,32,num_8,1.13346374594,,,2017_Dec_12_1522,60.0099317403,FEMA4ImagesEEG,001,102477,
AFNE01.JPG,AFNE01.JPG,AFNE01.JPG,AFNE01.JPG,AFNE01.JPG,AFNE01.JPG,,,,,,,,,,,,,,,,,1,0,10,5,,,,,,,AFNE04.jpg,AFSA12.jpg,AFSA17.jpg,AFNE08.jpg,AFSA17.jpg,FS,4,num_2,32,num_4,0.383518111194,,,2017_Dec_12_1522,60.0099317403,FEMA4ImagesEEG,001,102477,
AFNE01.JPG,AFNE01.JPG,AFNE01.JPG,AFNE01.JPG,AFNE01.JPG,AFNE01.JPG,,,,,,,,,,,,,,,,,1,1,11,1,,,,,,,AFNE03.jpg,AFSA02.jpg,AFSA05.jpg,AFNE01.jpg,AFSA02.jpg,FS,4,num_6,16,num_6,0.683476286707,,,2017_Dec_12_1522,60.0099317403,FEMA4ImagesEEG,001,102477,
AFNE01.JPG,AFNE01.JPG,AFNE01.JPG,AFNE01.JPG,AFNE01.JPG,AFNE01.JPG,,,,,,,,,,,,,,,,,1,2,12,7,,,,,,,AFSA19.jpg,AFSA04.jpg,AFNE16.jpg,AFNE17.jpg,AFNE17.jpg,FN,3,num_4,32,num_8,0.783436579397,,,2017_Dec_12_1522,60.0099317403,FEMA4ImagesEEG,001,102477,
AFNE01.JPG,AFNE01.JPG,AFNE01.JPG,AFNE01.JPG,AFNE01.JPG,AFNE01.JPG,,,,,,,,,,,,,,,,,1,3,13,3,,,,,,,AFNE03.jpg,AFSA07.jpg,AFNE07.jpg,AFSA14.jpg,AFNE07.jpg,FN,3,num_2,16,num_2,0.616820910014,,,2017_Dec_12_1522,60.0099317403,FEMA4ImagesEEG,001,102477,
AFNE01.JPG,AFNE01.JPG,AFNE01.JPG,AFNE01.JPG,AFNE01.JPG,AFNE01.JPG,,,,,,,,,,,,,,,,,1,4,14,4,,,,,,,AFSA06.jpg,AFNE14.jpg,AFNE15.jpg,AFSA03.jpg,AFNE14.jpg,FN,3,num_6,32,num_4,0.933462334564,,,2017_Dec_12_1522,60.0099317403,FEMA4ImagesEEG,001,102477,
AFNE01.JPG,AFNE01.JPG,AFNE01.JPG,AFNE01.JPG,AFNE01.JPG,AFNE01.JPG,,,,,,,,,,,,,,,,,1,5,15,9,,,,,,,AFNE09.jpg,AFSA07.jpg,AFNE13.jpg,AFSA18.jpg,AFSA18.jpg,FS,4,num_4,32,num_6,3.56657519192,,,2017_Dec_12_1522,60.0099317403,FEMA4ImagesEEG,001,102477,
AFNE01.JPG,AFNE01.JPG,AFNE01.JPG,AFNE01.JPG,AFNE01.JPG,AFNE01.JPG,,,,,,,,,,,,,,,,,1,6,16,6,,,,,,,AFSA06.jpg,AFSA15.jpg,AFNE10.jpg,AFNE06.jpg,AFNE06.jpg,FN,3,num_4,32,num_8,0.866813693428,,,2017_Dec_12_1522,60.0099317403,FEMA4ImagesEEG,001,102477,
AFNE01.JPG,AFNE01.JPG,AFNE01.JPG,AFNE01.JPG,AFNE01.JPG,AFNE01.JPG,,,,,,,,,,,,,,,,,1,7,17,0,,,,,,,AFNE15.jpg,AFSA10.jpg,AFSA04.jpg,AFNE07.jpg,AFNE15.jpg,FN,3,num_8,32,num_2,0.566627151566,,,2017_Dec_12_1522,60.0099317403,FEMA4ImagesEEG,001,102477,
AFNE01.JPG,AFNE01.JPG,AFNE01.JPG,AFNE01.JPG,AFNE01.JPG,AFNE01.JPG,,,,,,,,,,,,,,,,,1,8,18,8,,,,,,,AFNE17.jpg,AFNE01.jpg,AFSA05.jpg,AFSA11.jpg,AFNE17.jpg,FN,3,num_8,16,num_8,0.733463168377,,,2017_Dec_12_1522,60.0099317403,FEMA4ImagesEEG,001,102477,
AFNE01.JPG,AFNE01.JPG,AFNE01.JPG,AFNE01.JPG,AFNE01.JPG,AFNE01.JPG,,,,,,,,,,,,,,,,,1,9,19,2,,,,,,,AFSA18.jpg,AFSA03.jpg,AFNE15.jpg,AFNE03.jpg,AFSA03.jpg,FS,4,num_6,32,num_8,0.666805546731,,,2017_Dec_12_1522,60.0099317403,FEMA4ImagesEEG,001,102477,
AFNE01.JPG,AFNE01.JPG,AFNE01.JPG,AFNE01.JPG,AFNE01.JPG,AFNE01.JPG,,,,,,,,,,,,,,,,,2,0,20,3,,,,,,,AFSA07.jpg,AFSA13.jpg,AFNE03.jpg,AFNE06.jpg,AFNE03.jpg,FN,3,num_2,32,num_6,0.533488378627,,,2017_Dec_12_1522,60.0099317403,FEMA4ImagesEEG,001,102477,
AFNE01.JPG,AFNE01.JPG,AFNE01.JPG,AFNE01.JPG,AFNE01.JPG,AFNE01.JPG,,,,,,,,,,,,,,,,,2,1,21,6,,,,,,,AFNE08.jpg,AFNE13.jpg,AFSA04.jpg,AFSA05.jpg,AFNE13.jpg,FN,3,num_6,32,num_8,0.50020078267,,,2017_Dec_12_1522,60.0099317403,FEMA4ImagesEEG,001,102477,
AFNE01.JPG,AFNE01.JPG,AFNE01.JPG,AFNE01.JPG,AFNE01.JPG,AFNE01.JPG,,,,,,,,,,,,,,,,,2,2,22,0,,,,,,,AFSA19.jpg,AFNE16.jpg,AFSA18.jpg,AFNE14.jpg,AFNE16.jpg,FN,3,num_6,32,num_8,0.766793102259,,,2017_Dec_12_1522,60.0099317403,FEMA4ImagesEEG,001,102477,
AFNE01.JPG,AFNE01.JPG,AFNE01.JPG,AFNE01.JPG,AFNE01.JPG,AFNE01.JPG,,,,,,,,,,,,,,,,,2,3,23,2,,,,,,,AFSA12.jpg,AFSA18.jpg,AFNE01.jpg,AFNE13.jpg,AFNE13.jpg,FN,3,num_4,16,num_4,0.916786141926,,,2017_Dec_12_1522,60.0099317403,FEMA4ImagesEEG,001,102477,
AFNE01.JPG,AFNE01.JPG,AFNE01.JPG,AFNE01.JPG,AFNE01.JPG,AFNE01.JPG,,,,,,,,,,,,,,,,,2,4,24,5,,,,,,,AFSA11.jpg,AFNE10.jpg,AFNE02.jpg,AFSA18.jpg,AFSA11.jpg,FS,4,num_8,32,num_4,0.833534757607,,,2017_Dec_12_1522,60.0099317403,FEMA4ImagesEEG,001,102477,
AFNE01.JPG,AFNE01.JPG,AFNE01.JPG,AFNE01.JPG,AFNE01.JPG,AFNE01.JPG,,,,,,,,,,,,,,,,,2,5,25,7,,,,,,,AFNE16.jpg,AFSA06.jpg,AFNE17.jpg,AFSA17.jpg,AFNE16.jpg,FN,3,num_8,16,num_8,0.883480905555,,,2017_Dec_12_1522,60.0099317403,FEMA4ImagesEEG,001,102477,
AFNE01.JPG,AFNE01.JPG,AFNE01.JPG,AFNE01.JPG,AFNE01.JPG,AFNE01.JPG,,,,,,,,,,,,,,,,,2,6,26,1,,,,,,,AFNE02.jpg,AFSA05.jpg,AFSA03.jpg,AFNE08.jpg,AFNE02.jpg,FN,3,num_8,16,num_8,0.883438888704,,,2017_Dec_12_1522,60.0099317403,FEMA4ImagesEEG,001,102477,
AFNE01.JPG,AFNE01.JPG,AFNE01.JPG,AFNE01.JPG,AFNE01.JPG,AFNE01.JPG,,,,,,,,,,,,,,,,,2,7,27,9,,,,,,,AFNE08.jpg,AFSA13.jpg,AFSA03.jpg,AFNE04.jpg,AFNE04.jpg,FN,3,num_4,32,num_2,1.31677164463,,,2017_Dec_12_1522,60.0099317403,FEMA4ImagesEEG,001,102477,
AFNE01.JPG,AFNE01.JPG,AFNE01.JPG,AFNE01.JPG,AFNE01.JPG,AFNE01.JPG,,,,,,,,,,,,,,,,,2,8,28,4,,,,,,,AFSA14.jpg,AFSA01.jpg,AFNE19.jpg,AFNE13.jpg,AFNE13.jpg,FN,3,num_4,16,num_4,1.41654943652,,,2017_Dec_12_1522,60.0099317403,FEMA4ImagesEEG,001,102477,
AFNE01.JPG,AFNE01.JPG,AFNE01.JPG,AFNE01.JPG,AFNE01.JPG,AFNE01.JPG,,,,,,,,,,,,,,,,,2,9,29,8,,,,,,,AFNE05.jpg,AFNE09.jpg,AFSA14.jpg,AFSA06.jpg,AFSA14.jpg,FS,4,num_2,32,num_4,0.950098755537,,,2017_Dec_12_1522,60.0099317403,FEMA4ImagesEEG,001,102477,
AFNE01.JPG,AFNE01.JPG,AFNE01.JPG,AFNE01.JPG,AFNE01.JPG,AFNE01.JPG,,,,,,,,,,,,,,,,,3,0,30,8,,,,,,,AFSA05.jpg,AFSA12.jpg,AFNE08.jpg,AFNE17.jpg,AFSA12.jpg,FS,4,num_6,32,num_8,0.916834894335,,,2017_Dec_12_1522,60.0099317403,FEMA4ImagesEEG,001,102477,
AFNE01.JPG,AFNE01.JPG,AFNE01.JPG,AFNE01.JPG,AFNE01.JPG,AFNE01.JPG,,,,,,,,,,,,,,,,,3,1,31,5,,,,,,,AFSA11.jpg,AFNE04.jpg,AFNE12.jpg,AFSA09.jpg,AFSA11.jpg,FS,4,num_8,16,num_8,0.833443026058,,,2017_Dec_12_1522,60.0099317403,FEMA4ImagesEEG,001,102477,
AFNE01.JPG,AFNE01.JPG,AFNE01.JPG,AFNE01.JPG,AFNE01.JPG,AFNE01.JPG,,,,,,,,,,,,,,,,,3,2,32,4,,,,,,,AFNE07.jpg,AFSA09.jpg,AFNE15.jpg,AFSA06.jpg,AFNE15.jpg,FN,3,num_2,32,num_6,0.966777513968,,,2017_Dec_12_1522,60.0099317403,FEMA4ImagesEEG,001,102477,
AFNE01.JPG,AFNE01.JPG,AFNE01.JPG,AFNE01.JPG,AFNE01.JPG,AFNE01.JPG,,,,,,,,,,,,,,,,,3,3,33,1,,,,,,,AFSA20.jpg,AFSA16.jpg,AFNE10.jpg,AFNE03.jpg,AFSA16.jpg,FS,4,num_6,16,num_6,0.683508360758,,,2017_Dec_12_1522,60.0099317403,FEMA4ImagesEEG,001,102477,
AFNE01.JPG,AFNE01.JPG,AFNE01.JPG,AFNE01.JPG,AFNE01.JPG,AFNE01.JPG,,,,,,,,,,,,,,,,,3,4,34,9,,,,,,,AFNE06.jpg,AFSA11.jpg,AFNE16.jpg,AFSA13.jpg,AFNE06.jpg,FN,3,num_8,16,num_8,0.900129835354,,,2017_Dec_12_1522,60.0099317403,FEMA4ImagesEEG,001,102477,
AFNE01.JPG,AFNE01.JPG,AFNE01.JPG,AFNE01.JPG,AFNE01.JPG,AFNE01.JPG,,,,,,,,,,,,,,,,,3,5,35,6,,,,,,,AFNE15.jpg,AFSA03.jpg,AFNE03.jpg,AFSA14.jpg,AFNE03.jpg,FN,3,num_2,32,num_8,0.900125986431,,,2017_Dec_12_1522,60.0099317403,FEMA4ImagesEEG,001,102477,
AFNE01.JPG,AFNE01.JPG,AFNE01.JPG,AFNE01.JPG,AFNE01.JPG,AFNE01.JPG,,,,,,,,,,,,,,,,,3,6,36,7,,,,,,,AFNE06.jpg,AFNE18.jpg,AFSA07.jpg,AFSA19.jpg,AFSA19.jpg,FS,4,num_4,32,num_2,0.933498257305,,,2017_Dec_12_1522,60.0099317403,FEMA4ImagesEEG,001,102477,
AFNE01.JPG,AFNE01.JPG,AFNE01.JPG,AFNE01.JPG,AFNE01.JPG,AFNE01.JPG,,,,,,,,,,,,,,,,,3,7,37,0,,,,,,,AFNE06.jpg,AFSA04.jpg,AFSA19.jpg,AFNE19.jpg,AFSA04.jpg,FS,4,num_6,32,num_8,1.03347683209,,,2017_Dec_12_1522,60.0099317403,FEMA4ImagesEEG,001,102477,
AFNE01.JPG,AFNE01.JPG,AFNE01.JPG,AFNE01.JPG,AFNE01.JPG,AFNE01.JPG,,,,,,,,,,,,,,,,,3,8,38,2,,,,,,,AFNE07.jpg,AFSA06.jpg,AFNE18.jpg,AFSA02.jpg,AFSA06.jpg,FS,4,num_6,32,num_4,0.766767763533,,,2017_Dec_12_1522,60.0099317403,FEMA4ImagesEEG,001,102477,
AFNE01.JPG,AFNE01.JPG,AFNE01.JPG,AFNE01.JPG,AFNE01.JPG,AFNE01.JPG,,,,,,,,,,,,,,,,,3,9,39,3,,,,,,,AFSA06.jpg,AFNE14.jpg,AFSA20.jpg,AFNE12.jpg,AFSA06.jpg,FS,4,num_8,32,num_6,1.01677947072,,,2017_Dec_12_1522,60.0099317403,FEMA4ImagesEEG,001,102477,
AFNE01.JPG,AFNE01.JPG,AFNE01.JPG,AFNE01.JPG,AFNE01.JPG,AFNE01.JPG,,,,,,,,,,,,,,,,,4,0,40,8,,,,,,,AFNE08.jpg,AFSA02.jpg,AFSA13.jpg,AFNE03.jpg,AFNE08.jpg,FN,3,num_8,16,num_8,0.833499476081,,,2017_Dec_12_1522,60.0099317403,FEMA4ImagesEEG,001,102477,
AFNE01.JPG,AFNE01.JPG,AFNE01.JPG,AFNE01.JPG,AFNE01.JPG,AFNE01.JPG,,,,,,,,,,,,,,,,,4,1,41,1,,,,,,,AFNE17.jpg,AFNE04.jpg,AFSA09.jpg,AFSA11.jpg,AFNE04.jpg,FN,3,num_6,32,num_8,0.516799356556,,,2017_Dec_12_1522,60.0099317403,FEMA4ImagesEEG,001,102477,
AFNE01.JPG,AFNE01.JPG,AFNE01.JPG,AFNE01.JPG,AFNE01.JPG,AFNE01.JPG,,,,,,,,,,,,,,,,,4,2,42,7,,,,,,,AFSA15.jpg,AFSA04.jpg,AFNE06.jpg,AFNE11.jpg,AFNE06.jpg,FN,3,num_2,32,num_8,0.916754068108,,,2017_Dec_12_1522,60.0099317403,FEMA4ImagesEEG,001,102477,
AFNE01.JPG,AFNE01.JPG,AFNE01.JPG,AFNE01.JPG,AFNE01.JPG,AFNE01.JPG,,,,,,,,,,,,,,,,,4,3,43,2,,,,,,,AFNE03.jpg,AFSA17.jpg,AFSA04.jpg,AFNE01.jpg,AFSA17.jpg,FS,4,num_6,32,num_2,0.85018015909,,,2017_Dec_12_1522,60.0099317403,FEMA4ImagesEEG,001,102477,
AFNE01.JPG,AFNE01.JPG,AFNE01.JPG,AFNE01.JPG,AFNE01.JPG,AFNE01.JPG,,,,,,,,,,,,,,,,,4,4,44,6,,,,,,,AFNE19.jpg,AFSA08.jpg,AFNE11.jpg,AFSA15.jpg,AFNE11.jpg,FN,3,num_2,32,num_4,0.96688816906,,,2017_Dec_12_1522,60.0099317403,FEMA4ImagesEEG,001,102477,
AFNE01.JPG,AFNE01.JPG,AFNE01.JPG,AFNE01.JPG,AFNE01.JPG,AFNE01.JPG,,,,,,,,,,,,,,,,,4,5,45,5,,,,,,,AFNE08.jpg,AFSA12.jpg,AFNE11.jpg,AFSA04.jpg,AFSA04.jpg,FS,4,num_4,16,num_4,1.08347044932,,,2017_Dec_12_1522,60.0099317403,FEMA4ImagesEEG,001,102477,
AFNE01.JPG,AFNE01.JPG,AFNE01.JPG,AFNE01.JPG,AFNE01.JPG,AFNE01.JPG,,,,,,,,,,,,,,,,,4,6,46,3,,,,,,,AFNE08.jpg,AFSA04.jpg,AFNE20.jpg,AFSA06.jpg,AFNE20.jpg,FN,3,num_2,32,num_8,0.8168043599,,,2017_Dec_12_1522,60.0099317403,FEMA4ImagesEEG,001,102477,
AFNE01.JPG,AFNE01.JPG,AFNE01.JPG,AFNE01.JPG,AFNE01.JPG,AFNE01.JPG,,,,,,,,,,,,,,,,,4,7,47,0,,,,,,,AFNE05.jpg,AFSA07.jpg,AFSA04.jpg,AFNE12.jpg,AFSA04.jpg,FS,4,num_2,32,num_4,1.01675349078,,,2017_Dec_12_1522,60.0099317403,FEMA4ImagesEEG,001,102477,
AFNE01.JPG,AFNE01.JPG,AFNE01.JPG,AFNE01.JPG,AFNE01.JPG,AFNE01.JPG,,,,,,,,,,,,,,,,,4,8,48,4,,,,,,,AFNE02.jpg,AFSA16.jpg,AFNE17.jpg,AFSA12.jpg,AFNE02.jpg,FN,3,num_8,32,num_4,2.68329859735,,,2017_Dec_12_1522,60.0099317403,FEMA4ImagesEEG,001,102477,
AFNE01.JPG,AFNE01.JPG,AFNE01.JPG,AFNE01.JPG,AFNE01.JPG,AFNE01.JPG,,,,,,,,,,,,,,,,,4,9,49,9,,,,,,,AFNE03.jpg,AFSA09.jpg,AFSA08.jpg,AFNE17.jpg,AFSA09.jpg,FS,4,num_6,32,num_8,1.41671942826,,,2017_Dec_12_1522,60.0099317403,FEMA4ImagesEEG,001,102477,
AFNE01.JPG,AFNE01.JPG,AFNE01.JPG,AFNE01.JPG,AFNE01.JPG,AFNE01.JPG,,,,,,,,,,,,,,,,,5,0,50,6,,,,,,,AFSA12.jpg,AFSA07.jpg,AFNE08.jpg,AFNE18.jpg,AFSA07.jpg,FS,4,num_6,32,num_8,1.0834069429,,,2017_Dec_12_1522,60.0099317403,FEMA4ImagesEEG,001,102477,
AFNE01.JPG,AFNE01.JPG,AFNE01.JPG,AFNE01.JPG,AFNE01.JPG,AFNE01.JPG,,,,,,,,,,,,,,,,,5,1,51,5,,,,,,,AFSA07.jpg,AFNE04.jpg,AFSA02.jpg,AFNE03.jpg,AFNE03.jpg,FN,3,num_4,32,num_8,0.883427662542,,,2017_Dec_12_1522,60.0099317403,FEMA4ImagesEEG,001,102477,
AFNE01.JPG,AFNE01.JPG,AFNE01.JPG,AFNE01.JPG,AFNE01.JPG,AFNE01.JPG,,,,,,,,,,,,,,,,,5,2,52,7,,,,,,,AFSA12.jpg,AFSA19.jpg,AFNE05.jpg,AFNE16.jpg,AFNE05.jpg,FN,3,num_2,16,num_2,1.01677369745,,,2017_Dec_12_1522,60.0099317403,FEMA4ImagesEEG,001,102477,
AFNE01.JPG,AFNE01.JPG,AFNE01.JPG,AFNE01.JPG,AFNE01.JPG,AFNE01.JPG,,,,,,,,,,,,,,,,,5,3,53,2,,,,,,,AFNE15.jpg,AFNE17.jpg,AFSA18.jpg,AFSA11.jpg,AFNE15.jpg,FN,3,num_8,16,num_8,0.766787007917,,,2017_Dec_12_1522,60.0099317403,FEMA4ImagesEEG,001,102477,
AFNE01.JPG,AFNE01.JPG,AFNE01.JPG,AFNE01.JPG,AFNE01.JPG,AFNE01.JPG,,,,,,,,,,,,,,,,,5,4,54,9,,,,,,,AFSA13.jpg,AFNE04.jpg,AFSA10.jpg,AFNE10.jpg,AFSA13.jpg,FS,4,num_8,32,num_2,1.10013060505,,,2017_Dec_12_1522,60.0099317403,FEMA4ImagesEEG,001,102477,
AFNE01.JPG,AFNE01.JPG,AFNE01.JPG,AFNE01.JPG,AFNE01.JPG,AFNE01.JPG,,,,,,,,,,,,,,,,,5,5,55,3,,,,,,,AFNE13.jpg,AFSA11.jpg,AFSA16.jpg,AFNE03.jpg,AFSA11.jpg,FS,4,num_6,48,None,,,,2017_Dec_12_1522,60.0099317403,FEMA4ImagesEEG,001,102477,
AFNE01.JPG,AFNE01.JPG,AFNE01.JPG,AFNE01.JPG,AFNE01.JPG,AFNE01.JPG,,,,,,,,,,,,,,,,,5,6,56,8,,,,,,,AFNE15.jpg,AFNE10.jpg,AFSA06.jpg,AFSA10.jpg,AFNE10.jpg,FN,3,num_6,32,num_8,2.30000339984,,,2017_Dec_12_1522,60.0099317403,FEMA4ImagesEEG,001,102477,
AFNE01.JPG,AFNE01.JPG,AFNE01.JPG,AFNE01.JPG,AFNE01.JPG,AFNE01.JPG,,,,,,,,,,,,,,,,,5,7,57,1,,,,,,,AFSA20.jpg,AFNE03.jpg,AFNE20.jpg,AFSA10.jpg,AFSA20.jpg,FS,4,num_8,32,num_2,1.20006459695,,,2017_Dec_12_1522,60.0099317403,FEMA4ImagesEEG,001,102477,
AFNE01.JPG,AFNE01.JPG,AFNE01.JPG,AFNE01.JPG,AFNE01.JPG,AFNE01.JPG,,,,,,,,,,,,,,,,,5,8,58,0,,,,,,,AFSA03.jpg,AFNE05.jpg,AFNE19.jpg,AFSA19.jpg,AFNE19.jpg,FN,3,num_2,32,num_8,1.43344533537,,,2017_Dec_12_1522,60.0099317403,FEMA4ImagesEEG,001,102477,
AFNE01.JPG,AFNE01.JPG,AFNE01.JPG,AFNE01.JPG,AFNE01.JPG,AFNE01.JPG,,,,,,,,,,,,,,,,,5,9,59,4,,,,,,,AFSA04.jpg,AFSA15.jpg,AFNE13.jpg,AFNE08.jpg,AFSA15.jpg,FS,4,num_6,32,num_4,1.45016899751,,,2017_Dec_12_1522,60.0099317403,FEMA4ImagesEEG,001,102477,
,,,,,,,,,,,,,,,,,,,,,,,,,,,,,,,,,,,,,,,,,,,space,81.3606356152,2017_Dec_12_1522,60.0099317403,FEMA4ImagesEEG,001,102477,
AFNE01.JPG,AFNE01.JPG,AFNE01.JPG,AFNE01.JPG,AFNE01.JPG,AFNE01.JPG,,,,,,,,,,,,,,,,,,,,,0,0,0,9,,,AMSA08.jpg,AMNE15.jpg,AMSA09.jpg,AMNE17.jpg,AMSA08.jpg,MS,2,num_8,16,num_8,2.56636061752,,,2017_Dec_12_1522,60.0099317403,FEMA4ImagesEEG,001,102477,
AFNE01.JPG,AFNE01.JPG,AFNE01.JPG,AFNE01.JPG,AFNE01.JPG,AFNE01.JPG,,,,,,,,,,,,,,,,,,,,,0,1,1,4,,,AMSA07.jpg,AMNE13.jpg,AMSA12.jpg,AMNE04.jpg,AMNE04.jpg,MN,1,num_4,32,num_2,0.4835047042,,,2017_Dec_12_1522,60.0099317403,FEMA4ImagesEEG,001,102477,
AFNE01.JPG,AFNE01.JPG,AFNE01.JPG,AFNE01.JPG,AFNE01.JPG,AFNE01.JPG,,,,,,,,,,,,,,,,,,,,,0,2,2,3,,,AMNE20.jpg,AMSA04.jpg,AMNE07.jpg,AMSA16.jpg,AMSA16.jpg,MS,2,num_4,16,num_4,0.766795668053,,,2017_Dec_12_1522,60.0099317403,FEMA4ImagesEEG,001,102477,
AFNE01.JPG,AFNE01.JPG,AFNE01.JPG,AFNE01.JPG,AFNE01.JPG,AFNE01.JPG,,,,,,,,,,,,,,,,,,,,,0,3,3,2,,,AMNE11.jpg,AMSA08.jpg,AMSA05.jpg,AMNE14.jpg,AMNE11.jpg,MN,1,num_8,16,num_8,1.00015748292,,,2017_Dec_12_1522,60.0099317403,FEMA4ImagesEEG,001,102477,
AFNE01.JPG,AFNE01.JPG,AFNE01.JPG,AFNE01.JPG,AFNE01.JPG,AFNE01.JPG,,,,,,,,,,,,,,,,,,,,,0,4,4,1,,,AMNE18.jpg,AMSA08.jpg,AMNE10.jpg,AMSA14.jpg,AMSA08.jpg,MS,2,num_6,16,num_6,0.900146192871,,,2017_Dec_12_1522,60.0099317403,FEMA4ImagesEEG,001,102477,
AFNE01.JPG,AFNE01.JPG,AFNE01.JPG,AFNE01.JPG,AFNE01.JPG,AFNE01.JPG,,,,,,,,,,,,,,,,,,,,,0,5,5,7,,,AMSA20.jpg,AMNE04.jpg,AMSA17.jpg,AMNE07.jpg,AMNE04.jpg,MN,1,num_6,16,num_6,0.61679653381,,,2017_Dec_12_1522,60.0099317403,FEMA4ImagesEEG,001,102477,
AFNE01.JPG,AFNE01.JPG,AFNE01.JPG,AFNE01.JPG,AFNE01.JPG,AFNE01.JPG,,,,,,,,,,,,,,,,,,,,,0,6,6,5,,,AMNE17.jpg,AMSA17.jpg,AMNE15.jpg,AMSA11.jpg,AMNE17.jpg,MN,1,num_8,16,num_8,0.883458132856,,,2017_Dec_12_1522,60.0099317403,FEMA4ImagesEEG,001,102477,
AFNE01.JPG,AFNE01.JPG,AFNE01.JPG,AFNE01.JPG,AFNE01.JPG,AFNE01.JPG,,,,,,,,,,,,,,,,,,,,,0,7,7,0,,,AMSA03.jpg,AMNE05.jpg,AMSA06.jpg,AMNE19.jpg,AMNE19.jpg,MN,1,num_4,32,num_8,2.66664229054,,,2017_Dec_12_1522,60.0099317403,FEMA4ImagesEEG,001,102477,
AFNE01.JPG,AFNE01.JPG,AFNE01.JPG,AFNE01.JPG,AFNE01.JPG,AFNE01.JPG,,,,,,,,,,,,,,,,,,,,,0,8,8,8,,,AMSA02.jpg,AMSA08.jpg,AMNE19.jpg,AMNE18.jpg,AMNE18.jpg,MN,1,num_4,32,num_8,1.10010205908,,,2017_Dec_12_1522,60.0099317403,FEMA4ImagesEEG,001,102477,
AFNE01.JPG,AFNE01.JPG,AFNE01.JPG,AFNE01.JPG,AFNE01.JPG,AFNE01.JPG,,,,,,,,,,,,,,,,,,,,,0,9,9,6,,,AMNE14.jpg,AMNE12.jpg,AMSA02.jpg,AMSA01.jpg,AMSA02.jpg,MS,2,num_2,32,num_8,0.916768822121,,,2017_Dec_12_1522,60.0099317403,FEMA4ImagesEEG,001,102477,
AFNE01.JPG,AFNE01.JPG,AFNE01.JPG,AFNE01.JPG,AFNE01.JPG,AFNE01.JPG,,,,,,,,,,,,,,,,,,,,,1,0,10,9,,,AMSA08.jpg,AMNE15.jpg,AMNE19.jpg,AMSA11.jpg,AMSA11.jpg,MS,2,num_4,16,num_4,0.966763722477,,,2017_Dec_12_1522,60.0099317403,FEMA4ImagesEEG,001,102477,
AFNE01.JPG,AFNE01.JPG,AFNE01.JPG,AFNE01.JPG,AFNE01.JPG,AFNE01.JPG,,,,,,,,,,,,,,,,,,,,,1,1,11,1,,,AMSA17.jpg,AMNE09.jpg,AMSA07.jpg,AMNE13.jpg,AMSA07.jpg,MS,2,num_2,16,num_2,1.86641180725,,,2017_Dec_12_1522,60.0099317403,FEMA4ImagesEEG,001,102477,
AFNE01.JPG,AFNE01.JPG,AFNE01.JPG,AFNE01.JPG,AFNE01.JPG,AFNE01.JPG,,,,,,,,,,,,,,,,,,,,,1,2,12,0,,,AMSA01.jpg,AMNE18.jpg,AMSA13.jpg,AMNE08.jpg,AMSA13.jpg,MS,2,num_2,32,num_4,0.766787649598,,,2017_Dec_12_1522,60.0099317403,FEMA4ImagesEEG,001,102477,
AFNE01.JPG,AFNE01.JPG,AFNE01.JPG,AFNE01.JPG,AFNE01.JPG,AFNE01.JPG,,,,,,,,,,,,,,,,,,,,,1,3,13,5,,,AMSA05.jpg,AMSA12.jpg,AMNE17.jpg,AMNE01.jpg,AMSA12.jpg,MS,2,num_6,16,num_6,0.71679884335,,,2017_Dec_12_1522,60.0099317403,FEMA4ImagesEEG,001,102477,
AFNE01.JPG,AFNE01.JPG,AFNE01.JPG,AFNE01.JPG,AFNE01.JPG,AFNE01.JPG,,,,,,,,,,,,,,,,,,,,,1,4,14,4,,,AMSA01.jpg,AMNE05.jpg,AMNE15.jpg,AMSA12.jpg,AMNE15.jpg,MN,1,num_2,32,num_6,2.68329635216,,,2017_Dec_12_1522,60.0099317403,FEMA4ImagesEEG,001,102477,
AFNE01.JPG,AFNE01.JPG,AFNE01.JPG,AFNE01.JPG,AFNE01.JPG,AFNE01.JPG,,,,,,,,,,,,,,,,,,,,,1,5,15,8,,,AMSA09.jpg,AMSA05.jpg,AMNE07.jpg,AMNE09.jpg,AMSA09.jpg,MS,2,num_8,32,num_2,0.716776070883,,,2017_Dec_12_1522,60.0099317403,FEMA4ImagesEEG,001,102477,
AFNE01.JPG,AFNE01.JPG,AFNE01.JPG,AFNE01.JPG,AFNE01.JPG,AFNE01.JPG,,,,,,,,,,,,,,,,,,,,,1,6,16,3,,,AMSA09.jpg,AMSA13.jpg,AMNE16.jpg,AMNE03.jpg,AMSA09.jpg,MS,2,num_8,32,num_4,0.850179196801,,,2017_Dec_12_1522,60.0099317403,FEMA4ImagesEEG,001,102477,
AFNE01.JPG,AFNE01.JPG,AFNE01.JPG,AFNE01.JPG,AFNE01.JPG,AFNE01.JPG,,,,,,,,,,,,,,,,,,,,,1,7,17,6,,,AMNE03.jpg,AMNE11.jpg,AMSA02.jpg,AMSA19.jpg,AMNE11.jpg,MN,1,num_6,32,num_2,0.60011200211,,,2017_Dec_12_1522,60.0099317403,FEMA4ImagesEEG,001,102477,
AFNE01.JPG,AFNE01.JPG,AFNE01.JPG,AFNE01.JPG,AFNE01.JPG,AFNE01.JPG,,,,,,,,,,,,,,,,,,,,,1,8,18,7,,,AMSA08.jpg,AMNE15.jpg,AMSA13.jpg,AMNE08.jpg,AMSA08.jpg,MS,2,num_8,32,num_4,0.650234235683,,,2017_Dec_12_1522,60.0099317403,FEMA4ImagesEEG,001,102477,
AFNE01.JPG,AFNE01.JPG,AFNE01.JPG,AFNE01.JPG,AFNE01.JPG,AFNE01.JPG,,,,,,,,,,,,,,,,,,,,,1,9,19,2,,,AMNE09.jpg,AMSA07.jpg,AMSA19.jpg,AMNE08.jpg,AMNE08.jpg,MN,1,num_4,32,num_2,0.616792685119,,,2017_Dec_12_1522,60.0099317403,FEMA4ImagesEEG,001,102477,
AFNE01.JPG,AFNE01.JPG,AFNE01.JPG,AFNE01.JPG,AFNE01.JPG,AFNE01.JPG,,,,,,,,,,,,,,,,,,,,,2,0,20,9,,,AMNE07.jpg,AMNE09.jpg,AMSA12.jpg,AMSA20.jpg,AMSA20.jpg,MS,2,num_4,32,num_8,1.06678174785,,,2017_Dec_12_1522,60.0099317403,FEMA4ImagesEEG,001,102477,
AFNE01.JPG,AFNE01.JPG,AFNE01.JPG,AFNE01.JPG,AFNE01.JPG,AFNE01.JPG,,,,,,,,,,,,,,,,,,,,,2,1,21,4,,,AMNE03.jpg,AMSA15.jpg,AMNE06.jpg,AMSA03.jpg,AMNE03.jpg,MN,1,num_8,32,num_2,2.7833612056,,,2017_Dec_12_1522,60.0099317403,FEMA4ImagesEEG,001,102477,
AFNE01.JPG,AFNE01.JPG,AFNE01.JPG,AFNE01.JPG,AFNE01.JPG,AFNE01.JPG,,,,,,,,,,,,,,,,,,,,,2,2,22,7,,,AMNE17.jpg,AMNE03.jpg,AMSA14.jpg,AMSA13.jpg,AMNE03.jpg,MN,1,num_6,32,num_2,2.26670233277,,,2017_Dec_12_1522,60.0099317403,FEMA4ImagesEEG,001,102477,
AFNE01.JPG,AFNE01.JPG,AFNE01.JPG,AFNE01.JPG,AFNE01.JPG,AFNE01.JPG,,,,,,,,,,,,,,,,,,,,,2,3,23,0,,,AMNE05.jpg,AMNE14.jpg,AMSA19.jpg,AMSA14.jpg,AMSA14.jpg,MS,2,num_4,32,num_2,1.2334484146,,,2017_Dec_12_1522,60.0099317403,FEMA4ImagesEEG,001,102477,
AFNE01.JPG,AFNE01.JPG,AFNE01.JPG,AFNE01.JPG,AFNE01.JPG,AFNE01.JPG,,,,,,,,,,,,,,,,,,,,,2,4,24,8,,,AMSA18.jpg,AMNE05.jpg,AMNE11.jpg,AMSA02.jpg,AMNE11.jpg,MN,1,num_2,32,num_4,0.950157771818,,,2017_Dec_12_1522,60.0099317403,FEMA4ImagesEEG,001,102477,
AFNE01.JPG,AFNE01.JPG,AFNE01.JPG,AFNE01.JPG,AFNE01.JPG,AFNE01.JPG,,,,,,,,,,,,,,,,,,,,,2,5,25,3,,,AMNE19.jpg,AMSA11.jpg,AMSA10.jpg,AMNE11.jpg,AMNE19.jpg,MN,1,num_8,32,num_6,1.06674999488,,,2017_Dec_12_1522,60.0099317403,FEMA4ImagesEEG,001,102477,
AFNE01.JPG,AFNE01.JPG,AFNE01.JPG,AFNE01.JPG,AFNE01.JPG,AFNE01.JPG,,,,,,,,,,,,,,,,,,,,,2,6,26,1,,,AMNE04.jpg,AMSA04.jpg,AMNE16.jpg,AMSA18.jpg,AMSA04.jpg,MS,2,num_6,32,num_2,2.16671958868,,,2017_Dec_12_1522,60.0099317403,FEMA4ImagesEEG,001,102477,
AFNE01.JPG,AFNE01.JPG,AFNE01.JPG,AFNE01.JPG,AFNE01.JPG,AFNE01.JPG,,,,,,,,,,,,,,,,,,,,,2,7,27,5,,,AMNE07.jpg,AMNE14.jpg,AMSA06.jpg,AMSA19.jpg,AMNE07.jpg,MN,1,num_8,16,num_8,0.950130829355,,,2017_Dec_12_1522,60.0099317403,FEMA4ImagesEEG,001,102477,
AFNE01.JPG,AFNE01.JPG,AFNE01.JPG,AFNE01.JPG,AFNE01.JPG,AFNE01.JPG,,,,,,,,,,,,,,,,,,,,,2,8,28,2,,,AMNE06.jpg,AMSA03.jpg,AMSA18.jpg,AMNE14.jpg,AMSA03.jpg,MS,2,num_6,32,num_8,0.750129738823,,,2017_Dec_12_1522,60.0099317403,FEMA4ImagesEEG,001,102477,
AFNE01.JPG,AFNE01.JPG,AFNE01.JPG,AFNE01.JPG,AFNE01.JPG,AFNE01.JPG,,,,,,,,,,,,,,,,,,,,,2,9,29,6,,,AMSA20.jpg,AMNE18.jpg,AMNE15.jpg,AMSA01.jpg,AMSA20.jpg,MS,2,num_8,32,num_2,0.783499444136,,,2017_Dec_12_1522,60.0099317403,FEMA4ImagesEEG,001,102477,
AFNE01.JPG,AFNE01.JPG,AFNE01.JPG,AFNE01.JPG,AFNE01.JPG,AFNE01.JPG,,,,,,,,,,,,,,,,,,,,,3,0,30,2,,,AMSA02.jpg,AMNE11.jpg,AMSA06.jpg,AMNE04.jpg,AMNE04.jpg,MN,1,num_4,16,num_4,1.11676766747,,,2017_Dec_12_1522,60.0099317403,FEMA4ImagesEEG,001,102477,
AFNE01.JPG,AFNE01.JPG,AFNE01.JPG,AFNE01.JPG,AFNE01.JPG,AFNE01.JPG,,,,,,,,,,,,,,,,,,,,,3,1,31,6,,,AMNE04.jpg,AMNE17.jpg,AMSA09.jpg,AMSA20.jpg,AMNE04.jpg,MN,1,num_8,32,num_6,1.10015241522,,,2017_Dec_12_1522,60.0099317403,FEMA4ImagesEEG,001,102477,
AFNE01.JPG,AFNE01.JPG,AFNE01.JPG,AFNE01.JPG,AFNE01.JPG,AFNE01.JPG,,,,,,,,,,,,,,,,,,,,,3,2,32,7,,,AMSA10.jpg,AMSA14.jpg,AMNE07.jpg,AMNE10.jpg,AMNE07.jpg,MN,1,num_2,32,num_8,0.81676907884,,,2017_Dec_12_1522,60.0099317403,FEMA4ImagesEEG,001,102477,
AFNE01.JPG,AFNE01.JPG,AFNE01.JPG,AFNE01.JPG,AFNE01.JPG,AFNE01.JPG,,,,,,,,,,,,,,,,,,,,,3,3,33,5,,,AMNE01.jpg,AMSA10.jpg,AMSA04.jpg,AMNE06.jpg,AMNE06.jpg,MN,1,num_4,32,num_8,2.63332197908,,,2017_Dec_12_1522,60.0099317403,FEMA4ImagesEEG,001,102477,
AFNE01.JPG,AFNE01.JPG,AFNE01.JPG,AFNE01.JPG,AFNE01.JPG,AFNE01.JPG,,,,,,,,,,,,,,,,,,,,,3,4,34,1,,,AMSA19.jpg,AMSA18.jpg,AMNE04.jpg,AMNE13.jpg,AMSA18.jpg,MS,2,num_6,32,num_2,2.48361311411,,,2017_Dec_12_1522,60.0099317403,FEMA4ImagesEEG,001,102477,
AFNE01.JPG,AFNE01.JPG,AFNE01.JPG,AFNE01.JPG,AFNE01.JPG,AFNE01.JPG,,,,,,,,,,,,,,,,,,,,,3,5,35,9,,,AMSA13.jpg,AMSA17.jpg,AMNE08.jpg,AMNE06.jpg,AMNE08.jpg,MN,1,num_2,32,num_4,1.41673257854,,,2017_Dec_12_1522,60.0099317403,FEMA4ImagesEEG,001,102477,
AFNE01.JPG,AFNE01.JPG,AFNE01.JPG,AFNE01.JPG,AFNE01.JPG,AFNE01.JPG,,,,,,,,,,,,,,,,,,,,,3,6,36,4,,,AMSA10.jpg,AMNE17.jpg,AMNE08.jpg,AMSA20.jpg,AMNE17.jpg,MN,1,num_6,32,num_8,0.983366786502,,,2017_Dec_12_1522,60.0099317403,FEMA4ImagesEEG,001,102477,
AFNE01.JPG,AFNE01.JPG,AFNE01.JPG,AFNE01.JPG,AFNE01.JPG,AFNE01.JPG,,,,,,,,,,,,,,,,,,,,,3,7,37,8,,,AMNE05.jpg,AMNE08.jpg,AMSA09.jpg,AMSA03.jpg,AMSA03.jpg,MS,2,num_4,32,num_6,1.01678171591,,,2017_Dec_12_1522,60.0099317403,FEMA4ImagesEEG,001,102477,
AFNE01.JPG,AFNE01.JPG,AFNE01.JPG,AFNE01.JPG,AFNE01.JPG,AFNE01.JPG,,,,,,,,,,,,,,,,,,,,,3,8,38,0,,,AMSA14.jpg,AMNE13.jpg,AMNE11.jpg,AMSA17.jpg,AMNE13.jpg,MN,1,num_6,16,num_6,0.900129835354,,,2017_Dec_12_1522,60.0099317403,FEMA4ImagesEEG,001,102477,
AFNE01.JPG,AFNE01.JPG,AFNE01.JPG,AFNE01.JPG,AFNE01.JPG,AFNE01.JPG,,,,,,,,,,,,,,,,,,,,,3,9,39,3,,,AMNE04.jpg,AMNE12.jpg,AMSA06.jpg,AMSA05.jpg,AMSA06.jpg,MS,2,num_2,32,num_8,1.01679294161,,,2017_Dec_12_1522,60.0099317403,FEMA4ImagesEEG,001,102477,
