IPosition2,IPosition3,IPosition1,IPosition6,IPosition4,IPosition5,TrialsM1.thisRepN,TrialsM1.thisTrialN,TrialsM1.thisN,TrialsM1.thisIndex,TrialsF1.thisRepN,TrialsF1.thisTrialN,TrialsF1.thisN,TrialsF1.thisIndex,TrialsM2.thisRepN,TrialsM2.thisTrialN,TrialsM2.thisN,TrialsM2.thisIndex,TrialsF2.thisRepN,TrialsF2.thisTrialN,TrialsF2.thisN,TrialsF2.thisIndex,TrialsM3.thisRepN,TrialsM3.thisTrialN,TrialsM3.thisN,TrialsM3.thisIndex,TrialsF3.thisRepN,TrialsF3.thisTrialN,TrialsF3.thisN,TrialsF3.thisIndex,InstrKey_resp.keys,InstrKey_resp.rt,Image0 _Position,Image1 _Position,Image2 _Position,Image3 _Position,Center_image,condition,code,correct_answer,accuracy,Key_Resp.keys,Key_Resp.rt,BreakKey_resp.keys,BreakKey_resp.rt,date,frameRate,expName,session,participant,
,,,,,,,,,,,,,,,,,,,,,,,,,,,,,,space,14.6327212346,,,,,,,,,,,,,,2017_Dec_04_1738,59.9927265354,MAFE4ImagesEEG,001,102491,
AMSA21.JPG,AMNE22.JPG,AMNE21.JPG,AMSA23.JPG,AMSA22.JPG,AMNE23.JPG,0,0,0,1,,,,,,,,,,,,,,,,,,,,,,,AMSA17.jpg,AMSA06.jpg,AMNE01.jpg,AMNE11.jpg,AMSA17.jpg,MS,2,num_8,16,num_8,0.883459095145,,,2017_Dec_04_1738,59.9927265354,MAFE4ImagesEEG,001,102491,
AFSA21.JPG,AFNE22.JPG,AFNE21.JPG,AFSA23.JPG,AFSA22.JPG,AFNE23.JPG,0,1,1,0,,,,,,,,,,,,,,,,,,,,,,,AMNE18.jpg,AMSA20.jpg,AMSA17.jpg,AMNE01.jpg,AMNE18.jpg,MN,1,num_8,16,num_8,1.58333413512,,,2017_Dec_04_1738,59.9927265354,MAFE4ImagesEEG,001,102491,
AFSA25.JPG,AFNE24.JPG,AFSA24.JPG,AFNE21.JPG,AFSA21.JPG,AFNE25.JPG,0,2,2,2,,,,,,,,,,,,,,,,,,,,,,,AMNE07.jpg,AMSA18.jpg,AMSA08.jpg,AMNE12.jpg,AMSA08.jpg,MS,2,num_2,32,num_6,0.616657653823,,,2017_Dec_04_1738,59.9927265354,MAFE4ImagesEEG,001,102491,
AMSA21.JPG,AMNE23.JPG,AMNE21.JPG,AMSA25.JPG,AMNE25.JPG,AMSA23.JPG,0,3,3,5,,,,,,,,,,,,,,,,,,,,,,,AMSA12.jpg,AMNE18.jpg,AMSA17.jpg,AMNE09.jpg,AMNE09.jpg,MN,1,num_4,16,num_4,1.05012447876,,,2017_Dec_04_1738,59.9927265354,MAFE4ImagesEEG,001,102491,
AFNE22.JPG,AFSA24.JPG,AFSA22.JPG,AFNE25.JPG,AFNE24.JPG,AFSA25.JPG,0,4,4,6,,,,,,,,,,,,,,,,,,,,,,,AMNE01.jpg,AMNE03.jpg,AMSA09.jpg,AMSA18.jpg,AMSA18.jpg,MS,2,num_4,16,num_4,0.816798266023,,,2017_Dec_04_1738,59.9927265354,MAFE4ImagesEEG,001,102491,
AMSA25.JPG,AMNE24.JPG,AMSA24.JPG,AMNE26.JPG,AMSA21.JPG,AMNE25.JPG,0,5,5,3,,,,,,,,,,,,,,,,,,,,,,,AMSA15.jpg,AMSA06.jpg,AMNE20.jpg,AMNE07.jpg,AMSA06.jpg,MS,2,num_6,32,num_8,0.71678857971,,,2017_Dec_04_1738,59.9927265354,MAFE4ImagesEEG,001,102491,
AMNE22.JPG,AMSA24.JPG,AMSA22.JPG,AMNE25.JPG,AMNE24.JPG,AMSA25.JPG,0,6,6,7,,,,,,,,,,,,,,,,,,,,,,,AMNE18.jpg,AMNE14.jpg,AMSA13.jpg,AMSA15.jpg,AMNE18.jpg,MN,1,num_8,32,num_4,0.733507430414,,,2017_Dec_04_1738,59.9927265354,MAFE4ImagesEEG,001,102491,
AFNE23.JPG,AFNE24.JPG,AFNE22.JPG,AFSA24.JPG,AFSA22.JPG,AFSA23.JPG,0,7,7,8,,,,,,,,,,,,,,,,,,,,,,,AMSA09.jpg,AMSA13.jpg,AMNE20.jpg,AMNE10.jpg,AMSA13.jpg,MS,2,num_6,32,num_8,0.483466857113,,,2017_Dec_04_1738,59.9927265354,MAFE4ImagesEEG,001,102491,
AMNE23.JPG,AMNE24.JPG,AMNE22.JPG,AMSA24.JPG,AMSA22.JPG,AMSA23.JPG,0,8,8,9,,,,,,,,,,,,,,,,,,,,,,,AMSA14.jpg,AMNE16.jpg,AMSA12.jpg,AMNE09.jpg,AMSA14.jpg,MS,2,num_8,16,num_8,0.650168804917,,,2017_Dec_04_1738,59.9927265354,MAFE4ImagesEEG,001,102491,
AFSA21.JPG,AFNE23.JPG,AFNE21.JPG,AFSA25.JPG,AFNE25.JPG,AFSA23.JPG,0,9,9,4,,,,,,,,,,,,,,,,,,,,,,,AMSA20.jpg,AMNE14.jpg,AMSA06.jpg,AMNE10.jpg,AMNE10.jpg,MN,1,num_4,16,num_4,0.783426636364,,,2017_Dec_04_1738,59.9927265354,MAFE4ImagesEEG,001,102491,
AFSA21.JPG,AFNE22.JPG,AFNE21.JPG,AFSA23.JPG,AFSA22.JPG,AFNE23.JPG,,,,,0,0,0,0,,,,,,,,,,,,,,,,,,,AFSA06.jpg,AFSA14.jpg,AFNE15.jpg,AFNE11.jpg,AFNE15.jpg,FN,3,num_2,32,num_6,1.0170033467,,,2017_Dec_04_1738,59.9927265354,MAFE4ImagesEEG,001,102491,
AMNE22.JPG,AMSA24.JPG,AMSA22.JPG,AMNE25.JPG,AMNE24.JPG,AMSA25.JPG,,,,,0,1,1,7,,,,,,,,,,,,,,,,,,,AFSA12.jpg,AFSA07.jpg,AFNE03.jpg,AFNE19.jpg,AFNE19.jpg,FN,3,num_4,32,num_8,0.700128744822,,,2017_Dec_04_1738,59.9927265354,MAFE4ImagesEEG,001,102491,
AFNE23.JPG,AFNE24.JPG,AFNE22.JPG,AFSA24.JPG,AFSA22.JPG,AFSA23.JPG,,,,,0,2,2,8,,,,,,,,,,,,,,,,,,,AFSA04.jpg,AFNE20.jpg,AFNE01.jpg,AFSA01.jpg,AFNE01.jpg,FN,3,num_2,32,num_8,0.483515609289,,,2017_Dec_04_1738,59.9927265354,MAFE4ImagesEEG,001,102491,
AFSA25.JPG,AFNE24.JPG,AFSA24.JPG,AFNE21.JPG,AFSA21.JPG,AFNE25.JPG,,,,,0,3,3,2,,,,,,,,,,,,,,,,,,,AFNE09.jpg,AFSA01.jpg,AFSA12.jpg,AFNE12.jpg,AFNE09.jpg,FN,3,num_8,32,num_4,0.78353985725,,,2017_Dec_04_1738,59.9927265354,MAFE4ImagesEEG,001,102491,
AMNE23.JPG,AMNE24.JPG,AMNE22.JPG,AMSA24.JPG,AMSA22.JPG,AMSA23.JPG,,,,,0,4,4,9,,,,,,,,,,,,,,,,,,,AFSA12.jpg,AFSA06.jpg,AFNE05.jpg,AFNE09.jpg,AFSA06.jpg,FS,4,num_6,32,num_8,0.750225319294,,,2017_Dec_04_1738,59.9927265354,MAFE4ImagesEEG,001,102491,
AMSA25.JPG,AMNE24.JPG,AMSA24.JPG,AMNE26.JPG,AMSA21.JPG,AMNE25.JPG,,,,,0,5,5,3,,,,,,,,,,,,,,,,,,,AFNE08.jpg,AFSA11.jpg,AFSA16.jpg,AFNE01.jpg,AFNE01.jpg,FN,3,num_4,32,num_8,0.950113830389,,,2017_Dec_04_1738,59.9927265354,MAFE4ImagesEEG,001,102491,
AFSA21.JPG,AFNE23.JPG,AFNE21.JPG,AFSA25.JPG,AFNE25.JPG,AFSA23.JPG,,,,,0,6,6,4,,,,,,,,,,,,,,,,,,,AFSA07.jpg,AFNE16.jpg,AFSA15.jpg,AFNE11.jpg,AFNE11.jpg,FN,3,num_4,32,num_8,0.533315179637,,,2017_Dec_04_1738,59.9927265354,MAFE4ImagesEEG,001,102491,
AMSA21.JPG,AMNE23.JPG,AMNE21.JPG,AMSA25.JPG,AMNE25.JPG,AMSA23.JPG,,,,,0,7,7,5,,,,,,,,,,,,,,,,,,,AFNE20.jpg,AFNE14.jpg,AFSA13.jpg,AFSA03.jpg,AFNE14.jpg,FN,3,num_6,32,num_8,0.417018677806,,,2017_Dec_04_1738,59.9927265354,MAFE4ImagesEEG,001,102491,
AFNE22.JPG,AFSA24.JPG,AFSA22.JPG,AFNE25.JPG,AFNE24.JPG,AFSA25.JPG,,,,,0,8,8,6,,,,,,,,,,,,,,,,,,,AFNE18.jpg,AFSA01.jpg,AFNE17.jpg,AFSA09.jpg,AFNE18.jpg,FN,3,num_8,32,num_6,0.333453610539,,,2017_Dec_04_1738,59.9927265354,MAFE4ImagesEEG,001,102491,
AMSA21.JPG,AMNE22.JPG,AMNE21.JPG,AMSA23.JPG,AMSA22.JPG,AMNE23.JPG,,,,,0,9,9,1,,,,,,,,,,,,,,,,,,,AFNE20.jpg,AFNE19.jpg,AFSA07.jpg,AFSA15.jpg,AFSA07.jpg,FS,4,num_2,32,num_4,0.516790375812,,,2017_Dec_04_1738,59.9927265354,MAFE4ImagesEEG,001,102491,
AMSA21.JPG,AMNE22.JPG,AMNE21.JPG,AMSA23.JPG,AMSA22.JPG,AMNE23.JPG,,,,,,,,,0,0,0,1,,,,,,,,,,,,,,,AMNE02.jpg,AMSA08.jpg,AMSA11.jpg,AMNE18.jpg,AMSA08.jpg,MS,2,num_6,32,num_8,0.833339106524,,,2017_Dec_04_1738,59.9927265354,MAFE4ImagesEEG,001,102491,
AFSA21.JPG,AFNE23.JPG,AFNE21.JPG,AFSA25.JPG,AFNE25.JPG,AFSA23.JPG,,,,,,,,,0,1,1,4,,,,,,,,,,,,,,,AMSA03.jpg,AMSA13.jpg,AMNE02.jpg,AMNE18.jpg,AMSA13.jpg,MS,2,num_6,32,num_2,0.566783030983,,,2017_Dec_04_1738,59.9927265354,MAFE4ImagesEEG,001,102491,
AFNE23.JPG,AFNE24.JPG,AFNE22.JPG,AFSA24.JPG,AFSA22.JPG,AFSA23.JPG,,,,,,,,,0,2,2,8,,,,,,,,,,,,,,,AMNE11.jpg,AMSA01.jpg,AMNE07.jpg,AMSA07.jpg,AMNE11.jpg,MN,1,num_8,16,num_8,0.500120918732,,,2017_Dec_04_1738,59.9927265354,MAFE4ImagesEEG,001,102491,
AFSA21.JPG,AFNE22.JPG,AFNE21.JPG,AFSA23.JPG,AFSA22.JPG,AFNE23.JPG,,,,,,,,,0,3,3,0,,,,,,,,,,,,,,,AMNE11.jpg,AMSA11.jpg,AMSA07.jpg,AMNE20.jpg,AMNE11.jpg,MN,1,num_8,16,num_8,0.683475324418,,,2017_Dec_04_1738,59.9927265354,MAFE4ImagesEEG,001,102491,
AMSA21.JPG,AMNE23.JPG,AMNE21.JPG,AMSA25.JPG,AMNE25.JPG,AMSA23.JPG,,,,,,,,,0,4,4,5,,,,,,,,,,,,,,,AMNE15.jpg,AMNE11.jpg,AMSA01.jpg,AMSA17.jpg,AMNE15.jpg,MN,1,num_8,32,num_6,0.783500727266,,,2017_Dec_04_1738,59.9927265354,MAFE4ImagesEEG,001,102491,
AMSA25.JPG,AMNE24.JPG,AMSA24.JPG,AMNE26.JPG,AMSA21.JPG,AMNE25.JPG,,,,,,,,,0,5,5,3,,,,,,,,,,,,,,,AMSA11.jpg,AMNE20.jpg,AMNE01.jpg,AMSA19.jpg,AMNE20.jpg,MN,1,num_6,16,num_6,0.833407103317,,,2017_Dec_04_1738,59.9927265354,MAFE4ImagesEEG,001,102491,
AFNE22.JPG,AFSA24.JPG,AFSA22.JPG,AFNE25.JPG,AFNE24.JPG,AFSA25.JPG,,,,,,,,,0,6,6,6,,,,,,,,,,,,,,,AMNE03.jpg,AMNE15.jpg,AMSA18.jpg,AMSA14.jpg,AMNE15.jpg,MN,1,num_6,32,num_8,0.550179966725,,,2017_Dec_04_1738,59.9927265354,MAFE4ImagesEEG,001,102491,
AFSA25.JPG,AFNE24.JPG,AFSA24.JPG,AFNE21.JPG,AFSA21.JPG,AFNE25.JPG,,,,,,,,,0,7,7,2,,,,,,,,,,,,,,,AMNE09.jpg,AMSA02.jpg,AMNE05.jpg,AMSA13.jpg,AMNE09.jpg,MN,1,num_8,16,num_8,1.05007861322,,,2017_Dec_04_1738,59.9927265354,MAFE4ImagesEEG,001,102491,
AMNE22.JPG,AMSA24.JPG,AMSA22.JPG,AMNE25.JPG,AMNE24.JPG,AMSA25.JPG,,,,,,,,,0,8,8,7,,,,,,,,,,,,,,,AMSA13.jpg,AMNE03.jpg,AMNE11.jpg,AMSA03.jpg,AMSA03.jpg,MS,2,num_4,32,num_2,0.333498514025,,,2017_Dec_04_1738,59.9927265354,MAFE4ImagesEEG,001,102491,
AMNE23.JPG,AMNE24.JPG,AMNE22.JPG,AMSA24.JPG,AMSA22.JPG,AMSA23.JPG,,,,,,,,,0,9,9,9,,,,,,,,,,,,,,,AMNE18.jpg,AMNE05.jpg,AMSA05.jpg,AMSA04.jpg,AMSA05.jpg,MS,2,num_2,32,num_8,0.833556567784,,,2017_Dec_04_1738,59.9927265354,MAFE4ImagesEEG,001,102491,
AFSA25.JPG,AFNE24.JPG,AFSA24.JPG,AFNE21.JPG,AFSA21.JPG,AFNE25.JPG,,,,,,,,,,,,,0,0,0,2,,,,,,,,,,,AFSA17.jpg,AFNE16.jpg,AFNE08.jpg,AFSA12.jpg,AFSA12.jpg,FS,4,num_4,16,num_4,0.583470770158,,,2017_Dec_04_1738,59.9927265354,MAFE4ImagesEEG,001,102491,
AFSA21.JPG,AFNE23.JPG,AFNE21.JPG,AFSA25.JPG,AFNE25.JPG,AFSA23.JPG,,,,,,,,,,,,,0,1,1,4,,,,,,,,,,,AFSA15.jpg,AFSA19.jpg,AFNE11.jpg,AFNE02.jpg,AFNE02.jpg,FN,3,num_4,32,num_8,0.65012037335,,,2017_Dec_04_1738,59.9927265354,MAFE4ImagesEEG,001,102491,
AMNE22.JPG,AMSA24.JPG,AMSA22.JPG,AMNE25.JPG,AMNE24.JPG,AMSA25.JPG,,,,,,,,,,,,,0,2,2,7,,,,,,,,,,,AFSA07.jpg,AFNE10.jpg,AFSA17.jpg,AFNE04.jpg,AFNE04.jpg,FN,3,num_4,16,num_4,0.700114953099,,,2017_Dec_04_1738,59.9927265354,MAFE4ImagesEEG,001,102491,
AMSA25.JPG,AMNE24.JPG,AMSA24.JPG,AMNE26.JPG,AMSA21.JPG,AMNE25.JPG,,,,,,,,,,,,,0,3,3,3,,,,,,,,,,,AFNE04.jpg,AFNE11.jpg,AFSA11.jpg,AFSA06.jpg,AFNE04.jpg,FN,3,num_8,16,num_8,0.516893012449,,,2017_Dec_04_1738,59.9927265354,MAFE4ImagesEEG,001,102491,
AFNE22.JPG,AFSA24.JPG,AFSA22.JPG,AFNE25.JPG,AFNE24.JPG,AFSA25.JPG,,,,,,,,,,,,,0,4,4,6,,,,,,,,,,,AFNE14.jpg,AFSA14.jpg,AFSA06.jpg,AFNE07.jpg,AFNE07.jpg,FN,3,num_4,32,num_2,0.317221320933,,,2017_Dec_04_1738,59.9927265354,MAFE4ImagesEEG,001,102491,
AFNE23.JPG,AFNE24.JPG,AFNE22.JPG,AFSA24.JPG,AFSA22.JPG,AFSA23.JPG,,,,,,,,,,,,,0,5,5,8,,,,,,,,,,,AFSA03.jpg,AFNE03.jpg,AFSA17.jpg,AFNE10.jpg,AFNE10.jpg,FN,3,num_4,32,num_8,0.48347808281,,,2017_Dec_04_1738,59.9927265354,MAFE4ImagesEEG,001,102491,
AMNE23.JPG,AMNE24.JPG,AMNE22.JPG,AMSA24.JPG,AMSA22.JPG,AMSA23.JPG,,,,,,,,,,,,,0,6,6,9,,,,,,,,,,,AFSA15.jpg,AFNE04.jpg,AFNE09.jpg,AFSA02.jpg,AFSA15.jpg,FS,4,num_8,32,num_4,0.783431447577,,,2017_Dec_04_1738,59.9927265354,MAFE4ImagesEEG,001,102491,
AFSA21.JPG,AFNE22.JPG,AFNE21.JPG,AFSA23.JPG,AFSA22.JPG,AFNE23.JPG,,,,,,,,,,,,,0,7,7,0,,,,,,,,,,,AFSA13.jpg,AFNE14.jpg,AFNE12.jpg,AFSA19.jpg,AFNE12.jpg,FN,3,num_2,32,num_6,0.833446554374,,,2017_Dec_04_1738,59.9927265354,MAFE4ImagesEEG,001,102491,
AMSA21.JPG,AMNE23.JPG,AMNE21.JPG,AMSA25.JPG,AMNE25.JPG,AMSA23.JPG,,,,,,,,,,,,,0,8,8,5,,,,,,,,,,,AFNE15.jpg,AFSA13.jpg,AFNE18.jpg,AFSA10.jpg,AFSA13.jpg,FS,4,num_6,32,num_8,0.450178619707,,,2017_Dec_04_1738,59.9927265354,MAFE4ImagesEEG,001,102491,
AMSA21.JPG,AMNE22.JPG,AMNE21.JPG,AMSA23.JPG,AMSA22.JPG,AMNE23.JPG,,,,,,,,,,,,,0,9,9,1,,,,,,,,,,,AFNE05.jpg,AFSA10.jpg,AFSA14.jpg,AFNE11.jpg,AFNE05.jpg,FN,3,num_8,32,num_6,0.466793230269,,,2017_Dec_04_1738,59.9927265354,MAFE4ImagesEEG,001,102491,
AMNE23.JPG,AMNE24.JPG,AMNE22.JPG,AMSA24.JPG,AMSA22.JPG,AMSA23.JPG,,,,,,,,,,,,,,,,,0,0,0,9,,,,,,,AMNE19.jpg,AMNE10.jpg,AMSA06.jpg,AMSA03.jpg,AMSA03.jpg,MS,2,num_4,16,num_4,0.766826138366,,,2017_Dec_04_1738,59.9927265354,MAFE4ImagesEEG,001,102491,
AFNE22.JPG,AFSA24.JPG,AFSA22.JPG,AFNE25.JPG,AFNE24.JPG,AFSA25.JPG,,,,,,,,,,,,,,,,,0,1,1,6,,,,,,,AMNE06.jpg,AMSA02.jpg,AMSA06.jpg,AMNE15.jpg,AMSA06.jpg,MS,2,num_2,32,num_8,0.700139329303,,,2017_Dec_04_1738,59.9927265354,MAFE4ImagesEEG,001,102491,
AMSA21.JPG,AMNE23.JPG,AMNE21.JPG,AMSA25.JPG,AMNE25.JPG,AMSA23.JPG,,,,,,,,,,,,,,,,,0,2,2,5,,,,,,,AMNE08.jpg,AMSA12.jpg,AMNE19.jpg,AMSA18.jpg,AMNE19.jpg,MN,1,num_2,32,num_8,0.71678697574,,,2017_Dec_04_1738,59.9927265354,MAFE4ImagesEEG,001,102491,
AFNE23.JPG,AFNE24.JPG,AFNE22.JPG,AFSA24.JPG,AFSA22.JPG,AFSA23.JPG,,,,,,,,,,,,,,,,,0,3,3,8,,,,,,,AMNE01.jpg,AMSA11.jpg,AMSA16.jpg,AMNE14.jpg,AMNE01.jpg,MN,1,num_8,16,num_8,0.58352080523,,,2017_Dec_04_1738,59.9927265354,MAFE4ImagesEEG,001,102491,
AFSA21.JPG,AFNE23.JPG,AFNE21.JPG,AFSA25.JPG,AFNE25.JPG,AFSA23.JPG,,,,,,,,,,,,,,,,,0,4,4,4,,,,,,,AMSA18.jpg,AMNE18.jpg,AMNE20.jpg,AMSA11.jpg,AMNE18.jpg,MN,1,num_6,32,num_4,0.650203765603,,,2017_Dec_04_1738,59.9927265354,MAFE4ImagesEEG,001,102491,
AFSA25.JPG,AFNE24.JPG,AFSA24.JPG,AFNE21.JPG,AFSA21.JPG,AFNE25.JPG,,,,,,,,,,,,,,,,,0,5,5,2,,,,,,,AMNE13.jpg,AMSA15.jpg,AMNE15.jpg,AMSA18.jpg,AMSA15.jpg,MS,2,num_6,32,num_4,0.533453418175,,,2017_Dec_04_1738,59.9927265354,MAFE4ImagesEEG,001,102491,
AMSA21.JPG,AMNE22.JPG,AMNE21.JPG,AMSA23.JPG,AMSA22.JPG,AMNE23.JPG,,,,,,,,,,,,,,,,,0,6,6,1,,,,,,,AMNE05.jpg,AMNE14.jpg,AMSA14.jpg,AMSA06.jpg,AMNE05.jpg,MN,1,num_8,16,num_8,0.450043909252,,,2017_Dec_04_1738,59.9927265354,MAFE4ImagesEEG,001,102491,
AMNE22.JPG,AMSA24.JPG,AMSA22.JPG,AMNE25.JPG,AMNE24.JPG,AMSA25.JPG,,,,,,,,,,,,,,,,,0,7,7,7,,,,,,,AMNE01.jpg,AMNE16.jpg,AMSA05.jpg,AMSA17.jpg,AMSA05.jpg,MS,2,num_2,16,num_2,0.316963446559,,,2017_Dec_04_1738,59.9927265354,MAFE4ImagesEEG,001,102491,
AMSA25.JPG,AMNE24.JPG,AMSA24.JPG,AMNE26.JPG,AMSA21.JPG,AMNE25.JPG,,,,,,,,,,,,,,,,,0,8,8,3,,,,,,,AMNE12.jpg,AMSA12.jpg,AMNE15.jpg,AMSA13.jpg,AMNE15.jpg,MN,1,num_2,32,num_8,0.317131834803,,,2017_Dec_04_1738,59.9927265354,MAFE4ImagesEEG,001,102491,
AFSA21.JPG,AFNE22.JPG,AFNE21.JPG,AFSA23.JPG,AFSA22.JPG,AFNE23.JPG,,,,,,,,,,,,,,,,,0,9,9,0,,,,,,,AMNE19.jpg,AMSA11.jpg,AMSA01.jpg,AMNE13.jpg,AMNE13.jpg,MN,1,num_4,32,num_8,0.28351868852,,,2017_Dec_04_1738,59.9927265354,MAFE4ImagesEEG,001,102491,
AFSA21.JPG,AFNE23.JPG,AFNE21.JPG,AFSA25.JPG,AFNE25.JPG,AFSA23.JPG,,,,,,,,,,,,,,,,,,,,,0,0,0,4,,,AFNE15.jpg,AFSA10.jpg,AFNE10.jpg,AFSA18.jpg,AFSA18.jpg,FS,4,num_4,32,num_6,0.0335166037548,,,2017_Dec_04_1738,59.9927265354,MAFE4ImagesEEG,001,102491,
AFNE23.JPG,AFNE24.JPG,AFNE22.JPG,AFSA24.JPG,AFSA22.JPG,AFSA23.JPG,,,,,,,,,,,,,,,,,,,,,0,1,1,8,,,AFNE12.jpg,AFSA09.jpg,AFSA03.jpg,AFNE16.jpg,AFSA09.jpg,FS,4,num_6,32,num_8,0.316817510407,,,2017_Dec_04_1738,59.9927265354,MAFE4ImagesEEG,001,102491,
AMNE22.JPG,AMSA24.JPG,AMSA22.JPG,AMNE25.JPG,AMNE24.JPG,AMSA25.JPG,,,,,,,,,,,,,,,,,,,,,0,2,2,7,,,AFNE17.jpg,AFSA13.jpg,AFNE01.jpg,AFSA10.jpg,AFNE17.jpg,FN,3,num_8,32,num_2,0.950174449943,,,2017_Dec_04_1738,59.9927265354,MAFE4ImagesEEG,001,102491,
AFSA25.JPG,AFNE24.JPG,AFSA24.JPG,AFNE21.JPG,AFSA21.JPG,AFNE25.JPG,,,,,,,,,,,,,,,,,,,,,0,3,3,2,,,AFNE11.jpg,AFNE01.jpg,AFSA03.jpg,AFSA20.jpg,AFSA03.jpg,FS,4,num_2,16,num_2,0.816788322991,,,2017_Dec_04_1738,59.9927265354,MAFE4ImagesEEG,001,102491,
AMSA21.JPG,AMNE23.JPG,AMNE21.JPG,AMSA25.JPG,AMNE25.JPG,AMSA23.JPG,,,,,,,,,,,,,,,,,,,,,0,4,4,5,,,AFSA05.jpg,AFSA16.jpg,AFNE17.jpg,AFNE07.jpg,AFNE07.jpg,FN,3,num_4,32,num_8,0.600157867884,,,2017_Dec_04_1738,59.9927265354,MAFE4ImagesEEG,001,102491,
AFNE22.JPG,AFSA24.JPG,AFSA22.JPG,AFNE25.JPG,AFNE24.JPG,AFSA25.JPG,,,,,,,,,,,,,,,,,,,,,0,5,5,6,,,AFNE15.jpg,AFNE13.jpg,AFSA04.jpg,AFSA18.jpg,AFSA18.jpg,FS,4,num_4,32,num_8,0.549926903564,,,2017_Dec_04_1738,59.9927265354,MAFE4ImagesEEG,001,102491,
AMSA21.JPG,AMNE22.JPG,AMNE21.JPG,AMSA23.JPG,AMSA22.JPG,AMNE23.JPG,,,,,,,,,,,,,,,,,,,,,0,6,6,1,,,AFSA15.jpg,AFNE20.jpg,AFSA09.jpg,AFNE05.jpg,AFSA09.jpg,FS,4,num_2,16,num_2,0.583298854064,,,2017_Dec_04_1738,59.9927265354,MAFE4ImagesEEG,001,102491,
AMSA25.JPG,AMNE24.JPG,AMSA24.JPG,AMNE26.JPG,AMSA21.JPG,AMNE25.JPG,,,,,,,,,,,,,,,,,,,,,0,7,7,3,,,AFNE06.jpg,AFSA20.jpg,AFSA14.jpg,AFNE09.jpg,AFNE06.jpg,FN,3,num_8,16,num_8,0.766781876097,,,2017_Dec_04_1738,59.9927265354,MAFE4ImagesEEG,001,102491,
AMNE23.JPG,AMNE24.JPG,AMNE22.JPG,AMSA24.JPG,AMSA22.JPG,AMSA23.JPG,,,,,,,,,,,,,,,,,,,,,0,8,8,9,,,AFSA03.jpg,AFSA14.jpg,AFNE20.jpg,AFNE09.jpg,AFNE09.jpg,FN,3,num_4,32,num_6,0.333459704416,,,2017_Dec_04_1738,59.9927265354,MAFE4ImagesEEG,001,102491,
AFSA21.JPG,AFNE22.JPG,AFNE21.JPG,AFSA23.JPG,AFSA22.JPG,AFNE23.JPG,,,,,,,,,,,,,,,,,,,,,0,9,9,0,,,AFNE18.jpg,AFSA14.jpg,AFNE04.jpg,AFSA03.jpg,AFSA14.jpg,FS,4,num_6,32,num_2,0.333517758409,,,2017_Dec_04_1738,59.9927265354,MAFE4ImagesEEG,001,102491,
,,,,,,,,,,,,,,,,,,,,,,,,,,,,,,,,,,,,,,,,,,,space,13.1991270762,2017_Dec_04_1738,59.9927265354,MAFE4ImagesEEG,001,102491,
AFNE01.JPG,AFNE01.JPG,AFNE01.JPG,AFNE01.JPG,AFNE01.JPG,AFNE01.JPG,0,0,0,3,,,,,,,,,,,,,,,,,,,,,,,AMSA13.jpg,AMNE08.jpg,AMNE20.jpg,AMSA03.jpg,AMSA13.jpg,MS,2,num_8,16,num_8,0.433472919045,,,2017_Dec_04_1738,59.9927265354,MAFE4ImagesEEG,001,102491,
AFNE01.JPG,AFNE01.JPG,AFNE01.JPG,AFNE01.JPG,AFNE01.JPG,AFNE01.JPG,0,1,1,0,,,,,,,,,,,,,,,,,,,,,,,AMSA13.jpg,AMNE03.jpg,AMSA18.jpg,AMNE19.jpg,AMNE19.jpg,MN,1,num_4,32,num_6,0.700123292161,,,2017_Dec_04_1738,59.9927265354,MAFE4ImagesEEG,001,102491,
AFNE01.JPG,AFNE01.JPG,AFNE01.JPG,AFNE01.JPG,AFNE01.JPG,AFNE01.JPG,0,2,2,9,,,,,,,,,,,,,,,,,,,,,,,AMNE02.jpg,AMNE12.jpg,AMSA09.jpg,AMSA02.jpg,AMNE12.jpg,MN,1,num_6,32,num_2,0.650151164271,,,2017_Dec_04_1738,59.9927265354,MAFE4ImagesEEG,001,102491,
AFNE01.JPG,AFNE01.JPG,AFNE01.JPG,AFNE01.JPG,AFNE01.JPG,AFNE01.JPG,0,3,3,8,,,,,,,,,,,,,,,,,,,,,,,AMNE11.jpg,AMSA17.jpg,AMNE06.jpg,AMSA13.jpg,AMSA13.jpg,MS,2,num_4,16,num_4,0.683559037512,,,2017_Dec_04_1738,59.9927265354,MAFE4ImagesEEG,001,102491,
AFNE01.JPG,AFNE01.JPG,AFNE01.JPG,AFNE01.JPG,AFNE01.JPG,AFNE01.JPG,0,4,4,7,,,,,,,,,,,,,,,,,,,,,,,AMSA14.jpg,AMNE12.jpg,AMSA12.jpg,AMNE11.jpg,AMSA12.jpg,MS,2,num_2,16,num_2,0.73312959983,,,2017_Dec_04_1738,59.9927265354,MAFE4ImagesEEG,001,102491,
AFNE01.JPG,AFNE01.JPG,AFNE01.JPG,AFNE01.JPG,AFNE01.JPG,AFNE01.JPG,0,5,5,2,,,,,,,,,,,,,,,,,,,,,,,AMNE16.jpg,AMNE10.jpg,AMSA09.jpg,AMSA08.jpg,AMNE10.jpg,MN,1,num_6,32,num_8,0.833445271244,,,2017_Dec_04_1738,59.9927265354,MAFE4ImagesEEG,001,102491,
AFNE01.JPG,AFNE01.JPG,AFNE01.JPG,AFNE01.JPG,AFNE01.JPG,AFNE01.JPG,0,6,6,6,,,,,,,,,,,,,,,,,,,,,,,AMSA07.jpg,AMNE07.jpg,AMNE14.jpg,AMSA09.jpg,AMSA07.jpg,MS,2,num_8,32,num_6,0.683288333705,,,2017_Dec_04_1738,59.9927265354,MAFE4ImagesEEG,001,102491,
AFNE01.JPG,AFNE01.JPG,AFNE01.JPG,AFNE01.JPG,AFNE01.JPG,AFNE01.JPG,0,7,7,1,,,,,,,,,,,,,,,,,,,,,,,AMNE10.jpg,AMSA09.jpg,AMSA11.jpg,AMNE16.jpg,AMNE10.jpg,MN,1,num_8,16,num_8,0.633489084197,,,2017_Dec_04_1738,59.9927265354,MAFE4ImagesEEG,001,102491,
AFNE01.JPG,AFNE01.JPG,AFNE01.JPG,AFNE01.JPG,AFNE01.JPG,AFNE01.JPG,0,8,8,4,,,,,,,,,,,,,,,,,,,,,,,AMSA18.jpg,AMNE01.jpg,AMNE06.jpg,AMSA07.jpg,AMSA07.jpg,MS,2,num_4,16,num_4,0.61679781694,,,2017_Dec_04_1738,59.9927265354,MAFE4ImagesEEG,001,102491,
AFNE01.JPG,AFNE01.JPG,AFNE01.JPG,AFNE01.JPG,AFNE01.JPG,AFNE01.JPG,0,9,9,5,,,,,,,,,,,,,,,,,,,,,,,AMSA05.jpg,AMSA13.jpg,AMNE07.jpg,AMNE18.jpg,AMSA13.jpg,MS,2,num_6,16,num_6,0.366776167182,,,2017_Dec_04_1738,59.9927265354,MAFE4ImagesEEG,001,102491,
AFNE01.JPG,AFNE01.JPG,AFNE01.JPG,AFNE01.JPG,AFNE01.JPG,AFNE01.JPG,1,0,10,1,,,,,,,,,,,,,,,,,,,,,,,AMNE05.jpg,AMNE12.jpg,AMSA04.jpg,AMSA16.jpg,AMNE12.jpg,MN,1,num_6,32,num_4,0.350180800539,,,2017_Dec_04_1738,59.9927265354,MAFE4ImagesEEG,001,102491,
AFNE01.JPG,AFNE01.JPG,AFNE01.JPG,AFNE01.JPG,AFNE01.JPG,AFNE01.JPG,1,1,11,4,,,,,,,,,,,,,,,,,,,,,,,AMNE10.jpg,AMSA15.jpg,AMSA17.jpg,AMNE19.jpg,AMSA17.jpg,MS,2,num_2,32,num_8,0.433504351415,,,2017_Dec_04_1738,59.9927265354,MAFE4ImagesEEG,001,102491,
AFNE01.JPG,AFNE01.JPG,AFNE01.JPG,AFNE01.JPG,AFNE01.JPG,AFNE01.JPG,1,2,12,5,,,,,,,,,,,,,,,,,,,,,,,AMNE02.jpg,AMSA17.jpg,AMSA01.jpg,AMNE12.jpg,AMSA17.jpg,MS,2,num_6,32,num_2,0.700124895899,,,2017_Dec_04_1738,59.9927265354,MAFE4ImagesEEG,001,102491,
AFNE01.JPG,AFNE01.JPG,AFNE01.JPG,AFNE01.JPG,AFNE01.JPG,AFNE01.JPG,1,3,13,7,,,,,,,,,,,,,,,,,,,,,,,AMNE20.jpg,AMSA07.jpg,AMNE07.jpg,AMSA12.jpg,AMSA07.jpg,MS,2,num_6,16,num_6,0.983420670498,,,2017_Dec_04_1738,59.9927265354,MAFE4ImagesEEG,001,102491,
AFNE01.JPG,AFNE01.JPG,AFNE01.JPG,AFNE01.JPG,AFNE01.JPG,AFNE01.JPG,1,4,14,6,,,,,,,,,,,,,,,,,,,,,,,AMNE10.jpg,AMNE12.jpg,AMSA03.jpg,AMSA02.jpg,AMSA02.jpg,MS,2,num_4,16,num_4,0.616765422281,,,2017_Dec_04_1738,59.9927265354,MAFE4ImagesEEG,001,102491,
AFNE01.JPG,AFNE01.JPG,AFNE01.JPG,AFNE01.JPG,AFNE01.JPG,AFNE01.JPG,1,5,15,3,,,,,,,,,,,,,,,,,,,,,,,AMSA01.jpg,AMNE04.jpg,AMNE13.jpg,AMSA13.jpg,AMNE04.jpg,MN,1,num_6,32,num_4,0.78347057756,,,2017_Dec_04_1738,59.9927265354,MAFE4ImagesEEG,001,102491,
AFNE01.JPG,AFNE01.JPG,AFNE01.JPG,AFNE01.JPG,AFNE01.JPG,AFNE01.JPG,1,6,16,9,,,,,,,,,,,,,,,,,,,,,,,AMNE16.jpg,AMSA03.jpg,AMSA12.jpg,AMNE17.jpg,AMNE17.jpg,MN,1,num_4,32,num_8,0.49984732829,,,2017_Dec_04_1738,59.9927265354,MAFE4ImagesEEG,001,102491,
AFNE01.JPG,AFNE01.JPG,AFNE01.JPG,AFNE01.JPG,AFNE01.JPG,AFNE01.JPG,1,7,17,2,,,,,,,,,,,,,,,,,,,,,,,AMSA15.jpg,AMNE11.jpg,AMNE19.jpg,AMSA06.jpg,AMNE19.jpg,MN,1,num_2,32,num_8,0.266801441088,,,2017_Dec_04_1738,59.9927265354,MAFE4ImagesEEG,001,102491,
AFNE01.JPG,AFNE01.JPG,AFNE01.JPG,AFNE01.JPG,AFNE01.JPG,AFNE01.JPG,1,8,18,8,,,,,,,,,,,,,,,,,,,,,,,AMNE14.jpg,AMSA17.jpg,AMNE12.jpg,AMSA15.jpg,AMNE12.jpg,MN,1,num_2,16,num_2,0.316775493557,,,2017_Dec_04_1738,59.9927265354,MAFE4ImagesEEG,001,102491,
AFNE01.JPG,AFNE01.JPG,AFNE01.JPG,AFNE01.JPG,AFNE01.JPG,AFNE01.JPG,1,9,19,0,,,,,,,,,,,,,,,,,,,,,,,AMSA04.jpg,AMNE17.jpg,AMNE01.jpg,AMSA05.jpg,AMSA04.jpg,MS,2,num_8,16,num_8,0.566835311241,,,2017_Dec_04_1738,59.9927265354,MAFE4ImagesEEG,001,102491,
AFNE01.JPG,AFNE01.JPG,AFNE01.JPG,AFNE01.JPG,AFNE01.JPG,AFNE01.JPG,2,0,20,8,,,,,,,,,,,,,,,,,,,,,,,AMSA11.jpg,AMNE12.jpg,AMSA14.jpg,AMNE18.jpg,AMSA11.jpg,MS,2,num_8,32,num_2,0.750153794419,,,2017_Dec_04_1738,59.9927265354,MAFE4ImagesEEG,001,102491,
AFNE01.JPG,AFNE01.JPG,AFNE01.JPG,AFNE01.JPG,AFNE01.JPG,AFNE01.JPG,2,1,21,3,,,,,,,,,,,,,,,,,,,,,,,AMNE19.jpg,AMSA02.jpg,AMNE15.jpg,AMSA03.jpg,AMSA03.jpg,MS,2,num_4,32,num_6,0.500090127811,,,2017_Dec_04_1738,59.9927265354,MAFE4ImagesEEG,001,102491,
AFNE01.JPG,AFNE01.JPG,AFNE01.JPG,AFNE01.JPG,AFNE01.JPG,AFNE01.JPG,2,2,22,4,,,,,,,,,,,,,,,,,,,,,,,AMSA17.jpg,AMNE02.jpg,AMNE20.jpg,AMSA08.jpg,AMSA08.jpg,MS,2,num_4,32,num_8,0.500149464468,,,2017_Dec_04_1738,59.9927265354,MAFE4ImagesEEG,001,102491,
AFNE01.JPG,AFNE01.JPG,AFNE01.JPG,AFNE01.JPG,AFNE01.JPG,AFNE01.JPG,2,3,23,5,,,,,,,,,,,,,,,,,,,,,,,AMSA16.jpg,AMSA15.jpg,AMNE05.jpg,AMNE01.jpg,AMSA16.jpg,MS,2,num_8,32,num_6,0.600134453736,,,2017_Dec_04_1738,59.9927265354,MAFE4ImagesEEG,001,102491,
AFNE01.JPG,AFNE01.JPG,AFNE01.JPG,AFNE01.JPG,AFNE01.JPG,AFNE01.JPG,2,4,24,9,,,,,,,,,,,,,,,,,,,,,,,AMNE08.jpg,AMSA18.jpg,AMNE02.jpg,AMSA02.jpg,AMNE02.jpg,MN,1,num_2,32,num_8,0.650010359939,,,2017_Dec_04_1738,59.9927265354,MAFE4ImagesEEG,001,102491,
AFNE01.JPG,AFNE01.JPG,AFNE01.JPG,AFNE01.JPG,AFNE01.JPG,AFNE01.JPG,2,5,25,1,,,,,,,,,,,,,,,,,,,,,,,AMSA20.jpg,AMNE11.jpg,AMNE07.jpg,AMSA01.jpg,AMSA20.jpg,MS,2,num_8,16,num_8,0.600149207748,,,2017_Dec_04_1738,59.9927265354,MAFE4ImagesEEG,001,102491,
AFNE01.JPG,AFNE01.JPG,AFNE01.JPG,AFNE01.JPG,AFNE01.JPG,AFNE01.JPG,2,6,26,0,,,,,,,,,,,,,,,,,,,,,,,AMNE04.jpg,AMNE03.jpg,AMSA07.jpg,AMSA05.jpg,AMSA05.jpg,MS,2,num_4,32,num_8,0.450206844602,,,2017_Dec_04_1738,59.9927265354,MAFE4ImagesEEG,001,102491,
AFNE01.JPG,AFNE01.JPG,AFNE01.JPG,AFNE01.JPG,AFNE01.JPG,AFNE01.JPG,2,7,27,2,,,,,,,,,,,,,,,,,,,,,,,AMNE10.jpg,AMSA05.jpg,AMSA07.jpg,AMNE08.jpg,AMNE08.jpg,MN,1,num_4,32,num_8,0.55024603894,,,2017_Dec_04_1738,59.9927265354,MAFE4ImagesEEG,001,102491,
AFNE01.JPG,AFNE01.JPG,AFNE01.JPG,AFNE01.JPG,AFNE01.JPG,AFNE01.JPG,2,8,28,6,,,,,,,,,,,,,,,,,,,,,,,AMNE06.jpg,AMSA11.jpg,AMNE14.jpg,AMSA05.jpg,AMSA05.jpg,MS,2,num_4,32,num_8,0.633513139561,,,2017_Dec_04_1738,59.9927265354,MAFE4ImagesEEG,001,102491,
AFNE01.JPG,AFNE01.JPG,AFNE01.JPG,AFNE01.JPG,AFNE01.JPG,AFNE01.JPG,2,9,29,7,,,,,,,,,,,,,,,,,,,,,,,AMSA02.jpg,AMNE07.jpg,AMSA20.jpg,AMNE10.jpg,AMSA20.jpg,MS,2,num_2,32,num_4,0.366865011863,,,2017_Dec_04_1738,59.9927265354,MAFE4ImagesEEG,001,102491,
AFNE01.JPG,AFNE01.JPG,AFNE01.JPG,AFNE01.JPG,AFNE01.JPG,AFNE01.JPG,3,0,30,4,,,,,,,,,,,,,,,,,,,,,,,AMSA03.jpg,AMNE18.jpg,AMSA14.jpg,AMNE09.jpg,AMSA03.jpg,MS,2,num_8,32,num_6,0.400134325726,,,2017_Dec_04_1738,59.9927265354,MAFE4ImagesEEG,001,102491,
AFNE01.JPG,AFNE01.JPG,AFNE01.JPG,AFNE01.JPG,AFNE01.JPG,AFNE01.JPG,3,1,31,2,,,,,,,,,,,,,,,,,,,,,,,AMNE19.jpg,AMNE18.jpg,AMSA07.jpg,AMSA18.jpg,AMNE19.jpg,MN,1,num_8,32,num_4,0.616773761343,,,2017_Dec_04_1738,59.9927265354,MAFE4ImagesEEG,001,102491,
AFNE01.JPG,AFNE01.JPG,AFNE01.JPG,AFNE01.JPG,AFNE01.JPG,AFNE01.JPG,3,2,32,5,,,,,,,,,,,,,,,,,,,,,,,AMSA07.jpg,AMNE01.jpg,AMSA06.jpg,AMNE05.jpg,AMNE05.jpg,MN,1,num_4,32,num_8,0.583487448515,,,2017_Dec_04_1738,59.9927265354,MAFE4ImagesEEG,001,102491,
AFNE01.JPG,AFNE01.JPG,AFNE01.JPG,AFNE01.JPG,AFNE01.JPG,AFNE01.JPG,3,3,33,1,,,,,,,,,,,,,,,,,,,,,,,AMSA18.jpg,AMNE09.jpg,AMNE02.jpg,AMSA14.jpg,AMNE02.jpg,MN,1,num_2,32,num_8,0.633486839244,,,2017_Dec_04_1738,59.9927265354,MAFE4ImagesEEG,001,102491,
AFNE01.JPG,AFNE01.JPG,AFNE01.JPG,AFNE01.JPG,AFNE01.JPG,AFNE01.JPG,3,4,34,7,,,,,,,,,,,,,,,,,,,,,,,AMNE17.jpg,AMSA14.jpg,AMNE04.jpg,AMSA16.jpg,AMSA14.jpg,MS,2,num_6,32,num_4,0.899974597385,,,2017_Dec_04_1738,59.9927265354,MAFE4ImagesEEG,001,102491,
AFNE01.JPG,AFNE01.JPG,AFNE01.JPG,AFNE01.JPG,AFNE01.JPG,AFNE01.JPG,3,5,35,0,,,,,,,,,,,,,,,,,,,,,,,AMSA03.jpg,AMSA16.jpg,AMNE10.jpg,AMNE20.jpg,AMNE20.jpg,MN,1,num_4,32,num_2,0.350144557189,,,2017_Dec_04_1738,59.9927265354,MAFE4ImagesEEG,001,102491,
AFNE01.JPG,AFNE01.JPG,AFNE01.JPG,AFNE01.JPG,AFNE01.JPG,AFNE01.JPG,3,6,36,6,,,,,,,,,,,,,,,,,,,,,,,AMNE03.jpg,AMSA14.jpg,AMNE04.jpg,AMSA16.jpg,AMSA16.jpg,MS,2,num_4,32,num_8,0.283447805326,,,2017_Dec_04_1738,59.9927265354,MAFE4ImagesEEG,001,102491,
AFNE01.JPG,AFNE01.JPG,AFNE01.JPG,AFNE01.JPG,AFNE01.JPG,AFNE01.JPG,3,7,37,3,,,,,,,,,,,,,,,,,,,,,,,AMSA17.jpg,AMNE10.jpg,AMSA18.jpg,AMNE14.jpg,AMSA17.jpg,MS,2,num_8,32,num_4,0.666744606337,,,2017_Dec_04_1738,59.9927265354,MAFE4ImagesEEG,001,102491,
AFNE01.JPG,AFNE01.JPG,AFNE01.JPG,AFNE01.JPG,AFNE01.JPG,AFNE01.JPG,3,8,38,9,,,,,,,,,,,,,,,,,,,,,,,AMNE15.jpg,AMSA19.jpg,AMNE08.jpg,AMSA11.jpg,AMSA19.jpg,MS,2,num_6,32,num_2,0.516824694816,,,2017_Dec_04_1738,59.9927265354,MAFE4ImagesEEG,001,102491,
AFNE01.JPG,AFNE01.JPG,AFNE01.JPG,AFNE01.JPG,AFNE01.JPG,AFNE01.JPG,3,9,39,8,,,,,,,,,,,,,,,,,,,,,,,AMSA06.jpg,AMNE19.jpg,AMSA01.jpg,AMNE09.jpg,AMSA06.jpg,MS,2,num_8,16,num_8,0.866775846342,,,2017_Dec_04_1738,59.9927265354,MAFE4ImagesEEG,001,102491,
AFNE01.JPG,AFNE01.JPG,AFNE01.JPG,AFNE01.JPG,AFNE01.JPG,AFNE01.JPG,4,0,40,1,,,,,,,,,,,,,,,,,,,,,,,AMSA19.jpg,AMSA02.jpg,AMNE11.jpg,AMNE18.jpg,AMNE11.jpg,MN,1,num_2,32,num_8,0.400143626845,,,2017_Dec_04_1738,59.9927265354,MAFE4ImagesEEG,001,102491,
AFNE01.JPG,AFNE01.JPG,AFNE01.JPG,AFNE01.JPG,AFNE01.JPG,AFNE01.JPG,4,1,41,6,,,,,,,,,,,,,,,,,,,,,,,AMNE10.jpg,AMSA14.jpg,AMSA19.jpg,AMNE09.jpg,AMNE09.jpg,MN,1,num_4,16,num_4,0.533440909348,,,2017_Dec_04_1738,59.9927265354,MAFE4ImagesEEG,001,102491,
AFNE01.JPG,AFNE01.JPG,AFNE01.JPG,AFNE01.JPG,AFNE01.JPG,AFNE01.JPG,4,2,42,9,,,,,,,,,,,,,,,,,,,,,,,AMSA05.jpg,AMNE17.jpg,AMNE10.jpg,AMSA13.jpg,AMNE10.jpg,MN,1,num_2,32,num_8,0.616800061893,,,2017_Dec_04_1738,59.9927265354,MAFE4ImagesEEG,001,102491,
AFNE01.JPG,AFNE01.JPG,AFNE01.JPG,AFNE01.JPG,AFNE01.JPG,AFNE01.JPG,4,3,43,5,,,,,,,,,,,,,,,,,,,,,,,AMSA06.jpg,AMSA17.jpg,AMNE13.jpg,AMNE14.jpg,AMSA17.jpg,MS,2,num_6,32,num_8,1.08341624448,,,2017_Dec_04_1738,59.9927265354,MAFE4ImagesEEG,001,102491,
AFNE01.JPG,AFNE01.JPG,AFNE01.JPG,AFNE01.JPG,AFNE01.JPG,AFNE01.JPG,4,4,44,3,,,,,,,,,,,,,,,,,,,,,,,AMSA13.jpg,AMNE11.jpg,AMSA05.jpg,AMNE12.jpg,AMSA13.jpg,MS,2,num_8,32,num_2,0.533472662326,,,2017_Dec_04_1738,59.9927265354,MAFE4ImagesEEG,001,102491,
AFNE01.JPG,AFNE01.JPG,AFNE01.JPG,AFNE01.JPG,AFNE01.JPG,AFNE01.JPG,4,5,45,0,,,,,,,,,,,,,,,,,,,,,,,AMSA12.jpg,AMSA06.jpg,AMNE09.jpg,AMNE15.jpg,AMNE09.jpg,MN,1,num_2,32,num_8,0.800142600667,,,2017_Dec_04_1738,59.9927265354,MAFE4ImagesEEG,001,102491,
AFNE01.JPG,AFNE01.JPG,AFNE01.JPG,AFNE01.JPG,AFNE01.JPG,AFNE01.JPG,4,6,46,7,,,,,,,,,,,,,,,,,,,,,,,AMSA19.jpg,AMNE06.jpg,AMNE05.jpg,AMSA10.jpg,AMSA19.jpg,MS,2,num_8,32,num_6,0.766734406818,,,2017_Dec_04_1738,59.9927265354,MAFE4ImagesEEG,001,102491,
AFNE01.JPG,AFNE01.JPG,AFNE01.JPG,AFNE01.JPG,AFNE01.JPG,AFNE01.JPG,4,7,47,4,,,,,,,,,,,,,,,,,,,,,,,AMSA08.jpg,AMNE13.jpg,AMSA18.jpg,AMNE14.jpg,AMNE13.jpg,MN,1,num_6,32,num_8,0.666789188981,,,2017_Dec_04_1738,59.9927265354,MAFE4ImagesEEG,001,102491,
AFNE01.JPG,AFNE01.JPG,AFNE01.JPG,AFNE01.JPG,AFNE01.JPG,AFNE01.JPG,4,8,48,2,,,,,,,,,,,,,,,,,,,,,,,AMSA08.jpg,AMNE07.jpg,AMSA17.jpg,AMNE11.jpg,AMSA08.jpg,MS,2,num_8,32,num_4,1.63347304729,,,2017_Dec_04_1738,59.9927265354,MAFE4ImagesEEG,001,102491,
AFNE01.JPG,AFNE01.JPG,AFNE01.JPG,AFNE01.JPG,AFNE01.JPG,AFNE01.JPG,4,9,49,8,,,,,,,,,,,,,,,,,,,,,,,AMNE16.jpg,AMNE01.jpg,AMSA11.jpg,AMSA18.jpg,AMNE16.jpg,MN,1,num_8,16,num_8,0.66675711493,,,2017_Dec_04_1738,59.9927265354,MAFE4ImagesEEG,001,102491,
AFNE01.JPG,AFNE01.JPG,AFNE01.JPG,AFNE01.JPG,AFNE01.JPG,AFNE01.JPG,5,0,50,5,,,,,,,,,,,,,,,,,,,,,,,AMNE08.jpg,AMNE07.jpg,AMSA17.jpg,AMSA19.jpg,AMSA19.jpg,MS,2,num_4,32,num_6,0.750208961545,,,2017_Dec_04_1738,59.9927265354,MAFE4ImagesEEG,001,102491,
AFNE01.JPG,AFNE01.JPG,AFNE01.JPG,AFNE01.JPG,AFNE01.JPG,AFNE01.JPG,5,1,51,0,,,,,,,,,,,,,,,,,,,,,,,AMSA11.jpg,AMNE09.jpg,AMNE03.jpg,AMSA14.jpg,AMSA11.jpg,MS,2,num_8,16,num_8,0.666812602896,,,2017_Dec_04_1738,59.9927265354,MAFE4ImagesEEG,001,102491,
AFNE01.JPG,AFNE01.JPG,AFNE01.JPG,AFNE01.JPG,AFNE01.JPG,AFNE01.JPG,5,2,52,3,,,,,,,,,,,,,,,,,,,,,,,AMNE16.jpg,AMSA08.jpg,AMNE12.jpg,AMSA04.jpg,AMSA08.jpg,MS,2,num_6,16,num_6,0.700088973157,,,2017_Dec_04_1738,59.9927265354,MAFE4ImagesEEG,001,102491,
AFNE01.JPG,AFNE01.JPG,AFNE01.JPG,AFNE01.JPG,AFNE01.JPG,AFNE01.JPG,5,3,53,4,,,,,,,,,,,,,,,,,,,,,,,AMNE11.jpg,AMSA13.jpg,AMSA10.jpg,AMNE09.jpg,AMSA10.jpg,MS,2,num_2,32,num_8,0.883426059037,,,2017_Dec_04_1738,59.9927265354,MAFE4ImagesEEG,001,102491,
AFNE01.JPG,AFNE01.JPG,AFNE01.JPG,AFNE01.JPG,AFNE01.JPG,AFNE01.JPG,5,4,54,8,,,,,,,,,,,,,,,,,,,,,,,AMNE05.jpg,AMNE15.jpg,AMSA02.jpg,AMSA19.jpg,AMSA19.jpg,MS,2,num_4,16,num_4,1.00007826043,,,2017_Dec_04_1738,59.9927265354,MAFE4ImagesEEG,001,102491,
AFNE01.JPG,AFNE01.JPG,AFNE01.JPG,AFNE01.JPG,AFNE01.JPG,AFNE01.JPG,5,5,55,9,,,,,,,,,,,,,,,,,,,,,,,AMSA09.jpg,AMNE01.jpg,AMSA01.jpg,AMNE10.jpg,AMNE01.jpg,MN,1,num_6,32,num_2,0.892320156563,,,2017_Dec_04_1738,59.9927265354,MAFE4ImagesEEG,001,102491,
AFNE01.JPG,AFNE01.JPG,AFNE01.JPG,AFNE01.JPG,AFNE01.JPG,AFNE01.JPG,5,6,56,1,,,,,,,,,,,,,,,,,,,,,,,AMNE14.jpg,AMSA08.jpg,AMNE11.jpg,AMSA04.jpg,AMNE14.jpg,MN,1,num_8,16,num_8,0.450154884951,,,2017_Dec_04_1738,59.9927265354,MAFE4ImagesEEG,001,102491,
AFNE01.JPG,AFNE01.JPG,AFNE01.JPG,AFNE01.JPG,AFNE01.JPG,AFNE01.JPG,5,7,57,7,,,,,,,,,,,,,,,,,,,,,,,AMSA16.jpg,AMNE16.jpg,AMSA02.jpg,AMNE11.jpg,AMNE11.jpg,MN,1,num_4,32,num_2,0.450157130137,,,2017_Dec_04_1738,59.9927265354,MAFE4ImagesEEG,001,102491,
AFNE01.JPG,AFNE01.JPG,AFNE01.JPG,AFNE01.JPG,AFNE01.JPG,AFNE01.JPG,5,8,58,6,,,,,,,,,,,,,,,,,,,,,,,AMNE07.jpg,AMSA09.jpg,AMSA19.jpg,AMNE17.jpg,AMSA09.jpg,MS,2,num_6,16,num_6,0.26680208277,,,2017_Dec_04_1738,59.9927265354,MAFE4ImagesEEG,001,102491,
AFNE01.JPG,AFNE01.JPG,AFNE01.JPG,AFNE01.JPG,AFNE01.JPG,AFNE01.JPG,5,9,59,2,,,,,,,,,,,,,,,,,,,,,,,AMSA02.jpg,AMNE14.jpg,AMSA11.jpg,AMNE09.jpg,AMNE09.jpg,MN,1,num_4,32,num_8,0.500149464468,,,2017_Dec_04_1738,59.9927265354,MAFE4ImagesEEG,001,102491,
,,,,,,,,,,,,,,,,,,,,,,,,,,,,,,,,,,,,,,,,,,,space,16.6156733052,2017_Dec_04_1738,59.9927265354,MAFE4ImagesEEG,001,102491,
AFNE01.JPG,AFNE01.JPG,AFNE01.JPG,AFNE01.JPG,AFNE01.JPG,AFNE01.JPG,,,,,0,0,0,6,,,,,,,,,,,,,,,,,,,AFNE01.jpg,AFSA02.jpg,AFSA05.jpg,AFNE18.jpg,AFNE18.jpg,FN,3,num_4,32,num_8,0.633455086034,,,2017_Dec_04_1738,59.9927265354,MAFE4ImagesEEG,001,102491,
AFNE01.JPG,AFNE01.JPG,AFNE01.JPG,AFNE01.JPG,AFNE01.JPG,AFNE01.JPG,,,,,0,1,1,8,,,,,,,,,,,,,,,,,,,AFSA19.jpg,AFNE12.jpg,AFSA20.jpg,AFNE15.jpg,AFSA20.jpg,FS,4,num_2,32,num_6,0.400138174416,,,2017_Dec_04_1738,59.9927265354,MAFE4ImagesEEG,001,102491,
AFNE01.JPG,AFNE01.JPG,AFNE01.JPG,AFNE01.JPG,AFNE01.JPG,AFNE01.JPG,,,,,0,2,2,4,,,,,,,,,,,,,,,,,,,AFNE12.jpg,AFNE10.jpg,AFSA07.jpg,AFSA13.jpg,AFNE10.jpg,FN,3,num_6,16,num_6,0.46679996606,,,2017_Dec_04_1738,59.9927265354,MAFE4ImagesEEG,001,102491,
AFNE01.JPG,AFNE01.JPG,AFNE01.JPG,AFNE01.JPG,AFNE01.JPG,AFNE01.JPG,,,,,0,3,3,5,,,,,,,,,,,,,,,,,,,AFNE08.jpg,AFNE09.jpg,AFSA17.jpg,AFSA16.jpg,AFSA16.jpg,FS,4,num_4,16,num_4,0.483554418897,,,2017_Dec_04_1738,59.9927265354,MAFE4ImagesEEG,001,102491,
AFNE01.JPG,AFNE01.JPG,AFNE01.JPG,AFNE01.JPG,AFNE01.JPG,AFNE01.JPG,,,,,0,4,4,2,,,,,,,,,,,,,,,,,,,AFSA03.jpg,AFNE06.jpg,AFNE19.jpg,AFSA18.jpg,AFNE06.jpg,FN,3,num_6,32,num_8,0.933415827341,,,2017_Dec_04_1738,59.9927265354,MAFE4ImagesEEG,001,102491,
AFNE01.JPG,AFNE01.JPG,AFNE01.JPG,AFNE01.JPG,AFNE01.JPG,AFNE01.JPG,,,,,0,5,5,3,,,,,,,,,,,,,,,,,,,AFNE04.jpg,AFSA18.jpg,AFSA10.jpg,AFNE12.jpg,AFNE12.jpg,FN,3,num_4,16,num_4,0.733472469961,,,2017_Dec_04_1738,59.9927265354,MAFE4ImagesEEG,001,102491,
AFNE01.JPG,AFNE01.JPG,AFNE01.JPG,AFNE01.JPG,AFNE01.JPG,AFNE01.JPG,,,,,0,6,6,0,,,,,,,,,,,,,,,,,,,AFNE11.jpg,AFSA18.jpg,AFSA03.jpg,AFNE08.jpg,AFSA18.jpg,FS,4,num_6,16,num_6,0.833453931147,,,2017_Dec_04_1738,59.9927265354,MAFE4ImagesEEG,001,102491,
AFNE01.JPG,AFNE01.JPG,AFNE01.JPG,AFNE01.JPG,AFNE01.JPG,AFNE01.JPG,,,,,0,7,7,7,,,,,,,,,,,,,,,,,,,AFSA03.jpg,AFSA16.jpg,AFNE11.jpg,AFNE05.jpg,AFSA16.jpg,FS,4,num_6,16,num_6,0.766778348247,,,2017_Dec_04_1738,59.9927265354,MAFE4ImagesEEG,001,102491,
AFNE01.JPG,AFNE01.JPG,AFNE01.JPG,AFNE01.JPG,AFNE01.JPG,AFNE01.JPG,,,,,0,8,8,1,,,,,,,,,,,,,,,,,,,AFSA05.jpg,AFNE12.jpg,AFNE02.jpg,AFSA01.jpg,AFSA01.jpg,FS,4,num_4,16,num_4,0.550131535158,,,2017_Dec_04_1738,59.9927265354,MAFE4ImagesEEG,001,102491,
AFNE01.JPG,AFNE01.JPG,AFNE01.JPG,AFNE01.JPG,AFNE01.JPG,AFNE01.JPG,,,,,0,9,9,9,,,,,,,,,,,,,,,,,,,AFSA07.jpg,AFNE05.jpg,AFSA03.jpg,AFNE09.jpg,AFSA07.jpg,FS,4,num_8,16,num_8,0.733428528765,,,2017_Dec_04_1738,59.9927265354,MAFE4ImagesEEG,001,102491,
AFNE01.JPG,AFNE01.JPG,AFNE01.JPG,AFNE01.JPG,AFNE01.JPG,AFNE01.JPG,,,,,1,0,10,6,,,,,,,,,,,,,,,,,,,AFSA14.jpg,AFSA10.jpg,AFNE15.jpg,AFNE16.jpg,AFNE15.jpg,FN,3,num_2,32,num_8,0.600168131525,,,2017_Dec_04_1738,59.9927265354,MAFE4ImagesEEG,001,102491,
AFNE01.JPG,AFNE01.JPG,AFNE01.JPG,AFNE01.JPG,AFNE01.JPG,AFNE01.JPG,,,,,1,1,11,0,,,,,,,,,,,,,,,,,,,AFNE19.jpg,AFSA17.jpg,AFSA15.jpg,AFNE01.jpg,AFSA15.jpg,FS,4,num_2,32,num_6,0.583472694503,,,2017_Dec_04_1738,59.9927265354,MAFE4ImagesEEG,001,102491,
AFNE01.JPG,AFNE01.JPG,AFNE01.JPG,AFNE01.JPG,AFNE01.JPG,AFNE01.JPG,,,,,1,2,12,4,,,,,,,,,,,,,,,,,,,AFSA20.jpg,AFNE02.jpg,AFNE13.jpg,AFSA08.jpg,AFSA08.jpg,FS,4,num_4,32,num_8,0.800113413483,,,2017_Dec_04_1738,59.9927265354,MAFE4ImagesEEG,001,102491,
AFNE01.JPG,AFNE01.JPG,AFNE01.JPG,AFNE01.JPG,AFNE01.JPG,AFNE01.JPG,,,,,1,3,13,8,,,,,,,,,,,,,,,,,,,AFSA17.jpg,AFNE17.jpg,AFSA19.jpg,AFNE05.jpg,AFNE05.jpg,FN,3,num_4,32,num_8,0.466792588821,,,2017_Dec_04_1738,59.9927265354,MAFE4ImagesEEG,001,102491,
AFNE01.JPG,AFNE01.JPG,AFNE01.JPG,AFNE01.JPG,AFNE01.JPG,AFNE01.JPG,,,,,1,4,14,7,,,,,,,,,,,,,,,,,,,AFNE20.jpg,AFSA19.jpg,AFNE14.jpg,AFSA16.jpg,AFNE14.jpg,FN,3,num_2,32,num_8,0.56682472676,,,2017_Dec_04_1738,59.9927265354,MAFE4ImagesEEG,001,102491,
AFNE01.JPG,AFNE01.JPG,AFNE01.JPG,AFNE01.JPG,AFNE01.JPG,AFNE01.JPG,,,,,1,5,15,5,,,,,,,,,,,,,,,,,,,AFSA09.jpg,AFNE07.jpg,AFSA10.jpg,AFNE16.jpg,AFNE16.jpg,FN,3,num_4,16,num_4,0.833767614095,,,2017_Dec_04_1738,59.9927265354,MAFE4ImagesEEG,001,102491,
AFNE01.JPG,AFNE01.JPG,AFNE01.JPG,AFNE01.JPG,AFNE01.JPG,AFNE01.JPG,,,,,1,6,16,9,,,,,,,,,,,,,,,,,,,AFSA03.jpg,AFSA12.jpg,AFNE12.jpg,AFNE07.jpg,AFNE07.jpg,FN,3,num_4,32,num_8,0.683433949249,,,2017_Dec_04_1738,59.9927265354,MAFE4ImagesEEG,001,102491,
AFNE01.JPG,AFNE01.JPG,AFNE01.JPG,AFNE01.JPG,AFNE01.JPG,AFNE01.JPG,,,,,1,7,17,2,,,,,,,,,,,,,,,,,,,AFNE03.jpg,AFSA11.jpg,AFNE14.jpg,AFSA18.jpg,AFNE14.jpg,FN,3,num_2,32,num_8,0.550118705491,,,2017_Dec_04_1738,59.9927265354,MAFE4ImagesEEG,001,102491,
AFNE01.JPG,AFNE01.JPG,AFNE01.JPG,AFNE01.JPG,AFNE01.JPG,AFNE01.JPG,,,,,1,8,18,3,,,,,,,,,,,,,,,,,,,AFNE17.jpg,AFSA08.jpg,AFSA17.jpg,AFNE14.jpg,AFNE17.jpg,FN,3,num_8,32,num_6,0.900162550621,,,2017_Dec_04_1738,59.9927265354,MAFE4ImagesEEG,001,102491,
AFNE01.JPG,AFNE01.JPG,AFNE01.JPG,AFNE01.JPG,AFNE01.JPG,AFNE01.JPG,,,,,1,9,19,1,,,,,,,,,,,,,,,,,,,AFNE13.jpg,AFSA19.jpg,AFSA09.jpg,AFNE01.jpg,AFNE01.jpg,FN,3,num_4,32,num_6,0.700164988171,,,2017_Dec_04_1738,59.9927265354,MAFE4ImagesEEG,001,102491,
AFNE01.JPG,AFNE01.JPG,AFNE01.JPG,AFNE01.JPG,AFNE01.JPG,AFNE01.JPG,,,,,2,0,20,2,,,,,,,,,,,,,,,,,,,AFNE02.jpg,AFNE16.jpg,AFSA06.jpg,AFSA12.jpg,AFSA12.jpg,FS,4,num_4,16,num_4,0.866637607804,,,2017_Dec_04_1738,59.9927265354,MAFE4ImagesEEG,001,102491,
AFNE01.JPG,AFNE01.JPG,AFNE01.JPG,AFNE01.JPG,AFNE01.JPG,AFNE01.JPG,,,,,2,1,21,4,,,,,,,,,,,,,,,,,,,AFSA11.jpg,AFSA04.jpg,AFNE18.jpg,AFNE20.jpg,AFSA04.jpg,FS,4,num_6,16,num_6,0.600162358256,,,2017_Dec_04_1738,59.9927265354,MAFE4ImagesEEG,001,102491,
AFNE01.JPG,AFNE01.JPG,AFNE01.JPG,AFNE01.JPG,AFNE01.JPG,AFNE01.JPG,,,,,2,2,22,5,,,,,,,,,,,,,,,,,,,AFNE07.jpg,AFSA15.jpg,AFSA06.jpg,AFNE09.jpg,AFNE07.jpg,FN,3,num_8,32,num_6,0.333473496372,,,2017_Dec_04_1738,59.9927265354,MAFE4ImagesEEG,001,102491,
AFNE01.JPG,AFNE01.JPG,AFNE01.JPG,AFNE01.JPG,AFNE01.JPG,AFNE01.JPG,,,,,2,3,23,7,,,,,,,,,,,,,,,,,,,AFSA14.jpg,AFNE01.jpg,AFNE16.jpg,AFSA02.jpg,AFNE16.jpg,FN,3,num_2,16,num_2,0.950134678511,,,2017_Dec_04_1738,59.9927265354,MAFE4ImagesEEG,001,102491,
AFNE01.JPG,AFNE01.JPG,AFNE01.JPG,AFNE01.JPG,AFNE01.JPG,AFNE01.JPG,,,,,2,4,24,3,,,,,,,,,,,,,,,,,,,AFSA09.jpg,AFNE13.jpg,AFNE08.jpg,AFSA10.jpg,AFNE08.jpg,FN,3,num_2,32,num_4,0.799826351693,,,2017_Dec_04_1738,59.9927265354,MAFE4ImagesEEG,001,102491,
AFNE01.JPG,AFNE01.JPG,AFNE01.JPG,AFNE01.JPG,AFNE01.JPG,AFNE01.JPG,,,,,2,5,25,9,,,,,,,,,,,,,,,,,,,AFNE13.jpg,AFSA11.jpg,AFSA06.jpg,AFNE17.jpg,AFSA11.jpg,FS,4,num_6,16,num_6,0.633463425096,,,2017_Dec_04_1738,59.9927265354,MAFE4ImagesEEG,001,102491,
AFNE01.JPG,AFNE01.JPG,AFNE01.JPG,AFNE01.JPG,AFNE01.JPG,AFNE01.JPG,,,,,2,6,26,1,,,,,,,,,,,,,,,,,,,AFSA03.jpg,AFNE13.jpg,AFNE12.jpg,AFSA04.jpg,AFSA03.jpg,FS,4,num_8,32,num_6,0.366801505443,,,2017_Dec_04_1738,59.9927265354,MAFE4ImagesEEG,001,102491,
AFNE01.JPG,AFNE01.JPG,AFNE01.JPG,AFNE01.JPG,AFNE01.JPG,AFNE01.JPG,,,,,2,7,27,8,,,,,,,,,,,,,,,,,,,AFSA08.jpg,AFSA12.jpg,AFNE14.jpg,AFNE05.jpg,AFNE14.jpg,FN,3,num_2,32,num_8,0.283479558304,,,2017_Dec_04_1738,59.9927265354,MAFE4ImagesEEG,001,102491,
AFNE01.JPG,AFNE01.JPG,AFNE01.JPG,AFNE01.JPG,AFNE01.JPG,AFNE01.JPG,,,,,2,8,28,6,,,,,,,,,,,,,,,,,,,AFNE13.jpg,AFNE01.jpg,AFSA08.jpg,AFSA04.jpg,AFNE01.jpg,FN,3,num_6,32,num_2,0.666764492169,,,2017_Dec_04_1738,59.9927265354,MAFE4ImagesEEG,001,102491,
AFNE01.JPG,AFNE01.JPG,AFNE01.JPG,AFNE01.JPG,AFNE01.JPG,AFNE01.JPG,,,,,2,9,29,0,,,,,,,,,,,,,,,,,,,AFSA17.jpg,AFNE04.jpg,AFSA16.jpg,AFNE20.jpg,AFNE20.jpg,FN,3,num_4,32,num_8,0.28356166766,,,2017_Dec_04_1738,59.9927265354,MAFE4ImagesEEG,001,102491,
AFNE01.JPG,AFNE01.JPG,AFNE01.JPG,AFNE01.JPG,AFNE01.JPG,AFNE01.JPG,,,,,3,0,30,3,,,,,,,,,,,,,,,,,,,AFNE06.jpg,AFSA06.jpg,AFSA17.jpg,AFNE01.jpg,AFNE06.jpg,FN,3,num_8,32,num_6,0.200154724531,,,2017_Dec_04_1738,59.9927265354,MAFE4ImagesEEG,001,102491,
AFNE01.JPG,AFNE01.JPG,AFNE01.JPG,AFNE01.JPG,AFNE01.JPG,AFNE01.JPG,,,,,3,1,31,4,,,,,,,,,,,,,,,,,,,AFSA10.jpg,AFNE12.jpg,AFNE04.jpg,AFSA17.jpg,AFSA17.jpg,FS,4,num_4,16,num_4,0.716767731588,,,2017_Dec_04_1738,59.9927265354,MAFE4ImagesEEG,001,102491,
AFNE01.JPG,AFNE01.JPG,AFNE01.JPG,AFNE01.JPG,AFNE01.JPG,AFNE01.JPG,,,,,3,2,32,7,,,,,,,,,,,,,,,,,,,AFSA04.jpg,AFNE18.jpg,AFNE06.jpg,AFSA13.jpg,AFSA13.jpg,FS,4,num_4,32,num_8,0.649998492561,,,2017_Dec_04_1738,59.9927265354,MAFE4ImagesEEG,001,102491,
AFNE01.JPG,AFNE01.JPG,AFNE01.JPG,AFNE01.JPG,AFNE01.JPG,AFNE01.JPG,,,,,3,3,33,1,,,,,,,,,,,,,,,,,,,AFNE14.jpg,AFSA20.jpg,AFNE18.jpg,AFSA09.jpg,AFSA09.jpg,FS,4,num_4,16,num_4,0.416787745664,,,2017_Dec_04_1738,59.9927265354,MAFE4ImagesEEG,001,102491,
AFNE01.JPG,AFNE01.JPG,AFNE01.JPG,AFNE01.JPG,AFNE01.JPG,AFNE01.JPG,,,,,3,4,34,5,,,,,,,,,,,,,,,,,,,AFSA05.jpg,AFNE12.jpg,AFSA07.jpg,AFNE14.jpg,AFSA07.jpg,FS,4,num_2,32,num_8,0.400154532166,,,2017_Dec_04_1738,59.9927265354,MAFE4ImagesEEG,001,102491,
AFNE01.JPG,AFNE01.JPG,AFNE01.JPG,AFNE01.JPG,AFNE01.JPG,AFNE01.JPG,,,,,3,5,35,8,,,,,,,,,,,,,,,,,,,AFSA13.jpg,AFSA02.jpg,AFNE02.jpg,AFNE18.jpg,AFSA02.jpg,FS,4,num_6,32,num_4,0.616644824389,,,2017_Dec_04_1738,59.9927265354,MAFE4ImagesEEG,001,102491,
AFNE01.JPG,AFNE01.JPG,AFNE01.JPG,AFNE01.JPG,AFNE01.JPG,AFNE01.JPG,,,,,3,6,36,6,,,,,,,,,,,,,,,,,,,AFNE16.jpg,AFSA15.jpg,AFNE06.jpg,AFSA17.jpg,AFSA15.jpg,FS,4,num_6,32,num_8,0.566781747853,,,2017_Dec_04_1738,59.9927265354,MAFE4ImagesEEG,001,102491,
AFNE01.JPG,AFNE01.JPG,AFNE01.JPG,AFNE01.JPG,AFNE01.JPG,AFNE01.JPG,,,,,3,7,37,2,,,,,,,,,,,,,,,,,,,AFSA03.jpg,AFNE08.jpg,AFSA11.jpg,AFNE10.jpg,AFNE08.jpg,FN,3,num_6,32,num_2,0.300146770198,,,2017_Dec_04_1738,59.9927265354,MAFE4ImagesEEG,001,102491,
AFNE01.JPG,AFNE01.JPG,AFNE01.JPG,AFNE01.JPG,AFNE01.JPG,AFNE01.JPG,,,,,3,8,38,9,,,,,,,,,,,,,,,,,,,AFNE12.jpg,AFSA13.jpg,AFNE14.jpg,AFSA16.jpg,AFNE12.jpg,FN,3,num_8,16,num_8,0.266833515139,,,2017_Dec_04_1738,59.9927265354,MAFE4ImagesEEG,001,102491,
AFNE01.JPG,AFNE01.JPG,AFNE01.JPG,AFNE01.JPG,AFNE01.JPG,AFNE01.JPG,,,,,3,9,39,0,,,,,,,,,,,,,,,,,,,AFSA05.jpg,AFNE19.jpg,AFSA09.jpg,AFNE18.jpg,AFNE18.jpg,FN,3,num_4,32,num_6,0.250210565282,,,2017_Dec_04_1738,59.9927265354,MAFE4ImagesEEG,001,102491,
AFNE01.JPG,AFNE01.JPG,AFNE01.JPG,AFNE01.JPG,AFNE01.JPG,AFNE01.JPG,,,,,4,0,40,1,,,,,,,,,,,,,,,,,,,AFSA19.jpg,AFNE01.jpg,AFNE20.jpg,AFSA07.jpg,AFNE20.jpg,FN,3,num_2,32,num_4,0.750394990435,,,2017_Dec_04_1738,59.9927265354,MAFE4ImagesEEG,001,102491,
AFNE01.JPG,AFNE01.JPG,AFNE01.JPG,AFNE01.JPG,AFNE01.JPG,AFNE01.JPG,,,,,4,1,41,6,,,,,,,,,,,,,,,,,,,AFNE19.jpg,AFSA05.jpg,AFNE06.jpg,AFSA08.jpg,AFSA08.jpg,FS,4,num_4,32,num_8,1.15008733724,,,2017_Dec_04_1738,59.9927265354,MAFE4ImagesEEG,001,102491,
AFNE01.JPG,AFNE01.JPG,AFNE01.JPG,AFNE01.JPG,AFNE01.JPG,AFNE01.JPG,,,,,4,2,42,7,,,,,,,,,,,,,,,,,,,AFNE15.jpg,AFNE20.jpg,AFSA15.jpg,AFSA07.jpg,AFNE15.jpg,FN,3,num_8,32,num_6,0.666777000995,,,2017_Dec_04_1738,59.9927265354,MAFE4ImagesEEG,001,102491,
AFNE01.JPG,AFNE01.JPG,AFNE01.JPG,AFNE01.JPG,AFNE01.JPG,AFNE01.JPG,,,,,4,3,43,9,,,,,,,,,,,,,,,,,,,AFNE20.jpg,AFNE03.jpg,AFSA04.jpg,AFSA12.jpg,AFNE03.jpg,FN,3,num_6,32,num_4,0.566786238225,,,2017_Dec_04_1738,59.9927265354,MAFE4ImagesEEG,001,102491,
AFNE01.JPG,AFNE01.JPG,AFNE01.JPG,AFNE01.JPG,AFNE01.JPG,AFNE01.JPG,,,,,4,4,44,0,,,,,,,,,,,,,,,,,,,AFNE07.jpg,AFSA10.jpg,AFNE02.jpg,AFSA08.jpg,AFSA10.jpg,FS,4,num_6,32,num_8,0.450180864893,,,2017_Dec_04_1738,59.9927265354,MAFE4ImagesEEG,001,102491,
AFNE01.JPG,AFNE01.JPG,AFNE01.JPG,AFNE01.JPG,AFNE01.JPG,AFNE01.JPG,,,,,4,5,45,4,,,,,,,,,,,,,,,,,,,AFNE18.jpg,AFNE12.jpg,AFSA04.jpg,AFSA16.jpg,AFSA16.jpg,FS,4,num_4,16,num_4,0.583353058668,,,2017_Dec_04_1738,59.9927265354,MAFE4ImagesEEG,001,102491,
AFNE01.JPG,AFNE01.JPG,AFNE01.JPG,AFNE01.JPG,AFNE01.JPG,AFNE01.JPG,,,,,4,6,46,2,,,,,,,,,,,,,,,,,,,AFSA03.jpg,AFNE07.jpg,AFSA15.jpg,AFNE18.jpg,AFSA15.jpg,FS,4,num_2,16,num_2,0.966761797899,,,2017_Dec_04_1738,59.9927265354,MAFE4ImagesEEG,001,102491,
AFNE01.JPG,AFNE01.JPG,AFNE01.JPG,AFNE01.JPG,AFNE01.JPG,AFNE01.JPG,,,,,4,7,47,8,,,,,,,,,,,,,,,,,,,AFNE17.jpg,AFSA13.jpg,AFNE11.jpg,AFSA05.jpg,AFNE17.jpg,FN,3,num_8,32,num_4,0.800097376341,,,2017_Dec_04_1738,59.9927265354,MAFE4ImagesEEG,001,102491,
AFNE01.JPG,AFNE01.JPG,AFNE01.JPG,AFNE01.JPG,AFNE01.JPG,AFNE01.JPG,,,,,4,8,48,5,,,,,,,,,,,,,,,,,,,AFNE08.jpg,AFSA06.jpg,AFNE01.jpg,AFSA17.jpg,AFNE01.jpg,FN,3,num_2,32,num_8,1.26669880468,,,2017_Dec_04_1738,59.9927265354,MAFE4ImagesEEG,001,102491,
AFNE01.JPG,AFNE01.JPG,AFNE01.JPG,AFNE01.JPG,AFNE01.JPG,AFNE01.JPG,,,,,4,9,49,3,,,,,,,,,,,,,,,,,,,AFSA01.jpg,AFNE01.jpg,AFNE13.jpg,AFSA19.jpg,AFSA19.jpg,FS,4,num_4,16,num_4,0.766776102828,,,2017_Dec_04_1738,59.9927265354,MAFE4ImagesEEG,001,102491,
AFNE01.JPG,AFNE01.JPG,AFNE01.JPG,AFNE01.JPG,AFNE01.JPG,AFNE01.JPG,,,,,5,0,50,4,,,,,,,,,,,,,,,,,,,AFSA01.jpg,AFSA08.jpg,AFNE16.jpg,AFNE06.jpg,AFNE06.jpg,FN,3,num_4,32,num_2,1.10009243689,,,2017_Dec_04_1738,59.9927265354,MAFE4ImagesEEG,001,102491,
AFNE01.JPG,AFNE01.JPG,AFNE01.JPG,AFNE01.JPG,AFNE01.JPG,AFNE01.JPG,,,,,5,1,51,3,,,,,,,,,,,,,,,,,,,AFNE13.jpg,AFNE01.jpg,AFSA03.jpg,AFSA16.jpg,AFSA16.jpg,FS,4,num_4,32,num_2,0.766784442123,,,2017_Dec_04_1738,59.9927265354,MAFE4ImagesEEG,001,102491,
AFNE01.JPG,AFNE01.JPG,AFNE01.JPG,AFNE01.JPG,AFNE01.JPG,AFNE01.JPG,,,,,5,2,52,2,,,,,,,,,,,,,,,,,,,AFSA17.jpg,AFSA06.jpg,AFNE18.jpg,AFNE03.jpg,AFSA17.jpg,FS,4,num_8,16,num_8,0.716777674621,,,2017_Dec_04_1738,59.9927265354,MAFE4ImagesEEG,001,102491,
AFNE01.JPG,AFNE01.JPG,AFNE01.JPG,AFNE01.JPG,AFNE01.JPG,AFNE01.JPG,,,,,5,3,53,8,,,,,,,,,,,,,,,,,,,AFSA01.jpg,AFNE13.jpg,AFSA08.jpg,AFNE11.jpg,AFNE11.jpg,FN,3,num_4,32,num_8,0.516793583287,,,2017_Dec_04_1738,59.9927265354,MAFE4ImagesEEG,001,102491,
AFNE01.JPG,AFNE01.JPG,AFNE01.JPG,AFNE01.JPG,AFNE01.JPG,AFNE01.JPG,,,,,5,4,54,5,,,,,,,,,,,,,,,,,,,AFNE07.jpg,AFNE06.jpg,AFSA09.jpg,AFSA05.jpg,AFSA09.jpg,FS,4,num_2,16,num_2,0.700081596151,,,2017_Dec_04_1738,59.9927265354,MAFE4ImagesEEG,001,102491,
AFNE01.JPG,AFNE01.JPG,AFNE01.JPG,AFNE01.JPG,AFNE01.JPG,AFNE01.JPG,,,,,5,5,55,7,,,,,,,,,,,,,,,,,,,AFSA19.jpg,AFNE09.jpg,AFNE07.jpg,AFSA08.jpg,AFNE09.jpg,FN,3,num_6,16,num_6,0.600129642757,,,2017_Dec_04_1738,59.9927265354,MAFE4ImagesEEG,001,102491,
AFNE01.JPG,AFNE01.JPG,AFNE01.JPG,AFNE01.JPG,AFNE01.JPG,AFNE01.JPG,,,,,5,6,56,1,,,,,,,,,,,,,,,,,,,AFNE20.jpg,AFNE08.jpg,AFSA04.jpg,AFSA11.jpg,AFSA04.jpg,FS,4,num_2,16,num_2,0.333445912926,,,2017_Dec_04_1738,59.9927265354,MAFE4ImagesEEG,001,102491,
AFNE01.JPG,AFNE01.JPG,AFNE01.JPG,AFNE01.JPG,AFNE01.JPG,AFNE01.JPG,,,,,5,7,57,0,,,,,,,,,,,,,,,,,,,AFNE07.jpg,AFSA09.jpg,AFNE03.jpg,AFSA08.jpg,AFNE07.jpg,FN,3,num_8,32,num_6,0.283485010965,,,2017_Dec_04_1738,59.9927265354,MAFE4ImagesEEG,001,102491,
AFNE01.JPG,AFNE01.JPG,AFNE01.JPG,AFNE01.JPG,AFNE01.JPG,AFNE01.JPG,,,,,5,8,58,9,,,,,,,,,,,,,,,,,,,AFSA10.jpg,AFSA03.jpg,AFNE06.jpg,AFNE18.jpg,AFSA10.jpg,FS,4,num_8,16,num_8,0.733469583327,,,2017_Dec_04_1738,59.9927265354,MAFE4ImagesEEG,001,102491,
AFNE01.JPG,AFNE01.JPG,AFNE01.JPG,AFNE01.JPG,AFNE01.JPG,AFNE01.JPG,,,,,5,9,59,6,,,,,,,,,,,,,,,,,,,AFSA13.jpg,AFNE09.jpg,AFNE13.jpg,AFSA04.jpg,AFSA13.jpg,FS,4,num_8,32,num_2,0.98344665044,,,2017_Dec_04_1738,59.9927265354,MAFE4ImagesEEG,001,102491,
,,,,,,,,,,,,,,,,,,,,,,,,,,,,,,,,,,,,,,,,,,,space,3.28332656575,2017_Dec_04_1738,59.9927265354,MAFE4ImagesEEG,001,102491,
AFNE01.JPG,AFNE01.JPG,AFNE01.JPG,AFNE01.JPG,AFNE01.JPG,AFNE01.JPG,,,,,,,,,0,0,0,5,,,,,,,,,,,,,,,AMSA17.jpg,AMNE06.jpg,AMSA08.jpg,AMNE10.jpg,AMNE10.jpg,MN,1,num_4,32,num_6,0.650178106502,,,2017_Dec_04_1738,59.9927265354,MAFE4ImagesEEG,001,102491,
AFNE01.JPG,AFNE01.JPG,AFNE01.JPG,AFNE01.JPG,AFNE01.JPG,AFNE01.JPG,,,,,,,,,0,1,1,0,,,,,,,,,,,,,,,AMNE02.jpg,AMSA08.jpg,AMNE18.jpg,AMSA01.jpg,AMNE18.jpg,MN,1,num_2,32,num_8,0.566876366036,,,2017_Dec_04_1738,59.9927265354,MAFE4ImagesEEG,001,102491,
AFNE01.JPG,AFNE01.JPG,AFNE01.JPG,AFNE01.JPG,AFNE01.JPG,AFNE01.JPG,,,,,,,,,0,2,2,1,,,,,,,,,,,,,,,AMNE16.jpg,AMNE09.jpg,AMSA11.jpg,AMSA15.jpg,AMSA15.jpg,MS,2,num_4,32,num_2,0.333503004396,,,2017_Dec_04_1738,59.9927265354,MAFE4ImagesEEG,001,102491,
AFNE01.JPG,AFNE01.JPG,AFNE01.JPG,AFNE01.JPG,AFNE01.JPG,AFNE01.JPG,,,,,,,,,0,3,3,6,,,,,,,,,,,,,,,AMNE15.jpg,AMSA15.jpg,AMSA02.jpg,AMNE04.jpg,AMNE04.jpg,MN,1,num_4,32,num_2,1.00017255754,,,2017_Dec_04_1738,59.9927265354,MAFE4ImagesEEG,001,102491,
AFNE01.JPG,AFNE01.JPG,AFNE01.JPG,AFNE01.JPG,AFNE01.JPG,AFNE01.JPG,,,,,,,,,0,4,4,7,,,,,,,,,,,,,,,AMSA04.jpg,AMNE17.jpg,AMNE03.jpg,AMSA07.jpg,AMSA07.jpg,MS,2,num_4,32,num_6,0.750158284791,,,2017_Dec_04_1738,59.9927265354,MAFE4ImagesEEG,001,102491,
AFNE01.JPG,AFNE01.JPG,AFNE01.JPG,AFNE01.JPG,AFNE01.JPG,AFNE01.JPG,,,,,,,,,0,5,5,9,,,,,,,,,,,,,,,AMSA08.jpg,AMSA17.jpg,AMNE08.jpg,AMNE05.jpg,AMSA17.jpg,MS,2,num_6,16,num_6,0.933487993665,,,2017_Dec_04_1738,59.9927265354,MAFE4ImagesEEG,001,102491,
AFNE01.JPG,AFNE01.JPG,AFNE01.JPG,AFNE01.JPG,AFNE01.JPG,AFNE01.JPG,,,,,,,,,0,6,6,4,,,,,,,,,,,,,,,AMNE09.jpg,AMSA16.jpg,AMSA09.jpg,AMNE13.jpg,AMSA09.jpg,MS,2,num_2,16,num_2,0.800135223661,,,2017_Dec_04_1738,59.9927265354,MAFE4ImagesEEG,001,102491,
AFNE01.JPG,AFNE01.JPG,AFNE01.JPG,AFNE01.JPG,AFNE01.JPG,AFNE01.JPG,,,,,,,,,0,7,7,8,,,,,,,,,,,,,,,AMSA15.jpg,AMNE05.jpg,AMSA14.jpg,AMNE20.jpg,AMNE20.jpg,MN,1,num_4,32,num_6,0.883433436044,,,2017_Dec_04_1738,59.9927265354,MAFE4ImagesEEG,001,102491,
AFNE01.JPG,AFNE01.JPG,AFNE01.JPG,AFNE01.JPG,AFNE01.JPG,AFNE01.JPG,,,,,,,,,0,8,8,3,,,,,,,,,,,,,,,AMNE12.jpg,AMSA06.jpg,AMSA03.jpg,AMNE20.jpg,AMNE20.jpg,MN,1,num_4,16,num_4,0.600096606649,,,2017_Dec_04_1738,59.9927265354,MAFE4ImagesEEG,001,102491,
AFNE01.JPG,AFNE01.JPG,AFNE01.JPG,AFNE01.JPG,AFNE01.JPG,AFNE01.JPG,,,,,,,,,0,9,9,2,,,,,,,,,,,,,,,AMSA04.jpg,AMNE11.jpg,AMSA07.jpg,AMNE09.jpg,AMNE11.jpg,MN,1,num_6,32,num_2,0.633484914666,,,2017_Dec_04_1738,59.9927265354,MAFE4ImagesEEG,001,102491,
AFNE01.JPG,AFNE01.JPG,AFNE01.JPG,AFNE01.JPG,AFNE01.JPG,AFNE01.JPG,,,,,,,,,1,0,10,9,,,,,,,,,,,,,,,AMSA06.jpg,AMNE06.jpg,AMNE04.jpg,AMSA18.jpg,AMSA18.jpg,MS,2,num_4,32,num_2,0.483455631183,,,2017_Dec_04_1738,59.9927265354,MAFE4ImagesEEG,001,102491,
AFNE01.JPG,AFNE01.JPG,AFNE01.JPG,AFNE01.JPG,AFNE01.JPG,AFNE01.JPG,,,,,,,,,1,1,11,8,,,,,,,,,,,,,,,AMNE01.jpg,AMNE17.jpg,AMSA11.jpg,AMSA06.jpg,AMSA11.jpg,MS,2,num_2,32,num_8,0.466674556956,,,2017_Dec_04_1738,59.9927265354,MAFE4ImagesEEG,001,102491,
AFNE01.JPG,AFNE01.JPG,AFNE01.JPG,AFNE01.JPG,AFNE01.JPG,AFNE01.JPG,,,,,,,,,1,2,12,2,,,,,,,,,,,,,,,AMNE04.jpg,AMSA17.jpg,AMNE05.jpg,AMSA14.jpg,AMSA14.jpg,MS,2,num_4,32,num_8,0.500133748166,,,2017_Dec_04_1738,59.9927265354,MAFE4ImagesEEG,001,102491,
AFNE01.JPG,AFNE01.JPG,AFNE01.JPG,AFNE01.JPG,AFNE01.JPG,AFNE01.JPG,,,,,,,,,1,3,13,5,,,,,,,,,,,,,,,AMSA09.jpg,AMSA19.jpg,AMNE13.jpg,AMNE03.jpg,AMNE03.jpg,MN,1,num_4,16,num_4,0.41683681868,,,2017_Dec_04_1738,59.9927265354,MAFE4ImagesEEG,001,102491,
AFNE01.JPG,AFNE01.JPG,AFNE01.JPG,AFNE01.JPG,AFNE01.JPG,AFNE01.JPG,,,,,,,,,1,4,14,1,,,,,,,,,,,,,,,AMSA12.jpg,AMSA15.jpg,AMNE19.jpg,AMNE16.jpg,AMSA15.jpg,MS,2,num_6,16,num_6,0.550122875255,,,2017_Dec_04_1738,59.9927265354,MAFE4ImagesEEG,001,102491,
AFNE01.JPG,AFNE01.JPG,AFNE01.JPG,AFNE01.JPG,AFNE01.JPG,AFNE01.JPG,,,,,,,,,1,5,15,0,,,,,,,,,,,,,,,AMNE17.jpg,AMSA15.jpg,AMNE01.jpg,AMSA01.jpg,AMSA01.jpg,MS,2,num_4,32,num_2,0.650147957029,,,2017_Dec_04_1738,59.9927265354,MAFE4ImagesEEG,001,102491,
AFNE01.JPG,AFNE01.JPG,AFNE01.JPG,AFNE01.JPG,AFNE01.JPG,AFNE01.JPG,,,,,,,,,1,6,16,6,,,,,,,,,,,,,,,AMSA06.jpg,AMNE19.jpg,AMNE17.jpg,AMSA09.jpg,AMNE19.jpg,MN,1,num_6,32,num_8,0.600284559885,,,2017_Dec_04_1738,59.9927265354,MAFE4ImagesEEG,001,102491,
AFNE01.JPG,AFNE01.JPG,AFNE01.JPG,AFNE01.JPG,AFNE01.JPG,AFNE01.JPG,,,,,,,,,1,7,17,4,,,,,,,,,,,,,,,AMNE19.jpg,AMNE04.jpg,AMSA15.jpg,AMSA01.jpg,AMSA01.jpg,MS,2,num_4,16,num_4,0.516766961897,,,2017_Dec_04_1738,59.9927265354,MAFE4ImagesEEG,001,102491,
AFNE01.JPG,AFNE01.JPG,AFNE01.JPG,AFNE01.JPG,AFNE01.JPG,AFNE01.JPG,,,,,,,,,1,8,18,7,,,,,,,,,,,,,,,AMNE11.jpg,AMSA17.jpg,AMNE01.jpg,AMSA13.jpg,AMSA17.jpg,MS,2,num_6,32,num_8,0.800106998766,,,2017_Dec_04_1738,59.9927265354,MAFE4ImagesEEG,001,102491,
AFNE01.JPG,AFNE01.JPG,AFNE01.JPG,AFNE01.JPG,AFNE01.JPG,AFNE01.JPG,,,,,,,,,1,9,19,3,,,,,,,,,,,,,,,AMNE05.jpg,AMNE01.jpg,AMSA15.jpg,AMSA09.jpg,AMSA09.jpg,MS,2,num_4,32,num_2,0.866782581899,,,2017_Dec_04_1738,59.9927265354,MAFE4ImagesEEG,001,102491,
AFNE01.JPG,AFNE01.JPG,AFNE01.JPG,AFNE01.JPG,AFNE01.JPG,AFNE01.JPG,,,,,,,,,2,0,20,6,,,,,,,,,,,,,,,AMNE04.jpg,AMSA01.jpg,AMNE02.jpg,AMSA19.jpg,AMNE02.jpg,MN,1,num_2,16,num_2,1.10011104005,,,2017_Dec_04_1738,59.9927265354,MAFE4ImagesEEG,001,102491,
AFNE01.JPG,AFNE01.JPG,AFNE01.JPG,AFNE01.JPG,AFNE01.JPG,AFNE01.JPG,,,,,,,,,2,1,21,3,,,,,,,,,,,,,,,AMNE11.jpg,AMNE20.jpg,AMSA19.jpg,AMSA03.jpg,AMSA03.jpg,MS,2,num_4,32,num_8,0.550182532752,,,2017_Dec_04_1738,59.9927265354,MAFE4ImagesEEG,001,102491,
AFNE01.JPG,AFNE01.JPG,AFNE01.JPG,AFNE01.JPG,AFNE01.JPG,AFNE01.JPG,,,,,,,,,2,2,22,5,,,,,,,,,,,,,,,AMNE03.jpg,AMSA14.jpg,AMNE20.jpg,AMSA02.jpg,AMNE20.jpg,MN,1,num_2,32,num_8,0.783457748126,,,2017_Dec_04_1738,59.9927265354,MAFE4ImagesEEG,001,102491,
AFNE01.JPG,AFNE01.JPG,AFNE01.JPG,AFNE01.JPG,AFNE01.JPG,AFNE01.JPG,,,,,,,,,2,3,23,1,,,,,,,,,,,,,,,AMNE14.jpg,AMSA07.jpg,AMSA09.jpg,AMNE20.jpg,AMSA09.jpg,MS,2,num_2,16,num_2,0.883390777744,,,2017_Dec_04_1738,59.9927265354,MAFE4ImagesEEG,001,102491,
AFNE01.JPG,AFNE01.JPG,AFNE01.JPG,AFNE01.JPG,AFNE01.JPG,AFNE01.JPG,,,,,,,,,2,4,24,9,,,,,,,,,,,,,,,AMSA06.jpg,AMNE19.jpg,AMSA20.jpg,AMNE13.jpg,AMNE19.jpg,MN,1,num_6,32,num_4,0.766753009753,,,2017_Dec_04_1738,59.9927265354,MAFE4ImagesEEG,001,102491,
AFNE01.JPG,AFNE01.JPG,AFNE01.JPG,AFNE01.JPG,AFNE01.JPG,AFNE01.JPG,,,,,,,,,2,5,25,7,,,,,,,,,,,,,,,AMSA09.jpg,AMNE20.jpg,AMNE06.jpg,AMSA13.jpg,AMNE06.jpg,MN,1,num_2,16,num_2,0.783501047874,,,2017_Dec_04_1738,59.9927265354,MAFE4ImagesEEG,001,102491,
AFNE01.JPG,AFNE01.JPG,AFNE01.JPG,AFNE01.JPG,AFNE01.JPG,AFNE01.JPG,,,,,,,,,2,6,26,0,,,,,,,,,,,,,,,AMNE17.jpg,AMNE05.jpg,AMSA02.jpg,AMSA20.jpg,AMNE05.jpg,MN,1,num_6,32,num_8,0.300200654427,,,2017_Dec_04_1738,59.9927265354,MAFE4ImagesEEG,001,102491,
AFNE01.JPG,AFNE01.JPG,AFNE01.JPG,AFNE01.JPG,AFNE01.JPG,AFNE01.JPG,,,,,,,,,2,7,27,2,,,,,,,,,,,,,,,AMSA20.jpg,AMNE20.jpg,AMNE10.jpg,AMSA17.jpg,AMSA20.jpg,MS,2,num_8,16,num_8,0.583502202528,,,2017_Dec_04_1738,59.9927265354,MAFE4ImagesEEG,001,102491,
AFNE01.JPG,AFNE01.JPG,AFNE01.JPG,AFNE01.JPG,AFNE01.JPG,AFNE01.JPG,,,,,,,,,2,8,28,8,,,,,,,,,,,,,,,AMNE19.jpg,AMSA10.jpg,AMSA19.jpg,AMNE17.jpg,AMSA10.jpg,MS,2,num_6,16,num_6,0.400175380055,,,2017_Dec_04_1738,59.9927265354,MAFE4ImagesEEG,001,102491,
AFNE01.JPG,AFNE01.JPG,AFNE01.JPG,AFNE01.JPG,AFNE01.JPG,AFNE01.JPG,,,,,,,,,2,9,29,4,,,,,,,,,,,,,,,AMNE19.jpg,AMSA16.jpg,AMNE20.jpg,AMSA04.jpg,AMNE20.jpg,MN,1,num_2,16,num_2,0.633449953981,,,2017_Dec_04_1738,59.9927265354,MAFE4ImagesEEG,001,102491,
AFNE01.JPG,AFNE01.JPG,AFNE01.JPG,AFNE01.JPG,AFNE01.JPG,AFNE01.JPG,,,,,,,,,3,0,30,8,,,,,,,,,,,,,,,AMNE13.jpg,AMSA15.jpg,AMNE09.jpg,AMSA01.jpg,AMSA15.jpg,MS,2,num_6,32,num_8,1.00011739042,,,2017_Dec_04_1738,59.9927265354,MAFE4ImagesEEG,001,102491,
AFNE01.JPG,AFNE01.JPG,AFNE01.JPG,AFNE01.JPG,AFNE01.JPG,AFNE01.JPG,,,,,,,,,3,1,31,3,,,,,,,,,,,,,,,AMNE15.jpg,AMNE10.jpg,AMSA19.jpg,AMSA10.jpg,AMSA19.jpg,MS,2,num_2,16,num_2,0.566766352393,,,2017_Dec_04_1738,59.9927265354,MAFE4ImagesEEG,001,102491,
AFNE01.JPG,AFNE01.JPG,AFNE01.JPG,AFNE01.JPG,AFNE01.JPG,AFNE01.JPG,,,,,,,,,3,2,32,7,,,,,,,,,,,,,,,AMNE08.jpg,AMSA05.jpg,AMSA16.jpg,AMNE10.jpg,AMNE10.jpg,MN,1,num_4,32,num_8,0.450166431488,,,2017_Dec_04_1738,59.9927265354,MAFE4ImagesEEG,001,102491,
AFNE01.JPG,AFNE01.JPG,AFNE01.JPG,AFNE01.JPG,AFNE01.JPG,AFNE01.JPG,,,,,,,,,3,3,33,4,,,,,,,,,,,,,,,AMNE11.jpg,AMSA09.jpg,AMNE17.jpg,AMSA11.jpg,AMNE11.jpg,MN,1,num_8,32,num_6,0.666509825038,,,2017_Dec_04_1738,59.9927265354,MAFE4ImagesEEG,001,102491,
AFNE01.JPG,AFNE01.JPG,AFNE01.JPG,AFNE01.JPG,AFNE01.JPG,AFNE01.JPG,,,,,,,,,3,4,34,0,,,,,,,,,,,,,,,AMNE02.jpg,AMSA17.jpg,AMSA06.jpg,AMNE06.jpg,AMSA17.jpg,MS,2,num_6,16,num_6,0.600151453167,,,2017_Dec_04_1738,59.9927265354,MAFE4ImagesEEG,001,102491,
AFNE01.JPG,AFNE01.JPG,AFNE01.JPG,AFNE01.JPG,AFNE01.JPG,AFNE01.JPG,,,,,,,,,3,5,35,9,,,,,,,,,,,,,,,AMSA12.jpg,AMNE04.jpg,AMNE12.jpg,AMSA07.jpg,AMNE12.jpg,MN,1,num_2,16,num_2,0.783449088223,,,2017_Dec_04_1738,59.9927265354,MAFE4ImagesEEG,001,102491,
AFNE01.JPG,AFNE01.JPG,AFNE01.JPG,AFNE01.JPG,AFNE01.JPG,AFNE01.JPG,,,,,,,,,3,6,36,6,,,,,,,,,,,,,,,AMNE20.jpg,AMSA15.jpg,AMSA07.jpg,AMNE01.jpg,AMNE01.jpg,MN,1,num_4,32,num_2,0.733498129062,,,2017_Dec_04_1738,59.9927265354,MAFE4ImagesEEG,001,102491,
AFNE01.JPG,AFNE01.JPG,AFNE01.JPG,AFNE01.JPG,AFNE01.JPG,AFNE01.JPG,,,,,,,,,3,7,37,1,,,,,,,,,,,,,,,AMNE17.jpg,AMSA17.jpg,AMNE02.jpg,AMSA02.jpg,AMSA02.jpg,MS,2,num_4,32,num_8,0.666660572635,,,2017_Dec_04_1738,59.9927265354,MAFE4ImagesEEG,001,102491,
AFNE01.JPG,AFNE01.JPG,AFNE01.JPG,AFNE01.JPG,AFNE01.JPG,AFNE01.JPG,,,,,,,,,3,8,38,5,,,,,,,,,,,,,,,AMNE03.jpg,AMSA14.jpg,AMNE13.jpg,AMSA13.jpg,AMNE13.jpg,MN,1,num_2,32,num_4,0.783529272769,,,2017_Dec_04_1738,59.9927265354,MAFE4ImagesEEG,001,102491,
AFNE01.JPG,AFNE01.JPG,AFNE01.JPG,AFNE01.JPG,AFNE01.JPG,AFNE01.JPG,,,,,,,,,3,9,39,2,,,,,,,,,,,,,,,AMSA14.jpg,AMNE14.jpg,AMNE02.jpg,AMSA08.jpg,AMNE02.jpg,MN,1,num_2,16,num_2,0.933460089611,,,2017_Dec_04_1738,59.9927265354,MAFE4ImagesEEG,001,102491,
AFNE01.JPG,AFNE01.JPG,AFNE01.JPG,AFNE01.JPG,AFNE01.JPG,AFNE01.JPG,,,,,,,,,4,0,40,9,,,,,,,,,,,,,,,AMNE07.jpg,AMNE08.jpg,AMSA09.jpg,AMSA08.jpg,AMSA09.jpg,MS,2,num_2,16,num_2,0.600241260137,,,2017_Dec_04_1738,59.9927265354,MAFE4ImagesEEG,001,102491,
AFNE01.JPG,AFNE01.JPG,AFNE01.JPG,AFNE01.JPG,AFNE01.JPG,AFNE01.JPG,,,,,,,,,4,1,41,4,,,,,,,,,,,,,,,AMSA06.jpg,AMNE17.jpg,AMSA02.jpg,AMNE14.jpg,AMSA02.jpg,MS,2,num_2,32,num_8,0.666765775066,,,2017_Dec_04_1738,59.9927265354,MAFE4ImagesEEG,001,102491,
AFNE01.JPG,AFNE01.JPG,AFNE01.JPG,AFNE01.JPG,AFNE01.JPG,AFNE01.JPG,,,,,,,,,4,2,42,1,,,,,,,,,,,,,,,AMNE13.jpg,AMSA06.jpg,AMSA16.jpg,AMNE15.jpg,AMSA16.jpg,MS,2,num_2,32,num_4,0.300286291866,,,2017_Dec_04_1738,59.9927265354,MAFE4ImagesEEG,001,102491,
AFNE01.JPG,AFNE01.JPG,AFNE01.JPG,AFNE01.JPG,AFNE01.JPG,AFNE01.JPG,,,,,,,,,4,3,43,6,,,,,,,,,,,,,,,AMSA05.jpg,AMNE12.jpg,AMNE11.jpg,AMSA06.jpg,AMSA05.jpg,MS,2,num_8,32,num_4,0.650124543114,,,2017_Dec_04_1738,59.9927265354,MAFE4ImagesEEG,001,102491,
AFNE01.JPG,AFNE01.JPG,AFNE01.JPG,AFNE01.JPG,AFNE01.JPG,AFNE01.JPG,,,,,,,,,4,4,44,3,,,,,,,,,,,,,,,AMNE04.jpg,AMSA03.jpg,AMNE09.jpg,AMSA08.jpg,AMNE09.jpg,MN,1,num_2,16,num_2,1.28342503263,,,2017_Dec_04_1738,59.9927265354,MAFE4ImagesEEG,001,102491,
AFNE01.JPG,AFNE01.JPG,AFNE01.JPG,AFNE01.JPG,AFNE01.JPG,AFNE01.JPG,,,,,,,,,4,5,45,2,,,,,,,,,,,,,,,AMNE13.jpg,AMSA01.jpg,AMNE06.jpg,AMSA18.jpg,AMNE06.jpg,MN,1,num_2,32,num_8,0.600147604011,,,2017_Dec_04_1738,59.9927265354,MAFE4ImagesEEG,001,102491,
AFNE01.JPG,AFNE01.JPG,AFNE01.JPG,AFNE01.JPG,AFNE01.JPG,AFNE01.JPG,,,,,,,,,4,6,46,8,,,,,,,,,,,,,,,AMNE10.jpg,AMNE06.jpg,AMSA17.jpg,AMSA07.jpg,AMSA17.jpg,MS,2,num_2,32,num_8,0.649961607531,,,2017_Dec_04_1738,59.9927265354,MAFE4ImagesEEG,001,102491,
AFNE01.JPG,AFNE01.JPG,AFNE01.JPG,AFNE01.JPG,AFNE01.JPG,AFNE01.JPG,,,,,,,,,4,7,47,0,,,,,,,,,,,,,,,AMSA03.jpg,AMNE14.jpg,AMSA06.jpg,AMNE05.jpg,AMSA03.jpg,MS,2,num_8,32,num_2,0.650140580023,,,2017_Dec_04_1738,59.9927265354,MAFE4ImagesEEG,001,102491,
AFNE01.JPG,AFNE01.JPG,AFNE01.JPG,AFNE01.JPG,AFNE01.JPG,AFNE01.JPG,,,,,,,,,4,8,48,7,,,,,,,,,,,,,,,AMSA18.jpg,AMNE20.jpg,AMNE08.jpg,AMSA10.jpg,AMNE08.jpg,MN,1,num_2,32,num_6,0.299998588627,,,2017_Dec_04_1738,59.9927265354,MAFE4ImagesEEG,001,102491,
AFNE01.JPG,AFNE01.JPG,AFNE01.JPG,AFNE01.JPG,AFNE01.JPG,AFNE01.JPG,,,,,,,,,4,9,49,5,,,,,,,,,,,,,,,AMSA19.jpg,AMNE08.jpg,AMSA03.jpg,AMNE07.jpg,AMNE08.jpg,MN,1,num_6,32,num_8,1.2832274572,,,2017_Dec_04_1738,59.9927265354,MAFE4ImagesEEG,001,102491,
AFNE01.JPG,AFNE01.JPG,AFNE01.JPG,AFNE01.JPG,AFNE01.JPG,AFNE01.JPG,,,,,,,,,5,0,50,9,,,,,,,,,,,,,,,AMSA18.jpg,AMNE16.jpg,AMNE05.jpg,AMSA14.jpg,AMNE05.jpg,MN,1,num_2,32,num_4,0.983535815962,,,2017_Dec_04_1738,59.9927265354,MAFE4ImagesEEG,001,102491,
AFNE01.JPG,AFNE01.JPG,AFNE01.JPG,AFNE01.JPG,AFNE01.JPG,AFNE01.JPG,,,,,,,,,5,1,51,1,,,,,,,,,,,,,,,AMNE16.jpg,AMNE17.jpg,AMSA09.jpg,AMSA16.jpg,AMSA16.jpg,MS,2,num_4,32,num_6,0.200180383632,,,2017_Dec_04_1738,59.9927265354,MAFE4ImagesEEG,001,102491,
AFNE01.JPG,AFNE01.JPG,AFNE01.JPG,AFNE01.JPG,AFNE01.JPG,AFNE01.JPG,,,,,,,,,5,2,52,2,,,,,,,,,,,,,,,AMNE10.jpg,AMSA17.jpg,AMNE15.jpg,AMSA16.jpg,AMNE10.jpg,MN,1,num_8,16,num_8,0.63345733122,,,2017_Dec_04_1738,59.9927265354,MAFE4ImagesEEG,001,102491,
AFNE01.JPG,AFNE01.JPG,AFNE01.JPG,AFNE01.JPG,AFNE01.JPG,AFNE01.JPG,,,,,,,,,5,3,53,8,,,,,,,,,,,,,,,AMNE06.jpg,AMNE05.jpg,AMSA10.jpg,AMSA20.jpg,AMSA20.jpg,MS,2,num_4,16,num_4,0.88329680101,,,2017_Dec_04_1738,59.9927265354,MAFE4ImagesEEG,001,102491,
AFNE01.JPG,AFNE01.JPG,AFNE01.JPG,AFNE01.JPG,AFNE01.JPG,AFNE01.JPG,,,,,,,,,5,4,54,3,,,,,,,,,,,,,,,AMSA03.jpg,AMNE15.jpg,AMSA11.jpg,AMNE13.jpg,AMNE15.jpg,MN,1,num_6,16,num_6,0.616780176293,,,2017_Dec_04_1738,59.9927265354,MAFE4ImagesEEG,001,102491,
AFNE01.JPG,AFNE01.JPG,AFNE01.JPG,AFNE01.JPG,AFNE01.JPG,AFNE01.JPG,,,,,,,,,5,5,55,5,,,,,,,,,,,,,,,AMSA10.jpg,AMSA16.jpg,AMNE09.jpg,AMNE18.jpg,AMNE09.jpg,MN,1,num_2,16,num_2,2.75001459359,,,2017_Dec_04_1738,59.9927265354,MAFE4ImagesEEG,001,102491,
AFNE01.JPG,AFNE01.JPG,AFNE01.JPG,AFNE01.JPG,AFNE01.JPG,AFNE01.JPG,,,,,,,,,5,6,56,7,,,,,,,,,,,,,,,AMSA10.jpg,AMSA15.jpg,AMNE04.jpg,AMNE08.jpg,AMNE04.jpg,MN,1,num_2,32,num_8,0.466820813948,,,2017_Dec_04_1738,59.9927265354,MAFE4ImagesEEG,001,102491,
AFNE01.JPG,AFNE01.JPG,AFNE01.JPG,AFNE01.JPG,AFNE01.JPG,AFNE01.JPG,,,,,,,,,5,7,57,4,,,,,,,,,,,,,,,AMSA05.jpg,AMNE05.jpg,AMSA04.jpg,AMNE02.jpg,AMSA05.jpg,MS,2,num_8,32,num_2,0.400192058645,,,2017_Dec_04_1738,59.9927265354,MAFE4ImagesEEG,001,102491,
AFNE01.JPG,AFNE01.JPG,AFNE01.JPG,AFNE01.JPG,AFNE01.JPG,AFNE01.JPG,,,,,,,,,5,8,58,6,,,,,,,,,,,,,,,AMNE15.jpg,AMSA16.jpg,AMNE03.jpg,AMSA01.jpg,AMNE03.jpg,MN,1,num_2,32,num_4,0.56675127754,,,2017_Dec_04_1738,59.9927265354,MAFE4ImagesEEG,001,102491,
AFNE01.JPG,AFNE01.JPG,AFNE01.JPG,AFNE01.JPG,AFNE01.JPG,AFNE01.JPG,,,,,,,,,5,9,59,0,,,,,,,,,,,,,,,AMSA08.jpg,AMNE04.jpg,AMSA02.jpg,AMNE05.jpg,AMSA02.jpg,MS,2,num_2,32,num_6,0.53359326045,,,2017_Dec_04_1738,59.9927265354,MAFE4ImagesEEG,001,102491,
,,,,,,,,,,,,,,,,,,,,,,,,,,,,,,,,,,,,,,,,,,,space,18.6156418729,2017_Dec_04_1738,59.9927265354,MAFE4ImagesEEG,001,102491,
AFNE01.JPG,AFNE01.JPG,AFNE01.JPG,AFNE01.JPG,AFNE01.JPG,AFNE01.JPG,,,,,,,,,,,,,0,0,0,2,,,,,,,,,,,AFSA10.jpg,AFNE17.jpg,AFNE16.jpg,AFSA20.jpg,AFNE16.jpg,FN,3,num_2,32,num_4,1.63336944859,,,2017_Dec_04_1738,59.9927265354,MAFE4ImagesEEG,001,102491,
AFNE01.JPG,AFNE01.JPG,AFNE01.JPG,AFNE01.JPG,AFNE01.JPG,AFNE01.JPG,,,,,,,,,,,,,0,1,1,6,,,,,,,,,,,AFSA15.jpg,AFNE16.jpg,AFNE14.jpg,AFSA01.jpg,AFNE14.jpg,FN,3,num_2,32,num_8,0.51677947049,,,2017_Dec_04_1738,59.9927265354,MAFE4ImagesEEG,001,102491,
AFNE01.JPG,AFNE01.JPG,AFNE01.JPG,AFNE01.JPG,AFNE01.JPG,AFNE01.JPG,,,,,,,,,,,,,0,2,2,8,,,,,,,,,,,AFSA04.jpg,AFNE16.jpg,AFSA14.jpg,AFNE20.jpg,AFSA04.jpg,FS,4,num_8,32,num_6,0.41676978441,,,2017_Dec_04_1738,59.9927265354,MAFE4ImagesEEG,001,102491,
AFNE01.JPG,AFNE01.JPG,AFNE01.JPG,AFNE01.JPG,AFNE01.JPG,AFNE01.JPG,,,,,,,,,,,,,0,3,3,3,,,,,,,,,,,AFSA12.jpg,AFNE06.jpg,AFSA14.jpg,AFNE15.jpg,AFNE15.jpg,FN,3,num_4,32,num_8,0.416797047015,,,2017_Dec_04_1738,59.9927265354,MAFE4ImagesEEG,001,102491,
AFNE01.JPG,AFNE01.JPG,AFNE01.JPG,AFNE01.JPG,AFNE01.JPG,AFNE01.JPG,,,,,,,,,,,,,0,4,4,0,,,,,,,,,,,AFNE14.jpg,AFNE12.jpg,AFSA03.jpg,AFSA12.jpg,AFSA12.jpg,FS,4,num_4,32,num_6,0.350148085272,,,2017_Dec_04_1738,59.9927265354,MAFE4ImagesEEG,001,102491,
AFNE01.JPG,AFNE01.JPG,AFNE01.JPG,AFNE01.JPG,AFNE01.JPG,AFNE01.JPG,,,,,,,,,,,,,0,5,5,9,,,,,,,,,,,AFNE08.jpg,AFSA19.jpg,AFNE17.jpg,AFSA15.jpg,AFNE17.jpg,FN,3,num_2,32,num_8,0.250131984008,,,2017_Dec_04_1738,59.9927265354,MAFE4ImagesEEG,001,102491,
AFNE01.JPG,AFNE01.JPG,AFNE01.JPG,AFNE01.JPG,AFNE01.JPG,AFNE01.JPG,,,,,,,,,,,,,0,6,6,7,,,,,,,,,,,AFNE02.jpg,AFNE04.jpg,AFSA19.jpg,AFSA04.jpg,AFSA04.jpg,FS,4,num_4,32,num_2,1.68317639572,,,2017_Dec_04_1738,59.9927265354,MAFE4ImagesEEG,001,102491,
AFNE01.JPG,AFNE01.JPG,AFNE01.JPG,AFNE01.JPG,AFNE01.JPG,AFNE01.JPG,,,,,,,,,,,,,0,7,7,4,,,,,,,,,,,AFSA07.jpg,AFNE03.jpg,AFNE14.jpg,AFSA16.jpg,AFSA16.jpg,FS,4,num_4,16,num_4,0.450158413034,,,2017_Dec_04_1738,59.9927265354,MAFE4ImagesEEG,001,102491,
AFNE01.JPG,AFNE01.JPG,AFNE01.JPG,AFNE01.JPG,AFNE01.JPG,AFNE01.JPG,,,,,,,,,,,,,0,8,8,5,,,,,,,,,,,AFSA08.jpg,AFSA12.jpg,AFNE19.jpg,AFNE16.jpg,AFNE19.jpg,FN,3,num_2,32,num_4,0.8001782028,,,2017_Dec_04_1738,59.9927265354,MAFE4ImagesEEG,001,102491,
AFNE01.JPG,AFNE01.JPG,AFNE01.JPG,AFNE01.JPG,AFNE01.JPG,AFNE01.JPG,,,,,,,,,,,,,0,9,9,1,,,,,,,,,,,AFNE08.jpg,AFNE17.jpg,AFSA12.jpg,AFSA09.jpg,AFSA12.jpg,FS,4,num_2,32,num_8,0.716783447657,,,2017_Dec_04_1738,59.9927265354,MAFE4ImagesEEG,001,102491,
AFNE01.JPG,AFNE01.JPG,AFNE01.JPG,AFNE01.JPG,AFNE01.JPG,AFNE01.JPG,,,,,,,,,,,,,1,0,10,9,,,,,,,,,,,AFSA17.jpg,AFNE15.jpg,AFNE19.jpg,AFSA01.jpg,AFNE19.jpg,FN,3,num_2,32,num_8,0.533497359371,,,2017_Dec_04_1738,59.9927265354,MAFE4ImagesEEG,001,102491,
AFNE01.JPG,AFNE01.JPG,AFNE01.JPG,AFNE01.JPG,AFNE01.JPG,AFNE01.JPG,,,,,,,,,,,,,1,1,11,6,,,,,,,,,,,AFSA06.jpg,AFNE16.jpg,AFNE12.jpg,AFSA04.jpg,AFNE12.jpg,FN,3,num_2,32,num_6,0.383484433405,,,2017_Dec_04_1738,59.9927265354,MAFE4ImagesEEG,001,102491,
AFNE01.JPG,AFNE01.JPG,AFNE01.JPG,AFNE01.JPG,AFNE01.JPG,AFNE01.JPG,,,,,,,,,,,,,1,2,12,0,,,,,,,,,,,AFNE09.jpg,AFNE13.jpg,AFSA20.jpg,AFSA08.jpg,AFSA08.jpg,FS,4,num_4,32,num_2,0.633502234472,,,2017_Dec_04_1738,59.9927265354,MAFE4ImagesEEG,001,102491,
AFNE01.JPG,AFNE01.JPG,AFNE01.JPG,AFNE01.JPG,AFNE01.JPG,AFNE01.JPG,,,,,,,,,,,,,1,3,13,7,,,,,,,,,,,AFNE04.jpg,AFSA20.jpg,AFSA06.jpg,AFNE14.jpg,AFNE04.jpg,FN,3,num_8,16,num_8,0.433502106462,,,2017_Dec_04_1738,59.9927265354,MAFE4ImagesEEG,001,102491,
AFNE01.JPG,AFNE01.JPG,AFNE01.JPG,AFNE01.JPG,AFNE01.JPG,AFNE01.JPG,,,,,,,,,,,,,1,4,14,2,,,,,,,,,,,AFSA13.jpg,AFSA17.jpg,AFNE06.jpg,AFNE13.jpg,AFSA13.jpg,FS,4,num_8,32,num_6,0.416846761713,,,2017_Dec_04_1738,59.9927265354,MAFE4ImagesEEG,001,102491,
AFNE01.JPG,AFNE01.JPG,AFNE01.JPG,AFNE01.JPG,AFNE01.JPG,AFNE01.JPG,,,,,,,,,,,,,1,5,15,3,,,,,,,,,,,AFNE18.jpg,AFSA02.jpg,AFSA03.jpg,AFNE05.jpg,AFNE05.jpg,FN,3,num_4,32,num_8,0.366801826283,,,2017_Dec_04_1738,59.9927265354,MAFE4ImagesEEG,001,102491,
AFNE01.JPG,AFNE01.JPG,AFNE01.JPG,AFNE01.JPG,AFNE01.JPG,AFNE01.JPG,,,,,,,,,,,,,1,6,16,4,,,,,,,,,,,AFSA12.jpg,AFSA02.jpg,AFNE09.jpg,AFNE16.jpg,AFNE09.jpg,FN,3,num_2,32,num_4,0.350157066016,,,2017_Dec_04_1738,59.9927265354,MAFE4ImagesEEG,001,102491,
AFNE01.JPG,AFNE01.JPG,AFNE01.JPG,AFNE01.JPG,AFNE01.JPG,AFNE01.JPG,,,,,,,,,,,,,1,7,17,8,,,,,,,,,,,AFNE09.jpg,AFNE16.jpg,AFSA03.jpg,AFSA08.jpg,AFNE09.jpg,FN,3,num_8,32,num_6,0.416793198325,,,2017_Dec_04_1738,59.9927265354,MAFE4ImagesEEG,001,102491,
AFNE01.JPG,AFNE01.JPG,AFNE01.JPG,AFNE01.JPG,AFNE01.JPG,AFNE01.JPG,,,,,,,,,,,,,1,8,18,1,,,,,,,,,,,AFSA03.jpg,AFSA12.jpg,AFNE10.jpg,AFNE19.jpg,AFSA03.jpg,FS,4,num_8,32,num_4,0.683473079232,,,2017_Dec_04_1738,59.9927265354,MAFE4ImagesEEG,001,102491,
AFNE01.JPG,AFNE01.JPG,AFNE01.JPG,AFNE01.JPG,AFNE01.JPG,AFNE01.JPG,,,,,,,,,,,,,1,9,19,5,,,,,,,,,,,AFSA02.jpg,AFNE06.jpg,AFSA10.jpg,AFNE09.jpg,AFNE06.jpg,FN,3,num_6,16,num_6,0.583453129511,,,2017_Dec_04_1738,59.9927265354,MAFE4ImagesEEG,001,102491,
AFNE01.JPG,AFNE01.JPG,AFNE01.JPG,AFNE01.JPG,AFNE01.JPG,AFNE01.JPG,,,,,,,,,,,,,2,0,20,8,,,,,,,,,,,AFNE04.jpg,AFSA02.jpg,AFNE15.jpg,AFSA17.jpg,AFNE04.jpg,FN,3,num_8,32,num_2,0.849967509275,,,2017_Dec_04_1738,59.9927265354,MAFE4ImagesEEG,001,102491,
AFNE01.JPG,AFNE01.JPG,AFNE01.JPG,AFNE01.JPG,AFNE01.JPG,AFNE01.JPG,,,,,,,,,,,,,2,1,21,4,,,,,,,,,,,AFNE14.jpg,AFSA13.jpg,AFNE16.jpg,AFSA07.jpg,AFSA07.jpg,FS,4,num_4,32,num_8,0.833452969091,,,2017_Dec_04_1738,59.9927265354,MAFE4ImagesEEG,001,102491,
AFNE01.JPG,AFNE01.JPG,AFNE01.JPG,AFNE01.JPG,AFNE01.JPG,AFNE01.JPG,,,,,,,,,,,,,2,2,22,9,,,,,,,,,,,AFSA05.jpg,AFNE09.jpg,AFSA13.jpg,AFNE02.jpg,AFNE02.jpg,FN,3,num_4,16,num_4,0.833468043944,,,2017_Dec_04_1738,59.9927265354,MAFE4ImagesEEG,001,102491,
AFNE01.JPG,AFNE01.JPG,AFNE01.JPG,AFNE01.JPG,AFNE01.JPG,AFNE01.JPG,,,,,,,,,,,,,2,3,23,2,,,,,,,,,,,AFNE12.jpg,AFNE18.jpg,AFSA15.jpg,AFSA05.jpg,AFNE12.jpg,FN,3,num_8,16,num_8,0.883420285536,,,2017_Dec_04_1738,59.9927265354,MAFE4ImagesEEG,001,102491,
AFNE01.JPG,AFNE01.JPG,AFNE01.JPG,AFNE01.JPG,AFNE01.JPG,AFNE01.JPG,,,,,,,,,,,,,2,4,24,5,,,,,,,,,,,AFNE10.jpg,AFSA18.jpg,AFNE01.jpg,AFSA03.jpg,AFSA18.jpg,FS,4,num_6,32,num_2,0.833463232731,,,2017_Dec_04_1738,59.9927265354,MAFE4ImagesEEG,001,102491,
AFNE01.JPG,AFNE01.JPG,AFNE01.JPG,AFNE01.JPG,AFNE01.JPG,AFNE01.JPG,,,,,,,,,,,,,2,5,25,0,,,,,,,,,,,AFNE14.jpg,AFSA15.jpg,AFSA09.jpg,AFNE19.jpg,AFSA15.jpg,FS,4,num_6,32,num_8,0.750104721403,,,2017_Dec_04_1738,59.9927265354,MAFE4ImagesEEG,001,102491,
AFNE01.JPG,AFNE01.JPG,AFNE01.JPG,AFNE01.JPG,AFNE01.JPG,AFNE01.JPG,,,,,,,,,,,,,2,6,26,3,,,,,,,,,,,AFSA15.jpg,AFNE13.jpg,AFNE15.jpg,AFSA17.jpg,AFSA15.jpg,FS,4,num_8,32,num_2,0.300151902251,,,2017_Dec_04_1738,59.9927265354,MAFE4ImagesEEG,001,102491,
AFNE01.JPG,AFNE01.JPG,AFNE01.JPG,AFNE01.JPG,AFNE01.JPG,AFNE01.JPG,,,,,,,,,,,,,2,7,27,1,,,,,,,,,,,AFSA19.jpg,AFNE16.jpg,AFNE18.jpg,AFSA12.jpg,AFNE16.jpg,FN,3,num_6,16,num_6,0.266872324515,,,2017_Dec_04_1738,59.9927265354,MAFE4ImagesEEG,001,102491,
AFNE01.JPG,AFNE01.JPG,AFNE01.JPG,AFNE01.JPG,AFNE01.JPG,AFNE01.JPG,,,,,,,,,,,,,2,8,28,7,,,,,,,,,,,AFSA13.jpg,AFNE11.jpg,AFNE06.jpg,AFSA04.jpg,AFSA13.jpg,FS,4,num_8,16,num_8,0.316745664924,,,2017_Dec_04_1738,59.9927265354,MAFE4ImagesEEG,001,102491,
AFNE01.JPG,AFNE01.JPG,AFNE01.JPG,AFNE01.JPG,AFNE01.JPG,AFNE01.JPG,,,,,,,,,,,,,2,9,29,6,,,,,,,,,,,AFSA16.jpg,AFNE02.jpg,AFSA15.jpg,AFNE01.jpg,AFNE02.jpg,FN,3,num_6,32,num_2,0.316800190369,,,2017_Dec_04_1738,59.9927265354,MAFE4ImagesEEG,001,102491,
AFNE01.JPG,AFNE01.JPG,AFNE01.JPG,AFNE01.JPG,AFNE01.JPG,AFNE01.JPG,,,,,,,,,,,,,3,0,30,2,,,,,,,,,,,AFNE20.jpg,AFSA18.jpg,AFSA17.jpg,AFNE09.jpg,AFSA18.jpg,FS,4,num_6,16,num_6,0.266915303655,,,2017_Dec_04_1738,59.9927265354,MAFE4ImagesEEG,001,102491,
AFNE01.JPG,AFNE01.JPG,AFNE01.JPG,AFNE01.JPG,AFNE01.JPG,AFNE01.JPG,,,,,,,,,,,,,3,1,31,1,,,,,,,,,,,AFNE19.jpg,AFNE09.jpg,AFSA03.jpg,AFSA20.jpg,AFSA03.jpg,FS,4,num_2,32,num_8,0.633433917072,,,2017_Dec_04_1738,59.9927265354,MAFE4ImagesEEG,001,102491,
AFNE01.JPG,AFNE01.JPG,AFNE01.JPG,AFNE01.JPG,AFNE01.JPG,AFNE01.JPG,,,,,,,,,,,,,3,2,32,0,,,,,,,,,,,AFSA18.jpg,AFNE06.jpg,AFNE02.jpg,AFSA06.jpg,AFSA06.jpg,FS,4,num_4,32,num_2,0.433476126287,,,2017_Dec_04_1738,59.9927265354,MAFE4ImagesEEG,001,102491,
AFNE01.JPG,AFNE01.JPG,AFNE01.JPG,AFNE01.JPG,AFNE01.JPG,AFNE01.JPG,,,,,,,,,,,,,3,3,33,3,,,,,,,,,,,AFSA08.jpg,AFNE08.jpg,AFNE10.jpg,AFSA12.jpg,AFNE10.jpg,FN,3,num_2,32,num_8,1.13349998952,,,2017_Dec_04_1738,59.9927265354,MAFE4ImagesEEG,001,102491,
AFNE01.JPG,AFNE01.JPG,AFNE01.JPG,AFNE01.JPG,AFNE01.JPG,AFNE01.JPG,,,,,,,,,,,,,3,4,34,8,,,,,,,,,,,AFNE17.jpg,AFSA19.jpg,AFSA03.jpg,AFNE20.jpg,AFSA03.jpg,FS,4,num_2,32,num_8,3.28331213235,,,2017_Dec_04_1738,59.9927265354,MAFE4ImagesEEG,001,102491,
AFNE01.JPG,AFNE01.JPG,AFNE01.JPG,AFNE01.JPG,AFNE01.JPG,AFNE01.JPG,,,,,,,,,,,,,3,5,35,4,,,,,,,,,,,AFSA03.jpg,AFNE13.jpg,AFSA10.jpg,AFNE04.jpg,AFNE04.jpg,FN,3,num_4,32,num_8,3.04993909178,,,2017_Dec_04_1738,59.9927265354,MAFE4ImagesEEG,001,102491,
AFNE01.JPG,AFNE01.JPG,AFNE01.JPG,AFNE01.JPG,AFNE01.JPG,AFNE01.JPG,,,,,,,,,,,,,3,6,36,7,,,,,,,,,,,AFSA14.jpg,AFNE02.jpg,AFSA17.jpg,AFNE07.jpg,AFSA17.jpg,FS,4,num_2,32,num_8,0.516815714072,,,2017_Dec_04_1738,59.9927265354,MAFE4ImagesEEG,001,102491,
AFNE01.JPG,AFNE01.JPG,AFNE01.JPG,AFNE01.JPG,AFNE01.JPG,AFNE01.JPG,,,,,,,,,,,,,3,7,37,6,,,,,,,,,,,AFNE13.jpg,AFNE16.jpg,AFSA18.jpg,AFSA07.jpg,AFSA18.jpg,FS,4,num_2,32,num_8,0.350162518676,,,2017_Dec_04_1738,59.9927265354,MAFE4ImagesEEG,001,102491,
AFNE01.JPG,AFNE01.JPG,AFNE01.JPG,AFNE01.JPG,AFNE01.JPG,AFNE01.JPG,,,,,,,,,,,,,3,8,38,5,,,,,,,,,,,AFSA14.jpg,AFNE13.jpg,AFSA08.jpg,AFNE09.jpg,AFNE09.jpg,FN,3,num_4,32,num_6,0.283541460987,,,2017_Dec_04_1738,59.9927265354,MAFE4ImagesEEG,001,102491,
AFNE01.JPG,AFNE01.JPG,AFNE01.JPG,AFNE01.JPG,AFNE01.JPG,AFNE01.JPG,,,,,,,,,,,,,3,9,39,9,,,,,,,,,,,AFNE20.jpg,AFNE18.jpg,AFSA01.jpg,AFSA02.jpg,AFNE20.jpg,FN,3,num_8,16,num_8,0.300169863505,,,2017_Dec_04_1738,59.9927265354,MAFE4ImagesEEG,001,102491,
AFNE01.JPG,AFNE01.JPG,AFNE01.JPG,AFNE01.JPG,AFNE01.JPG,AFNE01.JPG,,,,,,,,,,,,,4,0,40,3,,,,,,,,,,,AFNE20.jpg,AFNE03.jpg,AFSA05.jpg,AFSA06.jpg,AFSA05.jpg,FS,4,num_2,16,num_2,0.500182179734,,,2017_Dec_04_1738,59.9927265354,MAFE4ImagesEEG,001,102491,
AFNE01.JPG,AFNE01.JPG,AFNE01.JPG,AFNE01.JPG,AFNE01.JPG,AFNE01.JPG,,,,,,,,,,,,,4,1,41,5,,,,,,,,,,,AFNE03.jpg,AFSA11.jpg,AFSA16.jpg,AFNE14.jpg,AFNE03.jpg,FN,3,num_8,32,num_2,0.71674078959,,,2017_Dec_04_1738,59.9927265354,MAFE4ImagesEEG,001,102491,
AFNE01.JPG,AFNE01.JPG,AFNE01.JPG,AFNE01.JPG,AFNE01.JPG,AFNE01.JPG,,,,,,,,,,,,,4,2,42,6,,,,,,,,,,,AFSA12.jpg,AFSA17.jpg,AFNE18.jpg,AFNE17.jpg,AFSA12.jpg,FS,4,num_8,16,num_8,0.733481771545,,,2017_Dec_04_1738,59.9927265354,MAFE4ImagesEEG,001,102491,
AFNE01.JPG,AFNE01.JPG,AFNE01.JPG,AFNE01.JPG,AFNE01.JPG,AFNE01.JPG,,,,,,,,,,,,,4,3,43,0,,,,,,,,,,,AFSA06.jpg,AFNE03.jpg,AFSA18.jpg,AFNE07.jpg,AFNE03.jpg,FN,3,num_6,32,num_2,0.816763305338,,,2017_Dec_04_1738,59.9927265354,MAFE4ImagesEEG,001,102491,
AFNE01.JPG,AFNE01.JPG,AFNE01.JPG,AFNE01.JPG,AFNE01.JPG,AFNE01.JPG,,,,,,,,,,,,,4,4,44,7,,,,,,,,,,,AFSA07.jpg,AFSA03.jpg,AFNE14.jpg,AFNE13.jpg,AFSA07.jpg,FS,4,num_8,16,num_8,0.716864594724,,,2017_Dec_04_1738,59.9927265354,MAFE4ImagesEEG,001,102491,
AFNE01.JPG,AFNE01.JPG,AFNE01.JPG,AFNE01.JPG,AFNE01.JPG,AFNE01.JPG,,,,,,,,,,,,,4,5,45,1,,,,,,,,,,,AFSA16.jpg,AFNE02.jpg,AFSA04.jpg,AFNE07.jpg,AFSA04.jpg,FS,4,num_2,32,num_8,0.333470609738,,,2017_Dec_04_1738,59.9927265354,MAFE4ImagesEEG,001,102491,
AFNE01.JPG,AFNE01.JPG,AFNE01.JPG,AFNE01.JPG,AFNE01.JPG,AFNE01.JPG,,,,,,,,,,,,,4,6,46,4,,,,,,,,,,,AFNE14.jpg,AFSA01.jpg,AFNE07.jpg,AFSA05.jpg,AFNE07.jpg,FN,3,num_2,32,num_6,0.33350075921,,,2017_Dec_04_1738,59.9927265354,MAFE4ImagesEEG,001,102491,
AFNE01.JPG,AFNE01.JPG,AFNE01.JPG,AFNE01.JPG,AFNE01.JPG,AFNE01.JPG,,,,,,,,,,,,,4,7,47,9,,,,,,,,,,,AFNE19.jpg,AFSA15.jpg,AFSA12.jpg,AFNE17.jpg,AFNE19.jpg,FN,3,num_8,16,num_8,0.466664934531,,,2017_Dec_04_1738,59.9927265354,MAFE4ImagesEEG,001,102491,
AFNE01.JPG,AFNE01.JPG,AFNE01.JPG,AFNE01.JPG,AFNE01.JPG,AFNE01.JPG,,,,,,,,,,,,,4,8,48,8,,,,,,,,,,,AFSA19.jpg,AFNE01.jpg,AFSA06.jpg,AFNE15.jpg,AFSA06.jpg,FS,4,num_2,16,num_2,1.15010946826,,,2017_Dec_04_1738,59.9927265354,MAFE4ImagesEEG,001,102491,
AFNE01.JPG,AFNE01.JPG,AFNE01.JPG,AFNE01.JPG,AFNE01.JPG,AFNE01.JPG,,,,,,,,,,,,,4,9,49,2,,,,,,,,,,,AFSA13.jpg,AFNE07.jpg,AFSA07.jpg,AFNE13.jpg,AFSA13.jpg,FS,4,num_8,16,num_8,0.350116011454,,,2017_Dec_04_1738,59.9927265354,MAFE4ImagesEEG,001,102491,
AFNE01.JPG,AFNE01.JPG,AFNE01.JPG,AFNE01.JPG,AFNE01.JPG,AFNE01.JPG,,,,,,,,,,,,,5,0,50,1,,,,,,,,,,,AFNE20.jpg,AFSA11.jpg,AFNE18.jpg,AFSA06.jpg,AFNE18.jpg,FN,3,num_2,32,num_8,0.333386255428,,,2017_Dec_04_1738,59.9927265354,MAFE4ImagesEEG,001,102491,
AFNE01.JPG,AFNE01.JPG,AFNE01.JPG,AFNE01.JPG,AFNE01.JPG,AFNE01.JPG,,,,,,,,,,,,,5,1,51,2,,,,,,,,,,,AFSA05.jpg,AFSA18.jpg,AFNE03.jpg,AFNE14.jpg,AFSA18.jpg,FS,4,num_6,16,num_6,0.333475420717,,,2017_Dec_04_1738,59.9927265354,MAFE4ImagesEEG,001,102491,
AFNE01.JPG,AFNE01.JPG,AFNE01.JPG,AFNE01.JPG,AFNE01.JPG,AFNE01.JPG,,,,,,,,,,,,,5,2,52,8,,,,,,,,,,,AFSA06.jpg,AFNE04.jpg,AFNE06.jpg,AFSA20.jpg,AFSA06.jpg,FS,4,num_8,32,num_6,0.28349848208,,,2017_Dec_04_1738,59.9927265354,MAFE4ImagesEEG,001,102491,
AFNE01.JPG,AFNE01.JPG,AFNE01.JPG,AFNE01.JPG,AFNE01.JPG,AFNE01.JPG,,,,,,,,,,,,,5,3,53,0,,,,,,,,,,,AFNE13.jpg,AFSA04.jpg,AFSA08.jpg,AFNE02.jpg,AFSA04.jpg,FS,4,num_6,32,num_4,0.283510028617,,,2017_Dec_04_1738,59.9927265354,MAFE4ImagesEEG,001,102491,
AFNE01.JPG,AFNE01.JPG,AFNE01.JPG,AFNE01.JPG,AFNE01.JPG,AFNE01.JPG,,,,,,,,,,,,,5,4,54,5,,,,,,,,,,,AFNE06.jpg,AFNE15.jpg,AFSA04.jpg,AFSA03.jpg,AFNE06.jpg,FN,3,num_8,32,num_2,0.283480841434,,,2017_Dec_04_1738,59.9927265354,MAFE4ImagesEEG,001,102491,
AFNE01.JPG,AFNE01.JPG,AFNE01.JPG,AFNE01.JPG,AFNE01.JPG,AFNE01.JPG,,,,,,,,,,,,,5,5,55,6,,,,,,,,,,,AFSA07.jpg,AFNE04.jpg,AFSA09.jpg,AFNE17.jpg,AFNE04.jpg,FN,3,num_6,16,num_6,0.483477762202,,,2017_Dec_04_1738,59.9927265354,MAFE4ImagesEEG,001,102491,
AFNE01.JPG,AFNE01.JPG,AFNE01.JPG,AFNE01.JPG,AFNE01.JPG,AFNE01.JPG,,,,,,,,,,,,,5,6,56,7,,,,,,,,,,,AFSA05.jpg,AFNE18.jpg,AFNE07.jpg,AFSA03.jpg,AFSA05.jpg,FS,4,num_8,32,num_4,0.616796534043,,,2017_Dec_04_1738,59.9927265354,MAFE4ImagesEEG,001,102491,
AFNE01.JPG,AFNE01.JPG,AFNE01.JPG,AFNE01.JPG,AFNE01.JPG,AFNE01.JPG,,,,,,,,,,,,,5,7,57,9,,,,,,,,,,,AFSA05.jpg,AFNE16.jpg,AFSA06.jpg,AFNE17.jpg,AFSA05.jpg,FS,4,num_8,16,num_8,0.383535110392,,,2017_Dec_04_1738,59.9927265354,MAFE4ImagesEEG,001,102491,
AFNE01.JPG,AFNE01.JPG,AFNE01.JPG,AFNE01.JPG,AFNE01.JPG,AFNE01.JPG,,,,,,,,,,,,,5,8,58,3,,,,,,,,,,,AFSA08.jpg,AFNE05.jpg,AFSA13.jpg,AFNE15.jpg,AFNE05.jpg,FN,3,num_6,16,num_6,0.516794866184,,,2017_Dec_04_1738,59.9927265354,MAFE4ImagesEEG,001,102491,
AFNE01.JPG,AFNE01.JPG,AFNE01.JPG,AFNE01.JPG,AFNE01.JPG,AFNE01.JPG,,,,,,,,,,,,,5,9,59,4,,,,,,,,,,,AFSA01.jpg,AFNE03.jpg,AFNE02.jpg,AFSA18.jpg,AFSA01.jpg,FS,4,num_8,32,num_2,0.366776808398,,,2017_Dec_04_1738,59.9927265354,MAFE4ImagesEEG,001,102491,
,,,,,,,,,,,,,,,,,,,,,,,,,,,,,,,,,,,,,,,,,,,space,22.6650199916,2017_Dec_04_1738,59.9927265354,MAFE4ImagesEEG,001,102491,
AFNE01.JPG,AFNE01.JPG,AFNE01.JPG,AFNE01.JPG,AFNE01.JPG,AFNE01.JPG,,,,,,,,,,,,,,,,,0,0,0,6,,,,,,,AMSA12.jpg,AMSA18.jpg,AMNE05.jpg,AMNE06.jpg,AMSA12.jpg,MS,2,num_8,16,num_8,0.550191513263,,,2017_Dec_04_1738,59.9927265354,MAFE4ImagesEEG,001,102491,
AFNE01.JPG,AFNE01.JPG,AFNE01.JPG,AFNE01.JPG,AFNE01.JPG,AFNE01.JPG,,,,,,,,,,,,,,,,,0,1,1,1,,,,,,,AMNE05.jpg,AMSA02.jpg,AMSA15.jpg,AMNE04.jpg,AMNE05.jpg,MN,1,num_8,16,num_8,0.166835054755,,,2017_Dec_04_1738,59.9927265354,MAFE4ImagesEEG,001,102491,
AFNE01.JPG,AFNE01.JPG,AFNE01.JPG,AFNE01.JPG,AFNE01.JPG,AFNE01.JPG,,,,,,,,,,,,,,,,,0,2,2,9,,,,,,,AMNE18.jpg,AMSA07.jpg,AMNE16.jpg,AMSA09.jpg,AMNE18.jpg,MN,1,num_8,32,num_2,0.55026271753,,,2017_Dec_04_1738,59.9927265354,MAFE4ImagesEEG,001,102491,
AFNE01.JPG,AFNE01.JPG,AFNE01.JPG,AFNE01.JPG,AFNE01.JPG,AFNE01.JPG,,,,,,,,,,,,,,,,,0,3,3,3,,,,,,,AMSA05.jpg,AMSA11.jpg,AMNE11.jpg,AMNE13.jpg,AMSA11.jpg,MS,2,num_6,32,num_8,0.300039001973,,,2017_Dec_04_1738,59.9927265354,MAFE4ImagesEEG,001,102491,
AFNE01.JPG,AFNE01.JPG,AFNE01.JPG,AFNE01.JPG,AFNE01.JPG,AFNE01.JPG,,,,,,,,,,,,,,,,,0,4,4,2,,,,,,,AMNE03.jpg,AMSA19.jpg,AMSA03.jpg,AMNE11.jpg,AMSA19.jpg,MS,2,num_6,16,num_6,0.583719342947,,,2017_Dec_04_1738,59.9927265354,MAFE4ImagesEEG,001,102491,
AFNE01.JPG,AFNE01.JPG,AFNE01.JPG,AFNE01.JPG,AFNE01.JPG,AFNE01.JPG,,,,,,,,,,,,,,,,,0,5,5,7,,,,,,,AMNE07.jpg,AMSA18.jpg,AMSA04.jpg,AMNE17.jpg,AMSA04.jpg,MS,2,num_2,16,num_2,0.816765871365,,,2017_Dec_04_1738,59.9927265354,MAFE4ImagesEEG,001,102491,
AFNE01.JPG,AFNE01.JPG,AFNE01.JPG,AFNE01.JPG,AFNE01.JPG,AFNE01.JPG,,,,,,,,,,,,,,,,,0,6,6,0,,,,,,,AMNE19.jpg,AMSA05.jpg,AMNE08.jpg,AMSA14.jpg,AMSA14.jpg,MS,2,num_4,32,num_8,0.350192026701,,,2017_Dec_04_1738,59.9927265354,MAFE4ImagesEEG,001,102491,
AFNE01.JPG,AFNE01.JPG,AFNE01.JPG,AFNE01.JPG,AFNE01.JPG,AFNE01.JPG,,,,,,,,,,,,,,,,,0,7,7,8,,,,,,,AMSA01.jpg,AMNE16.jpg,AMNE14.jpg,AMSA07.jpg,AMNE14.jpg,MN,1,num_2,32,num_8,0.833435328444,,,2017_Dec_04_1738,59.9927265354,MAFE4ImagesEEG,001,102491,
AFNE01.JPG,AFNE01.JPG,AFNE01.JPG,AFNE01.JPG,AFNE01.JPG,AFNE01.JPG,,,,,,,,,,,,,,,,,0,8,8,4,,,,,,,AMNE14.jpg,AMNE10.jpg,AMSA05.jpg,AMSA09.jpg,AMSA09.jpg,MS,2,num_4,16,num_4,0.516815393232,,,2017_Dec_04_1738,59.9927265354,MAFE4ImagesEEG,001,102491,
AFNE01.JPG,AFNE01.JPG,AFNE01.JPG,AFNE01.JPG,AFNE01.JPG,AFNE01.JPG,,,,,,,,,,,,,,,,,0,9,9,5,,,,,,,AMNE15.jpg,AMSA11.jpg,AMSA18.jpg,AMNE20.jpg,AMSA11.jpg,MS,2,num_6,16,num_6,0.566800671397,,,2017_Dec_04_1738,59.9927265354,MAFE4ImagesEEG,001,102491,
AFNE01.JPG,AFNE01.JPG,AFNE01.JPG,AFNE01.JPG,AFNE01.JPG,AFNE01.JPG,,,,,,,,,,,,,,,,,1,0,10,7,,,,,,,AMNE11.jpg,AMSA16.jpg,AMSA02.jpg,AMNE02.jpg,AMNE02.jpg,MN,1,num_4,16,num_4,0.650003945222,,,2017_Dec_04_1738,59.9927265354,MAFE4ImagesEEG,001,102491,
AFNE01.JPG,AFNE01.JPG,AFNE01.JPG,AFNE01.JPG,AFNE01.JPG,AFNE01.JPG,,,,,,,,,,,,,,,,,1,1,11,3,,,,,,,AMNE08.jpg,AMNE09.jpg,AMSA10.jpg,AMSA04.jpg,AMSA10.jpg,MS,2,num_2,16,num_2,1.00017480296,,,2017_Dec_04_1738,59.9927265354,MAFE4ImagesEEG,001,102491,
AFNE01.JPG,AFNE01.JPG,AFNE01.JPG,AFNE01.JPG,AFNE01.JPG,AFNE01.JPG,,,,,,,,,,,,,,,,,1,2,12,0,,,,,,,AMNE12.jpg,AMNE14.jpg,AMSA16.jpg,AMSA08.jpg,AMNE14.jpg,MN,1,num_6,16,num_6,0.550127365626,,,2017_Dec_04_1738,59.9927265354,MAFE4ImagesEEG,001,102491,
AFNE01.JPG,AFNE01.JPG,AFNE01.JPG,AFNE01.JPG,AFNE01.JPG,AFNE01.JPG,,,,,,,,,,,,,,,,,1,3,13,8,,,,,,,AMNE05.jpg,AMNE07.jpg,AMSA05.jpg,AMSA19.jpg,AMSA05.jpg,MS,2,num_2,32,num_8,1.11677825195,,,2017_Dec_04_1738,59.9927265354,MAFE4ImagesEEG,001,102491,
AFNE01.JPG,AFNE01.JPG,AFNE01.JPG,AFNE01.JPG,AFNE01.JPG,AFNE01.JPG,,,,,,,,,,,,,,,,,1,4,14,6,,,,,,,AMSA04.jpg,AMNE06.jpg,AMSA15.jpg,AMNE18.jpg,AMSA15.jpg,MS,2,num_2,16,num_2,1.24995140801,,,2017_Dec_04_1738,59.9927265354,MAFE4ImagesEEG,001,102491,
AFNE01.JPG,AFNE01.JPG,AFNE01.JPG,AFNE01.JPG,AFNE01.JPG,AFNE01.JPG,,,,,,,,,,,,,,,,,1,5,15,1,,,,,,,AMSA11.jpg,AMNE11.jpg,AMNE15.jpg,AMSA14.jpg,AMSA11.jpg,MS,2,num_8,16,num_8,1.28346544597,,,2017_Dec_04_1738,59.9927265354,MAFE4ImagesEEG,001,102491,
AFNE01.JPG,AFNE01.JPG,AFNE01.JPG,AFNE01.JPG,AFNE01.JPG,AFNE01.JPG,,,,,,,,,,,,,,,,,1,6,16,5,,,,,,,AMNE12.jpg,AMNE09.jpg,AMSA17.jpg,AMSA01.jpg,AMSA17.jpg,MS,2,num_2,16,num_2,1.2334156991,,,2017_Dec_04_1738,59.9927265354,MAFE4ImagesEEG,001,102491,
AFNE01.JPG,AFNE01.JPG,AFNE01.JPG,AFNE01.JPG,AFNE01.JPG,AFNE01.JPG,,,,,,,,,,,,,,,,,1,7,17,4,,,,,,,AMNE09.jpg,AMSA05.jpg,AMSA02.jpg,AMNE14.jpg,AMNE09.jpg,MN,1,num_8,32,num_6,0.666819659295,,,2017_Dec_04_1738,59.9927265354,MAFE4ImagesEEG,001,102491,
AFNE01.JPG,AFNE01.JPG,AFNE01.JPG,AFNE01.JPG,AFNE01.JPG,AFNE01.JPG,,,,,,,,,,,,,,,,,1,8,18,9,,,,,,,AMSA02.jpg,AMNE18.jpg,AMSA07.jpg,AMNE09.jpg,AMNE18.jpg,MN,1,num_6,16,num_6,0.700117839733,,,2017_Dec_04_1738,59.9927265354,MAFE4ImagesEEG,001,102491,
AFNE01.JPG,AFNE01.JPG,AFNE01.JPG,AFNE01.JPG,AFNE01.JPG,AFNE01.JPG,,,,,,,,,,,,,,,,,1,9,19,2,,,,,,,AMSA16.jpg,AMSA10.jpg,AMNE12.jpg,AMNE18.jpg,AMSA16.jpg,MS,2,num_8,16,num_8,0.433499219595,,,2017_Dec_04_1738,59.9927265354,MAFE4ImagesEEG,001,102491,
AFNE01.JPG,AFNE01.JPG,AFNE01.JPG,AFNE01.JPG,AFNE01.JPG,AFNE01.JPG,,,,,,,,,,,,,,,,,2,0,20,2,,,,,,,AMNE06.jpg,AMNE12.jpg,AMSA13.jpg,AMSA10.jpg,AMNE12.jpg,MN,1,num_6,32,num_2,0.383448510664,,,2017_Dec_04_1738,59.9927265354,MAFE4ImagesEEG,001,102491,
AFNE01.JPG,AFNE01.JPG,AFNE01.JPG,AFNE01.JPG,AFNE01.JPG,AFNE01.JPG,,,,,,,,,,,,,,,,,2,1,21,3,,,,,,,AMSA14.jpg,AMSA04.jpg,AMNE06.jpg,AMNE08.jpg,AMNE06.jpg,MN,1,num_2,32,num_6,0.616662144428,,,2017_Dec_04_1738,59.9927265354,MAFE4ImagesEEG,001,102491,
AFNE01.JPG,AFNE01.JPG,AFNE01.JPG,AFNE01.JPG,AFNE01.JPG,AFNE01.JPG,,,,,,,,,,,,,,,,,2,2,22,6,,,,,,,AMNE01.jpg,AMSA07.jpg,AMNE12.jpg,AMSA02.jpg,AMNE12.jpg,MN,1,num_2,16,num_2,0.68344838242,,,2017_Dec_04_1738,59.9927265354,MAFE4ImagesEEG,001,102491,
AFNE01.JPG,AFNE01.JPG,AFNE01.JPG,AFNE01.JPG,AFNE01.JPG,AFNE01.JPG,,,,,,,,,,,,,,,,,2,3,23,4,,,,,,,AMSA18.jpg,AMNE09.jpg,AMNE18.jpg,AMSA09.jpg,AMNE18.jpg,MN,1,num_2,32,num_8,0.283495274605,,,2017_Dec_04_1738,59.9927265354,MAFE4ImagesEEG,001,102491,
AFNE01.JPG,AFNE01.JPG,AFNE01.JPG,AFNE01.JPG,AFNE01.JPG,AFNE01.JPG,,,,,,,,,,,,,,,,,2,4,24,7,,,,,,,AMNE06.jpg,AMSA09.jpg,AMNE14.jpg,AMSA17.jpg,AMNE06.jpg,MN,1,num_8,32,num_4,0.400201359997,,,2017_Dec_04_1738,59.9927265354,MAFE4ImagesEEG,001,102491,
AFNE01.JPG,AFNE01.JPG,AFNE01.JPG,AFNE01.JPG,AFNE01.JPG,AFNE01.JPG,,,,,,,,,,,,,,,,,2,5,25,0,,,,,,,AMSA09.jpg,AMNE10.jpg,AMSA04.jpg,AMNE14.jpg,AMNE10.jpg,MN,1,num_6,32,num_8,0.300158958416,,,2017_Dec_04_1738,59.9927265354,MAFE4ImagesEEG,001,102491,
AFNE01.JPG,AFNE01.JPG,AFNE01.JPG,AFNE01.JPG,AFNE01.JPG,AFNE01.JPG,,,,,,,,,,,,,,,,,2,6,26,9,,,,,,,AMSA09.jpg,AMSA03.jpg,AMNE12.jpg,AMNE10.jpg,AMSA03.jpg,MS,2,num_6,32,num_2,0.283541140379,,,2017_Dec_04_1738,59.9927265354,MAFE4ImagesEEG,001,102491,
AFNE01.JPG,AFNE01.JPG,AFNE01.JPG,AFNE01.JPG,AFNE01.JPG,AFNE01.JPG,,,,,,,,,,,,,,,,,2,7,27,8,,,,,,,AMNE15.jpg,AMNE04.jpg,AMSA09.jpg,AMSA10.jpg,AMSA10.jpg,MS,2,num_4,32,num_6,0.283493670868,,,2017_Dec_04_1738,59.9927265354,MAFE4ImagesEEG,001,102491,
AFNE01.JPG,AFNE01.JPG,AFNE01.JPG,AFNE01.JPG,AFNE01.JPG,AFNE01.JPG,,,,,,,,,,,,,,,,,2,8,28,5,,,,,,,AMNE04.jpg,AMSA07.jpg,AMNE11.jpg,AMSA01.jpg,AMNE04.jpg,MN,1,num_8,16,num_8,0.416790953139,,,2017_Dec_04_1738,59.9927265354,MAFE4ImagesEEG,001,102491,
AFNE01.JPG,AFNE01.JPG,AFNE01.JPG,AFNE01.JPG,AFNE01.JPG,AFNE01.JPG,,,,,,,,,,,,,,,,,2,9,29,1,,,,,,,AMSA11.jpg,AMNE18.jpg,AMNE11.jpg,AMSA09.jpg,AMSA11.jpg,MS,2,num_8,32,num_2,0.41681148042,,,2017_Dec_04_1738,59.9927265354,MAFE4ImagesEEG,001,102491,
AFNE01.JPG,AFNE01.JPG,AFNE01.JPG,AFNE01.JPG,AFNE01.JPG,AFNE01.JPG,,,,,,,,,,,,,,,,,3,0,30,9,,,,,,,AMNE10.jpg,AMSA01.jpg,AMSA16.jpg,AMNE09.jpg,AMNE09.jpg,MN,1,num_4,32,num_8,0.616903019371,,,2017_Dec_04_1738,59.9927265354,MAFE4ImagesEEG,001,102491,
AFNE01.JPG,AFNE01.JPG,AFNE01.JPG,AFNE01.JPG,AFNE01.JPG,AFNE01.JPG,,,,,,,,,,,,,,,,,3,1,31,8,,,,,,,AMSA03.jpg,AMNE01.jpg,AMNE18.jpg,AMSA17.jpg,AMNE01.jpg,MN,1,num_6,32,num_2,0.550159118604,,,2017_Dec_04_1738,59.9927265354,MAFE4ImagesEEG,001,102491,
AFNE01.JPG,AFNE01.JPG,AFNE01.JPG,AFNE01.JPG,AFNE01.JPG,AFNE01.JPG,,,,,,,,,,,,,,,,,3,2,32,5,,,,,,,AMNE20.jpg,AMNE19.jpg,AMSA16.jpg,AMSA19.jpg,AMSA16.jpg,MS,2,num_2,32,num_8,0.600103983656,,,2017_Dec_04_1738,59.9927265354,MAFE4ImagesEEG,001,102491,
AFNE01.JPG,AFNE01.JPG,AFNE01.JPG,AFNE01.JPG,AFNE01.JPG,AFNE01.JPG,,,,,,,,,,,,,,,,,3,3,33,2,,,,,,,AMSA04.jpg,AMSA17.jpg,AMNE05.jpg,AMNE18.jpg,AMSA04.jpg,MS,2,num_8,16,num_8,0.566824085312,,,2017_Dec_04_1738,59.9927265354,MAFE4ImagesEEG,001,102491,
AFNE01.JPG,AFNE01.JPG,AFNE01.JPG,AFNE01.JPG,AFNE01.JPG,AFNE01.JPG,,,,,,,,,,,,,,,,,3,4,34,1,,,,,,,AMNE05.jpg,AMSA12.jpg,AMNE02.jpg,AMSA09.jpg,AMSA09.jpg,MS,2,num_4,32,num_8,0.483510156628,,,2017_Dec_04_1738,59.9927265354,MAFE4ImagesEEG,001,102491,
AFNE01.JPG,AFNE01.JPG,AFNE01.JPG,AFNE01.JPG,AFNE01.JPG,AFNE01.JPG,,,,,,,,,,,,,,,,,3,5,35,7,,,,,,,AMNE15.jpg,AMSA05.jpg,AMNE01.jpg,AMSA04.jpg,AMNE15.jpg,MN,1,num_8,16,num_8,0.733462206321,,,2017_Dec_04_1738,59.9927265354,MAFE4ImagesEEG,001,102491,
AFNE01.JPG,AFNE01.JPG,AFNE01.JPG,AFNE01.JPG,AFNE01.JPG,AFNE01.JPG,,,,,,,,,,,,,,,,,3,6,36,0,,,,,,,AMSA06.jpg,AMSA01.jpg,AMNE17.jpg,AMNE07.jpg,AMSA06.jpg,MS,2,num_8,32,num_6,1.06678142725,,,2017_Dec_04_1738,59.9927265354,MAFE4ImagesEEG,001,102491,
AFNE01.JPG,AFNE01.JPG,AFNE01.JPG,AFNE01.JPG,AFNE01.JPG,AFNE01.JPG,,,,,,,,,,,,,,,,,3,7,37,6,,,,,,,AMNE05.jpg,AMSA10.jpg,AMNE06.jpg,AMSA01.jpg,AMNE06.jpg,MN,1,num_2,32,num_8,0.683436515043,,,2017_Dec_04_1738,59.9927265354,MAFE4ImagesEEG,001,102491,
AFNE01.JPG,AFNE01.JPG,AFNE01.JPG,AFNE01.JPG,AFNE01.JPG,AFNE01.JPG,,,,,,,,,,,,,,,,,3,8,38,4,,,,,,,AMNE17.jpg,AMSA08.jpg,AMSA14.jpg,AMNE05.jpg,AMSA08.jpg,MS,2,num_6,16,num_6,0.566906836117,,,2017_Dec_04_1738,59.9927265354,MAFE4ImagesEEG,001,102491,
AFNE01.JPG,AFNE01.JPG,AFNE01.JPG,AFNE01.JPG,AFNE01.JPG,AFNE01.JPG,,,,,,,,,,,,,,,,,3,9,39,3,,,,,,,AMNE20.jpg,AMSA01.jpg,AMNE15.jpg,AMSA12.jpg,AMSA12.jpg,MS,2,num_4,16,num_4,0.333452327643,,,2017_Dec_04_1738,59.9927265354,MAFE4ImagesEEG,001,102491,
AFNE01.JPG,AFNE01.JPG,AFNE01.JPG,AFNE01.JPG,AFNE01.JPG,AFNE01.JPG,,,,,,,,,,,,,,,,,4,0,40,1,,,,,,,AMSA05.jpg,AMSA17.jpg,AMNE06.jpg,AMNE02.jpg,AMNE02.jpg,MN,1,num_4,32,num_2,0.517063966487,,,2017_Dec_04_1738,59.9927265354,MAFE4ImagesEEG,001,102491,
AFNE01.JPG,AFNE01.JPG,AFNE01.JPG,AFNE01.JPG,AFNE01.JPG,AFNE01.JPG,,,,,,,,,,,,,,,,,4,1,41,4,,,,,,,AMSA05.jpg,AMSA14.jpg,AMNE12.jpg,AMNE11.jpg,AMNE11.jpg,MN,1,num_4,32,num_6,0.483521703398,,,2017_Dec_04_1738,59.9927265354,MAFE4ImagesEEG,001,102491,
AFNE01.JPG,AFNE01.JPG,AFNE01.JPG,AFNE01.JPG,AFNE01.JPG,AFNE01.JPG,,,,,,,,,,,,,,,,,4,2,42,3,,,,,,,AMNE14.jpg,AMNE13.jpg,AMSA14.jpg,AMSA10.jpg,AMNE14.jpg,MN,1,num_8,16,num_8,0.716759713134,,,2017_Dec_04_1738,59.9927265354,MAFE4ImagesEEG,001,102491,
AFNE01.JPG,AFNE01.JPG,AFNE01.JPG,AFNE01.JPG,AFNE01.JPG,AFNE01.JPG,,,,,,,,,,,,,,,,,4,3,43,8,,,,,,,AMNE16.jpg,AMSA15.jpg,AMNE10.jpg,AMSA08.jpg,AMNE10.jpg,MN,1,num_2,16,num_2,0.666881561978,,,2017_Dec_04_1738,59.9927265354,MAFE4ImagesEEG,001,102491,
AFNE01.JPG,AFNE01.JPG,AFNE01.JPG,AFNE01.JPG,AFNE01.JPG,AFNE01.JPG,,,,,,,,,,,,,,,,,4,4,44,9,,,,,,,AMNE13.jpg,AMSA14.jpg,AMNE18.jpg,AMSA03.jpg,AMSA03.jpg,MS,2,num_4,32,num_2,0.950140772387,,,2017_Dec_04_1738,59.9927265354,MAFE4ImagesEEG,001,102491,
AFNE01.JPG,AFNE01.JPG,AFNE01.JPG,AFNE01.JPG,AFNE01.JPG,AFNE01.JPG,,,,,,,,,,,,,,,,,4,5,45,5,,,,,,,AMNE19.jpg,AMSA19.jpg,AMSA03.jpg,AMNE18.jpg,AMSA03.jpg,MS,2,num_2,32,num_8,0.450143338414,,,2017_Dec_04_1738,59.9927265354,MAFE4ImagesEEG,001,102491,
AFNE01.JPG,AFNE01.JPG,AFNE01.JPG,AFNE01.JPG,AFNE01.JPG,AFNE01.JPG,,,,,,,,,,,,,,,,,4,6,46,0,,,,,,,AMNE10.jpg,AMSA11.jpg,AMSA15.jpg,AMNE01.jpg,AMSA11.jpg,MS,2,num_6,32,num_8,0.783478916856,,,2017_Dec_04_1738,59.9927265354,MAFE4ImagesEEG,001,102491,
AFNE01.JPG,AFNE01.JPG,AFNE01.JPG,AFNE01.JPG,AFNE01.JPG,AFNE01.JPG,,,,,,,,,,,,,,,,,4,7,47,6,,,,,,,AMNE10.jpg,AMSA11.jpg,AMSA20.jpg,AMNE13.jpg,AMSA11.jpg,MS,2,num_6,32,num_2,0.316793454811,,,2017_Dec_04_1738,59.9927265354,MAFE4ImagesEEG,001,102491,
AFNE01.JPG,AFNE01.JPG,AFNE01.JPG,AFNE01.JPG,AFNE01.JPG,AFNE01.JPG,,,,,,,,,,,,,,,,,4,8,48,7,,,,,,,AMSA11.jpg,AMNE15.jpg,AMNE18.jpg,AMSA20.jpg,AMSA11.jpg,MS,2,num_8,16,num_8,0.300157033838,,,2017_Dec_04_1738,59.9927265354,MAFE4ImagesEEG,001,102491,
AFNE01.JPG,AFNE01.JPG,AFNE01.JPG,AFNE01.JPG,AFNE01.JPG,AFNE01.JPG,,,,,,,,,,,,,,,,,4,9,49,2,,,,,,,AMNE15.jpg,AMSA13.jpg,AMSA14.jpg,AMNE19.jpg,AMNE19.jpg,MN,1,num_4,32,num_6,0.316763947019,,,2017_Dec_04_1738,59.9927265354,MAFE4ImagesEEG,001,102491,
AFNE01.JPG,AFNE01.JPG,AFNE01.JPG,AFNE01.JPG,AFNE01.JPG,AFNE01.JPG,,,,,,,,,,,,,,,,,5,0,50,2,,,,,,,AMSA02.jpg,AMNE19.jpg,AMNE11.jpg,AMSA17.jpg,AMSA17.jpg,MS,2,num_4,16,num_4,0.333535078447,,,2017_Dec_04_1738,59.9927265354,MAFE4ImagesEEG,001,102491,
AFNE01.JPG,AFNE01.JPG,AFNE01.JPG,AFNE01.JPG,AFNE01.JPG,AFNE01.JPG,,,,,,,,,,,,,,,,,5,1,51,0,,,,,,,AMNE19.jpg,AMNE01.jpg,AMSA04.jpg,AMSA17.jpg,AMSA04.jpg,MS,2,num_2,16,num_2,0.500110013643,,,2017_Dec_04_1738,59.9927265354,MAFE4ImagesEEG,001,102491,
AFNE01.JPG,AFNE01.JPG,AFNE01.JPG,AFNE01.JPG,AFNE01.JPG,AFNE01.JPG,,,,,,,,,,,,,,,,,5,2,52,8,,,,,,,AMNE13.jpg,AMNE12.jpg,AMSA18.jpg,AMSA14.jpg,AMNE13.jpg,MN,1,num_8,16,num_8,0.949890916469,,,2017_Dec_04_1738,59.9927265354,MAFE4ImagesEEG,001,102491,
AFNE01.JPG,AFNE01.JPG,AFNE01.JPG,AFNE01.JPG,AFNE01.JPG,AFNE01.JPG,,,,,,,,,,,,,,,,,5,3,53,6,,,,,,,AMSA13.jpg,AMNE19.jpg,AMSA10.jpg,AMNE13.jpg,AMSA10.jpg,MS,2,num_2,32,num_6,0.350152896484,,,2017_Dec_04_1738,59.9927265354,MAFE4ImagesEEG,001,102491,
AFNE01.JPG,AFNE01.JPG,AFNE01.JPG,AFNE01.JPG,AFNE01.JPG,AFNE01.JPG,,,,,,,,,,,,,,,,,5,4,54,9,,,,,,,AMSA01.jpg,AMNE14.jpg,AMNE06.jpg,AMSA06.jpg,AMSA01.jpg,MS,2,num_8,32,num_2,0.750084514963,,,2017_Dec_04_1738,59.9927265354,MAFE4ImagesEEG,001,102491,
AFNE01.JPG,AFNE01.JPG,AFNE01.JPG,AFNE01.JPG,AFNE01.JPG,AFNE01.JPG,,,,,,,,,,,,,,,,,5,5,55,1,,,,,,,AMNE20.jpg,AMSA02.jpg,AMNE03.jpg,AMSA17.jpg,AMSA02.jpg,MS,2,num_6,32,num_8,0.883295838954,,,2017_Dec_04_1738,59.9927265354,MAFE4ImagesEEG,001,102491,
AFNE01.JPG,AFNE01.JPG,AFNE01.JPG,AFNE01.JPG,AFNE01.JPG,AFNE01.JPG,,,,,,,,,,,,,,,,,5,6,56,7,,,,,,,AMSA13.jpg,AMSA04.jpg,AMNE20.jpg,AMNE04.jpg,AMSA04.jpg,MS,2,num_6,32,num_2,0.866763658123,,,2017_Dec_04_1738,59.9927265354,MAFE4ImagesEEG,001,102491,
AFNE01.JPG,AFNE01.JPG,AFNE01.JPG,AFNE01.JPG,AFNE01.JPG,AFNE01.JPG,,,,,,,,,,,,,,,,,5,7,57,3,,,,,,,AMNE05.jpg,AMSA13.jpg,AMNE03.jpg,AMSA10.jpg,AMNE05.jpg,MN,1,num_8,16,num_8,0.366839673603,,,2017_Dec_04_1738,59.9927265354,MAFE4ImagesEEG,001,102491,
AFNE01.JPG,AFNE01.JPG,AFNE01.JPG,AFNE01.JPG,AFNE01.JPG,AFNE01.JPG,,,,,,,,,,,,,,,,,5,8,58,5,,,,,,,AMSA12.jpg,AMNE05.jpg,AMNE18.jpg,AMSA17.jpg,AMNE18.jpg,MN,1,num_2,32,num_8,0.933441165835,,,2017_Dec_04_1738,59.9927265354,MAFE4ImagesEEG,001,102491,
AFNE01.JPG,AFNE01.JPG,AFNE01.JPG,AFNE01.JPG,AFNE01.JPG,AFNE01.JPG,,,,,,,,,,,,,,,,,5,9,59,4,,,,,,,AMSA02.jpg,AMNE03.jpg,AMSA20.jpg,AMNE13.jpg,AMNE13.jpg,MN,1,num_4,32,num_2,0.266733765369,,,2017_Dec_04_1738,59.9927265354,MAFE4ImagesEEG,001,102491,
,,,,,,,,,,,,,,,,,,,,,,,,,,,,,,,,,,,,,,,,,,,space,31.9476871178,2017_Dec_04_1738,59.9927265354,MAFE4ImagesEEG,001,102491,
AFNE01.JPG,AFNE01.JPG,AFNE01.JPG,AFNE01.JPG,AFNE01.JPG,AFNE01.JPG,,,,,,,,,,,,,,,,,,,,,0,0,0,0,,,AFNE10.jpg,AFSA04.jpg,AFNE11.jpg,AFSA12.jpg,AFNE10.jpg,FN,3,num_8,32,num_6,0.500157803763,,,2017_Dec_04_1738,59.9927265354,MAFE4ImagesEEG,001,102491,
AFNE01.JPG,AFNE01.JPG,AFNE01.JPG,AFNE01.JPG,AFNE01.JPG,AFNE01.JPG,,,,,,,,,,,,,,,,,,,,,0,1,1,9,,,AFNE20.jpg,AFSA07.jpg,AFSA17.jpg,AFNE14.jpg,AFSA17.jpg,FS,4,num_2,32,num_8,0.233512562467,,,2017_Dec_04_1738,59.9927265354,MAFE4ImagesEEG,001,102491,
AFNE01.JPG,AFNE01.JPG,AFNE01.JPG,AFNE01.JPG,AFNE01.JPG,AFNE01.JPG,,,,,,,,,,,,,,,,,,,,,0,2,2,2,,,AFSA04.jpg,AFNE03.jpg,AFSA10.jpg,AFNE11.jpg,AFNE11.jpg,FN,3,num_4,32,num_2,0.300170504954,,,2017_Dec_04_1738,59.9927265354,MAFE4ImagesEEG,001,102491,
AFNE01.JPG,AFNE01.JPG,AFNE01.JPG,AFNE01.JPG,AFNE01.JPG,AFNE01.JPG,,,,,,,,,,,,,,,,,,,,,0,3,3,7,,,AFSA13.jpg,AFNE12.jpg,AFSA20.jpg,AFNE04.jpg,AFNE04.jpg,FN,3,num_4,32,num_8,0.400137532968,,,2017_Dec_04_1738,59.9927265354,MAFE4ImagesEEG,001,102491,
AFNE01.JPG,AFNE01.JPG,AFNE01.JPG,AFNE01.JPG,AFNE01.JPG,AFNE01.JPG,,,,,,,,,,,,,,,,,,,,,0,4,4,3,,,AFNE16.jpg,AFSA07.jpg,AFNE19.jpg,AFSA14.jpg,AFSA07.jpg,FS,4,num_6,32,num_2,0.40017377655,,,2017_Dec_04_1738,59.9927265354,MAFE4ImagesEEG,001,102491,
AFNE01.JPG,AFNE01.JPG,AFNE01.JPG,AFNE01.JPG,AFNE01.JPG,AFNE01.JPG,,,,,,,,,,,,,,,,,,,,,0,5,5,1,,,AFSA10.jpg,AFNE18.jpg,AFSA18.jpg,AFNE05.jpg,AFNE18.jpg,FN,3,num_6,32,num_8,0.383513299981,,,2017_Dec_04_1738,59.9927265354,MAFE4ImagesEEG,001,102491,
AFNE01.JPG,AFNE01.JPG,AFNE01.JPG,AFNE01.JPG,AFNE01.JPG,AFNE01.JPG,,,,,,,,,,,,,,,,,,,,,0,6,6,4,,,AFNE18.jpg,AFSA11.jpg,AFNE11.jpg,AFSA05.jpg,AFNE18.jpg,FN,3,num_8,32,num_6,0.283479237463,,,2017_Dec_04_1738,59.9927265354,MAFE4ImagesEEG,001,102491,
AFNE01.JPG,AFNE01.JPG,AFNE01.JPG,AFNE01.JPG,AFNE01.JPG,AFNE01.JPG,,,,,,,,,,,,,,,,,,,,,0,7,7,5,,,AFSA10.jpg,AFNE05.jpg,AFSA04.jpg,AFNE04.jpg,AFSA04.jpg,FS,4,num_2,16,num_2,0.366819466697,,,2017_Dec_04_1738,59.9927265354,MAFE4ImagesEEG,001,102491,
AFNE01.JPG,AFNE01.JPG,AFNE01.JPG,AFNE01.JPG,AFNE01.JPG,AFNE01.JPG,,,,,,,,,,,,,,,,,,,,,0,8,8,6,,,AFSA08.jpg,AFNE14.jpg,AFNE04.jpg,AFSA18.jpg,AFNE04.jpg,FN,3,num_2,32,num_8,0.283495916054,,,2017_Dec_04_1738,59.9927265354,MAFE4ImagesEEG,001,102491,
AFNE01.JPG,AFNE01.JPG,AFNE01.JPG,AFNE01.JPG,AFNE01.JPG,AFNE01.JPG,,,,,,,,,,,,,,,,,,,,,0,9,9,8,,,AFNE13.jpg,AFSA14.jpg,AFSA10.jpg,AFNE12.jpg,AFNE12.jpg,FN,3,num_4,16,num_4,0.300174995326,,,2017_Dec_04_1738,59.9927265354,MAFE4ImagesEEG,001,102491,
AFNE01.JPG,AFNE01.JPG,AFNE01.JPG,AFNE01.JPG,AFNE01.JPG,AFNE01.JPG,,,,,,,,,,,,,,,,,,,,,1,0,10,1,,,AFSA12.jpg,AFNE11.jpg,AFSA20.jpg,AFNE17.jpg,AFSA12.jpg,FS,4,num_8,32,num_2,0.266800799873,,,2017_Dec_04_1738,59.9927265354,MAFE4ImagesEEG,001,102491,
AFNE01.JPG,AFNE01.JPG,AFNE01.JPG,AFNE01.JPG,AFNE01.JPG,AFNE01.JPG,,,,,,,,,,,,,,,,,,,,,1,1,11,9,,,AFNE04.jpg,AFNE12.jpg,AFSA03.jpg,AFSA20.jpg,AFSA03.jpg,FS,4,num_2,32,num_8,0.300170184346,,,2017_Dec_04_1738,59.9927265354,MAFE4ImagesEEG,001,102491,
AFNE01.JPG,AFNE01.JPG,AFNE01.JPG,AFNE01.JPG,AFNE01.JPG,AFNE01.JPG,,,,,,,,,,,,,,,,,,,,,1,2,12,7,,,AFNE15.jpg,AFSA09.jpg,AFNE19.jpg,AFSA08.jpg,AFSA08.jpg,FS,4,num_4,32,num_2,0.900011803256,,,2017_Dec_04_1738,59.9927265354,MAFE4ImagesEEG,001,102491,
AFNE01.JPG,AFNE01.JPG,AFNE01.JPG,AFNE01.JPG,AFNE01.JPG,AFNE01.JPG,,,,,,,,,,,,,,,,,,,,,1,3,13,2,,,AFSA08.jpg,AFSA02.jpg,AFNE04.jpg,AFNE17.jpg,AFSA02.jpg,FS,4,num_6,32,num_8,0.700127140852,,,2017_Dec_04_1738,59.9927265354,MAFE4ImagesEEG,001,102491,
AFNE01.JPG,AFNE01.JPG,AFNE01.JPG,AFNE01.JPG,AFNE01.JPG,AFNE01.JPG,,,,,,,,,,,,,,,,,,,,,1,4,14,6,,,AFSA20.jpg,AFNE08.jpg,AFNE01.jpg,AFSA06.jpg,AFNE08.jpg,FN,3,num_6,32,num_2,1.04995609075,,,2017_Dec_04_1738,59.9927265354,MAFE4ImagesEEG,001,102491,
AFNE01.JPG,AFNE01.JPG,AFNE01.JPG,AFNE01.JPG,AFNE01.JPG,AFNE01.JPG,,,,,,,,,,,,,,,,,,,,,1,5,15,5,,,AFNE15.jpg,AFSA02.jpg,AFNE11.jpg,AFSA12.jpg,AFNE11.jpg,FN,3,num_2,32,num_4,0.750097985845,,,2017_Dec_04_1738,59.9927265354,MAFE4ImagesEEG,001,102491,
AFNE01.JPG,AFNE01.JPG,AFNE01.JPG,AFNE01.JPG,AFNE01.JPG,AFNE01.JPG,,,,,,,,,,,,,,,,,,,,,1,6,16,8,,,AFSA13.jpg,AFNE04.jpg,AFNE08.jpg,AFSA11.jpg,AFSA11.jpg,FS,4,num_4,16,num_4,0.633462783648,,,2017_Dec_04_1738,59.9927265354,MAFE4ImagesEEG,001,102491,
AFNE01.JPG,AFNE01.JPG,AFNE01.JPG,AFNE01.JPG,AFNE01.JPG,AFNE01.JPG,,,,,,,,,,,,,,,,,,,,,1,7,17,4,,,AFSA05.jpg,AFNE10.jpg,AFSA12.jpg,AFNE16.jpg,AFNE16.jpg,FN,3,num_4,32,num_2,0.716765807243,,,2017_Dec_04_1738,59.9927265354,MAFE4ImagesEEG,001,102491,
AFNE01.JPG,AFNE01.JPG,AFNE01.JPG,AFNE01.JPG,AFNE01.JPG,AFNE01.JPG,,,,,,,,,,,,,,,,,,,,,1,8,18,3,,,AFNE02.jpg,AFSA15.jpg,AFSA13.jpg,AFNE16.jpg,AFSA15.jpg,FS,4,num_6,16,num_6,0.800215087598,,,2017_Dec_04_1738,59.9927265354,MAFE4ImagesEEG,001,102491,
AFNE01.JPG,AFNE01.JPG,AFNE01.JPG,AFNE01.JPG,AFNE01.JPG,AFNE01.JPG,,,,,,,,,,,,,,,,,,,,,1,9,19,0,,,AFNE18.jpg,AFSA03.jpg,AFNE05.jpg,AFSA07.jpg,AFNE18.jpg,FN,3,num_8,32,num_4,0.750163416611,,,2017_Dec_04_1738,59.9927265354,MAFE4ImagesEEG,001,102491,
AFNE01.JPG,AFNE01.JPG,AFNE01.JPG,AFNE01.JPG,AFNE01.JPG,AFNE01.JPG,,,,,,,,,,,,,,,,,,,,,2,0,20,1,,,AFSA20.jpg,AFNE01.jpg,AFSA06.jpg,AFNE13.jpg,AFNE13.jpg,FN,3,num_4,32,num_2,0.583529785974,,,2017_Dec_04_1738,59.9927265354,MAFE4ImagesEEG,001,102491,
AFNE01.JPG,AFNE01.JPG,AFNE01.JPG,AFNE01.JPG,AFNE01.JPG,AFNE01.JPG,,,,,,,,,,,,,,,,,,,,,2,1,21,6,,,AFSA10.jpg,AFNE07.jpg,AFSA14.jpg,AFNE03.jpg,AFSA10.jpg,FS,4,num_8,32,num_4,0.33346387418,,,2017_Dec_04_1738,59.9927265354,MAFE4ImagesEEG,001,102491,
AFNE01.JPG,AFNE01.JPG,AFNE01.JPG,AFNE01.JPG,AFNE01.JPG,AFNE01.JPG,,,,,,,,,,,,,,,,,,,,,2,2,22,2,,,AFNE10.jpg,AFSA07.jpg,AFSA11.jpg,AFNE05.jpg,AFSA07.jpg,FS,4,num_6,32,num_8,0.433512049261,,,2017_Dec_04_1738,59.9927265354,MAFE4ImagesEEG,001,102491,
AFNE01.JPG,AFNE01.JPG,AFNE01.JPG,AFNE01.JPG,AFNE01.JPG,AFNE01.JPG,,,,,,,,,,,,,,,,,,,,,2,3,23,4,,,AFNE13.jpg,AFSA03.jpg,AFSA14.jpg,AFNE05.jpg,AFNE05.jpg,FN,3,num_4,32,num_6,0.333494985942,,,2017_Dec_04_1738,59.9927265354,MAFE4ImagesEEG,001,102491,
AFNE01.JPG,AFNE01.JPG,AFNE01.JPG,AFNE01.JPG,AFNE01.JPG,AFNE01.JPG,,,,,,,,,,,,,,,,,,,,,2,4,24,3,,,AFNE16.jpg,AFSA10.jpg,AFNE04.jpg,AFSA05.jpg,AFNE16.jpg,FN,3,num_8,16,num_8,0.700195137644,,,2017_Dec_04_1738,59.9927265354,MAFE4ImagesEEG,001,102491,
AFNE01.JPG,AFNE01.JPG,AFNE01.JPG,AFNE01.JPG,AFNE01.JPG,AFNE01.JPG,,,,,,,,,,,,,,,,,,,,,2,5,25,5,,,AFNE06.jpg,AFSA15.jpg,AFSA17.jpg,AFNE12.jpg,AFNE06.jpg,FN,3,num_8,32,num_4,0.71679371153,,,2017_Dec_04_1738,59.9927265354,MAFE4ImagesEEG,001,102491,
AFNE01.JPG,AFNE01.JPG,AFNE01.JPG,AFNE01.JPG,AFNE01.JPG,AFNE01.JPG,,,,,,,,,,,,,,,,,,,,,2,6,26,7,,,AFNE09.jpg,AFSA11.jpg,AFNE16.jpg,AFSA18.jpg,AFNE16.jpg,FN,3,num_2,32,num_4,0.700159856351,,,2017_Dec_04_1738,59.9927265354,MAFE4ImagesEEG,001,102491,
AFNE01.JPG,AFNE01.JPG,AFNE01.JPG,AFNE01.JPG,AFNE01.JPG,AFNE01.JPG,,,,,,,,,,,,,,,,,,,,,2,7,27,9,,,AFSA15.jpg,AFSA07.jpg,AFNE05.jpg,AFNE12.jpg,AFSA15.jpg,FS,4,num_8,32,num_4,0.583506692899,,,2017_Dec_04_1738,59.9927265354,MAFE4ImagesEEG,001,102491,
AFNE01.JPG,AFNE01.JPG,AFNE01.JPG,AFNE01.JPG,AFNE01.JPG,AFNE01.JPG,,,,,,,,,,,,,,,,,,,,,2,8,28,8,,,AFNE10.jpg,AFNE06.jpg,AFSA05.jpg,AFSA07.jpg,AFNE10.jpg,FN,3,num_8,16,num_8,0.316851508571,,,2017_Dec_04_1738,59.9927265354,MAFE4ImagesEEG,001,102491,
AFNE01.JPG,AFNE01.JPG,AFNE01.JPG,AFNE01.JPG,AFNE01.JPG,AFNE01.JPG,,,,,,,,,,,,,,,,,,,,,2,9,29,0,,,AFSA07.jpg,AFSA10.jpg,AFNE16.jpg,AFNE08.jpg,AFSA10.jpg,FS,4,num_6,32,num_2,0.500147539889,,,2017_Dec_04_1738,59.9927265354,MAFE4ImagesEEG,001,102491,
AFNE01.JPG,AFNE01.JPG,AFNE01.JPG,AFNE01.JPG,AFNE01.JPG,AFNE01.JPG,,,,,,,,,,,,,,,,,,,,,3,0,30,1,,,AFSA06.jpg,AFNE16.jpg,AFNE15.jpg,AFSA07.jpg,AFNE16.jpg,FN,3,num_6,32,num_8,0.48365288577,,,2017_Dec_04_1738,59.9927265354,MAFE4ImagesEEG,001,102491,
AFNE01.JPG,AFNE01.JPG,AFNE01.JPG,AFNE01.JPG,AFNE01.JPG,AFNE01.JPG,,,,,,,,,,,,,,,,,,,,,3,1,31,0,,,AFNE02.jpg,AFNE10.jpg,AFSA04.jpg,AFSA08.jpg,AFNE10.jpg,FN,3,num_6,16,num_6,0.400120212929,,,2017_Dec_04_1738,59.9927265354,MAFE4ImagesEEG,001,102491,
AFNE01.JPG,AFNE01.JPG,AFNE01.JPG,AFNE01.JPG,AFNE01.JPG,AFNE01.JPG,,,,,,,,,,,,,,,,,,,,,3,2,32,2,,,AFNE10.jpg,AFNE17.jpg,AFSA02.jpg,AFSA12.jpg,AFSA02.jpg,FS,4,num_2,32,num_8,0.416808272945,,,2017_Dec_04_1738,59.9927265354,MAFE4ImagesEEG,001,102491,
AFNE01.JPG,AFNE01.JPG,AFNE01.JPG,AFNE01.JPG,AFNE01.JPG,AFNE01.JPG,,,,,,,,,,,,,,,,,,,,,3,3,33,9,,,AFNE16.jpg,AFSA05.jpg,AFNE17.jpg,AFSA12.jpg,AFSA05.jpg,FS,4,num_6,32,num_8,0.633467915468,,,2017_Dec_04_1738,59.9927265354,MAFE4ImagesEEG,001,102491,
AFNE01.JPG,AFNE01.JPG,AFNE01.JPG,AFNE01.JPG,AFNE01.JPG,AFNE01.JPG,,,,,,,,,,,,,,,,,,,,,3,4,34,5,,,AFNE01.jpg,AFNE15.jpg,AFSA06.jpg,AFSA09.jpg,AFSA09.jpg,FS,4,num_4,32,num_8,0.50016293535,,,2017_Dec_04_1738,59.9927265354,MAFE4ImagesEEG,001,102491,
AFNE01.JPG,AFNE01.JPG,AFNE01.JPG,AFNE01.JPG,AFNE01.JPG,AFNE01.JPG,,,,,,,,,,,,,,,,,,,,,3,5,35,4,,,AFSA14.jpg,AFNE04.jpg,AFSA04.jpg,AFNE06.jpg,AFNE04.jpg,FN,3,num_6,32,num_4,0.566940193065,,,2017_Dec_04_1738,59.9927265354,MAFE4ImagesEEG,001,102491,
AFNE01.JPG,AFNE01.JPG,AFNE01.JPG,AFNE01.JPG,AFNE01.JPG,AFNE01.JPG,,,,,,,,,,,,,,,,,,,,,3,6,36,8,,,AFSA13.jpg,AFNE04.jpg,AFSA11.jpg,AFNE15.jpg,AFNE15.jpg,FN,3,num_4,32,num_8,1.00014176685,,,2017_Dec_04_1738,59.9927265354,MAFE4ImagesEEG,001,102491,
AFNE01.JPG,AFNE01.JPG,AFNE01.JPG,AFNE01.JPG,AFNE01.JPG,AFNE01.JPG,,,,,,,,,,,,,,,,,,,,,3,7,37,7,,,AFSA07.jpg,AFNE02.jpg,AFSA05.jpg,AFNE15.jpg,AFSA07.jpg,FS,4,num_8,32,num_2,0.683446137467,,,2017_Dec_04_1738,59.9927265354,MAFE4ImagesEEG,001,102491,
AFNE01.JPG,AFNE01.JPG,AFNE01.JPG,AFNE01.JPG,AFNE01.JPG,AFNE01.JPG,,,,,,,,,,,,,,,,,,,,,3,8,38,6,,,AFSA02.jpg,AFNE16.jpg,AFNE04.jpg,AFSA17.jpg,AFSA17.jpg,FS,4,num_4,32,num_8,0.400197190465,,,2017_Dec_04_1738,59.9927265354,MAFE4ImagesEEG,001,102491,
