IPosition2,IPosition3,IPosition1,IPosition6,IPosition4,IPosition5,TrialsM1.thisRepN,TrialsM1.thisTrialN,TrialsM1.thisN,TrialsM1.thisIndex,TrialsF1.thisRepN,TrialsF1.thisTrialN,TrialsF1.thisN,TrialsF1.thisIndex,TrialsM2.thisRepN,TrialsM2.thisTrialN,TrialsM2.thisN,TrialsM2.thisIndex,TrialsF2.thisRepN,TrialsF2.thisTrialN,TrialsF2.thisN,TrialsF2.thisIndex,TrialsM3.thisRepN,TrialsM3.thisTrialN,TrialsM3.thisN,TrialsM3.thisIndex,TrialsF3.thisRepN,TrialsF3.thisTrialN,TrialsF3.thisN,TrialsF3.thisIndex,InstrKey_resp.keys,InstrKey_resp.rt,Image0 _Position,Image1 _Position,Image2 _Position,Image3 _Position,Center_image,condition,code,correct_answer,accuracy,Key_Resp.keys,Key_Resp.rt,BreakKey_resp.keys,BreakKey_resp.rt,date,frameRate,expName,session,participant,
,,,,,,,,,,,,,,,,,,,,,,,,,,,,,,space,20.3155130639,,,,,,,,,,,,,,2017_Dec_04_1239,60.0172094335,MAFE4ImagesEEG,001,102427,
AFSA21.JPG,AFNE22.JPG,AFNE21.JPG,AFSA23.JPG,AFSA22.JPG,AFNE23.JPG,0,0,0,0,,,,,,,,,,,,,,,,,,,,,,,AMNE18.jpg,AMSA18.jpg,AMSA09.jpg,AMNE04.jpg,AMNE04.jpg,MN,1,num_4,32,num_2,2.55002665333,,,2017_Dec_04_1239,60.0172094335,MAFE4ImagesEEG,001,102427,
AFSA21.JPG,AFNE23.JPG,AFNE21.JPG,AFSA25.JPG,AFNE25.JPG,AFSA23.JPG,0,1,1,4,,,,,,,,,,,,,,,,,,,,,,,AMSA07.jpg,AMSA06.jpg,AMNE02.jpg,AMNE06.jpg,AMSA06.jpg,MS,2,num_6,16,num_6,1.18344292999,,,2017_Dec_04_1239,60.0172094335,MAFE4ImagesEEG,001,102427,
AMSA25.JPG,AMNE24.JPG,AMSA24.JPG,AMNE26.JPG,AMSA21.JPG,AMNE25.JPG,0,2,2,3,,,,,,,,,,,,,,,,,,,,,,,AMNE03.jpg,AMSA18.jpg,AMSA03.jpg,AMNE13.jpg,AMNE13.jpg,MN,1,num_4,16,num_4,1.41677267104,,,2017_Dec_04_1239,60.0172094335,MAFE4ImagesEEG,001,102427,
AMNE22.JPG,AMSA24.JPG,AMSA22.JPG,AMNE25.JPG,AMNE24.JPG,AMSA25.JPG,0,3,3,7,,,,,,,,,,,,,,,,,,,,,,,AMNE20.jpg,AMSA11.jpg,AMSA03.jpg,AMNE10.jpg,AMNE10.jpg,MN,1,num_4,16,num_4,0.950094906846,,,2017_Dec_04_1239,60.0172094335,MAFE4ImagesEEG,001,102427,
AFNE23.JPG,AFNE24.JPG,AFNE22.JPG,AFSA24.JPG,AFSA22.JPG,AFSA23.JPG,0,4,4,8,,,,,,,,,,,,,,,,,,,,,,,AMNE14.jpg,AMNE06.jpg,AMSA12.jpg,AMSA07.jpg,AMSA12.jpg,MS,2,num_2,32,num_4,0.966791947372,,,2017_Dec_04_1239,60.0172094335,MAFE4ImagesEEG,001,102427,
AFNE22.JPG,AFSA24.JPG,AFSA22.JPG,AFNE25.JPG,AFNE24.JPG,AFSA25.JPG,0,5,5,6,,,,,,,,,,,,,,,,,,,,,,,AMSA02.jpg,AMNE17.jpg,AMNE09.jpg,AMSA05.jpg,AMSA02.jpg,MS,2,num_8,32,num_2,1.266729275,,,2017_Dec_04_1239,60.0172094335,MAFE4ImagesEEG,001,102427,
AMSA21.JPG,AMNE22.JPG,AMNE21.JPG,AMSA23.JPG,AMSA22.JPG,AMNE23.JPG,0,6,6,1,,,,,,,,,,,,,,,,,,,,,,,AMNE03.jpg,AMNE17.jpg,AMSA09.jpg,AMSA06.jpg,AMNE03.jpg,MN,1,num_8,16,num_8,1.20008384134,,,2017_Dec_04_1239,60.0172094335,MAFE4ImagesEEG,001,102427,
AMNE23.JPG,AMNE24.JPG,AMNE22.JPG,AMSA24.JPG,AMSA22.JPG,AMSA23.JPG,0,7,7,9,,,,,,,,,,,,,,,,,,,,,,,AMNE12.jpg,AMSA02.jpg,AMNE06.jpg,AMSA06.jpg,AMNE06.jpg,MN,1,num_2,16,num_2,1.26704841037,,,2017_Dec_04_1239,60.0172094335,MAFE4ImagesEEG,001,102427,
AMSA21.JPG,AMNE23.JPG,AMNE21.JPG,AMSA25.JPG,AMNE25.JPG,AMSA23.JPG,0,8,8,5,,,,,,,,,,,,,,,,,,,,,,,AMNE12.jpg,AMSA01.jpg,AMNE20.jpg,AMSA02.jpg,AMNE20.jpg,MN,1,num_2,16,num_2,1.05013794987,,,2017_Dec_04_1239,60.0172094335,MAFE4ImagesEEG,001,102427,
AFSA25.JPG,AFNE24.JPG,AFSA24.JPG,AFNE21.JPG,AFSA21.JPG,AFNE25.JPG,0,9,9,2,,,,,,,,,,,,,,,,,,,,,,,AMNE10.jpg,AMSA10.jpg,AMNE14.jpg,AMSA20.jpg,AMSA20.jpg,MS,2,num_4,16,num_4,0.866612910759,,,2017_Dec_04_1239,60.0172094335,MAFE4ImagesEEG,001,102427,
AFSA25.JPG,AFNE24.JPG,AFSA24.JPG,AFNE21.JPG,AFSA21.JPG,AFNE25.JPG,,,,,0,0,0,2,,,,,,,,,,,,,,,,,,,AFNE12.jpg,AFSA18.jpg,AFSA14.jpg,AFNE19.jpg,AFSA18.jpg,FS,4,num_6,16,num_6,0.850119539304,,,2017_Dec_04_1239,60.0172094335,MAFE4ImagesEEG,001,102427,
AFNE23.JPG,AFNE24.JPG,AFNE22.JPG,AFSA24.JPG,AFSA22.JPG,AFSA23.JPG,,,,,0,1,1,8,,,,,,,,,,,,,,,,,,,AFNE19.jpg,AFSA13.jpg,AFSA02.jpg,AFNE06.jpg,AFSA02.jpg,FS,4,num_2,16,num_2,1.91667035525,,,2017_Dec_04_1239,60.0172094335,MAFE4ImagesEEG,001,102427,
AFSA21.JPG,AFNE23.JPG,AFNE21.JPG,AFSA25.JPG,AFNE25.JPG,AFSA23.JPG,,,,,0,2,2,4,,,,,,,,,,,,,,,,,,,AFNE14.jpg,AFNE05.jpg,AFSA01.jpg,AFSA20.jpg,AFNE05.jpg,FN,3,num_6,16,num_6,1.05009721615,,,2017_Dec_04_1239,60.0172094335,MAFE4ImagesEEG,001,102427,
AMNE23.JPG,AMNE24.JPG,AMNE22.JPG,AMSA24.JPG,AMSA22.JPG,AMSA23.JPG,,,,,0,3,3,9,,,,,,,,,,,,,,,,,,,AFSA18.jpg,AFSA02.jpg,AFNE12.jpg,AFNE14.jpg,AFSA02.jpg,FS,4,num_6,16,num_6,1.53337547835,,,2017_Dec_04_1239,60.0172094335,MAFE4ImagesEEG,001,102427,
AMSA21.JPG,AMNE22.JPG,AMNE21.JPG,AMSA23.JPG,AMSA22.JPG,AMNE23.JPG,,,,,0,4,4,1,,,,,,,,,,,,,,,,,,,AFNE02.jpg,AFNE17.jpg,AFSA14.jpg,AFSA12.jpg,AFNE17.jpg,FN,3,num_6,32,num_8,1.46673421445,,,2017_Dec_04_1239,60.0172094335,MAFE4ImagesEEG,001,102427,
AMSA21.JPG,AMNE23.JPG,AMNE21.JPG,AMSA25.JPG,AMNE25.JPG,AMSA23.JPG,,,,,0,5,5,5,,,,,,,,,,,,,,,,,,,AFSA02.jpg,AFNE15.jpg,AFSA04.jpg,AFNE07.jpg,AFSA02.jpg,FS,4,num_8,16,num_8,1.59978260286,,,2017_Dec_04_1239,60.0172094335,MAFE4ImagesEEG,001,102427,
AFSA21.JPG,AFNE22.JPG,AFNE21.JPG,AFSA23.JPG,AFSA22.JPG,AFNE23.JPG,,,,,0,6,6,0,,,,,,,,,,,,,,,,,,,AFNE05.jpg,AFSA20.jpg,AFSA14.jpg,AFNE04.jpg,AFNE04.jpg,FN,3,num_4,16,num_4,1.23338939855,,,2017_Dec_04_1239,60.0172094335,MAFE4ImagesEEG,001,102427,
AFNE22.JPG,AFSA24.JPG,AFSA22.JPG,AFNE25.JPG,AFNE24.JPG,AFSA25.JPG,,,,,0,7,7,6,,,,,,,,,,,,,,,,,,,AFNE18.jpg,AFSA07.jpg,AFNE15.jpg,AFSA08.jpg,AFNE15.jpg,FN,3,num_2,16,num_2,1.16671766411,,,2017_Dec_04_1239,60.0172094335,MAFE4ImagesEEG,001,102427,
AMSA25.JPG,AMNE24.JPG,AMSA24.JPG,AMNE26.JPG,AMSA21.JPG,AMNE25.JPG,,,,,0,8,8,3,,,,,,,,,,,,,,,,,,,AFNE20.jpg,AFNE02.jpg,AFSA19.jpg,AFSA03.jpg,AFSA03.jpg,FS,4,num_4,32,num_2,1.60033555725,,,2017_Dec_04_1239,60.0172094335,MAFE4ImagesEEG,001,102427,
AMNE22.JPG,AMSA24.JPG,AMSA22.JPG,AMNE25.JPG,AMNE24.JPG,AMSA25.JPG,,,,,0,9,9,7,,,,,,,,,,,,,,,,,,,AFSA15.jpg,AFNE06.jpg,AFSA08.jpg,AFNE18.jpg,AFSA08.jpg,FS,4,num_2,16,num_2,1.16679175501,,,2017_Dec_04_1239,60.0172094335,MAFE4ImagesEEG,001,102427,
AFSA21.JPG,AFNE22.JPG,AFNE21.JPG,AFSA23.JPG,AFSA22.JPG,AFNE23.JPG,,,,,,,,,0,0,0,0,,,,,,,,,,,,,,,AMNE04.jpg,AMNE06.jpg,AMSA13.jpg,AMSA19.jpg,AMNE06.jpg,MN,1,num_6,16,num_6,1.10012547323,,,2017_Dec_04_1239,60.0172094335,MAFE4ImagesEEG,001,102427,
AMSA21.JPG,AMNE23.JPG,AMNE21.JPG,AMSA25.JPG,AMNE25.JPG,AMSA23.JPG,,,,,,,,,0,1,1,5,,,,,,,,,,,,,,,AMNE04.jpg,AMSA13.jpg,AMNE20.jpg,AMSA03.jpg,AMNE04.jpg,MN,1,num_8,32,num_6,0.983454668894,,,2017_Dec_04_1239,60.0172094335,MAFE4ImagesEEG,001,102427,
AMSA25.JPG,AMNE24.JPG,AMSA24.JPG,AMNE26.JPG,AMSA21.JPG,AMNE25.JPG,,,,,,,,,0,2,2,3,,,,,,,,,,,,,,,AMSA09.jpg,AMNE02.jpg,AMSA02.jpg,AMNE11.jpg,AMNE11.jpg,MN,1,num_4,32,num_2,1.21674720407,,,2017_Dec_04_1239,60.0172094335,MAFE4ImagesEEG,001,102427,
AFNE23.JPG,AFNE24.JPG,AFNE22.JPG,AFSA24.JPG,AFSA22.JPG,AFSA23.JPG,,,,,,,,,0,3,3,8,,,,,,,,,,,,,,,AMNE10.jpg,AMSA09.jpg,AMNE01.jpg,AMSA02.jpg,AMSA02.jpg,MS,2,num_4,32,num_2,1.18348430539,,,2017_Dec_04_1239,60.0172094335,MAFE4ImagesEEG,001,102427,
AFSA21.JPG,AFNE23.JPG,AFNE21.JPG,AFSA25.JPG,AFNE25.JPG,AFSA23.JPG,,,,,,,,,0,4,4,4,,,,,,,,,,,,,,,AMNE04.jpg,AMNE05.jpg,AMSA19.jpg,AMSA14.jpg,AMSA14.jpg,MS,2,num_4,16,num_4,0.866780016106,,,2017_Dec_04_1239,60.0172094335,MAFE4ImagesEEG,001,102427,
AMSA21.JPG,AMNE22.JPG,AMNE21.JPG,AMSA23.JPG,AMSA22.JPG,AMNE23.JPG,,,,,,,,,0,5,5,1,,,,,,,,,,,,,,,AMNE04.jpg,AMSA01.jpg,AMNE16.jpg,AMSA16.jpg,AMSA16.jpg,MS,2,num_4,16,num_4,1.11668972787,,,2017_Dec_04_1239,60.0172094335,MAFE4ImagesEEG,001,102427,
AMNE23.JPG,AMNE24.JPG,AMNE22.JPG,AMSA24.JPG,AMSA22.JPG,AMSA23.JPG,,,,,,,,,0,6,6,9,,,,,,,,,,,,,,,AMNE02.jpg,AMSA20.jpg,AMSA15.jpg,AMNE05.jpg,AMNE02.jpg,MN,1,num_8,16,num_8,1.30008005654,,,2017_Dec_04_1239,60.0172094335,MAFE4ImagesEEG,001,102427,
AFSA25.JPG,AFNE24.JPG,AFSA24.JPG,AFNE21.JPG,AFSA21.JPG,AFNE25.JPG,,,,,,,,,0,7,7,2,,,,,,,,,,,,,,,AMSA08.jpg,AMNE04.jpg,AMNE20.jpg,AMSA19.jpg,AMSA08.jpg,MS,2,num_8,32,num_2,1.05011774343,,,2017_Dec_04_1239,60.0172094335,MAFE4ImagesEEG,001,102427,
AFNE22.JPG,AFSA24.JPG,AFSA22.JPG,AFNE25.JPG,AFNE24.JPG,AFSA25.JPG,,,,,,,,,0,8,8,6,,,,,,,,,,,,,,,AMSA18.jpg,AMNE13.jpg,AMNE15.jpg,AMSA13.jpg,AMNE15.jpg,MN,1,num_2,32,num_6,1.25012075831,,,2017_Dec_04_1239,60.0172094335,MAFE4ImagesEEG,001,102427,
AMNE22.JPG,AMSA24.JPG,AMSA22.JPG,AMNE25.JPG,AMNE24.JPG,AMSA25.JPG,,,,,,,,,0,9,9,7,,,,,,,,,,,,,,,AMNE17.jpg,AMNE18.jpg,AMSA01.jpg,AMSA18.jpg,AMSA18.jpg,MS,2,num_4,32,num_2,1.18341662921,,,2017_Dec_04_1239,60.0172094335,MAFE4ImagesEEG,001,102427,
AMSA21.JPG,AMNE23.JPG,AMNE21.JPG,AMSA25.JPG,AMNE25.JPG,AMSA23.JPG,,,,,,,,,,,,,0,0,0,5,,,,,,,,,,,AFNE20.jpg,AFSA02.jpg,AFSA16.jpg,AFNE18.jpg,AFNE18.jpg,FN,3,num_4,32,num_8,1.36671939609,,,2017_Dec_04_1239,60.0172094335,MAFE4ImagesEEG,001,102427,
AFSA21.JPG,AFNE23.JPG,AFNE21.JPG,AFSA25.JPG,AFNE25.JPG,AFSA23.JPG,,,,,,,,,,,,,0,1,1,4,,,,,,,,,,,AFSA10.jpg,AFSA03.jpg,AFNE17.jpg,AFNE09.jpg,AFNE09.jpg,FN,3,num_4,16,num_4,0.750093174865,,,2017_Dec_04_1239,60.0172094335,MAFE4ImagesEEG,001,102427,
AFNE23.JPG,AFNE24.JPG,AFNE22.JPG,AFSA24.JPG,AFSA22.JPG,AFSA23.JPG,,,,,,,,,,,,,0,2,2,8,,,,,,,,,,,AFNE05.jpg,AFSA15.jpg,AFNE09.jpg,AFSA20.jpg,AFSA20.jpg,FS,4,num_4,16,num_4,1.01674547233,,,2017_Dec_04_1239,60.0172094335,MAFE4ImagesEEG,001,102427,
AMNE22.JPG,AMSA24.JPG,AMSA22.JPG,AMNE25.JPG,AMNE24.JPG,AMSA25.JPG,,,,,,,,,,,,,0,3,3,7,,,,,,,,,,,AFNE18.jpg,AFSA07.jpg,AFSA03.jpg,AFNE17.jpg,AFNE18.jpg,FN,3,num_8,16,num_8,1.20011463226,,,2017_Dec_04_1239,60.0172094335,MAFE4ImagesEEG,001,102427,
AMNE23.JPG,AMNE24.JPG,AMNE22.JPG,AMSA24.JPG,AMSA22.JPG,AMSA23.JPG,,,,,,,,,,,,,0,4,4,9,,,,,,,,,,,AFSA04.jpg,AFSA05.jpg,AFNE17.jpg,AFNE08.jpg,AFSA04.jpg,FS,4,num_8,32,num_4,1.31672898633,,,2017_Dec_04_1239,60.0172094335,MAFE4ImagesEEG,001,102427,
AFNE22.JPG,AFSA24.JPG,AFSA22.JPG,AFNE25.JPG,AFNE24.JPG,AFSA25.JPG,,,,,,,,,,,,,0,5,5,6,,,,,,,,,,,AFNE15.jpg,AFSA05.jpg,AFNE20.jpg,AFSA16.jpg,AFNE15.jpg,FN,3,num_8,16,num_8,1.81665489567,,,2017_Dec_04_1239,60.0172094335,MAFE4ImagesEEG,001,102427,
AFSA25.JPG,AFNE24.JPG,AFSA24.JPG,AFNE21.JPG,AFSA21.JPG,AFNE25.JPG,,,,,,,,,,,,,0,6,6,2,,,,,,,,,,,AFSA12.jpg,AFSA20.jpg,AFNE10.jpg,AFNE07.jpg,AFSA12.jpg,FS,4,num_8,16,num_8,1.11648220965,,,2017_Dec_04_1239,60.0172094335,MAFE4ImagesEEG,001,102427,
AMSA21.JPG,AMNE22.JPG,AMNE21.JPG,AMSA23.JPG,AMSA22.JPG,AMNE23.JPG,,,,,,,,,,,,,0,7,7,1,,,,,,,,,,,AFSA11.jpg,AFNE10.jpg,AFNE09.jpg,AFSA03.jpg,AFSA11.jpg,FS,4,num_8,16,num_8,1.26675525494,,,2017_Dec_04_1239,60.0172094335,MAFE4ImagesEEG,001,102427,
AMSA25.JPG,AMNE24.JPG,AMSA24.JPG,AMNE26.JPG,AMSA21.JPG,AMNE25.JPG,,,,,,,,,,,,,0,8,8,3,,,,,,,,,,,AFNE09.jpg,AFSA03.jpg,AFSA08.jpg,AFNE05.jpg,AFNE05.jpg,FN,3,num_4,16,num_4,1.5500507087,,,2017_Dec_04_1239,60.0172094335,MAFE4ImagesEEG,001,102427,
AFSA21.JPG,AFNE22.JPG,AFNE21.JPG,AFSA23.JPG,AFSA22.JPG,AFNE23.JPG,,,,,,,,,,,,,0,9,9,0,,,,,,,,,,,AFSA12.jpg,AFNE07.jpg,AFSA19.jpg,AFNE08.jpg,AFNE07.jpg,FN,3,num_6,16,num_6,1.20032375422,,,2017_Dec_04_1239,60.0172094335,MAFE4ImagesEEG,001,102427,
AFSA21.JPG,AFNE23.JPG,AFNE21.JPG,AFSA25.JPG,AFNE25.JPG,AFSA23.JPG,,,,,,,,,,,,,,,,,0,0,0,4,,,,,,,AMSA05.jpg,AMNE16.jpg,AMSA20.jpg,AMNE02.jpg,AMNE02.jpg,MN,1,num_4,16,num_4,1.40012726933,,,2017_Dec_04_1239,60.0172094335,MAFE4ImagesEEG,001,102427,
AMSA21.JPG,AMNE23.JPG,AMNE21.JPG,AMSA25.JPG,AMNE25.JPG,AMSA23.JPG,,,,,,,,,,,,,,,,,0,1,1,5,,,,,,,AMSA11.jpg,AMNE19.jpg,AMNE17.jpg,AMSA02.jpg,AMSA02.jpg,MS,2,num_4,32,num_2,1.50009173155,,,2017_Dec_04_1239,60.0172094335,MAFE4ImagesEEG,001,102427,
AMNE23.JPG,AMNE24.JPG,AMNE22.JPG,AMSA24.JPG,AMSA22.JPG,AMSA23.JPG,,,,,,,,,,,,,,,,,0,2,2,9,,,,,,,AMNE06.jpg,AMSA07.jpg,AMSA09.jpg,AMNE08.jpg,AMNE06.jpg,MN,1,num_8,32,num_6,0.850133972708,,,2017_Dec_04_1239,60.0172094335,MAFE4ImagesEEG,001,102427,
AFSA25.JPG,AFNE24.JPG,AFSA24.JPG,AFNE21.JPG,AFSA21.JPG,AFNE25.JPG,,,,,,,,,,,,,,,,,0,3,3,2,,,,,,,AMNE20.jpg,AMSA18.jpg,AMNE13.jpg,AMSA12.jpg,AMSA12.jpg,MS,2,num_4,16,num_4,0.733452263288,,,2017_Dec_04_1239,60.0172094335,MAFE4ImagesEEG,001,102427,
AFSA21.JPG,AFNE22.JPG,AFNE21.JPG,AFSA23.JPG,AFSA22.JPG,AFNE23.JPG,,,,,,,,,,,,,,,,,0,4,4,0,,,,,,,AMNE18.jpg,AMNE15.jpg,AMSA04.jpg,AMSA15.jpg,AMNE18.jpg,MN,1,num_8,32,num_6,1.38340104138,,,2017_Dec_04_1239,60.0172094335,MAFE4ImagesEEG,001,102427,
AFNE22.JPG,AFSA24.JPG,AFSA22.JPG,AFNE25.JPG,AFNE24.JPG,AFSA25.JPG,,,,,,,,,,,,,,,,,0,5,5,6,,,,,,,AMNE14.jpg,AMSA07.jpg,AMNE18.jpg,AMSA08.jpg,AMNE14.jpg,MN,1,num_8,32,num_2,1.33345970465,,,2017_Dec_04_1239,60.0172094335,MAFE4ImagesEEG,001,102427,
AMSA25.JPG,AMNE24.JPG,AMSA24.JPG,AMNE26.JPG,AMSA21.JPG,AMNE25.JPG,,,,,,,,,,,,,,,,,0,6,6,3,,,,,,,AMNE16.jpg,AMSA19.jpg,AMSA12.jpg,AMNE19.jpg,AMSA12.jpg,MS,2,num_2,16,num_2,1.40008781827,,,2017_Dec_04_1239,60.0172094335,MAFE4ImagesEEG,001,102427,
AFNE23.JPG,AFNE24.JPG,AFNE22.JPG,AFSA24.JPG,AFSA22.JPG,AFSA23.JPG,,,,,,,,,,,,,,,,,0,7,7,8,,,,,,,AMNE11.jpg,AMSA08.jpg,AMSA14.jpg,AMNE14.jpg,AMNE14.jpg,MN,1,num_4,32,num_8,1.35011857725,,,2017_Dec_04_1239,60.0172094335,MAFE4ImagesEEG,001,102427,
AMSA21.JPG,AMNE22.JPG,AMNE21.JPG,AMSA23.JPG,AMSA22.JPG,AMNE23.JPG,,,,,,,,,,,,,,,,,0,8,8,1,,,,,,,AMSA06.jpg,AMNE16.jpg,AMNE17.jpg,AMSA18.jpg,AMSA18.jpg,MS,2,num_4,16,num_4,0.683498738566,,,2017_Dec_04_1239,60.0172094335,MAFE4ImagesEEG,001,102427,
AMNE22.JPG,AMSA24.JPG,AMSA22.JPG,AMNE25.JPG,AMNE24.JPG,AMSA25.JPG,,,,,,,,,,,,,,,,,0,9,9,7,,,,,,,AMNE17.jpg,AMSA01.jpg,AMSA15.jpg,AMNE02.jpg,AMNE02.jpg,MN,1,num_4,32,num_8,0.950153281214,,,2017_Dec_04_1239,60.0172094335,MAFE4ImagesEEG,001,102427,
AFSA21.JPG,AFNE22.JPG,AFNE21.JPG,AFSA23.JPG,AFSA22.JPG,AFNE23.JPG,,,,,,,,,,,,,,,,,,,,,0,0,0,0,,,AFSA11.jpg,AFNE11.jpg,AFNE17.jpg,AFSA15.jpg,AFSA11.jpg,FS,4,num_8,32,num_4,1.08342362149,,,2017_Dec_04_1239,60.0172094335,MAFE4ImagesEEG,001,102427,
AFNE23.JPG,AFNE24.JPG,AFNE22.JPG,AFSA24.JPG,AFSA22.JPG,AFSA23.JPG,,,,,,,,,,,,,,,,,,,,,0,1,1,8,,,AFSA18.jpg,AFNE09.jpg,AFNE05.jpg,AFSA19.jpg,AFNE05.jpg,FN,3,num_2,32,num_6,1.30008133943,,,2017_Dec_04_1239,60.0172094335,MAFE4ImagesEEG,001,102427,
AFSA25.JPG,AFNE24.JPG,AFSA24.JPG,AFNE21.JPG,AFSA21.JPG,AFNE25.JPG,,,,,,,,,,,,,,,,,,,,,0,2,2,2,,,AFNE08.jpg,AFNE19.jpg,AFSA19.jpg,AFSA15.jpg,AFSA15.jpg,FS,4,num_4,16,num_4,0.750134229427,,,2017_Dec_04_1239,60.0172094335,MAFE4ImagesEEG,001,102427,
AFSA21.JPG,AFNE23.JPG,AFNE21.JPG,AFSA25.JPG,AFNE25.JPG,AFSA23.JPG,,,,,,,,,,,,,,,,,,,,,0,3,3,4,,,AFSA07.jpg,AFSA03.jpg,AFNE04.jpg,AFNE06.jpg,AFNE04.jpg,FN,3,num_2,16,num_2,1.36673382926,,,2017_Dec_04_1239,60.0172094335,MAFE4ImagesEEG,001,102427,
AFNE22.JPG,AFSA24.JPG,AFSA22.JPG,AFNE25.JPG,AFNE24.JPG,AFSA25.JPG,,,,,,,,,,,,,,,,,,,,,0,4,4,6,,,AFNE02.jpg,AFSA17.jpg,AFNE05.jpg,AFSA10.jpg,AFSA10.jpg,FS,4,num_4,16,num_4,1.06672433554,,,2017_Dec_04_1239,60.0172094335,MAFE4ImagesEEG,001,102427,
AMSA21.JPG,AMNE22.JPG,AMNE21.JPG,AMSA23.JPG,AMSA22.JPG,AMNE23.JPG,,,,,,,,,,,,,,,,,,,,,0,5,5,1,,,AFSA06.jpg,AFNE05.jpg,AFNE14.jpg,AFSA20.jpg,AFNE05.jpg,FN,3,num_6,32,num_2,0.950091699371,,,2017_Dec_04_1239,60.0172094335,MAFE4ImagesEEG,001,102427,
AMNE22.JPG,AMSA24.JPG,AMSA22.JPG,AMNE25.JPG,AMNE24.JPG,AMSA25.JPG,,,,,,,,,,,,,,,,,,,,,0,6,6,7,,,AFNE16.jpg,AFNE19.jpg,AFSA11.jpg,AFSA20.jpg,AFNE19.jpg,FN,3,num_6,16,num_6,0.933484786423,,,2017_Dec_04_1239,60.0172094335,MAFE4ImagesEEG,001,102427,
AMSA25.JPG,AMNE24.JPG,AMSA24.JPG,AMNE26.JPG,AMSA21.JPG,AMNE25.JPG,,,,,,,,,,,,,,,,,,,,,0,7,7,3,,,AFSA11.jpg,AFSA09.jpg,AFNE07.jpg,AFNE20.jpg,AFNE07.jpg,FN,3,num_2,16,num_2,1.91673706891,,,2017_Dec_04_1239,60.0172094335,MAFE4ImagesEEG,001,102427,
AMNE23.JPG,AMNE24.JPG,AMNE22.JPG,AMSA24.JPG,AMSA22.JPG,AMSA23.JPG,,,,,,,,,,,,,,,,,,,,,0,8,8,9,,,AFSA18.jpg,AFSA13.jpg,AFNE06.jpg,AFNE16.jpg,AFNE16.jpg,FN,3,num_4,32,num_2,1.10007928684,,,2017_Dec_04_1239,60.0172094335,MAFE4ImagesEEG,001,102427,
AMSA21.JPG,AMNE23.JPG,AMNE21.JPG,AMSA25.JPG,AMNE25.JPG,AMSA23.JPG,,,,,,,,,,,,,,,,,,,,,0,9,9,5,,,AFNE02.jpg,AFNE11.jpg,AFSA20.jpg,AFSA12.jpg,AFNE02.jpg,FN,3,num_8,32,num_6,1.40011572279,,,2017_Dec_04_1239,60.0172094335,MAFE4ImagesEEG,001,102427,
,,,,,,,,,,,,,,,,,,,,,,,,,,,,,,,,,,,,,,,,,,,space,4.66648480762,2017_Dec_04_1239,60.0172094335,MAFE4ImagesEEG,001,102427,
AFNE01.JPG,AFNE01.JPG,AFNE01.JPG,AFNE01.JPG,AFNE01.JPG,AFNE01.JPG,0,0,0,0,,,,,,,,,,,,,,,,,,,,,,,AMSA18.jpg,AMNE12.jpg,AMNE17.jpg,AMSA20.jpg,AMSA18.jpg,MS,2,num_8,32,num_2,2.29989851825,,,2017_Dec_04_1239,60.0172094335,MAFE4ImagesEEG,001,102427,
AFNE01.JPG,AFNE01.JPG,AFNE01.JPG,AFNE01.JPG,AFNE01.JPG,AFNE01.JPG,0,1,1,9,,,,,,,,,,,,,,,,,,,,,,,AMNE10.jpg,AMNE14.jpg,AMSA09.jpg,AMSA20.jpg,AMSA09.jpg,MS,2,num_2,32,num_6,1.41670050472,,,2017_Dec_04_1239,60.0172094335,MAFE4ImagesEEG,001,102427,
AFNE01.JPG,AFNE01.JPG,AFNE01.JPG,AFNE01.JPG,AFNE01.JPG,AFNE01.JPG,0,2,2,8,,,,,,,,,,,,,,,,,,,,,,,AMNE18.jpg,AMSA06.jpg,AMNE01.jpg,AMSA19.jpg,AMSA06.jpg,MS,2,num_6,32,num_8,1.68338583852,,,2017_Dec_04_1239,60.0172094335,MAFE4ImagesEEG,001,102427,
AFNE01.JPG,AFNE01.JPG,AFNE01.JPG,AFNE01.JPG,AFNE01.JPG,AFNE01.JPG,0,3,3,6,,,,,,,,,,,,,,,,,,,,,,,AMNE12.jpg,AMSA15.jpg,AMSA10.jpg,AMNE17.jpg,AMNE12.jpg,MN,1,num_8,32,num_4,0.916618716205,,,2017_Dec_04_1239,60.0172094335,MAFE4ImagesEEG,001,102427,
AFNE01.JPG,AFNE01.JPG,AFNE01.JPG,AFNE01.JPG,AFNE01.JPG,AFNE01.JPG,0,4,4,7,,,,,,,,,,,,,,,,,,,,,,,AMSA01.jpg,AMSA05.jpg,AMNE06.jpg,AMNE12.jpg,AMNE12.jpg,MN,1,num_4,32,num_2,1.56668777112,,,2017_Dec_04_1239,60.0172094335,MAFE4ImagesEEG,001,102427,
AFNE01.JPG,AFNE01.JPG,AFNE01.JPG,AFNE01.JPG,AFNE01.JPG,AFNE01.JPG,0,5,5,1,,,,,,,,,,,,,,,,,,,,,,,AMNE05.jpg,AMSA07.jpg,AMNE14.jpg,AMSA15.jpg,AMSA07.jpg,MS,2,num_6,32,num_4,1.18325144844,,,2017_Dec_04_1239,60.0172094335,MAFE4ImagesEEG,001,102427,
AFNE01.JPG,AFNE01.JPG,AFNE01.JPG,AFNE01.JPG,AFNE01.JPG,AFNE01.JPG,0,6,6,5,,,,,,,,,,,,,,,,,,,,,,,AMSA13.jpg,AMNE11.jpg,AMSA11.jpg,AMNE07.jpg,AMSA13.jpg,MS,2,num_8,32,num_6,1.25008291099,,,2017_Dec_04_1239,60.0172094335,MAFE4ImagesEEG,001,102427,
AFNE01.JPG,AFNE01.JPG,AFNE01.JPG,AFNE01.JPG,AFNE01.JPG,AFNE01.JPG,0,7,7,4,,,,,,,,,,,,,,,,,,,,,,,AMSA08.jpg,AMNE15.jpg,AMSA18.jpg,AMNE17.jpg,AMNE17.jpg,MN,1,num_4,16,num_4,1.48338731378,,,2017_Dec_04_1239,60.0172094335,MAFE4ImagesEEG,001,102427,
AFNE01.JPG,AFNE01.JPG,AFNE01.JPG,AFNE01.JPG,AFNE01.JPG,AFNE01.JPG,0,8,8,2,,,,,,,,,,,,,,,,,,,,,,,AMSA09.jpg,AMNE19.jpg,AMSA10.jpg,AMNE05.jpg,AMSA09.jpg,MS,2,num_8,32,num_2,1.41674733255,,,2017_Dec_04_1239,60.0172094335,MAFE4ImagesEEG,001,102427,
AFNE01.JPG,AFNE01.JPG,AFNE01.JPG,AFNE01.JPG,AFNE01.JPG,AFNE01.JPG,0,9,9,3,,,,,,,,,,,,,,,,,,,,,,,AMSA13.jpg,AMNE06.jpg,AMSA19.jpg,AMNE15.jpg,AMNE06.jpg,MN,1,num_6,32,num_4,0.900124061853,,,2017_Dec_04_1239,60.0172094335,MAFE4ImagesEEG,001,102427,
AFNE01.JPG,AFNE01.JPG,AFNE01.JPG,AFNE01.JPG,AFNE01.JPG,AFNE01.JPG,1,0,10,2,,,,,,,,,,,,,,,,,,,,,,,AMNE02.jpg,AMSA13.jpg,AMNE19.jpg,AMSA12.jpg,AMNE02.jpg,MN,1,num_8,16,num_8,1.11672982015,,,2017_Dec_04_1239,60.0172094335,MAFE4ImagesEEG,001,102427,
AFNE01.JPG,AFNE01.JPG,AFNE01.JPG,AFNE01.JPG,AFNE01.JPG,AFNE01.JPG,1,1,11,6,,,,,,,,,,,,,,,,,,,,,,,AMSA04.jpg,AMSA17.jpg,AMNE12.jpg,AMNE10.jpg,AMNE10.jpg,MN,1,num_4,32,num_2,1.25011017406,,,2017_Dec_04_1239,60.0172094335,MAFE4ImagesEEG,001,102427,
AFNE01.JPG,AFNE01.JPG,AFNE01.JPG,AFNE01.JPG,AFNE01.JPG,AFNE01.JPG,1,2,12,4,,,,,,,,,,,,,,,,,,,,,,,AMSA07.jpg,AMSA18.jpg,AMNE20.jpg,AMNE08.jpg,AMSA18.jpg,MS,2,num_6,48,None,,,,2017_Dec_04_1239,60.0172094335,MAFE4ImagesEEG,001,102427,
AFNE01.JPG,AFNE01.JPG,AFNE01.JPG,AFNE01.JPG,AFNE01.JPG,AFNE01.JPG,1,3,13,5,,,,,,,,,,,,,,,,,,,,,,,AMSA18.jpg,AMNE15.jpg,AMSA12.jpg,AMNE13.jpg,AMSA18.jpg,MS,2,num_8,32,num_2,1.21673437487,,,2017_Dec_04_1239,60.0172094335,MAFE4ImagesEEG,001,102427,
AFNE01.JPG,AFNE01.JPG,AFNE01.JPG,AFNE01.JPG,AFNE01.JPG,AFNE01.JPG,1,4,14,1,,,,,,,,,,,,,,,,,,,,,,,AMNE04.jpg,AMSA07.jpg,AMSA18.jpg,AMNE01.jpg,AMNE01.jpg,MN,1,num_4,32,num_6,1.05006033112,,,2017_Dec_04_1239,60.0172094335,MAFE4ImagesEEG,001,102427,
AFNE01.JPG,AFNE01.JPG,AFNE01.JPG,AFNE01.JPG,AFNE01.JPG,AFNE01.JPG,1,5,15,9,,,,,,,,,,,,,,,,,,,,,,,AMNE12.jpg,AMNE07.jpg,AMSA09.jpg,AMSA14.jpg,AMNE07.jpg,MN,1,num_6,32,num_4,0.900127589935,,,2017_Dec_04_1239,60.0172094335,MAFE4ImagesEEG,001,102427,
AFNE01.JPG,AFNE01.JPG,AFNE01.JPG,AFNE01.JPG,AFNE01.JPG,AFNE01.JPG,1,6,16,3,,,,,,,,,,,,,,,,,,,,,,,AMSA11.jpg,AMSA05.jpg,AMNE10.jpg,AMNE09.jpg,AMNE09.jpg,MN,1,num_4,32,num_2,1.08345473325,,,2017_Dec_04_1239,60.0172094335,MAFE4ImagesEEG,001,102427,
AFNE01.JPG,AFNE01.JPG,AFNE01.JPG,AFNE01.JPG,AFNE01.JPG,AFNE01.JPG,1,7,17,8,,,,,,,,,,,,,,,,,,,,,,,AMSA18.jpg,AMNE08.jpg,AMSA05.jpg,AMNE02.jpg,AMNE08.jpg,MN,1,num_6,32,num_4,1.05010234797,,,2017_Dec_04_1239,60.0172094335,MAFE4ImagesEEG,001,102427,
AFNE01.JPG,AFNE01.JPG,AFNE01.JPG,AFNE01.JPG,AFNE01.JPG,AFNE01.JPG,1,8,18,0,,,,,,,,,,,,,,,,,,,,,,,AMNE12.jpg,AMSA08.jpg,AMSA10.jpg,AMNE07.jpg,AMNE07.jpg,MN,1,num_4,16,num_4,1.56673010881,,,2017_Dec_04_1239,60.0172094335,MAFE4ImagesEEG,001,102427,
AFNE01.JPG,AFNE01.JPG,AFNE01.JPG,AFNE01.JPG,AFNE01.JPG,AFNE01.JPG,1,9,19,7,,,,,,,,,,,,,,,,,,,,,,,AMNE02.jpg,AMSA20.jpg,AMSA07.jpg,AMNE07.jpg,AMSA07.jpg,MS,2,num_2,32,num_8,1.06681767059,,,2017_Dec_04_1239,60.0172094335,MAFE4ImagesEEG,001,102427,
AFNE01.JPG,AFNE01.JPG,AFNE01.JPG,AFNE01.JPG,AFNE01.JPG,AFNE01.JPG,2,0,20,9,,,,,,,,,,,,,,,,,,,,,,,AMNE07.jpg,AMSA04.jpg,AMSA17.jpg,AMNE15.jpg,AMSA04.jpg,MS,2,num_6,32,num_2,1.10006934381,,,2017_Dec_04_1239,60.0172094335,MAFE4ImagesEEG,001,102427,
AFNE01.JPG,AFNE01.JPG,AFNE01.JPG,AFNE01.JPG,AFNE01.JPG,AFNE01.JPG,2,1,21,6,,,,,,,,,,,,,,,,,,,,,,,AMNE16.jpg,AMNE13.jpg,AMSA16.jpg,AMSA11.jpg,AMNE16.jpg,MN,1,num_8,16,num_8,1.0000865995,,,2017_Dec_04_1239,60.0172094335,MAFE4ImagesEEG,001,102427,
AFNE01.JPG,AFNE01.JPG,AFNE01.JPG,AFNE01.JPG,AFNE01.JPG,AFNE01.JPG,2,2,22,4,,,,,,,,,,,,,,,,,,,,,,,AMNE09.jpg,AMSA13.jpg,AMNE05.jpg,AMSA02.jpg,AMSA02.jpg,MS,2,num_4,32,num_6,1.23344135843,,,2017_Dec_04_1239,60.0172094335,MAFE4ImagesEEG,001,102427,
AFNE01.JPG,AFNE01.JPG,AFNE01.JPG,AFNE01.JPG,AFNE01.JPG,AFNE01.JPG,2,3,23,8,,,,,,,,,,,,,,,,,,,,,,,AMNE05.jpg,AMSA15.jpg,AMSA18.jpg,AMNE16.jpg,AMNE05.jpg,MN,1,num_8,16,num_8,1.00008916552,,,2017_Dec_04_1239,60.0172094335,MAFE4ImagesEEG,001,102427,
AFNE01.JPG,AFNE01.JPG,AFNE01.JPG,AFNE01.JPG,AFNE01.JPG,AFNE01.JPG,2,4,24,0,,,,,,,,,,,,,,,,,,,,,,,AMSA17.jpg,AMNE07.jpg,AMNE03.jpg,AMSA13.jpg,AMNE03.jpg,MN,1,num_2,16,num_2,1.50008307141,,,2017_Dec_04_1239,60.0172094335,MAFE4ImagesEEG,001,102427,
AFNE01.JPG,AFNE01.JPG,AFNE01.JPG,AFNE01.JPG,AFNE01.JPG,AFNE01.JPG,2,5,25,5,,,,,,,,,,,,,,,,,,,,,,,AMNE02.jpg,AMSA05.jpg,AMNE20.jpg,AMSA15.jpg,AMNE20.jpg,MN,1,num_2,16,num_2,1.63339125901,,,2017_Dec_04_1239,60.0172094335,MAFE4ImagesEEG,001,102427,
AFNE01.JPG,AFNE01.JPG,AFNE01.JPG,AFNE01.JPG,AFNE01.JPG,AFNE01.JPG,2,6,26,7,,,,,,,,,,,,,,,,,,,,,,,AMSA20.jpg,AMNE08.jpg,AMSA17.jpg,AMNE04.jpg,AMNE08.jpg,MN,1,num_6,16,num_6,1.26668886188,,,2017_Dec_04_1239,60.0172094335,MAFE4ImagesEEG,001,102427,
AFNE01.JPG,AFNE01.JPG,AFNE01.JPG,AFNE01.JPG,AFNE01.JPG,AFNE01.JPG,2,7,27,1,,,,,,,,,,,,,,,,,,,,,,,AMNE20.jpg,AMSA13.jpg,AMNE03.jpg,AMSA04.jpg,AMNE20.jpg,MN,1,num_8,16,num_8,1.61681641988,,,2017_Dec_04_1239,60.0172094335,MAFE4ImagesEEG,001,102427,
AFNE01.JPG,AFNE01.JPG,AFNE01.JPG,AFNE01.JPG,AFNE01.JPG,AFNE01.JPG,2,8,28,3,,,,,,,,,,,,,,,,,,,,,,,AMSA19.jpg,AMNE15.jpg,AMNE14.jpg,AMSA20.jpg,AMNE15.jpg,MN,1,num_6,32,num_2,1.80009898008,,,2017_Dec_04_1239,60.0172094335,MAFE4ImagesEEG,001,102427,
AFNE01.JPG,AFNE01.JPG,AFNE01.JPG,AFNE01.JPG,AFNE01.JPG,AFNE01.JPG,2,9,29,2,,,,,,,,,,,,,,,,,,,,,,,AMSA18.jpg,AMNE12.jpg,AMSA17.jpg,AMNE17.jpg,AMSA17.jpg,MS,2,num_2,32,num_4,2.10037949868,,,2017_Dec_04_1239,60.0172094335,MAFE4ImagesEEG,001,102427,
AFNE01.JPG,AFNE01.JPG,AFNE01.JPG,AFNE01.JPG,AFNE01.JPG,AFNE01.JPG,3,0,30,3,,,,,,,,,,,,,,,,,,,,,,,AMSA06.jpg,AMSA10.jpg,AMNE09.jpg,AMNE10.jpg,AMNE10.jpg,MN,1,num_4,32,num_6,1.33341929154,,,2017_Dec_04_1239,60.0172094335,MAFE4ImagesEEG,001,102427,
AFNE01.JPG,AFNE01.JPG,AFNE01.JPG,AFNE01.JPG,AFNE01.JPG,AFNE01.JPG,3,1,31,7,,,,,,,,,,,,,,,,,,,,,,,AMNE20.jpg,AMNE15.jpg,AMSA12.jpg,AMSA03.jpg,AMNE20.jpg,MN,1,num_8,32,num_2,1.9500532106,,,2017_Dec_04_1239,60.0172094335,MAFE4ImagesEEG,001,102427,
AFNE01.JPG,AFNE01.JPG,AFNE01.JPG,AFNE01.JPG,AFNE01.JPG,AFNE01.JPG,3,2,32,8,,,,,,,,,,,,,,,,,,,,,,,AMSA09.jpg,AMNE10.jpg,AMSA08.jpg,AMNE05.jpg,AMNE05.jpg,MN,1,num_4,32,num_8,0.816765871132,,,2017_Dec_04_1239,60.0172094335,MAFE4ImagesEEG,001,102427,
AFNE01.JPG,AFNE01.JPG,AFNE01.JPG,AFNE01.JPG,AFNE01.JPG,AFNE01.JPG,3,3,33,0,,,,,,,,,,,,,,,,,,,,,,,AMNE15.jpg,AMSA19.jpg,AMNE04.jpg,AMSA16.jpg,AMSA19.jpg,MS,2,num_6,32,num_4,0.700131310849,,,2017_Dec_04_1239,60.0172094335,MAFE4ImagesEEG,001,102427,
AFNE01.JPG,AFNE01.JPG,AFNE01.JPG,AFNE01.JPG,AFNE01.JPG,AFNE01.JPG,3,4,34,1,,,,,,,,,,,,,,,,,,,,,,,AMSA15.jpg,AMNE18.jpg,AMNE19.jpg,AMSA14.jpg,AMSA15.jpg,MS,2,num_8,16,num_8,0.783408674877,,,2017_Dec_04_1239,60.0172094335,MAFE4ImagesEEG,001,102427,
AFNE01.JPG,AFNE01.JPG,AFNE01.JPG,AFNE01.JPG,AFNE01.JPG,AFNE01.JPG,3,5,35,5,,,,,,,,,,,,,,,,,,,,,,,AMNE20.jpg,AMNE11.jpg,AMSA11.jpg,AMSA08.jpg,AMSA08.jpg,MS,2,num_4,32,num_8,1.18340123375,,,2017_Dec_04_1239,60.0172094335,MAFE4ImagesEEG,001,102427,
AFNE01.JPG,AFNE01.JPG,AFNE01.JPG,AFNE01.JPG,AFNE01.JPG,AFNE01.JPG,3,6,36,6,,,,,,,,,,,,,,,,,,,,,,,AMSA01.jpg,AMSA12.jpg,AMNE16.jpg,AMNE04.jpg,AMSA01.jpg,MS,2,num_8,16,num_8,0.983442480909,,,2017_Dec_04_1239,60.0172094335,MAFE4ImagesEEG,001,102427,
AFNE01.JPG,AFNE01.JPG,AFNE01.JPG,AFNE01.JPG,AFNE01.JPG,AFNE01.JPG,3,7,37,4,,,,,,,,,,,,,,,,,,,,,,,AMNE09.jpg,AMSA17.jpg,AMSA06.jpg,AMNE19.jpg,AMNE09.jpg,MN,1,num_8,32,num_2,0.91647277982,,,2017_Dec_04_1239,60.0172094335,MAFE4ImagesEEG,001,102427,
AFNE01.JPG,AFNE01.JPG,AFNE01.JPG,AFNE01.JPG,AFNE01.JPG,AFNE01.JPG,3,8,38,9,,,,,,,,,,,,,,,,,,,,,,,AMNE06.jpg,AMSA03.jpg,AMSA15.jpg,AMNE05.jpg,AMNE06.jpg,MN,1,num_8,32,num_4,0.983437669696,,,2017_Dec_04_1239,60.0172094335,MAFE4ImagesEEG,001,102427,
AFNE01.JPG,AFNE01.JPG,AFNE01.JPG,AFNE01.JPG,AFNE01.JPG,AFNE01.JPG,3,9,39,2,,,,,,,,,,,,,,,,,,,,,,,AMSA15.jpg,AMSA18.jpg,AMNE01.jpg,AMNE04.jpg,AMNE04.jpg,MN,1,num_4,32,num_2,1.33339267015,,,2017_Dec_04_1239,60.0172094335,MAFE4ImagesEEG,001,102427,
AFNE01.JPG,AFNE01.JPG,AFNE01.JPG,AFNE01.JPG,AFNE01.JPG,AFNE01.JPG,4,0,40,5,,,,,,,,,,,,,,,,,,,,,,,AMSA01.jpg,AMNE20.jpg,AMSA18.jpg,AMNE12.jpg,AMSA01.jpg,MS,2,num_8,32,num_2,1.45007405872,,,2017_Dec_04_1239,60.0172094335,MAFE4ImagesEEG,001,102427,
AFNE01.JPG,AFNE01.JPG,AFNE01.JPG,AFNE01.JPG,AFNE01.JPG,AFNE01.JPG,4,1,41,2,,,,,,,,,,,,,,,,,,,,,,,AMNE16.jpg,AMSA18.jpg,AMNE03.jpg,AMSA10.jpg,AMNE03.jpg,MN,1,num_2,32,num_8,1.10007383418,,,2017_Dec_04_1239,60.0172094335,MAFE4ImagesEEG,001,102427,
AFNE01.JPG,AFNE01.JPG,AFNE01.JPG,AFNE01.JPG,AFNE01.JPG,AFNE01.JPG,4,2,42,3,,,,,,,,,,,,,,,,,,,,,,,AMNE14.jpg,AMNE20.jpg,AMSA15.jpg,AMSA08.jpg,AMNE20.jpg,MN,1,num_6,32,num_2,1.09993174672,,,2017_Dec_04_1239,60.0172094335,MAFE4ImagesEEG,001,102427,
AFNE01.JPG,AFNE01.JPG,AFNE01.JPG,AFNE01.JPG,AFNE01.JPG,AFNE01.JPG,4,3,43,0,,,,,,,,,,,,,,,,,,,,,,,AMNE18.jpg,AMSA13.jpg,AMSA11.jpg,AMNE03.jpg,AMNE03.jpg,MN,1,num_4,32,num_8,1.35005635396,,,2017_Dec_04_1239,60.0172094335,MAFE4ImagesEEG,001,102427,
AFNE01.JPG,AFNE01.JPG,AFNE01.JPG,AFNE01.JPG,AFNE01.JPG,AFNE01.JPG,4,4,44,6,,,,,,,,,,,,,,,,,,,,,,,AMNE05.jpg,AMSA15.jpg,AMNE14.jpg,AMSA02.jpg,AMSA02.jpg,MS,2,num_4,16,num_4,0.983446008991,,,2017_Dec_04_1239,60.0172094335,MAFE4ImagesEEG,001,102427,
AFNE01.JPG,AFNE01.JPG,AFNE01.JPG,AFNE01.JPG,AFNE01.JPG,AFNE01.JPG,4,5,45,4,,,,,,,,,,,,,,,,,,,,,,,AMSA14.jpg,AMNE05.jpg,AMSA11.jpg,AMNE15.jpg,AMSA14.jpg,MS,2,num_8,16,num_8,0.983412331436,,,2017_Dec_04_1239,60.0172094335,MAFE4ImagesEEG,001,102427,
AFNE01.JPG,AFNE01.JPG,AFNE01.JPG,AFNE01.JPG,AFNE01.JPG,AFNE01.JPG,4,6,46,7,,,,,,,,,,,,,,,,,,,,,,,AMNE18.jpg,AMNE11.jpg,AMSA03.jpg,AMSA04.jpg,AMNE18.jpg,MN,1,num_8,16,num_8,1.58322925353,,,2017_Dec_04_1239,60.0172094335,MAFE4ImagesEEG,001,102427,
AFNE01.JPG,AFNE01.JPG,AFNE01.JPG,AFNE01.JPG,AFNE01.JPG,AFNE01.JPG,4,7,47,8,,,,,,,,,,,,,,,,,,,,,,,AMSA20.jpg,AMNE11.jpg,AMNE18.jpg,AMSA17.jpg,AMSA20.jpg,MS,2,num_8,16,num_8,0.666929352097,,,2017_Dec_04_1239,60.0172094335,MAFE4ImagesEEG,001,102427,
AFNE01.JPG,AFNE01.JPG,AFNE01.JPG,AFNE01.JPG,AFNE01.JPG,AFNE01.JPG,4,8,48,9,,,,,,,,,,,,,,,,,,,,,,,AMNE02.jpg,AMSA14.jpg,AMSA06.jpg,AMNE05.jpg,AMNE02.jpg,MN,1,num_8,32,num_6,0.95011415123,,,2017_Dec_04_1239,60.0172094335,MAFE4ImagesEEG,001,102427,
AFNE01.JPG,AFNE01.JPG,AFNE01.JPG,AFNE01.JPG,AFNE01.JPG,AFNE01.JPG,4,9,49,1,,,,,,,,,,,,,,,,,,,,,,,AMSA06.jpg,AMSA20.jpg,AMNE12.jpg,AMNE11.jpg,AMSA20.jpg,MS,2,num_6,32,num_8,0.916779406602,,,2017_Dec_04_1239,60.0172094335,MAFE4ImagesEEG,001,102427,
AFNE01.JPG,AFNE01.JPG,AFNE01.JPG,AFNE01.JPG,AFNE01.JPG,AFNE01.JPG,5,0,50,6,,,,,,,,,,,,,,,,,,,,,,,AMSA11.jpg,AMNE09.jpg,AMSA12.jpg,AMNE12.jpg,AMSA11.jpg,MS,2,num_8,32,num_2,0.766659674468,,,2017_Dec_04_1239,60.0172094335,MAFE4ImagesEEG,001,102427,
AFNE01.JPG,AFNE01.JPG,AFNE01.JPG,AFNE01.JPG,AFNE01.JPG,AFNE01.JPG,5,1,51,4,,,,,,,,,,,,,,,,,,,,,,,AMNE07.jpg,AMSA13.jpg,AMNE12.jpg,AMSA14.jpg,AMSA14.jpg,MS,2,num_4,16,num_4,0.966996578965,,,2017_Dec_04_1239,60.0172094335,MAFE4ImagesEEG,001,102427,
AFNE01.JPG,AFNE01.JPG,AFNE01.JPG,AFNE01.JPG,AFNE01.JPG,AFNE01.JPG,5,2,52,2,,,,,,,,,,,,,,,,,,,,,,,AMNE02.jpg,AMNE10.jpg,AMSA18.jpg,AMSA10.jpg,AMSA18.jpg,MS,2,num_2,16,num_2,0.900140098995,,,2017_Dec_04_1239,60.0172094335,MAFE4ImagesEEG,001,102427,
AFNE01.JPG,AFNE01.JPG,AFNE01.JPG,AFNE01.JPG,AFNE01.JPG,AFNE01.JPG,5,3,53,7,,,,,,,,,,,,,,,,,,,,,,,AMSA08.jpg,AMNE17.jpg,AMNE11.jpg,AMSA05.jpg,AMSA08.jpg,MS,2,num_8,32,num_4,1.31673989142,,,2017_Dec_04_1239,60.0172094335,MAFE4ImagesEEG,001,102427,
AFNE01.JPG,AFNE01.JPG,AFNE01.JPG,AFNE01.JPG,AFNE01.JPG,AFNE01.JPG,5,4,54,1,,,,,,,,,,,,,,,,,,,,,,,AMSA12.jpg,AMNE16.jpg,AMNE19.jpg,AMSA01.jpg,AMNE16.jpg,MN,1,num_6,32,num_2,1.16674364428,,,2017_Dec_04_1239,60.0172094335,MAFE4ImagesEEG,001,102427,
AFNE01.JPG,AFNE01.JPG,AFNE01.JPG,AFNE01.JPG,AFNE01.JPG,AFNE01.JPG,5,5,55,3,,,,,,,,,,,,,,,,,,,,,,,AMNE11.jpg,AMSA20.jpg,AMSA09.jpg,AMNE16.jpg,AMSA20.jpg,MS,2,num_6,32,num_2,0.783396486891,,,2017_Dec_04_1239,60.0172094335,MAFE4ImagesEEG,001,102427,
AFNE01.JPG,AFNE01.JPG,AFNE01.JPG,AFNE01.JPG,AFNE01.JPG,AFNE01.JPG,5,6,56,5,,,,,,,,,,,,,,,,,,,,,,,AMNE19.jpg,AMNE04.jpg,AMSA10.jpg,AMSA09.jpg,AMSA09.jpg,MS,2,num_4,16,num_4,0.800103791291,,,2017_Dec_04_1239,60.0172094335,MAFE4ImagesEEG,001,102427,
AFNE01.JPG,AFNE01.JPG,AFNE01.JPG,AFNE01.JPG,AFNE01.JPG,AFNE01.JPG,5,7,57,9,,,,,,,,,,,,,,,,,,,,,,,AMSA10.jpg,AMNE07.jpg,AMSA09.jpg,AMNE02.jpg,AMSA09.jpg,MS,2,num_2,32,num_4,0.716828671983,,,2017_Dec_04_1239,60.0172094335,MAFE4ImagesEEG,001,102427,
AFNE01.JPG,AFNE01.JPG,AFNE01.JPG,AFNE01.JPG,AFNE01.JPG,AFNE01.JPG,5,8,58,8,,,,,,,,,,,,,,,,,,,,,,,AMSA02.jpg,AMNE08.jpg,AMNE04.jpg,AMSA12.jpg,AMNE04.jpg,MN,1,num_2,32,num_8,1.4000733851,,,2017_Dec_04_1239,60.0172094335,MAFE4ImagesEEG,001,102427,
AFNE01.JPG,AFNE01.JPG,AFNE01.JPG,AFNE01.JPG,AFNE01.JPG,AFNE01.JPG,5,9,59,0,,,,,,,,,,,,,,,,,,,,,,,AMNE19.jpg,AMSA19.jpg,AMNE11.jpg,AMSA13.jpg,AMNE19.jpg,MN,1,num_8,32,num_2,1.50009333505,,,2017_Dec_04_1239,60.0172094335,MAFE4ImagesEEG,001,102427,
,,,,,,,,,,,,,,,,,,,,,,,,,,,,,,,,,,,,,,,,,,,space,14.5492976133,2017_Dec_04_1239,60.0172094335,MAFE4ImagesEEG,001,102427,
AFNE01.JPG,AFNE01.JPG,AFNE01.JPG,AFNE01.JPG,AFNE01.JPG,AFNE01.JPG,,,,,0,0,0,0,,,,,,,,,,,,,,,,,,,AFSA01.jpg,AFNE19.jpg,AFNE09.jpg,AFSA14.jpg,AFSA01.jpg,FS,4,num_8,32,num_2,0.766493531642,,,2017_Dec_04_1239,60.0172094335,MAFE4ImagesEEG,001,102427,
AFNE01.JPG,AFNE01.JPG,AFNE01.JPG,AFNE01.JPG,AFNE01.JPG,AFNE01.JPG,,,,,0,1,1,5,,,,,,,,,,,,,,,,,,,AFNE10.jpg,AFNE03.jpg,AFSA02.jpg,AFSA11.jpg,AFNE03.jpg,FN,3,num_6,16,num_6,1.36673607468,,,2017_Dec_04_1239,60.0172094335,MAFE4ImagesEEG,001,102427,
AFNE01.JPG,AFNE01.JPG,AFNE01.JPG,AFNE01.JPG,AFNE01.JPG,AFNE01.JPG,,,,,0,2,2,2,,,,,,,,,,,,,,,,,,,AFNE14.jpg,AFSA13.jpg,AFNE20.jpg,AFSA01.jpg,AFSA13.jpg,FS,4,num_6,32,num_4,0.866756601725,,,2017_Dec_04_1239,60.0172094335,MAFE4ImagesEEG,001,102427,
AFNE01.JPG,AFNE01.JPG,AFNE01.JPG,AFNE01.JPG,AFNE01.JPG,AFNE01.JPG,,,,,0,3,3,9,,,,,,,,,,,,,,,,,,,AFSA09.jpg,AFSA17.jpg,AFNE17.jpg,AFNE11.jpg,AFSA17.jpg,FS,4,num_6,32,num_4,1.50006895885,,,2017_Dec_04_1239,60.0172094335,MAFE4ImagesEEG,001,102427,
AFNE01.JPG,AFNE01.JPG,AFNE01.JPG,AFNE01.JPG,AFNE01.JPG,AFNE01.JPG,,,,,0,4,4,7,,,,,,,,,,,,,,,,,,,AFNE16.jpg,AFNE20.jpg,AFSA19.jpg,AFSA20.jpg,AFNE16.jpg,FN,3,num_8,32,num_6,1.25005757273,,,2017_Dec_04_1239,60.0172094335,MAFE4ImagesEEG,001,102427,
AFNE01.JPG,AFNE01.JPG,AFNE01.JPG,AFNE01.JPG,AFNE01.JPG,AFNE01.JPG,,,,,0,5,5,4,,,,,,,,,,,,,,,,,,,AFSA14.jpg,AFNE17.jpg,AFSA02.jpg,AFNE07.jpg,AFSA02.jpg,FS,4,num_2,32,num_8,1.26673312392,,,2017_Dec_04_1239,60.0172094335,MAFE4ImagesEEG,001,102427,
AFNE01.JPG,AFNE01.JPG,AFNE01.JPG,AFNE01.JPG,AFNE01.JPG,AFNE01.JPG,,,,,0,6,6,3,,,,,,,,,,,,,,,,,,,AFSA01.jpg,AFSA17.jpg,AFNE15.jpg,AFNE18.jpg,AFSA17.jpg,FS,4,num_6,16,num_6,1.43340235623,,,2017_Dec_04_1239,60.0172094335,MAFE4ImagesEEG,001,102427,
AFNE01.JPG,AFNE01.JPG,AFNE01.JPG,AFNE01.JPG,AFNE01.JPG,AFNE01.JPG,,,,,0,7,7,6,,,,,,,,,,,,,,,,,,,AFNE01.jpg,AFSA01.jpg,AFSA17.jpg,AFNE10.jpg,AFSA17.jpg,FS,4,num_2,16,num_2,1.26672735065,,,2017_Dec_04_1239,60.0172094335,MAFE4ImagesEEG,001,102427,
AFNE01.JPG,AFNE01.JPG,AFNE01.JPG,AFNE01.JPG,AFNE01.JPG,AFNE01.JPG,,,,,0,8,8,8,,,,,,,,,,,,,,,,,,,AFNE13.jpg,AFSA05.jpg,AFNE08.jpg,AFSA20.jpg,AFNE13.jpg,FN,3,num_8,16,num_8,1.16674492718,,,2017_Dec_04_1239,60.0172094335,MAFE4ImagesEEG,001,102427,
AFNE01.JPG,AFNE01.JPG,AFNE01.JPG,AFNE01.JPG,AFNE01.JPG,AFNE01.JPG,,,,,0,9,9,1,,,,,,,,,,,,,,,,,,,AFSA18.jpg,AFNE07.jpg,AFNE14.jpg,AFSA05.jpg,AFSA05.jpg,FS,4,num_4,32,num_8,0.866771035129,,,2017_Dec_04_1239,60.0172094335,MAFE4ImagesEEG,001,102427,
AFNE01.JPG,AFNE01.JPG,AFNE01.JPG,AFNE01.JPG,AFNE01.JPG,AFNE01.JPG,,,,,1,0,10,3,,,,,,,,,,,,,,,,,,,AFSA12.jpg,AFNE08.jpg,AFNE19.jpg,AFSA01.jpg,AFNE19.jpg,FN,3,num_2,32,num_4,1.10013766121,,,2017_Dec_04_1239,60.0172094335,MAFE4ImagesEEG,001,102427,
AFNE01.JPG,AFNE01.JPG,AFNE01.JPG,AFNE01.JPG,AFNE01.JPG,AFNE01.JPG,,,,,1,1,11,5,,,,,,,,,,,,,,,,,,,AFSA08.jpg,AFSA06.jpg,AFNE15.jpg,AFNE18.jpg,AFNE18.jpg,FN,3,num_4,32,num_2,1.13344578445,,,2017_Dec_04_1239,60.0172094335,MAFE4ImagesEEG,001,102427,
AFNE01.JPG,AFNE01.JPG,AFNE01.JPG,AFNE01.JPG,AFNE01.JPG,AFNE01.JPG,,,,,1,2,12,2,,,,,,,,,,,,,,,,,,,AFSA10.jpg,AFNE18.jpg,AFSA06.jpg,AFNE05.jpg,AFNE18.jpg,FN,3,num_6,32,num_8,1.21675041155,,,2017_Dec_04_1239,60.0172094335,MAFE4ImagesEEG,001,102427,
AFNE01.JPG,AFNE01.JPG,AFNE01.JPG,AFNE01.JPG,AFNE01.JPG,AFNE01.JPG,,,,,1,3,13,7,,,,,,,,,,,,,,,,,,,AFSA08.jpg,AFNE02.jpg,AFSA07.jpg,AFNE11.jpg,AFSA08.jpg,FS,4,num_8,32,num_4,1.10009179567,,,2017_Dec_04_1239,60.0172094335,MAFE4ImagesEEG,001,102427,
AFNE01.JPG,AFNE01.JPG,AFNE01.JPG,AFNE01.JPG,AFNE01.JPG,AFNE01.JPG,,,,,1,4,14,1,,,,,,,,,,,,,,,,,,,AFNE11.jpg,AFSA15.jpg,AFSA17.jpg,AFNE14.jpg,AFNE14.jpg,FN,3,num_4,32,num_6,2.01671500201,,,2017_Dec_04_1239,60.0172094335,MAFE4ImagesEEG,001,102427,
AFNE01.JPG,AFNE01.JPG,AFNE01.JPG,AFNE01.JPG,AFNE01.JPG,AFNE01.JPG,,,,,1,5,15,8,,,,,,,,,,,,,,,,,,,AFNE07.jpg,AFNE18.jpg,AFSA12.jpg,AFSA01.jpg,AFSA01.jpg,FS,4,num_4,16,num_4,0.900122458348,,,2017_Dec_04_1239,60.0172094335,MAFE4ImagesEEG,001,102427,
AFNE01.JPG,AFNE01.JPG,AFNE01.JPG,AFNE01.JPG,AFNE01.JPG,AFNE01.JPG,,,,,1,6,16,4,,,,,,,,,,,,,,,,,,,AFNE09.jpg,AFSA17.jpg,AFNE08.jpg,AFSA08.jpg,AFSA17.jpg,FS,4,num_6,16,num_6,1.01674707583,,,2017_Dec_04_1239,60.0172094335,MAFE4ImagesEEG,001,102427,
AFNE01.JPG,AFNE01.JPG,AFNE01.JPG,AFNE01.JPG,AFNE01.JPG,AFNE01.JPG,,,,,1,7,17,9,,,,,,,,,,,,,,,,,,,AFNE08.jpg,AFSA11.jpg,AFNE19.jpg,AFSA03.jpg,AFSA03.jpg,FS,4,num_4,32,num_6,1.00008724094,,,2017_Dec_04_1239,60.0172094335,MAFE4ImagesEEG,001,102427,
AFNE01.JPG,AFNE01.JPG,AFNE01.JPG,AFNE01.JPG,AFNE01.JPG,AFNE01.JPG,,,,,1,8,18,0,,,,,,,,,,,,,,,,,,,AFNE08.jpg,AFSA03.jpg,AFNE12.jpg,AFSA15.jpg,AFNE08.jpg,FN,3,num_8,16,num_8,0.850136859575,,,2017_Dec_04_1239,60.0172094335,MAFE4ImagesEEG,001,102427,
AFNE01.JPG,AFNE01.JPG,AFNE01.JPG,AFNE01.JPG,AFNE01.JPG,AFNE01.JPG,,,,,1,9,19,6,,,,,,,,,,,,,,,,,,,AFSA12.jpg,AFSA20.jpg,AFNE12.jpg,AFNE02.jpg,AFNE12.jpg,FN,3,num_2,16,num_2,1.08341784822,,,2017_Dec_04_1239,60.0172094335,MAFE4ImagesEEG,001,102427,
AFNE01.JPG,AFNE01.JPG,AFNE01.JPG,AFNE01.JPG,AFNE01.JPG,AFNE01.JPG,,,,,2,0,20,6,,,,,,,,,,,,,,,,,,,AFSA05.jpg,AFNE19.jpg,AFNE14.jpg,AFSA13.jpg,AFNE14.jpg,FN,3,num_2,32,num_6,1.51670313464,,,2017_Dec_04_1239,60.0172094335,MAFE4ImagesEEG,001,102427,
AFNE01.JPG,AFNE01.JPG,AFNE01.JPG,AFNE01.JPG,AFNE01.JPG,AFNE01.JPG,,,,,2,1,21,5,,,,,,,,,,,,,,,,,,,AFNE20.jpg,AFNE04.jpg,AFSA05.jpg,AFSA09.jpg,AFNE20.jpg,FN,3,num_8,16,num_8,1.01678139507,,,2017_Dec_04_1239,60.0172094335,MAFE4ImagesEEG,001,102427,
AFNE01.JPG,AFNE01.JPG,AFNE01.JPG,AFNE01.JPG,AFNE01.JPG,AFNE01.JPG,,,,,2,2,22,2,,,,,,,,,,,,,,,,,,,AFSA07.jpg,AFNE04.jpg,AFSA15.jpg,AFNE14.jpg,AFNE14.jpg,FN,3,num_4,32,num_8,1.3000858298,,,2017_Dec_04_1239,60.0172094335,MAFE4ImagesEEG,001,102427,
AFNE01.JPG,AFNE01.JPG,AFNE01.JPG,AFNE01.JPG,AFNE01.JPG,AFNE01.JPG,,,,,2,3,23,3,,,,,,,,,,,,,,,,,,,AFSA01.jpg,AFSA06.jpg,AFNE17.jpg,AFNE04.jpg,AFSA06.jpg,FS,4,num_6,32,num_8,0.933435071958,,,2017_Dec_04_1239,60.0172094335,MAFE4ImagesEEG,001,102427,
AFNE01.JPG,AFNE01.JPG,AFNE01.JPG,AFNE01.JPG,AFNE01.JPG,AFNE01.JPG,,,,,2,4,24,0,,,,,,,,,,,,,,,,,,,AFNE07.jpg,AFSA14.jpg,AFSA11.jpg,AFNE13.jpg,AFSA11.jpg,FS,4,num_2,32,num_6,1.06673267484,,,2017_Dec_04_1239,60.0172094335,MAFE4ImagesEEG,001,102427,
AFNE01.JPG,AFNE01.JPG,AFNE01.JPG,AFNE01.JPG,AFNE01.JPG,AFNE01.JPG,,,,,2,5,25,1,,,,,,,,,,,,,,,,,,,AFSA09.jpg,AFNE14.jpg,AFSA13.jpg,AFNE12.jpg,AFNE14.jpg,FN,3,num_6,32,num_8,1.00010199496,,,2017_Dec_04_1239,60.0172094335,MAFE4ImagesEEG,001,102427,
AFNE01.JPG,AFNE01.JPG,AFNE01.JPG,AFNE01.JPG,AFNE01.JPG,AFNE01.JPG,,,,,2,6,26,4,,,,,,,,,,,,,,,,,,,AFSA02.jpg,AFNE16.jpg,AFNE01.jpg,AFSA17.jpg,AFNE16.jpg,FN,3,num_6,32,num_4,0.983438952826,,,2017_Dec_04_1239,60.0172094335,MAFE4ImagesEEG,001,102427,
AFNE01.JPG,AFNE01.JPG,AFNE01.JPG,AFNE01.JPG,AFNE01.JPG,AFNE01.JPG,,,,,2,7,27,8,,,,,,,,,,,,,,,,,,,AFNE09.jpg,AFNE08.jpg,AFSA20.jpg,AFSA06.jpg,AFSA20.jpg,FS,4,num_2,16,num_2,2.51665374078,,,2017_Dec_04_1239,60.0172094335,MAFE4ImagesEEG,001,102427,
AFNE01.JPG,AFNE01.JPG,AFNE01.JPG,AFNE01.JPG,AFNE01.JPG,AFNE01.JPG,,,,,2,8,28,9,,,,,,,,,,,,,,,,,,,AFSA12.jpg,AFNE14.jpg,AFSA03.jpg,AFNE10.jpg,AFSA12.jpg,FS,4,num_8,32,num_4,1.06678206869,,,2017_Dec_04_1239,60.0172094335,MAFE4ImagesEEG,001,102427,
AFNE01.JPG,AFNE01.JPG,AFNE01.JPG,AFNE01.JPG,AFNE01.JPG,AFNE01.JPG,,,,,2,9,29,7,,,,,,,,,,,,,,,,,,,AFNE12.jpg,AFNE02.jpg,AFSA09.jpg,AFSA01.jpg,AFSA09.jpg,FS,4,num_2,16,num_2,1.26677321619,,,2017_Dec_04_1239,60.0172094335,MAFE4ImagesEEG,001,102427,
AFNE01.JPG,AFNE01.JPG,AFNE01.JPG,AFNE01.JPG,AFNE01.JPG,AFNE01.JPG,,,,,3,0,30,9,,,,,,,,,,,,,,,,,,,AFNE17.jpg,AFSA15.jpg,AFSA17.jpg,AFNE05.jpg,AFSA17.jpg,FS,4,num_2,16,num_2,1.25007745833,,,2017_Dec_04_1239,60.0172094335,MAFE4ImagesEEG,001,102427,
AFNE01.JPG,AFNE01.JPG,AFNE01.JPG,AFNE01.JPG,AFNE01.JPG,AFNE01.JPG,,,,,3,1,31,7,,,,,,,,,,,,,,,,,,,AFSA04.jpg,AFNE15.jpg,AFSA08.jpg,AFNE13.jpg,AFNE15.jpg,FN,3,num_6,32,num_4,1.15010369499,,,2017_Dec_04_1239,60.0172094335,MAFE4ImagesEEG,001,102427,
AFNE01.JPG,AFNE01.JPG,AFNE01.JPG,AFNE01.JPG,AFNE01.JPG,AFNE01.JPG,,,,,3,2,32,6,,,,,,,,,,,,,,,,,,,AFNE04.jpg,AFSA04.jpg,AFSA07.jpg,AFNE13.jpg,AFNE04.jpg,FN,3,num_8,16,num_8,2.33333846508,,,2017_Dec_04_1239,60.0172094335,MAFE4ImagesEEG,001,102427,
AFNE01.JPG,AFNE01.JPG,AFNE01.JPG,AFNE01.JPG,AFNE01.JPG,AFNE01.JPG,,,,,3,3,33,8,,,,,,,,,,,,,,,,,,,AFSA20.jpg,AFSA16.jpg,AFNE20.jpg,AFNE13.jpg,AFNE13.jpg,FN,3,num_4,16,num_4,0.933441165835,,,2017_Dec_04_1239,60.0172094335,MAFE4ImagesEEG,001,102427,
AFNE01.JPG,AFNE01.JPG,AFNE01.JPG,AFNE01.JPG,AFNE01.JPG,AFNE01.JPG,,,,,3,4,34,5,,,,,,,,,,,,,,,,,,,AFNE09.jpg,AFNE18.jpg,AFSA13.jpg,AFSA08.jpg,AFSA08.jpg,FS,4,num_4,32,num_2,0.833427630831,,,2017_Dec_04_1239,60.0172094335,MAFE4ImagesEEG,001,102427,
AFNE01.JPG,AFNE01.JPG,AFNE01.JPG,AFNE01.JPG,AFNE01.JPG,AFNE01.JPG,,,,,3,5,35,3,,,,,,,,,,,,,,,,,,,AFSA13.jpg,AFSA18.jpg,AFNE06.jpg,AFNE10.jpg,AFSA18.jpg,FS,4,num_6,32,num_8,1.31675336254,,,2017_Dec_04_1239,60.0172094335,MAFE4ImagesEEG,001,102427,
AFNE01.JPG,AFNE01.JPG,AFNE01.JPG,AFNE01.JPG,AFNE01.JPG,AFNE01.JPG,,,,,3,6,36,0,,,,,,,,,,,,,,,,,,,AFSA01.jpg,AFNE06.jpg,AFNE10.jpg,AFSA07.jpg,AFSA07.jpg,FS,4,num_4,16,num_4,0.900107704336,,,2017_Dec_04_1239,60.0172094335,MAFE4ImagesEEG,001,102427,
AFNE01.JPG,AFNE01.JPG,AFNE01.JPG,AFNE01.JPG,AFNE01.JPG,AFNE01.JPG,,,,,3,7,37,2,,,,,,,,,,,,,,,,,,,AFSA10.jpg,AFSA02.jpg,AFNE05.jpg,AFNE13.jpg,AFNE13.jpg,FN,3,num_4,16,num_4,1.25009509921,,,2017_Dec_04_1239,60.0172094335,MAFE4ImagesEEG,001,102427,
AFNE01.JPG,AFNE01.JPG,AFNE01.JPG,AFNE01.JPG,AFNE01.JPG,AFNE01.JPG,,,,,3,8,38,1,,,,,,,,,,,,,,,,,,,AFSA07.jpg,AFNE04.jpg,AFNE07.jpg,AFSA06.jpg,AFSA06.jpg,FS,4,num_4,32,num_8,1.01648631506,,,2017_Dec_04_1239,60.0172094335,MAFE4ImagesEEG,001,102427,
AFNE01.JPG,AFNE01.JPG,AFNE01.JPG,AFNE01.JPG,AFNE01.JPG,AFNE01.JPG,,,,,3,9,39,4,,,,,,,,,,,,,,,,,,,AFSA19.jpg,AFSA20.jpg,AFNE08.jpg,AFNE16.jpg,AFNE16.jpg,FN,3,num_4,32,num_2,1.45006347424,,,2017_Dec_04_1239,60.0172094335,MAFE4ImagesEEG,001,102427,
AFNE01.JPG,AFNE01.JPG,AFNE01.JPG,AFNE01.JPG,AFNE01.JPG,AFNE01.JPG,,,,,4,0,40,8,,,,,,,,,,,,,,,,,,,AFNE10.jpg,AFNE20.jpg,AFSA05.jpg,AFSA01.jpg,AFSA01.jpg,FS,4,num_4,16,num_4,1.06679682271,,,2017_Dec_04_1239,60.0172094335,MAFE4ImagesEEG,001,102427,
AFNE01.JPG,AFNE01.JPG,AFNE01.JPG,AFNE01.JPG,AFNE01.JPG,AFNE01.JPG,,,,,4,1,41,2,,,,,,,,,,,,,,,,,,,AFSA03.jpg,AFNE03.jpg,AFNE07.jpg,AFSA06.jpg,AFNE03.jpg,FN,3,num_6,32,num_2,1.03340819385,,,2017_Dec_04_1239,60.0172094335,MAFE4ImagesEEG,001,102427,
AFNE01.JPG,AFNE01.JPG,AFNE01.JPG,AFNE01.JPG,AFNE01.JPG,AFNE01.JPG,,,,,4,2,42,9,,,,,,,,,,,,,,,,,,,AFNE17.jpg,AFNE14.jpg,AFSA03.jpg,AFSA17.jpg,AFSA17.jpg,FS,4,num_4,32,num_8,0.933469070354,,,2017_Dec_04_1239,60.0172094335,MAFE4ImagesEEG,001,102427,
AFNE01.JPG,AFNE01.JPG,AFNE01.JPG,AFNE01.JPG,AFNE01.JPG,AFNE01.JPG,,,,,4,3,43,3,,,,,,,,,,,,,,,,,,,AFSA06.jpg,AFNE11.jpg,AFNE04.jpg,AFSA02.jpg,AFNE11.jpg,FN,3,num_6,16,num_6,1.18343266635,,,2017_Dec_04_1239,60.0172094335,MAFE4ImagesEEG,001,102427,
AFNE01.JPG,AFNE01.JPG,AFNE01.JPG,AFNE01.JPG,AFNE01.JPG,AFNE01.JPG,,,,,4,4,44,6,,,,,,,,,,,,,,,,,,,AFNE06.jpg,AFSA13.jpg,AFNE01.jpg,AFSA15.jpg,AFNE06.jpg,FN,3,num_8,32,num_4,1.40007370594,,,2017_Dec_04_1239,60.0172094335,MAFE4ImagesEEG,001,102427,
AFNE01.JPG,AFNE01.JPG,AFNE01.JPG,AFNE01.JPG,AFNE01.JPG,AFNE01.JPG,,,,,4,5,45,1,,,,,,,,,,,,,,,,,,,AFSA13.jpg,AFNE12.jpg,AFSA08.jpg,AFNE04.jpg,AFNE04.jpg,FN,3,num_4,32,num_2,1.03345919144,,,2017_Dec_04_1239,60.0172094335,MAFE4ImagesEEG,001,102427,
AFNE01.JPG,AFNE01.JPG,AFNE01.JPG,AFNE01.JPG,AFNE01.JPG,AFNE01.JPG,,,,,4,6,46,4,,,,,,,,,,,,,,,,,,,AFSA07.jpg,AFNE09.jpg,AFSA17.jpg,AFNE04.jpg,AFNE04.jpg,FN,3,num_4,32,num_6,0.933450146345,,,2017_Dec_04_1239,60.0172094335,MAFE4ImagesEEG,001,102427,
AFNE01.JPG,AFNE01.JPG,AFNE01.JPG,AFNE01.JPG,AFNE01.JPG,AFNE01.JPG,,,,,4,7,47,0,,,,,,,,,,,,,,,,,,,AFNE17.jpg,AFNE11.jpg,AFSA14.jpg,AFSA03.jpg,AFNE11.jpg,FN,3,num_6,16,num_6,1.28345069173,,,2017_Dec_04_1239,60.0172094335,MAFE4ImagesEEG,001,102427,
AFNE01.JPG,AFNE01.JPG,AFNE01.JPG,AFNE01.JPG,AFNE01.JPG,AFNE01.JPG,,,,,4,8,48,5,,,,,,,,,,,,,,,,,,,AFNE08.jpg,AFSA12.jpg,AFNE15.jpg,AFSA06.jpg,AFNE08.jpg,FN,3,num_8,16,num_8,1.23341634055,,,2017_Dec_04_1239,60.0172094335,MAFE4ImagesEEG,001,102427,
AFNE01.JPG,AFNE01.JPG,AFNE01.JPG,AFNE01.JPG,AFNE01.JPG,AFNE01.JPG,,,,,4,9,49,7,,,,,,,,,,,,,,,,,,,AFNE10.jpg,AFNE02.jpg,AFSA02.jpg,AFSA03.jpg,AFNE10.jpg,FN,3,num_8,32,num_6,0.816816548118,,,2017_Dec_04_1239,60.0172094335,MAFE4ImagesEEG,001,102427,
AFNE01.JPG,AFNE01.JPG,AFNE01.JPG,AFNE01.JPG,AFNE01.JPG,AFNE01.JPG,,,,,5,0,50,7,,,,,,,,,,,,,,,,,,,AFNE04.jpg,AFSA05.jpg,AFNE07.jpg,AFSA18.jpg,AFSA18.jpg,FS,4,num_4,32,num_6,0.76677449909,,,2017_Dec_04_1239,60.0172094335,MAFE4ImagesEEG,001,102427,
AFNE01.JPG,AFNE01.JPG,AFNE01.JPG,AFNE01.JPG,AFNE01.JPG,AFNE01.JPG,,,,,5,1,51,5,,,,,,,,,,,,,,,,,,,AFNE14.jpg,AFSA02.jpg,AFNE15.jpg,AFSA16.jpg,AFSA02.jpg,FS,4,num_6,32,num_4,1.0000926936,,,2017_Dec_04_1239,60.0172094335,MAFE4ImagesEEG,001,102427,
AFNE01.JPG,AFNE01.JPG,AFNE01.JPG,AFNE01.JPG,AFNE01.JPG,AFNE01.JPG,,,,,5,2,52,6,,,,,,,,,,,,,,,,,,,AFNE01.jpg,AFSA19.jpg,AFSA04.jpg,AFNE08.jpg,AFSA04.jpg,FS,4,num_2,32,num_6,1.18328672997,,,2017_Dec_04_1239,60.0172094335,MAFE4ImagesEEG,001,102427,
AFNE01.JPG,AFNE01.JPG,AFNE01.JPG,AFNE01.JPG,AFNE01.JPG,AFNE01.JPG,,,,,5,3,53,4,,,,,,,,,,,,,,,,,,,AFSA02.jpg,AFNE04.jpg,AFSA16.jpg,AFNE17.jpg,AFNE17.jpg,FN,3,num_4,32,num_8,0.866641456727,,,2017_Dec_04_1239,60.0172094335,MAFE4ImagesEEG,001,102427,
AFNE01.JPG,AFNE01.JPG,AFNE01.JPG,AFNE01.JPG,AFNE01.JPG,AFNE01.JPG,,,,,5,4,54,8,,,,,,,,,,,,,,,,,,,AFSA04.jpg,AFNE02.jpg,AFSA07.jpg,AFNE14.jpg,AFSA07.jpg,FS,4,num_2,32,num_8,0.967050784035,,,2017_Dec_04_1239,60.0172094335,MAFE4ImagesEEG,001,102427,
AFNE01.JPG,AFNE01.JPG,AFNE01.JPG,AFNE01.JPG,AFNE01.JPG,AFNE01.JPG,,,,,5,5,55,3,,,,,,,,,,,,,,,,,,,AFNE18.jpg,AFSA15.jpg,AFNE16.jpg,AFSA10.jpg,AFNE16.jpg,FN,3,num_2,32,num_6,0.683451269055,,,2017_Dec_04_1239,60.0172094335,MAFE4ImagesEEG,001,102427,
AFNE01.JPG,AFNE01.JPG,AFNE01.JPG,AFNE01.JPG,AFNE01.JPG,AFNE01.JPG,,,,,5,6,56,9,,,,,,,,,,,,,,,,,,,AFNE11.jpg,AFSA15.jpg,AFNE13.jpg,AFSA19.jpg,AFSA15.jpg,FS,4,num_6,16,num_6,0.916876590345,,,2017_Dec_04_1239,60.0172094335,MAFE4ImagesEEG,001,102427,
AFNE01.JPG,AFNE01.JPG,AFNE01.JPG,AFNE01.JPG,AFNE01.JPG,AFNE01.JPG,,,,,5,7,57,1,,,,,,,,,,,,,,,,,,,AFSA01.jpg,AFNE13.jpg,AFNE14.jpg,AFSA10.jpg,AFNE13.jpg,FN,3,num_6,32,num_4,1.2667462742,,,2017_Dec_04_1239,60.0172094335,MAFE4ImagesEEG,001,102427,
AFNE01.JPG,AFNE01.JPG,AFNE01.JPG,AFNE01.JPG,AFNE01.JPG,AFNE01.JPG,,,,,5,8,58,0,,,,,,,,,,,,,,,,,,,AFNE10.jpg,AFNE13.jpg,AFSA15.jpg,AFSA19.jpg,AFSA15.jpg,FS,4,num_2,16,num_2,1.66666987399,,,2017_Dec_04_1239,60.0172094335,MAFE4ImagesEEG,001,102427,
AFNE01.JPG,AFNE01.JPG,AFNE01.JPG,AFNE01.JPG,AFNE01.JPG,AFNE01.JPG,,,,,5,9,59,2,,,,,,,,,,,,,,,,,,,AFNE06.jpg,AFNE08.jpg,AFSA09.jpg,AFSA01.jpg,AFNE06.jpg,FN,3,num_8,16,num_8,1.53338766657,,,2017_Dec_04_1239,60.0172094335,MAFE4ImagesEEG,001,102427,
,,,,,,,,,,,,,,,,,,,,,,,,,,,,,,,,,,,,,,,,,,,space,14.798741291,2017_Dec_04_1239,60.0172094335,MAFE4ImagesEEG,001,102427,
AFNE01.JPG,AFNE01.JPG,AFNE01.JPG,AFNE01.JPG,AFNE01.JPG,AFNE01.JPG,,,,,,,,,0,0,0,4,,,,,,,,,,,,,,,AMNE10.jpg,AMNE05.jpg,AMSA01.jpg,AMSA12.jpg,AMSA12.jpg,MS,2,num_4,16,num_4,0.93347612652,,,2017_Dec_04_1239,60.0172094335,MAFE4ImagesEEG,001,102427,
AFNE01.JPG,AFNE01.JPG,AFNE01.JPG,AFNE01.JPG,AFNE01.JPG,AFNE01.JPG,,,,,,,,,0,1,1,7,,,,,,,,,,,,,,,AMSA14.jpg,AMSA16.jpg,AMNE04.jpg,AMNE17.jpg,AMSA14.jpg,MS,2,num_8,16,num_8,0.750128455926,,,2017_Dec_04_1239,60.0172094335,MAFE4ImagesEEG,001,102427,
AFNE01.JPG,AFNE01.JPG,AFNE01.JPG,AFNE01.JPG,AFNE01.JPG,AFNE01.JPG,,,,,,,,,0,2,2,8,,,,,,,,,,,,,,,AMSA10.jpg,AMNE20.jpg,AMNE07.jpg,AMSA18.jpg,AMNE07.jpg,MN,1,num_2,32,num_8,1.26673151995,,,2017_Dec_04_1239,60.0172094335,MAFE4ImagesEEG,001,102427,
AFNE01.JPG,AFNE01.JPG,AFNE01.JPG,AFNE01.JPG,AFNE01.JPG,AFNE01.JPG,,,,,,,,,0,3,3,3,,,,,,,,,,,,,,,AMSA17.jpg,AMNE14.jpg,AMNE20.jpg,AMSA12.jpg,AMNE14.jpg,MN,1,num_6,32,num_4,0.93354444392,,,2017_Dec_04_1239,60.0172094335,MAFE4ImagesEEG,001,102427,
AFNE01.JPG,AFNE01.JPG,AFNE01.JPG,AFNE01.JPG,AFNE01.JPG,AFNE01.JPG,,,,,,,,,0,4,4,1,,,,,,,,,,,,,,,AMNE13.jpg,AMSA10.jpg,AMNE04.jpg,AMSA17.jpg,AMNE13.jpg,MN,1,num_8,16,num_8,3.26657532016,,,2017_Dec_04_1239,60.0172094335,MAFE4ImagesEEG,001,102427,
AFNE01.JPG,AFNE01.JPG,AFNE01.JPG,AFNE01.JPG,AFNE01.JPG,AFNE01.JPG,,,,,,,,,0,5,5,0,,,,,,,,,,,,,,,AMNE04.jpg,AMSA20.jpg,AMNE05.jpg,AMSA05.jpg,AMNE04.jpg,MN,1,num_8,32,num_2,1.03344764467,,,2017_Dec_04_1239,60.0172094335,MAFE4ImagesEEG,001,102427,
AFNE01.JPG,AFNE01.JPG,AFNE01.JPG,AFNE01.JPG,AFNE01.JPG,AFNE01.JPG,,,,,,,,,0,6,6,2,,,,,,,,,,,,,,,AMSA01.jpg,AMNE17.jpg,AMNE01.jpg,AMSA19.jpg,AMSA01.jpg,MS,2,num_8,32,num_4,0.850115370005,,,2017_Dec_04_1239,60.0172094335,MAFE4ImagesEEG,001,102427,
AFNE01.JPG,AFNE01.JPG,AFNE01.JPG,AFNE01.JPG,AFNE01.JPG,AFNE01.JPG,,,,,,,,,0,7,7,9,,,,,,,,,,,,,,,AMNE08.jpg,AMSA18.jpg,AMSA02.jpg,AMNE14.jpg,AMSA02.jpg,MS,2,num_2,32,num_6,1.00029700459,,,2017_Dec_04_1239,60.0172094335,MAFE4ImagesEEG,001,102427,
AFNE01.JPG,AFNE01.JPG,AFNE01.JPG,AFNE01.JPG,AFNE01.JPG,AFNE01.JPG,,,,,,,,,0,8,8,6,,,,,,,,,,,,,,,AMNE13.jpg,AMSA04.jpg,AMSA11.jpg,AMNE05.jpg,AMSA11.jpg,MS,2,num_2,32,num_6,1.016792621,,,2017_Dec_04_1239,60.0172094335,MAFE4ImagesEEG,001,102427,
AFNE01.JPG,AFNE01.JPG,AFNE01.JPG,AFNE01.JPG,AFNE01.JPG,AFNE01.JPG,,,,,,,,,0,9,9,5,,,,,,,,,,,,,,,AMNE20.jpg,AMSA10.jpg,AMSA12.jpg,AMNE08.jpg,AMSA12.jpg,MS,2,num_2,16,num_2,1.01676952792,,,2017_Dec_04_1239,60.0172094335,MAFE4ImagesEEG,001,102427,
AFNE01.JPG,AFNE01.JPG,AFNE01.JPG,AFNE01.JPG,AFNE01.JPG,AFNE01.JPG,,,,,,,,,1,0,10,6,,,,,,,,,,,,,,,AMSA13.jpg,AMNE13.jpg,AMSA11.jpg,AMNE20.jpg,AMSA13.jpg,MS,2,num_8,16,num_8,0.967085103039,,,2017_Dec_04_1239,60.0172094335,MAFE4ImagesEEG,001,102427,
AFNE01.JPG,AFNE01.JPG,AFNE01.JPG,AFNE01.JPG,AFNE01.JPG,AFNE01.JPG,,,,,,,,,1,1,11,0,,,,,,,,,,,,,,,AMSA08.jpg,AMSA10.jpg,AMNE19.jpg,AMNE07.jpg,AMSA08.jpg,MS,2,num_8,32,num_6,1.38338757027,,,2017_Dec_04_1239,60.0172094335,MAFE4ImagesEEG,001,102427,
AFNE01.JPG,AFNE01.JPG,AFNE01.JPG,AFNE01.JPG,AFNE01.JPG,AFNE01.JPG,,,,,,,,,1,2,12,4,,,,,,,,,,,,,,,AMSA11.jpg,AMNE03.jpg,AMNE05.jpg,AMSA15.jpg,AMNE05.jpg,MN,1,num_2,16,num_2,1.08345954423,,,2017_Dec_04_1239,60.0172094335,MAFE4ImagesEEG,001,102427,
AFNE01.JPG,AFNE01.JPG,AFNE01.JPG,AFNE01.JPG,AFNE01.JPG,AFNE01.JPG,,,,,,,,,1,3,13,8,,,,,,,,,,,,,,,AMNE15.jpg,AMSA14.jpg,AMNE03.jpg,AMSA08.jpg,AMSA14.jpg,MS,2,num_6,32,num_4,1.43341775192,,,2017_Dec_04_1239,60.0172094335,MAFE4ImagesEEG,001,102427,
AFNE01.JPG,AFNE01.JPG,AFNE01.JPG,AFNE01.JPG,AFNE01.JPG,AFNE01.JPG,,,,,,,,,1,4,14,2,,,,,,,,,,,,,,,AMNE01.jpg,AMSA13.jpg,AMNE08.jpg,AMSA17.jpg,AMSA13.jpg,MS,2,num_6,32,num_4,1.30007171724,,,2017_Dec_04_1239,60.0172094335,MAFE4ImagesEEG,001,102427,
AFNE01.JPG,AFNE01.JPG,AFNE01.JPG,AFNE01.JPG,AFNE01.JPG,AFNE01.JPG,,,,,,,,,1,5,15,1,,,,,,,,,,,,,,,AMSA18.jpg,AMSA20.jpg,AMNE16.jpg,AMNE08.jpg,AMNE16.jpg,MN,1,num_2,32,num_4,2.71662596497,,,2017_Dec_04_1239,60.0172094335,MAFE4ImagesEEG,001,102427,
AFNE01.JPG,AFNE01.JPG,AFNE01.JPG,AFNE01.JPG,AFNE01.JPG,AFNE01.JPG,,,,,,,,,1,6,16,9,,,,,,,,,,,,,,,AMSA16.jpg,AMSA17.jpg,AMNE11.jpg,AMNE12.jpg,AMSA17.jpg,MS,2,num_6,32,num_8,0.850179838482,,,2017_Dec_04_1239,60.0172094335,MAFE4ImagesEEG,001,102427,
AFNE01.JPG,AFNE01.JPG,AFNE01.JPG,AFNE01.JPG,AFNE01.JPG,AFNE01.JPG,,,,,,,,,1,7,17,3,,,,,,,,,,,,,,,AMNE04.jpg,AMSA09.jpg,AMNE20.jpg,AMSA08.jpg,AMSA08.jpg,MS,2,num_4,16,num_4,1.19992122659,,,2017_Dec_04_1239,60.0172094335,MAFE4ImagesEEG,001,102427,
AFNE01.JPG,AFNE01.JPG,AFNE01.JPG,AFNE01.JPG,AFNE01.JPG,AFNE01.JPG,,,,,,,,,1,8,18,5,,,,,,,,,,,,,,,AMNE20.jpg,AMNE18.jpg,AMSA15.jpg,AMSA10.jpg,AMSA10.jpg,MS,2,num_4,32,num_6,1.00009622192,,,2017_Dec_04_1239,60.0172094335,MAFE4ImagesEEG,001,102427,
AFNE01.JPG,AFNE01.JPG,AFNE01.JPG,AFNE01.JPG,AFNE01.JPG,AFNE01.JPG,,,,,,,,,1,9,19,7,,,,,,,,,,,,,,,AMSA19.jpg,AMSA04.jpg,AMNE10.jpg,AMNE02.jpg,AMSA19.jpg,MS,2,num_8,32,num_6,1.36663087201,,,2017_Dec_04_1239,60.0172094335,MAFE4ImagesEEG,001,102427,
AFNE01.JPG,AFNE01.JPG,AFNE01.JPG,AFNE01.JPG,AFNE01.JPG,AFNE01.JPG,,,,,,,,,2,0,20,1,,,,,,,,,,,,,,,AMNE19.jpg,AMNE11.jpg,AMSA04.jpg,AMSA09.jpg,AMSA09.jpg,MS,2,num_4,32,num_2,0.76682870416,,,2017_Dec_04_1239,60.0172094335,MAFE4ImagesEEG,001,102427,
AFNE01.JPG,AFNE01.JPG,AFNE01.JPG,AFNE01.JPG,AFNE01.JPG,AFNE01.JPG,,,,,,,,,2,1,21,3,,,,,,,,,,,,,,,AMSA20.jpg,AMSA17.jpg,AMNE11.jpg,AMNE16.jpg,AMSA20.jpg,MS,2,num_8,32,num_6,1.00014433265,,,2017_Dec_04_1239,60.0172094335,MAFE4ImagesEEG,001,102427,
AFNE01.JPG,AFNE01.JPG,AFNE01.JPG,AFNE01.JPG,AFNE01.JPG,AFNE01.JPG,,,,,,,,,2,2,22,4,,,,,,,,,,,,,,,AMSA01.jpg,AMNE03.jpg,AMSA08.jpg,AMNE16.jpg,AMNE16.jpg,MN,1,num_4,32,num_2,1.4001035348,,,2017_Dec_04_1239,60.0172094335,MAFE4ImagesEEG,001,102427,
AFNE01.JPG,AFNE01.JPG,AFNE01.JPG,AFNE01.JPG,AFNE01.JPG,AFNE01.JPG,,,,,,,,,2,3,23,2,,,,,,,,,,,,,,,AMNE04.jpg,AMNE13.jpg,AMSA13.jpg,AMSA06.jpg,AMNE13.jpg,MN,1,num_6,32,num_8,1.95001664641,,,2017_Dec_04_1239,60.0172094335,MAFE4ImagesEEG,001,102427,
AFNE01.JPG,AFNE01.JPG,AFNE01.JPG,AFNE01.JPG,AFNE01.JPG,AFNE01.JPG,,,,,,,,,2,4,24,9,,,,,,,,,,,,,,,AMSA08.jpg,AMSA14.jpg,AMNE08.jpg,AMNE10.jpg,AMNE08.jpg,MN,1,num_2,32,num_8,1.03345085215,,,2017_Dec_04_1239,60.0172094335,MAFE4ImagesEEG,001,102427,
AFNE01.JPG,AFNE01.JPG,AFNE01.JPG,AFNE01.JPG,AFNE01.JPG,AFNE01.JPG,,,,,,,,,2,5,25,8,,,,,,,,,,,,,,,AMSA09.jpg,AMNE05.jpg,AMNE03.jpg,AMSA15.jpg,AMSA15.jpg,MS,2,num_4,16,num_4,0.833439498208,,,2017_Dec_04_1239,60.0172094335,MAFE4ImagesEEG,001,102427,
AFNE01.JPG,AFNE01.JPG,AFNE01.JPG,AFNE01.JPG,AFNE01.JPG,AFNE01.JPG,,,,,,,,,2,6,26,7,,,,,,,,,,,,,,,AMSA20.jpg,AMNE20.jpg,AMNE08.jpg,AMSA02.jpg,AMNE08.jpg,MN,1,num_2,32,num_4,0.733488827711,,,2017_Dec_04_1239,60.0172094335,MAFE4ImagesEEG,001,102427,
AFNE01.JPG,AFNE01.JPG,AFNE01.JPG,AFNE01.JPG,AFNE01.JPG,AFNE01.JPG,,,,,,,,,2,7,27,5,,,,,,,,,,,,,,,AMNE04.jpg,AMSA12.jpg,AMSA16.jpg,AMNE03.jpg,AMNE03.jpg,MN,1,num_4,16,num_4,1.55004301132,,,2017_Dec_04_1239,60.0172094335,MAFE4ImagesEEG,001,102427,
AFNE01.JPG,AFNE01.JPG,AFNE01.JPG,AFNE01.JPG,AFNE01.JPG,AFNE01.JPG,,,,,,,,,2,8,28,6,,,,,,,,,,,,,,,AMSA18.jpg,AMNE03.jpg,AMSA10.jpg,AMNE16.jpg,AMNE03.jpg,MN,1,num_6,16,num_6,0.666779245948,,,2017_Dec_04_1239,60.0172094335,MAFE4ImagesEEG,001,102427,
AFNE01.JPG,AFNE01.JPG,AFNE01.JPG,AFNE01.JPG,AFNE01.JPG,AFNE01.JPG,,,,,,,,,2,9,29,0,,,,,,,,,,,,,,,AMSA03.jpg,AMNE19.jpg,AMSA05.jpg,AMNE13.jpg,AMNE19.jpg,MN,1,num_6,32,num_2,1.06688278075,,,2017_Dec_04_1239,60.0172094335,MAFE4ImagesEEG,001,102427,
AFNE01.JPG,AFNE01.JPG,AFNE01.JPG,AFNE01.JPG,AFNE01.JPG,AFNE01.JPG,,,,,,,,,3,0,30,7,,,,,,,,,,,,,,,AMSA14.jpg,AMSA06.jpg,AMNE03.jpg,AMNE11.jpg,AMSA14.jpg,MS,2,num_8,32,num_4,1.05006834958,,,2017_Dec_04_1239,60.0172094335,MAFE4ImagesEEG,001,102427,
AFNE01.JPG,AFNE01.JPG,AFNE01.JPG,AFNE01.JPG,AFNE01.JPG,AFNE01.JPG,,,,,,,,,3,1,31,8,,,,,,,,,,,,,,,AMSA18.jpg,AMNE20.jpg,AMNE17.jpg,AMSA05.jpg,AMSA05.jpg,MS,2,num_4,16,num_4,0.867029871792,,,2017_Dec_04_1239,60.0172094335,MAFE4ImagesEEG,001,102427,
AFNE01.JPG,AFNE01.JPG,AFNE01.JPG,AFNE01.JPG,AFNE01.JPG,AFNE01.JPG,,,,,,,,,3,2,32,1,,,,,,,,,,,,,,,AMSA15.jpg,AMSA01.jpg,AMNE05.jpg,AMNE19.jpg,AMNE05.jpg,MN,1,num_2,16,num_2,1.03343257005,,,2017_Dec_04_1239,60.0172094335,MAFE4ImagesEEG,001,102427,
AFNE01.JPG,AFNE01.JPG,AFNE01.JPG,AFNE01.JPG,AFNE01.JPG,AFNE01.JPG,,,,,,,,,3,3,33,5,,,,,,,,,,,,,,,AMSA13.jpg,AMSA14.jpg,AMNE17.jpg,AMNE10.jpg,AMNE17.jpg,MN,1,num_2,16,num_2,0.983435424743,,,2017_Dec_04_1239,60.0172094335,MAFE4ImagesEEG,001,102427,
AFNE01.JPG,AFNE01.JPG,AFNE01.JPG,AFNE01.JPG,AFNE01.JPG,AFNE01.JPG,,,,,,,,,3,4,34,3,,,,,,,,,,,,,,,AMSA19.jpg,AMNE16.jpg,AMSA15.jpg,AMNE03.jpg,AMSA15.jpg,MS,2,num_2,32,num_8,0.933442448732,,,2017_Dec_04_1239,60.0172094335,MAFE4ImagesEEG,001,102427,
AFNE01.JPG,AFNE01.JPG,AFNE01.JPG,AFNE01.JPG,AFNE01.JPG,AFNE01.JPG,,,,,,,,,3,5,35,2,,,,,,,,,,,,,,,AMNE10.jpg,AMNE13.jpg,AMSA15.jpg,AMSA09.jpg,AMNE13.jpg,MN,1,num_6,32,num_8,1.25005917624,,,2017_Dec_04_1239,60.0172094335,MAFE4ImagesEEG,001,102427,
AFNE01.JPG,AFNE01.JPG,AFNE01.JPG,AFNE01.JPG,AFNE01.JPG,AFNE01.JPG,,,,,,,,,3,6,36,0,,,,,,,,,,,,,,,AMNE08.jpg,AMSA07.jpg,AMSA05.jpg,AMNE04.jpg,AMSA05.jpg,MS,2,num_2,32,num_8,1.15015693777,,,2017_Dec_04_1239,60.0172094335,MAFE4ImagesEEG,001,102427,
AFNE01.JPG,AFNE01.JPG,AFNE01.JPG,AFNE01.JPG,AFNE01.JPG,AFNE01.JPG,,,,,,,,,3,7,37,9,,,,,,,,,,,,,,,AMSA02.jpg,AMNE07.jpg,AMNE11.jpg,AMSA10.jpg,AMSA10.jpg,MS,2,num_4,16,num_4,0.766786366468,,,2017_Dec_04_1239,60.0172094335,MAFE4ImagesEEG,001,102427,
AFNE01.JPG,AFNE01.JPG,AFNE01.JPG,AFNE01.JPG,AFNE01.JPG,AFNE01.JPG,,,,,,,,,3,8,38,4,,,,,,,,,,,,,,,AMNE14.jpg,AMSA12.jpg,AMNE08.jpg,AMSA11.jpg,AMNE08.jpg,MN,1,num_2,16,num_2,1.28340642969,,,2017_Dec_04_1239,60.0172094335,MAFE4ImagesEEG,001,102427,
AFNE01.JPG,AFNE01.JPG,AFNE01.JPG,AFNE01.JPG,AFNE01.JPG,AFNE01.JPG,,,,,,,,,3,9,39,6,,,,,,,,,,,,,,,AMNE20.jpg,AMNE08.jpg,AMSA03.jpg,AMSA08.jpg,AMNE20.jpg,MN,1,num_8,16,num_8,0.666485449066,,,2017_Dec_04_1239,60.0172094335,MAFE4ImagesEEG,001,102427,
AFNE01.JPG,AFNE01.JPG,AFNE01.JPG,AFNE01.JPG,AFNE01.JPG,AFNE01.JPG,,,,,,,,,4,0,40,3,,,,,,,,,,,,,,,AMNE16.jpg,AMSA16.jpg,AMSA02.jpg,AMNE12.jpg,AMNE16.jpg,MN,1,num_8,16,num_8,1.15011331718,,,2017_Dec_04_1239,60.0172094335,MAFE4ImagesEEG,001,102427,
AFNE01.JPG,AFNE01.JPG,AFNE01.JPG,AFNE01.JPG,AFNE01.JPG,AFNE01.JPG,,,,,,,,,4,1,41,2,,,,,,,,,,,,,,,AMSA16.jpg,AMSA03.jpg,AMNE15.jpg,AMNE06.jpg,AMSA03.jpg,MS,2,num_6,16,num_6,1.30009064078,,,2017_Dec_04_1239,60.0172094335,MAFE4ImagesEEG,001,102427,
AFNE01.JPG,AFNE01.JPG,AFNE01.JPG,AFNE01.JPG,AFNE01.JPG,AFNE01.JPG,,,,,,,,,4,2,42,5,,,,,,,,,,,,,,,AMNE05.jpg,AMNE11.jpg,AMSA19.jpg,AMSA02.jpg,AMSA19.jpg,MS,2,num_2,16,num_2,0.750108249485,,,2017_Dec_04_1239,60.0172094335,MAFE4ImagesEEG,001,102427,
AFNE01.JPG,AFNE01.JPG,AFNE01.JPG,AFNE01.JPG,AFNE01.JPG,AFNE01.JPG,,,,,,,,,4,3,43,9,,,,,,,,,,,,,,,AMNE19.jpg,AMSA15.jpg,AMNE18.jpg,AMSA10.jpg,AMNE19.jpg,MN,1,num_8,16,num_8,1.05008855602,,,2017_Dec_04_1239,60.0172094335,MAFE4ImagesEEG,001,102427,
AFNE01.JPG,AFNE01.JPG,AFNE01.JPG,AFNE01.JPG,AFNE01.JPG,AFNE01.JPG,,,,,,,,,4,4,44,8,,,,,,,,,,,,,,,AMNE10.jpg,AMNE07.jpg,AMSA19.jpg,AMSA15.jpg,AMNE07.jpg,MN,1,num_6,16,num_6,1.85003935453,,,2017_Dec_04_1239,60.0172094335,MAFE4ImagesEEG,001,102427,
AFNE01.JPG,AFNE01.JPG,AFNE01.JPG,AFNE01.JPG,AFNE01.JPG,AFNE01.JPG,,,,,,,,,4,5,45,4,,,,,,,,,,,,,,,AMNE10.jpg,AMNE13.jpg,AMSA03.jpg,AMSA19.jpg,AMNE13.jpg,MN,1,num_6,32,num_2,1.3334263477,,,2017_Dec_04_1239,60.0172094335,MAFE4ImagesEEG,001,102427,
AFNE01.JPG,AFNE01.JPG,AFNE01.JPG,AFNE01.JPG,AFNE01.JPG,AFNE01.JPG,,,,,,,,,4,6,46,6,,,,,,,,,,,,,,,AMNE12.jpg,AMNE01.jpg,AMSA16.jpg,AMSA01.jpg,AMSA16.jpg,MS,2,num_2,16,num_2,1.41659979243,,,2017_Dec_04_1239,60.0172094335,MAFE4ImagesEEG,001,102427,
AFNE01.JPG,AFNE01.JPG,AFNE01.JPG,AFNE01.JPG,AFNE01.JPG,AFNE01.JPG,,,,,,,,,4,7,47,1,,,,,,,,,,,,,,,AMSA07.jpg,AMNE11.jpg,AMSA08.jpg,AMNE20.jpg,AMSA07.jpg,MS,2,num_8,16,num_8,0.966736780247,,,2017_Dec_04_1239,60.0172094335,MAFE4ImagesEEG,001,102427,
AFNE01.JPG,AFNE01.JPG,AFNE01.JPG,AFNE01.JPG,AFNE01.JPG,AFNE01.JPG,,,,,,,,,4,8,48,7,,,,,,,,,,,,,,,AMNE15.jpg,AMSA06.jpg,AMNE11.jpg,AMSA04.jpg,AMSA04.jpg,MS,2,num_4,32,num_6,1.03347779415,,,2017_Dec_04_1239,60.0172094335,MAFE4ImagesEEG,001,102427,
AFNE01.JPG,AFNE01.JPG,AFNE01.JPG,AFNE01.JPG,AFNE01.JPG,AFNE01.JPG,,,,,,,,,4,9,49,0,,,,,,,,,,,,,,,AMSA02.jpg,AMNE05.jpg,AMNE11.jpg,AMSA01.jpg,AMSA02.jpg,MS,2,num_8,32,num_4,1.50004682783,,,2017_Dec_04_1239,60.0172094335,MAFE4ImagesEEG,001,102427,
AFNE01.JPG,AFNE01.JPG,AFNE01.JPG,AFNE01.JPG,AFNE01.JPG,AFNE01.JPG,,,,,,,,,5,0,50,4,,,,,,,,,,,,,,,AMNE06.jpg,AMSA05.jpg,AMNE14.jpg,AMSA16.jpg,AMNE14.jpg,MN,1,num_2,16,num_2,1.38336126972,,,2017_Dec_04_1239,60.0172094335,MAFE4ImagesEEG,001,102427,
AFNE01.JPG,AFNE01.JPG,AFNE01.JPG,AFNE01.JPG,AFNE01.JPG,AFNE01.JPG,,,,,,,,,5,1,51,1,,,,,,,,,,,,,,,AMNE17.jpg,AMSA06.jpg,AMSA01.jpg,AMNE03.jpg,AMNE17.jpg,MN,1,num_8,16,num_8,1.45015937532,,,2017_Dec_04_1239,60.0172094335,MAFE4ImagesEEG,001,102427,
AFNE01.JPG,AFNE01.JPG,AFNE01.JPG,AFNE01.JPG,AFNE01.JPG,AFNE01.JPG,,,,,,,,,5,2,52,8,,,,,,,,,,,,,,,AMNE12.jpg,AMSA05.jpg,AMSA02.jpg,AMNE09.jpg,AMSA05.jpg,MS,2,num_6,32,num_2,1.48333503329,,,2017_Dec_04_1239,60.0172094335,MAFE4ImagesEEG,001,102427,
AFNE01.JPG,AFNE01.JPG,AFNE01.JPG,AFNE01.JPG,AFNE01.JPG,AFNE01.JPG,,,,,,,,,5,3,53,3,,,,,,,,,,,,,,,AMSA16.jpg,AMNE02.jpg,AMNE14.jpg,AMSA03.jpg,AMNE02.jpg,MN,1,num_6,32,num_2,2.26666320278,,,2017_Dec_04_1239,60.0172094335,MAFE4ImagesEEG,001,102427,
AFNE01.JPG,AFNE01.JPG,AFNE01.JPG,AFNE01.JPG,AFNE01.JPG,AFNE01.JPG,,,,,,,,,5,4,54,7,,,,,,,,,,,,,,,AMNE01.jpg,AMSA09.jpg,AMSA15.jpg,AMNE08.jpg,AMNE01.jpg,MN,1,num_8,16,num_8,1.01674066135,,,2017_Dec_04_1239,60.0172094335,MAFE4ImagesEEG,001,102427,
AFNE01.JPG,AFNE01.JPG,AFNE01.JPG,AFNE01.JPG,AFNE01.JPG,AFNE01.JPG,,,,,,,,,5,5,55,9,,,,,,,,,,,,,,,AMSA12.jpg,AMNE14.jpg,AMNE15.jpg,AMSA17.jpg,AMSA12.jpg,MS,2,num_8,32,num_4,0.916737710359,,,2017_Dec_04_1239,60.0172094335,MAFE4ImagesEEG,001,102427,
AFNE01.JPG,AFNE01.JPG,AFNE01.JPG,AFNE01.JPG,AFNE01.JPG,AFNE01.JPG,,,,,,,,,5,6,56,2,,,,,,,,,,,,,,,AMSA20.jpg,AMNE03.jpg,AMSA01.jpg,AMNE18.jpg,AMSA20.jpg,MS,2,num_8,32,num_2,1.03346785135,,,2017_Dec_04_1239,60.0172094335,MAFE4ImagesEEG,001,102427,
AFNE01.JPG,AFNE01.JPG,AFNE01.JPG,AFNE01.JPG,AFNE01.JPG,AFNE01.JPG,,,,,,,,,5,7,57,6,,,,,,,,,,,,,,,AMSA16.jpg,AMSA10.jpg,AMNE11.jpg,AMNE05.jpg,AMSA16.jpg,MS,2,num_8,32,num_4,1.30008903705,,,2017_Dec_04_1239,60.0172094335,MAFE4ImagesEEG,001,102427,
AFNE01.JPG,AFNE01.JPG,AFNE01.JPG,AFNE01.JPG,AFNE01.JPG,AFNE01.JPG,,,,,,,,,5,8,58,0,,,,,,,,,,,,,,,AMSA13.jpg,AMSA18.jpg,AMNE18.jpg,AMNE17.jpg,AMNE17.jpg,MN,1,num_4,16,num_4,1.03342198557,,,2017_Dec_04_1239,60.0172094335,MAFE4ImagesEEG,001,102427,
AFNE01.JPG,AFNE01.JPG,AFNE01.JPG,AFNE01.JPG,AFNE01.JPG,AFNE01.JPG,,,,,,,,,5,9,59,5,,,,,,,,,,,,,,,AMSA12.jpg,AMNE14.jpg,AMSA17.jpg,AMNE02.jpg,AMSA17.jpg,MS,2,num_2,16,num_2,0.983433179557,,,2017_Dec_04_1239,60.0172094335,MAFE4ImagesEEG,001,102427,
,,,,,,,,,,,,,,,,,,,,,,,,,,,,,,,,,,,,,,,,,,,space,43.0968253876,2017_Dec_04_1239,60.0172094335,MAFE4ImagesEEG,001,102427,
AFNE01.JPG,AFNE01.JPG,AFNE01.JPG,AFNE01.JPG,AFNE01.JPG,AFNE01.JPG,,,,,,,,,,,,,0,0,0,2,,,,,,,,,,,AFNE15.jpg,AFSA12.jpg,AFSA11.jpg,AFNE14.jpg,AFNE15.jpg,FN,3,num_8,16,num_8,1.00012701261,,,2017_Dec_04_1239,60.0172094335,MAFE4ImagesEEG,001,102427,
AFNE01.JPG,AFNE01.JPG,AFNE01.JPG,AFNE01.JPG,AFNE01.JPG,AFNE01.JPG,,,,,,,,,,,,,0,1,1,1,,,,,,,,,,,AFSA07.jpg,AFSA15.jpg,AFNE15.jpg,AFNE18.jpg,AFSA07.jpg,FS,4,num_8,32,num_4,1.25006847782,,,2017_Dec_04_1239,60.0172094335,MAFE4ImagesEEG,001,102427,
AFNE01.JPG,AFNE01.JPG,AFNE01.JPG,AFNE01.JPG,AFNE01.JPG,AFNE01.JPG,,,,,,,,,,,,,0,2,2,9,,,,,,,,,,,AFNE03.jpg,AFSA08.jpg,AFSA10.jpg,AFNE10.jpg,AFNE03.jpg,FN,3,num_8,16,num_8,0.933680437505,,,2017_Dec_04_1239,60.0172094335,MAFE4ImagesEEG,001,102427,
AFNE01.JPG,AFNE01.JPG,AFNE01.JPG,AFNE01.JPG,AFNE01.JPG,AFNE01.JPG,,,,,,,,,,,,,0,3,3,8,,,,,,,,,,,AFSA10.jpg,AFSA16.jpg,AFNE11.jpg,AFNE02.jpg,AFSA16.jpg,FS,4,num_6,32,num_8,1.68337108451,,,2017_Dec_04_1239,60.0172094335,MAFE4ImagesEEG,001,102427,
AFNE01.JPG,AFNE01.JPG,AFNE01.JPG,AFNE01.JPG,AFNE01.JPG,AFNE01.JPG,,,,,,,,,,,,,0,4,4,5,,,,,,,,,,,AFNE13.jpg,AFSA08.jpg,AFNE11.jpg,AFSA18.jpg,AFSA18.jpg,FS,4,num_4,16,num_4,0.966775589623,,,2017_Dec_04_1239,60.0172094335,MAFE4ImagesEEG,001,102427,
AFNE01.JPG,AFNE01.JPG,AFNE01.JPG,AFNE01.JPG,AFNE01.JPG,AFNE01.JPG,,,,,,,,,,,,,0,5,5,4,,,,,,,,,,,AFNE06.jpg,AFNE01.jpg,AFSA18.jpg,AFSA03.jpg,AFSA18.jpg,FS,4,num_2,16,num_2,0.950117037864,,,2017_Dec_04_1239,60.0172094335,MAFE4ImagesEEG,001,102427,
AFNE01.JPG,AFNE01.JPG,AFNE01.JPG,AFNE01.JPG,AFNE01.JPG,AFNE01.JPG,,,,,,,,,,,,,0,6,6,6,,,,,,,,,,,AFSA20.jpg,AFSA10.jpg,AFNE02.jpg,AFNE16.jpg,AFSA20.jpg,FS,4,num_8,32,num_6,0.883453321876,,,2017_Dec_04_1239,60.0172094335,MAFE4ImagesEEG,001,102427,
AFNE01.JPG,AFNE01.JPG,AFNE01.JPG,AFNE01.JPG,AFNE01.JPG,AFNE01.JPG,,,,,,,,,,,,,0,7,7,7,,,,,,,,,,,AFNE14.jpg,AFNE05.jpg,AFSA18.jpg,AFSA02.jpg,AFNE05.jpg,FN,3,num_6,32,num_4,1.18346089148,,,2017_Dec_04_1239,60.0172094335,MAFE4ImagesEEG,001,102427,
AFNE01.JPG,AFNE01.JPG,AFNE01.JPG,AFNE01.JPG,AFNE01.JPG,AFNE01.JPG,,,,,,,,,,,,,0,8,8,0,,,,,,,,,,,AFSA01.jpg,AFNE01.jpg,AFNE17.jpg,AFSA09.jpg,AFNE17.jpg,FN,3,num_2,16,num_2,0.8334789488,,,2017_Dec_04_1239,60.0172094335,MAFE4ImagesEEG,001,102427,
AFNE01.JPG,AFNE01.JPG,AFNE01.JPG,AFNE01.JPG,AFNE01.JPG,AFNE01.JPG,,,,,,,,,,,,,0,9,9,3,,,,,,,,,,,AFNE03.jpg,AFSA13.jpg,AFNE01.jpg,AFSA20.jpg,AFNE01.jpg,FN,3,num_2,16,num_2,1.20016370527,,,2017_Dec_04_1239,60.0172094335,MAFE4ImagesEEG,001,102427,
AFNE01.JPG,AFNE01.JPG,AFNE01.JPG,AFNE01.JPG,AFNE01.JPG,AFNE01.JPG,,,,,,,,,,,,,1,0,10,9,,,,,,,,,,,AFNE17.jpg,AFNE01.jpg,AFSA01.jpg,AFSA20.jpg,AFSA01.jpg,FS,4,num_2,32,num_4,1.03339985455,,,2017_Dec_04_1239,60.0172094335,MAFE4ImagesEEG,001,102427,
AFNE01.JPG,AFNE01.JPG,AFNE01.JPG,AFNE01.JPG,AFNE01.JPG,AFNE01.JPG,,,,,,,,,,,,,1,1,11,1,,,,,,,,,,,AFNE12.jpg,AFNE10.jpg,AFSA19.jpg,AFSA11.jpg,AFSA19.jpg,FS,4,num_2,32,num_4,0.949969497742,,,2017_Dec_04_1239,60.0172094335,MAFE4ImagesEEG,001,102427,
AFNE01.JPG,AFNE01.JPG,AFNE01.JPG,AFNE01.JPG,AFNE01.JPG,AFNE01.JPG,,,,,,,,,,,,,1,2,12,0,,,,,,,,,,,AFNE10.jpg,AFSA04.jpg,AFNE04.jpg,AFSA18.jpg,AFNE04.jpg,FN,3,num_2,32,num_8,0.916917965747,,,2017_Dec_04_1239,60.0172094335,MAFE4ImagesEEG,001,102427,
AFNE01.JPG,AFNE01.JPG,AFNE01.JPG,AFNE01.JPG,AFNE01.JPG,AFNE01.JPG,,,,,,,,,,,,,1,3,13,5,,,,,,,,,,,AFNE10.jpg,AFSA14.jpg,AFSA18.jpg,AFNE18.jpg,AFSA14.jpg,FS,4,num_6,16,num_6,1.18346923054,,,2017_Dec_04_1239,60.0172094335,MAFE4ImagesEEG,001,102427,
AFNE01.JPG,AFNE01.JPG,AFNE01.JPG,AFNE01.JPG,AFNE01.JPG,AFNE01.JPG,,,,,,,,,,,,,1,4,14,3,,,,,,,,,,,AFSA12.jpg,AFNE05.jpg,AFNE14.jpg,AFSA17.jpg,AFSA12.jpg,FS,4,num_8,16,num_8,0.550063858973,,,2017_Dec_04_1239,60.0172094335,MAFE4ImagesEEG,001,102427,
AFNE01.JPG,AFNE01.JPG,AFNE01.JPG,AFNE01.JPG,AFNE01.JPG,AFNE01.JPG,,,,,,,,,,,,,1,5,15,8,,,,,,,,,,,AFNE02.jpg,AFNE05.jpg,AFSA10.jpg,AFSA15.jpg,AFNE02.jpg,FN,3,num_8,16,num_8,1.31682713237,,,2017_Dec_04_1239,60.0172094335,MAFE4ImagesEEG,001,102427,
AFNE01.JPG,AFNE01.JPG,AFNE01.JPG,AFNE01.JPG,AFNE01.JPG,AFNE01.JPG,,,,,,,,,,,,,1,6,16,2,,,,,,,,,,,AFNE09.jpg,AFSA03.jpg,AFNE16.jpg,AFSA07.jpg,AFNE09.jpg,FN,3,num_8,32,num_2,1.70005305018,,,2017_Dec_04_1239,60.0172094335,MAFE4ImagesEEG,001,102427,
AFNE01.JPG,AFNE01.JPG,AFNE01.JPG,AFNE01.JPG,AFNE01.JPG,AFNE01.JPG,,,,,,,,,,,,,1,7,17,6,,,,,,,,,,,AFSA02.jpg,AFNE01.jpg,AFNE11.jpg,AFSA12.jpg,AFSA02.jpg,FS,4,num_8,32,num_6,1.80012079026,,,2017_Dec_04_1239,60.0172094335,MAFE4ImagesEEG,001,102427,
AFNE01.JPG,AFNE01.JPG,AFNE01.JPG,AFNE01.JPG,AFNE01.JPG,AFNE01.JPG,,,,,,,,,,,,,1,8,18,4,,,,,,,,,,,AFNE11.jpg,AFSA17.jpg,AFNE19.jpg,AFSA01.jpg,AFNE11.jpg,FN,3,num_8,32,num_4,1.15004756558,,,2017_Dec_04_1239,60.0172094335,MAFE4ImagesEEG,001,102427,
AFNE01.JPG,AFNE01.JPG,AFNE01.JPG,AFNE01.JPG,AFNE01.JPG,AFNE01.JPG,,,,,,,,,,,,,1,9,19,7,,,,,,,,,,,AFNE12.jpg,AFSA16.jpg,AFNE13.jpg,AFSA11.jpg,AFSA11.jpg,FS,4,num_4,16,num_4,0.950156488689,,,2017_Dec_04_1239,60.0172094335,MAFE4ImagesEEG,001,102427,
AFNE01.JPG,AFNE01.JPG,AFNE01.JPG,AFNE01.JPG,AFNE01.JPG,AFNE01.JPG,,,,,,,,,,,,,2,0,20,5,,,,,,,,,,,AFNE14.jpg,AFSA05.jpg,AFNE15.jpg,AFSA15.jpg,AFSA05.jpg,FS,4,num_6,16,num_6,1.08347205305,,,2017_Dec_04_1239,60.0172094335,MAFE4ImagesEEG,001,102427,
AFNE01.JPG,AFNE01.JPG,AFNE01.JPG,AFNE01.JPG,AFNE01.JPG,AFNE01.JPG,,,,,,,,,,,,,2,1,21,3,,,,,,,,,,,AFNE16.jpg,AFSA03.jpg,AFNE01.jpg,AFSA02.jpg,AFSA02.jpg,FS,4,num_4,16,num_4,0.933609553846,,,2017_Dec_04_1239,60.0172094335,MAFE4ImagesEEG,001,102427,
AFNE01.JPG,AFNE01.JPG,AFNE01.JPG,AFNE01.JPG,AFNE01.JPG,AFNE01.JPG,,,,,,,,,,,,,2,2,22,1,,,,,,,,,,,AFSA02.jpg,AFSA04.jpg,AFNE18.jpg,AFNE19.jpg,AFNE18.jpg,FN,3,num_2,32,num_4,1.25009413692,,,2017_Dec_04_1239,60.0172094335,MAFE4ImagesEEG,001,102427,
AFNE01.JPG,AFNE01.JPG,AFNE01.JPG,AFNE01.JPG,AFNE01.JPG,AFNE01.JPG,,,,,,,,,,,,,2,3,23,2,,,,,,,,,,,AFNE15.jpg,AFSA05.jpg,AFNE17.jpg,AFSA10.jpg,AFSA10.jpg,FS,4,num_4,16,num_4,0.883441775339,,,2017_Dec_04_1239,60.0172094335,MAFE4ImagesEEG,001,102427,
AFNE01.JPG,AFNE01.JPG,AFNE01.JPG,AFNE01.JPG,AFNE01.JPG,AFNE01.JPG,,,,,,,,,,,,,2,4,24,4,,,,,,,,,,,AFNE15.jpg,AFSA10.jpg,AFNE14.jpg,AFSA16.jpg,AFNE14.jpg,FN,3,num_2,16,num_2,1.73336983356,,,2017_Dec_04_1239,60.0172094335,MAFE4ImagesEEG,001,102427,
AFNE01.JPG,AFNE01.JPG,AFNE01.JPG,AFNE01.JPG,AFNE01.JPG,AFNE01.JPG,,,,,,,,,,,,,2,5,25,7,,,,,,,,,,,AFSA14.jpg,AFSA05.jpg,AFNE12.jpg,AFNE13.jpg,AFSA14.jpg,FS,4,num_8,32,num_4,0.916781330947,,,2017_Dec_04_1239,60.0172094335,MAFE4ImagesEEG,001,102427,
AFNE01.JPG,AFNE01.JPG,AFNE01.JPG,AFNE01.JPG,AFNE01.JPG,AFNE01.JPG,,,,,,,,,,,,,2,6,26,8,,,,,,,,,,,AFSA07.jpg,AFNE08.jpg,AFNE05.jpg,AFSA13.jpg,AFNE08.jpg,FN,3,num_6,32,num_2,1.25008291123,,,2017_Dec_04_1239,60.0172094335,MAFE4ImagesEEG,001,102427,
AFNE01.JPG,AFNE01.JPG,AFNE01.JPG,AFNE01.JPG,AFNE01.JPG,AFNE01.JPG,,,,,,,,,,,,,2,7,27,6,,,,,,,,,,,AFNE09.jpg,AFSA15.jpg,AFNE13.jpg,AFSA05.jpg,AFSA05.jpg,FS,4,num_4,16,num_4,0.833438215079,,,2017_Dec_04_1239,60.0172094335,MAFE4ImagesEEG,001,102427,
AFNE01.JPG,AFNE01.JPG,AFNE01.JPG,AFNE01.JPG,AFNE01.JPG,AFNE01.JPG,,,,,,,,,,,,,2,8,28,0,,,,,,,,,,,AFSA17.jpg,AFSA10.jpg,AFNE15.jpg,AFNE16.jpg,AFNE15.jpg,FN,3,num_2,32,num_8,0.666742681758,,,2017_Dec_04_1239,60.0172094335,MAFE4ImagesEEG,001,102427,
AFNE01.JPG,AFNE01.JPG,AFNE01.JPG,AFNE01.JPG,AFNE01.JPG,AFNE01.JPG,,,,,,,,,,,,,2,9,29,9,,,,,,,,,,,AFSA08.jpg,AFNE12.jpg,AFNE18.jpg,AFSA20.jpg,AFSA20.jpg,FS,4,num_4,32,num_2,1.18343010033,,,2017_Dec_04_1239,60.0172094335,MAFE4ImagesEEG,001,102427,
AFNE01.JPG,AFNE01.JPG,AFNE01.JPG,AFNE01.JPG,AFNE01.JPG,AFNE01.JPG,,,,,,,,,,,,,3,0,30,5,,,,,,,,,,,AFSA09.jpg,AFSA10.jpg,AFNE17.jpg,AFNE10.jpg,AFSA09.jpg,FS,4,num_8,32,num_4,1.133284132,,,2017_Dec_04_1239,60.0172094335,MAFE4ImagesEEG,001,102427,
AFNE01.JPG,AFNE01.JPG,AFNE01.JPG,AFNE01.JPG,AFNE01.JPG,AFNE01.JPG,,,,,,,,,,,,,3,1,31,9,,,,,,,,,,,AFSA18.jpg,AFNE05.jpg,AFNE15.jpg,AFSA09.jpg,AFNE05.jpg,FN,3,num_6,32,num_8,1.13342461572,,,2017_Dec_04_1239,60.0172094335,MAFE4ImagesEEG,001,102427,
AFNE01.JPG,AFNE01.JPG,AFNE01.JPG,AFNE01.JPG,AFNE01.JPG,AFNE01.JPG,,,,,,,,,,,,,3,2,32,6,,,,,,,,,,,AFSA11.jpg,AFNE15.jpg,AFNE08.jpg,AFSA14.jpg,AFSA14.jpg,FS,4,num_4,16,num_4,1.36673831986,,,2017_Dec_04_1239,60.0172094335,MAFE4ImagesEEG,001,102427,
AFNE01.JPG,AFNE01.JPG,AFNE01.JPG,AFNE01.JPG,AFNE01.JPG,AFNE01.JPG,,,,,,,,,,,,,3,3,33,1,,,,,,,,,,,AFSA16.jpg,AFNE11.jpg,AFSA11.jpg,AFNE05.jpg,AFNE11.jpg,FN,3,num_6,32,num_4,0.883509771898,,,2017_Dec_04_1239,60.0172094335,MAFE4ImagesEEG,001,102427,
AFNE01.JPG,AFNE01.JPG,AFNE01.JPG,AFNE01.JPG,AFNE01.JPG,AFNE01.JPG,,,,,,,,,,,,,3,4,34,2,,,,,,,,,,,AFNE01.jpg,AFSA19.jpg,AFSA14.jpg,AFNE15.jpg,AFNE15.jpg,FN,3,num_4,32,num_8,1.1500927899,,,2017_Dec_04_1239,60.0172094335,MAFE4ImagesEEG,001,102427,
AFNE01.JPG,AFNE01.JPG,AFNE01.JPG,AFNE01.JPG,AFNE01.JPG,AFNE01.JPG,,,,,,,,,,,,,3,5,35,7,,,,,,,,,,,AFSA05.jpg,AFNE17.jpg,AFNE08.jpg,AFSA14.jpg,AFNE17.jpg,FN,3,num_6,32,num_4,1.04995801533,,,2017_Dec_04_1239,60.0172094335,MAFE4ImagesEEG,001,102427,
AFNE01.JPG,AFNE01.JPG,AFNE01.JPG,AFNE01.JPG,AFNE01.JPG,AFNE01.JPG,,,,,,,,,,,,,3,6,36,4,,,,,,,,,,,AFNE09.jpg,AFSA16.jpg,AFSA13.jpg,AFNE04.jpg,AFSA13.jpg,FS,4,num_2,32,num_4,3.48329205415,,,2017_Dec_04_1239,60.0172094335,MAFE4ImagesEEG,001,102427,
AFNE01.JPG,AFNE01.JPG,AFNE01.JPG,AFNE01.JPG,AFNE01.JPG,AFNE01.JPG,,,,,,,,,,,,,3,7,37,3,,,,,,,,,,,AFNE01.jpg,AFNE08.jpg,AFSA08.jpg,AFSA11.jpg,AFSA08.jpg,FS,4,num_2,16,num_2,0.700132593513,,,2017_Dec_04_1239,60.0172094335,MAFE4ImagesEEG,001,102427,
AFNE01.JPG,AFNE01.JPG,AFNE01.JPG,AFNE01.JPG,AFNE01.JPG,AFNE01.JPG,,,,,,,,,,,,,3,8,38,0,,,,,,,,,,,AFNE12.jpg,AFSA18.jpg,AFNE20.jpg,AFSA06.jpg,AFSA06.jpg,FS,4,num_4,32,num_6,1.53339568502,,,2017_Dec_04_1239,60.0172094335,MAFE4ImagesEEG,001,102427,
AFNE01.JPG,AFNE01.JPG,AFNE01.JPG,AFNE01.JPG,AFNE01.JPG,AFNE01.JPG,,,,,,,,,,,,,3,9,39,8,,,,,,,,,,,AFNE11.jpg,AFSA15.jpg,AFSA10.jpg,AFNE07.jpg,AFSA10.jpg,FS,4,num_2,16,num_2,0.783499764977,,,2017_Dec_04_1239,60.0172094335,MAFE4ImagesEEG,001,102427,
AFNE01.JPG,AFNE01.JPG,AFNE01.JPG,AFNE01.JPG,AFNE01.JPG,AFNE01.JPG,,,,,,,,,,,,,4,0,40,3,,,,,,,,,,,AFNE09.jpg,AFNE11.jpg,AFSA10.jpg,AFSA12.jpg,AFNE09.jpg,FN,3,num_8,32,num_2,1.45006058761,,,2017_Dec_04_1239,60.0172094335,MAFE4ImagesEEG,001,102427,
AFNE01.JPG,AFNE01.JPG,AFNE01.JPG,AFNE01.JPG,AFNE01.JPG,AFNE01.JPG,,,,,,,,,,,,,4,1,41,0,,,,,,,,,,,AFNE12.jpg,AFSA15.jpg,AFNE10.jpg,AFSA11.jpg,AFSA11.jpg,FS,4,num_4,32,num_6,1.2335010157,,,2017_Dec_04_1239,60.0172094335,MAFE4ImagesEEG,001,102427,
AFNE01.JPG,AFNE01.JPG,AFNE01.JPG,AFNE01.JPG,AFNE01.JPG,AFNE01.JPG,,,,,,,,,,,,,4,2,42,8,,,,,,,,,,,AFSA03.jpg,AFSA19.jpg,AFNE13.jpg,AFNE05.jpg,AFNE13.jpg,FN,3,num_2,16,num_2,1.5667140719,,,2017_Dec_04_1239,60.0172094335,MAFE4ImagesEEG,001,102427,
AFNE01.JPG,AFNE01.JPG,AFNE01.JPG,AFNE01.JPG,AFNE01.JPG,AFNE01.JPG,,,,,,,,,,,,,4,3,43,5,,,,,,,,,,,AFNE11.jpg,AFNE19.jpg,AFSA19.jpg,AFSA14.jpg,AFSA19.jpg,FS,4,num_2,32,num_4,1.35009837081,,,2017_Dec_04_1239,60.0172094335,MAFE4ImagesEEG,001,102427,
AFNE01.JPG,AFNE01.JPG,AFNE01.JPG,AFNE01.JPG,AFNE01.JPG,AFNE01.JPG,,,,,,,,,,,,,4,4,44,4,,,,,,,,,,,AFSA05.jpg,AFNE03.jpg,AFNE20.jpg,AFSA08.jpg,AFSA08.jpg,FS,4,num_4,32,num_8,0.700146706076,,,2017_Dec_04_1239,60.0172094335,MAFE4ImagesEEG,001,102427,
AFNE01.JPG,AFNE01.JPG,AFNE01.JPG,AFNE01.JPG,AFNE01.JPG,AFNE01.JPG,,,,,,,,,,,,,4,5,45,9,,,,,,,,,,,AFSA14.jpg,AFNE18.jpg,AFSA03.jpg,AFNE11.jpg,AFSA14.jpg,FS,4,num_8,32,num_4,0.633530138992,,,2017_Dec_04_1239,60.0172094335,MAFE4ImagesEEG,001,102427,
AFNE01.JPG,AFNE01.JPG,AFNE01.JPG,AFNE01.JPG,AFNE01.JPG,AFNE01.JPG,,,,,,,,,,,,,4,6,46,6,,,,,,,,,,,AFNE14.jpg,AFSA03.jpg,AFSA08.jpg,AFNE18.jpg,AFSA03.jpg,FS,4,num_6,16,num_6,0.800209314562,,,2017_Dec_04_1239,60.0172094335,MAFE4ImagesEEG,001,102427,
AFNE01.JPG,AFNE01.JPG,AFNE01.JPG,AFNE01.JPG,AFNE01.JPG,AFNE01.JPG,,,,,,,,,,,,,4,7,47,1,,,,,,,,,,,AFSA20.jpg,AFNE15.jpg,AFSA14.jpg,AFNE16.jpg,AFNE15.jpg,FN,3,num_6,32,num_4,0.866652361816,,,2017_Dec_04_1239,60.0172094335,MAFE4ImagesEEG,001,102427,
AFNE01.JPG,AFNE01.JPG,AFNE01.JPG,AFNE01.JPG,AFNE01.JPG,AFNE01.JPG,,,,,,,,,,,,,4,8,48,2,,,,,,,,,,,AFNE11.jpg,AFSA02.jpg,AFSA20.jpg,AFNE14.jpg,AFNE14.jpg,FN,3,num_4,32,num_8,1.13343680371,,,2017_Dec_04_1239,60.0172094335,MAFE4ImagesEEG,001,102427,
AFNE01.JPG,AFNE01.JPG,AFNE01.JPG,AFNE01.JPG,AFNE01.JPG,AFNE01.JPG,,,,,,,,,,,,,4,9,49,7,,,,,,,,,,,AFNE14.jpg,AFSA11.jpg,AFSA16.jpg,AFNE11.jpg,AFSA16.jpg,FS,4,num_2,32,num_4,3.1499359482,,,2017_Dec_04_1239,60.0172094335,MAFE4ImagesEEG,001,102427,
AFNE01.JPG,AFNE01.JPG,AFNE01.JPG,AFNE01.JPG,AFNE01.JPG,AFNE01.JPG,,,,,,,,,,,,,5,0,50,1,,,,,,,,,,,AFNE03.jpg,AFSA05.jpg,AFNE07.jpg,AFSA20.jpg,AFSA05.jpg,FS,4,num_6,16,num_6,0.750145455124,,,2017_Dec_04_1239,60.0172094335,MAFE4ImagesEEG,001,102427,
AFNE01.JPG,AFNE01.JPG,AFNE01.JPG,AFNE01.JPG,AFNE01.JPG,AFNE01.JPG,,,,,,,,,,,,,5,1,51,3,,,,,,,,,,,AFNE13.jpg,AFSA18.jpg,AFNE11.jpg,AFSA04.jpg,AFSA04.jpg,FS,4,num_4,16,num_4,0.766766480869,,,2017_Dec_04_1239,60.0172094335,MAFE4ImagesEEG,001,102427,
AFNE01.JPG,AFNE01.JPG,AFNE01.JPG,AFNE01.JPG,AFNE01.JPG,AFNE01.JPG,,,,,,,,,,,,,5,2,52,7,,,,,,,,,,,AFSA20.jpg,AFSA05.jpg,AFNE11.jpg,AFNE10.jpg,AFNE10.jpg,FN,3,num_4,32,num_8,0.966756666079,,,2017_Dec_04_1239,60.0172094335,MAFE4ImagesEEG,001,102427,
AFNE01.JPG,AFNE01.JPG,AFNE01.JPG,AFNE01.JPG,AFNE01.JPG,AFNE01.JPG,,,,,,,,,,,,,5,3,53,0,,,,,,,,,,,AFSA02.jpg,AFNE03.jpg,AFSA11.jpg,AFNE04.jpg,AFNE04.jpg,FN,3,num_4,32,num_6,1.3501095965,,,2017_Dec_04_1239,60.0172094335,MAFE4ImagesEEG,001,102427,
AFNE01.JPG,AFNE01.JPG,AFNE01.JPG,AFNE01.JPG,AFNE01.JPG,AFNE01.JPG,,,,,,,,,,,,,5,4,54,5,,,,,,,,,,,AFSA14.jpg,AFNE14.jpg,AFSA04.jpg,AFNE01.jpg,AFSA04.jpg,FS,4,num_2,32,num_8,0.816768757766,,,2017_Dec_04_1239,60.0172094335,MAFE4ImagesEEG,001,102427,
AFNE01.JPG,AFNE01.JPG,AFNE01.JPG,AFNE01.JPG,AFNE01.JPG,AFNE01.JPG,,,,,,,,,,,,,5,5,55,6,,,,,,,,,,,AFNE01.jpg,AFNE18.jpg,AFSA05.jpg,AFSA20.jpg,AFSA05.jpg,FS,4,num_2,32,num_4,0.900156777352,,,2017_Dec_04_1239,60.0172094335,MAFE4ImagesEEG,001,102427,
AFNE01.JPG,AFNE01.JPG,AFNE01.JPG,AFNE01.JPG,AFNE01.JPG,AFNE01.JPG,,,,,,,,,,,,,5,6,56,8,,,,,,,,,,,AFNE15.jpg,AFSA16.jpg,AFNE17.jpg,AFSA10.jpg,AFNE17.jpg,FN,3,num_2,16,num_2,0.950092020212,,,2017_Dec_04_1239,60.0172094335,MAFE4ImagesEEG,001,102427,
AFNE01.JPG,AFNE01.JPG,AFNE01.JPG,AFNE01.JPG,AFNE01.JPG,AFNE01.JPG,,,,,,,,,,,,,5,7,57,2,,,,,,,,,,,AFSA11.jpg,AFNE19.jpg,AFSA17.jpg,AFNE06.jpg,AFSA11.jpg,FS,4,num_8,32,num_2,1.71666894387,,,2017_Dec_04_1239,60.0172094335,MAFE4ImagesEEG,001,102427,
AFNE01.JPG,AFNE01.JPG,AFNE01.JPG,AFNE01.JPG,AFNE01.JPG,AFNE01.JPG,,,,,,,,,,,,,5,8,58,9,,,,,,,,,,,AFSA19.jpg,AFNE16.jpg,AFNE05.jpg,AFSA12.jpg,AFSA19.jpg,FS,4,num_8,48,None,,,,2017_Dec_04_1239,60.0172094335,MAFE4ImagesEEG,001,102427,
AFNE01.JPG,AFNE01.JPG,AFNE01.JPG,AFNE01.JPG,AFNE01.JPG,AFNE01.JPG,,,,,,,,,,,,,5,9,59,4,,,,,,,,,,,AFNE03.jpg,AFSA07.jpg,AFSA02.jpg,AFNE17.jpg,AFNE03.jpg,FN,3,num_8,32,num_2,0.983432858717,,,2017_Dec_04_1239,60.0172094335,MAFE4ImagesEEG,001,102427,
,,,,,,,,,,,,,,,,,,,,,,,,,,,,,,,,,,,,,,,,,,,space,18.7486636401,2017_Dec_04_1239,60.0172094335,MAFE4ImagesEEG,001,102427,
AFNE01.JPG,AFNE01.JPG,AFNE01.JPG,AFNE01.JPG,AFNE01.JPG,AFNE01.JPG,,,,,,,,,,,,,,,,,0,0,0,3,,,,,,,AMNE20.jpg,AMNE02.jpg,AMSA15.jpg,AMSA16.jpg,AMNE20.jpg,MN,1,num_8,16,num_8,0.866772638867,,,2017_Dec_04_1239,60.0172094335,MAFE4ImagesEEG,001,102427,
AFNE01.JPG,AFNE01.JPG,AFNE01.JPG,AFNE01.JPG,AFNE01.JPG,AFNE01.JPG,,,,,,,,,,,,,,,,,0,1,1,9,,,,,,,AMNE01.jpg,AMSA13.jpg,AMSA12.jpg,AMNE10.jpg,AMSA13.jpg,MS,2,num_6,16,num_6,1.35010863421,,,2017_Dec_04_1239,60.0172094335,MAFE4ImagesEEG,001,102427,
AFNE01.JPG,AFNE01.JPG,AFNE01.JPG,AFNE01.JPG,AFNE01.JPG,AFNE01.JPG,,,,,,,,,,,,,,,,,0,2,2,4,,,,,,,AMNE15.jpg,AMSA09.jpg,AMSA04.jpg,AMNE10.jpg,AMNE10.jpg,MN,1,num_4,32,num_8,0.800111809745,,,2017_Dec_04_1239,60.0172094335,MAFE4ImagesEEG,001,102427,
AFNE01.JPG,AFNE01.JPG,AFNE01.JPG,AFNE01.JPG,AFNE01.JPG,AFNE01.JPG,,,,,,,,,,,,,,,,,0,3,3,1,,,,,,,AMSA11.jpg,AMNE02.jpg,AMSA16.jpg,AMNE12.jpg,AMNE12.jpg,MN,1,num_4,16,num_4,1.18371459586,,,2017_Dec_04_1239,60.0172094335,MAFE4ImagesEEG,001,102427,
AFNE01.JPG,AFNE01.JPG,AFNE01.JPG,AFNE01.JPG,AFNE01.JPG,AFNE01.JPG,,,,,,,,,,,,,,,,,0,4,4,2,,,,,,,AMNE18.jpg,AMSA09.jpg,AMSA06.jpg,AMNE13.jpg,AMNE18.jpg,MN,1,num_8,32,num_6,1.26673472743,,,2017_Dec_04_1239,60.0172094335,MAFE4ImagesEEG,001,102427,
AFNE01.JPG,AFNE01.JPG,AFNE01.JPG,AFNE01.JPG,AFNE01.JPG,AFNE01.JPG,,,,,,,,,,,,,,,,,0,5,5,8,,,,,,,AMNE15.jpg,AMSA11.jpg,AMNE08.jpg,AMSA09.jpg,AMSA09.jpg,MS,2,num_4,32,num_8,1.8666558899,,,2017_Dec_04_1239,60.0172094335,MAFE4ImagesEEG,001,102427,
AFNE01.JPG,AFNE01.JPG,AFNE01.JPG,AFNE01.JPG,AFNE01.JPG,AFNE01.JPG,,,,,,,,,,,,,,,,,0,6,6,7,,,,,,,AMNE13.jpg,AMSA19.jpg,AMSA05.jpg,AMNE02.jpg,AMNE13.jpg,MN,1,num_8,16,num_8,1.05012800707,,,2017_Dec_04_1239,60.0172094335,MAFE4ImagesEEG,001,102427,
AFNE01.JPG,AFNE01.JPG,AFNE01.JPG,AFNE01.JPG,AFNE01.JPG,AFNE01.JPG,,,,,,,,,,,,,,,,,0,7,7,5,,,,,,,AMNE19.jpg,AMSA02.jpg,AMSA03.jpg,AMNE13.jpg,AMSA03.jpg,MS,2,num_2,16,num_2,3.48320641695,,,2017_Dec_04_1239,60.0172094335,MAFE4ImagesEEG,001,102427,
AFNE01.JPG,AFNE01.JPG,AFNE01.JPG,AFNE01.JPG,AFNE01.JPG,AFNE01.JPG,,,,,,,,,,,,,,,,,0,8,8,6,,,,,,,AMNE04.jpg,AMSA11.jpg,AMNE20.jpg,AMSA18.jpg,AMSA18.jpg,MS,2,num_4,16,num_4,1.28345165402,,,2017_Dec_04_1239,60.0172094335,MAFE4ImagesEEG,001,102427,
AFNE01.JPG,AFNE01.JPG,AFNE01.JPG,AFNE01.JPG,AFNE01.JPG,AFNE01.JPG,,,,,,,,,,,,,,,,,0,9,9,0,,,,,,,AMSA08.jpg,AMSA11.jpg,AMNE20.jpg,AMNE03.jpg,AMSA08.jpg,MS,2,num_8,16,num_8,1.11662365543,,,2017_Dec_04_1239,60.0172094335,MAFE4ImagesEEG,001,102427,
AFNE01.JPG,AFNE01.JPG,AFNE01.JPG,AFNE01.JPG,AFNE01.JPG,AFNE01.JPG,,,,,,,,,,,,,,,,,1,0,10,1,,,,,,,AMSA12.jpg,AMSA13.jpg,AMNE10.jpg,AMNE20.jpg,AMSA13.jpg,MS,2,num_6,32,num_8,1.50029572146,,,2017_Dec_04_1239,60.0172094335,MAFE4ImagesEEG,001,102427,
AFNE01.JPG,AFNE01.JPG,AFNE01.JPG,AFNE01.JPG,AFNE01.JPG,AFNE01.JPG,,,,,,,,,,,,,,,,,1,1,11,3,,,,,,,AMNE10.jpg,AMSA04.jpg,AMNE12.jpg,AMSA20.jpg,AMSA04.jpg,MS,2,num_6,32,num_2,1.08341207472,,,2017_Dec_04_1239,60.0172094335,MAFE4ImagesEEG,001,102427,
AFNE01.JPG,AFNE01.JPG,AFNE01.JPG,AFNE01.JPG,AFNE01.JPG,AFNE01.JPG,,,,,,,,,,,,,,,,,1,2,12,7,,,,,,,AMSA19.jpg,AMNE20.jpg,AMNE01.jpg,AMSA01.jpg,AMNE20.jpg,MN,1,num_6,16,num_6,0.600152094383,,,2017_Dec_04_1239,60.0172094335,MAFE4ImagesEEG,001,102427,
AFNE01.JPG,AFNE01.JPG,AFNE01.JPG,AFNE01.JPG,AFNE01.JPG,AFNE01.JPG,,,,,,,,,,,,,,,,,1,3,13,4,,,,,,,AMSA06.jpg,AMSA01.jpg,AMNE04.jpg,AMNE13.jpg,AMSA06.jpg,MS,2,num_8,32,num_6,0.383502074052,,,2017_Dec_04_1239,60.0172094335,MAFE4ImagesEEG,001,102427,
AFNE01.JPG,AFNE01.JPG,AFNE01.JPG,AFNE01.JPG,AFNE01.JPG,AFNE01.JPG,,,,,,,,,,,,,,,,,1,4,14,0,,,,,,,AMNE12.jpg,AMNE11.jpg,AMSA09.jpg,AMSA07.jpg,AMSA07.jpg,MS,2,num_4,16,num_4,1.45006411569,,,2017_Dec_04_1239,60.0172094335,MAFE4ImagesEEG,001,102427,
AFNE01.JPG,AFNE01.JPG,AFNE01.JPG,AFNE01.JPG,AFNE01.JPG,AFNE01.JPG,,,,,,,,,,,,,,,,,1,5,15,5,,,,,,,AMNE07.jpg,AMNE03.jpg,AMSA10.jpg,AMSA19.jpg,AMNE03.jpg,MN,1,num_6,32,num_4,1.11672757496,,,2017_Dec_04_1239,60.0172094335,MAFE4ImagesEEG,001,102427,
AFNE01.JPG,AFNE01.JPG,AFNE01.JPG,AFNE01.JPG,AFNE01.JPG,AFNE01.JPG,,,,,,,,,,,,,,,,,1,6,16,8,,,,,,,AMSA19.jpg,AMNE17.jpg,AMNE03.jpg,AMSA03.jpg,AMNE03.jpg,MN,1,num_2,32,num_6,1.31674951338,,,2017_Dec_04_1239,60.0172094335,MAFE4ImagesEEG,001,102427,
AFNE01.JPG,AFNE01.JPG,AFNE01.JPG,AFNE01.JPG,AFNE01.JPG,AFNE01.JPG,,,,,,,,,,,,,,,,,1,7,17,9,,,,,,,AMSA18.jpg,AMSA05.jpg,AMNE16.jpg,AMNE15.jpg,AMSA05.jpg,MS,2,num_6,32,num_4,4.94988161512,,,2017_Dec_04_1239,60.0172094335,MAFE4ImagesEEG,001,102427,
AFNE01.JPG,AFNE01.JPG,AFNE01.JPG,AFNE01.JPG,AFNE01.JPG,AFNE01.JPG,,,,,,,,,,,,,,,,,1,8,18,2,,,,,,,AMNE17.jpg,AMSA16.jpg,AMSA10.jpg,AMNE01.jpg,AMNE17.jpg,MN,1,num_8,16,num_8,0.783481162041,,,2017_Dec_04_1239,60.0172094335,MAFE4ImagesEEG,001,102427,
AFNE01.JPG,AFNE01.JPG,AFNE01.JPG,AFNE01.JPG,AFNE01.JPG,AFNE01.JPG,,,,,,,,,,,,,,,,,1,9,19,6,,,,,,,AMNE03.jpg,AMSA02.jpg,AMSA17.jpg,AMNE19.jpg,AMNE03.jpg,MN,1,num_8,32,num_2,1.96670566848,,,2017_Dec_04_1239,60.0172094335,MAFE4ImagesEEG,001,102427,
AFNE01.JPG,AFNE01.JPG,AFNE01.JPG,AFNE01.JPG,AFNE01.JPG,AFNE01.JPG,,,,,,,,,,,,,,,,,2,0,20,4,,,,,,,AMNE12.jpg,AMNE18.jpg,AMSA16.jpg,AMSA03.jpg,AMNE18.jpg,MN,1,num_6,16,num_6,1.55008695228,,,2017_Dec_04_1239,60.0172094335,MAFE4ImagesEEG,001,102427,
AFNE01.JPG,AFNE01.JPG,AFNE01.JPG,AFNE01.JPG,AFNE01.JPG,AFNE01.JPG,,,,,,,,,,,,,,,,,2,1,21,2,,,,,,,AMSA10.jpg,AMNE18.jpg,AMSA16.jpg,AMNE19.jpg,AMNE19.jpg,MN,1,num_4,32,num_2,3.08326710062,,,2017_Dec_04_1239,60.0172094335,MAFE4ImagesEEG,001,102427,
AFNE01.JPG,AFNE01.JPG,AFNE01.JPG,AFNE01.JPG,AFNE01.JPG,AFNE01.JPG,,,,,,,,,,,,,,,,,2,2,22,1,,,,,,,AMNE19.jpg,AMSA07.jpg,AMSA04.jpg,AMNE07.jpg,AMNE07.jpg,MN,1,num_4,32,num_6,1.56673427834,,,2017_Dec_04_1239,60.0172094335,MAFE4ImagesEEG,001,102427,
AFNE01.JPG,AFNE01.JPG,AFNE01.JPG,AFNE01.JPG,AFNE01.JPG,AFNE01.JPG,,,,,,,,,,,,,,,,,2,3,23,0,,,,,,,AMSA19.jpg,AMSA05.jpg,AMNE15.jpg,AMNE13.jpg,AMSA19.jpg,MS,2,num_8,32,num_6,1.00013022008,,,2017_Dec_04_1239,60.0172094335,MAFE4ImagesEEG,001,102427,
AFNE01.JPG,AFNE01.JPG,AFNE01.JPG,AFNE01.JPG,AFNE01.JPG,AFNE01.JPG,,,,,,,,,,,,,,,,,2,4,24,5,,,,,,,AMSA12.jpg,AMNE07.jpg,AMNE04.jpg,AMSA13.jpg,AMSA12.jpg,MS,2,num_8,32,num_2,3.28324157,,,2017_Dec_04_1239,60.0172094335,MAFE4ImagesEEG,001,102427,
AFNE01.JPG,AFNE01.JPG,AFNE01.JPG,AFNE01.JPG,AFNE01.JPG,AFNE01.JPG,,,,,,,,,,,,,,,,,2,5,25,9,,,,,,,AMNE18.jpg,AMSA05.jpg,AMNE12.jpg,AMSA02.jpg,AMSA05.jpg,MS,2,num_6,32,num_8,1.13346855692,,,2017_Dec_04_1239,60.0172094335,MAFE4ImagesEEG,001,102427,
AFNE01.JPG,AFNE01.JPG,AFNE01.JPG,AFNE01.JPG,AFNE01.JPG,AFNE01.JPG,,,,,,,,,,,,,,,,,2,6,26,8,,,,,,,AMNE11.jpg,AMNE14.jpg,AMSA20.jpg,AMSA01.jpg,AMSA01.jpg,MS,2,num_4,32,num_2,1.15007931879,,,2017_Dec_04_1239,60.0172094335,MAFE4ImagesEEG,001,102427,
AFNE01.JPG,AFNE01.JPG,AFNE01.JPG,AFNE01.JPG,AFNE01.JPG,AFNE01.JPG,,,,,,,,,,,,,,,,,2,7,27,3,,,,,,,AMSA18.jpg,AMSA08.jpg,AMNE07.jpg,AMNE02.jpg,AMSA08.jpg,MS,2,num_6,32,num_2,1.41672488069,,,2017_Dec_04_1239,60.0172094335,MAFE4ImagesEEG,001,102427,
AFNE01.JPG,AFNE01.JPG,AFNE01.JPG,AFNE01.JPG,AFNE01.JPG,AFNE01.JPG,,,,,,,,,,,,,,,,,2,8,28,6,,,,,,,AMSA20.jpg,AMSA08.jpg,AMNE06.jpg,AMNE11.jpg,AMSA08.jpg,MS,2,num_6,32,num_8,1.16672407906,,,2017_Dec_04_1239,60.0172094335,MAFE4ImagesEEG,001,102427,
AFNE01.JPG,AFNE01.JPG,AFNE01.JPG,AFNE01.JPG,AFNE01.JPG,AFNE01.JPG,,,,,,,,,,,,,,,,,2,9,29,7,,,,,,,AMSA10.jpg,AMNE06.jpg,AMNE10.jpg,AMSA03.jpg,AMSA10.jpg,MS,2,num_8,32,num_4,1.00008724094,,,2017_Dec_04_1239,60.0172094335,MAFE4ImagesEEG,001,102427,
AFNE01.JPG,AFNE01.JPG,AFNE01.JPG,AFNE01.JPG,AFNE01.JPG,AFNE01.JPG,,,,,,,,,,,,,,,,,3,0,30,0,,,,,,,AMNE02.jpg,AMSA16.jpg,AMNE06.jpg,AMSA06.jpg,AMSA16.jpg,MS,2,num_6,32,num_2,1.09978773468,,,2017_Dec_04_1239,60.0172094335,MAFE4ImagesEEG,001,102427,
AFNE01.JPG,AFNE01.JPG,AFNE01.JPG,AFNE01.JPG,AFNE01.JPG,AFNE01.JPG,,,,,,,,,,,,,,,,,3,1,31,9,,,,,,,AMNE01.jpg,AMSA05.jpg,AMNE19.jpg,AMSA04.jpg,AMSA04.jpg,MS,2,num_4,16,num_4,0.73343654722,,,2017_Dec_04_1239,60.0172094335,MAFE4ImagesEEG,001,102427,
AFNE01.JPG,AFNE01.JPG,AFNE01.JPG,AFNE01.JPG,AFNE01.JPG,AFNE01.JPG,,,,,,,,,,,,,,,,,3,2,32,6,,,,,,,AMNE16.jpg,AMSA02.jpg,AMNE03.jpg,AMSA20.jpg,AMNE03.jpg,MN,1,num_2,16,num_2,1.2500816281,,,2017_Dec_04_1239,60.0172094335,MAFE4ImagesEEG,001,102427,
AFNE01.JPG,AFNE01.JPG,AFNE01.JPG,AFNE01.JPG,AFNE01.JPG,AFNE01.JPG,,,,,,,,,,,,,,,,,3,3,33,5,,,,,,,AMNE12.jpg,AMSA19.jpg,AMNE06.jpg,AMSA12.jpg,AMSA12.jpg,MS,2,num_4,32,num_6,2.55022936058,,,2017_Dec_04_1239,60.0172094335,MAFE4ImagesEEG,001,102427,
AFNE01.JPG,AFNE01.JPG,AFNE01.JPG,AFNE01.JPG,AFNE01.JPG,AFNE01.JPG,,,,,,,,,,,,,,,,,3,4,34,8,,,,,,,AMNE05.jpg,AMSA12.jpg,AMNE18.jpg,AMSA20.jpg,AMSA12.jpg,MS,2,num_6,16,num_6,1.3000928862,,,2017_Dec_04_1239,60.0172094335,MAFE4ImagesEEG,001,102427,
AFNE01.JPG,AFNE01.JPG,AFNE01.JPG,AFNE01.JPG,AFNE01.JPG,AFNE01.JPG,,,,,,,,,,,,,,,,,3,5,35,3,,,,,,,AMSA02.jpg,AMNE04.jpg,AMSA04.jpg,AMNE14.jpg,AMSA04.jpg,MS,2,num_2,32,num_4,1.31672834465,,,2017_Dec_04_1239,60.0172094335,MAFE4ImagesEEG,001,102427,
AFNE01.JPG,AFNE01.JPG,AFNE01.JPG,AFNE01.JPG,AFNE01.JPG,AFNE01.JPG,,,,,,,,,,,,,,,,,3,6,36,7,,,,,,,AMSA18.jpg,AMSA09.jpg,AMNE13.jpg,AMNE05.jpg,AMNE05.jpg,MN,1,num_4,16,num_4,1.93339337572,,,2017_Dec_04_1239,60.0172094335,MAFE4ImagesEEG,001,102427,
AFNE01.JPG,AFNE01.JPG,AFNE01.JPG,AFNE01.JPG,AFNE01.JPG,AFNE01.JPG,,,,,,,,,,,,,,,,,3,7,37,2,,,,,,,AMNE11.jpg,AMNE18.jpg,AMSA02.jpg,AMSA05.jpg,AMNE18.jpg,MN,1,num_6,32,num_4,1.11677344074,,,2017_Dec_04_1239,60.0172094335,MAFE4ImagesEEG,001,102427,
AFNE01.JPG,AFNE01.JPG,AFNE01.JPG,AFNE01.JPG,AFNE01.JPG,AFNE01.JPG,,,,,,,,,,,,,,,,,3,8,38,1,,,,,,,AMNE15.jpg,AMSA05.jpg,AMNE16.jpg,AMSA02.jpg,AMNE16.jpg,MN,1,num_2,16,num_2,1.0165979322,,,2017_Dec_04_1239,60.0172094335,MAFE4ImagesEEG,001,102427,
AFNE01.JPG,AFNE01.JPG,AFNE01.JPG,AFNE01.JPG,AFNE01.JPG,AFNE01.JPG,,,,,,,,,,,,,,,,,3,9,39,4,,,,,,,AMSA14.jpg,AMNE15.jpg,AMSA02.jpg,AMNE03.jpg,AMNE15.jpg,MN,1,num_6,32,num_2,1.76671772823,,,2017_Dec_04_1239,60.0172094335,MAFE4ImagesEEG,001,102427,
AFNE01.JPG,AFNE01.JPG,AFNE01.JPG,AFNE01.JPG,AFNE01.JPG,AFNE01.JPG,,,,,,,,,,,,,,,,,4,0,40,3,,,,,,,AMNE06.jpg,AMSA07.jpg,AMNE04.jpg,AMSA09.jpg,AMNE06.jpg,MN,1,num_8,32,num_4,0.783458710415,,,2017_Dec_04_1239,60.0172094335,MAFE4ImagesEEG,001,102427,
AFNE01.JPG,AFNE01.JPG,AFNE01.JPG,AFNE01.JPG,AFNE01.JPG,AFNE01.JPG,,,,,,,,,,,,,,,,,4,1,41,2,,,,,,,AMNE04.jpg,AMSA13.jpg,AMNE14.jpg,AMSA06.jpg,AMSA13.jpg,MS,2,num_6,32,num_2,1.10008249432,,,2017_Dec_04_1239,60.0172094335,MAFE4ImagesEEG,001,102427,
AFNE01.JPG,AFNE01.JPG,AFNE01.JPG,AFNE01.JPG,AFNE01.JPG,AFNE01.JPG,,,,,,,,,,,,,,,,,4,2,42,9,,,,,,,AMSA10.jpg,AMNE06.jpg,AMSA03.jpg,AMNE15.jpg,AMNE15.jpg,MN,1,num_4,32,num_8,1.00013438961,,,2017_Dec_04_1239,60.0172094335,MAFE4ImagesEEG,001,102427,
AFNE01.JPG,AFNE01.JPG,AFNE01.JPG,AFNE01.JPG,AFNE01.JPG,AFNE01.JPG,,,,,,,,,,,,,,,,,4,3,43,6,,,,,,,AMNE09.jpg,AMSA01.jpg,AMNE07.jpg,AMSA06.jpg,AMSA01.jpg,MS,2,num_6,16,num_6,0.516801280901,,,2017_Dec_04_1239,60.0172094335,MAFE4ImagesEEG,001,102427,
AFNE01.JPG,AFNE01.JPG,AFNE01.JPG,AFNE01.JPG,AFNE01.JPG,AFNE01.JPG,,,,,,,,,,,,,,,,,4,4,44,8,,,,,,,AMSA12.jpg,AMNE20.jpg,AMSA01.jpg,AMNE14.jpg,AMSA01.jpg,MS,2,num_2,16,num_2,0.983436386799,,,2017_Dec_04_1239,60.0172094335,MAFE4ImagesEEG,001,102427,
AFNE01.JPG,AFNE01.JPG,AFNE01.JPG,AFNE01.JPG,AFNE01.JPG,AFNE01.JPG,,,,,,,,,,,,,,,,,4,5,45,4,,,,,,,AMNE04.jpg,AMSA20.jpg,AMSA16.jpg,AMNE01.jpg,AMNE01.jpg,MN,1,num_4,32,num_8,0.966752496548,,,2017_Dec_04_1239,60.0172094335,MAFE4ImagesEEG,001,102427,
AFNE01.JPG,AFNE01.JPG,AFNE01.JPG,AFNE01.JPG,AFNE01.JPG,AFNE01.JPG,,,,,,,,,,,,,,,,,4,6,46,7,,,,,,,AMSA10.jpg,AMSA01.jpg,AMNE04.jpg,AMNE05.jpg,AMNE04.jpg,MN,1,num_2,16,num_2,1.11678370438,,,2017_Dec_04_1239,60.0172094335,MAFE4ImagesEEG,001,102427,
AFNE01.JPG,AFNE01.JPG,AFNE01.JPG,AFNE01.JPG,AFNE01.JPG,AFNE01.JPG,,,,,,,,,,,,,,,,,4,7,47,0,,,,,,,AMNE10.jpg,AMSA08.jpg,AMSA07.jpg,AMNE16.jpg,AMNE16.jpg,MN,1,num_4,32,num_2,0.88343600207,,,2017_Dec_04_1239,60.0172094335,MAFE4ImagesEEG,001,102427,
AFNE01.JPG,AFNE01.JPG,AFNE01.JPG,AFNE01.JPG,AFNE01.JPG,AFNE01.JPG,,,,,,,,,,,,,,,,,4,8,48,5,,,,,,,AMNE12.jpg,AMSA08.jpg,AMSA20.jpg,AMNE03.jpg,AMNE03.jpg,MN,1,num_4,32,num_8,1.20010501007,,,2017_Dec_04_1239,60.0172094335,MAFE4ImagesEEG,001,102427,
AFNE01.JPG,AFNE01.JPG,AFNE01.JPG,AFNE01.JPG,AFNE01.JPG,AFNE01.JPG,,,,,,,,,,,,,,,,,4,9,49,1,,,,,,,AMSA02.jpg,AMSA20.jpg,AMNE15.jpg,AMNE13.jpg,AMNE13.jpg,MN,1,num_4,32,num_8,1.00011129654,,,2017_Dec_04_1239,60.0172094335,MAFE4ImagesEEG,001,102427,
AFNE01.JPG,AFNE01.JPG,AFNE01.JPG,AFNE01.JPG,AFNE01.JPG,AFNE01.JPG,,,,,,,,,,,,,,,,,5,0,50,4,,,,,,,AMNE01.jpg,AMSA07.jpg,AMSA01.jpg,AMNE06.jpg,AMNE06.jpg,MN,1,num_4,32,num_6,1.23337817262,,,2017_Dec_04_1239,60.0172094335,MAFE4ImagesEEG,001,102427,
AFNE01.JPG,AFNE01.JPG,AFNE01.JPG,AFNE01.JPG,AFNE01.JPG,AFNE01.JPG,,,,,,,,,,,,,,,,,5,1,51,3,,,,,,,AMNE13.jpg,AMNE12.jpg,AMSA19.jpg,AMSA08.jpg,AMSA08.jpg,MS,2,num_4,32,num_8,1.23345162207,,,2017_Dec_04_1239,60.0172094335,MAFE4ImagesEEG,001,102427,
AFNE01.JPG,AFNE01.JPG,AFNE01.JPG,AFNE01.JPG,AFNE01.JPG,AFNE01.JPG,,,,,,,,,,,,,,,,,5,2,52,0,,,,,,,AMNE13.jpg,AMSA20.jpg,AMNE06.jpg,AMSA01.jpg,AMNE13.jpg,MN,1,num_8,32,num_6,1.0001209185,,,2017_Dec_04_1239,60.0172094335,MAFE4ImagesEEG,001,102427,
AFNE01.JPG,AFNE01.JPG,AFNE01.JPG,AFNE01.JPG,AFNE01.JPG,AFNE01.JPG,,,,,,,,,,,,,,,,,5,3,53,8,,,,,,,AMSA13.jpg,AMNE18.jpg,AMNE07.jpg,AMSA05.jpg,AMNE07.jpg,MN,1,num_2,16,num_2,1.90003682091,,,2017_Dec_04_1239,60.0172094335,MAFE4ImagesEEG,001,102427,
AFNE01.JPG,AFNE01.JPG,AFNE01.JPG,AFNE01.JPG,AFNE01.JPG,AFNE01.JPG,,,,,,,,,,,,,,,,,5,4,54,5,,,,,,,AMSA18.jpg,AMNE01.jpg,AMNE16.jpg,AMSA07.jpg,AMNE01.jpg,MN,1,num_6,32,num_2,1.20006780443,,,2017_Dec_04_1239,60.0172094335,MAFE4ImagesEEG,001,102427,
AFNE01.JPG,AFNE01.JPG,AFNE01.JPG,AFNE01.JPG,AFNE01.JPG,AFNE01.JPG,,,,,,,,,,,,,,,,,5,5,55,7,,,,,,,AMNE12.jpg,AMSA03.jpg,AMNE07.jpg,AMSA01.jpg,AMSA03.jpg,MS,2,num_6,32,num_4,2.01659889426,,,2017_Dec_04_1239,60.0172094335,MAFE4ImagesEEG,001,102427,
AFNE01.JPG,AFNE01.JPG,AFNE01.JPG,AFNE01.JPG,AFNE01.JPG,AFNE01.JPG,,,,,,,,,,,,,,,,,5,6,56,9,,,,,,,AMNE16.jpg,AMSA12.jpg,AMNE19.jpg,AMSA02.jpg,AMSA12.jpg,MS,2,num_6,32,num_2,0.833525456022,,,2017_Dec_04_1239,60.0172094335,MAFE4ImagesEEG,001,102427,
AFNE01.JPG,AFNE01.JPG,AFNE01.JPG,AFNE01.JPG,AFNE01.JPG,AFNE01.JPG,,,,,,,,,,,,,,,,,5,7,57,2,,,,,,,AMSA14.jpg,AMNE19.jpg,AMSA10.jpg,AMNE07.jpg,AMSA14.jpg,MS,2,num_8,32,num_6,1.65014154231,,,2017_Dec_04_1239,60.0172094335,MAFE4ImagesEEG,001,102427,
AFNE01.JPG,AFNE01.JPG,AFNE01.JPG,AFNE01.JPG,AFNE01.JPG,AFNE01.JPG,,,,,,,,,,,,,,,,,5,8,58,6,,,,,,,AMNE06.jpg,AMNE13.jpg,AMSA15.jpg,AMSA20.jpg,AMNE13.jpg,MN,1,num_6,32,num_8,1.13345733099,,,2017_Dec_04_1239,60.0172094335,MAFE4ImagesEEG,001,102427,
AFNE01.JPG,AFNE01.JPG,AFNE01.JPG,AFNE01.JPG,AFNE01.JPG,AFNE01.JPG,,,,,,,,,,,,,,,,,5,9,59,1,,,,,,,AMNE12.jpg,AMNE10.jpg,AMSA05.jpg,AMSA16.jpg,AMSA05.jpg,MS,2,num_2,16,num_2,1.20010468923,,,2017_Dec_04_1239,60.0172094335,MAFE4ImagesEEG,001,102427,
,,,,,,,,,,,,,,,,,,,,,,,,,,,,,,,,,,,,,,,,,,,space,37.680495016,2017_Dec_04_1239,60.0172094335,MAFE4ImagesEEG,001,102427,
AFNE01.JPG,AFNE01.JPG,AFNE01.JPG,AFNE01.JPG,AFNE01.JPG,AFNE01.JPG,,,,,,,,,,,,,,,,,,,,,0,0,0,9,,,AFNE14.jpg,AFSA15.jpg,AFNE17.jpg,AFSA10.jpg,AFNE17.jpg,FN,3,num_2,32,num_4,0.950114792679,,,2017_Dec_04_1239,60.0172094335,MAFE4ImagesEEG,001,102427,
AFNE01.JPG,AFNE01.JPG,AFNE01.JPG,AFNE01.JPG,AFNE01.JPG,AFNE01.JPG,,,,,,,,,,,,,,,,,,,,,0,1,1,1,,,AFNE17.jpg,AFNE14.jpg,AFSA12.jpg,AFSA03.jpg,AFSA03.jpg,FS,4,num_4,32,num_2,0.783517405624,,,2017_Dec_04_1239,60.0172094335,MAFE4ImagesEEG,001,102427,
AFNE01.JPG,AFNE01.JPG,AFNE01.JPG,AFNE01.JPG,AFNE01.JPG,AFNE01.JPG,,,,,,,,,,,,,,,,,,,,,0,2,2,6,,,AFNE20.jpg,AFSA10.jpg,AFSA03.jpg,AFNE04.jpg,AFSA10.jpg,FS,4,num_6,16,num_6,1.01673488785,,,2017_Dec_04_1239,60.0172094335,MAFE4ImagesEEG,001,102427,
AFNE01.JPG,AFNE01.JPG,AFNE01.JPG,AFNE01.JPG,AFNE01.JPG,AFNE01.JPG,,,,,,,,,,,,,,,,,,,,,0,3,3,3,,,AFNE01.jpg,AFNE07.jpg,AFSA04.jpg,AFSA05.jpg,AFSA04.jpg,FS,4,num_2,32,num_4,1.10011007776,,,2017_Dec_04_1239,60.0172094335,MAFE4ImagesEEG,001,102427,
AFNE01.JPG,AFNE01.JPG,AFNE01.JPG,AFNE01.JPG,AFNE01.JPG,AFNE01.JPG,,,,,,,,,,,,,,,,,,,,,0,4,4,7,,,AFNE01.jpg,AFSA17.jpg,AFNE16.jpg,AFSA13.jpg,AFSA13.jpg,FS,4,num_4,16,num_4,1.23335764534,,,2017_Dec_04_1239,60.0172094335,MAFE4ImagesEEG,001,102427,
AFNE01.JPG,AFNE01.JPG,AFNE01.JPG,AFNE01.JPG,AFNE01.JPG,AFNE01.JPG,,,,,,,,,,,,,,,,,,,,,0,5,5,4,,,AFNE17.jpg,AFNE13.jpg,AFSA12.jpg,AFSA14.jpg,AFSA14.jpg,FS,4,num_4,16,num_4,1.03328374703,,,2017_Dec_04_1239,60.0172094335,MAFE4ImagesEEG,001,102427,
AFNE01.JPG,AFNE01.JPG,AFNE01.JPG,AFNE01.JPG,AFNE01.JPG,AFNE01.JPG,,,,,,,,,,,,,,,,,,,,,0,6,6,5,,,AFNE10.jpg,AFNE05.jpg,AFSA20.jpg,AFSA04.jpg,AFSA20.jpg,FS,4,num_2,32,num_6,1.13343648287,,,2017_Dec_04_1239,60.0172094335,MAFE4ImagesEEG,001,102427,
AFNE01.JPG,AFNE01.JPG,AFNE01.JPG,AFNE01.JPG,AFNE01.JPG,AFNE01.JPG,,,,,,,,,,,,,,,,,,,,,0,7,7,8,,,AFNE16.jpg,AFSA16.jpg,AFNE04.jpg,AFSA12.jpg,AFNE16.jpg,FN,3,num_8,32,num_4,1.01669639931,,,2017_Dec_04_1239,60.0172094335,MAFE4ImagesEEG,001,102427,
AFNE01.JPG,AFNE01.JPG,AFNE01.JPG,AFNE01.JPG,AFNE01.JPG,AFNE01.JPG,,,,,,,,,,,,,,,,,,,,,0,8,8,2,,,AFNE14.jpg,AFSA07.jpg,AFNE18.jpg,AFSA08.jpg,AFNE14.jpg,FN,3,num_8,32,num_2,0.633510252926,,,2017_Dec_04_1239,60.0172094335,MAFE4ImagesEEG,001,102427,
AFNE01.JPG,AFNE01.JPG,AFNE01.JPG,AFNE01.JPG,AFNE01.JPG,AFNE01.JPG,,,,,,,,,,,,,,,,,,,,,0,9,9,0,,,AFSA15.jpg,AFSA01.jpg,AFNE07.jpg,AFNE10.jpg,AFSA15.jpg,FS,4,num_8,32,num_4,1.55005551991,,,2017_Dec_04_1239,60.0172094335,MAFE4ImagesEEG,001,102427,
AFNE01.JPG,AFNE01.JPG,AFNE01.JPG,AFNE01.JPG,AFNE01.JPG,AFNE01.JPG,,,,,,,,,,,,,,,,,,,,,1,0,10,0,,,AFNE13.jpg,AFNE12.jpg,AFSA11.jpg,AFSA13.jpg,AFSA11.jpg,FS,4,num_2,16,num_2,1.23346092342,,,2017_Dec_04_1239,60.0172094335,MAFE4ImagesEEG,001,102427,
AFNE01.JPG,AFNE01.JPG,AFNE01.JPG,AFNE01.JPG,AFNE01.JPG,AFNE01.JPG,,,,,,,,,,,,,,,,,,,,,1,1,11,9,,,AFSA15.jpg,AFNE16.jpg,AFSA13.jpg,AFNE20.jpg,AFNE20.jpg,FN,3,num_4,16,num_4,0.833457780303,,,2017_Dec_04_1239,60.0172094335,MAFE4ImagesEEG,001,102427,
AFNE01.JPG,AFNE01.JPG,AFNE01.JPG,AFNE01.JPG,AFNE01.JPG,AFNE01.JPG,,,,,,,,,,,,,,,,,,,,,1,2,12,2,,,AFSA05.jpg,AFNE16.jpg,AFSA19.jpg,AFNE06.jpg,AFNE06.jpg,FN,3,num_4,16,num_4,1.2167324503,,,2017_Dec_04_1239,60.0172094335,MAFE4ImagesEEG,001,102427,
AFNE01.JPG,AFNE01.JPG,AFNE01.JPG,AFNE01.JPG,AFNE01.JPG,AFNE01.JPG,,,,,,,,,,,,,,,,,,,,,1,3,13,8,,,AFNE04.jpg,AFNE07.jpg,AFSA14.jpg,AFSA03.jpg,AFSA14.jpg,FS,4,num_2,32,num_4,1.00012444681,,,2017_Dec_04_1239,60.0172094335,MAFE4ImagesEEG,001,102427,
AFNE01.JPG,AFNE01.JPG,AFNE01.JPG,AFNE01.JPG,AFNE01.JPG,AFNE01.JPG,,,,,,,,,,,,,,,,,,,,,1,4,14,4,,,AFNE04.jpg,AFSA08.jpg,AFSA03.jpg,AFNE20.jpg,AFSA08.jpg,FS,4,num_6,16,num_6,2.29996555252,,,2017_Dec_04_1239,60.0172094335,MAFE4ImagesEEG,001,102427,
AFNE01.JPG,AFNE01.JPG,AFNE01.JPG,AFNE01.JPG,AFNE01.JPG,AFNE01.JPG,,,,,,,,,,,,,,,,,,,,,1,5,15,6,,,AFNE15.jpg,AFNE20.jpg,AFSA11.jpg,AFSA17.jpg,AFSA17.jpg,FS,4,num_4,16,num_4,0.866455748444,,,2017_Dec_04_1239,60.0172094335,MAFE4ImagesEEG,001,102427,
AFNE01.JPG,AFNE01.JPG,AFNE01.JPG,AFNE01.JPG,AFNE01.JPG,AFNE01.JPG,,,,,,,,,,,,,,,,,,,,,1,6,16,5,,,AFNE05.jpg,AFSA06.jpg,AFNE16.jpg,AFSA05.jpg,AFNE16.jpg,FN,3,num_2,16,num_2,1.15010177065,,,2017_Dec_04_1239,60.0172094335,MAFE4ImagesEEG,001,102427,
AFNE01.JPG,AFNE01.JPG,AFNE01.JPG,AFNE01.JPG,AFNE01.JPG,AFNE01.JPG,,,,,,,,,,,,,,,,,,,,,1,7,17,3,,,AFNE10.jpg,AFSA18.jpg,AFSA12.jpg,AFNE08.jpg,AFSA12.jpg,FS,4,num_2,16,num_2,0.583454412175,,,2017_Dec_04_1239,60.0172094335,MAFE4ImagesEEG,001,102427,
AFNE01.JPG,AFNE01.JPG,AFNE01.JPG,AFNE01.JPG,AFNE01.JPG,AFNE01.JPG,,,,,,,,,,,,,,,,,,,,,1,8,18,7,,,AFSA14.jpg,AFSA11.jpg,AFNE07.jpg,AFNE15.jpg,AFSA14.jpg,FS,4,num_8,16,num_8,0.916764010908,,,2017_Dec_04_1239,60.0172094335,MAFE4ImagesEEG,001,102427,
AFNE01.JPG,AFNE01.JPG,AFNE01.JPG,AFNE01.JPG,AFNE01.JPG,AFNE01.JPG,,,,,,,,,,,,,,,,,,,,,1,9,19,1,,,AFNE06.jpg,AFNE11.jpg,AFSA18.jpg,AFSA06.jpg,AFSA06.jpg,FS,4,num_4,32,num_2,2.63330433844,,,2017_Dec_04_1239,60.0172094335,MAFE4ImagesEEG,001,102427,
AFNE01.JPG,AFNE01.JPG,AFNE01.JPG,AFNE01.JPG,AFNE01.JPG,AFNE01.JPG,,,,,,,,,,,,,,,,,,,,,2,0,20,6,,,AFSA15.jpg,AFSA05.jpg,AFNE17.jpg,AFNE12.jpg,AFNE12.jpg,FN,3,num_4,16,num_4,1.01681186515,,,2017_Dec_04_1239,60.0172094335,MAFE4ImagesEEG,001,102427,
AFNE01.JPG,AFNE01.JPG,AFNE01.JPG,AFNE01.JPG,AFNE01.JPG,AFNE01.JPG,,,,,,,,,,,,,,,,,,,,,2,1,21,2,,,AFSA10.jpg,AFSA02.jpg,AFNE18.jpg,AFNE09.jpg,AFSA02.jpg,FS,4,num_6,32,num_8,1.26675782073,,,2017_Dec_04_1239,60.0172094335,MAFE4ImagesEEG,001,102427,
AFNE01.JPG,AFNE01.JPG,AFNE01.JPG,AFNE01.JPG,AFNE01.JPG,AFNE01.JPG,,,,,,,,,,,,,,,,,,,,,2,2,22,0,,,AFSA19.jpg,AFSA14.jpg,AFNE01.jpg,AFNE18.jpg,AFNE01.jpg,FN,3,num_2,32,num_6,0.73348818603,,,2017_Dec_04_1239,60.0172094335,MAFE4ImagesEEG,001,102427,
AFNE01.JPG,AFNE01.JPG,AFNE01.JPG,AFNE01.JPG,AFNE01.JPG,AFNE01.JPG,,,,,,,,,,,,,,,,,,,,,2,3,23,7,,,AFNE17.jpg,AFSA16.jpg,AFNE05.jpg,AFSA06.jpg,AFNE05.jpg,FN,3,num_2,16,num_2,1.06672433554,,,2017_Dec_04_1239,60.0172094335,MAFE4ImagesEEG,001,102427,
AFNE01.JPG,AFNE01.JPG,AFNE01.JPG,AFNE01.JPG,AFNE01.JPG,AFNE01.JPG,,,,,,,,,,,,,,,,,,,,,2,4,24,9,,,AFSA19.jpg,AFNE09.jpg,AFNE02.jpg,AFSA11.jpg,AFNE09.jpg,FN,3,num_6,32,num_8,1.08339507575,,,2017_Dec_04_1239,60.0172094335,MAFE4ImagesEEG,001,102427,
AFNE01.JPG,AFNE01.JPG,AFNE01.JPG,AFNE01.JPG,AFNE01.JPG,AFNE01.JPG,,,,,,,,,,,,,,,,,,,,,2,5,25,4,,,AFSA20.jpg,AFNE15.jpg,AFSA06.jpg,AFNE04.jpg,AFSA20.jpg,FS,4,num_8,32,num_2,1.18342593056,,,2017_Dec_04_1239,60.0172094335,MAFE4ImagesEEG,001,102427,
AFNE01.JPG,AFNE01.JPG,AFNE01.JPG,AFNE01.JPG,AFNE01.JPG,AFNE01.JPG,,,,,,,,,,,,,,,,,,,,,2,6,26,3,,,AFNE17.jpg,AFSA11.jpg,AFNE10.jpg,AFSA10.jpg,AFSA11.jpg,FS,4,num_6,16,num_6,1.18342561019,,,2017_Dec_04_1239,60.0172094335,MAFE4ImagesEEG,001,102427,
AFNE01.JPG,AFNE01.JPG,AFNE01.JPG,AFNE01.JPG,AFNE01.JPG,AFNE01.JPG,,,,,,,,,,,,,,,,,,,,,2,7,27,8,,,AFNE19.jpg,AFSA18.jpg,AFSA01.jpg,AFNE13.jpg,AFNE13.jpg,FN,3,num_4,16,num_4,2.81663308525,,,2017_Dec_04_1239,60.0172094335,MAFE4ImagesEEG,001,102427,
AFNE01.JPG,AFNE01.JPG,AFNE01.JPG,AFNE01.JPG,AFNE01.JPG,AFNE01.JPG,,,,,,,,,,,,,,,,,,,,,2,8,28,5,,,AFSA08.jpg,AFSA20.jpg,AFNE17.jpg,AFNE19.jpg,AFNE17.jpg,FN,3,num_2,32,num_8,1.5167159643,,,2017_Dec_04_1239,60.0172094335,MAFE4ImagesEEG,001,102427,
AFNE01.JPG,AFNE01.JPG,AFNE01.JPG,AFNE01.JPG,AFNE01.JPG,AFNE01.JPG,,,,,,,,,,,,,,,,,,,,,2,9,29,1,,,AFNE08.jpg,AFSA06.jpg,AFNE01.jpg,AFSA01.jpg,AFSA06.jpg,FS,4,num_6,16,num_6,1.9999987171,,,2017_Dec_04_1239,60.0172094335,MAFE4ImagesEEG,001,102427,
AFNE01.JPG,AFNE01.JPG,AFNE01.JPG,AFNE01.JPG,AFNE01.JPG,AFNE01.JPG,,,,,,,,,,,,,,,,,,,,,3,0,30,3,,,AFSA05.jpg,AFNE01.jpg,AFNE18.jpg,AFSA13.jpg,AFNE01.jpg,FN,3,num_6,32,num_2,3.43322370481,,,2017_Dec_04_1239,60.0172094335,MAFE4ImagesEEG,001,102427,
AFNE01.JPG,AFNE01.JPG,AFNE01.JPG,AFNE01.JPG,AFNE01.JPG,AFNE01.JPG,,,,,,,,,,,,,,,,,,,,,3,1,31,8,,,AFSA15.jpg,AFSA17.jpg,AFNE02.jpg,AFNE04.jpg,AFNE02.jpg,FN,3,num_2,32,num_8,1.33342570625,,,2017_Dec_04_1239,60.0172094335,MAFE4ImagesEEG,001,102427,
AFNE01.JPG,AFNE01.JPG,AFNE01.JPG,AFNE01.JPG,AFNE01.JPG,AFNE01.JPG,,,,,,,,,,,,,,,,,,,,,3,2,32,9,,,AFSA17.jpg,AFSA18.jpg,AFNE10.jpg,AFNE14.jpg,AFSA18.jpg,FS,4,num_6,32,num_2,1.26673633116,,,2017_Dec_04_1239,60.0172094335,MAFE4ImagesEEG,001,102427,
AFNE01.JPG,AFNE01.JPG,AFNE01.JPG,AFNE01.JPG,AFNE01.JPG,AFNE01.JPG,,,,,,,,,,,,,,,,,,,,,3,3,33,2,,,AFNE02.jpg,AFSA05.jpg,AFSA08.jpg,AFNE13.jpg,AFSA05.jpg,FS,4,num_6,16,num_6,1.50007890188,,,2017_Dec_04_1239,60.0172094335,MAFE4ImagesEEG,001,102427,
AFNE01.JPG,AFNE01.JPG,AFNE01.JPG,AFNE01.JPG,AFNE01.JPG,AFNE01.JPG,,,,,,,,,,,,,,,,,,,,,3,4,34,5,,,AFNE13.jpg,AFSA02.jpg,AFSA10.jpg,AFNE01.jpg,AFNE01.jpg,FN,3,num_4,32,num_8,1.05009368807,,,2017_Dec_04_1239,60.0172094335,MAFE4ImagesEEG,001,102427,
AFNE01.JPG,AFNE01.JPG,AFNE01.JPG,AFNE01.JPG,AFNE01.JPG,AFNE01.JPG,,,,,,,,,,,,,,,,,,,,,3,5,35,4,,,AFNE10.jpg,AFSA12.jpg,AFNE20.jpg,AFSA17.jpg,AFNE10.jpg,FN,3,num_8,32,num_4,1.05013025226,,,2017_Dec_04_1239,60.0172094335,MAFE4ImagesEEG,001,102427,
AFNE01.JPG,AFNE01.JPG,AFNE01.JPG,AFNE01.JPG,AFNE01.JPG,AFNE01.JPG,,,,,,,,,,,,,,,,,,,,,3,6,36,7,,,AFNE03.jpg,AFSA14.jpg,AFNE14.jpg,AFSA08.jpg,AFSA08.jpg,FS,4,num_4,16,num_4,0.96666108584,,,2017_Dec_04_1239,60.0172094335,MAFE4ImagesEEG,001,102427,
AFNE01.JPG,AFNE01.JPG,AFNE01.JPG,AFNE01.JPG,AFNE01.JPG,AFNE01.JPG,,,,,,,,,,,,,,,,,,,,,3,7,37,0,,,AFSA03.jpg,AFNE10.jpg,AFSA06.jpg,AFNE12.jpg,AFSA06.jpg,FS,4,num_2,16,num_2,0.950112226652,,,2017_Dec_04_1239,60.0172094335,MAFE4ImagesEEG,001,102427,
AFNE01.JPG,AFNE01.JPG,AFNE01.JPG,AFNE01.JPG,AFNE01.JPG,AFNE01.JPG,,,,,,,,,,,,,,,,,,,,,3,8,38,1,,,AFNE14.jpg,AFNE16.jpg,AFSA08.jpg,AFSA16.jpg,AFNE14.jpg,FN,3,num_8,32,num_4,1.71666092542,,,2017_Dec_04_1239,60.0172094335,MAFE4ImagesEEG,001,102427,
AFNE01.JPG,AFNE01.JPG,AFNE01.JPG,AFNE01.JPG,AFNE01.JPG,AFNE01.JPG,,,,,,,,,,,,,,,,,,,,,3,9,39,6,,,AFSA18.jpg,AFNE07.jpg,AFNE12.jpg,AFSA09.jpg,AFSA18.jpg,FS,4,num_8,32,num_2,1.3335203242,,,2017_Dec_04_1239,60.0172094335,MAFE4ImagesEEG,001,102427,
