IPosition2,IPosition3,IPosition1,IPosition6,IPosition4,IPosition5,TrialsF1.thisRepN,TrialsF1.thisTrialN,TrialsF1.thisN,TrialsF1.thisIndex,TrialsM1.thisRepN,TrialsM1.thisTrialN,TrialsM1.thisN,TrialsM1.thisIndex,TrialsF2.thisRepN,TrialsF2.thisTrialN,TrialsF2.thisN,TrialsF2.thisIndex,TrialsM2.thisRepN,TrialsM2.thisTrialN,TrialsM2.thisN,TrialsM2.thisIndex,TrialsF3.thisRepN,TrialsF3.thisTrialN,TrialsF3.thisN,TrialsF3.thisIndex,TrialsM3.thisRepN,TrialsM3.thisTrialN,TrialsM3.thisN,TrialsM3.thisIndex,InstrKey_resp.keys,InstrKey_resp.rt,Image0 _Position,Image1 _Position,Image2 _Position,Image3 _Position,Center_image,condition,code,correct_answer,accuracy,Key_Resp.keys,Key_Resp.rt,BreakKey_resp.keys,BreakKey_resp.rt,date,frameRate,expName,session,participant,
,,,,,,,,,,,,,,,,,,,,,,,,,,,,,,space,24.115382506,,,,,,,,,,,,,,2017_Nov_15_1626,60.008372566,FEMA4ImagesEEG,001,102400,
AMSA21.JPG,AMNE23.JPG,AMNE21.JPG,AMSA25.JPG,AMNE25.JPG,AMSA23.JPG,0,0,0,5,,,,,,,,,,,,,,,,,,,,,,,AFSA12.jpg,AFNE15.jpg,AFSA07.jpg,AFNE16.jpg,AFSA07.jpg,FS,4,num_2,32,num_4,1.80005388428,,,2017_Nov_15_1626,60.008372566,FEMA4ImagesEEG,001,102400,
AFSA21.JPG,AFNE22.JPG,AFNE21.JPG,AFSA23.JPG,AFSA22.JPG,AFNE23.JPG,0,1,1,0,,,,,,,,,,,,,,,,,,,,,,,AFSA18.jpg,AFNE19.jpg,AFSA20.jpg,AFNE08.jpg,AFSA20.jpg,FS,4,num_2,32,num_8,2.26673049387,,,2017_Nov_15_1626,60.008372566,FEMA4ImagesEEG,001,102400,
AFNE23.JPG,AFNE24.JPG,AFNE22.JPG,AFSA24.JPG,AFSA22.JPG,AFSA23.JPG,0,2,2,8,,,,,,,,,,,,,,,,,,,,,,,AFSA19.jpg,AFSA16.jpg,AFNE19.jpg,AFNE15.jpg,AFNE15.jpg,FN,3,num_4,16,num_4,1.76666939305,,,2017_Nov_15_1626,60.008372566,FEMA4ImagesEEG,001,102400,
AFSA21.JPG,AFNE23.JPG,AFNE21.JPG,AFSA25.JPG,AFNE25.JPG,AFSA23.JPG,0,3,3,4,,,,,,,,,,,,,,,,,,,,,,,AFSA01.jpg,AFNE03.jpg,AFSA17.jpg,AFNE07.jpg,AFSA01.jpg,FS,4,num_8,32,num_2,3.74992133863,,,2017_Nov_15_1626,60.008372566,FEMA4ImagesEEG,001,102400,
AFSA25.JPG,AFNE24.JPG,AFSA24.JPG,AFNE21.JPG,AFSA21.JPG,AFNE25.JPG,0,4,4,2,,,,,,,,,,,,,,,,,,,,,,,AFSA12.jpg,AFNE13.jpg,AFSA19.jpg,AFNE07.jpg,AFNE13.jpg,FN,3,num_6,32,num_8,1.98337382637,,,2017_Nov_15_1626,60.008372566,FEMA4ImagesEEG,001,102400,
AMNE23.JPG,AMNE24.JPG,AMNE22.JPG,AMSA24.JPG,AMSA22.JPG,AMSA23.JPG,0,5,5,9,,,,,,,,,,,,,,,,,,,,,,,AFSA15.jpg,AFSA01.jpg,AFNE19.jpg,AFNE01.jpg,AFSA01.jpg,FS,4,num_6,32,num_4,1.01678205281,,,2017_Nov_15_1626,60.008372566,FEMA4ImagesEEG,001,102400,
AMNE22.JPG,AMSA24.JPG,AMSA22.JPG,AMNE25.JPG,AMNE24.JPG,AMSA25.JPG,0,6,6,7,,,,,,,,,,,,,,,,,,,,,,,AFNE18.jpg,AFSA07.jpg,AFNE09.jpg,AFSA03.jpg,AFSA07.jpg,FS,4,num_6,32,num_2,3.36654173862,,,2017_Nov_15_1626,60.008372566,FEMA4ImagesEEG,001,102400,
AMSA21.JPG,AMNE22.JPG,AMNE21.JPG,AMSA23.JPG,AMSA22.JPG,AMNE23.JPG,0,7,7,1,,,,,,,,,,,,,,,,,,,,,,,AFSA02.jpg,AFNE19.jpg,AFNE06.jpg,AFSA13.jpg,AFSA13.jpg,FS,4,num_4,16,num_4,3.83323663054,,,2017_Nov_15_1626,60.008372566,FEMA4ImagesEEG,001,102400,
AFNE22.JPG,AFSA24.JPG,AFSA22.JPG,AFNE25.JPG,AFNE24.JPG,AFSA25.JPG,0,8,8,6,,,,,,,,,,,,,,,,,,,,,,,AFSA17.jpg,AFNE09.jpg,AFSA02.jpg,AFNE03.jpg,AFSA17.jpg,FS,4,num_8,32,num_4,1.38341327757,,,2017_Nov_15_1626,60.008372566,FEMA4ImagesEEG,001,102400,
AMSA25.JPG,AMNE24.JPG,AMSA24.JPG,AMNE26.JPG,AMSA21.JPG,AMNE25.JPG,0,9,9,3,,,,,,,,,,,,,,,,,,,,,,,AFSA11.jpg,AFNE08.jpg,AFNE02.jpg,AFSA20.jpg,AFNE02.jpg,FN,3,num_2,32,num_6,1.38344310643,,,2017_Nov_15_1626,60.008372566,FEMA4ImagesEEG,001,102400,
AFSA25.JPG,AFNE24.JPG,AFSA24.JPG,AFNE21.JPG,AFSA21.JPG,AFNE25.JPG,,,,,0,0,0,2,,,,,,,,,,,,,,,,,,,AMSA03.jpg,AMNE09.jpg,AMSA09.jpg,AMNE17.jpg,AMNE17.jpg,MN,1,num_4,32,num_8,1.38344567223,,,2017_Nov_15_1626,60.008372566,FEMA4ImagesEEG,001,102400,
AFSA21.JPG,AFNE22.JPG,AFNE21.JPG,AFSA23.JPG,AFSA22.JPG,AFNE23.JPG,,,,,0,1,1,0,,,,,,,,,,,,,,,,,,,AMSA08.jpg,AMNE18.jpg,AMNE08.jpg,AMSA20.jpg,AMNE18.jpg,MN,1,num_6,32,num_2,2.74999061879,,,2017_Nov_15_1626,60.008372566,FEMA4ImagesEEG,001,102400,
AFNE22.JPG,AFSA24.JPG,AFSA22.JPG,AFNE25.JPG,AFNE24.JPG,AFSA25.JPG,,,,,0,2,2,6,,,,,,,,,,,,,,,,,,,AMNE20.jpg,AMSA16.jpg,AMNE09.jpg,AMSA01.jpg,AMNE09.jpg,MN,1,num_2,32,num_4,3.51629372686,,,2017_Nov_15_1626,60.008372566,FEMA4ImagesEEG,001,102400,
AMSA21.JPG,AMNE22.JPG,AMNE21.JPG,AMSA23.JPG,AMSA22.JPG,AMNE23.JPG,,,,,0,3,3,1,,,,,,,,,,,,,,,,,,,AMNE13.jpg,AMSA11.jpg,AMSA08.jpg,AMNE01.jpg,AMNE13.jpg,MN,1,num_8,16,num_8,2.25000360841,,,2017_Nov_15_1626,60.008372566,FEMA4ImagesEEG,001,102400,
AMNE23.JPG,AMNE24.JPG,AMNE22.JPG,AMSA24.JPG,AMSA22.JPG,AMSA23.JPG,,,,,0,4,4,9,,,,,,,,,,,,,,,,,,,AMNE16.jpg,AMSA06.jpg,AMSA03.jpg,AMNE05.jpg,AMNE16.jpg,MN,1,num_8,16,num_8,4.9335107021,,,2017_Nov_15_1626,60.008372566,FEMA4ImagesEEG,001,102400,
AFNE23.JPG,AFNE24.JPG,AFNE22.JPG,AFSA24.JPG,AFSA22.JPG,AFSA23.JPG,,,,,0,5,5,8,,,,,,,,,,,,,,,,,,,AMNE16.jpg,AMSA09.jpg,AMSA04.jpg,AMNE14.jpg,AMSA09.jpg,MS,2,num_6,32,num_8,1.90008323221,,,2017_Nov_15_1626,60.008372566,FEMA4ImagesEEG,001,102400,
AMSA25.JPG,AMNE24.JPG,AMSA24.JPG,AMNE26.JPG,AMSA21.JPG,AMNE25.JPG,,,,,0,6,6,3,,,,,,,,,,,,,,,,,,,AMNE14.jpg,AMSA19.jpg,AMSA11.jpg,AMNE04.jpg,AMNE14.jpg,MN,1,num_8,32,num_2,4.29972240003,,,2017_Nov_15_1626,60.008372566,FEMA4ImagesEEG,001,102400,
AMNE22.JPG,AMSA24.JPG,AMSA22.JPG,AMNE25.JPG,AMNE24.JPG,AMSA25.JPG,,,,,0,7,7,7,,,,,,,,,,,,,,,,,,,AMSA18.jpg,AMNE17.jpg,AMNE07.jpg,AMSA07.jpg,AMNE17.jpg,MN,1,num_6,32,num_8,2.25003568223,,,2017_Nov_15_1626,60.008372566,FEMA4ImagesEEG,001,102400,
AMSA21.JPG,AMNE23.JPG,AMNE21.JPG,AMSA25.JPG,AMNE25.JPG,AMSA23.JPG,,,,,0,8,8,5,,,,,,,,,,,,,,,,,,,AMSA18.jpg,AMNE14.jpg,AMNE18.jpg,AMSA19.jpg,AMSA19.jpg,MS,2,num_4,32,num_6,1.43341784831,,,2017_Nov_15_1626,60.008372566,FEMA4ImagesEEG,001,102400,
AFSA21.JPG,AFNE23.JPG,AFNE21.JPG,AFSA25.JPG,AFNE25.JPG,AFSA23.JPG,,,,,0,9,9,4,,,,,,,,,,,,,,,,,,,AMNE12.jpg,AMSA18.jpg,AMNE20.jpg,AMSA08.jpg,AMSA18.jpg,MS,2,num_6,32,num_8,3.23331681546,,,2017_Nov_15_1626,60.008372566,FEMA4ImagesEEG,001,102400,
AMSA21.JPG,AMNE22.JPG,AMNE21.JPG,AMSA23.JPG,AMSA22.JPG,AMNE23.JPG,,,,,,,,,0,0,0,1,,,,,,,,,,,,,,,AFSA01.jpg,AFSA17.jpg,AFNE05.jpg,AFNE18.jpg,AFSA17.jpg,FS,4,num_6,32,num_4,1.75007818034,,,2017_Nov_15_1626,60.008372566,FEMA4ImagesEEG,001,102400,
AMNE23.JPG,AMNE24.JPG,AMNE22.JPG,AMSA24.JPG,AMSA22.JPG,AMSA23.JPG,,,,,,,,,0,1,1,9,,,,,,,,,,,,,,,AFNE07.jpg,AFNE15.jpg,AFSA12.jpg,AFSA20.jpg,AFSA12.jpg,FS,4,num_2,16,num_2,2.83329885406,,,2017_Nov_15_1626,60.008372566,FEMA4ImagesEEG,001,102400,
AFSA21.JPG,AFNE23.JPG,AFNE21.JPG,AFSA25.JPG,AFNE25.JPG,AFSA23.JPG,,,,,,,,,0,2,2,4,,,,,,,,,,,,,,,AFSA13.jpg,AFNE20.jpg,AFNE03.jpg,AFSA01.jpg,AFSA13.jpg,FS,4,num_8,32,num_6,1.56676176563,,,2017_Nov_15_1626,60.008372566,FEMA4ImagesEEG,001,102400,
AFNE23.JPG,AFNE24.JPG,AFNE22.JPG,AFSA24.JPG,AFSA22.JPG,AFSA23.JPG,,,,,,,,,0,3,3,8,,,,,,,,,,,,,,,AFNE20.jpg,AFNE16.jpg,AFSA13.jpg,AFSA10.jpg,AFSA10.jpg,FS,4,num_4,32,num_6,4.0331542003,,,2017_Nov_15_1626,60.008372566,FEMA4ImagesEEG,001,102400,
AMSA21.JPG,AMNE23.JPG,AMNE21.JPG,AMSA25.JPG,AMNE25.JPG,AMSA23.JPG,,,,,,,,,0,4,4,5,,,,,,,,,,,,,,,AFNE16.jpg,AFSA08.jpg,AFSA10.jpg,AFNE06.jpg,AFSA10.jpg,FS,4,num_2,32,num_6,1.81670315051,,,2017_Nov_15_1626,60.008372566,FEMA4ImagesEEG,001,102400,
AFNE22.JPG,AFSA24.JPG,AFSA22.JPG,AFNE25.JPG,AFNE24.JPG,AFSA25.JPG,,,,,,,,,0,5,5,6,,,,,,,,,,,,,,,AFSA09.jpg,AFSA08.jpg,AFNE13.jpg,AFNE16.jpg,AFNE13.jpg,FN,3,num_2,32,num_8,1.56676272815,,,2017_Nov_15_1626,60.008372566,FEMA4ImagesEEG,001,102400,
AMNE22.JPG,AMSA24.JPG,AMSA22.JPG,AMNE25.JPG,AMNE24.JPG,AMSA25.JPG,,,,,,,,,0,6,6,7,,,,,,,,,,,,,,,AFNE12.jpg,AFSA01.jpg,AFSA07.jpg,AFNE14.jpg,AFSA07.jpg,FS,4,num_2,32,num_8,1.43343613064,,,2017_Nov_15_1626,60.008372566,FEMA4ImagesEEG,001,102400,
AFSA25.JPG,AFNE24.JPG,AFSA24.JPG,AFNE21.JPG,AFSA21.JPG,AFNE25.JPG,,,,,,,,,0,7,7,2,,,,,,,,,,,,,,,AFSA02.jpg,AFNE03.jpg,AFSA19.jpg,AFNE08.jpg,AFSA02.jpg,FS,4,num_8,32,num_6,2.20004971465,,,2017_Nov_15_1626,60.008372566,FEMA4ImagesEEG,001,102400,
AMSA25.JPG,AMNE24.JPG,AMSA24.JPG,AMNE26.JPG,AMSA21.JPG,AMNE25.JPG,,,,,,,,,0,8,8,3,,,,,,,,,,,,,,,AFNE09.jpg,AFSA03.jpg,AFNE20.jpg,AFSA11.jpg,AFNE20.jpg,FN,3,num_2,16,num_2,2.18331224471,,,2017_Nov_15_1626,60.008372566,FEMA4ImagesEEG,001,102400,
AFSA21.JPG,AFNE22.JPG,AFNE21.JPG,AFSA23.JPG,AFSA22.JPG,AFNE23.JPG,,,,,,,,,0,9,9,0,,,,,,,,,,,,,,,AFSA17.jpg,AFNE15.jpg,AFSA08.jpg,AFNE09.jpg,AFSA17.jpg,FS,4,num_8,32,num_4,2.48332298966,,,2017_Nov_15_1626,60.008372566,FEMA4ImagesEEG,001,102400,
AMSA25.JPG,AMNE24.JPG,AMSA24.JPG,AMNE26.JPG,AMSA21.JPG,AMNE25.JPG,,,,,,,,,,,,,0,0,0,3,,,,,,,,,,,AMNE08.jpg,AMNE07.jpg,AMSA12.jpg,AMSA15.jpg,AMSA12.jpg,MS,2,num_2,32,num_4,1.31675783684,,,2017_Nov_15_1626,60.008372566,FEMA4ImagesEEG,001,102400,
AFSA21.JPG,AFNE22.JPG,AFNE21.JPG,AFSA23.JPG,AFSA22.JPG,AFNE23.JPG,,,,,,,,,,,,,0,1,1,0,,,,,,,,,,,AMSA07.jpg,AMNE04.jpg,AMSA10.jpg,AMNE03.jpg,AMSA10.jpg,MS,2,num_2,32,num_8,3.43354550237,,,2017_Nov_15_1626,60.008372566,FEMA4ImagesEEG,001,102400,
AFNE23.JPG,AFNE24.JPG,AFNE22.JPG,AFSA24.JPG,AFSA22.JPG,AFSA23.JPG,,,,,,,,,,,,,0,2,2,8,,,,,,,,,,,AMSA15.jpg,AMSA14.jpg,AMNE09.jpg,AMNE15.jpg,AMNE15.jpg,MN,1,num_4,32,num_6,1.73344334681,,,2017_Nov_15_1626,60.008372566,FEMA4ImagesEEG,001,102400,
AFSA25.JPG,AFNE24.JPG,AFSA24.JPG,AFNE21.JPG,AFSA21.JPG,AFNE25.JPG,,,,,,,,,,,,,0,3,3,2,,,,,,,,,,,AMNE01.jpg,AMNE20.jpg,AMSA15.jpg,AMSA07.jpg,AMSA07.jpg,MS,2,num_4,32,num_8,3.29996584123,,,2017_Nov_15_1626,60.008372566,FEMA4ImagesEEG,001,102400,
AFSA21.JPG,AFNE23.JPG,AFNE21.JPG,AFSA25.JPG,AFNE25.JPG,AFSA23.JPG,,,,,,,,,,,,,0,4,4,4,,,,,,,,,,,AMSA05.jpg,AMNE10.jpg,AMNE09.jpg,AMSA07.jpg,AMNE10.jpg,MN,1,num_6,16,num_6,1.83341945196,,,2017_Nov_15_1626,60.008372566,FEMA4ImagesEEG,001,102400,
AMNE22.JPG,AMSA24.JPG,AMSA22.JPG,AMNE25.JPG,AMNE24.JPG,AMSA25.JPG,,,,,,,,,,,,,0,5,5,7,,,,,,,,,,,AMNE16.jpg,AMSA17.jpg,AMSA02.jpg,AMNE13.jpg,AMSA17.jpg,MS,2,num_6,32,num_8,2.1333686146,,,2017_Nov_15_1626,60.008372566,FEMA4ImagesEEG,001,102400,
AMSA21.JPG,AMNE23.JPG,AMNE21.JPG,AMSA25.JPG,AMNE25.JPG,AMSA23.JPG,,,,,,,,,,,,,0,6,6,5,,,,,,,,,,,AMNE08.jpg,AMSA03.jpg,AMNE14.jpg,AMSA15.jpg,AMSA03.jpg,MS,2,num_6,32,num_8,1.76669793855,,,2017_Nov_15_1626,60.008372566,FEMA4ImagesEEG,001,102400,
AMSA21.JPG,AMNE22.JPG,AMNE21.JPG,AMSA23.JPG,AMSA22.JPG,AMNE23.JPG,,,,,,,,,,,,,0,7,7,1,,,,,,,,,,,AMSA11.jpg,AMSA20.jpg,AMNE09.jpg,AMNE03.jpg,AMSA20.jpg,MS,2,num_6,16,num_6,1.78342225822,,,2017_Nov_15_1626,60.008372566,FEMA4ImagesEEG,001,102400,
AMNE23.JPG,AMNE24.JPG,AMNE22.JPG,AMSA24.JPG,AMSA22.JPG,AMSA23.JPG,,,,,,,,,,,,,0,8,8,9,,,,,,,,,,,AMNE18.jpg,AMSA02.jpg,AMNE02.jpg,AMSA01.jpg,AMSA01.jpg,MS,2,num_4,16,num_4,2.4500068156,,,2017_Nov_15_1626,60.008372566,FEMA4ImagesEEG,001,102400,
AFNE22.JPG,AFSA24.JPG,AFSA22.JPG,AFNE25.JPG,AFNE24.JPG,AFSA25.JPG,,,,,,,,,,,,,0,9,9,6,,,,,,,,,,,AMNE18.jpg,AMNE13.jpg,AMSA11.jpg,AMSA04.jpg,AMNE13.jpg,MN,1,num_6,16,num_6,1.18342386186,,,2017_Nov_15_1626,60.008372566,FEMA4ImagesEEG,001,102400,
AFSA21.JPG,AFNE23.JPG,AFNE21.JPG,AFSA25.JPG,AFNE25.JPG,AFSA23.JPG,,,,,,,,,,,,,,,,,0,0,0,4,,,,,,,AFNE03.jpg,AFNE02.jpg,AFSA09.jpg,AFSA15.jpg,AFSA09.jpg,FS,4,num_2,32,num_4,0.967066468205,,,2017_Nov_15_1626,60.008372566,FEMA4ImagesEEG,001,102400,
AMNE22.JPG,AMSA24.JPG,AMSA22.JPG,AMNE25.JPG,AMNE24.JPG,AMSA25.JPG,,,,,,,,,,,,,,,,,0,1,1,7,,,,,,,AFSA20.jpg,AFSA13.jpg,AFNE04.jpg,AFNE20.jpg,AFNE04.jpg,FN,3,num_2,32,num_8,1.21675639367,,,2017_Nov_15_1626,60.008372566,FEMA4ImagesEEG,001,102400,
AMSA21.JPG,AMNE22.JPG,AMNE21.JPG,AMSA23.JPG,AMSA22.JPG,AMNE23.JPG,,,,,,,,,,,,,,,,,0,2,2,1,,,,,,,AFSA06.jpg,AFSA11.jpg,AFNE11.jpg,AFNE14.jpg,AFNE14.jpg,FN,3,num_4,16,num_4,1.03346371418,,,2017_Nov_15_1626,60.008372566,FEMA4ImagesEEG,001,102400,
AFNE23.JPG,AFNE24.JPG,AFNE22.JPG,AFSA24.JPG,AFSA22.JPG,AFSA23.JPG,,,,,,,,,,,,,,,,,0,3,3,8,,,,,,,AFNE03.jpg,AFSA05.jpg,AFSA18.jpg,AFNE04.jpg,AFSA05.jpg,FS,4,num_6,16,num_6,1.34995469591,,,2017_Nov_15_1626,60.008372566,FEMA4ImagesEEG,001,102400,
AMNE23.JPG,AMNE24.JPG,AMNE22.JPG,AMSA24.JPG,AMSA22.JPG,AMSA23.JPG,,,,,,,,,,,,,,,,,0,4,4,9,,,,,,,AFNE13.jpg,AFSA15.jpg,AFNE15.jpg,AFSA07.jpg,AFSA15.jpg,FS,4,num_6,32,num_4,1.2832771237,,,2017_Nov_15_1626,60.008372566,FEMA4ImagesEEG,001,102400,
AFSA25.JPG,AFNE24.JPG,AFSA24.JPG,AFNE21.JPG,AFSA21.JPG,AFNE25.JPG,,,,,,,,,,,,,,,,,0,5,5,2,,,,,,,AFSA18.jpg,AFNE18.jpg,AFSA01.jpg,AFNE20.jpg,AFNE20.jpg,FN,3,num_4,32,num_8,0.966775557492,,,2017_Nov_15_1626,60.008372566,FEMA4ImagesEEG,001,102400,
AMSA21.JPG,AMNE23.JPG,AMNE21.JPG,AMSA25.JPG,AMNE25.JPG,AMSA23.JPG,,,,,,,,,,,,,,,,,0,6,6,5,,,,,,,AFNE17.jpg,AFSA11.jpg,AFSA01.jpg,AFNE15.jpg,AFSA11.jpg,FS,4,num_6,16,num_6,1.50008323183,,,2017_Nov_15_1626,60.008372566,FEMA4ImagesEEG,001,102400,
AFNE22.JPG,AFSA24.JPG,AFSA22.JPG,AFNE25.JPG,AFNE24.JPG,AFSA25.JPG,,,,,,,,,,,,,,,,,0,7,7,6,,,,,,,AFNE06.jpg,AFNE09.jpg,AFSA05.jpg,AFSA06.jpg,AFSA06.jpg,FS,4,num_4,16,num_4,1.43343292316,,,2017_Nov_15_1626,60.008372566,FEMA4ImagesEEG,001,102400,
AFSA21.JPG,AFNE22.JPG,AFNE21.JPG,AFSA23.JPG,AFSA22.JPG,AFNE23.JPG,,,,,,,,,,,,,,,,,0,8,8,0,,,,,,,AFSA09.jpg,AFNE05.jpg,AFSA02.jpg,AFNE08.jpg,AFNE08.jpg,FN,3,num_4,32,num_8,2.65000136336,,,2017_Nov_15_1626,60.008372566,FEMA4ImagesEEG,001,102400,
AMSA25.JPG,AMNE24.JPG,AMSA24.JPG,AMNE26.JPG,AMSA21.JPG,AMNE25.JPG,,,,,,,,,,,,,,,,,0,9,9,3,,,,,,,AFSA14.jpg,AFNE10.jpg,AFSA10.jpg,AFNE03.jpg,AFNE10.jpg,FN,3,num_6,32,num_8,1.13344815793,,,2017_Nov_15_1626,60.008372566,FEMA4ImagesEEG,001,102400,
AMNE23.JPG,AMNE24.JPG,AMNE22.JPG,AMSA24.JPG,AMSA22.JPG,AMSA23.JPG,,,,,,,,,,,,,,,,,,,,,0,0,0,9,,,AMNE11.jpg,AMNE07.jpg,AMSA05.jpg,AMSA10.jpg,AMSA10.jpg,MS,2,num_4,16,num_4,1.65005236072,,,2017_Nov_15_1626,60.008372566,FEMA4ImagesEEG,001,102400,
AMSA21.JPG,AMNE22.JPG,AMNE21.JPG,AMSA23.JPG,AMSA22.JPG,AMNE23.JPG,,,,,,,,,,,,,,,,,,,,,0,1,1,1,,,AMNE10.jpg,AMNE20.jpg,AMSA09.jpg,AMSA05.jpg,AMSA09.jpg,MS,2,num_2,32,num_6,1.73346804408,,,2017_Nov_15_1626,60.008372566,FEMA4ImagesEEG,001,102400,
AFSA21.JPG,AFNE23.JPG,AFNE21.JPG,AFSA25.JPG,AFNE25.JPG,AFSA23.JPG,,,,,,,,,,,,,,,,,,,,,0,2,2,4,,,AMNE11.jpg,AMSA01.jpg,AMNE08.jpg,AMSA02.jpg,AMNE11.jpg,MN,1,num_8,32,num_4,2.40003592288,,,2017_Nov_15_1626,60.008372566,FEMA4ImagesEEG,001,102400,
AMSA25.JPG,AMNE24.JPG,AMSA24.JPG,AMNE26.JPG,AMSA21.JPG,AMNE25.JPG,,,,,,,,,,,,,,,,,,,,,0,3,3,3,,,AMSA10.jpg,AMSA20.jpg,AMNE14.jpg,AMNE09.jpg,AMSA20.jpg,MS,2,num_6,32,num_8,1.4500850765,,,2017_Nov_15_1626,60.008372566,FEMA4ImagesEEG,001,102400,
AFSA25.JPG,AFNE24.JPG,AFSA24.JPG,AFNE21.JPG,AFSA21.JPG,AFNE25.JPG,,,,,,,,,,,,,,,,,,,,,0,4,4,2,,,AMSA10.jpg,AMSA09.jpg,AMNE19.jpg,AMNE15.jpg,AMSA09.jpg,MS,2,num_6,32,num_2,1.8167111692,,,2017_Nov_15_1626,60.008372566,FEMA4ImagesEEG,001,102400,
AMNE22.JPG,AMSA24.JPG,AMSA22.JPG,AMNE25.JPG,AMNE24.JPG,AMSA25.JPG,,,,,,,,,,,,,,,,,,,,,0,5,5,7,,,AMSA17.jpg,AMNE08.jpg,AMNE19.jpg,AMSA14.jpg,AMNE08.jpg,MN,1,num_6,32,num_8,2.91660676897,,,2017_Nov_15_1626,60.008372566,FEMA4ImagesEEG,001,102400,
AMSA21.JPG,AMNE23.JPG,AMNE21.JPG,AMSA25.JPG,AMNE25.JPG,AMSA23.JPG,,,,,,,,,,,,,,,,,,,,,0,6,6,5,,,AMNE10.jpg,AMNE02.jpg,AMSA14.jpg,AMSA10.jpg,AMNE10.jpg,MN,1,num_8,16,num_8,2.36664373381,,,2017_Nov_15_1626,60.008372566,FEMA4ImagesEEG,001,102400,
AFNE22.JPG,AFSA24.JPG,AFSA22.JPG,AFNE25.JPG,AFNE24.JPG,AFSA25.JPG,,,,,,,,,,,,,,,,,,,,,0,7,7,6,,,AMNE14.jpg,AMNE07.jpg,AMSA02.jpg,AMSA15.jpg,AMSA15.jpg,MS,2,num_4,32,num_8,1.58337029861,,,2017_Nov_15_1626,60.008372566,FEMA4ImagesEEG,001,102400,
AFNE23.JPG,AFNE24.JPG,AFNE22.JPG,AFSA24.JPG,AFSA22.JPG,AFSA23.JPG,,,,,,,,,,,,,,,,,,,,,0,8,8,8,,,AMNE06.jpg,AMSA09.jpg,AMNE01.jpg,AMSA13.jpg,AMSA13.jpg,MS,2,num_4,32,num_6,1.53337695356,,,2017_Nov_15_1626,60.008372566,FEMA4ImagesEEG,001,102400,
AFSA21.JPG,AFNE22.JPG,AFNE21.JPG,AFSA23.JPG,AFSA22.JPG,AFNE23.JPG,,,,,,,,,,,,,,,,,,,,,0,9,9,0,,,AMNE17.jpg,AMNE11.jpg,AMSA13.jpg,AMSA17.jpg,AMSA13.jpg,MS,2,num_2,32,num_8,1.38352264976,,,2017_Nov_15_1626,60.008372566,FEMA4ImagesEEG,001,102400,
,,,,,,,,,,,,,,,,,,,,,,,,,,,,,,,,,,,,,,,,,,,space,13.5160303996,2017_Nov_15_1626,60.008372566,FEMA4ImagesEEG,001,102400,
AFNE01.JPG,AFNE01.JPG,AFNE01.JPG,AFNE01.JPG,AFNE01.JPG,AFNE01.JPG,0,0,0,3,,,,,,,,,,,,,,,,,,,,,,,AFNE02.jpg,AFNE07.jpg,AFSA12.jpg,AFSA16.jpg,AFNE02.jpg,FN,3,num_8,16,num_8,1.20009878743,,,2017_Nov_15_1626,60.008372566,FEMA4ImagesEEG,001,102400,
AFNE01.JPG,AFNE01.JPG,AFNE01.JPG,AFNE01.JPG,AFNE01.JPG,AFNE01.JPG,0,1,1,5,,,,,,,,,,,,,,,,,,,,,,,AFSA20.jpg,AFNE01.jpg,AFNE09.jpg,AFSA11.jpg,AFNE09.jpg,FN,3,num_2,32,num_4,1.50009477837,,,2017_Nov_15_1626,60.008372566,FEMA4ImagesEEG,001,102400,
AFNE01.JPG,AFNE01.JPG,AFNE01.JPG,AFNE01.JPG,AFNE01.JPG,AFNE01.JPG,0,2,2,8,,,,,,,,,,,,,,,,,,,,,,,AFSA03.jpg,AFNE12.jpg,AFNE17.jpg,AFSA06.jpg,AFNE17.jpg,FN,3,num_2,16,num_2,1.35007625585,,,2017_Nov_15_1626,60.008372566,FEMA4ImagesEEG,001,102400,
AFNE01.JPG,AFNE01.JPG,AFNE01.JPG,AFNE01.JPG,AFNE01.JPG,AFNE01.JPG,0,3,3,4,,,,,,,,,,,,,,,,,,,,,,,AFNE16.jpg,AFSA02.jpg,AFNE19.jpg,AFSA08.jpg,AFSA02.jpg,FS,4,num_6,32,num_4,1.5000617425,,,2017_Nov_15_1626,60.008372566,FEMA4ImagesEEG,001,102400,
AFNE01.JPG,AFNE01.JPG,AFNE01.JPG,AFNE01.JPG,AFNE01.JPG,AFNE01.JPG,0,4,4,9,,,,,,,,,,,,,,,,,,,,,,,AFSA16.jpg,AFNE02.jpg,AFSA03.jpg,AFNE16.jpg,AFSA03.jpg,FS,4,num_2,32,num_6,1.83339539682,,,2017_Nov_15_1626,60.008372566,FEMA4ImagesEEG,001,102400,
AFNE01.JPG,AFNE01.JPG,AFNE01.JPG,AFNE01.JPG,AFNE01.JPG,AFNE01.JPG,0,5,5,6,,,,,,,,,,,,,,,,,,,,,,,AFNE16.jpg,AFSA14.jpg,AFSA05.jpg,AFNE04.jpg,AFSA14.jpg,FS,4,num_6,32,num_8,1.90004763007,,,2017_Nov_15_1626,60.008372566,FEMA4ImagesEEG,001,102400,
AFNE01.JPG,AFNE01.JPG,AFNE01.JPG,AFNE01.JPG,AFNE01.JPG,AFNE01.JPG,0,6,6,0,,,,,,,,,,,,,,,,,,,,,,,AFNE13.jpg,AFNE17.jpg,AFSA14.jpg,AFSA12.jpg,AFSA14.jpg,FS,4,num_2,32,num_8,1.4003909817,,,2017_Nov_15_1626,60.008372566,FEMA4ImagesEEG,001,102400,
AFNE01.JPG,AFNE01.JPG,AFNE01.JPG,AFNE01.JPG,AFNE01.JPG,AFNE01.JPG,0,7,7,2,,,,,,,,,,,,,,,,,,,,,,,AFNE17.jpg,AFNE10.jpg,AFSA05.jpg,AFSA18.jpg,AFSA18.jpg,FS,4,num_4,32,num_2,1.21676441189,,,2017_Nov_15_1626,60.008372566,FEMA4ImagesEEG,001,102400,
AFNE01.JPG,AFNE01.JPG,AFNE01.JPG,AFNE01.JPG,AFNE01.JPG,AFNE01.JPG,0,8,8,7,,,,,,,,,,,,,,,,,,,,,,,AFSA17.jpg,AFSA08.jpg,AFNE20.jpg,AFNE05.jpg,AFSA08.jpg,FS,4,num_6,32,num_8,1.36680827336,,,2017_Nov_15_1626,60.008372566,FEMA4ImagesEEG,001,102400,
AFNE01.JPG,AFNE01.JPG,AFNE01.JPG,AFNE01.JPG,AFNE01.JPG,AFNE01.JPG,0,9,9,1,,,,,,,,,,,,,,,,,,,,,,,AFSA20.jpg,AFNE20.jpg,AFSA17.jpg,AFNE18.jpg,AFSA17.jpg,FS,4,num_2,32,num_4,3.13330446696,,,2017_Nov_15_1626,60.008372566,FEMA4ImagesEEG,001,102400,
AFNE01.JPG,AFNE01.JPG,AFNE01.JPG,AFNE01.JPG,AFNE01.JPG,AFNE01.JPG,1,0,10,6,,,,,,,,,,,,,,,,,,,,,,,AFNE12.jpg,AFSA13.jpg,AFNE15.jpg,AFSA15.jpg,AFSA13.jpg,FS,4,num_6,16,num_6,1.16679255711,,,2017_Nov_15_1626,60.008372566,FEMA4ImagesEEG,001,102400,
AFNE01.JPG,AFNE01.JPG,AFNE01.JPG,AFNE01.JPG,AFNE01.JPG,AFNE01.JPG,1,1,11,2,,,,,,,,,,,,,,,,,,,,,,,AFNE20.jpg,AFSA12.jpg,AFSA05.jpg,AFNE07.jpg,AFSA05.jpg,FS,4,num_2,16,num_2,1.63349193893,,,2017_Nov_15_1626,60.008372566,FEMA4ImagesEEG,001,102400,
AFNE01.JPG,AFNE01.JPG,AFNE01.JPG,AFNE01.JPG,AFNE01.JPG,AFNE01.JPG,1,2,12,8,,,,,,,,,,,,,,,,,,,,,,,AFNE13.jpg,AFSA03.jpg,AFSA07.jpg,AFNE08.jpg,AFSA07.jpg,FS,4,num_2,32,num_8,0.600288344547,,,2017_Nov_15_1626,60.008372566,FEMA4ImagesEEG,001,102400,
AFNE01.JPG,AFNE01.JPG,AFNE01.JPG,AFNE01.JPG,AFNE01.JPG,AFNE01.JPG,1,3,13,9,,,,,,,,,,,,,,,,,,,,,,,AFSA14.jpg,AFSA09.jpg,AFNE13.jpg,AFNE20.jpg,AFNE20.jpg,FN,3,num_4,16,num_4,0.950145214796,,,2017_Nov_15_1626,60.008372566,FEMA4ImagesEEG,001,102400,
AFNE01.JPG,AFNE01.JPG,AFNE01.JPG,AFNE01.JPG,AFNE01.JPG,AFNE01.JPG,1,4,14,5,,,,,,,,,,,,,,,,,,,,,,,AFNE14.jpg,AFSA11.jpg,AFNE17.jpg,AFSA05.jpg,AFSA05.jpg,FS,4,num_4,16,num_4,1.26678245375,,,2017_Nov_15_1626,60.008372566,FEMA4ImagesEEG,001,102400,
AFNE01.JPG,AFNE01.JPG,AFNE01.JPG,AFNE01.JPG,AFNE01.JPG,AFNE01.JPG,1,5,15,0,,,,,,,,,,,,,,,,,,,,,,,AFNE20.jpg,AFSA12.jpg,AFNE08.jpg,AFSA14.jpg,AFSA14.jpg,FS,4,num_4,32,num_8,0.550202627201,,,2017_Nov_15_1626,60.008372566,FEMA4ImagesEEG,001,102400,
AFNE01.JPG,AFNE01.JPG,AFNE01.JPG,AFNE01.JPG,AFNE01.JPG,AFNE01.JPG,1,6,16,3,,,,,,,,,,,,,,,,,,,,,,,AFNE18.jpg,AFSA07.jpg,AFNE02.jpg,AFSA02.jpg,AFSA02.jpg,FS,4,num_4,32,num_8,2.9999913401,,,2017_Nov_15_1626,60.008372566,FEMA4ImagesEEG,001,102400,
AFNE01.JPG,AFNE01.JPG,AFNE01.JPG,AFNE01.JPG,AFNE01.JPG,AFNE01.JPG,1,7,17,4,,,,,,,,,,,,,,,,,,,,,,,AFSA12.jpg,AFNE06.jpg,AFSA07.jpg,AFNE03.jpg,AFSA12.jpg,FS,4,num_8,32,num_6,3.76655970002,,,2017_Nov_15_1626,60.008372566,FEMA4ImagesEEG,001,102400,
AFNE01.JPG,AFNE01.JPG,AFNE01.JPG,AFNE01.JPG,AFNE01.JPG,AFNE01.JPG,1,8,18,1,,,,,,,,,,,,,,,,,,,,,,,AFNE20.jpg,AFSA08.jpg,AFNE16.jpg,AFSA02.jpg,AFSA02.jpg,FS,4,num_4,32,num_2,1.23351407005,,,2017_Nov_15_1626,60.008372566,FEMA4ImagesEEG,001,102400,
AFNE01.JPG,AFNE01.JPG,AFNE01.JPG,AFNE01.JPG,AFNE01.JPG,AFNE01.JPG,1,9,19,7,,,,,,,,,,,,,,,,,,,,,,,AFSA17.jpg,AFSA09.jpg,AFNE08.jpg,AFNE01.jpg,AFSA09.jpg,FS,4,num_6,32,num_4,1.50010119332,,,2017_Nov_15_1626,60.008372566,FEMA4ImagesEEG,001,102400,
AFNE01.JPG,AFNE01.JPG,AFNE01.JPG,AFNE01.JPG,AFNE01.JPG,AFNE01.JPG,2,0,20,6,,,,,,,,,,,,,,,,,,,,,,,AFSA06.jpg,AFSA17.jpg,AFNE01.jpg,AFNE15.jpg,AFNE15.jpg,FN,3,num_4,16,num_4,0.683830399532,,,2017_Nov_15_1626,60.008372566,FEMA4ImagesEEG,001,102400,
AFNE01.JPG,AFNE01.JPG,AFNE01.JPG,AFNE01.JPG,AFNE01.JPG,AFNE01.JPG,2,1,21,1,,,,,,,,,,,,,,,,,,,,,,,AFSA15.jpg,AFSA20.jpg,AFNE09.jpg,AFNE20.jpg,AFSA15.jpg,FS,4,num_8,16,num_8,1.60006895894,,,2017_Nov_15_1626,60.008372566,FEMA4ImagesEEG,001,102400,
AFNE01.JPG,AFNE01.JPG,AFNE01.JPG,AFNE01.JPG,AFNE01.JPG,AFNE01.JPG,2,2,22,0,,,,,,,,,,,,,,,,,,,,,,,AFSA04.jpg,AFNE09.jpg,AFSA01.jpg,AFNE04.jpg,AFNE04.jpg,FN,3,num_4,32,num_2,1.23347044922,,,2017_Nov_15_1626,60.008372566,FEMA4ImagesEEG,001,102400,
AFNE01.JPG,AFNE01.JPG,AFNE01.JPG,AFNE01.JPG,AFNE01.JPG,AFNE01.JPG,2,3,23,7,,,,,,,,,,,,,,,,,,,,,,,AFNE20.jpg,AFSA11.jpg,AFNE02.jpg,AFSA04.jpg,AFSA11.jpg,FS,4,num_6,32,num_8,1.01675382769,,,2017_Nov_15_1626,60.008372566,FEMA4ImagesEEG,001,102400,
AFNE01.JPG,AFNE01.JPG,AFNE01.JPG,AFNE01.JPG,AFNE01.JPG,AFNE01.JPG,2,4,24,9,,,,,,,,,,,,,,,,,,,,,,,AFNE03.jpg,AFNE01.jpg,AFSA12.jpg,AFSA19.jpg,AFNE03.jpg,FN,3,num_8,16,num_8,1.67522624182,,,2017_Nov_15_1626,60.008372566,FEMA4ImagesEEG,001,102400,
AFNE01.JPG,AFNE01.JPG,AFNE01.JPG,AFNE01.JPG,AFNE01.JPG,AFNE01.JPG,2,5,25,5,,,,,,,,,,,,,,,,,,,,,,,AFNE14.jpg,AFSA16.jpg,AFSA01.jpg,AFNE02.jpg,AFSA16.jpg,FS,4,num_6,16,num_6,0.733458742499,,,2017_Nov_15_1626,60.008372566,FEMA4ImagesEEG,001,102400,
AFNE01.JPG,AFNE01.JPG,AFNE01.JPG,AFNE01.JPG,AFNE01.JPG,AFNE01.JPG,2,6,26,3,,,,,,,,,,,,,,,,,,,,,,,AFSA01.jpg,AFNE11.jpg,AFNE16.jpg,AFSA17.jpg,AFNE16.jpg,FN,3,num_2,16,num_2,1.10011241911,,,2017_Nov_15_1626,60.008372566,FEMA4ImagesEEG,001,102400,
AFNE01.JPG,AFNE01.JPG,AFNE01.JPG,AFNE01.JPG,AFNE01.JPG,AFNE01.JPG,2,7,27,2,,,,,,,,,,,,,,,,,,,,,,,AFNE08.jpg,AFSA08.jpg,AFNE05.jpg,AFSA02.jpg,AFNE08.jpg,FN,3,num_8,16,num_8,1.36669280659,,,2017_Nov_15_1626,60.008372566,FEMA4ImagesEEG,001,102400,
AFNE01.JPG,AFNE01.JPG,AFNE01.JPG,AFNE01.JPG,AFNE01.JPG,AFNE01.JPG,2,8,28,8,,,,,,,,,,,,,,,,,,,,,,,AFSA18.jpg,AFSA20.jpg,AFNE19.jpg,AFNE02.jpg,AFSA20.jpg,FS,4,num_6,16,num_6,1.06672472088,,,2017_Nov_15_1626,60.008372566,FEMA4ImagesEEG,001,102400,
AFNE01.JPG,AFNE01.JPG,AFNE01.JPG,AFNE01.JPG,AFNE01.JPG,AFNE01.JPG,2,9,29,4,,,,,,,,,,,,,,,,,,,,,,,AFNE19.jpg,AFSA11.jpg,AFSA08.jpg,AFNE06.jpg,AFSA11.jpg,FS,4,num_6,16,num_6,1.00013503106,,,2017_Nov_15_1626,60.008372566,FEMA4ImagesEEG,001,102400,
AFNE01.JPG,AFNE01.JPG,AFNE01.JPG,AFNE01.JPG,AFNE01.JPG,AFNE01.JPG,3,0,30,2,,,,,,,,,,,,,,,,,,,,,,,AFNE07.jpg,AFSA08.jpg,AFSA06.jpg,AFNE13.jpg,AFSA06.jpg,FS,4,num_2,32,num_8,1.33344783727,,,2017_Nov_15_1626,60.008372566,FEMA4ImagesEEG,001,102400,
AFNE01.JPG,AFNE01.JPG,AFNE01.JPG,AFNE01.JPG,AFNE01.JPG,AFNE01.JPG,3,1,31,7,,,,,,,,,,,,,,,,,,,,,,,AFNE17.jpg,AFSA02.jpg,AFNE01.jpg,AFSA18.jpg,AFSA02.jpg,FS,4,num_6,32,num_8,1.36674091779,,,2017_Nov_15_1626,60.008372566,FEMA4ImagesEEG,001,102400,
AFNE01.JPG,AFNE01.JPG,AFNE01.JPG,AFNE01.JPG,AFNE01.JPG,AFNE01.JPG,3,2,32,4,,,,,,,,,,,,,,,,,,,,,,,AFSA02.jpg,AFNE10.jpg,AFSA04.jpg,AFNE03.jpg,AFSA02.jpg,FS,4,num_8,16,num_8,1.36677619908,,,2017_Nov_15_1626,60.008372566,FEMA4ImagesEEG,001,102400,
AFNE01.JPG,AFNE01.JPG,AFNE01.JPG,AFNE01.JPG,AFNE01.JPG,AFNE01.JPG,3,3,33,6,,,,,,,,,,,,,,,,,,,,,,,AFNE16.jpg,AFSA16.jpg,AFNE11.jpg,AFSA13.jpg,AFSA13.jpg,FS,4,num_4,16,num_4,4.13330446649,,,2017_Nov_15_1626,60.008372566,FEMA4ImagesEEG,001,102400,
AFNE01.JPG,AFNE01.JPG,AFNE01.JPG,AFNE01.JPG,AFNE01.JPG,AFNE01.JPG,3,4,34,0,,,,,,,,,,,,,,,,,,,,,,,AFSA01.jpg,AFSA05.jpg,AFNE15.jpg,AFNE05.jpg,AFNE15.jpg,FN,3,num_2,32,num_8,0.983444710262,,,2017_Nov_15_1626,60.008372566,FEMA4ImagesEEG,001,102400,
AFNE01.JPG,AFNE01.JPG,AFNE01.JPG,AFNE01.JPG,AFNE01.JPG,AFNE01.JPG,3,5,35,9,,,,,,,,,,,,,,,,,,,,,,,AFNE09.jpg,AFSA14.jpg,AFSA11.jpg,AFNE06.jpg,AFSA11.jpg,FS,4,num_2,32,num_6,1.10013679555,,,2017_Nov_15_1626,60.008372566,FEMA4ImagesEEG,001,102400,
AFNE01.JPG,AFNE01.JPG,AFNE01.JPG,AFNE01.JPG,AFNE01.JPG,AFNE01.JPG,3,6,36,1,,,,,,,,,,,,,,,,,,,,,,,AFSA03.jpg,AFSA14.jpg,AFNE02.jpg,AFNE08.jpg,AFNE02.jpg,FN,3,num_2,32,num_4,0.78347036941,,,2017_Nov_15_1626,60.008372566,FEMA4ImagesEEG,001,102400,
AFNE01.JPG,AFNE01.JPG,AFNE01.JPG,AFNE01.JPG,AFNE01.JPG,AFNE01.JPG,3,7,37,8,,,,,,,,,,,,,,,,,,,,,,,AFSA04.jpg,AFNE19.jpg,AFSA12.jpg,AFNE20.jpg,AFSA12.jpg,FS,4,num_2,32,num_6,1.05013928097,,,2017_Nov_15_1626,60.008372566,FEMA4ImagesEEG,001,102400,
AFNE01.JPG,AFNE01.JPG,AFNE01.JPG,AFNE01.JPG,AFNE01.JPG,AFNE01.JPG,3,8,38,3,,,,,,,,,,,,,,,,,,,,,,,AFSA11.jpg,AFSA18.jpg,AFNE07.jpg,AFNE03.jpg,AFNE03.jpg,FN,3,num_4,32,num_8,1.05010752799,,,2017_Nov_15_1626,60.008372566,FEMA4ImagesEEG,001,102400,
AFNE01.JPG,AFNE01.JPG,AFNE01.JPG,AFNE01.JPG,AFNE01.JPG,AFNE01.JPG,3,9,39,5,,,,,,,,,,,,,,,,,,,,,,,AFSA05.jpg,AFNE19.jpg,AFNE13.jpg,AFSA16.jpg,AFSA05.jpg,FS,4,num_8,32,num_4,0.650148261804,,,2017_Nov_15_1626,60.008372566,FEMA4ImagesEEG,001,102400,
AFNE01.JPG,AFNE01.JPG,AFNE01.JPG,AFNE01.JPG,AFNE01.JPG,AFNE01.JPG,4,0,40,4,,,,,,,,,,,,,,,,,,,,,,,AFSA05.jpg,AFNE08.jpg,AFNE17.jpg,AFSA03.jpg,AFNE17.jpg,FN,3,num_2,16,num_2,1.10010119341,,,2017_Nov_15_1626,60.008372566,FEMA4ImagesEEG,001,102400,
AFNE01.JPG,AFNE01.JPG,AFNE01.JPG,AFNE01.JPG,AFNE01.JPG,AFNE01.JPG,4,1,41,8,,,,,,,,,,,,,,,,,,,,,,,AFSA16.jpg,AFNE17.jpg,AFSA06.jpg,AFNE07.jpg,AFSA06.jpg,FS,4,num_2,32,num_4,0.783472935203,,,2017_Nov_15_1626,60.008372566,FEMA4ImagesEEG,001,102400,
AFNE01.JPG,AFNE01.JPG,AFNE01.JPG,AFNE01.JPG,AFNE01.JPG,AFNE01.JPG,4,2,42,9,,,,,,,,,,,,,,,,,,,,,,,AFSA17.jpg,AFSA08.jpg,AFNE15.jpg,AFNE06.jpg,AFNE06.jpg,FN,3,num_4,16,num_4,0.666780208237,,,2017_Nov_15_1626,60.008372566,FEMA4ImagesEEG,001,102400,
AFNE01.JPG,AFNE01.JPG,AFNE01.JPG,AFNE01.JPG,AFNE01.JPG,AFNE01.JPG,4,3,43,0,,,,,,,,,,,,,,,,,,,,,,,AFSA05.jpg,AFNE13.jpg,AFNE11.jpg,AFSA03.jpg,AFNE11.jpg,FN,3,num_2,16,num_2,1.15010929201,,,2017_Nov_15_1626,60.008372566,FEMA4ImagesEEG,001,102400,
AFNE01.JPG,AFNE01.JPG,AFNE01.JPG,AFNE01.JPG,AFNE01.JPG,AFNE01.JPG,4,4,44,6,,,,,,,,,,,,,,,,,,,,,,,AFNE01.jpg,AFNE09.jpg,AFSA03.jpg,AFSA11.jpg,AFNE09.jpg,FN,3,num_6,16,num_6,2.31671870686,,,2017_Nov_15_1626,60.008372566,FEMA4ImagesEEG,001,102400,
AFNE01.JPG,AFNE01.JPG,AFNE01.JPG,AFNE01.JPG,AFNE01.JPG,AFNE01.JPG,4,5,45,2,,,,,,,,,,,,,,,,,,,,,,,AFNE13.jpg,AFSA08.jpg,AFNE14.jpg,AFSA03.jpg,AFSA08.jpg,FS,4,num_6,32,num_8,1.26678052917,,,2017_Nov_15_1626,60.008372566,FEMA4ImagesEEG,001,102400,
AFNE01.JPG,AFNE01.JPG,AFNE01.JPG,AFNE01.JPG,AFNE01.JPG,AFNE01.JPG,4,6,46,1,,,,,,,,,,,,,,,,,,,,,,,AFNE06.jpg,AFSA02.jpg,AFNE19.jpg,AFSA20.jpg,AFSA02.jpg,FS,4,num_6,16,num_6,1.46674011601,,,2017_Nov_15_1626,60.008372566,FEMA4ImagesEEG,001,102400,
AFNE01.JPG,AFNE01.JPG,AFNE01.JPG,AFNE01.JPG,AFNE01.JPG,AFNE01.JPG,4,7,47,3,,,,,,,,,,,,,,,,,,,,,,,AFSA11.jpg,AFNE12.jpg,AFNE20.jpg,AFSA18.jpg,AFNE12.jpg,FN,3,num_6,32,num_4,0.483448398765,,,2017_Nov_15_1626,60.008372566,FEMA4ImagesEEG,001,102400,
AFNE01.JPG,AFNE01.JPG,AFNE01.JPG,AFNE01.JPG,AFNE01.JPG,AFNE01.JPG,4,8,48,5,,,,,,,,,,,,,,,,,,,,,,,AFSA15.jpg,AFNE12.jpg,AFNE20.jpg,AFSA04.jpg,AFNE12.jpg,FN,3,num_6,16,num_6,2.40004362073,,,2017_Nov_15_1626,60.008372566,FEMA4ImagesEEG,001,102400,
AFNE01.JPG,AFNE01.JPG,AFNE01.JPG,AFNE01.JPG,AFNE01.JPG,AFNE01.JPG,4,9,49,7,,,,,,,,,,,,,,,,,,,,,,,AFSA16.jpg,AFSA14.jpg,AFNE18.jpg,AFNE01.jpg,AFSA14.jpg,FS,4,num_6,32,num_4,3.93305717688,,,2017_Nov_15_1626,60.008372566,FEMA4ImagesEEG,001,102400,
AFNE01.JPG,AFNE01.JPG,AFNE01.JPG,AFNE01.JPG,AFNE01.JPG,AFNE01.JPG,5,0,50,1,,,,,,,,,,,,,,,,,,,,,,,AFNE11.jpg,AFNE07.jpg,AFSA08.jpg,AFSA11.jpg,AFSA08.jpg,FS,4,num_2,32,num_6,1.33345361054,,,2017_Nov_15_1626,60.008372566,FEMA4ImagesEEG,001,102400,
AFNE01.JPG,AFNE01.JPG,AFNE01.JPG,AFNE01.JPG,AFNE01.JPG,AFNE01.JPG,5,1,51,5,,,,,,,,,,,,,,,,,,,,,,,AFSA16.jpg,AFSA19.jpg,AFNE13.jpg,AFNE17.jpg,AFSA16.jpg,FS,4,num_8,16,num_8,1.55006887903,,,2017_Nov_15_1626,60.008372566,FEMA4ImagesEEG,001,102400,
AFNE01.JPG,AFNE01.JPG,AFNE01.JPG,AFNE01.JPG,AFNE01.JPG,AFNE01.JPG,5,2,52,4,,,,,,,,,,,,,,,,,,,,,,,AFSA13.jpg,AFNE18.jpg,AFSA02.jpg,AFNE12.jpg,AFSA13.jpg,FS,4,num_8,32,num_2,1.11678349599,,,2017_Nov_15_1626,60.008372566,FEMA4ImagesEEG,001,102400,
AFNE01.JPG,AFNE01.JPG,AFNE01.JPG,AFNE01.JPG,AFNE01.JPG,AFNE01.JPG,5,3,53,3,,,,,,,,,,,,,,,,,,,,,,,AFNE01.jpg,AFSA06.jpg,AFSA07.jpg,AFNE13.jpg,AFSA06.jpg,FS,4,num_6,32,num_4,1.11677772272,,,2017_Nov_15_1626,60.008372566,FEMA4ImagesEEG,001,102400,
AFNE01.JPG,AFNE01.JPG,AFNE01.JPG,AFNE01.JPG,AFNE01.JPG,AFNE01.JPG,5,4,54,7,,,,,,,,,,,,,,,,,,,,,,,AFSA03.jpg,AFNE15.jpg,AFNE07.jpg,AFSA09.jpg,AFNE15.jpg,FN,3,num_6,32,num_8,0.983199986164,,,2017_Nov_15_1626,60.008372566,FEMA4ImagesEEG,001,102400,
AFNE01.JPG,AFNE01.JPG,AFNE01.JPG,AFNE01.JPG,AFNE01.JPG,AFNE01.JPG,5,5,55,2,,,,,,,,,,,,,,,,,,,,,,,AFSA15.jpg,AFSA10.jpg,AFNE18.jpg,AFNE15.jpg,AFNE18.jpg,FN,3,num_2,32,num_6,0.583462030161,,,2017_Nov_15_1626,60.008372566,FEMA4ImagesEEG,001,102400,
AFNE01.JPG,AFNE01.JPG,AFNE01.JPG,AFNE01.JPG,AFNE01.JPG,AFNE01.JPG,5,6,56,6,,,,,,,,,,,,,,,,,,,,,,,AFSA04.jpg,AFSA10.jpg,AFNE05.jpg,AFNE12.jpg,AFSA10.jpg,FS,4,num_6,32,num_4,0.550156761426,,,2017_Nov_15_1626,60.008372566,FEMA4ImagesEEG,001,102400,
AFNE01.JPG,AFNE01.JPG,AFNE01.JPG,AFNE01.JPG,AFNE01.JPG,AFNE01.JPG,5,7,57,0,,,,,,,,,,,,,,,,,,,,,,,AFSA17.jpg,AFSA08.jpg,AFNE08.jpg,AFNE05.jpg,AFSA08.jpg,FS,4,num_6,32,num_8,1.20012027724,,,2017_Nov_15_1626,60.008372566,FEMA4ImagesEEG,001,102400,
AFNE01.JPG,AFNE01.JPG,AFNE01.JPG,AFNE01.JPG,AFNE01.JPG,AFNE01.JPG,5,8,58,8,,,,,,,,,,,,,,,,,,,,,,,AFNE12.jpg,AFSA11.jpg,AFSA01.jpg,AFNE16.jpg,AFSA11.jpg,FS,4,num_6,16,num_6,0.383504367433,,,2017_Nov_15_1626,60.008372566,FEMA4ImagesEEG,001,102400,
AFNE01.JPG,AFNE01.JPG,AFNE01.JPG,AFNE01.JPG,AFNE01.JPG,AFNE01.JPG,5,9,59,9,,,,,,,,,,,,,,,,,,,,,,,AFNE11.jpg,AFNE03.jpg,AFSA14.jpg,AFSA09.jpg,AFSA14.jpg,FS,4,num_2,16,num_2,0.35015676124,,,2017_Nov_15_1626,60.008372566,FEMA4ImagesEEG,001,102400,
,,,,,,,,,,,,,,,,,,,,,,,,,,,,,,,,,,,,,,,,,,,space,13.5157680348,2017_Nov_15_1626,60.008372566,FEMA4ImagesEEG,001,102400,
AFNE01.JPG,AFNE01.JPG,AFNE01.JPG,AFNE01.JPG,AFNE01.JPG,AFNE01.JPG,,,,,0,0,0,2,,,,,,,,,,,,,,,,,,,AMSA03.jpg,AMNE07.jpg,AMNE11.jpg,AMSA15.jpg,AMNE07.jpg,MN,1,num_6,32,num_4,0.633563463576,,,2017_Nov_15_1626,60.008372566,FEMA4ImagesEEG,001,102400,
AFNE01.JPG,AFNE01.JPG,AFNE01.JPG,AFNE01.JPG,AFNE01.JPG,AFNE01.JPG,,,,,0,1,1,0,,,,,,,,,,,,,,,,,,,AMNE12.jpg,AMNE20.jpg,AMSA16.jpg,AMSA14.jpg,AMSA16.jpg,MS,2,num_2,32,num_8,0.316811079625,,,2017_Nov_15_1626,60.008372566,FEMA4ImagesEEG,001,102400,
AFNE01.JPG,AFNE01.JPG,AFNE01.JPG,AFNE01.JPG,AFNE01.JPG,AFNE01.JPG,,,,,0,2,2,4,,,,,,,,,,,,,,,,,,,AMSA11.jpg,AMSA20.jpg,AMNE17.jpg,AMNE18.jpg,AMNE17.jpg,MN,1,num_2,32,num_6,0.783495707903,,,2017_Nov_15_1626,60.008372566,FEMA4ImagesEEG,001,102400,
AFNE01.JPG,AFNE01.JPG,AFNE01.JPG,AFNE01.JPG,AFNE01.JPG,AFNE01.JPG,,,,,0,3,3,7,,,,,,,,,,,,,,,,,,,AMSA15.jpg,AMSA07.jpg,AMNE03.jpg,AMNE13.jpg,AMNE03.jpg,MN,1,num_2,16,num_2,0.60015042685,,,2017_Nov_15_1626,60.008372566,FEMA4ImagesEEG,001,102400,
AFNE01.JPG,AFNE01.JPG,AFNE01.JPG,AFNE01.JPG,AFNE01.JPG,AFNE01.JPG,,,,,0,4,4,1,,,,,,,,,,,,,,,,,,,AMNE12.jpg,AMSA10.jpg,AMNE05.jpg,AMSA18.jpg,AMSA18.jpg,MS,2,num_4,32,num_6,0.633522729855,,,2017_Nov_15_1626,60.008372566,FEMA4ImagesEEG,001,102400,
AFNE01.JPG,AFNE01.JPG,AFNE01.JPG,AFNE01.JPG,AFNE01.JPG,AFNE01.JPG,,,,,0,5,5,5,,,,,,,,,,,,,,,,,,,AMNE13.jpg,AMSA13.jpg,AMNE11.jpg,AMSA20.jpg,AMSA20.jpg,MS,2,num_4,16,num_4,1.78340269299,,,2017_Nov_15_1626,60.008372566,FEMA4ImagesEEG,001,102400,
AFNE01.JPG,AFNE01.JPG,AFNE01.JPG,AFNE01.JPG,AFNE01.JPG,AFNE01.JPG,,,,,0,6,6,3,,,,,,,,,,,,,,,,,,,AMSA07.jpg,AMSA04.jpg,AMNE06.jpg,AMNE07.jpg,AMNE06.jpg,MN,1,num_2,32,num_6,1.1001162678,,,2017_Nov_15_1626,60.008372566,FEMA4ImagesEEG,001,102400,
AFNE01.JPG,AFNE01.JPG,AFNE01.JPG,AFNE01.JPG,AFNE01.JPG,AFNE01.JPG,,,,,0,7,7,8,,,,,,,,,,,,,,,,,,,AMSA02.jpg,AMNE18.jpg,AMNE10.jpg,AMSA11.jpg,AMNE18.jpg,MN,1,num_6,32,num_4,0.833459223621,,,2017_Nov_15_1626,60.008372566,FEMA4ImagesEEG,001,102400,
AFNE01.JPG,AFNE01.JPG,AFNE01.JPG,AFNE01.JPG,AFNE01.JPG,AFNE01.JPG,,,,,0,8,8,9,,,,,,,,,,,,,,,,,,,AMSA17.jpg,AMNE05.jpg,AMNE11.jpg,AMSA13.jpg,AMSA13.jpg,MS,2,num_4,32,num_8,0.61682310747,,,2017_Nov_15_1626,60.008372566,FEMA4ImagesEEG,001,102400,
AFNE01.JPG,AFNE01.JPG,AFNE01.JPG,AFNE01.JPG,AFNE01.JPG,AFNE01.JPG,,,,,0,9,9,6,,,,,,,,,,,,,,,,,,,AMNE10.jpg,AMSA01.jpg,AMNE19.jpg,AMSA07.jpg,AMNE10.jpg,MN,1,num_8,32,num_2,1.26673402218,,,2017_Nov_15_1626,60.008372566,FEMA4ImagesEEG,001,102400,
AFNE01.JPG,AFNE01.JPG,AFNE01.JPG,AFNE01.JPG,AFNE01.JPG,AFNE01.JPG,,,,,1,0,10,6,,,,,,,,,,,,,,,,,,,AMSA14.jpg,AMSA11.jpg,AMNE07.jpg,AMNE03.jpg,AMNE07.jpg,MN,1,num_2,32,num_8,0.933297089767,,,2017_Nov_15_1626,60.008372566,FEMA4ImagesEEG,001,102400,
AFNE01.JPG,AFNE01.JPG,AFNE01.JPG,AFNE01.JPG,AFNE01.JPG,AFNE01.JPG,,,,,1,1,11,3,,,,,,,,,,,,,,,,,,,AMSA10.jpg,AMSA12.jpg,AMNE11.jpg,AMNE14.jpg,AMNE14.jpg,MN,1,num_4,32,num_6,0.683455775958,,,2017_Nov_15_1626,60.008372566,FEMA4ImagesEEG,001,102400,
AFNE01.JPG,AFNE01.JPG,AFNE01.JPG,AFNE01.JPG,AFNE01.JPG,AFNE01.JPG,,,,,1,2,12,2,,,,,,,,,,,,,,,,,,,AMSA16.jpg,AMNE17.jpg,AMSA06.jpg,AMNE06.jpg,AMSA06.jpg,MS,2,num_2,32,num_4,0.866684627719,,,2017_Nov_15_1626,60.008372566,FEMA4ImagesEEG,001,102400,
AFNE01.JPG,AFNE01.JPG,AFNE01.JPG,AFNE01.JPG,AFNE01.JPG,AFNE01.JPG,,,,,1,3,13,7,,,,,,,,,,,,,,,,,,,AMNE01.jpg,AMSA13.jpg,AMSA01.jpg,AMNE20.jpg,AMNE20.jpg,MN,1,num_4,16,num_4,4.11658944888,,,2017_Nov_15_1626,60.008372566,FEMA4ImagesEEG,001,102400,
AFNE01.JPG,AFNE01.JPG,AFNE01.JPG,AFNE01.JPG,AFNE01.JPG,AFNE01.JPG,,,,,1,4,14,4,,,,,,,,,,,,,,,,,,,AMNE02.jpg,AMSA08.jpg,AMSA05.jpg,AMNE17.jpg,AMSA05.jpg,MS,2,num_2,32,num_6,1.50007938314,,,2017_Nov_15_1626,60.008372566,FEMA4ImagesEEG,001,102400,
AFNE01.JPG,AFNE01.JPG,AFNE01.JPG,AFNE01.JPG,AFNE01.JPG,AFNE01.JPG,,,,,1,5,15,0,,,,,,,,,,,,,,,,,,,AMSA04.jpg,AMSA12.jpg,AMNE01.jpg,AMNE08.jpg,AMSA04.jpg,MS,2,num_8,32,num_2,1.0000740909,,,2017_Nov_15_1626,60.008372566,FEMA4ImagesEEG,001,102400,
AFNE01.JPG,AFNE01.JPG,AFNE01.JPG,AFNE01.JPG,AFNE01.JPG,AFNE01.JPG,,,,,1,6,16,8,,,,,,,,,,,,,,,,,,,AMSA03.jpg,AMNE15.jpg,AMNE06.jpg,AMSA16.jpg,AMSA16.jpg,MS,2,num_4,32,num_8,4.06679688673,,,2017_Nov_15_1626,60.008372566,FEMA4ImagesEEG,001,102400,
AFNE01.JPG,AFNE01.JPG,AFNE01.JPG,AFNE01.JPG,AFNE01.JPG,AFNE01.JPG,,,,,1,7,17,5,,,,,,,,,,,,,,,,,,,AMNE07.jpg,AMNE14.jpg,AMSA04.jpg,AMSA06.jpg,AMNE07.jpg,MN,1,num_8,32,num_2,3.19994002162,,,2017_Nov_15_1626,60.008372566,FEMA4ImagesEEG,001,102400,
AFNE01.JPG,AFNE01.JPG,AFNE01.JPG,AFNE01.JPG,AFNE01.JPG,AFNE01.JPG,,,,,1,8,18,1,,,,,,,,,,,,,,,,,,,AMSA16.jpg,AMSA20.jpg,AMNE03.jpg,AMNE05.jpg,AMSA16.jpg,MS,2,num_8,16,num_8,1.18331096182,,,2017_Nov_15_1626,60.008372566,FEMA4ImagesEEG,001,102400,
AFNE01.JPG,AFNE01.JPG,AFNE01.JPG,AFNE01.JPG,AFNE01.JPG,AFNE01.JPG,,,,,1,9,19,9,,,,,,,,,,,,,,,,,,,AMSA02.jpg,AMSA06.jpg,AMNE03.jpg,AMNE01.jpg,AMNE01.jpg,MN,1,num_4,16,num_4,3.38325322839,,,2017_Nov_15_1626,60.008372566,FEMA4ImagesEEG,001,102400,
AFNE01.JPG,AFNE01.JPG,AFNE01.JPG,AFNE01.JPG,AFNE01.JPG,AFNE01.JPG,,,,,2,0,20,6,,,,,,,,,,,,,,,,,,,AMSA19.jpg,AMSA08.jpg,AMNE18.jpg,AMNE09.jpg,AMNE18.jpg,MN,1,num_2,32,num_6,1.9833340547,,,2017_Nov_15_1626,60.008372566,FEMA4ImagesEEG,001,102400,
AFNE01.JPG,AFNE01.JPG,AFNE01.JPG,AFNE01.JPG,AFNE01.JPG,AFNE01.JPG,,,,,2,1,21,7,,,,,,,,,,,,,,,,,,,AMNE14.jpg,AMSA14.jpg,AMSA03.jpg,AMNE12.jpg,AMSA03.jpg,MS,2,num_2,32,num_4,1.68346283212,,,2017_Nov_15_1626,60.008372566,FEMA4ImagesEEG,001,102400,
AFNE01.JPG,AFNE01.JPG,AFNE01.JPG,AFNE01.JPG,AFNE01.JPG,AFNE01.JPG,,,,,2,2,22,1,,,,,,,,,,,,,,,,,,,AMNE14.jpg,AMSA07.jpg,AMNE13.jpg,AMSA08.jpg,AMSA07.jpg,MS,2,num_6,16,num_6,1.34976898739,,,2017_Nov_15_1626,60.008372566,FEMA4ImagesEEG,001,102400,
AFNE01.JPG,AFNE01.JPG,AFNE01.JPG,AFNE01.JPG,AFNE01.JPG,AFNE01.JPG,,,,,2,3,23,3,,,,,,,,,,,,,,,,,,,AMSA16.jpg,AMNE16.jpg,AMSA19.jpg,AMNE03.jpg,AMNE03.jpg,MN,1,num_4,16,num_4,0.533447195776,,,2017_Nov_15_1626,60.008372566,FEMA4ImagesEEG,001,102400,
AFNE01.JPG,AFNE01.JPG,AFNE01.JPG,AFNE01.JPG,AFNE01.JPG,AFNE01.JPG,,,,,2,4,24,2,,,,,,,,,,,,,,,,,,,AMSA07.jpg,AMSA09.jpg,AMNE06.jpg,AMNE03.jpg,AMSA09.jpg,MS,2,num_6,16,num_6,0.400162614882,,,2017_Nov_15_1626,60.008372566,FEMA4ImagesEEG,001,102400,
AFNE01.JPG,AFNE01.JPG,AFNE01.JPG,AFNE01.JPG,AFNE01.JPG,AFNE01.JPG,,,,,2,5,25,4,,,,,,,,,,,,,,,,,,,AMNE12.jpg,AMSA17.jpg,AMNE14.jpg,AMSA09.jpg,AMNE12.jpg,MN,1,num_8,16,num_8,0.450209202711,,,2017_Nov_15_1626,60.008372566,FEMA4ImagesEEG,001,102400,
AFNE01.JPG,AFNE01.JPG,AFNE01.JPG,AFNE01.JPG,AFNE01.JPG,AFNE01.JPG,,,,,2,6,26,0,,,,,,,,,,,,,,,,,,,AMNE19.jpg,AMNE03.jpg,AMSA06.jpg,AMSA20.jpg,AMNE03.jpg,MN,1,num_6,32,num_2,0.383498273324,,,2017_Nov_15_1626,60.008372566,FEMA4ImagesEEG,001,102400,
AFNE01.JPG,AFNE01.JPG,AFNE01.JPG,AFNE01.JPG,AFNE01.JPG,AFNE01.JPG,,,,,2,7,27,9,,,,,,,,,,,,,,,,,,,AMNE17.jpg,AMSA12.jpg,AMNE06.jpg,AMSA03.jpg,AMSA12.jpg,MS,2,num_6,32,num_8,1.06675166264,,,2017_Nov_15_1626,60.008372566,FEMA4ImagesEEG,001,102400,
AFNE01.JPG,AFNE01.JPG,AFNE01.JPG,AFNE01.JPG,AFNE01.JPG,AFNE01.JPG,,,,,2,8,28,8,,,,,,,,,,,,,,,,,,,AMNE13.jpg,AMSA10.jpg,AMNE18.jpg,AMSA01.jpg,AMNE13.jpg,MN,1,num_8,32,num_4,0.68351094285,,,2017_Nov_15_1626,60.008372566,FEMA4ImagesEEG,001,102400,
AFNE01.JPG,AFNE01.JPG,AFNE01.JPG,AFNE01.JPG,AFNE01.JPG,AFNE01.JPG,,,,,2,9,29,5,,,,,,,,,,,,,,,,,,,AMSA06.jpg,AMNE18.jpg,AMNE17.jpg,AMSA01.jpg,AMNE17.jpg,MN,1,num_2,32,num_6,0.666448242962,,,2017_Nov_15_1626,60.008372566,FEMA4ImagesEEG,001,102400,
AFNE01.JPG,AFNE01.JPG,AFNE01.JPG,AFNE01.JPG,AFNE01.JPG,AFNE01.JPG,,,,,3,0,30,7,,,,,,,,,,,,,,,,,,,AMSA04.jpg,AMSA05.jpg,AMNE07.jpg,AMNE11.jpg,AMNE11.jpg,MN,1,num_4,16,num_4,0.800145615824,,,2017_Nov_15_1626,60.008372566,FEMA4ImagesEEG,001,102400,
AFNE01.JPG,AFNE01.JPG,AFNE01.JPG,AFNE01.JPG,AFNE01.JPG,AFNE01.JPG,,,,,3,1,31,8,,,,,,,,,,,,,,,,,,,AMNE09.jpg,AMSA09.jpg,AMSA12.jpg,AMNE08.jpg,AMNE09.jpg,MN,1,num_8,32,num_6,1.55006663362,,,2017_Nov_15_1626,60.008372566,FEMA4ImagesEEG,001,102400,
AFNE01.JPG,AFNE01.JPG,AFNE01.JPG,AFNE01.JPG,AFNE01.JPG,AFNE01.JPG,,,,,3,2,32,6,,,,,,,,,,,,,,,,,,,AMSA05.jpg,AMNE17.jpg,AMSA10.jpg,AMNE18.jpg,AMNE18.jpg,MN,1,num_4,16,num_4,1.38353804545,,,2017_Nov_15_1626,60.008372566,FEMA4ImagesEEG,001,102400,
AFNE01.JPG,AFNE01.JPG,AFNE01.JPG,AFNE01.JPG,AFNE01.JPG,AFNE01.JPG,,,,,3,3,33,4,,,,,,,,,,,,,,,,,,,AMSA11.jpg,AMNE08.jpg,AMNE06.jpg,AMSA10.jpg,AMNE06.jpg,MN,1,num_2,16,num_2,3.6331176362,,,2017_Nov_15_1626,60.008372566,FEMA4ImagesEEG,001,102400,
AFNE01.JPG,AFNE01.JPG,AFNE01.JPG,AFNE01.JPG,AFNE01.JPG,AFNE01.JPG,,,,,3,4,34,1,,,,,,,,,,,,,,,,,,,AMSA10.jpg,AMNE17.jpg,AMSA12.jpg,AMNE03.jpg,AMSA10.jpg,MS,2,num_8,16,num_8,0.983473255765,,,2017_Nov_15_1626,60.008372566,FEMA4ImagesEEG,001,102400,
AFNE01.JPG,AFNE01.JPG,AFNE01.JPG,AFNE01.JPG,AFNE01.JPG,AFNE01.JPG,,,,,3,5,35,0,,,,,,,,,,,,,,,,,,,AMNE03.jpg,AMSA01.jpg,AMNE18.jpg,AMSA04.jpg,AMSA01.jpg,MS,2,num_6,16,num_6,0.616722715553,,,2017_Nov_15_1626,60.008372566,FEMA4ImagesEEG,001,102400,
AFNE01.JPG,AFNE01.JPG,AFNE01.JPG,AFNE01.JPG,AFNE01.JPG,AFNE01.JPG,,,,,3,6,36,2,,,,,,,,,,,,,,,,,,,AMSA04.jpg,AMNE20.jpg,AMSA11.jpg,AMNE12.jpg,AMSA11.jpg,MS,2,num_2,48,None,,,,2017_Nov_15_1626,60.008372566,FEMA4ImagesEEG,001,102400,
AFNE01.JPG,AFNE01.JPG,AFNE01.JPG,AFNE01.JPG,AFNE01.JPG,AFNE01.JPG,,,,,3,7,37,5,,,,,,,,,,,,,,,,,,,AMSA03.jpg,AMNE11.jpg,AMNE15.jpg,AMSA20.jpg,AMSA03.jpg,MS,2,num_8,32,num_4,1.31681364588,,,2017_Nov_15_1626,60.008372566,FEMA4ImagesEEG,001,102400,
AFNE01.JPG,AFNE01.JPG,AFNE01.JPG,AFNE01.JPG,AFNE01.JPG,AFNE01.JPG,,,,,3,8,38,3,,,,,,,,,,,,,,,,,,,AMSA09.jpg,AMNE09.jpg,AMSA10.jpg,AMNE08.jpg,AMNE08.jpg,MN,1,num_4,32,num_6,2.28339611785,,,2017_Nov_15_1626,60.008372566,FEMA4ImagesEEG,001,102400,
AFNE01.JPG,AFNE01.JPG,AFNE01.JPG,AFNE01.JPG,AFNE01.JPG,AFNE01.JPG,,,,,3,9,39,9,,,,,,,,,,,,,,,,,,,AMNE10.jpg,AMSA13.jpg,AMNE12.jpg,AMSA14.jpg,AMSA14.jpg,MS,2,num_4,32,num_2,2.6499487618,,,2017_Nov_15_1626,60.008372566,FEMA4ImagesEEG,001,102400,
AFNE01.JPG,AFNE01.JPG,AFNE01.JPG,AFNE01.JPG,AFNE01.JPG,AFNE01.JPG,,,,,4,0,40,7,,,,,,,,,,,,,,,,,,,AMNE05.jpg,AMSA14.jpg,AMSA01.jpg,AMNE19.jpg,AMSA14.jpg,MS,2,num_6,16,num_6,0.733509739861,,,2017_Nov_15_1626,60.008372566,FEMA4ImagesEEG,001,102400,
AFNE01.JPG,AFNE01.JPG,AFNE01.JPG,AFNE01.JPG,AFNE01.JPG,AFNE01.JPG,,,,,4,1,41,0,,,,,,,,,,,,,,,,,,,AMSA20.jpg,AMSA02.jpg,AMNE07.jpg,AMNE11.jpg,AMNE07.jpg,MN,1,num_2,32,num_6,1.18344118213,,,2017_Nov_15_1626,60.008372566,FEMA4ImagesEEG,001,102400,
AFNE01.JPG,AFNE01.JPG,AFNE01.JPG,AFNE01.JPG,AFNE01.JPG,AFNE01.JPG,,,,,4,2,42,9,,,,,,,,,,,,,,,,,,,AMSA13.jpg,AMSA01.jpg,AMNE17.jpg,AMNE11.jpg,AMNE17.jpg,MN,1,num_2,16,num_2,1.08347085072,,,2017_Nov_15_1626,60.008372566,FEMA4ImagesEEG,001,102400,
AFNE01.JPG,AFNE01.JPG,AFNE01.JPG,AFNE01.JPG,AFNE01.JPG,AFNE01.JPG,,,,,4,3,43,6,,,,,,,,,,,,,,,,,,,AMNE07.jpg,AMSA17.jpg,AMNE06.jpg,AMSA10.jpg,AMSA10.jpg,MS,2,num_4,16,num_4,1.35008876445,,,2017_Nov_15_1626,60.008372566,FEMA4ImagesEEG,001,102400,
AFNE01.JPG,AFNE01.JPG,AFNE01.JPG,AFNE01.JPG,AFNE01.JPG,AFNE01.JPG,,,,,4,4,44,2,,,,,,,,,,,,,,,,,,,AMNE17.jpg,AMSA16.jpg,AMNE08.jpg,AMSA01.jpg,AMNE08.jpg,MN,1,num_2,32,num_8,1.33344238484,,,2017_Nov_15_1626,60.008372566,FEMA4ImagesEEG,001,102400,
AFNE01.JPG,AFNE01.JPG,AFNE01.JPG,AFNE01.JPG,AFNE01.JPG,AFNE01.JPG,,,,,4,5,45,5,,,,,,,,,,,,,,,,,,,AMSA09.jpg,AMSA16.jpg,AMNE17.jpg,AMNE10.jpg,AMNE17.jpg,MN,1,num_2,32,num_6,0.999995188788,,,2017_Nov_15_1626,60.008372566,FEMA4ImagesEEG,001,102400,
AFNE01.JPG,AFNE01.JPG,AFNE01.JPG,AFNE01.JPG,AFNE01.JPG,AFNE01.JPG,,,,,4,6,46,4,,,,,,,,,,,,,,,,,,,AMSA18.jpg,AMNE16.jpg,AMSA12.jpg,AMNE15.jpg,AMNE16.jpg,MN,1,num_6,32,num_4,1.31674596947,,,2017_Nov_15_1626,60.008372566,FEMA4ImagesEEG,001,102400,
AFNE01.JPG,AFNE01.JPG,AFNE01.JPG,AFNE01.JPG,AFNE01.JPG,AFNE01.JPG,,,,,4,7,47,1,,,,,,,,,,,,,,,,,,,AMSA08.jpg,AMNE10.jpg,AMSA02.jpg,AMNE09.jpg,AMSA02.jpg,MS,2,num_2,32,num_8,1.26675871899,,,2017_Nov_15_1626,60.008372566,FEMA4ImagesEEG,001,102400,
AFNE01.JPG,AFNE01.JPG,AFNE01.JPG,AFNE01.JPG,AFNE01.JPG,AFNE01.JPG,,,,,4,8,48,3,,,,,,,,,,,,,,,,,,,AMSA11.jpg,AMNE07.jpg,AMNE06.jpg,AMSA08.jpg,AMSA08.jpg,MS,2,num_4,32,num_6,0.80018987786,,,2017_Nov_15_1626,60.008372566,FEMA4ImagesEEG,001,102400,
AFNE01.JPG,AFNE01.JPG,AFNE01.JPG,AFNE01.JPG,AFNE01.JPG,AFNE01.JPG,,,,,4,9,49,8,,,,,,,,,,,,,,,,,,,AMSA04.jpg,AMNE15.jpg,AMSA17.jpg,AMNE20.jpg,AMSA17.jpg,MS,2,num_2,32,num_6,4.3331986228,,,2017_Nov_15_1626,60.008372566,FEMA4ImagesEEG,001,102400,
AFNE01.JPG,AFNE01.JPG,AFNE01.JPG,AFNE01.JPG,AFNE01.JPG,AFNE01.JPG,,,,,5,0,50,9,,,,,,,,,,,,,,,,,,,AMNE16.jpg,AMNE07.jpg,AMSA18.jpg,AMSA04.jpg,AMSA18.jpg,MS,2,num_2,32,num_4,0.816774996463,,,2017_Nov_15_1626,60.008372566,FEMA4ImagesEEG,001,102400,
AFNE01.JPG,AFNE01.JPG,AFNE01.JPG,AFNE01.JPG,AFNE01.JPG,AFNE01.JPG,,,,,5,1,51,1,,,,,,,,,,,,,,,,,,,AMSA12.jpg,AMNE07.jpg,AMSA15.jpg,AMNE18.jpg,AMNE18.jpg,MN,1,num_4,32,num_6,0.533518079203,,,2017_Nov_15_1626,60.008372566,FEMA4ImagesEEG,001,102400,
AFNE01.JPG,AFNE01.JPG,AFNE01.JPG,AFNE01.JPG,AFNE01.JPG,AFNE01.JPG,,,,,5,2,52,8,,,,,,,,,,,,,,,,,,,AMSA16.jpg,AMSA09.jpg,AMNE03.jpg,AMNE18.jpg,AMSA16.jpg,MS,2,num_8,16,num_8,1.41674388433,,,2017_Nov_15_1626,60.008372566,FEMA4ImagesEEG,001,102400,
AFNE01.JPG,AFNE01.JPG,AFNE01.JPG,AFNE01.JPG,AFNE01.JPG,AFNE01.JPG,,,,,5,3,53,2,,,,,,,,,,,,,,,,,,,AMSA09.jpg,AMNE16.jpg,AMSA20.jpg,AMNE18.jpg,AMNE18.jpg,MN,1,num_4,16,num_4,2.41662104148,,,2017_Nov_15_1626,60.008372566,FEMA4ImagesEEG,001,102400,
AFNE01.JPG,AFNE01.JPG,AFNE01.JPG,AFNE01.JPG,AFNE01.JPG,AFNE01.JPG,,,,,5,4,54,7,,,,,,,,,,,,,,,,,,,AMNE17.jpg,AMSA02.jpg,AMSA06.jpg,AMNE12.jpg,AMSA02.jpg,MS,2,num_6,32,num_8,3.01663579559,,,2017_Nov_15_1626,60.008372566,FEMA4ImagesEEG,001,102400,
AFNE01.JPG,AFNE01.JPG,AFNE01.JPG,AFNE01.JPG,AFNE01.JPG,AFNE01.JPG,,,,,5,5,55,0,,,,,,,,,,,,,,,,,,,AMNE19.jpg,AMSA09.jpg,AMNE15.jpg,AMSA08.jpg,AMNE19.jpg,MN,1,num_8,32,num_6,0.76708635455,,,2017_Nov_15_1626,60.008372566,FEMA4ImagesEEG,001,102400,
AFNE01.JPG,AFNE01.JPG,AFNE01.JPG,AFNE01.JPG,AFNE01.JPG,AFNE01.JPG,,,,,5,6,56,3,,,,,,,,,,,,,,,,,,,AMNE10.jpg,AMSA04.jpg,AMSA07.jpg,AMNE06.jpg,AMNE06.jpg,MN,1,num_4,16,num_4,0.816782052629,,,2017_Nov_15_1626,60.008372566,FEMA4ImagesEEG,001,102400,
AFNE01.JPG,AFNE01.JPG,AFNE01.JPG,AFNE01.JPG,AFNE01.JPG,AFNE01.JPG,,,,,5,7,57,6,,,,,,,,,,,,,,,,,,,AMNE09.jpg,AMSA04.jpg,AMNE01.jpg,AMSA18.jpg,AMSA04.jpg,MS,2,num_6,32,num_2,1.46674107807,,,2017_Nov_15_1626,60.008372566,FEMA4ImagesEEG,001,102400,
AFNE01.JPG,AFNE01.JPG,AFNE01.JPG,AFNE01.JPG,AFNE01.JPG,AFNE01.JPG,,,,,5,8,58,5,,,,,,,,,,,,,,,,,,,AMNE14.jpg,AMNE11.jpg,AMSA09.jpg,AMSA15.jpg,AMNE14.jpg,MN,1,num_8,32,num_4,0.800162936095,,,2017_Nov_15_1626,60.008372566,FEMA4ImagesEEG,001,102400,
AFNE01.JPG,AFNE01.JPG,AFNE01.JPG,AFNE01.JPG,AFNE01.JPG,AFNE01.JPG,,,,,5,9,59,4,,,,,,,,,,,,,,,,,,,AMNE04.jpg,AMNE13.jpg,AMSA01.jpg,AMSA03.jpg,AMSA01.jpg,MS,2,num_2,32,num_4,0.833473015577,,,2017_Nov_15_1626,60.008372566,FEMA4ImagesEEG,001,102400,
,,,,,,,,,,,,,,,,,,,,,,,,,,,,,,,,,,,,,,,,,,,space,14.465666601,2017_Nov_15_1626,60.008372566,FEMA4ImagesEEG,001,102400,
AFNE01.JPG,AFNE01.JPG,AFNE01.JPG,AFNE01.JPG,AFNE01.JPG,AFNE01.JPG,,,,,,,,,0,0,0,1,,,,,,,,,,,,,,,AFSA04.jpg,AFNE11.jpg,AFNE12.jpg,AFSA20.jpg,AFSA04.jpg,FS,4,num_8,32,num_6,0.7501618932,,,2017_Nov_15_1626,60.008372566,FEMA4ImagesEEG,001,102400,
AFNE01.JPG,AFNE01.JPG,AFNE01.JPG,AFNE01.JPG,AFNE01.JPG,AFNE01.JPG,,,,,,,,,0,1,1,5,,,,,,,,,,,,,,,AFNE12.jpg,AFNE17.jpg,AFSA14.jpg,AFSA07.jpg,AFNE12.jpg,FN,3,num_8,16,num_8,0.983549270779,,,2017_Nov_15_1626,60.008372566,FEMA4ImagesEEG,001,102400,
AFNE01.JPG,AFNE01.JPG,AFNE01.JPG,AFNE01.JPG,AFNE01.JPG,AFNE01.JPG,,,,,,,,,0,2,2,4,,,,,,,,,,,,,,,AFSA02.jpg,AFNE02.jpg,AFNE04.jpg,AFSA04.jpg,AFNE04.jpg,FN,3,num_2,16,num_2,0.950122121722,,,2017_Nov_15_1626,60.008372566,FEMA4ImagesEEG,001,102400,
AFNE01.JPG,AFNE01.JPG,AFNE01.JPG,AFNE01.JPG,AFNE01.JPG,AFNE01.JPG,,,,,,,,,0,3,3,8,,,,,,,,,,,,,,,AFSA17.jpg,AFNE15.jpg,AFNE19.jpg,AFSA20.jpg,AFSA20.jpg,FS,4,num_4,16,num_4,0.533500438556,,,2017_Nov_15_1626,60.008372566,FEMA4ImagesEEG,001,102400,
AFNE01.JPG,AFNE01.JPG,AFNE01.JPG,AFNE01.JPG,AFNE01.JPG,AFNE01.JPG,,,,,,,,,0,4,4,3,,,,,,,,,,,,,,,AFNE18.jpg,AFSA19.jpg,AFNE07.jpg,AFSA12.jpg,AFNE07.jpg,FN,3,num_2,16,num_2,1.46676032245,,,2017_Nov_15_1626,60.008372566,FEMA4ImagesEEG,001,102400,
AFNE01.JPG,AFNE01.JPG,AFNE01.JPG,AFNE01.JPG,AFNE01.JPG,AFNE01.JPG,,,,,,,,,0,5,5,0,,,,,,,,,,,,,,,AFNE04.jpg,AFSA01.jpg,AFSA09.jpg,AFNE12.jpg,AFSA09.jpg,FS,4,num_2,32,num_6,1.08347052988,,,2017_Nov_15_1626,60.008372566,FEMA4ImagesEEG,001,102400,
AFNE01.JPG,AFNE01.JPG,AFNE01.JPG,AFNE01.JPG,AFNE01.JPG,AFNE01.JPG,,,,,,,,,0,6,6,7,,,,,,,,,,,,,,,AFNE14.jpg,AFNE02.jpg,AFSA19.jpg,AFSA20.jpg,AFNE02.jpg,FN,3,num_6,16,num_6,1.21676601609,,,2017_Nov_15_1626,60.008372566,FEMA4ImagesEEG,001,102400,
AFNE01.JPG,AFNE01.JPG,AFNE01.JPG,AFNE01.JPG,AFNE01.JPG,AFNE01.JPG,,,,,,,,,0,7,7,9,,,,,,,,,,,,,,,AFNE02.jpg,AFSA11.jpg,AFSA16.jpg,AFNE06.jpg,AFNE02.jpg,FN,3,num_8,32,num_6,1.88336789282,,,2017_Nov_15_1626,60.008372566,FEMA4ImagesEEG,001,102400,
AFNE01.JPG,AFNE01.JPG,AFNE01.JPG,AFNE01.JPG,AFNE01.JPG,AFNE01.JPG,,,,,,,,,0,8,8,2,,,,,,,,,,,,,,,AFNE20.jpg,AFSA07.jpg,AFSA19.jpg,AFNE09.jpg,AFSA19.jpg,FS,4,num_2,32,num_8,1.33344366774,,,2017_Nov_15_1626,60.008372566,FEMA4ImagesEEG,001,102400,
AFNE01.JPG,AFNE01.JPG,AFNE01.JPG,AFNE01.JPG,AFNE01.JPG,AFNE01.JPG,,,,,,,,,0,9,9,6,,,,,,,,,,,,,,,AFSA13.jpg,AFNE07.jpg,AFNE17.jpg,AFSA20.jpg,AFSA13.jpg,FS,4,num_8,32,num_2,1.05010624509,,,2017_Nov_15_1626,60.008372566,FEMA4ImagesEEG,001,102400,
AFNE01.JPG,AFNE01.JPG,AFNE01.JPG,AFNE01.JPG,AFNE01.JPG,AFNE01.JPG,,,,,,,,,1,0,10,0,,,,,,,,,,,,,,,AFNE16.jpg,AFSA05.jpg,AFSA17.jpg,AFNE13.jpg,AFNE13.jpg,FN,3,num_4,32,num_8,0.800135993399,,,2017_Nov_15_1626,60.008372566,FEMA4ImagesEEG,001,102400,
AFNE01.JPG,AFNE01.JPG,AFNE01.JPG,AFNE01.JPG,AFNE01.JPG,AFNE01.JPG,,,,,,,,,1,1,11,3,,,,,,,,,,,,,,,AFSA07.jpg,AFSA18.jpg,AFNE11.jpg,AFNE05.jpg,AFNE05.jpg,FN,3,num_4,32,num_2,1.26676352974,,,2017_Nov_15_1626,60.008372566,FEMA4ImagesEEG,001,102400,
AFNE01.JPG,AFNE01.JPG,AFNE01.JPG,AFNE01.JPG,AFNE01.JPG,AFNE01.JPG,,,,,,,,,1,2,12,5,,,,,,,,,,,,,,,AFNE20.jpg,AFSA02.jpg,AFSA11.jpg,AFNE10.jpg,AFNE10.jpg,FN,3,num_4,32,num_8,1.23345729942,,,2017_Nov_15_1626,60.008372566,FEMA4ImagesEEG,001,102400,
AFNE01.JPG,AFNE01.JPG,AFNE01.JPG,AFNE01.JPG,AFNE01.JPG,AFNE01.JPG,,,,,,,,,1,3,13,6,,,,,,,,,,,,,,,AFNE20.jpg,AFSA10.jpg,AFNE12.jpg,AFSA07.jpg,AFNE12.jpg,FN,3,num_2,16,num_2,0.816843313631,,,2017_Nov_15_1626,60.008372566,FEMA4ImagesEEG,001,102400,
AFNE01.JPG,AFNE01.JPG,AFNE01.JPG,AFNE01.JPG,AFNE01.JPG,AFNE01.JPG,,,,,,,,,1,4,14,4,,,,,,,,,,,,,,,AFSA09.jpg,AFSA17.jpg,AFNE17.jpg,AFNE02.jpg,AFSA17.jpg,FS,4,num_6,32,num_8,3.36652345676,,,2017_Nov_15_1626,60.008372566,FEMA4ImagesEEG,001,102400,
AFNE01.JPG,AFNE01.JPG,AFNE01.JPG,AFNE01.JPG,AFNE01.JPG,AFNE01.JPG,,,,,,,,,1,5,15,9,,,,,,,,,,,,,,,AFSA01.jpg,AFSA14.jpg,AFNE02.jpg,AFNE03.jpg,AFNE02.jpg,FN,3,num_2,32,num_4,2.69999342505,,,2017_Nov_15_1626,60.008372566,FEMA4ImagesEEG,001,102400,
AFNE01.JPG,AFNE01.JPG,AFNE01.JPG,AFNE01.JPG,AFNE01.JPG,AFNE01.JPG,,,,,,,,,1,6,16,2,,,,,,,,,,,,,,,AFNE09.jpg,AFNE17.jpg,AFSA08.jpg,AFSA12.jpg,AFSA08.jpg,FS,4,num_2,32,num_8,1.23349707061,,,2017_Nov_15_1626,60.008372566,FEMA4ImagesEEG,001,102400,
AFNE01.JPG,AFNE01.JPG,AFNE01.JPG,AFNE01.JPG,AFNE01.JPG,AFNE01.JPG,,,,,,,,,1,7,17,8,,,,,,,,,,,,,,,AFSA08.jpg,AFNE06.jpg,AFSA02.jpg,AFNE02.jpg,AFSA08.jpg,FS,4,num_8,32,num_2,1.18349121744,,,2017_Nov_15_1626,60.008372566,FEMA4ImagesEEG,001,102400,
AFNE01.JPG,AFNE01.JPG,AFNE01.JPG,AFNE01.JPG,AFNE01.JPG,AFNE01.JPG,,,,,,,,,1,8,18,1,,,,,,,,,,,,,,,AFSA11.jpg,AFNE04.jpg,AFNE17.jpg,AFSA01.jpg,AFNE04.jpg,FN,3,num_6,32,num_8,3.49993697461,,,2017_Nov_15_1626,60.008372566,FEMA4ImagesEEG,001,102400,
AFNE01.JPG,AFNE01.JPG,AFNE01.JPG,AFNE01.JPG,AFNE01.JPG,AFNE01.JPG,,,,,,,,,1,9,19,7,,,,,,,,,,,,,,,AFNE16.jpg,AFNE01.jpg,AFSA07.jpg,AFSA12.jpg,AFSA12.jpg,FS,4,num_4,32,num_6,2.11666835053,,,2017_Nov_15_1626,60.008372566,FEMA4ImagesEEG,001,102400,
AFNE01.JPG,AFNE01.JPG,AFNE01.JPG,AFNE01.JPG,AFNE01.JPG,AFNE01.JPG,,,,,,,,,2,0,20,8,,,,,,,,,,,,,,,AFSA06.jpg,AFNE05.jpg,AFNE01.jpg,AFSA18.jpg,AFNE05.jpg,FN,3,num_6,32,num_4,1.10006206343,,,2017_Nov_15_1626,60.008372566,FEMA4ImagesEEG,001,102400,
AFNE01.JPG,AFNE01.JPG,AFNE01.JPG,AFNE01.JPG,AFNE01.JPG,AFNE01.JPG,,,,,,,,,2,1,21,3,,,,,,,,,,,,,,,AFSA07.jpg,AFNE04.jpg,AFNE17.jpg,AFSA05.jpg,AFNE04.jpg,FN,3,num_6,32,num_8,0.86677090684,,,2017_Nov_15_1626,60.008372566,FEMA4ImagesEEG,001,102400,
AFNE01.JPG,AFNE01.JPG,AFNE01.JPG,AFNE01.JPG,AFNE01.JPG,AFNE01.JPG,,,,,,,,,2,2,22,2,,,,,,,,,,,,,,,AFNE13.jpg,AFSA06.jpg,AFSA14.jpg,AFNE05.jpg,AFNE13.jpg,FN,3,num_8,16,num_8,2.28368991567,,,2017_Nov_15_1626,60.008372566,FEMA4ImagesEEG,001,102400,
AFNE01.JPG,AFNE01.JPG,AFNE01.JPG,AFNE01.JPG,AFNE01.JPG,AFNE01.JPG,,,,,,,,,2,3,23,6,,,,,,,,,,,,,,,AFSA10.jpg,AFNE17.jpg,AFSA15.jpg,AFNE16.jpg,AFNE17.jpg,FN,3,num_6,16,num_6,1.15022764448,,,2017_Nov_15_1626,60.008372566,FEMA4ImagesEEG,001,102400,
AFNE01.JPG,AFNE01.JPG,AFNE01.JPG,AFNE01.JPG,AFNE01.JPG,AFNE01.JPG,,,,,,,,,2,4,24,9,,,,,,,,,,,,,,,AFNE06.jpg,AFNE13.jpg,AFSA12.jpg,AFSA05.jpg,AFNE06.jpg,FN,3,num_8,16,num_8,3.54993320582,,,2017_Nov_15_1626,60.008372566,FEMA4ImagesEEG,001,102400,
AFNE01.JPG,AFNE01.JPG,AFNE01.JPG,AFNE01.JPG,AFNE01.JPG,AFNE01.JPG,,,,,,,,,2,5,25,0,,,,,,,,,,,,,,,AFNE12.jpg,AFSA10.jpg,AFSA02.jpg,AFNE15.jpg,AFSA02.jpg,FS,4,num_2,16,num_2,1.46674781339,,,2017_Nov_15_1626,60.008372566,FEMA4ImagesEEG,001,102400,
AFNE01.JPG,AFNE01.JPG,AFNE01.JPG,AFNE01.JPG,AFNE01.JPG,AFNE01.JPG,,,,,,,,,2,6,26,4,,,,,,,,,,,,,,,AFSA05.jpg,AFNE07.jpg,AFSA16.jpg,AFNE08.jpg,AFNE07.jpg,FN,3,num_6,16,num_6,1.01676152553,,,2017_Nov_15_1626,60.008372566,FEMA4ImagesEEG,001,102400,
AFNE01.JPG,AFNE01.JPG,AFNE01.JPG,AFNE01.JPG,AFNE01.JPG,AFNE01.JPG,,,,,,,,,2,7,27,7,,,,,,,,,,,,,,,AFNE11.jpg,AFSA07.jpg,AFSA14.jpg,AFNE01.jpg,AFNE11.jpg,FN,3,num_8,32,num_4,1.0501235649,,,2017_Nov_15_1626,60.008372566,FEMA4ImagesEEG,001,102400,
AFNE01.JPG,AFNE01.JPG,AFNE01.JPG,AFNE01.JPG,AFNE01.JPG,AFNE01.JPG,,,,,,,,,2,8,28,5,,,,,,,,,,,,,,,AFNE13.jpg,AFSA19.jpg,AFSA06.jpg,AFNE15.jpg,AFNE15.jpg,FN,3,num_4,16,num_4,2.63336845441,,,2017_Nov_15_1626,60.008372566,FEMA4ImagesEEG,001,102400,
AFNE01.JPG,AFNE01.JPG,AFNE01.JPG,AFNE01.JPG,AFNE01.JPG,AFNE01.JPG,,,,,,,,,2,9,29,1,,,,,,,,,,,,,,,AFSA04.jpg,AFNE18.jpg,AFNE08.jpg,AFSA06.jpg,AFNE08.jpg,FN,3,num_2,32,num_8,1.58352297032,,,2017_Nov_15_1626,60.008372566,FEMA4ImagesEEG,001,102400,
AFNE01.JPG,AFNE01.JPG,AFNE01.JPG,AFNE01.JPG,AFNE01.JPG,AFNE01.JPG,,,,,,,,,3,0,30,4,,,,,,,,,,,,,,,AFNE13.jpg,AFNE17.jpg,AFSA06.jpg,AFSA05.jpg,AFSA05.jpg,FS,4,num_4,32,num_2,1.43342811195,,,2017_Nov_15_1626,60.008372566,FEMA4ImagesEEG,001,102400,
AFNE01.JPG,AFNE01.JPG,AFNE01.JPG,AFNE01.JPG,AFNE01.JPG,AFNE01.JPG,,,,,,,,,3,1,31,8,,,,,,,,,,,,,,,AFNE03.jpg,AFSA06.jpg,AFNE15.jpg,AFSA17.jpg,AFNE15.jpg,FN,3,num_2,32,num_8,1.10009894799,,,2017_Nov_15_1626,60.008372566,FEMA4ImagesEEG,001,102400,
AFNE01.JPG,AFNE01.JPG,AFNE01.JPG,AFNE01.JPG,AFNE01.JPG,AFNE01.JPG,,,,,,,,,3,2,32,6,,,,,,,,,,,,,,,AFSA11.jpg,AFSA03.jpg,AFNE05.jpg,AFNE02.jpg,AFSA03.jpg,FS,4,num_6,48,None,,,,2017_Nov_15_1626,60.008372566,FEMA4ImagesEEG,001,102400,
AFNE01.JPG,AFNE01.JPG,AFNE01.JPG,AFNE01.JPG,AFNE01.JPG,AFNE01.JPG,,,,,,,,,3,3,33,9,,,,,,,,,,,,,,,AFNE05.jpg,AFSA08.jpg,AFSA20.jpg,AFNE15.jpg,AFSA08.jpg,FS,4,num_6,32,num_4,4.28326333174,,,2017_Nov_15_1626,60.008372566,FEMA4ImagesEEG,001,102400,
AFNE01.JPG,AFNE01.JPG,AFNE01.JPG,AFNE01.JPG,AFNE01.JPG,AFNE01.JPG,,,,,,,,,3,4,34,7,,,,,,,,,,,,,,,AFSA01.jpg,AFSA19.jpg,AFNE08.jpg,AFNE03.jpg,AFNE03.jpg,FN,3,num_4,32,num_8,0.783461388666,,,2017_Nov_15_1626,60.008372566,FEMA4ImagesEEG,001,102400,
AFNE01.JPG,AFNE01.JPG,AFNE01.JPG,AFNE01.JPG,AFNE01.JPG,AFNE01.JPG,,,,,,,,,3,5,35,2,,,,,,,,,,,,,,,AFSA02.jpg,AFNE08.jpg,AFNE12.jpg,AFSA08.jpg,AFNE08.jpg,FN,3,num_6,16,num_6,1.35015579918,,,2017_Nov_15_1626,60.008372566,FEMA4ImagesEEG,001,102400,
AFNE01.JPG,AFNE01.JPG,AFNE01.JPG,AFNE01.JPG,AFNE01.JPG,AFNE01.JPG,,,,,,,,,3,6,36,5,,,,,,,,,,,,,,,AFSA13.jpg,AFSA14.jpg,AFNE13.jpg,AFNE08.jpg,AFSA13.jpg,FS,4,num_8,32,num_4,1.01676409133,,,2017_Nov_15_1626,60.008372566,FEMA4ImagesEEG,001,102400,
AFNE01.JPG,AFNE01.JPG,AFNE01.JPG,AFNE01.JPG,AFNE01.JPG,AFNE01.JPG,,,,,,,,,3,7,37,0,,,,,,,,,,,,,,,AFSA12.jpg,AFNE09.jpg,AFNE14.jpg,AFSA09.jpg,AFSA09.jpg,FS,4,num_4,32,num_2,1.93337470898,,,2017_Nov_15_1626,60.008372566,FEMA4ImagesEEG,001,102400,
AFNE01.JPG,AFNE01.JPG,AFNE01.JPG,AFNE01.JPG,AFNE01.JPG,AFNE01.JPG,,,,,,,,,3,8,38,1,,,,,,,,,,,,,,,AFSA14.jpg,AFNE03.jpg,AFSA20.jpg,AFNE09.jpg,AFSA14.jpg,FS,4,num_8,32,num_6,1.13349883491,,,2017_Nov_15_1626,60.008372566,FEMA4ImagesEEG,001,102400,
AFNE01.JPG,AFNE01.JPG,AFNE01.JPG,AFNE01.JPG,AFNE01.JPG,AFNE01.JPG,,,,,,,,,3,9,39,3,,,,,,,,,,,,,,,AFSA06.jpg,AFSA11.jpg,AFNE04.jpg,AFNE18.jpg,AFSA06.jpg,FS,4,num_8,32,num_4,1.15017311927,,,2017_Nov_15_1626,60.008372566,FEMA4ImagesEEG,001,102400,
AFNE01.JPG,AFNE01.JPG,AFNE01.JPG,AFNE01.JPG,AFNE01.JPG,AFNE01.JPG,,,,,,,,,4,0,40,5,,,,,,,,,,,,,,,AFNE18.jpg,AFSA12.jpg,AFNE06.jpg,AFSA19.jpg,AFSA12.jpg,FS,4,num_6,16,num_6,0.600163577124,,,2017_Nov_15_1626,60.008372566,FEMA4ImagesEEG,001,102400,
AFNE01.JPG,AFNE01.JPG,AFNE01.JPG,AFNE01.JPG,AFNE01.JPG,AFNE01.JPG,,,,,,,,,4,1,41,4,,,,,,,,,,,,,,,AFNE03.jpg,AFNE17.jpg,AFSA06.jpg,AFSA17.jpg,AFSA06.jpg,FS,4,num_2,32,num_4,1.15015804442,,,2017_Nov_15_1626,60.008372566,FEMA4ImagesEEG,001,102400,
AFNE01.JPG,AFNE01.JPG,AFNE01.JPG,AFNE01.JPG,AFNE01.JPG,AFNE01.JPG,,,,,,,,,4,2,42,0,,,,,,,,,,,,,,,AFNE07.jpg,AFNE18.jpg,AFSA17.jpg,AFSA06.jpg,AFNE18.jpg,FN,3,num_6,16,num_6,0.883484000806,,,2017_Nov_15_1626,60.008372566,FEMA4ImagesEEG,001,102400,
AFNE01.JPG,AFNE01.JPG,AFNE01.JPG,AFNE01.JPG,AFNE01.JPG,AFNE01.JPG,,,,,,,,,4,3,43,3,,,,,,,,,,,,,,,AFNE11.jpg,AFSA10.jpg,AFNE01.jpg,AFSA09.jpg,AFSA09.jpg,FS,4,num_4,32,num_8,1.10010023136,,,2017_Nov_15_1626,60.008372566,FEMA4ImagesEEG,001,102400,
AFNE01.JPG,AFNE01.JPG,AFNE01.JPG,AFNE01.JPG,AFNE01.JPG,AFNE01.JPG,,,,,,,,,4,4,44,2,,,,,,,,,,,,,,,AFNE01.jpg,AFSA03.jpg,AFNE20.jpg,AFSA06.jpg,AFSA03.jpg,FS,4,num_6,32,num_2,1.6000801851,,,2017_Nov_15_1626,60.008372566,FEMA4ImagesEEG,001,102400,
AFNE01.JPG,AFNE01.JPG,AFNE01.JPG,AFNE01.JPG,AFNE01.JPG,AFNE01.JPG,,,,,,,,,4,5,45,6,,,,,,,,,,,,,,,AFSA15.jpg,AFNE14.jpg,AFSA04.jpg,AFNE06.jpg,AFSA04.jpg,FS,4,num_2,32,num_8,1.5500945379,,,2017_Nov_15_1626,60.008372566,FEMA4ImagesEEG,001,102400,
AFNE01.JPG,AFNE01.JPG,AFNE01.JPG,AFNE01.JPG,AFNE01.JPG,AFNE01.JPG,,,,,,,,,4,6,46,8,,,,,,,,,,,,,,,AFSA08.jpg,AFSA19.jpg,AFNE15.jpg,AFNE14.jpg,AFSA08.jpg,FS,4,num_8,32,num_6,1.23342073476,,,2017_Nov_15_1626,60.008372566,FEMA4ImagesEEG,001,102400,
AFNE01.JPG,AFNE01.JPG,AFNE01.JPG,AFNE01.JPG,AFNE01.JPG,AFNE01.JPG,,,,,,,,,4,7,47,7,,,,,,,,,,,,,,,AFSA15.jpg,AFSA03.jpg,AFNE11.jpg,AFNE12.jpg,AFNE11.jpg,FN,3,num_2,32,num_4,1.21678365674,,,2017_Nov_15_1626,60.008372566,FEMA4ImagesEEG,001,102400,
AFNE01.JPG,AFNE01.JPG,AFNE01.JPG,AFNE01.JPG,AFNE01.JPG,AFNE01.JPG,,,,,,,,,4,8,48,9,,,,,,,,,,,,,,,AFSA19.jpg,AFSA04.jpg,AFNE12.jpg,AFNE13.jpg,AFNE12.jpg,FN,3,num_2,32,num_8,4.16652538069,,,2017_Nov_15_1626,60.008372566,FEMA4ImagesEEG,001,102400,
AFNE01.JPG,AFNE01.JPG,AFNE01.JPG,AFNE01.JPG,AFNE01.JPG,AFNE01.JPG,,,,,,,,,4,9,49,1,,,,,,,,,,,,,,,AFSA16.jpg,AFNE20.jpg,AFSA18.jpg,AFNE03.jpg,AFNE03.jpg,FN,3,num_4,48,None,,,,2017_Nov_15_1626,60.008372566,FEMA4ImagesEEG,001,102400,
AFNE01.JPG,AFNE01.JPG,AFNE01.JPG,AFNE01.JPG,AFNE01.JPG,AFNE01.JPG,,,,,,,,,5,0,50,7,,,,,,,,,,,,,,,AFSA07.jpg,AFNE12.jpg,AFSA11.jpg,AFNE19.jpg,AFSA07.jpg,FS,4,num_8,32,num_4,1.31703784224,,,2017_Nov_15_1626,60.008372566,FEMA4ImagesEEG,001,102400,
AFNE01.JPG,AFNE01.JPG,AFNE01.JPG,AFNE01.JPG,AFNE01.JPG,AFNE01.JPG,,,,,,,,,5,1,51,1,,,,,,,,,,,,,,,AFNE12.jpg,AFSA03.jpg,AFSA11.jpg,AFNE20.jpg,AFNE12.jpg,FN,3,num_8,16,num_8,1.41672335705,,,2017_Nov_15_1626,60.008372566,FEMA4ImagesEEG,001,102400,
AFNE01.JPG,AFNE01.JPG,AFNE01.JPG,AFNE01.JPG,AFNE01.JPG,AFNE01.JPG,,,,,,,,,5,2,52,2,,,,,,,,,,,,,,,AFSA15.jpg,AFNE06.jpg,AFNE20.jpg,AFSA19.jpg,AFSA19.jpg,FS,4,num_4,32,num_6,3.18328562332,,,2017_Nov_15_1626,60.008372566,FEMA4ImagesEEG,001,102400,
AFNE01.JPG,AFNE01.JPG,AFNE01.JPG,AFNE01.JPG,AFNE01.JPG,AFNE01.JPG,,,,,,,,,5,3,53,9,,,,,,,,,,,,,,,AFNE07.jpg,AFNE01.jpg,AFSA19.jpg,AFSA11.jpg,AFSA19.jpg,FS,4,num_2,32,num_6,1.33335161535,,,2017_Nov_15_1626,60.008372566,FEMA4ImagesEEG,001,102400,
AFNE01.JPG,AFNE01.JPG,AFNE01.JPG,AFNE01.JPG,AFNE01.JPG,AFNE01.JPG,,,,,,,,,5,4,54,0,,,,,,,,,,,,,,,AFNE04.jpg,AFSA13.jpg,AFNE01.jpg,AFSA18.jpg,AFNE01.jpg,FN,3,num_2,32,num_4,1.00013438985,,,2017_Nov_15_1626,60.008372566,FEMA4ImagesEEG,001,102400,
AFNE01.JPG,AFNE01.JPG,AFNE01.JPG,AFNE01.JPG,AFNE01.JPG,AFNE01.JPG,,,,,,,,,5,5,55,3,,,,,,,,,,,,,,,AFNE20.jpg,AFSA13.jpg,AFSA08.jpg,AFNE07.jpg,AFNE20.jpg,FN,3,num_8,32,num_4,1.95011057518,,,2017_Nov_15_1626,60.008372566,FEMA4ImagesEEG,001,102400,
AFNE01.JPG,AFNE01.JPG,AFNE01.JPG,AFNE01.JPG,AFNE01.JPG,AFNE01.JPG,,,,,,,,,5,6,56,6,,,,,,,,,,,,,,,AFSA07.jpg,AFNE04.jpg,AFNE01.jpg,AFSA15.jpg,AFNE04.jpg,FN,3,num_6,32,num_8,1.28341151355,,,2017_Nov_15_1626,60.008372566,FEMA4ImagesEEG,001,102400,
AFNE01.JPG,AFNE01.JPG,AFNE01.JPG,AFNE01.JPG,AFNE01.JPG,AFNE01.JPG,,,,,,,,,5,7,57,8,,,,,,,,,,,,,,,AFNE18.jpg,AFSA01.jpg,AFSA02.jpg,AFNE03.jpg,AFNE03.jpg,FN,3,num_4,32,num_6,0.883469888475,,,2017_Nov_15_1626,60.008372566,FEMA4ImagesEEG,001,102400,
AFNE01.JPG,AFNE01.JPG,AFNE01.JPG,AFNE01.JPG,AFNE01.JPG,AFNE01.JPG,,,,,,,,,5,8,58,5,,,,,,,,,,,,,,,AFSA03.jpg,AFNE16.jpg,AFSA14.jpg,AFNE11.jpg,AFNE16.jpg,FN,3,num_6,16,num_6,1.65006775595,,,2017_Nov_15_1626,60.008372566,FEMA4ImagesEEG,001,102400,
AFNE01.JPG,AFNE01.JPG,AFNE01.JPG,AFNE01.JPG,AFNE01.JPG,AFNE01.JPG,,,,,,,,,5,9,59,4,,,,,,,,,,,,,,,AFNE09.jpg,AFSA02.jpg,AFNE02.jpg,AFSA01.jpg,AFNE02.jpg,FN,3,num_2,32,num_8,1.41675062012,,,2017_Nov_15_1626,60.008372566,FEMA4ImagesEEG,001,102400,
,,,,,,,,,,,,,,,,,,,,,,,,,,,,,,,,,,,,,,,,,,,space,8.84987884061,2017_Nov_15_1626,60.008372566,FEMA4ImagesEEG,001,102400,
AFNE01.JPG,AFNE01.JPG,AFNE01.JPG,AFNE01.JPG,AFNE01.JPG,AFNE01.JPG,,,,,,,,,,,,,0,0,0,6,,,,,,,,,,,AMSA13.jpg,AMNE05.jpg,AMSA03.jpg,AMNE10.jpg,AMNE10.jpg,MN,1,num_4,16,num_4,2.33338336879,,,2017_Nov_15_1626,60.008372566,FEMA4ImagesEEG,001,102400,
AFNE01.JPG,AFNE01.JPG,AFNE01.JPG,AFNE01.JPG,AFNE01.JPG,AFNE01.JPG,,,,,,,,,,,,,0,1,1,2,,,,,,,,,,,AMSA16.jpg,AMNE02.jpg,AMSA17.jpg,AMNE19.jpg,AMNE02.jpg,MN,1,num_6,16,num_6,0.616827597376,,,2017_Nov_15_1626,60.008372566,FEMA4ImagesEEG,001,102400,
AFNE01.JPG,AFNE01.JPG,AFNE01.JPG,AFNE01.JPG,AFNE01.JPG,AFNE01.JPG,,,,,,,,,,,,,0,2,2,0,,,,,,,,,,,AMNE03.jpg,AMSA20.jpg,AMSA03.jpg,AMNE10.jpg,AMSA20.jpg,MS,2,num_6,32,num_4,0.850138319191,,,2017_Nov_15_1626,60.008372566,FEMA4ImagesEEG,001,102400,
AFNE01.JPG,AFNE01.JPG,AFNE01.JPG,AFNE01.JPG,AFNE01.JPG,AFNE01.JPG,,,,,,,,,,,,,0,3,3,8,,,,,,,,,,,AMSA10.jpg,AMNE18.jpg,AMSA16.jpg,AMNE11.jpg,AMSA10.jpg,MS,2,num_8,32,num_6,0.416796806734,,,2017_Nov_15_1626,60.008372566,FEMA4ImagesEEG,001,102400,
AFNE01.JPG,AFNE01.JPG,AFNE01.JPG,AFNE01.JPG,AFNE01.JPG,AFNE01.JPG,,,,,,,,,,,,,0,4,4,3,,,,,,,,,,,AMNE10.jpg,AMNE19.jpg,AMSA13.jpg,AMSA01.jpg,AMNE19.jpg,MN,1,num_6,32,num_4,2.16677074647,,,2017_Nov_15_1626,60.008372566,FEMA4ImagesEEG,001,102400,
AFNE01.JPG,AFNE01.JPG,AFNE01.JPG,AFNE01.JPG,AFNE01.JPG,AFNE01.JPG,,,,,,,,,,,,,0,5,5,7,,,,,,,,,,,AMSA15.jpg,AMNE08.jpg,AMSA07.jpg,AMNE11.jpg,AMSA15.jpg,MS,2,num_8,32,num_4,1.01675382769,,,2017_Nov_15_1626,60.008372566,FEMA4ImagesEEG,001,102400,
AFNE01.JPG,AFNE01.JPG,AFNE01.JPG,AFNE01.JPG,AFNE01.JPG,AFNE01.JPG,,,,,,,,,,,,,0,6,6,5,,,,,,,,,,,AMSA06.jpg,AMNE01.jpg,AMSA11.jpg,AMNE02.jpg,AMNE01.jpg,MN,1,num_6,32,num_8,0.716764572076,,,2017_Nov_15_1626,60.008372566,FEMA4ImagesEEG,001,102400,
AFNE01.JPG,AFNE01.JPG,AFNE01.JPG,AFNE01.JPG,AFNE01.JPG,AFNE01.JPG,,,,,,,,,,,,,0,7,7,1,,,,,,,,,,,AMSA03.jpg,AMNE15.jpg,AMSA02.jpg,AMNE02.jpg,AMSA03.jpg,MS,2,num_8,32,num_6,0.533501080237,,,2017_Nov_15_1626,60.008372566,FEMA4ImagesEEG,001,102400,
AFNE01.JPG,AFNE01.JPG,AFNE01.JPG,AFNE01.JPG,AFNE01.JPG,AFNE01.JPG,,,,,,,,,,,,,0,8,8,4,,,,,,,,,,,AMSA11.jpg,AMNE11.jpg,AMSA19.jpg,AMNE14.jpg,AMNE11.jpg,MN,1,num_6,32,num_4,0.516855021007,,,2017_Nov_15_1626,60.008372566,FEMA4ImagesEEG,001,102400,
AFNE01.JPG,AFNE01.JPG,AFNE01.JPG,AFNE01.JPG,AFNE01.JPG,AFNE01.JPG,,,,,,,,,,,,,0,9,9,9,,,,,,,,,,,AMNE17.jpg,AMSA09.jpg,AMSA17.jpg,AMNE14.jpg,AMNE14.jpg,MN,1,num_4,32,num_6,0.683883642312,,,2017_Nov_15_1626,60.008372566,FEMA4ImagesEEG,001,102400,
AFNE01.JPG,AFNE01.JPG,AFNE01.JPG,AFNE01.JPG,AFNE01.JPG,AFNE01.JPG,,,,,,,,,,,,,1,0,10,2,,,,,,,,,,,AMNE10.jpg,AMNE06.jpg,AMSA08.jpg,AMSA04.jpg,AMNE10.jpg,MN,1,num_8,16,num_8,0.566820140462,,,2017_Nov_15_1626,60.008372566,FEMA4ImagesEEG,001,102400,
AFNE01.JPG,AFNE01.JPG,AFNE01.JPG,AFNE01.JPG,AFNE01.JPG,AFNE01.JPG,,,,,,,,,,,,,1,1,11,8,,,,,,,,,,,AMSA18.jpg,AMNE01.jpg,AMNE15.jpg,AMSA11.jpg,AMNE01.jpg,MN,1,num_6,32,num_4,0.58347453922,,,2017_Nov_15_1626,60.008372566,FEMA4ImagesEEG,001,102400,
AFNE01.JPG,AFNE01.JPG,AFNE01.JPG,AFNE01.JPG,AFNE01.JPG,AFNE01.JPG,,,,,,,,,,,,,1,2,12,1,,,,,,,,,,,AMSA15.jpg,AMSA16.jpg,AMNE18.jpg,AMNE11.jpg,AMNE11.jpg,MN,1,num_4,48,None,,,,2017_Nov_15_1626,60.008372566,FEMA4ImagesEEG,001,102400,
AFNE01.JPG,AFNE01.JPG,AFNE01.JPG,AFNE01.JPG,AFNE01.JPG,AFNE01.JPG,,,,,,,,,,,,,1,3,13,6,,,,,,,,,,,AMSA09.jpg,AMNE18.jpg,AMSA15.jpg,AMNE03.jpg,AMNE03.jpg,MN,1,num_4,32,num_6,2.30000753747,,,2017_Nov_15_1626,60.008372566,FEMA4ImagesEEG,001,102400,
AFNE01.JPG,AFNE01.JPG,AFNE01.JPG,AFNE01.JPG,AFNE01.JPG,AFNE01.JPG,,,,,,,,,,,,,1,4,14,0,,,,,,,,,,,AMNE06.jpg,AMSA12.jpg,AMNE13.jpg,AMSA17.jpg,AMSA17.jpg,MS,2,num_4,16,num_4,0.983444710262,,,2017_Nov_15_1626,60.008372566,FEMA4ImagesEEG,001,102400,
AFNE01.JPG,AFNE01.JPG,AFNE01.JPG,AFNE01.JPG,AFNE01.JPG,AFNE01.JPG,,,,,,,,,,,,,1,5,15,3,,,,,,,,,,,AMNE12.jpg,AMNE04.jpg,AMSA12.jpg,AMSA17.jpg,AMSA17.jpg,MS,2,num_4,16,num_4,0.583490254823,,,2017_Nov_15_1626,60.008372566,FEMA4ImagesEEG,001,102400,
AFNE01.JPG,AFNE01.JPG,AFNE01.JPG,AFNE01.JPG,AFNE01.JPG,AFNE01.JPG,,,,,,,,,,,,,1,6,16,7,,,,,,,,,,,AMSA03.jpg,AMNE06.jpg,AMSA16.jpg,AMNE10.jpg,AMSA03.jpg,MS,2,num_8,32,num_6,3.516271275,,,2017_Nov_15_1626,60.008372566,FEMA4ImagesEEG,001,102400,
AFNE01.JPG,AFNE01.JPG,AFNE01.JPG,AFNE01.JPG,AFNE01.JPG,AFNE01.JPG,,,,,,,,,,,,,1,7,17,4,,,,,,,,,,,AMSA07.jpg,AMNE08.jpg,AMNE11.jpg,AMSA16.jpg,AMNE08.jpg,MN,1,num_6,32,num_4,0.966796406079,,,2017_Nov_15_1626,60.008372566,FEMA4ImagesEEG,001,102400,
AFNE01.JPG,AFNE01.JPG,AFNE01.JPG,AFNE01.JPG,AFNE01.JPG,AFNE01.JPG,,,,,,,,,,,,,1,8,18,9,,,,,,,,,,,AMSA11.jpg,AMNE20.jpg,AMSA19.jpg,AMNE13.jpg,AMNE20.jpg,MN,1,num_6,16,num_6,0.700116909575,,,2017_Nov_15_1626,60.008372566,FEMA4ImagesEEG,001,102400,
AFNE01.JPG,AFNE01.JPG,AFNE01.JPG,AFNE01.JPG,AFNE01.JPG,AFNE01.JPG,,,,,,,,,,,,,1,9,19,5,,,,,,,,,,,AMSA04.jpg,AMNE10.jpg,AMNE19.jpg,AMSA10.jpg,AMSA04.jpg,MS,2,num_8,32,num_4,0.466819979716,,,2017_Nov_15_1626,60.008372566,FEMA4ImagesEEG,001,102400,
AFNE01.JPG,AFNE01.JPG,AFNE01.JPG,AFNE01.JPG,AFNE01.JPG,AFNE01.JPG,,,,,,,,,,,,,2,0,20,8,,,,,,,,,,,AMNE01.jpg,AMNE14.jpg,AMSA12.jpg,AMSA04.jpg,AMNE14.jpg,MN,1,num_6,32,num_8,0.466821263079,,,2017_Nov_15_1626,60.008372566,FEMA4ImagesEEG,001,102400,
AFNE01.JPG,AFNE01.JPG,AFNE01.JPG,AFNE01.JPG,AFNE01.JPG,AFNE01.JPG,,,,,,,,,,,,,2,1,21,9,,,,,,,,,,,AMNE14.jpg,AMSA13.jpg,AMNE05.jpg,AMSA14.jpg,AMSA14.jpg,MS,2,num_4,32,num_6,0.650153393392,,,2017_Nov_15_1626,60.008372566,FEMA4ImagesEEG,001,102400,
AFNE01.JPG,AFNE01.JPG,AFNE01.JPG,AFNE01.JPG,AFNE01.JPG,AFNE01.JPG,,,,,,,,,,,,,2,2,22,2,,,,,,,,,,,AMSA13.jpg,AMNE15.jpg,AMSA15.jpg,AMNE04.jpg,AMSA13.jpg,MS,2,num_8,32,num_4,0.65014922386,,,2017_Nov_15_1626,60.008372566,FEMA4ImagesEEG,001,102400,
AFNE01.JPG,AFNE01.JPG,AFNE01.JPG,AFNE01.JPG,AFNE01.JPG,AFNE01.JPG,,,,,,,,,,,,,2,3,23,4,,,,,,,,,,,AMNE19.jpg,AMSA19.jpg,AMNE14.jpg,AMSA12.jpg,AMSA12.jpg,MS,2,num_4,32,num_2,1.93340036785,,,2017_Nov_15_1626,60.008372566,FEMA4ImagesEEG,001,102400,
AFNE01.JPG,AFNE01.JPG,AFNE01.JPG,AFNE01.JPG,AFNE01.JPG,AFNE01.JPG,,,,,,,,,,,,,2,4,24,1,,,,,,,,,,,AMSA02.jpg,AMNE12.jpg,AMSA07.jpg,AMNE20.jpg,AMSA07.jpg,MS,2,num_2,32,num_8,0.66679528309,,,2017_Nov_15_1626,60.008372566,FEMA4ImagesEEG,001,102400,
AFNE01.JPG,AFNE01.JPG,AFNE01.JPG,AFNE01.JPG,AFNE01.JPG,AFNE01.JPG,,,,,,,,,,,,,2,5,25,6,,,,,,,,,,,AMSA07.jpg,AMNE04.jpg,AMSA17.jpg,AMNE03.jpg,AMSA17.jpg,MS,2,num_2,32,num_4,0.783494425006,,,2017_Nov_15_1626,60.008372566,FEMA4ImagesEEG,001,102400,
AFNE01.JPG,AFNE01.JPG,AFNE01.JPG,AFNE01.JPG,AFNE01.JPG,AFNE01.JPG,,,,,,,,,,,,,2,6,26,5,,,,,,,,,,,AMSA17.jpg,AMSA16.jpg,AMNE04.jpg,AMNE20.jpg,AMSA16.jpg,MS,2,num_6,16,num_6,0.833441582974,,,2017_Nov_15_1626,60.008372566,FEMA4ImagesEEG,001,102400,
AFNE01.JPG,AFNE01.JPG,AFNE01.JPG,AFNE01.JPG,AFNE01.JPG,AFNE01.JPG,,,,,,,,,,,,,2,7,27,7,,,,,,,,,,,AMSA10.jpg,AMSA14.jpg,AMNE04.jpg,AMNE13.jpg,AMSA10.jpg,MS,2,num_8,32,num_4,0.700178812258,,,2017_Nov_15_1626,60.008372566,FEMA4ImagesEEG,001,102400,
AFNE01.JPG,AFNE01.JPG,AFNE01.JPG,AFNE01.JPG,AFNE01.JPG,AFNE01.JPG,,,,,,,,,,,,,2,8,28,3,,,,,,,,,,,AMSA05.jpg,AMSA17.jpg,AMNE18.jpg,AMNE09.jpg,AMSA17.jpg,MS,2,num_6,16,num_6,0.833490977064,,,2017_Nov_15_1626,60.008372566,FEMA4ImagesEEG,001,102400,
AFNE01.JPG,AFNE01.JPG,AFNE01.JPG,AFNE01.JPG,AFNE01.JPG,AFNE01.JPG,,,,,,,,,,,,,2,9,29,0,,,,,,,,,,,AMNE03.jpg,AMSA06.jpg,AMNE11.jpg,AMSA02.jpg,AMNE03.jpg,MN,1,num_8,32,num_4,1.45034583705,,,2017_Nov_15_1626,60.008372566,FEMA4ImagesEEG,001,102400,
AFNE01.JPG,AFNE01.JPG,AFNE01.JPG,AFNE01.JPG,AFNE01.JPG,AFNE01.JPG,,,,,,,,,,,,,3,0,30,8,,,,,,,,,,,AMNE06.jpg,AMNE05.jpg,AMSA06.jpg,AMSA04.jpg,AMSA04.jpg,MS,2,num_4,16,num_4,0.816809315234,,,2017_Nov_15_1626,60.008372566,FEMA4ImagesEEG,001,102400,
AFNE01.JPG,AFNE01.JPG,AFNE01.JPG,AFNE01.JPG,AFNE01.JPG,AFNE01.JPG,,,,,,,,,,,,,3,1,31,6,,,,,,,,,,,AMNE06.jpg,AMNE05.jpg,AMSA03.jpg,AMSA10.jpg,AMSA10.jpg,MS,2,num_4,32,num_8,1.8833810431,,,2017_Nov_15_1626,60.008372566,FEMA4ImagesEEG,001,102400,
AFNE01.JPG,AFNE01.JPG,AFNE01.JPG,AFNE01.JPG,AFNE01.JPG,AFNE01.JPG,,,,,,,,,,,,,3,2,32,4,,,,,,,,,,,AMNE10.jpg,AMNE15.jpg,AMSA18.jpg,AMSA16.jpg,AMSA16.jpg,MS,2,num_4,16,num_4,1.41657966608,,,2017_Nov_15_1626,60.008372566,FEMA4ImagesEEG,001,102400,
AFNE01.JPG,AFNE01.JPG,AFNE01.JPG,AFNE01.JPG,AFNE01.JPG,AFNE01.JPG,,,,,,,,,,,,,3,3,33,5,,,,,,,,,,,AMSA01.jpg,AMNE05.jpg,AMNE15.jpg,AMSA12.jpg,AMNE15.jpg,MN,1,num_2,32,num_6,3.61649114173,,,2017_Nov_15_1626,60.008372566,FEMA4ImagesEEG,001,102400,
AFNE01.JPG,AFNE01.JPG,AFNE01.JPG,AFNE01.JPG,AFNE01.JPG,AFNE01.JPG,,,,,,,,,,,,,3,4,34,7,,,,,,,,,,,AMSA04.jpg,AMNE19.jpg,AMSA17.jpg,AMNE15.jpg,AMSA17.jpg,MS,2,num_2,32,num_6,0.950136875734,,,2017_Nov_15_1626,60.008372566,FEMA4ImagesEEG,001,102400,
AFNE01.JPG,AFNE01.JPG,AFNE01.JPG,AFNE01.JPG,AFNE01.JPG,AFNE01.JPG,,,,,,,,,,,,,3,5,35,0,,,,,,,,,,,AMNE15.jpg,AMSA14.jpg,AMSA02.jpg,AMNE07.jpg,AMNE15.jpg,MN,1,num_8,32,num_6,0.600143691059,,,2017_Nov_15_1626,60.008372566,FEMA4ImagesEEG,001,102400,
AFNE01.JPG,AFNE01.JPG,AFNE01.JPG,AFNE01.JPG,AFNE01.JPG,AFNE01.JPG,,,,,,,,,,,,,3,6,36,1,,,,,,,,,,,AMNE16.jpg,AMSA20.jpg,AMSA09.jpg,AMNE07.jpg,AMNE07.jpg,MN,1,num_4,32,num_6,0.816769223195,,,2017_Nov_15_1626,60.008372566,FEMA4ImagesEEG,001,102400,
AFNE01.JPG,AFNE01.JPG,AFNE01.JPG,AFNE01.JPG,AFNE01.JPG,AFNE01.JPG,,,,,,,,,,,,,3,7,37,9,,,,,,,,,,,AMNE20.jpg,AMNE08.jpg,AMSA05.jpg,AMSA13.jpg,AMNE20.jpg,MN,1,num_8,32,num_4,0.816760563292,,,2017_Nov_15_1626,60.008372566,FEMA4ImagesEEG,001,102400,
AFNE01.JPG,AFNE01.JPG,AFNE01.JPG,AFNE01.JPG,AFNE01.JPG,AFNE01.JPG,,,,,,,,,,,,,3,8,38,3,,,,,,,,,,,AMNE11.jpg,AMNE19.jpg,AMSA07.jpg,AMSA14.jpg,AMSA14.jpg,MS,2,num_4,32,num_6,0.750184024218,,,2017_Nov_15_1626,60.008372566,FEMA4ImagesEEG,001,102400,
AFNE01.JPG,AFNE01.JPG,AFNE01.JPG,AFNE01.JPG,AFNE01.JPG,AFNE01.JPG,,,,,,,,,,,,,3,9,39,2,,,,,,,,,,,AMNE18.jpg,AMNE11.jpg,AMSA13.jpg,AMSA09.jpg,AMNE11.jpg,MN,1,num_6,16,num_6,0.750110895839,,,2017_Nov_15_1626,60.008372566,FEMA4ImagesEEG,001,102400,
AFNE01.JPG,AFNE01.JPG,AFNE01.JPG,AFNE01.JPG,AFNE01.JPG,AFNE01.JPG,,,,,,,,,,,,,4,0,40,4,,,,,,,,,,,AMNE02.jpg,AMSA18.jpg,AMNE18.jpg,AMSA09.jpg,AMSA09.jpg,MS,2,num_4,32,num_6,0.800214895513,,,2017_Nov_15_1626,60.008372566,FEMA4ImagesEEG,001,102400,
AFNE01.JPG,AFNE01.JPG,AFNE01.JPG,AFNE01.JPG,AFNE01.JPG,AFNE01.JPG,,,,,,,,,,,,,4,1,41,3,,,,,,,,,,,AMNE10.jpg,AMSA03.jpg,AMSA16.jpg,AMNE01.jpg,AMNE10.jpg,MN,1,num_8,16,num_8,0.949889906216,,,2017_Nov_15_1626,60.008372566,FEMA4ImagesEEG,001,102400,
AFNE01.JPG,AFNE01.JPG,AFNE01.JPG,AFNE01.JPG,AFNE01.JPG,AFNE01.JPG,,,,,,,,,,,,,4,2,42,6,,,,,,,,,,,AMSA14.jpg,AMSA01.jpg,AMNE17.jpg,AMNE18.jpg,AMSA14.jpg,MS,2,num_8,32,num_4,1.36676529422,,,2017_Nov_15_1626,60.008372566,FEMA4ImagesEEG,001,102400,
AFNE01.JPG,AFNE01.JPG,AFNE01.JPG,AFNE01.JPG,AFNE01.JPG,AFNE01.JPG,,,,,,,,,,,,,4,3,43,7,,,,,,,,,,,AMNE13.jpg,AMSA06.jpg,AMSA10.jpg,AMNE06.jpg,AMSA06.jpg,MS,2,num_6,32,num_8,0.966768822167,,,2017_Nov_15_1626,60.008372566,FEMA4ImagesEEG,001,102400,
AFNE01.JPG,AFNE01.JPG,AFNE01.JPG,AFNE01.JPG,AFNE01.JPG,AFNE01.JPG,,,,,,,,,,,,,4,4,44,8,,,,,,,,,,,AMNE20.jpg,AMNE06.jpg,AMSA07.jpg,AMSA08.jpg,AMSA07.jpg,MS,2,num_2,32,num_4,3.29993601236,,,2017_Nov_15_1626,60.008372566,FEMA4ImagesEEG,001,102400,
AFNE01.JPG,AFNE01.JPG,AFNE01.JPG,AFNE01.JPG,AFNE01.JPG,AFNE01.JPG,,,,,,,,,,,,,4,5,45,9,,,,,,,,,,,AMNE14.jpg,AMSA20.jpg,AMSA18.jpg,AMNE03.jpg,AMSA18.jpg,MS,2,num_2,48,None,,,,2017_Nov_15_1626,60.008372566,FEMA4ImagesEEG,001,102400,
AFNE01.JPG,AFNE01.JPG,AFNE01.JPG,AFNE01.JPG,AFNE01.JPG,AFNE01.JPG,,,,,,,,,,,,,4,6,46,2,,,,,,,,,,,AMNE11.jpg,AMSA11.jpg,AMSA14.jpg,AMNE16.jpg,AMSA14.jpg,MS,2,num_2,32,num_6,0.700154756662,,,2017_Nov_15_1626,60.008372566,FEMA4ImagesEEG,001,102400,
AFNE01.JPG,AFNE01.JPG,AFNE01.JPG,AFNE01.JPG,AFNE01.JPG,AFNE01.JPG,,,,,,,,,,,,,4,7,47,0,,,,,,,,,,,AMSA02.jpg,AMSA14.jpg,AMNE10.jpg,AMNE15.jpg,AMNE15.jpg,MN,1,num_4,32,num_8,2.73331889976,,,2017_Nov_15_1626,60.008372566,FEMA4ImagesEEG,001,102400,
AFNE01.JPG,AFNE01.JPG,AFNE01.JPG,AFNE01.JPG,AFNE01.JPG,AFNE01.JPG,,,,,,,,,,,,,4,8,48,5,,,,,,,,,,,AMSA20.jpg,AMNE06.jpg,AMSA06.jpg,AMNE01.jpg,AMSA06.jpg,MS,2,num_2,32,num_6,0.650152752176,,,2017_Nov_15_1626,60.008372566,FEMA4ImagesEEG,001,102400,
AFNE01.JPG,AFNE01.JPG,AFNE01.JPG,AFNE01.JPG,AFNE01.JPG,AFNE01.JPG,,,,,,,,,,,,,4,9,49,1,,,,,,,,,,,AMNE20.jpg,AMSA01.jpg,AMSA10.jpg,AMNE02.jpg,AMNE20.jpg,MN,1,num_8,32,num_4,0.900127173401,,,2017_Nov_15_1626,60.008372566,FEMA4ImagesEEG,001,102400,
AFNE01.JPG,AFNE01.JPG,AFNE01.JPG,AFNE01.JPG,AFNE01.JPG,AFNE01.JPG,,,,,,,,,,,,,5,0,50,1,,,,,,,,,,,AMNE10.jpg,AMNE02.jpg,AMSA15.jpg,AMSA14.jpg,AMNE02.jpg,MN,1,num_6,16,num_6,1.35038288264,,,2017_Nov_15_1626,60.008372566,FEMA4ImagesEEG,001,102400,
AFNE01.JPG,AFNE01.JPG,AFNE01.JPG,AFNE01.JPG,AFNE01.JPG,AFNE01.JPG,,,,,,,,,,,,,5,1,51,8,,,,,,,,,,,AMNE20.jpg,AMNE08.jpg,AMSA01.jpg,AMSA10.jpg,AMSA01.jpg,MS,2,num_2,16,num_2,0.850083472207,,,2017_Nov_15_1626,60.008372566,FEMA4ImagesEEG,001,102400,
AFNE01.JPG,AFNE01.JPG,AFNE01.JPG,AFNE01.JPG,AFNE01.JPG,AFNE01.JPG,,,,,,,,,,,,,5,2,52,4,,,,,,,,,,,AMSA17.jpg,AMNE03.jpg,AMNE04.jpg,AMSA05.jpg,AMSA05.jpg,MS,2,num_4,32,num_8,0.950139120687,,,2017_Nov_15_1626,60.008372566,FEMA4ImagesEEG,001,102400,
AFNE01.JPG,AFNE01.JPG,AFNE01.JPG,AFNE01.JPG,AFNE01.JPG,AFNE01.JPG,,,,,,,,,,,,,5,3,53,2,,,,,,,,,,,AMSA04.jpg,AMNE16.jpg,AMSA05.jpg,AMNE20.jpg,AMNE16.jpg,MN,1,num_6,32,num_4,1.20010712696,,,2017_Nov_15_1626,60.008372566,FEMA4ImagesEEG,001,102400,
AFNE01.JPG,AFNE01.JPG,AFNE01.JPG,AFNE01.JPG,AFNE01.JPG,AFNE01.JPG,,,,,,,,,,,,,5,4,54,7,,,,,,,,,,,AMSA02.jpg,AMNE14.jpg,AMNE16.jpg,AMSA04.jpg,AMSA04.jpg,MS,2,num_4,32,num_8,0.850129338447,,,2017_Nov_15_1626,60.008372566,FEMA4ImagesEEG,001,102400,
AFNE01.JPG,AFNE01.JPG,AFNE01.JPG,AFNE01.JPG,AFNE01.JPG,AFNE01.JPG,,,,,,,,,,,,,5,5,55,9,,,,,,,,,,,AMSA06.jpg,AMSA02.jpg,AMNE19.jpg,AMNE12.jpg,AMSA02.jpg,MS,2,num_6,16,num_6,1.41671565967,,,2017_Nov_15_1626,60.008372566,FEMA4ImagesEEG,001,102400,
AFNE01.JPG,AFNE01.JPG,AFNE01.JPG,AFNE01.JPG,AFNE01.JPG,AFNE01.JPG,,,,,,,,,,,,,5,6,56,3,,,,,,,,,,,AMSA06.jpg,AMSA19.jpg,AMNE01.jpg,AMNE09.jpg,AMSA06.jpg,MS,2,num_8,32,num_4,1.05013286602,,,2017_Nov_15_1626,60.008372566,FEMA4ImagesEEG,001,102400,
AFNE01.JPG,AFNE01.JPG,AFNE01.JPG,AFNE01.JPG,AFNE01.JPG,AFNE01.JPG,,,,,,,,,,,,,5,7,57,0,,,,,,,,,,,AMNE03.jpg,AMSA18.jpg,AMSA13.jpg,AMNE15.jpg,AMSA18.jpg,MS,2,num_6,16,num_6,1.30012043752,,,2017_Nov_15_1626,60.008372566,FEMA4ImagesEEG,001,102400,
AFNE01.JPG,AFNE01.JPG,AFNE01.JPG,AFNE01.JPG,AFNE01.JPG,AFNE01.JPG,,,,,,,,,,,,,5,8,58,6,,,,,,,,,,,AMSA17.jpg,AMNE20.jpg,AMNE16.jpg,AMSA15.jpg,AMNE16.jpg,MN,1,num_2,32,num_4,4.3995612287,,,2017_Nov_15_1626,60.008372566,FEMA4ImagesEEG,001,102400,
AFNE01.JPG,AFNE01.JPG,AFNE01.JPG,AFNE01.JPG,AFNE01.JPG,AFNE01.JPG,,,,,,,,,,,,,5,9,59,5,,,,,,,,,,,AMNE01.jpg,AMNE06.jpg,AMSA01.jpg,AMSA02.jpg,AMNE06.jpg,MN,1,num_6,32,num_4,2.63334536133,,,2017_Nov_15_1626,60.008372566,FEMA4ImagesEEG,001,102400,
,,,,,,,,,,,,,,,,,,,,,,,,,,,,,,,,,,,,,,,,,,,space,11.3162536342,2017_Nov_15_1626,60.008372566,FEMA4ImagesEEG,001,102400,
AFNE01.JPG,AFNE01.JPG,AFNE01.JPG,AFNE01.JPG,AFNE01.JPG,AFNE01.JPG,,,,,,,,,,,,,,,,,0,0,0,4,,,,,,,AFSA17.jpg,AFSA06.jpg,AFNE07.jpg,AFNE20.jpg,AFNE07.jpg,FN,3,num_2,32,num_4,1.08343204064,,,2017_Nov_15_1626,60.008372566,FEMA4ImagesEEG,001,102400,
AFNE01.JPG,AFNE01.JPG,AFNE01.JPG,AFNE01.JPG,AFNE01.JPG,AFNE01.JPG,,,,,,,,,,,,,,,,,0,1,1,9,,,,,,,AFSA16.jpg,AFSA19.jpg,AFNE04.jpg,AFNE16.jpg,AFNE16.jpg,FN,3,num_4,32,num_8,1.10015058704,,,2017_Nov_15_1626,60.008372566,FEMA4ImagesEEG,001,102400,
AFNE01.JPG,AFNE01.JPG,AFNE01.JPG,AFNE01.JPG,AFNE01.JPG,AFNE01.JPG,,,,,,,,,,,,,,,,,0,2,2,8,,,,,,,AFNE12.jpg,AFSA19.jpg,AFSA07.jpg,AFNE07.jpg,AFSA07.jpg,FS,4,num_2,32,num_6,1.30007938296,,,2017_Nov_15_1626,60.008372566,FEMA4ImagesEEG,001,102400,
AFNE01.JPG,AFNE01.JPG,AFNE01.JPG,AFNE01.JPG,AFNE01.JPG,AFNE01.JPG,,,,,,,,,,,,,,,,,0,3,3,5,,,,,,,AFSA03.jpg,AFNE09.jpg,AFSA20.jpg,AFNE04.jpg,AFSA20.jpg,FS,4,num_2,32,num_8,3.33326629875,,,2017_Nov_15_1626,60.008372566,FEMA4ImagesEEG,001,102400,
AFNE01.JPG,AFNE01.JPG,AFNE01.JPG,AFNE01.JPG,AFNE01.JPG,AFNE01.JPG,,,,,,,,,,,,,,,,,0,4,4,3,,,,,,,AFSA12.jpg,AFSA07.jpg,AFNE06.jpg,AFNE18.jpg,AFNE06.jpg,FN,3,num_2,32,num_8,0.833796000108,,,2017_Nov_15_1626,60.008372566,FEMA4ImagesEEG,001,102400,
AFNE01.JPG,AFNE01.JPG,AFNE01.JPG,AFNE01.JPG,AFNE01.JPG,AFNE01.JPG,,,,,,,,,,,,,,,,,0,5,5,1,,,,,,,AFNE03.jpg,AFNE19.jpg,AFSA16.jpg,AFSA17.jpg,AFNE19.jpg,FN,3,num_6,32,num_4,0.783160534687,,,2017_Nov_15_1626,60.008372566,FEMA4ImagesEEG,001,102400,
AFNE01.JPG,AFNE01.JPG,AFNE01.JPG,AFNE01.JPG,AFNE01.JPG,AFNE01.JPG,,,,,,,,,,,,,,,,,0,6,6,7,,,,,,,AFSA06.jpg,AFSA14.jpg,AFNE08.jpg,AFNE20.jpg,AFNE08.jpg,FN,3,num_2,16,num_2,1.93339395337,,,2017_Nov_15_1626,60.008372566,FEMA4ImagesEEG,001,102400,
AFNE01.JPG,AFNE01.JPG,AFNE01.JPG,AFNE01.JPG,AFNE01.JPG,AFNE01.JPG,,,,,,,,,,,,,,,,,0,7,7,6,,,,,,,AFSA14.jpg,AFNE07.jpg,AFNE11.jpg,AFSA16.jpg,AFSA16.jpg,FS,4,num_4,16,num_4,0.849897764158,,,2017_Nov_15_1626,60.008372566,FEMA4ImagesEEG,001,102400,
AFNE01.JPG,AFNE01.JPG,AFNE01.JPG,AFNE01.JPG,AFNE01.JPG,AFNE01.JPG,,,,,,,,,,,,,,,,,0,8,8,2,,,,,,,AFSA16.jpg,AFNE19.jpg,AFNE12.jpg,AFSA18.jpg,AFNE12.jpg,FN,3,num_2,32,num_4,1.01675318601,,,2017_Nov_15_1626,60.008372566,FEMA4ImagesEEG,001,102400,
AFNE01.JPG,AFNE01.JPG,AFNE01.JPG,AFNE01.JPG,AFNE01.JPG,AFNE01.JPG,,,,,,,,,,,,,,,,,0,9,9,0,,,,,,,AFSA02.jpg,AFNE14.jpg,AFNE13.jpg,AFSA03.jpg,AFNE14.jpg,FN,3,num_6,32,num_8,0.616779166274,,,2017_Nov_15_1626,60.008372566,FEMA4ImagesEEG,001,102400,
AFNE01.JPG,AFNE01.JPG,AFNE01.JPG,AFNE01.JPG,AFNE01.JPG,AFNE01.JPG,,,,,,,,,,,,,,,,,1,0,10,2,,,,,,,AFSA18.jpg,AFNE05.jpg,AFNE08.jpg,AFSA11.jpg,AFNE05.jpg,FN,3,num_6,32,num_4,0.533483439591,,,2017_Nov_15_1626,60.008372566,FEMA4ImagesEEG,001,102400,
AFNE01.JPG,AFNE01.JPG,AFNE01.JPG,AFNE01.JPG,AFNE01.JPG,AFNE01.JPG,,,,,,,,,,,,,,,,,1,1,11,5,,,,,,,AFNE16.jpg,AFNE18.jpg,AFSA02.jpg,AFSA04.jpg,AFNE18.jpg,FN,3,num_6,32,num_8,0.450158525724,,,2017_Nov_15_1626,60.008372566,FEMA4ImagesEEG,001,102400,
AFNE01.JPG,AFNE01.JPG,AFNE01.JPG,AFNE01.JPG,AFNE01.JPG,AFNE01.JPG,,,,,,,,,,,,,,,,,1,2,12,0,,,,,,,AFSA07.jpg,AFSA12.jpg,AFNE04.jpg,AFNE12.jpg,AFSA07.jpg,FS,4,num_8,32,num_6,0.383468765765,,,2017_Nov_15_1626,60.008372566,FEMA4ImagesEEG,001,102400,
AFNE01.JPG,AFNE01.JPG,AFNE01.JPG,AFNE01.JPG,AFNE01.JPG,AFNE01.JPG,,,,,,,,,,,,,,,,,1,3,13,7,,,,,,,AFNE09.jpg,AFSA15.jpg,AFNE20.jpg,AFSA05.jpg,AFNE20.jpg,FN,3,num_2,32,num_4,0.416783656459,,,2017_Nov_15_1626,60.008372566,FEMA4ImagesEEG,001,102400,
AFNE01.JPG,AFNE01.JPG,AFNE01.JPG,AFNE01.JPG,AFNE01.JPG,AFNE01.JPG,,,,,,,,,,,,,,,,,1,4,14,8,,,,,,,AFSA02.jpg,AFSA09.jpg,AFNE14.jpg,AFNE07.jpg,AFNE07.jpg,FN,3,num_4,32,num_8,0.51680017449,,,2017_Nov_15_1626,60.008372566,FEMA4ImagesEEG,001,102400,
AFNE01.JPG,AFNE01.JPG,AFNE01.JPG,AFNE01.JPG,AFNE01.JPG,AFNE01.JPG,,,,,,,,,,,,,,,,,1,5,15,1,,,,,,,AFNE05.jpg,AFSA09.jpg,AFSA05.jpg,AFNE11.jpg,AFSA09.jpg,FS,4,num_6,16,num_6,0.75011506537,,,2017_Nov_15_1626,60.008372566,FEMA4ImagesEEG,001,102400,
AFNE01.JPG,AFNE01.JPG,AFNE01.JPG,AFNE01.JPG,AFNE01.JPG,AFNE01.JPG,,,,,,,,,,,,,,,,,1,6,16,6,,,,,,,AFSA15.jpg,AFNE02.jpg,AFSA12.jpg,AFNE12.jpg,AFNE12.jpg,FN,3,num_4,16,num_4,1.21695332741,,,2017_Nov_15_1626,60.008372566,FEMA4ImagesEEG,001,102400,
AFNE01.JPG,AFNE01.JPG,AFNE01.JPG,AFNE01.JPG,AFNE01.JPG,AFNE01.JPG,,,,,,,,,,,,,,,,,1,7,17,9,,,,,,,AFNE12.jpg,AFNE07.jpg,AFSA12.jpg,AFSA18.jpg,AFSA18.jpg,FS,4,num_4,32,num_8,0.783273756038,,,2017_Nov_15_1626,60.008372566,FEMA4ImagesEEG,001,102400,
AFNE01.JPG,AFNE01.JPG,AFNE01.JPG,AFNE01.JPG,AFNE01.JPG,AFNE01.JPG,,,,,,,,,,,,,,,,,1,8,18,4,,,,,,,AFNE13.jpg,AFSA15.jpg,AFNE03.jpg,AFSA03.jpg,AFNE13.jpg,FN,3,num_8,32,num_6,0.366828479804,,,2017_Nov_15_1626,60.008372566,FEMA4ImagesEEG,001,102400,
AFNE01.JPG,AFNE01.JPG,AFNE01.JPG,AFNE01.JPG,AFNE01.JPG,AFNE01.JPG,,,,,,,,,,,,,,,,,1,9,19,3,,,,,,,AFNE12.jpg,AFNE20.jpg,AFSA02.jpg,AFSA06.jpg,AFSA06.jpg,FS,4,num_4,16,num_4,0.616796165239,,,2017_Nov_15_1626,60.008372566,FEMA4ImagesEEG,001,102400,
AFNE01.JPG,AFNE01.JPG,AFNE01.JPG,AFNE01.JPG,AFNE01.JPG,AFNE01.JPG,,,,,,,,,,,,,,,,,2,0,20,7,,,,,,,AFNE16.jpg,AFNE20.jpg,AFSA11.jpg,AFSA17.jpg,AFNE20.jpg,FN,3,num_6,16,num_6,0.816788788419,,,2017_Nov_15_1626,60.008372566,FEMA4ImagesEEG,001,102400,
AFNE01.JPG,AFNE01.JPG,AFNE01.JPG,AFNE01.JPG,AFNE01.JPG,AFNE01.JPG,,,,,,,,,,,,,,,,,2,1,21,4,,,,,,,AFSA04.jpg,AFNE10.jpg,AFNE14.jpg,AFSA20.jpg,AFSA20.jpg,FS,4,num_4,16,num_4,0.883555525448,,,2017_Nov_15_1626,60.008372566,FEMA4ImagesEEG,001,102400,
AFNE01.JPG,AFNE01.JPG,AFNE01.JPG,AFNE01.JPG,AFNE01.JPG,AFNE01.JPG,,,,,,,,,,,,,,,,,2,2,22,6,,,,,,,AFNE04.jpg,AFNE15.jpg,AFSA11.jpg,AFSA06.jpg,AFNE04.jpg,FN,3,num_8,16,num_8,0.850093735848,,,2017_Nov_15_1626,60.008372566,FEMA4ImagesEEG,001,102400,
AFNE01.JPG,AFNE01.JPG,AFNE01.JPG,AFNE01.JPG,AFNE01.JPG,AFNE01.JPG,,,,,,,,,,,,,,,,,2,3,23,0,,,,,,,AFNE09.jpg,AFSA19.jpg,AFNE14.jpg,AFSA08.jpg,AFSA08.jpg,FS,4,num_4,32,num_8,0.80012637144,,,2017_Nov_15_1626,60.008372566,FEMA4ImagesEEG,001,102400,
AFNE01.JPG,AFNE01.JPG,AFNE01.JPG,AFNE01.JPG,AFNE01.JPG,AFNE01.JPG,,,,,,,,,,,,,,,,,2,4,24,8,,,,,,,AFNE09.jpg,AFNE13.jpg,AFSA13.jpg,AFSA16.jpg,AFNE09.jpg,FN,3,num_8,32,num_4,0.516650709789,,,2017_Nov_15_1626,60.008372566,FEMA4ImagesEEG,001,102400,
AFNE01.JPG,AFNE01.JPG,AFNE01.JPG,AFNE01.JPG,AFNE01.JPG,AFNE01.JPG,,,,,,,,,,,,,,,,,2,5,25,1,,,,,,,AFNE15.jpg,AFSA10.jpg,AFNE11.jpg,AFSA12.jpg,AFNE11.jpg,FN,3,num_2,32,num_6,0.900127493776,,,2017_Nov_15_1626,60.008372566,FEMA4ImagesEEG,001,102400,
AFNE01.JPG,AFNE01.JPG,AFNE01.JPG,AFNE01.JPG,AFNE01.JPG,AFNE01.JPG,,,,,,,,,,,,,,,,,2,6,26,5,,,,,,,AFNE12.jpg,AFSA13.jpg,AFSA18.jpg,AFNE08.jpg,AFSA18.jpg,FS,4,num_2,32,num_4,0.533491136972,,,2017_Nov_15_1626,60.008372566,FEMA4ImagesEEG,001,102400,
AFNE01.JPG,AFNE01.JPG,AFNE01.JPG,AFNE01.JPG,AFNE01.JPG,AFNE01.JPG,,,,,,,,,,,,,,,,,2,7,27,2,,,,,,,AFSA04.jpg,AFNE04.jpg,AFSA08.jpg,AFNE07.jpg,AFSA04.jpg,FS,4,num_8,32,num_6,0.650167826563,,,2017_Nov_15_1626,60.008372566,FEMA4ImagesEEG,001,102400,
AFNE01.JPG,AFNE01.JPG,AFNE01.JPG,AFNE01.JPG,AFNE01.JPG,AFNE01.JPG,,,,,,,,,,,,,,,,,2,8,28,9,,,,,,,AFSA14.jpg,AFNE05.jpg,AFNE11.jpg,AFSA05.jpg,AFSA05.jpg,FS,4,num_4,16,num_4,0.916751101147,,,2017_Nov_15_1626,60.008372566,FEMA4ImagesEEG,001,102400,
AFNE01.JPG,AFNE01.JPG,AFNE01.JPG,AFNE01.JPG,AFNE01.JPG,AFNE01.JPG,,,,,,,,,,,,,,,,,2,9,29,3,,,,,,,AFNE03.jpg,AFSA20.jpg,AFSA02.jpg,AFNE01.jpg,AFSA20.jpg,FS,4,num_6,32,num_4,0.966765614692,,,2017_Nov_15_1626,60.008372566,FEMA4ImagesEEG,001,102400,
AFNE01.JPG,AFNE01.JPG,AFNE01.JPG,AFNE01.JPG,AFNE01.JPG,AFNE01.JPG,,,,,,,,,,,,,,,,,3,0,30,8,,,,,,,AFNE09.jpg,AFSA08.jpg,AFSA15.jpg,AFNE15.jpg,AFSA08.jpg,FS,4,num_6,32,num_4,1.00012220163,,,2017_Nov_15_1626,60.008372566,FEMA4ImagesEEG,001,102400,
AFNE01.JPG,AFNE01.JPG,AFNE01.JPG,AFNE01.JPG,AFNE01.JPG,AFNE01.JPG,,,,,,,,,,,,,,,,,3,1,31,0,,,,,,,AFSA07.jpg,AFSA09.jpg,AFNE20.jpg,AFNE11.jpg,AFNE20.jpg,FN,3,num_2,32,num_8,0.866802981123,,,2017_Nov_15_1626,60.008372566,FEMA4ImagesEEG,001,102400,
AFNE01.JPG,AFNE01.JPG,AFNE01.JPG,AFNE01.JPG,AFNE01.JPG,AFNE01.JPG,,,,,,,,,,,,,,,,,3,2,32,6,,,,,,,AFSA19.jpg,AFSA13.jpg,AFNE14.jpg,AFNE08.jpg,AFSA13.jpg,FS,4,num_6,32,num_4,1.08341856999,,,2017_Nov_15_1626,60.008372566,FEMA4ImagesEEG,001,102400,
AFNE01.JPG,AFNE01.JPG,AFNE01.JPG,AFNE01.JPG,AFNE01.JPG,AFNE01.JPG,,,,,,,,,,,,,,,,,3,3,33,3,,,,,,,AFNE11.jpg,AFNE02.jpg,AFSA12.jpg,AFSA14.jpg,AFNE11.jpg,FN,3,num_8,32,num_6,0.883494264446,,,2017_Nov_15_1626,60.008372566,FEMA4ImagesEEG,001,102400,
AFNE01.JPG,AFNE01.JPG,AFNE01.JPG,AFNE01.JPG,AFNE01.JPG,AFNE01.JPG,,,,,,,,,,,,,,,,,3,4,34,7,,,,,,,AFSA17.jpg,AFNE04.jpg,AFSA18.jpg,AFNE03.jpg,AFNE03.jpg,FN,3,num_4,16,num_4,0.850125489291,,,2017_Nov_15_1626,60.008372566,FEMA4ImagesEEG,001,102400,
AFNE01.JPG,AFNE01.JPG,AFNE01.JPG,AFNE01.JPG,AFNE01.JPG,AFNE01.JPG,,,,,,,,,,,,,,,,,3,5,35,9,,,,,,,AFNE02.jpg,AFNE13.jpg,AFSA17.jpg,AFSA09.jpg,AFSA17.jpg,FS,4,num_2,32,num_6,0.600164860021,,,2017_Nov_15_1626,60.008372566,FEMA4ImagesEEG,001,102400,
AFNE01.JPG,AFNE01.JPG,AFNE01.JPG,AFNE01.JPG,AFNE01.JPG,AFNE01.JPG,,,,,,,,,,,,,,,,,3,6,36,5,,,,,,,AFNE19.jpg,AFSA17.jpg,AFSA13.jpg,AFNE07.jpg,AFNE19.jpg,FN,3,num_8,32,num_6,0.816781090572,,,2017_Nov_15_1626,60.008372566,FEMA4ImagesEEG,001,102400,
AFNE01.JPG,AFNE01.JPG,AFNE01.JPG,AFNE01.JPG,AFNE01.JPG,AFNE01.JPG,,,,,,,,,,,,,,,,,3,7,37,1,,,,,,,AFNE02.jpg,AFSA05.jpg,AFNE13.jpg,AFSA14.jpg,AFSA05.jpg,FS,4,num_6,32,num_4,0.65020856075,,,2017_Nov_15_1626,60.008372566,FEMA4ImagesEEG,001,102400,
AFNE01.JPG,AFNE01.JPG,AFNE01.JPG,AFNE01.JPG,AFNE01.JPG,AFNE01.JPG,,,,,,,,,,,,,,,,,3,8,38,4,,,,,,,AFNE15.jpg,AFSA10.jpg,AFNE08.jpg,AFSA08.jpg,AFSA10.jpg,FS,4,num_6,16,num_6,0.750045144465,,,2017_Nov_15_1626,60.008372566,FEMA4ImagesEEG,001,102400,
AFNE01.JPG,AFNE01.JPG,AFNE01.JPG,AFNE01.JPG,AFNE01.JPG,AFNE01.JPG,,,,,,,,,,,,,,,,,3,9,39,2,,,,,,,AFNE19.jpg,AFNE03.jpg,AFSA19.jpg,AFSA03.jpg,AFNE03.jpg,FN,3,num_6,32,num_8,0.566794802435,,,2017_Nov_15_1626,60.008372566,FEMA4ImagesEEG,001,102400,
AFNE01.JPG,AFNE01.JPG,AFNE01.JPG,AFNE01.JPG,AFNE01.JPG,AFNE01.JPG,,,,,,,,,,,,,,,,,4,0,40,8,,,,,,,AFNE04.jpg,AFSA18.jpg,AFSA16.jpg,AFNE06.jpg,AFSA18.jpg,FS,4,num_6,16,num_6,0.750173118897,,,2017_Nov_15_1626,60.008372566,FEMA4ImagesEEG,001,102400,
AFNE01.JPG,AFNE01.JPG,AFNE01.JPG,AFNE01.JPG,AFNE01.JPG,AFNE01.JPG,,,,,,,,,,,,,,,,,4,1,41,9,,,,,,,AFNE06.jpg,AFSA09.jpg,AFNE15.jpg,AFSA14.jpg,AFSA09.jpg,FS,4,num_6,32,num_4,0.616776600014,,,2017_Nov_15_1626,60.008372566,FEMA4ImagesEEG,001,102400,
AFNE01.JPG,AFNE01.JPG,AFNE01.JPG,AFNE01.JPG,AFNE01.JPG,AFNE01.JPG,,,,,,,,,,,,,,,,,4,2,42,1,,,,,,,AFSA07.jpg,AFNE12.jpg,AFSA14.jpg,AFNE19.jpg,AFNE19.jpg,FN,3,num_4,32,num_8,0.766803782899,,,2017_Nov_15_1626,60.008372566,FEMA4ImagesEEG,001,102400,
AFNE01.JPG,AFNE01.JPG,AFNE01.JPG,AFNE01.JPG,AFNE01.JPG,AFNE01.JPG,,,,,,,,,,,,,,,,,4,3,43,2,,,,,,,AFSA01.jpg,AFNE01.jpg,AFSA18.jpg,AFNE06.jpg,AFNE01.jpg,FN,3,num_6,16,num_6,2.93361045234,,,2017_Nov_15_1626,60.008372566,FEMA4ImagesEEG,001,102400,
AFNE01.JPG,AFNE01.JPG,AFNE01.JPG,AFNE01.JPG,AFNE01.JPG,AFNE01.JPG,,,,,,,,,,,,,,,,,4,4,44,3,,,,,,,AFNE15.jpg,AFSA09.jpg,AFSA13.jpg,AFNE17.jpg,AFNE15.jpg,FN,3,num_8,32,num_4,0.733464836609,,,2017_Nov_15_1626,60.008372566,FEMA4ImagesEEG,001,102400,
AFNE01.JPG,AFNE01.JPG,AFNE01.JPG,AFNE01.JPG,AFNE01.JPG,AFNE01.JPG,,,,,,,,,,,,,,,,,4,5,45,5,,,,,,,AFNE12.jpg,AFSA19.jpg,AFSA11.jpg,AFNE05.jpg,AFSA11.jpg,FS,4,num_2,32,num_8,0.966820781585,,,2017_Nov_15_1626,60.008372566,FEMA4ImagesEEG,001,102400,
AFNE01.JPG,AFNE01.JPG,AFNE01.JPG,AFNE01.JPG,AFNE01.JPG,AFNE01.JPG,,,,,,,,,,,,,,,,,4,6,46,4,,,,,,,AFNE12.jpg,AFNE17.jpg,AFSA04.jpg,AFSA06.jpg,AFNE17.jpg,FN,3,num_6,16,num_6,0.733646374661,,,2017_Nov_15_1626,60.008372566,FEMA4ImagesEEG,001,102400,
AFNE01.JPG,AFNE01.JPG,AFNE01.JPG,AFNE01.JPG,AFNE01.JPG,AFNE01.JPG,,,,,,,,,,,,,,,,,4,7,47,6,,,,,,,AFNE03.jpg,AFSA10.jpg,AFNE14.jpg,AFSA19.jpg,AFSA19.jpg,FS,4,num_4,16,num_4,2.73331248527,,,2017_Nov_15_1626,60.008372566,FEMA4ImagesEEG,001,102400,
AFNE01.JPG,AFNE01.JPG,AFNE01.JPG,AFNE01.JPG,AFNE01.JPG,AFNE01.JPG,,,,,,,,,,,,,,,,,4,8,48,7,,,,,,,AFSA04.jpg,AFSA06.jpg,AFNE07.jpg,AFNE17.jpg,AFSA04.jpg,FS,4,num_8,32,num_6,1.21684299316,,,2017_Nov_15_1626,60.008372566,FEMA4ImagesEEG,001,102400,
AFNE01.JPG,AFNE01.JPG,AFNE01.JPG,AFNE01.JPG,AFNE01.JPG,AFNE01.JPG,,,,,,,,,,,,,,,,,4,9,49,0,,,,,,,AFNE05.jpg,AFSA04.jpg,AFNE13.jpg,AFSA12.jpg,AFNE13.jpg,FN,3,num_2,32,num_8,1.31683192775,,,2017_Nov_15_1626,60.008372566,FEMA4ImagesEEG,001,102400,
AFNE01.JPG,AFNE01.JPG,AFNE01.JPG,AFNE01.JPG,AFNE01.JPG,AFNE01.JPG,,,,,,,,,,,,,,,,,5,0,50,0,,,,,,,AFNE20.jpg,AFSA06.jpg,AFSA04.jpg,AFNE04.jpg,AFNE04.jpg,FN,3,num_4,32,num_6,1.25015531806,,,2017_Nov_15_1626,60.008372566,FEMA4ImagesEEG,001,102400,
AFNE01.JPG,AFNE01.JPG,AFNE01.JPG,AFNE01.JPG,AFNE01.JPG,AFNE01.JPG,,,,,,,,,,,,,,,,,5,1,51,7,,,,,,,AFNE09.jpg,AFSA11.jpg,AFSA15.jpg,AFNE13.jpg,AFNE09.jpg,FN,3,num_8,16,num_8,0.816764732823,,,2017_Nov_15_1626,60.008372566,FEMA4ImagesEEG,001,102400,
AFNE01.JPG,AFNE01.JPG,AFNE01.JPG,AFNE01.JPG,AFNE01.JPG,AFNE01.JPG,,,,,,,,,,,,,,,,,5,2,52,5,,,,,,,AFNE08.jpg,AFSA10.jpg,AFSA19.jpg,AFNE09.jpg,AFSA19.jpg,FS,4,num_2,16,num_2,1.03349322174,,,2017_Nov_15_1626,60.008372566,FEMA4ImagesEEG,001,102400,
AFNE01.JPG,AFNE01.JPG,AFNE01.JPG,AFNE01.JPG,AFNE01.JPG,AFNE01.JPG,,,,,,,,,,,,,,,,,5,3,53,6,,,,,,,AFSA04.jpg,AFNE11.jpg,AFNE07.jpg,AFSA07.jpg,AFSA07.jpg,FS,4,num_4,16,num_4,1.0001792931,,,2017_Nov_15_1626,60.008372566,FEMA4ImagesEEG,001,102400,
AFNE01.JPG,AFNE01.JPG,AFNE01.JPG,AFNE01.JPG,AFNE01.JPG,AFNE01.JPG,,,,,,,,,,,,,,,,,5,4,54,8,,,,,,,AFSA05.jpg,AFSA14.jpg,AFNE20.jpg,AFNE18.jpg,AFSA05.jpg,FS,4,num_8,32,num_6,1.01679873094,,,2017_Nov_15_1626,60.008372566,FEMA4ImagesEEG,001,102400,
AFNE01.JPG,AFNE01.JPG,AFNE01.JPG,AFNE01.JPG,AFNE01.JPG,AFNE01.JPG,,,,,,,,,,,,,,,,,5,5,55,1,,,,,,,AFSA09.jpg,AFNE02.jpg,AFSA11.jpg,AFNE20.jpg,AFSA09.jpg,FS,4,num_8,32,num_4,0.933461950161,,,2017_Nov_15_1626,60.008372566,FEMA4ImagesEEG,001,102400,
AFNE01.JPG,AFNE01.JPG,AFNE01.JPG,AFNE01.JPG,AFNE01.JPG,AFNE01.JPG,,,,,,,,,,,,,,,,,5,6,56,2,,,,,,,AFSA03.jpg,AFNE11.jpg,AFSA05.jpg,AFNE10.jpg,AFSA05.jpg,FS,4,num_2,32,num_8,0.800107768271,,,2017_Nov_15_1626,60.008372566,FEMA4ImagesEEG,001,102400,
AFNE01.JPG,AFNE01.JPG,AFNE01.JPG,AFNE01.JPG,AFNE01.JPG,AFNE01.JPG,,,,,,,,,,,,,,,,,5,7,57,4,,,,,,,AFNE19.jpg,AFSA08.jpg,AFSA14.jpg,AFNE09.jpg,AFNE19.jpg,FN,3,num_8,32,num_6,0.700132304803,,,2017_Nov_15_1626,60.008372566,FEMA4ImagesEEG,001,102400,
AFNE01.JPG,AFNE01.JPG,AFNE01.JPG,AFNE01.JPG,AFNE01.JPG,AFNE01.JPG,,,,,,,,,,,,,,,,,5,8,58,9,,,,,,,AFSA16.jpg,AFSA13.jpg,AFNE03.jpg,AFNE12.jpg,AFNE03.jpg,FN,3,num_2,16,num_2,1.91669176472,,,2017_Nov_15_1626,60.008372566,FEMA4ImagesEEG,001,102400,
AFNE01.JPG,AFNE01.JPG,AFNE01.JPG,AFNE01.JPG,AFNE01.JPG,AFNE01.JPG,,,,,,,,,,,,,,,,,5,9,59,3,,,,,,,AFSA20.jpg,AFNE12.jpg,AFSA11.jpg,AFNE17.jpg,AFSA20.jpg,FS,4,num_8,32,num_4,1.16674284218,,,2017_Nov_15_1626,60.008372566,FEMA4ImagesEEG,001,102400,
,,,,,,,,,,,,,,,,,,,,,,,,,,,,,,,,,,,,,,,,,,,space,13.848786402,2017_Nov_15_1626,60.008372566,FEMA4ImagesEEG,001,102400,
AFNE01.JPG,AFNE01.JPG,AFNE01.JPG,AFNE01.JPG,AFNE01.JPG,AFNE01.JPG,,,,,,,,,,,,,,,,,,,,,0,0,0,3,,,AMNE10.jpg,AMNE06.jpg,AMSA12.jpg,AMSA14.jpg,AMNE06.jpg,MN,1,num_6,32,num_4,1.93340485822,,,2017_Nov_15_1626,60.008372566,FEMA4ImagesEEG,001,102400,
AFNE01.JPG,AFNE01.JPG,AFNE01.JPG,AFNE01.JPG,AFNE01.JPG,AFNE01.JPG,,,,,,,,,,,,,,,,,,,,,0,1,1,5,,,AMNE10.jpg,AMSA18.jpg,AMNE15.jpg,AMSA20.jpg,AMNE15.jpg,MN,1,num_2,32,num_6,0.683458020911,,,2017_Nov_15_1626,60.008372566,FEMA4ImagesEEG,001,102400,
AFNE01.JPG,AFNE01.JPG,AFNE01.JPG,AFNE01.JPG,AFNE01.JPG,AFNE01.JPG,,,,,,,,,,,,,,,,,,,,,0,2,2,2,,,AMNE01.jpg,AMSA19.jpg,AMNE17.jpg,AMSA08.jpg,AMSA08.jpg,MS,2,num_4,32,num_8,0.500175284222,,,2017_Nov_15_1626,60.008372566,FEMA4ImagesEEG,001,102400,
AFNE01.JPG,AFNE01.JPG,AFNE01.JPG,AFNE01.JPG,AFNE01.JPG,AFNE01.JPG,,,,,,,,,,,,,,,,,,,,,0,3,3,6,,,AMNE17.jpg,AMSA02.jpg,AMSA18.jpg,AMNE10.jpg,AMSA02.jpg,MS,2,num_6,48,None,,,,2017_Nov_15_1626,60.008372566,FEMA4ImagesEEG,001,102400,
AFNE01.JPG,AFNE01.JPG,AFNE01.JPG,AFNE01.JPG,AFNE01.JPG,AFNE01.JPG,,,,,,,,,,,,,,,,,,,,,0,4,4,0,,,AMNE15.jpg,AMSA18.jpg,AMNE01.jpg,AMSA03.jpg,AMNE15.jpg,MN,1,num_8,16,num_8,0.70012043789,,,2017_Nov_15_1626,60.008372566,FEMA4ImagesEEG,001,102400,
AFNE01.JPG,AFNE01.JPG,AFNE01.JPG,AFNE01.JPG,AFNE01.JPG,AFNE01.JPG,,,,,,,,,,,,,,,,,,,,,0,5,5,9,,,AMSA05.jpg,AMNE17.jpg,AMNE04.jpg,AMSA13.jpg,AMSA13.jpg,MS,2,num_4,32,num_6,0.850106886122,,,2017_Nov_15_1626,60.008372566,FEMA4ImagesEEG,001,102400,
AFNE01.JPG,AFNE01.JPG,AFNE01.JPG,AFNE01.JPG,AFNE01.JPG,AFNE01.JPG,,,,,,,,,,,,,,,,,,,,,0,6,6,1,,,AMSA04.jpg,AMNE05.jpg,AMNE20.jpg,AMSA08.jpg,AMSA08.jpg,MS,2,num_4,16,num_4,0.850000400562,,,2017_Nov_15_1626,60.008372566,FEMA4ImagesEEG,001,102400,
AFNE01.JPG,AFNE01.JPG,AFNE01.JPG,AFNE01.JPG,AFNE01.JPG,AFNE01.JPG,,,,,,,,,,,,,,,,,,,,,0,7,7,4,,,AMSA02.jpg,AMNE01.jpg,AMSA10.jpg,AMNE18.jpg,AMSA02.jpg,MS,2,num_8,32,num_6,0.716425551102,,,2017_Nov_15_1626,60.008372566,FEMA4ImagesEEG,001,102400,
AFNE01.JPG,AFNE01.JPG,AFNE01.JPG,AFNE01.JPG,AFNE01.JPG,AFNE01.JPG,,,,,,,,,,,,,,,,,,,,,0,8,8,7,,,AMNE04.jpg,AMSA16.jpg,AMSA05.jpg,AMNE05.jpg,AMSA05.jpg,MS,2,num_2,32,num_6,0.983492820989,,,2017_Nov_15_1626,60.008372566,FEMA4ImagesEEG,001,102400,
AFNE01.JPG,AFNE01.JPG,AFNE01.JPG,AFNE01.JPG,AFNE01.JPG,AFNE01.JPG,,,,,,,,,,,,,,,,,,,,,0,9,9,8,,,AMSA04.jpg,AMNE19.jpg,AMSA11.jpg,AMNE15.jpg,AMNE19.jpg,MN,1,num_6,32,num_4,3.43330206117,,,2017_Nov_15_1626,60.008372566,FEMA4ImagesEEG,001,102400,
AFNE01.JPG,AFNE01.JPG,AFNE01.JPG,AFNE01.JPG,AFNE01.JPG,AFNE01.JPG,,,,,,,,,,,,,,,,,,,,,1,0,10,1,,,AMSA17.jpg,AMNE09.jpg,AMSA09.jpg,AMNE10.jpg,AMNE10.jpg,MN,1,num_4,32,num_6,1.36677459581,,,2017_Nov_15_1626,60.008372566,FEMA4ImagesEEG,001,102400,
AFNE01.JPG,AFNE01.JPG,AFNE01.JPG,AFNE01.JPG,AFNE01.JPG,AFNE01.JPG,,,,,,,,,,,,,,,,,,,,,1,1,11,9,,,AMSA20.jpg,AMNE14.jpg,AMSA04.jpg,AMNE13.jpg,AMNE14.jpg,MN,1,num_6,32,num_4,0.900423536543,,,2017_Nov_15_1626,60.008372566,FEMA4ImagesEEG,001,102400,
AFNE01.JPG,AFNE01.JPG,AFNE01.JPG,AFNE01.JPG,AFNE01.JPG,AFNE01.JPG,,,,,,,,,,,,,,,,,,,,,1,2,12,8,,,AMNE04.jpg,AMSA16.jpg,AMNE01.jpg,AMSA14.jpg,AMNE04.jpg,MN,1,num_8,32,num_4,2.2833566675,,,2017_Nov_15_1626,60.008372566,FEMA4ImagesEEG,001,102400,
AFNE01.JPG,AFNE01.JPG,AFNE01.JPG,AFNE01.JPG,AFNE01.JPG,AFNE01.JPG,,,,,,,,,,,,,,,,,,,,,1,3,13,5,,,AMNE19.jpg,AMSA17.jpg,AMNE20.jpg,AMSA11.jpg,AMNE20.jpg,MN,1,num_2,32,num_8,3.29986160062,,,2017_Nov_15_1626,60.008372566,FEMA4ImagesEEG,001,102400,
AFNE01.JPG,AFNE01.JPG,AFNE01.JPG,AFNE01.JPG,AFNE01.JPG,AFNE01.JPG,,,,,,,,,,,,,,,,,,,,,1,4,14,6,,,AMSA12.jpg,AMNE05.jpg,AMNE19.jpg,AMSA17.jpg,AMNE05.jpg,MN,1,num_6,32,num_8,3.46658199141,,,2017_Nov_15_1626,60.008372566,FEMA4ImagesEEG,001,102400,
AFNE01.JPG,AFNE01.JPG,AFNE01.JPG,AFNE01.JPG,AFNE01.JPG,AFNE01.JPG,,,,,,,,,,,,,,,,,,,,,1,5,15,3,,,AMNE11.jpg,AMSA09.jpg,AMSA07.jpg,AMNE14.jpg,AMNE11.jpg,MN,1,num_8,32,num_6,3.19998909486,,,2017_Nov_15_1626,60.008372566,FEMA4ImagesEEG,001,102400,
AFNE01.JPG,AFNE01.JPG,AFNE01.JPG,AFNE01.JPG,AFNE01.JPG,AFNE01.JPG,,,,,,,,,,,,,,,,,,,,,1,6,16,7,,,AMSA17.jpg,AMNE13.jpg,AMSA18.jpg,AMNE01.jpg,AMSA17.jpg,MS,2,num_8,32,num_6,3.7665888872,,,2017_Nov_15_1626,60.008372566,FEMA4ImagesEEG,001,102400,
AFNE01.JPG,AFNE01.JPG,AFNE01.JPG,AFNE01.JPG,AFNE01.JPG,AFNE01.JPG,,,,,,,,,,,,,,,,,,,,,1,7,17,0,,,AMNE14.jpg,AMNE13.jpg,AMSA08.jpg,AMSA20.jpg,AMSA08.jpg,MS,2,num_2,32,num_6,2.30001138616,,,2017_Nov_15_1626,60.008372566,FEMA4ImagesEEG,001,102400,
AFNE01.JPG,AFNE01.JPG,AFNE01.JPG,AFNE01.JPG,AFNE01.JPG,AFNE01.JPG,,,,,,,,,,,,,,,,,,,,,1,8,18,4,,,AMSA18.jpg,AMNE17.jpg,AMNE05.jpg,AMSA14.jpg,AMNE17.jpg,MN,1,num_6,32,num_2,1.35009133071,,,2017_Nov_15_1626,60.008372566,FEMA4ImagesEEG,001,102400,
AFNE01.JPG,AFNE01.JPG,AFNE01.JPG,AFNE01.JPG,AFNE01.JPG,AFNE01.JPG,,,,,,,,,,,,,,,,,,,,,1,9,19,2,,,AMSA10.jpg,AMSA17.jpg,AMNE20.jpg,AMNE16.jpg,AMNE20.jpg,MN,1,num_2,32,num_8,0.916766496841,,,2017_Nov_15_1626,60.008372566,FEMA4ImagesEEG,001,102400,
AFNE01.JPG,AFNE01.JPG,AFNE01.JPG,AFNE01.JPG,AFNE01.JPG,AFNE01.JPG,,,,,,,,,,,,,,,,,,,,,2,0,20,5,,,AMSA20.jpg,AMNE03.jpg,AMSA07.jpg,AMNE08.jpg,AMSA20.jpg,MS,2,num_8,16,num_8,1.61669545295,,,2017_Nov_15_1626,60.008372566,FEMA4ImagesEEG,001,102400,
AFNE01.JPG,AFNE01.JPG,AFNE01.JPG,AFNE01.JPG,AFNE01.JPG,AFNE01.JPG,,,,,,,,,,,,,,,,,,,,,2,1,21,0,,,AMNE19.jpg,AMSA12.jpg,AMSA13.jpg,AMNE03.jpg,AMNE19.jpg,MN,1,num_8,16,num_8,1.78347999137,,,2017_Nov_15_1626,60.008372566,FEMA4ImagesEEG,001,102400,
AFNE01.JPG,AFNE01.JPG,AFNE01.JPG,AFNE01.JPG,AFNE01.JPG,AFNE01.JPG,,,,,,,,,,,,,,,,,,,,,2,2,22,1,,,AMNE13.jpg,AMSA12.jpg,AMSA11.jpg,AMNE03.jpg,AMNE03.jpg,MN,1,num_4,32,num_8,2.66666506277,,,2017_Nov_15_1626,60.008372566,FEMA4ImagesEEG,001,102400,
AFNE01.JPG,AFNE01.JPG,AFNE01.JPG,AFNE01.JPG,AFNE01.JPG,AFNE01.JPG,,,,,,,,,,,,,,,,,,,,,2,3,23,6,,,AMNE19.jpg,AMSA04.jpg,AMNE03.jpg,AMSA03.jpg,AMNE19.jpg,MN,1,num_8,32,num_6,3.99989736313,,,2017_Nov_15_1626,60.008372566,FEMA4ImagesEEG,001,102400,
AFNE01.JPG,AFNE01.JPG,AFNE01.JPG,AFNE01.JPG,AFNE01.JPG,AFNE01.JPG,,,,,,,,,,,,,,,,,,,,,2,4,24,2,,,AMNE14.jpg,AMSA12.jpg,AMNE19.jpg,AMSA10.jpg,AMSA12.jpg,MS,2,num_6,16,num_6,0.833495787811,,,2017_Nov_15_1626,60.008372566,FEMA4ImagesEEG,001,102400,
AFNE01.JPG,AFNE01.JPG,AFNE01.JPG,AFNE01.JPG,AFNE01.JPG,AFNE01.JPG,,,,,,,,,,,,,,,,,,,,,2,5,25,4,,,AMNE05.jpg,AMSA14.jpg,AMNE10.jpg,AMSA07.jpg,AMNE05.jpg,MN,1,num_8,32,num_4,2.54998420319,,,2017_Nov_15_1626,60.008372566,FEMA4ImagesEEG,001,102400,
AFNE01.JPG,AFNE01.JPG,AFNE01.JPG,AFNE01.JPG,AFNE01.JPG,AFNE01.JPG,,,,,,,,,,,,,,,,,,,,,2,6,26,7,,,AMSA06.jpg,AMNE17.jpg,AMSA08.jpg,AMNE01.jpg,AMNE17.jpg,MN,1,num_6,16,num_6,1.43344992213,,,2017_Nov_15_1626,60.008372566,FEMA4ImagesEEG,001,102400,
AFNE01.JPG,AFNE01.JPG,AFNE01.JPG,AFNE01.JPG,AFNE01.JPG,AFNE01.JPG,,,,,,,,,,,,,,,,,,,,,2,7,27,8,,,AMNE02.jpg,AMNE17.jpg,AMSA19.jpg,AMSA16.jpg,AMNE02.jpg,MN,1,num_8,32,num_4,0.783499877434,,,2017_Nov_15_1626,60.008372566,FEMA4ImagesEEG,001,102400,
AFNE01.JPG,AFNE01.JPG,AFNE01.JPG,AFNE01.JPG,AFNE01.JPG,AFNE01.JPG,,,,,,,,,,,,,,,,,,,,,2,8,28,3,,,AMNE05.jpg,AMSA16.jpg,AMNE14.jpg,AMSA13.jpg,AMSA16.jpg,MS,2,num_6,32,num_8,0.616861596238,,,2017_Nov_15_1626,60.008372566,FEMA4ImagesEEG,001,102400,
AFNE01.JPG,AFNE01.JPG,AFNE01.JPG,AFNE01.JPG,AFNE01.JPG,AFNE01.JPG,,,,,,,,,,,,,,,,,,,,,2,9,29,9,,,AMNE19.jpg,AMSA09.jpg,AMSA19.jpg,AMNE18.jpg,AMNE19.jpg,MN,1,num_8,32,num_6,0.500158284791,,,2017_Nov_15_1626,60.008372566,FEMA4ImagesEEG,001,102400,
AFNE01.JPG,AFNE01.JPG,AFNE01.JPG,AFNE01.JPG,AFNE01.JPG,AFNE01.JPG,,,,,,,,,,,,,,,,,,,,,3,0,30,7,,,AMSA10.jpg,AMNE03.jpg,AMSA15.jpg,AMNE09.jpg,AMSA10.jpg,MS,2,num_8,48,None,,,,2017_Nov_15_1626,60.008372566,FEMA4ImagesEEG,001,102400,
AFNE01.JPG,AFNE01.JPG,AFNE01.JPG,AFNE01.JPG,AFNE01.JPG,AFNE01.JPG,,,,,,,,,,,,,,,,,,,,,3,1,31,2,,,AMNE01.jpg,AMNE09.jpg,AMSA14.jpg,AMSA01.jpg,AMSA14.jpg,MS,2,num_2,32,num_6,0.733492420521,,,2017_Nov_15_1626,60.008372566,FEMA4ImagesEEG,001,102400,
AFNE01.JPG,AFNE01.JPG,AFNE01.JPG,AFNE01.JPG,AFNE01.JPG,AFNE01.JPG,,,,,,,,,,,,,,,,,,,,,3,2,32,4,,,AMNE02.jpg,AMNE05.jpg,AMSA09.jpg,AMSA01.jpg,AMSA09.jpg,MS,2,num_2,48,None,,,,2017_Nov_15_1626,60.008372566,FEMA4ImagesEEG,001,102400,
AFNE01.JPG,AFNE01.JPG,AFNE01.JPG,AFNE01.JPG,AFNE01.JPG,AFNE01.JPG,,,,,,,,,,,,,,,,,,,,,3,3,33,3,,,AMSA12.jpg,AMSA09.jpg,AMNE06.jpg,AMNE07.jpg,AMNE06.jpg,MN,1,num_2,32,num_8,1.00015555881,,,2017_Nov_15_1626,60.008372566,FEMA4ImagesEEG,001,102400,
AFNE01.JPG,AFNE01.JPG,AFNE01.JPG,AFNE01.JPG,AFNE01.JPG,AFNE01.JPG,,,,,,,,,,,,,,,,,,,,,3,4,34,8,,,AMNE09.jpg,AMSA08.jpg,AMSA15.jpg,AMNE12.jpg,AMSA08.jpg,MS,2,num_6,32,num_4,2.53334103106,,,2017_Nov_15_1626,60.008372566,FEMA4ImagesEEG,001,102400,
AFNE01.JPG,AFNE01.JPG,AFNE01.JPG,AFNE01.JPG,AFNE01.JPG,AFNE01.JPG,,,,,,,,,,,,,,,,,,,,,3,5,35,6,,,AMSA14.jpg,AMSA18.jpg,AMNE20.jpg,AMNE12.jpg,AMSA14.jpg,MS,2,num_8,16,num_8,0.816789750475,,,2017_Nov_15_1626,60.008372566,FEMA4ImagesEEG,001,102400,
AFNE01.JPG,AFNE01.JPG,AFNE01.JPG,AFNE01.JPG,AFNE01.JPG,AFNE01.JPG,,,,,,,,,,,,,,,,,,,,,3,6,36,0,,,AMSA11.jpg,AMNE04.jpg,AMSA03.jpg,AMNE13.jpg,AMNE13.jpg,MN,1,num_4,16,num_4,2.0334175271,,,2017_Nov_15_1626,60.008372566,FEMA4ImagesEEG,001,102400,
AFNE01.JPG,AFNE01.JPG,AFNE01.JPG,AFNE01.JPG,AFNE01.JPG,AFNE01.JPG,,,,,,,,,,,,,,,,,,,,,3,7,37,1,,,AMNE05.jpg,AMSA02.jpg,AMNE17.jpg,AMSA17.jpg,AMSA02.jpg,MS,2,num_6,32,num_4,0.800152030773,,,2017_Nov_15_1626,60.008372566,FEMA4ImagesEEG,001,102400,
AFNE01.JPG,AFNE01.JPG,AFNE01.JPG,AFNE01.JPG,AFNE01.JPG,AFNE01.JPG,,,,,,,,,,,,,,,,,,,,,3,8,38,5,,,AMNE12.jpg,AMSA20.jpg,AMSA19.jpg,AMNE16.jpg,AMNE12.jpg,MN,1,num_8,32,num_6,0.883493943606,,,2017_Nov_15_1626,60.008372566,FEMA4ImagesEEG,001,102400,
AFNE01.JPG,AFNE01.JPG,AFNE01.JPG,AFNE01.JPG,AFNE01.JPG,AFNE01.JPG,,,,,,,,,,,,,,,,,,,,,3,9,39,9,,,AMNE10.jpg,AMSA03.jpg,AMNE17.jpg,AMSA08.jpg,AMNE10.jpg,MN,1,num_8,32,num_4,0.450193806551,,,2017_Nov_15_1626,60.008372566,FEMA4ImagesEEG,001,102400,
AFNE01.JPG,AFNE01.JPG,AFNE01.JPG,AFNE01.JPG,AFNE01.JPG,AFNE01.JPG,,,,,,,,,,,,,,,,,,,,,4,0,40,6,,,AMSA06.jpg,AMNE05.jpg,AMNE03.jpg,AMSA07.jpg,AMSA06.jpg,MS,2,num_8,32,num_4,2.76662609307,,,2017_Nov_15_1626,60.008372566,FEMA4ImagesEEG,001,102400,
AFNE01.JPG,AFNE01.JPG,AFNE01.JPG,AFNE01.JPG,AFNE01.JPG,AFNE01.JPG,,,,,,,,,,,,,,,,,,,,,4,1,41,1,,,AMNE17.jpg,AMSA01.jpg,AMSA10.jpg,AMNE07.jpg,AMSA10.jpg,MS,2,num_2,32,num_8,0.750028786249,,,2017_Nov_15_1626,60.008372566,FEMA4ImagesEEG,001,102400,
