IPosition2,IPosition3,IPosition1,IPosition6,IPosition4,IPosition5,TrialsF1.thisRepN,TrialsF1.thisTrialN,TrialsF1.thisN,TrialsF1.thisIndex,TrialsM1.thisRepN,TrialsM1.thisTrialN,TrialsM1.thisN,TrialsM1.thisIndex,TrialsF2.thisRepN,TrialsF2.thisTrialN,TrialsF2.thisN,TrialsF2.thisIndex,TrialsM2.thisRepN,TrialsM2.thisTrialN,TrialsM2.thisN,TrialsM2.thisIndex,TrialsF3.thisRepN,TrialsF3.thisTrialN,TrialsF3.thisN,TrialsF3.thisIndex,TrialsM3.thisRepN,TrialsM3.thisTrialN,TrialsM3.thisN,TrialsM3.thisIndex,InstrKey_resp.keys,InstrKey_resp.rt,Image0 _Position,Image1 _Position,Image2 _Position,Image3 _Position,Center_image,condition,code,correct_answer,accuracy,Key_Resp.keys,Key_Resp.rt,BreakKey_resp.keys,BreakKey_resp.rt,date,frameRate,expName,session,participant,
,,,,,,,,,,,,,,,,,,,,,,,,,,,,,,space,23.9653062836,,,,,,,,,,,,,,2017_Nov_29_1413,60.00588934,FEMA4ImagesEEG,001,102496,
AMSA21.JPG,AMNE22.JPG,AMNE21.JPG,AMSA23.JPG,AMSA22.JPG,AMNE23.JPG,0,0,0,1,,,,,,,,,,,,,,,,,,,,,,,AFNE02.jpg,AFSA01.jpg,AFNE17.jpg,AFSA07.jpg,AFSA01.jpg,FS,4,num_6,32,num_8,1.26679310214,,,2017_Nov_29_1413,60.00588934,FEMA4ImagesEEG,001,102496,
AMSA21.JPG,AMNE23.JPG,AMNE21.JPG,AMSA25.JPG,AMNE25.JPG,AMSA23.JPG,0,1,1,5,,,,,,,,,,,,,,,,,,,,,,,AFNE05.jpg,AFSA08.jpg,AFNE11.jpg,AFSA11.jpg,AFNE05.jpg,FN,3,num_8,32,num_4,1.18345223134,,,2017_Nov_29_1413,60.00588934,FEMA4ImagesEEG,001,102496,
AMNE23.JPG,AMNE24.JPG,AMNE22.JPG,AMSA24.JPG,AMSA22.JPG,AMSA23.JPG,0,2,2,9,,,,,,,,,,,,,,,,,,,,,,,AFSA12.jpg,AFSA07.jpg,AFNE17.jpg,AFNE03.jpg,AFSA07.jpg,FS,4,num_6,16,num_6,1.7666952766,,,2017_Nov_29_1413,60.00588934,FEMA4ImagesEEG,001,102496,
AFNE22.JPG,AFSA24.JPG,AFSA22.JPG,AFNE25.JPG,AFNE24.JPG,AFSA25.JPG,0,3,3,6,,,,,,,,,,,,,,,,,,,,,,,AFNE15.jpg,AFSA14.jpg,AFSA03.jpg,AFNE19.jpg,AFNE15.jpg,FN,3,num_8,32,num_2,1.40007434727,,,2017_Nov_29_1413,60.00588934,FEMA4ImagesEEG,001,102496,
AFSA21.JPG,AFNE22.JPG,AFNE21.JPG,AFSA23.JPG,AFSA22.JPG,AFNE23.JPG,0,4,4,0,,,,,,,,,,,,,,,,,,,,,,,AFSA13.jpg,AFNE08.jpg,AFNE17.jpg,AFSA11.jpg,AFNE08.jpg,FN,3,num_6,32,num_4,2.18305259035,,,2017_Nov_29_1413,60.00588934,FEMA4ImagesEEG,001,102496,
AMSA25.JPG,AMNE24.JPG,AMSA24.JPG,AMNE26.JPG,AMSA21.JPG,AMNE25.JPG,0,5,5,3,,,,,,,,,,,,,,,,,,,,,,,AFSA10.jpg,AFSA19.jpg,AFNE10.jpg,AFNE19.jpg,AFSA19.jpg,FS,4,num_6,16,num_6,1.58338513272,,,2017_Nov_29_1413,60.00588934,FEMA4ImagesEEG,001,102496,
AMNE22.JPG,AMSA24.JPG,AMSA22.JPG,AMNE25.JPG,AMNE24.JPG,AMSA25.JPG,0,6,6,7,,,,,,,,,,,,,,,,,,,,,,,AFNE18.jpg,AFSA02.jpg,AFNE20.jpg,AFSA06.jpg,AFSA06.jpg,FS,4,num_4,16,num_4,1.28365115379,,,2017_Nov_29_1413,60.00588934,FEMA4ImagesEEG,001,102496,
AFSA25.JPG,AFNE24.JPG,AFSA24.JPG,AFNE21.JPG,AFSA21.JPG,AFNE25.JPG,0,7,7,2,,,,,,,,,,,,,,,,,,,,,,,AFSA09.jpg,AFNE05.jpg,AFNE15.jpg,AFSA13.jpg,AFSA13.jpg,FS,4,num_4,16,num_4,0.98342259496,,,2017_Nov_29_1413,60.00588934,FEMA4ImagesEEG,001,102496,
AFSA21.JPG,AFNE23.JPG,AFNE21.JPG,AFSA25.JPG,AFNE25.JPG,AFSA23.JPG,0,8,8,4,,,,,,,,,,,,,,,,,,,,,,,AFNE06.jpg,AFSA11.jpg,AFSA13.jpg,AFNE04.jpg,AFNE04.jpg,FN,3,num_4,32,num_8,0.983449857915,,,2017_Nov_29_1413,60.00588934,FEMA4ImagesEEG,001,102496,
AFNE23.JPG,AFNE24.JPG,AFNE22.JPG,AFSA24.JPG,AFSA22.JPG,AFSA23.JPG,0,9,9,8,,,,,,,,,,,,,,,,,,,,,,,AFNE13.jpg,AFNE17.jpg,AFSA14.jpg,AFSA16.jpg,AFNE13.jpg,FN,3,num_8,16,num_8,2.11656014912,,,2017_Nov_29_1413,60.00588934,FEMA4ImagesEEG,001,102496,
AFSA25.JPG,AFNE24.JPG,AFSA24.JPG,AFNE21.JPG,AFSA21.JPG,AFNE25.JPG,,,,,0,0,0,2,,,,,,,,,,,,,,,,,,,AMNE06.jpg,AMNE19.jpg,AMSA09.jpg,AMSA02.jpg,AMNE19.jpg,MN,1,num_6,32,num_8,0.950151356752,,,2017_Nov_29_1413,60.00588934,FEMA4ImagesEEG,001,102496,
AMNE23.JPG,AMNE24.JPG,AMNE22.JPG,AMSA24.JPG,AMSA22.JPG,AMSA23.JPG,,,,,0,1,1,9,,,,,,,,,,,,,,,,,,,AMNE06.jpg,AMSA14.jpg,AMNE09.jpg,AMSA10.jpg,AMSA14.jpg,MS,2,num_6,32,num_4,1.06679361523,,,2017_Nov_29_1413,60.00588934,FEMA4ImagesEEG,001,102496,
AMSA21.JPG,AMNE22.JPG,AMNE21.JPG,AMSA23.JPG,AMSA22.JPG,AMNE23.JPG,,,,,0,2,2,1,,,,,,,,,,,,,,,,,,,AMSA08.jpg,AMSA18.jpg,AMNE20.jpg,AMNE17.jpg,AMNE17.jpg,MN,1,num_4,16,num_4,1.1334534823,,,2017_Nov_29_1413,60.00588934,FEMA4ImagesEEG,001,102496,
AMNE22.JPG,AMSA24.JPG,AMSA22.JPG,AMNE25.JPG,AMNE24.JPG,AMSA25.JPG,,,,,0,3,3,7,,,,,,,,,,,,,,,,,,,AMNE17.jpg,AMSA03.jpg,AMSA04.jpg,AMNE04.jpg,AMNE04.jpg,MN,1,num_4,32,num_2,1.35006854194,,,2017_Nov_29_1413,60.00588934,FEMA4ImagesEEG,001,102496,
AMSA21.JPG,AMNE23.JPG,AMNE21.JPG,AMSA25.JPG,AMNE25.JPG,AMSA23.JPG,,,,,0,4,4,5,,,,,,,,,,,,,,,,,,,AMSA08.jpg,AMNE08.jpg,AMNE04.jpg,AMSA06.jpg,AMNE08.jpg,MN,1,num_6,16,num_6,1.48321700119,,,2017_Nov_29_1413,60.00588934,FEMA4ImagesEEG,001,102496,
AFNE22.JPG,AFSA24.JPG,AFSA22.JPG,AFNE25.JPG,AFNE24.JPG,AFSA25.JPG,,,,,0,5,5,6,,,,,,,,,,,,,,,,,,,AMSA09.jpg,AMNE08.jpg,AMSA04.jpg,AMNE03.jpg,AMNE03.jpg,MN,1,num_4,32,num_8,1.5500773302,,,2017_Nov_29_1413,60.00588934,FEMA4ImagesEEG,001,102496,
AFSA21.JPG,AFNE23.JPG,AFNE21.JPG,AFSA25.JPG,AFNE25.JPG,AFSA23.JPG,,,,,0,6,6,4,,,,,,,,,,,,,,,,,,,AMSA06.jpg,AMNE05.jpg,AMNE01.jpg,AMSA20.jpg,AMSA06.jpg,MS,2,num_8,32,num_4,2.11671410396,,,2017_Nov_29_1413,60.00588934,FEMA4ImagesEEG,001,102496,
AFNE23.JPG,AFNE24.JPG,AFNE22.JPG,AFSA24.JPG,AFSA22.JPG,AFSA23.JPG,,,,,0,7,7,8,,,,,,,,,,,,,,,,,,,AMSA09.jpg,AMSA13.jpg,AMNE11.jpg,AMNE19.jpg,AMNE11.jpg,MN,1,num_2,32,num_8,1.20008191676,,,2017_Nov_29_1413,60.00588934,FEMA4ImagesEEG,001,102496,
AFSA21.JPG,AFNE22.JPG,AFNE21.JPG,AFSA23.JPG,AFSA22.JPG,AFNE23.JPG,,,,,0,8,8,0,,,,,,,,,,,,,,,,,,,AMSA03.jpg,AMNE16.jpg,AMSA16.jpg,AMNE04.jpg,AMSA03.jpg,MS,2,num_8,32,num_4,1.55008887686,,,2017_Nov_29_1413,60.00588934,FEMA4ImagesEEG,001,102496,
AMSA25.JPG,AMNE24.JPG,AMSA24.JPG,AMNE26.JPG,AMSA21.JPG,AMNE25.JPG,,,,,0,9,9,3,,,,,,,,,,,,,,,,,,,AMSA08.jpg,AMNE13.jpg,AMNE10.jpg,AMSA20.jpg,AMSA20.jpg,MS,2,num_4,32,num_8,3.63323249295,,,2017_Nov_29_1413,60.00588934,FEMA4ImagesEEG,001,102496,
AMNE23.JPG,AMNE24.JPG,AMNE22.JPG,AMSA24.JPG,AMSA22.JPG,AMSA23.JPG,,,,,,,,,0,0,0,9,,,,,,,,,,,,,,,AFNE10.jpg,AFNE16.jpg,AFSA19.jpg,AFSA03.jpg,AFSA19.jpg,FS,4,num_2,16,num_2,1.68336114148,,,2017_Nov_29_1413,60.00588934,FEMA4ImagesEEG,001,102496,
AMNE22.JPG,AMSA24.JPG,AMSA22.JPG,AMNE25.JPG,AMNE24.JPG,AMSA25.JPG,,,,,,,,,0,1,1,7,,,,,,,,,,,,,,,AFSA02.jpg,AFSA05.jpg,AFNE10.jpg,AFNE04.jpg,AFNE04.jpg,FN,3,num_4,32,num_8,1.61673431052,,,2017_Nov_29_1413,60.00588934,FEMA4ImagesEEG,001,102496,
AFSA25.JPG,AFNE24.JPG,AFSA24.JPG,AFNE21.JPG,AFSA21.JPG,AFNE25.JPG,,,,,,,,,0,2,2,2,,,,,,,,,,,,,,,AFNE02.jpg,AFSA14.jpg,AFNE09.jpg,AFSA09.jpg,AFSA09.jpg,FS,4,num_4,16,num_4,1.15013929701,,,2017_Nov_29_1413,60.00588934,FEMA4ImagesEEG,001,102496,
AMSA21.JPG,AMNE22.JPG,AMNE21.JPG,AMSA23.JPG,AMSA22.JPG,AMNE23.JPG,,,,,,,,,0,3,3,1,,,,,,,,,,,,,,,AFSA01.jpg,AFNE12.jpg,AFSA08.jpg,AFNE09.jpg,AFSA01.jpg,FS,4,num_8,16,num_8,0.833477986627,,,2017_Nov_29_1413,60.00588934,FEMA4ImagesEEG,001,102496,
AMSA25.JPG,AMNE24.JPG,AMSA24.JPG,AMNE26.JPG,AMSA21.JPG,AMNE25.JPG,,,,,,,,,0,4,4,3,,,,,,,,,,,,,,,AFSA04.jpg,AFNE09.jpg,AFNE10.jpg,AFSA03.jpg,AFSA03.jpg,FS,4,num_4,32,num_2,1.1167804969,,,2017_Nov_29_1413,60.00588934,FEMA4ImagesEEG,001,102496,
AFSA21.JPG,AFNE23.JPG,AFNE21.JPG,AFSA25.JPG,AFNE25.JPG,AFSA23.JPG,,,,,,,,,0,5,5,4,,,,,,,,,,,,,,,AFSA10.jpg,AFNE09.jpg,AFSA18.jpg,AFNE12.jpg,AFNE09.jpg,FN,3,num_6,32,num_8,1.06680419971,,,2017_Nov_29_1413,60.00588934,FEMA4ImagesEEG,001,102496,
AFSA21.JPG,AFNE22.JPG,AFNE21.JPG,AFSA23.JPG,AFSA22.JPG,AFNE23.JPG,,,,,,,,,0,6,6,0,,,,,,,,,,,,,,,AFNE12.jpg,AFSA17.jpg,AFSA18.jpg,AFNE19.jpg,AFNE19.jpg,FN,3,num_4,32,num_6,3.30018173077,,,2017_Nov_29_1413,60.00588934,FEMA4ImagesEEG,001,102496,
AFNE23.JPG,AFNE24.JPG,AFNE22.JPG,AFSA24.JPG,AFSA22.JPG,AFSA23.JPG,,,,,,,,,0,7,7,8,,,,,,,,,,,,,,,AFNE10.jpg,AFNE19.jpg,AFSA05.jpg,AFSA16.jpg,AFSA05.jpg,FS,4,num_2,16,num_2,1.01678973425,,,2017_Nov_29_1413,60.00588934,FEMA4ImagesEEG,001,102496,
AFNE22.JPG,AFSA24.JPG,AFSA22.JPG,AFNE25.JPG,AFNE24.JPG,AFSA25.JPG,,,,,,,,,0,8,8,6,,,,,,,,,,,,,,,AFSA02.jpg,AFNE18.jpg,AFNE04.jpg,AFSA06.jpg,AFNE18.jpg,FN,3,num_6,32,num_8,2.61649439775,,,2017_Nov_29_1413,60.00588934,FEMA4ImagesEEG,001,102496,
AMSA21.JPG,AMNE23.JPG,AMNE21.JPG,AMSA25.JPG,AMNE25.JPG,AMSA23.JPG,,,,,,,,,0,9,9,5,,,,,,,,,,,,,,,AFNE04.jpg,AFSA17.jpg,AFSA08.jpg,AFNE09.jpg,AFSA08.jpg,FS,4,num_2,16,num_2,3.04996058112,,,2017_Nov_29_1413,60.00588934,FEMA4ImagesEEG,001,102496,
AFSA21.JPG,AFNE22.JPG,AFNE21.JPG,AFSA23.JPG,AFSA22.JPG,AFNE23.JPG,,,,,,,,,,,,,0,0,0,0,,,,,,,,,,,AMNE06.jpg,AMSA20.jpg,AMNE09.jpg,AMSA03.jpg,AMSA20.jpg,MS,2,num_6,16,num_6,1.46682081395,,,2017_Nov_29_1413,60.00588934,FEMA4ImagesEEG,001,102496,
AMSA21.JPG,AMNE23.JPG,AMNE21.JPG,AMSA25.JPG,AMNE25.JPG,AMSA23.JPG,,,,,,,,,,,,,0,1,1,5,,,,,,,,,,,AMSA06.jpg,AMSA05.jpg,AMNE19.jpg,AMNE14.jpg,AMSA05.jpg,MS,2,num_6,16,num_6,1.95005930471,,,2017_Nov_29_1413,60.00588934,FEMA4ImagesEEG,001,102496,
AFSA25.JPG,AFNE24.JPG,AFSA24.JPG,AFNE21.JPG,AFSA21.JPG,AFNE25.JPG,,,,,,,,,,,,,0,2,2,2,,,,,,,,,,,AMSA18.jpg,AMSA06.jpg,AMNE08.jpg,AMNE13.jpg,AMNE13.jpg,MN,1,num_4,32,num_2,1.40007113991,,,2017_Nov_29_1413,60.00588934,FEMA4ImagesEEG,001,102496,
AFNE23.JPG,AFNE24.JPG,AFNE22.JPG,AFSA24.JPG,AFSA22.JPG,AFSA23.JPG,,,,,,,,,,,,,0,3,3,8,,,,,,,,,,,AMNE06.jpg,AMSA17.jpg,AMNE08.jpg,AMSA02.jpg,AMSA17.jpg,MS,2,num_6,16,num_6,1.24981252791,,,2017_Nov_29_1413,60.00588934,FEMA4ImagesEEG,001,102496,
AFSA21.JPG,AFNE23.JPG,AFNE21.JPG,AFSA25.JPG,AFNE25.JPG,AFSA23.JPG,,,,,,,,,,,,,0,4,4,4,,,,,,,,,,,AMNE15.jpg,AMSA05.jpg,AMNE19.jpg,AMSA11.jpg,AMNE19.jpg,MN,1,num_2,16,num_2,2.68332169042,,,2017_Nov_29_1413,60.00588934,FEMA4ImagesEEG,001,102496,
AMSA25.JPG,AMNE24.JPG,AMSA24.JPG,AMNE26.JPG,AMSA21.JPG,AMNE25.JPG,,,,,,,,,,,,,0,5,5,3,,,,,,,,,,,AMSA15.jpg,AMNE16.jpg,AMNE15.jpg,AMSA14.jpg,AMSA14.jpg,MS,2,num_4,16,num_4,1.20013997064,,,2017_Nov_29_1413,60.00588934,FEMA4ImagesEEG,001,102496,
AMNE22.JPG,AMSA24.JPG,AMSA22.JPG,AMNE25.JPG,AMNE24.JPG,AMSA25.JPG,,,,,,,,,,,,,0,6,6,7,,,,,,,,,,,AMSA02.jpg,AMNE09.jpg,AMNE18.jpg,AMSA01.jpg,AMNE09.jpg,MN,1,num_6,32,num_8,1.78342888155,,,2017_Nov_29_1413,60.00588934,FEMA4ImagesEEG,001,102496,
AMNE23.JPG,AMNE24.JPG,AMNE22.JPG,AMSA24.JPG,AMSA22.JPG,AMSA23.JPG,,,,,,,,,,,,,0,7,7,9,,,,,,,,,,,AMSA20.jpg,AMNE12.jpg,AMNE01.jpg,AMSA04.jpg,AMNE01.jpg,MN,1,num_2,16,num_2,1.10009885184,,,2017_Nov_29_1413,60.00588934,FEMA4ImagesEEG,001,102496,
AMSA21.JPG,AMNE22.JPG,AMNE21.JPG,AMSA23.JPG,AMSA22.JPG,AMNE23.JPG,,,,,,,,,,,,,0,8,8,1,,,,,,,,,,,AMNE18.jpg,AMSA17.jpg,AMSA19.jpg,AMNE15.jpg,AMSA17.jpg,MS,2,num_6,16,num_6,1.93337926327,,,2017_Nov_29_1413,60.00588934,FEMA4ImagesEEG,001,102496,
AFNE22.JPG,AFSA24.JPG,AFSA22.JPG,AFNE25.JPG,AFNE24.JPG,AFSA25.JPG,,,,,,,,,,,,,0,9,9,6,,,,,,,,,,,AMNE09.jpg,AMSA08.jpg,AMNE20.jpg,AMSA14.jpg,AMNE20.jpg,MN,1,num_2,32,num_8,2.38332278095,,,2017_Nov_29_1413,60.00588934,FEMA4ImagesEEG,001,102496,
AMSA25.JPG,AMNE24.JPG,AMSA24.JPG,AMNE26.JPG,AMSA21.JPG,AMNE25.JPG,,,,,,,,,,,,,,,,,0,0,0,3,,,,,,,AFSA20.jpg,AFNE15.jpg,AFNE04.jpg,AFSA06.jpg,AFNE15.jpg,FN,3,num_6,16,num_6,1.48342612328,,,2017_Nov_29_1413,60.00588934,FEMA4ImagesEEG,001,102496,
AFSA21.JPG,AFNE22.JPG,AFNE21.JPG,AFSA23.JPG,AFSA22.JPG,AFNE23.JPG,,,,,,,,,,,,,,,,,0,1,1,0,,,,,,,AFNE14.jpg,AFNE16.jpg,AFSA19.jpg,AFSA17.jpg,AFNE16.jpg,FN,3,num_6,32,num_4,1.46677430673,,,2017_Nov_29_1413,60.00588934,FEMA4ImagesEEG,001,102496,
AFNE23.JPG,AFNE24.JPG,AFNE22.JPG,AFSA24.JPG,AFSA22.JPG,AFSA23.JPG,,,,,,,,,,,,,,,,,0,2,2,8,,,,,,,AFSA11.jpg,AFSA17.jpg,AFNE10.jpg,AFNE09.jpg,AFSA17.jpg,FS,4,num_6,32,num_8,1.45007085137,,,2017_Nov_29_1413,60.00588934,FEMA4ImagesEEG,001,102496,
AMNE22.JPG,AMSA24.JPG,AMSA22.JPG,AMNE25.JPG,AMNE24.JPG,AMSA25.JPG,,,,,,,,,,,,,,,,,0,3,3,7,,,,,,,AFSA04.jpg,AFSA01.jpg,AFNE08.jpg,AFNE05.jpg,AFSA01.jpg,FS,4,num_6,16,num_6,1.21679146623,,,2017_Nov_29_1413,60.00588934,FEMA4ImagesEEG,001,102496,
AMSA21.JPG,AMNE22.JPG,AMNE21.JPG,AMSA23.JPG,AMSA22.JPG,AMNE23.JPG,,,,,,,,,,,,,,,,,0,4,4,1,,,,,,,AFSA10.jpg,AFNE09.jpg,AFSA14.jpg,AFNE12.jpg,AFNE12.jpg,FN,3,num_4,16,num_4,1.83328939206,,,2017_Nov_29_1413,60.00588934,FEMA4ImagesEEG,001,102496,
AFNE22.JPG,AFSA24.JPG,AFSA22.JPG,AFNE25.JPG,AFNE24.JPG,AFSA25.JPG,,,,,,,,,,,,,,,,,0,5,5,6,,,,,,,AFSA18.jpg,AFSA09.jpg,AFNE20.jpg,AFNE07.jpg,AFNE07.jpg,FN,3,num_4,16,num_4,1.60010109702,,,2017_Nov_29_1413,60.00588934,FEMA4ImagesEEG,001,102496,
AMNE23.JPG,AMNE24.JPG,AMNE22.JPG,AMSA24.JPG,AMSA22.JPG,AMSA23.JPG,,,,,,,,,,,,,,,,,0,6,6,9,,,,,,,AFNE13.jpg,AFSA03.jpg,AFNE10.jpg,AFSA11.jpg,AFNE10.jpg,FN,3,num_2,16,num_2,1.85006148578,,,2017_Nov_29_1413,60.00588934,FEMA4ImagesEEG,001,102496,
AFSA25.JPG,AFNE24.JPG,AFSA24.JPG,AFNE21.JPG,AFSA21.JPG,AFNE25.JPG,,,,,,,,,,,,,,,,,0,7,7,2,,,,,,,AFSA04.jpg,AFSA15.jpg,AFNE15.jpg,AFNE16.jpg,AFNE15.jpg,FN,3,num_2,32,num_4,1.33339363232,,,2017_Nov_29_1413,60.00588934,FEMA4ImagesEEG,001,102496,
AMSA21.JPG,AMNE23.JPG,AMNE21.JPG,AMSA25.JPG,AMNE25.JPG,AMSA23.JPG,,,,,,,,,,,,,,,,,0,8,8,5,,,,,,,AFNE06.jpg,AFSA03.jpg,AFNE02.jpg,AFSA09.jpg,AFSA03.jpg,FS,4,num_6,16,num_6,1.48341714253,,,2017_Nov_29_1413,60.00588934,FEMA4ImagesEEG,001,102496,
AFSA21.JPG,AFNE23.JPG,AFNE21.JPG,AFSA25.JPG,AFNE25.JPG,AFSA23.JPG,,,,,,,,,,,,,,,,,0,9,9,4,,,,,,,AFSA04.jpg,AFNE15.jpg,AFSA14.jpg,AFNE07.jpg,AFSA04.jpg,FS,4,num_8,32,num_2,2.50016902958,,,2017_Nov_29_1413,60.00588934,FEMA4ImagesEEG,001,102496,
AMSA21.JPG,AMNE22.JPG,AMNE21.JPG,AMSA23.JPG,AMSA22.JPG,AMNE23.JPG,,,,,,,,,,,,,,,,,,,,,0,0,0,1,,,AMSA03.jpg,AMNE13.jpg,AMSA15.jpg,AMNE05.jpg,AMNE13.jpg,MN,1,num_6,16,num_6,1.26661412965,,,2017_Nov_29_1413,60.00588934,FEMA4ImagesEEG,001,102496,
AFSA25.JPG,AFNE24.JPG,AFSA24.JPG,AFNE21.JPG,AFSA21.JPG,AFNE25.JPG,,,,,,,,,,,,,,,,,,,,,0,1,1,2,,,AMNE20.jpg,AMSA15.jpg,AMNE14.jpg,AMSA18.jpg,AMNE20.jpg,MN,1,num_8,16,num_8,3.61655052705,,,2017_Nov_29_1413,60.00588934,FEMA4ImagesEEG,001,102496,
AFSA21.JPG,AFNE23.JPG,AFNE21.JPG,AFSA25.JPG,AFNE25.JPG,AFSA23.JPG,,,,,,,,,,,,,,,,,,,,,0,2,2,4,,,AMNE12.jpg,AMSA14.jpg,AMSA09.jpg,AMNE13.jpg,AMSA14.jpg,MS,2,num_6,16,num_6,1.56677886122,,,2017_Nov_29_1413,60.00588934,FEMA4ImagesEEG,001,102496,
AFSA21.JPG,AFNE22.JPG,AFNE21.JPG,AFSA23.JPG,AFSA22.JPG,AFNE23.JPG,,,,,,,,,,,,,,,,,,,,,0,3,3,0,,,AMNE11.jpg,AMSA17.jpg,AMNE15.jpg,AMSA12.jpg,AMNE15.jpg,MN,1,num_2,16,num_2,1.28356327128,,,2017_Nov_29_1413,60.00588934,FEMA4ImagesEEG,001,102496,
AMSA21.JPG,AMNE23.JPG,AMNE21.JPG,AMSA25.JPG,AMNE25.JPG,AMSA23.JPG,,,,,,,,,,,,,,,,,,,,,0,4,4,5,,,AMSA08.jpg,AMNE04.jpg,AMSA19.jpg,AMNE15.jpg,AMSA08.jpg,MS,2,num_8,32,num_6,1.06676603167,,,2017_Nov_29_1413,60.00588934,FEMA4ImagesEEG,001,102496,
AMSA25.JPG,AMNE24.JPG,AMSA24.JPG,AMNE26.JPG,AMSA21.JPG,AMNE25.JPG,,,,,,,,,,,,,,,,,,,,,0,5,5,3,,,AMNE05.jpg,AMNE06.jpg,AMSA15.jpg,AMSA05.jpg,AMSA05.jpg,MS,2,num_4,16,num_4,1.31673764624,,,2017_Nov_29_1413,60.00588934,FEMA4ImagesEEG,001,102496,
AFNE22.JPG,AFSA24.JPG,AFSA22.JPG,AFNE25.JPG,AFNE24.JPG,AFSA25.JPG,,,,,,,,,,,,,,,,,,,,,0,6,6,6,,,AMNE20.jpg,AMNE06.jpg,AMSA08.jpg,AMSA04.jpg,AMSA04.jpg,MS,2,num_4,16,num_4,0.933468428673,,,2017_Nov_29_1413,60.00588934,FEMA4ImagesEEG,001,102496,
AMNE23.JPG,AMNE24.JPG,AMNE22.JPG,AMSA24.JPG,AMSA22.JPG,AMSA23.JPG,,,,,,,,,,,,,,,,,,,,,0,7,7,9,,,AMSA15.jpg,AMSA18.jpg,AMNE11.jpg,AMNE12.jpg,AMNE11.jpg,MN,1,num_2,16,num_2,4.36649552023,,,2017_Nov_29_1413,60.00588934,FEMA4ImagesEEG,001,102496,
AFNE23.JPG,AFNE24.JPG,AFNE22.JPG,AFSA24.JPG,AFSA22.JPG,AFSA23.JPG,,,,,,,,,,,,,,,,,,,,,0,8,8,8,,,AMSA03.jpg,AMNE14.jpg,AMNE20.jpg,AMSA10.jpg,AMNE14.jpg,MN,1,num_6,16,num_6,4.18316901871,,,2017_Nov_29_1413,60.00588934,FEMA4ImagesEEG,001,102496,
AMNE22.JPG,AMSA24.JPG,AMSA22.JPG,AMNE25.JPG,AMNE24.JPG,AMSA25.JPG,,,,,,,,,,,,,,,,,,,,,0,9,9,7,,,AMSA19.jpg,AMNE12.jpg,AMNE03.jpg,AMSA01.jpg,AMNE03.jpg,MN,1,num_2,16,num_2,1.88339238137,,,2017_Nov_29_1413,60.00588934,FEMA4ImagesEEG,001,102496,
,,,,,,,,,,,,,,,,,,,,,,,,,,,,,,,,,,,,,,,,,,,space,21.664860905,2017_Nov_29_1413,60.00588934,FEMA4ImagesEEG,001,102496,
AFNE01.JPG,AFNE01.JPG,AFNE01.JPG,AFNE01.JPG,AFNE01.JPG,AFNE01.JPG,0,0,0,5,,,,,,,,,,,,,,,,,,,,,,,AFSA16.jpg,AFNE20.jpg,AFSA14.jpg,AFNE10.jpg,AFNE10.jpg,FN,3,num_4,32,num_2,0.966741912067,,,2017_Nov_29_1413,60.00588934,FEMA4ImagesEEG,001,102496,
AFNE01.JPG,AFNE01.JPG,AFNE01.JPG,AFNE01.JPG,AFNE01.JPG,AFNE01.JPG,0,1,1,6,,,,,,,,,,,,,,,,,,,,,,,AFSA17.jpg,AFNE14.jpg,AFNE04.jpg,AFSA08.jpg,AFNE04.jpg,FN,3,num_2,16,num_2,0.866789638065,,,2017_Nov_29_1413,60.00588934,FEMA4ImagesEEG,001,102496,
AFNE01.JPG,AFNE01.JPG,AFNE01.JPG,AFNE01.JPG,AFNE01.JPG,AFNE01.JPG,0,2,2,9,,,,,,,,,,,,,,,,,,,,,,,AFNE20.jpg,AFSA20.jpg,AFSA11.jpg,AFNE02.jpg,AFNE02.jpg,FN,3,num_4,32,num_6,1.41671974899,,,2017_Nov_29_1413,60.00588934,FEMA4ImagesEEG,001,102496,
AFNE01.JPG,AFNE01.JPG,AFNE01.JPG,AFNE01.JPG,AFNE01.JPG,AFNE01.JPG,0,3,3,4,,,,,,,,,,,,,,,,,,,,,,,AFNE17.jpg,AFSA08.jpg,AFNE15.jpg,AFSA19.jpg,AFSA08.jpg,FS,4,num_6,16,num_6,1.08343709237,,,2017_Nov_29_1413,60.00588934,FEMA4ImagesEEG,001,102496,
AFNE01.JPG,AFNE01.JPG,AFNE01.JPG,AFNE01.JPG,AFNE01.JPG,AFNE01.JPG,0,4,4,1,,,,,,,,,,,,,,,,,,,,,,,AFNE14.jpg,AFSA14.jpg,AFSA05.jpg,AFNE18.jpg,AFSA14.jpg,FS,4,num_6,32,num_4,1.28346191777,,,2017_Nov_29_1413,60.00588934,FEMA4ImagesEEG,001,102496,
AFNE01.JPG,AFNE01.JPG,AFNE01.JPG,AFNE01.JPG,AFNE01.JPG,AFNE01.JPG,0,5,5,3,,,,,,,,,,,,,,,,,,,,,,,AFSA03.jpg,AFSA14.jpg,AFNE18.jpg,AFNE07.jpg,AFNE18.jpg,FN,3,num_2,32,num_8,1.20006203093,,,2017_Nov_29_1413,60.00588934,FEMA4ImagesEEG,001,102496,
AFNE01.JPG,AFNE01.JPG,AFNE01.JPG,AFNE01.JPG,AFNE01.JPG,AFNE01.JPG,0,6,6,8,,,,,,,,,,,,,,,,,,,,,,,AFSA07.jpg,AFNE19.jpg,AFSA20.jpg,AFNE20.jpg,AFSA20.jpg,FS,4,num_2,32,num_6,1.40001276543,,,2017_Nov_29_1413,60.00588934,FEMA4ImagesEEG,001,102496,
AFNE01.JPG,AFNE01.JPG,AFNE01.JPG,AFNE01.JPG,AFNE01.JPG,AFNE01.JPG,0,7,7,0,,,,,,,,,,,,,,,,,,,,,,,AFSA01.jpg,AFSA13.jpg,AFNE06.jpg,AFNE07.jpg,AFNE07.jpg,FN,3,num_4,32,num_8,2.51632337947,,,2017_Nov_29_1413,60.00588934,FEMA4ImagesEEG,001,102496,
AFNE01.JPG,AFNE01.JPG,AFNE01.JPG,AFNE01.JPG,AFNE01.JPG,AFNE01.JPG,0,8,8,2,,,,,,,,,,,,,,,,,,,,,,,AFNE01.jpg,AFNE07.jpg,AFSA03.jpg,AFSA14.jpg,AFNE07.jpg,FN,3,num_6,16,num_6,0.983469743631,,,2017_Nov_29_1413,60.00588934,FEMA4ImagesEEG,001,102496,
AFNE01.JPG,AFNE01.JPG,AFNE01.JPG,AFNE01.JPG,AFNE01.JPG,AFNE01.JPG,0,9,9,7,,,,,,,,,,,,,,,,,,,,,,,AFNE15.jpg,AFSA19.jpg,AFNE11.jpg,AFSA17.jpg,AFSA19.jpg,FS,4,num_6,16,num_6,1.28341027861,,,2017_Nov_29_1413,60.00588934,FEMA4ImagesEEG,001,102496,
AFNE01.JPG,AFNE01.JPG,AFNE01.JPG,AFNE01.JPG,AFNE01.JPG,AFNE01.JPG,1,0,10,8,,,,,,,,,,,,,,,,,,,,,,,AFNE18.jpg,AFNE06.jpg,AFSA12.jpg,AFSA09.jpg,AFNE06.jpg,FN,3,num_6,32,num_8,1.76673568971,,,2017_Nov_29_1413,60.00588934,FEMA4ImagesEEG,001,102496,
AFNE01.JPG,AFNE01.JPG,AFNE01.JPG,AFNE01.JPG,AFNE01.JPG,AFNE01.JPG,1,1,11,5,,,,,,,,,,,,,,,,,,,,,,,AFNE19.jpg,AFNE18.jpg,AFSA13.jpg,AFSA20.jpg,AFSA13.jpg,FS,4,num_2,16,num_2,2.05004621844,,,2017_Nov_29_1413,60.00588934,FEMA4ImagesEEG,001,102496,
AFNE01.JPG,AFNE01.JPG,AFNE01.JPG,AFNE01.JPG,AFNE01.JPG,AFNE01.JPG,1,2,12,1,,,,,,,,,,,,,,,,,,,,,,,AFNE05.jpg,AFSA16.jpg,AFNE04.jpg,AFSA19.jpg,AFNE04.jpg,FN,3,num_2,32,num_8,1.13347593404,,,2017_Nov_29_1413,60.00588934,FEMA4ImagesEEG,001,102496,
AFNE01.JPG,AFNE01.JPG,AFNE01.JPG,AFNE01.JPG,AFNE01.JPG,AFNE01.JPG,1,3,13,6,,,,,,,,,,,,,,,,,,,,,,,AFNE03.jpg,AFNE17.jpg,AFSA03.jpg,AFSA06.jpg,AFSA06.jpg,FS,4,num_4,16,num_4,2.9002924501,,,2017_Nov_29_1413,60.00588934,FEMA4ImagesEEG,001,102496,
AFNE01.JPG,AFNE01.JPG,AFNE01.JPG,AFNE01.JPG,AFNE01.JPG,AFNE01.JPG,1,4,14,3,,,,,,,,,,,,,,,,,,,,,,,AFNE19.jpg,AFSA15.jpg,AFNE01.jpg,AFSA04.jpg,AFSA04.jpg,FS,4,num_4,16,num_4,0.950122169568,,,2017_Nov_29_1413,60.00588934,FEMA4ImagesEEG,001,102496,
AFNE01.JPG,AFNE01.JPG,AFNE01.JPG,AFNE01.JPG,AFNE01.JPG,AFNE01.JPG,1,5,15,2,,,,,,,,,,,,,,,,,,,,,,,AFNE13.jpg,AFSA05.jpg,AFSA10.jpg,AFNE08.jpg,AFSA05.jpg,FS,4,num_6,16,num_6,0.800163769512,,,2017_Nov_29_1413,60.00588934,FEMA4ImagesEEG,001,102496,
AFNE01.JPG,AFNE01.JPG,AFNE01.JPG,AFNE01.JPG,AFNE01.JPG,AFNE01.JPG,1,6,16,0,,,,,,,,,,,,,,,,,,,,,,,AFSA12.jpg,AFSA18.jpg,AFNE05.jpg,AFNE03.jpg,AFNE05.jpg,FN,3,num_2,32,num_4,1.3499655847,,,2017_Nov_29_1413,60.00588934,FEMA4ImagesEEG,001,102496,
AFNE01.JPG,AFNE01.JPG,AFNE01.JPG,AFNE01.JPG,AFNE01.JPG,AFNE01.JPG,1,7,17,9,,,,,,,,,,,,,,,,,,,,,,,AFSA03.jpg,AFNE08.jpg,AFSA07.jpg,AFNE13.jpg,AFNE13.jpg,FN,3,num_4,32,num_6,0.966760515003,,,2017_Nov_29_1413,60.00588934,FEMA4ImagesEEG,001,102496,
AFNE01.JPG,AFNE01.JPG,AFNE01.JPG,AFNE01.JPG,AFNE01.JPG,AFNE01.JPG,1,8,18,7,,,,,,,,,,,,,,,,,,,,,,,AFSA07.jpg,AFNE11.jpg,AFNE12.jpg,AFSA01.jpg,AFNE12.jpg,FN,3,num_2,32,num_8,1.53343449451,,,2017_Nov_29_1413,60.00588934,FEMA4ImagesEEG,001,102496,
AFNE01.JPG,AFNE01.JPG,AFNE01.JPG,AFNE01.JPG,AFNE01.JPG,AFNE01.JPG,1,9,19,4,,,,,,,,,,,,,,,,,,,,,,,AFNE19.jpg,AFSA09.jpg,AFNE05.jpg,AFSA16.jpg,AFNE19.jpg,FN,3,num_8,32,num_4,0.933318964206,,,2017_Nov_29_1413,60.00588934,FEMA4ImagesEEG,001,102496,
AFNE01.JPG,AFNE01.JPG,AFNE01.JPG,AFNE01.JPG,AFNE01.JPG,AFNE01.JPG,2,0,20,4,,,,,,,,,,,,,,,,,,,,,,,AFNE10.jpg,AFNE06.jpg,AFSA02.jpg,AFSA13.jpg,AFNE10.jpg,FN,3,num_8,16,num_8,0.833452006918,,,2017_Nov_29_1413,60.00588934,FEMA4ImagesEEG,001,102496,
AFNE01.JPG,AFNE01.JPG,AFNE01.JPG,AFNE01.JPG,AFNE01.JPG,AFNE01.JPG,2,1,21,7,,,,,,,,,,,,,,,,,,,,,,,AFNE19.jpg,AFSA19.jpg,AFNE11.jpg,AFSA13.jpg,AFSA13.jpg,FS,4,num_4,32,num_6,1.2833990528,,,2017_Nov_29_1413,60.00588934,FEMA4ImagesEEG,001,102496,
AFNE01.JPG,AFNE01.JPG,AFNE01.JPG,AFNE01.JPG,AFNE01.JPG,AFNE01.JPG,2,2,22,5,,,,,,,,,,,,,,,,,,,,,,,AFSA05.jpg,AFSA18.jpg,AFNE18.jpg,AFNE05.jpg,AFSA18.jpg,FS,4,num_6,16,num_6,0.78362709831,,,2017_Nov_29_1413,60.00588934,FEMA4ImagesEEG,001,102496,
AFNE01.JPG,AFNE01.JPG,AFNE01.JPG,AFNE01.JPG,AFNE01.JPG,AFNE01.JPG,2,3,23,3,,,,,,,,,,,,,,,,,,,,,,,AFSA19.jpg,AFSA03.jpg,AFNE01.jpg,AFNE10.jpg,AFSA03.jpg,FS,4,num_6,32,num_2,2.83332435263,,,2017_Nov_29_1413,60.00588934,FEMA4ImagesEEG,001,102496,
AFNE01.JPG,AFNE01.JPG,AFNE01.JPG,AFNE01.JPG,AFNE01.JPG,AFNE01.JPG,2,4,24,9,,,,,,,,,,,,,,,,,,,,,,,AFNE09.jpg,AFSA05.jpg,AFNE18.jpg,AFSA19.jpg,AFNE09.jpg,FN,3,num_8,32,num_6,1.70005497464,,,2017_Nov_29_1413,60.00588934,FEMA4ImagesEEG,001,102496,
AFNE01.JPG,AFNE01.JPG,AFNE01.JPG,AFNE01.JPG,AFNE01.JPG,AFNE01.JPG,2,5,25,0,,,,,,,,,,,,,,,,,,,,,,,AFSA14.jpg,AFSA04.jpg,AFNE20.jpg,AFNE11.jpg,AFNE11.jpg,FN,3,num_4,16,num_4,1.06678206869,,,2017_Nov_29_1413,60.00588934,FEMA4ImagesEEG,001,102496,
AFNE01.JPG,AFNE01.JPG,AFNE01.JPG,AFNE01.JPG,AFNE01.JPG,AFNE01.JPG,2,6,26,1,,,,,,,,,,,,,,,,,,,,,,,AFNE15.jpg,AFSA13.jpg,AFSA18.jpg,AFNE20.jpg,AFNE20.jpg,FN,3,num_4,32,num_8,0.900085252477,,,2017_Nov_29_1413,60.00588934,FEMA4ImagesEEG,001,102496,
AFNE01.JPG,AFNE01.JPG,AFNE01.JPG,AFNE01.JPG,AFNE01.JPG,AFNE01.JPG,2,7,27,2,,,,,,,,,,,,,,,,,,,,,,,AFNE07.jpg,AFSA19.jpg,AFSA04.jpg,AFNE12.jpg,AFNE07.jpg,FN,3,num_8,32,num_4,1.24980162282,,,2017_Nov_29_1413,60.00588934,FEMA4ImagesEEG,001,102496,
AFNE01.JPG,AFNE01.JPG,AFNE01.JPG,AFNE01.JPG,AFNE01.JPG,AFNE01.JPG,2,8,28,6,,,,,,,,,,,,,,,,,,,,,,,AFSA05.jpg,AFNE07.jpg,AFNE04.jpg,AFSA13.jpg,AFSA05.jpg,FS,4,num_8,32,num_4,1.05013089359,,,2017_Nov_29_1413,60.00588934,FEMA4ImagesEEG,001,102496,
AFNE01.JPG,AFNE01.JPG,AFNE01.JPG,AFNE01.JPG,AFNE01.JPG,AFNE01.JPG,2,9,29,8,,,,,,,,,,,,,,,,,,,,,,,AFNE16.jpg,AFNE03.jpg,AFSA05.jpg,AFSA06.jpg,AFNE03.jpg,FN,3,num_6,16,num_6,1.28362164577,,,2017_Nov_29_1413,60.00588934,FEMA4ImagesEEG,001,102496,
AFNE01.JPG,AFNE01.JPG,AFNE01.JPG,AFNE01.JPG,AFNE01.JPG,AFNE01.JPG,3,0,30,8,,,,,,,,,,,,,,,,,,,,,,,AFNE03.jpg,AFSA11.jpg,AFNE12.jpg,AFSA19.jpg,AFSA11.jpg,FS,4,num_6,16,num_6,1.86695129063,,,2017_Nov_29_1413,60.00588934,FEMA4ImagesEEG,001,102496,
AFNE01.JPG,AFNE01.JPG,AFNE01.JPG,AFNE01.JPG,AFNE01.JPG,AFNE01.JPG,3,1,31,0,,,,,,,,,,,,,,,,,,,,,,,AFNE11.jpg,AFSA06.jpg,AFNE20.jpg,AFSA15.jpg,AFNE11.jpg,FN,3,num_8,16,num_8,0.650142183644,,,2017_Nov_29_1413,60.00588934,FEMA4ImagesEEG,001,102496,
AFNE01.JPG,AFNE01.JPG,AFNE01.JPG,AFNE01.JPG,AFNE01.JPG,AFNE01.JPG,3,2,32,4,,,,,,,,,,,,,,,,,,,,,,,AFNE12.jpg,AFNE10.jpg,AFSA17.jpg,AFSA19.jpg,AFSA17.jpg,FS,4,num_2,32,num_4,1.35008650343,,,2017_Nov_29_1413,60.00588934,FEMA4ImagesEEG,001,102496,
AFNE01.JPG,AFNE01.JPG,AFNE01.JPG,AFNE01.JPG,AFNE01.JPG,AFNE01.JPG,3,3,33,9,,,,,,,,,,,,,,,,,,,,,,,AFNE11.jpg,AFSA03.jpg,AFSA09.jpg,AFNE06.jpg,AFSA09.jpg,FS,4,num_2,16,num_2,1.46666108584,,,2017_Nov_29_1413,60.00588934,FEMA4ImagesEEG,001,102496,
AFNE01.JPG,AFNE01.JPG,AFNE01.JPG,AFNE01.JPG,AFNE01.JPG,AFNE01.JPG,3,4,34,1,,,,,,,,,,,,,,,,,,,,,,,AFNE05.jpg,AFNE18.jpg,AFSA09.jpg,AFSA20.jpg,AFSA09.jpg,FS,4,num_2,16,num_2,0.75015796395,,,2017_Nov_29_1413,60.00588934,FEMA4ImagesEEG,001,102496,
AFNE01.JPG,AFNE01.JPG,AFNE01.JPG,AFNE01.JPG,AFNE01.JPG,AFNE01.JPG,3,5,35,3,,,,,,,,,,,,,,,,,,,,,,,AFSA14.jpg,AFNE15.jpg,AFSA07.jpg,AFNE20.jpg,AFNE20.jpg,FN,3,num_4,32,num_8,1.08345633675,,,2017_Nov_29_1413,60.00588934,FEMA4ImagesEEG,001,102496,
AFNE01.JPG,AFNE01.JPG,AFNE01.JPG,AFNE01.JPG,AFNE01.JPG,AFNE01.JPG,3,6,36,2,,,,,,,,,,,,,,,,,,,,,,,AFNE17.jpg,AFNE09.jpg,AFSA15.jpg,AFSA20.jpg,AFNE17.jpg,FN,3,num_8,32,num_2,2.55000227725,,,2017_Nov_29_1413,60.00588934,FEMA4ImagesEEG,001,102496,
AFNE01.JPG,AFNE01.JPG,AFNE01.JPG,AFNE01.JPG,AFNE01.JPG,AFNE01.JPG,3,7,37,7,,,,,,,,,,,,,,,,,,,,,,,AFSA08.jpg,AFSA11.jpg,AFNE01.jpg,AFNE11.jpg,AFNE01.jpg,FN,3,num_2,16,num_2,2.25008419401,,,2017_Nov_29_1413,60.00588934,FEMA4ImagesEEG,001,102496,
AFNE01.JPG,AFNE01.JPG,AFNE01.JPG,AFNE01.JPG,AFNE01.JPG,AFNE01.JPG,3,8,38,5,,,,,,,,,,,,,,,,,,,,,,,AFSA07.jpg,AFSA13.jpg,AFNE09.jpg,AFNE15.jpg,AFNE09.jpg,FN,3,num_2,32,num_8,2.54996058112,,,2017_Nov_29_1413,60.00588934,FEMA4ImagesEEG,001,102496,
AFNE01.JPG,AFNE01.JPG,AFNE01.JPG,AFNE01.JPG,AFNE01.JPG,AFNE01.JPG,3,9,39,6,,,,,,,,,,,,,,,,,,,,,,,AFSA06.jpg,AFNE05.jpg,AFSA14.jpg,AFNE02.jpg,AFSA14.jpg,FS,4,num_2,32,num_4,2.00004009239,,,2017_Nov_29_1413,60.00588934,FEMA4ImagesEEG,001,102496,
AFNE01.JPG,AFNE01.JPG,AFNE01.JPG,AFNE01.JPG,AFNE01.JPG,AFNE01.JPG,4,0,40,3,,,,,,,,,,,,,,,,,,,,,,,AFNE04.jpg,AFNE20.jpg,AFSA08.jpg,AFSA20.jpg,AFNE20.jpg,FN,3,num_6,16,num_6,0.933468428673,,,2017_Nov_29_1413,60.00588934,FEMA4ImagesEEG,001,102496,
AFNE01.JPG,AFNE01.JPG,AFNE01.JPG,AFNE01.JPG,AFNE01.JPG,AFNE01.JPG,4,1,41,1,,,,,,,,,,,,,,,,,,,,,,,AFSA01.jpg,AFNE17.jpg,AFNE09.jpg,AFSA11.jpg,AFSA11.jpg,FS,4,num_4,16,num_4,1.23328900721,,,2017_Nov_29_1413,60.00588934,FEMA4ImagesEEG,001,102496,
AFNE01.JPG,AFNE01.JPG,AFNE01.JPG,AFNE01.JPG,AFNE01.JPG,AFNE01.JPG,4,2,42,0,,,,,,,,,,,,,,,,,,,,,,,AFSA12.jpg,AFNE02.jpg,AFSA08.jpg,AFNE13.jpg,AFSA08.jpg,FS,4,num_2,16,num_2,1.66665191262,,,2017_Nov_29_1413,60.00588934,FEMA4ImagesEEG,001,102496,
AFNE01.JPG,AFNE01.JPG,AFNE01.JPG,AFNE01.JPG,AFNE01.JPG,AFNE01.JPG,4,3,43,4,,,,,,,,,,,,,,,,,,,,,,,AFSA06.jpg,AFSA07.jpg,AFNE10.jpg,AFNE01.jpg,AFSA06.jpg,FS,4,num_8,32,num_2,1.83338176506,,,2017_Nov_29_1413,60.00588934,FEMA4ImagesEEG,001,102496,
AFNE01.JPG,AFNE01.JPG,AFNE01.JPG,AFNE01.JPG,AFNE01.JPG,AFNE01.JPG,4,4,44,2,,,,,,,,,,,,,,,,,,,,,,,AFSA12.jpg,AFNE01.jpg,AFSA06.jpg,AFNE12.jpg,AFNE12.jpg,FN,3,num_4,16,num_4,1.53339953395,,,2017_Nov_29_1413,60.00588934,FEMA4ImagesEEG,001,102496,
AFNE01.JPG,AFNE01.JPG,AFNE01.JPG,AFNE01.JPG,AFNE01.JPG,AFNE01.JPG,4,5,45,8,,,,,,,,,,,,,,,,,,,,,,,AFSA06.jpg,AFNE19.jpg,AFNE08.jpg,AFSA13.jpg,AFSA13.jpg,FS,4,num_4,16,num_4,0.816872356692,,,2017_Nov_29_1413,60.00588934,FEMA4ImagesEEG,001,102496,
AFNE01.JPG,AFNE01.JPG,AFNE01.JPG,AFNE01.JPG,AFNE01.JPG,AFNE01.JPG,4,6,46,9,,,,,,,,,,,,,,,,,,,,,,,AFNE19.jpg,AFSA13.jpg,AFSA18.jpg,AFNE17.jpg,AFSA18.jpg,FS,4,num_2,16,num_2,1.25021152757,,,2017_Nov_29_1413,60.00588934,FEMA4ImagesEEG,001,102496,
AFNE01.JPG,AFNE01.JPG,AFNE01.JPG,AFNE01.JPG,AFNE01.JPG,AFNE01.JPG,4,7,47,7,,,,,,,,,,,,,,,,,,,,,,,AFSA05.jpg,AFNE16.jpg,AFSA19.jpg,AFNE01.jpg,AFNE16.jpg,FN,3,num_6,32,num_8,1.23313954263,,,2017_Nov_29_1413,60.00588934,FEMA4ImagesEEG,001,102496,
AFNE01.JPG,AFNE01.JPG,AFNE01.JPG,AFNE01.JPG,AFNE01.JPG,AFNE01.JPG,4,8,48,5,,,,,,,,,,,,,,,,,,,,,,,AFSA20.jpg,AFNE08.jpg,AFSA13.jpg,AFNE01.jpg,AFNE01.jpg,FN,3,num_4,16,num_4,1.63337618415,,,2017_Nov_29_1413,60.00588934,FEMA4ImagesEEG,001,102496,
AFNE01.JPG,AFNE01.JPG,AFNE01.JPG,AFNE01.JPG,AFNE01.JPG,AFNE01.JPG,4,9,49,6,,,,,,,,,,,,,,,,,,,,,,,AFSA04.jpg,AFNE10.jpg,AFNE15.jpg,AFSA06.jpg,AFNE10.jpg,FN,3,num_6,32,num_8,1.03352911246,,,2017_Nov_29_1413,60.00588934,FEMA4ImagesEEG,001,102496,
AFNE01.JPG,AFNE01.JPG,AFNE01.JPG,AFNE01.JPG,AFNE01.JPG,AFNE01.JPG,5,0,50,2,,,,,,,,,,,,,,,,,,,,,,,AFSA06.jpg,AFSA13.jpg,AFNE01.jpg,AFNE05.jpg,AFNE05.jpg,FN,3,num_4,16,num_4,0.98342387809,,,2017_Nov_29_1413,60.00588934,FEMA4ImagesEEG,001,102496,
AFNE01.JPG,AFNE01.JPG,AFNE01.JPG,AFNE01.JPG,AFNE01.JPG,AFNE01.JPG,5,1,51,3,,,,,,,,,,,,,,,,,,,,,,,AFSA20.jpg,AFSA01.jpg,AFNE03.jpg,AFNE11.jpg,AFSA01.jpg,FS,4,num_6,16,num_6,0.933464579866,,,2017_Nov_29_1413,60.00588934,FEMA4ImagesEEG,001,102496,
AFNE01.JPG,AFNE01.JPG,AFNE01.JPG,AFNE01.JPG,AFNE01.JPG,AFNE01.JPG,5,2,52,9,,,,,,,,,,,,,,,,,,,,,,,AFSA03.jpg,AFNE03.jpg,AFNE17.jpg,AFSA18.jpg,AFSA18.jpg,FS,4,num_4,16,num_4,0.85014616081,,,2017_Nov_29_1413,60.00588934,FEMA4ImagesEEG,001,102496,
AFNE01.JPG,AFNE01.JPG,AFNE01.JPG,AFNE01.JPG,AFNE01.JPG,AFNE01.JPG,5,3,53,6,,,,,,,,,,,,,,,,,,,,,,,AFSA16.jpg,AFNE05.jpg,AFSA14.jpg,AFNE20.jpg,AFSA14.jpg,FS,4,num_2,32,num_4,1.33353636134,,,2017_Nov_29_1413,60.00588934,FEMA4ImagesEEG,001,102496,
AFNE01.JPG,AFNE01.JPG,AFNE01.JPG,AFNE01.JPG,AFNE01.JPG,AFNE01.JPG,5,4,54,1,,,,,,,,,,,,,,,,,,,,,,,AFNE07.jpg,AFNE19.jpg,AFSA12.jpg,AFSA04.jpg,AFNE07.jpg,FN,3,num_8,16,num_8,1.26658398006,,,2017_Nov_29_1413,60.00588934,FEMA4ImagesEEG,001,102496,
AFNE01.JPG,AFNE01.JPG,AFNE01.JPG,AFNE01.JPG,AFNE01.JPG,AFNE01.JPG,5,5,55,8,,,,,,,,,,,,,,,,,,,,,,,AFNE09.jpg,AFSA11.jpg,AFSA05.jpg,AFNE07.jpg,AFNE09.jpg,FN,3,num_8,32,num_2,3.11665540864,,,2017_Nov_29_1413,60.00588934,FEMA4ImagesEEG,001,102496,
AFNE01.JPG,AFNE01.JPG,AFNE01.JPG,AFNE01.JPG,AFNE01.JPG,AFNE01.JPG,5,6,56,7,,,,,,,,,,,,,,,,,,,,,,,AFNE03.jpg,AFSA15.jpg,AFNE12.jpg,AFSA18.jpg,AFSA18.jpg,FS,4,num_4,32,num_2,1.11677183711,,,2017_Nov_29_1413,60.00588934,FEMA4ImagesEEG,001,102496,
AFNE01.JPG,AFNE01.JPG,AFNE01.JPG,AFNE01.JPG,AFNE01.JPG,AFNE01.JPG,5,7,57,0,,,,,,,,,,,,,,,,,,,,,,,AFSA13.jpg,AFNE01.jpg,AFNE10.jpg,AFSA05.jpg,AFNE10.jpg,FN,3,num_2,32,num_8,0.75022499857,,,2017_Nov_29_1413,60.00588934,FEMA4ImagesEEG,001,102496,
AFNE01.JPG,AFNE01.JPG,AFNE01.JPG,AFNE01.JPG,AFNE01.JPG,AFNE01.JPG,5,8,58,4,,,,,,,,,,,,,,,,,,,,,,,AFNE10.jpg,AFSA17.jpg,AFSA09.jpg,AFNE05.jpg,AFSA17.jpg,FS,4,num_6,32,num_2,1.11677600665,,,2017_Nov_29_1413,60.00588934,FEMA4ImagesEEG,001,102496,
AFNE01.JPG,AFNE01.JPG,AFNE01.JPG,AFNE01.JPG,AFNE01.JPG,AFNE01.JPG,5,9,59,5,,,,,,,,,,,,,,,,,,,,,,,AFNE18.jpg,AFSA07.jpg,AFNE12.jpg,AFSA09.jpg,AFSA07.jpg,FS,4,num_6,16,num_6,1.50007376994,,,2017_Nov_29_1413,60.00588934,FEMA4ImagesEEG,001,102496,
,,,,,,,,,,,,,,,,,,,,,,,,,,,,,,,,,,,,,,,,,,,space,12.2994626336,2017_Nov_29_1413,60.00588934,FEMA4ImagesEEG,001,102496,
AFNE01.JPG,AFNE01.JPG,AFNE01.JPG,AFNE01.JPG,AFNE01.JPG,AFNE01.JPG,,,,,0,0,0,6,,,,,,,,,,,,,,,,,,,AMSA19.jpg,AMNE14.jpg,AMNE06.jpg,AMSA20.jpg,AMNE06.jpg,MN,1,num_2,32,num_8,0.916773953824,,,2017_Nov_29_1413,60.00588934,FEMA4ImagesEEG,001,102496,
AFNE01.JPG,AFNE01.JPG,AFNE01.JPG,AFNE01.JPG,AFNE01.JPG,AFNE01.JPG,,,,,0,1,1,0,,,,,,,,,,,,,,,,,,,AMSA13.jpg,AMNE12.jpg,AMNE16.jpg,AMSA20.jpg,AMNE16.jpg,MN,1,num_2,32,num_6,0.816788002383,,,2017_Nov_29_1413,60.00588934,FEMA4ImagesEEG,001,102496,
AFNE01.JPG,AFNE01.JPG,AFNE01.JPG,AFNE01.JPG,AFNE01.JPG,AFNE01.JPG,,,,,0,2,2,1,,,,,,,,,,,,,,,,,,,AMSA13.jpg,AMNE01.jpg,AMSA14.jpg,AMNE09.jpg,AMSA13.jpg,MS,2,num_8,32,num_6,1.41671493789,,,2017_Nov_29_1413,60.00588934,FEMA4ImagesEEG,001,102496,
AFNE01.JPG,AFNE01.JPG,AFNE01.JPG,AFNE01.JPG,AFNE01.JPG,AFNE01.JPG,,,,,0,3,3,3,,,,,,,,,,,,,,,,,,,AMSA06.jpg,AMNE02.jpg,AMNE15.jpg,AMSA20.jpg,AMSA06.jpg,MS,2,num_8,16,num_8,0.950168997399,,,2017_Nov_29_1413,60.00588934,FEMA4ImagesEEG,001,102496,
AFNE01.JPG,AFNE01.JPG,AFNE01.JPG,AFNE01.JPG,AFNE01.JPG,AFNE01.JPG,,,,,0,4,4,4,,,,,,,,,,,,,,,,,,,AMNE02.jpg,AMNE05.jpg,AMSA13.jpg,AMSA01.jpg,AMNE05.jpg,MN,1,num_6,16,num_6,0.766790536232,,,2017_Nov_29_1413,60.00588934,FEMA4ImagesEEG,001,102496,
AFNE01.JPG,AFNE01.JPG,AFNE01.JPG,AFNE01.JPG,AFNE01.JPG,AFNE01.JPG,,,,,0,5,5,5,,,,,,,,,,,,,,,,,,,AMNE14.jpg,AMNE03.jpg,AMSA19.jpg,AMSA13.jpg,AMSA19.jpg,MS,2,num_2,32,num_4,0.833485684474,,,2017_Nov_29_1413,60.00588934,FEMA4ImagesEEG,001,102496,
AFNE01.JPG,AFNE01.JPG,AFNE01.JPG,AFNE01.JPG,AFNE01.JPG,AFNE01.JPG,,,,,0,6,6,8,,,,,,,,,,,,,,,,,,,AMSA20.jpg,AMSA14.jpg,AMNE03.jpg,AMNE18.jpg,AMSA20.jpg,MS,2,num_8,32,num_2,1.56686642312,,,2017_Nov_29_1413,60.00588934,FEMA4ImagesEEG,001,102496,
AFNE01.JPG,AFNE01.JPG,AFNE01.JPG,AFNE01.JPG,AFNE01.JPG,AFNE01.JPG,,,,,0,7,7,9,,,,,,,,,,,,,,,,,,,AMSA20.jpg,AMNE15.jpg,AMNE12.jpg,AMSA11.jpg,AMNE15.jpg,MN,1,num_6,16,num_6,0.983455631183,,,2017_Nov_29_1413,60.00588934,FEMA4ImagesEEG,001,102496,
AFNE01.JPG,AFNE01.JPG,AFNE01.JPG,AFNE01.JPG,AFNE01.JPG,AFNE01.JPG,,,,,0,8,8,7,,,,,,,,,,,,,,,,,,,AMNE04.jpg,AMSA06.jpg,AMSA16.jpg,AMNE17.jpg,AMSA16.jpg,MS,2,num_2,32,num_8,0.900150041794,,,2017_Nov_29_1413,60.00588934,FEMA4ImagesEEG,001,102496,
AFNE01.JPG,AFNE01.JPG,AFNE01.JPG,AFNE01.JPG,AFNE01.JPG,AFNE01.JPG,,,,,0,9,9,2,,,,,,,,,,,,,,,,,,,AMNE11.jpg,AMNE17.jpg,AMSA01.jpg,AMSA17.jpg,AMSA17.jpg,MS,2,num_4,32,num_6,0.683477569721,,,2017_Nov_29_1413,60.00588934,FEMA4ImagesEEG,001,102496,
AFNE01.JPG,AFNE01.JPG,AFNE01.JPG,AFNE01.JPG,AFNE01.JPG,AFNE01.JPG,,,,,1,0,10,4,,,,,,,,,,,,,,,,,,,AMNE12.jpg,AMSA14.jpg,AMNE07.jpg,AMSA19.jpg,AMNE07.jpg,MN,1,num_2,16,num_2,0.90011283604,,,2017_Nov_29_1413,60.00588934,FEMA4ImagesEEG,001,102496,
AFNE01.JPG,AFNE01.JPG,AFNE01.JPG,AFNE01.JPG,AFNE01.JPG,AFNE01.JPG,,,,,1,1,11,5,,,,,,,,,,,,,,,,,,,AMNE03.jpg,AMSA12.jpg,AMSA06.jpg,AMNE16.jpg,AMNE16.jpg,MN,1,num_4,32,num_2,0.916781010106,,,2017_Nov_29_1413,60.00588934,FEMA4ImagesEEG,001,102496,
AFNE01.JPG,AFNE01.JPG,AFNE01.JPG,AFNE01.JPG,AFNE01.JPG,AFNE01.JPG,,,,,1,2,12,3,,,,,,,,,,,,,,,,,,,AMNE03.jpg,AMSA16.jpg,AMNE08.jpg,AMSA13.jpg,AMNE08.jpg,MN,1,num_2,32,num_8,0.866784827085,,,2017_Nov_29_1413,60.00588934,FEMA4ImagesEEG,001,102496,
AFNE01.JPG,AFNE01.JPG,AFNE01.JPG,AFNE01.JPG,AFNE01.JPG,AFNE01.JPG,,,,,1,3,13,8,,,,,,,,,,,,,,,,,,,AMNE06.jpg,AMSA06.jpg,AMNE15.jpg,AMSA02.jpg,AMNE15.jpg,MN,1,num_2,32,num_6,2.44999387395,,,2017_Nov_29_1413,60.00588934,FEMA4ImagesEEG,001,102496,
AFNE01.JPG,AFNE01.JPG,AFNE01.JPG,AFNE01.JPG,AFNE01.JPG,AFNE01.JPG,,,,,1,4,14,2,,,,,,,,,,,,,,,,,,,AMNE20.jpg,AMSA07.jpg,AMSA04.jpg,AMNE19.jpg,AMNE20.jpg,MN,1,num_8,32,num_4,1.06679682259,,,2017_Nov_29_1413,60.00588934,FEMA4ImagesEEG,001,102496,
AFNE01.JPG,AFNE01.JPG,AFNE01.JPG,AFNE01.JPG,AFNE01.JPG,AFNE01.JPG,,,,,1,5,15,7,,,,,,,,,,,,,,,,,,,AMSA05.jpg,AMNE13.jpg,AMSA20.jpg,AMNE17.jpg,AMSA20.jpg,MS,2,num_2,32,num_8,0.93344437331,,,2017_Nov_29_1413,60.00588934,FEMA4ImagesEEG,001,102496,
AFNE01.JPG,AFNE01.JPG,AFNE01.JPG,AFNE01.JPG,AFNE01.JPG,AFNE01.JPG,,,,,1,6,16,9,,,,,,,,,,,,,,,,,,,AMSA18.jpg,AMSA01.jpg,AMNE19.jpg,AMNE09.jpg,AMNE09.jpg,MN,1,num_4,32,num_8,1.60022105346,,,2017_Nov_29_1413,60.00588934,FEMA4ImagesEEG,001,102496,
AFNE01.JPG,AFNE01.JPG,AFNE01.JPG,AFNE01.JPG,AFNE01.JPG,AFNE01.JPG,,,,,1,7,17,0,,,,,,,,,,,,,,,,,,,AMSA05.jpg,AMNE07.jpg,AMSA18.jpg,AMNE16.jpg,AMNE16.jpg,MN,1,num_4,32,num_6,1.0001244467,,,2017_Nov_29_1413,60.00588934,FEMA4ImagesEEG,001,102496,
AFNE01.JPG,AFNE01.JPG,AFNE01.JPG,AFNE01.JPG,AFNE01.JPG,AFNE01.JPG,,,,,1,8,18,6,,,,,,,,,,,,,,,,,,,AMSA06.jpg,AMNE12.jpg,AMNE03.jpg,AMSA14.jpg,AMSA14.jpg,MS,2,num_4,32,num_2,0.966692197486,,,2017_Nov_29_1413,60.00588934,FEMA4ImagesEEG,001,102496,
AFNE01.JPG,AFNE01.JPG,AFNE01.JPG,AFNE01.JPG,AFNE01.JPG,AFNE01.JPG,,,,,1,9,19,1,,,,,,,,,,,,,,,,,,,AMNE09.jpg,AMSA15.jpg,AMNE14.jpg,AMSA18.jpg,AMNE09.jpg,MN,1,num_8,16,num_8,1.2834795583,,,2017_Nov_29_1413,60.00588934,FEMA4ImagesEEG,001,102496,
AFNE01.JPG,AFNE01.JPG,AFNE01.JPG,AFNE01.JPG,AFNE01.JPG,AFNE01.JPG,,,,,2,0,20,0,,,,,,,,,,,,,,,,,,,AMNE16.jpg,AMSA13.jpg,AMNE04.jpg,AMSA15.jpg,AMSA15.jpg,MS,2,num_4,16,num_4,1.78340995789,,,2017_Nov_29_1413,60.00588934,FEMA4ImagesEEG,001,102496,
AFNE01.JPG,AFNE01.JPG,AFNE01.JPG,AFNE01.JPG,AFNE01.JPG,AFNE01.JPG,,,,,2,1,21,7,,,,,,,,,,,,,,,,,,,AMNE20.jpg,AMSA02.jpg,AMSA12.jpg,AMNE03.jpg,AMSA02.jpg,MS,2,num_6,16,num_6,0.66679239634,,,2017_Nov_29_1413,60.00588934,FEMA4ImagesEEG,001,102496,
AFNE01.JPG,AFNE01.JPG,AFNE01.JPG,AFNE01.JPG,AFNE01.JPG,AFNE01.JPG,,,,,2,2,22,4,,,,,,,,,,,,,,,,,,,AMNE17.jpg,AMNE13.jpg,AMSA08.jpg,AMSA18.jpg,AMSA08.jpg,MS,2,num_2,16,num_2,1.55009465013,,,2017_Nov_29_1413,60.00588934,FEMA4ImagesEEG,001,102496,
AFNE01.JPG,AFNE01.JPG,AFNE01.JPG,AFNE01.JPG,AFNE01.JPG,AFNE01.JPG,,,,,2,3,23,3,,,,,,,,,,,,,,,,,,,AMNE16.jpg,AMSA14.jpg,AMSA04.jpg,AMNE09.jpg,AMSA04.jpg,MS,2,num_2,32,num_6,1.63345829328,,,2017_Nov_29_1413,60.00588934,FEMA4ImagesEEG,001,102496,
AFNE01.JPG,AFNE01.JPG,AFNE01.JPG,AFNE01.JPG,AFNE01.JPG,AFNE01.JPG,,,,,2,4,24,5,,,,,,,,,,,,,,,,,,,AMSA17.jpg,AMNE02.jpg,AMSA05.jpg,AMNE05.jpg,AMSA17.jpg,MS,2,num_8,32,num_4,1.35022698715,,,2017_Nov_29_1413,60.00588934,FEMA4ImagesEEG,001,102496,
AFNE01.JPG,AFNE01.JPG,AFNE01.JPG,AFNE01.JPG,AFNE01.JPG,AFNE01.JPG,,,,,2,5,25,9,,,,,,,,,,,,,,,,,,,AMSA15.jpg,AMNE12.jpg,AMNE01.jpg,AMSA09.jpg,AMNE12.jpg,MN,1,num_6,32,num_8,0.816797624459,,,2017_Nov_29_1413,60.00588934,FEMA4ImagesEEG,001,102496,
AFNE01.JPG,AFNE01.JPG,AFNE01.JPG,AFNE01.JPG,AFNE01.JPG,AFNE01.JPG,,,,,2,6,26,1,,,,,,,,,,,,,,,,,,,AMNE01.jpg,AMSA06.jpg,AMSA17.jpg,AMNE16.jpg,AMNE16.jpg,MN,1,num_4,32,num_6,1.20004246593,,,2017_Nov_29_1413,60.00588934,FEMA4ImagesEEG,001,102496,
AFNE01.JPG,AFNE01.JPG,AFNE01.JPG,AFNE01.JPG,AFNE01.JPG,AFNE01.JPG,,,,,2,7,27,6,,,,,,,,,,,,,,,,,,,AMNE04.jpg,AMSA20.jpg,AMSA18.jpg,AMNE02.jpg,AMNE04.jpg,MN,1,num_8,32,num_2,1.71667728317,,,2017_Nov_29_1413,60.00588934,FEMA4ImagesEEG,001,102496,
AFNE01.JPG,AFNE01.JPG,AFNE01.JPG,AFNE01.JPG,AFNE01.JPG,AFNE01.JPG,,,,,2,8,28,2,,,,,,,,,,,,,,,,,,,AMSA06.jpg,AMNE11.jpg,AMNE03.jpg,AMSA07.jpg,AMSA06.jpg,MS,2,num_8,32,num_4,1.01674418931,,,2017_Nov_29_1413,60.00588934,FEMA4ImagesEEG,001,102496,
AFNE01.JPG,AFNE01.JPG,AFNE01.JPG,AFNE01.JPG,AFNE01.JPG,AFNE01.JPG,,,,,2,9,29,8,,,,,,,,,,,,,,,,,,,AMSA06.jpg,AMNE13.jpg,AMSA15.jpg,AMNE05.jpg,AMSA06.jpg,MS,2,num_8,32,num_6,0.850139425253,,,2017_Nov_29_1413,60.00588934,FEMA4ImagesEEG,001,102496,
AFNE01.JPG,AFNE01.JPG,AFNE01.JPG,AFNE01.JPG,AFNE01.JPG,AFNE01.JPG,,,,,3,0,30,8,,,,,,,,,,,,,,,,,,,AMSA11.jpg,AMNE08.jpg,AMNE02.jpg,AMSA10.jpg,AMNE02.jpg,MN,1,num_2,16,num_2,0.816773248254,,,2017_Nov_29_1413,60.00588934,FEMA4ImagesEEG,001,102496,
AFNE01.JPG,AFNE01.JPG,AFNE01.JPG,AFNE01.JPG,AFNE01.JPG,AFNE01.JPG,,,,,3,1,31,7,,,,,,,,,,,,,,,,,,,AMNE18.jpg,AMNE04.jpg,AMSA13.jpg,AMSA06.jpg,AMNE18.jpg,MN,1,num_8,32,num_4,0.80012720509,,,2017_Nov_29_1413,60.00588934,FEMA4ImagesEEG,001,102496,
AFNE01.JPG,AFNE01.JPG,AFNE01.JPG,AFNE01.JPG,AFNE01.JPG,AFNE01.JPG,,,,,3,2,32,1,,,,,,,,,,,,,,,,,,,AMSA19.jpg,AMNE03.jpg,AMSA14.jpg,AMNE07.jpg,AMNE07.jpg,MN,1,num_4,32,num_8,1.15014378738,,,2017_Nov_29_1413,60.00588934,FEMA4ImagesEEG,001,102496,
AFNE01.JPG,AFNE01.JPG,AFNE01.JPG,AFNE01.JPG,AFNE01.JPG,AFNE01.JPG,,,,,3,3,33,3,,,,,,,,,,,,,,,,,,,AMNE01.jpg,AMSA11.jpg,AMNE07.jpg,AMSA10.jpg,AMNE07.jpg,MN,1,num_2,16,num_2,0.916733220103,,,2017_Nov_29_1413,60.00588934,FEMA4ImagesEEG,001,102496,
AFNE01.JPG,AFNE01.JPG,AFNE01.JPG,AFNE01.JPG,AFNE01.JPG,AFNE01.JPG,,,,,3,4,34,5,,,,,,,,,,,,,,,,,,,AMSA09.jpg,AMNE16.jpg,AMNE20.jpg,AMSA19.jpg,AMNE20.jpg,MN,1,num_2,32,num_8,1.55006899103,,,2017_Nov_29_1413,60.00588934,FEMA4ImagesEEG,001,102496,
AFNE01.JPG,AFNE01.JPG,AFNE01.JPG,AFNE01.JPG,AFNE01.JPG,AFNE01.JPG,,,,,3,5,35,6,,,,,,,,,,,,,,,,,,,AMNE03.jpg,AMSA20.jpg,AMSA17.jpg,AMNE20.jpg,AMSA20.jpg,MS,2,num_6,32,num_8,1.2001200848,,,2017_Nov_29_1413,60.00588934,FEMA4ImagesEEG,001,102496,
AFNE01.JPG,AFNE01.JPG,AFNE01.JPG,AFNE01.JPG,AFNE01.JPG,AFNE01.JPG,,,,,3,6,36,2,,,,,,,,,,,,,,,,,,,AMSA06.jpg,AMNE15.jpg,AMNE05.jpg,AMSA05.jpg,AMNE05.jpg,MN,1,num_2,32,num_6,1.08340181119,,,2017_Nov_29_1413,60.00588934,FEMA4ImagesEEG,001,102496,
AFNE01.JPG,AFNE01.JPG,AFNE01.JPG,AFNE01.JPG,AFNE01.JPG,AFNE01.JPG,,,,,3,7,37,0,,,,,,,,,,,,,,,,,,,AMNE14.jpg,AMNE09.jpg,AMSA10.jpg,AMSA16.jpg,AMNE14.jpg,MN,1,num_8,32,num_2,0.916777802864,,,2017_Nov_29_1413,60.00588934,FEMA4ImagesEEG,001,102496,
AFNE01.JPG,AFNE01.JPG,AFNE01.JPG,AFNE01.JPG,AFNE01.JPG,AFNE01.JPG,,,,,3,8,38,4,,,,,,,,,,,,,,,,,,,AMNE02.jpg,AMSA02.jpg,AMSA10.jpg,AMNE10.jpg,AMNE02.jpg,MN,1,num_8,32,num_2,2.33325539378,,,2017_Nov_29_1413,60.00588934,FEMA4ImagesEEG,001,102496,
AFNE01.JPG,AFNE01.JPG,AFNE01.JPG,AFNE01.JPG,AFNE01.JPG,AFNE01.JPG,,,,,3,9,39,9,,,,,,,,,,,,,,,,,,,AMNE09.jpg,AMSA04.jpg,AMSA01.jpg,AMNE03.jpg,AMSA04.jpg,MS,2,num_6,32,num_4,1.23356323922,,,2017_Nov_29_1413,60.00588934,FEMA4ImagesEEG,001,102496,
AFNE01.JPG,AFNE01.JPG,AFNE01.JPG,AFNE01.JPG,AFNE01.JPG,AFNE01.JPG,,,,,4,0,40,2,,,,,,,,,,,,,,,,,,,AMSA20.jpg,AMNE02.jpg,AMSA15.jpg,AMNE15.jpg,AMNE02.jpg,MN,1,num_6,16,num_6,0.766926529584,,,2017_Nov_29_1413,60.00588934,FEMA4ImagesEEG,001,102496,
AFNE01.JPG,AFNE01.JPG,AFNE01.JPG,AFNE01.JPG,AFNE01.JPG,AFNE01.JPG,,,,,4,1,41,9,,,,,,,,,,,,,,,,,,,AMNE15.jpg,AMNE05.jpg,AMSA08.jpg,AMSA06.jpg,AMSA06.jpg,MS,2,num_4,32,num_6,2.80004958622,,,2017_Nov_29_1413,60.00588934,FEMA4ImagesEEG,001,102496,
AFNE01.JPG,AFNE01.JPG,AFNE01.JPG,AFNE01.JPG,AFNE01.JPG,AFNE01.JPG,,,,,4,2,42,4,,,,,,,,,,,,,,,,,,,AMSA07.jpg,AMSA13.jpg,AMNE08.jpg,AMNE20.jpg,AMNE08.jpg,MN,1,num_2,32,num_8,1.2501743217,,,2017_Nov_29_1413,60.00588934,FEMA4ImagesEEG,001,102496,
AFNE01.JPG,AFNE01.JPG,AFNE01.JPG,AFNE01.JPG,AFNE01.JPG,AFNE01.JPG,,,,,4,3,43,7,,,,,,,,,,,,,,,,,,,AMNE03.jpg,AMNE07.jpg,AMSA17.jpg,AMSA13.jpg,AMNE03.jpg,MN,1,num_8,32,num_2,1.10005972162,,,2017_Nov_29_1413,60.00588934,FEMA4ImagesEEG,001,102496,
AFNE01.JPG,AFNE01.JPG,AFNE01.JPG,AFNE01.JPG,AFNE01.JPG,AFNE01.JPG,,,,,4,4,44,3,,,,,,,,,,,,,,,,,,,AMNE20.jpg,AMSA14.jpg,AMNE13.jpg,AMSA16.jpg,AMNE13.jpg,MN,1,num_2,32,num_8,1.06677084276,,,2017_Nov_29_1413,60.00588934,FEMA4ImagesEEG,001,102496,
AFNE01.JPG,AFNE01.JPG,AFNE01.JPG,AFNE01.JPG,AFNE01.JPG,AFNE01.JPG,,,,,4,5,45,0,,,,,,,,,,,,,,,,,,,AMNE14.jpg,AMSA16.jpg,AMSA12.jpg,AMNE08.jpg,AMSA16.jpg,MS,2,num_6,32,num_8,2.43331575685,,,2017_Nov_29_1413,60.00588934,FEMA4ImagesEEG,001,102496,
AFNE01.JPG,AFNE01.JPG,AFNE01.JPG,AFNE01.JPG,AFNE01.JPG,AFNE01.JPG,,,,,4,6,46,5,,,,,,,,,,,,,,,,,,,AMNE18.jpg,AMSA19.jpg,AMSA05.jpg,AMNE02.jpg,AMNE02.jpg,MN,1,num_4,32,num_2,1.23355201329,,,2017_Nov_29_1413,60.00588934,FEMA4ImagesEEG,001,102496,
AFNE01.JPG,AFNE01.JPG,AFNE01.JPG,AFNE01.JPG,AFNE01.JPG,AFNE01.JPG,,,,,4,7,47,6,,,,,,,,,,,,,,,,,,,AMNE12.jpg,AMSA02.jpg,AMSA12.jpg,AMNE17.jpg,AMSA12.jpg,MS,2,num_2,32,num_4,1.01678684761,,,2017_Nov_29_1413,60.00588934,FEMA4ImagesEEG,001,102496,
AFNE01.JPG,AFNE01.JPG,AFNE01.JPG,AFNE01.JPG,AFNE01.JPG,AFNE01.JPG,,,,,4,8,48,1,,,,,,,,,,,,,,,,,,,AMSA11.jpg,AMNE06.jpg,AMNE20.jpg,AMSA09.jpg,AMSA09.jpg,MS,2,num_4,32,num_8,0.983489629463,,,2017_Nov_29_1413,60.00588934,FEMA4ImagesEEG,001,102496,
AFNE01.JPG,AFNE01.JPG,AFNE01.JPG,AFNE01.JPG,AFNE01.JPG,AFNE01.JPG,,,,,4,9,49,8,,,,,,,,,,,,,,,,,,,AMNE14.jpg,AMSA19.jpg,AMSA01.jpg,AMNE20.jpg,AMSA19.jpg,MS,2,num_6,32,num_2,0.883497583913,,,2017_Nov_29_1413,60.00588934,FEMA4ImagesEEG,001,102496,
AFNE01.JPG,AFNE01.JPG,AFNE01.JPG,AFNE01.JPG,AFNE01.JPG,AFNE01.JPG,,,,,5,0,50,1,,,,,,,,,,,,,,,,,,,AMNE04.jpg,AMNE14.jpg,AMSA15.jpg,AMSA18.jpg,AMSA18.jpg,MS,2,num_4,32,num_6,1.83364028076,,,2017_Nov_29_1413,60.00588934,FEMA4ImagesEEG,001,102496,
AFNE01.JPG,AFNE01.JPG,AFNE01.JPG,AFNE01.JPG,AFNE01.JPG,AFNE01.JPG,,,,,5,1,51,0,,,,,,,,,,,,,,,,,,,AMNE17.jpg,AMNE01.jpg,AMSA10.jpg,AMSA18.jpg,AMNE17.jpg,MN,1,num_8,32,num_6,2.16680747119,,,2017_Nov_29_1413,60.00588934,FEMA4ImagesEEG,001,102496,
AFNE01.JPG,AFNE01.JPG,AFNE01.JPG,AFNE01.JPG,AFNE01.JPG,AFNE01.JPG,,,,,5,2,52,8,,,,,,,,,,,,,,,,,,,AMSA17.jpg,AMNE14.jpg,AMNE02.jpg,AMSA04.jpg,AMNE14.jpg,MN,1,num_6,32,num_2,1.23353629711,,,2017_Nov_29_1413,60.00588934,FEMA4ImagesEEG,001,102496,
AFNE01.JPG,AFNE01.JPG,AFNE01.JPG,AFNE01.JPG,AFNE01.JPG,AFNE01.JPG,,,,,5,3,53,6,,,,,,,,,,,,,,,,,,,AMSA05.jpg,AMNE14.jpg,AMNE11.jpg,AMSA16.jpg,AMSA05.jpg,MS,2,num_8,16,num_8,1.08342907391,,,2017_Nov_29_1413,60.00588934,FEMA4ImagesEEG,001,102496,
AFNE01.JPG,AFNE01.JPG,AFNE01.JPG,AFNE01.JPG,AFNE01.JPG,AFNE01.JPG,,,,,5,4,54,7,,,,,,,,,,,,,,,,,,,AMSA02.jpg,AMNE10.jpg,AMSA06.jpg,AMNE13.jpg,AMNE13.jpg,MN,1,num_4,32,num_6,1.1834589669,,,2017_Nov_29_1413,60.00588934,FEMA4ImagesEEG,001,102496,
AFNE01.JPG,AFNE01.JPG,AFNE01.JPG,AFNE01.JPG,AFNE01.JPG,AFNE01.JPG,,,,,5,5,55,4,,,,,,,,,,,,,,,,,,,AMSA15.jpg,AMNE20.jpg,AMSA20.jpg,AMNE03.jpg,AMSA20.jpg,MS,2,num_2,32,num_8,4.23321876535,,,2017_Nov_29_1413,60.00588934,FEMA4ImagesEEG,001,102496,
AFNE01.JPG,AFNE01.JPG,AFNE01.JPG,AFNE01.JPG,AFNE01.JPG,AFNE01.JPG,,,,,5,6,56,9,,,,,,,,,,,,,,,,,,,AMNE02.jpg,AMSA05.jpg,AMNE17.jpg,AMSA18.jpg,AMNE02.jpg,MN,1,num_8,32,num_2,1.18348751264,,,2017_Nov_29_1413,60.00588934,FEMA4ImagesEEG,001,102496,
AFNE01.JPG,AFNE01.JPG,AFNE01.JPG,AFNE01.JPG,AFNE01.JPG,AFNE01.JPG,,,,,5,7,57,3,,,,,,,,,,,,,,,,,,,AMNE12.jpg,AMNE13.jpg,AMSA10.jpg,AMSA15.jpg,AMSA15.jpg,MS,2,num_4,32,num_8,0.833283618675,,,2017_Nov_29_1413,60.00588934,FEMA4ImagesEEG,001,102496,
AFNE01.JPG,AFNE01.JPG,AFNE01.JPG,AFNE01.JPG,AFNE01.JPG,AFNE01.JPG,,,,,5,8,58,2,,,,,,,,,,,,,,,,,,,AMSA03.jpg,AMSA04.jpg,AMNE05.jpg,AMNE03.jpg,AMNE03.jpg,MN,1,num_4,32,num_6,1.11677472375,,,2017_Nov_29_1413,60.00588934,FEMA4ImagesEEG,001,102496,
AFNE01.JPG,AFNE01.JPG,AFNE01.JPG,AFNE01.JPG,AFNE01.JPG,AFNE01.JPG,,,,,5,9,59,5,,,,,,,,,,,,,,,,,,,AMNE07.jpg,AMSA18.jpg,AMSA04.jpg,AMNE08.jpg,AMSA04.jpg,MS,2,num_2,16,num_2,2.58337583125,,,2017_Nov_29_1413,60.00588934,FEMA4ImagesEEG,001,102496,
,,,,,,,,,,,,,,,,,,,,,,,,,,,,,,,,,,,,,,,,,,,space,29.4482381475,2017_Nov_29_1413,60.00588934,FEMA4ImagesEEG,001,102496,
AFNE01.JPG,AFNE01.JPG,AFNE01.JPG,AFNE01.JPG,AFNE01.JPG,AFNE01.JPG,,,,,,,,,0,0,0,3,,,,,,,,,,,,,,,AFNE07.jpg,AFSA05.jpg,AFSA10.jpg,AFNE09.jpg,AFSA05.jpg,FS,4,num_6,32,num_2,1.30006786843,,,2017_Nov_29_1413,60.00588934,FEMA4ImagesEEG,001,102496,
AFNE01.JPG,AFNE01.JPG,AFNE01.JPG,AFNE01.JPG,AFNE01.JPG,AFNE01.JPG,,,,,,,,,0,1,1,8,,,,,,,,,,,,,,,AFSA01.jpg,AFSA10.jpg,AFNE18.jpg,AFNE17.jpg,AFNE18.jpg,FN,3,num_2,32,num_4,1.08344158286,,,2017_Nov_29_1413,60.00588934,FEMA4ImagesEEG,001,102496,
AFNE01.JPG,AFNE01.JPG,AFNE01.JPG,AFNE01.JPG,AFNE01.JPG,AFNE01.JPG,,,,,,,,,0,2,2,7,,,,,,,,,,,,,,,AFSA13.jpg,AFNE03.jpg,AFSA15.jpg,AFNE19.jpg,AFNE19.jpg,FN,3,num_4,32,num_8,0.80015158141,,,2017_Nov_29_1413,60.00588934,FEMA4ImagesEEG,001,102496,
AFNE01.JPG,AFNE01.JPG,AFNE01.JPG,AFNE01.JPG,AFNE01.JPG,AFNE01.JPG,,,,,,,,,0,3,3,2,,,,,,,,,,,,,,,AFNE12.jpg,AFNE10.jpg,AFSA07.jpg,AFSA09.jpg,AFNE10.jpg,FN,3,num_6,16,num_6,1.06687283784,,,2017_Nov_29_1413,60.00588934,FEMA4ImagesEEG,001,102496,
AFNE01.JPG,AFNE01.JPG,AFNE01.JPG,AFNE01.JPG,AFNE01.JPG,AFNE01.JPG,,,,,,,,,0,4,4,5,,,,,,,,,,,,,,,AFSA19.jpg,AFNE07.jpg,AFSA01.jpg,AFNE15.jpg,AFNE07.jpg,FN,3,num_6,32,num_8,1.43378403608,,,2017_Nov_29_1413,60.00588934,FEMA4ImagesEEG,001,102496,
AFNE01.JPG,AFNE01.JPG,AFNE01.JPG,AFNE01.JPG,AFNE01.JPG,AFNE01.JPG,,,,,,,,,0,5,5,0,,,,,,,,,,,,,,,AFSA07.jpg,AFNE09.jpg,AFSA05.jpg,AFNE16.jpg,AFNE09.jpg,FN,3,num_6,16,num_6,2.66664132837,,,2017_Nov_29_1413,60.00588934,FEMA4ImagesEEG,001,102496,
AFNE01.JPG,AFNE01.JPG,AFNE01.JPG,AFNE01.JPG,AFNE01.JPG,AFNE01.JPG,,,,,,,,,0,6,6,9,,,,,,,,,,,,,,,AFSA02.jpg,AFNE05.jpg,AFNE10.jpg,AFSA15.jpg,AFNE05.jpg,FN,3,num_6,16,num_6,0.883465509978,,,2017_Nov_29_1413,60.00588934,FEMA4ImagesEEG,001,102496,
AFNE01.JPG,AFNE01.JPG,AFNE01.JPG,AFNE01.JPG,AFNE01.JPG,AFNE01.JPG,,,,,,,,,0,7,7,1,,,,,,,,,,,,,,,AFNE08.jpg,AFNE14.jpg,AFSA13.jpg,AFSA20.jpg,AFNE08.jpg,FN,3,num_8,32,num_2,1.25006334588,,,2017_Nov_29_1413,60.00588934,FEMA4ImagesEEG,001,102496,
AFNE01.JPG,AFNE01.JPG,AFNE01.JPG,AFNE01.JPG,AFNE01.JPG,AFNE01.JPG,,,,,,,,,0,8,8,4,,,,,,,,,,,,,,,AFSA16.jpg,AFNE19.jpg,AFNE12.jpg,AFSA17.jpg,AFSA17.jpg,FS,4,num_4,32,num_8,0.916757275467,,,2017_Nov_29_1413,60.00588934,FEMA4ImagesEEG,001,102496,
AFNE01.JPG,AFNE01.JPG,AFNE01.JPG,AFNE01.JPG,AFNE01.JPG,AFNE01.JPG,,,,,,,,,0,9,9,6,,,,,,,,,,,,,,,AFSA07.jpg,AFNE17.jpg,AFNE19.jpg,AFSA17.jpg,AFSA17.jpg,FS,4,num_4,16,num_4,0.750151869957,,,2017_Nov_29_1413,60.00588934,FEMA4ImagesEEG,001,102496,
AFNE01.JPG,AFNE01.JPG,AFNE01.JPG,AFNE01.JPG,AFNE01.JPG,AFNE01.JPG,,,,,,,,,1,0,10,8,,,,,,,,,,,,,,,AFNE04.jpg,AFSA06.jpg,AFNE10.jpg,AFSA10.jpg,AFNE10.jpg,FN,3,num_2,32,num_8,0.816778700915,,,2017_Nov_29_1413,60.00588934,FEMA4ImagesEEG,001,102496,
AFNE01.JPG,AFNE01.JPG,AFNE01.JPG,AFNE01.JPG,AFNE01.JPG,AFNE01.JPG,,,,,,,,,1,1,11,6,,,,,,,,,,,,,,,AFSA07.jpg,AFNE02.jpg,AFNE20.jpg,AFSA13.jpg,AFNE02.jpg,FN,3,num_6,32,num_2,1.10009564448,,,2017_Nov_29_1413,60.00588934,FEMA4ImagesEEG,001,102496,
AFNE01.JPG,AFNE01.JPG,AFNE01.JPG,AFNE01.JPG,AFNE01.JPG,AFNE01.JPG,,,,,,,,,1,2,12,7,,,,,,,,,,,,,,,AFNE04.jpg,AFSA03.jpg,AFNE03.jpg,AFSA18.jpg,AFSA18.jpg,FS,4,num_4,32,num_6,1.51647829649,,,2017_Nov_29_1413,60.00588934,FEMA4ImagesEEG,001,102496,
AFNE01.JPG,AFNE01.JPG,AFNE01.JPG,AFNE01.JPG,AFNE01.JPG,AFNE01.JPG,,,,,,,,,1,3,13,5,,,,,,,,,,,,,,,AFSA06.jpg,AFNE15.jpg,AFSA14.jpg,AFNE10.jpg,AFNE15.jpg,FN,3,num_6,32,num_8,0.850024280022,,,2017_Nov_29_1413,60.00588934,FEMA4ImagesEEG,001,102496,
AFNE01.JPG,AFNE01.JPG,AFNE01.JPG,AFNE01.JPG,AFNE01.JPG,AFNE01.JPG,,,,,,,,,1,4,14,1,,,,,,,,,,,,,,,AFSA10.jpg,AFSA17.jpg,AFNE01.jpg,AFNE02.jpg,AFSA10.jpg,FS,4,num_8,16,num_8,0.916794481338,,,2017_Nov_29_1413,60.00588934,FEMA4ImagesEEG,001,102496,
AFNE01.JPG,AFNE01.JPG,AFNE01.JPG,AFNE01.JPG,AFNE01.JPG,AFNE01.JPG,,,,,,,,,1,5,15,3,,,,,,,,,,,,,,,AFSA19.jpg,AFNE14.jpg,AFNE10.jpg,AFSA15.jpg,AFNE10.jpg,FN,3,num_2,16,num_2,1.43370737939,,,2017_Nov_29_1413,60.00588934,FEMA4ImagesEEG,001,102496,
AFNE01.JPG,AFNE01.JPG,AFNE01.JPG,AFNE01.JPG,AFNE01.JPG,AFNE01.JPG,,,,,,,,,1,6,16,2,,,,,,,,,,,,,,,AFSA09.jpg,AFNE14.jpg,AFNE02.jpg,AFSA07.jpg,AFSA09.jpg,FS,4,num_8,32,num_2,2.78331886802,,,2017_Nov_29_1413,60.00588934,FEMA4ImagesEEG,001,102496,
AFNE01.JPG,AFNE01.JPG,AFNE01.JPG,AFNE01.JPG,AFNE01.JPG,AFNE01.JPG,,,,,,,,,1,7,17,4,,,,,,,,,,,,,,,AFSA04.jpg,AFNE17.jpg,AFSA20.jpg,AFNE15.jpg,AFSA04.jpg,FS,4,num_8,32,num_6,1.91668446769,,,2017_Nov_29_1413,60.00588934,FEMA4ImagesEEG,001,102496,
AFNE01.JPG,AFNE01.JPG,AFNE01.JPG,AFNE01.JPG,AFNE01.JPG,AFNE01.JPG,,,,,,,,,1,8,18,9,,,,,,,,,,,,,,,AFNE10.jpg,AFSA17.jpg,AFSA10.jpg,AFNE06.jpg,AFNE10.jpg,FN,3,num_8,16,num_8,1.21689281985,,,2017_Nov_29_1413,60.00588934,FEMA4ImagesEEG,001,102496,
AFNE01.JPG,AFNE01.JPG,AFNE01.JPG,AFNE01.JPG,AFNE01.JPG,AFNE01.JPG,,,,,,,,,1,9,19,0,,,,,,,,,,,,,,,AFNE14.jpg,AFSA07.jpg,AFNE07.jpg,AFSA16.jpg,AFNE14.jpg,FN,3,num_8,32,num_2,1.56675993756,,,2017_Nov_29_1413,60.00588934,FEMA4ImagesEEG,001,102496,
AFNE01.JPG,AFNE01.JPG,AFNE01.JPG,AFNE01.JPG,AFNE01.JPG,AFNE01.JPG,,,,,,,,,2,0,20,9,,,,,,,,,,,,,,,AFSA14.jpg,AFSA19.jpg,AFNE06.jpg,AFNE01.jpg,AFSA19.jpg,FS,4,num_6,16,num_6,1.10013092565,,,2017_Nov_29_1413,60.00588934,FEMA4ImagesEEG,001,102496,
AFNE01.JPG,AFNE01.JPG,AFNE01.JPG,AFNE01.JPG,AFNE01.JPG,AFNE01.JPG,,,,,,,,,2,1,21,6,,,,,,,,,,,,,,,AFNE09.jpg,AFNE13.jpg,AFSA11.jpg,AFSA07.jpg,AFNE09.jpg,FN,3,num_8,16,num_8,0.950154243503,,,2017_Nov_29_1413,60.00588934,FEMA4ImagesEEG,001,102496,
AFNE01.JPG,AFNE01.JPG,AFNE01.JPG,AFNE01.JPG,AFNE01.JPG,AFNE01.JPG,,,,,,,,,2,2,22,1,,,,,,,,,,,,,,,AFNE10.jpg,AFNE01.jpg,AFSA01.jpg,AFSA05.jpg,AFNE01.jpg,FN,3,num_6,16,num_6,3.06642572745,,,2017_Nov_29_1413,60.00588934,FEMA4ImagesEEG,001,102496,
AFNE01.JPG,AFNE01.JPG,AFNE01.JPG,AFNE01.JPG,AFNE01.JPG,AFNE01.JPG,,,,,,,,,2,3,23,7,,,,,,,,,,,,,,,AFSA06.jpg,AFNE03.jpg,AFNE13.jpg,AFSA07.jpg,AFSA06.jpg,FS,4,num_8,32,num_2,1.16674204031,,,2017_Nov_29_1413,60.00588934,FEMA4ImagesEEG,001,102496,
AFNE01.JPG,AFNE01.JPG,AFNE01.JPG,AFNE01.JPG,AFNE01.JPG,AFNE01.JPG,,,,,,,,,2,4,24,8,,,,,,,,,,,,,,,AFSA17.jpg,AFSA16.jpg,AFNE09.jpg,AFNE20.jpg,AFNE09.jpg,FN,3,num_2,32,num_8,0.783491425682,,,2017_Nov_29_1413,60.00588934,FEMA4ImagesEEG,001,102496,
AFNE01.JPG,AFNE01.JPG,AFNE01.JPG,AFNE01.JPG,AFNE01.JPG,AFNE01.JPG,,,,,,,,,2,5,25,3,,,,,,,,,,,,,,,AFNE19.jpg,AFSA15.jpg,AFNE18.jpg,AFSA02.jpg,AFSA15.jpg,FS,4,num_6,16,num_6,1.06676731468,,,2017_Nov_29_1413,60.00588934,FEMA4ImagesEEG,001,102496,
AFNE01.JPG,AFNE01.JPG,AFNE01.JPG,AFNE01.JPG,AFNE01.JPG,AFNE01.JPG,,,,,,,,,2,6,26,5,,,,,,,,,,,,,,,AFNE20.jpg,AFNE17.jpg,AFSA01.jpg,AFSA09.jpg,AFNE20.jpg,FN,3,num_8,32,num_2,1.81673091068,,,2017_Nov_29_1413,60.00588934,FEMA4ImagesEEG,001,102496,
AFNE01.JPG,AFNE01.JPG,AFNE01.JPG,AFNE01.JPG,AFNE01.JPG,AFNE01.JPG,,,,,,,,,2,7,27,4,,,,,,,,,,,,,,,AFNE01.jpg,AFNE06.jpg,AFSA09.jpg,AFSA05.jpg,AFSA05.jpg,FS,4,num_4,16,num_4,1.21673052583,,,2017_Nov_29_1413,60.00588934,FEMA4ImagesEEG,001,102496,
AFNE01.JPG,AFNE01.JPG,AFNE01.JPG,AFNE01.JPG,AFNE01.JPG,AFNE01.JPG,,,,,,,,,2,8,28,2,,,,,,,,,,,,,,,AFSA05.jpg,AFNE08.jpg,AFNE02.jpg,AFSA01.jpg,AFNE02.jpg,FN,3,num_2,32,num_6,1.50007152488,,,2017_Nov_29_1413,60.00588934,FEMA4ImagesEEG,001,102496,
AFNE01.JPG,AFNE01.JPG,AFNE01.JPG,AFNE01.JPG,AFNE01.JPG,AFNE01.JPG,,,,,,,,,2,9,29,0,,,,,,,,,,,,,,,AFSA10.jpg,AFNE14.jpg,AFSA17.jpg,AFNE11.jpg,AFNE11.jpg,FN,3,num_4,16,num_4,1.28340899572,,,2017_Nov_29_1413,60.00588934,FEMA4ImagesEEG,001,102496,
AFNE01.JPG,AFNE01.JPG,AFNE01.JPG,AFNE01.JPG,AFNE01.JPG,AFNE01.JPG,,,,,,,,,3,0,30,0,,,,,,,,,,,,,,,AFNE09.jpg,AFNE06.jpg,AFSA02.jpg,AFSA09.jpg,AFNE09.jpg,FN,3,num_8,48,None,,,,2017_Nov_29_1413,60.00588934,FEMA4ImagesEEG,001,102496,
AFNE01.JPG,AFNE01.JPG,AFNE01.JPG,AFNE01.JPG,AFNE01.JPG,AFNE01.JPG,,,,,,,,,3,1,31,3,,,,,,,,,,,,,,,AFSA13.jpg,AFNE06.jpg,AFSA10.jpg,AFNE14.jpg,AFSA13.jpg,FS,4,num_8,32,num_6,1.76674980228,,,2017_Nov_29_1413,60.00588934,FEMA4ImagesEEG,001,102496,
AFNE01.JPG,AFNE01.JPG,AFNE01.JPG,AFNE01.JPG,AFNE01.JPG,AFNE01.JPG,,,,,,,,,3,2,32,9,,,,,,,,,,,,,,,AFSA20.jpg,AFNE04.jpg,AFSA07.jpg,AFNE08.jpg,AFNE08.jpg,FN,3,num_4,16,num_4,0.88347737724,,,2017_Nov_29_1413,60.00588934,FEMA4ImagesEEG,001,102496,
AFNE01.JPG,AFNE01.JPG,AFNE01.JPG,AFNE01.JPG,AFNE01.JPG,AFNE01.JPG,,,,,,,,,3,3,33,2,,,,,,,,,,,,,,,AFSA06.jpg,AFNE19.jpg,AFNE08.jpg,AFSA20.jpg,AFNE19.jpg,FN,3,num_6,16,num_6,0.766809139051,,,2017_Nov_29_1413,60.00588934,FEMA4ImagesEEG,001,102496,
AFNE01.JPG,AFNE01.JPG,AFNE01.JPG,AFNE01.JPG,AFNE01.JPG,AFNE01.JPG,,,,,,,,,3,4,34,1,,,,,,,,,,,,,,,AFSA09.jpg,AFSA11.jpg,AFNE01.jpg,AFNE10.jpg,AFSA11.jpg,FS,4,num_6,16,num_6,0.650274969637,,,2017_Nov_29_1413,60.00588934,FEMA4ImagesEEG,001,102496,
AFNE01.JPG,AFNE01.JPG,AFNE01.JPG,AFNE01.JPG,AFNE01.JPG,AFNE01.JPG,,,,,,,,,3,5,35,6,,,,,,,,,,,,,,,AFSA02.jpg,AFSA07.jpg,AFNE06.jpg,AFNE17.jpg,AFNE06.jpg,FN,3,num_2,32,num_8,1.61669582187,,,2017_Nov_29_1413,60.00588934,FEMA4ImagesEEG,001,102496,
AFNE01.JPG,AFNE01.JPG,AFNE01.JPG,AFNE01.JPG,AFNE01.JPG,AFNE01.JPG,,,,,,,,,3,6,36,8,,,,,,,,,,,,,,,AFNE06.jpg,AFNE12.jpg,AFSA06.jpg,AFSA08.jpg,AFSA08.jpg,FS,4,num_4,32,num_2,1.06673331629,,,2017_Nov_29_1413,60.00588934,FEMA4ImagesEEG,001,102496,
AFNE01.JPG,AFNE01.JPG,AFNE01.JPG,AFNE01.JPG,AFNE01.JPG,AFNE01.JPG,,,,,,,,,3,7,37,5,,,,,,,,,,,,,,,AFSA12.jpg,AFNE09.jpg,AFNE16.jpg,AFSA13.jpg,AFSA12.jpg,FS,4,num_8,16,num_8,1.133331922,,,2017_Nov_29_1413,60.00588934,FEMA4ImagesEEG,001,102496,
AFNE01.JPG,AFNE01.JPG,AFNE01.JPG,AFNE01.JPG,AFNE01.JPG,AFNE01.JPG,,,,,,,,,3,8,38,7,,,,,,,,,,,,,,,AFNE11.jpg,AFSA05.jpg,AFNE08.jpg,AFSA02.jpg,AFSA05.jpg,FS,4,num_6,16,num_6,1.43340299791,,,2017_Nov_29_1413,60.00588934,FEMA4ImagesEEG,001,102496,
AFNE01.JPG,AFNE01.JPG,AFNE01.JPG,AFNE01.JPG,AFNE01.JPG,AFNE01.JPG,,,,,,,,,3,9,39,4,,,,,,,,,,,,,,,AFNE15.jpg,AFNE07.jpg,AFSA06.jpg,AFSA05.jpg,AFNE07.jpg,FN,3,num_6,16,num_6,1.44975364022,,,2017_Nov_29_1413,60.00588934,FEMA4ImagesEEG,001,102496,
AFNE01.JPG,AFNE01.JPG,AFNE01.JPG,AFNE01.JPG,AFNE01.JPG,AFNE01.JPG,,,,,,,,,4,0,40,4,,,,,,,,,,,,,,,AFSA16.jpg,AFNE08.jpg,AFNE03.jpg,AFSA17.jpg,AFNE03.jpg,FN,3,num_2,32,num_4,1.54995384568,,,2017_Nov_29_1413,60.00588934,FEMA4ImagesEEG,001,102496,
AFNE01.JPG,AFNE01.JPG,AFNE01.JPG,AFNE01.JPG,AFNE01.JPG,AFNE01.JPG,,,,,,,,,4,1,41,3,,,,,,,,,,,,,,,AFNE02.jpg,AFSA11.jpg,AFNE19.jpg,AFSA18.jpg,AFSA11.jpg,FS,4,num_6,16,num_6,2.0000683174,,,2017_Nov_29_1413,60.00588934,FEMA4ImagesEEG,001,102496,
AFNE01.JPG,AFNE01.JPG,AFNE01.JPG,AFNE01.JPG,AFNE01.JPG,AFNE01.JPG,,,,,,,,,4,2,42,1,,,,,,,,,,,,,,,AFNE02.jpg,AFSA20.jpg,AFSA06.jpg,AFNE12.jpg,AFSA20.jpg,FS,4,num_6,16,num_6,0.933439882938,,,2017_Nov_29_1413,60.00588934,FEMA4ImagesEEG,001,102496,
AFNE01.JPG,AFNE01.JPG,AFNE01.JPG,AFNE01.JPG,AFNE01.JPG,AFNE01.JPG,,,,,,,,,4,3,43,6,,,,,,,,,,,,,,,AFSA20.jpg,AFNE10.jpg,AFNE13.jpg,AFSA10.jpg,AFSA20.jpg,FS,4,num_8,32,num_4,4.9331592361,,,2017_Nov_29_1413,60.00588934,FEMA4ImagesEEG,001,102496,
AFNE01.JPG,AFNE01.JPG,AFNE01.JPG,AFNE01.JPG,AFNE01.JPG,AFNE01.JPG,,,,,,,,,4,4,44,0,,,,,,,,,,,,,,,AFNE10.jpg,AFNE18.jpg,AFSA01.jpg,AFSA06.jpg,AFSA01.jpg,FS,4,num_2,32,num_6,1.25014192704,,,2017_Nov_29_1413,60.00588934,FEMA4ImagesEEG,001,102496,
AFNE01.JPG,AFNE01.JPG,AFNE01.JPG,AFNE01.JPG,AFNE01.JPG,AFNE01.JPG,,,,,,,,,4,5,45,9,,,,,,,,,,,,,,,AFNE13.jpg,AFSA13.jpg,AFSA14.jpg,AFNE20.jpg,AFSA13.jpg,FS,4,num_6,32,num_2,2.01669222955,,,2017_Nov_29_1413,60.00588934,FEMA4ImagesEEG,001,102496,
AFNE01.JPG,AFNE01.JPG,AFNE01.JPG,AFNE01.JPG,AFNE01.JPG,AFNE01.JPG,,,,,,,,,4,6,46,2,,,,,,,,,,,,,,,AFSA02.jpg,AFSA15.jpg,AFNE09.jpg,AFNE04.jpg,AFNE04.jpg,FN,3,num_4,16,num_4,1.08345280867,,,2017_Nov_29_1413,60.00588934,FEMA4ImagesEEG,001,102496,
AFNE01.JPG,AFNE01.JPG,AFNE01.JPG,AFNE01.JPG,AFNE01.JPG,AFNE01.JPG,,,,,,,,,4,7,47,7,,,,,,,,,,,,,,,AFNE04.jpg,AFNE17.jpg,AFSA16.jpg,AFSA19.jpg,AFSA19.jpg,FS,4,num_4,32,num_6,1.15016495611,,,2017_Nov_29_1413,60.00588934,FEMA4ImagesEEG,001,102496,
AFNE01.JPG,AFNE01.JPG,AFNE01.JPG,AFNE01.JPG,AFNE01.JPG,AFNE01.JPG,,,,,,,,,4,8,48,5,,,,,,,,,,,,,,,AFSA09.jpg,AFNE15.jpg,AFSA16.jpg,AFNE17.jpg,AFNE15.jpg,FN,3,num_6,16,num_6,0.566809331533,,,2017_Nov_29_1413,60.00588934,FEMA4ImagesEEG,001,102496,
AFNE01.JPG,AFNE01.JPG,AFNE01.JPG,AFNE01.JPG,AFNE01.JPG,AFNE01.JPG,,,,,,,,,4,9,49,8,,,,,,,,,,,,,,,AFNE01.jpg,AFNE02.jpg,AFSA17.jpg,AFSA06.jpg,AFNE02.jpg,FN,3,num_6,32,num_2,1.76675910363,,,2017_Nov_29_1413,60.00588934,FEMA4ImagesEEG,001,102496,
AFNE01.JPG,AFNE01.JPG,AFNE01.JPG,AFNE01.JPG,AFNE01.JPG,AFNE01.JPG,,,,,,,,,5,0,50,3,,,,,,,,,,,,,,,AFNE05.jpg,AFSA04.jpg,AFSA14.jpg,AFNE03.jpg,AFNE05.jpg,FN,3,num_8,32,num_6,0.800104112015,,,2017_Nov_29_1413,60.00588934,FEMA4ImagesEEG,001,102496,
AFNE01.JPG,AFNE01.JPG,AFNE01.JPG,AFNE01.JPG,AFNE01.JPG,AFNE01.JPG,,,,,,,,,5,1,51,2,,,,,,,,,,,,,,,AFNE19.jpg,AFSA14.jpg,AFSA04.jpg,AFNE15.jpg,AFNE15.jpg,FN,3,num_4,16,num_4,0.666757756611,,,2017_Nov_29_1413,60.00588934,FEMA4ImagesEEG,001,102496,
AFNE01.JPG,AFNE01.JPG,AFNE01.JPG,AFNE01.JPG,AFNE01.JPG,AFNE01.JPG,,,,,,,,,5,2,52,5,,,,,,,,,,,,,,,AFSA11.jpg,AFNE16.jpg,AFNE13.jpg,AFSA13.jpg,AFNE13.jpg,FN,3,num_2,32,num_8,1.01677882916,,,2017_Nov_29_1413,60.00588934,FEMA4ImagesEEG,001,102496,
AFNE01.JPG,AFNE01.JPG,AFNE01.JPG,AFNE01.JPG,AFNE01.JPG,AFNE01.JPG,,,,,,,,,5,3,53,0,,,,,,,,,,,,,,,AFNE08.jpg,AFSA04.jpg,AFNE12.jpg,AFSA07.jpg,AFSA07.jpg,FS,4,num_4,32,num_2,1.00015106821,,,2017_Nov_29_1413,60.00588934,FEMA4ImagesEEG,001,102496,
AFNE01.JPG,AFNE01.JPG,AFNE01.JPG,AFNE01.JPG,AFNE01.JPG,AFNE01.JPG,,,,,,,,,5,4,54,8,,,,,,,,,,,,,,,AFNE14.jpg,AFNE20.jpg,AFSA07.jpg,AFSA19.jpg,AFNE14.jpg,FN,3,num_8,16,num_8,0.850175027386,,,2017_Nov_29_1413,60.00588934,FEMA4ImagesEEG,001,102496,
AFNE01.JPG,AFNE01.JPG,AFNE01.JPG,AFNE01.JPG,AFNE01.JPG,AFNE01.JPG,,,,,,,,,5,5,55,7,,,,,,,,,,,,,,,AFSA14.jpg,AFNE12.jpg,AFNE09.jpg,AFSA06.jpg,AFNE12.jpg,FN,3,num_6,16,num_6,0.850170857855,,,2017_Nov_29_1413,60.00588934,FEMA4ImagesEEG,001,102496,
AFNE01.JPG,AFNE01.JPG,AFNE01.JPG,AFNE01.JPG,AFNE01.JPG,AFNE01.JPG,,,,,,,,,5,6,56,6,,,,,,,,,,,,,,,AFSA16.jpg,AFNE03.jpg,AFSA14.jpg,AFNE05.jpg,AFSA16.jpg,FS,4,num_8,32,num_6,2.45002915524,,,2017_Nov_29_1413,60.00588934,FEMA4ImagesEEG,001,102496,
AFNE01.JPG,AFNE01.JPG,AFNE01.JPG,AFNE01.JPG,AFNE01.JPG,AFNE01.JPG,,,,,,,,,5,7,57,4,,,,,,,,,,,,,,,AFSA10.jpg,AFSA14.jpg,AFNE01.jpg,AFNE10.jpg,AFNE01.jpg,FN,3,num_2,16,num_2,1.06674903247,,,2017_Nov_29_1413,60.00588934,FEMA4ImagesEEG,001,102496,
AFNE01.JPG,AFNE01.JPG,AFNE01.JPG,AFNE01.JPG,AFNE01.JPG,AFNE01.JPG,,,,,,,,,5,8,58,1,,,,,,,,,,,,,,,AFSA11.jpg,AFNE12.jpg,AFNE16.jpg,AFSA07.jpg,AFNE16.jpg,FN,3,num_2,32,num_8,0.933252250543,,,2017_Nov_29_1413,60.00588934,FEMA4ImagesEEG,001,102496,
AFNE01.JPG,AFNE01.JPG,AFNE01.JPG,AFNE01.JPG,AFNE01.JPG,AFNE01.JPG,,,,,,,,,5,9,59,9,,,,,,,,,,,,,,,AFNE20.jpg,AFSA03.jpg,AFNE08.jpg,AFSA12.jpg,AFNE08.jpg,FN,3,num_2,16,num_2,0.650152768008,,,2017_Nov_29_1413,60.00588934,FEMA4ImagesEEG,001,102496,
,,,,,,,,,,,,,,,,,,,,,,,,,,,,,,,,,,,,,,,,,,,space,18.1485073761,2017_Nov_29_1413,60.00588934,FEMA4ImagesEEG,001,102496,
AFNE01.JPG,AFNE01.JPG,AFNE01.JPG,AFNE01.JPG,AFNE01.JPG,AFNE01.JPG,,,,,,,,,,,,,0,0,0,3,,,,,,,,,,,AMNE16.jpg,AMSA11.jpg,AMSA12.jpg,AMNE14.jpg,AMNE14.jpg,MN,1,num_4,16,num_4,0.733483375167,,,2017_Nov_29_1413,60.00588934,FEMA4ImagesEEG,001,102496,
AFNE01.JPG,AFNE01.JPG,AFNE01.JPG,AFNE01.JPG,AFNE01.JPG,AFNE01.JPG,,,,,,,,,,,,,0,1,1,7,,,,,,,,,,,AMSA07.jpg,AMNE08.jpg,AMSA03.jpg,AMNE01.jpg,AMNE08.jpg,MN,1,num_6,32,num_8,2.71671288519,,,2017_Nov_29_1413,60.00588934,FEMA4ImagesEEG,001,102496,
AFNE01.JPG,AFNE01.JPG,AFNE01.JPG,AFNE01.JPG,AFNE01.JPG,AFNE01.JPG,,,,,,,,,,,,,0,2,2,8,,,,,,,,,,,AMNE05.jpg,AMSA17.jpg,AMSA13.jpg,AMNE04.jpg,AMNE05.jpg,MN,1,num_8,16,num_8,0.916818536702,,,2017_Nov_29_1413,60.00588934,FEMA4ImagesEEG,001,102496,
AFNE01.JPG,AFNE01.JPG,AFNE01.JPG,AFNE01.JPG,AFNE01.JPG,AFNE01.JPG,,,,,,,,,,,,,0,3,3,9,,,,,,,,,,,AMNE11.jpg,AMSA15.jpg,AMSA04.jpg,AMNE07.jpg,AMSA15.jpg,MS,2,num_6,16,num_6,0.716790504055,,,2017_Nov_29_1413,60.00588934,FEMA4ImagesEEG,001,102496,
AFNE01.JPG,AFNE01.JPG,AFNE01.JPG,AFNE01.JPG,AFNE01.JPG,AFNE01.JPG,,,,,,,,,,,,,0,4,4,4,,,,,,,,,,,AMSA18.jpg,AMNE20.jpg,AMNE05.jpg,AMSA13.jpg,AMNE05.jpg,MN,1,num_2,16,num_2,1.23344809376,,,2017_Nov_29_1413,60.00588934,FEMA4ImagesEEG,001,102496,
AFNE01.JPG,AFNE01.JPG,AFNE01.JPG,AFNE01.JPG,AFNE01.JPG,AFNE01.JPG,,,,,,,,,,,,,0,5,5,1,,,,,,,,,,,AMSA01.jpg,AMSA17.jpg,AMNE05.jpg,AMNE10.jpg,AMNE05.jpg,MN,1,num_2,16,num_2,1.70022304205,,,2017_Nov_29_1413,60.00588934,FEMA4ImagesEEG,001,102496,
AFNE01.JPG,AFNE01.JPG,AFNE01.JPG,AFNE01.JPG,AFNE01.JPG,AFNE01.JPG,,,,,,,,,,,,,0,6,6,0,,,,,,,,,,,AMSA18.jpg,AMSA11.jpg,AMNE17.jpg,AMNE15.jpg,AMSA18.jpg,MS,2,num_8,16,num_8,0.766734406818,,,2017_Nov_29_1413,60.00588934,FEMA4ImagesEEG,001,102496,
AFNE01.JPG,AFNE01.JPG,AFNE01.JPG,AFNE01.JPG,AFNE01.JPG,AFNE01.JPG,,,,,,,,,,,,,0,7,7,2,,,,,,,,,,,AMSA02.jpg,AMNE03.jpg,AMNE06.jpg,AMSA15.jpg,AMSA02.jpg,MS,2,num_8,16,num_8,1.65017618204,,,2017_Nov_29_1413,60.00588934,FEMA4ImagesEEG,001,102496,
AFNE01.JPG,AFNE01.JPG,AFNE01.JPG,AFNE01.JPG,AFNE01.JPG,AFNE01.JPG,,,,,,,,,,,,,0,8,8,6,,,,,,,,,,,AMSA09.jpg,AMSA03.jpg,AMNE16.jpg,AMNE14.jpg,AMSA03.jpg,MS,2,num_6,16,num_6,1.13340376772,,,2017_Nov_29_1413,60.00588934,FEMA4ImagesEEG,001,102496,
AFNE01.JPG,AFNE01.JPG,AFNE01.JPG,AFNE01.JPG,AFNE01.JPG,AFNE01.JPG,,,,,,,,,,,,,0,9,9,5,,,,,,,,,,,AMNE02.jpg,AMSA07.jpg,AMSA15.jpg,AMNE12.jpg,AMNE02.jpg,MN,1,num_8,16,num_8,0.833173925988,,,2017_Nov_29_1413,60.00588934,FEMA4ImagesEEG,001,102496,
AFNE01.JPG,AFNE01.JPG,AFNE01.JPG,AFNE01.JPG,AFNE01.JPG,AFNE01.JPG,,,,,,,,,,,,,1,0,10,2,,,,,,,,,,,AMNE02.jpg,AMSA09.jpg,AMNE12.jpg,AMSA02.jpg,AMNE02.jpg,MN,1,num_8,32,num_4,0.766627279925,,,2017_Nov_29_1413,60.00588934,FEMA4ImagesEEG,001,102496,
AFNE01.JPG,AFNE01.JPG,AFNE01.JPG,AFNE01.JPG,AFNE01.JPG,AFNE01.JPG,,,,,,,,,,,,,1,1,11,4,,,,,,,,,,,AMNE05.jpg,AMSA01.jpg,AMSA05.jpg,AMNE03.jpg,AMSA05.jpg,MS,2,num_2,32,num_8,1.20010340633,,,2017_Nov_29_1413,60.00588934,FEMA4ImagesEEG,001,102496,
AFNE01.JPG,AFNE01.JPG,AFNE01.JPG,AFNE01.JPG,AFNE01.JPG,AFNE01.JPG,,,,,,,,,,,,,1,2,12,7,,,,,,,,,,,AMNE10.jpg,AMNE13.jpg,AMSA08.jpg,AMSA09.jpg,AMSA09.jpg,MS,2,num_4,32,num_6,1.63370013074,,,2017_Nov_29_1413,60.00588934,FEMA4ImagesEEG,001,102496,
AFNE01.JPG,AFNE01.JPG,AFNE01.JPG,AFNE01.JPG,AFNE01.JPG,AFNE01.JPG,,,,,,,,,,,,,1,3,13,0,,,,,,,,,,,AMNE13.jpg,AMSA02.jpg,AMSA20.jpg,AMNE17.jpg,AMSA02.jpg,MS,2,num_6,16,num_6,0.650189011591,,,2017_Nov_29_1413,60.00588934,FEMA4ImagesEEG,001,102496,
AFNE01.JPG,AFNE01.JPG,AFNE01.JPG,AFNE01.JPG,AFNE01.JPG,AFNE01.JPG,,,,,,,,,,,,,1,4,14,8,,,,,,,,,,,AMSA03.jpg,AMSA13.jpg,AMNE03.jpg,AMNE11.jpg,AMNE11.jpg,MN,1,num_4,16,num_4,1.41670146689,,,2017_Nov_29_1413,60.00588934,FEMA4ImagesEEG,001,102496,
AFNE01.JPG,AFNE01.JPG,AFNE01.JPG,AFNE01.JPG,AFNE01.JPG,AFNE01.JPG,,,,,,,,,,,,,1,5,15,1,,,,,,,,,,,AMSA16.jpg,AMSA11.jpg,AMNE03.jpg,AMNE19.jpg,AMNE03.jpg,MN,1,num_2,16,num_2,1.15009439352,,,2017_Nov_29_1413,60.00588934,FEMA4ImagesEEG,001,102496,
AFNE01.JPG,AFNE01.JPG,AFNE01.JPG,AFNE01.JPG,AFNE01.JPG,AFNE01.JPG,,,,,,,,,,,,,1,6,16,9,,,,,,,,,,,AMNE06.jpg,AMSA18.jpg,AMNE07.jpg,AMSA15.jpg,AMNE06.jpg,MN,1,num_8,16,num_8,0.833457138622,,,2017_Nov_29_1413,60.00588934,FEMA4ImagesEEG,001,102496,
AFNE01.JPG,AFNE01.JPG,AFNE01.JPG,AFNE01.JPG,AFNE01.JPG,AFNE01.JPG,,,,,,,,,,,,,1,7,17,3,,,,,,,,,,,AMNE14.jpg,AMNE15.jpg,AMSA03.jpg,AMSA17.jpg,AMSA17.jpg,MS,2,num_4,16,num_4,0.86676269595,,,2017_Nov_29_1413,60.00588934,FEMA4ImagesEEG,001,102496,
AFNE01.JPG,AFNE01.JPG,AFNE01.JPG,AFNE01.JPG,AFNE01.JPG,AFNE01.JPG,,,,,,,,,,,,,1,8,18,6,,,,,,,,,,,AMNE03.jpg,AMNE08.jpg,AMSA04.jpg,AMSA05.jpg,AMSA04.jpg,MS,2,num_2,16,num_2,0.900255885674,,,2017_Nov_29_1413,60.00588934,FEMA4ImagesEEG,001,102496,
AFNE01.JPG,AFNE01.JPG,AFNE01.JPG,AFNE01.JPG,AFNE01.JPG,AFNE01.JPG,,,,,,,,,,,,,1,9,19,5,,,,,,,,,,,AMSA19.jpg,AMNE16.jpg,AMSA03.jpg,AMNE03.jpg,AMNE03.jpg,MN,1,num_4,16,num_4,0.883425096865,,,2017_Nov_29_1413,60.00588934,FEMA4ImagesEEG,001,102496,
AFNE01.JPG,AFNE01.JPG,AFNE01.JPG,AFNE01.JPG,AFNE01.JPG,AFNE01.JPG,,,,,,,,,,,,,2,0,20,0,,,,,,,,,,,AMSA03.jpg,AMNE16.jpg,AMSA04.jpg,AMNE15.jpg,AMNE16.jpg,MN,1,num_6,32,num_8,0.783162347274,,,2017_Nov_29_1413,60.00588934,FEMA4ImagesEEG,001,102496,
AFNE01.JPG,AFNE01.JPG,AFNE01.JPG,AFNE01.JPG,AFNE01.JPG,AFNE01.JPG,,,,,,,,,,,,,2,1,21,3,,,,,,,,,,,AMNE10.jpg,AMSA14.jpg,AMNE04.jpg,AMSA13.jpg,AMNE04.jpg,MN,1,num_2,16,num_2,2.33331697562,,,2017_Nov_29_1413,60.00588934,FEMA4ImagesEEG,001,102496,
AFNE01.JPG,AFNE01.JPG,AFNE01.JPG,AFNE01.JPG,AFNE01.JPG,AFNE01.JPG,,,,,,,,,,,,,2,2,22,7,,,,,,,,,,,AMSA15.jpg,AMNE10.jpg,AMSA12.jpg,AMNE07.jpg,AMNE07.jpg,MN,1,num_4,32,num_6,0.650157258497,,,2017_Nov_29_1413,60.00588934,FEMA4ImagesEEG,001,102496,
AFNE01.JPG,AFNE01.JPG,AFNE01.JPG,AFNE01.JPG,AFNE01.JPG,AFNE01.JPG,,,,,,,,,,,,,2,3,23,2,,,,,,,,,,,AMNE16.jpg,AMSA11.jpg,AMNE01.jpg,AMSA17.jpg,AMNE01.jpg,MN,1,num_2,16,num_2,1.0667650695,,,2017_Nov_29_1413,60.00588934,FEMA4ImagesEEG,001,102496,
AFNE01.JPG,AFNE01.JPG,AFNE01.JPG,AFNE01.JPG,AFNE01.JPG,AFNE01.JPG,,,,,,,,,,,,,2,4,24,8,,,,,,,,,,,AMSA15.jpg,AMNE03.jpg,AMNE15.jpg,AMSA04.jpg,AMSA04.jpg,MS,2,num_4,16,num_4,0.766837684787,,,2017_Nov_29_1413,60.00588934,FEMA4ImagesEEG,001,102496,
AFNE01.JPG,AFNE01.JPG,AFNE01.JPG,AFNE01.JPG,AFNE01.JPG,AFNE01.JPG,,,,,,,,,,,,,2,5,25,5,,,,,,,,,,,AMSA07.jpg,AMNE07.jpg,AMSA11.jpg,AMNE16.jpg,AMNE07.jpg,MN,1,num_6,16,num_6,1.05010363087,,,2017_Nov_29_1413,60.00588934,FEMA4ImagesEEG,001,102496,
AFNE01.JPG,AFNE01.JPG,AFNE01.JPG,AFNE01.JPG,AFNE01.JPG,AFNE01.JPG,,,,,,,,,,,,,2,6,26,1,,,,,,,,,,,AMSA13.jpg,AMSA20.jpg,AMNE13.jpg,AMNE01.jpg,AMSA20.jpg,MS,2,num_6,16,num_6,1.18347756972,,,2017_Nov_29_1413,60.00588934,FEMA4ImagesEEG,001,102496,
AFNE01.JPG,AFNE01.JPG,AFNE01.JPG,AFNE01.JPG,AFNE01.JPG,AFNE01.JPG,,,,,,,,,,,,,2,7,27,9,,,,,,,,,,,AMSA01.jpg,AMNE05.jpg,AMNE03.jpg,AMSA15.jpg,AMNE03.jpg,MN,1,num_2,16,num_2,1.15014442895,,,2017_Nov_29_1413,60.00588934,FEMA4ImagesEEG,001,102496,
AFNE01.JPG,AFNE01.JPG,AFNE01.JPG,AFNE01.JPG,AFNE01.JPG,AFNE01.JPG,,,,,,,,,,,,,2,8,28,4,,,,,,,,,,,AMNE03.jpg,AMSA04.jpg,AMNE06.jpg,AMSA02.jpg,AMNE03.jpg,MN,1,num_8,32,num_4,1.28343016456,,,2017_Nov_29_1413,60.00588934,FEMA4ImagesEEG,001,102496,
AFNE01.JPG,AFNE01.JPG,AFNE01.JPG,AFNE01.JPG,AFNE01.JPG,AFNE01.JPG,,,,,,,,,,,,,2,9,29,6,,,,,,,,,,,AMSA08.jpg,AMNE12.jpg,AMNE09.jpg,AMSA06.jpg,AMSA08.jpg,MS,2,num_8,16,num_8,0.55016168463,,,2017_Nov_29_1413,60.00588934,FEMA4ImagesEEG,001,102496,
AFNE01.JPG,AFNE01.JPG,AFNE01.JPG,AFNE01.JPG,AFNE01.JPG,AFNE01.JPG,,,,,,,,,,,,,3,0,30,8,,,,,,,,,,,AMNE07.jpg,AMSA01.jpg,AMNE17.jpg,AMSA12.jpg,AMNE17.jpg,MN,1,num_2,32,num_4,1.41671910742,,,2017_Nov_29_1413,60.00588934,FEMA4ImagesEEG,001,102496,
AFNE01.JPG,AFNE01.JPG,AFNE01.JPG,AFNE01.JPG,AFNE01.JPG,AFNE01.JPG,,,,,,,,,,,,,3,1,31,6,,,,,,,,,,,AMNE11.jpg,AMSA09.jpg,AMSA20.jpg,AMNE09.jpg,AMNE09.jpg,MN,1,num_4,32,num_8,0.683463136549,,,2017_Nov_29_1413,60.00588934,FEMA4ImagesEEG,001,102496,
AFNE01.JPG,AFNE01.JPG,AFNE01.JPG,AFNE01.JPG,AFNE01.JPG,AFNE01.JPG,,,,,,,,,,,,,3,2,32,9,,,,,,,,,,,AMNE20.jpg,AMSA12.jpg,AMSA14.jpg,AMNE02.jpg,AMNE02.jpg,MN,1,num_4,32,num_2,0.79998447618,,,2017_Nov_29_1413,60.00588934,FEMA4ImagesEEG,001,102496,
AFNE01.JPG,AFNE01.JPG,AFNE01.JPG,AFNE01.JPG,AFNE01.JPG,AFNE01.JPG,,,,,,,,,,,,,3,3,33,1,,,,,,,,,,,AMNE07.jpg,AMSA19.jpg,AMNE02.jpg,AMSA18.jpg,AMSA19.jpg,MS,2,num_6,32,num_4,1.48328211124,,,2017_Nov_29_1413,60.00588934,FEMA4ImagesEEG,001,102496,
AFNE01.JPG,AFNE01.JPG,AFNE01.JPG,AFNE01.JPG,AFNE01.JPG,AFNE01.JPG,,,,,,,,,,,,,3,4,34,3,,,,,,,,,,,AMNE04.jpg,AMSA12.jpg,AMSA01.jpg,AMNE09.jpg,AMSA01.jpg,MS,2,num_2,16,num_2,1.06678046484,,,2017_Nov_29_1413,60.00588934,FEMA4ImagesEEG,001,102496,
AFNE01.JPG,AFNE01.JPG,AFNE01.JPG,AFNE01.JPG,AFNE01.JPG,AFNE01.JPG,,,,,,,,,,,,,3,5,35,2,,,,,,,,,,,AMNE14.jpg,AMSA05.jpg,AMSA17.jpg,AMNE02.jpg,AMSA05.jpg,MS,2,num_6,16,num_6,2.49997947272,,,2017_Nov_29_1413,60.00588934,FEMA4ImagesEEG,001,102496,
AFNE01.JPG,AFNE01.JPG,AFNE01.JPG,AFNE01.JPG,AFNE01.JPG,AFNE01.JPG,,,,,,,,,,,,,3,6,36,7,,,,,,,,,,,AMNE08.jpg,AMSA06.jpg,AMSA15.jpg,AMNE03.jpg,AMNE08.jpg,MN,1,num_8,16,num_8,1.06675608875,,,2017_Nov_29_1413,60.00588934,FEMA4ImagesEEG,001,102496,
AFNE01.JPG,AFNE01.JPG,AFNE01.JPG,AFNE01.JPG,AFNE01.JPG,AFNE01.JPG,,,,,,,,,,,,,3,7,37,0,,,,,,,,,,,AMNE03.jpg,AMNE08.jpg,AMSA09.jpg,AMSA02.jpg,AMNE03.jpg,MN,1,num_8,32,num_2,1.00014176674,,,2017_Nov_29_1413,60.00588934,FEMA4ImagesEEG,001,102496,
AFNE01.JPG,AFNE01.JPG,AFNE01.JPG,AFNE01.JPG,AFNE01.JPG,AFNE01.JPG,,,,,,,,,,,,,3,8,38,4,,,,,,,,,,,AMNE08.jpg,AMSA07.jpg,AMNE04.jpg,AMSA01.jpg,AMSA07.jpg,MS,2,num_6,32,num_2,1.08356346365,,,2017_Nov_29_1413,60.00588934,FEMA4ImagesEEG,001,102496,
AFNE01.JPG,AFNE01.JPG,AFNE01.JPG,AFNE01.JPG,AFNE01.JPG,AFNE01.JPG,,,,,,,,,,,,,3,9,39,5,,,,,,,,,,,AMSA12.jpg,AMNE05.jpg,AMNE17.jpg,AMSA14.jpg,AMSA12.jpg,MS,2,num_8,16,num_8,0.683470834163,,,2017_Nov_29_1413,60.00588934,FEMA4ImagesEEG,001,102496,
AFNE01.JPG,AFNE01.JPG,AFNE01.JPG,AFNE01.JPG,AFNE01.JPG,AFNE01.JPG,,,,,,,,,,,,,4,0,40,8,,,,,,,,,,,AMSA12.jpg,AMSA15.jpg,AMNE05.jpg,AMNE14.jpg,AMNE05.jpg,MN,1,num_2,32,num_6,0.983405595878,,,2017_Nov_29_1413,60.00588934,FEMA4ImagesEEG,001,102496,
AFNE01.JPG,AFNE01.JPG,AFNE01.JPG,AFNE01.JPG,AFNE01.JPG,AFNE01.JPG,,,,,,,,,,,,,4,1,41,4,,,,,,,,,,,AMNE06.jpg,AMSA14.jpg,AMSA05.jpg,AMNE02.jpg,AMNE06.jpg,MN,1,num_8,16,num_8,1.48343606608,,,2017_Nov_29_1413,60.00588934,FEMA4ImagesEEG,001,102496,
AFNE01.JPG,AFNE01.JPG,AFNE01.JPG,AFNE01.JPG,AFNE01.JPG,AFNE01.JPG,,,,,,,,,,,,,4,2,42,3,,,,,,,,,,,AMSA18.jpg,AMNE04.jpg,AMSA14.jpg,AMNE10.jpg,AMSA18.jpg,MS,2,num_8,32,num_6,3.36657410127,,,2017_Nov_29_1413,60.00588934,FEMA4ImagesEEG,001,102496,
AFNE01.JPG,AFNE01.JPG,AFNE01.JPG,AFNE01.JPG,AFNE01.JPG,AFNE01.JPG,,,,,,,,,,,,,4,3,43,5,,,,,,,,,,,AMSA16.jpg,AMNE04.jpg,AMNE05.jpg,AMSA01.jpg,AMSA01.jpg,MS,2,num_4,16,num_4,1.30011405481,,,2017_Nov_29_1413,60.00588934,FEMA4ImagesEEG,001,102496,
AFNE01.JPG,AFNE01.JPG,AFNE01.JPG,AFNE01.JPG,AFNE01.JPG,AFNE01.JPG,,,,,,,,,,,,,4,4,44,0,,,,,,,,,,,AMSA20.jpg,AMNE06.jpg,AMSA11.jpg,AMNE11.jpg,AMSA11.jpg,MS,2,num_2,16,num_2,0.783450691844,,,2017_Nov_29_1413,60.00588934,FEMA4ImagesEEG,001,102496,
AFNE01.JPG,AFNE01.JPG,AFNE01.JPG,AFNE01.JPG,AFNE01.JPG,AFNE01.JPG,,,,,,,,,,,,,4,5,45,1,,,,,,,,,,,AMNE15.jpg,AMSA20.jpg,AMNE19.jpg,AMSA18.jpg,AMNE15.jpg,MN,1,num_8,16,num_8,0.700122971437,,,2017_Nov_29_1413,60.00588934,FEMA4ImagesEEG,001,102496,
AFNE01.JPG,AFNE01.JPG,AFNE01.JPG,AFNE01.JPG,AFNE01.JPG,AFNE01.JPG,,,,,,,,,,,,,4,6,46,7,,,,,,,,,,,AMSA15.jpg,AMNE01.jpg,AMNE16.jpg,AMSA06.jpg,AMSA06.jpg,MS,2,num_4,32,num_2,0.966764684534,,,2017_Nov_29_1413,60.00588934,FEMA4ImagesEEG,001,102496,
AFNE01.JPG,AFNE01.JPG,AFNE01.JPG,AFNE01.JPG,AFNE01.JPG,AFNE01.JPG,,,,,,,,,,,,,4,7,47,9,,,,,,,,,,,AMNE20.jpg,AMNE08.jpg,AMSA06.jpg,AMSA20.jpg,AMNE08.jpg,MN,1,num_6,16,num_6,2.05006001028,,,2017_Nov_29_1413,60.00588934,FEMA4ImagesEEG,001,102496,
AFNE01.JPG,AFNE01.JPG,AFNE01.JPG,AFNE01.JPG,AFNE01.JPG,AFNE01.JPG,,,,,,,,,,,,,4,8,48,6,,,,,,,,,,,AMNE01.jpg,AMSA05.jpg,AMNE09.jpg,AMSA06.jpg,AMSA06.jpg,MS,2,num_4,32,num_2,1.06675063621,,,2017_Nov_29_1413,60.00588934,FEMA4ImagesEEG,001,102496,
AFNE01.JPG,AFNE01.JPG,AFNE01.JPG,AFNE01.JPG,AFNE01.JPG,AFNE01.JPG,,,,,,,,,,,,,4,9,49,2,,,,,,,,,,,AMNE12.jpg,AMSA07.jpg,AMSA04.jpg,AMNE06.jpg,AMNE12.jpg,MN,1,num_8,16,num_8,0.800138110295,,,2017_Nov_29_1413,60.00588934,FEMA4ImagesEEG,001,102496,
AFNE01.JPG,AFNE01.JPG,AFNE01.JPG,AFNE01.JPG,AFNE01.JPG,AFNE01.JPG,,,,,,,,,,,,,5,0,50,7,,,,,,,,,,,AMSA09.jpg,AMSA18.jpg,AMNE19.jpg,AMNE11.jpg,AMNE19.jpg,MN,1,num_2,32,num_4,1.18350354966,,,2017_Nov_29_1413,60.00588934,FEMA4ImagesEEG,001,102496,
AFNE01.JPG,AFNE01.JPG,AFNE01.JPG,AFNE01.JPG,AFNE01.JPG,AFNE01.JPG,,,,,,,,,,,,,5,1,51,6,,,,,,,,,,,AMNE03.jpg,AMSA14.jpg,AMNE09.jpg,AMSA03.jpg,AMSA14.jpg,MS,2,num_6,16,num_6,0.81687396043,,,2017_Nov_29_1413,60.00588934,FEMA4ImagesEEG,001,102496,
AFNE01.JPG,AFNE01.JPG,AFNE01.JPG,AFNE01.JPG,AFNE01.JPG,AFNE01.JPG,,,,,,,,,,,,,5,2,52,3,,,,,,,,,,,AMNE09.jpg,AMSA10.jpg,AMNE05.jpg,AMSA07.jpg,AMSA10.jpg,MS,2,num_6,16,num_6,0.816832264303,,,2017_Nov_29_1413,60.00588934,FEMA4ImagesEEG,001,102496,
AFNE01.JPG,AFNE01.JPG,AFNE01.JPG,AFNE01.JPG,AFNE01.JPG,AFNE01.JPG,,,,,,,,,,,,,5,3,53,8,,,,,,,,,,,AMSA20.jpg,AMNE19.jpg,AMSA02.jpg,AMNE18.jpg,AMSA20.jpg,MS,2,num_8,16,num_8,1.23343911313,,,2017_Nov_29_1413,60.00588934,FEMA4ImagesEEG,001,102496,
AFNE01.JPG,AFNE01.JPG,AFNE01.JPG,AFNE01.JPG,AFNE01.JPG,AFNE01.JPG,,,,,,,,,,,,,5,4,54,5,,,,,,,,,,,AMNE10.jpg,AMSA07.jpg,AMNE05.jpg,AMSA10.jpg,AMNE10.jpg,MN,1,num_8,16,num_8,4.76679278142,,,2017_Nov_29_1413,60.00588934,FEMA4ImagesEEG,001,102496,
AFNE01.JPG,AFNE01.JPG,AFNE01.JPG,AFNE01.JPG,AFNE01.JPG,AFNE01.JPG,,,,,,,,,,,,,5,5,55,1,,,,,,,,,,,AMSA04.jpg,AMSA02.jpg,AMNE12.jpg,AMNE10.jpg,AMNE12.jpg,MN,1,num_2,16,num_2,1.63341499353,,,2017_Nov_29_1413,60.00588934,FEMA4ImagesEEG,001,102496,
AFNE01.JPG,AFNE01.JPG,AFNE01.JPG,AFNE01.JPG,AFNE01.JPG,AFNE01.JPG,,,,,,,,,,,,,5,6,56,2,,,,,,,,,,,AMSA07.jpg,AMSA15.jpg,AMNE01.jpg,AMNE05.jpg,AMNE01.jpg,MN,1,num_2,32,num_8,0.800205144682,,,2017_Nov_29_1413,60.00588934,FEMA4ImagesEEG,001,102496,
AFNE01.JPG,AFNE01.JPG,AFNE01.JPG,AFNE01.JPG,AFNE01.JPG,AFNE01.JPG,,,,,,,,,,,,,5,7,57,0,,,,,,,,,,,AMNE01.jpg,AMSA16.jpg,AMNE07.jpg,AMSA07.jpg,AMSA07.jpg,MS,2,num_4,32,num_6,1.15015052282,,,2017_Nov_29_1413,60.00588934,FEMA4ImagesEEG,001,102496,
AFNE01.JPG,AFNE01.JPG,AFNE01.JPG,AFNE01.JPG,AFNE01.JPG,AFNE01.JPG,,,,,,,,,,,,,5,8,58,4,,,,,,,,,,,AMNE13.jpg,AMSA15.jpg,AMNE15.jpg,AMSA04.jpg,AMNE15.jpg,MN,1,num_2,32,num_8,0.733465092955,,,2017_Nov_29_1413,60.00588934,FEMA4ImagesEEG,001,102496,
AFNE01.JPG,AFNE01.JPG,AFNE01.JPG,AFNE01.JPG,AFNE01.JPG,AFNE01.JPG,,,,,,,,,,,,,5,9,59,9,,,,,,,,,,,AMSA12.jpg,AMSA20.jpg,AMNE15.jpg,AMNE04.jpg,AMNE15.jpg,MN,1,num_2,16,num_2,0.966722346959,,,2017_Nov_29_1413,60.00588934,FEMA4ImagesEEG,001,102496,
,,,,,,,,,,,,,,,,,,,,,,,,,,,,,,,,,,,,,,,,,,,space,16.1986068373,2017_Nov_29_1413,60.00588934,FEMA4ImagesEEG,001,102496,
AFNE01.JPG,AFNE01.JPG,AFNE01.JPG,AFNE01.JPG,AFNE01.JPG,AFNE01.JPG,,,,,,,,,,,,,,,,,0,0,0,7,,,,,,,AFNE02.jpg,AFSA19.jpg,AFSA14.jpg,AFNE07.jpg,AFSA19.jpg,FS,4,num_6,32,num_8,0.683491040836,,,2017_Nov_29_1413,60.00588934,FEMA4ImagesEEG,001,102496,
AFNE01.JPG,AFNE01.JPG,AFNE01.JPG,AFNE01.JPG,AFNE01.JPG,AFNE01.JPG,,,,,,,,,,,,,,,,,0,1,1,3,,,,,,,AFSA14.jpg,AFNE20.jpg,AFNE17.jpg,AFSA07.jpg,AFSA07.jpg,FS,4,num_4,32,num_6,0.550271056709,,,2017_Nov_29_1413,60.00588934,FEMA4ImagesEEG,001,102496,
AFNE01.JPG,AFNE01.JPG,AFNE01.JPG,AFNE01.JPG,AFNE01.JPG,AFNE01.JPG,,,,,,,,,,,,,,,,,0,2,2,2,,,,,,,AFNE01.jpg,AFSA10.jpg,AFSA12.jpg,AFNE11.jpg,AFSA12.jpg,FS,4,num_2,32,num_6,0.783489822061,,,2017_Nov_29_1413,60.00588934,FEMA4ImagesEEG,001,102496,
AFNE01.JPG,AFNE01.JPG,AFNE01.JPG,AFNE01.JPG,AFNE01.JPG,AFNE01.JPG,,,,,,,,,,,,,,,,,0,3,3,8,,,,,,,AFSA16.jpg,AFSA19.jpg,AFNE11.jpg,AFNE14.jpg,AFNE14.jpg,FN,3,num_4,16,num_4,0.866845126031,,,2017_Nov_29_1413,60.00588934,FEMA4ImagesEEG,001,102496,
AFNE01.JPG,AFNE01.JPG,AFNE01.JPG,AFNE01.JPG,AFNE01.JPG,AFNE01.JPG,,,,,,,,,,,,,,,,,0,4,4,1,,,,,,,AFNE07.jpg,AFNE10.jpg,AFSA10.jpg,AFSA02.jpg,AFNE10.jpg,FN,3,num_6,32,num_2,1.6835648109,,,2017_Nov_29_1413,60.00588934,FEMA4ImagesEEG,001,102496,
AFNE01.JPG,AFNE01.JPG,AFNE01.JPG,AFNE01.JPG,AFNE01.JPG,AFNE01.JPG,,,,,,,,,,,,,,,,,0,5,5,5,,,,,,,AFSA12.jpg,AFSA07.jpg,AFNE15.jpg,AFNE08.jpg,AFNE15.jpg,FN,3,num_2,32,num_6,0.983536778134,,,2017_Nov_29_1413,60.00588934,FEMA4ImagesEEG,001,102496,
AFNE01.JPG,AFNE01.JPG,AFNE01.JPG,AFNE01.JPG,AFNE01.JPG,AFNE01.JPG,,,,,,,,,,,,,,,,,0,6,6,9,,,,,,,AFNE03.jpg,AFNE02.jpg,AFSA12.jpg,AFSA18.jpg,AFNE02.jpg,FN,3,num_6,16,num_6,0.550168740912,,,2017_Nov_29_1413,60.00588934,FEMA4ImagesEEG,001,102496,
AFNE01.JPG,AFNE01.JPG,AFNE01.JPG,AFNE01.JPG,AFNE01.JPG,AFNE01.JPG,,,,,,,,,,,,,,,,,0,7,7,0,,,,,,,AFSA17.jpg,AFNE02.jpg,AFNE14.jpg,AFSA19.jpg,AFNE02.jpg,FN,3,num_6,32,num_8,0.700145102339,,,2017_Nov_29_1413,60.00588934,FEMA4ImagesEEG,001,102496,
AFNE01.JPG,AFNE01.JPG,AFNE01.JPG,AFNE01.JPG,AFNE01.JPG,AFNE01.JPG,,,,,,,,,,,,,,,,,0,8,8,4,,,,,,,AFNE13.jpg,AFNE08.jpg,AFSA06.jpg,AFSA05.jpg,AFNE08.jpg,FN,3,num_6,32,num_4,1.68339578121,,,2017_Nov_29_1413,60.00588934,FEMA4ImagesEEG,001,102496,
AFNE01.JPG,AFNE01.JPG,AFNE01.JPG,AFNE01.JPG,AFNE01.JPG,AFNE01.JPG,,,,,,,,,,,,,,,,,0,9,9,6,,,,,,,AFSA09.jpg,AFNE17.jpg,AFNE10.jpg,AFSA02.jpg,AFNE17.jpg,FN,3,num_6,16,num_6,2.11668812414,,,2017_Nov_29_1413,60.00588934,FEMA4ImagesEEG,001,102496,
AFNE01.JPG,AFNE01.JPG,AFNE01.JPG,AFNE01.JPG,AFNE01.JPG,AFNE01.JPG,,,,,,,,,,,,,,,,,1,0,10,2,,,,,,,AFNE07.jpg,AFSA06.jpg,AFNE17.jpg,AFSA01.jpg,AFNE17.jpg,FN,3,num_2,32,num_6,0.800172429415,,,2017_Nov_29_1413,60.00588934,FEMA4ImagesEEG,001,102496,
AFNE01.JPG,AFNE01.JPG,AFNE01.JPG,AFNE01.JPG,AFNE01.JPG,AFNE01.JPG,,,,,,,,,,,,,,,,,1,1,11,9,,,,,,,AFSA10.jpg,AFNE11.jpg,AFNE15.jpg,AFSA13.jpg,AFSA10.jpg,FS,4,num_8,16,num_8,0.816771644517,,,2017_Nov_29_1413,60.00588934,FEMA4ImagesEEG,001,102496,
AFNE01.JPG,AFNE01.JPG,AFNE01.JPG,AFNE01.JPG,AFNE01.JPG,AFNE01.JPG,,,,,,,,,,,,,,,,,1,2,12,6,,,,,,,AFNE12.jpg,AFSA10.jpg,AFSA17.jpg,AFNE02.jpg,AFSA10.jpg,FS,4,num_6,16,num_6,1.0167708107,,,2017_Nov_29_1413,60.00588934,FEMA4ImagesEEG,001,102496,
AFNE01.JPG,AFNE01.JPG,AFNE01.JPG,AFNE01.JPG,AFNE01.JPG,AFNE01.JPG,,,,,,,,,,,,,,,,,1,3,13,1,,,,,,,AFSA20.jpg,AFSA18.jpg,AFNE04.jpg,AFNE02.jpg,AFNE02.jpg,FN,3,num_4,16,num_4,0.800192956696,,,2017_Nov_29_1413,60.00588934,FEMA4ImagesEEG,001,102496,
AFNE01.JPG,AFNE01.JPG,AFNE01.JPG,AFNE01.JPG,AFNE01.JPG,AFNE01.JPG,,,,,,,,,,,,,,,,,1,4,14,0,,,,,,,AFSA13.jpg,AFSA20.jpg,AFNE19.jpg,AFNE16.jpg,AFNE19.jpg,FN,3,num_2,16,num_2,1.45010645327,,,2017_Nov_29_1413,60.00588934,FEMA4ImagesEEG,001,102496,
AFNE01.JPG,AFNE01.JPG,AFNE01.JPG,AFNE01.JPG,AFNE01.JPG,AFNE01.JPG,,,,,,,,,,,,,,,,,1,5,15,8,,,,,,,AFSA03.jpg,AFNE11.jpg,AFNE08.jpg,AFSA18.jpg,AFSA18.jpg,FS,4,num_4,16,num_4,1.00018538721,,,2017_Nov_29_1413,60.00588934,FEMA4ImagesEEG,001,102496,
AFNE01.JPG,AFNE01.JPG,AFNE01.JPG,AFNE01.JPG,AFNE01.JPG,AFNE01.JPG,,,,,,,,,,,,,,,,,1,6,16,7,,,,,,,AFSA13.jpg,AFSA10.jpg,AFNE07.jpg,AFNE12.jpg,AFSA13.jpg,FS,4,num_8,16,num_8,0.550312111271,,,2017_Nov_29_1413,60.00588934,FEMA4ImagesEEG,001,102496,
AFNE01.JPG,AFNE01.JPG,AFNE01.JPG,AFNE01.JPG,AFNE01.JPG,AFNE01.JPG,,,,,,,,,,,,,,,,,1,7,17,3,,,,,,,AFNE04.jpg,AFSA06.jpg,AFNE20.jpg,AFSA03.jpg,AFSA06.jpg,FS,4,num_6,16,num_6,1.03343609814,,,2017_Nov_29_1413,60.00588934,FEMA4ImagesEEG,001,102496,
AFNE01.JPG,AFNE01.JPG,AFNE01.JPG,AFNE01.JPG,AFNE01.JPG,AFNE01.JPG,,,,,,,,,,,,,,,,,1,8,18,4,,,,,,,AFNE02.jpg,AFSA15.jpg,AFNE20.jpg,AFSA09.jpg,AFNE02.jpg,FN,3,num_8,32,num_2,1.6668026601,,,2017_Nov_29_1413,60.00588934,FEMA4ImagesEEG,001,102496,
AFNE01.JPG,AFNE01.JPG,AFNE01.JPG,AFNE01.JPG,AFNE01.JPG,AFNE01.JPG,,,,,,,,,,,,,,,,,1,9,19,5,,,,,,,AFNE02.jpg,AFSA09.jpg,AFNE07.jpg,AFSA15.jpg,AFSA15.jpg,FS,4,num_4,16,num_4,1.00010873063,,,2017_Nov_29_1413,60.00588934,FEMA4ImagesEEG,001,102496,
AFNE01.JPG,AFNE01.JPG,AFNE01.JPG,AFNE01.JPG,AFNE01.JPG,AFNE01.JPG,,,,,,,,,,,,,,,,,2,0,20,4,,,,,,,AFNE03.jpg,AFSA10.jpg,AFSA08.jpg,AFNE02.jpg,AFSA08.jpg,FS,4,num_2,32,num_6,4.51613446407,,,2017_Nov_29_1413,60.00588934,FEMA4ImagesEEG,001,102496,
AFNE01.JPG,AFNE01.JPG,AFNE01.JPG,AFNE01.JPG,AFNE01.JPG,AFNE01.JPG,,,,,,,,,,,,,,,,,2,1,21,2,,,,,,,AFSA20.jpg,AFNE14.jpg,AFNE06.jpg,AFSA18.jpg,AFSA20.jpg,FS,4,num_8,16,num_8,0.633503196877,,,2017_Nov_29_1413,60.00588934,FEMA4ImagesEEG,001,102496,
AFNE01.JPG,AFNE01.JPG,AFNE01.JPG,AFNE01.JPG,AFNE01.JPG,AFNE01.JPG,,,,,,,,,,,,,,,,,2,2,22,3,,,,,,,AFNE19.jpg,AFSA07.jpg,AFSA13.jpg,AFNE02.jpg,AFSA13.jpg,FS,4,num_2,16,num_2,1.00016069028,,,2017_Nov_29_1413,60.00588934,FEMA4ImagesEEG,001,102496,
AFNE01.JPG,AFNE01.JPG,AFNE01.JPG,AFNE01.JPG,AFNE01.JPG,AFNE01.JPG,,,,,,,,,,,,,,,,,2,3,23,9,,,,,,,AFNE10.jpg,AFSA15.jpg,AFNE20.jpg,AFSA17.jpg,AFSA15.jpg,FS,4,num_6,16,num_6,0.750168548431,,,2017_Nov_29_1413,60.00588934,FEMA4ImagesEEG,001,102496,
AFNE01.JPG,AFNE01.JPG,AFNE01.JPG,AFNE01.JPG,AFNE01.JPG,AFNE01.JPG,,,,,,,,,,,,,,,,,2,4,24,8,,,,,,,AFSA04.jpg,AFNE12.jpg,AFNE11.jpg,AFSA02.jpg,AFNE11.jpg,FN,3,num_2,32,num_4,1.45002562704,,,2017_Nov_29_1413,60.00588934,FEMA4ImagesEEG,001,102496,
AFNE01.JPG,AFNE01.JPG,AFNE01.JPG,AFNE01.JPG,AFNE01.JPG,AFNE01.JPG,,,,,,,,,,,,,,,,,2,5,25,6,,,,,,,AFSA10.jpg,AFSA07.jpg,AFNE01.jpg,AFNE15.jpg,AFNE01.jpg,FN,3,num_2,16,num_2,0.783451333293,,,2017_Nov_29_1413,60.00588934,FEMA4ImagesEEG,001,102496,
AFNE01.JPG,AFNE01.JPG,AFNE01.JPG,AFNE01.JPG,AFNE01.JPG,AFNE01.JPG,,,,,,,,,,,,,,,,,2,6,26,0,,,,,,,AFNE13.jpg,AFSA07.jpg,AFSA04.jpg,AFNE06.jpg,AFNE06.jpg,FN,3,num_4,32,num_8,0.783571931184,,,2017_Nov_29_1413,60.00588934,FEMA4ImagesEEG,001,102496,
AFNE01.JPG,AFNE01.JPG,AFNE01.JPG,AFNE01.JPG,AFNE01.JPG,AFNE01.JPG,,,,,,,,,,,,,,,,,2,7,27,5,,,,,,,AFNE18.jpg,AFSA05.jpg,AFSA04.jpg,AFNE12.jpg,AFNE18.jpg,FN,3,num_8,32,num_4,0.816838037572,,,2017_Nov_29_1413,60.00588934,FEMA4ImagesEEG,001,102496,
AFNE01.JPG,AFNE01.JPG,AFNE01.JPG,AFNE01.JPG,AFNE01.JPG,AFNE01.JPG,,,,,,,,,,,,,,,,,2,8,28,7,,,,,,,AFNE19.jpg,AFSA12.jpg,AFNE15.jpg,AFSA10.jpg,AFSA12.jpg,FS,4,num_6,16,num_6,0.583495787694,,,2017_Nov_29_1413,60.00588934,FEMA4ImagesEEG,001,102496,
AFNE01.JPG,AFNE01.JPG,AFNE01.JPG,AFNE01.JPG,AFNE01.JPG,AFNE01.JPG,,,,,,,,,,,,,,,,,2,9,29,1,,,,,,,AFNE11.jpg,AFNE07.jpg,AFSA14.jpg,AFSA13.jpg,AFSA14.jpg,FS,4,num_2,16,num_2,0.80013746873,,,2017_Nov_29_1413,60.00588934,FEMA4ImagesEEG,001,102496,
AFNE01.JPG,AFNE01.JPG,AFNE01.JPG,AFNE01.JPG,AFNE01.JPG,AFNE01.JPG,,,,,,,,,,,,,,,,,3,0,30,0,,,,,,,AFNE07.jpg,AFNE12.jpg,AFSA17.jpg,AFSA08.jpg,AFNE07.jpg,FN,3,num_8,16,num_8,1.18341662933,,,2017_Nov_29_1413,60.00588934,FEMA4ImagesEEG,001,102496,
AFNE01.JPG,AFNE01.JPG,AFNE01.JPG,AFNE01.JPG,AFNE01.JPG,AFNE01.JPG,,,,,,,,,,,,,,,,,3,1,31,4,,,,,,,AFNE01.jpg,AFSA14.jpg,AFNE05.jpg,AFSA02.jpg,AFSA02.jpg,FS,4,num_4,32,num_6,1.0001315031,,,2017_Nov_29_1413,60.00588934,FEMA4ImagesEEG,001,102496,
AFNE01.JPG,AFNE01.JPG,AFNE01.JPG,AFNE01.JPG,AFNE01.JPG,AFNE01.JPG,,,,,,,,,,,,,,,,,3,2,32,1,,,,,,,AFNE02.jpg,AFSA05.jpg,AFSA11.jpg,AFNE05.jpg,AFSA05.jpg,FS,4,num_6,16,num_6,0.933475805679,,,2017_Nov_29_1413,60.00588934,FEMA4ImagesEEG,001,102496,
AFNE01.JPG,AFNE01.JPG,AFNE01.JPG,AFNE01.JPG,AFNE01.JPG,AFNE01.JPG,,,,,,,,,,,,,,,,,3,3,33,7,,,,,,,AFSA01.jpg,AFNE01.jpg,AFNE13.jpg,AFSA12.jpg,AFNE13.jpg,FN,3,num_2,32,num_8,0.900080441381,,,2017_Nov_29_1413,60.00588934,FEMA4ImagesEEG,001,102496,
AFNE01.JPG,AFNE01.JPG,AFNE01.JPG,AFNE01.JPG,AFNE01.JPG,AFNE01.JPG,,,,,,,,,,,,,,,,,3,4,34,3,,,,,,,AFNE05.jpg,AFNE11.jpg,AFSA20.jpg,AFSA02.jpg,AFNE11.jpg,FN,3,num_6,32,num_2,0.883452038863,,,2017_Nov_29_1413,60.00588934,FEMA4ImagesEEG,001,102496,
AFNE01.JPG,AFNE01.JPG,AFNE01.JPG,AFNE01.JPG,AFNE01.JPG,AFNE01.JPG,,,,,,,,,,,,,,,,,3,5,35,9,,,,,,,AFSA04.jpg,AFNE19.jpg,AFNE06.jpg,AFSA20.jpg,AFNE06.jpg,FN,3,num_2,32,num_6,0.683501625201,,,2017_Nov_29_1413,60.00588934,FEMA4ImagesEEG,001,102496,
AFNE01.JPG,AFNE01.JPG,AFNE01.JPG,AFNE01.JPG,AFNE01.JPG,AFNE01.JPG,,,,,,,,,,,,,,,,,3,6,36,6,,,,,,,AFNE04.jpg,AFSA16.jpg,AFNE03.jpg,AFSA07.jpg,AFNE04.jpg,FN,3,num_8,32,num_2,0.700191930286,,,2017_Nov_29_1413,60.00588934,FEMA4ImagesEEG,001,102496,
AFNE01.JPG,AFNE01.JPG,AFNE01.JPG,AFNE01.JPG,AFNE01.JPG,AFNE01.JPG,,,,,,,,,,,,,,,,,3,7,37,2,,,,,,,AFNE11.jpg,AFSA16.jpg,AFSA03.jpg,AFNE02.jpg,AFNE02.jpg,FN,3,num_4,32,num_6,1.03343898477,,,2017_Nov_29_1413,60.00588934,FEMA4ImagesEEG,001,102496,
AFNE01.JPG,AFNE01.JPG,AFNE01.JPG,AFNE01.JPG,AFNE01.JPG,AFNE01.JPG,,,,,,,,,,,,,,,,,3,8,38,5,,,,,,,AFSA19.jpg,AFNE18.jpg,AFNE20.jpg,AFSA03.jpg,AFNE20.jpg,FN,3,num_2,32,num_8,1.88336992974,,,2017_Nov_29_1413,60.00588934,FEMA4ImagesEEG,001,102496,
AFNE01.JPG,AFNE01.JPG,AFNE01.JPG,AFNE01.JPG,AFNE01.JPG,AFNE01.JPG,,,,,,,,,,,,,,,,,3,9,39,8,,,,,,,AFNE13.jpg,AFSA20.jpg,AFSA19.jpg,AFNE01.jpg,AFSA20.jpg,FS,4,num_6,32,num_2,0.716912064236,,,2017_Nov_29_1413,60.00588934,FEMA4ImagesEEG,001,102496,
AFNE01.JPG,AFNE01.JPG,AFNE01.JPG,AFNE01.JPG,AFNE01.JPG,AFNE01.JPG,,,,,,,,,,,,,,,,,4,0,40,7,,,,,,,AFSA04.jpg,AFNE04.jpg,AFSA17.jpg,AFNE03.jpg,AFNE04.jpg,FN,3,num_6,16,num_6,0.866791241802,,,2017_Nov_29_1413,60.00588934,FEMA4ImagesEEG,001,102496,
AFNE01.JPG,AFNE01.JPG,AFNE01.JPG,AFNE01.JPG,AFNE01.JPG,AFNE01.JPG,,,,,,,,,,,,,,,,,4,1,41,6,,,,,,,AFNE03.jpg,AFSA08.jpg,AFNE11.jpg,AFSA12.jpg,AFNE03.jpg,FN,3,num_8,32,num_6,0.733468941879,,,2017_Nov_29_1413,60.00588934,FEMA4ImagesEEG,001,102496,
AFNE01.JPG,AFNE01.JPG,AFNE01.JPG,AFNE01.JPG,AFNE01.JPG,AFNE01.JPG,,,,,,,,,,,,,,,,,4,2,42,0,,,,,,,AFNE14.jpg,AFSA05.jpg,AFSA13.jpg,AFNE07.jpg,AFSA05.jpg,FS,4,num_6,32,num_2,1.05013121432,,,2017_Nov_29_1413,60.00588934,FEMA4ImagesEEG,001,102496,
AFNE01.JPG,AFNE01.JPG,AFNE01.JPG,AFNE01.JPG,AFNE01.JPG,AFNE01.JPG,,,,,,,,,,,,,,,,,4,3,43,9,,,,,,,AFNE18.jpg,AFSA20.jpg,AFSA17.jpg,AFNE10.jpg,AFSA17.jpg,FS,4,num_2,16,num_2,0.866678662365,,,2017_Nov_29_1413,60.00588934,FEMA4ImagesEEG,001,102496,
AFNE01.JPG,AFNE01.JPG,AFNE01.JPG,AFNE01.JPG,AFNE01.JPG,AFNE01.JPG,,,,,,,,,,,,,,,,,4,4,44,5,,,,,,,AFNE14.jpg,AFSA02.jpg,AFNE05.jpg,AFSA05.jpg,AFNE05.jpg,FN,3,num_2,32,num_4,0.866630872129,,,2017_Nov_29_1413,60.00588934,FEMA4ImagesEEG,001,102496,
AFNE01.JPG,AFNE01.JPG,AFNE01.JPG,AFNE01.JPG,AFNE01.JPG,AFNE01.JPG,,,,,,,,,,,,,,,,,4,5,45,3,,,,,,,AFSA07.jpg,AFNE13.jpg,AFSA09.jpg,AFNE07.jpg,AFSA09.jpg,FS,4,num_2,16,num_2,0.266775140655,,,2017_Nov_29_1413,60.00588934,FEMA4ImagesEEG,001,102496,
AFNE01.JPG,AFNE01.JPG,AFNE01.JPG,AFNE01.JPG,AFNE01.JPG,AFNE01.JPG,,,,,,,,,,,,,,,,,4,6,46,1,,,,,,,AFSA16.jpg,AFNE04.jpg,AFSA19.jpg,AFNE12.jpg,AFNE04.jpg,FN,3,num_6,16,num_6,0.566800030065,,,2017_Nov_29_1413,60.00588934,FEMA4ImagesEEG,001,102496,
AFNE01.JPG,AFNE01.JPG,AFNE01.JPG,AFNE01.JPG,AFNE01.JPG,AFNE01.JPG,,,,,,,,,,,,,,,,,4,7,47,4,,,,,,,AFNE04.jpg,AFNE09.jpg,AFSA06.jpg,AFSA13.jpg,AFNE09.jpg,FN,3,num_6,32,num_8,1.16674011596,,,2017_Nov_29_1413,60.00588934,FEMA4ImagesEEG,001,102496,
AFNE01.JPG,AFNE01.JPG,AFNE01.JPG,AFNE01.JPG,AFNE01.JPG,AFNE01.JPG,,,,,,,,,,,,,,,,,4,8,48,2,,,,,,,AFNE01.jpg,AFSA09.jpg,AFSA04.jpg,AFNE10.jpg,AFSA09.jpg,FS,4,num_6,48,None,,,,2017_Nov_29_1413,60.00588934,FEMA4ImagesEEG,001,102496,
AFNE01.JPG,AFNE01.JPG,AFNE01.JPG,AFNE01.JPG,AFNE01.JPG,AFNE01.JPG,,,,,,,,,,,,,,,,,4,9,49,8,,,,,,,AFSA17.jpg,AFNE04.jpg,AFSA20.jpg,AFNE11.jpg,AFNE04.jpg,FN,3,num_6,32,num_4,1.0334075524,,,2017_Nov_29_1413,60.00588934,FEMA4ImagesEEG,001,102496,
AFNE01.JPG,AFNE01.JPG,AFNE01.JPG,AFNE01.JPG,AFNE01.JPG,AFNE01.JPG,,,,,,,,,,,,,,,,,5,0,50,6,,,,,,,AFSA04.jpg,AFNE15.jpg,AFNE10.jpg,AFSA03.jpg,AFNE10.jpg,FN,3,num_2,32,num_6,0.650143145933,,,2017_Nov_29_1413,60.00588934,FEMA4ImagesEEG,001,102496,
AFNE01.JPG,AFNE01.JPG,AFNE01.JPG,AFNE01.JPG,AFNE01.JPG,AFNE01.JPG,,,,,,,,,,,,,,,,,5,1,51,8,,,,,,,AFSA01.jpg,AFSA07.jpg,AFNE05.jpg,AFNE01.jpg,AFNE01.jpg,FN,3,num_4,32,num_2,0.883642237284,,,2017_Nov_29_1413,60.00588934,FEMA4ImagesEEG,001,102496,
AFNE01.JPG,AFNE01.JPG,AFNE01.JPG,AFNE01.JPG,AFNE01.JPG,AFNE01.JPG,,,,,,,,,,,,,,,,,5,2,52,9,,,,,,,AFNE14.jpg,AFSA03.jpg,AFSA05.jpg,AFNE05.jpg,AFSA05.jpg,FS,4,num_2,16,num_2,0.58341079182,,,2017_Nov_29_1413,60.00588934,FEMA4ImagesEEG,001,102496,
AFNE01.JPG,AFNE01.JPG,AFNE01.JPG,AFNE01.JPG,AFNE01.JPG,AFNE01.JPG,,,,,,,,,,,,,,,,,5,3,53,4,,,,,,,AFNE20.jpg,AFSA06.jpg,AFSA07.jpg,AFNE14.jpg,AFSA07.jpg,FS,4,num_2,32,num_4,0.566658263328,,,2017_Nov_29_1413,60.00588934,FEMA4ImagesEEG,001,102496,
AFNE01.JPG,AFNE01.JPG,AFNE01.JPG,AFNE01.JPG,AFNE01.JPG,AFNE01.JPG,,,,,,,,,,,,,,,,,5,4,54,7,,,,,,,AFNE02.jpg,AFSA03.jpg,AFSA04.jpg,AFNE20.jpg,AFNE02.jpg,FN,3,num_8,32,num_6,0.716777995229,,,2017_Nov_29_1413,60.00588934,FEMA4ImagesEEG,001,102496,
AFNE01.JPG,AFNE01.JPG,AFNE01.JPG,AFNE01.JPG,AFNE01.JPG,AFNE01.JPG,,,,,,,,,,,,,,,,,5,5,55,1,,,,,,,AFNE20.jpg,AFNE18.jpg,AFSA16.jpg,AFSA15.jpg,AFSA15.jpg,FS,4,num_4,32,num_8,1.01685388212,,,2017_Nov_29_1413,60.00588934,FEMA4ImagesEEG,001,102496,
AFNE01.JPG,AFNE01.JPG,AFNE01.JPG,AFNE01.JPG,AFNE01.JPG,AFNE01.JPG,,,,,,,,,,,,,,,,,5,6,56,3,,,,,,,AFSA06.jpg,AFNE14.jpg,AFNE02.jpg,AFSA05.jpg,AFNE02.jpg,FN,3,num_2,32,num_4,1.10012707685,,,2017_Nov_29_1413,60.00588934,FEMA4ImagesEEG,001,102496,
AFNE01.JPG,AFNE01.JPG,AFNE01.JPG,AFNE01.JPG,AFNE01.JPG,AFNE01.JPG,,,,,,,,,,,,,,,,,5,7,57,2,,,,,,,AFSA19.jpg,AFSA09.jpg,AFNE03.jpg,AFNE05.jpg,AFSA09.jpg,FS,4,num_6,16,num_6,0.783805108629,,,2017_Nov_29_1413,60.00588934,FEMA4ImagesEEG,001,102496,
AFNE01.JPG,AFNE01.JPG,AFNE01.JPG,AFNE01.JPG,AFNE01.JPG,AFNE01.JPG,,,,,,,,,,,,,,,,,5,8,58,0,,,,,,,AFSA01.jpg,AFSA06.jpg,AFNE04.jpg,AFNE01.jpg,AFSA06.jpg,FS,4,num_6,32,num_4,1.16677186906,,,2017_Nov_29_1413,60.00588934,FEMA4ImagesEEG,001,102496,
AFNE01.JPG,AFNE01.JPG,AFNE01.JPG,AFNE01.JPG,AFNE01.JPG,AFNE01.JPG,,,,,,,,,,,,,,,,,5,9,59,5,,,,,,,AFNE18.jpg,AFSA18.jpg,AFSA12.jpg,AFNE04.jpg,AFNE04.jpg,FN,3,num_4,32,num_8,0.700161139364,,,2017_Nov_29_1413,60.00588934,FEMA4ImagesEEG,001,102496,
,,,,,,,,,,,,,,,,,,,,,,,,,,,,,,,,,,,,,,,,,,,space,26.0811181482,2017_Nov_29_1413,60.00588934,FEMA4ImagesEEG,001,102496,
AFNE01.JPG,AFNE01.JPG,AFNE01.JPG,AFNE01.JPG,AFNE01.JPG,AFNE01.JPG,,,,,,,,,,,,,,,,,,,,,0,0,0,4,,,AMNE11.jpg,AMSA09.jpg,AMNE01.jpg,AMSA14.jpg,AMNE01.jpg,MN,1,num_2,32,num_4,0.733443282661,,,2017_Nov_29_1413,60.00588934,FEMA4ImagesEEG,001,102496,
AFNE01.JPG,AFNE01.JPG,AFNE01.JPG,AFNE01.JPG,AFNE01.JPG,AFNE01.JPG,,,,,,,,,,,,,,,,,,,,,0,1,1,6,,,AMSA16.jpg,AMNE09.jpg,AMSA13.jpg,AMNE07.jpg,AMNE09.jpg,MN,1,num_6,16,num_6,0.633465349558,,,2017_Nov_29_1413,60.00588934,FEMA4ImagesEEG,001,102496,
AFNE01.JPG,AFNE01.JPG,AFNE01.JPG,AFNE01.JPG,AFNE01.JPG,AFNE01.JPG,,,,,,,,,,,,,,,,,,,,,0,2,2,1,,,AMSA09.jpg,AMNE10.jpg,AMNE12.jpg,AMSA15.jpg,AMNE12.jpg,MN,1,num_2,32,num_8,0.650155975483,,,2017_Nov_29_1413,60.00588934,FEMA4ImagesEEG,001,102496,
AFNE01.JPG,AFNE01.JPG,AFNE01.JPG,AFNE01.JPG,AFNE01.JPG,AFNE01.JPG,,,,,,,,,,,,,,,,,,,,,0,3,3,2,,,AMNE05.jpg,AMSA14.jpg,AMNE04.jpg,AMSA16.jpg,AMSA14.jpg,MS,2,num_6,16,num_6,0.983473913278,,,2017_Nov_29_1413,60.00588934,FEMA4ImagesEEG,001,102496,
AFNE01.JPG,AFNE01.JPG,AFNE01.JPG,AFNE01.JPG,AFNE01.JPG,AFNE01.JPG,,,,,,,,,,,,,,,,,,,,,0,4,4,5,,,AMSA20.jpg,AMSA04.jpg,AMNE06.jpg,AMNE08.jpg,AMSA04.jpg,MS,2,num_6,16,num_6,0.516803846811,,,2017_Nov_29_1413,60.00588934,FEMA4ImagesEEG,001,102496,
AFNE01.JPG,AFNE01.JPG,AFNE01.JPG,AFNE01.JPG,AFNE01.JPG,AFNE01.JPG,,,,,,,,,,,,,,,,,,,,,0,5,5,3,,,AMNE10.jpg,AMSA16.jpg,AMSA19.jpg,AMNE01.jpg,AMNE10.jpg,MN,1,num_8,16,num_8,0.750140002579,,,2017_Nov_29_1413,60.00588934,FEMA4ImagesEEG,001,102496,
AFNE01.JPG,AFNE01.JPG,AFNE01.JPG,AFNE01.JPG,AFNE01.JPG,AFNE01.JPG,,,,,,,,,,,,,,,,,,,,,0,6,6,0,,,AMNE05.jpg,AMSA17.jpg,AMNE14.jpg,AMSA04.jpg,AMNE05.jpg,MN,1,num_8,16,num_8,0.966772702988,,,2017_Nov_29_1413,60.00588934,FEMA4ImagesEEG,001,102496,
AFNE01.JPG,AFNE01.JPG,AFNE01.JPG,AFNE01.JPG,AFNE01.JPG,AFNE01.JPG,,,,,,,,,,,,,,,,,,,,,0,7,7,8,,,AMSA16.jpg,AMNE12.jpg,AMSA18.jpg,AMNE09.jpg,AMNE12.jpg,MN,1,num_6,32,num_4,0.633630850934,,,2017_Nov_29_1413,60.00588934,FEMA4ImagesEEG,001,102496,
AFNE01.JPG,AFNE01.JPG,AFNE01.JPG,AFNE01.JPG,AFNE01.JPG,AFNE01.JPG,,,,,,,,,,,,,,,,,,,,,0,8,8,9,,,AMNE09.jpg,AMSA04.jpg,AMNE08.jpg,AMSA15.jpg,AMSA15.jpg,MS,2,num_4,16,num_4,0.58357757621,,,2017_Nov_29_1413,60.00588934,FEMA4ImagesEEG,001,102496,
AFNE01.JPG,AFNE01.JPG,AFNE01.JPG,AFNE01.JPG,AFNE01.JPG,AFNE01.JPG,,,,,,,,,,,,,,,,,,,,,0,9,9,7,,,AMNE18.jpg,AMSA12.jpg,AMSA03.jpg,AMNE10.jpg,AMSA03.jpg,MS,2,num_2,16,num_2,0.866741527105,,,2017_Nov_29_1413,60.00588934,FEMA4ImagesEEG,001,102496,
AFNE01.JPG,AFNE01.JPG,AFNE01.JPG,AFNE01.JPG,AFNE01.JPG,AFNE01.JPG,,,,,,,,,,,,,,,,,,,,,1,0,10,0,,,AMSA05.jpg,AMSA12.jpg,AMNE13.jpg,AMNE02.jpg,AMSA12.jpg,MS,2,num_6,16,num_6,0.750489608385,,,2017_Nov_29_1413,60.00588934,FEMA4ImagesEEG,001,102496,
AFNE01.JPG,AFNE01.JPG,AFNE01.JPG,AFNE01.JPG,AFNE01.JPG,AFNE01.JPG,,,,,,,,,,,,,,,,,,,,,1,1,11,3,,,AMNE14.jpg,AMSA01.jpg,AMNE01.jpg,AMSA09.jpg,AMNE14.jpg,MN,1,num_8,16,num_8,1.6001860929,,,2017_Nov_29_1413,60.00588934,FEMA4ImagesEEG,001,102496,
AFNE01.JPG,AFNE01.JPG,AFNE01.JPG,AFNE01.JPG,AFNE01.JPG,AFNE01.JPG,,,,,,,,,,,,,,,,,,,,,1,2,12,7,,,AMNE06.jpg,AMSA14.jpg,AMSA01.jpg,AMNE20.jpg,AMSA14.jpg,MS,2,num_6,16,num_6,1.91708988207,,,2017_Nov_29_1413,60.00588934,FEMA4ImagesEEG,001,102496,
AFNE01.JPG,AFNE01.JPG,AFNE01.JPG,AFNE01.JPG,AFNE01.JPG,AFNE01.JPG,,,,,,,,,,,,,,,,,,,,,1,3,13,2,,,AMNE08.jpg,AMSA13.jpg,AMSA04.jpg,AMNE18.jpg,AMNE18.jpg,MN,1,num_4,32,num_8,1.26666993822,,,2017_Nov_29_1413,60.00588934,FEMA4ImagesEEG,001,102496,
AFNE01.JPG,AFNE01.JPG,AFNE01.JPG,AFNE01.JPG,AFNE01.JPG,AFNE01.JPG,,,,,,,,,,,,,,,,,,,,,1,4,14,8,,,AMSA12.jpg,AMSA14.jpg,AMNE04.jpg,AMNE17.jpg,AMSA14.jpg,MS,2,num_6,32,num_2,1.300102829,,,2017_Nov_29_1413,60.00588934,FEMA4ImagesEEG,001,102496,
AFNE01.JPG,AFNE01.JPG,AFNE01.JPG,AFNE01.JPG,AFNE01.JPG,AFNE01.JPG,,,,,,,,,,,,,,,,,,,,,1,5,15,1,,,AMNE10.jpg,AMSA01.jpg,AMSA19.jpg,AMNE06.jpg,AMNE06.jpg,MN,1,num_4,32,num_8,0.949990345747,,,2017_Nov_29_1413,60.00588934,FEMA4ImagesEEG,001,102496,
AFNE01.JPG,AFNE01.JPG,AFNE01.JPG,AFNE01.JPG,AFNE01.JPG,AFNE01.JPG,,,,,,,,,,,,,,,,,,,,,1,6,16,6,,,AMNE03.jpg,AMNE04.jpg,AMSA01.jpg,AMSA05.jpg,AMNE04.jpg,MN,1,num_6,16,num_6,0.816764267627,,,2017_Nov_29_1413,60.00588934,FEMA4ImagesEEG,001,102496,
AFNE01.JPG,AFNE01.JPG,AFNE01.JPG,AFNE01.JPG,AFNE01.JPG,AFNE01.JPG,,,,,,,,,,,,,,,,,,,,,1,7,17,4,,,AMSA03.jpg,AMNE05.jpg,AMNE11.jpg,AMSA14.jpg,AMNE11.jpg,MN,1,num_2,32,num_6,0.716764844954,,,2017_Nov_29_1413,60.00588934,FEMA4ImagesEEG,001,102496,
AFNE01.JPG,AFNE01.JPG,AFNE01.JPG,AFNE01.JPG,AFNE01.JPG,AFNE01.JPG,,,,,,,,,,,,,,,,,,,,,1,8,18,9,,,AMNE03.jpg,AMSA04.jpg,AMNE02.jpg,AMSA20.jpg,AMSA04.jpg,MS,2,num_6,32,num_2,1.09999878122,,,2017_Nov_29_1413,60.00588934,FEMA4ImagesEEG,001,102496,
AFNE01.JPG,AFNE01.JPG,AFNE01.JPG,AFNE01.JPG,AFNE01.JPG,AFNE01.JPG,,,,,,,,,,,,,,,,,,,,,1,9,19,5,,,AMNE16.jpg,AMSA19.jpg,AMSA10.jpg,AMNE07.jpg,AMNE07.jpg,MN,1,num_4,32,num_8,0.900141061051,,,2017_Nov_29_1413,60.00588934,FEMA4ImagesEEG,001,102496,
AFNE01.JPG,AFNE01.JPG,AFNE01.JPG,AFNE01.JPG,AFNE01.JPG,AFNE01.JPG,,,,,,,,,,,,,,,,,,,,,2,0,20,5,,,AMSA12.jpg,AMSA02.jpg,AMNE20.jpg,AMNE18.jpg,AMSA02.jpg,MS,2,num_6,16,num_6,0.733554258477,,,2017_Nov_29_1413,60.00588934,FEMA4ImagesEEG,001,102496,
AFNE01.JPG,AFNE01.JPG,AFNE01.JPG,AFNE01.JPG,AFNE01.JPG,AFNE01.JPG,,,,,,,,,,,,,,,,,,,,,2,1,21,0,,,AMNE08.jpg,AMSA09.jpg,AMSA14.jpg,AMNE20.jpg,AMSA09.jpg,MS,2,num_6,32,num_2,1.48341457651,,,2017_Nov_29_1413,60.00588934,FEMA4ImagesEEG,001,102496,
AFNE01.JPG,AFNE01.JPG,AFNE01.JPG,AFNE01.JPG,AFNE01.JPG,AFNE01.JPG,,,,,,,,,,,,,,,,,,,,,2,2,22,7,,,AMNE18.jpg,AMNE14.jpg,AMSA04.jpg,AMSA17.jpg,AMSA04.jpg,MS,2,num_2,16,num_2,0.483490912477,,,2017_Nov_29_1413,60.00588934,FEMA4ImagesEEG,001,102496,
AFNE01.JPG,AFNE01.JPG,AFNE01.JPG,AFNE01.JPG,AFNE01.JPG,AFNE01.JPG,,,,,,,,,,,,,,,,,,,,,2,3,23,8,,,AMSA14.jpg,AMNE16.jpg,AMNE06.jpg,AMSA06.jpg,AMNE16.jpg,MN,1,num_6,16,num_6,1.78346480441,,,2017_Nov_29_1413,60.00588934,FEMA4ImagesEEG,001,102496,
AFNE01.JPG,AFNE01.JPG,AFNE01.JPG,AFNE01.JPG,AFNE01.JPG,AFNE01.JPG,,,,,,,,,,,,,,,,,,,,,2,4,24,9,,,AMNE06.jpg,AMSA12.jpg,AMSA07.jpg,AMNE07.jpg,AMSA07.jpg,MS,2,num_2,16,num_2,0.883478660253,,,2017_Nov_29_1413,60.00588934,FEMA4ImagesEEG,001,102496,
AFNE01.JPG,AFNE01.JPG,AFNE01.JPG,AFNE01.JPG,AFNE01.JPG,AFNE01.JPG,,,,,,,,,,,,,,,,,,,,,2,5,25,6,,,AMSA17.jpg,AMNE02.jpg,AMNE05.jpg,AMSA16.jpg,AMSA16.jpg,MS,2,num_4,32,num_8,1.06674999476,,,2017_Nov_29_1413,60.00588934,FEMA4ImagesEEG,001,102496,
AFNE01.JPG,AFNE01.JPG,AFNE01.JPG,AFNE01.JPG,AFNE01.JPG,AFNE01.JPG,,,,,,,,,,,,,,,,,,,,,2,6,26,3,,,AMNE10.jpg,AMNE14.jpg,AMSA05.jpg,AMSA14.jpg,AMSA05.jpg,MS,2,num_2,16,num_2,1.30009128235,,,2017_Nov_29_1413,60.00588934,FEMA4ImagesEEG,001,102496,
AFNE01.JPG,AFNE01.JPG,AFNE01.JPG,AFNE01.JPG,AFNE01.JPG,AFNE01.JPG,,,,,,,,,,,,,,,,,,,,,2,7,27,4,,,AMSA09.jpg,AMNE20.jpg,AMNE14.jpg,AMSA08.jpg,AMSA09.jpg,MS,2,num_8,32,num_6,0.899954390945,,,2017_Nov_29_1413,60.00588934,FEMA4ImagesEEG,001,102496,
AFNE01.JPG,AFNE01.JPG,AFNE01.JPG,AFNE01.JPG,AFNE01.JPG,AFNE01.JPG,,,,,,,,,,,,,,,,,,,,,2,8,28,2,,,AMSA04.jpg,AMSA10.jpg,AMNE17.jpg,AMNE02.jpg,AMSA10.jpg,MS,2,num_6,16,num_6,1.1501902946,,,2017_Nov_29_1413,60.00588934,FEMA4ImagesEEG,001,102496,
AFNE01.JPG,AFNE01.JPG,AFNE01.JPG,AFNE01.JPG,AFNE01.JPG,AFNE01.JPG,,,,,,,,,,,,,,,,,,,,,2,9,29,1,,,AMNE09.jpg,AMSA18.jpg,AMNE07.jpg,AMSA05.jpg,AMNE09.jpg,MN,1,num_8,16,num_8,1.06681831216,,,2017_Nov_29_1413,60.00588934,FEMA4ImagesEEG,001,102496,
AFNE01.JPG,AFNE01.JPG,AFNE01.JPG,AFNE01.JPG,AFNE01.JPG,AFNE01.JPG,,,,,,,,,,,,,,,,,,,,,3,0,30,5,,,AMNE17.jpg,AMSA10.jpg,AMNE06.jpg,AMSA13.jpg,AMNE17.jpg,MN,1,num_8,16,num_8,1.21675041167,,,2017_Nov_29_1413,60.00588934,FEMA4ImagesEEG,001,102496,
AFNE01.JPG,AFNE01.JPG,AFNE01.JPG,AFNE01.JPG,AFNE01.JPG,AFNE01.JPG,,,,,,,,,,,,,,,,,,,,,3,1,31,6,,,AMNE06.jpg,AMSA05.jpg,AMNE11.jpg,AMSA20.jpg,AMNE06.jpg,MN,1,num_8,32,num_2,1.14977269212,,,2017_Nov_29_1413,60.00588934,FEMA4ImagesEEG,001,102496,
AFNE01.JPG,AFNE01.JPG,AFNE01.JPG,AFNE01.JPG,AFNE01.JPG,AFNE01.JPG,,,,,,,,,,,,,,,,,,,,,3,2,32,1,,,AMNE10.jpg,AMNE19.jpg,AMSA03.jpg,AMSA07.jpg,AMSA03.jpg,MS,2,num_2,16,num_2,0.533350140089,,,2017_Nov_29_1413,60.00588934,FEMA4ImagesEEG,001,102496,
AFNE01.JPG,AFNE01.JPG,AFNE01.JPG,AFNE01.JPG,AFNE01.JPG,AFNE01.JPG,,,,,,,,,,,,,,,,,,,,,3,3,33,7,,,AMSA05.jpg,AMNE03.jpg,AMSA01.jpg,AMNE04.jpg,AMNE03.jpg,MN,1,num_6,32,num_4,0.816782549722,,,2017_Nov_29_1413,60.00588934,FEMA4ImagesEEG,001,102496,
AFNE01.JPG,AFNE01.JPG,AFNE01.JPG,AFNE01.JPG,AFNE01.JPG,AFNE01.JPG,,,,,,,,,,,,,,,,,,,,,3,4,34,2,,,AMSA12.jpg,AMNE19.jpg,AMNE09.jpg,AMSA16.jpg,AMNE19.jpg,MN,1,num_6,32,num_8,0.933457202744,,,2017_Nov_29_1413,60.00588934,FEMA4ImagesEEG,001,102496,
AFNE01.JPG,AFNE01.JPG,AFNE01.JPG,AFNE01.JPG,AFNE01.JPG,AFNE01.JPG,,,,,,,,,,,,,,,,,,,,,3,5,35,8,,,AMNE12.jpg,AMSA04.jpg,AMSA20.jpg,AMNE06.jpg,AMNE12.jpg,MN,1,num_8,16,num_8,0.700111424783,,,2017_Nov_29_1413,60.00588934,FEMA4ImagesEEG,001,102496,
AFNE01.JPG,AFNE01.JPG,AFNE01.JPG,AFNE01.JPG,AFNE01.JPG,AFNE01.JPG,,,,,,,,,,,,,,,,,,,,,3,6,36,9,,,AMSA19.jpg,AMSA20.jpg,AMNE18.jpg,AMNE01.jpg,AMSA19.jpg,MS,2,num_8,32,num_6,0.916814687778,,,2017_Nov_29_1413,60.00588934,FEMA4ImagesEEG,001,102496,
AFNE01.JPG,AFNE01.JPG,AFNE01.JPG,AFNE01.JPG,AFNE01.JPG,AFNE01.JPG,,,,,,,,,,,,,,,,,,,,,3,7,37,3,,,AMSA17.jpg,AMNE17.jpg,AMNE04.jpg,AMSA09.jpg,AMSA17.jpg,MS,2,num_8,32,num_4,0.916664902586,,,2017_Nov_29_1413,60.00588934,FEMA4ImagesEEG,001,102496,
AFNE01.JPG,AFNE01.JPG,AFNE01.JPG,AFNE01.JPG,AFNE01.JPG,AFNE01.JPG,,,,,,,,,,,,,,,,,,,,,3,8,38,0,,,AMSA07.jpg,AMNE18.jpg,AMNE20.jpg,AMSA09.jpg,AMSA07.jpg,MS,2,num_8,32,num_4,1.18356930115,,,2017_Nov_29_1413,60.00588934,FEMA4ImagesEEG,001,102496,
AFNE01.JPG,AFNE01.JPG,AFNE01.JPG,AFNE01.JPG,AFNE01.JPG,AFNE01.JPG,,,,,,,,,,,,,,,,,,,,,3,9,39,4,,,AMNE04.jpg,AMSA02.jpg,AMSA11.jpg,AMNE19.jpg,AMSA02.jpg,MS,2,num_6,32,num_8,1.60009147471,,,2017_Nov_29_1413,60.00588934,FEMA4ImagesEEG,001,102496,
AFNE01.JPG,AFNE01.JPG,AFNE01.JPG,AFNE01.JPG,AFNE01.JPG,AFNE01.JPG,,,,,,,,,,,,,,,,,,,,,4,0,40,6,,,AMNE12.jpg,AMSA07.jpg,AMNE20.jpg,AMSA09.jpg,AMNE20.jpg,MN,1,num_2,32,num_8,0.800099300803,,,2017_Nov_29_1413,60.00588934,FEMA4ImagesEEG,001,102496,
AFNE01.JPG,AFNE01.JPG,AFNE01.JPG,AFNE01.JPG,AFNE01.JPG,AFNE01.JPG,,,,,,,,,,,,,,,,,,,,,4,1,41,8,,,AMNE18.jpg,AMSA13.jpg,AMSA15.jpg,AMNE19.jpg,AMSA13.jpg,MS,2,num_6,16,num_6,1.06686289492,,,2017_Nov_29_1413,60.00588934,FEMA4ImagesEEG,001,102496,
AFNE01.JPG,AFNE01.JPG,AFNE01.JPG,AFNE01.JPG,AFNE01.JPG,AFNE01.JPG,,,,,,,,,,,,,,,,,,,,,4,2,42,2,,,AMNE14.jpg,AMNE02.jpg,AMSA17.jpg,AMSA04.jpg,AMNE02.jpg,MN,1,num_6,48,None,,,,2017_Nov_29_1413,60.00588934,FEMA4ImagesEEG,001,102496,
