IPosition2,IPosition3,IPosition1,IPosition6,IPosition4,IPosition5,TrialsM1.thisRepN,TrialsM1.thisTrialN,TrialsM1.thisN,TrialsM1.thisIndex,TrialsF1.thisRepN,TrialsF1.thisTrialN,TrialsF1.thisN,TrialsF1.thisIndex,TrialsM2.thisRepN,TrialsM2.thisTrialN,TrialsM2.thisN,TrialsM2.thisIndex,TrialsF2.thisRepN,TrialsF2.thisTrialN,TrialsF2.thisN,TrialsF2.thisIndex,TrialsM3.thisRepN,TrialsM3.thisTrialN,TrialsM3.thisN,TrialsM3.thisIndex,TrialsF3.thisRepN,TrialsF3.thisTrialN,TrialsF3.thisN,TrialsF3.thisIndex,InstrKey_resp.keys,InstrKey_resp.rt,Image0 _Position,Image1 _Position,Image2 _Position,Image3 _Position,Center_image,condition,code,correct_answer,accuracy,Key_Resp.keys,Key_Resp.rt,BreakKey_resp.keys,BreakKey_resp.rt,date,frameRate,expName,session,participant,
,,,,,,,,,,,,,,,,,,,,,,,,,,,,,,space,13.0662564407,,,,,,,,,,,,,,2017_Nov_16_1058,60.0185381698,MAFE4ImagesEEG,001,102414,
AMNE22.JPG,AMSA24.JPG,AMSA22.JPG,AMNE25.JPG,AMNE24.JPG,AMSA25.JPG,0,0,0,7,,,,,,,,,,,,,,,,,,,,,,,AMNE20.jpg,AMSA05.jpg,AMNE12.jpg,AMSA07.jpg,AMNE12.jpg,MN,1,num_2,16,num_2,1.51671517873,,,2017_Nov_16_1058,60.0185381698,MAFE4ImagesEEG,001,102414,
AFSA21.JPG,AFNE23.JPG,AFNE21.JPG,AFSA25.JPG,AFNE25.JPG,AFSA23.JPG,0,1,1,4,,,,,,,,,,,,,,,,,,,,,,,AMNE13.jpg,AMNE06.jpg,AMSA05.jpg,AMSA16.jpg,AMSA05.jpg,MS,2,num_2,32,num_4,1.38340590103,,,2017_Nov_16_1058,60.0185381698,MAFE4ImagesEEG,001,102414,
AMSA21.JPG,AMNE23.JPG,AMNE21.JPG,AMSA25.JPG,AMNE25.JPG,AMSA23.JPG,0,2,2,5,,,,,,,,,,,,,,,,,,,,,,,AMNE18.jpg,AMSA01.jpg,AMNE10.jpg,AMSA08.jpg,AMSA08.jpg,MS,2,num_4,32,num_6,1.21673330059,,,2017_Nov_16_1058,60.0185381698,MAFE4ImagesEEG,001,102414,
AFSA25.JPG,AFNE24.JPG,AFSA24.JPG,AFNE21.JPG,AFSA21.JPG,AFNE25.JPG,0,3,3,2,,,,,,,,,,,,,,,,,,,,,,,AMSA18.jpg,AMSA03.jpg,AMNE14.jpg,AMNE17.jpg,AMNE14.jpg,MN,1,num_2,16,num_2,0.90010632528,,,2017_Nov_16_1058,60.0185381698,MAFE4ImagesEEG,001,102414,
AFSA21.JPG,AFNE22.JPG,AFNE21.JPG,AFSA23.JPG,AFSA22.JPG,AFNE23.JPG,0,4,4,0,,,,,,,,,,,,,,,,,,,,,,,AMNE01.jpg,AMSA17.jpg,AMSA11.jpg,AMNE09.jpg,AMSA17.jpg,MS,2,num_6,16,num_6,1.60008884501,,,2017_Nov_16_1058,60.0185381698,MAFE4ImagesEEG,001,102414,
AMSA21.JPG,AMNE22.JPG,AMNE21.JPG,AMSA23.JPG,AMSA22.JPG,AMNE23.JPG,0,5,5,1,,,,,,,,,,,,,,,,,,,,,,,AMNE01.jpg,AMNE11.jpg,AMSA03.jpg,AMSA12.jpg,AMSA12.jpg,MS,2,num_4,16,num_4,1.73340999009,,,2017_Nov_16_1058,60.0185381698,MAFE4ImagesEEG,001,102414,
AMNE23.JPG,AMNE24.JPG,AMNE22.JPG,AMSA24.JPG,AMSA22.JPG,AMSA23.JPG,0,6,6,9,,,,,,,,,,,,,,,,,,,,,,,AMNE02.jpg,AMNE03.jpg,AMSA06.jpg,AMSA16.jpg,AMNE02.jpg,MN,1,num_8,16,num_8,0.749821909238,,,2017_Nov_16_1058,60.0185381698,MAFE4ImagesEEG,001,102414,
AFNE22.JPG,AFSA24.JPG,AFSA22.JPG,AFNE25.JPG,AFNE24.JPG,AFSA25.JPG,0,7,7,6,,,,,,,,,,,,,,,,,,,,,,,AMNE16.jpg,AMNE20.jpg,AMSA08.jpg,AMSA02.jpg,AMNE16.jpg,MN,1,num_8,32,num_2,0.833474619314,,,2017_Nov_16_1058,60.0185381698,MAFE4ImagesEEG,001,102414,
AFNE23.JPG,AFNE24.JPG,AFNE22.JPG,AFSA24.JPG,AFSA22.JPG,AFSA23.JPG,0,8,8,8,,,,,,,,,,,,,,,,,,,,,,,AMSA05.jpg,AMSA12.jpg,AMNE07.jpg,AMNE03.jpg,AMNE07.jpg,MN,1,num_2,16,num_2,1.50006270455,,,2017_Nov_16_1058,60.0185381698,MAFE4ImagesEEG,001,102414,
AMSA25.JPG,AMNE24.JPG,AMSA24.JPG,AMNE26.JPG,AMSA21.JPG,AMNE25.JPG,0,9,9,3,,,,,,,,,,,,,,,,,,,,,,,AMNE12.jpg,AMSA19.jpg,AMSA06.jpg,AMNE08.jpg,AMNE08.jpg,MN,1,num_4,32,num_8,1.33373040892,,,2017_Nov_16_1058,60.0185381698,MAFE4ImagesEEG,001,102414,
AMSA21.JPG,AMNE22.JPG,AMNE21.JPG,AMSA23.JPG,AMSA22.JPG,AMNE23.JPG,,,,,0,0,0,1,,,,,,,,,,,,,,,,,,,AFNE16.jpg,AFSA03.jpg,AFNE12.jpg,AFSA15.jpg,AFSA03.jpg,FS,4,num_6,16,num_6,1.15011987649,,,2017_Nov_16_1058,60.0185381698,MAFE4ImagesEEG,001,102414,
AFNE23.JPG,AFNE24.JPG,AFNE22.JPG,AFSA24.JPG,AFSA22.JPG,AFSA23.JPG,,,,,0,1,1,8,,,,,,,,,,,,,,,,,,,AFNE17.jpg,AFSA08.jpg,AFSA09.jpg,AFNE03.jpg,AFNE17.jpg,FN,3,num_8,32,num_2,1.26673626713,,,2017_Nov_16_1058,60.0185381698,MAFE4ImagesEEG,001,102414,
AMSA25.JPG,AMNE24.JPG,AMSA24.JPG,AMNE26.JPG,AMSA21.JPG,AMNE25.JPG,,,,,0,2,2,3,,,,,,,,,,,,,,,,,,,AFSA15.jpg,AFSA09.jpg,AFNE19.jpg,AFNE20.jpg,AFNE20.jpg,FN,3,num_4,32,num_2,2.25004081428,,,2017_Nov_16_1058,60.0185381698,MAFE4ImagesEEG,001,102414,
AFSA21.JPG,AFNE23.JPG,AFNE21.JPG,AFSA25.JPG,AFNE25.JPG,AFSA23.JPG,,,,,0,3,3,4,,,,,,,,,,,,,,,,,,,AFNE19.jpg,AFSA06.jpg,AFNE09.jpg,AFSA17.jpg,AFSA06.jpg,FS,4,num_6,32,num_8,3.05000809906,,,2017_Nov_16_1058,60.0185381698,MAFE4ImagesEEG,001,102414,
AMSA21.JPG,AMNE23.JPG,AMNE21.JPG,AMSA25.JPG,AMNE25.JPG,AMSA23.JPG,,,,,0,4,4,5,,,,,,,,,,,,,,,,,,,AFNE09.jpg,AFNE18.jpg,AFSA06.jpg,AFSA15.jpg,AFSA06.jpg,FS,4,num_2,32,num_6,2.21664990811,,,2017_Nov_16_1058,60.0185381698,MAFE4ImagesEEG,001,102414,
AFSA25.JPG,AFNE24.JPG,AFSA24.JPG,AFNE21.JPG,AFSA21.JPG,AFNE25.JPG,,,,,0,5,5,2,,,,,,,,,,,,,,,,,,,AFNE13.jpg,AFSA04.jpg,AFSA09.jpg,AFNE11.jpg,AFSA04.jpg,FS,4,num_6,16,num_6,1.16678999085,,,2017_Nov_16_1058,60.0185381698,MAFE4ImagesEEG,001,102414,
AFNE22.JPG,AFSA24.JPG,AFSA22.JPG,AFNE25.JPG,AFNE24.JPG,AFSA25.JPG,,,,,0,6,6,6,,,,,,,,,,,,,,,,,,,AFNE14.jpg,AFNE18.jpg,AFSA05.jpg,AFSA03.jpg,AFNE18.jpg,FN,3,num_6,16,num_6,2.03333028592,,,2017_Nov_16_1058,60.0185381698,MAFE4ImagesEEG,001,102414,
AMNE22.JPG,AMSA24.JPG,AMSA22.JPG,AMNE25.JPG,AMNE24.JPG,AMSA25.JPG,,,,,0,7,7,7,,,,,,,,,,,,,,,,,,,AFNE05.jpg,AFNE10.jpg,AFSA10.jpg,AFSA03.jpg,AFSA03.jpg,FS,4,num_4,16,num_4,1.68339515571,,,2017_Nov_16_1058,60.0185381698,MAFE4ImagesEEG,001,102414,
AMNE23.JPG,AMNE24.JPG,AMNE22.JPG,AMSA24.JPG,AMSA22.JPG,AMSA23.JPG,,,,,0,8,8,9,,,,,,,,,,,,,,,,,,,AFNE02.jpg,AFSA07.jpg,AFSA03.jpg,AFNE10.jpg,AFSA03.jpg,FS,4,num_2,16,num_2,1.8669001651,,,2017_Nov_16_1058,60.0185381698,MAFE4ImagesEEG,001,102414,
AFSA21.JPG,AFNE22.JPG,AFNE21.JPG,AFSA23.JPG,AFSA22.JPG,AFNE23.JPG,,,,,0,9,9,0,,,,,,,,,,,,,,,,,,,AFSA09.jpg,AFSA08.jpg,AFNE20.jpg,AFNE13.jpg,AFNE13.jpg,FN,3,num_4,16,num_4,1.68325370969,,,2017_Nov_16_1058,60.0185381698,MAFE4ImagesEEG,001,102414,
AFNE22.JPG,AFSA24.JPG,AFSA22.JPG,AFNE25.JPG,AFNE24.JPG,AFSA25.JPG,,,,,,,,,0,0,0,6,,,,,,,,,,,,,,,AMNE03.jpg,AMSA19.jpg,AMNE15.jpg,AMSA16.jpg,AMSA16.jpg,MS,2,num_4,16,num_4,1.75004867231,,,2017_Nov_16_1058,60.0185381698,MAFE4ImagesEEG,001,102414,
AFNE23.JPG,AFNE24.JPG,AFNE22.JPG,AFSA24.JPG,AFSA22.JPG,AFSA23.JPG,,,,,,,,,0,1,1,8,,,,,,,,,,,,,,,AMNE10.jpg,AMNE06.jpg,AMSA10.jpg,AMSA03.jpg,AMNE10.jpg,MN,1,num_8,32,num_6,0.866782774217,,,2017_Nov_16_1058,60.0185381698,MAFE4ImagesEEG,001,102414,
AMSA21.JPG,AMNE22.JPG,AMNE21.JPG,AMSA23.JPG,AMSA22.JPG,AMNE23.JPG,,,,,,,,,0,2,2,1,,,,,,,,,,,,,,,AMNE16.jpg,AMSA09.jpg,AMSA10.jpg,AMNE09.jpg,AMNE16.jpg,MN,1,num_8,32,num_6,1.65010784846,,,2017_Nov_16_1058,60.0185381698,MAFE4ImagesEEG,001,102414,
AFSA21.JPG,AFNE23.JPG,AFNE21.JPG,AFSA25.JPG,AFNE25.JPG,AFSA23.JPG,,,,,,,,,0,3,3,4,,,,,,,,,,,,,,,AMSA15.jpg,AMSA09.jpg,AMNE15.jpg,AMNE13.jpg,AMSA09.jpg,MS,2,num_6,16,num_6,1.31674179947,,,2017_Nov_16_1058,60.0185381698,MAFE4ImagesEEG,001,102414,
AMNE22.JPG,AMSA24.JPG,AMSA22.JPG,AMNE25.JPG,AMNE24.JPG,AMSA25.JPG,,,,,,,,,0,4,4,7,,,,,,,,,,,,,,,AMNE13.jpg,AMSA17.jpg,AMSA03.jpg,AMNE15.jpg,AMNE13.jpg,MN,1,num_8,16,num_8,1.98338826001,,,2017_Nov_16_1058,60.0185381698,MAFE4ImagesEEG,001,102414,
AMNE23.JPG,AMNE24.JPG,AMNE22.JPG,AMSA24.JPG,AMSA22.JPG,AMSA23.JPG,,,,,,,,,0,5,5,9,,,,,,,,,,,,,,,AMSA12.jpg,AMNE09.jpg,AMSA15.jpg,AMNE04.jpg,AMNE04.jpg,MN,1,num_4,16,num_4,0.916767779738,,,2017_Nov_16_1058,60.0185381698,MAFE4ImagesEEG,001,102414,
AMSA21.JPG,AMNE23.JPG,AMNE21.JPG,AMSA25.JPG,AMNE25.JPG,AMSA23.JPG,,,,,,,,,0,6,6,5,,,,,,,,,,,,,,,AMSA16.jpg,AMNE14.jpg,AMNE15.jpg,AMSA10.jpg,AMNE15.jpg,MN,1,num_2,32,num_4,1.03344094148,,,2017_Nov_16_1058,60.0185381698,MAFE4ImagesEEG,001,102414,
AFSA21.JPG,AFNE22.JPG,AFNE21.JPG,AFSA23.JPG,AFSA22.JPG,AFNE23.JPG,,,,,,,,,0,7,7,0,,,,,,,,,,,,,,,AMNE14.jpg,AMNE12.jpg,AMSA16.jpg,AMSA02.jpg,AMSA16.jpg,MS,2,num_2,16,num_2,0.633462430909,,,2017_Nov_16_1058,60.0185381698,MAFE4ImagesEEG,001,102414,
AFSA25.JPG,AFNE24.JPG,AFSA24.JPG,AFNE21.JPG,AFSA21.JPG,AFNE25.JPG,,,,,,,,,0,8,8,2,,,,,,,,,,,,,,,AMSA13.jpg,AMSA16.jpg,AMNE10.jpg,AMNE19.jpg,AMNE19.jpg,MN,1,num_4,32,num_2,1.58373241359,,,2017_Nov_16_1058,60.0185381698,MAFE4ImagesEEG,001,102414,
AMSA25.JPG,AMNE24.JPG,AMSA24.JPG,AMNE26.JPG,AMSA21.JPG,AMNE25.JPG,,,,,,,,,0,9,9,3,,,,,,,,,,,,,,,AMSA16.jpg,AMNE09.jpg,AMSA08.jpg,AMNE15.jpg,AMSA08.jpg,MS,2,num_2,16,num_2,0.750101273414,,,2017_Nov_16_1058,60.0185381698,MAFE4ImagesEEG,001,102414,
AMSA21.JPG,AMNE23.JPG,AMNE21.JPG,AMSA25.JPG,AMNE25.JPG,AMSA23.JPG,,,,,,,,,,,,,0,0,0,5,,,,,,,,,,,AFSA05.jpg,AFNE17.jpg,AFSA14.jpg,AFNE10.jpg,AFNE17.jpg,FN,3,num_6,16,num_6,0.883488490712,,,2017_Nov_16_1058,60.0185381698,MAFE4ImagesEEG,001,102414,
AMNE23.JPG,AMNE24.JPG,AMNE22.JPG,AMSA24.JPG,AMSA22.JPG,AMSA23.JPG,,,,,,,,,,,,,0,1,1,9,,,,,,,,,,,AFSA12.jpg,AFSA04.jpg,AFNE05.jpg,AFNE17.jpg,AFSA12.jpg,FS,4,num_8,32,num_6,1.65004883241,,,2017_Nov_16_1058,60.0185381698,MAFE4ImagesEEG,001,102414,
AFSA21.JPG,AFNE22.JPG,AFNE21.JPG,AFSA23.JPG,AFSA22.JPG,AFNE23.JPG,,,,,,,,,,,,,0,2,2,0,,,,,,,,,,,AFSA01.jpg,AFNE07.jpg,AFNE18.jpg,AFSA06.jpg,AFSA01.jpg,FS,4,num_8,16,num_8,0.683469246607,,,2017_Nov_16_1058,60.0185381698,MAFE4ImagesEEG,001,102414,
AMNE22.JPG,AMSA24.JPG,AMSA22.JPG,AMNE25.JPG,AMNE24.JPG,AMSA25.JPG,,,,,,,,,,,,,0,3,3,7,,,,,,,,,,,AFNE03.jpg,AFSA08.jpg,AFSA03.jpg,AFNE06.jpg,AFSA08.jpg,FS,4,num_6,16,num_6,1.3834161642,,,2017_Nov_16_1058,60.0185381698,MAFE4ImagesEEG,001,102414,
AFSA25.JPG,AFNE24.JPG,AFSA24.JPG,AFNE21.JPG,AFSA21.JPG,AFNE25.JPG,,,,,,,,,,,,,0,4,4,2,,,,,,,,,,,AFNE10.jpg,AFSA19.jpg,AFSA08.jpg,AFNE17.jpg,AFNE10.jpg,FN,3,num_8,48,None,,,,2017_Nov_16_1058,60.0185381698,MAFE4ImagesEEG,001,102414,
AFNE23.JPG,AFNE24.JPG,AFNE22.JPG,AFSA24.JPG,AFSA22.JPG,AFSA23.JPG,,,,,,,,,,,,,0,5,5,8,,,,,,,,,,,AFSA19.jpg,AFSA06.jpg,AFNE02.jpg,AFNE14.jpg,AFNE02.jpg,FN,3,num_2,32,num_6,3.06630198564,,,2017_Nov_16_1058,60.0185381698,MAFE4ImagesEEG,001,102414,
AFNE22.JPG,AFSA24.JPG,AFSA22.JPG,AFNE25.JPG,AFNE24.JPG,AFSA25.JPG,,,,,,,,,,,,,0,6,6,6,,,,,,,,,,,AFNE03.jpg,AFSA15.jpg,AFSA01.jpg,AFNE10.jpg,AFNE03.jpg,FN,3,num_8,32,num_2,1.26680266019,,,2017_Nov_16_1058,60.0185381698,MAFE4ImagesEEG,001,102414,
AFSA21.JPG,AFNE23.JPG,AFNE21.JPG,AFSA25.JPG,AFNE25.JPG,AFSA23.JPG,,,,,,,,,,,,,0,7,7,4,,,,,,,,,,,AFNE16.jpg,AFSA15.jpg,AFNE14.jpg,AFSA07.jpg,AFNE14.jpg,FN,3,num_2,32,num_4,1.28342498466,,,2017_Nov_16_1058,60.0185381698,MAFE4ImagesEEG,001,102414,
AMSA25.JPG,AMNE24.JPG,AMSA24.JPG,AMNE26.JPG,AMSA21.JPG,AMNE25.JPG,,,,,,,,,,,,,0,8,8,3,,,,,,,,,,,AFSA01.jpg,AFNE07.jpg,AFSA04.jpg,AFNE13.jpg,AFNE07.jpg,FN,3,num_6,16,num_6,0.833542295266,,,2017_Nov_16_1058,60.0185381698,MAFE4ImagesEEG,001,102414,
AMSA21.JPG,AMNE22.JPG,AMNE21.JPG,AMSA23.JPG,AMSA22.JPG,AMNE23.JPG,,,,,,,,,,,,,0,9,9,1,,,,,,,,,,,AFNE06.jpg,AFSA15.jpg,AFNE19.jpg,AFSA08.jpg,AFSA08.jpg,FS,4,num_4,16,num_4,0.916748535354,,,2017_Nov_16_1058,60.0185381698,MAFE4ImagesEEG,001,102414,
AMNE23.JPG,AMNE24.JPG,AMNE22.JPG,AMSA24.JPG,AMSA22.JPG,AMSA23.JPG,,,,,,,,,,,,,,,,,0,0,0,9,,,,,,,AMNE20.jpg,AMSA11.jpg,AMSA18.jpg,AMNE18.jpg,AMNE18.jpg,MN,1,num_4,16,num_4,1.10011626827,,,2017_Nov_16_1058,60.0185381698,MAFE4ImagesEEG,001,102414,
AMNE22.JPG,AMSA24.JPG,AMSA22.JPG,AMNE25.JPG,AMNE24.JPG,AMSA25.JPG,,,,,,,,,,,,,,,,,0,1,1,7,,,,,,,AMNE09.jpg,AMSA15.jpg,AMSA10.jpg,AMNE06.jpg,AMSA10.jpg,MS,2,num_2,32,num_6,0.966768180486,,,2017_Nov_16_1058,60.0185381698,MAFE4ImagesEEG,001,102414,
AFSA25.JPG,AFNE24.JPG,AFSA24.JPG,AFNE21.JPG,AFSA21.JPG,AFNE25.JPG,,,,,,,,,,,,,,,,,0,2,2,2,,,,,,,AMSA15.jpg,AMSA18.jpg,AMNE14.jpg,AMNE10.jpg,AMNE14.jpg,MN,1,num_2,16,num_2,1.28346411511,,,2017_Nov_16_1058,60.0185381698,MAFE4ImagesEEG,001,102414,
AFSA21.JPG,AFNE23.JPG,AFNE21.JPG,AFSA25.JPG,AFNE25.JPG,AFSA23.JPG,,,,,,,,,,,,,,,,,0,3,3,4,,,,,,,AMSA09.jpg,AMNE04.jpg,AMNE02.jpg,AMSA10.jpg,AMSA10.jpg,MS,2,num_4,32,num_6,1.38339339197,,,2017_Nov_16_1058,60.0185381698,MAFE4ImagesEEG,001,102414,
AMSA25.JPG,AMNE24.JPG,AMSA24.JPG,AMNE26.JPG,AMSA21.JPG,AMNE25.JPG,,,,,,,,,,,,,,,,,0,4,4,3,,,,,,,AMNE02.jpg,AMNE07.jpg,AMSA18.jpg,AMSA05.jpg,AMSA05.jpg,MS,2,num_4,32,num_2,0.933499797247,,,2017_Nov_16_1058,60.0185381698,MAFE4ImagesEEG,001,102414,
AMSA21.JPG,AMNE22.JPG,AMNE21.JPG,AMSA23.JPG,AMSA22.JPG,AMNE23.JPG,,,,,,,,,,,,,,,,,0,5,5,1,,,,,,,AMSA07.jpg,AMNE07.jpg,AMSA10.jpg,AMNE10.jpg,AMNE07.jpg,MN,1,num_6,16,num_6,0.483530828264,,,2017_Nov_16_1058,60.0185381698,MAFE4ImagesEEG,001,102414,
AMSA21.JPG,AMNE23.JPG,AMNE21.JPG,AMSA25.JPG,AMNE25.JPG,AMSA23.JPG,,,,,,,,,,,,,,,,,0,6,6,5,,,,,,,AMNE12.jpg,AMSA12.jpg,AMNE04.jpg,AMSA06.jpg,AMNE04.jpg,MN,1,num_2,16,num_2,0.60014433274,,,2017_Nov_16_1058,60.0185381698,MAFE4ImagesEEG,001,102414,
AFNE23.JPG,AFNE24.JPG,AFNE22.JPG,AFSA24.JPG,AFSA22.JPG,AFSA23.JPG,,,,,,,,,,,,,,,,,0,7,7,8,,,,,,,AMNE10.jpg,AMSA10.jpg,AMSA01.jpg,AMNE09.jpg,AMNE10.jpg,MN,1,num_8,16,num_8,0.883432682604,,,2017_Nov_16_1058,60.0185381698,MAFE4ImagesEEG,001,102414,
AFSA21.JPG,AFNE22.JPG,AFNE21.JPG,AFSA23.JPG,AFSA22.JPG,AFNE23.JPG,,,,,,,,,,,,,,,,,0,8,8,0,,,,,,,AMNE13.jpg,AMSA06.jpg,AMNE14.jpg,AMSA10.jpg,AMSA06.jpg,MS,2,num_6,16,num_6,0.916798250284,,,2017_Nov_16_1058,60.0185381698,MAFE4ImagesEEG,001,102414,
AFNE22.JPG,AFSA24.JPG,AFSA22.JPG,AFNE25.JPG,AFNE24.JPG,AFSA25.JPG,,,,,,,,,,,,,,,,,0,9,9,6,,,,,,,AMNE16.jpg,AMSA12.jpg,AMSA02.jpg,AMNE14.jpg,AMSA02.jpg,MS,2,num_2,32,num_4,0.916777081322,,,2017_Nov_16_1058,60.0185381698,MAFE4ImagesEEG,001,102414,
AFNE23.JPG,AFNE24.JPG,AFNE22.JPG,AFSA24.JPG,AFSA22.JPG,AFSA23.JPG,,,,,,,,,,,,,,,,,,,,,0,0,0,8,,,AFSA11.jpg,AFNE07.jpg,AFNE11.jpg,AFSA15.jpg,AFSA15.jpg,FS,4,num_4,32,num_6,2.38337639254,,,2017_Nov_16_1058,60.0185381698,MAFE4ImagesEEG,001,102414,
AFSA21.JPG,AFNE23.JPG,AFNE21.JPG,AFSA25.JPG,AFNE25.JPG,AFSA23.JPG,,,,,,,,,,,,,,,,,,,,,0,1,1,4,,,AFSA03.jpg,AFSA08.jpg,AFNE20.jpg,AFNE07.jpg,AFNE20.jpg,FN,3,num_2,32,num_4,1.00010744762,,,2017_Nov_16_1058,60.0185381698,MAFE4ImagesEEG,001,102414,
AMNE22.JPG,AMSA24.JPG,AMSA22.JPG,AMNE25.JPG,AMNE24.JPG,AMSA25.JPG,,,,,,,,,,,,,,,,,,,,,0,2,2,7,,,AFNE10.jpg,AFSA01.jpg,AFSA17.jpg,AFNE08.jpg,AFSA17.jpg,FS,4,num_2,32,num_4,1.55005508708,,,2017_Nov_16_1058,60.0185381698,MAFE4ImagesEEG,001,102414,
AFSA25.JPG,AFNE24.JPG,AFSA24.JPG,AFNE21.JPG,AFSA21.JPG,AFNE25.JPG,,,,,,,,,,,,,,,,,,,,,0,3,3,2,,,AFSA19.jpg,AFSA15.jpg,AFNE07.jpg,AFNE04.jpg,AFNE07.jpg,FN,3,num_2,16,num_2,0.850153073203,,,2017_Nov_16_1058,60.0185381698,MAFE4ImagesEEG,001,102414,
AFNE22.JPG,AFSA24.JPG,AFSA22.JPG,AFNE25.JPG,AFNE24.JPG,AFSA25.JPG,,,,,,,,,,,,,,,,,,,,,0,4,4,6,,,AFNE04.jpg,AFSA09.jpg,AFNE18.jpg,AFSA17.jpg,AFNE18.jpg,FN,3,num_2,32,num_8,1.10012813518,,,2017_Nov_16_1058,60.0185381698,MAFE4ImagesEEG,001,102414,
AMNE23.JPG,AMNE24.JPG,AMNE22.JPG,AMSA24.JPG,AMSA22.JPG,AMSA23.JPG,,,,,,,,,,,,,,,,,,,,,0,5,5,9,,,AFSA14.jpg,AFSA11.jpg,AFNE03.jpg,AFNE17.jpg,AFNE17.jpg,FN,3,num_4,32,num_6,1.06671670172,,,2017_Nov_16_1058,60.0185381698,MAFE4ImagesEEG,001,102414,
AMSA21.JPG,AMNE22.JPG,AMNE21.JPG,AMSA23.JPG,AMSA22.JPG,AMNE23.JPG,,,,,,,,,,,,,,,,,,,,,0,6,6,1,,,AFSA12.jpg,AFNE13.jpg,AFNE16.jpg,AFSA01.jpg,AFSA01.jpg,FS,4,num_4,16,num_4,1.08344038017,,,2017_Nov_16_1058,60.0185381698,MAFE4ImagesEEG,001,102414,
AFSA21.JPG,AFNE22.JPG,AFNE21.JPG,AFSA23.JPG,AFSA22.JPG,AFNE23.JPG,,,,,,,,,,,,,,,,,,,,,0,7,7,0,,,AFNE09.jpg,AFSA19.jpg,AFSA16.jpg,AFNE15.jpg,AFNE15.jpg,FN,3,num_4,32,num_6,0.866736587603,,,2017_Nov_16_1058,60.0185381698,MAFE4ImagesEEG,001,102414,
AMSA21.JPG,AMNE23.JPG,AMNE21.JPG,AMSA25.JPG,AMNE25.JPG,AMSA23.JPG,,,,,,,,,,,,,,,,,,,,,0,8,8,5,,,AFSA13.jpg,AFNE07.jpg,AFSA02.jpg,AFNE09.jpg,AFSA02.jpg,FS,4,num_2,32,num_8,0.850273991469,,,2017_Nov_16_1058,60.0185381698,MAFE4ImagesEEG,001,102414,
AMSA25.JPG,AMNE24.JPG,AMSA24.JPG,AMNE26.JPG,AMSA21.JPG,AMNE25.JPG,,,,,,,,,,,,,,,,,,,,,0,9,9,3,,,AFSA05.jpg,AFNE18.jpg,AFSA13.jpg,AFNE20.jpg,AFNE18.jpg,FN,3,num_6,32,num_4,1.21676152525,,,2017_Nov_16_1058,60.0185381698,MAFE4ImagesEEG,001,102414,
,,,,,,,,,,,,,,,,,,,,,,,,,,,,,,,,,,,,,,,,,,,space,18.7656879304,2017_Nov_16_1058,60.0185381698,MAFE4ImagesEEG,001,102414,
AFNE01.JPG,AFNE01.JPG,AFNE01.JPG,AFNE01.JPG,AFNE01.JPG,AFNE01.JPG,0,0,0,9,,,,,,,,,,,,,,,,,,,,,,,AMNE10.jpg,AMSA11.jpg,AMSA20.jpg,AMNE04.jpg,AMNE04.jpg,MN,1,num_4,32,num_6,0.800130540971,,,2017_Nov_16_1058,60.0185381698,MAFE4ImagesEEG,001,102414,
AFNE01.JPG,AFNE01.JPG,AFNE01.JPG,AFNE01.JPG,AFNE01.JPG,AFNE01.JPG,0,1,1,1,,,,,,,,,,,,,,,,,,,,,,,AMNE01.jpg,AMNE13.jpg,AMSA06.jpg,AMSA08.jpg,AMNE13.jpg,MN,1,num_6,16,num_6,1.10011145705,,,2017_Nov_16_1058,60.0185381698,MAFE4ImagesEEG,001,102414,
AFNE01.JPG,AFNE01.JPG,AFNE01.JPG,AFNE01.JPG,AFNE01.JPG,AFNE01.JPG,0,2,2,4,,,,,,,,,,,,,,,,,,,,,,,AMSA09.jpg,AMNE20.jpg,AMSA14.jpg,AMNE05.jpg,AMSA09.jpg,MS,2,num_8,32,num_2,0.700013310649,,,2017_Nov_16_1058,60.0185381698,MAFE4ImagesEEG,001,102414,
AFNE01.JPG,AFNE01.JPG,AFNE01.JPG,AFNE01.JPG,AFNE01.JPG,AFNE01.JPG,0,3,3,6,,,,,,,,,,,,,,,,,,,,,,,AMNE08.jpg,AMNE03.jpg,AMSA18.jpg,AMSA15.jpg,AMNE03.jpg,MN,1,num_6,32,num_8,1.50010985322,,,2017_Nov_16_1058,60.0185381698,MAFE4ImagesEEG,001,102414,
AFNE01.JPG,AFNE01.JPG,AFNE01.JPG,AFNE01.JPG,AFNE01.JPG,AFNE01.JPG,0,4,4,8,,,,,,,,,,,,,,,,,,,,,,,AMSA14.jpg,AMSA06.jpg,AMNE03.jpg,AMNE19.jpg,AMNE19.jpg,MN,1,num_4,16,num_4,1.3000797038,,,2017_Nov_16_1058,60.0185381698,MAFE4ImagesEEG,001,102414,
AFNE01.JPG,AFNE01.JPG,AFNE01.JPG,AFNE01.JPG,AFNE01.JPG,AFNE01.JPG,0,5,5,5,,,,,,,,,,,,,,,,,,,,,,,AMNE13.jpg,AMNE01.jpg,AMSA06.jpg,AMSA10.jpg,AMNE13.jpg,MN,1,num_8,32,num_6,0.900170472916,,,2017_Nov_16_1058,60.0185381698,MAFE4ImagesEEG,001,102414,
AFNE01.JPG,AFNE01.JPG,AFNE01.JPG,AFNE01.JPG,AFNE01.JPG,AFNE01.JPG,0,6,6,3,,,,,,,,,,,,,,,,,,,,,,,AMNE05.jpg,AMSA08.jpg,AMSA06.jpg,AMNE20.jpg,AMSA06.jpg,MS,2,num_2,32,num_6,0.8834637939,,,2017_Nov_16_1058,60.0185381698,MAFE4ImagesEEG,001,102414,
AFNE01.JPG,AFNE01.JPG,AFNE01.JPG,AFNE01.JPG,AFNE01.JPG,AFNE01.JPG,0,7,7,0,,,,,,,,,,,,,,,,,,,,,,,AMSA11.jpg,AMSA03.jpg,AMNE06.jpg,AMNE14.jpg,AMNE14.jpg,MN,1,num_4,16,num_4,0.716803381685,,,2017_Nov_16_1058,60.0185381698,MAFE4ImagesEEG,001,102414,
AFNE01.JPG,AFNE01.JPG,AFNE01.JPG,AFNE01.JPG,AFNE01.JPG,AFNE01.JPG,0,8,8,7,,,,,,,,,,,,,,,,,,,,,,,AMSA17.jpg,AMNE19.jpg,AMSA13.jpg,AMNE02.jpg,AMNE02.jpg,MN,1,num_4,32,num_6,0.900127814617,,,2017_Nov_16_1058,60.0185381698,MAFE4ImagesEEG,001,102414,
AFNE01.JPG,AFNE01.JPG,AFNE01.JPG,AFNE01.JPG,AFNE01.JPG,AFNE01.JPG,0,9,9,2,,,,,,,,,,,,,,,,,,,,,,,AMSA02.jpg,AMSA15.jpg,AMNE08.jpg,AMNE13.jpg,AMNE13.jpg,MN,1,num_4,16,num_4,0.933466119226,,,2017_Nov_16_1058,60.0185381698,MAFE4ImagesEEG,001,102414,
AFNE01.JPG,AFNE01.JPG,AFNE01.JPG,AFNE01.JPG,AFNE01.JPG,AFNE01.JPG,1,0,10,7,,,,,,,,,,,,,,,,,,,,,,,AMNE18.jpg,AMSA01.jpg,AMSA13.jpg,AMNE01.jpg,AMNE18.jpg,MN,1,num_8,16,num_8,0.933445591945,,,2017_Nov_16_1058,60.0185381698,MAFE4ImagesEEG,001,102414,
AFNE01.JPG,AFNE01.JPG,AFNE01.JPG,AFNE01.JPG,AFNE01.JPG,AFNE01.JPG,1,1,11,9,,,,,,,,,,,,,,,,,,,,,,,AMSA18.jpg,AMNE03.jpg,AMSA04.jpg,AMNE06.jpg,AMNE03.jpg,MN,1,num_6,32,num_4,1.3667088435,,,2017_Nov_16_1058,60.0185381698,MAFE4ImagesEEG,001,102414,
AFNE01.JPG,AFNE01.JPG,AFNE01.JPG,AFNE01.JPG,AFNE01.JPG,AFNE01.JPG,1,2,12,4,,,,,,,,,,,,,,,,,,,,,,,AMNE14.jpg,AMSA18.jpg,AMSA14.jpg,AMNE19.jpg,AMSA14.jpg,MS,2,num_2,16,num_2,1.06684628082,,,2017_Nov_16_1058,60.0185381698,MAFE4ImagesEEG,001,102414,
AFNE01.JPG,AFNE01.JPG,AFNE01.JPG,AFNE01.JPG,AFNE01.JPG,AFNE01.JPG,1,3,13,1,,,,,,,,,,,,,,,,,,,,,,,AMSA09.jpg,AMNE08.jpg,AMSA10.jpg,AMNE13.jpg,AMNE08.jpg,MN,1,num_6,32,num_8,0.800098787993,,,2017_Nov_16_1058,60.0185381698,MAFE4ImagesEEG,001,102414,
AFNE01.JPG,AFNE01.JPG,AFNE01.JPG,AFNE01.JPG,AFNE01.JPG,AFNE01.JPG,1,4,14,5,,,,,,,,,,,,,,,,,,,,,,,AMNE16.jpg,AMSA02.jpg,AMNE06.jpg,AMSA20.jpg,AMNE06.jpg,MN,1,num_2,32,num_6,1.50010953285,,,2017_Nov_16_1058,60.0185381698,MAFE4ImagesEEG,001,102414,
AFNE01.JPG,AFNE01.JPG,AFNE01.JPG,AFNE01.JPG,AFNE01.JPG,AFNE01.JPG,1,5,15,0,,,,,,,,,,,,,,,,,,,,,,,AMNE10.jpg,AMSA07.jpg,AMNE11.jpg,AMSA01.jpg,AMNE10.jpg,MN,1,num_8,16,num_8,0.633529465646,,,2017_Nov_16_1058,60.0185381698,MAFE4ImagesEEG,001,102414,
AFNE01.JPG,AFNE01.JPG,AFNE01.JPG,AFNE01.JPG,AFNE01.JPG,AFNE01.JPG,1,6,16,3,,,,,,,,,,,,,,,,,,,,,,,AMNE11.jpg,AMSA07.jpg,AMSA17.jpg,AMNE06.jpg,AMNE06.jpg,MN,1,num_4,16,num_4,1.00010873051,,,2017_Nov_16_1058,60.0185381698,MAFE4ImagesEEG,001,102414,
AFNE01.JPG,AFNE01.JPG,AFNE01.JPG,AFNE01.JPG,AFNE01.JPG,AFNE01.JPG,1,7,17,2,,,,,,,,,,,,,,,,,,,,,,,AMNE14.jpg,AMSA02.jpg,AMNE12.jpg,AMSA17.jpg,AMNE14.jpg,MN,1,num_8,32,num_2,0.800221309997,,,2017_Nov_16_1058,60.0185381698,MAFE4ImagesEEG,001,102414,
AFNE01.JPG,AFNE01.JPG,AFNE01.JPG,AFNE01.JPG,AFNE01.JPG,AFNE01.JPG,1,8,18,6,,,,,,,,,,,,,,,,,,,,,,,AMSA07.jpg,AMNE13.jpg,AMNE06.jpg,AMSA19.jpg,AMSA19.jpg,MS,2,num_4,16,num_4,0.866768341511,,,2017_Nov_16_1058,60.0185381698,MAFE4ImagesEEG,001,102414,
AFNE01.JPG,AFNE01.JPG,AFNE01.JPG,AFNE01.JPG,AFNE01.JPG,AFNE01.JPG,1,9,19,8,,,,,,,,,,,,,,,,,,,,,,,AMSA15.jpg,AMSA04.jpg,AMNE05.jpg,AMNE03.jpg,AMNE05.jpg,MN,1,num_2,32,num_6,0.583706433885,,,2017_Nov_16_1058,60.0185381698,MAFE4ImagesEEG,001,102414,
AFNE01.JPG,AFNE01.JPG,AFNE01.JPG,AFNE01.JPG,AFNE01.JPG,AFNE01.JPG,2,0,20,0,,,,,,,,,,,,,,,,,,,,,,,AMSA10.jpg,AMSA14.jpg,AMNE05.jpg,AMNE06.jpg,AMNE06.jpg,MN,1,num_4,16,num_4,1.11678926926,,,2017_Nov_16_1058,60.0185381698,MAFE4ImagesEEG,001,102414,
AFNE01.JPG,AFNE01.JPG,AFNE01.JPG,AFNE01.JPG,AFNE01.JPG,AFNE01.JPG,2,1,21,4,,,,,,,,,,,,,,,,,,,,,,,AMNE16.jpg,AMSA15.jpg,AMSA18.jpg,AMNE10.jpg,AMNE16.jpg,MN,1,num_8,32,num_2,0.833304626867,,,2017_Nov_16_1058,60.0185381698,MAFE4ImagesEEG,001,102414,
AFNE01.JPG,AFNE01.JPG,AFNE01.JPG,AFNE01.JPG,AFNE01.JPG,AFNE01.JPG,2,2,22,6,,,,,,,,,,,,,,,,,,,,,,,AMSA10.jpg,AMSA07.jpg,AMNE07.jpg,AMNE02.jpg,AMSA07.jpg,MS,2,num_6,16,num_6,0.600185066462,,,2017_Nov_16_1058,60.0185381698,MAFE4ImagesEEG,001,102414,
AFNE01.JPG,AFNE01.JPG,AFNE01.JPG,AFNE01.JPG,AFNE01.JPG,AFNE01.JPG,2,3,23,9,,,,,,,,,,,,,,,,,,,,,,,AMSA08.jpg,AMSA03.jpg,AMNE15.jpg,AMNE09.jpg,AMNE09.jpg,MN,1,num_4,32,num_2,0.600162615068,,,2017_Nov_16_1058,60.0185381698,MAFE4ImagesEEG,001,102414,
AFNE01.JPG,AFNE01.JPG,AFNE01.JPG,AFNE01.JPG,AFNE01.JPG,AFNE01.JPG,2,4,24,5,,,,,,,,,,,,,,,,,,,,,,,AMSA17.jpg,AMSA07.jpg,AMNE01.jpg,AMNE17.jpg,AMNE17.jpg,MN,1,num_4,32,num_6,0.866764492355,,,2017_Nov_16_1058,60.0185381698,MAFE4ImagesEEG,001,102414,
AFNE01.JPG,AFNE01.JPG,AFNE01.JPG,AFNE01.JPG,AFNE01.JPG,AFNE01.JPG,2,5,25,2,,,,,,,,,,,,,,,,,,,,,,,AMNE05.jpg,AMNE15.jpg,AMSA06.jpg,AMSA07.jpg,AMSA06.jpg,MS,2,num_2,16,num_2,0.783829918131,,,2017_Nov_16_1058,60.0185381698,MAFE4ImagesEEG,001,102414,
AFNE01.JPG,AFNE01.JPG,AFNE01.JPG,AFNE01.JPG,AFNE01.JPG,AFNE01.JPG,2,6,26,3,,,,,,,,,,,,,,,,,,,,,,,AMSA12.jpg,AMNE14.jpg,AMNE09.jpg,AMSA16.jpg,AMNE14.jpg,MN,1,num_6,32,num_8,1.9330966277,,,2017_Nov_16_1058,60.0185381698,MAFE4ImagesEEG,001,102414,
AFNE01.JPG,AFNE01.JPG,AFNE01.JPG,AFNE01.JPG,AFNE01.JPG,AFNE01.JPG,2,7,27,1,,,,,,,,,,,,,,,,,,,,,,,AMNE18.jpg,AMSA19.jpg,AMSA13.jpg,AMNE06.jpg,AMSA13.jpg,MS,2,num_2,16,num_2,0.683420173358,,,2017_Nov_16_1058,60.0185381698,MAFE4ImagesEEG,001,102414,
AFNE01.JPG,AFNE01.JPG,AFNE01.JPG,AFNE01.JPG,AFNE01.JPG,AFNE01.JPG,2,8,28,7,,,,,,,,,,,,,,,,,,,,,,,AMSA15.jpg,AMSA13.jpg,AMNE06.jpg,AMNE16.jpg,AMSA13.jpg,MS,2,num_6,16,num_6,1.01698892983,,,2017_Nov_16_1058,60.0185381698,MAFE4ImagesEEG,001,102414,
AFNE01.JPG,AFNE01.JPG,AFNE01.JPG,AFNE01.JPG,AFNE01.JPG,AFNE01.JPG,2,9,29,8,,,,,,,,,,,,,,,,,,,,,,,AMSA09.jpg,AMNE20.jpg,AMNE09.jpg,AMSA06.jpg,AMSA09.jpg,MS,2,num_8,32,num_4,1.00008467492,,,2017_Nov_16_1058,60.0185381698,MAFE4ImagesEEG,001,102414,
AFNE01.JPG,AFNE01.JPG,AFNE01.JPG,AFNE01.JPG,AFNE01.JPG,AFNE01.JPG,3,0,30,0,,,,,,,,,,,,,,,,,,,,,,,AMSA18.jpg,AMNE08.jpg,AMSA08.jpg,AMNE11.jpg,AMSA08.jpg,MS,2,num_2,16,num_2,0.983542215079,,,2017_Nov_16_1058,60.0185381698,MAFE4ImagesEEG,001,102414,
AFNE01.JPG,AFNE01.JPG,AFNE01.JPG,AFNE01.JPG,AFNE01.JPG,AFNE01.JPG,3,1,31,4,,,,,,,,,,,,,,,,,,,,,,,AMNE18.jpg,AMSA12.jpg,AMSA15.jpg,AMNE05.jpg,AMNE05.jpg,MN,1,num_4,16,num_4,1.36675118143,,,2017_Nov_16_1058,60.0185381698,MAFE4ImagesEEG,001,102414,
AFNE01.JPG,AFNE01.JPG,AFNE01.JPG,AFNE01.JPG,AFNE01.JPG,AFNE01.JPG,3,2,32,2,,,,,,,,,,,,,,,,,,,,,,,AMNE04.jpg,AMSA05.jpg,AMNE17.jpg,AMSA13.jpg,AMNE17.jpg,MN,1,num_2,16,num_2,0.900161492638,,,2017_Nov_16_1058,60.0185381698,MAFE4ImagesEEG,001,102414,
AFNE01.JPG,AFNE01.JPG,AFNE01.JPG,AFNE01.JPG,AFNE01.JPG,AFNE01.JPG,3,3,33,7,,,,,,,,,,,,,,,,,,,,,,,AMSA14.jpg,AMNE17.jpg,AMSA17.jpg,AMNE04.jpg,AMSA14.jpg,MS,2,num_8,16,num_8,1.78340429673,,,2017_Nov_16_1058,60.0185381698,MAFE4ImagesEEG,001,102414,
AFNE01.JPG,AFNE01.JPG,AFNE01.JPG,AFNE01.JPG,AFNE01.JPG,AFNE01.JPG,3,4,34,8,,,,,,,,,,,,,,,,,,,,,,,AMSA14.jpg,AMNE06.jpg,AMSA05.jpg,AMNE04.jpg,AMNE04.jpg,MN,1,num_4,16,num_4,0.783541573212,,,2017_Nov_16_1058,60.0185381698,MAFE4ImagesEEG,001,102414,
AFNE01.JPG,AFNE01.JPG,AFNE01.JPG,AFNE01.JPG,AFNE01.JPG,AFNE01.JPG,3,5,35,1,,,,,,,,,,,,,,,,,,,,,,,AMSA07.jpg,AMNE12.jpg,AMSA20.jpg,AMNE04.jpg,AMNE04.jpg,MN,1,num_4,16,num_4,0.600161973387,,,2017_Nov_16_1058,60.0185381698,MAFE4ImagesEEG,001,102414,
AFNE01.JPG,AFNE01.JPG,AFNE01.JPG,AFNE01.JPG,AFNE01.JPG,AFNE01.JPG,3,6,36,3,,,,,,,,,,,,,,,,,,,,,,,AMSA18.jpg,AMNE19.jpg,AMNE03.jpg,AMSA20.jpg,AMNE19.jpg,MN,1,num_6,16,num_6,0.883447115775,,,2017_Nov_16_1058,60.0185381698,MAFE4ImagesEEG,001,102414,
AFNE01.JPG,AFNE01.JPG,AFNE01.JPG,AFNE01.JPG,AFNE01.JPG,AFNE01.JPG,3,7,37,5,,,,,,,,,,,,,,,,,,,,,,,AMSA05.jpg,AMNE16.jpg,AMNE04.jpg,AMSA11.jpg,AMNE04.jpg,MN,1,num_2,16,num_2,1.28311835788,,,2017_Nov_16_1058,60.0185381698,MAFE4ImagesEEG,001,102414,
AFNE01.JPG,AFNE01.JPG,AFNE01.JPG,AFNE01.JPG,AFNE01.JPG,AFNE01.JPG,3,8,38,6,,,,,,,,,,,,,,,,,,,,,,,AMSA08.jpg,AMNE02.jpg,AMNE15.jpg,AMSA20.jpg,AMSA20.jpg,MS,2,num_4,32,num_8,0.76676465245,,,2017_Nov_16_1058,60.0185381698,MAFE4ImagesEEG,001,102414,
AFNE01.JPG,AFNE01.JPG,AFNE01.JPG,AFNE01.JPG,AFNE01.JPG,AFNE01.JPG,3,9,39,9,,,,,,,,,,,,,,,,,,,,,,,AMNE13.jpg,AMSA10.jpg,AMSA04.jpg,AMNE01.jpg,AMSA04.jpg,MS,2,num_2,32,num_4,1.000126692,,,2017_Nov_16_1058,60.0185381698,MAFE4ImagesEEG,001,102414,
AFNE01.JPG,AFNE01.JPG,AFNE01.JPG,AFNE01.JPG,AFNE01.JPG,AFNE01.JPG,4,0,40,6,,,,,,,,,,,,,,,,,,,,,,,AMSA16.jpg,AMSA07.jpg,AMNE12.jpg,AMNE09.jpg,AMNE09.jpg,MN,1,num_4,32,num_6,0.76678133104,,,2017_Nov_16_1058,60.0185381698,MAFE4ImagesEEG,001,102414,
AFNE01.JPG,AFNE01.JPG,AFNE01.JPG,AFNE01.JPG,AFNE01.JPG,AFNE01.JPG,4,1,41,0,,,,,,,,,,,,,,,,,,,,,,,AMNE06.jpg,AMNE15.jpg,AMSA20.jpg,AMSA15.jpg,AMNE15.jpg,MN,1,num_6,16,num_6,0.783502443228,,,2017_Nov_16_1058,60.0185381698,MAFE4ImagesEEG,001,102414,
AFNE01.JPG,AFNE01.JPG,AFNE01.JPG,AFNE01.JPG,AFNE01.JPG,AFNE01.JPG,4,2,42,8,,,,,,,,,,,,,,,,,,,,,,,AMNE05.jpg,AMSA20.jpg,AMSA10.jpg,AMNE09.jpg,AMNE09.jpg,MN,1,num_4,32,num_8,1.4167098864,,,2017_Nov_16_1058,60.0185381698,MAFE4ImagesEEG,001,102414,
AFNE01.JPG,AFNE01.JPG,AFNE01.JPG,AFNE01.JPG,AFNE01.JPG,AFNE01.JPG,4,3,43,3,,,,,,,,,,,,,,,,,,,,,,,AMNE03.jpg,AMNE07.jpg,AMSA11.jpg,AMSA20.jpg,AMNE07.jpg,MN,1,num_6,32,num_8,1.18340814579,,,2017_Nov_16_1058,60.0185381698,MAFE4ImagesEEG,001,102414,
AFNE01.JPG,AFNE01.JPG,AFNE01.JPG,AFNE01.JPG,AFNE01.JPG,AFNE01.JPG,4,4,44,1,,,,,,,,,,,,,,,,,,,,,,,AMSA20.jpg,AMNE10.jpg,AMNE13.jpg,AMSA16.jpg,AMSA20.jpg,MS,2,num_8,32,num_2,0.583470048849,,,2017_Nov_16_1058,60.0185381698,MAFE4ImagesEEG,001,102414,
AFNE01.JPG,AFNE01.JPG,AFNE01.JPG,AFNE01.JPG,AFNE01.JPG,AFNE01.JPG,4,5,45,7,,,,,,,,,,,,,,,,,,,,,,,AMSA10.jpg,AMSA01.jpg,AMNE07.jpg,AMNE16.jpg,AMNE16.jpg,MN,1,num_4,16,num_4,0.950101915281,,,2017_Nov_16_1058,60.0185381698,MAFE4ImagesEEG,001,102414,
AFNE01.JPG,AFNE01.JPG,AFNE01.JPG,AFNE01.JPG,AFNE01.JPG,AFNE01.JPG,4,6,46,4,,,,,,,,,,,,,,,,,,,,,,,AMSA10.jpg,AMNE07.jpg,AMSA03.jpg,AMNE16.jpg,AMSA10.jpg,MS,2,num_8,32,num_6,0.700161813293,,,2017_Nov_16_1058,60.0185381698,MAFE4ImagesEEG,001,102414,
AFNE01.JPG,AFNE01.JPG,AFNE01.JPG,AFNE01.JPG,AFNE01.JPG,AFNE01.JPG,4,7,47,9,,,,,,,,,,,,,,,,,,,,,,,AMSA06.jpg,AMSA02.jpg,AMNE13.jpg,AMNE04.jpg,AMNE04.jpg,MN,1,num_4,16,num_4,1.8833611575,,,2017_Nov_16_1058,60.0185381698,MAFE4ImagesEEG,001,102414,
AFNE01.JPG,AFNE01.JPG,AFNE01.JPG,AFNE01.JPG,AFNE01.JPG,AFNE01.JPG,4,8,48,5,,,,,,,,,,,,,,,,,,,,,,,AMSA12.jpg,AMNE09.jpg,AMSA20.jpg,AMNE01.jpg,AMSA12.jpg,MS,2,num_8,32,num_6,0.799804669805,,,2017_Nov_16_1058,60.0185381698,MAFE4ImagesEEG,001,102414,
AFNE01.JPG,AFNE01.JPG,AFNE01.JPG,AFNE01.JPG,AFNE01.JPG,AFNE01.JPG,4,9,49,2,,,,,,,,,,,,,,,,,,,,,,,AMNE15.jpg,AMNE18.jpg,AMSA14.jpg,AMSA09.jpg,AMSA09.jpg,MS,2,num_4,32,num_6,0.750158364885,,,2017_Nov_16_1058,60.0185381698,MAFE4ImagesEEG,001,102414,
AFNE01.JPG,AFNE01.JPG,AFNE01.JPG,AFNE01.JPG,AFNE01.JPG,AFNE01.JPG,5,0,50,6,,,,,,,,,,,,,,,,,,,,,,,AMSA09.jpg,AMNE02.jpg,AMNE01.jpg,AMSA13.jpg,AMNE02.jpg,MN,1,num_6,32,num_4,0.800138880033,,,2017_Nov_16_1058,60.0185381698,MAFE4ImagesEEG,001,102414,
AFNE01.JPG,AFNE01.JPG,AFNE01.JPG,AFNE01.JPG,AFNE01.JPG,AFNE01.JPG,5,1,51,2,,,,,,,,,,,,,,,,,,,,,,,AMNE12.jpg,AMSA08.jpg,AMSA15.jpg,AMNE09.jpg,AMSA08.jpg,MS,2,num_6,16,num_6,2.0000285455,,,2017_Nov_16_1058,60.0185381698,MAFE4ImagesEEG,001,102414,
AFNE01.JPG,AFNE01.JPG,AFNE01.JPG,AFNE01.JPG,AFNE01.JPG,AFNE01.JPG,5,2,52,7,,,,,,,,,,,,,,,,,,,,,,,AMSA18.jpg,AMNE18.jpg,AMSA10.jpg,AMNE11.jpg,AMSA18.jpg,MS,2,num_8,32,num_2,0.683505811263,,,2017_Nov_16_1058,60.0185381698,MAFE4ImagesEEG,001,102414,
AFNE01.JPG,AFNE01.JPG,AFNE01.JPG,AFNE01.JPG,AFNE01.JPG,AFNE01.JPG,5,3,53,0,,,,,,,,,,,,,,,,,,,,,,,AMSA19.jpg,AMSA17.jpg,AMNE11.jpg,AMNE06.jpg,AMNE11.jpg,MN,1,num_2,32,num_4,0.966795443557,,,2017_Nov_16_1058,60.0185381698,MAFE4ImagesEEG,001,102414,
AFNE01.JPG,AFNE01.JPG,AFNE01.JPG,AFNE01.JPG,AFNE01.JPG,AFNE01.JPG,5,4,54,1,,,,,,,,,,,,,,,,,,,,,,,AMNE13.jpg,AMNE11.jpg,AMSA17.jpg,AMSA12.jpg,AMSA17.jpg,MS,2,num_2,32,num_6,0.600110334344,,,2017_Nov_16_1058,60.0185381698,MAFE4ImagesEEG,001,102414,
AFNE01.JPG,AFNE01.JPG,AFNE01.JPG,AFNE01.JPG,AFNE01.JPG,AFNE01.JPG,5,5,55,4,,,,,,,,,,,,,,,,,,,,,,,AMNE01.jpg,AMSA06.jpg,AMNE15.jpg,AMSA11.jpg,AMNE01.jpg,MN,1,num_8,32,num_2,0.900114343502,,,2017_Nov_16_1058,60.0185381698,MAFE4ImagesEEG,001,102414,
AFNE01.JPG,AFNE01.JPG,AFNE01.JPG,AFNE01.JPG,AFNE01.JPG,AFNE01.JPG,5,6,56,5,,,,,,,,,,,,,,,,,,,,,,,AMNE17.jpg,AMSA05.jpg,AMNE05.jpg,AMSA12.jpg,AMNE05.jpg,MN,1,num_2,16,num_2,0.650131904054,,,2017_Nov_16_1058,60.0185381698,MAFE4ImagesEEG,001,102414,
AFNE01.JPG,AFNE01.JPG,AFNE01.JPG,AFNE01.JPG,AFNE01.JPG,AFNE01.JPG,5,7,57,8,,,,,,,,,,,,,,,,,,,,,,,AMSA16.jpg,AMSA14.jpg,AMNE01.jpg,AMNE05.jpg,AMNE05.jpg,MN,1,num_4,16,num_4,1.53345328989,,,2017_Nov_16_1058,60.0185381698,MAFE4ImagesEEG,001,102414,
AFNE01.JPG,AFNE01.JPG,AFNE01.JPG,AFNE01.JPG,AFNE01.JPG,AFNE01.JPG,5,8,58,9,,,,,,,,,,,,,,,,,,,,,,,AMSA14.jpg,AMNE13.jpg,AMNE09.jpg,AMSA07.jpg,AMSA07.jpg,MS,2,num_4,16,num_4,0.716814928222,,,2017_Nov_16_1058,60.0185381698,MAFE4ImagesEEG,001,102414,
AFNE01.JPG,AFNE01.JPG,AFNE01.JPG,AFNE01.JPG,AFNE01.JPG,AFNE01.JPG,5,9,59,3,,,,,,,,,,,,,,,,,,,,,,,AMSA13.jpg,AMNE15.jpg,AMNE11.jpg,AMSA10.jpg,AMNE15.jpg,MN,1,num_6,16,num_6,0.900154756848,,,2017_Nov_16_1058,60.0185381698,MAFE4ImagesEEG,001,102414,
,,,,,,,,,,,,,,,,,,,,,,,,,,,,,,,,,,,,,,,,,,,space,32.9975546822,2017_Nov_16_1058,60.0185381698,MAFE4ImagesEEG,001,102414,
AFNE01.JPG,AFNE01.JPG,AFNE01.JPG,AFNE01.JPG,AFNE01.JPG,AFNE01.JPG,,,,,0,0,0,6,,,,,,,,,,,,,,,,,,,AFNE09.jpg,AFSA19.jpg,AFSA15.jpg,AFNE11.jpg,AFSA19.jpg,FS,4,num_6,16,num_6,2.88330887677,,,2017_Nov_16_1058,60.0185381698,MAFE4ImagesEEG,001,102414,
AFNE01.JPG,AFNE01.JPG,AFNE01.JPG,AFNE01.JPG,AFNE01.JPG,AFNE01.JPG,,,,,0,1,1,9,,,,,,,,,,,,,,,,,,,AFSA01.jpg,AFSA04.jpg,AFNE15.jpg,AFNE04.jpg,AFNE04.jpg,FN,3,num_4,32,num_2,0.83350220276,,,2017_Nov_16_1058,60.0185381698,MAFE4ImagesEEG,001,102414,
AFNE01.JPG,AFNE01.JPG,AFNE01.JPG,AFNE01.JPG,AFNE01.JPG,AFNE01.JPG,,,,,0,2,2,2,,,,,,,,,,,,,,,,,,,AFSA18.jpg,AFNE17.jpg,AFSA05.jpg,AFNE11.jpg,AFSA18.jpg,FS,4,num_8,32,num_4,0.816895915195,,,2017_Nov_16_1058,60.0185381698,MAFE4ImagesEEG,001,102414,
AFNE01.JPG,AFNE01.JPG,AFNE01.JPG,AFNE01.JPG,AFNE01.JPG,AFNE01.JPG,,,,,0,3,3,0,,,,,,,,,,,,,,,,,,,AFSA16.jpg,AFNE14.jpg,AFNE06.jpg,AFSA02.jpg,AFNE14.jpg,FN,3,num_6,16,num_6,0.766822706442,,,2017_Nov_16_1058,60.0185381698,MAFE4ImagesEEG,001,102414,
AFNE01.JPG,AFNE01.JPG,AFNE01.JPG,AFNE01.JPG,AFNE01.JPG,AFNE01.JPG,,,,,0,4,4,7,,,,,,,,,,,,,,,,,,,AFSA15.jpg,AFNE08.jpg,AFNE19.jpg,AFSA16.jpg,AFNE19.jpg,FN,3,num_2,16,num_2,0.716732177418,,,2017_Nov_16_1058,60.0185381698,MAFE4ImagesEEG,001,102414,
AFNE01.JPG,AFNE01.JPG,AFNE01.JPG,AFNE01.JPG,AFNE01.JPG,AFNE01.JPG,,,,,0,5,5,4,,,,,,,,,,,,,,,,,,,AFNE16.jpg,AFSA03.jpg,AFSA16.jpg,AFNE14.jpg,AFNE16.jpg,FN,3,num_8,32,num_2,0.750130139757,,,2017_Nov_16_1058,60.0185381698,MAFE4ImagesEEG,001,102414,
AFNE01.JPG,AFNE01.JPG,AFNE01.JPG,AFNE01.JPG,AFNE01.JPG,AFNE01.JPG,,,,,0,6,6,3,,,,,,,,,,,,,,,,,,,AFNE06.jpg,AFSA04.jpg,AFSA02.jpg,AFNE08.jpg,AFSA04.jpg,FS,4,num_6,32,num_4,1.01674196031,,,2017_Nov_16_1058,60.0185381698,MAFE4ImagesEEG,001,102414,
AFNE01.JPG,AFNE01.JPG,AFNE01.JPG,AFNE01.JPG,AFNE01.JPG,AFNE01.JPG,,,,,0,7,7,1,,,,,,,,,,,,,,,,,,,AFNE17.jpg,AFSA20.jpg,AFNE02.jpg,AFSA11.jpg,AFSA11.jpg,FS,4,num_4,16,num_4,0.783476142213,,,2017_Nov_16_1058,60.0185381698,MAFE4ImagesEEG,001,102414,
AFNE01.JPG,AFNE01.JPG,AFNE01.JPG,AFNE01.JPG,AFNE01.JPG,AFNE01.JPG,,,,,0,8,8,5,,,,,,,,,,,,,,,,,,,AFNE07.jpg,AFSA16.jpg,AFNE15.jpg,AFSA03.jpg,AFSA16.jpg,FS,4,num_6,16,num_6,0.45019893907,,,2017_Nov_16_1058,60.0185381698,MAFE4ImagesEEG,001,102414,
AFNE01.JPG,AFNE01.JPG,AFNE01.JPG,AFNE01.JPG,AFNE01.JPG,AFNE01.JPG,,,,,0,9,9,8,,,,,,,,,,,,,,,,,,,AFNE02.jpg,AFNE08.jpg,AFSA08.jpg,AFSA15.jpg,AFSA15.jpg,FS,4,num_4,32,num_8,0.41681059869,,,2017_Nov_16_1058,60.0185381698,MAFE4ImagesEEG,001,102414,
AFNE01.JPG,AFNE01.JPG,AFNE01.JPG,AFNE01.JPG,AFNE01.JPG,AFNE01.JPG,,,,,1,0,10,4,,,,,,,,,,,,,,,,,,,AFSA18.jpg,AFSA19.jpg,AFNE05.jpg,AFNE15.jpg,AFSA18.jpg,FS,4,num_8,32,num_6,0.73341961205,,,2017_Nov_16_1058,60.0185381698,MAFE4ImagesEEG,001,102414,
AFNE01.JPG,AFNE01.JPG,AFNE01.JPG,AFNE01.JPG,AFNE01.JPG,AFNE01.JPG,,,,,1,1,11,0,,,,,,,,,,,,,,,,,,,AFNE01.jpg,AFNE06.jpg,AFSA18.jpg,AFSA01.jpg,AFSA01.jpg,FS,4,num_4,32,num_6,0.783450162504,,,2017_Nov_16_1058,60.0185381698,MAFE4ImagesEEG,001,102414,
AFNE01.JPG,AFNE01.JPG,AFNE01.JPG,AFNE01.JPG,AFNE01.JPG,AFNE01.JPG,,,,,1,2,12,5,,,,,,,,,,,,,,,,,,,AFSA04.jpg,AFNE09.jpg,AFNE08.jpg,AFSA07.jpg,AFNE09.jpg,FN,3,num_6,32,num_4,0.733331408817,,,2017_Nov_16_1058,60.0185381698,MAFE4ImagesEEG,001,102414,
AFNE01.JPG,AFNE01.JPG,AFNE01.JPG,AFNE01.JPG,AFNE01.JPG,AFNE01.JPG,,,,,1,3,13,6,,,,,,,,,,,,,,,,,,,AFSA17.jpg,AFNE09.jpg,AFNE02.jpg,AFSA06.jpg,AFNE02.jpg,FN,3,num_2,32,num_6,0.866619838402,,,2017_Nov_16_1058,60.0185381698,MAFE4ImagesEEG,001,102414,
AFNE01.JPG,AFNE01.JPG,AFNE01.JPG,AFNE01.JPG,AFNE01.JPG,AFNE01.JPG,,,,,1,4,14,8,,,,,,,,,,,,,,,,,,,AFNE09.jpg,AFSA15.jpg,AFNE08.jpg,AFSA14.jpg,AFNE08.jpg,FN,3,num_2,16,num_2,0.867195566185,,,2017_Nov_16_1058,60.0185381698,MAFE4ImagesEEG,001,102414,
AFNE01.JPG,AFNE01.JPG,AFNE01.JPG,AFNE01.JPG,AFNE01.JPG,AFNE01.JPG,,,,,1,5,15,1,,,,,,,,,,,,,,,,,,,AFNE15.jpg,AFNE11.jpg,AFSA07.jpg,AFSA02.jpg,AFSA07.jpg,FS,4,num_2,16,num_2,1.20012252266,,,2017_Nov_16_1058,60.0185381698,MAFE4ImagesEEG,001,102414,
AFNE01.JPG,AFNE01.JPG,AFNE01.JPG,AFNE01.JPG,AFNE01.JPG,AFNE01.JPG,,,,,1,6,16,3,,,,,,,,,,,,,,,,,,,AFSA07.jpg,AFSA06.jpg,AFNE04.jpg,AFNE16.jpg,AFSA07.jpg,FS,4,num_8,16,num_8,0.666859752033,,,2017_Nov_16_1058,60.0185381698,MAFE4ImagesEEG,001,102414,
AFNE01.JPG,AFNE01.JPG,AFNE01.JPG,AFNE01.JPG,AFNE01.JPG,AFNE01.JPG,,,,,1,7,17,9,,,,,,,,,,,,,,,,,,,AFSA18.jpg,AFNE14.jpg,AFNE07.jpg,AFSA20.jpg,AFNE07.jpg,FN,3,num_2,16,num_2,1.28350035846,,,2017_Nov_16_1058,60.0185381698,MAFE4ImagesEEG,001,102414,
AFNE01.JPG,AFNE01.JPG,AFNE01.JPG,AFNE01.JPG,AFNE01.JPG,AFNE01.JPG,,,,,1,8,18,2,,,,,,,,,,,,,,,,,,,AFSA10.jpg,AFSA17.jpg,AFNE03.jpg,AFNE13.jpg,AFNE03.jpg,FN,3,num_2,32,num_8,0.683409268502,,,2017_Nov_16_1058,60.0185381698,MAFE4ImagesEEG,001,102414,
AFNE01.JPG,AFNE01.JPG,AFNE01.JPG,AFNE01.JPG,AFNE01.JPG,AFNE01.JPG,,,,,1,9,19,7,,,,,,,,,,,,,,,,,,,AFSA19.jpg,AFNE04.jpg,AFSA10.jpg,AFNE13.jpg,AFNE04.jpg,FN,3,num_6,16,num_6,0.966762728523,,,2017_Nov_16_1058,60.0185381698,MAFE4ImagesEEG,001,102414,
AFNE01.JPG,AFNE01.JPG,AFNE01.JPG,AFNE01.JPG,AFNE01.JPG,AFNE01.JPG,,,,,2,0,20,7,,,,,,,,,,,,,,,,,,,AFSA05.jpg,AFNE01.jpg,AFNE08.jpg,AFSA06.jpg,AFNE08.jpg,FN,3,num_2,16,num_2,0.750145856291,,,2017_Nov_16_1058,60.0185381698,MAFE4ImagesEEG,001,102414,
AFNE01.JPG,AFNE01.JPG,AFNE01.JPG,AFNE01.JPG,AFNE01.JPG,AFNE01.JPG,,,,,2,1,21,6,,,,,,,,,,,,,,,,,,,AFNE01.jpg,AFSA10.jpg,AFSA05.jpg,AFNE07.jpg,AFSA10.jpg,FS,4,num_6,16,num_6,0.650169751141,,,2017_Nov_16_1058,60.0185381698,MAFE4ImagesEEG,001,102414,
AFNE01.JPG,AFNE01.JPG,AFNE01.JPG,AFNE01.JPG,AFNE01.JPG,AFNE01.JPG,,,,,2,2,22,4,,,,,,,,,,,,,,,,,,,AFSA06.jpg,AFSA04.jpg,AFNE19.jpg,AFNE16.jpg,AFSA04.jpg,FS,4,num_6,16,num_6,0.933455855586,,,2017_Nov_16_1058,60.0185381698,MAFE4ImagesEEG,001,102414,
AFNE01.JPG,AFNE01.JPG,AFNE01.JPG,AFNE01.JPG,AFNE01.JPG,AFNE01.JPG,,,,,2,3,23,8,,,,,,,,,,,,,,,,,,,AFNE05.jpg,AFSA14.jpg,AFNE18.jpg,AFSA02.jpg,AFSA14.jpg,FS,4,num_6,16,num_6,0.683541413397,,,2017_Nov_16_1058,60.0185381698,MAFE4ImagesEEG,001,102414,
AFNE01.JPG,AFNE01.JPG,AFNE01.JPG,AFNE01.JPG,AFNE01.JPG,AFNE01.JPG,,,,,2,4,24,1,,,,,,,,,,,,,,,,,,,AFSA04.jpg,AFNE20.jpg,AFNE07.jpg,AFSA01.jpg,AFNE07.jpg,FN,3,num_2,16,num_2,0.75011249911,,,2017_Nov_16_1058,60.0185381698,MAFE4ImagesEEG,001,102414,
AFNE01.JPG,AFNE01.JPG,AFNE01.JPG,AFNE01.JPG,AFNE01.JPG,AFNE01.JPG,,,,,2,5,25,2,,,,,,,,,,,,,,,,,,,AFNE11.jpg,AFSA19.jpg,AFNE10.jpg,AFSA14.jpg,AFNE11.jpg,FN,3,num_8,32,num_4,1.21673426218,,,2017_Nov_16_1058,60.0185381698,MAFE4ImagesEEG,001,102414,
AFNE01.JPG,AFNE01.JPG,AFNE01.JPG,AFNE01.JPG,AFNE01.JPG,AFNE01.JPG,,,,,2,6,26,5,,,,,,,,,,,,,,,,,,,AFSA08.jpg,AFNE04.jpg,AFSA06.jpg,AFNE01.jpg,AFNE01.jpg,FN,3,num_4,32,num_6,0.950130781624,,,2017_Nov_16_1058,60.0185381698,MAFE4ImagesEEG,001,102414,
AFNE01.JPG,AFNE01.JPG,AFNE01.JPG,AFNE01.JPG,AFNE01.JPG,AFNE01.JPG,,,,,2,7,27,0,,,,,,,,,,,,,,,,,,,AFSA10.jpg,AFNE11.jpg,AFNE06.jpg,AFSA09.jpg,AFSA10.jpg,FS,4,num_8,32,num_6,1.01676537469,,,2017_Nov_16_1058,60.0185381698,MAFE4ImagesEEG,001,102414,
AFNE01.JPG,AFNE01.JPG,AFNE01.JPG,AFNE01.JPG,AFNE01.JPG,AFNE01.JPG,,,,,2,8,28,9,,,,,,,,,,,,,,,,,,,AFNE14.jpg,AFSA17.jpg,AFNE17.jpg,AFSA20.jpg,AFNE17.jpg,FN,3,num_2,32,num_8,0.816802259535,,,2017_Nov_16_1058,60.0185381698,MAFE4ImagesEEG,001,102414,
AFNE01.JPG,AFNE01.JPG,AFNE01.JPG,AFNE01.JPG,AFNE01.JPG,AFNE01.JPG,,,,,2,9,29,3,,,,,,,,,,,,,,,,,,,AFSA20.jpg,AFNE18.jpg,AFSA05.jpg,AFNE10.jpg,AFNE18.jpg,FN,3,num_6,32,num_2,0.733446554281,,,2017_Nov_16_1058,60.0185381698,MAFE4ImagesEEG,001,102414,
AFNE01.JPG,AFNE01.JPG,AFNE01.JPG,AFNE01.JPG,AFNE01.JPG,AFNE01.JPG,,,,,3,0,30,2,,,,,,,,,,,,,,,,,,,AFNE08.jpg,AFSA05.jpg,AFNE13.jpg,AFSA06.jpg,AFSA06.jpg,FS,4,num_4,32,num_6,0.533485363703,,,2017_Nov_16_1058,60.0185381698,MAFE4ImagesEEG,001,102414,
AFNE01.JPG,AFNE01.JPG,AFNE01.JPG,AFNE01.JPG,AFNE01.JPG,AFNE01.JPG,,,,,3,1,31,8,,,,,,,,,,,,,,,,,,,AFSA13.jpg,AFSA15.jpg,AFNE16.jpg,AFNE13.jpg,AFNE16.jpg,FN,3,num_2,32,num_4,0.700158605818,,,2017_Nov_16_1058,60.0185381698,MAFE4ImagesEEG,001,102414,
AFNE01.JPG,AFNE01.JPG,AFNE01.JPG,AFNE01.JPG,AFNE01.JPG,AFNE01.JPG,,,,,3,2,32,0,,,,,,,,,,,,,,,,,,,AFNE05.jpg,AFSA03.jpg,AFSA09.jpg,AFNE06.jpg,AFSA09.jpg,FS,4,num_2,32,num_6,0.783444389235,,,2017_Nov_16_1058,60.0185381698,MAFE4ImagesEEG,001,102414,
AFNE01.JPG,AFNE01.JPG,AFNE01.JPG,AFNE01.JPG,AFNE01.JPG,AFNE01.JPG,,,,,3,3,33,1,,,,,,,,,,,,,,,,,,,AFSA12.jpg,AFNE03.jpg,AFSA04.jpg,AFNE12.jpg,AFSA04.jpg,FS,4,num_2,32,num_4,0.850105924066,,,2017_Nov_16_1058,60.0185381698,MAFE4ImagesEEG,001,102414,
AFNE01.JPG,AFNE01.JPG,AFNE01.JPG,AFNE01.JPG,AFNE01.JPG,AFNE01.JPG,,,,,3,4,34,9,,,,,,,,,,,,,,,,,,,AFSA07.jpg,AFSA01.jpg,AFNE19.jpg,AFNE12.jpg,AFNE19.jpg,FN,3,num_2,32,num_6,0.633465958759,,,2017_Nov_16_1058,60.0185381698,MAFE4ImagesEEG,001,102414,
AFNE01.JPG,AFNE01.JPG,AFNE01.JPG,AFNE01.JPG,AFNE01.JPG,AFNE01.JPG,,,,,3,5,35,5,,,,,,,,,,,,,,,,,,,AFSA11.jpg,AFNE09.jpg,AFSA01.jpg,AFNE14.jpg,AFSA01.jpg,FS,4,num_2,16,num_2,0.716800495051,,,2017_Nov_16_1058,60.0185381698,MAFE4ImagesEEG,001,102414,
AFNE01.JPG,AFNE01.JPG,AFNE01.JPG,AFNE01.JPG,AFNE01.JPG,AFNE01.JPG,,,,,3,6,36,7,,,,,,,,,,,,,,,,,,,AFNE05.jpg,AFSA11.jpg,AFNE18.jpg,AFSA15.jpg,AFNE05.jpg,FN,3,num_8,16,num_8,0.66688765632,,,2017_Nov_16_1058,60.0185381698,MAFE4ImagesEEG,001,102414,
AFNE01.JPG,AFNE01.JPG,AFNE01.JPG,AFNE01.JPG,AFNE01.JPG,AFNE01.JPG,,,,,3,7,37,3,,,,,,,,,,,,,,,,,,,AFNE16.jpg,AFNE03.jpg,AFSA13.jpg,AFSA11.jpg,AFNE03.jpg,FN,3,num_6,32,num_4,0.883464435581,,,2017_Nov_16_1058,60.0185381698,MAFE4ImagesEEG,001,102414,
AFNE01.JPG,AFNE01.JPG,AFNE01.JPG,AFNE01.JPG,AFNE01.JPG,AFNE01.JPG,,,,,3,8,38,4,,,,,,,,,,,,,,,,,,,AFNE01.jpg,AFSA11.jpg,AFNE09.jpg,AFSA09.jpg,AFNE09.jpg,FN,3,num_2,32,num_6,1.15017472301,,,2017_Nov_16_1058,60.0185381698,MAFE4ImagesEEG,001,102414,
AFNE01.JPG,AFNE01.JPG,AFNE01.JPG,AFNE01.JPG,AFNE01.JPG,AFNE01.JPG,,,,,3,9,39,6,,,,,,,,,,,,,,,,,,,AFSA04.jpg,AFSA06.jpg,AFNE10.jpg,AFNE05.jpg,AFNE10.jpg,FN,3,num_2,16,num_2,1.01675414806,,,2017_Nov_16_1058,60.0185381698,MAFE4ImagesEEG,001,102414,
AFNE01.JPG,AFNE01.JPG,AFNE01.JPG,AFNE01.JPG,AFNE01.JPG,AFNE01.JPG,,,,,4,0,40,4,,,,,,,,,,,,,,,,,,,AFSA18.jpg,AFNE02.jpg,AFSA10.jpg,AFNE08.jpg,AFSA18.jpg,FS,4,num_8,32,num_2,1.03343580943,,,2017_Nov_16_1058,60.0185381698,MAFE4ImagesEEG,001,102414,
AFNE01.JPG,AFNE01.JPG,AFNE01.JPG,AFNE01.JPG,AFNE01.JPG,AFNE01.JPG,,,,,4,1,41,5,,,,,,,,,,,,,,,,,,,AFNE08.jpg,AFSA08.jpg,AFNE20.jpg,AFSA01.jpg,AFNE08.jpg,FN,3,num_8,16,num_8,0.733512626495,,,2017_Nov_16_1058,60.0185381698,MAFE4ImagesEEG,001,102414,
AFNE01.JPG,AFNE01.JPG,AFNE01.JPG,AFNE01.JPG,AFNE01.JPG,AFNE01.JPG,,,,,4,2,42,2,,,,,,,,,,,,,,,,,,,AFNE07.jpg,AFSA01.jpg,AFNE04.jpg,AFSA10.jpg,AFNE07.jpg,FN,3,num_8,32,num_2,1.16676657693,,,2017_Nov_16_1058,60.0185381698,MAFE4ImagesEEG,001,102414,
AFNE01.JPG,AFNE01.JPG,AFNE01.JPG,AFNE01.JPG,AFNE01.JPG,AFNE01.JPG,,,,,4,3,43,3,,,,,,,,,,,,,,,,,,,AFNE09.jpg,AFSA10.jpg,AFSA03.jpg,AFNE01.jpg,AFSA03.jpg,FS,4,num_2,32,num_8,0.950132385362,,,2017_Nov_16_1058,60.0185381698,MAFE4ImagesEEG,001,102414,
AFNE01.JPG,AFNE01.JPG,AFNE01.JPG,AFNE01.JPG,AFNE01.JPG,AFNE01.JPG,,,,,4,4,44,9,,,,,,,,,,,,,,,,,,,AFSA16.jpg,AFNE05.jpg,AFSA11.jpg,AFNE10.jpg,AFSA16.jpg,FS,4,num_8,32,num_4,1.18342001317,,,2017_Nov_16_1058,60.0185381698,MAFE4ImagesEEG,001,102414,
AFNE01.JPG,AFNE01.JPG,AFNE01.JPG,AFNE01.JPG,AFNE01.JPG,AFNE01.JPG,,,,,4,5,45,6,,,,,,,,,,,,,,,,,,,AFNE13.jpg,AFSA08.jpg,AFNE11.jpg,AFSA17.jpg,AFSA08.jpg,FS,4,num_6,16,num_6,0.700226923451,,,2017_Nov_16_1058,60.0185381698,MAFE4ImagesEEG,001,102414,
AFNE01.JPG,AFNE01.JPG,AFNE01.JPG,AFNE01.JPG,AFNE01.JPG,AFNE01.JPG,,,,,4,6,46,8,,,,,,,,,,,,,,,,,,,AFNE10.jpg,AFNE11.jpg,AFSA09.jpg,AFSA19.jpg,AFNE10.jpg,FN,3,num_8,32,num_2,0.733486967161,,,2017_Nov_16_1058,60.0185381698,MAFE4ImagesEEG,001,102414,
AFNE01.JPG,AFNE01.JPG,AFNE01.JPG,AFNE01.JPG,AFNE01.JPG,AFNE01.JPG,,,,,4,7,47,7,,,,,,,,,,,,,,,,,,,AFNE07.jpg,AFSA14.jpg,AFNE13.jpg,AFSA20.jpg,AFSA14.jpg,FS,4,num_6,16,num_6,0.733489854261,,,2017_Nov_16_1058,60.0185381698,MAFE4ImagesEEG,001,102414,
AFNE01.JPG,AFNE01.JPG,AFNE01.JPG,AFNE01.JPG,AFNE01.JPG,AFNE01.JPG,,,,,4,8,48,0,,,,,,,,,,,,,,,,,,,AFSA02.jpg,AFNE04.jpg,AFSA15.jpg,AFNE05.jpg,AFNE05.jpg,FN,3,num_4,32,num_2,1.08331529191,,,2017_Nov_16_1058,60.0185381698,MAFE4ImagesEEG,001,102414,
AFNE01.JPG,AFNE01.JPG,AFNE01.JPG,AFNE01.JPG,AFNE01.JPG,AFNE01.JPG,,,,,4,9,49,1,,,,,,,,,,,,,,,,,,,AFNE08.jpg,AFSA11.jpg,AFSA04.jpg,AFNE02.jpg,AFSA11.jpg,FS,4,num_6,16,num_6,0.916750139091,,,2017_Nov_16_1058,60.0185381698,MAFE4ImagesEEG,001,102414,
AFNE01.JPG,AFNE01.JPG,AFNE01.JPG,AFNE01.JPG,AFNE01.JPG,AFNE01.JPG,,,,,5,0,50,2,,,,,,,,,,,,,,,,,,,AFNE13.jpg,AFNE07.jpg,AFSA13.jpg,AFSA12.jpg,AFNE13.jpg,FN,3,num_8,32,num_6,0.933477345388,,,2017_Nov_16_1058,60.0185381698,MAFE4ImagesEEG,001,102414,
AFNE01.JPG,AFNE01.JPG,AFNE01.JPG,AFNE01.JPG,AFNE01.JPG,AFNE01.JPG,,,,,5,1,51,6,,,,,,,,,,,,,,,,,,,AFNE05.jpg,AFSA13.jpg,AFSA05.jpg,AFNE09.jpg,AFSA13.jpg,FS,4,num_6,32,num_4,0.7501946087,,,2017_Nov_16_1058,60.0185381698,MAFE4ImagesEEG,001,102414,
AFNE01.JPG,AFNE01.JPG,AFNE01.JPG,AFNE01.JPG,AFNE01.JPG,AFNE01.JPG,,,,,5,2,52,4,,,,,,,,,,,,,,,,,,,AFSA19.jpg,AFSA17.jpg,AFNE07.jpg,AFNE09.jpg,AFSA17.jpg,FS,4,num_6,16,num_6,1.15010127379,,,2017_Nov_16_1058,60.0185381698,MAFE4ImagesEEG,001,102414,
AFNE01.JPG,AFNE01.JPG,AFNE01.JPG,AFNE01.JPG,AFNE01.JPG,AFNE01.JPG,,,,,5,3,53,5,,,,,,,,,,,,,,,,,,,AFNE10.jpg,AFSA17.jpg,AFSA12.jpg,AFNE14.jpg,AFSA12.jpg,FS,4,num_2,16,num_2,1.53344847914,,,2017_Nov_16_1058,60.0185381698,MAFE4ImagesEEG,001,102414,
AFNE01.JPG,AFNE01.JPG,AFNE01.JPG,AFNE01.JPG,AFNE01.JPG,AFNE01.JPG,,,,,5,4,54,1,,,,,,,,,,,,,,,,,,,AFNE08.jpg,AFSA17.jpg,AFSA08.jpg,AFNE16.jpg,AFSA08.jpg,FS,4,num_2,32,num_8,0.63385084644,,,2017_Nov_16_1058,60.0185381698,MAFE4ImagesEEG,001,102414,
AFNE01.JPG,AFNE01.JPG,AFNE01.JPG,AFNE01.JPG,AFNE01.JPG,AFNE01.JPG,,,,,5,5,55,0,,,,,,,,,,,,,,,,,,,AFSA19.jpg,AFNE04.jpg,AFNE09.jpg,AFSA17.jpg,AFSA19.jpg,FS,4,num_8,32,num_6,0.83309069369,,,2017_Nov_16_1058,60.0185381698,MAFE4ImagesEEG,001,102414,
AFNE01.JPG,AFNE01.JPG,AFNE01.JPG,AFNE01.JPG,AFNE01.JPG,AFNE01.JPG,,,,,5,6,56,7,,,,,,,,,,,,,,,,,,,AFSA17.jpg,AFNE18.jpg,AFNE04.jpg,AFSA01.jpg,AFSA01.jpg,FS,4,num_4,32,num_2,1.26671670191,,,2017_Nov_16_1058,60.0185381698,MAFE4ImagesEEG,001,102414,
AFNE01.JPG,AFNE01.JPG,AFNE01.JPG,AFNE01.JPG,AFNE01.JPG,AFNE01.JPG,,,,,5,7,57,9,,,,,,,,,,,,,,,,,,,AFNE14.jpg,AFSA08.jpg,AFNE19.jpg,AFSA05.jpg,AFSA05.jpg,FS,4,num_4,32,num_6,0.866638120729,,,2017_Nov_16_1058,60.0185381698,MAFE4ImagesEEG,001,102414,
AFNE01.JPG,AFNE01.JPG,AFNE01.JPG,AFNE01.JPG,AFNE01.JPG,AFNE01.JPG,,,,,5,8,58,3,,,,,,,,,,,,,,,,,,,AFSA13.jpg,AFSA04.jpg,AFNE04.jpg,AFNE20.jpg,AFNE20.jpg,FN,3,num_4,32,num_8,0.650146016385,,,2017_Nov_16_1058,60.0185381698,MAFE4ImagesEEG,001,102414,
AFNE01.JPG,AFNE01.JPG,AFNE01.JPG,AFNE01.JPG,AFNE01.JPG,AFNE01.JPG,,,,,5,9,59,8,,,,,,,,,,,,,,,,,,,AFNE15.jpg,AFNE01.jpg,AFSA16.jpg,AFSA06.jpg,AFNE01.jpg,FN,3,num_6,32,num_2,0.816735224333,,,2017_Nov_16_1058,60.0185381698,MAFE4ImagesEEG,001,102414,
,,,,,,,,,,,,,,,,,,,,,,,,,,,,,,,,,,,,,,,,,,,space,58.9453232172,2017_Nov_16_1058,60.0185381698,MAFE4ImagesEEG,001,102414,
AFNE01.JPG,AFNE01.JPG,AFNE01.JPG,AFNE01.JPG,AFNE01.JPG,AFNE01.JPG,,,,,,,,,0,0,0,5,,,,,,,,,,,,,,,AMNE01.jpg,AMNE03.jpg,AMSA14.jpg,AMSA03.jpg,AMNE03.jpg,MN,1,num_6,16,num_6,1.30001234822,,,2017_Nov_16_1058,60.0185381698,MAFE4ImagesEEG,001,102414,
AFNE01.JPG,AFNE01.JPG,AFNE01.JPG,AFNE01.JPG,AFNE01.JPG,AFNE01.JPG,,,,,,,,,0,1,1,8,,,,,,,,,,,,,,,AMNE15.jpg,AMSA12.jpg,AMSA05.jpg,AMNE03.jpg,AMNE03.jpg,MN,1,num_4,16,num_4,0.466848846525,,,2017_Nov_16_1058,60.0185381698,MAFE4ImagesEEG,001,102414,
AFNE01.JPG,AFNE01.JPG,AFNE01.JPG,AFNE01.JPG,AFNE01.JPG,AFNE01.JPG,,,,,,,,,0,2,2,3,,,,,,,,,,,,,,,AMNE16.jpg,AMSA16.jpg,AMNE12.jpg,AMSA02.jpg,AMNE12.jpg,MN,1,num_2,32,num_6,0.950131101999,,,2017_Nov_16_1058,60.0185381698,MAFE4ImagesEEG,001,102414,
AFNE01.JPG,AFNE01.JPG,AFNE01.JPG,AFNE01.JPG,AFNE01.JPG,AFNE01.JPG,,,,,,,,,0,3,3,2,,,,,,,,,,,,,,,AMNE09.jpg,AMSA14.jpg,AMSA13.jpg,AMNE17.jpg,AMNE09.jpg,MN,1,num_8,16,num_8,1.03341111261,,,2017_Nov_16_1058,60.0185381698,MAFE4ImagesEEG,001,102414,
AFNE01.JPG,AFNE01.JPG,AFNE01.JPG,AFNE01.JPG,AFNE01.JPG,AFNE01.JPG,,,,,,,,,0,4,4,4,,,,,,,,,,,,,,,AMSA01.jpg,AMSA12.jpg,AMNE07.jpg,AMNE01.jpg,AMNE01.jpg,MN,1,num_4,32,num_2,1.16674540844,,,2017_Nov_16_1058,60.0185381698,MAFE4ImagesEEG,001,102414,
AFNE01.JPG,AFNE01.JPG,AFNE01.JPG,AFNE01.JPG,AFNE01.JPG,AFNE01.JPG,,,,,,,,,0,5,5,0,,,,,,,,,,,,,,,AMSA19.jpg,AMNE13.jpg,AMSA04.jpg,AMNE17.jpg,AMSA19.jpg,MS,2,num_8,32,num_6,0.95008459501,,,2017_Nov_16_1058,60.0185381698,MAFE4ImagesEEG,001,102414,
AFNE01.JPG,AFNE01.JPG,AFNE01.JPG,AFNE01.JPG,AFNE01.JPG,AFNE01.JPG,,,,,,,,,0,6,6,6,,,,,,,,,,,,,,,AMSA09.jpg,AMSA08.jpg,AMNE13.jpg,AMNE03.jpg,AMSA08.jpg,MS,2,num_6,16,num_6,0.566781651694,,,2017_Nov_16_1058,60.0185381698,MAFE4ImagesEEG,001,102414,
AFNE01.JPG,AFNE01.JPG,AFNE01.JPG,AFNE01.JPG,AFNE01.JPG,AFNE01.JPG,,,,,,,,,0,7,7,7,,,,,,,,,,,,,,,AMSA08.jpg,AMNE02.jpg,AMSA19.jpg,AMNE09.jpg,AMNE09.jpg,MN,1,num_4,32,num_8,0.916779326275,,,2017_Nov_16_1058,60.0185381698,MAFE4ImagesEEG,001,102414,
AFNE01.JPG,AFNE01.JPG,AFNE01.JPG,AFNE01.JPG,AFNE01.JPG,AFNE01.JPG,,,,,,,,,0,8,8,9,,,,,,,,,,,,,,,AMSA01.jpg,AMNE05.jpg,AMNE17.jpg,AMSA11.jpg,AMSA01.jpg,MS,2,num_8,16,num_8,0.750008258969,,,2017_Nov_16_1058,60.0185381698,MAFE4ImagesEEG,001,102414,
AFNE01.JPG,AFNE01.JPG,AFNE01.JPG,AFNE01.JPG,AFNE01.JPG,AFNE01.JPG,,,,,,,,,0,9,9,1,,,,,,,,,,,,,,,AMSA02.jpg,AMNE15.jpg,AMNE12.jpg,AMSA06.jpg,AMNE12.jpg,MN,1,num_2,16,num_2,1.93338882132,,,2017_Nov_16_1058,60.0185381698,MAFE4ImagesEEG,001,102414,
AFNE01.JPG,AFNE01.JPG,AFNE01.JPG,AFNE01.JPG,AFNE01.JPG,AFNE01.JPG,,,,,,,,,1,0,10,0,,,,,,,,,,,,,,,AMSA01.jpg,AMNE04.jpg,AMNE13.jpg,AMSA07.jpg,AMNE04.jpg,MN,1,num_6,32,num_4,1.08344807802,,,2017_Nov_16_1058,60.0185381698,MAFE4ImagesEEG,001,102414,
AFNE01.JPG,AFNE01.JPG,AFNE01.JPG,AFNE01.JPG,AFNE01.JPG,AFNE01.JPG,,,,,,,,,1,1,11,6,,,,,,,,,,,,,,,AMNE11.jpg,AMSA20.jpg,AMNE18.jpg,AMSA03.jpg,AMNE18.jpg,MN,1,num_2,32,num_6,0.833568595815,,,2017_Nov_16_1058,60.0185381698,MAFE4ImagesEEG,001,102414,
AFNE01.JPG,AFNE01.JPG,AFNE01.JPG,AFNE01.JPG,AFNE01.JPG,AFNE01.JPG,,,,,,,,,1,2,12,4,,,,,,,,,,,,,,,AMSA16.jpg,AMNE01.jpg,AMSA19.jpg,AMNE13.jpg,AMSA19.jpg,MS,2,num_2,32,num_8,1.46674236143,,,2017_Nov_16_1058,60.0185381698,MAFE4ImagesEEG,001,102414,
AFNE01.JPG,AFNE01.JPG,AFNE01.JPG,AFNE01.JPG,AFNE01.JPG,AFNE01.JPG,,,,,,,,,1,3,13,9,,,,,,,,,,,,,,,AMSA07.jpg,AMNE06.jpg,AMSA13.jpg,AMNE16.jpg,AMNE16.jpg,MN,1,num_4,32,num_2,1.40012572985,,,2017_Nov_16_1058,60.0185381698,MAFE4ImagesEEG,001,102414,
AFNE01.JPG,AFNE01.JPG,AFNE01.JPG,AFNE01.JPG,AFNE01.JPG,AFNE01.JPG,,,,,,,,,1,4,14,8,,,,,,,,,,,,,,,AMNE11.jpg,AMNE01.jpg,AMSA04.jpg,AMSA07.jpg,AMSA04.jpg,MS,2,num_2,16,num_2,0.783486406319,,,2017_Nov_16_1058,60.0185381698,MAFE4ImagesEEG,001,102414,
AFNE01.JPG,AFNE01.JPG,AFNE01.JPG,AFNE01.JPG,AFNE01.JPG,AFNE01.JPG,,,,,,,,,1,5,15,1,,,,,,,,,,,,,,,AMSA06.jpg,AMNE16.jpg,AMSA03.jpg,AMNE02.jpg,AMNE02.jpg,MN,1,num_4,16,num_4,0.566780689638,,,2017_Nov_16_1058,60.0185381698,MAFE4ImagesEEG,001,102414,
AFNE01.JPG,AFNE01.JPG,AFNE01.JPG,AFNE01.JPG,AFNE01.JPG,AFNE01.JPG,,,,,,,,,1,6,16,5,,,,,,,,,,,,,,,AMSA13.jpg,AMNE15.jpg,AMSA04.jpg,AMNE13.jpg,AMSA13.jpg,MS,2,num_8,16,num_8,0.950146818534,,,2017_Nov_16_1058,60.0185381698,MAFE4ImagesEEG,001,102414,
AFNE01.JPG,AFNE01.JPG,AFNE01.JPG,AFNE01.JPG,AFNE01.JPG,AFNE01.JPG,,,,,,,,,1,7,17,3,,,,,,,,,,,,,,,AMSA19.jpg,AMNE19.jpg,AMSA13.jpg,AMNE17.jpg,AMNE17.jpg,MN,1,num_4,16,num_4,1.00033998396,,,2017_Nov_16_1058,60.0185381698,MAFE4ImagesEEG,001,102414,
AFNE01.JPG,AFNE01.JPG,AFNE01.JPG,AFNE01.JPG,AFNE01.JPG,AFNE01.JPG,,,,,,,,,1,8,18,7,,,,,,,,,,,,,,,AMNE04.jpg,AMSA01.jpg,AMNE07.jpg,AMSA19.jpg,AMSA01.jpg,MS,2,num_6,32,num_8,0.650169751607,,,2017_Nov_16_1058,60.0185381698,MAFE4ImagesEEG,001,102414,
AFNE01.JPG,AFNE01.JPG,AFNE01.JPG,AFNE01.JPG,AFNE01.JPG,AFNE01.JPG,,,,,,,,,1,9,19,2,,,,,,,,,,,,,,,AMNE02.jpg,AMSA13.jpg,AMSA17.jpg,AMNE19.jpg,AMNE19.jpg,MN,1,num_4,32,num_6,1.23344382783,,,2017_Nov_16_1058,60.0185381698,MAFE4ImagesEEG,001,102414,
AFNE01.JPG,AFNE01.JPG,AFNE01.JPG,AFNE01.JPG,AFNE01.JPG,AFNE01.JPG,,,,,,,,,2,0,20,6,,,,,,,,,,,,,,,AMSA11.jpg,AMNE10.jpg,AMSA13.jpg,AMNE18.jpg,AMSA11.jpg,MS,2,num_8,16,num_8,0.633514711633,,,2017_Nov_16_1058,60.0185381698,MAFE4ImagesEEG,001,102414,
AFNE01.JPG,AFNE01.JPG,AFNE01.JPG,AFNE01.JPG,AFNE01.JPG,AFNE01.JPG,,,,,,,,,2,1,21,1,,,,,,,,,,,,,,,AMSA04.jpg,AMSA13.jpg,AMNE11.jpg,AMNE08.jpg,AMSA04.jpg,MS,2,num_8,32,num_6,0.56680538645,,,2017_Nov_16_1058,60.0185381698,MAFE4ImagesEEG,001,102414,
AFNE01.JPG,AFNE01.JPG,AFNE01.JPG,AFNE01.JPG,AFNE01.JPG,AFNE01.JPG,,,,,,,,,2,2,22,3,,,,,,,,,,,,,,,AMNE08.jpg,AMNE13.jpg,AMSA20.jpg,AMSA10.jpg,AMSA20.jpg,MS,2,num_2,32,num_8,0.883450964466,,,2017_Nov_16_1058,60.0185381698,MAFE4ImagesEEG,001,102414,
AFNE01.JPG,AFNE01.JPG,AFNE01.JPG,AFNE01.JPG,AFNE01.JPG,AFNE01.JPG,,,,,,,,,2,3,23,7,,,,,,,,,,,,,,,AMNE13.jpg,AMSA17.jpg,AMSA01.jpg,AMNE19.jpg,AMNE19.jpg,MN,1,num_4,32,num_8,0.783720866777,,,2017_Nov_16_1058,60.0185381698,MAFE4ImagesEEG,001,102414,
AFNE01.JPG,AFNE01.JPG,AFNE01.JPG,AFNE01.JPG,AFNE01.JPG,AFNE01.JPG,,,,,,,,,2,4,24,9,,,,,,,,,,,,,,,AMSA13.jpg,AMNE07.jpg,AMSA04.jpg,AMNE05.jpg,AMNE07.jpg,MN,1,num_6,32,num_2,0.833572444506,,,2017_Nov_16_1058,60.0185381698,MAFE4ImagesEEG,001,102414,
AFNE01.JPG,AFNE01.JPG,AFNE01.JPG,AFNE01.JPG,AFNE01.JPG,AFNE01.JPG,,,,,,,,,2,5,25,8,,,,,,,,,,,,,,,AMNE18.jpg,AMNE01.jpg,AMSA17.jpg,AMSA10.jpg,AMSA10.jpg,MS,2,num_4,16,num_4,1.13346451614,,,2017_Nov_16_1058,60.0185381698,MAFE4ImagesEEG,001,102414,
AFNE01.JPG,AFNE01.JPG,AFNE01.JPG,AFNE01.JPG,AFNE01.JPG,AFNE01.JPG,,,,,,,,,2,6,26,5,,,,,,,,,,,,,,,AMSA07.jpg,AMNE11.jpg,AMSA13.jpg,AMNE19.jpg,AMSA13.jpg,MS,2,num_2,32,num_6,0.633443507366,,,2017_Nov_16_1058,60.0185381698,MAFE4ImagesEEG,001,102414,
AFNE01.JPG,AFNE01.JPG,AFNE01.JPG,AFNE01.JPG,AFNE01.JPG,AFNE01.JPG,,,,,,,,,2,7,27,4,,,,,,,,,,,,,,,AMNE07.jpg,AMNE09.jpg,AMSA19.jpg,AMSA07.jpg,AMNE07.jpg,MN,1,num_8,16,num_8,0.833480712958,,,2017_Nov_16_1058,60.0185381698,MAFE4ImagesEEG,001,102414,
AFNE01.JPG,AFNE01.JPG,AFNE01.JPG,AFNE01.JPG,AFNE01.JPG,AFNE01.JPG,,,,,,,,,2,8,28,2,,,,,,,,,,,,,,,AMSA09.jpg,AMNE13.jpg,AMNE03.jpg,AMSA16.jpg,AMNE13.jpg,MN,1,num_6,16,num_6,0.650134149473,,,2017_Nov_16_1058,60.0185381698,MAFE4ImagesEEG,001,102414,
AFNE01.JPG,AFNE01.JPG,AFNE01.JPG,AFNE01.JPG,AFNE01.JPG,AFNE01.JPG,,,,,,,,,2,9,29,0,,,,,,,,,,,,,,,AMNE14.jpg,AMNE17.jpg,AMSA09.jpg,AMSA14.jpg,AMNE17.jpg,MN,1,num_6,16,num_6,1.01674677152,,,2017_Nov_16_1058,60.0185381698,MAFE4ImagesEEG,001,102414,
AFNE01.JPG,AFNE01.JPG,AFNE01.JPG,AFNE01.JPG,AFNE01.JPG,AFNE01.JPG,,,,,,,,,3,0,30,5,,,,,,,,,,,,,,,AMSA06.jpg,AMNE17.jpg,AMNE09.jpg,AMSA01.jpg,AMSA01.jpg,MS,2,num_4,32,num_8,1.36674604937,,,2017_Nov_16_1058,60.0185381698,MAFE4ImagesEEG,001,102414,
AFNE01.JPG,AFNE01.JPG,AFNE01.JPG,AFNE01.JPG,AFNE01.JPG,AFNE01.JPG,,,,,,,,,3,1,31,2,,,,,,,,,,,,,,,AMNE19.jpg,AMNE04.jpg,AMSA08.jpg,AMSA13.jpg,AMSA08.jpg,MS,2,num_2,16,num_2,3.31628667051,,,2017_Nov_16_1058,60.0185381698,MAFE4ImagesEEG,001,102414,
AFNE01.JPG,AFNE01.JPG,AFNE01.JPG,AFNE01.JPG,AFNE01.JPG,AFNE01.JPG,,,,,,,,,3,2,32,9,,,,,,,,,,,,,,,AMSA08.jpg,AMNE04.jpg,AMNE17.jpg,AMSA18.jpg,AMSA08.jpg,MS,2,num_8,16,num_8,0.950122442096,,,2017_Nov_16_1058,60.0185381698,MAFE4ImagesEEG,001,102414,
AFNE01.JPG,AFNE01.JPG,AFNE01.JPG,AFNE01.JPG,AFNE01.JPG,AFNE01.JPG,,,,,,,,,3,3,33,1,,,,,,,,,,,,,,,AMNE01.jpg,AMNE14.jpg,AMSA10.jpg,AMSA06.jpg,AMNE14.jpg,MN,1,num_6,32,num_4,0.967082826421,,,2017_Nov_16_1058,60.0185381698,MAFE4ImagesEEG,001,102414,
AFNE01.JPG,AFNE01.JPG,AFNE01.JPG,AFNE01.JPG,AFNE01.JPG,AFNE01.JPG,,,,,,,,,3,4,34,6,,,,,,,,,,,,,,,AMNE13.jpg,AMSA12.jpg,AMSA14.jpg,AMNE03.jpg,AMNE13.jpg,MN,1,num_8,32,num_6,0.683474699035,,,2017_Nov_16_1058,60.0185381698,MAFE4ImagesEEG,001,102414,
AFNE01.JPG,AFNE01.JPG,AFNE01.JPG,AFNE01.JPG,AFNE01.JPG,AFNE01.JPG,,,,,,,,,3,5,35,7,,,,,,,,,,,,,,,AMSA08.jpg,AMNE06.jpg,AMNE11.jpg,AMSA09.jpg,AMNE06.jpg,MN,1,num_6,32,num_8,0.833592651412,,,2017_Nov_16_1058,60.0185381698,MAFE4ImagesEEG,001,102414,
AFNE01.JPG,AFNE01.JPG,AFNE01.JPG,AFNE01.JPG,AFNE01.JPG,AFNE01.JPG,,,,,,,,,3,6,36,3,,,,,,,,,,,,,,,AMSA15.jpg,AMNE06.jpg,AMSA04.jpg,AMNE11.jpg,AMNE06.jpg,MN,1,num_6,32,num_2,1.48340926832,,,2017_Nov_16_1058,60.0185381698,MAFE4ImagesEEG,001,102414,
AFNE01.JPG,AFNE01.JPG,AFNE01.JPG,AFNE01.JPG,AFNE01.JPG,AFNE01.JPG,,,,,,,,,3,7,37,8,,,,,,,,,,,,,,,AMSA18.jpg,AMNE03.jpg,AMNE20.jpg,AMSA02.jpg,AMNE03.jpg,MN,1,num_6,16,num_6,0.7835069336,,,2017_Nov_16_1058,60.0185381698,MAFE4ImagesEEG,001,102414,
AFNE01.JPG,AFNE01.JPG,AFNE01.JPG,AFNE01.JPG,AFNE01.JPG,AFNE01.JPG,,,,,,,,,3,8,38,0,,,,,,,,,,,,,,,AMSA04.jpg,AMSA20.jpg,AMNE09.jpg,AMNE08.jpg,AMSA20.jpg,MS,2,num_6,16,num_6,0.633494826034,,,2017_Nov_16_1058,60.0185381698,MAFE4ImagesEEG,001,102414,
AFNE01.JPG,AFNE01.JPG,AFNE01.JPG,AFNE01.JPG,AFNE01.JPG,AFNE01.JPG,,,,,,,,,3,9,39,4,,,,,,,,,,,,,,,AMNE07.jpg,AMNE11.jpg,AMSA06.jpg,AMSA07.jpg,AMNE07.jpg,MN,1,num_8,16,num_8,1.04995934619,,,2017_Nov_16_1058,60.0185381698,MAFE4ImagesEEG,001,102414,
AFNE01.JPG,AFNE01.JPG,AFNE01.JPG,AFNE01.JPG,AFNE01.JPG,AFNE01.JPG,,,,,,,,,4,0,40,2,,,,,,,,,,,,,,,AMSA13.jpg,AMSA01.jpg,AMNE06.jpg,AMNE20.jpg,AMNE06.jpg,MN,1,num_2,32,num_6,0.800148181617,,,2017_Nov_16_1058,60.0185381698,MAFE4ImagesEEG,001,102414,
AFNE01.JPG,AFNE01.JPG,AFNE01.JPG,AFNE01.JPG,AFNE01.JPG,AFNE01.JPG,,,,,,,,,4,1,41,0,,,,,,,,,,,,,,,AMNE01.jpg,AMNE19.jpg,AMSA03.jpg,AMSA16.jpg,AMSA16.jpg,MS,2,num_4,16,num_4,0.66675839806,,,2017_Nov_16_1058,60.0185381698,MAFE4ImagesEEG,001,102414,
AFNE01.JPG,AFNE01.JPG,AFNE01.JPG,AFNE01.JPG,AFNE01.JPG,AFNE01.JPG,,,,,,,,,4,2,42,8,,,,,,,,,,,,,,,AMNE04.jpg,AMSA09.jpg,AMNE17.jpg,AMSA02.jpg,AMSA09.jpg,MS,2,num_6,16,num_6,0.583522649948,,,2017_Nov_16_1058,60.0185381698,MAFE4ImagesEEG,001,102414,
AFNE01.JPG,AFNE01.JPG,AFNE01.JPG,AFNE01.JPG,AFNE01.JPG,AFNE01.JPG,,,,,,,,,4,3,43,7,,,,,,,,,,,,,,,AMSA14.jpg,AMSA07.jpg,AMNE18.jpg,AMNE12.jpg,AMNE18.jpg,MN,1,num_2,16,num_2,1.31674500694,,,2017_Nov_16_1058,60.0185381698,MAFE4ImagesEEG,001,102414,
AFNE01.JPG,AFNE01.JPG,AFNE01.JPG,AFNE01.JPG,AFNE01.JPG,AFNE01.JPG,,,,,,,,,4,4,44,3,,,,,,,,,,,,,,,AMSA08.jpg,AMNE15.jpg,AMNE11.jpg,AMSA18.jpg,AMSA08.jpg,MS,2,num_8,32,num_6,0.799992302433,,,2017_Nov_16_1058,60.0185381698,MAFE4ImagesEEG,001,102414,
AFNE01.JPG,AFNE01.JPG,AFNE01.JPG,AFNE01.JPG,AFNE01.JPG,AFNE01.JPG,,,,,,,,,4,5,45,1,,,,,,,,,,,,,,,AMSA13.jpg,AMNE10.jpg,AMSA05.jpg,AMNE12.jpg,AMNE10.jpg,MN,1,num_6,32,num_2,3.25022171112,,,2017_Nov_16_1058,60.0185381698,MAFE4ImagesEEG,001,102414,
AFNE01.JPG,AFNE01.JPG,AFNE01.JPG,AFNE01.JPG,AFNE01.JPG,AFNE01.JPG,,,,,,,,,4,6,46,4,,,,,,,,,,,,,,,AMNE10.jpg,AMSA15.jpg,AMNE12.jpg,AMSA11.jpg,AMNE12.jpg,MN,1,num_2,32,num_6,0.616800335236,,,2017_Nov_16_1058,60.0185381698,MAFE4ImagesEEG,001,102414,
AFNE01.JPG,AFNE01.JPG,AFNE01.JPG,AFNE01.JPG,AFNE01.JPG,AFNE01.JPG,,,,,,,,,4,7,47,6,,,,,,,,,,,,,,,AMSA16.jpg,AMSA20.jpg,AMNE16.jpg,AMNE18.jpg,AMNE18.jpg,MN,1,num_4,32,num_6,0.983457860537,,,2017_Nov_16_1058,60.0185381698,MAFE4ImagesEEG,001,102414,
AFNE01.JPG,AFNE01.JPG,AFNE01.JPG,AFNE01.JPG,AFNE01.JPG,AFNE01.JPG,,,,,,,,,4,8,48,9,,,,,,,,,,,,,,,AMSA06.jpg,AMSA14.jpg,AMNE05.jpg,AMNE03.jpg,AMNE05.jpg,MN,1,num_2,32,num_4,0.900110815186,,,2017_Nov_16_1058,60.0185381698,MAFE4ImagesEEG,001,102414,
AFNE01.JPG,AFNE01.JPG,AFNE01.JPG,AFNE01.JPG,AFNE01.JPG,AFNE01.JPG,,,,,,,,,4,9,49,5,,,,,,,,,,,,,,,AMSA04.jpg,AMNE06.jpg,AMNE10.jpg,AMSA12.jpg,AMSA12.jpg,MS,2,num_4,32,num_6,0.6501822602,,,2017_Nov_16_1058,60.0185381698,MAFE4ImagesEEG,001,102414,
AFNE01.JPG,AFNE01.JPG,AFNE01.JPG,AFNE01.JPG,AFNE01.JPG,AFNE01.JPG,,,,,,,,,5,0,50,5,,,,,,,,,,,,,,,AMNE14.jpg,AMSA16.jpg,AMNE10.jpg,AMSA12.jpg,AMSA12.jpg,MS,2,num_4,16,num_4,0.933466760907,,,2017_Nov_16_1058,60.0185381698,MAFE4ImagesEEG,001,102414,
AFNE01.JPG,AFNE01.JPG,AFNE01.JPG,AFNE01.JPG,AFNE01.JPG,AFNE01.JPG,,,,,,,,,5,1,51,1,,,,,,,,,,,,,,,AMNE14.jpg,AMSA04.jpg,AMNE08.jpg,AMSA06.jpg,AMSA06.jpg,MS,2,num_4,16,num_4,0.850077699404,,,2017_Nov_16_1058,60.0185381698,MAFE4ImagesEEG,001,102414,
AFNE01.JPG,AFNE01.JPG,AFNE01.JPG,AFNE01.JPG,AFNE01.JPG,AFNE01.JPG,,,,,,,,,5,2,52,6,,,,,,,,,,,,,,,AMNE07.jpg,AMSA19.jpg,AMSA07.jpg,AMNE15.jpg,AMSA19.jpg,MS,2,num_6,16,num_6,1.71668470837,,,2017_Nov_16_1058,60.0185381698,MAFE4ImagesEEG,001,102414,
AFNE01.JPG,AFNE01.JPG,AFNE01.JPG,AFNE01.JPG,AFNE01.JPG,AFNE01.JPG,,,,,,,,,5,3,53,3,,,,,,,,,,,,,,,AMSA16.jpg,AMSA06.jpg,AMNE18.jpg,AMNE12.jpg,AMNE12.jpg,MN,1,num_4,32,num_6,0.983461068012,,,2017_Nov_16_1058,60.0185381698,MAFE4ImagesEEG,001,102414,
AFNE01.JPG,AFNE01.JPG,AFNE01.JPG,AFNE01.JPG,AFNE01.JPG,AFNE01.JPG,,,,,,,,,5,4,54,0,,,,,,,,,,,,,,,AMNE18.jpg,AMNE09.jpg,AMSA12.jpg,AMSA18.jpg,AMSA18.jpg,MS,2,num_4,16,num_4,2.01669737743,,,2017_Nov_16_1058,60.0185381698,MAFE4ImagesEEG,001,102414,
AFNE01.JPG,AFNE01.JPG,AFNE01.JPG,AFNE01.JPG,AFNE01.JPG,AFNE01.JPG,,,,,,,,,5,5,55,2,,,,,,,,,,,,,,,AMNE11.jpg,AMNE16.jpg,AMSA20.jpg,AMSA02.jpg,AMNE16.jpg,MN,1,num_6,16,num_6,1.21673682844,,,2017_Nov_16_1058,60.0185381698,MAFE4ImagesEEG,001,102414,
AFNE01.JPG,AFNE01.JPG,AFNE01.JPG,AFNE01.JPG,AFNE01.JPG,AFNE01.JPG,,,,,,,,,5,6,56,4,,,,,,,,,,,,,,,AMSA02.jpg,AMNE14.jpg,AMNE02.jpg,AMSA20.jpg,AMNE02.jpg,MN,1,num_2,16,num_2,0.850108490326,,,2017_Nov_16_1058,60.0185381698,MAFE4ImagesEEG,001,102414,
AFNE01.JPG,AFNE01.JPG,AFNE01.JPG,AFNE01.JPG,AFNE01.JPG,AFNE01.JPG,,,,,,,,,5,7,57,7,,,,,,,,,,,,,,,AMNE11.jpg,AMNE09.jpg,AMSA05.jpg,AMSA20.jpg,AMNE09.jpg,MN,1,num_6,32,num_4,1.00012637163,,,2017_Nov_16_1058,60.0185381698,MAFE4ImagesEEG,001,102414,
AFNE01.JPG,AFNE01.JPG,AFNE01.JPG,AFNE01.JPG,AFNE01.JPG,AFNE01.JPG,,,,,,,,,5,8,58,9,,,,,,,,,,,,,,,AMSA15.jpg,AMNE14.jpg,AMNE03.jpg,AMSA18.jpg,AMSA18.jpg,MS,2,num_4,32,num_2,1.01672496088,,,2017_Nov_16_1058,60.0185381698,MAFE4ImagesEEG,001,102414,
AFNE01.JPG,AFNE01.JPG,AFNE01.JPG,AFNE01.JPG,AFNE01.JPG,AFNE01.JPG,,,,,,,,,5,9,59,8,,,,,,,,,,,,,,,AMNE15.jpg,AMSA03.jpg,AMNE01.jpg,AMSA14.jpg,AMNE01.jpg,MN,1,num_2,32,num_8,1.0334617896,,,2017_Nov_16_1058,60.0185381698,MAFE4ImagesEEG,001,102414,
,,,,,,,,,,,,,,,,,,,,,,,,,,,,,,,,,,,,,,,,,,,space,23.6480015521,2017_Nov_16_1058,60.0185381698,MAFE4ImagesEEG,001,102414,
AFNE01.JPG,AFNE01.JPG,AFNE01.JPG,AFNE01.JPG,AFNE01.JPG,AFNE01.JPG,,,,,,,,,,,,,0,0,0,1,,,,,,,,,,,AFSA05.jpg,AFSA14.jpg,AFNE18.jpg,AFNE05.jpg,AFNE18.jpg,FN,3,num_2,16,num_2,1.70009317482,,,2017_Nov_16_1058,60.0185381698,MAFE4ImagesEEG,001,102414,
AFNE01.JPG,AFNE01.JPG,AFNE01.JPG,AFNE01.JPG,AFNE01.JPG,AFNE01.JPG,,,,,,,,,,,,,0,1,1,8,,,,,,,,,,,AFSA08.jpg,AFNE08.jpg,AFNE19.jpg,AFSA11.jpg,AFNE08.jpg,FN,3,num_6,32,num_8,0.750430993736,,,2017_Nov_16_1058,60.0185381698,MAFE4ImagesEEG,001,102414,
AFNE01.JPG,AFNE01.JPG,AFNE01.JPG,AFNE01.JPG,AFNE01.JPG,AFNE01.JPG,,,,,,,,,,,,,0,2,2,3,,,,,,,,,,,AFSA09.jpg,AFNE07.jpg,AFNE10.jpg,AFSA12.jpg,AFNE07.jpg,FN,3,num_6,16,num_6,0.516818135977,,,2017_Nov_16_1058,60.0185381698,MAFE4ImagesEEG,001,102414,
AFNE01.JPG,AFNE01.JPG,AFNE01.JPG,AFNE01.JPG,AFNE01.JPG,AFNE01.JPG,,,,,,,,,,,,,0,3,3,9,,,,,,,,,,,AFNE19.jpg,AFSA18.jpg,AFSA06.jpg,AFNE06.jpg,AFSA18.jpg,FS,4,num_6,32,num_2,0.516792797484,,,2017_Nov_16_1058,60.0185381698,MAFE4ImagesEEG,001,102414,
AFNE01.JPG,AFNE01.JPG,AFNE01.JPG,AFNE01.JPG,AFNE01.JPG,AFNE01.JPG,,,,,,,,,,,,,0,4,4,7,,,,,,,,,,,AFSA13.jpg,AFSA10.jpg,AFNE16.jpg,AFNE18.jpg,AFSA13.jpg,FS,4,num_8,16,num_8,0.800202066079,,,2017_Nov_16_1058,60.0185381698,MAFE4ImagesEEG,001,102414,
AFNE01.JPG,AFNE01.JPG,AFNE01.JPG,AFNE01.JPG,AFNE01.JPG,AFNE01.JPG,,,,,,,,,,,,,0,5,5,6,,,,,,,,,,,AFSA19.jpg,AFNE14.jpg,AFNE05.jpg,AFSA16.jpg,AFSA19.jpg,FS,4,num_8,32,num_4,0.566785500851,,,2017_Nov_16_1058,60.0185381698,MAFE4ImagesEEG,001,102414,
AFNE01.JPG,AFNE01.JPG,AFNE01.JPG,AFNE01.JPG,AFNE01.JPG,AFNE01.JPG,,,,,,,,,,,,,0,6,6,5,,,,,,,,,,,AFSA02.jpg,AFNE12.jpg,AFSA03.jpg,AFNE05.jpg,AFSA03.jpg,FS,4,num_2,32,num_8,0.79700461356,,,2017_Nov_16_1058,60.0185381698,MAFE4ImagesEEG,001,102414,
AFNE01.JPG,AFNE01.JPG,AFNE01.JPG,AFNE01.JPG,AFNE01.JPG,AFNE01.JPG,,,,,,,,,,,,,0,7,7,0,,,,,,,,,,,AFSA01.jpg,AFNE09.jpg,AFSA13.jpg,AFNE04.jpg,AFSA01.jpg,FS,4,num_8,32,num_6,0.666756152641,,,2017_Nov_16_1058,60.0185381698,MAFE4ImagesEEG,001,102414,
AFNE01.JPG,AFNE01.JPG,AFNE01.JPG,AFNE01.JPG,AFNE01.JPG,AFNE01.JPG,,,,,,,,,,,,,0,8,8,2,,,,,,,,,,,AFSA07.jpg,AFNE19.jpg,AFNE02.jpg,AFSA12.jpg,AFSA07.jpg,FS,4,num_8,32,num_2,0.783476142678,,,2017_Nov_16_1058,60.0185381698,MAFE4ImagesEEG,001,102414,
AFNE01.JPG,AFNE01.JPG,AFNE01.JPG,AFNE01.JPG,AFNE01.JPG,AFNE01.JPG,,,,,,,,,,,,,0,9,9,4,,,,,,,,,,,AFNE19.jpg,AFSA04.jpg,AFSA18.jpg,AFNE06.jpg,AFNE06.jpg,FN,3,num_4,32,num_8,0.583439257927,,,2017_Nov_16_1058,60.0185381698,MAFE4ImagesEEG,001,102414,
AFNE01.JPG,AFNE01.JPG,AFNE01.JPG,AFNE01.JPG,AFNE01.JPG,AFNE01.JPG,,,,,,,,,,,,,1,0,10,4,,,,,,,,,,,AFSA20.jpg,AFNE20.jpg,AFSA09.jpg,AFNE14.jpg,AFSA20.jpg,FS,4,num_8,32,num_2,0.483510301448,,,2017_Nov_16_1058,60.0185381698,MAFE4ImagesEEG,001,102414,
AFNE01.JPG,AFNE01.JPG,AFNE01.JPG,AFNE01.JPG,AFNE01.JPG,AFNE01.JPG,,,,,,,,,,,,,1,1,11,0,,,,,,,,,,,AFSA07.jpg,AFNE20.jpg,AFNE14.jpg,AFSA20.jpg,AFNE20.jpg,FN,3,num_6,32,num_8,0.783491537906,,,2017_Nov_16_1058,60.0185381698,MAFE4ImagesEEG,001,102414,
AFNE01.JPG,AFNE01.JPG,AFNE01.JPG,AFNE01.JPG,AFNE01.JPG,AFNE01.JPG,,,,,,,,,,,,,1,2,12,3,,,,,,,,,,,AFNE07.jpg,AFSA18.jpg,AFNE15.jpg,AFSA06.jpg,AFSA06.jpg,FS,4,num_4,32,num_6,0.883454171941,,,2017_Nov_16_1058,60.0185381698,MAFE4ImagesEEG,001,102414,
AFNE01.JPG,AFNE01.JPG,AFNE01.JPG,AFNE01.JPG,AFNE01.JPG,AFNE01.JPG,,,,,,,,,,,,,1,3,13,9,,,,,,,,,,,AFNE07.jpg,AFSA08.jpg,AFNE12.jpg,AFSA04.jpg,AFNE07.jpg,FN,3,num_8,16,num_8,0.666822225321,,,2017_Nov_16_1058,60.0185381698,MAFE4ImagesEEG,001,102414,
AFNE01.JPG,AFNE01.JPG,AFNE01.JPG,AFNE01.JPG,AFNE01.JPG,AFNE01.JPG,,,,,,,,,,,,,1,4,14,8,,,,,,,,,,,AFNE18.jpg,AFSA13.jpg,AFSA07.jpg,AFNE02.jpg,AFSA07.jpg,FS,4,num_2,32,num_8,1.50011145696,,,2017_Nov_16_1058,60.0185381698,MAFE4ImagesEEG,001,102414,
AFNE01.JPG,AFNE01.JPG,AFNE01.JPG,AFNE01.JPG,AFNE01.JPG,AFNE01.JPG,,,,,,,,,,,,,1,5,15,2,,,,,,,,,,,AFNE13.jpg,AFSA17.jpg,AFSA05.jpg,AFNE18.jpg,AFNE13.jpg,FN,3,num_8,32,num_6,1.20007858146,,,2017_Nov_16_1058,60.0185381698,MAFE4ImagesEEG,001,102414,
AFNE01.JPG,AFNE01.JPG,AFNE01.JPG,AFNE01.JPG,AFNE01.JPG,AFNE01.JPG,,,,,,,,,,,,,1,6,16,1,,,,,,,,,,,AFNE04.jpg,AFNE18.jpg,AFSA14.jpg,AFSA07.jpg,AFNE04.jpg,FN,3,num_8,32,num_2,1.03347237362,,,2017_Nov_16_1058,60.0185381698,MAFE4ImagesEEG,001,102414,
AFNE01.JPG,AFNE01.JPG,AFNE01.JPG,AFNE01.JPG,AFNE01.JPG,AFNE01.JPG,,,,,,,,,,,,,1,7,17,7,,,,,,,,,,,AFSA19.jpg,AFNE07.jpg,AFSA15.jpg,AFNE16.jpg,AFSA19.jpg,FS,4,num_8,32,num_6,0.950096142013,,,2017_Nov_16_1058,60.0185381698,MAFE4ImagesEEG,001,102414,
AFNE01.JPG,AFNE01.JPG,AFNE01.JPG,AFNE01.JPG,AFNE01.JPG,AFNE01.JPG,,,,,,,,,,,,,1,8,18,6,,,,,,,,,,,AFSA02.jpg,AFNE04.jpg,AFSA08.jpg,AFNE17.jpg,AFSA08.jpg,FS,4,num_2,16,num_2,0.866769944783,,,2017_Nov_16_1058,60.0185381698,MAFE4ImagesEEG,001,102414,
AFNE01.JPG,AFNE01.JPG,AFNE01.JPG,AFNE01.JPG,AFNE01.JPG,AFNE01.JPG,,,,,,,,,,,,,1,9,19,5,,,,,,,,,,,AFNE13.jpg,AFNE16.jpg,AFSA17.jpg,AFSA19.jpg,AFNE13.jpg,FN,3,num_8,32,num_2,1.0667600017,,,2017_Nov_16_1058,60.0185381698,MAFE4ImagesEEG,001,102414,
AFNE01.JPG,AFNE01.JPG,AFNE01.JPG,AFNE01.JPG,AFNE01.JPG,AFNE01.JPG,,,,,,,,,,,,,2,0,20,2,,,,,,,,,,,AFSA02.jpg,AFSA08.jpg,AFNE20.jpg,AFNE13.jpg,AFNE20.jpg,FN,3,num_2,32,num_8,0.983471010812,,,2017_Nov_16_1058,60.0185381698,MAFE4ImagesEEG,001,102414,
AFNE01.JPG,AFNE01.JPG,AFNE01.JPG,AFNE01.JPG,AFNE01.JPG,AFNE01.JPG,,,,,,,,,,,,,2,1,21,6,,,,,,,,,,,AFNE04.jpg,AFSA07.jpg,AFSA18.jpg,AFNE03.jpg,AFNE04.jpg,FN,3,num_8,32,num_2,0.916771949269,,,2017_Nov_16_1058,60.0185381698,MAFE4ImagesEEG,001,102414,
AFNE01.JPG,AFNE01.JPG,AFNE01.JPG,AFNE01.JPG,AFNE01.JPG,AFNE01.JPG,,,,,,,,,,,,,2,2,22,3,,,,,,,,,,,AFNE13.jpg,AFSA01.jpg,AFNE17.jpg,AFSA12.jpg,AFSA01.jpg,FS,4,num_6,16,num_6,0.650174883194,,,2017_Nov_16_1058,60.0185381698,MAFE4ImagesEEG,001,102414,
AFNE01.JPG,AFNE01.JPG,AFNE01.JPG,AFNE01.JPG,AFNE01.JPG,AFNE01.JPG,,,,,,,,,,,,,2,3,23,0,,,,,,,,,,,AFNE01.jpg,AFSA16.jpg,AFNE17.jpg,AFSA15.jpg,AFNE01.jpg,FN,3,num_8,16,num_8,1.00012316415,,,2017_Nov_16_1058,60.0185381698,MAFE4ImagesEEG,001,102414,
AFNE01.JPG,AFNE01.JPG,AFNE01.JPG,AFNE01.JPG,AFNE01.JPG,AFNE01.JPG,,,,,,,,,,,,,2,4,24,8,,,,,,,,,,,AFSA19.jpg,AFSA02.jpg,AFNE01.jpg,AFNE12.jpg,AFNE12.jpg,FN,3,num_4,16,num_4,1.00037366152,,,2017_Nov_16_1058,60.0185381698,MAFE4ImagesEEG,001,102414,
AFNE01.JPG,AFNE01.JPG,AFNE01.JPG,AFNE01.JPG,AFNE01.JPG,AFNE01.JPG,,,,,,,,,,,,,2,5,25,9,,,,,,,,,,,AFSA12.jpg,AFSA13.jpg,AFNE20.jpg,AFNE08.jpg,AFSA12.jpg,FS,4,num_8,16,num_8,1.35006438848,,,2017_Nov_16_1058,60.0185381698,MAFE4ImagesEEG,001,102414,
AFNE01.JPG,AFNE01.JPG,AFNE01.JPG,AFNE01.JPG,AFNE01.JPG,AFNE01.JPG,,,,,,,,,,,,,2,6,26,4,,,,,,,,,,,AFNE15.jpg,AFNE08.jpg,AFSA11.jpg,AFSA16.jpg,AFNE08.jpg,FN,3,num_6,32,num_2,0.78344759671,,,2017_Nov_16_1058,60.0185381698,MAFE4ImagesEEG,001,102414,
AFNE01.JPG,AFNE01.JPG,AFNE01.JPG,AFNE01.JPG,AFNE01.JPG,AFNE01.JPG,,,,,,,,,,,,,2,7,27,7,,,,,,,,,,,AFNE13.jpg,AFNE03.jpg,AFSA05.jpg,AFSA10.jpg,AFSA10.jpg,FS,4,num_4,32,num_6,0.633470128756,,,2017_Nov_16_1058,60.0185381698,MAFE4ImagesEEG,001,102414,
AFNE01.JPG,AFNE01.JPG,AFNE01.JPG,AFNE01.JPG,AFNE01.JPG,AFNE01.JPG,,,,,,,,,,,,,2,8,28,5,,,,,,,,,,,AFSA14.jpg,AFSA18.jpg,AFNE02.jpg,AFNE09.jpg,AFNE09.jpg,FN,3,num_4,32,num_8,0.883446794935,,,2017_Nov_16_1058,60.0185381698,MAFE4ImagesEEG,001,102414,
AFNE01.JPG,AFNE01.JPG,AFNE01.JPG,AFNE01.JPG,AFNE01.JPG,AFNE01.JPG,,,,,,,,,,,,,2,9,29,1,,,,,,,,,,,AFSA01.jpg,AFSA14.jpg,AFNE19.jpg,AFNE20.jpg,AFSA14.jpg,FS,4,num_6,32,num_4,1.01680322178,,,2017_Nov_16_1058,60.0185381698,MAFE4ImagesEEG,001,102414,
AFNE01.JPG,AFNE01.JPG,AFNE01.JPG,AFNE01.JPG,AFNE01.JPG,AFNE01.JPG,,,,,,,,,,,,,3,0,30,1,,,,,,,,,,,AFNE04.jpg,AFNE05.jpg,AFSA04.jpg,AFSA15.jpg,AFSA04.jpg,FS,4,num_2,32,num_6,0.716747573111,,,2017_Nov_16_1058,60.0185381698,MAFE4ImagesEEG,001,102414,
AFNE01.JPG,AFNE01.JPG,AFNE01.JPG,AFNE01.JPG,AFNE01.JPG,AFNE01.JPG,,,,,,,,,,,,,3,1,31,7,,,,,,,,,,,AFNE01.jpg,AFSA04.jpg,AFNE11.jpg,AFSA16.jpg,AFNE01.jpg,FN,3,num_8,32,num_2,0.883450643625,,,2017_Nov_16_1058,60.0185381698,MAFE4ImagesEEG,001,102414,
AFNE01.JPG,AFNE01.JPG,AFNE01.JPG,AFNE01.JPG,AFNE01.JPG,AFNE01.JPG,,,,,,,,,,,,,3,2,32,5,,,,,,,,,,,AFNE14.jpg,AFNE15.jpg,AFSA19.jpg,AFSA08.jpg,AFNE14.jpg,FN,3,num_8,16,num_8,1.5830793879,,,2017_Nov_16_1058,60.0185381698,MAFE4ImagesEEG,001,102414,
AFNE01.JPG,AFNE01.JPG,AFNE01.JPG,AFNE01.JPG,AFNE01.JPG,AFNE01.JPG,,,,,,,,,,,,,3,3,33,0,,,,,,,,,,,AFNE14.jpg,AFSA08.jpg,AFNE03.jpg,AFSA03.jpg,AFNE03.jpg,FN,3,num_2,32,num_6,1.30016277498,,,2017_Nov_16_1058,60.0185381698,MAFE4ImagesEEG,001,102414,
AFNE01.JPG,AFNE01.JPG,AFNE01.JPG,AFNE01.JPG,AFNE01.JPG,AFNE01.JPG,,,,,,,,,,,,,3,4,34,9,,,,,,,,,,,AFNE02.jpg,AFSA17.jpg,AFSA15.jpg,AFNE13.jpg,AFNE02.jpg,FN,3,num_8,32,num_4,1.31676264806,,,2017_Nov_16_1058,60.0185381698,MAFE4ImagesEEG,001,102414,
AFNE01.JPG,AFNE01.JPG,AFNE01.JPG,AFNE01.JPG,AFNE01.JPG,AFNE01.JPG,,,,,,,,,,,,,3,5,35,6,,,,,,,,,,,AFNE02.jpg,AFSA16.jpg,AFNE17.jpg,AFSA11.jpg,AFSA16.jpg,FS,4,num_6,16,num_6,1.08329733042,,,2017_Nov_16_1058,60.0185381698,MAFE4ImagesEEG,001,102414,
AFNE01.JPG,AFNE01.JPG,AFNE01.JPG,AFNE01.JPG,AFNE01.JPG,AFNE01.JPG,,,,,,,,,,,,,3,6,36,4,,,,,,,,,,,AFNE17.jpg,AFSA05.jpg,AFSA07.jpg,AFNE03.jpg,AFNE03.jpg,FN,3,num_4,16,num_4,0.816738111433,,,2017_Nov_16_1058,60.0185381698,MAFE4ImagesEEG,001,102414,
AFNE01.JPG,AFNE01.JPG,AFNE01.JPG,AFNE01.JPG,AFNE01.JPG,AFNE01.JPG,,,,,,,,,,,,,3,7,37,3,,,,,,,,,,,AFNE17.jpg,AFSA14.jpg,AFNE19.jpg,AFSA12.jpg,AFNE19.jpg,FN,3,num_2,32,num_6,1.26672022976,,,2017_Nov_16_1058,60.0185381698,MAFE4ImagesEEG,001,102414,
AFNE01.JPG,AFNE01.JPG,AFNE01.JPG,AFNE01.JPG,AFNE01.JPG,AFNE01.JPG,,,,,,,,,,,,,3,8,38,8,,,,,,,,,,,AFNE06.jpg,AFNE05.jpg,AFSA02.jpg,AFSA13.jpg,AFSA13.jpg,FS,4,num_4,16,num_4,0.983421296347,,,2017_Nov_16_1058,60.0185381698,MAFE4ImagesEEG,001,102414,
AFNE01.JPG,AFNE01.JPG,AFNE01.JPG,AFNE01.JPG,AFNE01.JPG,AFNE01.JPG,,,,,,,,,,,,,3,9,39,2,,,,,,,,,,,AFNE12.jpg,AFNE18.jpg,AFSA16.jpg,AFSA19.jpg,AFSA16.jpg,FS,4,num_2,32,num_4,0.733459384181,,,2017_Nov_16_1058,60.0185381698,MAFE4ImagesEEG,001,102414,
AFNE01.JPG,AFNE01.JPG,AFNE01.JPG,AFNE01.JPG,AFNE01.JPG,AFNE01.JPG,,,,,,,,,,,,,4,0,40,4,,,,,,,,,,,AFSA07.jpg,AFNE09.jpg,AFNE19.jpg,AFSA01.jpg,AFNE19.jpg,FN,3,num_2,16,num_2,1.06673658779,,,2017_Nov_16_1058,60.0185381698,MAFE4ImagesEEG,001,102414,
AFNE01.JPG,AFNE01.JPG,AFNE01.JPG,AFNE01.JPG,AFNE01.JPG,AFNE01.JPG,,,,,,,,,,,,,4,1,41,8,,,,,,,,,,,AFNE10.jpg,AFSA12.jpg,AFSA14.jpg,AFNE01.jpg,AFSA14.jpg,FS,4,num_2,32,num_6,1.35005604941,,,2017_Nov_16_1058,60.0185381698,MAFE4ImagesEEG,001,102414,
AFNE01.JPG,AFNE01.JPG,AFNE01.JPG,AFNE01.JPG,AFNE01.JPG,AFNE01.JPG,,,,,,,,,,,,,4,2,42,5,,,,,,,,,,,AFNE01.jpg,AFNE20.jpg,AFSA11.jpg,AFSA12.jpg,AFSA11.jpg,FS,4,num_2,16,num_2,1.000126692,,,2017_Nov_16_1058,60.0185381698,MAFE4ImagesEEG,001,102414,
AFNE01.JPG,AFNE01.JPG,AFNE01.JPG,AFNE01.JPG,AFNE01.JPG,AFNE01.JPG,,,,,,,,,,,,,4,3,43,1,,,,,,,,,,,AFNE18.jpg,AFNE13.jpg,AFSA01.jpg,AFSA09.jpg,AFNE18.jpg,FN,3,num_8,32,num_6,1.0001507476,,,2017_Nov_16_1058,60.0185381698,MAFE4ImagesEEG,001,102414,
AFNE01.JPG,AFNE01.JPG,AFNE01.JPG,AFNE01.JPG,AFNE01.JPG,AFNE01.JPG,,,,,,,,,,,,,4,4,44,2,,,,,,,,,,,AFSA16.jpg,AFSA13.jpg,AFNE03.jpg,AFNE20.jpg,AFNE20.jpg,FN,3,num_4,32,num_8,0.816816692706,,,2017_Nov_16_1058,60.0185381698,MAFE4ImagesEEG,001,102414,
AFNE01.JPG,AFNE01.JPG,AFNE01.JPG,AFNE01.JPG,AFNE01.JPG,AFNE01.JPG,,,,,,,,,,,,,4,5,45,9,,,,,,,,,,,AFNE17.jpg,AFSA04.jpg,AFSA11.jpg,AFNE05.jpg,AFSA11.jpg,FS,4,num_2,32,num_6,1.10020062281,,,2017_Nov_16_1058,60.0185381698,MAFE4ImagesEEG,001,102414,
AFNE01.JPG,AFNE01.JPG,AFNE01.JPG,AFNE01.JPG,AFNE01.JPG,AFNE01.JPG,,,,,,,,,,,,,4,6,46,6,,,,,,,,,,,AFSA01.jpg,AFSA12.jpg,AFNE15.jpg,AFNE18.jpg,AFNE15.jpg,FN,3,num_2,32,num_4,0.750172156841,,,2017_Nov_16_1058,60.0185381698,MAFE4ImagesEEG,001,102414,
AFNE01.JPG,AFNE01.JPG,AFNE01.JPG,AFNE01.JPG,AFNE01.JPG,AFNE01.JPG,,,,,,,,,,,,,4,7,47,0,,,,,,,,,,,AFSA08.jpg,AFNE19.jpg,AFSA16.jpg,AFNE07.jpg,AFSA08.jpg,FS,4,num_8,32,num_2,1.35008459538,,,2017_Nov_16_1058,60.0185381698,MAFE4ImagesEEG,001,102414,
AFNE01.JPG,AFNE01.JPG,AFNE01.JPG,AFNE01.JPG,AFNE01.JPG,AFNE01.JPG,,,,,,,,,,,,,4,8,48,7,,,,,,,,,,,AFSA08.jpg,AFNE18.jpg,AFSA16.jpg,AFNE17.jpg,AFNE18.jpg,FN,3,num_6,16,num_6,1.06673498405,,,2017_Nov_16_1058,60.0185381698,MAFE4ImagesEEG,001,102414,
AFNE01.JPG,AFNE01.JPG,AFNE01.JPG,AFNE01.JPG,AFNE01.JPG,AFNE01.JPG,,,,,,,,,,,,,4,9,49,3,,,,,,,,,,,AFSA13.jpg,AFNE07.jpg,AFNE15.jpg,AFSA07.jpg,AFSA07.jpg,FS,4,num_4,32,num_8,0.95014810143,,,2017_Nov_16_1058,60.0185381698,MAFE4ImagesEEG,001,102414,
AFNE01.JPG,AFNE01.JPG,AFNE01.JPG,AFNE01.JPG,AFNE01.JPG,AFNE01.JPG,,,,,,,,,,,,,5,0,50,1,,,,,,,,,,,AFSA03.jpg,AFNE10.jpg,AFNE05.jpg,AFSA07.jpg,AFNE05.jpg,FN,3,num_2,32,num_4,1.70002870634,,,2017_Nov_16_1058,60.0185381698,MAFE4ImagesEEG,001,102414,
AFNE01.JPG,AFNE01.JPG,AFNE01.JPG,AFNE01.JPG,AFNE01.JPG,AFNE01.JPG,,,,,,,,,,,,,5,1,51,5,,,,,,,,,,,AFNE17.jpg,AFSA12.jpg,AFNE04.jpg,AFSA05.jpg,AFSA12.jpg,FS,4,num_6,16,num_6,0.600158765912,,,2017_Nov_16_1058,60.0185381698,MAFE4ImagesEEG,001,102414,
AFNE01.JPG,AFNE01.JPG,AFNE01.JPG,AFNE01.JPG,AFNE01.JPG,AFNE01.JPG,,,,,,,,,,,,,5,2,52,2,,,,,,,,,,,AFSA04.jpg,AFNE13.jpg,AFNE09.jpg,AFSA10.jpg,AFSA10.jpg,FS,4,num_4,32,num_8,0.766733540688,,,2017_Nov_16_1058,60.0185381698,MAFE4ImagesEEG,001,102414,
AFNE01.JPG,AFNE01.JPG,AFNE01.JPG,AFNE01.JPG,AFNE01.JPG,AFNE01.JPG,,,,,,,,,,,,,5,3,53,4,,,,,,,,,,,AFSA03.jpg,AFSA05.jpg,AFNE16.jpg,AFNE01.jpg,AFNE16.jpg,FN,3,num_2,32,num_4,0.766793519258,,,2017_Nov_16_1058,60.0185381698,MAFE4ImagesEEG,001,102414,
AFNE01.JPG,AFNE01.JPG,AFNE01.JPG,AFNE01.JPG,AFNE01.JPG,AFNE01.JPG,,,,,,,,,,,,,5,4,54,3,,,,,,,,,,,AFSA01.jpg,AFSA09.jpg,AFNE08.jpg,AFNE09.jpg,AFNE09.jpg,FN,3,num_4,32,num_2,0.800118353218,,,2017_Nov_16_1058,60.0185381698,MAFE4ImagesEEG,001,102414,
AFNE01.JPG,AFNE01.JPG,AFNE01.JPG,AFNE01.JPG,AFNE01.JPG,AFNE01.JPG,,,,,,,,,,,,,5,5,55,6,,,,,,,,,,,AFSA04.jpg,AFNE05.jpg,AFSA11.jpg,AFNE14.jpg,AFSA11.jpg,FS,4,num_2,32,num_6,0.616853898391,,,2017_Nov_16_1058,60.0185381698,MAFE4ImagesEEG,001,102414,
AFNE01.JPG,AFNE01.JPG,AFNE01.JPG,AFNE01.JPG,AFNE01.JPG,AFNE01.JPG,,,,,,,,,,,,,5,6,56,7,,,,,,,,,,,AFNE16.jpg,AFSA12.jpg,AFSA15.jpg,AFNE09.jpg,AFNE09.jpg,FN,3,num_4,16,num_4,0.566760803573,,,2017_Nov_16_1058,60.0185381698,MAFE4ImagesEEG,001,102414,
AFNE01.JPG,AFNE01.JPG,AFNE01.JPG,AFNE01.JPG,AFNE01.JPG,AFNE01.JPG,,,,,,,,,,,,,5,7,57,9,,,,,,,,,,,AFNE16.jpg,AFSA16.jpg,AFNE01.jpg,AFSA08.jpg,AFSA08.jpg,FS,4,num_4,32,num_8,0.983489293139,,,2017_Nov_16_1058,60.0185381698,MAFE4ImagesEEG,001,102414,
AFNE01.JPG,AFNE01.JPG,AFNE01.JPG,AFNE01.JPG,AFNE01.JPG,AFNE01.JPG,,,,,,,,,,,,,5,8,58,8,,,,,,,,,,,AFSA02.jpg,AFNE20.jpg,AFSA04.jpg,AFNE19.jpg,AFNE19.jpg,FN,3,num_4,32,num_2,1.28330374509,,,2017_Nov_16_1058,60.0185381698,MAFE4ImagesEEG,001,102414,
AFNE01.JPG,AFNE01.JPG,AFNE01.JPG,AFNE01.JPG,AFNE01.JPG,AFNE01.JPG,,,,,,,,,,,,,5,9,59,0,,,,,,,,,,,AFSA03.jpg,AFNE05.jpg,AFNE18.jpg,AFSA05.jpg,AFSA03.jpg,FS,4,num_8,32,num_2,0.900199339259,,,2017_Nov_16_1058,60.0185381698,MAFE4ImagesEEG,001,102414,
,,,,,,,,,,,,,,,,,,,,,,,,,,,,,,,,,,,,,,,,,,,space,33.2304317635,2017_Nov_16_1058,60.0185381698,MAFE4ImagesEEG,001,102414,
AFNE01.JPG,AFNE01.JPG,AFNE01.JPG,AFNE01.JPG,AFNE01.JPG,AFNE01.JPG,,,,,,,,,,,,,,,,,0,0,0,3,,,,,,,AMSA02.jpg,AMNE14.jpg,AMNE12.jpg,AMSA03.jpg,AMNE14.jpg,MN,1,num_6,16,num_6,0.933476383332,,,2017_Nov_16_1058,60.0185381698,MAFE4ImagesEEG,001,102414,
AFNE01.JPG,AFNE01.JPG,AFNE01.JPG,AFNE01.JPG,AFNE01.JPG,AFNE01.JPG,,,,,,,,,,,,,,,,,0,1,1,7,,,,,,,AMNE19.jpg,AMSA08.jpg,AMSA16.jpg,AMNE04.jpg,AMNE19.jpg,MN,1,num_8,16,num_8,0.866798169911,,,2017_Nov_16_1058,60.0185381698,MAFE4ImagesEEG,001,102414,
AFNE01.JPG,AFNE01.JPG,AFNE01.JPG,AFNE01.JPG,AFNE01.JPG,AFNE01.JPG,,,,,,,,,,,,,,,,,0,2,2,6,,,,,,,AMSA16.jpg,AMSA05.jpg,AMNE09.jpg,AMNE13.jpg,AMNE09.jpg,MN,1,num_2,32,num_6,0.83344863914,,,2017_Nov_16_1058,60.0185381698,MAFE4ImagesEEG,001,102414,
AFNE01.JPG,AFNE01.JPG,AFNE01.JPG,AFNE01.JPG,AFNE01.JPG,AFNE01.JPG,,,,,,,,,,,,,,,,,0,3,3,0,,,,,,,AMSA12.jpg,AMNE18.jpg,AMSA16.jpg,AMNE08.jpg,AMNE18.jpg,MN,1,num_6,16,num_6,1.36670595733,,,2017_Nov_16_1058,60.0185381698,MAFE4ImagesEEG,001,102414,
AFNE01.JPG,AFNE01.JPG,AFNE01.JPG,AFNE01.JPG,AFNE01.JPG,AFNE01.JPG,,,,,,,,,,,,,,,,,0,4,4,4,,,,,,,AMNE08.jpg,AMSA12.jpg,AMSA07.jpg,AMNE15.jpg,AMSA07.jpg,MS,2,num_2,32,num_4,0.783482878469,,,2017_Nov_16_1058,60.0185381698,MAFE4ImagesEEG,001,102414,
AFNE01.JPG,AFNE01.JPG,AFNE01.JPG,AFNE01.JPG,AFNE01.JPG,AFNE01.JPG,,,,,,,,,,,,,,,,,0,5,5,1,,,,,,,AMSA02.jpg,AMSA01.jpg,AMNE01.jpg,AMNE18.jpg,AMSA02.jpg,MS,2,num_8,32,num_2,2.23337871768,,,2017_Nov_16_1058,60.0185381698,MAFE4ImagesEEG,001,102414,
AFNE01.JPG,AFNE01.JPG,AFNE01.JPG,AFNE01.JPG,AFNE01.JPG,AFNE01.JPG,,,,,,,,,,,,,,,,,0,6,6,8,,,,,,,AMNE08.jpg,AMNE20.jpg,AMSA17.jpg,AMSA20.jpg,AMNE08.jpg,MN,1,num_8,16,num_8,0.61676377058,,,2017_Nov_16_1058,60.0185381698,MAFE4ImagesEEG,001,102414,
AFNE01.JPG,AFNE01.JPG,AFNE01.JPG,AFNE01.JPG,AFNE01.JPG,AFNE01.JPG,,,,,,,,,,,,,,,,,0,7,7,5,,,,,,,AMNE03.jpg,AMNE10.jpg,AMSA18.jpg,AMSA10.jpg,AMNE03.jpg,MN,1,num_8,32,num_4,1.11680049542,,,2017_Nov_16_1058,60.0185381698,MAFE4ImagesEEG,001,102414,
AFNE01.JPG,AFNE01.JPG,AFNE01.JPG,AFNE01.JPG,AFNE01.JPG,AFNE01.JPG,,,,,,,,,,,,,,,,,0,8,8,9,,,,,,,AMSA05.jpg,AMSA20.jpg,AMNE06.jpg,AMNE01.jpg,AMSA20.jpg,MS,2,num_6,32,num_8,1.16673706891,,,2017_Nov_16_1058,60.0185381698,MAFE4ImagesEEG,001,102414,
AFNE01.JPG,AFNE01.JPG,AFNE01.JPG,AFNE01.JPG,AFNE01.JPG,AFNE01.JPG,,,,,,,,,,,,,,,,,0,9,9,2,,,,,,,AMSA13.jpg,AMNE16.jpg,AMNE17.jpg,AMSA06.jpg,AMNE17.jpg,MN,1,num_2,32,num_6,0.800116107799,,,2017_Nov_16_1058,60.0185381698,MAFE4ImagesEEG,001,102414,
AFNE01.JPG,AFNE01.JPG,AFNE01.JPG,AFNE01.JPG,AFNE01.JPG,AFNE01.JPG,,,,,,,,,,,,,,,,,1,0,10,0,,,,,,,AMSA01.jpg,AMSA11.jpg,AMNE16.jpg,AMNE20.jpg,AMSA11.jpg,MS,2,num_6,32,num_8,0.916764893103,,,2017_Nov_16_1058,60.0185381698,MAFE4ImagesEEG,001,102414,
AFNE01.JPG,AFNE01.JPG,AFNE01.JPG,AFNE01.JPG,AFNE01.JPG,AFNE01.JPG,,,,,,,,,,,,,,,,,1,1,11,7,,,,,,,AMNE16.jpg,AMSA11.jpg,AMSA01.jpg,AMNE08.jpg,AMSA01.jpg,MS,2,num_2,32,num_4,0.86672183359,,,2017_Nov_16_1058,60.0185381698,MAFE4ImagesEEG,001,102414,
AFNE01.JPG,AFNE01.JPG,AFNE01.JPG,AFNE01.JPG,AFNE01.JPG,AFNE01.JPG,,,,,,,,,,,,,,,,,1,2,12,5,,,,,,,AMSA05.jpg,AMNE13.jpg,AMSA04.jpg,AMNE09.jpg,AMSA05.jpg,MS,2,num_8,16,num_8,0.766731616575,,,2017_Nov_16_1058,60.0185381698,MAFE4ImagesEEG,001,102414,
AFNE01.JPG,AFNE01.JPG,AFNE01.JPG,AFNE01.JPG,AFNE01.JPG,AFNE01.JPG,,,,,,,,,,,,,,,,,1,3,13,9,,,,,,,AMSA04.jpg,AMNE12.jpg,AMNE20.jpg,AMSA20.jpg,AMNE20.jpg,MN,1,num_2,16,num_2,1.26673402218,,,2017_Nov_16_1058,60.0185381698,MAFE4ImagesEEG,001,102414,
AFNE01.JPG,AFNE01.JPG,AFNE01.JPG,AFNE01.JPG,AFNE01.JPG,AFNE01.JPG,,,,,,,,,,,,,,,,,1,4,14,3,,,,,,,AMSA08.jpg,AMNE15.jpg,AMSA01.jpg,AMNE01.jpg,AMSA08.jpg,MS,2,num_8,16,num_8,0.866779567208,,,2017_Nov_16_1058,60.0185381698,MAFE4ImagesEEG,001,102414,
AFNE01.JPG,AFNE01.JPG,AFNE01.JPG,AFNE01.JPG,AFNE01.JPG,AFNE01.JPG,,,,,,,,,,,,,,,,,1,5,15,8,,,,,,,AMNE04.jpg,AMSA02.jpg,AMSA01.jpg,AMNE15.jpg,AMSA02.jpg,MS,2,num_6,32,num_4,1.08343653148,,,2017_Nov_16_1058,60.0185381698,MAFE4ImagesEEG,001,102414,
AFNE01.JPG,AFNE01.JPG,AFNE01.JPG,AFNE01.JPG,AFNE01.JPG,AFNE01.JPG,,,,,,,,,,,,,,,,,1,6,16,2,,,,,,,AMSA01.jpg,AMNE01.jpg,AMSA03.jpg,AMNE10.jpg,AMSA01.jpg,MS,2,num_8,32,num_6,0.900139040779,,,2017_Nov_16_1058,60.0185381698,MAFE4ImagesEEG,001,102414,
AFNE01.JPG,AFNE01.JPG,AFNE01.JPG,AFNE01.JPG,AFNE01.JPG,AFNE01.JPG,,,,,,,,,,,,,,,,,1,7,17,6,,,,,,,AMNE17.jpg,AMNE06.jpg,AMSA11.jpg,AMSA08.jpg,AMSA08.jpg,MS,2,num_4,32,num_2,1.13342891354,,,2017_Nov_16_1058,60.0185381698,MAFE4ImagesEEG,001,102414,
AFNE01.JPG,AFNE01.JPG,AFNE01.JPG,AFNE01.JPG,AFNE01.JPG,AFNE01.JPG,,,,,,,,,,,,,,,,,1,8,18,1,,,,,,,AMNE12.jpg,AMNE19.jpg,AMSA15.jpg,AMSA09.jpg,AMSA09.jpg,MS,2,num_4,16,num_4,0.933422819246,,,2017_Nov_16_1058,60.0185381698,MAFE4ImagesEEG,001,102414,
AFNE01.JPG,AFNE01.JPG,AFNE01.JPG,AFNE01.JPG,AFNE01.JPG,AFNE01.JPG,,,,,,,,,,,,,,,,,1,9,19,4,,,,,,,AMNE02.jpg,AMSA19.jpg,AMSA12.jpg,AMNE09.jpg,AMSA19.jpg,MS,2,num_6,16,num_6,0.783440219704,,,2017_Nov_16_1058,60.0185381698,MAFE4ImagesEEG,001,102414,
AFNE01.JPG,AFNE01.JPG,AFNE01.JPG,AFNE01.JPG,AFNE01.JPG,AFNE01.JPG,,,,,,,,,,,,,,,,,2,0,20,3,,,,,,,AMNE08.jpg,AMSA08.jpg,AMSA01.jpg,AMNE07.jpg,AMSA08.jpg,MS,2,num_6,32,num_8,1.03348969389,,,2017_Nov_16_1058,60.0185381698,MAFE4ImagesEEG,001,102414,
AFNE01.JPG,AFNE01.JPG,AFNE01.JPG,AFNE01.JPG,AFNE01.JPG,AFNE01.JPG,,,,,,,,,,,,,,,,,2,1,21,6,,,,,,,AMSA16.jpg,AMNE16.jpg,AMNE19.jpg,AMSA03.jpg,AMSA03.jpg,MS,2,num_4,32,num_6,0.783453049138,,,2017_Nov_16_1058,60.0185381698,MAFE4ImagesEEG,001,102414,
AFNE01.JPG,AFNE01.JPG,AFNE01.JPG,AFNE01.JPG,AFNE01.JPG,AFNE01.JPG,,,,,,,,,,,,,,,,,2,2,22,9,,,,,,,AMSA07.jpg,AMNE08.jpg,AMNE14.jpg,AMSA13.jpg,AMSA13.jpg,MS,2,num_4,16,num_4,0.933443988208,,,2017_Nov_16_1058,60.0185381698,MAFE4ImagesEEG,001,102414,
AFNE01.JPG,AFNE01.JPG,AFNE01.JPG,AFNE01.JPG,AFNE01.JPG,AFNE01.JPG,,,,,,,,,,,,,,,,,2,3,23,0,,,,,,,AMNE18.jpg,AMNE02.jpg,AMSA14.jpg,AMSA17.jpg,AMSA17.jpg,MS,2,num_4,32,num_2,1.43344254512,,,2017_Nov_16_1058,60.0185381698,MAFE4ImagesEEG,001,102414,
AFNE01.JPG,AFNE01.JPG,AFNE01.JPG,AFNE01.JPG,AFNE01.JPG,AFNE01.JPG,,,,,,,,,,,,,,,,,2,4,24,4,,,,,,,AMSA16.jpg,AMSA19.jpg,AMNE12.jpg,AMNE15.jpg,AMNE15.jpg,MN,1,num_4,32,num_6,0.650147620589,,,2017_Nov_16_1058,60.0185381698,MAFE4ImagesEEG,001,102414,
AFNE01.JPG,AFNE01.JPG,AFNE01.JPG,AFNE01.JPG,AFNE01.JPG,AFNE01.JPG,,,,,,,,,,,,,,,,,2,5,25,2,,,,,,,AMNE18.jpg,AMNE17.jpg,AMSA05.jpg,AMSA16.jpg,AMSA05.jpg,MS,2,num_2,32,num_8,1.58337799646,,,2017_Nov_16_1058,60.0185381698,MAFE4ImagesEEG,001,102414,
AFNE01.JPG,AFNE01.JPG,AFNE01.JPG,AFNE01.JPG,AFNE01.JPG,AFNE01.JPG,,,,,,,,,,,,,,,,,2,6,26,1,,,,,,,AMSA04.jpg,AMSA20.jpg,AMNE13.jpg,AMNE14.jpg,AMSA04.jpg,MS,2,num_8,32,num_4,0.733583830763,,,2017_Nov_16_1058,60.0185381698,MAFE4ImagesEEG,001,102414,
AFNE01.JPG,AFNE01.JPG,AFNE01.JPG,AFNE01.JPG,AFNE01.JPG,AFNE01.JPG,,,,,,,,,,,,,,,,,2,7,27,8,,,,,,,AMNE09.jpg,AMSA07.jpg,AMNE02.jpg,AMSA16.jpg,AMSA16.jpg,MS,2,num_4,32,num_6,1.31672319723,,,2017_Nov_16_1058,60.0185381698,MAFE4ImagesEEG,001,102414,
AFNE01.JPG,AFNE01.JPG,AFNE01.JPG,AFNE01.JPG,AFNE01.JPG,AFNE01.JPG,,,,,,,,,,,,,,,,,2,8,28,5,,,,,,,AMSA08.jpg,AMNE18.jpg,AMNE09.jpg,AMSA09.jpg,AMNE09.jpg,MN,1,num_2,32,num_8,0.849978270009,,,2017_Nov_16_1058,60.0185381698,MAFE4ImagesEEG,001,102414,
AFNE01.JPG,AFNE01.JPG,AFNE01.JPG,AFNE01.JPG,AFNE01.JPG,AFNE01.JPG,,,,,,,,,,,,,,,,,2,9,29,7,,,,,,,AMNE17.jpg,AMSA06.jpg,AMSA08.jpg,AMNE20.jpg,AMSA06.jpg,MS,2,num_6,32,num_8,1.21676986478,,,2017_Nov_16_1058,60.0185381698,MAFE4ImagesEEG,001,102414,
AFNE01.JPG,AFNE01.JPG,AFNE01.JPG,AFNE01.JPG,AFNE01.JPG,AFNE01.JPG,,,,,,,,,,,,,,,,,3,0,30,4,,,,,,,AMNE20.jpg,AMSA03.jpg,AMNE14.jpg,AMSA08.jpg,AMNE20.jpg,MN,1,num_8,32,num_2,1.05016686488,,,2017_Nov_16_1058,60.0185381698,MAFE4ImagesEEG,001,102414,
AFNE01.JPG,AFNE01.JPG,AFNE01.JPG,AFNE01.JPG,AFNE01.JPG,AFNE01.JPG,,,,,,,,,,,,,,,,,3,1,31,0,,,,,,,AMNE04.jpg,AMSA19.jpg,AMNE14.jpg,AMSA05.jpg,AMSA05.jpg,MS,2,num_4,32,num_2,0.650120999198,,,2017_Nov_16_1058,60.0185381698,MAFE4ImagesEEG,001,102414,
AFNE01.JPG,AFNE01.JPG,AFNE01.JPG,AFNE01.JPG,AFNE01.JPG,AFNE01.JPG,,,,,,,,,,,,,,,,,3,2,32,1,,,,,,,AMSA13.jpg,AMSA15.jpg,AMNE07.jpg,AMNE16.jpg,AMNE16.jpg,MN,1,num_4,32,num_6,1.05007256707,,,2017_Nov_16_1058,60.0185381698,MAFE4ImagesEEG,001,102414,
AFNE01.JPG,AFNE01.JPG,AFNE01.JPG,AFNE01.JPG,AFNE01.JPG,AFNE01.JPG,,,,,,,,,,,,,,,,,3,3,33,7,,,,,,,AMSA18.jpg,AMNE13.jpg,AMSA08.jpg,AMNE17.jpg,AMSA18.jpg,MS,2,num_8,16,num_8,1.43363049813,,,2017_Nov_16_1058,60.0185381698,MAFE4ImagesEEG,001,102414,
AFNE01.JPG,AFNE01.JPG,AFNE01.JPG,AFNE01.JPG,AFNE01.JPG,AFNE01.JPG,,,,,,,,,,,,,,,,,3,4,34,8,,,,,,,AMSA07.jpg,AMSA17.jpg,AMNE19.jpg,AMNE13.jpg,AMNE19.jpg,MN,1,num_2,32,num_8,1.03346275166,,,2017_Nov_16_1058,60.0185381698,MAFE4ImagesEEG,001,102414,
AFNE01.JPG,AFNE01.JPG,AFNE01.JPG,AFNE01.JPG,AFNE01.JPG,AFNE01.JPG,,,,,,,,,,,,,,,,,3,5,35,2,,,,,,,AMNE04.jpg,AMSA06.jpg,AMSA02.jpg,AMNE01.jpg,AMNE01.jpg,MN,1,num_4,16,num_4,0.699987972155,,,2017_Nov_16_1058,60.0185381698,MAFE4ImagesEEG,001,102414,
AFNE01.JPG,AFNE01.JPG,AFNE01.JPG,AFNE01.JPG,AFNE01.JPG,AFNE01.JPG,,,,,,,,,,,,,,,,,3,6,36,9,,,,,,,AMSA16.jpg,AMSA17.jpg,AMNE10.jpg,AMNE18.jpg,AMNE18.jpg,MN,1,num_4,32,num_8,0.716793759726,,,2017_Nov_16_1058,60.0185381698,MAFE4ImagesEEG,001,102414,
AFNE01.JPG,AFNE01.JPG,AFNE01.JPG,AFNE01.JPG,AFNE01.JPG,AFNE01.JPG,,,,,,,,,,,,,,,,,3,7,37,5,,,,,,,AMNE04.jpg,AMSA03.jpg,AMNE08.jpg,AMSA17.jpg,AMSA17.jpg,MS,2,num_4,16,num_4,1.05008347239,,,2017_Nov_16_1058,60.0185381698,MAFE4ImagesEEG,001,102414,
AFNE01.JPG,AFNE01.JPG,AFNE01.JPG,AFNE01.JPG,AFNE01.JPG,AFNE01.JPG,,,,,,,,,,,,,,,,,3,8,38,3,,,,,,,AMSA06.jpg,AMSA11.jpg,AMNE15.jpg,AMNE01.jpg,AMSA11.jpg,MS,2,num_6,32,num_4,1.80006158212,,,2017_Nov_16_1058,60.0185381698,MAFE4ImagesEEG,001,102414,
AFNE01.JPG,AFNE01.JPG,AFNE01.JPG,AFNE01.JPG,AFNE01.JPG,AFNE01.JPG,,,,,,,,,,,,,,,,,3,9,39,6,,,,,,,AMNE05.jpg,AMNE19.jpg,AMSA06.jpg,AMSA07.jpg,AMNE19.jpg,MN,1,num_6,32,num_2,1.10008515604,,,2017_Nov_16_1058,60.0185381698,MAFE4ImagesEEG,001,102414,
AFNE01.JPG,AFNE01.JPG,AFNE01.JPG,AFNE01.JPG,AFNE01.JPG,AFNE01.JPG,,,,,,,,,,,,,,,,,4,0,40,4,,,,,,,AMNE08.jpg,AMSA11.jpg,AMNE04.jpg,AMSA20.jpg,AMSA20.jpg,MS,2,num_4,32,num_6,0.850143129937,,,2017_Nov_16_1058,60.0185381698,MAFE4ImagesEEG,001,102414,
AFNE01.JPG,AFNE01.JPG,AFNE01.JPG,AFNE01.JPG,AFNE01.JPG,AFNE01.JPG,,,,,,,,,,,,,,,,,4,1,41,0,,,,,,,AMNE11.jpg,AMSA12.jpg,AMSA14.jpg,AMNE15.jpg,AMSA12.jpg,MS,2,num_6,32,num_8,0.600262043998,,,2017_Nov_16_1058,60.0185381698,MAFE4ImagesEEG,001,102414,
AFNE01.JPG,AFNE01.JPG,AFNE01.JPG,AFNE01.JPG,AFNE01.JPG,AFNE01.JPG,,,,,,,,,,,,,,,,,4,2,42,6,,,,,,,AMNE20.jpg,AMSA03.jpg,AMNE08.jpg,AMSA15.jpg,AMNE20.jpg,MN,1,num_8,32,num_2,0.550137196202,,,2017_Nov_16_1058,60.0185381698,MAFE4ImagesEEG,001,102414,
AFNE01.JPG,AFNE01.JPG,AFNE01.JPG,AFNE01.JPG,AFNE01.JPG,AFNE01.JPG,,,,,,,,,,,,,,,,,4,3,43,7,,,,,,,AMSA03.jpg,AMSA14.jpg,AMNE11.jpg,AMNE06.jpg,AMSA03.jpg,MS,2,num_8,32,num_4,0.750124046113,,,2017_Nov_16_1058,60.0185381698,MAFE4ImagesEEG,001,102414,
AFNE01.JPG,AFNE01.JPG,AFNE01.JPG,AFNE01.JPG,AFNE01.JPG,AFNE01.JPG,,,,,,,,,,,,,,,,,4,4,44,2,,,,,,,AMNE03.jpg,AMSA20.jpg,AMNE09.jpg,AMSA17.jpg,AMSA20.jpg,MS,2,num_6,32,num_8,0.700137757696,,,2017_Nov_16_1058,60.0185381698,MAFE4ImagesEEG,001,102414,
AFNE01.JPG,AFNE01.JPG,AFNE01.JPG,AFNE01.JPG,AFNE01.JPG,AFNE01.JPG,,,,,,,,,,,,,,,,,4,5,45,8,,,,,,,AMSA16.jpg,AMSA06.jpg,AMNE16.jpg,AMNE20.jpg,AMNE20.jpg,MN,1,num_4,32,num_6,0.783722791355,,,2017_Nov_16_1058,60.0185381698,MAFE4ImagesEEG,001,102414,
AFNE01.JPG,AFNE01.JPG,AFNE01.JPG,AFNE01.JPG,AFNE01.JPG,AFNE01.JPG,,,,,,,,,,,,,,,,,4,6,46,5,,,,,,,AMSA11.jpg,AMNE03.jpg,AMNE07.jpg,AMSA15.jpg,AMNE03.jpg,MN,1,num_6,32,num_8,0.766791915521,,,2017_Nov_16_1058,60.0185381698,MAFE4ImagesEEG,001,102414,
AFNE01.JPG,AFNE01.JPG,AFNE01.JPG,AFNE01.JPG,AFNE01.JPG,AFNE01.JPG,,,,,,,,,,,,,,,,,4,7,47,3,,,,,,,AMNE09.jpg,AMNE10.jpg,AMSA10.jpg,AMSA15.jpg,AMNE09.jpg,MN,1,num_8,32,num_2,0.850112659857,,,2017_Nov_16_1058,60.0185381698,MAFE4ImagesEEG,001,102414,
AFNE01.JPG,AFNE01.JPG,AFNE01.JPG,AFNE01.JPG,AFNE01.JPG,AFNE01.JPG,,,,,,,,,,,,,,,,,4,8,48,9,,,,,,,AMSA06.jpg,AMSA12.jpg,AMNE19.jpg,AMNE01.jpg,AMNE19.jpg,MN,1,num_2,32,num_4,1.63340822561,,,2017_Nov_16_1058,60.0185381698,MAFE4ImagesEEG,001,102414,
AFNE01.JPG,AFNE01.JPG,AFNE01.JPG,AFNE01.JPG,AFNE01.JPG,AFNE01.JPG,,,,,,,,,,,,,,,,,4,9,49,1,,,,,,,AMNE03.jpg,AMSA07.jpg,AMSA04.jpg,AMNE02.jpg,AMSA07.jpg,MS,2,num_6,32,num_8,0.833450884093,,,2017_Nov_16_1058,60.0185381698,MAFE4ImagesEEG,001,102414,
AFNE01.JPG,AFNE01.JPG,AFNE01.JPG,AFNE01.JPG,AFNE01.JPG,AFNE01.JPG,,,,,,,,,,,,,,,,,5,0,50,7,,,,,,,AMNE02.jpg,AMNE13.jpg,AMSA20.jpg,AMSA16.jpg,AMNE02.jpg,MN,1,num_8,32,num_2,0.816814768128,,,2017_Nov_16_1058,60.0185381698,MAFE4ImagesEEG,001,102414,
AFNE01.JPG,AFNE01.JPG,AFNE01.JPG,AFNE01.JPG,AFNE01.JPG,AFNE01.JPG,,,,,,,,,,,,,,,,,5,1,51,8,,,,,,,AMSA20.jpg,AMNE09.jpg,AMNE15.jpg,AMSA16.jpg,AMSA16.jpg,MS,2,num_4,16,num_4,0.65018578805,,,2017_Nov_16_1058,60.0185381698,MAFE4ImagesEEG,001,102414,
AFNE01.JPG,AFNE01.JPG,AFNE01.JPG,AFNE01.JPG,AFNE01.JPG,AFNE01.JPG,,,,,,,,,,,,,,,,,5,2,52,2,,,,,,,AMNE12.jpg,AMSA15.jpg,AMSA17.jpg,AMNE07.jpg,AMNE07.jpg,MN,1,num_4,32,num_6,1.33344046026,,,2017_Nov_16_1058,60.0185381698,MAFE4ImagesEEG,001,102414,
AFNE01.JPG,AFNE01.JPG,AFNE01.JPG,AFNE01.JPG,AFNE01.JPG,AFNE01.JPG,,,,,,,,,,,,,,,,,5,3,53,6,,,,,,,AMNE15.jpg,AMSA10.jpg,AMNE03.jpg,AMSA03.jpg,AMSA03.jpg,MS,2,num_4,16,num_4,0.949811324943,,,2017_Nov_16_1058,60.0185381698,MAFE4ImagesEEG,001,102414,
AFNE01.JPG,AFNE01.JPG,AFNE01.JPG,AFNE01.JPG,AFNE01.JPG,AFNE01.JPG,,,,,,,,,,,,,,,,,5,4,54,0,,,,,,,AMSA10.jpg,AMNE20.jpg,AMSA08.jpg,AMNE12.jpg,AMNE12.jpg,MN,1,num_4,16,num_4,1.01685935073,,,2017_Nov_16_1058,60.0185381698,MAFE4ImagesEEG,001,102414,
AFNE01.JPG,AFNE01.JPG,AFNE01.JPG,AFNE01.JPG,AFNE01.JPG,AFNE01.JPG,,,,,,,,,,,,,,,,,5,5,55,1,,,,,,,AMSA09.jpg,AMNE09.jpg,AMNE03.jpg,AMSA18.jpg,AMSA18.jpg,MS,2,num_4,32,num_8,1.15010800865,,,2017_Nov_16_1058,60.0185381698,MAFE4ImagesEEG,001,102414,
AFNE01.JPG,AFNE01.JPG,AFNE01.JPG,AFNE01.JPG,AFNE01.JPG,AFNE01.JPG,,,,,,,,,,,,,,,,,5,6,56,3,,,,,,,AMNE16.jpg,AMSA04.jpg,AMSA12.jpg,AMNE04.jpg,AMSA04.jpg,MS,2,num_6,16,num_6,1.38371541398,,,2017_Nov_16_1058,60.0185381698,MAFE4ImagesEEG,001,102414,
AFNE01.JPG,AFNE01.JPG,AFNE01.JPG,AFNE01.JPG,AFNE01.JPG,AFNE01.JPG,,,,,,,,,,,,,,,,,5,7,57,5,,,,,,,AMSA03.jpg,AMNE18.jpg,AMSA12.jpg,AMNE16.jpg,AMNE16.jpg,MN,1,num_4,16,num_4,1.08340157103,,,2017_Nov_16_1058,60.0185381698,MAFE4ImagesEEG,001,102414,
AFNE01.JPG,AFNE01.JPG,AFNE01.JPG,AFNE01.JPG,AFNE01.JPG,AFNE01.JPG,,,,,,,,,,,,,,,,,5,8,58,4,,,,,,,AMSA16.jpg,AMNE12.jpg,AMSA08.jpg,AMNE05.jpg,AMNE12.jpg,MN,1,num_6,32,num_2,1.40013022022,,,2017_Nov_16_1058,60.0185381698,MAFE4ImagesEEG,001,102414,
AFNE01.JPG,AFNE01.JPG,AFNE01.JPG,AFNE01.JPG,AFNE01.JPG,AFNE01.JPG,,,,,,,,,,,,,,,,,5,9,59,9,,,,,,,AMNE16.jpg,AMNE20.jpg,AMSA03.jpg,AMSA18.jpg,AMSA18.jpg,MS,2,num_4,16,num_4,0.883469888009,,,2017_Nov_16_1058,60.0185381698,MAFE4ImagesEEG,001,102414,
,,,,,,,,,,,,,,,,,,,,,,,,,,,,,,,,,,,,,,,,,,,space,29.7308835248,2017_Nov_16_1058,60.0185381698,MAFE4ImagesEEG,001,102414,
AFNE01.JPG,AFNE01.JPG,AFNE01.JPG,AFNE01.JPG,AFNE01.JPG,AFNE01.JPG,,,,,,,,,,,,,,,,,,,,,0,0,0,4,,,AFNE13.jpg,AFSA02.jpg,AFSA05.jpg,AFNE04.jpg,AFSA05.jpg,FS,4,num_2,32,num_4,0.883415362798,,,2017_Nov_16_1058,60.0185381698,MAFE4ImagesEEG,001,102414,
AFNE01.JPG,AFNE01.JPG,AFNE01.JPG,AFNE01.JPG,AFNE01.JPG,AFNE01.JPG,,,,,,,,,,,,,,,,,,,,,0,1,1,1,,,AFSA12.jpg,AFNE19.jpg,AFNE03.jpg,AFSA13.jpg,AFSA13.jpg,FS,4,num_4,32,num_6,0.850136394612,,,2017_Nov_16_1058,60.0185381698,MAFE4ImagesEEG,001,102414,
AFNE01.JPG,AFNE01.JPG,AFNE01.JPG,AFNE01.JPG,AFNE01.JPG,AFNE01.JPG,,,,,,,,,,,,,,,,,,,,,0,2,2,5,,,AFSA11.jpg,AFNE11.jpg,AFNE03.jpg,AFSA20.jpg,AFSA11.jpg,FS,4,num_8,16,num_8,0.616768581327,,,2017_Nov_16_1058,60.0185381698,MAFE4ImagesEEG,001,102414,
AFNE01.JPG,AFNE01.JPG,AFNE01.JPG,AFNE01.JPG,AFNE01.JPG,AFNE01.JPG,,,,,,,,,,,,,,,,,,,,,0,3,3,6,,,AFSA05.jpg,AFSA12.jpg,AFNE01.jpg,AFNE19.jpg,AFSA05.jpg,FS,4,num_8,32,num_2,0.716781571507,,,2017_Nov_16_1058,60.0185381698,MAFE4ImagesEEG,001,102414,
AFNE01.JPG,AFNE01.JPG,AFNE01.JPG,AFNE01.JPG,AFNE01.JPG,AFNE01.JPG,,,,,,,,,,,,,,,,,,,,,0,4,4,0,,,AFSA02.jpg,AFNE08.jpg,AFSA13.jpg,AFNE13.jpg,AFNE13.jpg,FN,3,num_4,16,num_4,0.40015138872,,,2017_Nov_16_1058,60.0185381698,MAFE4ImagesEEG,001,102414,
AFNE01.JPG,AFNE01.JPG,AFNE01.JPG,AFNE01.JPG,AFNE01.JPG,AFNE01.JPG,,,,,,,,,,,,,,,,,,,,,0,5,5,7,,,AFSA06.jpg,AFSA14.jpg,AFNE01.jpg,AFNE08.jpg,AFNE01.jpg,FN,3,num_2,32,num_8,0.416782694403,,,2017_Nov_16_1058,60.0185381698,MAFE4ImagesEEG,001,102414,
AFNE01.JPG,AFNE01.JPG,AFNE01.JPG,AFNE01.JPG,AFNE01.JPG,AFNE01.JPG,,,,,,,,,,,,,,,,,,,,,0,6,6,9,,,AFNE11.jpg,AFSA18.jpg,AFSA17.jpg,AFNE06.jpg,AFSA17.jpg,FS,4,num_2,16,num_2,1.51674885629,,,2017_Nov_16_1058,60.0185381698,MAFE4ImagesEEG,001,102414,
AFNE01.JPG,AFNE01.JPG,AFNE01.JPG,AFNE01.JPG,AFNE01.JPG,AFNE01.JPG,,,,,,,,,,,,,,,,,,,,,0,7,7,2,,,AFNE20.jpg,AFSA10.jpg,AFSA16.jpg,AFNE04.jpg,AFNE04.jpg,FN,3,num_4,32,num_6,0.96680025477,,,2017_Nov_16_1058,60.0185381698,MAFE4ImagesEEG,001,102414,
AFNE01.JPG,AFNE01.JPG,AFNE01.JPG,AFNE01.JPG,AFNE01.JPG,AFNE01.JPG,,,,,,,,,,,,,,,,,,,,,0,8,8,8,,,AFNE12.jpg,AFNE17.jpg,AFSA01.jpg,AFSA16.jpg,AFSA01.jpg,FS,4,num_2,32,num_8,0.550238549709,,,2017_Nov_16_1058,60.0185381698,MAFE4ImagesEEG,001,102414,
AFNE01.JPG,AFNE01.JPG,AFNE01.JPG,AFNE01.JPG,AFNE01.JPG,AFNE01.JPG,,,,,,,,,,,,,,,,,,,,,0,9,9,3,,,AFNE17.jpg,AFSA06.jpg,AFSA08.jpg,AFNE08.jpg,AFSA08.jpg,FS,4,num_2,16,num_2,4.26650597621,,,2017_Nov_16_1058,60.0185381698,MAFE4ImagesEEG,001,102414,
AFNE01.JPG,AFNE01.JPG,AFNE01.JPG,AFNE01.JPG,AFNE01.JPG,AFNE01.JPG,,,,,,,,,,,,,,,,,,,,,1,0,10,2,,,AFNE01.jpg,AFSA01.jpg,AFNE06.jpg,AFSA14.jpg,AFSA14.jpg,FS,4,num_4,16,num_4,0.833445110824,,,2017_Nov_16_1058,60.0185381698,MAFE4ImagesEEG,001,102414,
AFNE01.JPG,AFNE01.JPG,AFNE01.JPG,AFNE01.JPG,AFNE01.JPG,AFNE01.JPG,,,,,,,,,,,,,,,,,,,,,1,1,11,7,,,AFSA01.jpg,AFNE05.jpg,AFSA04.jpg,AFNE09.jpg,AFSA04.jpg,FS,4,num_2,16,num_2,1.46675871871,,,2017_Nov_16_1058,60.0185381698,MAFE4ImagesEEG,001,102414,
AFNE01.JPG,AFNE01.JPG,AFNE01.JPG,AFNE01.JPG,AFNE01.JPG,AFNE01.JPG,,,,,,,,,,,,,,,,,,,,,1,2,12,9,,,AFNE04.jpg,AFNE19.jpg,AFSA11.jpg,AFSA10.jpg,AFSA10.jpg,FS,4,num_4,32,num_6,0.933430196717,,,2017_Nov_16_1058,60.0185381698,MAFE4ImagesEEG,001,102414,
AFNE01.JPG,AFNE01.JPG,AFNE01.JPG,AFNE01.JPG,AFNE01.JPG,AFNE01.JPG,,,,,,,,,,,,,,,,,,,,,1,3,13,5,,,AFNE02.jpg,AFSA08.jpg,AFSA13.jpg,AFNE03.jpg,AFNE03.jpg,FN,3,num_4,32,num_8,0.666750700679,,,2017_Nov_16_1058,60.0185381698,MAFE4ImagesEEG,001,102414,
AFNE01.JPG,AFNE01.JPG,AFNE01.JPG,AFNE01.JPG,AFNE01.JPG,AFNE01.JPG,,,,,,,,,,,,,,,,,,,,,1,4,14,4,,,AFNE13.jpg,AFNE15.jpg,AFSA06.jpg,AFSA13.jpg,AFSA06.jpg,FS,4,num_2,32,num_6,0.516800815705,,,2017_Nov_16_1058,60.0185381698,MAFE4ImagesEEG,001,102414,
AFNE01.JPG,AFNE01.JPG,AFNE01.JPG,AFNE01.JPG,AFNE01.JPG,AFNE01.JPG,,,,,,,,,,,,,,,,,,,,,1,5,15,6,,,AFNE07.jpg,AFSA14.jpg,AFSA08.jpg,AFNE04.jpg,AFSA08.jpg,FS,4,num_2,16,num_2,0.866787585896,,,2017_Nov_16_1058,60.0185381698,MAFE4ImagesEEG,001,102414,
AFNE01.JPG,AFNE01.JPG,AFNE01.JPG,AFNE01.JPG,AFNE01.JPG,AFNE01.JPG,,,,,,,,,,,,,,,,,,,,,1,6,16,3,,,AFSA18.jpg,AFNE07.jpg,AFSA11.jpg,AFNE13.jpg,AFSA11.jpg,FS,4,num_2,32,num_4,0.76677138824,,,2017_Nov_16_1058,60.0185381698,MAFE4ImagesEEG,001,102414,
AFNE01.JPG,AFNE01.JPG,AFNE01.JPG,AFNE01.JPG,AFNE01.JPG,AFNE01.JPG,,,,,,,,,,,,,,,,,,,,,1,7,17,8,,,AFNE16.jpg,AFSA15.jpg,AFSA08.jpg,AFNE04.jpg,AFSA15.jpg,FS,4,num_6,16,num_6,1.13343949802,,,2017_Nov_16_1058,60.0185381698,MAFE4ImagesEEG,001,102414,
AFNE01.JPG,AFNE01.JPG,AFNE01.JPG,AFNE01.JPG,AFNE01.JPG,AFNE01.JPG,,,,,,,,,,,,,,,,,,,,,1,8,18,0,,,AFSA04.jpg,AFSA12.jpg,AFNE02.jpg,AFNE19.jpg,AFSA12.jpg,FS,4,num_6,32,num_2,0.733472213615,,,2017_Nov_16_1058,60.0185381698,MAFE4ImagesEEG,001,102414,
AFNE01.JPG,AFNE01.JPG,AFNE01.JPG,AFNE01.JPG,AFNE01.JPG,AFNE01.JPG,,,,,,,,,,,,,,,,,,,,,1,9,19,1,,,AFSA16.jpg,AFSA05.jpg,AFNE14.jpg,AFNE05.jpg,AFSA16.jpg,FS,4,num_8,16,num_8,0.683519923594,,,2017_Nov_16_1058,60.0185381698,MAFE4ImagesEEG,001,102414,
AFNE01.JPG,AFNE01.JPG,AFNE01.JPG,AFNE01.JPG,AFNE01.JPG,AFNE01.JPG,,,,,,,,,,,,,,,,,,,,,2,0,20,1,,,AFNE14.jpg,AFSA15.jpg,AFSA11.jpg,AFNE05.jpg,AFNE05.jpg,FN,3,num_4,32,num_6,0.583493462298,,,2017_Nov_16_1058,60.0185381698,MAFE4ImagesEEG,001,102414,
AFNE01.JPG,AFNE01.JPG,AFNE01.JPG,AFNE01.JPG,AFNE01.JPG,AFNE01.JPG,,,,,,,,,,,,,,,,,,,,,2,1,21,9,,,AFNE13.jpg,AFSA03.jpg,AFSA16.jpg,AFNE01.jpg,AFNE01.jpg,FN,3,num_4,32,num_8,1.05008924566,,,2017_Nov_16_1058,60.0185381698,MAFE4ImagesEEG,001,102414,
AFNE01.JPG,AFNE01.JPG,AFNE01.JPG,AFNE01.JPG,AFNE01.JPG,AFNE01.JPG,,,,,,,,,,,,,,,,,,,,,2,2,22,0,,,AFNE13.jpg,AFNE12.jpg,AFSA08.jpg,AFSA15.jpg,AFNE13.jpg,FN,3,num_8,32,num_6,0.683787740767,,,2017_Nov_16_1058,60.0185381698,MAFE4ImagesEEG,001,102414,
AFNE01.JPG,AFNE01.JPG,AFNE01.JPG,AFNE01.JPG,AFNE01.JPG,AFNE01.JPG,,,,,,,,,,,,,,,,,,,,,2,3,23,4,,,AFSA20.jpg,AFSA03.jpg,AFNE18.jpg,AFNE13.jpg,AFNE13.jpg,FN,3,num_4,32,num_2,0.933438215405,,,2017_Nov_16_1058,60.0185381698,MAFE4ImagesEEG,001,102414,
AFNE01.JPG,AFNE01.JPG,AFNE01.JPG,AFNE01.JPG,AFNE01.JPG,AFNE01.JPG,,,,,,,,,,,,,,,,,,,,,2,4,24,2,,,AFNE16.jpg,AFSA17.jpg,AFNE11.jpg,AFSA15.jpg,AFSA15.jpg,FS,4,num_4,32,num_8,1.25010656565,,,2017_Nov_16_1058,60.0185381698,MAFE4ImagesEEG,001,102414,
AFNE01.JPG,AFNE01.JPG,AFNE01.JPG,AFNE01.JPG,AFNE01.JPG,AFNE01.JPG,,,,,,,,,,,,,,,,,,,,,2,5,25,8,,,AFNE09.jpg,AFSA17.jpg,AFSA02.jpg,AFNE08.jpg,AFSA02.jpg,FS,4,num_2,32,num_4,1.05009181146,,,2017_Nov_16_1058,60.0185381698,MAFE4ImagesEEG,001,102414,
AFNE01.JPG,AFNE01.JPG,AFNE01.JPG,AFNE01.JPG,AFNE01.JPG,AFNE01.JPG,,,,,,,,,,,,,,,,,,,,,2,6,26,5,,,AFSA07.jpg,AFNE14.jpg,AFNE11.jpg,AFSA13.jpg,AFSA07.jpg,FS,4,num_8,32,num_2,2.18334816769,,,2017_Nov_16_1058,60.0185381698,MAFE4ImagesEEG,001,102414,
AFNE01.JPG,AFNE01.JPG,AFNE01.JPG,AFNE01.JPG,AFNE01.JPG,AFNE01.JPG,,,,,,,,,,,,,,,,,,,,,2,7,27,6,,,AFNE01.jpg,AFNE04.jpg,AFSA13.jpg,AFSA16.jpg,AFSA16.jpg,FS,4,num_4,32,num_6,1.36672552256,,,2017_Nov_16_1058,60.0185381698,MAFE4ImagesEEG,001,102414,
AFNE01.JPG,AFNE01.JPG,AFNE01.JPG,AFNE01.JPG,AFNE01.JPG,AFNE01.JPG,,,,,,,,,,,,,,,,,,,,,2,8,28,3,,,AFSA04.jpg,AFNE11.jpg,AFNE01.jpg,AFSA11.jpg,AFSA04.jpg,FS,4,num_8,16,num_8,0.833461147733,,,2017_Nov_16_1058,60.0185381698,MAFE4ImagesEEG,001,102414,
AFNE01.JPG,AFNE01.JPG,AFNE01.JPG,AFNE01.JPG,AFNE01.JPG,AFNE01.JPG,,,,,,,,,,,,,,,,,,,,,2,9,29,7,,,AFNE19.jpg,AFNE18.jpg,AFSA07.jpg,AFSA18.jpg,AFNE18.jpg,FN,3,num_6,32,num_4,1.16675952077,,,2017_Nov_16_1058,60.0185381698,MAFE4ImagesEEG,001,102414,
AFNE01.JPG,AFNE01.JPG,AFNE01.JPG,AFNE01.JPG,AFNE01.JPG,AFNE01.JPG,,,,,,,,,,,,,,,,,,,,,3,0,30,8,,,AFSA14.jpg,AFSA15.jpg,AFNE14.jpg,AFNE01.jpg,AFNE14.jpg,FN,3,num_2,32,num_6,0.666769944597,,,2017_Nov_16_1058,60.0185381698,MAFE4ImagesEEG,001,102414,
AFNE01.JPG,AFNE01.JPG,AFNE01.JPG,AFNE01.JPG,AFNE01.JPG,AFNE01.JPG,,,,,,,,,,,,,,,,,,,,,3,1,31,2,,,AFNE02.jpg,AFNE12.jpg,AFSA10.jpg,AFSA13.jpg,AFSA13.jpg,FS,4,num_4,32,num_2,0.73350204248,,,2017_Nov_16_1058,60.0185381698,MAFE4ImagesEEG,001,102414,
AFNE01.JPG,AFNE01.JPG,AFNE01.JPG,AFNE01.JPG,AFNE01.JPG,AFNE01.JPG,,,,,,,,,,,,,,,,,,,,,3,2,32,9,,,AFNE08.jpg,AFSA11.jpg,AFSA04.jpg,AFNE12.jpg,AFNE12.jpg,FN,3,num_4,32,num_6,0.55016574217,,,2017_Nov_16_1058,60.0185381698,MAFE4ImagesEEG,001,102414,
AFNE01.JPG,AFNE01.JPG,AFNE01.JPG,AFNE01.JPG,AFNE01.JPG,AFNE01.JPG,,,,,,,,,,,,,,,,,,,,,3,3,33,7,,,AFSA09.jpg,AFSA11.jpg,AFNE11.jpg,AFNE14.jpg,AFSA11.jpg,FS,4,num_6,16,num_6,0.566767539363,,,2017_Nov_16_1058,60.0185381698,MAFE4ImagesEEG,001,102414,
AFNE01.JPG,AFNE01.JPG,AFNE01.JPG,AFNE01.JPG,AFNE01.JPG,AFNE01.JPG,,,,,,,,,,,,,,,,,,,,,3,4,34,6,,,AFNE19.jpg,AFSA14.jpg,AFSA19.jpg,AFNE12.jpg,AFSA19.jpg,FS,4,num_2,32,num_8,0.900049554184,,,2017_Nov_16_1058,60.0185381698,MAFE4ImagesEEG,001,102414,
AFNE01.JPG,AFNE01.JPG,AFNE01.JPG,AFNE01.JPG,AFNE01.JPG,AFNE01.JPG,,,,,,,,,,,,,,,,,,,,,3,5,35,0,,,AFSA15.jpg,AFNE19.jpg,AFSA18.jpg,AFNE03.jpg,AFNE19.jpg,FN,3,num_6,32,num_2,1.46670451388,,,2017_Nov_16_1058,60.0185381698,MAFE4ImagesEEG,001,102414,
AFNE01.JPG,AFNE01.JPG,AFNE01.JPG,AFNE01.JPG,AFNE01.JPG,AFNE01.JPG,,,,,,,,,,,,,,,,,,,,,3,6,36,4,,,AFNE02.jpg,AFSA06.jpg,AFNE19.jpg,AFSA19.jpg,AFSA19.jpg,FS,4,num_4,32,num_8,1.10014513461,,,2017_Nov_16_1058,60.0185381698,MAFE4ImagesEEG,001,102414,
AFNE01.JPG,AFNE01.JPG,AFNE01.JPG,AFNE01.JPG,AFNE01.JPG,AFNE01.JPG,,,,,,,,,,,,,,,,,,,,,3,7,37,5,,,AFSA13.jpg,AFNE11.jpg,AFNE01.jpg,AFSA01.jpg,AFNE11.jpg,FN,3,num_6,32,num_4,0.883511584252,,,2017_Nov_16_1058,60.0185381698,MAFE4ImagesEEG,001,102414,
AFNE01.JPG,AFNE01.JPG,AFNE01.JPG,AFNE01.JPG,AFNE01.JPG,AFNE01.JPG,,,,,,,,,,,,,,,,,,,,,3,8,38,3,,,AFNE04.jpg,AFSA03.jpg,AFSA12.jpg,AFNE10.jpg,AFNE04.jpg,FN,3,num_8,32,num_6,1.11673923396,,,2017_Nov_16_1058,60.0185381698,MAFE4ImagesEEG,001,102414,
