IPosition2,IPosition3,IPosition1,IPosition6,IPosition4,IPosition5,TrialsM1.thisRepN,TrialsM1.thisTrialN,TrialsM1.thisN,TrialsM1.thisIndex,TrialsF1.thisRepN,TrialsF1.thisTrialN,TrialsF1.thisN,TrialsF1.thisIndex,TrialsM2.thisRepN,TrialsM2.thisTrialN,TrialsM2.thisN,TrialsM2.thisIndex,TrialsF2.thisRepN,TrialsF2.thisTrialN,TrialsF2.thisN,TrialsF2.thisIndex,TrialsM3.thisRepN,TrialsM3.thisTrialN,TrialsM3.thisN,TrialsM3.thisIndex,TrialsF3.thisRepN,TrialsF3.thisTrialN,TrialsF3.thisN,TrialsF3.thisIndex,InstrKey_resp.keys,InstrKey_resp.rt,Image0 _Position,Image1 _Position,Image2 _Position,Image3 _Position,Center_image,condition,code,correct_answer,accuracy,Key_Resp.keys,Key_Resp.rt,BreakKey_resp.keys,BreakKey_resp.rt,date,frameRate,expName,session,participant,
,,,,,,,,,,,,,,,,,,,,,,,,,,,,,,space,30.5479893181,,,,,,,,,,,,,,2017_Dec_13_1538,60.0091232167,MAFE4ImagesEEG,001,102501,
AMNE23.JPG,AMNE24.JPG,AMNE22.JPG,AMSA24.JPG,AMSA22.JPG,AMSA23.JPG,0,0,0,9,,,,,,,,,,,,,,,,,,,,,,,AMSA13.jpg,AMNE08.jpg,AMSA03.jpg,AMNE13.jpg,AMNE13.jpg,MN,1,num_4,16,num_4,2.41669024085,,,2017_Dec_13_1538,60.0091232167,MAFE4ImagesEEG,001,102501,
AMSA21.JPG,AMNE23.JPG,AMNE21.JPG,AMSA25.JPG,AMNE25.JPG,AMSA23.JPG,0,1,1,5,,,,,,,,,,,,,,,,,,,,,,,AMSA09.jpg,AMNE16.jpg,AMSA10.jpg,AMNE11.jpg,AMSA09.jpg,MS,2,num_8,16,num_8,0.86680310918,,,2017_Dec_13_1538,60.0091232167,MAFE4ImagesEEG,001,102501,
AFSA25.JPG,AFNE24.JPG,AFSA24.JPG,AFNE21.JPG,AFSA21.JPG,AFNE25.JPG,0,2,2,2,,,,,,,,,,,,,,,,,,,,,,,AMSA05.jpg,AMNE06.jpg,AMNE13.jpg,AMSA06.jpg,AMSA05.jpg,MS,2,num_8,32,num_4,0.800118545303,,,2017_Dec_13_1538,60.0091232167,MAFE4ImagesEEG,001,102501,
AFNE23.JPG,AFNE24.JPG,AFNE22.JPG,AFSA24.JPG,AFSA22.JPG,AFSA23.JPG,0,3,3,8,,,,,,,,,,,,,,,,,,,,,,,AMSA02.jpg,AMNE01.jpg,AMSA10.jpg,AMNE08.jpg,AMNE08.jpg,MN,1,num_4,16,num_4,2.28335960186,,,2017_Dec_13_1538,60.0091232167,MAFE4ImagesEEG,001,102501,
AFSA21.JPG,AFNE23.JPG,AFNE21.JPG,AFSA25.JPG,AFNE25.JPG,AFSA23.JPG,0,4,4,4,,,,,,,,,,,,,,,,,,,,,,,AMSA17.jpg,AMNE07.jpg,AMNE01.jpg,AMSA18.jpg,AMSA18.jpg,MS,2,num_4,16,num_4,2.18334189709,,,2017_Dec_13_1538,60.0091232167,MAFE4ImagesEEG,001,102501,
AFNE22.JPG,AFSA24.JPG,AFSA22.JPG,AFNE25.JPG,AFNE24.JPG,AFSA25.JPG,0,5,5,6,,,,,,,,,,,,,,,,,,,,,,,AMSA09.jpg,AMNE11.jpg,AMSA16.jpg,AMNE20.jpg,AMNE20.jpg,MN,1,num_4,32,num_6,1.16674171947,,,2017_Dec_13_1538,60.0091232167,MAFE4ImagesEEG,001,102501,
AMSA21.JPG,AMNE22.JPG,AMNE21.JPG,AMSA23.JPG,AMSA22.JPG,AMNE23.JPG,0,6,6,1,,,,,,,,,,,,,,,,,,,,,,,AMSA10.jpg,AMSA07.jpg,AMNE20.jpg,AMNE17.jpg,AMNE20.jpg,MN,1,num_2,32,num_8,1.53343128716,,,2017_Dec_13_1538,60.0091232167,MAFE4ImagesEEG,001,102501,
AMNE22.JPG,AMSA24.JPG,AMSA22.JPG,AMNE25.JPG,AMNE24.JPG,AMSA25.JPG,0,7,7,7,,,,,,,,,,,,,,,,,,,,,,,AMSA11.jpg,AMNE03.jpg,AMSA15.jpg,AMNE01.jpg,AMSA11.jpg,MS,2,num_8,16,num_8,2.61661499552,,,2017_Dec_13_1538,60.0091232167,MAFE4ImagesEEG,001,102501,
AMSA25.JPG,AMNE24.JPG,AMSA24.JPG,AMNE26.JPG,AMSA21.JPG,AMNE25.JPG,0,8,8,3,,,,,,,,,,,,,,,,,,,,,,,AMSA09.jpg,AMNE13.jpg,AMSA20.jpg,AMNE03.jpg,AMNE13.jpg,MN,1,num_6,32,num_2,1.43342705327,,,2017_Dec_13_1538,60.0091232167,MAFE4ImagesEEG,001,102501,
AFSA21.JPG,AFNE22.JPG,AFNE21.JPG,AFSA23.JPG,AFSA22.JPG,AFNE23.JPG,0,9,9,0,,,,,,,,,,,,,,,,,,,,,,,AMNE09.jpg,AMSA08.jpg,AMNE11.jpg,AMSA17.jpg,AMSA17.jpg,MS,2,num_4,16,num_4,1.05010266858,,,2017_Dec_13_1538,60.0091232167,MAFE4ImagesEEG,001,102501,
AFSA21.JPG,AFNE23.JPG,AFNE21.JPG,AFSA25.JPG,AFNE25.JPG,AFSA23.JPG,,,,,0,0,0,4,,,,,,,,,,,,,,,,,,,AFSA11.jpg,AFNE04.jpg,AFSA18.jpg,AFNE08.jpg,AFSA11.jpg,FS,4,num_8,16,num_8,0.750114664203,,,2017_Dec_13_1538,60.0091232167,MAFE4ImagesEEG,001,102501,
AMSA25.JPG,AMNE24.JPG,AMSA24.JPG,AMNE26.JPG,AMSA21.JPG,AMNE25.JPG,,,,,0,1,1,3,,,,,,,,,,,,,,,,,,,AFSA18.jpg,AFNE12.jpg,AFSA02.jpg,AFNE11.jpg,AFNE12.jpg,FN,3,num_6,16,num_6,0.816792492522,,,2017_Dec_13_1538,60.0091232167,MAFE4ImagesEEG,001,102501,
AMNE22.JPG,AMSA24.JPG,AMSA22.JPG,AMNE25.JPG,AMNE24.JPG,AMSA25.JPG,,,,,0,2,2,7,,,,,,,,,,,,,,,,,,,AFNE07.jpg,AFSA19.jpg,AFNE11.jpg,AFSA20.jpg,AFSA20.jpg,FS,4,num_4,16,num_4,0.983491553925,,,2017_Dec_13_1538,60.0091232167,MAFE4ImagesEEG,001,102501,
AFNE22.JPG,AFSA24.JPG,AFSA22.JPG,AFNE25.JPG,AFNE24.JPG,AFSA25.JPG,,,,,0,3,3,6,,,,,,,,,,,,,,,,,,,AFNE04.jpg,AFSA01.jpg,AFNE02.jpg,AFSA19.jpg,AFSA19.jpg,FS,4,num_4,32,num_6,1.21673565754,,,2017_Dec_13_1538,60.0091232167,MAFE4ImagesEEG,001,102501,
AFSA25.JPG,AFNE24.JPG,AFSA24.JPG,AFNE21.JPG,AFSA21.JPG,AFNE25.JPG,,,,,0,4,4,2,,,,,,,,,,,,,,,,,,,AFNE17.jpg,AFSA10.jpg,AFNE02.jpg,AFSA09.jpg,AFNE17.jpg,FN,3,num_8,32,num_2,0.900114119053,,,2017_Dec_13_1538,60.0091232167,MAFE4ImagesEEG,001,102501,
AFSA21.JPG,AFNE22.JPG,AFNE21.JPG,AFSA23.JPG,AFSA22.JPG,AFNE23.JPG,,,,,0,5,5,0,,,,,,,,,,,,,,,,,,,AFSA10.jpg,AFNE09.jpg,AFNE17.jpg,AFSA14.jpg,AFSA14.jpg,FS,4,num_4,32,num_8,1.40043453756,,,2017_Dec_13_1538,60.0091232167,MAFE4ImagesEEG,001,102501,
AMNE23.JPG,AMNE24.JPG,AMNE22.JPG,AMSA24.JPG,AMSA22.JPG,AMSA23.JPG,,,,,0,6,6,9,,,,,,,,,,,,,,,,,,,AFSA11.jpg,AFNE10.jpg,AFSA08.jpg,AFNE20.jpg,AFNE20.jpg,FN,3,num_4,16,num_4,0.850109917345,,,2017_Dec_13_1538,60.0091232167,MAFE4ImagesEEG,001,102501,
AFNE23.JPG,AFNE24.JPG,AFNE22.JPG,AFSA24.JPG,AFSA22.JPG,AFSA23.JPG,,,,,0,7,7,8,,,,,,,,,,,,,,,,,,,AFNE09.jpg,AFNE16.jpg,AFSA08.jpg,AFSA12.jpg,AFNE09.jpg,FN,3,num_8,32,num_6,1.61671410408,,,2017_Dec_13_1538,60.0091232167,MAFE4ImagesEEG,001,102501,
AMSA21.JPG,AMNE22.JPG,AMNE21.JPG,AMSA23.JPG,AMSA22.JPG,AMNE23.JPG,,,,,0,8,8,1,,,,,,,,,,,,,,,,,,,AFSA14.jpg,AFNE13.jpg,AFNE11.jpg,AFSA06.jpg,AFNE13.jpg,FN,3,num_6,32,num_8,2.19999499666,,,2017_Dec_13_1538,60.0091232167,MAFE4ImagesEEG,001,102501,
AMSA21.JPG,AMNE23.JPG,AMNE21.JPG,AMSA25.JPG,AMNE25.JPG,AMSA23.JPG,,,,,0,9,9,5,,,,,,,,,,,,,,,,,,,AFSA20.jpg,AFNE16.jpg,AFNE20.jpg,AFSA06.jpg,AFNE16.jpg,FN,3,num_6,32,num_2,2.30000339984,,,2017_Dec_13_1538,60.0091232167,MAFE4ImagesEEG,001,102501,
AFSA21.JPG,AFNE22.JPG,AFNE21.JPG,AFSA23.JPG,AFSA22.JPG,AFNE23.JPG,,,,,,,,,0,0,0,0,,,,,,,,,,,,,,,AMSA19.jpg,AMNE13.jpg,AMNE02.jpg,AMSA11.jpg,AMSA11.jpg,MS,2,num_4,32,num_8,1.55012993142,,,2017_Dec_13_1538,60.0091232167,MAFE4ImagesEEG,001,102501,
AMSA21.JPG,AMNE22.JPG,AMNE21.JPG,AMSA23.JPG,AMSA22.JPG,AMNE23.JPG,,,,,,,,,0,1,1,1,,,,,,,,,,,,,,,AMNE01.jpg,AMSA20.jpg,AMSA06.jpg,AMNE10.jpg,AMNE10.jpg,MN,1,num_4,16,num_4,1.35009163525,,,2017_Dec_13_1538,60.0091232167,MAFE4ImagesEEG,001,102501,
AMNE23.JPG,AMNE24.JPG,AMNE22.JPG,AMSA24.JPG,AMSA22.JPG,AMSA23.JPG,,,,,,,,,0,2,2,9,,,,,,,,,,,,,,,AMNE04.jpg,AMSA06.jpg,AMSA04.jpg,AMNE08.jpg,AMNE04.jpg,MN,1,num_8,16,num_8,0.866772318259,,,2017_Dec_13_1538,60.0091232167,MAFE4ImagesEEG,001,102501,
AFSA21.JPG,AFNE23.JPG,AFNE21.JPG,AFSA25.JPG,AFNE25.JPG,AFSA23.JPG,,,,,,,,,0,3,3,4,,,,,,,,,,,,,,,AMSA01.jpg,AMNE07.jpg,AMNE13.jpg,AMSA08.jpg,AMNE07.jpg,MN,1,num_6,32,num_4,1.08339924528,,,2017_Dec_13_1538,60.0091232167,MAFE4ImagesEEG,001,102501,
AMSA21.JPG,AMNE23.JPG,AMNE21.JPG,AMSA25.JPG,AMNE25.JPG,AMSA23.JPG,,,,,,,,,0,4,4,5,,,,,,,,,,,,,,,AMSA19.jpg,AMNE15.jpg,AMNE07.jpg,AMSA16.jpg,AMSA19.jpg,MS,2,num_8,16,num_8,1.33343789424,,,2017_Dec_13_1538,60.0091232167,MAFE4ImagesEEG,001,102501,
AFNE23.JPG,AFNE24.JPG,AFNE22.JPG,AFSA24.JPG,AFSA22.JPG,AFSA23.JPG,,,,,,,,,0,5,5,8,,,,,,,,,,,,,,,AMSA15.jpg,AMNE04.jpg,AMSA03.jpg,AMNE20.jpg,AMSA15.jpg,MS,2,num_8,32,num_2,2.20006042719,,,2017_Dec_13_1538,60.0091232167,MAFE4ImagesEEG,001,102501,
AMSA25.JPG,AMNE24.JPG,AMSA24.JPG,AMNE26.JPG,AMSA21.JPG,AMNE25.JPG,,,,,,,,,0,6,6,3,,,,,,,,,,,,,,,AMSA02.jpg,AMNE09.jpg,AMNE17.jpg,AMSA01.jpg,AMSA01.jpg,MS,2,num_4,32,num_8,1.11672116024,,,2017_Dec_13_1538,60.0091232167,MAFE4ImagesEEG,001,102501,
AMNE22.JPG,AMSA24.JPG,AMSA22.JPG,AMNE25.JPG,AMNE24.JPG,AMSA25.JPG,,,,,,,,,0,7,7,7,,,,,,,,,,,,,,,AMSA01.jpg,AMNE04.jpg,AMNE10.jpg,AMSA17.jpg,AMNE04.jpg,MN,1,num_6,16,num_6,0.966801248724,,,2017_Dec_13_1538,60.0091232167,MAFE4ImagesEEG,001,102501,
AFSA25.JPG,AFNE24.JPG,AFSA24.JPG,AFNE21.JPG,AFSA21.JPG,AFNE25.JPG,,,,,,,,,0,8,8,2,,,,,,,,,,,,,,,AMNE06.jpg,AMNE20.jpg,AMSA10.jpg,AMSA08.jpg,AMNE20.jpg,MN,1,num_6,32,num_4,2.3666302308,,,2017_Dec_13_1538,60.0091232167,MAFE4ImagesEEG,001,102501,
AFNE22.JPG,AFSA24.JPG,AFSA22.JPG,AFNE25.JPG,AFNE24.JPG,AFSA25.JPG,,,,,,,,,0,9,9,6,,,,,,,,,,,,,,,AMSA03.jpg,AMNE19.jpg,AMSA14.jpg,AMNE18.jpg,AMSA03.jpg,MS,2,num_8,32,num_6,1.28341733501,,,2017_Dec_13_1538,60.0091232167,MAFE4ImagesEEG,001,102501,
AMSA21.JPG,AMNE22.JPG,AMNE21.JPG,AMSA23.JPG,AMSA22.JPG,AMNE23.JPG,,,,,,,,,,,,,0,0,0,1,,,,,,,,,,,AFSA19.jpg,AFSA09.jpg,AFNE08.jpg,AFNE09.jpg,AFNE08.jpg,FN,3,num_2,16,num_2,0.566790407756,,,2017_Dec_13_1538,60.0091232167,MAFE4ImagesEEG,001,102501,
AFSA21.JPG,AFNE22.JPG,AFNE21.JPG,AFSA23.JPG,AFSA22.JPG,AFNE23.JPG,,,,,,,,,,,,,0,1,1,0,,,,,,,,,,,AFSA15.jpg,AFNE13.jpg,AFSA06.jpg,AFNE17.jpg,AFNE13.jpg,FN,3,num_6,32,num_8,1.18331238907,,,2017_Dec_13_1538,60.0091232167,MAFE4ImagesEEG,001,102501,
AFSA21.JPG,AFNE23.JPG,AFNE21.JPG,AFSA25.JPG,AFNE25.JPG,AFSA23.JPG,,,,,,,,,,,,,0,2,2,4,,,,,,,,,,,AFSA01.jpg,AFSA19.jpg,AFNE07.jpg,AFNE11.jpg,AFNE11.jpg,FN,3,num_4,16,num_4,0.800107319374,,,2017_Dec_13_1538,60.0091232167,MAFE4ImagesEEG,001,102501,
AMSA21.JPG,AMNE23.JPG,AMNE21.JPG,AMSA25.JPG,AMNE25.JPG,AMSA23.JPG,,,,,,,,,,,,,0,3,3,5,,,,,,,,,,,AFNE20.jpg,AFNE05.jpg,AFSA12.jpg,AFSA14.jpg,AFSA12.jpg,FS,4,num_2,16,num_2,1.34981162986,,,2017_Dec_13_1538,60.0091232167,MAFE4ImagesEEG,001,102501,
AFNE22.JPG,AFSA24.JPG,AFSA22.JPG,AFNE25.JPG,AFNE24.JPG,AFSA25.JPG,,,,,,,,,,,,,0,4,4,6,,,,,,,,,,,AFNE17.jpg,AFNE11.jpg,AFSA19.jpg,AFSA13.jpg,AFNE17.jpg,FN,3,num_8,32,num_4,2.24998604786,,,2017_Dec_13_1538,60.0091232167,MAFE4ImagesEEG,001,102501,
AMSA25.JPG,AMNE24.JPG,AMSA24.JPG,AMNE26.JPG,AMSA21.JPG,AMNE25.JPG,,,,,,,,,,,,,0,5,5,3,,,,,,,,,,,AFSA10.jpg,AFNE09.jpg,AFNE08.jpg,AFSA15.jpg,AFSA10.jpg,FS,4,num_8,32,num_6,1.58343548863,,,2017_Dec_13_1538,60.0091232167,MAFE4ImagesEEG,001,102501,
AFSA25.JPG,AFNE24.JPG,AFSA24.JPG,AFNE21.JPG,AFSA21.JPG,AFNE25.JPG,,,,,,,,,,,,,0,6,6,2,,,,,,,,,,,AFNE10.jpg,AFSA11.jpg,AFNE20.jpg,AFSA01.jpg,AFSA01.jpg,FS,4,num_4,32,num_8,0.750122362049,,,2017_Dec_13_1538,60.0091232167,MAFE4ImagesEEG,001,102501,
AFNE23.JPG,AFNE24.JPG,AFNE22.JPG,AFSA24.JPG,AFSA22.JPG,AFSA23.JPG,,,,,,,,,,,,,0,7,7,8,,,,,,,,,,,AFNE18.jpg,AFSA05.jpg,AFSA15.jpg,AFNE16.jpg,AFNE16.jpg,FN,3,num_4,48,None,,,,2017_Dec_13_1538,60.0091232167,MAFE4ImagesEEG,001,102501,
AMNE23.JPG,AMNE24.JPG,AMNE22.JPG,AMSA24.JPG,AMSA22.JPG,AMSA23.JPG,,,,,,,,,,,,,0,8,8,9,,,,,,,,,,,AFSA09.jpg,AFNE01.jpg,AFNE19.jpg,AFSA18.jpg,AFNE01.jpg,FN,3,num_6,32,num_4,0.733471187064,,,2017_Dec_13_1538,60.0091232167,MAFE4ImagesEEG,001,102501,
AMNE22.JPG,AMSA24.JPG,AMSA22.JPG,AMNE25.JPG,AMNE24.JPG,AMSA25.JPG,,,,,,,,,,,,,0,9,9,7,,,,,,,,,,,AFSA05.jpg,AFNE20.jpg,AFNE17.jpg,AFSA03.jpg,AFNE17.jpg,FN,3,num_2,16,num_2,0.883547619218,,,2017_Dec_13_1538,60.0091232167,MAFE4ImagesEEG,001,102501,
AMSA21.JPG,AMNE22.JPG,AMNE21.JPG,AMSA23.JPG,AMSA22.JPG,AMNE23.JPG,,,,,,,,,,,,,,,,,0,0,0,1,,,,,,,AMSA16.jpg,AMNE12.jpg,AMSA01.jpg,AMNE04.jpg,AMSA16.jpg,MS,2,num_8,32,num_4,1.40006985702,,,2017_Dec_13_1538,60.0091232167,MAFE4ImagesEEG,001,102501,
AFSA21.JPG,AFNE22.JPG,AFNE21.JPG,AFSA23.JPG,AFSA22.JPG,AFNE23.JPG,,,,,,,,,,,,,,,,,0,1,1,0,,,,,,,AMSA13.jpg,AMSA17.jpg,AMNE10.jpg,AMNE14.jpg,AMNE14.jpg,MN,1,num_4,16,num_4,0.716808786383,,,2017_Dec_13_1538,60.0091232167,MAFE4ImagesEEG,001,102501,
AMNE22.JPG,AMSA24.JPG,AMSA22.JPG,AMNE25.JPG,AMNE24.JPG,AMSA25.JPG,,,,,,,,,,,,,,,,,0,2,2,7,,,,,,,AMNE03.jpg,AMSA17.jpg,AMSA09.jpg,AMNE04.jpg,AMSA17.jpg,MS,2,num_6,32,num_2,2.46663927543,,,2017_Dec_13_1538,60.0091232167,MAFE4ImagesEEG,001,102501,
AMSA21.JPG,AMNE23.JPG,AMNE21.JPG,AMSA25.JPG,AMNE25.JPG,AMSA23.JPG,,,,,,,,,,,,,,,,,0,3,3,5,,,,,,,AMSA03.jpg,AMSA16.jpg,AMNE01.jpg,AMNE14.jpg,AMSA16.jpg,MS,2,num_6,16,num_6,0.500146577833,,,2017_Dec_13_1538,60.0091232167,MAFE4ImagesEEG,001,102501,
AFSA21.JPG,AFNE23.JPG,AFNE21.JPG,AFSA25.JPG,AFNE25.JPG,AFSA23.JPG,,,,,,,,,,,,,,,,,0,4,4,4,,,,,,,AMSA11.jpg,AMNE11.jpg,AMSA14.jpg,AMNE07.jpg,AMSA14.jpg,MS,2,num_2,16,num_2,0.783453578362,,,2017_Dec_13_1538,60.0091232167,MAFE4ImagesEEG,001,102501,
AFSA25.JPG,AFNE24.JPG,AFSA24.JPG,AFNE21.JPG,AFSA21.JPG,AFNE25.JPG,,,,,,,,,,,,,,,,,0,5,5,2,,,,,,,AMSA17.jpg,AMSA20.jpg,AMNE18.jpg,AMNE05.jpg,AMSA17.jpg,MS,2,num_8,16,num_8,0.950075983303,,,2017_Dec_13_1538,60.0091232167,MAFE4ImagesEEG,001,102501,
AMSA25.JPG,AMNE24.JPG,AMSA24.JPG,AMNE26.JPG,AMSA21.JPG,AMNE25.JPG,,,,,,,,,,,,,,,,,0,6,6,3,,,,,,,AMNE18.jpg,AMNE03.jpg,AMSA06.jpg,AMSA17.jpg,AMNE03.jpg,MN,1,num_6,32,num_8,1.13309232984,,,2017_Dec_13_1538,60.0091232167,MAFE4ImagesEEG,001,102501,
AFNE23.JPG,AFNE24.JPG,AFNE22.JPG,AFSA24.JPG,AFSA22.JPG,AFSA23.JPG,,,,,,,,,,,,,,,,,0,7,7,8,,,,,,,AMNE09.jpg,AMSA14.jpg,AMSA17.jpg,AMNE07.jpg,AMSA14.jpg,MS,2,num_6,16,num_6,0.783451654017,,,2017_Dec_13_1538,60.0091232167,MAFE4ImagesEEG,001,102501,
AMNE23.JPG,AMNE24.JPG,AMNE22.JPG,AMSA24.JPG,AMSA22.JPG,AMSA23.JPG,,,,,,,,,,,,,,,,,0,8,8,9,,,,,,,AMSA13.jpg,AMNE09.jpg,AMSA17.jpg,AMNE10.jpg,AMSA17.jpg,MS,2,num_2,16,num_2,0.933438599808,,,2017_Dec_13_1538,60.0091232167,MAFE4ImagesEEG,001,102501,
AFNE22.JPG,AFSA24.JPG,AFSA22.JPG,AFNE25.JPG,AFNE24.JPG,AFSA25.JPG,,,,,,,,,,,,,,,,,0,9,9,6,,,,,,,AMNE07.jpg,AMSA16.jpg,AMSA05.jpg,AMNE12.jpg,AMNE12.jpg,MN,1,num_4,16,num_4,1.78335960186,,,2017_Dec_13_1538,60.0091232167,MAFE4ImagesEEG,001,102501,
AFNE22.JPG,AFSA24.JPG,AFSA22.JPG,AFNE25.JPG,AFNE24.JPG,AFSA25.JPG,,,,,,,,,,,,,,,,,,,,,0,0,0,6,,,AFSA07.jpg,AFSA20.jpg,AFNE09.jpg,AFNE07.jpg,AFNE07.jpg,FN,3,num_4,16,num_4,0.666912032291,,,2017_Dec_13_1538,60.0091232167,MAFE4ImagesEEG,001,102501,
AMSA21.JPG,AMNE22.JPG,AMNE21.JPG,AMSA23.JPG,AMSA22.JPG,AMNE23.JPG,,,,,,,,,,,,,,,,,,,,,0,1,1,1,,,AFSA12.jpg,AFNE03.jpg,AFSA07.jpg,AFNE14.jpg,AFSA07.jpg,FS,4,num_2,32,num_8,0.583458261099,,,2017_Dec_13_1538,60.0091232167,MAFE4ImagesEEG,001,102501,
AMSA25.JPG,AMNE24.JPG,AMSA24.JPG,AMNE26.JPG,AMSA21.JPG,AMNE25.JPG,,,,,,,,,,,,,,,,,,,,,0,2,2,3,,,AFSA09.jpg,AFNE11.jpg,AFSA07.jpg,AFNE06.jpg,AFSA07.jpg,FS,4,num_2,16,num_2,0.683492003009,,,2017_Dec_13_1538,60.0091232167,MAFE4ImagesEEG,001,102501,
AFSA21.JPG,AFNE23.JPG,AFNE21.JPG,AFSA25.JPG,AFNE25.JPG,AFSA23.JPG,,,,,,,,,,,,,,,,,,,,,0,3,3,4,,,AFSA12.jpg,AFSA02.jpg,AFNE19.jpg,AFNE13.jpg,AFSA12.jpg,FS,4,num_8,32,num_6,0.78419063706,,,2017_Dec_13_1538,60.0091232167,MAFE4ImagesEEG,001,102501,
AMNE23.JPG,AMNE24.JPG,AMNE22.JPG,AMSA24.JPG,AMSA22.JPG,AMSA23.JPG,,,,,,,,,,,,,,,,,,,,,0,4,4,9,,,AFNE15.jpg,AFSA20.jpg,AFSA18.jpg,AFNE16.jpg,AFNE16.jpg,FN,3,num_4,32,num_2,1.43309669197,,,2017_Dec_13_1538,60.0091232167,MAFE4ImagesEEG,001,102501,
AFSA21.JPG,AFNE22.JPG,AFNE21.JPG,AFSA23.JPG,AFSA22.JPG,AFNE23.JPG,,,,,,,,,,,,,,,,,,,,,0,5,5,0,,,AFNE11.jpg,AFNE20.jpg,AFSA08.jpg,AFSA17.jpg,AFNE20.jpg,FN,3,num_6,16,num_6,0.833437894238,,,2017_Dec_13_1538,60.0091232167,MAFE4ImagesEEG,001,102501,
AFSA25.JPG,AFNE24.JPG,AFSA24.JPG,AFNE21.JPG,AFSA21.JPG,AFNE25.JPG,,,,,,,,,,,,,,,,,,,,,0,6,6,2,,,AFNE03.jpg,AFSA01.jpg,AFSA13.jpg,AFNE15.jpg,AFSA01.jpg,FS,4,num_6,16,num_6,1.83341993275,,,2017_Dec_13_1538,60.0091232167,MAFE4ImagesEEG,001,102501,
AMSA21.JPG,AMNE23.JPG,AMNE21.JPG,AMSA25.JPG,AMNE25.JPG,AMSA23.JPG,,,,,,,,,,,,,,,,,,,,,0,7,7,5,,,AFNE16.jpg,AFSA09.jpg,AFNE05.jpg,AFSA12.jpg,AFSA12.jpg,FS,4,num_4,32,num_8,0.600126114674,,,2017_Dec_13_1538,60.0091232167,MAFE4ImagesEEG,001,102501,
AFNE23.JPG,AFNE24.JPG,AFNE22.JPG,AFSA24.JPG,AFSA22.JPG,AFSA23.JPG,,,,,,,,,,,,,,,,,,,,,0,8,8,8,,,AFSA11.jpg,AFSA20.jpg,AFNE04.jpg,AFNE12.jpg,AFNE04.jpg,FN,3,num_2,32,num_8,1.1834419677,,,2017_Dec_13_1538,60.0091232167,MAFE4ImagesEEG,001,102501,
AMNE22.JPG,AMSA24.JPG,AMSA22.JPG,AMNE25.JPG,AMNE24.JPG,AMSA25.JPG,,,,,,,,,,,,,,,,,,,,,0,9,9,7,,,AFSA15.jpg,AFSA16.jpg,AFNE06.jpg,AFNE16.jpg,AFNE06.jpg,FN,3,num_2,32,num_4,1.00009878771,,,2017_Dec_13_1538,60.0091232167,MAFE4ImagesEEG,001,102501,
,,,,,,,,,,,,,,,,,,,,,,,,,,,,,,,,,,,,,,,,,,,space,12.8491310214,2017_Dec_13_1538,60.0091232167,MAFE4ImagesEEG,001,102501,
AFNE01.JPG,AFNE01.JPG,AFNE01.JPG,AFNE01.JPG,AFNE01.JPG,AFNE01.JPG,0,0,0,1,,,,,,,,,,,,,,,,,,,,,,,AMNE10.jpg,AMSA03.jpg,AMNE13.jpg,AMSA07.jpg,AMNE10.jpg,MN,1,num_8,32,num_4,0.883436001837,,,2017_Dec_13_1538,60.0091232167,MAFE4ImagesEEG,001,102501,
AFNE01.JPG,AFNE01.JPG,AFNE01.JPG,AFNE01.JPG,AFNE01.JPG,AFNE01.JPG,0,1,1,8,,,,,,,,,,,,,,,,,,,,,,,AMSA14.jpg,AMSA11.jpg,AMNE01.jpg,AMNE12.jpg,AMSA11.jpg,MS,2,num_6,32,num_8,0.66679528309,,,2017_Dec_13_1538,60.0091232167,MAFE4ImagesEEG,001,102501,
AFNE01.JPG,AFNE01.JPG,AFNE01.JPG,AFNE01.JPG,AFNE01.JPG,AFNE01.JPG,0,2,2,7,,,,,,,,,,,,,,,,,,,,,,,AMNE08.jpg,AMNE14.jpg,AMSA09.jpg,AMSA17.jpg,AMNE14.jpg,MN,1,num_6,32,num_4,0.766741142375,,,2017_Dec_13_1538,60.0091232167,MAFE4ImagesEEG,001,102501,
AFNE01.JPG,AFNE01.JPG,AFNE01.JPG,AFNE01.JPG,AFNE01.JPG,AFNE01.JPG,0,3,3,2,,,,,,,,,,,,,,,,,,,,,,,AMNE15.jpg,AMNE09.jpg,AMSA13.jpg,AMSA19.jpg,AMNE09.jpg,MN,1,num_6,32,num_8,0.850066296756,,,2017_Dec_13_1538,60.0091232167,MAFE4ImagesEEG,001,102501,
AFNE01.JPG,AFNE01.JPG,AFNE01.JPG,AFNE01.JPG,AFNE01.JPG,AFNE01.JPG,0,4,4,5,,,,,,,,,,,,,,,,,,,,,,,AMNE14.jpg,AMSA08.jpg,AMSA13.jpg,AMNE11.jpg,AMNE11.jpg,MN,1,num_4,32,num_6,1.08340213192,,,2017_Dec_13_1538,60.0091232167,MAFE4ImagesEEG,001,102501,
AFNE01.JPG,AFNE01.JPG,AFNE01.JPG,AFNE01.JPG,AFNE01.JPG,AFNE01.JPG,0,5,5,9,,,,,,,,,,,,,,,,,,,,,,,AMSA08.jpg,AMNE05.jpg,AMSA09.jpg,AMNE10.jpg,AMSA08.jpg,MS,2,num_8,32,num_4,1.3000345116,,,2017_Dec_13_1538,60.0091232167,MAFE4ImagesEEG,001,102501,
AFNE01.JPG,AFNE01.JPG,AFNE01.JPG,AFNE01.JPG,AFNE01.JPG,AFNE01.JPG,0,6,6,3,,,,,,,,,,,,,,,,,,,,,,,AMNE17.jpg,AMSA13.jpg,AMNE18.jpg,AMSA06.jpg,AMNE18.jpg,MN,1,num_2,16,num_2,0.816734117921,,,2017_Dec_13_1538,60.0091232167,MAFE4ImagesEEG,001,102501,
AFNE01.JPG,AFNE01.JPG,AFNE01.JPG,AFNE01.JPG,AFNE01.JPG,AFNE01.JPG,0,7,7,0,,,,,,,,,,,,,,,,,,,,,,,AMNE17.jpg,AMSA13.jpg,AMNE07.jpg,AMSA06.jpg,AMNE17.jpg,MN,1,num_8,16,num_8,0.950127622345,,,2017_Dec_13_1538,60.0091232167,MAFE4ImagesEEG,001,102501,
AFNE01.JPG,AFNE01.JPG,AFNE01.JPG,AFNE01.JPG,AFNE01.JPG,AFNE01.JPG,0,8,8,4,,,,,,,,,,,,,,,,,,,,,,,AMNE09.jpg,AMNE17.jpg,AMSA12.jpg,AMSA04.jpg,AMNE09.jpg,MN,1,num_8,32,num_4,0.683472117176,,,2017_Dec_13_1538,60.0091232167,MAFE4ImagesEEG,001,102501,
AFNE01.JPG,AFNE01.JPG,AFNE01.JPG,AFNE01.JPG,AFNE01.JPG,AFNE01.JPG,0,9,9,6,,,,,,,,,,,,,,,,,,,,,,,AMSA11.jpg,AMNE10.jpg,AMNE18.jpg,AMSA07.jpg,AMNE10.jpg,MN,1,num_6,16,num_6,1.8000200782,,,2017_Dec_13_1538,60.0091232167,MAFE4ImagesEEG,001,102501,
AFNE01.JPG,AFNE01.JPG,AFNE01.JPG,AFNE01.JPG,AFNE01.JPG,AFNE01.JPG,1,0,10,5,,,,,,,,,,,,,,,,,,,,,,,AMSA19.jpg,AMNE20.jpg,AMNE05.jpg,AMSA17.jpg,AMSA17.jpg,MS,2,num_4,32,num_6,0.833456818014,,,2017_Dec_13_1538,60.0091232167,MAFE4ImagesEEG,001,102501,
AFNE01.JPG,AFNE01.JPG,AFNE01.JPG,AFNE01.JPG,AFNE01.JPG,AFNE01.JPG,1,1,11,7,,,,,,,,,,,,,,,,,,,,,,,AMNE05.jpg,AMNE01.jpg,AMSA11.jpg,AMSA09.jpg,AMSA09.jpg,MS,2,num_4,32,num_2,0.800117903622,,,2017_Dec_13_1538,60.0091232167,MAFE4ImagesEEG,001,102501,
AFNE01.JPG,AFNE01.JPG,AFNE01.JPG,AFNE01.JPG,AFNE01.JPG,AFNE01.JPG,1,2,12,0,,,,,,,,,,,,,,,,,,,,,,,AMNE10.jpg,AMNE01.jpg,AMSA16.jpg,AMSA14.jpg,AMSA14.jpg,MS,2,num_4,16,num_4,1.10018930025,,,2017_Dec_13_1538,60.0091232167,MAFE4ImagesEEG,001,102501,
AFNE01.JPG,AFNE01.JPG,AFNE01.JPG,AFNE01.JPG,AFNE01.JPG,AFNE01.JPG,1,3,13,1,,,,,,,,,,,,,,,,,,,,,,,AMNE12.jpg,AMNE15.jpg,AMSA15.jpg,AMSA20.jpg,AMNE15.jpg,MN,1,num_6,16,num_6,0.749929276993,,,2017_Dec_13_1538,60.0091232167,MAFE4ImagesEEG,001,102501,
AFNE01.JPG,AFNE01.JPG,AFNE01.JPG,AFNE01.JPG,AFNE01.JPG,AFNE01.JPG,1,4,14,9,,,,,,,,,,,,,,,,,,,,,,,AMNE07.jpg,AMSA20.jpg,AMNE20.jpg,AMSA05.jpg,AMNE20.jpg,MN,1,num_2,32,num_8,0.816771965241,,,2017_Dec_13_1538,60.0091232167,MAFE4ImagesEEG,001,102501,
AFNE01.JPG,AFNE01.JPG,AFNE01.JPG,AFNE01.JPG,AFNE01.JPG,AFNE01.JPG,1,5,15,3,,,,,,,,,,,,,,,,,,,,,,,AMNE12.jpg,AMSA10.jpg,AMSA04.jpg,AMNE20.jpg,AMNE20.jpg,MN,1,num_4,32,num_6,0.716830596561,,,2017_Dec_13_1538,60.0091232167,MAFE4ImagesEEG,001,102501,
AFNE01.JPG,AFNE01.JPG,AFNE01.JPG,AFNE01.JPG,AFNE01.JPG,AFNE01.JPG,1,6,16,2,,,,,,,,,,,,,,,,,,,,,,,AMNE10.jpg,AMSA12.jpg,AMSA18.jpg,AMNE09.jpg,AMNE10.jpg,MN,1,num_8,32,num_4,1.1499346653,,,2017_Dec_13_1538,60.0091232167,MAFE4ImagesEEG,001,102501,
AFNE01.JPG,AFNE01.JPG,AFNE01.JPG,AFNE01.JPG,AFNE01.JPG,AFNE01.JPG,1,7,17,8,,,,,,,,,,,,,,,,,,,,,,,AMSA09.jpg,AMNE09.jpg,AMSA08.jpg,AMNE07.jpg,AMSA09.jpg,MS,2,num_8,16,num_8,0.883460057434,,,2017_Dec_13_1538,60.0091232167,MAFE4ImagesEEG,001,102501,
AFNE01.JPG,AFNE01.JPG,AFNE01.JPG,AFNE01.JPG,AFNE01.JPG,AFNE01.JPG,1,8,18,4,,,,,,,,,,,,,,,,,,,,,,,AMSA16.jpg,AMNE13.jpg,AMSA08.jpg,AMNE16.jpg,AMSA08.jpg,MS,2,num_2,16,num_2,0.950090416241,,,2017_Dec_13_1538,60.0091232167,MAFE4ImagesEEG,001,102501,
AFNE01.JPG,AFNE01.JPG,AFNE01.JPG,AFNE01.JPG,AFNE01.JPG,AFNE01.JPG,1,9,19,6,,,,,,,,,,,,,,,,,,,,,,,AMSA14.jpg,AMNE10.jpg,AMSA05.jpg,AMNE17.jpg,AMSA14.jpg,MS,2,num_8,16,num_8,1.16677475558,,,2017_Dec_13_1538,60.0091232167,MAFE4ImagesEEG,001,102501,
AFNE01.JPG,AFNE01.JPG,AFNE01.JPG,AFNE01.JPG,AFNE01.JPG,AFNE01.JPG,2,0,20,3,,,,,,,,,,,,,,,,,,,,,,,AMNE12.jpg,AMSA07.jpg,AMSA11.jpg,AMNE06.jpg,AMNE12.jpg,MN,1,num_8,32,num_6,0.816748551326,,,2017_Dec_13_1538,60.0091232167,MAFE4ImagesEEG,001,102501,
AFNE01.JPG,AFNE01.JPG,AFNE01.JPG,AFNE01.JPG,AFNE01.JPG,AFNE01.JPG,2,1,21,7,,,,,,,,,,,,,,,,,,,,,,,AMSA15.jpg,AMNE12.jpg,AMSA01.jpg,AMNE07.jpg,AMNE07.jpg,MN,1,num_4,32,num_8,0.683484305162,,,2017_Dec_13_1538,60.0091232167,MAFE4ImagesEEG,001,102501,
AFNE01.JPG,AFNE01.JPG,AFNE01.JPG,AFNE01.JPG,AFNE01.JPG,AFNE01.JPG,2,2,22,9,,,,,,,,,,,,,,,,,,,,,,,AMNE14.jpg,AMNE05.jpg,AMSA16.jpg,AMSA20.jpg,AMSA16.jpg,MS,2,num_2,32,num_6,0.666793679353,,,2017_Dec_13_1538,60.0091232167,MAFE4ImagesEEG,001,102501,
AFNE01.JPG,AFNE01.JPG,AFNE01.JPG,AFNE01.JPG,AFNE01.JPG,AFNE01.JPG,2,3,23,6,,,,,,,,,,,,,,,,,,,,,,,AMSA07.jpg,AMNE07.jpg,AMNE17.jpg,AMSA06.jpg,AMSA07.jpg,MS,2,num_8,32,num_6,1.75003127195,,,2017_Dec_13_1538,60.0091232167,MAFE4ImagesEEG,001,102501,
AFNE01.JPG,AFNE01.JPG,AFNE01.JPG,AFNE01.JPG,AFNE01.JPG,AFNE01.JPG,2,4,24,0,,,,,,,,,,,,,,,,,,,,,,,AMNE02.jpg,AMNE20.jpg,AMSA10.jpg,AMSA06.jpg,AMSA10.jpg,MS,2,num_2,32,num_4,0.750122682657,,,2017_Dec_13_1538,60.0091232167,MAFE4ImagesEEG,001,102501,
AFNE01.JPG,AFNE01.JPG,AFNE01.JPG,AFNE01.JPG,AFNE01.JPG,AFNE01.JPG,2,5,25,1,,,,,,,,,,,,,,,,,,,,,,,AMNE07.jpg,AMSA02.jpg,AMSA18.jpg,AMNE05.jpg,AMSA18.jpg,MS,2,num_2,16,num_2,0.833444950404,,,2017_Dec_13_1538,60.0091232167,MAFE4ImagesEEG,001,102501,
AFNE01.JPG,AFNE01.JPG,AFNE01.JPG,AFNE01.JPG,AFNE01.JPG,AFNE01.JPG,2,6,26,4,,,,,,,,,,,,,,,,,,,,,,,AMNE07.jpg,AMSA17.jpg,AMNE14.jpg,AMSA01.jpg,AMSA17.jpg,MS,2,num_6,16,num_6,0.533469134243,,,2017_Dec_13_1538,60.0091232167,MAFE4ImagesEEG,001,102501,
AFNE01.JPG,AFNE01.JPG,AFNE01.JPG,AFNE01.JPG,AFNE01.JPG,AFNE01.JPG,2,7,27,5,,,,,,,,,,,,,,,,,,,,,,,AMNE12.jpg,AMSA16.jpg,AMSA18.jpg,AMNE17.jpg,AMSA16.jpg,MS,2,num_6,32,num_2,1.2836158725,,,2017_Dec_13_1538,60.0091232167,MAFE4ImagesEEG,001,102501,
AFNE01.JPG,AFNE01.JPG,AFNE01.JPG,AFNE01.JPG,AFNE01.JPG,AFNE01.JPG,2,8,28,2,,,,,,,,,,,,,,,,,,,,,,,AMSA06.jpg,AMNE18.jpg,AMSA15.jpg,AMNE14.jpg,AMSA06.jpg,MS,2,num_8,16,num_8,0.866751470137,,,2017_Dec_13_1538,60.0091232167,MAFE4ImagesEEG,001,102501,
AFNE01.JPG,AFNE01.JPG,AFNE01.JPG,AFNE01.JPG,AFNE01.JPG,AFNE01.JPG,2,9,29,8,,,,,,,,,,,,,,,,,,,,,,,AMNE05.jpg,AMSA16.jpg,AMSA10.jpg,AMNE04.jpg,AMNE05.jpg,MN,1,num_8,32,num_6,0.85012178449,,,2017_Dec_13_1538,60.0091232167,MAFE4ImagesEEG,001,102501,
AFNE01.JPG,AFNE01.JPG,AFNE01.JPG,AFNE01.JPG,AFNE01.JPG,AFNE01.JPG,3,0,30,0,,,,,,,,,,,,,,,,,,,,,,,AMSA09.jpg,AMSA12.jpg,AMNE09.jpg,AMNE08.jpg,AMNE09.jpg,MN,1,num_2,32,num_8,1.46675570379,,,2017_Dec_13_1538,60.0091232167,MAFE4ImagesEEG,001,102501,
AFNE01.JPG,AFNE01.JPG,AFNE01.JPG,AFNE01.JPG,AFNE01.JPG,AFNE01.JPG,3,1,31,3,,,,,,,,,,,,,,,,,,,,,,,AMSA03.jpg,AMSA07.jpg,AMNE07.jpg,AMNE05.jpg,AMSA03.jpg,MS,2,num_8,32,num_6,1.23327232874,,,2017_Dec_13_1538,60.0091232167,MAFE4ImagesEEG,001,102501,
AFNE01.JPG,AFNE01.JPG,AFNE01.JPG,AFNE01.JPG,AFNE01.JPG,AFNE01.JPG,3,2,32,9,,,,,,,,,,,,,,,,,,,,,,,AMNE12.jpg,AMNE15.jpg,AMSA15.jpg,AMSA08.jpg,AMNE15.jpg,MN,1,num_6,32,num_8,0.666743964655,,,2017_Dec_13_1538,60.0091232167,MAFE4ImagesEEG,001,102501,
AFNE01.JPG,AFNE01.JPG,AFNE01.JPG,AFNE01.JPG,AFNE01.JPG,AFNE01.JPG,3,3,33,1,,,,,,,,,,,,,,,,,,,,,,,AMNE04.jpg,AMSA08.jpg,AMSA11.jpg,AMNE17.jpg,AMNE04.jpg,MN,1,num_8,32,num_6,0.7667805932,,,2017_Dec_13_1538,60.0091232167,MAFE4ImagesEEG,001,102501,
AFNE01.JPG,AFNE01.JPG,AFNE01.JPG,AFNE01.JPG,AFNE01.JPG,AFNE01.JPG,3,4,34,4,,,,,,,,,,,,,,,,,,,,,,,AMNE07.jpg,AMNE20.jpg,AMSA13.jpg,AMSA17.jpg,AMNE07.jpg,MN,1,num_8,16,num_8,0.950141093228,,,2017_Dec_13_1538,60.0091232167,MAFE4ImagesEEG,001,102501,
AFNE01.JPG,AFNE01.JPG,AFNE01.JPG,AFNE01.JPG,AFNE01.JPG,AFNE01.JPG,3,5,35,2,,,,,,,,,,,,,,,,,,,,,,,AMSA09.jpg,AMNE09.jpg,AMSA19.jpg,AMNE12.jpg,AMSA09.jpg,MS,2,num_8,32,num_2,1.31684284867,,,2017_Dec_13_1538,60.0091232167,MAFE4ImagesEEG,001,102501,
AFNE01.JPG,AFNE01.JPG,AFNE01.JPG,AFNE01.JPG,AFNE01.JPG,AFNE01.JPG,3,6,36,5,,,,,,,,,,,,,,,,,,,,,,,AMNE09.jpg,AMSA13.jpg,AMSA04.jpg,AMNE05.jpg,AMSA04.jpg,MS,2,num_2,32,num_6,0.683722935151,,,2017_Dec_13_1538,60.0091232167,MAFE4ImagesEEG,001,102501,
AFNE01.JPG,AFNE01.JPG,AFNE01.JPG,AFNE01.JPG,AFNE01.JPG,AFNE01.JPG,3,7,37,8,,,,,,,,,,,,,,,,,,,,,,,AMSA17.jpg,AMNE19.jpg,AMNE17.jpg,AMSA04.jpg,AMSA04.jpg,MS,2,num_4,16,num_4,0.800132978475,,,2017_Dec_13_1538,60.0091232167,MAFE4ImagesEEG,001,102501,
AFNE01.JPG,AFNE01.JPG,AFNE01.JPG,AFNE01.JPG,AFNE01.JPG,AFNE01.JPG,3,8,38,7,,,,,,,,,,,,,,,,,,,,,,,AMNE01.jpg,AMNE20.jpg,AMSA12.jpg,AMSA14.jpg,AMNE20.jpg,MN,1,num_6,16,num_6,0.683512209449,,,2017_Dec_13_1538,60.0091232167,MAFE4ImagesEEG,001,102501,
AFNE01.JPG,AFNE01.JPG,AFNE01.JPG,AFNE01.JPG,AFNE01.JPG,AFNE01.JPG,3,9,39,6,,,,,,,,,,,,,,,,,,,,,,,AMNE02.jpg,AMNE13.jpg,AMSA01.jpg,AMSA20.jpg,AMNE02.jpg,MN,1,num_8,32,num_2,1.0501831742,,,2017_Dec_13_1538,60.0091232167,MAFE4ImagesEEG,001,102501,
AFNE01.JPG,AFNE01.JPG,AFNE01.JPG,AFNE01.JPG,AFNE01.JPG,AFNE01.JPG,4,0,40,6,,,,,,,,,,,,,,,,,,,,,,,AMSA10.jpg,AMNE08.jpg,AMSA14.jpg,AMNE11.jpg,AMNE08.jpg,MN,1,num_6,32,num_2,1.06675608875,,,2017_Dec_13_1538,60.0091232167,MAFE4ImagesEEG,001,102501,
AFNE01.JPG,AFNE01.JPG,AFNE01.JPG,AFNE01.JPG,AFNE01.JPG,AFNE01.JPG,4,1,41,1,,,,,,,,,,,,,,,,,,,,,,,AMSA18.jpg,AMSA12.jpg,AMNE05.jpg,AMNE14.jpg,AMNE14.jpg,MN,1,num_4,16,num_4,0.566666923231,,,2017_Dec_13_1538,60.0091232167,MAFE4ImagesEEG,001,102501,
AFNE01.JPG,AFNE01.JPG,AFNE01.JPG,AFNE01.JPG,AFNE01.JPG,AFNE01.JPG,4,2,42,8,,,,,,,,,,,,,,,,,,,,,,,AMNE02.jpg,AMSA08.jpg,AMSA17.jpg,AMNE12.jpg,AMSA08.jpg,MS,2,num_6,32,num_8,0.666676609544,,,2017_Dec_13_1538,60.0091232167,MAFE4ImagesEEG,001,102501,
AFNE01.JPG,AFNE01.JPG,AFNE01.JPG,AFNE01.JPG,AFNE01.JPG,AFNE01.JPG,4,3,43,2,,,,,,,,,,,,,,,,,,,,,,,AMNE05.jpg,AMSA10.jpg,AMNE11.jpg,AMSA18.jpg,AMNE11.jpg,MN,1,num_2,32,num_6,0.783480199752,,,2017_Dec_13_1538,60.0091232167,MAFE4ImagesEEG,001,102501,
AFNE01.JPG,AFNE01.JPG,AFNE01.JPG,AFNE01.JPG,AFNE01.JPG,AFNE01.JPG,4,4,44,0,,,,,,,,,,,,,,,,,,,,,,,AMSA20.jpg,AMNE19.jpg,AMSA17.jpg,AMNE18.jpg,AMNE18.jpg,MN,1,num_4,16,num_4,0.616821551695,,,2017_Dec_13_1538,60.0091232167,MAFE4ImagesEEG,001,102501,
AFNE01.JPG,AFNE01.JPG,AFNE01.JPG,AFNE01.JPG,AFNE01.JPG,AFNE01.JPG,4,5,45,7,,,,,,,,,,,,,,,,,,,,,,,AMNE20.jpg,AMSA20.jpg,AMSA04.jpg,AMNE03.jpg,AMSA04.jpg,MS,2,num_2,16,num_2,1.08348167501,,,2017_Dec_13_1538,60.0091232167,MAFE4ImagesEEG,001,102501,
AFNE01.JPG,AFNE01.JPG,AFNE01.JPG,AFNE01.JPG,AFNE01.JPG,AFNE01.JPG,4,6,46,9,,,,,,,,,,,,,,,,,,,,,,,AMNE08.jpg,AMSA06.jpg,AMNE17.jpg,AMSA12.jpg,AMSA12.jpg,MS,2,num_4,32,num_6,0.783428881317,,,2017_Dec_13_1538,60.0091232167,MAFE4ImagesEEG,001,102501,
AFNE01.JPG,AFNE01.JPG,AFNE01.JPG,AFNE01.JPG,AFNE01.JPG,AFNE01.JPG,4,7,47,5,,,,,,,,,,,,,,,,,,,,,,,AMNE20.jpg,AMSA09.jpg,AMNE14.jpg,AMSA17.jpg,AMNE20.jpg,MN,1,num_8,16,num_8,1.16677539726,,,2017_Dec_13_1538,60.0091232167,MAFE4ImagesEEG,001,102501,
AFNE01.JPG,AFNE01.JPG,AFNE01.JPG,AFNE01.JPG,AFNE01.JPG,AFNE01.JPG,4,8,48,3,,,,,,,,,,,,,,,,,,,,,,,AMNE11.jpg,AMSA03.jpg,AMSA16.jpg,AMNE12.jpg,AMNE11.jpg,MN,1,num_8,32,num_6,0.683476607548,,,2017_Dec_13_1538,60.0091232167,MAFE4ImagesEEG,001,102501,
AFNE01.JPG,AFNE01.JPG,AFNE01.JPG,AFNE01.JPG,AFNE01.JPG,AFNE01.JPG,4,9,49,4,,,,,,,,,,,,,,,,,,,,,,,AMSA08.jpg,AMNE15.jpg,AMNE20.jpg,AMSA13.jpg,AMNE20.jpg,MN,1,num_2,32,num_8,1.03354963986,,,2017_Dec_13_1538,60.0091232167,MAFE4ImagesEEG,001,102501,
AFNE01.JPG,AFNE01.JPG,AFNE01.JPG,AFNE01.JPG,AFNE01.JPG,AFNE01.JPG,5,0,50,4,,,,,,,,,,,,,,,,,,,,,,,AMSA15.jpg,AMSA20.jpg,AMNE11.jpg,AMNE13.jpg,AMSA20.jpg,MS,2,num_6,16,num_6,0.60016011307,,,2017_Dec_13_1538,60.0091232167,MAFE4ImagesEEG,001,102501,
AFNE01.JPG,AFNE01.JPG,AFNE01.JPG,AFNE01.JPG,AFNE01.JPG,AFNE01.JPG,5,1,51,5,,,,,,,,,,,,,,,,,,,,,,,AMSA14.jpg,AMNE05.jpg,AMSA15.jpg,AMNE07.jpg,AMSA15.jpg,MS,2,num_2,16,num_2,0.91659915098,,,2017_Dec_13_1538,60.0091232167,MAFE4ImagesEEG,001,102501,
AFNE01.JPG,AFNE01.JPG,AFNE01.JPG,AFNE01.JPG,AFNE01.JPG,AFNE01.JPG,5,2,52,0,,,,,,,,,,,,,,,,,,,,,,,AMNE11.jpg,AMSA19.jpg,AMSA04.jpg,AMNE19.jpg,AMNE19.jpg,MN,1,num_4,16,num_4,1.70005369163,,,2017_Dec_13_1538,60.0091232167,MAFE4ImagesEEG,001,102501,
AFNE01.JPG,AFNE01.JPG,AFNE01.JPG,AFNE01.JPG,AFNE01.JPG,AFNE01.JPG,5,3,53,8,,,,,,,,,,,,,,,,,,,,,,,AMSA04.jpg,AMNE20.jpg,AMNE16.jpg,AMSA12.jpg,AMNE20.jpg,MN,1,num_6,16,num_6,0.466662689578,,,2017_Dec_13_1538,60.0091232167,MAFE4ImagesEEG,001,102501,
AFNE01.JPG,AFNE01.JPG,AFNE01.JPG,AFNE01.JPG,AFNE01.JPG,AFNE01.JPG,5,4,54,2,,,,,,,,,,,,,,,,,,,,,,,AMSA14.jpg,AMNE11.jpg,AMNE14.jpg,AMSA18.jpg,AMNE11.jpg,MN,1,num_6,32,num_8,0.700098915957,,,2017_Dec_13_1538,60.0091232167,MAFE4ImagesEEG,001,102501,
AFNE01.JPG,AFNE01.JPG,AFNE01.JPG,AFNE01.JPG,AFNE01.JPG,AFNE01.JPG,5,5,55,1,,,,,,,,,,,,,,,,,,,,,,,AMSA03.jpg,AMNE06.jpg,AMSA12.jpg,AMNE18.jpg,AMSA03.jpg,MS,2,num_8,16,num_8,0.883449793793,,,2017_Dec_13_1538,60.0091232167,MAFE4ImagesEEG,001,102501,
AFNE01.JPG,AFNE01.JPG,AFNE01.JPG,AFNE01.JPG,AFNE01.JPG,AFNE01.JPG,5,6,56,6,,,,,,,,,,,,,,,,,,,,,,,AMNE02.jpg,AMNE13.jpg,AMSA14.jpg,AMSA15.jpg,AMNE02.jpg,MN,1,num_8,32,num_2,0.933462976245,,,2017_Dec_13_1538,60.0091232167,MAFE4ImagesEEG,001,102501,
AFNE01.JPG,AFNE01.JPG,AFNE01.JPG,AFNE01.JPG,AFNE01.JPG,AFNE01.JPG,5,7,57,9,,,,,,,,,,,,,,,,,,,,,,,AMSA07.jpg,AMNE04.jpg,AMNE06.jpg,AMSA04.jpg,AMNE04.jpg,MN,1,num_6,16,num_6,0.833492419915,,,2017_Dec_13_1538,60.0091232167,MAFE4ImagesEEG,001,102501,
AFNE01.JPG,AFNE01.JPG,AFNE01.JPG,AFNE01.JPG,AFNE01.JPG,AFNE01.JPG,5,8,58,7,,,,,,,,,,,,,,,,,,,,,,,AMNE11.jpg,AMSA05.jpg,AMNE16.jpg,AMSA15.jpg,AMSA15.jpg,MS,2,num_4,16,num_4,0.43346586288,,,2017_Dec_13_1538,60.0091232167,MAFE4ImagesEEG,001,102501,
AFNE01.JPG,AFNE01.JPG,AFNE01.JPG,AFNE01.JPG,AFNE01.JPG,AFNE01.JPG,5,9,59,3,,,,,,,,,,,,,,,,,,,,,,,AMNE16.jpg,AMNE01.jpg,AMSA18.jpg,AMSA08.jpg,AMNE01.jpg,MN,1,num_6,16,num_6,0.666703551775,,,2017_Dec_13_1538,60.0091232167,MAFE4ImagesEEG,001,102501,
,,,,,,,,,,,,,,,,,,,,,,,,,,,,,,,,,,,,,,,,,,,space,51.4127300743,2017_Dec_13_1538,60.0091232167,MAFE4ImagesEEG,001,102501,
AFNE01.JPG,AFNE01.JPG,AFNE01.JPG,AFNE01.JPG,AFNE01.JPG,AFNE01.JPG,,,,,0,0,0,6,,,,,,,,,,,,,,,,,,,AFSA19.jpg,AFNE02.jpg,AFNE01.jpg,AFSA10.jpg,AFNE01.jpg,FN,3,num_2,16,num_2,0.933459448162,,,2017_Dec_13_1538,60.0091232167,MAFE4ImagesEEG,001,102501,
AFNE01.JPG,AFNE01.JPG,AFNE01.JPG,AFNE01.JPG,AFNE01.JPG,AFNE01.JPG,,,,,0,1,1,0,,,,,,,,,,,,,,,,,,,AFSA06.jpg,AFNE14.jpg,AFNE02.jpg,AFSA18.jpg,AFNE02.jpg,FN,3,num_2,16,num_2,0.683345746016,,,2017_Dec_13_1538,60.0091232167,MAFE4ImagesEEG,001,102501,
AFNE01.JPG,AFNE01.JPG,AFNE01.JPG,AFNE01.JPG,AFNE01.JPG,AFNE01.JPG,,,,,0,2,2,3,,,,,,,,,,,,,,,,,,,AFSA18.jpg,AFNE10.jpg,AFNE06.jpg,AFSA19.jpg,AFNE10.jpg,FN,3,num_6,16,num_6,0.883558845147,,,2017_Dec_13_1538,60.0091232167,MAFE4ImagesEEG,001,102501,
AFNE01.JPG,AFNE01.JPG,AFNE01.JPG,AFNE01.JPG,AFNE01.JPG,AFNE01.JPG,,,,,0,3,3,1,,,,,,,,,,,,,,,,,,,AFNE19.jpg,AFSA20.jpg,AFNE13.jpg,AFSA07.jpg,AFSA07.jpg,FS,4,num_4,32,num_6,1.48334080656,,,2017_Dec_13_1538,60.0091232167,MAFE4ImagesEEG,001,102501,
AFNE01.JPG,AFNE01.JPG,AFNE01.JPG,AFNE01.JPG,AFNE01.JPG,AFNE01.JPG,,,,,0,4,4,7,,,,,,,,,,,,,,,,,,,AFSA12.jpg,AFNE16.jpg,AFSA18.jpg,AFNE06.jpg,AFSA18.jpg,FS,4,num_2,16,num_2,0.450050323969,,,2017_Dec_13_1538,60.0091232167,MAFE4ImagesEEG,001,102501,
AFNE01.JPG,AFNE01.JPG,AFNE01.JPG,AFNE01.JPG,AFNE01.JPG,AFNE01.JPG,,,,,0,5,5,8,,,,,,,,,,,,,,,,,,,AFNE17.jpg,AFSA17.jpg,AFSA02.jpg,AFNE01.jpg,AFSA17.jpg,FS,4,num_6,16,num_6,0.766746915644,,,2017_Dec_13_1538,60.0091232167,MAFE4ImagesEEG,001,102501,
AFNE01.JPG,AFNE01.JPG,AFNE01.JPG,AFNE01.JPG,AFNE01.JPG,AFNE01.JPG,,,,,0,6,6,2,,,,,,,,,,,,,,,,,,,AFNE09.jpg,AFSA11.jpg,AFNE04.jpg,AFSA05.jpg,AFSA11.jpg,FS,4,num_6,16,num_6,0.633457972668,,,2017_Dec_13_1538,60.0091232167,MAFE4ImagesEEG,001,102501,
AFNE01.JPG,AFNE01.JPG,AFNE01.JPG,AFNE01.JPG,AFNE01.JPG,AFNE01.JPG,,,,,0,7,7,4,,,,,,,,,,,,,,,,,,,AFNE06.jpg,AFSA10.jpg,AFNE16.jpg,AFSA09.jpg,AFNE16.jpg,FN,3,num_2,32,num_6,2.0500908012,,,2017_Dec_13_1538,60.0091232167,MAFE4ImagesEEG,001,102501,
AFNE01.JPG,AFNE01.JPG,AFNE01.JPG,AFNE01.JPG,AFNE01.JPG,AFNE01.JPG,,,,,0,8,8,9,,,,,,,,,,,,,,,,,,,AFSA05.jpg,AFNE08.jpg,AFSA20.jpg,AFNE16.jpg,AFNE16.jpg,FN,3,num_4,16,num_4,0.700264738174,,,2017_Dec_13_1538,60.0091232167,MAFE4ImagesEEG,001,102501,
AFNE01.JPG,AFNE01.JPG,AFNE01.JPG,AFNE01.JPG,AFNE01.JPG,AFNE01.JPG,,,,,0,9,9,5,,,,,,,,,,,,,,,,,,,AFSA07.jpg,AFNE17.jpg,AFSA05.jpg,AFNE14.jpg,AFSA05.jpg,FS,4,num_2,16,num_2,0.566779502667,,,2017_Dec_13_1538,60.0091232167,MAFE4ImagesEEG,001,102501,
AFNE01.JPG,AFNE01.JPG,AFNE01.JPG,AFNE01.JPG,AFNE01.JPG,AFNE01.JPG,,,,,1,0,10,6,,,,,,,,,,,,,,,,,,,AFSA14.jpg,AFSA16.jpg,AFNE04.jpg,AFNE02.jpg,AFNE04.jpg,FN,3,num_2,16,num_2,0.933416148182,,,2017_Dec_13_1538,60.0091232167,MAFE4ImagesEEG,001,102501,
AFNE01.JPG,AFNE01.JPG,AFNE01.JPG,AFNE01.JPG,AFNE01.JPG,AFNE01.JPG,,,,,1,1,11,2,,,,,,,,,,,,,,,,,,,AFNE13.jpg,AFSA03.jpg,AFNE15.jpg,AFSA12.jpg,AFSA12.jpg,FS,4,num_4,16,num_4,0.483480328228,,,2017_Dec_13_1538,60.0091232167,MAFE4ImagesEEG,001,102501,
AFNE01.JPG,AFNE01.JPG,AFNE01.JPG,AFNE01.JPG,AFNE01.JPG,AFNE01.JPG,,,,,1,2,12,7,,,,,,,,,,,,,,,,,,,AFSA14.jpg,AFNE05.jpg,AFNE02.jpg,AFSA18.jpg,AFSA18.jpg,FS,4,num_4,32,num_6,0.833492419915,,,2017_Dec_13_1538,60.0091232167,MAFE4ImagesEEG,001,102501,
AFNE01.JPG,AFNE01.JPG,AFNE01.JPG,AFNE01.JPG,AFNE01.JPG,AFNE01.JPG,,,,,1,3,13,4,,,,,,,,,,,,,,,,,,,AFSA18.jpg,AFSA14.jpg,AFNE07.jpg,AFNE19.jpg,AFSA18.jpg,FS,4,num_8,32,num_6,0.766776102828,,,2017_Dec_13_1538,60.0091232167,MAFE4ImagesEEG,001,102501,
AFNE01.JPG,AFNE01.JPG,AFNE01.JPG,AFNE01.JPG,AFNE01.JPG,AFNE01.JPG,,,,,1,4,14,8,,,,,,,,,,,,,,,,,,,AFSA14.jpg,AFNE12.jpg,AFNE03.jpg,AFSA03.jpg,AFSA03.jpg,FS,4,num_4,32,num_2,1.41672071116,,,2017_Dec_13_1538,60.0091232167,MAFE4ImagesEEG,001,102501,
AFNE01.JPG,AFNE01.JPG,AFNE01.JPG,AFNE01.JPG,AFNE01.JPG,AFNE01.JPG,,,,,1,5,15,1,,,,,,,,,,,,,,,,,,,AFNE04.jpg,AFNE13.jpg,AFSA16.jpg,AFSA19.jpg,AFSA19.jpg,FS,4,num_4,16,num_4,0.650126146618,,,2017_Dec_13_1538,60.0091232167,MAFE4ImagesEEG,001,102501,
AFNE01.JPG,AFNE01.JPG,AFNE01.JPG,AFNE01.JPG,AFNE01.JPG,AFNE01.JPG,,,,,1,6,16,5,,,,,,,,,,,,,,,,,,,AFSA01.jpg,AFSA17.jpg,AFNE03.jpg,AFNE02.jpg,AFNE02.jpg,FN,3,num_4,32,num_6,0.616775365314,,,2017_Dec_13_1538,60.0091232167,MAFE4ImagesEEG,001,102501,
AFNE01.JPG,AFNE01.JPG,AFNE01.JPG,AFNE01.JPG,AFNE01.JPG,AFNE01.JPG,,,,,1,7,17,3,,,,,,,,,,,,,,,,,,,AFSA04.jpg,AFNE11.jpg,AFNE08.jpg,AFSA01.jpg,AFSA04.jpg,FS,4,num_8,32,num_4,0.850150651298,,,2017_Dec_13_1538,60.0091232167,MAFE4ImagesEEG,001,102501,
AFNE01.JPG,AFNE01.JPG,AFNE01.JPG,AFNE01.JPG,AFNE01.JPG,AFNE01.JPG,,,,,1,8,18,0,,,,,,,,,,,,,,,,,,,AFSA17.jpg,AFNE09.jpg,AFSA18.jpg,AFNE10.jpg,AFSA17.jpg,FS,4,num_8,16,num_8,0.900097119855,,,2017_Dec_13_1538,60.0091232167,MAFE4ImagesEEG,001,102501,
AFNE01.JPG,AFNE01.JPG,AFNE01.JPG,AFNE01.JPG,AFNE01.JPG,AFNE01.JPG,,,,,1,9,19,9,,,,,,,,,,,,,,,,,,,AFSA14.jpg,AFSA09.jpg,AFNE17.jpg,AFNE13.jpg,AFSA14.jpg,FS,4,num_8,32,num_4,1.10008987109,,,2017_Dec_13_1538,60.0091232167,MAFE4ImagesEEG,001,102501,
AFNE01.JPG,AFNE01.JPG,AFNE01.JPG,AFNE01.JPG,AFNE01.JPG,AFNE01.JPG,,,,,2,0,20,5,,,,,,,,,,,,,,,,,,,AFSA07.jpg,AFSA17.jpg,AFNE09.jpg,AFNE10.jpg,AFNE09.jpg,FN,3,num_2,32,num_4,1.8666902089,,,2017_Dec_13_1538,60.0091232167,MAFE4ImagesEEG,001,102501,
AFNE01.JPG,AFNE01.JPG,AFNE01.JPG,AFNE01.JPG,AFNE01.JPG,AFNE01.JPG,,,,,2,1,21,8,,,,,,,,,,,,,,,,,,,AFSA14.jpg,AFNE02.jpg,AFSA11.jpg,AFNE11.jpg,AFNE11.jpg,FN,3,num_4,32,num_6,0.950125697535,,,2017_Dec_13_1538,60.0091232167,MAFE4ImagesEEG,001,102501,
AFNE01.JPG,AFNE01.JPG,AFNE01.JPG,AFNE01.JPG,AFNE01.JPG,AFNE01.JPG,,,,,2,2,22,7,,,,,,,,,,,,,,,,,,,AFSA19.jpg,AFNE02.jpg,AFSA16.jpg,AFNE03.jpg,AFNE02.jpg,FN,3,num_6,16,num_6,0.749920937698,,,2017_Dec_13_1538,60.0091232167,MAFE4ImagesEEG,001,102501,
AFNE01.JPG,AFNE01.JPG,AFNE01.JPG,AFNE01.JPG,AFNE01.JPG,AFNE01.JPG,,,,,2,3,23,3,,,,,,,,,,,,,,,,,,,AFSA04.jpg,AFNE11.jpg,AFNE19.jpg,AFSA09.jpg,AFNE11.jpg,FN,3,num_6,32,num_8,0.700156007428,,,2017_Dec_13_1538,60.0091232167,MAFE4ImagesEEG,001,102501,
AFNE01.JPG,AFNE01.JPG,AFNE01.JPG,AFNE01.JPG,AFNE01.JPG,AFNE01.JPG,,,,,2,4,24,0,,,,,,,,,,,,,,,,,,,AFSA14.jpg,AFNE07.jpg,AFNE16.jpg,AFSA09.jpg,AFNE07.jpg,FN,3,num_6,16,num_6,0.683563527884,,,2017_Dec_13_1538,60.0091232167,MAFE4ImagesEEG,001,102501,
AFNE01.JPG,AFNE01.JPG,AFNE01.JPG,AFNE01.JPG,AFNE01.JPG,AFNE01.JPG,,,,,2,5,25,4,,,,,,,,,,,,,,,,,,,AFSA06.jpg,AFSA13.jpg,AFNE10.jpg,AFNE12.jpg,AFNE12.jpg,FN,3,num_4,16,num_4,0.400174738606,,,2017_Dec_13_1538,60.0091232167,MAFE4ImagesEEG,001,102501,
AFNE01.JPG,AFNE01.JPG,AFNE01.JPG,AFNE01.JPG,AFNE01.JPG,AFNE01.JPG,,,,,2,6,26,2,,,,,,,,,,,,,,,,,,,AFSA05.jpg,AFNE07.jpg,AFNE08.jpg,AFSA09.jpg,AFNE08.jpg,FN,3,num_2,32,num_6,0.850201007212,,,2017_Dec_13_1538,60.0091232167,MAFE4ImagesEEG,001,102501,
AFNE01.JPG,AFNE01.JPG,AFNE01.JPG,AFNE01.JPG,AFNE01.JPG,AFNE01.JPG,,,,,2,7,27,6,,,,,,,,,,,,,,,,,,,AFSA06.jpg,AFNE09.jpg,AFSA16.jpg,AFNE12.jpg,AFNE12.jpg,FN,3,num_4,16,num_4,0.449996760581,,,2017_Dec_13_1538,60.0091232167,MAFE4ImagesEEG,001,102501,
AFNE01.JPG,AFNE01.JPG,AFNE01.JPG,AFNE01.JPG,AFNE01.JPG,AFNE01.JPG,,,,,2,8,28,9,,,,,,,,,,,,,,,,,,,AFNE10.jpg,AFSA19.jpg,AFNE12.jpg,AFSA05.jpg,AFSA05.jpg,FS,4,num_4,32,num_2,1.2000992368,,,2017_Dec_13_1538,60.0091232167,MAFE4ImagesEEG,001,102501,
AFNE01.JPG,AFNE01.JPG,AFNE01.JPG,AFNE01.JPG,AFNE01.JPG,AFNE01.JPG,,,,,2,9,29,1,,,,,,,,,,,,,,,,,,,AFSA14.jpg,AFNE13.jpg,AFNE08.jpg,AFSA10.jpg,AFSA10.jpg,FS,4,num_4,32,num_6,0.666707721073,,,2017_Dec_13_1538,60.0091232167,MAFE4ImagesEEG,001,102501,
AFNE01.JPG,AFNE01.JPG,AFNE01.JPG,AFNE01.JPG,AFNE01.JPG,AFNE01.JPG,,,,,3,0,30,8,,,,,,,,,,,,,,,,,,,AFNE13.jpg,AFSA05.jpg,AFSA01.jpg,AFNE03.jpg,AFNE03.jpg,FN,3,num_4,32,num_2,1.50006446848,,,2017_Dec_13_1538,60.0091232167,MAFE4ImagesEEG,001,102501,
AFNE01.JPG,AFNE01.JPG,AFNE01.JPG,AFNE01.JPG,AFNE01.JPG,AFNE01.JPG,,,,,3,1,31,2,,,,,,,,,,,,,,,,,,,AFNE06.jpg,AFSA12.jpg,AFSA14.jpg,AFNE16.jpg,AFNE06.jpg,FN,3,num_8,32,num_4,1.01679230016,,,2017_Dec_13_1538,60.0091232167,MAFE4ImagesEEG,001,102501,
AFNE01.JPG,AFNE01.JPG,AFNE01.JPG,AFNE01.JPG,AFNE01.JPG,AFNE01.JPG,,,,,3,2,32,3,,,,,,,,,,,,,,,,,,,AFSA12.jpg,AFNE03.jpg,AFNE01.jpg,AFSA03.jpg,AFNE03.jpg,FN,3,num_6,32,num_4,0.766769046662,,,2017_Dec_13_1538,60.0091232167,MAFE4ImagesEEG,001,102501,
AFNE01.JPG,AFNE01.JPG,AFNE01.JPG,AFNE01.JPG,AFNE01.JPG,AFNE01.JPG,,,,,3,3,33,9,,,,,,,,,,,,,,,,,,,AFSA15.jpg,AFNE13.jpg,AFSA05.jpg,AFNE17.jpg,AFSA05.jpg,FS,4,num_2,32,num_8,0.600120341405,,,2017_Dec_13_1538,60.0091232167,MAFE4ImagesEEG,001,102501,
AFNE01.JPG,AFNE01.JPG,AFNE01.JPG,AFNE01.JPG,AFNE01.JPG,AFNE01.JPG,,,,,3,4,34,7,,,,,,,,,,,,,,,,,,,AFSA03.jpg,AFNE19.jpg,AFSA04.jpg,AFNE18.jpg,AFNE18.jpg,FN,3,num_4,32,num_2,1.25014064414,,,2017_Dec_13_1538,60.0091232167,MAFE4ImagesEEG,001,102501,
AFNE01.JPG,AFNE01.JPG,AFNE01.JPG,AFNE01.JPG,AFNE01.JPG,AFNE01.JPG,,,,,3,5,35,6,,,,,,,,,,,,,,,,,,,AFSA13.jpg,AFNE11.jpg,AFNE08.jpg,AFSA20.jpg,AFSA20.jpg,FS,4,num_4,16,num_4,0.716821294976,,,2017_Dec_13_1538,60.0091232167,MAFE4ImagesEEG,001,102501,
AFNE01.JPG,AFNE01.JPG,AFNE01.JPG,AFNE01.JPG,AFNE01.JPG,AFNE01.JPG,,,,,3,6,36,1,,,,,,,,,,,,,,,,,,,AFSA18.jpg,AFNE19.jpg,AFSA05.jpg,AFNE08.jpg,AFSA05.jpg,FS,4,num_2,32,num_8,0.966760835843,,,2017_Dec_13_1538,60.0091232167,MAFE4ImagesEEG,001,102501,
AFNE01.JPG,AFNE01.JPG,AFNE01.JPG,AFNE01.JPG,AFNE01.JPG,AFNE01.JPG,,,,,3,7,37,4,,,,,,,,,,,,,,,,,,,AFNE14.jpg,AFSA03.jpg,AFNE01.jpg,AFSA11.jpg,AFNE14.jpg,FN,3,num_8,32,num_2,1.08344671456,,,2017_Dec_13_1538,60.0091232167,MAFE4ImagesEEG,001,102501,
AFNE01.JPG,AFNE01.JPG,AFNE01.JPG,AFNE01.JPG,AFNE01.JPG,AFNE01.JPG,,,,,3,8,38,5,,,,,,,,,,,,,,,,,,,AFNE11.jpg,AFSA02.jpg,AFNE17.jpg,AFSA08.jpg,AFSA02.jpg,FS,4,num_6,16,num_6,0.766772254137,,,2017_Dec_13_1538,60.0091232167,MAFE4ImagesEEG,001,102501,
AFNE01.JPG,AFNE01.JPG,AFNE01.JPG,AFNE01.JPG,AFNE01.JPG,AFNE01.JPG,,,,,3,9,39,0,,,,,,,,,,,,,,,,,,,AFSA10.jpg,AFNE08.jpg,AFNE09.jpg,AFSA01.jpg,AFNE09.jpg,FN,3,num_2,32,num_4,0.650125505403,,,2017_Dec_13_1538,60.0091232167,MAFE4ImagesEEG,001,102501,
AFNE01.JPG,AFNE01.JPG,AFNE01.JPG,AFNE01.JPG,AFNE01.JPG,AFNE01.JPG,,,,,4,0,40,3,,,,,,,,,,,,,,,,,,,AFNE17.jpg,AFSA19.jpg,AFNE06.jpg,AFSA06.jpg,AFSA19.jpg,FS,4,num_6,16,num_6,1.00003528129,,,2017_Dec_13_1538,60.0091232167,MAFE4ImagesEEG,001,102501,
AFNE01.JPG,AFNE01.JPG,AFNE01.JPG,AFNE01.JPG,AFNE01.JPG,AFNE01.JPG,,,,,4,1,41,6,,,,,,,,,,,,,,,,,,,AFSA16.jpg,AFNE04.jpg,AFNE19.jpg,AFSA04.jpg,AFSA04.jpg,FS,4,num_4,32,num_8,0.483459480107,,,2017_Dec_13_1538,60.0091232167,MAFE4ImagesEEG,001,102501,
AFNE01.JPG,AFNE01.JPG,AFNE01.JPG,AFNE01.JPG,AFNE01.JPG,AFNE01.JPG,,,,,4,2,42,0,,,,,,,,,,,,,,,,,,,AFNE20.jpg,AFSA09.jpg,AFNE02.jpg,AFSA03.jpg,AFNE02.jpg,FN,3,num_2,32,num_4,1.06660694513,,,2017_Dec_13_1538,60.0091232167,MAFE4ImagesEEG,001,102501,
AFNE01.JPG,AFNE01.JPG,AFNE01.JPG,AFNE01.JPG,AFNE01.JPG,AFNE01.JPG,,,,,4,3,43,5,,,,,,,,,,,,,,,,,,,AFNE20.jpg,AFSA05.jpg,AFNE19.jpg,AFSA08.jpg,AFSA08.jpg,FS,4,num_4,32,num_2,0.983394690789,,,2017_Dec_13_1538,60.0091232167,MAFE4ImagesEEG,001,102501,
AFNE01.JPG,AFNE01.JPG,AFNE01.JPG,AFNE01.JPG,AFNE01.JPG,AFNE01.JPG,,,,,4,4,44,8,,,,,,,,,,,,,,,,,,,AFSA09.jpg,AFNE11.jpg,AFNE19.jpg,AFSA15.jpg,AFNE11.jpg,FN,3,num_6,16,num_6,1.03345341794,,,2017_Dec_13_1538,60.0091232167,MAFE4ImagesEEG,001,102501,
AFNE01.JPG,AFNE01.JPG,AFNE01.JPG,AFNE01.JPG,AFNE01.JPG,AFNE01.JPG,,,,,4,5,45,2,,,,,,,,,,,,,,,,,,,AFNE19.jpg,AFSA16.jpg,AFSA19.jpg,AFNE15.jpg,AFNE19.jpg,FN,3,num_8,16,num_8,0.666874505812,,,2017_Dec_13_1538,60.0091232167,MAFE4ImagesEEG,001,102501,
AFNE01.JPG,AFNE01.JPG,AFNE01.JPG,AFNE01.JPG,AFNE01.JPG,AFNE01.JPG,,,,,4,6,46,7,,,,,,,,,,,,,,,,,,,AFSA14.jpg,AFNE14.jpg,AFNE18.jpg,AFSA12.jpg,AFSA14.jpg,FS,4,num_8,32,num_2,1.45006187051,,,2017_Dec_13_1538,60.0091232167,MAFE4ImagesEEG,001,102501,
AFNE01.JPG,AFNE01.JPG,AFNE01.JPG,AFNE01.JPG,AFNE01.JPG,AFNE01.JPG,,,,,4,7,47,9,,,,,,,,,,,,,,,,,,,AFSA01.jpg,AFNE10.jpg,AFSA06.jpg,AFNE02.jpg,AFNE10.jpg,FN,3,num_6,16,num_6,1.25009413715,,,2017_Dec_13_1538,60.0091232167,MAFE4ImagesEEG,001,102501,
AFNE01.JPG,AFNE01.JPG,AFNE01.JPG,AFNE01.JPG,AFNE01.JPG,AFNE01.JPG,,,,,4,8,48,4,,,,,,,,,,,,,,,,,,,AFSA13.jpg,AFNE05.jpg,AFNE06.jpg,AFSA14.jpg,AFNE05.jpg,FN,3,num_6,32,num_4,0.600074475631,,,2017_Dec_13_1538,60.0091232167,MAFE4ImagesEEG,001,102501,
AFNE01.JPG,AFNE01.JPG,AFNE01.JPG,AFNE01.JPG,AFNE01.JPG,AFNE01.JPG,,,,,4,9,49,1,,,,,,,,,,,,,,,,,,,AFSA20.jpg,AFNE16.jpg,AFNE06.jpg,AFSA18.jpg,AFSA18.jpg,FS,4,num_4,32,num_6,0.766766480636,,,2017_Dec_13_1538,60.0091232167,MAFE4ImagesEEG,001,102501,
AFNE01.JPG,AFNE01.JPG,AFNE01.JPG,AFNE01.JPG,AFNE01.JPG,AFNE01.JPG,,,,,5,0,50,3,,,,,,,,,,,,,,,,,,,AFNE04.jpg,AFSA16.jpg,AFSA06.jpg,AFNE20.jpg,AFSA16.jpg,FS,4,num_6,16,num_6,0.666780208237,,,2017_Dec_13_1538,60.0091232167,MAFE4ImagesEEG,001,102501,
AFNE01.JPG,AFNE01.JPG,AFNE01.JPG,AFNE01.JPG,AFNE01.JPG,AFNE01.JPG,,,,,5,1,51,9,,,,,,,,,,,,,,,,,,,AFSA19.jpg,AFSA03.jpg,AFNE07.jpg,AFNE08.jpg,AFSA03.jpg,FS,4,num_6,32,num_8,0.70025704056,,,2017_Dec_13_1538,60.0091232167,MAFE4ImagesEEG,001,102501,
AFNE01.JPG,AFNE01.JPG,AFNE01.JPG,AFNE01.JPG,AFNE01.JPG,AFNE01.JPG,,,,,5,2,52,7,,,,,,,,,,,,,,,,,,,AFSA20.jpg,AFNE17.jpg,AFNE10.jpg,AFSA07.jpg,AFNE10.jpg,FN,3,num_2,32,num_4,1.0831436161,,,2017_Dec_13_1538,60.0091232167,MAFE4ImagesEEG,001,102501,
AFNE01.JPG,AFNE01.JPG,AFNE01.JPG,AFNE01.JPG,AFNE01.JPG,AFNE01.JPG,,,,,5,3,53,0,,,,,,,,,,,,,,,,,,,AFNE09.jpg,AFSA13.jpg,AFNE14.jpg,AFSA12.jpg,AFSA13.jpg,FS,4,num_6,32,num_8,0.950185675872,,,2017_Dec_13_1538,60.0091232167,MAFE4ImagesEEG,001,102501,
AFNE01.JPG,AFNE01.JPG,AFNE01.JPG,AFNE01.JPG,AFNE01.JPG,AFNE01.JPG,,,,,5,4,54,2,,,,,,,,,,,,,,,,,,,AFNE20.jpg,AFSA08.jpg,AFSA18.jpg,AFNE03.jpg,AFSA08.jpg,FS,4,num_6,32,num_8,1.10013669915,,,2017_Dec_13_1538,60.0091232167,MAFE4ImagesEEG,001,102501,
AFNE01.JPG,AFNE01.JPG,AFNE01.JPG,AFNE01.JPG,AFNE01.JPG,AFNE01.JPG,,,,,5,5,55,5,,,,,,,,,,,,,,,,,,,AFSA16.jpg,AFNE18.jpg,AFNE06.jpg,AFSA20.jpg,AFSA20.jpg,FS,4,num_4,32,num_2,0.800113092642,,,2017_Dec_13_1538,60.0091232167,MAFE4ImagesEEG,001,102501,
AFNE01.JPG,AFNE01.JPG,AFNE01.JPG,AFNE01.JPG,AFNE01.JPG,AFNE01.JPG,,,,,5,6,56,1,,,,,,,,,,,,,,,,,,,AFSA17.jpg,AFNE06.jpg,AFNE19.jpg,AFSA11.jpg,AFSA11.jpg,FS,4,num_4,32,num_6,0.700154403923,,,2017_Dec_13_1538,60.0091232167,MAFE4ImagesEEG,001,102501,
AFNE01.JPG,AFNE01.JPG,AFNE01.JPG,AFNE01.JPG,AFNE01.JPG,AFNE01.JPG,,,,,5,7,57,8,,,,,,,,,,,,,,,,,,,AFSA05.jpg,AFNE03.jpg,AFSA11.jpg,AFNE13.jpg,AFNE03.jpg,FN,3,num_6,32,num_4,0.766796630342,,,2017_Dec_13_1538,60.0091232167,MAFE4ImagesEEG,001,102501,
AFNE01.JPG,AFNE01.JPG,AFNE01.JPG,AFNE01.JPG,AFNE01.JPG,AFNE01.JPG,,,,,5,8,58,4,,,,,,,,,,,,,,,,,,,AFSA07.jpg,AFNE18.jpg,AFNE20.jpg,AFSA05.jpg,AFNE20.jpg,FN,3,num_2,32,num_6,0.616781138582,,,2017_Dec_13_1538,60.0091232167,MAFE4ImagesEEG,001,102501,
AFNE01.JPG,AFNE01.JPG,AFNE01.JPG,AFNE01.JPG,AFNE01.JPG,AFNE01.JPG,,,,,5,9,59,6,,,,,,,,,,,,,,,,,,,AFNE10.jpg,AFNE12.jpg,AFSA10.jpg,AFSA13.jpg,AFNE12.jpg,FN,3,num_6,32,num_8,0.983444405254,,,2017_Dec_13_1538,60.0091232167,MAFE4ImagesEEG,001,102501,
,,,,,,,,,,,,,,,,,,,,,,,,,,,,,,,,,,,,,,,,,,,space,111.391269736,2017_Dec_13_1538,60.0091232167,MAFE4ImagesEEG,001,102501,
AFNE01.JPG,AFNE01.JPG,AFNE01.JPG,AFNE01.JPG,AFNE01.JPG,AFNE01.JPG,,,,,,,,,0,0,0,2,,,,,,,,,,,,,,,AMNE17.jpg,AMNE18.jpg,AMSA07.jpg,AMSA14.jpg,AMSA14.jpg,MS,2,num_4,16,num_4,1.01675220788,,,2017_Dec_13_1538,60.0091232167,MAFE4ImagesEEG,001,102501,
AFNE01.JPG,AFNE01.JPG,AFNE01.JPG,AFNE01.JPG,AFNE01.JPG,AFNE01.JPG,,,,,,,,,0,1,1,9,,,,,,,,,,,,,,,AMSA19.jpg,AMNE09.jpg,AMSA16.jpg,AMNE13.jpg,AMSA19.jpg,MS,2,num_8,16,num_8,0.800113092642,,,2017_Dec_13_1538,60.0091232167,MAFE4ImagesEEG,001,102501,
AFNE01.JPG,AFNE01.JPG,AFNE01.JPG,AFNE01.JPG,AFNE01.JPG,AFNE01.JPG,,,,,,,,,0,2,2,4,,,,,,,,,,,,,,,AMSA08.jpg,AMNE01.jpg,AMSA13.jpg,AMNE20.jpg,AMNE01.jpg,MN,1,num_6,16,num_6,0.550122233806,,,2017_Dec_13_1538,60.0091232167,MAFE4ImagesEEG,001,102501,
AFNE01.JPG,AFNE01.JPG,AFNE01.JPG,AFNE01.JPG,AFNE01.JPG,AFNE01.JPG,,,,,,,,,0,3,3,1,,,,,,,,,,,,,,,AMSA19.jpg,AMNE10.jpg,AMNE07.jpg,AMSA20.jpg,AMSA19.jpg,MS,2,num_8,32,num_4,0.633486197563,,,2017_Dec_13_1538,60.0091232167,MAFE4ImagesEEG,001,102501,
AFNE01.JPG,AFNE01.JPG,AFNE01.JPG,AFNE01.JPG,AFNE01.JPG,AFNE01.JPG,,,,,,,,,0,4,4,5,,,,,,,,,,,,,,,AMNE17.jpg,AMNE14.jpg,AMSA12.jpg,AMSA02.jpg,AMNE17.jpg,MN,1,num_8,16,num_8,0.766761028208,,,2017_Dec_13_1538,60.0091232167,MAFE4ImagesEEG,001,102501,
AFNE01.JPG,AFNE01.JPG,AFNE01.JPG,AFNE01.JPG,AFNE01.JPG,AFNE01.JPG,,,,,,,,,0,5,5,6,,,,,,,,,,,,,,,AMNE12.jpg,AMNE17.jpg,AMSA20.jpg,AMSA05.jpg,AMNE12.jpg,MN,1,num_8,16,num_8,0.683447420364,,,2017_Dec_13_1538,60.0091232167,MAFE4ImagesEEG,001,102501,
AFNE01.JPG,AFNE01.JPG,AFNE01.JPG,AFNE01.JPG,AFNE01.JPG,AFNE01.JPG,,,,,,,,,0,6,6,3,,,,,,,,,,,,,,,AMNE07.jpg,AMSA20.jpg,AMNE16.jpg,AMSA18.jpg,AMSA20.jpg,MS,2,num_6,16,num_6,0.633323262213,,,2017_Dec_13_1538,60.0091232167,MAFE4ImagesEEG,001,102501,
AFNE01.JPG,AFNE01.JPG,AFNE01.JPG,AFNE01.JPG,AFNE01.JPG,AFNE01.JPG,,,,,,,,,0,7,7,8,,,,,,,,,,,,,,,AMNE19.jpg,AMSA20.jpg,AMNE15.jpg,AMSA13.jpg,AMNE15.jpg,MN,1,num_2,32,num_8,0.950078549096,,,2017_Dec_13_1538,60.0091232167,MAFE4ImagesEEG,001,102501,
AFNE01.JPG,AFNE01.JPG,AFNE01.JPG,AFNE01.JPG,AFNE01.JPG,AFNE01.JPG,,,,,,,,,0,8,8,7,,,,,,,,,,,,,,,AMNE03.jpg,AMNE16.jpg,AMSA14.jpg,AMSA11.jpg,AMNE03.jpg,MN,1,num_8,32,num_2,1.06676378637,,,2017_Dec_13_1538,60.0091232167,MAFE4ImagesEEG,001,102501,
AFNE01.JPG,AFNE01.JPG,AFNE01.JPG,AFNE01.JPG,AFNE01.JPG,AFNE01.JPG,,,,,,,,,0,9,9,0,,,,,,,,,,,,,,,AMNE03.jpg,AMNE13.jpg,AMSA05.jpg,AMSA15.jpg,AMSA05.jpg,MS,2,num_2,16,num_2,1.30005407659,,,2017_Dec_13_1538,60.0091232167,MAFE4ImagesEEG,001,102501,
AFNE01.JPG,AFNE01.JPG,AFNE01.JPG,AFNE01.JPG,AFNE01.JPG,AFNE01.JPG,,,,,,,,,1,0,10,8,,,,,,,,,,,,,,,AMSA04.jpg,AMNE06.jpg,AMSA19.jpg,AMNE11.jpg,AMNE06.jpg,MN,1,num_6,32,num_4,0.883478980977,,,2017_Dec_13_1538,60.0091232167,MAFE4ImagesEEG,001,102501,
AFNE01.JPG,AFNE01.JPG,AFNE01.JPG,AFNE01.JPG,AFNE01.JPG,AFNE01.JPG,,,,,,,,,1,1,11,0,,,,,,,,,,,,,,,AMNE03.jpg,AMSA05.jpg,AMSA01.jpg,AMNE15.jpg,AMNE15.jpg,MN,1,num_4,16,num_4,0.78347667167,,,2017_Dec_13_1538,60.0091232167,MAFE4ImagesEEG,001,102501,
AFNE01.JPG,AFNE01.JPG,AFNE01.JPG,AFNE01.JPG,AFNE01.JPG,AFNE01.JPG,,,,,,,,,1,2,12,3,,,,,,,,,,,,,,,AMNE14.jpg,AMNE18.jpg,AMSA07.jpg,AMSA18.jpg,AMNE18.jpg,MN,1,num_6,16,num_6,1.16672279593,,,2017_Dec_13_1538,60.0091232167,MAFE4ImagesEEG,001,102501,
AFNE01.JPG,AFNE01.JPG,AFNE01.JPG,AFNE01.JPG,AFNE01.JPG,AFNE01.JPG,,,,,,,,,1,3,13,4,,,,,,,,,,,,,,,AMSA05.jpg,AMNE12.jpg,AMSA20.jpg,AMNE20.jpg,AMSA20.jpg,MS,2,num_2,16,num_2,0.966855453793,,,2017_Dec_13_1538,60.0091232167,MAFE4ImagesEEG,001,102501,
AFNE01.JPG,AFNE01.JPG,AFNE01.JPG,AFNE01.JPG,AFNE01.JPG,AFNE01.JPG,,,,,,,,,1,4,14,5,,,,,,,,,,,,,,,AMNE05.jpg,AMSA05.jpg,AMSA10.jpg,AMNE03.jpg,AMSA10.jpg,MS,2,num_2,32,num_4,1.15007771505,,,2017_Dec_13_1538,60.0091232167,MAFE4ImagesEEG,001,102501,
AFNE01.JPG,AFNE01.JPG,AFNE01.JPG,AFNE01.JPG,AFNE01.JPG,AFNE01.JPG,,,,,,,,,1,5,15,7,,,,,,,,,,,,,,,AMSA01.jpg,AMNE10.jpg,AMNE14.jpg,AMSA16.jpg,AMSA16.jpg,MS,2,num_4,32,num_8,1.08343260223,,,2017_Dec_13_1538,60.0091232167,MAFE4ImagesEEG,001,102501,
AFNE01.JPG,AFNE01.JPG,AFNE01.JPG,AFNE01.JPG,AFNE01.JPG,AFNE01.JPG,,,,,,,,,1,6,16,9,,,,,,,,,,,,,,,AMSA02.jpg,AMSA14.jpg,AMNE11.jpg,AMNE16.jpg,AMSA14.jpg,MS,2,num_6,16,num_6,0.550125120208,,,2017_Dec_13_1538,60.0091232167,MAFE4ImagesEEG,001,102501,
AFNE01.JPG,AFNE01.JPG,AFNE01.JPG,AFNE01.JPG,AFNE01.JPG,AFNE01.JPG,,,,,,,,,1,7,17,1,,,,,,,,,,,,,,,AMSA11.jpg,AMSA01.jpg,AMNE11.jpg,AMNE15.jpg,AMNE15.jpg,MN,1,num_4,16,num_4,0.800159279024,,,2017_Dec_13_1538,60.0091232167,MAFE4ImagesEEG,001,102501,
AFNE01.JPG,AFNE01.JPG,AFNE01.JPG,AFNE01.JPG,AFNE01.JPG,AFNE01.JPG,,,,,,,,,1,8,18,6,,,,,,,,,,,,,,,AMSA04.jpg,AMNE09.jpg,AMSA13.jpg,AMNE15.jpg,AMSA04.jpg,MS,2,num_8,16,num_8,0.733438792173,,,2017_Dec_13_1538,60.0091232167,MAFE4ImagesEEG,001,102501,
AFNE01.JPG,AFNE01.JPG,AFNE01.JPG,AFNE01.JPG,AFNE01.JPG,AFNE01.JPG,,,,,,,,,1,9,19,2,,,,,,,,,,,,,,,AMNE16.jpg,AMNE05.jpg,AMSA02.jpg,AMSA15.jpg,AMNE05.jpg,MN,1,num_6,32,num_8,0.750131663401,,,2017_Dec_13_1538,60.0091232167,MAFE4ImagesEEG,001,102501,
AFNE01.JPG,AFNE01.JPG,AFNE01.JPG,AFNE01.JPG,AFNE01.JPG,AFNE01.JPG,,,,,,,,,2,0,20,0,,,,,,,,,,,,,,,AMSA01.jpg,AMNE20.jpg,AMSA08.jpg,AMNE07.jpg,AMNE07.jpg,MN,1,num_4,16,num_4,0.583455053857,,,2017_Dec_13_1538,60.0091232167,MAFE4ImagesEEG,001,102501,
AFNE01.JPG,AFNE01.JPG,AFNE01.JPG,AFNE01.JPG,AFNE01.JPG,AFNE01.JPG,,,,,,,,,2,1,21,2,,,,,,,,,,,,,,,AMSA01.jpg,AMNE12.jpg,AMNE02.jpg,AMSA09.jpg,AMNE02.jpg,MN,1,num_2,16,num_2,0.61681449553,,,2017_Dec_13_1538,60.0091232167,MAFE4ImagesEEG,001,102501,
AFNE01.JPG,AFNE01.JPG,AFNE01.JPG,AFNE01.JPG,AFNE01.JPG,AFNE01.JPG,,,,,,,,,2,2,22,8,,,,,,,,,,,,,,,AMSA11.jpg,AMNE13.jpg,AMNE03.jpg,AMSA05.jpg,AMNE13.jpg,MN,1,num_6,32,num_2,1.38346903794,,,2017_Dec_13_1538,60.0091232167,MAFE4ImagesEEG,001,102501,
AFNE01.JPG,AFNE01.JPG,AFNE01.JPG,AFNE01.JPG,AFNE01.JPG,AFNE01.JPG,,,,,,,,,2,3,23,7,,,,,,,,,,,,,,,AMSA13.jpg,AMNE20.jpg,AMSA19.jpg,AMNE16.jpg,AMSA13.jpg,MS,2,num_8,16,num_8,1.33339780173,,,2017_Dec_13_1538,60.0091232167,MAFE4ImagesEEG,001,102501,
AFNE01.JPG,AFNE01.JPG,AFNE01.JPG,AFNE01.JPG,AFNE01.JPG,AFNE01.JPG,,,,,,,,,2,4,24,1,,,,,,,,,,,,,,,AMSA10.jpg,AMSA05.jpg,AMNE09.jpg,AMNE13.jpg,AMNE09.jpg,MN,1,num_2,32,num_8,0.633359505562,,,2017_Dec_13_1538,60.0091232167,MAFE4ImagesEEG,001,102501,
AFNE01.JPG,AFNE01.JPG,AFNE01.JPG,AFNE01.JPG,AFNE01.JPG,AFNE01.JPG,,,,,,,,,2,5,25,9,,,,,,,,,,,,,,,AMNE15.jpg,AMSA07.jpg,AMNE11.jpg,AMSA01.jpg,AMSA07.jpg,MS,2,num_6,32,num_2,1.18351637921,,,2017_Dec_13_1538,60.0091232167,MAFE4ImagesEEG,001,102501,
AFNE01.JPG,AFNE01.JPG,AFNE01.JPG,AFNE01.JPG,AFNE01.JPG,AFNE01.JPG,,,,,,,,,2,6,26,4,,,,,,,,,,,,,,,AMSA01.jpg,AMNE09.jpg,AMSA06.jpg,AMNE20.jpg,AMSA06.jpg,MS,2,num_2,32,num_4,0.799795240164,,,2017_Dec_13_1538,60.0091232167,MAFE4ImagesEEG,001,102501,
AFNE01.JPG,AFNE01.JPG,AFNE01.JPG,AFNE01.JPG,AFNE01.JPG,AFNE01.JPG,,,,,,,,,2,7,27,6,,,,,,,,,,,,,,,AMNE03.jpg,AMNE08.jpg,AMSA05.jpg,AMSA03.jpg,AMNE08.jpg,MN,1,num_6,32,num_4,0.883502074284,,,2017_Dec_13_1538,60.0091232167,MAFE4ImagesEEG,001,102501,
AFNE01.JPG,AFNE01.JPG,AFNE01.JPG,AFNE01.JPG,AFNE01.JPG,AFNE01.JPG,,,,,,,,,2,8,28,5,,,,,,,,,,,,,,,AMSA16.jpg,AMNE20.jpg,AMNE04.jpg,AMSA08.jpg,AMNE20.jpg,MN,1,num_6,32,num_8,0.633494857699,,,2017_Dec_13_1538,60.0091232167,MAFE4ImagesEEG,001,102501,
AFNE01.JPG,AFNE01.JPG,AFNE01.JPG,AFNE01.JPG,AFNE01.JPG,AFNE01.JPG,,,,,,,,,2,9,29,3,,,,,,,,,,,,,,,AMSA13.jpg,AMSA20.jpg,AMNE13.jpg,AMNE15.jpg,AMNE13.jpg,MN,1,num_2,32,num_8,0.683335482376,,,2017_Dec_13_1538,60.0091232167,MAFE4ImagesEEG,001,102501,
AFNE01.JPG,AFNE01.JPG,AFNE01.JPG,AFNE01.JPG,AFNE01.JPG,AFNE01.JPG,,,,,,,,,3,0,30,1,,,,,,,,,,,,,,,AMSA08.jpg,AMSA19.jpg,AMNE12.jpg,AMNE15.jpg,AMNE12.jpg,MN,1,num_2,16,num_2,1.56668777112,,,2017_Dec_13_1538,60.0091232167,MAFE4ImagesEEG,001,102501,
AFNE01.JPG,AFNE01.JPG,AFNE01.JPG,AFNE01.JPG,AFNE01.JPG,AFNE01.JPG,,,,,,,,,3,1,31,9,,,,,,,,,,,,,,,AMNE18.jpg,AMNE03.jpg,AMSA07.jpg,AMSA04.jpg,AMNE03.jpg,MN,1,num_6,32,num_4,1.10010141786,,,2017_Dec_13_1538,60.0091232167,MAFE4ImagesEEG,001,102501,
AFNE01.JPG,AFNE01.JPG,AFNE01.JPG,AFNE01.JPG,AFNE01.JPG,AFNE01.JPG,,,,,,,,,3,2,32,8,,,,,,,,,,,,,,,AMSA05.jpg,AMNE18.jpg,AMNE15.jpg,AMSA09.jpg,AMSA05.jpg,MS,2,num_8,16,num_8,1.40008140355,,,2017_Dec_13_1538,60.0091232167,MAFE4ImagesEEG,001,102501,
AFNE01.JPG,AFNE01.JPG,AFNE01.JPG,AFNE01.JPG,AFNE01.JPG,AFNE01.JPG,,,,,,,,,3,3,33,0,,,,,,,,,,,,,,,AMNE09.jpg,AMSA19.jpg,AMSA04.jpg,AMNE15.jpg,AMNE15.jpg,MN,1,num_4,32,num_6,1.06677565398,,,2017_Dec_13_1538,60.0091232167,MAFE4ImagesEEG,001,102501,
AFNE01.JPG,AFNE01.JPG,AFNE01.JPG,AFNE01.JPG,AFNE01.JPG,AFNE01.JPG,,,,,,,,,3,4,34,6,,,,,,,,,,,,,,,AMSA15.jpg,AMSA16.jpg,AMNE04.jpg,AMNE14.jpg,AMSA15.jpg,MS,2,num_8,16,num_8,1.23344039614,,,2017_Dec_13_1538,60.0091232167,MAFE4ImagesEEG,001,102501,
AFNE01.JPG,AFNE01.JPG,AFNE01.JPG,AFNE01.JPG,AFNE01.JPG,AFNE01.JPG,,,,,,,,,3,5,35,2,,,,,,,,,,,,,,,AMSA13.jpg,AMSA11.jpg,AMNE15.jpg,AMNE17.jpg,AMSA13.jpg,MS,2,num_8,32,num_2,1.01679069642,,,2017_Dec_13_1538,60.0091232167,MAFE4ImagesEEG,001,102501,
AFNE01.JPG,AFNE01.JPG,AFNE01.JPG,AFNE01.JPG,AFNE01.JPG,AFNE01.JPG,,,,,,,,,3,6,36,5,,,,,,,,,,,,,,,AMNE17.jpg,AMSA11.jpg,AMNE04.jpg,AMSA12.jpg,AMSA11.jpg,MS,2,num_6,32,num_8,1.03342038207,,,2017_Dec_13_1538,60.0091232167,MAFE4ImagesEEG,001,102501,
AFNE01.JPG,AFNE01.JPG,AFNE01.JPG,AFNE01.JPG,AFNE01.JPG,AFNE01.JPG,,,,,,,,,3,7,37,4,,,,,,,,,,,,,,,AMNE03.jpg,AMSA08.jpg,AMSA18.jpg,AMNE13.jpg,AMSA08.jpg,MS,2,num_6,16,num_6,0.600129963364,,,2017_Dec_13_1538,60.0091232167,MAFE4ImagesEEG,001,102501,
AFNE01.JPG,AFNE01.JPG,AFNE01.JPG,AFNE01.JPG,AFNE01.JPG,AFNE01.JPG,,,,,,,,,3,8,38,7,,,,,,,,,,,,,,,AMSA20.jpg,AMNE19.jpg,AMNE15.jpg,AMSA05.jpg,AMSA05.jpg,MS,2,num_4,16,num_4,1.15018869075,,,2017_Dec_13_1538,60.0091232167,MAFE4ImagesEEG,001,102501,
AFNE01.JPG,AFNE01.JPG,AFNE01.JPG,AFNE01.JPG,AFNE01.JPG,AFNE01.JPG,,,,,,,,,3,9,39,3,,,,,,,,,,,,,,,AMSA20.jpg,AMSA18.jpg,AMNE02.jpg,AMNE13.jpg,AMSA18.jpg,MS,2,num_6,16,num_6,0.483460763004,,,2017_Dec_13_1538,60.0091232167,MAFE4ImagesEEG,001,102501,
AFNE01.JPG,AFNE01.JPG,AFNE01.JPG,AFNE01.JPG,AFNE01.JPG,AFNE01.JPG,,,,,,,,,4,0,40,7,,,,,,,,,,,,,,,AMSA04.jpg,AMNE06.jpg,AMNE11.jpg,AMSA09.jpg,AMSA09.jpg,MS,2,num_4,16,num_4,1.06675352273,,,2017_Dec_13_1538,60.0091232167,MAFE4ImagesEEG,001,102501,
AFNE01.JPG,AFNE01.JPG,AFNE01.JPG,AFNE01.JPG,AFNE01.JPG,AFNE01.JPG,,,,,,,,,4,1,41,3,,,,,,,,,,,,,,,AMSA04.jpg,AMNE08.jpg,AMSA12.jpg,AMNE01.jpg,AMNE08.jpg,MN,1,num_6,16,num_6,1.61672853725,,,2017_Dec_13_1538,60.0091232167,MAFE4ImagesEEG,001,102501,
AFNE01.JPG,AFNE01.JPG,AFNE01.JPG,AFNE01.JPG,AFNE01.JPG,AFNE01.JPG,,,,,,,,,4,2,42,1,,,,,,,,,,,,,,,AMSA13.jpg,AMNE19.jpg,AMSA01.jpg,AMNE04.jpg,AMNE19.jpg,MN,1,num_6,32,num_8,0.850098691415,,,2017_Dec_13_1538,60.0091232167,MAFE4ImagesEEG,001,102501,
AFNE01.JPG,AFNE01.JPG,AFNE01.JPG,AFNE01.JPG,AFNE01.JPG,AFNE01.JPG,,,,,,,,,4,3,43,0,,,,,,,,,,,,,,,AMNE08.jpg,AMSA04.jpg,AMNE20.jpg,AMSA02.jpg,AMSA04.jpg,MS,2,num_6,16,num_6,0.766755896155,,,2017_Dec_13_1538,60.0091232167,MAFE4ImagesEEG,001,102501,
AFNE01.JPG,AFNE01.JPG,AFNE01.JPG,AFNE01.JPG,AFNE01.JPG,AFNE01.JPG,,,,,,,,,4,4,44,6,,,,,,,,,,,,,,,AMNE15.jpg,AMSA03.jpg,AMNE12.jpg,AMSA14.jpg,AMSA03.jpg,MS,2,num_6,16,num_6,0.80010347045,,,2017_Dec_13_1538,60.0091232167,MAFE4ImagesEEG,001,102501,
AFNE01.JPG,AFNE01.JPG,AFNE01.JPG,AFNE01.JPG,AFNE01.JPG,AFNE01.JPG,,,,,,,,,4,5,45,2,,,,,,,,,,,,,,,AMSA14.jpg,AMSA17.jpg,AMNE20.jpg,AMNE16.jpg,AMNE20.jpg,MN,1,num_2,32,num_4,1.30006786832,,,2017_Dec_13_1538,60.0091232167,MAFE4ImagesEEG,001,102501,
AFNE01.JPG,AFNE01.JPG,AFNE01.JPG,AFNE01.JPG,AFNE01.JPG,AFNE01.JPG,,,,,,,,,4,6,46,5,,,,,,,,,,,,,,,AMNE15.jpg,AMNE19.jpg,AMSA20.jpg,AMSA16.jpg,AMNE15.jpg,MN,1,num_8,16,num_8,0.683457042556,,,2017_Dec_13_1538,60.0091232167,MAFE4ImagesEEG,001,102501,
AFNE01.JPG,AFNE01.JPG,AFNE01.JPG,AFNE01.JPG,AFNE01.JPG,AFNE01.JPG,,,,,,,,,4,7,47,9,,,,,,,,,,,,,,,AMNE18.jpg,AMSA06.jpg,AMSA12.jpg,AMNE08.jpg,AMSA06.jpg,MS,2,num_6,16,num_6,0.733411850408,,,2017_Dec_13_1538,60.0091232167,MAFE4ImagesEEG,001,102501,
AFNE01.JPG,AFNE01.JPG,AFNE01.JPG,AFNE01.JPG,AFNE01.JPG,AFNE01.JPG,,,,,,,,,4,8,48,4,,,,,,,,,,,,,,,AMNE04.jpg,AMNE07.jpg,AMSA11.jpg,AMSA18.jpg,AMNE07.jpg,MN,1,num_6,32,num_8,0.983438311145,,,2017_Dec_13_1538,60.0091232167,MAFE4ImagesEEG,001,102501,
AFNE01.JPG,AFNE01.JPG,AFNE01.JPG,AFNE01.JPG,AFNE01.JPG,AFNE01.JPG,,,,,,,,,4,9,49,8,,,,,,,,,,,,,,,AMSA13.jpg,AMNE01.jpg,AMNE08.jpg,AMSA07.jpg,AMSA13.jpg,MS,2,num_8,32,num_6,1.15008028108,,,2017_Dec_13_1538,60.0091232167,MAFE4ImagesEEG,001,102501,
AFNE01.JPG,AFNE01.JPG,AFNE01.JPG,AFNE01.JPG,AFNE01.JPG,AFNE01.JPG,,,,,,,,,5,0,50,7,,,,,,,,,,,,,,,AMNE05.jpg,AMSA02.jpg,AMNE06.jpg,AMSA04.jpg,AMNE05.jpg,MN,1,num_8,16,num_8,2.0166729854,,,2017_Dec_13_1538,60.0091232167,MAFE4ImagesEEG,001,102501,
AFNE01.JPG,AFNE01.JPG,AFNE01.JPG,AFNE01.JPG,AFNE01.JPG,AFNE01.JPG,,,,,,,,,5,1,51,1,,,,,,,,,,,,,,,AMNE08.jpg,AMSA08.jpg,AMNE02.jpg,AMSA06.jpg,AMSA08.jpg,MS,2,num_6,32,num_2,1.16675839806,,,2017_Dec_13_1538,60.0091232167,MAFE4ImagesEEG,001,102501,
AFNE01.JPG,AFNE01.JPG,AFNE01.JPG,AFNE01.JPG,AFNE01.JPG,AFNE01.JPG,,,,,,,,,5,2,52,4,,,,,,,,,,,,,,,AMSA19.jpg,AMNE13.jpg,AMSA08.jpg,AMNE08.jpg,AMSA08.jpg,MS,2,num_2,32,num_8,0.63350897003,,,2017_Dec_13_1538,60.0091232167,MAFE4ImagesEEG,001,102501,
AFNE01.JPG,AFNE01.JPG,AFNE01.JPG,AFNE01.JPG,AFNE01.JPG,AFNE01.JPG,,,,,,,,,5,3,53,0,,,,,,,,,,,,,,,AMSA08.jpg,AMNE15.jpg,AMNE18.jpg,AMSA06.jpg,AMSA08.jpg,MS,2,num_8,16,num_8,0.700133555802,,,2017_Dec_13_1538,60.0091232167,MAFE4ImagesEEG,001,102501,
AFNE01.JPG,AFNE01.JPG,AFNE01.JPG,AFNE01.JPG,AFNE01.JPG,AFNE01.JPG,,,,,,,,,5,4,54,8,,,,,,,,,,,,,,,AMSA08.jpg,AMNE06.jpg,AMNE19.jpg,AMSA10.jpg,AMSA08.jpg,MS,2,num_8,16,num_8,0.433490239084,,,2017_Dec_13_1538,60.0091232167,MAFE4ImagesEEG,001,102501,
AFNE01.JPG,AFNE01.JPG,AFNE01.JPG,AFNE01.JPG,AFNE01.JPG,AFNE01.JPG,,,,,,,,,5,5,55,9,,,,,,,,,,,,,,,AMSA05.jpg,AMSA02.jpg,AMNE08.jpg,AMNE16.jpg,AMNE08.jpg,MN,1,num_2,32,num_6,0.600125152385,,,2017_Dec_13_1538,60.0091232167,MAFE4ImagesEEG,001,102501,
AFNE01.JPG,AFNE01.JPG,AFNE01.JPG,AFNE01.JPG,AFNE01.JPG,AFNE01.JPG,,,,,,,,,5,6,56,3,,,,,,,,,,,,,,,AMNE10.jpg,AMSA10.jpg,AMSA06.jpg,AMNE07.jpg,AMSA06.jpg,MS,2,num_2,32,num_4,0.883332723984,,,2017_Dec_13_1538,60.0091232167,MAFE4ImagesEEG,001,102501,
AFNE01.JPG,AFNE01.JPG,AFNE01.JPG,AFNE01.JPG,AFNE01.JPG,AFNE01.JPG,,,,,,,,,5,7,57,2,,,,,,,,,,,,,,,AMNE12.jpg,AMSA07.jpg,AMNE20.jpg,AMSA06.jpg,AMNE20.jpg,MN,1,num_2,16,num_2,0.50014786073,,,2017_Dec_13_1538,60.0091232167,MAFE4ImagesEEG,001,102501,
AFNE01.JPG,AFNE01.JPG,AFNE01.JPG,AFNE01.JPG,AFNE01.JPG,AFNE01.JPG,,,,,,,,,5,8,58,5,,,,,,,,,,,,,,,AMNE02.jpg,AMSA19.jpg,AMSA01.jpg,AMNE16.jpg,AMNE16.jpg,MN,1,num_4,16,num_4,0.650129354093,,,2017_Dec_13_1538,60.0091232167,MAFE4ImagesEEG,001,102501,
AFNE01.JPG,AFNE01.JPG,AFNE01.JPG,AFNE01.JPG,AFNE01.JPG,AFNE01.JPG,,,,,,,,,5,9,59,6,,,,,,,,,,,,,,,AMSA08.jpg,AMNE05.jpg,AMNE12.jpg,AMSA09.jpg,AMSA08.jpg,MS,2,num_8,32,num_4,1.06677533314,,,2017_Dec_13_1538,60.0091232167,MAFE4ImagesEEG,001,102501,
,,,,,,,,,,,,,,,,,,,,,,,,,,,,,,,,,,,,,,,,,,,space,33.43083516,2017_Dec_13_1538,60.0091232167,MAFE4ImagesEEG,001,102501,
AFNE01.JPG,AFNE01.JPG,AFNE01.JPG,AFNE01.JPG,AFNE01.JPG,AFNE01.JPG,,,,,,,,,,,,,0,0,0,4,,,,,,,,,,,AFSA17.jpg,AFNE13.jpg,AFSA18.jpg,AFNE09.jpg,AFSA18.jpg,FS,4,num_2,32,num_6,0.566749353195,,,2017_Dec_13_1538,60.0091232167,MAFE4ImagesEEG,001,102501,
AFNE01.JPG,AFNE01.JPG,AFNE01.JPG,AFNE01.JPG,AFNE01.JPG,AFNE01.JPG,,,,,,,,,,,,,0,1,1,5,,,,,,,,,,,AFNE09.jpg,AFSA01.jpg,AFSA13.jpg,AFNE01.jpg,AFSA01.jpg,FS,4,num_6,16,num_6,0.633512498345,,,2017_Dec_13_1538,60.0091232167,MAFE4ImagesEEG,001,102501,
AFNE01.JPG,AFNE01.JPG,AFNE01.JPG,AFNE01.JPG,AFNE01.JPG,AFNE01.JPG,,,,,,,,,,,,,0,2,2,2,,,,,,,,,,,AFSA14.jpg,AFNE09.jpg,AFSA04.jpg,AFNE14.jpg,AFSA14.jpg,FS,4,num_8,32,num_2,1.23344841436,,,2017_Dec_13_1538,60.0091232167,MAFE4ImagesEEG,001,102501,
AFNE01.JPG,AFNE01.JPG,AFNE01.JPG,AFNE01.JPG,AFNE01.JPG,AFNE01.JPG,,,,,,,,,,,,,0,3,3,1,,,,,,,,,,,AFSA05.jpg,AFNE03.jpg,AFSA01.jpg,AFNE07.jpg,AFNE03.jpg,FN,3,num_6,32,num_8,0.700122009264,,,2017_Dec_13_1538,60.0091232167,MAFE4ImagesEEG,001,102501,
AFNE01.JPG,AFNE01.JPG,AFNE01.JPG,AFNE01.JPG,AFNE01.JPG,AFNE01.JPG,,,,,,,,,,,,,0,4,4,0,,,,,,,,,,,AFSA09.jpg,AFNE09.jpg,AFNE12.jpg,AFSA05.jpg,AFNE09.jpg,FN,3,num_6,16,num_6,0.616805514786,,,2017_Dec_13_1538,60.0091232167,MAFE4ImagesEEG,001,102501,
AFNE01.JPG,AFNE01.JPG,AFNE01.JPG,AFNE01.JPG,AFNE01.JPG,AFNE01.JPG,,,,,,,,,,,,,0,5,5,8,,,,,,,,,,,AFNE19.jpg,AFNE05.jpg,AFSA20.jpg,AFSA16.jpg,AFNE05.jpg,FN,3,num_6,16,num_6,0.633419804508,,,2017_Dec_13_1538,60.0091232167,MAFE4ImagesEEG,001,102501,
AFNE01.JPG,AFNE01.JPG,AFNE01.JPG,AFNE01.JPG,AFNE01.JPG,AFNE01.JPG,,,,,,,,,,,,,0,6,6,7,,,,,,,,,,,AFSA07.jpg,AFNE11.jpg,AFNE08.jpg,AFSA10.jpg,AFNE08.jpg,FN,3,num_2,32,num_4,0.550394541118,,,2017_Dec_13_1538,60.0091232167,MAFE4ImagesEEG,001,102501,
AFNE01.JPG,AFNE01.JPG,AFNE01.JPG,AFNE01.JPG,AFNE01.JPG,AFNE01.JPG,,,,,,,,,,,,,0,7,7,9,,,,,,,,,,,AFSA15.jpg,AFSA19.jpg,AFNE16.jpg,AFNE14.jpg,AFNE14.jpg,FN,3,num_4,32,num_8,0.633533667075,,,2017_Dec_13_1538,60.0091232167,MAFE4ImagesEEG,001,102501,
AFNE01.JPG,AFNE01.JPG,AFNE01.JPG,AFNE01.JPG,AFNE01.JPG,AFNE01.JPG,,,,,,,,,,,,,0,8,8,3,,,,,,,,,,,AFSA06.jpg,AFSA16.jpg,AFNE16.jpg,AFNE15.jpg,AFNE15.jpg,FN,3,num_4,32,num_2,0.916614546441,,,2017_Dec_13_1538,60.0091232167,MAFE4ImagesEEG,001,102501,
AFNE01.JPG,AFNE01.JPG,AFNE01.JPG,AFNE01.JPG,AFNE01.JPG,AFNE01.JPG,,,,,,,,,,,,,0,9,9,6,,,,,,,,,,,AFSA08.jpg,AFSA19.jpg,AFNE04.jpg,AFNE18.jpg,AFSA19.jpg,FS,4,num_6,32,num_4,0.60013349168,,,2017_Dec_13_1538,60.0091232167,MAFE4ImagesEEG,001,102501,
AFNE01.JPG,AFNE01.JPG,AFNE01.JPG,AFNE01.JPG,AFNE01.JPG,AFNE01.JPG,,,,,,,,,,,,,1,0,10,1,,,,,,,,,,,AFNE05.jpg,AFNE02.jpg,AFSA02.jpg,AFSA07.jpg,AFNE02.jpg,FN,3,num_6,32,num_2,0.766790536232,,,2017_Dec_13_1538,60.0091232167,MAFE4ImagesEEG,001,102501,
AFNE01.JPG,AFNE01.JPG,AFNE01.JPG,AFNE01.JPG,AFNE01.JPG,AFNE01.JPG,,,,,,,,,,,,,1,1,11,9,,,,,,,,,,,AFNE09.jpg,AFSA17.jpg,AFNE07.jpg,AFSA19.jpg,AFNE09.jpg,FN,3,num_8,16,num_8,0.633447067579,,,2017_Dec_13_1538,60.0091232167,MAFE4ImagesEEG,001,102501,
AFNE01.JPG,AFNE01.JPG,AFNE01.JPG,AFNE01.JPG,AFNE01.JPG,AFNE01.JPG,,,,,,,,,,,,,1,2,12,6,,,,,,,,,,,AFNE05.jpg,AFSA19.jpg,AFSA12.jpg,AFNE08.jpg,AFSA12.jpg,FS,4,num_2,32,num_4,0.800137468847,,,2017_Dec_13_1538,60.0091232167,MAFE4ImagesEEG,001,102501,
AFNE01.JPG,AFNE01.JPG,AFNE01.JPG,AFNE01.JPG,AFNE01.JPG,AFNE01.JPG,,,,,,,,,,,,,1,3,13,3,,,,,,,,,,,AFNE05.jpg,AFSA05.jpg,AFNE06.jpg,AFSA08.jpg,AFNE05.jpg,FN,3,num_8,32,num_4,1.10011520959,,,2017_Dec_13_1538,60.0091232167,MAFE4ImagesEEG,001,102501,
AFNE01.JPG,AFNE01.JPG,AFNE01.JPG,AFNE01.JPG,AFNE01.JPG,AFNE01.JPG,,,,,,,,,,,,,1,4,14,4,,,,,,,,,,,AFNE12.jpg,AFSA15.jpg,AFNE09.jpg,AFSA16.jpg,AFSA16.jpg,FS,4,num_4,16,num_4,1.0500834242,,,2017_Dec_13_1538,60.0091232167,MAFE4ImagesEEG,001,102501,
AFNE01.JPG,AFNE01.JPG,AFNE01.JPG,AFNE01.JPG,AFNE01.JPG,AFNE01.JPG,,,,,,,,,,,,,1,5,15,7,,,,,,,,,,,AFNE17.jpg,AFSA09.jpg,AFNE06.jpg,AFSA08.jpg,AFNE06.jpg,FN,3,num_2,32,num_8,0.649850952672,,,2017_Dec_13_1538,60.0091232167,MAFE4ImagesEEG,001,102501,
AFNE01.JPG,AFNE01.JPG,AFNE01.JPG,AFNE01.JPG,AFNE01.JPG,AFNE01.JPG,,,,,,,,,,,,,1,6,16,2,,,,,,,,,,,AFNE10.jpg,AFSA17.jpg,AFNE06.jpg,AFSA10.jpg,AFSA10.jpg,FS,4,num_4,16,num_4,0.833713730099,,,2017_Dec_13_1538,60.0091232167,MAFE4ImagesEEG,001,102501,
AFNE01.JPG,AFNE01.JPG,AFNE01.JPG,AFNE01.JPG,AFNE01.JPG,AFNE01.JPG,,,,,,,,,,,,,1,7,17,0,,,,,,,,,,,AFSA03.jpg,AFNE20.jpg,AFSA01.jpg,AFNE14.jpg,AFSA01.jpg,FS,4,num_2,32,num_6,0.816759135807,,,2017_Dec_13_1538,60.0091232167,MAFE4ImagesEEG,001,102501,
AFNE01.JPG,AFNE01.JPG,AFNE01.JPG,AFNE01.JPG,AFNE01.JPG,AFNE01.JPG,,,,,,,,,,,,,1,8,18,8,,,,,,,,,,,AFSA04.jpg,AFNE14.jpg,AFSA20.jpg,AFNE20.jpg,AFNE14.jpg,FN,3,num_6,32,num_2,0.883486037143,,,2017_Dec_13_1538,60.0091232167,MAFE4ImagesEEG,001,102501,
AFNE01.JPG,AFNE01.JPG,AFNE01.JPG,AFNE01.JPG,AFNE01.JPG,AFNE01.JPG,,,,,,,,,,,,,1,9,19,5,,,,,,,,,,,AFNE06.jpg,AFSA12.jpg,AFSA16.jpg,AFNE17.jpg,AFNE17.jpg,FN,3,num_4,32,num_6,1.60005811811,,,2017_Dec_13_1538,60.0091232167,MAFE4ImagesEEG,001,102501,
AFNE01.JPG,AFNE01.JPG,AFNE01.JPG,AFNE01.JPG,AFNE01.JPG,AFNE01.JPG,,,,,,,,,,,,,2,0,20,3,,,,,,,,,,,AFSA13.jpg,AFNE14.jpg,AFSA05.jpg,AFNE12.jpg,AFSA13.jpg,FS,4,num_8,32,num_2,0.766602262156,,,2017_Dec_13_1538,60.0091232167,MAFE4ImagesEEG,001,102501,
AFNE01.JPG,AFNE01.JPG,AFNE01.JPG,AFNE01.JPG,AFNE01.JPG,AFNE01.JPG,,,,,,,,,,,,,2,1,21,2,,,,,,,,,,,AFNE02.jpg,AFSA03.jpg,AFNE12.jpg,AFSA07.jpg,AFNE02.jpg,FN,3,num_8,16,num_8,0.516800318612,,,2017_Dec_13_1538,60.0091232167,MAFE4ImagesEEG,001,102501,
AFNE01.JPG,AFNE01.JPG,AFNE01.JPG,AFNE01.JPG,AFNE01.JPG,AFNE01.JPG,,,,,,,,,,,,,2,2,22,0,,,,,,,,,,,AFSA08.jpg,AFNE11.jpg,AFSA03.jpg,AFNE04.jpg,AFSA03.jpg,FS,4,num_2,32,num_6,0.750321220141,,,2017_Dec_13_1538,60.0091232167,MAFE4ImagesEEG,001,102501,
AFNE01.JPG,AFNE01.JPG,AFNE01.JPG,AFNE01.JPG,AFNE01.JPG,AFNE01.JPG,,,,,,,,,,,,,2,3,23,8,,,,,,,,,,,AFSA08.jpg,AFNE19.jpg,AFSA07.jpg,AFNE06.jpg,AFNE06.jpg,FN,3,num_4,16,num_4,0.616755479248,,,2017_Dec_13_1538,60.0091232167,MAFE4ImagesEEG,001,102501,
AFNE01.JPG,AFNE01.JPG,AFNE01.JPG,AFNE01.JPG,AFNE01.JPG,AFNE01.JPG,,,,,,,,,,,,,2,4,24,7,,,,,,,,,,,AFNE07.jpg,AFSA15.jpg,AFSA05.jpg,AFNE05.jpg,AFSA15.jpg,FS,4,num_6,32,num_8,0.400128873065,,,2017_Dec_13_1538,60.0091232167,MAFE4ImagesEEG,001,102501,
AFNE01.JPG,AFNE01.JPG,AFNE01.JPG,AFNE01.JPG,AFNE01.JPG,AFNE01.JPG,,,,,,,,,,,,,2,5,25,9,,,,,,,,,,,AFNE02.jpg,AFNE15.jpg,AFSA07.jpg,AFSA13.jpg,AFSA07.jpg,FS,4,num_2,16,num_2,0.800211880123,,,2017_Dec_13_1538,60.0091232167,MAFE4ImagesEEG,001,102501,
AFNE01.JPG,AFNE01.JPG,AFNE01.JPG,AFNE01.JPG,AFNE01.JPG,AFNE01.JPG,,,,,,,,,,,,,2,6,26,1,,,,,,,,,,,AFNE10.jpg,AFSA10.jpg,AFNE02.jpg,AFSA08.jpg,AFSA10.jpg,FS,4,num_6,32,num_4,0.666802980937,,,2017_Dec_13_1538,60.0091232167,MAFE4ImagesEEG,001,102501,
AFNE01.JPG,AFNE01.JPG,AFNE01.JPG,AFNE01.JPG,AFNE01.JPG,AFNE01.JPG,,,,,,,,,,,,,2,7,27,6,,,,,,,,,,,AFNE16.jpg,AFSA17.jpg,AFSA13.jpg,AFNE04.jpg,AFSA17.jpg,FS,4,num_6,16,num_6,0.450172846438,,,2017_Dec_13_1538,60.0091232167,MAFE4ImagesEEG,001,102501,
AFNE01.JPG,AFNE01.JPG,AFNE01.JPG,AFNE01.JPG,AFNE01.JPG,AFNE01.JPG,,,,,,,,,,,,,2,8,28,4,,,,,,,,,,,AFNE10.jpg,AFNE03.jpg,AFSA18.jpg,AFSA12.jpg,AFNE03.jpg,FN,3,num_6,32,num_8,0.88344081305,,,2017_Dec_13_1538,60.0091232167,MAFE4ImagesEEG,001,102501,
AFNE01.JPG,AFNE01.JPG,AFNE01.JPG,AFNE01.JPG,AFNE01.JPG,AFNE01.JPG,,,,,,,,,,,,,2,9,29,5,,,,,,,,,,,AFSA14.jpg,AFSA07.jpg,AFNE17.jpg,AFNE02.jpg,AFNE02.jpg,FN,3,num_4,32,num_6,0.7500960615,,,2017_Dec_13_1538,60.0091232167,MAFE4ImagesEEG,001,102501,
AFNE01.JPG,AFNE01.JPG,AFNE01.JPG,AFNE01.JPG,AFNE01.JPG,AFNE01.JPG,,,,,,,,,,,,,3,0,30,8,,,,,,,,,,,AFNE09.jpg,AFNE01.jpg,AFSA03.jpg,AFSA01.jpg,AFSA01.jpg,FS,4,num_4,16,num_4,0.450122490292,,,2017_Dec_13_1538,60.0091232167,MAFE4ImagesEEG,001,102501,
AFNE01.JPG,AFNE01.JPG,AFNE01.JPG,AFNE01.JPG,AFNE01.JPG,AFNE01.JPG,,,,,,,,,,,,,3,1,31,1,,,,,,,,,,,AFSA10.jpg,AFNE05.jpg,AFNE11.jpg,AFSA06.jpg,AFSA10.jpg,FS,4,num_8,16,num_8,0.733306006296,,,2017_Dec_13_1538,60.0091232167,MAFE4ImagesEEG,001,102501,
AFNE01.JPG,AFNE01.JPG,AFNE01.JPG,AFNE01.JPG,AFNE01.JPG,AFNE01.JPG,,,,,,,,,,,,,3,2,32,6,,,,,,,,,,,AFSA10.jpg,AFSA11.jpg,AFNE09.jpg,AFNE17.jpg,AFSA11.jpg,FS,4,num_6,16,num_6,0.800138430903,,,2017_Dec_13_1538,60.0091232167,MAFE4ImagesEEG,001,102501,
AFNE01.JPG,AFNE01.JPG,AFNE01.JPG,AFNE01.JPG,AFNE01.JPG,AFNE01.JPG,,,,,,,,,,,,,3,3,33,5,,,,,,,,,,,AFNE08.jpg,AFNE11.jpg,AFSA07.jpg,AFSA18.jpg,AFNE11.jpg,FN,3,num_6,16,num_6,1.45006187051,,,2017_Dec_13_1538,60.0091232167,MAFE4ImagesEEG,001,102501,
AFNE01.JPG,AFNE01.JPG,AFNE01.JPG,AFNE01.JPG,AFNE01.JPG,AFNE01.JPG,,,,,,,,,,,,,3,4,34,9,,,,,,,,,,,AFNE20.jpg,AFSA19.jpg,AFNE11.jpg,AFSA07.jpg,AFSA07.jpg,FS,4,num_4,16,num_4,0.633455085801,,,2017_Dec_13_1538,60.0091232167,MAFE4ImagesEEG,001,102501,
AFNE01.JPG,AFNE01.JPG,AFNE01.JPG,AFNE01.JPG,AFNE01.JPG,AFNE01.JPG,,,,,,,,,,,,,3,5,35,0,,,,,,,,,,,AFNE10.jpg,AFSA13.jpg,AFNE11.jpg,AFSA07.jpg,AFNE10.jpg,FN,3,num_8,16,num_8,0.516736812191,,,2017_Dec_13_1538,60.0091232167,MAFE4ImagesEEG,001,102501,
AFNE01.JPG,AFNE01.JPG,AFNE01.JPG,AFNE01.JPG,AFNE01.JPG,AFNE01.JPG,,,,,,,,,,,,,3,6,36,4,,,,,,,,,,,AFSA13.jpg,AFSA18.jpg,AFNE10.jpg,AFNE16.jpg,AFSA18.jpg,FS,4,num_6,16,num_6,0.633540081792,,,2017_Dec_13_1538,60.0091232167,MAFE4ImagesEEG,001,102501,
AFNE01.JPG,AFNE01.JPG,AFNE01.JPG,AFNE01.JPG,AFNE01.JPG,AFNE01.JPG,,,,,,,,,,,,,3,7,37,3,,,,,,,,,,,AFSA14.jpg,AFSA11.jpg,AFNE06.jpg,AFNE07.jpg,AFNE06.jpg,FN,3,num_2,32,num_4,0.650127429748,,,2017_Dec_13_1538,60.0091232167,MAFE4ImagesEEG,001,102501,
AFNE01.JPG,AFNE01.JPG,AFNE01.JPG,AFNE01.JPG,AFNE01.JPG,AFNE01.JPG,,,,,,,,,,,,,3,8,38,7,,,,,,,,,,,AFSA01.jpg,AFNE05.jpg,AFSA20.jpg,AFNE04.jpg,AFNE05.jpg,FN,3,num_6,16,num_6,0.850119539537,,,2017_Dec_13_1538,60.0091232167,MAFE4ImagesEEG,001,102501,
AFNE01.JPG,AFNE01.JPG,AFNE01.JPG,AFNE01.JPG,AFNE01.JPG,AFNE01.JPG,,,,,,,,,,,,,3,9,39,2,,,,,,,,,,,AFNE04.jpg,AFNE11.jpg,AFSA18.jpg,AFSA12.jpg,AFSA12.jpg,FS,4,num_4,32,num_8,1.26669463515,,,2017_Dec_13_1538,60.0091232167,MAFE4ImagesEEG,001,102501,
AFNE01.JPG,AFNE01.JPG,AFNE01.JPG,AFNE01.JPG,AFNE01.JPG,AFNE01.JPG,,,,,,,,,,,,,4,0,40,2,,,,,,,,,,,AFNE18.jpg,AFNE13.jpg,AFSA15.jpg,AFSA14.jpg,AFNE13.jpg,FN,3,num_6,32,num_8,1.10013028421,,,2017_Dec_13_1538,60.0091232167,MAFE4ImagesEEG,001,102501,
AFNE01.JPG,AFNE01.JPG,AFNE01.JPG,AFNE01.JPG,AFNE01.JPG,AFNE01.JPG,,,,,,,,,,,,,4,1,41,3,,,,,,,,,,,AFSA10.jpg,AFNE18.jpg,AFNE01.jpg,AFSA20.jpg,AFSA10.jpg,FS,4,num_8,16,num_8,0.533471058588,,,2017_Dec_13_1538,60.0091232167,MAFE4ImagesEEG,001,102501,
AFNE01.JPG,AFNE01.JPG,AFNE01.JPG,AFNE01.JPG,AFNE01.JPG,AFNE01.JPG,,,,,,,,,,,,,4,2,42,0,,,,,,,,,,,AFSA07.jpg,AFNE20.jpg,AFSA03.jpg,AFNE18.jpg,AFSA07.jpg,FS,4,num_8,32,num_2,1.00009076926,,,2017_Dec_13_1538,60.0091232167,MAFE4ImagesEEG,001,102501,
AFNE01.JPG,AFNE01.JPG,AFNE01.JPG,AFNE01.JPG,AFNE01.JPG,AFNE01.JPG,,,,,,,,,,,,,4,3,43,8,,,,,,,,,,,AFNE05.jpg,AFNE18.jpg,AFSA17.jpg,AFSA12.jpg,AFNE05.jpg,FN,3,num_8,32,num_4,0.867001005216,,,2017_Dec_13_1538,60.0091232167,MAFE4ImagesEEG,001,102501,
AFNE01.JPG,AFNE01.JPG,AFNE01.JPG,AFNE01.JPG,AFNE01.JPG,AFNE01.JPG,,,,,,,,,,,,,4,4,44,9,,,,,,,,,,,AFSA01.jpg,AFNE20.jpg,AFSA16.jpg,AFNE09.jpg,AFNE20.jpg,FN,3,num_6,16,num_6,0.583434205735,,,2017_Dec_13_1538,60.0091232167,MAFE4ImagesEEG,001,102501,
AFNE01.JPG,AFNE01.JPG,AFNE01.JPG,AFNE01.JPG,AFNE01.JPG,AFNE01.JPG,,,,,,,,,,,,,4,5,45,5,,,,,,,,,,,AFSA12.jpg,AFNE17.jpg,AFNE02.jpg,AFSA04.jpg,AFNE02.jpg,FN,3,num_2,16,num_2,0.933425449533,,,2017_Dec_13_1538,60.0091232167,MAFE4ImagesEEG,001,102501,
AFNE01.JPG,AFNE01.JPG,AFNE01.JPG,AFNE01.JPG,AFNE01.JPG,AFNE01.JPG,,,,,,,,,,,,,4,6,46,7,,,,,,,,,,,AFSA08.jpg,AFNE18.jpg,AFNE10.jpg,AFSA17.jpg,AFNE18.jpg,FN,3,num_6,32,num_4,0.516665287549,,,2017_Dec_13_1538,60.0091232167,MAFE4ImagesEEG,001,102501,
AFNE01.JPG,AFNE01.JPG,AFNE01.JPG,AFNE01.JPG,AFNE01.JPG,AFNE01.JPG,,,,,,,,,,,,,4,7,47,1,,,,,,,,,,,AFSA05.jpg,AFNE20.jpg,AFSA06.jpg,AFNE06.jpg,AFSA05.jpg,FS,4,num_8,16,num_8,0.500173519831,,,2017_Dec_13_1538,60.0091232167,MAFE4ImagesEEG,001,102501,
AFNE01.JPG,AFNE01.JPG,AFNE01.JPG,AFNE01.JPG,AFNE01.JPG,AFNE01.JPG,,,,,,,,,,,,,4,8,48,4,,,,,,,,,,,AFNE09.jpg,AFSA17.jpg,AFNE11.jpg,AFSA20.jpg,AFNE09.jpg,FN,3,num_8,32,num_4,0.700203797547,,,2017_Dec_13_1538,60.0091232167,MAFE4ImagesEEG,001,102501,
AFNE01.JPG,AFNE01.JPG,AFNE01.JPG,AFNE01.JPG,AFNE01.JPG,AFNE01.JPG,,,,,,,,,,,,,4,9,49,6,,,,,,,,,,,AFSA09.jpg,AFNE10.jpg,AFSA07.jpg,AFNE20.jpg,AFNE20.jpg,FN,3,num_4,32,num_2,0.816760098096,,,2017_Dec_13_1538,60.0091232167,MAFE4ImagesEEG,001,102501,
AFNE01.JPG,AFNE01.JPG,AFNE01.JPG,AFNE01.JPG,AFNE01.JPG,AFNE01.JPG,,,,,,,,,,,,,5,0,50,8,,,,,,,,,,,AFNE16.jpg,AFSA01.jpg,AFSA14.jpg,AFNE04.jpg,AFNE16.jpg,FN,3,num_8,16,num_8,0.633470160654,,,2017_Dec_13_1538,60.0091232167,MAFE4ImagesEEG,001,102501,
AFNE01.JPG,AFNE01.JPG,AFNE01.JPG,AFNE01.JPG,AFNE01.JPG,AFNE01.JPG,,,,,,,,,,,,,5,1,51,5,,,,,,,,,,,AFSA14.jpg,AFNE13.jpg,AFNE02.jpg,AFSA06.jpg,AFSA06.jpg,FS,4,num_4,16,num_4,0.700119764078,,,2017_Dec_13_1538,60.0091232167,MAFE4ImagesEEG,001,102501,
AFNE01.JPG,AFNE01.JPG,AFNE01.JPG,AFNE01.JPG,AFNE01.JPG,AFNE01.JPG,,,,,,,,,,,,,5,2,52,0,,,,,,,,,,,AFSA15.jpg,AFSA11.jpg,AFNE05.jpg,AFNE04.jpg,AFNE05.jpg,FN,3,num_2,16,num_2,0.633435520809,,,2017_Dec_13_1538,60.0091232167,MAFE4ImagesEEG,001,102501,
AFNE01.JPG,AFNE01.JPG,AFNE01.JPG,AFNE01.JPG,AFNE01.JPG,AFNE01.JPG,,,,,,,,,,,,,5,3,53,1,,,,,,,,,,,AFNE08.jpg,AFSA01.jpg,AFSA18.jpg,AFNE18.jpg,AFNE18.jpg,FN,3,num_4,16,num_4,0.800102829002,,,2017_Dec_13_1538,60.0091232167,MAFE4ImagesEEG,001,102501,
AFNE01.JPG,AFNE01.JPG,AFNE01.JPG,AFNE01.JPG,AFNE01.JPG,AFNE01.JPG,,,,,,,,,,,,,5,4,54,3,,,,,,,,,,,AFSA17.jpg,AFNE11.jpg,AFNE10.jpg,AFSA10.jpg,AFSA10.jpg,FS,4,num_4,16,num_4,0.833467723103,,,2017_Dec_13_1538,60.0091232167,MAFE4ImagesEEG,001,102501,
AFNE01.JPG,AFNE01.JPG,AFNE01.JPG,AFNE01.JPG,AFNE01.JPG,AFNE01.JPG,,,,,,,,,,,,,5,5,55,7,,,,,,,,,,,AFNE20.jpg,AFSA06.jpg,AFSA04.jpg,AFNE09.jpg,AFNE09.jpg,FN,3,num_4,32,num_8,0.783411882352,,,2017_Dec_13_1538,60.0091232167,MAFE4ImagesEEG,001,102501,
AFNE01.JPG,AFNE01.JPG,AFNE01.JPG,AFNE01.JPG,AFNE01.JPG,AFNE01.JPG,,,,,,,,,,,,,5,6,56,9,,,,,,,,,,,AFSA12.jpg,AFNE17.jpg,AFSA04.jpg,AFNE08.jpg,AFNE17.jpg,FN,3,num_6,16,num_6,0.700089614606,,,2017_Dec_13_1538,60.0091232167,MAFE4ImagesEEG,001,102501,
AFNE01.JPG,AFNE01.JPG,AFNE01.JPG,AFNE01.JPG,AFNE01.JPG,AFNE01.JPG,,,,,,,,,,,,,5,7,57,6,,,,,,,,,,,AFSA05.jpg,AFNE14.jpg,AFNE13.jpg,AFSA09.jpg,AFNE13.jpg,FN,3,num_2,32,num_6,0.600102059077,,,2017_Dec_13_1538,60.0091232167,MAFE4ImagesEEG,001,102501,
AFNE01.JPG,AFNE01.JPG,AFNE01.JPG,AFNE01.JPG,AFNE01.JPG,AFNE01.JPG,,,,,,,,,,,,,5,8,58,4,,,,,,,,,,,AFSA04.jpg,AFNE12.jpg,AFNE14.jpg,AFSA01.jpg,AFSA01.jpg,FS,4,num_4,32,num_2,0.550118705491,,,2017_Dec_13_1538,60.0091232167,MAFE4ImagesEEG,001,102501,
AFNE01.JPG,AFNE01.JPG,AFNE01.JPG,AFNE01.JPG,AFNE01.JPG,AFNE01.JPG,,,,,,,,,,,,,5,9,59,2,,,,,,,,,,,AFNE16.jpg,AFSA17.jpg,AFSA15.jpg,AFNE15.jpg,AFNE15.jpg,FN,3,num_4,16,num_4,0.516811865149,,,2017_Dec_13_1538,60.0091232167,MAFE4ImagesEEG,001,102501,
,,,,,,,,,,,,,,,,,,,,,,,,,,,,,,,,,,,,,,,,,,,space,67.8611924185,2017_Dec_13_1538,60.0091232167,MAFE4ImagesEEG,001,102501,
AFNE01.JPG,AFNE01.JPG,AFNE01.JPG,AFNE01.JPG,AFNE01.JPG,AFNE01.JPG,,,,,,,,,,,,,,,,,0,0,0,3,,,,,,,AMSA20.jpg,AMSA15.jpg,AMNE08.jpg,AMNE14.jpg,AMNE08.jpg,MN,1,num_2,32,num_8,0.616776006762,,,2017_Dec_13_1538,60.0091232167,MAFE4ImagesEEG,001,102501,
AFNE01.JPG,AFNE01.JPG,AFNE01.JPG,AFNE01.JPG,AFNE01.JPG,AFNE01.JPG,,,,,,,,,,,,,,,,,0,1,1,8,,,,,,,AMSA04.jpg,AMSA09.jpg,AMNE19.jpg,AMNE06.jpg,AMNE19.jpg,MN,1,num_2,16,num_2,0.983411048306,,,2017_Dec_13_1538,60.0091232167,MAFE4ImagesEEG,001,102501,
AFNE01.JPG,AFNE01.JPG,AFNE01.JPG,AFNE01.JPG,AFNE01.JPG,AFNE01.JPG,,,,,,,,,,,,,,,,,0,2,2,1,,,,,,,AMSA07.jpg,AMSA14.jpg,AMNE07.jpg,AMNE10.jpg,AMNE07.jpg,MN,1,num_2,32,num_8,0.783478596015,,,2017_Dec_13_1538,60.0091232167,MAFE4ImagesEEG,001,102501,
AFNE01.JPG,AFNE01.JPG,AFNE01.JPG,AFNE01.JPG,AFNE01.JPG,AFNE01.JPG,,,,,,,,,,,,,,,,,0,3,3,4,,,,,,,AMNE19.jpg,AMNE07.jpg,AMSA16.jpg,AMSA10.jpg,AMSA10.jpg,MS,2,num_4,16,num_4,1.33351839986,,,2017_Dec_13_1538,60.0091232167,MAFE4ImagesEEG,001,102501,
AFNE01.JPG,AFNE01.JPG,AFNE01.JPG,AFNE01.JPG,AFNE01.JPG,AFNE01.JPG,,,,,,,,,,,,,,,,,0,4,4,9,,,,,,,AMNE02.jpg,AMSA01.jpg,AMSA02.jpg,AMNE15.jpg,AMSA01.jpg,MS,2,num_6,16,num_6,1.90000763349,,,2017_Dec_13_1538,60.0091232167,MAFE4ImagesEEG,001,102501,
AFNE01.JPG,AFNE01.JPG,AFNE01.JPG,AFNE01.JPG,AFNE01.JPG,AFNE01.JPG,,,,,,,,,,,,,,,,,0,5,5,6,,,,,,,AMNE20.jpg,AMSA04.jpg,AMNE05.jpg,AMSA05.jpg,AMNE20.jpg,MN,1,num_8,16,num_8,0.750118513126,,,2017_Dec_13_1538,60.0091232167,MAFE4ImagesEEG,001,102501,
AFNE01.JPG,AFNE01.JPG,AFNE01.JPG,AFNE01.JPG,AFNE01.JPG,AFNE01.JPG,,,,,,,,,,,,,,,,,0,6,6,2,,,,,,,AMNE12.jpg,AMSA02.jpg,AMSA05.jpg,AMNE01.jpg,AMSA05.jpg,MS,2,num_2,32,num_8,0.600105587393,,,2017_Dec_13_1538,60.0091232167,MAFE4ImagesEEG,001,102501,
AFNE01.JPG,AFNE01.JPG,AFNE01.JPG,AFNE01.JPG,AFNE01.JPG,AFNE01.JPG,,,,,,,,,,,,,,,,,0,7,7,0,,,,,,,AMNE01.jpg,AMNE08.jpg,AMSA04.jpg,AMSA19.jpg,AMSA19.jpg,MS,2,num_4,16,num_4,0.566786238225,,,2017_Dec_13_1538,60.0091232167,MAFE4ImagesEEG,001,102501,
AFNE01.JPG,AFNE01.JPG,AFNE01.JPG,AFNE01.JPG,AFNE01.JPG,AFNE01.JPG,,,,,,,,,,,,,,,,,0,8,8,5,,,,,,,AMSA05.jpg,AMSA19.jpg,AMNE01.jpg,AMNE04.jpg,AMSA19.jpg,MS,2,num_6,16,num_6,0.583455374697,,,2017_Dec_13_1538,60.0091232167,MAFE4ImagesEEG,001,102501,
AFNE01.JPG,AFNE01.JPG,AFNE01.JPG,AFNE01.JPG,AFNE01.JPG,AFNE01.JPG,,,,,,,,,,,,,,,,,0,9,9,7,,,,,,,AMNE14.jpg,AMNE08.jpg,AMSA06.jpg,AMSA11.jpg,AMSA06.jpg,MS,2,num_2,32,num_4,0.983430613531,,,2017_Dec_13_1538,60.0091232167,MAFE4ImagesEEG,001,102501,
AFNE01.JPG,AFNE01.JPG,AFNE01.JPG,AFNE01.JPG,AFNE01.JPG,AFNE01.JPG,,,,,,,,,,,,,,,,,1,0,10,8,,,,,,,AMSA10.jpg,AMNE05.jpg,AMSA08.jpg,AMNE19.jpg,AMSA10.jpg,MS,2,num_8,16,num_8,0.750114343595,,,2017_Dec_13_1538,60.0091232167,MAFE4ImagesEEG,001,102501,
AFNE01.JPG,AFNE01.JPG,AFNE01.JPG,AFNE01.JPG,AFNE01.JPG,AFNE01.JPG,,,,,,,,,,,,,,,,,1,1,11,2,,,,,,,AMNE10.jpg,AMSA08.jpg,AMNE08.jpg,AMSA13.jpg,AMSA13.jpg,MS,2,num_4,16,num_4,0.783446201589,,,2017_Dec_13_1538,60.0091232167,MAFE4ImagesEEG,001,102501,
AFNE01.JPG,AFNE01.JPG,AFNE01.JPG,AFNE01.JPG,AFNE01.JPG,AFNE01.JPG,,,,,,,,,,,,,,,,,1,2,12,6,,,,,,,AMNE20.jpg,AMSA15.jpg,AMSA08.jpg,AMNE01.jpg,AMSA15.jpg,MS,2,num_6,16,num_6,0.583800169406,,,2017_Dec_13_1538,60.0091232167,MAFE4ImagesEEG,001,102501,
AFNE01.JPG,AFNE01.JPG,AFNE01.JPG,AFNE01.JPG,AFNE01.JPG,AFNE01.JPG,,,,,,,,,,,,,,,,,1,3,13,1,,,,,,,AMNE11.jpg,AMSA03.jpg,AMSA16.jpg,AMNE17.jpg,AMSA03.jpg,MS,2,num_6,32,num_2,1.38339655101,,,2017_Dec_13_1538,60.0091232167,MAFE4ImagesEEG,001,102501,
AFNE01.JPG,AFNE01.JPG,AFNE01.JPG,AFNE01.JPG,AFNE01.JPG,AFNE01.JPG,,,,,,,,,,,,,,,,,1,4,14,0,,,,,,,AMNE09.jpg,AMNE06.jpg,AMSA10.jpg,AMSA18.jpg,AMNE09.jpg,MN,1,num_8,16,num_8,0.333480552537,,,2017_Dec_13_1538,60.0091232167,MAFE4ImagesEEG,001,102501,
AFNE01.JPG,AFNE01.JPG,AFNE01.JPG,AFNE01.JPG,AFNE01.JPG,AFNE01.JPG,,,,,,,,,,,,,,,,,1,5,15,9,,,,,,,AMNE01.jpg,AMSA16.jpg,AMNE09.jpg,AMSA05.jpg,AMSA05.jpg,MS,2,num_4,32,num_6,0.566762503702,,,2017_Dec_13_1538,60.0091232167,MAFE4ImagesEEG,001,102501,
AFNE01.JPG,AFNE01.JPG,AFNE01.JPG,AFNE01.JPG,AFNE01.JPG,AFNE01.JPG,,,,,,,,,,,,,,,,,1,6,16,3,,,,,,,AMSA03.jpg,AMNE09.jpg,AMNE16.jpg,AMSA06.jpg,AMSA03.jpg,MS,2,num_8,16,num_8,1.05008406565,,,2017_Dec_13_1538,60.0091232167,MAFE4ImagesEEG,001,102501,
AFNE01.JPG,AFNE01.JPG,AFNE01.JPG,AFNE01.JPG,AFNE01.JPG,AFNE01.JPG,,,,,,,,,,,,,,,,,1,7,17,7,,,,,,,AMNE08.jpg,AMNE05.jpg,AMSA20.jpg,AMSA06.jpg,AMSA20.jpg,MS,2,num_2,16,num_2,0.65024161269,,,2017_Dec_13_1538,60.0091232167,MAFE4ImagesEEG,001,102501,
AFNE01.JPG,AFNE01.JPG,AFNE01.JPG,AFNE01.JPG,AFNE01.JPG,AFNE01.JPG,,,,,,,,,,,,,,,,,1,8,18,5,,,,,,,AMNE08.jpg,AMNE15.jpg,AMSA04.jpg,AMSA17.jpg,AMSA17.jpg,MS,2,num_4,16,num_4,0.450161941117,,,2017_Dec_13_1538,60.0091232167,MAFE4ImagesEEG,001,102501,
AFNE01.JPG,AFNE01.JPG,AFNE01.JPG,AFNE01.JPG,AFNE01.JPG,AFNE01.JPG,,,,,,,,,,,,,,,,,1,9,19,4,,,,,,,AMNE04.jpg,AMSA07.jpg,AMSA02.jpg,AMNE02.jpg,AMSA02.jpg,MS,2,num_2,16,num_2,1.13341723871,,,2017_Dec_13_1538,60.0091232167,MAFE4ImagesEEG,001,102501,
AFNE01.JPG,AFNE01.JPG,AFNE01.JPG,AFNE01.JPG,AFNE01.JPG,AFNE01.JPG,,,,,,,,,,,,,,,,,2,0,20,6,,,,,,,AMSA07.jpg,AMSA20.jpg,AMNE04.jpg,AMNE08.jpg,AMSA20.jpg,MS,2,num_6,32,num_4,0.983567890013,,,2017_Dec_13_1538,60.0091232167,MAFE4ImagesEEG,001,102501,
AFNE01.JPG,AFNE01.JPG,AFNE01.JPG,AFNE01.JPG,AFNE01.JPG,AFNE01.JPG,,,,,,,,,,,,,,,,,2,1,21,0,,,,,,,AMSA19.jpg,AMNE02.jpg,AMSA03.jpg,AMNE03.jpg,AMSA19.jpg,MS,2,num_8,16,num_8,1.05013089371,,,2017_Dec_13_1538,60.0091232167,MAFE4ImagesEEG,001,102501,
AFNE01.JPG,AFNE01.JPG,AFNE01.JPG,AFNE01.JPG,AFNE01.JPG,AFNE01.JPG,,,,,,,,,,,,,,,,,2,2,22,7,,,,,,,AMSA10.jpg,AMNE14.jpg,AMNE18.jpg,AMSA20.jpg,AMNE18.jpg,MN,1,num_2,32,num_8,0.616784987273,,,2017_Dec_13_1538,60.0091232167,MAFE4ImagesEEG,001,102501,
AFNE01.JPG,AFNE01.JPG,AFNE01.JPG,AFNE01.JPG,AFNE01.JPG,AFNE01.JPG,,,,,,,,,,,,,,,,,2,3,23,4,,,,,,,AMSA13.jpg,AMNE18.jpg,AMNE20.jpg,AMSA08.jpg,AMNE20.jpg,MN,1,num_2,32,num_8,0.850185291143,,,2017_Dec_13_1538,60.0091232167,MAFE4ImagesEEG,001,102501,
AFNE01.JPG,AFNE01.JPG,AFNE01.JPG,AFNE01.JPG,AFNE01.JPG,AFNE01.JPG,,,,,,,,,,,,,,,,,2,4,24,3,,,,,,,AMNE15.jpg,AMSA01.jpg,AMNE01.jpg,AMSA04.jpg,AMNE01.jpg,MN,1,num_2,32,num_6,0.500172237167,,,2017_Dec_13_1538,60.0091232167,MAFE4ImagesEEG,001,102501,
AFNE01.JPG,AFNE01.JPG,AFNE01.JPG,AFNE01.JPG,AFNE01.JPG,AFNE01.JPG,,,,,,,,,,,,,,,,,2,5,25,9,,,,,,,AMNE03.jpg,AMNE02.jpg,AMSA08.jpg,AMSA06.jpg,AMSA06.jpg,MS,2,num_4,32,num_8,0.516798714874,,,2017_Dec_13_1538,60.0091232167,MAFE4ImagesEEG,001,102501,
AFNE01.JPG,AFNE01.JPG,AFNE01.JPG,AFNE01.JPG,AFNE01.JPG,AFNE01.JPG,,,,,,,,,,,,,,,,,2,6,26,8,,,,,,,AMNE20.jpg,AMSA09.jpg,AMSA02.jpg,AMNE16.jpg,AMNE16.jpg,MN,1,num_4,32,num_8,0.900112194708,,,2017_Dec_13_1538,60.0091232167,MAFE4ImagesEEG,001,102501,
AFNE01.JPG,AFNE01.JPG,AFNE01.JPG,AFNE01.JPG,AFNE01.JPG,AFNE01.JPG,,,,,,,,,,,,,,,,,2,7,27,1,,,,,,,AMSA19.jpg,AMNE14.jpg,AMSA06.jpg,AMNE20.jpg,AMSA06.jpg,MS,2,num_2,16,num_2,0.900117005687,,,2017_Dec_13_1538,60.0091232167,MAFE4ImagesEEG,001,102501,
AFNE01.JPG,AFNE01.JPG,AFNE01.JPG,AFNE01.JPG,AFNE01.JPG,AFNE01.JPG,,,,,,,,,,,,,,,,,2,8,28,5,,,,,,,AMSA03.jpg,AMNE11.jpg,AMNE14.jpg,AMSA06.jpg,AMSA06.jpg,MS,2,num_4,32,num_8,0.666920371354,,,2017_Dec_13_1538,60.0091232167,MAFE4ImagesEEG,001,102501,
AFNE01.JPG,AFNE01.JPG,AFNE01.JPG,AFNE01.JPG,AFNE01.JPG,AFNE01.JPG,,,,,,,,,,,,,,,,,2,9,29,2,,,,,,,AMSA06.jpg,AMNE09.jpg,AMNE19.jpg,AMSA04.jpg,AMNE19.jpg,MN,1,num_2,16,num_2,0.750123965554,,,2017_Dec_13_1538,60.0091232167,MAFE4ImagesEEG,001,102501,
AFNE01.JPG,AFNE01.JPG,AFNE01.JPG,AFNE01.JPG,AFNE01.JPG,AFNE01.JPG,,,,,,,,,,,,,,,,,3,0,30,6,,,,,,,AMNE01.jpg,AMNE09.jpg,AMSA19.jpg,AMSA03.jpg,AMSA19.jpg,MS,2,num_2,16,num_2,0.650088620372,,,2017_Dec_13_1538,60.0091232167,MAFE4ImagesEEG,001,102501,
AFNE01.JPG,AFNE01.JPG,AFNE01.JPG,AFNE01.JPG,AFNE01.JPG,AFNE01.JPG,,,,,,,,,,,,,,,,,3,1,31,8,,,,,,,AMNE17.jpg,AMSA09.jpg,AMNE14.jpg,AMSA16.jpg,AMSA09.jpg,MS,2,num_6,32,num_8,0.733472149353,,,2017_Dec_13_1538,60.0091232167,MAFE4ImagesEEG,001,102501,
AFNE01.JPG,AFNE01.JPG,AFNE01.JPG,AFNE01.JPG,AFNE01.JPG,AFNE01.JPG,,,,,,,,,,,,,,,,,3,2,32,3,,,,,,,AMNE15.jpg,AMSA15.jpg,AMSA18.jpg,AMNE07.jpg,AMNE07.jpg,MN,1,num_4,32,num_8,0.666493467521,,,2017_Dec_13_1538,60.0091232167,MAFE4ImagesEEG,001,102501,
AFNE01.JPG,AFNE01.JPG,AFNE01.JPG,AFNE01.JPG,AFNE01.JPG,AFNE01.JPG,,,,,,,,,,,,,,,,,3,3,33,7,,,,,,,AMSA04.jpg,AMNE02.jpg,AMSA17.jpg,AMNE07.jpg,AMSA04.jpg,MS,2,num_8,32,num_6,1.26679534721,,,2017_Dec_13_1538,60.0091232167,MAFE4ImagesEEG,001,102501,
AFNE01.JPG,AFNE01.JPG,AFNE01.JPG,AFNE01.JPG,AFNE01.JPG,AFNE01.JPG,,,,,,,,,,,,,,,,,3,4,34,5,,,,,,,AMSA18.jpg,AMNE02.jpg,AMNE06.jpg,AMSA11.jpg,AMSA11.jpg,MS,2,num_4,16,num_4,0.700077426387,,,2017_Dec_13_1538,60.0091232167,MAFE4ImagesEEG,001,102501,
AFNE01.JPG,AFNE01.JPG,AFNE01.JPG,AFNE01.JPG,AFNE01.JPG,AFNE01.JPG,,,,,,,,,,,,,,,,,3,5,35,2,,,,,,,AMNE20.jpg,AMSA12.jpg,AMNE08.jpg,AMSA09.jpg,AMNE20.jpg,MN,1,num_8,16,num_8,0.483501817565,,,2017_Dec_13_1538,60.0091232167,MAFE4ImagesEEG,001,102501,
AFNE01.JPG,AFNE01.JPG,AFNE01.JPG,AFNE01.JPG,AFNE01.JPG,AFNE01.JPG,,,,,,,,,,,,,,,,,3,6,36,1,,,,,,,AMSA07.jpg,AMNE06.jpg,AMNE03.jpg,AMSA02.jpg,AMSA07.jpg,MS,2,num_8,32,num_4,0.933461051667,,,2017_Dec_13_1538,60.0091232167,MAFE4ImagesEEG,001,102501,
AFNE01.JPG,AFNE01.JPG,AFNE01.JPG,AFNE01.JPG,AFNE01.JPG,AFNE01.JPG,,,,,,,,,,,,,,,,,3,7,37,4,,,,,,,AMNE03.jpg,AMNE02.jpg,AMSA07.jpg,AMSA05.jpg,AMNE02.jpg,MN,1,num_6,16,num_6,0.450150394579,,,2017_Dec_13_1538,60.0091232167,MAFE4ImagesEEG,001,102501,
AFNE01.JPG,AFNE01.JPG,AFNE01.JPG,AFNE01.JPG,AFNE01.JPG,AFNE01.JPG,,,,,,,,,,,,,,,,,3,8,38,0,,,,,,,AMNE20.jpg,AMSA05.jpg,AMNE12.jpg,AMSA12.jpg,AMNE12.jpg,MN,1,num_2,32,num_4,0.666920692194,,,2017_Dec_13_1538,60.0091232167,MAFE4ImagesEEG,001,102501,
AFNE01.JPG,AFNE01.JPG,AFNE01.JPG,AFNE01.JPG,AFNE01.JPG,AFNE01.JPG,,,,,,,,,,,,,,,,,3,9,39,9,,,,,,,AMNE06.jpg,AMSA16.jpg,AMNE08.jpg,AMSA07.jpg,AMNE06.jpg,MN,1,num_8,16,num_8,0.583473015111,,,2017_Dec_13_1538,60.0091232167,MAFE4ImagesEEG,001,102501,
AFNE01.JPG,AFNE01.JPG,AFNE01.JPG,AFNE01.JPG,AFNE01.JPG,AFNE01.JPG,,,,,,,,,,,,,,,,,4,0,40,1,,,,,,,AMNE07.jpg,AMNE14.jpg,AMSA13.jpg,AMSA06.jpg,AMNE07.jpg,MN,1,num_8,32,num_2,0.833441422554,,,2017_Dec_13_1538,60.0091232167,MAFE4ImagesEEG,001,102501,
AFNE01.JPG,AFNE01.JPG,AFNE01.JPG,AFNE01.JPG,AFNE01.JPG,AFNE01.JPG,,,,,,,,,,,,,,,,,4,1,41,0,,,,,,,AMSA12.jpg,AMNE16.jpg,AMSA02.jpg,AMNE06.jpg,AMNE16.jpg,MN,1,num_6,32,num_8,0.716782806208,,,2017_Dec_13_1538,60.0091232167,MAFE4ImagesEEG,001,102501,
AFNE01.JPG,AFNE01.JPG,AFNE01.JPG,AFNE01.JPG,AFNE01.JPG,AFNE01.JPG,,,,,,,,,,,,,,,,,4,2,42,7,,,,,,,AMSA08.jpg,AMNE18.jpg,AMSA02.jpg,AMNE13.jpg,AMNE18.jpg,MN,1,num_6,16,num_6,1.05016008089,,,2017_Dec_13_1538,60.0091232167,MAFE4ImagesEEG,001,102501,
AFNE01.JPG,AFNE01.JPG,AFNE01.JPG,AFNE01.JPG,AFNE01.JPG,AFNE01.JPG,,,,,,,,,,,,,,,,,4,3,43,8,,,,,,,AMNE11.jpg,AMSA02.jpg,AMSA15.jpg,AMNE19.jpg,AMNE11.jpg,MN,1,num_8,32,num_6,0.633453161456,,,2017_Dec_13_1538,60.0091232167,MAFE4ImagesEEG,001,102501,
AFNE01.JPG,AFNE01.JPG,AFNE01.JPG,AFNE01.JPG,AFNE01.JPG,AFNE01.JPG,,,,,,,,,,,,,,,,,4,4,44,5,,,,,,,AMNE19.jpg,AMSA02.jpg,AMNE16.jpg,AMSA13.jpg,AMSA13.jpg,MS,2,num_4,16,num_4,0.933319285046,,,2017_Dec_13_1538,60.0091232167,MAFE4ImagesEEG,001,102501,
AFNE01.JPG,AFNE01.JPG,AFNE01.JPG,AFNE01.JPG,AFNE01.JPG,AFNE01.JPG,,,,,,,,,,,,,,,,,4,5,45,4,,,,,,,AMNE14.jpg,AMNE04.jpg,AMSA16.jpg,AMSA06.jpg,AMSA16.jpg,MS,2,num_2,32,num_8,0.38351907325,,,2017_Dec_13_1538,60.0091232167,MAFE4ImagesEEG,001,102501,
AFNE01.JPG,AFNE01.JPG,AFNE01.JPG,AFNE01.JPG,AFNE01.JPG,AFNE01.JPG,,,,,,,,,,,,,,,,,4,6,46,9,,,,,,,AMNE01.jpg,AMNE16.jpg,AMSA16.jpg,AMSA08.jpg,AMNE16.jpg,MN,1,num_6,32,num_2,0.700105010066,,,2017_Dec_13_1538,60.0091232167,MAFE4ImagesEEG,001,102501,
AFNE01.JPG,AFNE01.JPG,AFNE01.JPG,AFNE01.JPG,AFNE01.JPG,AFNE01.JPG,,,,,,,,,,,,,,,,,4,7,47,6,,,,,,,AMNE01.jpg,AMSA20.jpg,AMSA10.jpg,AMNE08.jpg,AMNE08.jpg,MN,1,num_4,16,num_4,0.566809972748,,,2017_Dec_13_1538,60.0091232167,MAFE4ImagesEEG,001,102501,
AFNE01.JPG,AFNE01.JPG,AFNE01.JPG,AFNE01.JPG,AFNE01.JPG,AFNE01.JPG,,,,,,,,,,,,,,,,,4,8,48,3,,,,,,,AMSA12.jpg,AMNE05.jpg,AMNE13.jpg,AMSA09.jpg,AMNE05.jpg,MN,1,num_6,16,num_6,0.700160498032,,,2017_Dec_13_1538,60.0091232167,MAFE4ImagesEEG,001,102501,
AFNE01.JPG,AFNE01.JPG,AFNE01.JPG,AFNE01.JPG,AFNE01.JPG,AFNE01.JPG,,,,,,,,,,,,,,,,,4,9,49,2,,,,,,,AMSA03.jpg,AMNE10.jpg,AMNE04.jpg,AMSA15.jpg,AMNE10.jpg,MN,1,num_6,32,num_4,0.966754100285,,,2017_Dec_13_1538,60.0091232167,MAFE4ImagesEEG,001,102501,
AFNE01.JPG,AFNE01.JPG,AFNE01.JPG,AFNE01.JPG,AFNE01.JPG,AFNE01.JPG,,,,,,,,,,,,,,,,,5,0,50,3,,,,,,,AMSA12.jpg,AMNE14.jpg,AMSA19.jpg,AMNE20.jpg,AMSA19.jpg,MS,2,num_2,16,num_2,1.3500666176,,,2017_Dec_13_1538,60.0091232167,MAFE4ImagesEEG,001,102501,
AFNE01.JPG,AFNE01.JPG,AFNE01.JPG,AFNE01.JPG,AFNE01.JPG,AFNE01.JPG,,,,,,,,,,,,,,,,,5,1,51,9,,,,,,,AMNE11.jpg,AMNE09.jpg,AMSA07.jpg,AMSA05.jpg,AMNE11.jpg,MN,1,num_8,32,num_4,1.71668818826,,,2017_Dec_13_1538,60.0091232167,MAFE4ImagesEEG,001,102501,
AFNE01.JPG,AFNE01.JPG,AFNE01.JPG,AFNE01.JPG,AFNE01.JPG,AFNE01.JPG,,,,,,,,,,,,,,,,,5,2,52,4,,,,,,,AMNE05.jpg,AMNE13.jpg,AMSA04.jpg,AMSA09.jpg,AMNE05.jpg,MN,1,num_8,32,num_6,0.683490078663,,,2017_Dec_13_1538,60.0091232167,MAFE4ImagesEEG,001,102501,
AFNE01.JPG,AFNE01.JPG,AFNE01.JPG,AFNE01.JPG,AFNE01.JPG,AFNE01.JPG,,,,,,,,,,,,,,,,,5,3,53,6,,,,,,,AMNE19.jpg,AMSA03.jpg,AMSA14.jpg,AMNE06.jpg,AMNE06.jpg,MN,1,num_4,16,num_4,0.983450499363,,,2017_Dec_13_1538,60.0091232167,MAFE4ImagesEEG,001,102501,
AFNE01.JPG,AFNE01.JPG,AFNE01.JPG,AFNE01.JPG,AFNE01.JPG,AFNE01.JPG,,,,,,,,,,,,,,,,,5,4,54,0,,,,,,,AMSA10.jpg,AMSA08.jpg,AMNE02.jpg,AMNE05.jpg,AMSA08.jpg,MS,2,num_6,16,num_6,0.600159150781,,,2017_Dec_13_1538,60.0091232167,MAFE4ImagesEEG,001,102501,
AFNE01.JPG,AFNE01.JPG,AFNE01.JPG,AFNE01.JPG,AFNE01.JPG,AFNE01.JPG,,,,,,,,,,,,,,,,,5,5,55,8,,,,,,,AMSA18.jpg,AMSA03.jpg,AMNE13.jpg,AMNE10.jpg,AMSA18.jpg,MS,2,num_8,16,num_8,0.450154564343,,,2017_Dec_13_1538,60.0091232167,MAFE4ImagesEEG,001,102501,
AFNE01.JPG,AFNE01.JPG,AFNE01.JPG,AFNE01.JPG,AFNE01.JPG,AFNE01.JPG,,,,,,,,,,,,,,,,,5,6,56,5,,,,,,,AMNE16.jpg,AMNE12.jpg,AMSA18.jpg,AMSA07.jpg,AMNE12.jpg,MN,1,num_6,16,num_6,0.533452455886,,,2017_Dec_13_1538,60.0091232167,MAFE4ImagesEEG,001,102501,
AFNE01.JPG,AFNE01.JPG,AFNE01.JPG,AFNE01.JPG,AFNE01.JPG,AFNE01.JPG,,,,,,,,,,,,,,,,,5,7,57,2,,,,,,,AMNE08.jpg,AMSA16.jpg,AMNE15.jpg,AMSA04.jpg,AMNE15.jpg,MN,1,num_2,16,num_2,0.916767538991,,,2017_Dec_13_1538,60.0091232167,MAFE4ImagesEEG,001,102501,
AFNE01.JPG,AFNE01.JPG,AFNE01.JPG,AFNE01.JPG,AFNE01.JPG,AFNE01.JPG,,,,,,,,,,,,,,,,,5,8,58,7,,,,,,,AMNE08.jpg,AMSA04.jpg,AMSA10.jpg,AMNE04.jpg,AMSA10.jpg,MS,2,num_2,32,num_4,0.666776038706,,,2017_Dec_13_1538,60.0091232167,MAFE4ImagesEEG,001,102501,
AFNE01.JPG,AFNE01.JPG,AFNE01.JPG,AFNE01.JPG,AFNE01.JPG,AFNE01.JPG,,,,,,,,,,,,,,,,,5,9,59,1,,,,,,,AMNE07.jpg,AMNE04.jpg,AMSA18.jpg,AMSA13.jpg,AMSA18.jpg,MS,2,num_2,16,num_2,0.433462976012,,,2017_Dec_13_1538,60.0091232167,MAFE4ImagesEEG,001,102501,
,,,,,,,,,,,,,,,,,,,,,,,,,,,,,,,,,,,,,,,,,,,space,46.0129094317,2017_Dec_13_1538,60.0091232167,MAFE4ImagesEEG,001,102501,
AFNE01.JPG,AFNE01.JPG,AFNE01.JPG,AFNE01.JPG,AFNE01.JPG,AFNE01.JPG,,,,,,,,,,,,,,,,,,,,,0,0,0,8,,,AFNE18.jpg,AFSA09.jpg,AFNE01.jpg,AFSA05.jpg,AFSA05.jpg,FS,4,num_4,32,num_6,0.683503870387,,,2017_Dec_13_1538,60.0091232167,MAFE4ImagesEEG,001,102501,
AFNE01.JPG,AFNE01.JPG,AFNE01.JPG,AFNE01.JPG,AFNE01.JPG,AFNE01.JPG,,,,,,,,,,,,,,,,,,,,,0,1,1,0,,,AFSA09.jpg,AFNE03.jpg,AFSA19.jpg,AFNE19.jpg,AFNE19.jpg,FN,3,num_4,32,num_8,0.550123837311,,,2017_Dec_13_1538,60.0091232167,MAFE4ImagesEEG,001,102501,
AFNE01.JPG,AFNE01.JPG,AFNE01.JPG,AFNE01.JPG,AFNE01.JPG,AFNE01.JPG,,,,,,,,,,,,,,,,,,,,,0,2,2,3,,,AFSA03.jpg,AFNE16.jpg,AFNE15.jpg,AFSA14.jpg,AFSA14.jpg,FS,4,num_4,16,num_4,0.683515416924,,,2017_Dec_13_1538,60.0091232167,MAFE4ImagesEEG,001,102501,
AFNE01.JPG,AFNE01.JPG,AFNE01.JPG,AFNE01.JPG,AFNE01.JPG,AFNE01.JPG,,,,,,,,,,,,,,,,,,,,,0,3,3,6,,,AFNE19.jpg,AFNE17.jpg,AFSA17.jpg,AFSA12.jpg,AFSA17.jpg,FS,4,num_2,32,num_6,0.516781074461,,,2017_Dec_13_1538,60.0091232167,MAFE4ImagesEEG,001,102501,
AFNE01.JPG,AFNE01.JPG,AFNE01.JPG,AFNE01.JPG,AFNE01.JPG,AFNE01.JPG,,,,,,,,,,,,,,,,,,,,,0,4,4,5,,,AFNE19.jpg,AFNE09.jpg,AFSA20.jpg,AFSA09.jpg,AFNE19.jpg,FN,3,num_8,16,num_8,1.3001012255,,,2017_Dec_13_1538,60.0091232167,MAFE4ImagesEEG,001,102501,
AFNE01.JPG,AFNE01.JPG,AFNE01.JPG,AFNE01.JPG,AFNE01.JPG,AFNE01.JPG,,,,,,,,,,,,,,,,,,,,,0,5,5,2,,,AFSA10.jpg,AFSA17.jpg,AFNE20.jpg,AFNE01.jpg,AFSA10.jpg,FS,4,num_8,16,num_8,0.900092950091,,,2017_Dec_13_1538,60.0091232167,MAFE4ImagesEEG,001,102501,
AFNE01.JPG,AFNE01.JPG,AFNE01.JPG,AFNE01.JPG,AFNE01.JPG,AFNE01.JPG,,,,,,,,,,,,,,,,,,,,,0,6,6,4,,,AFSA19.jpg,AFNE17.jpg,AFSA07.jpg,AFNE04.jpg,AFSA07.jpg,FS,4,num_2,16,num_2,1.08344222442,,,2017_Dec_13_1538,60.0091232167,MAFE4ImagesEEG,001,102501,
AFNE01.JPG,AFNE01.JPG,AFNE01.JPG,AFNE01.JPG,AFNE01.JPG,AFNE01.JPG,,,,,,,,,,,,,,,,,,,,,0,7,7,9,,,AFSA02.jpg,AFNE17.jpg,AFNE05.jpg,AFSA19.jpg,AFSA19.jpg,FS,4,num_4,16,num_4,0.566769880708,,,2017_Dec_13_1538,60.0091232167,MAFE4ImagesEEG,001,102501,
AFNE01.JPG,AFNE01.JPG,AFNE01.JPG,AFNE01.JPG,AFNE01.JPG,AFNE01.JPG,,,,,,,,,,,,,,,,,,,,,0,8,8,1,,,AFSA18.jpg,AFSA10.jpg,AFNE07.jpg,AFNE08.jpg,AFSA10.jpg,FS,4,num_6,32,num_8,0.633466632571,,,2017_Dec_13_1538,60.0091232167,MAFE4ImagesEEG,001,102501,
AFNE01.JPG,AFNE01.JPG,AFNE01.JPG,AFNE01.JPG,AFNE01.JPG,AFNE01.JPG,,,,,,,,,,,,,,,,,,,,,0,9,9,7,,,AFSA10.jpg,AFSA07.jpg,AFNE13.jpg,AFNE18.jpg,AFNE18.jpg,FN,3,num_4,16,num_4,0.583449601196,,,2017_Dec_13_1538,60.0091232167,MAFE4ImagesEEG,001,102501,
AFNE01.JPG,AFNE01.JPG,AFNE01.JPG,AFNE01.JPG,AFNE01.JPG,AFNE01.JPG,,,,,,,,,,,,,,,,,,,,,1,0,10,5,,,AFSA03.jpg,AFNE14.jpg,AFNE18.jpg,AFSA04.jpg,AFNE14.jpg,FN,3,num_6,32,num_8,0.566813180223,,,2017_Dec_13_1538,60.0091232167,MAFE4ImagesEEG,001,102501,
AFNE01.JPG,AFNE01.JPG,AFNE01.JPG,AFNE01.JPG,AFNE01.JPG,AFNE01.JPG,,,,,,,,,,,,,,,,,,,,,1,1,11,2,,,AFSA16.jpg,AFNE18.jpg,AFSA17.jpg,AFNE02.jpg,AFSA16.jpg,FS,4,num_8,32,num_6,0.466780400835,,,2017_Dec_13_1538,60.0091232167,MAFE4ImagesEEG,001,102501,
AFNE01.JPG,AFNE01.JPG,AFNE01.JPG,AFNE01.JPG,AFNE01.JPG,AFNE01.JPG,,,,,,,,,,,,,,,,,,,,,1,2,12,1,,,AFNE17.jpg,AFNE20.jpg,AFSA19.jpg,AFSA07.jpg,AFSA19.jpg,FS,4,num_2,16,num_2,0.783486614702,,,2017_Dec_13_1538,60.0091232167,MAFE4ImagesEEG,001,102501,
AFNE01.JPG,AFNE01.JPG,AFNE01.JPG,AFNE01.JPG,AFNE01.JPG,AFNE01.JPG,,,,,,,,,,,,,,,,,,,,,1,3,13,4,,,AFNE17.jpg,AFSA19.jpg,AFNE06.jpg,AFSA17.jpg,AFNE17.jpg,FN,3,num_8,32,num_4,0.533464323264,,,2017_Dec_13_1538,60.0091232167,MAFE4ImagesEEG,001,102501,
AFNE01.JPG,AFNE01.JPG,AFNE01.JPG,AFNE01.JPG,AFNE01.JPG,AFNE01.JPG,,,,,,,,,,,,,,,,,,,,,1,4,14,9,,,AFNE01.jpg,AFNE06.jpg,AFSA06.jpg,AFSA14.jpg,AFSA06.jpg,FS,4,num_2,32,num_8,0.500132465269,,,2017_Dec_13_1538,60.0091232167,MAFE4ImagesEEG,001,102501,
AFNE01.JPG,AFNE01.JPG,AFNE01.JPG,AFNE01.JPG,AFNE01.JPG,AFNE01.JPG,,,,,,,,,,,,,,,,,,,,,1,5,15,3,,,AFSA18.jpg,AFNE02.jpg,AFSA11.jpg,AFNE01.jpg,AFSA11.jpg,FS,4,num_2,32,num_6,1.00009782542,,,2017_Dec_13_1538,60.0091232167,MAFE4ImagesEEG,001,102501,
AFNE01.JPG,AFNE01.JPG,AFNE01.JPG,AFNE01.JPG,AFNE01.JPG,AFNE01.JPG,,,,,,,,,,,,,,,,,,,,,1,6,16,0,,,AFNE09.jpg,AFNE02.jpg,AFSA14.jpg,AFSA20.jpg,AFNE02.jpg,FN,3,num_6,32,num_2,0.850139425369,,,2017_Dec_13_1538,60.0091232167,MAFE4ImagesEEG,001,102501,
AFNE01.JPG,AFNE01.JPG,AFNE01.JPG,AFNE01.JPG,AFNE01.JPG,AFNE01.JPG,,,,,,,,,,,,,,,,,,,,,1,7,17,8,,,AFNE17.jpg,AFNE16.jpg,AFSA20.jpg,AFSA14.jpg,AFSA14.jpg,FS,4,num_4,16,num_4,0.550132176606,,,2017_Dec_13_1538,60.0091232167,MAFE4ImagesEEG,001,102501,
AFNE01.JPG,AFNE01.JPG,AFNE01.JPG,AFNE01.JPG,AFNE01.JPG,AFNE01.JPG,,,,,,,,,,,,,,,,,,,,,1,8,18,7,,,AFNE18.jpg,AFNE09.jpg,AFSA02.jpg,AFSA03.jpg,AFSA03.jpg,FS,4,num_4,32,num_2,0.799971005181,,,2017_Dec_13_1538,60.0091232167,MAFE4ImagesEEG,001,102501,
AFNE01.JPG,AFNE01.JPG,AFNE01.JPG,AFNE01.JPG,AFNE01.JPG,AFNE01.JPG,,,,,,,,,,,,,,,,,,,,,1,9,19,6,,,AFNE20.jpg,AFSA05.jpg,AFNE18.jpg,AFSA02.jpg,AFSA02.jpg,FS,4,num_4,16,num_4,0.716735978378,,,2017_Dec_13_1538,60.0091232167,MAFE4ImagesEEG,001,102501,
AFNE01.JPG,AFNE01.JPG,AFNE01.JPG,AFNE01.JPG,AFNE01.JPG,AFNE01.JPG,,,,,,,,,,,,,,,,,,,,,2,0,20,0,,,AFSA12.jpg,AFNE11.jpg,AFSA17.jpg,AFNE06.jpg,AFSA17.jpg,FS,4,num_2,32,num_8,0.950067964615,,,2017_Dec_13_1538,60.0091232167,MAFE4ImagesEEG,001,102501,
AFNE01.JPG,AFNE01.JPG,AFNE01.JPG,AFNE01.JPG,AFNE01.JPG,AFNE01.JPG,,,,,,,,,,,,,,,,,,,,,2,1,21,7,,,AFSA06.jpg,AFNE01.jpg,AFNE20.jpg,AFSA13.jpg,AFSA06.jpg,FS,4,num_8,16,num_8,0.600123869488,,,2017_Dec_13_1538,60.0091232167,MAFE4ImagesEEG,001,102501,
AFNE01.JPG,AFNE01.JPG,AFNE01.JPG,AFNE01.JPG,AFNE01.JPG,AFNE01.JPG,,,,,,,,,,,,,,,,,,,,,2,2,22,6,,,AFNE12.jpg,AFSA06.jpg,AFSA14.jpg,AFNE14.jpg,AFNE14.jpg,FN,3,num_4,32,num_8,0.766829987057,,,2017_Dec_13_1538,60.0091232167,MAFE4ImagesEEG,001,102501,
AFNE01.JPG,AFNE01.JPG,AFNE01.JPG,AFNE01.JPG,AFNE01.JPG,AFNE01.JPG,,,,,,,,,,,,,,,,,,,,,2,3,23,4,,,AFSA14.jpg,AFNE02.jpg,AFSA16.jpg,AFNE03.jpg,AFNE02.jpg,FN,3,num_6,32,num_8,0.533631748985,,,2017_Dec_13_1538,60.0091232167,MAFE4ImagesEEG,001,102501,
AFNE01.JPG,AFNE01.JPG,AFNE01.JPG,AFNE01.JPG,AFNE01.JPG,AFNE01.JPG,,,,,,,,,,,,,,,,,,,,,2,4,24,9,,,AFSA11.jpg,AFSA18.jpg,AFNE03.jpg,AFNE18.jpg,AFNE18.jpg,FN,3,num_4,32,num_6,0.683384876,,,2017_Dec_13_1538,60.0091232167,MAFE4ImagesEEG,001,102501,
AFNE01.JPG,AFNE01.JPG,AFNE01.JPG,AFNE01.JPG,AFNE01.JPG,AFNE01.JPG,,,,,,,,,,,,,,,,,,,,,2,5,25,2,,,AFSA06.jpg,AFSA18.jpg,AFNE07.jpg,AFNE01.jpg,AFNE07.jpg,FN,3,num_2,32,num_4,0.400133042596,,,2017_Dec_13_1538,60.0091232167,MAFE4ImagesEEG,001,102501,
AFNE01.JPG,AFNE01.JPG,AFNE01.JPG,AFNE01.JPG,AFNE01.JPG,AFNE01.JPG,,,,,,,,,,,,,,,,,,,,,2,6,26,1,,,AFNE10.jpg,AFSA03.jpg,AFSA02.jpg,AFNE16.jpg,AFSA03.jpg,FS,4,num_6,32,num_8,0.533489020308,,,2017_Dec_13_1538,60.0091232167,MAFE4ImagesEEG,001,102501,
AFNE01.JPG,AFNE01.JPG,AFNE01.JPG,AFNE01.JPG,AFNE01.JPG,AFNE01.JPG,,,,,,,,,,,,,,,,,,,,,2,7,27,5,,,AFNE14.jpg,AFNE13.jpg,AFSA13.jpg,AFSA09.jpg,AFSA09.jpg,FS,4,num_4,32,num_6,1.00011257944,,,2017_Dec_13_1538,60.0091232167,MAFE4ImagesEEG,001,102501,
AFNE01.JPG,AFNE01.JPG,AFNE01.JPG,AFNE01.JPG,AFNE01.JPG,AFNE01.JPG,,,,,,,,,,,,,,,,,,,,,2,8,28,8,,,AFNE04.jpg,AFSA02.jpg,AFSA03.jpg,AFNE18.jpg,AFNE18.jpg,FN,3,num_4,16,num_4,0.750108570093,,,2017_Dec_13_1538,60.0091232167,MAFE4ImagesEEG,001,102501,
AFNE01.JPG,AFNE01.JPG,AFNE01.JPG,AFNE01.JPG,AFNE01.JPG,AFNE01.JPG,,,,,,,,,,,,,,,,,,,,,2,9,29,3,,,AFNE06.jpg,AFNE03.jpg,AFSA17.jpg,AFSA19.jpg,AFNE03.jpg,FN,3,num_6,16,num_6,0.566786238225,,,2017_Dec_13_1538,60.0091232167,MAFE4ImagesEEG,001,102501,
AFNE01.JPG,AFNE01.JPG,AFNE01.JPG,AFNE01.JPG,AFNE01.JPG,AFNE01.JPG,,,,,,,,,,,,,,,,,,,,,3,0,30,3,,,AFNE12.jpg,AFSA11.jpg,AFSA09.jpg,AFNE09.jpg,AFSA09.jpg,FS,4,num_2,16,num_2,0.833558492362,,,2017_Dec_13_1538,60.0091232167,MAFE4ImagesEEG,001,102501,
AFNE01.JPG,AFNE01.JPG,AFNE01.JPG,AFNE01.JPG,AFNE01.JPG,AFNE01.JPG,,,,,,,,,,,,,,,,,,,,,3,1,31,0,,,AFSA11.jpg,AFNE02.jpg,AFNE17.jpg,AFSA15.jpg,AFSA15.jpg,FS,4,num_4,16,num_4,0.616806156002,,,2017_Dec_13_1538,60.0091232167,MAFE4ImagesEEG,001,102501,
AFNE01.JPG,AFNE01.JPG,AFNE01.JPG,AFNE01.JPG,AFNE01.JPG,AFNE01.JPG,,,,,,,,,,,,,,,,,,,,,3,2,32,2,,,AFSA14.jpg,AFNE02.jpg,AFSA20.jpg,AFNE15.jpg,AFSA20.jpg,FS,4,num_2,32,num_4,0.533447644906,,,2017_Dec_13_1538,60.0091232167,MAFE4ImagesEEG,001,102501,
AFNE01.JPG,AFNE01.JPG,AFNE01.JPG,AFNE01.JPG,AFNE01.JPG,AFNE01.JPG,,,,,,,,,,,,,,,,,,,,,3,3,33,4,,,AFSA11.jpg,AFSA05.jpg,AFNE15.jpg,AFNE06.jpg,AFNE15.jpg,FN,3,num_2,16,num_2,0.833292920142,,,2017_Dec_13_1538,60.0091232167,MAFE4ImagesEEG,001,102501,
AFNE01.JPG,AFNE01.JPG,AFNE01.JPG,AFNE01.JPG,AFNE01.JPG,AFNE01.JPG,,,,,,,,,,,,,,,,,,,,,3,4,34,5,,,AFNE02.jpg,AFSA01.jpg,AFNE01.jpg,AFSA07.jpg,AFSA07.jpg,FS,4,num_4,16,num_4,0.600149207981,,,2017_Dec_13_1538,60.0091232167,MAFE4ImagesEEG,001,102501,
AFNE01.JPG,AFNE01.JPG,AFNE01.JPG,AFNE01.JPG,AFNE01.JPG,AFNE01.JPG,,,,,,,,,,,,,,,,,,,,,3,5,35,8,,,AFNE07.jpg,AFSA05.jpg,AFSA10.jpg,AFNE02.jpg,AFSA05.jpg,FS,4,num_6,16,num_6,0.500155237736,,,2017_Dec_13_1538,60.0091232167,MAFE4ImagesEEG,001,102501,
AFNE01.JPG,AFNE01.JPG,AFNE01.JPG,AFNE01.JPG,AFNE01.JPG,AFNE01.JPG,,,,,,,,,,,,,,,,,,,,,3,6,36,6,,,AFNE14.jpg,AFSA11.jpg,AFSA07.jpg,AFNE02.jpg,AFSA11.jpg,FS,4,num_6,16,num_6,0.466789060738,,,2017_Dec_13_1538,60.0091232167,MAFE4ImagesEEG,001,102501,
AFNE01.JPG,AFNE01.JPG,AFNE01.JPG,AFNE01.JPG,AFNE01.JPG,AFNE01.JPG,,,,,,,,,,,,,,,,,,,,,3,7,37,1,,,AFNE14.jpg,AFNE10.jpg,AFSA09.jpg,AFSA12.jpg,AFSA12.jpg,FS,4,num_4,16,num_4,0.666767378803,,,2017_Dec_13_1538,60.0091232167,MAFE4ImagesEEG,001,102501,
AFNE01.JPG,AFNE01.JPG,AFNE01.JPG,AFNE01.JPG,AFNE01.JPG,AFNE01.JPG,,,,,,,,,,,,,,,,,,,,,3,8,38,7,,,AFSA18.jpg,AFNE17.jpg,AFNE20.jpg,AFSA03.jpg,AFNE20.jpg,FN,3,num_2,16,num_2,0.68346441933,,,2017_Dec_13_1538,60.0091232167,MAFE4ImagesEEG,001,102501,
