IPosition2,IPosition3,IPosition1,IPosition6,IPosition4,IPosition5,TrialsM1.thisRepN,TrialsM1.thisTrialN,TrialsM1.thisN,TrialsM1.thisIndex,TrialsF1.thisRepN,TrialsF1.thisTrialN,TrialsF1.thisN,TrialsF1.thisIndex,TrialsM2.thisRepN,TrialsM2.thisTrialN,TrialsM2.thisN,TrialsM2.thisIndex,TrialsF2.thisRepN,TrialsF2.thisTrialN,TrialsF2.thisN,TrialsF2.thisIndex,TrialsM3.thisRepN,TrialsM3.thisTrialN,TrialsM3.thisN,TrialsM3.thisIndex,TrialsF3.thisRepN,TrialsF3.thisTrialN,TrialsF3.thisN,TrialsF3.thisIndex,InstrKey_resp.keys,InstrKey_resp.rt,Image0 _Position,Image1 _Position,Image2 _Position,Image3 _Position,Center_image,condition,code,correct_answer,accuracy,Key_Resp.keys,Key_Resp.rt,BreakKey_resp.keys,BreakKey_resp.rt,date,frameRate,expName,session,participant,
,,,,,,,,,,,,,,,,,,,,,,,,,,,,,,space,21.8821107077,,,,,,,,,,,,,,2017_Dec_12_1129,60.0057738987,MAFE4ImagesEEG,001,102502,
AFNE22.JPG,AFSA24.JPG,AFSA22.JPG,AFNE25.JPG,AFNE24.JPG,AFSA25.JPG,0,0,0,6,,,,,,,,,,,,,,,,,,,,,,,AMSA14.jpg,AMNE18.jpg,AMNE04.jpg,AMSA10.jpg,AMSA14.jpg,MS,2,num_8,32,num_4,1.38346647215,,,2017_Dec_12_1129,60.0057738987,MAFE4ImagesEEG,001,102502,
AFSA25.JPG,AFNE24.JPG,AFSA24.JPG,AFNE21.JPG,AFSA21.JPG,AFNE25.JPG,0,1,1,2,,,,,,,,,,,,,,,,,,,,,,,AMSA08.jpg,AMNE20.jpg,AMSA12.jpg,AMNE13.jpg,AMNE20.jpg,MN,1,num_6,16,num_6,1.21674656286,,,2017_Dec_12_1129,60.0057738987,MAFE4ImagesEEG,001,102502,
AMSA21.JPG,AMNE23.JPG,AMNE21.JPG,AMSA25.JPG,AMNE25.JPG,AMSA23.JPG,0,2,2,5,,,,,,,,,,,,,,,,,,,,,,,AMSA01.jpg,AMSA18.jpg,AMNE19.jpg,AMNE11.jpg,AMNE19.jpg,MN,1,num_2,32,num_8,1.40007242281,,,2017_Dec_12_1129,60.0057738987,MAFE4ImagesEEG,001,102502,
AFSA21.JPG,AFNE22.JPG,AFNE21.JPG,AFSA23.JPG,AFSA22.JPG,AFNE23.JPG,0,3,3,0,,,,,,,,,,,,,,,,,,,,,,,AMSA13.jpg,AMSA04.jpg,AMNE02.jpg,AMNE20.jpg,AMNE02.jpg,MN,1,num_2,16,num_2,1.95001472207,,,2017_Dec_12_1129,60.0057738987,MAFE4ImagesEEG,001,102502,
AMNE23.JPG,AMNE24.JPG,AMNE22.JPG,AMSA24.JPG,AMSA22.JPG,AMSA23.JPG,0,4,4,9,,,,,,,,,,,,,,,,,,,,,,,AMNE04.jpg,AMSA18.jpg,AMNE15.jpg,AMSA07.jpg,AMNE04.jpg,MN,1,num_8,32,num_4,1.26651887014,,,2017_Dec_12_1129,60.0057738987,MAFE4ImagesEEG,001,102502,
AMSA21.JPG,AMNE22.JPG,AMNE21.JPG,AMSA23.JPG,AMSA22.JPG,AMNE23.JPG,0,5,5,1,,,,,,,,,,,,,,,,,,,,,,,AMNE20.jpg,AMNE04.jpg,AMSA17.jpg,AMSA06.jpg,AMSA06.jpg,MS,2,num_4,16,num_4,1.48340399214,,,2017_Dec_12_1129,60.0057738987,MAFE4ImagesEEG,001,102502,
AFSA21.JPG,AFNE23.JPG,AFNE21.JPG,AFSA25.JPG,AFNE25.JPG,AFSA23.JPG,0,6,6,4,,,,,,,,,,,,,,,,,,,,,,,AMSA01.jpg,AMNE16.jpg,AMNE12.jpg,AMSA05.jpg,AMSA01.jpg,MS,2,num_8,32,num_4,1.73341730284,,,2017_Dec_12_1129,60.0057738987,MAFE4ImagesEEG,001,102502,
AMSA25.JPG,AMNE24.JPG,AMSA24.JPG,AMNE26.JPG,AMSA21.JPG,AMNE25.JPG,0,7,7,3,,,,,,,,,,,,,,,,,,,,,,,AMSA17.jpg,AMNE02.jpg,AMNE01.jpg,AMSA12.jpg,AMSA12.jpg,MS,2,num_4,16,num_4,0.933421921451,,,2017_Dec_12_1129,60.0057738987,MAFE4ImagesEEG,001,102502,
AMNE22.JPG,AMSA24.JPG,AMSA22.JPG,AMNE25.JPG,AMNE24.JPG,AMSA25.JPG,0,8,8,7,,,,,,,,,,,,,,,,,,,,,,,AMNE01.jpg,AMSA05.jpg,AMSA04.jpg,AMNE12.jpg,AMNE12.jpg,MN,1,num_4,32,num_2,2.54995833593,,,2017_Dec_12_1129,60.0057738987,MAFE4ImagesEEG,001,102502,
AFNE23.JPG,AFNE24.JPG,AFNE22.JPG,AFSA24.JPG,AFSA22.JPG,AFSA23.JPG,0,9,9,8,,,,,,,,,,,,,,,,,,,,,,,AMNE06.jpg,AMSA11.jpg,AMNE18.jpg,AMSA09.jpg,AMNE06.jpg,MN,1,num_8,16,num_8,1.11674810224,,,2017_Dec_12_1129,60.0057738987,MAFE4ImagesEEG,001,102502,
AFNE23.JPG,AFNE24.JPG,AFNE22.JPG,AFSA24.JPG,AFSA22.JPG,AFSA23.JPG,,,,,0,0,0,8,,,,,,,,,,,,,,,,,,,AFSA07.jpg,AFSA09.jpg,AFNE17.jpg,AFNE03.jpg,AFSA09.jpg,FS,4,num_6,32,num_4,1.36677809153,,,2017_Dec_12_1129,60.0057738987,MAFE4ImagesEEG,001,102502,
AMSA25.JPG,AMNE24.JPG,AMSA24.JPG,AMNE26.JPG,AMSA21.JPG,AMNE25.JPG,,,,,0,1,1,3,,,,,,,,,,,,,,,,,,,AFNE01.jpg,AFSA17.jpg,AFNE17.jpg,AFSA04.jpg,AFNE17.jpg,FN,3,num_2,32,num_6,1.46672459203,,,2017_Dec_12_1129,60.0057738987,MAFE4ImagesEEG,001,102502,
AFSA21.JPG,AFNE23.JPG,AFNE21.JPG,AFSA25.JPG,AFNE25.JPG,AFSA23.JPG,,,,,0,2,2,4,,,,,,,,,,,,,,,,,,,AFSA17.jpg,AFSA02.jpg,AFNE01.jpg,AFNE10.jpg,AFSA17.jpg,FS,4,num_8,16,num_8,2.10002700635,,,2017_Dec_12_1129,60.0057738987,MAFE4ImagesEEG,001,102502,
AFSA21.JPG,AFNE22.JPG,AFNE21.JPG,AFSA23.JPG,AFSA22.JPG,AFNE23.JPG,,,,,0,3,3,0,,,,,,,,,,,,,,,,,,,AFNE18.jpg,AFSA16.jpg,AFNE10.jpg,AFSA08.jpg,AFNE18.jpg,FN,3,num_8,32,num_2,2.51666689129,,,2017_Dec_12_1129,60.0057738987,MAFE4ImagesEEG,001,102502,
AMNE23.JPG,AMNE24.JPG,AMNE22.JPG,AMSA24.JPG,AMSA22.JPG,AMSA23.JPG,,,,,0,4,4,9,,,,,,,,,,,,,,,,,,,AFSA15.jpg,AFNE09.jpg,AFNE16.jpg,AFSA13.jpg,AFSA15.jpg,FS,4,num_8,32,num_4,1.18346345727,,,2017_Dec_12_1129,60.0057738987,MAFE4ImagesEEG,001,102502,
AFNE22.JPG,AFSA24.JPG,AFSA22.JPG,AFNE25.JPG,AFNE24.JPG,AFSA25.JPG,,,,,0,5,5,6,,,,,,,,,,,,,,,,,,,AFNE16.jpg,AFSA12.jpg,AFNE06.jpg,AFSA08.jpg,AFSA08.jpg,FS,4,num_4,32,num_8,1.30023657717,,,2017_Dec_12_1129,60.0057738987,MAFE4ImagesEEG,001,102502,
AFSA25.JPG,AFNE24.JPG,AFSA24.JPG,AFNE21.JPG,AFSA21.JPG,AFNE25.JPG,,,,,0,6,6,2,,,,,,,,,,,,,,,,,,,AFSA06.jpg,AFNE08.jpg,AFSA05.jpg,AFNE13.jpg,AFSA05.jpg,FS,4,num_2,16,num_2,1.51683078893,,,2017_Dec_12_1129,60.0057738987,MAFE4ImagesEEG,001,102502,
AMNE22.JPG,AMSA24.JPG,AMSA22.JPG,AMNE25.JPG,AMNE24.JPG,AMSA25.JPG,,,,,0,7,7,7,,,,,,,,,,,,,,,,,,,AFNE15.jpg,AFSA17.jpg,AFNE10.jpg,AFSA14.jpg,AFNE10.jpg,FN,3,num_2,32,num_6,1.15008862014,,,2017_Dec_12_1129,60.0057738987,MAFE4ImagesEEG,001,102502,
AMSA21.JPG,AMNE22.JPG,AMNE21.JPG,AMSA23.JPG,AMSA22.JPG,AMNE23.JPG,,,,,0,8,8,1,,,,,,,,,,,,,,,,,,,AFSA16.jpg,AFNE16.jpg,AFSA17.jpg,AFNE10.jpg,AFNE10.jpg,FN,3,num_4,16,num_4,0.933427694719,,,2017_Dec_12_1129,60.0057738987,MAFE4ImagesEEG,001,102502,
AMSA21.JPG,AMNE23.JPG,AMNE21.JPG,AMSA25.JPG,AMNE25.JPG,AMSA23.JPG,,,,,0,9,9,5,,,,,,,,,,,,,,,,,,,AFNE10.jpg,AFSA11.jpg,AFNE06.jpg,AFSA08.jpg,AFSA08.jpg,FS,4,num_4,32,num_6,1.65007643192,,,2017_Dec_12_1129,60.0057738987,MAFE4ImagesEEG,001,102502,
AMSA21.JPG,AMNE23.JPG,AMNE21.JPG,AMSA25.JPG,AMNE25.JPG,AMSA23.JPG,,,,,,,,,0,0,0,5,,,,,,,,,,,,,,,AMSA15.jpg,AMNE12.jpg,AMNE14.jpg,AMSA05.jpg,AMNE14.jpg,MN,1,num_2,32,num_8,1.40024882951,,,2017_Dec_12_1129,60.0057738987,MAFE4ImagesEEG,001,102502,
AFSA21.JPG,AFNE22.JPG,AFNE21.JPG,AFSA23.JPG,AFSA22.JPG,AFNE23.JPG,,,,,,,,,0,1,1,0,,,,,,,,,,,,,,,AMNE18.jpg,AMSA02.jpg,AMNE04.jpg,AMSA07.jpg,AMSA02.jpg,MS,2,num_6,32,num_2,1.83335289848,,,2017_Dec_12_1129,60.0057738987,MAFE4ImagesEEG,001,102502,
AMNE23.JPG,AMNE24.JPG,AMNE22.JPG,AMSA24.JPG,AMSA22.JPG,AMSA23.JPG,,,,,,,,,0,2,2,9,,,,,,,,,,,,,,,AMNE04.jpg,AMSA10.jpg,AMNE10.jpg,AMSA17.jpg,AMNE04.jpg,MN,1,num_8,32,num_4,1.13346182159,,,2017_Dec_12_1129,60.0057738987,MAFE4ImagesEEG,001,102502,
AFSA21.JPG,AFNE23.JPG,AFNE21.JPG,AFSA25.JPG,AFNE25.JPG,AFSA23.JPG,,,,,,,,,0,3,3,4,,,,,,,,,,,,,,,AMSA05.jpg,AMNE03.jpg,AMSA10.jpg,AMNE02.jpg,AMNE03.jpg,MN,1,num_6,16,num_6,1.15012229793,,,2017_Dec_12_1129,60.0057738987,MAFE4ImagesEEG,001,102502,
AFNE22.JPG,AFSA24.JPG,AFSA22.JPG,AFNE25.JPG,AFNE24.JPG,AFSA25.JPG,,,,,,,,,0,4,4,6,,,,,,,,,,,,,,,AMSA07.jpg,AMSA18.jpg,AMNE14.jpg,AMNE05.jpg,AMNE05.jpg,MN,1,num_4,32,num_2,1.98310923274,,,2017_Dec_12_1129,60.0057738987,MAFE4ImagesEEG,001,102502,
AMNE22.JPG,AMSA24.JPG,AMSA22.JPG,AMNE25.JPG,AMNE24.JPG,AMSA25.JPG,,,,,,,,,0,5,5,7,,,,,,,,,,,,,,,AMSA09.jpg,AMNE09.jpg,AMSA03.jpg,AMNE18.jpg,AMNE18.jpg,MN,1,num_4,16,num_4,1.11680775974,,,2017_Dec_12_1129,60.0057738987,MAFE4ImagesEEG,001,102502,
AFSA25.JPG,AFNE24.JPG,AFSA24.JPG,AFNE21.JPG,AFSA21.JPG,AFNE25.JPG,,,,,,,,,0,6,6,2,,,,,,,,,,,,,,,AMNE10.jpg,AMNE08.jpg,AMSA08.jpg,AMSA01.jpg,AMNE10.jpg,MN,1,num_8,32,num_6,0.983460121322,,,2017_Dec_12_1129,60.0057738987,MAFE4ImagesEEG,001,102502,
AMSA25.JPG,AMNE24.JPG,AMSA24.JPG,AMNE26.JPG,AMSA21.JPG,AMNE25.JPG,,,,,,,,,0,7,7,3,,,,,,,,,,,,,,,AMNE04.jpg,AMNE07.jpg,AMSA19.jpg,AMSA14.jpg,AMSA14.jpg,MS,2,num_4,32,num_8,1.93339818693,,,2017_Dec_12_1129,60.0057738987,MAFE4ImagesEEG,001,102502,
AMSA21.JPG,AMNE22.JPG,AMNE21.JPG,AMSA23.JPG,AMSA22.JPG,AMNE23.JPG,,,,,,,,,0,8,8,1,,,,,,,,,,,,,,,AMSA05.jpg,AMNE11.jpg,AMNE06.jpg,AMSA06.jpg,AMNE11.jpg,MN,1,num_6,16,num_6,0.916767539224,,,2017_Dec_12_1129,60.0057738987,MAFE4ImagesEEG,001,102502,
AFNE23.JPG,AFNE24.JPG,AFNE22.JPG,AFSA24.JPG,AFSA22.JPG,AFSA23.JPG,,,,,,,,,0,9,9,8,,,,,,,,,,,,,,,AMSA13.jpg,AMNE03.jpg,AMNE18.jpg,AMSA14.jpg,AMSA13.jpg,MS,2,num_8,32,num_6,1.05012191297,,,2017_Dec_12_1129,60.0057738987,MAFE4ImagesEEG,001,102502,
AMNE22.JPG,AMSA24.JPG,AMSA22.JPG,AMNE25.JPG,AMNE24.JPG,AMSA25.JPG,,,,,,,,,,,,,0,0,0,7,,,,,,,,,,,AFSA15.jpg,AFNE08.jpg,AFSA20.jpg,AFNE11.jpg,AFNE08.jpg,FN,3,num_6,16,num_6,0.966776231304,,,2017_Dec_12_1129,60.0057738987,MAFE4ImagesEEG,001,102502,
AMSA21.JPG,AMNE23.JPG,AMNE21.JPG,AMSA25.JPG,AMNE25.JPG,AMSA23.JPG,,,,,,,,,,,,,0,1,1,5,,,,,,,,,,,AFNE13.jpg,AFSA06.jpg,AFNE19.jpg,AFSA13.jpg,AFSA06.jpg,FS,4,num_6,16,num_6,1.80004669959,,,2017_Dec_12_1129,60.0057738987,MAFE4ImagesEEG,001,102502,
AMNE23.JPG,AMNE24.JPG,AMNE22.JPG,AMSA24.JPG,AMSA22.JPG,AMSA23.JPG,,,,,,,,,,,,,0,2,2,9,,,,,,,,,,,AFSA11.jpg,AFNE03.jpg,AFNE16.jpg,AFSA03.jpg,AFNE16.jpg,FN,3,num_2,16,num_2,1.80004028487,,,2017_Dec_12_1129,60.0057738987,MAFE4ImagesEEG,001,102502,
AFSA25.JPG,AFNE24.JPG,AFSA24.JPG,AFNE21.JPG,AFSA21.JPG,AFNE25.JPG,,,,,,,,,,,,,0,3,3,2,,,,,,,,,,,AFSA04.jpg,AFSA18.jpg,AFNE02.jpg,AFNE16.jpg,AFSA18.jpg,FS,4,num_6,32,num_8,0.899959843373,,,2017_Dec_12_1129,60.0057738987,MAFE4ImagesEEG,001,102502,
AMSA25.JPG,AMNE24.JPG,AMSA24.JPG,AMNE26.JPG,AMSA21.JPG,AMNE25.JPG,,,,,,,,,,,,,0,4,4,3,,,,,,,,,,,AFNE11.jpg,AFSA10.jpg,AFSA02.jpg,AFNE03.jpg,AFNE11.jpg,FN,3,num_8,32,num_4,0.983480969444,,,2017_Dec_12_1129,60.0057738987,MAFE4ImagesEEG,001,102502,
AFNE22.JPG,AFSA24.JPG,AFSA22.JPG,AFNE25.JPG,AFNE24.JPG,AFSA25.JPG,,,,,,,,,,,,,0,5,5,6,,,,,,,,,,,AFSA13.jpg,AFNE11.jpg,AFSA08.jpg,AFNE06.jpg,AFNE11.jpg,FN,3,num_6,16,num_6,0.600140868453,,,2017_Dec_12_1129,60.0057738987,MAFE4ImagesEEG,001,102502,
AMSA21.JPG,AMNE22.JPG,AMNE21.JPG,AMSA23.JPG,AMSA22.JPG,AMNE23.JPG,,,,,,,,,,,,,0,6,6,1,,,,,,,,,,,AFNE10.jpg,AFNE17.jpg,AFSA07.jpg,AFSA02.jpg,AFSA07.jpg,FS,4,num_2,16,num_2,1.6334024847,,,2017_Dec_12_1129,60.0057738987,MAFE4ImagesEEG,001,102502,
AFNE23.JPG,AFNE24.JPG,AFNE22.JPG,AFSA24.JPG,AFSA22.JPG,AFSA23.JPG,,,,,,,,,,,,,0,7,7,8,,,,,,,,,,,AFNE12.jpg,AFSA15.jpg,AFNE03.jpg,AFSA06.jpg,AFSA06.jpg,FS,4,num_4,16,num_4,1.01680897875,,,2017_Dec_12_1129,60.0057738987,MAFE4ImagesEEG,001,102502,
AFSA21.JPG,AFNE22.JPG,AFNE21.JPG,AFSA23.JPG,AFSA22.JPG,AFNE23.JPG,,,,,,,,,,,,,0,8,8,0,,,,,,,,,,,AFSA01.jpg,AFSA15.jpg,AFNE12.jpg,AFNE03.jpg,AFSA01.jpg,FS,4,num_8,32,num_6,1.36675018701,,,2017_Dec_12_1129,60.0057738987,MAFE4ImagesEEG,001,102502,
AFSA21.JPG,AFNE23.JPG,AFNE21.JPG,AFSA25.JPG,AFNE25.JPG,AFSA23.JPG,,,,,,,,,,,,,0,9,9,4,,,,,,,,,,,AFNE06.jpg,AFSA03.jpg,AFSA15.jpg,AFNE11.jpg,AFNE06.jpg,FN,3,num_8,32,num_6,1.50010584411,,,2017_Dec_12_1129,60.0057738987,MAFE4ImagesEEG,001,102502,
AMNE22.JPG,AMSA24.JPG,AMSA22.JPG,AMNE25.JPG,AMNE24.JPG,AMSA25.JPG,,,,,,,,,,,,,,,,,0,0,0,7,,,,,,,AMSA17.jpg,AMSA14.jpg,AMNE16.jpg,AMNE12.jpg,AMNE16.jpg,MN,1,num_2,32,num_8,1.48332637339,,,2017_Dec_12_1129,60.0057738987,MAFE4ImagesEEG,001,102502,
AFSA21.JPG,AFNE23.JPG,AFNE21.JPG,AFSA25.JPG,AFNE25.JPG,AFSA23.JPG,,,,,,,,,,,,,,,,,0,1,1,4,,,,,,,AMSA10.jpg,AMNE15.jpg,AMSA05.jpg,AMNE03.jpg,AMSA05.jpg,MS,2,num_2,16,num_2,4.11650466127,,,2017_Dec_12_1129,60.0057738987,MAFE4ImagesEEG,001,102502,
AMSA21.JPG,AMNE22.JPG,AMNE21.JPG,AMSA23.JPG,AMSA22.JPG,AMNE23.JPG,,,,,,,,,,,,,,,,,0,2,2,1,,,,,,,AMNE20.jpg,AMNE03.jpg,AMSA14.jpg,AMSA10.jpg,AMSA10.jpg,MS,2,num_4,16,num_4,0.933432505932,,,2017_Dec_12_1129,60.0057738987,MAFE4ImagesEEG,001,102502,
AFNE23.JPG,AFNE24.JPG,AFNE22.JPG,AFSA24.JPG,AFSA22.JPG,AFSA23.JPG,,,,,,,,,,,,,,,,,0,3,3,8,,,,,,,AMNE19.jpg,AMNE03.jpg,AMSA18.jpg,AMSA05.jpg,AMSA05.jpg,MS,2,num_4,16,num_4,0.550169061404,,,2017_Dec_12_1129,60.0057738987,MAFE4ImagesEEG,001,102502,
AFSA25.JPG,AFNE24.JPG,AFSA24.JPG,AFNE21.JPG,AFSA21.JPG,AFNE25.JPG,,,,,,,,,,,,,,,,,0,4,4,2,,,,,,,AMSA13.jpg,AMSA07.jpg,AMNE01.jpg,AMNE08.jpg,AMNE01.jpg,MN,1,num_2,16,num_2,1.55007733009,,,2017_Dec_12_1129,60.0057738987,MAFE4ImagesEEG,001,102502,
AFSA21.JPG,AFNE22.JPG,AFNE21.JPG,AFSA23.JPG,AFSA22.JPG,AFNE23.JPG,,,,,,,,,,,,,,,,,0,5,5,0,,,,,,,AMNE14.jpg,AMSA13.jpg,AMSA08.jpg,AMNE05.jpg,AMNE05.jpg,MN,1,num_4,16,num_4,1.06680099224,,,2017_Dec_12_1129,60.0057738987,MAFE4ImagesEEG,001,102502,
AFNE22.JPG,AFSA24.JPG,AFSA22.JPG,AFNE25.JPG,AFNE24.JPG,AFSA25.JPG,,,,,,,,,,,,,,,,,0,6,6,6,,,,,,,AMSA03.jpg,AMNE09.jpg,AMNE12.jpg,AMSA11.jpg,AMNE09.jpg,MN,1,num_6,16,num_6,0.850183045957,,,2017_Dec_12_1129,60.0057738987,MAFE4ImagesEEG,001,102502,
AMSA25.JPG,AMNE24.JPG,AMSA24.JPG,AMNE26.JPG,AMSA21.JPG,AMNE25.JPG,,,,,,,,,,,,,,,,,0,7,7,3,,,,,,,AMNE03.jpg,AMSA10.jpg,AMNE15.jpg,AMSA16.jpg,AMNE15.jpg,MN,1,num_2,16,num_2,1.06674871175,,,2017_Dec_12_1129,60.0057738987,MAFE4ImagesEEG,001,102502,
AMNE23.JPG,AMNE24.JPG,AMNE22.JPG,AMSA24.JPG,AMSA22.JPG,AMSA23.JPG,,,,,,,,,,,,,,,,,0,8,8,9,,,,,,,AMSA04.jpg,AMNE05.jpg,AMNE16.jpg,AMSA09.jpg,AMSA09.jpg,MS,2,num_4,16,num_4,1.2667449913,,,2017_Dec_12_1129,60.0057738987,MAFE4ImagesEEG,001,102502,
AMSA21.JPG,AMNE23.JPG,AMNE21.JPG,AMSA25.JPG,AMNE25.JPG,AMSA23.JPG,,,,,,,,,,,,,,,,,0,9,9,5,,,,,,,AMSA11.jpg,AMNE04.jpg,AMNE09.jpg,AMSA05.jpg,AMSA11.jpg,MS,2,num_8,32,num_6,0.983134891838,,,2017_Dec_12_1129,60.0057738987,MAFE4ImagesEEG,001,102502,
AMSA21.JPG,AMNE22.JPG,AMNE21.JPG,AMSA23.JPG,AMSA22.JPG,AMNE23.JPG,,,,,,,,,,,,,,,,,,,,,0,0,0,1,,,AFNE03.jpg,AFNE09.jpg,AFSA16.jpg,AFSA06.jpg,AFNE03.jpg,FN,3,num_8,16,num_8,1.40013625007,,,2017_Dec_12_1129,60.0057738987,MAFE4ImagesEEG,001,102502,
AFNE22.JPG,AFSA24.JPG,AFSA22.JPG,AFNE25.JPG,AFNE24.JPG,AFSA25.JPG,,,,,,,,,,,,,,,,,,,,,0,1,1,6,,,AFNE15.jpg,AFNE01.jpg,AFSA07.jpg,AFSA14.jpg,AFNE15.jpg,FN,3,num_8,32,num_6,2.08334183297,,,2017_Dec_12_1129,60.0057738987,MAFE4ImagesEEG,001,102502,
AMNE23.JPG,AMNE24.JPG,AMNE22.JPG,AMSA24.JPG,AMSA22.JPG,AMSA23.JPG,,,,,,,,,,,,,,,,,,,,,0,2,2,9,,,AFNE09.jpg,AFSA14.jpg,AFNE17.jpg,AFSA01.jpg,AFNE17.jpg,FN,3,num_2,16,num_2,1.3667415271,,,2017_Dec_12_1129,60.0057738987,MAFE4ImagesEEG,001,102502,
AFNE23.JPG,AFNE24.JPG,AFNE22.JPG,AFSA24.JPG,AFSA22.JPG,AFSA23.JPG,,,,,,,,,,,,,,,,,,,,,0,3,3,8,,,AFNE09.jpg,AFSA02.jpg,AFNE02.jpg,AFSA08.jpg,AFSA02.jpg,FS,4,num_6,32,num_4,2.21664969949,,,2017_Dec_12_1129,60.0057738987,MAFE4ImagesEEG,001,102502,
AMSA21.JPG,AMNE23.JPG,AMNE21.JPG,AMSA25.JPG,AMNE25.JPG,AMSA23.JPG,,,,,,,,,,,,,,,,,,,,,0,4,4,5,,,AFSA01.jpg,AFSA14.jpg,AFNE09.jpg,AFNE12.jpg,AFSA14.jpg,FS,4,num_6,32,num_4,0.833471571794,,,2017_Dec_12_1129,60.0057738987,MAFE4ImagesEEG,001,102502,
AMNE22.JPG,AMSA24.JPG,AMSA22.JPG,AMNE25.JPG,AMNE24.JPG,AMSA25.JPG,,,,,,,,,,,,,,,,,,,,,0,5,5,7,,,AFNE13.jpg,AFSA08.jpg,AFSA17.jpg,AFNE11.jpg,AFSA08.jpg,FS,4,num_6,16,num_6,0.95010260446,,,2017_Dec_12_1129,60.0057738987,MAFE4ImagesEEG,001,102502,
AFSA21.JPG,AFNE22.JPG,AFNE21.JPG,AFSA23.JPG,AFSA22.JPG,AFNE23.JPG,,,,,,,,,,,,,,,,,,,,,0,6,6,0,,,AFNE07.jpg,AFNE06.jpg,AFSA10.jpg,AFSA16.jpg,AFNE06.jpg,FN,3,num_6,16,num_6,2.13335758122,,,2017_Dec_12_1129,60.0057738987,MAFE4ImagesEEG,001,102502,
AMSA25.JPG,AMNE24.JPG,AMSA24.JPG,AMNE26.JPG,AMSA21.JPG,AMNE25.JPG,,,,,,,,,,,,,,,,,,,,,0,7,7,3,,,AFNE06.jpg,AFNE07.jpg,AFSA20.jpg,AFSA14.jpg,AFSA20.jpg,FS,4,num_2,32,num_4,1.2167298845,,,2017_Dec_12_1129,60.0057738987,MAFE4ImagesEEG,001,102502,
AFSA25.JPG,AFNE24.JPG,AFSA24.JPG,AFNE21.JPG,AFSA21.JPG,AFNE25.JPG,,,,,,,,,,,,,,,,,,,,,0,8,8,2,,,AFNE01.jpg,AFNE03.jpg,AFSA05.jpg,AFSA04.jpg,AFNE01.jpg,FN,3,num_8,32,num_6,0.733458999079,,,2017_Dec_12_1129,60.0057738987,MAFE4ImagesEEG,001,102502,
AFSA21.JPG,AFNE23.JPG,AFNE21.JPG,AFSA25.JPG,AFNE25.JPG,AFSA23.JPG,,,,,,,,,,,,,,,,,,,,,0,9,9,4,,,AFNE06.jpg,AFSA07.jpg,AFNE14.jpg,AFSA16.jpg,AFSA16.jpg,FS,4,num_4,32,num_6,1.3501022195,,,2017_Dec_12_1129,60.0057738987,MAFE4ImagesEEG,001,102502,
,,,,,,,,,,,,,,,,,,,,,,,,,,,,,,,,,,,,,,,,,,,space,20.1818607235,2017_Dec_12_1129,60.0057738987,MAFE4ImagesEEG,001,102502,
AFNE01.JPG,AFNE01.JPG,AFNE01.JPG,AFNE01.JPG,AFNE01.JPG,AFNE01.JPG,0,0,0,1,,,,,,,,,,,,,,,,,,,,,,,AMSA05.jpg,AMNE07.jpg,AMSA19.jpg,AMNE20.jpg,AMSA05.jpg,MS,2,num_8,32,num_2,1.50007409067,,,2017_Dec_12_1129,60.0057738987,MAFE4ImagesEEG,001,102502,
AFNE01.JPG,AFNE01.JPG,AFNE01.JPG,AFNE01.JPG,AFNE01.JPG,AFNE01.JPG,0,1,1,4,,,,,,,,,,,,,,,,,,,,,,,AMSA02.jpg,AMNE15.jpg,AMSA10.jpg,AMNE10.jpg,AMSA10.jpg,MS,2,num_2,32,num_4,0.816868507769,,,2017_Dec_12_1129,60.0057738987,MAFE4ImagesEEG,001,102502,
AFNE01.JPG,AFNE01.JPG,AFNE01.JPG,AFNE01.JPG,AFNE01.JPG,AFNE01.JPG,0,2,2,3,,,,,,,,,,,,,,,,,,,,,,,AMSA06.jpg,AMSA11.jpg,AMNE10.jpg,AMNE08.jpg,AMNE10.jpg,MN,1,num_2,32,num_4,1.15012999554,,,2017_Dec_12_1129,60.0057738987,MAFE4ImagesEEG,001,102502,
AFNE01.JPG,AFNE01.JPG,AFNE01.JPG,AFNE01.JPG,AFNE01.JPG,AFNE01.JPG,0,3,3,6,,,,,,,,,,,,,,,,,,,,,,,AMNE04.jpg,AMSA14.jpg,AMSA07.jpg,AMNE07.jpg,AMSA07.jpg,MS,2,num_2,32,num_6,0.650208897423,,,2017_Dec_12_1129,60.0057738987,MAFE4ImagesEEG,001,102502,
AFNE01.JPG,AFNE01.JPG,AFNE01.JPG,AFNE01.JPG,AFNE01.JPG,AFNE01.JPG,0,4,4,2,,,,,,,,,,,,,,,,,,,,,,,AMNE02.jpg,AMSA01.jpg,AMSA10.jpg,AMNE19.jpg,AMSA01.jpg,MS,2,num_6,16,num_6,1.80003611534,,,2017_Dec_12_1129,60.0057738987,MAFE4ImagesEEG,001,102502,
AFNE01.JPG,AFNE01.JPG,AFNE01.JPG,AFNE01.JPG,AFNE01.JPG,AFNE01.JPG,0,5,5,5,,,,,,,,,,,,,,,,,,,,,,,AMNE17.jpg,AMSA09.jpg,AMNE18.jpg,AMSA04.jpg,AMSA09.jpg,MS,2,num_6,16,num_6,0.650134485913,,,2017_Dec_12_1129,60.0057738987,MAFE4ImagesEEG,001,102502,
AFNE01.JPG,AFNE01.JPG,AFNE01.JPG,AFNE01.JPG,AFNE01.JPG,AFNE01.JPG,0,6,6,0,,,,,,,,,,,,,,,,,,,,,,,AMSA05.jpg,AMNE02.jpg,AMNE05.jpg,AMSA02.jpg,AMSA05.jpg,MS,2,num_8,32,num_2,1.81664238684,,,2017_Dec_12_1129,60.0057738987,MAFE4ImagesEEG,001,102502,
AFNE01.JPG,AFNE01.JPG,AFNE01.JPG,AFNE01.JPG,AFNE01.JPG,AFNE01.JPG,0,7,7,9,,,,,,,,,,,,,,,,,,,,,,,AMSA10.jpg,AMNE06.jpg,AMNE20.jpg,AMSA17.jpg,AMNE20.jpg,MN,1,num_2,32,num_4,0.850140066817,,,2017_Dec_12_1129,60.0057738987,MAFE4ImagesEEG,001,102502,
AFNE01.JPG,AFNE01.JPG,AFNE01.JPG,AFNE01.JPG,AFNE01.JPG,AFNE01.JPG,0,8,8,8,,,,,,,,,,,,,,,,,,,,,,,AMSA14.jpg,AMNE13.jpg,AMSA13.jpg,AMNE06.jpg,AMNE13.jpg,MN,1,num_6,16,num_6,0.733454187866,,,2017_Dec_12_1129,60.0057738987,MAFE4ImagesEEG,001,102502,
AFNE01.JPG,AFNE01.JPG,AFNE01.JPG,AFNE01.JPG,AFNE01.JPG,AFNE01.JPG,0,9,9,7,,,,,,,,,,,,,,,,,,,,,,,AMNE07.jpg,AMSA09.jpg,AMNE06.jpg,AMSA16.jpg,AMSA16.jpg,MS,2,num_4,16,num_4,1.43340877118,,,2017_Dec_12_1129,60.0057738987,MAFE4ImagesEEG,001,102502,
AFNE01.JPG,AFNE01.JPG,AFNE01.JPG,AFNE01.JPG,AFNE01.JPG,AFNE01.JPG,1,0,10,3,,,,,,,,,,,,,,,,,,,,,,,AMNE15.jpg,AMSA03.jpg,AMSA15.jpg,AMNE18.jpg,AMSA03.jpg,MS,2,num_6,16,num_6,0.550117743202,,,2017_Dec_12_1129,60.0057738987,MAFE4ImagesEEG,001,102502,
AFNE01.JPG,AFNE01.JPG,AFNE01.JPG,AFNE01.JPG,AFNE01.JPG,AFNE01.JPG,1,1,11,1,,,,,,,,,,,,,,,,,,,,,,,AMNE07.jpg,AMNE14.jpg,AMSA08.jpg,AMSA18.jpg,AMSA08.jpg,MS,2,num_2,32,num_8,1.20008865232,,,2017_Dec_12_1129,60.0057738987,MAFE4ImagesEEG,001,102502,
AFNE01.JPG,AFNE01.JPG,AFNE01.JPG,AFNE01.JPG,AFNE01.JPG,AFNE01.JPG,1,2,12,6,,,,,,,,,,,,,,,,,,,,,,,AMSA12.jpg,AMNE06.jpg,AMSA09.jpg,AMNE10.jpg,AMSA09.jpg,MS,2,num_2,16,num_2,1.73341890657,,,2017_Dec_12_1129,60.0057738987,MAFE4ImagesEEG,001,102502,
AFNE01.JPG,AFNE01.JPG,AFNE01.JPG,AFNE01.JPG,AFNE01.JPG,AFNE01.JPG,1,3,13,7,,,,,,,,,,,,,,,,,,,,,,,AMSA20.jpg,AMNE04.jpg,AMNE20.jpg,AMSA08.jpg,AMNE20.jpg,MN,1,num_2,32,num_6,1.33325988404,,,2017_Dec_12_1129,60.0057738987,MAFE4ImagesEEG,001,102502,
AFNE01.JPG,AFNE01.JPG,AFNE01.JPG,AFNE01.JPG,AFNE01.JPG,AFNE01.JPG,1,4,14,2,,,,,,,,,,,,,,,,,,,,,,,AMNE09.jpg,AMSA18.jpg,AMNE16.jpg,AMSA02.jpg,AMSA18.jpg,MS,2,num_6,32,num_4,0.650463243481,,,2017_Dec_12_1129,60.0057738987,MAFE4ImagesEEG,001,102502,
AFNE01.JPG,AFNE01.JPG,AFNE01.JPG,AFNE01.JPG,AFNE01.JPG,AFNE01.JPG,1,5,15,9,,,,,,,,,,,,,,,,,,,,,,,AMSA13.jpg,AMNE06.jpg,AMNE02.jpg,AMSA12.jpg,AMSA12.jpg,MS,2,num_4,32,num_8,1.25005340297,,,2017_Dec_12_1129,60.0057738987,MAFE4ImagesEEG,001,102502,
AFNE01.JPG,AFNE01.JPG,AFNE01.JPG,AFNE01.JPG,AFNE01.JPG,AFNE01.JPG,1,6,16,4,,,,,,,,,,,,,,,,,,,,,,,AMSA04.jpg,AMNE20.jpg,AMSA05.jpg,AMNE12.jpg,AMSA04.jpg,MS,2,num_8,32,num_6,0.63382137008,,,2017_Dec_12_1129,60.0057738987,MAFE4ImagesEEG,001,102502,
AFNE01.JPG,AFNE01.JPG,AFNE01.JPG,AFNE01.JPG,AFNE01.JPG,AFNE01.JPG,1,7,17,5,,,,,,,,,,,,,,,,,,,,,,,AMSA10.jpg,AMSA03.jpg,AMNE18.jpg,AMNE01.jpg,AMSA03.jpg,MS,2,num_6,16,num_6,1.26673697261,,,2017_Dec_12_1129,60.0057738987,MAFE4ImagesEEG,001,102502,
AFNE01.JPG,AFNE01.JPG,AFNE01.JPG,AFNE01.JPG,AFNE01.JPG,AFNE01.JPG,1,8,18,0,,,,,,,,,,,,,,,,,,,,,,,AMSA03.jpg,AMSA18.jpg,AMNE02.jpg,AMNE06.jpg,AMNE02.jpg,MN,1,num_2,32,num_8,0.933432185091,,,2017_Dec_12_1129,60.0057738987,MAFE4ImagesEEG,001,102502,
AFNE01.JPG,AFNE01.JPG,AFNE01.JPG,AFNE01.JPG,AFNE01.JPG,AFNE01.JPG,1,9,19,8,,,,,,,,,,,,,,,,,,,,,,,AMNE19.jpg,AMNE04.jpg,AMSA17.jpg,AMSA10.jpg,AMNE19.jpg,MN,1,num_8,32,num_4,1.18344068457,,,2017_Dec_12_1129,60.0057738987,MAFE4ImagesEEG,001,102502,
AFNE01.JPG,AFNE01.JPG,AFNE01.JPG,AFNE01.JPG,AFNE01.JPG,AFNE01.JPG,2,0,20,1,,,,,,,,,,,,,,,,,,,,,,,AMNE04.jpg,AMNE06.jpg,AMSA07.jpg,AMSA14.jpg,AMSA07.jpg,MS,2,num_2,16,num_2,1.93340331852,,,2017_Dec_12_1129,60.0057738987,MAFE4ImagesEEG,001,102502,
AFNE01.JPG,AFNE01.JPG,AFNE01.JPG,AFNE01.JPG,AFNE01.JPG,AFNE01.JPG,2,1,21,5,,,,,,,,,,,,,,,,,,,,,,,AMNE03.jpg,AMNE08.jpg,AMSA03.jpg,AMSA11.jpg,AMNE03.jpg,MN,1,num_8,16,num_8,1.18346890993,,,2017_Dec_12_1129,60.0057738987,MAFE4ImagesEEG,001,102502,
AFNE01.JPG,AFNE01.JPG,AFNE01.JPG,AFNE01.JPG,AFNE01.JPG,AFNE01.JPG,2,2,22,8,,,,,,,,,,,,,,,,,,,,,,,AMSA17.jpg,AMSA08.jpg,AMNE11.jpg,AMNE14.jpg,AMSA08.jpg,MS,2,num_6,16,num_6,1.10013637831,,,2017_Dec_12_1129,60.0057738987,MAFE4ImagesEEG,001,102502,
AFNE01.JPG,AFNE01.JPG,AFNE01.JPG,AFNE01.JPG,AFNE01.JPG,AFNE01.JPG,2,3,23,3,,,,,,,,,,,,,,,,,,,,,,,AMNE10.jpg,AMNE01.jpg,AMSA20.jpg,AMSA02.jpg,AMNE01.jpg,MN,1,num_6,32,num_8,1.3667328672,,,2017_Dec_12_1129,60.0057738987,MAFE4ImagesEEG,001,102502,
AFNE01.JPG,AFNE01.JPG,AFNE01.JPG,AFNE01.JPG,AFNE01.JPG,AFNE01.JPG,2,4,24,4,,,,,,,,,,,,,,,,,,,,,,,AMSA19.jpg,AMNE16.jpg,AMSA04.jpg,AMNE03.jpg,AMNE03.jpg,MN,1,num_4,16,num_4,0.683462494984,,,2017_Dec_12_1129,60.0057738987,MAFE4ImagesEEG,001,102502,
AFNE01.JPG,AFNE01.JPG,AFNE01.JPG,AFNE01.JPG,AFNE01.JPG,AFNE01.JPG,2,5,25,7,,,,,,,,,,,,,,,,,,,,,,,AMNE18.jpg,AMNE20.jpg,AMSA05.jpg,AMSA18.jpg,AMSA18.jpg,MS,2,num_4,16,num_4,0.916789028561,,,2017_Dec_12_1129,60.0057738987,MAFE4ImagesEEG,001,102502,
AFNE01.JPG,AFNE01.JPG,AFNE01.JPG,AFNE01.JPG,AFNE01.JPG,AFNE01.JPG,2,6,26,9,,,,,,,,,,,,,,,,,,,,,,,AMSA05.jpg,AMNE04.jpg,AMSA11.jpg,AMNE07.jpg,AMSA11.jpg,MS,2,num_2,16,num_2,1.20008191676,,,2017_Dec_12_1129,60.0057738987,MAFE4ImagesEEG,001,102502,
AFNE01.JPG,AFNE01.JPG,AFNE01.JPG,AFNE01.JPG,AFNE01.JPG,AFNE01.JPG,2,7,27,6,,,,,,,,,,,,,,,,,,,,,,,AMSA15.jpg,AMSA08.jpg,AMNE05.jpg,AMNE13.jpg,AMSA08.jpg,MS,2,num_6,16,num_6,1.16677122773,,,2017_Dec_12_1129,60.0057738987,MAFE4ImagesEEG,001,102502,
AFNE01.JPG,AFNE01.JPG,AFNE01.JPG,AFNE01.JPG,AFNE01.JPG,AFNE01.JPG,2,8,28,2,,,,,,,,,,,,,,,,,,,,,,,AMNE19.jpg,AMSA19.jpg,AMSA18.jpg,AMNE17.jpg,AMNE19.jpg,MN,1,num_8,16,num_8,1.16678726464,,,2017_Dec_12_1129,60.0057738987,MAFE4ImagesEEG,001,102502,
AFNE01.JPG,AFNE01.JPG,AFNE01.JPG,AFNE01.JPG,AFNE01.JPG,AFNE01.JPG,2,9,29,0,,,,,,,,,,,,,,,,,,,,,,,AMSA20.jpg,AMNE03.jpg,AMNE16.jpg,AMSA18.jpg,AMNE03.jpg,MN,1,num_6,32,num_8,0.983457555529,,,2017_Dec_12_1129,60.0057738987,MAFE4ImagesEEG,001,102502,
AFNE01.JPG,AFNE01.JPG,AFNE01.JPG,AFNE01.JPG,AFNE01.JPG,AFNE01.JPG,3,0,30,7,,,,,,,,,,,,,,,,,,,,,,,AMSA15.jpg,AMSA09.jpg,AMNE14.jpg,AMNE08.jpg,AMNE08.jpg,MN,1,num_4,16,num_4,1.10010205931,,,2017_Dec_12_1129,60.0057738987,MAFE4ImagesEEG,001,102502,
AFNE01.JPG,AFNE01.JPG,AFNE01.JPG,AFNE01.JPG,AFNE01.JPG,AFNE01.JPG,3,1,31,5,,,,,,,,,,,,,,,,,,,,,,,AMNE18.jpg,AMSA05.jpg,AMNE06.jpg,AMSA18.jpg,AMSA18.jpg,MS,2,num_4,16,num_4,0.650181955192,,,2017_Dec_12_1129,60.0057738987,MAFE4ImagesEEG,001,102502,
AFNE01.JPG,AFNE01.JPG,AFNE01.JPG,AFNE01.JPG,AFNE01.JPG,AFNE01.JPG,3,2,32,1,,,,,,,,,,,,,,,,,,,,,,,AMSA08.jpg,AMSA05.jpg,AMNE05.jpg,AMNE02.jpg,AMSA08.jpg,MS,2,num_8,16,num_8,0.866746658925,,,2017_Dec_12_1129,60.0057738987,MAFE4ImagesEEG,001,102502,
AFNE01.JPG,AFNE01.JPG,AFNE01.JPG,AFNE01.JPG,AFNE01.JPG,AFNE01.JPG,3,3,33,0,,,,,,,,,,,,,,,,,,,,,,,AMSA04.jpg,AMNE03.jpg,AMNE16.jpg,AMSA15.jpg,AMNE03.jpg,MN,1,num_6,32,num_2,2.43301618658,,,2017_Dec_12_1129,60.0057738987,MAFE4ImagesEEG,001,102502,
AFNE01.JPG,AFNE01.JPG,AFNE01.JPG,AFNE01.JPG,AFNE01.JPG,AFNE01.JPG,3,4,34,9,,,,,,,,,,,,,,,,,,,,,,,AMNE04.jpg,AMSA13.jpg,AMNE03.jpg,AMSA06.jpg,AMNE04.jpg,MN,1,num_8,32,num_6,0.783443635562,,,2017_Dec_12_1129,60.0057738987,MAFE4ImagesEEG,001,102502,
AFNE01.JPG,AFNE01.JPG,AFNE01.JPG,AFNE01.JPG,AFNE01.JPG,AFNE01.JPG,3,5,35,6,,,,,,,,,,,,,,,,,,,,,,,AMSA03.jpg,AMNE12.jpg,AMSA15.jpg,AMNE16.jpg,AMNE12.jpg,MN,1,num_6,32,num_4,0.883482188452,,,2017_Dec_12_1129,60.0057738987,MAFE4ImagesEEG,001,102502,
AFNE01.JPG,AFNE01.JPG,AFNE01.JPG,AFNE01.JPG,AFNE01.JPG,AFNE01.JPG,3,6,36,4,,,,,,,,,,,,,,,,,,,,,,,AMNE14.jpg,AMSA03.jpg,AMSA20.jpg,AMNE16.jpg,AMSA20.jpg,MS,2,num_2,32,num_8,0.883462944068,,,2017_Dec_12_1129,60.0057738987,MAFE4ImagesEEG,001,102502,
AFNE01.JPG,AFNE01.JPG,AFNE01.JPG,AFNE01.JPG,AFNE01.JPG,AFNE01.JPG,3,7,37,3,,,,,,,,,,,,,,,,,,,,,,,AMNE14.jpg,AMSA17.jpg,AMSA10.jpg,AMNE17.jpg,AMNE17.jpg,MN,1,num_4,32,num_6,0.816777738743,,,2017_Dec_12_1129,60.0057738987,MAFE4ImagesEEG,001,102502,
AFNE01.JPG,AFNE01.JPG,AFNE01.JPG,AFNE01.JPG,AFNE01.JPG,AFNE01.JPG,3,8,38,8,,,,,,,,,,,,,,,,,,,,,,,AMSA08.jpg,AMSA04.jpg,AMNE01.jpg,AMNE09.jpg,AMNE09.jpg,MN,1,num_4,16,num_4,0.916768822121,,,2017_Dec_12_1129,60.0057738987,MAFE4ImagesEEG,001,102502,
AFNE01.JPG,AFNE01.JPG,AFNE01.JPG,AFNE01.JPG,AFNE01.JPG,AFNE01.JPG,3,9,39,2,,,,,,,,,,,,,,,,,,,,,,,AMNE16.jpg,AMSA16.jpg,AMSA01.jpg,AMNE06.jpg,AMSA16.jpg,MS,2,num_6,32,num_8,0.816771324025,,,2017_Dec_12_1129,60.0057738987,MAFE4ImagesEEG,001,102502,
AFNE01.JPG,AFNE01.JPG,AFNE01.JPG,AFNE01.JPG,AFNE01.JPG,AFNE01.JPG,4,0,40,0,,,,,,,,,,,,,,,,,,,,,,,AMNE02.jpg,AMSA04.jpg,AMNE10.jpg,AMSA10.jpg,AMSA10.jpg,MS,2,num_4,16,num_4,1.11675740359,,,2017_Dec_12_1129,60.0057738987,MAFE4ImagesEEG,001,102502,
AFNE01.JPG,AFNE01.JPG,AFNE01.JPG,AFNE01.JPG,AFNE01.JPG,AFNE01.JPG,4,1,41,8,,,,,,,,,,,,,,,,,,,,,,,AMNE11.jpg,AMSA17.jpg,AMNE04.jpg,AMSA07.jpg,AMSA07.jpg,MS,2,num_4,32,num_6,0.650125184562,,,2017_Dec_12_1129,60.0057738987,MAFE4ImagesEEG,001,102502,
AFNE01.JPG,AFNE01.JPG,AFNE01.JPG,AFNE01.JPG,AFNE01.JPG,AFNE01.JPG,4,2,42,2,,,,,,,,,,,,,,,,,,,,,,,AMSA01.jpg,AMSA14.jpg,AMNE07.jpg,AMNE08.jpg,AMSA01.jpg,MS,2,num_8,16,num_8,0.933425770141,,,2017_Dec_12_1129,60.0057738987,MAFE4ImagesEEG,001,102502,
AFNE01.JPG,AFNE01.JPG,AFNE01.JPG,AFNE01.JPG,AFNE01.JPG,AFNE01.JPG,4,3,43,6,,,,,,,,,,,,,,,,,,,,,,,AMSA01.jpg,AMNE06.jpg,AMSA16.jpg,AMNE05.jpg,AMNE05.jpg,MN,1,num_4,32,num_6,0.883448510664,,,2017_Dec_12_1129,60.0057738987,MAFE4ImagesEEG,001,102502,
AFNE01.JPG,AFNE01.JPG,AFNE01.JPG,AFNE01.JPG,AFNE01.JPG,AFNE01.JPG,4,4,44,4,,,,,,,,,,,,,,,,,,,,,,,AMSA20.jpg,AMSA13.jpg,AMNE11.jpg,AMNE01.jpg,AMNE01.jpg,MN,1,num_4,16,num_4,0.716751053231,,,2017_Dec_12_1129,60.0057738987,MAFE4ImagesEEG,001,102502,
AFNE01.JPG,AFNE01.JPG,AFNE01.JPG,AFNE01.JPG,AFNE01.JPG,AFNE01.JPG,4,5,45,3,,,,,,,,,,,,,,,,,,,,,,,AMSA13.jpg,AMNE02.jpg,AMNE14.jpg,AMSA19.jpg,AMNE02.jpg,MN,1,num_6,16,num_6,0.966800927883,,,2017_Dec_12_1129,60.0057738987,MAFE4ImagesEEG,001,102502,
AFNE01.JPG,AFNE01.JPG,AFNE01.JPG,AFNE01.JPG,AFNE01.JPG,AFNE01.JPG,4,6,46,1,,,,,,,,,,,,,,,,,,,,,,,AMSA09.jpg,AMSA08.jpg,AMNE19.jpg,AMNE09.jpg,AMNE09.jpg,MN,1,num_4,16,num_4,1.3667485835,,,2017_Dec_12_1129,60.0057738987,MAFE4ImagesEEG,001,102502,
AFNE01.JPG,AFNE01.JPG,AFNE01.JPG,AFNE01.JPG,AFNE01.JPG,AFNE01.JPG,4,7,47,7,,,,,,,,,,,,,,,,,,,,,,,AMNE18.jpg,AMSA06.jpg,AMSA12.jpg,AMNE03.jpg,AMNE03.jpg,MN,1,num_4,16,num_4,0.500171916327,,,2017_Dec_12_1129,60.0057738987,MAFE4ImagesEEG,001,102502,
AFNE01.JPG,AFNE01.JPG,AFNE01.JPG,AFNE01.JPG,AFNE01.JPG,AFNE01.JPG,4,8,48,5,,,,,,,,,,,,,,,,,,,,,,,AMSA03.jpg,AMNE11.jpg,AMSA14.jpg,AMNE19.jpg,AMNE11.jpg,MN,1,num_6,32,num_8,0.966748006176,,,2017_Dec_12_1129,60.0057738987,MAFE4ImagesEEG,001,102502,
AFNE01.JPG,AFNE01.JPG,AFNE01.JPG,AFNE01.JPG,AFNE01.JPG,AFNE01.JPG,4,9,49,9,,,,,,,,,,,,,,,,,,,,,,,AMSA10.jpg,AMNE01.jpg,AMNE05.jpg,AMSA12.jpg,AMNE05.jpg,MN,1,num_2,32,num_4,1.45006475714,,,2017_Dec_12_1129,60.0057738987,MAFE4ImagesEEG,001,102502,
AFNE01.JPG,AFNE01.JPG,AFNE01.JPG,AFNE01.JPG,AFNE01.JPG,AFNE01.JPG,5,0,50,6,,,,,,,,,,,,,,,,,,,,,,,AMNE02.jpg,AMSA07.jpg,AMNE16.jpg,AMSA19.jpg,AMNE16.jpg,MN,1,num_2,16,num_2,1.60004143952,,,2017_Dec_12_1129,60.0057738987,MAFE4ImagesEEG,001,102502,
AFNE01.JPG,AFNE01.JPG,AFNE01.JPG,AFNE01.JPG,AFNE01.JPG,AFNE01.JPG,5,1,51,4,,,,,,,,,,,,,,,,,,,,,,,AMNE20.jpg,AMSA01.jpg,AMNE07.jpg,AMSA07.jpg,AMNE20.jpg,MN,1,num_8,16,num_8,1.05013827072,,,2017_Dec_12_1129,60.0057738987,MAFE4ImagesEEG,001,102502,
AFNE01.JPG,AFNE01.JPG,AFNE01.JPG,AFNE01.JPG,AFNE01.JPG,AFNE01.JPG,5,2,52,2,,,,,,,,,,,,,,,,,,,,,,,AMNE20.jpg,AMSA16.jpg,AMNE03.jpg,AMSA08.jpg,AMNE20.jpg,MN,1,num_8,32,num_6,1.78336313018,,,2017_Dec_12_1129,60.0057738987,MAFE4ImagesEEG,001,102502,
AFNE01.JPG,AFNE01.JPG,AFNE01.JPG,AFNE01.JPG,AFNE01.JPG,AFNE01.JPG,5,3,53,8,,,,,,,,,,,,,,,,,,,,,,,AMSA12.jpg,AMNE01.jpg,AMSA14.jpg,AMNE18.jpg,AMNE18.jpg,MN,1,num_4,32,num_8,1.35009708791,,,2017_Dec_12_1129,60.0057738987,MAFE4ImagesEEG,001,102502,
AFNE01.JPG,AFNE01.JPG,AFNE01.JPG,AFNE01.JPG,AFNE01.JPG,AFNE01.JPG,5,4,54,1,,,,,,,,,,,,,,,,,,,,,,,AMSA02.jpg,AMSA13.jpg,AMNE01.jpg,AMNE13.jpg,AMSA13.jpg,MS,2,num_6,32,num_4,1.41683232854,,,2017_Dec_12_1129,60.0057738987,MAFE4ImagesEEG,001,102502,
AFNE01.JPG,AFNE01.JPG,AFNE01.JPG,AFNE01.JPG,AFNE01.JPG,AFNE01.JPG,5,5,55,3,,,,,,,,,,,,,,,,,,,,,,,AMSA13.jpg,AMNE12.jpg,AMSA10.jpg,AMNE17.jpg,AMNE17.jpg,MN,1,num_4,32,num_6,0.583487448515,,,2017_Dec_12_1129,60.0057738987,MAFE4ImagesEEG,001,102502,
AFNE01.JPG,AFNE01.JPG,AFNE01.JPG,AFNE01.JPG,AFNE01.JPG,AFNE01.JPG,5,6,56,7,,,,,,,,,,,,,,,,,,,,,,,AMSA10.jpg,AMNE02.jpg,AMSA11.jpg,AMNE05.jpg,AMSA10.jpg,MS,2,num_8,32,num_4,0.783456464997,,,2017_Dec_12_1129,60.0057738987,MAFE4ImagesEEG,001,102502,
AFNE01.JPG,AFNE01.JPG,AFNE01.JPG,AFNE01.JPG,AFNE01.JPG,AFNE01.JPG,5,7,57,0,,,,,,,,,,,,,,,,,,,,,,,AMSA19.jpg,AMNE14.jpg,AMNE17.jpg,AMSA14.jpg,AMNE17.jpg,MN,1,num_2,32,num_8,0.900117967743,,,2017_Dec_12_1129,60.0057738987,MAFE4ImagesEEG,001,102502,
AFNE01.JPG,AFNE01.JPG,AFNE01.JPG,AFNE01.JPG,AFNE01.JPG,AFNE01.JPG,5,8,58,9,,,,,,,,,,,,,,,,,,,,,,,AMSA16.jpg,AMNE11.jpg,AMSA09.jpg,AMNE09.jpg,AMNE11.jpg,MN,1,num_6,16,num_6,1.01676279213,,,2017_Dec_12_1129,60.0057738987,MAFE4ImagesEEG,001,102502,
AFNE01.JPG,AFNE01.JPG,AFNE01.JPG,AFNE01.JPG,AFNE01.JPG,AFNE01.JPG,5,9,59,5,,,,,,,,,,,,,,,,,,,,,,,AMSA09.jpg,AMNE13.jpg,AMNE02.jpg,AMSA10.jpg,AMSA09.jpg,MS,2,num_8,16,num_8,0.866800863994,,,2017_Dec_12_1129,60.0057738987,MAFE4ImagesEEG,001,102502,
,,,,,,,,,,,,,,,,,,,,,,,,,,,,,,,,,,,,,,,,,,,space,22.7983769313,2017_Dec_12_1129,60.0057738987,MAFE4ImagesEEG,001,102502,
AFNE01.JPG,AFNE01.JPG,AFNE01.JPG,AFNE01.JPG,AFNE01.JPG,AFNE01.JPG,,,,,0,0,0,7,,,,,,,,,,,,,,,,,,,AFSA01.jpg,AFNE03.jpg,AFNE08.jpg,AFSA14.jpg,AFSA14.jpg,FS,4,num_4,32,num_6,0.766760707367,,,2017_Dec_12_1129,60.0057738987,MAFE4ImagesEEG,001,102502,
AFNE01.JPG,AFNE01.JPG,AFNE01.JPG,AFNE01.JPG,AFNE01.JPG,AFNE01.JPG,,,,,0,1,1,4,,,,,,,,,,,,,,,,,,,AFSA09.jpg,AFNE08.jpg,AFNE10.jpg,AFSA03.jpg,AFNE10.jpg,FN,3,num_2,16,num_2,1.11645943695,,,2017_Dec_12_1129,60.0057738987,MAFE4ImagesEEG,001,102502,
AFNE01.JPG,AFNE01.JPG,AFNE01.JPG,AFNE01.JPG,AFNE01.JPG,AFNE01.JPG,,,,,0,2,2,9,,,,,,,,,,,,,,,,,,,AFSA02.jpg,AFNE09.jpg,AFSA19.jpg,AFNE05.jpg,AFSA19.jpg,FS,4,num_2,32,num_4,0.700192892458,,,2017_Dec_12_1129,60.0057738987,MAFE4ImagesEEG,001,102502,
AFNE01.JPG,AFNE01.JPG,AFNE01.JPG,AFNE01.JPG,AFNE01.JPG,AFNE01.JPG,,,,,0,3,3,3,,,,,,,,,,,,,,,,,,,AFSA09.jpg,AFNE18.jpg,AFSA20.jpg,AFNE04.jpg,AFNE18.jpg,FN,3,num_6,32,num_8,0.733454508707,,,2017_Dec_12_1129,60.0057738987,MAFE4ImagesEEG,001,102502,
AFNE01.JPG,AFNE01.JPG,AFNE01.JPG,AFNE01.JPG,AFNE01.JPG,AFNE01.JPG,,,,,0,4,4,5,,,,,,,,,,,,,,,,,,,AFSA19.jpg,AFNE02.jpg,AFSA10.jpg,AFNE16.jpg,AFNE16.jpg,FN,3,num_4,32,num_6,0.683494568802,,,2017_Dec_12_1129,60.0057738987,MAFE4ImagesEEG,001,102502,
AFNE01.JPG,AFNE01.JPG,AFNE01.JPG,AFNE01.JPG,AFNE01.JPG,AFNE01.JPG,,,,,0,5,5,0,,,,,,,,,,,,,,,,,,,AFNE05.jpg,AFNE16.jpg,AFSA03.jpg,AFSA08.jpg,AFSA03.jpg,FS,4,num_2,32,num_4,0.750123324106,,,2017_Dec_12_1129,60.0057738987,MAFE4ImagesEEG,001,102502,
AFNE01.JPG,AFNE01.JPG,AFNE01.JPG,AFNE01.JPG,AFNE01.JPG,AFNE01.JPG,,,,,0,6,6,2,,,,,,,,,,,,,,,,,,,AFNE04.jpg,AFNE06.jpg,AFSA14.jpg,AFSA01.jpg,AFNE04.jpg,FN,3,num_8,16,num_8,0.866841277108,,,2017_Dec_12_1129,60.0057738987,MAFE4ImagesEEG,001,102502,
AFNE01.JPG,AFNE01.JPG,AFNE01.JPG,AFNE01.JPG,AFNE01.JPG,AFNE01.JPG,,,,,0,7,7,8,,,,,,,,,,,,,,,,,,,AFNE14.jpg,AFSA08.jpg,AFSA10.jpg,AFNE16.jpg,AFSA08.jpg,FS,4,num_6,16,num_6,0.60015979223,,,2017_Dec_12_1129,60.0057738987,MAFE4ImagesEEG,001,102502,
AFNE01.JPG,AFNE01.JPG,AFNE01.JPG,AFNE01.JPG,AFNE01.JPG,AFNE01.JPG,,,,,0,8,8,6,,,,,,,,,,,,,,,,,,,AFSA15.jpg,AFSA07.jpg,AFNE02.jpg,AFNE18.jpg,AFSA07.jpg,FS,4,num_6,32,num_2,1.28340161871,,,2017_Dec_12_1129,60.0057738987,MAFE4ImagesEEG,001,102502,
AFNE01.JPG,AFNE01.JPG,AFNE01.JPG,AFNE01.JPG,AFNE01.JPG,AFNE01.JPG,,,,,0,9,9,1,,,,,,,,,,,,,,,,,,,AFSA17.jpg,AFNE04.jpg,AFSA02.jpg,AFNE10.jpg,AFNE10.jpg,FN,3,num_4,32,num_6,1.01679807343,,,2017_Dec_12_1129,60.0057738987,MAFE4ImagesEEG,001,102502,
AFNE01.JPG,AFNE01.JPG,AFNE01.JPG,AFNE01.JPG,AFNE01.JPG,AFNE01.JPG,,,,,1,0,10,2,,,,,,,,,,,,,,,,,,,AFSA13.jpg,AFSA03.jpg,AFNE03.jpg,AFNE12.jpg,AFNE12.jpg,FN,3,num_4,16,num_4,1.20008319989,,,2017_Dec_12_1129,60.0057738987,MAFE4ImagesEEG,001,102502,
AFNE01.JPG,AFNE01.JPG,AFNE01.JPG,AFNE01.JPG,AFNE01.JPG,AFNE01.JPG,,,,,1,1,11,8,,,,,,,,,,,,,,,,,,,AFSA14.jpg,AFSA01.jpg,AFNE05.jpg,AFNE20.jpg,AFSA14.jpg,FS,4,num_8,16,num_8,0.750153473811,,,2017_Dec_12_1129,60.0057738987,MAFE4ImagesEEG,001,102502,
AFNE01.JPG,AFNE01.JPG,AFNE01.JPG,AFNE01.JPG,AFNE01.JPG,AFNE01.JPG,,,,,1,2,12,7,,,,,,,,,,,,,,,,,,,AFSA05.jpg,AFNE11.jpg,AFNE15.jpg,AFSA13.jpg,AFNE11.jpg,FN,3,num_6,16,num_6,0.7334997328,,,2017_Dec_12_1129,60.0057738987,MAFE4ImagesEEG,001,102502,
AFNE01.JPG,AFNE01.JPG,AFNE01.JPG,AFNE01.JPG,AFNE01.JPG,AFNE01.JPG,,,,,1,3,13,1,,,,,,,,,,,,,,,,,,,AFNE15.jpg,AFSA15.jpg,AFSA20.jpg,AFNE10.jpg,AFNE10.jpg,FN,3,num_4,32,num_8,1.23344071675,,,2017_Dec_12_1129,60.0057738987,MAFE4ImagesEEG,001,102502,
AFNE01.JPG,AFNE01.JPG,AFNE01.JPG,AFNE01.JPG,AFNE01.JPG,AFNE01.JPG,,,,,1,4,14,6,,,,,,,,,,,,,,,,,,,AFSA08.jpg,AFNE17.jpg,AFNE03.jpg,AFSA02.jpg,AFNE03.jpg,FN,3,num_2,16,num_2,1.11682347604,,,2017_Dec_12_1129,60.0057738987,MAFE4ImagesEEG,001,102502,
AFNE01.JPG,AFNE01.JPG,AFNE01.JPG,AFNE01.JPG,AFNE01.JPG,AFNE01.JPG,,,,,1,5,15,0,,,,,,,,,,,,,,,,,,,AFSA19.jpg,AFNE05.jpg,AFNE08.jpg,AFSA20.jpg,AFSA19.jpg,FS,4,num_8,32,num_6,0.967049821746,,,2017_Dec_12_1129,60.0057738987,MAFE4ImagesEEG,001,102502,
AFNE01.JPG,AFNE01.JPG,AFNE01.JPG,AFNE01.JPG,AFNE01.JPG,AFNE01.JPG,,,,,1,6,16,3,,,,,,,,,,,,,,,,,,,AFSA18.jpg,AFNE06.jpg,AFSA16.jpg,AFNE08.jpg,AFSA16.jpg,FS,4,num_2,16,num_2,0.916768822121,,,2017_Dec_12_1129,60.0057738987,MAFE4ImagesEEG,001,102502,
AFNE01.JPG,AFNE01.JPG,AFNE01.JPG,AFNE01.JPG,AFNE01.JPG,AFNE01.JPG,,,,,1,7,17,5,,,,,,,,,,,,,,,,,,,AFSA07.jpg,AFSA04.jpg,AFNE09.jpg,AFNE07.jpg,AFSA07.jpg,FS,4,num_8,16,num_8,0.883496300783,,,2017_Dec_12_1129,60.0057738987,MAFE4ImagesEEG,001,102502,
AFNE01.JPG,AFNE01.JPG,AFNE01.JPG,AFNE01.JPG,AFNE01.JPG,AFNE01.JPG,,,,,1,8,18,9,,,,,,,,,,,,,,,,,,,AFSA01.jpg,AFNE13.jpg,AFNE07.jpg,AFSA10.jpg,AFSA01.jpg,FS,4,num_8,32,num_6,1.03342743823,,,2017_Dec_12_1129,60.0057738987,MAFE4ImagesEEG,001,102502,
AFNE01.JPG,AFNE01.JPG,AFNE01.JPG,AFNE01.JPG,AFNE01.JPG,AFNE01.JPG,,,,,1,9,19,4,,,,,,,,,,,,,,,,,,,AFSA02.jpg,AFSA06.jpg,AFNE20.jpg,AFNE13.jpg,AFSA06.jpg,FS,4,num_6,32,num_8,0.783459672472,,,2017_Dec_12_1129,60.0057738987,MAFE4ImagesEEG,001,102502,
AFNE01.JPG,AFNE01.JPG,AFNE01.JPG,AFNE01.JPG,AFNE01.JPG,AFNE01.JPG,,,,,2,0,20,2,,,,,,,,,,,,,,,,,,,AFSA03.jpg,AFNE14.jpg,AFNE05.jpg,AFSA20.jpg,AFNE05.jpg,FN,3,num_2,16,num_2,1.31673700479,,,2017_Dec_12_1129,60.0057738987,MAFE4ImagesEEG,001,102502,
AFNE01.JPG,AFNE01.JPG,AFNE01.JPG,AFNE01.JPG,AFNE01.JPG,AFNE01.JPG,,,,,2,1,21,7,,,,,,,,,,,,,,,,,,,AFNE16.jpg,AFSA06.jpg,AFNE09.jpg,AFSA18.jpg,AFSA06.jpg,FS,4,num_6,32,num_4,1.43328079628,,,2017_Dec_12_1129,60.0057738987,MAFE4ImagesEEG,001,102502,
AFNE01.JPG,AFNE01.JPG,AFNE01.JPG,AFNE01.JPG,AFNE01.JPG,AFNE01.JPG,,,,,2,2,22,5,,,,,,,,,,,,,,,,,,,AFSA17.jpg,AFNE05.jpg,AFSA19.jpg,AFNE17.jpg,AFSA19.jpg,FS,4,num_2,32,num_8,2.33334937016,,,2017_Dec_12_1129,60.0057738987,MAFE4ImagesEEG,001,102502,
AFNE01.JPG,AFNE01.JPG,AFNE01.JPG,AFNE01.JPG,AFNE01.JPG,AFNE01.JPG,,,,,2,3,23,4,,,,,,,,,,,,,,,,,,,AFSA04.jpg,AFSA05.jpg,AFNE01.jpg,AFNE19.jpg,AFNE01.jpg,FN,3,num_2,32,num_8,1.21642838954,,,2017_Dec_12_1129,60.0057738987,MAFE4ImagesEEG,001,102502,
AFNE01.JPG,AFNE01.JPG,AFNE01.JPG,AFNE01.JPG,AFNE01.JPG,AFNE01.JPG,,,,,2,4,24,6,,,,,,,,,,,,,,,,,,,AFNE09.jpg,AFNE12.jpg,AFSA08.jpg,AFSA20.jpg,AFSA08.jpg,FS,4,num_2,16,num_2,1.25007489254,,,2017_Dec_12_1129,60.0057738987,MAFE4ImagesEEG,001,102502,
AFNE01.JPG,AFNE01.JPG,AFNE01.JPG,AFNE01.JPG,AFNE01.JPG,AFNE01.JPG,,,,,2,5,25,8,,,,,,,,,,,,,,,,,,,AFNE16.jpg,AFSA20.jpg,AFNE07.jpg,AFSA09.jpg,AFNE16.jpg,FN,3,num_8,32,num_6,1.53339793021,,,2017_Dec_12_1129,60.0057738987,MAFE4ImagesEEG,001,102502,
AFNE01.JPG,AFNE01.JPG,AFNE01.JPG,AFNE01.JPG,AFNE01.JPG,AFNE01.JPG,,,,,2,6,26,9,,,,,,,,,,,,,,,,,,,AFSA01.jpg,AFNE08.jpg,AFNE06.jpg,AFSA17.jpg,AFNE08.jpg,FN,3,num_6,16,num_6,1.43363809958,,,2017_Dec_12_1129,60.0057738987,MAFE4ImagesEEG,001,102502,
AFNE01.JPG,AFNE01.JPG,AFNE01.JPG,AFNE01.JPG,AFNE01.JPG,AFNE01.JPG,,,,,2,7,27,0,,,,,,,,,,,,,,,,,,,AFSA09.jpg,AFSA19.jpg,AFNE07.jpg,AFNE10.jpg,AFNE07.jpg,FN,3,num_2,16,num_2,2.26664620358,,,2017_Dec_12_1129,60.0057738987,MAFE4ImagesEEG,001,102502,
AFNE01.JPG,AFNE01.JPG,AFNE01.JPG,AFNE01.JPG,AFNE01.JPG,AFNE01.JPG,,,,,2,8,28,1,,,,,,,,,,,,,,,,,,,AFNE07.jpg,AFSA09.jpg,AFSA15.jpg,AFNE13.jpg,AFSA15.jpg,FS,4,num_2,32,num_6,1.00011225883,,,2017_Dec_12_1129,60.0057738987,MAFE4ImagesEEG,001,102502,
AFNE01.JPG,AFNE01.JPG,AFNE01.JPG,AFNE01.JPG,AFNE01.JPG,AFNE01.JPG,,,,,2,9,29,3,,,,,,,,,,,,,,,,,,,AFNE06.jpg,AFSA16.jpg,AFSA07.jpg,AFNE15.jpg,AFNE06.jpg,FN,3,num_8,16,num_8,1.21671256423,,,2017_Dec_12_1129,60.0057738987,MAFE4ImagesEEG,001,102502,
AFNE01.JPG,AFNE01.JPG,AFNE01.JPG,AFNE01.JPG,AFNE01.JPG,AFNE01.JPG,,,,,3,0,30,9,,,,,,,,,,,,,,,,,,,AFNE12.jpg,AFSA09.jpg,AFSA16.jpg,AFNE18.jpg,AFSA09.jpg,FS,4,num_6,32,num_4,1.38340168283,,,2017_Dec_12_1129,60.0057738987,MAFE4ImagesEEG,001,102502,
AFNE01.JPG,AFNE01.JPG,AFNE01.JPG,AFNE01.JPG,AFNE01.JPG,AFNE01.JPG,,,,,3,1,31,2,,,,,,,,,,,,,,,,,,,AFSA02.jpg,AFSA08.jpg,AFNE08.jpg,AFNE05.jpg,AFSA02.jpg,FS,4,num_8,32,num_6,0.800168580608,,,2017_Dec_12_1129,60.0057738987,MAFE4ImagesEEG,001,102502,
AFNE01.JPG,AFNE01.JPG,AFNE01.JPG,AFNE01.JPG,AFNE01.JPG,AFNE01.JPG,,,,,3,2,32,0,,,,,,,,,,,,,,,,,,,AFNE09.jpg,AFSA03.jpg,AFNE17.jpg,AFSA06.jpg,AFSA03.jpg,FS,4,num_6,32,num_2,1.35009548394,,,2017_Dec_12_1129,60.0057738987,MAFE4ImagesEEG,001,102502,
AFNE01.JPG,AFNE01.JPG,AFNE01.JPG,AFNE01.JPG,AFNE01.JPG,AFNE01.JPG,,,,,3,3,33,7,,,,,,,,,,,,,,,,,,,AFNE07.jpg,AFSA17.jpg,AFNE16.jpg,AFSA12.jpg,AFSA12.jpg,FS,4,num_4,32,num_8,1.11658195942,,,2017_Dec_12_1129,60.0057738987,MAFE4ImagesEEG,001,102502,
AFNE01.JPG,AFNE01.JPG,AFNE01.JPG,AFNE01.JPG,AFNE01.JPG,AFNE01.JPG,,,,,3,4,34,1,,,,,,,,,,,,,,,,,,,AFNE05.jpg,AFNE20.jpg,AFSA09.jpg,AFSA05.jpg,AFSA09.jpg,FS,4,num_2,16,num_2,2.10005747643,,,2017_Dec_12_1129,60.0057738987,MAFE4ImagesEEG,001,102502,
AFNE01.JPG,AFNE01.JPG,AFNE01.JPG,AFNE01.JPG,AFNE01.JPG,AFNE01.JPG,,,,,3,5,35,6,,,,,,,,,,,,,,,,,,,AFSA12.jpg,AFNE01.jpg,AFSA07.jpg,AFNE05.jpg,AFSA07.jpg,FS,4,num_2,32,num_6,0.916749898577,,,2017_Dec_12_1129,60.0057738987,MAFE4ImagesEEG,001,102502,
AFNE01.JPG,AFNE01.JPG,AFNE01.JPG,AFNE01.JPG,AFNE01.JPG,AFNE01.JPG,,,,,3,6,36,4,,,,,,,,,,,,,,,,,,,AFNE08.jpg,AFNE07.jpg,AFSA18.jpg,AFSA04.jpg,AFNE07.jpg,FN,3,num_6,32,num_8,1.91668895818,,,2017_Dec_12_1129,60.0057738987,MAFE4ImagesEEG,001,102502,
AFNE01.JPG,AFNE01.JPG,AFNE01.JPG,AFNE01.JPG,AFNE01.JPG,AFNE01.JPG,,,,,3,7,37,5,,,,,,,,,,,,,,,,,,,AFNE16.jpg,AFSA07.jpg,AFNE05.jpg,AFSA14.jpg,AFSA07.jpg,FS,4,num_6,16,num_6,0.983462366741,,,2017_Dec_12_1129,60.0057738987,MAFE4ImagesEEG,001,102502,
AFNE01.JPG,AFNE01.JPG,AFNE01.JPG,AFNE01.JPG,AFNE01.JPG,AFNE01.JPG,,,,,3,8,38,8,,,,,,,,,,,,,,,,,,,AFSA01.jpg,AFNE10.jpg,AFNE02.jpg,AFSA13.jpg,AFSA13.jpg,FS,4,num_4,16,num_4,0.683487833245,,,2017_Dec_12_1129,60.0057738987,MAFE4ImagesEEG,001,102502,
AFNE01.JPG,AFNE01.JPG,AFNE01.JPG,AFNE01.JPG,AFNE01.JPG,AFNE01.JPG,,,,,3,9,39,3,,,,,,,,,,,,,,,,,,,AFSA03.jpg,AFNE16.jpg,AFSA15.jpg,AFNE08.jpg,AFSA03.jpg,FS,4,num_8,16,num_8,0.750158284791,,,2017_Dec_12_1129,60.0057738987,MAFE4ImagesEEG,001,102502,
AFNE01.JPG,AFNE01.JPG,AFNE01.JPG,AFNE01.JPG,AFNE01.JPG,AFNE01.JPG,,,,,4,0,40,9,,,,,,,,,,,,,,,,,,,AFNE02.jpg,AFSA18.jpg,AFNE17.jpg,AFSA02.jpg,AFNE02.jpg,FN,3,num_8,32,num_2,1.31676683365,,,2017_Dec_12_1129,60.0057738987,MAFE4ImagesEEG,001,102502,
AFNE01.JPG,AFNE01.JPG,AFNE01.JPG,AFNE01.JPG,AFNE01.JPG,AFNE01.JPG,,,,,4,1,41,4,,,,,,,,,,,,,,,,,,,AFSA18.jpg,AFNE13.jpg,AFNE11.jpg,AFSA19.jpg,AFSA18.jpg,FS,4,num_8,16,num_8,0.750085477019,,,2017_Dec_12_1129,60.0057738987,MAFE4ImagesEEG,001,102502,
AFNE01.JPG,AFNE01.JPG,AFNE01.JPG,AFNE01.JPG,AFNE01.JPG,AFNE01.JPG,,,,,4,2,42,7,,,,,,,,,,,,,,,,,,,AFNE15.jpg,AFSA17.jpg,AFNE01.jpg,AFSA08.jpg,AFSA17.jpg,FS,4,num_6,32,num_8,1.30005920841,,,2017_Dec_12_1129,60.0057738987,MAFE4ImagesEEG,001,102502,
AFNE01.JPG,AFNE01.JPG,AFNE01.JPG,AFNE01.JPG,AFNE01.JPG,AFNE01.JPG,,,,,4,3,43,0,,,,,,,,,,,,,,,,,,,AFNE03.jpg,AFNE19.jpg,AFSA01.jpg,AFSA03.jpg,AFSA01.jpg,FS,4,num_2,16,num_2,0.983412331436,,,2017_Dec_12_1129,60.0057738987,MAFE4ImagesEEG,001,102502,
AFNE01.JPG,AFNE01.JPG,AFNE01.JPG,AFNE01.JPG,AFNE01.JPG,AFNE01.JPG,,,,,4,4,44,2,,,,,,,,,,,,,,,,,,,AFNE07.jpg,AFSA17.jpg,AFSA01.jpg,AFNE18.jpg,AFNE18.jpg,FN,3,num_4,32,num_6,0.899842452956,,,2017_Dec_12_1129,60.0057738987,MAFE4ImagesEEG,001,102502,
AFNE01.JPG,AFNE01.JPG,AFNE01.JPG,AFNE01.JPG,AFNE01.JPG,AFNE01.JPG,,,,,4,5,45,3,,,,,,,,,,,,,,,,,,,AFNE19.jpg,AFSA20.jpg,AFSA15.jpg,AFNE16.jpg,AFSA20.jpg,FS,4,num_6,32,num_4,0.983471668093,,,2017_Dec_12_1129,60.0057738987,MAFE4ImagesEEG,001,102502,
AFNE01.JPG,AFNE01.JPG,AFNE01.JPG,AFNE01.JPG,AFNE01.JPG,AFNE01.JPG,,,,,4,6,46,1,,,,,,,,,,,,,,,,,,,AFSA13.jpg,AFSA01.jpg,AFNE02.jpg,AFNE13.jpg,AFNE02.jpg,FN,3,num_2,32,num_8,1.01662166696,,,2017_Dec_12_1129,60.0057738987,MAFE4ImagesEEG,001,102502,
AFNE01.JPG,AFNE01.JPG,AFNE01.JPG,AFNE01.JPG,AFNE01.JPG,AFNE01.JPG,,,,,4,7,47,8,,,,,,,,,,,,,,,,,,,AFSA05.jpg,AFNE18.jpg,AFNE08.jpg,AFSA06.jpg,AFSA05.jpg,FS,4,num_8,16,num_8,1.38364608609,,,2017_Dec_12_1129,60.0057738987,MAFE4ImagesEEG,001,102502,
AFNE01.JPG,AFNE01.JPG,AFNE01.JPG,AFNE01.JPG,AFNE01.JPG,AFNE01.JPG,,,,,4,8,48,5,,,,,,,,,,,,,,,,,,,AFNE05.jpg,AFNE15.jpg,AFSA10.jpg,AFSA18.jpg,AFNE15.jpg,FN,3,num_6,16,num_6,1.00008082623,,,2017_Dec_12_1129,60.0057738987,MAFE4ImagesEEG,001,102502,
AFNE01.JPG,AFNE01.JPG,AFNE01.JPG,AFNE01.JPG,AFNE01.JPG,AFNE01.JPG,,,,,4,9,49,6,,,,,,,,,,,,,,,,,,,AFNE15.jpg,AFNE09.jpg,AFSA12.jpg,AFSA01.jpg,AFNE15.jpg,FN,3,num_8,32,num_6,0.966821455397,,,2017_Dec_12_1129,60.0057738987,MAFE4ImagesEEG,001,102502,
AFNE01.JPG,AFNE01.JPG,AFNE01.JPG,AFNE01.JPG,AFNE01.JPG,AFNE01.JPG,,,,,5,0,50,5,,,,,,,,,,,,,,,,,,,AFSA05.jpg,AFNE03.jpg,AFNE06.jpg,AFSA19.jpg,AFNE06.jpg,FN,3,num_2,32,num_4,1.98335748515,,,2017_Dec_12_1129,60.0057738987,MAFE4ImagesEEG,001,102502,
AFNE01.JPG,AFNE01.JPG,AFNE01.JPG,AFNE01.JPG,AFNE01.JPG,AFNE01.JPG,,,,,5,1,51,0,,,,,,,,,,,,,,,,,,,AFSA17.jpg,AFNE10.jpg,AFSA08.jpg,AFNE08.jpg,AFSA17.jpg,FS,4,num_8,32,num_2,1.83336380357,,,2017_Dec_12_1129,60.0057738987,MAFE4ImagesEEG,001,102502,
AFNE01.JPG,AFNE01.JPG,AFNE01.JPG,AFNE01.JPG,AFNE01.JPG,AFNE01.JPG,,,,,5,2,52,6,,,,,,,,,,,,,,,,,,,AFNE20.jpg,AFNE02.jpg,AFSA12.jpg,AFSA16.jpg,AFNE20.jpg,FN,3,num_8,16,num_8,1.18345640088,,,2017_Dec_12_1129,60.0057738987,MAFE4ImagesEEG,001,102502,
AFNE01.JPG,AFNE01.JPG,AFNE01.JPG,AFNE01.JPG,AFNE01.JPG,AFNE01.JPG,,,,,5,3,53,4,,,,,,,,,,,,,,,,,,,AFSA07.jpg,AFSA01.jpg,AFNE12.jpg,AFNE03.jpg,AFSA07.jpg,FS,4,num_8,32,num_2,1.43342577037,,,2017_Dec_12_1129,60.0057738987,MAFE4ImagesEEG,001,102502,
AFNE01.JPG,AFNE01.JPG,AFNE01.JPG,AFNE01.JPG,AFNE01.JPG,AFNE01.JPG,,,,,5,4,54,7,,,,,,,,,,,,,,,,,,,AFNE05.jpg,AFSA10.jpg,AFNE09.jpg,AFSA02.jpg,AFNE05.jpg,FN,3,num_8,16,num_8,1.10015113233,,,2017_Dec_12_1129,60.0057738987,MAFE4ImagesEEG,001,102502,
AFNE01.JPG,AFNE01.JPG,AFNE01.JPG,AFNE01.JPG,AFNE01.JPG,AFNE01.JPG,,,,,5,5,55,2,,,,,,,,,,,,,,,,,,,AFSA02.jpg,AFSA16.jpg,AFNE07.jpg,AFNE09.jpg,AFNE07.jpg,FN,3,num_2,32,num_8,0.883447227767,,,2017_Dec_12_1129,60.0057738987,MAFE4ImagesEEG,001,102502,
AFNE01.JPG,AFNE01.JPG,AFNE01.JPG,AFNE01.JPG,AFNE01.JPG,AFNE01.JPG,,,,,5,6,56,9,,,,,,,,,,,,,,,,,,,AFSA11.jpg,AFNE06.jpg,AFSA02.jpg,AFNE16.jpg,AFNE16.jpg,FN,3,num_4,16,num_4,1.11679268512,,,2017_Dec_12_1129,60.0057738987,MAFE4ImagesEEG,001,102502,
AFNE01.JPG,AFNE01.JPG,AFNE01.JPG,AFNE01.JPG,AFNE01.JPG,AFNE01.JPG,,,,,5,7,57,3,,,,,,,,,,,,,,,,,,,AFNE04.jpg,AFSA04.jpg,AFSA01.jpg,AFNE09.jpg,AFNE09.jpg,FN,3,num_4,32,num_6,0.700389184989,,,2017_Dec_12_1129,60.0057738987,MAFE4ImagesEEG,001,102502,
AFNE01.JPG,AFNE01.JPG,AFNE01.JPG,AFNE01.JPG,AFNE01.JPG,AFNE01.JPG,,,,,5,8,58,8,,,,,,,,,,,,,,,,,,,AFNE04.jpg,AFSA20.jpg,AFNE18.jpg,AFSA11.jpg,AFNE18.jpg,FN,3,num_2,32,num_8,0.700197062222,,,2017_Dec_12_1129,60.0057738987,MAFE4ImagesEEG,001,102502,
AFNE01.JPG,AFNE01.JPG,AFNE01.JPG,AFNE01.JPG,AFNE01.JPG,AFNE01.JPG,,,,,5,9,59,1,,,,,,,,,,,,,,,,,,,AFNE15.jpg,AFNE16.jpg,AFSA03.jpg,AFSA17.jpg,AFNE16.jpg,FN,3,num_6,32,num_2,1.38345684996,,,2017_Dec_12_1129,60.0057738987,MAFE4ImagesEEG,001,102502,
,,,,,,,,,,,,,,,,,,,,,,,,,,,,,,,,,,,,,,,,,,,space,24.4148851207,2017_Dec_12_1129,60.0057738987,MAFE4ImagesEEG,001,102502,
AFNE01.JPG,AFNE01.JPG,AFNE01.JPG,AFNE01.JPG,AFNE01.JPG,AFNE01.JPG,,,,,,,,,0,0,0,7,,,,,,,,,,,,,,,AMSA15.jpg,AMNE06.jpg,AMSA16.jpg,AMNE17.jpg,AMNE17.jpg,MN,1,num_4,32,num_6,0.799858105136,,,2017_Dec_12_1129,60.0057738987,MAFE4ImagesEEG,001,102502,
AFNE01.JPG,AFNE01.JPG,AFNE01.JPG,AFNE01.JPG,AFNE01.JPG,AFNE01.JPG,,,,,,,,,0,1,1,0,,,,,,,,,,,,,,,AMNE14.jpg,AMNE06.jpg,AMSA13.jpg,AMSA07.jpg,AMNE14.jpg,MN,1,num_8,16,num_8,0.616819947958,,,2017_Dec_12_1129,60.0057738987,MAFE4ImagesEEG,001,102502,
AFNE01.JPG,AFNE01.JPG,AFNE01.JPG,AFNE01.JPG,AFNE01.JPG,AFNE01.JPG,,,,,,,,,0,2,2,9,,,,,,,,,,,,,,,AMSA05.jpg,AMSA02.jpg,AMNE17.jpg,AMNE06.jpg,AMNE06.jpg,MN,1,num_4,32,num_2,1.31658529514,,,2017_Dec_12_1129,60.0057738987,MAFE4ImagesEEG,001,102502,
AFNE01.JPG,AFNE01.JPG,AFNE01.JPG,AFNE01.JPG,AFNE01.JPG,AFNE01.JPG,,,,,,,,,0,3,3,2,,,,,,,,,,,,,,,AMNE07.jpg,AMNE13.jpg,AMSA20.jpg,AMSA15.jpg,AMSA15.jpg,MS,2,num_4,16,num_4,0.616796534043,,,2017_Dec_12_1129,60.0057738987,MAFE4ImagesEEG,001,102502,
AFNE01.JPG,AFNE01.JPG,AFNE01.JPG,AFNE01.JPG,AFNE01.JPG,AFNE01.JPG,,,,,,,,,0,4,4,8,,,,,,,,,,,,,,,AMNE08.jpg,AMSA03.jpg,AMNE17.jpg,AMSA17.jpg,AMSA03.jpg,MS,2,num_6,16,num_6,0.733344495064,,,2017_Dec_12_1129,60.0057738987,MAFE4ImagesEEG,001,102502,
AFNE01.JPG,AFNE01.JPG,AFNE01.JPG,AFNE01.JPG,AFNE01.JPG,AFNE01.JPG,,,,,,,,,0,5,5,5,,,,,,,,,,,,,,,AMSA19.jpg,AMSA13.jpg,AMNE17.jpg,AMNE13.jpg,AMSA19.jpg,MS,2,num_8,32,num_6,1.08341528219,,,2017_Dec_12_1129,60.0057738987,MAFE4ImagesEEG,001,102502,
AFNE01.JPG,AFNE01.JPG,AFNE01.JPG,AFNE01.JPG,AFNE01.JPG,AFNE01.JPG,,,,,,,,,0,6,6,6,,,,,,,,,,,,,,,AMNE15.jpg,AMNE20.jpg,AMSA05.jpg,AMSA15.jpg,AMNE15.jpg,MN,1,num_8,16,num_8,0.533531998983,,,2017_Dec_12_1129,60.0057738987,MAFE4ImagesEEG,001,102502,
AFNE01.JPG,AFNE01.JPG,AFNE01.JPG,AFNE01.JPG,AFNE01.JPG,AFNE01.JPG,,,,,,,,,0,7,7,1,,,,,,,,,,,,,,,AMNE09.jpg,AMSA04.jpg,AMSA18.jpg,AMNE02.jpg,AMNE02.jpg,MN,1,num_4,32,num_8,1.06675865455,,,2017_Dec_12_1129,60.0057738987,MAFE4ImagesEEG,001,102502,
AFNE01.JPG,AFNE01.JPG,AFNE01.JPG,AFNE01.JPG,AFNE01.JPG,AFNE01.JPG,,,,,,,,,0,8,8,4,,,,,,,,,,,,,,,AMNE05.jpg,AMSA12.jpg,AMNE03.jpg,AMSA01.jpg,AMNE05.jpg,MN,1,num_8,32,num_2,1.33343468676,,,2017_Dec_12_1129,60.0057738987,MAFE4ImagesEEG,001,102502,
AFNE01.JPG,AFNE01.JPG,AFNE01.JPG,AFNE01.JPG,AFNE01.JPG,AFNE01.JPG,,,,,,,,,0,9,9,3,,,,,,,,,,,,,,,AMSA10.jpg,AMSA08.jpg,AMNE09.jpg,AMNE17.jpg,AMNE17.jpg,MN,1,num_4,16,num_4,1.75009092945,,,2017_Dec_12_1129,60.0057738987,MAFE4ImagesEEG,001,102502,
AFNE01.JPG,AFNE01.JPG,AFNE01.JPG,AFNE01.JPG,AFNE01.JPG,AFNE01.JPG,,,,,,,,,1,0,10,4,,,,,,,,,,,,,,,AMSA05.jpg,AMNE01.jpg,AMSA11.jpg,AMNE16.jpg,AMSA05.jpg,MS,2,num_8,32,num_2,1.36670817016,,,2017_Dec_12_1129,60.0057738987,MAFE4ImagesEEG,001,102502,
AFNE01.JPG,AFNE01.JPG,AFNE01.JPG,AFNE01.JPG,AFNE01.JPG,AFNE01.JPG,,,,,,,,,1,1,11,7,,,,,,,,,,,,,,,AMSA09.jpg,AMNE03.jpg,AMSA02.jpg,AMNE11.jpg,AMSA09.jpg,MS,2,num_8,32,num_2,1.08318627439,,,2017_Dec_12_1129,60.0057738987,MAFE4ImagesEEG,001,102502,
AFNE01.JPG,AFNE01.JPG,AFNE01.JPG,AFNE01.JPG,AFNE01.JPG,AFNE01.JPG,,,,,,,,,1,2,12,3,,,,,,,,,,,,,,,AMNE07.jpg,AMSA07.jpg,AMNE06.jpg,AMSA04.jpg,AMNE07.jpg,MN,1,num_8,32,num_6,0.883473849157,,,2017_Dec_12_1129,60.0057738987,MAFE4ImagesEEG,001,102502,
AFNE01.JPG,AFNE01.JPG,AFNE01.JPG,AFNE01.JPG,AFNE01.JPG,AFNE01.JPG,,,,,,,,,1,3,13,0,,,,,,,,,,,,,,,AMSA07.jpg,AMSA09.jpg,AMNE07.jpg,AMNE06.jpg,AMSA09.jpg,MS,2,num_6,32,num_8,0.900134004885,,,2017_Dec_12_1129,60.0057738987,MAFE4ImagesEEG,001,102502,
AFNE01.JPG,AFNE01.JPG,AFNE01.JPG,AFNE01.JPG,AFNE01.JPG,AFNE01.JPG,,,,,,,,,1,4,14,6,,,,,,,,,,,,,,,AMNE18.jpg,AMNE01.jpg,AMSA13.jpg,AMSA03.jpg,AMSA13.jpg,MS,2,num_2,16,num_2,1.30017307098,,,2017_Dec_12_1129,60.0057738987,MAFE4ImagesEEG,001,102502,
AFNE01.JPG,AFNE01.JPG,AFNE01.JPG,AFNE01.JPG,AFNE01.JPG,AFNE01.JPG,,,,,,,,,1,5,15,9,,,,,,,,,,,,,,,AMSA03.jpg,AMSA09.jpg,AMNE04.jpg,AMNE11.jpg,AMSA03.jpg,MS,2,num_8,32,num_6,0.933518463979,,,2017_Dec_12_1129,60.0057738987,MAFE4ImagesEEG,001,102502,
AFNE01.JPG,AFNE01.JPG,AFNE01.JPG,AFNE01.JPG,AFNE01.JPG,AFNE01.JPG,,,,,,,,,1,6,16,2,,,,,,,,,,,,,,,AMNE17.jpg,AMSA08.jpg,AMSA17.jpg,AMNE10.jpg,AMNE10.jpg,MN,1,num_4,32,num_8,1.03343513585,,,2017_Dec_12_1129,60.0057738987,MAFE4ImagesEEG,001,102502,
AFNE01.JPG,AFNE01.JPG,AFNE01.JPG,AFNE01.JPG,AFNE01.JPG,AFNE01.JPG,,,,,,,,,1,7,17,8,,,,,,,,,,,,,,,AMNE20.jpg,AMSA05.jpg,AMSA02.jpg,AMNE18.jpg,AMNE20.jpg,MN,1,num_8,32,num_4,0.516788451234,,,2017_Dec_12_1129,60.0057738987,MAFE4ImagesEEG,001,102502,
AFNE01.JPG,AFNE01.JPG,AFNE01.JPG,AFNE01.JPG,AFNE01.JPG,AFNE01.JPG,,,,,,,,,1,8,18,1,,,,,,,,,,,,,,,AMNE12.jpg,AMSA16.jpg,AMSA02.jpg,AMNE20.jpg,AMSA16.jpg,MS,2,num_6,16,num_6,1.00008050562,,,2017_Dec_12_1129,60.0057738987,MAFE4ImagesEEG,001,102502,
AFNE01.JPG,AFNE01.JPG,AFNE01.JPG,AFNE01.JPG,AFNE01.JPG,AFNE01.JPG,,,,,,,,,1,9,19,5,,,,,,,,,,,,,,,AMSA16.jpg,AMSA09.jpg,AMNE15.jpg,AMNE19.jpg,AMNE15.jpg,MN,1,num_2,32,num_8,0.500156520633,,,2017_Dec_12_1129,60.0057738987,MAFE4ImagesEEG,001,102502,
AFNE01.JPG,AFNE01.JPG,AFNE01.JPG,AFNE01.JPG,AFNE01.JPG,AFNE01.JPG,,,,,,,,,2,0,20,8,,,,,,,,,,,,,,,AMSA06.jpg,AMNE08.jpg,AMNE09.jpg,AMSA02.jpg,AMSA06.jpg,MS,2,num_8,32,num_4,0.700146385469,,,2017_Dec_12_1129,60.0057738987,MAFE4ImagesEEG,001,102502,
AFNE01.JPG,AFNE01.JPG,AFNE01.JPG,AFNE01.JPG,AFNE01.JPG,AFNE01.JPG,,,,,,,,,2,1,21,0,,,,,,,,,,,,,,,AMNE18.jpg,AMNE12.jpg,AMSA13.jpg,AMSA09.jpg,AMNE18.jpg,MN,1,num_8,16,num_8,0.650118128397,,,2017_Dec_12_1129,60.0057738987,MAFE4ImagesEEG,001,102502,
AFNE01.JPG,AFNE01.JPG,AFNE01.JPG,AFNE01.JPG,AFNE01.JPG,AFNE01.JPG,,,,,,,,,2,2,22,3,,,,,,,,,,,,,,,AMNE06.jpg,AMNE13.jpg,AMSA01.jpg,AMSA06.jpg,AMNE13.jpg,MN,1,num_6,16,num_6,0.716803012881,,,2017_Dec_12_1129,60.0057738987,MAFE4ImagesEEG,001,102502,
AFNE01.JPG,AFNE01.JPG,AFNE01.JPG,AFNE01.JPG,AFNE01.JPG,AFNE01.JPG,,,,,,,,,2,3,23,1,,,,,,,,,,,,,,,AMSA05.jpg,AMSA06.jpg,AMNE15.jpg,AMNE11.jpg,AMNE11.jpg,MN,1,num_4,32,num_8,0.850225383416,,,2017_Dec_12_1129,60.0057738987,MAFE4ImagesEEG,001,102502,
AFNE01.JPG,AFNE01.JPG,AFNE01.JPG,AFNE01.JPG,AFNE01.JPG,AFNE01.JPG,,,,,,,,,2,4,24,5,,,,,,,,,,,,,,,AMSA06.jpg,AMNE17.jpg,AMNE08.jpg,AMSA02.jpg,AMNE08.jpg,MN,1,num_2,32,num_8,0.983455310576,,,2017_Dec_12_1129,60.0057738987,MAFE4ImagesEEG,001,102502,
AFNE01.JPG,AFNE01.JPG,AFNE01.JPG,AFNE01.JPG,AFNE01.JPG,AFNE01.JPG,,,,,,,,,2,5,25,4,,,,,,,,,,,,,,,AMSA09.jpg,AMNE11.jpg,AMSA08.jpg,AMNE03.jpg,AMSA08.jpg,MS,2,num_2,16,num_2,0.666775397258,,,2017_Dec_12_1129,60.0057738987,MAFE4ImagesEEG,001,102502,
AFNE01.JPG,AFNE01.JPG,AFNE01.JPG,AFNE01.JPG,AFNE01.JPG,AFNE01.JPG,,,,,,,,,2,6,26,2,,,,,,,,,,,,,,,AMNE12.jpg,AMSA02.jpg,AMNE10.jpg,AMSA18.jpg,AMSA02.jpg,MS,2,num_6,16,num_6,1.05010523438,,,2017_Dec_12_1129,60.0057738987,MAFE4ImagesEEG,001,102502,
AFNE01.JPG,AFNE01.JPG,AFNE01.JPG,AFNE01.JPG,AFNE01.JPG,AFNE01.JPG,,,,,,,,,2,7,27,7,,,,,,,,,,,,,,,AMNE03.jpg,AMSA15.jpg,AMSA16.jpg,AMNE08.jpg,AMSA15.jpg,MS,2,num_6,32,num_2,1.20014221594,,,2017_Dec_12_1129,60.0057738987,MAFE4ImagesEEG,001,102502,
AFNE01.JPG,AFNE01.JPG,AFNE01.JPG,AFNE01.JPG,AFNE01.JPG,AFNE01.JPG,,,,,,,,,2,8,28,9,,,,,,,,,,,,,,,AMNE02.jpg,AMSA16.jpg,AMSA13.jpg,AMNE10.jpg,AMSA16.jpg,MS,2,num_6,16,num_6,0.483476479305,,,2017_Dec_12_1129,60.0057738987,MAFE4ImagesEEG,001,102502,
AFNE01.JPG,AFNE01.JPG,AFNE01.JPG,AFNE01.JPG,AFNE01.JPG,AFNE01.JPG,,,,,,,,,2,9,29,6,,,,,,,,,,,,,,,AMSA01.jpg,AMNE02.jpg,AMNE15.jpg,AMSA08.jpg,AMSA01.jpg,MS,2,num_8,32,num_6,0.583490014309,,,2017_Dec_12_1129,60.0057738987,MAFE4ImagesEEG,001,102502,
AFNE01.JPG,AFNE01.JPG,AFNE01.JPG,AFNE01.JPG,AFNE01.JPG,AFNE01.JPG,,,,,,,,,3,0,30,6,,,,,,,,,,,,,,,AMSA03.jpg,AMNE06.jpg,AMNE16.jpg,AMSA19.jpg,AMSA19.jpg,MS,2,num_4,16,num_4,0.850153217092,,,2017_Dec_12_1129,60.0057738987,MAFE4ImagesEEG,001,102502,
AFNE01.JPG,AFNE01.JPG,AFNE01.JPG,AFNE01.JPG,AFNE01.JPG,AFNE01.JPG,,,,,,,,,3,1,31,2,,,,,,,,,,,,,,,AMSA18.jpg,AMNE03.jpg,AMNE19.jpg,AMSA12.jpg,AMNE03.jpg,MN,1,num_6,16,num_6,0.700196099933,,,2017_Dec_12_1129,60.0057738987,MAFE4ImagesEEG,001,102502,
AFNE01.JPG,AFNE01.JPG,AFNE01.JPG,AFNE01.JPG,AFNE01.JPG,AFNE01.JPG,,,,,,,,,3,2,32,7,,,,,,,,,,,,,,,AMNE04.jpg,AMSA14.jpg,AMSA08.jpg,AMNE15.jpg,AMSA14.jpg,MS,2,num_6,32,num_4,0.883450114401,,,2017_Dec_12_1129,60.0057738987,MAFE4ImagesEEG,001,102502,
AFNE01.JPG,AFNE01.JPG,AFNE01.JPG,AFNE01.JPG,AFNE01.JPG,AFNE01.JPG,,,,,,,,,3,3,33,3,,,,,,,,,,,,,,,AMSA14.jpg,AMNE05.jpg,AMSA15.jpg,AMNE14.jpg,AMNE14.jpg,MN,1,num_4,32,num_6,0.733443603385,,,2017_Dec_12_1129,60.0057738987,MAFE4ImagesEEG,001,102502,
AFNE01.JPG,AFNE01.JPG,AFNE01.JPG,AFNE01.JPG,AFNE01.JPG,AFNE01.JPG,,,,,,,,,3,4,34,9,,,,,,,,,,,,,,,AMSA13.jpg,AMNE17.jpg,AMNE10.jpg,AMSA12.jpg,AMNE17.jpg,MN,1,num_6,32,num_8,1.59975694376,,,2017_Dec_12_1129,60.0057738987,MAFE4ImagesEEG,001,102502,
AFNE01.JPG,AFNE01.JPG,AFNE01.JPG,AFNE01.JPG,AFNE01.JPG,AFNE01.JPG,,,,,,,,,3,5,35,0,,,,,,,,,,,,,,,AMNE11.jpg,AMSA04.jpg,AMNE08.jpg,AMSA15.jpg,AMSA04.jpg,MS,2,num_6,32,num_2,2.01675284933,,,2017_Dec_12_1129,60.0057738987,MAFE4ImagesEEG,001,102502,
AFNE01.JPG,AFNE01.JPG,AFNE01.JPG,AFNE01.JPG,AFNE01.JPG,AFNE01.JPG,,,,,,,,,3,6,36,1,,,,,,,,,,,,,,,AMSA11.jpg,AMNE14.jpg,AMSA19.jpg,AMNE13.jpg,AMNE13.jpg,MN,1,num_4,16,num_4,0.933427694952,,,2017_Dec_12_1129,60.0057738987,MAFE4ImagesEEG,001,102502,
AFNE01.JPG,AFNE01.JPG,AFNE01.JPG,AFNE01.JPG,AFNE01.JPG,AFNE01.JPG,,,,,,,,,3,7,37,4,,,,,,,,,,,,,,,AMNE16.jpg,AMSA16.jpg,AMNE19.jpg,AMSA10.jpg,AMSA10.jpg,MS,2,num_4,16,num_4,0.850147443591,,,2017_Dec_12_1129,60.0057738987,MAFE4ImagesEEG,001,102502,
AFNE01.JPG,AFNE01.JPG,AFNE01.JPG,AFNE01.JPG,AFNE01.JPG,AFNE01.JPG,,,,,,,,,3,8,38,8,,,,,,,,,,,,,,,AMSA20.jpg,AMSA16.jpg,AMNE04.jpg,AMNE15.jpg,AMSA16.jpg,MS,2,num_6,16,num_6,0.700101161143,,,2017_Dec_12_1129,60.0057738987,MAFE4ImagesEEG,001,102502,
AFNE01.JPG,AFNE01.JPG,AFNE01.JPG,AFNE01.JPG,AFNE01.JPG,AFNE01.JPG,,,,,,,,,3,9,39,5,,,,,,,,,,,,,,,AMNE19.jpg,AMSA09.jpg,AMNE01.jpg,AMSA16.jpg,AMNE01.jpg,MN,1,num_2,32,num_8,0.650126467459,,,2017_Dec_12_1129,60.0057738987,MAFE4ImagesEEG,001,102502,
AFNE01.JPG,AFNE01.JPG,AFNE01.JPG,AFNE01.JPG,AFNE01.JPG,AFNE01.JPG,,,,,,,,,4,0,40,5,,,,,,,,,,,,,,,AMNE07.jpg,AMSA11.jpg,AMNE16.jpg,AMSA14.jpg,AMSA11.jpg,MS,2,num_6,32,num_2,1.23341954802,,,2017_Dec_12_1129,60.0057738987,MAFE4ImagesEEG,001,102502,
AFNE01.JPG,AFNE01.JPG,AFNE01.JPG,AFNE01.JPG,AFNE01.JPG,AFNE01.JPG,,,,,,,,,4,1,41,0,,,,,,,,,,,,,,,AMSA20.jpg,AMSA03.jpg,AMNE07.jpg,AMNE16.jpg,AMSA20.jpg,MS,2,num_8,16,num_8,0.666761926142,,,2017_Dec_12_1129,60.0057738987,MAFE4ImagesEEG,001,102502,
AFNE01.JPG,AFNE01.JPG,AFNE01.JPG,AFNE01.JPG,AFNE01.JPG,AFNE01.JPG,,,,,,,,,4,2,42,2,,,,,,,,,,,,,,,AMNE03.jpg,AMSA16.jpg,AMNE19.jpg,AMSA20.jpg,AMSA16.jpg,MS,2,num_6,16,num_6,0.533606410492,,,2017_Dec_12_1129,60.0057738987,MAFE4ImagesEEG,001,102502,
AFNE01.JPG,AFNE01.JPG,AFNE01.JPG,AFNE01.JPG,AFNE01.JPG,AFNE01.JPG,,,,,,,,,4,3,43,3,,,,,,,,,,,,,,,AMSA20.jpg,AMNE08.jpg,AMSA17.jpg,AMNE20.jpg,AMSA20.jpg,MS,2,num_8,32,num_2,1.40008878056,,,2017_Dec_12_1129,60.0057738987,MAFE4ImagesEEG,001,102502,
AFNE01.JPG,AFNE01.JPG,AFNE01.JPG,AFNE01.JPG,AFNE01.JPG,AFNE01.JPG,,,,,,,,,4,4,44,1,,,,,,,,,,,,,,,AMNE14.jpg,AMSA04.jpg,AMNE12.jpg,AMSA14.jpg,AMNE14.jpg,MN,1,num_8,16,num_8,0.816816868726,,,2017_Dec_12_1129,60.0057738987,MAFE4ImagesEEG,001,102502,
AFNE01.JPG,AFNE01.JPG,AFNE01.JPG,AFNE01.JPG,AFNE01.JPG,AFNE01.JPG,,,,,,,,,4,5,45,9,,,,,,,,,,,,,,,AMNE17.jpg,AMNE05.jpg,AMSA07.jpg,AMSA09.jpg,AMNE05.jpg,MN,1,num_6,16,num_6,0.900099365041,,,2017_Dec_12_1129,60.0057738987,MAFE4ImagesEEG,001,102502,
AFNE01.JPG,AFNE01.JPG,AFNE01.JPG,AFNE01.JPG,AFNE01.JPG,AFNE01.JPG,,,,,,,,,4,6,46,7,,,,,,,,,,,,,,,AMNE02.jpg,AMSA08.jpg,AMSA17.jpg,AMNE04.jpg,AMSA17.jpg,MS,2,num_2,16,num_2,1.16677956702,,,2017_Dec_12_1129,60.0057738987,MAFE4ImagesEEG,001,102502,
AFNE01.JPG,AFNE01.JPG,AFNE01.JPG,AFNE01.JPG,AFNE01.JPG,AFNE01.JPG,,,,,,,,,4,7,47,6,,,,,,,,,,,,,,,AMNE10.jpg,AMSA19.jpg,AMNE07.jpg,AMSA02.jpg,AMNE07.jpg,MN,1,num_2,32,num_8,1.58345858194,,,2017_Dec_12_1129,60.0057738987,MAFE4ImagesEEG,001,102502,
AFNE01.JPG,AFNE01.JPG,AFNE01.JPG,AFNE01.JPG,AFNE01.JPG,AFNE01.JPG,,,,,,,,,4,8,48,8,,,,,,,,,,,,,,,AMNE01.jpg,AMSA05.jpg,AMNE16.jpg,AMSA13.jpg,AMNE01.jpg,MN,1,num_8,32,num_6,0.733618085738,,,2017_Dec_12_1129,60.0057738987,MAFE4ImagesEEG,001,102502,
AFNE01.JPG,AFNE01.JPG,AFNE01.JPG,AFNE01.JPG,AFNE01.JPG,AFNE01.JPG,,,,,,,,,4,9,49,4,,,,,,,,,,,,,,,AMSA14.jpg,AMNE01.jpg,AMNE20.jpg,AMSA20.jpg,AMSA14.jpg,MS,2,num_8,16,num_8,0.550157194259,,,2017_Dec_12_1129,60.0057738987,MAFE4ImagesEEG,001,102502,
AFNE01.JPG,AFNE01.JPG,AFNE01.JPG,AFNE01.JPG,AFNE01.JPG,AFNE01.JPG,,,,,,,,,5,0,50,5,,,,,,,,,,,,,,,AMSA05.jpg,AMNE03.jpg,AMNE11.jpg,AMSA15.jpg,AMNE03.jpg,MN,1,num_6,32,num_2,1.05010683811,,,2017_Dec_12_1129,60.0057738987,MAFE4ImagesEEG,001,102502,
AFNE01.JPG,AFNE01.JPG,AFNE01.JPG,AFNE01.JPG,AFNE01.JPG,AFNE01.JPG,,,,,,,,,5,1,51,8,,,,,,,,,,,,,,,AMNE08.jpg,AMSA10.jpg,AMSA19.jpg,AMNE15.jpg,AMSA10.jpg,MS,2,num_6,16,num_6,0.666776680155,,,2017_Dec_12_1129,60.0057738987,MAFE4ImagesEEG,001,102502,
AFNE01.JPG,AFNE01.JPG,AFNE01.JPG,AFNE01.JPG,AFNE01.JPG,AFNE01.JPG,,,,,,,,,5,2,52,1,,,,,,,,,,,,,,,AMSA08.jpg,AMSA12.jpg,AMNE15.jpg,AMNE07.jpg,AMSA08.jpg,MS,2,num_8,16,num_8,0.866771997418,,,2017_Dec_12_1129,60.0057738987,MAFE4ImagesEEG,001,102502,
AFNE01.JPG,AFNE01.JPG,AFNE01.JPG,AFNE01.JPG,AFNE01.JPG,AFNE01.JPG,,,,,,,,,5,3,53,9,,,,,,,,,,,,,,,AMNE01.jpg,AMSA04.jpg,AMSA14.jpg,AMNE17.jpg,AMNE01.jpg,MN,1,num_8,32,num_6,0.700162743218,,,2017_Dec_12_1129,60.0057738987,MAFE4ImagesEEG,001,102502,
AFNE01.JPG,AFNE01.JPG,AFNE01.JPG,AFNE01.JPG,AFNE01.JPG,AFNE01.JPG,,,,,,,,,5,4,54,7,,,,,,,,,,,,,,,AMSA20.jpg,AMSA12.jpg,AMNE06.jpg,AMNE05.jpg,AMNE06.jpg,MN,1,num_2,32,num_8,0.966747043887,,,2017_Dec_12_1129,60.0057738987,MAFE4ImagesEEG,001,102502,
AFNE01.JPG,AFNE01.JPG,AFNE01.JPG,AFNE01.JPG,AFNE01.JPG,AFNE01.JPG,,,,,,,,,5,5,55,2,,,,,,,,,,,,,,,AMNE09.jpg,AMSA06.jpg,AMSA11.jpg,AMNE18.jpg,AMSA06.jpg,MS,2,num_6,32,num_4,1.18345575943,,,2017_Dec_12_1129,60.0057738987,MAFE4ImagesEEG,001,102502,
AFNE01.JPG,AFNE01.JPG,AFNE01.JPG,AFNE01.JPG,AFNE01.JPG,AFNE01.JPG,,,,,,,,,5,6,56,3,,,,,,,,,,,,,,,AMNE15.jpg,AMSA05.jpg,AMSA13.jpg,AMNE02.jpg,AMNE15.jpg,MN,1,num_8,32,num_6,1.4998049906,,,2017_Dec_12_1129,60.0057738987,MAFE4ImagesEEG,001,102502,
AFNE01.JPG,AFNE01.JPG,AFNE01.JPG,AFNE01.JPG,AFNE01.JPG,AFNE01.JPG,,,,,,,,,5,7,57,6,,,,,,,,,,,,,,,AMSA03.jpg,AMSA19.jpg,AMNE16.jpg,AMNE08.jpg,AMNE08.jpg,MN,1,num_4,16,num_4,1.86670624604,,,2017_Dec_12_1129,60.0057738987,MAFE4ImagesEEG,001,102502,
AFNE01.JPG,AFNE01.JPG,AFNE01.JPG,AFNE01.JPG,AFNE01.JPG,AFNE01.JPG,,,,,,,,,5,8,58,0,,,,,,,,,,,,,,,AMNE14.jpg,AMNE08.jpg,AMSA12.jpg,AMSA01.jpg,AMSA01.jpg,MS,2,num_4,32,num_6,4.1834929653,,,2017_Dec_12_1129,60.0057738987,MAFE4ImagesEEG,001,102502,
AFNE01.JPG,AFNE01.JPG,AFNE01.JPG,AFNE01.JPG,AFNE01.JPG,AFNE01.JPG,,,,,,,,,5,9,59,4,,,,,,,,,,,,,,,AMNE12.jpg,AMSA11.jpg,AMSA01.jpg,AMNE07.jpg,AMNE07.jpg,MN,1,num_4,32,num_8,0.833498834865,,,2017_Dec_12_1129,60.0057738987,MAFE4ImagesEEG,001,102502,
,,,,,,,,,,,,,,,,,,,,,,,,,,,,,,,,,,,,,,,,,,,space,28.364600593,2017_Dec_12_1129,60.0057738987,MAFE4ImagesEEG,001,102502,
AFNE01.JPG,AFNE01.JPG,AFNE01.JPG,AFNE01.JPG,AFNE01.JPG,AFNE01.JPG,,,,,,,,,,,,,0,0,0,7,,,,,,,,,,,AFNE01.jpg,AFNE14.jpg,AFSA13.jpg,AFSA20.jpg,AFNE01.jpg,FN,3,num_8,32,num_4,0.68347628694,,,2017_Dec_12_1129,60.0057738987,MAFE4ImagesEEG,001,102502,
AFNE01.JPG,AFNE01.JPG,AFNE01.JPG,AFNE01.JPG,AFNE01.JPG,AFNE01.JPG,,,,,,,,,,,,,0,1,1,2,,,,,,,,,,,AFNE18.jpg,AFNE04.jpg,AFSA03.jpg,AFSA04.jpg,AFNE04.jpg,FN,3,num_6,16,num_6,0.683430421166,,,2017_Dec_12_1129,60.0057738987,MAFE4ImagesEEG,001,102502,
AFNE01.JPG,AFNE01.JPG,AFNE01.JPG,AFNE01.JPG,AFNE01.JPG,AFNE01.JPG,,,,,,,,,,,,,0,2,2,0,,,,,,,,,,,AFNE09.jpg,AFSA15.jpg,AFSA13.jpg,AFNE05.jpg,AFNE05.jpg,FN,3,num_4,32,num_6,0.700165308779,,,2017_Dec_12_1129,60.0057738987,MAFE4ImagesEEG,001,102502,
AFNE01.JPG,AFNE01.JPG,AFNE01.JPG,AFNE01.JPG,AFNE01.JPG,AFNE01.JPG,,,,,,,,,,,,,0,3,3,8,,,,,,,,,,,AFNE06.jpg,AFSA20.jpg,AFSA03.jpg,AFNE04.jpg,AFSA20.jpg,FS,4,num_6,32,num_8,1.1334608593,,,2017_Dec_12_1129,60.0057738987,MAFE4ImagesEEG,001,102502,
AFNE01.JPG,AFNE01.JPG,AFNE01.JPG,AFNE01.JPG,AFNE01.JPG,AFNE01.JPG,,,,,,,,,,,,,0,4,4,1,,,,,,,,,,,AFSA13.jpg,AFSA16.jpg,AFNE03.jpg,AFNE12.jpg,AFSA16.jpg,FS,4,num_6,32,num_2,1.29974809149,,,2017_Dec_12_1129,60.0057738987,MAFE4ImagesEEG,001,102502,
AFNE01.JPG,AFNE01.JPG,AFNE01.JPG,AFNE01.JPG,AFNE01.JPG,AFNE01.JPG,,,,,,,,,,,,,0,5,5,9,,,,,,,,,,,AFNE20.jpg,AFNE04.jpg,AFSA18.jpg,AFSA14.jpg,AFNE04.jpg,FN,3,num_6,32,num_8,1.25012717326,,,2017_Dec_12_1129,60.0057738987,MAFE4ImagesEEG,001,102502,
AFNE01.JPG,AFNE01.JPG,AFNE01.JPG,AFNE01.JPG,AFNE01.JPG,AFNE01.JPG,,,,,,,,,,,,,0,6,6,4,,,,,,,,,,,AFSA10.jpg,AFNE19.jpg,AFNE20.jpg,AFSA02.jpg,AFNE20.jpg,FN,3,num_2,16,num_2,1.26670746482,,,2017_Dec_12_1129,60.0057738987,MAFE4ImagesEEG,001,102502,
AFNE01.JPG,AFNE01.JPG,AFNE01.JPG,AFNE01.JPG,AFNE01.JPG,AFNE01.JPG,,,,,,,,,,,,,0,7,7,3,,,,,,,,,,,AFNE16.jpg,AFNE05.jpg,AFSA14.jpg,AFSA01.jpg,AFSA14.jpg,FS,4,num_2,32,num_4,0.98344183946,,,2017_Dec_12_1129,60.0057738987,MAFE4ImagesEEG,001,102502,
AFNE01.JPG,AFNE01.JPG,AFNE01.JPG,AFNE01.JPG,AFNE01.JPG,AFNE01.JPG,,,,,,,,,,,,,0,8,8,5,,,,,,,,,,,AFNE04.jpg,AFSA14.jpg,AFSA19.jpg,AFNE18.jpg,AFSA14.jpg,FS,4,num_6,16,num_6,0.783468011767,,,2017_Dec_12_1129,60.0057738987,MAFE4ImagesEEG,001,102502,
AFNE01.JPG,AFNE01.JPG,AFNE01.JPG,AFNE01.JPG,AFNE01.JPG,AFNE01.JPG,,,,,,,,,,,,,0,9,9,6,,,,,,,,,,,AFSA19.jpg,AFNE09.jpg,AFSA01.jpg,AFNE07.jpg,AFSA01.jpg,FS,4,num_2,16,num_2,1.06675448501,,,2017_Dec_12_1129,60.0057738987,MAFE4ImagesEEG,001,102502,
AFNE01.JPG,AFNE01.JPG,AFNE01.JPG,AFNE01.JPG,AFNE01.JPG,AFNE01.JPG,,,,,,,,,,,,,1,0,10,7,,,,,,,,,,,AFSA15.jpg,AFNE19.jpg,AFNE20.jpg,AFSA08.jpg,AFNE19.jpg,FN,3,num_6,32,num_8,1.08347782632,,,2017_Dec_12_1129,60.0057738987,MAFE4ImagesEEG,001,102502,
AFNE01.JPG,AFNE01.JPG,AFNE01.JPG,AFNE01.JPG,AFNE01.JPG,AFNE01.JPG,,,,,,,,,,,,,1,1,11,2,,,,,,,,,,,AFSA13.jpg,AFNE13.jpg,AFNE04.jpg,AFSA12.jpg,AFNE04.jpg,FN,3,num_2,32,num_4,0.700008788146,,,2017_Dec_12_1129,60.0057738987,MAFE4ImagesEEG,001,102502,
AFNE01.JPG,AFNE01.JPG,AFNE01.JPG,AFNE01.JPG,AFNE01.JPG,AFNE01.JPG,,,,,,,,,,,,,1,2,12,6,,,,,,,,,,,AFNE17.jpg,AFSA07.jpg,AFSA19.jpg,AFNE06.jpg,AFNE06.jpg,FN,3,num_4,32,num_6,0.866743451683,,,2017_Dec_12_1129,60.0057738987,MAFE4ImagesEEG,001,102502,
AFNE01.JPG,AFNE01.JPG,AFNE01.JPG,AFNE01.JPG,AFNE01.JPG,AFNE01.JPG,,,,,,,,,,,,,1,3,13,0,,,,,,,,,,,AFNE03.jpg,AFSA09.jpg,AFSA02.jpg,AFNE07.jpg,AFSA09.jpg,FS,4,num_6,32,num_4,1.30012688437,,,2017_Dec_12_1129,60.0057738987,MAFE4ImagesEEG,001,102502,
AFNE01.JPG,AFNE01.JPG,AFNE01.JPG,AFNE01.JPG,AFNE01.JPG,AFNE01.JPG,,,,,,,,,,,,,1,4,14,3,,,,,,,,,,,AFSA05.jpg,AFNE20.jpg,AFNE02.jpg,AFSA17.jpg,AFNE02.jpg,FN,3,num_2,32,num_6,0.533480360173,,,2017_Dec_12_1129,60.0057738987,MAFE4ImagesEEG,001,102502,
AFNE01.JPG,AFNE01.JPG,AFNE01.JPG,AFNE01.JPG,AFNE01.JPG,AFNE01.JPG,,,,,,,,,,,,,1,5,15,4,,,,,,,,,,,AFNE06.jpg,AFNE10.jpg,AFSA15.jpg,AFSA03.jpg,AFNE06.jpg,FN,3,num_8,16,num_8,0.500128616346,,,2017_Dec_12_1129,60.0057738987,MAFE4ImagesEEG,001,102502,
AFNE01.JPG,AFNE01.JPG,AFNE01.JPG,AFNE01.JPG,AFNE01.JPG,AFNE01.JPG,,,,,,,,,,,,,1,6,16,9,,,,,,,,,,,AFNE04.jpg,AFSA06.jpg,AFNE11.jpg,AFSA17.jpg,AFNE11.jpg,FN,3,num_2,32,num_4,0.550198890269,,,2017_Dec_12_1129,60.0057738987,MAFE4ImagesEEG,001,102502,
AFNE01.JPG,AFNE01.JPG,AFNE01.JPG,AFNE01.JPG,AFNE01.JPG,AFNE01.JPG,,,,,,,,,,,,,1,7,17,5,,,,,,,,,,,AFNE20.jpg,AFNE06.jpg,AFSA12.jpg,AFSA08.jpg,AFSA12.jpg,FS,4,num_2,32,num_6,0.400165437255,,,2017_Dec_12_1129,60.0057738987,MAFE4ImagesEEG,001,102502,
AFNE01.JPG,AFNE01.JPG,AFNE01.JPG,AFNE01.JPG,AFNE01.JPG,AFNE01.JPG,,,,,,,,,,,,,1,8,18,8,,,,,,,,,,,AFSA11.jpg,AFSA17.jpg,AFNE08.jpg,AFNE11.jpg,AFNE08.jpg,FN,3,num_2,32,num_4,0.716796918772,,,2017_Dec_12_1129,60.0057738987,MAFE4ImagesEEG,001,102502,
AFNE01.JPG,AFNE01.JPG,AFNE01.JPG,AFNE01.JPG,AFNE01.JPG,AFNE01.JPG,,,,,,,,,,,,,1,9,19,1,,,,,,,,,,,AFNE20.jpg,AFSA17.jpg,AFSA12.jpg,AFNE03.jpg,AFSA17.jpg,FS,4,num_6,16,num_6,0.533482284518,,,2017_Dec_12_1129,60.0057738987,MAFE4ImagesEEG,001,102502,
AFNE01.JPG,AFNE01.JPG,AFNE01.JPG,AFNE01.JPG,AFNE01.JPG,AFNE01.JPG,,,,,,,,,,,,,2,0,20,3,,,,,,,,,,,AFSA11.jpg,AFNE02.jpg,AFSA07.jpg,AFNE03.jpg,AFNE03.jpg,FN,3,num_4,32,num_8,0.550138270482,,,2017_Dec_12_1129,60.0057738987,MAFE4ImagesEEG,001,102502,
AFNE01.JPG,AFNE01.JPG,AFNE01.JPG,AFNE01.JPG,AFNE01.JPG,AFNE01.JPG,,,,,,,,,,,,,2,1,21,2,,,,,,,,,,,AFNE08.jpg,AFSA19.jpg,AFNE15.jpg,AFSA20.jpg,AFNE15.jpg,FN,3,num_2,32,num_4,0.900104817702,,,2017_Dec_12_1129,60.0057738987,MAFE4ImagesEEG,001,102502,
AFNE01.JPG,AFNE01.JPG,AFNE01.JPG,AFNE01.JPG,AFNE01.JPG,AFNE01.JPG,,,,,,,,,,,,,2,2,22,1,,,,,,,,,,,AFNE16.jpg,AFSA16.jpg,AFNE15.jpg,AFSA12.jpg,AFNE15.jpg,FN,3,num_2,32,num_8,0.633536553709,,,2017_Dec_12_1129,60.0057738987,MAFE4ImagesEEG,001,102502,
AFNE01.JPG,AFNE01.JPG,AFNE01.JPG,AFNE01.JPG,AFNE01.JPG,AFNE01.JPG,,,,,,,,,,,,,2,3,23,4,,,,,,,,,,,AFSA18.jpg,AFNE09.jpg,AFNE15.jpg,AFSA02.jpg,AFNE09.jpg,FN,3,num_6,16,num_6,0.883471603971,,,2017_Dec_12_1129,60.0057738987,MAFE4ImagesEEG,001,102502,
AFNE01.JPG,AFNE01.JPG,AFNE01.JPG,AFNE01.JPG,AFNE01.JPG,AFNE01.JPG,,,,,,,,,,,,,2,4,24,6,,,,,,,,,,,AFNE01.jpg,AFNE03.jpg,AFSA09.jpg,AFSA05.jpg,AFSA05.jpg,FS,4,num_4,16,num_4,1.46672523371,,,2017_Dec_12_1129,60.0057738987,MAFE4ImagesEEG,001,102502,
AFNE01.JPG,AFNE01.JPG,AFNE01.JPG,AFNE01.JPG,AFNE01.JPG,AFNE01.JPG,,,,,,,,,,,,,2,5,25,8,,,,,,,,,,,AFSA08.jpg,AFSA02.jpg,AFNE16.jpg,AFNE20.jpg,AFNE20.jpg,FN,3,num_4,32,num_6,1.01665438223,,,2017_Dec_12_1129,60.0057738987,MAFE4ImagesEEG,001,102502,
AFNE01.JPG,AFNE01.JPG,AFNE01.JPG,AFNE01.JPG,AFNE01.JPG,AFNE01.JPG,,,,,,,,,,,,,2,6,26,0,,,,,,,,,,,AFNE08.jpg,AFNE03.jpg,AFSA14.jpg,AFSA01.jpg,AFNE08.jpg,FN,3,num_8,32,num_4,0.800086792093,,,2017_Dec_12_1129,60.0057738987,MAFE4ImagesEEG,001,102502,
AFNE01.JPG,AFNE01.JPG,AFNE01.JPG,AFNE01.JPG,AFNE01.JPG,AFNE01.JPG,,,,,,,,,,,,,2,7,27,7,,,,,,,,,,,AFSA04.jpg,AFSA14.jpg,AFNE06.jpg,AFNE20.jpg,AFNE06.jpg,FN,3,num_2,32,num_6,1.20008961461,,,2017_Dec_12_1129,60.0057738987,MAFE4ImagesEEG,001,102502,
AFNE01.JPG,AFNE01.JPG,AFNE01.JPG,AFNE01.JPG,AFNE01.JPG,AFNE01.JPG,,,,,,,,,,,,,2,8,28,9,,,,,,,,,,,AFNE18.jpg,AFSA20.jpg,AFNE09.jpg,AFSA14.jpg,AFNE09.jpg,FN,3,num_2,32,num_8,1.13341691811,,,2017_Dec_12_1129,60.0057738987,MAFE4ImagesEEG,001,102502,
AFNE01.JPG,AFNE01.JPG,AFNE01.JPG,AFNE01.JPG,AFNE01.JPG,AFNE01.JPG,,,,,,,,,,,,,2,9,29,5,,,,,,,,,,,AFSA01.jpg,AFNE14.jpg,AFSA07.jpg,AFNE15.jpg,AFSA01.jpg,FS,4,num_8,32,num_2,1.66670772131,,,2017_Dec_12_1129,60.0057738987,MAFE4ImagesEEG,001,102502,
AFNE01.JPG,AFNE01.JPG,AFNE01.JPG,AFNE01.JPG,AFNE01.JPG,AFNE01.JPG,,,,,,,,,,,,,3,0,30,9,,,,,,,,,,,AFSA01.jpg,AFNE19.jpg,AFSA13.jpg,AFNE11.jpg,AFSA13.jpg,FS,4,num_2,16,num_2,1.68342304416,,,2017_Dec_12_1129,60.0057738987,MAFE4ImagesEEG,001,102502,
AFNE01.JPG,AFNE01.JPG,AFNE01.JPG,AFNE01.JPG,AFNE01.JPG,AFNE01.JPG,,,,,,,,,,,,,3,1,31,7,,,,,,,,,,,AFNE18.jpg,AFNE17.jpg,AFSA03.jpg,AFSA15.jpg,AFSA03.jpg,FS,4,num_2,16,num_2,1.38340392802,,,2017_Dec_12_1129,60.0057738987,MAFE4ImagesEEG,001,102502,
AFNE01.JPG,AFNE01.JPG,AFNE01.JPG,AFNE01.JPG,AFNE01.JPG,AFNE01.JPG,,,,,,,,,,,,,3,2,32,5,,,,,,,,,,,AFSA16.jpg,AFNE20.jpg,AFNE13.jpg,AFSA09.jpg,AFNE20.jpg,FN,3,num_6,32,num_8,0.800127846655,,,2017_Dec_12_1129,60.0057738987,MAFE4ImagesEEG,001,102502,
AFNE01.JPG,AFNE01.JPG,AFNE01.JPG,AFNE01.JPG,AFNE01.JPG,AFNE01.JPG,,,,,,,,,,,,,3,3,33,2,,,,,,,,,,,AFNE20.jpg,AFSA02.jpg,AFNE12.jpg,AFSA04.jpg,AFSA04.jpg,FS,4,num_4,32,num_6,0.766816836549,,,2017_Dec_12_1129,60.0057738987,MAFE4ImagesEEG,001,102502,
AFNE01.JPG,AFNE01.JPG,AFNE01.JPG,AFNE01.JPG,AFNE01.JPG,AFNE01.JPG,,,,,,,,,,,,,3,4,34,6,,,,,,,,,,,AFNE15.jpg,AFNE16.jpg,AFSA10.jpg,AFSA08.jpg,AFSA08.jpg,FS,4,num_4,16,num_4,0.59989069216,,,2017_Dec_12_1129,60.0057738987,MAFE4ImagesEEG,001,102502,
AFNE01.JPG,AFNE01.JPG,AFNE01.JPG,AFNE01.JPG,AFNE01.JPG,AFNE01.JPG,,,,,,,,,,,,,3,5,35,4,,,,,,,,,,,AFSA05.jpg,AFSA08.jpg,AFNE18.jpg,AFNE02.jpg,AFSA05.jpg,FS,4,num_8,32,num_6,0.550195362186,,,2017_Dec_12_1129,60.0057738987,MAFE4ImagesEEG,001,102502,
AFNE01.JPG,AFNE01.JPG,AFNE01.JPG,AFNE01.JPG,AFNE01.JPG,AFNE01.JPG,,,,,,,,,,,,,3,6,36,0,,,,,,,,,,,AFSA10.jpg,AFNE20.jpg,AFNE12.jpg,AFSA14.jpg,AFSA14.jpg,FS,4,num_4,16,num_4,1.01676599961,,,2017_Dec_12_1129,60.0057738987,MAFE4ImagesEEG,001,102502,
AFNE01.JPG,AFNE01.JPG,AFNE01.JPG,AFNE01.JPG,AFNE01.JPG,AFNE01.JPG,,,,,,,,,,,,,3,7,37,8,,,,,,,,,,,AFNE16.jpg,AFNE15.jpg,AFSA15.jpg,AFSA06.jpg,AFNE16.jpg,FN,3,num_8,32,num_2,0.933489918243,,,2017_Dec_12_1129,60.0057738987,MAFE4ImagesEEG,001,102502,
AFNE01.JPG,AFNE01.JPG,AFNE01.JPG,AFNE01.JPG,AFNE01.JPG,AFNE01.JPG,,,,,,,,,,,,,3,8,38,1,,,,,,,,,,,AFNE04.jpg,AFSA11.jpg,AFSA03.jpg,AFNE11.jpg,AFSA03.jpg,FS,4,num_2,16,num_2,1.58340950892,,,2017_Dec_12_1129,60.0057738987,MAFE4ImagesEEG,001,102502,
AFNE01.JPG,AFNE01.JPG,AFNE01.JPG,AFNE01.JPG,AFNE01.JPG,AFNE01.JPG,,,,,,,,,,,,,3,9,39,3,,,,,,,,,,,AFNE17.jpg,AFSA12.jpg,AFNE16.jpg,AFSA11.jpg,AFNE16.jpg,FN,3,num_2,32,num_6,0.666736587882,,,2017_Dec_12_1129,60.0057738987,MAFE4ImagesEEG,001,102502,
AFNE01.JPG,AFNE01.JPG,AFNE01.JPG,AFNE01.JPG,AFNE01.JPG,AFNE01.JPG,,,,,,,,,,,,,4,0,40,3,,,,,,,,,,,AFNE06.jpg,AFNE10.jpg,AFSA06.jpg,AFSA15.jpg,AFNE10.jpg,FN,3,num_6,32,num_8,0.733443282545,,,2017_Dec_12_1129,60.0057738987,MAFE4ImagesEEG,001,102502,
AFNE01.JPG,AFNE01.JPG,AFNE01.JPG,AFNE01.JPG,AFNE01.JPG,AFNE01.JPG,,,,,,,,,,,,,4,1,41,2,,,,,,,,,,,AFNE20.jpg,AFNE03.jpg,AFSA19.jpg,AFSA08.jpg,AFNE03.jpg,FN,3,num_6,16,num_6,0.866766544757,,,2017_Dec_12_1129,60.0057738987,MAFE4ImagesEEG,001,102502,
AFNE01.JPG,AFNE01.JPG,AFNE01.JPG,AFNE01.JPG,AFNE01.JPG,AFNE01.JPG,,,,,,,,,,,,,4,2,42,8,,,,,,,,,,,AFSA18.jpg,AFNE08.jpg,AFSA06.jpg,AFNE18.jpg,AFNE18.jpg,FN,3,num_4,16,num_4,0.80016280734,,,2017_Dec_12_1129,60.0057738987,MAFE4ImagesEEG,001,102502,
AFNE01.JPG,AFNE01.JPG,AFNE01.JPG,AFNE01.JPG,AFNE01.JPG,AFNE01.JPG,,,,,,,,,,,,,4,3,43,0,,,,,,,,,,,AFNE10.jpg,AFSA04.jpg,AFSA08.jpg,AFNE20.jpg,AFNE20.jpg,FN,3,num_4,32,num_6,0.550135383848,,,2017_Dec_12_1129,60.0057738987,MAFE4ImagesEEG,001,102502,
AFNE01.JPG,AFNE01.JPG,AFNE01.JPG,AFNE01.JPG,AFNE01.JPG,AFNE01.JPG,,,,,,,,,,,,,4,4,44,1,,,,,,,,,,,AFNE13.jpg,AFSA17.jpg,AFNE15.jpg,AFSA04.jpg,AFNE13.jpg,FN,3,num_8,16,num_8,1.29994149716,,,2017_Dec_12_1129,60.0057738987,MAFE4ImagesEEG,001,102502,
AFNE01.JPG,AFNE01.JPG,AFNE01.JPG,AFNE01.JPG,AFNE01.JPG,AFNE01.JPG,,,,,,,,,,,,,4,5,45,7,,,,,,,,,,,AFSA02.jpg,AFNE16.jpg,AFSA11.jpg,AFNE08.jpg,AFSA11.jpg,FS,4,num_2,16,num_2,1.10007928661,,,2017_Dec_12_1129,60.0057738987,MAFE4ImagesEEG,001,102502,
AFNE01.JPG,AFNE01.JPG,AFNE01.JPG,AFNE01.JPG,AFNE01.JPG,AFNE01.JPG,,,,,,,,,,,,,4,6,46,5,,,,,,,,,,,AFNE08.jpg,AFNE13.jpg,AFSA12.jpg,AFSA03.jpg,AFSA12.jpg,FS,4,num_2,32,num_8,0.833470609738,,,2017_Dec_12_1129,60.0057738987,MAFE4ImagesEEG,001,102502,
AFNE01.JPG,AFNE01.JPG,AFNE01.JPG,AFNE01.JPG,AFNE01.JPG,AFNE01.JPG,,,,,,,,,,,,,4,7,47,9,,,,,,,,,,,AFNE13.jpg,AFSA08.jpg,AFNE20.jpg,AFSA19.jpg,AFNE20.jpg,FN,3,num_2,32,num_8,1.06677565398,,,2017_Dec_12_1129,60.0057738987,MAFE4ImagesEEG,001,102502,
AFNE01.JPG,AFNE01.JPG,AFNE01.JPG,AFNE01.JPG,AFNE01.JPG,AFNE01.JPG,,,,,,,,,,,,,4,8,48,6,,,,,,,,,,,AFSA11.jpg,AFNE19.jpg,AFSA16.jpg,AFNE06.jpg,AFSA16.jpg,FS,4,num_2,16,num_2,1.08347686403,,,2017_Dec_12_1129,60.0057738987,MAFE4ImagesEEG,001,102502,
AFNE01.JPG,AFNE01.JPG,AFNE01.JPG,AFNE01.JPG,AFNE01.JPG,AFNE01.JPG,,,,,,,,,,,,,4,9,49,4,,,,,,,,,,,AFSA10.jpg,AFSA07.jpg,AFNE20.jpg,AFNE09.jpg,AFSA07.jpg,FS,4,num_6,16,num_6,0.46676725056,,,2017_Dec_12_1129,60.0057738987,MAFE4ImagesEEG,001,102502,
AFNE01.JPG,AFNE01.JPG,AFNE01.JPG,AFNE01.JPG,AFNE01.JPG,AFNE01.JPG,,,,,,,,,,,,,5,0,50,9,,,,,,,,,,,AFSA11.jpg,AFSA12.jpg,AFNE03.jpg,AFNE12.jpg,AFNE03.jpg,FN,3,num_2,32,num_8,0.666794641642,,,2017_Dec_12_1129,60.0057738987,MAFE4ImagesEEG,001,102502,
AFNE01.JPG,AFNE01.JPG,AFNE01.JPG,AFNE01.JPG,AFNE01.JPG,AFNE01.JPG,,,,,,,,,,,,,5,1,51,7,,,,,,,,,,,AFSA15.jpg,AFSA06.jpg,AFNE09.jpg,AFNE20.jpg,AFNE09.jpg,FN,3,num_2,32,num_8,0.583498995053,,,2017_Dec_12_1129,60.0057738987,MAFE4ImagesEEG,001,102502,
AFNE01.JPG,AFNE01.JPG,AFNE01.JPG,AFNE01.JPG,AFNE01.JPG,AFNE01.JPG,,,,,,,,,,,,,5,2,52,6,,,,,,,,,,,AFNE13.jpg,AFSA03.jpg,AFSA19.jpg,AFNE02.jpg,AFSA19.jpg,FS,4,num_2,16,num_2,1.31673251442,,,2017_Dec_12_1129,60.0057738987,MAFE4ImagesEEG,001,102502,
AFNE01.JPG,AFNE01.JPG,AFNE01.JPG,AFNE01.JPG,AFNE01.JPG,AFNE01.JPG,,,,,,,,,,,,,5,3,53,8,,,,,,,,,,,AFSA12.jpg,AFNE02.jpg,AFSA20.jpg,AFNE06.jpg,AFSA12.jpg,FS,4,num_8,32,num_6,1.06674871175,,,2017_Dec_12_1129,60.0057738987,MAFE4ImagesEEG,001,102502,
AFNE01.JPG,AFNE01.JPG,AFNE01.JPG,AFNE01.JPG,AFNE01.JPG,AFNE01.JPG,,,,,,,,,,,,,5,4,54,3,,,,,,,,,,,AFSA12.jpg,AFNE19.jpg,AFNE09.jpg,AFSA08.jpg,AFSA12.jpg,FS,4,num_8,32,num_4,0.616802627919,,,2017_Dec_12_1129,60.0057738987,MAFE4ImagesEEG,001,102502,
AFNE01.JPG,AFNE01.JPG,AFNE01.JPG,AFNE01.JPG,AFNE01.JPG,AFNE01.JPG,,,,,,,,,,,,,5,5,55,0,,,,,,,,,,,AFNE18.jpg,AFNE07.jpg,AFSA08.jpg,AFSA20.jpg,AFSA20.jpg,FS,4,num_4,32,num_2,1.06676635239,,,2017_Dec_12_1129,60.0057738987,MAFE4ImagesEEG,001,102502,
AFNE01.JPG,AFNE01.JPG,AFNE01.JPG,AFNE01.JPG,AFNE01.JPG,AFNE01.JPG,,,,,,,,,,,,,5,6,56,4,,,,,,,,,,,AFSA02.jpg,AFNE15.jpg,AFNE18.jpg,AFSA06.jpg,AFNE18.jpg,FN,3,num_2,32,num_4,0.33351679612,,,2017_Dec_12_1129,60.0057738987,MAFE4ImagesEEG,001,102502,
AFNE01.JPG,AFNE01.JPG,AFNE01.JPG,AFNE01.JPG,AFNE01.JPG,AFNE01.JPG,,,,,,,,,,,,,5,7,57,5,,,,,,,,,,,AFSA06.jpg,AFNE06.jpg,AFNE11.jpg,AFSA09.jpg,AFSA09.jpg,FS,4,num_4,32,num_8,0.63353078044,,,2017_Dec_12_1129,60.0057738987,MAFE4ImagesEEG,001,102502,
AFNE01.JPG,AFNE01.JPG,AFNE01.JPG,AFNE01.JPG,AFNE01.JPG,AFNE01.JPG,,,,,,,,,,,,,5,8,58,2,,,,,,,,,,,AFNE17.jpg,AFSA05.jpg,AFNE16.jpg,AFSA02.jpg,AFNE17.jpg,FN,3,num_8,16,num_8,0.900132401148,,,2017_Dec_12_1129,60.0057738987,MAFE4ImagesEEG,001,102502,
AFNE01.JPG,AFNE01.JPG,AFNE01.JPG,AFNE01.JPG,AFNE01.JPG,AFNE01.JPG,,,,,,,,,,,,,5,9,59,1,,,,,,,,,,,AFSA06.jpg,AFSA19.jpg,AFNE03.jpg,AFNE02.jpg,AFSA19.jpg,FS,4,num_6,16,num_6,1.18332618102,,,2017_Dec_12_1129,60.0057738987,MAFE4ImagesEEG,001,102502,
,,,,,,,,,,,,,,,,,,,,,,,,,,,,,,,,,,,,,,,,,,,space,70.2948500831,2017_Dec_12_1129,60.0057738987,MAFE4ImagesEEG,001,102502,
AFNE01.JPG,AFNE01.JPG,AFNE01.JPG,AFNE01.JPG,AFNE01.JPG,AFNE01.JPG,,,,,,,,,,,,,,,,,0,0,0,1,,,,,,,AMNE13.jpg,AMSA12.jpg,AMSA01.jpg,AMNE17.jpg,AMNE13.jpg,MN,1,num_8,32,num_4,0.583464355208,,,2017_Dec_12_1129,60.0057738987,MAFE4ImagesEEG,001,102502,
AFNE01.JPG,AFNE01.JPG,AFNE01.JPG,AFNE01.JPG,AFNE01.JPG,AFNE01.JPG,,,,,,,,,,,,,,,,,0,1,1,0,,,,,,,AMNE03.jpg,AMNE16.jpg,AMSA17.jpg,AMSA03.jpg,AMNE03.jpg,MN,1,num_8,32,num_6,0.666785981739,,,2017_Dec_12_1129,60.0057738987,MAFE4ImagesEEG,001,102502,
AFNE01.JPG,AFNE01.JPG,AFNE01.JPG,AFNE01.JPG,AFNE01.JPG,AFNE01.JPG,,,,,,,,,,,,,,,,,0,2,2,2,,,,,,,AMNE14.jpg,AMSA06.jpg,AMSA02.jpg,AMNE02.jpg,AMNE02.jpg,MN,1,num_4,16,num_4,1.15010754392,,,2017_Dec_12_1129,60.0057738987,MAFE4ImagesEEG,001,102502,
AFNE01.JPG,AFNE01.JPG,AFNE01.JPG,AFNE01.JPG,AFNE01.JPG,AFNE01.JPG,,,,,,,,,,,,,,,,,0,3,3,8,,,,,,,AMNE10.jpg,AMSA18.jpg,AMSA14.jpg,AMNE16.jpg,AMNE16.jpg,MN,1,num_4,32,num_8,0.94981073169,,,2017_Dec_12_1129,60.0057738987,MAFE4ImagesEEG,001,102502,
AFNE01.JPG,AFNE01.JPG,AFNE01.JPG,AFNE01.JPG,AFNE01.JPG,AFNE01.JPG,,,,,,,,,,,,,,,,,0,4,4,5,,,,,,,AMNE15.jpg,AMSA19.jpg,AMSA20.jpg,AMNE12.jpg,AMSA19.jpg,MS,2,num_6,16,num_6,0.583502843976,,,2017_Dec_12_1129,60.0057738987,MAFE4ImagesEEG,001,102502,
AFNE01.JPG,AFNE01.JPG,AFNE01.JPG,AFNE01.JPG,AFNE01.JPG,AFNE01.JPG,,,,,,,,,,,,,,,,,0,5,5,6,,,,,,,AMSA09.jpg,AMNE14.jpg,AMNE17.jpg,AMSA07.jpg,AMNE17.jpg,MN,1,num_2,32,num_8,0.766798234079,,,2017_Dec_12_1129,60.0057738987,MAFE4ImagesEEG,001,102502,
AFNE01.JPG,AFNE01.JPG,AFNE01.JPG,AFNE01.JPG,AFNE01.JPG,AFNE01.JPG,,,,,,,,,,,,,,,,,0,6,6,4,,,,,,,AMSA18.jpg,AMNE09.jpg,AMSA07.jpg,AMNE13.jpg,AMSA18.jpg,MS,2,num_8,16,num_8,0.900101930834,,,2017_Dec_12_1129,60.0057738987,MAFE4ImagesEEG,001,102502,
AFNE01.JPG,AFNE01.JPG,AFNE01.JPG,AFNE01.JPG,AFNE01.JPG,AFNE01.JPG,,,,,,,,,,,,,,,,,0,7,7,7,,,,,,,AMNE16.jpg,AMSA11.jpg,AMNE01.jpg,AMSA19.jpg,AMNE16.jpg,MN,1,num_8,16,num_8,0.833457459463,,,2017_Dec_12_1129,60.0057738987,MAFE4ImagesEEG,001,102502,
AFNE01.JPG,AFNE01.JPG,AFNE01.JPG,AFNE01.JPG,AFNE01.JPG,AFNE01.JPG,,,,,,,,,,,,,,,,,0,8,8,9,,,,,,,AMSA06.jpg,AMSA04.jpg,AMNE08.jpg,AMNE20.jpg,AMSA04.jpg,MS,2,num_6,16,num_6,0.633444822161,,,2017_Dec_12_1129,60.0057738987,MAFE4ImagesEEG,001,102502,
AFNE01.JPG,AFNE01.JPG,AFNE01.JPG,AFNE01.JPG,AFNE01.JPG,AFNE01.JPG,,,,,,,,,,,,,,,,,0,9,9,3,,,,,,,AMSA16.jpg,AMSA06.jpg,AMNE18.jpg,AMNE02.jpg,AMSA16.jpg,MS,2,num_8,16,num_8,0.833468043711,,,2017_Dec_12_1129,60.0057738987,MAFE4ImagesEEG,001,102502,
AFNE01.JPG,AFNE01.JPG,AFNE01.JPG,AFNE01.JPG,AFNE01.JPG,AFNE01.JPG,,,,,,,,,,,,,,,,,1,0,10,5,,,,,,,AMNE11.jpg,AMSA03.jpg,AMNE10.jpg,AMSA11.jpg,AMNE11.jpg,MN,1,num_8,16,num_8,1.33351134369,,,2017_Dec_12_1129,60.0057738987,MAFE4ImagesEEG,001,102502,
AFNE01.JPG,AFNE01.JPG,AFNE01.JPG,AFNE01.JPG,AFNE01.JPG,AFNE01.JPG,,,,,,,,,,,,,,,,,1,1,11,8,,,,,,,AMSA03.jpg,AMNE12.jpg,AMNE16.jpg,AMSA15.jpg,AMNE12.jpg,MN,1,num_6,32,num_2,1.23344841436,,,2017_Dec_12_1129,60.0057738987,MAFE4ImagesEEG,001,102502,
AFNE01.JPG,AFNE01.JPG,AFNE01.JPG,AFNE01.JPG,AFNE01.JPG,AFNE01.JPG,,,,,,,,,,,,,,,,,1,2,12,6,,,,,,,AMSA08.jpg,AMNE05.jpg,AMNE14.jpg,AMSA01.jpg,AMSA08.jpg,MS,2,num_8,32,num_6,1.06676250347,,,2017_Dec_12_1129,60.0057738987,MAFE4ImagesEEG,001,102502,
AFNE01.JPG,AFNE01.JPG,AFNE01.JPG,AFNE01.JPG,AFNE01.JPG,AFNE01.JPG,,,,,,,,,,,,,,,,,1,3,13,3,,,,,,,AMNE11.jpg,AMSA01.jpg,AMNE13.jpg,AMSA20.jpg,AMNE11.jpg,MN,1,num_8,32,num_6,0.683409893885,,,2017_Dec_12_1129,60.0057738987,MAFE4ImagesEEG,001,102502,
AFNE01.JPG,AFNE01.JPG,AFNE01.JPG,AFNE01.JPG,AFNE01.JPG,AFNE01.JPG,,,,,,,,,,,,,,,,,1,4,14,1,,,,,,,AMNE17.jpg,AMSA06.jpg,AMSA17.jpg,AMNE14.jpg,AMNE17.jpg,MN,1,num_8,16,num_8,0.850118898088,,,2017_Dec_12_1129,60.0057738987,MAFE4ImagesEEG,001,102502,
AFNE01.JPG,AFNE01.JPG,AFNE01.JPG,AFNE01.JPG,AFNE01.JPG,AFNE01.JPG,,,,,,,,,,,,,,,,,1,5,15,7,,,,,,,AMNE08.jpg,AMNE16.jpg,AMSA12.jpg,AMSA19.jpg,AMSA12.jpg,MS,2,num_2,32,num_8,0.850110879634,,,2017_Dec_12_1129,60.0057738987,MAFE4ImagesEEG,001,102502,
AFNE01.JPG,AFNE01.JPG,AFNE01.JPG,AFNE01.JPG,AFNE01.JPG,AFNE01.JPG,,,,,,,,,,,,,,,,,1,6,16,4,,,,,,,AMNE12.jpg,AMNE14.jpg,AMSA15.jpg,AMSA13.jpg,AMNE12.jpg,MN,1,num_8,16,num_8,0.816737004789,,,2017_Dec_12_1129,60.0057738987,MAFE4ImagesEEG,001,102502,
AFNE01.JPG,AFNE01.JPG,AFNE01.JPG,AFNE01.JPG,AFNE01.JPG,AFNE01.JPG,,,,,,,,,,,,,,,,,1,7,17,2,,,,,,,AMSA02.jpg,AMNE01.jpg,AMNE17.jpg,AMSA12.jpg,AMSA02.jpg,MS,2,num_8,32,num_6,0.61707236967,,,2017_Dec_12_1129,60.0057738987,MAFE4ImagesEEG,001,102502,
AFNE01.JPG,AFNE01.JPG,AFNE01.JPG,AFNE01.JPG,AFNE01.JPG,AFNE01.JPG,,,,,,,,,,,,,,,,,1,8,18,9,,,,,,,AMNE15.jpg,AMSA14.jpg,AMSA03.jpg,AMNE14.jpg,AMNE15.jpg,MN,1,num_8,16,num_8,0.766781876329,,,2017_Dec_12_1129,60.0057738987,MAFE4ImagesEEG,001,102502,
AFNE01.JPG,AFNE01.JPG,AFNE01.JPG,AFNE01.JPG,AFNE01.JPG,AFNE01.JPG,,,,,,,,,,,,,,,,,1,9,19,0,,,,,,,AMNE13.jpg,AMNE06.jpg,AMSA20.jpg,AMSA16.jpg,AMNE13.jpg,MN,1,num_8,16,num_8,0.766741783824,,,2017_Dec_12_1129,60.0057738987,MAFE4ImagesEEG,001,102502,
AFNE01.JPG,AFNE01.JPG,AFNE01.JPG,AFNE01.JPG,AFNE01.JPG,AFNE01.JPG,,,,,,,,,,,,,,,,,2,0,20,1,,,,,,,AMSA03.jpg,AMNE17.jpg,AMNE05.jpg,AMSA07.jpg,AMNE17.jpg,MN,1,num_6,16,num_6,0.766778027173,,,2017_Dec_12_1129,60.0057738987,MAFE4ImagesEEG,001,102502,
AFNE01.JPG,AFNE01.JPG,AFNE01.JPG,AFNE01.JPG,AFNE01.JPG,AFNE01.JPG,,,,,,,,,,,,,,,,,2,1,21,3,,,,,,,AMSA02.jpg,AMSA09.jpg,AMNE15.jpg,AMNE03.jpg,AMNE15.jpg,MN,1,num_2,32,num_8,0.60013220855,,,2017_Dec_12_1129,60.0057738987,MAFE4ImagesEEG,001,102502,
AFNE01.JPG,AFNE01.JPG,AFNE01.JPG,AFNE01.JPG,AFNE01.JPG,AFNE01.JPG,,,,,,,,,,,,,,,,,2,2,22,0,,,,,,,AMSA12.jpg,AMNE16.jpg,AMSA10.jpg,AMNE08.jpg,AMNE16.jpg,MN,1,num_6,16,num_6,0.766904077725,,,2017_Dec_12_1129,60.0057738987,MAFE4ImagesEEG,001,102502,
AFNE01.JPG,AFNE01.JPG,AFNE01.JPG,AFNE01.JPG,AFNE01.JPG,AFNE01.JPG,,,,,,,,,,,,,,,,,2,3,23,8,,,,,,,AMNE13.jpg,AMSA15.jpg,AMNE12.jpg,AMSA08.jpg,AMSA08.jpg,MS,2,num_4,16,num_4,0.316813982092,,,2017_Dec_12_1129,60.0057738987,MAFE4ImagesEEG,001,102502,
AFNE01.JPG,AFNE01.JPG,AFNE01.JPG,AFNE01.JPG,AFNE01.JPG,AFNE01.JPG,,,,,,,,,,,,,,,,,2,4,24,9,,,,,,,AMNE17.jpg,AMSA12.jpg,AMSA04.jpg,AMNE13.jpg,AMNE17.jpg,MN,1,num_8,16,num_8,0.700134518091,,,2017_Dec_12_1129,60.0057738987,MAFE4ImagesEEG,001,102502,
AFNE01.JPG,AFNE01.JPG,AFNE01.JPG,AFNE01.JPG,AFNE01.JPG,AFNE01.JPG,,,,,,,,,,,,,,,,,2,5,25,7,,,,,,,AMSA04.jpg,AMNE16.jpg,AMSA13.jpg,AMNE01.jpg,AMSA04.jpg,MS,2,num_8,32,num_6,0.75009477837,,,2017_Dec_12_1129,60.0057738987,MAFE4ImagesEEG,001,102502,
AFNE01.JPG,AFNE01.JPG,AFNE01.JPG,AFNE01.JPG,AFNE01.JPG,AFNE01.JPG,,,,,,,,,,,,,,,,,2,6,26,6,,,,,,,AMNE13.jpg,AMSA13.jpg,AMSA02.jpg,AMNE18.jpg,AMSA13.jpg,MS,2,num_6,32,num_2,1.33312613587,,,2017_Dec_12_1129,60.0057738987,MAFE4ImagesEEG,001,102502,
AFNE01.JPG,AFNE01.JPG,AFNE01.JPG,AFNE01.JPG,AFNE01.JPG,AFNE01.JPG,,,,,,,,,,,,,,,,,2,7,27,5,,,,,,,AMSA06.jpg,AMNE09.jpg,AMSA05.jpg,AMNE11.jpg,AMSA05.jpg,MS,2,num_2,32,num_6,0.716799484799,,,2017_Dec_12_1129,60.0057738987,MAFE4ImagesEEG,001,102502,
AFNE01.JPG,AFNE01.JPG,AFNE01.JPG,AFNE01.JPG,AFNE01.JPG,AFNE01.JPG,,,,,,,,,,,,,,,,,2,8,28,4,,,,,,,AMSA09.jpg,AMNE14.jpg,AMNE04.jpg,AMSA15.jpg,AMSA15.jpg,MS,2,num_4,16,num_4,0.766810742673,,,2017_Dec_12_1129,60.0057738987,MAFE4ImagesEEG,001,102502,
AFNE01.JPG,AFNE01.JPG,AFNE01.JPG,AFNE01.JPG,AFNE01.JPG,AFNE01.JPG,,,,,,,,,,,,,,,,,2,9,29,2,,,,,,,AMSA17.jpg,AMNE06.jpg,AMNE15.jpg,AMSA01.jpg,AMSA17.jpg,MS,2,num_8,16,num_8,0.650175540708,,,2017_Dec_12_1129,60.0057738987,MAFE4ImagesEEG,001,102502,
AFNE01.JPG,AFNE01.JPG,AFNE01.JPG,AFNE01.JPG,AFNE01.JPG,AFNE01.JPG,,,,,,,,,,,,,,,,,3,0,30,8,,,,,,,AMSA19.jpg,AMSA03.jpg,AMNE14.jpg,AMNE13.jpg,AMSA19.jpg,MS,2,num_8,32,num_6,0.916781651555,,,2017_Dec_12_1129,60.0057738987,MAFE4ImagesEEG,001,102502,
AFNE01.JPG,AFNE01.JPG,AFNE01.JPG,AFNE01.JPG,AFNE01.JPG,AFNE01.JPG,,,,,,,,,,,,,,,,,3,1,31,7,,,,,,,AMSA20.jpg,AMSA18.jpg,AMNE03.jpg,AMNE13.jpg,AMSA18.jpg,MS,2,num_6,16,num_6,0.766779630911,,,2017_Dec_12_1129,60.0057738987,MAFE4ImagesEEG,001,102502,
AFNE01.JPG,AFNE01.JPG,AFNE01.JPG,AFNE01.JPG,AFNE01.JPG,AFNE01.JPG,,,,,,,,,,,,,,,,,3,2,32,0,,,,,,,AMSA09.jpg,AMSA12.jpg,AMNE20.jpg,AMNE19.jpg,AMNE20.jpg,MN,1,num_2,32,num_4,1.38342605904,,,2017_Dec_12_1129,60.0057738987,MAFE4ImagesEEG,001,102502,
AFNE01.JPG,AFNE01.JPG,AFNE01.JPG,AFNE01.JPG,AFNE01.JPG,AFNE01.JPG,,,,,,,,,,,,,,,,,3,3,33,1,,,,,,,AMSA14.jpg,AMSA10.jpg,AMNE09.jpg,AMNE14.jpg,AMSA14.jpg,MS,2,num_8,32,num_4,1.11675644154,,,2017_Dec_12_1129,60.0057738987,MAFE4ImagesEEG,001,102502,
AFNE01.JPG,AFNE01.JPG,AFNE01.JPG,AFNE01.JPG,AFNE01.JPG,AFNE01.JPG,,,,,,,,,,,,,,,,,3,4,34,2,,,,,,,AMNE07.jpg,AMSA11.jpg,AMNE16.jpg,AMSA15.jpg,AMSA11.jpg,MS,2,num_6,32,num_4,0.650159503566,,,2017_Dec_12_1129,60.0057738987,MAFE4ImagesEEG,001,102502,
AFNE01.JPG,AFNE01.JPG,AFNE01.JPG,AFNE01.JPG,AFNE01.JPG,AFNE01.JPG,,,,,,,,,,,,,,,,,3,5,35,5,,,,,,,AMNE13.jpg,AMNE19.jpg,AMSA12.jpg,AMSA15.jpg,AMSA12.jpg,MS,2,num_2,32,num_8,1.10008313577,,,2017_Dec_12_1129,60.0057738987,MAFE4ImagesEEG,001,102502,
AFNE01.JPG,AFNE01.JPG,AFNE01.JPG,AFNE01.JPG,AFNE01.JPG,AFNE01.JPG,,,,,,,,,,,,,,,,,3,6,36,6,,,,,,,AMSA03.jpg,AMNE16.jpg,AMNE01.jpg,AMSA10.jpg,AMNE01.jpg,MN,1,num_2,16,num_2,0.983474234119,,,2017_Dec_12_1129,60.0057738987,MAFE4ImagesEEG,001,102502,
AFNE01.JPG,AFNE01.JPG,AFNE01.JPG,AFNE01.JPG,AFNE01.JPG,AFNE01.JPG,,,,,,,,,,,,,,,,,3,7,37,9,,,,,,,AMSA04.jpg,AMSA10.jpg,AMNE07.jpg,AMNE04.jpg,AMSA04.jpg,MS,2,num_8,16,num_8,0.950142055284,,,2017_Dec_12_1129,60.0057738987,MAFE4ImagesEEG,001,102502,
AFNE01.JPG,AFNE01.JPG,AFNE01.JPG,AFNE01.JPG,AFNE01.JPG,AFNE01.JPG,,,,,,,,,,,,,,,,,3,8,38,4,,,,,,,AMNE15.jpg,AMSA07.jpg,AMNE13.jpg,AMSA01.jpg,AMSA01.jpg,MS,2,num_4,32,num_6,0.800122073386,,,2017_Dec_12_1129,60.0057738987,MAFE4ImagesEEG,001,102502,
AFNE01.JPG,AFNE01.JPG,AFNE01.JPG,AFNE01.JPG,AFNE01.JPG,AFNE01.JPG,,,,,,,,,,,,,,,,,3,9,39,3,,,,,,,AMNE09.jpg,AMSA06.jpg,AMNE12.jpg,AMSA17.jpg,AMNE09.jpg,MN,1,num_8,16,num_8,0.666803622385,,,2017_Dec_12_1129,60.0057738987,MAFE4ImagesEEG,001,102502,
AFNE01.JPG,AFNE01.JPG,AFNE01.JPG,AFNE01.JPG,AFNE01.JPG,AFNE01.JPG,,,,,,,,,,,,,,,,,4,0,40,6,,,,,,,AMSA10.jpg,AMNE20.jpg,AMSA06.jpg,AMNE13.jpg,AMSA10.jpg,MS,2,num_8,32,num_4,0.983748466009,,,2017_Dec_12_1129,60.0057738987,MAFE4ImagesEEG,001,102502,
AFNE01.JPG,AFNE01.JPG,AFNE01.JPG,AFNE01.JPG,AFNE01.JPG,AFNE01.JPG,,,,,,,,,,,,,,,,,4,1,41,3,,,,,,,AMNE09.jpg,AMNE20.jpg,AMSA11.jpg,AMSA17.jpg,AMNE09.jpg,MN,1,num_8,16,num_8,0.716781523544,,,2017_Dec_12_1129,60.0057738987,MAFE4ImagesEEG,001,102502,
AFNE01.JPG,AFNE01.JPG,AFNE01.JPG,AFNE01.JPG,AFNE01.JPG,AFNE01.JPG,,,,,,,,,,,,,,,,,4,2,42,0,,,,,,,AMSA17.jpg,AMNE20.jpg,AMNE09.jpg,AMSA09.jpg,AMNE09.jpg,MN,1,num_2,16,num_2,1.01675028331,,,2017_Dec_12_1129,60.0057738987,MAFE4ImagesEEG,001,102502,
AFNE01.JPG,AFNE01.JPG,AFNE01.JPG,AFNE01.JPG,AFNE01.JPG,AFNE01.JPG,,,,,,,,,,,,,,,,,4,3,43,2,,,,,,,AMNE09.jpg,AMNE05.jpg,AMSA03.jpg,AMSA18.jpg,AMSA03.jpg,MS,2,num_2,32,num_4,0.683433949249,,,2017_Dec_12_1129,60.0057738987,MAFE4ImagesEEG,001,102502,
AFNE01.JPG,AFNE01.JPG,AFNE01.JPG,AFNE01.JPG,AFNE01.JPG,AFNE01.JPG,,,,,,,,,,,,,,,,,4,4,44,1,,,,,,,AMSA19.jpg,AMSA20.jpg,AMNE04.jpg,AMNE10.jpg,AMNE04.jpg,MN,1,num_2,16,num_2,1.13343103044,,,2017_Dec_12_1129,60.0057738987,MAFE4ImagesEEG,001,102502,
AFNE01.JPG,AFNE01.JPG,AFNE01.JPG,AFNE01.JPG,AFNE01.JPG,AFNE01.JPG,,,,,,,,,,,,,,,,,4,5,45,8,,,,,,,AMNE11.jpg,AMSA11.jpg,AMSA10.jpg,AMNE20.jpg,AMNE20.jpg,MN,1,num_4,32,num_8,0.750022291439,,,2017_Dec_12_1129,60.0057738987,MAFE4ImagesEEG,001,102502,
AFNE01.JPG,AFNE01.JPG,AFNE01.JPG,AFNE01.JPG,AFNE01.JPG,AFNE01.JPG,,,,,,,,,,,,,,,,,4,6,46,4,,,,,,,AMNE16.jpg,AMSA07.jpg,AMNE02.jpg,AMSA14.jpg,AMNE02.jpg,MN,1,num_2,16,num_2,1.20008095447,,,2017_Dec_12_1129,60.0057738987,MAFE4ImagesEEG,001,102502,
AFNE01.JPG,AFNE01.JPG,AFNE01.JPG,AFNE01.JPG,AFNE01.JPG,AFNE01.JPG,,,,,,,,,,,,,,,,,4,7,47,9,,,,,,,AMNE08.jpg,AMSA15.jpg,AMSA19.jpg,AMNE12.jpg,AMSA15.jpg,MS,2,num_6,32,num_4,0.833471892634,,,2017_Dec_12_1129,60.0057738987,MAFE4ImagesEEG,001,102502,
AFNE01.JPG,AFNE01.JPG,AFNE01.JPG,AFNE01.JPG,AFNE01.JPG,AFNE01.JPG,,,,,,,,,,,,,,,,,4,8,48,5,,,,,,,AMSA03.jpg,AMNE12.jpg,AMNE08.jpg,AMSA13.jpg,AMSA13.jpg,MS,2,num_4,16,num_4,1.28341476899,,,2017_Dec_12_1129,60.0057738987,MAFE4ImagesEEG,001,102502,
AFNE01.JPG,AFNE01.JPG,AFNE01.JPG,AFNE01.JPG,AFNE01.JPG,AFNE01.JPG,,,,,,,,,,,,,,,,,4,9,49,7,,,,,,,AMNE14.jpg,AMSA03.jpg,AMSA06.jpg,AMNE16.jpg,AMSA03.jpg,MS,2,num_6,16,num_6,1.56674999488,,,2017_Dec_12_1129,60.0057738987,MAFE4ImagesEEG,001,102502,
AFNE01.JPG,AFNE01.JPG,AFNE01.JPG,AFNE01.JPG,AFNE01.JPG,AFNE01.JPG,,,,,,,,,,,,,,,,,5,0,50,5,,,,,,,AMNE07.jpg,AMSA05.jpg,AMNE04.jpg,AMSA18.jpg,AMSA05.jpg,MS,2,num_6,16,num_6,1.4333956209,,,2017_Dec_12_1129,60.0057738987,MAFE4ImagesEEG,001,102502,
AFNE01.JPG,AFNE01.JPG,AFNE01.JPG,AFNE01.JPG,AFNE01.JPG,AFNE01.JPG,,,,,,,,,,,,,,,,,5,1,51,6,,,,,,,AMSA15.jpg,AMNE07.jpg,AMNE05.jpg,AMSA19.jpg,AMNE05.jpg,MN,1,num_2,32,num_8,1.71669075405,,,2017_Dec_12_1129,60.0057738987,MAFE4ImagesEEG,001,102502,
AFNE01.JPG,AFNE01.JPG,AFNE01.JPG,AFNE01.JPG,AFNE01.JPG,AFNE01.JPG,,,,,,,,,,,,,,,,,5,2,52,0,,,,,,,AMSA09.jpg,AMNE01.jpg,AMNE14.jpg,AMSA08.jpg,AMNE14.jpg,MN,1,num_2,16,num_2,1.80021893652,,,2017_Dec_12_1129,60.0057738987,MAFE4ImagesEEG,001,102502,
AFNE01.JPG,AFNE01.JPG,AFNE01.JPG,AFNE01.JPG,AFNE01.JPG,AFNE01.JPG,,,,,,,,,,,,,,,,,5,3,53,4,,,,,,,AMNE09.jpg,AMSA04.jpg,AMNE15.jpg,AMSA10.jpg,AMNE15.jpg,MN,1,num_2,32,num_8,0.650160145015,,,2017_Dec_12_1129,60.0057738987,MAFE4ImagesEEG,001,102502,
AFNE01.JPG,AFNE01.JPG,AFNE01.JPG,AFNE01.JPG,AFNE01.JPG,AFNE01.JPG,,,,,,,,,,,,,,,,,5,4,54,7,,,,,,,AMNE11.jpg,AMSA14.jpg,AMNE18.jpg,AMSA09.jpg,AMNE18.jpg,MN,1,num_2,32,num_8,0.750192604028,,,2017_Dec_12_1129,60.0057738987,MAFE4ImagesEEG,001,102502,
AFNE01.JPG,AFNE01.JPG,AFNE01.JPG,AFNE01.JPG,AFNE01.JPG,AFNE01.JPG,,,,,,,,,,,,,,,,,5,5,55,2,,,,,,,AMNE10.jpg,AMSA08.jpg,AMSA17.jpg,AMNE04.jpg,AMNE04.jpg,MN,1,num_4,32,num_2,0.850171499187,,,2017_Dec_12_1129,60.0057738987,MAFE4ImagesEEG,001,102502,
AFNE01.JPG,AFNE01.JPG,AFNE01.JPG,AFNE01.JPG,AFNE01.JPG,AFNE01.JPG,,,,,,,,,,,,,,,,,5,6,56,9,,,,,,,AMSA13.jpg,AMNE10.jpg,AMNE17.jpg,AMSA12.jpg,AMNE17.jpg,MN,1,num_2,32,num_8,0.950092982268,,,2017_Dec_12_1129,60.0057738987,MAFE4ImagesEEG,001,102502,
AFNE01.JPG,AFNE01.JPG,AFNE01.JPG,AFNE01.JPG,AFNE01.JPG,AFNE01.JPG,,,,,,,,,,,,,,,,,5,7,57,1,,,,,,,AMSA09.jpg,AMNE05.jpg,AMNE01.jpg,AMSA19.jpg,AMNE01.jpg,MN,1,num_2,32,num_6,0.950123452581,,,2017_Dec_12_1129,60.0057738987,MAFE4ImagesEEG,001,102502,
AFNE01.JPG,AFNE01.JPG,AFNE01.JPG,AFNE01.JPG,AFNE01.JPG,AFNE01.JPG,,,,,,,,,,,,,,,,,5,8,58,8,,,,,,,AMNE15.jpg,AMNE07.jpg,AMSA13.jpg,AMSA16.jpg,AMNE07.jpg,MN,1,num_6,32,num_2,1.18340379978,,,2017_Dec_12_1129,60.0057738987,MAFE4ImagesEEG,001,102502,
AFNE01.JPG,AFNE01.JPG,AFNE01.JPG,AFNE01.JPG,AFNE01.JPG,AFNE01.JPG,,,,,,,,,,,,,,,,,5,9,59,3,,,,,,,AMSA13.jpg,AMSA04.jpg,AMNE19.jpg,AMNE07.jpg,AMSA13.jpg,MS,2,num_8,16,num_8,1.08327736426,,,2017_Dec_12_1129,60.0057738987,MAFE4ImagesEEG,001,102502,
,,,,,,,,,,,,,,,,,,,,,,,,,,,,,,,,,,,,,,,,,,,space,60.9285765146,2017_Dec_12_1129,60.0057738987,MAFE4ImagesEEG,001,102502,
AFNE01.JPG,AFNE01.JPG,AFNE01.JPG,AFNE01.JPG,AFNE01.JPG,AFNE01.JPG,,,,,,,,,,,,,,,,,,,,,0,0,0,0,,,AFNE19.jpg,AFSA05.jpg,AFSA04.jpg,AFNE10.jpg,AFNE19.jpg,FN,3,num_8,32,num_6,0.533516603755,,,2017_Dec_12_1129,60.0057738987,MAFE4ImagesEEG,001,102502,
AFNE01.JPG,AFNE01.JPG,AFNE01.JPG,AFNE01.JPG,AFNE01.JPG,AFNE01.JPG,,,,,,,,,,,,,,,,,,,,,0,1,1,2,,,AFSA02.jpg,AFNE08.jpg,AFNE11.jpg,AFSA01.jpg,AFSA01.jpg,FS,4,num_4,32,num_8,0.833134475164,,,2017_Dec_12_1129,60.0057738987,MAFE4ImagesEEG,001,102502,
AFNE01.JPG,AFNE01.JPG,AFNE01.JPG,AFNE01.JPG,AFNE01.JPG,AFNE01.JPG,,,,,,,,,,,,,,,,,,,,,0,2,2,5,,,AFNE12.jpg,AFNE08.jpg,AFSA14.jpg,AFSA19.jpg,AFNE12.jpg,FN,3,num_8,16,num_8,1.41670627799,,,2017_Dec_12_1129,60.0057738987,MAFE4ImagesEEG,001,102502,
AFNE01.JPG,AFNE01.JPG,AFNE01.JPG,AFNE01.JPG,AFNE01.JPG,AFNE01.JPG,,,,,,,,,,,,,,,,,,,,,0,3,3,6,,,AFSA02.jpg,AFSA20.jpg,AFNE06.jpg,AFNE11.jpg,AFNE11.jpg,FN,3,num_4,32,num_2,2.00007088343,,,2017_Dec_12_1129,60.0057738987,MAFE4ImagesEEG,001,102502,
AFNE01.JPG,AFNE01.JPG,AFNE01.JPG,AFNE01.JPG,AFNE01.JPG,AFNE01.JPG,,,,,,,,,,,,,,,,,,,,,0,4,4,7,,,AFNE11.jpg,AFSA16.jpg,AFNE08.jpg,AFSA18.jpg,AFNE08.jpg,FN,3,num_2,32,num_8,0.716787296813,,,2017_Dec_12_1129,60.0057738987,MAFE4ImagesEEG,001,102502,
AFNE01.JPG,AFNE01.JPG,AFNE01.JPG,AFNE01.JPG,AFNE01.JPG,AFNE01.JPG,,,,,,,,,,,,,,,,,,,,,0,5,5,3,,,AFNE19.jpg,AFNE14.jpg,AFSA12.jpg,AFSA19.jpg,AFSA19.jpg,FS,4,num_4,32,num_6,1.58342554583,,,2017_Dec_12_1129,60.0057738987,MAFE4ImagesEEG,001,102502,
AFNE01.JPG,AFNE01.JPG,AFNE01.JPG,AFNE01.JPG,AFNE01.JPG,AFNE01.JPG,,,,,,,,,,,,,,,,,,,,,0,6,6,1,,,AFSA09.jpg,AFNE16.jpg,AFSA13.jpg,AFNE08.jpg,AFNE08.jpg,FN,3,num_4,32,num_8,0.466785532655,,,2017_Dec_12_1129,60.0057738987,MAFE4ImagesEEG,001,102502,
AFNE01.JPG,AFNE01.JPG,AFNE01.JPG,AFNE01.JPG,AFNE01.JPG,AFNE01.JPG,,,,,,,,,,,,,,,,,,,,,0,7,7,8,,,AFNE02.jpg,AFNE10.jpg,AFSA18.jpg,AFSA13.jpg,AFNE02.jpg,FN,3,num_8,32,num_2,1.43344854284,,,2017_Dec_12_1129,60.0057738987,MAFE4ImagesEEG,001,102502,
AFNE01.JPG,AFNE01.JPG,AFNE01.JPG,AFNE01.JPG,AFNE01.JPG,AFNE01.JPG,,,,,,,,,,,,,,,,,,,,,0,8,8,9,,,AFNE20.jpg,AFSA17.jpg,AFSA04.jpg,AFNE04.jpg,AFNE04.jpg,FN,3,num_4,32,num_8,0.816753362538,,,2017_Dec_12_1129,60.0057738987,MAFE4ImagesEEG,001,102502,
AFNE01.JPG,AFNE01.JPG,AFNE01.JPG,AFNE01.JPG,AFNE01.JPG,AFNE01.JPG,,,,,,,,,,,,,,,,,,,,,0,9,9,4,,,AFNE06.jpg,AFSA18.jpg,AFNE13.jpg,AFSA15.jpg,AFSA18.jpg,FS,4,num_6,16,num_6,0.633501272416,,,2017_Dec_12_1129,60.0057738987,MAFE4ImagesEEG,001,102502,
AFNE01.JPG,AFNE01.JPG,AFNE01.JPG,AFNE01.JPG,AFNE01.JPG,AFNE01.JPG,,,,,,,,,,,,,,,,,,,,,1,0,10,9,,,AFNE11.jpg,AFSA04.jpg,AFNE02.jpg,AFSA19.jpg,AFNE11.jpg,FN,3,num_8,16,num_8,0.666857185774,,,2017_Dec_12_1129,60.0057738987,MAFE4ImagesEEG,001,102502,
AFNE01.JPG,AFNE01.JPG,AFNE01.JPG,AFNE01.JPG,AFNE01.JPG,AFNE01.JPG,,,,,,,,,,,,,,,,,,,,,1,1,11,6,,,AFNE05.jpg,AFNE13.jpg,AFSA14.jpg,AFSA18.jpg,AFSA14.jpg,FS,4,num_2,32,num_4,1.80003964319,,,2017_Dec_12_1129,60.0057738987,MAFE4ImagesEEG,001,102502,
AFNE01.JPG,AFNE01.JPG,AFNE01.JPG,AFNE01.JPG,AFNE01.JPG,AFNE01.JPG,,,,,,,,,,,,,,,,,,,,,1,2,12,2,,,AFSA01.jpg,AFNE16.jpg,AFNE13.jpg,AFSA03.jpg,AFNE16.jpg,FN,3,num_6,32,num_4,0.866733829491,,,2017_Dec_12_1129,60.0057738987,MAFE4ImagesEEG,001,102502,
AFNE01.JPG,AFNE01.JPG,AFNE01.JPG,AFNE01.JPG,AFNE01.JPG,AFNE01.JPG,,,,,,,,,,,,,,,,,,,,,1,3,13,0,,,AFSA04.jpg,AFNE05.jpg,AFNE08.jpg,AFSA13.jpg,AFSA04.jpg,FS,4,num_8,16,num_8,0.566855197074,,,2017_Dec_12_1129,60.0057738987,MAFE4ImagesEEG,001,102502,
AFNE01.JPG,AFNE01.JPG,AFNE01.JPG,AFNE01.JPG,AFNE01.JPG,AFNE01.JPG,,,,,,,,,,,,,,,,,,,,,1,4,14,5,,,AFSA05.jpg,AFNE17.jpg,AFSA13.jpg,AFNE14.jpg,AFNE14.jpg,FN,3,num_4,32,num_6,1.00017961394,,,2017_Dec_12_1129,60.0057738987,MAFE4ImagesEEG,001,102502,
AFNE01.JPG,AFNE01.JPG,AFNE01.JPG,AFNE01.JPG,AFNE01.JPG,AFNE01.JPG,,,,,,,,,,,,,,,,,,,,,1,5,15,4,,,AFNE18.jpg,AFSA18.jpg,AFNE16.jpg,AFSA02.jpg,AFSA18.jpg,FS,4,num_6,16,num_6,1.00012637139,,,2017_Dec_12_1129,60.0057738987,MAFE4ImagesEEG,001,102502,
AFNE01.JPG,AFNE01.JPG,AFNE01.JPG,AFNE01.JPG,AFNE01.JPG,AFNE01.JPG,,,,,,,,,,,,,,,,,,,,,1,6,16,8,,,AFNE09.jpg,AFSA18.jpg,AFNE20.jpg,AFSA06.jpg,AFSA18.jpg,FS,4,num_6,32,num_4,0.566820236621,,,2017_Dec_12_1129,60.0057738987,MAFE4ImagesEEG,001,102502,
AFNE01.JPG,AFNE01.JPG,AFNE01.JPG,AFNE01.JPG,AFNE01.JPG,AFNE01.JPG,,,,,,,,,,,,,,,,,,,,,1,7,17,7,,,AFNE20.jpg,AFSA10.jpg,AFNE15.jpg,AFSA05.jpg,AFNE15.jpg,FN,3,num_2,32,num_8,0.816856319783,,,2017_Dec_12_1129,60.0057738987,MAFE4ImagesEEG,001,102502,
AFNE01.JPG,AFNE01.JPG,AFNE01.JPG,AFNE01.JPG,AFNE01.JPG,AFNE01.JPG,,,,,,,,,,,,,,,,,,,,,1,8,18,1,,,AFSA15.jpg,AFNE03.jpg,AFSA10.jpg,AFNE11.jpg,AFNE11.jpg,FN,3,num_4,16,num_4,0.900151004083,,,2017_Dec_12_1129,60.0057738987,MAFE4ImagesEEG,001,102502,
AFNE01.JPG,AFNE01.JPG,AFNE01.JPG,AFNE01.JPG,AFNE01.JPG,AFNE01.JPG,,,,,,,,,,,,,,,,,,,,,1,9,19,3,,,AFSA02.jpg,AFSA03.jpg,AFNE14.jpg,AFNE19.jpg,AFSA02.jpg,FS,4,num_8,16,num_8,0.833485043142,,,2017_Dec_12_1129,60.0057738987,MAFE4ImagesEEG,001,102502,
AFNE01.JPG,AFNE01.JPG,AFNE01.JPG,AFNE01.JPG,AFNE01.JPG,AFNE01.JPG,,,,,,,,,,,,,,,,,,,,,2,0,20,0,,,AFSA11.jpg,AFSA02.jpg,AFNE17.jpg,AFNE11.jpg,AFSA02.jpg,FS,4,num_6,16,num_6,0.766799196135,,,2017_Dec_12_1129,60.0057738987,MAFE4ImagesEEG,001,102502,
AFNE01.JPG,AFNE01.JPG,AFNE01.JPG,AFNE01.JPG,AFNE01.JPG,AFNE01.JPG,,,,,,,,,,,,,,,,,,,,,2,1,21,6,,,AFNE14.jpg,AFSA10.jpg,AFSA15.jpg,AFNE13.jpg,AFSA10.jpg,FS,4,num_6,32,num_2,1.41670499509,,,2017_Dec_12_1129,60.0057738987,MAFE4ImagesEEG,001,102502,
AFNE01.JPG,AFNE01.JPG,AFNE01.JPG,AFNE01.JPG,AFNE01.JPG,AFNE01.JPG,,,,,,,,,,,,,,,,,,,,,2,2,22,3,,,AFSA07.jpg,AFNE02.jpg,AFNE13.jpg,AFSA12.jpg,AFSA12.jpg,FS,4,num_4,16,num_4,0.800360061694,,,2017_Dec_12_1129,60.0057738987,MAFE4ImagesEEG,001,102502,
AFNE01.JPG,AFNE01.JPG,AFNE01.JPG,AFNE01.JPG,AFNE01.JPG,AFNE01.JPG,,,,,,,,,,,,,,,,,,,,,2,3,23,5,,,AFNE16.jpg,AFSA13.jpg,AFNE19.jpg,AFSA05.jpg,AFSA05.jpg,FS,4,num_4,16,num_4,0.500156520866,,,2017_Dec_12_1129,60.0057738987,MAFE4ImagesEEG,001,102502,
AFNE01.JPG,AFNE01.JPG,AFNE01.JPG,AFNE01.JPG,AFNE01.JPG,AFNE01.JPG,,,,,,,,,,,,,,,,,,,,,2,4,24,8,,,AFNE07.jpg,AFSA16.jpg,AFNE12.jpg,AFSA02.jpg,AFNE07.jpg,FN,3,num_8,16,num_8,1.08347461885,,,2017_Dec_12_1129,60.0057738987,MAFE4ImagesEEG,001,102502,
AFNE01.JPG,AFNE01.JPG,AFNE01.JPG,AFNE01.JPG,AFNE01.JPG,AFNE01.JPG,,,,,,,,,,,,,,,,,,,,,2,5,25,7,,,AFSA07.jpg,AFSA18.jpg,AFNE12.jpg,AFNE20.jpg,AFSA07.jpg,FS,4,num_8,32,num_6,1.33351551322,,,2017_Dec_12_1129,60.0057738987,MAFE4ImagesEEG,001,102502,
AFNE01.JPG,AFNE01.JPG,AFNE01.JPG,AFNE01.JPG,AFNE01.JPG,AFNE01.JPG,,,,,,,,,,,,,,,,,,,,,2,6,26,2,,,AFSA01.jpg,AFSA13.jpg,AFNE20.jpg,AFNE12.jpg,AFSA01.jpg,FS,4,num_8,32,num_6,0.816763626179,,,2017_Dec_12_1129,60.0057738987,MAFE4ImagesEEG,001,102502,
AFNE01.JPG,AFNE01.JPG,AFNE01.JPG,AFNE01.JPG,AFNE01.JPG,AFNE01.JPG,,,,,,,,,,,,,,,,,,,,,2,7,27,1,,,AFNE02.jpg,AFSA06.jpg,AFNE07.jpg,AFSA16.jpg,AFNE07.jpg,FN,3,num_2,32,num_8,0.933499861276,,,2017_Dec_12_1129,60.0057738987,MAFE4ImagesEEG,001,102502,
AFNE01.JPG,AFNE01.JPG,AFNE01.JPG,AFNE01.JPG,AFNE01.JPG,AFNE01.JPG,,,,,,,,,,,,,,,,,,,,,2,8,28,4,,,AFNE11.jpg,AFSA17.jpg,AFNE13.jpg,AFSA01.jpg,AFNE13.jpg,FN,3,num_2,32,num_6,0.733444886282,,,2017_Dec_12_1129,60.0057738987,MAFE4ImagesEEG,001,102502,
AFNE01.JPG,AFNE01.JPG,AFNE01.JPG,AFNE01.JPG,AFNE01.JPG,AFNE01.JPG,,,,,,,,,,,,,,,,,,,,,2,9,29,9,,,AFSA15.jpg,AFNE04.jpg,AFNE09.jpg,AFSA12.jpg,AFSA15.jpg,FS,4,num_8,32,num_4,0.683490078431,,,2017_Dec_12_1129,60.0057738987,MAFE4ImagesEEG,001,102502,
AFNE01.JPG,AFNE01.JPG,AFNE01.JPG,AFNE01.JPG,AFNE01.JPG,AFNE01.JPG,,,,,,,,,,,,,,,,,,,,,3,0,30,8,,,AFNE15.jpg,AFNE11.jpg,AFSA05.jpg,AFSA18.jpg,AFSA05.jpg,FS,4,num_2,32,num_8,0.600144396769,,,2017_Dec_12_1129,60.0057738987,MAFE4ImagesEEG,001,102502,
AFNE01.JPG,AFNE01.JPG,AFNE01.JPG,AFNE01.JPG,AFNE01.JPG,AFNE01.JPG,,,,,,,,,,,,,,,,,,,,,3,1,31,6,,,AFSA13.jpg,AFSA16.jpg,AFNE02.jpg,AFNE20.jpg,AFNE02.jpg,FN,3,num_2,32,num_4,0.816757211462,,,2017_Dec_12_1129,60.0057738987,MAFE4ImagesEEG,001,102502,
AFNE01.JPG,AFNE01.JPG,AFNE01.JPG,AFNE01.JPG,AFNE01.JPG,AFNE01.JPG,,,,,,,,,,,,,,,,,,,,,3,2,32,1,,,AFSA11.jpg,AFNE09.jpg,AFNE20.jpg,AFSA02.jpg,AFNE09.jpg,FN,3,num_6,16,num_6,0.90010545915,,,2017_Dec_12_1129,60.0057738987,MAFE4ImagesEEG,001,102502,
AFNE01.JPG,AFNE01.JPG,AFNE01.JPG,AFNE01.JPG,AFNE01.JPG,AFNE01.JPG,,,,,,,,,,,,,,,,,,,,,3,3,33,3,,,AFNE02.jpg,AFNE04.jpg,AFSA09.jpg,AFSA07.jpg,AFNE04.jpg,FN,3,num_6,32,num_8,0.700124895899,,,2017_Dec_12_1129,60.0057738987,MAFE4ImagesEEG,001,102502,
AFNE01.JPG,AFNE01.JPG,AFNE01.JPG,AFNE01.JPG,AFNE01.JPG,AFNE01.JPG,,,,,,,,,,,,,,,,,,,,,3,4,34,7,,,AFNE07.jpg,AFSA09.jpg,AFSA06.jpg,AFNE19.jpg,AFSA06.jpg,FS,4,num_2,16,num_2,1.13342429488,,,2017_Dec_12_1129,60.0057738987,MAFE4ImagesEEG,001,102502,
AFNE01.JPG,AFNE01.JPG,AFNE01.JPG,AFNE01.JPG,AFNE01.JPG,AFNE01.JPG,,,,,,,,,,,,,,,,,,,,,3,5,35,9,,,AFNE09.jpg,AFSA18.jpg,AFSA12.jpg,AFNE06.jpg,AFNE09.jpg,FN,3,num_8,32,num_6,0.650148277869,,,2017_Dec_12_1129,60.0057738987,MAFE4ImagesEEG,001,102502,
AFNE01.JPG,AFNE01.JPG,AFNE01.JPG,AFNE01.JPG,AFNE01.JPG,AFNE01.JPG,,,,,,,,,,,,,,,,,,,,,3,6,36,5,,,AFNE05.jpg,AFSA12.jpg,AFSA05.jpg,AFNE03.jpg,AFNE03.jpg,FN,3,num_4,32,num_8,0.866759488592,,,2017_Dec_12_1129,60.0057738987,MAFE4ImagesEEG,001,102502,
AFNE01.JPG,AFNE01.JPG,AFNE01.JPG,AFNE01.JPG,AFNE01.JPG,AFNE01.JPG,,,,,,,,,,,,,,,,,,,,,3,7,37,0,,,AFNE18.jpg,AFNE08.jpg,AFSA06.jpg,AFSA19.jpg,AFNE08.jpg,FN,3,num_6,32,num_4,1.01677113143,,,2017_Dec_12_1129,60.0057738987,MAFE4ImagesEEG,001,102502,
AFNE01.JPG,AFNE01.JPG,AFNE01.JPG,AFNE01.JPG,AFNE01.JPG,AFNE01.JPG,,,,,,,,,,,,,,,,,,,,,3,8,38,2,,,AFNE10.jpg,AFNE14.jpg,AFSA13.jpg,AFSA06.jpg,AFSA13.jpg,FS,4,num_2,32,num_4,0.883450435242,,,2017_Dec_12_1129,60.0057738987,MAFE4ImagesEEG,001,102502,
