IPosition2,IPosition3,IPosition1,IPosition6,IPosition4,IPosition5,TrialsM1.thisRepN,TrialsM1.thisTrialN,TrialsM1.thisN,TrialsM1.thisIndex,TrialsF1.thisRepN,TrialsF1.thisTrialN,TrialsF1.thisN,TrialsF1.thisIndex,TrialsM2.thisRepN,TrialsM2.thisTrialN,TrialsM2.thisN,TrialsM2.thisIndex,TrialsF2.thisRepN,TrialsF2.thisTrialN,TrialsF2.thisN,TrialsF2.thisIndex,TrialsM3.thisRepN,TrialsM3.thisTrialN,TrialsM3.thisN,TrialsM3.thisIndex,TrialsF3.thisRepN,TrialsF3.thisTrialN,TrialsF3.thisN,TrialsF3.thisIndex,InstrKey_resp.keys,InstrKey_resp.rt,Image0 _Position,Image1 _Position,Image2 _Position,Image3 _Position,Center_image,condition,code,correct_answer,accuracy,Key_Resp.keys,Key_Resp.rt,BreakKey_resp.keys,BreakKey_resp.rt,date,frameRate,expName,session,participant,
,,,,,,,,,,,,,,,,,,,,,,,,,,,,,,space,29.3482054798,,,,,,,,,,,,,,2018_Feb_09_1224,60.0056390921,MAFE4ImagesEEG,001,102587,
AFSA21.JPG,AFNE23.JPG,AFNE21.JPG,AFSA25.JPG,AFNE25.JPG,AFSA23.JPG,0,0,0,4,,,,,,,,,,,,,,,,,,,,,,,AMSA19.jpg,AMNE13.jpg,AMSA13.jpg,AMNE11.jpg,AMNE13.jpg,MN,1,num_6,32,num_4,2.60000378476,,,2018_Feb_09_1224,60.0056390921,MAFE4ImagesEEG,001,102587,
AMSA21.JPG,AMNE23.JPG,AMNE21.JPG,AMSA25.JPG,AMNE25.JPG,AMSA23.JPG,0,1,1,5,,,,,,,,,,,,,,,,,,,,,,,AMSA13.jpg,AMSA09.jpg,AMNE04.jpg,AMNE15.jpg,AMSA13.jpg,MS,2,num_8,32,num_2,1.1334349222,,,2018_Feb_09_1224,60.0056390921,MAFE4ImagesEEG,001,102587,
AFSA21.JPG,AFNE22.JPG,AFNE21.JPG,AFSA23.JPG,AFSA22.JPG,AFNE23.JPG,0,2,2,0,,,,,,,,,,,,,,,,,,,,,,,AMNE17.jpg,AMSA17.jpg,AMNE02.jpg,AMSA04.jpg,AMNE02.jpg,MN,1,num_2,32,num_8,1.60006632889,,,2018_Feb_09_1224,60.0056390921,MAFE4ImagesEEG,001,102587,
AMSA25.JPG,AMNE24.JPG,AMSA24.JPG,AMNE26.JPG,AMSA21.JPG,AMNE25.JPG,0,3,3,3,,,,,,,,,,,,,,,,,,,,,,,AMSA19.jpg,AMNE08.jpg,AMSA06.jpg,AMNE16.jpg,AMNE16.jpg,MN,1,num_4,16,num_4,1.33339662594,,,2018_Feb_09_1224,60.0056390921,MAFE4ImagesEEG,001,102587,
AMNE23.JPG,AMNE24.JPG,AMNE22.JPG,AMSA24.JPG,AMSA22.JPG,AMSA23.JPG,0,4,4,9,,,,,,,,,,,,,,,,,,,,,,,AMSA08.jpg,AMNE08.jpg,AMSA18.jpg,AMNE16.jpg,AMSA08.jpg,MS,2,num_8,32,num_6,2.23332789144,,,2018_Feb_09_1224,60.0056390921,MAFE4ImagesEEG,001,102587,
AFNE22.JPG,AFSA24.JPG,AFSA22.JPG,AFNE25.JPG,AFNE24.JPG,AFSA25.JPG,0,5,5,6,,,,,,,,,,,,,,,,,,,,,,,AMNE15.jpg,AMNE02.jpg,AMSA14.jpg,AMSA17.jpg,AMNE15.jpg,MN,1,num_8,16,num_8,1.25011955551,,,2018_Feb_09_1224,60.0056390921,MAFE4ImagesEEG,001,102587,
AFSA25.JPG,AFNE24.JPG,AFSA24.JPG,AFNE21.JPG,AFSA21.JPG,AFNE25.JPG,0,6,6,2,,,,,,,,,,,,,,,,,,,,,,,AMSA14.jpg,AMNE02.jpg,AMNE20.jpg,AMSA06.jpg,AMNE02.jpg,MN,1,num_6,16,num_6,1.51673024241,,,2018_Feb_09_1224,60.0056390921,MAFE4ImagesEEG,001,102587,
AFNE23.JPG,AFNE24.JPG,AFNE22.JPG,AFSA24.JPG,AFSA22.JPG,AFSA23.JPG,0,7,7,8,,,,,,,,,,,,,,,,,,,,,,,AMNE09.jpg,AMNE20.jpg,AMSA16.jpg,AMSA10.jpg,AMSA10.jpg,MS,2,num_4,16,num_4,0.900177593343,,,2018_Feb_09_1224,60.0056390921,MAFE4ImagesEEG,001,102587,
AMNE22.JPG,AMSA24.JPG,AMSA22.JPG,AMNE25.JPG,AMNE24.JPG,AMSA25.JPG,0,8,8,7,,,,,,,,,,,,,,,,,,,,,,,AMNE09.jpg,AMSA14.jpg,AMNE08.jpg,AMSA18.jpg,AMNE09.jpg,MN,1,num_8,32,num_2,1.81670102314,,,2018_Feb_09_1224,60.0056390921,MAFE4ImagesEEG,001,102587,
AMSA21.JPG,AMNE22.JPG,AMNE21.JPG,AMSA23.JPG,AMSA22.JPG,AMNE23.JPG,0,9,9,1,,,,,,,,,,,,,,,,,,,,,,,AMNE02.jpg,AMSA11.jpg,AMSA14.jpg,AMNE11.jpg,AMSA11.jpg,MS,2,num_6,32,num_2,2.7333039965,,,2018_Feb_09_1224,60.0056390921,MAFE4ImagesEEG,001,102587,
AFNE22.JPG,AFSA24.JPG,AFSA22.JPG,AFNE25.JPG,AFNE24.JPG,AFSA25.JPG,,,,,0,0,0,6,,,,,,,,,,,,,,,,,,,AFNE14.jpg,AFSA11.jpg,AFSA17.jpg,AFNE04.jpg,AFNE14.jpg,FN,3,num_8,32,num_4,1.28344917903,,,2018_Feb_09_1224,60.0056390921,MAFE4ImagesEEG,001,102587,
AMSA21.JPG,AMNE22.JPG,AMNE21.JPG,AMSA23.JPG,AMSA22.JPG,AMNE23.JPG,,,,,0,1,1,1,,,,,,,,,,,,,,,,,,,AFNE05.jpg,AFSA14.jpg,AFSA19.jpg,AFNE20.jpg,AFSA14.jpg,FS,4,num_6,32,num_4,1.13344711042,,,2018_Feb_09_1224,60.0056390921,MAFE4ImagesEEG,001,102587,
AFNE23.JPG,AFNE24.JPG,AFNE22.JPG,AFSA24.JPG,AFSA22.JPG,AFSA23.JPG,,,,,0,2,2,8,,,,,,,,,,,,,,,,,,,AFNE03.jpg,AFNE13.jpg,AFSA16.jpg,AFSA04.jpg,AFSA04.jpg,FS,4,num_4,16,num_4,1.28344500926,,,2018_Feb_09_1224,60.0056390921,MAFE4ImagesEEG,001,102587,
AFSA21.JPG,AFNE22.JPG,AFNE21.JPG,AFSA23.JPG,AFSA22.JPG,AFNE23.JPG,,,,,0,3,3,0,,,,,,,,,,,,,,,,,,,AFSA18.jpg,AFSA01.jpg,AFNE03.jpg,AFNE18.jpg,AFNE03.jpg,FN,3,num_2,32,num_6,1.53341510054,,,2018_Feb_09_1224,60.0056390921,MAFE4ImagesEEG,001,102587,
AMNE23.JPG,AMNE24.JPG,AMNE22.JPG,AMSA24.JPG,AMSA22.JPG,AMSA23.JPG,,,,,0,4,4,9,,,,,,,,,,,,,,,,,,,AFNE03.jpg,AFSA01.jpg,AFNE09.jpg,AFSA02.jpg,AFNE09.jpg,FN,3,num_2,32,num_8,1.35006480548,,,2018_Feb_09_1224,60.0056390921,MAFE4ImagesEEG,001,102587,
AMSA21.JPG,AMNE23.JPG,AMNE21.JPG,AMSA25.JPG,AMNE25.JPG,AMSA23.JPG,,,,,0,5,5,5,,,,,,,,,,,,,,,,,,,AFNE06.jpg,AFSA02.jpg,AFNE11.jpg,AFSA20.jpg,AFNE06.jpg,FN,3,num_8,32,num_2,2.75031536678,,,2018_Feb_09_1224,60.0056390921,MAFE4ImagesEEG,001,102587,
AMSA25.JPG,AMNE24.JPG,AMSA24.JPG,AMNE26.JPG,AMSA21.JPG,AMNE25.JPG,,,,,0,6,6,3,,,,,,,,,,,,,,,,,,,AFSA09.jpg,AFSA07.jpg,AFNE12.jpg,AFNE18.jpg,AFSA09.jpg,FS,4,num_8,32,num_6,2.00015427545,,,2018_Feb_09_1224,60.0056390921,MAFE4ImagesEEG,001,102587,
AMNE22.JPG,AMSA24.JPG,AMSA22.JPG,AMNE25.JPG,AMNE24.JPG,AMSA25.JPG,,,,,0,7,7,7,,,,,,,,,,,,,,,,,,,AFSA12.jpg,AFNE16.jpg,AFSA01.jpg,AFNE19.jpg,AFSA01.jpg,FS,4,num_2,16,num_2,1.35007988033,,,2018_Feb_09_1224,60.0056390921,MAFE4ImagesEEG,001,102587,
AFSA25.JPG,AFNE24.JPG,AFSA24.JPG,AFNE21.JPG,AFSA21.JPG,AFNE25.JPG,,,,,0,8,8,2,,,,,,,,,,,,,,,,,,,AFSA02.jpg,AFNE08.jpg,AFSA06.jpg,AFNE07.jpg,AFSA02.jpg,FS,4,num_8,16,num_8,0.483617759543,,,2018_Feb_09_1224,60.0056390921,MAFE4ImagesEEG,001,102587,
AFSA21.JPG,AFNE23.JPG,AFNE21.JPG,AFSA25.JPG,AFNE25.JPG,AFSA23.JPG,,,,,0,9,9,4,,,,,,,,,,,,,,,,,,,AFNE19.jpg,AFSA04.jpg,AFNE05.jpg,AFSA20.jpg,AFSA04.jpg,FS,4,num_6,16,num_6,1.20010828157,,,2018_Feb_09_1224,60.0056390921,MAFE4ImagesEEG,001,102587,
AMSA21.JPG,AMNE23.JPG,AMNE21.JPG,AMSA25.JPG,AMNE25.JPG,AMSA23.JPG,,,,,,,,,0,0,0,5,,,,,,,,,,,,,,,AMNE19.jpg,AMSA05.jpg,AMNE20.jpg,AMSA04.jpg,AMNE20.jpg,MN,1,num_2,32,num_8,0.766798800556,,,2018_Feb_09_1224,60.0056390921,MAFE4ImagesEEG,001,102587,
AMSA21.JPG,AMNE22.JPG,AMNE21.JPG,AMSA23.JPG,AMSA22.JPG,AMNE23.JPG,,,,,,,,,0,1,1,1,,,,,,,,,,,,,,,AMNE11.jpg,AMSA10.jpg,AMSA03.jpg,AMNE14.jpg,AMNE11.jpg,MN,1,num_8,32,num_2,1.46676964546,,,2018_Feb_09_1224,60.0056390921,MAFE4ImagesEEG,001,102587,
AFNE23.JPG,AFNE24.JPG,AFNE22.JPG,AFSA24.JPG,AFSA22.JPG,AFSA23.JPG,,,,,,,,,0,2,2,8,,,,,,,,,,,,,,,AMNE11.jpg,AMNE13.jpg,AMSA19.jpg,AMSA06.jpg,AMNE11.jpg,MN,1,num_8,16,num_8,0.750137035968,,,2018_Feb_09_1224,60.0056390921,MAFE4ImagesEEG,001,102587,
AFSA21.JPG,AFNE22.JPG,AFNE21.JPG,AFSA23.JPG,AFSA22.JPG,AFNE23.JPG,,,,,,,,,0,3,3,0,,,,,,,,,,,,,,,AMNE09.jpg,AMSA18.jpg,AMSA13.jpg,AMNE17.jpg,AMNE09.jpg,MN,1,num_8,32,num_4,1.53351228451,,,2018_Feb_09_1224,60.0056390921,MAFE4ImagesEEG,001,102587,
AFNE22.JPG,AFSA24.JPG,AFSA22.JPG,AFNE25.JPG,AFNE24.JPG,AFSA25.JPG,,,,,,,,,0,4,4,6,,,,,,,,,,,,,,,AMSA15.jpg,AMSA01.jpg,AMNE13.jpg,AMNE16.jpg,AMSA15.jpg,MS,2,num_8,32,num_4,1.15006749961,,,2018_Feb_09_1224,60.0056390921,MAFE4ImagesEEG,001,102587,
AMNE22.JPG,AMSA24.JPG,AMSA22.JPG,AMNE25.JPG,AMNE24.JPG,AMSA25.JPG,,,,,,,,,0,5,5,7,,,,,,,,,,,,,,,AMNE20.jpg,AMSA06.jpg,AMSA19.jpg,AMNE15.jpg,AMNE15.jpg,MN,1,num_4,16,num_4,1.96713608992,,,2018_Feb_09_1224,60.0056390921,MAFE4ImagesEEG,001,102587,
AMSA25.JPG,AMNE24.JPG,AMSA24.JPG,AMNE26.JPG,AMSA21.JPG,AMNE25.JPG,,,,,,,,,0,6,6,3,,,,,,,,,,,,,,,AMNE15.jpg,AMSA16.jpg,AMSA18.jpg,AMNE06.jpg,AMSA16.jpg,MS,2,num_6,32,num_2,1.80007229466,,,2018_Feb_09_1224,60.0056390921,MAFE4ImagesEEG,001,102587,
AMNE23.JPG,AMNE24.JPG,AMNE22.JPG,AMSA24.JPG,AMSA22.JPG,AMSA23.JPG,,,,,,,,,0,7,7,9,,,,,,,,,,,,,,,AMSA19.jpg,AMNE01.jpg,AMNE17.jpg,AMSA13.jpg,AMNE01.jpg,MN,1,num_6,32,num_2,3.59992712806,,,2018_Feb_09_1224,60.0056390921,MAFE4ImagesEEG,001,102587,
AFSA21.JPG,AFNE23.JPG,AFNE21.JPG,AFSA25.JPG,AFNE25.JPG,AFSA23.JPG,,,,,,,,,0,8,8,4,,,,,,,,,,,,,,,AMSA19.jpg,AMNE02.jpg,AMNE03.jpg,AMSA20.jpg,AMNE02.jpg,MN,1,num_6,32,num_8,2.21663565654,,,2018_Feb_09_1224,60.0056390921,MAFE4ImagesEEG,001,102587,
AFSA25.JPG,AFNE24.JPG,AFSA24.JPG,AFNE21.JPG,AFSA21.JPG,AFNE25.JPG,,,,,,,,,0,9,9,2,,,,,,,,,,,,,,,AMNE14.jpg,AMSA06.jpg,AMSA15.jpg,AMNE11.jpg,AMSA06.jpg,MS,2,num_6,16,num_6,2.01665663277,,,2018_Feb_09_1224,60.0056390921,MAFE4ImagesEEG,001,102587,
AFSA21.JPG,AFNE23.JPG,AFNE21.JPG,AFSA25.JPG,AFNE25.JPG,AFSA23.JPG,,,,,,,,,,,,,0,0,0,4,,,,,,,,,,,AFSA14.jpg,AFSA20.jpg,AFNE20.jpg,AFNE13.jpg,AFSA14.jpg,FS,4,num_8,16,num_8,0.916799586266,,,2018_Feb_09_1224,60.0056390921,MAFE4ImagesEEG,001,102587,
AFSA21.JPG,AFNE22.JPG,AFNE21.JPG,AFSA23.JPG,AFSA22.JPG,AFNE23.JPG,,,,,,,,,,,,,0,1,1,0,,,,,,,,,,,AFNE09.jpg,AFSA07.jpg,AFNE10.jpg,AFSA02.jpg,AFNE09.jpg,FN,3,num_8,32,num_6,2.13343812968,,,2018_Feb_09_1224,60.0056390921,MAFE4ImagesEEG,001,102587,
AMSA21.JPG,AMNE22.JPG,AMNE21.JPG,AMSA23.JPG,AMSA22.JPG,AMNE23.JPG,,,,,,,,,,,,,0,2,2,1,,,,,,,,,,,AFNE18.jpg,AFSA09.jpg,AFSA03.jpg,AFNE12.jpg,AFNE18.jpg,FN,3,num_8,32,num_4,1.15010053571,,,2018_Feb_09_1224,60.0056390921,MAFE4ImagesEEG,001,102587,
AFNE22.JPG,AFSA24.JPG,AFSA22.JPG,AFNE25.JPG,AFNE24.JPG,AFSA25.JPG,,,,,,,,,,,,,0,3,3,6,,,,,,,,,,,AFNE09.jpg,AFSA07.jpg,AFNE13.jpg,AFSA03.jpg,AFNE13.jpg,FN,3,num_2,32,num_6,0.800083520357,,,2018_Feb_09_1224,60.0056390921,MAFE4ImagesEEG,001,102587,
AMNE23.JPG,AMNE24.JPG,AMNE22.JPG,AMSA24.JPG,AMSA22.JPG,AMSA23.JPG,,,,,,,,,,,,,0,4,4,9,,,,,,,,,,,AFNE11.jpg,AFNE15.jpg,AFSA09.jpg,AFSA14.jpg,AFSA09.jpg,FS,4,num_2,32,num_4,0.866795047885,,,2018_Feb_09_1224,60.0056390921,MAFE4ImagesEEG,001,102587,
AMSA21.JPG,AMNE23.JPG,AMNE21.JPG,AMSA25.JPG,AMNE25.JPG,AMSA23.JPG,,,,,,,,,,,,,0,5,5,5,,,,,,,,,,,AFSA19.jpg,AFNE15.jpg,AFNE08.jpg,AFSA15.jpg,AFSA15.jpg,FS,4,num_4,32,num_2,2.13336756686,,,2018_Feb_09_1224,60.0056390921,MAFE4ImagesEEG,001,102587,
AMNE22.JPG,AMSA24.JPG,AMSA22.JPG,AMNE25.JPG,AMNE24.JPG,AMSA25.JPG,,,,,,,,,,,,,0,6,6,7,,,,,,,,,,,AFSA02.jpg,AFSA19.jpg,AFNE03.jpg,AFNE08.jpg,AFNE03.jpg,FN,3,num_2,32,num_6,1.25008202903,,,2018_Feb_09_1224,60.0056390921,MAFE4ImagesEEG,001,102587,
AFNE23.JPG,AFNE24.JPG,AFNE22.JPG,AFSA24.JPG,AFSA22.JPG,AFSA23.JPG,,,,,,,,,,,,,0,7,7,8,,,,,,,,,,,AFNE04.jpg,AFSA02.jpg,AFNE02.jpg,AFSA17.jpg,AFSA17.jpg,FS,4,num_4,16,num_4,1.23342411336,,,2018_Feb_09_1224,60.0056390921,MAFE4ImagesEEG,001,102587,
AFSA25.JPG,AFNE24.JPG,AFSA24.JPG,AFNE21.JPG,AFSA21.JPG,AFNE25.JPG,,,,,,,,,,,,,0,8,8,2,,,,,,,,,,,AFNE08.jpg,AFSA20.jpg,AFNE11.jpg,AFSA18.jpg,AFSA20.jpg,FS,4,num_6,16,num_6,1.31671497528,,,2018_Feb_09_1224,60.0056390921,MAFE4ImagesEEG,001,102587,
AMSA25.JPG,AMNE24.JPG,AMSA24.JPG,AMNE26.JPG,AMSA21.JPG,AMNE25.JPG,,,,,,,,,,,,,0,9,9,3,,,,,,,,,,,AFSA01.jpg,AFNE04.jpg,AFNE14.jpg,AFSA11.jpg,AFSA01.jpg,FS,4,num_8,32,num_2,1.08343776059,,,2018_Feb_09_1224,60.0056390921,MAFE4ImagesEEG,001,102587,
AFSA21.JPG,AFNE22.JPG,AFNE21.JPG,AFSA23.JPG,AFSA22.JPG,AFNE23.JPG,,,,,,,,,,,,,,,,,0,0,0,0,,,,,,,AMNE10.jpg,AMSA03.jpg,AMSA16.jpg,AMNE14.jpg,AMNE14.jpg,MN,1,num_4,32,num_8,0.850161829032,,,2018_Feb_09_1224,60.0056390921,MAFE4ImagesEEG,001,102587,
AMSA21.JPG,AMNE23.JPG,AMNE21.JPG,AMSA25.JPG,AMNE25.JPG,AMSA23.JPG,,,,,,,,,,,,,,,,,0,1,1,5,,,,,,,AMSA04.jpg,AMNE18.jpg,AMNE05.jpg,AMSA15.jpg,AMSA04.jpg,MS,2,num_8,32,num_6,0.866744371131,,,2018_Feb_09_1224,60.0056390921,MAFE4ImagesEEG,001,102587,
AFSA25.JPG,AFNE24.JPG,AFSA24.JPG,AFNE21.JPG,AFSA21.JPG,AFNE25.JPG,,,,,,,,,,,,,,,,,0,2,2,2,,,,,,,AMNE08.jpg,AMNE20.jpg,AMSA02.jpg,AMSA20.jpg,AMSA20.jpg,MS,2,num_4,16,num_4,1.15012459108,,,2018_Feb_09_1224,60.0056390921,MAFE4ImagesEEG,001,102587,
AMNE22.JPG,AMSA24.JPG,AMSA22.JPG,AMNE25.JPG,AMNE24.JPG,AMSA25.JPG,,,,,,,,,,,,,,,,,0,3,3,7,,,,,,,AMNE01.jpg,AMNE20.jpg,AMSA02.jpg,AMSA19.jpg,AMNE20.jpg,MN,1,num_6,32,num_8,1.13341311179,,,2018_Feb_09_1224,60.0056390921,MAFE4ImagesEEG,001,102587,
AMSA21.JPG,AMNE22.JPG,AMNE21.JPG,AMSA23.JPG,AMSA22.JPG,AMNE23.JPG,,,,,,,,,,,,,,,,,0,4,4,1,,,,,,,AMNE19.jpg,AMSA02.jpg,AMNE07.jpg,AMSA11.jpg,AMSA11.jpg,MS,2,num_4,16,num_4,0.800106613664,,,2018_Feb_09_1224,60.0056390921,MAFE4ImagesEEG,001,102587,
AMSA25.JPG,AMNE24.JPG,AMSA24.JPG,AMNE26.JPG,AMSA21.JPG,AMNE25.JPG,,,,,,,,,,,,,,,,,0,5,5,3,,,,,,,AMSA20.jpg,AMNE09.jpg,AMNE05.jpg,AMSA02.jpg,AMSA02.jpg,MS,2,num_4,16,num_4,0.599995766301,,,2018_Feb_09_1224,60.0056390921,MAFE4ImagesEEG,001,102587,
AFNE22.JPG,AFSA24.JPG,AFSA22.JPG,AFNE25.JPG,AFNE24.JPG,AFSA25.JPG,,,,,,,,,,,,,,,,,0,6,6,6,,,,,,,AMNE19.jpg,AMNE03.jpg,AMSA20.jpg,AMSA15.jpg,AMNE03.jpg,MN,1,num_6,32,num_2,1.33342549251,,,2018_Feb_09_1224,60.0056390921,MAFE4ImagesEEG,001,102587,
AFNE23.JPG,AFNE24.JPG,AFNE22.JPG,AFSA24.JPG,AFSA22.JPG,AFSA23.JPG,,,,,,,,,,,,,,,,,0,7,7,8,,,,,,,AMNE04.jpg,AMNE19.jpg,AMSA16.jpg,AMSA05.jpg,AMNE04.jpg,MN,1,num_8,32,num_2,1.30009490671,,,2018_Feb_09_1224,60.0056390921,MAFE4ImagesEEG,001,102587,
AFSA21.JPG,AFNE23.JPG,AFNE21.JPG,AFSA25.JPG,AFNE25.JPG,AFSA23.JPG,,,,,,,,,,,,,,,,,0,8,8,4,,,,,,,AMNE06.jpg,AMSA11.jpg,AMSA09.jpg,AMNE02.jpg,AMSA09.jpg,MS,2,num_2,16,num_2,0.950259750709,,,2018_Feb_09_1224,60.0056390921,MAFE4ImagesEEG,001,102587,
AMNE23.JPG,AMNE24.JPG,AMNE22.JPG,AMSA24.JPG,AMSA22.JPG,AMSA23.JPG,,,,,,,,,,,,,,,,,0,9,9,9,,,,,,,AMNE13.jpg,AMSA19.jpg,AMSA08.jpg,AMNE14.jpg,AMNE14.jpg,MN,1,num_4,16,num_4,0.533472512849,,,2018_Feb_09_1224,60.0056390921,MAFE4ImagesEEG,001,102587,
AMSA25.JPG,AMNE24.JPG,AMSA24.JPG,AMNE26.JPG,AMSA21.JPG,AMNE25.JPG,,,,,,,,,,,,,,,,,,,,,0,0,0,3,,,AFSA09.jpg,AFSA08.jpg,AFNE09.jpg,AFNE05.jpg,AFNE09.jpg,FN,3,num_2,32,num_8,0.833503592527,,,2018_Feb_09_1224,60.0056390921,MAFE4ImagesEEG,001,102587,
AFNE23.JPG,AFNE24.JPG,AFNE22.JPG,AFSA24.JPG,AFSA22.JPG,AFSA23.JPG,,,,,,,,,,,,,,,,,,,,,0,1,1,8,,,AFNE07.jpg,AFNE10.jpg,AFSA08.jpg,AFSA07.jpg,AFNE07.jpg,FN,3,num_8,16,num_8,1.01675638277,,,2018_Feb_09_1224,60.0056390921,MAFE4ImagesEEG,001,102587,
AFSA25.JPG,AFNE24.JPG,AFSA24.JPG,AFNE21.JPG,AFSA21.JPG,AFNE25.JPG,,,,,,,,,,,,,,,,,,,,,0,2,2,2,,,AFNE03.jpg,AFSA05.jpg,AFSA11.jpg,AFNE07.jpg,AFSA11.jpg,FS,4,num_2,32,num_8,1.18345581833,,,2018_Feb_09_1224,60.0056390921,MAFE4ImagesEEG,001,102587,
AFSA21.JPG,AFNE23.JPG,AFNE21.JPG,AFSA25.JPG,AFNE25.JPG,AFSA23.JPG,,,,,,,,,,,,,,,,,,,,,0,3,3,4,,,AFSA10.jpg,AFNE02.jpg,AFNE09.jpg,AFSA05.jpg,AFNE09.jpg,FN,3,num_2,16,num_2,1.16686974815,,,2018_Feb_09_1224,60.0056390921,MAFE4ImagesEEG,001,102587,
AMNE22.JPG,AMSA24.JPG,AMSA22.JPG,AMNE25.JPG,AMNE24.JPG,AMSA25.JPG,,,,,,,,,,,,,,,,,,,,,0,4,4,7,,,AFSA12.jpg,AFNE11.jpg,AFNE15.jpg,AFSA07.jpg,AFNE11.jpg,FN,3,num_6,32,num_8,0.850154772634,,,2018_Feb_09_1224,60.0056390921,MAFE4ImagesEEG,001,102587,
AFSA21.JPG,AFNE22.JPG,AFNE21.JPG,AFSA23.JPG,AFSA22.JPG,AFNE23.JPG,,,,,,,,,,,,,,,,,,,,,0,5,5,0,,,AFSA07.jpg,AFNE01.jpg,AFNE14.jpg,AFSA18.jpg,AFNE14.jpg,FN,3,num_2,32,num_8,1.2334356599,,,2018_Feb_09_1224,60.0056390921,MAFE4ImagesEEG,001,102587,
AMNE23.JPG,AMNE24.JPG,AMNE22.JPG,AMSA24.JPG,AMSA22.JPG,AMSA23.JPG,,,,,,,,,,,,,,,,,,,,,0,6,6,9,,,AFSA06.jpg,AFNE04.jpg,AFNE01.jpg,AFSA08.jpg,AFNE04.jpg,FN,3,num_6,16,num_6,0.700438482687,,,2018_Feb_09_1224,60.0056390921,MAFE4ImagesEEG,001,102587,
AMSA21.JPG,AMNE22.JPG,AMNE21.JPG,AMSA23.JPG,AMSA22.JPG,AMNE23.JPG,,,,,,,,,,,,,,,,,,,,,0,7,7,1,,,AFSA19.jpg,AFNE15.jpg,AFSA13.jpg,AFNE14.jpg,AFSA19.jpg,FS,4,num_8,32,num_2,1.63342770538,,,2018_Feb_09_1224,60.0056390921,MAFE4ImagesEEG,001,102587,
AMSA21.JPG,AMNE23.JPG,AMNE21.JPG,AMSA25.JPG,AMNE25.JPG,AMSA23.JPG,,,,,,,,,,,,,,,,,,,,,0,8,8,5,,,AFNE16.jpg,AFSA08.jpg,AFSA04.jpg,AFNE20.jpg,AFNE16.jpg,FN,3,num_8,32,num_4,1.15010855417,,,2018_Feb_09_1224,60.0056390921,MAFE4ImagesEEG,001,102587,
AFNE22.JPG,AFSA24.JPG,AFSA22.JPG,AFNE25.JPG,AFNE24.JPG,AFSA25.JPG,,,,,,,,,,,,,,,,,,,,,0,9,9,6,,,AFSA01.jpg,AFNE12.jpg,AFNE03.jpg,AFSA17.jpg,AFNE03.jpg,FN,3,num_2,32,num_4,0.783440038096,,,2018_Feb_09_1224,60.0056390921,MAFE4ImagesEEG,001,102587,
,,,,,,,,,,,,,,,,,,,,,,,,,,,,,,,,,,,,,,,,,,,space,16.598732695,2018_Feb_09_1224,60.0056390921,MAFE4ImagesEEG,001,102587,
AFNE01.JPG,AFNE01.JPG,AFNE01.JPG,AFNE01.JPG,AFNE01.JPG,AFNE01.JPG,0,0,0,1,,,,,,,,,,,,,,,,,,,,,,,AMSA11.jpg,AMNE05.jpg,AMNE02.jpg,AMSA19.jpg,AMNE02.jpg,MN,1,num_2,32,num_4,0.766805856721,,,2018_Feb_09_1224,60.0056390921,MAFE4ImagesEEG,001,102587,
AFNE01.JPG,AFNE01.JPG,AFNE01.JPG,AFNE01.JPG,AFNE01.JPG,AFNE01.JPG,0,1,1,5,,,,,,,,,,,,,,,,,,,,,,,AMSA04.jpg,AMNE16.jpg,AMNE20.jpg,AMSA12.jpg,AMSA04.jpg,MS,2,num_8,32,num_6,1.08314396348,,,2018_Feb_09_1224,60.0056390921,MAFE4ImagesEEG,001,102587,
AFNE01.JPG,AFNE01.JPG,AFNE01.JPG,AFNE01.JPG,AFNE01.JPG,AFNE01.JPG,0,2,2,8,,,,,,,,,,,,,,,,,,,,,,,AMNE11.jpg,AMSA16.jpg,AMNE18.jpg,AMSA10.jpg,AMNE11.jpg,MN,1,num_8,32,num_4,0.966812464176,,,2018_Feb_09_1224,60.0056390921,MAFE4ImagesEEG,001,102587,
AFNE01.JPG,AFNE01.JPG,AFNE01.JPG,AFNE01.JPG,AFNE01.JPG,AFNE01.JPG,0,3,3,9,,,,,,,,,,,,,,,,,,,,,,,AMSA09.jpg,AMNE18.jpg,AMSA20.jpg,AMNE06.jpg,AMSA20.jpg,MS,2,num_2,16,num_2,1.23343020724,,,2018_Feb_09_1224,60.0056390921,MAFE4ImagesEEG,001,102587,
AFNE01.JPG,AFNE01.JPG,AFNE01.JPG,AFNE01.JPG,AFNE01.JPG,AFNE01.JPG,0,4,4,2,,,,,,,,,,,,,,,,,,,,,,,AMSA20.jpg,AMSA10.jpg,AMNE02.jpg,AMNE05.jpg,AMNE02.jpg,MN,1,num_2,16,num_2,1.11706342641,,,2018_Feb_09_1224,60.0056390921,MAFE4ImagesEEG,001,102587,
AFNE01.JPG,AFNE01.JPG,AFNE01.JPG,AFNE01.JPG,AFNE01.JPG,AFNE01.JPG,0,5,5,6,,,,,,,,,,,,,,,,,,,,,,,AMSA02.jpg,AMNE13.jpg,AMNE18.jpg,AMSA06.jpg,AMNE13.jpg,MN,1,num_6,16,num_6,1.4167134678,,,2018_Feb_09_1224,60.0056390921,MAFE4ImagesEEG,001,102587,
AFNE01.JPG,AFNE01.JPG,AFNE01.JPG,AFNE01.JPG,AFNE01.JPG,AFNE01.JPG,0,6,6,4,,,,,,,,,,,,,,,,,,,,,,,AMSA10.jpg,AMNE18.jpg,AMSA17.jpg,AMNE17.jpg,AMSA10.jpg,MS,2,num_8,16,num_8,1.56672612112,,,2018_Feb_09_1224,60.0056390921,MAFE4ImagesEEG,001,102587,
AFNE01.JPG,AFNE01.JPG,AFNE01.JPG,AFNE01.JPG,AFNE01.JPG,AFNE01.JPG,0,7,7,0,,,,,,,,,,,,,,,,,,,,,,,AMSA20.jpg,AMNE14.jpg,AMNE07.jpg,AMSA19.jpg,AMNE07.jpg,MN,1,num_2,32,num_8,2.68330811779,,,2018_Feb_09_1224,60.0056390921,MAFE4ImagesEEG,001,102587,
AFNE01.JPG,AFNE01.JPG,AFNE01.JPG,AFNE01.JPG,AFNE01.JPG,AFNE01.JPG,0,8,8,3,,,,,,,,,,,,,,,,,,,,,,,AMSA08.jpg,AMNE09.jpg,AMNE08.jpg,AMSA18.jpg,AMNE08.jpg,MN,1,num_2,32,num_8,1.21677197074,,,2018_Feb_09_1224,60.0056390921,MAFE4ImagesEEG,001,102587,
AFNE01.JPG,AFNE01.JPG,AFNE01.JPG,AFNE01.JPG,AFNE01.JPG,AFNE01.JPG,0,9,9,7,,,,,,,,,,,,,,,,,,,,,,,AMSA06.jpg,AMNE12.jpg,AMNE15.jpg,AMSA07.jpg,AMNE12.jpg,MN,1,num_6,32,num_2,2.7833232889,,,2018_Feb_09_1224,60.0056390921,MAFE4ImagesEEG,001,102587,
AFNE01.JPG,AFNE01.JPG,AFNE01.JPG,AFNE01.JPG,AFNE01.JPG,AFNE01.JPG,1,0,10,7,,,,,,,,,,,,,,,,,,,,,,,AMNE15.jpg,AMNE07.jpg,AMSA17.jpg,AMSA13.jpg,AMNE15.jpg,MN,1,num_8,16,num_8,0.833527968498,,,2018_Feb_09_1224,60.0056390921,MAFE4ImagesEEG,001,102587,
AFNE01.JPG,AFNE01.JPG,AFNE01.JPG,AFNE01.JPG,AFNE01.JPG,AFNE01.JPG,1,1,11,4,,,,,,,,,,,,,,,,,,,,,,,AMNE06.jpg,AMSA01.jpg,AMNE13.jpg,AMSA19.jpg,AMSA19.jpg,MS,2,num_4,16,num_4,0.616833296139,,,2018_Feb_09_1224,60.0056390921,MAFE4ImagesEEG,001,102587,
AFNE01.JPG,AFNE01.JPG,AFNE01.JPG,AFNE01.JPG,AFNE01.JPG,AFNE01.JPG,1,2,12,8,,,,,,,,,,,,,,,,,,,,,,,AMNE17.jpg,AMSA16.jpg,AMSA10.jpg,AMNE19.jpg,AMNE17.jpg,MN,1,num_8,16,num_8,1.35007506912,,,2018_Feb_09_1224,60.0056390921,MAFE4ImagesEEG,001,102587,
AFNE01.JPG,AFNE01.JPG,AFNE01.JPG,AFNE01.JPG,AFNE01.JPG,AFNE01.JPG,1,3,13,0,,,,,,,,,,,,,,,,,,,,,,,AMNE07.jpg,AMSA19.jpg,AMSA03.jpg,AMNE18.jpg,AMNE07.jpg,MN,1,num_8,32,num_4,2.13364628935,,,2018_Feb_09_1224,60.0056390921,MAFE4ImagesEEG,001,102587,
AFNE01.JPG,AFNE01.JPG,AFNE01.JPG,AFNE01.JPG,AFNE01.JPG,AFNE01.JPG,1,4,14,9,,,,,,,,,,,,,,,,,,,,,,,AMNE19.jpg,AMSA01.jpg,AMSA04.jpg,AMNE09.jpg,AMSA04.jpg,MS,2,num_2,16,num_2,1.23343630135,,,2018_Feb_09_1224,60.0056390921,MAFE4ImagesEEG,001,102587,
AFNE01.JPG,AFNE01.JPG,AFNE01.JPG,AFNE01.JPG,AFNE01.JPG,AFNE01.JPG,1,5,15,1,,,,,,,,,,,,,,,,,,,,,,,AMSA05.jpg,AMSA13.jpg,AMNE17.jpg,AMNE13.jpg,AMSA05.jpg,MS,2,num_8,32,num_4,1.13343941257,,,2018_Feb_09_1224,60.0056390921,MAFE4ImagesEEG,001,102587,
AFNE01.JPG,AFNE01.JPG,AFNE01.JPG,AFNE01.JPG,AFNE01.JPG,AFNE01.JPG,1,6,16,6,,,,,,,,,,,,,,,,,,,,,,,AMNE13.jpg,AMNE17.jpg,AMSA13.jpg,AMSA02.jpg,AMSA02.jpg,MS,2,num_4,16,num_4,1.08342044079,,,2018_Feb_09_1224,60.0056390921,MAFE4ImagesEEG,001,102587,
AFNE01.JPG,AFNE01.JPG,AFNE01.JPG,AFNE01.JPG,AFNE01.JPG,AFNE01.JPG,1,7,17,5,,,,,,,,,,,,,,,,,,,,,,,AMNE06.jpg,AMSA07.jpg,AMSA19.jpg,AMNE18.jpg,AMNE06.jpg,MN,1,num_8,32,num_4,1.01676408038,,,2018_Feb_09_1224,60.0056390921,MAFE4ImagesEEG,001,102587,
AFNE01.JPG,AFNE01.JPG,AFNE01.JPG,AFNE01.JPG,AFNE01.JPG,AFNE01.JPG,1,8,18,3,,,,,,,,,,,,,,,,,,,,,,,AMNE12.jpg,AMNE05.jpg,AMSA13.jpg,AMSA07.jpg,AMSA07.jpg,MS,2,num_4,32,num_8,1.4834237122,,,2018_Feb_09_1224,60.0056390921,MAFE4ImagesEEG,001,102587,
AFNE01.JPG,AFNE01.JPG,AFNE01.JPG,AFNE01.JPG,AFNE01.JPG,AFNE01.JPG,1,9,19,2,,,,,,,,,,,,,,,,,,,,,,,AMNE06.jpg,AMSA12.jpg,AMNE12.jpg,AMSA05.jpg,AMNE06.jpg,MN,1,num_8,16,num_8,0.816782170208,,,2018_Feb_09_1224,60.0056390921,MAFE4ImagesEEG,001,102587,
AFNE01.JPG,AFNE01.JPG,AFNE01.JPG,AFNE01.JPG,AFNE01.JPG,AFNE01.JPG,2,0,20,2,,,,,,,,,,,,,,,,,,,,,,,AMSA10.jpg,AMNE20.jpg,AMSA15.jpg,AMNE14.jpg,AMSA10.jpg,MS,2,num_8,16,num_8,1.36671855161,,,2018_Feb_09_1224,60.0056390921,MAFE4ImagesEEG,001,102587,
AFNE01.JPG,AFNE01.JPG,AFNE01.JPG,AFNE01.JPG,AFNE01.JPG,AFNE01.JPG,2,1,21,8,,,,,,,,,,,,,,,,,,,,,,,AMNE12.jpg,AMSA13.jpg,AMNE04.jpg,AMSA04.jpg,AMSA04.jpg,MS,2,num_4,16,num_4,0.766923247371,,,2018_Feb_09_1224,60.0056390921,MAFE4ImagesEEG,001,102587,
AFNE01.JPG,AFNE01.JPG,AFNE01.JPG,AFNE01.JPG,AFNE01.JPG,AFNE01.JPG,2,2,22,1,,,,,,,,,,,,,,,,,,,,,,,AMNE07.jpg,AMNE14.jpg,AMSA08.jpg,AMSA20.jpg,AMNE14.jpg,MN,1,num_6,16,num_6,1.11685366323,,,2018_Feb_09_1224,60.0056390921,MAFE4ImagesEEG,001,102587,
AFNE01.JPG,AFNE01.JPG,AFNE01.JPG,AFNE01.JPG,AFNE01.JPG,AFNE01.JPG,2,3,23,6,,,,,,,,,,,,,,,,,,,,,,,AMSA16.jpg,AMSA09.jpg,AMNE05.jpg,AMNE15.jpg,AMSA09.jpg,MS,2,num_6,32,num_4,1.53350266232,,,2018_Feb_09_1224,60.0056390921,MAFE4ImagesEEG,001,102587,
AFNE01.JPG,AFNE01.JPG,AFNE01.JPG,AFNE01.JPG,AFNE01.JPG,AFNE01.JPG,2,4,24,3,,,,,,,,,,,,,,,,,,,,,,,AMNE04.jpg,AMSA13.jpg,AMSA14.jpg,AMNE01.jpg,AMSA14.jpg,MS,2,num_2,16,num_2,1.10016014497,,,2018_Feb_09_1224,60.0056390921,MAFE4ImagesEEG,001,102587,
AFNE01.JPG,AFNE01.JPG,AFNE01.JPG,AFNE01.JPG,AFNE01.JPG,AFNE01.JPG,2,5,25,7,,,,,,,,,,,,,,,,,,,,,,,AMSA16.jpg,AMNE09.jpg,AMSA15.jpg,AMNE10.jpg,AMNE10.jpg,MN,1,num_4,32,num_6,1.03345888131,,,2018_Feb_09_1224,60.0056390921,MAFE4ImagesEEG,001,102587,
AFNE01.JPG,AFNE01.JPG,AFNE01.JPG,AFNE01.JPG,AFNE01.JPG,AFNE01.JPG,2,6,26,4,,,,,,,,,,,,,,,,,,,,,,,AMNE08.jpg,AMNE12.jpg,AMSA20.jpg,AMSA11.jpg,AMNE12.jpg,MN,1,num_6,32,num_2,1.16672926419,,,2018_Feb_09_1224,60.0056390921,MAFE4ImagesEEG,001,102587,
AFNE01.JPG,AFNE01.JPG,AFNE01.JPG,AFNE01.JPG,AFNE01.JPG,AFNE01.JPG,2,7,27,5,,,,,,,,,,,,,,,,,,,,,,,AMSA12.jpg,AMNE12.jpg,AMNE06.jpg,AMSA16.jpg,AMNE06.jpg,MN,1,num_2,16,num_2,0.600181795191,,,2018_Feb_09_1224,60.0056390921,MAFE4ImagesEEG,001,102587,
AFNE01.JPG,AFNE01.JPG,AFNE01.JPG,AFNE01.JPG,AFNE01.JPG,AFNE01.JPG,2,8,28,0,,,,,,,,,,,,,,,,,,,,,,,AMSA19.jpg,AMNE04.jpg,AMSA14.jpg,AMNE02.jpg,AMSA19.jpg,MS,2,num_8,32,num_6,1.50007874146,,,2018_Feb_09_1224,60.0056390921,MAFE4ImagesEEG,001,102587,
AFNE01.JPG,AFNE01.JPG,AFNE01.JPG,AFNE01.JPG,AFNE01.JPG,AFNE01.JPG,2,9,29,9,,,,,,,,,,,,,,,,,,,,,,,AMSA06.jpg,AMNE09.jpg,AMSA17.jpg,AMNE07.jpg,AMNE09.jpg,MN,1,num_6,32,num_8,1.50011498504,,,2018_Feb_09_1224,60.0056390921,MAFE4ImagesEEG,001,102587,
AFNE01.JPG,AFNE01.JPG,AFNE01.JPG,AFNE01.JPG,AFNE01.JPG,AFNE01.JPG,3,0,30,6,,,,,,,,,,,,,,,,,,,,,,,AMSA18.jpg,AMSA09.jpg,AMNE12.jpg,AMNE07.jpg,AMNE12.jpg,MN,1,num_2,32,num_8,1.0836045451,,,2018_Feb_09_1224,60.0056390921,MAFE4ImagesEEG,001,102587,
AFNE01.JPG,AFNE01.JPG,AFNE01.JPG,AFNE01.JPG,AFNE01.JPG,AFNE01.JPG,3,1,31,4,,,,,,,,,,,,,,,,,,,,,,,AMSA20.jpg,AMNE11.jpg,AMSA05.jpg,AMNE07.jpg,AMNE11.jpg,MN,1,num_6,32,num_4,1.40012290725,,,2018_Feb_09_1224,60.0056390921,MAFE4ImagesEEG,001,102587,
AFNE01.JPG,AFNE01.JPG,AFNE01.JPG,AFNE01.JPG,AFNE01.JPG,AFNE01.JPG,3,2,32,8,,,,,,,,,,,,,,,,,,,,,,,AMSA01.jpg,AMNE18.jpg,AMSA11.jpg,AMNE16.jpg,AMNE16.jpg,MN,1,num_4,16,num_4,1.21642749687,,,2018_Feb_09_1224,60.0056390921,MAFE4ImagesEEG,001,102587,
AFNE01.JPG,AFNE01.JPG,AFNE01.JPG,AFNE01.JPG,AFNE01.JPG,AFNE01.JPG,3,3,33,9,,,,,,,,,,,,,,,,,,,,,,,AMNE08.jpg,AMNE04.jpg,AMSA16.jpg,AMSA20.jpg,AMSA16.jpg,MS,2,num_2,32,num_4,1.13355391636,,,2018_Feb_09_1224,60.0056390921,MAFE4ImagesEEG,001,102587,
AFNE01.JPG,AFNE01.JPG,AFNE01.JPG,AFNE01.JPG,AFNE01.JPG,AFNE01.JPG,3,4,34,7,,,,,,,,,,,,,,,,,,,,,,,AMSA04.jpg,AMNE06.jpg,AMSA10.jpg,AMNE12.jpg,AMSA10.jpg,MS,2,num_2,32,num_4,1.2337644177,,,2018_Feb_09_1224,60.0056390921,MAFE4ImagesEEG,001,102587,
AFNE01.JPG,AFNE01.JPG,AFNE01.JPG,AFNE01.JPG,AFNE01.JPG,AFNE01.JPG,3,5,35,3,,,,,,,,,,,,,,,,,,,,,,,AMNE12.jpg,AMSA20.jpg,AMSA17.jpg,AMNE16.jpg,AMNE12.jpg,MN,1,num_8,16,num_8,1.2165984509,,,2018_Feb_09_1224,60.0056390921,MAFE4ImagesEEG,001,102587,
AFNE01.JPG,AFNE01.JPG,AFNE01.JPG,AFNE01.JPG,AFNE01.JPG,AFNE01.JPG,3,6,36,0,,,,,,,,,,,,,,,,,,,,,,,AMNE02.jpg,AMSA06.jpg,AMSA11.jpg,AMNE03.jpg,AMSA11.jpg,MS,2,num_2,16,num_2,0.866764256964,,,2018_Feb_09_1224,60.0056390921,MAFE4ImagesEEG,001,102587,
AFNE01.JPG,AFNE01.JPG,AFNE01.JPG,AFNE01.JPG,AFNE01.JPG,AFNE01.JPG,3,7,37,5,,,,,,,,,,,,,,,,,,,,,,,AMSA19.jpg,AMNE03.jpg,AMNE15.jpg,AMSA06.jpg,AMNE03.jpg,MN,1,num_6,16,num_6,1.38343035174,,,2018_Feb_09_1224,60.0056390921,MAFE4ImagesEEG,001,102587,
AFNE01.JPG,AFNE01.JPG,AFNE01.JPG,AFNE01.JPG,AFNE01.JPG,AFNE01.JPG,3,8,38,2,,,,,,,,,,,,,,,,,,,,,,,AMSA12.jpg,AMSA17.jpg,AMNE12.jpg,AMNE07.jpg,AMNE07.jpg,MN,1,num_4,16,num_4,1.03358012089,,,2018_Feb_09_1224,60.0056390921,MAFE4ImagesEEG,001,102587,
AFNE01.JPG,AFNE01.JPG,AFNE01.JPG,AFNE01.JPG,AFNE01.JPG,AFNE01.JPG,3,9,39,1,,,,,,,,,,,,,,,,,,,,,,,AMSA05.jpg,AMNE15.jpg,AMSA19.jpg,AMNE08.jpg,AMSA19.jpg,MS,2,num_2,32,num_8,1.18341957475,,,2018_Feb_09_1224,60.0056390921,MAFE4ImagesEEG,001,102587,
AFNE01.JPG,AFNE01.JPG,AFNE01.JPG,AFNE01.JPG,AFNE01.JPG,AFNE01.JPG,4,0,40,0,,,,,,,,,,,,,,,,,,,,,,,AMNE05.jpg,AMNE11.jpg,AMSA05.jpg,AMSA01.jpg,AMNE05.jpg,MN,1,num_8,32,num_6,2.81664104504,,,2018_Feb_09_1224,60.0056390921,MAFE4ImagesEEG,001,102587,
AFNE01.JPG,AFNE01.JPG,AFNE01.JPG,AFNE01.JPG,AFNE01.JPG,AFNE01.JPG,4,1,41,8,,,,,,,,,,,,,,,,,,,,,,,AMNE11.jpg,AMSA05.jpg,AMNE19.jpg,AMSA20.jpg,AMSA05.jpg,MS,2,num_6,32,num_8,0.966761145741,,,2018_Feb_09_1224,60.0056390921,MAFE4ImagesEEG,001,102587,
AFNE01.JPG,AFNE01.JPG,AFNE01.JPG,AFNE01.JPG,AFNE01.JPG,AFNE01.JPG,4,2,42,9,,,,,,,,,,,,,,,,,,,,,,,AMNE20.jpg,AMNE07.jpg,AMSA01.jpg,AMSA17.jpg,AMSA17.jpg,MS,2,num_4,32,num_8,2.30008592596,,,2018_Feb_09_1224,60.0056390921,MAFE4ImagesEEG,001,102587,
AFNE01.JPG,AFNE01.JPG,AFNE01.JPG,AFNE01.JPG,AFNE01.JPG,AFNE01.JPG,4,3,43,5,,,,,,,,,,,,,,,,,,,,,,,AMNE01.jpg,AMNE10.jpg,AMSA08.jpg,AMSA13.jpg,AMSA13.jpg,MS,2,num_4,32,num_8,2.2166581084,,,2018_Feb_09_1224,60.0056390921,MAFE4ImagesEEG,001,102587,
AFNE01.JPG,AFNE01.JPG,AFNE01.JPG,AFNE01.JPG,AFNE01.JPG,AFNE01.JPG,4,4,44,6,,,,,,,,,,,,,,,,,,,,,,,AMNE20.jpg,AMSA14.jpg,AMSA09.jpg,AMNE15.jpg,AMNE15.jpg,MN,1,num_4,16,num_4,1.38354421407,,,2018_Feb_09_1224,60.0056390921,MAFE4ImagesEEG,001,102587,
AFNE01.JPG,AFNE01.JPG,AFNE01.JPG,AFNE01.JPG,AFNE01.JPG,AFNE01.JPG,4,5,45,3,,,,,,,,,,,,,,,,,,,,,,,AMSA11.jpg,AMSA09.jpg,AMNE02.jpg,AMNE20.jpg,AMSA11.jpg,MS,2,num_8,32,num_2,1.43327003019,,,2018_Feb_09_1224,60.0056390921,MAFE4ImagesEEG,001,102587,
AFNE01.JPG,AFNE01.JPG,AFNE01.JPG,AFNE01.JPG,AFNE01.JPG,AFNE01.JPG,4,6,46,7,,,,,,,,,,,,,,,,,,,,,,,AMSA08.jpg,AMSA06.jpg,AMNE19.jpg,AMNE12.jpg,AMNE12.jpg,MN,1,num_4,32,num_2,1.06673494144,,,2018_Feb_09_1224,60.0056390921,MAFE4ImagesEEG,001,102587,
AFNE01.JPG,AFNE01.JPG,AFNE01.JPG,AFNE01.JPG,AFNE01.JPG,AFNE01.JPG,4,7,47,4,,,,,,,,,,,,,,,,,,,,,,,AMNE14.jpg,AMNE15.jpg,AMSA13.jpg,AMSA02.jpg,AMSA02.jpg,MS,2,num_4,16,num_4,0.85009383224,,,2018_Feb_09_1224,60.0056390921,MAFE4ImagesEEG,001,102587,
AFNE01.JPG,AFNE01.JPG,AFNE01.JPG,AFNE01.JPG,AFNE01.JPG,AFNE01.JPG,4,8,48,2,,,,,,,,,,,,,,,,,,,,,,,AMNE12.jpg,AMSA13.jpg,AMNE17.jpg,AMSA20.jpg,AMSA13.jpg,MS,2,num_6,16,num_6,0.800133876735,,,2018_Feb_09_1224,60.0056390921,MAFE4ImagesEEG,001,102587,
AFNE01.JPG,AFNE01.JPG,AFNE01.JPG,AFNE01.JPG,AFNE01.JPG,AFNE01.JPG,4,9,49,1,,,,,,,,,,,,,,,,,,,,,,,AMSA13.jpg,AMNE11.jpg,AMSA10.jpg,AMNE15.jpg,AMNE11.jpg,MN,1,num_6,16,num_6,1.43346792622,,,2018_Feb_09_1224,60.0056390921,MAFE4ImagesEEG,001,102587,
AFNE01.JPG,AFNE01.JPG,AFNE01.JPG,AFNE01.JPG,AFNE01.JPG,AFNE01.JPG,5,0,50,0,,,,,,,,,,,,,,,,,,,,,,,AMSA02.jpg,AMSA04.jpg,AMNE17.jpg,AMNE13.jpg,AMNE17.jpg,MN,1,num_2,32,num_8,0.983445683029,,,2018_Feb_09_1224,60.0056390921,MAFE4ImagesEEG,001,102587,
AFNE01.JPG,AFNE01.JPG,AFNE01.JPG,AFNE01.JPG,AFNE01.JPG,AFNE01.JPG,5,1,51,1,,,,,,,,,,,,,,,,,,,,,,,AMSA14.jpg,AMNE15.jpg,AMNE12.jpg,AMSA02.jpg,AMSA02.jpg,MS,2,num_4,16,num_4,0.616815014044,,,2018_Feb_09_1224,60.0056390921,MAFE4ImagesEEG,001,102587,
AFNE01.JPG,AFNE01.JPG,AFNE01.JPG,AFNE01.JPG,AFNE01.JPG,AFNE01.JPG,5,2,52,6,,,,,,,,,,,,,,,,,,,,,,,AMSA14.jpg,AMSA17.jpg,AMNE10.jpg,AMNE06.jpg,AMSA14.jpg,MS,2,num_8,16,num_8,0.850127188955,,,2018_Feb_09_1224,60.0056390921,MAFE4ImagesEEG,001,102587,
AFNE01.JPG,AFNE01.JPG,AFNE01.JPG,AFNE01.JPG,AFNE01.JPG,AFNE01.JPG,5,3,53,5,,,,,,,,,,,,,,,,,,,,,,,AMSA10.jpg,AMNE13.jpg,AMSA05.jpg,AMNE06.jpg,AMNE13.jpg,MN,1,num_6,16,num_6,0.866786387749,,,2018_Feb_09_1224,60.0056390921,MAFE4ImagesEEG,001,102587,
AFNE01.JPG,AFNE01.JPG,AFNE01.JPG,AFNE01.JPG,AFNE01.JPG,AFNE01.JPG,5,4,54,8,,,,,,,,,,,,,,,,,,,,,,,AMNE07.jpg,AMNE15.jpg,AMSA17.jpg,AMSA02.jpg,AMNE15.jpg,MN,1,num_6,16,num_6,1.16677545058,,,2018_Feb_09_1224,60.0056390921,MAFE4ImagesEEG,001,102587,
AFNE01.JPG,AFNE01.JPG,AFNE01.JPG,AFNE01.JPG,AFNE01.JPG,AFNE01.JPG,5,5,55,7,,,,,,,,,,,,,,,,,,,,,,,AMSA03.jpg,AMSA09.jpg,AMNE11.jpg,AMNE15.jpg,AMNE15.jpg,MN,1,num_4,16,num_4,0.700215568766,,,2018_Feb_09_1224,60.0056390921,MAFE4ImagesEEG,001,102587,
AFNE01.JPG,AFNE01.JPG,AFNE01.JPG,AFNE01.JPG,AFNE01.JPG,AFNE01.JPG,5,6,56,4,,,,,,,,,,,,,,,,,,,,,,,AMNE18.jpg,AMNE19.jpg,AMSA15.jpg,AMSA02.jpg,AMSA15.jpg,MS,2,num_2,16,num_2,1.68342454638,,,2018_Feb_09_1224,60.0056390921,MAFE4ImagesEEG,001,102587,
AFNE01.JPG,AFNE01.JPG,AFNE01.JPG,AFNE01.JPG,AFNE01.JPG,AFNE01.JPG,5,7,57,3,,,,,,,,,,,,,,,,,,,,,,,AMSA02.jpg,AMSA05.jpg,AMNE16.jpg,AMNE09.jpg,AMNE16.jpg,MN,1,num_2,16,num_2,1.01676504267,,,2018_Feb_09_1224,60.0056390921,MAFE4ImagesEEG,001,102587,
AFNE01.JPG,AFNE01.JPG,AFNE01.JPG,AFNE01.JPG,AFNE01.JPG,AFNE01.JPG,5,8,58,9,,,,,,,,,,,,,,,,,,,,,,,AMSA13.jpg,AMSA20.jpg,AMNE16.jpg,AMNE05.jpg,AMSA13.jpg,MS,2,num_8,32,num_2,1.38341078651,,,2018_Feb_09_1224,60.0056390921,MAFE4ImagesEEG,001,102587,
AFNE01.JPG,AFNE01.JPG,AFNE01.JPG,AFNE01.JPG,AFNE01.JPG,AFNE01.JPG,5,9,59,2,,,,,,,,,,,,,,,,,,,,,,,AMNE18.jpg,AMNE20.jpg,AMSA11.jpg,AMSA01.jpg,AMNE20.jpg,MN,1,num_6,32,num_2,1.18344106432,,,2018_Feb_09_1224,60.0056390921,MAFE4ImagesEEG,001,102587,
,,,,,,,,,,,,,,,,,,,,,,,,,,,,,,,,,,,,,,,,,,,space,15.482266485,2018_Feb_09_1224,60.0056390921,MAFE4ImagesEEG,001,102587,
AFNE01.JPG,AFNE01.JPG,AFNE01.JPG,AFNE01.JPG,AFNE01.JPG,AFNE01.JPG,,,,,0,0,0,2,,,,,,,,,,,,,,,,,,,AFNE01.jpg,AFSA12.jpg,AFNE15.jpg,AFSA08.jpg,AFSA08.jpg,FS,4,num_4,16,num_4,1.18346576137,,,2018_Feb_09_1224,60.0056390921,MAFE4ImagesEEG,001,102587,
AFNE01.JPG,AFNE01.JPG,AFNE01.JPG,AFNE01.JPG,AFNE01.JPG,AFNE01.JPG,,,,,0,1,1,0,,,,,,,,,,,,,,,,,,,AFNE01.jpg,AFSA19.jpg,AFNE02.jpg,AFSA01.jpg,AFSA19.jpg,FS,4,num_6,32,num_8,0.800135159632,,,2018_Feb_09_1224,60.0056390921,MAFE4ImagesEEG,001,102587,
AFNE01.JPG,AFNE01.JPG,AFNE01.JPG,AFNE01.JPG,AFNE01.JPG,AFNE01.JPG,,,,,0,2,2,5,,,,,,,,,,,,,,,,,,,AFSA14.jpg,AFNE02.jpg,AFSA01.jpg,AFNE03.jpg,AFNE02.jpg,FN,3,num_6,32,num_4,0.966798351379,,,2018_Feb_09_1224,60.0056390921,MAFE4ImagesEEG,001,102587,
AFNE01.JPG,AFNE01.JPG,AFNE01.JPG,AFNE01.JPG,AFNE01.JPG,AFNE01.JPG,,,,,0,3,3,8,,,,,,,,,,,,,,,,,,,AFNE08.jpg,AFSA10.jpg,AFSA01.jpg,AFNE01.jpg,AFSA01.jpg,FS,4,num_2,32,num_4,1.06673558289,,,2018_Feb_09_1224,60.0056390921,MAFE4ImagesEEG,001,102587,
AFNE01.JPG,AFNE01.JPG,AFNE01.JPG,AFNE01.JPG,AFNE01.JPG,AFNE01.JPG,,,,,0,4,4,6,,,,,,,,,,,,,,,,,,,AFSA12.jpg,AFSA13.jpg,AFNE12.jpg,AFNE05.jpg,AFSA12.jpg,FS,4,num_8,32,num_2,1.28341069026,,,2018_Feb_09_1224,60.0056390921,MAFE4ImagesEEG,001,102587,
AFNE01.JPG,AFNE01.JPG,AFNE01.JPG,AFNE01.JPG,AFNE01.JPG,AFNE01.JPG,,,,,0,5,5,4,,,,,,,,,,,,,,,,,,,AFNE12.jpg,AFSA05.jpg,AFNE07.jpg,AFSA20.jpg,AFSA20.jpg,FS,4,num_4,16,num_4,0.866802104283,,,2018_Feb_09_1224,60.0056390921,MAFE4ImagesEEG,001,102587,
AFNE01.JPG,AFNE01.JPG,AFNE01.JPG,AFNE01.JPG,AFNE01.JPG,AFNE01.JPG,,,,,0,6,6,9,,,,,,,,,,,,,,,,,,,AFNE14.jpg,AFSA19.jpg,AFNE19.jpg,AFSA14.jpg,AFNE14.jpg,FN,3,num_8,32,num_4,0.733470460167,,,2018_Feb_09_1224,60.0056390921,MAFE4ImagesEEG,001,102587,
AFNE01.JPG,AFNE01.JPG,AFNE01.JPG,AFNE01.JPG,AFNE01.JPG,AFNE01.JPG,,,,,0,7,7,7,,,,,,,,,,,,,,,,,,,AFNE15.jpg,AFSA06.jpg,AFNE03.jpg,AFSA11.jpg,AFSA06.jpg,FS,4,num_6,16,num_6,0.916778096929,,,2018_Feb_09_1224,60.0056390921,MAFE4ImagesEEG,001,102587,
AFNE01.JPG,AFNE01.JPG,AFNE01.JPG,AFNE01.JPG,AFNE01.JPG,AFNE01.JPG,,,,,0,8,8,3,,,,,,,,,,,,,,,,,,,AFSA13.jpg,AFNE19.jpg,AFSA17.jpg,AFNE13.jpg,AFNE19.jpg,FN,3,num_6,32,num_8,0.883451680653,,,2018_Feb_09_1224,60.0056390921,MAFE4ImagesEEG,001,102587,
AFNE01.JPG,AFNE01.JPG,AFNE01.JPG,AFNE01.JPG,AFNE01.JPG,AFNE01.JPG,,,,,0,9,9,1,,,,,,,,,,,,,,,,,,,AFSA03.jpg,AFNE08.jpg,AFSA12.jpg,AFNE13.jpg,AFNE13.jpg,FN,3,num_4,32,num_8,1.15009861114,,,2018_Feb_09_1224,60.0056390921,MAFE4ImagesEEG,001,102587,
AFNE01.JPG,AFNE01.JPG,AFNE01.JPG,AFNE01.JPG,AFNE01.JPG,AFNE01.JPG,,,,,1,0,10,4,,,,,,,,,,,,,,,,,,,AFSA16.jpg,AFSA02.jpg,AFNE12.jpg,AFNE08.jpg,AFNE08.jpg,FN,3,num_4,16,num_4,1.36678398238,,,2018_Feb_09_1224,60.0056390921,MAFE4ImagesEEG,001,102587,
AFNE01.JPG,AFNE01.JPG,AFNE01.JPG,AFNE01.JPG,AFNE01.JPG,AFNE01.JPG,,,,,1,1,11,2,,,,,,,,,,,,,,,,,,,AFSA05.jpg,AFNE17.jpg,AFSA06.jpg,AFNE12.jpg,AFSA06.jpg,FS,4,num_2,16,num_2,0.816845997237,,,2018_Feb_09_1224,60.0056390921,MAFE4ImagesEEG,001,102587,
AFNE01.JPG,AFNE01.JPG,AFNE01.JPG,AFNE01.JPG,AFNE01.JPG,AFNE01.JPG,,,,,1,2,12,0,,,,,,,,,,,,,,,,,,,AFNE04.jpg,AFNE02.jpg,AFSA03.jpg,AFSA19.jpg,AFNE02.jpg,FN,3,num_6,32,num_8,1.16674433905,,,2018_Feb_09_1224,60.0056390921,MAFE4ImagesEEG,001,102587,
AFNE01.JPG,AFNE01.JPG,AFNE01.JPG,AFNE01.JPG,AFNE01.JPG,AFNE01.JPG,,,,,1,3,13,6,,,,,,,,,,,,,,,,,,,AFNE18.jpg,AFSA04.jpg,AFNE11.jpg,AFSA03.jpg,AFSA03.jpg,FS,4,num_4,32,num_6,1.16679661931,,,2018_Feb_09_1224,60.0056390921,MAFE4ImagesEEG,001,102587,
AFNE01.JPG,AFNE01.JPG,AFNE01.JPG,AFNE01.JPG,AFNE01.JPG,AFNE01.JPG,,,,,1,4,14,8,,,,,,,,,,,,,,,,,,,AFNE07.jpg,AFSA19.jpg,AFNE05.jpg,AFSA09.jpg,AFNE05.jpg,FN,3,num_2,32,num_6,0.95015390683,,,2018_Feb_09_1224,60.0056390921,MAFE4ImagesEEG,001,102587,
AFNE01.JPG,AFNE01.JPG,AFNE01.JPG,AFNE01.JPG,AFNE01.JPG,AFNE01.JPG,,,,,1,5,15,5,,,,,,,,,,,,,,,,,,,AFNE06.jpg,AFNE13.jpg,AFSA20.jpg,AFSA09.jpg,AFNE06.jpg,FN,3,num_8,32,num_2,1.08342204452,,,2018_Feb_09_1224,60.0056390921,MAFE4ImagesEEG,001,102587,
AFNE01.JPG,AFNE01.JPG,AFNE01.JPG,AFNE01.JPG,AFNE01.JPG,AFNE01.JPG,,,,,1,6,16,1,,,,,,,,,,,,,,,,,,,AFNE19.jpg,AFSA17.jpg,AFNE11.jpg,AFSA03.jpg,AFNE19.jpg,FN,3,num_8,32,num_2,0.966783276759,,,2018_Feb_09_1224,60.0056390921,MAFE4ImagesEEG,001,102587,
AFNE01.JPG,AFNE01.JPG,AFNE01.JPG,AFNE01.JPG,AFNE01.JPG,AFNE01.JPG,,,,,1,7,17,9,,,,,,,,,,,,,,,,,,,AFSA08.jpg,AFNE01.jpg,AFSA03.jpg,AFNE16.jpg,AFNE01.jpg,FN,3,num_6,32,num_2,1.76670161635,,,2018_Feb_09_1224,60.0056390921,MAFE4ImagesEEG,001,102587,
AFNE01.JPG,AFNE01.JPG,AFNE01.JPG,AFNE01.JPG,AFNE01.JPG,AFNE01.JPG,,,,,1,8,18,3,,,,,,,,,,,,,,,,,,,AFNE13.jpg,AFNE09.jpg,AFSA09.jpg,AFSA14.jpg,AFNE13.jpg,FN,3,num_8,16,num_8,1.83339486178,,,2018_Feb_09_1224,60.0056390921,MAFE4ImagesEEG,001,102587,
AFNE01.JPG,AFNE01.JPG,AFNE01.JPG,AFNE01.JPG,AFNE01.JPG,AFNE01.JPG,,,,,1,9,19,7,,,,,,,,,,,,,,,,,,,AFNE03.jpg,AFSA14.jpg,AFSA12.jpg,AFNE04.jpg,AFSA12.jpg,FS,4,num_2,16,num_2,0.933439540677,,,2018_Feb_09_1224,60.0056390921,MAFE4ImagesEEG,001,102587,
AFNE01.JPG,AFNE01.JPG,AFNE01.JPG,AFNE01.JPG,AFNE01.JPG,AFNE01.JPG,,,,,2,0,20,2,,,,,,,,,,,,,,,,,,,AFSA10.jpg,AFNE19.jpg,AFSA08.jpg,AFNE08.jpg,AFNE19.jpg,FN,3,num_6,16,num_6,0.866783501348,,,2018_Feb_09_1224,60.0056390921,MAFE4ImagesEEG,001,102587,
AFNE01.JPG,AFNE01.JPG,AFNE01.JPG,AFNE01.JPG,AFNE01.JPG,AFNE01.JPG,,,,,2,1,21,3,,,,,,,,,,,,,,,,,,,AFSA13.jpg,AFSA17.jpg,AFNE19.jpg,AFNE15.jpg,AFSA13.jpg,FS,4,num_8,16,num_8,1.26673160563,,,2018_Feb_09_1224,60.0056390921,MAFE4ImagesEEG,001,102587,
AFNE01.JPG,AFNE01.JPG,AFNE01.JPG,AFNE01.JPG,AFNE01.JPG,AFNE01.JPG,,,,,2,2,22,8,,,,,,,,,,,,,,,,,,,AFSA15.jpg,AFNE10.jpg,AFSA12.jpg,AFNE02.jpg,AFNE10.jpg,FN,3,num_6,16,num_6,1.48343365523,,,2018_Feb_09_1224,60.0056390921,MAFE4ImagesEEG,001,102587,
AFNE01.JPG,AFNE01.JPG,AFNE01.JPG,AFNE01.JPG,AFNE01.JPG,AFNE01.JPG,,,,,2,3,23,6,,,,,,,,,,,,,,,,,,,AFNE07.jpg,AFSA18.jpg,AFSA02.jpg,AFNE03.jpg,AFSA02.jpg,FS,4,num_2,16,num_2,0.966767881298,,,2018_Feb_09_1224,60.0056390921,MAFE4ImagesEEG,001,102587,
AFNE01.JPG,AFNE01.JPG,AFNE01.JPG,AFNE01.JPG,AFNE01.JPG,AFNE01.JPG,,,,,2,4,24,7,,,,,,,,,,,,,,,,,,,AFSA13.jpg,AFSA11.jpg,AFNE09.jpg,AFNE15.jpg,AFSA11.jpg,FS,4,num_6,16,num_6,0.683456620201,,,2018_Feb_09_1224,60.0056390921,MAFE4ImagesEEG,001,102587,
AFNE01.JPG,AFNE01.JPG,AFNE01.JPG,AFNE01.JPG,AFNE01.JPG,AFNE01.JPG,,,,,2,5,25,5,,,,,,,,,,,,,,,,,,,AFNE09.jpg,AFSA04.jpg,AFSA08.jpg,AFNE13.jpg,AFNE09.jpg,FN,3,num_8,32,num_4,0.900482616387,,,2018_Feb_09_1224,60.0056390921,MAFE4ImagesEEG,001,102587,
AFNE01.JPG,AFNE01.JPG,AFNE01.JPG,AFNE01.JPG,AFNE01.JPG,AFNE01.JPG,,,,,2,6,26,1,,,,,,,,,,,,,,,,,,,AFSA06.jpg,AFSA02.jpg,AFNE07.jpg,AFNE12.jpg,AFNE12.jpg,FN,3,num_4,32,num_8,1.35009912448,,,2018_Feb_09_1224,60.0056390921,MAFE4ImagesEEG,001,102587,
AFNE01.JPG,AFNE01.JPG,AFNE01.JPG,AFNE01.JPG,AFNE01.JPG,AFNE01.JPG,,,,,2,7,27,4,,,,,,,,,,,,,,,,,,,AFNE12.jpg,AFSA01.jpg,AFSA08.jpg,AFNE17.jpg,AFNE12.jpg,FN,3,num_8,16,num_8,0.666863172781,,,2018_Feb_09_1224,60.0056390921,MAFE4ImagesEEG,001,102587,
AFNE01.JPG,AFNE01.JPG,AFNE01.JPG,AFNE01.JPG,AFNE01.JPG,AFNE01.JPG,,,,,2,8,28,0,,,,,,,,,,,,,,,,,,,AFNE08.jpg,AFNE10.jpg,AFSA12.jpg,AFSA02.jpg,AFNE10.jpg,FN,3,num_6,16,num_6,0.933444031049,,,2018_Feb_09_1224,60.0056390921,MAFE4ImagesEEG,001,102587,
AFNE01.JPG,AFNE01.JPG,AFNE01.JPG,AFNE01.JPG,AFNE01.JPG,AFNE01.JPG,,,,,2,9,29,9,,,,,,,,,,,,,,,,,,,AFNE02.jpg,AFSA14.jpg,AFSA12.jpg,AFNE11.jpg,AFNE11.jpg,FN,3,num_4,16,num_4,0.483554573962,,,2018_Feb_09_1224,60.0056390921,MAFE4ImagesEEG,001,102587,
AFNE01.JPG,AFNE01.JPG,AFNE01.JPG,AFNE01.JPG,AFNE01.JPG,AFNE01.JPG,,,,,3,0,30,7,,,,,,,,,,,,,,,,,,,AFNE19.jpg,AFNE12.jpg,AFSA15.jpg,AFSA10.jpg,AFSA10.jpg,FS,4,num_4,16,num_4,1.15009700763,,,2018_Feb_09_1224,60.0056390921,MAFE4ImagesEEG,001,102587,
AFNE01.JPG,AFNE01.JPG,AFNE01.JPG,AFNE01.JPG,AFNE01.JPG,AFNE01.JPG,,,,,3,1,31,8,,,,,,,,,,,,,,,,,,,AFSA14.jpg,AFSA13.jpg,AFNE15.jpg,AFNE13.jpg,AFNE13.jpg,FN,3,num_4,32,num_2,1.6334042917,,,2018_Feb_09_1224,60.0056390921,MAFE4ImagesEEG,001,102587,
AFNE01.JPG,AFNE01.JPG,AFNE01.JPG,AFNE01.JPG,AFNE01.JPG,AFNE01.JPG,,,,,3,2,32,5,,,,,,,,,,,,,,,,,,,AFNE07.jpg,AFSA20.jpg,AFNE17.jpg,AFSA10.jpg,AFNE17.jpg,FN,3,num_2,32,num_6,1.2501946087,,,2018_Feb_09_1224,60.0056390921,MAFE4ImagesEEG,001,102587,
AFNE01.JPG,AFNE01.JPG,AFNE01.JPG,AFNE01.JPG,AFNE01.JPG,AFNE01.JPG,,,,,3,3,33,9,,,,,,,,,,,,,,,,,,,AFNE13.jpg,AFSA05.jpg,AFSA12.jpg,AFNE19.jpg,AFSA12.jpg,FS,4,num_2,16,num_2,0.633566906443,,,2018_Feb_09_1224,60.0056390921,MAFE4ImagesEEG,001,102587,
AFNE01.JPG,AFNE01.JPG,AFNE01.JPG,AFNE01.JPG,AFNE01.JPG,AFNE01.JPG,,,,,3,4,34,1,,,,,,,,,,,,,,,,,,,AFSA16.jpg,AFNE15.jpg,AFSA03.jpg,AFNE06.jpg,AFNE06.jpg,FN,3,num_4,16,num_4,0.800247739069,,,2018_Feb_09_1224,60.0056390921,MAFE4ImagesEEG,001,102587,
AFNE01.JPG,AFNE01.JPG,AFNE01.JPG,AFNE01.JPG,AFNE01.JPG,AFNE01.JPG,,,,,3,5,35,3,,,,,,,,,,,,,,,,,,,AFSA02.jpg,AFNE04.jpg,AFSA18.jpg,AFNE05.jpg,AFSA18.jpg,FS,4,num_2,32,num_8,0.80012040562,,,2018_Feb_09_1224,60.0056390921,MAFE4ImagesEEG,001,102587,
AFNE01.JPG,AFNE01.JPG,AFNE01.JPG,AFNE01.JPG,AFNE01.JPG,AFNE01.JPG,,,,,3,6,36,2,,,,,,,,,,,,,,,,,,,AFNE14.jpg,AFSA08.jpg,AFNE12.jpg,AFSA14.jpg,AFSA14.jpg,FS,4,num_4,32,num_6,1.8500553437,,,2018_Feb_09_1224,60.0056390921,MAFE4ImagesEEG,001,102587,
AFNE01.JPG,AFNE01.JPG,AFNE01.JPG,AFNE01.JPG,AFNE01.JPG,AFNE01.JPG,,,,,3,7,37,4,,,,,,,,,,,,,,,,,,,AFSA12.jpg,AFNE09.jpg,AFNE19.jpg,AFSA17.jpg,AFNE19.jpg,FN,3,num_2,16,num_2,0.700260472251,,,2018_Feb_09_1224,60.0056390921,MAFE4ImagesEEG,001,102587,
AFNE01.JPG,AFNE01.JPG,AFNE01.JPG,AFNE01.JPG,AFNE01.JPG,AFNE01.JPG,,,,,3,8,38,0,,,,,,,,,,,,,,,,,,,AFNE10.jpg,AFSA04.jpg,AFNE03.jpg,AFSA14.jpg,AFSA14.jpg,FS,4,num_4,16,num_4,0.833466065815,,,2018_Feb_09_1224,60.0056390921,MAFE4ImagesEEG,001,102587,
AFNE01.JPG,AFNE01.JPG,AFNE01.JPG,AFNE01.JPG,AFNE01.JPG,AFNE01.JPG,,,,,3,9,39,6,,,,,,,,,,,,,,,,,,,AFSA10.jpg,AFSA17.jpg,AFNE09.jpg,AFNE08.jpg,AFSA10.jpg,FS,4,num_8,32,num_4,0.783454150427,,,2018_Feb_09_1224,60.0056390921,MAFE4ImagesEEG,001,102587,
AFNE01.JPG,AFNE01.JPG,AFNE01.JPG,AFNE01.JPG,AFNE01.JPG,AFNE01.JPG,,,,,4,0,40,5,,,,,,,,,,,,,,,,,,,AFNE02.jpg,AFSA07.jpg,AFNE05.jpg,AFSA01.jpg,AFNE05.jpg,FN,3,num_2,16,num_2,1.26674507651,,,2018_Feb_09_1224,60.0056390921,MAFE4ImagesEEG,001,102587,
AFNE01.JPG,AFNE01.JPG,AFNE01.JPG,AFNE01.JPG,AFNE01.JPG,AFNE01.JPG,,,,,4,1,41,9,,,,,,,,,,,,,,,,,,,AFSA07.jpg,AFNE15.jpg,AFNE04.jpg,AFSA06.jpg,AFNE04.jpg,FN,3,num_2,16,num_2,1.00015972834,,,2018_Feb_09_1224,60.0056390921,MAFE4ImagesEEG,001,102587,
AFNE01.JPG,AFNE01.JPG,AFNE01.JPG,AFNE01.JPG,AFNE01.JPG,AFNE01.JPG,,,,,4,2,42,0,,,,,,,,,,,,,,,,,,,AFNE09.jpg,AFNE17.jpg,AFSA17.jpg,AFSA04.jpg,AFSA17.jpg,FS,4,num_2,16,num_2,1.01675959025,,,2018_Feb_09_1224,60.0056390921,MAFE4ImagesEEG,001,102587,
AFNE01.JPG,AFNE01.JPG,AFNE01.JPG,AFNE01.JPG,AFNE01.JPG,AFNE01.JPG,,,,,4,3,43,2,,,,,,,,,,,,,,,,,,,AFSA16.jpg,AFSA15.jpg,AFNE20.jpg,AFNE06.jpg,AFNE20.jpg,FN,3,num_2,32,num_8,1.18344491324,,,2018_Feb_09_1224,60.0056390921,MAFE4ImagesEEG,001,102587,
AFNE01.JPG,AFNE01.JPG,AFNE01.JPG,AFNE01.JPG,AFNE01.JPG,AFNE01.JPG,,,,,4,4,44,4,,,,,,,,,,,,,,,,,,,AFSA07.jpg,AFNE05.jpg,AFNE10.jpg,AFSA11.jpg,AFNE05.jpg,FN,3,num_6,32,num_8,0.150211511645,,,2018_Feb_09_1224,60.0056390921,MAFE4ImagesEEG,001,102587,
AFNE01.JPG,AFNE01.JPG,AFNE01.JPG,AFNE01.JPG,AFNE01.JPG,AFNE01.JPG,,,,,4,5,45,1,,,,,,,,,,,,,,,,,,,AFNE18.jpg,AFSA20.jpg,AFSA04.jpg,AFNE05.jpg,AFSA04.jpg,FS,4,num_2,32,num_8,0.683511145879,,,2018_Feb_09_1224,60.0056390921,MAFE4ImagesEEG,001,102587,
AFNE01.JPG,AFNE01.JPG,AFNE01.JPG,AFNE01.JPG,AFNE01.JPG,AFNE01.JPG,,,,,4,6,46,8,,,,,,,,,,,,,,,,,,,AFNE06.jpg,AFSA07.jpg,AFSA04.jpg,AFNE03.jpg,AFSA04.jpg,FS,4,num_2,16,num_2,0.883457133314,,,2018_Feb_09_1224,60.0056390921,MAFE4ImagesEEG,001,102587,
AFNE01.JPG,AFNE01.JPG,AFNE01.JPG,AFNE01.JPG,AFNE01.JPG,AFNE01.JPG,,,,,4,7,47,3,,,,,,,,,,,,,,,,,,,AFNE15.jpg,AFNE05.jpg,AFSA12.jpg,AFSA17.jpg,AFNE15.jpg,FN,3,num_8,32,num_6,1.41673816484,,,2018_Feb_09_1224,60.0056390921,MAFE4ImagesEEG,001,102587,
AFNE01.JPG,AFNE01.JPG,AFNE01.JPG,AFNE01.JPG,AFNE01.JPG,AFNE01.JPG,,,,,4,8,48,7,,,,,,,,,,,,,,,,,,,AFNE17.jpg,AFNE01.jpg,AFSA07.jpg,AFSA05.jpg,AFSA05.jpg,FS,4,num_4,16,num_4,1.46673211898,,,2018_Feb_09_1224,60.0056390921,MAFE4ImagesEEG,001,102587,
AFNE01.JPG,AFNE01.JPG,AFNE01.JPG,AFNE01.JPG,AFNE01.JPG,AFNE01.JPG,,,,,4,9,49,6,,,,,,,,,,,,,,,,,,,AFSA14.jpg,AFSA08.jpg,AFNE06.jpg,AFNE16.jpg,AFNE16.jpg,FN,3,num_4,32,num_8,1.01678973972,,,2018_Feb_09_1224,60.0056390921,MAFE4ImagesEEG,001,102587,
AFNE01.JPG,AFNE01.JPG,AFNE01.JPG,AFNE01.JPG,AFNE01.JPG,AFNE01.JPG,,,,,5,0,50,7,,,,,,,,,,,,,,,,,,,AFNE17.jpg,AFSA05.jpg,AFSA12.jpg,AFNE16.jpg,AFSA05.jpg,FS,4,num_6,32,num_2,0.866748861503,,,2018_Feb_09_1224,60.0056390921,MAFE4ImagesEEG,001,102587,
AFNE01.JPG,AFNE01.JPG,AFNE01.JPG,AFNE01.JPG,AFNE01.JPG,AFNE01.JPG,,,,,5,1,51,0,,,,,,,,,,,,,,,,,,,AFSA18.jpg,AFSA01.jpg,AFNE13.jpg,AFNE04.jpg,AFNE13.jpg,FN,3,num_2,32,num_6,3.11659803381,,,2018_Feb_09_1224,60.0056390921,MAFE4ImagesEEG,001,102587,
AFNE01.JPG,AFNE01.JPG,AFNE01.JPG,AFNE01.JPG,AFNE01.JPG,AFNE01.JPG,,,,,5,2,52,9,,,,,,,,,,,,,,,,,,,AFSA18.jpg,AFNE19.jpg,AFSA15.jpg,AFNE06.jpg,AFNE19.jpg,FN,3,num_6,16,num_6,0.516842501238,,,2018_Feb_09_1224,60.0056390921,MAFE4ImagesEEG,001,102587,
AFNE01.JPG,AFNE01.JPG,AFNE01.JPG,AFNE01.JPG,AFNE01.JPG,AFNE01.JPG,,,,,5,3,53,6,,,,,,,,,,,,,,,,,,,AFNE02.jpg,AFNE08.jpg,AFSA01.jpg,AFSA18.jpg,AFNE02.jpg,FN,3,num_8,16,num_8,0.733554814709,,,2018_Feb_09_1224,60.0056390921,MAFE4ImagesEEG,001,102587,
AFNE01.JPG,AFNE01.JPG,AFNE01.JPG,AFNE01.JPG,AFNE01.JPG,AFNE01.JPG,,,,,5,4,54,8,,,,,,,,,,,,,,,,,,,AFNE11.jpg,AFNE10.jpg,AFSA11.jpg,AFSA12.jpg,AFSA11.jpg,FS,4,num_2,16,num_2,0.566797645763,,,2018_Feb_09_1224,60.0056390921,MAFE4ImagesEEG,001,102587,
AFNE01.JPG,AFNE01.JPG,AFNE01.JPG,AFNE01.JPG,AFNE01.JPG,AFNE01.JPG,,,,,5,5,55,4,,,,,,,,,,,,,,,,,,,AFNE06.jpg,AFNE17.jpg,AFSA08.jpg,AFSA07.jpg,AFSA08.jpg,FS,4,num_2,16,num_2,1.18343336647,,,2018_Feb_09_1224,60.0056390921,MAFE4ImagesEEG,001,102587,
AFNE01.JPG,AFNE01.JPG,AFNE01.JPG,AFNE01.JPG,AFNE01.JPG,AFNE01.JPG,,,,,5,6,56,1,,,,,,,,,,,,,,,,,,,AFSA04.jpg,AFNE20.jpg,AFNE10.jpg,AFSA19.jpg,AFSA04.jpg,FS,4,num_8,32,num_2,1.25010544318,,,2018_Feb_09_1224,60.0056390921,MAFE4ImagesEEG,001,102587,
AFNE01.JPG,AFNE01.JPG,AFNE01.JPG,AFNE01.JPG,AFNE01.JPG,AFNE01.JPG,,,,,5,7,57,2,,,,,,,,,,,,,,,,,,,AFNE17.jpg,AFSA05.jpg,AFNE07.jpg,AFSA18.jpg,AFNE17.jpg,FN,3,num_8,16,num_8,1.63341904571,,,2018_Feb_09_1224,60.0056390921,MAFE4ImagesEEG,001,102587,
AFNE01.JPG,AFNE01.JPG,AFNE01.JPG,AFNE01.JPG,AFNE01.JPG,AFNE01.JPG,,,,,5,8,58,3,,,,,,,,,,,,,,,,,,,AFSA05.jpg,AFNE20.jpg,AFNE08.jpg,AFSA19.jpg,AFSA05.jpg,FS,4,num_8,32,num_4,2.64996662713,,,2018_Feb_09_1224,60.0056390921,MAFE4ImagesEEG,001,102587,
AFNE01.JPG,AFNE01.JPG,AFNE01.JPG,AFNE01.JPG,AFNE01.JPG,AFNE01.JPG,,,,,5,9,59,5,,,,,,,,,,,,,,,,,,,AFSA06.jpg,AFSA02.jpg,AFNE19.jpg,AFNE10.jpg,AFNE19.jpg,FN,3,num_2,16,num_2,1.06675258209,,,2018_Feb_09_1224,60.0056390921,MAFE4ImagesEEG,001,102587,
,,,,,,,,,,,,,,,,,,,,,,,,,,,,,,,,,,,,,,,,,,,space,18.8154119719,2018_Feb_09_1224,60.0056390921,MAFE4ImagesEEG,001,102587,
AFNE01.JPG,AFNE01.JPG,AFNE01.JPG,AFNE01.JPG,AFNE01.JPG,AFNE01.JPG,,,,,,,,,0,0,0,3,,,,,,,,,,,,,,,AMSA14.jpg,AMSA05.jpg,AMNE07.jpg,AMNE17.jpg,AMNE07.jpg,MN,1,num_2,32,num_4,0.9666241901,,,2018_Feb_09_1224,60.0056390921,MAFE4ImagesEEG,001,102587,
AFNE01.JPG,AFNE01.JPG,AFNE01.JPG,AFNE01.JPG,AFNE01.JPG,AFNE01.JPG,,,,,,,,,0,1,1,4,,,,,,,,,,,,,,,AMSA15.jpg,AMNE14.jpg,AMNE07.jpg,AMSA01.jpg,AMNE14.jpg,MN,1,num_6,32,num_2,3.28292316664,,,2018_Feb_09_1224,60.0056390921,MAFE4ImagesEEG,001,102587,
AFNE01.JPG,AFNE01.JPG,AFNE01.JPG,AFNE01.JPG,AFNE01.JPG,AFNE01.JPG,,,,,,,,,0,2,2,0,,,,,,,,,,,,,,,AMNE05.jpg,AMSA12.jpg,AMSA07.jpg,AMNE20.jpg,AMSA07.jpg,MS,2,num_2,16,num_2,0.583490522113,,,2018_Feb_09_1224,60.0056390921,MAFE4ImagesEEG,001,102587,
AFNE01.JPG,AFNE01.JPG,AFNE01.JPG,AFNE01.JPG,AFNE01.JPG,AFNE01.JPG,,,,,,,,,0,3,3,7,,,,,,,,,,,,,,,AMSA14.jpg,AMNE09.jpg,AMNE04.jpg,AMSA19.jpg,AMSA19.jpg,MS,2,num_4,32,num_8,1.55004703649,,,2018_Feb_09_1224,60.0056390921,MAFE4ImagesEEG,001,102587,
AFNE01.JPG,AFNE01.JPG,AFNE01.JPG,AFNE01.JPG,AFNE01.JPG,AFNE01.JPG,,,,,,,,,0,4,4,5,,,,,,,,,,,,,,,AMNE19.jpg,AMSA09.jpg,AMSA14.jpg,AMNE15.jpg,AMNE19.jpg,MN,1,num_8,32,num_4,1.49990971177,,,2018_Feb_09_1224,60.0056390921,MAFE4ImagesEEG,001,102587,
AFNE01.JPG,AFNE01.JPG,AFNE01.JPG,AFNE01.JPG,AFNE01.JPG,AFNE01.JPG,,,,,,,,,0,5,5,6,,,,,,,,,,,,,,,AMNE09.jpg,AMSA15.jpg,AMSA05.jpg,AMNE11.jpg,AMSA15.jpg,MS,2,num_6,16,num_6,0.733432612848,,,2018_Feb_09_1224,60.0056390921,MAFE4ImagesEEG,001,102587,
AFNE01.JPG,AFNE01.JPG,AFNE01.JPG,AFNE01.JPG,AFNE01.JPG,AFNE01.JPG,,,,,,,,,0,6,6,9,,,,,,,,,,,,,,,AMNE11.jpg,AMNE16.jpg,AMSA14.jpg,AMSA02.jpg,AMSA02.jpg,MS,2,num_4,16,num_4,0.683491901495,,,2018_Feb_09_1224,60.0056390921,MAFE4ImagesEEG,001,102587,
AFNE01.JPG,AFNE01.JPG,AFNE01.JPG,AFNE01.JPG,AFNE01.JPG,AFNE01.JPG,,,,,,,,,0,7,7,1,,,,,,,,,,,,,,,AMNE17.jpg,AMSA10.jpg,AMSA01.jpg,AMNE05.jpg,AMSA10.jpg,MS,2,num_6,32,num_4,1.516846671,,,2018_Feb_09_1224,60.0056390921,MAFE4ImagesEEG,001,102587,
AFNE01.JPG,AFNE01.JPG,AFNE01.JPG,AFNE01.JPG,AFNE01.JPG,AFNE01.JPG,,,,,,,,,0,8,8,8,,,,,,,,,,,,,,,AMNE14.jpg,AMSA01.jpg,AMSA05.jpg,AMNE16.jpg,AMSA01.jpg,MS,2,num_6,16,num_6,1.08342910069,,,2018_Feb_09_1224,60.0056390921,MAFE4ImagesEEG,001,102587,
AFNE01.JPG,AFNE01.JPG,AFNE01.JPG,AFNE01.JPG,AFNE01.JPG,AFNE01.JPG,,,,,,,,,0,9,9,2,,,,,,,,,,,,,,,AMSA09.jpg,AMNE16.jpg,AMNE06.jpg,AMSA20.jpg,AMSA20.jpg,MS,2,num_4,32,num_8,0.933500801912,,,2018_Feb_09_1224,60.0056390921,MAFE4ImagesEEG,001,102587,
AFNE01.JPG,AFNE01.JPG,AFNE01.JPG,AFNE01.JPG,AFNE01.JPG,AFNE01.JPG,,,,,,,,,1,0,10,5,,,,,,,,,,,,,,,AMNE02.jpg,AMNE10.jpg,AMSA07.jpg,AMSA15.jpg,AMNE10.jpg,MN,1,num_6,16,num_6,1.15009315871,,,2018_Feb_09_1224,60.0056390921,MAFE4ImagesEEG,001,102587,
AFNE01.JPG,AFNE01.JPG,AFNE01.JPG,AFNE01.JPG,AFNE01.JPG,AFNE01.JPG,,,,,,,,,1,1,11,9,,,,,,,,,,,,,,,AMSA16.jpg,AMNE09.jpg,AMSA08.jpg,AMNE13.jpg,AMNE09.jpg,MN,1,num_6,32,num_8,0.716782073956,,,2018_Feb_09_1224,60.0056390921,MAFE4ImagesEEG,001,102587,
AFNE01.JPG,AFNE01.JPG,AFNE01.JPG,AFNE01.JPG,AFNE01.JPG,AFNE01.JPG,,,,,,,,,1,2,12,3,,,,,,,,,,,,,,,AMSA17.jpg,AMSA05.jpg,AMNE06.jpg,AMNE05.jpg,AMNE05.jpg,MN,1,num_4,32,num_2,1.21677100845,,,2018_Feb_09_1224,60.0056390921,MAFE4ImagesEEG,001,102587,
AFNE01.JPG,AFNE01.JPG,AFNE01.JPG,AFNE01.JPG,AFNE01.JPG,AFNE01.JPG,,,,,,,,,1,3,13,8,,,,,,,,,,,,,,,AMNE13.jpg,AMNE17.jpg,AMSA01.jpg,AMSA13.jpg,AMSA01.jpg,MS,2,num_2,16,num_2,1.08345892932,,,2018_Feb_09_1224,60.0056390921,MAFE4ImagesEEG,001,102587,
AFNE01.JPG,AFNE01.JPG,AFNE01.JPG,AFNE01.JPG,AFNE01.JPG,AFNE01.JPG,,,,,,,,,1,4,14,4,,,,,,,,,,,,,,,AMSA09.jpg,AMNE03.jpg,AMSA19.jpg,AMNE12.jpg,AMSA19.jpg,MS,2,num_2,16,num_2,0.583530614851,,,2018_Feb_09_1224,60.0056390921,MAFE4ImagesEEG,001,102587,
AFNE01.JPG,AFNE01.JPG,AFNE01.JPG,AFNE01.JPG,AFNE01.JPG,AFNE01.JPG,,,,,,,,,1,5,15,1,,,,,,,,,,,,,,,AMNE14.jpg,AMNE10.jpg,AMSA04.jpg,AMSA16.jpg,AMSA04.jpg,MS,2,num_2,16,num_2,1.10014635324,,,2018_Feb_09_1224,60.0056390921,MAFE4ImagesEEG,001,102587,
AFNE01.JPG,AFNE01.JPG,AFNE01.JPG,AFNE01.JPG,AFNE01.JPG,AFNE01.JPG,,,,,,,,,1,6,16,7,,,,,,,,,,,,,,,AMSA02.jpg,AMNE13.jpg,AMNE20.jpg,AMSA08.jpg,AMSA02.jpg,MS,2,num_8,16,num_8,1.65006637713,,,2018_Feb_09_1224,60.0056390921,MAFE4ImagesEEG,001,102587,
AFNE01.JPG,AFNE01.JPG,AFNE01.JPG,AFNE01.JPG,AFNE01.JPG,AFNE01.JPG,,,,,,,,,1,7,17,2,,,,,,,,,,,,,,,AMSA02.jpg,AMSA06.jpg,AMNE13.jpg,AMNE15.jpg,AMSA06.jpg,MS,2,num_6,16,num_6,0.816765812458,,,2018_Feb_09_1224,60.0056390921,MAFE4ImagesEEG,001,102587,
AFNE01.JPG,AFNE01.JPG,AFNE01.JPG,AFNE01.JPG,AFNE01.JPG,AFNE01.JPG,,,,,,,,,1,8,18,6,,,,,,,,,,,,,,,AMSA04.jpg,AMNE18.jpg,AMSA07.jpg,AMNE08.jpg,AMSA04.jpg,MS,2,num_8,16,num_8,1.30018856283,,,2018_Feb_09_1224,60.0056390921,MAFE4ImagesEEG,001,102587,
AFNE01.JPG,AFNE01.JPG,AFNE01.JPG,AFNE01.JPG,AFNE01.JPG,AFNE01.JPG,,,,,,,,,1,9,19,0,,,,,,,,,,,,,,,AMSA17.jpg,AMNE17.jpg,AMSA05.jpg,AMNE08.jpg,AMNE08.jpg,MN,1,num_4,32,num_8,1.7167740555,,,2018_Feb_09_1224,60.0056390921,MAFE4ImagesEEG,001,102587,
AFNE01.JPG,AFNE01.JPG,AFNE01.JPG,AFNE01.JPG,AFNE01.JPG,AFNE01.JPG,,,,,,,,,2,0,20,4,,,,,,,,,,,,,,,AMNE11.jpg,AMSA01.jpg,AMNE20.jpg,AMSA18.jpg,AMSA01.jpg,MS,2,num_6,16,num_6,2.23337536072,,,2018_Feb_09_1224,60.0056390921,MAFE4ImagesEEG,001,102587,
AFNE01.JPG,AFNE01.JPG,AFNE01.JPG,AFNE01.JPG,AFNE01.JPG,AFNE01.JPG,,,,,,,,,2,1,21,3,,,,,,,,,,,,,,,AMSA08.jpg,AMNE20.jpg,AMSA14.jpg,AMNE02.jpg,AMSA08.jpg,MS,2,num_8,32,num_2,1.26677939598,,,2018_Feb_09_1224,60.0056390921,MAFE4ImagesEEG,001,102587,
AFNE01.JPG,AFNE01.JPG,AFNE01.JPG,AFNE01.JPG,AFNE01.JPG,AFNE01.JPG,,,,,,,,,2,2,22,5,,,,,,,,,,,,,,,AMSA08.jpg,AMNE02.jpg,AMSA12.jpg,AMNE15.jpg,AMNE02.jpg,MN,1,num_6,32,num_8,0.700131855905,,,2018_Feb_09_1224,60.0056390921,MAFE4ImagesEEG,001,102587,
AFNE01.JPG,AFNE01.JPG,AFNE01.JPG,AFNE01.JPG,AFNE01.JPG,AFNE01.JPG,,,,,,,,,2,3,23,8,,,,,,,,,,,,,,,AMNE01.jpg,AMSA12.jpg,AMSA18.jpg,AMNE08.jpg,AMSA12.jpg,MS,2,num_6,16,num_6,0.983454342932,,,2018_Feb_09_1224,60.0056390921,MAFE4ImagesEEG,001,102587,
AFNE01.JPG,AFNE01.JPG,AFNE01.JPG,AFNE01.JPG,AFNE01.JPG,AFNE01.JPG,,,,,,,,,2,4,24,7,,,,,,,,,,,,,,,AMNE13.jpg,AMSA11.jpg,AMSA19.jpg,AMNE12.jpg,AMSA19.jpg,MS,2,num_2,16,num_2,1.28349953494,,,2018_Feb_09_1224,60.0056390921,MAFE4ImagesEEG,001,102587,
AFNE01.JPG,AFNE01.JPG,AFNE01.JPG,AFNE01.JPG,AFNE01.JPG,AFNE01.JPG,,,,,,,,,2,5,25,1,,,,,,,,,,,,,,,AMNE12.jpg,AMNE18.jpg,AMSA19.jpg,AMSA08.jpg,AMSA19.jpg,MS,2,num_2,16,num_2,1.18366846838,,,2018_Feb_09_1224,60.0056390921,MAFE4ImagesEEG,001,102587,
AFNE01.JPG,AFNE01.JPG,AFNE01.JPG,AFNE01.JPG,AFNE01.JPG,AFNE01.JPG,,,,,,,,,2,6,26,9,,,,,,,,,,,,,,,AMSA09.jpg,AMNE09.jpg,AMSA02.jpg,AMNE19.jpg,AMSA09.jpg,MS,2,num_8,16,num_8,1.16675299918,,,2018_Feb_09_1224,60.0056390921,MAFE4ImagesEEG,001,102587,
AFNE01.JPG,AFNE01.JPG,AFNE01.JPG,AFNE01.JPG,AFNE01.JPG,AFNE01.JPG,,,,,,,,,2,7,27,6,,,,,,,,,,,,,,,AMSA06.jpg,AMNE17.jpg,AMSA01.jpg,AMNE02.jpg,AMNE02.jpg,MN,1,num_4,16,num_4,2.23320248234,,,2018_Feb_09_1224,60.0056390921,MAFE4ImagesEEG,001,102587,
AFNE01.JPG,AFNE01.JPG,AFNE01.JPG,AFNE01.JPG,AFNE01.JPG,AFNE01.JPG,,,,,,,,,2,8,28,0,,,,,,,,,,,,,,,AMSA03.jpg,AMNE16.jpg,AMNE15.jpg,AMSA04.jpg,AMNE16.jpg,MN,1,num_6,16,num_6,1.00009622192,,,2018_Feb_09_1224,60.0056390921,MAFE4ImagesEEG,001,102587,
AFNE01.JPG,AFNE01.JPG,AFNE01.JPG,AFNE01.JPG,AFNE01.JPG,AFNE01.JPG,,,,,,,,,2,9,29,2,,,,,,,,,,,,,,,AMSA16.jpg,AMNE01.jpg,AMNE15.jpg,AMSA18.jpg,AMSA16.jpg,MS,2,num_8,16,num_8,2.33333953423,,,2018_Feb_09_1224,60.0056390921,MAFE4ImagesEEG,001,102587,
AFNE01.JPG,AFNE01.JPG,AFNE01.JPG,AFNE01.JPG,AFNE01.JPG,AFNE01.JPG,,,,,,,,,3,0,30,1,,,,,,,,,,,,,,,AMNE04.jpg,AMNE09.jpg,AMSA11.jpg,AMSA13.jpg,AMSA13.jpg,MS,2,num_4,32,num_6,1.08343262877,,,2018_Feb_09_1224,60.0056390921,MAFE4ImagesEEG,001,102587,
AFNE01.JPG,AFNE01.JPG,AFNE01.JPG,AFNE01.JPG,AFNE01.JPG,AFNE01.JPG,,,,,,,,,3,1,31,3,,,,,,,,,,,,,,,AMNE03.jpg,AMSA19.jpg,AMSA09.jpg,AMNE13.jpg,AMSA19.jpg,MS,2,num_6,16,num_6,1.3334861123,,,2018_Feb_09_1224,60.0056390921,MAFE4ImagesEEG,001,102587,
AFNE01.JPG,AFNE01.JPG,AFNE01.JPG,AFNE01.JPG,AFNE01.JPG,AFNE01.JPG,,,,,,,,,3,2,32,9,,,,,,,,,,,,,,,AMNE14.jpg,AMNE02.jpg,AMSA20.jpg,AMSA18.jpg,AMNE14.jpg,MN,1,num_8,16,num_8,0.533574828645,,,2018_Feb_09_1224,60.0056390921,MAFE4ImagesEEG,001,102587,
AFNE01.JPG,AFNE01.JPG,AFNE01.JPG,AFNE01.JPG,AFNE01.JPG,AFNE01.JPG,,,,,,,,,3,3,33,7,,,,,,,,,,,,,,,AMNE13.jpg,AMNE19.jpg,AMSA03.jpg,AMSA19.jpg,AMSA03.jpg,MS,2,num_2,32,num_4,1.26690127677,,,2018_Feb_09_1224,60.0056390921,MAFE4ImagesEEG,001,102587,
AFNE01.JPG,AFNE01.JPG,AFNE01.JPG,AFNE01.JPG,AFNE01.JPG,AFNE01.JPG,,,,,,,,,3,4,34,4,,,,,,,,,,,,,,,AMNE05.jpg,AMSA11.jpg,AMSA17.jpg,AMNE07.jpg,AMNE07.jpg,MN,1,num_4,16,num_4,1.06674520508,,,2018_Feb_09_1224,60.0056390921,MAFE4ImagesEEG,001,102587,
AFNE01.JPG,AFNE01.JPG,AFNE01.JPG,AFNE01.JPG,AFNE01.JPG,AFNE01.JPG,,,,,,,,,3,5,35,0,,,,,,,,,,,,,,,AMNE04.jpg,AMNE16.jpg,AMSA02.jpg,AMSA15.jpg,AMNE16.jpg,MN,1,num_6,32,num_4,1.6666816345,,,2018_Feb_09_1224,60.0056390921,MAFE4ImagesEEG,001,102587,
AFNE01.JPG,AFNE01.JPG,AFNE01.JPG,AFNE01.JPG,AFNE01.JPG,AFNE01.JPG,,,,,,,,,3,6,36,6,,,,,,,,,,,,,,,AMSA04.jpg,AMNE08.jpg,AMNE12.jpg,AMSA02.jpg,AMSA04.jpg,MS,2,num_8,16,num_8,1.08340985631,,,2018_Feb_09_1224,60.0056390921,MAFE4ImagesEEG,001,102587,
AFNE01.JPG,AFNE01.JPG,AFNE01.JPG,AFNE01.JPG,AFNE01.JPG,AFNE01.JPG,,,,,,,,,3,7,37,8,,,,,,,,,,,,,,,AMSA04.jpg,AMSA01.jpg,AMNE18.jpg,AMNE02.jpg,AMNE02.jpg,MN,1,num_4,32,num_8,1.03341205348,,,2018_Feb_09_1224,60.0056390921,MAFE4ImagesEEG,001,102587,
AFNE01.JPG,AFNE01.JPG,AFNE01.JPG,AFNE01.JPG,AFNE01.JPG,AFNE01.JPG,,,,,,,,,3,8,38,5,,,,,,,,,,,,,,,AMNE01.jpg,AMSA04.jpg,AMSA13.jpg,AMNE17.jpg,AMSA04.jpg,MS,2,num_6,16,num_6,0.750091490801,,,2018_Feb_09_1224,60.0056390921,MAFE4ImagesEEG,001,102587,
AFNE01.JPG,AFNE01.JPG,AFNE01.JPG,AFNE01.JPG,AFNE01.JPG,AFNE01.JPG,,,,,,,,,3,9,39,2,,,,,,,,,,,,,,,AMSA03.jpg,AMNE13.jpg,AMSA19.jpg,AMNE06.jpg,AMSA19.jpg,MS,2,num_2,16,num_2,0.983450814849,,,2018_Feb_09_1224,60.0056390921,MAFE4ImagesEEG,001,102587,
AFNE01.JPG,AFNE01.JPG,AFNE01.JPG,AFNE01.JPG,AFNE01.JPG,AFNE01.JPG,,,,,,,,,4,0,40,8,,,,,,,,,,,,,,,AMNE15.jpg,AMSA15.jpg,AMNE12.jpg,AMSA01.jpg,AMNE15.jpg,MN,1,num_8,16,num_8,0.900311982958,,,2018_Feb_09_1224,60.0056390921,MAFE4ImagesEEG,001,102587,
AFNE01.JPG,AFNE01.JPG,AFNE01.JPG,AFNE01.JPG,AFNE01.JPG,AFNE01.JPG,,,,,,,,,4,1,41,7,,,,,,,,,,,,,,,AMNE18.jpg,AMSA12.jpg,AMSA11.jpg,AMNE12.jpg,AMNE18.jpg,MN,1,num_8,32,num_6,0.55014422047,,,2018_Feb_09_1224,60.0056390921,MAFE4ImagesEEG,001,102587,
AFNE01.JPG,AFNE01.JPG,AFNE01.JPG,AFNE01.JPG,AFNE01.JPG,AFNE01.JPG,,,,,,,,,4,2,42,9,,,,,,,,,,,,,,,AMSA05.jpg,AMNE16.jpg,AMSA12.jpg,AMNE03.jpg,AMNE03.jpg,MN,1,num_4,32,num_8,0.683471053373,,,2018_Feb_09_1224,60.0056390921,MAFE4ImagesEEG,001,102587,
AFNE01.JPG,AFNE01.JPG,AFNE01.JPG,AFNE01.JPG,AFNE01.JPG,AFNE01.JPG,,,,,,,,,4,3,43,6,,,,,,,,,,,,,,,AMSA15.jpg,AMSA09.jpg,AMNE14.jpg,AMNE13.jpg,AMNE13.jpg,MN,1,num_4,16,num_4,1.43340281607,,,2018_Feb_09_1224,60.0056390921,MAFE4ImagesEEG,001,102587,
AFNE01.JPG,AFNE01.JPG,AFNE01.JPG,AFNE01.JPG,AFNE01.JPG,AFNE01.JPG,,,,,,,,,4,4,44,0,,,,,,,,,,,,,,,AMNE10.jpg,AMNE02.jpg,AMSA13.jpg,AMSA02.jpg,AMSA02.jpg,MS,2,num_4,32,num_2,1.2167447079,,,2018_Feb_09_1224,60.0056390921,MAFE4ImagesEEG,001,102587,
AFNE01.JPG,AFNE01.JPG,AFNE01.JPG,AFNE01.JPG,AFNE01.JPG,AFNE01.JPG,,,,,,,,,4,5,45,5,,,,,,,,,,,,,,,AMSA16.jpg,AMNE05.jpg,AMNE03.jpg,AMSA14.jpg,AMSA16.jpg,MS,2,num_8,16,num_8,0.650020511355,,,2018_Feb_09_1224,60.0056390921,MAFE4ImagesEEG,001,102587,
AFNE01.JPG,AFNE01.JPG,AFNE01.JPG,AFNE01.JPG,AFNE01.JPG,AFNE01.JPG,,,,,,,,,4,6,46,2,,,,,,,,,,,,,,,AMNE14.jpg,AMNE15.jpg,AMSA17.jpg,AMSA09.jpg,AMSA17.jpg,MS,2,num_2,16,num_2,1.41670865682,,,2018_Feb_09_1224,60.0056390921,MAFE4ImagesEEG,001,102587,
AFNE01.JPG,AFNE01.JPG,AFNE01.JPG,AFNE01.JPG,AFNE01.JPG,AFNE01.JPG,,,,,,,,,4,7,47,4,,,,,,,,,,,,,,,AMSA13.jpg,AMNE16.jpg,AMNE09.jpg,AMSA02.jpg,AMSA13.jpg,MS,2,num_8,16,num_8,0.783472111914,,,2018_Feb_09_1224,60.0056390921,MAFE4ImagesEEG,001,102587,
AFNE01.JPG,AFNE01.JPG,AFNE01.JPG,AFNE01.JPG,AFNE01.JPG,AFNE01.JPG,,,,,,,,,4,8,48,1,,,,,,,,,,,,,,,AMNE12.jpg,AMNE17.jpg,AMSA01.jpg,AMSA05.jpg,AMSA05.jpg,MS,2,num_4,16,num_4,0.983593864599,,,2018_Feb_09_1224,60.0056390921,MAFE4ImagesEEG,001,102587,
AFNE01.JPG,AFNE01.JPG,AFNE01.JPG,AFNE01.JPG,AFNE01.JPG,AFNE01.JPG,,,,,,,,,4,9,49,3,,,,,,,,,,,,,,,AMNE04.jpg,AMSA03.jpg,AMSA02.jpg,AMNE02.jpg,AMSA03.jpg,MS,2,num_6,32,num_8,0.70011838479,,,2018_Feb_09_1224,60.0056390921,MAFE4ImagesEEG,001,102587,
AFNE01.JPG,AFNE01.JPG,AFNE01.JPG,AFNE01.JPG,AFNE01.JPG,AFNE01.JPG,,,,,,,,,5,0,50,9,,,,,,,,,,,,,,,AMSA04.jpg,AMNE02.jpg,AMNE15.jpg,AMSA14.jpg,AMSA04.jpg,MS,2,num_8,32,num_4,1.08347272128,,,2018_Feb_09_1224,60.0056390921,MAFE4ImagesEEG,001,102587,
AFNE01.JPG,AFNE01.JPG,AFNE01.JPG,AFNE01.JPG,AFNE01.JPG,AFNE01.JPG,,,,,,,,,5,1,51,2,,,,,,,,,,,,,,,AMNE10.jpg,AMSA10.jpg,AMNE07.jpg,AMSA18.jpg,AMSA18.jpg,MS,2,num_4,16,num_4,0.800115915248,,,2018_Feb_09_1224,60.0056390921,MAFE4ImagesEEG,001,102587,
AFNE01.JPG,AFNE01.JPG,AFNE01.JPG,AFNE01.JPG,AFNE01.JPG,AFNE01.JPG,,,,,,,,,5,2,52,3,,,,,,,,,,,,,,,AMNE10.jpg,AMSA02.jpg,AMNE02.jpg,AMSA16.jpg,AMSA16.jpg,MS,2,num_4,16,num_4,0.750153072877,,,2018_Feb_09_1224,60.0056390921,MAFE4ImagesEEG,001,102587,
AFNE01.JPG,AFNE01.JPG,AFNE01.JPG,AFNE01.JPG,AFNE01.JPG,AFNE01.JPG,,,,,,,,,5,3,53,0,,,,,,,,,,,,,,,AMNE05.jpg,AMNE14.jpg,AMSA17.jpg,AMSA05.jpg,AMSA17.jpg,MS,2,num_2,32,num_8,0.666805119254,,,2018_Feb_09_1224,60.0056390921,MAFE4ImagesEEG,001,102587,
AFNE01.JPG,AFNE01.JPG,AFNE01.JPG,AFNE01.JPG,AFNE01.JPG,AFNE01.JPG,,,,,,,,,5,4,54,1,,,,,,,,,,,,,,,AMSA08.jpg,AMNE06.jpg,AMNE14.jpg,AMSA19.jpg,AMNE06.jpg,MN,1,num_6,32,num_8,2.76638600905,,,2018_Feb_09_1224,60.0056390921,MAFE4ImagesEEG,001,102587,
AFNE01.JPG,AFNE01.JPG,AFNE01.JPG,AFNE01.JPG,AFNE01.JPG,AFNE01.JPG,,,,,,,,,5,5,55,6,,,,,,,,,,,,,,,AMSA13.jpg,AMNE15.jpg,AMNE19.jpg,AMSA01.jpg,AMNE15.jpg,MN,1,num_6,16,num_6,1.08355771727,,,2018_Feb_09_1224,60.0056390921,MAFE4ImagesEEG,001,102587,
AFNE01.JPG,AFNE01.JPG,AFNE01.JPG,AFNE01.JPG,AFNE01.JPG,AFNE01.JPG,,,,,,,,,5,6,56,7,,,,,,,,,,,,,,,AMSA17.jpg,AMNE12.jpg,AMNE11.jpg,AMSA08.jpg,AMSA08.jpg,MS,2,num_4,16,num_4,0.783669366734,,,2018_Feb_09_1224,60.0056390921,MAFE4ImagesEEG,001,102587,
AFNE01.JPG,AFNE01.JPG,AFNE01.JPG,AFNE01.JPG,AFNE01.JPG,AFNE01.JPG,,,,,,,,,5,7,57,5,,,,,,,,,,,,,,,AMSA03.jpg,AMNE03.jpg,AMNE19.jpg,AMSA07.jpg,AMNE03.jpg,MN,1,num_6,32,num_2,0.950102909235,,,2018_Feb_09_1224,60.0056390921,MAFE4ImagesEEG,001,102587,
AFNE01.JPG,AFNE01.JPG,AFNE01.JPG,AFNE01.JPG,AFNE01.JPG,AFNE01.JPG,,,,,,,,,5,8,58,8,,,,,,,,,,,,,,,AMSA14.jpg,AMSA11.jpg,AMNE13.jpg,AMNE06.jpg,AMSA11.jpg,MS,2,num_6,32,num_8,0.633494419279,,,2018_Feb_09_1224,60.0056390921,MAFE4ImagesEEG,001,102587,
AFNE01.JPG,AFNE01.JPG,AFNE01.JPG,AFNE01.JPG,AFNE01.JPG,AFNE01.JPG,,,,,,,,,5,9,59,4,,,,,,,,,,,,,,,AMNE11.jpg,AMNE01.jpg,AMSA19.jpg,AMSA20.jpg,AMNE11.jpg,MN,1,num_8,16,num_8,0.900108313654,,,2018_Feb_09_1224,60.0056390921,MAFE4ImagesEEG,001,102587,
,,,,,,,,,,,,,,,,,,,,,,,,,,,,,,,,,,,,,,,,,,,space,5.18319890625,2018_Feb_09_1224,60.0056390921,MAFE4ImagesEEG,001,102587,
AFNE01.JPG,AFNE01.JPG,AFNE01.JPG,AFNE01.JPG,AFNE01.JPG,AFNE01.JPG,,,,,,,,,,,,,0,0,0,5,,,,,,,,,,,AFSA04.jpg,AFSA20.jpg,AFNE01.jpg,AFNE02.jpg,AFSA20.jpg,FS,4,num_6,32,num_4,1.7000420487,,,2018_Feb_09_1224,60.0056390921,MAFE4ImagesEEG,001,102587,
AFNE01.JPG,AFNE01.JPG,AFNE01.JPG,AFNE01.JPG,AFNE01.JPG,AFNE01.JPG,,,,,,,,,,,,,0,1,1,6,,,,,,,,,,,AFSA16.jpg,AFNE12.jpg,AFSA06.jpg,AFNE07.jpg,AFSA16.jpg,FS,4,num_8,32,num_2,1.21670269105,,,2018_Feb_09_1224,60.0056390921,MAFE4ImagesEEG,001,102587,
AFNE01.JPG,AFNE01.JPG,AFNE01.JPG,AFNE01.JPG,AFNE01.JPG,AFNE01.JPG,,,,,,,,,,,,,0,2,2,9,,,,,,,,,,,AFNE04.jpg,AFNE03.jpg,AFSA03.jpg,AFSA08.jpg,AFSA08.jpg,FS,4,num_4,32,num_2,2.26674860483,,,2018_Feb_09_1224,60.0056390921,MAFE4ImagesEEG,001,102587,
AFNE01.JPG,AFNE01.JPG,AFNE01.JPG,AFNE01.JPG,AFNE01.JPG,AFNE01.JPG,,,,,,,,,,,,,0,3,3,2,,,,,,,,,,,AFSA02.jpg,AFSA10.jpg,AFNE11.jpg,AFNE04.jpg,AFNE04.jpg,FN,3,num_4,16,num_4,0.983499246417,,,2018_Feb_09_1224,60.0056390921,MAFE4ImagesEEG,001,102587,
AFNE01.JPG,AFNE01.JPG,AFNE01.JPG,AFNE01.JPG,AFNE01.JPG,AFNE01.JPG,,,,,,,,,,,,,0,4,4,8,,,,,,,,,,,AFNE15.jpg,AFSA16.jpg,AFSA10.jpg,AFNE06.jpg,AFSA16.jpg,FS,4,num_6,16,num_6,0.700184777845,,,2018_Feb_09_1224,60.0056390921,MAFE4ImagesEEG,001,102587,
AFNE01.JPG,AFNE01.JPG,AFNE01.JPG,AFNE01.JPG,AFNE01.JPG,AFNE01.JPG,,,,,,,,,,,,,0,5,5,3,,,,,,,,,,,AFNE19.jpg,AFSA01.jpg,AFNE11.jpg,AFSA07.jpg,AFSA01.jpg,FS,4,num_6,16,num_6,1.08353398251,,,2018_Feb_09_1224,60.0056390921,MAFE4ImagesEEG,001,102587,
AFNE01.JPG,AFNE01.JPG,AFNE01.JPG,AFNE01.JPG,AFNE01.JPG,AFNE01.JPG,,,,,,,,,,,,,0,6,6,7,,,,,,,,,,,AFNE17.jpg,AFSA19.jpg,AFSA18.jpg,AFNE14.jpg,AFSA18.jpg,FS,4,num_2,16,num_2,0.816795641324,,,2018_Feb_09_1224,60.0056390921,MAFE4ImagesEEG,001,102587,
AFNE01.JPG,AFNE01.JPG,AFNE01.JPG,AFNE01.JPG,AFNE01.JPG,AFNE01.JPG,,,,,,,,,,,,,0,7,7,1,,,,,,,,,,,AFSA20.jpg,AFNE01.jpg,AFNE19.jpg,AFSA09.jpg,AFNE19.jpg,FN,3,num_2,32,num_6,0.566834851634,,,2018_Feb_09_1224,60.0056390921,MAFE4ImagesEEG,001,102587,
AFNE01.JPG,AFNE01.JPG,AFNE01.JPG,AFNE01.JPG,AFNE01.JPG,AFNE01.JPG,,,,,,,,,,,,,0,8,8,4,,,,,,,,,,,AFNE13.jpg,AFSA11.jpg,AFNE10.jpg,AFSA09.jpg,AFSA09.jpg,FS,4,num_4,32,num_6,1.88335577981,,,2018_Feb_09_1224,60.0056390921,MAFE4ImagesEEG,001,102587,
AFNE01.JPG,AFNE01.JPG,AFNE01.JPG,AFNE01.JPG,AFNE01.JPG,AFNE01.JPG,,,,,,,,,,,,,0,9,9,0,,,,,,,,,,,AFNE09.jpg,AFNE16.jpg,AFSA03.jpg,AFSA01.jpg,AFNE09.jpg,FN,3,num_8,32,num_2,1.30009426526,,,2018_Feb_09_1224,60.0056390921,MAFE4ImagesEEG,001,102587,
AFNE01.JPG,AFNE01.JPG,AFNE01.JPG,AFNE01.JPG,AFNE01.JPG,AFNE01.JPG,,,,,,,,,,,,,1,0,10,0,,,,,,,,,,,AFSA18.jpg,AFNE02.jpg,AFSA07.jpg,AFNE08.jpg,AFNE08.jpg,FN,3,num_4,16,num_4,1.30020524096,,,2018_Feb_09_1224,60.0056390921,MAFE4ImagesEEG,001,102587,
AFNE01.JPG,AFNE01.JPG,AFNE01.JPG,AFNE01.JPG,AFNE01.JPG,AFNE01.JPG,,,,,,,,,,,,,1,1,11,1,,,,,,,,,,,AFSA06.jpg,AFNE07.jpg,AFSA10.jpg,AFNE02.jpg,AFNE07.jpg,FN,3,num_6,32,num_2,1.66672974546,,,2018_Feb_09_1224,60.0056390921,MAFE4ImagesEEG,001,102587,
AFNE01.JPG,AFNE01.JPG,AFNE01.JPG,AFNE01.JPG,AFNE01.JPG,AFNE01.JPG,,,,,,,,,,,,,1,2,12,9,,,,,,,,,,,AFNE05.jpg,AFSA15.jpg,AFNE02.jpg,AFSA18.jpg,AFSA15.jpg,FS,4,num_6,16,num_6,1.63343379949,,,2018_Feb_09_1224,60.0056390921,MAFE4ImagesEEG,001,102587,
AFNE01.JPG,AFNE01.JPG,AFNE01.JPG,AFNE01.JPG,AFNE01.JPG,AFNE01.JPG,,,,,,,,,,,,,1,3,13,5,,,,,,,,,,,AFNE12.jpg,AFNE09.jpg,AFSA04.jpg,AFSA20.jpg,AFNE12.jpg,FN,3,num_8,16,num_8,0.833464462077,,,2018_Feb_09_1224,60.0056390921,MAFE4ImagesEEG,001,102587,
AFNE01.JPG,AFNE01.JPG,AFNE01.JPG,AFNE01.JPG,AFNE01.JPG,AFNE01.JPG,,,,,,,,,,,,,1,4,14,6,,,,,,,,,,,AFNE11.jpg,AFSA05.jpg,AFSA04.jpg,AFNE10.jpg,AFNE10.jpg,FN,3,num_4,16,num_4,0.60011187382,,,2018_Feb_09_1224,60.0056390921,MAFE4ImagesEEG,001,102587,
AFNE01.JPG,AFNE01.JPG,AFNE01.JPG,AFNE01.JPG,AFNE01.JPG,AFNE01.JPG,,,,,,,,,,,,,1,5,15,7,,,,,,,,,,,AFSA07.jpg,AFSA20.jpg,AFNE12.jpg,AFNE04.jpg,AFNE12.jpg,FN,3,num_2,16,num_2,1.01679807901,,,2018_Feb_09_1224,60.0056390921,MAFE4ImagesEEG,001,102587,
AFNE01.JPG,AFNE01.JPG,AFNE01.JPG,AFNE01.JPG,AFNE01.JPG,AFNE01.JPG,,,,,,,,,,,,,1,6,16,2,,,,,,,,,,,AFNE06.jpg,AFNE13.jpg,AFSA13.jpg,AFSA05.jpg,AFSA13.jpg,FS,4,num_2,16,num_2,0.600167041179,,,2018_Feb_09_1224,60.0056390921,MAFE4ImagesEEG,001,102587,
AFNE01.JPG,AFNE01.JPG,AFNE01.JPG,AFNE01.JPG,AFNE01.JPG,AFNE01.JPG,,,,,,,,,,,,,1,7,17,3,,,,,,,,,,,AFNE10.jpg,AFNE14.jpg,AFSA12.jpg,AFSA04.jpg,AFSA12.jpg,FS,4,num_2,16,num_2,0.566822984256,,,2018_Feb_09_1224,60.0056390921,MAFE4ImagesEEG,001,102587,
AFNE01.JPG,AFNE01.JPG,AFNE01.JPG,AFNE01.JPG,AFNE01.JPG,AFNE01.JPG,,,,,,,,,,,,,1,8,18,4,,,,,,,,,,,AFNE05.jpg,AFSA16.jpg,AFNE06.jpg,AFSA08.jpg,AFNE05.jpg,FN,3,num_8,32,num_6,0.783471791074,,,2018_Feb_09_1224,60.0056390921,MAFE4ImagesEEG,001,102587,
AFNE01.JPG,AFNE01.JPG,AFNE01.JPG,AFNE01.JPG,AFNE01.JPG,AFNE01.JPG,,,,,,,,,,,,,1,9,19,8,,,,,,,,,,,AFSA12.jpg,AFSA16.jpg,AFNE16.jpg,AFNE15.jpg,AFSA12.jpg,FS,4,num_8,32,num_4,0.933497273829,,,2018_Feb_09_1224,60.0056390921,MAFE4ImagesEEG,001,102587,
AFNE01.JPG,AFNE01.JPG,AFNE01.JPG,AFNE01.JPG,AFNE01.JPG,AFNE01.JPG,,,,,,,,,,,,,2,0,20,2,,,,,,,,,,,AFSA07.jpg,AFNE07.jpg,AFSA05.jpg,AFNE15.jpg,AFNE15.jpg,FN,3,num_4,16,num_4,0.900149047608,,,2018_Feb_09_1224,60.0056390921,MAFE4ImagesEEG,001,102587,
AFNE01.JPG,AFNE01.JPG,AFNE01.JPG,AFNE01.JPG,AFNE01.JPG,AFNE01.JPG,,,,,,,,,,,,,2,1,21,5,,,,,,,,,,,AFNE20.jpg,AFSA17.jpg,AFNE14.jpg,AFSA02.jpg,AFSA17.jpg,FS,4,num_6,32,num_4,0.783466980094,,,2018_Feb_09_1224,60.0056390921,MAFE4ImagesEEG,001,102587,
AFNE01.JPG,AFNE01.JPG,AFNE01.JPG,AFNE01.JPG,AFNE01.JPG,AFNE01.JPG,,,,,,,,,,,,,2,2,22,4,,,,,,,,,,,AFSA07.jpg,AFNE11.jpg,AFSA04.jpg,AFNE15.jpg,AFNE15.jpg,FN,3,num_4,16,num_4,1.38345921831,,,2018_Feb_09_1224,60.0056390921,MAFE4ImagesEEG,001,102587,
AFNE01.JPG,AFNE01.JPG,AFNE01.JPG,AFNE01.JPG,AFNE01.JPG,AFNE01.JPG,,,,,,,,,,,,,2,3,23,3,,,,,,,,,,,AFNE12.jpg,AFSA19.jpg,AFSA02.jpg,AFNE09.jpg,AFNE12.jpg,FN,3,num_8,32,num_4,2.40007575857,,,2018_Feb_09_1224,60.0056390921,MAFE4ImagesEEG,001,102587,
AFNE01.JPG,AFNE01.JPG,AFNE01.JPG,AFNE01.JPG,AFNE01.JPG,AFNE01.JPG,,,,,,,,,,,,,2,4,24,8,,,,,,,,,,,AFSA08.jpg,AFNE09.jpg,AFNE04.jpg,AFSA12.jpg,AFSA08.jpg,FS,4,num_8,16,num_8,0.950111248298,,,2018_Feb_09_1224,60.0056390921,MAFE4ImagesEEG,001,102587,
AFNE01.JPG,AFNE01.JPG,AFNE01.JPG,AFNE01.JPG,AFNE01.JPG,AFNE01.JPG,,,,,,,,,,,,,2,5,25,0,,,,,,,,,,,AFNE13.jpg,AFNE16.jpg,AFSA01.jpg,AFSA19.jpg,AFNE13.jpg,FN,3,num_8,32,num_2,0.866781256162,,,2018_Feb_09_1224,60.0056390921,MAFE4ImagesEEG,001,102587,
AFNE01.JPG,AFNE01.JPG,AFNE01.JPG,AFNE01.JPG,AFNE01.JPG,AFNE01.JPG,,,,,,,,,,,,,2,6,26,6,,,,,,,,,,,AFSA12.jpg,AFNE05.jpg,AFNE14.jpg,AFSA13.jpg,AFSA13.jpg,FS,4,num_4,32,num_2,0.833467669552,,,2018_Feb_09_1224,60.0056390921,MAFE4ImagesEEG,001,102587,
AFNE01.JPG,AFNE01.JPG,AFNE01.JPG,AFNE01.JPG,AFNE01.JPG,AFNE01.JPG,,,,,,,,,,,,,2,7,27,7,,,,,,,,,,,AFSA17.jpg,AFSA04.jpg,AFNE04.jpg,AFNE13.jpg,AFNE04.jpg,FN,3,num_2,16,num_2,0.783557107905,,,2018_Feb_09_1224,60.0056390921,MAFE4ImagesEEG,001,102587,
AFNE01.JPG,AFNE01.JPG,AFNE01.JPG,AFNE01.JPG,AFNE01.JPG,AFNE01.JPG,,,,,,,,,,,,,2,8,28,9,,,,,,,,,,,AFNE08.jpg,AFNE01.jpg,AFSA16.jpg,AFSA05.jpg,AFNE01.jpg,FN,3,num_6,32,num_2,0.700414427323,,,2018_Feb_09_1224,60.0056390921,MAFE4ImagesEEG,001,102587,
AFNE01.JPG,AFNE01.JPG,AFNE01.JPG,AFNE01.JPG,AFNE01.JPG,AFNE01.JPG,,,,,,,,,,,,,2,9,29,1,,,,,,,,,,,AFNE03.jpg,AFSA02.jpg,AFNE10.jpg,AFSA13.jpg,AFSA13.jpg,FS,4,num_4,16,num_4,0.850133603904,,,2018_Feb_09_1224,60.0056390921,MAFE4ImagesEEG,001,102587,
AFNE01.JPG,AFNE01.JPG,AFNE01.JPG,AFNE01.JPG,AFNE01.JPG,AFNE01.JPG,,,,,,,,,,,,,3,0,30,9,,,,,,,,,,,AFNE03.jpg,AFNE12.jpg,AFSA02.jpg,AFSA12.jpg,AFNE03.jpg,FN,3,num_8,16,num_8,0.983490265906,,,2018_Feb_09_1224,60.0056390921,MAFE4ImagesEEG,001,102587,
AFNE01.JPG,AFNE01.JPG,AFNE01.JPG,AFNE01.JPG,AFNE01.JPG,AFNE01.JPG,,,,,,,,,,,,,3,1,31,8,,,,,,,,,,,AFNE20.jpg,AFSA06.jpg,AFSA20.jpg,AFNE12.jpg,AFNE12.jpg,FN,3,num_4,32,num_8,0.716870277189,,,2018_Feb_09_1224,60.0056390921,MAFE4ImagesEEG,001,102587,
AFNE01.JPG,AFNE01.JPG,AFNE01.JPG,AFNE01.JPG,AFNE01.JPG,AFNE01.JPG,,,,,,,,,,,,,3,2,32,6,,,,,,,,,,,AFNE14.jpg,AFSA07.jpg,AFNE11.jpg,AFSA04.jpg,AFNE14.jpg,FN,3,num_8,32,num_2,1.61676690285,,,2018_Feb_09_1224,60.0056390921,MAFE4ImagesEEG,001,102587,
AFNE01.JPG,AFNE01.JPG,AFNE01.JPG,AFNE01.JPG,AFNE01.JPG,AFNE01.JPG,,,,,,,,,,,,,3,3,33,0,,,,,,,,,,,AFSA18.jpg,AFNE11.jpg,AFNE16.jpg,AFSA12.jpg,AFNE11.jpg,FN,3,num_6,32,num_8,0.616800580639,,,2018_Feb_09_1224,60.0056390921,MAFE4ImagesEEG,001,102587,
AFNE01.JPG,AFNE01.JPG,AFNE01.JPG,AFNE01.JPG,AFNE01.JPG,AFNE01.JPG,,,,,,,,,,,,,3,4,34,1,,,,,,,,,,,AFNE17.jpg,AFSA04.jpg,AFNE05.jpg,AFSA18.jpg,AFNE05.jpg,FN,3,num_2,32,num_8,0.716776942136,,,2018_Feb_09_1224,60.0056390921,MAFE4ImagesEEG,001,102587,
AFNE01.JPG,AFNE01.JPG,AFNE01.JPG,AFNE01.JPG,AFNE01.JPG,AFNE01.JPG,,,,,,,,,,,,,3,5,35,5,,,,,,,,,,,AFNE17.jpg,AFNE11.jpg,AFSA10.jpg,AFSA20.jpg,AFNE11.jpg,FN,3,num_6,32,num_8,0.600145551376,,,2018_Feb_09_1224,60.0056390921,MAFE4ImagesEEG,001,102587,
AFNE01.JPG,AFNE01.JPG,AFNE01.JPG,AFNE01.JPG,AFNE01.JPG,AFNE01.JPG,,,,,,,,,,,,,3,6,36,2,,,,,,,,,,,AFSA20.jpg,AFNE07.jpg,AFNE09.jpg,AFSA04.jpg,AFSA20.jpg,FS,4,num_8,16,num_8,0.700175155653,,,2018_Feb_09_1224,60.0056390921,MAFE4ImagesEEG,001,102587,
AFNE01.JPG,AFNE01.JPG,AFNE01.JPG,AFNE01.JPG,AFNE01.JPG,AFNE01.JPG,,,,,,,,,,,,,3,7,37,7,,,,,,,,,,,AFNE06.jpg,AFSA13.jpg,AFSA15.jpg,AFNE12.jpg,AFSA15.jpg,FS,4,num_2,16,num_2,0.683451488381,,,2018_Feb_09_1224,60.0056390921,MAFE4ImagesEEG,001,102587,
AFNE01.JPG,AFNE01.JPG,AFNE01.JPG,AFNE01.JPG,AFNE01.JPG,AFNE01.JPG,,,,,,,,,,,,,3,8,38,4,,,,,,,,,,,AFSA02.jpg,AFNE03.jpg,AFSA10.jpg,AFNE09.jpg,AFSA02.jpg,FS,4,num_8,16,num_8,0.683544181986,,,2018_Feb_09_1224,60.0056390921,MAFE4ImagesEEG,001,102587,
AFNE01.JPG,AFNE01.JPG,AFNE01.JPG,AFNE01.JPG,AFNE01.JPG,AFNE01.JPG,,,,,,,,,,,,,3,9,39,3,,,,,,,,,,,AFNE02.jpg,AFSA10.jpg,AFSA14.jpg,AFNE05.jpg,AFNE02.jpg,FN,3,num_8,16,num_8,0.883456491865,,,2018_Feb_09_1224,60.0056390921,MAFE4ImagesEEG,001,102587,
AFNE01.JPG,AFNE01.JPG,AFNE01.JPG,AFNE01.JPG,AFNE01.JPG,AFNE01.JPG,,,,,,,,,,,,,4,0,40,4,,,,,,,,,,,AFSA20.jpg,AFSA08.jpg,AFNE13.jpg,AFNE16.jpg,AFSA20.jpg,FS,4,num_8,32,num_2,1.20031804522,,,2018_Feb_09_1224,60.0056390921,MAFE4ImagesEEG,001,102587,
AFNE01.JPG,AFNE01.JPG,AFNE01.JPG,AFNE01.JPG,AFNE01.JPG,AFNE01.JPG,,,,,,,,,,,,,4,1,41,9,,,,,,,,,,,AFNE14.jpg,AFNE06.jpg,AFSA12.jpg,AFSA04.jpg,AFNE06.jpg,FN,3,num_6,32,num_8,1.13345352514,,,2018_Feb_09_1224,60.0056390921,MAFE4ImagesEEG,001,102587,
AFNE01.JPG,AFNE01.JPG,AFNE01.JPG,AFNE01.JPG,AFNE01.JPG,AFNE01.JPG,,,,,,,,,,,,,4,2,42,1,,,,,,,,,,,AFNE03.jpg,AFSA05.jpg,AFNE10.jpg,AFSA03.jpg,AFSA05.jpg,FS,4,num_6,32,num_8,0.850132321008,,,2018_Feb_09_1224,60.0056390921,MAFE4ImagesEEG,001,102587,
AFNE01.JPG,AFNE01.JPG,AFNE01.JPG,AFNE01.JPG,AFNE01.JPG,AFNE01.JPG,,,,,,,,,,,,,4,3,43,7,,,,,,,,,,,AFNE11.jpg,AFNE05.jpg,AFSA14.jpg,AFSA17.jpg,AFSA14.jpg,FS,4,num_2,16,num_2,0.883453926072,,,2018_Feb_09_1224,60.0056390921,MAFE4ImagesEEG,001,102587,
AFNE01.JPG,AFNE01.JPG,AFNE01.JPG,AFNE01.JPG,AFNE01.JPG,AFNE01.JPG,,,,,,,,,,,,,4,4,44,3,,,,,,,,,,,AFSA05.jpg,AFSA01.jpg,AFNE03.jpg,AFNE16.jpg,AFNE16.jpg,FN,3,num_4,32,num_8,1.21686530579,,,2018_Feb_09_1224,60.0056390921,MAFE4ImagesEEG,001,102587,
AFNE01.JPG,AFNE01.JPG,AFNE01.JPG,AFNE01.JPG,AFNE01.JPG,AFNE01.JPG,,,,,,,,,,,,,4,5,45,5,,,,,,,,,,,AFNE06.jpg,AFNE01.jpg,AFSA14.jpg,AFSA02.jpg,AFNE01.jpg,FN,3,num_6,32,num_8,0.766775386641,,,2018_Feb_09_1224,60.0056390921,MAFE4ImagesEEG,001,102587,
AFNE01.JPG,AFNE01.JPG,AFNE01.JPG,AFNE01.JPG,AFNE01.JPG,AFNE01.JPG,,,,,,,,,,,,,4,6,46,8,,,,,,,,,,,AFSA20.jpg,AFSA11.jpg,AFNE15.jpg,AFNE10.jpg,AFNE10.jpg,FN,3,num_4,32,num_8,0.883462265134,,,2018_Feb_09_1224,60.0056390921,MAFE4ImagesEEG,001,102587,
AFNE01.JPG,AFNE01.JPG,AFNE01.JPG,AFNE01.JPG,AFNE01.JPG,AFNE01.JPG,,,,,,,,,,,,,4,7,47,6,,,,,,,,,,,AFSA02.jpg,AFNE05.jpg,AFNE07.jpg,AFSA09.jpg,AFNE05.jpg,FN,3,num_6,32,num_2,1.6667987043,,,2018_Feb_09_1224,60.0056390921,MAFE4ImagesEEG,001,102587,
AFNE01.JPG,AFNE01.JPG,AFNE01.JPG,AFNE01.JPG,AFNE01.JPG,AFNE01.JPG,,,,,,,,,,,,,4,8,48,0,,,,,,,,,,,AFSA20.jpg,AFNE10.jpg,AFSA14.jpg,AFNE16.jpg,AFNE10.jpg,FN,3,num_6,32,num_8,0.716809657402,,,2018_Feb_09_1224,60.0056390921,MAFE4ImagesEEG,001,102587,
AFNE01.JPG,AFNE01.JPG,AFNE01.JPG,AFNE01.JPG,AFNE01.JPG,AFNE01.JPG,,,,,,,,,,,,,4,9,49,2,,,,,,,,,,,AFSA14.jpg,AFNE19.jpg,AFNE15.jpg,AFSA05.jpg,AFSA14.jpg,FS,4,num_8,16,num_8,1.56701382413,,,2018_Feb_09_1224,60.0056390921,MAFE4ImagesEEG,001,102587,
AFNE01.JPG,AFNE01.JPG,AFNE01.JPG,AFNE01.JPG,AFNE01.JPG,AFNE01.JPG,,,,,,,,,,,,,5,0,50,7,,,,,,,,,,,AFNE01.jpg,AFSA17.jpg,AFSA11.jpg,AFNE10.jpg,AFNE10.jpg,FN,3,num_4,16,num_4,1.35009014374,,,2018_Feb_09_1224,60.0056390921,MAFE4ImagesEEG,001,102587,
AFNE01.JPG,AFNE01.JPG,AFNE01.JPG,AFNE01.JPG,AFNE01.JPG,AFNE01.JPG,,,,,,,,,,,,,5,1,51,9,,,,,,,,,,,AFNE13.jpg,AFSA20.jpg,AFSA04.jpg,AFNE14.jpg,AFNE13.jpg,FN,3,num_8,16,num_8,0.80014542304,,,2018_Feb_09_1224,60.0056390921,MAFE4ImagesEEG,001,102587,
AFNE01.JPG,AFNE01.JPG,AFNE01.JPG,AFNE01.JPG,AFNE01.JPG,AFNE01.JPG,,,,,,,,,,,,,5,2,52,0,,,,,,,,,,,AFSA02.jpg,AFNE11.jpg,AFSA11.jpg,AFNE17.jpg,AFSA11.jpg,FS,4,num_2,16,num_2,0.633453685325,,,2018_Feb_09_1224,60.0056390921,MAFE4ImagesEEG,001,102587,
AFNE01.JPG,AFNE01.JPG,AFNE01.JPG,AFNE01.JPG,AFNE01.JPG,AFNE01.JPG,,,,,,,,,,,,,5,3,53,6,,,,,,,,,,,AFNE04.jpg,AFSA04.jpg,AFNE02.jpg,AFSA16.jpg,AFNE04.jpg,FN,3,num_8,16,num_8,0.950120229041,,,2018_Feb_09_1224,60.0056390921,MAFE4ImagesEEG,001,102587,
AFNE01.JPG,AFNE01.JPG,AFNE01.JPG,AFNE01.JPG,AFNE01.JPG,AFNE01.JPG,,,,,,,,,,,,,5,4,54,4,,,,,,,,,,,AFSA04.jpg,AFNE08.jpg,AFSA16.jpg,AFNE18.jpg,AFSA16.jpg,FS,4,num_2,16,num_2,1.88337566564,,,2018_Feb_09_1224,60.0056390921,MAFE4ImagesEEG,001,102587,
AFNE01.JPG,AFNE01.JPG,AFNE01.JPG,AFNE01.JPG,AFNE01.JPG,AFNE01.JPG,,,,,,,,,,,,,5,5,55,1,,,,,,,,,,,AFNE08.jpg,AFNE12.jpg,AFSA19.jpg,AFSA17.jpg,AFSA19.jpg,FS,4,num_2,16,num_2,0.683463034919,,,2018_Feb_09_1224,60.0056390921,MAFE4ImagesEEG,001,102587,
AFNE01.JPG,AFNE01.JPG,AFNE01.JPG,AFNE01.JPG,AFNE01.JPG,AFNE01.JPG,,,,,,,,,,,,,5,6,56,2,,,,,,,,,,,AFNE13.jpg,AFNE17.jpg,AFSA08.jpg,AFSA17.jpg,AFNE13.jpg,FN,3,num_8,32,num_6,2.06672179094,,,2018_Feb_09_1224,60.0056390921,MAFE4ImagesEEG,001,102587,
AFNE01.JPG,AFNE01.JPG,AFNE01.JPG,AFNE01.JPG,AFNE01.JPG,AFNE01.JPG,,,,,,,,,,,,,5,7,57,5,,,,,,,,,,,AFSA13.jpg,AFNE14.jpg,AFNE06.jpg,AFSA02.jpg,AFSA02.jpg,FS,4,num_4,32,num_8,0.950108682504,,,2018_Feb_09_1224,60.0056390921,MAFE4ImagesEEG,001,102587,
AFNE01.JPG,AFNE01.JPG,AFNE01.JPG,AFNE01.JPG,AFNE01.JPG,AFNE01.JPG,,,,,,,,,,,,,5,8,58,3,,,,,,,,,,,AFSA14.jpg,AFNE19.jpg,AFNE17.jpg,AFSA18.jpg,AFNE17.jpg,FN,3,num_2,32,num_8,0.783514449606,,,2018_Feb_09_1224,60.0056390921,MAFE4ImagesEEG,001,102587,
AFNE01.JPG,AFNE01.JPG,AFNE01.JPG,AFNE01.JPG,AFNE01.JPG,AFNE01.JPG,,,,,,,,,,,,,5,9,59,8,,,,,,,,,,,AFNE09.jpg,AFNE20.jpg,AFSA01.jpg,AFSA16.jpg,AFSA01.jpg,FS,4,num_2,32,num_8,0.466829944402,,,2018_Feb_09_1224,60.0056390921,MAFE4ImagesEEG,001,102587,
,,,,,,,,,,,,,,,,,,,,,,,,,,,,,,,,,,,,,,,,,,,space,33.4644673788,2018_Feb_09_1224,60.0056390921,MAFE4ImagesEEG,001,102587,
AFNE01.JPG,AFNE01.JPG,AFNE01.JPG,AFNE01.JPG,AFNE01.JPG,AFNE01.JPG,,,,,,,,,,,,,,,,,0,0,0,3,,,,,,,AMNE18.jpg,AMSA04.jpg,AMSA13.jpg,AMNE09.jpg,AMNE09.jpg,MN,1,num_4,32,num_8,0.716800356284,,,2018_Feb_09_1224,60.0056390921,MAFE4ImagesEEG,001,102587,
AFNE01.JPG,AFNE01.JPG,AFNE01.JPG,AFNE01.JPG,AFNE01.JPG,AFNE01.JPG,,,,,,,,,,,,,,,,,0,1,1,5,,,,,,,AMSA01.jpg,AMNE20.jpg,AMNE03.jpg,AMSA19.jpg,AMNE03.jpg,MN,1,num_2,32,num_4,0.900120181032,,,2018_Feb_09_1224,60.0056390921,MAFE4ImagesEEG,001,102587,
AFNE01.JPG,AFNE01.JPG,AFNE01.JPG,AFNE01.JPG,AFNE01.JPG,AFNE01.JPG,,,,,,,,,,,,,,,,,0,2,2,0,,,,,,,AMSA14.jpg,AMNE10.jpg,AMNE03.jpg,AMSA07.jpg,AMNE03.jpg,MN,1,num_2,32,num_6,0.916609708918,,,2018_Feb_09_1224,60.0056390921,MAFE4ImagesEEG,001,102587,
AFNE01.JPG,AFNE01.JPG,AFNE01.JPG,AFNE01.JPG,AFNE01.JPG,AFNE01.JPG,,,,,,,,,,,,,,,,,0,3,3,4,,,,,,,AMSA20.jpg,AMSA04.jpg,AMNE07.jpg,AMNE10.jpg,AMSA04.jpg,MS,2,num_6,32,num_8,1.16680463799,,,2018_Feb_09_1224,60.0056390921,MAFE4ImagesEEG,001,102587,
AFNE01.JPG,AFNE01.JPG,AFNE01.JPG,AFNE01.JPG,AFNE01.JPG,AFNE01.JPG,,,,,,,,,,,,,,,,,0,4,4,2,,,,,,,AMSA11.jpg,AMNE08.jpg,AMSA12.jpg,AMNE06.jpg,AMSA12.jpg,MS,2,num_2,16,num_2,1.55005633784,,,2018_Feb_09_1224,60.0056390921,MAFE4ImagesEEG,001,102587,
AFNE01.JPG,AFNE01.JPG,AFNE01.JPG,AFNE01.JPG,AFNE01.JPG,AFNE01.JPG,,,,,,,,,,,,,,,,,0,5,5,9,,,,,,,AMSA04.jpg,AMNE13.jpg,AMNE16.jpg,AMSA16.jpg,AMSA16.jpg,MS,2,num_4,32,num_8,0.733439027565,,,2018_Feb_09_1224,60.0056390921,MAFE4ImagesEEG,001,102587,
AFNE01.JPG,AFNE01.JPG,AFNE01.JPG,AFNE01.JPG,AFNE01.JPG,AFNE01.JPG,,,,,,,,,,,,,,,,,0,6,6,6,,,,,,,AMSA07.jpg,AMNE10.jpg,AMNE12.jpg,AMSA10.jpg,AMSA10.jpg,MS,2,num_4,16,num_4,0.600139136659,,,2018_Feb_09_1224,60.0056390921,MAFE4ImagesEEG,001,102587,
AFNE01.JPG,AFNE01.JPG,AFNE01.JPG,AFNE01.JPG,AFNE01.JPG,AFNE01.JPG,,,,,,,,,,,,,,,,,0,7,7,7,,,,,,,AMNE03.jpg,AMNE11.jpg,AMSA01.jpg,AMSA14.jpg,AMSA14.jpg,MS,2,num_4,16,num_4,0.63349890965,,,2018_Feb_09_1224,60.0056390921,MAFE4ImagesEEG,001,102587,
AFNE01.JPG,AFNE01.JPG,AFNE01.JPG,AFNE01.JPG,AFNE01.JPG,AFNE01.JPG,,,,,,,,,,,,,,,,,0,8,8,1,,,,,,,AMNE18.jpg,AMSA07.jpg,AMNE04.jpg,AMSA16.jpg,AMNE04.jpg,MN,1,num_2,32,num_8,0.633480627555,,,2018_Feb_09_1224,60.0056390921,MAFE4ImagesEEG,001,102587,
AFNE01.JPG,AFNE01.JPG,AFNE01.JPG,AFNE01.JPG,AFNE01.JPG,AFNE01.JPG,,,,,,,,,,,,,,,,,0,9,9,8,,,,,,,AMNE07.jpg,AMSA03.jpg,AMNE06.jpg,AMSA05.jpg,AMSA05.jpg,MS,2,num_4,32,num_2,1.46671415749,,,2018_Feb_09_1224,60.0056390921,MAFE4ImagesEEG,001,102587,
AFNE01.JPG,AFNE01.JPG,AFNE01.JPG,AFNE01.JPG,AFNE01.JPG,AFNE01.JPG,,,,,,,,,,,,,,,,,1,0,10,0,,,,,,,AMNE11.jpg,AMSA13.jpg,AMSA15.jpg,AMNE10.jpg,AMSA13.jpg,MS,2,num_6,32,num_4,0.733565078117,,,2018_Feb_09_1224,60.0056390921,MAFE4ImagesEEG,001,102587,
AFNE01.JPG,AFNE01.JPG,AFNE01.JPG,AFNE01.JPG,AFNE01.JPG,AFNE01.JPG,,,,,,,,,,,,,,,,,1,1,11,6,,,,,,,AMNE16.jpg,AMNE08.jpg,AMSA01.jpg,AMSA08.jpg,AMNE16.jpg,MN,1,num_8,16,num_8,1.23343469761,,,2018_Feb_09_1224,60.0056390921,MAFE4ImagesEEG,001,102587,
AFNE01.JPG,AFNE01.JPG,AFNE01.JPG,AFNE01.JPG,AFNE01.JPG,AFNE01.JPG,,,,,,,,,,,,,,,,,1,2,12,4,,,,,,,AMNE04.jpg,AMSA07.jpg,AMNE18.jpg,AMSA08.jpg,AMSA08.jpg,MS,2,num_4,32,num_8,0.750147620449,,,2018_Feb_09_1224,60.0056390921,MAFE4ImagesEEG,001,102587,
AFNE01.JPG,AFNE01.JPG,AFNE01.JPG,AFNE01.JPG,AFNE01.JPG,AFNE01.JPG,,,,,,,,,,,,,,,,,1,3,13,5,,,,,,,AMNE20.jpg,AMNE14.jpg,AMSA09.jpg,AMSA18.jpg,AMNE14.jpg,MN,1,num_6,32,num_8,0.766786933411,,,2018_Feb_09_1224,60.0056390921,MAFE4ImagesEEG,001,102587,
AFNE01.JPG,AFNE01.JPG,AFNE01.JPG,AFNE01.JPG,AFNE01.JPG,AFNE01.JPG,,,,,,,,,,,,,,,,,1,4,14,3,,,,,,,AMSA13.jpg,AMSA20.jpg,AMNE20.jpg,AMNE17.jpg,AMNE17.jpg,MN,1,num_4,32,num_8,1.01681315363,,,2018_Feb_09_1224,60.0056390921,MAFE4ImagesEEG,001,102587,
AFNE01.JPG,AFNE01.JPG,AFNE01.JPG,AFNE01.JPG,AFNE01.JPG,AFNE01.JPG,,,,,,,,,,,,,,,,,1,5,15,7,,,,,,,AMNE05.jpg,AMSA17.jpg,AMSA08.jpg,AMNE20.jpg,AMNE20.jpg,MN,1,num_4,16,num_4,1.15011753491,,,2018_Feb_09_1224,60.0056390921,MAFE4ImagesEEG,001,102587,
AFNE01.JPG,AFNE01.JPG,AFNE01.JPG,AFNE01.JPG,AFNE01.JPG,AFNE01.JPG,,,,,,,,,,,,,,,,,1,6,16,1,,,,,,,AMSA10.jpg,AMNE10.jpg,AMNE09.jpg,AMSA19.jpg,AMNE09.jpg,MN,1,num_2,16,num_2,0.683465280104,,,2018_Feb_09_1224,60.0056390921,MAFE4ImagesEEG,001,102587,
AFNE01.JPG,AFNE01.JPG,AFNE01.JPG,AFNE01.JPG,AFNE01.JPG,AFNE01.JPG,,,,,,,,,,,,,,,,,1,7,17,8,,,,,,,AMSA02.jpg,AMSA01.jpg,AMNE20.jpg,AMNE18.jpg,AMNE18.jpg,MN,1,num_4,32,num_8,0.616839069175,,,2018_Feb_09_1224,60.0056390921,MAFE4ImagesEEG,001,102587,
AFNE01.JPG,AFNE01.JPG,AFNE01.JPG,AFNE01.JPG,AFNE01.JPG,AFNE01.JPG,,,,,,,,,,,,,,,,,1,8,18,9,,,,,,,AMNE11.jpg,AMNE06.jpg,AMSA08.jpg,AMSA09.jpg,AMSA08.jpg,MS,2,num_2,32,num_8,0.800155366072,,,2018_Feb_09_1224,60.0056390921,MAFE4ImagesEEG,001,102587,
AFNE01.JPG,AFNE01.JPG,AFNE01.JPG,AFNE01.JPG,AFNE01.JPG,AFNE01.JPG,,,,,,,,,,,,,,,,,1,9,19,2,,,,,,,AMNE18.jpg,AMNE14.jpg,AMSA10.jpg,AMSA11.jpg,AMSA10.jpg,MS,2,num_2,32,num_4,0.916761418339,,,2018_Feb_09_1224,60.0056390921,MAFE4ImagesEEG,001,102587,
AFNE01.JPG,AFNE01.JPG,AFNE01.JPG,AFNE01.JPG,AFNE01.JPG,AFNE01.JPG,,,,,,,,,,,,,,,,,2,0,20,9,,,,,,,AMNE03.jpg,AMNE02.jpg,AMSA19.jpg,AMSA12.jpg,AMNE03.jpg,MN,1,num_8,32,num_4,0.983489303617,,,2018_Feb_09_1224,60.0056390921,MAFE4ImagesEEG,001,102587,
AFNE01.JPG,AFNE01.JPG,AFNE01.JPG,AFNE01.JPG,AFNE01.JPG,AFNE01.JPG,,,,,,,,,,,,,,,,,2,1,21,8,,,,,,,AMNE13.jpg,AMSA03.jpg,AMNE02.jpg,AMSA17.jpg,AMSA03.jpg,MS,2,num_6,16,num_6,1.08342910069,,,2018_Feb_09_1224,60.0056390921,MAFE4ImagesEEG,001,102587,
AFNE01.JPG,AFNE01.JPG,AFNE01.JPG,AFNE01.JPG,AFNE01.JPG,AFNE01.JPG,,,,,,,,,,,,,,,,,2,2,22,7,,,,,,,AMSA09.jpg,AMNE02.jpg,AMSA05.jpg,AMNE09.jpg,AMNE09.jpg,MN,1,num_4,16,num_4,0.683482920751,,,2018_Feb_09_1224,60.0056390921,MAFE4ImagesEEG,001,102587,
AFNE01.JPG,AFNE01.JPG,AFNE01.JPG,AFNE01.JPG,AFNE01.JPG,AFNE01.JPG,,,,,,,,,,,,,,,,,2,3,23,0,,,,,,,AMNE01.jpg,AMSA20.jpg,AMSA17.jpg,AMNE13.jpg,AMNE01.jpg,MN,1,num_8,16,num_8,0.633446308551,,,2018_Feb_09_1224,60.0056390921,MAFE4ImagesEEG,001,102587,
AFNE01.JPG,AFNE01.JPG,AFNE01.JPG,AFNE01.JPG,AFNE01.JPG,AFNE01.JPG,,,,,,,,,,,,,,,,,2,4,24,4,,,,,,,AMNE10.jpg,AMNE17.jpg,AMSA08.jpg,AMSA20.jpg,AMSA08.jpg,MS,2,num_2,16,num_2,1.03352110484,,,2018_Feb_09_1224,60.0056390921,MAFE4ImagesEEG,001,102587,
AFNE01.JPG,AFNE01.JPG,AFNE01.JPG,AFNE01.JPG,AFNE01.JPG,AFNE01.JPG,,,,,,,,,,,,,,,,,2,5,25,5,,,,,,,AMNE19.jpg,AMSA11.jpg,AMSA17.jpg,AMNE17.jpg,AMSA17.jpg,MS,2,num_2,32,num_4,0.883266614284,,,2018_Feb_09_1224,60.0056390921,MAFE4ImagesEEG,001,102587,
AFNE01.JPG,AFNE01.JPG,AFNE01.JPG,AFNE01.JPG,AFNE01.JPG,AFNE01.JPG,,,,,,,,,,,,,,,,,2,6,26,2,,,,,,,AMSA06.jpg,AMNE04.jpg,AMSA04.jpg,AMNE05.jpg,AMSA06.jpg,MS,2,num_8,32,num_4,1.21671519987,,,2018_Feb_09_1224,60.0056390921,MAFE4ImagesEEG,001,102587,
AFNE01.JPG,AFNE01.JPG,AFNE01.JPG,AFNE01.JPG,AFNE01.JPG,AFNE01.JPG,,,,,,,,,,,,,,,,,2,7,27,1,,,,,,,AMNE18.jpg,AMSA12.jpg,AMSA15.jpg,AMNE06.jpg,AMNE06.jpg,MN,1,num_4,32,num_8,0.600141061237,,,2018_Feb_09_1224,60.0056390921,MAFE4ImagesEEG,001,102587,
AFNE01.JPG,AFNE01.JPG,AFNE01.JPG,AFNE01.JPG,AFNE01.JPG,AFNE01.JPG,,,,,,,,,,,,,,,,,2,8,28,3,,,,,,,AMNE15.jpg,AMNE08.jpg,AMSA15.jpg,AMSA12.jpg,AMSA15.jpg,MS,2,num_2,32,num_8,0.650231557898,,,2018_Feb_09_1224,60.0056390921,MAFE4ImagesEEG,001,102587,
AFNE01.JPG,AFNE01.JPG,AFNE01.JPG,AFNE01.JPG,AFNE01.JPG,AFNE01.JPG,,,,,,,,,,,,,,,,,2,9,29,6,,,,,,,AMSA01.jpg,AMSA02.jpg,AMNE13.jpg,AMNE08.jpg,AMNE13.jpg,MN,1,num_2,16,num_2,0.750154676614,,,2018_Feb_09_1224,60.0056390921,MAFE4ImagesEEG,001,102587,
AFNE01.JPG,AFNE01.JPG,AFNE01.JPG,AFNE01.JPG,AFNE01.JPG,AFNE01.JPG,,,,,,,,,,,,,,,,,3,0,30,4,,,,,,,AMSA12.jpg,AMSA01.jpg,AMNE14.jpg,AMNE16.jpg,AMNE16.jpg,MN,1,num_4,16,num_4,0.983467172366,,,2018_Feb_09_1224,60.0056390921,MAFE4ImagesEEG,001,102587,
AFNE01.JPG,AFNE01.JPG,AFNE01.JPG,AFNE01.JPG,AFNE01.JPG,AFNE01.JPG,,,,,,,,,,,,,,,,,3,1,31,6,,,,,,,AMNE06.jpg,AMNE01.jpg,AMSA17.jpg,AMSA04.jpg,AMSA17.jpg,MS,2,num_2,32,num_8,1.21677357447,,,2018_Feb_09_1224,60.0056390921,MAFE4ImagesEEG,001,102587,
AFNE01.JPG,AFNE01.JPG,AFNE01.JPG,AFNE01.JPG,AFNE01.JPG,AFNE01.JPG,,,,,,,,,,,,,,,,,3,2,32,3,,,,,,,AMNE12.jpg,AMSA18.jpg,AMNE18.jpg,AMSA02.jpg,AMSA18.jpg,MS,2,num_6,32,num_2,0.966835878091,,,2018_Feb_09_1224,60.0056390921,MAFE4ImagesEEG,001,102587,
AFNE01.JPG,AFNE01.JPG,AFNE01.JPG,AFNE01.JPG,AFNE01.JPG,AFNE01.JPG,,,,,,,,,,,,,,,,,3,3,33,7,,,,,,,AMSA09.jpg,AMNE08.jpg,AMSA17.jpg,AMNE09.jpg,AMNE08.jpg,MN,1,num_6,32,num_8,1.11679176032,,,2018_Feb_09_1224,60.0056390921,MAFE4ImagesEEG,001,102587,
AFNE01.JPG,AFNE01.JPG,AFNE01.JPG,AFNE01.JPG,AFNE01.JPG,AFNE01.JPG,,,,,,,,,,,,,,,,,3,4,34,0,,,,,,,AMSA06.jpg,AMNE18.jpg,AMNE10.jpg,AMSA02.jpg,AMNE18.jpg,MN,1,num_6,32,num_2,0.933442106703,,,2018_Feb_09_1224,60.0056390921,MAFE4ImagesEEG,001,102587,
AFNE01.JPG,AFNE01.JPG,AFNE01.JPG,AFNE01.JPG,AFNE01.JPG,AFNE01.JPG,,,,,,,,,,,,,,,,,3,5,35,9,,,,,,,AMNE20.jpg,AMSA05.jpg,AMNE16.jpg,AMSA10.jpg,AMSA10.jpg,MS,2,num_4,32,num_8,1.18347249669,,,2018_Feb_09_1224,60.0056390921,MAFE4ImagesEEG,001,102587,
AFNE01.JPG,AFNE01.JPG,AFNE01.JPG,AFNE01.JPG,AFNE01.JPG,AFNE01.JPG,,,,,,,,,,,,,,,,,3,6,36,8,,,,,,,AMNE07.jpg,AMSA01.jpg,AMNE10.jpg,AMSA11.jpg,AMSA01.jpg,MS,2,num_6,16,num_6,0.58334041643,,,2018_Feb_09_1224,60.0056390921,MAFE4ImagesEEG,001,102587,
AFNE01.JPG,AFNE01.JPG,AFNE01.JPG,AFNE01.JPG,AFNE01.JPG,AFNE01.JPG,,,,,,,,,,,,,,,,,3,7,37,5,,,,,,,AMNE03.jpg,AMNE06.jpg,AMSA10.jpg,AMSA01.jpg,AMNE03.jpg,MN,1,num_8,16,num_8,0.950082061114,,,2018_Feb_09_1224,60.0056390921,MAFE4ImagesEEG,001,102587,
AFNE01.JPG,AFNE01.JPG,AFNE01.JPG,AFNE01.JPG,AFNE01.JPG,AFNE01.JPG,,,,,,,,,,,,,,,,,3,8,38,2,,,,,,,AMNE14.jpg,AMNE10.jpg,AMSA16.jpg,AMSA03.jpg,AMSA03.jpg,MS,2,num_4,16,num_4,1.8165711239,,,2018_Feb_09_1224,60.0056390921,MAFE4ImagesEEG,001,102587,
AFNE01.JPG,AFNE01.JPG,AFNE01.JPG,AFNE01.JPG,AFNE01.JPG,AFNE01.JPG,,,,,,,,,,,,,,,,,3,9,39,1,,,,,,,AMSA05.jpg,AMNE10.jpg,AMSA17.jpg,AMNE03.jpg,AMSA17.jpg,MS,2,num_2,32,num_6,2.1503048467,,,2018_Feb_09_1224,60.0056390921,MAFE4ImagesEEG,001,102587,
AFNE01.JPG,AFNE01.JPG,AFNE01.JPG,AFNE01.JPG,AFNE01.JPG,AFNE01.JPG,,,,,,,,,,,,,,,,,4,0,40,7,,,,,,,AMNE01.jpg,AMSA04.jpg,AMSA12.jpg,AMNE14.jpg,AMNE14.jpg,MN,1,num_4,16,num_4,0.73347912007,,,2018_Feb_09_1224,60.0056390921,MAFE4ImagesEEG,001,102587,
AFNE01.JPG,AFNE01.JPG,AFNE01.JPG,AFNE01.JPG,AFNE01.JPG,AFNE01.JPG,,,,,,,,,,,,,,,,,4,1,41,4,,,,,,,AMNE03.jpg,AMNE18.jpg,AMSA17.jpg,AMSA19.jpg,AMNE18.jpg,MN,1,num_6,16,num_6,1.15013196832,,,2018_Feb_09_1224,60.0056390921,MAFE4ImagesEEG,001,102587,
AFNE01.JPG,AFNE01.JPG,AFNE01.JPG,AFNE01.JPG,AFNE01.JPG,AFNE01.JPG,,,,,,,,,,,,,,,,,4,2,42,9,,,,,,,AMNE03.jpg,AMSA11.jpg,AMSA10.jpg,AMNE08.jpg,AMSA11.jpg,MS,2,num_6,32,num_8,0.966749278363,,,2018_Feb_09_1224,60.0056390921,MAFE4ImagesEEG,001,102587,
AFNE01.JPG,AFNE01.JPG,AFNE01.JPG,AFNE01.JPG,AFNE01.JPG,AFNE01.JPG,,,,,,,,,,,,,,,,,4,3,43,5,,,,,,,AMSA06.jpg,AMSA20.jpg,AMNE18.jpg,AMNE14.jpg,AMNE14.jpg,MN,1,num_4,16,num_4,0.616805712692,,,2018_Feb_09_1224,60.0056390921,MAFE4ImagesEEG,001,102587,
AFNE01.JPG,AFNE01.JPG,AFNE01.JPG,AFNE01.JPG,AFNE01.JPG,AFNE01.JPG,,,,,,,,,,,,,,,,,4,4,44,0,,,,,,,AMNE09.jpg,AMSA15.jpg,AMSA17.jpg,AMNE11.jpg,AMSA15.jpg,MS,2,num_6,16,num_6,0.683436413528,,,2018_Feb_09_1224,60.0056390921,MAFE4ImagesEEG,001,102587,
AFNE01.JPG,AFNE01.JPG,AFNE01.JPG,AFNE01.JPG,AFNE01.JPG,AFNE01.JPG,,,,,,,,,,,,,,,,,4,5,45,8,,,,,,,AMSA20.jpg,AMNE19.jpg,AMSA13.jpg,AMNE12.jpg,AMSA20.jpg,MS,2,num_8,32,num_6,1.41686197021,,,2018_Feb_09_1224,60.0056390921,MAFE4ImagesEEG,001,102587,
AFNE01.JPG,AFNE01.JPG,AFNE01.JPG,AFNE01.JPG,AFNE01.JPG,AFNE01.JPG,,,,,,,,,,,,,,,,,4,6,46,6,,,,,,,AMSA11.jpg,AMSA02.jpg,AMNE02.jpg,AMNE18.jpg,AMNE18.jpg,MN,1,num_4,32,num_8,1.48349074693,,,2018_Feb_09_1224,60.0056390921,MAFE4ImagesEEG,001,102587,
AFNE01.JPG,AFNE01.JPG,AFNE01.JPG,AFNE01.JPG,AFNE01.JPG,AFNE01.JPG,,,,,,,,,,,,,,,,,4,7,47,2,,,,,,,AMSA13.jpg,AMSA10.jpg,AMNE16.jpg,AMNE20.jpg,AMSA13.jpg,MS,2,num_8,32,num_4,0.833542081062,,,2018_Feb_09_1224,60.0056390921,MAFE4ImagesEEG,001,102587,
AFNE01.JPG,AFNE01.JPG,AFNE01.JPG,AFNE01.JPG,AFNE01.JPG,AFNE01.JPG,,,,,,,,,,,,,,,,,4,8,48,3,,,,,,,AMSA16.jpg,AMNE12.jpg,AMSA09.jpg,AMNE04.jpg,AMSA16.jpg,MS,2,num_8,16,num_8,0.46680877544,,,2018_Feb_09_1224,60.0056390921,MAFE4ImagesEEG,001,102587,
AFNE01.JPG,AFNE01.JPG,AFNE01.JPG,AFNE01.JPG,AFNE01.JPG,AFNE01.JPG,,,,,,,,,,,,,,,,,4,9,49,1,,,,,,,AMSA14.jpg,AMSA11.jpg,AMNE13.jpg,AMNE03.jpg,AMNE13.jpg,MN,1,num_2,16,num_2,1.3167881039,,,2018_Feb_09_1224,60.0056390921,MAFE4ImagesEEG,001,102587,
AFNE01.JPG,AFNE01.JPG,AFNE01.JPG,AFNE01.JPG,AFNE01.JPG,AFNE01.JPG,,,,,,,,,,,,,,,,,5,0,50,2,,,,,,,AMSA20.jpg,AMNE05.jpg,AMNE18.jpg,AMSA10.jpg,AMSA20.jpg,MS,2,num_8,16,num_8,0.900150330504,,,2018_Feb_09_1224,60.0056390921,MAFE4ImagesEEG,001,102587,
AFNE01.JPG,AFNE01.JPG,AFNE01.JPG,AFNE01.JPG,AFNE01.JPG,AFNE01.JPG,,,,,,,,,,,,,,,,,5,1,51,9,,,,,,,AMNE11.jpg,AMSA17.jpg,AMNE07.jpg,AMSA11.jpg,AMNE11.jpg,MN,1,num_8,16,num_8,0.966723940102,,,2018_Feb_09_1224,60.0056390921,MAFE4ImagesEEG,001,102587,
AFNE01.JPG,AFNE01.JPG,AFNE01.JPG,AFNE01.JPG,AFNE01.JPG,AFNE01.JPG,,,,,,,,,,,,,,,,,5,2,52,4,,,,,,,AMNE16.jpg,AMNE12.jpg,AMSA09.jpg,AMSA16.jpg,AMSA16.jpg,MS,2,num_4,32,num_2,0.8501191705,,,2018_Feb_09_1224,60.0056390921,MAFE4ImagesEEG,001,102587,
AFNE01.JPG,AFNE01.JPG,AFNE01.JPG,AFNE01.JPG,AFNE01.JPG,AFNE01.JPG,,,,,,,,,,,,,,,,,5,3,53,1,,,,,,,AMNE13.jpg,AMNE06.jpg,AMSA01.jpg,AMSA13.jpg,AMSA01.jpg,MS,2,num_2,16,num_2,0.650133732241,,,2018_Feb_09_1224,60.0056390921,MAFE4ImagesEEG,001,102587,
AFNE01.JPG,AFNE01.JPG,AFNE01.JPG,AFNE01.JPG,AFNE01.JPG,AFNE01.JPG,,,,,,,,,,,,,,,,,5,4,54,5,,,,,,,AMSA14.jpg,AMNE02.jpg,AMSA08.jpg,AMNE16.jpg,AMNE16.jpg,MN,1,num_4,32,num_8,0.766875136411,,,2018_Feb_09_1224,60.0056390921,MAFE4ImagesEEG,001,102587,
AFNE01.JPG,AFNE01.JPG,AFNE01.JPG,AFNE01.JPG,AFNE01.JPG,AFNE01.JPG,,,,,,,,,,,,,,,,,5,5,55,7,,,,,,,AMSA14.jpg,AMNE13.jpg,AMNE04.jpg,AMSA18.jpg,AMSA14.jpg,MS,2,num_8,16,num_8,0.783485582797,,,2018_Feb_09_1224,60.0056390921,MAFE4ImagesEEG,001,102587,
AFNE01.JPG,AFNE01.JPG,AFNE01.JPG,AFNE01.JPG,AFNE01.JPG,AFNE01.JPG,,,,,,,,,,,,,,,,,5,6,56,8,,,,,,,AMNE02.jpg,AMSA01.jpg,AMNE08.jpg,AMSA07.jpg,AMNE08.jpg,MN,1,num_2,16,num_2,1.15010181861,,,2018_Feb_09_1224,60.0056390921,MAFE4ImagesEEG,001,102587,
AFNE01.JPG,AFNE01.JPG,AFNE01.JPG,AFNE01.JPG,AFNE01.JPG,AFNE01.JPG,,,,,,,,,,,,,,,,,5,7,57,6,,,,,,,AMSA15.jpg,AMNE13.jpg,AMSA16.jpg,AMNE09.jpg,AMSA15.jpg,MS,2,num_8,32,num_4,0.866768105654,,,2018_Feb_09_1224,60.0056390921,MAFE4ImagesEEG,001,102587,
AFNE01.JPG,AFNE01.JPG,AFNE01.JPG,AFNE01.JPG,AFNE01.JPG,AFNE01.JPG,,,,,,,,,,,,,,,,,5,8,58,3,,,,,,,AMSA20.jpg,AMNE17.jpg,AMSA08.jpg,AMNE15.jpg,AMNE15.jpg,MN,1,num_4,32,num_8,0.650164523395,,,2018_Feb_09_1224,60.0056390921,MAFE4ImagesEEG,001,102587,
AFNE01.JPG,AFNE01.JPG,AFNE01.JPG,AFNE01.JPG,AFNE01.JPG,AFNE01.JPG,,,,,,,,,,,,,,,,,5,9,59,0,,,,,,,AMNE04.jpg,AMSA11.jpg,AMSA17.jpg,AMNE18.jpg,AMSA17.jpg,MS,2,num_2,16,num_2,1.16664940026,,,2018_Feb_09_1224,60.0056390921,MAFE4ImagesEEG,001,102587,
,,,,,,,,,,,,,,,,,,,,,,,,,,,,,,,,,,,,,,,,,,,space,5.33328019758,2018_Feb_09_1224,60.0056390921,MAFE4ImagesEEG,001,102587,
AFNE01.JPG,AFNE01.JPG,AFNE01.JPG,AFNE01.JPG,AFNE01.JPG,AFNE01.JPG,,,,,,,,,,,,,,,,,,,,,0,0,0,6,,,AFSA05.jpg,AFNE01.jpg,AFNE07.jpg,AFSA02.jpg,AFSA05.jpg,FS,4,num_8,16,num_8,1.03348421981,,,2018_Feb_09_1224,60.0056390921,MAFE4ImagesEEG,001,102587,
AFNE01.JPG,AFNE01.JPG,AFNE01.JPG,AFNE01.JPG,AFNE01.JPG,AFNE01.JPG,,,,,,,,,,,,,,,,,,,,,0,1,1,3,,,AFSA06.jpg,AFSA13.jpg,AFNE03.jpg,AFNE08.jpg,AFNE08.jpg,FN,3,num_4,32,num_2,0.816864600405,,,2018_Feb_09_1224,60.0056390921,MAFE4ImagesEEG,001,102587,
AFNE01.JPG,AFNE01.JPG,AFNE01.JPG,AFNE01.JPG,AFNE01.JPG,AFNE01.JPG,,,,,,,,,,,,,,,,,,,,,0,2,2,8,,,AFNE09.jpg,AFSA12.jpg,AFSA14.jpg,AFNE04.jpg,AFNE09.jpg,FN,3,num_8,16,num_8,0.83329511201,,,2018_Feb_09_1224,60.0056390921,MAFE4ImagesEEG,001,102587,
AFNE01.JPG,AFNE01.JPG,AFNE01.JPG,AFNE01.JPG,AFNE01.JPG,AFNE01.JPG,,,,,,,,,,,,,,,,,,,,,0,3,3,2,,,AFSA20.jpg,AFSA05.jpg,AFNE16.jpg,AFNE09.jpg,AFSA05.jpg,FS,4,num_6,32,num_8,0.78346922528,,,2018_Feb_09_1224,60.0056390921,MAFE4ImagesEEG,001,102587,
AFNE01.JPG,AFNE01.JPG,AFNE01.JPG,AFNE01.JPG,AFNE01.JPG,AFNE01.JPG,,,,,,,,,,,,,,,,,,,,,0,4,4,0,,,AFNE01.jpg,AFSA14.jpg,AFNE12.jpg,AFSA09.jpg,AFSA14.jpg,FS,4,num_6,16,num_6,0.683476826642,,,2018_Feb_09_1224,60.0056390921,MAFE4ImagesEEG,001,102587,
AFNE01.JPG,AFNE01.JPG,AFNE01.JPG,AFNE01.JPG,AFNE01.JPG,AFNE01.JPG,,,,,,,,,,,,,,,,,,,,,0,5,5,1,,,AFNE03.jpg,AFNE04.jpg,AFSA18.jpg,AFSA01.jpg,AFSA01.jpg,FS,4,num_4,32,num_2,1.03345407033,,,2018_Feb_09_1224,60.0056390921,MAFE4ImagesEEG,001,102587,
AFNE01.JPG,AFNE01.JPG,AFNE01.JPG,AFNE01.JPG,AFNE01.JPG,AFNE01.JPG,,,,,,,,,,,,,,,,,,,,,0,6,6,5,,,AFSA02.jpg,AFSA10.jpg,AFNE18.jpg,AFNE15.jpg,AFSA02.jpg,FS,4,num_8,32,num_2,0.75017167558,,,2018_Feb_09_1224,60.0056390921,MAFE4ImagesEEG,001,102587,
AFNE01.JPG,AFNE01.JPG,AFNE01.JPG,AFNE01.JPG,AFNE01.JPG,AFNE01.JPG,,,,,,,,,,,,,,,,,,,,,0,7,7,9,,,AFNE15.jpg,AFNE05.jpg,AFSA12.jpg,AFSA09.jpg,AFNE05.jpg,FN,3,num_6,16,num_6,1.16676422488,,,2018_Feb_09_1224,60.0056390921,MAFE4ImagesEEG,001,102587,
AFNE01.JPG,AFNE01.JPG,AFNE01.JPG,AFNE01.JPG,AFNE01.JPG,AFNE01.JPG,,,,,,,,,,,,,,,,,,,,,0,8,8,7,,,AFNE01.jpg,AFSA05.jpg,AFNE19.jpg,AFSA18.jpg,AFNE01.jpg,FN,3,num_8,16,num_8,0.83345965133,,,2018_Feb_09_1224,60.0056390921,MAFE4ImagesEEG,001,102587,
AFNE01.JPG,AFNE01.JPG,AFNE01.JPG,AFNE01.JPG,AFNE01.JPG,AFNE01.JPG,,,,,,,,,,,,,,,,,,,,,0,9,9,4,,,AFNE07.jpg,AFSA14.jpg,AFSA07.jpg,AFNE12.jpg,AFNE12.jpg,FN,3,num_4,32,num_8,1.61671750923,,,2018_Feb_09_1224,60.0056390921,MAFE4ImagesEEG,001,102587,
AFNE01.JPG,AFNE01.JPG,AFNE01.JPG,AFNE01.JPG,AFNE01.JPG,AFNE01.JPG,,,,,,,,,,,,,,,,,,,,,1,0,10,1,,,AFSA06.jpg,AFNE09.jpg,AFSA17.jpg,AFNE04.jpg,AFSA06.jpg,FS,4,num_8,32,num_2,1.25007850095,,,2018_Feb_09_1224,60.0056390921,MAFE4ImagesEEG,001,102587,
AFNE01.JPG,AFNE01.JPG,AFNE01.JPG,AFNE01.JPG,AFNE01.JPG,AFNE01.JPG,,,,,,,,,,,,,,,,,,,,,1,1,11,2,,,AFNE04.jpg,AFSA09.jpg,AFSA06.jpg,AFNE11.jpg,AFSA06.jpg,FS,4,num_2,16,num_2,0.700129610719,,,2018_Feb_09_1224,60.0056390921,MAFE4ImagesEEG,001,102587,
AFNE01.JPG,AFNE01.JPG,AFNE01.JPG,AFNE01.JPG,AFNE01.JPG,AFNE01.JPG,,,,,,,,,,,,,,,,,,,,,1,2,12,6,,,AFNE01.jpg,AFNE19.jpg,AFSA10.jpg,AFSA09.jpg,AFSA09.jpg,FS,4,num_4,32,num_6,1.21672578435,,,2018_Feb_09_1224,60.0056390921,MAFE4ImagesEEG,001,102587,
AFNE01.JPG,AFNE01.JPG,AFNE01.JPG,AFNE01.JPG,AFNE01.JPG,AFNE01.JPG,,,,,,,,,,,,,,,,,,,,,1,3,13,9,,,AFSA05.jpg,AFNE08.jpg,AFSA01.jpg,AFNE17.jpg,AFSA01.jpg,FS,4,num_2,32,num_8,0.883490169654,,,2018_Feb_09_1224,60.0056390921,MAFE4ImagesEEG,001,102587,
AFNE01.JPG,AFNE01.JPG,AFNE01.JPG,AFNE01.JPG,AFNE01.JPG,AFNE01.JPG,,,,,,,,,,,,,,,,,,,,,1,4,14,0,,,AFNE06.jpg,AFNE10.jpg,AFSA14.jpg,AFSA02.jpg,AFNE10.jpg,FN,3,num_6,32,num_8,0.800160818733,,,2018_Feb_09_1224,60.0056390921,MAFE4ImagesEEG,001,102587,
AFNE01.JPG,AFNE01.JPG,AFNE01.JPG,AFNE01.JPG,AFNE01.JPG,AFNE01.JPG,,,,,,,,,,,,,,,,,,,,,1,5,15,8,,,AFNE17.jpg,AFSA02.jpg,AFNE19.jpg,AFSA01.jpg,AFSA02.jpg,FS,4,num_6,16,num_6,1.06677759974,,,2018_Feb_09_1224,60.0056390921,MAFE4ImagesEEG,001,102587,
AFNE01.JPG,AFNE01.JPG,AFNE01.JPG,AFNE01.JPG,AFNE01.JPG,AFNE01.JPG,,,,,,,,,,,,,,,,,,,,,1,6,16,7,,,AFSA02.jpg,AFSA20.jpg,AFNE07.jpg,AFNE11.jpg,AFSA20.jpg,FS,4,num_6,16,num_6,1.10021819896,,,2018_Feb_09_1224,60.0056390921,MAFE4ImagesEEG,001,102587,
AFNE01.JPG,AFNE01.JPG,AFNE01.JPG,AFNE01.JPG,AFNE01.JPG,AFNE01.JPG,,,,,,,,,,,,,,,,,,,,,1,7,17,3,,,AFSA20.jpg,AFNE19.jpg,AFNE13.jpg,AFSA02.jpg,AFSA02.jpg,FS,4,num_4,32,num_8,1.53343691071,,,2018_Feb_09_1224,60.0056390921,MAFE4ImagesEEG,001,102587,
AFNE01.JPG,AFNE01.JPG,AFNE01.JPG,AFNE01.JPG,AFNE01.JPG,AFNE01.JPG,,,,,,,,,,,,,,,,,,,,,1,8,18,5,,,AFNE20.jpg,AFSA08.jpg,AFSA19.jpg,AFNE03.jpg,AFSA08.jpg,FS,4,num_6,32,num_4,1.41671827901,,,2018_Feb_09_1224,60.0056390921,MAFE4ImagesEEG,001,102587,
AFNE01.JPG,AFNE01.JPG,AFNE01.JPG,AFNE01.JPG,AFNE01.JPG,AFNE01.JPG,,,,,,,,,,,,,,,,,,,,,1,9,19,4,,,AFSA13.jpg,AFNE12.jpg,AFNE04.jpg,AFSA19.jpg,AFNE04.jpg,FN,3,num_2,16,num_2,1.083171868,,,2018_Feb_09_1224,60.0056390921,MAFE4ImagesEEG,001,102587,
AFNE01.JPG,AFNE01.JPG,AFNE01.JPG,AFNE01.JPG,AFNE01.JPG,AFNE01.JPG,,,,,,,,,,,,,,,,,,,,,2,0,20,4,,,AFNE18.jpg,AFNE14.jpg,AFSA06.jpg,AFSA04.jpg,AFSA04.jpg,FS,4,num_4,32,num_6,0.716810299084,,,2018_Feb_09_1224,60.0056390921,MAFE4ImagesEEG,001,102587,
AFNE01.JPG,AFNE01.JPG,AFNE01.JPG,AFNE01.JPG,AFNE01.JPG,AFNE01.JPG,,,,,,,,,,,,,,,,,,,,,2,1,21,7,,,AFNE14.jpg,AFSA05.jpg,AFNE02.jpg,AFSA13.jpg,AFNE14.jpg,FN,3,num_8,32,num_2,0.800145102432,,,2018_Feb_09_1224,60.0056390921,MAFE4ImagesEEG,001,102587,
AFNE01.JPG,AFNE01.JPG,AFNE01.JPG,AFNE01.JPG,AFNE01.JPG,AFNE01.JPG,,,,,,,,,,,,,,,,,,,,,2,2,22,3,,,AFSA02.jpg,AFSA12.jpg,AFNE17.jpg,AFNE16.jpg,AFSA02.jpg,FS,4,num_8,32,num_2,0.633500513155,,,2018_Feb_09_1224,60.0056390921,MAFE4ImagesEEG,001,102587,
AFNE01.JPG,AFNE01.JPG,AFNE01.JPG,AFNE01.JPG,AFNE01.JPG,AFNE01.JPG,,,,,,,,,,,,,,,,,,,,,2,3,23,2,,,AFSA08.jpg,AFNE16.jpg,AFSA09.jpg,AFNE12.jpg,AFNE16.jpg,FN,3,num_6,16,num_6,0.916634405497,,,2018_Feb_09_1224,60.0056390921,MAFE4ImagesEEG,001,102587,
AFNE01.JPG,AFNE01.JPG,AFNE01.JPG,AFNE01.JPG,AFNE01.JPG,AFNE01.JPG,,,,,,,,,,,,,,,,,,,,,2,4,24,8,,,AFNE14.jpg,AFNE06.jpg,AFSA08.jpg,AFSA13.jpg,AFNE06.jpg,FN,3,num_6,16,num_6,0.91696316353,,,2018_Feb_09_1224,60.0056390921,MAFE4ImagesEEG,001,102587,
AFNE01.JPG,AFNE01.JPG,AFNE01.JPG,AFNE01.JPG,AFNE01.JPG,AFNE01.JPG,,,,,,,,,,,,,,,,,,,,,2,5,25,6,,,AFNE13.jpg,AFSA01.jpg,AFSA20.jpg,AFNE07.jpg,AFNE13.jpg,FN,3,num_8,16,num_8,0.700119026238,,,2018_Feb_09_1224,60.0056390921,MAFE4ImagesEEG,001,102587,
AFNE01.JPG,AFNE01.JPG,AFNE01.JPG,AFNE01.JPG,AFNE01.JPG,AFNE01.JPG,,,,,,,,,,,,,,,,,,,,,2,6,26,0,,,AFNE04.jpg,AFNE16.jpg,AFSA09.jpg,AFSA13.jpg,AFNE04.jpg,FN,3,num_8,32,num_2,0.95012728544,,,2018_Feb_09_1224,60.0056390921,MAFE4ImagesEEG,001,102587,
AFNE01.JPG,AFNE01.JPG,AFNE01.JPG,AFNE01.JPG,AFNE01.JPG,AFNE01.JPG,,,,,,,,,,,,,,,,,,,,,2,7,27,1,,,AFSA11.jpg,AFSA03.jpg,AFNE10.jpg,AFNE12.jpg,AFNE10.jpg,FN,3,num_2,32,num_6,0.716649608687,,,2018_Feb_09_1224,60.0056390921,MAFE4ImagesEEG,001,102587,
AFNE01.JPG,AFNE01.JPG,AFNE01.JPG,AFNE01.JPG,AFNE01.JPG,AFNE01.JPG,,,,,,,,,,,,,,,,,,,,,2,8,28,5,,,AFSA08.jpg,AFNE13.jpg,AFNE05.jpg,AFSA13.jpg,AFSA13.jpg,FS,4,num_4,32,num_6,0.800117518753,,,2018_Feb_09_1224,60.0056390921,MAFE4ImagesEEG,001,102587,
AFNE01.JPG,AFNE01.JPG,AFNE01.JPG,AFNE01.JPG,AFNE01.JPG,AFNE01.JPG,,,,,,,,,,,,,,,,,,,,,2,9,29,9,,,AFNE02.jpg,AFNE03.jpg,AFSA07.jpg,AFSA14.jpg,AFNE02.jpg,FN,3,num_8,16,num_8,1.00015780376,,,2018_Feb_09_1224,60.0056390921,MAFE4ImagesEEG,001,102587,
AFNE01.JPG,AFNE01.JPG,AFNE01.JPG,AFNE01.JPG,AFNE01.JPG,AFNE01.JPG,,,,,,,,,,,,,,,,,,,,,3,0,30,1,,,AFSA17.jpg,AFNE02.jpg,AFSA15.jpg,AFNE15.jpg,AFNE15.jpg,FN,3,num_4,16,num_4,1.05007189373,,,2018_Feb_09_1224,60.0056390921,MAFE4ImagesEEG,001,102587,
AFNE01.JPG,AFNE01.JPG,AFNE01.JPG,AFNE01.JPG,AFNE01.JPG,AFNE01.JPG,,,,,,,,,,,,,,,,,,,,,3,1,31,7,,,AFNE06.jpg,AFNE04.jpg,AFSA10.jpg,AFSA16.jpg,AFNE06.jpg,FN,3,num_8,32,num_2,1.06665251148,,,2018_Feb_09_1224,60.0056390921,MAFE4ImagesEEG,001,102587,
AFNE01.JPG,AFNE01.JPG,AFNE01.JPG,AFNE01.JPG,AFNE01.JPG,AFNE01.JPG,,,,,,,,,,,,,,,,,,,,,3,2,32,8,,,AFSA10.jpg,AFNE12.jpg,AFSA20.jpg,AFNE09.jpg,AFSA20.jpg,FS,4,num_2,32,num_4,0.816784094553,,,2018_Feb_09_1224,60.0056390921,MAFE4ImagesEEG,001,102587,
AFNE01.JPG,AFNE01.JPG,AFNE01.JPG,AFNE01.JPG,AFNE01.JPG,AFNE01.JPG,,,,,,,,,,,,,,,,,,,,,3,3,33,6,,,AFSA06.jpg,AFNE08.jpg,AFNE03.jpg,AFSA12.jpg,AFSA12.jpg,FS,4,num_4,16,num_4,1.25008972688,,,2018_Feb_09_1224,60.0056390921,MAFE4ImagesEEG,001,102587,
AFNE01.JPG,AFNE01.JPG,AFNE01.JPG,AFNE01.JPG,AFNE01.JPG,AFNE01.JPG,,,,,,,,,,,,,,,,,,,,,3,4,34,2,,,AFSA17.jpg,AFNE02.jpg,AFNE10.jpg,AFSA02.jpg,AFSA17.jpg,FS,4,num_8,32,num_6,4.03347010724,,,2018_Feb_09_1224,60.0056390921,MAFE4ImagesEEG,001,102587,
AFNE01.JPG,AFNE01.JPG,AFNE01.JPG,AFNE01.JPG,AFNE01.JPG,AFNE01.JPG,,,,,,,,,,,,,,,,,,,,,3,5,35,4,,,AFSA12.jpg,AFNE06.jpg,AFNE01.jpg,AFSA05.jpg,AFSA05.jpg,FS,4,num_4,16,num_4,0.933424466057,,,2018_Feb_09_1224,60.0056390921,MAFE4ImagesEEG,001,102587,
AFNE01.JPG,AFNE01.JPG,AFNE01.JPG,AFNE01.JPG,AFNE01.JPG,AFNE01.JPG,,,,,,,,,,,,,,,,,,,,,3,6,36,0,,,AFNE12.jpg,AFNE01.jpg,AFSA10.jpg,AFSA14.jpg,AFSA14.jpg,FS,4,num_4,32,num_2,1.85007394641,,,2018_Feb_09_1224,60.0056390921,MAFE4ImagesEEG,001,102587,
AFNE01.JPG,AFNE01.JPG,AFNE01.JPG,AFNE01.JPG,AFNE01.JPG,AFNE01.JPG,,,,,,,,,,,,,,,,,,,,,3,7,37,3,,,AFSA04.jpg,AFNE17.jpg,AFNE09.jpg,AFSA16.jpg,AFSA16.jpg,FS,4,num_4,32,num_8,1.08343840204,,,2018_Feb_09_1224,60.0056390921,MAFE4ImagesEEG,001,102587,
AFNE01.JPG,AFNE01.JPG,AFNE01.JPG,AFNE01.JPG,AFNE01.JPG,AFNE01.JPG,,,,,,,,,,,,,,,,,,,,,3,8,38,9,,,AFSA19.jpg,AFSA05.jpg,AFNE15.jpg,AFNE06.jpg,AFSA05.jpg,FS,4,num_6,32,num_8,0.800146385329,,,2018_Feb_09_1224,60.0056390921,MAFE4ImagesEEG,001,102587,
