IPosition2,IPosition3,IPosition1,IPosition6,IPosition4,IPosition5,TrialsM1.thisRepN,TrialsM1.thisTrialN,TrialsM1.thisN,TrialsM1.thisIndex,TrialsF1.thisRepN,TrialsF1.thisTrialN,TrialsF1.thisN,TrialsF1.thisIndex,TrialsM2.thisRepN,TrialsM2.thisTrialN,TrialsM2.thisN,TrialsM2.thisIndex,TrialsF2.thisRepN,TrialsF2.thisTrialN,TrialsF2.thisN,TrialsF2.thisIndex,TrialsM3.thisRepN,TrialsM3.thisTrialN,TrialsM3.thisN,TrialsM3.thisIndex,TrialsF3.thisRepN,TrialsF3.thisTrialN,TrialsF3.thisN,TrialsF3.thisIndex,InstrKey_resp.keys,InstrKey_resp.rt,Image0 _Position,Image1 _Position,Image2 _Position,Image3 _Position,Center_image,condition,code,correct_answer,accuracy,Key_Resp.keys,Key_Resp.rt,BreakKey_resp.keys,BreakKey_resp.rt,date,frameRate,expName,session,participant,
,,,,,,,,,,,,,,,,,,,,,,,,,,,,,,space,16.7825912921,,,,,,,,,,,,,,2018_Jan_22_1637,60.0038876131,MAFE4ImagesEEG,001,102533,
AFNE23.JPG,AFNE24.JPG,AFNE22.JPG,AFSA24.JPG,AFSA22.JPG,AFSA23.JPG,0,0,0,8,,,,,,,,,,,,,,,,,,,,,,,AMNE03.jpg,AMSA10.jpg,AMNE15.jpg,AMSA15.jpg,AMNE15.jpg,MN,1,num_2,32,num_4,2.03338800871,,,2018_Jan_22_1637,60.0038876131,MAFE4ImagesEEG,001,102533,
AMNE23.JPG,AMNE24.JPG,AMNE22.JPG,AMSA24.JPG,AMSA22.JPG,AMSA23.JPG,0,1,1,9,,,,,,,,,,,,,,,,,,,,,,,AMSA19.jpg,AMSA15.jpg,AMNE20.jpg,AMNE07.jpg,AMSA15.jpg,MS,2,num_6,32,num_8,1.81666953194,,,2018_Jan_22_1637,60.0038876131,MAFE4ImagesEEG,001,102533,
AMNE22.JPG,AMSA24.JPG,AMSA22.JPG,AMNE25.JPG,AMNE24.JPG,AMSA25.JPG,0,2,2,7,,,,,,,,,,,,,,,,,,,,,,,AMNE11.jpg,AMSA01.jpg,AMNE14.jpg,AMSA17.jpg,AMNE11.jpg,MN,1,num_8,16,num_8,1.33340667574,,,2018_Jan_22_1637,60.0038876131,MAFE4ImagesEEG,001,102533,
AFSA21.JPG,AFNE23.JPG,AFNE21.JPG,AFSA25.JPG,AFNE25.JPG,AFSA23.JPG,0,3,3,4,,,,,,,,,,,,,,,,,,,,,,,AMNE13.jpg,AMSA13.jpg,AMNE15.jpg,AMSA07.jpg,AMSA13.jpg,MS,2,num_6,16,num_6,2.06668107856,,,2018_Jan_22_1637,60.0038876131,MAFE4ImagesEEG,001,102533,
AFSA25.JPG,AFNE24.JPG,AFSA24.JPG,AFNE21.JPG,AFSA21.JPG,AFNE25.JPG,0,4,4,2,,,,,,,,,,,,,,,,,,,,,,,AMSA10.jpg,AMNE09.jpg,AMSA02.jpg,AMNE03.jpg,AMNE09.jpg,MN,1,num_6,16,num_6,1.3334185431,,,2018_Jan_22_1637,60.0038876131,MAFE4ImagesEEG,001,102533,
AMSA21.JPG,AMNE23.JPG,AMNE21.JPG,AMSA25.JPG,AMNE25.JPG,AMSA23.JPG,0,5,5,5,,,,,,,,,,,,,,,,,,,,,,,AMNE15.jpg,AMSA20.jpg,AMSA01.jpg,AMNE08.jpg,AMSA01.jpg,MS,2,num_2,32,num_6,1.16645380262,,,2018_Jan_22_1637,60.0038876131,MAFE4ImagesEEG,001,102533,
AFSA21.JPG,AFNE22.JPG,AFNE21.JPG,AFSA23.JPG,AFSA22.JPG,AFNE23.JPG,0,6,6,0,,,,,,,,,,,,,,,,,,,,,,,AMNE12.jpg,AMSA18.jpg,AMNE16.jpg,AMSA04.jpg,AMNE16.jpg,MN,1,num_2,16,num_2,1.51674291711,,,2018_Jan_22_1637,60.0038876131,MAFE4ImagesEEG,001,102533,
AFNE22.JPG,AFSA24.JPG,AFSA22.JPG,AFNE25.JPG,AFNE24.JPG,AFSA25.JPG,0,7,7,6,,,,,,,,,,,,,,,,,,,,,,,AMNE06.jpg,AMNE19.jpg,AMSA09.jpg,AMSA15.jpg,AMSA09.jpg,MS,2,num_2,32,num_4,1.43340712478,,,2018_Jan_22_1637,60.0038876131,MAFE4ImagesEEG,001,102533,
AMSA25.JPG,AMNE24.JPG,AMSA24.JPG,AMNE26.JPG,AMSA21.JPG,AMNE25.JPG,0,8,8,3,,,,,,,,,,,,,,,,,,,,,,,AMSA14.jpg,AMNE19.jpg,AMSA03.jpg,AMNE02.jpg,AMNE19.jpg,MN,1,num_6,16,num_6,0.966829452602,,,2018_Jan_22_1637,60.0038876131,MAFE4ImagesEEG,001,102533,
AMSA21.JPG,AMNE22.JPG,AMNE21.JPG,AMSA23.JPG,AMSA22.JPG,AMNE23.JPG,0,9,9,1,,,,,,,,,,,,,,,,,,,,,,,AMSA18.jpg,AMNE17.jpg,AMSA02.jpg,AMNE10.jpg,AMNE17.jpg,MN,1,num_6,32,num_4,1.45011476056,,,2018_Jan_22_1637,60.0038876131,MAFE4ImagesEEG,001,102533,
AMSA25.JPG,AMNE24.JPG,AMSA24.JPG,AMNE26.JPG,AMSA21.JPG,AMNE25.JPG,,,,,0,0,0,3,,,,,,,,,,,,,,,,,,,AFSA11.jpg,AFNE09.jpg,AFSA17.jpg,AFNE17.jpg,AFSA17.jpg,FS,4,num_2,32,num_4,1.38340866433,,,2018_Jan_22_1637,60.0038876131,MAFE4ImagesEEG,001,102533,
AFSA21.JPG,AFNE23.JPG,AFNE21.JPG,AFSA25.JPG,AFNE25.JPG,AFSA23.JPG,,,,,0,1,1,4,,,,,,,,,,,,,,,,,,,AFNE14.jpg,AFSA04.jpg,AFNE01.jpg,AFSA19.jpg,AFSA04.jpg,FS,4,num_6,16,num_6,1.23343477252,,,2018_Jan_22_1637,60.0038876131,MAFE4ImagesEEG,001,102533,
AFSA25.JPG,AFNE24.JPG,AFSA24.JPG,AFNE21.JPG,AFSA21.JPG,AFNE25.JPG,,,,,0,2,2,2,,,,,,,,,,,,,,,,,,,AFNE10.jpg,AFSA20.jpg,AFSA06.jpg,AFNE07.jpg,AFSA20.jpg,FS,4,num_6,16,num_6,1.16673573255,,,2018_Jan_22_1637,60.0038876131,MAFE4ImagesEEG,001,102533,
AFSA21.JPG,AFNE22.JPG,AFNE21.JPG,AFSA23.JPG,AFSA22.JPG,AFNE23.JPG,,,,,0,3,3,0,,,,,,,,,,,,,,,,,,,AFNE12.jpg,AFSA17.jpg,AFSA11.jpg,AFNE14.jpg,AFNE14.jpg,FN,3,num_4,32,num_8,1.90002200272,,,2018_Jan_22_1637,60.0038876131,MAFE4ImagesEEG,001,102533,
AMNE23.JPG,AMNE24.JPG,AMNE22.JPG,AMSA24.JPG,AMSA22.JPG,AMSA23.JPG,,,,,0,4,4,9,,,,,,,,,,,,,,,,,,,AFSA01.jpg,AFSA02.jpg,AFNE11.jpg,AFNE17.jpg,AFSA02.jpg,FS,4,num_6,32,num_4,1.73335907802,,,2018_Jan_22_1637,60.0038876131,MAFE4ImagesEEG,001,102533,
AMSA21.JPG,AMNE22.JPG,AMNE21.JPG,AMSA23.JPG,AMSA22.JPG,AMNE23.JPG,,,,,0,5,5,1,,,,,,,,,,,,,,,,,,,AFNE01.jpg,AFSA06.jpg,AFSA05.jpg,AFNE18.jpg,AFSA06.jpg,FS,4,num_6,16,num_6,1.8830827931,,,2018_Jan_22_1637,60.0038876131,MAFE4ImagesEEG,001,102533,
AFNE23.JPG,AFNE24.JPG,AFNE22.JPG,AFSA24.JPG,AFSA22.JPG,AFSA23.JPG,,,,,0,6,6,8,,,,,,,,,,,,,,,,,,,AFNE09.jpg,AFSA17.jpg,AFNE03.jpg,AFSA12.jpg,AFSA17.jpg,FS,4,num_6,32,num_8,2.01665663821,,,2018_Jan_22_1637,60.0038876131,MAFE4ImagesEEG,001,102533,
AMSA21.JPG,AMNE23.JPG,AMNE21.JPG,AMSA25.JPG,AMNE25.JPG,AMSA23.JPG,,,,,0,7,7,5,,,,,,,,,,,,,,,,,,,AFNE10.jpg,AFSA02.jpg,AFSA17.jpg,AFNE08.jpg,AFNE08.jpg,FN,3,num_4,16,num_4,1.31677024411,,,2018_Jan_22_1637,60.0038876131,MAFE4ImagesEEG,001,102533,
AFNE22.JPG,AFSA24.JPG,AFSA22.JPG,AFNE25.JPG,AFNE24.JPG,AFSA25.JPG,,,,,0,8,8,6,,,,,,,,,,,,,,,,,,,AFNE08.jpg,AFNE01.jpg,AFSA03.jpg,AFSA11.jpg,AFSA03.jpg,FS,4,num_2,16,num_2,1.05007992826,,,2018_Jan_22_1637,60.0038876131,MAFE4ImagesEEG,001,102533,
AMNE22.JPG,AMSA24.JPG,AMSA22.JPG,AMNE25.JPG,AMNE24.JPG,AMSA25.JPG,,,,,0,9,9,7,,,,,,,,,,,,,,,,,,,AFNE14.jpg,AFNE08.jpg,AFSA02.jpg,AFSA05.jpg,AFNE08.jpg,FN,3,num_6,16,num_6,0.916782239761,,,2018_Jan_22_1637,60.0038876131,MAFE4ImagesEEG,001,102533,
AMSA25.JPG,AMNE24.JPG,AMSA24.JPG,AMNE26.JPG,AMSA21.JPG,AMNE25.JPG,,,,,,,,,0,0,0,3,,,,,,,,,,,,,,,AMNE09.jpg,AMSA18.jpg,AMSA09.jpg,AMNE05.jpg,AMNE09.jpg,MN,1,num_8,16,num_8,0.800191224826,,,2018_Jan_22_1637,60.0038876131,MAFE4ImagesEEG,001,102533,
AFSA21.JPG,AFNE23.JPG,AFNE21.JPG,AFSA25.JPG,AFNE25.JPG,AFSA23.JPG,,,,,,,,,0,1,1,4,,,,,,,,,,,,,,,AMNE20.jpg,AMSA15.jpg,AMSA03.jpg,AMNE13.jpg,AMNE13.jpg,MN,1,num_4,16,num_4,1.03344959067,,,2018_Jan_22_1637,60.0038876131,MAFE4ImagesEEG,001,102533,
AFSA25.JPG,AFNE24.JPG,AFSA24.JPG,AFNE21.JPG,AFSA21.JPG,AFNE25.JPG,,,,,,,,,0,2,2,2,,,,,,,,,,,,,,,AMNE17.jpg,AMSA17.jpg,AMNE03.jpg,AMSA02.jpg,AMSA02.jpg,MS,2,num_4,32,num_8,1.20012855235,,,2018_Jan_22_1637,60.0038876131,MAFE4ImagesEEG,001,102533,
AMNE22.JPG,AMSA24.JPG,AMSA22.JPG,AMNE25.JPG,AMNE24.JPG,AMSA25.JPG,,,,,,,,,0,3,3,7,,,,,,,,,,,,,,,AMSA02.jpg,AMSA08.jpg,AMNE16.jpg,AMNE07.jpg,AMNE16.jpg,MN,1,num_2,32,num_6,1.8333656211,,,2018_Jan_22_1637,60.0038876131,MAFE4ImagesEEG,001,102533,
AMNE23.JPG,AMNE24.JPG,AMNE22.JPG,AMSA24.JPG,AMSA22.JPG,AMSA23.JPG,,,,,,,,,0,4,4,9,,,,,,,,,,,,,,,AMSA02.jpg,AMNE09.jpg,AMNE20.jpg,AMSA14.jpg,AMNE20.jpg,MN,1,num_2,16,num_2,1.26672944606,,,2018_Jan_22_1637,60.0038876131,MAFE4ImagesEEG,001,102533,
AFSA21.JPG,AFNE22.JPG,AFNE21.JPG,AFSA23.JPG,AFSA22.JPG,AFNE23.JPG,,,,,,,,,0,5,5,0,,,,,,,,,,,,,,,AMNE01.jpg,AMSA18.jpg,AMNE14.jpg,AMSA09.jpg,AMNE14.jpg,MN,1,num_2,16,num_2,0.850113990782,,,2018_Jan_22_1637,60.0038876131,MAFE4ImagesEEG,001,102533,
AMSA21.JPG,AMNE22.JPG,AMNE21.JPG,AMSA23.JPG,AMSA22.JPG,AMNE23.JPG,,,,,,,,,0,6,6,1,,,,,,,,,,,,,,,AMNE19.jpg,AMNE14.jpg,AMSA09.jpg,AMSA16.jpg,AMSA09.jpg,MS,2,num_2,32,num_4,1.08344452299,,,2018_Jan_22_1637,60.0038876131,MAFE4ImagesEEG,001,102533,
AMSA21.JPG,AMNE23.JPG,AMNE21.JPG,AMSA25.JPG,AMNE25.JPG,AMSA23.JPG,,,,,,,,,0,7,7,5,,,,,,,,,,,,,,,AMNE16.jpg,AMSA03.jpg,AMSA20.jpg,AMNE10.jpg,AMSA03.jpg,MS,2,num_6,32,num_2,0.783468514295,,,2018_Jan_22_1637,60.0038876131,MAFE4ImagesEEG,001,102533,
AFNE23.JPG,AFNE24.JPG,AFNE22.JPG,AFSA24.JPG,AFSA22.JPG,AFSA23.JPG,,,,,,,,,0,8,8,8,,,,,,,,,,,,,,,AMNE06.jpg,AMNE16.jpg,AMSA12.jpg,AMSA09.jpg,AMSA12.jpg,MS,2,num_2,32,num_6,2.16692593101,,,2018_Jan_22_1637,60.0038876131,MAFE4ImagesEEG,001,102533,
AFNE22.JPG,AFSA24.JPG,AFSA22.JPG,AFNE25.JPG,AFNE24.JPG,AFSA25.JPG,,,,,,,,,0,9,9,6,,,,,,,,,,,,,,,AMSA04.jpg,AMNE16.jpg,AMNE19.jpg,AMSA03.jpg,AMNE16.jpg,MN,1,num_6,32,num_2,1.11673181953,,,2018_Jan_22_1637,60.0038876131,MAFE4ImagesEEG,001,102533,
AMNE23.JPG,AMNE24.JPG,AMNE22.JPG,AMSA24.JPG,AMSA22.JPG,AMSA23.JPG,,,,,,,,,,,,,0,0,0,9,,,,,,,,,,,AFSA10.jpg,AFNE02.jpg,AFNE13.jpg,AFSA20.jpg,AFNE02.jpg,FN,3,num_6,32,num_2,2.4499832574,,,2018_Jan_22_1637,60.0038876131,MAFE4ImagesEEG,001,102533,
AMSA25.JPG,AMNE24.JPG,AMSA24.JPG,AMNE26.JPG,AMSA21.JPG,AMNE25.JPG,,,,,,,,,,,,,0,1,1,3,,,,,,,,,,,AFNE02.jpg,AFNE09.jpg,AFSA09.jpg,AFSA04.jpg,AFSA04.jpg,FS,4,num_4,16,num_4,1.00009397664,,,2018_Jan_22_1637,60.0038876131,MAFE4ImagesEEG,001,102533,
AFSA25.JPG,AFNE24.JPG,AFSA24.JPG,AFNE21.JPG,AFSA21.JPG,AFNE25.JPG,,,,,,,,,,,,,0,2,2,2,,,,,,,,,,,AFNE14.jpg,AFSA14.jpg,AFNE07.jpg,AFSA10.jpg,AFNE07.jpg,FN,3,num_2,32,num_6,0.916778711631,,,2018_Jan_22_1637,60.0038876131,MAFE4ImagesEEG,001,102533,
AMSA21.JPG,AMNE23.JPG,AMNE21.JPG,AMSA25.JPG,AMNE25.JPG,AMSA23.JPG,,,,,,,,,,,,,0,3,3,5,,,,,,,,,,,AFSA08.jpg,AFNE19.jpg,AFSA10.jpg,AFNE12.jpg,AFNE12.jpg,FN,3,num_4,32,num_8,1.06677248928,,,2018_Jan_22_1637,60.0038876131,MAFE4ImagesEEG,001,102533,
AMNE22.JPG,AMSA24.JPG,AMSA22.JPG,AMNE25.JPG,AMNE24.JPG,AMSA25.JPG,,,,,,,,,,,,,0,4,4,7,,,,,,,,,,,AFNE04.jpg,AFNE19.jpg,AFSA14.jpg,AFSA16.jpg,AFNE04.jpg,FN,3,num_8,32,num_6,1.16674086438,,,2018_Jan_22_1637,60.0038876131,MAFE4ImagesEEG,001,102533,
AFNE23.JPG,AFNE24.JPG,AFNE22.JPG,AFSA24.JPG,AFSA22.JPG,AFSA23.JPG,,,,,,,,,,,,,0,5,5,8,,,,,,,,,,,AFNE11.jpg,AFSA08.jpg,AFSA11.jpg,AFNE17.jpg,AFSA11.jpg,FS,4,num_2,32,num_8,1.00010359882,,,2018_Jan_22_1637,60.0038876131,MAFE4ImagesEEG,001,102533,
AFSA21.JPG,AFNE23.JPG,AFNE21.JPG,AFSA25.JPG,AFNE25.JPG,AFSA23.JPG,,,,,,,,,,,,,0,6,6,4,,,,,,,,,,,AFNE19.jpg,AFNE13.jpg,AFSA05.jpg,AFSA12.jpg,AFNE19.jpg,FN,3,num_8,16,num_8,1.49975623806,,,2018_Jan_22_1637,60.0038876131,MAFE4ImagesEEG,001,102533,
AMSA21.JPG,AMNE22.JPG,AMNE21.JPG,AMSA23.JPG,AMSA22.JPG,AMNE23.JPG,,,,,,,,,,,,,0,7,7,1,,,,,,,,,,,AFNE01.jpg,AFNE14.jpg,AFSA17.jpg,AFSA01.jpg,AFSA17.jpg,FS,4,num_2,16,num_2,1.30010622889,,,2018_Jan_22_1637,60.0038876131,MAFE4ImagesEEG,001,102533,
AFNE22.JPG,AFSA24.JPG,AFSA22.JPG,AFNE25.JPG,AFNE24.JPG,AFSA25.JPG,,,,,,,,,,,,,0,8,8,6,,,,,,,,,,,AFSA02.jpg,AFNE07.jpg,AFSA09.jpg,AFNE15.jpg,AFSA09.jpg,FS,4,num_2,16,num_2,0.800107832583,,,2018_Jan_22_1637,60.0038876131,MAFE4ImagesEEG,001,102533,
AFSA21.JPG,AFNE22.JPG,AFNE21.JPG,AFSA23.JPG,AFSA22.JPG,AFNE23.JPG,,,,,,,,,,,,,0,9,9,0,,,,,,,,,,,AFSA13.jpg,AFNE07.jpg,AFNE13.jpg,AFSA10.jpg,AFSA10.jpg,FS,4,num_4,16,num_4,0.933461329732,,,2018_Jan_22_1637,60.0038876131,MAFE4ImagesEEG,001,102533,
AMSA21.JPG,AMNE22.JPG,AMNE21.JPG,AMSA23.JPG,AMSA22.JPG,AMNE23.JPG,,,,,,,,,,,,,,,,,0,0,0,1,,,,,,,AMSA04.jpg,AMNE06.jpg,AMSA12.jpg,AMNE11.jpg,AMNE11.jpg,MN,1,num_4,32,num_8,0.900127846722,,,2018_Jan_22_1637,60.0038876131,MAFE4ImagesEEG,001,102533,
AMNE22.JPG,AMSA24.JPG,AMSA22.JPG,AMNE25.JPG,AMNE24.JPG,AMSA25.JPG,,,,,,,,,,,,,,,,,0,1,1,7,,,,,,,AMSA13.jpg,AMNE04.jpg,AMSA11.jpg,AMNE20.jpg,AMNE20.jpg,MN,1,num_4,32,num_8,2.18331763849,,,2018_Jan_22_1637,60.0038876131,MAFE4ImagesEEG,001,102533,
AFSA21.JPG,AFNE23.JPG,AFNE21.JPG,AFSA25.JPG,AFNE25.JPG,AFSA23.JPG,,,,,,,,,,,,,,,,,0,2,2,4,,,,,,,AMSA01.jpg,AMSA20.jpg,AMNE15.jpg,AMNE19.jpg,AMNE19.jpg,MN,1,num_4,32,num_6,1.48338120903,,,2018_Jan_22_1637,60.0038876131,MAFE4ImagesEEG,001,102533,
AFSA25.JPG,AFNE24.JPG,AFSA24.JPG,AFNE21.JPG,AFSA21.JPG,AFNE25.JPG,,,,,,,,,,,,,,,,,0,3,3,2,,,,,,,AMNE18.jpg,AMSA02.jpg,AMNE20.jpg,AMSA03.jpg,AMNE18.jpg,MN,1,num_8,16,num_8,0.933440802411,,,2018_Jan_22_1637,60.0038876131,MAFE4ImagesEEG,001,102533,
AMSA21.JPG,AMNE23.JPG,AMNE21.JPG,AMSA25.JPG,AMNE25.JPG,AMSA23.JPG,,,,,,,,,,,,,,,,,0,4,4,5,,,,,,,AMNE16.jpg,AMSA10.jpg,AMSA03.jpg,AMNE06.jpg,AMSA10.jpg,MS,2,num_6,16,num_6,0.966758889932,,,2018_Jan_22_1637,60.0038876131,MAFE4ImagesEEG,001,102533,
AFNE23.JPG,AFNE24.JPG,AFNE22.JPG,AFSA24.JPG,AFSA22.JPG,AFSA23.JPG,,,,,,,,,,,,,,,,,0,5,5,8,,,,,,,AMSA11.jpg,AMNE11.jpg,AMNE13.jpg,AMSA05.jpg,AMNE11.jpg,MN,1,num_6,32,num_2,1.1167658179,,,2018_Jan_22_1637,60.0038876131,MAFE4ImagesEEG,001,102533,
AFNE22.JPG,AFSA24.JPG,AFSA22.JPG,AFNE25.JPG,AFNE24.JPG,AFSA25.JPG,,,,,,,,,,,,,,,,,0,6,6,6,,,,,,,AMSA08.jpg,AMNE20.jpg,AMNE03.jpg,AMSA10.jpg,AMNE03.jpg,MN,1,num_2,16,num_2,1.26671148465,,,2018_Jan_22_1637,60.0038876131,MAFE4ImagesEEG,001,102533,
AMNE23.JPG,AMNE24.JPG,AMNE22.JPG,AMSA24.JPG,AMSA22.JPG,AMSA23.JPG,,,,,,,,,,,,,,,,,0,7,7,9,,,,,,,AMNE03.jpg,AMNE17.jpg,AMSA14.jpg,AMSA07.jpg,AMNE03.jpg,MN,1,num_8,32,num_6,1.01675959556,,,2018_Jan_22_1637,60.0038876131,MAFE4ImagesEEG,001,102533,
AMSA25.JPG,AMNE24.JPG,AMSA24.JPG,AMNE26.JPG,AMSA21.JPG,AMNE25.JPG,,,,,,,,,,,,,,,,,0,8,8,3,,,,,,,AMSA08.jpg,AMNE06.jpg,AMNE03.jpg,AMSA03.jpg,AMSA03.jpg,MS,2,num_4,16,num_4,0.766769217742,,,2018_Jan_22_1637,60.0038876131,MAFE4ImagesEEG,001,102533,
AFSA21.JPG,AFNE22.JPG,AFNE21.JPG,AFSA23.JPG,AFSA22.JPG,AFNE23.JPG,,,,,,,,,,,,,,,,,0,9,9,0,,,,,,,AMSA07.jpg,AMSA14.jpg,AMNE10.jpg,AMNE15.jpg,AMSA14.jpg,MS,2,num_6,16,num_6,1.20007146073,,,2018_Jan_22_1637,60.0038876131,MAFE4ImagesEEG,001,102533,
AMNE22.JPG,AMSA24.JPG,AMSA22.JPG,AMNE25.JPG,AMNE24.JPG,AMSA25.JPG,,,,,,,,,,,,,,,,,,,,,0,0,0,7,,,AFNE08.jpg,AFSA08.jpg,AFSA03.jpg,AFNE05.jpg,AFSA08.jpg,FS,4,num_6,16,num_6,1.95009006362,,,2018_Jan_22_1637,60.0038876131,MAFE4ImagesEEG,001,102533,
AFNE22.JPG,AFSA24.JPG,AFSA22.JPG,AFNE25.JPG,AFNE24.JPG,AFSA25.JPG,,,,,,,,,,,,,,,,,,,,,0,1,1,6,,,AFNE03.jpg,AFSA10.jpg,AFSA17.jpg,AFNE01.jpg,AFNE03.jpg,FN,3,num_8,32,num_4,0.966786152781,,,2018_Jan_22_1637,60.0038876131,MAFE4ImagesEEG,001,102533,
AMSA25.JPG,AMNE24.JPG,AMSA24.JPG,AMNE26.JPG,AMSA21.JPG,AMNE25.JPG,,,,,,,,,,,,,,,,,,,,,0,2,2,3,,,AFSA11.jpg,AFNE13.jpg,AFNE14.jpg,AFSA19.jpg,AFSA11.jpg,FS,4,num_8,32,num_4,0.76679231098,,,2018_Jan_22_1637,60.0038876131,MAFE4ImagesEEG,001,102533,
AMNE23.JPG,AMNE24.JPG,AMNE22.JPG,AMSA24.JPG,AMSA22.JPG,AMSA23.JPG,,,,,,,,,,,,,,,,,,,,,0,3,3,9,,,AFSA06.jpg,AFSA02.jpg,AFNE06.jpg,AFNE03.jpg,AFSA02.jpg,FS,4,num_6,16,num_6,1.05007062681,,,2018_Jan_22_1637,60.0038876131,MAFE4ImagesEEG,001,102533,
AFSA21.JPG,AFNE23.JPG,AFNE21.JPG,AFSA25.JPG,AFNE25.JPG,AFSA23.JPG,,,,,,,,,,,,,,,,,,,,,0,4,4,4,,,AFNE08.jpg,AFSA06.jpg,AFNE15.jpg,AFSA04.jpg,AFNE15.jpg,FN,3,num_2,16,num_2,1.6000408622,,,2018_Jan_22_1637,60.0038876131,MAFE4ImagesEEG,001,102533,
AFSA25.JPG,AFNE24.JPG,AFSA24.JPG,AFNE21.JPG,AFSA21.JPG,AFNE25.JPG,,,,,,,,,,,,,,,,,,,,,0,5,5,2,,,AFNE03.jpg,AFSA13.jpg,AFSA01.jpg,AFNE15.jpg,AFSA01.jpg,FS,4,num_2,32,num_6,1.05007896604,,,2018_Jan_22_1637,60.0038876131,MAFE4ImagesEEG,001,102533,
AMSA21.JPG,AMNE22.JPG,AMNE21.JPG,AMSA23.JPG,AMSA22.JPG,AMNE23.JPG,,,,,,,,,,,,,,,,,,,,,0,6,6,1,,,AFSA05.jpg,AFNE02.jpg,AFSA03.jpg,AFNE20.jpg,AFNE20.jpg,FN,3,num_4,32,num_6,1.3167734515,,,2018_Jan_22_1637,60.0038876131,MAFE4ImagesEEG,001,102533,
AFSA21.JPG,AFNE22.JPG,AFNE21.JPG,AFSA23.JPG,AFSA22.JPG,AFNE23.JPG,,,,,,,,,,,,,,,,,,,,,0,7,7,0,,,AFSA19.jpg,AFSA02.jpg,AFNE11.jpg,AFNE05.jpg,AFNE11.jpg,FN,3,num_2,32,num_4,0.966748305535,,,2018_Jan_22_1637,60.0038876131,MAFE4ImagesEEG,001,102533,
AFNE23.JPG,AFNE24.JPG,AFNE22.JPG,AFSA24.JPG,AFSA22.JPG,AFSA23.JPG,,,,,,,,,,,,,,,,,,,,,0,8,8,8,,,AFNE02.jpg,AFSA17.jpg,AFSA01.jpg,AFNE15.jpg,AFSA01.jpg,FS,4,num_2,16,num_2,1.21678005873,,,2018_Jan_22_1637,60.0038876131,MAFE4ImagesEEG,001,102533,
AMSA21.JPG,AMNE23.JPG,AMNE21.JPG,AMSA25.JPG,AMNE25.JPG,AMSA23.JPG,,,,,,,,,,,,,,,,,,,,,0,9,9,5,,,AFSA17.jpg,AFNE15.jpg,AFSA01.jpg,AFNE17.jpg,AFNE17.jpg,FN,3,num_4,16,num_4,0.750221310183,,,2018_Jan_22_1637,60.0038876131,MAFE4ImagesEEG,001,102533,
,,,,,,,,,,,,,,,,,,,,,,,,,,,,,,,,,,,,,,,,,,,space,12.3827819395,2018_Jan_22_1637,60.0038876131,MAFE4ImagesEEG,001,102533,
AFNE01.JPG,AFNE01.JPG,AFNE01.JPG,AFNE01.JPG,AFNE01.JPG,AFNE01.JPG,0,0,0,3,,,,,,,,,,,,,,,,,,,,,,,AMNE19.jpg,AMSA20.jpg,AMSA14.jpg,AMNE20.jpg,AMNE20.jpg,MN,1,num_4,32,num_6,0.716782303909,,,2018_Jan_22_1637,60.0038876131,MAFE4ImagesEEG,001,102533,
AFNE01.JPG,AFNE01.JPG,AFNE01.JPG,AFNE01.JPG,AFNE01.JPG,AFNE01.JPG,0,1,1,1,,,,,,,,,,,,,,,,,,,,,,,AMSA05.jpg,AMNE15.jpg,AMSA19.jpg,AMNE03.jpg,AMNE03.jpg,MN,1,num_4,16,num_4,0.833450296301,,,2018_Jan_22_1637,60.0038876131,MAFE4ImagesEEG,001,102533,
AFNE01.JPG,AFNE01.JPG,AFNE01.JPG,AFNE01.JPG,AFNE01.JPG,AFNE01.JPG,0,2,2,9,,,,,,,,,,,,,,,,,,,,,,,AMSA07.jpg,AMNE13.jpg,AMSA16.jpg,AMNE20.jpg,AMSA16.jpg,MS,2,num_2,32,num_8,0.700229585258,,,2018_Jan_22_1637,60.0038876131,MAFE4ImagesEEG,001,102533,
AFNE01.JPG,AFNE01.JPG,AFNE01.JPG,AFNE01.JPG,AFNE01.JPG,AFNE01.JPG,0,3,3,4,,,,,,,,,,,,,,,,,,,,,,,AMSA02.jpg,AMSA10.jpg,AMNE12.jpg,AMNE08.jpg,AMNE12.jpg,MN,1,num_2,32,num_8,0.93347929114,,,2018_Jan_22_1637,60.0038876131,MAFE4ImagesEEG,001,102533,
AFNE01.JPG,AFNE01.JPG,AFNE01.JPG,AFNE01.JPG,AFNE01.JPG,AFNE01.JPG,0,4,4,5,,,,,,,,,,,,,,,,,,,,,,,AMNE17.jpg,AMNE03.jpg,AMSA07.jpg,AMSA08.jpg,AMSA08.jpg,MS,2,num_4,16,num_4,0.933420275091,,,2018_Jan_22_1637,60.0038876131,MAFE4ImagesEEG,001,102533,
AFNE01.JPG,AFNE01.JPG,AFNE01.JPG,AFNE01.JPG,AFNE01.JPG,AFNE01.JPG,0,5,5,8,,,,,,,,,,,,,,,,,,,,,,,AMNE08.jpg,AMNE04.jpg,AMSA13.jpg,AMSA03.jpg,AMSA03.jpg,MS,2,num_4,16,num_4,0.733452092441,,,2018_Jan_22_1637,60.0038876131,MAFE4ImagesEEG,001,102533,
AFNE01.JPG,AFNE01.JPG,AFNE01.JPG,AFNE01.JPG,AFNE01.JPG,AFNE01.JPG,0,6,6,0,,,,,,,,,,,,,,,,,,,,,,,AMNE14.jpg,AMSA14.jpg,AMNE08.jpg,AMSA07.jpg,AMNE08.jpg,MN,1,num_2,16,num_2,1.0834095624,,,2018_Jan_22_1637,60.0038876131,MAFE4ImagesEEG,001,102533,
AFNE01.JPG,AFNE01.JPG,AFNE01.JPG,AFNE01.JPG,AFNE01.JPG,AFNE01.JPG,0,7,7,7,,,,,,,,,,,,,,,,,,,,,,,AMSA18.jpg,AMNE19.jpg,AMNE02.jpg,AMSA07.jpg,AMNE02.jpg,MN,1,num_2,16,num_2,0.650117262325,,,2018_Jan_22_1637,60.0038876131,MAFE4ImagesEEG,001,102533,
AFNE01.JPG,AFNE01.JPG,AFNE01.JPG,AFNE01.JPG,AFNE01.JPG,AFNE01.JPG,0,8,8,2,,,,,,,,,,,,,,,,,,,,,,,AMSA12.jpg,AMNE17.jpg,AMSA06.jpg,AMNE06.jpg,AMNE06.jpg,MN,1,num_4,16,num_4,1.86669140637,,,2018_Jan_22_1637,60.0038876131,MAFE4ImagesEEG,001,102533,
AFNE01.JPG,AFNE01.JPG,AFNE01.JPG,AFNE01.JPG,AFNE01.JPG,AFNE01.JPG,0,9,9,6,,,,,,,,,,,,,,,,,,,,,,,AMSA07.jpg,AMNE09.jpg,AMNE11.jpg,AMSA09.jpg,AMNE09.jpg,MN,1,num_6,16,num_6,0.733505335178,,,2018_Jan_22_1637,60.0038876131,MAFE4ImagesEEG,001,102533,
AFNE01.JPG,AFNE01.JPG,AFNE01.JPG,AFNE01.JPG,AFNE01.JPG,AFNE01.JPG,1,0,10,3,,,,,,,,,,,,,,,,,,,,,,,AMSA18.jpg,AMSA05.jpg,AMNE06.jpg,AMNE15.jpg,AMSA18.jpg,MS,2,num_8,32,num_6,1.46679898236,,,2018_Jan_22_1637,60.0038876131,MAFE4ImagesEEG,001,102533,
AFNE01.JPG,AFNE01.JPG,AFNE01.JPG,AFNE01.JPG,AFNE01.JPG,AFNE01.JPG,1,1,11,9,,,,,,,,,,,,,,,,,,,,,,,AMNE04.jpg,AMNE19.jpg,AMSA09.jpg,AMSA01.jpg,AMSA01.jpg,MS,2,num_4,16,num_4,1.11677319491,,,2018_Jan_22_1637,60.0038876131,MAFE4ImagesEEG,001,102533,
AFNE01.JPG,AFNE01.JPG,AFNE01.JPG,AFNE01.JPG,AFNE01.JPG,AFNE01.JPG,1,2,12,4,,,,,,,,,,,,,,,,,,,,,,,AMNE19.jpg,AMNE14.jpg,AMSA04.jpg,AMSA19.jpg,AMNE19.jpg,MN,1,num_8,16,num_8,1.21674157001,,,2018_Jan_22_1637,60.0038876131,MAFE4ImagesEEG,001,102533,
AFNE01.JPG,AFNE01.JPG,AFNE01.JPG,AFNE01.JPG,AFNE01.JPG,AFNE01.JPG,1,3,13,2,,,,,,,,,,,,,,,,,,,,,,,AMNE17.jpg,AMSA15.jpg,AMSA06.jpg,AMNE05.jpg,AMSA06.jpg,MS,2,num_2,16,num_2,0.85008833163,,,2018_Jan_22_1637,60.0038876131,MAFE4ImagesEEG,001,102533,
AFNE01.JPG,AFNE01.JPG,AFNE01.JPG,AFNE01.JPG,AFNE01.JPG,AFNE01.JPG,1,4,14,0,,,,,,,,,,,,,,,,,,,,,,,AMNE20.jpg,AMSA05.jpg,AMNE14.jpg,AMSA16.jpg,AMSA16.jpg,MS,2,num_4,32,num_2,1.28340629086,,,2018_Jan_22_1637,60.0038876131,MAFE4ImagesEEG,001,102533,
AFNE01.JPG,AFNE01.JPG,AFNE01.JPG,AFNE01.JPG,AFNE01.JPG,AFNE01.JPG,1,5,15,1,,,,,,,,,,,,,,,,,,,,,,,AMSA19.jpg,AMSA08.jpg,AMNE07.jpg,AMNE11.jpg,AMSA08.jpg,MS,2,num_6,16,num_6,0.783453439544,,,2018_Jan_22_1637,60.0038876131,MAFE4ImagesEEG,001,102533,
AFNE01.JPG,AFNE01.JPG,AFNE01.JPG,AFNE01.JPG,AFNE01.JPG,AFNE01.JPG,1,6,16,7,,,,,,,,,,,,,,,,,,,,,,,AMNE01.jpg,AMSA10.jpg,AMNE16.jpg,AMSA19.jpg,AMNE01.jpg,MN,1,num_8,32,num_2,0.883451322668,,,2018_Jan_22_1637,60.0038876131,MAFE4ImagesEEG,001,102533,
AFNE01.JPG,AFNE01.JPG,AFNE01.JPG,AFNE01.JPG,AFNE01.JPG,AFNE01.JPG,1,7,17,6,,,,,,,,,,,,,,,,,,,,,,,AMSA03.jpg,AMNE11.jpg,AMNE03.jpg,AMSA15.jpg,AMNE11.jpg,MN,1,num_6,16,num_6,0.683485064448,,,2018_Jan_22_1637,60.0038876131,MAFE4ImagesEEG,001,102533,
AFNE01.JPG,AFNE01.JPG,AFNE01.JPG,AFNE01.JPG,AFNE01.JPG,AFNE01.JPG,1,8,18,5,,,,,,,,,,,,,,,,,,,,,,,AMSA15.jpg,AMNE14.jpg,AMSA04.jpg,AMNE03.jpg,AMNE14.jpg,MN,1,num_6,32,num_4,0.983444715435,,,2018_Jan_22_1637,60.0038876131,MAFE4ImagesEEG,001,102533,
AFNE01.JPG,AFNE01.JPG,AFNE01.JPG,AFNE01.JPG,AFNE01.JPG,AFNE01.JPG,1,9,19,8,,,,,,,,,,,,,,,,,,,,,,,AMNE14.jpg,AMSA07.jpg,AMNE10.jpg,AMSA09.jpg,AMSA09.jpg,MS,2,num_4,32,num_2,0.750099429213,,,2018_Jan_22_1637,60.0038876131,MAFE4ImagesEEG,001,102533,
AFNE01.JPG,AFNE01.JPG,AFNE01.JPG,AFNE01.JPG,AFNE01.JPG,AFNE01.JPG,2,0,20,1,,,,,,,,,,,,,,,,,,,,,,,AMSA05.jpg,AMNE09.jpg,AMNE19.jpg,AMSA10.jpg,AMSA05.jpg,MS,2,num_8,16,num_8,1.73365095086,,,2018_Jan_22_1637,60.0038876131,MAFE4ImagesEEG,001,102533,
AFNE01.JPG,AFNE01.JPG,AFNE01.JPG,AFNE01.JPG,AFNE01.JPG,AFNE01.JPG,2,1,21,2,,,,,,,,,,,,,,,,,,,,,,,AMSA09.jpg,AMNE16.jpg,AMNE11.jpg,AMSA15.jpg,AMSA09.jpg,MS,2,num_8,16,num_8,1.91652693121,,,2018_Jan_22_1637,60.0038876131,MAFE4ImagesEEG,001,102533,
AFNE01.JPG,AFNE01.JPG,AFNE01.JPG,AFNE01.JPG,AFNE01.JPG,AFNE01.JPG,2,2,22,7,,,,,,,,,,,,,,,,,,,,,,,AMNE08.jpg,AMNE18.jpg,AMSA17.jpg,AMSA15.jpg,AMSA17.jpg,MS,2,num_2,16,num_2,0.600157290599,,,2018_Jan_22_1637,60.0038876131,MAFE4ImagesEEG,001,102533,
AFNE01.JPG,AFNE01.JPG,AFNE01.JPG,AFNE01.JPG,AFNE01.JPG,AFNE01.JPG,2,3,23,0,,,,,,,,,,,,,,,,,,,,,,,AMSA04.jpg,AMNE19.jpg,AMNE10.jpg,AMSA01.jpg,AMSA04.jpg,MS,2,num_8,16,num_8,1.10009538789,,,2018_Jan_22_1637,60.0038876131,MAFE4ImagesEEG,001,102533,
AFNE01.JPG,AFNE01.JPG,AFNE01.JPG,AFNE01.JPG,AFNE01.JPG,AFNE01.JPG,2,4,24,3,,,,,,,,,,,,,,,,,,,,,,,AMNE13.jpg,AMNE04.jpg,AMSA06.jpg,AMSA02.jpg,AMNE04.jpg,MN,1,num_6,16,num_6,1.05010815333,,,2018_Jan_22_1637,60.0038876131,MAFE4ImagesEEG,001,102533,
AFNE01.JPG,AFNE01.JPG,AFNE01.JPG,AFNE01.JPG,AFNE01.JPG,AFNE01.JPG,2,5,25,5,,,,,,,,,,,,,,,,,,,,,,,AMNE16.jpg,AMNE05.jpg,AMSA17.jpg,AMSA10.jpg,AMNE05.jpg,MN,1,num_6,32,num_8,0.783446062538,,,2018_Jan_22_1637,60.0038876131,MAFE4ImagesEEG,001,102533,
AFNE01.JPG,AFNE01.JPG,AFNE01.JPG,AFNE01.JPG,AFNE01.JPG,AFNE01.JPG,2,6,26,9,,,,,,,,,,,,,,,,,,,,,,,AMSA15.jpg,AMSA20.jpg,AMNE06.jpg,AMNE20.jpg,AMNE20.jpg,MN,1,num_4,16,num_4,1.05007768308,,,2018_Jan_22_1637,60.0038876131,MAFE4ImagesEEG,001,102533,
AFNE01.JPG,AFNE01.JPG,AFNE01.JPG,AFNE01.JPG,AFNE01.JPG,AFNE01.JPG,2,7,27,6,,,,,,,,,,,,,,,,,,,,,,,AMSA10.jpg,AMSA15.jpg,AMNE03.jpg,AMNE07.jpg,AMNE07.jpg,MN,1,num_4,32,num_8,0.966754078843,,,2018_Jan_22_1637,60.0038876131,MAFE4ImagesEEG,001,102533,
AFNE01.JPG,AFNE01.JPG,AFNE01.JPG,AFNE01.JPG,AFNE01.JPG,AFNE01.JPG,2,8,28,8,,,,,,,,,,,,,,,,,,,,,,,AMNE06.jpg,AMSA19.jpg,AMSA10.jpg,AMNE09.jpg,AMSA10.jpg,MS,2,num_2,32,num_4,1.40012367711,,,2018_Jan_22_1637,60.0038876131,MAFE4ImagesEEG,001,102533,
AFNE01.JPG,AFNE01.JPG,AFNE01.JPG,AFNE01.JPG,AFNE01.JPG,AFNE01.JPG,2,9,29,4,,,,,,,,,,,,,,,,,,,,,,,AMNE18.jpg,AMSA06.jpg,AMSA01.jpg,AMNE15.jpg,AMSA06.jpg,MS,2,num_6,32,num_2,1.0334685143,,,2018_Jan_22_1637,60.0038876131,MAFE4ImagesEEG,001,102533,
AFNE01.JPG,AFNE01.JPG,AFNE01.JPG,AFNE01.JPG,AFNE01.JPG,AFNE01.JPG,3,0,30,6,,,,,,,,,,,,,,,,,,,,,,,AMSA17.jpg,AMNE18.jpg,AMSA07.jpg,AMNE09.jpg,AMNE18.jpg,MN,1,num_6,32,num_8,1.16681078557,,,2018_Jan_22_1637,60.0038876131,MAFE4ImagesEEG,001,102533,
AFNE01.JPG,AFNE01.JPG,AFNE01.JPG,AFNE01.JPG,AFNE01.JPG,AFNE01.JPG,3,1,31,9,,,,,,,,,,,,,,,,,,,,,,,AMSA19.jpg,AMNE06.jpg,AMSA06.jpg,AMNE07.jpg,AMSA19.jpg,MS,2,num_8,32,num_4,1.31675196196,,,2018_Jan_22_1637,60.0038876131,MAFE4ImagesEEG,001,102533,
AFNE01.JPG,AFNE01.JPG,AFNE01.JPG,AFNE01.JPG,AFNE01.JPG,AFNE01.JPG,3,2,32,0,,,,,,,,,,,,,,,,,,,,,,,AMSA01.jpg,AMNE15.jpg,AMNE10.jpg,AMSA11.jpg,AMNE15.jpg,MN,1,num_6,16,num_6,1.05007800382,,,2018_Jan_22_1637,60.0038876131,MAFE4ImagesEEG,001,102533,
AFNE01.JPG,AFNE01.JPG,AFNE01.JPG,AFNE01.JPG,AFNE01.JPG,AFNE01.JPG,3,3,33,5,,,,,,,,,,,,,,,,,,,,,,,AMSA14.jpg,AMNE12.jpg,AMNE13.jpg,AMSA11.jpg,AMNE13.jpg,MN,1,num_2,32,num_4,0.733484487118,,,2018_Jan_22_1637,60.0038876131,MAFE4ImagesEEG,001,102533,
AFNE01.JPG,AFNE01.JPG,AFNE01.JPG,AFNE01.JPG,AFNE01.JPG,AFNE01.JPG,3,4,34,4,,,,,,,,,,,,,,,,,,,,,,,AMSA15.jpg,AMNE11.jpg,AMNE08.jpg,AMSA05.jpg,AMSA05.jpg,MS,2,num_4,16,num_4,1.33332232128,,,2018_Jan_22_1637,60.0038876131,MAFE4ImagesEEG,001,102533,
AFNE01.JPG,AFNE01.JPG,AFNE01.JPG,AFNE01.JPG,AFNE01.JPG,AFNE01.JPG,3,5,35,1,,,,,,,,,,,,,,,,,,,,,,,AMSA16.jpg,AMNE04.jpg,AMNE12.jpg,AMSA10.jpg,AMSA10.jpg,MS,2,num_4,32,num_8,1.35004759773,,,2018_Jan_22_1637,60.0038876131,MAFE4ImagesEEG,001,102533,
AFNE01.JPG,AFNE01.JPG,AFNE01.JPG,AFNE01.JPG,AFNE01.JPG,AFNE01.JPG,3,6,36,2,,,,,,,,,,,,,,,,,,,,,,,AMNE09.jpg,AMNE06.jpg,AMSA14.jpg,AMSA12.jpg,AMNE06.jpg,MN,1,num_6,16,num_6,0.933468386,,,2018_Jan_22_1637,60.0038876131,MAFE4ImagesEEG,001,102533,
AFNE01.JPG,AFNE01.JPG,AFNE01.JPG,AFNE01.JPG,AFNE01.JPG,AFNE01.JPG,3,7,37,8,,,,,,,,,,,,,,,,,,,,,,,AMSA10.jpg,AMNE11.jpg,AMSA17.jpg,AMNE16.jpg,AMNE16.jpg,MN,1,num_4,32,num_8,1.11673534766,,,2018_Jan_22_1637,60.0038876131,MAFE4ImagesEEG,001,102533,
AFNE01.JPG,AFNE01.JPG,AFNE01.JPG,AFNE01.JPG,AFNE01.JPG,AFNE01.JPG,3,8,38,3,,,,,,,,,,,,,,,,,,,,,,,AMNE17.jpg,AMSA06.jpg,AMSA20.jpg,AMNE15.jpg,AMNE17.jpg,MN,1,num_8,32,num_2,1.1834879511,,,2018_Jan_22_1637,60.0038876131,MAFE4ImagesEEG,001,102533,
AFNE01.JPG,AFNE01.JPG,AFNE01.JPG,AFNE01.JPG,AFNE01.JPG,AFNE01.JPG,3,9,39,7,,,,,,,,,,,,,,,,,,,,,,,AMNE09.jpg,AMSA17.jpg,AMNE16.jpg,AMSA14.jpg,AMNE16.jpg,MN,1,num_2,16,num_2,1.19998518184,,,2018_Jan_22_1637,60.0038876131,MAFE4ImagesEEG,001,102533,
AFNE01.JPG,AFNE01.JPG,AFNE01.JPG,AFNE01.JPG,AFNE01.JPG,AFNE01.JPG,4,0,40,2,,,,,,,,,,,,,,,,,,,,,,,AMNE10.jpg,AMSA20.jpg,AMNE13.jpg,AMSA02.jpg,AMNE13.jpg,MN,1,num_2,32,num_6,1.21675022997,,,2018_Jan_22_1637,60.0038876131,MAFE4ImagesEEG,001,102533,
AFNE01.JPG,AFNE01.JPG,AFNE01.JPG,AFNE01.JPG,AFNE01.JPG,AFNE01.JPG,4,1,41,0,,,,,,,,,,,,,,,,,,,,,,,AMNE20.jpg,AMSA06.jpg,AMNE07.jpg,AMSA20.jpg,AMNE20.jpg,MN,1,num_8,32,num_6,1.83336658332,,,2018_Jan_22_1637,60.0038876131,MAFE4ImagesEEG,001,102533,
AFNE01.JPG,AFNE01.JPG,AFNE01.JPG,AFNE01.JPG,AFNE01.JPG,AFNE01.JPG,4,2,42,1,,,,,,,,,,,,,,,,,,,,,,,AMNE15.jpg,AMSA08.jpg,AMNE09.jpg,AMSA20.jpg,AMNE09.jpg,MN,1,num_2,32,num_8,1.05014151022,,,2018_Jan_22_1637,60.0038876131,MAFE4ImagesEEG,001,102533,
AFNE01.JPG,AFNE01.JPG,AFNE01.JPG,AFNE01.JPG,AFNE01.JPG,AFNE01.JPG,4,3,43,8,,,,,,,,,,,,,,,,,,,,,,,AMSA08.jpg,AMNE17.jpg,AMNE04.jpg,AMSA07.jpg,AMSA07.jpg,MS,2,num_4,32,num_6,1.11691816912,,,2018_Jan_22_1637,60.0038876131,MAFE4ImagesEEG,001,102533,
AFNE01.JPG,AFNE01.JPG,AFNE01.JPG,AFNE01.JPG,AFNE01.JPG,AFNE01.JPG,4,4,44,5,,,,,,,,,,,,,,,,,,,,,,,AMNE07.jpg,AMSA05.jpg,AMNE14.jpg,AMSA17.jpg,AMNE14.jpg,MN,1,num_2,32,num_4,1.06695531074,,,2018_Jan_22_1637,60.0038876131,MAFE4ImagesEEG,001,102533,
AFNE01.JPG,AFNE01.JPG,AFNE01.JPG,AFNE01.JPG,AFNE01.JPG,AFNE01.JPG,4,5,45,4,,,,,,,,,,,,,,,,,,,,,,,AMNE19.jpg,AMSA03.jpg,AMSA14.jpg,AMNE14.jpg,AMNE14.jpg,MN,1,num_4,32,num_2,0.983438942127,,,2018_Jan_22_1637,60.0038876131,MAFE4ImagesEEG,001,102533,
AFNE01.JPG,AFNE01.JPG,AFNE01.JPG,AFNE01.JPG,AFNE01.JPG,AFNE01.JPG,4,6,46,7,,,,,,,,,,,,,,,,,,,,,,,AMNE12.jpg,AMSA10.jpg,AMSA07.jpg,AMNE17.jpg,AMSA07.jpg,MS,2,num_2,32,num_4,0.900115658624,,,2018_Jan_22_1637,60.0038876131,MAFE4ImagesEEG,001,102533,
AFNE01.JPG,AFNE01.JPG,AFNE01.JPG,AFNE01.JPG,AFNE01.JPG,AFNE01.JPG,4,7,47,9,,,,,,,,,,,,,,,,,,,,,,,AMNE17.jpg,AMSA10.jpg,AMSA03.jpg,AMNE01.jpg,AMNE01.jpg,MN,1,num_4,16,num_4,0.866778326741,,,2018_Jan_22_1637,60.0038876131,MAFE4ImagesEEG,001,102533,
AFNE01.JPG,AFNE01.JPG,AFNE01.JPG,AFNE01.JPG,AFNE01.JPG,AFNE01.JPG,4,8,48,6,,,,,,,,,,,,,,,,,,,,,,,AMNE20.jpg,AMSA10.jpg,AMSA08.jpg,AMNE13.jpg,AMSA08.jpg,MS,2,num_2,16,num_2,0.883497509138,,,2018_Jan_22_1637,60.0038876131,MAFE4ImagesEEG,001,102533,
AFNE01.JPG,AFNE01.JPG,AFNE01.JPG,AFNE01.JPG,AFNE01.JPG,AFNE01.JPG,4,9,49,3,,,,,,,,,,,,,,,,,,,,,,,AMSA08.jpg,AMNE11.jpg,AMSA13.jpg,AMNE13.jpg,AMNE13.jpg,MN,1,num_4,16,num_4,1.31643282627,,,2018_Jan_22_1637,60.0038876131,MAFE4ImagesEEG,001,102533,
AFNE01.JPG,AFNE01.JPG,AFNE01.JPG,AFNE01.JPG,AFNE01.JPG,AFNE01.JPG,5,0,50,6,,,,,,,,,,,,,,,,,,,,,,,AMNE13.jpg,AMNE20.jpg,AMSA16.jpg,AMSA10.jpg,AMNE13.jpg,MN,1,num_8,32,num_6,1.11675074315,,,2018_Jan_22_1637,60.0038876131,MAFE4ImagesEEG,001,102533,
AFNE01.JPG,AFNE01.JPG,AFNE01.JPG,AFNE01.JPG,AFNE01.JPG,AFNE01.JPG,5,1,51,2,,,,,,,,,,,,,,,,,,,,,,,AMSA10.jpg,AMNE12.jpg,AMSA12.jpg,AMNE13.jpg,AMNE12.jpg,MN,1,num_6,32,num_4,0.94996433378,,,2018_Jan_22_1637,60.0038876131,MAFE4ImagesEEG,001,102533,
AFNE01.JPG,AFNE01.JPG,AFNE01.JPG,AFNE01.JPG,AFNE01.JPG,AFNE01.JPG,5,2,52,5,,,,,,,,,,,,,,,,,,,,,,,AMNE01.jpg,AMSA13.jpg,AMSA01.jpg,AMNE12.jpg,AMNE01.jpg,MN,1,num_8,16,num_8,1.20005766894,,,2018_Jan_22_1637,60.0038876131,MAFE4ImagesEEG,001,102533,
AFNE01.JPG,AFNE01.JPG,AFNE01.JPG,AFNE01.JPG,AFNE01.JPG,AFNE01.JPG,5,3,53,8,,,,,,,,,,,,,,,,,,,,,,,AMNE17.jpg,AMSA15.jpg,AMSA08.jpg,AMNE02.jpg,AMSA08.jpg,MS,2,num_2,16,num_2,1.0093883628,,,2018_Jan_22_1637,60.0038876131,MAFE4ImagesEEG,001,102533,
AFNE01.JPG,AFNE01.JPG,AFNE01.JPG,AFNE01.JPG,AFNE01.JPG,AFNE01.JPG,5,4,54,3,,,,,,,,,,,,,,,,,,,,,,,AMNE18.jpg,AMSA11.jpg,AMSA20.jpg,AMNE04.jpg,AMNE18.jpg,MN,1,num_8,32,num_6,1.11671193369,,,2018_Jan_22_1637,60.0038876131,MAFE4ImagesEEG,001,102533,
AFNE01.JPG,AFNE01.JPG,AFNE01.JPG,AFNE01.JPG,AFNE01.JPG,AFNE01.JPG,5,5,55,9,,,,,,,,,,,,,,,,,,,,,,,AMNE19.jpg,AMNE04.jpg,AMSA05.jpg,AMSA07.jpg,AMSA05.jpg,MS,2,num_2,16,num_2,0.91671392227,,,2018_Jan_22_1637,60.0038876131,MAFE4ImagesEEG,001,102533,
AFNE01.JPG,AFNE01.JPG,AFNE01.JPG,AFNE01.JPG,AFNE01.JPG,AFNE01.JPG,5,6,56,0,,,,,,,,,,,,,,,,,,,,,,,AMNE09.jpg,AMSA12.jpg,AMSA13.jpg,AMNE16.jpg,AMNE09.jpg,MN,1,num_8,16,num_8,0.91677165536,,,2018_Jan_22_1637,60.0038876131,MAFE4ImagesEEG,001,102533,
AFNE01.JPG,AFNE01.JPG,AFNE01.JPG,AFNE01.JPG,AFNE01.JPG,AFNE01.JPG,5,7,57,7,,,,,,,,,,,,,,,,,,,,,,,AMNE16.jpg,AMSA16.jpg,AMNE19.jpg,AMSA10.jpg,AMSA10.jpg,MS,2,num_4,32,num_6,0.766714692047,,,2018_Jan_22_1637,60.0038876131,MAFE4ImagesEEG,001,102533,
AFNE01.JPG,AFNE01.JPG,AFNE01.JPG,AFNE01.JPG,AFNE01.JPG,AFNE01.JPG,5,8,58,1,,,,,,,,,,,,,,,,,,,,,,,AMNE08.jpg,AMNE03.jpg,AMSA18.jpg,AMSA07.jpg,AMSA07.jpg,MS,2,num_4,32,num_2,0.816789488472,,,2018_Jan_22_1637,60.0038876131,MAFE4ImagesEEG,001,102533,
AFNE01.JPG,AFNE01.JPG,AFNE01.JPG,AFNE01.JPG,AFNE01.JPG,AFNE01.JPG,5,9,59,4,,,,,,,,,,,,,,,,,,,,,,,AMNE08.jpg,AMSA01.jpg,AMSA08.jpg,AMNE18.jpg,AMSA08.jpg,MS,2,num_2,16,num_2,1.0834291275,,,2018_Jan_22_1637,60.0038876131,MAFE4ImagesEEG,001,102533,
,,,,,,,,,,,,,,,,,,,,,,,,,,,,,,,,,,,,,,,,,,,space,7.71596217328,2018_Jan_22_1637,60.0038876131,MAFE4ImagesEEG,001,102533,
AFNE01.JPG,AFNE01.JPG,AFNE01.JPG,AFNE01.JPG,AFNE01.JPG,AFNE01.JPG,,,,,0,0,0,1,,,,,,,,,,,,,,,,,,,AFSA17.jpg,AFNE04.jpg,AFNE08.jpg,AFSA13.jpg,AFNE08.jpg,FN,3,num_2,32,num_6,1.13333200761,,,2018_Jan_22_1637,60.0038876131,MAFE4ImagesEEG,001,102533,
AFNE01.JPG,AFNE01.JPG,AFNE01.JPG,AFNE01.JPG,AFNE01.JPG,AFNE01.JPG,,,,,0,1,1,2,,,,,,,,,,,,,,,,,,,AFNE13.jpg,AFSA03.jpg,AFNE05.jpg,AFSA05.jpg,AFSA03.jpg,FS,4,num_6,16,num_6,0.916766202794,,,2018_Jan_22_1637,60.0038876131,MAFE4ImagesEEG,001,102533,
AFNE01.JPG,AFNE01.JPG,AFNE01.JPG,AFNE01.JPG,AFNE01.JPG,AFNE01.JPG,,,,,0,2,2,7,,,,,,,,,,,,,,,,,,,AFSA15.jpg,AFNE02.jpg,AFSA14.jpg,AFNE10.jpg,AFNE02.jpg,FN,3,num_6,16,num_6,0.650149977741,,,2018_Jan_22_1637,60.0038876131,MAFE4ImagesEEG,001,102533,
AFNE01.JPG,AFNE01.JPG,AFNE01.JPG,AFNE01.JPG,AFNE01.JPG,AFNE01.JPG,,,,,0,3,3,3,,,,,,,,,,,,,,,,,,,AFNE14.jpg,AFSA11.jpg,AFNE11.jpg,AFSA12.jpg,AFNE11.jpg,FN,3,num_2,32,num_6,1.01644430874,,,2018_Jan_22_1637,60.0038876131,MAFE4ImagesEEG,001,102533,
AFNE01.JPG,AFNE01.JPG,AFNE01.JPG,AFNE01.JPG,AFNE01.JPG,AFNE01.JPG,,,,,0,4,4,0,,,,,,,,,,,,,,,,,,,AFSA06.jpg,AFSA13.jpg,AFNE09.jpg,AFNE18.jpg,AFSA06.jpg,FS,4,num_8,32,num_2,0.700131118265,,,2018_Jan_22_1637,60.0038876131,MAFE4ImagesEEG,001,102533,
AFNE01.JPG,AFNE01.JPG,AFNE01.JPG,AFNE01.JPG,AFNE01.JPG,AFNE01.JPG,,,,,0,5,5,8,,,,,,,,,,,,,,,,,,,AFNE14.jpg,AFSA07.jpg,AFNE12.jpg,AFSA13.jpg,AFNE12.jpg,FN,3,num_2,32,num_6,0.700159022592,,,2018_Jan_22_1637,60.0038876131,MAFE4ImagesEEG,001,102533,
AFNE01.JPG,AFNE01.JPG,AFNE01.JPG,AFNE01.JPG,AFNE01.JPG,AFNE01.JPG,,,,,0,6,6,5,,,,,,,,,,,,,,,,,,,AFSA05.jpg,AFNE20.jpg,AFSA08.jpg,AFNE03.jpg,AFSA08.jpg,FS,4,num_2,16,num_2,0.866926829083,,,2018_Jan_22_1637,60.0038876131,MAFE4ImagesEEG,001,102533,
AFNE01.JPG,AFNE01.JPG,AFNE01.JPG,AFNE01.JPG,AFNE01.JPG,AFNE01.JPG,,,,,0,7,7,6,,,,,,,,,,,,,,,,,,,AFNE03.jpg,AFSA01.jpg,AFNE09.jpg,AFSA20.jpg,AFNE03.jpg,FN,3,num_8,16,num_8,0.800110077758,,,2018_Jan_22_1637,60.0038876131,MAFE4ImagesEEG,001,102533,
AFNE01.JPG,AFNE01.JPG,AFNE01.JPG,AFNE01.JPG,AFNE01.JPG,AFNE01.JPG,,,,,0,8,8,4,,,,,,,,,,,,,,,,,,,AFSA09.jpg,AFNE04.jpg,AFSA07.jpg,AFNE08.jpg,AFNE08.jpg,FN,3,num_4,32,num_6,0.816804563223,,,2018_Jan_22_1637,60.0038876131,MAFE4ImagesEEG,001,102533,
AFNE01.JPG,AFNE01.JPG,AFNE01.JPG,AFNE01.JPG,AFNE01.JPG,AFNE01.JPG,,,,,0,9,9,9,,,,,,,,,,,,,,,,,,,AFNE13.jpg,AFSA02.jpg,AFSA12.jpg,AFNE08.jpg,AFNE08.jpg,FN,3,num_4,16,num_4,0.933458763819,,,2018_Jan_22_1637,60.0038876131,MAFE4ImagesEEG,001,102533,
AFNE01.JPG,AFNE01.JPG,AFNE01.JPG,AFNE01.JPG,AFNE01.JPG,AFNE01.JPG,,,,,1,0,10,8,,,,,,,,,,,,,,,,,,,AFSA08.jpg,AFSA03.jpg,AFNE18.jpg,AFNE05.jpg,AFNE05.jpg,FN,3,num_4,32,num_6,0.90008679208,,,2018_Jan_22_1637,60.0038876131,MAFE4ImagesEEG,001,102533,
AFNE01.JPG,AFNE01.JPG,AFNE01.JPG,AFNE01.JPG,AFNE01.JPG,AFNE01.JPG,,,,,1,1,11,9,,,,,,,,,,,,,,,,,,,AFNE14.jpg,AFSA05.jpg,AFNE08.jpg,AFSA13.jpg,AFSA05.jpg,FS,4,num_6,16,num_6,1.26672110683,,,2018_Jan_22_1637,60.0038876131,MAFE4ImagesEEG,001,102533,
AFNE01.JPG,AFNE01.JPG,AFNE01.JPG,AFNE01.JPG,AFNE01.JPG,AFNE01.JPG,,,,,1,2,12,6,,,,,,,,,,,,,,,,,,,AFSA12.jpg,AFNE05.jpg,AFSA11.jpg,AFNE02.jpg,AFNE05.jpg,FN,3,num_6,32,num_4,1.06678531886,,,2018_Jan_22_1637,60.0038876131,MAFE4ImagesEEG,001,102533,
AFNE01.JPG,AFNE01.JPG,AFNE01.JPG,AFNE01.JPG,AFNE01.JPG,AFNE01.JPG,,,,,1,3,13,5,,,,,,,,,,,,,,,,,,,AFNE14.jpg,AFSA11.jpg,AFNE07.jpg,AFSA02.jpg,AFNE14.jpg,FN,3,num_8,16,num_8,0.600165950564,,,2018_Jan_22_1637,60.0038876131,MAFE4ImagesEEG,001,102533,
AFNE01.JPG,AFNE01.JPG,AFNE01.JPG,AFNE01.JPG,AFNE01.JPG,AFNE01.JPG,,,,,1,4,14,0,,,,,,,,,,,,,,,,,,,AFNE09.jpg,AFSA18.jpg,AFSA20.jpg,AFNE14.jpg,AFNE09.jpg,FN,3,num_8,32,num_4,0.600200269677,,,2018_Jan_22_1637,60.0038876131,MAFE4ImagesEEG,001,102533,
AFNE01.JPG,AFNE01.JPG,AFNE01.JPG,AFNE01.JPG,AFNE01.JPG,AFNE01.JPG,,,,,1,5,15,2,,,,,,,,,,,,,,,,,,,AFSA04.jpg,AFNE09.jpg,AFSA10.jpg,AFNE20.jpg,AFNE09.jpg,FN,3,num_6,16,num_6,0.983446319129,,,2018_Jan_22_1637,60.0038876131,MAFE4ImagesEEG,001,102533,
AFNE01.JPG,AFNE01.JPG,AFNE01.JPG,AFNE01.JPG,AFNE01.JPG,AFNE01.JPG,,,,,1,6,16,3,,,,,,,,,,,,,,,,,,,AFNE13.jpg,AFSA11.jpg,AFNE12.jpg,AFSA04.jpg,AFSA04.jpg,FS,4,num_4,16,num_4,1.18341257735,,,2018_Jan_22_1637,60.0038876131,MAFE4ImagesEEG,001,102533,
AFNE01.JPG,AFNE01.JPG,AFNE01.JPG,AFNE01.JPG,AFNE01.JPG,AFNE01.JPG,,,,,1,7,17,1,,,,,,,,,,,,,,,,,,,AFNE07.jpg,AFNE10.jpg,AFSA09.jpg,AFSA13.jpg,AFNE10.jpg,FN,3,num_6,16,num_6,0.750124767626,,,2018_Jan_22_1637,60.0038876131,MAFE4ImagesEEG,001,102533,
AFNE01.JPG,AFNE01.JPG,AFNE01.JPG,AFNE01.JPG,AFNE01.JPG,AFNE01.JPG,,,,,1,8,18,7,,,,,,,,,,,,,,,,,,,AFNE16.jpg,AFSA02.jpg,AFNE07.jpg,AFSA08.jpg,AFNE07.jpg,FN,3,num_2,16,num_2,1.1000636347,,,2018_Jan_22_1637,60.0038876131,MAFE4ImagesEEG,001,102533,
AFNE01.JPG,AFNE01.JPG,AFNE01.JPG,AFNE01.JPG,AFNE01.JPG,AFNE01.JPG,,,,,1,9,19,4,,,,,,,,,,,,,,,,,,,AFSA07.jpg,AFNE15.jpg,AFNE17.jpg,AFSA19.jpg,AFSA19.jpg,FS,4,num_4,16,num_4,1.13341539985,,,2018_Jan_22_1637,60.0038876131,MAFE4ImagesEEG,001,102533,
AFNE01.JPG,AFNE01.JPG,AFNE01.JPG,AFNE01.JPG,AFNE01.JPG,AFNE01.JPG,,,,,2,0,20,4,,,,,,,,,,,,,,,,,,,AFSA14.jpg,AFNE12.jpg,AFSA03.jpg,AFNE16.jpg,AFNE16.jpg,FN,3,num_4,32,num_8,1.75007793967,,,2018_Jan_22_1637,60.0038876131,MAFE4ImagesEEG,001,102533,
AFNE01.JPG,AFNE01.JPG,AFNE01.JPG,AFNE01.JPG,AFNE01.JPG,AFNE01.JPG,,,,,2,1,21,7,,,,,,,,,,,,,,,,,,,AFNE06.jpg,AFSA06.jpg,AFNE13.jpg,AFSA03.jpg,AFNE13.jpg,FN,3,num_2,32,num_4,0.766767293306,,,2018_Jan_22_1637,60.0038876131,MAFE4ImagesEEG,001,102533,
AFNE01.JPG,AFNE01.JPG,AFNE01.JPG,AFNE01.JPG,AFNE01.JPG,AFNE01.JPG,,,,,2,2,22,8,,,,,,,,,,,,,,,,,,,AFSA08.jpg,AFNE19.jpg,AFSA18.jpg,AFNE11.jpg,AFSA18.jpg,FS,4,num_2,16,num_2,0.700143627098,,,2018_Jan_22_1637,60.0038876131,MAFE4ImagesEEG,001,102533,
AFNE01.JPG,AFNE01.JPG,AFNE01.JPG,AFNE01.JPG,AFNE01.JPG,AFNE01.JPG,,,,,2,3,23,9,,,,,,,,,,,,,,,,,,,AFSA02.jpg,AFNE03.jpg,AFSA12.jpg,AFNE08.jpg,AFSA02.jpg,FS,4,num_8,16,num_8,1.40008871651,,,2018_Jan_22_1637,60.0038876131,MAFE4ImagesEEG,001,102533,
AFNE01.JPG,AFNE01.JPG,AFNE01.JPG,AFNE01.JPG,AFNE01.JPG,AFNE01.JPG,,,,,2,4,24,0,,,,,,,,,,,,,,,,,,,AFSA20.jpg,AFNE10.jpg,AFSA13.jpg,AFNE07.jpg,AFNE07.jpg,FN,3,num_4,32,num_6,0.700169927732,,,2018_Jan_22_1637,60.0038876131,MAFE4ImagesEEG,001,102533,
AFNE01.JPG,AFNE01.JPG,AFNE01.JPG,AFNE01.JPG,AFNE01.JPG,AFNE01.JPG,,,,,2,5,25,6,,,,,,,,,,,,,,,,,,,AFNE11.jpg,AFSA10.jpg,AFSA09.jpg,AFNE01.jpg,AFNE01.jpg,FN,3,num_4,32,num_6,1.26675350151,,,2018_Jan_22_1637,60.0038876131,MAFE4ImagesEEG,001,102533,
AFNE01.JPG,AFNE01.JPG,AFNE01.JPG,AFNE01.JPG,AFNE01.JPG,AFNE01.JPG,,,,,2,6,26,3,,,,,,,,,,,,,,,,,,,AFSA05.jpg,AFSA10.jpg,AFNE08.jpg,AFNE03.jpg,AFNE08.jpg,FN,3,num_2,16,num_2,0.766443987995,,,2018_Jan_22_1637,60.0038876131,MAFE4ImagesEEG,001,102533,
AFNE01.JPG,AFNE01.JPG,AFNE01.JPG,AFNE01.JPG,AFNE01.JPG,AFNE01.JPG,,,,,2,7,27,1,,,,,,,,,,,,,,,,,,,AFNE04.jpg,AFNE09.jpg,AFSA15.jpg,AFSA18.jpg,AFSA18.jpg,FS,4,num_4,16,num_4,0.800139265044,,,2018_Jan_22_1637,60.0038876131,MAFE4ImagesEEG,001,102533,
AFNE01.JPG,AFNE01.JPG,AFNE01.JPG,AFNE01.JPG,AFNE01.JPG,AFNE01.JPG,,,,,2,8,28,5,,,,,,,,,,,,,,,,,,,AFSA08.jpg,AFSA17.jpg,AFNE16.jpg,AFNE02.jpg,AFSA08.jpg,FS,4,num_8,16,num_8,1.53343547814,,,2018_Jan_22_1637,60.0038876131,MAFE4ImagesEEG,001,102533,
AFNE01.JPG,AFNE01.JPG,AFNE01.JPG,AFNE01.JPG,AFNE01.JPG,AFNE01.JPG,,,,,2,9,29,2,,,,,,,,,,,,,,,,,,,AFNE10.jpg,AFSA03.jpg,AFNE05.jpg,AFSA13.jpg,AFNE05.jpg,FN,3,num_2,16,num_2,1.03342970483,,,2018_Jan_22_1637,60.0038876131,MAFE4ImagesEEG,001,102533,
AFNE01.JPG,AFNE01.JPG,AFNE01.JPG,AFNE01.JPG,AFNE01.JPG,AFNE01.JPG,,,,,3,0,30,4,,,,,,,,,,,,,,,,,,,AFNE03.jpg,AFSA18.jpg,AFSA16.jpg,AFNE19.jpg,AFSA16.jpg,FS,4,num_2,32,num_8,2.05006741942,,,2018_Jan_22_1637,60.0038876131,MAFE4ImagesEEG,001,102533,
AFNE01.JPG,AFNE01.JPG,AFNE01.JPG,AFNE01.JPG,AFNE01.JPG,AFNE01.JPG,,,,,3,1,31,1,,,,,,,,,,,,,,,,,,,AFNE08.jpg,AFNE20.jpg,AFSA02.jpg,AFSA09.jpg,AFNE08.jpg,FN,3,num_8,16,num_8,0.700140098965,,,2018_Jan_22_1637,60.0038876131,MAFE4ImagesEEG,001,102533,
AFNE01.JPG,AFNE01.JPG,AFNE01.JPG,AFNE01.JPG,AFNE01.JPG,AFNE01.JPG,,,,,3,2,32,8,,,,,,,,,,,,,,,,,,,AFSA16.jpg,AFNE20.jpg,AFNE01.jpg,AFSA19.jpg,AFSA19.jpg,FS,4,num_4,16,num_4,1.65006754772,,,2018_Jan_22_1637,60.0038876131,MAFE4ImagesEEG,001,102533,
AFNE01.JPG,AFNE01.JPG,AFNE01.JPG,AFNE01.JPG,AFNE01.JPG,AFNE01.JPG,,,,,3,3,33,2,,,,,,,,,,,,,,,,,,,AFSA07.jpg,AFSA01.jpg,AFNE13.jpg,AFNE20.jpg,AFSA01.jpg,FS,4,num_6,16,num_6,0.883483396603,,,2018_Jan_22_1637,60.0038876131,MAFE4ImagesEEG,001,102533,
AFNE01.JPG,AFNE01.JPG,AFNE01.JPG,AFNE01.JPG,AFNE01.JPG,AFNE01.JPG,,,,,3,4,34,6,,,,,,,,,,,,,,,,,,,AFNE11.jpg,AFNE15.jpg,AFSA12.jpg,AFSA20.jpg,AFSA20.jpg,FS,4,num_4,32,num_8,0.933468065261,,,2018_Jan_22_1637,60.0038876131,MAFE4ImagesEEG,001,102533,
AFNE01.JPG,AFNE01.JPG,AFNE01.JPG,AFNE01.JPG,AFNE01.JPG,AFNE01.JPG,,,,,3,5,35,5,,,,,,,,,,,,,,,,,,,AFNE14.jpg,AFNE02.jpg,AFSA06.jpg,AFSA11.jpg,AFNE02.jpg,FN,3,num_6,16,num_6,0.90013394077,,,2018_Jan_22_1637,60.0038876131,MAFE4ImagesEEG,001,102533,
AFNE01.JPG,AFNE01.JPG,AFNE01.JPG,AFNE01.JPG,AFNE01.JPG,AFNE01.JPG,,,,,3,6,36,9,,,,,,,,,,,,,,,,,,,AFNE14.jpg,AFNE02.jpg,AFSA03.jpg,AFSA07.jpg,AFSA07.jpg,FS,4,num_4,32,num_6,0.966754399582,,,2018_Jan_22_1637,60.0038876131,MAFE4ImagesEEG,001,102533,
AFNE01.JPG,AFNE01.JPG,AFNE01.JPG,AFNE01.JPG,AFNE01.JPG,AFNE01.JPG,,,,,3,7,37,3,,,,,,,,,,,,,,,,,,,AFSA07.jpg,AFNE05.jpg,AFNE20.jpg,AFSA03.jpg,AFNE05.jpg,FN,3,num_6,32,num_2,1.60003252298,,,2018_Jan_22_1637,60.0038876131,MAFE4ImagesEEG,001,102533,
AFNE01.JPG,AFNE01.JPG,AFNE01.JPG,AFNE01.JPG,AFNE01.JPG,AFNE01.JPG,,,,,3,8,38,0,,,,,,,,,,,,,,,,,,,AFNE03.jpg,AFNE20.jpg,AFSA07.jpg,AFSA14.jpg,AFSA14.jpg,FS,4,num_4,16,num_4,0.800154660534,,,2018_Jan_22_1637,60.0038876131,MAFE4ImagesEEG,001,102533,
AFNE01.JPG,AFNE01.JPG,AFNE01.JPG,AFNE01.JPG,AFNE01.JPG,AFNE01.JPG,,,,,3,9,39,7,,,,,,,,,,,,,,,,,,,AFNE06.jpg,AFSA03.jpg,AFNE04.jpg,AFSA20.jpg,AFNE04.jpg,FN,3,num_2,16,num_2,0.66682586032,,,2018_Jan_22_1637,60.0038876131,MAFE4ImagesEEG,001,102533,
AFNE01.JPG,AFNE01.JPG,AFNE01.JPG,AFNE01.JPG,AFNE01.JPG,AFNE01.JPG,,,,,4,0,40,4,,,,,,,,,,,,,,,,,,,AFSA18.jpg,AFNE04.jpg,AFNE06.jpg,AFSA09.jpg,AFSA09.jpg,FS,4,num_4,32,num_8,1.56670417179,,,2018_Jan_22_1637,60.0038876131,MAFE4ImagesEEG,001,102533,
AFNE01.JPG,AFNE01.JPG,AFNE01.JPG,AFNE01.JPG,AFNE01.JPG,AFNE01.JPG,,,,,4,1,41,9,,,,,,,,,,,,,,,,,,,AFNE05.jpg,AFSA15.jpg,AFSA20.jpg,AFNE17.jpg,AFSA15.jpg,FS,4,num_6,16,num_6,1.33340860018,,,2018_Jan_22_1637,60.0038876131,MAFE4ImagesEEG,001,102533,
AFNE01.JPG,AFNE01.JPG,AFNE01.JPG,AFNE01.JPG,AFNE01.JPG,AFNE01.JPG,,,,,4,2,42,1,,,,,,,,,,,,,,,,,,,AFNE03.jpg,AFNE04.jpg,AFSA04.jpg,AFSA16.jpg,AFNE03.jpg,FN,3,num_8,16,num_8,0.916762033179,,,2018_Jan_22_1637,60.0038876131,MAFE4ImagesEEG,001,102533,
AFNE01.JPG,AFNE01.JPG,AFNE01.JPG,AFNE01.JPG,AFNE01.JPG,AFNE01.JPG,,,,,4,3,43,7,,,,,,,,,,,,,,,,,,,AFSA16.jpg,AFNE10.jpg,AFNE20.jpg,AFSA02.jpg,AFSA02.jpg,FS,4,num_4,32,num_8,1.33348301172,,,2018_Jan_22_1637,60.0038876131,MAFE4ImagesEEG,001,102533,
AFNE01.JPG,AFNE01.JPG,AFNE01.JPG,AFNE01.JPG,AFNE01.JPG,AFNE01.JPG,,,,,4,4,44,3,,,,,,,,,,,,,,,,,,,AFSA05.jpg,AFSA20.jpg,AFNE01.jpg,AFNE02.jpg,AFSA20.jpg,FS,4,num_6,32,num_4,1.53349834306,,,2018_Jan_22_1637,60.0038876131,MAFE4ImagesEEG,001,102533,
AFNE01.JPG,AFNE01.JPG,AFNE01.JPG,AFNE01.JPG,AFNE01.JPG,AFNE01.JPG,,,,,4,5,45,2,,,,,,,,,,,,,,,,,,,AFSA17.jpg,AFSA19.jpg,AFNE06.jpg,AFNE19.jpg,AFSA17.jpg,FS,4,num_8,16,num_8,0.900081339511,,,2018_Jan_22_1637,60.0038876131,MAFE4ImagesEEG,001,102533,
AFNE01.JPG,AFNE01.JPG,AFNE01.JPG,AFNE01.JPG,AFNE01.JPG,AFNE01.JPG,,,,,4,6,46,0,,,,,,,,,,,,,,,,,,,AFSA17.jpg,AFSA08.jpg,AFNE05.jpg,AFNE06.jpg,AFNE06.jpg,FN,3,num_4,32,num_2,1.13355267631,,,2018_Jan_22_1637,60.0038876131,MAFE4ImagesEEG,001,102533,
AFNE01.JPG,AFNE01.JPG,AFNE01.JPG,AFNE01.JPG,AFNE01.JPG,AFNE01.JPG,,,,,4,7,47,6,,,,,,,,,,,,,,,,,,,AFSA17.jpg,AFSA11.jpg,AFNE16.jpg,AFNE08.jpg,AFNE08.jpg,FN,3,num_4,16,num_4,0.916840293594,,,2018_Jan_22_1637,60.0038876131,MAFE4ImagesEEG,001,102533,
AFNE01.JPG,AFNE01.JPG,AFNE01.JPG,AFNE01.JPG,AFNE01.JPG,AFNE01.JPG,,,,,4,8,48,5,,,,,,,,,,,,,,,,,,,AFSA13.jpg,AFSA18.jpg,AFNE02.jpg,AFNE17.jpg,AFSA13.jpg,FS,4,num_8,16,num_8,0.966861205798,,,2018_Jan_22_1637,60.0038876131,MAFE4ImagesEEG,001,102533,
AFNE01.JPG,AFNE01.JPG,AFNE01.JPG,AFNE01.JPG,AFNE01.JPG,AFNE01.JPG,,,,,4,9,49,8,,,,,,,,,,,,,,,,,,,AFNE15.jpg,AFSA03.jpg,AFSA11.jpg,AFNE02.jpg,AFNE15.jpg,FN,3,num_8,32,num_4,0.800127397688,,,2018_Jan_22_1637,60.0038876131,MAFE4ImagesEEG,001,102533,
AFNE01.JPG,AFNE01.JPG,AFNE01.JPG,AFNE01.JPG,AFNE01.JPG,AFNE01.JPG,,,,,5,0,50,7,,,,,,,,,,,,,,,,,,,AFNE20.jpg,AFNE19.jpg,AFSA06.jpg,AFSA13.jpg,AFSA13.jpg,FS,4,num_4,32,num_2,1.00010295734,,,2018_Jan_22_1637,60.0038876131,MAFE4ImagesEEG,001,102533,
AFNE01.JPG,AFNE01.JPG,AFNE01.JPG,AFNE01.JPG,AFNE01.JPG,AFNE01.JPG,,,,,5,1,51,3,,,,,,,,,,,,,,,,,,,AFSA14.jpg,AFSA06.jpg,AFNE17.jpg,AFNE02.jpg,AFNE17.jpg,FN,3,num_2,32,num_6,0.650135223728,,,2018_Jan_22_1637,60.0038876131,MAFE4ImagesEEG,001,102533,
AFNE01.JPG,AFNE01.JPG,AFNE01.JPG,AFNE01.JPG,AFNE01.JPG,AFNE01.JPG,,,,,5,2,52,2,,,,,,,,,,,,,,,,,,,AFNE13.jpg,AFSA15.jpg,AFNE01.jpg,AFSA13.jpg,AFNE13.jpg,FN,3,num_8,32,num_6,1.36682996578,,,2018_Jan_22_1637,60.0038876131,MAFE4ImagesEEG,001,102533,
AFNE01.JPG,AFNE01.JPG,AFNE01.JPG,AFNE01.JPG,AFNE01.JPG,AFNE01.JPG,,,,,5,3,53,0,,,,,,,,,,,,,,,,,,,AFSA15.jpg,AFNE03.jpg,AFSA20.jpg,AFNE14.jpg,AFNE14.jpg,FN,3,num_4,16,num_4,0.849883379156,,,2018_Jan_22_1637,60.0038876131,MAFE4ImagesEEG,001,102533,
AFNE01.JPG,AFNE01.JPG,AFNE01.JPG,AFNE01.JPG,AFNE01.JPG,AFNE01.JPG,,,,,5,4,54,9,,,,,,,,,,,,,,,,,,,AFSA17.jpg,AFNE19.jpg,AFNE17.jpg,AFSA18.jpg,AFNE17.jpg,FN,3,num_2,32,num_6,0.716743494442,,,2018_Jan_22_1637,60.0038876131,MAFE4ImagesEEG,001,102533,
AFNE01.JPG,AFNE01.JPG,AFNE01.JPG,AFNE01.JPG,AFNE01.JPG,AFNE01.JPG,,,,,5,5,55,1,,,,,,,,,,,,,,,,,,,AFNE17.jpg,AFSA20.jpg,AFSA17.jpg,AFNE07.jpg,AFNE07.jpg,FN,3,num_4,16,num_4,0.899987042128,,,2018_Jan_22_1637,60.0038876131,MAFE4ImagesEEG,001,102533,
AFNE01.JPG,AFNE01.JPG,AFNE01.JPG,AFNE01.JPG,AFNE01.JPG,AFNE01.JPG,,,,,5,6,56,8,,,,,,,,,,,,,,,,,,,AFSA04.jpg,AFSA18.jpg,AFNE04.jpg,AFNE01.jpg,AFNE04.jpg,FN,3,num_2,32,num_8,1.58341918458,,,2018_Jan_22_1637,60.0038876131,MAFE4ImagesEEG,001,102533,
AFNE01.JPG,AFNE01.JPG,AFNE01.JPG,AFNE01.JPG,AFNE01.JPG,AFNE01.JPG,,,,,5,7,57,6,,,,,,,,,,,,,,,,,,,AFSA16.jpg,AFNE20.jpg,AFSA05.jpg,AFNE04.jpg,AFNE04.jpg,FN,3,num_4,16,num_4,0.800104625192,,,2018_Jan_22_1637,60.0038876131,MAFE4ImagesEEG,001,102533,
AFNE01.JPG,AFNE01.JPG,AFNE01.JPG,AFNE01.JPG,AFNE01.JPG,AFNE01.JPG,,,,,5,8,58,4,,,,,,,,,,,,,,,,,,,AFSA09.jpg,AFSA04.jpg,AFNE17.jpg,AFNE06.jpg,AFSA04.jpg,FS,4,num_6,32,num_2,0.866871020426,,,2018_Jan_22_1637,60.0038876131,MAFE4ImagesEEG,001,102533,
AFNE01.JPG,AFNE01.JPG,AFNE01.JPG,AFNE01.JPG,AFNE01.JPG,AFNE01.JPG,,,,,5,9,59,5,,,,,,,,,,,,,,,,,,,AFNE07.jpg,AFSA13.jpg,AFNE13.jpg,AFSA14.jpg,AFSA14.jpg,FS,4,num_4,32,num_6,0.500135352024,,,2018_Jan_22_1637,60.0038876131,MAFE4ImagesEEG,001,102533,
,,,,,,,,,,,,,,,,,,,,,,,,,,,,,,,,,,,,,,,,,,,space,17.8154106298,2018_Jan_22_1637,60.0038876131,MAFE4ImagesEEG,001,102533,
AFNE01.JPG,AFNE01.JPG,AFNE01.JPG,AFNE01.JPG,AFNE01.JPG,AFNE01.JPG,,,,,,,,,0,0,0,7,,,,,,,,,,,,,,,AMSA08.jpg,AMSA07.jpg,AMNE16.jpg,AMNE18.jpg,AMSA08.jpg,MS,2,num_8,16,num_8,0.683461650471,,,2018_Jan_22_1637,60.0038876131,MAFE4ImagesEEG,001,102533,
AFNE01.JPG,AFNE01.JPG,AFNE01.JPG,AFNE01.JPG,AFNE01.JPG,AFNE01.JPG,,,,,,,,,0,1,1,2,,,,,,,,,,,,,,,AMSA10.jpg,AMSA04.jpg,AMNE01.jpg,AMNE18.jpg,AMNE18.jpg,MN,1,num_4,16,num_4,0.866763572729,,,2018_Jan_22_1637,60.0038876131,MAFE4ImagesEEG,001,102533,
AFNE01.JPG,AFNE01.JPG,AFNE01.JPG,AFNE01.JPG,AFNE01.JPG,AFNE01.JPG,,,,,,,,,0,2,2,5,,,,,,,,,,,,,,,AMSA06.jpg,AMSA07.jpg,AMNE18.jpg,AMNE03.jpg,AMNE18.jpg,MN,1,num_2,16,num_2,0.600165950564,,,2018_Jan_22_1637,60.0038876131,MAFE4ImagesEEG,001,102533,
AFNE01.JPG,AFNE01.JPG,AFNE01.JPG,AFNE01.JPG,AFNE01.JPG,AFNE01.JPG,,,,,,,,,0,3,3,3,,,,,,,,,,,,,,,AMNE06.jpg,AMSA12.jpg,AMSA09.jpg,AMNE14.jpg,AMSA09.jpg,MS,2,num_2,16,num_2,0.66679346564,,,2018_Jan_22_1637,60.0038876131,MAFE4ImagesEEG,001,102533,
AFNE01.JPG,AFNE01.JPG,AFNE01.JPG,AFNE01.JPG,AFNE01.JPG,AFNE01.JPG,,,,,,,,,0,4,4,1,,,,,,,,,,,,,,,AMSA10.jpg,AMNE13.jpg,AMNE10.jpg,AMSA04.jpg,AMNE10.jpg,MN,1,num_2,32,num_6,0.750119315053,,,2018_Jan_22_1637,60.0038876131,MAFE4ImagesEEG,001,102533,
AFNE01.JPG,AFNE01.JPG,AFNE01.JPG,AFNE01.JPG,AFNE01.JPG,AFNE01.JPG,,,,,,,,,0,5,5,0,,,,,,,,,,,,,,,AMNE20.jpg,AMSA17.jpg,AMSA20.jpg,AMNE03.jpg,AMSA17.jpg,MS,2,num_6,32,num_4,1.00010167439,,,2018_Jan_22_1637,60.0038876131,MAFE4ImagesEEG,001,102533,
AFNE01.JPG,AFNE01.JPG,AFNE01.JPG,AFNE01.JPG,AFNE01.JPG,AFNE01.JPG,,,,,,,,,0,6,6,8,,,,,,,,,,,,,,,AMSA05.jpg,AMNE08.jpg,AMNE13.jpg,AMSA12.jpg,AMSA05.jpg,MS,2,num_8,32,num_4,1.25007986411,,,2018_Jan_22_1637,60.0038876131,MAFE4ImagesEEG,001,102533,
AFNE01.JPG,AFNE01.JPG,AFNE01.JPG,AFNE01.JPG,AFNE01.JPG,AFNE01.JPG,,,,,,,,,0,7,7,4,,,,,,,,,,,,,,,AMSA14.jpg,AMNE20.jpg,AMSA09.jpg,AMNE06.jpg,AMNE20.jpg,MN,1,num_6,16,num_6,1.01679744281,,,2018_Jan_22_1637,60.0038876131,MAFE4ImagesEEG,001,102533,
AFNE01.JPG,AFNE01.JPG,AFNE01.JPG,AFNE01.JPG,AFNE01.JPG,AFNE01.JPG,,,,,,,,,0,8,8,9,,,,,,,,,,,,,,,AMNE16.jpg,AMNE09.jpg,AMSA04.jpg,AMSA08.jpg,AMSA04.jpg,MS,2,num_2,16,num_2,0.716800906794,,,2018_Jan_22_1637,60.0038876131,MAFE4ImagesEEG,001,102533,
AFNE01.JPG,AFNE01.JPG,AFNE01.JPG,AFNE01.JPG,AFNE01.JPG,AFNE01.JPG,,,,,,,,,0,9,9,6,,,,,,,,,,,,,,,AMSA13.jpg,AMNE04.jpg,AMSA09.jpg,AMNE11.jpg,AMSA09.jpg,MS,2,num_2,32,num_4,1.11672444252,,,2018_Jan_22_1637,60.0038876131,MAFE4ImagesEEG,001,102533,
AFNE01.JPG,AFNE01.JPG,AFNE01.JPG,AFNE01.JPG,AFNE01.JPG,AFNE01.JPG,,,,,,,,,1,0,10,2,,,,,,,,,,,,,,,AMNE13.jpg,AMNE16.jpg,AMSA18.jpg,AMSA19.jpg,AMNE16.jpg,MN,1,num_6,32,num_8,1.0334335537,,,2018_Jan_22_1637,60.0038876131,MAFE4ImagesEEG,001,102533,
AFNE01.JPG,AFNE01.JPG,AFNE01.JPG,AFNE01.JPG,AFNE01.JPG,AFNE01.JPG,,,,,,,,,1,1,11,1,,,,,,,,,,,,,,,AMNE01.jpg,AMSA20.jpg,AMSA07.jpg,AMNE19.jpg,AMNE01.jpg,MN,1,num_8,16,num_8,0.683462612695,,,2018_Jan_22_1637,60.0038876131,MAFE4ImagesEEG,001,102533,
AFNE01.JPG,AFNE01.JPG,AFNE01.JPG,AFNE01.JPG,AFNE01.JPG,AFNE01.JPG,,,,,,,,,1,2,12,9,,,,,,,,,,,,,,,AMSA01.jpg,AMNE20.jpg,AMNE17.jpg,AMSA09.jpg,AMSA01.jpg,MS,2,num_8,16,num_8,1.08342848602,,,2018_Jan_22_1637,60.0038876131,MAFE4ImagesEEG,001,102533,
AFNE01.JPG,AFNE01.JPG,AFNE01.JPG,AFNE01.JPG,AFNE01.JPG,AFNE01.JPG,,,,,,,,,1,3,13,3,,,,,,,,,,,,,,,AMNE05.jpg,AMNE06.jpg,AMSA10.jpg,AMSA18.jpg,AMNE05.jpg,MN,1,num_8,16,num_8,0.700173776604,,,2018_Jan_22_1637,60.0038876131,MAFE4ImagesEEG,001,102533,
AFNE01.JPG,AFNE01.JPG,AFNE01.JPG,AFNE01.JPG,AFNE01.JPG,AFNE01.JPG,,,,,,,,,1,4,14,8,,,,,,,,,,,,,,,AMSA07.jpg,AMNE07.jpg,AMNE15.jpg,AMSA20.jpg,AMNE07.jpg,MN,1,num_6,32,num_2,1.23344407395,,,2018_Jan_22_1637,60.0038876131,MAFE4ImagesEEG,001,102533,
AFNE01.JPG,AFNE01.JPG,AFNE01.JPG,AFNE01.JPG,AFNE01.JPG,AFNE01.JPG,,,,,,,,,1,5,15,5,,,,,,,,,,,,,,,AMNE10.jpg,AMNE09.jpg,AMSA02.jpg,AMSA20.jpg,AMNE10.jpg,MN,1,num_8,32,num_6,0.983691684767,,,2018_Jan_22_1637,60.0038876131,MAFE4ImagesEEG,001,102533,
AFNE01.JPG,AFNE01.JPG,AFNE01.JPG,AFNE01.JPG,AFNE01.JPG,AFNE01.JPG,,,,,,,,,1,6,16,7,,,,,,,,,,,,,,,AMSA13.jpg,AMSA08.jpg,AMNE19.jpg,AMNE04.jpg,AMNE04.jpg,MN,1,num_4,16,num_4,0.783774820418,,,2018_Jan_22_1637,60.0038876131,MAFE4ImagesEEG,001,102533,
AFNE01.JPG,AFNE01.JPG,AFNE01.JPG,AFNE01.JPG,AFNE01.JPG,AFNE01.JPG,,,,,,,,,1,7,17,0,,,,,,,,,,,,,,,AMNE03.jpg,AMSA08.jpg,AMNE16.jpg,AMSA18.jpg,AMSA08.jpg,MS,2,num_6,16,num_6,1.00012925798,,,2018_Jan_22_1637,60.0038876131,MAFE4ImagesEEG,001,102533,
AFNE01.JPG,AFNE01.JPG,AFNE01.JPG,AFNE01.JPG,AFNE01.JPG,AFNE01.JPG,,,,,,,,,1,8,18,6,,,,,,,,,,,,,,,AMSA16.jpg,AMSA06.jpg,AMNE03.jpg,AMNE10.jpg,AMSA16.jpg,MS,2,num_8,16,num_8,1.0834608807,,,2018_Jan_22_1637,60.0038876131,MAFE4ImagesEEG,001,102533,
AFNE01.JPG,AFNE01.JPG,AFNE01.JPG,AFNE01.JPG,AFNE01.JPG,AFNE01.JPG,,,,,,,,,1,9,19,4,,,,,,,,,,,,,,,AMNE12.jpg,AMNE16.jpg,AMSA08.jpg,AMSA10.jpg,AMSA10.jpg,MS,2,num_4,16,num_4,0.999945474301,,,2018_Jan_22_1637,60.0038876131,MAFE4ImagesEEG,001,102533,
AFNE01.JPG,AFNE01.JPG,AFNE01.JPG,AFNE01.JPG,AFNE01.JPG,AFNE01.JPG,,,,,,,,,2,0,20,0,,,,,,,,,,,,,,,AMNE08.jpg,AMNE12.jpg,AMSA16.jpg,AMSA11.jpg,AMNE12.jpg,MN,1,num_6,16,num_6,0.8167311139,,,2018_Jan_22_1637,60.0038876131,MAFE4ImagesEEG,001,102533,
AFNE01.JPG,AFNE01.JPG,AFNE01.JPG,AFNE01.JPG,AFNE01.JPG,AFNE01.JPG,,,,,,,,,2,1,21,2,,,,,,,,,,,,,,,AMNE14.jpg,AMSA18.jpg,AMNE18.jpg,AMSA08.jpg,AMSA18.jpg,MS,2,num_6,16,num_6,0.850117839655,,,2018_Jan_22_1637,60.0038876131,MAFE4ImagesEEG,001,102533,
AFNE01.JPG,AFNE01.JPG,AFNE01.JPG,AFNE01.JPG,AFNE01.JPG,AFNE01.JPG,,,,,,,,,2,2,22,9,,,,,,,,,,,,,,,AMNE01.jpg,AMSA20.jpg,AMSA16.jpg,AMNE13.jpg,AMNE01.jpg,MN,1,num_8,16,num_8,1.01674804894,,,2018_Jan_22_1637,60.0038876131,MAFE4ImagesEEG,001,102533,
AFNE01.JPG,AFNE01.JPG,AFNE01.JPG,AFNE01.JPG,AFNE01.JPG,AFNE01.JPG,,,,,,,,,2,3,23,3,,,,,,,,,,,,,,,AMNE15.jpg,AMNE03.jpg,AMSA13.jpg,AMSA14.jpg,AMNE03.jpg,MN,1,num_6,32,num_4,0.616829003564,,,2018_Jan_22_1637,60.0038876131,MAFE4ImagesEEG,001,102533,
AFNE01.JPG,AFNE01.JPG,AFNE01.JPG,AFNE01.JPG,AFNE01.JPG,AFNE01.JPG,,,,,,,,,2,4,24,6,,,,,,,,,,,,,,,AMSA17.jpg,AMNE07.jpg,AMNE20.jpg,AMSA05.jpg,AMSA05.jpg,MS,2,num_4,32,num_6,0.866763893468,,,2018_Jan_22_1637,60.0038876131,MAFE4ImagesEEG,001,102533,
AFNE01.JPG,AFNE01.JPG,AFNE01.JPG,AFNE01.JPG,AFNE01.JPG,AFNE01.JPG,,,,,,,,,2,5,25,5,,,,,,,,,,,,,,,AMNE08.jpg,AMSA16.jpg,AMSA13.jpg,AMNE01.jpg,AMNE08.jpg,MN,1,num_8,32,num_2,1.75014401199,,,2018_Jan_22_1637,60.0038876131,MAFE4ImagesEEG,001,102533,
AFNE01.JPG,AFNE01.JPG,AFNE01.JPG,AFNE01.JPG,AFNE01.JPG,AFNE01.JPG,,,,,,,,,2,6,26,8,,,,,,,,,,,,,,,AMSA04.jpg,AMNE13.jpg,AMNE01.jpg,AMSA10.jpg,AMSA10.jpg,MS,2,num_4,16,num_4,1.31672790651,,,2018_Jan_22_1637,60.0038876131,MAFE4ImagesEEG,001,102533,
AFNE01.JPG,AFNE01.JPG,AFNE01.JPG,AFNE01.JPG,AFNE01.JPG,AFNE01.JPG,,,,,,,,,2,7,27,1,,,,,,,,,,,,,,,AMNE06.jpg,AMSA10.jpg,AMNE18.jpg,AMSA06.jpg,AMSA06.jpg,MS,2,num_4,32,num_2,1.76668839142,,,2018_Jan_22_1637,60.0038876131,MAFE4ImagesEEG,001,102533,
AFNE01.JPG,AFNE01.JPG,AFNE01.JPG,AFNE01.JPG,AFNE01.JPG,AFNE01.JPG,,,,,,,,,2,8,28,7,,,,,,,,,,,,,,,AMNE19.jpg,AMSA18.jpg,AMNE18.jpg,AMSA06.jpg,AMSA18.jpg,MS,2,num_6,16,num_6,0.883316612122,,,2018_Jan_22_1637,60.0038876131,MAFE4ImagesEEG,001,102533,
AFNE01.JPG,AFNE01.JPG,AFNE01.JPG,AFNE01.JPG,AFNE01.JPG,AFNE01.JPG,,,,,,,,,2,9,29,4,,,,,,,,,,,,,,,AMNE12.jpg,AMSA19.jpg,AMSA01.jpg,AMNE04.jpg,AMSA01.jpg,MS,2,num_2,16,num_2,0.950119571648,,,2018_Jan_22_1637,60.0038876131,MAFE4ImagesEEG,001,102533,
AFNE01.JPG,AFNE01.JPG,AFNE01.JPG,AFNE01.JPG,AFNE01.JPG,AFNE01.JPG,,,,,,,,,3,0,30,9,,,,,,,,,,,,,,,AMNE01.jpg,AMNE18.jpg,AMSA09.jpg,AMSA16.jpg,AMSA16.jpg,MS,2,num_4,16,num_4,1.38341026802,,,2018_Jan_22_1637,60.0038876131,MAFE4ImagesEEG,001,102533,
AFNE01.JPG,AFNE01.JPG,AFNE01.JPG,AFNE01.JPG,AFNE01.JPG,AFNE01.JPG,,,,,,,,,3,1,31,5,,,,,,,,,,,,,,,AMNE08.jpg,AMNE17.jpg,AMSA18.jpg,AMSA06.jpg,AMSA18.jpg,MS,2,num_2,16,num_2,0.850106934511,,,2018_Jan_22_1637,60.0038876131,MAFE4ImagesEEG,001,102533,
AFNE01.JPG,AFNE01.JPG,AFNE01.JPG,AFNE01.JPG,AFNE01.JPG,AFNE01.JPG,,,,,,,,,3,2,32,8,,,,,,,,,,,,,,,AMSA15.jpg,AMNE03.jpg,AMNE07.jpg,AMSA13.jpg,AMSA15.jpg,MS,2,num_8,16,num_8,0.950151966324,,,2018_Jan_22_1637,60.0038876131,MAFE4ImagesEEG,001,102533,
AFNE01.JPG,AFNE01.JPG,AFNE01.JPG,AFNE01.JPG,AFNE01.JPG,AFNE01.JPG,,,,,,,,,3,3,33,3,,,,,,,,,,,,,,,AMNE19.jpg,AMSA07.jpg,AMNE15.jpg,AMSA12.jpg,AMSA07.jpg,MS,2,num_6,16,num_6,1.33342720306,,,2018_Jan_22_1637,60.0038876131,MAFE4ImagesEEG,001,102533,
AFNE01.JPG,AFNE01.JPG,AFNE01.JPG,AFNE01.JPG,AFNE01.JPG,AFNE01.JPG,,,,,,,,,3,4,34,1,,,,,,,,,,,,,,,AMSA14.jpg,AMSA16.jpg,AMNE19.jpg,AMNE20.jpg,AMNE19.jpg,MN,1,num_2,16,num_2,0.900107319401,,,2018_Jan_22_1637,60.0038876131,MAFE4ImagesEEG,001,102533,
AFNE01.JPG,AFNE01.JPG,AFNE01.JPG,AFNE01.JPG,AFNE01.JPG,AFNE01.JPG,,,,,,,,,3,5,35,0,,,,,,,,,,,,,,,AMSA02.jpg,AMNE16.jpg,AMNE13.jpg,AMSA19.jpg,AMSA19.jpg,MS,2,num_4,32,num_6,1.36674849798,,,2018_Jan_22_1637,60.0038876131,MAFE4ImagesEEG,001,102533,
AFNE01.JPG,AFNE01.JPG,AFNE01.JPG,AFNE01.JPG,AFNE01.JPG,AFNE01.JPG,,,,,,,,,3,6,36,6,,,,,,,,,,,,,,,AMSA18.jpg,AMSA07.jpg,AMNE08.jpg,AMNE11.jpg,AMNE11.jpg,MN,1,num_4,32,num_2,1.36676517643,,,2018_Jan_22_1637,60.0038876131,MAFE4ImagesEEG,001,102533,
AFNE01.JPG,AFNE01.JPG,AFNE01.JPG,AFNE01.JPG,AFNE01.JPG,AFNE01.JPG,,,,,,,,,3,7,37,7,,,,,,,,,,,,,,,AMNE15.jpg,AMNE13.jpg,AMSA04.jpg,AMSA08.jpg,AMSA04.jpg,MS,2,num_2,32,num_8,1.01678461323,,,2018_Jan_22_1637,60.0038876131,MAFE4ImagesEEG,001,102533,
AFNE01.JPG,AFNE01.JPG,AFNE01.JPG,AFNE01.JPG,AFNE01.JPG,AFNE01.JPG,,,,,,,,,3,8,38,2,,,,,,,,,,,,,,,AMSA09.jpg,AMNE16.jpg,AMSA12.jpg,AMNE14.jpg,AMNE14.jpg,MN,1,num_4,16,num_4,0.816743301999,,,2018_Jan_22_1637,60.0038876131,MAFE4ImagesEEG,001,102533,
AFNE01.JPG,AFNE01.JPG,AFNE01.JPG,AFNE01.JPG,AFNE01.JPG,AFNE01.JPG,,,,,,,,,3,9,39,4,,,,,,,,,,,,,,,AMSA13.jpg,AMNE14.jpg,AMSA03.jpg,AMNE02.jpg,AMNE02.jpg,MN,1,num_4,16,num_4,1.36684985163,,,2018_Jan_22_1637,60.0038876131,MAFE4ImagesEEG,001,102533,
AFNE01.JPG,AFNE01.JPG,AFNE01.JPG,AFNE01.JPG,AFNE01.JPG,AFNE01.JPG,,,,,,,,,4,0,40,4,,,,,,,,,,,,,,,AMNE16.jpg,AMSA20.jpg,AMSA05.jpg,AMNE17.jpg,AMNE17.jpg,MN,1,num_4,32,num_8,0.683450424596,,,2018_Jan_22_1637,60.0038876131,MAFE4ImagesEEG,001,102533,
AFNE01.JPG,AFNE01.JPG,AFNE01.JPG,AFNE01.JPG,AFNE01.JPG,AFNE01.JPG,,,,,,,,,4,1,41,9,,,,,,,,,,,,,,,AMNE12.jpg,AMSA06.jpg,AMSA01.jpg,AMNE13.jpg,AMNE13.jpg,MN,1,num_4,32,num_8,1.15012335637,,,2018_Jan_22_1637,60.0038876131,MAFE4ImagesEEG,001,102533,
AFNE01.JPG,AFNE01.JPG,AFNE01.JPG,AFNE01.JPG,AFNE01.JPG,AFNE01.JPG,,,,,,,,,4,2,42,5,,,,,,,,,,,,,,,AMNE05.jpg,AMSA06.jpg,AMNE02.jpg,AMSA13.jpg,AMSA13.jpg,MS,2,num_4,32,num_8,1.45004868824,,,2018_Jan_22_1637,60.0038876131,MAFE4ImagesEEG,001,102533,
AFNE01.JPG,AFNE01.JPG,AFNE01.JPG,AFNE01.JPG,AFNE01.JPG,AFNE01.JPG,,,,,,,,,4,3,43,0,,,,,,,,,,,,,,,AMSA12.jpg,AMNE10.jpg,AMSA10.jpg,AMNE01.jpg,AMSA10.jpg,MS,2,num_2,32,num_6,0.700041631975,,,2018_Jan_22_1637,60.0038876131,MAFE4ImagesEEG,001,102533,
AFNE01.JPG,AFNE01.JPG,AFNE01.JPG,AFNE01.JPG,AFNE01.JPG,AFNE01.JPG,,,,,,,,,4,4,44,3,,,,,,,,,,,,,,,AMNE18.jpg,AMNE14.jpg,AMSA13.jpg,AMSA14.jpg,AMSA13.jpg,MS,2,num_2,16,num_2,1.01674420007,,,2018_Jan_22_1637,60.0038876131,MAFE4ImagesEEG,001,102533,
AFNE01.JPG,AFNE01.JPG,AFNE01.JPG,AFNE01.JPG,AFNE01.JPG,AFNE01.JPG,,,,,,,,,4,5,45,7,,,,,,,,,,,,,,,AMSA20.jpg,AMSA14.jpg,AMNE06.jpg,AMNE12.jpg,AMNE12.jpg,MN,1,num_4,16,num_4,1.21671366568,,,2018_Jan_22_1637,60.0038876131,MAFE4ImagesEEG,001,102533,
AFNE01.JPG,AFNE01.JPG,AFNE01.JPG,AFNE01.JPG,AFNE01.JPG,AFNE01.JPG,,,,,,,,,4,6,46,8,,,,,,,,,,,,,,,AMSA10.jpg,AMSA16.jpg,AMNE05.jpg,AMNE10.jpg,AMNE10.jpg,MN,1,num_4,32,num_6,0.73347967603,,,2018_Jan_22_1637,60.0038876131,MAFE4ImagesEEG,001,102533,
AFNE01.JPG,AFNE01.JPG,AFNE01.JPG,AFNE01.JPG,AFNE01.JPG,AFNE01.JPG,,,,,,,,,4,7,47,2,,,,,,,,,,,,,,,AMSA14.jpg,AMNE16.jpg,AMNE12.jpg,AMSA08.jpg,AMNE16.jpg,MN,1,num_6,16,num_6,0.800397780997,,,2018_Jan_22_1637,60.0038876131,MAFE4ImagesEEG,001,102533,
AFNE01.JPG,AFNE01.JPG,AFNE01.JPG,AFNE01.JPG,AFNE01.JPG,AFNE01.JPG,,,,,,,,,4,8,48,1,,,,,,,,,,,,,,,AMSA12.jpg,AMSA14.jpg,AMNE07.jpg,AMNE08.jpg,AMNE08.jpg,MN,1,num_4,32,num_2,1.23344086656,,,2018_Jan_22_1637,60.0038876131,MAFE4ImagesEEG,001,102533,
AFNE01.JPG,AFNE01.JPG,AFNE01.JPG,AFNE01.JPG,AFNE01.JPG,AFNE01.JPG,,,,,,,,,4,9,49,6,,,,,,,,,,,,,,,AMSA09.jpg,AMNE02.jpg,AMNE11.jpg,AMSA02.jpg,AMNE11.jpg,MN,1,num_2,16,num_2,0.583435221546,,,2018_Jan_22_1637,60.0038876131,MAFE4ImagesEEG,001,102533,
AFNE01.JPG,AFNE01.JPG,AFNE01.JPG,AFNE01.JPG,AFNE01.JPG,AFNE01.JPG,,,,,,,,,5,0,50,5,,,,,,,,,,,,,,,AMNE03.jpg,AMSA16.jpg,AMNE19.jpg,AMSA03.jpg,AMNE19.jpg,MN,1,num_2,16,num_2,0.683505591769,,,2018_Jan_22_1637,60.0038876131,MAFE4ImagesEEG,001,102533,
AFNE01.JPG,AFNE01.JPG,AFNE01.JPG,AFNE01.JPG,AFNE01.JPG,AFNE01.JPG,,,,,,,,,5,1,51,3,,,,,,,,,,,,,,,AMNE02.jpg,AMSA16.jpg,AMNE16.jpg,AMSA13.jpg,AMSA13.jpg,MS,2,num_4,16,num_4,1.0334986638,,,2018_Jan_22_1637,60.0038876131,MAFE4ImagesEEG,001,102533,
AFNE01.JPG,AFNE01.JPG,AFNE01.JPG,AFNE01.JPG,AFNE01.JPG,AFNE01.JPG,,,,,,,,,5,2,52,1,,,,,,,,,,,,,,,AMNE07.jpg,AMNE14.jpg,AMSA01.jpg,AMSA06.jpg,AMNE07.jpg,MN,1,num_8,32,num_6,0.866759403118,,,2018_Jan_22_1637,60.0038876131,MAFE4ImagesEEG,001,102533,
AFNE01.JPG,AFNE01.JPG,AFNE01.JPG,AFNE01.JPG,AFNE01.JPG,AFNE01.JPG,,,,,,,,,5,3,53,4,,,,,,,,,,,,,,,AMNE04.jpg,AMSA12.jpg,AMSA02.jpg,AMNE11.jpg,AMNE11.jpg,MN,1,num_4,32,num_8,0.600169478694,,,2018_Jan_22_1637,60.0038876131,MAFE4ImagesEEG,001,102533,
AFNE01.JPG,AFNE01.JPG,AFNE01.JPG,AFNE01.JPG,AFNE01.JPG,AFNE01.JPG,,,,,,,,,5,4,54,2,,,,,,,,,,,,,,,AMNE08.jpg,AMNE06.jpg,AMSA12.jpg,AMSA17.jpg,AMNE08.jpg,MN,1,num_8,32,num_6,0.683509440645,,,2018_Jan_22_1637,60.0038876131,MAFE4ImagesEEG,001,102533,
AFNE01.JPG,AFNE01.JPG,AFNE01.JPG,AFNE01.JPG,AFNE01.JPG,AFNE01.JPG,,,,,,,,,5,5,55,8,,,,,,,,,,,,,,,AMNE12.jpg,AMSA12.jpg,AMSA01.jpg,AMNE01.jpg,AMNE12.jpg,MN,1,num_8,32,num_6,0.98344599839,,,2018_Jan_22_1637,60.0038876131,MAFE4ImagesEEG,001,102533,
AFNE01.JPG,AFNE01.JPG,AFNE01.JPG,AFNE01.JPG,AFNE01.JPG,AFNE01.JPG,,,,,,,,,5,6,56,0,,,,,,,,,,,,,,,AMSA17.jpg,AMNE16.jpg,AMNE11.jpg,AMSA12.jpg,AMNE16.jpg,MN,1,num_6,32,num_2,0.650161203619,,,2018_Jan_22_1637,60.0038876131,MAFE4ImagesEEG,001,102533,
AFNE01.JPG,AFNE01.JPG,AFNE01.JPG,AFNE01.JPG,AFNE01.JPG,AFNE01.JPG,,,,,,,,,5,7,57,7,,,,,,,,,,,,,,,AMNE15.jpg,AMNE04.jpg,AMSA04.jpg,AMSA03.jpg,AMSA04.jpg,MS,2,num_2,32,num_4,0.750057091613,,,2018_Jan_22_1637,60.0038876131,MAFE4ImagesEEG,001,102533,
AFNE01.JPG,AFNE01.JPG,AFNE01.JPG,AFNE01.JPG,AFNE01.JPG,AFNE01.JPG,,,,,,,,,5,8,58,6,,,,,,,,,,,,,,,AMSA09.jpg,AMNE06.jpg,AMSA20.jpg,AMNE09.jpg,AMNE06.jpg,MN,1,num_6,16,num_6,0.633503603185,,,2018_Jan_22_1637,60.0038876131,MAFE4ImagesEEG,001,102533,
AFNE01.JPG,AFNE01.JPG,AFNE01.JPG,AFNE01.JPG,AFNE01.JPG,AFNE01.JPG,,,,,,,,,5,9,59,9,,,,,,,,,,,,,,,AMNE18.jpg,AMSA01.jpg,AMNE02.jpg,AMSA08.jpg,AMNE18.jpg,MN,1,num_8,16,num_8,1.00012027727,,,2018_Jan_22_1637,60.0038876131,MAFE4ImagesEEG,001,102533,
,,,,,,,,,,,,,,,,,,,,,,,,,,,,,,,,,,,,,,,,,,,space,25.7484444139,2018_Jan_22_1637,60.0038876131,MAFE4ImagesEEG,001,102533,
AFNE01.JPG,AFNE01.JPG,AFNE01.JPG,AFNE01.JPG,AFNE01.JPG,AFNE01.JPG,,,,,,,,,,,,,0,0,0,1,,,,,,,,,,,AFNE15.jpg,AFSA18.jpg,AFNE10.jpg,AFSA09.jpg,AFSA09.jpg,FS,4,num_4,32,num_2,0.950115081294,,,2018_Jan_22_1637,60.0038876131,MAFE4ImagesEEG,001,102533,
AFNE01.JPG,AFNE01.JPG,AFNE01.JPG,AFNE01.JPG,AFNE01.JPG,AFNE01.JPG,,,,,,,,,,,,,0,1,1,7,,,,,,,,,,,AFSA01.jpg,AFSA16.jpg,AFNE10.jpg,AFNE01.jpg,AFNE10.jpg,FN,3,num_2,32,num_6,1.16673605329,,,2018_Jan_22_1637,60.0038876131,MAFE4ImagesEEG,001,102533,
AFNE01.JPG,AFNE01.JPG,AFNE01.JPG,AFNE01.JPG,AFNE01.JPG,AFNE01.JPG,,,,,,,,,,,,,0,2,2,3,,,,,,,,,,,AFNE16.jpg,AFSA17.jpg,AFNE08.jpg,AFSA19.jpg,AFNE16.jpg,FN,3,num_8,32,num_6,1.13347634034,,,2018_Jan_22_1637,60.0038876131,MAFE4ImagesEEG,001,102533,
AFNE01.JPG,AFNE01.JPG,AFNE01.JPG,AFNE01.JPG,AFNE01.JPG,AFNE01.JPG,,,,,,,,,,,,,0,3,3,0,,,,,,,,,,,AFSA12.jpg,AFSA11.jpg,AFNE14.jpg,AFNE07.jpg,AFSA12.jpg,FS,4,num_8,16,num_8,2.21666459255,,,2018_Jan_22_1637,60.0038876131,MAFE4ImagesEEG,001,102533,
AFNE01.JPG,AFNE01.JPG,AFNE01.JPG,AFNE01.JPG,AFNE01.JPG,AFNE01.JPG,,,,,,,,,,,,,0,4,4,2,,,,,,,,,,,AFNE11.jpg,AFSA11.jpg,AFSA20.jpg,AFNE20.jpg,AFSA11.jpg,FS,4,num_6,16,num_6,0.783438364793,,,2018_Jan_22_1637,60.0038876131,MAFE4ImagesEEG,001,102533,
AFNE01.JPG,AFNE01.JPG,AFNE01.JPG,AFNE01.JPG,AFNE01.JPG,AFNE01.JPG,,,,,,,,,,,,,0,5,5,9,,,,,,,,,,,AFNE03.jpg,AFSA03.jpg,AFSA16.jpg,AFNE12.jpg,AFSA16.jpg,FS,4,num_2,16,num_2,0.616845361274,,,2018_Jan_22_1637,60.0038876131,MAFE4ImagesEEG,001,102533,
AFNE01.JPG,AFNE01.JPG,AFNE01.JPG,AFNE01.JPG,AFNE01.JPG,AFNE01.JPG,,,,,,,,,,,,,0,6,6,4,,,,,,,,,,,AFNE09.jpg,AFSA01.jpg,AFNE13.jpg,AFSA03.jpg,AFSA01.jpg,FS,4,num_6,32,num_8,1.06672886873,,,2018_Jan_22_1637,60.0038876131,MAFE4ImagesEEG,001,102533,
AFNE01.JPG,AFNE01.JPG,AFNE01.JPG,AFNE01.JPG,AFNE01.JPG,AFNE01.JPG,,,,,,,,,,,,,0,7,7,8,,,,,,,,,,,AFNE09.jpg,AFNE02.jpg,AFSA18.jpg,AFSA16.jpg,AFSA16.jpg,FS,4,num_4,32,num_6,0.700099685804,,,2018_Jan_22_1637,60.0038876131,MAFE4ImagesEEG,001,102533,
AFNE01.JPG,AFNE01.JPG,AFNE01.JPG,AFNE01.JPG,AFNE01.JPG,AFNE01.JPG,,,,,,,,,,,,,0,8,8,5,,,,,,,,,,,AFNE04.jpg,AFSA18.jpg,AFNE15.jpg,AFSA07.jpg,AFNE04.jpg,FN,3,num_8,16,num_8,0.933443689068,,,2018_Jan_22_1637,60.0038876131,MAFE4ImagesEEG,001,102533,
AFNE01.JPG,AFNE01.JPG,AFNE01.JPG,AFNE01.JPG,AFNE01.JPG,AFNE01.JPG,,,,,,,,,,,,,0,9,9,6,,,,,,,,,,,AFNE05.jpg,AFNE16.jpg,AFSA12.jpg,AFSA13.jpg,AFNE05.jpg,FN,3,num_8,32,num_6,1.06674394348,,,2018_Jan_22_1637,60.0038876131,MAFE4ImagesEEG,001,102533,
AFNE01.JPG,AFNE01.JPG,AFNE01.JPG,AFNE01.JPG,AFNE01.JPG,AFNE01.JPG,,,,,,,,,,,,,1,0,10,4,,,,,,,,,,,AFNE05.jpg,AFSA12.jpg,AFSA17.jpg,AFNE11.jpg,AFSA12.jpg,FS,4,num_6,16,num_6,0.816777621116,,,2018_Jan_22_1637,60.0038876131,MAFE4ImagesEEG,001,102533,
AFNE01.JPG,AFNE01.JPG,AFNE01.JPG,AFNE01.JPG,AFNE01.JPG,AFNE01.JPG,,,,,,,,,,,,,1,1,11,3,,,,,,,,,,,AFSA13.jpg,AFSA17.jpg,AFNE13.jpg,AFNE11.jpg,AFSA17.jpg,FS,4,num_6,32,num_8,0.900103149786,,,2018_Jan_22_1637,60.0038876131,MAFE4ImagesEEG,001,102533,
AFNE01.JPG,AFNE01.JPG,AFNE01.JPG,AFNE01.JPG,AFNE01.JPG,AFNE01.JPG,,,,,,,,,,,,,1,2,12,8,,,,,,,,,,,AFNE16.jpg,AFNE10.jpg,AFSA18.jpg,AFSA01.jpg,AFSA01.jpg,FS,4,num_4,32,num_2,0.850164346866,,,2018_Jan_22_1637,60.0038876131,MAFE4ImagesEEG,001,102533,
AFNE01.JPG,AFNE01.JPG,AFNE01.JPG,AFNE01.JPG,AFNE01.JPG,AFNE01.JPG,,,,,,,,,,,,,1,3,13,7,,,,,,,,,,,AFSA06.jpg,AFNE03.jpg,AFNE17.jpg,AFSA13.jpg,AFNE17.jpg,FN,3,num_2,32,num_8,0.96681373637,,,2018_Jan_22_1637,60.0038876131,MAFE4ImagesEEG,001,102533,
AFNE01.JPG,AFNE01.JPG,AFNE01.JPG,AFNE01.JPG,AFNE01.JPG,AFNE01.JPG,,,,,,,,,,,,,1,4,14,9,,,,,,,,,,,AFNE01.jpg,AFSA11.jpg,AFSA17.jpg,AFNE07.jpg,AFNE01.jpg,FN,3,num_8,32,num_4,1.80004592988,,,2018_Jan_22_1637,60.0038876131,MAFE4ImagesEEG,001,102533,
AFNE01.JPG,AFNE01.JPG,AFNE01.JPG,AFNE01.JPG,AFNE01.JPG,AFNE01.JPG,,,,,,,,,,,,,1,5,15,5,,,,,,,,,,,AFSA04.jpg,AFNE02.jpg,AFSA20.jpg,AFNE07.jpg,AFSA20.jpg,FS,4,num_2,16,num_2,0.666807257436,,,2018_Jan_22_1637,60.0038876131,MAFE4ImagesEEG,001,102533,
AFNE01.JPG,AFNE01.JPG,AFNE01.JPG,AFNE01.JPG,AFNE01.JPG,AFNE01.JPG,,,,,,,,,,,,,1,6,16,2,,,,,,,,,,,AFSA09.jpg,AFNE10.jpg,AFNE19.jpg,AFSA17.jpg,AFSA09.jpg,FS,4,num_8,16,num_8,2.09999018538,,,2018_Jan_22_1637,60.0038876131,MAFE4ImagesEEG,001,102533,
AFNE01.JPG,AFNE01.JPG,AFNE01.JPG,AFNE01.JPG,AFNE01.JPG,AFNE01.JPG,,,,,,,,,,,,,1,7,17,6,,,,,,,,,,,AFNE20.jpg,AFSA02.jpg,AFSA08.jpg,AFNE04.jpg,AFSA02.jpg,FS,4,num_6,16,num_6,1.06673784943,,,2018_Jan_22_1637,60.0038876131,MAFE4ImagesEEG,001,102533,
AFNE01.JPG,AFNE01.JPG,AFNE01.JPG,AFNE01.JPG,AFNE01.JPG,AFNE01.JPG,,,,,,,,,,,,,1,8,18,0,,,,,,,,,,,AFNE11.jpg,AFSA06.jpg,AFSA19.jpg,AFNE09.jpg,AFSA19.jpg,FS,4,num_2,16,num_2,0.800173263422,,,2018_Jan_22_1637,60.0038876131,MAFE4ImagesEEG,001,102533,
AFNE01.JPG,AFNE01.JPG,AFNE01.JPG,AFNE01.JPG,AFNE01.JPG,AFNE01.JPG,,,,,,,,,,,,,1,9,19,1,,,,,,,,,,,AFSA03.jpg,AFNE09.jpg,AFSA06.jpg,AFNE03.jpg,AFSA03.jpg,FS,4,num_8,32,num_6,1.51669384399,,,2018_Jan_22_1637,60.0038876131,MAFE4ImagesEEG,001,102533,
AFNE01.JPG,AFNE01.JPG,AFNE01.JPG,AFNE01.JPG,AFNE01.JPG,AFNE01.JPG,,,,,,,,,,,,,2,0,20,3,,,,,,,,,,,AFSA01.jpg,AFSA05.jpg,AFNE10.jpg,AFNE17.jpg,AFSA05.jpg,FS,4,num_6,32,num_8,1.03340372494,,,2018_Jan_22_1637,60.0038876131,MAFE4ImagesEEG,001,102533,
AFNE01.JPG,AFNE01.JPG,AFNE01.JPG,AFNE01.JPG,AFNE01.JPG,AFNE01.JPG,,,,,,,,,,,,,2,1,21,9,,,,,,,,,,,AFSA09.jpg,AFNE06.jpg,AFSA03.jpg,AFNE16.jpg,AFSA09.jpg,FS,4,num_8,32,num_2,1.58341244905,,,2018_Jan_22_1637,60.0038876131,MAFE4ImagesEEG,001,102533,
AFNE01.JPG,AFNE01.JPG,AFNE01.JPG,AFNE01.JPG,AFNE01.JPG,AFNE01.JPG,,,,,,,,,,,,,2,2,22,8,,,,,,,,,,,AFNE17.jpg,AFSA13.jpg,AFSA05.jpg,AFNE03.jpg,AFSA13.jpg,FS,4,num_6,16,num_6,1.01677434957,,,2018_Jan_22_1637,60.0038876131,MAFE4ImagesEEG,001,102533,
AFNE01.JPG,AFNE01.JPG,AFNE01.JPG,AFNE01.JPG,AFNE01.JPG,AFNE01.JPG,,,,,,,,,,,,,2,3,23,5,,,,,,,,,,,AFSA10.jpg,AFSA11.jpg,AFNE16.jpg,AFNE09.jpg,AFNE16.jpg,FN,3,num_2,32,num_8,0.98346780867,,,2018_Jan_22_1637,60.0038876131,MAFE4ImagesEEG,001,102533,
AFNE01.JPG,AFNE01.JPG,AFNE01.JPG,AFNE01.JPG,AFNE01.JPG,AFNE01.JPG,,,,,,,,,,,,,2,4,24,1,,,,,,,,,,,AFSA10.jpg,AFSA20.jpg,AFNE10.jpg,AFNE15.jpg,AFNE15.jpg,FN,3,num_4,16,num_4,0.733471978281,,,2018_Jan_22_1637,60.0038876131,MAFE4ImagesEEG,001,102533,
AFNE01.JPG,AFNE01.JPG,AFNE01.JPG,AFNE01.JPG,AFNE01.JPG,AFNE01.JPG,,,,,,,,,,,,,2,5,25,4,,,,,,,,,,,AFNE20.jpg,AFSA06.jpg,AFSA15.jpg,AFNE18.jpg,AFSA06.jpg,FS,4,num_6,16,num_6,1.13340962655,,,2018_Jan_22_1637,60.0038876131,MAFE4ImagesEEG,001,102533,
AFNE01.JPG,AFNE01.JPG,AFNE01.JPG,AFNE01.JPG,AFNE01.JPG,AFNE01.JPG,,,,,,,,,,,,,2,6,26,2,,,,,,,,,,,AFNE04.jpg,AFNE01.jpg,AFSA09.jpg,AFSA20.jpg,AFSA20.jpg,FS,4,num_4,16,num_4,1.3834093058,,,2018_Jan_22_1637,60.0038876131,MAFE4ImagesEEG,001,102533,
AFNE01.JPG,AFNE01.JPG,AFNE01.JPG,AFNE01.JPG,AFNE01.JPG,AFNE01.JPG,,,,,,,,,,,,,2,7,27,0,,,,,,,,,,,AFNE12.jpg,AFNE15.jpg,AFSA16.jpg,AFSA09.jpg,AFNE12.jpg,FN,3,num_8,32,num_6,1.26669159881,,,2018_Jan_22_1637,60.0038876131,MAFE4ImagesEEG,001,102533,
AFNE01.JPG,AFNE01.JPG,AFNE01.JPG,AFNE01.JPG,AFNE01.JPG,AFNE01.JPG,,,,,,,,,,,,,2,8,28,6,,,,,,,,,,,AFNE10.jpg,AFSA14.jpg,AFNE02.jpg,AFSA18.jpg,AFNE10.jpg,FN,3,num_8,32,num_6,0.816751320483,,,2018_Jan_22_1637,60.0038876131,MAFE4ImagesEEG,001,102533,
AFNE01.JPG,AFNE01.JPG,AFNE01.JPG,AFNE01.JPG,AFNE01.JPG,AFNE01.JPG,,,,,,,,,,,,,2,9,29,7,,,,,,,,,,,AFSA10.jpg,AFSA11.jpg,AFNE01.jpg,AFNE16.jpg,AFSA11.jpg,FS,4,num_6,16,num_6,0.866655483551,,,2018_Jan_22_1637,60.0038876131,MAFE4ImagesEEG,001,102533,
AFNE01.JPG,AFNE01.JPG,AFNE01.JPG,AFNE01.JPG,AFNE01.JPG,AFNE01.JPG,,,,,,,,,,,,,3,0,30,6,,,,,,,,,,,AFSA14.jpg,AFNE14.jpg,AFNE17.jpg,AFSA02.jpg,AFNE14.jpg,FN,3,num_6,32,num_8,0.883472491463,,,2018_Jan_22_1637,60.0038876131,MAFE4ImagesEEG,001,102533,
AFNE01.JPG,AFNE01.JPG,AFNE01.JPG,AFNE01.JPG,AFNE01.JPG,AFNE01.JPG,,,,,,,,,,,,,3,1,31,4,,,,,,,,,,,AFSA03.jpg,AFNE09.jpg,AFNE01.jpg,AFSA06.jpg,AFNE01.jpg,FN,3,num_2,16,num_2,0.800129642863,,,2018_Jan_22_1637,60.0038876131,MAFE4ImagesEEG,001,102533,
AFNE01.JPG,AFNE01.JPG,AFNE01.JPG,AFNE01.JPG,AFNE01.JPG,AFNE01.JPG,,,,,,,,,,,,,3,2,32,2,,,,,,,,,,,AFNE09.jpg,AFSA09.jpg,AFSA17.jpg,AFNE08.jpg,AFNE09.jpg,FN,3,num_8,16,num_8,1.15008935799,,,2018_Jan_22_1637,60.0038876131,MAFE4ImagesEEG,001,102533,
AFNE01.JPG,AFNE01.JPG,AFNE01.JPG,AFNE01.JPG,AFNE01.JPG,AFNE01.JPG,,,,,,,,,,,,,3,3,33,9,,,,,,,,,,,AFSA16.jpg,AFNE01.jpg,AFNE11.jpg,AFSA06.jpg,AFSA06.jpg,FS,4,num_4,32,num_6,0.916751448782,,,2018_Jan_22_1637,60.0038876131,MAFE4ImagesEEG,001,102533,
AFNE01.JPG,AFNE01.JPG,AFNE01.JPG,AFNE01.JPG,AFNE01.JPG,AFNE01.JPG,,,,,,,,,,,,,3,4,34,0,,,,,,,,,,,AFNE17.jpg,AFSA10.jpg,AFNE04.jpg,AFSA15.jpg,AFNE17.jpg,FN,3,num_8,32,num_6,0.65011854528,,,2018_Jan_22_1637,60.0038876131,MAFE4ImagesEEG,001,102533,
AFNE01.JPG,AFNE01.JPG,AFNE01.JPG,AFNE01.JPG,AFNE01.JPG,AFNE01.JPG,,,,,,,,,,,,,3,5,35,8,,,,,,,,,,,AFNE11.jpg,AFNE07.jpg,AFSA08.jpg,AFSA09.jpg,AFNE11.jpg,FN,3,num_8,16,num_8,0.850129707011,,,2018_Jan_22_1637,60.0038876131,MAFE4ImagesEEG,001,102533,
AFNE01.JPG,AFNE01.JPG,AFNE01.JPG,AFNE01.JPG,AFNE01.JPG,AFNE01.JPG,,,,,,,,,,,,,3,6,36,3,,,,,,,,,,,AFNE17.jpg,AFSA07.jpg,AFNE16.jpg,AFSA15.jpg,AFSA15.jpg,FS,4,num_4,16,num_4,1.00007377006,,,2018_Jan_22_1637,60.0038876131,MAFE4ImagesEEG,001,102533,
AFNE01.JPG,AFNE01.JPG,AFNE01.JPG,AFNE01.JPG,AFNE01.JPG,AFNE01.JPG,,,,,,,,,,,,,3,7,37,5,,,,,,,,,,,AFNE12.jpg,AFSA07.jpg,AFNE05.jpg,AFSA17.jpg,AFSA07.jpg,FS,4,num_6,16,num_6,1.35021406147,,,2018_Jan_22_1637,60.0038876131,MAFE4ImagesEEG,001,102533,
AFNE01.JPG,AFNE01.JPG,AFNE01.JPG,AFNE01.JPG,AFNE01.JPG,AFNE01.JPG,,,,,,,,,,,,,3,8,38,7,,,,,,,,,,,AFSA14.jpg,AFSA17.jpg,AFNE12.jpg,AFNE04.jpg,AFSA17.jpg,FS,4,num_6,32,num_8,1.00011546618,,,2018_Jan_22_1637,60.0038876131,MAFE4ImagesEEG,001,102533,
AFNE01.JPG,AFNE01.JPG,AFNE01.JPG,AFNE01.JPG,AFNE01.JPG,AFNE01.JPG,,,,,,,,,,,,,3,9,39,1,,,,,,,,,,,AFNE18.jpg,AFNE06.jpg,AFSA11.jpg,AFSA01.jpg,AFSA01.jpg,FS,4,num_4,32,num_8,1.70000538842,,,2018_Jan_22_1637,60.0038876131,MAFE4ImagesEEG,001,102533,
AFNE01.JPG,AFNE01.JPG,AFNE01.JPG,AFNE01.JPG,AFNE01.JPG,AFNE01.JPG,,,,,,,,,,,,,4,0,40,6,,,,,,,,,,,AFSA17.jpg,AFSA12.jpg,AFNE09.jpg,AFNE14.jpg,AFSA17.jpg,FS,4,num_8,32,num_4,1.43339557816,,,2018_Jan_22_1637,60.0038876131,MAFE4ImagesEEG,001,102533,
AFNE01.JPG,AFNE01.JPG,AFNE01.JPG,AFNE01.JPG,AFNE01.JPG,AFNE01.JPG,,,,,,,,,,,,,4,1,41,9,,,,,,,,,,,AFNE14.jpg,AFNE17.jpg,AFSA18.jpg,AFSA02.jpg,AFSA02.jpg,FS,4,num_4,32,num_8,0.950136891573,,,2018_Jan_22_1637,60.0038876131,MAFE4ImagesEEG,001,102533,
AFNE01.JPG,AFNE01.JPG,AFNE01.JPG,AFNE01.JPG,AFNE01.JPG,AFNE01.JPG,,,,,,,,,,,,,4,2,42,3,,,,,,,,,,,AFSA20.jpg,AFNE07.jpg,AFSA12.jpg,AFNE01.jpg,AFNE07.jpg,FN,3,num_6,16,num_6,0.733486090816,,,2018_Jan_22_1637,60.0038876131,MAFE4ImagesEEG,001,102533,
AFNE01.JPG,AFNE01.JPG,AFNE01.JPG,AFNE01.JPG,AFNE01.JPG,AFNE01.JPG,,,,,,,,,,,,,4,3,43,0,,,,,,,,,,,AFSA01.jpg,AFNE07.jpg,AFNE12.jpg,AFSA18.jpg,AFNE07.jpg,FN,3,num_6,32,num_2,1.28338672575,,,2018_Jan_22_1637,60.0038876131,MAFE4ImagesEEG,001,102533,
AFNE01.JPG,AFNE01.JPG,AFNE01.JPG,AFNE01.JPG,AFNE01.JPG,AFNE01.JPG,,,,,,,,,,,,,4,4,44,7,,,,,,,,,,,AFNE10.jpg,AFSA15.jpg,AFSA20.jpg,AFNE15.jpg,AFNE10.jpg,FN,3,num_8,16,num_8,1.25007986411,,,2018_Jan_22_1637,60.0038876131,MAFE4ImagesEEG,001,102533,
AFNE01.JPG,AFNE01.JPG,AFNE01.JPG,AFNE01.JPG,AFNE01.JPG,AFNE01.JPG,,,,,,,,,,,,,4,5,45,2,,,,,,,,,,,AFSA11.jpg,AFSA18.jpg,AFNE12.jpg,AFNE09.jpg,AFNE12.jpg,FN,3,num_2,16,num_2,1.55008153196,,,2018_Jan_22_1637,60.0038876131,MAFE4ImagesEEG,001,102533,
AFNE01.JPG,AFNE01.JPG,AFNE01.JPG,AFNE01.JPG,AFNE01.JPG,AFNE01.JPG,,,,,,,,,,,,,4,6,46,1,,,,,,,,,,,AFNE09.jpg,AFSA15.jpg,AFNE08.jpg,AFSA02.jpg,AFNE09.jpg,FN,3,num_8,16,num_8,0.900136827426,,,2018_Jan_22_1637,60.0038876131,MAFE4ImagesEEG,001,102533,
AFNE01.JPG,AFNE01.JPG,AFNE01.JPG,AFNE01.JPG,AFNE01.JPG,AFNE01.JPG,,,,,,,,,,,,,4,7,47,8,,,,,,,,,,,AFSA12.jpg,AFNE03.jpg,AFNE08.jpg,AFSA02.jpg,AFSA12.jpg,FS,4,num_8,32,num_6,0.833482690978,,,2018_Jan_22_1637,60.0038876131,MAFE4ImagesEEG,001,102533,
AFNE01.JPG,AFNE01.JPG,AFNE01.JPG,AFNE01.JPG,AFNE01.JPG,AFNE01.JPG,,,,,,,,,,,,,4,8,48,5,,,,,,,,,,,AFSA08.jpg,AFNE08.jpg,AFNE11.jpg,AFSA06.jpg,AFNE11.jpg,FN,3,num_2,32,num_4,1.2000891014,,,2018_Jan_22_1637,60.0038876131,MAFE4ImagesEEG,001,102533,
AFNE01.JPG,AFNE01.JPG,AFNE01.JPG,AFNE01.JPG,AFNE01.JPG,AFNE01.JPG,,,,,,,,,,,,,4,9,49,4,,,,,,,,,,,AFNE18.jpg,AFSA20.jpg,AFSA09.jpg,AFNE09.jpg,AFSA09.jpg,FS,4,num_2,16,num_2,0.650128808942,,,2018_Jan_22_1637,60.0038876131,MAFE4ImagesEEG,001,102533,
AFNE01.JPG,AFNE01.JPG,AFNE01.JPG,AFNE01.JPG,AFNE01.JPG,AFNE01.JPG,,,,,,,,,,,,,5,0,50,4,,,,,,,,,,,AFNE05.jpg,AFSA02.jpg,AFSA12.jpg,AFNE03.jpg,AFNE05.jpg,FN,3,num_8,16,num_8,1.20010770429,,,2018_Jan_22_1637,60.0038876131,MAFE4ImagesEEG,001,102533,
AFNE01.JPG,AFNE01.JPG,AFNE01.JPG,AFNE01.JPG,AFNE01.JPG,AFNE01.JPG,,,,,,,,,,,,,5,1,51,3,,,,,,,,,,,AFNE19.jpg,AFNE20.jpg,AFSA09.jpg,AFSA13.jpg,AFSA09.jpg,FS,4,num_2,16,num_2,0.983428678464,,,2018_Jan_22_1637,60.0038876131,MAFE4ImagesEEG,001,102533,
AFNE01.JPG,AFNE01.JPG,AFNE01.JPG,AFNE01.JPG,AFNE01.JPG,AFNE01.JPG,,,,,,,,,,,,,5,2,52,1,,,,,,,,,,,AFSA03.jpg,AFNE01.jpg,AFSA09.jpg,AFNE07.jpg,AFSA03.jpg,FS,4,num_8,16,num_8,1.01682149827,,,2018_Jan_22_1637,60.0038876131,MAFE4ImagesEEG,001,102533,
AFNE01.JPG,AFNE01.JPG,AFNE01.JPG,AFNE01.JPG,AFNE01.JPG,AFNE01.JPG,,,,,,,,,,,,,5,3,53,2,,,,,,,,,,,AFSA19.jpg,AFNE18.jpg,AFNE09.jpg,AFSA08.jpg,AFNE09.jpg,FN,3,num_2,32,num_6,0.81676479154,,,2018_Jan_22_1637,60.0038876131,MAFE4ImagesEEG,001,102533,
AFNE01.JPG,AFNE01.JPG,AFNE01.JPG,AFNE01.JPG,AFNE01.JPG,AFNE01.JPG,,,,,,,,,,,,,5,4,54,8,,,,,,,,,,,AFSA06.jpg,AFSA17.jpg,AFNE05.jpg,AFNE09.jpg,AFSA06.jpg,FS,4,num_8,16,num_8,1.45008589401,,,2018_Jan_22_1637,60.0038876131,MAFE4ImagesEEG,001,102533,
AFNE01.JPG,AFNE01.JPG,AFNE01.JPG,AFNE01.JPG,AFNE01.JPG,AFNE01.JPG,,,,,,,,,,,,,5,5,55,0,,,,,,,,,,,AFSA08.jpg,AFNE16.jpg,AFNE06.jpg,AFSA03.jpg,AFSA03.jpg,FS,4,num_4,16,num_4,0.850137084017,,,2018_Jan_22_1637,60.0038876131,MAFE4ImagesEEG,001,102533,
AFNE01.JPG,AFNE01.JPG,AFNE01.JPG,AFNE01.JPG,AFNE01.JPG,AFNE01.JPG,,,,,,,,,,,,,5,6,56,6,,,,,,,,,,,AFSA13.jpg,AFNE20.jpg,AFNE14.jpg,AFSA18.jpg,AFNE14.jpg,FN,3,num_2,32,num_6,0.750265251478,,,2018_Jan_22_1637,60.0038876131,MAFE4ImagesEEG,001,102533,
AFNE01.JPG,AFNE01.JPG,AFNE01.JPG,AFNE01.JPG,AFNE01.JPG,AFNE01.JPG,,,,,,,,,,,,,5,7,57,5,,,,,,,,,,,AFSA05.jpg,AFNE18.jpg,AFNE12.jpg,AFSA13.jpg,AFSA13.jpg,FS,4,num_4,32,num_8,1.0834275238,,,2018_Jan_22_1637,60.0038876131,MAFE4ImagesEEG,001,102533,
AFNE01.JPG,AFNE01.JPG,AFNE01.JPG,AFNE01.JPG,AFNE01.JPG,AFNE01.JPG,,,,,,,,,,,,,5,8,58,7,,,,,,,,,,,AFNE12.jpg,AFSA02.jpg,AFSA13.jpg,AFNE20.jpg,AFNE20.jpg,FN,3,num_4,16,num_4,1.00021938574,,,2018_Jan_22_1637,60.0038876131,MAFE4ImagesEEG,001,102533,
AFNE01.JPG,AFNE01.JPG,AFNE01.JPG,AFNE01.JPG,AFNE01.JPG,AFNE01.JPG,,,,,,,,,,,,,5,9,59,9,,,,,,,,,,,AFSA12.jpg,AFNE20.jpg,AFSA02.jpg,AFNE06.jpg,AFSA02.jpg,FS,4,num_2,16,num_2,0.566872880714,,,2018_Jan_22_1637,60.0038876131,MAFE4ImagesEEG,001,102533,
,,,,,,,,,,,,,,,,,,,,,,,,,,,,,,,,,,,,,,,,,,,space,35.4970334813,2018_Jan_22_1637,60.0038876131,MAFE4ImagesEEG,001,102533,
AFNE01.JPG,AFNE01.JPG,AFNE01.JPG,AFNE01.JPG,AFNE01.JPG,AFNE01.JPG,,,,,,,,,,,,,,,,,0,0,0,0,,,,,,,AMNE20.jpg,AMSA13.jpg,AMNE09.jpg,AMSA11.jpg,AMSA11.jpg,MS,2,num_4,16,num_4,0.750123163929,,,2018_Jan_22_1637,60.0038876131,MAFE4ImagesEEG,001,102533,
AFNE01.JPG,AFNE01.JPG,AFNE01.JPG,AFNE01.JPG,AFNE01.JPG,AFNE01.JPG,,,,,,,,,,,,,,,,,0,1,1,9,,,,,,,AMSA20.jpg,AMNE18.jpg,AMSA08.jpg,AMNE09.jpg,AMSA08.jpg,MS,2,num_2,16,num_2,0.633539846738,,,2018_Jan_22_1637,60.0038876131,MAFE4ImagesEEG,001,102533,
AFNE01.JPG,AFNE01.JPG,AFNE01.JPG,AFNE01.JPG,AFNE01.JPG,AFNE01.JPG,,,,,,,,,,,,,,,,,0,2,2,4,,,,,,,AMSA13.jpg,AMNE06.jpg,AMNE19.jpg,AMSA11.jpg,AMSA11.jpg,MS,2,num_4,16,num_4,0.716833301474,,,2018_Jan_22_1637,60.0038876131,MAFE4ImagesEEG,001,102533,
AFNE01.JPG,AFNE01.JPG,AFNE01.JPG,AFNE01.JPG,AFNE01.JPG,AFNE01.JPG,,,,,,,,,,,,,,,,,0,3,3,8,,,,,,,AMNE16.jpg,AMSA07.jpg,AMNE20.jpg,AMSA04.jpg,AMNE16.jpg,MN,1,num_8,32,num_6,0.833476596927,,,2018_Jan_22_1637,60.0038876131,MAFE4ImagesEEG,001,102533,
AFNE01.JPG,AFNE01.JPG,AFNE01.JPG,AFNE01.JPG,AFNE01.JPG,AFNE01.JPG,,,,,,,,,,,,,,,,,0,4,4,1,,,,,,,AMNE05.jpg,AMSA09.jpg,AMNE10.jpg,AMSA08.jpg,AMNE10.jpg,MN,1,num_2,32,num_8,0.85015600764,,,2018_Jan_22_1637,60.0038876131,MAFE4ImagesEEG,001,102533,
AFNE01.JPG,AFNE01.JPG,AFNE01.JPG,AFNE01.JPG,AFNE01.JPG,AFNE01.JPG,,,,,,,,,,,,,,,,,0,5,5,2,,,,,,,AMSA19.jpg,AMNE05.jpg,AMSA06.jpg,AMNE16.jpg,AMSA19.jpg,MS,2,num_8,32,num_2,0.983431885856,,,2018_Jan_22_1637,60.0038876131,MAFE4ImagesEEG,001,102533,
AFNE01.JPG,AFNE01.JPG,AFNE01.JPG,AFNE01.JPG,AFNE01.JPG,AFNE01.JPG,,,,,,,,,,,,,,,,,0,6,6,7,,,,,,,AMNE04.jpg,AMNE01.jpg,AMSA06.jpg,AMSA08.jpg,AMNE01.jpg,MN,1,num_6,16,num_6,1.10012200927,,,2018_Jan_22_1637,60.0038876131,MAFE4ImagesEEG,001,102533,
AFNE01.JPG,AFNE01.JPG,AFNE01.JPG,AFNE01.JPG,AFNE01.JPG,AFNE01.JPG,,,,,,,,,,,,,,,,,0,7,7,3,,,,,,,AMSA19.jpg,AMNE04.jpg,AMNE15.jpg,AMSA15.jpg,AMNE04.jpg,MN,1,num_6,32,num_8,0.816732396859,,,2018_Jan_22_1637,60.0038876131,MAFE4ImagesEEG,001,102533,
AFNE01.JPG,AFNE01.JPG,AFNE01.JPG,AFNE01.JPG,AFNE01.JPG,AFNE01.JPG,,,,,,,,,,,,,,,,,0,8,8,6,,,,,,,AMSA03.jpg,AMNE01.jpg,AMNE20.jpg,AMSA04.jpg,AMNE01.jpg,MN,1,num_6,32,num_4,1.33338646916,,,2018_Jan_22_1637,60.0038876131,MAFE4ImagesEEG,001,102533,
AFNE01.JPG,AFNE01.JPG,AFNE01.JPG,AFNE01.JPG,AFNE01.JPG,AFNE01.JPG,,,,,,,,,,,,,,,,,0,9,9,5,,,,,,,AMSA16.jpg,AMSA07.jpg,AMNE15.jpg,AMNE11.jpg,AMNE15.jpg,MN,1,num_2,32,num_8,3.28323726119,,,2018_Jan_22_1637,60.0038876131,MAFE4ImagesEEG,001,102533,
AFNE01.JPG,AFNE01.JPG,AFNE01.JPG,AFNE01.JPG,AFNE01.JPG,AFNE01.JPG,,,,,,,,,,,,,,,,,1,0,10,6,,,,,,,AMNE20.jpg,AMSA12.jpg,AMSA06.jpg,AMNE03.jpg,AMNE03.jpg,MN,1,num_4,32,num_6,0.966779417256,,,2018_Jan_22_1637,60.0038876131,MAFE4ImagesEEG,001,102533,
AFNE01.JPG,AFNE01.JPG,AFNE01.JPG,AFNE01.JPG,AFNE01.JPG,AFNE01.JPG,,,,,,,,,,,,,,,,,1,1,11,2,,,,,,,AMNE11.jpg,AMNE13.jpg,AMSA01.jpg,AMSA12.jpg,AMSA12.jpg,MS,2,num_4,32,num_6,1.03341270564,,,2018_Jan_22_1637,60.0038876131,MAFE4ImagesEEG,001,102533,
AFNE01.JPG,AFNE01.JPG,AFNE01.JPG,AFNE01.JPG,AFNE01.JPG,AFNE01.JPG,,,,,,,,,,,,,,,,,1,2,12,1,,,,,,,AMSA12.jpg,AMSA08.jpg,AMNE05.jpg,AMNE02.jpg,AMSA12.jpg,MS,2,num_8,32,num_6,0.866821305819,,,2018_Jan_22_1637,60.0038876131,MAFE4ImagesEEG,001,102533,
AFNE01.JPG,AFNE01.JPG,AFNE01.JPG,AFNE01.JPG,AFNE01.JPG,AFNE01.JPG,,,,,,,,,,,,,,,,,1,3,13,5,,,,,,,AMSA04.jpg,AMSA10.jpg,AMNE05.jpg,AMNE02.jpg,AMNE02.jpg,MN,1,num_4,32,num_8,0.866743045408,,,2018_Jan_22_1637,60.0038876131,MAFE4ImagesEEG,001,102533,
AFNE01.JPG,AFNE01.JPG,AFNE01.JPG,AFNE01.JPG,AFNE01.JPG,AFNE01.JPG,,,,,,,,,,,,,,,,,1,4,14,3,,,,,,,AMSA19.jpg,AMNE17.jpg,AMSA01.jpg,AMNE05.jpg,AMNE17.jpg,MN,1,num_6,16,num_6,0.833439391161,,,2018_Jan_22_1637,60.0038876131,MAFE4ImagesEEG,001,102533,
AFNE01.JPG,AFNE01.JPG,AFNE01.JPG,AFNE01.JPG,AFNE01.JPG,AFNE01.JPG,,,,,,,,,,,,,,,,,1,5,15,8,,,,,,,AMNE08.jpg,AMNE05.jpg,AMSA16.jpg,AMSA20.jpg,AMNE08.jpg,MN,1,num_8,16,num_8,1.11676966678,,,2018_Jan_22_1637,60.0038876131,MAFE4ImagesEEG,001,102533,
AFNE01.JPG,AFNE01.JPG,AFNE01.JPG,AFNE01.JPG,AFNE01.JPG,AFNE01.JPG,,,,,,,,,,,,,,,,,1,6,16,7,,,,,,,AMSA15.jpg,AMSA20.jpg,AMNE02.jpg,AMNE10.jpg,AMSA20.jpg,MS,2,num_6,32,num_2,0.966773964683,,,2018_Jan_22_1637,60.0038876131,MAFE4ImagesEEG,001,102533,
AFNE01.JPG,AFNE01.JPG,AFNE01.JPG,AFNE01.JPG,AFNE01.JPG,AFNE01.JPG,,,,,,,,,,,,,,,,,1,7,17,4,,,,,,,AMNE10.jpg,AMNE07.jpg,AMSA07.jpg,AMSA12.jpg,AMSA12.jpg,MS,2,num_4,32,num_6,1.06674041535,,,2018_Jan_22_1637,60.0038876131,MAFE4ImagesEEG,001,102533,
AFNE01.JPG,AFNE01.JPG,AFNE01.JPG,AFNE01.JPG,AFNE01.JPG,AFNE01.JPG,,,,,,,,,,,,,,,,,1,8,18,9,,,,,,,AMNE16.jpg,AMSA16.jpg,AMNE19.jpg,AMSA04.jpg,AMNE19.jpg,MN,1,num_2,32,num_6,1.06674971679,,,2018_Jan_22_1637,60.0038876131,MAFE4ImagesEEG,001,102533,
AFNE01.JPG,AFNE01.JPG,AFNE01.JPG,AFNE01.JPG,AFNE01.JPG,AFNE01.JPG,,,,,,,,,,,,,,,,,1,9,19,0,,,,,,,AMSA05.jpg,AMNE07.jpg,AMNE17.jpg,AMSA08.jpg,AMSA05.jpg,MS,2,num_8,32,num_2,0.816805846182,,,2018_Jan_22_1637,60.0038876131,MAFE4ImagesEEG,001,102533,
AFNE01.JPG,AFNE01.JPG,AFNE01.JPG,AFNE01.JPG,AFNE01.JPG,AFNE01.JPG,,,,,,,,,,,,,,,,,2,0,20,4,,,,,,,AMNE20.jpg,AMSA10.jpg,AMNE04.jpg,AMSA18.jpg,AMSA10.jpg,MS,2,num_6,32,num_4,1.03341976191,,,2018_Jan_22_1637,60.0038876131,MAFE4ImagesEEG,001,102533,
AFNE01.JPG,AFNE01.JPG,AFNE01.JPG,AFNE01.JPG,AFNE01.JPG,AFNE01.JPG,,,,,,,,,,,,,,,,,2,1,21,7,,,,,,,AMSA08.jpg,AMNE05.jpg,AMNE13.jpg,AMSA14.jpg,AMSA08.jpg,MS,2,num_8,16,num_8,0.73327087468,,,2018_Jan_22_1637,60.0038876131,MAFE4ImagesEEG,001,102533,
AFNE01.JPG,AFNE01.JPG,AFNE01.JPG,AFNE01.JPG,AFNE01.JPG,AFNE01.JPG,,,,,,,,,,,,,,,,,2,2,22,6,,,,,,,AMSA08.jpg,AMNE13.jpg,AMNE12.jpg,AMSA02.jpg,AMNE12.jpg,MN,1,num_2,32,num_6,0.866880642607,,,2018_Jan_22_1637,60.0038876131,MAFE4ImagesEEG,001,102533,
AFNE01.JPG,AFNE01.JPG,AFNE01.JPG,AFNE01.JPG,AFNE01.JPG,AFNE01.JPG,,,,,,,,,,,,,,,,,2,3,23,8,,,,,,,AMSA17.jpg,AMSA03.jpg,AMNE11.jpg,AMNE20.jpg,AMNE11.jpg,MN,1,num_2,16,num_2,0.63346094485,,,2018_Jan_22_1637,60.0038876131,MAFE4ImagesEEG,001,102533,
AFNE01.JPG,AFNE01.JPG,AFNE01.JPG,AFNE01.JPG,AFNE01.JPG,AFNE01.JPG,,,,,,,,,,,,,,,,,2,4,24,2,,,,,,,AMSA06.jpg,AMNE15.jpg,AMSA01.jpg,AMNE19.jpg,AMSA01.jpg,MS,2,num_2,16,num_2,2.36665195542,,,2018_Jan_22_1637,60.0038876131,MAFE4ImagesEEG,001,102533,
AFNE01.JPG,AFNE01.JPG,AFNE01.JPG,AFNE01.JPG,AFNE01.JPG,AFNE01.JPG,,,,,,,,,,,,,,,,,2,5,25,9,,,,,,,AMSA10.jpg,AMNE07.jpg,AMNE08.jpg,AMSA18.jpg,AMNE08.jpg,MN,1,num_2,32,num_6,1.30005106171,,,2018_Jan_22_1637,60.0038876131,MAFE4ImagesEEG,001,102533,
AFNE01.JPG,AFNE01.JPG,AFNE01.JPG,AFNE01.JPG,AFNE01.JPG,AFNE01.JPG,,,,,,,,,,,,,,,,,2,6,26,5,,,,,,,AMSA02.jpg,AMSA20.jpg,AMNE15.jpg,AMNE19.jpg,AMNE19.jpg,MN,1,num_4,32,num_2,0.95014972115,,,2018_Jan_22_1637,60.0038876131,MAFE4ImagesEEG,001,102533,
AFNE01.JPG,AFNE01.JPG,AFNE01.JPG,AFNE01.JPG,AFNE01.JPG,AFNE01.JPG,,,,,,,,,,,,,,,,,2,7,27,3,,,,,,,AMNE17.jpg,AMSA19.jpg,AMSA18.jpg,AMNE10.jpg,AMNE10.jpg,MN,1,num_4,32,num_8,0.766820536046,,,2018_Jan_22_1637,60.0038876131,MAFE4ImagesEEG,001,102533,
AFNE01.JPG,AFNE01.JPG,AFNE01.JPG,AFNE01.JPG,AFNE01.JPG,AFNE01.JPG,,,,,,,,,,,,,,,,,2,8,28,1,,,,,,,AMNE11.jpg,AMSA13.jpg,AMSA03.jpg,AMNE17.jpg,AMSA13.jpg,MS,2,num_6,16,num_6,0.783515983727,,,2018_Jan_22_1637,60.0038876131,MAFE4ImagesEEG,001,102533,
AFNE01.JPG,AFNE01.JPG,AFNE01.JPG,AFNE01.JPG,AFNE01.JPG,AFNE01.JPG,,,,,,,,,,,,,,,,,2,9,29,0,,,,,,,AMSA10.jpg,AMNE05.jpg,AMNE02.jpg,AMSA01.jpg,AMNE02.jpg,MN,1,num_2,16,num_2,0.900126243025,,,2018_Jan_22_1637,60.0038876131,MAFE4ImagesEEG,001,102533,
AFNE01.JPG,AFNE01.JPG,AFNE01.JPG,AFNE01.JPG,AFNE01.JPG,AFNE01.JPG,,,,,,,,,,,,,,,,,3,0,30,8,,,,,,,AMSA20.jpg,AMSA04.jpg,AMNE04.jpg,AMNE03.jpg,AMNE04.jpg,MN,1,num_2,32,num_4,1.40008037729,,,2018_Jan_22_1637,60.0038876131,MAFE4ImagesEEG,001,102533,
AFNE01.JPG,AFNE01.JPG,AFNE01.JPG,AFNE01.JPG,AFNE01.JPG,AFNE01.JPG,,,,,,,,,,,,,,,,,3,1,31,4,,,,,,,AMSA16.jpg,AMSA13.jpg,AMNE12.jpg,AMNE15.jpg,AMSA16.jpg,MS,2,num_8,32,num_2,0.816778904074,,,2018_Jan_22_1637,60.0038876131,MAFE4ImagesEEG,001,102533,
AFNE01.JPG,AFNE01.JPG,AFNE01.JPG,AFNE01.JPG,AFNE01.JPG,AFNE01.JPG,,,,,,,,,,,,,,,,,3,2,32,7,,,,,,,AMSA12.jpg,AMNE12.jpg,AMNE17.jpg,AMSA20.jpg,AMSA20.jpg,MS,2,num_4,32,num_8,1.23349475078,,,2018_Jan_22_1637,60.0038876131,MAFE4ImagesEEG,001,102533,
AFNE01.JPG,AFNE01.JPG,AFNE01.JPG,AFNE01.JPG,AFNE01.JPG,AFNE01.JPG,,,,,,,,,,,,,,,,,3,3,33,0,,,,,,,AMNE05.jpg,AMSA10.jpg,AMNE08.jpg,AMSA13.jpg,AMSA10.jpg,MS,2,num_6,16,num_6,0.916819445534,,,2018_Jan_22_1637,60.0038876131,MAFE4ImagesEEG,001,102533,
AFNE01.JPG,AFNE01.JPG,AFNE01.JPG,AFNE01.JPG,AFNE01.JPG,AFNE01.JPG,,,,,,,,,,,,,,,,,3,4,34,6,,,,,,,AMNE11.jpg,AMSA17.jpg,AMNE17.jpg,AMSA15.jpg,AMNE11.jpg,MN,1,num_8,32,num_2,1.28346658986,,,2018_Jan_22_1637,60.0038876131,MAFE4ImagesEEG,001,102533,
AFNE01.JPG,AFNE01.JPG,AFNE01.JPG,AFNE01.JPG,AFNE01.JPG,AFNE01.JPG,,,,,,,,,,,,,,,,,3,5,35,3,,,,,,,AMNE03.jpg,AMNE16.jpg,AMSA18.jpg,AMSA16.jpg,AMSA18.jpg,MS,2,num_2,16,num_2,0.633512583889,,,2018_Jan_22_1637,60.0038876131,MAFE4ImagesEEG,001,102533,
AFNE01.JPG,AFNE01.JPG,AFNE01.JPG,AFNE01.JPG,AFNE01.JPG,AFNE01.JPG,,,,,,,,,,,,,,,,,3,6,36,1,,,,,,,AMNE13.jpg,AMSA03.jpg,AMSA01.jpg,AMNE08.jpg,AMSA03.jpg,MS,2,num_6,16,num_6,1.81667755043,,,2018_Jan_22_1637,60.0038876131,MAFE4ImagesEEG,001,102533,
AFNE01.JPG,AFNE01.JPG,AFNE01.JPG,AFNE01.JPG,AFNE01.JPG,AFNE01.JPG,,,,,,,,,,,,,,,,,3,7,37,9,,,,,,,AMSA18.jpg,AMNE20.jpg,AMSA14.jpg,AMNE16.jpg,AMSA18.jpg,MS,2,num_8,16,num_8,0.616795646667,,,2018_Jan_22_1637,60.0038876131,MAFE4ImagesEEG,001,102533,
AFNE01.JPG,AFNE01.JPG,AFNE01.JPG,AFNE01.JPG,AFNE01.JPG,AFNE01.JPG,,,,,,,,,,,,,,,,,3,8,38,5,,,,,,,AMNE02.jpg,AMSA04.jpg,AMSA10.jpg,AMNE15.jpg,AMNE15.jpg,MN,1,num_4,32,num_2,2.98326157324,,,2018_Jan_22_1637,60.0038876131,MAFE4ImagesEEG,001,102533,
AFNE01.JPG,AFNE01.JPG,AFNE01.JPG,AFNE01.JPG,AFNE01.JPG,AFNE01.JPG,,,,,,,,,,,,,,,,,3,9,39,2,,,,,,,AMSA19.jpg,AMNE05.jpg,AMNE10.jpg,AMSA16.jpg,AMNE10.jpg,MN,1,num_2,16,num_2,0.850159535774,,,2018_Jan_22_1637,60.0038876131,MAFE4ImagesEEG,001,102533,
AFNE01.JPG,AFNE01.JPG,AFNE01.JPG,AFNE01.JPG,AFNE01.JPG,AFNE01.JPG,,,,,,,,,,,,,,,,,4,0,40,8,,,,,,,AMSA17.jpg,AMNE06.jpg,AMSA14.jpg,AMNE10.jpg,AMSA17.jpg,MS,2,num_8,32,num_2,1.25042722487,,,2018_Jan_22_1637,60.0038876131,MAFE4ImagesEEG,001,102533,
AFNE01.JPG,AFNE01.JPG,AFNE01.JPG,AFNE01.JPG,AFNE01.JPG,AFNE01.JPG,,,,,,,,,,,,,,,,,4,1,41,2,,,,,,,AMSA03.jpg,AMNE07.jpg,AMSA14.jpg,AMNE15.jpg,AMSA14.jpg,MS,2,num_2,32,num_8,0.933458763819,,,2018_Jan_22_1637,60.0038876131,MAFE4ImagesEEG,001,102533,
AFNE01.JPG,AFNE01.JPG,AFNE01.JPG,AFNE01.JPG,AFNE01.JPG,AFNE01.JPG,,,,,,,,,,,,,,,,,4,2,42,1,,,,,,,AMSA13.jpg,AMSA07.jpg,AMNE16.jpg,AMNE06.jpg,AMSA13.jpg,MS,2,num_8,32,num_6,1.06647805052,,,2018_Jan_22_1637,60.0038876131,MAFE4ImagesEEG,001,102533,
AFNE01.JPG,AFNE01.JPG,AFNE01.JPG,AFNE01.JPG,AFNE01.JPG,AFNE01.JPG,,,,,,,,,,,,,,,,,4,3,43,5,,,,,,,AMNE06.jpg,AMNE05.jpg,AMSA19.jpg,AMSA03.jpg,AMNE05.jpg,MN,1,num_6,32,num_8,1.48341328297,,,2018_Jan_22_1637,60.0038876131,MAFE4ImagesEEG,001,102533,
AFNE01.JPG,AFNE01.JPG,AFNE01.JPG,AFNE01.JPG,AFNE01.JPG,AFNE01.JPG,,,,,,,,,,,,,,,,,4,4,44,7,,,,,,,AMSA12.jpg,AMSA17.jpg,AMNE07.jpg,AMNE03.jpg,AMSA12.jpg,MS,2,num_8,32,num_6,1.33340763796,,,2018_Jan_22_1637,60.0038876131,MAFE4ImagesEEG,001,102533,
AFNE01.JPG,AFNE01.JPG,AFNE01.JPG,AFNE01.JPG,AFNE01.JPG,AFNE01.JPG,,,,,,,,,,,,,,,,,4,5,45,3,,,,,,,AMNE12.jpg,AMSA04.jpg,AMSA07.jpg,AMNE08.jpg,AMNE08.jpg,MN,1,num_4,32,num_8,0.95012438274,,,2018_Jan_22_1637,60.0038876131,MAFE4ImagesEEG,001,102533,
AFNE01.JPG,AFNE01.JPG,AFNE01.JPG,AFNE01.JPG,AFNE01.JPG,AFNE01.JPG,,,,,,,,,,,,,,,,,4,6,46,9,,,,,,,AMSA06.jpg,AMNE10.jpg,AMNE01.jpg,AMSA14.jpg,AMNE10.jpg,MN,1,num_6,32,num_8,1.03344798697,,,2018_Jan_22_1637,60.0038876131,MAFE4ImagesEEG,001,102533,
AFNE01.JPG,AFNE01.JPG,AFNE01.JPG,AFNE01.JPG,AFNE01.JPG,AFNE01.JPG,,,,,,,,,,,,,,,,,4,7,47,4,,,,,,,AMSA16.jpg,AMSA17.jpg,AMNE06.jpg,AMNE16.jpg,AMSA16.jpg,MS,2,num_8,32,num_6,0.916754335434,,,2018_Jan_22_1637,60.0038876131,MAFE4ImagesEEG,001,102533,
AFNE01.JPG,AFNE01.JPG,AFNE01.JPG,AFNE01.JPG,AFNE01.JPG,AFNE01.JPG,,,,,,,,,,,,,,,,,4,8,48,0,,,,,,,AMSA13.jpg,AMNE07.jpg,AMSA07.jpg,AMNE04.jpg,AMSA13.jpg,MS,2,num_8,16,num_8,1.06675741453,,,2018_Jan_22_1637,60.0038876131,MAFE4ImagesEEG,001,102533,
AFNE01.JPG,AFNE01.JPG,AFNE01.JPG,AFNE01.JPG,AFNE01.JPG,AFNE01.JPG,,,,,,,,,,,,,,,,,4,9,49,6,,,,,,,AMNE05.jpg,AMNE06.jpg,AMSA19.jpg,AMSA04.jpg,AMNE06.jpg,MN,1,num_6,32,num_2,1.85006587987,,,2018_Jan_22_1637,60.0038876131,MAFE4ImagesEEG,001,102533,
AFNE01.JPG,AFNE01.JPG,AFNE01.JPG,AFNE01.JPG,AFNE01.JPG,AFNE01.JPG,,,,,,,,,,,,,,,,,5,0,50,0,,,,,,,AMNE03.jpg,AMNE09.jpg,AMSA20.jpg,AMSA03.jpg,AMSA20.jpg,MS,2,num_2,16,num_2,1.01673682307,,,2018_Jan_22_1637,60.0038876131,MAFE4ImagesEEG,001,102533,
AFNE01.JPG,AFNE01.JPG,AFNE01.JPG,AFNE01.JPG,AFNE01.JPG,AFNE01.JPG,,,,,,,,,,,,,,,,,5,1,51,3,,,,,,,AMNE20.jpg,AMSA11.jpg,AMNE08.jpg,AMSA02.jpg,AMSA02.jpg,MS,2,num_4,16,num_4,0.883470246288,,,2018_Jan_22_1637,60.0038876131,MAFE4ImagesEEG,001,102533,
AFNE01.JPG,AFNE01.JPG,AFNE01.JPG,AFNE01.JPG,AFNE01.JPG,AFNE01.JPG,,,,,,,,,,,,,,,,,5,2,52,4,,,,,,,AMNE16.jpg,AMSA12.jpg,AMNE04.jpg,AMSA05.jpg,AMNE04.jpg,MN,1,num_2,16,num_2,0.750116749139,,,2018_Jan_22_1637,60.0038876131,MAFE4ImagesEEG,001,102533,
AFNE01.JPG,AFNE01.JPG,AFNE01.JPG,AFNE01.JPG,AFNE01.JPG,AFNE01.JPG,,,,,,,,,,,,,,,,,5,3,53,1,,,,,,,AMSA07.jpg,AMSA20.jpg,AMNE17.jpg,AMNE03.jpg,AMNE17.jpg,MN,1,num_2,32,num_6,1.81670320957,,,2018_Jan_22_1637,60.0038876131,MAFE4ImagesEEG,001,102533,
AFNE01.JPG,AFNE01.JPG,AFNE01.JPG,AFNE01.JPG,AFNE01.JPG,AFNE01.JPG,,,,,,,,,,,,,,,,,5,4,54,9,,,,,,,AMSA14.jpg,AMSA11.jpg,AMNE11.jpg,AMNE19.jpg,AMSA11.jpg,MS,2,num_6,16,num_6,1.1167690253,,,2018_Jan_22_1637,60.0038876131,MAFE4ImagesEEG,001,102533,
AFNE01.JPG,AFNE01.JPG,AFNE01.JPG,AFNE01.JPG,AFNE01.JPG,AFNE01.JPG,,,,,,,,,,,,,,,,,5,5,55,7,,,,,,,AMNE16.jpg,AMSA12.jpg,AMNE02.jpg,AMSA09.jpg,AMSA12.jpg,MS,2,num_6,32,num_4,1.0167810851,,,2018_Jan_22_1637,60.0038876131,MAFE4ImagesEEG,001,102533,
AFNE01.JPG,AFNE01.JPG,AFNE01.JPG,AFNE01.JPG,AFNE01.JPG,AFNE01.JPG,,,,,,,,,,,,,,,,,5,6,56,5,,,,,,,AMSA12.jpg,AMNE04.jpg,AMNE11.jpg,AMSA05.jpg,AMNE11.jpg,MN,1,num_2,32,num_6,1.81673400056,,,2018_Jan_22_1637,60.0038876131,MAFE4ImagesEEG,001,102533,
AFNE01.JPG,AFNE01.JPG,AFNE01.JPG,AFNE01.JPG,AFNE01.JPG,AFNE01.JPG,,,,,,,,,,,,,,,,,5,7,57,6,,,,,,,AMSA16.jpg,AMNE04.jpg,AMSA12.jpg,AMNE17.jpg,AMSA12.jpg,MS,2,num_2,32,num_8,1.3500831998,,,2018_Jan_22_1637,60.0038876131,MAFE4ImagesEEG,001,102533,
AFNE01.JPG,AFNE01.JPG,AFNE01.JPG,AFNE01.JPG,AFNE01.JPG,AFNE01.JPG,,,,,,,,,,,,,,,,,5,8,58,8,,,,,,,AMNE13.jpg,AMNE02.jpg,AMSA12.jpg,AMSA03.jpg,AMNE13.jpg,MN,1,num_8,32,num_2,0.816756452317,,,2018_Jan_22_1637,60.0038876131,MAFE4ImagesEEG,001,102533,
AFNE01.JPG,AFNE01.JPG,AFNE01.JPG,AFNE01.JPG,AFNE01.JPG,AFNE01.JPG,,,,,,,,,,,,,,,,,5,9,59,2,,,,,,,AMNE17.jpg,AMSA03.jpg,AMSA09.jpg,AMNE07.jpg,AMSA09.jpg,MS,2,num_2,16,num_2,0.600163384646,,,2018_Jan_22_1637,60.0038876131,MAFE4ImagesEEG,001,102533,
,,,,,,,,,,,,,,,,,,,,,,,,,,,,,,,,,,,,,,,,,,,space,71.1276273367,2018_Jan_22_1637,60.0038876131,MAFE4ImagesEEG,001,102533,
AFNE01.JPG,AFNE01.JPG,AFNE01.JPG,AFNE01.JPG,AFNE01.JPG,AFNE01.JPG,,,,,,,,,,,,,,,,,,,,,0,0,0,9,,,AFNE09.jpg,AFNE12.jpg,AFSA15.jpg,AFSA04.jpg,AFSA04.jpg,FS,4,num_4,32,num_2,0.9499742767,,,2018_Jan_22_1637,60.0038876131,MAFE4ImagesEEG,001,102533,
AFNE01.JPG,AFNE01.JPG,AFNE01.JPG,AFNE01.JPG,AFNE01.JPG,AFNE01.JPG,,,,,,,,,,,,,,,,,,,,,0,1,1,7,,,AFNE14.jpg,AFSA10.jpg,AFSA20.jpg,AFNE11.jpg,AFSA20.jpg,FS,4,num_2,32,num_4,1.00010648548,,,2018_Jan_22_1637,60.0038876131,MAFE4ImagesEEG,001,102533,
AFNE01.JPG,AFNE01.JPG,AFNE01.JPG,AFNE01.JPG,AFNE01.JPG,AFNE01.JPG,,,,,,,,,,,,,,,,,,,,,0,2,2,6,,,AFSA11.jpg,AFNE14.jpg,AFNE09.jpg,AFSA16.jpg,AFNE09.jpg,FN,3,num_2,16,num_2,0.700154532242,,,2018_Jan_22_1637,60.0038876131,MAFE4ImagesEEG,001,102533,
AFNE01.JPG,AFNE01.JPG,AFNE01.JPG,AFNE01.JPG,AFNE01.JPG,AFNE01.JPG,,,,,,,,,,,,,,,,,,,,,0,3,3,5,,,AFNE11.jpg,AFSA01.jpg,AFNE08.jpg,AFSA15.jpg,AFSA15.jpg,FS,4,num_4,16,num_4,0.650126884506,,,2018_Jan_22_1637,60.0038876131,MAFE4ImagesEEG,001,102533,
AFNE01.JPG,AFNE01.JPG,AFNE01.JPG,AFNE01.JPG,AFNE01.JPG,AFNE01.JPG,,,,,,,,,,,,,,,,,,,,,0,4,4,3,,,AFNE19.jpg,AFSA09.jpg,AFSA05.jpg,AFNE05.jpg,AFSA05.jpg,FS,4,num_2,16,num_2,1.05016973529,,,2018_Jan_22_1637,60.0038876131,MAFE4ImagesEEG,001,102533,
AFNE01.JPG,AFNE01.JPG,AFNE01.JPG,AFNE01.JPG,AFNE01.JPG,AFNE01.JPG,,,,,,,,,,,,,,,,,,,,,0,5,5,2,,,AFSA06.jpg,AFSA02.jpg,AFNE18.jpg,AFNE01.jpg,AFSA06.jpg,FS,4,num_8,32,num_6,1.33343393859,,,2018_Jan_22_1637,60.0038876131,MAFE4ImagesEEG,001,102533,
AFNE01.JPG,AFNE01.JPG,AFNE01.JPG,AFNE01.JPG,AFNE01.JPG,AFNE01.JPG,,,,,,,,,,,,,,,,,,,,,0,6,6,4,,,AFNE20.jpg,AFSA19.jpg,AFNE10.jpg,AFSA03.jpg,AFNE10.jpg,FN,3,num_2,16,num_2,1.3167660745,,,2018_Jan_22_1637,60.0038876131,MAFE4ImagesEEG,001,102533,
AFNE01.JPG,AFNE01.JPG,AFNE01.JPG,AFNE01.JPG,AFNE01.JPG,AFNE01.JPG,,,,,,,,,,,,,,,,,,,,,0,7,7,0,,,AFNE11.jpg,AFSA01.jpg,AFSA19.jpg,AFNE13.jpg,AFSA01.jpg,FS,4,num_6,16,num_6,0.783447666236,,,2018_Jan_22_1637,60.0038876131,MAFE4ImagesEEG,001,102533,
AFNE01.JPG,AFNE01.JPG,AFNE01.JPG,AFNE01.JPG,AFNE01.JPG,AFNE01.JPG,,,,,,,,,,,,,,,,,,,,,0,8,8,8,,,AFNE05.jpg,AFSA02.jpg,AFSA11.jpg,AFNE07.jpg,AFSA11.jpg,FS,4,num_2,32,num_8,0.733466525711,,,2018_Jan_22_1637,60.0038876131,MAFE4ImagesEEG,001,102533,
AFNE01.JPG,AFNE01.JPG,AFNE01.JPG,AFNE01.JPG,AFNE01.JPG,AFNE01.JPG,,,,,,,,,,,,,,,,,,,,,0,9,9,1,,,AFSA02.jpg,AFSA09.jpg,AFNE20.jpg,AFNE15.jpg,AFSA02.jpg,FS,4,num_8,32,num_6,1.06674907531,,,2018_Jan_22_1637,60.0038876131,MAFE4ImagesEEG,001,102533,
AFNE01.JPG,AFNE01.JPG,AFNE01.JPG,AFNE01.JPG,AFNE01.JPG,AFNE01.JPG,,,,,,,,,,,,,,,,,,,,,1,0,10,3,,,AFNE16.jpg,AFNE08.jpg,AFSA03.jpg,AFSA11.jpg,AFSA03.jpg,FS,4,num_2,32,num_8,0.983141616707,,,2018_Jan_22_1637,60.0038876131,MAFE4ImagesEEG,001,102533,
AFNE01.JPG,AFNE01.JPG,AFNE01.JPG,AFNE01.JPG,AFNE01.JPG,AFNE01.JPG,,,,,,,,,,,,,,,,,,,,,1,1,11,2,,,AFNE14.jpg,AFSA06.jpg,AFSA18.jpg,AFNE17.jpg,AFSA18.jpg,FS,4,num_2,16,num_2,1.30008441861,,,2018_Jan_22_1637,60.0038876131,MAFE4ImagesEEG,001,102533,
AFNE01.JPG,AFNE01.JPG,AFNE01.JPG,AFNE01.JPG,AFNE01.JPG,AFNE01.JPG,,,,,,,,,,,,,,,,,,,,,1,2,12,5,,,AFSA12.jpg,AFNE18.jpg,AFNE01.jpg,AFSA18.jpg,AFSA12.jpg,FS,4,num_8,16,num_8,1.23344824357,,,2018_Jan_22_1637,60.0038876131,MAFE4ImagesEEG,001,102533,
AFNE01.JPG,AFNE01.JPG,AFNE01.JPG,AFNE01.JPG,AFNE01.JPG,AFNE01.JPG,,,,,,,,,,,,,,,,,,,,,1,3,13,9,,,AFNE14.jpg,AFSA17.jpg,AFNE11.jpg,AFSA05.jpg,AFNE11.jpg,FN,3,num_2,32,num_4,2.98350341075,,,2018_Jan_22_1637,60.0038876131,MAFE4ImagesEEG,001,102533,
AFNE01.JPG,AFNE01.JPG,AFNE01.JPG,AFNE01.JPG,AFNE01.JPG,AFNE01.JPG,,,,,,,,,,,,,,,,,,,,,1,4,14,7,,,AFSA01.jpg,AFNE20.jpg,AFNE10.jpg,AFSA04.jpg,AFSA04.jpg,FS,4,num_4,32,num_2,1.78336587769,,,2018_Jan_22_1637,60.0038876131,MAFE4ImagesEEG,001,102533,
AFNE01.JPG,AFNE01.JPG,AFNE01.JPG,AFNE01.JPG,AFNE01.JPG,AFNE01.JPG,,,,,,,,,,,,,,,,,,,,,1,5,15,0,,,AFNE09.jpg,AFSA20.jpg,AFNE03.jpg,AFSA14.jpg,AFSA20.jpg,FS,4,num_6,32,num_4,1.15004958631,,,2018_Jan_22_1637,60.0038876131,MAFE4ImagesEEG,001,102533,
AFNE01.JPG,AFNE01.JPG,AFNE01.JPG,AFNE01.JPG,AFNE01.JPG,AFNE01.JPG,,,,,,,,,,,,,,,,,,,,,1,6,16,1,,,AFSA01.jpg,AFNE13.jpg,AFSA19.jpg,AFNE20.jpg,AFSA01.jpg,FS,4,num_8,16,num_8,1.63337626965,,,2018_Jan_22_1637,60.0038876131,MAFE4ImagesEEG,001,102533,
AFNE01.JPG,AFNE01.JPG,AFNE01.JPG,AFNE01.JPG,AFNE01.JPG,AFNE01.JPG,,,,,,,,,,,,,,,,,,,,,1,7,17,8,,,AFSA02.jpg,AFNE18.jpg,AFNE10.jpg,AFSA19.jpg,AFNE10.jpg,FN,3,num_2,16,num_2,1.48347197828,,,2018_Jan_22_1637,60.0038876131,MAFE4ImagesEEG,001,102533,
AFNE01.JPG,AFNE01.JPG,AFNE01.JPG,AFNE01.JPG,AFNE01.JPG,AFNE01.JPG,,,,,,,,,,,,,,,,,,,,,1,8,18,6,,,AFNE17.jpg,AFSA17.jpg,AFNE11.jpg,AFSA04.jpg,AFSA17.jpg,FS,4,num_6,16,num_6,0.850109500429,,,2018_Jan_22_1637,60.0038876131,MAFE4ImagesEEG,001,102533,
AFNE01.JPG,AFNE01.JPG,AFNE01.JPG,AFNE01.JPG,AFNE01.JPG,AFNE01.JPG,,,,,,,,,,,,,,,,,,,,,1,9,19,4,,,AFSA09.jpg,AFSA04.jpg,AFNE18.jpg,AFNE11.jpg,AFNE11.jpg,FN,3,num_4,16,num_4,1.65010218757,,,2018_Jan_22_1637,60.0038876131,MAFE4ImagesEEG,001,102533,
AFNE01.JPG,AFNE01.JPG,AFNE01.JPG,AFNE01.JPG,AFNE01.JPG,AFNE01.JPG,,,,,,,,,,,,,,,,,,,,,2,0,20,7,,,AFNE12.jpg,AFNE11.jpg,AFSA14.jpg,AFSA08.jpg,AFNE12.jpg,FN,3,num_8,16,num_8,1.59976727149,,,2018_Jan_22_1637,60.0038876131,MAFE4ImagesEEG,001,102533,
AFNE01.JPG,AFNE01.JPG,AFNE01.JPG,AFNE01.JPG,AFNE01.JPG,AFNE01.JPG,,,,,,,,,,,,,,,,,,,,,2,1,21,4,,,AFSA19.jpg,AFNE20.jpg,AFSA07.jpg,AFNE08.jpg,AFNE20.jpg,FN,3,num_6,32,num_2,1.55019571518,,,2018_Jan_22_1637,60.0038876131,MAFE4ImagesEEG,001,102533,
AFNE01.JPG,AFNE01.JPG,AFNE01.JPG,AFNE01.JPG,AFNE01.JPG,AFNE01.JPG,,,,,,,,,,,,,,,,,,,,,2,2,22,5,,,AFSA07.jpg,AFNE11.jpg,AFNE01.jpg,AFSA03.jpg,AFSA07.jpg,FS,4,num_8,16,num_8,1.1001165567,,,2018_Jan_22_1637,60.0038876131,MAFE4ImagesEEG,001,102533,
AFNE01.JPG,AFNE01.JPG,AFNE01.JPG,AFNE01.JPG,AFNE01.JPG,AFNE01.JPG,,,,,,,,,,,,,,,,,,,,,2,3,23,3,,,AFSA14.jpg,AFSA13.jpg,AFNE19.jpg,AFNE14.jpg,AFNE19.jpg,FN,3,num_2,16,num_2,0.650149015521,,,2018_Jan_22_1637,60.0038876131,MAFE4ImagesEEG,001,102533,
AFNE01.JPG,AFNE01.JPG,AFNE01.JPG,AFNE01.JPG,AFNE01.JPG,AFNE01.JPG,,,,,,,,,,,,,,,,,,,,,2,4,24,2,,,AFNE06.jpg,AFSA09.jpg,AFSA04.jpg,AFNE09.jpg,AFSA04.jpg,FS,4,num_2,16,num_2,0.683476404483,,,2018_Jan_22_1637,60.0038876131,MAFE4ImagesEEG,001,102533,
AFNE01.JPG,AFNE01.JPG,AFNE01.JPG,AFNE01.JPG,AFNE01.JPG,AFNE01.JPG,,,,,,,,,,,,,,,,,,,,,2,5,25,1,,,AFNE18.jpg,AFSA12.jpg,AFNE13.jpg,AFSA15.jpg,AFNE13.jpg,FN,3,num_2,32,num_8,0.883460303368,,,2018_Jan_22_1637,60.0038876131,MAFE4ImagesEEG,001,102533,
AFNE01.JPG,AFNE01.JPG,AFNE01.JPG,AFNE01.JPG,AFNE01.JPG,AFNE01.JPG,,,,,,,,,,,,,,,,,,,,,2,6,26,9,,,AFNE15.jpg,AFSA10.jpg,AFNE14.jpg,AFSA05.jpg,AFSA10.jpg,FS,4,num_6,16,num_6,0.716765625461,,,2018_Jan_22_1637,60.0038876131,MAFE4ImagesEEG,001,102533,
AFNE01.JPG,AFNE01.JPG,AFNE01.JPG,AFNE01.JPG,AFNE01.JPG,AFNE01.JPG,,,,,,,,,,,,,,,,,,,,,2,7,27,0,,,AFSA10.jpg,AFNE15.jpg,AFNE20.jpg,AFSA04.jpg,AFNE20.jpg,FN,3,num_2,16,num_2,2.66661385158,,,2018_Jan_22_1637,60.0038876131,MAFE4ImagesEEG,001,102533,
AFNE01.JPG,AFNE01.JPG,AFNE01.JPG,AFNE01.JPG,AFNE01.JPG,AFNE01.JPG,,,,,,,,,,,,,,,,,,,,,2,8,28,6,,,AFNE17.jpg,AFSA10.jpg,AFSA14.jpg,AFNE10.jpg,AFSA10.jpg,FS,4,num_6,16,num_6,1.95004259419,,,2018_Jan_22_1637,60.0038876131,MAFE4ImagesEEG,001,102533,
AFNE01.JPG,AFNE01.JPG,AFNE01.JPG,AFNE01.JPG,AFNE01.JPG,AFNE01.JPG,,,,,,,,,,,,,,,,,,,,,2,9,29,8,,,AFSA03.jpg,AFNE19.jpg,AFSA19.jpg,AFNE08.jpg,AFNE19.jpg,FN,3,num_6,32,num_2,0.766831441186,,,2018_Jan_22_1637,60.0038876131,MAFE4ImagesEEG,001,102533,
AFNE01.JPG,AFNE01.JPG,AFNE01.JPG,AFNE01.JPG,AFNE01.JPG,AFNE01.JPG,,,,,,,,,,,,,,,,,,,,,3,0,30,2,,,AFSA17.jpg,AFSA06.jpg,AFNE12.jpg,AFNE19.jpg,AFSA17.jpg,FS,4,num_8,32,num_6,0.733506938876,,,2018_Jan_22_1637,60.0038876131,MAFE4ImagesEEG,001,102533,
AFNE01.JPG,AFNE01.JPG,AFNE01.JPG,AFNE01.JPG,AFNE01.JPG,AFNE01.JPG,,,,,,,,,,,,,,,,,,,,,3,1,31,8,,,AFNE09.jpg,AFSA20.jpg,AFSA12.jpg,AFNE16.jpg,AFSA20.jpg,FS,4,num_6,16,num_6,1.0167599163,,,2018_Jan_22_1637,60.0038876131,MAFE4ImagesEEG,001,102533,
AFNE01.JPG,AFNE01.JPG,AFNE01.JPG,AFNE01.JPG,AFNE01.JPG,AFNE01.JPG,,,,,,,,,,,,,,,,,,,,,3,2,32,6,,,AFNE09.jpg,AFSA02.jpg,AFNE15.jpg,AFSA09.jpg,AFSA02.jpg,FS,4,num_6,32,num_4,1.63341475837,,,2018_Jan_22_1637,60.0038876131,MAFE4ImagesEEG,001,102533,
AFNE01.JPG,AFNE01.JPG,AFNE01.JPG,AFNE01.JPG,AFNE01.JPG,AFNE01.JPG,,,,,,,,,,,,,,,,,,,,,3,3,33,5,,,AFSA08.jpg,AFNE10.jpg,AFNE16.jpg,AFSA19.jpg,AFNE10.jpg,FN,3,num_6,16,num_6,1.23346043166,,,2018_Jan_22_1637,60.0038876131,MAFE4ImagesEEG,001,102533,
AFNE01.JPG,AFNE01.JPG,AFNE01.JPG,AFNE01.JPG,AFNE01.JPG,AFNE01.JPG,,,,,,,,,,,,,,,,,,,,,3,4,34,0,,,AFNE13.jpg,AFSA04.jpg,AFSA19.jpg,AFNE15.jpg,AFSA19.jpg,FS,4,num_2,32,num_6,1.36672572548,,,2018_Jan_22_1637,60.0038876131,MAFE4ImagesEEG,001,102533,
AFNE01.JPG,AFNE01.JPG,AFNE01.JPG,AFNE01.JPG,AFNE01.JPG,AFNE01.JPG,,,,,,,,,,,,,,,,,,,,,3,5,35,4,,,AFSA06.jpg,AFNE12.jpg,AFNE14.jpg,AFSA07.jpg,AFNE14.jpg,FN,3,num_2,16,num_2,2.01671982388,,,2018_Jan_22_1637,60.0038876131,MAFE4ImagesEEG,001,102533,
AFNE01.JPG,AFNE01.JPG,AFNE01.JPG,AFNE01.JPG,AFNE01.JPG,AFNE01.JPG,,,,,,,,,,,,,,,,,,,,,3,6,36,3,,,AFNE09.jpg,AFSA09.jpg,AFSA14.jpg,AFNE12.jpg,AFNE09.jpg,FN,3,num_8,32,num_6,1.7834050079,,,2018_Jan_22_1637,60.0038876131,MAFE4ImagesEEG,001,102533,
AFNE01.JPG,AFNE01.JPG,AFNE01.JPG,AFNE01.JPG,AFNE01.JPG,AFNE01.JPG,,,,,,,,,,,,,,,,,,,,,3,7,37,7,,,AFSA01.jpg,AFNE17.jpg,AFSA20.jpg,AFNE03.jpg,AFNE03.jpg,FN,3,num_4,32,num_8,1.45007979996,,,2018_Jan_22_1637,60.0038876131,MAFE4ImagesEEG,001,102533,
AFNE01.JPG,AFNE01.JPG,AFNE01.JPG,AFNE01.JPG,AFNE01.JPG,AFNE01.JPG,,,,,,,,,,,,,,,,,,,,,3,8,38,9,,,AFSA07.jpg,AFNE04.jpg,AFNE14.jpg,AFSA18.jpg,AFSA07.jpg,FS,4,num_8,32,num_6,1.10010533082,,,2018_Jan_22_1637,60.0038876131,MAFE4ImagesEEG,001,102533,
