IPosition2,IPosition3,IPosition1,IPosition6,IPosition4,IPosition5,TrialsM1.thisRepN,TrialsM1.thisTrialN,TrialsM1.thisN,TrialsM1.thisIndex,TrialsF1.thisRepN,TrialsF1.thisTrialN,TrialsF1.thisN,TrialsF1.thisIndex,TrialsM2.thisRepN,TrialsM2.thisTrialN,TrialsM2.thisN,TrialsM2.thisIndex,TrialsF2.thisRepN,TrialsF2.thisTrialN,TrialsF2.thisN,TrialsF2.thisIndex,TrialsM3.thisRepN,TrialsM3.thisTrialN,TrialsM3.thisN,TrialsM3.thisIndex,TrialsF3.thisRepN,TrialsF3.thisTrialN,TrialsF3.thisN,TrialsF3.thisIndex,InstrKey_resp.keys,InstrKey_resp.rt,Image0 _Position,Image1 _Position,Image2 _Position,Image3 _Position,Center_image,condition,code,correct_answer,accuracy,Key_Resp.keys,Key_Resp.rt,BreakKey_resp.keys,BreakKey_resp.rt,date,frameRate,expName,session,participant,
,,,,,,,,,,,,,,,,,,,,,,,,,,,,,,space,4.9832086619,,,,,,,,,,,,,,2017_Dec_11_1541,60.0040415789,MAFE4ImagesEEG,001,102633,
AFSA21.JPG,AFNE22.JPG,AFNE21.JPG,AFSA23.JPG,AFSA22.JPG,AFNE23.JPG,0,0,0,0,,,,,,,,,,,,,,,,,,,,,,,AMSA12.jpg,AMNE01.jpg,AMNE07.jpg,AMSA05.jpg,AMSA05.jpg,MS,2,num_4,16,num_4,1.75009926874,,,2017_Dec_11_1541,60.0040415789,MAFE4ImagesEEG,001,102633,
AMNE23.JPG,AMNE24.JPG,AMNE22.JPG,AMSA24.JPG,AMSA22.JPG,AMSA23.JPG,0,1,1,9,,,,,,,,,,,,,,,,,,,,,,,AMSA16.jpg,AMNE08.jpg,AMNE17.jpg,AMSA06.jpg,AMNE17.jpg,MN,1,num_2,32,num_8,1.06676731468,,,2017_Dec_11_1541,60.0040415789,MAFE4ImagesEEG,001,102633,
AMSA25.JPG,AMNE24.JPG,AMSA24.JPG,AMNE26.JPG,AMSA21.JPG,AMNE25.JPG,0,2,2,3,,,,,,,,,,,,,,,,,,,,,,,AMNE15.jpg,AMNE07.jpg,AMSA07.jpg,AMSA11.jpg,AMSA11.jpg,MS,2,num_4,16,num_4,1.50009493879,,,2017_Dec_11_1541,60.0040415789,MAFE4ImagesEEG,001,102633,
AFNE23.JPG,AFNE24.JPG,AFNE22.JPG,AFSA24.JPG,AFSA22.JPG,AFSA23.JPG,0,3,3,8,,,,,,,,,,,,,,,,,,,,,,,AMSA08.jpg,AMNE20.jpg,AMSA15.jpg,AMNE03.jpg,AMNE20.jpg,MN,1,num_6,32,num_4,2.03334340453,,,2017_Dec_11_1541,60.0040415789,MAFE4ImagesEEG,001,102633,
AMNE22.JPG,AMSA24.JPG,AMSA22.JPG,AMNE25.JPG,AMNE24.JPG,AMSA25.JPG,0,4,4,7,,,,,,,,,,,,,,,,,,,,,,,AMNE12.jpg,AMSA06.jpg,AMSA02.jpg,AMNE01.jpg,AMNE12.jpg,MN,1,num_8,32,num_2,1.85000599781,,,2017_Dec_11_1541,60.0040415789,MAFE4ImagesEEG,001,102633,
AMSA21.JPG,AMNE23.JPG,AMNE21.JPG,AMSA25.JPG,AMNE25.JPG,AMSA23.JPG,0,5,5,5,,,,,,,,,,,,,,,,,,,,,,,AMNE19.jpg,AMSA01.jpg,AMNE12.jpg,AMSA13.jpg,AMNE12.jpg,MN,1,num_2,16,num_2,1.41672520153,,,2017_Dec_11_1541,60.0040415789,MAFE4ImagesEEG,001,102633,
AFSA25.JPG,AFNE24.JPG,AFSA24.JPG,AFNE21.JPG,AFSA21.JPG,AFNE25.JPG,0,6,6,2,,,,,,,,,,,,,,,,,,,,,,,AMNE10.jpg,AMNE16.jpg,AMSA07.jpg,AMSA04.jpg,AMSA04.jpg,MS,2,num_4,16,num_4,1.10011841683,,,2017_Dec_11_1541,60.0040415789,MAFE4ImagesEEG,001,102633,
AFNE22.JPG,AFSA24.JPG,AFSA22.JPG,AFNE25.JPG,AFNE24.JPG,AFSA25.JPG,0,7,7,6,,,,,,,,,,,,,,,,,,,,,,,AMNE19.jpg,AMSA12.jpg,AMSA18.jpg,AMNE08.jpg,AMNE19.jpg,MN,1,num_8,16,num_8,1.15014025918,,,2017_Dec_11_1541,60.0040415789,MAFE4ImagesEEG,001,102633,
AFSA21.JPG,AFNE23.JPG,AFNE21.JPG,AFSA25.JPG,AFNE25.JPG,AFSA23.JPG,0,8,8,4,,,,,,,,,,,,,,,,,,,,,,,AMNE14.jpg,AMSA03.jpg,AMNE06.jpg,AMSA17.jpg,AMNE14.jpg,MN,1,num_8,16,num_8,1.2499183719,,,2017_Dec_11_1541,60.0040415789,MAFE4ImagesEEG,001,102633,
AMSA21.JPG,AMNE22.JPG,AMNE21.JPG,AMSA23.JPG,AMSA22.JPG,AMNE23.JPG,0,9,9,1,,,,,,,,,,,,,,,,,,,,,,,AMNE05.jpg,AMSA07.jpg,AMNE01.jpg,AMSA06.jpg,AMSA07.jpg,MS,2,num_6,16,num_6,1.90004387707,,,2017_Dec_11_1541,60.0040415789,MAFE4ImagesEEG,001,102633,
AMSA25.JPG,AMNE24.JPG,AMSA24.JPG,AMNE26.JPG,AMSA21.JPG,AMNE25.JPG,,,,,0,0,0,3,,,,,,,,,,,,,,,,,,,AFSA20.jpg,AFNE08.jpg,AFSA19.jpg,AFNE17.jpg,AFNE17.jpg,FN,3,num_4,32,num_2,1.60010334221,,,2017_Dec_11_1541,60.0040415789,MAFE4ImagesEEG,001,102633,
AFSA25.JPG,AFNE24.JPG,AFSA24.JPG,AFNE21.JPG,AFSA21.JPG,AFNE25.JPG,,,,,0,1,1,2,,,,,,,,,,,,,,,,,,,AFNE15.jpg,AFNE04.jpg,AFSA16.jpg,AFSA11.jpg,AFSA11.jpg,FS,4,num_4,16,num_4,2.30000692792,,,2017_Dec_11_1541,60.0040415789,MAFE4ImagesEEG,001,102633,
AMNE23.JPG,AMNE24.JPG,AMNE22.JPG,AMSA24.JPG,AMSA22.JPG,AMSA23.JPG,,,,,0,2,2,9,,,,,,,,,,,,,,,,,,,AFSA04.jpg,AFNE05.jpg,AFSA06.jpg,AFNE07.jpg,AFNE05.jpg,FN,3,num_6,32,num_8,2.74994274811,,,2017_Dec_11_1541,60.0040415789,MAFE4ImagesEEG,001,102633,
AFSA21.JPG,AFNE22.JPG,AFNE21.JPG,AFSA23.JPG,AFSA22.JPG,AFNE23.JPG,,,,,0,3,3,0,,,,,,,,,,,,,,,,,,,AFNE12.jpg,AFSA18.jpg,AFSA08.jpg,AFNE20.jpg,AFSA08.jpg,FS,4,num_2,16,num_2,1.13343295478,,,2017_Dec_11_1541,60.0040415789,MAFE4ImagesEEG,001,102633,
AFSA21.JPG,AFNE23.JPG,AFNE21.JPG,AFSA25.JPG,AFNE25.JPG,AFSA23.JPG,,,,,0,4,4,4,,,,,,,,,,,,,,,,,,,AFNE19.jpg,AFNE01.jpg,AFSA15.jpg,AFSA08.jpg,AFSA08.jpg,FS,4,num_4,16,num_4,0.916799292434,,,2017_Dec_11_1541,60.0040415789,MAFE4ImagesEEG,001,102633,
AMSA21.JPG,AMNE22.JPG,AMNE21.JPG,AMSA23.JPG,AMSA22.JPG,AMNE23.JPG,,,,,0,5,5,1,,,,,,,,,,,,,,,,,,,AFSA03.jpg,AFSA09.jpg,AFNE18.jpg,AFNE01.jpg,AFSA03.jpg,FS,4,num_8,32,num_6,1.30007620761,,,2017_Dec_11_1541,60.0040415789,MAFE4ImagesEEG,001,102633,
AMSA21.JPG,AMNE23.JPG,AMNE21.JPG,AMSA25.JPG,AMNE25.JPG,AMSA23.JPG,,,,,0,6,6,5,,,,,,,,,,,,,,,,,,,AFNE15.jpg,AFSA01.jpg,AFSA07.jpg,AFNE01.jpg,AFSA07.jpg,FS,4,num_2,32,num_8,1.38344466197,,,2017_Dec_11_1541,60.0040415789,MAFE4ImagesEEG,001,102633,
AFNE23.JPG,AFNE24.JPG,AFNE22.JPG,AFSA24.JPG,AFSA22.JPG,AFSA23.JPG,,,,,0,7,7,8,,,,,,,,,,,,,,,,,,,AFNE14.jpg,AFNE15.jpg,AFSA18.jpg,AFSA01.jpg,AFSA01.jpg,FS,4,num_4,32,num_2,1.81668151706,,,2017_Dec_11_1541,60.0040415789,MAFE4ImagesEEG,001,102633,
AMNE22.JPG,AMSA24.JPG,AMSA22.JPG,AMNE25.JPG,AMNE24.JPG,AMSA25.JPG,,,,,0,8,8,7,,,,,,,,,,,,,,,,,,,AFNE06.jpg,AFSA06.jpg,AFSA05.jpg,AFNE02.jpg,AFNE02.jpg,FN,3,num_4,16,num_4,1.50008884468,,,2017_Dec_11_1541,60.0040415789,MAFE4ImagesEEG,001,102633,
AFNE22.JPG,AFSA24.JPG,AFSA22.JPG,AFNE25.JPG,AFNE24.JPG,AFSA25.JPG,,,,,0,9,9,6,,,,,,,,,,,,,,,,,,,AFSA14.jpg,AFSA01.jpg,AFNE14.jpg,AFNE13.jpg,AFNE14.jpg,FN,3,num_2,32,num_8,1.9166953729,,,2017_Dec_11_1541,60.0040415789,MAFE4ImagesEEG,001,102633,
AMNE22.JPG,AMSA24.JPG,AMSA22.JPG,AMNE25.JPG,AMNE24.JPG,AMSA25.JPG,,,,,,,,,0,0,0,7,,,,,,,,,,,,,,,AMSA07.jpg,AMSA14.jpg,AMNE03.jpg,AMNE09.jpg,AMSA14.jpg,MS,2,num_6,16,num_6,0.583334135357,,,2017_Dec_11_1541,60.0040415789,MAFE4ImagesEEG,001,102633,
AMSA21.JPG,AMNE23.JPG,AMNE21.JPG,AMSA25.JPG,AMNE25.JPG,AMSA23.JPG,,,,,,,,,0,1,1,5,,,,,,,,,,,,,,,AMSA12.jpg,AMNE07.jpg,AMSA15.jpg,AMNE06.jpg,AMNE06.jpg,MN,1,num_4,16,num_4,1.15011043055,,,2017_Dec_11_1541,60.0040415789,MAFE4ImagesEEG,001,102633,
AFNE22.JPG,AFSA24.JPG,AFSA22.JPG,AFNE25.JPG,AFNE24.JPG,AFSA25.JPG,,,,,,,,,0,2,2,6,,,,,,,,,,,,,,,AMSA14.jpg,AMNE14.jpg,AMSA16.jpg,AMNE16.jpg,AMSA16.jpg,MS,2,num_2,32,num_4,1.46681087092,,,2017_Dec_11_1541,60.0040415789,MAFE4ImagesEEG,001,102633,
AMNE23.JPG,AMNE24.JPG,AMNE22.JPG,AMSA24.JPG,AMSA22.JPG,AMSA23.JPG,,,,,,,,,0,3,3,9,,,,,,,,,,,,,,,AMSA09.jpg,AMSA01.jpg,AMNE12.jpg,AMNE13.jpg,AMSA01.jpg,MS,2,num_6,32,num_2,1.63337810873,,,2017_Dec_11_1541,60.0040415789,MAFE4ImagesEEG,001,102633,
AMSA25.JPG,AMNE24.JPG,AMSA24.JPG,AMNE26.JPG,AMSA21.JPG,AMNE25.JPG,,,,,,,,,0,4,4,3,,,,,,,,,,,,,,,AMNE11.jpg,AMSA17.jpg,AMNE14.jpg,AMSA16.jpg,AMNE14.jpg,MN,1,num_2,16,num_2,1.86670624604,,,2017_Dec_11_1541,60.0040415789,MAFE4ImagesEEG,001,102633,
AFSA21.JPG,AFNE22.JPG,AFNE21.JPG,AFSA23.JPG,AFSA22.JPG,AFNE23.JPG,,,,,,,,,0,5,5,0,,,,,,,,,,,,,,,AMSA06.jpg,AMSA20.jpg,AMNE20.jpg,AMNE08.jpg,AMNE20.jpg,MN,1,num_2,16,num_2,1.16674653068,,,2017_Dec_11_1541,60.0040415789,MAFE4ImagesEEG,001,102633,
AFSA25.JPG,AFNE24.JPG,AFSA24.JPG,AFNE21.JPG,AFSA21.JPG,AFNE25.JPG,,,,,,,,,0,6,6,2,,,,,,,,,,,,,,,AMNE19.jpg,AMNE14.jpg,AMSA05.jpg,AMSA04.jpg,AMSA05.jpg,MS,2,num_2,32,num_4,1.5000339984,,,2017_Dec_11_1541,60.0040415789,MAFE4ImagesEEG,001,102633,
AFSA21.JPG,AFNE23.JPG,AFNE21.JPG,AFSA25.JPG,AFNE25.JPG,AFSA23.JPG,,,,,,,,,0,7,7,4,,,,,,,,,,,,,,,AMSA07.jpg,AMNE14.jpg,AMNE10.jpg,AMSA11.jpg,AMNE14.jpg,MN,1,num_6,16,num_6,0.716768373037,,,2017_Dec_11_1541,60.0040415789,MAFE4ImagesEEG,001,102633,
AFNE23.JPG,AFNE24.JPG,AFNE22.JPG,AFSA24.JPG,AFSA22.JPG,AFSA23.JPG,,,,,,,,,0,8,8,8,,,,,,,,,,,,,,,AMNE06.jpg,AMNE11.jpg,AMSA04.jpg,AMSA20.jpg,AMNE06.jpg,MN,1,num_8,16,num_8,1.28342310828,,,2017_Dec_11_1541,60.0040415789,MAFE4ImagesEEG,001,102633,
AMSA21.JPG,AMNE22.JPG,AMNE21.JPG,AMSA23.JPG,AMSA22.JPG,AMNE23.JPG,,,,,,,,,0,9,9,1,,,,,,,,,,,,,,,AMNE03.jpg,AMNE02.jpg,AMSA19.jpg,AMSA07.jpg,AMNE02.jpg,MN,1,num_6,32,num_8,1.51660017739,,,2017_Dec_11_1541,60.0040415789,MAFE4ImagesEEG,001,102633,
AMSA25.JPG,AMNE24.JPG,AMSA24.JPG,AMNE26.JPG,AMSA21.JPG,AMNE25.JPG,,,,,,,,,,,,,0,0,0,3,,,,,,,,,,,AFNE17.jpg,AFSA13.jpg,AFSA17.jpg,AFNE04.jpg,AFSA17.jpg,FS,4,num_2,32,num_4,0.950126338983,,,2017_Dec_11_1541,60.0040415789,MAFE4ImagesEEG,001,102633,
AMSA21.JPG,AMNE22.JPG,AMNE21.JPG,AMSA23.JPG,AMSA22.JPG,AMNE23.JPG,,,,,,,,,,,,,0,1,1,1,,,,,,,,,,,AFNE17.jpg,AFSA16.jpg,AFSA17.jpg,AFNE20.jpg,AFNE17.jpg,FN,3,num_8,32,num_4,1.21674527996,,,2017_Dec_11_1541,60.0040415789,MAFE4ImagesEEG,001,102633,
AFSA21.JPG,AFNE23.JPG,AFNE21.JPG,AFSA25.JPG,AFNE25.JPG,AFSA23.JPG,,,,,,,,,,,,,0,2,2,4,,,,,,,,,,,AFSA17.jpg,AFNE19.jpg,AFSA04.jpg,AFNE10.jpg,AFNE10.jpg,FN,3,num_4,32,num_2,0.783537291223,,,2017_Dec_11_1541,60.0040415789,MAFE4ImagesEEG,001,102633,
AMNE23.JPG,AMNE24.JPG,AMNE22.JPG,AMSA24.JPG,AMSA22.JPG,AMSA23.JPG,,,,,,,,,,,,,0,3,3,9,,,,,,,,,,,AFNE06.jpg,AFSA16.jpg,AFNE12.jpg,AFSA12.jpg,AFNE12.jpg,FN,3,num_2,16,num_2,1.7167055083,,,2017_Dec_11_1541,60.0040415789,MAFE4ImagesEEG,001,102633,
AFSA21.JPG,AFNE22.JPG,AFNE21.JPG,AFSA23.JPG,AFSA22.JPG,AFNE23.JPG,,,,,,,,,,,,,0,4,4,0,,,,,,,,,,,AFNE03.jpg,AFSA09.jpg,AFSA17.jpg,AFNE15.jpg,AFNE15.jpg,FN,3,num_4,16,num_4,1.5500904806,,,2017_Dec_11_1541,60.0040415789,MAFE4ImagesEEG,001,102633,
AFNE23.JPG,AFNE24.JPG,AFNE22.JPG,AFSA24.JPG,AFSA22.JPG,AFSA23.JPG,,,,,,,,,,,,,0,5,5,8,,,,,,,,,,,AFSA05.jpg,AFNE01.jpg,AFNE19.jpg,AFSA07.jpg,AFSA07.jpg,FS,4,num_4,16,num_4,1.15015950357,,,2017_Dec_11_1541,60.0040415789,MAFE4ImagesEEG,001,102633,
AFNE22.JPG,AFSA24.JPG,AFSA22.JPG,AFNE25.JPG,AFNE24.JPG,AFSA25.JPG,,,,,,,,,,,,,0,6,6,6,,,,,,,,,,,AFNE03.jpg,AFNE06.jpg,AFSA08.jpg,AFSA13.jpg,AFNE03.jpg,FN,3,num_8,16,num_8,1.20008416194,,,2017_Dec_11_1541,60.0040415789,MAFE4ImagesEEG,001,102633,
AMSA21.JPG,AMNE23.JPG,AMNE21.JPG,AMSA25.JPG,AMNE25.JPG,AMSA23.JPG,,,,,,,,,,,,,0,7,7,5,,,,,,,,,,,AFNE03.jpg,AFSA08.jpg,AFNE11.jpg,AFSA01.jpg,AFSA08.jpg,FS,4,num_6,16,num_6,1.55003755842,,,2017_Dec_11_1541,60.0040415789,MAFE4ImagesEEG,001,102633,
AMNE22.JPG,AMSA24.JPG,AMSA22.JPG,AMNE25.JPG,AMNE24.JPG,AMSA25.JPG,,,,,,,,,,,,,0,8,8,7,,,,,,,,,,,AFNE18.jpg,AFNE12.jpg,AFSA16.jpg,AFSA12.jpg,AFSA16.jpg,FS,4,num_2,32,num_4,1.00009718398,,,2017_Dec_11_1541,60.0040415789,MAFE4ImagesEEG,001,102633,
AFSA25.JPG,AFNE24.JPG,AFSA24.JPG,AFNE21.JPG,AFSA21.JPG,AFNE25.JPG,,,,,,,,,,,,,0,9,9,2,,,,,,,,,,,AFNE01.jpg,AFSA14.jpg,AFNE13.jpg,AFSA04.jpg,AFSA04.jpg,FS,4,num_4,32,num_2,0.700161780929,,,2017_Dec_11_1541,60.0040415789,MAFE4ImagesEEG,001,102633,
AFSA21.JPG,AFNE23.JPG,AFNE21.JPG,AFSA25.JPG,AFNE25.JPG,AFSA23.JPG,,,,,,,,,,,,,,,,,0,0,0,4,,,,,,,AMSA16.jpg,AMNE17.jpg,AMNE07.jpg,AMSA08.jpg,AMNE07.jpg,MN,1,num_2,32,num_6,0.650176823372,,,2017_Dec_11_1541,60.0040415789,MAFE4ImagesEEG,001,102633,
AFNE22.JPG,AFSA24.JPG,AFSA22.JPG,AFNE25.JPG,AFNE24.JPG,AFSA25.JPG,,,,,,,,,,,,,,,,,0,1,1,6,,,,,,,AMNE17.jpg,AMNE15.jpg,AMSA16.jpg,AMSA04.jpg,AMSA16.jpg,MS,2,num_2,32,num_4,0.800634614425,,,2017_Dec_11_1541,60.0040415789,MAFE4ImagesEEG,001,102633,
AFNE23.JPG,AFNE24.JPG,AFNE22.JPG,AFSA24.JPG,AFSA22.JPG,AFSA23.JPG,,,,,,,,,,,,,,,,,0,2,2,8,,,,,,,AMNE16.jpg,AMSA10.jpg,AMSA02.jpg,AMNE03.jpg,AMSA10.jpg,MS,2,num_6,32,num_8,1.83344559185,,,2017_Dec_11_1541,60.0040415789,MAFE4ImagesEEG,001,102633,
AMSA25.JPG,AMNE24.JPG,AMSA24.JPG,AMNE26.JPG,AMSA21.JPG,AMNE25.JPG,,,,,,,,,,,,,,,,,0,3,3,3,,,,,,,AMNE09.jpg,AMSA15.jpg,AMSA18.jpg,AMNE08.jpg,AMSA18.jpg,MS,2,num_2,32,num_4,0.633506404236,,,2017_Dec_11_1541,60.0040415789,MAFE4ImagesEEG,001,102633,
AMNE23.JPG,AMNE24.JPG,AMNE22.JPG,AMSA24.JPG,AMSA22.JPG,AMSA23.JPG,,,,,,,,,,,,,,,,,0,4,4,9,,,,,,,AMNE10.jpg,AMSA16.jpg,AMSA09.jpg,AMNE07.jpg,AMSA16.jpg,MS,2,num_6,16,num_6,0.566658904776,,,2017_Dec_11_1541,60.0040415789,MAFE4ImagesEEG,001,102633,
AMSA21.JPG,AMNE23.JPG,AMNE21.JPG,AMSA25.JPG,AMNE25.JPG,AMSA23.JPG,,,,,,,,,,,,,,,,,0,5,5,5,,,,,,,AMSA17.jpg,AMNE06.jpg,AMSA18.jpg,AMNE09.jpg,AMNE09.jpg,MN,1,num_4,16,num_4,0.866733829491,,,2017_Dec_11_1541,60.0040415789,MAFE4ImagesEEG,001,102633,
AFSA25.JPG,AFNE24.JPG,AFSA24.JPG,AFNE21.JPG,AFSA21.JPG,AFNE25.JPG,,,,,,,,,,,,,,,,,0,6,6,2,,,,,,,AMSA14.jpg,AMSA19.jpg,AMNE10.jpg,AMNE07.jpg,AMSA14.jpg,MS,2,num_8,16,num_8,1.51671403996,,,2017_Dec_11_1541,60.0040415789,MAFE4ImagesEEG,001,102633,
AMSA21.JPG,AMNE22.JPG,AMNE21.JPG,AMSA23.JPG,AMSA22.JPG,AMNE23.JPG,,,,,,,,,,,,,,,,,0,7,7,1,,,,,,,AMNE12.jpg,AMSA04.jpg,AMNE13.jpg,AMSA09.jpg,AMSA09.jpg,MS,2,num_4,16,num_4,1.08345794049,,,2017_Dec_11_1541,60.0040415789,MAFE4ImagesEEG,001,102633,
AMNE22.JPG,AMSA24.JPG,AMSA22.JPG,AMNE25.JPG,AMNE24.JPG,AMSA25.JPG,,,,,,,,,,,,,,,,,0,8,8,7,,,,,,,AMSA06.jpg,AMSA16.jpg,AMNE11.jpg,AMNE19.jpg,AMNE11.jpg,MN,1,num_2,16,num_2,3.64989136555,,,2017_Dec_11_1541,60.0040415789,MAFE4ImagesEEG,001,102633,
AFSA21.JPG,AFNE22.JPG,AFNE21.JPG,AFSA23.JPG,AFSA22.JPG,AFNE23.JPG,,,,,,,,,,,,,,,,,0,9,9,0,,,,,,,AMSA17.jpg,AMNE18.jpg,AMSA20.jpg,AMNE01.jpg,AMNE18.jpg,MN,1,num_6,32,num_2,1.18340668641,,,2017_Dec_11_1541,60.0040415789,MAFE4ImagesEEG,001,102633,
AFNE22.JPG,AFSA24.JPG,AFSA22.JPG,AFNE25.JPG,AFNE24.JPG,AFSA25.JPG,,,,,,,,,,,,,,,,,,,,,0,0,0,6,,,AFNE18.jpg,AFNE04.jpg,AFSA15.jpg,AFSA10.jpg,AFNE04.jpg,FN,3,num_6,32,num_8,1.28347282298,,,2017_Dec_11_1541,60.0040415789,MAFE4ImagesEEG,001,102633,
AFNE23.JPG,AFNE24.JPG,AFNE22.JPG,AFSA24.JPG,AFSA22.JPG,AFSA23.JPG,,,,,,,,,,,,,,,,,,,,,0,1,1,8,,,AFSA08.jpg,AFNE01.jpg,AFNE14.jpg,AFSA03.jpg,AFNE01.jpg,FN,3,num_6,16,num_6,1.18331270968,,,2017_Dec_11_1541,60.0040415789,MAFE4ImagesEEG,001,102633,
AMSA21.JPG,AMNE23.JPG,AMNE21.JPG,AMSA25.JPG,AMNE25.JPG,AMSA23.JPG,,,,,,,,,,,,,,,,,,,,,0,2,2,5,,,AFNE09.jpg,AFSA16.jpg,AFSA06.jpg,AFNE20.jpg,AFSA16.jpg,FS,4,num_6,32,num_4,1.20008544484,,,2017_Dec_11_1541,60.0040415789,MAFE4ImagesEEG,001,102633,
AMNE23.JPG,AMNE24.JPG,AMNE22.JPG,AMSA24.JPG,AMSA22.JPG,AMSA23.JPG,,,,,,,,,,,,,,,,,,,,,0,3,3,9,,,AFSA18.jpg,AFNE16.jpg,AFNE01.jpg,AFSA13.jpg,AFSA13.jpg,FS,4,num_4,32,num_2,2.71664424683,,,2017_Dec_11_1541,60.0040415789,MAFE4ImagesEEG,001,102633,
AFSA21.JPG,AFNE23.JPG,AFNE21.JPG,AFSA25.JPG,AFNE25.JPG,AFSA23.JPG,,,,,,,,,,,,,,,,,,,,,0,4,4,4,,,AFNE20.jpg,AFNE06.jpg,AFSA19.jpg,AFSA16.jpg,AFSA16.jpg,FS,4,num_4,16,num_4,1.03344058851,,,2017_Dec_11_1541,60.0040415789,MAFE4ImagesEEG,001,102633,
AMSA21.JPG,AMNE22.JPG,AMNE21.JPG,AMSA23.JPG,AMSA22.JPG,AMNE23.JPG,,,,,,,,,,,,,,,,,,,,,0,5,5,1,,,AFSA18.jpg,AFNE18.jpg,AFNE15.jpg,AFSA04.jpg,AFSA04.jpg,FS,4,num_4,16,num_4,1.1500696966,,,2017_Dec_11_1541,60.0040415789,MAFE4ImagesEEG,001,102633,
AMSA25.JPG,AMNE24.JPG,AMSA24.JPG,AMNE26.JPG,AMSA21.JPG,AMNE25.JPG,,,,,,,,,,,,,,,,,,,,,0,6,6,3,,,AFNE19.jpg,AFSA02.jpg,AFNE03.jpg,AFSA08.jpg,AFNE19.jpg,FN,3,num_8,32,num_2,1.36673735757,,,2017_Dec_11_1541,60.0040415789,MAFE4ImagesEEG,001,102633,
AFSA21.JPG,AFNE22.JPG,AFNE21.JPG,AFSA23.JPG,AFSA22.JPG,AFNE23.JPG,,,,,,,,,,,,,,,,,,,,,0,7,7,0,,,AFSA05.jpg,AFNE08.jpg,AFNE18.jpg,AFSA11.jpg,AFNE18.jpg,FN,3,num_2,32,num_6,0.916795443511,,,2017_Dec_11_1541,60.0040415789,MAFE4ImagesEEG,001,102633,
AMNE22.JPG,AMSA24.JPG,AMSA22.JPG,AMNE25.JPG,AMNE24.JPG,AMSA25.JPG,,,,,,,,,,,,,,,,,,,,,0,8,8,7,,,AFNE12.jpg,AFSA17.jpg,AFSA20.jpg,AFNE13.jpg,AFNE12.jpg,FN,3,num_8,16,num_8,0.950159375323,,,2017_Dec_11_1541,60.0040415789,MAFE4ImagesEEG,001,102633,
AFSA25.JPG,AFNE24.JPG,AFSA24.JPG,AFNE21.JPG,AFSA21.JPG,AFNE25.JPG,,,,,,,,,,,,,,,,,,,,,0,9,9,2,,,AFNE18.jpg,AFSA11.jpg,AFNE02.jpg,AFSA06.jpg,AFSA11.jpg,FS,4,num_6,32,num_4,0.933180404827,,,2017_Dec_11_1541,60.0040415789,MAFE4ImagesEEG,001,102633,
,,,,,,,,,,,,,,,,,,,,,,,,,,,,,,,,,,,,,,,,,,,space,14.8659271703,2017_Dec_11_1541,60.0040415789,MAFE4ImagesEEG,001,102633,
AFNE01.JPG,AFNE01.JPG,AFNE01.JPG,AFNE01.JPG,AFNE01.JPG,AFNE01.JPG,0,0,0,1,,,,,,,,,,,,,,,,,,,,,,,AMSA19.jpg,AMNE16.jpg,AMSA16.jpg,AMNE17.jpg,AMSA19.jpg,MS,2,num_8,16,num_8,0.516826619161,,,2017_Dec_11_1541,60.0040415789,MAFE4ImagesEEG,001,102633,
AFNE01.JPG,AFNE01.JPG,AFNE01.JPG,AFNE01.JPG,AFNE01.JPG,AFNE01.JPG,0,1,1,6,,,,,,,,,,,,,,,,,,,,,,,AMNE10.jpg,AMSA15.jpg,AMNE13.jpg,AMSA11.jpg,AMNE13.jpg,MN,1,num_2,32,num_4,0.666751021054,,,2017_Dec_11_1541,60.0040415789,MAFE4ImagesEEG,001,102633,
AFNE01.JPG,AFNE01.JPG,AFNE01.JPG,AFNE01.JPG,AFNE01.JPG,AFNE01.JPG,0,2,2,8,,,,,,,,,,,,,,,,,,,,,,,AMSA08.jpg,AMNE03.jpg,AMNE05.jpg,AMSA15.jpg,AMNE03.jpg,MN,1,num_6,32,num_4,0.950088171288,,,2017_Dec_11_1541,60.0040415789,MAFE4ImagesEEG,001,102633,
AFNE01.JPG,AFNE01.JPG,AFNE01.JPG,AFNE01.JPG,AFNE01.JPG,AFNE01.JPG,0,3,3,3,,,,,,,,,,,,,,,,,,,,,,,AMSA11.jpg,AMNE13.jpg,AMSA14.jpg,AMNE06.jpg,AMSA14.jpg,MS,2,num_2,16,num_2,2.24999342486,,,2017_Dec_11_1541,60.0040415789,MAFE4ImagesEEG,001,102633,
AFNE01.JPG,AFNE01.JPG,AFNE01.JPG,AFNE01.JPG,AFNE01.JPG,AFNE01.JPG,0,4,4,5,,,,,,,,,,,,,,,,,,,,,,,AMNE11.jpg,AMSA11.jpg,AMNE01.jpg,AMSA05.jpg,AMSA11.jpg,MS,2,num_6,16,num_6,0.683433628408,,,2017_Dec_11_1541,60.0040415789,MAFE4ImagesEEG,001,102633,
AFNE01.JPG,AFNE01.JPG,AFNE01.JPG,AFNE01.JPG,AFNE01.JPG,AFNE01.JPG,0,5,5,7,,,,,,,,,,,,,,,,,,,,,,,AMNE07.jpg,AMNE04.jpg,AMSA06.jpg,AMSA15.jpg,AMSA15.jpg,MS,2,num_4,16,num_4,1.01672302047,,,2017_Dec_11_1541,60.0040415789,MAFE4ImagesEEG,001,102633,
AFNE01.JPG,AFNE01.JPG,AFNE01.JPG,AFNE01.JPG,AFNE01.JPG,AFNE01.JPG,0,6,6,4,,,,,,,,,,,,,,,,,,,,,,,AMNE17.jpg,AMNE13.jpg,AMSA05.jpg,AMSA06.jpg,AMNE13.jpg,MN,1,num_6,32,num_4,0.88347769808,,,2017_Dec_11_1541,60.0040415789,MAFE4ImagesEEG,001,102633,
AFNE01.JPG,AFNE01.JPG,AFNE01.JPG,AFNE01.JPG,AFNE01.JPG,AFNE01.JPG,0,7,7,9,,,,,,,,,,,,,,,,,,,,,,,AMSA15.jpg,AMNE13.jpg,AMSA11.jpg,AMNE02.jpg,AMNE13.jpg,MN,1,num_6,32,num_8,0.633459576173,,,2017_Dec_11_1541,60.0040415789,MAFE4ImagesEEG,001,102633,
AFNE01.JPG,AFNE01.JPG,AFNE01.JPG,AFNE01.JPG,AFNE01.JPG,AFNE01.JPG,0,8,8,0,,,,,,,,,,,,,,,,,,,,,,,AMSA12.jpg,AMSA17.jpg,AMNE06.jpg,AMNE14.jpg,AMSA12.jpg,MS,2,num_8,32,num_2,1.33339459449,,,2017_Dec_11_1541,60.0040415789,MAFE4ImagesEEG,001,102633,
AFNE01.JPG,AFNE01.JPG,AFNE01.JPG,AFNE01.JPG,AFNE01.JPG,AFNE01.JPG,0,9,9,2,,,,,,,,,,,,,,,,,,,,,,,AMSA06.jpg,AMSA16.jpg,AMNE09.jpg,AMNE10.jpg,AMNE09.jpg,MN,1,num_2,16,num_2,3.08363178116,,,2017_Dec_11_1541,60.0040415789,MAFE4ImagesEEG,001,102633,
AFNE01.JPG,AFNE01.JPG,AFNE01.JPG,AFNE01.JPG,AFNE01.JPG,AFNE01.JPG,1,0,10,5,,,,,,,,,,,,,,,,,,,,,,,AMSA03.jpg,AMNE14.jpg,AMSA06.jpg,AMNE16.jpg,AMSA06.jpg,MS,2,num_2,32,num_8,0.716758430004,,,2017_Dec_11_1541,60.0040415789,MAFE4ImagesEEG,001,102633,
AFNE01.JPG,AFNE01.JPG,AFNE01.JPG,AFNE01.JPG,AFNE01.JPG,AFNE01.JPG,1,1,11,1,,,,,,,,,,,,,,,,,,,,,,,AMSA17.jpg,AMNE14.jpg,AMSA10.jpg,AMNE10.jpg,AMSA10.jpg,MS,2,num_2,32,num_4,1.13337490126,,,2017_Dec_11_1541,60.0040415789,MAFE4ImagesEEG,001,102633,
AFNE01.JPG,AFNE01.JPG,AFNE01.JPG,AFNE01.JPG,AFNE01.JPG,AFNE01.JPG,1,2,12,0,,,,,,,,,,,,,,,,,,,,,,,AMNE13.jpg,AMSA05.jpg,AMNE19.jpg,AMSA17.jpg,AMSA17.jpg,MS,2,num_4,32,num_8,0.700126499403,,,2017_Dec_11_1541,60.0040415789,MAFE4ImagesEEG,001,102633,
AFNE01.JPG,AFNE01.JPG,AFNE01.JPG,AFNE01.JPG,AFNE01.JPG,AFNE01.JPG,1,3,13,2,,,,,,,,,,,,,,,,,,,,,,,AMNE17.jpg,AMNE02.jpg,AMSA08.jpg,AMSA17.jpg,AMSA17.jpg,MS,2,num_4,32,num_8,1.34997681063,,,2017_Dec_11_1541,60.0040415789,MAFE4ImagesEEG,001,102633,
AFNE01.JPG,AFNE01.JPG,AFNE01.JPG,AFNE01.JPG,AFNE01.JPG,AFNE01.JPG,1,4,14,9,,,,,,,,,,,,,,,,,,,,,,,AMSA11.jpg,AMNE18.jpg,AMNE13.jpg,AMSA15.jpg,AMNE13.jpg,MN,1,num_2,16,num_2,1.33342666854,,,2017_Dec_11_1541,60.0040415789,MAFE4ImagesEEG,001,102633,
AFNE01.JPG,AFNE01.JPG,AFNE01.JPG,AFNE01.JPG,AFNE01.JPG,AFNE01.JPG,1,5,15,6,,,,,,,,,,,,,,,,,,,,,,,AMSA11.jpg,AMNE17.jpg,AMNE04.jpg,AMSA01.jpg,AMNE04.jpg,MN,1,num_2,32,num_8,1.01661236538,,,2017_Dec_11_1541,60.0040415789,MAFE4ImagesEEG,001,102633,
AFNE01.JPG,AFNE01.JPG,AFNE01.JPG,AFNE01.JPG,AFNE01.JPG,AFNE01.JPG,1,6,16,7,,,,,,,,,,,,,,,,,,,,,,,AMNE20.jpg,AMSA03.jpg,AMSA18.jpg,AMNE18.jpg,AMNE18.jpg,MN,1,num_4,32,num_8,1.31674181577,,,2017_Dec_11_1541,60.0040415789,MAFE4ImagesEEG,001,102633,
AFNE01.JPG,AFNE01.JPG,AFNE01.JPG,AFNE01.JPG,AFNE01.JPG,AFNE01.JPG,1,7,17,3,,,,,,,,,,,,,,,,,,,,,,,AMNE17.jpg,AMNE20.jpg,AMSA19.jpg,AMSA20.jpg,AMNE17.jpg,MN,1,num_8,32,num_4,1.10009243712,,,2017_Dec_11_1541,60.0040415789,MAFE4ImagesEEG,001,102633,
AFNE01.JPG,AFNE01.JPG,AFNE01.JPG,AFNE01.JPG,AFNE01.JPG,AFNE01.JPG,1,8,18,4,,,,,,,,,,,,,,,,,,,,,,,AMNE15.jpg,AMSA19.jpg,AMNE01.jpg,AMSA11.jpg,AMSA11.jpg,MS,2,num_4,16,num_4,0.950113509549,,,2017_Dec_11_1541,60.0040415789,MAFE4ImagesEEG,001,102633,
AFNE01.JPG,AFNE01.JPG,AFNE01.JPG,AFNE01.JPG,AFNE01.JPG,AFNE01.JPG,1,9,19,8,,,,,,,,,,,,,,,,,,,,,,,AMNE05.jpg,AMSA15.jpg,AMSA09.jpg,AMNE12.jpg,AMNE12.jpg,MN,1,num_4,16,num_4,0.916836498072,,,2017_Dec_11_1541,60.0040415789,MAFE4ImagesEEG,001,102633,
AFNE01.JPG,AFNE01.JPG,AFNE01.JPG,AFNE01.JPG,AFNE01.JPG,AFNE01.JPG,2,0,20,7,,,,,,,,,,,,,,,,,,,,,,,AMNE01.jpg,AMSA02.jpg,AMSA04.jpg,AMNE19.jpg,AMNE01.jpg,MN,1,num_8,32,num_6,1.41680249968,,,2017_Dec_11_1541,60.0040415789,MAFE4ImagesEEG,001,102633,
AFNE01.JPG,AFNE01.JPG,AFNE01.JPG,AFNE01.JPG,AFNE01.JPG,AFNE01.JPG,2,1,21,0,,,,,,,,,,,,,,,,,,,,,,,AMSA17.jpg,AMNE06.jpg,AMSA12.jpg,AMNE03.jpg,AMNE03.jpg,MN,1,num_4,16,num_4,0.716752977576,,,2017_Dec_11_1541,60.0040415789,MAFE4ImagesEEG,001,102633,
AFNE01.JPG,AFNE01.JPG,AFNE01.JPG,AFNE01.JPG,AFNE01.JPG,AFNE01.JPG,2,2,22,5,,,,,,,,,,,,,,,,,,,,,,,AMNE11.jpg,AMSA01.jpg,AMNE14.jpg,AMSA06.jpg,AMNE11.jpg,MN,1,num_8,32,num_4,0.883471924812,,,2017_Dec_11_1541,60.0040415789,MAFE4ImagesEEG,001,102633,
AFNE01.JPG,AFNE01.JPG,AFNE01.JPG,AFNE01.JPG,AFNE01.JPG,AFNE01.JPG,2,3,23,3,,,,,,,,,,,,,,,,,,,,,,,AMSA16.jpg,AMNE11.jpg,AMSA05.jpg,AMNE01.jpg,AMSA05.jpg,MS,2,num_2,32,num_8,0.95012922585,,,2017_Dec_11_1541,60.0040415789,MAFE4ImagesEEG,001,102633,
AFNE01.JPG,AFNE01.JPG,AFNE01.JPG,AFNE01.JPG,AFNE01.JPG,AFNE01.JPG,2,4,24,4,,,,,,,,,,,,,,,,,,,,,,,AMNE01.jpg,AMSA09.jpg,AMNE11.jpg,AMSA19.jpg,AMSA09.jpg,MS,2,num_6,16,num_6,2.3665975153,,,2017_Dec_11_1541,60.0040415789,MAFE4ImagesEEG,001,102633,
AFNE01.JPG,AFNE01.JPG,AFNE01.JPG,AFNE01.JPG,AFNE01.JPG,AFNE01.JPG,2,5,25,2,,,,,,,,,,,,,,,,,,,,,,,AMNE08.jpg,AMSA19.jpg,AMSA02.jpg,AMNE19.jpg,AMSA02.jpg,MS,2,num_2,16,num_2,0.633478499949,,,2017_Dec_11_1541,60.0040415789,MAFE4ImagesEEG,001,102633,
AFNE01.JPG,AFNE01.JPG,AFNE01.JPG,AFNE01.JPG,AFNE01.JPG,AFNE01.JPG,2,6,26,9,,,,,,,,,,,,,,,,,,,,,,,AMNE05.jpg,AMNE17.jpg,AMSA06.jpg,AMSA12.jpg,AMSA06.jpg,MS,2,num_2,32,num_6,0.866754677612,,,2017_Dec_11_1541,60.0040415789,MAFE4ImagesEEG,001,102633,
AFNE01.JPG,AFNE01.JPG,AFNE01.JPG,AFNE01.JPG,AFNE01.JPG,AFNE01.JPG,2,7,27,6,,,,,,,,,,,,,,,,,,,,,,,AMSA07.jpg,AMNE17.jpg,AMNE07.jpg,AMSA03.jpg,AMNE17.jpg,MN,1,num_6,32,num_4,1.00009686314,,,2017_Dec_11_1541,60.0040415789,MAFE4ImagesEEG,001,102633,
AFNE01.JPG,AFNE01.JPG,AFNE01.JPG,AFNE01.JPG,AFNE01.JPG,AFNE01.JPG,2,8,28,8,,,,,,,,,,,,,,,,,,,,,,,AMSA09.jpg,AMNE07.jpg,AMSA04.jpg,AMNE09.jpg,AMNE07.jpg,MN,1,num_6,16,num_6,2.8828593127,,,2017_Dec_11_1541,60.0040415789,MAFE4ImagesEEG,001,102633,
AFNE01.JPG,AFNE01.JPG,AFNE01.JPG,AFNE01.JPG,AFNE01.JPG,AFNE01.JPG,2,9,29,1,,,,,,,,,,,,,,,,,,,,,,,AMNE15.jpg,AMNE07.jpg,AMSA06.jpg,AMSA12.jpg,AMSA12.jpg,MS,2,num_4,16,num_4,1.20010853815,,,2017_Dec_11_1541,60.0040415789,MAFE4ImagesEEG,001,102633,
AFNE01.JPG,AFNE01.JPG,AFNE01.JPG,AFNE01.JPG,AFNE01.JPG,AFNE01.JPG,3,0,30,3,,,,,,,,,,,,,,,,,,,,,,,AMSA18.jpg,AMNE17.jpg,AMNE04.jpg,AMSA20.jpg,AMNE17.jpg,MN,1,num_6,32,num_8,0.91681180126,,,2017_Dec_11_1541,60.0040415789,MAFE4ImagesEEG,001,102633,
AFNE01.JPG,AFNE01.JPG,AFNE01.JPG,AFNE01.JPG,AFNE01.JPG,AFNE01.JPG,3,1,31,2,,,,,,,,,,,,,,,,,,,,,,,AMNE18.jpg,AMSA15.jpg,AMNE01.jpg,AMSA08.jpg,AMSA08.jpg,MS,2,num_4,16,num_4,1.21671641339,,,2017_Dec_11_1541,60.0040415789,MAFE4ImagesEEG,001,102633,
AFNE01.JPG,AFNE01.JPG,AFNE01.JPG,AFNE01.JPG,AFNE01.JPG,AFNE01.JPG,3,2,32,1,,,,,,,,,,,,,,,,,,,,,,,AMSA03.jpg,AMNE08.jpg,AMNE03.jpg,AMSA17.jpg,AMSA17.jpg,MS,2,num_4,32,num_2,1.1334352002,,,2017_Dec_11_1541,60.0040415789,MAFE4ImagesEEG,001,102633,
AFNE01.JPG,AFNE01.JPG,AFNE01.JPG,AFNE01.JPG,AFNE01.JPG,AFNE01.JPG,3,3,33,9,,,,,,,,,,,,,,,,,,,,,,,AMSA05.jpg,AMNE09.jpg,AMSA16.jpg,AMNE02.jpg,AMNE02.jpg,MN,1,num_4,32,num_8,3.89976675832,,,2017_Dec_11_1541,60.0040415789,MAFE4ImagesEEG,001,102633,
AFNE01.JPG,AFNE01.JPG,AFNE01.JPG,AFNE01.JPG,AFNE01.JPG,AFNE01.JPG,3,4,34,5,,,,,,,,,,,,,,,,,,,,,,,AMSA07.jpg,AMNE13.jpg,AMNE12.jpg,AMSA20.jpg,AMNE12.jpg,MN,1,num_2,32,num_6,1.33343019662,,,2017_Dec_11_1541,60.0040415789,MAFE4ImagesEEG,001,102633,
AFNE01.JPG,AFNE01.JPG,AFNE01.JPG,AFNE01.JPG,AFNE01.JPG,AFNE01.JPG,3,5,35,0,,,,,,,,,,,,,,,,,,,,,,,AMNE06.jpg,AMSA16.jpg,AMNE18.jpg,AMSA14.jpg,AMNE18.jpg,MN,1,num_2,32,num_6,0.966810870916,,,2017_Dec_11_1541,60.0040415789,MAFE4ImagesEEG,001,102633,
AFNE01.JPG,AFNE01.JPG,AFNE01.JPG,AFNE01.JPG,AFNE01.JPG,AFNE01.JPG,3,6,36,6,,,,,,,,,,,,,,,,,,,,,,,AMNE03.jpg,AMSA08.jpg,AMNE17.jpg,AMSA05.jpg,AMNE17.jpg,MN,1,num_2,32,num_8,1.03348613344,,,2017_Dec_11_1541,60.0040415789,MAFE4ImagesEEG,001,102633,
AFNE01.JPG,AFNE01.JPG,AFNE01.JPG,AFNE01.JPG,AFNE01.JPG,AFNE01.JPG,3,7,37,7,,,,,,,,,,,,,,,,,,,,,,,AMSA15.jpg,AMNE02.jpg,AMSA03.jpg,AMNE09.jpg,AMNE09.jpg,MN,1,num_4,16,num_4,1.2334326983,,,2017_Dec_11_1541,60.0040415789,MAFE4ImagesEEG,001,102633,
AFNE01.JPG,AFNE01.JPG,AFNE01.JPG,AFNE01.JPG,AFNE01.JPG,AFNE01.JPG,3,8,38,4,,,,,,,,,,,,,,,,,,,,,,,AMSA06.jpg,AMSA15.jpg,AMNE07.jpg,AMNE20.jpg,AMNE07.jpg,MN,1,num_2,16,num_2,0.900088139111,,,2017_Dec_11_1541,60.0040415789,MAFE4ImagesEEG,001,102633,
AFNE01.JPG,AFNE01.JPG,AFNE01.JPG,AFNE01.JPG,AFNE01.JPG,AFNE01.JPG,3,9,39,8,,,,,,,,,,,,,,,,,,,,,,,AMSA09.jpg,AMNE18.jpg,AMSA15.jpg,AMNE04.jpg,AMSA09.jpg,MS,2,num_8,32,num_2,1.30008647125,,,2017_Dec_11_1541,60.0040415789,MAFE4ImagesEEG,001,102633,
AFNE01.JPG,AFNE01.JPG,AFNE01.JPG,AFNE01.JPG,AFNE01.JPG,AFNE01.JPG,4,0,40,1,,,,,,,,,,,,,,,,,,,,,,,AMSA11.jpg,AMNE08.jpg,AMSA10.jpg,AMNE18.jpg,AMSA11.jpg,MS,2,num_8,32,num_2,1.21676965617,,,2017_Dec_11_1541,60.0040415789,MAFE4ImagesEEG,001,102633,
AFNE01.JPG,AFNE01.JPG,AFNE01.JPG,AFNE01.JPG,AFNE01.JPG,AFNE01.JPG,4,1,41,7,,,,,,,,,,,,,,,,,,,,,,,AMNE04.jpg,AMNE14.jpg,AMSA06.jpg,AMSA05.jpg,AMNE04.jpg,MN,1,num_8,32,num_4,0.850136538735,,,2017_Dec_11_1541,60.0040415789,MAFE4ImagesEEG,001,102633,
AFNE01.JPG,AFNE01.JPG,AFNE01.JPG,AFNE01.JPG,AFNE01.JPG,AFNE01.JPG,4,2,42,9,,,,,,,,,,,,,,,,,,,,,,,AMNE16.jpg,AMSA01.jpg,AMNE18.jpg,AMSA12.jpg,AMNE18.jpg,MN,1,num_2,32,num_8,1.11674906453,,,2017_Dec_11_1541,60.0040415789,MAFE4ImagesEEG,001,102633,
AFNE01.JPG,AFNE01.JPG,AFNE01.JPG,AFNE01.JPG,AFNE01.JPG,AFNE01.JPG,4,3,43,4,,,,,,,,,,,,,,,,,,,,,,,AMNE17.jpg,AMSA14.jpg,AMNE08.jpg,AMSA01.jpg,AMSA01.jpg,MS,2,num_4,32,num_6,0.316778379958,,,2017_Dec_11_1541,60.0040415789,MAFE4ImagesEEG,001,102633,
AFNE01.JPG,AFNE01.JPG,AFNE01.JPG,AFNE01.JPG,AFNE01.JPG,AFNE01.JPG,4,4,44,3,,,,,,,,,,,,,,,,,,,,,,,AMNE05.jpg,AMSA17.jpg,AMNE09.jpg,AMSA12.jpg,AMNE05.jpg,MN,1,num_8,32,num_6,0.550179646118,,,2017_Dec_11_1541,60.0040415789,MAFE4ImagesEEG,001,102633,
AFNE01.JPG,AFNE01.JPG,AFNE01.JPG,AFNE01.JPG,AFNE01.JPG,AFNE01.JPG,4,5,45,0,,,,,,,,,,,,,,,,,,,,,,,AMNE05.jpg,AMNE11.jpg,AMSA13.jpg,AMSA10.jpg,AMNE11.jpg,MN,1,num_6,32,num_2,0.3834828299,,,2017_Dec_11_1541,60.0040415789,MAFE4ImagesEEG,001,102633,
AFNE01.JPG,AFNE01.JPG,AFNE01.JPG,AFNE01.JPG,AFNE01.JPG,AFNE01.JPG,4,6,46,6,,,,,,,,,,,,,,,,,,,,,,,AMSA13.jpg,AMNE20.jpg,AMSA06.jpg,AMNE08.jpg,AMSA06.jpg,MS,2,num_2,32,num_8,0.383541204268,,,2017_Dec_11_1541,60.0040415789,MAFE4ImagesEEG,001,102633,
AFNE01.JPG,AFNE01.JPG,AFNE01.JPG,AFNE01.JPG,AFNE01.JPG,AFNE01.JPG,4,7,47,8,,,,,,,,,,,,,,,,,,,,,,,AMSA19.jpg,AMSA18.jpg,AMNE19.jpg,AMNE04.jpg,AMSA19.jpg,MS,2,num_8,32,num_4,1.06659539836,,,2017_Dec_11_1541,60.0040415789,MAFE4ImagesEEG,001,102633,
AFNE01.JPG,AFNE01.JPG,AFNE01.JPG,AFNE01.JPG,AFNE01.JPG,AFNE01.JPG,4,8,48,5,,,,,,,,,,,,,,,,,,,,,,,AMSA11.jpg,AMSA05.jpg,AMNE05.jpg,AMNE08.jpg,AMSA11.jpg,MS,2,num_8,32,num_4,0.650162711041,,,2017_Dec_11_1541,60.0040415789,MAFE4ImagesEEG,001,102633,
AFNE01.JPG,AFNE01.JPG,AFNE01.JPG,AFNE01.JPG,AFNE01.JPG,AFNE01.JPG,4,9,49,2,,,,,,,,,,,,,,,,,,,,,,,AMNE19.jpg,AMSA18.jpg,AMNE17.jpg,AMSA09.jpg,AMSA09.jpg,MS,2,num_4,32,num_2,1.21674527996,,,2017_Dec_11_1541,60.0040415789,MAFE4ImagesEEG,001,102633,
AFNE01.JPG,AFNE01.JPG,AFNE01.JPG,AFNE01.JPG,AFNE01.JPG,AFNE01.JPG,5,0,50,9,,,,,,,,,,,,,,,,,,,,,,,AMSA01.jpg,AMNE13.jpg,AMNE06.jpg,AMSA19.jpg,AMNE06.jpg,MN,1,num_2,32,num_8,1.266756217,,,2017_Dec_11_1541,60.0040415789,MAFE4ImagesEEG,001,102633,
AFNE01.JPG,AFNE01.JPG,AFNE01.JPG,AFNE01.JPG,AFNE01.JPG,AFNE01.JPG,5,1,51,8,,,,,,,,,,,,,,,,,,,,,,,AMSA10.jpg,AMNE15.jpg,AMSA04.jpg,AMNE03.jpg,AMNE03.jpg,MN,1,num_4,16,num_4,0.700121688424,,,2017_Dec_11_1541,60.0040415789,MAFE4ImagesEEG,001,102633,
AFNE01.JPG,AFNE01.JPG,AFNE01.JPG,AFNE01.JPG,AFNE01.JPG,AFNE01.JPG,5,2,52,3,,,,,,,,,,,,,,,,,,,,,,,AMNE08.jpg,AMNE18.jpg,AMSA14.jpg,AMSA18.jpg,AMSA14.jpg,MS,2,num_2,16,num_2,0.533522697631,,,2017_Dec_11_1541,60.0040415789,MAFE4ImagesEEG,001,102633,
AFNE01.JPG,AFNE01.JPG,AFNE01.JPG,AFNE01.JPG,AFNE01.JPG,AFNE01.JPG,5,3,53,5,,,,,,,,,,,,,,,,,,,,,,,AMNE16.jpg,AMSA01.jpg,AMNE03.jpg,AMSA06.jpg,AMSA01.jpg,MS,2,num_6,16,num_6,0.566810935037,,,2017_Dec_11_1541,60.0040415789,MAFE4ImagesEEG,001,102633,
AFNE01.JPG,AFNE01.JPG,AFNE01.JPG,AFNE01.JPG,AFNE01.JPG,AFNE01.JPG,5,4,54,6,,,,,,,,,,,,,,,,,,,,,,,AMSA07.jpg,AMNE03.jpg,AMNE07.jpg,AMSA18.jpg,AMSA18.jpg,MS,2,num_4,16,num_4,1.1001912246,,,2017_Dec_11_1541,60.0040415789,MAFE4ImagesEEG,001,102633,
AFNE01.JPG,AFNE01.JPG,AFNE01.JPG,AFNE01.JPG,AFNE01.JPG,AFNE01.JPG,5,5,55,1,,,,,,,,,,,,,,,,,,,,,,,AMNE20.jpg,AMSA03.jpg,AMNE11.jpg,AMSA19.jpg,AMSA19.jpg,MS,2,num_4,32,num_8,1.21674046875,,,2017_Dec_11_1541,60.0040415789,MAFE4ImagesEEG,001,102633,
AFNE01.JPG,AFNE01.JPG,AFNE01.JPG,AFNE01.JPG,AFNE01.JPG,AFNE01.JPG,5,6,56,2,,,,,,,,,,,,,,,,,,,,,,,AMSA05.jpg,AMNE04.jpg,AMNE18.jpg,AMSA17.jpg,AMNE04.jpg,MN,1,num_6,32,num_2,2.38329295232,,,2017_Dec_11_1541,60.0040415789,MAFE4ImagesEEG,001,102633,
AFNE01.JPG,AFNE01.JPG,AFNE01.JPG,AFNE01.JPG,AFNE01.JPG,AFNE01.JPG,5,7,57,4,,,,,,,,,,,,,,,,,,,,,,,AMSA19.jpg,AMNE04.jpg,AMNE19.jpg,AMSA09.jpg,AMSA19.jpg,MS,2,num_8,16,num_8,2.56665762188,,,2017_Dec_11_1541,60.0040415789,MAFE4ImagesEEG,001,102633,
AFNE01.JPG,AFNE01.JPG,AFNE01.JPG,AFNE01.JPG,AFNE01.JPG,AFNE01.JPG,5,8,58,7,,,,,,,,,,,,,,,,,,,,,,,AMSA02.jpg,AMSA18.jpg,AMNE05.jpg,AMNE10.jpg,AMSA02.jpg,MS,2,num_8,32,num_4,1.40008589393,,,2017_Dec_11_1541,60.0040415789,MAFE4ImagesEEG,001,102633,
AFNE01.JPG,AFNE01.JPG,AFNE01.JPG,AFNE01.JPG,AFNE01.JPG,AFNE01.JPG,5,9,59,0,,,,,,,,,,,,,,,,,,,,,,,AMSA09.jpg,AMNE08.jpg,AMSA14.jpg,AMNE07.jpg,AMNE08.jpg,MN,1,num_6,32,num_4,1.11658035568,,,2017_Dec_11_1541,60.0040415789,MAFE4ImagesEEG,001,102633,
,,,,,,,,,,,,,,,,,,,,,,,,,,,,,,,,,,,,,,,,,,,space,13.4821053192,2017_Dec_11_1541,60.0040415789,MAFE4ImagesEEG,001,102633,
AFNE01.JPG,AFNE01.JPG,AFNE01.JPG,AFNE01.JPG,AFNE01.JPG,AFNE01.JPG,,,,,0,0,0,7,,,,,,,,,,,,,,,,,,,AFNE16.jpg,AFSA17.jpg,AFSA11.jpg,AFNE01.jpg,AFSA17.jpg,FS,4,num_6,16,num_6,1.33365920442,,,2017_Dec_11_1541,60.0040415789,MAFE4ImagesEEG,001,102633,
AFNE01.JPG,AFNE01.JPG,AFNE01.JPG,AFNE01.JPG,AFNE01.JPG,AFNE01.JPG,,,,,0,1,1,6,,,,,,,,,,,,,,,,,,,AFSA12.jpg,AFSA03.jpg,AFNE02.jpg,AFNE10.jpg,AFNE02.jpg,FN,3,num_2,16,num_2,0.783502651379,,,2017_Dec_11_1541,60.0040415789,MAFE4ImagesEEG,001,102633,
AFNE01.JPG,AFNE01.JPG,AFNE01.JPG,AFNE01.JPG,AFNE01.JPG,AFNE01.JPG,,,,,0,2,2,2,,,,,,,,,,,,,,,,,,,AFNE12.jpg,AFSA15.jpg,AFSA08.jpg,AFNE11.jpg,AFSA08.jpg,FS,4,num_2,16,num_2,0.950134999119,,,2017_Dec_11_1541,60.0040415789,MAFE4ImagesEEG,001,102633,
AFNE01.JPG,AFNE01.JPG,AFNE01.JPG,AFNE01.JPG,AFNE01.JPG,AFNE01.JPG,,,,,0,3,3,0,,,,,,,,,,,,,,,,,,,AFNE04.jpg,AFSA09.jpg,AFSA05.jpg,AFNE06.jpg,AFSA09.jpg,FS,4,num_6,32,num_2,0.833454572828,,,2017_Dec_11_1541,60.0040415789,MAFE4ImagesEEG,001,102633,
AFNE01.JPG,AFNE01.JPG,AFNE01.JPG,AFNE01.JPG,AFNE01.JPG,AFNE01.JPG,,,,,0,4,4,5,,,,,,,,,,,,,,,,,,,AFNE11.jpg,AFSA18.jpg,AFSA19.jpg,AFNE04.jpg,AFSA19.jpg,FS,4,num_2,32,num_4,1.10009147483,,,2017_Dec_11_1541,60.0040415789,MAFE4ImagesEEG,001,102633,
AFNE01.JPG,AFNE01.JPG,AFNE01.JPG,AFNE01.JPG,AFNE01.JPG,AFNE01.JPG,,,,,0,5,5,8,,,,,,,,,,,,,,,,,,,AFSA10.jpg,AFNE10.jpg,AFNE15.jpg,AFSA07.jpg,AFNE15.jpg,FN,3,num_2,16,num_2,0.716760996031,,,2017_Dec_11_1541,60.0040415789,MAFE4ImagesEEG,001,102633,
AFNE01.JPG,AFNE01.JPG,AFNE01.JPG,AFNE01.JPG,AFNE01.JPG,AFNE01.JPG,,,,,0,6,6,4,,,,,,,,,,,,,,,,,,,AFNE09.jpg,AFSA20.jpg,AFSA12.jpg,AFNE02.jpg,AFNE09.jpg,FN,3,num_8,16,num_8,0.933278871933,,,2017_Dec_11_1541,60.0040415789,MAFE4ImagesEEG,001,102633,
AFNE01.JPG,AFNE01.JPG,AFNE01.JPG,AFNE01.JPG,AFNE01.JPG,AFNE01.JPG,,,,,0,7,7,9,,,,,,,,,,,,,,,,,,,AFSA16.jpg,AFSA08.jpg,AFNE09.jpg,AFNE04.jpg,AFNE09.jpg,FN,3,num_2,32,num_4,0.816848621937,,,2017_Dec_11_1541,60.0040415789,MAFE4ImagesEEG,001,102633,
AFNE01.JPG,AFNE01.JPG,AFNE01.JPG,AFNE01.JPG,AFNE01.JPG,AFNE01.JPG,,,,,0,8,8,1,,,,,,,,,,,,,,,,,,,AFSA19.jpg,AFNE14.jpg,AFNE20.jpg,AFSA12.jpg,AFSA12.jpg,FS,4,num_4,16,num_4,0.699853550643,,,2017_Dec_11_1541,60.0040415789,MAFE4ImagesEEG,001,102633,
AFNE01.JPG,AFNE01.JPG,AFNE01.JPG,AFNE01.JPG,AFNE01.JPG,AFNE01.JPG,,,,,0,9,9,3,,,,,,,,,,,,,,,,,,,AFNE07.jpg,AFSA14.jpg,AFSA07.jpg,AFNE17.jpg,AFSA14.jpg,FS,4,num_6,32,num_2,1.03340017539,,,2017_Dec_11_1541,60.0040415789,MAFE4ImagesEEG,001,102633,
AFNE01.JPG,AFNE01.JPG,AFNE01.JPG,AFNE01.JPG,AFNE01.JPG,AFNE01.JPG,,,,,1,0,10,5,,,,,,,,,,,,,,,,,,,AFNE20.jpg,AFSA08.jpg,AFNE08.jpg,AFSA07.jpg,AFSA08.jpg,FS,4,num_6,32,num_2,1.85003422271,,,2017_Dec_11_1541,60.0040415789,MAFE4ImagesEEG,001,102633,
AFNE01.JPG,AFNE01.JPG,AFNE01.JPG,AFNE01.JPG,AFNE01.JPG,AFNE01.JPG,,,,,1,1,11,0,,,,,,,,,,,,,,,,,,,AFNE17.jpg,AFSA07.jpg,AFNE08.jpg,AFSA11.jpg,AFNE08.jpg,FN,3,num_2,32,num_4,1.08349482552,,,2017_Dec_11_1541,60.0040415789,MAFE4ImagesEEG,001,102633,
AFNE01.JPG,AFNE01.JPG,AFNE01.JPG,AFNE01.JPG,AFNE01.JPG,AFNE01.JPG,,,,,1,2,12,4,,,,,,,,,,,,,,,,,,,AFNE18.jpg,AFNE09.jpg,AFSA16.jpg,AFSA09.jpg,AFSA09.jpg,FS,4,num_4,32,num_6,1.14977718261,,,2017_Dec_11_1541,60.0040415789,MAFE4ImagesEEG,001,102633,
AFNE01.JPG,AFNE01.JPG,AFNE01.JPG,AFNE01.JPG,AFNE01.JPG,AFNE01.JPG,,,,,1,3,13,1,,,,,,,,,,,,,,,,,,,AFSA09.jpg,AFNE01.jpg,AFNE09.jpg,AFSA06.jpg,AFSA06.jpg,FS,4,num_4,32,num_6,1.85006084433,,,2017_Dec_11_1541,60.0040415789,MAFE4ImagesEEG,001,102633,
AFNE01.JPG,AFNE01.JPG,AFNE01.JPG,AFNE01.JPG,AFNE01.JPG,AFNE01.JPG,,,,,1,4,14,8,,,,,,,,,,,,,,,,,,,AFNE15.jpg,AFSA06.jpg,AFSA18.jpg,AFNE18.jpg,AFNE15.jpg,FN,3,num_8,48,None,,,,2017_Dec_11_1541,60.0040415789,MAFE4ImagesEEG,001,102633,
AFNE01.JPG,AFNE01.JPG,AFNE01.JPG,AFNE01.JPG,AFNE01.JPG,AFNE01.JPG,,,,,1,5,15,6,,,,,,,,,,,,,,,,,,,AFSA08.jpg,AFNE03.jpg,AFSA19.jpg,AFNE08.jpg,AFNE08.jpg,FN,3,num_4,32,num_2,0.483450499363,,,2017_Dec_11_1541,60.0040415789,MAFE4ImagesEEG,001,102633,
AFNE01.JPG,AFNE01.JPG,AFNE01.JPG,AFNE01.JPG,AFNE01.JPG,AFNE01.JPG,,,,,1,6,16,3,,,,,,,,,,,,,,,,,,,AFNE20.jpg,AFSA15.jpg,AFNE13.jpg,AFSA13.jpg,AFNE13.jpg,FN,3,num_2,32,num_4,1.28339905269,,,2017_Dec_11_1541,60.0040415789,MAFE4ImagesEEG,001,102633,
AFNE01.JPG,AFNE01.JPG,AFNE01.JPG,AFNE01.JPG,AFNE01.JPG,AFNE01.JPG,,,,,1,7,17,2,,,,,,,,,,,,,,,,,,,AFNE07.jpg,AFNE06.jpg,AFSA09.jpg,AFSA18.jpg,AFSA18.jpg,FS,4,num_4,32,num_6,1.53337804438,,,2017_Dec_11_1541,60.0040415789,MAFE4ImagesEEG,001,102633,
AFNE01.JPG,AFNE01.JPG,AFNE01.JPG,AFNE01.JPG,AFNE01.JPG,AFNE01.JPG,,,,,1,8,18,9,,,,,,,,,,,,,,,,,,,AFSA04.jpg,AFSA14.jpg,AFNE12.jpg,AFNE01.jpg,AFSA04.jpg,FS,4,num_8,32,num_6,3.83317328454,,,2017_Dec_11_1541,60.0040415789,MAFE4ImagesEEG,001,102633,
AFNE01.JPG,AFNE01.JPG,AFNE01.JPG,AFNE01.JPG,AFNE01.JPG,AFNE01.JPG,,,,,1,9,19,7,,,,,,,,,,,,,,,,,,,AFSA04.jpg,AFNE03.jpg,AFSA01.jpg,AFNE12.jpg,AFSA01.jpg,FS,4,num_2,32,num_6,1.43340620538,,,2017_Dec_11_1541,60.0040415789,MAFE4ImagesEEG,001,102633,
AFNE01.JPG,AFNE01.JPG,AFNE01.JPG,AFNE01.JPG,AFNE01.JPG,AFNE01.JPG,,,,,2,0,20,7,,,,,,,,,,,,,,,,,,,AFSA07.jpg,AFNE18.jpg,AFNE16.jpg,AFSA18.jpg,AFSA18.jpg,FS,4,num_4,32,num_6,1.06703865994,,,2017_Dec_11_1541,60.0040415789,MAFE4ImagesEEG,001,102633,
AFNE01.JPG,AFNE01.JPG,AFNE01.JPG,AFNE01.JPG,AFNE01.JPG,AFNE01.JPG,,,,,2,1,21,8,,,,,,,,,,,,,,,,,,,AFNE01.jpg,AFNE04.jpg,AFSA12.jpg,AFSA05.jpg,AFSA05.jpg,FS,4,num_4,16,num_4,0.95011896221,,,2017_Dec_11_1541,60.0040415789,MAFE4ImagesEEG,001,102633,
AFNE01.JPG,AFNE01.JPG,AFNE01.JPG,AFNE01.JPG,AFNE01.JPG,AFNE01.JPG,,,,,2,2,22,0,,,,,,,,,,,,,,,,,,,AFSA07.jpg,AFNE19.jpg,AFSA12.jpg,AFNE08.jpg,AFSA12.jpg,FS,4,num_2,16,num_2,1.53337740293,,,2017_Dec_11_1541,60.0040415789,MAFE4ImagesEEG,001,102633,
AFNE01.JPG,AFNE01.JPG,AFNE01.JPG,AFNE01.JPG,AFNE01.JPG,AFNE01.JPG,,,,,2,3,23,6,,,,,,,,,,,,,,,,,,,AFNE17.jpg,AFNE04.jpg,AFSA16.jpg,AFSA05.jpg,AFSA16.jpg,FS,4,num_2,32,num_8,1.15013224096,,,2017_Dec_11_1541,60.0040415789,MAFE4ImagesEEG,001,102633,
AFNE01.JPG,AFNE01.JPG,AFNE01.JPG,AFNE01.JPG,AFNE01.JPG,AFNE01.JPG,,,,,2,4,24,2,,,,,,,,,,,,,,,,,,,AFNE03.jpg,AFSA12.jpg,AFSA02.jpg,AFNE17.jpg,AFSA02.jpg,FS,4,num_2,16,num_2,0.916767218383,,,2017_Dec_11_1541,60.0040415789,MAFE4ImagesEEG,001,102633,
AFNE01.JPG,AFNE01.JPG,AFNE01.JPG,AFNE01.JPG,AFNE01.JPG,AFNE01.JPG,,,,,2,5,25,3,,,,,,,,,,,,,,,,,,,AFNE18.jpg,AFNE09.jpg,AFSA05.jpg,AFSA12.jpg,AFNE09.jpg,FN,3,num_6,32,num_8,1.46673902543,,,2017_Dec_11_1541,60.0040415789,MAFE4ImagesEEG,001,102633,
AFNE01.JPG,AFNE01.JPG,AFNE01.JPG,AFNE01.JPG,AFNE01.JPG,AFNE01.JPG,,,,,2,6,26,1,,,,,,,,,,,,,,,,,,,AFSA14.jpg,AFNE18.jpg,AFSA17.jpg,AFNE03.jpg,AFNE03.jpg,FN,3,num_4,16,num_4,2.28338814783,,,2017_Dec_11_1541,60.0040415789,MAFE4ImagesEEG,001,102633,
AFNE01.JPG,AFNE01.JPG,AFNE01.JPG,AFNE01.JPG,AFNE01.JPG,AFNE01.JPG,,,,,2,7,27,9,,,,,,,,,,,,,,,,,,,AFNE15.jpg,AFNE11.jpg,AFSA09.jpg,AFSA14.jpg,AFNE11.jpg,FN,3,num_6,32,num_4,1.56672658073,,,2017_Dec_11_1541,60.0040415789,MAFE4ImagesEEG,001,102633,
AFNE01.JPG,AFNE01.JPG,AFNE01.JPG,AFNE01.JPG,AFNE01.JPG,AFNE01.JPG,,,,,2,8,28,4,,,,,,,,,,,,,,,,,,,AFNE04.jpg,AFSA20.jpg,AFSA05.jpg,AFNE14.jpg,AFNE14.jpg,FN,3,num_4,32,num_8,0.700119763846,,,2017_Dec_11_1541,60.0040415789,MAFE4ImagesEEG,001,102633,
AFNE01.JPG,AFNE01.JPG,AFNE01.JPG,AFNE01.JPG,AFNE01.JPG,AFNE01.JPG,,,,,2,9,29,5,,,,,,,,,,,,,,,,,,,AFNE20.jpg,AFNE04.jpg,AFSA01.jpg,AFSA19.jpg,AFSA19.jpg,FS,4,num_4,32,num_2,0.90013689152,,,2017_Dec_11_1541,60.0040415789,MAFE4ImagesEEG,001,102633,
AFNE01.JPG,AFNE01.JPG,AFNE01.JPG,AFNE01.JPG,AFNE01.JPG,AFNE01.JPG,,,,,3,0,30,3,,,,,,,,,,,,,,,,,,,AFNE03.jpg,AFSA10.jpg,AFNE12.jpg,AFSA07.jpg,AFNE12.jpg,FN,3,num_2,32,num_4,0.917094372446,,,2017_Dec_11_1541,60.0040415789,MAFE4ImagesEEG,001,102633,
AFNE01.JPG,AFNE01.JPG,AFNE01.JPG,AFNE01.JPG,AFNE01.JPG,AFNE01.JPG,,,,,3,1,31,7,,,,,,,,,,,,,,,,,,,AFSA14.jpg,AFNE07.jpg,AFNE06.jpg,AFSA18.jpg,AFSA14.jpg,FS,4,num_8,32,num_2,1.05008663167,,,2017_Dec_11_1541,60.0040415789,MAFE4ImagesEEG,001,102633,
AFNE01.JPG,AFNE01.JPG,AFNE01.JPG,AFNE01.JPG,AFNE01.JPG,AFNE01.JPG,,,,,3,2,32,0,,,,,,,,,,,,,,,,,,,AFSA18.jpg,AFSA06.jpg,AFNE01.jpg,AFNE17.jpg,AFNE17.jpg,FN,3,num_4,32,num_8,0.750150587177,,,2017_Dec_11_1541,60.0040415789,MAFE4ImagesEEG,001,102633,
AFNE01.JPG,AFNE01.JPG,AFNE01.JPG,AFNE01.JPG,AFNE01.JPG,AFNE01.JPG,,,,,3,3,33,4,,,,,,,,,,,,,,,,,,,AFNE04.jpg,AFSA10.jpg,AFNE05.jpg,AFSA11.jpg,AFNE05.jpg,FN,3,num_2,32,num_4,0.850104464917,,,2017_Dec_11_1541,60.0040415789,MAFE4ImagesEEG,001,102633,
AFNE01.JPG,AFNE01.JPG,AFNE01.JPG,AFNE01.JPG,AFNE01.JPG,AFNE01.JPG,,,,,3,4,34,5,,,,,,,,,,,,,,,,,,,AFNE16.jpg,AFSA06.jpg,AFNE17.jpg,AFSA03.jpg,AFNE16.jpg,FN,3,num_8,32,num_2,0.883481547004,,,2017_Dec_11_1541,60.0040415789,MAFE4ImagesEEG,001,102633,
AFNE01.JPG,AFNE01.JPG,AFNE01.JPG,AFNE01.JPG,AFNE01.JPG,AFNE01.JPG,,,,,3,5,35,1,,,,,,,,,,,,,,,,,,,AFSA02.jpg,AFSA05.jpg,AFNE13.jpg,AFNE14.jpg,AFNE13.jpg,FN,3,num_2,32,num_4,1.10012419033,,,2017_Dec_11_1541,60.0040415789,MAFE4ImagesEEG,001,102633,
AFNE01.JPG,AFNE01.JPG,AFNE01.JPG,AFNE01.JPG,AFNE01.JPG,AFNE01.JPG,,,,,3,6,36,6,,,,,,,,,,,,,,,,,,,AFNE03.jpg,AFNE09.jpg,AFSA09.jpg,AFSA02.jpg,AFNE09.jpg,FN,3,num_6,32,num_2,1.11671282118,,,2017_Dec_11_1541,60.0040415789,MAFE4ImagesEEG,001,102633,
AFNE01.JPG,AFNE01.JPG,AFNE01.JPG,AFNE01.JPG,AFNE01.JPG,AFNE01.JPG,,,,,3,7,37,9,,,,,,,,,,,,,,,,,,,AFNE12.jpg,AFSA12.jpg,AFSA10.jpg,AFNE07.jpg,AFNE07.jpg,FN,3,num_4,32,num_2,1.56672369409,,,2017_Dec_11_1541,60.0040415789,MAFE4ImagesEEG,001,102633,
AFNE01.JPG,AFNE01.JPG,AFNE01.JPG,AFNE01.JPG,AFNE01.JPG,AFNE01.JPG,,,,,3,8,38,2,,,,,,,,,,,,,,,,,,,AFNE01.jpg,AFSA18.jpg,AFSA02.jpg,AFNE10.jpg,AFNE01.jpg,FN,3,num_8,32,num_2,4.28286213544,,,2017_Dec_11_1541,60.0040415789,MAFE4ImagesEEG,001,102633,
AFNE01.JPG,AFNE01.JPG,AFNE01.JPG,AFNE01.JPG,AFNE01.JPG,AFNE01.JPG,,,,,3,9,39,8,,,,,,,,,,,,,,,,,,,AFSA07.jpg,AFNE05.jpg,AFNE08.jpg,AFSA12.jpg,AFNE05.jpg,FN,3,num_6,32,num_8,0.91681661224,,,2017_Dec_11_1541,60.0040415789,MAFE4ImagesEEG,001,102633,
AFNE01.JPG,AFNE01.JPG,AFNE01.JPG,AFNE01.JPG,AFNE01.JPG,AFNE01.JPG,,,,,4,0,40,9,,,,,,,,,,,,,,,,,,,AFNE05.jpg,AFSA11.jpg,AFSA04.jpg,AFNE16.jpg,AFNE16.jpg,FN,3,num_4,16,num_4,0.583499957342,,,2017_Dec_11_1541,60.0040415789,MAFE4ImagesEEG,001,102633,
AFNE01.JPG,AFNE01.JPG,AFNE01.JPG,AFNE01.JPG,AFNE01.JPG,AFNE01.JPG,,,,,4,1,41,5,,,,,,,,,,,,,,,,,,,AFSA04.jpg,AFSA05.jpg,AFNE01.jpg,AFNE16.jpg,AFNE01.jpg,FN,3,num_2,16,num_2,1.06703513185,,,2017_Dec_11_1541,60.0040415789,MAFE4ImagesEEG,001,102633,
AFNE01.JPG,AFNE01.JPG,AFNE01.JPG,AFNE01.JPG,AFNE01.JPG,AFNE01.JPG,,,,,4,2,42,6,,,,,,,,,,,,,,,,,,,AFSA13.jpg,AFSA02.jpg,AFNE20.jpg,AFNE02.jpg,AFSA02.jpg,FS,4,num_6,32,num_2,1.41659049108,,,2017_Dec_11_1541,60.0040415789,MAFE4ImagesEEG,001,102633,
AFNE01.JPG,AFNE01.JPG,AFNE01.JPG,AFNE01.JPG,AFNE01.JPG,AFNE01.JPG,,,,,4,3,43,0,,,,,,,,,,,,,,,,,,,AFSA01.jpg,AFNE18.jpg,AFSA08.jpg,AFNE15.jpg,AFNE18.jpg,FN,3,num_6,32,num_8,0.816859847866,,,2017_Dec_11_1541,60.0040415789,MAFE4ImagesEEG,001,102633,
AFNE01.JPG,AFNE01.JPG,AFNE01.JPG,AFNE01.JPG,AFNE01.JPG,AFNE01.JPG,,,,,4,4,44,4,,,,,,,,,,,,,,,,,,,AFSA06.jpg,AFNE01.jpg,AFSA07.jpg,AFNE19.jpg,AFNE19.jpg,FN,3,num_4,16,num_4,0.83345393138,,,2017_Dec_11_1541,60.0040415789,MAFE4ImagesEEG,001,102633,
AFNE01.JPG,AFNE01.JPG,AFNE01.JPG,AFNE01.JPG,AFNE01.JPG,AFNE01.JPG,,,,,4,5,45,3,,,,,,,,,,,,,,,,,,,AFSA03.jpg,AFNE16.jpg,AFSA12.jpg,AFNE01.jpg,AFSA03.jpg,FS,4,num_8,16,num_8,1.08342682873,,,2017_Dec_11_1541,60.0040415789,MAFE4ImagesEEG,001,102633,
AFNE01.JPG,AFNE01.JPG,AFNE01.JPG,AFNE01.JPG,AFNE01.JPG,AFNE01.JPG,,,,,4,6,46,8,,,,,,,,,,,,,,,,,,,AFSA20.jpg,AFNE13.jpg,AFNE14.jpg,AFSA16.jpg,AFSA16.jpg,FS,4,num_4,32,num_8,2.94997815765,,,2017_Dec_11_1541,60.0040415789,MAFE4ImagesEEG,001,102633,
AFNE01.JPG,AFNE01.JPG,AFNE01.JPG,AFNE01.JPG,AFNE01.JPG,AFNE01.JPG,,,,,4,7,47,7,,,,,,,,,,,,,,,,,,,AFSA18.jpg,AFNE09.jpg,AFSA17.jpg,AFNE12.jpg,AFSA18.jpg,FS,4,num_8,32,num_2,3.93325674091,,,2017_Dec_11_1541,60.0040415789,MAFE4ImagesEEG,001,102633,
AFNE01.JPG,AFNE01.JPG,AFNE01.JPG,AFNE01.JPG,AFNE01.JPG,AFNE01.JPG,,,,,4,8,48,2,,,,,,,,,,,,,,,,,,,AFNE06.jpg,AFSA16.jpg,AFNE07.jpg,AFSA03.jpg,AFSA16.jpg,FS,4,num_6,16,num_6,1.08344639395,,,2017_Dec_11_1541,60.0040415789,MAFE4ImagesEEG,001,102633,
AFNE01.JPG,AFNE01.JPG,AFNE01.JPG,AFNE01.JPG,AFNE01.JPG,AFNE01.JPG,,,,,4,9,49,1,,,,,,,,,,,,,,,,,,,AFSA13.jpg,AFNE14.jpg,AFNE13.jpg,AFSA04.jpg,AFNE14.jpg,FN,3,num_6,48,None,,,,2017_Dec_11_1541,60.0040415789,MAFE4ImagesEEG,001,102633,
AFNE01.JPG,AFNE01.JPG,AFNE01.JPG,AFNE01.JPG,AFNE01.JPG,AFNE01.JPG,,,,,5,0,50,8,,,,,,,,,,,,,,,,,,,AFNE19.jpg,AFSA20.jpg,AFSA01.jpg,AFNE07.jpg,AFNE07.jpg,FN,3,num_4,32,num_8,0.416669392958,,,2017_Dec_11_1541,60.0040415789,MAFE4ImagesEEG,001,102633,
AFNE01.JPG,AFNE01.JPG,AFNE01.JPG,AFNE01.JPG,AFNE01.JPG,AFNE01.JPG,,,,,5,1,51,7,,,,,,,,,,,,,,,,,,,AFNE11.jpg,AFSA02.jpg,AFSA04.jpg,AFNE08.jpg,AFNE08.jpg,FN,3,num_4,32,num_2,1.85007431521,,,2017_Dec_11_1541,60.0040415789,MAFE4ImagesEEG,001,102633,
AFNE01.JPG,AFNE01.JPG,AFNE01.JPG,AFNE01.JPG,AFNE01.JPG,AFNE01.JPG,,,,,5,2,52,2,,,,,,,,,,,,,,,,,,,AFSA05.jpg,AFNE08.jpg,AFSA04.jpg,AFNE11.jpg,AFNE08.jpg,FN,3,num_6,16,num_6,1.1501623902,,,2017_Dec_11_1541,60.0040415789,MAFE4ImagesEEG,001,102633,
AFNE01.JPG,AFNE01.JPG,AFNE01.JPG,AFNE01.JPG,AFNE01.JPG,AFNE01.JPG,,,,,5,3,53,1,,,,,,,,,,,,,,,,,,,AFSA13.jpg,AFNE10.jpg,AFNE04.jpg,AFSA14.jpg,AFNE10.jpg,FN,3,num_6,32,num_4,1.33339523594,,,2017_Dec_11_1541,60.0040415789,MAFE4ImagesEEG,001,102633,
AFNE01.JPG,AFNE01.JPG,AFNE01.JPG,AFNE01.JPG,AFNE01.JPG,AFNE01.JPG,,,,,5,4,54,9,,,,,,,,,,,,,,,,,,,AFNE18.jpg,AFNE08.jpg,AFSA17.jpg,AFSA11.jpg,AFNE08.jpg,FN,3,num_6,32,num_8,1.20012297132,,,2017_Dec_11_1541,60.0040415789,MAFE4ImagesEEG,001,102633,
AFNE01.JPG,AFNE01.JPG,AFNE01.JPG,AFNE01.JPG,AFNE01.JPG,AFNE01.JPG,,,,,5,5,55,0,,,,,,,,,,,,,,,,,,,AFSA10.jpg,AFNE05.jpg,AFSA09.jpg,AFNE08.jpg,AFSA10.jpg,FS,4,num_8,16,num_8,2.6332927919,,,2017_Dec_11_1541,60.0040415789,MAFE4ImagesEEG,001,102633,
AFNE01.JPG,AFNE01.JPG,AFNE01.JPG,AFNE01.JPG,AFNE01.JPG,AFNE01.JPG,,,,,5,6,56,6,,,,,,,,,,,,,,,,,,,AFNE03.jpg,AFSA10.jpg,AFNE11.jpg,AFSA16.jpg,AFNE03.jpg,FN,3,num_8,16,num_8,1.10011264356,,,2017_Dec_11_1541,60.0040415789,MAFE4ImagesEEG,001,102633,
AFNE01.JPG,AFNE01.JPG,AFNE01.JPG,AFNE01.JPG,AFNE01.JPG,AFNE01.JPG,,,,,5,7,57,5,,,,,,,,,,,,,,,,,,,AFSA02.jpg,AFNE03.jpg,AFSA11.jpg,AFNE04.jpg,AFNE04.jpg,FN,3,num_4,32,num_8,1.21675971313,,,2017_Dec_11_1541,60.0040415789,MAFE4ImagesEEG,001,102633,
AFNE01.JPG,AFNE01.JPG,AFNE01.JPG,AFNE01.JPG,AFNE01.JPG,AFNE01.JPG,,,,,5,8,58,4,,,,,,,,,,,,,,,,,,,AFSA12.jpg,AFNE13.jpg,AFSA13.jpg,AFNE12.jpg,AFNE13.jpg,FN,3,num_6,32,num_2,1.06682857568,,,2017_Dec_11_1541,60.0040415789,MAFE4ImagesEEG,001,102633,
AFNE01.JPG,AFNE01.JPG,AFNE01.JPG,AFNE01.JPG,AFNE01.JPG,AFNE01.JPG,,,,,5,9,59,3,,,,,,,,,,,,,,,,,,,AFNE09.jpg,AFSA15.jpg,AFNE11.jpg,AFSA08.jpg,AFSA08.jpg,FS,4,num_4,32,num_8,3.96659822087,,,2017_Dec_11_1541,60.0040415789,MAFE4ImagesEEG,001,102633,
,,,,,,,,,,,,,,,,,,,,,,,,,,,,,,,,,,,,,,,,,,,space,33.3311426847,2017_Dec_11_1541,60.0040415789,MAFE4ImagesEEG,001,102633,
AFNE01.JPG,AFNE01.JPG,AFNE01.JPG,AFNE01.JPG,AFNE01.JPG,AFNE01.JPG,,,,,,,,,0,0,0,2,,,,,,,,,,,,,,,AMSA14.jpg,AMNE01.jpg,AMNE13.jpg,AMSA15.jpg,AMSA15.jpg,MS,2,num_4,16,num_4,0.866793166148,,,2017_Dec_11_1541,60.0040415789,MAFE4ImagesEEG,001,102633,
AFNE01.JPG,AFNE01.JPG,AFNE01.JPG,AFNE01.JPG,AFNE01.JPG,AFNE01.JPG,,,,,,,,,0,1,1,5,,,,,,,,,,,,,,,AMSA11.jpg,AMNE12.jpg,AMNE13.jpg,AMSA13.jpg,AMSA13.jpg,MS,2,num_4,32,num_8,1.18337204657,,,2017_Dec_11_1541,60.0040415789,MAFE4ImagesEEG,001,102633,
AFNE01.JPG,AFNE01.JPG,AFNE01.JPG,AFNE01.JPG,AFNE01.JPG,AFNE01.JPG,,,,,,,,,0,2,2,8,,,,,,,,,,,,,,,AMSA19.jpg,AMNE10.jpg,AMNE14.jpg,AMSA06.jpg,AMSA19.jpg,MS,2,num_8,16,num_8,1.06674550427,,,2017_Dec_11_1541,60.0040415789,MAFE4ImagesEEG,001,102633,
AFNE01.JPG,AFNE01.JPG,AFNE01.JPG,AFNE01.JPG,AFNE01.JPG,AFNE01.JPG,,,,,,,,,0,3,3,0,,,,,,,,,,,,,,,AMNE08.jpg,AMSA05.jpg,AMSA17.jpg,AMNE15.jpg,AMNE08.jpg,MN,1,num_8,32,num_4,0.750125569524,,,2017_Dec_11_1541,60.0040415789,MAFE4ImagesEEG,001,102633,
AFNE01.JPG,AFNE01.JPG,AFNE01.JPG,AFNE01.JPG,AFNE01.JPG,AFNE01.JPG,,,,,,,,,0,4,4,6,,,,,,,,,,,,,,,AMSA02.jpg,AMNE17.jpg,AMSA14.jpg,AMNE02.jpg,AMNE02.jpg,MN,1,num_4,32,num_2,1.0501331389,,,2017_Dec_11_1541,60.0040415789,MAFE4ImagesEEG,001,102633,
AFNE01.JPG,AFNE01.JPG,AFNE01.JPG,AFNE01.JPG,AFNE01.JPG,AFNE01.JPG,,,,,,,,,0,5,5,1,,,,,,,,,,,,,,,AMNE15.jpg,AMSA13.jpg,AMNE02.jpg,AMSA04.jpg,AMNE02.jpg,MN,1,num_2,16,num_2,1.01675028331,,,2017_Dec_11_1541,60.0040415789,MAFE4ImagesEEG,001,102633,
AFNE01.JPG,AFNE01.JPG,AFNE01.JPG,AFNE01.JPG,AFNE01.JPG,AFNE01.JPG,,,,,,,,,0,6,6,4,,,,,,,,,,,,,,,AMSA04.jpg,AMNE15.jpg,AMSA12.jpg,AMNE09.jpg,AMNE09.jpg,MN,1,num_4,16,num_4,0.883464868413,,,2017_Dec_11_1541,60.0040415789,MAFE4ImagesEEG,001,102633,
AFNE01.JPG,AFNE01.JPG,AFNE01.JPG,AFNE01.JPG,AFNE01.JPG,AFNE01.JPG,,,,,,,,,0,7,7,3,,,,,,,,,,,,,,,AMSA02.jpg,AMNE05.jpg,AMNE15.jpg,AMSA16.jpg,AMNE05.jpg,MN,1,num_6,16,num_6,1.40022317041,,,2017_Dec_11_1541,60.0040415789,MAFE4ImagesEEG,001,102633,
AFNE01.JPG,AFNE01.JPG,AFNE01.JPG,AFNE01.JPG,AFNE01.JPG,AFNE01.JPG,,,,,,,,,0,8,8,9,,,,,,,,,,,,,,,AMSA01.jpg,AMSA07.jpg,AMNE16.jpg,AMNE11.jpg,AMSA07.jpg,MS,2,num_6,32,num_2,0.750156039605,,,2017_Dec_11_1541,60.0040415789,MAFE4ImagesEEG,001,102633,
AFNE01.JPG,AFNE01.JPG,AFNE01.JPG,AFNE01.JPG,AFNE01.JPG,AFNE01.JPG,,,,,,,,,0,9,9,7,,,,,,,,,,,,,,,AMNE17.jpg,AMSA17.jpg,AMNE10.jpg,AMSA04.jpg,AMNE17.jpg,MN,1,num_8,32,num_2,0.84999573417,,,2017_Dec_11_1541,60.0040415789,MAFE4ImagesEEG,001,102633,
AFNE01.JPG,AFNE01.JPG,AFNE01.JPG,AFNE01.JPG,AFNE01.JPG,AFNE01.JPG,,,,,,,,,1,0,10,5,,,,,,,,,,,,,,,AMNE12.jpg,AMSA14.jpg,AMSA08.jpg,AMNE14.jpg,AMSA08.jpg,MS,2,num_2,32,num_8,1.90006183856,,,2017_Dec_11_1541,60.0040415789,MAFE4ImagesEEG,001,102633,
AFNE01.JPG,AFNE01.JPG,AFNE01.JPG,AFNE01.JPG,AFNE01.JPG,AFNE01.JPG,,,,,,,,,1,1,11,9,,,,,,,,,,,,,,,AMSA19.jpg,AMSA05.jpg,AMNE20.jpg,AMNE09.jpg,AMNE20.jpg,MN,1,num_2,32,num_8,1.08312629629,,,2017_Dec_11_1541,60.0040415789,MAFE4ImagesEEG,001,102633,
AFNE01.JPG,AFNE01.JPG,AFNE01.JPG,AFNE01.JPG,AFNE01.JPG,AFNE01.JPG,,,,,,,,,1,2,12,0,,,,,,,,,,,,,,,AMSA09.jpg,AMSA03.jpg,AMNE12.jpg,AMNE08.jpg,AMNE08.jpg,MN,1,num_4,16,num_4,2.3000287381,,,2017_Dec_11_1541,60.0040415789,MAFE4ImagesEEG,001,102633,
AFNE01.JPG,AFNE01.JPG,AFNE01.JPG,AFNE01.JPG,AFNE01.JPG,AFNE01.JPG,,,,,,,,,1,3,13,3,,,,,,,,,,,,,,,AMSA07.jpg,AMSA09.jpg,AMNE08.jpg,AMNE16.jpg,AMNE16.jpg,MN,1,num_4,16,num_4,1.15014346666,,,2017_Dec_11_1541,60.0040415789,MAFE4ImagesEEG,001,102633,
AFNE01.JPG,AFNE01.JPG,AFNE01.JPG,AFNE01.JPG,AFNE01.JPG,AFNE01.JPG,,,,,,,,,1,4,14,8,,,,,,,,,,,,,,,AMNE11.jpg,AMNE03.jpg,AMSA11.jpg,AMSA15.jpg,AMNE03.jpg,MN,1,num_6,32,num_2,1.10035448102,,,2017_Dec_11_1541,60.0040415789,MAFE4ImagesEEG,001,102633,
AFNE01.JPG,AFNE01.JPG,AFNE01.JPG,AFNE01.JPG,AFNE01.JPG,AFNE01.JPG,,,,,,,,,1,5,15,2,,,,,,,,,,,,,,,AMSA15.jpg,AMNE07.jpg,AMNE17.jpg,AMSA09.jpg,AMNE17.jpg,MN,1,num_2,32,num_6,1.45006411569,,,2017_Dec_11_1541,60.0040415789,MAFE4ImagesEEG,001,102633,
AFNE01.JPG,AFNE01.JPG,AFNE01.JPG,AFNE01.JPG,AFNE01.JPG,AFNE01.JPG,,,,,,,,,1,6,16,1,,,,,,,,,,,,,,,AMSA18.jpg,AMNE18.jpg,AMSA05.jpg,AMNE17.jpg,AMSA05.jpg,MS,2,num_2,16,num_2,0.916802178835,,,2017_Dec_11_1541,60.0040415789,MAFE4ImagesEEG,001,102633,
AFNE01.JPG,AFNE01.JPG,AFNE01.JPG,AFNE01.JPG,AFNE01.JPG,AFNE01.JPG,,,,,,,,,1,7,17,7,,,,,,,,,,,,,,,AMSA15.jpg,AMNE17.jpg,AMSA06.jpg,AMNE16.jpg,AMSA06.jpg,MS,2,num_2,16,num_2,0.950113509549,,,2017_Dec_11_1541,60.0040415789,MAFE4ImagesEEG,001,102633,
AFNE01.JPG,AFNE01.JPG,AFNE01.JPG,AFNE01.JPG,AFNE01.JPG,AFNE01.JPG,,,,,,,,,1,8,18,4,,,,,,,,,,,,,,,AMNE10.jpg,AMSA04.jpg,AMSA09.jpg,AMNE01.jpg,AMSA04.jpg,MS,2,num_6,16,num_6,1.45009137853,,,2017_Dec_11_1541,60.0040415789,MAFE4ImagesEEG,001,102633,
AFNE01.JPG,AFNE01.JPG,AFNE01.JPG,AFNE01.JPG,AFNE01.JPG,AFNE01.JPG,,,,,,,,,1,9,19,6,,,,,,,,,,,,,,,AMSA01.jpg,AMNE19.jpg,AMSA10.jpg,AMNE20.jpg,AMNE20.jpg,MN,1,num_4,32,num_8,1.38339206064,,,2017_Dec_11_1541,60.0040415789,MAFE4ImagesEEG,001,102633,
AFNE01.JPG,AFNE01.JPG,AFNE01.JPG,AFNE01.JPG,AFNE01.JPG,AFNE01.JPG,,,,,,,,,2,0,20,5,,,,,,,,,,,,,,,AMNE03.jpg,AMNE14.jpg,AMSA20.jpg,AMSA05.jpg,AMSA05.jpg,MS,2,num_4,32,num_2,1.78338365746,,,2017_Dec_11_1541,60.0040415789,MAFE4ImagesEEG,001,102633,
AFNE01.JPG,AFNE01.JPG,AFNE01.JPG,AFNE01.JPG,AFNE01.JPG,AFNE01.JPG,,,,,,,,,2,1,21,2,,,,,,,,,,,,,,,AMSA01.jpg,AMSA14.jpg,AMNE20.jpg,AMNE14.jpg,AMNE20.jpg,MN,1,num_2,32,num_8,1.16671862639,,,2017_Dec_11_1541,60.0040415789,MAFE4ImagesEEG,001,102633,
AFNE01.JPG,AFNE01.JPG,AFNE01.JPG,AFNE01.JPG,AFNE01.JPG,AFNE01.JPG,,,,,,,,,2,2,22,1,,,,,,,,,,,,,,,AMNE13.jpg,AMSA10.jpg,AMNE01.jpg,AMSA07.jpg,AMNE01.jpg,MN,1,num_2,16,num_2,0.416797047248,,,2017_Dec_11_1541,60.0040415789,MAFE4ImagesEEG,001,102633,
AFNE01.JPG,AFNE01.JPG,AFNE01.JPG,AFNE01.JPG,AFNE01.JPG,AFNE01.JPG,,,,,,,,,2,3,23,9,,,,,,,,,,,,,,,AMSA11.jpg,AMNE12.jpg,AMNE19.jpg,AMSA02.jpg,AMNE19.jpg,MN,1,num_2,32,num_4,0.833317616954,,,2017_Dec_11_1541,60.0040415789,MAFE4ImagesEEG,001,102633,
AFNE01.JPG,AFNE01.JPG,AFNE01.JPG,AFNE01.JPG,AFNE01.JPG,AFNE01.JPG,,,,,,,,,2,4,24,4,,,,,,,,,,,,,,,AMNE19.jpg,AMNE20.jpg,AMSA14.jpg,AMSA09.jpg,AMSA14.jpg,MS,2,num_2,16,num_2,0.516867994564,,,2017_Dec_11_1541,60.0040415789,MAFE4ImagesEEG,001,102633,
AFNE01.JPG,AFNE01.JPG,AFNE01.JPG,AFNE01.JPG,AFNE01.JPG,AFNE01.JPG,,,,,,,,,2,5,25,3,,,,,,,,,,,,,,,AMSA08.jpg,AMNE15.jpg,AMNE17.jpg,AMSA14.jpg,AMSA14.jpg,MS,2,num_4,16,num_4,1.36669598217,,,2017_Dec_11_1541,60.0040415789,MAFE4ImagesEEG,001,102633,
AFNE01.JPG,AFNE01.JPG,AFNE01.JPG,AFNE01.JPG,AFNE01.JPG,AFNE01.JPG,,,,,,,,,2,6,26,8,,,,,,,,,,,,,,,AMSA01.jpg,AMNE10.jpg,AMNE06.jpg,AMSA03.jpg,AMSA01.jpg,MS,2,num_8,16,num_8,1.15010946826,,,2017_Dec_11_1541,60.0040415789,MAFE4ImagesEEG,001,102633,
AFNE01.JPG,AFNE01.JPG,AFNE01.JPG,AFNE01.JPG,AFNE01.JPG,AFNE01.JPG,,,,,,,,,2,7,27,6,,,,,,,,,,,,,,,AMNE04.jpg,AMSA12.jpg,AMSA15.jpg,AMNE06.jpg,AMNE04.jpg,MN,1,num_8,16,num_8,1.16672023013,,,2017_Dec_11_1541,60.0040415789,MAFE4ImagesEEG,001,102633,
AFNE01.JPG,AFNE01.JPG,AFNE01.JPG,AFNE01.JPG,AFNE01.JPG,AFNE01.JPG,,,,,,,,,2,8,28,7,,,,,,,,,,,,,,,AMNE13.jpg,AMSA20.jpg,AMNE06.jpg,AMSA02.jpg,AMSA20.jpg,MS,2,num_6,16,num_6,1.16670996626,,,2017_Dec_11_1541,60.0040415789,MAFE4ImagesEEG,001,102633,
AFNE01.JPG,AFNE01.JPG,AFNE01.JPG,AFNE01.JPG,AFNE01.JPG,AFNE01.JPG,,,,,,,,,2,9,29,0,,,,,,,,,,,,,,,AMSA05.jpg,AMNE12.jpg,AMSA09.jpg,AMNE20.jpg,AMNE20.jpg,MN,1,num_4,32,num_2,1.08340662229,,,2017_Dec_11_1541,60.0040415789,MAFE4ImagesEEG,001,102633,
AFNE01.JPG,AFNE01.JPG,AFNE01.JPG,AFNE01.JPG,AFNE01.JPG,AFNE01.JPG,,,,,,,,,3,0,30,8,,,,,,,,,,,,,,,AMSA17.jpg,AMSA19.jpg,AMNE01.jpg,AMNE12.jpg,AMNE12.jpg,MN,1,num_4,16,num_4,1.31670428952,,,2017_Dec_11_1541,60.0040415789,MAFE4ImagesEEG,001,102633,
AFNE01.JPG,AFNE01.JPG,AFNE01.JPG,AFNE01.JPG,AFNE01.JPG,AFNE01.JPG,,,,,,,,,3,1,31,6,,,,,,,,,,,,,,,AMNE03.jpg,AMNE10.jpg,AMSA09.jpg,AMSA20.jpg,AMNE10.jpg,MN,1,num_6,16,num_6,0.666760643246,,,2017_Dec_11_1541,60.0040415789,MAFE4ImagesEEG,001,102633,
AFNE01.JPG,AFNE01.JPG,AFNE01.JPG,AFNE01.JPG,AFNE01.JPG,AFNE01.JPG,,,,,,,,,3,2,32,4,,,,,,,,,,,,,,,AMSA05.jpg,AMSA02.jpg,AMNE04.jpg,AMNE02.jpg,AMNE04.jpg,MN,1,num_2,16,num_2,1.03329240694,,,2017_Dec_11_1541,60.0040415789,MAFE4ImagesEEG,001,102633,
AFNE01.JPG,AFNE01.JPG,AFNE01.JPG,AFNE01.JPG,AFNE01.JPG,AFNE01.JPG,,,,,,,,,3,3,33,5,,,,,,,,,,,,,,,AMNE10.jpg,AMSA06.jpg,AMSA07.jpg,AMNE15.jpg,AMNE15.jpg,MN,1,num_4,32,num_8,1.71670518746,,,2017_Dec_11_1541,60.0040415789,MAFE4ImagesEEG,001,102633,
AFNE01.JPG,AFNE01.JPG,AFNE01.JPG,AFNE01.JPG,AFNE01.JPG,AFNE01.JPG,,,,,,,,,3,4,34,2,,,,,,,,,,,,,,,AMNE03.jpg,AMSA15.jpg,AMNE13.jpg,AMSA03.jpg,AMNE03.jpg,MN,1,num_8,32,num_2,1.11675644154,,,2017_Dec_11_1541,60.0040415789,MAFE4ImagesEEG,001,102633,
AFNE01.JPG,AFNE01.JPG,AFNE01.JPG,AFNE01.JPG,AFNE01.JPG,AFNE01.JPG,,,,,,,,,3,5,35,9,,,,,,,,,,,,,,,AMSA02.jpg,AMSA16.jpg,AMNE11.jpg,AMNE16.jpg,AMSA16.jpg,MS,2,num_6,32,num_8,1.10009756871,,,2017_Dec_11_1541,60.0040415789,MAFE4ImagesEEG,001,102633,
AFNE01.JPG,AFNE01.JPG,AFNE01.JPG,AFNE01.JPG,AFNE01.JPG,AFNE01.JPG,,,,,,,,,3,6,36,0,,,,,,,,,,,,,,,AMNE12.jpg,AMSA19.jpg,AMNE15.jpg,AMSA15.jpg,AMNE12.jpg,MN,1,num_8,16,num_8,0.45020235423,,,2017_Dec_11_1541,60.0040415789,MAFE4ImagesEEG,001,102633,
AFNE01.JPG,AFNE01.JPG,AFNE01.JPG,AFNE01.JPG,AFNE01.JPG,AFNE01.JPG,,,,,,,,,3,7,37,1,,,,,,,,,,,,,,,AMNE03.jpg,AMSA01.jpg,AMSA06.jpg,AMNE16.jpg,AMNE16.jpg,MN,1,num_4,16,num_4,0.800106357085,,,2017_Dec_11_1541,60.0040415789,MAFE4ImagesEEG,001,102633,
AFNE01.JPG,AFNE01.JPG,AFNE01.JPG,AFNE01.JPG,AFNE01.JPG,AFNE01.JPG,,,,,,,,,3,8,38,3,,,,,,,,,,,,,,,AMNE05.jpg,AMSA08.jpg,AMSA01.jpg,AMNE10.jpg,AMNE05.jpg,MN,1,num_8,48,None,,,,2017_Dec_11_1541,60.0040415789,MAFE4ImagesEEG,001,102633,
AFNE01.JPG,AFNE01.JPG,AFNE01.JPG,AFNE01.JPG,AFNE01.JPG,AFNE01.JPG,,,,,,,,,3,9,39,7,,,,,,,,,,,,,,,AMSA11.jpg,AMSA03.jpg,AMNE04.jpg,AMNE13.jpg,AMSA11.jpg,MS,2,num_8,16,num_8,2.23331274185,,,2017_Dec_11_1541,60.0040415789,MAFE4ImagesEEG,001,102633,
AFNE01.JPG,AFNE01.JPG,AFNE01.JPG,AFNE01.JPG,AFNE01.JPG,AFNE01.JPG,,,,,,,,,4,0,40,8,,,,,,,,,,,,,,,AMNE01.jpg,AMNE09.jpg,AMSA15.jpg,AMSA06.jpg,AMSA06.jpg,MS,2,num_4,32,num_2,1.36672805622,,,2017_Dec_11_1541,60.0040415789,MAFE4ImagesEEG,001,102633,
AFNE01.JPG,AFNE01.JPG,AFNE01.JPG,AFNE01.JPG,AFNE01.JPG,AFNE01.JPG,,,,,,,,,4,1,41,5,,,,,,,,,,,,,,,AMNE09.jpg,AMSA12.jpg,AMSA17.jpg,AMNE12.jpg,AMNE12.jpg,MN,1,num_4,16,num_4,1.5165648961,,,2017_Dec_11_1541,60.0040415789,MAFE4ImagesEEG,001,102633,
AFNE01.JPG,AFNE01.JPG,AFNE01.JPG,AFNE01.JPG,AFNE01.JPG,AFNE01.JPG,,,,,,,,,4,2,42,3,,,,,,,,,,,,,,,AMSA19.jpg,AMNE05.jpg,AMSA08.jpg,AMNE20.jpg,AMSA19.jpg,MS,2,num_8,16,num_8,0.983123345301,,,2017_Dec_11_1541,60.0040415789,MAFE4ImagesEEG,001,102633,
AFNE01.JPG,AFNE01.JPG,AFNE01.JPG,AFNE01.JPG,AFNE01.JPG,AFNE01.JPG,,,,,,,,,4,3,43,6,,,,,,,,,,,,,,,AMSA04.jpg,AMSA07.jpg,AMNE06.jpg,AMNE20.jpg,AMSA04.jpg,MS,2,num_8,32,num_2,1.26678091381,,,2017_Dec_11_1541,60.0040415789,MAFE4ImagesEEG,001,102633,
AFNE01.JPG,AFNE01.JPG,AFNE01.JPG,AFNE01.JPG,AFNE01.JPG,AFNE01.JPG,,,,,,,,,4,4,44,4,,,,,,,,,,,,,,,AMSA19.jpg,AMSA08.jpg,AMNE02.jpg,AMNE20.jpg,AMNE02.jpg,MN,1,num_2,32,num_8,1.4167040328,,,2017_Dec_11_1541,60.0040415789,MAFE4ImagesEEG,001,102633,
AFNE01.JPG,AFNE01.JPG,AFNE01.JPG,AFNE01.JPG,AFNE01.JPG,AFNE01.JPG,,,,,,,,,4,5,45,0,,,,,,,,,,,,,,,AMSA07.jpg,AMNE20.jpg,AMSA11.jpg,AMNE19.jpg,AMNE20.jpg,MN,1,num_6,16,num_6,1.38348058471,,,2017_Dec_11_1541,60.0040415789,MAFE4ImagesEEG,001,102633,
AFNE01.JPG,AFNE01.JPG,AFNE01.JPG,AFNE01.JPG,AFNE01.JPG,AFNE01.JPG,,,,,,,,,4,6,46,1,,,,,,,,,,,,,,,AMSA07.jpg,AMSA20.jpg,AMNE02.jpg,AMNE03.jpg,AMNE03.jpg,MN,1,num_4,32,num_2,1.03314582934,,,2017_Dec_11_1541,60.0040415789,MAFE4ImagesEEG,001,102633,
AFNE01.JPG,AFNE01.JPG,AFNE01.JPG,AFNE01.JPG,AFNE01.JPG,AFNE01.JPG,,,,,,,,,4,7,47,7,,,,,,,,,,,,,,,AMSA09.jpg,AMSA14.jpg,AMNE07.jpg,AMNE20.jpg,AMSA09.jpg,MS,2,num_8,32,num_4,0.966820813948,,,2017_Dec_11_1541,60.0040415789,MAFE4ImagesEEG,001,102633,
AFNE01.JPG,AFNE01.JPG,AFNE01.JPG,AFNE01.JPG,AFNE01.JPG,AFNE01.JPG,,,,,,,,,4,8,48,2,,,,,,,,,,,,,,,AMSA13.jpg,AMNE07.jpg,AMNE10.jpg,AMSA06.jpg,AMSA13.jpg,MS,2,num_8,16,num_8,0.866716509452,,,2017_Dec_11_1541,60.0040415789,MAFE4ImagesEEG,001,102633,
AFNE01.JPG,AFNE01.JPG,AFNE01.JPG,AFNE01.JPG,AFNE01.JPG,AFNE01.JPG,,,,,,,,,4,9,49,9,,,,,,,,,,,,,,,AMSA19.jpg,AMNE02.jpg,AMNE07.jpg,AMSA03.jpg,AMNE02.jpg,MN,1,num_6,16,num_6,1.51676535816,,,2017_Dec_11_1541,60.0040415789,MAFE4ImagesEEG,001,102633,
AFNE01.JPG,AFNE01.JPG,AFNE01.JPG,AFNE01.JPG,AFNE01.JPG,AFNE01.JPG,,,,,,,,,5,0,50,0,,,,,,,,,,,,,,,AMSA16.jpg,AMSA03.jpg,AMNE02.jpg,AMNE01.jpg,AMSA16.jpg,MS,2,num_8,32,num_6,0.849973923992,,,2017_Dec_11_1541,60.0040415789,MAFE4ImagesEEG,001,102633,
AFNE01.JPG,AFNE01.JPG,AFNE01.JPG,AFNE01.JPG,AFNE01.JPG,AFNE01.JPG,,,,,,,,,5,1,51,7,,,,,,,,,,,,,,,AMSA19.jpg,AMSA20.jpg,AMNE05.jpg,AMNE10.jpg,AMNE10.jpg,MN,1,num_4,16,num_4,0.966795475455,,,2017_Dec_11_1541,60.0040415789,MAFE4ImagesEEG,001,102633,
AFNE01.JPG,AFNE01.JPG,AFNE01.JPG,AFNE01.JPG,AFNE01.JPG,AFNE01.JPG,,,,,,,,,5,2,52,8,,,,,,,,,,,,,,,AMNE09.jpg,AMSA12.jpg,AMSA02.jpg,AMNE01.jpg,AMNE09.jpg,MN,1,num_8,16,num_8,1.28338429891,,,2017_Dec_11_1541,60.0040415789,MAFE4ImagesEEG,001,102633,
AFNE01.JPG,AFNE01.JPG,AFNE01.JPG,AFNE01.JPG,AFNE01.JPG,AFNE01.JPG,,,,,,,,,5,3,53,6,,,,,,,,,,,,,,,AMSA04.jpg,AMSA14.jpg,AMNE06.jpg,AMNE19.jpg,AMSA14.jpg,MS,2,num_6,16,num_6,0.483487063786,,,2017_Dec_11_1541,60.0040415789,MAFE4ImagesEEG,001,102633,
AFNE01.JPG,AFNE01.JPG,AFNE01.JPG,AFNE01.JPG,AFNE01.JPG,AFNE01.JPG,,,,,,,,,5,4,54,1,,,,,,,,,,,,,,,AMSA12.jpg,AMNE04.jpg,AMNE12.jpg,AMSA14.jpg,AMSA14.jpg,MS,2,num_4,16,num_4,0.633472084999,,,2017_Dec_11_1541,60.0040415789,MAFE4ImagesEEG,001,102633,
AFNE01.JPG,AFNE01.JPG,AFNE01.JPG,AFNE01.JPG,AFNE01.JPG,AFNE01.JPG,,,,,,,,,5,5,55,3,,,,,,,,,,,,,,,AMSA10.jpg,AMNE16.jpg,AMNE13.jpg,AMSA03.jpg,AMNE13.jpg,MN,1,num_2,32,num_8,0.816787681542,,,2017_Dec_11_1541,60.0040415789,MAFE4ImagesEEG,001,102633,
AFNE01.JPG,AFNE01.JPG,AFNE01.JPG,AFNE01.JPG,AFNE01.JPG,AFNE01.JPG,,,,,,,,,5,6,56,9,,,,,,,,,,,,,,,AMNE12.jpg,AMSA20.jpg,AMSA15.jpg,AMNE08.jpg,AMNE08.jpg,MN,1,num_4,32,num_2,1.20038405294,,,2017_Dec_11_1541,60.0040415789,MAFE4ImagesEEG,001,102633,
AFNE01.JPG,AFNE01.JPG,AFNE01.JPG,AFNE01.JPG,AFNE01.JPG,AFNE01.JPG,,,,,,,,,5,7,57,2,,,,,,,,,,,,,,,AMNE18.jpg,AMSA09.jpg,AMSA17.jpg,AMNE17.jpg,AMSA09.jpg,MS,2,num_6,32,num_4,1.18341983669,,,2017_Dec_11_1541,60.0040415789,MAFE4ImagesEEG,001,102633,
AFNE01.JPG,AFNE01.JPG,AFNE01.JPG,AFNE01.JPG,AFNE01.JPG,AFNE01.JPG,,,,,,,,,5,8,58,4,,,,,,,,,,,,,,,AMNE19.jpg,AMNE04.jpg,AMSA06.jpg,AMSA01.jpg,AMSA06.jpg,MS,2,num_2,16,num_2,0.666835696204,,,2017_Dec_11_1541,60.0040415789,MAFE4ImagesEEG,001,102633,
AFNE01.JPG,AFNE01.JPG,AFNE01.JPG,AFNE01.JPG,AFNE01.JPG,AFNE01.JPG,,,,,,,,,5,9,59,5,,,,,,,,,,,,,,,AMSA19.jpg,AMSA11.jpg,AMNE07.jpg,AMNE05.jpg,AMSA19.jpg,MS,2,num_8,16,num_8,0.316835151054,,,2017_Dec_11_1541,60.0040415789,MAFE4ImagesEEG,001,102633,
,,,,,,,,,,,,,,,,,,,,,,,,,,,,,,,,,,,,,,,,,,,space,7.91624152684,2017_Dec_11_1541,60.0040415789,MAFE4ImagesEEG,001,102633,
AFNE01.JPG,AFNE01.JPG,AFNE01.JPG,AFNE01.JPG,AFNE01.JPG,AFNE01.JPG,,,,,,,,,,,,,0,0,0,9,,,,,,,,,,,AFSA14.jpg,AFNE04.jpg,AFNE14.jpg,AFSA13.jpg,AFSA14.jpg,FS,4,num_8,32,num_2,1.4834277269,,,2017_Dec_11_1541,60.0040415789,MAFE4ImagesEEG,001,102633,
AFNE01.JPG,AFNE01.JPG,AFNE01.JPG,AFNE01.JPG,AFNE01.JPG,AFNE01.JPG,,,,,,,,,,,,,0,1,1,1,,,,,,,,,,,AFSA07.jpg,AFNE11.jpg,AFSA10.jpg,AFNE06.jpg,AFNE11.jpg,FN,3,num_6,16,num_6,1.60006485344,,,2017_Dec_11_1541,60.0040415789,MAFE4ImagesEEG,001,102633,
AFNE01.JPG,AFNE01.JPG,AFNE01.JPG,AFNE01.JPG,AFNE01.JPG,AFNE01.JPG,,,,,,,,,,,,,0,2,2,5,,,,,,,,,,,AFSA19.jpg,AFNE16.jpg,AFNE04.jpg,AFSA16.jpg,AFNE16.jpg,FN,3,num_6,16,num_6,0.983479365939,,,2017_Dec_11_1541,60.0040415789,MAFE4ImagesEEG,001,102633,
AFNE01.JPG,AFNE01.JPG,AFNE01.JPG,AFNE01.JPG,AFNE01.JPG,AFNE01.JPG,,,,,,,,,,,,,0,3,3,4,,,,,,,,,,,AFSA14.jpg,AFSA01.jpg,AFNE15.jpg,AFNE07.jpg,AFSA14.jpg,FS,4,num_8,16,num_8,1.00010456098,,,2017_Dec_11_1541,60.0040415789,MAFE4ImagesEEG,001,102633,
AFNE01.JPG,AFNE01.JPG,AFNE01.JPG,AFNE01.JPG,AFNE01.JPG,AFNE01.JPG,,,,,,,,,,,,,0,4,4,3,,,,,,,,,,,AFNE13.jpg,AFSA10.jpg,AFSA16.jpg,AFNE05.jpg,AFSA10.jpg,FS,4,num_6,32,num_8,1.48348064884,,,2017_Dec_11_1541,60.0040415789,MAFE4ImagesEEG,001,102633,
AFNE01.JPG,AFNE01.JPG,AFNE01.JPG,AFNE01.JPG,AFNE01.JPG,AFNE01.JPG,,,,,,,,,,,,,0,5,5,0,,,,,,,,,,,AFSA08.jpg,AFNE06.jpg,AFNE10.jpg,AFSA16.jpg,AFSA08.jpg,FS,4,num_8,32,num_2,1.4000563859,,,2017_Dec_11_1541,60.0040415789,MAFE4ImagesEEG,001,102633,
AFNE01.JPG,AFNE01.JPG,AFNE01.JPG,AFNE01.JPG,AFNE01.JPG,AFNE01.JPG,,,,,,,,,,,,,0,6,6,2,,,,,,,,,,,AFNE02.jpg,AFNE17.jpg,AFSA08.jpg,AFSA01.jpg,AFSA01.jpg,FS,4,num_4,16,num_4,1.40007563028,,,2017_Dec_11_1541,60.0040415789,MAFE4ImagesEEG,001,102633,
AFNE01.JPG,AFNE01.JPG,AFNE01.JPG,AFNE01.JPG,AFNE01.JPG,AFNE01.JPG,,,,,,,,,,,,,0,7,7,8,,,,,,,,,,,AFSA07.jpg,AFNE09.jpg,AFNE07.jpg,AFSA05.jpg,AFNE07.jpg,FN,3,num_2,32,num_8,0.766843137331,,,2017_Dec_11_1541,60.0040415789,MAFE4ImagesEEG,001,102633,
AFNE01.JPG,AFNE01.JPG,AFNE01.JPG,AFNE01.JPG,AFNE01.JPG,AFNE01.JPG,,,,,,,,,,,,,0,8,8,6,,,,,,,,,,,AFSA13.jpg,AFNE05.jpg,AFSA08.jpg,AFNE14.jpg,AFNE14.jpg,FN,3,num_4,16,num_4,0.600156905595,,,2017_Dec_11_1541,60.0040415789,MAFE4ImagesEEG,001,102633,
AFNE01.JPG,AFNE01.JPG,AFNE01.JPG,AFNE01.JPG,AFNE01.JPG,AFNE01.JPG,,,,,,,,,,,,,0,9,9,7,,,,,,,,,,,AFSA06.jpg,AFNE08.jpg,AFNE20.jpg,AFSA02.jpg,AFSA06.jpg,FS,4,num_8,16,num_8,0.900130476803,,,2017_Dec_11_1541,60.0040415789,MAFE4ImagesEEG,001,102633,
AFNE01.JPG,AFNE01.JPG,AFNE01.JPG,AFNE01.JPG,AFNE01.JPG,AFNE01.JPG,,,,,,,,,,,,,1,0,10,4,,,,,,,,,,,AFNE02.jpg,AFNE16.jpg,AFSA15.jpg,AFSA17.jpg,AFNE16.jpg,FN,3,num_6,32,num_2,0.816796020838,,,2017_Dec_11_1541,60.0040415789,MAFE4ImagesEEG,001,102633,
AFNE01.JPG,AFNE01.JPG,AFNE01.JPG,AFNE01.JPG,AFNE01.JPG,AFNE01.JPG,,,,,,,,,,,,,1,1,11,8,,,,,,,,,,,AFSA13.jpg,AFNE03.jpg,AFSA19.jpg,AFNE01.jpg,AFNE01.jpg,FN,3,num_4,32,num_2,0.616767346626,,,2017_Dec_11_1541,60.0040415789,MAFE4ImagesEEG,001,102633,
AFNE01.JPG,AFNE01.JPG,AFNE01.JPG,AFNE01.JPG,AFNE01.JPG,AFNE01.JPG,,,,,,,,,,,,,1,2,12,2,,,,,,,,,,,AFNE03.jpg,AFNE06.jpg,AFSA01.jpg,AFSA19.jpg,AFNE03.jpg,FN,3,num_8,16,num_8,0.750126210973,,,2017_Dec_11_1541,60.0040415789,MAFE4ImagesEEG,001,102633,
AFNE01.JPG,AFNE01.JPG,AFNE01.JPG,AFNE01.JPG,AFNE01.JPG,AFNE01.JPG,,,,,,,,,,,,,1,3,13,9,,,,,,,,,,,AFNE04.jpg,AFSA04.jpg,AFNE02.jpg,AFSA02.jpg,AFNE02.jpg,FN,3,num_2,32,num_4,1.08343773405,,,2017_Dec_11_1541,60.0040415789,MAFE4ImagesEEG,001,102633,
AFNE01.JPG,AFNE01.JPG,AFNE01.JPG,AFNE01.JPG,AFNE01.JPG,AFNE01.JPG,,,,,,,,,,,,,1,4,14,0,,,,,,,,,,,AFSA06.jpg,AFNE07.jpg,AFNE11.jpg,AFSA05.jpg,AFNE11.jpg,FN,3,num_2,32,num_4,1.00010616472,,,2017_Dec_11_1541,60.0040415789,MAFE4ImagesEEG,001,102633,
AFNE01.JPG,AFNE01.JPG,AFNE01.JPG,AFNE01.JPG,AFNE01.JPG,AFNE01.JPG,,,,,,,,,,,,,1,5,15,6,,,,,,,,,,,AFNE02.jpg,AFSA18.jpg,AFSA02.jpg,AFNE16.jpg,AFSA02.jpg,FS,4,num_2,32,num_8,1.15009631799,,,2017_Dec_11_1541,60.0040415789,MAFE4ImagesEEG,001,102633,
AFNE01.JPG,AFNE01.JPG,AFNE01.JPG,AFNE01.JPG,AFNE01.JPG,AFNE01.JPG,,,,,,,,,,,,,1,6,16,7,,,,,,,,,,,AFSA02.jpg,AFSA06.jpg,AFNE20.jpg,AFNE10.jpg,AFSA06.jpg,FS,4,num_6,32,num_2,1.31673828769,,,2017_Dec_11_1541,60.0040415789,MAFE4ImagesEEG,001,102633,
AFNE01.JPG,AFNE01.JPG,AFNE01.JPG,AFNE01.JPG,AFNE01.JPG,AFNE01.JPG,,,,,,,,,,,,,1,7,17,1,,,,,,,,,,,AFSA01.jpg,AFSA10.jpg,AFNE07.jpg,AFNE11.jpg,AFSA10.jpg,FS,4,num_6,16,num_6,0.633412106894,,,2017_Dec_11_1541,60.0040415789,MAFE4ImagesEEG,001,102633,
AFNE01.JPG,AFNE01.JPG,AFNE01.JPG,AFNE01.JPG,AFNE01.JPG,AFNE01.JPG,,,,,,,,,,,,,1,8,18,3,,,,,,,,,,,AFNE05.jpg,AFNE10.jpg,AFSA20.jpg,AFSA11.jpg,AFSA20.jpg,FS,4,num_2,32,num_4,0.800142921507,,,2017_Dec_11_1541,60.0040415789,MAFE4ImagesEEG,001,102633,
AFNE01.JPG,AFNE01.JPG,AFNE01.JPG,AFNE01.JPG,AFNE01.JPG,AFNE01.JPG,,,,,,,,,,,,,1,9,19,5,,,,,,,,,,,AFSA17.jpg,AFNE06.jpg,AFSA06.jpg,AFNE05.jpg,AFNE06.jpg,FN,3,num_6,32,num_2,1.10182186263,,,2017_Dec_11_1541,60.0040415789,MAFE4ImagesEEG,001,102633,
AFNE01.JPG,AFNE01.JPG,AFNE01.JPG,AFNE01.JPG,AFNE01.JPG,AFNE01.JPG,,,,,,,,,,,,,2,0,20,8,,,,,,,,,,,AFNE11.jpg,AFSA10.jpg,AFSA12.jpg,AFNE04.jpg,AFSA12.jpg,FS,4,num_2,16,num_2,1.11675644154,,,2017_Dec_11_1541,60.0040415789,MAFE4ImagesEEG,001,102633,
AFNE01.JPG,AFNE01.JPG,AFNE01.JPG,AFNE01.JPG,AFNE01.JPG,AFNE01.JPG,,,,,,,,,,,,,2,1,21,1,,,,,,,,,,,AFSA02.jpg,AFSA19.jpg,AFNE14.jpg,AFNE06.jpg,AFSA02.jpg,FS,4,num_8,16,num_8,2.3500056772,,,2017_Dec_11_1541,60.0040415789,MAFE4ImagesEEG,001,102633,
AFNE01.JPG,AFNE01.JPG,AFNE01.JPG,AFNE01.JPG,AFNE01.JPG,AFNE01.JPG,,,,,,,,,,,,,2,2,22,0,,,,,,,,,,,AFNE10.jpg,AFNE06.jpg,AFSA04.jpg,AFSA19.jpg,AFSA04.jpg,FS,4,num_2,32,num_8,1.48337223893,,,2017_Dec_11_1541,60.0040415789,MAFE4ImagesEEG,001,102633,
AFNE01.JPG,AFNE01.JPG,AFNE01.JPG,AFNE01.JPG,AFNE01.JPG,AFNE01.JPG,,,,,,,,,,,,,2,3,23,2,,,,,,,,,,,AFSA05.jpg,AFNE09.jpg,AFNE18.jpg,AFSA18.jpg,AFNE18.jpg,FN,3,num_2,32,num_6,0.316793775652,,,2017_Dec_11_1541,60.0040415789,MAFE4ImagesEEG,001,102633,
AFNE01.JPG,AFNE01.JPG,AFNE01.JPG,AFNE01.JPG,AFNE01.JPG,AFNE01.JPG,,,,,,,,,,,,,2,4,24,9,,,,,,,,,,,AFSA15.jpg,AFNE20.jpg,AFSA20.jpg,AFNE07.jpg,AFSA20.jpg,FS,4,num_2,16,num_2,1.58313046582,,,2017_Dec_11_1541,60.0040415789,MAFE4ImagesEEG,001,102633,
AFNE01.JPG,AFNE01.JPG,AFNE01.JPG,AFNE01.JPG,AFNE01.JPG,AFNE01.JPG,,,,,,,,,,,,,2,5,25,7,,,,,,,,,,,AFSA12.jpg,AFSA05.jpg,AFNE12.jpg,AFNE09.jpg,AFNE09.jpg,FN,3,num_4,16,num_4,0.950155205792,,,2017_Dec_11_1541,60.0040415789,MAFE4ImagesEEG,001,102633,
AFNE01.JPG,AFNE01.JPG,AFNE01.JPG,AFNE01.JPG,AFNE01.JPG,AFNE01.JPG,,,,,,,,,,,,,2,6,26,6,,,,,,,,,,,AFNE02.jpg,AFSA09.jpg,AFNE17.jpg,AFSA12.jpg,AFNE17.jpg,FN,3,num_2,32,num_8,0.850142632844,,,2017_Dec_11_1541,60.0040415789,MAFE4ImagesEEG,001,102633,
AFNE01.JPG,AFNE01.JPG,AFNE01.JPG,AFNE01.JPG,AFNE01.JPG,AFNE01.JPG,,,,,,,,,,,,,2,7,27,3,,,,,,,,,,,AFSA12.jpg,AFNE11.jpg,AFNE04.jpg,AFSA03.jpg,AFNE04.jpg,FN,3,num_2,32,num_4,1.38364801067,,,2017_Dec_11_1541,60.0040415789,MAFE4ImagesEEG,001,102633,
AFNE01.JPG,AFNE01.JPG,AFNE01.JPG,AFNE01.JPG,AFNE01.JPG,AFNE01.JPG,,,,,,,,,,,,,2,8,28,5,,,,,,,,,,,AFNE18.jpg,AFSA07.jpg,AFNE20.jpg,AFSA20.jpg,AFNE20.jpg,FN,3,num_2,32,num_4,1.3167260997,,,2017_Dec_11_1541,60.0040415789,MAFE4ImagesEEG,001,102633,
AFNE01.JPG,AFNE01.JPG,AFNE01.JPG,AFNE01.JPG,AFNE01.JPG,AFNE01.JPG,,,,,,,,,,,,,2,9,29,4,,,,,,,,,,,AFNE05.jpg,AFNE10.jpg,AFSA09.jpg,AFSA20.jpg,AFNE05.jpg,FN,3,num_8,16,num_8,2.04992529983,,,2017_Dec_11_1541,60.0040415789,MAFE4ImagesEEG,001,102633,
AFNE01.JPG,AFNE01.JPG,AFNE01.JPG,AFNE01.JPG,AFNE01.JPG,AFNE01.JPG,,,,,,,,,,,,,3,0,30,6,,,,,,,,,,,AFNE05.jpg,AFSA17.jpg,AFNE17.jpg,AFSA12.jpg,AFSA12.jpg,FS,4,num_4,32,num_2,2.20004888065,,,2017_Dec_11_1541,60.0040415789,MAFE4ImagesEEG,001,102633,
AFNE01.JPG,AFNE01.JPG,AFNE01.JPG,AFNE01.JPG,AFNE01.JPG,AFNE01.JPG,,,,,,,,,,,,,3,1,31,5,,,,,,,,,,,AFSA05.jpg,AFNE01.jpg,AFSA02.jpg,AFNE18.jpg,AFSA05.jpg,FS,4,num_8,32,num_2,1.11674329126,,,2017_Dec_11_1541,60.0040415789,MAFE4ImagesEEG,001,102633,
AFNE01.JPG,AFNE01.JPG,AFNE01.JPG,AFNE01.JPG,AFNE01.JPG,AFNE01.JPG,,,,,,,,,,,,,3,2,32,3,,,,,,,,,,,AFSA18.jpg,AFNE09.jpg,AFSA15.jpg,AFNE08.jpg,AFNE08.jpg,FN,3,num_4,16,num_4,2.05001542764,,,2017_Dec_11_1541,60.0040415789,MAFE4ImagesEEG,001,102633,
AFNE01.JPG,AFNE01.JPG,AFNE01.JPG,AFNE01.JPG,AFNE01.JPG,AFNE01.JPG,,,,,,,,,,,,,3,3,33,1,,,,,,,,,,,AFNE07.jpg,AFSA16.jpg,AFNE02.jpg,AFSA13.jpg,AFSA16.jpg,FS,4,num_6,16,num_6,0.983474875567,,,2017_Dec_11_1541,60.0040415789,MAFE4ImagesEEG,001,102633,
AFNE01.JPG,AFNE01.JPG,AFNE01.JPG,AFNE01.JPG,AFNE01.JPG,AFNE01.JPG,,,,,,,,,,,,,3,4,34,2,,,,,,,,,,,AFNE11.jpg,AFSA09.jpg,AFNE15.jpg,AFSA10.jpg,AFNE15.jpg,FN,3,num_2,16,num_2,0.983178191818,,,2017_Dec_11_1541,60.0040415789,MAFE4ImagesEEG,001,102633,
AFNE01.JPG,AFNE01.JPG,AFNE01.JPG,AFNE01.JPG,AFNE01.JPG,AFNE01.JPG,,,,,,,,,,,,,3,5,35,8,,,,,,,,,,,AFSA06.jpg,AFNE20.jpg,AFNE08.jpg,AFSA13.jpg,AFSA13.jpg,FS,4,num_4,32,num_8,0.916666506324,,,2017_Dec_11_1541,60.0040415789,MAFE4ImagesEEG,001,102633,
AFNE01.JPG,AFNE01.JPG,AFNE01.JPG,AFNE01.JPG,AFNE01.JPG,AFNE01.JPG,,,,,,,,,,,,,3,6,36,0,,,,,,,,,,,AFNE13.jpg,AFSA20.jpg,AFSA14.jpg,AFNE12.jpg,AFSA20.jpg,FS,4,num_6,16,num_6,0.800126563758,,,2017_Dec_11_1541,60.0040415789,MAFE4ImagesEEG,001,102633,
AFNE01.JPG,AFNE01.JPG,AFNE01.JPG,AFNE01.JPG,AFNE01.JPG,AFNE01.JPG,,,,,,,,,,,,,3,7,37,7,,,,,,,,,,,AFNE16.jpg,AFSA16.jpg,AFNE09.jpg,AFSA12.jpg,AFNE09.jpg,FN,3,num_2,16,num_2,2.88360342779,,,2017_Dec_11_1541,60.0040415789,MAFE4ImagesEEG,001,102633,
AFNE01.JPG,AFNE01.JPG,AFNE01.JPG,AFNE01.JPG,AFNE01.JPG,AFNE01.JPG,,,,,,,,,,,,,3,8,38,9,,,,,,,,,,,AFSA14.jpg,AFNE10.jpg,AFSA17.jpg,AFNE19.jpg,AFNE10.jpg,FN,3,num_6,32,num_8,1.53337387484,,,2017_Dec_11_1541,60.0040415789,MAFE4ImagesEEG,001,102633,
AFNE01.JPG,AFNE01.JPG,AFNE01.JPG,AFNE01.JPG,AFNE01.JPG,AFNE01.JPG,,,,,,,,,,,,,3,9,39,4,,,,,,,,,,,AFSA17.jpg,AFNE12.jpg,AFNE14.jpg,AFSA09.jpg,AFNE14.jpg,FN,3,num_2,32,num_4,0.833457459463,,,2017_Dec_11_1541,60.0040415789,MAFE4ImagesEEG,001,102633,
AFNE01.JPG,AFNE01.JPG,AFNE01.JPG,AFNE01.JPG,AFNE01.JPG,AFNE01.JPG,,,,,,,,,,,,,4,0,40,0,,,,,,,,,,,AFSA03.jpg,AFNE17.jpg,AFNE06.jpg,AFSA14.jpg,AFNE17.jpg,FN,3,num_6,16,num_6,0.700131631223,,,2017_Dec_11_1541,60.0040415789,MAFE4ImagesEEG,001,102633,
AFNE01.JPG,AFNE01.JPG,AFNE01.JPG,AFNE01.JPG,AFNE01.JPG,AFNE01.JPG,,,,,,,,,,,,,4,1,41,4,,,,,,,,,,,AFNE08.jpg,AFSA09.jpg,AFNE06.jpg,AFSA08.jpg,AFNE06.jpg,FN,3,num_2,32,num_8,2.78328230372,,,2017_Dec_11_1541,60.0040415789,MAFE4ImagesEEG,001,102633,
AFNE01.JPG,AFNE01.JPG,AFNE01.JPG,AFNE01.JPG,AFNE01.JPG,AFNE01.JPG,,,,,,,,,,,,,4,2,42,3,,,,,,,,,,,AFSA17.jpg,AFNE14.jpg,AFNE08.jpg,AFSA16.jpg,AFSA16.jpg,FS,4,num_4,16,num_4,1.08344158274,,,2017_Dec_11_1541,60.0040415789,MAFE4ImagesEEG,001,102633,
AFNE01.JPG,AFNE01.JPG,AFNE01.JPG,AFNE01.JPG,AFNE01.JPG,AFNE01.JPG,,,,,,,,,,,,,4,3,43,1,,,,,,,,,,,AFSA17.jpg,AFSA16.jpg,AFNE08.jpg,AFNE18.jpg,AFNE18.jpg,FN,3,num_4,16,num_4,1.76675236807,,,2017_Dec_11_1541,60.0040415789,MAFE4ImagesEEG,001,102633,
AFNE01.JPG,AFNE01.JPG,AFNE01.JPG,AFNE01.JPG,AFNE01.JPG,AFNE01.JPG,,,,,,,,,,,,,4,4,44,2,,,,,,,,,,,AFNE01.jpg,AFNE19.jpg,AFSA13.jpg,AFSA07.jpg,AFNE19.jpg,FN,3,num_6,32,num_8,0.850113124819,,,2017_Dec_11_1541,60.0040415789,MAFE4ImagesEEG,001,102633,
AFNE01.JPG,AFNE01.JPG,AFNE01.JPG,AFNE01.JPG,AFNE01.JPG,AFNE01.JPG,,,,,,,,,,,,,4,5,45,5,,,,,,,,,,,AFSA11.jpg,AFNE13.jpg,AFNE01.jpg,AFSA01.jpg,AFSA01.jpg,FS,4,num_4,32,num_2,0.983425161103,,,2017_Dec_11_1541,60.0040415789,MAFE4ImagesEEG,001,102633,
AFNE01.JPG,AFNE01.JPG,AFNE01.JPG,AFNE01.JPG,AFNE01.JPG,AFNE01.JPG,,,,,,,,,,,,,4,6,46,9,,,,,,,,,,,AFSA10.jpg,AFSA02.jpg,AFNE19.jpg,AFNE17.jpg,AFNE17.jpg,FN,3,num_4,32,num_8,1.26673633116,,,2017_Dec_11_1541,60.0040415789,MAFE4ImagesEEG,001,102633,
AFNE01.JPG,AFNE01.JPG,AFNE01.JPG,AFNE01.JPG,AFNE01.JPG,AFNE01.JPG,,,,,,,,,,,,,4,7,47,8,,,,,,,,,,,AFSA10.jpg,AFSA08.jpg,AFNE12.jpg,AFNE02.jpg,AFSA10.jpg,FS,4,num_8,32,num_2,0.783457427518,,,2017_Dec_11_1541,60.0040415789,MAFE4ImagesEEG,001,102633,
AFNE01.JPG,AFNE01.JPG,AFNE01.JPG,AFNE01.JPG,AFNE01.JPG,AFNE01.JPG,,,,,,,,,,,,,4,8,48,6,,,,,,,,,,,AFNE11.jpg,AFNE10.jpg,AFSA13.jpg,AFSA07.jpg,AFSA13.jpg,FS,4,num_2,16,num_2,2.99991885293,,,2017_Dec_11_1541,60.0040415789,MAFE4ImagesEEG,001,102633,
AFNE01.JPG,AFNE01.JPG,AFNE01.JPG,AFNE01.JPG,AFNE01.JPG,AFNE01.JPG,,,,,,,,,,,,,4,9,49,7,,,,,,,,,,,AFSA06.jpg,AFSA14.jpg,AFNE11.jpg,AFNE04.jpg,AFNE11.jpg,FN,3,num_2,32,num_8,2.35001080879,,,2017_Dec_11_1541,60.0040415789,MAFE4ImagesEEG,001,102633,
AFNE01.JPG,AFNE01.JPG,AFNE01.JPG,AFNE01.JPG,AFNE01.JPG,AFNE01.JPG,,,,,,,,,,,,,5,0,50,3,,,,,,,,,,,AFSA05.jpg,AFNE12.jpg,AFNE20.jpg,AFSA20.jpg,AFNE12.jpg,FN,3,num_6,16,num_6,2.13325237879,,,2017_Dec_11_1541,60.0040415789,MAFE4ImagesEEG,001,102633,
AFNE01.JPG,AFNE01.JPG,AFNE01.JPG,AFNE01.JPG,AFNE01.JPG,AFNE01.JPG,,,,,,,,,,,,,5,1,51,7,,,,,,,,,,,AFSA13.jpg,AFNE15.jpg,AFNE19.jpg,AFSA17.jpg,AFNE19.jpg,FN,3,num_2,16,num_2,1.08343388513,,,2017_Dec_11_1541,60.0040415789,MAFE4ImagesEEG,001,102633,
AFNE01.JPG,AFNE01.JPG,AFNE01.JPG,AFNE01.JPG,AFNE01.JPG,AFNE01.JPG,,,,,,,,,,,,,5,2,52,0,,,,,,,,,,,AFSA05.jpg,AFSA20.jpg,AFNE09.jpg,AFNE10.jpg,AFSA20.jpg,FS,4,num_6,32,num_8,1.63349838578,,,2017_Dec_11_1541,60.0040415789,MAFE4ImagesEEG,001,102633,
AFNE01.JPG,AFNE01.JPG,AFNE01.JPG,AFNE01.JPG,AFNE01.JPG,AFNE01.JPG,,,,,,,,,,,,,5,3,53,5,,,,,,,,,,,AFNE08.jpg,AFNE09.jpg,AFSA08.jpg,AFSA15.jpg,AFSA08.jpg,FS,4,num_2,16,num_2,2.81663917913,,,2017_Dec_11_1541,60.0040415789,MAFE4ImagesEEG,001,102633,
AFNE01.JPG,AFNE01.JPG,AFNE01.JPG,AFNE01.JPG,AFNE01.JPG,AFNE01.JPG,,,,,,,,,,,,,5,4,54,4,,,,,,,,,,,AFSA03.jpg,AFSA18.jpg,AFNE02.jpg,AFNE14.jpg,AFNE02.jpg,FN,3,num_2,32,num_4,0.800109243719,,,2017_Dec_11_1541,60.0040415789,MAFE4ImagesEEG,001,102633,
AFNE01.JPG,AFNE01.JPG,AFNE01.JPG,AFNE01.JPG,AFNE01.JPG,AFNE01.JPG,,,,,,,,,,,,,5,5,55,1,,,,,,,,,,,AFNE14.jpg,AFSA02.jpg,AFNE12.jpg,AFSA14.jpg,AFNE12.jpg,FN,3,num_2,32,num_8,2.25004891283,,,2017_Dec_11_1541,60.0040415789,MAFE4ImagesEEG,001,102633,
AFNE01.JPG,AFNE01.JPG,AFNE01.JPG,AFNE01.JPG,AFNE01.JPG,AFNE01.JPG,,,,,,,,,,,,,5,6,56,9,,,,,,,,,,,AFSA13.jpg,AFSA15.jpg,AFNE11.jpg,AFNE17.jpg,AFSA13.jpg,FS,4,num_8,32,num_2,0.933753565885,,,2017_Dec_11_1541,60.0040415789,MAFE4ImagesEEG,001,102633,
AFNE01.JPG,AFNE01.JPG,AFNE01.JPG,AFNE01.JPG,AFNE01.JPG,AFNE01.JPG,,,,,,,,,,,,,5,7,57,8,,,,,,,,,,,AFSA04.jpg,AFNE13.jpg,AFSA09.jpg,AFNE07.jpg,AFNE07.jpg,FN,3,num_4,16,num_4,0.933442128124,,,2017_Dec_11_1541,60.0040415789,MAFE4ImagesEEG,001,102633,
AFNE01.JPG,AFNE01.JPG,AFNE01.JPG,AFNE01.JPG,AFNE01.JPG,AFNE01.JPG,,,,,,,,,,,,,5,8,58,2,,,,,,,,,,,AFSA14.jpg,AFNE16.jpg,AFNE05.jpg,AFSA10.jpg,AFNE16.jpg,FN,3,num_6,32,num_2,0.833446233533,,,2017_Dec_11_1541,60.0040415789,MAFE4ImagesEEG,001,102633,
AFNE01.JPG,AFNE01.JPG,AFNE01.JPG,AFNE01.JPG,AFNE01.JPG,AFNE01.JPG,,,,,,,,,,,,,5,9,59,6,,,,,,,,,,,AFSA20.jpg,AFNE03.jpg,AFNE19.jpg,AFSA08.jpg,AFNE03.jpg,FN,3,num_6,16,num_6,0.966764363693,,,2017_Dec_11_1541,60.0040415789,MAFE4ImagesEEG,001,102633,
,,,,,,,,,,,,,,,,,,,,,,,,,,,,,,,,,,,,,,,,,,,space,8.08283474436,2017_Dec_11_1541,60.0040415789,MAFE4ImagesEEG,001,102633,
AFNE01.JPG,AFNE01.JPG,AFNE01.JPG,AFNE01.JPG,AFNE01.JPG,AFNE01.JPG,,,,,,,,,,,,,,,,,0,0,0,9,,,,,,,AMNE18.jpg,AMSA08.jpg,AMSA12.jpg,AMNE02.jpg,AMSA08.jpg,MS,2,num_6,32,num_2,0.633491970832,,,2017_Dec_11_1541,60.0040415789,MAFE4ImagesEEG,001,102633,
AFNE01.JPG,AFNE01.JPG,AFNE01.JPG,AFNE01.JPG,AFNE01.JPG,AFNE01.JPG,,,,,,,,,,,,,,,,,0,1,1,2,,,,,,,AMSA03.jpg,AMSA19.jpg,AMNE03.jpg,AMNE06.jpg,AMSA03.jpg,MS,2,num_8,32,num_2,1.01675220788,,,2017_Dec_11_1541,60.0040415789,MAFE4ImagesEEG,001,102633,
AFNE01.JPG,AFNE01.JPG,AFNE01.JPG,AFNE01.JPG,AFNE01.JPG,AFNE01.JPG,,,,,,,,,,,,,,,,,0,2,2,4,,,,,,,AMSA13.jpg,AMNE07.jpg,AMSA18.jpg,AMNE03.jpg,AMSA13.jpg,MS,2,num_8,16,num_8,0.81675111712,,,2017_Dec_11_1541,60.0040415789,MAFE4ImagesEEG,001,102633,
AFNE01.JPG,AFNE01.JPG,AFNE01.JPG,AFNE01.JPG,AFNE01.JPG,AFNE01.JPG,,,,,,,,,,,,,,,,,0,3,3,3,,,,,,,AMSA16.jpg,AMNE16.jpg,AMSA20.jpg,AMNE11.jpg,AMSA16.jpg,MS,2,num_8,32,num_2,1.18328897515,,,2017_Dec_11_1541,60.0040415789,MAFE4ImagesEEG,001,102633,
AFNE01.JPG,AFNE01.JPG,AFNE01.JPG,AFNE01.JPG,AFNE01.JPG,AFNE01.JPG,,,,,,,,,,,,,,,,,0,4,4,6,,,,,,,AMSA07.jpg,AMNE03.jpg,AMNE13.jpg,AMSA15.jpg,AMNE03.jpg,MN,1,num_6,16,num_6,0.966761477292,,,2017_Dec_11_1541,60.0040415789,MAFE4ImagesEEG,001,102633,
AFNE01.JPG,AFNE01.JPG,AFNE01.JPG,AFNE01.JPG,AFNE01.JPG,AFNE01.JPG,,,,,,,,,,,,,,,,,0,5,5,8,,,,,,,AMSA20.jpg,AMSA03.jpg,AMNE10.jpg,AMNE06.jpg,AMSA03.jpg,MS,2,num_6,16,num_6,1.0667480703,,,2017_Dec_11_1541,60.0040415789,MAFE4ImagesEEG,001,102633,
AFNE01.JPG,AFNE01.JPG,AFNE01.JPG,AFNE01.JPG,AFNE01.JPG,AFNE01.JPG,,,,,,,,,,,,,,,,,0,6,6,7,,,,,,,AMSA03.jpg,AMSA05.jpg,AMNE02.jpg,AMNE03.jpg,AMNE02.jpg,MN,1,num_2,32,num_8,0.566931533162,,,2017_Dec_11_1541,60.0040415789,MAFE4ImagesEEG,001,102633,
AFNE01.JPG,AFNE01.JPG,AFNE01.JPG,AFNE01.JPG,AFNE01.JPG,AFNE01.JPG,,,,,,,,,,,,,,,,,0,7,7,1,,,,,,,AMSA13.jpg,AMNE10.jpg,AMSA01.jpg,AMNE05.jpg,AMSA13.jpg,MS,2,num_8,32,num_4,0.766787328757,,,2017_Dec_11_1541,60.0040415789,MAFE4ImagesEEG,001,102633,
AFNE01.JPG,AFNE01.JPG,AFNE01.JPG,AFNE01.JPG,AFNE01.JPG,AFNE01.JPG,,,,,,,,,,,,,,,,,0,8,8,0,,,,,,,AMSA16.jpg,AMNE10.jpg,AMSA17.jpg,AMNE01.jpg,AMSA17.jpg,MS,2,num_2,16,num_2,1.28341508983,,,2017_Dec_11_1541,60.0040415789,MAFE4ImagesEEG,001,102633,
AFNE01.JPG,AFNE01.JPG,AFNE01.JPG,AFNE01.JPG,AFNE01.JPG,AFNE01.JPG,,,,,,,,,,,,,,,,,0,9,9,5,,,,,,,AMNE10.jpg,AMSA05.jpg,AMSA01.jpg,AMNE20.jpg,AMNE20.jpg,MN,1,num_4,16,num_4,0.766729274997,,,2017_Dec_11_1541,60.0040415789,MAFE4ImagesEEG,001,102633,
AFNE01.JPG,AFNE01.JPG,AFNE01.JPG,AFNE01.JPG,AFNE01.JPG,AFNE01.JPG,,,,,,,,,,,,,,,,,1,0,10,0,,,,,,,AMSA18.jpg,AMNE14.jpg,AMNE10.jpg,AMSA08.jpg,AMNE10.jpg,MN,1,num_2,16,num_2,1.10010943608,,,2017_Dec_11_1541,60.0040415789,MAFE4ImagesEEG,001,102633,
AFNE01.JPG,AFNE01.JPG,AFNE01.JPG,AFNE01.JPG,AFNE01.JPG,AFNE01.JPG,,,,,,,,,,,,,,,,,1,1,11,8,,,,,,,AMNE05.jpg,AMSA02.jpg,AMSA18.jpg,AMNE01.jpg,AMSA18.jpg,MS,2,num_2,32,num_8,1.21674912865,,,2017_Dec_11_1541,60.0040415789,MAFE4ImagesEEG,001,102633,
AFNE01.JPG,AFNE01.JPG,AFNE01.JPG,AFNE01.JPG,AFNE01.JPG,AFNE01.JPG,,,,,,,,,,,,,,,,,1,2,12,4,,,,,,,AMNE05.jpg,AMSA19.jpg,AMNE17.jpg,AMSA12.jpg,AMNE17.jpg,MN,1,num_2,16,num_2,1.58335017227,,,2017_Dec_11_1541,60.0040415789,MAFE4ImagesEEG,001,102633,
AFNE01.JPG,AFNE01.JPG,AFNE01.JPG,AFNE01.JPG,AFNE01.JPG,AFNE01.JPG,,,,,,,,,,,,,,,,,1,3,13,7,,,,,,,AMSA14.jpg,AMNE19.jpg,AMSA05.jpg,AMNE12.jpg,AMNE12.jpg,MN,1,num_4,16,num_4,1.2333717579,,,2017_Dec_11_1541,60.0040415789,MAFE4ImagesEEG,001,102633,
AFNE01.JPG,AFNE01.JPG,AFNE01.JPG,AFNE01.JPG,AFNE01.JPG,AFNE01.JPG,,,,,,,,,,,,,,,,,1,4,14,9,,,,,,,AMSA11.jpg,AMNE20.jpg,AMSA17.jpg,AMNE11.jpg,AMSA11.jpg,MS,2,num_8,32,num_6,1.33341159369,,,2017_Dec_11_1541,60.0040415789,MAFE4ImagesEEG,001,102633,
AFNE01.JPG,AFNE01.JPG,AFNE01.JPG,AFNE01.JPG,AFNE01.JPG,AFNE01.JPG,,,,,,,,,,,,,,,,,1,5,15,1,,,,,,,AMNE16.jpg,AMSA02.jpg,AMNE19.jpg,AMSA08.jpg,AMNE16.jpg,MN,1,num_8,16,num_8,0.916796405567,,,2017_Dec_11_1541,60.0040415789,MAFE4ImagesEEG,001,102633,
AFNE01.JPG,AFNE01.JPG,AFNE01.JPG,AFNE01.JPG,AFNE01.JPG,AFNE01.JPG,,,,,,,,,,,,,,,,,1,6,16,3,,,,,,,AMSA17.jpg,AMNE01.jpg,AMSA03.jpg,AMNE17.jpg,AMNE01.jpg,MN,1,num_6,16,num_6,2.56692447676,,,2017_Dec_11_1541,60.0040415789,MAFE4ImagesEEG,001,102633,
AFNE01.JPG,AFNE01.JPG,AFNE01.JPG,AFNE01.JPG,AFNE01.JPG,AFNE01.JPG,,,,,,,,,,,,,,,,,1,7,17,5,,,,,,,AMNE01.jpg,AMSA11.jpg,AMNE16.jpg,AMSA08.jpg,AMSA08.jpg,MS,2,num_4,32,num_2,3.28331790585,,,2017_Dec_11_1541,60.0040415789,MAFE4ImagesEEG,001,102633,
AFNE01.JPG,AFNE01.JPG,AFNE01.JPG,AFNE01.JPG,AFNE01.JPG,AFNE01.JPG,,,,,,,,,,,,,,,,,1,8,18,2,,,,,,,AMSA17.jpg,AMNE06.jpg,AMNE10.jpg,AMSA03.jpg,AMSA17.jpg,MS,2,num_8,32,num_4,1.13342429488,,,2017_Dec_11_1541,60.0040415789,MAFE4ImagesEEG,001,102633,
AFNE01.JPG,AFNE01.JPG,AFNE01.JPG,AFNE01.JPG,AFNE01.JPG,AFNE01.JPG,,,,,,,,,,,,,,,,,1,9,19,6,,,,,,,AMNE16.jpg,AMNE17.jpg,AMSA20.jpg,AMSA11.jpg,AMNE16.jpg,MN,1,num_8,16,num_8,1.15008990304,,,2017_Dec_11_1541,60.0040415789,MAFE4ImagesEEG,001,102633,
AFNE01.JPG,AFNE01.JPG,AFNE01.JPG,AFNE01.JPG,AFNE01.JPG,AFNE01.JPG,,,,,,,,,,,,,,,,,2,0,20,6,,,,,,,AMNE01.jpg,AMSA15.jpg,AMNE07.jpg,AMSA14.jpg,AMSA14.jpg,MS,2,num_4,16,num_4,1.20013772557,,,2017_Dec_11_1541,60.0040415789,MAFE4ImagesEEG,001,102633,
AFNE01.JPG,AFNE01.JPG,AFNE01.JPG,AFNE01.JPG,AFNE01.JPG,AFNE01.JPG,,,,,,,,,,,,,,,,,2,1,21,8,,,,,,,AMNE15.jpg,AMNE17.jpg,AMSA07.jpg,AMSA20.jpg,AMSA20.jpg,MS,2,num_4,32,num_8,1.05015494907,,,2017_Dec_11_1541,60.0040415789,MAFE4ImagesEEG,001,102633,
AFNE01.JPG,AFNE01.JPG,AFNE01.JPG,AFNE01.JPG,AFNE01.JPG,AFNE01.JPG,,,,,,,,,,,,,,,,,2,2,22,2,,,,,,,AMNE03.jpg,AMNE10.jpg,AMSA09.jpg,AMSA01.jpg,AMSA01.jpg,MS,2,num_4,32,num_2,3.51660146052,,,2017_Dec_11_1541,60.0040415789,MAFE4ImagesEEG,001,102633,
AFNE01.JPG,AFNE01.JPG,AFNE01.JPG,AFNE01.JPG,AFNE01.JPG,AFNE01.JPG,,,,,,,,,,,,,,,,,2,3,23,3,,,,,,,AMNE10.jpg,AMNE13.jpg,AMSA13.jpg,AMSA01.jpg,AMSA01.jpg,MS,2,num_4,16,num_4,0.633459576173,,,2017_Dec_11_1541,60.0040415789,MAFE4ImagesEEG,001,102633,
AFNE01.JPG,AFNE01.JPG,AFNE01.JPG,AFNE01.JPG,AFNE01.JPG,AFNE01.JPG,,,,,,,,,,,,,,,,,2,4,24,0,,,,,,,AMSA17.jpg,AMNE08.jpg,AMSA04.jpg,AMNE19.jpg,AMSA17.jpg,MS,2,num_8,16,num_8,1.11678915704,,,2017_Dec_11_1541,60.0040415789,MAFE4ImagesEEG,001,102633,
AFNE01.JPG,AFNE01.JPG,AFNE01.JPG,AFNE01.JPG,AFNE01.JPG,AFNE01.JPG,,,,,,,,,,,,,,,,,2,5,25,7,,,,,,,AMSA08.jpg,AMSA15.jpg,AMNE01.jpg,AMNE02.jpg,AMNE02.jpg,MN,1,num_4,16,num_4,1.01678652689,,,2017_Dec_11_1541,60.0040415789,MAFE4ImagesEEG,001,102633,
AFNE01.JPG,AFNE01.JPG,AFNE01.JPG,AFNE01.JPG,AFNE01.JPG,AFNE01.JPG,,,,,,,,,,,,,,,,,2,6,26,5,,,,,,,AMNE02.jpg,AMNE12.jpg,AMSA08.jpg,AMSA07.jpg,AMSA07.jpg,MS,2,num_4,16,num_4,0.750099268742,,,2017_Dec_11_1541,60.0040415789,MAFE4ImagesEEG,001,102633,
AFNE01.JPG,AFNE01.JPG,AFNE01.JPG,AFNE01.JPG,AFNE01.JPG,AFNE01.JPG,,,,,,,,,,,,,,,,,2,7,27,1,,,,,,,AMSA02.jpg,AMNE01.jpg,AMSA09.jpg,AMNE02.jpg,AMNE01.jpg,MN,1,num_6,16,num_6,0.683436515043,,,2017_Dec_11_1541,60.0040415789,MAFE4ImagesEEG,001,102633,
AFNE01.JPG,AFNE01.JPG,AFNE01.JPG,AFNE01.JPG,AFNE01.JPG,AFNE01.JPG,,,,,,,,,,,,,,,,,2,8,28,9,,,,,,,AMNE03.jpg,AMNE20.jpg,AMSA11.jpg,AMSA14.jpg,AMNE03.jpg,MN,1,num_8,32,num_4,0.766625034623,,,2017_Dec_11_1541,60.0040415789,MAFE4ImagesEEG,001,102633,
AFNE01.JPG,AFNE01.JPG,AFNE01.JPG,AFNE01.JPG,AFNE01.JPG,AFNE01.JPG,,,,,,,,,,,,,,,,,2,9,29,4,,,,,,,AMNE01.jpg,AMSA11.jpg,AMNE16.jpg,AMSA10.jpg,AMSA10.jpg,MS,2,num_4,16,num_4,0.850147443824,,,2017_Dec_11_1541,60.0040415789,MAFE4ImagesEEG,001,102633,
AFNE01.JPG,AFNE01.JPG,AFNE01.JPG,AFNE01.JPG,AFNE01.JPG,AFNE01.JPG,,,,,,,,,,,,,,,,,3,0,30,1,,,,,,,AMSA19.jpg,AMNE02.jpg,AMNE08.jpg,AMSA09.jpg,AMNE08.jpg,MN,1,num_2,32,num_4,0.800146128982,,,2017_Dec_11_1541,60.0040415789,MAFE4ImagesEEG,001,102633,
AFNE01.JPG,AFNE01.JPG,AFNE01.JPG,AFNE01.JPG,AFNE01.JPG,AFNE01.JPG,,,,,,,,,,,,,,,,,3,1,31,7,,,,,,,AMNE10.jpg,AMSA14.jpg,AMSA05.jpg,AMNE15.jpg,AMNE10.jpg,MN,1,num_8,16,num_8,0.966750251362,,,2017_Dec_11_1541,60.0040415789,MAFE4ImagesEEG,001,102633,
AFNE01.JPG,AFNE01.JPG,AFNE01.JPG,AFNE01.JPG,AFNE01.JPG,AFNE01.JPG,,,,,,,,,,,,,,,,,3,2,32,5,,,,,,,AMSA08.jpg,AMSA14.jpg,AMNE06.jpg,AMNE02.jpg,AMNE02.jpg,MN,1,num_4,16,num_4,0.800124318572,,,2017_Dec_11_1541,60.0040415789,MAFE4ImagesEEG,001,102633,
AFNE01.JPG,AFNE01.JPG,AFNE01.JPG,AFNE01.JPG,AFNE01.JPG,AFNE01.JPG,,,,,,,,,,,,,,,,,3,3,33,9,,,,,,,AMNE01.jpg,AMSA06.jpg,AMSA16.jpg,AMNE14.jpg,AMSA06.jpg,MS,2,num_6,16,num_6,0.900117326528,,,2017_Dec_11_1541,60.0040415789,MAFE4ImagesEEG,001,102633,
AFNE01.JPG,AFNE01.JPG,AFNE01.JPG,AFNE01.JPG,AFNE01.JPG,AFNE01.JPG,,,,,,,,,,,,,,,,,3,4,34,8,,,,,,,AMNE11.jpg,AMNE05.jpg,AMSA08.jpg,AMSA15.jpg,AMNE05.jpg,MN,1,num_6,16,num_6,0.950099076377,,,2017_Dec_11_1541,60.0040415789,MAFE4ImagesEEG,001,102633,
AFNE01.JPG,AFNE01.JPG,AFNE01.JPG,AFNE01.JPG,AFNE01.JPG,AFNE01.JPG,,,,,,,,,,,,,,,,,3,5,35,3,,,,,,,AMSA11.jpg,AMNE17.jpg,AMSA14.jpg,AMNE16.jpg,AMSA11.jpg,MS,2,num_8,16,num_8,1.70004663547,,,2017_Dec_11_1541,60.0040415789,MAFE4ImagesEEG,001,102633,
AFNE01.JPG,AFNE01.JPG,AFNE01.JPG,AFNE01.JPG,AFNE01.JPG,AFNE01.JPG,,,,,,,,,,,,,,,,,3,6,36,2,,,,,,,AMNE01.jpg,AMNE14.jpg,AMSA03.jpg,AMSA17.jpg,AMNE01.jpg,MN,1,num_8,32,num_4,0.933443731628,,,2017_Dec_11_1541,60.0040415789,MAFE4ImagesEEG,001,102633,
AFNE01.JPG,AFNE01.JPG,AFNE01.JPG,AFNE01.JPG,AFNE01.JPG,AFNE01.JPG,,,,,,,,,,,,,,,,,3,7,37,6,,,,,,,AMNE15.jpg,AMSA01.jpg,AMSA17.jpg,AMNE09.jpg,AMSA17.jpg,MS,2,num_2,32,num_4,1.38373653451,,,2017_Dec_11_1541,60.0040415789,MAFE4ImagesEEG,001,102633,
AFNE01.JPG,AFNE01.JPG,AFNE01.JPG,AFNE01.JPG,AFNE01.JPG,AFNE01.JPG,,,,,,,,,,,,,,,,,3,8,38,4,,,,,,,AMNE14.jpg,AMSA04.jpg,AMSA07.jpg,AMNE20.jpg,AMNE14.jpg,MN,1,num_8,32,num_2,1.36670496291,,,2017_Dec_11_1541,60.0040415789,MAFE4ImagesEEG,001,102633,
AFNE01.JPG,AFNE01.JPG,AFNE01.JPG,AFNE01.JPG,AFNE01.JPG,AFNE01.JPG,,,,,,,,,,,,,,,,,3,9,39,0,,,,,,,AMNE19.jpg,AMSA17.jpg,AMSA09.jpg,AMNE20.jpg,AMNE19.jpg,MN,1,num_8,32,num_2,1.21671031928,,,2017_Dec_11_1541,60.0040415789,MAFE4ImagesEEG,001,102633,
AFNE01.JPG,AFNE01.JPG,AFNE01.JPG,AFNE01.JPG,AFNE01.JPG,AFNE01.JPG,,,,,,,,,,,,,,,,,4,0,40,8,,,,,,,AMNE08.jpg,AMSA17.jpg,AMNE03.jpg,AMSA20.jpg,AMSA20.jpg,MS,2,num_4,16,num_4,1.64992728853,,,2017_Dec_11_1541,60.0040415789,MAFE4ImagesEEG,001,102633,
AFNE01.JPG,AFNE01.JPG,AFNE01.JPG,AFNE01.JPG,AFNE01.JPG,AFNE01.JPG,,,,,,,,,,,,,,,,,4,1,41,0,,,,,,,AMNE17.jpg,AMSA18.jpg,AMSA19.jpg,AMNE05.jpg,AMSA18.jpg,MS,2,num_6,16,num_6,0.533453097334,,,2017_Dec_11_1541,60.0040415789,MAFE4ImagesEEG,001,102633,
AFNE01.JPG,AFNE01.JPG,AFNE01.JPG,AFNE01.JPG,AFNE01.JPG,AFNE01.JPG,,,,,,,,,,,,,,,,,4,2,42,2,,,,,,,AMNE06.jpg,AMSA05.jpg,AMSA04.jpg,AMNE20.jpg,AMNE06.jpg,MN,1,num_8,32,num_6,1.75002581952,,,2017_Dec_11_1541,60.0040415789,MAFE4ImagesEEG,001,102633,
AFNE01.JPG,AFNE01.JPG,AFNE01.JPG,AFNE01.JPG,AFNE01.JPG,AFNE01.JPG,,,,,,,,,,,,,,,,,4,3,43,1,,,,,,,AMNE04.jpg,AMSA17.jpg,AMNE17.jpg,AMSA04.jpg,AMNE04.jpg,MN,1,num_8,32,num_2,1.90001052036,,,2017_Dec_11_1541,60.0040415789,MAFE4ImagesEEG,001,102633,
AFNE01.JPG,AFNE01.JPG,AFNE01.JPG,AFNE01.JPG,AFNE01.JPG,AFNE01.JPG,,,,,,,,,,,,,,,,,4,4,44,9,,,,,,,AMNE06.jpg,AMSA16.jpg,AMSA12.jpg,AMNE09.jpg,AMNE06.jpg,MN,1,num_8,32,num_2,1.63341723871,,,2017_Dec_11_1541,60.0040415789,MAFE4ImagesEEG,001,102633,
AFNE01.JPG,AFNE01.JPG,AFNE01.JPG,AFNE01.JPG,AFNE01.JPG,AFNE01.JPG,,,,,,,,,,,,,,,,,4,5,45,7,,,,,,,AMSA16.jpg,AMSA10.jpg,AMNE15.jpg,AMNE07.jpg,AMNE15.jpg,MN,1,num_2,32,num_4,1.20006331406,,,2017_Dec_11_1541,60.0040415789,MAFE4ImagesEEG,001,102633,
AFNE01.JPG,AFNE01.JPG,AFNE01.JPG,AFNE01.JPG,AFNE01.JPG,AFNE01.JPG,,,,,,,,,,,,,,,,,4,6,46,6,,,,,,,AMSA18.jpg,AMNE02.jpg,AMSA13.jpg,AMNE15.jpg,AMNE15.jpg,MN,1,num_4,16,num_4,1.63338740985,,,2017_Dec_11_1541,60.0040415789,MAFE4ImagesEEG,001,102633,
AFNE01.JPG,AFNE01.JPG,AFNE01.JPG,AFNE01.JPG,AFNE01.JPG,AFNE01.JPG,,,,,,,,,,,,,,,,,4,7,47,4,,,,,,,AMNE20.jpg,AMSA18.jpg,AMSA01.jpg,AMNE08.jpg,AMSA18.jpg,MS,2,num_6,16,num_6,1.03344764491,,,2017_Dec_11_1541,60.0040415789,MAFE4ImagesEEG,001,102633,
AFNE01.JPG,AFNE01.JPG,AFNE01.JPG,AFNE01.JPG,AFNE01.JPG,AFNE01.JPG,,,,,,,,,,,,,,,,,4,8,48,5,,,,,,,AMSA07.jpg,AMNE16.jpg,AMNE13.jpg,AMSA03.jpg,AMSA03.jpg,MS,2,num_4,16,num_4,0.783458710182,,,2017_Dec_11_1541,60.0040415789,MAFE4ImagesEEG,001,102633,
AFNE01.JPG,AFNE01.JPG,AFNE01.JPG,AFNE01.JPG,AFNE01.JPG,AFNE01.JPG,,,,,,,,,,,,,,,,,4,9,49,3,,,,,,,AMSA13.jpg,AMSA10.jpg,AMNE12.jpg,AMNE13.jpg,AMSA10.jpg,MS,2,num_6,32,num_2,1.10015979223,,,2017_Dec_11_1541,60.0040415789,MAFE4ImagesEEG,001,102633,
AFNE01.JPG,AFNE01.JPG,AFNE01.JPG,AFNE01.JPG,AFNE01.JPG,AFNE01.JPG,,,,,,,,,,,,,,,,,5,0,50,8,,,,,,,AMSA14.jpg,AMNE17.jpg,AMNE20.jpg,AMSA15.jpg,AMNE17.jpg,MN,1,num_6,32,num_8,0.883511375636,,,2017_Dec_11_1541,60.0040415789,MAFE4ImagesEEG,001,102633,
AFNE01.JPG,AFNE01.JPG,AFNE01.JPG,AFNE01.JPG,AFNE01.JPG,AFNE01.JPG,,,,,,,,,,,,,,,,,5,1,51,2,,,,,,,AMSA15.jpg,AMNE13.jpg,AMNE18.jpg,AMSA09.jpg,AMSA09.jpg,MS,2,num_4,16,num_4,0.716794994194,,,2017_Dec_11_1541,60.0040415789,MAFE4ImagesEEG,001,102633,
AFNE01.JPG,AFNE01.JPG,AFNE01.JPG,AFNE01.JPG,AFNE01.JPG,AFNE01.JPG,,,,,,,,,,,,,,,,,5,2,52,9,,,,,,,AMSA05.jpg,AMSA13.jpg,AMNE15.jpg,AMNE02.jpg,AMSA05.jpg,MS,2,num_8,32,num_4,0.750161492033,,,2017_Dec_11_1541,60.0040415789,MAFE4ImagesEEG,001,102633,
AFNE01.JPG,AFNE01.JPG,AFNE01.JPG,AFNE01.JPG,AFNE01.JPG,AFNE01.JPG,,,,,,,,,,,,,,,,,5,3,53,3,,,,,,,AMNE13.jpg,AMSA13.jpg,AMNE09.jpg,AMSA11.jpg,AMSA11.jpg,MS,2,num_4,16,num_4,1.03344507888,,,2017_Dec_11_1541,60.0040415789,MAFE4ImagesEEG,001,102633,
AFNE01.JPG,AFNE01.JPG,AFNE01.JPG,AFNE01.JPG,AFNE01.JPG,AFNE01.JPG,,,,,,,,,,,,,,,,,5,4,54,1,,,,,,,AMNE17.jpg,AMSA08.jpg,AMNE13.jpg,AMSA03.jpg,AMSA08.jpg,MS,2,num_6,32,num_8,1.23339004,,,2017_Dec_11_1541,60.0040415789,MAFE4ImagesEEG,001,102633,
AFNE01.JPG,AFNE01.JPG,AFNE01.JPG,AFNE01.JPG,AFNE01.JPG,AFNE01.JPG,,,,,,,,,,,,,,,,,5,5,55,5,,,,,,,AMNE02.jpg,AMNE11.jpg,AMSA09.jpg,AMSA03.jpg,AMNE11.jpg,MN,1,num_6,32,num_2,4.58288381738,,,2017_Dec_11_1541,60.0040415789,MAFE4ImagesEEG,001,102633,
AFNE01.JPG,AFNE01.JPG,AFNE01.JPG,AFNE01.JPG,AFNE01.JPG,AFNE01.JPG,,,,,,,,,,,,,,,,,5,6,56,4,,,,,,,AMNE05.jpg,AMNE04.jpg,AMSA19.jpg,AMSA10.jpg,AMSA19.jpg,MS,2,num_2,32,num_4,1.33343083807,,,2017_Dec_11_1541,60.0040415789,MAFE4ImagesEEG,001,102633,
AFNE01.JPG,AFNE01.JPG,AFNE01.JPG,AFNE01.JPG,AFNE01.JPG,AFNE01.JPG,,,,,,,,,,,,,,,,,5,7,57,6,,,,,,,AMNE12.jpg,AMSA18.jpg,AMNE09.jpg,AMSA14.jpg,AMNE09.jpg,MN,1,num_2,32,num_8,1.3500993331,,,2017_Dec_11_1541,60.0040415789,MAFE4ImagesEEG,001,102633,
AFNE01.JPG,AFNE01.JPG,AFNE01.JPG,AFNE01.JPG,AFNE01.JPG,AFNE01.JPG,,,,,,,,,,,,,,,,,5,8,58,7,,,,,,,AMNE14.jpg,AMSA04.jpg,AMNE04.jpg,AMSA06.jpg,AMNE14.jpg,MN,1,num_8,32,num_4,2.54999874905,,,2017_Dec_11_1541,60.0040415789,MAFE4ImagesEEG,001,102633,
AFNE01.JPG,AFNE01.JPG,AFNE01.JPG,AFNE01.JPG,AFNE01.JPG,AFNE01.JPG,,,,,,,,,,,,,,,,,5,9,59,0,,,,,,,AMNE02.jpg,AMSA19.jpg,AMNE08.jpg,AMSA05.jpg,AMNE08.jpg,MN,1,num_2,32,num_6,2.56664190558,,,2017_Dec_11_1541,60.0040415789,MAFE4ImagesEEG,001,102633,
,,,,,,,,,,,,,,,,,,,,,,,,,,,,,,,,,,,,,,,,,,,space,2.93320959224,2017_Dec_11_1541,60.0040415789,MAFE4ImagesEEG,001,102633,
AFNE01.JPG,AFNE01.JPG,AFNE01.JPG,AFNE01.JPG,AFNE01.JPG,AFNE01.JPG,,,,,,,,,,,,,,,,,,,,,0,0,0,6,,,AFSA06.jpg,AFNE13.jpg,AFSA20.jpg,AFNE03.jpg,AFNE13.jpg,FN,3,num_6,16,num_6,1.0501260825,,,2017_Dec_11_1541,60.0040415789,MAFE4ImagesEEG,001,102633,
AFNE01.JPG,AFNE01.JPG,AFNE01.JPG,AFNE01.JPG,AFNE01.JPG,AFNE01.JPG,,,,,,,,,,,,,,,,,,,,,0,1,1,0,,,AFSA10.jpg,AFNE20.jpg,AFNE01.jpg,AFSA19.jpg,AFNE01.jpg,FN,3,num_2,16,num_2,0.900162550621,,,2017_Dec_11_1541,60.0040415789,MAFE4ImagesEEG,001,102633,
AFNE01.JPG,AFNE01.JPG,AFNE01.JPG,AFNE01.JPG,AFNE01.JPG,AFNE01.JPG,,,,,,,,,,,,,,,,,,,,,0,2,2,2,,,AFSA17.jpg,AFSA01.jpg,AFNE19.jpg,AFNE07.jpg,AFSA17.jpg,FS,4,num_8,32,num_2,1.30008999933,,,2017_Dec_11_1541,60.0040415789,MAFE4ImagesEEG,001,102633,
AFNE01.JPG,AFNE01.JPG,AFNE01.JPG,AFNE01.JPG,AFNE01.JPG,AFNE01.JPG,,,,,,,,,,,,,,,,,,,,,0,3,3,3,,,AFSA04.jpg,AFSA12.jpg,AFNE19.jpg,AFNE16.jpg,AFNE19.jpg,FN,3,num_2,16,num_2,1.28341669333,,,2017_Dec_11_1541,60.0040415789,MAFE4ImagesEEG,001,102633,
AFNE01.JPG,AFNE01.JPG,AFNE01.JPG,AFNE01.JPG,AFNE01.JPG,AFNE01.JPG,,,,,,,,,,,,,,,,,,,,,0,4,4,1,,,AFSA15.jpg,AFNE16.jpg,AFNE04.jpg,AFSA03.jpg,AFNE04.jpg,FN,3,num_2,16,num_2,0.650204086211,,,2017_Dec_11_1541,60.0040415789,MAFE4ImagesEEG,001,102633,
AFNE01.JPG,AFNE01.JPG,AFNE01.JPG,AFNE01.JPG,AFNE01.JPG,AFNE01.JPG,,,,,,,,,,,,,,,,,,,,,0,5,5,7,,,AFSA04.jpg,AFNE07.jpg,AFNE17.jpg,AFSA09.jpg,AFNE07.jpg,FN,3,num_6,16,num_6,0.733491072664,,,2017_Dec_11_1541,60.0040415789,MAFE4ImagesEEG,001,102633,
AFNE01.JPG,AFNE01.JPG,AFNE01.JPG,AFNE01.JPG,AFNE01.JPG,AFNE01.JPG,,,,,,,,,,,,,,,,,,,,,0,6,6,5,,,AFNE20.jpg,AFSA05.jpg,AFNE04.jpg,AFSA10.jpg,AFNE04.jpg,FN,3,num_2,32,num_4,0.766781555256,,,2017_Dec_11_1541,60.0040415789,MAFE4ImagesEEG,001,102633,
AFNE01.JPG,AFNE01.JPG,AFNE01.JPG,AFNE01.JPG,AFNE01.JPG,AFNE01.JPG,,,,,,,,,,,,,,,,,,,,,0,7,7,4,,,AFNE11.jpg,AFSA08.jpg,AFSA19.jpg,AFNE05.jpg,AFNE11.jpg,FN,3,num_8,16,num_8,0.983603812521,,,2017_Dec_11_1541,60.0040415789,MAFE4ImagesEEG,001,102633,
AFNE01.JPG,AFNE01.JPG,AFNE01.JPG,AFNE01.JPG,AFNE01.JPG,AFNE01.JPG,,,,,,,,,,,,,,,,,,,,,0,8,8,9,,,AFNE10.jpg,AFSA16.jpg,AFSA08.jpg,AFNE02.jpg,AFNE10.jpg,FN,3,num_8,32,num_2,1.35008008848,,,2017_Dec_11_1541,60.0040415789,MAFE4ImagesEEG,001,102633,
AFNE01.JPG,AFNE01.JPG,AFNE01.JPG,AFNE01.JPG,AFNE01.JPG,AFNE01.JPG,,,,,,,,,,,,,,,,,,,,,0,9,9,8,,,AFSA06.jpg,AFSA14.jpg,AFNE11.jpg,AFNE10.jpg,AFSA14.jpg,FS,4,num_6,32,num_2,1.35003037401,,,2017_Dec_11_1541,60.0040415789,MAFE4ImagesEEG,001,102633,
AFNE01.JPG,AFNE01.JPG,AFNE01.JPG,AFNE01.JPG,AFNE01.JPG,AFNE01.JPG,,,,,,,,,,,,,,,,,,,,,1,0,10,6,,,AFNE11.jpg,AFSA12.jpg,AFSA08.jpg,AFNE20.jpg,AFSA08.jpg,FS,4,num_2,16,num_2,0.966742553515,,,2017_Dec_11_1541,60.0040415789,MAFE4ImagesEEG,001,102633,
AFNE01.JPG,AFNE01.JPG,AFNE01.JPG,AFNE01.JPG,AFNE01.JPG,AFNE01.JPG,,,,,,,,,,,,,,,,,,,,,1,1,11,1,,,AFNE14.jpg,AFNE15.jpg,AFSA04.jpg,AFSA10.jpg,AFSA04.jpg,FS,4,num_2,32,num_8,2.46663029492,,,2017_Dec_11_1541,60.0040415789,MAFE4ImagesEEG,001,102633,
AFNE01.JPG,AFNE01.JPG,AFNE01.JPG,AFNE01.JPG,AFNE01.JPG,AFNE01.JPG,,,,,,,,,,,,,,,,,,,,,1,2,12,5,,,AFSA20.jpg,AFNE15.jpg,AFNE02.jpg,AFSA17.jpg,AFNE02.jpg,FN,3,num_2,32,num_4,0.650119411293,,,2017_Dec_11_1541,60.0040415789,MAFE4ImagesEEG,001,102633,
AFNE01.JPG,AFNE01.JPG,AFNE01.JPG,AFNE01.JPG,AFNE01.JPG,AFNE01.JPG,,,,,,,,,,,,,,,,,,,,,1,3,13,2,,,AFNE09.jpg,AFNE18.jpg,AFSA11.jpg,AFSA03.jpg,AFSA03.jpg,FS,4,num_4,16,num_4,2.55000420148,,,2017_Dec_11_1541,60.0040415789,MAFE4ImagesEEG,001,102633,
AFNE01.JPG,AFNE01.JPG,AFNE01.JPG,AFNE01.JPG,AFNE01.JPG,AFNE01.JPG,,,,,,,,,,,,,,,,,,,,,1,4,14,8,,,AFSA14.jpg,AFNE06.jpg,AFNE02.jpg,AFSA01.jpg,AFNE02.jpg,FN,3,num_2,16,num_2,0.900083969347,,,2017_Dec_11_1541,60.0040415789,MAFE4ImagesEEG,001,102633,
AFNE01.JPG,AFNE01.JPG,AFNE01.JPG,AFNE01.JPG,AFNE01.JPG,AFNE01.JPG,,,,,,,,,,,,,,,,,,,,,1,5,15,4,,,AFNE03.jpg,AFNE07.jpg,AFSA14.jpg,AFSA04.jpg,AFSA14.jpg,FS,4,num_2,32,num_4,1.26673216163,,,2017_Dec_11_1541,60.0040415789,MAFE4ImagesEEG,001,102633,
AFNE01.JPG,AFNE01.JPG,AFNE01.JPG,AFNE01.JPG,AFNE01.JPG,AFNE01.JPG,,,,,,,,,,,,,,,,,,,,,1,6,16,9,,,AFNE18.jpg,AFNE07.jpg,AFSA20.jpg,AFSA02.jpg,AFNE07.jpg,FN,3,num_6,32,num_8,1.10007832432,,,2017_Dec_11_1541,60.0040415789,MAFE4ImagesEEG,001,102633,
AFNE01.JPG,AFNE01.JPG,AFNE01.JPG,AFNE01.JPG,AFNE01.JPG,AFNE01.JPG,,,,,,,,,,,,,,,,,,,,,1,7,17,7,,,AFNE07.jpg,AFSA18.jpg,AFSA16.jpg,AFNE01.jpg,AFSA18.jpg,FS,4,num_6,32,num_2,1.66671862639,,,2017_Dec_11_1541,60.0040415789,MAFE4ImagesEEG,001,102633,
AFNE01.JPG,AFNE01.JPG,AFNE01.JPG,AFNE01.JPG,AFNE01.JPG,AFNE01.JPG,,,,,,,,,,,,,,,,,,,,,1,8,18,0,,,AFSA16.jpg,AFNE17.jpg,AFNE06.jpg,AFSA12.jpg,AFNE17.jpg,FN,3,num_6,32,num_2,1.61676221504,,,2017_Dec_11_1541,60.0040415789,MAFE4ImagesEEG,001,102633,
AFNE01.JPG,AFNE01.JPG,AFNE01.JPG,AFNE01.JPG,AFNE01.JPG,AFNE01.JPG,,,,,,,,,,,,,,,,,,,,,1,9,19,3,,,AFSA19.jpg,AFNE15.jpg,AFSA15.jpg,AFNE08.jpg,AFNE15.jpg,FN,3,num_6,16,num_6,1.50006286497,,,2017_Dec_11_1541,60.0040415789,MAFE4ImagesEEG,001,102633,
AFNE01.JPG,AFNE01.JPG,AFNE01.JPG,AFNE01.JPG,AFNE01.JPG,AFNE01.JPG,,,,,,,,,,,,,,,,,,,,,2,0,20,3,,,AFNE10.jpg,AFSA12.jpg,AFSA14.jpg,AFNE01.jpg,AFNE10.jpg,FN,3,num_8,32,num_2,1.15026630973,,,2017_Dec_11_1541,60.0040415789,MAFE4ImagesEEG,001,102633,
AFNE01.JPG,AFNE01.JPG,AFNE01.JPG,AFNE01.JPG,AFNE01.JPG,AFNE01.JPG,,,,,,,,,,,,,,,,,,,,,2,1,21,0,,,AFSA05.jpg,AFNE04.jpg,AFNE17.jpg,AFSA12.jpg,AFNE04.jpg,FN,3,num_6,32,num_4,1.26671901112,,,2017_Dec_11_1541,60.0040415789,MAFE4ImagesEEG,001,102633,
AFNE01.JPG,AFNE01.JPG,AFNE01.JPG,AFNE01.JPG,AFNE01.JPG,AFNE01.JPG,,,,,,,,,,,,,,,,,,,,,2,2,22,5,,,AFNE07.jpg,AFSA12.jpg,AFNE20.jpg,AFSA06.jpg,AFNE07.jpg,FN,3,num_8,32,num_4,1.21659292886,,,2017_Dec_11_1541,60.0040415789,MAFE4ImagesEEG,001,102633,
AFNE01.JPG,AFNE01.JPG,AFNE01.JPG,AFNE01.JPG,AFNE01.JPG,AFNE01.JPG,,,,,,,,,,,,,,,,,,,,,2,3,23,6,,,AFNE16.jpg,AFSA18.jpg,AFNE08.jpg,AFSA20.jpg,AFNE08.jpg,FN,3,num_2,16,num_2,1.03349896288,,,2017_Dec_11_1541,60.0040415789,MAFE4ImagesEEG,001,102633,
AFNE01.JPG,AFNE01.JPG,AFNE01.JPG,AFNE01.JPG,AFNE01.JPG,AFNE01.JPG,,,,,,,,,,,,,,,,,,,,,2,4,24,8,,,AFSA11.jpg,AFNE20.jpg,AFNE08.jpg,AFSA17.jpg,AFNE08.jpg,FN,3,num_2,16,num_2,1.28340161871,,,2017_Dec_11_1541,60.0040415789,MAFE4ImagesEEG,001,102633,
AFNE01.JPG,AFNE01.JPG,AFNE01.JPG,AFNE01.JPG,AFNE01.JPG,AFNE01.JPG,,,,,,,,,,,,,,,,,,,,,2,5,25,2,,,AFNE11.jpg,AFSA11.jpg,AFSA20.jpg,AFNE12.jpg,AFSA11.jpg,FS,4,num_6,16,num_6,0.666813565418,,,2017_Dec_11_1541,60.0040415789,MAFE4ImagesEEG,001,102633,
AFNE01.JPG,AFNE01.JPG,AFNE01.JPG,AFNE01.JPG,AFNE01.JPG,AFNE01.JPG,,,,,,,,,,,,,,,,,,,,,2,6,26,1,,,AFSA18.jpg,AFNE13.jpg,AFSA03.jpg,AFNE06.jpg,AFSA03.jpg,FS,4,num_2,16,num_2,1.01676311297,,,2017_Dec_11_1541,60.0040415789,MAFE4ImagesEEG,001,102633,
AFNE01.JPG,AFNE01.JPG,AFNE01.JPG,AFNE01.JPG,AFNE01.JPG,AFNE01.JPG,,,,,,,,,,,,,,,,,,,,,2,7,27,4,,,AFSA11.jpg,AFNE20.jpg,AFSA01.jpg,AFNE12.jpg,AFSA11.jpg,FS,4,num_8,16,num_8,0.90009391238,,,2017_Dec_11_1541,60.0040415789,MAFE4ImagesEEG,001,102633,
AFNE01.JPG,AFNE01.JPG,AFNE01.JPG,AFNE01.JPG,AFNE01.JPG,AFNE01.JPG,,,,,,,,,,,,,,,,,,,,,2,8,28,9,,,AFSA18.jpg,AFNE18.jpg,AFNE17.jpg,AFSA04.jpg,AFSA18.jpg,FS,4,num_8,32,num_2,1.10010943632,,,2017_Dec_11_1541,60.0040415789,MAFE4ImagesEEG,001,102633,
AFNE01.JPG,AFNE01.JPG,AFNE01.JPG,AFNE01.JPG,AFNE01.JPG,AFNE01.JPG,,,,,,,,,,,,,,,,,,,,,2,9,29,7,,,AFNE20.jpg,AFSA04.jpg,AFNE05.jpg,AFSA07.jpg,AFSA04.jpg,FS,4,num_6,16,num_6,0.733347060857,,,2017_Dec_11_1541,60.0040415789,MAFE4ImagesEEG,001,102633,
AFNE01.JPG,AFNE01.JPG,AFNE01.JPG,AFNE01.JPG,AFNE01.JPG,AFNE01.JPG,,,,,,,,,,,,,,,,,,,,,3,0,30,5,,,AFNE09.jpg,AFNE07.jpg,AFSA03.jpg,AFSA17.jpg,AFSA17.jpg,FS,4,num_4,16,num_4,0.883483471349,,,2017_Dec_11_1541,60.0040415789,MAFE4ImagesEEG,001,102633,
AFNE01.JPG,AFNE01.JPG,AFNE01.JPG,AFNE01.JPG,AFNE01.JPG,AFNE01.JPG,,,,,,,,,,,,,,,,,,,,,3,1,31,6,,,AFSA05.jpg,AFNE12.jpg,AFNE16.jpg,AFSA12.jpg,AFSA05.jpg,FS,4,num_8,32,num_2,2.41660396219,,,2017_Dec_11_1541,60.0040415789,MAFE4ImagesEEG,001,102633,
AFNE01.JPG,AFNE01.JPG,AFNE01.JPG,AFNE01.JPG,AFNE01.JPG,AFNE01.JPG,,,,,,,,,,,,,,,,,,,,,3,2,32,2,,,AFNE13.jpg,AFSA09.jpg,AFSA16.jpg,AFNE03.jpg,AFNE13.jpg,FN,3,num_8,16,num_8,1.03346592677,,,2017_Dec_11_1541,60.0040415789,MAFE4ImagesEEG,001,102633,
AFNE01.JPG,AFNE01.JPG,AFNE01.JPG,AFNE01.JPG,AFNE01.JPG,AFNE01.JPG,,,,,,,,,,,,,,,,,,,,,3,3,33,9,,,AFSA13.jpg,AFNE13.jpg,AFSA01.jpg,AFNE05.jpg,AFNE05.jpg,FN,3,num_4,16,num_4,1.08340052818,,,2017_Dec_11_1541,60.0040415789,MAFE4ImagesEEG,001,102633,
AFNE01.JPG,AFNE01.JPG,AFNE01.JPG,AFNE01.JPG,AFNE01.JPG,AFNE01.JPG,,,,,,,,,,,,,,,,,,,,,3,4,34,7,,,AFNE20.jpg,AFNE05.jpg,AFSA17.jpg,AFSA11.jpg,AFSA17.jpg,FS,4,num_2,16,num_2,0.766776423668,,,2017_Dec_11_1541,60.0040415789,MAFE4ImagesEEG,001,102633,
AFNE01.JPG,AFNE01.JPG,AFNE01.JPG,AFNE01.JPG,AFNE01.JPG,AFNE01.JPG,,,,,,,,,,,,,,,,,,,,,3,5,35,0,,,AFNE09.jpg,AFNE13.jpg,AFSA17.jpg,AFSA19.jpg,AFNE13.jpg,FN,3,num_6,32,num_4,0.966731006978,,,2017_Dec_11_1541,60.0040415789,MAFE4ImagesEEG,001,102633,
AFNE01.JPG,AFNE01.JPG,AFNE01.JPG,AFNE01.JPG,AFNE01.JPG,AFNE01.JPG,,,,,,,,,,,,,,,,,,,,,3,6,36,4,,,AFSA19.jpg,AFNE06.jpg,AFNE04.jpg,AFSA04.jpg,AFSA19.jpg,FS,4,num_8,32,num_2,0.716770297382,,,2017_Dec_11_1541,60.0040415789,MAFE4ImagesEEG,001,102633,
AFNE01.JPG,AFNE01.JPG,AFNE01.JPG,AFNE01.JPG,AFNE01.JPG,AFNE01.JPG,,,,,,,,,,,,,,,,,,,,,3,7,37,3,,,AFNE06.jpg,AFSA17.jpg,AFNE05.jpg,AFSA11.jpg,AFSA11.jpg,FS,4,num_4,16,num_4,0.650110109942,,,2017_Dec_11_1541,60.0040415789,MAFE4ImagesEEG,001,102633,
AFNE01.JPG,AFNE01.JPG,AFNE01.JPG,AFNE01.JPG,AFNE01.JPG,AFNE01.JPG,,,,,,,,,,,,,,,,,,,,,3,8,38,1,,,AFSA11.jpg,AFSA18.jpg,AFNE03.jpg,AFNE18.jpg,AFNE18.jpg,FN,3,num_4,16,num_4,0.883444341132,,,2017_Dec_11_1541,60.0040415789,MAFE4ImagesEEG,001,102633,
AFNE01.JPG,AFNE01.JPG,AFNE01.JPG,AFNE01.JPG,AFNE01.JPG,AFNE01.JPG,,,,,,,,,,,,,,,,,,,,,3,9,39,8,,,AFSA13.jpg,AFNE17.jpg,AFSA09.jpg,AFNE05.jpg,AFNE05.jpg,FN,3,num_4,32,num_2,1.20008544484,,,2017_Dec_11_1541,60.0040415789,MAFE4ImagesEEG,001,102633,
