IPosition2,IPosition3,IPosition1,IPosition6,IPosition4,IPosition5,TrialsF1.thisRepN,TrialsF1.thisTrialN,TrialsF1.thisN,TrialsF1.thisIndex,TrialsM1.thisRepN,TrialsM1.thisTrialN,TrialsM1.thisN,TrialsM1.thisIndex,TrialsF2.thisRepN,TrialsF2.thisTrialN,TrialsF2.thisN,TrialsF2.thisIndex,TrialsM2.thisRepN,TrialsM2.thisTrialN,TrialsM2.thisN,TrialsM2.thisIndex,TrialsF3.thisRepN,TrialsF3.thisTrialN,TrialsF3.thisN,TrialsF3.thisIndex,TrialsM3.thisRepN,TrialsM3.thisTrialN,TrialsM3.thisN,TrialsM3.thisIndex,InstrKey_resp.keys,InstrKey_resp.rt,Image0 _Position,Image1 _Position,Image2 _Position,Image3 _Position,Center_image,condition,code,correct_answer,accuracy,Key_Resp.keys,Key_Resp.rt,BreakKey_resp.keys,BreakKey_resp.rt,date,frameRate,expName,session,participant,
,,,,,,,,,,,,,,,,,,,,,,,,,,,,,,space,20.8322149157,,,,,,,,,,,,,,2017_Dec_13_1146,60.0038106272,FEMA4ImagesEEG,001,102624,
AMSA21.JPG,AMNE23.JPG,AMNE21.JPG,AMSA25.JPG,AMNE25.JPG,AMSA23.JPG,0,0,0,5,,,,,,,,,,,,,,,,,,,,,,,AFSA17.jpg,AFSA11.jpg,AFNE12.jpg,AFNE16.jpg,AFSA17.jpg,FS,4,num_8,32,num_4,1.18350354978,,,2017_Dec_13_1146,60.0038106272,FEMA4ImagesEEG,001,102624,
AMSA25.JPG,AMNE24.JPG,AMSA24.JPG,AMNE26.JPG,AMSA21.JPG,AMNE25.JPG,0,1,1,3,,,,,,,,,,,,,,,,,,,,,,,AFSA10.jpg,AFSA08.jpg,AFNE02.jpg,AFNE15.jpg,AFNE15.jpg,FN,3,num_4,16,num_4,1.26673697261,,,2017_Dec_13_1146,60.0038106272,FEMA4ImagesEEG,001,102624,
AFSA21.JPG,AFNE23.JPG,AFNE21.JPG,AFSA25.JPG,AFNE25.JPG,AFSA23.JPG,0,2,2,4,,,,,,,,,,,,,,,,,,,,,,,AFNE17.jpg,AFSA12.jpg,AFNE20.jpg,AFSA04.jpg,AFNE17.jpg,FN,3,num_8,16,num_8,1.03346207808,,,2017_Dec_13_1146,60.0038106272,FEMA4ImagesEEG,001,102624,
AFSA25.JPG,AFNE24.JPG,AFSA24.JPG,AFNE21.JPG,AFSA21.JPG,AFNE25.JPG,0,3,3,2,,,,,,,,,,,,,,,,,,,,,,,AFSA12.jpg,AFSA19.jpg,AFNE06.jpg,AFNE05.jpg,AFNE06.jpg,FN,3,num_2,16,num_2,2.24998219917,,,2017_Dec_13_1146,60.0038106272,FEMA4ImagesEEG,001,102624,
AFNE22.JPG,AFSA24.JPG,AFSA22.JPG,AFNE25.JPG,AFNE24.JPG,AFSA25.JPG,0,4,4,6,,,,,,,,,,,,,,,,,,,,,,,AFNE19.jpg,AFNE07.jpg,AFSA13.jpg,AFSA18.jpg,AFSA13.jpg,FS,4,num_2,32,num_4,0.933465542039,,,2017_Dec_13_1146,60.0038106272,FEMA4ImagesEEG,001,102624,
AFNE23.JPG,AFNE24.JPG,AFNE22.JPG,AFSA24.JPG,AFSA22.JPG,AFSA23.JPG,0,5,5,8,,,,,,,,,,,,,,,,,,,,,,,AFNE06.jpg,AFNE20.jpg,AFSA05.jpg,AFSA03.jpg,AFNE20.jpg,FN,3,num_6,32,num_8,1.00008146768,,,2017_Dec_13_1146,60.0038106272,FEMA4ImagesEEG,001,102624,
AMNE22.JPG,AMSA24.JPG,AMSA22.JPG,AMNE25.JPG,AMNE24.JPG,AMSA25.JPG,0,6,6,7,,,,,,,,,,,,,,,,,,,,,,,AFNE17.jpg,AFSA20.jpg,AFNE10.jpg,AFSA18.jpg,AFNE17.jpg,FN,3,num_8,32,num_6,1.01674354798,,,2017_Dec_13_1146,60.0038106272,FEMA4ImagesEEG,001,102624,
AMSA21.JPG,AMNE22.JPG,AMNE21.JPG,AMSA23.JPG,AMSA22.JPG,AMNE23.JPG,0,7,7,1,,,,,,,,,,,,,,,,,,,,,,,AFNE13.jpg,AFSA05.jpg,AFNE12.jpg,AFSA09.jpg,AFNE12.jpg,FN,3,num_2,32,num_8,0.883416116005,,,2017_Dec_13_1146,60.0038106272,FEMA4ImagesEEG,001,102624,
AFSA21.JPG,AFNE22.JPG,AFNE21.JPG,AFSA23.JPG,AFSA22.JPG,AFNE23.JPG,0,8,8,0,,,,,,,,,,,,,,,,,,,,,,,AFSA18.jpg,AFSA04.jpg,AFNE04.jpg,AFNE17.jpg,AFNE04.jpg,FN,3,num_2,16,num_2,1.26671740762,,,2017_Dec_13_1146,60.0038106272,FEMA4ImagesEEG,001,102624,
AMNE23.JPG,AMNE24.JPG,AMNE22.JPG,AMSA24.JPG,AMSA22.JPG,AMSA23.JPG,0,9,9,9,,,,,,,,,,,,,,,,,,,,,,,AFSA05.jpg,AFNE05.jpg,AFNE17.jpg,AFSA13.jpg,AFNE17.jpg,FN,3,num_2,32,num_6,1.75000785827,,,2017_Dec_13_1146,60.0038106272,FEMA4ImagesEEG,001,102624,
AFNE23.JPG,AFNE24.JPG,AFNE22.JPG,AFSA24.JPG,AFSA22.JPG,AFSA23.JPG,,,,,0,0,0,8,,,,,,,,,,,,,,,,,,,AMNE06.jpg,AMSA04.jpg,AMSA14.jpg,AMNE05.jpg,AMSA14.jpg,MS,2,num_2,32,num_6,1.55007444369,,,2017_Dec_13_1146,60.0038106272,FEMA4ImagesEEG,001,102624,
AMNE23.JPG,AMNE24.JPG,AMNE22.JPG,AMSA24.JPG,AMSA22.JPG,AMSA23.JPG,,,,,0,1,1,9,,,,,,,,,,,,,,,,,,,AMNE01.jpg,AMSA04.jpg,AMNE15.jpg,AMSA11.jpg,AMNE01.jpg,MN,1,num_8,16,num_8,1.01677465951,,,2017_Dec_13_1146,60.0038106272,FEMA4ImagesEEG,001,102624,
AFSA21.JPG,AFNE22.JPG,AFNE21.JPG,AFSA23.JPG,AFSA22.JPG,AFNE23.JPG,,,,,0,2,2,0,,,,,,,,,,,,,,,,,,,AMSA06.jpg,AMNE15.jpg,AMSA07.jpg,AMNE04.jpg,AMNE04.jpg,MN,1,num_4,16,num_4,1.31669274298,,,2017_Dec_13_1146,60.0038106272,FEMA4ImagesEEG,001,102624,
AMSA25.JPG,AMNE24.JPG,AMSA24.JPG,AMNE26.JPG,AMSA21.JPG,AMNE25.JPG,,,,,0,3,3,3,,,,,,,,,,,,,,,,,,,AMNE14.jpg,AMSA04.jpg,AMSA16.jpg,AMNE12.jpg,AMNE14.jpg,MN,1,num_8,16,num_8,1.08348520333,,,2017_Dec_13_1146,60.0038106272,FEMA4ImagesEEG,001,102624,
AFSA25.JPG,AFNE24.JPG,AFSA24.JPG,AFNE21.JPG,AFSA21.JPG,AFNE25.JPG,,,,,0,4,4,2,,,,,,,,,,,,,,,,,,,AMSA09.jpg,AMSA14.jpg,AMNE03.jpg,AMNE07.jpg,AMNE07.jpg,MN,1,num_4,16,num_4,1.41672744672,,,2017_Dec_13_1146,60.0038106272,FEMA4ImagesEEG,001,102624,
AFSA21.JPG,AFNE23.JPG,AFNE21.JPG,AFSA25.JPG,AFNE25.JPG,AFSA23.JPG,,,,,0,5,5,4,,,,,,,,,,,,,,,,,,,AMNE14.jpg,AMSA08.jpg,AMSA20.jpg,AMNE05.jpg,AMNE14.jpg,MN,1,num_8,16,num_8,0.816510242177,,,2017_Dec_13_1146,60.0038106272,FEMA4ImagesEEG,001,102624,
AMNE22.JPG,AMSA24.JPG,AMSA22.JPG,AMNE25.JPG,AMNE24.JPG,AMSA25.JPG,,,,,0,6,6,7,,,,,,,,,,,,,,,,,,,AMNE07.jpg,AMSA03.jpg,AMNE01.jpg,AMSA14.jpg,AMNE01.jpg,MN,1,num_2,32,num_8,2.08344735624,,,2017_Dec_13_1146,60.0038106272,FEMA4ImagesEEG,001,102624,
AMSA21.JPG,AMNE22.JPG,AMNE21.JPG,AMSA23.JPG,AMSA22.JPG,AMNE23.JPG,,,,,0,7,7,1,,,,,,,,,,,,,,,,,,,AMNE18.jpg,AMSA14.jpg,AMNE01.jpg,AMSA10.jpg,AMSA10.jpg,MS,2,num_4,16,num_4,2.46664697328,,,2017_Dec_13_1146,60.0038106272,FEMA4ImagesEEG,001,102624,
AMSA21.JPG,AMNE23.JPG,AMNE21.JPG,AMSA25.JPG,AMNE25.JPG,AMSA23.JPG,,,,,0,8,8,5,,,,,,,,,,,,,,,,,,,AMNE15.jpg,AMNE12.jpg,AMSA05.jpg,AMSA15.jpg,AMSA15.jpg,MS,2,num_4,16,num_4,1.01665791031,,,2017_Dec_13_1146,60.0038106272,FEMA4ImagesEEG,001,102624,
AFNE22.JPG,AFSA24.JPG,AFSA22.JPG,AFNE25.JPG,AFNE24.JPG,AFSA25.JPG,,,,,0,9,9,6,,,,,,,,,,,,,,,,,,,AMNE20.jpg,AMSA07.jpg,AMSA20.jpg,AMNE04.jpg,AMNE04.jpg,MN,1,num_4,16,num_4,1.00011931499,,,2017_Dec_13_1146,60.0038106272,FEMA4ImagesEEG,001,102624,
AFSA21.JPG,AFNE23.JPG,AFNE21.JPG,AFSA25.JPG,AFNE25.JPG,AFSA23.JPG,,,,,,,,,0,0,0,4,,,,,,,,,,,,,,,AFNE09.jpg,AFSA12.jpg,AFNE11.jpg,AFSA10.jpg,AFNE09.jpg,FN,3,num_8,32,num_4,1.46664889762,,,2017_Dec_13_1146,60.0038106272,FEMA4ImagesEEG,001,102624,
AFSA21.JPG,AFNE22.JPG,AFNE21.JPG,AFSA23.JPG,AFSA22.JPG,AFNE23.JPG,,,,,,,,,0,1,1,0,,,,,,,,,,,,,,,AFNE06.jpg,AFNE11.jpg,AFSA03.jpg,AFSA11.jpg,AFNE11.jpg,FN,3,num_6,32,num_8,1.26676102821,,,2017_Dec_13_1146,60.0038106272,FEMA4ImagesEEG,001,102624,
AFNE22.JPG,AFSA24.JPG,AFSA22.JPG,AFNE25.JPG,AFNE24.JPG,AFSA25.JPG,,,,,,,,,0,2,2,6,,,,,,,,,,,,,,,AFSA07.jpg,AFNE20.jpg,AFNE11.jpg,AFSA12.jpg,AFNE11.jpg,FN,3,num_2,16,num_2,2.9664657556,,,2017_Dec_13_1146,60.0038106272,FEMA4ImagesEEG,001,102624,
AMSA25.JPG,AMNE24.JPG,AMSA24.JPG,AMNE26.JPG,AMSA21.JPG,AMNE25.JPG,,,,,,,,,0,3,3,3,,,,,,,,,,,,,,,AFNE07.jpg,AFSA12.jpg,AFSA20.jpg,AFNE19.jpg,AFSA20.jpg,FS,4,num_2,16,num_2,1.61671378324,,,2017_Dec_13_1146,60.0038106272,FEMA4ImagesEEG,001,102624,
AMSA21.JPG,AMNE23.JPG,AMNE21.JPG,AMSA25.JPG,AMNE25.JPG,AMSA23.JPG,,,,,,,,,0,4,4,5,,,,,,,,,,,,,,,AFNE03.jpg,AFSA13.jpg,AFNE01.jpg,AFSA05.jpg,AFNE01.jpg,FN,3,num_2,32,num_8,0.866664549801,,,2017_Dec_13_1146,60.0038106272,FEMA4ImagesEEG,001,102624,
AFNE23.JPG,AFNE24.JPG,AFNE22.JPG,AFSA24.JPG,AFSA22.JPG,AFSA23.JPG,,,,,,,,,0,5,5,8,,,,,,,,,,,,,,,AFSA14.jpg,AFNE04.jpg,AFSA05.jpg,AFNE01.jpg,AFSA05.jpg,FS,4,num_2,32,num_6,1.81670268555,,,2017_Dec_13_1146,60.0038106272,FEMA4ImagesEEG,001,102624,
AFSA25.JPG,AFNE24.JPG,AFSA24.JPG,AFNE21.JPG,AFSA21.JPG,AFNE25.JPG,,,,,,,,,0,6,6,2,,,,,,,,,,,,,,,AFSA09.jpg,AFNE07.jpg,AFSA12.jpg,AFNE19.jpg,AFSA12.jpg,FS,4,num_2,32,num_4,1.11679108138,,,2017_Dec_13_1146,60.0038106272,FEMA4ImagesEEG,001,102624,
AMNE23.JPG,AMNE24.JPG,AMNE22.JPG,AMSA24.JPG,AMSA22.JPG,AMSA23.JPG,,,,,,,,,0,7,7,9,,,,,,,,,,,,,,,AFNE01.jpg,AFSA17.jpg,AFSA09.jpg,AFNE14.jpg,AFSA17.jpg,FS,4,num_6,16,num_6,1.70008095447,,,2017_Dec_13_1146,60.0038106272,FEMA4ImagesEEG,001,102624,
AMSA21.JPG,AMNE22.JPG,AMNE21.JPG,AMSA23.JPG,AMSA22.JPG,AMNE23.JPG,,,,,,,,,0,8,8,1,,,,,,,,,,,,,,,AFNE12.jpg,AFSA10.jpg,AFNE07.jpg,AFSA20.jpg,AFSA20.jpg,FS,4,num_4,32,num_2,2.66662721569,,,2017_Dec_13_1146,60.0038106272,FEMA4ImagesEEG,001,102624,
AMNE22.JPG,AMSA24.JPG,AMSA22.JPG,AMNE25.JPG,AMNE24.JPG,AMSA25.JPG,,,,,,,,,0,9,9,7,,,,,,,,,,,,,,,AFNE07.jpg,AFSA07.jpg,AFSA13.jpg,AFNE14.jpg,AFSA13.jpg,FS,4,num_2,32,num_8,1.06673427834,,,2017_Dec_13_1146,60.0038106272,FEMA4ImagesEEG,001,102624,
AMNE22.JPG,AMSA24.JPG,AMSA22.JPG,AMNE25.JPG,AMNE24.JPG,AMSA25.JPG,,,,,,,,,,,,,0,0,0,7,,,,,,,,,,,AMNE14.jpg,AMNE20.jpg,AMSA20.jpg,AMSA01.jpg,AMNE20.jpg,MN,1,num_6,32,num_4,2.08338577417,,,2017_Dec_13_1146,60.0038106272,FEMA4ImagesEEG,001,102624,
AMSA21.JPG,AMNE22.JPG,AMNE21.JPG,AMSA23.JPG,AMSA22.JPG,AMNE23.JPG,,,,,,,,,,,,,0,1,1,1,,,,,,,,,,,AMNE04.jpg,AMNE06.jpg,AMSA17.jpg,AMSA13.jpg,AMSA13.jpg,MS,2,num_4,32,num_8,1.00014882279,,,2017_Dec_13_1146,60.0038106272,FEMA4ImagesEEG,001,102624,
AMSA21.JPG,AMNE23.JPG,AMNE21.JPG,AMSA25.JPG,AMNE25.JPG,AMSA23.JPG,,,,,,,,,,,,,0,2,2,5,,,,,,,,,,,AMNE02.jpg,AMSA08.jpg,AMNE08.jpg,AMSA09.jpg,AMSA08.jpg,MS,2,num_6,32,num_8,1.18344517518,,,2017_Dec_13_1146,60.0038106272,FEMA4ImagesEEG,001,102624,
AFSA21.JPG,AFNE23.JPG,AFNE21.JPG,AFSA25.JPG,AFNE25.JPG,AFSA23.JPG,,,,,,,,,,,,,0,3,3,4,,,,,,,,,,,AMSA10.jpg,AMSA16.jpg,AMNE15.jpg,AMNE06.jpg,AMSA10.jpg,MS,2,num_8,32,num_6,1.31673123152,,,2017_Dec_13_1146,60.0038106272,FEMA4ImagesEEG,001,102624,
AFSA25.JPG,AFNE24.JPG,AFSA24.JPG,AFNE21.JPG,AFSA21.JPG,AFNE25.JPG,,,,,,,,,,,,,0,4,4,2,,,,,,,,,,,AMSA09.jpg,AMNE18.jpg,AMSA07.jpg,AMNE02.jpg,AMSA07.jpg,MS,2,num_2,16,num_2,1.45010869834,,,2017_Dec_13_1146,60.0038106272,FEMA4ImagesEEG,001,102624,
AMNE23.JPG,AMNE24.JPG,AMNE22.JPG,AMSA24.JPG,AMSA22.JPG,AMSA23.JPG,,,,,,,,,,,,,0,5,5,9,,,,,,,,,,,AMNE02.jpg,AMNE20.jpg,AMSA18.jpg,AMSA17.jpg,AMNE20.jpg,MN,1,num_6,32,num_8,1.08341784799,,,2017_Dec_13_1146,60.0038106272,FEMA4ImagesEEG,001,102624,
AFNE22.JPG,AFSA24.JPG,AFSA22.JPG,AFNE25.JPG,AFNE24.JPG,AFSA25.JPG,,,,,,,,,,,,,0,6,6,6,,,,,,,,,,,AMNE06.jpg,AMSA17.jpg,AMSA05.jpg,AMNE05.jpg,AMNE06.jpg,MN,1,num_8,32,num_6,1.13341146545,,,2017_Dec_13_1146,60.0038106272,FEMA4ImagesEEG,001,102624,
AFSA21.JPG,AFNE22.JPG,AFNE21.JPG,AFSA23.JPG,AFSA22.JPG,AFNE23.JPG,,,,,,,,,,,,,0,7,7,0,,,,,,,,,,,AMNE12.jpg,AMNE05.jpg,AMSA20.jpg,AMSA17.jpg,AMSA17.jpg,MS,2,num_4,32,num_8,1.28327973769,,,2017_Dec_13_1146,60.0038106272,FEMA4ImagesEEG,001,102624,
AMSA25.JPG,AMNE24.JPG,AMSA24.JPG,AMNE26.JPG,AMSA21.JPG,AMNE25.JPG,,,,,,,,,,,,,0,8,8,3,,,,,,,,,,,AMSA16.jpg,AMSA09.jpg,AMNE20.jpg,AMNE08.jpg,AMNE20.jpg,MN,1,num_2,48,None,,,,2017_Dec_13_1146,60.0038106272,FEMA4ImagesEEG,001,102624,
AFNE23.JPG,AFNE24.JPG,AFNE22.JPG,AFSA24.JPG,AFSA22.JPG,AFSA23.JPG,,,,,,,,,,,,,0,9,9,8,,,,,,,,,,,AMNE15.jpg,AMSA19.jpg,AMNE19.jpg,AMSA03.jpg,AMNE19.jpg,MN,1,num_2,32,num_8,1.18343523215,,,2017_Dec_13_1146,60.0038106272,FEMA4ImagesEEG,001,102624,
AMSA21.JPG,AMNE23.JPG,AMNE21.JPG,AMSA25.JPG,AMNE25.JPG,AMSA23.JPG,,,,,,,,,,,,,,,,,0,0,0,5,,,,,,,AFSA12.jpg,AFNE13.jpg,AFSA16.jpg,AFNE18.jpg,AFNE18.jpg,FN,3,num_4,16,num_4,2.71664200164,,,2017_Dec_13_1146,60.0038106272,FEMA4ImagesEEG,001,102624,
AMNE22.JPG,AMSA24.JPG,AMSA22.JPG,AMNE25.JPG,AMNE24.JPG,AMSA25.JPG,,,,,,,,,,,,,,,,,0,1,1,7,,,,,,,AFNE12.jpg,AFSA11.jpg,AFNE07.jpg,AFSA14.jpg,AFSA14.jpg,FS,4,num_4,16,num_4,2.39997780486,,,2017_Dec_13_1146,60.0038106272,FEMA4ImagesEEG,001,102624,
AFNE22.JPG,AFSA24.JPG,AFSA22.JPG,AFNE25.JPG,AFNE24.JPG,AFSA25.JPG,,,,,,,,,,,,,,,,,0,2,2,6,,,,,,,AFSA11.jpg,AFNE11.jpg,AFSA02.jpg,AFNE02.jpg,AFSA02.jpg,FS,4,num_2,48,None,,,,2017_Dec_13_1146,60.0038106272,FEMA4ImagesEEG,001,102624,
AFSA25.JPG,AFNE24.JPG,AFSA24.JPG,AFNE21.JPG,AFSA21.JPG,AFNE25.JPG,,,,,,,,,,,,,,,,,0,3,3,2,,,,,,,AFNE07.jpg,AFSA09.jpg,AFSA13.jpg,AFNE12.jpg,AFSA13.jpg,FS,4,num_2,16,num_2,1.08313816367,,,2017_Dec_13_1146,60.0038106272,FEMA4ImagesEEG,001,102624,
AMSA25.JPG,AMNE24.JPG,AMSA24.JPG,AMNE26.JPG,AMSA21.JPG,AMNE25.JPG,,,,,,,,,,,,,,,,,0,4,4,3,,,,,,,AFNE02.jpg,AFSA17.jpg,AFNE15.jpg,AFSA10.jpg,AFSA10.jpg,FS,4,num_4,32,num_6,3.29989306559,,,2017_Dec_13_1146,60.0038106272,FEMA4ImagesEEG,001,102624,
AMNE23.JPG,AMNE24.JPG,AMNE22.JPG,AMSA24.JPG,AMSA22.JPG,AMSA23.JPG,,,,,,,,,,,,,,,,,0,5,5,9,,,,,,,AFSA12.jpg,AFNE17.jpg,AFSA20.jpg,AFNE18.jpg,AFSA20.jpg,FS,4,num_2,32,num_8,1.58340630168,,,2017_Dec_13_1146,60.0038106272,FEMA4ImagesEEG,001,102624,
AFSA21.JPG,AFNE22.JPG,AFNE21.JPG,AFSA23.JPG,AFSA22.JPG,AFNE23.JPG,,,,,,,,,,,,,,,,,0,6,6,0,,,,,,,AFNE06.jpg,AFSA13.jpg,AFSA17.jpg,AFNE10.jpg,AFSA17.jpg,FS,4,num_2,32,num_8,1.366708491,,,2017_Dec_13_1146,60.0038106272,FEMA4ImagesEEG,001,102624,
AMSA21.JPG,AMNE22.JPG,AMNE21.JPG,AMSA23.JPG,AMSA22.JPG,AMNE23.JPG,,,,,,,,,,,,,,,,,0,7,7,1,,,,,,,AFNE04.jpg,AFNE10.jpg,AFSA18.jpg,AFSA03.jpg,AFNE04.jpg,FN,3,num_8,32,num_6,1.48343189643,,,2017_Dec_13_1146,60.0038106272,FEMA4ImagesEEG,001,102624,
AFNE23.JPG,AFNE24.JPG,AFNE22.JPG,AFSA24.JPG,AFSA22.JPG,AFSA23.JPG,,,,,,,,,,,,,,,,,0,8,8,8,,,,,,,AFNE14.jpg,AFSA06.jpg,AFNE15.jpg,AFSA02.jpg,AFSA02.jpg,FS,4,num_4,32,num_2,2.56659764354,,,2017_Dec_13_1146,60.0038106272,FEMA4ImagesEEG,001,102624,
AFSA21.JPG,AFNE23.JPG,AFNE21.JPG,AFSA25.JPG,AFNE25.JPG,AFSA23.JPG,,,,,,,,,,,,,,,,,0,9,9,4,,,,,,,AFSA10.jpg,AFNE02.jpg,AFNE20.jpg,AFSA12.jpg,AFNE02.jpg,FN,3,num_6,48,None,,,,2017_Dec_13_1146,60.0038106272,FEMA4ImagesEEG,001,102624,
AMSA21.JPG,AMNE23.JPG,AMNE21.JPG,AMSA25.JPG,AMNE25.JPG,AMSA23.JPG,,,,,,,,,,,,,,,,,,,,,0,0,0,5,,,AMSA19.jpg,AMNE02.jpg,AMSA16.jpg,AMNE06.jpg,AMSA19.jpg,MS,2,num_8,16,num_8,1.35009259731,,,2017_Dec_13_1146,60.0038106272,FEMA4ImagesEEG,001,102624,
AFNE22.JPG,AFSA24.JPG,AFSA22.JPG,AFNE25.JPG,AFNE24.JPG,AFSA25.JPG,,,,,,,,,,,,,,,,,,,,,0,1,1,6,,,AMSA11.jpg,AMNE01.jpg,AMSA16.jpg,AMNE04.jpg,AMNE01.jpg,MN,1,num_6,16,num_6,2.38331700768,,,2017_Dec_13_1146,60.0038106272,FEMA4ImagesEEG,001,102624,
AFSA25.JPG,AFNE24.JPG,AFSA24.JPG,AFNE21.JPG,AFSA21.JPG,AFNE25.JPG,,,,,,,,,,,,,,,,,,,,,0,2,2,2,,,AMNE04.jpg,AMSA07.jpg,AMSA17.jpg,AMNE17.jpg,AMNE17.jpg,MN,1,num_4,32,num_2,1.90005221637,,,2017_Dec_13_1146,60.0038106272,FEMA4ImagesEEG,001,102624,
AFSA21.JPG,AFNE23.JPG,AFNE21.JPG,AFSA25.JPG,AFNE25.JPG,AFSA23.JPG,,,,,,,,,,,,,,,,,,,,,0,3,3,4,,,AMSA13.jpg,AMNE19.jpg,AMSA19.jpg,AMNE10.jpg,AMNE10.jpg,MN,1,num_4,32,num_8,1.95006988896,,,2017_Dec_13_1146,60.0038106272,FEMA4ImagesEEG,001,102624,
AMSA21.JPG,AMNE22.JPG,AMNE21.JPG,AMSA23.JPG,AMSA22.JPG,AMNE23.JPG,,,,,,,,,,,,,,,,,,,,,0,4,4,1,,,AMNE04.jpg,AMSA03.jpg,AMNE14.jpg,AMSA01.jpg,AMSA03.jpg,MS,2,num_6,16,num_6,1.20039495802,,,2017_Dec_13_1146,60.0038106272,FEMA4ImagesEEG,001,102624,
AMNE23.JPG,AMNE24.JPG,AMNE22.JPG,AMSA24.JPG,AMSA22.JPG,AMSA23.JPG,,,,,,,,,,,,,,,,,,,,,0,5,5,9,,,AMSA04.jpg,AMNE09.jpg,AMSA19.jpg,AMNE20.jpg,AMSA04.jpg,MS,2,num_8,16,num_8,0.833482476883,,,2017_Dec_13_1146,60.0038106272,FEMA4ImagesEEG,001,102624,
AFSA21.JPG,AFNE22.JPG,AFNE21.JPG,AFSA23.JPG,AFSA22.JPG,AFNE23.JPG,,,,,,,,,,,,,,,,,,,,,0,6,6,0,,,AMNE11.jpg,AMSA19.jpg,AMNE04.jpg,AMSA17.jpg,AMNE04.jpg,MN,1,num_2,16,num_2,1.31671615667,,,2017_Dec_13_1146,60.0038106272,FEMA4ImagesEEG,001,102624,
AFNE23.JPG,AFNE24.JPG,AFNE22.JPG,AFSA24.JPG,AFSA22.JPG,AFSA23.JPG,,,,,,,,,,,,,,,,,,,,,0,7,7,8,,,AMNE09.jpg,AMSA14.jpg,AMSA08.jpg,AMNE06.jpg,AMNE09.jpg,MN,1,num_8,16,num_8,2.00003592274,,,2017_Dec_13_1146,60.0038106272,FEMA4ImagesEEG,001,102624,
AMNE22.JPG,AMSA24.JPG,AMSA22.JPG,AMNE25.JPG,AMNE24.JPG,AMSA25.JPG,,,,,,,,,,,,,,,,,,,,,0,8,8,7,,,AMNE11.jpg,AMNE02.jpg,AMSA03.jpg,AMSA19.jpg,AMSA19.jpg,MS,2,num_4,16,num_4,0.983440877171,,,2017_Dec_13_1146,60.0038106272,FEMA4ImagesEEG,001,102624,
AMSA25.JPG,AMNE24.JPG,AMSA24.JPG,AMNE26.JPG,AMSA21.JPG,AMNE25.JPG,,,,,,,,,,,,,,,,,,,,,0,9,9,3,,,AMSA10.jpg,AMNE17.jpg,AMSA08.jpg,AMNE13.jpg,AMSA08.jpg,MS,2,num_2,48,None,,,,2017_Dec_13_1146,60.0038106272,FEMA4ImagesEEG,001,102624,
,,,,,,,,,,,,,,,,,,,,,,,,,,,,,,,,,,,,,,,,,,,space,57.7622703586,2017_Dec_13_1146,60.0038106272,FEMA4ImagesEEG,001,102624,
AFNE01.JPG,AFNE01.JPG,AFNE01.JPG,AFNE01.JPG,AFNE01.JPG,AFNE01.JPG,0,0,0,0,,,,,,,,,,,,,,,,,,,,,,,AFSA12.jpg,AFNE18.jpg,AFNE09.jpg,AFSA18.jpg,AFSA18.jpg,FS,4,num_4,32,num_2,1.40004483913,,,2017_Dec_13_1146,60.0038106272,FEMA4ImagesEEG,001,102624,
AFNE01.JPG,AFNE01.JPG,AFNE01.JPG,AFNE01.JPG,AFNE01.JPG,AFNE01.JPG,0,1,1,4,,,,,,,,,,,,,,,,,,,,,,,AFSA11.jpg,AFNE16.jpg,AFSA08.jpg,AFNE08.jpg,AFSA11.jpg,FS,4,num_8,16,num_8,0.633458293276,,,2017_Dec_13_1146,60.0038106272,FEMA4ImagesEEG,001,102624,
AFNE01.JPG,AFNE01.JPG,AFNE01.JPG,AFNE01.JPG,AFNE01.JPG,AFNE01.JPG,0,2,2,1,,,,,,,,,,,,,,,,,,,,,,,AFSA18.jpg,AFNE06.jpg,AFNE16.jpg,AFSA16.jpg,AFSA18.jpg,FS,4,num_8,16,num_8,0.666682382813,,,2017_Dec_13_1146,60.0038106272,FEMA4ImagesEEG,001,102624,
AFNE01.JPG,AFNE01.JPG,AFNE01.JPG,AFNE01.JPG,AFNE01.JPG,AFNE01.JPG,0,3,3,9,,,,,,,,,,,,,,,,,,,,,,,AFNE06.jpg,AFSA14.jpg,AFNE11.jpg,AFSA19.jpg,AFSA19.jpg,FS,4,num_4,16,num_4,0.90013079741,,,2017_Dec_13_1146,60.0038106272,FEMA4ImagesEEG,001,102624,
AFNE01.JPG,AFNE01.JPG,AFNE01.JPG,AFNE01.JPG,AFNE01.JPG,AFNE01.JPG,0,4,4,5,,,,,,,,,,,,,,,,,,,,,,,AFSA02.jpg,AFNE16.jpg,AFSA18.jpg,AFNE04.jpg,AFNE16.jpg,FN,3,num_6,32,num_4,1.05014276085,,,2017_Dec_13_1146,60.0038106272,FEMA4ImagesEEG,001,102624,
AFNE01.JPG,AFNE01.JPG,AFNE01.JPG,AFNE01.JPG,AFNE01.JPG,AFNE01.JPG,0,5,5,6,,,,,,,,,,,,,,,,,,,,,,,AFSA19.jpg,AFSA07.jpg,AFNE02.jpg,AFNE13.jpg,AFSA19.jpg,FS,4,num_8,16,num_8,0.600195073523,,,2017_Dec_13_1146,60.0038106272,FEMA4ImagesEEG,001,102624,
AFNE01.JPG,AFNE01.JPG,AFNE01.JPG,AFNE01.JPG,AFNE01.JPG,AFNE01.JPG,0,6,6,8,,,,,,,,,,,,,,,,,,,,,,,AFSA12.jpg,AFNE10.jpg,AFNE12.jpg,AFSA04.jpg,AFSA04.jpg,FS,4,num_4,16,num_4,0.966737101087,,,2017_Dec_13_1146,60.0038106272,FEMA4ImagesEEG,001,102624,
AFNE01.JPG,AFNE01.JPG,AFNE01.JPG,AFNE01.JPG,AFNE01.JPG,AFNE01.JPG,0,7,7,7,,,,,,,,,,,,,,,,,,,,,,,AFSA06.jpg,AFNE02.jpg,AFNE14.jpg,AFSA16.jpg,AFNE02.jpg,FN,3,num_6,32,num_8,0.983450499363,,,2017_Dec_13_1146,60.0038106272,FEMA4ImagesEEG,001,102624,
AFNE01.JPG,AFNE01.JPG,AFNE01.JPG,AFNE01.JPG,AFNE01.JPG,AFNE01.JPG,0,8,8,3,,,,,,,,,,,,,,,,,,,,,,,AFSA05.jpg,AFNE03.jpg,AFNE04.jpg,AFSA08.jpg,AFSA08.jpg,FS,4,num_4,32,num_8,2.73331947741,,,2017_Dec_13_1146,60.0038106272,FEMA4ImagesEEG,001,102624,
AFNE01.JPG,AFNE01.JPG,AFNE01.JPG,AFNE01.JPG,AFNE01.JPG,AFNE01.JPG,0,9,9,2,,,,,,,,,,,,,,,,,,,,,,,AFSA05.jpg,AFSA18.jpg,AFNE08.jpg,AFNE04.jpg,AFNE04.jpg,FN,3,num_4,32,num_8,1.60003374191,,,2017_Dec_13_1146,60.0038106272,FEMA4ImagesEEG,001,102624,
AFNE01.JPG,AFNE01.JPG,AFNE01.JPG,AFNE01.JPG,AFNE01.JPG,AFNE01.JPG,1,0,10,1,,,,,,,,,,,,,,,,,,,,,,,AFSA15.jpg,AFNE01.jpg,AFNE14.jpg,AFSA16.jpg,AFNE14.jpg,FN,3,num_2,32,num_8,1.16652008891,,,2017_Dec_13_1146,60.0038106272,FEMA4ImagesEEG,001,102624,
AFNE01.JPG,AFNE01.JPG,AFNE01.JPG,AFNE01.JPG,AFNE01.JPG,AFNE01.JPG,1,1,11,4,,,,,,,,,,,,,,,,,,,,,,,AFNE09.jpg,AFNE04.jpg,AFSA02.jpg,AFSA19.jpg,AFSA02.jpg,FS,4,num_2,32,num_8,1.80003739824,,,2017_Dec_13_1146,60.0038106272,FEMA4ImagesEEG,001,102624,
AFNE01.JPG,AFNE01.JPG,AFNE01.JPG,AFNE01.JPG,AFNE01.JPG,AFNE01.JPG,1,2,12,7,,,,,,,,,,,,,,,,,,,,,,,AFNE01.jpg,AFSA02.jpg,AFSA10.jpg,AFNE20.jpg,AFSA10.jpg,FS,4,num_2,32,num_8,2.26666063676,,,2017_Dec_13_1146,60.0038106272,FEMA4ImagesEEG,001,102624,
AFNE01.JPG,AFNE01.JPG,AFNE01.JPG,AFNE01.JPG,AFNE01.JPG,AFNE01.JPG,1,3,13,8,,,,,,,,,,,,,,,,,,,,,,,AFSA08.jpg,AFNE17.jpg,AFNE03.jpg,AFSA06.jpg,AFNE03.jpg,FN,3,num_2,32,num_6,1.26709395554,,,2017_Dec_13_1146,60.0038106272,FEMA4ImagesEEG,001,102624,
AFNE01.JPG,AFNE01.JPG,AFNE01.JPG,AFNE01.JPG,AFNE01.JPG,AFNE01.JPG,1,4,14,0,,,,,,,,,,,,,,,,,,,,,,,AFNE17.jpg,AFSA11.jpg,AFNE10.jpg,AFSA04.jpg,AFNE10.jpg,FN,3,num_2,32,num_8,4.48316247552,,,2017_Dec_13_1146,60.0038106272,FEMA4ImagesEEG,001,102624,
AFNE01.JPG,AFNE01.JPG,AFNE01.JPG,AFNE01.JPG,AFNE01.JPG,AFNE01.JPG,1,5,15,2,,,,,,,,,,,,,,,,,,,,,,,AFSA12.jpg,AFSA02.jpg,AFNE17.jpg,AFNE05.jpg,AFNE05.jpg,FN,3,num_4,16,num_4,4.5665091197,,,2017_Dec_13_1146,60.0038106272,FEMA4ImagesEEG,001,102624,
AFNE01.JPG,AFNE01.JPG,AFNE01.JPG,AFNE01.JPG,AFNE01.JPG,AFNE01.JPG,1,6,16,6,,,,,,,,,,,,,,,,,,,,,,,AFSA04.jpg,AFSA16.jpg,AFNE13.jpg,AFNE06.jpg,AFSA04.jpg,FS,4,num_8,16,num_8,1.46673645941,,,2017_Dec_13_1146,60.0038106272,FEMA4ImagesEEG,001,102624,
AFNE01.JPG,AFNE01.JPG,AFNE01.JPG,AFNE01.JPG,AFNE01.JPG,AFNE01.JPG,1,7,17,3,,,,,,,,,,,,,,,,,,,,,,,AFSA13.jpg,AFSA01.jpg,AFNE03.jpg,AFNE13.jpg,AFSA13.jpg,FS,4,num_8,32,num_2,3.79992257338,,,2017_Dec_13_1146,60.0038106272,FEMA4ImagesEEG,001,102624,
AFNE01.JPG,AFNE01.JPG,AFNE01.JPG,AFNE01.JPG,AFNE01.JPG,AFNE01.JPG,1,8,18,9,,,,,,,,,,,,,,,,,,,,,,,AFNE19.jpg,AFSA06.jpg,AFSA14.jpg,AFNE08.jpg,AFSA06.jpg,FS,4,num_6,16,num_6,0.850091635017,,,2017_Dec_13_1146,60.0038106272,FEMA4ImagesEEG,001,102624,
AFNE01.JPG,AFNE01.JPG,AFNE01.JPG,AFNE01.JPG,AFNE01.JPG,AFNE01.JPG,1,9,19,5,,,,,,,,,,,,,,,,,,,,,,,AFNE08.jpg,AFSA20.jpg,AFNE18.jpg,AFSA14.jpg,AFSA20.jpg,FS,4,num_6,16,num_6,1.00013246527,,,2017_Dec_13_1146,60.0038106272,FEMA4ImagesEEG,001,102624,
AFNE01.JPG,AFNE01.JPG,AFNE01.JPG,AFNE01.JPG,AFNE01.JPG,AFNE01.JPG,2,0,20,4,,,,,,,,,,,,,,,,,,,,,,,AFNE08.jpg,AFNE16.jpg,AFSA19.jpg,AFSA16.jpg,AFNE08.jpg,FN,3,num_8,48,None,,,,2017_Dec_13_1146,60.0038106272,FEMA4ImagesEEG,001,102624,
AFNE01.JPG,AFNE01.JPG,AFNE01.JPG,AFNE01.JPG,AFNE01.JPG,AFNE01.JPG,2,1,21,1,,,,,,,,,,,,,,,,,,,,,,,AFSA10.jpg,AFNE03.jpg,AFSA03.jpg,AFNE18.jpg,AFSA03.jpg,FS,4,num_2,16,num_2,0.866765903542,,,2017_Dec_13_1146,60.0038106272,FEMA4ImagesEEG,001,102624,
AFNE01.JPG,AFNE01.JPG,AFNE01.JPG,AFNE01.JPG,AFNE01.JPG,AFNE01.JPG,2,2,22,2,,,,,,,,,,,,,,,,,,,,,,,AFNE14.jpg,AFSA13.jpg,AFSA06.jpg,AFNE01.jpg,AFSA13.jpg,FS,4,num_6,32,num_2,1.50010295724,,,2017_Dec_13_1146,60.0038106272,FEMA4ImagesEEG,001,102624,
AFNE01.JPG,AFNE01.JPG,AFNE01.JPG,AFNE01.JPG,AFNE01.JPG,AFNE01.JPG,2,3,23,9,,,,,,,,,,,,,,,,,,,,,,,AFNE06.jpg,AFNE17.jpg,AFSA14.jpg,AFSA05.jpg,AFNE17.jpg,FN,3,num_6,32,num_8,4.58318723668,,,2017_Dec_13_1146,60.0038106272,FEMA4ImagesEEG,001,102624,
AFNE01.JPG,AFNE01.JPG,AFNE01.JPG,AFNE01.JPG,AFNE01.JPG,AFNE01.JPG,2,4,24,5,,,,,,,,,,,,,,,,,,,,,,,AFSA03.jpg,AFNE02.jpg,AFNE17.jpg,AFSA01.jpg,AFSA03.jpg,FS,4,num_8,32,num_2,2.183330992,,,2017_Dec_13_1146,60.0038106272,FEMA4ImagesEEG,001,102624,
AFNE01.JPG,AFNE01.JPG,AFNE01.JPG,AFNE01.JPG,AFNE01.JPG,AFNE01.JPG,2,5,25,7,,,,,,,,,,,,,,,,,,,,,,,AFNE15.jpg,AFSA19.jpg,AFNE10.jpg,AFSA16.jpg,AFSA16.jpg,FS,4,num_4,32,num_8,3.29991327226,,,2017_Dec_13_1146,60.0038106272,FEMA4ImagesEEG,001,102624,
AFNE01.JPG,AFNE01.JPG,AFNE01.JPG,AFNE01.JPG,AFNE01.JPG,AFNE01.JPG,2,6,26,8,,,,,,,,,,,,,,,,,,,,,,,AFNE13.jpg,AFNE06.jpg,AFSA02.jpg,AFSA06.jpg,AFSA02.jpg,FS,4,num_2,32,num_6,1.63332967693,,,2017_Dec_13_1146,60.0038106272,FEMA4ImagesEEG,001,102624,
AFNE01.JPG,AFNE01.JPG,AFNE01.JPG,AFNE01.JPG,AFNE01.JPG,AFNE01.JPG,2,7,27,0,,,,,,,,,,,,,,,,,,,,,,,AFNE05.jpg,AFSA15.jpg,AFSA12.jpg,AFNE18.jpg,AFNE18.jpg,FN,3,num_4,16,num_4,0.983444726095,,,2017_Dec_13_1146,60.0038106272,FEMA4ImagesEEG,001,102624,
AFNE01.JPG,AFNE01.JPG,AFNE01.JPG,AFNE01.JPG,AFNE01.JPG,AFNE01.JPG,2,8,28,3,,,,,,,,,,,,,,,,,,,,,,,AFSA11.jpg,AFNE14.jpg,AFNE01.jpg,AFSA10.jpg,AFNE01.jpg,FN,3,num_2,16,num_2,3.5332237687,,,2017_Dec_13_1146,60.0038106272,FEMA4ImagesEEG,001,102624,
AFNE01.JPG,AFNE01.JPG,AFNE01.JPG,AFNE01.JPG,AFNE01.JPG,AFNE01.JPG,2,9,29,6,,,,,,,,,,,,,,,,,,,,,,,AFNE14.jpg,AFNE20.jpg,AFSA13.jpg,AFSA09.jpg,AFNE20.jpg,FN,3,num_6,16,num_6,0.900161588565,,,2017_Dec_13_1146,60.0038106272,FEMA4ImagesEEG,001,102624,
AFNE01.JPG,AFNE01.JPG,AFNE01.JPG,AFNE01.JPG,AFNE01.JPG,AFNE01.JPG,3,0,30,2,,,,,,,,,,,,,,,,,,,,,,,AFSA06.jpg,AFNE17.jpg,AFSA05.jpg,AFNE20.jpg,AFSA05.jpg,FS,4,num_2,32,num_8,1.98320385092,,,2017_Dec_13_1146,60.0038106272,FEMA4ImagesEEG,001,102624,
AFNE01.JPG,AFNE01.JPG,AFNE01.JPG,AFNE01.JPG,AFNE01.JPG,AFNE01.JPG,3,1,31,3,,,,,,,,,,,,,,,,,,,,,,,AFSA18.jpg,AFNE01.jpg,AFNE14.jpg,AFSA14.jpg,AFSA14.jpg,FS,4,num_4,32,num_2,2.41668158118,,,2017_Dec_13_1146,60.0038106272,FEMA4ImagesEEG,001,102624,
AFNE01.JPG,AFNE01.JPG,AFNE01.JPG,AFNE01.JPG,AFNE01.JPG,AFNE01.JPG,3,2,32,1,,,,,,,,,,,,,,,,,,,,,,,AFSA06.jpg,AFNE14.jpg,AFSA10.jpg,AFNE12.jpg,AFSA06.jpg,FS,4,num_8,32,num_4,1.03345951228,,,2017_Dec_13_1146,60.0038106272,FEMA4ImagesEEG,001,102624,
AFNE01.JPG,AFNE01.JPG,AFNE01.JPG,AFNE01.JPG,AFNE01.JPG,AFNE01.JPG,3,3,33,9,,,,,,,,,,,,,,,,,,,,,,,AFSA03.jpg,AFNE08.jpg,AFSA13.jpg,AFNE15.jpg,AFSA03.jpg,FS,4,num_8,32,num_6,0.616788836196,,,2017_Dec_13_1146,60.0038106272,FEMA4ImagesEEG,001,102624,
AFNE01.JPG,AFNE01.JPG,AFNE01.JPG,AFNE01.JPG,AFNE01.JPG,AFNE01.JPG,3,4,34,0,,,,,,,,,,,,,,,,,,,,,,,AFSA15.jpg,AFSA06.jpg,AFNE19.jpg,AFNE06.jpg,AFSA15.jpg,FS,4,num_8,16,num_8,1.03341492941,,,2017_Dec_13_1146,60.0038106272,FEMA4ImagesEEG,001,102624,
AFNE01.JPG,AFNE01.JPG,AFNE01.JPG,AFNE01.JPG,AFNE01.JPG,AFNE01.JPG,3,5,35,7,,,,,,,,,,,,,,,,,,,,,,,AFSA18.jpg,AFNE20.jpg,AFSA11.jpg,AFNE15.jpg,AFNE15.jpg,FN,3,num_4,16,num_4,1.48332701484,,,2017_Dec_13_1146,60.0038106272,FEMA4ImagesEEG,001,102624,
AFNE01.JPG,AFNE01.JPG,AFNE01.JPG,AFNE01.JPG,AFNE01.JPG,AFNE01.JPG,3,6,36,8,,,,,,,,,,,,,,,,,,,,,,,AFSA10.jpg,AFSA19.jpg,AFNE11.jpg,AFNE13.jpg,AFSA10.jpg,FS,4,num_8,16,num_8,0.66682158364,,,2017_Dec_13_1146,60.0038106272,FEMA4ImagesEEG,001,102624,
AFNE01.JPG,AFNE01.JPG,AFNE01.JPG,AFNE01.JPG,AFNE01.JPG,AFNE01.JPG,3,7,37,5,,,,,,,,,,,,,,,,,,,,,,,AFNE17.jpg,AFSA05.jpg,AFSA15.jpg,AFNE07.jpg,AFNE17.jpg,FN,3,num_8,16,num_8,0.88341322937,,,2017_Dec_13_1146,60.0038106272,FEMA4ImagesEEG,001,102624,
AFNE01.JPG,AFNE01.JPG,AFNE01.JPG,AFNE01.JPG,AFNE01.JPG,AFNE01.JPG,3,8,38,4,,,,,,,,,,,,,,,,,,,,,,,AFNE16.jpg,AFSA09.jpg,AFNE09.jpg,AFSA04.jpg,AFSA09.jpg,FS,4,num_6,32,num_2,2.2500293476,,,2017_Dec_13_1146,60.0038106272,FEMA4ImagesEEG,001,102624,
AFNE01.JPG,AFNE01.JPG,AFNE01.JPG,AFNE01.JPG,AFNE01.JPG,AFNE01.JPG,3,9,39,6,,,,,,,,,,,,,,,,,,,,,,,AFSA16.jpg,AFSA13.jpg,AFNE13.jpg,AFNE07.jpg,AFSA13.jpg,FS,4,num_6,16,num_6,0.733508392703,,,2017_Dec_13_1146,60.0038106272,FEMA4ImagesEEG,001,102624,
AFNE01.JPG,AFNE01.JPG,AFNE01.JPG,AFNE01.JPG,AFNE01.JPG,AFNE01.JPG,4,0,40,5,,,,,,,,,,,,,,,,,,,,,,,AFNE04.jpg,AFSA16.jpg,AFNE03.jpg,AFSA18.jpg,AFNE03.jpg,FN,3,num_2,16,num_2,4.43321825215,,,2017_Dec_13_1146,60.0038106272,FEMA4ImagesEEG,001,102624,
AFNE01.JPG,AFNE01.JPG,AFNE01.JPG,AFNE01.JPG,AFNE01.JPG,AFNE01.JPG,4,1,41,3,,,,,,,,,,,,,,,,,,,,,,,AFNE01.jpg,AFSA13.jpg,AFNE03.jpg,AFSA03.jpg,AFSA13.jpg,FS,4,num_6,32,num_2,1.9666848206,,,2017_Dec_13_1146,60.0038106272,FEMA4ImagesEEG,001,102624,
AFNE01.JPG,AFNE01.JPG,AFNE01.JPG,AFNE01.JPG,AFNE01.JPG,AFNE01.JPG,4,2,42,2,,,,,,,,,,,,,,,,,,,,,,,AFNE15.jpg,AFSA08.jpg,AFNE11.jpg,AFSA20.jpg,AFSA08.jpg,FS,4,num_6,32,num_4,3.19984521135,,,2017_Dec_13_1146,60.0038106272,FEMA4ImagesEEG,001,102624,
AFNE01.JPG,AFNE01.JPG,AFNE01.JPG,AFNE01.JPG,AFNE01.JPG,AFNE01.JPG,4,3,43,7,,,,,,,,,,,,,,,,,,,,,,,AFSA09.jpg,AFNE17.jpg,AFSA15.jpg,AFNE04.jpg,AFSA15.jpg,FS,4,num_2,32,num_8,2.08336781291,,,2017_Dec_13_1146,60.0038106272,FEMA4ImagesEEG,001,102624,
AFNE01.JPG,AFNE01.JPG,AFNE01.JPG,AFNE01.JPG,AFNE01.JPG,AFNE01.JPG,4,4,44,6,,,,,,,,,,,,,,,,,,,,,,,AFNE16.jpg,AFSA05.jpg,AFNE08.jpg,AFSA19.jpg,AFNE08.jpg,FN,3,num_2,32,num_4,1.76667699451,,,2017_Dec_13_1146,60.0038106272,FEMA4ImagesEEG,001,102624,
AFNE01.JPG,AFNE01.JPG,AFNE01.JPG,AFNE01.JPG,AFNE01.JPG,AFNE01.JPG,4,5,45,4,,,,,,,,,,,,,,,,,,,,,,,AFSA09.jpg,AFNE13.jpg,AFNE08.jpg,AFSA20.jpg,AFSA09.jpg,FS,4,num_8,32,num_4,0.750120116863,,,2017_Dec_13_1146,60.0038106272,FEMA4ImagesEEG,001,102624,
AFNE01.JPG,AFNE01.JPG,AFNE01.JPG,AFNE01.JPG,AFNE01.JPG,AFNE01.JPG,4,6,46,0,,,,,,,,,,,,,,,,,,,,,,,AFSA05.jpg,AFNE13.jpg,AFSA01.jpg,AFNE03.jpg,AFSA05.jpg,FS,4,num_8,16,num_8,1.33345970465,,,2017_Dec_13_1146,60.0038106272,FEMA4ImagesEEG,001,102624,
AFNE01.JPG,AFNE01.JPG,AFNE01.JPG,AFNE01.JPG,AFNE01.JPG,AFNE01.JPG,4,7,47,8,,,,,,,,,,,,,,,,,,,,,,,AFSA03.jpg,AFSA06.jpg,AFNE02.jpg,AFNE19.jpg,AFNE19.jpg,FN,3,num_4,32,num_6,1.03345470107,,,2017_Dec_13_1146,60.0038106272,FEMA4ImagesEEG,001,102624,
AFNE01.JPG,AFNE01.JPG,AFNE01.JPG,AFNE01.JPG,AFNE01.JPG,AFNE01.JPG,4,8,48,1,,,,,,,,,,,,,,,,,,,,,,,AFSA04.jpg,AFNE18.jpg,AFSA03.jpg,AFNE01.jpg,AFNE01.jpg,FN,3,num_4,32,num_2,1.60004079808,,,2017_Dec_13_1146,60.0038106272,FEMA4ImagesEEG,001,102624,
AFNE01.JPG,AFNE01.JPG,AFNE01.JPG,AFNE01.JPG,AFNE01.JPG,AFNE01.JPG,4,9,49,9,,,,,,,,,,,,,,,,,,,,,,,AFNE02.jpg,AFSA10.jpg,AFSA01.jpg,AFNE18.jpg,AFSA01.jpg,FS,4,num_2,16,num_2,1.06675448501,,,2017_Dec_13_1146,60.0038106272,FEMA4ImagesEEG,001,102624,
AFNE01.JPG,AFNE01.JPG,AFNE01.JPG,AFNE01.JPG,AFNE01.JPG,AFNE01.JPG,5,0,50,2,,,,,,,,,,,,,,,,,,,,,,,AFNE12.jpg,AFSA08.jpg,AFNE07.jpg,AFSA17.jpg,AFSA17.jpg,FS,4,num_4,32,num_8,0.966602390632,,,2017_Dec_13_1146,60.0038106272,FEMA4ImagesEEG,001,102624,
AFNE01.JPG,AFNE01.JPG,AFNE01.JPG,AFNE01.JPG,AFNE01.JPG,AFNE01.JPG,5,1,51,4,,,,,,,,,,,,,,,,,,,,,,,AFNE11.jpg,AFNE07.jpg,AFSA03.jpg,AFSA11.jpg,AFNE07.jpg,FN,3,num_6,16,num_6,1.1334194839,,,2017_Dec_13_1146,60.0038106272,FEMA4ImagesEEG,001,102624,
AFNE01.JPG,AFNE01.JPG,AFNE01.JPG,AFNE01.JPG,AFNE01.JPG,AFNE01.JPG,5,2,52,5,,,,,,,,,,,,,,,,,,,,,,,AFSA07.jpg,AFNE02.jpg,AFNE11.jpg,AFSA12.jpg,AFNE11.jpg,FN,3,num_2,32,num_8,1.41672712611,,,2017_Dec_13_1146,60.0038106272,FEMA4ImagesEEG,001,102624,
AFNE01.JPG,AFNE01.JPG,AFNE01.JPG,AFNE01.JPG,AFNE01.JPG,AFNE01.JPG,5,3,53,9,,,,,,,,,,,,,,,,,,,,,,,AFNE19.jpg,AFNE07.jpg,AFSA14.jpg,AFSA18.jpg,AFNE07.jpg,FN,3,num_6,16,num_6,2.08334375732,,,2017_Dec_13_1146,60.0038106272,FEMA4ImagesEEG,001,102624,
AFNE01.JPG,AFNE01.JPG,AFNE01.JPG,AFNE01.JPG,AFNE01.JPG,AFNE01.JPG,5,4,54,6,,,,,,,,,,,,,,,,,,,,,,,AFSA05.jpg,AFNE08.jpg,AFSA11.jpg,AFNE02.jpg,AFSA11.jpg,FS,4,num_2,32,num_6,4.76642938377,,,2017_Dec_13_1146,60.0038106272,FEMA4ImagesEEG,001,102624,
AFNE01.JPG,AFNE01.JPG,AFNE01.JPG,AFNE01.JPG,AFNE01.JPG,AFNE01.JPG,5,5,55,8,,,,,,,,,,,,,,,,,,,,,,,AFNE20.jpg,AFSA20.jpg,AFNE06.jpg,AFSA17.jpg,AFSA17.jpg,FS,4,num_4,16,num_4,0.98344151862,,,2017_Dec_13_1146,60.0038106272,FEMA4ImagesEEG,001,102624,
AFNE01.JPG,AFNE01.JPG,AFNE01.JPG,AFNE01.JPG,AFNE01.JPG,AFNE01.JPG,5,6,56,0,,,,,,,,,,,,,,,,,,,,,,,AFNE19.jpg,AFSA12.jpg,AFSA07.jpg,AFNE08.jpg,AFSA07.jpg,FS,4,num_2,32,num_8,1.53339343984,,,2017_Dec_13_1146,60.0038106272,FEMA4ImagesEEG,001,102624,
AFNE01.JPG,AFNE01.JPG,AFNE01.JPG,AFNE01.JPG,AFNE01.JPG,AFNE01.JPG,5,7,57,7,,,,,,,,,,,,,,,,,,,,,,,AFSA11.jpg,AFNE02.jpg,AFNE17.jpg,AFSA01.jpg,AFNE02.jpg,FN,3,num_6,32,num_2,1.40004836745,,,2017_Dec_13_1146,60.0038106272,FEMA4ImagesEEG,001,102624,
AFNE01.JPG,AFNE01.JPG,AFNE01.JPG,AFNE01.JPG,AFNE01.JPG,AFNE01.JPG,5,8,58,3,,,,,,,,,,,,,,,,,,,,,,,AFSA18.jpg,AFNE06.jpg,AFSA14.jpg,AFNE03.jpg,AFNE03.jpg,FN,3,num_4,16,num_4,0.883415474556,,,2017_Dec_13_1146,60.0038106272,FEMA4ImagesEEG,001,102624,
AFNE01.JPG,AFNE01.JPG,AFNE01.JPG,AFNE01.JPG,AFNE01.JPG,AFNE01.JPG,5,9,59,1,,,,,,,,,,,,,,,,,,,,,,,AFSA05.jpg,AFNE07.jpg,AFNE01.jpg,AFSA15.jpg,AFSA15.jpg,FS,4,num_4,32,num_6,3.69991545333,,,2017_Dec_13_1146,60.0038106272,FEMA4ImagesEEG,001,102624,
,,,,,,,,,,,,,,,,,,,,,,,,,,,,,,,,,,,,,,,,,,,space,39.0300965619,2017_Dec_13_1146,60.0038106272,FEMA4ImagesEEG,001,102624,
AFNE01.JPG,AFNE01.JPG,AFNE01.JPG,AFNE01.JPG,AFNE01.JPG,AFNE01.JPG,,,,,0,0,0,1,,,,,,,,,,,,,,,,,,,AMNE16.jpg,AMNE13.jpg,AMSA17.jpg,AMSA15.jpg,AMSA17.jpg,MS,2,num_2,32,num_6,0.800150298281,,,2017_Dec_13_1146,60.0038106272,FEMA4ImagesEEG,001,102624,
AFNE01.JPG,AFNE01.JPG,AFNE01.JPG,AFNE01.JPG,AFNE01.JPG,AFNE01.JPG,,,,,0,1,1,2,,,,,,,,,,,,,,,,,,,AMNE17.jpg,AMNE10.jpg,AMSA16.jpg,AMSA07.jpg,AMNE17.jpg,MN,1,num_8,32,num_2,0.750100551872,,,2017_Dec_13_1146,60.0038106272,FEMA4ImagesEEG,001,102624,
AFNE01.JPG,AFNE01.JPG,AFNE01.JPG,AFNE01.JPG,AFNE01.JPG,AFNE01.JPG,,,,,0,2,2,4,,,,,,,,,,,,,,,,,,,AMNE18.jpg,AMNE02.jpg,AMSA05.jpg,AMSA15.jpg,AMSA05.jpg,MS,2,num_2,32,num_8,0.733459640527,,,2017_Dec_13_1146,60.0038106272,FEMA4ImagesEEG,001,102624,
AFNE01.JPG,AFNE01.JPG,AFNE01.JPG,AFNE01.JPG,AFNE01.JPG,AFNE01.JPG,,,,,0,3,3,3,,,,,,,,,,,,,,,,,,,AMNE06.jpg,AMSA18.jpg,AMNE19.jpg,AMSA14.jpg,AMSA18.jpg,MS,2,num_6,32,num_8,0.816690176725,,,2017_Dec_13_1146,60.0038106272,FEMA4ImagesEEG,001,102624,
AFNE01.JPG,AFNE01.JPG,AFNE01.JPG,AFNE01.JPG,AFNE01.JPG,AFNE01.JPG,,,,,0,4,4,0,,,,,,,,,,,,,,,,,,,AMSA19.jpg,AMNE13.jpg,AMSA15.jpg,AMNE14.jpg,AMNE13.jpg,MN,1,num_6,32,num_8,1.01676150924,,,2017_Dec_13_1146,60.0038106272,FEMA4ImagesEEG,001,102624,
AFNE01.JPG,AFNE01.JPG,AFNE01.JPG,AFNE01.JPG,AFNE01.JPG,AFNE01.JPG,,,,,0,5,5,5,,,,,,,,,,,,,,,,,,,AMNE18.jpg,AMSA01.jpg,AMNE17.jpg,AMSA08.jpg,AMNE17.jpg,MN,1,num_2,32,num_8,2.08330270275,,,2017_Dec_13_1146,60.0038106272,FEMA4ImagesEEG,001,102624,
AFNE01.JPG,AFNE01.JPG,AFNE01.JPG,AFNE01.JPG,AFNE01.JPG,AFNE01.JPG,,,,,0,6,6,9,,,,,,,,,,,,,,,,,,,AMNE19.jpg,AMNE06.jpg,AMSA20.jpg,AMSA17.jpg,AMSA17.jpg,MS,2,num_4,32,num_6,1.00012348476,,,2017_Dec_13_1146,60.0038106272,FEMA4ImagesEEG,001,102624,
AFNE01.JPG,AFNE01.JPG,AFNE01.JPG,AFNE01.JPG,AFNE01.JPG,AFNE01.JPG,,,,,0,7,7,8,,,,,,,,,,,,,,,,,,,AMSA16.jpg,AMNE20.jpg,AMNE07.jpg,AMSA15.jpg,AMSA15.jpg,MS,2,num_4,16,num_4,1.93342224229,,,2017_Dec_13_1146,60.0038106272,FEMA4ImagesEEG,001,102624,
AFNE01.JPG,AFNE01.JPG,AFNE01.JPG,AFNE01.JPG,AFNE01.JPG,AFNE01.JPG,,,,,0,8,8,6,,,,,,,,,,,,,,,,,,,AMNE20.jpg,AMNE10.jpg,AMSA13.jpg,AMSA19.jpg,AMSA19.jpg,MS,2,num_4,16,num_4,0.816798586631,,,2017_Dec_13_1146,60.0038106272,FEMA4ImagesEEG,001,102624,
AFNE01.JPG,AFNE01.JPG,AFNE01.JPG,AFNE01.JPG,AFNE01.JPG,AFNE01.JPG,,,,,0,9,9,7,,,,,,,,,,,,,,,,,,,AMSA16.jpg,AMNE01.jpg,AMSA03.jpg,AMNE10.jpg,AMSA03.jpg,MS,2,num_2,32,num_8,1.06680387887,,,2017_Dec_13_1146,60.0038106272,FEMA4ImagesEEG,001,102624,
AFNE01.JPG,AFNE01.JPG,AFNE01.JPG,AFNE01.JPG,AFNE01.JPG,AFNE01.JPG,,,,,1,0,10,7,,,,,,,,,,,,,,,,,,,AMSA09.jpg,AMNE09.jpg,AMSA01.jpg,AMNE11.jpg,AMSA01.jpg,MS,2,num_2,32,num_6,0.43347452255,,,2017_Dec_13_1146,60.0038106272,FEMA4ImagesEEG,001,102624,
AFNE01.JPG,AFNE01.JPG,AFNE01.JPG,AFNE01.JPG,AFNE01.JPG,AFNE01.JPG,,,,,1,1,11,2,,,,,,,,,,,,,,,,,,,AMNE12.jpg,AMNE17.jpg,AMSA02.jpg,AMSA14.jpg,AMNE17.jpg,MN,1,num_6,32,num_8,1.11676510144,,,2017_Dec_13_1146,60.0038106272,FEMA4ImagesEEG,001,102624,
AFNE01.JPG,AFNE01.JPG,AFNE01.JPG,AFNE01.JPG,AFNE01.JPG,AFNE01.JPG,,,,,1,2,12,0,,,,,,,,,,,,,,,,,,,AMNE18.jpg,AMSA03.jpg,AMSA10.jpg,AMNE15.jpg,AMNE15.jpg,MN,1,num_4,32,num_2,1.98333888222,,,2017_Dec_13_1146,60.0038106272,FEMA4ImagesEEG,001,102624,
AFNE01.JPG,AFNE01.JPG,AFNE01.JPG,AFNE01.JPG,AFNE01.JPG,AFNE01.JPG,,,,,1,3,13,6,,,,,,,,,,,,,,,,,,,AMSA11.jpg,AMNE20.jpg,AMNE04.jpg,AMSA02.jpg,AMSA02.jpg,MS,2,num_4,32,num_8,0.733624179615,,,2017_Dec_13_1146,60.0038106272,FEMA4ImagesEEG,001,102624,
AFNE01.JPG,AFNE01.JPG,AFNE01.JPG,AFNE01.JPG,AFNE01.JPG,AFNE01.JPG,,,,,1,4,14,8,,,,,,,,,,,,,,,,,,,AMSA15.jpg,AMSA10.jpg,AMNE17.jpg,AMNE18.jpg,AMSA10.jpg,MS,2,num_6,16,num_6,1.03354482888,,,2017_Dec_13_1146,60.0038106272,FEMA4ImagesEEG,001,102624,
AFNE01.JPG,AFNE01.JPG,AFNE01.JPG,AFNE01.JPG,AFNE01.JPG,AFNE01.JPG,,,,,1,5,15,5,,,,,,,,,,,,,,,,,,,AMNE11.jpg,AMNE14.jpg,AMSA17.jpg,AMSA04.jpg,AMSA04.jpg,MS,2,num_4,16,num_4,1.05004108651,,,2017_Dec_13_1146,60.0038106272,FEMA4ImagesEEG,001,102624,
AFNE01.JPG,AFNE01.JPG,AFNE01.JPG,AFNE01.JPG,AFNE01.JPG,AFNE01.JPG,,,,,1,6,16,1,,,,,,,,,,,,,,,,,,,AMSA15.jpg,AMNE11.jpg,AMNE18.jpg,AMSA01.jpg,AMSA01.jpg,MS,2,num_4,32,num_8,1.01674900041,,,2017_Dec_13_1146,60.0038106272,FEMA4ImagesEEG,001,102624,
AFNE01.JPG,AFNE01.JPG,AFNE01.JPG,AFNE01.JPG,AFNE01.JPG,AFNE01.JPG,,,,,1,7,17,3,,,,,,,,,,,,,,,,,,,AMSA19.jpg,AMNE20.jpg,AMNE01.jpg,AMSA13.jpg,AMNE01.jpg,MN,1,num_2,32,num_8,1.36669181264,,,2017_Dec_13_1146,60.0038106272,FEMA4ImagesEEG,001,102624,
AFNE01.JPG,AFNE01.JPG,AFNE01.JPG,AFNE01.JPG,AFNE01.JPG,AFNE01.JPG,,,,,1,8,18,4,,,,,,,,,,,,,,,,,,,AMNE08.jpg,AMNE06.jpg,AMSA14.jpg,AMSA17.jpg,AMSA14.jpg,MS,2,num_2,32,num_6,2.21663975646,,,2017_Dec_13_1146,60.0038106272,FEMA4ImagesEEG,001,102624,
AFNE01.JPG,AFNE01.JPG,AFNE01.JPG,AFNE01.JPG,AFNE01.JPG,AFNE01.JPG,,,,,1,9,19,9,,,,,,,,,,,,,,,,,,,AMSA18.jpg,AMNE18.jpg,AMSA01.jpg,AMNE05.jpg,AMSA01.jpg,MS,2,num_2,32,num_4,2.49994483287,,,2017_Dec_13_1146,60.0038106272,FEMA4ImagesEEG,001,102624,
AFNE01.JPG,AFNE01.JPG,AFNE01.JPG,AFNE01.JPG,AFNE01.JPG,AFNE01.JPG,,,,,2,0,20,5,,,,,,,,,,,,,,,,,,,AMSA13.jpg,AMNE07.jpg,AMNE05.jpg,AMSA04.jpg,AMSA04.jpg,MS,2,num_4,16,num_4,0.866789317224,,,2017_Dec_13_1146,60.0038106272,FEMA4ImagesEEG,001,102624,
AFNE01.JPG,AFNE01.JPG,AFNE01.JPG,AFNE01.JPG,AFNE01.JPG,AFNE01.JPG,,,,,2,1,21,7,,,,,,,,,,,,,,,,,,,AMNE16.jpg,AMNE01.jpg,AMSA08.jpg,AMSA20.jpg,AMSA08.jpg,MS,2,num_2,32,num_6,0.450150073972,,,2017_Dec_13_1146,60.0038106272,FEMA4ImagesEEG,001,102624,
AFNE01.JPG,AFNE01.JPG,AFNE01.JPG,AFNE01.JPG,AFNE01.JPG,AFNE01.JPG,,,,,2,2,22,1,,,,,,,,,,,,,,,,,,,AMNE14.jpg,AMSA19.jpg,AMNE20.jpg,AMSA01.jpg,AMSA19.jpg,MS,2,num_6,32,num_8,0.866743772523,,,2017_Dec_13_1146,60.0038106272,FEMA4ImagesEEG,001,102624,
AFNE01.JPG,AFNE01.JPG,AFNE01.JPG,AFNE01.JPG,AFNE01.JPG,AFNE01.JPG,,,,,2,3,23,2,,,,,,,,,,,,,,,,,,,AMNE12.jpg,AMNE09.jpg,AMSA10.jpg,AMSA15.jpg,AMNE09.jpg,MN,1,num_6,32,num_8,0.983289488126,,,2017_Dec_13_1146,60.0038106272,FEMA4ImagesEEG,001,102624,
AFNE01.JPG,AFNE01.JPG,AFNE01.JPG,AFNE01.JPG,AFNE01.JPG,AFNE01.JPG,,,,,2,4,24,9,,,,,,,,,,,,,,,,,,,AMNE17.jpg,AMSA01.jpg,AMSA07.jpg,AMNE03.jpg,AMSA01.jpg,MS,2,num_6,16,num_6,0.716858821455,,,2017_Dec_13_1146,60.0038106272,FEMA4ImagesEEG,001,102624,
AFNE01.JPG,AFNE01.JPG,AFNE01.JPG,AFNE01.JPG,AFNE01.JPG,AFNE01.JPG,,,,,2,5,25,6,,,,,,,,,,,,,,,,,,,AMSA11.jpg,AMNE10.jpg,AMSA10.jpg,AMNE06.jpg,AMNE06.jpg,MN,1,num_4,32,num_6,0.73360589752,,,2017_Dec_13_1146,60.0038106272,FEMA4ImagesEEG,001,102624,
AFNE01.JPG,AFNE01.JPG,AFNE01.JPG,AFNE01.JPG,AFNE01.JPG,AFNE01.JPG,,,,,2,6,26,8,,,,,,,,,,,,,,,,,,,AMSA09.jpg,AMNE01.jpg,AMSA05.jpg,AMNE10.jpg,AMNE10.jpg,MN,1,num_4,16,num_4,0.81674758927,,,2017_Dec_13_1146,60.0038106272,FEMA4ImagesEEG,001,102624,
AFNE01.JPG,AFNE01.JPG,AFNE01.JPG,AFNE01.JPG,AFNE01.JPG,AFNE01.JPG,,,,,2,7,27,3,,,,,,,,,,,,,,,,,,,AMNE09.jpg,AMSA08.jpg,AMSA11.jpg,AMNE17.jpg,AMSA11.jpg,MS,2,num_2,32,num_4,1.86669309577,,,2017_Dec_13_1146,60.0038106272,FEMA4ImagesEEG,001,102624,
AFNE01.JPG,AFNE01.JPG,AFNE01.JPG,AFNE01.JPG,AFNE01.JPG,AFNE01.JPG,,,,,2,8,28,0,,,,,,,,,,,,,,,,,,,AMSA12.jpg,AMSA16.jpg,AMNE06.jpg,AMNE15.jpg,AMSA16.jpg,MS,2,num_6,32,num_8,1.08344029984,,,2017_Dec_13_1146,60.0038106272,FEMA4ImagesEEG,001,102624,
AFNE01.JPG,AFNE01.JPG,AFNE01.JPG,AFNE01.JPG,AFNE01.JPG,AFNE01.JPG,,,,,2,9,29,4,,,,,,,,,,,,,,,,,,,AMNE08.jpg,AMSA10.jpg,AMSA04.jpg,AMNE09.jpg,AMNE08.jpg,MN,1,num_8,48,None,,,,2017_Dec_13_1146,60.0038106272,FEMA4ImagesEEG,001,102624,
AFNE01.JPG,AFNE01.JPG,AFNE01.JPG,AFNE01.JPG,AFNE01.JPG,AFNE01.JPG,,,,,3,0,30,4,,,,,,,,,,,,,,,,,,,AMNE06.jpg,AMSA07.jpg,AMSA16.jpg,AMNE07.jpg,AMNE07.jpg,MN,1,num_4,16,num_4,0.550163288135,,,2017_Dec_13_1146,60.0038106272,FEMA4ImagesEEG,001,102624,
AFNE01.JPG,AFNE01.JPG,AFNE01.JPG,AFNE01.JPG,AFNE01.JPG,AFNE01.JPG,,,,,3,1,31,6,,,,,,,,,,,,,,,,,,,AMNE14.jpg,AMNE13.jpg,AMSA09.jpg,AMSA04.jpg,AMSA09.jpg,MS,2,num_2,32,num_6,1.05017066537,,,2017_Dec_13_1146,60.0038106272,FEMA4ImagesEEG,001,102624,
AFNE01.JPG,AFNE01.JPG,AFNE01.JPG,AFNE01.JPG,AFNE01.JPG,AFNE01.JPG,,,,,3,2,32,2,,,,,,,,,,,,,,,,,,,AMSA01.jpg,AMNE18.jpg,AMNE08.jpg,AMSA19.jpg,AMSA01.jpg,MS,2,num_8,32,num_4,1.25014096498,,,2017_Dec_13_1146,60.0038106272,FEMA4ImagesEEG,001,102624,
AFNE01.JPG,AFNE01.JPG,AFNE01.JPG,AFNE01.JPG,AFNE01.JPG,AFNE01.JPG,,,,,3,3,33,8,,,,,,,,,,,,,,,,,,,AMNE17.jpg,AMSA12.jpg,AMNE18.jpg,AMSA06.jpg,AMNE18.jpg,MN,1,num_2,32,num_8,1.13340120181,,,2017_Dec_13_1146,60.0038106272,FEMA4ImagesEEG,001,102624,
AFNE01.JPG,AFNE01.JPG,AFNE01.JPG,AFNE01.JPG,AFNE01.JPG,AFNE01.JPG,,,,,3,4,34,5,,,,,,,,,,,,,,,,,,,AMSA11.jpg,AMNE14.jpg,AMSA13.jpg,AMNE05.jpg,AMNE14.jpg,MN,1,num_6,16,num_6,0.750199980801,,,2017_Dec_13_1146,60.0038106272,FEMA4ImagesEEG,001,102624,
AFNE01.JPG,AFNE01.JPG,AFNE01.JPG,AFNE01.JPG,AFNE01.JPG,AFNE01.JPG,,,,,3,5,35,3,,,,,,,,,,,,,,,,,,,AMNE03.jpg,AMNE17.jpg,AMSA18.jpg,AMSA12.jpg,AMNE17.jpg,MN,1,num_6,32,num_8,1.05014628917,,,2017_Dec_13_1146,60.0038106272,FEMA4ImagesEEG,001,102624,
AFNE01.JPG,AFNE01.JPG,AFNE01.JPG,AFNE01.JPG,AFNE01.JPG,AFNE01.JPG,,,,,3,6,36,1,,,,,,,,,,,,,,,,,,,AMNE17.jpg,AMSA15.jpg,AMNE02.jpg,AMSA20.jpg,AMNE17.jpg,MN,1,num_8,16,num_8,0.783432088792,,,2017_Dec_13_1146,60.0038106272,FEMA4ImagesEEG,001,102624,
AFNE01.JPG,AFNE01.JPG,AFNE01.JPG,AFNE01.JPG,AFNE01.JPG,AFNE01.JPG,,,,,3,7,37,0,,,,,,,,,,,,,,,,,,,AMSA11.jpg,AMSA15.jpg,AMNE07.jpg,AMNE20.jpg,AMNE07.jpg,MN,1,num_2,32,num_6,0.866816900903,,,2017_Dec_13_1146,60.0038106272,FEMA4ImagesEEG,001,102624,
AFNE01.JPG,AFNE01.JPG,AFNE01.JPG,AFNE01.JPG,AFNE01.JPG,AFNE01.JPG,,,,,3,8,38,7,,,,,,,,,,,,,,,,,,,AMNE11.jpg,AMNE14.jpg,AMSA01.jpg,AMSA12.jpg,AMSA01.jpg,MS,2,num_2,32,num_8,4.81649260153,,,2017_Dec_13_1146,60.0038106272,FEMA4ImagesEEG,001,102624,
AFNE01.JPG,AFNE01.JPG,AFNE01.JPG,AFNE01.JPG,AFNE01.JPG,AFNE01.JPG,,,,,3,9,39,9,,,,,,,,,,,,,,,,,,,AMSA11.jpg,AMSA19.jpg,AMNE02.jpg,AMNE01.jpg,AMSA19.jpg,MS,2,num_6,16,num_6,0.966416040901,,,2017_Dec_13_1146,60.0038106272,FEMA4ImagesEEG,001,102624,
AFNE01.JPG,AFNE01.JPG,AFNE01.JPG,AFNE01.JPG,AFNE01.JPG,AFNE01.JPG,,,,,4,0,40,9,,,,,,,,,,,,,,,,,,,AMNE12.jpg,AMNE07.jpg,AMSA04.jpg,AMSA16.jpg,AMSA16.jpg,MS,2,num_4,16,num_4,0.783444277011,,,2017_Dec_13_1146,60.0038106272,FEMA4ImagesEEG,001,102624,
AFNE01.JPG,AFNE01.JPG,AFNE01.JPG,AFNE01.JPG,AFNE01.JPG,AFNE01.JPG,,,,,4,1,41,7,,,,,,,,,,,,,,,,,,,AMSA06.jpg,AMSA18.jpg,AMNE10.jpg,AMNE16.jpg,AMSA06.jpg,MS,2,num_8,32,num_4,0.950123773189,,,2017_Dec_13_1146,60.0038106272,FEMA4ImagesEEG,001,102624,
AFNE01.JPG,AFNE01.JPG,AFNE01.JPG,AFNE01.JPG,AFNE01.JPG,AFNE01.JPG,,,,,4,2,42,4,,,,,,,,,,,,,,,,,,,AMNE10.jpg,AMSA05.jpg,AMSA08.jpg,AMNE01.jpg,AMNE10.jpg,MN,1,num_8,16,num_8,1.78344042809,,,2017_Dec_13_1146,60.0038106272,FEMA4ImagesEEG,001,102624,
AFNE01.JPG,AFNE01.JPG,AFNE01.JPG,AFNE01.JPG,AFNE01.JPG,AFNE01.JPG,,,,,4,3,43,6,,,,,,,,,,,,,,,,,,,AMSA01.jpg,AMNE15.jpg,AMNE05.jpg,AMSA04.jpg,AMSA01.jpg,MS,2,num_8,16,num_8,0.533581393072,,,2017_Dec_13_1146,60.0038106272,FEMA4ImagesEEG,001,102624,
AFNE01.JPG,AFNE01.JPG,AFNE01.JPG,AFNE01.JPG,AFNE01.JPG,AFNE01.JPG,,,,,4,4,44,8,,,,,,,,,,,,,,,,,,,AMNE14.jpg,AMNE10.jpg,AMSA04.jpg,AMSA03.jpg,AMNE10.jpg,MN,1,num_6,16,num_6,0.833504287293,,,2017_Dec_13_1146,60.0038106272,FEMA4ImagesEEG,001,102624,
AFNE01.JPG,AFNE01.JPG,AFNE01.JPG,AFNE01.JPG,AFNE01.JPG,AFNE01.JPG,,,,,4,5,45,1,,,,,,,,,,,,,,,,,,,AMSA16.jpg,AMSA19.jpg,AMNE18.jpg,AMNE17.jpg,AMNE17.jpg,MN,1,num_4,32,num_8,0.816839320585,,,2017_Dec_13_1146,60.0038106272,FEMA4ImagesEEG,001,102624,
AFNE01.JPG,AFNE01.JPG,AFNE01.JPG,AFNE01.JPG,AFNE01.JPG,AFNE01.JPG,,,,,4,6,46,0,,,,,,,,,,,,,,,,,,,AMNE16.jpg,AMSA20.jpg,AMSA16.jpg,AMNE08.jpg,AMNE08.jpg,MN,1,num_4,16,num_4,1.83324320568,,,2017_Dec_13_1146,60.0038106272,FEMA4ImagesEEG,001,102624,
AFNE01.JPG,AFNE01.JPG,AFNE01.JPG,AFNE01.JPG,AFNE01.JPG,AFNE01.JPG,,,,,4,7,47,2,,,,,,,,,,,,,,,,,,,AMSA17.jpg,AMSA01.jpg,AMNE12.jpg,AMNE10.jpg,AMNE10.jpg,MN,1,num_4,32,num_6,0.783528310712,,,2017_Dec_13_1146,60.0038106272,FEMA4ImagesEEG,001,102624,
AFNE01.JPG,AFNE01.JPG,AFNE01.JPG,AFNE01.JPG,AFNE01.JPG,AFNE01.JPG,,,,,4,8,48,3,,,,,,,,,,,,,,,,,,,AMSA12.jpg,AMSA17.jpg,AMNE17.jpg,AMNE02.jpg,AMSA12.jpg,MS,2,num_8,16,num_8,0.766593602253,,,2017_Dec_13_1146,60.0038106272,FEMA4ImagesEEG,001,102624,
AFNE01.JPG,AFNE01.JPG,AFNE01.JPG,AFNE01.JPG,AFNE01.JPG,AFNE01.JPG,,,,,4,9,49,5,,,,,,,,,,,,,,,,,,,AMNE07.jpg,AMSA04.jpg,AMNE10.jpg,AMSA07.jpg,AMSA04.jpg,MS,2,num_6,32,num_2,2.94998328947,,,2017_Dec_13_1146,60.0038106272,FEMA4ImagesEEG,001,102624,
AFNE01.JPG,AFNE01.JPG,AFNE01.JPG,AFNE01.JPG,AFNE01.JPG,AFNE01.JPG,,,,,5,0,50,1,,,,,,,,,,,,,,,,,,,AMNE01.jpg,AMSA07.jpg,AMNE09.jpg,AMSA03.jpg,AMNE09.jpg,MN,1,num_2,32,num_8,0.950091699371,,,2017_Dec_13_1146,60.0038106272,FEMA4ImagesEEG,001,102624,
AFNE01.JPG,AFNE01.JPG,AFNE01.JPG,AFNE01.JPG,AFNE01.JPG,AFNE01.JPG,,,,,5,1,51,8,,,,,,,,,,,,,,,,,,,AMSA19.jpg,AMSA12.jpg,AMNE07.jpg,AMNE12.jpg,AMNE07.jpg,MN,1,num_2,32,num_4,1.35011889809,,,2017_Dec_13_1146,60.0038106272,FEMA4ImagesEEG,001,102624,
AFNE01.JPG,AFNE01.JPG,AFNE01.JPG,AFNE01.JPG,AFNE01.JPG,AFNE01.JPG,,,,,5,2,52,2,,,,,,,,,,,,,,,,,,,AMSA13.jpg,AMNE14.jpg,AMNE02.jpg,AMSA02.jpg,AMSA13.jpg,MS,2,num_8,32,num_2,2.01669575763,,,2017_Dec_13_1146,60.0038106272,FEMA4ImagesEEG,001,102624,
AFNE01.JPG,AFNE01.JPG,AFNE01.JPG,AFNE01.JPG,AFNE01.JPG,AFNE01.JPG,,,,,5,3,53,3,,,,,,,,,,,,,,,,,,,AMSA09.jpg,AMNE19.jpg,AMNE12.jpg,AMSA11.jpg,AMNE12.jpg,MN,1,num_2,32,num_8,0.850124991965,,,2017_Dec_13_1146,60.0038106272,FEMA4ImagesEEG,001,102624,
AFNE01.JPG,AFNE01.JPG,AFNE01.JPG,AFNE01.JPG,AFNE01.JPG,AFNE01.JPG,,,,,5,4,54,0,,,,,,,,,,,,,,,,,,,AMSA20.jpg,AMNE04.jpg,AMSA11.jpg,AMNE11.jpg,AMSA11.jpg,MS,2,num_2,32,num_6,1.48350117612,,,2017_Dec_13_1146,60.0038106272,FEMA4ImagesEEG,001,102624,
AFNE01.JPG,AFNE01.JPG,AFNE01.JPG,AFNE01.JPG,AFNE01.JPG,AFNE01.JPG,,,,,5,5,55,7,,,,,,,,,,,,,,,,,,,AMSA13.jpg,AMNE18.jpg,AMNE05.jpg,AMSA02.jpg,AMNE05.jpg,MN,1,num_2,32,num_8,2.3333166549,,,2017_Dec_13_1146,60.0038106272,FEMA4ImagesEEG,001,102624,
AFNE01.JPG,AFNE01.JPG,AFNE01.JPG,AFNE01.JPG,AFNE01.JPG,AFNE01.JPG,,,,,5,6,56,5,,,,,,,,,,,,,,,,,,,AMNE05.jpg,AMSA17.jpg,AMNE03.jpg,AMSA13.jpg,AMNE05.jpg,MN,1,num_8,32,num_2,0.516805771273,,,2017_Dec_13_1146,60.0038106272,FEMA4ImagesEEG,001,102624,
AFNE01.JPG,AFNE01.JPG,AFNE01.JPG,AFNE01.JPG,AFNE01.JPG,AFNE01.JPG,,,,,5,7,57,4,,,,,,,,,,,,,,,,,,,AMNE09.jpg,AMSA07.jpg,AMNE14.jpg,AMSA06.jpg,AMNE09.jpg,MN,1,num_8,32,num_4,0.316786398645,,,2017_Dec_13_1146,60.0038106272,FEMA4ImagesEEG,001,102624,
AFNE01.JPG,AFNE01.JPG,AFNE01.JPG,AFNE01.JPG,AFNE01.JPG,AFNE01.JPG,,,,,5,8,58,9,,,,,,,,,,,,,,,,,,,AMNE19.jpg,AMSA02.jpg,AMSA17.jpg,AMNE09.jpg,AMSA02.jpg,MS,2,num_6,16,num_6,0.416798971593,,,2017_Dec_13_1146,60.0038106272,FEMA4ImagesEEG,001,102624,
AFNE01.JPG,AFNE01.JPG,AFNE01.JPG,AFNE01.JPG,AFNE01.JPG,AFNE01.JPG,,,,,5,9,59,6,,,,,,,,,,,,,,,,,,,AMNE07.jpg,AMSA20.jpg,AMSA07.jpg,AMNE18.jpg,AMNE07.jpg,MN,1,num_8,16,num_8,0.633498064941,,,2017_Dec_13_1146,60.0038106272,FEMA4ImagesEEG,001,102624,
,,,,,,,,,,,,,,,,,,,,,,,,,,,,,,,,,,,,,,,,,,,space,23.8649101064,2017_Dec_13_1146,60.0038106272,FEMA4ImagesEEG,001,102624,
AFNE01.JPG,AFNE01.JPG,AFNE01.JPG,AFNE01.JPG,AFNE01.JPG,AFNE01.JPG,,,,,,,,,0,0,0,3,,,,,,,,,,,,,,,AFNE13.jpg,AFNE08.jpg,AFSA08.jpg,AFSA09.jpg,AFSA09.jpg,FS,4,num_4,16,num_4,0.533557979157,,,2017_Dec_13_1146,60.0038106272,FEMA4ImagesEEG,001,102624,
AFNE01.JPG,AFNE01.JPG,AFNE01.JPG,AFNE01.JPG,AFNE01.JPG,AFNE01.JPG,,,,,,,,,0,1,1,5,,,,,,,,,,,,,,,AFNE08.jpg,AFNE18.jpg,AFSA19.jpg,AFSA06.jpg,AFNE18.jpg,FN,3,num_6,16,num_6,0.750155077316,,,2017_Dec_13_1146,60.0038106272,FEMA4ImagesEEG,001,102624,
AFNE01.JPG,AFNE01.JPG,AFNE01.JPG,AFNE01.JPG,AFNE01.JPG,AFNE01.JPG,,,,,,,,,0,2,2,7,,,,,,,,,,,,,,,AFSA20.jpg,AFNE10.jpg,AFNE17.jpg,AFSA07.jpg,AFNE10.jpg,FN,3,num_6,16,num_6,0.733448735205,,,2017_Dec_13_1146,60.0038106272,FEMA4ImagesEEG,001,102624,
AFNE01.JPG,AFNE01.JPG,AFNE01.JPG,AFNE01.JPG,AFNE01.JPG,AFNE01.JPG,,,,,,,,,0,3,3,0,,,,,,,,,,,,,,,AFSA01.jpg,AFSA16.jpg,AFNE04.jpg,AFNE20.jpg,AFNE20.jpg,FN,3,num_4,16,num_4,0.633485876955,,,2017_Dec_13_1146,60.0038106272,FEMA4ImagesEEG,001,102624,
AFNE01.JPG,AFNE01.JPG,AFNE01.JPG,AFNE01.JPG,AFNE01.JPG,AFNE01.JPG,,,,,,,,,0,4,4,6,,,,,,,,,,,,,,,AFNE08.jpg,AFNE19.jpg,AFSA12.jpg,AFSA11.jpg,AFSA12.jpg,FS,4,num_2,16,num_2,1.61668716185,,,2017_Dec_13_1146,60.0038106272,FEMA4ImagesEEG,001,102624,
AFNE01.JPG,AFNE01.JPG,AFNE01.JPG,AFNE01.JPG,AFNE01.JPG,AFNE01.JPG,,,,,,,,,0,5,5,9,,,,,,,,,,,,,,,AFSA12.jpg,AFSA13.jpg,AFNE12.jpg,AFNE19.jpg,AFSA13.jpg,FS,4,num_6,16,num_6,2.58339411346,,,2017_Dec_13_1146,60.0038106272,FEMA4ImagesEEG,001,102624,
AFNE01.JPG,AFNE01.JPG,AFNE01.JPG,AFNE01.JPG,AFNE01.JPG,AFNE01.JPG,,,,,,,,,0,6,6,1,,,,,,,,,,,,,,,AFNE06.jpg,AFSA14.jpg,AFSA12.jpg,AFNE04.jpg,AFNE04.jpg,FN,3,num_4,16,num_4,0.633440011181,,,2017_Dec_13_1146,60.0038106272,FEMA4ImagesEEG,001,102624,
AFNE01.JPG,AFNE01.JPG,AFNE01.JPG,AFNE01.JPG,AFNE01.JPG,AFNE01.JPG,,,,,,,,,0,7,7,8,,,,,,,,,,,,,,,AFSA16.jpg,AFNE15.jpg,AFNE02.jpg,AFSA09.jpg,AFSA09.jpg,FS,4,num_4,32,num_8,1.00012220163,,,2017_Dec_13_1146,60.0038106272,FEMA4ImagesEEG,001,102624,
AFNE01.JPG,AFNE01.JPG,AFNE01.JPG,AFNE01.JPG,AFNE01.JPG,AFNE01.JPG,,,,,,,,,0,8,8,2,,,,,,,,,,,,,,,AFSA13.jpg,AFSA15.jpg,AFNE04.jpg,AFNE08.jpg,AFSA13.jpg,FS,4,num_8,16,num_8,0.983397577424,,,2017_Dec_13_1146,60.0038106272,FEMA4ImagesEEG,001,102624,
AFNE01.JPG,AFNE01.JPG,AFNE01.JPG,AFNE01.JPG,AFNE01.JPG,AFNE01.JPG,,,,,,,,,0,9,9,4,,,,,,,,,,,,,,,AFNE08.jpg,AFSA17.jpg,AFNE13.jpg,AFSA08.jpg,AFNE08.jpg,FN,3,num_8,32,num_2,1.46695969393,,,2017_Dec_13_1146,60.0038106272,FEMA4ImagesEEG,001,102624,
AFNE01.JPG,AFNE01.JPG,AFNE01.JPG,AFNE01.JPG,AFNE01.JPG,AFNE01.JPG,,,,,,,,,1,0,10,0,,,,,,,,,,,,,,,AFNE15.jpg,AFSA20.jpg,AFSA04.jpg,AFNE05.jpg,AFSA04.jpg,FS,4,num_2,16,num_2,1.58338064235,,,2017_Dec_13_1146,60.0038106272,FEMA4ImagesEEG,001,102624,
AFNE01.JPG,AFNE01.JPG,AFNE01.JPG,AFNE01.JPG,AFNE01.JPG,AFNE01.JPG,,,,,,,,,1,1,11,5,,,,,,,,,,,,,,,AFSA18.jpg,AFNE08.jpg,AFNE16.jpg,AFSA16.jpg,AFNE16.jpg,FN,3,num_2,32,num_8,1.13344995398,,,2017_Dec_13_1146,60.0038106272,FEMA4ImagesEEG,001,102624,
AFNE01.JPG,AFNE01.JPG,AFNE01.JPG,AFNE01.JPG,AFNE01.JPG,AFNE01.JPG,,,,,,,,,1,2,12,3,,,,,,,,,,,,,,,AFNE08.jpg,AFSA16.jpg,AFSA20.jpg,AFNE12.jpg,AFNE12.jpg,FN,3,num_4,32,num_8,2.26675012312,,,2017_Dec_13_1146,60.0038106272,FEMA4ImagesEEG,001,102624,
AFNE01.JPG,AFNE01.JPG,AFNE01.JPG,AFNE01.JPG,AFNE01.JPG,AFNE01.JPG,,,,,,,,,1,3,13,4,,,,,,,,,,,,,,,AFSA08.jpg,AFNE08.jpg,AFSA18.jpg,AFNE09.jpg,AFSA18.jpg,FS,4,num_2,32,num_8,0.800135865109,,,2017_Dec_13_1146,60.0038106272,FEMA4ImagesEEG,001,102624,
AFNE01.JPG,AFNE01.JPG,AFNE01.JPG,AFNE01.JPG,AFNE01.JPG,AFNE01.JPG,,,,,,,,,1,4,14,9,,,,,,,,,,,,,,,AFNE05.jpg,AFSA09.jpg,AFSA07.jpg,AFNE10.jpg,AFSA09.jpg,FS,4,num_6,16,num_6,1.86670881184,,,2017_Dec_13_1146,60.0038106272,FEMA4ImagesEEG,001,102624,
AFNE01.JPG,AFNE01.JPG,AFNE01.JPG,AFNE01.JPG,AFNE01.JPG,AFNE01.JPG,,,,,,,,,1,5,15,6,,,,,,,,,,,,,,,AFNE16.jpg,AFNE03.jpg,AFSA05.jpg,AFSA20.jpg,AFSA05.jpg,FS,4,num_2,16,num_2,1.25007842085,,,2017_Dec_13_1146,60.0038106272,FEMA4ImagesEEG,001,102624,
AFNE01.JPG,AFNE01.JPG,AFNE01.JPG,AFNE01.JPG,AFNE01.JPG,AFNE01.JPG,,,,,,,,,1,6,16,2,,,,,,,,,,,,,,,AFNE05.jpg,AFSA04.jpg,AFNE03.jpg,AFSA16.jpg,AFNE03.jpg,FN,3,num_2,32,num_8,2.33303729095,,,2017_Dec_13_1146,60.0038106272,FEMA4ImagesEEG,001,102624,
AFNE01.JPG,AFNE01.JPG,AFNE01.JPG,AFNE01.JPG,AFNE01.JPG,AFNE01.JPG,,,,,,,,,1,7,17,7,,,,,,,,,,,,,,,AFNE04.jpg,AFNE11.jpg,AFSA11.jpg,AFSA03.jpg,AFSA03.jpg,FS,4,num_4,16,num_4,0.583587519126,,,2017_Dec_13_1146,60.0038106272,FEMA4ImagesEEG,001,102624,
AFNE01.JPG,AFNE01.JPG,AFNE01.JPG,AFNE01.JPG,AFNE01.JPG,AFNE01.JPG,,,,,,,,,1,8,18,8,,,,,,,,,,,,,,,AFSA07.jpg,AFNE10.jpg,AFSA01.jpg,AFNE04.jpg,AFSA01.jpg,FS,4,num_2,32,num_6,1.53343706043,,,2017_Dec_13_1146,60.0038106272,FEMA4ImagesEEG,001,102624,
AFNE01.JPG,AFNE01.JPG,AFNE01.JPG,AFNE01.JPG,AFNE01.JPG,AFNE01.JPG,,,,,,,,,1,9,19,1,,,,,,,,,,,,,,,AFNE18.jpg,AFSA20.jpg,AFNE11.jpg,AFSA09.jpg,AFSA09.jpg,FS,4,num_4,32,num_2,2.61647515325,,,2017_Dec_13_1146,60.0038106272,FEMA4ImagesEEG,001,102624,
AFNE01.JPG,AFNE01.JPG,AFNE01.JPG,AFNE01.JPG,AFNE01.JPG,AFNE01.JPG,,,,,,,,,2,0,20,9,,,,,,,,,,,,,,,AFNE20.jpg,AFNE10.jpg,AFSA09.jpg,AFSA16.jpg,AFSA16.jpg,FS,4,num_4,16,num_4,0.733509034151,,,2017_Dec_13_1146,60.0038106272,FEMA4ImagesEEG,001,102624,
AFNE01.JPG,AFNE01.JPG,AFNE01.JPG,AFNE01.JPG,AFNE01.JPG,AFNE01.JPG,,,,,,,,,2,1,21,2,,,,,,,,,,,,,,,AFNE18.jpg,AFNE06.jpg,AFSA06.jpg,AFSA20.jpg,AFSA06.jpg,FS,4,num_2,32,num_8,1.16673722933,,,2017_Dec_13_1146,60.0038106272,FEMA4ImagesEEG,001,102624,
AFNE01.JPG,AFNE01.JPG,AFNE01.JPG,AFNE01.JPG,AFNE01.JPG,AFNE01.JPG,,,,,,,,,2,2,22,5,,,,,,,,,,,,,,,AFNE02.jpg,AFNE08.jpg,AFSA06.jpg,AFSA12.jpg,AFNE02.jpg,FN,3,num_8,16,num_8,0.733502619434,,,2017_Dec_13_1146,60.0038106272,FEMA4ImagesEEG,001,102624,
AFNE01.JPG,AFNE01.JPG,AFNE01.JPG,AFNE01.JPG,AFNE01.JPG,AFNE01.JPG,,,,,,,,,2,3,23,1,,,,,,,,,,,,,,,AFSA05.jpg,AFNE04.jpg,AFNE13.jpg,AFSA07.jpg,AFNE04.jpg,FN,3,num_6,32,num_2,2.26682549668,,,2017_Dec_13_1146,60.0038106272,FEMA4ImagesEEG,001,102624,
AFNE01.JPG,AFNE01.JPG,AFNE01.JPG,AFNE01.JPG,AFNE01.JPG,AFNE01.JPG,,,,,,,,,2,4,24,8,,,,,,,,,,,,,,,AFSA18.jpg,AFNE08.jpg,AFSA02.jpg,AFNE18.jpg,AFSA18.jpg,FS,4,num_8,32,num_2,0.883483791957,,,2017_Dec_13_1146,60.0038106272,FEMA4ImagesEEG,001,102624,
AFNE01.JPG,AFNE01.JPG,AFNE01.JPG,AFNE01.JPG,AFNE01.JPG,AFNE01.JPG,,,,,,,,,2,5,25,7,,,,,,,,,,,,,,,AFSA09.jpg,AFNE17.jpg,AFSA06.jpg,AFNE02.jpg,AFNE17.jpg,FN,3,num_6,32,num_8,0.416791915428,,,2017_Dec_13_1146,60.0038106272,FEMA4ImagesEEG,001,102624,
AFNE01.JPG,AFNE01.JPG,AFNE01.JPG,AFNE01.JPG,AFNE01.JPG,AFNE01.JPG,,,,,,,,,2,6,26,3,,,,,,,,,,,,,,,AFSA16.jpg,AFNE13.jpg,AFNE17.jpg,AFSA15.jpg,AFSA15.jpg,FS,4,num_4,16,num_4,0.883500470547,,,2017_Dec_13_1146,60.0038106272,FEMA4ImagesEEG,001,102624,
AFNE01.JPG,AFNE01.JPG,AFNE01.JPG,AFNE01.JPG,AFNE01.JPG,AFNE01.JPG,,,,,,,,,2,7,27,6,,,,,,,,,,,,,,,AFSA07.jpg,AFSA13.jpg,AFNE03.jpg,AFNE04.jpg,AFNE04.jpg,FN,3,num_4,32,num_6,0.500236384571,,,2017_Dec_13_1146,60.0038106272,FEMA4ImagesEEG,001,102624,
AFNE01.JPG,AFNE01.JPG,AFNE01.JPG,AFNE01.JPG,AFNE01.JPG,AFNE01.JPG,,,,,,,,,2,8,28,4,,,,,,,,,,,,,,,AFNE11.jpg,AFSA20.jpg,AFSA14.jpg,AFNE19.jpg,AFNE19.jpg,FN,3,num_4,32,num_2,1.13342525717,,,2017_Dec_13_1146,60.0038106272,FEMA4ImagesEEG,001,102624,
AFNE01.JPG,AFNE01.JPG,AFNE01.JPG,AFNE01.JPG,AFNE01.JPG,AFNE01.JPG,,,,,,,,,2,9,29,0,,,,,,,,,,,,,,,AFSA16.jpg,AFNE16.jpg,AFNE06.jpg,AFSA18.jpg,AFNE06.jpg,FN,3,num_2,32,num_6,0.933490559692,,,2017_Dec_13_1146,60.0038106272,FEMA4ImagesEEG,001,102624,
AFNE01.JPG,AFNE01.JPG,AFNE01.JPG,AFNE01.JPG,AFNE01.JPG,AFNE01.JPG,,,,,,,,,3,0,30,9,,,,,,,,,,,,,,,AFSA12.jpg,AFNE12.jpg,AFSA11.jpg,AFNE08.jpg,AFNE08.jpg,FN,3,num_4,16,num_4,1.86670528352,,,2017_Dec_13_1146,60.0038106272,FEMA4ImagesEEG,001,102624,
AFNE01.JPG,AFNE01.JPG,AFNE01.JPG,AFNE01.JPG,AFNE01.JPG,AFNE01.JPG,,,,,,,,,3,1,31,6,,,,,,,,,,,,,,,AFSA14.jpg,AFNE05.jpg,AFSA05.jpg,AFNE01.jpg,AFSA05.jpg,FS,4,num_2,32,num_4,0.916707240278,,,2017_Dec_13_1146,60.0038106272,FEMA4ImagesEEG,001,102624,
AFNE01.JPG,AFNE01.JPG,AFNE01.JPG,AFNE01.JPG,AFNE01.JPG,AFNE01.JPG,,,,,,,,,3,2,32,5,,,,,,,,,,,,,,,AFSA03.jpg,AFSA20.jpg,AFNE03.jpg,AFNE02.jpg,AFNE03.jpg,FN,3,num_2,16,num_2,0.616784024984,,,2017_Dec_13_1146,60.0038106272,FEMA4ImagesEEG,001,102624,
AFNE01.JPG,AFNE01.JPG,AFNE01.JPG,AFNE01.JPG,AFNE01.JPG,AFNE01.JPG,,,,,,,,,3,3,33,0,,,,,,,,,,,,,,,AFNE06.jpg,AFSA20.jpg,AFNE10.jpg,AFSA08.jpg,AFNE06.jpg,FN,3,num_8,16,num_8,0.516747075832,,,2017_Dec_13_1146,60.0038106272,FEMA4ImagesEEG,001,102624,
AFNE01.JPG,AFNE01.JPG,AFNE01.JPG,AFNE01.JPG,AFNE01.JPG,AFNE01.JPG,,,,,,,,,3,4,34,3,,,,,,,,,,,,,,,AFNE06.jpg,AFNE13.jpg,AFSA06.jpg,AFSA13.jpg,AFSA13.jpg,FS,4,num_4,32,num_2,0.683446778916,,,2017_Dec_13_1146,60.0038106272,FEMA4ImagesEEG,001,102624,
AFNE01.JPG,AFNE01.JPG,AFNE01.JPG,AFNE01.JPG,AFNE01.JPG,AFNE01.JPG,,,,,,,,,3,5,35,8,,,,,,,,,,,,,,,AFSA18.jpg,AFNE12.jpg,AFSA07.jpg,AFNE05.jpg,AFNE05.jpg,FN,3,num_4,16,num_4,0.683560641017,,,2017_Dec_13_1146,60.0038106272,FEMA4ImagesEEG,001,102624,
AFNE01.JPG,AFNE01.JPG,AFNE01.JPG,AFNE01.JPG,AFNE01.JPG,AFNE01.JPG,,,,,,,,,3,6,36,1,,,,,,,,,,,,,,,AFSA14.jpg,AFNE17.jpg,AFSA01.jpg,AFNE05.jpg,AFSA01.jpg,FS,4,num_2,32,num_6,0.700119443471,,,2017_Dec_13_1146,60.0038106272,FEMA4ImagesEEG,001,102624,
AFNE01.JPG,AFNE01.JPG,AFNE01.JPG,AFNE01.JPG,AFNE01.JPG,AFNE01.JPG,,,,,,,,,3,7,37,2,,,,,,,,,,,,,,,AFNE06.jpg,AFSA07.jpg,AFNE05.jpg,AFSA17.jpg,AFNE05.jpg,FN,3,num_2,32,num_8,0.733467979589,,,2017_Dec_13_1146,60.0038106272,FEMA4ImagesEEG,001,102624,
AFNE01.JPG,AFNE01.JPG,AFNE01.JPG,AFNE01.JPG,AFNE01.JPG,AFNE01.JPG,,,,,,,,,3,8,38,7,,,,,,,,,,,,,,,AFNE11.jpg,AFNE19.jpg,AFSA08.jpg,AFSA12.jpg,AFNE19.jpg,FN,3,num_6,32,num_8,1.63334058202,,,2017_Dec_13_1146,60.0038106272,FEMA4ImagesEEG,001,102624,
AFNE01.JPG,AFNE01.JPG,AFNE01.JPG,AFNE01.JPG,AFNE01.JPG,AFNE01.JPG,,,,,,,,,3,9,39,4,,,,,,,,,,,,,,,AFSA10.jpg,AFNE05.jpg,AFSA17.jpg,AFNE17.jpg,AFSA10.jpg,FS,4,num_8,32,num_6,0.550106517272,,,2017_Dec_13_1146,60.0038106272,FEMA4ImagesEEG,001,102624,
AFNE01.JPG,AFNE01.JPG,AFNE01.JPG,AFNE01.JPG,AFNE01.JPG,AFNE01.JPG,,,,,,,,,4,0,40,1,,,,,,,,,,,,,,,AFNE07.jpg,AFSA11.jpg,AFSA10.jpg,AFNE18.jpg,AFNE07.jpg,FN,3,num_8,32,num_2,0.933434430277,,,2017_Dec_13_1146,60.0038106272,FEMA4ImagesEEG,001,102624,
AFNE01.JPG,AFNE01.JPG,AFNE01.JPG,AFNE01.JPG,AFNE01.JPG,AFNE01.JPG,,,,,,,,,4,1,41,8,,,,,,,,,,,,,,,AFNE18.jpg,AFNE13.jpg,AFSA18.jpg,AFSA04.jpg,AFNE13.jpg,FN,3,num_6,32,num_8,0.666793358512,,,2017_Dec_13_1146,60.0038106272,FEMA4ImagesEEG,001,102624,
AFNE01.JPG,AFNE01.JPG,AFNE01.JPG,AFNE01.JPG,AFNE01.JPG,AFNE01.JPG,,,,,,,,,4,2,42,2,,,,,,,,,,,,,,,AFNE20.jpg,AFSA10.jpg,AFNE02.jpg,AFSA08.jpg,AFNE20.jpg,FN,3,num_8,32,num_2,1.73334770254,,,2017_Dec_13_1146,60.0038106272,FEMA4ImagesEEG,001,102624,
AFNE01.JPG,AFNE01.JPG,AFNE01.JPG,AFNE01.JPG,AFNE01.JPG,AFNE01.JPG,,,,,,,,,4,3,43,5,,,,,,,,,,,,,,,AFNE13.jpg,AFSA08.jpg,AFNE04.jpg,AFSA02.jpg,AFSA02.jpg,FS,4,num_4,32,num_8,0.80013137497,,,2017_Dec_13_1146,60.0038106272,FEMA4ImagesEEG,001,102624,
AFNE01.JPG,AFNE01.JPG,AFNE01.JPG,AFNE01.JPG,AFNE01.JPG,AFNE01.JPG,,,,,,,,,4,4,44,3,,,,,,,,,,,,,,,AFSA02.jpg,AFNE12.jpg,AFNE08.jpg,AFSA10.jpg,AFNE08.jpg,FN,3,num_2,32,num_4,0.750123644946,,,2017_Dec_13_1146,60.0038106272,FEMA4ImagesEEG,001,102624,
AFNE01.JPG,AFNE01.JPG,AFNE01.JPG,AFNE01.JPG,AFNE01.JPG,AFNE01.JPG,,,,,,,,,4,5,45,6,,,,,,,,,,,,,,,AFNE08.jpg,AFNE13.jpg,AFSA08.jpg,AFSA20.jpg,AFSA20.jpg,FS,4,num_4,32,num_6,0.750185547629,,,2017_Dec_13_1146,60.0038106272,FEMA4ImagesEEG,001,102624,
AFNE01.JPG,AFNE01.JPG,AFNE01.JPG,AFNE01.JPG,AFNE01.JPG,AFNE01.JPG,,,,,,,,,4,6,46,7,,,,,,,,,,,,,,,AFSA14.jpg,AFSA05.jpg,AFNE11.jpg,AFNE02.jpg,AFSA05.jpg,FS,4,num_6,16,num_6,0.650106260786,,,2017_Dec_13_1146,60.0038106272,FEMA4ImagesEEG,001,102624,
AFNE01.JPG,AFNE01.JPG,AFNE01.JPG,AFNE01.JPG,AFNE01.JPG,AFNE01.JPG,,,,,,,,,4,7,47,0,,,,,,,,,,,,,,,AFNE07.jpg,AFSA07.jpg,AFSA15.jpg,AFNE05.jpg,AFNE07.jpg,FN,3,num_8,32,num_2,0.933427374111,,,2017_Dec_13_1146,60.0038106272,FEMA4ImagesEEG,001,102624,
AFNE01.JPG,AFNE01.JPG,AFNE01.JPG,AFNE01.JPG,AFNE01.JPG,AFNE01.JPG,,,,,,,,,4,8,48,4,,,,,,,,,,,,,,,AFSA03.jpg,AFSA07.jpg,AFNE09.jpg,AFNE15.jpg,AFNE15.jpg,FN,3,num_4,32,num_8,0.88342926628,,,2017_Dec_13_1146,60.0038106272,FEMA4ImagesEEG,001,102624,
AFNE01.JPG,AFNE01.JPG,AFNE01.JPG,AFNE01.JPG,AFNE01.JPG,AFNE01.JPG,,,,,,,,,4,9,49,9,,,,,,,,,,,,,,,AFSA10.jpg,AFNE02.jpg,AFNE13.jpg,AFSA13.jpg,AFNE02.jpg,FN,3,num_6,32,num_4,0.650160465622,,,2017_Dec_13_1146,60.0038106272,FEMA4ImagesEEG,001,102624,
AFNE01.JPG,AFNE01.JPG,AFNE01.JPG,AFNE01.JPG,AFNE01.JPG,AFNE01.JPG,,,,,,,,,5,0,50,2,,,,,,,,,,,,,,,AFNE15.jpg,AFSA15.jpg,AFNE03.jpg,AFSA02.jpg,AFNE15.jpg,FN,3,num_8,32,num_6,0.633302093251,,,2017_Dec_13_1146,60.0038106272,FEMA4ImagesEEG,001,102624,
AFNE01.JPG,AFNE01.JPG,AFNE01.JPG,AFNE01.JPG,AFNE01.JPG,AFNE01.JPG,,,,,,,,,5,1,51,9,,,,,,,,,,,,,,,AFSA11.jpg,AFNE19.jpg,AFSA05.jpg,AFNE20.jpg,AFNE20.jpg,FN,3,num_4,16,num_4,0.38349886681,,,2017_Dec_13_1146,60.0038106272,FEMA4ImagesEEG,001,102624,
AFNE01.JPG,AFNE01.JPG,AFNE01.JPG,AFNE01.JPG,AFNE01.JPG,AFNE01.JPG,,,,,,,,,5,2,52,4,,,,,,,,,,,,,,,AFNE04.jpg,AFSA02.jpg,AFNE03.jpg,AFSA19.jpg,AFNE03.jpg,FN,3,num_2,16,num_2,0.366878162138,,,2017_Dec_13_1146,60.0038106272,FEMA4ImagesEEG,001,102624,
AFNE01.JPG,AFNE01.JPG,AFNE01.JPG,AFNE01.JPG,AFNE01.JPG,AFNE01.JPG,,,,,,,,,5,3,53,8,,,,,,,,,,,,,,,AFNE18.jpg,AFNE17.jpg,AFSA10.jpg,AFSA04.jpg,AFNE18.jpg,FN,3,num_8,16,num_8,0.516816355521,,,2017_Dec_13_1146,60.0038106272,FEMA4ImagesEEG,001,102624,
AFNE01.JPG,AFNE01.JPG,AFNE01.JPG,AFNE01.JPG,AFNE01.JPG,AFNE01.JPG,,,,,,,,,5,4,54,1,,,,,,,,,,,,,,,AFNE03.jpg,AFSA05.jpg,AFNE12.jpg,AFSA02.jpg,AFNE03.jpg,FN,3,num_8,16,num_8,0.600136057474,,,2017_Dec_13_1146,60.0038106272,FEMA4ImagesEEG,001,102624,
AFNE01.JPG,AFNE01.JPG,AFNE01.JPG,AFNE01.JPG,AFNE01.JPG,AFNE01.JPG,,,,,,,,,5,5,55,0,,,,,,,,,,,,,,,AFNE14.jpg,AFSA07.jpg,AFSA02.jpg,AFNE06.jpg,AFSA02.jpg,FS,4,num_2,32,num_8,1.01674675522,,,2017_Dec_13_1146,60.0038106272,FEMA4ImagesEEG,001,102624,
AFNE01.JPG,AFNE01.JPG,AFNE01.JPG,AFNE01.JPG,AFNE01.JPG,AFNE01.JPG,,,,,,,,,5,6,56,7,,,,,,,,,,,,,,,AFNE16.jpg,AFNE03.jpg,AFSA16.jpg,AFSA11.jpg,AFSA16.jpg,FS,4,num_2,32,num_6,0.666803942993,,,2017_Dec_13_1146,60.0038106272,FEMA4ImagesEEG,001,102624,
AFNE01.JPG,AFNE01.JPG,AFNE01.JPG,AFNE01.JPG,AFNE01.JPG,AFNE01.JPG,,,,,,,,,5,7,57,3,,,,,,,,,,,,,,,AFSA19.jpg,AFNE05.jpg,AFNE19.jpg,AFSA15.jpg,AFSA15.jpg,FS,4,num_4,16,num_4,0.500135031063,,,2017_Dec_13_1146,60.0038106272,FEMA4ImagesEEG,001,102624,
AFNE01.JPG,AFNE01.JPG,AFNE01.JPG,AFNE01.JPG,AFNE01.JPG,AFNE01.JPG,,,,,,,,,5,8,58,6,,,,,,,,,,,,,,,AFSA05.jpg,AFSA15.jpg,AFNE10.jpg,AFNE08.jpg,AFNE08.jpg,FN,3,num_4,32,num_2,1.85003871331,,,2017_Dec_13_1146,60.0038106272,FEMA4ImagesEEG,001,102624,
AFNE01.JPG,AFNE01.JPG,AFNE01.JPG,AFNE01.JPG,AFNE01.JPG,AFNE01.JPG,,,,,,,,,5,9,59,5,,,,,,,,,,,,,,,AFSA12.jpg,AFNE13.jpg,AFNE14.jpg,AFSA06.jpg,AFNE13.jpg,FN,3,num_6,32,num_8,0.666797848884,,,2017_Dec_13_1146,60.0038106272,FEMA4ImagesEEG,001,102624,
,,,,,,,,,,,,,,,,,,,,,,,,,,,,,,,,,,,,,,,,,,,space,28.6478918777,2017_Dec_13_1146,60.0038106272,FEMA4ImagesEEG,001,102624,
AFNE01.JPG,AFNE01.JPG,AFNE01.JPG,AFNE01.JPG,AFNE01.JPG,AFNE01.JPG,,,,,,,,,,,,,0,0,0,3,,,,,,,,,,,AMSA12.jpg,AMSA18.jpg,AMNE06.jpg,AMNE17.jpg,AMNE06.jpg,MN,1,num_2,32,num_6,0.783767902758,,,2017_Dec_13_1146,60.0038106272,FEMA4ImagesEEG,001,102624,
AFNE01.JPG,AFNE01.JPG,AFNE01.JPG,AFNE01.JPG,AFNE01.JPG,AFNE01.JPG,,,,,,,,,,,,,0,1,1,0,,,,,,,,,,,AMNE02.jpg,AMNE03.jpg,AMSA16.jpg,AMSA05.jpg,AMSA16.jpg,MS,2,num_2,32,num_4,0.600167169236,,,2017_Dec_13_1146,60.0038106272,FEMA4ImagesEEG,001,102624,
AFNE01.JPG,AFNE01.JPG,AFNE01.JPG,AFNE01.JPG,AFNE01.JPG,AFNE01.JPG,,,,,,,,,,,,,0,2,2,2,,,,,,,,,,,AMSA06.jpg,AMNE14.jpg,AMNE08.jpg,AMSA18.jpg,AMSA18.jpg,MS,2,num_4,16,num_4,0.450103566516,,,2017_Dec_13_1146,60.0038106272,FEMA4ImagesEEG,001,102624,
AFNE01.JPG,AFNE01.JPG,AFNE01.JPG,AFNE01.JPG,AFNE01.JPG,AFNE01.JPG,,,,,,,,,,,,,0,3,3,1,,,,,,,,,,,AMSA02.jpg,AMNE07.jpg,AMSA14.jpg,AMNE12.jpg,AMNE07.jpg,MN,1,num_6,32,num_4,0.950123131741,,,2017_Dec_13_1146,60.0038106272,FEMA4ImagesEEG,001,102624,
AFNE01.JPG,AFNE01.JPG,AFNE01.JPG,AFNE01.JPG,AFNE01.JPG,AFNE01.JPG,,,,,,,,,,,,,0,4,4,7,,,,,,,,,,,AMNE07.jpg,AMNE15.jpg,AMSA03.jpg,AMSA16.jpg,AMNE15.jpg,MN,1,num_6,32,num_2,0.733454187866,,,2017_Dec_13_1146,60.0038106272,FEMA4ImagesEEG,001,102624,
AFNE01.JPG,AFNE01.JPG,AFNE01.JPG,AFNE01.JPG,AFNE01.JPG,AFNE01.JPG,,,,,,,,,,,,,0,5,5,9,,,,,,,,,,,AMSA19.jpg,AMNE08.jpg,AMSA08.jpg,AMNE01.jpg,AMNE01.jpg,MN,1,num_4,32,num_8,1.28340226016,,,2017_Dec_13_1146,60.0038106272,FEMA4ImagesEEG,001,102624,
AFNE01.JPG,AFNE01.JPG,AFNE01.JPG,AFNE01.JPG,AFNE01.JPG,AFNE01.JPG,,,,,,,,,,,,,0,6,6,5,,,,,,,,,,,AMSA08.jpg,AMNE19.jpg,AMSA09.jpg,AMNE04.jpg,AMNE19.jpg,MN,1,num_6,16,num_6,0.683458646061,,,2017_Dec_13_1146,60.0038106272,FEMA4ImagesEEG,001,102624,
AFNE01.JPG,AFNE01.JPG,AFNE01.JPG,AFNE01.JPG,AFNE01.JPG,AFNE01.JPG,,,,,,,,,,,,,0,7,7,6,,,,,,,,,,,AMSA07.jpg,AMNE18.jpg,AMNE10.jpg,AMSA02.jpg,AMSA02.jpg,MS,2,num_4,16,num_4,0.66681645182,,,2017_Dec_13_1146,60.0038106272,FEMA4ImagesEEG,001,102624,
AFNE01.JPG,AFNE01.JPG,AFNE01.JPG,AFNE01.JPG,AFNE01.JPG,AFNE01.JPG,,,,,,,,,,,,,0,8,8,4,,,,,,,,,,,AMSA03.jpg,AMNE03.jpg,AMNE16.jpg,AMSA06.jpg,AMNE03.jpg,MN,1,num_6,16,num_6,0.933449184522,,,2017_Dec_13_1146,60.0038106272,FEMA4ImagesEEG,001,102624,
AFNE01.JPG,AFNE01.JPG,AFNE01.JPG,AFNE01.JPG,AFNE01.JPG,AFNE01.JPG,,,,,,,,,,,,,0,9,9,8,,,,,,,,,,,AMNE19.jpg,AMSA07.jpg,AMSA06.jpg,AMNE12.jpg,AMSA06.jpg,MS,2,num_2,16,num_2,0.866790921194,,,2017_Dec_13_1146,60.0038106272,FEMA4ImagesEEG,001,102624,
AFNE01.JPG,AFNE01.JPG,AFNE01.JPG,AFNE01.JPG,AFNE01.JPG,AFNE01.JPG,,,,,,,,,,,,,1,0,10,3,,,,,,,,,,,AMNE09.jpg,AMSA01.jpg,AMNE14.jpg,AMSA13.jpg,AMSA13.jpg,MS,2,num_4,32,num_8,1.38344466174,,,2017_Dec_13_1146,60.0038106272,FEMA4ImagesEEG,001,102624,
AFNE01.JPG,AFNE01.JPG,AFNE01.JPG,AFNE01.JPG,AFNE01.JPG,AFNE01.JPG,,,,,,,,,,,,,1,1,11,2,,,,,,,,,,,AMSA17.jpg,AMNE17.jpg,AMSA02.jpg,AMNE12.jpg,AMSA17.jpg,MS,2,num_8,32,num_2,1.26679117768,,,2017_Dec_13_1146,60.0038106272,FEMA4ImagesEEG,001,102624,
AFNE01.JPG,AFNE01.JPG,AFNE01.JPG,AFNE01.JPG,AFNE01.JPG,AFNE01.JPG,,,,,,,,,,,,,1,2,12,4,,,,,,,,,,,AMNE20.jpg,AMNE16.jpg,AMSA11.jpg,AMSA06.jpg,AMNE16.jpg,MN,1,num_6,32,num_8,0.933443731861,,,2017_Dec_13_1146,60.0038106272,FEMA4ImagesEEG,001,102624,
AFNE01.JPG,AFNE01.JPG,AFNE01.JPG,AFNE01.JPG,AFNE01.JPG,AFNE01.JPG,,,,,,,,,,,,,1,3,13,9,,,,,,,,,,,AMNE18.jpg,AMNE12.jpg,AMSA18.jpg,AMSA15.jpg,AMNE12.jpg,MN,1,num_6,16,num_6,0.666763850721,,,2017_Dec_13_1146,60.0038106272,FEMA4ImagesEEG,001,102624,
AFNE01.JPG,AFNE01.JPG,AFNE01.JPG,AFNE01.JPG,AFNE01.JPG,AFNE01.JPG,,,,,,,,,,,,,1,4,14,8,,,,,,,,,,,AMNE03.jpg,AMNE06.jpg,AMSA16.jpg,AMSA14.jpg,AMSA16.jpg,MS,2,num_2,16,num_2,1.51673520869,,,2017_Dec_13_1146,60.0038106272,FEMA4ImagesEEG,001,102624,
AFNE01.JPG,AFNE01.JPG,AFNE01.JPG,AFNE01.JPG,AFNE01.JPG,AFNE01.JPG,,,,,,,,,,,,,1,5,15,0,,,,,,,,,,,AMNE09.jpg,AMSA05.jpg,AMSA11.jpg,AMNE02.jpg,AMSA11.jpg,MS,2,num_2,32,num_4,0.583446714794,,,2017_Dec_13_1146,60.0038106272,FEMA4ImagesEEG,001,102624,
AFNE01.JPG,AFNE01.JPG,AFNE01.JPG,AFNE01.JPG,AFNE01.JPG,AFNE01.JPG,,,,,,,,,,,,,1,6,16,5,,,,,,,,,,,AMSA02.jpg,AMNE19.jpg,AMSA17.jpg,AMNE16.jpg,AMNE19.jpg,MN,1,num_6,32,num_8,0.70009763306,,,2017_Dec_13_1146,60.0038106272,FEMA4ImagesEEG,001,102624,
AFNE01.JPG,AFNE01.JPG,AFNE01.JPG,AFNE01.JPG,AFNE01.JPG,AFNE01.JPG,,,,,,,,,,,,,1,7,17,1,,,,,,,,,,,AMSA02.jpg,AMNE18.jpg,AMSA06.jpg,AMNE07.jpg,AMNE18.jpg,MN,1,num_6,16,num_6,0.749852299457,,,2017_Dec_13_1146,60.0038106272,FEMA4ImagesEEG,001,102624,
AFNE01.JPG,AFNE01.JPG,AFNE01.JPG,AFNE01.JPG,AFNE01.JPG,AFNE01.JPG,,,,,,,,,,,,,1,8,18,6,,,,,,,,,,,AMNE17.jpg,AMSA16.jpg,AMSA18.jpg,AMNE19.jpg,AMNE19.jpg,MN,1,num_4,32,num_8,0.600168772973,,,2017_Dec_13_1146,60.0038106272,FEMA4ImagesEEG,001,102624,
AFNE01.JPG,AFNE01.JPG,AFNE01.JPG,AFNE01.JPG,AFNE01.JPG,AFNE01.JPG,,,,,,,,,,,,,1,9,19,7,,,,,,,,,,,AMSA08.jpg,AMNE16.jpg,AMNE10.jpg,AMSA17.jpg,AMSA17.jpg,MS,2,num_4,32,num_6,0.900152928429,,,2017_Dec_13_1146,60.0038106272,FEMA4ImagesEEG,001,102624,
AFNE01.JPG,AFNE01.JPG,AFNE01.JPG,AFNE01.JPG,AFNE01.JPG,AFNE01.JPG,,,,,,,,,,,,,2,0,20,3,,,,,,,,,,,AMNE06.jpg,AMSA20.jpg,AMNE02.jpg,AMSA02.jpg,AMNE02.jpg,MN,1,num_2,16,num_2,1.11669678427,,,2017_Dec_13_1146,60.0038106272,FEMA4ImagesEEG,001,102624,
AFNE01.JPG,AFNE01.JPG,AFNE01.JPG,AFNE01.JPG,AFNE01.JPG,AFNE01.JPG,,,,,,,,,,,,,2,1,21,6,,,,,,,,,,,AMSA08.jpg,AMNE07.jpg,AMSA19.jpg,AMNE05.jpg,AMSA08.jpg,MS,2,num_8,16,num_8,0.500167105114,,,2017_Dec_13_1146,60.0038106272,FEMA4ImagesEEG,001,102624,
AFNE01.JPG,AFNE01.JPG,AFNE01.JPG,AFNE01.JPG,AFNE01.JPG,AFNE01.JPG,,,,,,,,,,,,,2,2,22,7,,,,,,,,,,,AMNE17.jpg,AMSA07.jpg,AMSA03.jpg,AMNE11.jpg,AMNE11.jpg,MN,1,num_4,16,num_4,0.616798458388,,,2017_Dec_13_1146,60.0038106272,FEMA4ImagesEEG,001,102624,
AFNE01.JPG,AFNE01.JPG,AFNE01.JPG,AFNE01.JPG,AFNE01.JPG,AFNE01.JPG,,,,,,,,,,,,,2,3,23,1,,,,,,,,,,,AMSA17.jpg,AMNE12.jpg,AMNE11.jpg,AMSA07.jpg,AMNE12.jpg,MN,1,num_6,16,num_6,0.816790888784,,,2017_Dec_13_1146,60.0038106272,FEMA4ImagesEEG,001,102624,
AFNE01.JPG,AFNE01.JPG,AFNE01.JPG,AFNE01.JPG,AFNE01.JPG,AFNE01.JPG,,,,,,,,,,,,,2,4,24,2,,,,,,,,,,,AMSA19.jpg,AMNE05.jpg,AMSA16.jpg,AMNE04.jpg,AMNE05.jpg,MN,1,num_6,32,num_2,1.24994306872,,,2017_Dec_13_1146,60.0038106272,FEMA4ImagesEEG,001,102624,
AFNE01.JPG,AFNE01.JPG,AFNE01.JPG,AFNE01.JPG,AFNE01.JPG,AFNE01.JPG,,,,,,,,,,,,,2,5,25,9,,,,,,,,,,,AMNE08.jpg,AMNE17.jpg,AMSA09.jpg,AMSA06.jpg,AMSA06.jpg,MS,2,num_4,32,num_2,0.766760707367,,,2017_Dec_13_1146,60.0038106272,FEMA4ImagesEEG,001,102624,
AFNE01.JPG,AFNE01.JPG,AFNE01.JPG,AFNE01.JPG,AFNE01.JPG,AFNE01.JPG,,,,,,,,,,,,,2,6,26,5,,,,,,,,,,,AMSA18.jpg,AMNE14.jpg,AMNE15.jpg,AMSA12.jpg,AMNE14.jpg,MN,1,num_6,32,num_8,1.26671804907,,,2017_Dec_13_1146,60.0038106272,FEMA4ImagesEEG,001,102624,
AFNE01.JPG,AFNE01.JPG,AFNE01.JPG,AFNE01.JPG,AFNE01.JPG,AFNE01.JPG,,,,,,,,,,,,,2,7,27,4,,,,,,,,,,,AMSA19.jpg,AMNE13.jpg,AMNE04.jpg,AMSA05.jpg,AMSA19.jpg,MS,2,num_8,32,num_2,0.566783672431,,,2017_Dec_13_1146,60.0038106272,FEMA4ImagesEEG,001,102624,
AFNE01.JPG,AFNE01.JPG,AFNE01.JPG,AFNE01.JPG,AFNE01.JPG,AFNE01.JPG,,,,,,,,,,,,,2,8,28,8,,,,,,,,,,,AMSA03.jpg,AMNE15.jpg,AMNE14.jpg,AMSA04.jpg,AMNE15.jpg,MN,1,num_6,16,num_6,0.500162294134,,,2017_Dec_13_1146,60.0038106272,FEMA4ImagesEEG,001,102624,
AFNE01.JPG,AFNE01.JPG,AFNE01.JPG,AFNE01.JPG,AFNE01.JPG,AFNE01.JPG,,,,,,,,,,,,,2,9,29,0,,,,,,,,,,,AMNE14.jpg,AMSA20.jpg,AMSA02.jpg,AMNE03.jpg,AMSA20.jpg,MS,2,num_6,16,num_6,0.766756537836,,,2017_Dec_13_1146,60.0038106272,FEMA4ImagesEEG,001,102624,
AFNE01.JPG,AFNE01.JPG,AFNE01.JPG,AFNE01.JPG,AFNE01.JPG,AFNE01.JPG,,,,,,,,,,,,,3,0,30,4,,,,,,,,,,,AMSA19.jpg,AMSA07.jpg,AMNE11.jpg,AMNE14.jpg,AMNE14.jpg,MN,1,num_4,32,num_8,0.716794032138,,,2017_Dec_13_1146,60.0038106272,FEMA4ImagesEEG,001,102624,
AFNE01.JPG,AFNE01.JPG,AFNE01.JPG,AFNE01.JPG,AFNE01.JPG,AFNE01.JPG,,,,,,,,,,,,,3,1,31,8,,,,,,,,,,,AMNE07.jpg,AMSA05.jpg,AMNE14.jpg,AMSA17.jpg,AMNE07.jpg,MN,1,num_8,16,num_8,0.683753405465,,,2017_Dec_13_1146,60.0038106272,FEMA4ImagesEEG,001,102624,
AFNE01.JPG,AFNE01.JPG,AFNE01.JPG,AFNE01.JPG,AFNE01.JPG,AFNE01.JPG,,,,,,,,,,,,,3,2,32,6,,,,,,,,,,,AMNE09.jpg,AMSA16.jpg,AMNE18.jpg,AMSA09.jpg,AMSA09.jpg,MS,2,num_4,16,num_4,0.733331986237,,,2017_Dec_13_1146,60.0038106272,FEMA4ImagesEEG,001,102624,
AFNE01.JPG,AFNE01.JPG,AFNE01.JPG,AFNE01.JPG,AFNE01.JPG,AFNE01.JPG,,,,,,,,,,,,,3,3,33,9,,,,,,,,,,,AMSA14.jpg,AMNE01.jpg,AMNE09.jpg,AMSA17.jpg,AMNE01.jpg,MN,1,num_6,16,num_6,1.10015145293,,,2017_Dec_13_1146,60.0038106272,FEMA4ImagesEEG,001,102624,
AFNE01.JPG,AFNE01.JPG,AFNE01.JPG,AFNE01.JPG,AFNE01.JPG,AFNE01.JPG,,,,,,,,,,,,,3,4,34,1,,,,,,,,,,,AMNE18.jpg,AMSA18.jpg,AMNE04.jpg,AMSA02.jpg,AMSA18.jpg,MS,2,num_6,16,num_6,0.550165533554,,,2017_Dec_13_1146,60.0038106272,FEMA4ImagesEEG,001,102624,
AFNE01.JPG,AFNE01.JPG,AFNE01.JPG,AFNE01.JPG,AFNE01.JPG,AFNE01.JPG,,,,,,,,,,,,,3,5,35,7,,,,,,,,,,,AMNE07.jpg,AMSA11.jpg,AMSA01.jpg,AMNE15.jpg,AMNE07.jpg,MN,1,num_8,16,num_8,0.683503870387,,,2017_Dec_13_1146,60.0038106272,FEMA4ImagesEEG,001,102624,
AFNE01.JPG,AFNE01.JPG,AFNE01.JPG,AFNE01.JPG,AFNE01.JPG,AFNE01.JPG,,,,,,,,,,,,,3,6,36,3,,,,,,,,,,,AMNE10.jpg,AMSA14.jpg,AMNE05.jpg,AMSA18.jpg,AMNE05.jpg,MN,1,num_2,16,num_2,0.650153088849,,,2017_Dec_13_1146,60.0038106272,FEMA4ImagesEEG,001,102624,
AFNE01.JPG,AFNE01.JPG,AFNE01.JPG,AFNE01.JPG,AFNE01.JPG,AFNE01.JPG,,,,,,,,,,,,,3,7,37,2,,,,,,,,,,,AMSA20.jpg,AMSA17.jpg,AMNE09.jpg,AMNE13.jpg,AMSA17.jpg,MS,2,num_6,32,num_8,0.700098274508,,,2017_Dec_13_1146,60.0038106272,FEMA4ImagesEEG,001,102624,
AFNE01.JPG,AFNE01.JPG,AFNE01.JPG,AFNE01.JPG,AFNE01.JPG,AFNE01.JPG,,,,,,,,,,,,,3,8,38,5,,,,,,,,,,,AMNE05.jpg,AMSA10.jpg,AMNE13.jpg,AMSA06.jpg,AMNE05.jpg,MN,1,num_8,32,num_6,0.816802114947,,,2017_Dec_13_1146,60.0038106272,FEMA4ImagesEEG,001,102624,
AFNE01.JPG,AFNE01.JPG,AFNE01.JPG,AFNE01.JPG,AFNE01.JPG,AFNE01.JPG,,,,,,,,,,,,,3,9,39,0,,,,,,,,,,,AMSA06.jpg,AMNE02.jpg,AMNE16.jpg,AMSA05.jpg,AMNE16.jpg,MN,1,num_2,32,num_4,0.550162005471,,,2017_Dec_13_1146,60.0038106272,FEMA4ImagesEEG,001,102624,
AFNE01.JPG,AFNE01.JPG,AFNE01.JPG,AFNE01.JPG,AFNE01.JPG,AFNE01.JPG,,,,,,,,,,,,,4,0,40,1,,,,,,,,,,,AMSA06.jpg,AMSA13.jpg,AMNE04.jpg,AMNE14.jpg,AMSA13.jpg,MS,2,num_6,32,num_8,0.533468492795,,,2017_Dec_13_1146,60.0038106272,FEMA4ImagesEEG,001,102624,
AFNE01.JPG,AFNE01.JPG,AFNE01.JPG,AFNE01.JPG,AFNE01.JPG,AFNE01.JPG,,,,,,,,,,,,,4,1,41,4,,,,,,,,,,,AMNE14.jpg,AMSA12.jpg,AMNE12.jpg,AMSA17.jpg,AMSA12.jpg,MS,2,num_6,32,num_2,1.23341922718,,,2017_Dec_13_1146,60.0038106272,FEMA4ImagesEEG,001,102624,
AFNE01.JPG,AFNE01.JPG,AFNE01.JPG,AFNE01.JPG,AFNE01.JPG,AFNE01.JPG,,,,,,,,,,,,,4,2,42,8,,,,,,,,,,,AMNE13.jpg,AMSA19.jpg,AMSA03.jpg,AMNE18.jpg,AMNE18.jpg,MN,1,num_4,32,num_8,0.866781940451,,,2017_Dec_13_1146,60.0038106272,FEMA4ImagesEEG,001,102624,
AFNE01.JPG,AFNE01.JPG,AFNE01.JPG,AFNE01.JPG,AFNE01.JPG,AFNE01.JPG,,,,,,,,,,,,,4,3,43,6,,,,,,,,,,,AMNE06.jpg,AMSA01.jpg,AMSA17.jpg,AMNE18.jpg,AMSA01.jpg,MS,2,num_6,16,num_6,0.800148053328,,,2017_Dec_13_1146,60.0038106272,FEMA4ImagesEEG,001,102624,
AFNE01.JPG,AFNE01.JPG,AFNE01.JPG,AFNE01.JPG,AFNE01.JPG,AFNE01.JPG,,,,,,,,,,,,,4,4,44,7,,,,,,,,,,,AMNE19.jpg,AMSA02.jpg,AMSA13.jpg,AMNE05.jpg,AMSA02.jpg,MS,2,num_6,32,num_2,1.03343513608,,,2017_Dec_13_1146,60.0038106272,FEMA4ImagesEEG,001,102624,
AFNE01.JPG,AFNE01.JPG,AFNE01.JPG,AFNE01.JPG,AFNE01.JPG,AFNE01.JPG,,,,,,,,,,,,,4,5,45,2,,,,,,,,,,,AMNE18.jpg,AMSA20.jpg,AMSA13.jpg,AMNE01.jpg,AMSA20.jpg,MS,2,num_6,32,num_4,1.40006825328,,,2017_Dec_13_1146,60.0038106272,FEMA4ImagesEEG,001,102624,
AFNE01.JPG,AFNE01.JPG,AFNE01.JPG,AFNE01.JPG,AFNE01.JPG,AFNE01.JPG,,,,,,,,,,,,,4,6,46,3,,,,,,,,,,,AMNE07.jpg,AMSA05.jpg,AMNE15.jpg,AMSA09.jpg,AMNE07.jpg,MN,1,num_8,16,num_8,0.750144172227,,,2017_Dec_13_1146,60.0038106272,FEMA4ImagesEEG,001,102624,
AFNE01.JPG,AFNE01.JPG,AFNE01.JPG,AFNE01.JPG,AFNE01.JPG,AFNE01.JPG,,,,,,,,,,,,,4,7,47,5,,,,,,,,,,,AMNE18.jpg,AMNE11.jpg,AMSA01.jpg,AMSA08.jpg,AMNE18.jpg,MN,1,num_8,32,num_6,0.816747589037,,,2017_Dec_13_1146,60.0038106272,FEMA4ImagesEEG,001,102624,
AFNE01.JPG,AFNE01.JPG,AFNE01.JPG,AFNE01.JPG,AFNE01.JPG,AFNE01.JPG,,,,,,,,,,,,,4,8,48,9,,,,,,,,,,,AMSA14.jpg,AMNE03.jpg,AMSA11.jpg,AMNE12.jpg,AMNE03.jpg,MN,1,num_6,32,num_2,0.783457106678,,,2017_Dec_13_1146,60.0038106272,FEMA4ImagesEEG,001,102624,
AFNE01.JPG,AFNE01.JPG,AFNE01.JPG,AFNE01.JPG,AFNE01.JPG,AFNE01.JPG,,,,,,,,,,,,,4,9,49,0,,,,,,,,,,,AMSA19.jpg,AMNE16.jpg,AMSA09.jpg,AMNE14.jpg,AMNE14.jpg,MN,1,num_4,32,num_8,0.38346230262,,,2017_Dec_13_1146,60.0038106272,FEMA4ImagesEEG,001,102624,
AFNE01.JPG,AFNE01.JPG,AFNE01.JPG,AFNE01.JPG,AFNE01.JPG,AFNE01.JPG,,,,,,,,,,,,,5,0,50,7,,,,,,,,,,,AMSA08.jpg,AMNE12.jpg,AMSA18.jpg,AMNE14.jpg,AMSA18.jpg,MS,2,num_2,16,num_2,0.950087529607,,,2017_Dec_13_1146,60.0038106272,FEMA4ImagesEEG,001,102624,
AFNE01.JPG,AFNE01.JPG,AFNE01.JPG,AFNE01.JPG,AFNE01.JPG,AFNE01.JPG,,,,,,,,,,,,,5,1,51,8,,,,,,,,,,,AMNE17.jpg,AMSA04.jpg,AMSA14.jpg,AMNE10.jpg,AMSA14.jpg,MS,2,num_2,16,num_2,0.850112483371,,,2017_Dec_13_1146,60.0038106272,FEMA4ImagesEEG,001,102624,
AFNE01.JPG,AFNE01.JPG,AFNE01.JPG,AFNE01.JPG,AFNE01.JPG,AFNE01.JPG,,,,,,,,,,,,,5,2,52,1,,,,,,,,,,,AMSA02.jpg,AMSA20.jpg,AMNE19.jpg,AMNE13.jpg,AMSA20.jpg,MS,2,num_6,16,num_6,0.683432666352,,,2017_Dec_13_1146,60.0038106272,FEMA4ImagesEEG,001,102624,
AFNE01.JPG,AFNE01.JPG,AFNE01.JPG,AFNE01.JPG,AFNE01.JPG,AFNE01.JPG,,,,,,,,,,,,,5,3,53,3,,,,,,,,,,,AMNE06.jpg,AMNE11.jpg,AMSA10.jpg,AMSA08.jpg,AMNE11.jpg,MN,1,num_6,32,num_8,0.483502138406,,,2017_Dec_13_1146,60.0038106272,FEMA4ImagesEEG,001,102624,
AFNE01.JPG,AFNE01.JPG,AFNE01.JPG,AFNE01.JPG,AFNE01.JPG,AFNE01.JPG,,,,,,,,,,,,,5,4,54,5,,,,,,,,,,,AMNE14.jpg,AMSA01.jpg,AMNE15.jpg,AMSA02.jpg,AMNE14.jpg,MN,1,num_8,32,num_6,0.550175155746,,,2017_Dec_13_1146,60.0038106272,FEMA4ImagesEEG,001,102624,
AFNE01.JPG,AFNE01.JPG,AFNE01.JPG,AFNE01.JPG,AFNE01.JPG,AFNE01.JPG,,,,,,,,,,,,,5,5,55,9,,,,,,,,,,,AMSA08.jpg,AMSA15.jpg,AMNE18.jpg,AMNE03.jpg,AMNE18.jpg,MN,1,num_2,16,num_2,0.866742810234,,,2017_Dec_13_1146,60.0038106272,FEMA4ImagesEEG,001,102624,
AFNE01.JPG,AFNE01.JPG,AFNE01.JPG,AFNE01.JPG,AFNE01.JPG,AFNE01.JPG,,,,,,,,,,,,,5,6,56,2,,,,,,,,,,,AMNE12.jpg,AMSA12.jpg,AMNE20.jpg,AMSA09.jpg,AMSA09.jpg,MS,2,num_4,16,num_4,0.583692080108,,,2017_Dec_13_1146,60.0038106272,FEMA4ImagesEEG,001,102624,
AFNE01.JPG,AFNE01.JPG,AFNE01.JPG,AFNE01.JPG,AFNE01.JPG,AFNE01.JPG,,,,,,,,,,,,,5,7,57,6,,,,,,,,,,,AMNE19.jpg,AMNE06.jpg,AMSA05.jpg,AMSA08.jpg,AMNE19.jpg,MN,1,num_8,32,num_6,0.649937231326,,,2017_Dec_13_1146,60.0038106272,FEMA4ImagesEEG,001,102624,
AFNE01.JPG,AFNE01.JPG,AFNE01.JPG,AFNE01.JPG,AFNE01.JPG,AFNE01.JPG,,,,,,,,,,,,,5,8,58,0,,,,,,,,,,,AMSA11.jpg,AMNE12.jpg,AMSA16.jpg,AMNE13.jpg,AMNE13.jpg,MN,1,num_4,32,num_2,0.933423204347,,,2017_Dec_13_1146,60.0038106272,FEMA4ImagesEEG,001,102624,
AFNE01.JPG,AFNE01.JPG,AFNE01.JPG,AFNE01.JPG,AFNE01.JPG,AFNE01.JPG,,,,,,,,,,,,,5,9,59,4,,,,,,,,,,,AMSA09.jpg,AMNE06.jpg,AMNE03.jpg,AMSA18.jpg,AMSA09.jpg,MS,2,num_8,32,num_4,0.583481675247,,,2017_Dec_13_1146,60.0038106272,FEMA4ImagesEEG,001,102624,
