IPosition2,IPosition3,IPosition1,IPosition6,IPosition4,IPosition5,TrialsF1.thisRepN,TrialsF1.thisTrialN,TrialsF1.thisN,TrialsF1.thisIndex,TrialsM1.thisRepN,TrialsM1.thisTrialN,TrialsM1.thisN,TrialsM1.thisIndex,TrialsF2.thisRepN,TrialsF2.thisTrialN,TrialsF2.thisN,TrialsF2.thisIndex,TrialsM2.thisRepN,TrialsM2.thisTrialN,TrialsM2.thisN,TrialsM2.thisIndex,TrialsF3.thisRepN,TrialsF3.thisTrialN,TrialsF3.thisN,TrialsF3.thisIndex,TrialsM3.thisRepN,TrialsM3.thisTrialN,TrialsM3.thisN,TrialsM3.thisIndex,InstrKey_resp.keys,InstrKey_resp.rt,Image0 _Position,Image1 _Position,Image2 _Position,Image3 _Position,Center_image,condition,code,correct_answer,accuracy,Key_Resp.keys,Key_Resp.rt,BreakKey_resp.keys,BreakKey_resp.rt,date,frameRate,expName,session,participant,
,,,,,,,,,,,,,,,,,,,,,,,,,,,,,,space,59.0788610305,,,,,,,,,,,,,,2018_Feb_27_1507,60.0112600285,FEMA4ImagesEEG,001,102686,
AFSA21.JPG,AFNE23.JPG,AFNE21.JPG,AFSA25.JPG,AFNE25.JPG,AFSA23.JPG,0,0,0,4,,,,,,,,,,,,,,,,,,,,,,,AFNE20.jpg,AFNE16.jpg,AFSA16.jpg,AFSA02.jpg,AFNE20.jpg,FN,3,num_8,32,num_4,4.36652820359,,,2018_Feb_27_1507,60.0112600285,FEMA4ImagesEEG,001,102686,
AMNE23.JPG,AMNE24.JPG,AMNE22.JPG,AMSA24.JPG,AMSA22.JPG,AMSA23.JPG,0,1,1,9,,,,,,,,,,,,,,,,,,,,,,,AFSA16.jpg,AFNE04.jpg,AFSA17.jpg,AFNE03.jpg,AFNE03.jpg,FN,3,num_4,16,num_4,2.85002314125,,,2018_Feb_27_1507,60.0112600285,FEMA4ImagesEEG,001,102686,
AMSA21.JPG,AMNE22.JPG,AMNE21.JPG,AMSA23.JPG,AMSA22.JPG,AMNE23.JPG,0,2,2,1,,,,,,,,,,,,,,,,,,,,,,,AFSA13.jpg,AFNE10.jpg,AFNE03.jpg,AFSA08.jpg,AFSA13.jpg,FS,4,num_8,16,num_8,1.84994391887,,,2018_Feb_27_1507,60.0112600285,FEMA4ImagesEEG,001,102686,
AMSA21.JPG,AMNE23.JPG,AMNE21.JPG,AMSA25.JPG,AMNE25.JPG,AMSA23.JPG,0,3,3,5,,,,,,,,,,,,,,,,,,,,,,,AFNE18.jpg,AFSA02.jpg,AFNE08.jpg,AFSA03.jpg,AFNE08.jpg,FN,3,num_2,32,num_6,2.56667535868,,,2018_Feb_27_1507,60.0112600285,FEMA4ImagesEEG,001,102686,
AFSA25.JPG,AFNE24.JPG,AFSA24.JPG,AFNE21.JPG,AFSA21.JPG,AFNE25.JPG,0,4,4,2,,,,,,,,,,,,,,,,,,,,,,,AFNE07.jpg,AFSA17.jpg,AFSA11.jpg,AFNE20.jpg,AFSA17.jpg,FS,4,num_6,32,num_2,1.7500914908,,,2018_Feb_27_1507,60.0112600285,FEMA4ImagesEEG,001,102686,
AMNE22.JPG,AMSA24.JPG,AMSA22.JPG,AMNE25.JPG,AMNE24.JPG,AMSA25.JPG,0,5,5,7,,,,,,,,,,,,,,,,,,,,,,,AFNE01.jpg,AFSA06.jpg,AFSA07.jpg,AFNE17.jpg,AFNE01.jpg,FN,3,num_8,32,num_4,1.75005171914,,,2018_Feb_27_1507,60.0112600285,FEMA4ImagesEEG,001,102686,
AFNE23.JPG,AFNE24.JPG,AFNE22.JPG,AFSA24.JPG,AFSA22.JPG,AFSA23.JPG,0,6,6,8,,,,,,,,,,,,,,,,,,,,,,,AFNE09.jpg,AFNE01.jpg,AFSA09.jpg,AFSA12.jpg,AFSA09.jpg,FS,4,num_2,16,num_2,0.766818344127,,,2018_Feb_27_1507,60.0112600285,FEMA4ImagesEEG,001,102686,
AMSA25.JPG,AMNE24.JPG,AMSA24.JPG,AMNE26.JPG,AMSA21.JPG,AMNE25.JPG,0,7,7,3,,,,,,,,,,,,,,,,,,,,,,,AFNE17.jpg,AFSA12.jpg,AFSA17.jpg,AFNE19.jpg,AFSA17.jpg,FS,4,num_2,32,num_4,0.866739730933,,,2018_Feb_27_1507,60.0112600285,FEMA4ImagesEEG,001,102686,
AFSA21.JPG,AFNE22.JPG,AFNE21.JPG,AFSA23.JPG,AFSA22.JPG,AFNE23.JPG,0,8,8,0,,,,,,,,,,,,,,,,,,,,,,,AFNE01.jpg,AFSA17.jpg,AFSA20.jpg,AFNE17.jpg,AFSA20.jpg,FS,4,num_2,16,num_2,1.56672250736,,,2018_Feb_27_1507,60.0112600285,FEMA4ImagesEEG,001,102686,
AFNE22.JPG,AFSA24.JPG,AFSA22.JPG,AFNE25.JPG,AFNE24.JPG,AFSA25.JPG,0,9,9,6,,,,,,,,,,,,,,,,,,,,,,,AFSA14.jpg,AFSA09.jpg,AFNE15.jpg,AFNE13.jpg,AFNE15.jpg,FN,3,num_2,16,num_2,1.10015392257,,,2018_Feb_27_1507,60.0112600285,FEMA4ImagesEEG,001,102686,
AFSA21.JPG,AFNE22.JPG,AFNE21.JPG,AFSA23.JPG,AFSA22.JPG,AFNE23.JPG,,,,,0,0,0,0,,,,,,,,,,,,,,,,,,,AMNE08.jpg,AMSA08.jpg,AMSA12.jpg,AMNE15.jpg,AMSA08.jpg,MS,2,num_6,16,num_6,1.06675859052,,,2018_Feb_27_1507,60.0112600285,FEMA4ImagesEEG,001,102686,
AFNE23.JPG,AFNE24.JPG,AFNE22.JPG,AFSA24.JPG,AFSA22.JPG,AFSA23.JPG,,,,,0,1,1,8,,,,,,,,,,,,,,,,,,,AMSA09.jpg,AMNE15.jpg,AMSA19.jpg,AMNE18.jpg,AMNE15.jpg,MN,1,num_6,16,num_6,1.05014239205,,,2018_Feb_27_1507,60.0112600285,FEMA4ImagesEEG,001,102686,
AFSA25.JPG,AFNE24.JPG,AFSA24.JPG,AFNE21.JPG,AFSA21.JPG,AFNE25.JPG,,,,,0,2,2,2,,,,,,,,,,,,,,,,,,,AMSA05.jpg,AMSA11.jpg,AMNE09.jpg,AMNE03.jpg,AMNE09.jpg,MN,1,num_2,16,num_2,0.900170023669,,,2018_Feb_27_1507,60.0112600285,FEMA4ImagesEEG,001,102686,
AFNE22.JPG,AFSA24.JPG,AFSA22.JPG,AFNE25.JPG,AFNE24.JPG,AFSA25.JPG,,,,,0,3,3,6,,,,,,,,,,,,,,,,,,,AMNE16.jpg,AMNE20.jpg,AMSA11.jpg,AMSA04.jpg,AMNE20.jpg,MN,1,num_6,32,num_4,1.03340719955,,,2018_Feb_27_1507,60.0112600285,FEMA4ImagesEEG,001,102686,
AMSA25.JPG,AMNE24.JPG,AMSA24.JPG,AMNE26.JPG,AMSA21.JPG,AMNE25.JPG,,,,,0,4,4,3,,,,,,,,,,,,,,,,,,,AMNE08.jpg,AMNE18.jpg,AMSA13.jpg,AMSA20.jpg,AMSA13.jpg,MS,2,num_2,16,num_2,1.48340352706,,,2018_Feb_27_1507,60.0112600285,FEMA4ImagesEEG,001,102686,
AFSA21.JPG,AFNE23.JPG,AFNE21.JPG,AFSA25.JPG,AFNE25.JPG,AFSA23.JPG,,,,,0,5,5,4,,,,,,,,,,,,,,,,,,,AMSA14.jpg,AMNE15.jpg,AMSA05.jpg,AMNE19.jpg,AMSA14.jpg,MS,2,num_8,16,num_8,0.850149833132,,,2018_Feb_27_1507,60.0112600285,FEMA4ImagesEEG,001,102686,
AMSA21.JPG,AMNE23.JPG,AMNE21.JPG,AMSA25.JPG,AMNE25.JPG,AMSA23.JPG,,,,,0,6,6,5,,,,,,,,,,,,,,,,,,,AMSA18.jpg,AMNE20.jpg,AMSA06.jpg,AMNE05.jpg,AMNE05.jpg,MN,1,num_4,16,num_4,1.38340837019,,,2018_Feb_27_1507,60.0112600285,FEMA4ImagesEEG,001,102686,
AMNE22.JPG,AMSA24.JPG,AMSA22.JPG,AMNE25.JPG,AMNE24.JPG,AMSA25.JPG,,,,,0,7,7,7,,,,,,,,,,,,,,,,,,,AMSA18.jpg,AMNE09.jpg,AMSA05.jpg,AMNE16.jpg,AMSA18.jpg,MS,2,num_8,16,num_8,1.25018498604,,,2018_Feb_27_1507,60.0112600285,FEMA4ImagesEEG,001,102686,
AMSA21.JPG,AMNE22.JPG,AMNE21.JPG,AMSA23.JPG,AMSA22.JPG,AMNE23.JPG,,,,,0,8,8,1,,,,,,,,,,,,,,,,,,,AMSA10.jpg,AMNE06.jpg,AMNE12.jpg,AMSA09.jpg,AMNE06.jpg,MN,1,num_6,16,num_6,0.733465349535,,,2018_Feb_27_1507,60.0112600285,FEMA4ImagesEEG,001,102686,
AMNE23.JPG,AMNE24.JPG,AMNE22.JPG,AMSA24.JPG,AMSA22.JPG,AMSA23.JPG,,,,,0,9,9,9,,,,,,,,,,,,,,,,,,,AMSA02.jpg,AMSA10.jpg,AMNE15.jpg,AMNE10.jpg,AMNE10.jpg,MN,1,num_4,16,num_4,1.26682876807,,,2018_Feb_27_1507,60.0112600285,FEMA4ImagesEEG,001,102686,
AMSA21.JPG,AMNE22.JPG,AMNE21.JPG,AMSA23.JPG,AMSA22.JPG,AMNE23.JPG,,,,,,,,,0,0,0,1,,,,,,,,,,,,,,,AFSA05.jpg,AFSA15.jpg,AFNE08.jpg,AFNE06.jpg,AFNE06.jpg,FN,3,num_4,16,num_4,1.13344854279,,,2018_Feb_27_1507,60.0112600285,FEMA4ImagesEEG,001,102686,
AFSA21.JPG,AFNE23.JPG,AFNE21.JPG,AFSA25.JPG,AFNE25.JPG,AFSA23.JPG,,,,,,,,,0,1,1,4,,,,,,,,,,,,,,,AFNE05.jpg,AFSA18.jpg,AFNE07.jpg,AFSA02.jpg,AFSA18.jpg,FS,4,num_6,32,num_4,0.933455663151,,,2018_Feb_27_1507,60.0112600285,FEMA4ImagesEEG,001,102686,
AFSA25.JPG,AFNE24.JPG,AFSA24.JPG,AFNE21.JPG,AFSA21.JPG,AFNE25.JPG,,,,,,,,,0,2,2,2,,,,,,,,,,,,,,,AFNE04.jpg,AFSA19.jpg,AFNE12.jpg,AFSA17.jpg,AFNE12.jpg,FN,3,num_2,32,num_8,0.866614963626,,,2018_Feb_27_1507,60.0112600285,FEMA4ImagesEEG,001,102686,
AMSA25.JPG,AMNE24.JPG,AMSA24.JPG,AMNE26.JPG,AMSA21.JPG,AMNE25.JPG,,,,,,,,,0,3,3,3,,,,,,,,,,,,,,,AFSA19.jpg,AFSA08.jpg,AFNE15.jpg,AFNE18.jpg,AFSA08.jpg,FS,4,num_6,16,num_6,1.33343853569,,,2018_Feb_27_1507,60.0112600285,FEMA4ImagesEEG,001,102686,
AMNE22.JPG,AMSA24.JPG,AMSA22.JPG,AMNE25.JPG,AMNE24.JPG,AMSA25.JPG,,,,,,,,,0,4,4,7,,,,,,,,,,,,,,,AFNE06.jpg,AFSA20.jpg,AFNE03.jpg,AFSA12.jpg,AFNE06.jpg,FN,3,num_8,32,num_4,0.900118384627,,,2018_Feb_27_1507,60.0112600285,FEMA4ImagesEEG,001,102686,
AFNE22.JPG,AFSA24.JPG,AFSA22.JPG,AFNE25.JPG,AFNE24.JPG,AFSA25.JPG,,,,,,,,,0,5,5,6,,,,,,,,,,,,,,,AFSA01.jpg,AFSA19.jpg,AFNE06.jpg,AFNE05.jpg,AFSA19.jpg,FS,4,num_6,16,num_6,0.633508039755,,,2018_Feb_27_1507,60.0112600285,FEMA4ImagesEEG,001,102686,
AFNE23.JPG,AFNE24.JPG,AFNE22.JPG,AFSA24.JPG,AFSA22.JPG,AFSA23.JPG,,,,,,,,,0,6,6,8,,,,,,,,,,,,,,,AFSA07.jpg,AFNE10.jpg,AFSA20.jpg,AFNE05.jpg,AFNE10.jpg,FN,3,num_6,32,num_8,1.48347312736,,,2018_Feb_27_1507,60.0112600285,FEMA4ImagesEEG,001,102686,
AMSA21.JPG,AMNE23.JPG,AMNE21.JPG,AMSA25.JPG,AMNE25.JPG,AMSA23.JPG,,,,,,,,,0,7,7,5,,,,,,,,,,,,,,,AFNE11.jpg,AFSA14.jpg,AFSA09.jpg,AFNE07.jpg,AFNE07.jpg,FN,3,num_4,16,num_4,1.21669952641,,,2018_Feb_27_1507,60.0112600285,FEMA4ImagesEEG,001,102686,
AMNE23.JPG,AMNE24.JPG,AMNE22.JPG,AMSA24.JPG,AMSA22.JPG,AMSA23.JPG,,,,,,,,,0,8,8,9,,,,,,,,,,,,,,,AFNE02.jpg,AFSA11.jpg,AFNE05.jpg,AFSA02.jpg,AFSA11.jpg,FS,4,num_6,32,num_2,1.9667740179,,,2018_Feb_27_1507,60.0112600285,FEMA4ImagesEEG,001,102686,
AFSA21.JPG,AFNE22.JPG,AFNE21.JPG,AFSA23.JPG,AFSA22.JPG,AFNE23.JPG,,,,,,,,,0,9,9,0,,,,,,,,,,,,,,,AFSA05.jpg,AFNE19.jpg,AFSA13.jpg,AFNE09.jpg,AFSA05.jpg,FS,4,num_8,32,num_2,0.783505746513,,,2018_Feb_27_1507,60.0112600285,FEMA4ImagesEEG,001,102686,
AFSA25.JPG,AFNE24.JPG,AFSA24.JPG,AFNE21.JPG,AFSA21.JPG,AFNE25.JPG,,,,,,,,,,,,,0,0,0,2,,,,,,,,,,,AMNE04.jpg,AMSA07.jpg,AMNE08.jpg,AMSA05.jpg,AMNE08.jpg,MN,1,num_2,32,num_4,1.58370531024,,,2018_Feb_27_1507,60.0112600285,FEMA4ImagesEEG,001,102686,
AMSA25.JPG,AMNE24.JPG,AMSA24.JPG,AMNE26.JPG,AMSA21.JPG,AMNE25.JPG,,,,,,,,,,,,,0,1,1,3,,,,,,,,,,,AMNE03.jpg,AMSA17.jpg,AMNE19.jpg,AMSA05.jpg,AMSA17.jpg,MS,2,num_6,32,num_2,1.20011668478,,,2018_Feb_27_1507,60.0112600285,FEMA4ImagesEEG,001,102686,
AFNE23.JPG,AFNE24.JPG,AFNE22.JPG,AFSA24.JPG,AFSA22.JPG,AFSA23.JPG,,,,,,,,,,,,,0,2,2,8,,,,,,,,,,,AMNE02.jpg,AMNE14.jpg,AMSA19.jpg,AMSA11.jpg,AMNE02.jpg,MN,1,num_8,16,num_8,0.766782100662,,,2018_Feb_27_1507,60.0112600285,FEMA4ImagesEEG,001,102686,
AMSA21.JPG,AMNE22.JPG,AMNE21.JPG,AMSA23.JPG,AMSA22.JPG,AMNE23.JPG,,,,,,,,,,,,,0,3,3,1,,,,,,,,,,,AMNE12.jpg,AMNE17.jpg,AMSA16.jpg,AMSA03.jpg,AMSA16.jpg,MS,2,num_2,16,num_2,0.550139986444,,,2018_Feb_27_1507,60.0112600285,FEMA4ImagesEEG,001,102686,
AMSA21.JPG,AMNE23.JPG,AMNE21.JPG,AMSA25.JPG,AMNE25.JPG,AMSA23.JPG,,,,,,,,,,,,,0,4,4,5,,,,,,,,,,,AMNE10.jpg,AMSA05.jpg,AMNE17.jpg,AMSA10.jpg,AMSA05.jpg,MS,2,num_6,16,num_6,0.966752528446,,,2018_Feb_27_1507,60.0112600285,FEMA4ImagesEEG,001,102686,
AFNE22.JPG,AFSA24.JPG,AFSA22.JPG,AFNE25.JPG,AFNE24.JPG,AFSA25.JPG,,,,,,,,,,,,,0,5,5,6,,,,,,,,,,,AMNE06.jpg,AMSA02.jpg,AMSA04.jpg,AMNE02.jpg,AMSA04.jpg,MS,2,num_2,32,num_4,1.06677879696,,,2018_Feb_27_1507,60.0112600285,FEMA4ImagesEEG,001,102686,
AMNE22.JPG,AMSA24.JPG,AMSA22.JPG,AMNE25.JPG,AMNE24.JPG,AMSA25.JPG,,,,,,,,,,,,,0,6,6,7,,,,,,,,,,,AMNE10.jpg,AMSA06.jpg,AMSA16.jpg,AMNE03.jpg,AMNE03.jpg,MN,1,num_4,16,num_4,0.950119330897,,,2018_Feb_27_1507,60.0112600285,FEMA4ImagesEEG,001,102686,
AFSA21.JPG,AFNE22.JPG,AFNE21.JPG,AFSA23.JPG,AFSA22.JPG,AFNE23.JPG,,,,,,,,,,,,,0,7,7,0,,,,,,,,,,,AMNE07.jpg,AMNE18.jpg,AMSA10.jpg,AMSA09.jpg,AMNE18.jpg,MN,1,num_6,32,num_2,1.09998457239,,,2018_Feb_27_1507,60.0112600285,FEMA4ImagesEEG,001,102686,
AMNE23.JPG,AMNE24.JPG,AMNE22.JPG,AMSA24.JPG,AMSA22.JPG,AMSA23.JPG,,,,,,,,,,,,,0,8,8,9,,,,,,,,,,,AMSA13.jpg,AMNE07.jpg,AMSA15.jpg,AMNE17.jpg,AMNE17.jpg,MN,1,num_4,16,num_4,0.849844168988,,,2018_Feb_27_1507,60.0112600285,FEMA4ImagesEEG,001,102686,
AFSA21.JPG,AFNE23.JPG,AFNE21.JPG,AFSA25.JPG,AFNE25.JPG,AFSA23.JPG,,,,,,,,,,,,,0,9,9,4,,,,,,,,,,,AMNE15.jpg,AMSA06.jpg,AMSA18.jpg,AMNE11.jpg,AMNE11.jpg,MN,1,num_4,16,num_4,1.18346712959,,,2018_Feb_27_1507,60.0112600285,FEMA4ImagesEEG,001,102686,
AMNE23.JPG,AMNE24.JPG,AMNE22.JPG,AMSA24.JPG,AMSA22.JPG,AMSA23.JPG,,,,,,,,,,,,,,,,,0,0,0,9,,,,,,,AFSA18.jpg,AFNE02.jpg,AFNE08.jpg,AFSA06.jpg,AFSA18.jpg,FS,4,num_8,32,num_4,1.01676790789,,,2018_Feb_27_1507,60.0112600285,FEMA4ImagesEEG,001,102686,
AMSA21.JPG,AMNE23.JPG,AMNE21.JPG,AMSA25.JPG,AMNE25.JPG,AMSA23.JPG,,,,,,,,,,,,,,,,,0,1,1,5,,,,,,,AFNE12.jpg,AFNE20.jpg,AFSA14.jpg,AFSA03.jpg,AFSA03.jpg,FS,4,num_4,16,num_4,0.750148261548,,,2018_Feb_27_1507,60.0112600285,FEMA4ImagesEEG,001,102686,
AFNE23.JPG,AFNE24.JPG,AFNE22.JPG,AFSA24.JPG,AFSA22.JPG,AFSA23.JPG,,,,,,,,,,,,,,,,,0,2,2,8,,,,,,,AFSA13.jpg,AFNE02.jpg,AFSA17.jpg,AFNE13.jpg,AFNE02.jpg,FN,3,num_6,32,num_8,0.950170969823,,,2018_Feb_27_1507,60.0112600285,FEMA4ImagesEEG,001,102686,
AMSA25.JPG,AMNE24.JPG,AMSA24.JPG,AMNE26.JPG,AMSA21.JPG,AMNE25.JPG,,,,,,,,,,,,,,,,,0,3,3,3,,,,,,,AFSA17.jpg,AFNE12.jpg,AFNE04.jpg,AFSA14.jpg,AFNE04.jpg,FN,3,num_2,16,num_2,1.16674027627,,,2018_Feb_27_1507,60.0112600285,FEMA4ImagesEEG,001,102686,
AFSA21.JPG,AFNE23.JPG,AFNE21.JPG,AFSA25.JPG,AFNE25.JPG,AFSA23.JPG,,,,,,,,,,,,,,,,,0,4,4,4,,,,,,,AFNE19.jpg,AFSA03.jpg,AFSA04.jpg,AFNE08.jpg,AFSA03.jpg,FS,4,num_6,32,num_8,1.31674151099,,,2018_Feb_27_1507,60.0112600285,FEMA4ImagesEEG,001,102686,
AFNE22.JPG,AFSA24.JPG,AFSA22.JPG,AFNE25.JPG,AFNE24.JPG,AFSA25.JPG,,,,,,,,,,,,,,,,,0,5,5,6,,,,,,,AFSA07.jpg,AFNE01.jpg,AFNE08.jpg,AFSA12.jpg,AFSA12.jpg,FS,4,num_4,16,num_4,0.766795250936,,,2018_Feb_27_1507,60.0112600285,FEMA4ImagesEEG,001,102686,
AMNE22.JPG,AMSA24.JPG,AMSA22.JPG,AMNE25.JPG,AMNE24.JPG,AMSA25.JPG,,,,,,,,,,,,,,,,,0,6,6,7,,,,,,,AFNE11.jpg,AFNE13.jpg,AFSA16.jpg,AFSA03.jpg,AFSA16.jpg,FS,4,num_2,16,num_2,0.850110382307,,,2018_Feb_27_1507,60.0112600285,FEMA4ImagesEEG,001,102686,
AFSA21.JPG,AFNE22.JPG,AFNE21.JPG,AFSA23.JPG,AFSA22.JPG,AFNE23.JPG,,,,,,,,,,,,,,,,,0,7,7,0,,,,,,,AFNE09.jpg,AFSA12.jpg,AFNE03.jpg,AFSA09.jpg,AFSA12.jpg,FS,4,num_6,16,num_6,0.916890783003,,,2018_Feb_27_1507,60.0112600285,FEMA4ImagesEEG,001,102686,
AFSA25.JPG,AFNE24.JPG,AFSA24.JPG,AFNE21.JPG,AFSA21.JPG,AFNE25.JPG,,,,,,,,,,,,,,,,,0,8,8,2,,,,,,,AFSA18.jpg,AFSA01.jpg,AFNE18.jpg,AFNE11.jpg,AFSA18.jpg,FS,4,num_8,16,num_8,0.683471459546,,,2018_Feb_27_1507,60.0112600285,FEMA4ImagesEEG,001,102686,
AMSA21.JPG,AMNE22.JPG,AMNE21.JPG,AMSA23.JPG,AMSA22.JPG,AMNE23.JPG,,,,,,,,,,,,,,,,,0,9,9,1,,,,,,,AFNE08.jpg,AFSA16.jpg,AFSA11.jpg,AFNE19.jpg,AFNE08.jpg,FN,3,num_8,32,num_4,0.866828255006,,,2018_Feb_27_1507,60.0112600285,FEMA4ImagesEEG,001,102686,
AFNE23.JPG,AFNE24.JPG,AFNE22.JPG,AFSA24.JPG,AFSA22.JPG,AFSA23.JPG,,,,,,,,,,,,,,,,,,,,,0,0,0,8,,,AMSA11.jpg,AMSA07.jpg,AMNE03.jpg,AMNE11.jpg,AMNE03.jpg,MN,1,num_2,32,num_6,2.03334273095,,,2018_Feb_27_1507,60.0112600285,FEMA4ImagesEEG,001,102686,
AFNE22.JPG,AFSA24.JPG,AFSA22.JPG,AFNE25.JPG,AFNE24.JPG,AFSA25.JPG,,,,,,,,,,,,,,,,,,,,,0,1,1,6,,,AMNE04.jpg,AMSA10.jpg,AMSA05.jpg,AMNE10.jpg,AMNE10.jpg,MN,1,num_4,16,num_4,0.933341800817,,,2018_Feb_27_1507,60.0112600285,FEMA4ImagesEEG,001,102686,
AFSA21.JPG,AFNE22.JPG,AFNE21.JPG,AFSA23.JPG,AFSA22.JPG,AFNE23.JPG,,,,,,,,,,,,,,,,,,,,,0,2,2,0,,,AMNE10.jpg,AMSA11.jpg,AMSA02.jpg,AMNE06.jpg,AMNE10.jpg,MN,1,num_8,16,num_8,0.700184521032,,,2018_Feb_27_1507,60.0112600285,FEMA4ImagesEEG,001,102686,
AMNE22.JPG,AMSA24.JPG,AMSA22.JPG,AMNE25.JPG,AMNE24.JPG,AMSA25.JPG,,,,,,,,,,,,,,,,,,,,,0,3,3,7,,,AMNE19.jpg,AMSA10.jpg,AMNE11.jpg,AMSA12.jpg,AMNE19.jpg,MN,1,num_8,16,num_8,0.766790439724,,,2018_Feb_27_1507,60.0112600285,FEMA4ImagesEEG,001,102686,
AFSA21.JPG,AFNE23.JPG,AFNE21.JPG,AFSA25.JPG,AFNE25.JPG,AFSA23.JPG,,,,,,,,,,,,,,,,,,,,,0,4,4,4,,,AMNE05.jpg,AMNE18.jpg,AMSA19.jpg,AMSA20.jpg,AMSA20.jpg,MS,2,num_4,16,num_4,0.566896347795,,,2018_Feb_27_1507,60.0112600285,FEMA4ImagesEEG,001,102686,
AMSA25.JPG,AMNE24.JPG,AMSA24.JPG,AMNE26.JPG,AMSA21.JPG,AMNE25.JPG,,,,,,,,,,,,,,,,,,,,,0,5,5,3,,,AMSA07.jpg,AMNE18.jpg,AMNE10.jpg,AMSA10.jpg,AMSA07.jpg,MS,2,num_8,16,num_8,0.63356064097,,,2018_Feb_27_1507,60.0112600285,FEMA4ImagesEEG,001,102686,
AMSA21.JPG,AMNE22.JPG,AMNE21.JPG,AMSA23.JPG,AMSA22.JPG,AMNE23.JPG,,,,,,,,,,,,,,,,,,,,,0,6,6,1,,,AMSA15.jpg,AMNE08.jpg,AMNE17.jpg,AMSA04.jpg,AMSA15.jpg,MS,2,num_8,16,num_8,0.500176246045,,,2018_Feb_27_1507,60.0112600285,FEMA4ImagesEEG,001,102686,
AMNE23.JPG,AMNE24.JPG,AMNE22.JPG,AMSA24.JPG,AMSA22.JPG,AMSA23.JPG,,,,,,,,,,,,,,,,,,,,,0,7,7,9,,,AMNE11.jpg,AMNE06.jpg,AMSA04.jpg,AMSA20.jpg,AMNE11.jpg,MN,1,num_8,16,num_8,0.850141814677,,,2018_Feb_27_1507,60.0112600285,FEMA4ImagesEEG,001,102686,
AFSA25.JPG,AFNE24.JPG,AFSA24.JPG,AFNE21.JPG,AFSA21.JPG,AFNE25.JPG,,,,,,,,,,,,,,,,,,,,,0,8,8,2,,,AMNE20.jpg,AMSA15.jpg,AMNE13.jpg,AMSA20.jpg,AMSA20.jpg,MS,2,num_4,16,num_4,0.700170729309,,,2018_Feb_27_1507,60.0112600285,FEMA4ImagesEEG,001,102686,
AMSA21.JPG,AMNE23.JPG,AMNE21.JPG,AMSA25.JPG,AMNE25.JPG,AMSA23.JPG,,,,,,,,,,,,,,,,,,,,,0,9,9,5,,,AMNE14.jpg,AMSA18.jpg,AMSA02.jpg,AMNE07.jpg,AMNE14.jpg,MN,1,num_8,16,num_8,0.883467225824,,,2018_Feb_27_1507,60.0112600285,FEMA4ImagesEEG,001,102686,
,,,,,,,,,,,,,,,,,,,,,,,,,,,,,,,,,,,,,,,,,,,space,13.4487897079,2018_Feb_27_1507,60.0112600285,FEMA4ImagesEEG,001,102686,
AFNE01.JPG,AFNE01.JPG,AFNE01.JPG,AFNE01.JPG,AFNE01.JPG,AFNE01.JPG,0,0,0,8,,,,,,,,,,,,,,,,,,,,,,,AFSA10.jpg,AFNE03.jpg,AFNE10.jpg,AFSA18.jpg,AFNE10.jpg,FN,3,num_2,32,num_8,1.08348351938,,,2018_Feb_27_1507,60.0112600285,FEMA4ImagesEEG,001,102686,
AFNE01.JPG,AFNE01.JPG,AFNE01.JPG,AFNE01.JPG,AFNE01.JPG,AFNE01.JPG,0,1,1,0,,,,,,,,,,,,,,,,,,,,,,,AFNE13.jpg,AFNE03.jpg,AFSA16.jpg,AFSA07.jpg,AFNE13.jpg,FN,3,num_8,16,num_8,0.950154291466,,,2018_Feb_27_1507,60.0112600285,FEMA4ImagesEEG,001,102686,
AFNE01.JPG,AFNE01.JPG,AFNE01.JPG,AFNE01.JPG,AFNE01.JPG,AFNE01.JPG,0,2,2,5,,,,,,,,,,,,,,,,,,,,,,,AFNE05.jpg,AFNE10.jpg,AFSA15.jpg,AFSA01.jpg,AFSA15.jpg,FS,4,num_2,32,num_6,1.05014335422,,,2018_Feb_27_1507,60.0112600285,FEMA4ImagesEEG,001,102686,
AFNE01.JPG,AFNE01.JPG,AFNE01.JPG,AFNE01.JPG,AFNE01.JPG,AFNE01.JPG,0,3,3,6,,,,,,,,,,,,,,,,,,,,,,,AFNE01.jpg,AFSA04.jpg,AFNE17.jpg,AFSA11.jpg,AFSA04.jpg,FS,4,num_6,32,num_2,0.9167419601,,,2018_Feb_27_1507,60.0112600285,FEMA4ImagesEEG,001,102686,
AFNE01.JPG,AFNE01.JPG,AFNE01.JPG,AFNE01.JPG,AFNE01.JPG,AFNE01.JPG,0,4,4,9,,,,,,,,,,,,,,,,,,,,,,,AFSA08.jpg,AFNE09.jpg,AFSA03.jpg,AFNE17.jpg,AFSA03.jpg,FS,4,num_2,16,num_2,1.08346395427,,,2018_Feb_27_1507,60.0112600285,FEMA4ImagesEEG,001,102686,
AFNE01.JPG,AFNE01.JPG,AFNE01.JPG,AFNE01.JPG,AFNE01.JPG,AFNE01.JPG,0,5,5,4,,,,,,,,,,,,,,,,,,,,,,,AFNE12.jpg,AFNE06.jpg,AFSA16.jpg,AFSA01.jpg,AFNE06.jpg,FN,3,num_6,32,num_2,1.38343242556,,,2018_Feb_27_1507,60.0112600285,FEMA4ImagesEEG,001,102686,
AFNE01.JPG,AFNE01.JPG,AFNE01.JPG,AFNE01.JPG,AFNE01.JPG,AFNE01.JPG,0,6,6,2,,,,,,,,,,,,,,,,,,,,,,,AFSA14.jpg,AFNE01.jpg,AFSA18.jpg,AFNE17.jpg,AFNE01.jpg,FN,3,num_6,16,num_6,1.11678391276,,,2018_Feb_27_1507,60.0112600285,FEMA4ImagesEEG,001,102686,
AFNE01.JPG,AFNE01.JPG,AFNE01.JPG,AFNE01.JPG,AFNE01.JPG,AFNE01.JPG,0,7,7,1,,,,,,,,,,,,,,,,,,,,,,,AFNE09.jpg,AFSA17.jpg,AFNE17.jpg,AFSA08.jpg,AFNE17.jpg,FN,3,num_2,32,num_6,1.0001161074,,,2018_Feb_27_1507,60.0112600285,FEMA4ImagesEEG,001,102686,
AFNE01.JPG,AFNE01.JPG,AFNE01.JPG,AFNE01.JPG,AFNE01.JPG,AFNE01.JPG,0,8,8,3,,,,,,,,,,,,,,,,,,,,,,,AFNE01.jpg,AFSA08.jpg,AFSA07.jpg,AFNE09.jpg,AFSA08.jpg,FS,4,num_6,16,num_6,0.500182019314,,,2018_Feb_27_1507,60.0112600285,FEMA4ImagesEEG,001,102686,
AFNE01.JPG,AFNE01.JPG,AFNE01.JPG,AFNE01.JPG,AFNE01.JPG,AFNE01.JPG,0,9,9,7,,,,,,,,,,,,,,,,,,,,,,,AFSA12.jpg,AFNE13.jpg,AFNE02.jpg,AFSA13.jpg,AFNE13.jpg,FN,3,num_6,16,num_6,1.13342833624,,,2018_Feb_27_1507,60.0112600285,FEMA4ImagesEEG,001,102686,
AFNE01.JPG,AFNE01.JPG,AFNE01.JPG,AFNE01.JPG,AFNE01.JPG,AFNE01.JPG,1,0,10,4,,,,,,,,,,,,,,,,,,,,,,,AFSA11.jpg,AFNE07.jpg,AFNE09.jpg,AFSA15.jpg,AFNE07.jpg,FN,3,num_6,16,num_6,0.650170424604,,,2018_Feb_27_1507,60.0112600285,FEMA4ImagesEEG,001,102686,
AFNE01.JPG,AFNE01.JPG,AFNE01.JPG,AFNE01.JPG,AFNE01.JPG,AFNE01.JPG,1,1,11,1,,,,,,,,,,,,,,,,,,,,,,,AFSA15.jpg,AFNE18.jpg,AFSA20.jpg,AFNE19.jpg,AFSA15.jpg,FS,4,num_8,16,num_8,0.700315061724,,,2018_Feb_27_1507,60.0112600285,FEMA4ImagesEEG,001,102686,
AFNE01.JPG,AFNE01.JPG,AFNE01.JPG,AFNE01.JPG,AFNE01.JPG,AFNE01.JPG,1,2,12,5,,,,,,,,,,,,,,,,,,,,,,,AFSA18.jpg,AFNE03.jpg,AFNE04.jpg,AFSA07.jpg,AFNE03.jpg,FN,3,num_6,16,num_6,0.43348821823,,,2018_Feb_27_1507,60.0112600285,FEMA4ImagesEEG,001,102686,
AFNE01.JPG,AFNE01.JPG,AFNE01.JPG,AFNE01.JPG,AFNE01.JPG,AFNE01.JPG,1,3,13,7,,,,,,,,,,,,,,,,,,,,,,,AFSA11.jpg,AFNE09.jpg,AFSA18.jpg,AFNE01.jpg,AFSA11.jpg,FS,4,num_8,32,num_2,0.783490671776,,,2018_Feb_27_1507,60.0112600285,FEMA4ImagesEEG,001,102686,
AFNE01.JPG,AFNE01.JPG,AFNE01.JPG,AFNE01.JPG,AFNE01.JPG,AFNE01.JPG,1,4,14,6,,,,,,,,,,,,,,,,,,,,,,,AFNE07.jpg,AFNE04.jpg,AFSA11.jpg,AFSA08.jpg,AFNE04.jpg,FN,3,num_6,32,num_8,1.06681568187,,,2018_Feb_27_1507,60.0112600285,FEMA4ImagesEEG,001,102686,
AFNE01.JPG,AFNE01.JPG,AFNE01.JPG,AFNE01.JPG,AFNE01.JPG,AFNE01.JPG,1,5,15,8,,,,,,,,,,,,,,,,,,,,,,,AFNE16.jpg,AFNE15.jpg,AFSA17.jpg,AFSA09.jpg,AFSA17.jpg,FS,4,num_2,16,num_2,0.899984315853,,,2018_Feb_27_1507,60.0112600285,FEMA4ImagesEEG,001,102686,
AFNE01.JPG,AFNE01.JPG,AFNE01.JPG,AFNE01.JPG,AFNE01.JPG,AFNE01.JPG,1,6,16,3,,,,,,,,,,,,,,,,,,,,,,,AFSA05.jpg,AFNE17.jpg,AFNE07.jpg,AFSA02.jpg,AFSA02.jpg,FS,4,num_4,16,num_4,0.950155574363,,,2018_Feb_27_1507,60.0112600285,FEMA4ImagesEEG,001,102686,
AFNE01.JPG,AFNE01.JPG,AFNE01.JPG,AFNE01.JPG,AFNE01.JPG,AFNE01.JPG,1,7,17,9,,,,,,,,,,,,,,,,,,,,,,,AFSA18.jpg,AFSA20.jpg,AFNE01.jpg,AFNE04.jpg,AFSA20.jpg,FS,4,num_6,16,num_6,0.500232375343,,,2018_Feb_27_1507,60.0112600285,FEMA4ImagesEEG,001,102686,
AFNE01.JPG,AFNE01.JPG,AFNE01.JPG,AFNE01.JPG,AFNE01.JPG,AFNE01.JPG,1,8,18,0,,,,,,,,,,,,,,,,,,,,,,,AFNE15.jpg,AFSA05.jpg,AFNE17.jpg,AFSA19.jpg,AFSA05.jpg,FS,4,num_6,32,num_2,0.833436771645,,,2018_Feb_27_1507,60.0112600285,FEMA4ImagesEEG,001,102686,
AFNE01.JPG,AFNE01.JPG,AFNE01.JPG,AFNE01.JPG,AFNE01.JPG,AFNE01.JPG,1,9,19,2,,,,,,,,,,,,,,,,,,,,,,,AFSA03.jpg,AFNE15.jpg,AFNE19.jpg,AFSA12.jpg,AFNE15.jpg,FN,3,num_6,32,num_8,0.799997177441,,,2018_Feb_27_1507,60.0112600285,FEMA4ImagesEEG,001,102686,
AFNE01.JPG,AFNE01.JPG,AFNE01.JPG,AFNE01.JPG,AFNE01.JPG,AFNE01.JPG,2,0,20,2,,,,,,,,,,,,,,,,,,,,,,,AFNE07.jpg,AFSA20.jpg,AFNE11.jpg,AFSA18.jpg,AFSA18.jpg,FS,4,num_4,32,num_6,1.18322176428,,,2018_Feb_27_1507,60.0112600285,FEMA4ImagesEEG,001,102686,
AFNE01.JPG,AFNE01.JPG,AFNE01.JPG,AFNE01.JPG,AFNE01.JPG,AFNE01.JPG,2,1,21,7,,,,,,,,,,,,,,,,,,,,,,,AFNE04.jpg,AFSA04.jpg,AFNE12.jpg,AFSA06.jpg,AFNE04.jpg,FN,3,num_8,16,num_8,0.983278919943,,,2018_Feb_27_1507,60.0112600285,FEMA4ImagesEEG,001,102686,
AFNE01.JPG,AFNE01.JPG,AFNE01.JPG,AFNE01.JPG,AFNE01.JPG,AFNE01.JPG,2,2,22,3,,,,,,,,,,,,,,,,,,,,,,,AFSA07.jpg,AFNE03.jpg,AFNE20.jpg,AFSA17.jpg,AFNE03.jpg,FN,3,num_6,32,num_4,0.766812250018,,,2018_Feb_27_1507,60.0112600285,FEMA4ImagesEEG,001,102686,
AFNE01.JPG,AFNE01.JPG,AFNE01.JPG,AFNE01.JPG,AFNE01.JPG,AFNE01.JPG,2,3,23,5,,,,,,,,,,,,,,,,,,,,,,,AFNE15.jpg,AFSA13.jpg,AFSA05.jpg,AFNE02.jpg,AFNE02.jpg,FN,3,num_4,32,num_6,1.21681563393,,,2018_Feb_27_1507,60.0112600285,FEMA4ImagesEEG,001,102686,
AFNE01.JPG,AFNE01.JPG,AFNE01.JPG,AFNE01.JPG,AFNE01.JPG,AFNE01.JPG,2,4,24,9,,,,,,,,,,,,,,,,,,,,,,,AFSA19.jpg,AFNE18.jpg,AFSA02.jpg,AFNE17.jpg,AFNE17.jpg,FN,3,num_4,16,num_4,1.2168165961,,,2018_Feb_27_1507,60.0112600285,FEMA4ImagesEEG,001,102686,
AFNE01.JPG,AFNE01.JPG,AFNE01.JPG,AFNE01.JPG,AFNE01.JPG,AFNE01.JPG,2,5,25,6,,,,,,,,,,,,,,,,,,,,,,,AFSA02.jpg,AFSA17.jpg,AFNE15.jpg,AFNE08.jpg,AFNE15.jpg,FN,3,num_2,16,num_2,0.666878995835,,,2018_Feb_27_1507,60.0112600285,FEMA4ImagesEEG,001,102686,
AFNE01.JPG,AFNE01.JPG,AFNE01.JPG,AFNE01.JPG,AFNE01.JPG,AFNE01.JPG,2,6,26,1,,,,,,,,,,,,,,,,,,,,,,,AFNE19.jpg,AFNE06.jpg,AFSA09.jpg,AFSA10.jpg,AFNE19.jpg,FN,3,num_8,32,num_6,1.16671365488,,,2018_Feb_27_1507,60.0112600285,FEMA4ImagesEEG,001,102686,
AFNE01.JPG,AFNE01.JPG,AFNE01.JPG,AFNE01.JPG,AFNE01.JPG,AFNE01.JPG,2,7,27,4,,,,,,,,,,,,,,,,,,,,,,,AFNE15.jpg,AFSA11.jpg,AFNE10.jpg,AFSA13.jpg,AFNE10.jpg,FN,3,num_2,32,num_4,1.06674864748,,,2018_Feb_27_1507,60.0112600285,FEMA4ImagesEEG,001,102686,
AFNE01.JPG,AFNE01.JPG,AFNE01.JPG,AFNE01.JPG,AFNE01.JPG,AFNE01.JPG,2,8,28,8,,,,,,,,,,,,,,,,,,,,,,,AFNE06.jpg,AFNE08.jpg,AFSA18.jpg,AFSA03.jpg,AFNE06.jpg,FN,3,num_8,32,num_2,1.1835088256,,,2018_Feb_27_1507,60.0112600285,FEMA4ImagesEEG,001,102686,
AFNE01.JPG,AFNE01.JPG,AFNE01.JPG,AFNE01.JPG,AFNE01.JPG,AFNE01.JPG,2,9,29,0,,,,,,,,,,,,,,,,,,,,,,,AFNE04.jpg,AFSA15.jpg,AFNE20.jpg,AFSA18.jpg,AFSA15.jpg,FS,4,num_6,16,num_6,0.683511872659,,,2018_Feb_27_1507,60.0112600285,FEMA4ImagesEEG,001,102686,
AFNE01.JPG,AFNE01.JPG,AFNE01.JPG,AFNE01.JPG,AFNE01.JPG,AFNE01.JPG,3,0,30,5,,,,,,,,,,,,,,,,,,,,,,,AFSA03.jpg,AFNE20.jpg,AFSA15.jpg,AFNE04.jpg,AFNE20.jpg,FN,3,num_6,16,num_6,1.61675681034,,,2018_Feb_27_1507,60.0112600285,FEMA4ImagesEEG,001,102686,
AFNE01.JPG,AFNE01.JPG,AFNE01.JPG,AFNE01.JPG,AFNE01.JPG,AFNE01.JPG,3,1,31,4,,,,,,,,,,,,,,,,,,,,,,,AFNE18.jpg,AFSA20.jpg,AFSA14.jpg,AFNE01.jpg,AFSA14.jpg,FS,4,num_2,32,num_8,0.983214451466,,,2018_Feb_27_1507,60.0112600285,FEMA4ImagesEEG,001,102686,
AFNE01.JPG,AFNE01.JPG,AFNE01.JPG,AFNE01.JPG,AFNE01.JPG,AFNE01.JPG,3,2,32,9,,,,,,,,,,,,,,,,,,,,,,,AFSA14.jpg,AFNE07.jpg,AFNE18.jpg,AFSA19.jpg,AFSA19.jpg,FS,4,num_4,32,num_6,0.716829265235,,,2018_Feb_27_1507,60.0112600285,FEMA4ImagesEEG,001,102686,
AFNE01.JPG,AFNE01.JPG,AFNE01.JPG,AFNE01.JPG,AFNE01.JPG,AFNE01.JPG,3,3,33,2,,,,,,,,,,,,,,,,,,,,,,,AFSA11.jpg,AFSA18.jpg,AFNE02.jpg,AFNE06.jpg,AFSA18.jpg,FS,4,num_6,32,num_8,1.11677781877,,,2018_Feb_27_1507,60.0112600285,FEMA4ImagesEEG,001,102686,
AFNE01.JPG,AFNE01.JPG,AFNE01.JPG,AFNE01.JPG,AFNE01.JPG,AFNE01.JPG,3,4,34,3,,,,,,,,,,,,,,,,,,,,,,,AFNE15.jpg,AFNE08.jpg,AFSA11.jpg,AFSA02.jpg,AFSA11.jpg,FS,4,num_2,32,num_6,1.1167075769,,,2018_Feb_27_1507,60.0112600285,FEMA4ImagesEEG,001,102686,
AFNE01.JPG,AFNE01.JPG,AFNE01.JPG,AFNE01.JPG,AFNE01.JPG,AFNE01.JPG,3,5,35,1,,,,,,,,,,,,,,,,,,,,,,,AFSA15.jpg,AFSA18.jpg,AFNE06.jpg,AFNE16.jpg,AFSA18.jpg,FS,4,num_6,16,num_6,0.916623928235,,,2018_Feb_27_1507,60.0112600285,FEMA4ImagesEEG,001,102686,
AFNE01.JPG,AFNE01.JPG,AFNE01.JPG,AFNE01.JPG,AFNE01.JPG,AFNE01.JPG,3,6,36,0,,,,,,,,,,,,,,,,,,,,,,,AFSA09.jpg,AFNE05.jpg,AFSA05.jpg,AFNE02.jpg,AFSA05.jpg,FS,4,num_2,16,num_2,1.03348995012,,,2018_Feb_27_1507,60.0112600285,FEMA4ImagesEEG,001,102686,
AFNE01.JPG,AFNE01.JPG,AFNE01.JPG,AFNE01.JPG,AFNE01.JPG,AFNE01.JPG,3,7,37,7,,,,,,,,,,,,,,,,,,,,,,,AFNE14.jpg,AFNE08.jpg,AFSA04.jpg,AFSA03.jpg,AFNE08.jpg,FN,3,num_6,32,num_8,0.9668032052,,,2018_Feb_27_1507,60.0112600285,FEMA4ImagesEEG,001,102686,
AFNE01.JPG,AFNE01.JPG,AFNE01.JPG,AFNE01.JPG,AFNE01.JPG,AFNE01.JPG,3,8,38,8,,,,,,,,,,,,,,,,,,,,,,,AFSA16.jpg,AFNE17.jpg,AFNE07.jpg,AFSA02.jpg,AFSA16.jpg,FS,4,num_8,32,num_6,1.31677486794,,,2018_Feb_27_1507,60.0112600285,FEMA4ImagesEEG,001,102686,
AFNE01.JPG,AFNE01.JPG,AFNE01.JPG,AFNE01.JPG,AFNE01.JPG,AFNE01.JPG,3,9,39,6,,,,,,,,,,,,,,,,,,,,,,,AFSA16.jpg,AFNE08.jpg,AFNE02.jpg,AFSA13.jpg,AFNE02.jpg,FN,3,num_2,16,num_2,0.950110991718,,,2018_Feb_27_1507,60.0112600285,FEMA4ImagesEEG,001,102686,
AFNE01.JPG,AFNE01.JPG,AFNE01.JPG,AFNE01.JPG,AFNE01.JPG,AFNE01.JPG,4,0,40,2,,,,,,,,,,,,,,,,,,,,,,,AFNE06.jpg,AFNE18.jpg,AFSA01.jpg,AFSA06.jpg,AFNE06.jpg,FN,3,num_8,32,num_6,1.13333564263,,,2018_Feb_27_1507,60.0112600285,FEMA4ImagesEEG,001,102686,
AFNE01.JPG,AFNE01.JPG,AFNE01.JPG,AFNE01.JPG,AFNE01.JPG,AFNE01.JPG,4,1,41,5,,,,,,,,,,,,,,,,,,,,,,,AFSA16.jpg,AFSA02.jpg,AFNE11.jpg,AFNE16.jpg,AFSA02.jpg,FS,4,num_6,16,num_6,0.716769607854,,,2018_Feb_27_1507,60.0112600285,FEMA4ImagesEEG,001,102686,
AFNE01.JPG,AFNE01.JPG,AFNE01.JPG,AFNE01.JPG,AFNE01.JPG,AFNE01.JPG,4,2,42,8,,,,,,,,,,,,,,,,,,,,,,,AFSA17.jpg,AFNE01.jpg,AFNE20.jpg,AFSA19.jpg,AFNE20.jpg,FN,3,num_2,32,num_8,0.883184975595,,,2018_Feb_27_1507,60.0112600285,FEMA4ImagesEEG,001,102686,
AFNE01.JPG,AFNE01.JPG,AFNE01.JPG,AFNE01.JPG,AFNE01.JPG,AFNE01.JPG,4,3,43,3,,,,,,,,,,,,,,,,,,,,,,,AFNE17.jpg,AFSA06.jpg,AFNE14.jpg,AFSA07.jpg,AFSA07.jpg,FS,4,num_4,32,num_2,1.50009702356,,,2018_Feb_27_1507,60.0112600285,FEMA4ImagesEEG,001,102686,
AFNE01.JPG,AFNE01.JPG,AFNE01.JPG,AFNE01.JPG,AFNE01.JPG,AFNE01.JPG,4,4,44,6,,,,,,,,,,,,,,,,,,,,,,,AFSA19.jpg,AFNE06.jpg,AFNE08.jpg,AFSA05.jpg,AFNE06.jpg,FN,3,num_6,16,num_6,1.10012184863,,,2018_Feb_27_1507,60.0112600285,FEMA4ImagesEEG,001,102686,
AFNE01.JPG,AFNE01.JPG,AFNE01.JPG,AFNE01.JPG,AFNE01.JPG,AFNE01.JPG,4,5,45,1,,,,,,,,,,,,,,,,,,,,,,,AFNE11.jpg,AFSA03.jpg,AFSA07.jpg,AFNE16.jpg,AFSA03.jpg,FS,4,num_6,16,num_6,0.783488105983,,,2018_Feb_27_1507,60.0112600285,FEMA4ImagesEEG,001,102686,
AFNE01.JPG,AFNE01.JPG,AFNE01.JPG,AFNE01.JPG,AFNE01.JPG,AFNE01.JPG,4,6,46,7,,,,,,,,,,,,,,,,,,,,,,,AFSA12.jpg,AFNE08.jpg,AFSA11.jpg,AFNE17.jpg,AFSA12.jpg,FS,4,num_8,32,num_4,0.716741382843,,,2018_Feb_27_1507,60.0112600285,FEMA4ImagesEEG,001,102686,
AFNE01.JPG,AFNE01.JPG,AFNE01.JPG,AFNE01.JPG,AFNE01.JPG,AFNE01.JPG,4,7,47,9,,,,,,,,,,,,,,,,,,,,,,,AFNE16.jpg,AFSA14.jpg,AFSA09.jpg,AFNE11.jpg,AFSA14.jpg,FS,4,num_6,32,num_2,1.11673772638,,,2018_Feb_27_1507,60.0112600285,FEMA4ImagesEEG,001,102686,
AFNE01.JPG,AFNE01.JPG,AFNE01.JPG,AFNE01.JPG,AFNE01.JPG,AFNE01.JPG,4,8,48,0,,,,,,,,,,,,,,,,,,,,,,,AFSA06.jpg,AFSA17.jpg,AFNE18.jpg,AFNE07.jpg,AFSA17.jpg,FS,4,num_6,16,num_6,0.883474281989,,,2018_Feb_27_1507,60.0112600285,FEMA4ImagesEEG,001,102686,
AFNE01.JPG,AFNE01.JPG,AFNE01.JPG,AFNE01.JPG,AFNE01.JPG,AFNE01.JPG,4,9,49,4,,,,,,,,,,,,,,,,,,,,,,,AFNE02.jpg,AFSA07.jpg,AFSA20.jpg,AFNE17.jpg,AFNE17.jpg,FN,3,num_4,32,num_8,1.61671351059,,,2018_Feb_27_1507,60.0112600285,FEMA4ImagesEEG,001,102686,
AFNE01.JPG,AFNE01.JPG,AFNE01.JPG,AFNE01.JPG,AFNE01.JPG,AFNE01.JPG,5,0,50,9,,,,,,,,,,,,,,,,,,,,,,,AFNE03.jpg,AFNE08.jpg,AFSA01.jpg,AFSA19.jpg,AFSA19.jpg,FS,4,num_4,16,num_4,0.983453081222,,,2018_Feb_27_1507,60.0112600285,FEMA4ImagesEEG,001,102686,
AFNE01.JPG,AFNE01.JPG,AFNE01.JPG,AFNE01.JPG,AFNE01.JPG,AFNE01.JPG,5,1,51,3,,,,,,,,,,,,,,,,,,,,,,,AFSA04.jpg,AFNE11.jpg,AFSA05.jpg,AFNE02.jpg,AFNE11.jpg,FN,3,num_6,32,num_4,1.4001522226,,,2018_Feb_27_1507,60.0112600285,FEMA4ImagesEEG,001,102686,
AFNE01.JPG,AFNE01.JPG,AFNE01.JPG,AFNE01.JPG,AFNE01.JPG,AFNE01.JPG,5,2,52,4,,,,,,,,,,,,,,,,,,,,,,,AFSA01.jpg,AFSA13.jpg,AFNE20.jpg,AFNE02.jpg,AFSA01.jpg,FS,4,num_8,32,num_6,1.06679515471,,,2018_Feb_27_1507,60.0112600285,FEMA4ImagesEEG,001,102686,
AFNE01.JPG,AFNE01.JPG,AFNE01.JPG,AFNE01.JPG,AFNE01.JPG,AFNE01.JPG,5,3,53,5,,,,,,,,,,,,,,,,,,,,,,,AFSA10.jpg,AFSA17.jpg,AFNE06.jpg,AFNE19.jpg,AFNE06.jpg,FN,3,num_2,16,num_2,1.16676208645,,,2018_Feb_27_1507,60.0112600285,FEMA4ImagesEEG,001,102686,
AFNE01.JPG,AFNE01.JPG,AFNE01.JPG,AFNE01.JPG,AFNE01.JPG,AFNE01.JPG,5,4,54,6,,,,,,,,,,,,,,,,,,,,,,,AFSA02.jpg,AFNE06.jpg,AFSA01.jpg,AFNE04.jpg,AFSA02.jpg,FS,4,num_8,32,num_2,0.600216627121,,,2018_Feb_27_1507,60.0112600285,FEMA4ImagesEEG,001,102686,
AFNE01.JPG,AFNE01.JPG,AFNE01.JPG,AFNE01.JPG,AFNE01.JPG,AFNE01.JPG,5,5,55,8,,,,,,,,,,,,,,,,,,,,,,,AFNE03.jpg,AFSA05.jpg,AFSA08.jpg,AFNE17.jpg,AFSA05.jpg,FS,4,num_6,16,num_6,0.683477553655,,,2018_Feb_27_1507,60.0112600285,FEMA4ImagesEEG,001,102686,
AFNE01.JPG,AFNE01.JPG,AFNE01.JPG,AFNE01.JPG,AFNE01.JPG,AFNE01.JPG,5,6,56,1,,,,,,,,,,,,,,,,,,,,,,,AFNE17.jpg,AFSA01.jpg,AFNE05.jpg,AFSA14.jpg,AFNE17.jpg,FN,3,num_8,16,num_8,0.533508392633,,,2018_Feb_27_1507,60.0112600285,FEMA4ImagesEEG,001,102686,
AFNE01.JPG,AFNE01.JPG,AFNE01.JPG,AFNE01.JPG,AFNE01.JPG,AFNE01.JPG,5,7,57,0,,,,,,,,,,,,,,,,,,,,,,,AFNE03.jpg,AFSA14.jpg,AFSA09.jpg,AFNE04.jpg,AFSA14.jpg,FS,4,num_6,16,num_6,0.550177512923,,,2018_Feb_27_1507,60.0112600285,FEMA4ImagesEEG,001,102686,
AFNE01.JPG,AFNE01.JPG,AFNE01.JPG,AFNE01.JPG,AFNE01.JPG,AFNE01.JPG,5,8,58,2,,,,,,,,,,,,,,,,,,,,,,,AFSA19.jpg,AFNE05.jpg,AFSA01.jpg,AFNE06.jpg,AFSA19.jpg,FS,4,num_8,16,num_8,0.616786318365,,,2018_Feb_27_1507,60.0112600285,FEMA4ImagesEEG,001,102686,
AFNE01.JPG,AFNE01.JPG,AFNE01.JPG,AFNE01.JPG,AFNE01.JPG,AFNE01.JPG,5,9,59,7,,,,,,,,,,,,,,,,,,,,,,,AFNE18.jpg,AFSA13.jpg,AFNE13.jpg,AFSA11.jpg,AFNE18.jpg,FN,3,num_8,32,num_2,0.98345981678,,,2018_Feb_27_1507,60.0112600285,FEMA4ImagesEEG,001,102686,
,,,,,,,,,,,,,,,,,,,,,,,,,,,,,,,,,,,,,,,,,,,space,17.8820835582,2018_Feb_27_1507,60.0112600285,FEMA4ImagesEEG,001,102686,
AFNE01.JPG,AFNE01.JPG,AFNE01.JPG,AFNE01.JPG,AFNE01.JPG,AFNE01.JPG,,,,,0,0,0,1,,,,,,,,,,,,,,,,,,,AMSA08.jpg,AMNE09.jpg,AMNE17.jpg,AMSA04.jpg,AMNE09.jpg,MN,1,num_6,16,num_6,2.09980110987,,,2018_Feb_27_1507,60.0112600285,FEMA4ImagesEEG,001,102686,
AFNE01.JPG,AFNE01.JPG,AFNE01.JPG,AFNE01.JPG,AFNE01.JPG,AFNE01.JPG,,,,,0,1,1,9,,,,,,,,,,,,,,,,,,,AMNE08.jpg,AMSA16.jpg,AMSA04.jpg,AMNE16.jpg,AMSA16.jpg,MS,2,num_6,16,num_6,0.866800671327,,,2018_Feb_27_1507,60.0112600285,FEMA4ImagesEEG,001,102686,
AFNE01.JPG,AFNE01.JPG,AFNE01.JPG,AFNE01.JPG,AFNE01.JPG,AFNE01.JPG,,,,,0,2,2,6,,,,,,,,,,,,,,,,,,,AMNE06.jpg,AMSA03.jpg,AMSA04.jpg,AMNE13.jpg,AMSA04.jpg,MS,2,num_2,32,num_6,0.900144043844,,,2018_Feb_27_1507,60.0112600285,FEMA4ImagesEEG,001,102686,
AFNE01.JPG,AFNE01.JPG,AFNE01.JPG,AFNE01.JPG,AFNE01.JPG,AFNE01.JPG,,,,,0,3,3,8,,,,,,,,,,,,,,,,,,,AMNE11.jpg,AMSA03.jpg,AMNE01.jpg,AMSA13.jpg,AMNE01.jpg,MN,1,num_2,16,num_2,0.733502234449,,,2018_Feb_27_1507,60.0112600285,FEMA4ImagesEEG,001,102686,
AFNE01.JPG,AFNE01.JPG,AFNE01.JPG,AFNE01.JPG,AFNE01.JPG,AFNE01.JPG,,,,,0,4,4,5,,,,,,,,,,,,,,,,,,,AMSA12.jpg,AMNE06.jpg,AMNE02.jpg,AMSA06.jpg,AMSA06.jpg,MS,2,num_4,16,num_4,0.566792428377,,,2018_Feb_27_1507,60.0112600285,FEMA4ImagesEEG,001,102686,
AFNE01.JPG,AFNE01.JPG,AFNE01.JPG,AFNE01.JPG,AFNE01.JPG,AFNE01.JPG,,,,,0,5,5,0,,,,,,,,,,,,,,,,,,,AMSA17.jpg,AMSA03.jpg,AMNE17.jpg,AMNE02.jpg,AMNE02.jpg,MN,1,num_4,16,num_4,0.916790070944,,,2018_Feb_27_1507,60.0112600285,FEMA4ImagesEEG,001,102686,
AFNE01.JPG,AFNE01.JPG,AFNE01.JPG,AFNE01.JPG,AFNE01.JPG,AFNE01.JPG,,,,,0,6,6,3,,,,,,,,,,,,,,,,,,,AMSA10.jpg,AMNE04.jpg,AMSA11.jpg,AMNE03.jpg,AMNE04.jpg,MN,1,num_6,16,num_6,0.50022628135,,,2018_Feb_27_1507,60.0112600285,FEMA4ImagesEEG,001,102686,
AFNE01.JPG,AFNE01.JPG,AFNE01.JPG,AFNE01.JPG,AFNE01.JPG,AFNE01.JPG,,,,,0,7,7,4,,,,,,,,,,,,,,,,,,,AMNE15.jpg,AMSA04.jpg,AMNE18.jpg,AMSA18.jpg,AMNE18.jpg,MN,1,num_2,32,num_8,0.750132224639,,,2018_Feb_27_1507,60.0112600285,FEMA4ImagesEEG,001,102686,
AFNE01.JPG,AFNE01.JPG,AFNE01.JPG,AFNE01.JPG,AFNE01.JPG,AFNE01.JPG,,,,,0,8,8,7,,,,,,,,,,,,,,,,,,,AMSA10.jpg,AMSA20.jpg,AMNE07.jpg,AMNE09.jpg,AMSA10.jpg,MS,2,num_8,16,num_8,1.18344916822,,,2018_Feb_27_1507,60.0112600285,FEMA4ImagesEEG,001,102686,
AFNE01.JPG,AFNE01.JPG,AFNE01.JPG,AFNE01.JPG,AFNE01.JPG,AFNE01.JPG,,,,,0,9,9,2,,,,,,,,,,,,,,,,,,,AMNE19.jpg,AMSA13.jpg,AMSA06.jpg,AMNE20.jpg,AMSA13.jpg,MS,2,num_6,16,num_6,0.483569990611,,,2018_Feb_27_1507,60.0112600285,FEMA4ImagesEEG,001,102686,
AFNE01.JPG,AFNE01.JPG,AFNE01.JPG,AFNE01.JPG,AFNE01.JPG,AFNE01.JPG,,,,,1,0,10,3,,,,,,,,,,,,,,,,,,,AMSA18.jpg,AMNE10.jpg,AMNE13.jpg,AMSA14.jpg,AMSA18.jpg,MS,2,num_8,32,num_2,0.983493173611,,,2018_Feb_27_1507,60.0112600285,FEMA4ImagesEEG,001,102686,
AFNE01.JPG,AFNE01.JPG,AFNE01.JPG,AFNE01.JPG,AFNE01.JPG,AFNE01.JPG,,,,,1,1,11,5,,,,,,,,,,,,,,,,,,,AMSA12.jpg,AMNE05.jpg,AMSA14.jpg,AMNE16.jpg,AMSA14.jpg,MS,2,num_2,16,num_2,0.80002476112,,,2018_Feb_27_1507,60.0112600285,FEMA4ImagesEEG,001,102686,
AFNE01.JPG,AFNE01.JPG,AFNE01.JPG,AFNE01.JPG,AFNE01.JPG,AFNE01.JPG,,,,,1,2,12,0,,,,,,,,,,,,,,,,,,,AMSA12.jpg,AMNE11.jpg,AMSA16.jpg,AMNE08.jpg,AMNE08.jpg,MN,1,num_4,32,num_6,0.716900789994,,,2018_Feb_27_1507,60.0112600285,FEMA4ImagesEEG,001,102686,
AFNE01.JPG,AFNE01.JPG,AFNE01.JPG,AFNE01.JPG,AFNE01.JPG,AFNE01.JPG,,,,,1,3,13,9,,,,,,,,,,,,,,,,,,,AMNE06.jpg,AMSA13.jpg,AMNE10.jpg,AMSA02.jpg,AMNE06.jpg,MN,1,num_8,32,num_2,1.01673839998,,,2018_Feb_27_1507,60.0112600285,FEMA4ImagesEEG,001,102686,
AFNE01.JPG,AFNE01.JPG,AFNE01.JPG,AFNE01.JPG,AFNE01.JPG,AFNE01.JPG,,,,,1,4,14,2,,,,,,,,,,,,,,,,,,,AMNE17.jpg,AMNE06.jpg,AMSA02.jpg,AMSA13.jpg,AMSA02.jpg,MS,2,num_2,16,num_2,1.13345752342,,,2018_Feb_27_1507,60.0112600285,FEMA4ImagesEEG,001,102686,
AFNE01.JPG,AFNE01.JPG,AFNE01.JPG,AFNE01.JPG,AFNE01.JPG,AFNE01.JPG,,,,,1,5,15,7,,,,,,,,,,,,,,,,,,,AMNE02.jpg,AMSA09.jpg,AMNE10.jpg,AMSA14.jpg,AMNE10.jpg,MN,1,num_2,16,num_2,0.933528470923,,,2018_Feb_27_1507,60.0112600285,FEMA4ImagesEEG,001,102686,
AFNE01.JPG,AFNE01.JPG,AFNE01.JPG,AFNE01.JPG,AFNE01.JPG,AFNE01.JPG,,,,,1,6,16,6,,,,,,,,,,,,,,,,,,,AMSA08.jpg,AMSA16.jpg,AMNE01.jpg,AMNE07.jpg,AMNE01.jpg,MN,1,num_2,16,num_2,0.81681255484,,,2018_Feb_27_1507,60.0112600285,FEMA4ImagesEEG,001,102686,
AFNE01.JPG,AFNE01.JPG,AFNE01.JPG,AFNE01.JPG,AFNE01.JPG,AFNE01.JPG,,,,,1,7,17,4,,,,,,,,,,,,,,,,,,,AMSA14.jpg,AMSA10.jpg,AMNE18.jpg,AMNE09.jpg,AMSA10.jpg,MS,2,num_6,16,num_6,0.683487496455,,,2018_Feb_27_1507,60.0112600285,FEMA4ImagesEEG,001,102686,
AFNE01.JPG,AFNE01.JPG,AFNE01.JPG,AFNE01.JPG,AFNE01.JPG,AFNE01.JPG,,,,,1,8,18,1,,,,,,,,,,,,,,,,,,,AMSA16.jpg,AMNE19.jpg,AMNE11.jpg,AMSA15.jpg,AMNE19.jpg,MN,1,num_6,32,num_2,1.45011275576,,,2018_Feb_27_1507,60.0112600285,FEMA4ImagesEEG,001,102686,
AFNE01.JPG,AFNE01.JPG,AFNE01.JPG,AFNE01.JPG,AFNE01.JPG,AFNE01.JPG,,,,,1,9,19,8,,,,,,,,,,,,,,,,,,,AMNE05.jpg,AMNE15.jpg,AMSA07.jpg,AMSA15.jpg,AMNE05.jpg,MN,1,num_8,32,num_2,0.850162341958,,,2018_Feb_27_1507,60.0112600285,FEMA4ImagesEEG,001,102686,
AFNE01.JPG,AFNE01.JPG,AFNE01.JPG,AFNE01.JPG,AFNE01.JPG,AFNE01.JPG,,,,,2,0,20,8,,,,,,,,,,,,,,,,,,,AMNE17.jpg,AMSA18.jpg,AMSA07.jpg,AMNE15.jpg,AMSA18.jpg,MS,2,num_6,16,num_6,0.516800783575,,,2018_Feb_27_1507,60.0112600285,FEMA4ImagesEEG,001,102686,
AFNE01.JPG,AFNE01.JPG,AFNE01.JPG,AFNE01.JPG,AFNE01.JPG,AFNE01.JPG,,,,,2,1,21,0,,,,,,,,,,,,,,,,,,,AMNE08.jpg,AMSA19.jpg,AMNE04.jpg,AMSA07.jpg,AMSA07.jpg,MS,2,num_4,16,num_4,0.900137308287,,,2018_Feb_27_1507,60.0112600285,FEMA4ImagesEEG,001,102686,
AFNE01.JPG,AFNE01.JPG,AFNE01.JPG,AFNE01.JPG,AFNE01.JPG,AFNE01.JPG,,,,,2,2,22,1,,,,,,,,,,,,,,,,,,,AMNE06.jpg,AMSA01.jpg,AMNE13.jpg,AMSA04.jpg,AMNE13.jpg,MN,1,num_2,32,num_8,0.800144396606,,,2018_Feb_27_1507,60.0112600285,FEMA4ImagesEEG,001,102686,
AFNE01.JPG,AFNE01.JPG,AFNE01.JPG,AFNE01.JPG,AFNE01.JPG,AFNE01.JPG,,,,,2,3,23,9,,,,,,,,,,,,,,,,,,,AMNE18.jpg,AMNE04.jpg,AMSA18.jpg,AMSA08.jpg,AMNE04.jpg,MN,1,num_6,32,num_8,1.51644893305,,,2018_Feb_27_1507,60.0112600285,FEMA4ImagesEEG,001,102686,
AFNE01.JPG,AFNE01.JPG,AFNE01.JPG,AFNE01.JPG,AFNE01.JPG,AFNE01.JPG,,,,,2,4,24,7,,,,,,,,,,,,,,,,,,,AMSA07.jpg,AMNE01.jpg,AMNE10.jpg,AMSA05.jpg,AMSA07.jpg,MS,2,num_8,16,num_8,0.483500710921,,,2018_Feb_27_1507,60.0112600285,FEMA4ImagesEEG,001,102686,
AFNE01.JPG,AFNE01.JPG,AFNE01.JPG,AFNE01.JPG,AFNE01.JPG,AFNE01.JPG,,,,,2,5,25,3,,,,,,,,,,,,,,,,,,,AMNE08.jpg,AMNE11.jpg,AMSA01.jpg,AMSA20.jpg,AMNE11.jpg,MN,1,num_6,16,num_6,0.466810742626,,,2018_Feb_27_1507,60.0112600285,FEMA4ImagesEEG,001,102686,
AFNE01.JPG,AFNE01.JPG,AFNE01.JPG,AFNE01.JPG,AFNE01.JPG,AFNE01.JPG,,,,,2,6,26,6,,,,,,,,,,,,,,,,,,,AMSA08.jpg,AMNE10.jpg,AMNE03.jpg,AMSA10.jpg,AMNE10.jpg,MN,1,num_6,16,num_6,0.450158942142,,,2018_Feb_27_1507,60.0112600285,FEMA4ImagesEEG,001,102686,
AFNE01.JPG,AFNE01.JPG,AFNE01.JPG,AFNE01.JPG,AFNE01.JPG,AFNE01.JPG,,,,,2,7,27,5,,,,,,,,,,,,,,,,,,,AMSA16.jpg,AMNE04.jpg,AMSA03.jpg,AMNE01.jpg,AMSA16.jpg,MS,2,num_8,16,num_8,0.883478451637,,,2018_Feb_27_1507,60.0112600285,FEMA4ImagesEEG,001,102686,
AFNE01.JPG,AFNE01.JPG,AFNE01.JPG,AFNE01.JPG,AFNE01.JPG,AFNE01.JPG,,,,,2,8,28,4,,,,,,,,,,,,,,,,,,,AMSA14.jpg,AMSA03.jpg,AMNE12.jpg,AMNE08.jpg,AMSA14.jpg,MS,2,num_8,16,num_8,0.833371982328,,,2018_Feb_27_1507,60.0112600285,FEMA4ImagesEEG,001,102686,
AFNE01.JPG,AFNE01.JPG,AFNE01.JPG,AFNE01.JPG,AFNE01.JPG,AFNE01.JPG,,,,,2,9,29,2,,,,,,,,,,,,,,,,,,,AMSA18.jpg,AMSA13.jpg,AMNE11.jpg,AMNE04.jpg,AMNE11.jpg,MN,1,num_2,16,num_2,0.866802275064,,,2018_Feb_27_1507,60.0112600285,FEMA4ImagesEEG,001,102686,
AFNE01.JPG,AFNE01.JPG,AFNE01.JPG,AFNE01.JPG,AFNE01.JPG,AFNE01.JPG,,,,,3,0,30,6,,,,,,,,,,,,,,,,,,,AMSA12.jpg,AMSA03.jpg,AMNE10.jpg,AMNE04.jpg,AMSA03.jpg,MS,2,num_6,16,num_6,0.583468925674,,,2018_Feb_27_1507,60.0112600285,FEMA4ImagesEEG,001,102686,
AFNE01.JPG,AFNE01.JPG,AFNE01.JPG,AFNE01.JPG,AFNE01.JPG,AFNE01.JPG,,,,,3,1,31,9,,,,,,,,,,,,,,,,,,,AMSA08.jpg,AMNE06.jpg,AMNE18.jpg,AMSA03.jpg,AMNE06.jpg,MN,1,num_6,16,num_6,1.20007915841,,,2018_Feb_27_1507,60.0112600285,FEMA4ImagesEEG,001,102686,
AFNE01.JPG,AFNE01.JPG,AFNE01.JPG,AFNE01.JPG,AFNE01.JPG,AFNE01.JPG,,,,,3,2,32,8,,,,,,,,,,,,,,,,,,,AMNE02.jpg,AMSA12.jpg,AMNE19.jpg,AMSA13.jpg,AMNE02.jpg,MN,1,num_8,16,num_8,0.66684179008,,,2018_Feb_27_1507,60.0112600285,FEMA4ImagesEEG,001,102686,
AFNE01.JPG,AFNE01.JPG,AFNE01.JPG,AFNE01.JPG,AFNE01.JPG,AFNE01.JPG,,,,,3,3,33,5,,,,,,,,,,,,,,,,,,,AMSA08.jpg,AMNE18.jpg,AMNE07.jpg,AMSA12.jpg,AMSA08.jpg,MS,2,num_8,16,num_8,1.16679576412,,,2018_Feb_27_1507,60.0112600285,FEMA4ImagesEEG,001,102686,
AFNE01.JPG,AFNE01.JPG,AFNE01.JPG,AFNE01.JPG,AFNE01.JPG,AFNE01.JPG,,,,,3,4,34,0,,,,,,,,,,,,,,,,,,,AMNE15.jpg,AMSA02.jpg,AMNE06.jpg,AMSA11.jpg,AMSA02.jpg,MS,2,num_6,16,num_6,0.566829313408,,,2018_Feb_27_1507,60.0112600285,FEMA4ImagesEEG,001,102686,
AFNE01.JPG,AFNE01.JPG,AFNE01.JPG,AFNE01.JPG,AFNE01.JPG,AFNE01.JPG,,,,,3,5,35,1,,,,,,,,,,,,,,,,,,,AMSA04.jpg,AMSA10.jpg,AMNE01.jpg,AMNE12.jpg,AMSA04.jpg,MS,2,num_8,16,num_8,0.866790086962,,,2018_Feb_27_1507,60.0112600285,FEMA4ImagesEEG,001,102686,
AFNE01.JPG,AFNE01.JPG,AFNE01.JPG,AFNE01.JPG,AFNE01.JPG,AFNE01.JPG,,,,,3,6,36,3,,,,,,,,,,,,,,,,,,,AMNE10.jpg,AMSA05.jpg,AMSA10.jpg,AMNE16.jpg,AMSA10.jpg,MS,2,num_2,32,num_6,0.550179437385,,,2018_Feb_27_1507,60.0112600285,FEMA4ImagesEEG,001,102686,
AFNE01.JPG,AFNE01.JPG,AFNE01.JPG,AFNE01.JPG,AFNE01.JPG,AFNE01.JPG,,,,,3,7,37,7,,,,,,,,,,,,,,,,,,,AMNE15.jpg,AMNE13.jpg,AMSA18.jpg,AMSA15.jpg,AMNE15.jpg,MN,1,num_8,32,num_2,1.28351071791,,,2018_Feb_27_1507,60.0112600285,FEMA4ImagesEEG,001,102686,
AFNE01.JPG,AFNE01.JPG,AFNE01.JPG,AFNE01.JPG,AFNE01.JPG,AFNE01.JPG,,,,,3,8,38,2,,,,,,,,,,,,,,,,,,,AMNE07.jpg,AMNE06.jpg,AMSA14.jpg,AMSA06.jpg,AMSA06.jpg,MS,2,num_4,16,num_4,1.16676850128,,,2018_Feb_27_1507,60.0112600285,FEMA4ImagesEEG,001,102686,
AFNE01.JPG,AFNE01.JPG,AFNE01.JPG,AFNE01.JPG,AFNE01.JPG,AFNE01.JPG,,,,,3,9,39,4,,,,,,,,,,,,,,,,,,,AMSA02.jpg,AMNE09.jpg,AMSA09.jpg,AMNE13.jpg,AMNE09.jpg,MN,1,num_6,32,num_4,1.05010069604,,,2018_Feb_27_1507,60.0112600285,FEMA4ImagesEEG,001,102686,
AFNE01.JPG,AFNE01.JPG,AFNE01.JPG,AFNE01.JPG,AFNE01.JPG,AFNE01.JPG,,,,,4,0,40,0,,,,,,,,,,,,,,,,,,,AMSA15.jpg,AMNE05.jpg,AMSA19.jpg,AMNE13.jpg,AMSA19.jpg,MS,2,num_2,16,num_2,1.11660333688,,,2018_Feb_27_1507,60.0112600285,FEMA4ImagesEEG,001,102686,
AFNE01.JPG,AFNE01.JPG,AFNE01.JPG,AFNE01.JPG,AFNE01.JPG,AFNE01.JPG,,,,,4,1,41,7,,,,,,,,,,,,,,,,,,,AMSA04.jpg,AMNE12.jpg,AMSA18.jpg,AMNE20.jpg,AMSA04.jpg,MS,2,num_8,16,num_8,0.53353886283,,,2018_Feb_27_1507,60.0112600285,FEMA4ImagesEEG,001,102686,
AFNE01.JPG,AFNE01.JPG,AFNE01.JPG,AFNE01.JPG,AFNE01.JPG,AFNE01.JPG,,,,,4,2,42,2,,,,,,,,,,,,,,,,,,,AMSA01.jpg,AMSA13.jpg,AMNE14.jpg,AMNE05.jpg,AMSA13.jpg,MS,2,num_6,16,num_6,0.433537611971,,,2018_Feb_27_1507,60.0112600285,FEMA4ImagesEEG,001,102686,
AFNE01.JPG,AFNE01.JPG,AFNE01.JPG,AFNE01.JPG,AFNE01.JPG,AFNE01.JPG,,,,,4,3,43,3,,,,,,,,,,,,,,,,,,,AMNE10.jpg,AMNE13.jpg,AMSA16.jpg,AMSA03.jpg,AMSA16.jpg,MS,2,num_2,32,num_4,1.26661259017,,,2018_Feb_27_1507,60.0112600285,FEMA4ImagesEEG,001,102686,
AFNE01.JPG,AFNE01.JPG,AFNE01.JPG,AFNE01.JPG,AFNE01.JPG,AFNE01.JPG,,,,,4,4,44,1,,,,,,,,,,,,,,,,,,,AMNE15.jpg,AMSA20.jpg,AMSA05.jpg,AMNE01.jpg,AMSA20.jpg,MS,2,num_6,16,num_6,0.416842511739,,,2018_Feb_27_1507,60.0112600285,FEMA4ImagesEEG,001,102686,
AFNE01.JPG,AFNE01.JPG,AFNE01.JPG,AFNE01.JPG,AFNE01.JPG,AFNE01.JPG,,,,,4,5,45,8,,,,,,,,,,,,,,,,,,,AMNE20.jpg,AMNE15.jpg,AMSA14.jpg,AMSA10.jpg,AMNE15.jpg,MN,1,num_6,16,num_6,1.11659756349,,,2018_Feb_27_1507,60.0112600285,FEMA4ImagesEEG,001,102686,
AFNE01.JPG,AFNE01.JPG,AFNE01.JPG,AFNE01.JPG,AFNE01.JPG,AFNE01.JPG,,,,,4,6,46,4,,,,,,,,,,,,,,,,,,,AMSA04.jpg,AMNE01.jpg,AMSA03.jpg,AMNE02.jpg,AMSA04.jpg,MS,2,num_8,16,num_8,0.766790760448,,,2018_Feb_27_1507,60.0112600285,FEMA4ImagesEEG,001,102686,
AFNE01.JPG,AFNE01.JPG,AFNE01.JPG,AFNE01.JPG,AFNE01.JPG,AFNE01.JPG,,,,,4,7,47,9,,,,,,,,,,,,,,,,,,,AMSA04.jpg,AMSA07.jpg,AMNE15.jpg,AMNE19.jpg,AMSA07.jpg,MS,2,num_6,16,num_6,0.417033992941,,,2018_Feb_27_1507,60.0112600285,FEMA4ImagesEEG,001,102686,
AFNE01.JPG,AFNE01.JPG,AFNE01.JPG,AFNE01.JPG,AFNE01.JPG,AFNE01.JPG,,,,,4,8,48,6,,,,,,,,,,,,,,,,,,,AMSA03.jpg,AMNE09.jpg,AMNE16.jpg,AMSA08.jpg,AMSA08.jpg,MS,2,num_4,32,num_8,0.966766320169,,,2018_Feb_27_1507,60.0112600285,FEMA4ImagesEEG,001,102686,
AFNE01.JPG,AFNE01.JPG,AFNE01.JPG,AFNE01.JPG,AFNE01.JPG,AFNE01.JPG,,,,,4,9,49,5,,,,,,,,,,,,,,,,,,,AMNE05.jpg,AMSA07.jpg,AMSA03.jpg,AMNE06.jpg,AMSA03.jpg,MS,2,num_2,32,num_8,0.950121255359,,,2018_Feb_27_1507,60.0112600285,FEMA4ImagesEEG,001,102686,
AFNE01.JPG,AFNE01.JPG,AFNE01.JPG,AFNE01.JPG,AFNE01.JPG,AFNE01.JPG,,,,,5,0,50,3,,,,,,,,,,,,,,,,,,,AMSA17.jpg,AMNE03.jpg,AMNE18.jpg,AMSA03.jpg,AMSA17.jpg,MS,2,num_8,16,num_8,0.733455406618,,,2018_Feb_27_1507,60.0112600285,FEMA4ImagesEEG,001,102686,
AFNE01.JPG,AFNE01.JPG,AFNE01.JPG,AFNE01.JPG,AFNE01.JPG,AFNE01.JPG,,,,,5,1,51,9,,,,,,,,,,,,,,,,,,,AMNE03.jpg,AMSA08.jpg,AMSA17.jpg,AMNE06.jpg,AMNE06.jpg,MN,1,num_4,32,num_2,1.01677560573,,,2018_Feb_27_1507,60.0112600285,FEMA4ImagesEEG,001,102686,
AFNE01.JPG,AFNE01.JPG,AFNE01.JPG,AFNE01.JPG,AFNE01.JPG,AFNE01.JPG,,,,,5,2,52,0,,,,,,,,,,,,,,,,,,,AMSA06.jpg,AMNE14.jpg,AMSA13.jpg,AMNE10.jpg,AMNE10.jpg,MN,1,num_4,16,num_4,0.70014442876,,,2018_Feb_27_1507,60.0112600285,FEMA4ImagesEEG,001,102686,
AFNE01.JPG,AFNE01.JPG,AFNE01.JPG,AFNE01.JPG,AFNE01.JPG,AFNE01.JPG,,,,,5,3,53,2,,,,,,,,,,,,,,,,,,,AMSA08.jpg,AMSA01.jpg,AMNE16.jpg,AMNE15.jpg,AMNE16.jpg,MN,1,num_2,16,num_2,1.0334700644,,,2018_Feb_27_1507,60.0112600285,FEMA4ImagesEEG,001,102686,
AFNE01.JPG,AFNE01.JPG,AFNE01.JPG,AFNE01.JPG,AFNE01.JPG,AFNE01.JPG,,,,,5,4,54,6,,,,,,,,,,,,,,,,,,,AMNE07.jpg,AMNE15.jpg,AMSA11.jpg,AMSA10.jpg,AMSA10.jpg,MS,2,num_4,16,num_4,0.483484994737,,,2018_Feb_27_1507,60.0112600285,FEMA4ImagesEEG,001,102686,
AFNE01.JPG,AFNE01.JPG,AFNE01.JPG,AFNE01.JPG,AFNE01.JPG,AFNE01.JPG,,,,,5,5,55,1,,,,,,,,,,,,,,,,,,,AMSA18.jpg,AMNE08.jpg,AMNE19.jpg,AMSA15.jpg,AMNE19.jpg,MN,1,num_2,16,num_2,0.916824390064,,,2018_Feb_27_1507,60.0112600285,FEMA4ImagesEEG,001,102686,
AFNE01.JPG,AFNE01.JPG,AFNE01.JPG,AFNE01.JPG,AFNE01.JPG,AFNE01.JPG,,,,,5,6,56,8,,,,,,,,,,,,,,,,,,,AMSA20.jpg,AMSA14.jpg,AMNE20.jpg,AMNE14.jpg,AMNE20.jpg,MN,1,num_2,32,num_8,0.533491714159,,,2018_Feb_27_1507,60.0112600285,FEMA4ImagesEEG,001,102686,
AFNE01.JPG,AFNE01.JPG,AFNE01.JPG,AFNE01.JPG,AFNE01.JPG,AFNE01.JPG,,,,,5,7,57,4,,,,,,,,,,,,,,,,,,,AMNE20.jpg,AMSA17.jpg,AMSA09.jpg,AMNE13.jpg,AMNE20.jpg,MN,1,num_8,32,num_2,1.01681986754,,,2018_Feb_27_1507,60.0112600285,FEMA4ImagesEEG,001,102686,
AFNE01.JPG,AFNE01.JPG,AFNE01.JPG,AFNE01.JPG,AFNE01.JPG,AFNE01.JPG,,,,,5,8,58,7,,,,,,,,,,,,,,,,,,,AMSA15.jpg,AMSA06.jpg,AMNE14.jpg,AMNE18.jpg,AMSA06.jpg,MS,2,num_6,16,num_6,0.566820332664,,,2018_Feb_27_1507,60.0112600285,FEMA4ImagesEEG,001,102686,
AFNE01.JPG,AFNE01.JPG,AFNE01.JPG,AFNE01.JPG,AFNE01.JPG,AFNE01.JPG,,,,,5,9,59,5,,,,,,,,,,,,,,,,,,,AMNE19.jpg,AMSA03.jpg,AMNE20.jpg,AMSA07.jpg,AMNE19.jpg,MN,1,num_8,32,num_2,1.03349508194,,,2018_Feb_27_1507,60.0112600285,FEMA4ImagesEEG,001,102686,
,,,,,,,,,,,,,,,,,,,,,,,,,,,,,,,,,,,,,,,,,,,space,11.5327395814,2018_Feb_27_1507,60.0112600285,FEMA4ImagesEEG,001,102686,
AFNE01.JPG,AFNE01.JPG,AFNE01.JPG,AFNE01.JPG,AFNE01.JPG,AFNE01.JPG,,,,,,,,,0,0,0,2,,,,,,,,,,,,,,,AFSA04.jpg,AFSA03.jpg,AFNE05.jpg,AFNE08.jpg,AFSA03.jpg,FS,4,num_6,16,num_6,1.0501395053,,,2018_Feb_27_1507,60.0112600285,FEMA4ImagesEEG,001,102686,
AFNE01.JPG,AFNE01.JPG,AFNE01.JPG,AFNE01.JPG,AFNE01.JPG,AFNE01.JPG,,,,,,,,,0,1,1,3,,,,,,,,,,,,,,,AFSA08.jpg,AFNE15.jpg,AFSA17.jpg,AFNE07.jpg,AFNE15.jpg,FN,3,num_6,16,num_6,1.23347128311,,,2018_Feb_27_1507,60.0112600285,FEMA4ImagesEEG,001,102686,
AFNE01.JPG,AFNE01.JPG,AFNE01.JPG,AFNE01.JPG,AFNE01.JPG,AFNE01.JPG,,,,,,,,,0,2,2,8,,,,,,,,,,,,,,,AFSA04.jpg,AFSA12.jpg,AFNE06.jpg,AFNE20.jpg,AFNE06.jpg,FN,3,num_2,16,num_2,1.03345755546,,,2018_Feb_27_1507,60.0112600285,FEMA4ImagesEEG,001,102686,
AFNE01.JPG,AFNE01.JPG,AFNE01.JPG,AFNE01.JPG,AFNE01.JPG,AFNE01.JPG,,,,,,,,,0,3,3,4,,,,,,,,,,,,,,,AFNE01.jpg,AFSA15.jpg,AFNE04.jpg,AFSA19.jpg,AFNE01.jpg,FN,3,num_8,16,num_8,0.80009821034,,,2018_Feb_27_1507,60.0112600285,FEMA4ImagesEEG,001,102686,
AFNE01.JPG,AFNE01.JPG,AFNE01.JPG,AFNE01.JPG,AFNE01.JPG,AFNE01.JPG,,,,,,,,,0,4,4,6,,,,,,,,,,,,,,,AFSA20.jpg,AFSA06.jpg,AFNE14.jpg,AFNE01.jpg,AFSA06.jpg,FS,4,num_6,32,num_8,0.666607009131,,,2018_Feb_27_1507,60.0112600285,FEMA4ImagesEEG,001,102686,
AFNE01.JPG,AFNE01.JPG,AFNE01.JPG,AFNE01.JPG,AFNE01.JPG,AFNE01.JPG,,,,,,,,,0,5,5,5,,,,,,,,,,,,,,,AFSA02.jpg,AFNE16.jpg,AFNE02.jpg,AFSA14.jpg,AFSA14.jpg,FS,4,num_4,16,num_4,0.80012964271,,,2018_Feb_27_1507,60.0112600285,FEMA4ImagesEEG,001,102686,
AFNE01.JPG,AFNE01.JPG,AFNE01.JPG,AFNE01.JPG,AFNE01.JPG,AFNE01.JPG,,,,,,,,,0,6,6,1,,,,,,,,,,,,,,,AFSA19.jpg,AFNE18.jpg,AFSA08.jpg,AFNE13.jpg,AFSA19.jpg,FS,4,num_8,32,num_2,0.899857624085,,,2018_Feb_27_1507,60.0112600285,FEMA4ImagesEEG,001,102686,
AFNE01.JPG,AFNE01.JPG,AFNE01.JPG,AFNE01.JPG,AFNE01.JPG,AFNE01.JPG,,,,,,,,,0,7,7,7,,,,,,,,,,,,,,,AFNE10.jpg,AFSA09.jpg,AFSA13.jpg,AFNE16.jpg,AFNE10.jpg,FN,3,num_8,32,num_2,0.866818311973,,,2018_Feb_27_1507,60.0112600285,FEMA4ImagesEEG,001,102686,
AFNE01.JPG,AFNE01.JPG,AFNE01.JPG,AFNE01.JPG,AFNE01.JPG,AFNE01.JPG,,,,,,,,,0,8,8,9,,,,,,,,,,,,,,,AFNE20.jpg,AFNE05.jpg,AFSA13.jpg,AFSA06.jpg,AFNE05.jpg,FN,3,num_6,16,num_6,0.80020020518,,,2018_Feb_27_1507,60.0112600285,FEMA4ImagesEEG,001,102686,
AFNE01.JPG,AFNE01.JPG,AFNE01.JPG,AFNE01.JPG,AFNE01.JPG,AFNE01.JPG,,,,,,,,,0,9,9,0,,,,,,,,,,,,,,,AFSA08.jpg,AFNE06.jpg,AFNE17.jpg,AFSA07.jpg,AFSA07.jpg,FS,4,num_4,16,num_4,0.666780208237,,,2018_Feb_27_1507,60.0112600285,FEMA4ImagesEEG,001,102686,
AFNE01.JPG,AFNE01.JPG,AFNE01.JPG,AFNE01.JPG,AFNE01.JPG,AFNE01.JPG,,,,,,,,,1,0,10,8,,,,,,,,,,,,,,,AFSA06.jpg,AFNE05.jpg,AFSA08.jpg,AFNE04.jpg,AFNE05.jpg,FN,3,num_6,16,num_6,0.85013283405,,,2018_Feb_27_1507,60.0112600285,FEMA4ImagesEEG,001,102686,
AFNE01.JPG,AFNE01.JPG,AFNE01.JPG,AFNE01.JPG,AFNE01.JPG,AFNE01.JPG,,,,,,,,,1,1,11,0,,,,,,,,,,,,,,,AFSA18.jpg,AFSA19.jpg,AFNE19.jpg,AFNE17.jpg,AFNE17.jpg,FN,3,num_4,16,num_4,0.550209586858,,,2018_Feb_27_1507,60.0112600285,FEMA4ImagesEEG,001,102686,
AFNE01.JPG,AFNE01.JPG,AFNE01.JPG,AFNE01.JPG,AFNE01.JPG,AFNE01.JPG,,,,,,,,,1,2,12,6,,,,,,,,,,,,,,,AFSA06.jpg,AFNE02.jpg,AFNE15.jpg,AFSA17.jpg,AFNE15.jpg,FN,3,num_2,32,num_6,0.850334258052,,,2018_Feb_27_1507,60.0112600285,FEMA4ImagesEEG,001,102686,
AFNE01.JPG,AFNE01.JPG,AFNE01.JPG,AFNE01.JPG,AFNE01.JPG,AFNE01.JPG,,,,,,,,,1,3,13,4,,,,,,,,,,,,,,,AFNE06.jpg,AFNE12.jpg,AFSA17.jpg,AFSA08.jpg,AFNE06.jpg,FN,3,num_8,32,num_6,0.78353621671,,,2018_Feb_27_1507,60.0112600285,FEMA4ImagesEEG,001,102686,
AFNE01.JPG,AFNE01.JPG,AFNE01.JPG,AFNE01.JPG,AFNE01.JPG,AFNE01.JPG,,,,,,,,,1,4,14,5,,,,,,,,,,,,,,,AFNE04.jpg,AFNE03.jpg,AFSA13.jpg,AFSA04.jpg,AFNE04.jpg,FN,3,num_8,16,num_8,1.25008908531,,,2018_Feb_27_1507,60.0112600285,FEMA4ImagesEEG,001,102686,
AFNE01.JPG,AFNE01.JPG,AFNE01.JPG,AFNE01.JPG,AFNE01.JPG,AFNE01.JPG,,,,,,,,,1,5,15,9,,,,,,,,,,,,,,,AFSA11.jpg,AFNE18.jpg,AFNE13.jpg,AFSA08.jpg,AFNE18.jpg,FN,3,num_6,32,num_2,1.00010937196,,,2018_Feb_27_1507,60.0112600285,FEMA4ImagesEEG,001,102686,
AFNE01.JPG,AFNE01.JPG,AFNE01.JPG,AFNE01.JPG,AFNE01.JPG,AFNE01.JPG,,,,,,,,,1,6,16,3,,,,,,,,,,,,,,,AFNE18.jpg,AFSA12.jpg,AFSA14.jpg,AFNE17.jpg,AFSA12.jpg,FS,4,num_6,16,num_6,0.450173054589,,,2018_Feb_27_1507,60.0112600285,FEMA4ImagesEEG,001,102686,
AFNE01.JPG,AFNE01.JPG,AFNE01.JPG,AFNE01.JPG,AFNE01.JPG,AFNE01.JPG,,,,,,,,,1,7,17,2,,,,,,,,,,,,,,,AFNE13.jpg,AFSA06.jpg,AFNE11.jpg,AFSA17.jpg,AFSA06.jpg,FS,4,num_6,32,num_4,0.600181024987,,,2018_Feb_27_1507,60.0112600285,FEMA4ImagesEEG,001,102686,
AFNE01.JPG,AFNE01.JPG,AFNE01.JPG,AFNE01.JPG,AFNE01.JPG,AFNE01.JPG,,,,,,,,,1,8,18,1,,,,,,,,,,,,,,,AFNE18.jpg,AFSA12.jpg,AFNE19.jpg,AFSA17.jpg,AFNE18.jpg,FN,3,num_8,16,num_8,1.36678543629,,,2018_Feb_27_1507,60.0112600285,FEMA4ImagesEEG,001,102686,
AFNE01.JPG,AFNE01.JPG,AFNE01.JPG,AFNE01.JPG,AFNE01.JPG,AFNE01.JPG,,,,,,,,,1,9,19,7,,,,,,,,,,,,,,,AFSA16.jpg,AFNE18.jpg,AFNE15.jpg,AFSA08.jpg,AFSA08.jpg,FS,4,num_4,32,num_2,1.61678375246,,,2018_Feb_27_1507,60.0112600285,FEMA4ImagesEEG,001,102686,
AFNE01.JPG,AFNE01.JPG,AFNE01.JPG,AFNE01.JPG,AFNE01.JPG,AFNE01.JPG,,,,,,,,,2,0,20,2,,,,,,,,,,,,,,,AFSA16.jpg,AFNE19.jpg,AFNE04.jpg,AFSA05.jpg,AFSA05.jpg,FS,4,num_4,16,num_4,0.783847654122,,,2018_Feb_27_1507,60.0112600285,FEMA4ImagesEEG,001,102686,
AFNE01.JPG,AFNE01.JPG,AFNE01.JPG,AFNE01.JPG,AFNE01.JPG,AFNE01.JPG,,,,,,,,,2,1,21,7,,,,,,,,,,,,,,,AFNE15.jpg,AFNE11.jpg,AFSA04.jpg,AFSA14.jpg,AFNE11.jpg,FN,3,num_6,16,num_6,1.13359479967,,,2018_Feb_27_1507,60.0112600285,FEMA4ImagesEEG,001,102686,
AFNE01.JPG,AFNE01.JPG,AFNE01.JPG,AFNE01.JPG,AFNE01.JPG,AFNE01.JPG,,,,,,,,,2,2,22,5,,,,,,,,,,,,,,,AFSA14.jpg,AFNE02.jpg,AFNE18.jpg,AFSA13.jpg,AFNE18.jpg,FN,3,num_2,32,num_4,0.616834429093,,,2018_Feb_27_1507,60.0112600285,FEMA4ImagesEEG,001,102686,
AFNE01.JPG,AFNE01.JPG,AFNE01.JPG,AFNE01.JPG,AFNE01.JPG,AFNE01.JPG,,,,,,,,,2,3,23,4,,,,,,,,,,,,,,,AFSA19.jpg,AFSA03.jpg,AFNE10.jpg,AFNE02.jpg,AFNE10.jpg,FN,3,num_2,16,num_2,1.66670515528,,,2018_Feb_27_1507,60.0112600285,FEMA4ImagesEEG,001,102686,
AFNE01.JPG,AFNE01.JPG,AFNE01.JPG,AFNE01.JPG,AFNE01.JPG,AFNE01.JPG,,,,,,,,,2,4,24,9,,,,,,,,,,,,,,,AFNE01.jpg,AFNE11.jpg,AFSA01.jpg,AFSA15.jpg,AFSA15.jpg,FS,4,num_4,16,num_4,0.416821984574,,,2018_Feb_27_1507,60.0112600285,FEMA4ImagesEEG,001,102686,
AFNE01.JPG,AFNE01.JPG,AFNE01.JPG,AFNE01.JPG,AFNE01.JPG,AFNE01.JPG,,,,,,,,,2,5,25,8,,,,,,,,,,,,,,,AFSA07.jpg,AFSA10.jpg,AFNE13.jpg,AFNE12.jpg,AFNE12.jpg,FN,3,num_4,16,num_4,0.950134084909,,,2018_Feb_27_1507,60.0112600285,FEMA4ImagesEEG,001,102686,
AFNE01.JPG,AFNE01.JPG,AFNE01.JPG,AFNE01.JPG,AFNE01.JPG,AFNE01.JPG,,,,,,,,,2,6,26,1,,,,,,,,,,,,,,,AFNE14.jpg,AFNE18.jpg,AFSA16.jpg,AFSA13.jpg,AFSA16.jpg,FS,4,num_2,32,num_4,0.550174947013,,,2018_Feb_27_1507,60.0112600285,FEMA4ImagesEEG,001,102686,
AFNE01.JPG,AFNE01.JPG,AFNE01.JPG,AFNE01.JPG,AFNE01.JPG,AFNE01.JPG,,,,,,,,,2,7,27,0,,,,,,,,,,,,,,,AFSA16.jpg,AFSA03.jpg,AFNE01.jpg,AFNE02.jpg,AFSA16.jpg,FS,4,num_8,32,num_6,0.68347434618,,,2018_Feb_27_1507,60.0112600285,FEMA4ImagesEEG,001,102686,
AFNE01.JPG,AFNE01.JPG,AFNE01.JPG,AFNE01.JPG,AFNE01.JPG,AFNE01.JPG,,,,,,,,,2,8,28,6,,,,,,,,,,,,,,,AFNE13.jpg,AFNE09.jpg,AFSA10.jpg,AFSA12.jpg,AFNE13.jpg,FN,3,num_8,32,num_6,0.800190262264,,,2018_Feb_27_1507,60.0112600285,FEMA4ImagesEEG,001,102686,
AFNE01.JPG,AFNE01.JPG,AFNE01.JPG,AFNE01.JPG,AFNE01.JPG,AFNE01.JPG,,,,,,,,,2,9,29,3,,,,,,,,,,,,,,,AFSA07.jpg,AFSA20.jpg,AFNE16.jpg,AFNE17.jpg,AFSA20.jpg,FS,4,num_6,32,num_4,0.666828319081,,,2018_Feb_27_1507,60.0112600285,FEMA4ImagesEEG,001,102686,
AFNE01.JPG,AFNE01.JPG,AFNE01.JPG,AFNE01.JPG,AFNE01.JPG,AFNE01.JPG,,,,,,,,,3,0,30,6,,,,,,,,,,,,,,,AFSA14.jpg,AFSA05.jpg,AFNE05.jpg,AFNE15.jpg,AFNE15.jpg,FN,3,num_4,16,num_4,0.700123580638,,,2018_Feb_27_1507,60.0112600285,FEMA4ImagesEEG,001,102686,
AFNE01.JPG,AFNE01.JPG,AFNE01.JPG,AFNE01.JPG,AFNE01.JPG,AFNE01.JPG,,,,,,,,,3,1,31,3,,,,,,,,,,,,,,,AFSA17.jpg,AFNE13.jpg,AFNE11.jpg,AFSA09.jpg,AFSA09.jpg,FS,4,num_4,16,num_4,0.783497728058,,,2018_Feb_27_1507,60.0112600285,FEMA4ImagesEEG,001,102686,
AFNE01.JPG,AFNE01.JPG,AFNE01.JPG,AFNE01.JPG,AFNE01.JPG,AFNE01.JPG,,,,,,,,,3,2,32,2,,,,,,,,,,,,,,,AFSA15.jpg,AFNE20.jpg,AFSA01.jpg,AFNE14.jpg,AFSA15.jpg,FS,4,num_8,32,num_2,1.25040469225,,,2018_Feb_27_1507,60.0112600285,FEMA4ImagesEEG,001,102686,
AFNE01.JPG,AFNE01.JPG,AFNE01.JPG,AFNE01.JPG,AFNE01.JPG,AFNE01.JPG,,,,,,,,,3,3,33,5,,,,,,,,,,,,,,,AFSA02.jpg,AFNE04.jpg,AFNE14.jpg,AFSA07.jpg,AFNE04.jpg,FN,3,num_6,32,num_2,1.05011416692,,,2018_Feb_27_1507,60.0112600285,FEMA4ImagesEEG,001,102686,
AFNE01.JPG,AFNE01.JPG,AFNE01.JPG,AFNE01.JPG,AFNE01.JPG,AFNE01.JPG,,,,,,,,,3,4,34,4,,,,,,,,,,,,,,,AFNE09.jpg,AFNE08.jpg,AFSA10.jpg,AFSA07.jpg,AFNE09.jpg,FN,3,num_8,16,num_8,0.950128953089,,,2018_Feb_27_1507,60.0112600285,FEMA4ImagesEEG,001,102686,
AFNE01.JPG,AFNE01.JPG,AFNE01.JPG,AFNE01.JPG,AFNE01.JPG,AFNE01.JPG,,,,,,,,,3,5,35,0,,,,,,,,,,,,,,,AFNE06.jpg,AFSA18.jpg,AFSA06.jpg,AFNE09.jpg,AFSA06.jpg,FS,4,num_2,32,num_6,0.533558748662,,,2018_Feb_27_1507,60.0112600285,FEMA4ImagesEEG,001,102686,
AFNE01.JPG,AFNE01.JPG,AFNE01.JPG,AFNE01.JPG,AFNE01.JPG,AFNE01.JPG,,,,,,,,,3,6,36,7,,,,,,,,,,,,,,,AFNE13.jpg,AFSA04.jpg,AFNE03.jpg,AFSA03.jpg,AFNE13.jpg,FN,3,num_8,16,num_8,1.10010709462,,,2018_Feb_27_1507,60.0112600285,FEMA4ImagesEEG,001,102686,
AFNE01.JPG,AFNE01.JPG,AFNE01.JPG,AFNE01.JPG,AFNE01.JPG,AFNE01.JPG,,,,,,,,,3,7,37,8,,,,,,,,,,,,,,,AFNE04.jpg,AFNE15.jpg,AFSA14.jpg,AFSA01.jpg,AFNE15.jpg,FN,3,num_6,16,num_6,0.716781154391,,,2018_Feb_27_1507,60.0112600285,FEMA4ImagesEEG,001,102686,
AFNE01.JPG,AFNE01.JPG,AFNE01.JPG,AFNE01.JPG,AFNE01.JPG,AFNE01.JPG,,,,,,,,,3,8,38,9,,,,,,,,,,,,,,,AFSA09.jpg,AFNE05.jpg,AFNE11.jpg,AFSA13.jpg,AFSA13.jpg,FS,4,num_4,16,num_4,0.616771885077,,,2018_Feb_27_1507,60.0112600285,FEMA4ImagesEEG,001,102686,
AFNE01.JPG,AFNE01.JPG,AFNE01.JPG,AFNE01.JPG,AFNE01.JPG,AFNE01.JPG,,,,,,,,,3,9,39,1,,,,,,,,,,,,,,,AFSA18.jpg,AFNE12.jpg,AFSA07.jpg,AFNE10.jpg,AFNE12.jpg,FN,3,num_6,32,num_8,1.08345753944,,,2018_Feb_27_1507,60.0112600285,FEMA4ImagesEEG,001,102686,
AFNE01.JPG,AFNE01.JPG,AFNE01.JPG,AFNE01.JPG,AFNE01.JPG,AFNE01.JPG,,,,,,,,,4,0,40,4,,,,,,,,,,,,,,,AFNE07.jpg,AFSA13.jpg,AFSA20.jpg,AFNE15.jpg,AFNE15.jpg,FN,3,num_4,16,num_4,1.33315179509,,,2018_Feb_27_1507,60.0112600285,FEMA4ImagesEEG,001,102686,
AFNE01.JPG,AFNE01.JPG,AFNE01.JPG,AFNE01.JPG,AFNE01.JPG,AFNE01.JPG,,,,,,,,,4,1,41,1,,,,,,,,,,,,,,,AFNE05.jpg,AFSA08.jpg,AFNE11.jpg,AFSA18.jpg,AFNE11.jpg,FN,3,num_2,16,num_2,0.983461741125,,,2018_Feb_27_1507,60.0112600285,FEMA4ImagesEEG,001,102686,
AFNE01.JPG,AFNE01.JPG,AFNE01.JPG,AFNE01.JPG,AFNE01.JPG,AFNE01.JPG,,,,,,,,,4,2,42,8,,,,,,,,,,,,,,,AFNE11.jpg,AFNE12.jpg,AFSA09.jpg,AFSA07.jpg,AFSA09.jpg,FS,4,num_2,32,num_4,0.850140852388,,,2018_Feb_27_1507,60.0112600285,FEMA4ImagesEEG,001,102686,
AFNE01.JPG,AFNE01.JPG,AFNE01.JPG,AFNE01.JPG,AFNE01.JPG,AFNE01.JPG,,,,,,,,,4,3,43,3,,,,,,,,,,,,,,,AFSA10.jpg,AFNE16.jpg,AFSA09.jpg,AFNE10.jpg,AFNE16.jpg,FN,3,num_6,16,num_6,0.650179726072,,,2018_Feb_27_1507,60.0112600285,FEMA4ImagesEEG,001,102686,
AFNE01.JPG,AFNE01.JPG,AFNE01.JPG,AFNE01.JPG,AFNE01.JPG,AFNE01.JPG,,,,,,,,,4,4,44,6,,,,,,,,,,,,,,,AFNE11.jpg,AFSA10.jpg,AFSA15.jpg,AFNE20.jpg,AFSA10.jpg,FS,4,num_6,32,num_4,0.850136682857,,,2018_Feb_27_1507,60.0112600285,FEMA4ImagesEEG,001,102686,
AFNE01.JPG,AFNE01.JPG,AFNE01.JPG,AFNE01.JPG,AFNE01.JPG,AFNE01.JPG,,,,,,,,,4,5,45,2,,,,,,,,,,,,,,,AFSA16.jpg,AFNE07.jpg,AFNE20.jpg,AFSA20.jpg,AFNE20.jpg,FN,3,num_2,32,num_6,1.01677175681,,,2018_Feb_27_1507,60.0112600285,FEMA4ImagesEEG,001,102686,
AFNE01.JPG,AFNE01.JPG,AFNE01.JPG,AFNE01.JPG,AFNE01.JPG,AFNE01.JPG,,,,,,,,,4,6,46,0,,,,,,,,,,,,,,,AFNE04.jpg,AFSA10.jpg,AFNE15.jpg,AFSA19.jpg,AFSA10.jpg,FS,4,num_6,32,num_8,0.866640302003,,,2018_Feb_27_1507,60.0112600285,FEMA4ImagesEEG,001,102686,
AFNE01.JPG,AFNE01.JPG,AFNE01.JPG,AFNE01.JPG,AFNE01.JPG,AFNE01.JPG,,,,,,,,,4,7,47,7,,,,,,,,,,,,,,,AFSA17.jpg,AFNE09.jpg,AFSA08.jpg,AFNE15.jpg,AFSA17.jpg,FS,4,num_8,16,num_8,0.750166864367,,,2018_Feb_27_1507,60.0112600285,FEMA4ImagesEEG,001,102686,
AFNE01.JPG,AFNE01.JPG,AFNE01.JPG,AFNE01.JPG,AFNE01.JPG,AFNE01.JPG,,,,,,,,,4,8,48,5,,,,,,,,,,,,,,,AFNE01.jpg,AFSA19.jpg,AFNE12.jpg,AFSA02.jpg,AFSA02.jpg,FS,4,num_4,16,num_4,0.83349931566,,,2018_Feb_27_1507,60.0112600285,FEMA4ImagesEEG,001,102686,
AFNE01.JPG,AFNE01.JPG,AFNE01.JPG,AFNE01.JPG,AFNE01.JPG,AFNE01.JPG,,,,,,,,,4,9,49,9,,,,,,,,,,,,,,,AFNE09.jpg,AFNE05.jpg,AFSA08.jpg,AFSA10.jpg,AFNE09.jpg,FN,3,num_8,32,num_2,1.25015579886,,,2018_Feb_27_1507,60.0112600285,FEMA4ImagesEEG,001,102686,
AFNE01.JPG,AFNE01.JPG,AFNE01.JPG,AFNE01.JPG,AFNE01.JPG,AFNE01.JPG,,,,,,,,,5,0,50,0,,,,,,,,,,,,,,,AFNE04.jpg,AFNE18.jpg,AFSA03.jpg,AFSA18.jpg,AFNE18.jpg,FN,3,num_6,16,num_6,0.633583092596,,,2018_Feb_27_1507,60.0112600285,FEMA4ImagesEEG,001,102686,
AFNE01.JPG,AFNE01.JPG,AFNE01.JPG,AFNE01.JPG,AFNE01.JPG,AFNE01.JPG,,,,,,,,,5,1,51,3,,,,,,,,,,,,,,,AFNE08.jpg,AFNE11.jpg,AFSA18.jpg,AFSA12.jpg,AFNE11.jpg,FN,3,num_6,16,num_6,0.566795956576,,,2018_Feb_27_1507,60.0112600285,FEMA4ImagesEEG,001,102686,
AFNE01.JPG,AFNE01.JPG,AFNE01.JPG,AFNE01.JPG,AFNE01.JPG,AFNE01.JPG,,,,,,,,,5,2,52,6,,,,,,,,,,,,,,,AFSA05.jpg,AFSA02.jpg,AFNE14.jpg,AFNE10.jpg,AFSA02.jpg,FS,4,num_6,16,num_6,1.21658822999,,,2018_Feb_27_1507,60.0112600285,FEMA4ImagesEEG,001,102686,
AFNE01.JPG,AFNE01.JPG,AFNE01.JPG,AFNE01.JPG,AFNE01.JPG,AFNE01.JPG,,,,,,,,,5,3,53,7,,,,,,,,,,,,,,,AFSA04.jpg,AFNE01.jpg,AFSA06.jpg,AFNE07.jpg,AFSA04.jpg,FS,4,num_8,16,num_8,1.03347166802,,,2018_Feb_27_1507,60.0112600285,FEMA4ImagesEEG,001,102686,
AFNE01.JPG,AFNE01.JPG,AFNE01.JPG,AFNE01.JPG,AFNE01.JPG,AFNE01.JPG,,,,,,,,,5,4,54,9,,,,,,,,,,,,,,,AFSA15.jpg,AFNE20.jpg,AFNE10.jpg,AFSA10.jpg,AFNE20.jpg,FN,3,num_6,16,num_6,0.850497193402,,,2018_Feb_27_1507,60.0112600285,FEMA4ImagesEEG,001,102686,
AFNE01.JPG,AFNE01.JPG,AFNE01.JPG,AFNE01.JPG,AFNE01.JPG,AFNE01.JPG,,,,,,,,,5,5,55,8,,,,,,,,,,,,,,,AFSA07.jpg,AFNE14.jpg,AFSA18.jpg,AFNE03.jpg,AFSA18.jpg,FS,4,num_2,16,num_2,0.883512129192,,,2018_Feb_27_1507,60.0112600285,FEMA4ImagesEEG,001,102686,
AFNE01.JPG,AFNE01.JPG,AFNE01.JPG,AFNE01.JPG,AFNE01.JPG,AFNE01.JPG,,,,,,,,,5,6,56,2,,,,,,,,,,,,,,,AFNE17.jpg,AFSA05.jpg,AFNE01.jpg,AFSA12.jpg,AFNE17.jpg,FN,3,num_8,16,num_8,0.583493622602,,,2018_Feb_27_1507,60.0112600285,FEMA4ImagesEEG,001,102686,
AFNE01.JPG,AFNE01.JPG,AFNE01.JPG,AFNE01.JPG,AFNE01.JPG,AFNE01.JPG,,,,,,,,,5,7,57,1,,,,,,,,,,,,,,,AFSA16.jpg,AFSA19.jpg,AFNE08.jpg,AFNE10.jpg,AFNE08.jpg,FN,3,num_2,32,num_8,1.05025625438,,,2018_Feb_27_1507,60.0112600285,FEMA4ImagesEEG,001,102686,
AFNE01.JPG,AFNE01.JPG,AFNE01.JPG,AFNE01.JPG,AFNE01.JPG,AFNE01.JPG,,,,,,,,,5,8,58,4,,,,,,,,,,,,,,,AFNE08.jpg,AFSA18.jpg,AFNE06.jpg,AFSA08.jpg,AFNE08.jpg,FN,3,num_8,16,num_8,0.666785660782,,,2018_Feb_27_1507,60.0112600285,FEMA4ImagesEEG,001,102686,
AFNE01.JPG,AFNE01.JPG,AFNE01.JPG,AFNE01.JPG,AFNE01.JPG,AFNE01.JPG,,,,,,,,,5,9,59,5,,,,,,,,,,,,,,,AFSA18.jpg,AFNE03.jpg,AFNE11.jpg,AFSA11.jpg,AFNE03.jpg,FN,3,num_6,32,num_8,1.40008679184,,,2018_Feb_27_1507,60.0112600285,FEMA4ImagesEEG,001,102686,
,,,,,,,,,,,,,,,,,,,,,,,,,,,,,,,,,,,,,,,,,,,space,35.2806869328,2018_Feb_27_1507,60.0112600285,FEMA4ImagesEEG,001,102686,
AFNE01.JPG,AFNE01.JPG,AFNE01.JPG,AFNE01.JPG,AFNE01.JPG,AFNE01.JPG,,,,,,,,,,,,,0,0,0,3,,,,,,,,,,,AMNE09.jpg,AMNE18.jpg,AMSA14.jpg,AMSA02.jpg,AMSA02.jpg,MS,2,num_4,32,num_6,0.816846873728,,,2018_Feb_27_1507,60.0112600285,FEMA4ImagesEEG,001,102686,
AFNE01.JPG,AFNE01.JPG,AFNE01.JPG,AFNE01.JPG,AFNE01.JPG,AFNE01.JPG,,,,,,,,,,,,,0,1,1,9,,,,,,,,,,,AMNE16.jpg,AMNE17.jpg,AMSA14.jpg,AMSA05.jpg,AMNE17.jpg,MN,1,num_6,16,num_6,0.800142472144,,,2018_Feb_27_1507,60.0112600285,FEMA4ImagesEEG,001,102686,
AFNE01.JPG,AFNE01.JPG,AFNE01.JPG,AFNE01.JPG,AFNE01.JPG,AFNE01.JPG,,,,,,,,,,,,,0,2,2,4,,,,,,,,,,,AMSA07.jpg,AMNE04.jpg,AMSA10.jpg,AMNE19.jpg,AMNE19.jpg,MN,1,num_4,32,num_2,1.33343051723,,,2018_Feb_27_1507,60.0112600285,FEMA4ImagesEEG,001,102686,
AFNE01.JPG,AFNE01.JPG,AFNE01.JPG,AFNE01.JPG,AFNE01.JPG,AFNE01.JPG,,,,,,,,,,,,,0,3,3,2,,,,,,,,,,,AMSA08.jpg,AMSA20.jpg,AMNE09.jpg,AMNE19.jpg,AMSA20.jpg,MS,2,num_6,16,num_6,0.550186493667,,,2018_Feb_27_1507,60.0112600285,FEMA4ImagesEEG,001,102686,
AFNE01.JPG,AFNE01.JPG,AFNE01.JPG,AFNE01.JPG,AFNE01.JPG,AFNE01.JPG,,,,,,,,,,,,,0,4,4,7,,,,,,,,,,,AMSA01.jpg,AMNE20.jpg,AMNE13.jpg,AMSA20.jpg,AMSA01.jpg,MS,2,num_8,16,num_8,0.416836417746,,,2018_Feb_27_1507,60.0112600285,FEMA4ImagesEEG,001,102686,
AFNE01.JPG,AFNE01.JPG,AFNE01.JPG,AFNE01.JPG,AFNE01.JPG,AFNE01.JPG,,,,,,,,,,,,,0,5,5,0,,,,,,,,,,,AMSA17.jpg,AMNE05.jpg,AMNE17.jpg,AMSA04.jpg,AMNE17.jpg,MN,1,num_2,32,num_8,0.633493285743,,,2018_Feb_27_1507,60.0112600285,FEMA4ImagesEEG,001,102686,
AFNE01.JPG,AFNE01.JPG,AFNE01.JPG,AFNE01.JPG,AFNE01.JPG,AFNE01.JPG,,,,,,,,,,,,,0,6,6,8,,,,,,,,,,,AMSA06.jpg,AMNE07.jpg,AMSA15.jpg,AMNE02.jpg,AMSA15.jpg,MS,2,num_2,16,num_2,0.850111023756,,,2018_Feb_27_1507,60.0112600285,FEMA4ImagesEEG,001,102686,
AFNE01.JPG,AFNE01.JPG,AFNE01.JPG,AFNE01.JPG,AFNE01.JPG,AFNE01.JPG,,,,,,,,,,,,,0,7,7,1,,,,,,,,,,,AMNE08.jpg,AMSA08.jpg,AMSA11.jpg,AMNE12.jpg,AMSA08.jpg,MS,2,num_6,32,num_8,0.700150522753,,,2018_Feb_27_1507,60.0112600285,FEMA4ImagesEEG,001,102686,
AFNE01.JPG,AFNE01.JPG,AFNE01.JPG,AFNE01.JPG,AFNE01.JPG,AFNE01.JPG,,,,,,,,,,,,,0,8,8,6,,,,,,,,,,,AMNE02.jpg,AMSA10.jpg,AMSA05.jpg,AMNE08.jpg,AMSA10.jpg,MS,2,num_6,16,num_6,0.650144444662,,,2018_Feb_27_1507,60.0112600285,FEMA4ImagesEEG,001,102686,
AFNE01.JPG,AFNE01.JPG,AFNE01.JPG,AFNE01.JPG,AFNE01.JPG,AFNE01.JPG,,,,,,,,,,,,,0,9,9,5,,,,,,,,,,,AMNE16.jpg,AMSA11.jpg,AMNE09.jpg,AMSA01.jpg,AMNE16.jpg,MN,1,num_8,16,num_8,0.666764492053,,,2018_Feb_27_1507,60.0112600285,FEMA4ImagesEEG,001,102686,
AFNE01.JPG,AFNE01.JPG,AFNE01.JPG,AFNE01.JPG,AFNE01.JPG,AFNE01.JPG,,,,,,,,,,,,,1,0,10,0,,,,,,,,,,,AMSA04.jpg,AMSA07.jpg,AMNE17.jpg,AMNE15.jpg,AMSA07.jpg,MS,2,num_6,16,num_6,0.616669248557,,,2018_Feb_27_1507,60.0112600285,FEMA4ImagesEEG,001,102686,
AFNE01.JPG,AFNE01.JPG,AFNE01.JPG,AFNE01.JPG,AFNE01.JPG,AFNE01.JPG,,,,,,,,,,,,,1,1,11,4,,,,,,,,,,,AMSA20.jpg,AMSA17.jpg,AMNE13.jpg,AMNE05.jpg,AMNE13.jpg,MN,1,num_2,32,num_4,0.883473640541,,,2018_Feb_27_1507,60.0112600285,FEMA4ImagesEEG,001,102686,
AFNE01.JPG,AFNE01.JPG,AFNE01.JPG,AFNE01.JPG,AFNE01.JPG,AFNE01.JPG,,,,,,,,,,,,,1,2,12,7,,,,,,,,,,,AMSA02.jpg,AMSA13.jpg,AMNE09.jpg,AMNE17.jpg,AMSA02.jpg,MS,2,num_8,16,num_8,0.866822802345,,,2018_Feb_27_1507,60.0112600285,FEMA4ImagesEEG,001,102686,
AFNE01.JPG,AFNE01.JPG,AFNE01.JPG,AFNE01.JPG,AFNE01.JPG,AFNE01.JPG,,,,,,,,,,,,,1,3,13,3,,,,,,,,,,,AMNE09.jpg,AMNE04.jpg,AMSA09.jpg,AMSA16.jpg,AMNE09.jpg,MN,1,num_8,16,num_8,1.08329107601,,,2018_Feb_27_1507,60.0112600285,FEMA4ImagesEEG,001,102686,
AFNE01.JPG,AFNE01.JPG,AFNE01.JPG,AFNE01.JPG,AFNE01.JPG,AFNE01.JPG,,,,,,,,,,,,,1,4,14,2,,,,,,,,,,,AMSA14.jpg,AMNE03.jpg,AMNE06.jpg,AMSA05.jpg,AMSA05.jpg,MS,2,num_4,16,num_4,0.70016976702,,,2018_Feb_27_1507,60.0112600285,FEMA4ImagesEEG,001,102686,
AFNE01.JPG,AFNE01.JPG,AFNE01.JPG,AFNE01.JPG,AFNE01.JPG,AFNE01.JPG,,,,,,,,,,,,,1,5,15,9,,,,,,,,,,,AMNE02.jpg,AMNE14.jpg,AMSA06.jpg,AMSA07.jpg,AMSA06.jpg,MS,2,num_2,16,num_2,1.08346331283,,,2018_Feb_27_1507,60.0112600285,FEMA4ImagesEEG,001,102686,
AFNE01.JPG,AFNE01.JPG,AFNE01.JPG,AFNE01.JPG,AFNE01.JPG,AFNE01.JPG,,,,,,,,,,,,,1,6,16,6,,,,,,,,,,,AMNE03.jpg,AMNE19.jpg,AMSA04.jpg,AMSA09.jpg,AMNE03.jpg,MN,1,num_8,32,num_4,0.850172605598,,,2018_Feb_27_1507,60.0112600285,FEMA4ImagesEEG,001,102686,
AFNE01.JPG,AFNE01.JPG,AFNE01.JPG,AFNE01.JPG,AFNE01.JPG,AFNE01.JPG,,,,,,,,,,,,,1,7,17,5,,,,,,,,,,,AMSA09.jpg,AMSA02.jpg,AMNE14.jpg,AMNE19.jpg,AMSA02.jpg,MS,2,num_6,16,num_6,0.516796293319,,,2018_Feb_27_1507,60.0112600285,FEMA4ImagesEEG,001,102686,
AFNE01.JPG,AFNE01.JPG,AFNE01.JPG,AFNE01.JPG,AFNE01.JPG,AFNE01.JPG,,,,,,,,,,,,,1,8,18,1,,,,,,,,,,,AMNE07.jpg,AMSA16.jpg,AMSA02.jpg,AMNE16.jpg,AMNE07.jpg,MN,1,num_8,16,num_8,0.916808353155,,,2018_Feb_27_1507,60.0112600285,FEMA4ImagesEEG,001,102686,
AFNE01.JPG,AFNE01.JPG,AFNE01.JPG,AFNE01.JPG,AFNE01.JPG,AFNE01.JPG,,,,,,,,,,,,,1,9,19,8,,,,,,,,,,,AMNE07.jpg,AMSA11.jpg,AMSA08.jpg,AMNE13.jpg,AMNE13.jpg,MN,1,num_4,16,num_4,0.716832151869,,,2018_Feb_27_1507,60.0112600285,FEMA4ImagesEEG,001,102686,
AFNE01.JPG,AFNE01.JPG,AFNE01.JPG,AFNE01.JPG,AFNE01.JPG,AFNE01.JPG,,,,,,,,,,,,,2,0,20,6,,,,,,,,,,,AMNE19.jpg,AMNE09.jpg,AMSA20.jpg,AMSA02.jpg,AMNE09.jpg,MN,1,num_6,16,num_6,0.666799452505,,,2018_Feb_27_1507,60.0112600285,FEMA4ImagesEEG,001,102686,
AFNE01.JPG,AFNE01.JPG,AFNE01.JPG,AFNE01.JPG,AFNE01.JPG,AFNE01.JPG,,,,,,,,,,,,,2,1,21,8,,,,,,,,,,,AMNE10.jpg,AMSA15.jpg,AMNE07.jpg,AMSA14.jpg,AMSA15.jpg,MS,2,num_6,16,num_6,1.5670538306,,,2018_Feb_27_1507,60.0112600285,FEMA4ImagesEEG,001,102686,
AFNE01.JPG,AFNE01.JPG,AFNE01.JPG,AFNE01.JPG,AFNE01.JPG,AFNE01.JPG,,,,,,,,,,,,,2,2,22,3,,,,,,,,,,,AMSA06.jpg,AMSA08.jpg,AMNE14.jpg,AMNE16.jpg,AMNE16.jpg,MN,1,num_4,16,num_4,0.966756377369,,,2018_Feb_27_1507,60.0112600285,FEMA4ImagesEEG,001,102686,
AFNE01.JPG,AFNE01.JPG,AFNE01.JPG,AFNE01.JPG,AFNE01.JPG,AFNE01.JPG,,,,,,,,,,,,,2,3,23,5,,,,,,,,,,,AMSA19.jpg,AMNE01.jpg,AMSA10.jpg,AMNE04.jpg,AMSA19.jpg,MS,2,num_8,16,num_8,0.533535976196,,,2018_Feb_27_1507,60.0112600285,FEMA4ImagesEEG,001,102686,
AFNE01.JPG,AFNE01.JPG,AFNE01.JPG,AFNE01.JPG,AFNE01.JPG,AFNE01.JPG,,,,,,,,,,,,,2,4,24,2,,,,,,,,,,,AMSA17.jpg,AMNE15.jpg,AMSA09.jpg,AMNE14.jpg,AMSA09.jpg,MS,2,num_2,32,num_8,0.800150490715,,,2018_Feb_27_1507,60.0112600285,FEMA4ImagesEEG,001,102686,
AFNE01.JPG,AFNE01.JPG,AFNE01.JPG,AFNE01.JPG,AFNE01.JPG,AFNE01.JPG,,,,,,,,,,,,,2,5,25,7,,,,,,,,,,,AMSA19.jpg,AMNE03.jpg,AMSA03.jpg,AMNE04.jpg,AMSA03.jpg,MS,2,num_2,16,num_2,0.650191593333,,,2018_Feb_27_1507,60.0112600285,FEMA4ImagesEEG,001,102686,
AFNE01.JPG,AFNE01.JPG,AFNE01.JPG,AFNE01.JPG,AFNE01.JPG,AFNE01.JPG,,,,,,,,,,,,,2,6,26,1,,,,,,,,,,,AMSA06.jpg,AMNE18.jpg,AMSA17.jpg,AMNE03.jpg,AMSA06.jpg,MS,2,num_8,16,num_8,0.616789525608,,,2018_Feb_27_1507,60.0112600285,FEMA4ImagesEEG,001,102686,
AFNE01.JPG,AFNE01.JPG,AFNE01.JPG,AFNE01.JPG,AFNE01.JPG,AFNE01.JPG,,,,,,,,,,,,,2,7,27,4,,,,,,,,,,,AMNE01.jpg,AMSA01.jpg,AMSA09.jpg,AMNE18.jpg,AMNE01.jpg,MN,1,num_8,32,num_4,0.750154034933,,,2018_Feb_27_1507,60.0112600285,FEMA4ImagesEEG,001,102686,
AFNE01.JPG,AFNE01.JPG,AFNE01.JPG,AFNE01.JPG,AFNE01.JPG,AFNE01.JPG,,,,,,,,,,,,,2,8,28,9,,,,,,,,,,,AMNE17.jpg,AMSA08.jpg,AMSA09.jpg,AMNE12.jpg,AMSA08.jpg,MS,2,num_6,16,num_6,0.93350313243,,,2018_Feb_27_1507,60.0112600285,FEMA4ImagesEEG,001,102686,
AFNE01.JPG,AFNE01.JPG,AFNE01.JPG,AFNE01.JPG,AFNE01.JPG,AFNE01.JPG,,,,,,,,,,,,,2,9,29,0,,,,,,,,,,,AMSA01.jpg,AMSA20.jpg,AMNE03.jpg,AMNE17.jpg,AMNE17.jpg,MN,1,num_4,32,num_2,0.983483230695,,,2018_Feb_27_1507,60.0112600285,FEMA4ImagesEEG,001,102686,
AFNE01.JPG,AFNE01.JPG,AFNE01.JPG,AFNE01.JPG,AFNE01.JPG,AFNE01.JPG,,,,,,,,,,,,,3,0,30,4,,,,,,,,,,,AMNE20.jpg,AMNE17.jpg,AMSA19.jpg,AMSA20.jpg,AMSA20.jpg,MS,2,num_4,32,num_2,1.13349280471,,,2018_Feb_27_1507,60.0112600285,FEMA4ImagesEEG,001,102686,
AFNE01.JPG,AFNE01.JPG,AFNE01.JPG,AFNE01.JPG,AFNE01.JPG,AFNE01.JPG,,,,,,,,,,,,,3,1,31,8,,,,,,,,,,,AMNE01.jpg,AMSA06.jpg,AMSA19.jpg,AMNE06.jpg,AMSA06.jpg,MS,2,num_6,32,num_4,0.666811961448,,,2018_Feb_27_1507,60.0112600285,FEMA4ImagesEEG,001,102686,
AFNE01.JPG,AFNE01.JPG,AFNE01.JPG,AFNE01.JPG,AFNE01.JPG,AFNE01.JPG,,,,,,,,,,,,,3,2,32,7,,,,,,,,,,,AMNE04.jpg,AMNE12.jpg,AMSA16.jpg,AMSA20.jpg,AMSA20.jpg,MS,2,num_4,16,num_4,0.816781763802,,,2018_Feb_27_1507,60.0112600285,FEMA4ImagesEEG,001,102686,
AFNE01.JPG,AFNE01.JPG,AFNE01.JPG,AFNE01.JPG,AFNE01.JPG,AFNE01.JPG,,,,,,,,,,,,,3,3,33,5,,,,,,,,,,,AMNE03.jpg,AMNE09.jpg,AMSA15.jpg,AMSA03.jpg,AMNE03.jpg,MN,1,num_8,16,num_8,1.00016582198,,,2018_Feb_27_1507,60.0112600285,FEMA4ImagesEEG,001,102686,
AFNE01.JPG,AFNE01.JPG,AFNE01.JPG,AFNE01.JPG,AFNE01.JPG,AFNE01.JPG,,,,,,,,,,,,,3,4,34,3,,,,,,,,,,,AMSA11.jpg,AMNE18.jpg,AMNE12.jpg,AMSA01.jpg,AMSA01.jpg,MS,2,num_4,32,num_8,1.80004977866,,,2018_Feb_27_1507,60.0112600285,FEMA4ImagesEEG,001,102686,
AFNE01.JPG,AFNE01.JPG,AFNE01.JPG,AFNE01.JPG,AFNE01.JPG,AFNE01.JPG,,,,,,,,,,,,,3,5,35,6,,,,,,,,,,,AMSA07.jpg,AMNE01.jpg,AMSA13.jpg,AMNE10.jpg,AMSA07.jpg,MS,2,num_8,16,num_8,0.933446040959,,,2018_Feb_27_1507,60.0112600285,FEMA4ImagesEEG,001,102686,
AFNE01.JPG,AFNE01.JPG,AFNE01.JPG,AFNE01.JPG,AFNE01.JPG,AFNE01.JPG,,,,,,,,,,,,,3,6,36,9,,,,,,,,,,,AMSA17.jpg,AMNE08.jpg,AMSA11.jpg,AMNE13.jpg,AMNE08.jpg,MN,1,num_6,16,num_6,0.783471427392,,,2018_Feb_27_1507,60.0112600285,FEMA4ImagesEEG,001,102686,
AFNE01.JPG,AFNE01.JPG,AFNE01.JPG,AFNE01.JPG,AFNE01.JPG,AFNE01.JPG,,,,,,,,,,,,,3,7,37,2,,,,,,,,,,,AMSA04.jpg,AMNE09.jpg,AMSA08.jpg,AMNE13.jpg,AMNE09.jpg,MN,1,num_6,32,num_4,1.10012505611,,,2018_Feb_27_1507,60.0112600285,FEMA4ImagesEEG,001,102686,
AFNE01.JPG,AFNE01.JPG,AFNE01.JPG,AFNE01.JPG,AFNE01.JPG,AFNE01.JPG,,,,,,,,,,,,,3,8,38,0,,,,,,,,,,,AMSA19.jpg,AMSA15.jpg,AMNE20.jpg,AMNE12.jpg,AMNE20.jpg,MN,1,num_2,16,num_2,0.616785676801,,,2018_Feb_27_1507,60.0112600285,FEMA4ImagesEEG,001,102686,
AFNE01.JPG,AFNE01.JPG,AFNE01.JPG,AFNE01.JPG,AFNE01.JPG,AFNE01.JPG,,,,,,,,,,,,,3,9,39,1,,,,,,,,,,,AMSA09.jpg,AMNE20.jpg,AMNE18.jpg,AMSA10.jpg,AMNE18.jpg,MN,1,num_2,32,num_8,1.03350855294,,,2018_Feb_27_1507,60.0112600285,FEMA4ImagesEEG,001,102686,
AFNE01.JPG,AFNE01.JPG,AFNE01.JPG,AFNE01.JPG,AFNE01.JPG,AFNE01.JPG,,,,,,,,,,,,,4,0,40,6,,,,,,,,,,,AMNE14.jpg,AMSA03.jpg,AMNE07.jpg,AMSA02.jpg,AMNE07.jpg,MN,1,num_2,32,num_4,0.916800976032,,,2018_Feb_27_1507,60.0112600285,FEMA4ImagesEEG,001,102686,
AFNE01.JPG,AFNE01.JPG,AFNE01.JPG,AFNE01.JPG,AFNE01.JPG,AFNE01.JPG,,,,,,,,,,,,,4,1,41,0,,,,,,,,,,,AMNE11.jpg,AMSA04.jpg,AMSA14.jpg,AMNE16.jpg,AMNE11.jpg,MN,1,num_8,16,num_8,0.883462093887,,,2018_Feb_27_1507,60.0112600285,FEMA4ImagesEEG,001,102686,
AFNE01.JPG,AFNE01.JPG,AFNE01.JPG,AFNE01.JPG,AFNE01.JPG,AFNE01.JPG,,,,,,,,,,,,,4,2,42,9,,,,,,,,,,,AMNE10.jpg,AMSA10.jpg,AMSA05.jpg,AMNE16.jpg,AMNE16.jpg,MN,1,num_4,32,num_8,0.833496108302,,,2018_Feb_27_1507,60.0112600285,FEMA4ImagesEEG,001,102686,
AFNE01.JPG,AFNE01.JPG,AFNE01.JPG,AFNE01.JPG,AFNE01.JPG,AFNE01.JPG,,,,,,,,,,,,,4,3,43,7,,,,,,,,,,,AMSA18.jpg,AMSA05.jpg,AMNE18.jpg,AMNE13.jpg,AMNE18.jpg,MN,1,num_2,32,num_6,1.20016319188,,,2018_Feb_27_1507,60.0112600285,FEMA4ImagesEEG,001,102686,
AFNE01.JPG,AFNE01.JPG,AFNE01.JPG,AFNE01.JPG,AFNE01.JPG,AFNE01.JPG,,,,,,,,,,,,,4,4,44,5,,,,,,,,,,,AMNE19.jpg,AMNE13.jpg,AMSA14.jpg,AMSA02.jpg,AMNE13.jpg,MN,1,num_6,32,num_8,0.933431287063,,,2018_Feb_27_1507,60.0112600285,FEMA4ImagesEEG,001,102686,
AFNE01.JPG,AFNE01.JPG,AFNE01.JPG,AFNE01.JPG,AFNE01.JPG,AFNE01.JPG,,,,,,,,,,,,,4,5,45,3,,,,,,,,,,,AMNE20.jpg,AMNE15.jpg,AMSA10.jpg,AMSA08.jpg,AMNE20.jpg,MN,1,num_8,16,num_8,0.700166559662,,,2018_Feb_27_1507,60.0112600285,FEMA4ImagesEEG,001,102686,
AFNE01.JPG,AFNE01.JPG,AFNE01.JPG,AFNE01.JPG,AFNE01.JPG,AFNE01.JPG,,,,,,,,,,,,,4,6,46,4,,,,,,,,,,,AMNE08.jpg,AMNE16.jpg,AMSA18.jpg,AMSA19.jpg,AMNE08.jpg,MN,1,num_8,16,num_8,0.816809347365,,,2018_Feb_27_1507,60.0112600285,FEMA4ImagesEEG,001,102686,
AFNE01.JPG,AFNE01.JPG,AFNE01.JPG,AFNE01.JPG,AFNE01.JPG,AFNE01.JPG,,,,,,,,,,,,,4,7,47,1,,,,,,,,,,,AMNE12.jpg,AMSA08.jpg,AMSA02.jpg,AMNE01.jpg,AMNE01.jpg,MN,1,num_4,32,num_6,1.31659782003,,,2018_Feb_27_1507,60.0112600285,FEMA4ImagesEEG,001,102686,
AFNE01.JPG,AFNE01.JPG,AFNE01.JPG,AFNE01.JPG,AFNE01.JPG,AFNE01.JPG,,,,,,,,,,,,,4,8,48,8,,,,,,,,,,,AMNE16.jpg,AMSA01.jpg,AMSA19.jpg,AMNE04.jpg,AMNE16.jpg,MN,1,num_8,16,num_8,0.816744237323,,,2018_Feb_27_1507,60.0112600285,FEMA4ImagesEEG,001,102686,
AFNE01.JPG,AFNE01.JPG,AFNE01.JPG,AFNE01.JPG,AFNE01.JPG,AFNE01.JPG,,,,,,,,,,,,,4,9,49,2,,,,,,,,,,,AMSA07.jpg,AMSA13.jpg,AMNE11.jpg,AMNE14.jpg,AMNE11.jpg,MN,1,num_2,32,num_8,0.750174562098,,,2018_Feb_27_1507,60.0112600285,FEMA4ImagesEEG,001,102686,
AFNE01.JPG,AFNE01.JPG,AFNE01.JPG,AFNE01.JPG,AFNE01.JPG,AFNE01.JPG,,,,,,,,,,,,,5,0,50,2,,,,,,,,,,,AMSA15.jpg,AMNE09.jpg,AMSA10.jpg,AMNE05.jpg,AMNE05.jpg,MN,1,num_4,32,num_8,0.800257938216,,,2018_Feb_27_1507,60.0112600285,FEMA4ImagesEEG,001,102686,
AFNE01.JPG,AFNE01.JPG,AFNE01.JPG,AFNE01.JPG,AFNE01.JPG,AFNE01.JPG,,,,,,,,,,,,,5,1,51,9,,,,,,,,,,,AMSA16.jpg,AMNE04.jpg,AMNE02.jpg,AMSA08.jpg,AMSA16.jpg,MS,2,num_8,16,num_8,0.916808673763,,,2018_Feb_27_1507,60.0112600285,FEMA4ImagesEEG,001,102686,
AFNE01.JPG,AFNE01.JPG,AFNE01.JPG,AFNE01.JPG,AFNE01.JPG,AFNE01.JPG,,,,,,,,,,,,,5,2,52,8,,,,,,,,,,,AMNE17.jpg,AMNE05.jpg,AMSA07.jpg,AMSA11.jpg,AMNE17.jpg,MN,1,num_8,16,num_8,0.633499379852,,,2018_Feb_27_1507,60.0112600285,FEMA4ImagesEEG,001,102686,
AFNE01.JPG,AFNE01.JPG,AFNE01.JPG,AFNE01.JPG,AFNE01.JPG,AFNE01.JPG,,,,,,,,,,,,,5,3,53,0,,,,,,,,,,,AMNE06.jpg,AMSA04.jpg,AMNE15.jpg,AMSA19.jpg,AMSA19.jpg,MS,2,num_4,32,num_8,0.666816130979,,,2018_Feb_27_1507,60.0112600285,FEMA4ImagesEEG,001,102686,
AFNE01.JPG,AFNE01.JPG,AFNE01.JPG,AFNE01.JPG,AFNE01.JPG,AFNE01.JPG,,,,,,,,,,,,,5,4,54,3,,,,,,,,,,,AMSA10.jpg,AMNE11.jpg,AMSA19.jpg,AMNE01.jpg,AMNE01.jpg,MN,1,num_4,16,num_4,1.16666778922,,,2018_Feb_27_1507,60.0112600285,FEMA4ImagesEEG,001,102686,
AFNE01.JPG,AFNE01.JPG,AFNE01.JPG,AFNE01.JPG,AFNE01.JPG,AFNE01.JPG,,,,,,,,,,,,,5,5,55,5,,,,,,,,,,,AMSA07.jpg,AMNE10.jpg,AMNE08.jpg,AMSA19.jpg,AMSA19.jpg,MS,2,num_4,16,num_4,0.750174882822,,,2018_Feb_27_1507,60.0112600285,FEMA4ImagesEEG,001,102686,
AFNE01.JPG,AFNE01.JPG,AFNE01.JPG,AFNE01.JPG,AFNE01.JPG,AFNE01.JPG,,,,,,,,,,,,,5,6,56,1,,,,,,,,,,,AMNE05.jpg,AMNE10.jpg,AMSA17.jpg,AMSA11.jpg,AMNE05.jpg,MN,1,num_8,32,num_2,1.05016195716,,,2018_Feb_27_1507,60.0112600285,FEMA4ImagesEEG,001,102686,
AFNE01.JPG,AFNE01.JPG,AFNE01.JPG,AFNE01.JPG,AFNE01.JPG,AFNE01.JPG,,,,,,,,,,,,,5,7,57,7,,,,,,,,,,,AMNE02.jpg,AMSA04.jpg,AMSA07.jpg,AMNE04.jpg,AMNE04.jpg,MN,1,num_4,32,num_6,0.883528166101,,,2018_Feb_27_1507,60.0112600285,FEMA4ImagesEEG,001,102686,
AFNE01.JPG,AFNE01.JPG,AFNE01.JPG,AFNE01.JPG,AFNE01.JPG,AFNE01.JPG,,,,,,,,,,,,,5,8,58,4,,,,,,,,,,,AMSA15.jpg,AMSA17.jpg,AMNE08.jpg,AMNE07.jpg,AMSA17.jpg,MS,2,num_6,32,num_4,0.716760947951,,,2018_Feb_27_1507,60.0112600285,FEMA4ImagesEEG,001,102686,
AFNE01.JPG,AFNE01.JPG,AFNE01.JPG,AFNE01.JPG,AFNE01.JPG,AFNE01.JPG,,,,,,,,,,,,,5,9,59,6,,,,,,,,,,,AMNE12.jpg,AMNE09.jpg,AMSA18.jpg,AMSA08.jpg,AMNE09.jpg,MN,1,num_6,32,num_8,0.716761268675,,,2018_Feb_27_1507,60.0112600285,FEMA4ImagesEEG,001,102686,
,,,,,,,,,,,,,,,,,,,,,,,,,,,,,,,,,,,,,,,,,,,space,28.7642466598,2018_Feb_27_1507,60.0112600285,FEMA4ImagesEEG,001,102686,
AFNE01.JPG,AFNE01.JPG,AFNE01.JPG,AFNE01.JPG,AFNE01.JPG,AFNE01.JPG,,,,,,,,,,,,,,,,,0,0,0,6,,,,,,,AFNE11.jpg,AFSA12.jpg,AFNE10.jpg,AFSA19.jpg,AFNE11.jpg,FN,3,num_8,16,num_8,0.916762487497,,,2018_Feb_27_1507,60.0112600285,FEMA4ImagesEEG,001,102686,
AFNE01.JPG,AFNE01.JPG,AFNE01.JPG,AFNE01.JPG,AFNE01.JPG,AFNE01.JPG,,,,,,,,,,,,,,,,,0,1,1,0,,,,,,,AFNE14.jpg,AFSA20.jpg,AFNE16.jpg,AFSA01.jpg,AFSA01.jpg,FS,4,num_4,16,num_4,0.800135095255,,,2018_Feb_27_1507,60.0112600285,FEMA4ImagesEEG,001,102686,
AFNE01.JPG,AFNE01.JPG,AFNE01.JPG,AFNE01.JPG,AFNE01.JPG,AFNE01.JPG,,,,,,,,,,,,,,,,,0,2,2,1,,,,,,,AFNE07.jpg,AFSA02.jpg,AFNE08.jpg,AFSA07.jpg,AFNE08.jpg,FN,3,num_2,32,num_4,0.816593490075,,,2018_Feb_27_1507,60.0112600285,FEMA4ImagesEEG,001,102686,
AFNE01.JPG,AFNE01.JPG,AFNE01.JPG,AFNE01.JPG,AFNE01.JPG,AFNE01.JPG,,,,,,,,,,,,,,,,,0,3,3,3,,,,,,,AFSA20.jpg,AFNE15.jpg,AFSA19.jpg,AFNE06.jpg,AFSA19.jpg,FS,4,num_2,16,num_2,0.500154435751,,,2018_Feb_27_1507,60.0112600285,FEMA4ImagesEEG,001,102686,
AFNE01.JPG,AFNE01.JPG,AFNE01.JPG,AFNE01.JPG,AFNE01.JPG,AFNE01.JPG,,,,,,,,,,,,,,,,,0,4,4,2,,,,,,,AFSA20.jpg,AFSA09.jpg,AFNE07.jpg,AFNE06.jpg,AFSA09.jpg,FS,4,num_6,32,num_8,0.733462783508,,,2018_Feb_27_1507,60.0112600285,FEMA4ImagesEEG,001,102686,
AFNE01.JPG,AFNE01.JPG,AFNE01.JPG,AFNE01.JPG,AFNE01.JPG,AFNE01.JPG,,,,,,,,,,,,,,,,,0,5,5,5,,,,,,,AFSA19.jpg,AFSA20.jpg,AFNE13.jpg,AFNE07.jpg,AFSA20.jpg,FS,4,num_6,32,num_2,1.10011190583,,,2018_Feb_27_1507,60.0112600285,FEMA4ImagesEEG,001,102686,
AFNE01.JPG,AFNE01.JPG,AFNE01.JPG,AFNE01.JPG,AFNE01.JPG,AFNE01.JPG,,,,,,,,,,,,,,,,,0,6,6,8,,,,,,,AFNE03.jpg,AFSA08.jpg,AFNE15.jpg,AFSA05.jpg,AFNE15.jpg,FN,3,num_2,16,num_2,1.16680153739,,,2018_Feb_27_1507,60.0112600285,FEMA4ImagesEEG,001,102686,
AFNE01.JPG,AFNE01.JPG,AFNE01.JPG,AFNE01.JPG,AFNE01.JPG,AFNE01.JPG,,,,,,,,,,,,,,,,,0,7,7,4,,,,,,,AFNE15.jpg,AFNE04.jpg,AFSA12.jpg,AFSA10.jpg,AFSA12.jpg,FS,4,num_2,16,num_2,0.600131951971,,,2018_Feb_27_1507,60.0112600285,FEMA4ImagesEEG,001,102686,
AFNE01.JPG,AFNE01.JPG,AFNE01.JPG,AFNE01.JPG,AFNE01.JPG,AFNE01.JPG,,,,,,,,,,,,,,,,,0,8,8,7,,,,,,,AFSA12.jpg,AFNE12.jpg,AFSA19.jpg,AFNE03.jpg,AFNE03.jpg,FN,3,num_4,16,num_4,0.70014699467,,,2018_Feb_27_1507,60.0112600285,FEMA4ImagesEEG,001,102686,
AFNE01.JPG,AFNE01.JPG,AFNE01.JPG,AFNE01.JPG,AFNE01.JPG,AFNE01.JPG,,,,,,,,,,,,,,,,,0,9,9,9,,,,,,,AFNE20.jpg,AFSA04.jpg,AFNE01.jpg,AFSA06.jpg,AFSA06.jpg,FS,4,num_4,32,num_2,1.06677943852,,,2018_Feb_27_1507,60.0112600285,FEMA4ImagesEEG,001,102686,
AFNE01.JPG,AFNE01.JPG,AFNE01.JPG,AFNE01.JPG,AFNE01.JPG,AFNE01.JPG,,,,,,,,,,,,,,,,,1,0,10,3,,,,,,,AFSA16.jpg,AFNE08.jpg,AFNE06.jpg,AFSA08.jpg,AFNE06.jpg,FN,3,num_2,32,num_4,0.816817686544,,,2018_Feb_27_1507,60.0112600285,FEMA4ImagesEEG,001,102686,
AFNE01.JPG,AFNE01.JPG,AFNE01.JPG,AFNE01.JPG,AFNE01.JPG,AFNE01.JPG,,,,,,,,,,,,,,,,,1,1,11,4,,,,,,,AFNE02.jpg,AFSA01.jpg,AFNE17.jpg,AFSA16.jpg,AFNE02.jpg,FN,3,num_8,32,num_6,0.850149512407,,,2018_Feb_27_1507,60.0112600285,FEMA4ImagesEEG,001,102686,
AFNE01.JPG,AFNE01.JPG,AFNE01.JPG,AFNE01.JPG,AFNE01.JPG,AFNE01.JPG,,,,,,,,,,,,,,,,,1,2,12,8,,,,,,,AFSA05.jpg,AFSA19.jpg,AFNE08.jpg,AFNE06.jpg,AFNE08.jpg,FN,3,num_2,16,num_2,0.933491906617,,,2018_Feb_27_1507,60.0112600285,FEMA4ImagesEEG,001,102686,
AFNE01.JPG,AFNE01.JPG,AFNE01.JPG,AFNE01.JPG,AFNE01.JPG,AFNE01.JPG,,,,,,,,,,,,,,,,,1,3,13,7,,,,,,,AFSA20.jpg,AFNE12.jpg,AFSA19.jpg,AFNE07.jpg,AFNE12.jpg,FN,3,num_6,32,num_2,1.43338654388,,,2018_Feb_27_1507,60.0112600285,FEMA4ImagesEEG,001,102686,
AFNE01.JPG,AFNE01.JPG,AFNE01.JPG,AFNE01.JPG,AFNE01.JPG,AFNE01.JPG,,,,,,,,,,,,,,,,,1,4,14,2,,,,,,,AFNE03.jpg,AFNE16.jpg,AFSA11.jpg,AFSA03.jpg,AFSA11.jpg,FS,4,num_2,16,num_2,0.916732658632,,,2018_Feb_27_1507,60.0112600285,FEMA4ImagesEEG,001,102686,
AFNE01.JPG,AFNE01.JPG,AFNE01.JPG,AFNE01.JPG,AFNE01.JPG,AFNE01.JPG,,,,,,,,,,,,,,,,,1,5,15,6,,,,,,,AFNE16.jpg,AFSA03.jpg,AFSA16.jpg,AFNE10.jpg,AFNE16.jpg,FN,3,num_8,16,num_8,0.683482364635,,,2018_Feb_27_1507,60.0112600285,FEMA4ImagesEEG,001,102686,
AFNE01.JPG,AFNE01.JPG,AFNE01.JPG,AFNE01.JPG,AFNE01.JPG,AFNE01.JPG,,,,,,,,,,,,,,,,,1,6,16,0,,,,,,,AFNE17.jpg,AFSA02.jpg,AFSA08.jpg,AFNE14.jpg,AFNE17.jpg,FN,3,num_8,32,num_2,1.11670950137,,,2018_Feb_27_1507,60.0112600285,FEMA4ImagesEEG,001,102686,
AFNE01.JPG,AFNE01.JPG,AFNE01.JPG,AFNE01.JPG,AFNE01.JPG,AFNE01.JPG,,,,,,,,,,,,,,,,,1,7,17,1,,,,,,,AFNE03.jpg,AFSA10.jpg,AFSA11.jpg,AFNE05.jpg,AFSA11.jpg,FS,4,num_2,16,num_2,0.516803670209,,,2018_Feb_27_1507,60.0112600285,FEMA4ImagesEEG,001,102686,
AFNE01.JPG,AFNE01.JPG,AFNE01.JPG,AFNE01.JPG,AFNE01.JPG,AFNE01.JPG,,,,,,,,,,,,,,,,,1,8,18,5,,,,,,,AFNE20.jpg,AFSA12.jpg,AFSA13.jpg,AFNE14.jpg,AFSA12.jpg,FS,4,num_6,16,num_6,0.666789830429,,,2018_Feb_27_1507,60.0112600285,FEMA4ImagesEEG,001,102686,
AFNE01.JPG,AFNE01.JPG,AFNE01.JPG,AFNE01.JPG,AFNE01.JPG,AFNE01.JPG,,,,,,,,,,,,,,,,,1,9,19,9,,,,,,,AFNE13.jpg,AFNE18.jpg,AFSA13.jpg,AFSA16.jpg,AFSA16.jpg,FS,4,num_4,16,num_4,0.666659289622,,,2018_Feb_27_1507,60.0112600285,FEMA4ImagesEEG,001,102686,
AFNE01.JPG,AFNE01.JPG,AFNE01.JPG,AFNE01.JPG,AFNE01.JPG,AFNE01.JPG,,,,,,,,,,,,,,,,,2,0,20,2,,,,,,,AFNE17.jpg,AFNE19.jpg,AFSA07.jpg,AFSA01.jpg,AFNE17.jpg,FN,3,num_8,32,num_6,0.550181041006,,,2018_Feb_27_1507,60.0112600285,FEMA4ImagesEEG,001,102686,
AFNE01.JPG,AFNE01.JPG,AFNE01.JPG,AFNE01.JPG,AFNE01.JPG,AFNE01.JPG,,,,,,,,,,,,,,,,,2,1,21,3,,,,,,,AFNE17.jpg,AFNE20.jpg,AFSA10.jpg,AFSA01.jpg,AFNE17.jpg,FN,3,num_8,16,num_8,1.20010193076,,,2018_Feb_27_1507,60.0112600285,FEMA4ImagesEEG,001,102686,
AFNE01.JPG,AFNE01.JPG,AFNE01.JPG,AFNE01.JPG,AFNE01.JPG,AFNE01.JPG,,,,,,,,,,,,,,,,,2,2,22,8,,,,,,,AFSA17.jpg,AFNE16.jpg,AFSA07.jpg,AFNE17.jpg,AFNE16.jpg,FN,3,num_6,32,num_4,0.81678593345,,,2018_Feb_27_1507,60.0112600285,FEMA4ImagesEEG,001,102686,
AFNE01.JPG,AFNE01.JPG,AFNE01.JPG,AFNE01.JPG,AFNE01.JPG,AFNE01.JPG,,,,,,,,,,,,,,,,,2,3,23,5,,,,,,,AFNE04.jpg,AFSA18.jpg,AFSA06.jpg,AFNE02.jpg,AFNE04.jpg,FN,3,num_8,16,num_8,0.700364776305,,,2018_Feb_27_1507,60.0112600285,FEMA4ImagesEEG,001,102686,
AFNE01.JPG,AFNE01.JPG,AFNE01.JPG,AFNE01.JPG,AFNE01.JPG,AFNE01.JPG,,,,,,,,,,,,,,,,,2,4,24,7,,,,,,,AFNE01.jpg,AFNE19.jpg,AFSA17.jpg,AFSA07.jpg,AFSA17.jpg,FS,4,num_2,16,num_2,1.3667540038,,,2018_Feb_27_1507,60.0112600285,FEMA4ImagesEEG,001,102686,
AFNE01.JPG,AFNE01.JPG,AFNE01.JPG,AFNE01.JPG,AFNE01.JPG,AFNE01.JPG,,,,,,,,,,,,,,,,,2,5,25,0,,,,,,,AFNE06.jpg,AFSA18.jpg,AFNE11.jpg,AFSA05.jpg,AFSA05.jpg,FS,4,num_4,16,num_4,0.433522537234,,,2018_Feb_27_1507,60.0112600285,FEMA4ImagesEEG,001,102686,
AFNE01.JPG,AFNE01.JPG,AFNE01.JPG,AFNE01.JPG,AFNE01.JPG,AFNE01.JPG,,,,,,,,,,,,,,,,,2,6,26,9,,,,,,,AFNE13.jpg,AFSA07.jpg,AFNE14.jpg,AFSA20.jpg,AFNE14.jpg,FN,3,num_2,32,num_8,0.816817686544,,,2018_Feb_27_1507,60.0112600285,FEMA4ImagesEEG,001,102686,
AFNE01.JPG,AFNE01.JPG,AFNE01.JPG,AFNE01.JPG,AFNE01.JPG,AFNE01.JPG,,,,,,,,,,,,,,,,,2,7,27,6,,,,,,,AFSA11.jpg,AFSA15.jpg,AFNE15.jpg,AFNE13.jpg,AFNE13.jpg,FN,3,num_4,32,num_2,0.933484209003,,,2018_Feb_27_1507,60.0112600285,FEMA4ImagesEEG,001,102686,
AFNE01.JPG,AFNE01.JPG,AFNE01.JPG,AFNE01.JPG,AFNE01.JPG,AFNE01.JPG,,,,,,,,,,,,,,,,,2,8,28,4,,,,,,,AFNE18.jpg,AFSA09.jpg,AFNE01.jpg,AFSA10.jpg,AFNE18.jpg,FN,3,num_8,32,num_2,0.716830548132,,,2018_Feb_27_1507,60.0112600285,FEMA4ImagesEEG,001,102686,
AFNE01.JPG,AFNE01.JPG,AFNE01.JPG,AFNE01.JPG,AFNE01.JPG,AFNE01.JPG,,,,,,,,,,,,,,,,,2,9,29,1,,,,,,,AFNE04.jpg,AFSA08.jpg,AFNE08.jpg,AFSA18.jpg,AFNE04.jpg,FN,3,num_8,32,num_4,1.78341690183,,,2018_Feb_27_1507,60.0112600285,FEMA4ImagesEEG,001,102686,
AFNE01.JPG,AFNE01.JPG,AFNE01.JPG,AFNE01.JPG,AFNE01.JPG,AFNE01.JPG,,,,,,,,,,,,,,,,,3,0,30,8,,,,,,,AFSA09.jpg,AFNE06.jpg,AFNE17.jpg,AFSA14.jpg,AFSA14.jpg,FS,4,num_4,16,num_4,0.550174626289,,,2018_Feb_27_1507,60.0112600285,FEMA4ImagesEEG,001,102686,
AFNE01.JPG,AFNE01.JPG,AFNE01.JPG,AFNE01.JPG,AFNE01.JPG,AFNE01.JPG,,,,,,,,,,,,,,,,,3,1,31,0,,,,,,,AFNE08.jpg,AFSA10.jpg,AFSA20.jpg,AFNE07.jpg,AFNE07.jpg,FN,3,num_4,16,num_4,1.41673955449,,,2018_Feb_27_1507,60.0112600285,FEMA4ImagesEEG,001,102686,
AFNE01.JPG,AFNE01.JPG,AFNE01.JPG,AFNE01.JPG,AFNE01.JPG,AFNE01.JPG,,,,,,,,,,,,,,,,,3,2,32,2,,,,,,,AFSA15.jpg,AFSA10.jpg,AFNE05.jpg,AFNE13.jpg,AFSA15.jpg,FS,4,num_8,16,num_8,1.01679420844,,,2018_Feb_27_1507,60.0112600285,FEMA4ImagesEEG,001,102686,
AFNE01.JPG,AFNE01.JPG,AFNE01.JPG,AFNE01.JPG,AFNE01.JPG,AFNE01.JPG,,,,,,,,,,,,,,,,,3,3,33,4,,,,,,,AFSA16.jpg,AFSA11.jpg,AFNE13.jpg,AFNE05.jpg,AFNE05.jpg,FN,3,num_4,16,num_4,1.10040890996,,,2018_Feb_27_1507,60.0112600285,FEMA4ImagesEEG,001,102686,
AFNE01.JPG,AFNE01.JPG,AFNE01.JPG,AFNE01.JPG,AFNE01.JPG,AFNE01.JPG,,,,,,,,,,,,,,,,,3,4,34,5,,,,,,,AFSA14.jpg,AFNE20.jpg,AFNE06.jpg,AFSA03.jpg,AFSA03.jpg,FS,4,num_4,16,num_4,0.933434173581,,,2018_Feb_27_1507,60.0112600285,FEMA4ImagesEEG,001,102686,
AFNE01.JPG,AFNE01.JPG,AFNE01.JPG,AFNE01.JPG,AFNE01.JPG,AFNE01.JPG,,,,,,,,,,,,,,,,,3,5,35,6,,,,,,,AFSA02.jpg,AFNE18.jpg,AFNE16.jpg,AFSA14.jpg,AFSA02.jpg,FS,4,num_8,16,num_8,0.550162438303,,,2018_Feb_27_1507,60.0112600285,FEMA4ImagesEEG,001,102686,
AFNE01.JPG,AFNE01.JPG,AFNE01.JPG,AFNE01.JPG,AFNE01.JPG,AFNE01.JPG,,,,,,,,,,,,,,,,,3,6,36,7,,,,,,,AFSA17.jpg,AFNE04.jpg,AFNE01.jpg,AFSA19.jpg,AFNE01.jpg,FN,3,num_2,32,num_4,0.767024258384,,,2018_Feb_27_1507,60.0112600285,FEMA4ImagesEEG,001,102686,
AFNE01.JPG,AFNE01.JPG,AFNE01.JPG,AFNE01.JPG,AFNE01.JPG,AFNE01.JPG,,,,,,,,,,,,,,,,,3,7,37,3,,,,,,,AFSA09.jpg,AFSA05.jpg,AFNE05.jpg,AFNE06.jpg,AFNE05.jpg,FN,3,num_2,32,num_8,1.06673838384,,,2018_Feb_27_1507,60.0112600285,FEMA4ImagesEEG,001,102686,
AFNE01.JPG,AFNE01.JPG,AFNE01.JPG,AFNE01.JPG,AFNE01.JPG,AFNE01.JPG,,,,,,,,,,,,,,,,,3,8,38,9,,,,,,,AFNE18.jpg,AFNE12.jpg,AFSA17.jpg,AFSA04.jpg,AFNE12.jpg,FN,3,num_6,16,num_6,0.516809122753,,,2018_Feb_27_1507,60.0112600285,FEMA4ImagesEEG,001,102686,
AFNE01.JPG,AFNE01.JPG,AFNE01.JPG,AFNE01.JPG,AFNE01.JPG,AFNE01.JPG,,,,,,,,,,,,,,,,,3,9,39,1,,,,,,,AFNE09.jpg,AFSA20.jpg,AFSA04.jpg,AFNE15.jpg,AFSA04.jpg,FS,4,num_2,32,num_8,0.783469503047,,,2018_Feb_27_1507,60.0112600285,FEMA4ImagesEEG,001,102686,
AFNE01.JPG,AFNE01.JPG,AFNE01.JPG,AFNE01.JPG,AFNE01.JPG,AFNE01.JPG,,,,,,,,,,,,,,,,,4,0,40,3,,,,,,,AFNE10.jpg,AFSA02.jpg,AFSA14.jpg,AFNE14.jpg,AFSA02.jpg,FS,4,num_6,16,num_6,1.35010765598,,,2018_Feb_27_1507,60.0112600285,FEMA4ImagesEEG,001,102686,
AFNE01.JPG,AFNE01.JPG,AFNE01.JPG,AFNE01.JPG,AFNE01.JPG,AFNE01.JPG,,,,,,,,,,,,,,,,,4,1,41,2,,,,,,,AFSA05.jpg,AFNE07.jpg,AFNE03.jpg,AFSA13.jpg,AFNE07.jpg,FN,3,num_6,16,num_6,0.66673690849,,,2018_Feb_27_1507,60.0112600285,FEMA4ImagesEEG,001,102686,
AFNE01.JPG,AFNE01.JPG,AFNE01.JPG,AFNE01.JPG,AFNE01.JPG,AFNE01.JPG,,,,,,,,,,,,,,,,,4,2,42,4,,,,,,,AFNE06.jpg,AFSA14.jpg,AFSA18.jpg,AFNE07.jpg,AFNE07.jpg,FN,3,num_4,16,num_4,0.666811319883,,,2018_Feb_27_1507,60.0112600285,FEMA4ImagesEEG,001,102686,
AFNE01.JPG,AFNE01.JPG,AFNE01.JPG,AFNE01.JPG,AFNE01.JPG,AFNE01.JPG,,,,,,,,,,,,,,,,,4,3,43,5,,,,,,,AFSA10.jpg,AFNE05.jpg,AFNE17.jpg,AFSA18.jpg,AFNE17.jpg,FN,3,num_2,32,num_8,0.850113268942,,,2018_Feb_27_1507,60.0112600285,FEMA4ImagesEEG,001,102686,
AFNE01.JPG,AFNE01.JPG,AFNE01.JPG,AFNE01.JPG,AFNE01.JPG,AFNE01.JPG,,,,,,,,,,,,,,,,,4,4,44,1,,,,,,,AFSA11.jpg,AFSA05.jpg,AFNE14.jpg,AFNE13.jpg,AFNE14.jpg,FN,3,num_2,16,num_2,1.05015874968,,,2018_Feb_27_1507,60.0112600285,FEMA4ImagesEEG,001,102686,
AFNE01.JPG,AFNE01.JPG,AFNE01.JPG,AFNE01.JPG,AFNE01.JPG,AFNE01.JPG,,,,,,,,,,,,,,,,,4,5,45,6,,,,,,,AFSA18.jpg,AFNE15.jpg,AFSA19.jpg,AFNE04.jpg,AFSA19.jpg,FS,4,num_2,16,num_2,0.900415388984,,,2018_Feb_27_1507,60.0112600285,FEMA4ImagesEEG,001,102686,
AFNE01.JPG,AFNE01.JPG,AFNE01.JPG,AFNE01.JPG,AFNE01.JPG,AFNE01.JPG,,,,,,,,,,,,,,,,,4,6,46,0,,,,,,,AFNE12.jpg,AFNE11.jpg,AFSA14.jpg,AFSA10.jpg,AFNE11.jpg,FN,3,num_6,16,num_6,0.766745536355,,,2018_Feb_27_1507,60.0112600285,FEMA4ImagesEEG,001,102686,
AFNE01.JPG,AFNE01.JPG,AFNE01.JPG,AFNE01.JPG,AFNE01.JPG,AFNE01.JPG,,,,,,,,,,,,,,,,,4,7,47,9,,,,,,,AFNE05.jpg,AFSA16.jpg,AFSA08.jpg,AFNE13.jpg,AFSA16.jpg,FS,4,num_6,16,num_6,0.600140611874,,,2018_Feb_27_1507,60.0112600285,FEMA4ImagesEEG,001,102686,
AFNE01.JPG,AFNE01.JPG,AFNE01.JPG,AFNE01.JPG,AFNE01.JPG,AFNE01.JPG,,,,,,,,,,,,,,,,,4,8,48,7,,,,,,,AFSA05.jpg,AFSA03.jpg,AFNE12.jpg,AFNE13.jpg,AFNE12.jpg,FN,3,num_2,32,num_8,1.68342783907,,,2018_Feb_27_1507,60.0112600285,FEMA4ImagesEEG,001,102686,
AFNE01.JPG,AFNE01.JPG,AFNE01.JPG,AFNE01.JPG,AFNE01.JPG,AFNE01.JPG,,,,,,,,,,,,,,,,,4,9,49,8,,,,,,,AFSA03.jpg,AFNE07.jpg,AFNE05.jpg,AFSA16.jpg,AFSA03.jpg,FS,4,num_8,32,num_2,0.883442849619,,,2018_Feb_27_1507,60.0112600285,FEMA4ImagesEEG,001,102686,
AFNE01.JPG,AFNE01.JPG,AFNE01.JPG,AFNE01.JPG,AFNE01.JPG,AFNE01.JPG,,,,,,,,,,,,,,,,,5,0,50,6,,,,,,,AFSA17.jpg,AFNE14.jpg,AFNE18.jpg,AFSA11.jpg,AFSA17.jpg,FS,4,num_8,16,num_8,0.800185130443,,,2018_Feb_27_1507,60.0112600285,FEMA4ImagesEEG,001,102686,
AFNE01.JPG,AFNE01.JPG,AFNE01.JPG,AFNE01.JPG,AFNE01.JPG,AFNE01.JPG,,,,,,,,,,,,,,,,,5,1,51,7,,,,,,,AFSA07.jpg,AFNE03.jpg,AFSA06.jpg,AFNE06.jpg,AFNE03.jpg,FN,3,num_6,16,num_6,0.916779486579,,,2018_Feb_27_1507,60.0112600285,FEMA4ImagesEEG,001,102686,
AFNE01.JPG,AFNE01.JPG,AFNE01.JPG,AFNE01.JPG,AFNE01.JPG,AFNE01.JPG,,,,,,,,,,,,,,,,,5,2,52,1,,,,,,,AFNE09.jpg,AFSA11.jpg,AFNE03.jpg,AFSA14.jpg,AFNE03.jpg,FN,3,num_2,32,num_8,0.733546175645,,,2018_Feb_27_1507,60.0112600285,FEMA4ImagesEEG,001,102686,
AFNE01.JPG,AFNE01.JPG,AFNE01.JPG,AFNE01.JPG,AFNE01.JPG,AFNE01.JPG,,,,,,,,,,,,,,,,,5,3,53,3,,,,,,,AFSA05.jpg,AFNE14.jpg,AFSA15.jpg,AFNE04.jpg,AFNE04.jpg,FN,3,num_4,16,num_4,0.649911267566,,,2018_Feb_27_1507,60.0112600285,FEMA4ImagesEEG,001,102686,
AFNE01.JPG,AFNE01.JPG,AFNE01.JPG,AFNE01.JPG,AFNE01.JPG,AFNE01.JPG,,,,,,,,,,,,,,,,,5,4,54,2,,,,,,,AFSA17.jpg,AFNE05.jpg,AFSA13.jpg,AFNE19.jpg,AFSA17.jpg,FS,4,num_8,16,num_8,1.08346010535,,,2018_Feb_27_1507,60.0112600285,FEMA4ImagesEEG,001,102686,
AFNE01.JPG,AFNE01.JPG,AFNE01.JPG,AFNE01.JPG,AFNE01.JPG,AFNE01.JPG,,,,,,,,,,,,,,,,,5,5,55,4,,,,,,,AFNE20.jpg,AFSA06.jpg,AFNE08.jpg,AFSA15.jpg,AFSA15.jpg,FS,4,num_4,16,num_4,0.766797496006,,,2018_Feb_27_1507,60.0112600285,FEMA4ImagesEEG,001,102686,
AFNE01.JPG,AFNE01.JPG,AFNE01.JPG,AFNE01.JPG,AFNE01.JPG,AFNE01.JPG,,,,,,,,,,,,,,,,,5,6,56,8,,,,,,,AFSA11.jpg,AFNE08.jpg,AFSA18.jpg,AFNE20.jpg,AFNE20.jpg,FN,3,num_4,16,num_4,1.60003605101,,,2018_Feb_27_1507,60.0112600285,FEMA4ImagesEEG,001,102686,
AFNE01.JPG,AFNE01.JPG,AFNE01.JPG,AFNE01.JPG,AFNE01.JPG,AFNE01.JPG,,,,,,,,,,,,,,,,,5,7,57,5,,,,,,,AFNE18.jpg,AFSA13.jpg,AFNE02.jpg,AFSA14.jpg,AFSA13.jpg,FS,4,num_6,16,num_6,0.633503228775,,,2018_Feb_27_1507,60.0112600285,FEMA4ImagesEEG,001,102686,
AFNE01.JPG,AFNE01.JPG,AFNE01.JPG,AFNE01.JPG,AFNE01.JPG,AFNE01.JPG,,,,,,,,,,,,,,,,,5,8,58,0,,,,,,,AFSA17.jpg,AFNE15.jpg,AFNE07.jpg,AFSA10.jpg,AFNE07.jpg,FN,3,num_2,16,num_2,1.35007943097,,,2018_Feb_27_1507,60.0112600285,FEMA4ImagesEEG,001,102686,
AFNE01.JPG,AFNE01.JPG,AFNE01.JPG,AFNE01.JPG,AFNE01.JPG,AFNE01.JPG,,,,,,,,,,,,,,,,,5,9,59,9,,,,,,,AFNE05.jpg,AFNE19.jpg,AFSA02.jpg,AFSA03.jpg,AFNE19.jpg,FN,3,num_6,16,num_6,0.683525343658,,,2018_Feb_27_1507,60.0112600285,FEMA4ImagesEEG,001,102686,
,,,,,,,,,,,,,,,,,,,,,,,,,,,,,,,,,,,,,,,,,,,space,6.06634868612,2018_Feb_27_1507,60.0112600285,FEMA4ImagesEEG,001,102686,
AFNE01.JPG,AFNE01.JPG,AFNE01.JPG,AFNE01.JPG,AFNE01.JPG,AFNE01.JPG,,,,,,,,,,,,,,,,,,,,,0,0,0,8,,,AMSA14.jpg,AMNE14.jpg,AMNE11.jpg,AMSA05.jpg,AMSA14.jpg,MS,2,num_8,16,num_8,0.533535334747,,,2018_Feb_27_1507,60.0112600285,FEMA4ImagesEEG,001,102686,
AFNE01.JPG,AFNE01.JPG,AFNE01.JPG,AFNE01.JPG,AFNE01.JPG,AFNE01.JPG,,,,,,,,,,,,,,,,,,,,,0,1,1,4,,,AMSA11.jpg,AMSA04.jpg,AMNE13.jpg,AMNE03.jpg,AMSA11.jpg,MS,2,num_8,16,num_8,0.96678716829,,,2018_Feb_27_1507,60.0112600285,FEMA4ImagesEEG,001,102686,
AFNE01.JPG,AFNE01.JPG,AFNE01.JPG,AFNE01.JPG,AFNE01.JPG,AFNE01.JPG,,,,,,,,,,,,,,,,,,,,,0,2,2,0,,,AMNE17.jpg,AMSA06.jpg,AMNE02.jpg,AMSA12.jpg,AMNE17.jpg,MN,1,num_8,16,num_8,0.716896299622,,,2018_Feb_27_1507,60.0112600285,FEMA4ImagesEEG,001,102686,
AFNE01.JPG,AFNE01.JPG,AFNE01.JPG,AFNE01.JPG,AFNE01.JPG,AFNE01.JPG,,,,,,,,,,,,,,,,,,,,,0,3,3,6,,,AMNE19.jpg,AMSA11.jpg,AMSA09.jpg,AMNE07.jpg,AMSA11.jpg,MS,2,num_6,16,num_6,0.566400164738,,,2018_Feb_27_1507,60.0112600285,FEMA4ImagesEEG,001,102686,
AFNE01.JPG,AFNE01.JPG,AFNE01.JPG,AFNE01.JPG,AFNE01.JPG,AFNE01.JPG,,,,,,,,,,,,,,,,,,,,,0,4,4,1,,,AMNE02.jpg,AMNE11.jpg,AMSA14.jpg,AMSA02.jpg,AMSA14.jpg,MS,2,num_2,16,num_2,0.850130588864,,,2018_Feb_27_1507,60.0112600285,FEMA4ImagesEEG,001,102686,
AFNE01.JPG,AFNE01.JPG,AFNE01.JPG,AFNE01.JPG,AFNE01.JPG,AFNE01.JPG,,,,,,,,,,,,,,,,,,,,,0,5,5,7,,,AMSA18.jpg,AMNE16.jpg,AMSA11.jpg,AMNE03.jpg,AMNE03.jpg,MN,1,num_4,16,num_4,0.850177416694,,,2018_Feb_27_1507,60.0112600285,FEMA4ImagesEEG,001,102686,
AFNE01.JPG,AFNE01.JPG,AFNE01.JPG,AFNE01.JPG,AFNE01.JPG,AFNE01.JPG,,,,,,,,,,,,,,,,,,,,,0,6,6,9,,,AMSA12.jpg,AMSA03.jpg,AMNE07.jpg,AMNE14.jpg,AMSA12.jpg,MS,2,num_8,32,num_6,0.833500919398,,,2018_Feb_27_1507,60.0112600285,FEMA4ImagesEEG,001,102686,
AFNE01.JPG,AFNE01.JPG,AFNE01.JPG,AFNE01.JPG,AFNE01.JPG,AFNE01.JPG,,,,,,,,,,,,,,,,,,,,,0,7,7,2,,,AMSA12.jpg,AMNE13.jpg,AMNE11.jpg,AMSA15.jpg,AMSA12.jpg,MS,2,num_8,32,num_4,0.583467001212,,,2018_Feb_27_1507,60.0112600285,FEMA4ImagesEEG,001,102686,
AFNE01.JPG,AFNE01.JPG,AFNE01.JPG,AFNE01.JPG,AFNE01.JPG,AFNE01.JPG,,,,,,,,,,,,,,,,,,,,,0,8,8,5,,,AMNE18.jpg,AMSA02.jpg,AMSA12.jpg,AMNE20.jpg,AMSA02.jpg,MS,2,num_6,32,num_8,1.06679226807,,,2018_Feb_27_1507,60.0112600285,FEMA4ImagesEEG,001,102686,
AFNE01.JPG,AFNE01.JPG,AFNE01.JPG,AFNE01.JPG,AFNE01.JPG,AFNE01.JPG,,,,,,,,,,,,,,,,,,,,,0,9,9,3,,,AMNE09.jpg,AMSA03.jpg,AMNE12.jpg,AMSA14.jpg,AMNE09.jpg,MN,1,num_8,32,num_2,3.51655958791,,,2018_Feb_27_1507,60.0112600285,FEMA4ImagesEEG,001,102686,
AFNE01.JPG,AFNE01.JPG,AFNE01.JPG,AFNE01.JPG,AFNE01.JPG,AFNE01.JPG,,,,,,,,,,,,,,,,,,,,,1,0,10,6,,,AMSA20.jpg,AMNE20.jpg,AMSA13.jpg,AMNE19.jpg,AMNE20.jpg,MN,1,num_6,16,num_6,0.766774402815,,,2018_Feb_27_1507,60.0112600285,FEMA4ImagesEEG,001,102686,
AFNE01.JPG,AFNE01.JPG,AFNE01.JPG,AFNE01.JPG,AFNE01.JPG,AFNE01.JPG,,,,,,,,,,,,,,,,,,,,,1,1,11,2,,,AMNE20.jpg,AMSA01.jpg,AMSA19.jpg,AMNE04.jpg,AMNE04.jpg,MN,1,num_4,32,num_8,0.916790712392,,,2018_Feb_27_1507,60.0112600285,FEMA4ImagesEEG,001,102686,
AFNE01.JPG,AFNE01.JPG,AFNE01.JPG,AFNE01.JPG,AFNE01.JPG,AFNE01.JPG,,,,,,,,,,,,,,,,,,,,,1,2,12,4,,,AMSA14.jpg,AMNE16.jpg,AMSA16.jpg,AMNE12.jpg,AMSA16.jpg,MS,2,num_2,16,num_2,0.783526594634,,,2018_Feb_27_1507,60.0112600285,FEMA4ImagesEEG,001,102686,
AFNE01.JPG,AFNE01.JPG,AFNE01.JPG,AFNE01.JPG,AFNE01.JPG,AFNE01.JPG,,,,,,,,,,,,,,,,,,,,,1,3,13,8,,,AMSA20.jpg,AMNE05.jpg,AMNE01.jpg,AMSA02.jpg,AMNE05.jpg,MN,1,num_6,32,num_2,0.80017647054,,,2018_Feb_27_1507,60.0112600285,FEMA4ImagesEEG,001,102686,
AFNE01.JPG,AFNE01.JPG,AFNE01.JPG,AFNE01.JPG,AFNE01.JPG,AFNE01.JPG,,,,,,,,,,,,,,,,,,,,,1,4,14,0,,,AMSA08.jpg,AMNE17.jpg,AMSA09.jpg,AMNE03.jpg,AMNE17.jpg,MN,1,num_6,16,num_6,1.08350789547,,,2018_Feb_27_1507,60.0112600285,FEMA4ImagesEEG,001,102686,
AFNE01.JPG,AFNE01.JPG,AFNE01.JPG,AFNE01.JPG,AFNE01.JPG,AFNE01.JPG,,,,,,,,,,,,,,,,,,,,,1,5,15,1,,,AMNE18.jpg,AMSA14.jpg,AMNE14.jpg,AMSA09.jpg,AMSA14.jpg,MS,2,num_6,32,num_8,0.933512113173,,,2018_Feb_27_1507,60.0112600285,FEMA4ImagesEEG,001,102686,
AFNE01.JPG,AFNE01.JPG,AFNE01.JPG,AFNE01.JPG,AFNE01.JPG,AFNE01.JPG,,,,,,,,,,,,,,,,,,,,,1,6,16,3,,,AMNE04.jpg,AMNE13.jpg,AMSA09.jpg,AMSA08.jpg,AMNE04.jpg,MN,1,num_8,16,num_8,0.90008566936,,,2018_Feb_27_1507,60.0112600285,FEMA4ImagesEEG,001,102686,
AFNE01.JPG,AFNE01.JPG,AFNE01.JPG,AFNE01.JPG,AFNE01.JPG,AFNE01.JPG,,,,,,,,,,,,,,,,,,,,,1,7,17,7,,,AMNE20.jpg,AMSA03.jpg,AMNE13.jpg,AMSA09.jpg,AMSA09.jpg,MS,2,num_4,32,num_6,1.08344920026,,,2018_Feb_27_1507,60.0112600285,FEMA4ImagesEEG,001,102686,
AFNE01.JPG,AFNE01.JPG,AFNE01.JPG,AFNE01.JPG,AFNE01.JPG,AFNE01.JPG,,,,,,,,,,,,,,,,,,,,,1,8,18,5,,,AMNE04.jpg,AMSA08.jpg,AMSA12.jpg,AMNE09.jpg,AMNE04.jpg,MN,1,num_8,16,num_8,1.36672192998,,,2018_Feb_27_1507,60.0112600285,FEMA4ImagesEEG,001,102686,
AFNE01.JPG,AFNE01.JPG,AFNE01.JPG,AFNE01.JPG,AFNE01.JPG,AFNE01.JPG,,,,,,,,,,,,,,,,,,,,,1,9,19,9,,,AMSA17.jpg,AMSA09.jpg,AMNE01.jpg,AMNE19.jpg,AMNE19.jpg,MN,1,num_4,16,num_4,0.56681488012,,,2018_Feb_27_1507,60.0112600285,FEMA4ImagesEEG,001,102686,
AFNE01.JPG,AFNE01.JPG,AFNE01.JPG,AFNE01.JPG,AFNE01.JPG,AFNE01.JPG,,,,,,,,,,,,,,,,,,,,,2,0,20,9,,,AMSA09.jpg,AMSA11.jpg,AMNE05.jpg,AMNE10.jpg,AMSA09.jpg,MS,2,num_8,16,num_8,0.583471491584,,,2018_Feb_27_1507,60.0112600285,FEMA4ImagesEEG,001,102686,
AFNE01.JPG,AFNE01.JPG,AFNE01.JPG,AFNE01.JPG,AFNE01.JPG,AFNE01.JPG,,,,,,,,,,,,,,,,,,,,,2,1,21,6,,,AMSA02.jpg,AMNE19.jpg,AMSA03.jpg,AMNE17.jpg,AMSA02.jpg,MS,2,num_8,16,num_8,0.816758349887,,,2018_Feb_27_1507,60.0112600285,FEMA4ImagesEEG,001,102686,
AFNE01.JPG,AFNE01.JPG,AFNE01.JPG,AFNE01.JPG,AFNE01.JPG,AFNE01.JPG,,,,,,,,,,,,,,,,,,,,,2,2,22,2,,,AMSA15.jpg,AMNE18.jpg,AMSA06.jpg,AMNE10.jpg,AMNE18.jpg,MN,1,num_6,16,num_6,0.650174594251,,,2018_Feb_27_1507,60.0112600285,FEMA4ImagesEEG,001,102686,
AFNE01.JPG,AFNE01.JPG,AFNE01.JPG,AFNE01.JPG,AFNE01.JPG,AFNE01.JPG,,,,,,,,,,,,,,,,,,,,,2,3,23,4,,,AMNE04.jpg,AMSA01.jpg,AMSA06.jpg,AMNE08.jpg,AMNE08.jpg,MN,1,num_4,16,num_4,0.833533634781,,,2018_Feb_27_1507,60.0112600285,FEMA4ImagesEEG,001,102686,
AFNE01.JPG,AFNE01.JPG,AFNE01.JPG,AFNE01.JPG,AFNE01.JPG,AFNE01.JPG,,,,,,,,,,,,,,,,,,,,,2,4,24,8,,,AMNE07.jpg,AMSA01.jpg,AMSA06.jpg,AMNE19.jpg,AMNE07.jpg,MN,1,num_8,16,num_8,0.600180383539,,,2018_Feb_27_1507,60.0112600285,FEMA4ImagesEEG,001,102686,
AFNE01.JPG,AFNE01.JPG,AFNE01.JPG,AFNE01.JPG,AFNE01.JPG,AFNE01.JPG,,,,,,,,,,,,,,,,,,,,,2,5,25,3,,,AMNE20.jpg,AMSA17.jpg,AMSA14.jpg,AMNE09.jpg,AMSA17.jpg,MS,2,num_6,16,num_6,0.650215327973,,,2018_Feb_27_1507,60.0112600285,FEMA4ImagesEEG,001,102686,
AFNE01.JPG,AFNE01.JPG,AFNE01.JPG,AFNE01.JPG,AFNE01.JPG,AFNE01.JPG,,,,,,,,,,,,,,,,,,,,,2,6,26,1,,,AMSA11.jpg,AMSA04.jpg,AMNE05.jpg,AMNE16.jpg,AMSA11.jpg,MS,2,num_8,32,num_2,3.1332718156,,,2018_Feb_27_1507,60.0112600285,FEMA4ImagesEEG,001,102686,
AFNE01.JPG,AFNE01.JPG,AFNE01.JPG,AFNE01.JPG,AFNE01.JPG,AFNE01.JPG,,,,,,,,,,,,,,,,,,,,,2,7,27,5,,,AMNE11.jpg,AMSA08.jpg,AMSA09.jpg,AMNE06.jpg,AMNE11.jpg,MN,1,num_8,32,num_6,1.30012852012,,,2018_Feb_27_1507,60.0112600285,FEMA4ImagesEEG,001,102686,
AFNE01.JPG,AFNE01.JPG,AFNE01.JPG,AFNE01.JPG,AFNE01.JPG,AFNE01.JPG,,,,,,,,,,,,,,,,,,,,,2,8,28,0,,,AMSA12.jpg,AMNE15.jpg,AMSA08.jpg,AMNE13.jpg,AMNE13.jpg,MN,1,num_4,16,num_4,0.483537275111,,,2018_Feb_27_1507,60.0112600285,FEMA4ImagesEEG,001,102686,
AFNE01.JPG,AFNE01.JPG,AFNE01.JPG,AFNE01.JPG,AFNE01.JPG,AFNE01.JPG,,,,,,,,,,,,,,,,,,,,,2,9,29,7,,,AMNE10.jpg,AMSA04.jpg,AMNE12.jpg,AMSA02.jpg,AMNE12.jpg,MN,1,num_2,16,num_2,0.850127702113,,,2018_Feb_27_1507,60.0112600285,FEMA4ImagesEEG,001,102686,
AFNE01.JPG,AFNE01.JPG,AFNE01.JPG,AFNE01.JPG,AFNE01.JPG,AFNE01.JPG,,,,,,,,,,,,,,,,,,,,,3,0,30,4,,,AMSA07.jpg,AMSA02.jpg,AMNE11.jpg,AMNE07.jpg,AMNE07.jpg,MN,1,num_4,16,num_4,0.666800735518,,,2018_Feb_27_1507,60.0112600285,FEMA4ImagesEEG,001,102686,
AFNE01.JPG,AFNE01.JPG,AFNE01.JPG,AFNE01.JPG,AFNE01.JPG,AFNE01.JPG,,,,,,,,,,,,,,,,,,,,,3,1,31,1,,,AMSA06.jpg,AMNE01.jpg,AMSA16.jpg,AMNE13.jpg,AMSA16.jpg,MS,2,num_2,16,num_2,0.883464659913,,,2018_Feb_27_1507,60.0112600285,FEMA4ImagesEEG,001,102686,
AFNE01.JPG,AFNE01.JPG,AFNE01.JPG,AFNE01.JPG,AFNE01.JPG,AFNE01.JPG,,,,,,,,,,,,,,,,,,,,,3,2,32,0,,,AMNE14.jpg,AMSA12.jpg,AMSA10.jpg,AMNE17.jpg,AMNE17.jpg,MN,1,num_4,16,num_4,0.500187471858,,,2018_Feb_27_1507,60.0112600285,FEMA4ImagesEEG,001,102686,
AFNE01.JPG,AFNE01.JPG,AFNE01.JPG,AFNE01.JPG,AFNE01.JPG,AFNE01.JPG,,,,,,,,,,,,,,,,,,,,,3,3,33,7,,,AMNE16.jpg,AMSA19.jpg,AMNE04.jpg,AMSA13.jpg,AMNE04.jpg,MN,1,num_2,16,num_2,0.866780785611,,,2018_Feb_27_1507,60.0112600285,FEMA4ImagesEEG,001,102686,
AFNE01.JPG,AFNE01.JPG,AFNE01.JPG,AFNE01.JPG,AFNE01.JPG,AFNE01.JPG,,,,,,,,,,,,,,,,,,,,,3,4,34,9,,,AMNE18.jpg,AMNE03.jpg,AMSA06.jpg,AMSA14.jpg,AMNE03.jpg,MN,1,num_6,32,num_2,1.31673958665,,,2018_Feb_27_1507,60.0112600285,FEMA4ImagesEEG,001,102686,
AFNE01.JPG,AFNE01.JPG,AFNE01.JPG,AFNE01.JPG,AFNE01.JPG,AFNE01.JPG,,,,,,,,,,,,,,,,,,,,,3,5,35,6,,,AMNE17.jpg,AMSA05.jpg,AMNE01.jpg,AMSA09.jpg,AMSA09.jpg,MS,2,num_4,32,num_6,0.733460217598,,,2018_Feb_27_1507,60.0112600285,FEMA4ImagesEEG,001,102686,
AFNE01.JPG,AFNE01.JPG,AFNE01.JPG,AFNE01.JPG,AFNE01.JPG,AFNE01.JPG,,,,,,,,,,,,,,,,,,,,,3,6,36,8,,,AMNE13.jpg,AMNE05.jpg,AMSA04.jpg,AMSA08.jpg,AMNE05.jpg,MN,1,num_6,32,num_8,1.00014593615,,,2018_Feb_27_1507,60.0112600285,FEMA4ImagesEEG,001,102686,
AFNE01.JPG,AFNE01.JPG,AFNE01.JPG,AFNE01.JPG,AFNE01.JPG,AFNE01.JPG,,,,,,,,,,,,,,,,,,,,,3,7,37,2,,,AMNE16.jpg,AMNE08.jpg,AMSA14.jpg,AMSA03.jpg,AMNE08.jpg,MN,1,num_6,32,num_4,1.08342610695,,,2018_Feb_27_1507,60.0112600285,FEMA4ImagesEEG,001,102686,
AFNE01.JPG,AFNE01.JPG,AFNE01.JPG,AFNE01.JPG,AFNE01.JPG,AFNE01.JPG,,,,,,,,,,,,,,,,,,,,,3,8,38,3,,,AMNE16.jpg,AMNE08.jpg,AMSA14.jpg,AMSA09.jpg,AMNE16.jpg,MN,1,num_8,16,num_8,0.800154339522,,,2018_Feb_27_1507,60.0112600285,FEMA4ImagesEEG,001,102686,
