IPosition2,IPosition3,IPosition1,IPosition6,IPosition4,IPosition5,TrialsF1.thisRepN,TrialsF1.thisTrialN,TrialsF1.thisN,TrialsF1.thisIndex,TrialsM1.thisRepN,TrialsM1.thisTrialN,TrialsM1.thisN,TrialsM1.thisIndex,TrialsF2.thisRepN,TrialsF2.thisTrialN,TrialsF2.thisN,TrialsF2.thisIndex,TrialsM2.thisRepN,TrialsM2.thisTrialN,TrialsM2.thisN,TrialsM2.thisIndex,TrialsF3.thisRepN,TrialsF3.thisTrialN,TrialsF3.thisN,TrialsF3.thisIndex,TrialsM3.thisRepN,TrialsM3.thisTrialN,TrialsM3.thisN,TrialsM3.thisIndex,InstrKey_resp.keys,InstrKey_resp.rt,Image0 _Position,Image1 _Position,Image2 _Position,Image3 _Position,Center_image,condition,code,correct_answer,accuracy,Key_Resp.keys,Key_Resp.rt,BreakKey_resp.keys,BreakKey_resp.rt,date,frameRate,expName,session,participant,
,,,,,,,,,,,,,,,,,,,,,,,,,,,,,,space,12.7995607155,,,,,,,,,,,,,,2018_Jan_26_1810,60.0125691939,FEMA4ImagesEEG,001,102689,
AMNE23.JPG,AMNE24.JPG,AMNE22.JPG,AMSA24.JPG,AMSA22.JPG,AMSA23.JPG,0,0,0,9,,,,,,,,,,,,,,,,,,,,,,,AFSA03.jpg,AFNE17.jpg,AFNE07.jpg,AFSA06.jpg,AFSA06.jpg,FS,4,num_4,16,num_4,1.26675405743,,,2018_Jan_26_1810,60.0125691939,FEMA4ImagesEEG,001,102689,
AFSA21.JPG,AFNE23.JPG,AFNE21.JPG,AFSA25.JPG,AFNE25.JPG,AFSA23.JPG,0,1,1,4,,,,,,,,,,,,,,,,,,,,,,,AFSA06.jpg,AFNE14.jpg,AFNE02.jpg,AFSA02.jpg,AFNE14.jpg,FN,3,num_6,32,num_8,0.916760456195,,,2018_Jan_26_1810,60.0125691939,FEMA4ImagesEEG,001,102689,
AFNE23.JPG,AFNE24.JPG,AFNE22.JPG,AFSA24.JPG,AFSA22.JPG,AFSA23.JPG,0,2,2,8,,,,,,,,,,,,,,,,,,,,,,,AFSA20.jpg,AFNE17.jpg,AFSA19.jpg,AFNE12.jpg,AFNE17.jpg,FN,3,num_6,16,num_6,1.35012189695,,,2018_Jan_26_1810,60.0125691939,FEMA4ImagesEEG,001,102689,
AMSA21.JPG,AMNE22.JPG,AMNE21.JPG,AMSA23.JPG,AMSA22.JPG,AMNE23.JPG,0,3,3,1,,,,,,,,,,,,,,,,,,,,,,,AFNE08.jpg,AFNE16.jpg,AFSA10.jpg,AFSA12.jpg,AFSA12.jpg,FS,4,num_4,16,num_4,0.650143675157,,,2018_Jan_26_1810,60.0125691939,FEMA4ImagesEEG,001,102689,
AMSA25.JPG,AMNE24.JPG,AMSA24.JPG,AMNE26.JPG,AMSA21.JPG,AMNE25.JPG,0,4,4,3,,,,,,,,,,,,,,,,,,,,,,,AFSA09.jpg,AFSA08.jpg,AFNE13.jpg,AFNE03.jpg,AFSA09.jpg,FS,4,num_8,32,num_2,1.63337253834,,,2018_Jan_26_1810,60.0125691939,FEMA4ImagesEEG,001,102689,
AFNE22.JPG,AFSA24.JPG,AFSA22.JPG,AFNE25.JPG,AFNE24.JPG,AFSA25.JPG,0,5,5,6,,,,,,,,,,,,,,,,,,,,,,,AFNE14.jpg,AFSA09.jpg,AFNE19.jpg,AFSA13.jpg,AFSA13.jpg,FS,4,num_4,32,num_6,1.1667334339,,,2018_Jan_26_1810,60.0125691939,FEMA4ImagesEEG,001,102689,
AFSA21.JPG,AFNE22.JPG,AFNE21.JPG,AFSA23.JPG,AFSA22.JPG,AFNE23.JPG,0,6,6,0,,,,,,,,,,,,,,,,,,,,,,,AFSA13.jpg,AFNE17.jpg,AFSA18.jpg,AFNE01.jpg,AFNE17.jpg,FN,3,num_6,32,num_4,1.28348862997,,,2018_Jan_26_1810,60.0125691939,FEMA4ImagesEEG,001,102689,
AFSA25.JPG,AFNE24.JPG,AFSA24.JPG,AFNE21.JPG,AFSA21.JPG,AFNE25.JPG,0,7,7,2,,,,,,,,,,,,,,,,,,,,,,,AFNE09.jpg,AFSA03.jpg,AFNE01.jpg,AFSA12.jpg,AFNE01.jpg,FN,3,num_2,32,num_6,1.91672357116,,,2018_Jan_26_1810,60.0125691939,FEMA4ImagesEEG,001,102689,
AMNE22.JPG,AMSA24.JPG,AMSA22.JPG,AMNE25.JPG,AMNE24.JPG,AMSA25.JPG,0,8,8,7,,,,,,,,,,,,,,,,,,,,,,,AFSA03.jpg,AFNE06.jpg,AFNE03.jpg,AFSA10.jpg,AFSA10.jpg,FS,4,num_4,32,num_2,1.65006381107,,,2018_Jan_26_1810,60.0125691939,FEMA4ImagesEEG,001,102689,
AMSA21.JPG,AMNE23.JPG,AMNE21.JPG,AMSA25.JPG,AMNE25.JPG,AMSA23.JPG,0,9,9,5,,,,,,,,,,,,,,,,,,,,,,,AFNE09.jpg,AFNE07.jpg,AFSA15.jpg,AFSA05.jpg,AFSA15.jpg,FS,4,num_2,32,num_6,1.31677110473,,,2018_Jan_26_1810,60.0125691939,FEMA4ImagesEEG,001,102689,
AMSA21.JPG,AMNE23.JPG,AMNE21.JPG,AMSA25.JPG,AMNE25.JPG,AMSA23.JPG,,,,,0,0,0,5,,,,,,,,,,,,,,,,,,,AMNE06.jpg,AMSA15.jpg,AMNE08.jpg,AMSA20.jpg,AMSA20.jpg,MS,2,num_4,16,num_4,1.26676111369,,,2018_Jan_26_1810,60.0125691939,FEMA4ImagesEEG,001,102689,
AFNE23.JPG,AFNE24.JPG,AFNE22.JPG,AFSA24.JPG,AFSA22.JPG,AFSA23.JPG,,,,,0,1,1,8,,,,,,,,,,,,,,,,,,,AMNE18.jpg,AMSA16.jpg,AMSA15.jpg,AMNE05.jpg,AMNE05.jpg,MN,1,num_4,32,num_8,1.90004448657,,,2018_Jan_26_1810,60.0125691939,FEMA4ImagesEEG,001,102689,
AMNE23.JPG,AMNE24.JPG,AMNE22.JPG,AMSA24.JPG,AMSA22.JPG,AMSA23.JPG,,,,,0,2,2,9,,,,,,,,,,,,,,,,,,,AMSA06.jpg,AMNE15.jpg,AMNE19.jpg,AMSA16.jpg,AMSA06.jpg,MS,2,num_8,32,num_4,1.3166517897,,,2018_Jan_26_1810,60.0125691939,FEMA4ImagesEEG,001,102689,
AFSA21.JPG,AFNE23.JPG,AFNE21.JPG,AFSA25.JPG,AFNE25.JPG,AFSA23.JPG,,,,,0,3,3,4,,,,,,,,,,,,,,,,,,,AMSA17.jpg,AMNE01.jpg,AMSA15.jpg,AMNE03.jpg,AMNE03.jpg,MN,1,num_4,32,num_6,2.3833222625,,,2018_Jan_26_1810,60.0125691939,FEMA4ImagesEEG,001,102689,
AFSA25.JPG,AFNE24.JPG,AFSA24.JPG,AFNE21.JPG,AFSA21.JPG,AFNE25.JPG,,,,,0,4,4,2,,,,,,,,,,,,,,,,,,,AMSA19.jpg,AMNE14.jpg,AMSA14.jpg,AMNE15.jpg,AMSA19.jpg,MS,2,num_8,16,num_8,1.20011758301,,,2018_Jan_26_1810,60.0125691939,FEMA4ImagesEEG,001,102689,
AMNE22.JPG,AMSA24.JPG,AMSA22.JPG,AMNE25.JPG,AMNE24.JPG,AMSA25.JPG,,,,,0,5,5,7,,,,,,,,,,,,,,,,,,,AMSA18.jpg,AMNE05.jpg,AMSA12.jpg,AMNE12.jpg,AMNE05.jpg,MN,1,num_6,32,num_8,2.48331915133,,,2018_Jan_26_1810,60.0125691939,FEMA4ImagesEEG,001,102689,
AMSA21.JPG,AMNE22.JPG,AMNE21.JPG,AMSA23.JPG,AMSA22.JPG,AMNE23.JPG,,,,,0,6,6,1,,,,,,,,,,,,,,,,,,,AMSA04.jpg,AMNE16.jpg,AMSA19.jpg,AMNE11.jpg,AMSA19.jpg,MS,2,num_2,32,num_8,1.94975683151,,,2018_Jan_26_1810,60.0125691939,FEMA4ImagesEEG,001,102689,
AFNE22.JPG,AFSA24.JPG,AFSA22.JPG,AFNE25.JPG,AFNE24.JPG,AFSA25.JPG,,,,,0,7,7,6,,,,,,,,,,,,,,,,,,,AMSA12.jpg,AMNE13.jpg,AMSA15.jpg,AMNE05.jpg,AMSA15.jpg,MS,2,num_2,32,num_4,1.70008855613,,,2018_Jan_26_1810,60.0125691939,FEMA4ImagesEEG,001,102689,
AFSA21.JPG,AFNE22.JPG,AFNE21.JPG,AFSA23.JPG,AFSA22.JPG,AFNE23.JPG,,,,,0,8,8,0,,,,,,,,,,,,,,,,,,,AMNE12.jpg,AMSA06.jpg,AMNE05.jpg,AMSA11.jpg,AMNE05.jpg,MN,1,num_2,32,num_8,1.35015365016,,,2018_Jan_26_1810,60.0125691939,FEMA4ImagesEEG,001,102689,
AMSA25.JPG,AMNE24.JPG,AMSA24.JPG,AMNE26.JPG,AMSA21.JPG,AMNE25.JPG,,,,,0,9,9,3,,,,,,,,,,,,,,,,,,,AMNE11.jpg,AMNE09.jpg,AMSA11.jpg,AMSA15.jpg,AMSA15.jpg,MS,2,num_4,16,num_4,0.750067435438,,,2018_Jan_26_1810,60.0125691939,FEMA4ImagesEEG,001,102689,
AFSA21.JPG,AFNE22.JPG,AFNE21.JPG,AFSA23.JPG,AFSA22.JPG,AFNE23.JPG,,,,,,,,,0,0,0,0,,,,,,,,,,,,,,,AFSA04.jpg,AFNE19.jpg,AFNE05.jpg,AFSA11.jpg,AFNE19.jpg,FN,3,num_6,16,num_6,0.983424514154,,,2018_Jan_26_1810,60.0125691939,FEMA4ImagesEEG,001,102689,
AFSA21.JPG,AFNE23.JPG,AFNE21.JPG,AFSA25.JPG,AFNE25.JPG,AFSA23.JPG,,,,,,,,,0,1,1,4,,,,,,,,,,,,,,,AFNE09.jpg,AFSA01.jpg,AFNE20.jpg,AFSA10.jpg,AFNE09.jpg,FN,3,num_8,16,num_8,0.900100936648,,,2018_Jan_26_1810,60.0125691939,FEMA4ImagesEEG,001,102689,
AFNE23.JPG,AFNE24.JPG,AFNE22.JPG,AFSA24.JPG,AFSA22.JPG,AFSA23.JPG,,,,,,,,,0,2,2,8,,,,,,,,,,,,,,,AFSA15.jpg,AFNE08.jpg,AFSA01.jpg,AFNE18.jpg,AFNE08.jpg,FN,3,num_6,32,num_8,1.28340684145,,,2018_Jan_26_1810,60.0125691939,FEMA4ImagesEEG,001,102689,
AMSA21.JPG,AMNE22.JPG,AMNE21.JPG,AMSA23.JPG,AMSA22.JPG,AMNE23.JPG,,,,,,,,,0,3,3,1,,,,,,,,,,,,,,,AFSA01.jpg,AFNE18.jpg,AFNE07.jpg,AFSA05.jpg,AFNE18.jpg,FN,3,num_6,32,num_4,1.61670243446,,,2018_Jan_26_1810,60.0125691939,FEMA4ImagesEEG,001,102689,
AFNE22.JPG,AFSA24.JPG,AFSA22.JPG,AFNE25.JPG,AFNE24.JPG,AFSA25.JPG,,,,,,,,,0,4,4,6,,,,,,,,,,,,,,,AFSA06.jpg,AFNE05.jpg,AFSA10.jpg,AFNE11.jpg,AFSA10.jpg,FS,4,num_2,16,num_2,1.23341833995,,,2018_Jan_26_1810,60.0125691939,FEMA4ImagesEEG,001,102689,
AFSA25.JPG,AFNE24.JPG,AFSA24.JPG,AFNE21.JPG,AFSA21.JPG,AFNE25.JPG,,,,,,,,,0,5,5,2,,,,,,,,,,,,,,,AFNE19.jpg,AFNE03.jpg,AFSA12.jpg,AFSA02.jpg,AFSA02.jpg,FS,4,num_4,16,num_4,1.66671402918,,,2018_Jan_26_1810,60.0125691939,FEMA4ImagesEEG,001,102689,
AMNE23.JPG,AMNE24.JPG,AMNE22.JPG,AMSA24.JPG,AMSA22.JPG,AMSA23.JPG,,,,,,,,,0,6,6,9,,,,,,,,,,,,,,,AFNE12.jpg,AFNE07.jpg,AFSA02.jpg,AFSA19.jpg,AFSA19.jpg,FS,4,num_4,32,num_8,0.78348879033,,,2018_Jan_26_1810,60.0125691939,FEMA4ImagesEEG,001,102689,
AMNE22.JPG,AMSA24.JPG,AMSA22.JPG,AMNE25.JPG,AMNE24.JPG,AMSA25.JPG,,,,,,,,,0,7,7,7,,,,,,,,,,,,,,,AFNE07.jpg,AFSA10.jpg,AFNE05.jpg,AFSA13.jpg,AFSA10.jpg,FS,4,num_6,16,num_6,1.23342603768,,,2018_Jan_26_1810,60.0125691939,FEMA4ImagesEEG,001,102689,
AMSA21.JPG,AMNE23.JPG,AMNE21.JPG,AMSA25.JPG,AMNE25.JPG,AMSA23.JPG,,,,,,,,,0,8,8,5,,,,,,,,,,,,,,,AFSA04.jpg,AFNE12.jpg,AFNE16.jpg,AFSA12.jpg,AFSA12.jpg,FS,4,num_4,16,num_4,0.999987491174,,,2018_Jan_26_1810,60.0125691939,FEMA4ImagesEEG,001,102689,
AMSA25.JPG,AMNE24.JPG,AMSA24.JPG,AMNE26.JPG,AMSA21.JPG,AMNE25.JPG,,,,,,,,,0,9,9,3,,,,,,,,,,,,,,,AFNE03.jpg,AFSA04.jpg,AFSA13.jpg,AFNE05.jpg,AFNE03.jpg,FN,3,num_8,16,num_8,1.21674567013,,,2018_Jan_26_1810,60.0125691939,FEMA4ImagesEEG,001,102689,
AFNE23.JPG,AFNE24.JPG,AFNE22.JPG,AFSA24.JPG,AFSA22.JPG,AFSA23.JPG,,,,,,,,,,,,,0,0,0,8,,,,,,,,,,,AMSA06.jpg,AMNE02.jpg,AMSA15.jpg,AMNE05.jpg,AMNE05.jpg,MN,1,num_4,16,num_4,1.76679912131,,,2018_Jan_26_1810,60.0125691939,FEMA4ImagesEEG,001,102689,
AMSA21.JPG,AMNE22.JPG,AMNE21.JPG,AMSA23.JPG,AMSA22.JPG,AMNE23.JPG,,,,,,,,,,,,,0,1,1,1,,,,,,,,,,,AMSA10.jpg,AMSA20.jpg,AMNE13.jpg,AMNE19.jpg,AMNE13.jpg,MN,1,num_2,32,num_8,0.966812784813,,,2018_Jan_26_1810,60.0125691939,FEMA4ImagesEEG,001,102689,
AFNE22.JPG,AFSA24.JPG,AFSA22.JPG,AFNE25.JPG,AFNE24.JPG,AFSA25.JPG,,,,,,,,,,,,,0,2,2,6,,,,,,,,,,,AMNE05.jpg,AMSA04.jpg,AMNE11.jpg,AMSA19.jpg,AMSA19.jpg,MS,2,num_4,16,num_4,1.56669661304,,,2018_Jan_26_1810,60.0125691939,FEMA4ImagesEEG,001,102689,
AFSA25.JPG,AFNE24.JPG,AFSA24.JPG,AFNE21.JPG,AFSA21.JPG,AFNE25.JPG,,,,,,,,,,,,,0,3,3,2,,,,,,,,,,,AMSA09.jpg,AMNE02.jpg,AMNE10.jpg,AMSA10.jpg,AMSA09.jpg,MS,2,num_8,16,num_8,1.01677562715,,,2018_Jan_26_1810,60.0125691939,FEMA4ImagesEEG,001,102689,
AMNE22.JPG,AMSA24.JPG,AMSA22.JPG,AMNE25.JPG,AMNE24.JPG,AMSA25.JPG,,,,,,,,,,,,,0,4,4,7,,,,,,,,,,,AMSA01.jpg,AMSA05.jpg,AMNE03.jpg,AMNE07.jpg,AMSA01.jpg,MS,2,num_8,32,num_6,2.31654594577,,,2018_Jan_26_1810,60.0125691939,FEMA4ImagesEEG,001,102689,
AMSA21.JPG,AMNE23.JPG,AMNE21.JPG,AMSA25.JPG,AMNE25.JPG,AMSA23.JPG,,,,,,,,,,,,,0,5,5,5,,,,,,,,,,,AMSA17.jpg,AMNE03.jpg,AMNE06.jpg,AMSA06.jpg,AMSA06.jpg,MS,2,num_4,16,num_4,1.05011711796,,,2018_Jan_26_1810,60.0125691939,FEMA4ImagesEEG,001,102689,
AMSA25.JPG,AMNE24.JPG,AMSA24.JPG,AMNE26.JPG,AMSA21.JPG,AMNE25.JPG,,,,,,,,,,,,,0,6,6,3,,,,,,,,,,,AMNE04.jpg,AMSA04.jpg,AMNE01.jpg,AMSA06.jpg,AMNE04.jpg,MN,1,num_8,32,num_6,0.816794358339,,,2018_Jan_26_1810,60.0125691939,FEMA4ImagesEEG,001,102689,
AFSA21.JPG,AFNE23.JPG,AFNE21.JPG,AFSA25.JPG,AFNE25.JPG,AFSA23.JPG,,,,,,,,,,,,,0,7,7,4,,,,,,,,,,,AMNE19.jpg,AMSA17.jpg,AMSA10.jpg,AMNE13.jpg,AMNE19.jpg,MN,1,num_8,32,num_4,1.18345645981,,,2018_Jan_26_1810,60.0125691939,FEMA4ImagesEEG,001,102689,
AFSA21.JPG,AFNE22.JPG,AFNE21.JPG,AFSA23.JPG,AFSA22.JPG,AFNE23.JPG,,,,,,,,,,,,,0,8,8,0,,,,,,,,,,,AMSA01.jpg,AMSA14.jpg,AMNE12.jpg,AMNE03.jpg,AMNE03.jpg,MN,1,num_4,32,num_8,1.88341511652,,,2018_Jan_26_1810,60.0125691939,FEMA4ImagesEEG,001,102689,
AMNE23.JPG,AMNE24.JPG,AMNE22.JPG,AMSA24.JPG,AMSA22.JPG,AMSA23.JPG,,,,,,,,,,,,,0,9,9,9,,,,,,,,,,,AMNE19.jpg,AMSA19.jpg,AMNE18.jpg,AMSA04.jpg,AMSA19.jpg,MS,2,num_6,32,num_8,1.55041171698,,,2018_Jan_26_1810,60.0125691939,FEMA4ImagesEEG,001,102689,
AMNE23.JPG,AMNE24.JPG,AMNE22.JPG,AMSA24.JPG,AMSA22.JPG,AMSA23.JPG,,,,,,,,,,,,,,,,,0,0,0,9,,,,,,,AFSA03.jpg,AFSA02.jpg,AFNE16.jpg,AFNE11.jpg,AFNE16.jpg,FN,3,num_2,32,num_6,2.23334200398,,,2018_Jan_26_1810,60.0125691939,FEMA4ImagesEEG,001,102689,
AMSA25.JPG,AMNE24.JPG,AMSA24.JPG,AMNE26.JPG,AMSA21.JPG,AMNE25.JPG,,,,,,,,,,,,,,,,,0,1,1,3,,,,,,,AFNE09.jpg,AFSA01.jpg,AFNE16.jpg,AFSA18.jpg,AFSA18.jpg,FS,4,num_4,16,num_4,0.733478799288,,,2018_Jan_26_1810,60.0125691939,FEMA4ImagesEEG,001,102689,
AFNE22.JPG,AFSA24.JPG,AFSA22.JPG,AFNE25.JPG,AFNE24.JPG,AFSA25.JPG,,,,,,,,,,,,,,,,,0,2,2,6,,,,,,,AFNE14.jpg,AFSA18.jpg,AFNE08.jpg,AFSA20.jpg,AFSA20.jpg,FS,4,num_4,32,num_2,2.4333296876,,,2018_Jan_26_1810,60.0125691939,FEMA4ImagesEEG,001,102689,
AFNE23.JPG,AFNE24.JPG,AFNE22.JPG,AFSA24.JPG,AFSA22.JPG,AFSA23.JPG,,,,,,,,,,,,,,,,,0,3,3,8,,,,,,,AFSA02.jpg,AFNE19.jpg,AFSA01.jpg,AFNE15.jpg,AFSA02.jpg,FS,4,num_8,32,num_4,1.60003233052,,,2018_Jan_26_1810,60.0125691939,FEMA4ImagesEEG,001,102689,
AMNE22.JPG,AMSA24.JPG,AMSA22.JPG,AMNE25.JPG,AMNE24.JPG,AMSA25.JPG,,,,,,,,,,,,,,,,,0,4,4,7,,,,,,,AFNE03.jpg,AFNE05.jpg,AFSA12.jpg,AFSA10.jpg,AFNE03.jpg,FN,3,num_8,32,num_6,1.51676873124,,,2018_Jan_26_1810,60.0125691939,FEMA4ImagesEEG,001,102689,
AFSA25.JPG,AFNE24.JPG,AFSA24.JPG,AFNE21.JPG,AFSA21.JPG,AFNE25.JPG,,,,,,,,,,,,,,,,,0,5,5,2,,,,,,,AFNE01.jpg,AFSA05.jpg,AFNE18.jpg,AFSA18.jpg,AFSA18.jpg,FS,4,num_4,16,num_4,0.983443758538,,,2018_Jan_26_1810,60.0125691939,FEMA4ImagesEEG,001,102689,
AFSA21.JPG,AFNE23.JPG,AFNE21.JPG,AFSA25.JPG,AFNE25.JPG,AFSA23.JPG,,,,,,,,,,,,,,,,,0,6,6,4,,,,,,,AFNE19.jpg,AFSA06.jpg,AFSA18.jpg,AFNE12.jpg,AFSA18.jpg,FS,4,num_2,16,num_2,0.90015000978,,,2018_Jan_26_1810,60.0125691939,FEMA4ImagesEEG,001,102689,
AMSA21.JPG,AMNE23.JPG,AMNE21.JPG,AMSA25.JPG,AMNE25.JPG,AMSA23.JPG,,,,,,,,,,,,,,,,,0,7,7,5,,,,,,,AFNE01.jpg,AFSA06.jpg,AFNE09.jpg,AFSA18.jpg,AFSA06.jpg,FS,4,num_6,16,num_6,0.600131438958,,,2018_Jan_26_1810,60.0125691939,FEMA4ImagesEEG,001,102689,
AMSA21.JPG,AMNE22.JPG,AMNE21.JPG,AMSA23.JPG,AMSA22.JPG,AMNE23.JPG,,,,,,,,,,,,,,,,,0,8,8,1,,,,,,,AFSA17.jpg,AFSA03.jpg,AFNE14.jpg,AFNE07.jpg,AFNE07.jpg,FN,3,num_4,16,num_4,1.10015180593,,,2018_Jan_26_1810,60.0125691939,FEMA4ImagesEEG,001,102689,
AFSA21.JPG,AFNE22.JPG,AFNE21.JPG,AFSA23.JPG,AFSA22.JPG,AFNE23.JPG,,,,,,,,,,,,,,,,,0,9,9,0,,,,,,,AFSA19.jpg,AFNE12.jpg,AFSA03.jpg,AFNE07.jpg,AFNE07.jpg,FN,3,num_4,32,num_6,1.46673211886,,,2018_Jan_26_1810,60.0125691939,FEMA4ImagesEEG,001,102689,
AFSA21.JPG,AFNE22.JPG,AFNE21.JPG,AFSA23.JPG,AFSA22.JPG,AFNE23.JPG,,,,,,,,,,,,,,,,,,,,,0,0,0,0,,,AMNE16.jpg,AMSA14.jpg,AMNE14.jpg,AMSA16.jpg,AMSA16.jpg,MS,2,num_4,16,num_4,1.18339455713,,,2018_Jan_26_1810,60.0125691939,FEMA4ImagesEEG,001,102689,
AFNE22.JPG,AFSA24.JPG,AFSA22.JPG,AFNE25.JPG,AFNE24.JPG,AFSA25.JPG,,,,,,,,,,,,,,,,,,,,,0,1,1,6,,,AMSA13.jpg,AMSA09.jpg,AMNE06.jpg,AMNE14.jpg,AMNE06.jpg,MN,1,num_2,32,num_8,1.5500925814,,,2018_Jan_26_1810,60.0125691939,FEMA4ImagesEEG,001,102689,
AMSA21.JPG,AMNE23.JPG,AMNE21.JPG,AMSA25.JPG,AMNE25.JPG,AMSA23.JPG,,,,,,,,,,,,,,,,,,,,,0,2,2,5,,,AMNE10.jpg,AMSA19.jpg,AMSA20.jpg,AMNE12.jpg,AMNE10.jpg,MN,1,num_8,32,num_6,1.25011282004,,,2018_Jan_26_1810,60.0125691939,FEMA4ImagesEEG,001,102689,
AFSA25.JPG,AFNE24.JPG,AFSA24.JPG,AFNE21.JPG,AFSA21.JPG,AFNE25.JPG,,,,,,,,,,,,,,,,,,,,,0,3,3,2,,,AMSA19.jpg,AMSA01.jpg,AMNE12.jpg,AMNE19.jpg,AMNE12.jpg,MN,1,num_2,32,num_4,2.08343679851,,,2018_Jan_26_1810,60.0125691939,FEMA4ImagesEEG,001,102689,
AMNE22.JPG,AMSA24.JPG,AMSA22.JPG,AMNE25.JPG,AMNE24.JPG,AMSA25.JPG,,,,,,,,,,,,,,,,,,,,,0,4,4,7,,,AMSA13.jpg,AMNE16.jpg,AMNE04.jpg,AMSA18.jpg,AMNE04.jpg,MN,1,num_2,16,num_2,1.23355240896,,,2018_Jan_26_1810,60.0125691939,FEMA4ImagesEEG,001,102689,
AFNE23.JPG,AFNE24.JPG,AFNE22.JPG,AFSA24.JPG,AFSA22.JPG,AFSA23.JPG,,,,,,,,,,,,,,,,,,,,,0,5,5,8,,,AMSA10.jpg,AMNE14.jpg,AMSA18.jpg,AMNE12.jpg,AMNE14.jpg,MN,1,num_6,16,num_6,1.33340432364,,,2018_Jan_26_1810,60.0125691939,FEMA4ImagesEEG,001,102689,
AMSA25.JPG,AMNE24.JPG,AMSA24.JPG,AMNE26.JPG,AMSA21.JPG,AMNE25.JPG,,,,,,,,,,,,,,,,,,,,,0,6,6,3,,,AMSA08.jpg,AMSA01.jpg,AMNE03.jpg,AMNE05.jpg,AMSA01.jpg,MS,2,num_6,32,num_2,2.4834307686,,,2018_Jan_26_1810,60.0125691939,FEMA4ImagesEEG,001,102689,
AFSA21.JPG,AFNE23.JPG,AFNE21.JPG,AFSA25.JPG,AFNE25.JPG,AFSA23.JPG,,,,,,,,,,,,,,,,,,,,,0,7,7,4,,,AMNE07.jpg,AMSA16.jpg,AMSA12.jpg,AMNE19.jpg,AMNE07.jpg,MN,1,num_8,16,num_8,0.833488838427,,,2018_Jan_26_1810,60.0125691939,FEMA4ImagesEEG,001,102689,
AMSA21.JPG,AMNE22.JPG,AMNE21.JPG,AMSA23.JPG,AMSA22.JPG,AMNE23.JPG,,,,,,,,,,,,,,,,,,,,,0,8,8,1,,,AMNE12.jpg,AMNE02.jpg,AMSA13.jpg,AMSA19.jpg,AMSA19.jpg,MS,2,num_4,16,num_4,1.26674347304,,,2018_Jan_26_1810,60.0125691939,FEMA4ImagesEEG,001,102689,
AMNE23.JPG,AMNE24.JPG,AMNE22.JPG,AMSA24.JPG,AMSA22.JPG,AMSA23.JPG,,,,,,,,,,,,,,,,,,,,,0,9,9,9,,,AMSA20.jpg,AMNE01.jpg,AMSA12.jpg,AMNE06.jpg,AMNE01.jpg,MN,1,num_6,16,num_6,1.08345860874,,,2018_Jan_26_1810,60.0125691939,FEMA4ImagesEEG,001,102689,
,,,,,,,,,,,,,,,,,,,,,,,,,,,,,,,,,,,,,,,,,,,space,14.632664346,2018_Jan_26_1810,60.0125691939,FEMA4ImagesEEG,001,102689,
AFNE01.JPG,AFNE01.JPG,AFNE01.JPG,AFNE01.JPG,AFNE01.JPG,AFNE01.JPG,0,0,0,6,,,,,,,,,,,,,,,,,,,,,,,AFNE04.jpg,AFSA15.jpg,AFSA13.jpg,AFNE09.jpg,AFSA13.jpg,FS,4,num_2,16,num_2,1.23345362127,,,2018_Jan_26_1810,60.0125691939,FEMA4ImagesEEG,001,102689,
AFNE01.JPG,AFNE01.JPG,AFNE01.JPG,AFNE01.JPG,AFNE01.JPG,AFNE01.JPG,0,1,1,2,,,,,,,,,,,,,,,,,,,,,,,AFSA02.jpg,AFNE15.jpg,AFNE10.jpg,AFSA17.jpg,AFSA02.jpg,FS,4,num_8,16,num_8,1.03348967235,,,2018_Jan_26_1810,60.0125691939,FEMA4ImagesEEG,001,102689,
AFNE01.JPG,AFNE01.JPG,AFNE01.JPG,AFNE01.JPG,AFNE01.JPG,AFNE01.JPG,0,2,2,0,,,,,,,,,,,,,,,,,,,,,,,AFSA05.jpg,AFNE05.jpg,AFNE11.jpg,AFSA13.jpg,AFSA13.jpg,FS,4,num_4,32,num_2,1.45006842972,,,2018_Jan_26_1810,60.0125691939,FEMA4ImagesEEG,001,102689,
AFNE01.JPG,AFNE01.JPG,AFNE01.JPG,AFNE01.JPG,AFNE01.JPG,AFNE01.JPG,0,3,3,5,,,,,,,,,,,,,,,,,,,,,,,AFSA02.jpg,AFNE11.jpg,AFNE12.jpg,AFSA03.jpg,AFSA02.jpg,FS,4,num_8,32,num_6,1.30011350964,,,2018_Jan_26_1810,60.0125691939,FEMA4ImagesEEG,001,102689,
AFNE01.JPG,AFNE01.JPG,AFNE01.JPG,AFNE01.JPG,AFNE01.JPG,AFNE01.JPG,0,4,4,7,,,,,,,,,,,,,,,,,,,,,,,AFSA09.jpg,AFSA14.jpg,AFNE04.jpg,AFNE17.jpg,AFSA14.jpg,FS,4,num_6,32,num_8,1.23343918798,,,2018_Jan_26_1810,60.0125691939,FEMA4ImagesEEG,001,102689,
AFNE01.JPG,AFNE01.JPG,AFNE01.JPG,AFNE01.JPG,AFNE01.JPG,AFNE01.JPG,0,5,5,1,,,,,,,,,,,,,,,,,,,,,,,AFNE01.jpg,AFNE17.jpg,AFSA18.jpg,AFSA09.jpg,AFNE17.jpg,FN,3,num_6,16,num_6,1.80003829626,,,2018_Jan_26_1810,60.0125691939,FEMA4ImagesEEG,001,102689,
AFNE01.JPG,AFNE01.JPG,AFNE01.JPG,AFNE01.JPG,AFNE01.JPG,AFNE01.JPG,0,6,6,4,,,,,,,,,,,,,,,,,,,,,,,AFNE18.jpg,AFSA13.jpg,AFSA09.jpg,AFNE07.jpg,AFSA13.jpg,FS,4,num_6,16,num_6,1.4333826096,,,2018_Jan_26_1810,60.0125691939,FEMA4ImagesEEG,001,102689,
AFNE01.JPG,AFNE01.JPG,AFNE01.JPG,AFNE01.JPG,AFNE01.JPG,AFNE01.JPG,0,7,7,8,,,,,,,,,,,,,,,,,,,,,,,AFNE04.jpg,AFNE20.jpg,AFSA12.jpg,AFSA05.jpg,AFSA05.jpg,FS,4,num_4,16,num_4,1.01699340911,,,2018_Jan_26_1810,60.0125691939,FEMA4ImagesEEG,001,102689,
AFNE01.JPG,AFNE01.JPG,AFNE01.JPG,AFNE01.JPG,AFNE01.JPG,AFNE01.JPG,0,8,8,3,,,,,,,,,,,,,,,,,,,,,,,AFNE03.jpg,AFNE08.jpg,AFSA19.jpg,AFSA03.jpg,AFNE03.jpg,FN,3,num_8,16,num_8,1.11676417675,,,2018_Jan_26_1810,60.0125691939,FEMA4ImagesEEG,001,102689,
AFNE01.JPG,AFNE01.JPG,AFNE01.JPG,AFNE01.JPG,AFNE01.JPG,AFNE01.JPG,0,9,9,9,,,,,,,,,,,,,,,,,,,,,,,AFNE09.jpg,AFSA11.jpg,AFSA16.jpg,AFNE02.jpg,AFNE09.jpg,FN,3,num_8,32,num_2,1.71675577341,,,2018_Jan_26_1810,60.0125691939,FEMA4ImagesEEG,001,102689,
AFNE01.JPG,AFNE01.JPG,AFNE01.JPG,AFNE01.JPG,AFNE01.JPG,AFNE01.JPG,1,0,10,2,,,,,,,,,,,,,,,,,,,,,,,AFSA19.jpg,AFSA07.jpg,AFNE16.jpg,AFNE14.jpg,AFNE16.jpg,FN,3,num_2,16,num_2,1.25016477981,,,2018_Jan_26_1810,60.0125691939,FEMA4ImagesEEG,001,102689,
AFNE01.JPG,AFNE01.JPG,AFNE01.JPG,AFNE01.JPG,AFNE01.JPG,AFNE01.JPG,1,1,11,6,,,,,,,,,,,,,,,,,,,,,,,AFNE13.jpg,AFSA19.jpg,AFSA16.jpg,AFNE08.jpg,AFNE13.jpg,FN,3,num_8,16,num_8,0.850165998621,,,2018_Jan_26_1810,60.0125691939,FEMA4ImagesEEG,001,102689,
AFNE01.JPG,AFNE01.JPG,AFNE01.JPG,AFNE01.JPG,AFNE01.JPG,AFNE01.JPG,1,2,12,8,,,,,,,,,,,,,,,,,,,,,,,AFSA13.jpg,AFSA10.jpg,AFNE19.jpg,AFNE03.jpg,AFNE03.jpg,FN,3,num_4,16,num_4,0.950094249245,,,2018_Jan_26_1810,60.0125691939,FEMA4ImagesEEG,001,102689,
AFNE01.JPG,AFNE01.JPG,AFNE01.JPG,AFNE01.JPG,AFNE01.JPG,AFNE01.JPG,1,3,13,5,,,,,,,,,,,,,,,,,,,,,,,AFNE11.jpg,AFSA16.jpg,AFSA06.jpg,AFNE08.jpg,AFNE11.jpg,FN,3,num_8,32,num_6,1.21672578427,,,2018_Jan_26_1810,60.0125691939,FEMA4ImagesEEG,001,102689,
AFNE01.JPG,AFNE01.JPG,AFNE01.JPG,AFNE01.JPG,AFNE01.JPG,AFNE01.JPG,1,4,14,3,,,,,,,,,,,,,,,,,,,,,,,AFSA15.jpg,AFNE19.jpg,AFSA14.jpg,AFNE07.jpg,AFNE19.jpg,FN,3,num_6,16,num_6,1.24996431774,,,2018_Jan_26_1810,60.0125691939,FEMA4ImagesEEG,001,102689,
AFNE01.JPG,AFNE01.JPG,AFNE01.JPG,AFNE01.JPG,AFNE01.JPG,AFNE01.JPG,1,5,15,0,,,,,,,,,,,,,,,,,,,,,,,AFSA14.jpg,AFNE04.jpg,AFNE13.jpg,AFSA19.jpg,AFNE13.jpg,FN,3,num_2,32,num_4,1.46672859072,,,2018_Jan_26_1810,60.0125691939,FEMA4ImagesEEG,001,102689,
AFNE01.JPG,AFNE01.JPG,AFNE01.JPG,AFNE01.JPG,AFNE01.JPG,AFNE01.JPG,1,6,16,1,,,,,,,,,,,,,,,,,,,,,,,AFSA09.jpg,AFNE03.jpg,AFSA12.jpg,AFNE06.jpg,AFSA09.jpg,FS,4,num_8,16,num_8,1.16676647007,,,2018_Jan_26_1810,60.0125691939,FEMA4ImagesEEG,001,102689,
AFNE01.JPG,AFNE01.JPG,AFNE01.JPG,AFNE01.JPG,AFNE01.JPG,AFNE01.JPG,1,7,17,9,,,,,,,,,,,,,,,,,,,,,,,AFNE06.jpg,AFNE19.jpg,AFSA16.jpg,AFSA17.jpg,AFNE06.jpg,FN,3,num_8,32,num_6,0.80012361292,,,2018_Jan_26_1810,60.0125691939,FEMA4ImagesEEG,001,102689,
AFNE01.JPG,AFNE01.JPG,AFNE01.JPG,AFNE01.JPG,AFNE01.JPG,AFNE01.JPG,1,8,18,7,,,,,,,,,,,,,,,,,,,,,,,AFNE11.jpg,AFSA14.jpg,AFNE03.jpg,AFSA15.jpg,AFSA15.jpg,FS,4,num_4,16,num_4,0.783477885212,,,2018_Jan_26_1810,60.0125691939,FEMA4ImagesEEG,001,102689,
AFNE01.JPG,AFNE01.JPG,AFNE01.JPG,AFNE01.JPG,AFNE01.JPG,AFNE01.JPG,1,9,19,4,,,,,,,,,,,,,,,,,,,,,,,AFSA13.jpg,AFNE06.jpg,AFNE07.jpg,AFSA12.jpg,AFNE06.jpg,FN,3,num_6,32,num_2,1.58341611078,,,2018_Jan_26_1810,60.0125691939,FEMA4ImagesEEG,001,102689,
AFNE01.JPG,AFNE01.JPG,AFNE01.JPG,AFNE01.JPG,AFNE01.JPG,AFNE01.JPG,2,0,20,1,,,,,,,,,,,,,,,,,,,,,,,AFSA12.jpg,AFNE06.jpg,AFNE12.jpg,AFSA06.jpg,AFSA06.jpg,FS,4,num_4,16,num_4,1.46659099357,,,2018_Jan_26_1810,60.0125691939,FEMA4ImagesEEG,001,102689,
AFNE01.JPG,AFNE01.JPG,AFNE01.JPG,AFNE01.JPG,AFNE01.JPG,AFNE01.JPG,2,1,21,0,,,,,,,,,,,,,,,,,,,,,,,AFNE10.jpg,AFSA17.jpg,AFSA08.jpg,AFNE11.jpg,AFSA17.jpg,FS,4,num_6,16,num_6,0.683469128999,,,2018_Jan_26_1810,60.0125691939,FEMA4ImagesEEG,001,102689,
AFNE01.JPG,AFNE01.JPG,AFNE01.JPG,AFNE01.JPG,AFNE01.JPG,AFNE01.JPG,2,2,22,5,,,,,,,,,,,,,,,,,,,,,,,AFNE19.jpg,AFSA07.jpg,AFSA17.jpg,AFNE18.jpg,AFSA17.jpg,FS,4,num_2,16,num_2,1.56669725449,,,2018_Jan_26_1810,60.0125691939,FEMA4ImagesEEG,001,102689,
AFNE01.JPG,AFNE01.JPG,AFNE01.JPG,AFNE01.JPG,AFNE01.JPG,AFNE01.JPG,2,3,23,7,,,,,,,,,,,,,,,,,,,,,,,AFNE07.jpg,AFSA14.jpg,AFSA10.jpg,AFNE14.jpg,AFNE14.jpg,FN,3,num_4,32,num_8,0.650182805373,,,2018_Jan_26_1810,60.0125691939,FEMA4ImagesEEG,001,102689,
AFNE01.JPG,AFNE01.JPG,AFNE01.JPG,AFNE01.JPG,AFNE01.JPG,AFNE01.JPG,2,4,24,3,,,,,,,,,,,,,,,,,,,,,,,AFSA09.jpg,AFNE15.jpg,AFSA02.jpg,AFNE03.jpg,AFNE03.jpg,FN,3,num_4,32,num_2,1.66670280328,,,2018_Jan_26_1810,60.0125691939,FEMA4ImagesEEG,001,102689,
AFNE01.JPG,AFNE01.JPG,AFNE01.JPG,AFNE01.JPG,AFNE01.JPG,AFNE01.JPG,2,5,25,8,,,,,,,,,,,,,,,,,,,,,,,AFNE17.jpg,AFSA03.jpg,AFNE09.jpg,AFSA12.jpg,AFSA12.jpg,FS,4,num_4,16,num_4,1.93341131575,,,2018_Jan_26_1810,60.0125691939,FEMA4ImagesEEG,001,102689,
AFNE01.JPG,AFNE01.JPG,AFNE01.JPG,AFNE01.JPG,AFNE01.JPG,AFNE01.JPG,2,6,26,4,,,,,,,,,,,,,,,,,,,,,,,AFSA20.jpg,AFNE12.jpg,AFNE06.jpg,AFSA19.jpg,AFSA19.jpg,FS,4,num_4,32,num_2,1.54992098585,,,2018_Jan_26_1810,60.0125691939,FEMA4ImagesEEG,001,102689,
AFNE01.JPG,AFNE01.JPG,AFNE01.JPG,AFNE01.JPG,AFNE01.JPG,AFNE01.JPG,2,7,27,2,,,,,,,,,,,,,,,,,,,,,,,AFSA08.jpg,AFSA18.jpg,AFNE09.jpg,AFNE20.jpg,AFSA18.jpg,FS,4,num_6,16,num_6,1.03348005019,,,2018_Jan_26_1810,60.0125691939,FEMA4ImagesEEG,001,102689,
AFNE01.JPG,AFNE01.JPG,AFNE01.JPG,AFNE01.JPG,AFNE01.JPG,AFNE01.JPG,2,8,28,9,,,,,,,,,,,,,,,,,,,,,,,AFNE20.jpg,AFSA10.jpg,AFNE12.jpg,AFSA15.jpg,AFNE12.jpg,FN,3,num_2,32,num_8,1.08345443915,,,2018_Jan_26_1810,60.0125691939,FEMA4ImagesEEG,001,102689,
AFNE01.JPG,AFNE01.JPG,AFNE01.JPG,AFNE01.JPG,AFNE01.JPG,AFNE01.JPG,2,9,29,6,,,,,,,,,,,,,,,,,,,,,,,AFSA12.jpg,AFNE15.jpg,AFSA13.jpg,AFNE04.jpg,AFNE04.jpg,FN,3,num_4,32,num_6,1.71668072039,,,2018_Jan_26_1810,60.0125691939,FEMA4ImagesEEG,001,102689,
AFNE01.JPG,AFNE01.JPG,AFNE01.JPG,AFNE01.JPG,AFNE01.JPG,AFNE01.JPG,3,0,30,7,,,,,,,,,,,,,,,,,,,,,,,AFSA14.jpg,AFNE08.jpg,AFSA02.jpg,AFNE03.jpg,AFSA14.jpg,FS,4,num_8,16,num_8,2.79994752706,,,2018_Jan_26_1810,60.0125691939,FEMA4ImagesEEG,001,102689,
AFNE01.JPG,AFNE01.JPG,AFNE01.JPG,AFNE01.JPG,AFNE01.JPG,AFNE01.JPG,3,1,31,5,,,,,,,,,,,,,,,,,,,,,,,AFSA04.jpg,AFNE02.jpg,AFNE15.jpg,AFSA20.jpg,AFSA04.jpg,FS,4,num_8,32,num_6,1.06676797749,,,2018_Jan_26_1810,60.0125691939,FEMA4ImagesEEG,001,102689,
AFNE01.JPG,AFNE01.JPG,AFNE01.JPG,AFNE01.JPG,AFNE01.JPG,AFNE01.JPG,3,2,32,4,,,,,,,,,,,,,,,,,,,,,,,AFSA14.jpg,AFSA13.jpg,AFNE06.jpg,AFNE12.jpg,AFSA13.jpg,FS,4,num_6,16,num_6,2.03336554623,,,2018_Jan_26_1810,60.0125691939,FEMA4ImagesEEG,001,102689,
AFNE01.JPG,AFNE01.JPG,AFNE01.JPG,AFNE01.JPG,AFNE01.JPG,AFNE01.JPG,3,3,33,6,,,,,,,,,,,,,,,,,,,,,,,AFNE15.jpg,AFSA05.jpg,AFSA15.jpg,AFNE05.jpg,AFNE15.jpg,FN,3,num_8,32,num_4,1.26674058638,,,2018_Jan_26_1810,60.0125691939,FEMA4ImagesEEG,001,102689,
AFNE01.JPG,AFNE01.JPG,AFNE01.JPG,AFNE01.JPG,AFNE01.JPG,AFNE01.JPG,3,4,34,3,,,,,,,,,,,,,,,,,,,,,,,AFNE06.jpg,AFSA18.jpg,AFSA20.jpg,AFNE18.jpg,AFSA18.jpg,FS,4,num_6,32,num_2,1.31673165379,,,2018_Jan_26_1810,60.0125691939,FEMA4ImagesEEG,001,102689,
AFNE01.JPG,AFNE01.JPG,AFNE01.JPG,AFNE01.JPG,AFNE01.JPG,AFNE01.JPG,3,5,35,1,,,,,,,,,,,,,,,,,,,,,,,AFSA07.jpg,AFNE01.jpg,AFSA02.jpg,AFNE18.jpg,AFSA02.jpg,FS,4,num_2,32,num_4,1.08344513769,,,2018_Jan_26_1810,60.0125691939,FEMA4ImagesEEG,001,102689,
AFNE01.JPG,AFNE01.JPG,AFNE01.JPG,AFNE01.JPG,AFNE01.JPG,AFNE01.JPG,3,6,36,8,,,,,,,,,,,,,,,,,,,,,,,AFSA20.jpg,AFNE13.jpg,AFNE08.jpg,AFSA03.jpg,AFNE08.jpg,FN,3,num_2,16,num_2,1.25011795189,,,2018_Jan_26_1810,60.0125691939,FEMA4ImagesEEG,001,102689,
AFNE01.JPG,AFNE01.JPG,AFNE01.JPG,AFNE01.JPG,AFNE01.JPG,AFNE01.JPG,3,7,37,2,,,,,,,,,,,,,,,,,,,,,,,AFSA01.jpg,AFNE19.jpg,AFNE16.jpg,AFSA04.jpg,AFNE16.jpg,FN,3,num_2,32,num_8,1.23345041386,,,2018_Jan_26_1810,60.0125691939,FEMA4ImagesEEG,001,102689,
AFNE01.JPG,AFNE01.JPG,AFNE01.JPG,AFNE01.JPG,AFNE01.JPG,AFNE01.JPG,3,8,38,9,,,,,,,,,,,,,,,,,,,,,,,AFSA12.jpg,AFNE20.jpg,AFNE13.jpg,AFSA07.jpg,AFNE13.jpg,FN,3,num_2,32,num_6,1.01683817132,,,2018_Jan_26_1810,60.0125691939,FEMA4ImagesEEG,001,102689,
AFNE01.JPG,AFNE01.JPG,AFNE01.JPG,AFNE01.JPG,AFNE01.JPG,AFNE01.JPG,3,9,39,0,,,,,,,,,,,,,,,,,,,,,,,AFSA16.jpg,AFNE03.jpg,AFNE12.jpg,AFSA13.jpg,AFNE12.jpg,FN,3,num_2,16,num_2,1.06675386499,,,2018_Jan_26_1810,60.0125691939,FEMA4ImagesEEG,001,102689,
AFNE01.JPG,AFNE01.JPG,AFNE01.JPG,AFNE01.JPG,AFNE01.JPG,AFNE01.JPG,4,0,40,2,,,,,,,,,,,,,,,,,,,,,,,AFSA02.jpg,AFNE04.jpg,AFSA03.jpg,AFNE15.jpg,AFNE04.jpg,FN,3,num_6,16,num_6,1.30004422995,,,2018_Jan_26_1810,60.0125691939,FEMA4ImagesEEG,001,102689,
AFNE01.JPG,AFNE01.JPG,AFNE01.JPG,AFNE01.JPG,AFNE01.JPG,AFNE01.JPG,4,1,41,4,,,,,,,,,,,,,,,,,,,,,,,AFSA01.jpg,AFSA04.jpg,AFNE13.jpg,AFNE14.jpg,AFSA04.jpg,FS,4,num_6,16,num_6,0.900138783909,,,2018_Jan_26_1810,60.0125691939,FEMA4ImagesEEG,001,102689,
AFNE01.JPG,AFNE01.JPG,AFNE01.JPG,AFNE01.JPG,AFNE01.JPG,AFNE01.JPG,4,2,42,8,,,,,,,,,,,,,,,,,,,,,,,AFSA09.jpg,AFSA13.jpg,AFNE04.jpg,AFNE13.jpg,AFNE13.jpg,FN,3,num_4,16,num_4,1.41673239149,,,2018_Jan_26_1810,60.0125691939,FEMA4ImagesEEG,001,102689,
AFNE01.JPG,AFNE01.JPG,AFNE01.JPG,AFNE01.JPG,AFNE01.JPG,AFNE01.JPG,4,3,43,7,,,,,,,,,,,,,,,,,,,,,,,AFNE01.jpg,AFSA11.jpg,AFNE20.jpg,AFSA02.jpg,AFSA11.jpg,FS,4,num_6,32,num_2,0.933466162183,,,2018_Jan_26_1810,60.0125691939,FEMA4ImagesEEG,001,102689,
AFNE01.JPG,AFNE01.JPG,AFNE01.JPG,AFNE01.JPG,AFNE01.JPG,AFNE01.JPG,4,4,44,1,,,,,,,,,,,,,,,,,,,,,,,AFNE07.jpg,AFSA19.jpg,AFNE11.jpg,AFSA20.jpg,AFSA20.jpg,FS,4,num_4,32,num_6,1.86676553992,,,2018_Jan_26_1810,60.0125691939,FEMA4ImagesEEG,001,102689,
AFNE01.JPG,AFNE01.JPG,AFNE01.JPG,AFNE01.JPG,AFNE01.JPG,AFNE01.JPG,4,5,45,5,,,,,,,,,,,,,,,,,,,,,,,AFNE06.jpg,AFSA13.jpg,AFNE18.jpg,AFSA17.jpg,AFNE18.jpg,FN,3,num_2,16,num_2,1.24992390463,,,2018_Jan_26_1810,60.0125691939,FEMA4ImagesEEG,001,102689,
AFNE01.JPG,AFNE01.JPG,AFNE01.JPG,AFNE01.JPG,AFNE01.JPG,AFNE01.JPG,4,6,46,0,,,,,,,,,,,,,,,,,,,,,,,AFSA20.jpg,AFNE01.jpg,AFNE17.jpg,AFSA08.jpg,AFNE01.jpg,FN,3,num_6,32,num_8,0.950135945342,,,2018_Jan_26_1810,60.0125691939,FEMA4ImagesEEG,001,102689,
AFNE01.JPG,AFNE01.JPG,AFNE01.JPG,AFNE01.JPG,AFNE01.JPG,AFNE01.JPG,4,7,47,6,,,,,,,,,,,,,,,,,,,,,,,AFNE15.jpg,AFSA04.jpg,AFSA18.jpg,AFNE11.jpg,AFSA04.jpg,FS,4,num_6,32,num_2,1.35007506903,,,2018_Jan_26_1810,60.0125691939,FEMA4ImagesEEG,001,102689,
AFNE01.JPG,AFNE01.JPG,AFNE01.JPG,AFNE01.JPG,AFNE01.JPG,AFNE01.JPG,4,8,48,9,,,,,,,,,,,,,,,,,,,,,,,AFNE01.jpg,AFNE17.jpg,AFSA01.jpg,AFSA07.jpg,AFSA01.jpg,FS,4,num_2,32,num_6,1.06675578942,,,2018_Jan_26_1810,60.0125691939,FEMA4ImagesEEG,001,102689,
AFNE01.JPG,AFNE01.JPG,AFNE01.JPG,AFNE01.JPG,AFNE01.JPG,AFNE01.JPG,4,9,49,3,,,,,,,,,,,,,,,,,,,,,,,AFSA12.jpg,AFSA01.jpg,AFNE13.jpg,AFNE01.jpg,AFSA12.jpg,FS,4,num_8,16,num_8,1.46675681579,,,2018_Jan_26_1810,60.0125691939,FEMA4ImagesEEG,001,102689,
AFNE01.JPG,AFNE01.JPG,AFNE01.JPG,AFNE01.JPG,AFNE01.JPG,AFNE01.JPG,5,0,50,8,,,,,,,,,,,,,,,,,,,,,,,AFSA09.jpg,AFSA12.jpg,AFNE12.jpg,AFNE09.jpg,AFSA12.jpg,FS,4,num_6,16,num_6,0.500163737393,,,2018_Jan_26_1810,60.0125691939,FEMA4ImagesEEG,001,102689,
AFNE01.JPG,AFNE01.JPG,AFNE01.JPG,AFNE01.JPG,AFNE01.JPG,AFNE01.JPG,5,1,51,5,,,,,,,,,,,,,,,,,,,,,,,AFSA14.jpg,AFNE05.jpg,AFNE03.jpg,AFSA19.jpg,AFNE03.jpg,FN,3,num_2,32,num_8,1.21675176415,,,2018_Jan_26_1810,60.0125691939,FEMA4ImagesEEG,001,102689,
AFNE01.JPG,AFNE01.JPG,AFNE01.JPG,AFNE01.JPG,AFNE01.JPG,AFNE01.JPG,5,2,52,1,,,,,,,,,,,,,,,,,,,,,,,AFSA18.jpg,AFNE14.jpg,AFNE08.jpg,AFSA01.jpg,AFSA01.jpg,FS,4,num_4,32,num_2,2.73331586373,,,2018_Jan_26_1810,60.0125691939,FEMA4ImagesEEG,001,102689,
AFNE01.JPG,AFNE01.JPG,AFNE01.JPG,AFNE01.JPG,AFNE01.JPG,AFNE01.JPG,5,3,53,2,,,,,,,,,,,,,,,,,,,,,,,AFSA12.jpg,AFNE14.jpg,AFSA01.jpg,AFNE13.jpg,AFSA01.jpg,FS,4,num_2,16,num_2,1.36673523005,,,2018_Jan_26_1810,60.0125691939,FEMA4ImagesEEG,001,102689,
AFNE01.JPG,AFNE01.JPG,AFNE01.JPG,AFNE01.JPG,AFNE01.JPG,AFNE01.JPG,5,4,54,9,,,,,,,,,,,,,,,,,,,,,,,AFNE09.jpg,AFNE07.jpg,AFSA08.jpg,AFSA14.jpg,AFSA14.jpg,FS,4,num_4,32,num_8,1.3667047598,,,2018_Jan_26_1810,60.0125691939,FEMA4ImagesEEG,001,102689,
AFNE01.JPG,AFNE01.JPG,AFNE01.JPG,AFNE01.JPG,AFNE01.JPG,AFNE01.JPG,5,5,55,7,,,,,,,,,,,,,,,,,,,,,,,AFNE01.jpg,AFNE14.jpg,AFSA11.jpg,AFSA03.jpg,AFNE01.jpg,FN,3,num_8,32,num_4,1.18348147746,,,2018_Jan_26_1810,60.0125691939,FEMA4ImagesEEG,001,102689,
AFNE01.JPG,AFNE01.JPG,AFNE01.JPG,AFNE01.JPG,AFNE01.JPG,AFNE01.JPG,5,6,56,0,,,,,,,,,,,,,,,,,,,,,,,AFNE13.jpg,AFNE14.jpg,AFSA07.jpg,AFSA02.jpg,AFSA02.jpg,FS,4,num_4,16,num_4,1.03315193387,,,2018_Jan_26_1810,60.0125691939,FEMA4ImagesEEG,001,102689,
AFNE01.JPG,AFNE01.JPG,AFNE01.JPG,AFNE01.JPG,AFNE01.JPG,AFNE01.JPG,5,7,57,6,,,,,,,,,,,,,,,,,,,,,,,AFSA05.jpg,AFNE17.jpg,AFNE02.jpg,AFSA08.jpg,AFNE17.jpg,FN,3,num_6,16,num_6,1.11679432626,,,2018_Jan_26_1810,60.0125691939,FEMA4ImagesEEG,001,102689,
AFNE01.JPG,AFNE01.JPG,AFNE01.JPG,AFNE01.JPG,AFNE01.JPG,AFNE01.JPG,5,8,58,3,,,,,,,,,,,,,,,,,,,,,,,AFSA12.jpg,AFSA02.jpg,AFNE09.jpg,AFNE02.jpg,AFSA02.jpg,FS,4,num_6,32,num_2,1.11678342111,,,2018_Jan_26_1810,60.0125691939,FEMA4ImagesEEG,001,102689,
AFNE01.JPG,AFNE01.JPG,AFNE01.JPG,AFNE01.JPG,AFNE01.JPG,AFNE01.JPG,5,9,59,4,,,,,,,,,,,,,,,,,,,,,,,AFSA19.jpg,AFNE14.jpg,AFNE11.jpg,AFSA03.jpg,AFSA03.jpg,FS,4,num_4,32,num_8,1.00000545254,,,2018_Jan_26_1810,60.0125691939,FEMA4ImagesEEG,001,102689,
,,,,,,,,,,,,,,,,,,,,,,,,,,,,,,,,,,,,,,,,,,,space,24.7982495333,2018_Jan_26_1810,60.0125691939,FEMA4ImagesEEG,001,102689,
AFNE01.JPG,AFNE01.JPG,AFNE01.JPG,AFNE01.JPG,AFNE01.JPG,AFNE01.JPG,,,,,0,0,0,4,,,,,,,,,,,,,,,,,,,AMSA13.jpg,AMSA18.jpg,AMNE09.jpg,AMNE14.jpg,AMNE09.jpg,MN,1,num_2,32,num_8,1.00010840988,,,2018_Jan_26_1810,60.0125691939,FEMA4ImagesEEG,001,102689,
AFNE01.JPG,AFNE01.JPG,AFNE01.JPG,AFNE01.JPG,AFNE01.JPG,AFNE01.JPG,,,,,0,1,1,6,,,,,,,,,,,,,,,,,,,AMSA13.jpg,AMSA16.jpg,AMNE10.jpg,AMNE14.jpg,AMSA16.jpg,MS,2,num_6,32,num_2,1.21681013869,,,2018_Jan_26_1810,60.0125691939,FEMA4ImagesEEG,001,102689,
AFNE01.JPG,AFNE01.JPG,AFNE01.JPG,AFNE01.JPG,AFNE01.JPG,AFNE01.JPG,,,,,0,2,2,1,,,,,,,,,,,,,,,,,,,AMNE11.jpg,AMNE13.jpg,AMSA05.jpg,AMSA13.jpg,AMSA05.jpg,MS,2,num_2,16,num_2,0.716785922879,,,2018_Jan_26_1810,60.0125691939,FEMA4ImagesEEG,001,102689,
AFNE01.JPG,AFNE01.JPG,AFNE01.JPG,AFNE01.JPG,AFNE01.JPG,AFNE01.JPG,,,,,0,3,3,0,,,,,,,,,,,,,,,,,,,AMNE13.jpg,AMNE16.jpg,AMSA11.jpg,AMSA17.jpg,AMSA11.jpg,MS,2,num_2,16,num_2,1.01679519223,,,2018_Jan_26_1810,60.0125691939,FEMA4ImagesEEG,001,102689,
AFNE01.JPG,AFNE01.JPG,AFNE01.JPG,AFNE01.JPG,AFNE01.JPG,AFNE01.JPG,,,,,0,4,4,8,,,,,,,,,,,,,,,,,,,AMNE18.jpg,AMSA10.jpg,AMSA12.jpg,AMNE05.jpg,AMSA10.jpg,MS,2,num_6,32,num_8,1.40016203749,,,2018_Jan_26_1810,60.0125691939,FEMA4ImagesEEG,001,102689,
AFNE01.JPG,AFNE01.JPG,AFNE01.JPG,AFNE01.JPG,AFNE01.JPG,AFNE01.JPG,,,,,0,5,5,3,,,,,,,,,,,,,,,,,,,AMNE07.jpg,AMSA12.jpg,AMSA19.jpg,AMNE16.jpg,AMNE07.jpg,MN,1,num_8,16,num_8,1.21683098676,,,2018_Jan_26_1810,60.0125691939,FEMA4ImagesEEG,001,102689,
AFNE01.JPG,AFNE01.JPG,AFNE01.JPG,AFNE01.JPG,AFNE01.JPG,AFNE01.JPG,,,,,0,6,6,7,,,,,,,,,,,,,,,,,,,AMSA20.jpg,AMSA18.jpg,AMNE12.jpg,AMNE07.jpg,AMNE12.jpg,MN,1,num_2,32,num_4,2.00005099754,,,2018_Jan_26_1810,60.0125691939,FEMA4ImagesEEG,001,102689,
AFNE01.JPG,AFNE01.JPG,AFNE01.JPG,AFNE01.JPG,AFNE01.JPG,AFNE01.JPG,,,,,0,7,7,9,,,,,,,,,,,,,,,,,,,AMSA18.jpg,AMNE13.jpg,AMSA16.jpg,AMNE12.jpg,AMSA18.jpg,MS,2,num_8,32,num_2,1.15011112014,,,2018_Jan_26_1810,60.0125691939,FEMA4ImagesEEG,001,102689,
AFNE01.JPG,AFNE01.JPG,AFNE01.JPG,AFNE01.JPG,AFNE01.JPG,AFNE01.JPG,,,,,0,8,8,5,,,,,,,,,,,,,,,,,,,AMSA10.jpg,AMSA20.jpg,AMNE03.jpg,AMNE02.jpg,AMSA20.jpg,MS,2,num_6,32,num_2,1.85007619162,,,2018_Jan_26_1810,60.0125691939,FEMA4ImagesEEG,001,102689,
AFNE01.JPG,AFNE01.JPG,AFNE01.JPG,AFNE01.JPG,AFNE01.JPG,AFNE01.JPG,,,,,0,9,9,2,,,,,,,,,,,,,,,,,,,AMNE06.jpg,AMSA09.jpg,AMNE02.jpg,AMSA05.jpg,AMNE06.jpg,MN,1,num_8,16,num_8,1.36673106041,,,2018_Jan_26_1810,60.0125691939,FEMA4ImagesEEG,001,102689,
AFNE01.JPG,AFNE01.JPG,AFNE01.JPG,AFNE01.JPG,AFNE01.JPG,AFNE01.JPG,,,,,1,0,10,4,,,,,,,,,,,,,,,,,,,AMSA14.jpg,AMNE12.jpg,AMNE14.jpg,AMSA08.jpg,AMNE12.jpg,MN,1,num_6,16,num_6,0.750183222321,,,2018_Jan_26_1810,60.0125691939,FEMA4ImagesEEG,001,102689,
AFNE01.JPG,AFNE01.JPG,AFNE01.JPG,AFNE01.JPG,AFNE01.JPG,AFNE01.JPG,,,,,1,1,11,7,,,,,,,,,,,,,,,,,,,AMNE07.jpg,AMSA15.jpg,AMSA06.jpg,AMNE14.jpg,AMNE07.jpg,MN,1,num_8,16,num_8,1.46661889789,,,2018_Jan_26_1810,60.0125691939,FEMA4ImagesEEG,001,102689,
AFNE01.JPG,AFNE01.JPG,AFNE01.JPG,AFNE01.JPG,AFNE01.JPG,AFNE01.JPG,,,,,1,2,12,6,,,,,,,,,,,,,,,,,,,AMSA20.jpg,AMSA04.jpg,AMNE02.jpg,AMNE18.jpg,AMSA20.jpg,MS,2,num_8,32,num_4,0.916766229493,,,2018_Jan_26_1810,60.0125691939,FEMA4ImagesEEG,001,102689,
AFNE01.JPG,AFNE01.JPG,AFNE01.JPG,AFNE01.JPG,AFNE01.JPG,AFNE01.JPG,,,,,1,3,13,1,,,,,,,,,,,,,,,,,,,AMSA12.jpg,AMNE19.jpg,AMSA01.jpg,AMNE17.jpg,AMSA12.jpg,MS,2,num_8,16,num_8,2.33333825134,,,2018_Jan_26_1810,60.0125691939,FEMA4ImagesEEG,001,102689,
AFNE01.JPG,AFNE01.JPG,AFNE01.JPG,AFNE01.JPG,AFNE01.JPG,AFNE01.JPG,,,,,1,4,14,0,,,,,,,,,,,,,,,,,,,AMSA18.jpg,AMSA08.jpg,AMNE06.jpg,AMNE13.jpg,AMNE13.jpg,MN,1,num_4,32,num_2,0.816789867997,,,2018_Jan_26_1810,60.0125691939,FEMA4ImagesEEG,001,102689,
AFNE01.JPG,AFNE01.JPG,AFNE01.JPG,AFNE01.JPG,AFNE01.JPG,AFNE01.JPG,,,,,1,5,15,3,,,,,,,,,,,,,,,,,,,AMNE18.jpg,AMSA13.jpg,AMNE09.jpg,AMSA19.jpg,AMSA13.jpg,MS,2,num_6,16,num_6,1.46667823466,,,2018_Jan_26_1810,60.0125691939,FEMA4ImagesEEG,001,102689,
AFNE01.JPG,AFNE01.JPG,AFNE01.JPG,AFNE01.JPG,AFNE01.JPG,AFNE01.JPG,,,,,1,6,16,9,,,,,,,,,,,,,,,,,,,AMSA02.jpg,AMNE19.jpg,AMSA04.jpg,AMNE06.jpg,AMNE19.jpg,MN,1,num_6,32,num_4,0.850140339462,,,2018_Jan_26_1810,60.0125691939,FEMA4ImagesEEG,001,102689,
AFNE01.JPG,AFNE01.JPG,AFNE01.JPG,AFNE01.JPG,AFNE01.JPG,AFNE01.JPG,,,,,1,7,17,2,,,,,,,,,,,,,,,,,,,AMNE12.jpg,AMSA13.jpg,AMSA03.jpg,AMNE16.jpg,AMNE16.jpg,MN,1,num_4,32,num_8,0.916780021274,,,2018_Jan_26_1810,60.0125691939,FEMA4ImagesEEG,001,102689,
AFNE01.JPG,AFNE01.JPG,AFNE01.JPG,AFNE01.JPG,AFNE01.JPG,AFNE01.JPG,,,,,1,8,18,5,,,,,,,,,,,,,,,,,,,AMSA16.jpg,AMNE15.jpg,AMNE01.jpg,AMSA05.jpg,AMSA05.jpg,MS,2,num_4,16,num_4,1.06672884733,,,2018_Jan_26_1810,60.0125691939,FEMA4ImagesEEG,001,102689,
AFNE01.JPG,AFNE01.JPG,AFNE01.JPG,AFNE01.JPG,AFNE01.JPG,AFNE01.JPG,,,,,1,9,19,8,,,,,,,,,,,,,,,,,,,AMNE17.jpg,AMSA05.jpg,AMSA07.jpg,AMNE05.jpg,AMSA07.jpg,MS,2,num_2,32,num_4,0.816803018271,,,2018_Jan_26_1810,60.0125691939,FEMA4ImagesEEG,001,102689,
AFNE01.JPG,AFNE01.JPG,AFNE01.JPG,AFNE01.JPG,AFNE01.JPG,AFNE01.JPG,,,,,2,0,20,1,,,,,,,,,,,,,,,,,,,AMNE19.jpg,AMSA08.jpg,AMSA10.jpg,AMNE06.jpg,AMSA08.jpg,MS,2,num_6,32,num_2,1.26673256789,,,2018_Jan_26_1810,60.0125691939,FEMA4ImagesEEG,001,102689,
AFNE01.JPG,AFNE01.JPG,AFNE01.JPG,AFNE01.JPG,AFNE01.JPG,AFNE01.JPG,,,,,2,1,21,3,,,,,,,,,,,,,,,,,,,AMNE16.jpg,AMSA16.jpg,AMSA02.jpg,AMNE02.jpg,AMNE02.jpg,MN,1,num_4,32,num_2,0.950109323981,,,2018_Jan_26_1810,60.0125691939,FEMA4ImagesEEG,001,102689,
AFNE01.JPG,AFNE01.JPG,AFNE01.JPG,AFNE01.JPG,AFNE01.JPG,AFNE01.JPG,,,,,2,2,22,6,,,,,,,,,,,,,,,,,,,AMNE09.jpg,AMSA03.jpg,AMNE08.jpg,AMSA13.jpg,AMNE09.jpg,MN,1,num_8,16,num_8,0.733474950423,,,2018_Jan_26_1810,60.0125691939,FEMA4ImagesEEG,001,102689,
AFNE01.JPG,AFNE01.JPG,AFNE01.JPG,AFNE01.JPG,AFNE01.JPG,AFNE01.JPG,,,,,2,3,23,2,,,,,,,,,,,,,,,,,,,AMSA18.jpg,AMNE02.jpg,AMNE07.jpg,AMSA01.jpg,AMSA01.jpg,MS,2,num_4,32,num_6,0.800163705338,,,2018_Jan_26_1810,60.0125691939,FEMA4ImagesEEG,001,102689,
AFNE01.JPG,AFNE01.JPG,AFNE01.JPG,AFNE01.JPG,AFNE01.JPG,AFNE01.JPG,,,,,2,4,24,8,,,,,,,,,,,,,,,,,,,AMNE20.jpg,AMNE10.jpg,AMSA07.jpg,AMSA17.jpg,AMNE10.jpg,MN,1,num_6,32,num_4,0.933414523141,,,2018_Jan_26_1810,60.0125691939,FEMA4ImagesEEG,001,102689,
AFNE01.JPG,AFNE01.JPG,AFNE01.JPG,AFNE01.JPG,AFNE01.JPG,AFNE01.JPG,,,,,2,5,25,4,,,,,,,,,,,,,,,,,,,AMSA13.jpg,AMNE09.jpg,AMNE15.jpg,AMSA14.jpg,AMSA13.jpg,MS,2,num_8,32,num_2,1.0834541184,,,2018_Jan_26_1810,60.0125691939,FEMA4ImagesEEG,001,102689,
AFNE01.JPG,AFNE01.JPG,AFNE01.JPG,AFNE01.JPG,AFNE01.JPG,AFNE01.JPG,,,,,2,6,26,0,,,,,,,,,,,,,,,,,,,AMNE04.jpg,AMSA02.jpg,AMSA11.jpg,AMNE03.jpg,AMSA02.jpg,MS,2,num_6,16,num_6,1.30041981564,,,2018_Jan_26_1810,60.0125691939,FEMA4ImagesEEG,001,102689,
AFNE01.JPG,AFNE01.JPG,AFNE01.JPG,AFNE01.JPG,AFNE01.JPG,AFNE01.JPG,,,,,2,7,27,7,,,,,,,,,,,,,,,,,,,AMNE06.jpg,AMNE09.jpg,AMSA13.jpg,AMSA18.jpg,AMSA18.jpg,MS,2,num_4,16,num_4,1.26674058638,,,2018_Jan_26_1810,60.0125691939,FEMA4ImagesEEG,001,102689,
AFNE01.JPG,AFNE01.JPG,AFNE01.JPG,AFNE01.JPG,AFNE01.JPG,AFNE01.JPG,,,,,2,8,28,9,,,,,,,,,,,,,,,,,,,AMNE17.jpg,AMSA19.jpg,AMSA14.jpg,AMNE06.jpg,AMSA14.jpg,MS,2,num_2,16,num_2,1.06676893975,,,2018_Jan_26_1810,60.0125691939,FEMA4ImagesEEG,001,102689,
AFNE01.JPG,AFNE01.JPG,AFNE01.JPG,AFNE01.JPG,AFNE01.JPG,AFNE01.JPG,,,,,2,9,29,5,,,,,,,,,,,,,,,,,,,AMNE10.jpg,AMSA06.jpg,AMNE05.jpg,AMSA10.jpg,AMSA10.jpg,MS,2,num_4,32,num_8,0.966754410241,,,2018_Jan_26_1810,60.0125691939,FEMA4ImagesEEG,001,102689,
AFNE01.JPG,AFNE01.JPG,AFNE01.JPG,AFNE01.JPG,AFNE01.JPG,AFNE01.JPG,,,,,3,0,30,3,,,,,,,,,,,,,,,,,,,AMNE11.jpg,AMNE15.jpg,AMSA07.jpg,AMSA14.jpg,AMNE11.jpg,MN,1,num_8,32,num_6,0.883456491894,,,2018_Jan_26_1810,60.0125691939,FEMA4ImagesEEG,001,102689,
AFNE01.JPG,AFNE01.JPG,AFNE01.JPG,AFNE01.JPG,AFNE01.JPG,AFNE01.JPG,,,,,3,1,31,5,,,,,,,,,,,,,,,,,,,AMNE04.jpg,AMSA11.jpg,AMNE02.jpg,AMSA02.jpg,AMSA11.jpg,MS,2,num_6,32,num_4,1.20015158138,,,2018_Jan_26_1810,60.0125691939,FEMA4ImagesEEG,001,102689,
AFNE01.JPG,AFNE01.JPG,AFNE01.JPG,AFNE01.JPG,AFNE01.JPG,AFNE01.JPG,,,,,3,2,32,1,,,,,,,,,,,,,,,,,,,AMNE12.jpg,AMSA15.jpg,AMSA06.jpg,AMNE19.jpg,AMNE12.jpg,MN,1,num_8,32,num_6,0.700111007871,,,2018_Jan_26_1810,60.0125691939,FEMA4ImagesEEG,001,102689,
AFNE01.JPG,AFNE01.JPG,AFNE01.JPG,AFNE01.JPG,AFNE01.JPG,AFNE01.JPG,,,,,3,3,33,6,,,,,,,,,,,,,,,,,,,AMSA04.jpg,AMSA20.jpg,AMNE06.jpg,AMNE05.jpg,AMSA04.jpg,MS,2,num_8,16,num_8,0.583493088227,,,2018_Jan_26_1810,60.0125691939,FEMA4ImagesEEG,001,102689,
AFNE01.JPG,AFNE01.JPG,AFNE01.JPG,AFNE01.JPG,AFNE01.JPG,AFNE01.JPG,,,,,3,4,34,8,,,,,,,,,,,,,,,,,,,AMNE20.jpg,AMSA09.jpg,AMNE11.jpg,AMSA05.jpg,AMNE11.jpg,MN,1,num_2,32,num_8,0.800003014941,,,2018_Jan_26_1810,60.0125691939,FEMA4ImagesEEG,001,102689,
AFNE01.JPG,AFNE01.JPG,AFNE01.JPG,AFNE01.JPG,AFNE01.JPG,AFNE01.JPG,,,,,3,5,35,7,,,,,,,,,,,,,,,,,,,AMNE07.jpg,AMSA12.jpg,AMNE11.jpg,AMSA10.jpg,AMNE11.jpg,MN,1,num_2,32,num_6,0.716808695346,,,2018_Jan_26_1810,60.0125691939,FEMA4ImagesEEG,001,102689,
AFNE01.JPG,AFNE01.JPG,AFNE01.JPG,AFNE01.JPG,AFNE01.JPG,AFNE01.JPG,,,,,3,6,36,4,,,,,,,,,,,,,,,,,,,AMSA05.jpg,AMSA12.jpg,AMNE09.jpg,AMNE15.jpg,AMNE15.jpg,MN,1,num_4,32,num_2,1.38342874791,,,2018_Jan_26_1810,60.0125691939,FEMA4ImagesEEG,001,102689,
AFNE01.JPG,AFNE01.JPG,AFNE01.JPG,AFNE01.JPG,AFNE01.JPG,AFNE01.JPG,,,,,3,7,37,9,,,,,,,,,,,,,,,,,,,AMSA19.jpg,AMSA16.jpg,AMNE03.jpg,AMNE15.jpg,AMSA16.jpg,MS,2,num_6,32,num_8,1.03341333638,,,2018_Jan_26_1810,60.0125691939,FEMA4ImagesEEG,001,102689,
AFNE01.JPG,AFNE01.JPG,AFNE01.JPG,AFNE01.JPG,AFNE01.JPG,AFNE01.JPG,,,,,3,8,38,2,,,,,,,,,,,,,,,,,,,AMSA01.jpg,AMSA08.jpg,AMNE10.jpg,AMNE08.jpg,AMSA01.jpg,MS,2,num_8,32,num_4,1.00011578688,,,2018_Jan_26_1810,60.0125691939,FEMA4ImagesEEG,001,102689,
AFNE01.JPG,AFNE01.JPG,AFNE01.JPG,AFNE01.JPG,AFNE01.JPG,AFNE01.JPG,,,,,3,9,39,0,,,,,,,,,,,,,,,,,,,AMSA16.jpg,AMSA09.jpg,AMNE10.jpg,AMNE12.jpg,AMSA09.jpg,MS,2,num_6,16,num_6,0.80027339817,,,2018_Jan_26_1810,60.0125691939,FEMA4ImagesEEG,001,102689,
AFNE01.JPG,AFNE01.JPG,AFNE01.JPG,AFNE01.JPG,AFNE01.JPG,AFNE01.JPG,,,,,4,0,40,6,,,,,,,,,,,,,,,,,,,AMNE20.jpg,AMNE11.jpg,AMSA11.jpg,AMSA19.jpg,AMNE11.jpg,MN,1,num_6,16,num_6,0.900058278348,,,2018_Jan_26_1810,60.0125691939,FEMA4ImagesEEG,001,102689,
AFNE01.JPG,AFNE01.JPG,AFNE01.JPG,AFNE01.JPG,AFNE01.JPG,AFNE01.JPG,,,,,4,1,41,1,,,,,,,,,,,,,,,,,,,AMSA16.jpg,AMSA13.jpg,AMNE19.jpg,AMNE17.jpg,AMNE19.jpg,MN,1,num_2,32,num_4,1.05019185023,,,2018_Jan_26_1810,60.0125691939,FEMA4ImagesEEG,001,102689,
AFNE01.JPG,AFNE01.JPG,AFNE01.JPG,AFNE01.JPG,AFNE01.JPG,AFNE01.JPG,,,,,4,2,42,4,,,,,,,,,,,,,,,,,,,AMNE15.jpg,AMSA07.jpg,AMNE06.jpg,AMSA05.jpg,AMNE06.jpg,MN,1,num_2,16,num_2,1.00011514541,,,2018_Jan_26_1810,60.0125691939,FEMA4ImagesEEG,001,102689,
AFNE01.JPG,AFNE01.JPG,AFNE01.JPG,AFNE01.JPG,AFNE01.JPG,AFNE01.JPG,,,,,4,3,43,8,,,,,,,,,,,,,,,,,,,AMNE09.jpg,AMSA04.jpg,AMNE20.jpg,AMSA03.jpg,AMNE09.jpg,MN,1,num_8,16,num_8,0.933456219267,,,2018_Jan_26_1810,60.0125691939,FEMA4ImagesEEG,001,102689,
AFNE01.JPG,AFNE01.JPG,AFNE01.JPG,AFNE01.JPG,AFNE01.JPG,AFNE01.JPG,,,,,4,4,44,2,,,,,,,,,,,,,,,,,,,AMSA18.jpg,AMNE20.jpg,AMSA14.jpg,AMNE07.jpg,AMSA14.jpg,MS,2,num_2,32,num_4,0.883477019175,,,2018_Jan_26_1810,60.0125691939,FEMA4ImagesEEG,001,102689,
AFNE01.JPG,AFNE01.JPG,AFNE01.JPG,AFNE01.JPG,AFNE01.JPG,AFNE01.JPG,,,,,4,5,45,7,,,,,,,,,,,,,,,,,,,AMSA10.jpg,AMSA06.jpg,AMNE04.jpg,AMNE16.jpg,AMNE04.jpg,MN,1,num_2,32,num_8,0.900088427821,,,2018_Jan_26_1810,60.0125691939,FEMA4ImagesEEG,001,102689,
AFNE01.JPG,AFNE01.JPG,AFNE01.JPG,AFNE01.JPG,AFNE01.JPG,AFNE01.JPG,,,,,4,6,46,9,,,,,,,,,,,,,,,,,,,AMNE15.jpg,AMSA09.jpg,AMSA07.jpg,AMNE10.jpg,AMNE15.jpg,MN,1,num_8,32,num_6,1.050145343,,,2018_Jan_26_1810,60.0125691939,FEMA4ImagesEEG,001,102689,
AFNE01.JPG,AFNE01.JPG,AFNE01.JPG,AFNE01.JPG,AFNE01.JPG,AFNE01.JPG,,,,,4,7,47,0,,,,,,,,,,,,,,,,,,,AMSA20.jpg,AMNE14.jpg,AMNE05.jpg,AMSA06.jpg,AMNE05.jpg,MN,1,num_2,32,num_4,0.900107672176,,,2018_Jan_26_1810,60.0125691939,FEMA4ImagesEEG,001,102689,
AFNE01.JPG,AFNE01.JPG,AFNE01.JPG,AFNE01.JPG,AFNE01.JPG,AFNE01.JPG,,,,,4,8,48,3,,,,,,,,,,,,,,,,,,,AMNE10.jpg,AMSA08.jpg,AMNE13.jpg,AMSA04.jpg,AMSA04.jpg,MS,2,num_4,16,num_4,0.750107848609,,,2018_Jan_26_1810,60.0125691939,FEMA4ImagesEEG,001,102689,
AFNE01.JPG,AFNE01.JPG,AFNE01.JPG,AFNE01.JPG,AFNE01.JPG,AFNE01.JPG,,,,,4,9,49,5,,,,,,,,,,,,,,,,,,,AMNE03.jpg,AMNE14.jpg,AMSA08.jpg,AMSA16.jpg,AMSA16.jpg,MS,2,num_4,16,num_4,0.916782587185,,,2018_Jan_26_1810,60.0125691939,FEMA4ImagesEEG,001,102689,
AFNE01.JPG,AFNE01.JPG,AFNE01.JPG,AFNE01.JPG,AFNE01.JPG,AFNE01.JPG,,,,,5,0,50,5,,,,,,,,,,,,,,,,,,,AMNE04.jpg,AMNE08.jpg,AMSA05.jpg,AMSA20.jpg,AMSA05.jpg,MS,2,num_2,16,num_2,1.45005560014,,,2018_Jan_26_1810,60.0125691939,FEMA4ImagesEEG,001,102689,
AFNE01.JPG,AFNE01.JPG,AFNE01.JPG,AFNE01.JPG,AFNE01.JPG,AFNE01.JPG,,,,,5,1,51,3,,,,,,,,,,,,,,,,,,,AMNE18.jpg,AMNE19.jpg,AMSA12.jpg,AMSA17.jpg,AMNE18.jpg,MN,1,num_8,32,num_4,2.1166984252,,,2018_Jan_26_1810,60.0125691939,FEMA4ImagesEEG,001,102689,
AFNE01.JPG,AFNE01.JPG,AFNE01.JPG,AFNE01.JPG,AFNE01.JPG,AFNE01.JPG,,,,,5,2,52,8,,,,,,,,,,,,,,,,,,,AMNE17.jpg,AMNE06.jpg,AMSA15.jpg,AMSA20.jpg,AMNE06.jpg,MN,1,num_6,32,num_2,0.716759942996,,,2018_Jan_26_1810,60.0125691939,FEMA4ImagesEEG,001,102689,
AFNE01.JPG,AFNE01.JPG,AFNE01.JPG,AFNE01.JPG,AFNE01.JPG,AFNE01.JPG,,,,,5,3,53,1,,,,,,,,,,,,,,,,,,,AMNE07.jpg,AMSA11.jpg,AMNE02.jpg,AMSA14.jpg,AMNE07.jpg,MN,1,num_8,16,num_8,0.833466707438,,,2018_Jan_26_1810,60.0125691939,FEMA4ImagesEEG,001,102689,
AFNE01.JPG,AFNE01.JPG,AFNE01.JPG,AFNE01.JPG,AFNE01.JPG,AFNE01.JPG,,,,,5,4,54,6,,,,,,,,,,,,,,,,,,,AMNE12.jpg,AMNE18.jpg,AMSA03.jpg,AMSA10.jpg,AMNE12.jpg,MN,1,num_8,32,num_6,1.05008376107,,,2018_Jan_26_1810,60.0125691939,FEMA4ImagesEEG,001,102689,
AFNE01.JPG,AFNE01.JPG,AFNE01.JPG,AFNE01.JPG,AFNE01.JPG,AFNE01.JPG,,,,,5,5,55,0,,,,,,,,,,,,,,,,,,,AMNE17.jpg,AMSA19.jpg,AMNE13.jpg,AMSA13.jpg,AMNE17.jpg,MN,1,num_8,32,num_4,0.933371223335,,,2018_Jan_26_1810,60.0125691939,FEMA4ImagesEEG,001,102689,
AFNE01.JPG,AFNE01.JPG,AFNE01.JPG,AFNE01.JPG,AFNE01.JPG,AFNE01.JPG,,,,,5,6,56,4,,,,,,,,,,,,,,,,,,,AMNE05.jpg,AMSA04.jpg,AMSA13.jpg,AMNE08.jpg,AMNE08.jpg,MN,1,num_4,16,num_4,0.666789723648,,,2018_Jan_26_1810,60.0125691939,FEMA4ImagesEEG,001,102689,
AFNE01.JPG,AFNE01.JPG,AFNE01.JPG,AFNE01.JPG,AFNE01.JPG,AFNE01.JPG,,,,,5,7,57,9,,,,,,,,,,,,,,,,,,,AMNE15.jpg,AMSA10.jpg,AMNE10.jpg,AMSA17.jpg,AMNE15.jpg,MN,1,num_8,32,num_6,1.36660340618,,,2018_Jan_26_1810,60.0125691939,FEMA4ImagesEEG,001,102689,
AFNE01.JPG,AFNE01.JPG,AFNE01.JPG,AFNE01.JPG,AFNE01.JPG,AFNE01.JPG,,,,,5,8,58,7,,,,,,,,,,,,,,,,,,,AMSA03.jpg,AMNE09.jpg,AMSA09.jpg,AMNE05.jpg,AMNE09.jpg,MN,1,num_6,32,num_4,0.900065655325,,,2018_Jan_26_1810,60.0125691939,FEMA4ImagesEEG,001,102689,
AFNE01.JPG,AFNE01.JPG,AFNE01.JPG,AFNE01.JPG,AFNE01.JPG,AFNE01.JPG,,,,,5,9,59,2,,,,,,,,,,,,,,,,,,,AMNE17.jpg,AMSA17.jpg,AMSA16.jpg,AMNE01.jpg,AMSA16.jpg,MS,2,num_2,32,num_6,1.83361232304,,,2018_Jan_26_1810,60.0125691939,FEMA4ImagesEEG,001,102689,
,,,,,,,,,,,,,,,,,,,,,,,,,,,,,,,,,,,,,,,,,,,space,32.0976375306,2018_Jan_26_1810,60.0125691939,FEMA4ImagesEEG,001,102689,
AFNE01.JPG,AFNE01.JPG,AFNE01.JPG,AFNE01.JPG,AFNE01.JPG,AFNE01.JPG,,,,,,,,,0,0,0,7,,,,,,,,,,,,,,,AFNE16.jpg,AFSA19.jpg,AFNE20.jpg,AFSA16.jpg,AFSA19.jpg,FS,4,num_6,32,num_8,0.850160866772,,,2018_Jan_26_1810,60.0125691939,FEMA4ImagesEEG,001,102689,
AFNE01.JPG,AFNE01.JPG,AFNE01.JPG,AFNE01.JPG,AFNE01.JPG,AFNE01.JPG,,,,,,,,,0,1,1,6,,,,,,,,,,,,,,,AFSA14.jpg,AFSA03.jpg,AFNE02.jpg,AFNE17.jpg,AFSA14.jpg,FS,4,num_8,32,num_4,0.983472625056,,,2018_Jan_26_1810,60.0125691939,FEMA4ImagesEEG,001,102689,
AFNE01.JPG,AFNE01.JPG,AFNE01.JPG,AFNE01.JPG,AFNE01.JPG,AFNE01.JPG,,,,,,,,,0,2,2,3,,,,,,,,,,,,,,,AFSA05.jpg,AFNE03.jpg,AFSA13.jpg,AFNE16.jpg,AFSA05.jpg,FS,4,num_8,32,num_2,1.01676921235,,,2018_Jan_26_1810,60.0125691939,FEMA4ImagesEEG,001,102689,
AFNE01.JPG,AFNE01.JPG,AFNE01.JPG,AFNE01.JPG,AFNE01.JPG,AFNE01.JPG,,,,,,,,,0,3,3,5,,,,,,,,,,,,,,,AFSA15.jpg,AFNE12.jpg,AFNE07.jpg,AFSA16.jpg,AFNE07.jpg,FN,3,num_2,32,num_6,0.766825421917,,,2018_Jan_26_1810,60.0125691939,FEMA4ImagesEEG,001,102689,
AFNE01.JPG,AFNE01.JPG,AFNE01.JPG,AFNE01.JPG,AFNE01.JPG,AFNE01.JPG,,,,,,,,,0,4,4,2,,,,,,,,,,,,,,,AFSA04.jpg,AFNE07.jpg,AFNE13.jpg,AFSA16.jpg,AFSA04.jpg,FS,4,num_8,16,num_8,0.933482519875,,,2018_Jan_26_1810,60.0125691939,FEMA4ImagesEEG,001,102689,
AFNE01.JPG,AFNE01.JPG,AFNE01.JPG,AFNE01.JPG,AFNE01.JPG,AFNE01.JPG,,,,,,,,,0,5,5,1,,,,,,,,,,,,,,,AFSA16.jpg,AFNE08.jpg,AFSA19.jpg,AFNE14.jpg,AFNE08.jpg,FN,3,num_6,32,num_4,1.33346173598,,,2018_Jan_26_1810,60.0125691939,FEMA4ImagesEEG,001,102689,
AFNE01.JPG,AFNE01.JPG,AFNE01.JPG,AFNE01.JPG,AFNE01.JPG,AFNE01.JPG,,,,,,,,,0,6,6,4,,,,,,,,,,,,,,,AFNE16.jpg,AFNE14.jpg,AFSA15.jpg,AFSA19.jpg,AFSA15.jpg,FS,4,num_2,32,num_6,0.916794454533,,,2018_Jan_26_1810,60.0125691939,FEMA4ImagesEEG,001,102689,
AFNE01.JPG,AFNE01.JPG,AFNE01.JPG,AFNE01.JPG,AFNE01.JPG,AFNE01.JPG,,,,,,,,,0,7,7,9,,,,,,,,,,,,,,,AFNE12.jpg,AFSA04.jpg,AFNE18.jpg,AFSA11.jpg,AFNE12.jpg,FN,3,num_8,16,num_8,0.949972368311,,,2018_Jan_26_1810,60.0125691939,FEMA4ImagesEEG,001,102689,
AFNE01.JPG,AFNE01.JPG,AFNE01.JPG,AFNE01.JPG,AFNE01.JPG,AFNE01.JPG,,,,,,,,,0,8,8,8,,,,,,,,,,,,,,,AFNE19.jpg,AFNE11.jpg,AFSA16.jpg,AFSA18.jpg,AFNE19.jpg,FN,3,num_8,32,num_2,0.966772692394,,,2018_Jan_26_1810,60.0125691939,FEMA4ImagesEEG,001,102689,
AFNE01.JPG,AFNE01.JPG,AFNE01.JPG,AFNE01.JPG,AFNE01.JPG,AFNE01.JPG,,,,,,,,,0,9,9,0,,,,,,,,,,,,,,,AFNE17.jpg,AFSA07.jpg,AFNE16.jpg,AFSA20.jpg,AFSA20.jpg,FS,4,num_4,16,num_4,1.38342650275,,,2018_Jan_26_1810,60.0125691939,FEMA4ImagesEEG,001,102689,
AFNE01.JPG,AFNE01.JPG,AFNE01.JPG,AFNE01.JPG,AFNE01.JPG,AFNE01.JPG,,,,,,,,,1,0,10,2,,,,,,,,,,,,,,,AFNE19.jpg,AFSA20.jpg,AFSA18.jpg,AFNE09.jpg,AFNE19.jpg,FN,3,num_8,32,num_6,0.900117615121,,,2018_Jan_26_1810,60.0125691939,FEMA4ImagesEEG,001,102689,
AFNE01.JPG,AFNE01.JPG,AFNE01.JPG,AFNE01.JPG,AFNE01.JPG,AFNE01.JPG,,,,,,,,,1,1,11,6,,,,,,,,,,,,,,,AFSA13.jpg,AFNE13.jpg,AFNE02.jpg,AFSA02.jpg,AFSA13.jpg,FS,4,num_8,16,num_8,1.56674504463,,,2018_Jan_26_1810,60.0125691939,FEMA4ImagesEEG,001,102689,
AFNE01.JPG,AFNE01.JPG,AFNE01.JPG,AFNE01.JPG,AFNE01.JPG,AFNE01.JPG,,,,,,,,,1,2,12,8,,,,,,,,,,,,,,,AFNE20.jpg,AFSA14.jpg,AFSA10.jpg,AFNE03.jpg,AFNE20.jpg,FN,3,num_8,32,num_2,1.28347227225,,,2018_Jan_26_1810,60.0125691939,FEMA4ImagesEEG,001,102689,
AFNE01.JPG,AFNE01.JPG,AFNE01.JPG,AFNE01.JPG,AFNE01.JPG,AFNE01.JPG,,,,,,,,,1,3,13,1,,,,,,,,,,,,,,,AFSA14.jpg,AFNE19.jpg,AFNE17.jpg,AFSA20.jpg,AFSA20.jpg,FS,4,num_4,16,num_4,1.50017849141,,,2018_Jan_26_1810,60.0125691939,FEMA4ImagesEEG,001,102689,
AFNE01.JPG,AFNE01.JPG,AFNE01.JPG,AFNE01.JPG,AFNE01.JPG,AFNE01.JPG,,,,,,,,,1,4,14,4,,,,,,,,,,,,,,,AFSA04.jpg,AFNE10.jpg,AFSA09.jpg,AFNE09.jpg,AFSA04.jpg,FS,4,num_8,32,num_2,1.43343489009,,,2018_Jan_26_1810,60.0125691939,FEMA4ImagesEEG,001,102689,
AFNE01.JPG,AFNE01.JPG,AFNE01.JPG,AFNE01.JPG,AFNE01.JPG,AFNE01.JPG,,,,,,,,,1,5,15,7,,,,,,,,,,,,,,,AFSA01.jpg,AFSA10.jpg,AFNE18.jpg,AFNE10.jpg,AFNE18.jpg,FN,3,num_2,32,num_6,1.88339651364,,,2018_Jan_26_1810,60.0125691939,FEMA4ImagesEEG,001,102689,
AFNE01.JPG,AFNE01.JPG,AFNE01.JPG,AFNE01.JPG,AFNE01.JPG,AFNE01.JPG,,,,,,,,,1,6,16,0,,,,,,,,,,,,,,,AFSA18.jpg,AFNE06.jpg,AFSA14.jpg,AFNE05.jpg,AFSA18.jpg,FS,4,num_8,32,num_4,0.916810170776,,,2018_Jan_26_1810,60.0125691939,FEMA4ImagesEEG,001,102689,
AFNE01.JPG,AFNE01.JPG,AFNE01.JPG,AFNE01.JPG,AFNE01.JPG,AFNE01.JPG,,,,,,,,,1,7,17,3,,,,,,,,,,,,,,,AFSA15.jpg,AFNE19.jpg,AFNE08.jpg,AFSA16.jpg,AFNE19.jpg,FN,3,num_6,32,num_8,1.03344124072,,,2018_Jan_26_1810,60.0125691939,FEMA4ImagesEEG,001,102689,
AFNE01.JPG,AFNE01.JPG,AFNE01.JPG,AFNE01.JPG,AFNE01.JPG,AFNE01.JPG,,,,,,,,,1,8,18,9,,,,,,,,,,,,,,,AFSA20.jpg,AFSA07.jpg,AFNE15.jpg,AFNE04.jpg,AFSA07.jpg,FS,4,num_6,16,num_6,0.716783998447,,,2018_Jan_26_1810,60.0125691939,FEMA4ImagesEEG,001,102689,
AFNE01.JPG,AFNE01.JPG,AFNE01.JPG,AFNE01.JPG,AFNE01.JPG,AFNE01.JPG,,,,,,,,,1,9,19,5,,,,,,,,,,,,,,,AFNE16.jpg,AFNE02.jpg,AFSA19.jpg,AFSA18.jpg,AFNE02.jpg,FN,3,num_6,32,num_2,1.16673760349,,,2018_Jan_26_1810,60.0125691939,FEMA4ImagesEEG,001,102689,
AFNE01.JPG,AFNE01.JPG,AFNE01.JPG,AFNE01.JPG,AFNE01.JPG,AFNE01.JPG,,,,,,,,,2,0,20,1,,,,,,,,,,,,,,,AFSA15.jpg,AFNE15.jpg,AFSA02.jpg,AFNE05.jpg,AFSA02.jpg,FS,4,num_2,16,num_2,1.05012545717,,,2018_Jan_26_1810,60.0125691939,FEMA4ImagesEEG,001,102689,
AFNE01.JPG,AFNE01.JPG,AFNE01.JPG,AFNE01.JPG,AFNE01.JPG,AFNE01.JPG,,,,,,,,,2,1,21,3,,,,,,,,,,,,,,,AFSA11.jpg,AFNE10.jpg,AFNE02.jpg,AFSA02.jpg,AFSA02.jpg,FS,4,num_4,16,num_4,0.716485710902,,,2018_Jan_26_1810,60.0125691939,FEMA4ImagesEEG,001,102689,
AFNE01.JPG,AFNE01.JPG,AFNE01.JPG,AFNE01.JPG,AFNE01.JPG,AFNE01.JPG,,,,,,,,,2,2,22,7,,,,,,,,,,,,,,,AFSA14.jpg,AFNE03.jpg,AFNE17.jpg,AFSA20.jpg,AFSA14.jpg,FS,4,num_8,32,num_6,0.867045866034,,,2018_Jan_26_1810,60.0125691939,FEMA4ImagesEEG,001,102689,
AFNE01.JPG,AFNE01.JPG,AFNE01.JPG,AFNE01.JPG,AFNE01.JPG,AFNE01.JPG,,,,,,,,,2,3,23,9,,,,,,,,,,,,,,,AFNE11.jpg,AFNE13.jpg,AFSA09.jpg,AFSA14.jpg,AFNE13.jpg,FN,3,num_6,32,num_8,1.4834317308,,,2018_Jan_26_1810,60.0125691939,FEMA4ImagesEEG,001,102689,
AFNE01.JPG,AFNE01.JPG,AFNE01.JPG,AFNE01.JPG,AFNE01.JPG,AFNE01.JPG,,,,,,,,,2,4,24,8,,,,,,,,,,,,,,,AFNE07.jpg,AFSA07.jpg,AFNE10.jpg,AFSA18.jpg,AFSA07.jpg,FS,4,num_6,16,num_6,0.733500930306,,,2018_Jan_26_1810,60.0125691939,FEMA4ImagesEEG,001,102689,
AFNE01.JPG,AFNE01.JPG,AFNE01.JPG,AFNE01.JPG,AFNE01.JPG,AFNE01.JPG,,,,,,,,,2,5,25,6,,,,,,,,,,,,,,,AFSA12.jpg,AFNE17.jpg,AFNE02.jpg,AFSA09.jpg,AFSA09.jpg,FS,4,num_4,32,num_6,1.03346144731,,,2018_Jan_26_1810,60.0125691939,FEMA4ImagesEEG,001,102689,
AFNE01.JPG,AFNE01.JPG,AFNE01.JPG,AFNE01.JPG,AFNE01.JPG,AFNE01.JPG,,,,,,,,,2,6,26,4,,,,,,,,,,,,,,,AFNE02.jpg,AFSA12.jpg,AFNE12.jpg,AFSA13.jpg,AFSA13.jpg,FS,4,num_4,16,num_4,1.21675593377,,,2018_Jan_26_1810,60.0125691939,FEMA4ImagesEEG,001,102689,
AFNE01.JPG,AFNE01.JPG,AFNE01.JPG,AFNE01.JPG,AFNE01.JPG,AFNE01.JPG,,,,,,,,,2,7,27,2,,,,,,,,,,,,,,,AFNE18.jpg,AFSA06.jpg,AFNE16.jpg,AFSA11.jpg,AFNE18.jpg,FN,3,num_8,32,num_2,0.883494018373,,,2018_Jan_26_1810,60.0125691939,FEMA4ImagesEEG,001,102689,
AFNE01.JPG,AFNE01.JPG,AFNE01.JPG,AFNE01.JPG,AFNE01.JPG,AFNE01.JPG,,,,,,,,,2,8,28,0,,,,,,,,,,,,,,,AFNE18.jpg,AFNE05.jpg,AFSA06.jpg,AFSA04.jpg,AFSA06.jpg,FS,4,num_2,32,num_8,0.866823914461,,,2018_Jan_26_1810,60.0125691939,FEMA4ImagesEEG,001,102689,
AFNE01.JPG,AFNE01.JPG,AFNE01.JPG,AFNE01.JPG,AFNE01.JPG,AFNE01.JPG,,,,,,,,,2,9,29,5,,,,,,,,,,,,,,,AFNE17.jpg,AFSA02.jpg,AFNE14.jpg,AFSA16.jpg,AFNE14.jpg,FN,3,num_2,32,num_6,1.08347272128,,,2018_Jan_26_1810,60.0125691939,FEMA4ImagesEEG,001,102689,
AFNE01.JPG,AFNE01.JPG,AFNE01.JPG,AFNE01.JPG,AFNE01.JPG,AFNE01.JPG,,,,,,,,,3,0,30,7,,,,,,,,,,,,,,,AFSA06.jpg,AFNE09.jpg,AFNE05.jpg,AFSA05.jpg,AFNE05.jpg,FN,3,num_2,16,num_2,1.13342722441,,,2018_Jan_26_1810,60.0125691939,FEMA4ImagesEEG,001,102689,
AFNE01.JPG,AFNE01.JPG,AFNE01.JPG,AFNE01.JPG,AFNE01.JPG,AFNE01.JPG,,,,,,,,,3,1,31,8,,,,,,,,,,,,,,,AFNE07.jpg,AFSA07.jpg,AFNE19.jpg,AFSA06.jpg,AFNE19.jpg,FN,3,num_2,16,num_2,0.983449211082,,,2018_Jan_26_1810,60.0125691939,FEMA4ImagesEEG,001,102689,
AFNE01.JPG,AFNE01.JPG,AFNE01.JPG,AFNE01.JPG,AFNE01.JPG,AFNE01.JPG,,,,,,,,,3,2,32,9,,,,,,,,,,,,,,,AFSA10.jpg,AFNE14.jpg,AFNE20.jpg,AFSA08.jpg,AFNE20.jpg,FN,3,num_2,32,num_4,1.23313224051,,,2018_Jan_26_1810,60.0125691939,FEMA4ImagesEEG,001,102689,
AFNE01.JPG,AFNE01.JPG,AFNE01.JPG,AFNE01.JPG,AFNE01.JPG,AFNE01.JPG,,,,,,,,,3,3,33,2,,,,,,,,,,,,,,,AFSA09.jpg,AFNE03.jpg,AFNE09.jpg,AFSA17.jpg,AFSA09.jpg,FS,4,num_8,32,num_6,0.933450125216,,,2018_Jan_26_1810,60.0125691939,FEMA4ImagesEEG,001,102689,
AFNE01.JPG,AFNE01.JPG,AFNE01.JPG,AFNE01.JPG,AFNE01.JPG,AFNE01.JPG,,,,,,,,,3,4,34,4,,,,,,,,,,,,,,,AFNE05.jpg,AFNE04.jpg,AFSA14.jpg,AFSA09.jpg,AFNE05.jpg,FN,3,num_8,16,num_8,1.3667528707,,,2018_Jan_26_1810,60.0125691939,FEMA4ImagesEEG,001,102689,
AFNE01.JPG,AFNE01.JPG,AFNE01.JPG,AFNE01.JPG,AFNE01.JPG,AFNE01.JPG,,,,,,,,,3,5,35,0,,,,,,,,,,,,,,,AFSA17.jpg,AFSA08.jpg,AFNE03.jpg,AFNE13.jpg,AFSA08.jpg,FS,4,num_6,32,num_4,1.15009604537,,,2018_Jan_26_1810,60.0125691939,FEMA4ImagesEEG,001,102689,
AFNE01.JPG,AFNE01.JPG,AFNE01.JPG,AFNE01.JPG,AFNE01.JPG,AFNE01.JPG,,,,,,,,,3,6,36,1,,,,,,,,,,,,,,,AFNE17.jpg,AFSA05.jpg,AFSA09.jpg,AFNE01.jpg,AFNE01.jpg,FN,3,num_4,32,num_2,1.05014406005,,,2018_Jan_26_1810,60.0125691939,FEMA4ImagesEEG,001,102689,
AFNE01.JPG,AFNE01.JPG,AFNE01.JPG,AFNE01.JPG,AFNE01.JPG,AFNE01.JPG,,,,,,,,,3,7,37,5,,,,,,,,,,,,,,,AFSA18.jpg,AFNE12.jpg,AFNE04.jpg,AFSA11.jpg,AFNE12.jpg,FN,3,num_6,32,num_8,0.98348834127,,,2018_Jan_26_1810,60.0125691939,FEMA4ImagesEEG,001,102689,
AFNE01.JPG,AFNE01.JPG,AFNE01.JPG,AFNE01.JPG,AFNE01.JPG,AFNE01.JPG,,,,,,,,,3,8,38,3,,,,,,,,,,,,,,,AFNE05.jpg,AFNE13.jpg,AFSA07.jpg,AFSA09.jpg,AFNE05.jpg,FN,3,num_8,32,num_6,1.73337135161,,,2018_Jan_26_1810,60.0125691939,FEMA4ImagesEEG,001,102689,
AFNE01.JPG,AFNE01.JPG,AFNE01.JPG,AFNE01.JPG,AFNE01.JPG,AFNE01.JPG,,,,,,,,,3,9,39,6,,,,,,,,,,,,,,,AFSA19.jpg,AFSA06.jpg,AFNE09.jpg,AFNE15.jpg,AFSA19.jpg,FS,4,num_8,32,num_6,1.20012816743,,,2018_Jan_26_1810,60.0125691939,FEMA4ImagesEEG,001,102689,
AFNE01.JPG,AFNE01.JPG,AFNE01.JPG,AFNE01.JPG,AFNE01.JPG,AFNE01.JPG,,,,,,,,,4,0,40,2,,,,,,,,,,,,,,,AFNE20.jpg,AFSA20.jpg,AFNE18.jpg,AFSA18.jpg,AFSA18.jpg,FS,4,num_4,32,num_2,1.00010584397,,,2018_Jan_26_1810,60.0125691939,FEMA4ImagesEEG,001,102689,
AFNE01.JPG,AFNE01.JPG,AFNE01.JPG,AFNE01.JPG,AFNE01.JPG,AFNE01.JPG,,,,,,,,,4,1,41,4,,,,,,,,,,,,,,,AFNE19.jpg,AFNE12.jpg,AFSA05.jpg,AFSA03.jpg,AFNE19.jpg,FN,3,num_8,32,num_2,1.0334883894,,,2018_Jan_26_1810,60.0125691939,FEMA4ImagesEEG,001,102689,
AFNE01.JPG,AFNE01.JPG,AFNE01.JPG,AFNE01.JPG,AFNE01.JPG,AFNE01.JPG,,,,,,,,,4,2,42,8,,,,,,,,,,,,,,,AFNE08.jpg,AFSA15.jpg,AFSA20.jpg,AFNE19.jpg,AFNE19.jpg,FN,3,num_4,32,num_8,1.13344582729,,,2018_Jan_26_1810,60.0125691939,FEMA4ImagesEEG,001,102689,
AFNE01.JPG,AFNE01.JPG,AFNE01.JPG,AFNE01.JPG,AFNE01.JPG,AFNE01.JPG,,,,,,,,,4,3,43,3,,,,,,,,,,,,,,,AFNE03.jpg,AFSA17.jpg,AFNE06.jpg,AFSA19.jpg,AFSA17.jpg,FS,4,num_6,16,num_6,0.833480178466,,,2018_Jan_26_1810,60.0125691939,FEMA4ImagesEEG,001,102689,
AFNE01.JPG,AFNE01.JPG,AFNE01.JPG,AFNE01.JPG,AFNE01.JPG,AFNE01.JPG,,,,,,,,,4,4,44,7,,,,,,,,,,,,,,,AFNE06.jpg,AFSA09.jpg,AFSA20.jpg,AFNE03.jpg,AFNE03.jpg,FN,3,num_4,32,num_6,1.54996171978,,,2018_Jan_26_1810,60.0125691939,FEMA4ImagesEEG,001,102689,
AFNE01.JPG,AFNE01.JPG,AFNE01.JPG,AFNE01.JPG,AFNE01.JPG,AFNE01.JPG,,,,,,,,,4,5,45,9,,,,,,,,,,,,,,,AFNE06.jpg,AFSA02.jpg,AFSA03.jpg,AFNE10.jpg,AFSA02.jpg,FS,4,num_6,32,num_4,1.41675452251,,,2018_Jan_26_1810,60.0125691939,FEMA4ImagesEEG,001,102689,
AFNE01.JPG,AFNE01.JPG,AFNE01.JPG,AFNE01.JPG,AFNE01.JPG,AFNE01.JPG,,,,,,,,,4,6,46,5,,,,,,,,,,,,,,,AFNE05.jpg,AFSA20.jpg,AFNE06.jpg,AFSA03.jpg,AFSA03.jpg,FS,4,num_4,32,num_2,1.18339872672,,,2018_Jan_26_1810,60.0125691939,FEMA4ImagesEEG,001,102689,
AFNE01.JPG,AFNE01.JPG,AFNE01.JPG,AFNE01.JPG,AFNE01.JPG,AFNE01.JPG,,,,,,,,,4,7,47,6,,,,,,,,,,,,,,,AFNE06.jpg,AFSA14.jpg,AFNE15.jpg,AFSA07.jpg,AFSA07.jpg,FS,4,num_4,16,num_4,1.1501018187,,,2018_Jan_26_1810,60.0125691939,FEMA4ImagesEEG,001,102689,
AFNE01.JPG,AFNE01.JPG,AFNE01.JPG,AFNE01.JPG,AFNE01.JPG,AFNE01.JPG,,,,,,,,,4,8,48,0,,,,,,,,,,,,,,,AFSA15.jpg,AFNE12.jpg,AFSA14.jpg,AFNE16.jpg,AFSA14.jpg,FS,4,num_2,32,num_4,1.06674456355,,,2018_Jan_26_1810,60.0125691939,FEMA4ImagesEEG,001,102689,
AFNE01.JPG,AFNE01.JPG,AFNE01.JPG,AFNE01.JPG,AFNE01.JPG,AFNE01.JPG,,,,,,,,,4,9,49,1,,,,,,,,,,,,,,,AFNE19.jpg,AFSA08.jpg,AFNE15.jpg,AFSA13.jpg,AFNE15.jpg,FN,3,num_2,16,num_2,0.683532314666,,,2018_Jan_26_1810,60.0125691939,FEMA4ImagesEEG,001,102689,
AFNE01.JPG,AFNE01.JPG,AFNE01.JPG,AFNE01.JPG,AFNE01.JPG,AFNE01.JPG,,,,,,,,,5,0,50,4,,,,,,,,,,,,,,,AFSA15.jpg,AFSA18.jpg,AFNE18.jpg,AFNE19.jpg,AFNE19.jpg,FN,3,num_4,32,num_6,0.983444079262,,,2018_Jan_26_1810,60.0125691939,FEMA4ImagesEEG,001,102689,
AFNE01.JPG,AFNE01.JPG,AFNE01.JPG,AFNE01.JPG,AFNE01.JPG,AFNE01.JPG,,,,,,,,,5,1,51,2,,,,,,,,,,,,,,,AFSA09.jpg,AFSA12.jpg,AFNE05.jpg,AFNE02.jpg,AFNE02.jpg,FN,3,num_4,16,num_4,0.966760825017,,,2018_Jan_26_1810,60.0125691939,FEMA4ImagesEEG,001,102689,
AFNE01.JPG,AFNE01.JPG,AFNE01.JPG,AFNE01.JPG,AFNE01.JPG,AFNE01.JPG,,,,,,,,,5,2,52,5,,,,,,,,,,,,,,,AFNE17.jpg,AFNE06.jpg,AFSA07.jpg,AFSA05.jpg,AFSA05.jpg,FS,4,num_4,16,num_4,1.00012508832,,,2018_Jan_26_1810,60.0125691939,FEMA4ImagesEEG,001,102689,
AFNE01.JPG,AFNE01.JPG,AFNE01.JPG,AFNE01.JPG,AFNE01.JPG,AFNE01.JPG,,,,,,,,,5,3,53,0,,,,,,,,,,,,,,,AFSA01.jpg,AFSA12.jpg,AFNE11.jpg,AFNE05.jpg,AFNE11.jpg,FN,3,num_2,32,num_6,0.883414795768,,,2018_Jan_26_1810,60.0125691939,FEMA4ImagesEEG,001,102689,
AFNE01.JPG,AFNE01.JPG,AFNE01.JPG,AFNE01.JPG,AFNE01.JPG,AFNE01.JPG,,,,,,,,,5,4,54,3,,,,,,,,,,,,,,,AFNE01.jpg,AFSA08.jpg,AFNE20.jpg,AFSA19.jpg,AFNE01.jpg,FN,3,num_8,32,num_4,1.083436157,,,2018_Jan_26_1810,60.0125691939,FEMA4ImagesEEG,001,102689,
AFNE01.JPG,AFNE01.JPG,AFNE01.JPG,AFNE01.JPG,AFNE01.JPG,AFNE01.JPG,,,,,,,,,5,5,55,6,,,,,,,,,,,,,,,AFSA18.jpg,AFNE02.jpg,AFSA12.jpg,AFNE07.jpg,AFNE07.jpg,FN,3,num_4,32,num_2,1.13340284824,,,2018_Jan_26_1810,60.0125691939,FEMA4ImagesEEG,001,102689,
AFNE01.JPG,AFNE01.JPG,AFNE01.JPG,AFNE01.JPG,AFNE01.JPG,AFNE01.JPG,,,,,,,,,5,6,56,8,,,,,,,,,,,,,,,AFSA18.jpg,AFSA03.jpg,AFNE04.jpg,AFNE20.jpg,AFNE20.jpg,FN,3,num_4,16,num_4,0.8167558696,,,2018_Jan_26_1810,60.0125691939,FEMA4ImagesEEG,001,102689,
AFNE01.JPG,AFNE01.JPG,AFNE01.JPG,AFNE01.JPG,AFNE01.JPG,AFNE01.JPG,,,,,,,,,5,7,57,9,,,,,,,,,,,,,,,AFSA18.jpg,AFNE04.jpg,AFSA05.jpg,AFNE03.jpg,AFSA05.jpg,FS,4,num_2,16,num_2,1.19992385647,,,2018_Jan_26_1810,60.0125691939,FEMA4ImagesEEG,001,102689,
AFNE01.JPG,AFNE01.JPG,AFNE01.JPG,AFNE01.JPG,AFNE01.JPG,AFNE01.JPG,,,,,,,,,5,8,58,7,,,,,,,,,,,,,,,AFSA13.jpg,AFNE18.jpg,AFSA03.jpg,AFNE02.jpg,AFSA13.jpg,FS,4,num_8,16,num_8,1.08343455329,,,2018_Jan_26_1810,60.0125691939,FEMA4ImagesEEG,001,102689,
AFNE01.JPG,AFNE01.JPG,AFNE01.JPG,AFNE01.JPG,AFNE01.JPG,AFNE01.JPG,,,,,,,,,5,9,59,1,,,,,,,,,,,,,,,AFNE20.jpg,AFSA12.jpg,AFSA04.jpg,AFNE19.jpg,AFNE19.jpg,FN,3,num_4,16,num_4,2.26660330998,,,2018_Jan_26_1810,60.0125691939,FEMA4ImagesEEG,001,102689,
,,,,,,,,,,,,,,,,,,,,,,,,,,,,,,,,,,,,,,,,,,,space,42.8634664156,2018_Jan_26_1810,60.0125691939,FEMA4ImagesEEG,001,102689,
AFNE01.JPG,AFNE01.JPG,AFNE01.JPG,AFNE01.JPG,AFNE01.JPG,AFNE01.JPG,,,,,,,,,,,,,0,0,0,8,,,,,,,,,,,AMSA14.jpg,AMSA18.jpg,AMNE17.jpg,AMNE07.jpg,AMSA18.jpg,MS,2,num_6,32,num_8,1.3167454456,,,2018_Jan_26_1810,60.0125691939,FEMA4ImagesEEG,001,102689,
AFNE01.JPG,AFNE01.JPG,AFNE01.JPG,AFNE01.JPG,AFNE01.JPG,AFNE01.JPG,,,,,,,,,,,,,0,1,1,1,,,,,,,,,,,AMSA13.jpg,AMSA09.jpg,AMNE08.jpg,AMNE01.jpg,AMSA09.jpg,MS,2,num_6,16,num_6,0.850088058971,,,2018_Jan_26_1810,60.0125691939,FEMA4ImagesEEG,001,102689,
AFNE01.JPG,AFNE01.JPG,AFNE01.JPG,AFNE01.JPG,AFNE01.JPG,AFNE01.JPG,,,,,,,,,,,,,0,2,2,7,,,,,,,,,,,AMSA16.jpg,AMNE19.jpg,AMNE03.jpg,AMSA15.jpg,AMSA16.jpg,MS,2,num_8,32,num_2,0.900123067666,,,2018_Jan_26_1810,60.0125691939,FEMA4ImagesEEG,001,102689,
AFNE01.JPG,AFNE01.JPG,AFNE01.JPG,AFNE01.JPG,AFNE01.JPG,AFNE01.JPG,,,,,,,,,,,,,0,3,3,9,,,,,,,,,,,AMNE19.jpg,AMNE11.jpg,AMSA10.jpg,AMSA06.jpg,AMNE19.jpg,MN,1,num_8,16,num_8,0.883481188794,,,2018_Jan_26_1810,60.0125691939,FEMA4ImagesEEG,001,102689,
AFNE01.JPG,AFNE01.JPG,AFNE01.JPG,AFNE01.JPG,AFNE01.JPG,AFNE01.JPG,,,,,,,,,,,,,0,4,4,6,,,,,,,,,,,AMSA14.jpg,AMNE06.jpg,AMNE17.jpg,AMSA01.jpg,AMSA14.jpg,MS,2,num_8,32,num_2,1.06678882556,,,2018_Jan_26_1810,60.0125691939,FEMA4ImagesEEG,001,102689,
AFNE01.JPG,AFNE01.JPG,AFNE01.JPG,AFNE01.JPG,AFNE01.JPG,AFNE01.JPG,,,,,,,,,,,,,0,5,5,4,,,,,,,,,,,AMSA07.jpg,AMNE14.jpg,AMNE20.jpg,AMSA08.jpg,AMSA08.jpg,MS,2,num_4,32,num_6,1.03342424153,,,2018_Jan_26_1810,60.0125691939,FEMA4ImagesEEG,001,102689,
AFNE01.JPG,AFNE01.JPG,AFNE01.JPG,AFNE01.JPG,AFNE01.JPG,AFNE01.JPG,,,,,,,,,,,,,0,6,6,5,,,,,,,,,,,AMNE15.jpg,AMSA08.jpg,AMSA01.jpg,AMNE06.jpg,AMSA08.jpg,MS,2,num_6,32,num_2,1.05020467978,,,2018_Jan_26_1810,60.0125691939,FEMA4ImagesEEG,001,102689,
AFNE01.JPG,AFNE01.JPG,AFNE01.JPG,AFNE01.JPG,AFNE01.JPG,AFNE01.JPG,,,,,,,,,,,,,0,7,7,3,,,,,,,,,,,AMSA10.jpg,AMNE19.jpg,AMSA12.jpg,AMNE12.jpg,AMNE12.jpg,MN,1,num_4,32,num_8,1.91668251652,,,2018_Jan_26_1810,60.0125691939,FEMA4ImagesEEG,001,102689,
AFNE01.JPG,AFNE01.JPG,AFNE01.JPG,AFNE01.JPG,AFNE01.JPG,AFNE01.JPG,,,,,,,,,,,,,0,8,8,2,,,,,,,,,,,AMNE14.jpg,AMSA13.jpg,AMSA05.jpg,AMNE11.jpg,AMSA05.jpg,MS,2,num_2,32,num_6,0.816783453192,,,2018_Jan_26_1810,60.0125691939,FEMA4ImagesEEG,001,102689,
AFNE01.JPG,AFNE01.JPG,AFNE01.JPG,AFNE01.JPG,AFNE01.JPG,AFNE01.JPG,,,,,,,,,,,,,0,9,9,0,,,,,,,,,,,AMNE18.jpg,AMSA08.jpg,AMSA05.jpg,AMNE02.jpg,AMSA05.jpg,MS,2,num_2,16,num_2,0.78345030162,,,2018_Jan_26_1810,60.0125691939,FEMA4ImagesEEG,001,102689,
AFNE01.JPG,AFNE01.JPG,AFNE01.JPG,AFNE01.JPG,AFNE01.JPG,AFNE01.JPG,,,,,,,,,,,,,1,0,10,1,,,,,,,,,,,AMNE08.jpg,AMNE20.jpg,AMSA08.jpg,AMSA15.jpg,AMSA15.jpg,MS,2,num_4,16,num_4,0.800121688488,,,2018_Jan_26_1810,60.0125691939,FEMA4ImagesEEG,001,102689,
AFNE01.JPG,AFNE01.JPG,AFNE01.JPG,AFNE01.JPG,AFNE01.JPG,AFNE01.JPG,,,,,,,,,,,,,1,1,11,2,,,,,,,,,,,AMNE12.jpg,AMSA14.jpg,AMSA20.jpg,AMNE03.jpg,AMNE03.jpg,MN,1,num_4,32,num_8,0.883479264361,,,2018_Jan_26_1810,60.0125691939,FEMA4ImagesEEG,001,102689,
AFNE01.JPG,AFNE01.JPG,AFNE01.JPG,AFNE01.JPG,AFNE01.JPG,AFNE01.JPG,,,,,,,,,,,,,1,2,12,3,,,,,,,,,,,AMNE18.jpg,AMSA09.jpg,AMSA07.jpg,AMNE02.jpg,AMSA07.jpg,MS,2,num_2,32,num_6,0.916800869309,,,2018_Jan_26_1810,60.0125691939,FEMA4ImagesEEG,001,102689,
AFNE01.JPG,AFNE01.JPG,AFNE01.JPG,AFNE01.JPG,AFNE01.JPG,AFNE01.JPG,,,,,,,,,,,,,1,3,13,8,,,,,,,,,,,AMNE05.jpg,AMSA05.jpg,AMNE08.jpg,AMSA03.jpg,AMNE08.jpg,MN,1,num_2,32,num_8,1.21680500687,,,2018_Jan_26_1810,60.0125691939,FEMA4ImagesEEG,001,102689,
AFNE01.JPG,AFNE01.JPG,AFNE01.JPG,AFNE01.JPG,AFNE01.JPG,AFNE01.JPG,,,,,,,,,,,,,1,4,14,5,,,,,,,,,,,AMSA18.jpg,AMNE16.jpg,AMSA13.jpg,AMNE02.jpg,AMSA18.jpg,MS,2,num_8,32,num_4,1.05023001818,,,2018_Jan_26_1810,60.0125691939,FEMA4ImagesEEG,001,102689,
AFNE01.JPG,AFNE01.JPG,AFNE01.JPG,AFNE01.JPG,AFNE01.JPG,AFNE01.JPG,,,,,,,,,,,,,1,5,15,0,,,,,,,,,,,AMSA05.jpg,AMNE10.jpg,AMSA01.jpg,AMNE11.jpg,AMNE11.jpg,MN,1,num_4,32,num_2,0.966764673911,,,2018_Jan_26_1810,60.0125691939,FEMA4ImagesEEG,001,102689,
AFNE01.JPG,AFNE01.JPG,AFNE01.JPG,AFNE01.JPG,AFNE01.JPG,AFNE01.JPG,,,,,,,,,,,,,1,6,16,7,,,,,,,,,,,AMNE18.jpg,AMSA04.jpg,AMSA08.jpg,AMNE07.jpg,AMSA04.jpg,MS,2,num_6,16,num_6,1.33336070308,,,2018_Jan_26_1810,60.0125691939,FEMA4ImagesEEG,001,102689,
AFNE01.JPG,AFNE01.JPG,AFNE01.JPG,AFNE01.JPG,AFNE01.JPG,AFNE01.JPG,,,,,,,,,,,,,1,7,17,6,,,,,,,,,,,AMSA08.jpg,AMNE06.jpg,AMNE07.jpg,AMSA14.jpg,AMNE06.jpg,MN,1,num_6,32,num_8,1.13344614804,,,2018_Jan_26_1810,60.0125691939,FEMA4ImagesEEG,001,102689,
AFNE01.JPG,AFNE01.JPG,AFNE01.JPG,AFNE01.JPG,AFNE01.JPG,AFNE01.JPG,,,,,,,,,,,,,1,8,18,4,,,,,,,,,,,AMNE12.jpg,AMSA07.jpg,AMSA09.jpg,AMNE19.jpg,AMNE19.jpg,MN,1,num_4,32,num_6,0.433510584553,,,2018_Jan_26_1810,60.0125691939,FEMA4ImagesEEG,001,102689,
AFNE01.JPG,AFNE01.JPG,AFNE01.JPG,AFNE01.JPG,AFNE01.JPG,AFNE01.JPG,,,,,,,,,,,,,1,9,19,9,,,,,,,,,,,AMSA01.jpg,AMNE06.jpg,AMSA15.jpg,AMNE05.jpg,AMSA15.jpg,MS,2,num_2,32,num_4,1.01676760867,,,2018_Jan_26_1810,60.0125691939,FEMA4ImagesEEG,001,102689,
AFNE01.JPG,AFNE01.JPG,AFNE01.JPG,AFNE01.JPG,AFNE01.JPG,AFNE01.JPG,,,,,,,,,,,,,2,0,20,0,,,,,,,,,,,AMNE04.jpg,AMNE18.jpg,AMSA07.jpg,AMSA05.jpg,AMSA07.jpg,MS,2,num_2,32,num_6,1.15009732833,,,2018_Jan_26_1810,60.0125691939,FEMA4ImagesEEG,001,102689,
AFNE01.JPG,AFNE01.JPG,AFNE01.JPG,AFNE01.JPG,AFNE01.JPG,AFNE01.JPG,,,,,,,,,,,,,2,1,21,8,,,,,,,,,,,AMNE10.jpg,AMNE15.jpg,AMSA06.jpg,AMSA20.jpg,AMSA06.jpg,MS,2,num_2,16,num_2,1.00011386245,,,2018_Jan_26_1810,60.0125691939,FEMA4ImagesEEG,001,102689,
AFNE01.JPG,AFNE01.JPG,AFNE01.JPG,AFNE01.JPG,AFNE01.JPG,AFNE01.JPG,,,,,,,,,,,,,2,2,22,3,,,,,,,,,,,AMSA01.jpg,AMSA10.jpg,AMNE05.jpg,AMNE09.jpg,AMNE05.jpg,MN,1,num_2,32,num_4,1.15005210412,,,2018_Jan_26_1810,60.0125691939,FEMA4ImagesEEG,001,102689,
AFNE01.JPG,AFNE01.JPG,AFNE01.JPG,AFNE01.JPG,AFNE01.JPG,AFNE01.JPG,,,,,,,,,,,,,2,3,23,6,,,,,,,,,,,AMSA07.jpg,AMSA04.jpg,AMNE20.jpg,AMNE11.jpg,AMSA07.jpg,MS,2,num_8,32,num_6,1.13343812956,,,2018_Jan_26_1810,60.0125691939,FEMA4ImagesEEG,001,102689,
AFNE01.JPG,AFNE01.JPG,AFNE01.JPG,AFNE01.JPG,AFNE01.JPG,AFNE01.JPG,,,,,,,,,,,,,2,4,24,1,,,,,,,,,,,AMNE02.jpg,AMSA16.jpg,AMNE06.jpg,AMSA10.jpg,AMNE06.jpg,MN,1,num_2,32,num_8,0.766771537717,,,2018_Jan_26_1810,60.0125691939,FEMA4ImagesEEG,001,102689,
AFNE01.JPG,AFNE01.JPG,AFNE01.JPG,AFNE01.JPG,AFNE01.JPG,AFNE01.JPG,,,,,,,,,,,,,2,5,25,2,,,,,,,,,,,AMSA15.jpg,AMNE02.jpg,AMSA10.jpg,AMNE09.jpg,AMNE09.jpg,MN,1,num_4,32,num_8,1.28343731168,,,2018_Jan_26_1810,60.0125691939,FEMA4ImagesEEG,001,102689,
AFNE01.JPG,AFNE01.JPG,AFNE01.JPG,AFNE01.JPG,AFNE01.JPG,AFNE01.JPG,,,,,,,,,,,,,2,6,26,9,,,,,,,,,,,AMNE19.jpg,AMSA01.jpg,AMNE02.jpg,AMSA14.jpg,AMNE19.jpg,MN,1,num_8,32,num_6,0.883547261095,,,2018_Jan_26_1810,60.0125691939,FEMA4ImagesEEG,001,102689,
AFNE01.JPG,AFNE01.JPG,AFNE01.JPG,AFNE01.JPG,AFNE01.JPG,AFNE01.JPG,,,,,,,,,,,,,2,7,27,4,,,,,,,,,,,AMSA03.jpg,AMSA17.jpg,AMNE04.jpg,AMNE12.jpg,AMSA03.jpg,MS,2,num_8,32,num_6,1.30010484968,,,2018_Jan_26_1810,60.0125691939,FEMA4ImagesEEG,001,102689,
AFNE01.JPG,AFNE01.JPG,AFNE01.JPG,AFNE01.JPG,AFNE01.JPG,AFNE01.JPG,,,,,,,,,,,,,2,8,28,5,,,,,,,,,,,AMNE15.jpg,AMNE07.jpg,AMSA20.jpg,AMSA02.jpg,AMSA02.jpg,MS,2,num_4,16,num_4,1.5000870807,,,2018_Jan_26_1810,60.0125691939,FEMA4ImagesEEG,001,102689,
AFNE01.JPG,AFNE01.JPG,AFNE01.JPG,AFNE01.JPG,AFNE01.JPG,AFNE01.JPG,,,,,,,,,,,,,2,9,29,7,,,,,,,,,,,AMSA19.jpg,AMSA14.jpg,AMNE11.jpg,AMNE20.jpg,AMSA19.jpg,MS,2,num_8,32,num_2,0.816767736978,,,2018_Jan_26_1810,60.0125691939,FEMA4ImagesEEG,001,102689,
AFNE01.JPG,AFNE01.JPG,AFNE01.JPG,AFNE01.JPG,AFNE01.JPG,AFNE01.JPG,,,,,,,,,,,,,3,0,30,9,,,,,,,,,,,AMSA07.jpg,AMNE01.jpg,AMSA01.jpg,AMNE10.jpg,AMNE10.jpg,MN,1,num_4,16,num_4,1.06678144858,,,2018_Jan_26_1810,60.0125691939,FEMA4ImagesEEG,001,102689,
AFNE01.JPG,AFNE01.JPG,AFNE01.JPG,AFNE01.JPG,AFNE01.JPG,AFNE01.JPG,,,,,,,,,,,,,3,1,31,6,,,,,,,,,,,AMSA04.jpg,AMNE05.jpg,AMNE06.jpg,AMSA11.jpg,AMNE05.jpg,MN,1,num_6,32,num_8,1.266752133,,,2018_Jan_26_1810,60.0125691939,FEMA4ImagesEEG,001,102689,
AFNE01.JPG,AFNE01.JPG,AFNE01.JPG,AFNE01.JPG,AFNE01.JPG,AFNE01.JPG,,,,,,,,,,,,,3,2,32,5,,,,,,,,,,,AMNE13.jpg,AMSA20.jpg,AMSA17.jpg,AMNE12.jpg,AMNE13.jpg,MN,1,num_8,32,num_6,0.983450494066,,,2018_Jan_26_1810,60.0125691939,FEMA4ImagesEEG,001,102689,
AFNE01.JPG,AFNE01.JPG,AFNE01.JPG,AFNE01.JPG,AFNE01.JPG,AFNE01.JPG,,,,,,,,,,,,,3,3,33,8,,,,,,,,,,,AMSA19.jpg,AMNE11.jpg,AMNE08.jpg,AMSA03.jpg,AMSA19.jpg,MS,2,num_8,32,num_6,0.8001184811,,,2018_Jan_26_1810,60.0125691939,FEMA4ImagesEEG,001,102689,
AFNE01.JPG,AFNE01.JPG,AFNE01.JPG,AFNE01.JPG,AFNE01.JPG,AFNE01.JPG,,,,,,,,,,,,,3,4,34,0,,,,,,,,,,,AMSA13.jpg,AMNE14.jpg,AMSA03.jpg,AMNE07.jpg,AMSA03.jpg,MS,2,num_2,32,num_4,1.45008478744,,,2018_Jan_26_1810,60.0125691939,FEMA4ImagesEEG,001,102689,
AFNE01.JPG,AFNE01.JPG,AFNE01.JPG,AFNE01.JPG,AFNE01.JPG,AFNE01.JPG,,,,,,,,,,,,,3,5,35,2,,,,,,,,,,,AMSA06.jpg,AMNE10.jpg,AMSA12.jpg,AMNE09.jpg,AMNE10.jpg,MN,1,num_6,32,num_2,1.3501100296,,,2018_Jan_26_1810,60.0125691939,FEMA4ImagesEEG,001,102689,
AFNE01.JPG,AFNE01.JPG,AFNE01.JPG,AFNE01.JPG,AFNE01.JPG,AFNE01.JPG,,,,,,,,,,,,,3,6,36,7,,,,,,,,,,,AMNE03.jpg,AMSA01.jpg,AMSA11.jpg,AMNE07.jpg,AMNE07.jpg,MN,1,num_4,32,num_2,0.950125681673,,,2018_Jan_26_1810,60.0125691939,FEMA4ImagesEEG,001,102689,
AFNE01.JPG,AFNE01.JPG,AFNE01.JPG,AFNE01.JPG,AFNE01.JPG,AFNE01.JPG,,,,,,,,,,,,,3,7,37,3,,,,,,,,,,,AMSA02.jpg,AMNE09.jpg,AMSA20.jpg,AMNE02.jpg,AMNE09.jpg,MN,1,num_6,32,num_8,1.0001690296,,,2018_Jan_26_1810,60.0125691939,FEMA4ImagesEEG,001,102689,
AFNE01.JPG,AFNE01.JPG,AFNE01.JPG,AFNE01.JPG,AFNE01.JPG,AFNE01.JPG,,,,,,,,,,,,,3,8,38,4,,,,,,,,,,,AMSA09.jpg,AMNE13.jpg,AMNE02.jpg,AMSA14.jpg,AMNE02.jpg,MN,1,num_2,32,num_4,1.43341307982,,,2018_Jan_26_1810,60.0125691939,FEMA4ImagesEEG,001,102689,
AFNE01.JPG,AFNE01.JPG,AFNE01.JPG,AFNE01.JPG,AFNE01.JPG,AFNE01.JPG,,,,,,,,,,,,,3,9,39,1,,,,,,,,,,,AMSA14.jpg,AMNE08.jpg,AMSA16.jpg,AMNE03.jpg,AMNE08.jpg,MN,1,num_6,16,num_6,0.88346290667,,,2018_Jan_26_1810,60.0125691939,FEMA4ImagesEEG,001,102689,
AFNE01.JPG,AFNE01.JPG,AFNE01.JPG,AFNE01.JPG,AFNE01.JPG,AFNE01.JPG,,,,,,,,,,,,,4,0,40,8,,,,,,,,,,,AMSA13.jpg,AMNE07.jpg,AMNE02.jpg,AMSA18.jpg,AMNE07.jpg,MN,1,num_6,32,num_8,0.900158348988,,,2018_Jan_26_1810,60.0125691939,FEMA4ImagesEEG,001,102689,
AFNE01.JPG,AFNE01.JPG,AFNE01.JPG,AFNE01.JPG,AFNE01.JPG,AFNE01.JPG,,,,,,,,,,,,,4,1,41,1,,,,,,,,,,,AMNE16.jpg,AMNE06.jpg,AMSA13.jpg,AMSA16.jpg,AMNE16.jpg,MN,1,num_8,32,num_4,0.900142632774,,,2018_Jan_26_1810,60.0125691939,FEMA4ImagesEEG,001,102689,
AFNE01.JPG,AFNE01.JPG,AFNE01.JPG,AFNE01.JPG,AFNE01.JPG,AFNE01.JPG,,,,,,,,,,,,,4,2,42,9,,,,,,,,,,,AMNE14.jpg,AMNE09.jpg,AMSA07.jpg,AMSA20.jpg,AMNE14.jpg,MN,1,num_8,32,num_2,1.11675230938,,,2018_Jan_26_1810,60.0125691939,FEMA4ImagesEEG,001,102689,
AFNE01.JPG,AFNE01.JPG,AFNE01.JPG,AFNE01.JPG,AFNE01.JPG,AFNE01.JPG,,,,,,,,,,,,,4,3,43,3,,,,,,,,,,,AMNE16.jpg,AMSA09.jpg,AMSA02.jpg,AMNE04.jpg,AMNE04.jpg,MN,1,num_4,16,num_4,0.933549875132,,,2018_Jan_26_1810,60.0125691939,FEMA4ImagesEEG,001,102689,
AFNE01.JPG,AFNE01.JPG,AFNE01.JPG,AFNE01.JPG,AFNE01.JPG,AFNE01.JPG,,,,,,,,,,,,,4,4,44,4,,,,,,,,,,,AMSA17.jpg,AMNE15.jpg,AMNE08.jpg,AMSA20.jpg,AMNE08.jpg,MN,1,num_2,32,num_6,0.88346290667,,,2018_Jan_26_1810,60.0125691939,FEMA4ImagesEEG,001,102689,
AFNE01.JPG,AFNE01.JPG,AFNE01.JPG,AFNE01.JPG,AFNE01.JPG,AFNE01.JPG,,,,,,,,,,,,,4,5,45,6,,,,,,,,,,,AMNE05.jpg,AMSA08.jpg,AMSA15.jpg,AMNE18.jpg,AMSA15.jpg,MS,2,num_2,16,num_2,1.25008106686,,,2018_Jan_26_1810,60.0125691939,FEMA4ImagesEEG,001,102689,
AFNE01.JPG,AFNE01.JPG,AFNE01.JPG,AFNE01.JPG,AFNE01.JPG,AFNE01.JPG,,,,,,,,,,,,,4,6,46,7,,,,,,,,,,,AMSA04.jpg,AMSA05.jpg,AMNE07.jpg,AMNE01.jpg,AMNE01.jpg,MN,1,num_4,32,num_8,1.31674737,,,2018_Jan_26_1810,60.0125691939,FEMA4ImagesEEG,001,102689,
AFNE01.JPG,AFNE01.JPG,AFNE01.JPG,AFNE01.JPG,AFNE01.JPG,AFNE01.JPG,,,,,,,,,,,,,4,7,47,2,,,,,,,,,,,AMSA16.jpg,AMSA02.jpg,AMNE20.jpg,AMNE05.jpg,AMNE05.jpg,MN,1,num_4,16,num_4,0.700141478126,,,2018_Jan_26_1810,60.0125691939,FEMA4ImagesEEG,001,102689,
AFNE01.JPG,AFNE01.JPG,AFNE01.JPG,AFNE01.JPG,AFNE01.JPG,AFNE01.JPG,,,,,,,,,,,,,4,8,48,0,,,,,,,,,,,AMNE14.jpg,AMSA13.jpg,AMSA17.jpg,AMNE04.jpg,AMNE14.jpg,MN,1,num_8,32,num_6,0.85014098094,,,2018_Jan_26_1810,60.0125691939,FEMA4ImagesEEG,001,102689,
AFNE01.JPG,AFNE01.JPG,AFNE01.JPG,AFNE01.JPG,AFNE01.JPG,AFNE01.JPG,,,,,,,,,,,,,4,9,49,5,,,,,,,,,,,AMSA07.jpg,AMNE01.jpg,AMSA08.jpg,AMNE10.jpg,AMNE01.jpg,MN,1,num_6,32,num_4,1.66670985954,,,2018_Jan_26_1810,60.0125691939,FEMA4ImagesEEG,001,102689,
AFNE01.JPG,AFNE01.JPG,AFNE01.JPG,AFNE01.JPG,AFNE01.JPG,AFNE01.JPG,,,,,,,,,,,,,5,0,50,7,,,,,,,,,,,AMNE03.jpg,AMSA19.jpg,AMNE16.jpg,AMSA03.jpg,AMSA03.jpg,MS,2,num_4,32,num_6,1.66674065054,,,2018_Jan_26_1810,60.0125691939,FEMA4ImagesEEG,001,102689,
AFNE01.JPG,AFNE01.JPG,AFNE01.JPG,AFNE01.JPG,AFNE01.JPG,AFNE01.JPG,,,,,,,,,,,,,5,1,51,2,,,,,,,,,,,AMNE06.jpg,AMNE20.jpg,AMSA02.jpg,AMSA03.jpg,AMSA03.jpg,MS,2,num_4,16,num_4,0.750101754529,,,2018_Jan_26_1810,60.0125691939,FEMA4ImagesEEG,001,102689,
AFNE01.JPG,AFNE01.JPG,AFNE01.JPG,AFNE01.JPG,AFNE01.JPG,AFNE01.JPG,,,,,,,,,,,,,5,2,52,0,,,,,,,,,,,AMSA17.jpg,AMSA10.jpg,AMNE17.jpg,AMNE11.jpg,AMSA17.jpg,MS,2,num_8,16,num_8,0.750148261752,,,2018_Jan_26_1810,60.0125691939,FEMA4ImagesEEG,001,102689,
AFNE01.JPG,AFNE01.JPG,AFNE01.JPG,AFNE01.JPG,AFNE01.JPG,AFNE01.JPG,,,,,,,,,,,,,5,3,53,5,,,,,,,,,,,AMNE09.jpg,AMNE12.jpg,AMSA09.jpg,AMSA12.jpg,AMNE09.jpg,MN,1,num_8,32,num_4,1.15012715707,,,2018_Jan_26_1810,60.0125691939,FEMA4ImagesEEG,001,102689,
AFNE01.JPG,AFNE01.JPG,AFNE01.JPG,AFNE01.JPG,AFNE01.JPG,AFNE01.JPG,,,,,,,,,,,,,5,4,54,1,,,,,,,,,,,AMNE04.jpg,AMSA02.jpg,AMSA11.jpg,AMNE18.jpg,AMNE04.jpg,MN,1,num_8,32,num_6,0.950100022543,,,2018_Jan_26_1810,60.0125691939,FEMA4ImagesEEG,001,102689,
AFNE01.JPG,AFNE01.JPG,AFNE01.JPG,AFNE01.JPG,AFNE01.JPG,AFNE01.JPG,,,,,,,,,,,,,5,5,55,6,,,,,,,,,,,AMSA02.jpg,AMNE04.jpg,AMSA09.jpg,AMNE06.jpg,AMNE04.jpg,MN,1,num_6,16,num_6,0.966739014752,,,2018_Jan_26_1810,60.0125691939,FEMA4ImagesEEG,001,102689,
AFNE01.JPG,AFNE01.JPG,AFNE01.JPG,AFNE01.JPG,AFNE01.JPG,AFNE01.JPG,,,,,,,,,,,,,5,6,56,3,,,,,,,,,,,AMNE05.jpg,AMSA15.jpg,AMNE02.jpg,AMSA04.jpg,AMNE02.jpg,MN,1,num_2,16,num_2,1.20014324217,,,2018_Jan_26_1810,60.0125691939,FEMA4ImagesEEG,001,102689,
AFNE01.JPG,AFNE01.JPG,AFNE01.JPG,AFNE01.JPG,AFNE01.JPG,AFNE01.JPG,,,,,,,,,,,,,5,7,57,9,,,,,,,,,,,AMSA09.jpg,AMNE03.jpg,AMNE04.jpg,AMSA16.jpg,AMSA09.jpg,MS,2,num_8,32,num_2,1.1334673168,,,2018_Jan_26_1810,60.0125691939,FEMA4ImagesEEG,001,102689,
AFNE01.JPG,AFNE01.JPG,AFNE01.JPG,AFNE01.JPG,AFNE01.JPG,AFNE01.JPG,,,,,,,,,,,,,5,8,58,8,,,,,,,,,,,AMSA12.jpg,AMNE10.jpg,AMNE05.jpg,AMSA14.jpg,AMSA14.jpg,MS,2,num_4,16,num_4,0.683458865329,,,2018_Jan_26_1810,60.0125691939,FEMA4ImagesEEG,001,102689,
AFNE01.JPG,AFNE01.JPG,AFNE01.JPG,AFNE01.JPG,AFNE01.JPG,AFNE01.JPG,,,,,,,,,,,,,5,9,59,4,,,,,,,,,,,AMSA20.jpg,AMSA11.jpg,AMNE06.jpg,AMNE07.jpg,AMSA20.jpg,MS,2,num_8,32,num_6,1.23328715758,,,2018_Jan_26_1810,60.0125691939,FEMA4ImagesEEG,001,102689,
,,,,,,,,,,,,,,,,,,,,,,,,,,,,,,,,,,,,,,,,,,,space,30.2477566692,2018_Jan_26_1810,60.0125691939,FEMA4ImagesEEG,001,102689,
AFNE01.JPG,AFNE01.JPG,AFNE01.JPG,AFNE01.JPG,AFNE01.JPG,AFNE01.JPG,,,,,,,,,,,,,,,,,0,0,0,4,,,,,,,AFSA07.jpg,AFNE05.jpg,AFNE14.jpg,AFSA11.jpg,AFNE14.jpg,FN,3,num_2,16,num_2,0.900177593343,,,2018_Jan_26_1810,60.0125691939,FEMA4ImagesEEG,001,102689,
AFNE01.JPG,AFNE01.JPG,AFNE01.JPG,AFNE01.JPG,AFNE01.JPG,AFNE01.JPG,,,,,,,,,,,,,,,,,0,1,1,2,,,,,,,AFNE13.jpg,AFSA15.jpg,AFNE18.jpg,AFSA01.jpg,AFNE18.jpg,FN,3,num_2,16,num_2,1.03327317332,,,2018_Jan_26_1810,60.0125691939,FEMA4ImagesEEG,001,102689,
AFNE01.JPG,AFNE01.JPG,AFNE01.JPG,AFNE01.JPG,AFNE01.JPG,AFNE01.JPG,,,,,,,,,,,,,,,,,0,2,2,1,,,,,,,AFSA17.jpg,AFNE05.jpg,AFSA13.jpg,AFNE13.jpg,AFSA13.jpg,FS,4,num_2,32,num_4,0.966738694027,,,2018_Jan_26_1810,60.0125691939,FEMA4ImagesEEG,001,102689,
AFNE01.JPG,AFNE01.JPG,AFNE01.JPG,AFNE01.JPG,AFNE01.JPG,AFNE01.JPG,,,,,,,,,,,,,,,,,0,3,3,6,,,,,,,AFNE01.jpg,AFSA02.jpg,AFNE11.jpg,AFSA11.jpg,AFSA11.jpg,FS,4,num_4,16,num_4,2.18339776451,,,2018_Jan_26_1810,60.0125691939,FEMA4ImagesEEG,001,102689,
AFNE01.JPG,AFNE01.JPG,AFNE01.JPG,AFNE01.JPG,AFNE01.JPG,AFNE01.JPG,,,,,,,,,,,,,,,,,0,4,4,7,,,,,,,AFNE05.jpg,AFNE13.jpg,AFSA03.jpg,AFSA10.jpg,AFSA03.jpg,FS,4,num_2,32,num_6,0.800153120945,,,2018_Jan_26_1810,60.0125691939,FEMA4ImagesEEG,001,102689,
AFNE01.JPG,AFNE01.JPG,AFNE01.JPG,AFNE01.JPG,AFNE01.JPG,AFNE01.JPG,,,,,,,,,,,,,,,,,0,5,5,8,,,,,,,AFNE07.jpg,AFSA12.jpg,AFNE20.jpg,AFSA05.jpg,AFNE07.jpg,FN,3,num_8,32,num_6,0.749964478135,,,2018_Jan_26_1810,60.0125691939,FEMA4ImagesEEG,001,102689,
AFNE01.JPG,AFNE01.JPG,AFNE01.JPG,AFNE01.JPG,AFNE01.JPG,AFNE01.JPG,,,,,,,,,,,,,,,,,0,6,6,3,,,,,,,AFSA11.jpg,AFNE17.jpg,AFSA10.jpg,AFNE03.jpg,AFNE17.jpg,FN,3,num_6,32,num_8,1.30008175646,,,2018_Jan_26_1810,60.0125691939,FEMA4ImagesEEG,001,102689,
AFNE01.JPG,AFNE01.JPG,AFNE01.JPG,AFNE01.JPG,AFNE01.JPG,AFNE01.JPG,,,,,,,,,,,,,,,,,0,7,7,9,,,,,,,AFSA12.jpg,AFNE20.jpg,AFNE05.jpg,AFSA10.jpg,AFSA12.jpg,FS,4,num_8,32,num_4,1.56676076088,,,2018_Jan_26_1810,60.0125691939,FEMA4ImagesEEG,001,102689,
AFNE01.JPG,AFNE01.JPG,AFNE01.JPG,AFNE01.JPG,AFNE01.JPG,AFNE01.JPG,,,,,,,,,,,,,,,,,0,8,8,0,,,,,,,AFNE03.jpg,AFSA12.jpg,AFSA18.jpg,AFNE10.jpg,AFNE03.jpg,FN,3,num_8,16,num_8,1.73339316191,,,2018_Jan_26_1810,60.0125691939,FEMA4ImagesEEG,001,102689,
AFNE01.JPG,AFNE01.JPG,AFNE01.JPG,AFNE01.JPG,AFNE01.JPG,AFNE01.JPG,,,,,,,,,,,,,,,,,0,9,9,5,,,,,,,AFSA06.jpg,AFSA01.jpg,AFNE20.jpg,AFNE01.jpg,AFSA06.jpg,FS,4,num_8,16,num_8,1.68339471749,,,2018_Jan_26_1810,60.0125691939,FEMA4ImagesEEG,001,102689,
AFNE01.JPG,AFNE01.JPG,AFNE01.JPG,AFNE01.JPG,AFNE01.JPG,AFNE01.JPG,,,,,,,,,,,,,,,,,1,0,10,8,,,,,,,AFNE06.jpg,AFNE05.jpg,AFSA06.jpg,AFSA11.jpg,AFSA06.jpg,FS,4,num_2,32,num_4,1.01674611913,,,2018_Jan_26_1810,60.0125691939,FEMA4ImagesEEG,001,102689,
AFNE01.JPG,AFNE01.JPG,AFNE01.JPG,AFNE01.JPG,AFNE01.JPG,AFNE01.JPG,,,,,,,,,,,,,,,,,1,1,11,1,,,,,,,AFSA16.jpg,AFNE06.jpg,AFNE18.jpg,AFSA09.jpg,AFNE18.jpg,FN,3,num_2,32,num_6,1.01677113678,,,2018_Jan_26_1810,60.0125691939,FEMA4ImagesEEG,001,102689,
AFNE01.JPG,AFNE01.JPG,AFNE01.JPG,AFNE01.JPG,AFNE01.JPG,AFNE01.JPG,,,,,,,,,,,,,,,,,1,2,12,9,,,,,,,AFNE20.jpg,AFSA01.jpg,AFNE16.jpg,AFSA02.jpg,AFNE16.jpg,FN,3,num_2,32,num_4,0.800132914388,,,2018_Jan_26_1810,60.0125691939,FEMA4ImagesEEG,001,102689,
AFNE01.JPG,AFNE01.JPG,AFNE01.JPG,AFNE01.JPG,AFNE01.JPG,AFNE01.JPG,,,,,,,,,,,,,,,,,1,3,13,3,,,,,,,AFSA17.jpg,AFSA13.jpg,AFNE02.jpg,AFNE06.jpg,AFNE06.jpg,FN,3,num_4,32,num_6,0.800166912726,,,2018_Jan_26_1810,60.0125691939,FEMA4ImagesEEG,001,102689,
AFNE01.JPG,AFNE01.JPG,AFNE01.JPG,AFNE01.JPG,AFNE01.JPG,AFNE01.JPG,,,,,,,,,,,,,,,,,1,4,14,6,,,,,,,AFSA18.jpg,AFNE13.jpg,AFSA09.jpg,AFNE10.jpg,AFNE10.jpg,FN,3,num_4,32,num_8,0.950129530567,,,2018_Jan_26_1810,60.0125691939,FEMA4ImagesEEG,001,102689,
AFNE01.JPG,AFNE01.JPG,AFNE01.JPG,AFNE01.JPG,AFNE01.JPG,AFNE01.JPG,,,,,,,,,,,,,,,,,1,5,15,2,,,,,,,AFSA16.jpg,AFNE09.jpg,AFSA03.jpg,AFNE03.jpg,AFSA16.jpg,FS,4,num_8,32,num_4,1.41645014091,,,2018_Jan_26_1810,60.0125691939,FEMA4ImagesEEG,001,102689,
AFNE01.JPG,AFNE01.JPG,AFNE01.JPG,AFNE01.JPG,AFNE01.JPG,AFNE01.JPG,,,,,,,,,,,,,,,,,1,6,16,0,,,,,,,AFNE01.jpg,AFSA09.jpg,AFNE08.jpg,AFSA17.jpg,AFSA09.jpg,FS,4,num_6,32,num_8,1.5000681571,,,2018_Jan_26_1810,60.0125691939,FEMA4ImagesEEG,001,102689,
AFNE01.JPG,AFNE01.JPG,AFNE01.JPG,AFNE01.JPG,AFNE01.JPG,AFNE01.JPG,,,,,,,,,,,,,,,,,1,7,17,7,,,,,,,AFSA07.jpg,AFNE17.jpg,AFNE18.jpg,AFSA17.jpg,AFNE17.jpg,FN,3,num_6,16,num_6,0.983471342101,,,2018_Jan_26_1810,60.0125691939,FEMA4ImagesEEG,001,102689,
AFNE01.JPG,AFNE01.JPG,AFNE01.JPG,AFNE01.JPG,AFNE01.JPG,AFNE01.JPG,,,,,,,,,,,,,,,,,1,8,18,5,,,,,,,AFSA12.jpg,AFSA19.jpg,AFNE06.jpg,AFNE05.jpg,AFNE06.jpg,FN,3,num_2,16,num_2,1.10014603258,,,2018_Jan_26_1810,60.0125691939,FEMA4ImagesEEG,001,102689,
AFNE01.JPG,AFNE01.JPG,AFNE01.JPG,AFNE01.JPG,AFNE01.JPG,AFNE01.JPG,,,,,,,,,,,,,,,,,1,9,19,4,,,,,,,AFNE15.jpg,AFNE14.jpg,AFSA18.jpg,AFSA07.jpg,AFSA07.jpg,FS,4,num_4,32,num_6,1.13344165767,,,2018_Jan_26_1810,60.0125691939,FEMA4ImagesEEG,001,102689,
AFNE01.JPG,AFNE01.JPG,AFNE01.JPG,AFNE01.JPG,AFNE01.JPG,AFNE01.JPG,,,,,,,,,,,,,,,,,2,0,20,9,,,,,,,AFNE07.jpg,AFSA06.jpg,AFNE11.jpg,AFSA10.jpg,AFNE11.jpg,FN,3,num_2,16,num_2,1.41675035289,,,2018_Jan_26_1810,60.0125691939,FEMA4ImagesEEG,001,102689,
AFNE01.JPG,AFNE01.JPG,AFNE01.JPG,AFNE01.JPG,AFNE01.JPG,AFNE01.JPG,,,,,,,,,,,,,,,,,2,1,21,0,,,,,,,AFNE12.jpg,AFSA11.jpg,AFSA09.jpg,AFNE10.jpg,AFNE10.jpg,FN,3,num_4,16,num_4,0.866807877464,,,2018_Jan_26_1810,60.0125691939,FEMA4ImagesEEG,001,102689,
AFNE01.JPG,AFNE01.JPG,AFNE01.JPG,AFNE01.JPG,AFNE01.JPG,AFNE01.JPG,,,,,,,,,,,,,,,,,2,2,22,2,,,,,,,AFSA19.jpg,AFNE06.jpg,AFSA05.jpg,AFNE03.jpg,AFNE03.jpg,FN,3,num_4,16,num_4,1.48341152424,,,2018_Jan_26_1810,60.0125691939,FEMA4ImagesEEG,001,102689,
AFNE01.JPG,AFNE01.JPG,AFNE01.JPG,AFNE01.JPG,AFNE01.JPG,AFNE01.JPG,,,,,,,,,,,,,,,,,2,3,23,6,,,,,,,AFNE10.jpg,AFNE04.jpg,AFSA15.jpg,AFSA10.jpg,AFNE04.jpg,FN,3,num_6,16,num_6,0.733509269514,,,2018_Jan_26_1810,60.0125691939,FEMA4ImagesEEG,001,102689,
AFNE01.JPG,AFNE01.JPG,AFNE01.JPG,AFNE01.JPG,AFNE01.JPG,AFNE01.JPG,,,,,,,,,,,,,,,,,2,4,24,5,,,,,,,AFNE01.jpg,AFNE09.jpg,AFSA20.jpg,AFSA18.jpg,AFNE01.jpg,FN,3,num_8,32,num_6,0.633468760148,,,2018_Jan_26_1810,60.0125691939,FEMA4ImagesEEG,001,102689,
AFNE01.JPG,AFNE01.JPG,AFNE01.JPG,AFNE01.JPG,AFNE01.JPG,AFNE01.JPG,,,,,,,,,,,,,,,,,2,5,25,7,,,,,,,AFSA18.jpg,AFNE10.jpg,AFSA02.jpg,AFNE20.jpg,AFNE20.jpg,FN,3,num_4,16,num_4,1.40008730526,,,2018_Jan_26_1810,60.0125691939,FEMA4ImagesEEG,001,102689,
AFNE01.JPG,AFNE01.JPG,AFNE01.JPG,AFNE01.JPG,AFNE01.JPG,AFNE01.JPG,,,,,,,,,,,,,,,,,2,6,26,4,,,,,,,AFSA17.jpg,AFSA14.jpg,AFNE17.jpg,AFNE11.jpg,AFSA14.jpg,FS,4,num_6,32,num_2,1.36672047604,,,2018_Jan_26_1810,60.0125691939,FEMA4ImagesEEG,001,102689,
AFNE01.JPG,AFNE01.JPG,AFNE01.JPG,AFNE01.JPG,AFNE01.JPG,AFNE01.JPG,,,,,,,,,,,,,,,,,2,7,27,1,,,,,,,AFNE12.jpg,AFSA17.jpg,AFSA07.jpg,AFNE10.jpg,AFSA17.jpg,FS,4,num_6,32,num_8,0.883525130077,,,2018_Jan_26_1810,60.0125691939,FEMA4ImagesEEG,001,102689,
AFNE01.JPG,AFNE01.JPG,AFNE01.JPG,AFNE01.JPG,AFNE01.JPG,AFNE01.JPG,,,,,,,,,,,,,,,,,2,8,28,3,,,,,,,AFSA14.jpg,AFNE10.jpg,AFSA19.jpg,AFNE07.jpg,AFSA19.jpg,FS,4,num_2,32,num_4,0.916754041391,,,2018_Jan_26_1810,60.0125691939,FEMA4ImagesEEG,001,102689,
AFNE01.JPG,AFNE01.JPG,AFNE01.JPG,AFNE01.JPG,AFNE01.JPG,AFNE01.JPG,,,,,,,,,,,,,,,,,2,9,29,8,,,,,,,AFNE19.jpg,AFSA01.jpg,AFNE11.jpg,AFSA06.jpg,AFNE19.jpg,FN,3,num_8,32,num_6,0.850141301722,,,2018_Jan_26_1810,60.0125691939,FEMA4ImagesEEG,001,102689,
AFNE01.JPG,AFNE01.JPG,AFNE01.JPG,AFNE01.JPG,AFNE01.JPG,AFNE01.JPG,,,,,,,,,,,,,,,,,3,0,30,4,,,,,,,AFNE10.jpg,AFSA20.jpg,AFSA02.jpg,AFNE01.jpg,AFSA20.jpg,FS,4,num_6,32,num_2,0.916754041391,,,2018_Jan_26_1810,60.0125691939,FEMA4ImagesEEG,001,102689,
AFNE01.JPG,AFNE01.JPG,AFNE01.JPG,AFNE01.JPG,AFNE01.JPG,AFNE01.JPG,,,,,,,,,,,,,,,,,3,1,31,9,,,,,,,AFSA03.jpg,AFNE17.jpg,AFNE08.jpg,AFSA05.jpg,AFSA03.jpg,FS,4,num_8,32,num_6,0.766815479001,,,2018_Jan_26_1810,60.0125691939,FEMA4ImagesEEG,001,102689,
AFNE01.JPG,AFNE01.JPG,AFNE01.JPG,AFNE01.JPG,AFNE01.JPG,AFNE01.JPG,,,,,,,,,,,,,,,,,3,2,32,2,,,,,,,AFNE17.jpg,AFSA09.jpg,AFNE11.jpg,AFSA14.jpg,AFSA14.jpg,FS,4,num_4,16,num_4,0.966769164253,,,2018_Jan_26_1810,60.0125691939,FEMA4ImagesEEG,001,102689,
AFNE01.JPG,AFNE01.JPG,AFNE01.JPG,AFNE01.JPG,AFNE01.JPG,AFNE01.JPG,,,,,,,,,,,,,,,,,3,3,33,7,,,,,,,AFSA10.jpg,AFNE11.jpg,AFSA01.jpg,AFNE06.jpg,AFSA10.jpg,FS,4,num_8,32,num_4,1.23348280854,,,2018_Jan_26_1810,60.0125691939,FEMA4ImagesEEG,001,102689,
AFNE01.JPG,AFNE01.JPG,AFNE01.JPG,AFNE01.JPG,AFNE01.JPG,AFNE01.JPG,,,,,,,,,,,,,,,,,3,4,34,5,,,,,,,AFSA19.jpg,AFSA09.jpg,AFNE04.jpg,AFNE05.jpg,AFNE05.jpg,FN,3,num_4,32,num_8,0.833463179268,,,2018_Jan_26_1810,60.0125691939,FEMA4ImagesEEG,001,102689,
AFNE01.JPG,AFNE01.JPG,AFNE01.JPG,AFNE01.JPG,AFNE01.JPG,AFNE01.JPG,,,,,,,,,,,,,,,,,3,5,35,0,,,,,,,AFSA04.jpg,AFNE05.jpg,AFSA01.jpg,AFNE13.jpg,AFNE13.jpg,FN,3,num_4,16,num_4,1.33343254868,,,2018_Jan_26_1810,60.0125691939,FEMA4ImagesEEG,001,102689,
AFNE01.JPG,AFNE01.JPG,AFNE01.JPG,AFNE01.JPG,AFNE01.JPG,AFNE01.JPG,,,,,,,,,,,,,,,,,3,6,36,1,,,,,,,AFSA13.jpg,AFNE02.jpg,AFNE19.jpg,AFSA20.jpg,AFNE19.jpg,FN,3,num_2,32,num_4,1.25012051777,,,2018_Jan_26_1810,60.0125691939,FEMA4ImagesEEG,001,102689,
AFNE01.JPG,AFNE01.JPG,AFNE01.JPG,AFNE01.JPG,AFNE01.JPG,AFNE01.JPG,,,,,,,,,,,,,,,,,3,7,37,8,,,,,,,AFSA14.jpg,AFSA16.jpg,AFNE16.jpg,AFNE14.jpg,AFNE14.jpg,FN,3,num_4,32,num_2,1.75008283093,,,2018_Jan_26_1810,60.0125691939,FEMA4ImagesEEG,001,102689,
AFNE01.JPG,AFNE01.JPG,AFNE01.JPG,AFNE01.JPG,AFNE01.JPG,AFNE01.JPG,,,,,,,,,,,,,,,,,3,8,38,6,,,,,,,AFNE11.jpg,AFSA17.jpg,AFSA19.jpg,AFNE02.jpg,AFNE11.jpg,FN,3,num_8,32,num_6,0.95013402091,,,2018_Jan_26_1810,60.0125691939,FEMA4ImagesEEG,001,102689,
AFNE01.JPG,AFNE01.JPG,AFNE01.JPG,AFNE01.JPG,AFNE01.JPG,AFNE01.JPG,,,,,,,,,,,,,,,,,3,9,39,3,,,,,,,AFSA11.jpg,AFNE04.jpg,AFSA08.jpg,AFNE03.jpg,AFSA08.jpg,FS,4,num_2,32,num_8,1.11707401089,,,2018_Jan_26_1810,60.0125691939,FEMA4ImagesEEG,001,102689,
AFNE01.JPG,AFNE01.JPG,AFNE01.JPG,AFNE01.JPG,AFNE01.JPG,AFNE01.JPG,,,,,,,,,,,,,,,,,4,0,40,0,,,,,,,AFNE18.jpg,AFSA16.jpg,AFSA14.jpg,AFNE20.jpg,AFNE20.jpg,FN,3,num_4,16,num_4,1.13347084494,,,2018_Jan_26_1810,60.0125691939,FEMA4ImagesEEG,001,102689,
AFNE01.JPG,AFNE01.JPG,AFNE01.JPG,AFNE01.JPG,AFNE01.JPG,AFNE01.JPG,,,,,,,,,,,,,,,,,4,1,41,9,,,,,,,AFNE06.jpg,AFSA17.jpg,AFSA20.jpg,AFNE08.jpg,AFNE06.jpg,FN,3,num_8,16,num_8,0.850095115253,,,2018_Jan_26_1810,60.0125691939,FEMA4ImagesEEG,001,102689,
AFNE01.JPG,AFNE01.JPG,AFNE01.JPG,AFNE01.JPG,AFNE01.JPG,AFNE01.JPG,,,,,,,,,,,,,,,,,4,2,42,3,,,,,,,AFNE19.jpg,AFSA19.jpg,AFNE18.jpg,AFSA02.jpg,AFNE18.jpg,FN,3,num_2,32,num_4,0.750044983695,,,2018_Jan_26_1810,60.0125691939,FEMA4ImagesEEG,001,102689,
AFNE01.JPG,AFNE01.JPG,AFNE01.JPG,AFNE01.JPG,AFNE01.JPG,AFNE01.JPG,,,,,,,,,,,,,,,,,4,3,43,8,,,,,,,AFNE18.jpg,AFNE08.jpg,AFSA02.jpg,AFSA01.jpg,AFSA01.jpg,FS,4,num_4,32,num_6,0.83350455467,,,2018_Jan_26_1810,60.0125691939,FEMA4ImagesEEG,001,102689,
AFNE01.JPG,AFNE01.JPG,AFNE01.JPG,AFNE01.JPG,AFNE01.JPG,AFNE01.JPG,,,,,,,,,,,,,,,,,4,4,44,1,,,,,,,AFSA14.jpg,AFNE02.jpg,AFSA15.jpg,AFNE13.jpg,AFSA15.jpg,FS,4,num_2,32,num_8,1.01676183537,,,2018_Jan_26_1810,60.0125691939,FEMA4ImagesEEG,001,102689,
AFNE01.JPG,AFNE01.JPG,AFNE01.JPG,AFNE01.JPG,AFNE01.JPG,AFNE01.JPG,,,,,,,,,,,,,,,,,4,5,45,4,,,,,,,AFSA03.jpg,AFNE06.jpg,AFSA13.jpg,AFNE20.jpg,AFNE20.jpg,FN,3,num_4,16,num_4,1.05012545717,,,2018_Jan_26_1810,60.0125691939,FEMA4ImagesEEG,001,102689,
AFNE01.JPG,AFNE01.JPG,AFNE01.JPG,AFNE01.JPG,AFNE01.JPG,AFNE01.JPG,,,,,,,,,,,,,,,,,4,6,46,5,,,,,,,AFNE17.jpg,AFNE04.jpg,AFSA16.jpg,AFSA10.jpg,AFSA10.jpg,FS,4,num_4,16,num_4,0.86680242492,,,2018_Jan_26_1810,60.0125691939,FEMA4ImagesEEG,001,102689,
AFNE01.JPG,AFNE01.JPG,AFNE01.JPG,AFNE01.JPG,AFNE01.JPG,AFNE01.JPG,,,,,,,,,,,,,,,,,4,7,47,2,,,,,,,AFNE15.jpg,AFSA20.jpg,AFNE17.jpg,AFSA04.jpg,AFNE17.jpg,FN,3,num_2,32,num_6,0.950135624589,,,2018_Jan_26_1810,60.0125691939,FEMA4ImagesEEG,001,102689,
AFNE01.JPG,AFNE01.JPG,AFNE01.JPG,AFNE01.JPG,AFNE01.JPG,AFNE01.JPG,,,,,,,,,,,,,,,,,4,8,48,7,,,,,,,AFSA17.jpg,AFNE11.jpg,AFSA13.jpg,AFNE19.jpg,AFSA17.jpg,FS,4,num_8,16,num_8,1.28348253589,,,2018_Jan_26_1810,60.0125691939,FEMA4ImagesEEG,001,102689,
AFNE01.JPG,AFNE01.JPG,AFNE01.JPG,AFNE01.JPG,AFNE01.JPG,AFNE01.JPG,,,,,,,,,,,,,,,,,4,9,49,6,,,,,,,AFNE09.jpg,AFSA04.jpg,AFSA08.jpg,AFNE07.jpg,AFNE07.jpg,FN,3,num_4,16,num_4,0.816807829367,,,2018_Jan_26_1810,60.0125691939,FEMA4ImagesEEG,001,102689,
AFNE01.JPG,AFNE01.JPG,AFNE01.JPG,AFNE01.JPG,AFNE01.JPG,AFNE01.JPG,,,,,,,,,,,,,,,,,5,0,50,1,,,,,,,AFNE08.jpg,AFNE04.jpg,AFSA03.jpg,AFSA04.jpg,AFSA04.jpg,FS,4,num_4,16,num_4,1.0169058473,,,2018_Jan_26_1810,60.0125691939,FEMA4ImagesEEG,001,102689,
AFNE01.JPG,AFNE01.JPG,AFNE01.JPG,AFNE01.JPG,AFNE01.JPG,AFNE01.JPG,,,,,,,,,,,,,,,,,5,1,51,5,,,,,,,AFSA03.jpg,AFNE16.jpg,AFSA14.jpg,AFNE11.jpg,AFSA03.jpg,FS,4,num_8,16,num_8,1.10013095787,,,2018_Jan_26_1810,60.0125691939,FEMA4ImagesEEG,001,102689,
AFNE01.JPG,AFNE01.JPG,AFNE01.JPG,AFNE01.JPG,AFNE01.JPG,AFNE01.JPG,,,,,,,,,,,,,,,,,5,2,52,3,,,,,,,AFSA04.jpg,AFSA09.jpg,AFNE18.jpg,AFNE11.jpg,AFSA04.jpg,FS,4,num_8,32,num_2,1.70002376678,,,2018_Jan_26_1810,60.0125691939,FEMA4ImagesEEG,001,102689,
AFNE01.JPG,AFNE01.JPG,AFNE01.JPG,AFNE01.JPG,AFNE01.JPG,AFNE01.JPG,,,,,,,,,,,,,,,,,5,3,53,9,,,,,,,AFNE13.jpg,AFNE04.jpg,AFSA20.jpg,AFSA02.jpg,AFNE04.jpg,FN,3,num_6,16,num_6,0.816813602665,,,2018_Jan_26_1810,60.0125691939,FEMA4ImagesEEG,001,102689,
AFNE01.JPG,AFNE01.JPG,AFNE01.JPG,AFNE01.JPG,AFNE01.JPG,AFNE01.JPG,,,,,,,,,,,,,,,,,5,4,54,0,,,,,,,AFSA07.jpg,AFNE09.jpg,AFSA15.jpg,AFNE14.jpg,AFNE09.jpg,FN,3,num_6,32,num_4,0.766776990291,,,2018_Jan_26_1810,60.0125691939,FEMA4ImagesEEG,001,102689,
AFNE01.JPG,AFNE01.JPG,AFNE01.JPG,AFNE01.JPG,AFNE01.JPG,AFNE01.JPG,,,,,,,,,,,,,,,,,5,5,55,4,,,,,,,AFNE15.jpg,AFNE02.jpg,AFSA02.jpg,AFSA13.jpg,AFNE15.jpg,FN,3,num_8,16,num_8,0.850158942369,,,2018_Jan_26_1810,60.0125691939,FEMA4ImagesEEG,001,102689,
AFNE01.JPG,AFNE01.JPG,AFNE01.JPG,AFNE01.JPG,AFNE01.JPG,AFNE01.JPG,,,,,,,,,,,,,,,,,5,6,56,7,,,,,,,AFNE11.jpg,AFNE12.jpg,AFSA06.jpg,AFSA09.jpg,AFSA09.jpg,FS,4,num_4,16,num_4,0.783325854776,,,2018_Jan_26_1810,60.0125691939,FEMA4ImagesEEG,001,102689,
AFNE01.JPG,AFNE01.JPG,AFNE01.JPG,AFNE01.JPG,AFNE01.JPG,AFNE01.JPG,,,,,,,,,,,,,,,,,5,7,57,8,,,,,,,AFSA10.jpg,AFNE12.jpg,AFNE04.jpg,AFSA06.jpg,AFNE04.jpg,FN,3,num_2,32,num_8,2.26653370954,,,2018_Jan_26_1810,60.0125691939,FEMA4ImagesEEG,001,102689,
AFNE01.JPG,AFNE01.JPG,AFNE01.JPG,AFNE01.JPG,AFNE01.JPG,AFNE01.JPG,,,,,,,,,,,,,,,,,5,8,58,2,,,,,,,AFNE15.jpg,AFNE18.jpg,AFSA08.jpg,AFSA04.jpg,AFNE15.jpg,FN,3,num_8,32,num_2,1.11677861001,,,2018_Jan_26_1810,60.0125691939,FEMA4ImagesEEG,001,102689,
AFNE01.JPG,AFNE01.JPG,AFNE01.JPG,AFNE01.JPG,AFNE01.JPG,AFNE01.JPG,,,,,,,,,,,,,,,,,5,9,59,6,,,,,,,AFNE16.jpg,AFNE09.jpg,AFSA09.jpg,AFSA07.jpg,AFNE09.jpg,FN,3,num_6,32,num_8,0.866969209368,,,2018_Jan_26_1810,60.0125691939,FEMA4ImagesEEG,001,102689,
,,,,,,,,,,,,,,,,,,,,,,,,,,,,,,,,,,,,,,,,,,,space,58.0122532031,2018_Jan_26_1810,60.0125691939,FEMA4ImagesEEG,001,102689,
AFNE01.JPG,AFNE01.JPG,AFNE01.JPG,AFNE01.JPG,AFNE01.JPG,AFNE01.JPG,,,,,,,,,,,,,,,,,,,,,0,0,0,0,,,AMSA14.jpg,AMSA19.jpg,AMNE08.jpg,AMNE05.jpg,AMSA19.jpg,MS,2,num_6,32,num_4,0.983425797138,,,2018_Jan_26_1810,60.0125691939,FEMA4ImagesEEG,001,102689,
AFNE01.JPG,AFNE01.JPG,AFNE01.JPG,AFNE01.JPG,AFNE01.JPG,AFNE01.JPG,,,,,,,,,,,,,,,,,,,,,0,1,1,5,,,AMNE16.jpg,AMSA01.jpg,AMSA13.jpg,AMNE17.jpg,AMNE17.jpg,MN,1,num_4,32,num_8,0.800120405533,,,2018_Jan_26_1810,60.0125691939,FEMA4ImagesEEG,001,102689,
AFNE01.JPG,AFNE01.JPG,AFNE01.JPG,AFNE01.JPG,AFNE01.JPG,AFNE01.JPG,,,,,,,,,,,,,,,,,,,,,0,2,2,7,,,AMSA05.jpg,AMNE05.jpg,AMSA11.jpg,AMNE11.jpg,AMNE11.jpg,MN,1,num_4,32,num_2,1.18340417929,,,2018_Jan_26_1810,60.0125691939,FEMA4ImagesEEG,001,102689,
AFNE01.JPG,AFNE01.JPG,AFNE01.JPG,AFNE01.JPG,AFNE01.JPG,AFNE01.JPG,,,,,,,,,,,,,,,,,,,,,0,3,3,8,,,AMSA18.jpg,AMNE06.jpg,AMNE07.jpg,AMSA13.jpg,AMNE06.jpg,MN,1,num_6,16,num_6,0.73342074547,,,2018_Jan_26_1810,60.0125691939,FEMA4ImagesEEG,001,102689,
AFNE01.JPG,AFNE01.JPG,AFNE01.JPG,AFNE01.JPG,AFNE01.JPG,AFNE01.JPG,,,,,,,,,,,,,,,,,,,,,0,4,4,3,,,AMNE01.jpg,AMSA01.jpg,AMNE07.jpg,AMSA06.jpg,AMSA06.jpg,MS,2,num_4,16,num_4,0.783472111885,,,2018_Jan_26_1810,60.0125691939,FEMA4ImagesEEG,001,102689,
AFNE01.JPG,AFNE01.JPG,AFNE01.JPG,AFNE01.JPG,AFNE01.JPG,AFNE01.JPG,,,,,,,,,,,,,,,,,,,,,0,5,5,4,,,AMNE20.jpg,AMSA15.jpg,AMNE04.jpg,AMSA09.jpg,AMNE04.jpg,MN,1,num_2,32,num_8,0.633513022185,,,2018_Jan_26_1810,60.0125691939,FEMA4ImagesEEG,001,102689,
AFNE01.JPG,AFNE01.JPG,AFNE01.JPG,AFNE01.JPG,AFNE01.JPG,AFNE01.JPG,,,,,,,,,,,,,,,,,,,,,0,6,6,6,,,AMNE06.jpg,AMNE11.jpg,AMSA10.jpg,AMSA08.jpg,AMSA08.jpg,MS,2,num_4,16,num_4,1.083473042,,,2018_Jan_26_1810,60.0125691939,FEMA4ImagesEEG,001,102689,
AFNE01.JPG,AFNE01.JPG,AFNE01.JPG,AFNE01.JPG,AFNE01.JPG,AFNE01.JPG,,,,,,,,,,,,,,,,,,,,,0,7,7,1,,,AMSA07.jpg,AMNE14.jpg,AMNE16.jpg,AMSA19.jpg,AMSA07.jpg,MS,2,num_8,32,num_6,0.850135207642,,,2018_Jan_26_1810,60.0125691939,FEMA4ImagesEEG,001,102689,
AFNE01.JPG,AFNE01.JPG,AFNE01.JPG,AFNE01.JPG,AFNE01.JPG,AFNE01.JPG,,,,,,,,,,,,,,,,,,,,,0,8,8,9,,,AMNE06.jpg,AMSA12.jpg,AMSA15.jpg,AMNE09.jpg,AMSA12.jpg,MS,2,num_6,32,num_4,0.950120870606,,,2018_Jan_26_1810,60.0125691939,FEMA4ImagesEEG,001,102689,
AFNE01.JPG,AFNE01.JPG,AFNE01.JPG,AFNE01.JPG,AFNE01.JPG,AFNE01.JPG,,,,,,,,,,,,,,,,,,,,,0,9,9,2,,,AMNE03.jpg,AMSA20.jpg,AMSA08.jpg,AMNE17.jpg,AMSA20.jpg,MS,2,num_6,32,num_4,1.36675094627,,,2018_Jan_26_1810,60.0125691939,FEMA4ImagesEEG,001,102689,
AFNE01.JPG,AFNE01.JPG,AFNE01.JPG,AFNE01.JPG,AFNE01.JPG,AFNE01.JPG,,,,,,,,,,,,,,,,,,,,,1,0,10,7,,,AMNE10.jpg,AMSA01.jpg,AMNE06.jpg,AMSA06.jpg,AMSA06.jpg,MS,2,num_4,32,num_8,1.03341365713,,,2018_Jan_26_1810,60.0125691939,FEMA4ImagesEEG,001,102689,
AFNE01.JPG,AFNE01.JPG,AFNE01.JPG,AFNE01.JPG,AFNE01.JPG,AFNE01.JPG,,,,,,,,,,,,,,,,,,,,,1,1,11,9,,,AMSA01.jpg,AMNE17.jpg,AMSA12.jpg,AMNE20.jpg,AMSA01.jpg,MS,2,num_8,32,num_6,0.733750144718,,,2018_Jan_26_1810,60.0125691939,FEMA4ImagesEEG,001,102689,
AFNE01.JPG,AFNE01.JPG,AFNE01.JPG,AFNE01.JPG,AFNE01.JPG,AFNE01.JPG,,,,,,,,,,,,,,,,,,,,,1,2,12,6,,,AMNE06.jpg,AMSA06.jpg,AMNE08.jpg,AMSA02.jpg,AMSA02.jpg,MS,2,num_4,16,num_4,0.850182356313,,,2018_Jan_26_1810,60.0125691939,FEMA4ImagesEEG,001,102689,
AFNE01.JPG,AFNE01.JPG,AFNE01.JPG,AFNE01.JPG,AFNE01.JPG,AFNE01.JPG,,,,,,,,,,,,,,,,,,,,,1,3,13,3,,,AMNE05.jpg,AMNE06.jpg,AMSA01.jpg,AMSA05.jpg,AMSA05.jpg,MS,2,num_4,32,num_8,1.11660541082,,,2018_Jan_26_1810,60.0125691939,FEMA4ImagesEEG,001,102689,
AFNE01.JPG,AFNE01.JPG,AFNE01.JPG,AFNE01.JPG,AFNE01.JPG,AFNE01.JPG,,,,,,,,,,,,,,,,,,,,,1,4,14,0,,,AMNE05.jpg,AMNE12.jpg,AMSA01.jpg,AMSA08.jpg,AMSA01.jpg,MS,2,num_2,32,num_6,1.11674236649,,,2018_Jan_26_1810,60.0125691939,FEMA4ImagesEEG,001,102689,
AFNE01.JPG,AFNE01.JPG,AFNE01.JPG,AFNE01.JPG,AFNE01.JPG,AFNE01.JPG,,,,,,,,,,,,,,,,,,,,,1,5,15,1,,,AMNE14.jpg,AMNE02.jpg,AMSA02.jpg,AMSA03.jpg,AMSA02.jpg,MS,2,num_2,32,num_8,0.71679971469,,,2018_Jan_26_1810,60.0125691939,FEMA4ImagesEEG,001,102689,
AFNE01.JPG,AFNE01.JPG,AFNE01.JPG,AFNE01.JPG,AFNE01.JPG,AFNE01.JPG,,,,,,,,,,,,,,,,,,,,,1,6,16,4,,,AMNE09.jpg,AMNE20.jpg,AMSA06.jpg,AMSA19.jpg,AMNE09.jpg,MN,1,num_8,16,num_8,1.06682891797,,,2018_Jan_26_1810,60.0125691939,FEMA4ImagesEEG,001,102689,
AFNE01.JPG,AFNE01.JPG,AFNE01.JPG,AFNE01.JPG,AFNE01.JPG,AFNE01.JPG,,,,,,,,,,,,,,,,,,,,,1,7,17,8,,,AMNE07.jpg,AMSA10.jpg,AMNE10.jpg,AMSA06.jpg,AMNE07.jpg,MN,1,num_8,32,num_6,0.900112804025,,,2018_Jan_26_1810,60.0125691939,FEMA4ImagesEEG,001,102689,
AFNE01.JPG,AFNE01.JPG,AFNE01.JPG,AFNE01.JPG,AFNE01.JPG,AFNE01.JPG,,,,,,,,,,,,,,,,,,,,,1,8,18,5,,,AMSA18.jpg,AMNE08.jpg,AMNE18.jpg,AMSA02.jpg,AMSA18.jpg,MS,2,num_8,32,num_4,1.08345508063,,,2018_Jan_26_1810,60.0125691939,FEMA4ImagesEEG,001,102689,
AFNE01.JPG,AFNE01.JPG,AFNE01.JPG,AFNE01.JPG,AFNE01.JPG,AFNE01.JPG,,,,,,,,,,,,,,,,,,,,,1,9,19,2,,,AMNE01.jpg,AMSA20.jpg,AMSA16.jpg,AMNE12.jpg,AMNE01.jpg,MN,1,num_8,32,num_6,0.883226521808,,,2018_Jan_26_1810,60.0125691939,FEMA4ImagesEEG,001,102689,
AFNE01.JPG,AFNE01.JPG,AFNE01.JPG,AFNE01.JPG,AFNE01.JPG,AFNE01.JPG,,,,,,,,,,,,,,,,,,,,,2,0,20,6,,,AMSA02.jpg,AMSA09.jpg,AMNE04.jpg,AMNE15.jpg,AMSA02.jpg,MS,2,num_8,32,num_2,0.683448922413,,,2018_Jan_26_1810,60.0125691939,FEMA4ImagesEEG,001,102689,
AFNE01.JPG,AFNE01.JPG,AFNE01.JPG,AFNE01.JPG,AFNE01.JPG,AFNE01.JPG,,,,,,,,,,,,,,,,,,,,,2,1,21,5,,,AMNE01.jpg,AMSA03.jpg,AMNE08.jpg,AMSA17.jpg,AMNE08.jpg,MN,1,num_2,32,num_6,0.933516518213,,,2018_Jan_26_1810,60.0125691939,FEMA4ImagesEEG,001,102689,
AFNE01.JPG,AFNE01.JPG,AFNE01.JPG,AFNE01.JPG,AFNE01.JPG,AFNE01.JPG,,,,,,,,,,,,,,,,,,,,,2,2,22,4,,,AMSA08.jpg,AMNE19.jpg,AMSA15.jpg,AMNE13.jpg,AMSA08.jpg,MS,2,num_8,32,num_2,1.0834351948,,,2018_Jan_26_1810,60.0125691939,FEMA4ImagesEEG,001,102689,
AFNE01.JPG,AFNE01.JPG,AFNE01.JPG,AFNE01.JPG,AFNE01.JPG,AFNE01.JPG,,,,,,,,,,,,,,,,,,,,,2,3,23,1,,,AMSA05.jpg,AMNE20.jpg,AMNE15.jpg,AMSA08.jpg,AMNE20.jpg,MN,1,num_6,16,num_6,1.01678557007,,,2018_Jan_26_1810,60.0125691939,FEMA4ImagesEEG,001,102689,
AFNE01.JPG,AFNE01.JPG,AFNE01.JPG,AFNE01.JPG,AFNE01.JPG,AFNE01.JPG,,,,,,,,,,,,,,,,,,,,,2,4,24,2,,,AMNE08.jpg,AMSA11.jpg,AMNE12.jpg,AMSA18.jpg,AMNE12.jpg,MN,1,num_2,32,num_4,1.18351130621,,,2018_Jan_26_1810,60.0125691939,FEMA4ImagesEEG,001,102689,
AFNE01.JPG,AFNE01.JPG,AFNE01.JPG,AFNE01.JPG,AFNE01.JPG,AFNE01.JPG,,,,,,,,,,,,,,,,,,,,,2,5,25,9,,,AMSA02.jpg,AMNE02.jpg,AMSA03.jpg,AMNE04.jpg,AMNE02.jpg,MN,1,num_6,32,num_4,0.966794181906,,,2018_Jan_26_1810,60.0125691939,FEMA4ImagesEEG,001,102689,
AFNE01.JPG,AFNE01.JPG,AFNE01.JPG,AFNE01.JPG,AFNE01.JPG,AFNE01.JPG,,,,,,,,,,,,,,,,,,,,,2,6,26,3,,,AMNE09.jpg,AMSA15.jpg,AMNE14.jpg,AMSA13.jpg,AMNE09.jpg,MN,1,num_8,32,num_6,1.65004392527,,,2018_Jan_26_1810,60.0125691939,FEMA4ImagesEEG,001,102689,
AFNE01.JPG,AFNE01.JPG,AFNE01.JPG,AFNE01.JPG,AFNE01.JPG,AFNE01.JPG,,,,,,,,,,,,,,,,,,,,,2,7,27,8,,,AMSA11.jpg,AMNE20.jpg,AMSA10.jpg,AMNE19.jpg,AMSA10.jpg,MS,2,num_2,32,num_8,0.650130845606,,,2018_Jan_26_1810,60.0125691939,FEMA4ImagesEEG,001,102689,
AFNE01.JPG,AFNE01.JPG,AFNE01.JPG,AFNE01.JPG,AFNE01.JPG,AFNE01.JPG,,,,,,,,,,,,,,,,,,,,,2,8,28,7,,,AMNE09.jpg,AMSA02.jpg,AMSA20.jpg,AMNE06.jpg,AMNE09.jpg,MN,1,num_8,32,num_4,0.833477291802,,,2018_Jan_26_1810,60.0125691939,FEMA4ImagesEEG,001,102689,
AFNE01.JPG,AFNE01.JPG,AFNE01.JPG,AFNE01.JPG,AFNE01.JPG,AFNE01.JPG,,,,,,,,,,,,,,,,,,,,,2,9,29,0,,,AMNE07.jpg,AMNE14.jpg,AMSA16.jpg,AMSA07.jpg,AMNE14.jpg,MN,1,num_6,16,num_6,0.833483706607,,,2018_Jan_26_1810,60.0125691939,FEMA4ImagesEEG,001,102689,
AFNE01.JPG,AFNE01.JPG,AFNE01.JPG,AFNE01.JPG,AFNE01.JPG,AFNE01.JPG,,,,,,,,,,,,,,,,,,,,,3,0,30,2,,,AMSA07.jpg,AMNE05.jpg,AMSA08.jpg,AMNE06.jpg,AMNE05.jpg,MN,1,num_6,32,num_8,0.78320974714,,,2018_Jan_26_1810,60.0125691939,FEMA4ImagesEEG,001,102689,
AFNE01.JPG,AFNE01.JPG,AFNE01.JPG,AFNE01.JPG,AFNE01.JPG,AFNE01.JPG,,,,,,,,,,,,,,,,,,,,,3,1,31,4,,,AMSA16.jpg,AMNE14.jpg,AMNE03.jpg,AMSA18.jpg,AMNE03.jpg,MN,1,num_2,32,num_4,0.916812415933,,,2018_Jan_26_1810,60.0125691939,FEMA4ImagesEEG,001,102689,
AFNE01.JPG,AFNE01.JPG,AFNE01.JPG,AFNE01.JPG,AFNE01.JPG,AFNE01.JPG,,,,,,,,,,,,,,,,,,,,,3,2,32,1,,,AMSA07.jpg,AMNE06.jpg,AMNE04.jpg,AMSA09.jpg,AMSA07.jpg,MS,2,num_8,16,num_8,0.666808647278,,,2018_Jan_26_1810,60.0125691939,FEMA4ImagesEEG,001,102689,
AFNE01.JPG,AFNE01.JPG,AFNE01.JPG,AFNE01.JPG,AFNE01.JPG,AFNE01.JPG,,,,,,,,,,,,,,,,,,,,,3,3,33,6,,,AMSA08.jpg,AMSA20.jpg,AMNE17.jpg,AMNE16.jpg,AMNE16.jpg,MN,1,num_4,32,num_6,1.05011968384,,,2018_Jan_26_1810,60.0125691939,FEMA4ImagesEEG,001,102689,
AFNE01.JPG,AFNE01.JPG,AFNE01.JPG,AFNE01.JPG,AFNE01.JPG,AFNE01.JPG,,,,,,,,,,,,,,,,,,,,,3,4,34,0,,,AMSA19.jpg,AMNE13.jpg,AMSA13.jpg,AMNE15.jpg,AMSA19.jpg,MS,2,num_8,32,num_2,1.06674648798,,,2018_Jan_26_1810,60.0125691939,FEMA4ImagesEEG,001,102689,
AFNE01.JPG,AFNE01.JPG,AFNE01.JPG,AFNE01.JPG,AFNE01.JPG,AFNE01.JPG,,,,,,,,,,,,,,,,,,,,,3,5,35,3,,,AMSA10.jpg,AMNE17.jpg,AMNE03.jpg,AMSA17.jpg,AMNE17.jpg,MN,1,num_6,16,num_6,0.816744643729,,,2018_Jan_26_1810,60.0125691939,FEMA4ImagesEEG,001,102689,
AFNE01.JPG,AFNE01.JPG,AFNE01.JPG,AFNE01.JPG,AFNE01.JPG,AFNE01.JPG,,,,,,,,,,,,,,,,,,,,,3,6,36,5,,,AMSA18.jpg,AMSA05.jpg,AMNE15.jpg,AMNE13.jpg,AMSA05.jpg,MS,2,num_6,32,num_4,1.0334466933,,,2018_Jan_26_1810,60.0125691939,FEMA4ImagesEEG,001,102689,
AFNE01.JPG,AFNE01.JPG,AFNE01.JPG,AFNE01.JPG,AFNE01.JPG,AFNE01.JPG,,,,,,,,,,,,,,,,,,,,,3,7,37,9,,,AMNE12.jpg,AMSA08.jpg,AMSA15.jpg,AMNE03.jpg,AMNE03.jpg,MN,1,num_4,32,num_8,1.13358470739,,,2018_Jan_26_1810,60.0125691939,FEMA4ImagesEEG,001,102689,
AFNE01.JPG,AFNE01.JPG,AFNE01.JPG,AFNE01.JPG,AFNE01.JPG,AFNE01.JPG,,,,,,,,,,,,,,,,,,,,,3,8,38,8,,,AMSA09.jpg,AMSA06.jpg,AMNE18.jpg,AMNE08.jpg,AMSA06.jpg,MS,2,num_6,32,num_8,0.900152254937,,,2018_Jan_26_1810,60.0125691939,FEMA4ImagesEEG,001,102689,
AFNE01.JPG,AFNE01.JPG,AFNE01.JPG,AFNE01.JPG,AFNE01.JPG,AFNE01.JPG,,,,,,,,,,,,,,,,,,,,,3,9,39,7,,,AMSA09.jpg,AMNE11.jpg,AMSA07.jpg,AMNE02.jpg,AMSA09.jpg,MS,2,num_8,32,num_6,1.86672929637,,,2018_Jan_26_1810,60.0125691939,FEMA4ImagesEEG,001,102689,
