IPosition2,IPosition3,IPosition1,IPosition6,IPosition4,IPosition5,TrialsM1.thisRepN,TrialsM1.thisTrialN,TrialsM1.thisN,TrialsM1.thisIndex,TrialsF1.thisRepN,TrialsF1.thisTrialN,TrialsF1.thisN,TrialsF1.thisIndex,TrialsM2.thisRepN,TrialsM2.thisTrialN,TrialsM2.thisN,TrialsM2.thisIndex,TrialsF2.thisRepN,TrialsF2.thisTrialN,TrialsF2.thisN,TrialsF2.thisIndex,TrialsM3.thisRepN,TrialsM3.thisTrialN,TrialsM3.thisN,TrialsM3.thisIndex,TrialsF3.thisRepN,TrialsF3.thisTrialN,TrialsF3.thisN,TrialsF3.thisIndex,InstrKey_resp.keys,InstrKey_resp.rt,Image0 _Position,Image1 _Position,Image2 _Position,Image3 _Position,Center_image,condition,code,correct_answer,accuracy,Key_Resp.keys,Key_Resp.rt,BreakKey_resp.keys,BreakKey_resp.rt,date,frameRate,expName,session,participant,
,,,,,,,,,,,,,,,,,,,,,,,,,,,,,,space,17.3991619724,,,,,,,,,,,,,,2018_Jan_24_1827,60.0004426236,MAFE4ImagesEEG,001,102608,
AFNE23.JPG,AFNE24.JPG,AFNE22.JPG,AFSA24.JPG,AFSA22.JPG,AFSA23.JPG,0,0,0,8,,,,,,,,,,,,,,,,,,,,,,,AMNE07.jpg,AMNE06.jpg,AMSA06.jpg,AMSA05.jpg,AMNE06.jpg,MN,1,num_6,32,num_8,2.54999571813,,,2018_Jan_24_1827,60.0004426236,MAFE4ImagesEEG,001,102608,
AFSA25.JPG,AFNE24.JPG,AFSA24.JPG,AFNE21.JPG,AFSA21.JPG,AFNE25.JPG,0,1,1,2,,,,,,,,,,,,,,,,,,,,,,,AMSA02.jpg,AMNE08.jpg,AMSA15.jpg,AMNE06.jpg,AMSA02.jpg,MS,2,num_8,16,num_8,4.21652275629,,,2018_Jan_24_1827,60.0004426236,MAFE4ImagesEEG,001,102608,
AMSA21.JPG,AMNE23.JPG,AMNE21.JPG,AMSA25.JPG,AMNE25.JPG,AMSA23.JPG,0,2,2,5,,,,,,,,,,,,,,,,,,,,,,,AMNE12.jpg,AMSA19.jpg,AMNE13.jpg,AMSA14.jpg,AMNE12.jpg,MN,1,num_8,32,num_2,1.99990955152,,,2018_Jan_24_1827,60.0004426236,MAFE4ImagesEEG,001,102608,
AFSA21.JPG,AFNE23.JPG,AFNE21.JPG,AFSA25.JPG,AFNE25.JPG,AFSA23.JPG,0,3,3,4,,,,,,,,,,,,,,,,,,,,,,,AMNE18.jpg,AMSA19.jpg,AMNE03.jpg,AMSA18.jpg,AMSA18.jpg,MS,2,num_4,32,num_8,1.50016598258,,,2018_Jan_24_1827,60.0004426236,MAFE4ImagesEEG,001,102608,
AFNE22.JPG,AFSA24.JPG,AFSA22.JPG,AFNE25.JPG,AFNE24.JPG,AFSA25.JPG,0,4,4,6,,,,,,,,,,,,,,,,,,,,,,,AMSA01.jpg,AMSA14.jpg,AMNE05.jpg,AMNE15.jpg,AMNE05.jpg,MN,1,num_2,32,num_8,1.18344106431,,,2018_Jan_24_1827,60.0004426236,MAFE4ImagesEEG,001,102608,
AMSA25.JPG,AMNE24.JPG,AMSA24.JPG,AMNE26.JPG,AMSA21.JPG,AMNE25.JPG,0,5,5,3,,,,,,,,,,,,,,,,,,,,,,,AMSA03.jpg,AMSA11.jpg,AMNE17.jpg,AMNE08.jpg,AMNE08.jpg,MN,1,num_4,16,num_4,2.216643675,,,2018_Jan_24_1827,60.0004426236,MAFE4ImagesEEG,001,102608,
AFSA21.JPG,AFNE22.JPG,AFNE21.JPG,AFSA23.JPG,AFSA22.JPG,AFNE23.JPG,0,6,6,0,,,,,,,,,,,,,,,,,,,,,,,AMSA07.jpg,AMNE08.jpg,AMNE09.jpg,AMSA10.jpg,AMNE08.jpg,MN,1,num_6,32,num_8,1.70007283989,,,2018_Jan_24_1827,60.0004426236,MAFE4ImagesEEG,001,102608,
AMSA21.JPG,AMNE22.JPG,AMNE21.JPG,AMSA23.JPG,AMSA22.JPG,AMNE23.JPG,0,7,7,1,,,,,,,,,,,,,,,,,,,,,,,AMNE09.jpg,AMNE16.jpg,AMSA15.jpg,AMSA16.jpg,AMSA15.jpg,MS,2,num_2,16,num_2,1.1167179903,,,2018_Jan_24_1827,60.0004426236,MAFE4ImagesEEG,001,102608,
AMNE23.JPG,AMNE24.JPG,AMNE22.JPG,AMSA24.JPG,AMSA22.JPG,AMSA23.JPG,0,8,8,9,,,,,,,,,,,,,,,,,,,,,,,AMNE18.jpg,AMSA13.jpg,AMSA16.jpg,AMNE15.jpg,AMSA13.jpg,MS,2,num_6,32,num_2,0.833432388317,,,2018_Jan_24_1827,60.0004426236,MAFE4ImagesEEG,001,102608,
AMNE22.JPG,AMSA24.JPG,AMSA22.JPG,AMNE25.JPG,AMNE24.JPG,AMSA25.JPG,0,9,9,7,,,,,,,,,,,,,,,,,,,,,,,AMSA04.jpg,AMNE08.jpg,AMNE18.jpg,AMSA06.jpg,AMNE18.jpg,MN,1,num_2,32,num_8,0.983299746586,,,2018_Jan_24_1827,60.0004426236,MAFE4ImagesEEG,001,102608,
AMSA21.JPG,AMNE23.JPG,AMNE21.JPG,AMSA25.JPG,AMNE25.JPG,AMSA23.JPG,,,,,0,0,0,5,,,,,,,,,,,,,,,,,,,AFSA13.jpg,AFNE17.jpg,AFSA02.jpg,AFNE12.jpg,AFNE12.jpg,FN,3,num_4,16,num_4,0.783478526664,,,2018_Jan_24_1827,60.0004426236,MAFE4ImagesEEG,001,102608,
AFNE23.JPG,AFNE24.JPG,AFNE22.JPG,AFSA24.JPG,AFSA22.JPG,AFSA23.JPG,,,,,0,1,1,8,,,,,,,,,,,,,,,,,,,AFNE08.jpg,AFNE11.jpg,AFSA17.jpg,AFSA13.jpg,AFSA17.jpg,FS,4,num_2,32,num_8,0.783476602228,,,2018_Jan_24_1827,60.0004426236,MAFE4ImagesEEG,001,102608,
AFSA25.JPG,AFNE24.JPG,AFSA24.JPG,AFNE21.JPG,AFSA21.JPG,AFNE25.JPG,,,,,0,2,2,2,,,,,,,,,,,,,,,,,,,AFNE07.jpg,AFSA12.jpg,AFNE13.jpg,AFSA09.jpg,AFSA09.jpg,FS,4,num_4,32,num_8,2.36663066902,,,2018_Jan_24_1827,60.0004426236,MAFE4ImagesEEG,001,102608,
AFSA21.JPG,AFNE23.JPG,AFNE21.JPG,AFSA25.JPG,AFNE25.JPG,AFSA23.JPG,,,,,0,3,3,4,,,,,,,,,,,,,,,,,,,AFSA06.jpg,AFNE01.jpg,AFSA14.jpg,AFNE14.jpg,AFSA14.jpg,FS,4,num_2,16,num_2,2.41669967609,,,2018_Jan_24_1827,60.0004426236,MAFE4ImagesEEG,001,102608,
AMNE23.JPG,AMNE24.JPG,AMNE22.JPG,AMSA24.JPG,AMSA22.JPG,AMSA23.JPG,,,,,0,4,4,9,,,,,,,,,,,,,,,,,,,AFSA17.jpg,AFSA14.jpg,AFNE11.jpg,AFNE17.jpg,AFNE17.jpg,FN,3,num_4,32,num_8,1.03346946578,,,2018_Jan_24_1827,60.0004426236,MAFE4ImagesEEG,001,102608,
AFNE22.JPG,AFSA24.JPG,AFSA22.JPG,AFNE25.JPG,AFNE24.JPG,AFSA25.JPG,,,,,0,5,5,6,,,,,,,,,,,,,,,,,,,AFSA03.jpg,AFNE07.jpg,AFNE20.jpg,AFSA13.jpg,AFSA03.jpg,FS,4,num_8,32,num_4,1.9500580057,,,2018_Jan_24_1827,60.0004426236,MAFE4ImagesEEG,001,102608,
AFSA21.JPG,AFNE22.JPG,AFNE21.JPG,AFSA23.JPG,AFSA22.JPG,AFNE23.JPG,,,,,0,6,6,0,,,,,,,,,,,,,,,,,,,AFNE02.jpg,AFSA05.jpg,AFNE01.jpg,AFSA02.jpg,AFNE02.jpg,FN,3,num_8,16,num_8,1.0668045418,,,2018_Jan_24_1827,60.0004426236,MAFE4ImagesEEG,001,102608,
AMNE22.JPG,AMSA24.JPG,AMSA22.JPG,AMNE25.JPG,AMNE24.JPG,AMSA25.JPG,,,,,0,7,7,7,,,,,,,,,,,,,,,,,,,AFNE11.jpg,AFSA16.jpg,AFNE17.jpg,AFSA14.jpg,AFNE17.jpg,FN,3,num_2,32,num_8,0.766837930758,,,2018_Jan_24_1827,60.0004426236,MAFE4ImagesEEG,001,102608,
AMSA21.JPG,AMNE22.JPG,AMNE21.JPG,AMSA23.JPG,AMSA22.JPG,AMNE23.JPG,,,,,0,8,8,1,,,,,,,,,,,,,,,,,,,AFSA06.jpg,AFNE17.jpg,AFNE01.jpg,AFSA17.jpg,AFNE01.jpg,FN,3,num_2,16,num_2,0.883446869695,,,2018_Jan_24_1827,60.0004426236,MAFE4ImagesEEG,001,102608,
AMSA25.JPG,AMNE24.JPG,AMSA24.JPG,AMNE26.JPG,AMSA21.JPG,AMNE25.JPG,,,,,0,9,9,3,,,,,,,,,,,,,,,,,,,AFSA02.jpg,AFSA03.jpg,AFNE09.jpg,AFNE12.jpg,AFNE09.jpg,FN,3,num_2,32,num_8,1.09995519272,,,2018_Jan_24_1827,60.0004426236,MAFE4ImagesEEG,001,102608,
AMSA25.JPG,AMNE24.JPG,AMSA24.JPG,AMNE26.JPG,AMSA21.JPG,AMNE25.JPG,,,,,,,,,0,0,0,3,,,,,,,,,,,,,,,AMSA18.jpg,AMNE11.jpg,AMNE13.jpg,AMSA04.jpg,AMSA18.jpg,MS,2,num_8,32,num_4,1.01677241976,,,2018_Jan_24_1827,60.0004426236,MAFE4ImagesEEG,001,102608,
AFNE23.JPG,AFNE24.JPG,AFNE22.JPG,AFSA24.JPG,AFSA22.JPG,AFSA23.JPG,,,,,,,,,0,1,1,8,,,,,,,,,,,,,,,AMNE20.jpg,AMSA12.jpg,AMSA19.jpg,AMNE05.jpg,AMNE05.jpg,MN,1,num_4,32,num_8,1.65007792361,,,2018_Jan_24_1827,60.0004426236,MAFE4ImagesEEG,001,102608,
AFSA21.JPG,AFNE22.JPG,AFNE21.JPG,AFSA23.JPG,AFSA22.JPG,AFNE23.JPG,,,,,,,,,0,2,2,0,,,,,,,,,,,,,,,AMSA14.jpg,AMNE11.jpg,AMNE16.jpg,AMSA20.jpg,AMNE11.jpg,MN,1,num_6,32,num_8,0.76662303543,,,2018_Jan_24_1827,60.0004426236,MAFE4ImagesEEG,001,102608,
AMSA21.JPG,AMNE23.JPG,AMNE21.JPG,AMSA25.JPG,AMNE25.JPG,AMSA23.JPG,,,,,,,,,0,3,3,5,,,,,,,,,,,,,,,AMSA17.jpg,AMSA02.jpg,AMNE18.jpg,AMNE07.jpg,AMSA17.jpg,MS,2,num_8,16,num_8,0.983442154829,,,2018_Jan_24_1827,60.0004426236,MAFE4ImagesEEG,001,102608,
AFSA21.JPG,AFNE23.JPG,AFNE21.JPG,AFSA25.JPG,AFNE25.JPG,AFSA23.JPG,,,,,,,,,0,4,4,4,,,,,,,,,,,,,,,AMNE18.jpg,AMSA15.jpg,AMNE01.jpg,AMSA05.jpg,AMSA15.jpg,MS,2,num_6,32,num_8,1.65005354743,,,2018_Jan_24_1827,60.0004426236,MAFE4ImagesEEG,001,102608,
AMSA21.JPG,AMNE22.JPG,AMNE21.JPG,AMSA23.JPG,AMSA22.JPG,AMNE23.JPG,,,,,,,,,0,5,5,1,,,,,,,,,,,,,,,AMNE19.jpg,AMSA11.jpg,AMNE18.jpg,AMSA12.jpg,AMNE19.jpg,MN,1,num_8,32,num_4,1.46675713653,,,2018_Jan_24_1827,60.0004426236,MAFE4ImagesEEG,001,102608,
AMNE22.JPG,AMSA24.JPG,AMSA22.JPG,AMNE25.JPG,AMNE24.JPG,AMSA25.JPG,,,,,,,,,0,6,6,7,,,,,,,,,,,,,,,AMSA13.jpg,AMNE10.jpg,AMNE14.jpg,AMSA03.jpg,AMNE14.jpg,MN,1,num_2,32,num_8,1.35013376432,,,2018_Jan_24_1827,60.0004426236,MAFE4ImagesEEG,001,102608,
AMNE23.JPG,AMNE24.JPG,AMNE22.JPG,AMSA24.JPG,AMSA22.JPG,AMSA23.JPG,,,,,,,,,0,7,7,9,,,,,,,,,,,,,,,AMNE12.jpg,AMSA04.jpg,AMSA03.jpg,AMNE13.jpg,AMSA04.jpg,MS,2,num_6,32,num_4,1.73339765225,,,2018_Jan_24_1827,60.0004426236,MAFE4ImagesEEG,001,102608,
AFSA25.JPG,AFNE24.JPG,AFSA24.JPG,AFNE21.JPG,AFSA21.JPG,AFNE25.JPG,,,,,,,,,0,8,8,2,,,,,,,,,,,,,,,AMSA09.jpg,AMSA20.jpg,AMNE11.jpg,AMNE10.jpg,AMSA09.jpg,MS,2,num_8,16,num_8,0.766772179202,,,2018_Jan_24_1827,60.0004426236,MAFE4ImagesEEG,001,102608,
AFNE22.JPG,AFSA24.JPG,AFSA22.JPG,AFNE25.JPG,AFNE24.JPG,AFSA25.JPG,,,,,,,,,0,9,9,6,,,,,,,,,,,,,,,AMSA12.jpg,AMSA18.jpg,AMNE19.jpg,AMNE20.jpg,AMNE19.jpg,MN,1,num_2,32,num_8,0.766601225158,,,2018_Jan_24_1827,60.0004426236,MAFE4ImagesEEG,001,102608,
AMNE22.JPG,AMSA24.JPG,AMSA22.JPG,AMNE25.JPG,AMNE24.JPG,AMSA25.JPG,,,,,,,,,,,,,0,0,0,7,,,,,,,,,,,AFNE04.jpg,AFSA14.jpg,AFNE03.jpg,AFSA15.jpg,AFSA15.jpg,FS,4,num_4,32,num_8,1.46669266793,,,2018_Jan_24_1827,60.0004426236,MAFE4ImagesEEG,001,102608,
AMSA21.JPG,AMNE22.JPG,AMNE21.JPG,AMSA23.JPG,AMSA22.JPG,AMNE23.JPG,,,,,,,,,,,,,0,1,1,1,,,,,,,,,,,AFSA20.jpg,AFSA04.jpg,AFNE20.jpg,AFNE19.jpg,AFNE20.jpg,FN,3,num_2,32,num_4,1.68340850928,,,2018_Jan_24_1827,60.0004426236,MAFE4ImagesEEG,001,102608,
AFSA25.JPG,AFNE24.JPG,AFSA24.JPG,AFNE21.JPG,AFSA21.JPG,AFNE25.JPG,,,,,,,,,,,,,0,2,2,2,,,,,,,,,,,AFSA16.jpg,AFNE10.jpg,AFSA01.jpg,AFNE05.jpg,AFSA01.jpg,FS,4,num_2,32,num_4,1.53335929184,,,2018_Jan_24_1827,60.0004426236,MAFE4ImagesEEG,001,102608,
AMSA25.JPG,AMNE24.JPG,AMSA24.JPG,AMNE26.JPG,AMSA21.JPG,AMNE25.JPG,,,,,,,,,,,,,0,3,3,3,,,,,,,,,,,AFSA02.jpg,AFNE16.jpg,AFNE02.jpg,AFSA04.jpg,AFSA04.jpg,FS,4,num_4,32,num_2,2.59998935146,,,2018_Jan_24_1827,60.0004426236,MAFE4ImagesEEG,001,102608,
AFNE22.JPG,AFSA24.JPG,AFSA22.JPG,AFNE25.JPG,AFNE24.JPG,AFSA25.JPG,,,,,,,,,,,,,0,4,4,6,,,,,,,,,,,AFNE11.jpg,AFNE16.jpg,AFSA01.jpg,AFSA04.jpg,AFSA01.jpg,FS,4,num_2,32,num_8,1.08346662723,,,2018_Jan_24_1827,60.0004426236,MAFE4ImagesEEG,001,102608,
AMSA21.JPG,AMNE23.JPG,AMNE21.JPG,AMSA25.JPG,AMNE25.JPG,AMSA23.JPG,,,,,,,,,,,,,0,5,5,5,,,,,,,,,,,AFSA20.jpg,AFSA12.jpg,AFNE05.jpg,AFNE19.jpg,AFNE19.jpg,FN,3,num_4,16,num_4,1.41669711017,,,2018_Jan_24_1827,60.0004426236,MAFE4ImagesEEG,001,102608,
AFSA21.JPG,AFNE22.JPG,AFNE21.JPG,AFSA23.JPG,AFSA22.JPG,AFNE23.JPG,,,,,,,,,,,,,0,6,6,0,,,,,,,,,,,AFNE17.jpg,AFSA20.jpg,AFSA01.jpg,AFNE12.jpg,AFSA20.jpg,FS,4,num_6,32,num_2,1.05011358982,,,2018_Jan_24_1827,60.0004426236,MAFE4ImagesEEG,001,102608,
AFNE23.JPG,AFNE24.JPG,AFNE22.JPG,AFSA24.JPG,AFSA22.JPG,AFSA23.JPG,,,,,,,,,,,,,0,7,7,8,,,,,,,,,,,AFNE13.jpg,AFNE04.jpg,AFSA09.jpg,AFSA02.jpg,AFSA09.jpg,FS,4,num_2,32,num_8,1.50008194889,,,2018_Jan_24_1827,60.0004426236,MAFE4ImagesEEG,001,102608,
AFSA21.JPG,AFNE23.JPG,AFNE21.JPG,AFSA25.JPG,AFNE25.JPG,AFSA23.JPG,,,,,,,,,,,,,0,8,8,4,,,,,,,,,,,AFNE14.jpg,AFNE08.jpg,AFSA11.jpg,AFSA17.jpg,AFSA11.jpg,FS,4,num_2,32,num_4,1.35000963822,,,2018_Jan_24_1827,60.0004426236,MAFE4ImagesEEG,001,102608,
AMNE23.JPG,AMNE24.JPG,AMNE22.JPG,AMSA24.JPG,AMSA22.JPG,AMSA23.JPG,,,,,,,,,,,,,0,9,9,9,,,,,,,,,,,AFNE20.jpg,AFNE01.jpg,AFSA07.jpg,AFSA19.jpg,AFSA19.jpg,FS,4,num_4,16,num_4,0.783496488064,,,2018_Jan_24_1827,60.0004426236,MAFE4ImagesEEG,001,102608,
AFNE22.JPG,AFSA24.JPG,AFSA22.JPG,AFNE25.JPG,AFNE24.JPG,AFSA25.JPG,,,,,,,,,,,,,,,,,0,0,0,6,,,,,,,AMSA09.jpg,AMNE13.jpg,AMSA16.jpg,AMNE11.jpg,AMSA16.jpg,MS,2,num_2,16,num_2,0.716788168058,,,2018_Jan_24_1827,60.0004426236,MAFE4ImagesEEG,001,102608,
AFNE23.JPG,AFNE24.JPG,AFNE22.JPG,AFSA24.JPG,AFSA22.JPG,AFSA23.JPG,,,,,,,,,,,,,,,,,0,1,1,8,,,,,,,AMSA20.jpg,AMNE08.jpg,AMSA15.jpg,AMNE15.jpg,AMSA20.jpg,MS,2,num_8,16,num_8,0.866794085694,,,2018_Jan_24_1827,60.0004426236,MAFE4ImagesEEG,001,102608,
AFSA21.JPG,AFNE22.JPG,AFNE21.JPG,AFSA23.JPG,AFSA22.JPG,AFNE23.JPG,,,,,,,,,,,,,,,,,0,2,2,0,,,,,,,AMSA14.jpg,AMNE03.jpg,AMSA10.jpg,AMNE02.jpg,AMNE02.jpg,MN,1,num_4,16,num_4,0.68348420375,,,2018_Jan_24_1827,60.0004426236,MAFE4ImagesEEG,001,102608,
AMSA21.JPG,AMNE23.JPG,AMNE21.JPG,AMSA25.JPG,AMNE25.JPG,AMSA23.JPG,,,,,,,,,,,,,,,,,0,3,3,5,,,,,,,AMNE19.jpg,AMNE09.jpg,AMSA07.jpg,AMSA19.jpg,AMNE19.jpg,MN,1,num_8,16,num_8,0.85014290539,,,2018_Jan_24_1827,60.0004426236,MAFE4ImagesEEG,001,102608,
AMNE22.JPG,AMSA24.JPG,AMSA22.JPG,AMNE25.JPG,AMNE24.JPG,AMSA25.JPG,,,,,,,,,,,,,,,,,0,4,4,7,,,,,,,AMNE12.jpg,AMSA20.jpg,AMNE10.jpg,AMSA14.jpg,AMNE10.jpg,MN,1,num_2,16,num_2,1.21676587668,,,2018_Jan_24_1827,60.0004426236,MAFE4ImagesEEG,001,102608,
AMNE23.JPG,AMNE24.JPG,AMNE22.JPG,AMSA24.JPG,AMSA22.JPG,AMSA23.JPG,,,,,,,,,,,,,,,,,0,5,5,9,,,,,,,AMNE20.jpg,AMNE17.jpg,AMSA07.jpg,AMSA01.jpg,AMNE20.jpg,MN,1,num_8,16,num_8,0.966760504292,,,2018_Jan_24_1827,60.0004426236,MAFE4ImagesEEG,001,102608,
AMSA21.JPG,AMNE22.JPG,AMNE21.JPG,AMSA23.JPG,AMSA22.JPG,AMNE23.JPG,,,,,,,,,,,,,,,,,0,6,6,1,,,,,,,AMSA11.jpg,AMNE03.jpg,AMSA17.jpg,AMNE15.jpg,AMNE15.jpg,MN,1,num_4,16,num_4,0.933457502204,,,2018_Jan_24_1827,60.0004426236,MAFE4ImagesEEG,001,102608,
AFSA25.JPG,AFNE24.JPG,AFSA24.JPG,AFNE21.JPG,AFSA21.JPG,AFNE25.JPG,,,,,,,,,,,,,,,,,0,7,7,2,,,,,,,AMNE02.jpg,AMNE03.jpg,AMSA04.jpg,AMSA12.jpg,AMNE02.jpg,MN,1,num_8,32,num_2,1.15009091355,,,2018_Jan_24_1827,60.0004426236,MAFE4ImagesEEG,001,102608,
AFSA21.JPG,AFNE23.JPG,AFNE21.JPG,AFSA25.JPG,AFNE25.JPG,AFSA23.JPG,,,,,,,,,,,,,,,,,0,8,8,4,,,,,,,AMNE12.jpg,AMNE20.jpg,AMSA18.jpg,AMSA04.jpg,AMSA04.jpg,MS,2,num_4,32,num_8,0.850132000254,,,2018_Jan_24_1827,60.0004426236,MAFE4ImagesEEG,001,102608,
AMSA25.JPG,AMNE24.JPG,AMSA24.JPG,AMNE26.JPG,AMSA21.JPG,AMNE25.JPG,,,,,,,,,,,,,,,,,0,9,9,3,,,,,,,AMNE13.jpg,AMNE18.jpg,AMSA08.jpg,AMSA03.jpg,AMNE18.jpg,MN,1,num_6,32,num_8,2.13333228559,,,2018_Jan_24_1827,60.0004426236,MAFE4ImagesEEG,001,102608,
AMSA21.JPG,AMNE23.JPG,AMNE21.JPG,AMSA25.JPG,AMNE25.JPG,AMSA23.JPG,,,,,,,,,,,,,,,,,,,,,0,0,0,5,,,AFNE01.jpg,AFSA12.jpg,AFSA11.jpg,AFNE05.jpg,AFSA12.jpg,FS,4,num_6,32,num_8,1.54992002366,,,2018_Jan_24_1827,60.0004426236,MAFE4ImagesEEG,001,102608,
AFSA21.JPG,AFNE23.JPG,AFNE21.JPG,AFSA25.JPG,AFNE25.JPG,AFSA23.JPG,,,,,,,,,,,,,,,,,,,,,0,1,1,4,,,AFNE05.jpg,AFSA09.jpg,AFSA04.jpg,AFNE15.jpg,AFNE15.jpg,FN,3,num_4,16,num_4,0.616787109615,,,2018_Jan_24_1827,60.0004426236,MAFE4ImagesEEG,001,102608,
AFSA25.JPG,AFNE24.JPG,AFSA24.JPG,AFNE21.JPG,AFSA21.JPG,AFNE25.JPG,,,,,,,,,,,,,,,,,,,,,0,2,2,2,,,AFNE08.jpg,AFSA16.jpg,AFNE16.jpg,AFSA12.jpg,AFNE08.jpg,FN,3,num_8,32,num_4,0.749999117965,,,2018_Jan_24_1827,60.0004426236,MAFE4ImagesEEG,001,102608,
AMSA25.JPG,AMNE24.JPG,AMSA24.JPG,AMNE26.JPG,AMSA21.JPG,AMNE25.JPG,,,,,,,,,,,,,,,,,,,,,0,3,3,3,,,AFSA18.jpg,AFNE03.jpg,AFSA17.jpg,AFNE06.jpg,AFSA18.jpg,FS,4,num_8,16,num_8,0.783460886003,,,2018_Jan_24_1827,60.0004426236,MAFE4ImagesEEG,001,102608,
AMSA21.JPG,AMNE22.JPG,AMNE21.JPG,AMSA23.JPG,AMSA22.JPG,AMNE23.JPG,,,,,,,,,,,,,,,,,,,,,0,4,4,1,,,AFSA11.jpg,AFNE10.jpg,AFNE14.jpg,AFSA17.jpg,AFSA17.jpg,FS,4,num_4,32,num_8,1.36671662716,,,2018_Jan_24_1827,60.0004426236,MAFE4ImagesEEG,001,102608,
AMNE23.JPG,AMNE24.JPG,AMNE22.JPG,AMSA24.JPG,AMSA22.JPG,AMSA23.JPG,,,,,,,,,,,,,,,,,,,,,0,5,5,9,,,AFNE07.jpg,AFSA09.jpg,AFNE18.jpg,AFSA11.jpg,AFNE07.jpg,FN,3,num_8,32,num_2,0.783480771839,,,2018_Jan_24_1827,60.0004426236,MAFE4ImagesEEG,001,102608,
AFNE22.JPG,AFSA24.JPG,AFSA22.JPG,AFNE25.JPG,AFNE24.JPG,AFSA25.JPG,,,,,,,,,,,,,,,,,,,,,0,6,6,6,,,AFNE04.jpg,AFSA18.jpg,AFNE13.jpg,AFSA13.jpg,AFSA18.jpg,FS,4,num_6,32,num_8,0.73347110155,,,2018_Jan_24_1827,60.0004426236,MAFE4ImagesEEG,001,102608,
AFSA21.JPG,AFNE22.JPG,AFNE21.JPG,AFSA23.JPG,AFSA22.JPG,AFNE23.JPG,,,,,,,,,,,,,,,,,,,,,0,7,7,0,,,AFNE10.jpg,AFNE04.jpg,AFSA03.jpg,AFSA09.jpg,AFNE04.jpg,FN,3,num_6,32,num_8,0.766775707332,,,2018_Jan_24_1827,60.0004426236,MAFE4ImagesEEG,001,102608,
AMNE22.JPG,AMSA24.JPG,AMSA22.JPG,AMNE25.JPG,AMNE24.JPG,AMSA25.JPG,,,,,,,,,,,,,,,,,,,,,0,8,8,7,,,AFNE18.jpg,AFNE07.jpg,AFSA14.jpg,AFSA15.jpg,AFNE07.jpg,FN,3,num_6,32,num_2,0.900119218793,,,2018_Jan_24_1827,60.0004426236,MAFE4ImagesEEG,001,102608,
AFNE23.JPG,AFNE24.JPG,AFNE22.JPG,AFSA24.JPG,AFSA22.JPG,AFSA23.JPG,,,,,,,,,,,,,,,,,,,,,0,9,9,8,,,AFSA10.jpg,AFSA05.jpg,AFNE10.jpg,AFNE11.jpg,AFNE11.jpg,FN,3,num_4,16,num_4,1.63345593058,,,2018_Jan_24_1827,60.0004426236,MAFE4ImagesEEG,001,102608,
,,,,,,,,,,,,,,,,,,,,,,,,,,,,,,,,,,,,,,,,,,,space,7.48318091268,2018_Jan_24_1827,60.0004426236,MAFE4ImagesEEG,001,102608,
AFNE01.JPG,AFNE01.JPG,AFNE01.JPG,AFNE01.JPG,AFNE01.JPG,AFNE01.JPG,0,0,0,6,,,,,,,,,,,,,,,,,,,,,,,AMNE09.jpg,AMNE06.jpg,AMSA14.jpg,AMSA16.jpg,AMNE09.jpg,MN,1,num_8,16,num_8,0.916789643459,,,2018_Jan_24_1827,60.0004426236,MAFE4ImagesEEG,001,102608,
AFNE01.JPG,AFNE01.JPG,AFNE01.JPG,AFNE01.JPG,AFNE01.JPG,AFNE01.JPG,0,1,1,8,,,,,,,,,,,,,,,,,,,,,,,AMSA05.jpg,AMNE19.jpg,AMNE17.jpg,AMSA17.jpg,AMNE19.jpg,MN,1,num_6,32,num_2,2.03337260251,,,2018_Jan_24_1827,60.0004426236,MAFE4ImagesEEG,001,102608,
AFNE01.JPG,AFNE01.JPG,AFNE01.JPG,AFNE01.JPG,AFNE01.JPG,AFNE01.JPG,0,2,2,9,,,,,,,,,,,,,,,,,,,,,,,AMSA11.jpg,AMNE06.jpg,AMNE07.jpg,AMSA13.jpg,AMNE06.jpg,MN,1,num_6,32,num_4,2.41661724609,,,2018_Jan_24_1827,60.0004426236,MAFE4ImagesEEG,001,102608,
AFNE01.JPG,AFNE01.JPG,AFNE01.JPG,AFNE01.JPG,AFNE01.JPG,AFNE01.JPG,0,3,3,4,,,,,,,,,,,,,,,,,,,,,,,AMSA08.jpg,AMSA13.jpg,AMNE11.jpg,AMNE02.jpg,AMSA13.jpg,MS,2,num_6,32,num_8,1.45007324082,,,2018_Jan_24_1827,60.0004426236,MAFE4ImagesEEG,001,102608,
AFNE01.JPG,AFNE01.JPG,AFNE01.JPG,AFNE01.JPG,AFNE01.JPG,AFNE01.JPG,0,4,4,7,,,,,,,,,,,,,,,,,,,,,,,AMNE19.jpg,AMSA02.jpg,AMNE18.jpg,AMSA11.jpg,AMNE18.jpg,MN,1,num_2,32,num_8,1.93337410999,,,2018_Jan_24_1827,60.0004426236,MAFE4ImagesEEG,001,102608,
AFNE01.JPG,AFNE01.JPG,AFNE01.JPG,AFNE01.JPG,AFNE01.JPG,AFNE01.JPG,0,5,5,2,,,,,,,,,,,,,,,,,,,,,,,AMSA09.jpg,AMSA08.jpg,AMNE11.jpg,AMNE09.jpg,AMNE11.jpg,MN,1,num_2,32,num_8,0.733454423105,,,2018_Jan_24_1827,60.0004426236,MAFE4ImagesEEG,001,102608,
AFNE01.JPG,AFNE01.JPG,AFNE01.JPG,AFNE01.JPG,AFNE01.JPG,AFNE01.JPG,0,6,6,1,,,,,,,,,,,,,,,,,,,,,,,AMSA03.jpg,AMSA02.jpg,AMNE08.jpg,AMNE11.jpg,AMNE11.jpg,MN,1,num_4,16,num_4,1.91687592232,,,2018_Jan_24_1827,60.0004426236,MAFE4ImagesEEG,001,102608,
AFNE01.JPG,AFNE01.JPG,AFNE01.JPG,AFNE01.JPG,AFNE01.JPG,AFNE01.JPG,0,7,7,5,,,,,,,,,,,,,,,,,,,,,,,AMNE16.jpg,AMSA01.jpg,AMSA03.jpg,AMNE15.jpg,AMSA03.jpg,MS,2,num_2,32,num_4,3.88325025651,,,2018_Jan_24_1827,60.0004426236,MAFE4ImagesEEG,001,102608,
AFNE01.JPG,AFNE01.JPG,AFNE01.JPG,AFNE01.JPG,AFNE01.JPG,AFNE01.JPG,0,8,8,0,,,,,,,,,,,,,,,,,,,,,,,AMSA17.jpg,AMNE08.jpg,AMNE19.jpg,AMSA12.jpg,AMSA12.jpg,MS,2,num_4,32,num_8,1.25038384475,,,2018_Jan_24_1827,60.0004426236,MAFE4ImagesEEG,001,102608,
AFNE01.JPG,AFNE01.JPG,AFNE01.JPG,AFNE01.JPG,AFNE01.JPG,AFNE01.JPG,0,9,9,3,,,,,,,,,,,,,,,,,,,,,,,AMNE02.jpg,AMSA15.jpg,AMSA09.jpg,AMNE16.jpg,AMSA09.jpg,MS,2,num_2,16,num_2,1.51656762772,,,2018_Jan_24_1827,60.0004426236,MAFE4ImagesEEG,001,102608,
AFNE01.JPG,AFNE01.JPG,AFNE01.JPG,AFNE01.JPG,AFNE01.JPG,AFNE01.JPG,1,0,10,8,,,,,,,,,,,,,,,,,,,,,,,AMSA16.jpg,AMNE08.jpg,AMNE11.jpg,AMSA12.jpg,AMNE11.jpg,MN,1,num_2,32,num_8,1.01675413761,,,2018_Jan_24_1827,60.0004426236,MAFE4ImagesEEG,001,102608,
AFNE01.JPG,AFNE01.JPG,AFNE01.JPG,AFNE01.JPG,AFNE01.JPG,AFNE01.JPG,1,1,11,9,,,,,,,,,,,,,,,,,,,,,,,AMNE17.jpg,AMNE12.jpg,AMSA12.jpg,AMSA05.jpg,AMNE17.jpg,MN,1,num_8,32,num_2,1.18341572591,,,2018_Jan_24_1827,60.0004426236,MAFE4ImagesEEG,001,102608,
AFNE01.JPG,AFNE01.JPG,AFNE01.JPG,AFNE01.JPG,AFNE01.JPG,AFNE01.JPG,1,2,12,5,,,,,,,,,,,,,,,,,,,,,,,AMNE14.jpg,AMNE10.jpg,AMSA09.jpg,AMSA12.jpg,AMSA09.jpg,MS,2,num_2,16,num_2,1.150107592,,,2018_Jan_24_1827,60.0004426236,MAFE4ImagesEEG,001,102608,
AFNE01.JPG,AFNE01.JPG,AFNE01.JPG,AFNE01.JPG,AFNE01.JPG,AFNE01.JPG,1,3,13,7,,,,,,,,,,,,,,,,,,,,,,,AMNE06.jpg,AMSA11.jpg,AMNE18.jpg,AMSA13.jpg,AMSA11.jpg,MS,2,num_6,32,num_4,2.26685733548,,,2018_Jan_24_1827,60.0004426236,MAFE4ImagesEEG,001,102608,
AFNE01.JPG,AFNE01.JPG,AFNE01.JPG,AFNE01.JPG,AFNE01.JPG,AFNE01.JPG,1,4,14,2,,,,,,,,,,,,,,,,,,,,,,,AMSA16.jpg,AMNE14.jpg,AMSA05.jpg,AMNE11.jpg,AMSA05.jpg,MS,2,num_2,16,num_2,0.883453284485,,,2018_Jan_24_1827,60.0004426236,MAFE4ImagesEEG,001,102608,
AFNE01.JPG,AFNE01.JPG,AFNE01.JPG,AFNE01.JPG,AFNE01.JPG,AFNE01.JPG,1,5,15,0,,,,,,,,,,,,,,,,,,,,,,,AMNE03.jpg,AMSA13.jpg,AMNE20.jpg,AMSA17.jpg,AMNE20.jpg,MN,1,num_2,32,num_8,0.950104833635,,,2018_Jan_24_1827,60.0004426236,MAFE4ImagesEEG,001,102608,
AFNE01.JPG,AFNE01.JPG,AFNE01.JPG,AFNE01.JPG,AFNE01.JPG,AFNE01.JPG,1,6,16,1,,,,,,,,,,,,,,,,,,,,,,,AMNE20.jpg,AMSA10.jpg,AMSA09.jpg,AMNE12.jpg,AMSA10.jpg,MS,2,num_6,32,num_2,2.18329769385,,,2018_Jan_24_1827,60.0004426236,MAFE4ImagesEEG,001,102608,
AFNE01.JPG,AFNE01.JPG,AFNE01.JPG,AFNE01.JPG,AFNE01.JPG,AFNE01.JPG,1,7,17,4,,,,,,,,,,,,,,,,,,,,,,,AMNE13.jpg,AMSA03.jpg,AMNE19.jpg,AMSA07.jpg,AMSA03.jpg,MS,2,num_6,32,num_4,0.866797613828,,,2018_Jan_24_1827,60.0004426236,MAFE4ImagesEEG,001,102608,
AFNE01.JPG,AFNE01.JPG,AFNE01.JPG,AFNE01.JPG,AFNE01.JPG,AFNE01.JPG,1,8,18,6,,,,,,,,,,,,,,,,,,,,,,,AMSA11.jpg,AMSA03.jpg,AMNE07.jpg,AMNE01.jpg,AMNE07.jpg,MN,1,num_2,16,num_2,0.866762653244,,,2018_Jan_24_1827,60.0004426236,MAFE4ImagesEEG,001,102608,
AFNE01.JPG,AFNE01.JPG,AFNE01.JPG,AFNE01.JPG,AFNE01.JPG,AFNE01.JPG,1,9,19,3,,,,,,,,,,,,,,,,,,,,,,,AMSA07.jpg,AMNE16.jpg,AMNE10.jpg,AMSA10.jpg,AMSA10.jpg,MS,2,num_4,32,num_8,1.98339693059,,,2018_Jan_24_1827,60.0004426236,MAFE4ImagesEEG,001,102608,
AFNE01.JPG,AFNE01.JPG,AFNE01.JPG,AFNE01.JPG,AFNE01.JPG,AFNE01.JPG,2,0,20,9,,,,,,,,,,,,,,,,,,,,,,,AMNE05.jpg,AMSA06.jpg,AMSA20.jpg,AMNE02.jpg,AMSA06.jpg,MS,2,num_6,32,num_4,0.883311517719,,,2018_Jan_24_1827,60.0004426236,MAFE4ImagesEEG,001,102608,
AFNE01.JPG,AFNE01.JPG,AFNE01.JPG,AFNE01.JPG,AFNE01.JPG,AFNE01.JPG,2,1,21,8,,,,,,,,,,,,,,,,,,,,,,,AMNE16.jpg,AMNE17.jpg,AMSA08.jpg,AMSA02.jpg,AMNE17.jpg,MN,1,num_6,32,num_4,1.58335998142,,,2018_Jan_24_1827,60.0004426236,MAFE4ImagesEEG,001,102608,
AFNE01.JPG,AFNE01.JPG,AFNE01.JPG,AFNE01.JPG,AFNE01.JPG,AFNE01.JPG,2,2,22,1,,,,,,,,,,,,,,,,,,,,,,,AMNE10.jpg,AMNE02.jpg,AMSA03.jpg,AMSA13.jpg,AMNE02.jpg,MN,1,num_6,32,num_8,0.783498733239,,,2018_Jan_24_1827,60.0004426236,MAFE4ImagesEEG,001,102608,
AFNE01.JPG,AFNE01.JPG,AFNE01.JPG,AFNE01.JPG,AFNE01.JPG,AFNE01.JPG,2,3,23,2,,,,,,,,,,,,,,,,,,,,,,,AMNE08.jpg,AMSA16.jpg,AMSA06.jpg,AMNE12.jpg,AMNE12.jpg,MN,1,num_4,32,num_8,1.95008430632,,,2018_Jan_24_1827,60.0004426236,MAFE4ImagesEEG,001,102608,
AFNE01.JPG,AFNE01.JPG,AFNE01.JPG,AFNE01.JPG,AFNE01.JPG,AFNE01.JPG,2,4,24,4,,,,,,,,,,,,,,,,,,,,,,,AMSA07.jpg,AMSA02.jpg,AMNE04.jpg,AMNE05.jpg,AMSA02.jpg,MS,2,num_6,32,num_2,0.800173327512,,,2018_Jan_24_1827,60.0004426236,MAFE4ImagesEEG,001,102608,
AFNE01.JPG,AFNE01.JPG,AFNE01.JPG,AFNE01.JPG,AFNE01.JPG,AFNE01.JPG,2,5,25,7,,,,,,,,,,,,,,,,,,,,,,,AMNE06.jpg,AMNE01.jpg,AMSA05.jpg,AMSA09.jpg,AMNE06.jpg,MN,1,num_8,16,num_8,0.783431057251,,,2018_Jan_24_1827,60.0004426236,MAFE4ImagesEEG,001,102608,
AFNE01.JPG,AFNE01.JPG,AFNE01.JPG,AFNE01.JPG,AFNE01.JPG,AFNE01.JPG,2,6,26,0,,,,,,,,,,,,,,,,,,,,,,,AMSA01.jpg,AMSA02.jpg,AMNE18.jpg,AMNE08.jpg,AMSA02.jpg,MS,2,num_6,32,num_8,1.41677665351,,,2018_Jan_24_1827,60.0004426236,MAFE4ImagesEEG,001,102608,
AFNE01.JPG,AFNE01.JPG,AFNE01.JPG,AFNE01.JPG,AFNE01.JPG,AFNE01.JPG,2,7,27,3,,,,,,,,,,,,,,,,,,,,,,,AMNE14.jpg,AMSA18.jpg,AMNE09.jpg,AMSA01.jpg,AMSA18.jpg,MS,2,num_6,32,num_4,2.0833659151,,,2018_Jan_24_1827,60.0004426236,MAFE4ImagesEEG,001,102608,
AFNE01.JPG,AFNE01.JPG,AFNE01.JPG,AFNE01.JPG,AFNE01.JPG,AFNE01.JPG,2,8,28,5,,,,,,,,,,,,,,,,,,,,,,,AMNE04.jpg,AMSA14.jpg,AMNE17.jpg,AMSA16.jpg,AMNE04.jpg,MN,1,num_8,16,num_8,1.0834990219,,,2018_Jan_24_1827,60.0004426236,MAFE4ImagesEEG,001,102608,
AFNE01.JPG,AFNE01.JPG,AFNE01.JPG,AFNE01.JPG,AFNE01.JPG,AFNE01.JPG,2,9,29,6,,,,,,,,,,,,,,,,,,,,,,,AMNE14.jpg,AMNE10.jpg,AMSA15.jpg,AMSA03.jpg,AMSA15.jpg,MS,2,num_2,16,num_2,0.816777359141,,,2018_Jan_24_1827,60.0004426236,MAFE4ImagesEEG,001,102608,
AFNE01.JPG,AFNE01.JPG,AFNE01.JPG,AFNE01.JPG,AFNE01.JPG,AFNE01.JPG,3,0,30,7,,,,,,,,,,,,,,,,,,,,,,,AMNE06.jpg,AMSA04.jpg,AMNE11.jpg,AMSA17.jpg,AMNE11.jpg,MN,1,num_2,32,num_8,0.850104416677,,,2018_Jan_24_1827,60.0004426236,MAFE4ImagesEEG,001,102608,
AFNE01.JPG,AFNE01.JPG,AFNE01.JPG,AFNE01.JPG,AFNE01.JPG,AFNE01.JPG,3,1,31,1,,,,,,,,,,,,,,,,,,,,,,,AMNE13.jpg,AMSA19.jpg,AMSA06.jpg,AMNE15.jpg,AMNE13.jpg,MN,1,num_8,32,num_4,1.23344239538,,,2018_Jan_24_1827,60.0004426236,MAFE4ImagesEEG,001,102608,
AFNE01.JPG,AFNE01.JPG,AFNE01.JPG,AFNE01.JPG,AFNE01.JPG,AFNE01.JPG,3,2,32,4,,,,,,,,,,,,,,,,,,,,,,,AMNE04.jpg,AMSA13.jpg,AMSA08.jpg,AMNE08.jpg,AMSA08.jpg,MS,2,num_2,32,num_8,1.33347745219,,,2018_Jan_24_1827,60.0004426236,MAFE4ImagesEEG,001,102608,
AFNE01.JPG,AFNE01.JPG,AFNE01.JPG,AFNE01.JPG,AFNE01.JPG,AFNE01.JPG,3,3,33,9,,,,,,,,,,,,,,,,,,,,,,,AMSA02.jpg,AMNE10.jpg,AMNE05.jpg,AMSA08.jpg,AMSA02.jpg,MS,2,num_8,32,num_4,2.10004018863,,,2018_Jan_24_1827,60.0004426236,MAFE4ImagesEEG,001,102608,
AFNE01.JPG,AFNE01.JPG,AFNE01.JPG,AFNE01.JPG,AFNE01.JPG,AFNE01.JPG,3,4,34,0,,,,,,,,,,,,,,,,,,,,,,,AMSA04.jpg,AMSA16.jpg,AMNE15.jpg,AMNE20.jpg,AMNE15.jpg,MN,1,num_2,16,num_2,1.21675080193,,,2018_Jan_24_1827,60.0004426236,MAFE4ImagesEEG,001,102608,
AFNE01.JPG,AFNE01.JPG,AFNE01.JPG,AFNE01.JPG,AFNE01.JPG,AFNE01.JPG,3,5,35,3,,,,,,,,,,,,,,,,,,,,,,,AMNE09.jpg,AMSA10.jpg,AMSA09.jpg,AMNE03.jpg,AMNE03.jpg,MN,1,num_4,32,num_8,0.899961735802,,,2018_Jan_24_1827,60.0004426236,MAFE4ImagesEEG,001,102608,
AFNE01.JPG,AFNE01.JPG,AFNE01.JPG,AFNE01.JPG,AFNE01.JPG,AFNE01.JPG,3,6,36,2,,,,,,,,,,,,,,,,,,,,,,,AMNE18.jpg,AMSA03.jpg,AMSA13.jpg,AMNE04.jpg,AMSA03.jpg,MS,2,num_6,32,num_8,0.866798576048,,,2018_Jan_24_1827,60.0004426236,MAFE4ImagesEEG,001,102608,
AFNE01.JPG,AFNE01.JPG,AFNE01.JPG,AFNE01.JPG,AFNE01.JPG,AFNE01.JPG,3,7,37,6,,,,,,,,,,,,,,,,,,,,,,,AMSA09.jpg,AMSA10.jpg,AMNE19.jpg,AMNE09.jpg,AMSA09.jpg,MS,2,num_8,32,num_4,1.90004320358,,,2018_Jan_24_1827,60.0004426236,MAFE4ImagesEEG,001,102608,
AFNE01.JPG,AFNE01.JPG,AFNE01.JPG,AFNE01.JPG,AFNE01.JPG,AFNE01.JPG,3,8,38,5,,,,,,,,,,,,,,,,,,,,,,,AMNE11.jpg,AMSA05.jpg,AMSA01.jpg,AMNE06.jpg,AMNE06.jpg,MN,1,num_4,32,num_8,2.15000046507,,,2018_Jan_24_1827,60.0004426236,MAFE4ImagesEEG,001,102608,
AFNE01.JPG,AFNE01.JPG,AFNE01.JPG,AFNE01.JPG,AFNE01.JPG,AFNE01.JPG,3,9,39,8,,,,,,,,,,,,,,,,,,,,,,,AMNE03.jpg,AMNE13.jpg,AMSA06.jpg,AMSA19.jpg,AMNE13.jpg,MN,1,num_6,32,num_8,1.36679135941,,,2018_Jan_24_1827,60.0004426236,MAFE4ImagesEEG,001,102608,
AFNE01.JPG,AFNE01.JPG,AFNE01.JPG,AFNE01.JPG,AFNE01.JPG,AFNE01.JPG,4,0,40,6,,,,,,,,,,,,,,,,,,,,,,,AMSA03.jpg,AMSA11.jpg,AMNE12.jpg,AMNE19.jpg,AMSA11.jpg,MS,2,num_6,32,num_8,1.58351072889,,,2018_Jan_24_1827,60.0004426236,MAFE4ImagesEEG,001,102608,
AFNE01.JPG,AFNE01.JPG,AFNE01.JPG,AFNE01.JPG,AFNE01.JPG,AFNE01.JPG,4,1,41,0,,,,,,,,,,,,,,,,,,,,,,,AMNE11.jpg,AMSA09.jpg,AMNE07.jpg,AMSA10.jpg,AMSA10.jpg,MS,2,num_4,16,num_4,1.78319755905,,,2018_Jan_24_1827,60.0004426236,MAFE4ImagesEEG,001,102608,
AFNE01.JPG,AFNE01.JPG,AFNE01.JPG,AFNE01.JPG,AFNE01.JPG,AFNE01.JPG,4,2,42,5,,,,,,,,,,,,,,,,,,,,,,,AMNE12.jpg,AMNE16.jpg,AMSA06.jpg,AMSA08.jpg,AMSA06.jpg,MS,2,num_2,16,num_2,1.43343521082,,,2018_Jan_24_1827,60.0004426236,MAFE4ImagesEEG,001,102608,
AFNE01.JPG,AFNE01.JPG,AFNE01.JPG,AFNE01.JPG,AFNE01.JPG,AFNE01.JPG,4,3,43,8,,,,,,,,,,,,,,,,,,,,,,,AMNE05.jpg,AMSA02.jpg,AMNE09.jpg,AMSA14.jpg,AMSA02.jpg,MS,2,num_6,32,num_2,2.03343354298,,,2018_Jan_24_1827,60.0004426236,MAFE4ImagesEEG,001,102608,
AFNE01.JPG,AFNE01.JPG,AFNE01.JPG,AFNE01.JPG,AFNE01.JPG,AFNE01.JPG,4,4,44,7,,,,,,,,,,,,,,,,,,,,,,,AMNE07.jpg,AMSA11.jpg,AMNE16.jpg,AMSA14.jpg,AMNE16.jpg,MN,1,num_2,16,num_2,3.34997467763,,,2018_Jan_24_1827,60.0004426236,MAFE4ImagesEEG,001,102608,
AFNE01.JPG,AFNE01.JPG,AFNE01.JPG,AFNE01.JPG,AFNE01.JPG,AFNE01.JPG,4,5,45,4,,,,,,,,,,,,,,,,,,,,,,,AMSA19.jpg,AMSA09.jpg,AMNE20.jpg,AMNE15.jpg,AMNE20.jpg,MN,1,num_2,32,num_8,1.26670690876,,,2018_Jan_24_1827,60.0004426236,MAFE4ImagesEEG,001,102608,
AFNE01.JPG,AFNE01.JPG,AFNE01.JPG,AFNE01.JPG,AFNE01.JPG,AFNE01.JPG,4,6,46,2,,,,,,,,,,,,,,,,,,,,,,,AMNE12.jpg,AMNE18.jpg,AMSA07.jpg,AMSA08.jpg,AMNE12.jpg,MN,1,num_8,16,num_8,3.09992792988,,,2018_Jan_24_1827,60.0004426236,MAFE4ImagesEEG,001,102608,
AFNE01.JPG,AFNE01.JPG,AFNE01.JPG,AFNE01.JPG,AFNE01.JPG,AFNE01.JPG,4,7,47,9,,,,,,,,,,,,,,,,,,,,,,,AMSA03.jpg,AMNE18.jpg,AMNE03.jpg,AMSA20.jpg,AMNE18.jpg,MN,1,num_6,32,num_2,1.68344250764,,,2018_Jan_24_1827,60.0004426236,MAFE4ImagesEEG,001,102608,
AFNE01.JPG,AFNE01.JPG,AFNE01.JPG,AFNE01.JPG,AFNE01.JPG,AFNE01.JPG,4,8,48,1,,,,,,,,,,,,,,,,,,,,,,,AMNE03.jpg,AMSA13.jpg,AMNE17.jpg,AMSA07.jpg,AMNE03.jpg,MN,1,num_8,32,num_2,1.06687221779,,,2018_Jan_24_1827,60.0004426236,MAFE4ImagesEEG,001,102608,
AFNE01.JPG,AFNE01.JPG,AFNE01.JPG,AFNE01.JPG,AFNE01.JPG,AFNE01.JPG,4,9,49,3,,,,,,,,,,,,,,,,,,,,,,,AMNE12.jpg,AMNE07.jpg,AMSA08.jpg,AMSA17.jpg,AMNE12.jpg,MN,1,num_8,32,num_4,4.11661695742,,,2018_Jan_24_1827,60.0004426236,MAFE4ImagesEEG,001,102608,
AFNE01.JPG,AFNE01.JPG,AFNE01.JPG,AFNE01.JPG,AFNE01.JPG,AFNE01.JPG,5,0,50,0,,,,,,,,,,,,,,,,,,,,,,,AMSA20.jpg,AMNE11.jpg,AMSA11.jpg,AMNE19.jpg,AMNE11.jpg,MN,1,num_6,32,num_8,1.01675509983,,,2018_Jan_24_1827,60.0004426236,MAFE4ImagesEEG,001,102608,
AFNE01.JPG,AFNE01.JPG,AFNE01.JPG,AFNE01.JPG,AFNE01.JPG,AFNE01.JPG,5,1,51,9,,,,,,,,,,,,,,,,,,,,,,,AMNE18.jpg,AMSA20.jpg,AMSA18.jpg,AMNE10.jpg,AMNE10.jpg,MN,1,num_4,32,num_8,2.29986333299,,,2018_Jan_24_1827,60.0004426236,MAFE4ImagesEEG,001,102608,
AFNE01.JPG,AFNE01.JPG,AFNE01.JPG,AFNE01.JPG,AFNE01.JPG,AFNE01.JPG,5,2,52,5,,,,,,,,,,,,,,,,,,,,,,,AMSA01.jpg,AMNE10.jpg,AMNE12.jpg,AMSA18.jpg,AMSA01.jpg,MS,2,num_8,32,num_2,1.25010993339,,,2018_Jan_24_1827,60.0004426236,MAFE4ImagesEEG,001,102608,
AFNE01.JPG,AFNE01.JPG,AFNE01.JPG,AFNE01.JPG,AFNE01.JPG,AFNE01.JPG,5,3,53,8,,,,,,,,,,,,,,,,,,,,,,,AMNE09.jpg,AMSA08.jpg,AMSA03.jpg,AMNE16.jpg,AMNE16.jpg,MN,1,num_4,32,num_8,1.69990990433,,,2018_Jan_24_1827,60.0004426236,MAFE4ImagesEEG,001,102608,
AFNE01.JPG,AFNE01.JPG,AFNE01.JPG,AFNE01.JPG,AFNE01.JPG,AFNE01.JPG,5,4,54,4,,,,,,,,,,,,,,,,,,,,,,,AMNE02.jpg,AMSA03.jpg,AMSA13.jpg,AMNE18.jpg,AMSA13.jpg,MS,2,num_2,16,num_2,1.13344165769,,,2018_Jan_24_1827,60.0004426236,MAFE4ImagesEEG,001,102608,
AFNE01.JPG,AFNE01.JPG,AFNE01.JPG,AFNE01.JPG,AFNE01.JPG,AFNE01.JPG,5,5,55,7,,,,,,,,,,,,,,,,,,,,,,,AMSA05.jpg,AMNE13.jpg,AMNE12.jpg,AMSA15.jpg,AMNE12.jpg,MN,1,num_2,32,num_8,1.4002005262,,,2018_Jan_24_1827,60.0004426236,MAFE4ImagesEEG,001,102608,
AFNE01.JPG,AFNE01.JPG,AFNE01.JPG,AFNE01.JPG,AFNE01.JPG,AFNE01.JPG,5,6,56,2,,,,,,,,,,,,,,,,,,,,,,,AMNE11.jpg,AMSA03.jpg,AMNE15.jpg,AMSA10.jpg,AMNE11.jpg,MN,1,num_8,16,num_8,1.68344571504,,,2018_Jan_24_1827,60.0004426236,MAFE4ImagesEEG,001,102608,
AFNE01.JPG,AFNE01.JPG,AFNE01.JPG,AFNE01.JPG,AFNE01.JPG,AFNE01.JPG,5,7,57,6,,,,,,,,,,,,,,,,,,,,,,,AMNE04.jpg,AMSA15.jpg,AMNE01.jpg,AMSA06.jpg,AMSA06.jpg,MS,2,num_4,48,None,,,,2018_Jan_24_1827,60.0004426236,MAFE4ImagesEEG,001,102608,
AFNE01.JPG,AFNE01.JPG,AFNE01.JPG,AFNE01.JPG,AFNE01.JPG,AFNE01.JPG,5,8,58,3,,,,,,,,,,,,,,,,,,,,,,,AMSA19.jpg,AMSA06.jpg,AMNE14.jpg,AMNE18.jpg,AMNE14.jpg,MN,1,num_2,32,num_4,1.26673032272,,,2018_Jan_24_1827,60.0004426236,MAFE4ImagesEEG,001,102608,
AFNE01.JPG,AFNE01.JPG,AFNE01.JPG,AFNE01.JPG,AFNE01.JPG,AFNE01.JPG,5,9,59,1,,,,,,,,,,,,,,,,,,,,,,,AMNE06.jpg,AMSA15.jpg,AMSA18.jpg,AMNE03.jpg,AMNE06.jpg,MN,1,num_8,16,num_8,1.75003375781,,,2018_Jan_24_1827,60.0004426236,MAFE4ImagesEEG,001,102608,
,,,,,,,,,,,,,,,,,,,,,,,,,,,,,,,,,,,,,,,,,,,space,7.06629969815,2018_Jan_24_1827,60.0004426236,MAFE4ImagesEEG,001,102608,
AFNE01.JPG,AFNE01.JPG,AFNE01.JPG,AFNE01.JPG,AFNE01.JPG,AFNE01.JPG,,,,,0,0,0,1,,,,,,,,,,,,,,,,,,,AFNE20.jpg,AFNE07.jpg,AFSA20.jpg,AFSA06.jpg,AFSA20.jpg,FS,4,num_2,32,num_8,0.716799714672,,,2018_Jan_24_1827,60.0004426236,MAFE4ImagesEEG,001,102608,
AFNE01.JPG,AFNE01.JPG,AFNE01.JPG,AFNE01.JPG,AFNE01.JPG,AFNE01.JPG,,,,,0,1,1,8,,,,,,,,,,,,,,,,,,,AFNE05.jpg,AFSA12.jpg,AFNE10.jpg,AFSA11.jpg,AFNE05.jpg,FN,3,num_8,32,num_4,1.5000591764,,,2018_Jan_24_1827,60.0004426236,MAFE4ImagesEEG,001,102608,
AFNE01.JPG,AFNE01.JPG,AFNE01.JPG,AFNE01.JPG,AFNE01.JPG,AFNE01.JPG,,,,,0,2,2,5,,,,,,,,,,,,,,,,,,,AFSA10.jpg,AFSA12.jpg,AFNE06.jpg,AFNE02.jpg,AFNE02.jpg,FN,3,num_4,32,num_2,2.21662282695,,,2018_Jan_24_1827,60.0004426236,MAFE4ImagesEEG,001,102608,
AFNE01.JPG,AFNE01.JPG,AFNE01.JPG,AFNE01.JPG,AFNE01.JPG,AFNE01.JPG,,,,,0,3,3,3,,,,,,,,,,,,,,,,,,,AFSA06.jpg,AFNE06.jpg,AFNE20.jpg,AFSA08.jpg,AFNE20.jpg,FN,3,num_2,32,num_4,2.46656341,,,2018_Jan_24_1827,60.0004426236,MAFE4ImagesEEG,001,102608,
AFNE01.JPG,AFNE01.JPG,AFNE01.JPG,AFNE01.JPG,AFNE01.JPG,AFNE01.JPG,,,,,0,4,4,0,,,,,,,,,,,,,,,,,,,AFNE03.jpg,AFSA02.jpg,AFNE05.jpg,AFSA18.jpg,AFNE03.jpg,FN,3,num_8,16,num_8,1.10008092252,,,2018_Jan_24_1827,60.0004426236,MAFE4ImagesEEG,001,102608,
AFNE01.JPG,AFNE01.JPG,AFNE01.JPG,AFNE01.JPG,AFNE01.JPG,AFNE01.JPG,,,,,0,5,5,7,,,,,,,,,,,,,,,,,,,AFNE04.jpg,AFSA13.jpg,AFNE13.jpg,AFSA01.jpg,AFSA13.jpg,FS,4,num_6,32,num_4,1.31675250185,,,2018_Jan_24_1827,60.0004426236,MAFE4ImagesEEG,001,102608,
AFNE01.JPG,AFNE01.JPG,AFNE01.JPG,AFNE01.JPG,AFNE01.JPG,AFNE01.JPG,,,,,0,6,6,4,,,,,,,,,,,,,,,,,,,AFSA02.jpg,AFNE03.jpg,AFSA04.jpg,AFNE14.jpg,AFSA04.jpg,FS,4,num_2,32,num_8,0.866771313205,,,2018_Jan_24_1827,60.0004426236,MAFE4ImagesEEG,001,102608,
AFNE01.JPG,AFNE01.JPG,AFNE01.JPG,AFNE01.JPG,AFNE01.JPG,AFNE01.JPG,,,,,0,7,7,9,,,,,,,,,,,,,,,,,,,AFNE17.jpg,AFSA15.jpg,AFNE07.jpg,AFSA01.jpg,AFNE17.jpg,FN,3,num_8,32,num_2,0.966767881295,,,2018_Jan_24_1827,60.0004426236,MAFE4ImagesEEG,001,102608,
AFNE01.JPG,AFNE01.JPG,AFNE01.JPG,AFNE01.JPG,AFNE01.JPG,AFNE01.JPG,,,,,0,8,8,2,,,,,,,,,,,,,,,,,,,AFSA14.jpg,AFSA05.jpg,AFNE02.jpg,AFNE12.jpg,AFNE02.jpg,FN,3,num_2,32,num_8,1.45011525766,,,2018_Jan_24_1827,60.0004426236,MAFE4ImagesEEG,001,102608,
AFNE01.JPG,AFNE01.JPG,AFNE01.JPG,AFNE01.JPG,AFNE01.JPG,AFNE01.JPG,,,,,0,9,9,6,,,,,,,,,,,,,,,,,,,AFNE02.jpg,AFSA11.jpg,AFNE13.jpg,AFSA01.jpg,AFNE13.jpg,FN,3,num_2,16,num_2,0.866831291452,,,2018_Jan_24_1827,60.0004426236,MAFE4ImagesEEG,001,102608,
AFNE01.JPG,AFNE01.JPG,AFNE01.JPG,AFNE01.JPG,AFNE01.JPG,AFNE01.JPG,,,,,1,0,10,1,,,,,,,,,,,,,,,,,,,AFNE08.jpg,AFSA14.jpg,AFSA03.jpg,AFNE11.jpg,AFSA14.jpg,FS,4,num_6,32,num_4,1.94990789971,,,2018_Jan_24_1827,60.0004426236,MAFE4ImagesEEG,001,102608,
AFNE01.JPG,AFNE01.JPG,AFNE01.JPG,AFNE01.JPG,AFNE01.JPG,AFNE01.JPG,,,,,1,1,11,2,,,,,,,,,,,,,,,,,,,AFSA20.jpg,AFNE15.jpg,AFSA11.jpg,AFNE06.jpg,AFSA11.jpg,FS,4,num_2,32,num_8,0.850182035585,,,2018_Jan_24_1827,60.0004426236,MAFE4ImagesEEG,001,102608,
AFNE01.JPG,AFNE01.JPG,AFNE01.JPG,AFNE01.JPG,AFNE01.JPG,AFNE01.JPG,,,,,1,2,12,4,,,,,,,,,,,,,,,,,,,AFSA15.jpg,AFSA10.jpg,AFNE02.jpg,AFNE16.jpg,AFSA10.jpg,FS,4,num_6,32,num_8,1.38338480665,,,2018_Jan_24_1827,60.0004426236,MAFE4ImagesEEG,001,102608,
AFNE01.JPG,AFNE01.JPG,AFNE01.JPG,AFNE01.JPG,AFNE01.JPG,AFNE01.JPG,,,,,1,3,13,3,,,,,,,,,,,,,,,,,,,AFSA14.jpg,AFNE12.jpg,AFNE18.jpg,AFSA13.jpg,AFNE18.jpg,FN,3,num_2,32,num_8,1.91671202455,,,2018_Jan_24_1827,60.0004426236,MAFE4ImagesEEG,001,102608,
AFNE01.JPG,AFNE01.JPG,AFNE01.JPG,AFNE01.JPG,AFNE01.JPG,AFNE01.JPG,,,,,1,4,14,6,,,,,,,,,,,,,,,,,,,AFSA14.jpg,AFNE13.jpg,AFSA04.jpg,AFNE14.jpg,AFNE13.jpg,FN,3,num_6,32,num_8,2.74997698695,,,2018_Jan_24_1827,60.0004426236,MAFE4ImagesEEG,001,102608,
AFNE01.JPG,AFNE01.JPG,AFNE01.JPG,AFNE01.JPG,AFNE01.JPG,AFNE01.JPG,,,,,1,5,15,7,,,,,,,,,,,,,,,,,,,AFSA18.jpg,AFSA10.jpg,AFNE18.jpg,AFNE03.jpg,AFSA10.jpg,FS,4,num_6,32,num_8,1.0167336103,,,2018_Jan_24_1827,60.0004426236,MAFE4ImagesEEG,001,102608,
AFNE01.JPG,AFNE01.JPG,AFNE01.JPG,AFNE01.JPG,AFNE01.JPG,AFNE01.JPG,,,,,1,6,16,0,,,,,,,,,,,,,,,,,,,AFNE06.jpg,AFSA09.jpg,AFSA11.jpg,AFNE08.jpg,AFSA11.jpg,FS,4,num_2,32,num_8,1.10013673116,,,2018_Jan_24_1827,60.0004426236,MAFE4ImagesEEG,001,102608,
AFNE01.JPG,AFNE01.JPG,AFNE01.JPG,AFNE01.JPG,AFNE01.JPG,AFNE01.JPG,,,,,1,7,17,9,,,,,,,,,,,,,,,,,,,AFSA17.jpg,AFNE09.jpg,AFNE12.jpg,AFSA18.jpg,AFNE12.jpg,FN,3,num_2,16,num_2,1.03349608714,,,2018_Jan_24_1827,60.0004426236,MAFE4ImagesEEG,001,102608,
AFNE01.JPG,AFNE01.JPG,AFNE01.JPG,AFNE01.JPG,AFNE01.JPG,AFNE01.JPG,,,,,1,8,18,8,,,,,,,,,,,,,,,,,,,AFNE15.jpg,AFNE12.jpg,AFSA10.jpg,AFSA02.jpg,AFSA10.jpg,FS,4,num_2,32,num_8,1.1167734782,,,2018_Jan_24_1827,60.0004426236,MAFE4ImagesEEG,001,102608,
AFNE01.JPG,AFNE01.JPG,AFNE01.JPG,AFNE01.JPG,AFNE01.JPG,AFNE01.JPG,,,,,1,9,19,5,,,,,,,,,,,,,,,,,,,AFSA11.jpg,AFNE13.jpg,AFSA05.jpg,AFNE14.jpg,AFNE14.jpg,FN,3,num_4,16,num_4,2.08330497463,,,2018_Jan_24_1827,60.0004426236,MAFE4ImagesEEG,001,102608,
AFNE01.JPG,AFNE01.JPG,AFNE01.JPG,AFNE01.JPG,AFNE01.JPG,AFNE01.JPG,,,,,2,0,20,3,,,,,,,,,,,,,,,,,,,AFSA13.jpg,AFSA08.jpg,AFNE02.jpg,AFNE17.jpg,AFSA13.jpg,FS,4,num_8,16,num_8,2.56664144587,,,2018_Jan_24_1827,60.0004426236,MAFE4ImagesEEG,001,102608,
AFNE01.JPG,AFNE01.JPG,AFNE01.JPG,AFNE01.JPG,AFNE01.JPG,AFNE01.JPG,,,,,2,1,21,2,,,,,,,,,,,,,,,,,,,AFSA07.jpg,AFSA15.jpg,AFNE15.jpg,AFNE04.jpg,AFNE15.jpg,FN,3,num_2,16,num_2,2.18338268976,,,2018_Jan_24_1827,60.0004426236,MAFE4ImagesEEG,001,102608,
AFNE01.JPG,AFNE01.JPG,AFNE01.JPG,AFNE01.JPG,AFNE01.JPG,AFNE01.JPG,,,,,2,2,22,1,,,,,,,,,,,,,,,,,,,AFSA05.jpg,AFSA18.jpg,AFNE15.jpg,AFNE02.jpg,AFNE02.jpg,FN,3,num_4,32,num_8,2.88299911765,,,2018_Jan_24_1827,60.0004426236,MAFE4ImagesEEG,001,102608,
AFNE01.JPG,AFNE01.JPG,AFNE01.JPG,AFNE01.JPG,AFNE01.JPG,AFNE01.JPG,,,,,2,3,23,4,,,,,,,,,,,,,,,,,,,AFNE06.jpg,AFNE16.jpg,AFSA16.jpg,AFSA14.jpg,AFNE06.jpg,FN,3,num_8,16,num_8,1.81677383101,,,2018_Jan_24_1827,60.0004426236,MAFE4ImagesEEG,001,102608,
AFNE01.JPG,AFNE01.JPG,AFNE01.JPG,AFNE01.JPG,AFNE01.JPG,AFNE01.JPG,,,,,2,4,24,7,,,,,,,,,,,,,,,,,,,AFSA11.jpg,AFNE05.jpg,AFSA12.jpg,AFNE02.jpg,AFNE02.jpg,FN,3,num_4,16,num_4,1.58346261799,,,2018_Jan_24_1827,60.0004426236,MAFE4ImagesEEG,001,102608,
AFNE01.JPG,AFNE01.JPG,AFNE01.JPG,AFNE01.JPG,AFNE01.JPG,AFNE01.JPG,,,,,2,5,25,8,,,,,,,,,,,,,,,,,,,AFSA16.jpg,AFNE15.jpg,AFNE14.jpg,AFSA02.jpg,AFNE15.jpg,FN,3,num_6,32,num_8,0.850111472941,,,2018_Jan_24_1827,60.0004426236,MAFE4ImagesEEG,001,102608,
AFNE01.JPG,AFNE01.JPG,AFNE01.JPG,AFNE01.JPG,AFNE01.JPG,AFNE01.JPG,,,,,2,6,26,6,,,,,,,,,,,,,,,,,,,AFNE11.jpg,AFSA15.jpg,AFNE13.jpg,AFSA05.jpg,AFNE13.jpg,FN,3,num_2,32,num_4,1.40007960749,,,2018_Jan_24_1827,60.0004426236,MAFE4ImagesEEG,001,102608,
AFNE01.JPG,AFNE01.JPG,AFNE01.JPG,AFNE01.JPG,AFNE01.JPG,AFNE01.JPG,,,,,2,7,27,9,,,,,,,,,,,,,,,,,,,AFNE16.jpg,AFSA07.jpg,AFSA16.jpg,AFNE02.jpg,AFSA16.jpg,FS,4,num_2,32,num_4,3.46655763669,,,2018_Jan_24_1827,60.0004426236,MAFE4ImagesEEG,001,102608,
AFNE01.JPG,AFNE01.JPG,AFNE01.JPG,AFNE01.JPG,AFNE01.JPG,AFNE01.JPG,,,,,2,8,28,0,,,,,,,,,,,,,,,,,,,AFNE09.jpg,AFNE16.jpg,AFSA05.jpg,AFSA04.jpg,AFNE09.jpg,FN,3,num_8,16,num_8,1.05010236394,,,2018_Jan_24_1827,60.0004426236,MAFE4ImagesEEG,001,102608,
AFNE01.JPG,AFNE01.JPG,AFNE01.JPG,AFNE01.JPG,AFNE01.JPG,AFNE01.JPG,,,,,2,9,29,5,,,,,,,,,,,,,,,,,,,AFNE18.jpg,AFSA04.jpg,AFNE20.jpg,AFSA10.jpg,AFNE18.jpg,FN,3,num_8,16,num_8,2.49999534928,,,2018_Jan_24_1827,60.0004426236,MAFE4ImagesEEG,001,102608,
AFNE01.JPG,AFNE01.JPG,AFNE01.JPG,AFNE01.JPG,AFNE01.JPG,AFNE01.JPG,,,,,3,0,30,1,,,,,,,,,,,,,,,,,,,AFSA01.jpg,AFSA13.jpg,AFNE14.jpg,AFNE10.jpg,AFSA01.jpg,FS,4,num_8,16,num_8,1.53339040354,,,2018_Jan_24_1827,60.0004426236,MAFE4ImagesEEG,001,102608,
AFNE01.JPG,AFNE01.JPG,AFNE01.JPG,AFNE01.JPG,AFNE01.JPG,AFNE01.JPG,,,,,3,1,31,6,,,,,,,,,,,,,,,,,,,AFNE15.jpg,AFSA02.jpg,AFNE05.jpg,AFSA08.jpg,AFNE05.jpg,FN,3,num_2,16,num_2,1.35011099183,,,2018_Jan_24_1827,60.0004426236,MAFE4ImagesEEG,001,102608,
AFNE01.JPG,AFNE01.JPG,AFNE01.JPG,AFNE01.JPG,AFNE01.JPG,AFNE01.JPG,,,,,3,2,32,0,,,,,,,,,,,,,,,,,,,AFNE01.jpg,AFSA16.jpg,AFNE20.jpg,AFSA01.jpg,AFNE01.jpg,FN,3,num_8,32,num_4,3.23332981589,,,2018_Jan_24_1827,60.0004426236,MAFE4ImagesEEG,001,102608,
AFNE01.JPG,AFNE01.JPG,AFNE01.JPG,AFNE01.JPG,AFNE01.JPG,AFNE01.JPG,,,,,3,3,33,5,,,,,,,,,,,,,,,,,,,AFNE20.jpg,AFSA08.jpg,AFSA03.jpg,AFNE11.jpg,AFNE20.jpg,FN,3,num_8,16,num_8,0.683472015655,,,2018_Jan_24_1827,60.0004426236,MAFE4ImagesEEG,001,102608,
AFNE01.JPG,AFNE01.JPG,AFNE01.JPG,AFNE01.JPG,AFNE01.JPG,AFNE01.JPG,,,,,3,4,34,4,,,,,,,,,,,,,,,,,,,AFSA06.jpg,AFNE16.jpg,AFNE05.jpg,AFSA19.jpg,AFNE05.jpg,FN,3,num_2,32,num_8,1.35007635199,,,2018_Jan_24_1827,60.0004426236,MAFE4ImagesEEG,001,102608,
AFNE01.JPG,AFNE01.JPG,AFNE01.JPG,AFNE01.JPG,AFNE01.JPG,AFNE01.JPG,,,,,3,5,35,2,,,,,,,,,,,,,,,,,,,AFSA09.jpg,AFNE03.jpg,AFNE12.jpg,AFSA03.jpg,AFNE03.jpg,FN,3,num_6,32,num_8,1.11675166793,,,2018_Jan_24_1827,60.0004426236,MAFE4ImagesEEG,001,102608,
AFNE01.JPG,AFNE01.JPG,AFNE01.JPG,AFNE01.JPG,AFNE01.JPG,AFNE01.JPG,,,,,3,6,36,3,,,,,,,,,,,,,,,,,,,AFSA16.jpg,AFSA04.jpg,AFNE02.jpg,AFNE03.jpg,AFSA16.jpg,FS,4,num_8,16,num_8,0.833465745203,,,2018_Jan_24_1827,60.0004426236,MAFE4ImagesEEG,001,102608,
AFNE01.JPG,AFNE01.JPG,AFNE01.JPG,AFNE01.JPG,AFNE01.JPG,AFNE01.JPG,,,,,3,7,37,7,,,,,,,,,,,,,,,,,,,AFSA09.jpg,AFNE08.jpg,AFNE16.jpg,AFSA19.jpg,AFNE08.jpg,FN,3,num_6,32,num_4,1.68336777539,,,2018_Jan_24_1827,60.0004426236,MAFE4ImagesEEG,001,102608,
AFNE01.JPG,AFNE01.JPG,AFNE01.JPG,AFNE01.JPG,AFNE01.JPG,AFNE01.JPG,,,,,3,8,38,8,,,,,,,,,,,,,,,,,,,AFSA12.jpg,AFNE15.jpg,AFNE04.jpg,AFSA14.jpg,AFSA14.jpg,FS,4,num_4,32,num_8,1.46672121373,,,2018_Jan_24_1827,60.0004426236,MAFE4ImagesEEG,001,102608,
AFNE01.JPG,AFNE01.JPG,AFNE01.JPG,AFNE01.JPG,AFNE01.JPG,AFNE01.JPG,,,,,3,9,39,9,,,,,,,,,,,,,,,,,,,AFNE07.jpg,AFNE18.jpg,AFSA05.jpg,AFSA03.jpg,AFSA03.jpg,FS,4,num_4,32,num_8,2.25002365452,,,2018_Jan_24_1827,60.0004426236,MAFE4ImagesEEG,001,102608,
AFNE01.JPG,AFNE01.JPG,AFNE01.JPG,AFNE01.JPG,AFNE01.JPG,AFNE01.JPG,,,,,4,0,40,2,,,,,,,,,,,,,,,,,,,AFSA19.jpg,AFSA14.jpg,AFNE02.jpg,AFNE07.jpg,AFSA14.jpg,FS,4,num_6,32,num_4,1.93339559952,,,2018_Jan_24_1827,60.0004426236,MAFE4ImagesEEG,001,102608,
AFNE01.JPG,AFNE01.JPG,AFNE01.JPG,AFNE01.JPG,AFNE01.JPG,AFNE01.JPG,,,,,4,1,41,4,,,,,,,,,,,,,,,,,,,AFNE15.jpg,AFSA06.jpg,AFNE17.jpg,AFSA12.jpg,AFSA06.jpg,FS,4,num_6,32,num_4,2.01667138688,,,2018_Jan_24_1827,60.0004426236,MAFE4ImagesEEG,001,102608,
AFNE01.JPG,AFNE01.JPG,AFNE01.JPG,AFNE01.JPG,AFNE01.JPG,AFNE01.JPG,,,,,4,2,42,6,,,,,,,,,,,,,,,,,,,AFNE09.jpg,AFSA14.jpg,AFNE20.jpg,AFSA11.jpg,AFSA14.jpg,FS,4,num_6,32,num_4,1.58344658103,,,2018_Jan_24_1827,60.0004426236,MAFE4ImagesEEG,001,102608,
AFNE01.JPG,AFNE01.JPG,AFNE01.JPG,AFNE01.JPG,AFNE01.JPG,AFNE01.JPG,,,,,4,3,43,0,,,,,,,,,,,,,,,,,,,AFSA11.jpg,AFSA09.jpg,AFNE19.jpg,AFNE13.jpg,AFSA09.jpg,FS,4,num_6,32,num_4,3.36663612159,,,2018_Jan_24_1827,60.0004426236,MAFE4ImagesEEG,001,102608,
AFNE01.JPG,AFNE01.JPG,AFNE01.JPG,AFNE01.JPG,AFNE01.JPG,AFNE01.JPG,,,,,4,4,44,1,,,,,,,,,,,,,,,,,,,AFSA05.jpg,AFSA20.jpg,AFNE01.jpg,AFNE09.jpg,AFNE01.jpg,FN,3,num_2,32,num_4,2.28334525949,,,2018_Jan_24_1827,60.0004426236,MAFE4ImagesEEG,001,102608,
AFNE01.JPG,AFNE01.JPG,AFNE01.JPG,AFNE01.JPG,AFNE01.JPG,AFNE01.JPG,,,,,4,5,45,5,,,,,,,,,,,,,,,,,,,AFNE16.jpg,AFNE19.jpg,AFSA19.jpg,AFSA09.jpg,AFSA19.jpg,FS,4,num_2,32,num_8,1.45008029708,,,2018_Jan_24_1827,60.0004426236,MAFE4ImagesEEG,001,102608,
AFNE01.JPG,AFNE01.JPG,AFNE01.JPG,AFNE01.JPG,AFNE01.JPG,AFNE01.JPG,,,,,4,6,46,7,,,,,,,,,,,,,,,,,,,AFSA18.jpg,AFNE15.jpg,AFNE01.jpg,AFSA04.jpg,AFNE15.jpg,FN,3,num_6,32,num_8,2.74996864773,,,2018_Jan_24_1827,60.0004426236,MAFE4ImagesEEG,001,102608,
AFNE01.JPG,AFNE01.JPG,AFNE01.JPG,AFNE01.JPG,AFNE01.JPG,AFNE01.JPG,,,,,4,7,47,9,,,,,,,,,,,,,,,,,,,AFSA19.jpg,AFSA12.jpg,AFNE12.jpg,AFNE03.jpg,AFNE03.jpg,FN,3,num_4,32,num_2,1.23356780445,,,2018_Jan_24_1827,60.0004426236,MAFE4ImagesEEG,001,102608,
AFNE01.JPG,AFNE01.JPG,AFNE01.JPG,AFNE01.JPG,AFNE01.JPG,AFNE01.JPG,,,,,4,8,48,8,,,,,,,,,,,,,,,,,,,AFNE16.jpg,AFSA14.jpg,AFNE14.jpg,AFSA06.jpg,AFSA14.jpg,FS,4,num_6,32,num_8,3.58327402329,,,2018_Jan_24_1827,60.0004426236,MAFE4ImagesEEG,001,102608,
AFNE01.JPG,AFNE01.JPG,AFNE01.JPG,AFNE01.JPG,AFNE01.JPG,AFNE01.JPG,,,,,4,9,49,3,,,,,,,,,,,,,,,,,,,AFNE05.jpg,AFSA16.jpg,AFNE11.jpg,AFSA09.jpg,AFSA16.jpg,FS,4,num_6,32,num_2,1.4334121176,,,2018_Jan_24_1827,60.0004426236,MAFE4ImagesEEG,001,102608,
AFNE01.JPG,AFNE01.JPG,AFNE01.JPG,AFNE01.JPG,AFNE01.JPG,AFNE01.JPG,,,,,5,0,50,2,,,,,,,,,,,,,,,,,,,AFNE14.jpg,AFSA17.jpg,AFNE04.jpg,AFSA09.jpg,AFSA17.jpg,FS,4,num_6,32,num_8,2.79971499107,,,2018_Jan_24_1827,60.0004426236,MAFE4ImagesEEG,001,102608,
AFNE01.JPG,AFNE01.JPG,AFNE01.JPG,AFNE01.JPG,AFNE01.JPG,AFNE01.JPG,,,,,5,1,51,6,,,,,,,,,,,,,,,,,,,AFNE13.jpg,AFSA13.jpg,AFSA12.jpg,AFNE04.jpg,AFNE13.jpg,FN,3,num_8,32,num_2,1.08348041902,,,2018_Jan_24_1827,60.0004426236,MAFE4ImagesEEG,001,102608,
AFNE01.JPG,AFNE01.JPG,AFNE01.JPG,AFNE01.JPG,AFNE01.JPG,AFNE01.JPG,,,,,5,2,52,9,,,,,,,,,,,,,,,,,,,AFNE04.jpg,AFSA12.jpg,AFNE16.jpg,AFSA03.jpg,AFNE04.jpg,FN,3,num_8,16,num_8,1.0001019951,,,2018_Jan_24_1827,60.0004426236,MAFE4ImagesEEG,001,102608,
AFNE01.JPG,AFNE01.JPG,AFNE01.JPG,AFNE01.JPG,AFNE01.JPG,AFNE01.JPG,,,,,5,3,53,5,,,,,,,,,,,,,,,,,,,AFNE02.jpg,AFSA15.jpg,AFNE10.jpg,AFSA11.jpg,AFSA11.jpg,FS,4,num_4,32,num_8,2.38334022388,,,2018_Jan_24_1827,60.0004426236,MAFE4ImagesEEG,001,102608,
AFNE01.JPG,AFNE01.JPG,AFNE01.JPG,AFNE01.JPG,AFNE01.JPG,AFNE01.JPG,,,,,5,4,54,3,,,,,,,,,,,,,,,,,,,AFNE15.jpg,AFSA11.jpg,AFSA14.jpg,AFNE06.jpg,AFSA14.jpg,FS,4,num_2,32,num_8,1.15012202526,,,2018_Jan_24_1827,60.0004426236,MAFE4ImagesEEG,001,102608,
AFNE01.JPG,AFNE01.JPG,AFNE01.JPG,AFNE01.JPG,AFNE01.JPG,AFNE01.JPG,,,,,5,5,55,7,,,,,,,,,,,,,,,,,,,AFNE09.jpg,AFNE15.jpg,AFSA04.jpg,AFSA08.jpg,AFNE15.jpg,FN,3,num_6,48,None,,,,2018_Jan_24_1827,60.0004426236,MAFE4ImagesEEG,001,102608,
AFNE01.JPG,AFNE01.JPG,AFNE01.JPG,AFNE01.JPG,AFNE01.JPG,AFNE01.JPG,,,,,5,6,56,8,,,,,,,,,,,,,,,,,,,AFSA11.jpg,AFNE16.jpg,AFSA07.jpg,AFNE10.jpg,AFSA07.jpg,FS,4,num_2,32,num_4,1.08343904366,,,2018_Jan_24_1827,60.0004426236,MAFE4ImagesEEG,001,102608,
AFNE01.JPG,AFNE01.JPG,AFNE01.JPG,AFNE01.JPG,AFNE01.JPG,AFNE01.JPG,,,,,5,7,57,4,,,,,,,,,,,,,,,,,,,AFNE11.jpg,AFSA15.jpg,AFNE07.jpg,AFSA20.jpg,AFSA15.jpg,FS,4,num_6,32,num_8,0.916766229489,,,2018_Jan_24_1827,60.0004426236,MAFE4ImagesEEG,001,102608,
AFNE01.JPG,AFNE01.JPG,AFNE01.JPG,AFNE01.JPG,AFNE01.JPG,AFNE01.JPG,,,,,5,8,58,1,,,,,,,,,,,,,,,,,,,AFSA02.jpg,AFNE04.jpg,AFSA11.jpg,AFNE13.jpg,AFNE13.jpg,FN,3,num_4,32,num_8,0.783509959114,,,2018_Jan_24_1827,60.0004426236,MAFE4ImagesEEG,001,102608,
AFNE01.JPG,AFNE01.JPG,AFNE01.JPG,AFNE01.JPG,AFNE01.JPG,AFNE01.JPG,,,,,5,9,59,0,,,,,,,,,,,,,,,,,,,AFSA14.jpg,AFNE04.jpg,AFSA04.jpg,AFNE14.jpg,AFNE14.jpg,FN,3,num_4,16,num_4,0.833517063493,,,2018_Jan_24_1827,60.0004426236,MAFE4ImagesEEG,001,102608,
,,,,,,,,,,,,,,,,,,,,,,,,,,,,,,,,,,,,,,,,,,,space,12.2655589828,2018_Jan_24_1827,60.0004426236,MAFE4ImagesEEG,001,102608,
AFNE01.JPG,AFNE01.JPG,AFNE01.JPG,AFNE01.JPG,AFNE01.JPG,AFNE01.JPG,,,,,,,,,0,0,0,8,,,,,,,,,,,,,,,AMSA05.jpg,AMNE02.jpg,AMNE18.jpg,AMSA16.jpg,AMSA16.jpg,MS,2,num_4,16,num_4,1.18371818306,,,2018_Jan_24_1827,60.0004426236,MAFE4ImagesEEG,001,102608,
AFNE01.JPG,AFNE01.JPG,AFNE01.JPG,AFNE01.JPG,AFNE01.JPG,AFNE01.JPG,,,,,,,,,0,1,1,4,,,,,,,,,,,,,,,AMNE08.jpg,AMNE13.jpg,AMSA07.jpg,AMSA13.jpg,AMSA13.jpg,MS,2,num_4,16,num_4,1.28346489524,,,2018_Jan_24_1827,60.0004426236,MAFE4ImagesEEG,001,102608,
AFNE01.JPG,AFNE01.JPG,AFNE01.JPG,AFNE01.JPG,AFNE01.JPG,AFNE01.JPG,,,,,,,,,0,2,2,9,,,,,,,,,,,,,,,AMSA11.jpg,AMNE13.jpg,AMSA05.jpg,AMNE06.jpg,AMSA11.jpg,MS,2,num_8,32,num_2,1.23345554569,,,2018_Jan_24_1827,60.0004426236,MAFE4ImagesEEG,001,102608,
AFNE01.JPG,AFNE01.JPG,AFNE01.JPG,AFNE01.JPG,AFNE01.JPG,AFNE01.JPG,,,,,,,,,0,3,3,3,,,,,,,,,,,,,,,AMNE17.jpg,AMSA20.jpg,AMSA17.jpg,AMNE08.jpg,AMNE08.jpg,MN,1,num_4,16,num_4,1.26675085004,,,2018_Jan_24_1827,60.0004426236,MAFE4ImagesEEG,001,102608,
AFNE01.JPG,AFNE01.JPG,AFNE01.JPG,AFNE01.JPG,AFNE01.JPG,AFNE01.JPG,,,,,,,,,0,4,4,6,,,,,,,,,,,,,,,AMSA13.jpg,AMNE03.jpg,AMSA06.jpg,AMNE11.jpg,AMSA13.jpg,MS,2,num_8,32,num_6,0.83343623719,,,2018_Jan_24_1827,60.0004426236,MAFE4ImagesEEG,001,102608,
AFNE01.JPG,AFNE01.JPG,AFNE01.JPG,AFNE01.JPG,AFNE01.JPG,AFNE01.JPG,,,,,,,,,0,5,5,2,,,,,,,,,,,,,,,AMSA10.jpg,AMNE05.jpg,AMNE11.jpg,AMSA05.jpg,AMSA05.jpg,MS,2,num_4,32,num_2,1.43346664327,,,2018_Jan_24_1827,60.0004426236,MAFE4ImagesEEG,001,102608,
AFNE01.JPG,AFNE01.JPG,AFNE01.JPG,AFNE01.JPG,AFNE01.JPG,AFNE01.JPG,,,,,,,,,0,6,6,5,,,,,,,,,,,,,,,AMSA17.jpg,AMNE08.jpg,AMNE20.jpg,AMSA16.jpg,AMSA17.jpg,MS,2,num_8,32,num_4,0.950236016008,,,2018_Jan_24_1827,60.0004426236,MAFE4ImagesEEG,001,102608,
AFNE01.JPG,AFNE01.JPG,AFNE01.JPG,AFNE01.JPG,AFNE01.JPG,AFNE01.JPG,,,,,,,,,0,7,7,0,,,,,,,,,,,,,,,AMSA03.jpg,AMSA01.jpg,AMNE01.jpg,AMNE15.jpg,AMSA01.jpg,MS,2,num_6,32,num_2,1.36672047603,,,2018_Jan_24_1827,60.0004426236,MAFE4ImagesEEG,001,102608,
AFNE01.JPG,AFNE01.JPG,AFNE01.JPG,AFNE01.JPG,AFNE01.JPG,AFNE01.JPG,,,,,,,,,0,8,8,7,,,,,,,,,,,,,,,AMSA05.jpg,AMNE19.jpg,AMNE15.jpg,AMSA17.jpg,AMNE15.jpg,MN,1,num_2,16,num_2,1.46674013734,,,2018_Jan_24_1827,60.0004426236,MAFE4ImagesEEG,001,102608,
AFNE01.JPG,AFNE01.JPG,AFNE01.JPG,AFNE01.JPG,AFNE01.JPG,AFNE01.JPG,,,,,,,,,0,9,9,1,,,,,,,,,,,,,,,AMNE20.jpg,AMSA06.jpg,AMSA13.jpg,AMNE15.jpg,AMNE15.jpg,MN,1,num_4,32,num_6,1.88346194444,,,2018_Jan_24_1827,60.0004426236,MAFE4ImagesEEG,001,102608,
AFNE01.JPG,AFNE01.JPG,AFNE01.JPG,AFNE01.JPG,AFNE01.JPG,AFNE01.JPG,,,,,,,,,1,0,10,5,,,,,,,,,,,,,,,AMNE20.jpg,AMSA02.jpg,AMSA16.jpg,AMNE02.jpg,AMSA16.jpg,MS,2,num_2,32,num_4,1.10009728023,,,2018_Jan_24_1827,60.0004426236,MAFE4ImagesEEG,001,102608,
AFNE01.JPG,AFNE01.JPG,AFNE01.JPG,AFNE01.JPG,AFNE01.JPG,AFNE01.JPG,,,,,,,,,1,1,11,0,,,,,,,,,,,,,,,AMNE13.jpg,AMNE09.jpg,AMSA15.jpg,AMSA01.jpg,AMNE09.jpg,MN,1,num_6,16,num_6,1.88340870172,,,2018_Jan_24_1827,60.0004426236,MAFE4ImagesEEG,001,102608,
AFNE01.JPG,AFNE01.JPG,AFNE01.JPG,AFNE01.JPG,AFNE01.JPG,AFNE01.JPG,,,,,,,,,1,2,12,9,,,,,,,,,,,,,,,AMSA12.jpg,AMNE14.jpg,AMNE11.jpg,AMSA16.jpg,AMSA12.jpg,MS,2,num_8,32,num_4,1.65008016879,,,2018_Jan_24_1827,60.0004426236,MAFE4ImagesEEG,001,102608,
AFNE01.JPG,AFNE01.JPG,AFNE01.JPG,AFNE01.JPG,AFNE01.JPG,AFNE01.JPG,,,,,,,,,1,3,13,3,,,,,,,,,,,,,,,AMSA04.jpg,AMNE07.jpg,AMNE04.jpg,AMSA11.jpg,AMSA04.jpg,MS,2,num_8,32,num_2,1.21674919823,,,2018_Jan_24_1827,60.0004426236,MAFE4ImagesEEG,001,102608,
AFNE01.JPG,AFNE01.JPG,AFNE01.JPG,AFNE01.JPG,AFNE01.JPG,AFNE01.JPG,,,,,,,,,1,4,14,8,,,,,,,,,,,,,,,AMNE20.jpg,AMNE11.jpg,AMSA09.jpg,AMSA20.jpg,AMNE11.jpg,MN,1,num_6,16,num_6,4.21649805937,,,2018_Jan_24_1827,60.0004426236,MAFE4ImagesEEG,001,102608,
AFNE01.JPG,AFNE01.JPG,AFNE01.JPG,AFNE01.JPG,AFNE01.JPG,AFNE01.JPG,,,,,,,,,1,5,15,1,,,,,,,,,,,,,,,AMNE04.jpg,AMSA01.jpg,AMSA19.jpg,AMNE13.jpg,AMSA01.jpg,MS,2,num_6,16,num_6,1.01676600497,,,2018_Jan_24_1827,60.0004426236,MAFE4ImagesEEG,001,102608,
AFNE01.JPG,AFNE01.JPG,AFNE01.JPG,AFNE01.JPG,AFNE01.JPG,AFNE01.JPG,,,,,,,,,1,6,16,2,,,,,,,,,,,,,,,AMSA15.jpg,AMNE08.jpg,AMNE09.jpg,AMSA07.jpg,AMSA15.jpg,MS,2,num_8,32,num_4,0.950139152741,,,2018_Jan_24_1827,60.0004426236,MAFE4ImagesEEG,001,102608,
AFNE01.JPG,AFNE01.JPG,AFNE01.JPG,AFNE01.JPG,AFNE01.JPG,AFNE01.JPG,,,,,,,,,1,7,17,6,,,,,,,,,,,,,,,AMSA05.jpg,AMSA01.jpg,AMNE02.jpg,AMNE04.jpg,AMNE04.jpg,MN,1,num_4,16,num_4,3.64962664343,,,2018_Jan_24_1827,60.0004426236,MAFE4ImagesEEG,001,102608,
AFNE01.JPG,AFNE01.JPG,AFNE01.JPG,AFNE01.JPG,AFNE01.JPG,AFNE01.JPG,,,,,,,,,1,8,18,4,,,,,,,,,,,,,,,AMSA05.jpg,AMNE14.jpg,AMNE01.jpg,AMSA01.jpg,AMNE14.jpg,MN,1,num_6,32,num_4,1.10009535579,,,2018_Jan_24_1827,60.0004426236,MAFE4ImagesEEG,001,102608,
AFNE01.JPG,AFNE01.JPG,AFNE01.JPG,AFNE01.JPG,AFNE01.JPG,AFNE01.JPG,,,,,,,,,1,9,19,7,,,,,,,,,,,,,,,AMSA06.jpg,AMNE07.jpg,AMSA01.jpg,AMNE10.jpg,AMNE10.jpg,MN,1,num_4,16,num_4,1.78367032876,,,2018_Jan_24_1827,60.0004426236,MAFE4ImagesEEG,001,102608,
AFNE01.JPG,AFNE01.JPG,AFNE01.JPG,AFNE01.JPG,AFNE01.JPG,AFNE01.JPG,,,,,,,,,2,0,20,3,,,,,,,,,,,,,,,AMNE15.jpg,AMSA10.jpg,AMSA08.jpg,AMNE13.jpg,AMNE13.jpg,MN,1,num_4,16,num_4,1.1667228495,,,2018_Jan_24_1827,60.0004426236,MAFE4ImagesEEG,001,102608,
AFNE01.JPG,AFNE01.JPG,AFNE01.JPG,AFNE01.JPG,AFNE01.JPG,AFNE01.JPG,,,,,,,,,2,1,21,0,,,,,,,,,,,,,,,AMSA02.jpg,AMNE05.jpg,AMSA15.jpg,AMNE08.jpg,AMSA02.jpg,MS,2,num_8,32,num_4,1.01680224851,,,2018_Jan_24_1827,60.0004426236,MAFE4ImagesEEG,001,102608,
AFNE01.JPG,AFNE01.JPG,AFNE01.JPG,AFNE01.JPG,AFNE01.JPG,AFNE01.JPG,,,,,,,,,2,2,22,1,,,,,,,,,,,,,,,AMNE05.jpg,AMSA14.jpg,AMNE20.jpg,AMSA12.jpg,AMSA14.jpg,MS,2,num_6,16,num_6,0.966765956859,,,2018_Jan_24_1827,60.0004426236,MAFE4ImagesEEG,001,102608,
AFNE01.JPG,AFNE01.JPG,AFNE01.JPG,AFNE01.JPG,AFNE01.JPG,AFNE01.JPG,,,,,,,,,2,3,23,2,,,,,,,,,,,,,,,AMSA05.jpg,AMNE02.jpg,AMSA14.jpg,AMNE19.jpg,AMSA05.jpg,MS,2,num_8,32,num_4,0.950089438149,,,2018_Jan_24_1827,60.0004426236,MAFE4ImagesEEG,001,102608,
AFNE01.JPG,AFNE01.JPG,AFNE01.JPG,AFNE01.JPG,AFNE01.JPG,AFNE01.JPG,,,,,,,,,2,4,24,9,,,,,,,,,,,,,,,AMSA17.jpg,AMNE11.jpg,AMSA12.jpg,AMNE15.jpg,AMSA17.jpg,MS,2,num_8,32,num_2,3.08326937258,,,2018_Jan_24_1827,60.0004426236,MAFE4ImagesEEG,001,102608,
AFNE01.JPG,AFNE01.JPG,AFNE01.JPG,AFNE01.JPG,AFNE01.JPG,AFNE01.JPG,,,,,,,,,2,5,25,6,,,,,,,,,,,,,,,AMSA03.jpg,AMSA15.jpg,AMNE09.jpg,AMNE13.jpg,AMSA15.jpg,MS,2,num_6,16,num_6,0.716747754905,,,2018_Jan_24_1827,60.0004426236,MAFE4ImagesEEG,001,102608,
AFNE01.JPG,AFNE01.JPG,AFNE01.JPG,AFNE01.JPG,AFNE01.JPG,AFNE01.JPG,,,,,,,,,2,6,26,5,,,,,,,,,,,,,,,AMSA02.jpg,AMNE17.jpg,AMNE01.jpg,AMSA16.jpg,AMNE01.jpg,MN,1,num_2,32,num_6,4.38325619019,,,2018_Jan_24_1827,60.0004426236,MAFE4ImagesEEG,001,102608,
AFNE01.JPG,AFNE01.JPG,AFNE01.JPG,AFNE01.JPG,AFNE01.JPG,AFNE01.JPG,,,,,,,,,2,7,27,4,,,,,,,,,,,,,,,AMSA14.jpg,AMNE04.jpg,AMNE08.jpg,AMSA16.jpg,AMSA14.jpg,MS,2,num_8,32,num_2,1.48341922197,,,2018_Jan_24_1827,60.0004426236,MAFE4ImagesEEG,001,102608,
AFNE01.JPG,AFNE01.JPG,AFNE01.JPG,AFNE01.JPG,AFNE01.JPG,AFNE01.JPG,,,,,,,,,2,8,28,7,,,,,,,,,,,,,,,AMSA01.jpg,AMNE11.jpg,AMSA10.jpg,AMNE14.jpg,AMSA10.jpg,MS,2,num_2,16,num_2,1.1668110528,,,2018_Jan_24_1827,60.0004426236,MAFE4ImagesEEG,001,102608,
AFNE01.JPG,AFNE01.JPG,AFNE01.JPG,AFNE01.JPG,AFNE01.JPG,AFNE01.JPG,,,,,,,,,2,9,29,8,,,,,,,,,,,,,,,AMSA14.jpg,AMSA04.jpg,AMNE05.jpg,AMNE08.jpg,AMNE05.jpg,MN,1,num_2,32,num_4,3.15020605896,,,2018_Jan_24_1827,60.0004426236,MAFE4ImagesEEG,001,102608,
AFNE01.JPG,AFNE01.JPG,AFNE01.JPG,AFNE01.JPG,AFNE01.JPG,AFNE01.JPG,,,,,,,,,3,0,30,0,,,,,,,,,,,,,,,AMNE06.jpg,AMSA18.jpg,AMNE19.jpg,AMSA08.jpg,AMSA18.jpg,MS,2,num_6,16,num_6,0.900162197857,,,2018_Jan_24_1827,60.0004426236,MAFE4ImagesEEG,001,102608,
AFNE01.JPG,AFNE01.JPG,AFNE01.JPG,AFNE01.JPG,AFNE01.JPG,AFNE01.JPG,,,,,,,,,3,1,31,7,,,,,,,,,,,,,,,AMSA16.jpg,AMNE18.jpg,AMSA12.jpg,AMNE10.jpg,AMSA16.jpg,MS,2,num_8,32,num_4,1.73337776642,,,2018_Jan_24_1827,60.0004426236,MAFE4ImagesEEG,001,102608,
AFNE01.JPG,AFNE01.JPG,AFNE01.JPG,AFNE01.JPG,AFNE01.JPG,AFNE01.JPG,,,,,,,,,3,2,32,5,,,,,,,,,,,,,,,AMSA14.jpg,AMSA04.jpg,AMNE09.jpg,AMNE12.jpg,AMSA14.jpg,MS,2,num_8,32,num_6,4.18319473654,,,2018_Jan_24_1827,60.0004426236,MAFE4ImagesEEG,001,102608,
AFNE01.JPG,AFNE01.JPG,AFNE01.JPG,AFNE01.JPG,AFNE01.JPG,AFNE01.JPG,,,,,,,,,3,3,33,2,,,,,,,,,,,,,,,AMSA06.jpg,AMNE12.jpg,AMSA10.jpg,AMNE20.jpg,AMNE20.jpg,MN,1,num_4,16,num_4,1.46676483427,,,2018_Jan_24_1827,60.0004426236,MAFE4ImagesEEG,001,102608,
AFNE01.JPG,AFNE01.JPG,AFNE01.JPG,AFNE01.JPG,AFNE01.JPG,AFNE01.JPG,,,,,,,,,3,4,34,8,,,,,,,,,,,,,,,AMSA19.jpg,AMNE13.jpg,AMSA01.jpg,AMNE20.jpg,AMNE13.jpg,MN,1,num_6,32,num_4,2.26666745782,,,2018_Jan_24_1827,60.0004426236,MAFE4ImagesEEG,001,102608,
AFNE01.JPG,AFNE01.JPG,AFNE01.JPG,AFNE01.JPG,AFNE01.JPG,AFNE01.JPG,,,,,,,,,3,5,35,4,,,,,,,,,,,,,,,AMNE16.jpg,AMNE12.jpg,AMSA19.jpg,AMSA13.jpg,AMSA19.jpg,MS,2,num_2,32,num_4,0.633476457897,,,2018_Jan_24_1827,60.0004426236,MAFE4ImagesEEG,001,102608,
AFNE01.JPG,AFNE01.JPG,AFNE01.JPG,AFNE01.JPG,AFNE01.JPG,AFNE01.JPG,,,,,,,,,3,6,36,3,,,,,,,,,,,,,,,AMNE14.jpg,AMNE07.jpg,AMSA07.jpg,AMSA13.jpg,AMNE14.jpg,MN,1,num_8,32,num_4,3.11657494058,,,2018_Jan_24_1827,60.0004426236,MAFE4ImagesEEG,001,102608,
AFNE01.JPG,AFNE01.JPG,AFNE01.JPG,AFNE01.JPG,AFNE01.JPG,AFNE01.JPG,,,,,,,,,3,7,37,1,,,,,,,,,,,,,,,AMNE09.jpg,AMSA04.jpg,AMSA18.jpg,AMNE03.jpg,AMSA18.jpg,MS,2,num_2,32,num_6,0.833510327964,,,2018_Jan_24_1827,60.0004426236,MAFE4ImagesEEG,001,102608,
AFNE01.JPG,AFNE01.JPG,AFNE01.JPG,AFNE01.JPG,AFNE01.JPG,AFNE01.JPG,,,,,,,,,3,8,38,9,,,,,,,,,,,,,,,AMNE11.jpg,AMSA09.jpg,AMSA20.jpg,AMNE20.jpg,AMSA20.jpg,MS,2,num_2,32,num_4,4.11649571797,,,2018_Jan_24_1827,60.0004426236,MAFE4ImagesEEG,001,102608,
AFNE01.JPG,AFNE01.JPG,AFNE01.JPG,AFNE01.JPG,AFNE01.JPG,AFNE01.JPG,,,,,,,,,3,9,39,6,,,,,,,,,,,,,,,AMSA04.jpg,AMNE08.jpg,AMSA11.jpg,AMNE01.jpg,AMSA11.jpg,MS,2,num_2,16,num_2,1.33343030351,,,2018_Jan_24_1827,60.0004426236,MAFE4ImagesEEG,001,102608,
AFNE01.JPG,AFNE01.JPG,AFNE01.JPG,AFNE01.JPG,AFNE01.JPG,AFNE01.JPG,,,,,,,,,4,0,40,6,,,,,,,,,,,,,,,AMNE13.jpg,AMSA14.jpg,AMNE19.jpg,AMSA11.jpg,AMSA14.jpg,MS,2,num_6,16,num_6,1.25009517938,,,2018_Jan_24_1827,60.0004426236,MAFE4ImagesEEG,001,102608,
AFNE01.JPG,AFNE01.JPG,AFNE01.JPG,AFNE01.JPG,AFNE01.JPG,AFNE01.JPG,,,,,,,,,4,1,41,1,,,,,,,,,,,,,,,AMSA14.jpg,AMNE10.jpg,AMSA10.jpg,AMNE15.jpg,AMSA14.jpg,MS,2,num_8,32,num_6,2.51663241706,,,2018_Jan_24_1827,60.0004426236,MAFE4ImagesEEG,001,102608,
AFNE01.JPG,AFNE01.JPG,AFNE01.JPG,AFNE01.JPG,AFNE01.JPG,AFNE01.JPG,,,,,,,,,4,2,42,2,,,,,,,,,,,,,,,AMNE05.jpg,AMNE12.jpg,AMSA10.jpg,AMSA11.jpg,AMNE12.jpg,MN,1,num_6,16,num_6,1.10014186299,,,2018_Jan_24_1827,60.0004426236,MAFE4ImagesEEG,001,102608,
AFNE01.JPG,AFNE01.JPG,AFNE01.JPG,AFNE01.JPG,AFNE01.JPG,AFNE01.JPG,,,,,,,,,4,3,43,0,,,,,,,,,,,,,,,AMSA06.jpg,AMNE16.jpg,AMSA20.jpg,AMNE13.jpg,AMNE16.jpg,MN,1,num_6,16,num_6,4.71646454211,,,2018_Jan_24_1827,60.0004426236,MAFE4ImagesEEG,001,102608,
AFNE01.JPG,AFNE01.JPG,AFNE01.JPG,AFNE01.JPG,AFNE01.JPG,AFNE01.JPG,,,,,,,,,4,4,44,8,,,,,,,,,,,,,,,AMSA12.jpg,AMNE06.jpg,AMSA16.jpg,AMNE04.jpg,AMNE06.jpg,MN,1,num_6,16,num_6,4.83283805841,,,2018_Jan_24_1827,60.0004426236,MAFE4ImagesEEG,001,102608,
AFNE01.JPG,AFNE01.JPG,AFNE01.JPG,AFNE01.JPG,AFNE01.JPG,AFNE01.JPG,,,,,,,,,4,5,45,7,,,,,,,,,,,,,,,AMSA11.jpg,AMSA18.jpg,AMNE14.jpg,AMNE11.jpg,AMNE14.jpg,MN,1,num_2,16,num_2,0.716790413233,,,2018_Jan_24_1827,60.0004426236,MAFE4ImagesEEG,001,102608,
AFNE01.JPG,AFNE01.JPG,AFNE01.JPG,AFNE01.JPG,AFNE01.JPG,AFNE01.JPG,,,,,,,,,4,6,46,9,,,,,,,,,,,,,,,AMNE09.jpg,AMSA04.jpg,AMNE18.jpg,AMSA08.jpg,AMNE18.jpg,MN,1,num_2,32,num_4,1.33335621274,,,2018_Jan_24_1827,60.0004426236,MAFE4ImagesEEG,001,102608,
AFNE01.JPG,AFNE01.JPG,AFNE01.JPG,AFNE01.JPG,AFNE01.JPG,AFNE01.JPG,,,,,,,,,4,7,47,5,,,,,,,,,,,,,,,AMNE09.jpg,AMNE15.jpg,AMSA15.jpg,AMSA09.jpg,AMSA09.jpg,MS,2,num_4,32,num_2,0.750266614537,,,2018_Jan_24_1827,60.0004426236,MAFE4ImagesEEG,001,102608,
AFNE01.JPG,AFNE01.JPG,AFNE01.JPG,AFNE01.JPG,AFNE01.JPG,AFNE01.JPG,,,,,,,,,4,8,48,4,,,,,,,,,,,,,,,AMNE12.jpg,AMNE15.jpg,AMSA06.jpg,AMSA01.jpg,AMNE12.jpg,MN,1,num_8,32,num_6,3.36656716265,,,2018_Jan_24_1827,60.0004426236,MAFE4ImagesEEG,001,102608,
AFNE01.JPG,AFNE01.JPG,AFNE01.JPG,AFNE01.JPG,AFNE01.JPG,AFNE01.JPG,,,,,,,,,4,9,49,3,,,,,,,,,,,,,,,AMNE17.jpg,AMSA07.jpg,AMNE10.jpg,AMSA17.jpg,AMSA17.jpg,MS,2,num_4,32,num_2,4.29985371081,,,2018_Jan_24_1827,60.0004426236,MAFE4ImagesEEG,001,102608,
AFNE01.JPG,AFNE01.JPG,AFNE01.JPG,AFNE01.JPG,AFNE01.JPG,AFNE01.JPG,,,,,,,,,5,0,50,5,,,,,,,,,,,,,,,AMNE20.jpg,AMSA19.jpg,AMNE09.jpg,AMSA16.jpg,AMNE09.jpg,MN,1,num_2,32,num_8,1.3667798128,,,2018_Jan_24_1827,60.0004426236,MAFE4ImagesEEG,001,102608,
AFNE01.JPG,AFNE01.JPG,AFNE01.JPG,AFNE01.JPG,AFNE01.JPG,AFNE01.JPG,,,,,,,,,5,1,51,1,,,,,,,,,,,,,,,AMNE12.jpg,AMSA19.jpg,AMSA18.jpg,AMNE15.jpg,AMSA18.jpg,MS,2,num_2,16,num_2,4.49982792337,,,2018_Jan_24_1827,60.0004426236,MAFE4ImagesEEG,001,102608,
AFNE01.JPG,AFNE01.JPG,AFNE01.JPG,AFNE01.JPG,AFNE01.JPG,AFNE01.JPG,,,,,,,,,5,2,52,4,,,,,,,,,,,,,,,AMSA05.jpg,AMNE09.jpg,AMNE02.jpg,AMSA04.jpg,AMNE02.jpg,MN,1,num_2,32,num_6,1.76641551711,,,2018_Jan_24_1827,60.0004426236,MAFE4ImagesEEG,001,102608,
AFNE01.JPG,AFNE01.JPG,AFNE01.JPG,AFNE01.JPG,AFNE01.JPG,AFNE01.JPG,,,,,,,,,5,3,53,3,,,,,,,,,,,,,,,AMNE08.jpg,AMSA16.jpg,AMSA01.jpg,AMNE14.jpg,AMSA01.jpg,MS,2,num_2,16,num_2,1.96670597861,,,2018_Jan_24_1827,60.0004426236,MAFE4ImagesEEG,001,102608,
AFNE01.JPG,AFNE01.JPG,AFNE01.JPG,AFNE01.JPG,AFNE01.JPG,AFNE01.JPG,,,,,,,,,5,4,54,6,,,,,,,,,,,,,,,AMNE08.jpg,AMNE14.jpg,AMSA09.jpg,AMSA08.jpg,AMNE14.jpg,MN,1,num_6,32,num_2,1.08347913607,,,2018_Jan_24_1827,60.0004426236,MAFE4ImagesEEG,001,102608,
AFNE01.JPG,AFNE01.JPG,AFNE01.JPG,AFNE01.JPG,AFNE01.JPG,AFNE01.JPG,,,,,,,,,5,5,55,0,,,,,,,,,,,,,,,AMNE18.jpg,AMNE10.jpg,AMSA20.jpg,AMSA01.jpg,AMNE18.jpg,MN,1,num_8,32,num_6,3.25010383935,,,2018_Jan_24_1827,60.0004426236,MAFE4ImagesEEG,001,102608,
AFNE01.JPG,AFNE01.JPG,AFNE01.JPG,AFNE01.JPG,AFNE01.JPG,AFNE01.JPG,,,,,,,,,5,6,56,7,,,,,,,,,,,,,,,AMSA14.jpg,AMNE02.jpg,AMSA20.jpg,AMNE08.jpg,AMNE08.jpg,MN,1,num_4,16,num_4,0.817146209327,,,2018_Jan_24_1827,60.0004426236,MAFE4ImagesEEG,001,102608,
AFNE01.JPG,AFNE01.JPG,AFNE01.JPG,AFNE01.JPG,AFNE01.JPG,AFNE01.JPG,,,,,,,,,5,7,57,2,,,,,,,,,,,,,,,AMSA12.jpg,AMSA15.jpg,AMNE01.jpg,AMNE08.jpg,AMNE01.jpg,MN,1,num_2,16,num_2,1.15009347947,,,2018_Jan_24_1827,60.0004426236,MAFE4ImagesEEG,001,102608,
AFNE01.JPG,AFNE01.JPG,AFNE01.JPG,AFNE01.JPG,AFNE01.JPG,AFNE01.JPG,,,,,,,,,5,8,58,8,,,,,,,,,,,,,,,AMNE17.jpg,AMNE19.jpg,AMSA12.jpg,AMSA14.jpg,AMNE17.jpg,MN,1,num_8,32,num_4,2.75016943053,,,2018_Jan_24_1827,60.0004426236,MAFE4ImagesEEG,001,102608,
AFNE01.JPG,AFNE01.JPG,AFNE01.JPG,AFNE01.JPG,AFNE01.JPG,AFNE01.JPG,,,,,,,,,5,9,59,9,,,,,,,,,,,,,,,AMNE17.jpg,AMSA06.jpg,AMSA04.jpg,AMNE04.jpg,AMSA04.jpg,MS,2,num_2,32,num_8,1.25012564962,,,2018_Jan_24_1827,60.0004426236,MAFE4ImagesEEG,001,102608,
,,,,,,,,,,,,,,,,,,,,,,,,,,,,,,,,,,,,,,,,,,,space,9.38279368413,2018_Jan_24_1827,60.0004426236,MAFE4ImagesEEG,001,102608,
AFNE01.JPG,AFNE01.JPG,AFNE01.JPG,AFNE01.JPG,AFNE01.JPG,AFNE01.JPG,,,,,,,,,,,,,0,0,0,6,,,,,,,,,,,AFSA09.jpg,AFSA14.jpg,AFNE17.jpg,AFNE20.jpg,AFSA14.jpg,FS,4,num_6,32,num_8,1.90010157814,,,2018_Jan_24_1827,60.0004426236,MAFE4ImagesEEG,001,102608,
AFNE01.JPG,AFNE01.JPG,AFNE01.JPG,AFNE01.JPG,AFNE01.JPG,AFNE01.JPG,,,,,,,,,,,,,0,1,1,3,,,,,,,,,,,AFSA04.jpg,AFNE17.jpg,AFSA15.jpg,AFNE14.jpg,AFSA04.jpg,FS,4,num_8,32,num_6,1.06684495494,,,2018_Jan_24_1827,60.0004426236,MAFE4ImagesEEG,001,102608,
AFNE01.JPG,AFNE01.JPG,AFNE01.JPG,AFNE01.JPG,AFNE01.JPG,AFNE01.JPG,,,,,,,,,,,,,0,2,2,9,,,,,,,,,,,AFSA12.jpg,AFNE12.jpg,AFSA03.jpg,AFNE14.jpg,AFSA03.jpg,FS,4,num_2,16,num_2,1.51674852468,,,2018_Jan_24_1827,60.0004426236,MAFE4ImagesEEG,001,102608,
AFNE01.JPG,AFNE01.JPG,AFNE01.JPG,AFNE01.JPG,AFNE01.JPG,AFNE01.JPG,,,,,,,,,,,,,0,3,3,4,,,,,,,,,,,AFNE09.jpg,AFSA09.jpg,AFSA10.jpg,AFNE14.jpg,AFNE14.jpg,FN,3,num_4,16,num_4,0.883464831095,,,2018_Jan_24_1827,60.0004426236,MAFE4ImagesEEG,001,102608,
AFNE01.JPG,AFNE01.JPG,AFNE01.JPG,AFNE01.JPG,AFNE01.JPG,AFNE01.JPG,,,,,,,,,,,,,0,4,4,2,,,,,,,,,,,AFNE02.jpg,AFNE03.jpg,AFSA19.jpg,AFSA04.jpg,AFSA19.jpg,FS,4,num_2,32,num_8,2.1000007377,,,2018_Jan_24_1827,60.0004426236,MAFE4ImagesEEG,001,102608,
AFNE01.JPG,AFNE01.JPG,AFNE01.JPG,AFNE01.JPG,AFNE01.JPG,AFNE01.JPG,,,,,,,,,,,,,0,5,5,1,,,,,,,,,,,AFNE16.jpg,AFSA15.jpg,AFNE20.jpg,AFSA18.jpg,AFNE20.jpg,FN,3,num_2,32,num_4,2.15011304456,,,2018_Jan_24_1827,60.0004426236,MAFE4ImagesEEG,001,102608,
AFNE01.JPG,AFNE01.JPG,AFNE01.JPG,AFNE01.JPG,AFNE01.JPG,AFNE01.JPG,,,,,,,,,,,,,0,6,6,5,,,,,,,,,,,AFSA01.jpg,AFNE16.jpg,AFNE18.jpg,AFSA09.jpg,AFSA01.jpg,FS,4,num_8,32,num_6,1.20014805326,,,2018_Jan_24_1827,60.0004426236,MAFE4ImagesEEG,001,102608,
AFNE01.JPG,AFNE01.JPG,AFNE01.JPG,AFNE01.JPG,AFNE01.JPG,AFNE01.JPG,,,,,,,,,,,,,0,7,7,8,,,,,,,,,,,AFSA17.jpg,AFSA09.jpg,AFNE15.jpg,AFNE14.jpg,AFNE14.jpg,FN,3,num_4,32,num_8,1.26674411452,,,2018_Jan_24_1827,60.0004426236,MAFE4ImagesEEG,001,102608,
AFNE01.JPG,AFNE01.JPG,AFNE01.JPG,AFNE01.JPG,AFNE01.JPG,AFNE01.JPG,,,,,,,,,,,,,0,8,8,0,,,,,,,,,,,AFSA14.jpg,AFNE19.jpg,AFNE03.jpg,AFSA16.jpg,AFNE03.jpg,FN,3,num_2,32,num_8,1.13325851555,,,2018_Jan_24_1827,60.0004426236,MAFE4ImagesEEG,001,102608,
AFNE01.JPG,AFNE01.JPG,AFNE01.JPG,AFNE01.JPG,AFNE01.JPG,AFNE01.JPG,,,,,,,,,,,,,0,9,9,7,,,,,,,,,,,AFSA02.jpg,AFSA08.jpg,AFNE10.jpg,AFNE09.jpg,AFSA08.jpg,FS,4,num_6,16,num_6,3.28328047015,,,2018_Jan_24_1827,60.0004426236,MAFE4ImagesEEG,001,102608,
AFNE01.JPG,AFNE01.JPG,AFNE01.JPG,AFNE01.JPG,AFNE01.JPG,AFNE01.JPG,,,,,,,,,,,,,1,0,10,5,,,,,,,,,,,AFNE01.jpg,AFNE07.jpg,AFSA08.jpg,AFSA07.jpg,AFNE07.jpg,FN,3,num_6,32,num_8,0.950112852119,,,2018_Jan_24_1827,60.0004426236,MAFE4ImagesEEG,001,102608,
AFNE01.JPG,AFNE01.JPG,AFNE01.JPG,AFNE01.JPG,AFNE01.JPG,AFNE01.JPG,,,,,,,,,,,,,1,1,11,4,,,,,,,,,,,AFNE20.jpg,AFSA05.jpg,AFNE05.jpg,AFSA02.jpg,AFNE20.jpg,FN,3,num_8,32,num_6,2.16666864456,,,2018_Jan_24_1827,60.0004426236,MAFE4ImagesEEG,001,102608,
AFNE01.JPG,AFNE01.JPG,AFNE01.JPG,AFNE01.JPG,AFNE01.JPG,AFNE01.JPG,,,,,,,,,,,,,1,2,12,1,,,,,,,,,,,AFNE16.jpg,AFSA19.jpg,AFNE13.jpg,AFSA08.jpg,AFNE16.jpg,FN,3,num_8,16,num_8,2.49984652625,,,2018_Jan_24_1827,60.0004426236,MAFE4ImagesEEG,001,102608,
AFNE01.JPG,AFNE01.JPG,AFNE01.JPG,AFNE01.JPG,AFNE01.JPG,AFNE01.JPG,,,,,,,,,,,,,1,3,13,9,,,,,,,,,,,AFSA05.jpg,AFSA08.jpg,AFNE07.jpg,AFNE20.jpg,AFNE20.jpg,FN,3,num_4,16,num_4,0.983435098566,,,2018_Jan_24_1827,60.0004426236,MAFE4ImagesEEG,001,102608,
AFNE01.JPG,AFNE01.JPG,AFNE01.JPG,AFNE01.JPG,AFNE01.JPG,AFNE01.JPG,,,,,,,,,,,,,1,4,14,6,,,,,,,,,,,AFSA05.jpg,AFNE02.jpg,AFSA20.jpg,AFNE04.jpg,AFNE04.jpg,FN,3,num_4,32,num_8,3.78324631142,,,2018_Jan_24_1827,60.0004426236,MAFE4ImagesEEG,001,102608,
AFNE01.JPG,AFNE01.JPG,AFNE01.JPG,AFNE01.JPG,AFNE01.JPG,AFNE01.JPG,,,,,,,,,,,,,1,5,15,3,,,,,,,,,,,AFNE18.jpg,AFSA08.jpg,AFNE20.jpg,AFSA02.jpg,AFSA02.jpg,FS,4,num_4,32,num_8,0.866834498844,,,2018_Jan_24_1827,60.0004426236,MAFE4ImagesEEG,001,102608,
AFNE01.JPG,AFNE01.JPG,AFNE01.JPG,AFNE01.JPG,AFNE01.JPG,AFNE01.JPG,,,,,,,,,,,,,1,6,16,7,,,,,,,,,,,AFSA13.jpg,AFNE10.jpg,AFNE18.jpg,AFSA05.jpg,AFSA13.jpg,FS,4,num_8,32,num_4,1.28344436793,,,2018_Jan_24_1827,60.0004426236,MAFE4ImagesEEG,001,102608,
AFNE01.JPG,AFNE01.JPG,AFNE01.JPG,AFNE01.JPG,AFNE01.JPG,AFNE01.JPG,,,,,,,,,,,,,1,7,17,0,,,,,,,,,,,AFNE14.jpg,AFSA03.jpg,AFSA14.jpg,AFNE15.jpg,AFSA14.jpg,FS,4,num_2,32,num_8,2.75002606007,,,2018_Jan_24_1827,60.0004426236,MAFE4ImagesEEG,001,102608,
AFNE01.JPG,AFNE01.JPG,AFNE01.JPG,AFNE01.JPG,AFNE01.JPG,AFNE01.JPG,,,,,,,,,,,,,1,8,18,8,,,,,,,,,,,AFNE01.jpg,AFSA17.jpg,AFNE18.jpg,AFSA18.jpg,AFNE01.jpg,FN,3,num_8,32,num_6,1.8333775419,,,2018_Jan_24_1827,60.0004426236,MAFE4ImagesEEG,001,102608,
AFNE01.JPG,AFNE01.JPG,AFNE01.JPG,AFNE01.JPG,AFNE01.JPG,AFNE01.JPG,,,,,,,,,,,,,1,9,19,2,,,,,,,,,,,AFNE16.jpg,AFSA09.jpg,AFNE01.jpg,AFSA14.jpg,AFSA14.jpg,FS,4,num_4,48,None,,,,2018_Jan_24_1827,60.0004426236,MAFE4ImagesEEG,001,102608,
AFNE01.JPG,AFNE01.JPG,AFNE01.JPG,AFNE01.JPG,AFNE01.JPG,AFNE01.JPG,,,,,,,,,,,,,2,0,20,7,,,,,,,,,,,AFSA18.jpg,AFNE10.jpg,AFSA10.jpg,AFNE02.jpg,AFSA18.jpg,FS,4,num_8,32,num_2,1.3499817339,,,2018_Jan_24_1827,60.0004426236,MAFE4ImagesEEG,001,102608,
AFNE01.JPG,AFNE01.JPG,AFNE01.JPG,AFNE01.JPG,AFNE01.JPG,AFNE01.JPG,,,,,,,,,,,,,2,1,21,9,,,,,,,,,,,AFSA08.jpg,AFNE04.jpg,AFNE18.jpg,AFSA12.jpg,AFSA12.jpg,FS,4,num_4,32,num_2,1.30006283283,,,2018_Jan_24_1827,60.0004426236,MAFE4ImagesEEG,001,102608,
AFNE01.JPG,AFNE01.JPG,AFNE01.JPG,AFNE01.JPG,AFNE01.JPG,AFNE01.JPG,,,,,,,,,,,,,2,2,22,2,,,,,,,,,,,AFSA02.jpg,AFSA08.jpg,AFNE09.jpg,AFNE11.jpg,AFSA08.jpg,FS,4,num_6,16,num_6,2.08333929374,,,2018_Jan_24_1827,60.0004426236,MAFE4ImagesEEG,001,102608,
AFNE01.JPG,AFNE01.JPG,AFNE01.JPG,AFNE01.JPG,AFNE01.JPG,AFNE01.JPG,,,,,,,,,,,,,2,3,23,1,,,,,,,,,,,AFNE03.jpg,AFSA20.jpg,AFSA19.jpg,AFNE20.jpg,AFNE03.jpg,FN,3,num_8,32,num_2,0.816793716844,,,2018_Jan_24_1827,60.0004426236,MAFE4ImagesEEG,001,102608,
AFNE01.JPG,AFNE01.JPG,AFNE01.JPG,AFNE01.JPG,AFNE01.JPG,AFNE01.JPG,,,,,,,,,,,,,2,4,24,5,,,,,,,,,,,AFNE20.jpg,AFSA04.jpg,AFSA16.jpg,AFNE18.jpg,AFNE20.jpg,FN,3,num_8,48,None,,,,2018_Jan_24_1827,60.0004426236,MAFE4ImagesEEG,001,102608,
AFNE01.JPG,AFNE01.JPG,AFNE01.JPG,AFNE01.JPG,AFNE01.JPG,AFNE01.JPG,,,,,,,,,,,,,2,5,25,4,,,,,,,,,,,AFSA08.jpg,AFNE08.jpg,AFSA02.jpg,AFNE07.jpg,AFSA02.jpg,FS,4,num_2,16,num_2,4.19991423432,,,2018_Jan_24_1827,60.0004426236,MAFE4ImagesEEG,001,102608,
AFNE01.JPG,AFNE01.JPG,AFNE01.JPG,AFNE01.JPG,AFNE01.JPG,AFNE01.JPG,,,,,,,,,,,,,2,6,26,6,,,,,,,,,,,AFNE04.jpg,AFSA06.jpg,AFNE05.jpg,AFSA03.jpg,AFNE04.jpg,FN,3,num_8,16,num_8,0.816769661396,,,2018_Jan_24_1827,60.0004426236,MAFE4ImagesEEG,001,102608,
AFNE01.JPG,AFNE01.JPG,AFNE01.JPG,AFNE01.JPG,AFNE01.JPG,AFNE01.JPG,,,,,,,,,,,,,2,7,27,3,,,,,,,,,,,AFNE05.jpg,AFSA19.jpg,AFSA14.jpg,AFNE08.jpg,AFNE08.jpg,FN,3,num_4,32,num_8,0.7496956986,,,2018_Jan_24_1827,60.0004426236,MAFE4ImagesEEG,001,102608,
AFNE01.JPG,AFNE01.JPG,AFNE01.JPG,AFNE01.JPG,AFNE01.JPG,AFNE01.JPG,,,,,,,,,,,,,2,8,28,0,,,,,,,,,,,AFSA18.jpg,AFSA06.jpg,AFNE14.jpg,AFNE18.jpg,AFSA06.jpg,FS,4,num_6,32,num_4,1.08346502354,,,2018_Jan_24_1827,60.0004426236,MAFE4ImagesEEG,001,102608,
AFNE01.JPG,AFNE01.JPG,AFNE01.JPG,AFNE01.JPG,AFNE01.JPG,AFNE01.JPG,,,,,,,,,,,,,2,9,29,8,,,,,,,,,,,AFNE12.jpg,AFSA19.jpg,AFSA03.jpg,AFNE13.jpg,AFNE12.jpg,FN,3,num_8,16,num_8,3.20020289968,,,2018_Jan_24_1827,60.0004426236,MAFE4ImagesEEG,001,102608,
AFNE01.JPG,AFNE01.JPG,AFNE01.JPG,AFNE01.JPG,AFNE01.JPG,AFNE01.JPG,,,,,,,,,,,,,3,0,30,0,,,,,,,,,,,AFNE19.jpg,AFNE17.jpg,AFSA05.jpg,AFSA08.jpg,AFNE17.jpg,FN,3,num_6,32,num_8,1.51671805444,,,2018_Jan_24_1827,60.0004426236,MAFE4ImagesEEG,001,102608,
AFNE01.JPG,AFNE01.JPG,AFNE01.JPG,AFNE01.JPG,AFNE01.JPG,AFNE01.JPG,,,,,,,,,,,,,3,1,31,1,,,,,,,,,,,AFSA08.jpg,AFNE12.jpg,AFSA04.jpg,AFNE13.jpg,AFSA04.jpg,FS,4,num_2,32,num_4,3.69991503616,,,2018_Jan_24_1827,60.0004426236,MAFE4ImagesEEG,001,102608,
AFNE01.JPG,AFNE01.JPG,AFNE01.JPG,AFNE01.JPG,AFNE01.JPG,AFNE01.JPG,,,,,,,,,,,,,3,2,32,7,,,,,,,,,,,AFSA09.jpg,AFSA04.jpg,AFNE19.jpg,AFNE10.jpg,AFSA09.jpg,FS,4,num_8,16,num_8,0.916735438517,,,2018_Jan_24_1827,60.0004426236,MAFE4ImagesEEG,001,102608,
AFNE01.JPG,AFNE01.JPG,AFNE01.JPG,AFNE01.JPG,AFNE01.JPG,AFNE01.JPG,,,,,,,,,,,,,3,3,33,3,,,,,,,,,,,AFNE08.jpg,AFNE04.jpg,AFSA20.jpg,AFSA19.jpg,AFSA19.jpg,FS,4,num_4,32,num_6,1.0667278851,,,2018_Jan_24_1827,60.0004426236,MAFE4ImagesEEG,001,102608,
AFNE01.JPG,AFNE01.JPG,AFNE01.JPG,AFNE01.JPG,AFNE01.JPG,AFNE01.JPG,,,,,,,,,,,,,3,4,34,4,,,,,,,,,,,AFNE13.jpg,AFSA10.jpg,AFSA04.jpg,AFNE08.jpg,AFSA10.jpg,FS,4,num_6,32,num_4,4.76644277995,,,2018_Jan_24_1827,60.0004426236,MAFE4ImagesEEG,001,102608,
AFNE01.JPG,AFNE01.JPG,AFNE01.JPG,AFNE01.JPG,AFNE01.JPG,AFNE01.JPG,,,,,,,,,,,,,3,5,35,8,,,,,,,,,,,AFNE07.jpg,AFNE02.jpg,AFSA03.jpg,AFSA10.jpg,AFNE02.jpg,FN,3,num_6,32,num_8,1.60001404838,,,2018_Jan_24_1827,60.0004426236,MAFE4ImagesEEG,001,102608,
AFNE01.JPG,AFNE01.JPG,AFNE01.JPG,AFNE01.JPG,AFNE01.JPG,AFNE01.JPG,,,,,,,,,,,,,3,6,36,6,,,,,,,,,,,AFNE02.jpg,AFSA08.jpg,AFSA01.jpg,AFNE10.jpg,AFSA08.jpg,FS,4,num_6,32,num_4,1.23302960391,,,2018_Jan_24_1827,60.0004426236,MAFE4ImagesEEG,001,102608,
AFNE01.JPG,AFNE01.JPG,AFNE01.JPG,AFNE01.JPG,AFNE01.JPG,AFNE01.JPG,,,,,,,,,,,,,3,7,37,5,,,,,,,,,,,AFNE12.jpg,AFSA14.jpg,AFSA01.jpg,AFNE11.jpg,AFSA01.jpg,FS,4,num_2,32,num_8,2.61669217078,,,2018_Jan_24_1827,60.0004426236,MAFE4ImagesEEG,001,102608,
AFNE01.JPG,AFNE01.JPG,AFNE01.JPG,AFNE01.JPG,AFNE01.JPG,AFNE01.JPG,,,,,,,,,,,,,3,8,38,2,,,,,,,,,,,AFSA02.jpg,AFSA08.jpg,AFNE02.jpg,AFNE06.jpg,AFNE06.jpg,FN,3,num_4,32,num_6,1.01681411586,,,2018_Jan_24_1827,60.0004426236,MAFE4ImagesEEG,001,102608,
AFNE01.JPG,AFNE01.JPG,AFNE01.JPG,AFNE01.JPG,AFNE01.JPG,AFNE01.JPG,,,,,,,,,,,,,3,9,39,9,,,,,,,,,,,AFNE09.jpg,AFNE15.jpg,AFSA04.jpg,AFSA18.jpg,AFSA18.jpg,FS,4,num_4,16,num_4,3.26658695226,,,2018_Jan_24_1827,60.0004426236,MAFE4ImagesEEG,001,102608,
AFNE01.JPG,AFNE01.JPG,AFNE01.JPG,AFNE01.JPG,AFNE01.JPG,AFNE01.JPG,,,,,,,,,,,,,4,0,40,6,,,,,,,,,,,AFSA01.jpg,AFSA09.jpg,AFNE02.jpg,AFNE11.jpg,AFNE02.jpg,FN,3,num_2,32,num_8,1.15011304456,,,2018_Jan_24_1827,60.0004426236,MAFE4ImagesEEG,001,102608,
AFNE01.JPG,AFNE01.JPG,AFNE01.JPG,AFNE01.JPG,AFNE01.JPG,AFNE01.JPG,,,,,,,,,,,,,4,1,41,4,,,,,,,,,,,AFSA20.jpg,AFSA02.jpg,AFNE02.jpg,AFNE07.jpg,AFSA02.jpg,FS,4,num_6,32,num_4,4.43316771425,,,2018_Jan_24_1827,60.0004426236,MAFE4ImagesEEG,001,102608,
AFNE01.JPG,AFNE01.JPG,AFNE01.JPG,AFNE01.JPG,AFNE01.JPG,AFNE01.JPG,,,,,,,,,,,,,4,2,42,5,,,,,,,,,,,AFSA07.jpg,AFNE02.jpg,AFNE15.jpg,AFSA05.jpg,AFNE02.jpg,FN,3,num_6,16,num_6,1.16677480927,,,2018_Jan_24_1827,60.0004426236,MAFE4ImagesEEG,001,102608,
AFNE01.JPG,AFNE01.JPG,AFNE01.JPG,AFNE01.JPG,AFNE01.JPG,AFNE01.JPG,,,,,,,,,,,,,4,3,43,8,,,,,,,,,,,AFSA14.jpg,AFNE11.jpg,AFNE17.jpg,AFSA01.jpg,AFNE17.jpg,FN,3,num_2,16,num_2,1.80010340635,,,2018_Jan_24_1827,60.0004426236,MAFE4ImagesEEG,001,102608,
AFNE01.JPG,AFNE01.JPG,AFNE01.JPG,AFNE01.JPG,AFNE01.JPG,AFNE01.JPG,,,,,,,,,,,,,4,4,44,2,,,,,,,,,,,AFNE06.jpg,AFSA15.jpg,AFSA13.jpg,AFNE11.jpg,AFNE11.jpg,FN,3,num_4,32,num_8,1.1834834019,,,2018_Jan_24_1827,60.0004426236,MAFE4ImagesEEG,001,102608,
AFNE01.JPG,AFNE01.JPG,AFNE01.JPG,AFNE01.JPG,AFNE01.JPG,AFNE01.JPG,,,,,,,,,,,,,4,5,45,0,,,,,,,,,,,AFSA06.jpg,AFNE04.jpg,AFNE15.jpg,AFSA03.jpg,AFSA03.jpg,FS,4,num_4,32,num_2,1.31648885415,,,2018_Jan_24_1827,60.0004426236,MAFE4ImagesEEG,001,102608,
AFNE01.JPG,AFNE01.JPG,AFNE01.JPG,AFNE01.JPG,AFNE01.JPG,AFNE01.JPG,,,,,,,,,,,,,4,6,46,7,,,,,,,,,,,AFSA08.jpg,AFSA12.jpg,AFNE20.jpg,AFNE11.jpg,AFNE11.jpg,FN,3,num_4,32,num_8,1.26670241841,,,2018_Jan_24_1827,60.0004426236,MAFE4ImagesEEG,001,102608,
AFNE01.JPG,AFNE01.JPG,AFNE01.JPG,AFNE01.JPG,AFNE01.JPG,AFNE01.JPG,,,,,,,,,,,,,4,7,47,9,,,,,,,,,,,AFNE07.jpg,AFNE09.jpg,AFSA13.jpg,AFSA03.jpg,AFSA03.jpg,FS,4,num_4,32,num_6,1.03343097707,,,2018_Jan_24_1827,60.0004426236,MAFE4ImagesEEG,001,102608,
AFNE01.JPG,AFNE01.JPG,AFNE01.JPG,AFNE01.JPG,AFNE01.JPG,AFNE01.JPG,,,,,,,,,,,,,4,8,48,3,,,,,,,,,,,AFSA08.jpg,AFNE13.jpg,AFSA10.jpg,AFNE02.jpg,AFSA10.jpg,FS,4,num_2,32,num_8,1.21674374567,,,2018_Jan_24_1827,60.0004426236,MAFE4ImagesEEG,001,102608,
AFNE01.JPG,AFNE01.JPG,AFNE01.JPG,AFNE01.JPG,AFNE01.JPG,AFNE01.JPG,,,,,,,,,,,,,4,9,49,1,,,,,,,,,,,AFNE07.jpg,AFSA06.jpg,AFNE17.jpg,AFSA13.jpg,AFNE17.jpg,FN,3,num_2,32,num_8,2.94966221341,,,2018_Jan_24_1827,60.0004426236,MAFE4ImagesEEG,001,102608,
AFNE01.JPG,AFNE01.JPG,AFNE01.JPG,AFNE01.JPG,AFNE01.JPG,AFNE01.JPG,,,,,,,,,,,,,5,0,50,0,,,,,,,,,,,AFSA16.jpg,AFNE01.jpg,AFNE05.jpg,AFSA01.jpg,AFSA01.jpg,FS,4,num_4,32,num_8,0.833465103726,,,2018_Jan_24_1827,60.0004426236,MAFE4ImagesEEG,001,102608,
AFNE01.JPG,AFNE01.JPG,AFNE01.JPG,AFNE01.JPG,AFNE01.JPG,AFNE01.JPG,,,,,,,,,,,,,5,1,51,6,,,,,,,,,,,AFSA02.jpg,AFNE15.jpg,AFNE19.jpg,AFSA04.jpg,AFSA02.jpg,FS,4,num_8,32,num_2,0.900116011402,,,2018_Jan_24_1827,60.0004426236,MAFE4ImagesEEG,001,102608,
AFNE01.JPG,AFNE01.JPG,AFNE01.JPG,AFNE01.JPG,AFNE01.JPG,AFNE01.JPG,,,,,,,,,,,,,5,2,52,3,,,,,,,,,,,AFNE12.jpg,AFSA05.jpg,AFNE02.jpg,AFSA08.jpg,AFSA05.jpg,FS,4,num_6,32,num_8,0.700116139695,,,2018_Jan_24_1827,60.0004426236,MAFE4ImagesEEG,001,102608,
AFNE01.JPG,AFNE01.JPG,AFNE01.JPG,AFNE01.JPG,AFNE01.JPG,AFNE01.JPG,,,,,,,,,,,,,5,3,53,9,,,,,,,,,,,AFNE20.jpg,AFSA13.jpg,AFSA06.jpg,AFNE01.jpg,AFNE01.jpg,FN,3,num_4,16,num_4,0.850150923874,,,2018_Jan_24_1827,60.0004426236,MAFE4ImagesEEG,001,102608,
AFNE01.JPG,AFNE01.JPG,AFNE01.JPG,AFNE01.JPG,AFNE01.JPG,AFNE01.JPG,,,,,,,,,,,,,5,4,54,8,,,,,,,,,,,AFNE02.jpg,AFSA14.jpg,AFSA20.jpg,AFNE16.jpg,AFNE16.jpg,FN,3,num_4,32,num_8,2.60000538842,,,2018_Jan_24_1827,60.0004426236,MAFE4ImagesEEG,001,102608,
AFNE01.JPG,AFNE01.JPG,AFNE01.JPG,AFNE01.JPG,AFNE01.JPG,AFNE01.JPG,,,,,,,,,,,,,5,5,55,4,,,,,,,,,,,AFSA14.jpg,AFNE16.jpg,AFSA09.jpg,AFNE07.jpg,AFSA14.jpg,FS,4,num_8,32,num_4,1.00010071214,,,2018_Jan_24_1827,60.0004426236,MAFE4ImagesEEG,001,102608,
AFNE01.JPG,AFNE01.JPG,AFNE01.JPG,AFNE01.JPG,AFNE01.JPG,AFNE01.JPG,,,,,,,,,,,,,5,6,56,1,,,,,,,,,,,AFNE15.jpg,AFNE06.jpg,AFSA18.jpg,AFSA14.jpg,AFSA14.jpg,FS,4,num_4,32,num_8,1.03344316516,,,2018_Jan_24_1827,60.0004426236,MAFE4ImagesEEG,001,102608,
AFNE01.JPG,AFNE01.JPG,AFNE01.JPG,AFNE01.JPG,AFNE01.JPG,AFNE01.JPG,,,,,,,,,,,,,5,7,57,7,,,,,,,,,,,AFSA16.jpg,AFNE12.jpg,AFNE06.jpg,AFSA18.jpg,AFNE06.jpg,FN,3,num_2,32,num_6,1.23346420565,,,2018_Jan_24_1827,60.0004426236,MAFE4ImagesEEG,001,102608,
AFNE01.JPG,AFNE01.JPG,AFNE01.JPG,AFNE01.JPG,AFNE01.JPG,AFNE01.JPG,,,,,,,,,,,,,5,8,58,2,,,,,,,,,,,AFNE05.jpg,AFNE01.jpg,AFSA12.jpg,AFSA17.jpg,AFNE01.jpg,FN,3,num_6,32,num_8,1.06675675164,,,2018_Jan_24_1827,60.0004426236,MAFE4ImagesEEG,001,102608,
AFNE01.JPG,AFNE01.JPG,AFNE01.JPG,AFNE01.JPG,AFNE01.JPG,AFNE01.JPG,,,,,,,,,,,,,5,9,59,5,,,,,,,,,,,AFSA05.jpg,AFNE10.jpg,AFNE09.jpg,AFSA19.jpg,AFSA19.jpg,FS,4,num_4,32,num_8,3.8831726376,,,2018_Jan_24_1827,60.0004426236,MAFE4ImagesEEG,001,102608,
,,,,,,,,,,,,,,,,,,,,,,,,,,,,,,,,,,,,,,,,,,,space,6.29965805984,2018_Jan_24_1827,60.0004426236,MAFE4ImagesEEG,001,102608,
AFNE01.JPG,AFNE01.JPG,AFNE01.JPG,AFNE01.JPG,AFNE01.JPG,AFNE01.JPG,,,,,,,,,,,,,,,,,0,0,0,9,,,,,,,AMSA13.jpg,AMSA06.jpg,AMNE08.jpg,AMNE20.jpg,AMNE20.jpg,MN,1,num_4,16,num_4,0.850232070916,,,2018_Jan_24_1827,60.0004426236,MAFE4ImagesEEG,001,102608,
AFNE01.JPG,AFNE01.JPG,AFNE01.JPG,AFNE01.JPG,AFNE01.JPG,AFNE01.JPG,,,,,,,,,,,,,,,,,0,1,1,4,,,,,,,AMNE17.jpg,AMSA03.jpg,AMNE07.jpg,AMSA12.jpg,AMSA12.jpg,MS,2,num_4,32,num_2,1.01676600497,,,2018_Jan_24_1827,60.0004426236,MAFE4ImagesEEG,001,102608,
AFNE01.JPG,AFNE01.JPG,AFNE01.JPG,AFNE01.JPG,AFNE01.JPG,AFNE01.JPG,,,,,,,,,,,,,,,,,0,2,2,6,,,,,,,AMNE16.jpg,AMNE04.jpg,AMSA02.jpg,AMSA13.jpg,AMSA13.jpg,MS,2,num_4,16,num_4,0.800096350082,,,2018_Jan_24_1827,60.0004426236,MAFE4ImagesEEG,001,102608,
AFNE01.JPG,AFNE01.JPG,AFNE01.JPG,AFNE01.JPG,AFNE01.JPG,AFNE01.JPG,,,,,,,,,,,,,,,,,0,3,3,3,,,,,,,AMSA03.jpg,AMSA01.jpg,AMNE01.jpg,AMNE18.jpg,AMNE01.jpg,MN,1,num_2,32,num_8,0.650157146214,,,2018_Jan_24_1827,60.0004426236,MAFE4ImagesEEG,001,102608,
AFNE01.JPG,AFNE01.JPG,AFNE01.JPG,AFNE01.JPG,AFNE01.JPG,AFNE01.JPG,,,,,,,,,,,,,,,,,0,4,4,7,,,,,,,AMSA10.jpg,AMNE04.jpg,AMSA16.jpg,AMNE12.jpg,AMNE04.jpg,MN,1,num_6,32,num_8,1.13344037472,,,2018_Jan_24_1827,60.0004426236,MAFE4ImagesEEG,001,102608,
AFNE01.JPG,AFNE01.JPG,AFNE01.JPG,AFNE01.JPG,AFNE01.JPG,AFNE01.JPG,,,,,,,,,,,,,,,,,0,5,5,0,,,,,,,AMNE01.jpg,AMNE19.jpg,AMSA14.jpg,AMSA16.jpg,AMSA14.jpg,MS,2,num_2,32,num_4,0.0169090546951,,,2018_Jan_24_1827,60.0004426236,MAFE4ImagesEEG,001,102608,
AFNE01.JPG,AFNE01.JPG,AFNE01.JPG,AFNE01.JPG,AFNE01.JPG,AFNE01.JPG,,,,,,,,,,,,,,,,,0,6,6,1,,,,,,,AMSA02.jpg,AMNE01.jpg,AMNE12.jpg,AMSA12.jpg,AMSA02.jpg,MS,2,num_8,16,num_8,0.833455481545,,,2018_Jan_24_1827,60.0004426236,MAFE4ImagesEEG,001,102608,
AFNE01.JPG,AFNE01.JPG,AFNE01.JPG,AFNE01.JPG,AFNE01.JPG,AFNE01.JPG,,,,,,,,,,,,,,,,,0,7,7,8,,,,,,,AMSA12.jpg,AMSA11.jpg,AMNE06.jpg,AMNE09.jpg,AMSA12.jpg,MS,2,num_8,32,num_4,1.63346876015,,,2018_Jan_24_1827,60.0004426236,MAFE4ImagesEEG,001,102608,
AFNE01.JPG,AFNE01.JPG,AFNE01.JPG,AFNE01.JPG,AFNE01.JPG,AFNE01.JPG,,,,,,,,,,,,,,,,,0,8,8,2,,,,,,,AMNE13.jpg,AMSA17.jpg,AMNE12.jpg,AMSA07.jpg,AMSA17.jpg,MS,2,num_6,32,num_4,1.90001016744,,,2018_Jan_24_1827,60.0004426236,MAFE4ImagesEEG,001,102608,
AFNE01.JPG,AFNE01.JPG,AFNE01.JPG,AFNE01.JPG,AFNE01.JPG,AFNE01.JPG,,,,,,,,,,,,,,,,,0,9,9,5,,,,,,,AMNE07.jpg,AMNE16.jpg,AMSA02.jpg,AMSA01.jpg,AMSA01.jpg,MS,2,num_4,16,num_4,0.81675619035,,,2018_Jan_24_1827,60.0004426236,MAFE4ImagesEEG,001,102608,
AFNE01.JPG,AFNE01.JPG,AFNE01.JPG,AFNE01.JPG,AFNE01.JPG,AFNE01.JPG,,,,,,,,,,,,,,,,,1,0,10,3,,,,,,,AMSA14.jpg,AMSA04.jpg,AMNE04.jpg,AMNE08.jpg,AMNE08.jpg,MN,1,num_4,32,num_8,0.516827747284,,,2018_Jan_24_1827,60.0004426236,MAFE4ImagesEEG,001,102608,
AFNE01.JPG,AFNE01.JPG,AFNE01.JPG,AFNE01.JPG,AFNE01.JPG,AFNE01.JPG,,,,,,,,,,,,,,,,,1,1,11,2,,,,,,,AMSA20.jpg,AMSA19.jpg,AMNE14.jpg,AMNE10.jpg,AMSA20.jpg,MS,2,num_8,48,None,,,,2018_Jan_24_1827,60.0004426236,MAFE4ImagesEEG,001,102608,
AFNE01.JPG,AFNE01.JPG,AFNE01.JPG,AFNE01.JPG,AFNE01.JPG,AFNE01.JPG,,,,,,,,,,,,,,,,,1,2,12,1,,,,,,,AMNE01.jpg,AMSA19.jpg,AMSA15.jpg,AMNE11.jpg,AMSA19.jpg,MS,2,num_6,32,num_8,1.2167562545,,,2018_Jan_24_1827,60.0004426236,MAFE4ImagesEEG,001,102608,
AFNE01.JPG,AFNE01.JPG,AFNE01.JPG,AFNE01.JPG,AFNE01.JPG,AFNE01.JPG,,,,,,,,,,,,,,,,,1,3,13,4,,,,,,,AMSA19.jpg,AMNE02.jpg,AMSA08.jpg,AMNE08.jpg,AMSA19.jpg,MS,2,num_8,16,num_8,0.766775386597,,,2018_Jan_24_1827,60.0004426236,MAFE4ImagesEEG,001,102608,
AFNE01.JPG,AFNE01.JPG,AFNE01.JPG,AFNE01.JPG,AFNE01.JPG,AFNE01.JPG,,,,,,,,,,,,,,,,,1,4,14,7,,,,,,,AMSA18.jpg,AMNE04.jpg,AMSA06.jpg,AMNE06.jpg,AMSA18.jpg,MS,2,num_8,32,num_6,0.98340623203,,,2018_Jan_24_1827,60.0004426236,MAFE4ImagesEEG,001,102608,
AFNE01.JPG,AFNE01.JPG,AFNE01.JPG,AFNE01.JPG,AFNE01.JPG,AFNE01.JPG,,,,,,,,,,,,,,,,,1,5,15,5,,,,,,,AMSA19.jpg,AMNE08.jpg,AMNE20.jpg,AMSA04.jpg,AMSA04.jpg,MS,2,num_4,32,num_8,2.84995014108,,,2018_Jan_24_1827,60.0004426236,MAFE4ImagesEEG,001,102608,
AFNE01.JPG,AFNE01.JPG,AFNE01.JPG,AFNE01.JPG,AFNE01.JPG,AFNE01.JPG,,,,,,,,,,,,,,,,,1,6,16,6,,,,,,,AMSA09.jpg,AMNE13.jpg,AMSA14.jpg,AMNE01.jpg,AMNE13.jpg,MN,1,num_6,32,num_4,2.80001039195,,,2018_Jan_24_1827,60.0004426236,MAFE4ImagesEEG,001,102608,
AFNE01.JPG,AFNE01.JPG,AFNE01.JPG,AFNE01.JPG,AFNE01.JPG,AFNE01.JPG,,,,,,,,,,,,,,,,,1,7,17,8,,,,,,,AMNE01.jpg,AMNE04.jpg,AMSA01.jpg,AMSA04.jpg,AMSA04.jpg,MS,2,num_4,32,num_8,1.93340041061,,,2018_Jan_24_1827,60.0004426236,MAFE4ImagesEEG,001,102608,
AFNE01.JPG,AFNE01.JPG,AFNE01.JPG,AFNE01.JPG,AFNE01.JPG,AFNE01.JPG,,,,,,,,,,,,,,,,,1,8,18,0,,,,,,,AMNE01.jpg,AMNE20.jpg,AMSA16.jpg,AMSA17.jpg,AMNE01.jpg,MN,1,num_8,16,num_8,1.16673535833,,,2018_Jan_24_1827,60.0004426236,MAFE4ImagesEEG,001,102608,
AFNE01.JPG,AFNE01.JPG,AFNE01.JPG,AFNE01.JPG,AFNE01.JPG,AFNE01.JPG,,,,,,,,,,,,,,,,,1,9,19,9,,,,,,,AMSA05.jpg,AMNE15.jpg,AMNE08.jpg,AMSA01.jpg,AMNE08.jpg,MN,1,num_2,32,num_4,2.16653008519,,,2018_Jan_24_1827,60.0004426236,MAFE4ImagesEEG,001,102608,
AFNE01.JPG,AFNE01.JPG,AFNE01.JPG,AFNE01.JPG,AFNE01.JPG,AFNE01.JPG,,,,,,,,,,,,,,,,,2,0,20,7,,,,,,,AMNE18.jpg,AMSA15.jpg,AMSA19.jpg,AMNE13.jpg,AMSA19.jpg,MS,2,num_2,32,num_6,0.816776076186,,,2018_Jan_24_1827,60.0004426236,MAFE4ImagesEEG,001,102608,
AFNE01.JPG,AFNE01.JPG,AFNE01.JPG,AFNE01.JPG,AFNE01.JPG,AFNE01.JPG,,,,,,,,,,,,,,,,,2,1,21,5,,,,,,,AMSA02.jpg,AMNE05.jpg,AMSA15.jpg,AMNE18.jpg,AMSA02.jpg,MS,2,num_8,16,num_8,3.84990331314,,,2018_Jan_24_1827,60.0004426236,MAFE4ImagesEEG,001,102608,
AFNE01.JPG,AFNE01.JPG,AFNE01.JPG,AFNE01.JPG,AFNE01.JPG,AFNE01.JPG,,,,,,,,,,,,,,,,,2,2,22,2,,,,,,,AMSA15.jpg,AMNE03.jpg,AMNE08.jpg,AMSA09.jpg,AMSA09.jpg,MS,2,num_4,32,num_8,0.733458913455,,,2018_Jan_24_1827,60.0004426236,MAFE4ImagesEEG,001,102608,
AFNE01.JPG,AFNE01.JPG,AFNE01.JPG,AFNE01.JPG,AFNE01.JPG,AFNE01.JPG,,,,,,,,,,,,,,,,,2,3,23,3,,,,,,,AMNE01.jpg,AMNE19.jpg,AMSA14.jpg,AMSA19.jpg,AMNE19.jpg,MN,1,num_6,32,num_4,0.666797421385,,,2018_Jan_24_1827,60.0004426236,MAFE4ImagesEEG,001,102608,
AFNE01.JPG,AFNE01.JPG,AFNE01.JPG,AFNE01.JPG,AFNE01.JPG,AFNE01.JPG,,,,,,,,,,,,,,,,,2,4,24,4,,,,,,,AMSA12.jpg,AMSA04.jpg,AMNE02.jpg,AMNE19.jpg,AMSA12.jpg,MS,2,num_8,32,num_4,2.01665855731,,,2018_Jan_24_1827,60.0004426236,MAFE4ImagesEEG,001,102608,
AFNE01.JPG,AFNE01.JPG,AFNE01.JPG,AFNE01.JPG,AFNE01.JPG,AFNE01.JPG,,,,,,,,,,,,,,,,,2,5,25,1,,,,,,,AMSA19.jpg,AMNE03.jpg,AMSA11.jpg,AMNE13.jpg,AMNE13.jpg,MN,1,num_4,32,num_8,0.816811357505,,,2018_Jan_24_1827,60.0004426236,MAFE4ImagesEEG,001,102608,
AFNE01.JPG,AFNE01.JPG,AFNE01.JPG,AFNE01.JPG,AFNE01.JPG,AFNE01.JPG,,,,,,,,,,,,,,,,,2,6,26,9,,,,,,,AMNE16.jpg,AMSA02.jpg,AMNE02.jpg,AMSA11.jpg,AMNE16.jpg,MN,1,num_8,32,num_6,1.53372429315,,,2018_Jan_24_1827,60.0004426236,MAFE4ImagesEEG,001,102608,
AFNE01.JPG,AFNE01.JPG,AFNE01.JPG,AFNE01.JPG,AFNE01.JPG,AFNE01.JPG,,,,,,,,,,,,,,,,,2,7,27,8,,,,,,,AMSA09.jpg,AMNE15.jpg,AMNE08.jpg,AMSA02.jpg,AMSA09.jpg,MS,2,num_8,16,num_8,0.91673832517,,,2018_Jan_24_1827,60.0004426236,MAFE4ImagesEEG,001,102608,
AFNE01.JPG,AFNE01.JPG,AFNE01.JPG,AFNE01.JPG,AFNE01.JPG,AFNE01.JPG,,,,,,,,,,,,,,,,,2,8,28,0,,,,,,,AMNE02.jpg,AMSA20.jpg,AMSA04.jpg,AMNE20.jpg,AMSA20.jpg,MS,2,num_6,16,num_6,0.783514449464,,,2018_Jan_24_1827,60.0004426236,MAFE4ImagesEEG,001,102608,
AFNE01.JPG,AFNE01.JPG,AFNE01.JPG,AFNE01.JPG,AFNE01.JPG,AFNE01.JPG,,,,,,,,,,,,,,,,,2,9,29,6,,,,,,,AMNE11.jpg,AMSA05.jpg,AMSA13.jpg,AMNE15.jpg,AMSA13.jpg,MS,2,num_2,32,num_4,1.38343612493,,,2018_Jan_24_1827,60.0004426236,MAFE4ImagesEEG,001,102608,
AFNE01.JPG,AFNE01.JPG,AFNE01.JPG,AFNE01.JPG,AFNE01.JPG,AFNE01.JPG,,,,,,,,,,,,,,,,,3,0,30,4,,,,,,,AMSA07.jpg,AMSA15.jpg,AMNE16.jpg,AMNE03.jpg,AMNE16.jpg,MN,1,num_2,32,num_8,0.833505837614,,,2018_Jan_24_1827,60.0004426236,MAFE4ImagesEEG,001,102608,
AFNE01.JPG,AFNE01.JPG,AFNE01.JPG,AFNE01.JPG,AFNE01.JPG,AFNE01.JPG,,,,,,,,,,,,,,,,,3,1,31,5,,,,,,,AMSA10.jpg,AMNE15.jpg,AMSA09.jpg,AMNE03.jpg,AMSA09.jpg,MS,2,num_2,32,num_4,1.01675060948,,,2018_Jan_24_1827,60.0004426236,MAFE4ImagesEEG,001,102608,
AFNE01.JPG,AFNE01.JPG,AFNE01.JPG,AFNE01.JPG,AFNE01.JPG,AFNE01.JPG,,,,,,,,,,,,,,,,,3,2,32,8,,,,,,,AMNE02.jpg,AMNE09.jpg,AMSA11.jpg,AMSA12.jpg,AMSA12.jpg,MS,2,num_4,16,num_4,1.20013394073,,,2018_Jan_24_1827,60.0004426236,MAFE4ImagesEEG,001,102608,
AFNE01.JPG,AFNE01.JPG,AFNE01.JPG,AFNE01.JPG,AFNE01.JPG,AFNE01.JPG,,,,,,,,,,,,,,,,,3,3,33,9,,,,,,,AMSA19.jpg,AMNE16.jpg,AMSA07.jpg,AMNE18.jpg,AMSA19.jpg,MS,2,num_8,32,num_2,1.28348478108,,,2018_Jan_24_1827,60.0004426236,MAFE4ImagesEEG,001,102608,
AFNE01.JPG,AFNE01.JPG,AFNE01.JPG,AFNE01.JPG,AFNE01.JPG,AFNE01.JPG,,,,,,,,,,,,,,,,,3,4,34,2,,,,,,,AMNE10.jpg,AMSA01.jpg,AMNE13.jpg,AMSA18.jpg,AMNE13.jpg,MN,1,num_2,32,num_8,1.03354099064,,,2018_Jan_24_1827,60.0004426236,MAFE4ImagesEEG,001,102608,
AFNE01.JPG,AFNE01.JPG,AFNE01.JPG,AFNE01.JPG,AFNE01.JPG,AFNE01.JPG,,,,,,,,,,,,,,,,,3,5,35,3,,,,,,,AMNE11.jpg,AMSA10.jpg,AMNE13.jpg,AMSA17.jpg,AMSA10.jpg,MS,2,num_6,32,num_8,4.24983634278,,,2018_Jan_24_1827,60.0004426236,MAFE4ImagesEEG,001,102608,
AFNE01.JPG,AFNE01.JPG,AFNE01.JPG,AFNE01.JPG,AFNE01.JPG,AFNE01.JPG,,,,,,,,,,,,,,,,,3,6,36,1,,,,,,,AMSA01.jpg,AMSA03.jpg,AMNE12.jpg,AMNE04.jpg,AMNE12.jpg,MN,1,num_2,16,num_2,0.76674042601,,,2018_Jan_24_1827,60.0004426236,MAFE4ImagesEEG,001,102608,
AFNE01.JPG,AFNE01.JPG,AFNE01.JPG,AFNE01.JPG,AFNE01.JPG,AFNE01.JPG,,,,,,,,,,,,,,,,,3,7,37,7,,,,,,,AMNE08.jpg,AMNE01.jpg,AMSA07.jpg,AMSA04.jpg,AMNE08.jpg,MN,1,num_8,16,num_8,1.06659734422,,,2018_Jan_24_1827,60.0004426236,MAFE4ImagesEEG,001,102608,
AFNE01.JPG,AFNE01.JPG,AFNE01.JPG,AFNE01.JPG,AFNE01.JPG,AFNE01.JPG,,,,,,,,,,,,,,,,,3,8,38,0,,,,,,,AMSA17.jpg,AMNE08.jpg,AMSA19.jpg,AMNE01.jpg,AMNE01.jpg,MN,1,num_4,16,num_4,1.38342746497,,,2018_Jan_24_1827,60.0004426236,MAFE4ImagesEEG,001,102608,
AFNE01.JPG,AFNE01.JPG,AFNE01.JPG,AFNE01.JPG,AFNE01.JPG,AFNE01.JPG,,,,,,,,,,,,,,,,,3,9,39,6,,,,,,,AMSA16.jpg,AMNE01.jpg,AMNE06.jpg,AMSA07.jpg,AMSA16.jpg,MS,2,num_8,48,None,,,,2018_Jan_24_1827,60.0004426236,MAFE4ImagesEEG,001,102608,
AFNE01.JPG,AFNE01.JPG,AFNE01.JPG,AFNE01.JPG,AFNE01.JPG,AFNE01.JPG,,,,,,,,,,,,,,,,,4,0,40,7,,,,,,,AMSA03.jpg,AMSA15.jpg,AMNE06.jpg,AMNE15.jpg,AMNE06.jpg,MN,1,num_2,32,num_8,1.98335202709,,,2018_Jan_24_1827,60.0004426236,MAFE4ImagesEEG,001,102608,
AFNE01.JPG,AFNE01.JPG,AFNE01.JPG,AFNE01.JPG,AFNE01.JPG,AFNE01.JPG,,,,,,,,,,,,,,,,,4,1,41,8,,,,,,,AMSA05.jpg,AMNE05.jpg,AMSA12.jpg,AMNE18.jpg,AMSA12.jpg,MS,2,num_2,32,num_8,0.850121736596,,,2018_Jan_24_1827,60.0004426236,MAFE4ImagesEEG,001,102608,
AFNE01.JPG,AFNE01.JPG,AFNE01.JPG,AFNE01.JPG,AFNE01.JPG,AFNE01.JPG,,,,,,,,,,,,,,,,,4,2,42,0,,,,,,,AMSA08.jpg,AMNE20.jpg,AMNE12.jpg,AMSA07.jpg,AMNE12.jpg,MN,1,num_2,32,num_8,1.18345678054,,,2018_Jan_24_1827,60.0004426236,MAFE4ImagesEEG,001,102608,
AFNE01.JPG,AFNE01.JPG,AFNE01.JPG,AFNE01.JPG,AFNE01.JPG,AFNE01.JPG,,,,,,,,,,,,,,,,,4,3,43,4,,,,,,,AMSA08.jpg,AMSA07.jpg,AMNE14.jpg,AMNE09.jpg,AMSA07.jpg,MS,2,num_6,16,num_6,1.05014983336,,,2018_Jan_24_1827,60.0004426236,MAFE4ImagesEEG,001,102608,
AFNE01.JPG,AFNE01.JPG,AFNE01.JPG,AFNE01.JPG,AFNE01.JPG,AFNE01.JPG,,,,,,,,,,,,,,,,,4,4,44,2,,,,,,,AMSA03.jpg,AMSA15.jpg,AMNE14.jpg,AMNE10.jpg,AMNE10.jpg,MN,1,num_4,48,None,,,,2018_Jan_24_1827,60.0004426236,MAFE4ImagesEEG,001,102608,
AFNE01.JPG,AFNE01.JPG,AFNE01.JPG,AFNE01.JPG,AFNE01.JPG,AFNE01.JPG,,,,,,,,,,,,,,,,,4,5,45,9,,,,,,,AMSA18.jpg,AMNE08.jpg,AMSA10.jpg,AMNE13.jpg,AMSA18.jpg,MS,2,num_8,16,num_8,1.78346473488,,,2018_Jan_24_1827,60.0004426236,MAFE4ImagesEEG,001,102608,
AFNE01.JPG,AFNE01.JPG,AFNE01.JPG,AFNE01.JPG,AFNE01.JPG,AFNE01.JPG,,,,,,,,,,,,,,,,,4,6,46,1,,,,,,,AMSA03.jpg,AMSA19.jpg,AMNE05.jpg,AMNE11.jpg,AMNE11.jpg,MN,1,num_4,16,num_4,0.783498091761,,,2018_Jan_24_1827,60.0004426236,MAFE4ImagesEEG,001,102608,
AFNE01.JPG,AFNE01.JPG,AFNE01.JPG,AFNE01.JPG,AFNE01.JPG,AFNE01.JPG,,,,,,,,,,,,,,,,,4,7,47,5,,,,,,,AMSA06.jpg,AMNE02.jpg,AMSA13.jpg,AMNE20.jpg,AMNE20.jpg,MN,1,num_4,16,num_4,0.800057219891,,,2018_Jan_24_1827,60.0004426236,MAFE4ImagesEEG,001,102608,
AFNE01.JPG,AFNE01.JPG,AFNE01.JPG,AFNE01.JPG,AFNE01.JPG,AFNE01.JPG,,,,,,,,,,,,,,,,,4,8,48,6,,,,,,,AMSA19.jpg,AMSA20.jpg,AMNE07.jpg,AMNE02.jpg,AMNE02.jpg,MN,1,num_4,32,num_8,0.916757569525,,,2018_Jan_24_1827,60.0004426236,MAFE4ImagesEEG,001,102608,
AFNE01.JPG,AFNE01.JPG,AFNE01.JPG,AFNE01.JPG,AFNE01.JPG,AFNE01.JPG,,,,,,,,,,,,,,,,,4,9,49,3,,,,,,,AMSA16.jpg,AMSA06.jpg,AMNE16.jpg,AMNE13.jpg,AMNE13.jpg,MN,1,num_4,16,num_4,1.56677262824,,,2018_Jan_24_1827,60.0004426236,MAFE4ImagesEEG,001,102608,
AFNE01.JPG,AFNE01.JPG,AFNE01.JPG,AFNE01.JPG,AFNE01.JPG,AFNE01.JPG,,,,,,,,,,,,,,,,,5,0,50,9,,,,,,,AMNE06.jpg,AMSA13.jpg,AMSA05.jpg,AMNE17.jpg,AMSA13.jpg,MS,2,num_6,16,num_6,2.76666569376,,,2018_Jan_24_1827,60.0004426236,MAFE4ImagesEEG,001,102608,
AFNE01.JPG,AFNE01.JPG,AFNE01.JPG,AFNE01.JPG,AFNE01.JPG,AFNE01.JPG,,,,,,,,,,,,,,,,,5,1,51,3,,,,,,,AMSA07.jpg,AMNE15.jpg,AMSA19.jpg,AMNE16.jpg,AMSA07.jpg,MS,2,num_8,16,num_8,0.850139377257,,,2018_Jan_24_1827,60.0004426236,MAFE4ImagesEEG,001,102608,
AFNE01.JPG,AFNE01.JPG,AFNE01.JPG,AFNE01.JPG,AFNE01.JPG,AFNE01.JPG,,,,,,,,,,,,,,,,,5,2,52,5,,,,,,,AMNE05.jpg,AMNE11.jpg,AMSA13.jpg,AMSA07.jpg,AMNE11.jpg,MN,1,num_6,32,num_8,4.366489223,,,2018_Jan_24_1827,60.0004426236,MAFE4ImagesEEG,001,102608,
AFNE01.JPG,AFNE01.JPG,AFNE01.JPG,AFNE01.JPG,AFNE01.JPG,AFNE01.JPG,,,,,,,,,,,,,,,,,5,3,53,6,,,,,,,AMNE05.jpg,AMNE06.jpg,AMSA10.jpg,AMSA14.jpg,AMSA10.jpg,MS,2,num_2,32,num_6,1.05012834383,,,2018_Jan_24_1827,60.0004426236,MAFE4ImagesEEG,001,102608,
AFNE01.JPG,AFNE01.JPG,AFNE01.JPG,AFNE01.JPG,AFNE01.JPG,AFNE01.JPG,,,,,,,,,,,,,,,,,5,4,54,8,,,,,,,AMSA09.jpg,AMNE01.jpg,AMNE10.jpg,AMSA13.jpg,AMSA13.jpg,MS,2,num_4,32,num_2,1.11678374185,,,2018_Jan_24_1827,60.0004426236,MAFE4ImagesEEG,001,102608,
AFNE01.JPG,AFNE01.JPG,AFNE01.JPG,AFNE01.JPG,AFNE01.JPG,AFNE01.JPG,,,,,,,,,,,,,,,,,5,5,55,2,,,,,,,AMNE10.jpg,AMNE03.jpg,AMSA19.jpg,AMSA14.jpg,AMSA14.jpg,MS,2,num_4,16,num_4,0.800155366112,,,2018_Jan_24_1827,60.0004426236,MAFE4ImagesEEG,001,102608,
AFNE01.JPG,AFNE01.JPG,AFNE01.JPG,AFNE01.JPG,AFNE01.JPG,AFNE01.JPG,,,,,,,,,,,,,,,,,5,6,56,0,,,,,,,AMNE16.jpg,AMNE04.jpg,AMSA16.jpg,AMSA03.jpg,AMSA03.jpg,MS,2,num_4,16,num_4,0.566785778548,,,2018_Jan_24_1827,60.0004426236,MAFE4ImagesEEG,001,102608,
AFNE01.JPG,AFNE01.JPG,AFNE01.JPG,AFNE01.JPG,AFNE01.JPG,AFNE01.JPG,,,,,,,,,,,,,,,,,5,7,57,4,,,,,,,AMNE10.jpg,AMSA04.jpg,AMSA16.jpg,AMNE11.jpg,AMSA04.jpg,MS,2,num_6,32,num_8,0.666744499402,,,2018_Jan_24_1827,60.0004426236,MAFE4ImagesEEG,001,102608,
AFNE01.JPG,AFNE01.JPG,AFNE01.JPG,AFNE01.JPG,AFNE01.JPG,AFNE01.JPG,,,,,,,,,,,,,,,,,5,8,58,1,,,,,,,AMSA20.jpg,AMSA10.jpg,AMNE09.jpg,AMNE14.jpg,AMNE09.jpg,MN,1,num_2,32,num_6,0.85009383228,,,2018_Jan_24_1827,60.0004426236,MAFE4ImagesEEG,001,102608,
AFNE01.JPG,AFNE01.JPG,AFNE01.JPG,AFNE01.JPG,AFNE01.JPG,AFNE01.JPG,,,,,,,,,,,,,,,,,5,9,59,7,,,,,,,AMNE05.jpg,AMNE12.jpg,AMSA10.jpg,AMSA09.jpg,AMSA09.jpg,MS,2,num_4,32,num_8,2.49998765154,,,2018_Jan_24_1827,60.0004426236,MAFE4ImagesEEG,001,102608,
,,,,,,,,,,,,,,,,,,,,,,,,,,,,,,,,,,,,,,,,,,,space,5.38309902793,2018_Jan_24_1827,60.0004426236,MAFE4ImagesEEG,001,102608,
AFNE01.JPG,AFNE01.JPG,AFNE01.JPG,AFNE01.JPG,AFNE01.JPG,AFNE01.JPG,,,,,,,,,,,,,,,,,,,,,0,0,0,4,,,AFSA11.jpg,AFNE13.jpg,AFSA20.jpg,AFNE17.jpg,AFNE17.jpg,FN,3,num_4,32,num_6,0.516833841331,,,2018_Jan_24_1827,60.0004426236,MAFE4ImagesEEG,001,102608,
AFNE01.JPG,AFNE01.JPG,AFNE01.JPG,AFNE01.JPG,AFNE01.JPG,AFNE01.JPG,,,,,,,,,,,,,,,,,,,,,0,1,1,1,,,AFNE14.jpg,AFSA19.jpg,AFSA07.jpg,AFNE18.jpg,AFSA19.jpg,FS,4,num_6,32,num_4,0.900157066029,,,2018_Jan_24_1827,60.0004426236,MAFE4ImagesEEG,001,102608,
AFNE01.JPG,AFNE01.JPG,AFNE01.JPG,AFNE01.JPG,AFNE01.JPG,AFNE01.JPG,,,,,,,,,,,,,,,,,,,,,0,2,2,6,,,AFSA07.jpg,AFSA05.jpg,AFNE04.jpg,AFNE14.jpg,AFNE14.jpg,FN,3,num_4,16,num_4,0.8667565592,,,2018_Jan_24_1827,60.0004426236,MAFE4ImagesEEG,001,102608,
AFNE01.JPG,AFNE01.JPG,AFNE01.JPG,AFNE01.JPG,AFNE01.JPG,AFNE01.JPG,,,,,,,,,,,,,,,,,,,,,0,3,3,0,,,AFSA07.jpg,AFNE15.jpg,AFNE20.jpg,AFSA17.jpg,AFNE20.jpg,FN,3,num_2,32,num_6,0.60016319215,,,2018_Jan_24_1827,60.0004426236,MAFE4ImagesEEG,001,102608,
AFNE01.JPG,AFNE01.JPG,AFNE01.JPG,AFNE01.JPG,AFNE01.JPG,AFNE01.JPG,,,,,,,,,,,,,,,,,,,,,0,4,4,8,,,AFNE08.jpg,AFSA03.jpg,AFNE18.jpg,AFSA16.jpg,AFSA03.jpg,FS,4,num_6,32,num_8,0.650098771664,,,2018_Jan_24_1827,60.0004426236,MAFE4ImagesEEG,001,102608,
AFNE01.JPG,AFNE01.JPG,AFNE01.JPG,AFNE01.JPG,AFNE01.JPG,AFNE01.JPG,,,,,,,,,,,,,,,,,,,,,0,5,5,3,,,AFNE09.jpg,AFSA02.jpg,AFSA07.jpg,AFNE01.jpg,AFSA07.jpg,FS,4,num_2,32,num_6,0.850162149749,,,2018_Jan_24_1827,60.0004426236,MAFE4ImagesEEG,001,102608,
AFNE01.JPG,AFNE01.JPG,AFNE01.JPG,AFNE01.JPG,AFNE01.JPG,AFNE01.JPG,,,,,,,,,,,,,,,,,,,,,0,6,6,7,,,AFSA02.jpg,AFSA07.jpg,AFNE04.jpg,AFNE03.jpg,AFNE04.jpg,FN,3,num_2,32,num_8,0.916750513261,,,2018_Jan_24_1827,60.0004426236,MAFE4ImagesEEG,001,102608,
AFNE01.JPG,AFNE01.JPG,AFNE01.JPG,AFNE01.JPG,AFNE01.JPG,AFNE01.JPG,,,,,,,,,,,,,,,,,,,,,0,7,7,5,,,AFSA06.jpg,AFSA13.jpg,AFNE05.jpg,AFNE09.jpg,AFNE05.jpg,FN,3,num_2,32,num_4,1.01684266166,,,2018_Jan_24_1827,60.0004426236,MAFE4ImagesEEG,001,102608,
AFNE01.JPG,AFNE01.JPG,AFNE01.JPG,AFNE01.JPG,AFNE01.JPG,AFNE01.JPG,,,,,,,,,,,,,,,,,,,,,0,8,8,2,,,AFNE13.jpg,AFSA01.jpg,AFSA07.jpg,AFNE09.jpg,AFNE13.jpg,FN,3,num_8,16,num_8,0.916806642639,,,2018_Jan_24_1827,60.0004426236,MAFE4ImagesEEG,001,102608,
AFNE01.JPG,AFNE01.JPG,AFNE01.JPG,AFNE01.JPG,AFNE01.JPG,AFNE01.JPG,,,,,,,,,,,,,,,,,,,,,0,9,9,9,,,AFSA12.jpg,AFSA09.jpg,AFNE04.jpg,AFNE14.jpg,AFSA09.jpg,FS,4,num_6,32,num_4,3.43325014425,,,2018_Jan_24_1827,60.0004426236,MAFE4ImagesEEG,001,102608,
AFNE01.JPG,AFNE01.JPG,AFNE01.JPG,AFNE01.JPG,AFNE01.JPG,AFNE01.JPG,,,,,,,,,,,,,,,,,,,,,1,0,10,5,,,AFSA20.jpg,AFNE11.jpg,AFNE14.jpg,AFSA12.jpg,AFSA20.jpg,FS,4,num_8,16,num_8,0.666799666556,,,2018_Jan_24_1827,60.0004426236,MAFE4ImagesEEG,001,102608,
AFNE01.JPG,AFNE01.JPG,AFNE01.JPG,AFNE01.JPG,AFNE01.JPG,AFNE01.JPG,,,,,,,,,,,,,,,,,,,,,1,1,11,3,,,AFNE02.jpg,AFSA10.jpg,AFSA04.jpg,AFNE03.jpg,AFSA04.jpg,FS,4,num_2,32,num_4,0.700135704792,,,2018_Jan_24_1827,60.0004426236,MAFE4ImagesEEG,001,102608,
AFNE01.JPG,AFNE01.JPG,AFNE01.JPG,AFNE01.JPG,AFNE01.JPG,AFNE01.JPG,,,,,,,,,,,,,,,,,,,,,1,2,12,0,,,AFSA18.jpg,AFNE08.jpg,AFNE02.jpg,AFSA01.jpg,AFNE08.jpg,FN,3,num_6,32,num_8,1.35010714296,,,2018_Jan_24_1827,60.0004426236,MAFE4ImagesEEG,001,102608,
AFNE01.JPG,AFNE01.JPG,AFNE01.JPG,AFNE01.JPG,AFNE01.JPG,AFNE01.JPG,,,,,,,,,,,,,,,,,,,,,1,3,13,4,,,AFSA14.jpg,AFSA04.jpg,AFNE17.jpg,AFNE07.jpg,AFSA04.jpg,FS,4,num_6,16,num_6,0.966491724765,,,2018_Jan_24_1827,60.0004426236,MAFE4ImagesEEG,001,102608,
AFNE01.JPG,AFNE01.JPG,AFNE01.JPG,AFNE01.JPG,AFNE01.JPG,AFNE01.JPG,,,,,,,,,,,,,,,,,,,,,1,4,14,6,,,AFNE09.jpg,AFSA03.jpg,AFNE18.jpg,AFSA18.jpg,AFNE09.jpg,FN,3,num_8,32,num_4,0.750142809167,,,2018_Jan_24_1827,60.0004426236,MAFE4ImagesEEG,001,102608,
AFNE01.JPG,AFNE01.JPG,AFNE01.JPG,AFNE01.JPG,AFNE01.JPG,AFNE01.JPG,,,,,,,,,,,,,,,,,,,,,1,5,15,2,,,AFNE03.jpg,AFNE20.jpg,AFSA15.jpg,AFSA03.jpg,AFNE20.jpg,FN,3,num_6,32,num_8,0.800126820315,,,2018_Jan_24_1827,60.0004426236,MAFE4ImagesEEG,001,102608,
AFNE01.JPG,AFNE01.JPG,AFNE01.JPG,AFNE01.JPG,AFNE01.JPG,AFNE01.JPG,,,,,,,,,,,,,,,,,,,,,1,6,16,8,,,AFSA17.jpg,AFSA02.jpg,AFNE14.jpg,AFNE11.jpg,AFSA17.jpg,FS,4,num_8,16,num_8,0.666774648897,,,2018_Jan_24_1827,60.0004426236,MAFE4ImagesEEG,001,102608,
AFNE01.JPG,AFNE01.JPG,AFNE01.JPG,AFNE01.JPG,AFNE01.JPG,AFNE01.JPG,,,,,,,,,,,,,,,,,,,,,1,7,17,7,,,AFNE03.jpg,AFSA01.jpg,AFNE18.jpg,AFSA20.jpg,AFNE18.jpg,FN,3,num_2,32,num_6,0.833453236373,,,2018_Jan_24_1827,60.0004426236,MAFE4ImagesEEG,001,102608,
AFNE01.JPG,AFNE01.JPG,AFNE01.JPG,AFNE01.JPG,AFNE01.JPG,AFNE01.JPG,,,,,,,,,,,,,,,,,,,,,1,8,18,9,,,AFSA04.jpg,AFNE14.jpg,AFSA13.jpg,AFNE12.jpg,AFSA04.jpg,FS,4,num_8,32,num_6,0.600201360125,,,2018_Jan_24_1827,60.0004426236,MAFE4ImagesEEG,001,102608,
AFNE01.JPG,AFNE01.JPG,AFNE01.JPG,AFNE01.JPG,AFNE01.JPG,AFNE01.JPG,,,,,,,,,,,,,,,,,,,,,1,9,19,1,,,AFNE14.jpg,AFSA03.jpg,AFSA17.jpg,AFNE17.jpg,AFSA03.jpg,FS,4,num_6,16,num_6,1.10009631801,,,2018_Jan_24_1827,60.0004426236,MAFE4ImagesEEG,001,102608,
AFNE01.JPG,AFNE01.JPG,AFNE01.JPG,AFNE01.JPG,AFNE01.JPG,AFNE01.JPG,,,,,,,,,,,,,,,,,,,,,2,0,20,3,,,AFSA04.jpg,AFSA10.jpg,AFNE03.jpg,AFNE17.jpg,AFSA10.jpg,FS,4,num_6,32,num_8,0.583460052079,,,2018_Jan_24_1827,60.0004426236,MAFE4ImagesEEG,001,102608,
AFNE01.JPG,AFNE01.JPG,AFNE01.JPG,AFNE01.JPG,AFNE01.JPG,AFNE01.JPG,,,,,,,,,,,,,,,,,,,,,2,1,21,5,,,AFNE11.jpg,AFSA19.jpg,AFNE12.jpg,AFSA02.jpg,AFNE11.jpg,FN,3,num_8,32,num_4,0.866766502117,,,2018_Jan_24_1827,60.0004426236,MAFE4ImagesEEG,001,102608,
AFNE01.JPG,AFNE01.JPG,AFNE01.JPG,AFNE01.JPG,AFNE01.JPG,AFNE01.JPG,,,,,,,,,,,,,,,,,,,,,2,2,22,4,,,AFSA18.jpg,AFNE09.jpg,AFSA03.jpg,AFNE03.jpg,AFNE09.jpg,FN,3,num_6,16,num_6,1.33341939838,,,2018_Jan_24_1827,60.0004426236,MAFE4ImagesEEG,001,102608,
AFNE01.JPG,AFNE01.JPG,AFNE01.JPG,AFNE01.JPG,AFNE01.JPG,AFNE01.JPG,,,,,,,,,,,,,,,,,,,,,2,3,23,9,,,AFNE10.jpg,AFSA12.jpg,AFSA07.jpg,AFNE14.jpg,AFNE10.jpg,FN,3,num_8,16,num_8,3.15000046507,,,2018_Jan_24_1827,60.0004426236,MAFE4ImagesEEG,001,102608,
AFNE01.JPG,AFNE01.JPG,AFNE01.JPG,AFNE01.JPG,AFNE01.JPG,AFNE01.JPG,,,,,,,,,,,,,,,,,,,,,2,4,24,7,,,AFNE03.jpg,AFSA03.jpg,AFNE09.jpg,AFSA17.jpg,AFSA17.jpg,FS,4,num_4,16,num_4,0.49989944823,,,2018_Jan_24_1827,60.0004426236,MAFE4ImagesEEG,001,102608,
AFNE01.JPG,AFNE01.JPG,AFNE01.JPG,AFNE01.JPG,AFNE01.JPG,AFNE01.JPG,,,,,,,,,,,,,,,,,,,,,2,5,25,1,,,AFSA02.jpg,AFNE19.jpg,AFSA04.jpg,AFNE15.jpg,AFNE15.jpg,FN,3,num_4,32,num_8,0.666792610296,,,2018_Jan_24_1827,60.0004426236,MAFE4ImagesEEG,001,102608,
AFNE01.JPG,AFNE01.JPG,AFNE01.JPG,AFNE01.JPG,AFNE01.JPG,AFNE01.JPG,,,,,,,,,,,,,,,,,,,,,2,6,26,6,,,AFNE15.jpg,AFNE06.jpg,AFSA06.jpg,AFSA20.jpg,AFNE06.jpg,FN,3,num_6,16,num_6,0.650123789332,,,2018_Jan_24_1827,60.0004426236,MAFE4ImagesEEG,001,102608,
AFNE01.JPG,AFNE01.JPG,AFNE01.JPG,AFNE01.JPG,AFNE01.JPG,AFNE01.JPG,,,,,,,,,,,,,,,,,,,,,2,7,27,8,,,AFSA06.jpg,AFSA04.jpg,AFNE09.jpg,AFNE06.jpg,AFNE09.jpg,FN,3,num_2,32,num_4,1.54994889019,,,2018_Jan_24_1827,60.0004426236,MAFE4ImagesEEG,001,102608,
AFNE01.JPG,AFNE01.JPG,AFNE01.JPG,AFNE01.JPG,AFNE01.JPG,AFNE01.JPG,,,,,,,,,,,,,,,,,,,,,2,8,28,0,,,AFSA05.jpg,AFSA20.jpg,AFNE07.jpg,AFNE06.jpg,AFSA20.jpg,FS,4,num_6,32,num_2,1.06659574052,,,2018_Jan_24_1827,60.0004426236,MAFE4ImagesEEG,001,102608,
AFNE01.JPG,AFNE01.JPG,AFNE01.JPG,AFNE01.JPG,AFNE01.JPG,AFNE01.JPG,,,,,,,,,,,,,,,,,,,,,2,9,29,2,,,AFSA03.jpg,AFNE10.jpg,AFNE09.jpg,AFSA07.jpg,AFSA03.jpg,FS,4,num_8,16,num_8,0.800169799382,,,2018_Jan_24_1827,60.0004426236,MAFE4ImagesEEG,001,102608,
AFNE01.JPG,AFNE01.JPG,AFNE01.JPG,AFNE01.JPG,AFNE01.JPG,AFNE01.JPG,,,,,,,,,,,,,,,,,,,,,3,0,30,4,,,AFSA03.jpg,AFSA18.jpg,AFNE07.jpg,AFNE11.jpg,AFSA18.jpg,FS,4,num_6,32,num_4,0.816743360774,,,2018_Jan_24_1827,60.0004426236,MAFE4ImagesEEG,001,102608,
AFNE01.JPG,AFNE01.JPG,AFNE01.JPG,AFNE01.JPG,AFNE01.JPG,AFNE01.JPG,,,,,,,,,,,,,,,,,,,,,3,1,31,0,,,AFSA18.jpg,AFNE18.jpg,AFSA01.jpg,AFNE07.jpg,AFNE07.jpg,FN,3,num_4,32,num_6,1.98340174168,,,2018_Jan_24_1827,60.0004426236,MAFE4ImagesEEG,001,102608,
AFNE01.JPG,AFNE01.JPG,AFNE01.JPG,AFNE01.JPG,AFNE01.JPG,AFNE01.JPG,,,,,,,,,,,,,,,,,,,,,3,2,32,2,,,AFNE19.jpg,AFNE01.jpg,AFSA02.jpg,AFSA15.jpg,AFSA15.jpg,FS,4,num_4,32,num_8,0.650095885012,,,2018_Jan_24_1827,60.0004426236,MAFE4ImagesEEG,001,102608,
AFNE01.JPG,AFNE01.JPG,AFNE01.JPG,AFNE01.JPG,AFNE01.JPG,AFNE01.JPG,,,,,,,,,,,,,,,,,,,,,3,3,33,3,,,AFNE03.jpg,AFSA13.jpg,AFNE08.jpg,AFSA11.jpg,AFNE03.jpg,FN,3,num_8,16,num_8,0.683490939275,,,2018_Jan_24_1827,60.0004426236,MAFE4ImagesEEG,001,102608,
AFNE01.JPG,AFNE01.JPG,AFNE01.JPG,AFNE01.JPG,AFNE01.JPG,AFNE01.JPG,,,,,,,,,,,,,,,,,,,,,3,4,34,6,,,AFSA07.jpg,AFNE17.jpg,AFNE15.jpg,AFSA09.jpg,AFSA07.jpg,FS,4,num_8,32,num_6,0.800145743935,,,2018_Jan_24_1827,60.0004426236,MAFE4ImagesEEG,001,102608,
AFNE01.JPG,AFNE01.JPG,AFNE01.JPG,AFNE01.JPG,AFNE01.JPG,AFNE01.JPG,,,,,,,,,,,,,,,,,,,,,3,5,35,7,,,AFNE05.jpg,AFSA15.jpg,AFNE10.jpg,AFSA09.jpg,AFSA15.jpg,FS,4,num_6,32,num_2,0.700177400904,,,2018_Jan_24_1827,60.0004426236,MAFE4ImagesEEG,001,102608,
AFNE01.JPG,AFNE01.JPG,AFNE01.JPG,AFNE01.JPG,AFNE01.JPG,AFNE01.JPG,,,,,,,,,,,,,,,,,,,,,3,6,36,8,,,AFNE11.jpg,AFSA07.jpg,AFSA06.jpg,AFNE08.jpg,AFSA07.jpg,FS,4,num_6,32,num_4,0.183522532094,,,2018_Jan_24_1827,60.0004426236,MAFE4ImagesEEG,001,102608,
AFNE01.JPG,AFNE01.JPG,AFNE01.JPG,AFNE01.JPG,AFNE01.JPG,AFNE01.JPG,,,,,,,,,,,,,,,,,,,,,3,7,37,1,,,AFSA11.jpg,AFNE19.jpg,AFSA18.jpg,AFNE02.jpg,AFNE02.jpg,FN,3,num_4,32,num_8,2.31678714169,,,2018_Jan_24_1827,60.0004426236,MAFE4ImagesEEG,001,102608,
AFNE01.JPG,AFNE01.JPG,AFNE01.JPG,AFNE01.JPG,AFNE01.JPG,AFNE01.JPG,,,,,,,,,,,,,,,,,,,,,3,8,38,5,,,AFSA18.jpg,AFNE16.jpg,AFSA14.jpg,AFNE01.jpg,AFSA18.jpg,FS,4,num_8,32,num_4,1.86666835589,,,2018_Jan_24_1827,60.0004426236,MAFE4ImagesEEG,001,102608,
AFNE01.JPG,AFNE01.JPG,AFNE01.JPG,AFNE01.JPG,AFNE01.JPG,AFNE01.JPG,,,,,,,,,,,,,,,,,,,,,3,9,39,9,,,AFNE10.jpg,AFNE11.jpg,AFSA03.jpg,AFSA17.jpg,AFNE10.jpg,FN,3,num_8,16,num_8,0.633498268169,,,2018_Jan_24_1827,60.0004426236,MAFE4ImagesEEG,001,102608,
