IPosition2,IPosition3,IPosition1,IPosition6,IPosition4,IPosition5,TrialsF1.thisRepN,TrialsF1.thisTrialN,TrialsF1.thisN,TrialsF1.thisIndex,TrialsM1.thisRepN,TrialsM1.thisTrialN,TrialsM1.thisN,TrialsM1.thisIndex,TrialsF2.thisRepN,TrialsF2.thisTrialN,TrialsF2.thisN,TrialsF2.thisIndex,TrialsM2.thisRepN,TrialsM2.thisTrialN,TrialsM2.thisN,TrialsM2.thisIndex,TrialsF3.thisRepN,TrialsF3.thisTrialN,TrialsF3.thisN,TrialsF3.thisIndex,TrialsM3.thisRepN,TrialsM3.thisTrialN,TrialsM3.thisN,TrialsM3.thisIndex,InstrKey_resp.keys,InstrKey_resp.rt,Image0 _Position,Image1 _Position,Image2 _Position,Image3 _Position,Center_image,condition,code,correct_answer,accuracy,Key_Resp.keys,Key_Resp.rt,BreakKey_resp.keys,BreakKey_resp.rt,date,frameRate,expName,session,participant,
,,,,,,,,,,,,,,,,,,,,,,,,,,,,,,space,19.6989845715,,,,,,,,,,,,,,2018_Jan_24_1253,59.9916683502,FEMA4ImagesEEG,001,102656,
AFSA21.JPG,AFNE23.JPG,AFNE21.JPG,AFSA25.JPG,AFNE25.JPG,AFSA23.JPG,0,0,0,4,,,,,,,,,,,,,,,,,,,,,,,AFSA20.jpg,AFNE07.jpg,AFNE19.jpg,AFSA18.jpg,AFNE19.jpg,FN,3,num_2,32,num_4,1.90007656047,,,2018_Jan_24_1253,59.9916683502,FEMA4ImagesEEG,001,102656,
AFNE22.JPG,AFSA24.JPG,AFSA22.JPG,AFNE25.JPG,AFNE24.JPG,AFSA25.JPG,0,1,1,6,,,,,,,,,,,,,,,,,,,,,,,AFNE19.jpg,AFNE03.jpg,AFSA04.jpg,AFSA18.jpg,AFNE19.jpg,FN,3,num_8,16,num_8,1.81668209957,,,2018_Jan_24_1253,59.9916683502,FEMA4ImagesEEG,001,102656,
AMSA21.JPG,AMNE22.JPG,AMNE21.JPG,AMSA23.JPG,AMSA22.JPG,AMNE23.JPG,0,2,2,1,,,,,,,,,,,,,,,,,,,,,,,AFSA08.jpg,AFNE18.jpg,AFNE20.jpg,AFSA06.jpg,AFSA06.jpg,FS,4,num_4,48,None,,,,2018_Jan_24_1253,59.9916683502,FEMA4ImagesEEG,001,102656,
AFNE23.JPG,AFNE24.JPG,AFNE22.JPG,AFSA24.JPG,AFSA22.JPG,AFSA23.JPG,0,3,3,8,,,,,,,,,,,,,,,,,,,,,,,AFNE06.jpg,AFSA15.jpg,AFNE15.jpg,AFSA12.jpg,AFNE15.jpg,FN,3,num_2,32,num_8,1.96668801721,,,2018_Jan_24_1253,59.9916683502,FEMA4ImagesEEG,001,102656,
AMSA21.JPG,AMNE23.JPG,AMNE21.JPG,AMSA25.JPG,AMNE25.JPG,AMSA23.JPG,0,4,4,5,,,,,,,,,,,,,,,,,,,,,,,AFSA04.jpg,AFNE03.jpg,AFNE16.jpg,AFSA09.jpg,AFNE03.jpg,FN,3,num_6,16,num_6,2.01653026159,,,2018_Jan_24_1253,59.9916683502,FEMA4ImagesEEG,001,102656,
AMNE22.JPG,AMSA24.JPG,AMSA22.JPG,AMNE25.JPG,AMNE24.JPG,AMSA25.JPG,0,5,5,7,,,,,,,,,,,,,,,,,,,,,,,AFNE11.jpg,AFNE08.jpg,AFSA06.jpg,AFSA18.jpg,AFSA06.jpg,FS,4,num_2,32,num_8,2.15004697227,,,2018_Jan_24_1253,59.9916683502,FEMA4ImagesEEG,001,102656,
AMNE23.JPG,AMNE24.JPG,AMNE22.JPG,AMSA24.JPG,AMSA22.JPG,AMSA23.JPG,0,6,6,9,,,,,,,,,,,,,,,,,,,,,,,AFSA10.jpg,AFNE09.jpg,AFSA02.jpg,AFNE05.jpg,AFSA02.jpg,FS,4,num_2,16,num_2,1.1001280712,,,2018_Jan_24_1253,59.9916683502,FEMA4ImagesEEG,001,102656,
AFSA25.JPG,AFNE24.JPG,AFSA24.JPG,AFNE21.JPG,AFSA21.JPG,AFNE25.JPG,0,7,7,2,,,,,,,,,,,,,,,,,,,,,,,AFSA05.jpg,AFNE03.jpg,AFNE01.jpg,AFSA09.jpg,AFSA05.jpg,FS,4,num_8,32,num_6,1.58339750792,,,2018_Jan_24_1253,59.9916683502,FEMA4ImagesEEG,001,102656,
AFSA21.JPG,AFNE22.JPG,AFNE21.JPG,AFSA23.JPG,AFSA22.JPG,AFNE23.JPG,0,8,8,0,,,,,,,,,,,,,,,,,,,,,,,AFNE01.jpg,AFSA10.jpg,AFNE02.jpg,AFSA06.jpg,AFSA06.jpg,FS,4,num_4,32,num_8,2.64987136751,,,2018_Jan_24_1253,59.9916683502,FEMA4ImagesEEG,001,102656,
AMSA25.JPG,AMNE24.JPG,AMSA24.JPG,AMNE26.JPG,AMSA21.JPG,AMNE25.JPG,0,9,9,3,,,,,,,,,,,,,,,,,,,,,,,AFNE01.jpg,AFSA14.jpg,AFNE12.jpg,AFSA15.jpg,AFNE01.jpg,FN,3,num_8,32,num_6,1.40009885185,,,2018_Jan_24_1253,59.9916683502,FEMA4ImagesEEG,001,102656,
AMSA21.JPG,AMNE23.JPG,AMNE21.JPG,AMSA25.JPG,AMNE25.JPG,AMSA23.JPG,,,,,0,0,0,5,,,,,,,,,,,,,,,,,,,AMSA02.jpg,AMNE15.jpg,AMSA16.jpg,AMNE07.jpg,AMSA02.jpg,MS,2,num_8,16,num_8,1.00008210926,,,2018_Jan_24_1253,59.9916683502,FEMA4ImagesEEG,001,102656,
AFSA21.JPG,AFNE22.JPG,AFNE21.JPG,AFSA23.JPG,AFSA22.JPG,AFNE23.JPG,,,,,0,1,1,0,,,,,,,,,,,,,,,,,,,AMSA02.jpg,AMNE19.jpg,AMNE04.jpg,AMSA20.jpg,AMSA02.jpg,MS,2,num_8,32,num_6,2.46664359482,,,2018_Jan_24_1253,59.9916683502,FEMA4ImagesEEG,001,102656,
AMSA25.JPG,AMNE24.JPG,AMSA24.JPG,AMNE26.JPG,AMSA21.JPG,AMNE25.JPG,,,,,0,2,2,3,,,,,,,,,,,,,,,,,,,AMSA08.jpg,AMNE05.jpg,AMNE03.jpg,AMSA09.jpg,AMNE05.jpg,MN,1,num_6,16,num_6,2.68328630761,,,2018_Jan_24_1253,59.9916683502,FEMA4ImagesEEG,001,102656,
AMSA21.JPG,AMNE22.JPG,AMNE21.JPG,AMSA23.JPG,AMSA22.JPG,AMNE23.JPG,,,,,0,3,3,1,,,,,,,,,,,,,,,,,,,AMSA06.jpg,AMNE14.jpg,AMSA12.jpg,AMNE13.jpg,AMNE13.jpg,MN,1,num_4,16,num_4,1.23348441223,,,2018_Jan_24_1253,59.9916683502,FEMA4ImagesEEG,001,102656,
AMNE23.JPG,AMNE24.JPG,AMNE22.JPG,AMSA24.JPG,AMSA22.JPG,AMSA23.JPG,,,,,0,4,4,9,,,,,,,,,,,,,,,,,,,AMNE14.jpg,AMNE18.jpg,AMSA11.jpg,AMSA17.jpg,AMNE18.jpg,MN,1,num_6,32,num_8,1.40007351345,,,2018_Jan_24_1253,59.9916683502,FEMA4ImagesEEG,001,102656,
AMNE22.JPG,AMSA24.JPG,AMSA22.JPG,AMNE25.JPG,AMNE24.JPG,AMSA25.JPG,,,,,0,5,5,7,,,,,,,,,,,,,,,,,,,AMSA05.jpg,AMNE07.jpg,AMNE16.jpg,AMSA06.jpg,AMNE16.jpg,MN,1,num_2,32,num_4,3.25026356751,,,2018_Jan_24_1253,59.9916683502,FEMA4ImagesEEG,001,102656,
AFNE22.JPG,AFSA24.JPG,AFSA22.JPG,AFNE25.JPG,AFNE24.JPG,AFSA25.JPG,,,,,0,6,6,6,,,,,,,,,,,,,,,,,,,AMSA19.jpg,AMNE15.jpg,AMNE02.jpg,AMSA03.jpg,AMSA03.jpg,MS,2,num_4,16,num_4,1.28343474575,,,2018_Jan_24_1253,59.9916683502,FEMA4ImagesEEG,001,102656,
AFNE23.JPG,AFNE24.JPG,AFNE22.JPG,AFSA24.JPG,AFSA22.JPG,AFSA23.JPG,,,,,0,7,7,8,,,,,,,,,,,,,,,,,,,AMSA10.jpg,AMSA19.jpg,AMNE17.jpg,AMNE06.jpg,AMSA19.jpg,MS,2,num_6,16,num_6,0.75015595948,,,2018_Jan_24_1253,59.9916683502,FEMA4ImagesEEG,001,102656,
AFSA25.JPG,AFNE24.JPG,AFSA24.JPG,AFNE21.JPG,AFSA21.JPG,AFNE25.JPG,,,,,0,8,8,2,,,,,,,,,,,,,,,,,,,AMSA04.jpg,AMNE10.jpg,AMSA05.jpg,AMNE18.jpg,AMNE18.jpg,MN,1,num_4,32,num_8,1.43339896728,,,2018_Jan_24_1253,59.9916683502,FEMA4ImagesEEG,001,102656,
AFSA21.JPG,AFNE23.JPG,AFNE21.JPG,AFSA25.JPG,AFNE25.JPG,AFSA23.JPG,,,,,0,9,9,4,,,,,,,,,,,,,,,,,,,AMNE06.jpg,AMSA04.jpg,AMSA02.jpg,AMNE20.jpg,AMSA04.jpg,MS,2,num_6,16,num_6,1.46673757143,,,2018_Jan_24_1253,59.9916683502,FEMA4ImagesEEG,001,102656,
AMSA21.JPG,AMNE23.JPG,AMNE21.JPG,AMSA25.JPG,AMNE25.JPG,AMSA23.JPG,,,,,,,,,0,0,0,5,,,,,,,,,,,,,,,AFNE02.jpg,AFSA04.jpg,AFSA17.jpg,AFNE04.jpg,AFSA17.jpg,FS,4,num_2,16,num_2,2.55000886844,,,2018_Jan_24_1253,59.9916683502,FEMA4ImagesEEG,001,102656,
AFSA25.JPG,AFNE24.JPG,AFSA24.JPG,AFNE21.JPG,AFSA21.JPG,AFNE25.JPG,,,,,,,,,0,1,1,2,,,,,,,,,,,,,,,AFSA09.jpg,AFNE05.jpg,AFNE19.jpg,AFSA01.jpg,AFSA09.jpg,FS,4,num_8,16,num_8,1.53343787296,,,2018_Jan_24_1253,59.9916683502,FEMA4ImagesEEG,001,102656,
AFNE22.JPG,AFSA24.JPG,AFSA22.JPG,AFNE25.JPG,AFNE24.JPG,AFSA25.JPG,,,,,,,,,0,2,2,6,,,,,,,,,,,,,,,AFNE06.jpg,AFSA19.jpg,AFSA12.jpg,AFNE05.jpg,AFSA19.jpg,FS,4,num_6,16,num_6,0.833359901238,,,2018_Jan_24_1253,59.9916683502,FEMA4ImagesEEG,001,102656,
AFSA21.JPG,AFNE22.JPG,AFNE21.JPG,AFSA23.JPG,AFSA22.JPG,AFNE23.JPG,,,,,,,,,0,3,3,0,,,,,,,,,,,,,,,AFNE15.jpg,AFNE18.jpg,AFSA17.jpg,AFSA16.jpg,AFNE15.jpg,FN,3,num_8,16,num_8,1.35012157623,,,2018_Jan_24_1253,59.9916683502,FEMA4ImagesEEG,001,102656,
AMSA25.JPG,AMNE24.JPG,AMSA24.JPG,AMNE26.JPG,AMSA21.JPG,AMNE25.JPG,,,,,,,,,0,4,4,3,,,,,,,,,,,,,,,AFSA08.jpg,AFNE10.jpg,AFNE20.jpg,AFSA11.jpg,AFSA11.jpg,FS,4,num_4,16,num_4,1.1834368947,,,2018_Jan_24_1253,59.9916683502,FEMA4ImagesEEG,001,102656,
AMSA21.JPG,AMNE22.JPG,AMNE21.JPG,AMSA23.JPG,AMSA22.JPG,AMNE23.JPG,,,,,,,,,0,5,5,1,,,,,,,,,,,,,,,AFNE11.jpg,AFNE06.jpg,AFSA04.jpg,AFSA16.jpg,AFSA04.jpg,FS,4,num_2,32,num_6,1.38346274629,,,2018_Jan_24_1253,59.9916683502,FEMA4ImagesEEG,001,102656,
AMNE23.JPG,AMNE24.JPG,AMNE22.JPG,AMSA24.JPG,AMSA22.JPG,AMSA23.JPG,,,,,,,,,0,6,6,9,,,,,,,,,,,,,,,AFNE05.jpg,AFSA02.jpg,AFSA04.jpg,AFNE15.jpg,AFSA02.jpg,FS,4,num_6,32,num_8,0.966700846784,,,2018_Jan_24_1253,59.9916683502,FEMA4ImagesEEG,001,102656,
AMNE22.JPG,AMSA24.JPG,AMSA22.JPG,AMNE25.JPG,AMNE24.JPG,AMSA25.JPG,,,,,,,,,0,7,7,7,,,,,,,,,,,,,,,AFSA11.jpg,AFNE18.jpg,AFSA17.jpg,AFNE15.jpg,AFNE15.jpg,FN,3,num_4,16,num_4,0.983467172494,,,2018_Jan_24_1253,59.9916683502,FEMA4ImagesEEG,001,102656,
AFNE23.JPG,AFNE24.JPG,AFNE22.JPG,AFSA24.JPG,AFSA22.JPG,AFSA23.JPG,,,,,,,,,0,8,8,8,,,,,,,,,,,,,,,AFSA09.jpg,AFNE20.jpg,AFNE12.jpg,AFSA02.jpg,AFSA09.jpg,FS,4,num_8,32,num_6,0.883543091484,,,2018_Jan_24_1253,59.9916683502,FEMA4ImagesEEG,001,102656,
AFSA21.JPG,AFNE23.JPG,AFNE21.JPG,AFSA25.JPG,AFNE25.JPG,AFSA23.JPG,,,,,,,,,0,9,9,4,,,,,,,,,,,,,,,AFNE10.jpg,AFNE16.jpg,AFSA16.jpg,AFSA03.jpg,AFSA16.jpg,FS,4,num_2,16,num_2,0.983426759343,,,2018_Jan_24_1253,59.9916683502,FEMA4ImagesEEG,001,102656,
AMSA25.JPG,AMNE24.JPG,AMSA24.JPG,AMNE26.JPG,AMSA21.JPG,AMNE25.JPG,,,,,,,,,,,,,0,0,0,3,,,,,,,,,,,AMSA11.jpg,AMNE08.jpg,AMNE14.jpg,AMSA18.jpg,AMSA11.jpg,MS,2,num_8,16,num_8,0.800156969809,,,2018_Jan_24_1253,59.9916683502,FEMA4ImagesEEG,001,102656,
AFSA25.JPG,AFNE24.JPG,AFSA24.JPG,AFNE21.JPG,AFSA21.JPG,AFNE25.JPG,,,,,,,,,,,,,0,1,1,2,,,,,,,,,,,AMSA19.jpg,AMNE07.jpg,AMSA09.jpg,AMNE18.jpg,AMNE18.jpg,MN,1,num_4,32,num_6,1.25017183608,,,2018_Jan_24_1253,59.9916683502,FEMA4ImagesEEG,001,102656,
AFNE23.JPG,AFNE24.JPG,AFNE22.JPG,AFSA24.JPG,AFSA22.JPG,AFSA23.JPG,,,,,,,,,,,,,0,2,2,8,,,,,,,,,,,AMSA08.jpg,AMNE09.jpg,AMSA11.jpg,AMNE01.jpg,AMSA08.jpg,MS,2,num_8,16,num_8,1.41673463667,,,2018_Jan_24_1253,59.9916683502,FEMA4ImagesEEG,001,102656,
AFSA21.JPG,AFNE23.JPG,AFNE21.JPG,AFSA25.JPG,AFNE25.JPG,AFSA23.JPG,,,,,,,,,,,,,0,3,3,4,,,,,,,,,,,AMSA16.jpg,AMSA04.jpg,AMNE13.jpg,AMNE19.jpg,AMSA16.jpg,MS,2,num_8,32,num_4,1.05011679721,,,2018_Jan_24_1253,59.9916683502,FEMA4ImagesEEG,001,102656,
AMNE23.JPG,AMNE24.JPG,AMNE22.JPG,AMSA24.JPG,AMSA22.JPG,AMSA23.JPG,,,,,,,,,,,,,0,4,4,9,,,,,,,,,,,AMSA15.jpg,AMSA06.jpg,AMNE09.jpg,AMNE16.jpg,AMNE09.jpg,MN,1,num_2,16,num_2,0.933520687845,,,2018_Jan_24_1253,59.9916683502,FEMA4ImagesEEG,001,102656,
AFNE22.JPG,AFSA24.JPG,AFSA22.JPG,AFNE25.JPG,AFNE24.JPG,AFSA25.JPG,,,,,,,,,,,,,0,5,5,6,,,,,,,,,,,AMNE13.jpg,AMNE16.jpg,AMSA08.jpg,AMSA07.jpg,AMNE16.jpg,MN,1,num_6,32,num_8,0.950203942078,,,2018_Jan_24_1253,59.9916683502,FEMA4ImagesEEG,001,102656,
AMSA21.JPG,AMNE22.JPG,AMNE21.JPG,AMSA23.JPG,AMSA22.JPG,AMNE23.JPG,,,,,,,,,,,,,0,6,6,1,,,,,,,,,,,AMSA07.jpg,AMSA04.jpg,AMNE13.jpg,AMNE18.jpg,AMNE18.jpg,MN,1,num_4,16,num_4,2.33324748212,,,2018_Jan_24_1253,59.9916683502,FEMA4ImagesEEG,001,102656,
AMNE22.JPG,AMSA24.JPG,AMSA22.JPG,AMNE25.JPG,AMNE24.JPG,AMSA25.JPG,,,,,,,,,,,,,0,7,7,7,,,,,,,,,,,AMNE02.jpg,AMSA10.jpg,AMNE20.jpg,AMSA18.jpg,AMSA10.jpg,MS,2,num_6,32,num_8,1.24995918593,,,2018_Jan_24_1253,59.9916683502,FEMA4ImagesEEG,001,102656,
AMSA21.JPG,AMNE23.JPG,AMNE21.JPG,AMSA25.JPG,AMNE25.JPG,AMSA23.JPG,,,,,,,,,,,,,0,8,8,5,,,,,,,,,,,AMNE05.jpg,AMNE02.jpg,AMSA11.jpg,AMSA15.jpg,AMNE05.jpg,MN,1,num_8,32,num_2,1.13345865687,,,2018_Jan_24_1253,59.9916683502,FEMA4ImagesEEG,001,102656,
AFSA21.JPG,AFNE22.JPG,AFNE21.JPG,AFSA23.JPG,AFSA22.JPG,AFNE23.JPG,,,,,,,,,,,,,0,9,9,0,,,,,,,,,,,AMSA14.jpg,AMNE04.jpg,AMNE11.jpg,AMSA03.jpg,AMNE04.jpg,MN,1,num_6,32,num_8,1.00009044848,,,2018_Jan_24_1253,59.9916683502,FEMA4ImagesEEG,001,102656,
AMNE23.JPG,AMNE24.JPG,AMNE22.JPG,AMSA24.JPG,AMSA22.JPG,AMSA23.JPG,,,,,,,,,,,,,,,,,0,0,0,9,,,,,,,AFNE20.jpg,AFSA01.jpg,AFNE12.jpg,AFSA10.jpg,AFSA10.jpg,FS,4,num_4,32,num_2,1.50009060885,,,2018_Jan_24_1253,59.9916683502,FEMA4ImagesEEG,001,102656,
AMSA21.JPG,AMNE22.JPG,AMNE21.JPG,AMSA23.JPG,AMSA22.JPG,AMNE23.JPG,,,,,,,,,,,,,,,,,0,1,1,1,,,,,,,AFSA06.jpg,AFNE14.jpg,AFSA02.jpg,AFNE06.jpg,AFSA02.jpg,FS,4,num_2,32,num_8,0.833474084426,,,2018_Jan_24_1253,59.9916683502,FEMA4ImagesEEG,001,102656,
AFSA21.JPG,AFNE23.JPG,AFNE21.JPG,AFSA25.JPG,AFNE25.JPG,AFSA23.JPG,,,,,,,,,,,,,,,,,0,2,2,4,,,,,,,AFSA02.jpg,AFSA03.jpg,AFNE06.jpg,AFNE08.jpg,AFSA03.jpg,FS,4,num_6,32,num_4,0.933487330958,,,2018_Jan_24_1253,59.9916683502,FEMA4ImagesEEG,001,102656,
AMSA25.JPG,AMNE24.JPG,AMSA24.JPG,AMNE26.JPG,AMSA21.JPG,AMNE25.JPG,,,,,,,,,,,,,,,,,0,3,3,3,,,,,,,AFSA05.jpg,AFSA06.jpg,AFNE18.jpg,AFNE20.jpg,AFNE18.jpg,FN,3,num_2,32,num_8,1.08347689089,,,2018_Jan_24_1253,59.9916683502,FEMA4ImagesEEG,001,102656,
AFSA21.JPG,AFNE22.JPG,AFNE21.JPG,AFSA23.JPG,AFSA22.JPG,AFNE23.JPG,,,,,,,,,,,,,,,,,0,4,4,0,,,,,,,AFNE08.jpg,AFSA14.jpg,AFNE15.jpg,AFSA07.jpg,AFSA07.jpg,FS,4,num_4,16,num_4,0.733189492452,,,2018_Jan_24_1253,59.9916683502,FEMA4ImagesEEG,001,102656,
AFNE23.JPG,AFNE24.JPG,AFNE22.JPG,AFSA24.JPG,AFSA22.JPG,AFSA23.JPG,,,,,,,,,,,,,,,,,0,5,5,8,,,,,,,AFSA09.jpg,AFNE18.jpg,AFSA19.jpg,AFNE08.jpg,AFNE08.jpg,FN,3,num_4,16,num_4,0.850127830644,,,2018_Jan_24_1253,59.9916683502,FEMA4ImagesEEG,001,102656,
AMNE22.JPG,AMSA24.JPG,AMSA22.JPG,AMNE25.JPG,AMNE24.JPG,AMSA25.JPG,,,,,,,,,,,,,,,,,0,6,6,7,,,,,,,AFNE16.jpg,AFSA06.jpg,AFSA03.jpg,AFNE14.jpg,AFNE16.jpg,FN,3,num_8,16,num_8,0.616681907129,,,2018_Jan_24_1253,59.9916683502,FEMA4ImagesEEG,001,102656,
AMSA21.JPG,AMNE23.JPG,AMNE21.JPG,AMSA25.JPG,AMNE25.JPG,AMSA23.JPG,,,,,,,,,,,,,,,,,0,7,7,5,,,,,,,AFSA14.jpg,AFSA05.jpg,AFNE15.jpg,AFNE20.jpg,AFSA14.jpg,FS,4,num_8,32,num_2,1.1667408109,,,2018_Jan_24_1253,59.9916683502,FEMA4ImagesEEG,001,102656,
AFSA25.JPG,AFNE24.JPG,AFSA24.JPG,AFNE21.JPG,AFSA21.JPG,AFNE25.JPG,,,,,,,,,,,,,,,,,0,8,8,2,,,,,,,AFSA07.jpg,AFNE18.jpg,AFSA05.jpg,AFNE16.jpg,AFNE18.jpg,FN,3,num_6,32,num_8,0.883554958838,,,2018_Jan_24_1253,59.9916683502,FEMA4ImagesEEG,001,102656,
AFNE22.JPG,AFSA24.JPG,AFSA22.JPG,AFNE25.JPG,AFNE24.JPG,AFSA25.JPG,,,,,,,,,,,,,,,,,0,9,9,6,,,,,,,AFSA15.jpg,AFSA20.jpg,AFNE02.jpg,AFNE05.jpg,AFSA15.jpg,FS,4,num_8,16,num_8,0.883489207283,,,2018_Jan_24_1253,59.9916683502,FEMA4ImagesEEG,001,102656,
AFSA21.JPG,AFNE23.JPG,AFNE21.JPG,AFSA25.JPG,AFNE25.JPG,AFSA23.JPG,,,,,,,,,,,,,,,,,,,,,0,0,0,4,,,AMSA10.jpg,AMNE18.jpg,AMSA19.jpg,AMNE13.jpg,AMNE18.jpg,MN,1,num_6,16,num_6,0.833547533724,,,2018_Jan_24_1253,59.9916683502,FEMA4ImagesEEG,001,102656,
AFSA25.JPG,AFNE24.JPG,AFSA24.JPG,AFNE21.JPG,AFSA21.JPG,AFNE25.JPG,,,,,,,,,,,,,,,,,,,,,0,1,1,2,,,AMSA10.jpg,AMNE10.jpg,AMSA13.jpg,AMNE12.jpg,AMNE12.jpg,MN,1,num_4,32,num_6,1.10009503505,,,2018_Jan_24_1253,59.9916683502,FEMA4ImagesEEG,001,102656,
AMNE22.JPG,AMSA24.JPG,AMSA22.JPG,AMNE25.JPG,AMNE24.JPG,AMSA25.JPG,,,,,,,,,,,,,,,,,,,,,0,2,2,7,,,AMNE09.jpg,AMSA05.jpg,AMNE14.jpg,AMSA12.jpg,AMSA05.jpg,MS,2,num_6,32,num_8,0.883482471758,,,2018_Jan_24_1253,59.9916683502,FEMA4ImagesEEG,001,102656,
AMSA21.JPG,AMNE22.JPG,AMNE21.JPG,AMSA23.JPG,AMSA22.JPG,AMNE23.JPG,,,,,,,,,,,,,,,,,,,,,0,3,3,1,,,AMNE09.jpg,AMSA10.jpg,AMSA17.jpg,AMNE20.jpg,AMSA10.jpg,MS,2,num_6,32,num_8,1.25010063195,,,2018_Jan_24_1253,59.9916683502,FEMA4ImagesEEG,001,102656,
AMSA25.JPG,AMNE24.JPG,AMSA24.JPG,AMNE26.JPG,AMSA21.JPG,AMNE25.JPG,,,,,,,,,,,,,,,,,,,,,0,4,4,3,,,AMNE19.jpg,AMSA08.jpg,AMSA15.jpg,AMNE09.jpg,AMNE19.jpg,MN,1,num_8,32,num_6,1.08345540136,,,2018_Jan_24_1253,59.9916683502,FEMA4ImagesEEG,001,102656,
AMSA21.JPG,AMNE23.JPG,AMNE21.JPG,AMSA25.JPG,AMNE25.JPG,AMSA23.JPG,,,,,,,,,,,,,,,,,,,,,0,5,5,5,,,AMSA04.jpg,AMNE08.jpg,AMSA06.jpg,AMNE01.jpg,AMNE01.jpg,MN,1,num_4,16,num_4,0.600035217174,,,2018_Jan_24_1253,59.9916683502,FEMA4ImagesEEG,001,102656,
AMNE23.JPG,AMNE24.JPG,AMNE22.JPG,AMSA24.JPG,AMSA22.JPG,AMSA23.JPG,,,,,,,,,,,,,,,,,,,,,0,6,6,9,,,AMSA06.jpg,AMSA05.jpg,AMNE09.jpg,AMNE17.jpg,AMNE09.jpg,MN,1,num_2,32,num_8,1.3334440953,,,2018_Jan_24_1253,59.9916683502,FEMA4ImagesEEG,001,102656,
AFSA21.JPG,AFNE22.JPG,AFNE21.JPG,AFSA23.JPG,AFSA22.JPG,AFNE23.JPG,,,,,,,,,,,,,,,,,,,,,0,7,7,0,,,AMNE02.jpg,AMNE07.jpg,AMSA08.jpg,AMSA04.jpg,AMSA08.jpg,MS,2,num_2,16,num_2,1.28344372645,,,2018_Jan_24_1253,59.9916683502,FEMA4ImagesEEG,001,102656,
AFNE23.JPG,AFNE24.JPG,AFNE22.JPG,AFSA24.JPG,AFSA22.JPG,AFSA23.JPG,,,,,,,,,,,,,,,,,,,,,0,8,8,8,,,AMNE07.jpg,AMSA18.jpg,AMNE15.jpg,AMSA17.jpg,AMSA17.jpg,MS,2,num_4,32,num_8,0.583508483715,,,2018_Jan_24_1253,59.9916683502,FEMA4ImagesEEG,001,102656,
AFNE22.JPG,AFSA24.JPG,AFSA22.JPG,AFNE25.JPG,AFNE24.JPG,AFSA25.JPG,,,,,,,,,,,,,,,,,,,,,0,9,9,6,,,AMSA05.jpg,AMNE05.jpg,AMSA10.jpg,AMNE07.jpg,AMNE05.jpg,MN,1,num_6,32,num_8,4.41653545757,,,2018_Jan_24_1253,59.9916683502,FEMA4ImagesEEG,001,102656,
,,,,,,,,,,,,,,,,,,,,,,,,,,,,,,,,,,,,,,,,,,,space,47.446367419,2018_Jan_24_1253,59.9916683502,FEMA4ImagesEEG,001,102656,
AFNE01.JPG,AFNE01.JPG,AFNE01.JPG,AFNE01.JPG,AFNE01.JPG,AFNE01.JPG,0,0,0,9,,,,,,,,,,,,,,,,,,,,,,,AFNE03.jpg,AFNE16.jpg,AFSA07.jpg,AFSA08.jpg,AFSA08.jpg,FS,4,num_4,32,num_2,0.816797244978,,,2018_Jan_24_1253,59.9916683502,FEMA4ImagesEEG,001,102656,
AFNE01.JPG,AFNE01.JPG,AFNE01.JPG,AFNE01.JPG,AFNE01.JPG,AFNE01.JPG,0,1,1,5,,,,,,,,,,,,,,,,,,,,,,,AFNE04.jpg,AFNE11.jpg,AFSA17.jpg,AFSA20.jpg,AFNE11.jpg,FN,3,num_6,16,num_6,0.916801831549,,,2018_Jan_24_1253,59.9916683502,FEMA4ImagesEEG,001,102656,
AFNE01.JPG,AFNE01.JPG,AFNE01.JPG,AFNE01.JPG,AFNE01.JPG,AFNE01.JPG,0,2,2,1,,,,,,,,,,,,,,,,,,,,,,,AFNE10.jpg,AFSA10.jpg,AFSA15.jpg,AFNE15.jpg,AFSA10.jpg,FS,4,num_6,32,num_4,0.866768426552,,,2018_Jan_24_1253,59.9916683502,FEMA4ImagesEEG,001,102656,
AFNE01.JPG,AFNE01.JPG,AFNE01.JPG,AFNE01.JPG,AFNE01.JPG,AFNE01.JPG,0,3,3,6,,,,,,,,,,,,,,,,,,,,,,,AFSA12.jpg,AFNE16.jpg,AFNE11.jpg,AFSA06.jpg,AFSA12.jpg,FS,4,num_8,16,num_8,0.600006350638,,,2018_Jan_24_1253,59.9916683502,FEMA4ImagesEEG,001,102656,
AFNE01.JPG,AFNE01.JPG,AFNE01.JPG,AFNE01.JPG,AFNE01.JPG,AFNE01.JPG,0,4,4,3,,,,,,,,,,,,,,,,,,,,,,,AFNE14.jpg,AFNE17.jpg,AFSA19.jpg,AFSA14.jpg,AFNE17.jpg,FN,3,num_6,16,num_6,2.06658868425,,,2018_Jan_24_1253,59.9916683502,FEMA4ImagesEEG,001,102656,
AFNE01.JPG,AFNE01.JPG,AFNE01.JPG,AFNE01.JPG,AFNE01.JPG,AFNE01.JPG,0,5,5,8,,,,,,,,,,,,,,,,,,,,,,,AFSA12.jpg,AFNE02.jpg,AFNE05.jpg,AFSA16.jpg,AFNE05.jpg,FN,3,num_2,16,num_2,0.816767416224,,,2018_Jan_24_1253,59.9916683502,FEMA4ImagesEEG,001,102656,
AFNE01.JPG,AFNE01.JPG,AFNE01.JPG,AFNE01.JPG,AFNE01.JPG,AFNE01.JPG,0,6,6,7,,,,,,,,,,,,,,,,,,,,,,,AFSA07.jpg,AFSA14.jpg,AFNE15.jpg,AFNE06.jpg,AFSA07.jpg,FS,4,num_8,16,num_8,0.649840576535,,,2018_Jan_24_1253,59.9916683502,FEMA4ImagesEEG,001,102656,
AFNE01.JPG,AFNE01.JPG,AFNE01.JPG,AFNE01.JPG,AFNE01.JPG,AFNE01.JPG,0,7,7,0,,,,,,,,,,,,,,,,,,,,,,,AFNE13.jpg,AFSA17.jpg,AFNE04.jpg,AFSA05.jpg,AFNE13.jpg,FN,3,num_8,16,num_8,1.48343942854,,,2018_Jan_24_1253,59.9916683502,FEMA4ImagesEEG,001,102656,
AFNE01.JPG,AFNE01.JPG,AFNE01.JPG,AFNE01.JPG,AFNE01.JPG,AFNE01.JPG,0,8,8,2,,,,,,,,,,,,,,,,,,,,,,,AFSA10.jpg,AFNE17.jpg,AFNE07.jpg,AFSA15.jpg,AFNE17.jpg,FN,3,num_6,16,num_6,0.850158942356,,,2018_Jan_24_1253,59.9916683502,FEMA4ImagesEEG,001,102656,
AFNE01.JPG,AFNE01.JPG,AFNE01.JPG,AFNE01.JPG,AFNE01.JPG,AFNE01.JPG,0,9,9,4,,,,,,,,,,,,,,,,,,,,,,,AFSA19.jpg,AFSA08.jpg,AFNE06.jpg,AFNE04.jpg,AFSA08.jpg,FS,4,num_6,32,num_8,0.883476056972,,,2018_Jan_24_1253,59.9916683502,FEMA4ImagesEEG,001,102656,
AFNE01.JPG,AFNE01.JPG,AFNE01.JPG,AFNE01.JPG,AFNE01.JPG,AFNE01.JPG,1,0,10,9,,,,,,,,,,,,,,,,,,,,,,,AFNE10.jpg,AFSA14.jpg,AFSA19.jpg,AFNE11.jpg,AFNE11.jpg,FN,3,num_4,16,num_4,0.75016558166,,,2018_Jan_24_1253,59.9916683502,FEMA4ImagesEEG,001,102656,
AFNE01.JPG,AFNE01.JPG,AFNE01.JPG,AFNE01.JPG,AFNE01.JPG,AFNE01.JPG,1,1,11,8,,,,,,,,,,,,,,,,,,,,,,,AFNE13.jpg,AFNE02.jpg,AFSA18.jpg,AFSA03.jpg,AFNE02.jpg,FN,3,num_6,16,num_6,0.816880316454,,,2018_Jan_24_1253,59.9916683502,FEMA4ImagesEEG,001,102656,
AFNE01.JPG,AFNE01.JPG,AFNE01.JPG,AFNE01.JPG,AFNE01.JPG,AFNE01.JPG,1,2,12,2,,,,,,,,,,,,,,,,,,,,,,,AFNE12.jpg,AFSA07.jpg,AFSA02.jpg,AFNE15.jpg,AFSA02.jpg,FS,4,num_2,16,num_2,0.700155269891,,,2018_Jan_24_1253,59.9916683502,FEMA4ImagesEEG,001,102656,
AFNE01.JPG,AFNE01.JPG,AFNE01.JPG,AFNE01.JPG,AFNE01.JPG,AFNE01.JPG,1,3,13,1,,,,,,,,,,,,,,,,,,,,,,,AFNE10.jpg,AFNE20.jpg,AFSA20.jpg,AFSA18.jpg,AFSA18.jpg,FS,4,num_4,16,num_4,1.43341981534,,,2018_Jan_24_1253,59.9916683502,FEMA4ImagesEEG,001,102656,
AFNE01.JPG,AFNE01.JPG,AFNE01.JPG,AFNE01.JPG,AFNE01.JPG,AFNE01.JPG,1,4,14,6,,,,,,,,,,,,,,,,,,,,,,,AFNE15.jpg,AFNE06.jpg,AFSA19.jpg,AFSA01.jpg,AFNE15.jpg,FN,3,num_8,32,num_6,0.683483241532,,,2018_Jan_24_1253,59.9916683502,FEMA4ImagesEEG,001,102656,
AFNE01.JPG,AFNE01.JPG,AFNE01.JPG,AFNE01.JPG,AFNE01.JPG,AFNE01.JPG,1,5,15,3,,,,,,,,,,,,,,,,,,,,,,,AFNE04.jpg,AFSA14.jpg,AFNE03.jpg,AFSA06.jpg,AFNE04.jpg,FN,3,num_8,16,num_8,0.683474902311,,,2018_Jan_24_1253,59.9916683502,FEMA4ImagesEEG,001,102656,
AFNE01.JPG,AFNE01.JPG,AFNE01.JPG,AFNE01.JPG,AFNE01.JPG,AFNE01.JPG,1,6,16,7,,,,,,,,,,,,,,,,,,,,,,,AFSA18.jpg,AFNE14.jpg,AFSA12.jpg,AFNE19.jpg,AFNE14.jpg,FN,3,num_6,16,num_6,0.566629578514,,,2018_Jan_24_1253,59.9916683502,FEMA4ImagesEEG,001,102656,
AFNE01.JPG,AFNE01.JPG,AFNE01.JPG,AFNE01.JPG,AFNE01.JPG,AFNE01.JPG,1,7,17,0,,,,,,,,,,,,,,,,,,,,,,,AFNE06.jpg,AFSA14.jpg,AFSA01.jpg,AFNE04.jpg,AFNE06.jpg,FN,3,num_8,16,num_8,1.91670625124,,,2018_Jan_24_1253,59.9916683502,FEMA4ImagesEEG,001,102656,
AFNE01.JPG,AFNE01.JPG,AFNE01.JPG,AFNE01.JPG,AFNE01.JPG,AFNE01.JPG,1,8,18,5,,,,,,,,,,,,,,,,,,,,,,,AFSA14.jpg,AFSA15.jpg,AFNE08.jpg,AFNE01.jpg,AFSA15.jpg,FS,4,num_6,16,num_6,1.23339781262,,,2018_Jan_24_1253,59.9916683502,FEMA4ImagesEEG,001,102656,
AFNE01.JPG,AFNE01.JPG,AFNE01.JPG,AFNE01.JPG,AFNE01.JPG,AFNE01.JPG,1,9,19,4,,,,,,,,,,,,,,,,,,,,,,,AFSA12.jpg,AFNE17.jpg,AFNE13.jpg,AFSA03.jpg,AFSA03.jpg,FS,4,num_4,16,num_4,1.69995448709,,,2018_Jan_24_1253,59.9916683502,FEMA4ImagesEEG,001,102656,
AFNE01.JPG,AFNE01.JPG,AFNE01.JPG,AFNE01.JPG,AFNE01.JPG,AFNE01.JPG,2,0,20,5,,,,,,,,,,,,,,,,,,,,,,,AFNE14.jpg,AFSA06.jpg,AFSA17.jpg,AFNE06.jpg,AFNE14.jpg,FN,3,num_8,16,num_8,1.566996825,,,2018_Jan_24_1253,59.9916683502,FEMA4ImagesEEG,001,102656,
AFNE01.JPG,AFNE01.JPG,AFNE01.JPG,AFNE01.JPG,AFNE01.JPG,AFNE01.JPG,2,1,21,8,,,,,,,,,,,,,,,,,,,,,,,AFSA08.jpg,AFSA04.jpg,AFNE14.jpg,AFNE18.jpg,AFNE14.jpg,FN,3,num_2,32,num_8,0.916818830732,,,2018_Jan_24_1253,59.9916683502,FEMA4ImagesEEG,001,102656,
AFNE01.JPG,AFNE01.JPG,AFNE01.JPG,AFNE01.JPG,AFNE01.JPG,AFNE01.JPG,2,2,22,3,,,,,,,,,,,,,,,,,,,,,,,AFSA05.jpg,AFNE10.jpg,AFSA04.jpg,AFNE13.jpg,AFNE10.jpg,FN,3,num_6,16,num_6,0.666804477649,,,2018_Jan_24_1253,59.9916683502,FEMA4ImagesEEG,001,102656,
AFNE01.JPG,AFNE01.JPG,AFNE01.JPG,AFNE01.JPG,AFNE01.JPG,AFNE01.JPG,2,3,23,6,,,,,,,,,,,,,,,,,,,,,,,AFSA02.jpg,AFSA14.jpg,AFNE20.jpg,AFNE18.jpg,AFNE18.jpg,FN,3,num_4,32,num_8,0.733494836258,,,2018_Jan_24_1253,59.9916683502,FEMA4ImagesEEG,001,102656,
AFNE01.JPG,AFNE01.JPG,AFNE01.JPG,AFNE01.JPG,AFNE01.JPG,AFNE01.JPG,2,4,24,2,,,,,,,,,,,,,,,,,,,,,,,AFNE18.jpg,AFSA10.jpg,AFSA15.jpg,AFNE02.jpg,AFSA10.jpg,FS,4,num_6,32,num_2,1.00006863821,,,2018_Jan_24_1253,59.9916683502,FEMA4ImagesEEG,001,102656,
AFNE01.JPG,AFNE01.JPG,AFNE01.JPG,AFNE01.JPG,AFNE01.JPG,AFNE01.JPG,2,5,25,7,,,,,,,,,,,,,,,,,,,,,,,AFNE13.jpg,AFSA20.jpg,AFNE02.jpg,AFSA02.jpg,AFNE13.jpg,FN,3,num_8,32,num_4,0.783553579659,,,2018_Jan_24_1253,59.9916683502,FEMA4ImagesEEG,001,102656,
AFNE01.JPG,AFNE01.JPG,AFNE01.JPG,AFNE01.JPG,AFNE01.JPG,AFNE01.JPG,2,6,26,9,,,,,,,,,,,,,,,,,,,,,,,AFNE17.jpg,AFSA17.jpg,AFSA15.jpg,AFNE07.jpg,AFSA17.jpg,FS,4,num_6,16,num_6,0.533552376887,,,2018_Jan_24_1253,59.9916683502,FEMA4ImagesEEG,001,102656,
AFNE01.JPG,AFNE01.JPG,AFNE01.JPG,AFNE01.JPG,AFNE01.JPG,AFNE01.JPG,2,7,27,0,,,,,,,,,,,,,,,,,,,,,,,AFSA11.jpg,AFSA19.jpg,AFNE11.jpg,AFNE19.jpg,AFNE19.jpg,FN,3,num_4,32,num_8,1.01679519225,,,2018_Jan_24_1253,59.9916683502,FEMA4ImagesEEG,001,102656,
AFNE01.JPG,AFNE01.JPG,AFNE01.JPG,AFNE01.JPG,AFNE01.JPG,AFNE01.JPG,2,8,28,4,,,,,,,,,,,,,,,,,,,,,,,AFNE14.jpg,AFNE03.jpg,AFSA11.jpg,AFSA09.jpg,AFSA11.jpg,FS,4,num_2,16,num_2,0.616814372456,,,2018_Jan_24_1253,59.9916683502,FEMA4ImagesEEG,001,102656,
AFNE01.JPG,AFNE01.JPG,AFNE01.JPG,AFNE01.JPG,AFNE01.JPG,AFNE01.JPG,2,9,29,1,,,,,,,,,,,,,,,,,,,,,,,AFSA10.jpg,AFSA13.jpg,AFNE07.jpg,AFNE11.jpg,AFSA10.jpg,FS,4,num_8,16,num_8,0.800154724634,,,2018_Jan_24_1253,59.9916683502,FEMA4ImagesEEG,001,102656,
AFNE01.JPG,AFNE01.JPG,AFNE01.JPG,AFNE01.JPG,AFNE01.JPG,AFNE01.JPG,3,0,30,0,,,,,,,,,,,,,,,,,,,,,,,AFNE18.jpg,AFSA03.jpg,AFSA05.jpg,AFNE20.jpg,AFNE18.jpg,FN,3,num_8,32,num_2,0.716799714671,,,2018_Jan_24_1253,59.9916683502,FEMA4ImagesEEG,001,102656,
AFNE01.JPG,AFNE01.JPG,AFNE01.JPG,AFNE01.JPG,AFNE01.JPG,AFNE01.JPG,3,1,31,2,,,,,,,,,,,,,,,,,,,,,,,AFNE20.jpg,AFSA01.jpg,AFSA13.jpg,AFNE18.jpg,AFSA13.jpg,FS,4,num_2,32,num_6,1.0668282765,,,2018_Jan_24_1253,59.9916683502,FEMA4ImagesEEG,001,102656,
AFNE01.JPG,AFNE01.JPG,AFNE01.JPG,AFNE01.JPG,AFNE01.JPG,AFNE01.JPG,3,2,32,3,,,,,,,,,,,,,,,,,,,,,,,AFSA02.jpg,AFSA09.jpg,AFNE11.jpg,AFNE01.jpg,AFNE01.jpg,FN,3,num_4,16,num_4,0.983488982765,,,2018_Jan_24_1253,59.9916683502,FEMA4ImagesEEG,001,102656,
AFNE01.JPG,AFNE01.JPG,AFNE01.JPG,AFNE01.JPG,AFNE01.JPG,AFNE01.JPG,3,3,33,8,,,,,,,,,,,,,,,,,,,,,,,AFNE06.jpg,AFSA14.jpg,AFSA16.jpg,AFNE08.jpg,AFSA16.jpg,FS,4,num_2,32,num_8,1.0501126276,,,2018_Jan_24_1253,59.9916683502,FEMA4ImagesEEG,001,102656,
AFNE01.JPG,AFNE01.JPG,AFNE01.JPG,AFNE01.JPG,AFNE01.JPG,AFNE01.JPG,3,4,34,4,,,,,,,,,,,,,,,,,,,,,,,AFSA02.jpg,AFSA08.jpg,AFNE05.jpg,AFNE09.jpg,AFSA08.jpg,FS,4,num_6,32,num_2,2.01673040291,,,2018_Jan_24_1253,59.9916683502,FEMA4ImagesEEG,001,102656,
AFNE01.JPG,AFNE01.JPG,AFNE01.JPG,AFNE01.JPG,AFNE01.JPG,AFNE01.JPG,3,5,35,5,,,,,,,,,,,,,,,,,,,,,,,AFNE09.jpg,AFNE13.jpg,AFSA02.jpg,AFSA06.jpg,AFSA06.jpg,FS,4,num_4,16,num_4,0.983486096112,,,2018_Jan_24_1253,59.9916683502,FEMA4ImagesEEG,001,102656,
AFNE01.JPG,AFNE01.JPG,AFNE01.JPG,AFNE01.JPG,AFNE01.JPG,AFNE01.JPG,3,6,36,1,,,,,,,,,,,,,,,,,,,,,,,AFSA07.jpg,AFSA02.jpg,AFNE03.jpg,AFNE04.jpg,AFSA07.jpg,FS,4,num_8,16,num_8,0.650118336762,,,2018_Jan_24_1253,59.9916683502,FEMA4ImagesEEG,001,102656,
AFNE01.JPG,AFNE01.JPG,AFNE01.JPG,AFNE01.JPG,AFNE01.JPG,AFNE01.JPG,3,7,37,6,,,,,,,,,,,,,,,,,,,,,,,AFNE02.jpg,AFSA15.jpg,AFSA18.jpg,AFNE04.jpg,AFSA18.jpg,FS,4,num_2,16,num_2,0.716765074827,,,2018_Jan_24_1253,59.9916683502,FEMA4ImagesEEG,001,102656,
AFNE01.JPG,AFNE01.JPG,AFNE01.JPG,AFNE01.JPG,AFNE01.JPG,AFNE01.JPG,3,8,38,9,,,,,,,,,,,,,,,,,,,,,,,AFSA02.jpg,AFNE19.jpg,AFSA04.jpg,AFNE04.jpg,AFNE04.jpg,FN,3,num_4,16,num_4,0.900168291906,,,2018_Jan_24_1253,59.9916683502,FEMA4ImagesEEG,001,102656,
AFNE01.JPG,AFNE01.JPG,AFNE01.JPG,AFNE01.JPG,AFNE01.JPG,AFNE01.JPG,3,9,39,7,,,,,,,,,,,,,,,,,,,,,,,AFSA03.jpg,AFSA02.jpg,AFNE08.jpg,AFNE06.jpg,AFSA03.jpg,FS,4,num_8,32,num_6,1.06677727896,,,2018_Jan_24_1253,59.9916683502,FEMA4ImagesEEG,001,102656,
AFNE01.JPG,AFNE01.JPG,AFNE01.JPG,AFNE01.JPG,AFNE01.JPG,AFNE01.JPG,4,0,40,8,,,,,,,,,,,,,,,,,,,,,,,AFSA03.jpg,AFSA10.jpg,AFNE01.jpg,AFNE07.jpg,AFNE01.jpg,FN,3,num_2,16,num_2,0.950199130989,,,2018_Jan_24_1253,59.9916683502,FEMA4ImagesEEG,001,102656,
AFNE01.JPG,AFNE01.JPG,AFNE01.JPG,AFNE01.JPG,AFNE01.JPG,AFNE01.JPG,4,1,41,9,,,,,,,,,,,,,,,,,,,,,,,AFNE15.jpg,AFSA01.jpg,AFSA06.jpg,AFNE09.jpg,AFSA06.jpg,FS,4,num_2,32,num_8,0.366826640734,,,2018_Jan_24_1253,59.9916683502,FEMA4ImagesEEG,001,102656,
AFNE01.JPG,AFNE01.JPG,AFNE01.JPG,AFNE01.JPG,AFNE01.JPG,AFNE01.JPG,4,2,42,4,,,,,,,,,,,,,,,,,,,,,,,AFSA19.jpg,AFNE02.jpg,AFNE20.jpg,AFSA20.jpg,AFNE02.jpg,FN,3,num_6,16,num_6,0.950490041527,,,2018_Jan_24_1253,59.9916683502,FEMA4ImagesEEG,001,102656,
AFNE01.JPG,AFNE01.JPG,AFNE01.JPG,AFNE01.JPG,AFNE01.JPG,AFNE01.JPG,4,3,43,1,,,,,,,,,,,,,,,,,,,,,,,AFSA17.jpg,AFNE06.jpg,AFNE11.jpg,AFSA08.jpg,AFNE06.jpg,FN,3,num_6,32,num_2,2.20003226637,,,2018_Jan_24_1253,59.9916683502,FEMA4ImagesEEG,001,102656,
AFNE01.JPG,AFNE01.JPG,AFNE01.JPG,AFNE01.JPG,AFNE01.JPG,AFNE01.JPG,4,4,44,0,,,,,,,,,,,,,,,,,,,,,,,AFSA09.jpg,AFNE20.jpg,AFSA04.jpg,AFNE17.jpg,AFSA04.jpg,FS,4,num_2,32,num_6,1.01677209902,,,2018_Jan_24_1253,59.9916683502,FEMA4ImagesEEG,001,102656,
AFNE01.JPG,AFNE01.JPG,AFNE01.JPG,AFNE01.JPG,AFNE01.JPG,AFNE01.JPG,4,5,45,3,,,,,,,,,,,,,,,,,,,,,,,AFSA14.jpg,AFSA09.jpg,AFNE15.jpg,AFNE11.jpg,AFNE15.jpg,FN,3,num_2,16,num_2,1.06661723005,,,2018_Jan_24_1253,59.9916683502,FEMA4ImagesEEG,001,102656,
AFNE01.JPG,AFNE01.JPG,AFNE01.JPG,AFNE01.JPG,AFNE01.JPG,AFNE01.JPG,4,6,46,5,,,,,,,,,,,,,,,,,,,,,,,AFSA05.jpg,AFSA20.jpg,AFNE18.jpg,AFNE13.jpg,AFNE18.jpg,FN,3,num_2,32,num_4,0.733574379602,,,2018_Jan_24_1253,59.9916683502,FEMA4ImagesEEG,001,102656,
AFNE01.JPG,AFNE01.JPG,AFNE01.JPG,AFNE01.JPG,AFNE01.JPG,AFNE01.JPG,4,7,47,7,,,,,,,,,,,,,,,,,,,,,,,AFNE01.jpg,AFSA15.jpg,AFNE07.jpg,AFSA16.jpg,AFNE01.jpg,FN,3,num_8,16,num_8,1.116726971,,,2018_Jan_24_1253,59.9916683502,FEMA4ImagesEEG,001,102656,
AFNE01.JPG,AFNE01.JPG,AFNE01.JPG,AFNE01.JPG,AFNE01.JPG,AFNE01.JPG,4,8,48,6,,,,,,,,,,,,,,,,,,,,,,,AFNE04.jpg,AFSA07.jpg,AFNE07.jpg,AFSA20.jpg,AFSA07.jpg,FS,4,num_6,16,num_6,0.883457774832,,,2018_Jan_24_1253,59.9916683502,FEMA4ImagesEEG,001,102656,
AFNE01.JPG,AFNE01.JPG,AFNE01.JPG,AFNE01.JPG,AFNE01.JPG,AFNE01.JPG,4,9,49,2,,,,,,,,,,,,,,,,,,,,,,,AFNE03.jpg,AFSA05.jpg,AFSA06.jpg,AFNE04.jpg,AFSA05.jpg,FS,4,num_6,32,num_2,0.766821252314,,,2018_Jan_24_1253,59.9916683502,FEMA4ImagesEEG,001,102656,
AFNE01.JPG,AFNE01.JPG,AFNE01.JPG,AFNE01.JPG,AFNE01.JPG,AFNE01.JPG,5,0,50,5,,,,,,,,,,,,,,,,,,,,,,,AFNE08.jpg,AFSA05.jpg,AFNE06.jpg,AFSA06.jpg,AFSA06.jpg,FS,4,num_4,32,num_6,0.916754682873,,,2018_Jan_24_1253,59.9916683502,FEMA4ImagesEEG,001,102656,
AFNE01.JPG,AFNE01.JPG,AFNE01.JPG,AFNE01.JPG,AFNE01.JPG,AFNE01.JPG,5,1,51,7,,,,,,,,,,,,,,,,,,,,,,,AFNE14.jpg,AFSA11.jpg,AFSA02.jpg,AFNE11.jpg,AFSA11.jpg,FS,4,num_6,32,num_8,0.700152062498,,,2018_Jan_24_1253,59.9916683502,FEMA4ImagesEEG,001,102656,
AFNE01.JPG,AFNE01.JPG,AFNE01.JPG,AFNE01.JPG,AFNE01.JPG,AFNE01.JPG,5,2,52,4,,,,,,,,,,,,,,,,,,,,,,,AFNE20.jpg,AFSA12.jpg,AFSA03.jpg,AFNE03.jpg,AFSA12.jpg,FS,4,num_6,32,num_2,2.16669237927,,,2018_Jan_24_1253,59.9916683502,FEMA4ImagesEEG,001,102656,
AFNE01.JPG,AFNE01.JPG,AFNE01.JPG,AFNE01.JPG,AFNE01.JPG,AFNE01.JPG,5,3,53,9,,,,,,,,,,,,,,,,,,,,,,,AFSA03.jpg,AFNE11.jpg,AFSA14.jpg,AFNE02.jpg,AFSA03.jpg,FS,4,num_8,32,num_2,0.883323385069,,,2018_Jan_24_1253,59.9916683502,FEMA4ImagesEEG,001,102656,
AFNE01.JPG,AFNE01.JPG,AFNE01.JPG,AFNE01.JPG,AFNE01.JPG,AFNE01.JPG,5,4,54,8,,,,,,,,,,,,,,,,,,,,,,,AFSA19.jpg,AFSA02.jpg,AFNE03.jpg,AFNE01.jpg,AFNE01.jpg,FN,3,num_4,32,num_8,0.600168965459,,,2018_Jan_24_1253,59.9916683502,FEMA4ImagesEEG,001,102656,
AFNE01.JPG,AFNE01.JPG,AFNE01.JPG,AFNE01.JPG,AFNE01.JPG,AFNE01.JPG,5,5,55,3,,,,,,,,,,,,,,,,,,,,,,,AFNE16.jpg,AFNE01.jpg,AFSA15.jpg,AFSA11.jpg,AFSA11.jpg,FS,4,num_4,16,num_4,0.733479761511,,,2018_Jan_24_1253,59.9916683502,FEMA4ImagesEEG,001,102656,
AFNE01.JPG,AFNE01.JPG,AFNE01.JPG,AFNE01.JPG,AFNE01.JPG,AFNE01.JPG,5,6,56,0,,,,,,,,,,,,,,,,,,,,,,,AFNE13.jpg,AFSA16.jpg,AFSA05.jpg,AFNE10.jpg,AFNE10.jpg,FN,3,num_4,16,num_4,0.91684673505,,,2018_Jan_24_1253,59.9916683502,FEMA4ImagesEEG,001,102656,
AFNE01.JPG,AFNE01.JPG,AFNE01.JPG,AFNE01.JPG,AFNE01.JPG,AFNE01.JPG,5,7,57,2,,,,,,,,,,,,,,,,,,,,,,,AFNE15.jpg,AFNE19.jpg,AFSA01.jpg,AFSA19.jpg,AFSA01.jpg,FS,4,num_2,16,num_2,0.63348864599,,,2018_Jan_24_1253,59.9916683502,FEMA4ImagesEEG,001,102656,
AFNE01.JPG,AFNE01.JPG,AFNE01.JPG,AFNE01.JPG,AFNE01.JPG,AFNE01.JPG,5,8,58,1,,,,,,,,,,,,,,,,,,,,,,,AFNE10.jpg,AFNE07.jpg,AFSA07.jpg,AFSA08.jpg,AFSA08.jpg,FS,4,num_4,32,num_6,0.850153810527,,,2018_Jan_24_1253,59.9916683502,FEMA4ImagesEEG,001,102656,
AFNE01.JPG,AFNE01.JPG,AFNE01.JPG,AFNE01.JPG,AFNE01.JPG,AFNE01.JPG,5,9,59,6,,,,,,,,,,,,,,,,,,,,,,,AFNE11.jpg,AFNE06.jpg,AFSA01.jpg,AFSA11.jpg,AFNE06.jpg,FN,3,num_6,16,num_6,1.51651695091,,,2018_Jan_24_1253,59.9916683502,FEMA4ImagesEEG,001,102656,
,,,,,,,,,,,,,,,,,,,,,,,,,,,,,,,,,,,,,,,,,,,space,14.3320681237,2018_Jan_24_1253,59.9916683502,FEMA4ImagesEEG,001,102656,
AFNE01.JPG,AFNE01.JPG,AFNE01.JPG,AFNE01.JPG,AFNE01.JPG,AFNE01.JPG,,,,,0,0,0,3,,,,,,,,,,,,,,,,,,,AMSA20.jpg,AMNE01.jpg,AMSA04.jpg,AMNE18.jpg,AMSA20.jpg,MS,2,num_8,16,num_8,0.833487555476,,,2018_Jan_24_1253,59.9916683502,FEMA4ImagesEEG,001,102656,
AFNE01.JPG,AFNE01.JPG,AFNE01.JPG,AFNE01.JPG,AFNE01.JPG,AFNE01.JPG,,,,,0,1,1,4,,,,,,,,,,,,,,,,,,,AMSA05.jpg,AMSA11.jpg,AMNE15.jpg,AMNE03.jpg,AMSA05.jpg,MS,2,num_8,16,num_8,0.78331783628,,,2018_Jan_24_1253,59.9916683502,FEMA4ImagesEEG,001,102656,
AFNE01.JPG,AFNE01.JPG,AFNE01.JPG,AFNE01.JPG,AFNE01.JPG,AFNE01.JPG,,,,,0,2,2,9,,,,,,,,,,,,,,,,,,,AMNE07.jpg,AMNE09.jpg,AMSA09.jpg,AMSA04.jpg,AMNE07.jpg,MN,1,num_8,32,num_2,0.916801510811,,,2018_Jan_24_1253,59.9916683502,FEMA4ImagesEEG,001,102656,
AFNE01.JPG,AFNE01.JPG,AFNE01.JPG,AFNE01.JPG,AFNE01.JPG,AFNE01.JPG,,,,,0,3,3,5,,,,,,,,,,,,,,,,,,,AMNE05.jpg,AMSA18.jpg,AMSA19.jpg,AMNE02.jpg,AMSA19.jpg,MS,2,num_2,32,num_6,0.633540285015,,,2018_Jan_24_1253,59.9916683502,FEMA4ImagesEEG,001,102656,
AFNE01.JPG,AFNE01.JPG,AFNE01.JPG,AFNE01.JPG,AFNE01.JPG,AFNE01.JPG,,,,,0,4,4,1,,,,,,,,,,,,,,,,,,,AMNE03.jpg,AMSA20.jpg,AMNE18.jpg,AMSA12.jpg,AMSA20.jpg,MS,2,num_6,32,num_8,1.46658297509,,,2018_Jan_24_1253,59.9916683502,FEMA4ImagesEEG,001,102656,
AFNE01.JPG,AFNE01.JPG,AFNE01.JPG,AFNE01.JPG,AFNE01.JPG,AFNE01.JPG,,,,,0,5,5,6,,,,,,,,,,,,,,,,,,,AMNE15.jpg,AMSA15.jpg,AMNE14.jpg,AMSA08.jpg,AMNE14.jpg,MN,1,num_2,32,num_4,0.433485566892,,,2018_Jan_24_1253,59.9916683502,FEMA4ImagesEEG,001,102656,
AFNE01.JPG,AFNE01.JPG,AFNE01.JPG,AFNE01.JPG,AFNE01.JPG,AFNE01.JPG,,,,,0,6,6,8,,,,,,,,,,,,,,,,,,,AMNE10.jpg,AMSA15.jpg,AMSA02.jpg,AMNE01.jpg,AMSA15.jpg,MS,2,num_6,16,num_6,0.583485069747,,,2018_Jan_24_1253,59.9916683502,FEMA4ImagesEEG,001,102656,
AFNE01.JPG,AFNE01.JPG,AFNE01.JPG,AFNE01.JPG,AFNE01.JPG,AFNE01.JPG,,,,,0,7,7,7,,,,,,,,,,,,,,,,,,,AMSA12.jpg,AMNE13.jpg,AMSA06.jpg,AMNE01.jpg,AMSA12.jpg,MS,2,num_8,16,num_8,0.350172253036,,,2018_Jan_24_1253,59.9916683502,FEMA4ImagesEEG,001,102656,
AFNE01.JPG,AFNE01.JPG,AFNE01.JPG,AFNE01.JPG,AFNE01.JPG,AFNE01.JPG,,,,,0,8,8,0,,,,,,,,,,,,,,,,,,,AMNE08.jpg,AMNE13.jpg,AMSA07.jpg,AMSA18.jpg,AMNE13.jpg,MN,1,num_6,16,num_6,0.433591090119,,,2018_Jan_24_1253,59.9916683502,FEMA4ImagesEEG,001,102656,
AFNE01.JPG,AFNE01.JPG,AFNE01.JPG,AFNE01.JPG,AFNE01.JPG,AFNE01.JPG,,,,,0,9,9,2,,,,,,,,,,,,,,,,,,,AMSA14.jpg,AMNE04.jpg,AMNE19.jpg,AMSA17.jpg,AMNE19.jpg,MN,1,num_2,16,num_2,0.700133138879,,,2018_Jan_24_1253,59.9916683502,FEMA4ImagesEEG,001,102656,
AFNE01.JPG,AFNE01.JPG,AFNE01.JPG,AFNE01.JPG,AFNE01.JPG,AFNE01.JPG,,,,,1,0,10,4,,,,,,,,,,,,,,,,,,,AMNE18.jpg,AMNE11.jpg,AMSA14.jpg,AMSA15.jpg,AMNE18.jpg,MN,1,num_8,32,num_4,0.966638623361,,,2018_Jan_24_1253,59.9916683502,FEMA4ImagesEEG,001,102656,
AFNE01.JPG,AFNE01.JPG,AFNE01.JPG,AFNE01.JPG,AFNE01.JPG,AFNE01.JPG,,,,,1,1,11,8,,,,,,,,,,,,,,,,,,,AMSA15.jpg,AMNE03.jpg,AMSA17.jpg,AMNE07.jpg,AMSA15.jpg,MS,2,num_8,16,num_8,0.766826063404,,,2018_Jan_24_1253,59.9916683502,FEMA4ImagesEEG,001,102656,
AFNE01.JPG,AFNE01.JPG,AFNE01.JPG,AFNE01.JPG,AFNE01.JPG,AFNE01.JPG,,,,,1,2,12,1,,,,,,,,,,,,,,,,,,,AMSA18.jpg,AMSA02.jpg,AMNE17.jpg,AMNE14.jpg,AMSA18.jpg,MS,2,num_8,16,num_8,0.800153762416,,,2018_Jan_24_1253,59.9916683502,FEMA4ImagesEEG,001,102656,
AFNE01.JPG,AFNE01.JPG,AFNE01.JPG,AFNE01.JPG,AFNE01.JPG,AFNE01.JPG,,,,,1,3,13,5,,,,,,,,,,,,,,,,,,,AMSA02.jpg,AMSA13.jpg,AMNE06.jpg,AMNE09.jpg,AMSA02.jpg,MS,2,num_8,16,num_8,0.683499919975,,,2018_Jan_24_1253,59.9916683502,FEMA4ImagesEEG,001,102656,
AFNE01.JPG,AFNE01.JPG,AFNE01.JPG,AFNE01.JPG,AFNE01.JPG,AFNE01.JPG,,,,,1,4,14,2,,,,,,,,,,,,,,,,,,,AMSA11.jpg,AMNE05.jpg,AMNE09.jpg,AMSA20.jpg,AMSA11.jpg,MS,2,num_8,32,num_6,1.03334854707,,,2018_Jan_24_1253,59.9916683502,FEMA4ImagesEEG,001,102656,
AFNE01.JPG,AFNE01.JPG,AFNE01.JPG,AFNE01.JPG,AFNE01.JPG,AFNE01.JPG,,,,,1,5,15,9,,,,,,,,,,,,,,,,,,,AMNE20.jpg,AMSA08.jpg,AMSA04.jpg,AMNE15.jpg,AMNE15.jpg,MN,1,num_4,16,num_4,1.40005779722,,,2018_Jan_24_1253,59.9916683502,FEMA4ImagesEEG,001,102656,
AFNE01.JPG,AFNE01.JPG,AFNE01.JPG,AFNE01.JPG,AFNE01.JPG,AFNE01.JPG,,,,,1,6,16,7,,,,,,,,,,,,,,,,,,,AMNE04.jpg,AMSA14.jpg,AMSA20.jpg,AMNE05.jpg,AMNE04.jpg,MN,1,num_8,16,num_8,1.20009577275,,,2018_Jan_24_1253,59.9916683502,FEMA4ImagesEEG,001,102656,
AFNE01.JPG,AFNE01.JPG,AFNE01.JPG,AFNE01.JPG,AFNE01.JPG,AFNE01.JPG,,,,,1,7,17,6,,,,,,,,,,,,,,,,,,,AMNE08.jpg,AMNE14.jpg,AMSA07.jpg,AMSA11.jpg,AMNE14.jpg,MN,1,num_6,16,num_6,0.750125809987,,,2018_Jan_24_1253,59.9916683502,FEMA4ImagesEEG,001,102656,
AFNE01.JPG,AFNE01.JPG,AFNE01.JPG,AFNE01.JPG,AFNE01.JPG,AFNE01.JPG,,,,,1,8,18,0,,,,,,,,,,,,,,,,,,,AMSA15.jpg,AMNE15.jpg,AMSA03.jpg,AMNE08.jpg,AMNE15.jpg,MN,1,num_6,16,num_6,0.900166046731,,,2018_Jan_24_1253,59.9916683502,FEMA4ImagesEEG,001,102656,
AFNE01.JPG,AFNE01.JPG,AFNE01.JPG,AFNE01.JPG,AFNE01.JPG,AFNE01.JPG,,,,,1,9,19,3,,,,,,,,,,,,,,,,,,,AMSA20.jpg,AMNE08.jpg,AMSA11.jpg,AMNE10.jpg,AMNE10.jpg,MN,1,num_4,32,num_8,0.550196500927,,,2018_Jan_24_1253,59.9916683502,FEMA4ImagesEEG,001,102656,
AFNE01.JPG,AFNE01.JPG,AFNE01.JPG,AFNE01.JPG,AFNE01.JPG,AFNE01.JPG,,,,,2,0,20,8,,,,,,,,,,,,,,,,,,,AMNE02.jpg,AMSA09.jpg,AMNE16.jpg,AMSA20.jpg,AMNE16.jpg,MN,1,num_2,32,num_4,0.616828805724,,,2018_Jan_24_1253,59.9916683502,FEMA4ImagesEEG,001,102656,
AFNE01.JPG,AFNE01.JPG,AFNE01.JPG,AFNE01.JPG,AFNE01.JPG,AFNE01.JPG,,,,,2,1,21,6,,,,,,,,,,,,,,,,,,,AMSA02.jpg,AMNE05.jpg,AMNE08.jpg,AMSA17.jpg,AMNE05.jpg,MN,1,num_6,16,num_6,0.750239993175,,,2018_Jan_24_1253,59.9916683502,FEMA4ImagesEEG,001,102656,
AFNE01.JPG,AFNE01.JPG,AFNE01.JPG,AFNE01.JPG,AFNE01.JPG,AFNE01.JPG,,,,,2,2,22,4,,,,,,,,,,,,,,,,,,,AMSA14.jpg,AMNE17.jpg,AMSA17.jpg,AMNE19.jpg,AMSA17.jpg,MS,2,num_2,32,num_4,0.80016562977,,,2018_Jan_24_1253,59.9916683502,FEMA4ImagesEEG,001,102656,
AFNE01.JPG,AFNE01.JPG,AFNE01.JPG,AFNE01.JPG,AFNE01.JPG,AFNE01.JPG,,,,,2,3,23,1,,,,,,,,,,,,,,,,,,,AMNE02.jpg,AMNE12.jpg,AMSA03.jpg,AMSA11.jpg,AMSA03.jpg,MS,2,num_2,32,num_8,1.11663074921,,,2018_Jan_24_1253,59.9916683502,FEMA4ImagesEEG,001,102656,
AFNE01.JPG,AFNE01.JPG,AFNE01.JPG,AFNE01.JPG,AFNE01.JPG,AFNE01.JPG,,,,,2,4,24,3,,,,,,,,,,,,,,,,,,,AMSA03.jpg,AMNE18.jpg,AMNE10.jpg,AMSA02.jpg,AMNE10.jpg,MN,1,num_2,16,num_2,0.883468359229,,,2018_Jan_24_1253,59.9916683502,FEMA4ImagesEEG,001,102656,
AFNE01.JPG,AFNE01.JPG,AFNE01.JPG,AFNE01.JPG,AFNE01.JPG,AFNE01.JPG,,,,,2,5,25,5,,,,,,,,,,,,,,,,,,,AMNE15.jpg,AMSA18.jpg,AMSA08.jpg,AMNE05.jpg,AMSA08.jpg,MS,2,num_2,32,num_4,1.86680691527,,,2018_Jan_24_1253,59.9916683502,FEMA4ImagesEEG,001,102656,
AFNE01.JPG,AFNE01.JPG,AFNE01.JPG,AFNE01.JPG,AFNE01.JPG,AFNE01.JPG,,,,,2,6,26,0,,,,,,,,,,,,,,,,,,,AMSA14.jpg,AMNE07.jpg,AMSA12.jpg,AMNE01.jpg,AMNE07.jpg,MN,1,num_6,16,num_6,1.83340480474,,,2018_Jan_24_1253,59.9916683502,FEMA4ImagesEEG,001,102656,
AFNE01.JPG,AFNE01.JPG,AFNE01.JPG,AFNE01.JPG,AFNE01.JPG,AFNE01.JPG,,,,,2,7,27,9,,,,,,,,,,,,,,,,,,,AMNE02.jpg,AMSA03.jpg,AMSA05.jpg,AMNE07.jpg,AMNE07.jpg,MN,1,num_4,16,num_4,1.10010016688,,,2018_Jan_24_1253,59.9916683502,FEMA4ImagesEEG,001,102656,
AFNE01.JPG,AFNE01.JPG,AFNE01.JPG,AFNE01.JPG,AFNE01.JPG,AFNE01.JPG,,,,,2,8,28,7,,,,,,,,,,,,,,,,,,,AMSA15.jpg,AMNE13.jpg,AMSA14.jpg,AMNE02.jpg,AMNE13.jpg,MN,1,num_6,32,num_2,1.21676876333,,,2018_Jan_24_1253,59.9916683502,FEMA4ImagesEEG,001,102656,
AFNE01.JPG,AFNE01.JPG,AFNE01.JPG,AFNE01.JPG,AFNE01.JPG,AFNE01.JPG,,,,,2,9,29,2,,,,,,,,,,,,,,,,,,,AMSA17.jpg,AMNE16.jpg,AMSA19.jpg,AMNE12.jpg,AMSA17.jpg,MS,2,num_8,16,num_8,1.45011621988,,,2018_Jan_24_1253,59.9916683502,FEMA4ImagesEEG,001,102656,
AFNE01.JPG,AFNE01.JPG,AFNE01.JPG,AFNE01.JPG,AFNE01.JPG,AFNE01.JPG,,,,,3,0,30,4,,,,,,,,,,,,,,,,,,,AMSA09.jpg,AMNE18.jpg,AMSA19.jpg,AMNE06.jpg,AMSA09.jpg,MS,2,num_8,32,num_6,2.0000343191,,,2018_Jan_24_1253,59.9916683502,FEMA4ImagesEEG,001,102656,
AFNE01.JPG,AFNE01.JPG,AFNE01.JPG,AFNE01.JPG,AFNE01.JPG,AFNE01.JPG,,,,,3,1,31,2,,,,,,,,,,,,,,,,,,,AMSA18.jpg,AMSA04.jpg,AMNE03.jpg,AMNE19.jpg,AMNE03.jpg,MN,1,num_2,16,num_2,1.18342470661,,,2018_Jan_24_1253,59.9916683502,FEMA4ImagesEEG,001,102656,
AFNE01.JPG,AFNE01.JPG,AFNE01.JPG,AFNE01.JPG,AFNE01.JPG,AFNE01.JPG,,,,,3,2,32,0,,,,,,,,,,,,,,,,,,,AMNE11.jpg,AMSA03.jpg,AMNE09.jpg,AMSA16.jpg,AMSA03.jpg,MS,2,num_6,32,num_2,1.08342332743,,,2018_Jan_24_1253,59.9916683502,FEMA4ImagesEEG,001,102656,
AFNE01.JPG,AFNE01.JPG,AFNE01.JPG,AFNE01.JPG,AFNE01.JPG,AFNE01.JPG,,,,,3,3,33,7,,,,,,,,,,,,,,,,,,,AMNE10.jpg,AMSA14.jpg,AMSA09.jpg,AMNE17.jpg,AMNE17.jpg,MN,1,num_4,16,num_4,0.800154724634,,,2018_Jan_24_1253,59.9916683502,FEMA4ImagesEEG,001,102656,
AFNE01.JPG,AFNE01.JPG,AFNE01.JPG,AFNE01.JPG,AFNE01.JPG,AFNE01.JPG,,,,,3,4,34,5,,,,,,,,,,,,,,,,,,,AMSA07.jpg,AMNE18.jpg,AMNE12.jpg,AMSA01.jpg,AMSA07.jpg,MS,2,num_8,16,num_8,1.63344470471,,,2018_Jan_24_1253,59.9916683502,FEMA4ImagesEEG,001,102656,
AFNE01.JPG,AFNE01.JPG,AFNE01.JPG,AFNE01.JPG,AFNE01.JPG,AFNE01.JPG,,,,,3,5,35,6,,,,,,,,,,,,,,,,,,,AMSA08.jpg,AMNE06.jpg,AMNE03.jpg,AMSA05.jpg,AMNE06.jpg,MN,1,num_6,16,num_6,1.15014062814,,,2018_Jan_24_1253,59.9916683502,FEMA4ImagesEEG,001,102656,
AFNE01.JPG,AFNE01.JPG,AFNE01.JPG,AFNE01.JPG,AFNE01.JPG,AFNE01.JPG,,,,,3,6,36,1,,,,,,,,,,,,,,,,,,,AMNE01.jpg,AMNE10.jpg,AMSA09.jpg,AMSA16.jpg,AMNE01.jpg,MN,1,num_8,48,None,,,,2018_Jan_24_1253,59.9916683502,FEMA4ImagesEEG,001,102656,
AFNE01.JPG,AFNE01.JPG,AFNE01.JPG,AFNE01.JPG,AFNE01.JPG,AFNE01.JPG,,,,,3,7,37,9,,,,,,,,,,,,,,,,,,,AMSA03.jpg,AMNE13.jpg,AMSA18.jpg,AMNE03.jpg,AMSA03.jpg,MS,2,num_8,32,num_4,2.08342204448,,,2018_Jan_24_1253,59.9916683502,FEMA4ImagesEEG,001,102656,
AFNE01.JPG,AFNE01.JPG,AFNE01.JPG,AFNE01.JPG,AFNE01.JPG,AFNE01.JPG,,,,,3,8,38,8,,,,,,,,,,,,,,,,,,,AMNE18.jpg,AMNE06.jpg,AMSA03.jpg,AMSA01.jpg,AMNE18.jpg,MN,1,num_8,32,num_6,0.883438530475,,,2018_Jan_24_1253,59.9916683502,FEMA4ImagesEEG,001,102656,
AFNE01.JPG,AFNE01.JPG,AFNE01.JPG,AFNE01.JPG,AFNE01.JPG,AFNE01.JPG,,,,,3,9,39,3,,,,,,,,,,,,,,,,,,,AMSA14.jpg,AMNE18.jpg,AMNE06.jpg,AMSA07.jpg,AMNE18.jpg,MN,1,num_6,32,num_4,1.94997397201,,,2018_Jan_24_1253,59.9916683502,FEMA4ImagesEEG,001,102656,
AFNE01.JPG,AFNE01.JPG,AFNE01.JPG,AFNE01.JPG,AFNE01.JPG,AFNE01.JPG,,,,,4,0,40,0,,,,,,,,,,,,,,,,,,,AMSA12.jpg,AMSA15.jpg,AMNE16.jpg,AMNE10.jpg,AMNE10.jpg,MN,1,num_4,32,num_8,0.900172140778,,,2018_Jan_24_1253,59.9916683502,FEMA4ImagesEEG,001,102656,
AFNE01.JPG,AFNE01.JPG,AFNE01.JPG,AFNE01.JPG,AFNE01.JPG,AFNE01.JPG,,,,,4,1,41,4,,,,,,,,,,,,,,,,,,,AMNE09.jpg,AMSA18.jpg,AMSA07.jpg,AMNE02.jpg,AMSA18.jpg,MS,2,num_6,32,num_4,1.14984907613,,,2018_Jan_24_1253,59.9916683502,FEMA4ImagesEEG,001,102656,
AFNE01.JPG,AFNE01.JPG,AFNE01.JPG,AFNE01.JPG,AFNE01.JPG,AFNE01.JPG,,,,,4,2,42,9,,,,,,,,,,,,,,,,,,,AMSA20.jpg,AMSA13.jpg,AMNE15.jpg,AMNE02.jpg,AMSA20.jpg,MS,2,num_8,32,num_6,0.883451680786,,,2018_Jan_24_1253,59.9916683502,FEMA4ImagesEEG,001,102656,
AFNE01.JPG,AFNE01.JPG,AFNE01.JPG,AFNE01.JPG,AFNE01.JPG,AFNE01.JPG,,,,,4,3,43,3,,,,,,,,,,,,,,,,,,,AMNE10.jpg,AMNE12.jpg,AMSA20.jpg,AMSA17.jpg,AMSA17.jpg,MS,2,num_4,32,num_2,0.583465825389,,,2018_Jan_24_1253,59.9916683502,FEMA4ImagesEEG,001,102656,
AFNE01.JPG,AFNE01.JPG,AFNE01.JPG,AFNE01.JPG,AFNE01.JPG,AFNE01.JPG,,,,,4,4,44,5,,,,,,,,,,,,,,,,,,,AMNE09.jpg,AMSA09.jpg,AMSA12.jpg,AMNE03.jpg,AMSA09.jpg,MS,2,num_6,16,num_6,1.06673718655,,,2018_Jan_24_1253,59.9916683502,FEMA4ImagesEEG,001,102656,
AFNE01.JPG,AFNE01.JPG,AFNE01.JPG,AFNE01.JPG,AFNE01.JPG,AFNE01.JPG,,,,,4,5,45,6,,,,,,,,,,,,,,,,,,,AMSA07.jpg,AMNE05.jpg,AMNE18.jpg,AMSA11.jpg,AMNE05.jpg,MN,1,num_6,32,num_8,1.63347613716,,,2018_Jan_24_1253,59.9916683502,FEMA4ImagesEEG,001,102656,
AFNE01.JPG,AFNE01.JPG,AFNE01.JPG,AFNE01.JPG,AFNE01.JPG,AFNE01.JPG,,,,,4,6,46,8,,,,,,,,,,,,,,,,,,,AMSA07.jpg,AMNE18.jpg,AMNE14.jpg,AMSA15.jpg,AMNE18.jpg,MN,1,num_6,16,num_6,0.566840945707,,,2018_Jan_24_1253,59.9916683502,FEMA4ImagesEEG,001,102656,
AFNE01.JPG,AFNE01.JPG,AFNE01.JPG,AFNE01.JPG,AFNE01.JPG,AFNE01.JPG,,,,,4,7,47,2,,,,,,,,,,,,,,,,,,,AMSA06.jpg,AMNE04.jpg,AMSA01.jpg,AMNE19.jpg,AMSA06.jpg,MS,2,num_8,32,num_4,0.733426839528,,,2018_Jan_24_1253,59.9916683502,FEMA4ImagesEEG,001,102656,
AFNE01.JPG,AFNE01.JPG,AFNE01.JPG,AFNE01.JPG,AFNE01.JPG,AFNE01.JPG,,,,,4,8,48,1,,,,,,,,,,,,,,,,,,,AMSA04.jpg,AMNE19.jpg,AMNE11.jpg,AMSA17.jpg,AMNE19.jpg,MN,1,num_6,16,num_6,0.450151180465,,,2018_Jan_24_1253,59.9916683502,FEMA4ImagesEEG,001,102656,
AFNE01.JPG,AFNE01.JPG,AFNE01.JPG,AFNE01.JPG,AFNE01.JPG,AFNE01.JPG,,,,,4,9,49,7,,,,,,,,,,,,,,,,,,,AMNE16.jpg,AMNE12.jpg,AMSA16.jpg,AMSA17.jpg,AMSA16.jpg,MS,2,num_2,32,num_4,0.866759445853,,,2018_Jan_24_1253,59.9916683502,FEMA4ImagesEEG,001,102656,
AFNE01.JPG,AFNE01.JPG,AFNE01.JPG,AFNE01.JPG,AFNE01.JPG,AFNE01.JPG,,,,,5,0,50,7,,,,,,,,,,,,,,,,,,,AMNE12.jpg,AMSA10.jpg,AMNE17.jpg,AMSA14.jpg,AMNE17.jpg,MN,1,num_2,32,num_6,1.28349600696,,,2018_Jan_24_1253,59.9916683502,FEMA4ImagesEEG,001,102656,
AFNE01.JPG,AFNE01.JPG,AFNE01.JPG,AFNE01.JPG,AFNE01.JPG,AFNE01.JPG,,,,,5,1,51,9,,,,,,,,,,,,,,,,,,,AMSA02.jpg,AMNE18.jpg,AMNE20.jpg,AMSA08.jpg,AMSA02.jpg,MS,2,num_8,16,num_8,0.666806402085,,,2018_Jan_24_1253,59.9916683502,FEMA4ImagesEEG,001,102656,
AFNE01.JPG,AFNE01.JPG,AFNE01.JPG,AFNE01.JPG,AFNE01.JPG,AFNE01.JPG,,,,,5,2,52,1,,,,,,,,,,,,,,,,,,,AMSA08.jpg,AMNE10.jpg,AMNE05.jpg,AMSA01.jpg,AMSA08.jpg,MS,2,num_8,16,num_8,1.91670272311,,,2018_Jan_24_1253,59.9916683502,FEMA4ImagesEEG,001,102656,
AFNE01.JPG,AFNE01.JPG,AFNE01.JPG,AFNE01.JPG,AFNE01.JPG,AFNE01.JPG,,,,,5,3,53,0,,,,,,,,,,,,,,,,,,,AMNE01.jpg,AMSA03.jpg,AMNE06.jpg,AMSA02.jpg,AMNE06.jpg,MN,1,num_2,32,num_6,0.816826752993,,,2018_Jan_24_1253,59.9916683502,FEMA4ImagesEEG,001,102656,
AFNE01.JPG,AFNE01.JPG,AFNE01.JPG,AFNE01.JPG,AFNE01.JPG,AFNE01.JPG,,,,,5,4,54,6,,,,,,,,,,,,,,,,,,,AMNE16.jpg,AMSA17.jpg,AMSA09.jpg,AMNE17.jpg,AMNE17.jpg,MN,1,num_4,32,num_6,0.983417778643,,,2018_Jan_24_1253,59.9916683502,FEMA4ImagesEEG,001,102656,
AFNE01.JPG,AFNE01.JPG,AFNE01.JPG,AFNE01.JPG,AFNE01.JPG,AFNE01.JPG,,,,,5,5,55,5,,,,,,,,,,,,,,,,,,,AMNE19.jpg,AMSA13.jpg,AMSA03.jpg,AMNE13.jpg,AMSA13.jpg,MS,2,num_6,32,num_8,1.06673975246,,,2018_Jan_24_1253,59.9916683502,FEMA4ImagesEEG,001,102656,
AFNE01.JPG,AFNE01.JPG,AFNE01.JPG,AFNE01.JPG,AFNE01.JPG,AFNE01.JPG,,,,,5,6,56,2,,,,,,,,,,,,,,,,,,,AMNE06.jpg,AMNE15.jpg,AMSA09.jpg,AMSA16.jpg,AMSA09.jpg,MS,2,num_2,32,num_6,0.433487170589,,,2018_Jan_24_1253,59.9916683502,FEMA4ImagesEEG,001,102656,
AFNE01.JPG,AFNE01.JPG,AFNE01.JPG,AFNE01.JPG,AFNE01.JPG,AFNE01.JPG,,,,,5,7,57,8,,,,,,,,,,,,,,,,,,,AMSA14.jpg,AMNE20.jpg,AMSA17.jpg,AMNE18.jpg,AMNE18.jpg,MN,1,num_4,16,num_4,0.733533966451,,,2018_Jan_24_1253,59.9916683502,FEMA4ImagesEEG,001,102656,
AFNE01.JPG,AFNE01.JPG,AFNE01.JPG,AFNE01.JPG,AFNE01.JPG,AFNE01.JPG,,,,,5,8,58,3,,,,,,,,,,,,,,,,,,,AMSA16.jpg,AMSA12.jpg,AMNE06.jpg,AMNE05.jpg,AMSA16.jpg,MS,2,num_8,16,num_8,0.68352974873,,,2018_Jan_24_1253,59.9916683502,FEMA4ImagesEEG,001,102656,
AFNE01.JPG,AFNE01.JPG,AFNE01.JPG,AFNE01.JPG,AFNE01.JPG,AFNE01.JPG,,,,,5,9,59,4,,,,,,,,,,,,,,,,,,,AMSA04.jpg,AMNE18.jpg,AMNE17.jpg,AMSA10.jpg,AMSA10.jpg,MS,2,num_4,16,num_4,1.13346314722,,,2018_Jan_24_1253,59.9916683502,FEMA4ImagesEEG,001,102656,
,,,,,,,,,,,,,,,,,,,,,,,,,,,,,,,,,,,,,,,,,,,space,40.4969464016,2018_Jan_24_1253,59.9916683502,FEMA4ImagesEEG,001,102656,
AFNE01.JPG,AFNE01.JPG,AFNE01.JPG,AFNE01.JPG,AFNE01.JPG,AFNE01.JPG,,,,,,,,,0,0,0,8,,,,,,,,,,,,,,,AFNE11.jpg,AFNE06.jpg,AFSA13.jpg,AFSA06.jpg,AFSA06.jpg,FS,4,num_4,32,num_6,0.766788536906,,,2018_Jan_24_1253,59.9916683502,FEMA4ImagesEEG,001,102656,
AFNE01.JPG,AFNE01.JPG,AFNE01.JPG,AFNE01.JPG,AFNE01.JPG,AFNE01.JPG,,,,,,,,,0,1,1,4,,,,,,,,,,,,,,,AFSA10.jpg,AFSA04.jpg,AFNE03.jpg,AFNE20.jpg,AFNE20.jpg,FN,3,num_4,32,num_2,0.783519902033,,,2018_Jan_24_1253,59.9916683502,FEMA4ImagesEEG,001,102656,
AFNE01.JPG,AFNE01.JPG,AFNE01.JPG,AFNE01.JPG,AFNE01.JPG,AFNE01.JPG,,,,,,,,,0,2,2,0,,,,,,,,,,,,,,,AFNE04.jpg,AFSA02.jpg,AFSA09.jpg,AFNE02.jpg,AFSA09.jpg,FS,4,num_2,32,num_8,0.700208512613,,,2018_Jan_24_1253,59.9916683502,FEMA4ImagesEEG,001,102656,
AFNE01.JPG,AFNE01.JPG,AFNE01.JPG,AFNE01.JPG,AFNE01.JPG,AFNE01.JPG,,,,,,,,,0,3,3,3,,,,,,,,,,,,,,,AFNE07.jpg,AFNE08.jpg,AFSA10.jpg,AFSA08.jpg,AFSA10.jpg,FS,4,num_2,32,num_8,0.883491452459,,,2018_Jan_24_1253,59.9916683502,FEMA4ImagesEEG,001,102656,
AFNE01.JPG,AFNE01.JPG,AFNE01.JPG,AFNE01.JPG,AFNE01.JPG,AFNE01.JPG,,,,,,,,,0,4,4,2,,,,,,,,,,,,,,,AFSA08.jpg,AFNE05.jpg,AFSA18.jpg,AFNE07.jpg,AFNE05.jpg,FN,3,num_6,32,num_4,0.800158894245,,,2018_Jan_24_1253,59.9916683502,FEMA4ImagesEEG,001,102656,
AFNE01.JPG,AFNE01.JPG,AFNE01.JPG,AFNE01.JPG,AFNE01.JPG,AFNE01.JPG,,,,,,,,,0,5,5,7,,,,,,,,,,,,,,,AFNE11.jpg,AFNE09.jpg,AFSA19.jpg,AFSA05.jpg,AFSA19.jpg,FS,4,num_2,16,num_2,0.800161780899,,,2018_Jan_24_1253,59.9916683502,FEMA4ImagesEEG,001,102656,
AFNE01.JPG,AFNE01.JPG,AFNE01.JPG,AFNE01.JPG,AFNE01.JPG,AFNE01.JPG,,,,,,,,,0,6,6,9,,,,,,,,,,,,,,,AFNE01.jpg,AFSA08.jpg,AFSA02.jpg,AFNE10.jpg,AFSA08.jpg,FS,4,num_6,32,num_8,1.71674486825,,,2018_Jan_24_1253,59.9916683502,FEMA4ImagesEEG,001,102656,
AFNE01.JPG,AFNE01.JPG,AFNE01.JPG,AFNE01.JPG,AFNE01.JPG,AFNE01.JPG,,,,,,,,,0,7,7,1,,,,,,,,,,,,,,,AFNE11.jpg,AFSA09.jpg,AFSA01.jpg,AFNE19.jpg,AFSA01.jpg,FS,4,num_2,16,num_2,0.600148117404,,,2018_Jan_24_1253,59.9916683502,FEMA4ImagesEEG,001,102656,
AFNE01.JPG,AFNE01.JPG,AFNE01.JPG,AFNE01.JPG,AFNE01.JPG,AFNE01.JPG,,,,,,,,,0,8,8,6,,,,,,,,,,,,,,,AFNE06.jpg,AFNE05.jpg,AFSA02.jpg,AFSA16.jpg,AFNE05.jpg,FN,3,num_6,16,num_6,1.01685805715,,,2018_Jan_24_1253,59.9916683502,FEMA4ImagesEEG,001,102656,
AFNE01.JPG,AFNE01.JPG,AFNE01.JPG,AFNE01.JPG,AFNE01.JPG,AFNE01.JPG,,,,,,,,,0,9,9,5,,,,,,,,,,,,,,,AFSA02.jpg,AFNE16.jpg,AFNE20.jpg,AFSA07.jpg,AFSA07.jpg,FS,4,num_4,32,num_2,0.750206636288,,,2018_Jan_24_1253,59.9916683502,FEMA4ImagesEEG,001,102656,
AFNE01.JPG,AFNE01.JPG,AFNE01.JPG,AFNE01.JPG,AFNE01.JPG,AFNE01.JPG,,,,,,,,,1,0,10,2,,,,,,,,,,,,,,,AFNE04.jpg,AFSA20.jpg,AFNE05.jpg,AFSA16.jpg,AFNE05.jpg,FN,3,num_2,32,num_6,1.10023295295,,,2018_Jan_24_1253,59.9916683502,FEMA4ImagesEEG,001,102656,
AFNE01.JPG,AFNE01.JPG,AFNE01.JPG,AFNE01.JPG,AFNE01.JPG,AFNE01.JPG,,,,,,,,,1,1,11,8,,,,,,,,,,,,,,,AFSA16.jpg,AFNE16.jpg,AFSA09.jpg,AFNE10.jpg,AFSA09.jpg,FS,4,num_2,32,num_8,0.516821973978,,,2018_Jan_24_1253,59.9916683502,FEMA4ImagesEEG,001,102656,
AFNE01.JPG,AFNE01.JPG,AFNE01.JPG,AFNE01.JPG,AFNE01.JPG,AFNE01.JPG,,,,,,,,,1,2,12,3,,,,,,,,,,,,,,,AFNE07.jpg,AFNE16.jpg,AFSA02.jpg,AFSA13.jpg,AFSA02.jpg,FS,4,num_2,32,num_6,0.90014359498,,,2018_Jan_24_1253,59.9916683502,FEMA4ImagesEEG,001,102656,
AFNE01.JPG,AFNE01.JPG,AFNE01.JPG,AFNE01.JPG,AFNE01.JPG,AFNE01.JPG,,,,,,,,,1,3,13,0,,,,,,,,,,,,,,,AFSA12.jpg,AFSA06.jpg,AFNE13.jpg,AFNE10.jpg,AFNE10.jpg,FN,3,num_4,32,num_8,0.950122474298,,,2018_Jan_24_1253,59.9916683502,FEMA4ImagesEEG,001,102656,
AFNE01.JPG,AFNE01.JPG,AFNE01.JPG,AFNE01.JPG,AFNE01.JPG,AFNE01.JPG,,,,,,,,,1,4,14,4,,,,,,,,,,,,,,,AFNE10.jpg,AFNE17.jpg,AFSA15.jpg,AFSA11.jpg,AFNE10.jpg,FN,3,num_8,16,num_8,1.01680353147,,,2018_Jan_24_1253,59.9916683502,FEMA4ImagesEEG,001,102656,
AFNE01.JPG,AFNE01.JPG,AFNE01.JPG,AFNE01.JPG,AFNE01.JPG,AFNE01.JPG,,,,,,,,,1,5,15,7,,,,,,,,,,,,,,,AFSA07.jpg,AFSA10.jpg,AFNE11.jpg,AFNE15.jpg,AFNE11.jpg,FN,3,num_2,16,num_2,0.91677456871,,,2018_Jan_24_1253,59.9916683502,FEMA4ImagesEEG,001,102656,
AFNE01.JPG,AFNE01.JPG,AFNE01.JPG,AFNE01.JPG,AFNE01.JPG,AFNE01.JPG,,,,,,,,,1,6,16,6,,,,,,,,,,,,,,,AFSA04.jpg,AFSA10.jpg,AFNE18.jpg,AFNE20.jpg,AFNE18.jpg,FN,3,num_2,32,num_6,0.733524344272,,,2018_Jan_24_1253,59.9916683502,FEMA4ImagesEEG,001,102656,
AFNE01.JPG,AFNE01.JPG,AFNE01.JPG,AFNE01.JPG,AFNE01.JPG,AFNE01.JPG,,,,,,,,,1,7,17,1,,,,,,,,,,,,,,,AFNE02.jpg,AFSA09.jpg,AFNE19.jpg,AFSA01.jpg,AFNE02.jpg,FN,3,num_8,32,num_4,1.01648086774,,,2018_Jan_24_1253,59.9916683502,FEMA4ImagesEEG,001,102656,
AFNE01.JPG,AFNE01.JPG,AFNE01.JPG,AFNE01.JPG,AFNE01.JPG,AFNE01.JPG,,,,,,,,,1,8,18,5,,,,,,,,,,,,,,,AFNE09.jpg,AFSA16.jpg,AFSA09.jpg,AFNE16.jpg,AFNE09.jpg,FN,3,num_8,32,num_6,0.700006126121,,,2018_Jan_24_1253,59.9916683502,FEMA4ImagesEEG,001,102656,
AFNE01.JPG,AFNE01.JPG,AFNE01.JPG,AFNE01.JPG,AFNE01.JPG,AFNE01.JPG,,,,,,,,,1,9,19,9,,,,,,,,,,,,,,,AFNE06.jpg,AFSA07.jpg,AFNE02.jpg,AFSA09.jpg,AFSA09.jpg,FS,4,num_4,16,num_4,0.666678747846,,,2018_Jan_24_1253,59.9916683502,FEMA4ImagesEEG,001,102656,
AFNE01.JPG,AFNE01.JPG,AFNE01.JPG,AFNE01.JPG,AFNE01.JPG,AFNE01.JPG,,,,,,,,,2,0,20,0,,,,,,,,,,,,,,,AFNE05.jpg,AFNE02.jpg,AFSA05.jpg,AFSA14.jpg,AFNE05.jpg,FN,3,num_8,16,num_8,0.500172718108,,,2018_Jan_24_1253,59.9916683502,FEMA4ImagesEEG,001,102656,
AFNE01.JPG,AFNE01.JPG,AFNE01.JPG,AFNE01.JPG,AFNE01.JPG,AFNE01.JPG,,,,,,,,,2,1,21,2,,,,,,,,,,,,,,,AFSA16.jpg,AFSA07.jpg,AFNE03.jpg,AFNE17.jpg,AFSA16.jpg,FS,4,num_8,32,num_6,0.433478189889,,,2018_Jan_24_1253,59.9916683502,FEMA4ImagesEEG,001,102656,
AFNE01.JPG,AFNE01.JPG,AFNE01.JPG,AFNE01.JPG,AFNE01.JPG,AFNE01.JPG,,,,,,,,,2,2,22,6,,,,,,,,,,,,,,,AFSA07.jpg,AFSA01.jpg,AFNE03.jpg,AFNE13.jpg,AFSA01.jpg,FS,4,num_6,16,num_6,0.433498717203,,,2018_Jan_24_1253,59.9916683502,FEMA4ImagesEEG,001,102656,
AFNE01.JPG,AFNE01.JPG,AFNE01.JPG,AFNE01.JPG,AFNE01.JPG,AFNE01.JPG,,,,,,,,,2,3,23,8,,,,,,,,,,,,,,,AFSA13.jpg,AFNE02.jpg,AFNE06.jpg,AFSA09.jpg,AFNE02.jpg,FN,3,num_6,32,num_4,0.800192251131,,,2018_Jan_24_1253,59.9916683502,FEMA4ImagesEEG,001,102656,
AFNE01.JPG,AFNE01.JPG,AFNE01.JPG,AFNE01.JPG,AFNE01.JPG,AFNE01.JPG,,,,,,,,,2,4,24,7,,,,,,,,,,,,,,,AFSA05.jpg,AFSA08.jpg,AFNE20.jpg,AFNE10.jpg,AFSA05.jpg,FS,4,num_8,16,num_8,0.683492222232,,,2018_Jan_24_1253,59.9916683502,FEMA4ImagesEEG,001,102656,
AFNE01.JPG,AFNE01.JPG,AFNE01.JPG,AFNE01.JPG,AFNE01.JPG,AFNE01.JPG,,,,,,,,,2,5,25,3,,,,,,,,,,,,,,,AFNE12.jpg,AFSA03.jpg,AFSA10.jpg,AFNE10.jpg,AFSA10.jpg,FS,4,num_2,32,num_6,0.550151276687,,,2018_Jan_24_1253,59.9916683502,FEMA4ImagesEEG,001,102656,
AFNE01.JPG,AFNE01.JPG,AFNE01.JPG,AFNE01.JPG,AFNE01.JPG,AFNE01.JPG,,,,,,,,,2,6,26,1,,,,,,,,,,,,,,,AFNE18.jpg,AFSA15.jpg,AFNE20.jpg,AFSA18.jpg,AFNE18.jpg,FN,3,num_8,32,num_4,0.950130492781,,,2018_Jan_24_1253,59.9916683502,FEMA4ImagesEEG,001,102656,
AFNE01.JPG,AFNE01.JPG,AFNE01.JPG,AFNE01.JPG,AFNE01.JPG,AFNE01.JPG,,,,,,,,,2,7,27,9,,,,,,,,,,,,,,,AFNE14.jpg,AFSA06.jpg,AFNE04.jpg,AFSA11.jpg,AFNE04.jpg,FN,3,num_2,32,num_8,0.450141879025,,,2018_Jan_24_1253,59.9916683502,FEMA4ImagesEEG,001,102656,
AFNE01.JPG,AFNE01.JPG,AFNE01.JPG,AFNE01.JPG,AFNE01.JPG,AFNE01.JPG,,,,,,,,,2,8,28,4,,,,,,,,,,,,,,,AFNE06.jpg,AFSA03.jpg,AFNE17.jpg,AFSA04.jpg,AFNE06.jpg,FN,3,num_8,32,num_2,1.35013472654,,,2018_Jan_24_1253,59.9916683502,FEMA4ImagesEEG,001,102656,
AFNE01.JPG,AFNE01.JPG,AFNE01.JPG,AFNE01.JPG,AFNE01.JPG,AFNE01.JPG,,,,,,,,,2,9,29,5,,,,,,,,,,,,,,,AFSA03.jpg,AFNE11.jpg,AFNE12.jpg,AFSA12.jpg,AFNE11.jpg,FN,3,num_6,16,num_6,0.800098915997,,,2018_Jan_24_1253,59.9916683502,FEMA4ImagesEEG,001,102656,
AFNE01.JPG,AFNE01.JPG,AFNE01.JPG,AFNE01.JPG,AFNE01.JPG,AFNE01.JPG,,,,,,,,,3,0,30,2,,,,,,,,,,,,,,,AFNE17.jpg,AFSA01.jpg,AFSA14.jpg,AFNE13.jpg,AFSA14.jpg,FS,4,num_2,32,num_8,0.616813410238,,,2018_Jan_24_1253,59.9916683502,FEMA4ImagesEEG,001,102656,
AFNE01.JPG,AFNE01.JPG,AFNE01.JPG,AFNE01.JPG,AFNE01.JPG,AFNE01.JPG,,,,,,,,,3,1,31,0,,,,,,,,,,,,,,,AFSA12.jpg,AFNE10.jpg,AFSA16.jpg,AFNE19.jpg,AFSA16.jpg,FS,4,num_2,32,num_4,0.883449435611,,,2018_Jan_24_1253,59.9916683502,FEMA4ImagesEEG,001,102656,
AFNE01.JPG,AFNE01.JPG,AFNE01.JPG,AFNE01.JPG,AFNE01.JPG,AFNE01.JPG,,,,,,,,,3,2,32,7,,,,,,,,,,,,,,,AFSA02.jpg,AFSA14.jpg,AFNE07.jpg,AFNE08.jpg,AFNE07.jpg,FN,3,num_2,32,num_8,0.583445939553,,,2018_Jan_24_1253,59.9916683502,FEMA4ImagesEEG,001,102656,
AFNE01.JPG,AFNE01.JPG,AFNE01.JPG,AFNE01.JPG,AFNE01.JPG,AFNE01.JPG,,,,,,,,,3,3,33,9,,,,,,,,,,,,,,,AFSA09.jpg,AFNE07.jpg,AFSA15.jpg,AFNE09.jpg,AFNE07.jpg,FN,3,num_6,16,num_6,0.616805712495,,,2018_Jan_24_1253,59.9916683502,FEMA4ImagesEEG,001,102656,
AFNE01.JPG,AFNE01.JPG,AFNE01.JPG,AFNE01.JPG,AFNE01.JPG,AFNE01.JPG,,,,,,,,,3,4,34,5,,,,,,,,,,,,,,,AFNE13.jpg,AFSA09.jpg,AFSA15.jpg,AFNE15.jpg,AFNE15.jpg,FN,3,num_4,32,num_2,1.43346696401,,,2018_Jan_24_1253,59.9916683502,FEMA4ImagesEEG,001,102656,
AFNE01.JPG,AFNE01.JPG,AFNE01.JPG,AFNE01.JPG,AFNE01.JPG,AFNE01.JPG,,,,,,,,,3,5,35,1,,,,,,,,,,,,,,,AFSA02.jpg,AFNE10.jpg,AFNE03.jpg,AFSA04.jpg,AFSA04.jpg,FS,4,num_4,32,num_8,0.800137404713,,,2018_Jan_24_1253,59.9916683502,FEMA4ImagesEEG,001,102656,
AFNE01.JPG,AFNE01.JPG,AFNE01.JPG,AFNE01.JPG,AFNE01.JPG,AFNE01.JPG,,,,,,,,,3,6,36,4,,,,,,,,,,,,,,,AFSA09.jpg,AFSA05.jpg,AFNE20.jpg,AFNE04.jpg,AFNE04.jpg,FN,3,num_4,32,num_2,1.11677219524,,,2018_Jan_24_1253,59.9916683502,FEMA4ImagesEEG,001,102656,
AFNE01.JPG,AFNE01.JPG,AFNE01.JPG,AFNE01.JPG,AFNE01.JPG,AFNE01.JPG,,,,,,,,,3,7,37,6,,,,,,,,,,,,,,,AFSA09.jpg,AFNE04.jpg,AFSA12.jpg,AFNE18.jpg,AFNE18.jpg,FN,3,num_4,32,num_8,0.6834797134,,,2018_Jan_24_1253,59.9916683502,FEMA4ImagesEEG,001,102656,
AFNE01.JPG,AFNE01.JPG,AFNE01.JPG,AFNE01.JPG,AFNE01.JPG,AFNE01.JPG,,,,,,,,,3,8,38,3,,,,,,,,,,,,,,,AFNE05.jpg,AFSA12.jpg,AFSA20.jpg,AFNE09.jpg,AFSA12.jpg,FS,4,num_6,32,num_8,0.850120132902,,,2018_Jan_24_1253,59.9916683502,FEMA4ImagesEEG,001,102656,
AFNE01.JPG,AFNE01.JPG,AFNE01.JPG,AFNE01.JPG,AFNE01.JPG,AFNE01.JPG,,,,,,,,,3,9,39,8,,,,,,,,,,,,,,,AFSA02.jpg,AFNE06.jpg,AFNE09.jpg,AFSA11.jpg,AFNE09.jpg,FN,3,num_2,32,num_6,0.833401597346,,,2018_Jan_24_1253,59.9916683502,FEMA4ImagesEEG,001,102656,
AFNE01.JPG,AFNE01.JPG,AFNE01.JPG,AFNE01.JPG,AFNE01.JPG,AFNE01.JPG,,,,,,,,,4,0,40,8,,,,,,,,,,,,,,,AFNE09.jpg,AFSA06.jpg,AFNE03.jpg,AFSA03.jpg,AFSA06.jpg,FS,4,num_6,32,num_4,0.800141574323,,,2018_Jan_24_1253,59.9916683502,FEMA4ImagesEEG,001,102656,
AFNE01.JPG,AFNE01.JPG,AFNE01.JPG,AFNE01.JPG,AFNE01.JPG,AFNE01.JPG,,,,,,,,,4,1,41,3,,,,,,,,,,,,,,,AFSA17.jpg,AFSA16.jpg,AFNE19.jpg,AFNE05.jpg,AFSA16.jpg,FS,4,num_6,32,num_2,0.91676077692,,,2018_Jan_24_1253,59.9916683502,FEMA4ImagesEEG,001,102656,
AFNE01.JPG,AFNE01.JPG,AFNE01.JPG,AFNE01.JPG,AFNE01.JPG,AFNE01.JPG,,,,,,,,,4,2,42,0,,,,,,,,,,,,,,,AFNE06.jpg,AFNE07.jpg,AFSA02.jpg,AFSA03.jpg,AFNE07.jpg,FN,3,num_6,16,num_6,1.33339470145,,,2018_Jan_24_1253,59.9916683502,FEMA4ImagesEEG,001,102656,
AFNE01.JPG,AFNE01.JPG,AFNE01.JPG,AFNE01.JPG,AFNE01.JPG,AFNE01.JPG,,,,,,,,,4,3,43,9,,,,,,,,,,,,,,,AFNE04.jpg,AFSA20.jpg,AFNE11.jpg,AFSA15.jpg,AFSA20.jpg,FS,4,num_6,16,num_6,0.700124478919,,,2018_Jan_24_1253,59.9916683502,FEMA4ImagesEEG,001,102656,
AFNE01.JPG,AFNE01.JPG,AFNE01.JPG,AFNE01.JPG,AFNE01.JPG,AFNE01.JPG,,,,,,,,,4,4,44,5,,,,,,,,,,,,,,,AFSA03.jpg,AFNE02.jpg,AFNE14.jpg,AFSA18.jpg,AFSA18.jpg,FS,4,num_4,32,num_8,0.533468663932,,,2018_Jan_24_1253,59.9916683502,FEMA4ImagesEEG,001,102656,
AFNE01.JPG,AFNE01.JPG,AFNE01.JPG,AFNE01.JPG,AFNE01.JPG,AFNE01.JPG,,,,,,,,,4,5,45,1,,,,,,,,,,,,,,,AFSA03.jpg,AFNE13.jpg,AFNE15.jpg,AFSA01.jpg,AFNE13.jpg,FN,3,num_6,16,num_6,0.650130524855,,,2018_Jan_24_1253,59.9916683502,FEMA4ImagesEEG,001,102656,
AFNE01.JPG,AFNE01.JPG,AFNE01.JPG,AFNE01.JPG,AFNE01.JPG,AFNE01.JPG,,,,,,,,,4,6,46,7,,,,,,,,,,,,,,,AFNE07.jpg,AFSA01.jpg,AFNE16.jpg,AFSA18.jpg,AFNE07.jpg,FN,3,num_8,16,num_8,0.88344975635,,,2018_Jan_24_1253,59.9916683502,FEMA4ImagesEEG,001,102656,
AFNE01.JPG,AFNE01.JPG,AFNE01.JPG,AFNE01.JPG,AFNE01.JPG,AFNE01.JPG,,,,,,,,,4,7,47,2,,,,,,,,,,,,,,,AFSA18.jpg,AFNE02.jpg,AFNE12.jpg,AFSA20.jpg,AFSA18.jpg,FS,4,num_8,16,num_8,0.616769468955,,,2018_Jan_24_1253,59.9916683502,FEMA4ImagesEEG,001,102656,
AFNE01.JPG,AFNE01.JPG,AFNE01.JPG,AFNE01.JPG,AFNE01.JPG,AFNE01.JPG,,,,,,,,,4,8,48,4,,,,,,,,,,,,,,,AFSA15.jpg,AFNE11.jpg,AFSA06.jpg,AFNE08.jpg,AFNE11.jpg,FN,3,num_6,16,num_6,0.816763567353,,,2018_Jan_24_1253,59.9916683502,FEMA4ImagesEEG,001,102656,
AFNE01.JPG,AFNE01.JPG,AFNE01.JPG,AFNE01.JPG,AFNE01.JPG,AFNE01.JPG,,,,,,,,,4,9,49,6,,,,,,,,,,,,,,,AFNE15.jpg,AFSA18.jpg,AFSA10.jpg,AFNE04.jpg,AFSA10.jpg,FS,4,num_2,32,num_4,0.983542546227,,,2018_Jan_24_1253,59.9916683502,FEMA4ImagesEEG,001,102656,
AFNE01.JPG,AFNE01.JPG,AFNE01.JPG,AFNE01.JPG,AFNE01.JPG,AFNE01.JPG,,,,,,,,,5,0,50,8,,,,,,,,,,,,,,,AFSA11.jpg,AFSA10.jpg,AFNE02.jpg,AFNE14.jpg,AFSA10.jpg,FS,4,num_6,16,num_6,0.53351036004,,,2018_Jan_24_1253,59.9916683502,FEMA4ImagesEEG,001,102656,
AFNE01.JPG,AFNE01.JPG,AFNE01.JPG,AFNE01.JPG,AFNE01.JPG,AFNE01.JPG,,,,,,,,,5,1,51,3,,,,,,,,,,,,,,,AFNE13.jpg,AFSA03.jpg,AFNE04.jpg,AFSA07.jpg,AFSA07.jpg,FS,4,num_4,32,num_6,1.11673819687,,,2018_Jan_24_1253,59.9916683502,FEMA4ImagesEEG,001,102656,
AFNE01.JPG,AFNE01.JPG,AFNE01.JPG,AFNE01.JPG,AFNE01.JPG,AFNE01.JPG,,,,,,,,,5,2,52,4,,,,,,,,,,,,,,,AFNE06.jpg,AFNE15.jpg,AFSA07.jpg,AFSA14.jpg,AFSA14.jpg,FS,4,num_4,16,num_4,0.900147764592,,,2018_Jan_24_1253,59.9916683502,FEMA4ImagesEEG,001,102656,
AFNE01.JPG,AFNE01.JPG,AFNE01.JPG,AFNE01.JPG,AFNE01.JPG,AFNE01.JPG,,,,,,,,,5,3,53,6,,,,,,,,,,,,,,,AFNE10.jpg,AFSA08.jpg,AFNE01.jpg,AFSA14.jpg,AFSA14.jpg,FS,4,num_4,32,num_8,0.566820739131,,,2018_Jan_24_1253,59.9916683502,FEMA4ImagesEEG,001,102656,
AFNE01.JPG,AFNE01.JPG,AFNE01.JPG,AFNE01.JPG,AFNE01.JPG,AFNE01.JPG,,,,,,,,,5,4,54,9,,,,,,,,,,,,,,,AFNE03.jpg,AFSA13.jpg,AFSA11.jpg,AFNE19.jpg,AFSA13.jpg,FS,4,num_6,48,None,,,,2018_Jan_24_1253,59.9916683502,FEMA4ImagesEEG,001,102656,
AFNE01.JPG,AFNE01.JPG,AFNE01.JPG,AFNE01.JPG,AFNE01.JPG,AFNE01.JPG,,,,,,,,,5,5,55,5,,,,,,,,,,,,,,,AFNE06.jpg,AFSA04.jpg,AFNE10.jpg,AFSA11.jpg,AFNE06.jpg,FN,3,num_8,32,num_6,0.600135608573,,,2018_Jan_24_1253,59.9916683502,FEMA4ImagesEEG,001,102656,
AFNE01.JPG,AFNE01.JPG,AFNE01.JPG,AFNE01.JPG,AFNE01.JPG,AFNE01.JPG,,,,,,,,,5,6,56,0,,,,,,,,,,,,,,,AFNE17.jpg,AFNE18.jpg,AFSA05.jpg,AFSA19.jpg,AFNE18.jpg,FN,3,num_6,32,num_8,0.483319151312,,,2018_Jan_24_1253,59.9916683502,FEMA4ImagesEEG,001,102656,
AFNE01.JPG,AFNE01.JPG,AFNE01.JPG,AFNE01.JPG,AFNE01.JPG,AFNE01.JPG,,,,,,,,,5,7,57,2,,,,,,,,,,,,,,,AFNE12.jpg,AFSA14.jpg,AFSA03.jpg,AFNE19.jpg,AFSA03.jpg,FS,4,num_2,32,num_6,0.766780518424,,,2018_Jan_24_1253,59.9916683502,FEMA4ImagesEEG,001,102656,
AFNE01.JPG,AFNE01.JPG,AFNE01.JPG,AFNE01.JPG,AFNE01.JPG,AFNE01.JPG,,,,,,,,,5,8,58,1,,,,,,,,,,,,,,,AFSA13.jpg,AFSA15.jpg,AFNE13.jpg,AFNE20.jpg,AFSA15.jpg,FS,4,num_6,32,num_4,0.550195859449,,,2018_Jan_24_1253,59.9916683502,FEMA4ImagesEEG,001,102656,
AFNE01.JPG,AFNE01.JPG,AFNE01.JPG,AFNE01.JPG,AFNE01.JPG,AFNE01.JPG,,,,,,,,,5,9,59,7,,,,,,,,,,,,,,,AFSA02.jpg,AFNE01.jpg,AFNE02.jpg,AFSA09.jpg,AFNE02.jpg,FN,3,num_2,32,num_6,0.833577683216,,,2018_Jan_24_1253,59.9916683502,FEMA4ImagesEEG,001,102656,
,,,,,,,,,,,,,,,,,,,,,,,,,,,,,,,,,,,,,,,,,,,space,38.0805004303,2018_Jan_24_1253,59.9916683502,FEMA4ImagesEEG,001,102656,
AFNE01.JPG,AFNE01.JPG,AFNE01.JPG,AFNE01.JPG,AFNE01.JPG,AFNE01.JPG,,,,,,,,,,,,,0,0,0,6,,,,,,,,,,,AMSA08.jpg,AMNE20.jpg,AMNE13.jpg,AMSA07.jpg,AMSA08.jpg,MS,2,num_8,16,num_8,0.783456716393,,,2018_Jan_24_1253,59.9916683502,FEMA4ImagesEEG,001,102656,
AFNE01.JPG,AFNE01.JPG,AFNE01.JPG,AFNE01.JPG,AFNE01.JPG,AFNE01.JPG,,,,,,,,,,,,,0,1,1,9,,,,,,,,,,,AMSA19.jpg,AMSA07.jpg,AMNE19.jpg,AMNE18.jpg,AMNE19.jpg,MN,1,num_2,32,num_6,0.533493360857,,,2018_Jan_24_1253,59.9916683502,FEMA4ImagesEEG,001,102656,
AFNE01.JPG,AFNE01.JPG,AFNE01.JPG,AFNE01.JPG,AFNE01.JPG,AFNE01.JPG,,,,,,,,,,,,,0,2,2,4,,,,,,,,,,,AMSA17.jpg,AMSA13.jpg,AMNE10.jpg,AMNE06.jpg,AMNE06.jpg,MN,1,num_4,32,num_2,3.00001731992,,,2018_Jan_24_1253,59.9916683502,FEMA4ImagesEEG,001,102656,
AFNE01.JPG,AFNE01.JPG,AFNE01.JPG,AFNE01.JPG,AFNE01.JPG,AFNE01.JPG,,,,,,,,,,,,,0,3,3,3,,,,,,,,,,,AMNE03.jpg,AMSA06.jpg,AMNE02.jpg,AMSA04.jpg,AMNE03.jpg,MN,1,num_8,32,num_6,0.750141526212,,,2018_Jan_24_1253,59.9916683502,FEMA4ImagesEEG,001,102656,
AFNE01.JPG,AFNE01.JPG,AFNE01.JPG,AFNE01.JPG,AFNE01.JPG,AFNE01.JPG,,,,,,,,,,,,,0,4,4,0,,,,,,,,,,,AMSA12.jpg,AMNE20.jpg,AMSA18.jpg,AMNE04.jpg,AMNE04.jpg,MN,1,num_4,16,num_4,0.61679929771,,,2018_Jan_24_1253,59.9916683502,FEMA4ImagesEEG,001,102656,
AFNE01.JPG,AFNE01.JPG,AFNE01.JPG,AFNE01.JPG,AFNE01.JPG,AFNE01.JPG,,,,,,,,,,,,,0,5,5,7,,,,,,,,,,,AMSA17.jpg,AMSA11.jpg,AMNE09.jpg,AMNE04.jpg,AMSA17.jpg,MS,2,num_8,32,num_2,1.03314968871,,,2018_Jan_24_1253,59.9916683502,FEMA4ImagesEEG,001,102656,
AFNE01.JPG,AFNE01.JPG,AFNE01.JPG,AFNE01.JPG,AFNE01.JPG,AFNE01.JPG,,,,,,,,,,,,,0,6,6,5,,,,,,,,,,,AMNE05.jpg,AMNE17.jpg,AMSA05.jpg,AMSA11.jpg,AMNE17.jpg,MN,1,num_6,16,num_6,0.466829623609,,,2018_Jan_24_1253,59.9916683502,FEMA4ImagesEEG,001,102656,
AFNE01.JPG,AFNE01.JPG,AFNE01.JPG,AFNE01.JPG,AFNE01.JPG,AFNE01.JPG,,,,,,,,,,,,,0,7,7,1,,,,,,,,,,,AMSA11.jpg,AMNE01.jpg,AMNE12.jpg,AMSA17.jpg,AMSA17.jpg,MS,2,num_4,16,num_4,0.666670729364,,,2018_Jan_24_1253,59.9916683502,FEMA4ImagesEEG,001,102656,
AFNE01.JPG,AFNE01.JPG,AFNE01.JPG,AFNE01.JPG,AFNE01.JPG,AFNE01.JPG,,,,,,,,,,,,,0,8,8,2,,,,,,,,,,,AMSA01.jpg,AMNE05.jpg,AMSA05.jpg,AMNE15.jpg,AMNE15.jpg,MN,1,num_4,32,num_6,1.35009784152,,,2018_Jan_24_1253,59.9916683502,FEMA4ImagesEEG,001,102656,
AFNE01.JPG,AFNE01.JPG,AFNE01.JPG,AFNE01.JPG,AFNE01.JPG,AFNE01.JPG,,,,,,,,,,,,,0,9,9,8,,,,,,,,,,,AMNE02.jpg,AMSA13.jpg,AMSA12.jpg,AMNE13.jpg,AMNE02.jpg,MN,1,num_8,16,num_8,0.783480130362,,,2018_Jan_24_1253,59.9916683502,FEMA4ImagesEEG,001,102656,
AFNE01.JPG,AFNE01.JPG,AFNE01.JPG,AFNE01.JPG,AFNE01.JPG,AFNE01.JPG,,,,,,,,,,,,,1,0,10,3,,,,,,,,,,,AMSA10.jpg,AMNE10.jpg,AMSA14.jpg,AMNE19.jpg,AMSA14.jpg,MS,2,num_2,32,num_4,0.80012072627,,,2018_Jan_24_1253,59.9916683502,FEMA4ImagesEEG,001,102656,
AFNE01.JPG,AFNE01.JPG,AFNE01.JPG,AFNE01.JPG,AFNE01.JPG,AFNE01.JPG,,,,,,,,,,,,,1,1,11,5,,,,,,,,,,,AMNE01.jpg,AMSA02.jpg,AMSA14.jpg,AMNE07.jpg,AMNE01.jpg,MN,1,num_8,16,num_8,0.950141077177,,,2018_Jan_24_1253,59.9916683502,FEMA4ImagesEEG,001,102656,
AFNE01.JPG,AFNE01.JPG,AFNE01.JPG,AFNE01.JPG,AFNE01.JPG,AFNE01.JPG,,,,,,,,,,,,,1,2,12,1,,,,,,,,,,,AMNE17.jpg,AMSA03.jpg,AMNE14.jpg,AMSA20.jpg,AMNE14.jpg,MN,1,num_2,32,num_8,1.11676481824,,,2018_Jan_24_1253,59.9916683502,FEMA4ImagesEEG,001,102656,
AFNE01.JPG,AFNE01.JPG,AFNE01.JPG,AFNE01.JPG,AFNE01.JPG,AFNE01.JPG,,,,,,,,,,,,,1,3,13,2,,,,,,,,,,,AMSA15.jpg,AMNE09.jpg,AMNE10.jpg,AMSA04.jpg,AMSA04.jpg,MS,2,num_4,32,num_6,1.00021521607,,,2018_Jan_24_1253,59.9916683502,FEMA4ImagesEEG,001,102656,
AFNE01.JPG,AFNE01.JPG,AFNE01.JPG,AFNE01.JPG,AFNE01.JPG,AFNE01.JPG,,,,,,,,,,,,,1,4,14,6,,,,,,,,,,,AMNE01.jpg,AMSA17.jpg,AMNE02.jpg,AMSA09.jpg,AMSA09.jpg,MS,2,num_4,16,num_4,0.466813586644,,,2018_Jan_24_1253,59.9916683502,FEMA4ImagesEEG,001,102656,
AFNE01.JPG,AFNE01.JPG,AFNE01.JPG,AFNE01.JPG,AFNE01.JPG,AFNE01.JPG,,,,,,,,,,,,,1,5,15,0,,,,,,,,,,,AMNE13.jpg,AMSA17.jpg,AMSA04.jpg,AMNE10.jpg,AMSA04.jpg,MS,2,num_2,32,num_8,0.783382625617,,,2018_Jan_24_1253,59.9916683502,FEMA4ImagesEEG,001,102656,
AFNE01.JPG,AFNE01.JPG,AFNE01.JPG,AFNE01.JPG,AFNE01.JPG,AFNE01.JPG,,,,,,,,,,,,,1,6,16,9,,,,,,,,,,,AMSA10.jpg,AMNE19.jpg,AMNE12.jpg,AMSA12.jpg,AMSA12.jpg,MS,2,num_4,32,num_8,2.4331125471,,,2018_Jan_24_1253,59.9916683502,FEMA4ImagesEEG,001,102656,
AFNE01.JPG,AFNE01.JPG,AFNE01.JPG,AFNE01.JPG,AFNE01.JPG,AFNE01.JPG,,,,,,,,,,,,,1,7,17,7,,,,,,,,,,,AMSA05.jpg,AMSA06.jpg,AMNE12.jpg,AMNE10.jpg,AMSA06.jpg,MS,2,num_6,32,num_2,0.433467926232,,,2018_Jan_24_1253,59.9916683502,FEMA4ImagesEEG,001,102656,
AFNE01.JPG,AFNE01.JPG,AFNE01.JPG,AFNE01.JPG,AFNE01.JPG,AFNE01.JPG,,,,,,,,,,,,,1,8,18,8,,,,,,,,,,,AMSA19.jpg,AMNE09.jpg,AMSA08.jpg,AMNE12.jpg,AMSA08.jpg,MS,2,num_2,32,num_6,0.783466659311,,,2018_Jan_24_1253,59.9916683502,FEMA4ImagesEEG,001,102656,
AFNE01.JPG,AFNE01.JPG,AFNE01.JPG,AFNE01.JPG,AFNE01.JPG,AFNE01.JPG,,,,,,,,,,,,,1,9,19,4,,,,,,,,,,,AMSA07.jpg,AMNE09.jpg,AMNE10.jpg,AMSA08.jpg,AMNE10.jpg,MN,1,num_2,32,num_6,0.650183446838,,,2018_Jan_24_1253,59.9916683502,FEMA4ImagesEEG,001,102656,
AFNE01.JPG,AFNE01.JPG,AFNE01.JPG,AFNE01.JPG,AFNE01.JPG,AFNE01.JPG,,,,,,,,,,,,,2,0,20,8,,,,,,,,,,,AMSA01.jpg,AMNE14.jpg,AMNE15.jpg,AMSA17.jpg,AMNE15.jpg,MN,1,num_2,16,num_2,1.00010488175,,,2018_Jan_24_1253,59.9916683502,FEMA4ImagesEEG,001,102656,
AFNE01.JPG,AFNE01.JPG,AFNE01.JPG,AFNE01.JPG,AFNE01.JPG,AFNE01.JPG,,,,,,,,,,,,,2,1,21,6,,,,,,,,,,,AMNE03.jpg,AMSA06.jpg,AMNE19.jpg,AMSA04.jpg,AMSA04.jpg,MS,2,num_4,32,num_8,1.23341032145,,,2018_Jan_24_1253,59.9916683502,FEMA4ImagesEEG,001,102656,
AFNE01.JPG,AFNE01.JPG,AFNE01.JPG,AFNE01.JPG,AFNE01.JPG,AFNE01.JPG,,,,,,,,,,,,,2,2,22,4,,,,,,,,,,,AMNE19.jpg,AMNE16.jpg,AMSA19.jpg,AMSA15.jpg,AMSA15.jpg,MS,2,num_4,32,num_6,0.783445169778,,,2018_Jan_24_1253,59.9916683502,FEMA4ImagesEEG,001,102656,
AFNE01.JPG,AFNE01.JPG,AFNE01.JPG,AFNE01.JPG,AFNE01.JPG,AFNE01.JPG,,,,,,,,,,,,,2,3,23,5,,,,,,,,,,,AMNE05.jpg,AMSA20.jpg,AMSA04.jpg,AMNE19.jpg,AMNE19.jpg,MN,1,num_4,32,num_8,0.600169927677,,,2018_Jan_24_1253,59.9916683502,FEMA4ImagesEEG,001,102656,
AFNE01.JPG,AFNE01.JPG,AFNE01.JPG,AFNE01.JPG,AFNE01.JPG,AFNE01.JPG,,,,,,,,,,,,,2,4,24,9,,,,,,,,,,,AMNE15.jpg,AMSA11.jpg,AMNE04.jpg,AMSA05.jpg,AMSA11.jpg,MS,2,num_6,16,num_6,0.516820049542,,,2018_Jan_24_1253,59.9916683502,FEMA4ImagesEEG,001,102656,
AFNE01.JPG,AFNE01.JPG,AFNE01.JPG,AFNE01.JPG,AFNE01.JPG,AFNE01.JPG,,,,,,,,,,,,,2,5,25,1,,,,,,,,,,,AMNE15.jpg,AMNE05.jpg,AMSA10.jpg,AMSA14.jpg,AMSA14.jpg,MS,2,num_4,16,num_4,1.46655891965,,,2018_Jan_24_1253,59.9916683502,FEMA4ImagesEEG,001,102656,
AFNE01.JPG,AFNE01.JPG,AFNE01.JPG,AFNE01.JPG,AFNE01.JPG,AFNE01.JPG,,,,,,,,,,,,,2,6,26,0,,,,,,,,,,,AMNE08.jpg,AMSA01.jpg,AMSA20.jpg,AMNE10.jpg,AMSA20.jpg,MS,2,num_2,32,num_8,0.733460196414,,,2018_Jan_24_1253,59.9916683502,FEMA4ImagesEEG,001,102656,
AFNE01.JPG,AFNE01.JPG,AFNE01.JPG,AFNE01.JPG,AFNE01.JPG,AFNE01.JPG,,,,,,,,,,,,,2,7,27,7,,,,,,,,,,,AMNE12.jpg,AMNE15.jpg,AMSA12.jpg,AMSA10.jpg,AMNE12.jpg,MN,1,num_8,16,num_8,1.19993764828,,,2018_Jan_24_1253,59.9916683502,FEMA4ImagesEEG,001,102656,
AFNE01.JPG,AFNE01.JPG,AFNE01.JPG,AFNE01.JPG,AFNE01.JPG,AFNE01.JPG,,,,,,,,,,,,,2,8,28,2,,,,,,,,,,,AMNE07.jpg,AMSA01.jpg,AMSA16.jpg,AMNE02.jpg,AMSA16.jpg,MS,2,num_2,16,num_2,0.933456539986,,,2018_Jan_24_1253,59.9916683502,FEMA4ImagesEEG,001,102656,
AFNE01.JPG,AFNE01.JPG,AFNE01.JPG,AFNE01.JPG,AFNE01.JPG,AFNE01.JPG,,,,,,,,,,,,,2,9,29,3,,,,,,,,,,,AMSA05.jpg,AMNE11.jpg,AMSA10.jpg,AMNE07.jpg,AMSA05.jpg,MS,2,num_8,32,num_6,0.616814372455,,,2018_Jan_24_1253,59.9916683502,FEMA4ImagesEEG,001,102656,
AFNE01.JPG,AFNE01.JPG,AFNE01.JPG,AFNE01.JPG,AFNE01.JPG,AFNE01.JPG,,,,,,,,,,,,,3,0,30,8,,,,,,,,,,,AMNE05.jpg,AMSA15.jpg,AMSA14.jpg,AMNE07.jpg,AMSA15.jpg,MS,2,num_6,32,num_8,0.483713660639,,,2018_Jan_24_1253,59.9916683502,FEMA4ImagesEEG,001,102656,
AFNE01.JPG,AFNE01.JPG,AFNE01.JPG,AFNE01.JPG,AFNE01.JPG,AFNE01.JPG,,,,,,,,,,,,,3,1,31,7,,,,,,,,,,,AMSA13.jpg,AMNE20.jpg,AMNE02.jpg,AMSA09.jpg,AMSA09.jpg,MS,2,num_4,32,num_6,0.666718198779,,,2018_Jan_24_1253,59.9916683502,FEMA4ImagesEEG,001,102656,
AFNE01.JPG,AFNE01.JPG,AFNE01.JPG,AFNE01.JPG,AFNE01.JPG,AFNE01.JPG,,,,,,,,,,,,,3,2,32,0,,,,,,,,,,,AMNE08.jpg,AMNE14.jpg,AMSA04.jpg,AMSA15.jpg,AMSA15.jpg,MS,2,num_4,32,num_8,0.616810202845,,,2018_Jan_24_1253,59.9916683502,FEMA4ImagesEEG,001,102656,
AFNE01.JPG,AFNE01.JPG,AFNE01.JPG,AFNE01.JPG,AFNE01.JPG,AFNE01.JPG,,,,,,,,,,,,,3,3,33,2,,,,,,,,,,,AMNE13.jpg,AMSA04.jpg,AMNE04.jpg,AMSA16.jpg,AMSA16.jpg,MS,2,num_4,32,num_2,0.883464189618,,,2018_Jan_24_1253,59.9916683502,FEMA4ImagesEEG,001,102656,
AFNE01.JPG,AFNE01.JPG,AFNE01.JPG,AFNE01.JPG,AFNE01.JPG,AFNE01.JPG,,,,,,,,,,,,,3,4,34,5,,,,,,,,,,,AMNE01.jpg,AMSA06.jpg,AMNE03.jpg,AMSA13.jpg,AMSA13.jpg,MS,2,num_4,32,num_6,0.433525980043,,,2018_Jan_24_1253,59.9916683502,FEMA4ImagesEEG,001,102656,
AFNE01.JPG,AFNE01.JPG,AFNE01.JPG,AFNE01.JPG,AFNE01.JPG,AFNE01.JPG,,,,,,,,,,,,,3,5,35,1,,,,,,,,,,,AMNE07.jpg,AMNE09.jpg,AMSA08.jpg,AMSA01.jpg,AMSA08.jpg,MS,2,num_2,16,num_2,0.800190968174,,,2018_Jan_24_1253,59.9916683502,FEMA4ImagesEEG,001,102656,
AFNE01.JPG,AFNE01.JPG,AFNE01.JPG,AFNE01.JPG,AFNE01.JPG,AFNE01.JPG,,,,,,,,,,,,,3,6,36,6,,,,,,,,,,,AMSA01.jpg,AMNE11.jpg,AMNE20.jpg,AMSA02.jpg,AMSA01.jpg,MS,2,num_8,16,num_8,0.783493601411,,,2018_Jan_24_1253,59.9916683502,FEMA4ImagesEEG,001,102656,
AFNE01.JPG,AFNE01.JPG,AFNE01.JPG,AFNE01.JPG,AFNE01.JPG,AFNE01.JPG,,,,,,,,,,,,,3,7,37,9,,,,,,,,,,,AMNE09.jpg,AMSA20.jpg,AMSA04.jpg,AMNE20.jpg,AMNE09.jpg,MN,1,num_8,32,num_6,0.650164843958,,,2018_Jan_24_1253,59.9916683502,FEMA4ImagesEEG,001,102656,
AFNE01.JPG,AFNE01.JPG,AFNE01.JPG,AFNE01.JPG,AFNE01.JPG,AFNE01.JPG,,,,,,,,,,,,,3,8,38,3,,,,,,,,,,,AMSA10.jpg,AMNE13.jpg,AMNE11.jpg,AMSA12.jpg,AMSA12.jpg,MS,2,num_4,32,num_8,0.666813137609,,,2018_Jan_24_1253,59.9916683502,FEMA4ImagesEEG,001,102656,
AFNE01.JPG,AFNE01.JPG,AFNE01.JPG,AFNE01.JPG,AFNE01.JPG,AFNE01.JPG,,,,,,,,,,,,,3,9,39,4,,,,,,,,,,,AMSA15.jpg,AMNE13.jpg,AMNE11.jpg,AMSA05.jpg,AMSA15.jpg,MS,2,num_8,16,num_8,0.666777214809,,,2018_Jan_24_1253,59.9916683502,FEMA4ImagesEEG,001,102656,
AFNE01.JPG,AFNE01.JPG,AFNE01.JPG,AFNE01.JPG,AFNE01.JPG,AFNE01.JPG,,,,,,,,,,,,,4,0,40,9,,,,,,,,,,,AMSA14.jpg,AMNE14.jpg,AMNE16.jpg,AMSA01.jpg,AMNE16.jpg,MN,1,num_2,32,num_6,1.2500887646,,,2018_Jan_24_1253,59.9916683502,FEMA4ImagesEEG,001,102656,
AFNE01.JPG,AFNE01.JPG,AFNE01.JPG,AFNE01.JPG,AFNE01.JPG,AFNE01.JPG,,,,,,,,,,,,,4,1,41,2,,,,,,,,,,,AMNE20.jpg,AMSA06.jpg,AMNE13.jpg,AMSA07.jpg,AMSA06.jpg,MS,2,num_6,32,num_4,0.933428635668,,,2018_Jan_24_1253,59.9916683502,FEMA4ImagesEEG,001,102656,
AFNE01.JPG,AFNE01.JPG,AFNE01.JPG,AFNE01.JPG,AFNE01.JPG,AFNE01.JPG,,,,,,,,,,,,,4,2,42,6,,,,,,,,,,,AMSA13.jpg,AMSA08.jpg,AMNE06.jpg,AMNE11.jpg,AMNE11.jpg,MN,1,num_4,32,num_8,0.633527776183,,,2018_Jan_24_1253,59.9916683502,FEMA4ImagesEEG,001,102656,
AFNE01.JPG,AFNE01.JPG,AFNE01.JPG,AFNE01.JPG,AFNE01.JPG,AFNE01.JPG,,,,,,,,,,,,,4,3,43,4,,,,,,,,,,,AMSA19.jpg,AMSA17.jpg,AMNE06.jpg,AMNE01.jpg,AMSA19.jpg,MS,2,num_8,32,num_2,0.466832831003,,,2018_Jan_24_1253,59.9916683502,FEMA4ImagesEEG,001,102656,
AFNE01.JPG,AFNE01.JPG,AFNE01.JPG,AFNE01.JPG,AFNE01.JPG,AFNE01.JPG,,,,,,,,,,,,,4,4,44,3,,,,,,,,,,,AMSA12.jpg,AMNE07.jpg,AMSA14.jpg,AMNE15.jpg,AMSA14.jpg,MS,2,num_2,16,num_2,0.516795994095,,,2018_Jan_24_1253,59.9916683502,FEMA4ImagesEEG,001,102656,
AFNE01.JPG,AFNE01.JPG,AFNE01.JPG,AFNE01.JPG,AFNE01.JPG,AFNE01.JPG,,,,,,,,,,,,,4,5,45,1,,,,,,,,,,,AMNE16.jpg,AMSA04.jpg,AMNE06.jpg,AMSA03.jpg,AMSA04.jpg,MS,2,num_6,32,num_2,0.450159198946,,,2018_Jan_24_1253,59.9916683502,FEMA4ImagesEEG,001,102656,
AFNE01.JPG,AFNE01.JPG,AFNE01.JPG,AFNE01.JPG,AFNE01.JPG,AFNE01.JPG,,,,,,,,,,,,,4,6,46,5,,,,,,,,,,,AMNE19.jpg,AMNE01.jpg,AMSA03.jpg,AMSA06.jpg,AMNE01.jpg,MN,1,num_6,32,num_8,0.750139601777,,,2018_Jan_24_1253,59.9916683502,FEMA4ImagesEEG,001,102656,
AFNE01.JPG,AFNE01.JPG,AFNE01.JPG,AFNE01.JPG,AFNE01.JPG,AFNE01.JPG,,,,,,,,,,,,,4,7,47,0,,,,,,,,,,,AMNE18.jpg,AMSA17.jpg,AMSA12.jpg,AMNE09.jpg,AMNE18.jpg,MN,1,num_8,32,num_6,0.650148165516,,,2018_Jan_24_1253,59.9916683502,FEMA4ImagesEEG,001,102656,
AFNE01.JPG,AFNE01.JPG,AFNE01.JPG,AFNE01.JPG,AFNE01.JPG,AFNE01.JPG,,,,,,,,,,,,,4,8,48,7,,,,,,,,,,,AMSA20.jpg,AMSA18.jpg,AMNE14.jpg,AMNE11.jpg,AMNE11.jpg,MN,1,num_4,32,num_8,0.616788713312,,,2018_Jan_24_1253,59.9916683502,FEMA4ImagesEEG,001,102656,
AFNE01.JPG,AFNE01.JPG,AFNE01.JPG,AFNE01.JPG,AFNE01.JPG,AFNE01.JPG,,,,,,,,,,,,,4,9,49,8,,,,,,,,,,,AMSA11.jpg,AMNE11.jpg,AMNE20.jpg,AMSA04.jpg,AMNE11.jpg,MN,1,num_6,32,num_4,0.60018211577,,,2018_Jan_24_1253,59.9916683502,FEMA4ImagesEEG,001,102656,
AFNE01.JPG,AFNE01.JPG,AFNE01.JPG,AFNE01.JPG,AFNE01.JPG,AFNE01.JPG,,,,,,,,,,,,,5,0,50,9,,,,,,,,,,,AMSA08.jpg,AMNE08.jpg,AMSA20.jpg,AMNE15.jpg,AMSA20.jpg,MS,2,num_2,32,num_8,0.500165982584,,,2018_Jan_24_1253,59.9916683502,FEMA4ImagesEEG,001,102656,
AFNE01.JPG,AFNE01.JPG,AFNE01.JPG,AFNE01.JPG,AFNE01.JPG,AFNE01.JPG,,,,,,,,,,,,,5,1,51,2,,,,,,,,,,,AMSA13.jpg,AMNE07.jpg,AMSA15.jpg,AMNE04.jpg,AMNE07.jpg,MN,1,num_6,32,num_8,4.04962221723,,,2018_Jan_24_1253,59.9916683502,FEMA4ImagesEEG,001,102656,
AFNE01.JPG,AFNE01.JPG,AFNE01.JPG,AFNE01.JPG,AFNE01.JPG,AFNE01.JPG,,,,,,,,,,,,,5,2,52,8,,,,,,,,,,,AMSA04.jpg,AMNE07.jpg,AMNE10.jpg,AMSA02.jpg,AMNE07.jpg,MN,1,num_6,32,num_8,0.41685138577,,,2018_Jan_24_1253,59.9916683502,FEMA4ImagesEEG,001,102656,
AFNE01.JPG,AFNE01.JPG,AFNE01.JPG,AFNE01.JPG,AFNE01.JPG,AFNE01.JPG,,,,,,,,,,,,,5,3,53,0,,,,,,,,,,,AMNE01.jpg,AMSA02.jpg,AMNE06.jpg,AMSA08.jpg,AMNE01.jpg,MN,1,num_8,16,num_8,0.90042424186,,,2018_Jan_24_1253,59.9916683502,FEMA4ImagesEEG,001,102656,
AFNE01.JPG,AFNE01.JPG,AFNE01.JPG,AFNE01.JPG,AFNE01.JPG,AFNE01.JPG,,,,,,,,,,,,,5,4,54,3,,,,,,,,,,,AMSA11.jpg,AMNE07.jpg,AMNE13.jpg,AMSA13.jpg,AMSA11.jpg,MS,2,num_8,32,num_6,0.466824812519,,,2018_Jan_24_1253,59.9916683502,FEMA4ImagesEEG,001,102656,
AFNE01.JPG,AFNE01.JPG,AFNE01.JPG,AFNE01.JPG,AFNE01.JPG,AFNE01.JPG,,,,,,,,,,,,,5,5,55,5,,,,,,,,,,,AMSA12.jpg,AMNE14.jpg,AMSA10.jpg,AMNE04.jpg,AMSA12.jpg,MS,2,num_8,32,num_4,0.633512380697,,,2018_Jan_24_1253,59.9916683502,FEMA4ImagesEEG,001,102656,
AFNE01.JPG,AFNE01.JPG,AFNE01.JPG,AFNE01.JPG,AFNE01.JPG,AFNE01.JPG,,,,,,,,,,,,,5,6,56,7,,,,,,,,,,,AMNE17.jpg,AMNE01.jpg,AMSA09.jpg,AMSA16.jpg,AMSA09.jpg,MS,2,num_2,32,num_8,0.600178908377,,,2018_Jan_24_1253,59.9916683502,FEMA4ImagesEEG,001,102656,
AFNE01.JPG,AFNE01.JPG,AFNE01.JPG,AFNE01.JPG,AFNE01.JPG,AFNE01.JPG,,,,,,,,,,,,,5,7,57,6,,,,,,,,,,,AMNE12.jpg,AMNE06.jpg,AMSA09.jpg,AMSA08.jpg,AMSA09.jpg,MS,2,num_2,32,num_8,0.616772355609,,,2018_Jan_24_1253,59.9916683502,FEMA4ImagesEEG,001,102656,
AFNE01.JPG,AFNE01.JPG,AFNE01.JPG,AFNE01.JPG,AFNE01.JPG,AFNE01.JPG,,,,,,,,,,,,,5,8,58,1,,,,,,,,,,,AMNE06.jpg,AMSA08.jpg,AMNE11.jpg,AMSA05.jpg,AMSA08.jpg,MS,2,num_6,16,num_6,0.783452226043,,,2018_Jan_24_1253,59.9916683502,FEMA4ImagesEEG,001,102656,
AFNE01.JPG,AFNE01.JPG,AFNE01.JPG,AFNE01.JPG,AFNE01.JPG,AFNE01.JPG,,,,,,,,,,,,,5,9,59,4,,,,,,,,,,,AMSA16.jpg,AMNE05.jpg,AMNE11.jpg,AMSA05.jpg,AMSA16.jpg,MS,2,num_8,16,num_8,1.00021361237,,,2018_Jan_24_1253,59.9916683502,FEMA4ImagesEEG,001,102656,
,,,,,,,,,,,,,,,,,,,,,,,,,,,,,,,,,,,,,,,,,,,space,35.3307027366,2018_Jan_24_1253,59.9916683502,FEMA4ImagesEEG,001,102656,
AFNE01.JPG,AFNE01.JPG,AFNE01.JPG,AFNE01.JPG,AFNE01.JPG,AFNE01.JPG,,,,,,,,,,,,,,,,,0,0,0,5,,,,,,,AFNE20.jpg,AFSA01.jpg,AFSA16.jpg,AFNE16.jpg,AFSA01.jpg,FS,4,num_6,32,num_8,0.650299554461,,,2018_Jan_24_1253,59.9916683502,FEMA4ImagesEEG,001,102656,
AFNE01.JPG,AFNE01.JPG,AFNE01.JPG,AFNE01.JPG,AFNE01.JPG,AFNE01.JPG,,,,,,,,,,,,,,,,,0,1,1,0,,,,,,,AFSA09.jpg,AFSA06.jpg,AFNE14.jpg,AFNE20.jpg,AFNE14.jpg,FN,3,num_2,32,num_6,0.983458833272,,,2018_Jan_24_1253,59.9916683502,FEMA4ImagesEEG,001,102656,
AFNE01.JPG,AFNE01.JPG,AFNE01.JPG,AFNE01.JPG,AFNE01.JPG,AFNE01.JPG,,,,,,,,,,,,,,,,,0,2,2,3,,,,,,,AFSA07.jpg,AFNE06.jpg,AFSA12.jpg,AFNE08.jpg,AFNE06.jpg,FN,3,num_6,32,num_8,0.43349583055,,,2018_Jan_24_1253,59.9916683502,FEMA4ImagesEEG,001,102656,
AFNE01.JPG,AFNE01.JPG,AFNE01.JPG,AFNE01.JPG,AFNE01.JPG,AFNE01.JPG,,,,,,,,,,,,,,,,,0,3,3,1,,,,,,,AFSA15.jpg,AFSA04.jpg,AFNE16.jpg,AFNE15.jpg,AFSA15.jpg,FS,4,num_8,32,num_2,0.700188306037,,,2018_Jan_24_1253,59.9916683502,FEMA4ImagesEEG,001,102656,
AFNE01.JPG,AFNE01.JPG,AFNE01.JPG,AFNE01.JPG,AFNE01.JPG,AFNE01.JPG,,,,,,,,,,,,,,,,,0,4,4,6,,,,,,,AFSA16.jpg,AFNE09.jpg,AFNE08.jpg,AFSA15.jpg,AFSA16.jpg,FS,4,num_8,16,num_8,0.683526220598,,,2018_Jan_24_1253,59.9916683502,FEMA4ImagesEEG,001,102656,
AFNE01.JPG,AFNE01.JPG,AFNE01.JPG,AFNE01.JPG,AFNE01.JPG,AFNE01.JPG,,,,,,,,,,,,,,,,,0,5,5,2,,,,,,,AFNE08.jpg,AFSA10.jpg,AFNE02.jpg,AFSA18.jpg,AFSA10.jpg,FS,4,num_6,16,num_6,0.600187568338,,,2018_Jan_24_1253,59.9916683502,FEMA4ImagesEEG,001,102656,
AFNE01.JPG,AFNE01.JPG,AFNE01.JPG,AFNE01.JPG,AFNE01.JPG,AFNE01.JPG,,,,,,,,,,,,,,,,,0,6,6,9,,,,,,,AFNE08.jpg,AFNE01.jpg,AFSA13.jpg,AFSA17.jpg,AFNE08.jpg,FN,3,num_8,16,num_8,0.450197687662,,,2018_Jan_24_1253,59.9916683502,FEMA4ImagesEEG,001,102656,
AFNE01.JPG,AFNE01.JPG,AFNE01.JPG,AFNE01.JPG,AFNE01.JPG,AFNE01.JPG,,,,,,,,,,,,,,,,,0,7,7,8,,,,,,,AFSA02.jpg,AFNE02.jpg,AFSA15.jpg,AFNE03.jpg,AFNE03.jpg,FN,3,num_4,16,num_4,0.733488100733,,,2018_Jan_24_1253,59.9916683502,FEMA4ImagesEEG,001,102656,
AFNE01.JPG,AFNE01.JPG,AFNE01.JPG,AFNE01.JPG,AFNE01.JPG,AFNE01.JPG,,,,,,,,,,,,,,,,,0,8,8,7,,,,,,,AFSA09.jpg,AFSA20.jpg,AFNE16.jpg,AFNE02.jpg,AFNE16.jpg,FN,3,num_2,16,num_2,0.816883523848,,,2018_Jan_24_1253,59.9916683502,FEMA4ImagesEEG,001,102656,
AFNE01.JPG,AFNE01.JPG,AFNE01.JPG,AFNE01.JPG,AFNE01.JPG,AFNE01.JPG,,,,,,,,,,,,,,,,,0,9,9,4,,,,,,,AFNE17.jpg,AFNE08.jpg,AFSA15.jpg,AFSA03.jpg,AFSA15.jpg,FS,4,num_2,32,num_6,1.05012994752,,,2018_Jan_24_1253,59.9916683502,FEMA4ImagesEEG,001,102656,
AFNE01.JPG,AFNE01.JPG,AFNE01.JPG,AFNE01.JPG,AFNE01.JPG,AFNE01.JPG,,,,,,,,,,,,,,,,,1,0,10,1,,,,,,,AFSA17.jpg,AFNE05.jpg,AFSA06.jpg,AFNE19.jpg,AFNE19.jpg,FN,3,num_4,16,num_4,0.750175524578,,,2018_Jan_24_1253,59.9916683502,FEMA4ImagesEEG,001,102656,
AFNE01.JPG,AFNE01.JPG,AFNE01.JPG,AFNE01.JPG,AFNE01.JPG,AFNE01.JPG,,,,,,,,,,,,,,,,,1,1,11,5,,,,,,,AFSA06.jpg,AFSA18.jpg,AFNE20.jpg,AFNE09.jpg,AFSA18.jpg,FS,4,num_6,32,num_2,0.600179549855,,,2018_Jan_24_1253,59.9916683502,FEMA4ImagesEEG,001,102656,
AFNE01.JPG,AFNE01.JPG,AFNE01.JPG,AFNE01.JPG,AFNE01.JPG,AFNE01.JPG,,,,,,,,,,,,,,,,,1,2,12,9,,,,,,,AFNE05.jpg,AFNE19.jpg,AFSA03.jpg,AFSA14.jpg,AFNE05.jpg,FN,3,num_8,32,num_6,0.450162085601,,,2018_Jan_24_1253,59.9916683502,FEMA4ImagesEEG,001,102656,
AFNE01.JPG,AFNE01.JPG,AFNE01.JPG,AFNE01.JPG,AFNE01.JPG,AFNE01.JPG,,,,,,,,,,,,,,,,,1,3,13,2,,,,,,,AFNE03.jpg,AFSA12.jpg,AFSA15.jpg,AFNE16.jpg,AFNE03.jpg,FN,3,num_8,16,num_8,0.566811437691,,,2018_Jan_24_1253,59.9916683502,FEMA4ImagesEEG,001,102656,
AFNE01.JPG,AFNE01.JPG,AFNE01.JPG,AFNE01.JPG,AFNE01.JPG,AFNE01.JPG,,,,,,,,,,,,,,,,,1,4,14,3,,,,,,,AFNE03.jpg,AFSA16.jpg,AFNE08.jpg,AFSA04.jpg,AFSA16.jpg,FS,4,num_6,32,num_8,0.566816890259,,,2018_Jan_24_1253,59.9916683502,FEMA4ImagesEEG,001,102656,
AFNE01.JPG,AFNE01.JPG,AFNE01.JPG,AFNE01.JPG,AFNE01.JPG,AFNE01.JPG,,,,,,,,,,,,,,,,,1,5,15,4,,,,,,,AFNE03.jpg,AFNE17.jpg,AFSA16.jpg,AFSA20.jpg,AFSA16.jpg,FS,4,num_2,32,num_4,1.11675904493,,,2018_Jan_24_1253,59.9916683502,FEMA4ImagesEEG,001,102656,
AFNE01.JPG,AFNE01.JPG,AFNE01.JPG,AFNE01.JPG,AFNE01.JPG,AFNE01.JPG,,,,,,,,,,,,,,,,,1,6,16,8,,,,,,,AFNE07.jpg,AFNE12.jpg,AFSA11.jpg,AFSA02.jpg,AFSA11.jpg,FS,4,num_2,16,num_2,1.23346067752,,,2018_Jan_24_1253,59.9916683502,FEMA4ImagesEEG,001,102656,
AFNE01.JPG,AFNE01.JPG,AFNE01.JPG,AFNE01.JPG,AFNE01.JPG,AFNE01.JPG,,,,,,,,,,,,,,,,,1,7,17,7,,,,,,,AFSA19.jpg,AFNE17.jpg,AFNE09.jpg,AFSA02.jpg,AFNE09.jpg,FN,3,num_2,32,num_4,1.51671516779,,,2018_Jan_24_1253,59.9916683502,FEMA4ImagesEEG,001,102656,
AFNE01.JPG,AFNE01.JPG,AFNE01.JPG,AFNE01.JPG,AFNE01.JPG,AFNE01.JPG,,,,,,,,,,,,,,,,,1,8,18,6,,,,,,,AFNE15.jpg,AFNE02.jpg,AFSA03.jpg,AFSA17.jpg,AFSA03.jpg,FS,4,num_2,32,num_6,0.833472159989,,,2018_Jan_24_1253,59.9916683502,FEMA4ImagesEEG,001,102656,
AFNE01.JPG,AFNE01.JPG,AFNE01.JPG,AFNE01.JPG,AFNE01.JPG,AFNE01.JPG,,,,,,,,,,,,,,,,,1,9,19,0,,,,,,,AFNE13.jpg,AFSA18.jpg,AFNE19.jpg,AFSA20.jpg,AFSA18.jpg,FS,4,num_6,32,num_2,0.666697029987,,,2018_Jan_24_1253,59.9916683502,FEMA4ImagesEEG,001,102656,
AFNE01.JPG,AFNE01.JPG,AFNE01.JPG,AFNE01.JPG,AFNE01.JPG,AFNE01.JPG,,,,,,,,,,,,,,,,,2,0,20,2,,,,,,,AFNE05.jpg,AFSA15.jpg,AFSA08.jpg,AFNE19.jpg,AFSA15.jpg,FS,4,num_6,32,num_8,0.683494146668,,,2018_Jan_24_1253,59.9916683502,FEMA4ImagesEEG,001,102656,
AFNE01.JPG,AFNE01.JPG,AFNE01.JPG,AFNE01.JPG,AFNE01.JPG,AFNE01.JPG,,,,,,,,,,,,,,,,,2,1,21,9,,,,,,,AFSA10.jpg,AFNE14.jpg,AFNE03.jpg,AFSA01.jpg,AFNE14.jpg,FN,3,num_6,32,num_8,0.61681276876,,,2018_Jan_24_1253,59.9916683502,FEMA4ImagesEEG,001,102656,
AFNE01.JPG,AFNE01.JPG,AFNE01.JPG,AFNE01.JPG,AFNE01.JPG,AFNE01.JPG,,,,,,,,,,,,,,,,,2,2,22,3,,,,,,,AFNE04.jpg,AFSA15.jpg,AFNE09.jpg,AFSA17.jpg,AFNE04.jpg,FN,3,num_8,32,num_6,0.433465681056,,,2018_Jan_24_1253,59.9916683502,FEMA4ImagesEEG,001,102656,
AFNE01.JPG,AFNE01.JPG,AFNE01.JPG,AFNE01.JPG,AFNE01.JPG,AFNE01.JPG,,,,,,,,,,,,,,,,,2,3,23,4,,,,,,,AFSA19.jpg,AFNE08.jpg,AFSA20.jpg,AFNE10.jpg,AFNE08.jpg,FN,3,num_6,32,num_8,0.70016040172,,,2018_Jan_24_1253,59.9916683502,FEMA4ImagesEEG,001,102656,
AFNE01.JPG,AFNE01.JPG,AFNE01.JPG,AFNE01.JPG,AFNE01.JPG,AFNE01.JPG,,,,,,,,,,,,,,,,,2,4,24,7,,,,,,,AFNE09.jpg,AFNE12.jpg,AFSA07.jpg,AFSA02.jpg,AFSA02.jpg,FS,4,num_4,32,num_6,0.933541856638,,,2018_Jan_24_1253,59.9916683502,FEMA4ImagesEEG,001,102656,
AFNE01.JPG,AFNE01.JPG,AFNE01.JPG,AFNE01.JPG,AFNE01.JPG,AFNE01.JPG,,,,,,,,,,,,,,,,,2,5,25,1,,,,,,,AFNE20.jpg,AFSA03.jpg,AFNE14.jpg,AFSA12.jpg,AFNE14.jpg,FN,3,num_2,32,num_8,0.5334651358,,,2018_Jan_24_1253,59.9916683502,FEMA4ImagesEEG,001,102656,
AFNE01.JPG,AFNE01.JPG,AFNE01.JPG,AFNE01.JPG,AFNE01.JPG,AFNE01.JPG,,,,,,,,,,,,,,,,,2,6,26,0,,,,,,,AFNE20.jpg,AFSA01.jpg,AFNE04.jpg,AFSA08.jpg,AFSA08.jpg,FS,4,num_4,32,num_8,0.700090480555,,,2018_Jan_24_1253,59.9916683502,FEMA4ImagesEEG,001,102656,
AFNE01.JPG,AFNE01.JPG,AFNE01.JPG,AFNE01.JPG,AFNE01.JPG,AFNE01.JPG,,,,,,,,,,,,,,,,,2,7,27,6,,,,,,,AFSA04.jpg,AFNE10.jpg,AFSA16.jpg,AFNE15.jpg,AFNE10.jpg,FN,3,num_6,32,num_4,0.90013493502,,,2018_Jan_24_1253,59.9916683502,FEMA4ImagesEEG,001,102656,
AFNE01.JPG,AFNE01.JPG,AFNE01.JPG,AFNE01.JPG,AFNE01.JPG,AFNE01.JPG,,,,,,,,,,,,,,,,,2,8,28,5,,,,,,,AFSA03.jpg,AFNE12.jpg,AFNE06.jpg,AFSA12.jpg,AFNE06.jpg,FN,3,num_2,32,num_6,0.700156552848,,,2018_Jan_24_1253,59.9916683502,FEMA4ImagesEEG,001,102656,
AFNE01.JPG,AFNE01.JPG,AFNE01.JPG,AFNE01.JPG,AFNE01.JPG,AFNE01.JPG,,,,,,,,,,,,,,,,,2,9,29,8,,,,,,,AFSA17.jpg,AFSA13.jpg,AFNE12.jpg,AFNE16.jpg,AFSA17.jpg,FS,4,num_8,16,num_8,0.783196596827,,,2018_Jan_24_1253,59.9916683502,FEMA4ImagesEEG,001,102656,
AFNE01.JPG,AFNE01.JPG,AFNE01.JPG,AFNE01.JPG,AFNE01.JPG,AFNE01.JPG,,,,,,,,,,,,,,,,,3,0,30,5,,,,,,,AFNE15.jpg,AFNE08.jpg,AFSA16.jpg,AFSA20.jpg,AFNE15.jpg,FN,3,num_8,16,num_8,0.533527038483,,,2018_Jan_24_1253,59.9916683502,FEMA4ImagesEEG,001,102656,
AFNE01.JPG,AFNE01.JPG,AFNE01.JPG,AFNE01.JPG,AFNE01.JPG,AFNE01.JPG,,,,,,,,,,,,,,,,,3,1,31,3,,,,,,,AFSA13.jpg,AFSA08.jpg,AFNE11.jpg,AFNE19.jpg,AFSA08.jpg,FS,4,num_6,16,num_6,0.716807091674,,,2018_Jan_24_1253,59.9916683502,FEMA4ImagesEEG,001,102656,
AFNE01.JPG,AFNE01.JPG,AFNE01.JPG,AFNE01.JPG,AFNE01.JPG,AFNE01.JPG,,,,,,,,,,,,,,,,,3,2,32,7,,,,,,,AFNE03.jpg,AFNE02.jpg,AFSA03.jpg,AFSA16.jpg,AFNE03.jpg,FN,3,num_8,16,num_8,0.533527038483,,,2018_Jan_24_1253,59.9916683502,FEMA4ImagesEEG,001,102656,
AFNE01.JPG,AFNE01.JPG,AFNE01.JPG,AFNE01.JPG,AFNE01.JPG,AFNE01.JPG,,,,,,,,,,,,,,,,,3,3,33,9,,,,,,,AFSA13.jpg,AFNE09.jpg,AFNE12.jpg,AFSA04.jpg,AFSA13.jpg,FS,4,num_8,32,num_4,0.650160353609,,,2018_Jan_24_1253,59.9916683502,FEMA4ImagesEEG,001,102656,
AFNE01.JPG,AFNE01.JPG,AFNE01.JPG,AFNE01.JPG,AFNE01.JPG,AFNE01.JPG,,,,,,,,,,,,,,,,,3,4,34,8,,,,,,,AFSA02.jpg,AFSA14.jpg,AFNE04.jpg,AFNE18.jpg,AFSA14.jpg,FS,4,num_6,32,num_8,1.01678268341,,,2018_Jan_24_1253,59.9916683502,FEMA4ImagesEEG,001,102656,
AFNE01.JPG,AFNE01.JPG,AFNE01.JPG,AFNE01.JPG,AFNE01.JPG,AFNE01.JPG,,,,,,,,,,,,,,,,,3,5,35,6,,,,,,,AFSA15.jpg,AFNE03.jpg,AFSA16.jpg,AFNE04.jpg,AFSA16.jpg,FS,4,num_2,32,num_8,0.350161347901,,,2018_Jan_24_1253,59.9916683502,FEMA4ImagesEEG,001,102656,
AFNE01.JPG,AFNE01.JPG,AFNE01.JPG,AFNE01.JPG,AFNE01.JPG,AFNE01.JPG,,,,,,,,,,,,,,,,,3,6,36,0,,,,,,,AFSA19.jpg,AFNE20.jpg,AFSA17.jpg,AFNE03.jpg,AFSA19.jpg,FS,4,num_8,32,num_4,0.550224084505,,,2018_Jan_24_1253,59.9916683502,FEMA4ImagesEEG,001,102656,
AFNE01.JPG,AFNE01.JPG,AFNE01.JPG,AFNE01.JPG,AFNE01.JPG,AFNE01.JPG,,,,,,,,,,,,,,,,,3,7,37,1,,,,,,,AFSA01.jpg,AFNE17.jpg,AFNE15.jpg,AFSA05.jpg,AFNE17.jpg,FN,3,num_6,16,num_6,0.733504779176,,,2018_Jan_24_1253,59.9916683502,FEMA4ImagesEEG,001,102656,
AFNE01.JPG,AFNE01.JPG,AFNE01.JPG,AFNE01.JPG,AFNE01.JPG,AFNE01.JPG,,,,,,,,,,,,,,,,,3,8,38,4,,,,,,,AFNE20.jpg,AFNE09.jpg,AFSA07.jpg,AFSA12.jpg,AFNE20.jpg,FN,3,num_8,32,num_2,0.583503351886,,,2018_Jan_24_1253,59.9916683502,FEMA4ImagesEEG,001,102656,
AFNE01.JPG,AFNE01.JPG,AFNE01.JPG,AFNE01.JPG,AFNE01.JPG,AFNE01.JPG,,,,,,,,,,,,,,,,,3,9,39,2,,,,,,,AFNE04.jpg,AFSA06.jpg,AFSA02.jpg,AFNE16.jpg,AFSA06.jpg,FS,4,num_6,32,num_8,0.583468391304,,,2018_Jan_24_1253,59.9916683502,FEMA4ImagesEEG,001,102656,
AFNE01.JPG,AFNE01.JPG,AFNE01.JPG,AFNE01.JPG,AFNE01.JPG,AFNE01.JPG,,,,,,,,,,,,,,,,,4,0,40,3,,,,,,,AFNE10.jpg,AFSA07.jpg,AFSA15.jpg,AFNE18.jpg,AFSA15.jpg,FS,4,num_2,32,num_6,0.333516261642,,,2018_Jan_24_1253,59.9916683502,FEMA4ImagesEEG,001,102656,
AFNE01.JPG,AFNE01.JPG,AFNE01.JPG,AFNE01.JPG,AFNE01.JPG,AFNE01.JPG,,,,,,,,,,,,,,,,,4,1,41,0,,,,,,,AFNE03.jpg,AFSA15.jpg,AFSA14.jpg,AFNE19.jpg,AFSA15.jpg,FS,4,num_6,16,num_6,0.599888960058,,,2018_Jan_24_1253,59.9916683502,FEMA4ImagesEEG,001,102656,
AFNE01.JPG,AFNE01.JPG,AFNE01.JPG,AFNE01.JPG,AFNE01.JPG,AFNE01.JPG,,,,,,,,,,,,,,,,,4,2,42,9,,,,,,,AFNE08.jpg,AFSA15.jpg,AFSA07.jpg,AFNE02.jpg,AFNE02.jpg,FN,3,num_4,16,num_4,0.816802056068,,,2018_Jan_24_1253,59.9916683502,FEMA4ImagesEEG,001,102656,
AFNE01.JPG,AFNE01.JPG,AFNE01.JPG,AFNE01.JPG,AFNE01.JPG,AFNE01.JPG,,,,,,,,,,,,,,,,,4,3,43,4,,,,,,,AFNE09.jpg,AFSA10.jpg,AFNE18.jpg,AFSA02.jpg,AFSA02.jpg,FS,4,num_4,32,num_2,0.950196565075,,,2018_Jan_24_1253,59.9916683502,FEMA4ImagesEEG,001,102656,
AFNE01.JPG,AFNE01.JPG,AFNE01.JPG,AFNE01.JPG,AFNE01.JPG,AFNE01.JPG,,,,,,,,,,,,,,,,,4,4,44,1,,,,,,,AFSA09.jpg,AFSA12.jpg,AFNE09.jpg,AFNE07.jpg,AFNE07.jpg,FN,3,num_4,32,num_8,0.133530502468,,,2018_Jan_24_1253,59.9916683502,FEMA4ImagesEEG,001,102656,
AFNE01.JPG,AFNE01.JPG,AFNE01.JPG,AFNE01.JPG,AFNE01.JPG,AFNE01.JPG,,,,,,,,,,,,,,,,,4,5,45,2,,,,,,,AFNE18.jpg,AFSA12.jpg,AFNE03.jpg,AFSA14.jpg,AFSA14.jpg,FS,4,num_4,16,num_4,0.883469321447,,,2018_Jan_24_1253,59.9916683502,FEMA4ImagesEEG,001,102656,
AFNE01.JPG,AFNE01.JPG,AFNE01.JPG,AFNE01.JPG,AFNE01.JPG,AFNE01.JPG,,,,,,,,,,,,,,,,,4,6,46,8,,,,,,,AFNE12.jpg,AFNE01.jpg,AFSA20.jpg,AFSA18.jpg,AFNE12.jpg,FN,3,num_8,16,num_8,0.766783084338,,,2018_Jan_24_1253,59.9916683502,FEMA4ImagesEEG,001,102656,
AFNE01.JPG,AFNE01.JPG,AFNE01.JPG,AFNE01.JPG,AFNE01.JPG,AFNE01.JPG,,,,,,,,,,,,,,,,,4,7,47,6,,,,,,,AFNE02.jpg,AFNE16.jpg,AFSA15.jpg,AFSA02.jpg,AFSA02.jpg,FS,4,num_4,16,num_4,0.800232343542,,,2018_Jan_24_1253,59.9916683502,FEMA4ImagesEEG,001,102656,
AFNE01.JPG,AFNE01.JPG,AFNE01.JPG,AFNE01.JPG,AFNE01.JPG,AFNE01.JPG,,,,,,,,,,,,,,,,,4,8,48,5,,,,,,,AFSA03.jpg,AFNE12.jpg,AFNE05.jpg,AFSA01.jpg,AFNE05.jpg,FN,3,num_2,32,num_8,0.366839791045,,,2018_Jan_24_1253,59.9916683502,FEMA4ImagesEEG,001,102656,
AFNE01.JPG,AFNE01.JPG,AFNE01.JPG,AFNE01.JPG,AFNE01.JPG,AFNE01.JPG,,,,,,,,,,,,,,,,,4,9,49,7,,,,,,,AFNE08.jpg,AFSA08.jpg,AFSA05.jpg,AFNE02.jpg,AFSA08.jpg,FS,4,num_6,32,num_2,0.783489111061,,,2018_Jan_24_1253,59.9916683502,FEMA4ImagesEEG,001,102656,
AFNE01.JPG,AFNE01.JPG,AFNE01.JPG,AFNE01.JPG,AFNE01.JPG,AFNE01.JPG,,,,,,,,,,,,,,,,,5,0,50,5,,,,,,,AFNE07.jpg,AFSA11.jpg,AFSA19.jpg,AFNE19.jpg,AFSA11.jpg,FS,4,num_6,32,num_8,0.533477965371,,,2018_Jan_24_1253,59.9916683502,FEMA4ImagesEEG,001,102656,
AFNE01.JPG,AFNE01.JPG,AFNE01.JPG,AFNE01.JPG,AFNE01.JPG,AFNE01.JPG,,,,,,,,,,,,,,,,,5,1,51,6,,,,,,,AFSA10.jpg,AFSA09.jpg,AFNE16.jpg,AFNE12.jpg,AFNE12.jpg,FN,3,num_4,32,num_6,0.366721758985,,,2018_Jan_24_1253,59.9916683502,FEMA4ImagesEEG,001,102656,
AFNE01.JPG,AFNE01.JPG,AFNE01.JPG,AFNE01.JPG,AFNE01.JPG,AFNE01.JPG,,,,,,,,,,,,,,,,,5,2,52,4,,,,,,,AFSA07.jpg,AFNE16.jpg,AFSA12.jpg,AFNE15.jpg,AFSA07.jpg,FS,4,num_8,32,num_4,1.1167465361,,,2018_Jan_24_1253,59.9916683502,FEMA4ImagesEEG,001,102656,
AFNE01.JPG,AFNE01.JPG,AFNE01.JPG,AFNE01.JPG,AFNE01.JPG,AFNE01.JPG,,,,,,,,,,,,,,,,,5,3,53,3,,,,,,,AFNE19.jpg,AFNE06.jpg,AFSA02.jpg,AFSA01.jpg,AFNE06.jpg,FN,3,num_6,32,num_8,0.983476473933,,,2018_Jan_24_1253,59.9916683502,FEMA4ImagesEEG,001,102656,
AFNE01.JPG,AFNE01.JPG,AFNE01.JPG,AFNE01.JPG,AFNE01.JPG,AFNE01.JPG,,,,,,,,,,,,,,,,,5,4,54,9,,,,,,,AFSA01.jpg,AFNE05.jpg,AFSA03.jpg,AFNE01.jpg,AFSA01.jpg,FS,4,num_8,32,num_4,0.716805808717,,,2018_Jan_24_1253,59.9916683502,FEMA4ImagesEEG,001,102656,
AFNE01.JPG,AFNE01.JPG,AFNE01.JPG,AFNE01.JPG,AFNE01.JPG,AFNE01.JPG,,,,,,,,,,,,,,,,,5,5,55,2,,,,,,,AFSA17.jpg,AFSA11.jpg,AFNE14.jpg,AFNE16.jpg,AFSA17.jpg,FS,4,num_8,16,num_8,0.650212954853,,,2018_Jan_24_1253,59.9916683502,FEMA4ImagesEEG,001,102656,
AFNE01.JPG,AFNE01.JPG,AFNE01.JPG,AFNE01.JPG,AFNE01.JPG,AFNE01.JPG,,,,,,,,,,,,,,,,,5,6,56,8,,,,,,,AFNE10.jpg,AFSA11.jpg,AFSA10.jpg,AFNE05.jpg,AFNE10.jpg,FN,3,num_8,32,num_6,0.483515123018,,,2018_Jan_24_1253,59.9916683502,FEMA4ImagesEEG,001,102656,
AFNE01.JPG,AFNE01.JPG,AFNE01.JPG,AFNE01.JPG,AFNE01.JPG,AFNE01.JPG,,,,,,,,,,,,,,,,,5,7,57,0,,,,,,,AFNE04.jpg,AFSA11.jpg,AFSA07.jpg,AFNE08.jpg,AFSA11.jpg,FS,4,num_6,32,num_8,4.29983607015,,,2018_Jan_24_1253,59.9916683502,FEMA4ImagesEEG,001,102656,
AFNE01.JPG,AFNE01.JPG,AFNE01.JPG,AFNE01.JPG,AFNE01.JPG,AFNE01.JPG,,,,,,,,,,,,,,,,,5,8,58,7,,,,,,,AFNE20.jpg,AFSA04.jpg,AFNE13.jpg,AFSA06.jpg,AFNE20.jpg,FN,3,num_8,32,num_4,0.650161957305,,,2018_Jan_24_1253,59.9916683502,FEMA4ImagesEEG,001,102656,
AFNE01.JPG,AFNE01.JPG,AFNE01.JPG,AFNE01.JPG,AFNE01.JPG,AFNE01.JPG,,,,,,,,,,,,,,,,,5,9,59,1,,,,,,,AFNE02.jpg,AFSA17.jpg,AFSA16.jpg,AFNE19.jpg,AFSA17.jpg,FS,4,num_6,32,num_8,0.366829206648,,,2018_Jan_24_1253,59.9916683502,FEMA4ImagesEEG,001,102656,
,,,,,,,,,,,,,,,,,,,,,,,,,,,,,,,,,,,,,,,,,,,space,58.1122555445,2018_Jan_24_1253,59.9916683502,FEMA4ImagesEEG,001,102656,
AFNE01.JPG,AFNE01.JPG,AFNE01.JPG,AFNE01.JPG,AFNE01.JPG,AFNE01.JPG,,,,,,,,,,,,,,,,,,,,,0,0,0,2,,,AMNE12.jpg,AMNE17.jpg,AMSA10.jpg,AMSA06.jpg,AMNE17.jpg,MN,1,num_6,32,num_8,0.533500096382,,,2018_Jan_24_1253,59.9916683502,FEMA4ImagesEEG,001,102656,
AFNE01.JPG,AFNE01.JPG,AFNE01.JPG,AFNE01.JPG,AFNE01.JPG,AFNE01.JPG,,,,,,,,,,,,,,,,,,,,,0,1,1,8,,,AMSA03.jpg,AMNE16.jpg,AMSA07.jpg,AMNE09.jpg,AMSA07.jpg,MS,2,num_2,32,num_6,0.450207951319,,,2018_Jan_24_1253,59.9916683502,FEMA4ImagesEEG,001,102656,
AFNE01.JPG,AFNE01.JPG,AFNE01.JPG,AFNE01.JPG,AFNE01.JPG,AFNE01.JPG,,,,,,,,,,,,,,,,,,,,,0,2,2,9,,,AMNE16.jpg,AMSA20.jpg,AMNE09.jpg,AMSA05.jpg,AMSA20.jpg,MS,2,num_6,16,num_6,0.583619780248,,,2018_Jan_24_1253,59.9916683502,FEMA4ImagesEEG,001,102656,
AFNE01.JPG,AFNE01.JPG,AFNE01.JPG,AFNE01.JPG,AFNE01.JPG,AFNE01.JPG,,,,,,,,,,,,,,,,,,,,,0,3,3,0,,,AMSA14.jpg,AMNE07.jpg,AMNE16.jpg,AMSA06.jpg,AMSA06.jpg,MS,2,num_4,16,num_4,0.783479168143,,,2018_Jan_24_1253,59.9916683502,FEMA4ImagesEEG,001,102656,
AFNE01.JPG,AFNE01.JPG,AFNE01.JPG,AFNE01.JPG,AFNE01.JPG,AFNE01.JPG,,,,,,,,,,,,,,,,,,,,,0,4,4,7,,,AMSA03.jpg,AMNE16.jpg,AMNE08.jpg,AMSA10.jpg,AMSA03.jpg,MS,2,num_8,16,num_8,1.08347881533,,,2018_Jan_24_1253,59.9916683502,FEMA4ImagesEEG,001,102656,
AFNE01.JPG,AFNE01.JPG,AFNE01.JPG,AFNE01.JPG,AFNE01.JPG,AFNE01.JPG,,,,,,,,,,,,,,,,,,,,,0,5,5,4,,,AMNE19.jpg,AMSA02.jpg,AMNE02.jpg,AMSA16.jpg,AMNE19.jpg,MN,1,num_8,16,num_8,0.366858714663,,,2018_Jan_24_1253,59.9916683502,FEMA4ImagesEEG,001,102656,
AFNE01.JPG,AFNE01.JPG,AFNE01.JPG,AFNE01.JPG,AFNE01.JPG,AFNE01.JPG,,,,,,,,,,,,,,,,,,,,,0,6,6,5,,,AMSA04.jpg,AMNE18.jpg,AMNE06.jpg,AMSA15.jpg,AMNE06.jpg,MN,1,num_2,16,num_2,0.350185724087,,,2018_Jan_24_1253,59.9916683502,FEMA4ImagesEEG,001,102656,
AFNE01.JPG,AFNE01.JPG,AFNE01.JPG,AFNE01.JPG,AFNE01.JPG,AFNE01.JPG,,,,,,,,,,,,,,,,,,,,,0,7,7,6,,,AMSA10.jpg,AMNE10.jpg,AMSA14.jpg,AMNE17.jpg,AMSA10.jpg,MS,2,num_8,16,num_8,0.45013065315,,,2018_Jan_24_1253,59.9916683502,FEMA4ImagesEEG,001,102656,
AFNE01.JPG,AFNE01.JPG,AFNE01.JPG,AFNE01.JPG,AFNE01.JPG,AFNE01.JPG,,,,,,,,,,,,,,,,,,,,,0,8,8,3,,,AMSA01.jpg,AMNE19.jpg,AMSA08.jpg,AMNE08.jpg,AMNE08.jpg,MN,1,num_4,32,num_2,0.450179084783,,,2018_Jan_24_1253,59.9916683502,FEMA4ImagesEEG,001,102656,
AFNE01.JPG,AFNE01.JPG,AFNE01.JPG,AFNE01.JPG,AFNE01.JPG,AFNE01.JPG,,,,,,,,,,,,,,,,,,,,,0,9,9,1,,,AMSA20.jpg,AMNE20.jpg,AMSA04.jpg,AMNE02.jpg,AMSA20.jpg,MS,2,num_8,16,num_8,0.450177801827,,,2018_Jan_24_1253,59.9916683502,FEMA4ImagesEEG,001,102656,
AFNE01.JPG,AFNE01.JPG,AFNE01.JPG,AFNE01.JPG,AFNE01.JPG,AFNE01.JPG,,,,,,,,,,,,,,,,,,,,,1,0,10,5,,,AMNE14.jpg,AMNE12.jpg,AMSA08.jpg,AMSA14.jpg,AMSA08.jpg,MS,2,num_2,32,num_4,0.766789819863,,,2018_Jan_24_1253,59.9916683502,FEMA4ImagesEEG,001,102656,
AFNE01.JPG,AFNE01.JPG,AFNE01.JPG,AFNE01.JPG,AFNE01.JPG,AFNE01.JPG,,,,,,,,,,,,,,,,,,,,,1,1,11,4,,,AMNE20.jpg,AMNE11.jpg,AMSA17.jpg,AMSA15.jpg,AMSA17.jpg,MS,2,num_2,16,num_2,1.50009445772,,,2018_Jan_24_1253,59.9916683502,FEMA4ImagesEEG,001,102656,
AFNE01.JPG,AFNE01.JPG,AFNE01.JPG,AFNE01.JPG,AFNE01.JPG,AFNE01.JPG,,,,,,,,,,,,,,,,,,,,,1,2,12,3,,,AMNE17.jpg,AMNE12.jpg,AMSA02.jpg,AMSA05.jpg,AMNE12.jpg,MN,1,num_6,32,num_8,0.366815414858,,,2018_Jan_24_1253,59.9916683502,FEMA4ImagesEEG,001,102656,
AFNE01.JPG,AFNE01.JPG,AFNE01.JPG,AFNE01.JPG,AFNE01.JPG,AFNE01.JPG,,,,,,,,,,,,,,,,,,,,,1,3,13,7,,,AMSA20.jpg,AMSA01.jpg,AMNE08.jpg,AMNE17.jpg,AMNE08.jpg,MN,1,num_2,32,num_8,0.516869764131,,,2018_Jan_24_1253,59.9916683502,FEMA4ImagesEEG,001,102656,
AFNE01.JPG,AFNE01.JPG,AFNE01.JPG,AFNE01.JPG,AFNE01.JPG,AFNE01.JPG,,,,,,,,,,,,,,,,,,,,,1,4,14,0,,,AMNE15.jpg,AMSA13.jpg,AMSA04.jpg,AMNE18.jpg,AMNE18.jpg,MN,1,num_4,16,num_4,1.09983683992,,,2018_Jan_24_1253,59.9916683502,FEMA4ImagesEEG,001,102656,
AFNE01.JPG,AFNE01.JPG,AFNE01.JPG,AFNE01.JPG,AFNE01.JPG,AFNE01.JPG,,,,,,,,,,,,,,,,,,,,,1,5,15,6,,,AMNE05.jpg,AMSA17.jpg,AMSA08.jpg,AMNE10.jpg,AMSA17.jpg,MS,2,num_6,16,num_6,0.633504041475,,,2018_Jan_24_1253,59.9916683502,FEMA4ImagesEEG,001,102656,
AFNE01.JPG,AFNE01.JPG,AFNE01.JPG,AFNE01.JPG,AFNE01.JPG,AFNE01.JPG,,,,,,,,,,,,,,,,,,,,,1,6,16,9,,,AMSA15.jpg,AMNE10.jpg,AMSA04.jpg,AMNE05.jpg,AMNE10.jpg,MN,1,num_6,32,num_8,0.750152110609,,,2018_Jan_24_1253,59.9916683502,FEMA4ImagesEEG,001,102656,
AFNE01.JPG,AFNE01.JPG,AFNE01.JPG,AFNE01.JPG,AFNE01.JPG,AFNE01.JPG,,,,,,,,,,,,,,,,,,,,,1,7,17,2,,,AMNE08.jpg,AMNE16.jpg,AMSA19.jpg,AMSA13.jpg,AMNE08.jpg,MN,1,num_8,32,num_6,0.416846574681,,,2018_Jan_24_1253,59.9916683502,FEMA4ImagesEEG,001,102656,
AFNE01.JPG,AFNE01.JPG,AFNE01.JPG,AFNE01.JPG,AFNE01.JPG,AFNE01.JPG,,,,,,,,,,,,,,,,,,,,,1,8,18,8,,,AMSA20.jpg,AMSA02.jpg,AMNE20.jpg,AMNE18.jpg,AMNE18.jpg,MN,1,num_4,16,num_4,0.600119892347,,,2018_Jan_24_1253,59.9916683502,FEMA4ImagesEEG,001,102656,
AFNE01.JPG,AFNE01.JPG,AFNE01.JPG,AFNE01.JPG,AFNE01.JPG,AFNE01.JPG,,,,,,,,,,,,,,,,,,,,,1,9,19,1,,,AMSA01.jpg,AMNE16.jpg,AMSA20.jpg,AMNE17.jpg,AMNE16.jpg,MN,1,num_6,32,num_4,1.28337412603,,,2018_Jan_24_1253,59.9916683502,FEMA4ImagesEEG,001,102656,
AFNE01.JPG,AFNE01.JPG,AFNE01.JPG,AFNE01.JPG,AFNE01.JPG,AFNE01.JPG,,,,,,,,,,,,,,,,,,,,,2,0,20,9,,,AMSA12.jpg,AMNE07.jpg,AMNE12.jpg,AMSA10.jpg,AMNE12.jpg,MN,1,num_2,32,num_8,0.58347416461,,,2018_Jan_24_1253,59.9916683502,FEMA4ImagesEEG,001,102656,
AFNE01.JPG,AFNE01.JPG,AFNE01.JPG,AFNE01.JPG,AFNE01.JPG,AFNE01.JPG,,,,,,,,,,,,,,,,,,,,,2,1,21,5,,,AMNE13.jpg,AMNE12.jpg,AMSA04.jpg,AMSA02.jpg,AMSA04.jpg,MS,2,num_2,32,num_4,1.28346874412,,,2018_Jan_24_1253,59.9916683502,FEMA4ImagesEEG,001,102656,
AFNE01.JPG,AFNE01.JPG,AFNE01.JPG,AFNE01.JPG,AFNE01.JPG,AFNE01.JPG,,,,,,,,,,,,,,,,,,,,,2,2,22,1,,,AMSA18.jpg,AMNE01.jpg,AMSA06.jpg,AMNE07.jpg,AMSA18.jpg,MS,2,num_8,16,num_8,0.616778449656,,,2018_Jan_24_1253,59.9916683502,FEMA4ImagesEEG,001,102656,
AFNE01.JPG,AFNE01.JPG,AFNE01.JPG,AFNE01.JPG,AFNE01.JPG,AFNE01.JPG,,,,,,,,,,,,,,,,,,,,,2,3,23,2,,,AMSA18.jpg,AMSA13.jpg,AMNE14.jpg,AMNE05.jpg,AMSA13.jpg,MS,2,num_6,16,num_6,0.433475944713,,,2018_Jan_24_1253,59.9916683502,FEMA4ImagesEEG,001,102656,
AFNE01.JPG,AFNE01.JPG,AFNE01.JPG,AFNE01.JPG,AFNE01.JPG,AFNE01.JPG,,,,,,,,,,,,,,,,,,,,,2,4,24,3,,,AMNE10.jpg,AMSA04.jpg,AMSA13.jpg,AMNE20.jpg,AMNE20.jpg,MN,1,num_4,32,num_8,0.516807219969,,,2018_Jan_24_1253,59.9916683502,FEMA4ImagesEEG,001,102656,
AFNE01.JPG,AFNE01.JPG,AFNE01.JPG,AFNE01.JPG,AFNE01.JPG,AFNE01.JPG,,,,,,,,,,,,,,,,,,,,,2,5,25,4,,,AMSA01.jpg,AMSA18.jpg,AMNE10.jpg,AMNE18.jpg,AMNE18.jpg,MN,1,num_4,32,num_8,0.450210517234,,,2018_Jan_24_1253,59.9916683502,FEMA4ImagesEEG,001,102656,
AFNE01.JPG,AFNE01.JPG,AFNE01.JPG,AFNE01.JPG,AFNE01.JPG,AFNE01.JPG,,,,,,,,,,,,,,,,,,,,,2,6,26,8,,,AMNE13.jpg,AMSA17.jpg,AMSA18.jpg,AMNE14.jpg,AMSA17.jpg,MS,2,num_6,32,num_8,3.23323712224,,,2018_Jan_24_1253,59.9916683502,FEMA4ImagesEEG,001,102656,
AFNE01.JPG,AFNE01.JPG,AFNE01.JPG,AFNE01.JPG,AFNE01.JPG,AFNE01.JPG,,,,,,,,,,,,,,,,,,,,,2,7,27,6,,,AMSA08.jpg,AMSA18.jpg,AMNE02.jpg,AMNE20.jpg,AMNE02.jpg,MN,1,num_2,32,num_8,0.53347379576,,,2018_Jan_24_1253,59.9916683502,FEMA4ImagesEEG,001,102656,
AFNE01.JPG,AFNE01.JPG,AFNE01.JPG,AFNE01.JPG,AFNE01.JPG,AFNE01.JPG,,,,,,,,,,,,,,,,,,,,,2,8,28,0,,,AMNE09.jpg,AMNE04.jpg,AMSA16.jpg,AMSA17.jpg,AMNE04.jpg,MN,1,num_6,16,num_6,0.650428812395,,,2018_Jan_24_1253,59.9916683502,FEMA4ImagesEEG,001,102656,
AFNE01.JPG,AFNE01.JPG,AFNE01.JPG,AFNE01.JPG,AFNE01.JPG,AFNE01.JPG,,,,,,,,,,,,,,,,,,,,,2,9,29,7,,,AMNE02.jpg,AMSA10.jpg,AMNE10.jpg,AMSA17.jpg,AMNE10.jpg,MN,1,num_2,32,num_4,0.566845115317,,,2018_Jan_24_1253,59.9916683502,FEMA4ImagesEEG,001,102656,
AFNE01.JPG,AFNE01.JPG,AFNE01.JPG,AFNE01.JPG,AFNE01.JPG,AFNE01.JPG,,,,,,,,,,,,,,,,,,,,,3,0,30,6,,,AMNE09.jpg,AMNE01.jpg,AMSA15.jpg,AMSA01.jpg,AMSA01.jpg,MS,2,num_4,32,num_6,0.383519196407,,,2018_Jan_24_1253,59.9916683502,FEMA4ImagesEEG,001,102656,
AFNE01.JPG,AFNE01.JPG,AFNE01.JPG,AFNE01.JPG,AFNE01.JPG,AFNE01.JPG,,,,,,,,,,,,,,,,,,,,,3,1,31,9,,,AMSA15.jpg,AMSA06.jpg,AMNE07.jpg,AMNE04.jpg,AMSA15.jpg,MS,2,num_8,16,num_8,0.650199163063,,,2018_Jan_24_1253,59.9916683502,FEMA4ImagesEEG,001,102656,
AFNE01.JPG,AFNE01.JPG,AFNE01.JPG,AFNE01.JPG,AFNE01.JPG,AFNE01.JPG,,,,,,,,,,,,,,,,,,,,,3,2,32,7,,,AMSA03.jpg,AMSA18.jpg,AMNE17.jpg,AMNE15.jpg,AMNE17.jpg,MN,1,num_2,32,num_6,0.850023911114,,,2018_Jan_24_1253,59.9916683502,FEMA4ImagesEEG,001,102656,
AFNE01.JPG,AFNE01.JPG,AFNE01.JPG,AFNE01.JPG,AFNE01.JPG,AFNE01.JPG,,,,,,,,,,,,,,,,,,,,,3,3,33,8,,,AMSA19.jpg,AMSA17.jpg,AMNE05.jpg,AMNE12.jpg,AMNE05.jpg,MN,1,num_2,16,num_2,0.883309914019,,,2018_Jan_24_1253,59.9916683502,FEMA4ImagesEEG,001,102656,
AFNE01.JPG,AFNE01.JPG,AFNE01.JPG,AFNE01.JPG,AFNE01.JPG,AFNE01.JPG,,,,,,,,,,,,,,,,,,,,,3,4,34,2,,,AMNE03.jpg,AMSA06.jpg,AMSA09.jpg,AMNE20.jpg,AMSA06.jpg,MS,2,num_6,32,num_8,1.00014337046,,,2018_Jan_24_1253,59.9916683502,FEMA4ImagesEEG,001,102656,
AFNE01.JPG,AFNE01.JPG,AFNE01.JPG,AFNE01.JPG,AFNE01.JPG,AFNE01.JPG,,,,,,,,,,,,,,,,,,,,,3,5,35,1,,,AMNE07.jpg,AMSA15.jpg,AMNE16.jpg,AMSA18.jpg,AMNE07.jpg,MN,1,num_8,32,num_4,0.78350771394,,,2018_Jan_24_1253,59.9916683502,FEMA4ImagesEEG,001,102656,
AFNE01.JPG,AFNE01.JPG,AFNE01.JPG,AFNE01.JPG,AFNE01.JPG,AFNE01.JPG,,,,,,,,,,,,,,,,,,,,,3,6,36,5,,,AMNE20.jpg,AMNE06.jpg,AMSA02.jpg,AMSA15.jpg,AMNE20.jpg,MN,1,num_8,16,num_8,1.83340929509,,,2018_Jan_24_1253,59.9916683502,FEMA4ImagesEEG,001,102656,
AFNE01.JPG,AFNE01.JPG,AFNE01.JPG,AFNE01.JPG,AFNE01.JPG,AFNE01.JPG,,,,,,,,,,,,,,,,,,,,,3,7,37,3,,,AMNE15.jpg,AMSA05.jpg,AMNE17.jpg,AMSA19.jpg,AMNE17.jpg,MN,1,num_2,32,num_4,0.950145567527,,,2018_Jan_24_1253,59.9916683502,FEMA4ImagesEEG,001,102656,
AFNE01.JPG,AFNE01.JPG,AFNE01.JPG,AFNE01.JPG,AFNE01.JPG,AFNE01.JPG,,,,,,,,,,,,,,,,,,,,,3,8,38,0,,,AMSA06.jpg,AMNE14.jpg,AMSA04.jpg,AMNE19.jpg,AMNE19.jpg,MN,1,num_4,32,num_6,0.466838925049,,,2018_Jan_24_1253,59.9916683502,FEMA4ImagesEEG,001,102656,
