IPosition2,IPosition3,IPosition1,IPosition6,IPosition4,IPosition5,TrialsF1.thisRepN,TrialsF1.thisTrialN,TrialsF1.thisN,TrialsF1.thisIndex,TrialsM1.thisRepN,TrialsM1.thisTrialN,TrialsM1.thisN,TrialsM1.thisIndex,TrialsF2.thisRepN,TrialsF2.thisTrialN,TrialsF2.thisN,TrialsF2.thisIndex,TrialsM2.thisRepN,TrialsM2.thisTrialN,TrialsM2.thisN,TrialsM2.thisIndex,TrialsF3.thisRepN,TrialsF3.thisTrialN,TrialsF3.thisN,TrialsF3.thisIndex,TrialsM3.thisRepN,TrialsM3.thisTrialN,TrialsM3.thisN,TrialsM3.thisIndex,InstrKey_resp.keys,InstrKey_resp.rt,Image0 _Position,Image1 _Position,Image2 _Position,Image3 _Position,Center_image,condition,code,correct_answer,accuracy,Key_Resp.keys,Key_Resp.rt,BreakKey_resp.keys,BreakKey_resp.rt,date,frameRate,expName,session,participant,
,,,,,,,,,,,,,,,,,,,,,,,,,,,,,,space,14.8825122924,,,,,,,,,,,,,,2018_Jan_10_1130,59.9936115466,FEMA4ImagesEEG,001,102726,
AFNE23.JPG,AFNE24.JPG,AFNE22.JPG,AFSA24.JPG,AFSA22.JPG,AFSA23.JPG,0,0,0,8,,,,,,,,,,,,,,,,,,,,,,,AFNE17.jpg,AFSA08.jpg,AFSA04.jpg,AFNE16.jpg,AFSA04.jpg,FS,4,num_2,32,num_8,1.61656301422,,,2018_Jan_10_1130,59.9936115466,FEMA4ImagesEEG,001,102726,
AFSA21.JPG,AFNE22.JPG,AFNE21.JPG,AFSA23.JPG,AFSA22.JPG,AFNE23.JPG,0,1,1,0,,,,,,,,,,,,,,,,,,,,,,,AFSA20.jpg,AFNE08.jpg,AFNE06.jpg,AFSA05.jpg,AFSA05.jpg,FS,4,num_4,16,num_4,0.833453824744,,,2018_Jan_10_1130,59.9936115466,FEMA4ImagesEEG,001,102726,
AFSA25.JPG,AFNE24.JPG,AFSA24.JPG,AFNE21.JPG,AFSA21.JPG,AFNE25.JPG,0,2,2,2,,,,,,,,,,,,,,,,,,,,,,,AFNE08.jpg,AFSA11.jpg,AFSA09.jpg,AFNE09.jpg,AFSA09.jpg,FS,4,num_2,32,num_6,1.73336145165,,,2018_Jan_10_1130,59.9936115466,FEMA4ImagesEEG,001,102726,
AFSA21.JPG,AFNE23.JPG,AFNE21.JPG,AFSA25.JPG,AFNE25.JPG,AFSA23.JPG,0,3,3,4,,,,,,,,,,,,,,,,,,,,,,,AFSA07.jpg,AFSA02.jpg,AFNE18.jpg,AFNE10.jpg,AFNE10.jpg,FN,3,num_4,16,num_4,1.05009638239,,,2018_Jan_10_1130,59.9936115466,FEMA4ImagesEEG,001,102726,
AMNE22.JPG,AMSA24.JPG,AMSA22.JPG,AMNE25.JPG,AMNE24.JPG,AMSA25.JPG,0,4,4,7,,,,,,,,,,,,,,,,,,,,,,,AFNE18.jpg,AFSA11.jpg,AFNE12.jpg,AFSA17.jpg,AFNE18.jpg,FN,3,num_8,16,num_8,0.866811106447,,,2018_Jan_10_1130,59.9936115466,FEMA4ImagesEEG,001,102726,
AMSA25.JPG,AMNE24.JPG,AMSA24.JPG,AMNE26.JPG,AMSA21.JPG,AMNE25.JPG,0,5,5,3,,,,,,,,,,,,,,,,,,,,,,,AFNE16.jpg,AFSA19.jpg,AFNE03.jpg,AFSA09.jpg,AFNE03.jpg,FN,3,num_2,16,num_2,1.06672129943,,,2018_Jan_10_1130,59.9936115466,FEMA4ImagesEEG,001,102726,
AMSA21.JPG,AMNE23.JPG,AMNE21.JPG,AMSA25.JPG,AMNE25.JPG,AMSA23.JPG,0,6,6,5,,,,,,,,,,,,,,,,,,,,,,,AFNE15.jpg,AFNE02.jpg,AFSA02.jpg,AFSA01.jpg,AFSA02.jpg,FS,4,num_2,32,num_4,1.36673990241,,,2018_Jan_10_1130,59.9936115466,FEMA4ImagesEEG,001,102726,
AFNE22.JPG,AFSA24.JPG,AFSA22.JPG,AFNE25.JPG,AFNE24.JPG,AFSA25.JPG,0,7,7,6,,,,,,,,,,,,,,,,,,,,,,,AFNE11.jpg,AFSA01.jpg,AFSA13.jpg,AFNE13.jpg,AFSA13.jpg,FS,4,num_2,16,num_2,1.10007697763,,,2018_Jan_10_1130,59.9936115466,FEMA4ImagesEEG,001,102726,
AMSA21.JPG,AMNE22.JPG,AMNE21.JPG,AMSA23.JPG,AMSA22.JPG,AMNE23.JPG,0,8,8,1,,,,,,,,,,,,,,,,,,,,,,,AFSA07.jpg,AFNE19.jpg,AFSA09.jpg,AFNE14.jpg,AFNE14.jpg,FN,3,num_4,16,num_4,1.30005869549,,,2018_Jan_10_1130,59.9936115466,FEMA4ImagesEEG,001,102726,
AMNE23.JPG,AMNE24.JPG,AMNE22.JPG,AMSA24.JPG,AMSA22.JPG,AMSA23.JPG,0,9,9,9,,,,,,,,,,,,,,,,,,,,,,,AFSA19.jpg,AFSA05.jpg,AFNE03.jpg,AFNE05.jpg,AFSA19.jpg,FS,4,num_8,32,num_4,1.40037526563,,,2018_Jan_10_1130,59.9936115466,FEMA4ImagesEEG,001,102726,
AFNE23.JPG,AFNE24.JPG,AFNE22.JPG,AFSA24.JPG,AFSA22.JPG,AFSA23.JPG,,,,,0,0,0,8,,,,,,,,,,,,,,,,,,,AMSA15.jpg,AMNE14.jpg,AMSA20.jpg,AMNE13.jpg,AMSA20.jpg,MS,2,num_2,16,num_2,1.06674792082,,,2018_Jan_10_1130,59.9936115466,FEMA4ImagesEEG,001,102726,
AMNE22.JPG,AMSA24.JPG,AMSA22.JPG,AMNE25.JPG,AMNE24.JPG,AMSA25.JPG,,,,,0,1,1,7,,,,,,,,,,,,,,,,,,,AMSA09.jpg,AMNE17.jpg,AMSA02.jpg,AMNE07.jpg,AMNE17.jpg,MN,1,num_6,16,num_6,0.750107929111,,,2018_Jan_10_1130,59.9936115466,FEMA4ImagesEEG,001,102726,
AFNE22.JPG,AFSA24.JPG,AFSA22.JPG,AFNE25.JPG,AFNE24.JPG,AFSA25.JPG,,,,,0,2,2,6,,,,,,,,,,,,,,,,,,,AMNE06.jpg,AMSA12.jpg,AMNE09.jpg,AMSA18.jpg,AMNE06.jpg,MN,1,num_8,16,num_8,1.53339769528,,,2018_Jan_10_1130,59.9936115466,FEMA4ImagesEEG,001,102726,
AFSA21.JPG,AFNE23.JPG,AFNE21.JPG,AFSA25.JPG,AFNE25.JPG,AFSA23.JPG,,,,,0,3,3,4,,,,,,,,,,,,,,,,,,,AMSA13.jpg,AMSA17.jpg,AMNE05.jpg,AMNE11.jpg,AMSA13.jpg,MS,2,num_8,32,num_4,2.15001683868,,,2018_Jan_10_1130,59.9936115466,FEMA4ImagesEEG,001,102726,
AMNE23.JPG,AMNE24.JPG,AMNE22.JPG,AMSA24.JPG,AMSA22.JPG,AMSA23.JPG,,,,,0,4,4,9,,,,,,,,,,,,,,,,,,,AMNE05.jpg,AMSA08.jpg,AMNE11.jpg,AMSA13.jpg,AMNE05.jpg,MN,1,num_8,16,num_8,3.33328447398,,,2018_Jan_10_1130,59.9936115466,FEMA4ImagesEEG,001,102726,
AFSA21.JPG,AFNE22.JPG,AFNE21.JPG,AFSA23.JPG,AFSA22.JPG,AFNE23.JPG,,,,,0,5,5,0,,,,,,,,,,,,,,,,,,,AMNE04.jpg,AMNE02.jpg,AMSA15.jpg,AMSA11.jpg,AMSA11.jpg,MS,2,num_4,32,num_8,2.30011739093,,,2018_Jan_10_1130,59.9936115466,FEMA4ImagesEEG,001,102726,
AMSA21.JPG,AMNE23.JPG,AMNE21.JPG,AMSA25.JPG,AMNE25.JPG,AMSA23.JPG,,,,,0,6,6,5,,,,,,,,,,,,,,,,,,,AMSA16.jpg,AMNE03.jpg,AMNE04.jpg,AMSA13.jpg,AMNE04.jpg,MN,1,num_2,16,num_2,0.966743430356,,,2018_Jan_10_1130,59.9936115466,FEMA4ImagesEEG,001,102726,
AMSA25.JPG,AMNE24.JPG,AMSA24.JPG,AMNE26.JPG,AMSA21.JPG,AMNE25.JPG,,,,,0,7,7,3,,,,,,,,,,,,,,,,,,,AMNE10.jpg,AMSA05.jpg,AMSA13.jpg,AMNE14.jpg,AMSA05.jpg,MS,2,num_6,16,num_6,1.28337989398,,,2018_Jan_10_1130,59.9936115466,FEMA4ImagesEEG,001,102726,
AMSA21.JPG,AMNE22.JPG,AMNE21.JPG,AMSA23.JPG,AMSA22.JPG,AMNE23.JPG,,,,,0,8,8,1,,,,,,,,,,,,,,,,,,,AMNE06.jpg,AMNE02.jpg,AMSA16.jpg,AMSA06.jpg,AMNE02.jpg,MN,1,num_6,16,num_6,1.00018570852,,,2018_Jan_10_1130,59.9936115466,FEMA4ImagesEEG,001,102726,
AFSA25.JPG,AFNE24.JPG,AFSA24.JPG,AFNE21.JPG,AFSA21.JPG,AFNE25.JPG,,,,,0,9,9,2,,,,,,,,,,,,,,,,,,,AMNE07.jpg,AMSA17.jpg,AMNE04.jpg,AMSA20.jpg,AMSA20.jpg,MS,2,num_4,32,num_6,0.783498888602,,,2018_Jan_10_1130,59.9936115466,FEMA4ImagesEEG,001,102726,
AMNE22.JPG,AMSA24.JPG,AMSA22.JPG,AMNE25.JPG,AMNE24.JPG,AMSA25.JPG,,,,,,,,,0,0,0,7,,,,,,,,,,,,,,,AFNE11.jpg,AFNE07.jpg,AFSA02.jpg,AFSA06.jpg,AFSA02.jpg,FS,4,num_2,32,num_8,1.30007569469,,,2018_Jan_10_1130,59.9936115466,FEMA4ImagesEEG,001,102726,
AMSA25.JPG,AMNE24.JPG,AMSA24.JPG,AMNE26.JPG,AMSA21.JPG,AMNE25.JPG,,,,,,,,,0,1,1,3,,,,,,,,,,,,,,,AFSA16.jpg,AFNE19.jpg,AFSA13.jpg,AFNE17.jpg,AFNE17.jpg,FN,3,num_4,16,num_4,1.15011594747,,,2018_Jan_10_1130,59.9936115466,FEMA4ImagesEEG,001,102726,
AMSA21.JPG,AMNE22.JPG,AMNE21.JPG,AMSA23.JPG,AMSA22.JPG,AMNE23.JPG,,,,,,,,,0,2,2,1,,,,,,,,,,,,,,,AFSA17.jpg,AFNE07.jpg,AFNE18.jpg,AFSA15.jpg,AFSA15.jpg,FS,4,num_4,32,num_2,1.98337861127,,,2018_Jan_10_1130,59.9936115466,FEMA4ImagesEEG,001,102726,
AFSA21.JPG,AFNE23.JPG,AFNE21.JPG,AFSA25.JPG,AFNE25.JPG,AFSA23.JPG,,,,,,,,,0,3,3,4,,,,,,,,,,,,,,,AFSA01.jpg,AFNE07.jpg,AFNE12.jpg,AFSA06.jpg,AFSA06.jpg,FS,4,num_4,16,num_4,1.20008820342,,,2018_Jan_10_1130,59.9936115466,FEMA4ImagesEEG,001,102726,
AFSA25.JPG,AFNE24.JPG,AFSA24.JPG,AFNE21.JPG,AFSA21.JPG,AFNE25.JPG,,,,,,,,,0,4,4,2,,,,,,,,,,,,,,,AFSA14.jpg,AFNE15.jpg,AFNE16.jpg,AFSA19.jpg,AFNE16.jpg,FN,3,num_2,16,num_2,1.20007826062,,,2018_Jan_10_1130,59.9936115466,FEMA4ImagesEEG,001,102726,
AFNE22.JPG,AFSA24.JPG,AFSA22.JPG,AFNE25.JPG,AFNE24.JPG,AFSA25.JPG,,,,,,,,,0,5,5,6,,,,,,,,,,,,,,,AFSA09.jpg,AFNE04.jpg,AFSA08.jpg,AFNE14.jpg,AFNE14.jpg,FN,3,num_4,16,num_4,0.76674503414,,,2018_Jan_10_1130,59.9936115466,FEMA4ImagesEEG,001,102726,
AMNE23.JPG,AMNE24.JPG,AMNE22.JPG,AMSA24.JPG,AMSA22.JPG,AMSA23.JPG,,,,,,,,,0,6,6,9,,,,,,,,,,,,,,,AFNE05.jpg,AFSA05.jpg,AFSA20.jpg,AFNE11.jpg,AFSA20.jpg,FS,4,num_2,32,num_6,0.966806616168,,,2018_Jan_10_1130,59.9936115466,FEMA4ImagesEEG,001,102726,
AMSA21.JPG,AMNE23.JPG,AMNE21.JPG,AMSA25.JPG,AMNE25.JPG,AMSA23.JPG,,,,,,,,,0,7,7,5,,,,,,,,,,,,,,,AFNE09.jpg,AFNE03.jpg,AFSA07.jpg,AFSA16.jpg,AFSA07.jpg,FS,4,num_2,16,num_2,1.20012701303,,,2018_Jan_10_1130,59.9936115466,FEMA4ImagesEEG,001,102726,
AFNE23.JPG,AFNE24.JPG,AFNE22.JPG,AFSA24.JPG,AFSA22.JPG,AFSA23.JPG,,,,,,,,,0,8,8,8,,,,,,,,,,,,,,,AFNE14.jpg,AFSA05.jpg,AFNE03.jpg,AFSA10.jpg,AFSA05.jpg,FS,4,num_6,32,num_4,0.850002405699,,,2018_Jan_10_1130,59.9936115466,FEMA4ImagesEEG,001,102726,
AFSA21.JPG,AFNE22.JPG,AFNE21.JPG,AFSA23.JPG,AFSA22.JPG,AFNE23.JPG,,,,,,,,,0,9,9,0,,,,,,,,,,,,,,,AFNE10.jpg,AFNE18.jpg,AFSA12.jpg,AFSA13.jpg,AFNE10.jpg,FN,3,num_8,16,num_8,1.36685665161,,,2018_Jan_10_1130,59.9936115466,FEMA4ImagesEEG,001,102726,
AMNE22.JPG,AMSA24.JPG,AMSA22.JPG,AMNE25.JPG,AMNE24.JPG,AMSA25.JPG,,,,,,,,,,,,,0,0,0,7,,,,,,,,,,,AMNE03.jpg,AMSA01.jpg,AMSA03.jpg,AMNE01.jpg,AMNE01.jpg,MN,1,num_4,16,num_4,1.2002395927,,,2018_Jan_10_1130,59.9936115466,FEMA4ImagesEEG,001,102726,
AFSA25.JPG,AFNE24.JPG,AFSA24.JPG,AFNE21.JPG,AFSA21.JPG,AFNE25.JPG,,,,,,,,,,,,,0,1,1,2,,,,,,,,,,,AMSA17.jpg,AMSA20.jpg,AMNE19.jpg,AMNE10.jpg,AMNE10.jpg,MN,1,num_4,16,num_4,1.53344099503,,,2018_Jan_10_1130,59.9936115466,FEMA4ImagesEEG,001,102726,
AFSA21.JPG,AFNE23.JPG,AFNE21.JPG,AFSA25.JPG,AFNE25.JPG,AFSA23.JPG,,,,,,,,,,,,,0,2,2,4,,,,,,,,,,,AMSA09.jpg,AMSA03.jpg,AMNE13.jpg,AMNE05.jpg,AMSA09.jpg,MS,2,num_8,16,num_8,0.800042979186,,,2018_Jan_10_1130,59.9936115466,FEMA4ImagesEEG,001,102726,
AMNE23.JPG,AMNE24.JPG,AMNE22.JPG,AMSA24.JPG,AMSA22.JPG,AMSA23.JPG,,,,,,,,,,,,,0,3,3,9,,,,,,,,,,,AMNE10.jpg,AMSA05.jpg,AMNE13.jpg,AMSA13.jpg,AMSA13.jpg,MS,2,num_4,16,num_4,1.00016453955,,,2018_Jan_10_1130,59.9936115466,FEMA4ImagesEEG,001,102726,
AMSA25.JPG,AMNE24.JPG,AMSA24.JPG,AMNE26.JPG,AMSA21.JPG,AMNE25.JPG,,,,,,,,,,,,,0,4,4,3,,,,,,,,,,,AMSA01.jpg,AMNE08.jpg,AMNE18.jpg,AMSA12.jpg,AMNE08.jpg,MN,1,num_6,16,num_6,1.38351781224,,,2018_Jan_10_1130,59.9936115466,FEMA4ImagesEEG,001,102726,
AFNE22.JPG,AFSA24.JPG,AFSA22.JPG,AFNE25.JPG,AFNE24.JPG,AFSA25.JPG,,,,,,,,,,,,,0,5,5,6,,,,,,,,,,,AMNE14.jpg,AMSA02.jpg,AMSA20.jpg,AMNE12.jpg,AMNE12.jpg,MN,1,num_4,16,num_4,1.20030662743,,,2018_Jan_10_1130,59.9936115466,FEMA4ImagesEEG,001,102726,
AFSA21.JPG,AFNE22.JPG,AFNE21.JPG,AFSA23.JPG,AFSA22.JPG,AFNE23.JPG,,,,,,,,,,,,,0,6,6,0,,,,,,,,,,,AMSA04.jpg,AMNE12.jpg,AMNE04.jpg,AMSA20.jpg,AMSA04.jpg,MS,2,num_8,16,num_8,0.83350802958,,,2018_Jan_10_1130,59.9936115466,FEMA4ImagesEEG,001,102726,
AFNE23.JPG,AFNE24.JPG,AFNE22.JPG,AFSA24.JPG,AFSA22.JPG,AFSA23.JPG,,,,,,,,,,,,,0,7,7,8,,,,,,,,,,,AMNE14.jpg,AMSA02.jpg,AMNE16.jpg,AMSA04.jpg,AMNE16.jpg,MN,1,num_2,32,num_8,1.08314767829,,,2018_Jan_10_1130,59.9936115466,FEMA4ImagesEEG,001,102726,
AMSA21.JPG,AMNE23.JPG,AMNE21.JPG,AMSA25.JPG,AMNE25.JPG,AMSA23.JPG,,,,,,,,,,,,,0,8,8,5,,,,,,,,,,,AMNE13.jpg,AMSA02.jpg,AMSA19.jpg,AMNE14.jpg,AMNE14.jpg,MN,1,num_4,16,num_4,1.18323876848,,,2018_Jan_10_1130,59.9936115466,FEMA4ImagesEEG,001,102726,
AMSA21.JPG,AMNE22.JPG,AMNE21.JPG,AMSA23.JPG,AMSA22.JPG,AMNE23.JPG,,,,,,,,,,,,,0,9,9,1,,,,,,,,,,,AMSA15.jpg,AMNE17.jpg,AMSA12.jpg,AMNE20.jpg,AMNE20.jpg,MN,1,num_4,32,num_6,0.933596233372,,,2018_Jan_10_1130,59.9936115466,FEMA4ImagesEEG,001,102726,
AMSA25.JPG,AMNE24.JPG,AMSA24.JPG,AMNE26.JPG,AMSA21.JPG,AMNE25.JPG,,,,,,,,,,,,,,,,,0,0,0,3,,,,,,,AFNE09.jpg,AFNE03.jpg,AFSA11.jpg,AFSA04.jpg,AFNE03.jpg,FN,3,num_6,16,num_6,1.2002809681,,,2018_Jan_10_1130,59.9936115466,FEMA4ImagesEEG,001,102726,
AFSA25.JPG,AFNE24.JPG,AFSA24.JPG,AFNE21.JPG,AFSA21.JPG,AFNE25.JPG,,,,,,,,,,,,,,,,,0,1,1,2,,,,,,,AFNE20.jpg,AFSA11.jpg,AFSA20.jpg,AFNE14.jpg,AFNE14.jpg,FN,3,num_4,16,num_4,1.00014721951,,,2018_Jan_10_1130,59.9936115466,FEMA4ImagesEEG,001,102726,
AMSA21.JPG,AMNE23.JPG,AMNE21.JPG,AMSA25.JPG,AMNE25.JPG,AMSA23.JPG,,,,,,,,,,,,,,,,,0,2,2,5,,,,,,,AFSA12.jpg,AFNE03.jpg,AFNE16.jpg,AFSA06.jpg,AFNE03.jpg,FN,3,num_6,16,num_6,0.900134710828,,,2018_Jan_10_1130,59.9936115466,FEMA4ImagesEEG,001,102726,
AMNE23.JPG,AMNE24.JPG,AMNE22.JPG,AMSA24.JPG,AMSA22.JPG,AMSA23.JPG,,,,,,,,,,,,,,,,,0,3,3,9,,,,,,,AFSA03.jpg,AFNE14.jpg,AFSA16.jpg,AFNE19.jpg,AFSA03.jpg,FS,4,num_8,32,num_2,2.40008659987,,,2018_Jan_10_1130,59.9936115466,FEMA4ImagesEEG,001,102726,
AMSA21.JPG,AMNE22.JPG,AMNE21.JPG,AMSA23.JPG,AMSA22.JPG,AMNE23.JPG,,,,,,,,,,,,,,,,,0,4,4,1,,,,,,,AFNE06.jpg,AFSA16.jpg,AFNE04.jpg,AFSA14.jpg,AFNE04.jpg,FN,3,num_2,16,num_2,1.6167714952,,,2018_Jan_10_1130,59.9936115466,FEMA4ImagesEEG,001,102726,
AFSA21.JPG,AFNE22.JPG,AFNE21.JPG,AFSA23.JPG,AFSA22.JPG,AFNE23.JPG,,,,,,,,,,,,,,,,,0,5,5,0,,,,,,,AFSA03.jpg,AFSA04.jpg,AFNE03.jpg,AFNE10.jpg,AFNE10.jpg,FN,3,num_4,16,num_4,0.800137276761,,,2018_Jan_10_1130,59.9936115466,FEMA4ImagesEEG,001,102726,
AMNE22.JPG,AMSA24.JPG,AMSA22.JPG,AMNE25.JPG,AMNE24.JPG,AMSA25.JPG,,,,,,,,,,,,,,,,,0,6,6,7,,,,,,,AFNE17.jpg,AFNE11.jpg,AFSA16.jpg,AFSA04.jpg,AFNE11.jpg,FN,3,num_6,16,num_6,1.23346665432,,,2018_Jan_10_1130,59.9936115466,FEMA4ImagesEEG,001,102726,
AFNE22.JPG,AFSA24.JPG,AFSA22.JPG,AFNE25.JPG,AFNE24.JPG,AFSA25.JPG,,,,,,,,,,,,,,,,,0,7,7,6,,,,,,,AFSA07.jpg,AFNE08.jpg,AFNE13.jpg,AFSA15.jpg,AFNE13.jpg,FN,3,num_2,32,num_8,0.816797795938,,,2018_Jan_10_1130,59.9936115466,FEMA4ImagesEEG,001,102726,
AFNE23.JPG,AFNE24.JPG,AFNE22.JPG,AFSA24.JPG,AFSA22.JPG,AFSA23.JPG,,,,,,,,,,,,,,,,,0,8,8,8,,,,,,,AFSA13.jpg,AFSA15.jpg,AFNE03.jpg,AFNE19.jpg,AFNE19.jpg,FN,3,num_4,16,num_4,1.70004586573,,,2018_Jan_10_1130,59.9936115466,FEMA4ImagesEEG,001,102726,
AFSA21.JPG,AFNE23.JPG,AFNE21.JPG,AFSA25.JPG,AFNE25.JPG,AFSA23.JPG,,,,,,,,,,,,,,,,,0,9,9,4,,,,,,,AFSA17.jpg,AFNE07.jpg,AFNE18.jpg,AFSA08.jpg,AFNE07.jpg,FN,3,num_6,16,num_6,1.10008724127,,,2018_Jan_10_1130,59.9936115466,FEMA4ImagesEEG,001,102726,
AFSA25.JPG,AFNE24.JPG,AFSA24.JPG,AFNE21.JPG,AFSA21.JPG,AFNE25.JPG,,,,,,,,,,,,,,,,,,,,,0,0,0,2,,,AMSA19.jpg,AMSA20.jpg,AMNE20.jpg,AMNE02.jpg,AMSA20.jpg,MS,2,num_6,16,num_6,1.00019853818,,,2018_Jan_10_1130,59.9936115466,FEMA4ImagesEEG,001,102726,
AFNE23.JPG,AFNE24.JPG,AFNE22.JPG,AFSA24.JPG,AFSA22.JPG,AFSA23.JPG,,,,,,,,,,,,,,,,,,,,,0,1,1,8,,,AMNE16.jpg,AMSA10.jpg,AMNE14.jpg,AMSA07.jpg,AMSA10.jpg,MS,2,num_6,16,num_6,1.3000577332,,,2018_Jan_10_1130,59.9936115466,FEMA4ImagesEEG,001,102726,
AFNE22.JPG,AFSA24.JPG,AFSA22.JPG,AFNE25.JPG,AFNE24.JPG,AFSA25.JPG,,,,,,,,,,,,,,,,,,,,,0,2,2,6,,,AMSA13.jpg,AMSA14.jpg,AMNE07.jpg,AMNE15.jpg,AMNE15.jpg,MN,1,num_4,16,num_4,0.916730119614,,,2018_Jan_10_1130,59.9936115466,FEMA4ImagesEEG,001,102726,
AMNE22.JPG,AMSA24.JPG,AMSA22.JPG,AMNE25.JPG,AMNE24.JPG,AMSA25.JPG,,,,,,,,,,,,,,,,,,,,,0,3,3,7,,,AMSA19.jpg,AMNE19.jpg,AMNE01.jpg,AMSA20.jpg,AMSA20.jpg,MS,2,num_4,16,num_4,0.983441155404,,,2018_Jan_10_1130,59.9936115466,FEMA4ImagesEEG,001,102726,
AMSA25.JPG,AMNE24.JPG,AMSA24.JPG,AMNE26.JPG,AMSA21.JPG,AMNE25.JPG,,,,,,,,,,,,,,,,,,,,,0,4,4,3,,,AMSA09.jpg,AMNE10.jpg,AMNE08.jpg,AMSA03.jpg,AMNE08.jpg,MN,1,num_2,32,num_6,0.766779673984,,,2018_Jan_10_1130,59.9936115466,FEMA4ImagesEEG,001,102726,
AMSA21.JPG,AMNE23.JPG,AMNE21.JPG,AMSA25.JPG,AMNE25.JPG,AMSA23.JPG,,,,,,,,,,,,,,,,,,,,,0,5,5,5,,,AMNE10.jpg,AMNE01.jpg,AMSA07.jpg,AMSA09.jpg,AMSA09.jpg,MS,2,num_4,32,num_2,1.15013968223,,,2018_Jan_10_1130,59.9936115466,FEMA4ImagesEEG,001,102726,
AFSA21.JPG,AFNE23.JPG,AFNE21.JPG,AFSA25.JPG,AFNE25.JPG,AFSA23.JPG,,,,,,,,,,,,,,,,,,,,,0,6,6,4,,,AMSA18.jpg,AMNE15.jpg,AMSA13.jpg,AMNE13.jpg,AMSA13.jpg,MS,2,num_2,16,num_2,1.06705005793,,,2018_Jan_10_1130,59.9936115466,FEMA4ImagesEEG,001,102726,
AMNE23.JPG,AMNE24.JPG,AMNE22.JPG,AMSA24.JPG,AMSA22.JPG,AMSA23.JPG,,,,,,,,,,,,,,,,,,,,,0,7,7,9,,,AMSA06.jpg,AMNE09.jpg,AMSA14.jpg,AMNE13.jpg,AMSA14.jpg,MS,2,num_2,16,num_2,0.933516368968,,,2018_Jan_10_1130,59.9936115466,FEMA4ImagesEEG,001,102726,
AMSA21.JPG,AMNE22.JPG,AMNE21.JPG,AMSA23.JPG,AMSA22.JPG,AMNE23.JPG,,,,,,,,,,,,,,,,,,,,,0,8,8,1,,,AMSA15.jpg,AMNE05.jpg,AMSA07.jpg,AMNE01.jpg,AMSA07.jpg,MS,2,num_2,16,num_2,1.06677005207,,,2018_Jan_10_1130,59.9936115466,FEMA4ImagesEEG,001,102726,
AFSA21.JPG,AFNE22.JPG,AFNE21.JPG,AFSA23.JPG,AFSA22.JPG,AFNE23.JPG,,,,,,,,,,,,,,,,,,,,,0,9,9,0,,,AMNE05.jpg,AMSA01.jpg,AMNE15.jpg,AMSA19.jpg,AMSA01.jpg,MS,2,num_6,16,num_6,0.900116107892,,,2018_Jan_10_1130,59.9936115466,FEMA4ImagesEEG,001,102726,
,,,,,,,,,,,,,,,,,,,,,,,,,,,,,,,,,,,,,,,,,,,space,6.23297848809,2018_Jan_10_1130,59.9936115466,FEMA4ImagesEEG,001,102726,
AFNE01.JPG,AFNE01.JPG,AFNE01.JPG,AFNE01.JPG,AFNE01.JPG,AFNE01.JPG,0,0,0,5,,,,,,,,,,,,,,,,,,,,,,,AFNE09.jpg,AFSA16.jpg,AFSA04.jpg,AFNE15.jpg,AFNE15.jpg,FN,3,num_4,32,num_8,1.31697933469,,,2018_Jan_10_1130,59.9936115466,FEMA4ImagesEEG,001,102726,
AFNE01.JPG,AFNE01.JPG,AFNE01.JPG,AFNE01.JPG,AFNE01.JPG,AFNE01.JPG,0,1,1,9,,,,,,,,,,,,,,,,,,,,,,,AFNE18.jpg,AFSA03.jpg,AFSA20.jpg,AFNE05.jpg,AFNE05.jpg,FN,3,num_4,16,num_4,1.03343329742,,,2018_Jan_10_1130,59.9936115466,FEMA4ImagesEEG,001,102726,
AFNE01.JPG,AFNE01.JPG,AFNE01.JPG,AFNE01.JPG,AFNE01.JPG,AFNE01.JPG,0,2,2,4,,,,,,,,,,,,,,,,,,,,,,,AFNE06.jpg,AFSA18.jpg,AFNE16.jpg,AFSA12.jpg,AFNE06.jpg,FN,3,num_8,16,num_8,1.20006671408,,,2018_Jan_10_1130,59.9936115466,FEMA4ImagesEEG,001,102726,
AFNE01.JPG,AFNE01.JPG,AFNE01.JPG,AFNE01.JPG,AFNE01.JPG,AFNE01.JPG,0,3,3,1,,,,,,,,,,,,,,,,,,,,,,,AFNE10.jpg,AFNE05.jpg,AFSA02.jpg,AFSA17.jpg,AFSA17.jpg,FS,4,num_4,16,num_4,0.966836124426,,,2018_Jan_10_1130,59.9936115466,FEMA4ImagesEEG,001,102726,
AFNE01.JPG,AFNE01.JPG,AFNE01.JPG,AFNE01.JPG,AFNE01.JPG,AFNE01.JPG,0,4,4,0,,,,,,,,,,,,,,,,,,,,,,,AFSA16.jpg,AFSA19.jpg,AFNE03.jpg,AFNE13.jpg,AFSA16.jpg,FS,4,num_8,32,num_6,1.25008676038,,,2018_Jan_10_1130,59.9936115466,FEMA4ImagesEEG,001,102726,
AFNE01.JPG,AFNE01.JPG,AFNE01.JPG,AFNE01.JPG,AFNE01.JPG,AFNE01.JPG,0,5,5,8,,,,,,,,,,,,,,,,,,,,,,,AFSA10.jpg,AFSA07.jpg,AFNE15.jpg,AFNE20.jpg,AFNE20.jpg,FN,3,num_4,16,num_4,0.766805653926,,,2018_Jan_10_1130,59.9936115466,FEMA4ImagesEEG,001,102726,
AFNE01.JPG,AFNE01.JPG,AFNE01.JPG,AFNE01.JPG,AFNE01.JPG,AFNE01.JPG,0,6,6,6,,,,,,,,,,,,,,,,,,,,,,,AFNE19.jpg,AFSA02.jpg,AFNE14.jpg,AFSA09.jpg,AFNE14.jpg,FN,3,num_2,32,num_8,1.43342110934,,,2018_Jan_10_1130,59.9936115466,FEMA4ImagesEEG,001,102726,
AFNE01.JPG,AFNE01.JPG,AFNE01.JPG,AFNE01.JPG,AFNE01.JPG,AFNE01.JPG,0,7,7,3,,,,,,,,,,,,,,,,,,,,,,,AFSA03.jpg,AFNE07.jpg,AFSA07.jpg,AFNE16.jpg,AFNE16.jpg,FN,3,num_4,16,num_4,1.43338775216,,,2018_Jan_10_1130,59.9936115466,FEMA4ImagesEEG,001,102726,
AFNE01.JPG,AFNE01.JPG,AFNE01.JPG,AFNE01.JPG,AFNE01.JPG,AFNE01.JPG,0,8,8,7,,,,,,,,,,,,,,,,,,,,,,,AFNE05.jpg,AFSA15.jpg,AFSA09.jpg,AFNE01.jpg,AFSA15.jpg,FS,4,num_6,32,num_8,1.30011129659,,,2018_Jan_10_1130,59.9936115466,FEMA4ImagesEEG,001,102726,
AFNE01.JPG,AFNE01.JPG,AFNE01.JPG,AFNE01.JPG,AFNE01.JPG,AFNE01.JPG,0,9,9,2,,,,,,,,,,,,,,,,,,,,,,,AFNE20.jpg,AFSA17.jpg,AFSA02.jpg,AFNE14.jpg,AFNE20.jpg,FN,3,num_8,32,num_4,0.916814153548,,,2018_Jan_10_1130,59.9936115466,FEMA4ImagesEEG,001,102726,
AFNE01.JPG,AFNE01.JPG,AFNE01.JPG,AFNE01.JPG,AFNE01.JPG,AFNE01.JPG,1,0,10,2,,,,,,,,,,,,,,,,,,,,,,,AFSA20.jpg,AFSA06.jpg,AFNE03.jpg,AFNE09.jpg,AFSA06.jpg,FS,4,num_6,32,num_8,0.800123484805,,,2018_Jan_10_1130,59.9936115466,FEMA4ImagesEEG,001,102726,
AFNE01.JPG,AFNE01.JPG,AFNE01.JPG,AFNE01.JPG,AFNE01.JPG,AFNE01.JPG,1,1,11,0,,,,,,,,,,,,,,,,,,,,,,,AFSA20.jpg,AFSA08.jpg,AFNE04.jpg,AFNE06.jpg,AFSA08.jpg,FS,4,num_6,16,num_6,0.900121560553,,,2018_Jan_10_1130,59.9936115466,FEMA4ImagesEEG,001,102726,
AFNE01.JPG,AFNE01.JPG,AFNE01.JPG,AFNE01.JPG,AFNE01.JPG,AFNE01.JPG,1,2,12,6,,,,,,,,,,,,,,,,,,,,,,,AFSA16.jpg,AFNE06.jpg,AFNE01.jpg,AFSA02.jpg,AFNE01.jpg,FN,3,num_2,16,num_2,0.983419024386,,,2018_Jan_10_1130,59.9936115466,FEMA4ImagesEEG,001,102726,
AFNE01.JPG,AFNE01.JPG,AFNE01.JPG,AFNE01.JPG,AFNE01.JPG,AFNE01.JPG,1,3,13,7,,,,,,,,,,,,,,,,,,,,,,,AFNE18.jpg,AFSA14.jpg,AFSA07.jpg,AFNE19.jpg,AFNE19.jpg,FN,3,num_4,16,num_4,0.66676042974,,,2018_Jan_10_1130,59.9936115466,FEMA4ImagesEEG,001,102726,
AFNE01.JPG,AFNE01.JPG,AFNE01.JPG,AFNE01.JPG,AFNE01.JPG,AFNE01.JPG,1,4,14,1,,,,,,,,,,,,,,,,,,,,,,,AFNE15.jpg,AFNE18.jpg,AFSA19.jpg,AFSA08.jpg,AFSA08.jpg,FS,4,num_4,32,num_8,0.950369973667,,,2018_Jan_10_1130,59.9936115466,FEMA4ImagesEEG,001,102726,
AFNE01.JPG,AFNE01.JPG,AFNE01.JPG,AFNE01.JPG,AFNE01.JPG,AFNE01.JPG,1,5,15,4,,,,,,,,,,,,,,,,,,,,,,,AFNE20.jpg,AFNE08.jpg,AFSA05.jpg,AFSA03.jpg,AFNE20.jpg,FN,3,num_8,32,num_6,1.61670927145,,,2018_Jan_10_1130,59.9936115466,FEMA4ImagesEEG,001,102726,
AFNE01.JPG,AFNE01.JPG,AFNE01.JPG,AFNE01.JPG,AFNE01.JPG,AFNE01.JPG,1,6,16,8,,,,,,,,,,,,,,,,,,,,,,,AFNE18.jpg,AFNE05.jpg,AFSA18.jpg,AFSA01.jpg,AFNE18.jpg,FN,3,num_8,16,num_8,1.11676636338,,,2018_Jan_10_1130,59.9936115466,FEMA4ImagesEEG,001,102726,
AFNE01.JPG,AFNE01.JPG,AFNE01.JPG,AFNE01.JPG,AFNE01.JPG,AFNE01.JPG,1,7,17,5,,,,,,,,,,,,,,,,,,,,,,,AFNE17.jpg,AFSA07.jpg,AFNE04.jpg,AFSA16.jpg,AFNE17.jpg,FN,3,num_8,32,num_2,1.23344965512,,,2018_Jan_10_1130,59.9936115466,FEMA4ImagesEEG,001,102726,
AFNE01.JPG,AFNE01.JPG,AFNE01.JPG,AFNE01.JPG,AFNE01.JPG,AFNE01.JPG,1,8,18,3,,,,,,,,,,,,,,,,,,,,,,,AFNE03.jpg,AFNE14.jpg,AFSA11.jpg,AFSA19.jpg,AFSA11.jpg,FS,4,num_2,16,num_2,1.05016405857,,,2018_Jan_10_1130,59.9936115466,FEMA4ImagesEEG,001,102726,
AFNE01.JPG,AFNE01.JPG,AFNE01.JPG,AFNE01.JPG,AFNE01.JPG,AFNE01.JPG,1,9,19,9,,,,,,,,,,,,,,,,,,,,,,,AFNE13.jpg,AFSA05.jpg,AFNE01.jpg,AFSA15.jpg,AFNE13.jpg,FN,3,num_8,16,num_8,0.733328736154,,,2018_Jan_10_1130,59.9936115466,FEMA4ImagesEEG,001,102726,
AFNE01.JPG,AFNE01.JPG,AFNE01.JPG,AFNE01.JPG,AFNE01.JPG,AFNE01.JPG,2,0,20,2,,,,,,,,,,,,,,,,,,,,,,,AFSA03.jpg,AFNE12.jpg,AFNE16.jpg,AFSA16.jpg,AFSA03.jpg,FS,4,num_8,16,num_8,2.26654874114,,,2018_Jan_10_1130,59.9936115466,FEMA4ImagesEEG,001,102726,
AFNE01.JPG,AFNE01.JPG,AFNE01.JPG,AFNE01.JPG,AFNE01.JPG,AFNE01.JPG,2,1,21,9,,,,,,,,,,,,,,,,,,,,,,,AFNE10.jpg,AFSA03.jpg,AFNE15.jpg,AFSA18.jpg,AFSA18.jpg,FS,4,num_4,16,num_4,1.03347210679,,,2018_Jan_10_1130,59.9936115466,FEMA4ImagesEEG,001,102726,
AFNE01.JPG,AFNE01.JPG,AFNE01.JPG,AFNE01.JPG,AFNE01.JPG,AFNE01.JPG,2,2,22,0,,,,,,,,,,,,,,,,,,,,,,,AFSA04.jpg,AFNE04.jpg,AFSA20.jpg,AFNE05.jpg,AFNE05.jpg,FN,3,num_4,16,num_4,1.10014497442,,,2018_Jan_10_1130,59.9936115466,FEMA4ImagesEEG,001,102726,
AFNE01.JPG,AFNE01.JPG,AFNE01.JPG,AFNE01.JPG,AFNE01.JPG,AFNE01.JPG,2,3,23,1,,,,,,,,,,,,,,,,,,,,,,,AFNE13.jpg,AFSA10.jpg,AFNE17.jpg,AFSA05.jpg,AFSA05.jpg,FS,4,num_4,16,num_4,0.666745034279,,,2018_Jan_10_1130,59.9936115466,FEMA4ImagesEEG,001,102726,
AFNE01.JPG,AFNE01.JPG,AFNE01.JPG,AFNE01.JPG,AFNE01.JPG,AFNE01.JPG,2,4,24,4,,,,,,,,,,,,,,,,,,,,,,,AFNE03.jpg,AFNE05.jpg,AFSA05.jpg,AFSA19.jpg,AFNE05.jpg,FN,3,num_6,16,num_6,1.08339464804,,,2018_Jan_10_1130,59.9936115466,FEMA4ImagesEEG,001,102726,
AFNE01.JPG,AFNE01.JPG,AFNE01.JPG,AFNE01.JPG,AFNE01.JPG,AFNE01.JPG,2,5,25,6,,,,,,,,,,,,,,,,,,,,,,,AFSA19.jpg,AFNE09.jpg,AFSA11.jpg,AFNE15.jpg,AFSA19.jpg,FS,4,num_8,16,num_8,1.11672338424,,,2018_Jan_10_1130,59.9936115466,FEMA4ImagesEEG,001,102726,
AFNE01.JPG,AFNE01.JPG,AFNE01.JPG,AFNE01.JPG,AFNE01.JPG,AFNE01.JPG,2,6,26,7,,,,,,,,,,,,,,,,,,,,,,,AFNE03.jpg,AFNE12.jpg,AFSA05.jpg,AFSA19.jpg,AFSA19.jpg,FS,4,num_4,32,num_2,0.833432335174,,,2018_Jan_10_1130,59.9936115466,FEMA4ImagesEEG,001,102726,
AFNE01.JPG,AFNE01.JPG,AFNE01.JPG,AFNE01.JPG,AFNE01.JPG,AFNE01.JPG,2,7,27,3,,,,,,,,,,,,,,,,,,,,,,,AFNE03.jpg,AFNE19.jpg,AFSA09.jpg,AFSA16.jpg,AFNE03.jpg,FN,3,num_8,16,num_8,1.01676540123,,,2018_Jan_10_1130,59.9936115466,FEMA4ImagesEEG,001,102726,
AFNE01.JPG,AFNE01.JPG,AFNE01.JPG,AFNE01.JPG,AFNE01.JPG,AFNE01.JPG,2,8,28,5,,,,,,,,,,,,,,,,,,,,,,,AFNE05.jpg,AFSA20.jpg,AFNE20.jpg,AFSA10.jpg,AFSA20.jpg,FS,4,num_6,16,num_6,1.66685376503,,,2018_Jan_10_1130,59.9936115466,FEMA4ImagesEEG,001,102726,
AFNE01.JPG,AFNE01.JPG,AFNE01.JPG,AFNE01.JPG,AFNE01.JPG,AFNE01.JPG,2,9,29,8,,,,,,,,,,,,,,,,,,,,,,,AFSA04.jpg,AFNE02.jpg,AFNE20.jpg,AFSA16.jpg,AFNE20.jpg,FN,3,num_2,16,num_2,1.00009622192,,,2018_Jan_10_1130,59.9936115466,FEMA4ImagesEEG,001,102726,
AFNE01.JPG,AFNE01.JPG,AFNE01.JPG,AFNE01.JPG,AFNE01.JPG,AFNE01.JPG,3,0,30,9,,,,,,,,,,,,,,,,,,,,,,,AFNE11.jpg,AFSA08.jpg,AFNE05.jpg,AFSA20.jpg,AFNE11.jpg,FN,3,num_8,16,num_8,1.18342928798,,,2018_Jan_10_1130,59.9936115466,FEMA4ImagesEEG,001,102726,
AFNE01.JPG,AFNE01.JPG,AFNE01.JPG,AFNE01.JPG,AFNE01.JPG,AFNE01.JPG,3,1,31,2,,,,,,,,,,,,,,,,,,,,,,,AFNE16.jpg,AFSA09.jpg,AFNE01.jpg,AFSA07.jpg,AFSA09.jpg,FS,4,num_6,32,num_2,2.18342543929,,,2018_Jan_10_1130,59.9936115466,FEMA4ImagesEEG,001,102726,
AFNE01.JPG,AFNE01.JPG,AFNE01.JPG,AFNE01.JPG,AFNE01.JPG,AFNE01.JPG,3,2,32,0,,,,,,,,,,,,,,,,,,,,,,,AFSA14.jpg,AFSA08.jpg,AFNE19.jpg,AFNE08.jpg,AFNE19.jpg,FN,3,num_2,16,num_2,1.08349600201,,,2018_Jan_10_1130,59.9936115466,FEMA4ImagesEEG,001,102726,
AFNE01.JPG,AFNE01.JPG,AFNE01.JPG,AFNE01.JPG,AFNE01.JPG,AFNE01.JPG,3,3,33,8,,,,,,,,,,,,,,,,,,,,,,,AFSA16.jpg,AFNE20.jpg,AFSA14.jpg,AFNE04.jpg,AFSA14.jpg,FS,4,num_2,16,num_2,1.0667755045,,,2018_Jan_10_1130,59.9936115466,FEMA4ImagesEEG,001,102726,
AFNE01.JPG,AFNE01.JPG,AFNE01.JPG,AFNE01.JPG,AFNE01.JPG,AFNE01.JPG,3,4,34,6,,,,,,,,,,,,,,,,,,,,,,,AFNE07.jpg,AFSA05.jpg,AFSA12.jpg,AFNE03.jpg,AFNE03.jpg,FN,3,num_4,16,num_4,0.866968269227,,,2018_Jan_10_1130,59.9936115466,FEMA4ImagesEEG,001,102726,
AFNE01.JPG,AFNE01.JPG,AFNE01.JPG,AFNE01.JPG,AFNE01.JPG,AFNE01.JPG,3,5,35,5,,,,,,,,,,,,,,,,,,,,,,,AFNE08.jpg,AFNE13.jpg,AFSA02.jpg,AFSA05.jpg,AFSA02.jpg,FS,4,num_2,16,num_2,1.18340234598,,,2018_Jan_10_1130,59.9936115466,FEMA4ImagesEEG,001,102726,
AFNE01.JPG,AFNE01.JPG,AFNE01.JPG,AFNE01.JPG,AFNE01.JPG,AFNE01.JPG,3,6,36,1,,,,,,,,,,,,,,,,,,,,,,,AFNE08.jpg,AFNE14.jpg,AFSA03.jpg,AFSA01.jpg,AFNE14.jpg,FN,3,num_6,16,num_6,0.783500171732,,,2018_Jan_10_1130,59.9936115466,FEMA4ImagesEEG,001,102726,
AFNE01.JPG,AFNE01.JPG,AFNE01.JPG,AFNE01.JPG,AFNE01.JPG,AFNE01.JPG,3,7,37,3,,,,,,,,,,,,,,,,,,,,,,,AFSA07.jpg,AFNE03.jpg,AFNE01.jpg,AFSA14.jpg,AFSA07.jpg,FS,4,num_8,16,num_8,1.00011161761,,,2018_Jan_10_1130,59.9936115466,FEMA4ImagesEEG,001,102726,
AFNE01.JPG,AFNE01.JPG,AFNE01.JPG,AFNE01.JPG,AFNE01.JPG,AFNE01.JPG,3,8,38,4,,,,,,,,,,,,,,,,,,,,,,,AFNE20.jpg,AFNE07.jpg,AFSA02.jpg,AFSA01.jpg,AFSA02.jpg,FS,4,num_2,32,num_4,0.833442919422,,,2018_Jan_10_1130,59.9936115466,FEMA4ImagesEEG,001,102726,
AFNE01.JPG,AFNE01.JPG,AFNE01.JPG,AFNE01.JPG,AFNE01.JPG,AFNE01.JPG,3,9,39,7,,,,,,,,,,,,,,,,,,,,,,,AFSA17.jpg,AFSA03.jpg,AFNE12.jpg,AFNE04.jpg,AFNE12.jpg,FN,3,num_2,16,num_2,0.683468097588,,,2018_Jan_10_1130,59.9936115466,FEMA4ImagesEEG,001,102726,
AFNE01.JPG,AFNE01.JPG,AFNE01.JPG,AFNE01.JPG,AFNE01.JPG,AFNE01.JPG,4,0,40,2,,,,,,,,,,,,,,,,,,,,,,,AFSA17.jpg,AFNE20.jpg,AFNE05.jpg,AFSA05.jpg,AFSA17.jpg,FS,4,num_8,16,num_8,1.0167798344,,,2018_Jan_10_1130,59.9936115466,FEMA4ImagesEEG,001,102726,
AFNE01.JPG,AFNE01.JPG,AFNE01.JPG,AFNE01.JPG,AFNE01.JPG,AFNE01.JPG,4,1,41,4,,,,,,,,,,,,,,,,,,,,,,,AFNE10.jpg,AFSA05.jpg,AFNE14.jpg,AFSA16.jpg,AFSA05.jpg,FS,4,num_6,16,num_6,0.866820408031,,,2018_Jan_10_1130,59.9936115466,FEMA4ImagesEEG,001,102726,
AFNE01.JPG,AFNE01.JPG,AFNE01.JPG,AFNE01.JPG,AFNE01.JPG,AFNE01.JPG,4,2,42,9,,,,,,,,,,,,,,,,,,,,,,,AFSA13.jpg,AFSA18.jpg,AFNE15.jpg,AFNE05.jpg,AFNE05.jpg,FN,3,num_4,32,num_2,1.16675465624,,,2018_Jan_10_1130,59.9936115466,FEMA4ImagesEEG,001,102726,
AFNE01.JPG,AFNE01.JPG,AFNE01.JPG,AFNE01.JPG,AFNE01.JPG,AFNE01.JPG,4,3,43,8,,,,,,,,,,,,,,,,,,,,,,,AFSA15.jpg,AFSA16.jpg,AFNE10.jpg,AFNE12.jpg,AFSA16.jpg,FS,4,num_6,16,num_6,0.783440193161,,,2018_Jan_10_1130,59.9936115466,FEMA4ImagesEEG,001,102726,
AFNE01.JPG,AFNE01.JPG,AFNE01.JPG,AFNE01.JPG,AFNE01.JPG,AFNE01.JPG,4,4,44,0,,,,,,,,,,,,,,,,,,,,,,,AFSA10.jpg,AFNE18.jpg,AFNE15.jpg,AFSA20.jpg,AFSA10.jpg,FS,4,num_8,16,num_8,0.86676684441,,,2018_Jan_10_1130,59.9936115466,FEMA4ImagesEEG,001,102726,
AFNE01.JPG,AFNE01.JPG,AFNE01.JPG,AFNE01.JPG,AFNE01.JPG,AFNE01.JPG,4,5,45,5,,,,,,,,,,,,,,,,,,,,,,,AFSA10.jpg,AFNE08.jpg,AFNE18.jpg,AFSA15.jpg,AFNE08.jpg,FN,3,num_6,16,num_6,0.966720978729,,,2018_Jan_10_1130,59.9936115466,FEMA4ImagesEEG,001,102726,
AFNE01.JPG,AFNE01.JPG,AFNE01.JPG,AFNE01.JPG,AFNE01.JPG,AFNE01.JPG,4,6,46,1,,,,,,,,,,,,,,,,,,,,,,,AFSA12.jpg,AFNE19.jpg,AFNE20.jpg,AFSA11.jpg,AFSA11.jpg,FS,4,num_4,16,num_4,1.10010135383,,,2018_Jan_10_1130,59.9936115466,FEMA4ImagesEEG,001,102726,
AFNE01.JPG,AFNE01.JPG,AFNE01.JPG,AFNE01.JPG,AFNE01.JPG,AFNE01.JPG,4,7,47,6,,,,,,,,,,,,,,,,,,,,,,,AFNE11.jpg,AFSA10.jpg,AFNE19.jpg,AFSA04.jpg,AFNE11.jpg,FN,3,num_8,16,num_8,1.0001552382,,,2018_Jan_10_1130,59.9936115466,FEMA4ImagesEEG,001,102726,
AFNE01.JPG,AFNE01.JPG,AFNE01.JPG,AFNE01.JPG,AFNE01.JPG,AFNE01.JPG,4,8,48,3,,,,,,,,,,,,,,,,,,,,,,,AFNE14.jpg,AFSA16.jpg,AFSA11.jpg,AFNE20.jpg,AFNE20.jpg,FN,3,num_4,32,num_8,0.933482370572,,,2018_Jan_10_1130,59.9936115466,FEMA4ImagesEEG,001,102726,
AFNE01.JPG,AFNE01.JPG,AFNE01.JPG,AFNE01.JPG,AFNE01.JPG,AFNE01.JPG,4,9,49,7,,,,,,,,,,,,,,,,,,,,,,,AFNE02.jpg,AFNE05.jpg,AFSA04.jpg,AFSA11.jpg,AFSA11.jpg,FS,4,num_4,16,num_4,1.50019436842,,,2018_Jan_10_1130,59.9936115466,FEMA4ImagesEEG,001,102726,
AFNE01.JPG,AFNE01.JPG,AFNE01.JPG,AFNE01.JPG,AFNE01.JPG,AFNE01.JPG,5,0,50,0,,,,,,,,,,,,,,,,,,,,,,,AFNE20.jpg,AFSA19.jpg,AFNE17.jpg,AFSA03.jpg,AFNE20.jpg,FN,3,num_8,16,num_8,0.933483332628,,,2018_Jan_10_1130,59.9936115466,FEMA4ImagesEEG,001,102726,
AFNE01.JPG,AFNE01.JPG,AFNE01.JPG,AFNE01.JPG,AFNE01.JPG,AFNE01.JPG,5,1,51,2,,,,,,,,,,,,,,,,,,,,,,,AFSA04.jpg,AFNE08.jpg,AFNE18.jpg,AFSA02.jpg,AFSA04.jpg,FS,4,num_8,16,num_8,1.11646358483,,,2018_Jan_10_1130,59.9936115466,FEMA4ImagesEEG,001,102726,
AFNE01.JPG,AFNE01.JPG,AFNE01.JPG,AFNE01.JPG,AFNE01.JPG,AFNE01.JPG,5,2,52,3,,,,,,,,,,,,,,,,,,,,,,,AFSA04.jpg,AFNE13.jpg,AFNE15.jpg,AFSA09.jpg,AFSA09.jpg,FS,4,num_4,16,num_4,0.78347387095,,,2018_Jan_10_1130,59.9936115466,FEMA4ImagesEEG,001,102726,
AFNE01.JPG,AFNE01.JPG,AFNE01.JPG,AFNE01.JPG,AFNE01.JPG,AFNE01.JPG,5,3,53,1,,,,,,,,,,,,,,,,,,,,,,,AFSA16.jpg,AFNE05.jpg,AFNE17.jpg,AFSA05.jpg,AFSA16.jpg,FS,4,num_8,16,num_8,0.733440032927,,,2018_Jan_10_1130,59.9936115466,FEMA4ImagesEEG,001,102726,
AFNE01.JPG,AFNE01.JPG,AFNE01.JPG,AFNE01.JPG,AFNE01.JPG,AFNE01.JPG,5,4,54,4,,,,,,,,,,,,,,,,,,,,,,,AFNE09.jpg,AFNE01.jpg,AFSA19.jpg,AFSA06.jpg,AFNE09.jpg,FN,3,num_8,16,num_8,0.950147380121,,,2018_Jan_10_1130,59.9936115466,FEMA4ImagesEEG,001,102726,
AFNE01.JPG,AFNE01.JPG,AFNE01.JPG,AFNE01.JPG,AFNE01.JPG,AFNE01.JPG,5,5,55,6,,,,,,,,,,,,,,,,,,,,,,,AFNE12.jpg,AFNE05.jpg,AFSA12.jpg,AFSA04.jpg,AFNE05.jpg,FN,3,num_6,32,num_8,0.850133588072,,,2018_Jan_10_1130,59.9936115466,FEMA4ImagesEEG,001,102726,
AFNE01.JPG,AFNE01.JPG,AFNE01.JPG,AFNE01.JPG,AFNE01.JPG,AFNE01.JPG,5,6,56,9,,,,,,,,,,,,,,,,,,,,,,,AFNE14.jpg,AFSA20.jpg,AFNE02.jpg,AFSA01.jpg,AFSA20.jpg,FS,4,num_6,32,num_2,1.18345687189,,,2018_Jan_10_1130,59.9936115466,FEMA4ImagesEEG,001,102726,
AFNE01.JPG,AFNE01.JPG,AFNE01.JPG,AFNE01.JPG,AFNE01.JPG,AFNE01.JPG,5,7,57,7,,,,,,,,,,,,,,,,,,,,,,,AFSA16.jpg,AFNE10.jpg,AFSA03.jpg,AFNE12.jpg,AFSA03.jpg,FS,4,num_2,16,num_2,0.8499469175,,,2018_Jan_10_1130,59.9936115466,FEMA4ImagesEEG,001,102726,
AFNE01.JPG,AFNE01.JPG,AFNE01.JPG,AFNE01.JPG,AFNE01.JPG,AFNE01.JPG,5,8,58,8,,,,,,,,,,,,,,,,,,,,,,,AFSA17.jpg,AFSA09.jpg,AFNE20.jpg,AFNE10.jpg,AFSA17.jpg,FS,4,num_8,32,num_6,1.10008852417,,,2018_Jan_10_1130,59.9936115466,FEMA4ImagesEEG,001,102726,
AFNE01.JPG,AFNE01.JPG,AFNE01.JPG,AFNE01.JPG,AFNE01.JPG,AFNE01.JPG,5,9,59,5,,,,,,,,,,,,,,,,,,,,,,,AFNE06.jpg,AFSA19.jpg,AFNE03.jpg,AFSA14.jpg,AFSA14.jpg,FS,4,num_4,32,num_6,0.916774381651,,,2018_Jan_10_1130,59.9936115466,FEMA4ImagesEEG,001,102726,
,,,,,,,,,,,,,,,,,,,,,,,,,,,,,,,,,,,,,,,,,,,space,4.74983016821,2018_Jan_10_1130,59.9936115466,FEMA4ImagesEEG,001,102726,
AFNE01.JPG,AFNE01.JPG,AFNE01.JPG,AFNE01.JPG,AFNE01.JPG,AFNE01.JPG,,,,,0,0,0,4,,,,,,,,,,,,,,,,,,,AMSA02.jpg,AMNE17.jpg,AMNE16.jpg,AMSA13.jpg,AMSA13.jpg,MS,2,num_4,32,num_8,1.40001764079,,,2018_Jan_10_1130,59.9936115466,FEMA4ImagesEEG,001,102726,
AFNE01.JPG,AFNE01.JPG,AFNE01.JPG,AFNE01.JPG,AFNE01.JPG,AFNE01.JPG,,,,,0,1,1,5,,,,,,,,,,,,,,,,,,,AMNE03.jpg,AMSA16.jpg,AMNE06.jpg,AMSA03.jpg,AMNE06.jpg,MN,1,num_2,16,num_2,0.800120598171,,,2018_Jan_10_1130,59.9936115466,FEMA4ImagesEEG,001,102726,
AFNE01.JPG,AFNE01.JPG,AFNE01.JPG,AFNE01.JPG,AFNE01.JPG,AFNE01.JPG,,,,,0,2,2,9,,,,,,,,,,,,,,,,,,,AMNE14.jpg,AMSA20.jpg,AMSA18.jpg,AMNE12.jpg,AMNE14.jpg,MN,1,num_8,16,num_8,1.41656878754,,,2018_Jan_10_1130,59.9936115466,FEMA4ImagesEEG,001,102726,
AFNE01.JPG,AFNE01.JPG,AFNE01.JPG,AFNE01.JPG,AFNE01.JPG,AFNE01.JPG,,,,,0,3,3,1,,,,,,,,,,,,,,,,,,,AMSA06.jpg,AMSA09.jpg,AMNE13.jpg,AMNE20.jpg,AMNE13.jpg,MN,1,num_2,16,num_2,0.850137436995,,,2018_Jan_10_1130,59.9936115466,FEMA4ImagesEEG,001,102726,
AFNE01.JPG,AFNE01.JPG,AFNE01.JPG,AFNE01.JPG,AFNE01.JPG,AFNE01.JPG,,,,,0,4,4,2,,,,,,,,,,,,,,,,,,,AMNE06.jpg,AMNE07.jpg,AMSA20.jpg,AMSA13.jpg,AMNE07.jpg,MN,1,num_6,32,num_8,0.983435061295,,,2018_Jan_10_1130,59.9936115466,FEMA4ImagesEEG,001,102726,
AFNE01.JPG,AFNE01.JPG,AFNE01.JPG,AFNE01.JPG,AFNE01.JPG,AFNE01.JPG,,,,,0,5,5,8,,,,,,,,,,,,,,,,,,,AMSA13.jpg,AMSA08.jpg,AMNE07.jpg,AMNE02.jpg,AMSA13.jpg,MS,2,num_8,16,num_8,0.666785447393,,,2018_Jan_10_1130,59.9936115466,FEMA4ImagesEEG,001,102726,
AFNE01.JPG,AFNE01.JPG,AFNE01.JPG,AFNE01.JPG,AFNE01.JPG,AFNE01.JPG,,,,,0,6,6,7,,,,,,,,,,,,,,,,,,,AMSA14.jpg,AMNE16.jpg,AMNE06.jpg,AMSA03.jpg,AMSA03.jpg,MS,2,num_4,16,num_4,1.06673348765,,,2018_Jan_10_1130,59.9936115466,FEMA4ImagesEEG,001,102726,
AFNE01.JPG,AFNE01.JPG,AFNE01.JPG,AFNE01.JPG,AFNE01.JPG,AFNE01.JPG,,,,,0,7,7,0,,,,,,,,,,,,,,,,,,,AMSA19.jpg,AMNE13.jpg,AMNE14.jpg,AMSA15.jpg,AMNE14.jpg,MN,1,num_2,16,num_2,1.5999916608,,,2018_Jan_10_1130,59.9936115466,FEMA4ImagesEEG,001,102726,
AFNE01.JPG,AFNE01.JPG,AFNE01.JPG,AFNE01.JPG,AFNE01.JPG,AFNE01.JPG,,,,,0,8,8,3,,,,,,,,,,,,,,,,,,,AMNE10.jpg,AMNE11.jpg,AMSA01.jpg,AMSA05.jpg,AMSA01.jpg,MS,2,num_2,16,num_2,0.900121560553,,,2018_Jan_10_1130,59.9936115466,FEMA4ImagesEEG,001,102726,
AFNE01.JPG,AFNE01.JPG,AFNE01.JPG,AFNE01.JPG,AFNE01.JPG,AFNE01.JPG,,,,,0,9,9,6,,,,,,,,,,,,,,,,,,,AMSA20.jpg,AMNE17.jpg,AMSA19.jpg,AMNE12.jpg,AMNE12.jpg,MN,1,num_4,16,num_4,0.933484294917,,,2018_Jan_10_1130,59.9936115466,FEMA4ImagesEEG,001,102726,
AFNE01.JPG,AFNE01.JPG,AFNE01.JPG,AFNE01.JPG,AFNE01.JPG,AFNE01.JPG,,,,,1,0,10,0,,,,,,,,,,,,,,,,,,,AMNE19.jpg,AMSA14.jpg,AMSA02.jpg,AMNE10.jpg,AMSA14.jpg,MS,2,num_6,32,num_4,1.31673813821,,,2018_Jan_10_1130,59.9936115466,FEMA4ImagesEEG,001,102726,
AFNE01.JPG,AFNE01.JPG,AFNE01.JPG,AFNE01.JPG,AFNE01.JPG,AFNE01.JPG,,,,,1,1,11,1,,,,,,,,,,,,,,,,,,,AMSA01.jpg,AMNE08.jpg,AMSA08.jpg,AMNE20.jpg,AMNE08.jpg,MN,1,num_6,16,num_6,0.900130861904,,,2018_Jan_10_1130,59.9936115466,FEMA4ImagesEEG,001,102726,
AFNE01.JPG,AFNE01.JPG,AFNE01.JPG,AFNE01.JPG,AFNE01.JPG,AFNE01.JPG,,,,,1,2,12,5,,,,,,,,,,,,,,,,,,,AMSA10.jpg,AMNE15.jpg,AMNE18.jpg,AMSA17.jpg,AMSA10.jpg,MS,2,num_8,16,num_8,1.14980579191,,,2018_Jan_10_1130,59.9936115466,FEMA4ImagesEEG,001,102726,
AFNE01.JPG,AFNE01.JPG,AFNE01.JPG,AFNE01.JPG,AFNE01.JPG,AFNE01.JPG,,,,,1,3,13,9,,,,,,,,,,,,,,,,,,,AMSA03.jpg,AMNE18.jpg,AMSA15.jpg,AMNE14.jpg,AMNE14.jpg,MN,1,num_4,16,num_4,0.866750807501,,,2018_Jan_10_1130,59.9936115466,FEMA4ImagesEEG,001,102726,
AFNE01.JPG,AFNE01.JPG,AFNE01.JPG,AFNE01.JPG,AFNE01.JPG,AFNE01.JPG,,,,,1,4,14,8,,,,,,,,,,,,,,,,,,,AMSA10.jpg,AMNE13.jpg,AMSA05.jpg,AMNE20.jpg,AMNE13.jpg,MN,1,num_6,16,num_6,0.716798758134,,,2018_Jan_10_1130,59.9936115466,FEMA4ImagesEEG,001,102726,
AFNE01.JPG,AFNE01.JPG,AFNE01.JPG,AFNE01.JPG,AFNE01.JPG,AFNE01.JPG,,,,,1,5,15,6,,,,,,,,,,,,,,,,,,,AMNE08.jpg,AMSA03.jpg,AMNE17.jpg,AMSA10.jpg,AMNE08.jpg,MN,1,num_8,16,num_8,0.866790579166,,,2018_Jan_10_1130,59.9936115466,FEMA4ImagesEEG,001,102726,
AFNE01.JPG,AFNE01.JPG,AFNE01.JPG,AFNE01.JPG,AFNE01.JPG,AFNE01.JPG,,,,,1,6,16,7,,,,,,,,,,,,,,,,,,,AMSA05.jpg,AMSA08.jpg,AMNE09.jpg,AMNE02.jpg,AMNE02.jpg,MN,1,num_4,16,num_4,0.933498407481,,,2018_Jan_10_1130,59.9936115466,FEMA4ImagesEEG,001,102726,
AFNE01.JPG,AFNE01.JPG,AFNE01.JPG,AFNE01.JPG,AFNE01.JPG,AFNE01.JPG,,,,,1,7,17,3,,,,,,,,,,,,,,,,,,,AMNE13.jpg,AMSA08.jpg,AMSA14.jpg,AMNE04.jpg,AMNE13.jpg,MN,1,num_8,32,num_6,1.10010167444,,,2018_Jan_10_1130,59.9936115466,FEMA4ImagesEEG,001,102726,
AFNE01.JPG,AFNE01.JPG,AFNE01.JPG,AFNE01.JPG,AFNE01.JPG,AFNE01.JPG,,,,,1,8,18,4,,,,,,,,,,,,,,,,,,,AMSA16.jpg,AMSA17.jpg,AMNE19.jpg,AMNE15.jpg,AMSA17.jpg,MS,2,num_6,16,num_6,0.700156200444,,,2018_Jan_10_1130,59.9936115466,FEMA4ImagesEEG,001,102726,
AFNE01.JPG,AFNE01.JPG,AFNE01.JPG,AFNE01.JPG,AFNE01.JPG,AFNE01.JPG,,,,,1,9,19,2,,,,,,,,,,,,,,,,,,,AMNE08.jpg,AMSA18.jpg,AMNE12.jpg,AMSA03.jpg,AMSA18.jpg,MS,2,num_6,32,num_4,2.20007473254,,,2018_Jan_10_1130,59.9936115466,FEMA4ImagesEEG,001,102726,
AFNE01.JPG,AFNE01.JPG,AFNE01.JPG,AFNE01.JPG,AFNE01.JPG,AFNE01.JPG,,,,,2,0,20,2,,,,,,,,,,,,,,,,,,,AMSA13.jpg,AMNE06.jpg,AMNE14.jpg,AMSA06.jpg,AMSA06.jpg,MS,2,num_4,32,num_8,1.1000715252,,,2018_Jan_10_1130,59.9936115466,FEMA4ImagesEEG,001,102726,
AFNE01.JPG,AFNE01.JPG,AFNE01.JPG,AFNE01.JPG,AFNE01.JPG,AFNE01.JPG,,,,,2,1,21,5,,,,,,,,,,,,,,,,,,,AMSA20.jpg,AMSA03.jpg,AMNE15.jpg,AMNE10.jpg,AMSA03.jpg,MS,2,num_6,16,num_6,0.633477880154,,,2018_Jan_10_1130,59.9936115466,FEMA4ImagesEEG,001,102726,
AFNE01.JPG,AFNE01.JPG,AFNE01.JPG,AFNE01.JPG,AFNE01.JPG,AFNE01.JPG,,,,,2,2,22,7,,,,,,,,,,,,,,,,,,,AMNE16.jpg,AMSA14.jpg,AMNE15.jpg,AMSA09.jpg,AMNE15.jpg,MN,1,num_2,16,num_2,0.783444683533,,,2018_Jan_10_1130,59.9936115466,FEMA4ImagesEEG,001,102726,
AFNE01.JPG,AFNE01.JPG,AFNE01.JPG,AFNE01.JPG,AFNE01.JPG,AFNE01.JPG,,,,,2,3,23,0,,,,,,,,,,,,,,,,,,,AMNE02.jpg,AMNE15.jpg,AMSA10.jpg,AMSA06.jpg,AMNE02.jpg,MN,1,num_8,32,num_6,0.933175743092,,,2018_Jan_10_1130,59.9936115466,FEMA4ImagesEEG,001,102726,
AFNE01.JPG,AFNE01.JPG,AFNE01.JPG,AFNE01.JPG,AFNE01.JPG,AFNE01.JPG,,,,,2,4,24,4,,,,,,,,,,,,,,,,,,,AMNE16.jpg,AMSA15.jpg,AMSA17.jpg,AMNE05.jpg,AMNE16.jpg,MN,1,num_8,16,num_8,0.716788173653,,,2018_Jan_10_1130,59.9936115466,FEMA4ImagesEEG,001,102726,
AFNE01.JPG,AFNE01.JPG,AFNE01.JPG,AFNE01.JPG,AFNE01.JPG,AFNE01.JPG,,,,,2,5,25,9,,,,,,,,,,,,,,,,,,,AMNE13.jpg,AMSA14.jpg,AMSA15.jpg,AMNE09.jpg,AMSA14.jpg,MS,2,num_6,16,num_6,0.866803408833,,,2018_Jan_10_1130,59.9936115466,FEMA4ImagesEEG,001,102726,
AFNE01.JPG,AFNE01.JPG,AFNE01.JPG,AFNE01.JPG,AFNE01.JPG,AFNE01.JPG,,,,,2,6,26,3,,,,,,,,,,,,,,,,,,,AMSA11.jpg,AMNE17.jpg,AMNE20.jpg,AMSA17.jpg,AMNE17.jpg,MN,1,num_6,32,num_2,1.40009590145,,,2018_Jan_10_1130,59.9936115466,FEMA4ImagesEEG,001,102726,
AFNE01.JPG,AFNE01.JPG,AFNE01.JPG,AFNE01.JPG,AFNE01.JPG,AFNE01.JPG,,,,,2,7,27,8,,,,,,,,,,,,,,,,,,,AMNE08.jpg,AMNE17.jpg,AMSA14.jpg,AMSA02.jpg,AMNE17.jpg,MN,1,num_6,32,num_4,1.45009189192,,,2018_Jan_10_1130,59.9936115466,FEMA4ImagesEEG,001,102726,
AFNE01.JPG,AFNE01.JPG,AFNE01.JPG,AFNE01.JPG,AFNE01.JPG,AFNE01.JPG,,,,,2,8,28,1,,,,,,,,,,,,,,,,,,,AMSA05.jpg,AMNE14.jpg,AMNE20.jpg,AMSA16.jpg,AMSA16.jpg,MS,2,num_4,16,num_4,0.983656692784,,,2018_Jan_10_1130,59.9936115466,FEMA4ImagesEEG,001,102726,
AFNE01.JPG,AFNE01.JPG,AFNE01.JPG,AFNE01.JPG,AFNE01.JPG,AFNE01.JPG,,,,,2,9,29,6,,,,,,,,,,,,,,,,,,,AMNE03.jpg,AMNE04.jpg,AMSA06.jpg,AMSA09.jpg,AMNE04.jpg,MN,1,num_6,16,num_6,0.68347771978,,,2018_Jan_10_1130,59.9936115466,FEMA4ImagesEEG,001,102726,
AFNE01.JPG,AFNE01.JPG,AFNE01.JPG,AFNE01.JPG,AFNE01.JPG,AFNE01.JPG,,,,,3,0,30,3,,,,,,,,,,,,,,,,,,,AMNE01.jpg,AMSA17.jpg,AMSA03.jpg,AMNE05.jpg,AMSA17.jpg,MS,2,num_6,16,num_6,0.799993264489,,,2018_Jan_10_1130,59.9936115466,FEMA4ImagesEEG,001,102726,
AFNE01.JPG,AFNE01.JPG,AFNE01.JPG,AFNE01.JPG,AFNE01.JPG,AFNE01.JPG,,,,,3,1,31,7,,,,,,,,,,,,,,,,,,,AMNE18.jpg,AMSA02.jpg,AMSA11.jpg,AMNE07.jpg,AMSA11.jpg,MS,2,num_2,16,num_2,0.766768127447,,,2018_Jan_10_1130,59.9936115466,FEMA4ImagesEEG,001,102726,
AFNE01.JPG,AFNE01.JPG,AFNE01.JPG,AFNE01.JPG,AFNE01.JPG,AFNE01.JPG,,,,,3,2,32,5,,,,,,,,,,,,,,,,,,,AMNE06.jpg,AMSA17.jpg,AMSA04.jpg,AMNE12.jpg,AMSA04.jpg,MS,2,num_2,16,num_2,0.766806295374,,,2018_Jan_10_1130,59.9936115466,FEMA4ImagesEEG,001,102726,
AFNE01.JPG,AFNE01.JPG,AFNE01.JPG,AFNE01.JPG,AFNE01.JPG,AFNE01.JPG,,,,,3,3,33,2,,,,,,,,,,,,,,,,,,,AMSA18.jpg,AMSA20.jpg,AMNE02.jpg,AMNE16.jpg,AMNE02.jpg,MN,1,num_2,32,num_4,1.25010440079,,,2018_Jan_10_1130,59.9936115466,FEMA4ImagesEEG,001,102726,
AFNE01.JPG,AFNE01.JPG,AFNE01.JPG,AFNE01.JPG,AFNE01.JPG,AFNE01.JPG,,,,,3,4,34,6,,,,,,,,,,,,,,,,,,,AMSA02.jpg,AMSA19.jpg,AMNE19.jpg,AMNE12.jpg,AMNE12.jpg,MN,1,num_4,16,num_4,1.1834161377,,,2018_Jan_10_1130,59.9936115466,FEMA4ImagesEEG,001,102726,
AFNE01.JPG,AFNE01.JPG,AFNE01.JPG,AFNE01.JPG,AFNE01.JPG,AFNE01.JPG,,,,,3,5,35,4,,,,,,,,,,,,,,,,,,,AMNE07.jpg,AMSA10.jpg,AMNE09.jpg,AMSA03.jpg,AMSA10.jpg,MS,2,num_6,32,num_4,0.783477719873,,,2018_Jan_10_1130,59.9936115466,FEMA4ImagesEEG,001,102726,
AFNE01.JPG,AFNE01.JPG,AFNE01.JPG,AFNE01.JPG,AFNE01.JPG,AFNE01.JPG,,,,,3,6,36,9,,,,,,,,,,,,,,,,,,,AMNE11.jpg,AMSA10.jpg,AMNE04.jpg,AMSA06.jpg,AMSA10.jpg,MS,2,num_6,16,num_6,0.700101353927,,,2018_Jan_10_1130,59.9936115466,FEMA4ImagesEEG,001,102726,
AFNE01.JPG,AFNE01.JPG,AFNE01.JPG,AFNE01.JPG,AFNE01.JPG,AFNE01.JPG,,,,,3,7,37,0,,,,,,,,,,,,,,,,,,,AMSA06.jpg,AMNE06.jpg,AMNE04.jpg,AMSA13.jpg,AMNE04.jpg,MN,1,num_2,32,num_8,0.917020710185,,,2018_Jan_10_1130,59.9936115466,FEMA4ImagesEEG,001,102726,
AFNE01.JPG,AFNE01.JPG,AFNE01.JPG,AFNE01.JPG,AFNE01.JPG,AFNE01.JPG,,,,,3,8,38,8,,,,,,,,,,,,,,,,,,,AMSA05.jpg,AMNE10.jpg,AMNE05.jpg,AMSA08.jpg,AMNE10.jpg,MN,1,num_6,16,num_6,0.683487662813,,,2018_Jan_10_1130,59.9936115466,FEMA4ImagesEEG,001,102726,
AFNE01.JPG,AFNE01.JPG,AFNE01.JPG,AFNE01.JPG,AFNE01.JPG,AFNE01.JPG,,,,,3,9,39,1,,,,,,,,,,,,,,,,,,,AMNE01.jpg,AMNE09.jpg,AMSA14.jpg,AMSA10.jpg,AMNE09.jpg,MN,1,num_6,16,num_6,0.900140804937,,,2018_Jan_10_1130,59.9936115466,FEMA4ImagesEEG,001,102726,
AFNE01.JPG,AFNE01.JPG,AFNE01.JPG,AFNE01.JPG,AFNE01.JPG,AFNE01.JPG,,,,,4,0,40,1,,,,,,,,,,,,,,,,,,,AMNE15.jpg,AMSA20.jpg,AMSA13.jpg,AMNE04.jpg,AMNE04.jpg,MN,1,num_4,16,num_4,0.850110494997,,,2018_Jan_10_1130,59.9936115466,FEMA4ImagesEEG,001,102726,
AFNE01.JPG,AFNE01.JPG,AFNE01.JPG,AFNE01.JPG,AFNE01.JPG,AFNE01.JPG,,,,,4,1,41,3,,,,,,,,,,,,,,,,,,,AMNE12.jpg,AMNE18.jpg,AMSA08.jpg,AMSA05.jpg,AMNE12.jpg,MN,1,num_8,16,num_8,0.96674150601,,,2018_Jan_10_1130,59.9936115466,FEMA4ImagesEEG,001,102726,
AFNE01.JPG,AFNE01.JPG,AFNE01.JPG,AFNE01.JPG,AFNE01.JPG,AFNE01.JPG,,,,,4,2,42,9,,,,,,,,,,,,,,,,,,,AMSA15.jpg,AMNE02.jpg,AMSA06.jpg,AMNE05.jpg,AMNE02.jpg,MN,1,num_6,32,num_4,1.03345157928,,,2018_Jan_10_1130,59.9936115466,FEMA4ImagesEEG,001,102726,
AFNE01.JPG,AFNE01.JPG,AFNE01.JPG,AFNE01.JPG,AFNE01.JPG,AFNE01.JPG,,,,,4,3,43,4,,,,,,,,,,,,,,,,,,,AMSA09.jpg,AMNE01.jpg,AMNE14.jpg,AMSA01.jpg,AMNE01.jpg,MN,1,num_6,16,num_6,0.600111617474,,,2018_Jan_10_1130,59.9936115466,FEMA4ImagesEEG,001,102726,
AFNE01.JPG,AFNE01.JPG,AFNE01.JPG,AFNE01.JPG,AFNE01.JPG,AFNE01.JPG,,,,,4,4,44,2,,,,,,,,,,,,,,,,,,,AMNE15.jpg,AMSA10.jpg,AMNE09.jpg,AMSA17.jpg,AMSA10.jpg,MS,2,num_6,16,num_6,0.683425759897,,,2018_Jan_10_1130,59.9936115466,FEMA4ImagesEEG,001,102726,
AFNE01.JPG,AFNE01.JPG,AFNE01.JPG,AFNE01.JPG,AFNE01.JPG,AFNE01.JPG,,,,,4,5,45,6,,,,,,,,,,,,,,,,,,,AMNE02.jpg,AMSA15.jpg,AMSA07.jpg,AMNE11.jpg,AMNE02.jpg,MN,1,num_8,32,num_4,1.41670253617,,,2018_Jan_10_1130,59.9936115466,FEMA4ImagesEEG,001,102726,
AFNE01.JPG,AFNE01.JPG,AFNE01.JPG,AFNE01.JPG,AFNE01.JPG,AFNE01.JPG,,,,,4,6,46,8,,,,,,,,,,,,,,,,,,,AMNE19.jpg,AMSA13.jpg,AMSA10.jpg,AMNE11.jpg,AMNE19.jpg,MN,1,num_8,16,num_8,0.716766363475,,,2018_Jan_10_1130,59.9936115466,FEMA4ImagesEEG,001,102726,
AFNE01.JPG,AFNE01.JPG,AFNE01.JPG,AFNE01.JPG,AFNE01.JPG,AFNE01.JPG,,,,,4,7,47,0,,,,,,,,,,,,,,,,,,,AMSA17.jpg,AMNE04.jpg,AMNE09.jpg,AMSA15.jpg,AMNE04.jpg,MN,1,num_6,16,num_6,0.683485738467,,,2018_Jan_10_1130,59.9936115466,FEMA4ImagesEEG,001,102726,
AFNE01.JPG,AFNE01.JPG,AFNE01.JPG,AFNE01.JPG,AFNE01.JPG,AFNE01.JPG,,,,,4,8,48,7,,,,,,,,,,,,,,,,,,,AMSA12.jpg,AMNE01.jpg,AMSA02.jpg,AMNE12.jpg,AMNE12.jpg,MN,1,num_4,16,num_4,1.03353946214,,,2018_Jan_10_1130,59.9936115466,FEMA4ImagesEEG,001,102726,
AFNE01.JPG,AFNE01.JPG,AFNE01.JPG,AFNE01.JPG,AFNE01.JPG,AFNE01.JPG,,,,,4,9,49,5,,,,,,,,,,,,,,,,,,,AMNE18.jpg,AMSA17.jpg,AMSA20.jpg,AMNE17.jpg,AMNE17.jpg,MN,1,num_4,32,num_6,1.31674006279,,,2018_Jan_10_1130,59.9936115466,FEMA4ImagesEEG,001,102726,
AFNE01.JPG,AFNE01.JPG,AFNE01.JPG,AFNE01.JPG,AFNE01.JPG,AFNE01.JPG,,,,,5,0,50,0,,,,,,,,,,,,,,,,,,,AMNE20.jpg,AMNE19.jpg,AMSA10.jpg,AMSA14.jpg,AMNE19.jpg,MN,1,num_6,16,num_6,0.733591743046,,,2018_Jan_10_1130,59.9936115466,FEMA4ImagesEEG,001,102726,
AFNE01.JPG,AFNE01.JPG,AFNE01.JPG,AFNE01.JPG,AFNE01.JPG,AFNE01.JPG,,,,,5,1,51,3,,,,,,,,,,,,,,,,,,,AMNE20.jpg,AMSA01.jpg,AMNE06.jpg,AMSA20.jpg,AMSA01.jpg,MS,2,num_6,16,num_6,1.4834895872,,,2018_Jan_10_1130,59.9936115466,FEMA4ImagesEEG,001,102726,
AFNE01.JPG,AFNE01.JPG,AFNE01.JPG,AFNE01.JPG,AFNE01.JPG,AFNE01.JPG,,,,,5,2,52,4,,,,,,,,,,,,,,,,,,,AMSA09.jpg,AMNE11.jpg,AMSA16.jpg,AMNE20.jpg,AMSA16.jpg,MS,2,num_2,32,num_8,0.933517651865,,,2018_Jan_10_1130,59.9936115466,FEMA4ImagesEEG,001,102726,
AFNE01.JPG,AFNE01.JPG,AFNE01.JPG,AFNE01.JPG,AFNE01.JPG,AFNE01.JPG,,,,,5,3,53,8,,,,,,,,,,,,,,,,,,,AMSA09.jpg,AMNE14.jpg,AMNE02.jpg,AMSA03.jpg,AMSA09.jpg,MS,2,num_8,16,num_8,0.600111938315,,,2018_Jan_10_1130,59.9936115466,FEMA4ImagesEEG,001,102726,
AFNE01.JPG,AFNE01.JPG,AFNE01.JPG,AFNE01.JPG,AFNE01.JPG,AFNE01.JPG,,,,,5,4,54,7,,,,,,,,,,,,,,,,,,,AMSA18.jpg,AMNE06.jpg,AMNE08.jpg,AMSA04.jpg,AMNE06.jpg,MN,1,num_6,16,num_6,0.933535934193,,,2018_Jan_10_1130,59.9936115466,FEMA4ImagesEEG,001,102726,
AFNE01.JPG,AFNE01.JPG,AFNE01.JPG,AFNE01.JPG,AFNE01.JPG,AFNE01.JPG,,,,,5,5,55,6,,,,,,,,,,,,,,,,,,,AMNE15.jpg,AMSA19.jpg,AMNE18.jpg,AMSA08.jpg,AMSA08.jpg,MS,2,num_4,32,num_6,0.683516208548,,,2018_Jan_10_1130,59.9936115466,FEMA4ImagesEEG,001,102726,
AFNE01.JPG,AFNE01.JPG,AFNE01.JPG,AFNE01.JPG,AFNE01.JPG,AFNE01.JPG,,,,,5,6,56,1,,,,,,,,,,,,,,,,,,,AMNE03.jpg,AMSA03.jpg,AMNE08.jpg,AMSA04.jpg,AMSA03.jpg,MS,2,num_6,32,num_4,0.533471144736,,,2018_Jan_10_1130,59.9936115466,FEMA4ImagesEEG,001,102726,
AFNE01.JPG,AFNE01.JPG,AFNE01.JPG,AFNE01.JPG,AFNE01.JPG,AFNE01.JPG,,,,,5,7,57,2,,,,,,,,,,,,,,,,,,,AMNE03.jpg,AMSA18.jpg,AMNE12.jpg,AMSA09.jpg,AMSA09.jpg,MS,2,num_4,32,num_8,1.13341469434,,,2018_Jan_10_1130,59.9936115466,FEMA4ImagesEEG,001,102726,
AFNE01.JPG,AFNE01.JPG,AFNE01.JPG,AFNE01.JPG,AFNE01.JPG,AFNE01.JPG,,,,,5,8,58,9,,,,,,,,,,,,,,,,,,,AMNE20.jpg,AMSA13.jpg,AMNE05.jpg,AMSA19.jpg,AMSA19.jpg,MS,2,num_4,32,num_8,1.55010215566,,,2018_Jan_10_1130,59.9936115466,FEMA4ImagesEEG,001,102726,
AFNE01.JPG,AFNE01.JPG,AFNE01.JPG,AFNE01.JPG,AFNE01.JPG,AFNE01.JPG,,,,,5,9,59,5,,,,,,,,,,,,,,,,,,,AMNE19.jpg,AMSA04.jpg,AMSA15.jpg,AMNE05.jpg,AMSA04.jpg,MS,2,num_6,16,num_6,0.983462965814,,,2018_Jan_10_1130,59.9936115466,FEMA4ImagesEEG,001,102726,
,,,,,,,,,,,,,,,,,,,,,,,,,,,,,,,,,,,,,,,,,,,space,3.91680068267,2018_Jan_10_1130,59.9936115466,FEMA4ImagesEEG,001,102726,
AFNE01.JPG,AFNE01.JPG,AFNE01.JPG,AFNE01.JPG,AFNE01.JPG,AFNE01.JPG,,,,,,,,,0,0,0,6,,,,,,,,,,,,,,,AFSA12.jpg,AFSA18.jpg,AFNE04.jpg,AFNE19.jpg,AFSA18.jpg,FS,4,num_6,16,num_6,0.816775023239,,,2018_Jan_10_1130,59.9936115466,FEMA4ImagesEEG,001,102726,
AFNE01.JPG,AFNE01.JPG,AFNE01.JPG,AFNE01.JPG,AFNE01.JPG,AFNE01.JPG,,,,,,,,,0,1,1,3,,,,,,,,,,,,,,,AFNE07.jpg,AFSA20.jpg,AFSA18.jpg,AFNE02.jpg,AFSA18.jpg,FS,4,num_2,16,num_2,0.766889046412,,,2018_Jan_10_1130,59.9936115466,FEMA4ImagesEEG,001,102726,
AFNE01.JPG,AFNE01.JPG,AFNE01.JPG,AFNE01.JPG,AFNE01.JPG,AFNE01.JPG,,,,,,,,,0,2,2,9,,,,,,,,,,,,,,,AFNE20.jpg,AFNE06.jpg,AFSA09.jpg,AFSA02.jpg,AFNE06.jpg,FN,3,num_6,16,num_6,0.950127814896,,,2018_Jan_10_1130,59.9936115466,FEMA4ImagesEEG,001,102726,
AFNE01.JPG,AFNE01.JPG,AFNE01.JPG,AFNE01.JPG,AFNE01.JPG,AFNE01.JPG,,,,,,,,,0,3,3,1,,,,,,,,,,,,,,,AFSA07.jpg,AFNE11.jpg,AFNE10.jpg,AFSA10.jpg,AFNE11.jpg,FN,3,num_6,16,num_6,0.733462484553,,,2018_Jan_10_1130,59.9936115466,FEMA4ImagesEEG,001,102726,
AFNE01.JPG,AFNE01.JPG,AFNE01.JPG,AFNE01.JPG,AFNE01.JPG,AFNE01.JPG,,,,,,,,,0,4,4,7,,,,,,,,,,,,,,,AFNE02.jpg,AFSA19.jpg,AFNE05.jpg,AFSA03.jpg,AFNE02.jpg,FN,3,num_8,16,num_8,0.816731723491,,,2018_Jan_10_1130,59.9936115466,FEMA4ImagesEEG,001,102726,
AFNE01.JPG,AFNE01.JPG,AFNE01.JPG,AFNE01.JPG,AFNE01.JPG,AFNE01.JPG,,,,,,,,,0,5,5,0,,,,,,,,,,,,,,,AFSA02.jpg,AFNE15.jpg,AFNE06.jpg,AFSA12.jpg,AFSA12.jpg,FS,4,num_4,16,num_4,0.783466173103,,,2018_Jan_10_1130,59.9936115466,FEMA4ImagesEEG,001,102726,
AFNE01.JPG,AFNE01.JPG,AFNE01.JPG,AFNE01.JPG,AFNE01.JPG,AFNE01.JPG,,,,,,,,,0,6,6,8,,,,,,,,,,,,,,,AFNE08.jpg,AFSA12.jpg,AFNE20.jpg,AFSA08.jpg,AFSA08.jpg,FS,4,num_4,16,num_4,1.35012396611,,,2018_Jan_10_1130,59.9936115466,FEMA4ImagesEEG,001,102726,
AFNE01.JPG,AFNE01.JPG,AFNE01.JPG,AFNE01.JPG,AFNE01.JPG,AFNE01.JPG,,,,,,,,,0,7,7,5,,,,,,,,,,,,,,,AFSA14.jpg,AFSA02.jpg,AFNE10.jpg,AFNE09.jpg,AFNE09.jpg,FN,3,num_4,16,num_4,0.899824555265,,,2018_Jan_10_1130,59.9936115466,FEMA4ImagesEEG,001,102726,
AFNE01.JPG,AFNE01.JPG,AFNE01.JPG,AFNE01.JPG,AFNE01.JPG,AFNE01.JPG,,,,,,,,,0,8,8,4,,,,,,,,,,,,,,,AFNE16.jpg,AFSA13.jpg,AFSA15.jpg,AFNE12.jpg,AFSA15.jpg,FS,4,num_2,16,num_2,1.18344436283,,,2018_Jan_10_1130,59.9936115466,FEMA4ImagesEEG,001,102726,
AFNE01.JPG,AFNE01.JPG,AFNE01.JPG,AFNE01.JPG,AFNE01.JPG,AFNE01.JPG,,,,,,,,,0,9,9,2,,,,,,,,,,,,,,,AFSA05.jpg,AFNE04.jpg,AFNE20.jpg,AFSA01.jpg,AFSA01.jpg,FS,4,num_4,32,num_8,1.05013807863,,,2018_Jan_10_1130,59.9936115466,FEMA4ImagesEEG,001,102726,
AFNE01.JPG,AFNE01.JPG,AFNE01.JPG,AFNE01.JPG,AFNE01.JPG,AFNE01.JPG,,,,,,,,,1,0,10,2,,,,,,,,,,,,,,,AFNE01.jpg,AFNE17.jpg,AFSA19.jpg,AFSA12.jpg,AFNE17.jpg,FN,3,num_6,32,num_8,1.03341244929,,,2018_Jan_10_1130,59.9936115466,FEMA4ImagesEEG,001,102726,
AFNE01.JPG,AFNE01.JPG,AFNE01.JPG,AFNE01.JPG,AFNE01.JPG,AFNE01.JPG,,,,,,,,,1,1,11,1,,,,,,,,,,,,,,,AFSA13.jpg,AFSA03.jpg,AFNE03.jpg,AFNE02.jpg,AFNE03.jpg,FN,3,num_2,16,num_2,1.11676604254,,,2018_Jan_10_1130,59.9936115466,FEMA4ImagesEEG,001,102726,
AFNE01.JPG,AFNE01.JPG,AFNE01.JPG,AFNE01.JPG,AFNE01.JPG,AFNE01.JPG,,,,,,,,,1,2,12,4,,,,,,,,,,,,,,,AFSA11.jpg,AFNE15.jpg,AFNE05.jpg,AFSA02.jpg,AFSA02.jpg,FS,4,num_4,16,num_4,1.38339015772,,,2018_Jan_10_1130,59.9936115466,FEMA4ImagesEEG,001,102726,
AFNE01.JPG,AFNE01.JPG,AFNE01.JPG,AFNE01.JPG,AFNE01.JPG,AFNE01.JPG,,,,,,,,,1,3,13,0,,,,,,,,,,,,,,,AFSA02.jpg,AFNE13.jpg,AFNE12.jpg,AFSA14.jpg,AFNE12.jpg,FN,3,num_2,16,num_2,0.816624596249,,,2018_Jan_10_1130,59.9936115466,FEMA4ImagesEEG,001,102726,
AFNE01.JPG,AFNE01.JPG,AFNE01.JPG,AFNE01.JPG,AFNE01.JPG,AFNE01.JPG,,,,,,,,,1,4,14,5,,,,,,,,,,,,,,,AFNE19.jpg,AFSA12.jpg,AFNE04.jpg,AFSA06.jpg,AFNE04.jpg,FN,3,num_2,32,num_6,0.850135833491,,,2018_Jan_10_1130,59.9936115466,FEMA4ImagesEEG,001,102726,
AFNE01.JPG,AFNE01.JPG,AFNE01.JPG,AFNE01.JPG,AFNE01.JPG,AFNE01.JPG,,,,,,,,,1,5,15,8,,,,,,,,,,,,,,,AFNE11.jpg,AFNE09.jpg,AFSA20.jpg,AFSA19.jpg,AFSA20.jpg,FS,4,num_2,32,num_4,0.800109051634,,,2018_Jan_10_1130,59.9936115466,FEMA4ImagesEEG,001,102726,
AFNE01.JPG,AFNE01.JPG,AFNE01.JPG,AFNE01.JPG,AFNE01.JPG,AFNE01.JPG,,,,,,,,,1,6,16,3,,,,,,,,,,,,,,,AFNE09.jpg,AFSA10.jpg,AFSA17.jpg,AFNE07.jpg,AFNE09.jpg,FN,3,num_8,32,num_6,1.08344340068,,,2018_Jan_10_1130,59.9936115466,FEMA4ImagesEEG,001,102726,
AFNE01.JPG,AFNE01.JPG,AFNE01.JPG,AFNE01.JPG,AFNE01.JPG,AFNE01.JPG,,,,,,,,,1,7,17,9,,,,,,,,,,,,,,,AFNE03.jpg,AFSA03.jpg,AFSA19.jpg,AFNE13.jpg,AFSA19.jpg,FS,4,num_2,16,num_2,0.73348172917,,,2018_Jan_10_1130,59.9936115466,FEMA4ImagesEEG,001,102726,
AFNE01.JPG,AFNE01.JPG,AFNE01.JPG,AFNE01.JPG,AFNE01.JPG,AFNE01.JPG,,,,,,,,,1,8,18,7,,,,,,,,,,,,,,,AFNE18.jpg,AFNE12.jpg,AFSA04.jpg,AFSA16.jpg,AFNE18.jpg,FN,3,num_8,16,num_8,0.850124607328,,,2018_Jan_10_1130,59.9936115466,FEMA4ImagesEEG,001,102726,
AFNE01.JPG,AFNE01.JPG,AFNE01.JPG,AFNE01.JPG,AFNE01.JPG,AFNE01.JPG,,,,,,,,,1,9,19,6,,,,,,,,,,,,,,,AFSA14.jpg,AFNE03.jpg,AFSA19.jpg,AFNE20.jpg,AFSA14.jpg,FS,4,num_8,16,num_8,1.05013647489,,,2018_Jan_10_1130,59.9936115466,FEMA4ImagesEEG,001,102726,
AFNE01.JPG,AFNE01.JPG,AFNE01.JPG,AFNE01.JPG,AFNE01.JPG,AFNE01.JPG,,,,,,,,,2,0,20,0,,,,,,,,,,,,,,,AFSA17.jpg,AFSA18.jpg,AFNE10.jpg,AFNE16.jpg,AFSA18.jpg,FS,4,num_6,16,num_6,0.716802286217,,,2018_Jan_10_1130,59.9936115466,FEMA4ImagesEEG,001,102726,
AFNE01.JPG,AFNE01.JPG,AFNE01.JPG,AFNE01.JPG,AFNE01.JPG,AFNE01.JPG,,,,,,,,,2,1,21,3,,,,,,,,,,,,,,,AFSA08.jpg,AFSA16.jpg,AFNE13.jpg,AFNE11.jpg,AFSA16.jpg,FS,4,num_6,16,num_6,0.650119796395,,,2018_Jan_10_1130,59.9936115466,FEMA4ImagesEEG,001,102726,
AFNE01.JPG,AFNE01.JPG,AFNE01.JPG,AFNE01.JPG,AFNE01.JPG,AFNE01.JPG,,,,,,,,,2,2,22,9,,,,,,,,,,,,,,,AFNE04.jpg,AFSA10.jpg,AFNE15.jpg,AFSA09.jpg,AFNE15.jpg,FN,3,num_2,16,num_2,0.716768287821,,,2018_Jan_10_1130,59.9936115466,FEMA4ImagesEEG,001,102726,
AFNE01.JPG,AFNE01.JPG,AFNE01.JPG,AFNE01.JPG,AFNE01.JPG,AFNE01.JPG,,,,,,,,,2,3,23,2,,,,,,,,,,,,,,,AFSA01.jpg,AFNE14.jpg,AFNE02.jpg,AFSA14.jpg,AFNE14.jpg,FN,3,num_6,32,num_4,1.08313645236,,,2018_Jan_10_1130,59.9936115466,FEMA4ImagesEEG,001,102726,
AFNE01.JPG,AFNE01.JPG,AFNE01.JPG,AFNE01.JPG,AFNE01.JPG,AFNE01.JPG,,,,,,,,,2,4,24,5,,,,,,,,,,,,,,,AFSA10.jpg,AFNE02.jpg,AFSA20.jpg,AFNE08.jpg,AFSA10.jpg,FS,4,num_8,32,num_4,1.10011386289,,,2018_Jan_10_1130,59.9936115466,FEMA4ImagesEEG,001,102726,
AFNE01.JPG,AFNE01.JPG,AFNE01.JPG,AFNE01.JPG,AFNE01.JPG,AFNE01.JPG,,,,,,,,,2,5,25,7,,,,,,,,,,,,,,,AFNE02.jpg,AFNE20.jpg,AFSA14.jpg,AFSA10.jpg,AFNE02.jpg,FN,3,num_8,32,num_6,1.36675625993,,,2018_Jan_10_1130,59.9936115466,FEMA4ImagesEEG,001,102726,
AFNE01.JPG,AFNE01.JPG,AFNE01.JPG,AFNE01.JPG,AFNE01.JPG,AFNE01.JPG,,,,,,,,,2,6,26,4,,,,,,,,,,,,,,,AFSA16.jpg,AFSA02.jpg,AFNE16.jpg,AFNE13.jpg,AFNE16.jpg,FN,3,num_2,16,num_2,1.95005853497,,,2018_Jan_10_1130,59.9936115466,FEMA4ImagesEEG,001,102726,
AFNE01.JPG,AFNE01.JPG,AFNE01.JPG,AFNE01.JPG,AFNE01.JPG,AFNE01.JPG,,,,,,,,,2,7,27,8,,,,,,,,,,,,,,,AFNE13.jpg,AFSA14.jpg,AFNE07.jpg,AFSA13.jpg,AFNE13.jpg,FN,3,num_8,32,num_2,1.3500764966,,,2018_Jan_10_1130,59.9936115466,FEMA4ImagesEEG,001,102726,
AFNE01.JPG,AFNE01.JPG,AFNE01.JPG,AFNE01.JPG,AFNE01.JPG,AFNE01.JPG,,,,,,,,,2,8,28,6,,,,,,,,,,,,,,,AFNE12.jpg,AFSA17.jpg,AFSA06.jpg,AFNE19.jpg,AFNE19.jpg,FN,3,num_4,16,num_4,0.983434419846,,,2018_Jan_10_1130,59.9936115466,FEMA4ImagesEEG,001,102726,
AFNE01.JPG,AFNE01.JPG,AFNE01.JPG,AFNE01.JPG,AFNE01.JPG,AFNE01.JPG,,,,,,,,,2,9,29,1,,,,,,,,,,,,,,,AFSA14.jpg,AFNE20.jpg,AFSA15.jpg,AFNE16.jpg,AFSA15.jpg,FS,4,num_2,16,num_2,1.11647962173,,,2018_Jan_10_1130,59.9936115466,FEMA4ImagesEEG,001,102726,
AFNE01.JPG,AFNE01.JPG,AFNE01.JPG,AFNE01.JPG,AFNE01.JPG,AFNE01.JPG,,,,,,,,,3,0,30,8,,,,,,,,,,,,,,,AFNE12.jpg,AFSA17.jpg,AFSA12.jpg,AFNE05.jpg,AFNE05.jpg,FN,3,num_4,32,num_6,1.00014689891,,,2018_Jan_10_1130,59.9936115466,FEMA4ImagesEEG,001,102726,
AFNE01.JPG,AFNE01.JPG,AFNE01.JPG,AFNE01.JPG,AFNE01.JPG,AFNE01.JPG,,,,,,,,,3,1,31,5,,,,,,,,,,,,,,,AFSA01.jpg,AFNE06.jpg,AFSA05.jpg,AFNE07.jpg,AFSA05.jpg,FS,4,num_2,16,num_2,0.816775985528,,,2018_Jan_10_1130,59.9936115466,FEMA4ImagesEEG,001,102726,
AFNE01.JPG,AFNE01.JPG,AFNE01.JPG,AFNE01.JPG,AFNE01.JPG,AFNE01.JPG,,,,,,,,,3,2,32,3,,,,,,,,,,,,,,,AFSA07.jpg,AFNE18.jpg,AFSA10.jpg,AFNE02.jpg,AFNE02.jpg,FN,3,num_4,16,num_4,1.33365011751,,,2018_Jan_10_1130,59.9936115466,FEMA4ImagesEEG,001,102726,
AFNE01.JPG,AFNE01.JPG,AFNE01.JPG,AFNE01.JPG,AFNE01.JPG,AFNE01.JPG,,,,,,,,,3,3,33,9,,,,,,,,,,,,,,,AFSA13.jpg,AFNE09.jpg,AFSA10.jpg,AFNE16.jpg,AFSA10.jpg,FS,4,num_2,16,num_2,1.06673477055,,,2018_Jan_10_1130,59.9936115466,FEMA4ImagesEEG,001,102726,
AFNE01.JPG,AFNE01.JPG,AFNE01.JPG,AFNE01.JPG,AFNE01.JPG,AFNE01.JPG,,,,,,,,,3,4,34,4,,,,,,,,,,,,,,,AFSA12.jpg,AFNE07.jpg,AFNE17.jpg,AFSA08.jpg,AFNE07.jpg,FN,3,num_6,16,num_6,0.600092052249,,,2018_Jan_10_1130,59.9936115466,FEMA4ImagesEEG,001,102726,
AFNE01.JPG,AFNE01.JPG,AFNE01.JPG,AFNE01.JPG,AFNE01.JPG,AFNE01.JPG,,,,,,,,,3,5,35,6,,,,,,,,,,,,,,,AFSA16.jpg,AFNE19.jpg,AFNE02.jpg,AFSA14.jpg,AFSA16.jpg,FS,4,num_8,16,num_8,1.18343474064,,,2018_Jan_10_1130,59.9936115466,FEMA4ImagesEEG,001,102726,
AFNE01.JPG,AFNE01.JPG,AFNE01.JPG,AFNE01.JPG,AFNE01.JPG,AFNE01.JPG,,,,,,,,,3,6,36,0,,,,,,,,,,,,,,,AFSA05.jpg,AFNE16.jpg,AFNE07.jpg,AFSA17.jpg,AFSA17.jpg,FS,4,num_4,32,num_6,1.00012861681,,,2018_Jan_10_1130,59.9936115466,FEMA4ImagesEEG,001,102726,
AFNE01.JPG,AFNE01.JPG,AFNE01.JPG,AFNE01.JPG,AFNE01.JPG,AFNE01.JPG,,,,,,,,,3,7,37,7,,,,,,,,,,,,,,,AFNE07.jpg,AFSA08.jpg,AFSA02.jpg,AFNE03.jpg,AFNE07.jpg,FN,3,num_8,16,num_8,0.866755618481,,,2018_Jan_10_1130,59.9936115466,FEMA4ImagesEEG,001,102726,
AFNE01.JPG,AFNE01.JPG,AFNE01.JPG,AFNE01.JPG,AFNE01.JPG,AFNE01.JPG,,,,,,,,,3,8,38,1,,,,,,,,,,,,,,,AFSA10.jpg,AFNE08.jpg,AFNE10.jpg,AFSA13.jpg,AFNE10.jpg,FN,3,num_2,32,num_8,1.13348108763,,,2018_Jan_10_1130,59.9936115466,FEMA4ImagesEEG,001,102726,
AFNE01.JPG,AFNE01.JPG,AFNE01.JPG,AFNE01.JPG,AFNE01.JPG,AFNE01.JPG,,,,,,,,,3,9,39,2,,,,,,,,,,,,,,,AFSA13.jpg,AFNE09.jpg,AFSA03.jpg,AFNE05.jpg,AFSA03.jpg,FS,4,num_2,16,num_2,1.06677422137,,,2018_Jan_10_1130,59.9936115466,FEMA4ImagesEEG,001,102726,
AFNE01.JPG,AFNE01.JPG,AFNE01.JPG,AFNE01.JPG,AFNE01.JPG,AFNE01.JPG,,,,,,,,,4,0,40,1,,,,,,,,,,,,,,,AFSA19.jpg,AFNE10.jpg,AFNE12.jpg,AFSA20.jpg,AFNE10.jpg,FN,3,num_6,16,num_6,0.749834337737,,,2018_Jan_10_1130,59.9936115466,FEMA4ImagesEEG,001,102726,
AFNE01.JPG,AFNE01.JPG,AFNE01.JPG,AFNE01.JPG,AFNE01.JPG,AFNE01.JPG,,,,,,,,,4,1,41,8,,,,,,,,,,,,,,,AFNE04.jpg,AFSA02.jpg,AFNE16.jpg,AFSA14.jpg,AFNE04.jpg,FN,3,num_8,16,num_8,1.03341437364,,,2018_Jan_10_1130,59.9936115466,FEMA4ImagesEEG,001,102726,
AFNE01.JPG,AFNE01.JPG,AFNE01.JPG,AFNE01.JPG,AFNE01.JPG,AFNE01.JPG,,,,,,,,,4,2,42,5,,,,,,,,,,,,,,,AFNE16.jpg,AFNE09.jpg,AFSA15.jpg,AFSA07.jpg,AFSA15.jpg,FS,4,num_2,16,num_2,1.73339384631,,,2018_Jan_10_1130,59.9936115466,FEMA4ImagesEEG,001,102726,
AFNE01.JPG,AFNE01.JPG,AFNE01.JPG,AFNE01.JPG,AFNE01.JPG,AFNE01.JPG,,,,,,,,,4,3,43,3,,,,,,,,,,,,,,,AFNE18.jpg,AFSA01.jpg,AFNE11.jpg,AFSA11.jpg,AFSA01.jpg,FS,4,num_6,16,num_6,0.967025361024,,,2018_Jan_10_1130,59.9936115466,FEMA4ImagesEEG,001,102726,
AFNE01.JPG,AFNE01.JPG,AFNE01.JPG,AFNE01.JPG,AFNE01.JPG,AFNE01.JPG,,,,,,,,,4,4,44,7,,,,,,,,,,,,,,,AFNE10.jpg,AFSA11.jpg,AFSA12.jpg,AFNE02.jpg,AFSA11.jpg,FS,4,num_6,16,num_6,1.65003768681,,,2018_Jan_10_1130,59.9936115466,FEMA4ImagesEEG,001,102726,
AFNE01.JPG,AFNE01.JPG,AFNE01.JPG,AFNE01.JPG,AFNE01.JPG,AFNE01.JPG,,,,,,,,,4,5,45,0,,,,,,,,,,,,,,,AFSA10.jpg,AFNE12.jpg,AFSA18.jpg,AFNE11.jpg,AFNE12.jpg,FN,3,num_6,16,num_6,0.633460560348,,,2018_Jan_10_1130,59.9936115466,FEMA4ImagesEEG,001,102726,
AFNE01.JPG,AFNE01.JPG,AFNE01.JPG,AFNE01.JPG,AFNE01.JPG,AFNE01.JPG,,,,,,,,,4,6,46,9,,,,,,,,,,,,,,,AFNE04.jpg,AFSA09.jpg,AFNE07.jpg,AFSA06.jpg,AFNE04.jpg,FN,3,num_8,16,num_8,1.46671712981,,,2018_Jan_10_1130,59.9936115466,FEMA4ImagesEEG,001,102726,
AFNE01.JPG,AFNE01.JPG,AFNE01.JPG,AFNE01.JPG,AFNE01.JPG,AFNE01.JPG,,,,,,,,,4,7,47,6,,,,,,,,,,,,,,,AFSA15.jpg,AFSA09.jpg,AFNE12.jpg,AFNE03.jpg,AFNE03.jpg,FN,3,num_4,16,num_4,1.16680308804,,,2018_Jan_10_1130,59.9936115466,FEMA4ImagesEEG,001,102726,
AFNE01.JPG,AFNE01.JPG,AFNE01.JPG,AFNE01.JPG,AFNE01.JPG,AFNE01.JPG,,,,,,,,,4,8,48,4,,,,,,,,,,,,,,,AFSA16.jpg,AFNE05.jpg,AFSA14.jpg,AFNE20.jpg,AFSA16.jpg,FS,4,num_8,16,num_8,1.36684735003,,,2018_Jan_10_1130,59.9936115466,FEMA4ImagesEEG,001,102726,
AFNE01.JPG,AFNE01.JPG,AFNE01.JPG,AFNE01.JPG,AFNE01.JPG,AFNE01.JPG,,,,,,,,,4,9,49,2,,,,,,,,,,,,,,,AFSA06.jpg,AFSA02.jpg,AFNE06.jpg,AFNE01.jpg,AFNE06.jpg,FN,3,num_2,16,num_2,0.916688423604,,,2018_Jan_10_1130,59.9936115466,FEMA4ImagesEEG,001,102726,
AFNE01.JPG,AFNE01.JPG,AFNE01.JPG,AFNE01.JPG,AFNE01.JPG,AFNE01.JPG,,,,,,,,,5,0,50,3,,,,,,,,,,,,,,,AFNE08.jpg,AFSA05.jpg,AFSA06.jpg,AFNE13.jpg,AFNE13.jpg,FN,3,num_4,32,num_2,1.06701638037,,,2018_Jan_10_1130,59.9936115466,FEMA4ImagesEEG,001,102726,
AFNE01.JPG,AFNE01.JPG,AFNE01.JPG,AFNE01.JPG,AFNE01.JPG,AFNE01.JPG,,,,,,,,,5,1,51,9,,,,,,,,,,,,,,,AFSA19.jpg,AFNE02.jpg,AFSA02.jpg,AFNE15.jpg,AFSA02.jpg,FS,4,num_2,32,num_8,0.933431052137,,,2018_Jan_10_1130,59.9936115466,FEMA4ImagesEEG,001,102726,
AFNE01.JPG,AFNE01.JPG,AFNE01.JPG,AFNE01.JPG,AFNE01.JPG,AFNE01.JPG,,,,,,,,,5,2,52,2,,,,,,,,,,,,,,,AFSA13.jpg,AFNE20.jpg,AFNE19.jpg,AFSA05.jpg,AFNE19.jpg,FN,3,num_2,16,num_2,1.16677486291,,,2018_Jan_10_1130,59.9936115466,FEMA4ImagesEEG,001,102726,
AFNE01.JPG,AFNE01.JPG,AFNE01.JPG,AFNE01.JPG,AFNE01.JPG,AFNE01.JPG,,,,,,,,,5,3,53,0,,,,,,,,,,,,,,,AFNE15.jpg,AFNE14.jpg,AFSA20.jpg,AFSA08.jpg,AFSA08.jpg,FS,4,num_4,32,num_2,0.88342575985,,,2018_Jan_10_1130,59.9936115466,FEMA4ImagesEEG,001,102726,
AFNE01.JPG,AFNE01.JPG,AFNE01.JPG,AFNE01.JPG,AFNE01.JPG,AFNE01.JPG,,,,,,,,,5,4,54,1,,,,,,,,,,,,,,,AFNE06.jpg,AFSA15.jpg,AFSA12.jpg,AFNE17.jpg,AFSA15.jpg,FS,4,num_6,16,num_6,1.30011418345,,,2018_Jan_10_1130,59.9936115466,FEMA4ImagesEEG,001,102726,
AFNE01.JPG,AFNE01.JPG,AFNE01.JPG,AFNE01.JPG,AFNE01.JPG,AFNE01.JPG,,,,,,,,,5,5,55,6,,,,,,,,,,,,,,,AFSA06.jpg,AFNE19.jpg,AFNE01.jpg,AFSA18.jpg,AFSA18.jpg,FS,4,num_4,16,num_4,0.649996952852,,,2018_Jan_10_1130,59.9936115466,FEMA4ImagesEEG,001,102726,
AFNE01.JPG,AFNE01.JPG,AFNE01.JPG,AFNE01.JPG,AFNE01.JPG,AFNE01.JPG,,,,,,,,,5,6,56,8,,,,,,,,,,,,,,,AFSA15.jpg,AFNE09.jpg,AFNE05.jpg,AFSA14.jpg,AFSA15.jpg,FS,4,num_8,16,num_8,1.03344837204,,,2018_Jan_10_1130,59.9936115466,FEMA4ImagesEEG,001,102726,
AFNE01.JPG,AFNE01.JPG,AFNE01.JPG,AFNE01.JPG,AFNE01.JPG,AFNE01.JPG,,,,,,,,,5,7,57,7,,,,,,,,,,,,,,,AFNE11.jpg,AFNE12.jpg,AFSA18.jpg,AFSA15.jpg,AFNE11.jpg,FN,3,num_8,16,num_8,0.716826020973,,,2018_Jan_10_1130,59.9936115466,FEMA4ImagesEEG,001,102726,
AFNE01.JPG,AFNE01.JPG,AFNE01.JPG,AFNE01.JPG,AFNE01.JPG,AFNE01.JPG,,,,,,,,,5,8,58,4,,,,,,,,,,,,,,,AFSA06.jpg,AFNE12.jpg,AFSA10.jpg,AFNE01.jpg,AFSA10.jpg,FS,4,num_2,16,num_2,0.816761231516,,,2018_Jan_10_1130,59.9936115466,FEMA4ImagesEEG,001,102726,
AFNE01.JPG,AFNE01.JPG,AFNE01.JPG,AFNE01.JPG,AFNE01.JPG,AFNE01.JPG,,,,,,,,,5,9,59,5,,,,,,,,,,,,,,,AFSA05.jpg,AFSA15.jpg,AFNE07.jpg,AFNE03.jpg,AFSA15.jpg,FS,4,num_6,32,num_8,0.700129899662,,,2018_Jan_10_1130,59.9936115466,FEMA4ImagesEEG,001,102726,
,,,,,,,,,,,,,,,,,,,,,,,,,,,,,,,,,,,,,,,,,,,space,3.66651474289,2018_Jan_10_1130,59.9936115466,FEMA4ImagesEEG,001,102726,
AFNE01.JPG,AFNE01.JPG,AFNE01.JPG,AFNE01.JPG,AFNE01.JPG,AFNE01.JPG,,,,,,,,,,,,,0,0,0,1,,,,,,,,,,,AMNE13.jpg,AMNE14.jpg,AMSA13.jpg,AMSA15.jpg,AMSA15.jpg,MS,2,num_4,16,num_4,0.633601685753,,,2018_Jan_10_1130,59.9936115466,FEMA4ImagesEEG,001,102726,
AFNE01.JPG,AFNE01.JPG,AFNE01.JPG,AFNE01.JPG,AFNE01.JPG,AFNE01.JPG,,,,,,,,,,,,,0,1,1,6,,,,,,,,,,,AMSA17.jpg,AMSA19.jpg,AMNE16.jpg,AMNE10.jpg,AMNE10.jpg,MN,1,num_4,16,num_4,0.916448830627,,,2018_Jan_10_1130,59.9936115466,FEMA4ImagesEEG,001,102726,
AFNE01.JPG,AFNE01.JPG,AFNE01.JPG,AFNE01.JPG,AFNE01.JPG,AFNE01.JPG,,,,,,,,,,,,,0,2,2,5,,,,,,,,,,,AMNE17.jpg,AMNE14.jpg,AMSA09.jpg,AMSA15.jpg,AMSA15.jpg,MS,2,num_4,16,num_4,0.683496002108,,,2018_Jan_10_1130,59.9936115466,FEMA4ImagesEEG,001,102726,
AFNE01.JPG,AFNE01.JPG,AFNE01.JPG,AFNE01.JPG,AFNE01.JPG,AFNE01.JPG,,,,,,,,,,,,,0,3,3,7,,,,,,,,,,,AMNE17.jpg,AMNE03.jpg,AMSA15.jpg,AMSA03.jpg,AMNE17.jpg,MN,1,num_8,16,num_8,0.650183623657,,,2018_Jan_10_1130,59.9936115466,FEMA4ImagesEEG,001,102726,
AFNE01.JPG,AFNE01.JPG,AFNE01.JPG,AFNE01.JPG,AFNE01.JPG,AFNE01.JPG,,,,,,,,,,,,,0,4,4,2,,,,,,,,,,,AMSA13.jpg,AMNE05.jpg,AMSA07.jpg,AMNE06.jpg,AMSA13.jpg,MS,2,num_8,16,num_8,0.983442438301,,,2018_Jan_10_1130,59.9936115466,FEMA4ImagesEEG,001,102726,
AFNE01.JPG,AFNE01.JPG,AFNE01.JPG,AFNE01.JPG,AFNE01.JPG,AFNE01.JPG,,,,,,,,,,,,,0,5,5,8,,,,,,,,,,,AMSA02.jpg,AMNE19.jpg,AMNE04.jpg,AMSA20.jpg,AMSA02.jpg,MS,2,num_8,16,num_8,1.35010408005,,,2018_Jan_10_1130,59.9936115466,FEMA4ImagesEEG,001,102726,
AFNE01.JPG,AFNE01.JPG,AFNE01.JPG,AFNE01.JPG,AFNE01.JPG,AFNE01.JPG,,,,,,,,,,,,,0,6,6,9,,,,,,,,,,,AMNE04.jpg,AMNE05.jpg,AMSA12.jpg,AMSA14.jpg,AMNE05.jpg,MN,1,num_6,16,num_6,0.766761391889,,,2018_Jan_10_1130,59.9936115466,FEMA4ImagesEEG,001,102726,
AFNE01.JPG,AFNE01.JPG,AFNE01.JPG,AFNE01.JPG,AFNE01.JPG,AFNE01.JPG,,,,,,,,,,,,,0,7,7,3,,,,,,,,,,,AMNE03.jpg,AMNE01.jpg,AMSA11.jpg,AMSA19.jpg,AMNE03.jpg,MN,1,num_8,16,num_8,1.46669948893,,,2018_Jan_10_1130,59.9936115466,FEMA4ImagesEEG,001,102726,
AFNE01.JPG,AFNE01.JPG,AFNE01.JPG,AFNE01.JPG,AFNE01.JPG,AFNE01.JPG,,,,,,,,,,,,,0,8,8,0,,,,,,,,,,,AMNE04.jpg,AMSA15.jpg,AMSA11.jpg,AMNE01.jpg,AMSA15.jpg,MS,2,num_6,16,num_6,0.833475634921,,,2018_Jan_10_1130,59.9936115466,FEMA4ImagesEEG,001,102726,
AFNE01.JPG,AFNE01.JPG,AFNE01.JPG,AFNE01.JPG,AFNE01.JPG,AFNE01.JPG,,,,,,,,,,,,,0,9,9,4,,,,,,,,,,,AMSA02.jpg,AMNE04.jpg,AMSA17.jpg,AMNE20.jpg,AMNE20.jpg,MN,1,num_4,32,num_8,0.7667604296,,,2018_Jan_10_1130,59.9936115466,FEMA4ImagesEEG,001,102726,
AFNE01.JPG,AFNE01.JPG,AFNE01.JPG,AFNE01.JPG,AFNE01.JPG,AFNE01.JPG,,,,,,,,,,,,,1,0,10,8,,,,,,,,,,,AMSA07.jpg,AMNE16.jpg,AMNE02.jpg,AMSA10.jpg,AMSA10.jpg,MS,2,num_4,32,num_6,0.716749684885,,,2018_Jan_10_1130,59.9936115466,FEMA4ImagesEEG,001,102726,
AFNE01.JPG,AFNE01.JPG,AFNE01.JPG,AFNE01.JPG,AFNE01.JPG,AFNE01.JPG,,,,,,,,,,,,,1,1,11,9,,,,,,,,,,,AMNE12.jpg,AMSA19.jpg,AMSA17.jpg,AMNE13.jpg,AMSA17.jpg,MS,2,num_2,32,num_4,1.88338117697,,,2018_Jan_10_1130,59.9936115466,FEMA4ImagesEEG,001,102726,
AFNE01.JPG,AFNE01.JPG,AFNE01.JPG,AFNE01.JPG,AFNE01.JPG,AFNE01.JPG,,,,,,,,,,,,,1,2,12,6,,,,,,,,,,,AMSA11.jpg,AMNE01.jpg,AMNE05.jpg,AMSA20.jpg,AMSA11.jpg,MS,2,num_8,32,num_2,1.56641210592,,,2018_Jan_10_1130,59.9936115466,FEMA4ImagesEEG,001,102726,
AFNE01.JPG,AFNE01.JPG,AFNE01.JPG,AFNE01.JPG,AFNE01.JPG,AFNE01.JPG,,,,,,,,,,,,,1,3,13,1,,,,,,,,,,,AMNE11.jpg,AMSA12.jpg,AMSA04.jpg,AMNE15.jpg,AMSA12.jpg,MS,2,num_6,32,num_8,1.15008579777,,,2018_Jan_10_1130,59.9936115466,FEMA4ImagesEEG,001,102726,
AFNE01.JPG,AFNE01.JPG,AFNE01.JPG,AFNE01.JPG,AFNE01.JPG,AFNE01.JPG,,,,,,,,,,,,,1,4,14,4,,,,,,,,,,,AMSA03.jpg,AMNE05.jpg,AMNE01.jpg,AMSA07.jpg,AMSA07.jpg,MS,2,num_4,16,num_4,1.46673316672,,,2018_Jan_10_1130,59.9936115466,FEMA4ImagesEEG,001,102726,
AFNE01.JPG,AFNE01.JPG,AFNE01.JPG,AFNE01.JPG,AFNE01.JPG,AFNE01.JPG,,,,,,,,,,,,,1,5,15,7,,,,,,,,,,,AMNE13.jpg,AMSA07.jpg,AMNE17.jpg,AMSA03.jpg,AMNE17.jpg,MN,1,num_2,32,num_8,1.16672803508,,,2018_Jan_10_1130,59.9936115466,FEMA4ImagesEEG,001,102726,
AFNE01.JPG,AFNE01.JPG,AFNE01.JPG,AFNE01.JPG,AFNE01.JPG,AFNE01.JPG,,,,,,,,,,,,,1,6,16,3,,,,,,,,,,,AMNE02.jpg,AMSA13.jpg,AMSA10.jpg,AMNE12.jpg,AMSA13.jpg,MS,2,num_6,16,num_6,0.650036403909,,,2018_Jan_10_1130,59.9936115466,FEMA4ImagesEEG,001,102726,
AFNE01.JPG,AFNE01.JPG,AFNE01.JPG,AFNE01.JPG,AFNE01.JPG,AFNE01.JPG,,,,,,,,,,,,,1,7,17,5,,,,,,,,,,,AMNE06.jpg,AMNE11.jpg,AMSA20.jpg,AMSA19.jpg,AMNE06.jpg,MN,1,num_8,32,num_6,1.9166682167,,,2018_Jan_10_1130,59.9936115466,FEMA4ImagesEEG,001,102726,
AFNE01.JPG,AFNE01.JPG,AFNE01.JPG,AFNE01.JPG,AFNE01.JPG,AFNE01.JPG,,,,,,,,,,,,,1,8,18,0,,,,,,,,,,,AMSA03.jpg,AMSA20.jpg,AMNE08.jpg,AMNE16.jpg,AMNE16.jpg,MN,1,num_4,16,num_4,1.05009991047,,,2018_Jan_10_1130,59.9936115466,FEMA4ImagesEEG,001,102726,
AFNE01.JPG,AFNE01.JPG,AFNE01.JPG,AFNE01.JPG,AFNE01.JPG,AFNE01.JPG,,,,,,,,,,,,,1,9,19,2,,,,,,,,,,,AMSA03.jpg,AMNE02.jpg,AMNE13.jpg,AMSA16.jpg,AMNE13.jpg,MN,1,num_2,16,num_2,0.850223716348,,,2018_Jan_10_1130,59.9936115466,FEMA4ImagesEEG,001,102726,
AFNE01.JPG,AFNE01.JPG,AFNE01.JPG,AFNE01.JPG,AFNE01.JPG,AFNE01.JPG,,,,,,,,,,,,,2,0,20,7,,,,,,,,,,,AMNE08.jpg,AMNE12.jpg,AMSA08.jpg,AMSA07.jpg,AMNE12.jpg,MN,1,num_6,16,num_6,1.43341854331,,,2018_Jan_10_1130,59.9936115466,FEMA4ImagesEEG,001,102726,
AFNE01.JPG,AFNE01.JPG,AFNE01.JPG,AFNE01.JPG,AFNE01.JPG,AFNE01.JPG,,,,,,,,,,,,,2,1,21,3,,,,,,,,,,,AMSA12.jpg,AMSA13.jpg,AMNE15.jpg,AMNE03.jpg,AMNE15.jpg,MN,1,num_2,16,num_2,0.916740062647,,,2018_Jan_10_1130,59.9936115466,FEMA4ImagesEEG,001,102726,
AFNE01.JPG,AFNE01.JPG,AFNE01.JPG,AFNE01.JPG,AFNE01.JPG,AFNE01.JPG,,,,,,,,,,,,,2,2,22,2,,,,,,,,,,,AMSA02.jpg,AMSA15.jpg,AMNE01.jpg,AMNE14.jpg,AMSA02.jpg,MS,2,num_8,32,num_2,1.31673396868,,,2018_Jan_10_1130,59.9936115466,FEMA4ImagesEEG,001,102726,
AFNE01.JPG,AFNE01.JPG,AFNE01.JPG,AFNE01.JPG,AFNE01.JPG,AFNE01.JPG,,,,,,,,,,,,,2,3,23,8,,,,,,,,,,,AMSA13.jpg,AMNE04.jpg,AMSA02.jpg,AMNE03.jpg,AMNE04.jpg,MN,1,num_6,32,num_4,1.26676556142,,,2018_Jan_10_1130,59.9936115466,FEMA4ImagesEEG,001,102726,
AFNE01.JPG,AFNE01.JPG,AFNE01.JPG,AFNE01.JPG,AFNE01.JPG,AFNE01.JPG,,,,,,,,,,,,,2,4,24,6,,,,,,,,,,,AMNE07.jpg,AMSA19.jpg,AMSA05.jpg,AMNE19.jpg,AMNE07.jpg,MN,1,num_8,16,num_8,1.55007393053,,,2018_Jan_10_1130,59.9936115466,FEMA4ImagesEEG,001,102726,
AFNE01.JPG,AFNE01.JPG,AFNE01.JPG,AFNE01.JPG,AFNE01.JPG,AFNE01.JPG,,,,,,,,,,,,,2,5,25,0,,,,,,,,,,,AMSA05.jpg,AMNE12.jpg,AMNE09.jpg,AMSA19.jpg,AMSA05.jpg,MS,2,num_8,16,num_8,0.800177369034,,,2018_Jan_10_1130,59.9936115466,FEMA4ImagesEEG,001,102726,
AFNE01.JPG,AFNE01.JPG,AFNE01.JPG,AFNE01.JPG,AFNE01.JPG,AFNE01.JPG,,,,,,,,,,,,,2,6,26,4,,,,,,,,,,,AMNE03.jpg,AMSA07.jpg,AMSA18.jpg,AMNE13.jpg,AMNE03.jpg,MN,1,num_8,32,num_4,0.866771655623,,,2018_Jan_10_1130,59.9936115466,FEMA4ImagesEEG,001,102726,
AFNE01.JPG,AFNE01.JPG,AFNE01.JPG,AFNE01.JPG,AFNE01.JPG,AFNE01.JPG,,,,,,,,,,,,,2,7,27,9,,,,,,,,,,,AMSA18.jpg,AMNE10.jpg,AMNE08.jpg,AMSA19.jpg,AMNE10.jpg,MN,1,num_6,16,num_6,1.03344644769,,,2018_Jan_10_1130,59.9936115466,FEMA4ImagesEEG,001,102726,
AFNE01.JPG,AFNE01.JPG,AFNE01.JPG,AFNE01.JPG,AFNE01.JPG,AFNE01.JPG,,,,,,,,,,,,,2,8,28,1,,,,,,,,,,,AMSA03.jpg,AMNE05.jpg,AMNE01.jpg,AMSA09.jpg,AMNE05.jpg,MN,1,num_6,16,num_6,0.933500011219,,,2018_Jan_10_1130,59.9936115466,FEMA4ImagesEEG,001,102726,
AFNE01.JPG,AFNE01.JPG,AFNE01.JPG,AFNE01.JPG,AFNE01.JPG,AFNE01.JPG,,,,,,,,,,,,,2,9,29,5,,,,,,,,,,,AMSA09.jpg,AMNE08.jpg,AMSA05.jpg,AMNE03.jpg,AMNE08.jpg,MN,1,num_6,16,num_6,0.616809663363,,,2018_Jan_10_1130,59.9936115466,FEMA4ImagesEEG,001,102726,
AFNE01.JPG,AFNE01.JPG,AFNE01.JPG,AFNE01.JPG,AFNE01.JPG,AFNE01.JPG,,,,,,,,,,,,,3,0,30,8,,,,,,,,,,,AMNE04.jpg,AMNE02.jpg,AMSA07.jpg,AMSA17.jpg,AMSA07.jpg,MS,2,num_2,16,num_2,1.08340811916,,,2018_Jan_10_1130,59.9936115466,FEMA4ImagesEEG,001,102726,
AFNE01.JPG,AFNE01.JPG,AFNE01.JPG,AFNE01.JPG,AFNE01.JPG,AFNE01.JPG,,,,,,,,,,,,,3,1,31,1,,,,,,,,,,,AMNE07.jpg,AMSA07.jpg,AMSA19.jpg,AMNE08.jpg,AMSA07.jpg,MS,2,num_6,16,num_6,0.600154596614,,,2018_Jan_10_1130,59.9936115466,FEMA4ImagesEEG,001,102726,
AFNE01.JPG,AFNE01.JPG,AFNE01.JPG,AFNE01.JPG,AFNE01.JPG,AFNE01.JPG,,,,,,,,,,,,,3,2,32,0,,,,,,,,,,,AMSA06.jpg,AMNE15.jpg,AMSA01.jpg,AMNE14.jpg,AMNE15.jpg,MN,1,num_6,16,num_6,0.833463767543,,,2018_Jan_10_1130,59.9936115466,FEMA4ImagesEEG,001,102726,
AFNE01.JPG,AFNE01.JPG,AFNE01.JPG,AFNE01.JPG,AFNE01.JPG,AFNE01.JPG,,,,,,,,,,,,,3,3,33,3,,,,,,,,,,,AMSA16.jpg,AMSA20.jpg,AMNE04.jpg,AMNE11.jpg,AMSA20.jpg,MS,2,num_6,32,num_8,1.23343169363,,,2018_Jan_10_1130,59.9936115466,FEMA4ImagesEEG,001,102726,
AFNE01.JPG,AFNE01.JPG,AFNE01.JPG,AFNE01.JPG,AFNE01.JPG,AFNE01.JPG,,,,,,,,,,,,,3,4,34,2,,,,,,,,,,,AMNE20.jpg,AMSA18.jpg,AMSA02.jpg,AMNE09.jpg,AMNE09.jpg,MN,1,num_4,32,num_8,1.06678031548,,,2018_Jan_10_1130,59.9936115466,FEMA4ImagesEEG,001,102726,
AFNE01.JPG,AFNE01.JPG,AFNE01.JPG,AFNE01.JPG,AFNE01.JPG,AFNE01.JPG,,,,,,,,,,,,,3,5,35,6,,,,,,,,,,,AMSA17.jpg,AMNE15.jpg,AMNE05.jpg,AMSA09.jpg,AMNE05.jpg,MN,1,num_2,32,num_4,1.21679523005,,,2018_Jan_10_1130,59.9936115466,FEMA4ImagesEEG,001,102726,
AFNE01.JPG,AFNE01.JPG,AFNE01.JPG,AFNE01.JPG,AFNE01.JPG,AFNE01.JPG,,,,,,,,,,,,,3,6,36,7,,,,,,,,,,,AMSA15.jpg,AMNE19.jpg,AMNE13.jpg,AMSA07.jpg,AMSA15.jpg,MS,2,num_8,32,num_2,1.45040589641,,,2018_Jan_10_1130,59.9936115466,FEMA4ImagesEEG,001,102726,
AFNE01.JPG,AFNE01.JPG,AFNE01.JPG,AFNE01.JPG,AFNE01.JPG,AFNE01.JPG,,,,,,,,,,,,,3,7,37,4,,,,,,,,,,,AMNE15.jpg,AMSA05.jpg,AMNE13.jpg,AMSA17.jpg,AMSA05.jpg,MS,2,num_6,16,num_6,1.16672065784,,,2018_Jan_10_1130,59.9936115466,FEMA4ImagesEEG,001,102726,
AFNE01.JPG,AFNE01.JPG,AFNE01.JPG,AFNE01.JPG,AFNE01.JPG,AFNE01.JPG,,,,,,,,,,,,,3,8,38,9,,,,,,,,,,,AMNE14.jpg,AMNE08.jpg,AMSA14.jpg,AMSA20.jpg,AMSA14.jpg,MS,2,num_2,16,num_2,0.566832917044,,,2018_Jan_10_1130,59.9936115466,FEMA4ImagesEEG,001,102726,
AFNE01.JPG,AFNE01.JPG,AFNE01.JPG,AFNE01.JPG,AFNE01.JPG,AFNE01.JPG,,,,,,,,,,,,,3,9,39,5,,,,,,,,,,,AMSA03.jpg,AMNE15.jpg,AMSA08.jpg,AMNE19.jpg,AMSA03.jpg,MS,2,num_8,16,num_8,0.583435381996,,,2018_Jan_10_1130,59.9936115466,FEMA4ImagesEEG,001,102726,
AFNE01.JPG,AFNE01.JPG,AFNE01.JPG,AFNE01.JPG,AFNE01.JPG,AFNE01.JPG,,,,,,,,,,,,,4,0,40,5,,,,,,,,,,,AMSA06.jpg,AMNE09.jpg,AMNE05.jpg,AMSA04.jpg,AMNE09.jpg,MN,1,num_6,16,num_6,0.933449975681,,,2018_Jan_10_1130,59.9936115466,FEMA4ImagesEEG,001,102726,
AFNE01.JPG,AFNE01.JPG,AFNE01.JPG,AFNE01.JPG,AFNE01.JPG,AFNE01.JPG,,,,,,,,,,,,,4,1,41,1,,,,,,,,,,,AMNE12.jpg,AMSA08.jpg,AMSA11.jpg,AMNE05.jpg,AMNE12.jpg,MN,1,num_8,16,num_8,0.999953813385,,,2018_Jan_10_1130,59.9936115466,FEMA4ImagesEEG,001,102726,
AFNE01.JPG,AFNE01.JPG,AFNE01.JPG,AFNE01.JPG,AFNE01.JPG,AFNE01.JPG,,,,,,,,,,,,,4,2,42,9,,,,,,,,,,,AMNE09.jpg,AMSA10.jpg,AMSA17.jpg,AMNE03.jpg,AMSA10.jpg,MS,2,num_6,16,num_6,0.816766363336,,,2018_Jan_10_1130,59.9936115466,FEMA4ImagesEEG,001,102726,
AFNE01.JPG,AFNE01.JPG,AFNE01.JPG,AFNE01.JPG,AFNE01.JPG,AFNE01.JPG,,,,,,,,,,,,,4,3,43,2,,,,,,,,,,,AMNE13.jpg,AMSA12.jpg,AMSA08.jpg,AMNE16.jpg,AMNE16.jpg,MN,1,num_4,16,num_4,1.36672033719,,,2018_Jan_10_1130,59.9936115466,FEMA4ImagesEEG,001,102726,
AFNE01.JPG,AFNE01.JPG,AFNE01.JPG,AFNE01.JPG,AFNE01.JPG,AFNE01.JPG,,,,,,,,,,,,,4,4,44,8,,,,,,,,,,,AMSA01.jpg,AMSA10.jpg,AMNE10.jpg,AMNE07.jpg,AMSA01.jpg,MS,2,num_8,16,num_8,0.566821690882,,,2018_Jan_10_1130,59.9936115466,FEMA4ImagesEEG,001,102726,
AFNE01.JPG,AFNE01.JPG,AFNE01.JPG,AFNE01.JPG,AFNE01.JPG,AFNE01.JPG,,,,,,,,,,,,,4,5,45,3,,,,,,,,,,,AMNE17.jpg,AMSA15.jpg,AMNE08.jpg,AMSA02.jpg,AMSA02.jpg,MS,2,num_4,16,num_4,1.43343490106,,,2018_Jan_10_1130,59.9936115466,FEMA4ImagesEEG,001,102726,
AFNE01.JPG,AFNE01.JPG,AFNE01.JPG,AFNE01.JPG,AFNE01.JPG,AFNE01.JPG,,,,,,,,,,,,,4,6,46,6,,,,,,,,,,,AMSA18.jpg,AMNE14.jpg,AMSA04.jpg,AMNE04.jpg,AMSA04.jpg,MS,2,num_2,16,num_2,0.633479483891,,,2018_Jan_10_1130,59.9936115466,FEMA4ImagesEEG,001,102726,
AFNE01.JPG,AFNE01.JPG,AFNE01.JPG,AFNE01.JPG,AFNE01.JPG,AFNE01.JPG,,,,,,,,,,,,,4,7,47,4,,,,,,,,,,,AMNE12.jpg,AMSA07.jpg,AMNE19.jpg,AMSA11.jpg,AMSA11.jpg,MS,2,num_4,32,num_6,0.950112098595,,,2018_Jan_10_1130,59.9936115466,FEMA4ImagesEEG,001,102726,
AFNE01.JPG,AFNE01.JPG,AFNE01.JPG,AFNE01.JPG,AFNE01.JPG,AFNE01.JPG,,,,,,,,,,,,,4,8,48,0,,,,,,,,,,,AMNE20.jpg,AMSA19.jpg,AMNE19.jpg,AMSA16.jpg,AMSA16.jpg,MS,2,num_4,16,num_4,1.25031384407,,,2018_Jan_10_1130,59.9936115466,FEMA4ImagesEEG,001,102726,
AFNE01.JPG,AFNE01.JPG,AFNE01.JPG,AFNE01.JPG,AFNE01.JPG,AFNE01.JPG,,,,,,,,,,,,,4,9,49,7,,,,,,,,,,,AMSA03.jpg,AMNE12.jpg,AMNE02.jpg,AMSA06.jpg,AMSA06.jpg,MS,2,num_4,16,num_4,1.00011899462,,,2018_Jan_10_1130,59.9936115466,FEMA4ImagesEEG,001,102726,
AFNE01.JPG,AFNE01.JPG,AFNE01.JPG,AFNE01.JPG,AFNE01.JPG,AFNE01.JPG,,,,,,,,,,,,,5,0,50,7,,,,,,,,,,,AMSA02.jpg,AMSA12.jpg,AMNE07.jpg,AMNE02.jpg,AMNE02.jpg,MN,1,num_4,32,num_8,2.04986609099,,,2018_Jan_10_1130,59.9936115466,FEMA4ImagesEEG,001,102726,
AFNE01.JPG,AFNE01.JPG,AFNE01.JPG,AFNE01.JPG,AFNE01.JPG,AFNE01.JPG,,,,,,,,,,,,,5,1,51,5,,,,,,,,,,,AMNE01.jpg,AMNE20.jpg,AMSA06.jpg,AMSA17.jpg,AMNE20.jpg,MN,1,num_6,32,num_8,1.31672851602,,,2018_Jan_10_1130,59.9936115466,FEMA4ImagesEEG,001,102726,
AFNE01.JPG,AFNE01.JPG,AFNE01.JPG,AFNE01.JPG,AFNE01.JPG,AFNE01.JPG,,,,,,,,,,,,,5,2,52,1,,,,,,,,,,,AMNE14.jpg,AMSA04.jpg,AMNE13.jpg,AMSA16.jpg,AMSA04.jpg,MS,2,num_6,16,num_6,0.816776626976,,,2018_Jan_10_1130,59.9936115466,FEMA4ImagesEEG,001,102726,
AFNE01.JPG,AFNE01.JPG,AFNE01.JPG,AFNE01.JPG,AFNE01.JPG,AFNE01.JPG,,,,,,,,,,,,,5,3,53,9,,,,,,,,,,,AMSA10.jpg,AMNE06.jpg,AMSA13.jpg,AMNE19.jpg,AMNE06.jpg,MN,1,num_6,16,num_6,0.733469861792,,,2018_Jan_10_1130,59.9936115466,FEMA4ImagesEEG,001,102726,
AFNE01.JPG,AFNE01.JPG,AFNE01.JPG,AFNE01.JPG,AFNE01.JPG,AFNE01.JPG,,,,,,,,,,,,,5,4,54,4,,,,,,,,,,,AMSA03.jpg,AMNE03.jpg,AMNE13.jpg,AMSA07.jpg,AMNE13.jpg,MN,1,num_2,16,num_2,0.650133908959,,,2018_Jan_10_1130,59.9936115466,FEMA4ImagesEEG,001,102726,
AFNE01.JPG,AFNE01.JPG,AFNE01.JPG,AFNE01.JPG,AFNE01.JPG,AFNE01.JPG,,,,,,,,,,,,,5,5,55,2,,,,,,,,,,,AMSA04.jpg,AMSA14.jpg,AMNE11.jpg,AMNE01.jpg,AMNE11.jpg,MN,1,num_2,16,num_2,0.933420467656,,,2018_Jan_10_1130,59.9936115466,FEMA4ImagesEEG,001,102726,
AFNE01.JPG,AFNE01.JPG,AFNE01.JPG,AFNE01.JPG,AFNE01.JPG,AFNE01.JPG,,,,,,,,,,,,,5,6,56,3,,,,,,,,,,,AMSA06.jpg,AMSA13.jpg,AMNE20.jpg,AMNE18.jpg,AMNE18.jpg,MN,1,num_4,32,num_2,2.78329489799,,,2018_Jan_10_1130,59.9936115466,FEMA4ImagesEEG,001,102726,
AFNE01.JPG,AFNE01.JPG,AFNE01.JPG,AFNE01.JPG,AFNE01.JPG,AFNE01.JPG,,,,,,,,,,,,,5,7,57,6,,,,,,,,,,,AMSA09.jpg,AMNE08.jpg,AMNE02.jpg,AMSA19.jpg,AMSA19.jpg,MS,2,num_4,16,num_4,0.733471465297,,,2018_Jan_10_1130,59.9936115466,FEMA4ImagesEEG,001,102726,
AFNE01.JPG,AFNE01.JPG,AFNE01.JPG,AFNE01.JPG,AFNE01.JPG,AFNE01.JPG,,,,,,,,,,,,,5,8,58,0,,,,,,,,,,,AMNE06.jpg,AMSA05.jpg,AMNE01.jpg,AMSA09.jpg,AMNE06.jpg,MN,1,num_8,16,num_8,1.2667132807,,,2018_Jan_10_1130,59.9936115466,FEMA4ImagesEEG,001,102726,
AFNE01.JPG,AFNE01.JPG,AFNE01.JPG,AFNE01.JPG,AFNE01.JPG,AFNE01.JPG,,,,,,,,,,,,,5,9,59,8,,,,,,,,,,,AMNE03.jpg,AMNE05.jpg,AMSA16.jpg,AMSA07.jpg,AMNE05.jpg,MN,1,num_6,16,num_6,1.16674118512,,,2018_Jan_10_1130,59.9936115466,FEMA4ImagesEEG,001,102726,
,,,,,,,,,,,,,,,,,,,,,,,,,,,,,,,,,,,,,,,,,,,space,13.2991275871,2018_Jan_10_1130,59.9936115466,FEMA4ImagesEEG,001,102726,
AFNE01.JPG,AFNE01.JPG,AFNE01.JPG,AFNE01.JPG,AFNE01.JPG,AFNE01.JPG,,,,,,,,,,,,,,,,,0,0,0,3,,,,,,,AFSA13.jpg,AFSA16.jpg,AFNE06.jpg,AFNE18.jpg,AFSA13.jpg,FS,4,num_8,16,num_8,1.08339208225,,,2018_Jan_10_1130,59.9936115466,FEMA4ImagesEEG,001,102726,
AFNE01.JPG,AFNE01.JPG,AFNE01.JPG,AFNE01.JPG,AFNE01.JPG,AFNE01.JPG,,,,,,,,,,,,,,,,,0,1,1,5,,,,,,,AFNE09.jpg,AFSA02.jpg,AFNE19.jpg,AFSA18.jpg,AFSA02.jpg,FS,4,num_6,32,num_4,1.35004891292,,,2018_Jan_10_1130,59.9936115466,FEMA4ImagesEEG,001,102726,
AFNE01.JPG,AFNE01.JPG,AFNE01.JPG,AFNE01.JPG,AFNE01.JPG,AFNE01.JPG,,,,,,,,,,,,,,,,,0,2,2,1,,,,,,,AFNE01.jpg,AFNE14.jpg,AFSA14.jpg,AFSA20.jpg,AFNE01.jpg,FN,3,num_8,16,num_8,1.18326603132,,,2018_Jan_10_1130,59.9936115466,FEMA4ImagesEEG,001,102726,
AFNE01.JPG,AFNE01.JPG,AFNE01.JPG,AFNE01.JPG,AFNE01.JPG,AFNE01.JPG,,,,,,,,,,,,,,,,,0,3,3,4,,,,,,,AFSA10.jpg,AFNE11.jpg,AFSA11.jpg,AFNE05.jpg,AFNE11.jpg,FN,3,num_6,32,num_8,1.74975126609,,,2018_Jan_10_1130,59.9936115466,FEMA4ImagesEEG,001,102726,
AFNE01.JPG,AFNE01.JPG,AFNE01.JPG,AFNE01.JPG,AFNE01.JPG,AFNE01.JPG,,,,,,,,,,,,,,,,,0,4,4,6,,,,,,,AFSA10.jpg,AFSA03.jpg,AFNE01.jpg,AFNE19.jpg,AFSA03.jpg,FS,4,num_6,16,num_6,0.866797956172,,,2018_Jan_10_1130,59.9936115466,FEMA4ImagesEEG,001,102726,
AFNE01.JPG,AFNE01.JPG,AFNE01.JPG,AFNE01.JPG,AFNE01.JPG,AFNE01.JPG,,,,,,,,,,,,,,,,,0,5,5,0,,,,,,,AFSA01.jpg,AFNE18.jpg,AFSA15.jpg,AFNE13.jpg,AFNE13.jpg,FN,3,num_4,16,num_4,0.883483172162,,,2018_Jan_10_1130,59.9936115466,FEMA4ImagesEEG,001,102726,
AFNE01.JPG,AFNE01.JPG,AFNE01.JPG,AFNE01.JPG,AFNE01.JPG,AFNE01.JPG,,,,,,,,,,,,,,,,,0,6,6,9,,,,,,,AFNE05.jpg,AFSA09.jpg,AFSA17.jpg,AFNE07.jpg,AFSA09.jpg,FS,4,num_6,32,num_8,2.45028593973,,,2018_Jan_10_1130,59.9936115466,FEMA4ImagesEEG,001,102726,
AFNE01.JPG,AFNE01.JPG,AFNE01.JPG,AFNE01.JPG,AFNE01.JPG,AFNE01.JPG,,,,,,,,,,,,,,,,,0,7,7,2,,,,,,,AFSA16.jpg,AFSA06.jpg,AFNE11.jpg,AFNE01.jpg,AFNE11.jpg,FN,3,num_2,16,num_2,3.01664768951,,,2018_Jan_10_1130,59.9936115466,FEMA4ImagesEEG,001,102726,
AFNE01.JPG,AFNE01.JPG,AFNE01.JPG,AFNE01.JPG,AFNE01.JPG,AFNE01.JPG,,,,,,,,,,,,,,,,,0,8,8,7,,,,,,,AFNE14.jpg,AFSA02.jpg,AFSA16.jpg,AFNE02.jpg,AFSA02.jpg,FS,4,num_6,32,num_4,1.26670686598,,,2018_Jan_10_1130,59.9936115466,FEMA4ImagesEEG,001,102726,
AFNE01.JPG,AFNE01.JPG,AFNE01.JPG,AFNE01.JPG,AFNE01.JPG,AFNE01.JPG,,,,,,,,,,,,,,,,,0,9,9,8,,,,,,,AFSA10.jpg,AFNE03.jpg,AFSA15.jpg,AFNE13.jpg,AFNE03.jpg,FN,3,num_6,32,num_4,1.25006142166,,,2018_Jan_10_1130,59.9936115466,FEMA4ImagesEEG,001,102726,
AFNE01.JPG,AFNE01.JPG,AFNE01.JPG,AFNE01.JPG,AFNE01.JPG,AFNE01.JPG,,,,,,,,,,,,,,,,,1,0,10,6,,,,,,,AFSA06.jpg,AFSA14.jpg,AFNE14.jpg,AFNE18.jpg,AFSA06.jpg,FS,4,num_8,16,num_8,1.10011354182,,,2018_Jan_10_1130,59.9936115466,FEMA4ImagesEEG,001,102726,
AFNE01.JPG,AFNE01.JPG,AFNE01.JPG,AFNE01.JPG,AFNE01.JPG,AFNE01.JPG,,,,,,,,,,,,,,,,,1,1,11,8,,,,,,,AFNE03.jpg,AFSA11.jpg,AFSA10.jpg,AFNE06.jpg,AFSA10.jpg,FS,4,num_2,32,num_4,1.55008451501,,,2018_Jan_10_1130,59.9936115466,FEMA4ImagesEEG,001,102726,
AFNE01.JPG,AFNE01.JPG,AFNE01.JPG,AFNE01.JPG,AFNE01.JPG,AFNE01.JPG,,,,,,,,,,,,,,,,,1,2,12,3,,,,,,,AFSA17.jpg,AFNE03.jpg,AFSA08.jpg,AFNE13.jpg,AFNE13.jpg,FN,3,num_4,16,num_4,4.76643776544,,,2018_Jan_10_1130,59.9936115466,FEMA4ImagesEEG,001,102726,
AFNE01.JPG,AFNE01.JPG,AFNE01.JPG,AFNE01.JPG,AFNE01.JPG,AFNE01.JPG,,,,,,,,,,,,,,,,,1,3,13,0,,,,,,,AFSA05.jpg,AFNE02.jpg,AFSA13.jpg,AFNE15.jpg,AFSA05.jpg,FS,4,num_8,16,num_8,0.866787051316,,,2018_Jan_10_1130,59.9936115466,FEMA4ImagesEEG,001,102726,
AFNE01.JPG,AFNE01.JPG,AFNE01.JPG,AFNE01.JPG,AFNE01.JPG,AFNE01.JPG,,,,,,,,,,,,,,,,,1,4,14,4,,,,,,,AFSA07.jpg,AFSA17.jpg,AFNE17.jpg,AFNE18.jpg,AFSA07.jpg,FS,4,num_8,16,num_8,0.700149144046,,,2018_Jan_10_1130,59.9936115466,FEMA4ImagesEEG,001,102726,
AFNE01.JPG,AFNE01.JPG,AFNE01.JPG,AFNE01.JPG,AFNE01.JPG,AFNE01.JPG,,,,,,,,,,,,,,,,,1,5,15,1,,,,,,,AFNE03.jpg,AFNE16.jpg,AFSA20.jpg,AFSA14.jpg,AFNE16.jpg,FN,3,num_6,32,num_2,1.25038761436,,,2018_Jan_10_1130,59.9936115466,FEMA4ImagesEEG,001,102726,
AFNE01.JPG,AFNE01.JPG,AFNE01.JPG,AFNE01.JPG,AFNE01.JPG,AFNE01.JPG,,,,,,,,,,,,,,,,,1,6,16,5,,,,,,,AFSA11.jpg,AFNE05.jpg,AFNE18.jpg,AFSA15.jpg,AFSA15.jpg,FS,4,num_4,32,num_6,2.21665667044,,,2018_Jan_10_1130,59.9936115466,FEMA4ImagesEEG,001,102726,
AFNE01.JPG,AFNE01.JPG,AFNE01.JPG,AFNE01.JPG,AFNE01.JPG,AFNE01.JPG,,,,,,,,,,,,,,,,,1,7,17,7,,,,,,,AFNE08.jpg,AFSA11.jpg,AFSA14.jpg,AFNE04.jpg,AFSA11.jpg,FS,4,num_6,16,num_6,1.78342896723,,,2018_Jan_10_1130,59.9936115466,FEMA4ImagesEEG,001,102726,
AFNE01.JPG,AFNE01.JPG,AFNE01.JPG,AFNE01.JPG,AFNE01.JPG,AFNE01.JPG,,,,,,,,,,,,,,,,,1,8,18,2,,,,,,,AFNE01.jpg,AFNE06.jpg,AFSA04.jpg,AFSA01.jpg,AFNE01.jpg,FN,3,num_8,16,num_8,1.66668281052,,,2018_Jan_10_1130,59.9936115466,FEMA4ImagesEEG,001,102726,
AFNE01.JPG,AFNE01.JPG,AFNE01.JPG,AFNE01.JPG,AFNE01.JPG,AFNE01.JPG,,,,,,,,,,,,,,,,,1,9,19,9,,,,,,,AFSA03.jpg,AFSA15.jpg,AFNE15.jpg,AFNE18.jpg,AFNE18.jpg,FN,3,num_4,16,num_4,1.00008082646,,,2018_Jan_10_1130,59.9936115466,FEMA4ImagesEEG,001,102726,
AFNE01.JPG,AFNE01.JPG,AFNE01.JPG,AFNE01.JPG,AFNE01.JPG,AFNE01.JPG,,,,,,,,,,,,,,,,,2,0,20,2,,,,,,,AFSA15.jpg,AFNE12.jpg,AFNE10.jpg,AFSA12.jpg,AFNE12.jpg,FN,3,num_6,16,num_6,0.883451418951,,,2018_Jan_10_1130,59.9936115466,FEMA4ImagesEEG,001,102726,
AFNE01.JPG,AFNE01.JPG,AFNE01.JPG,AFNE01.JPG,AFNE01.JPG,AFNE01.JPG,,,,,,,,,,,,,,,,,2,1,21,5,,,,,,,AFSA19.jpg,AFNE03.jpg,AFSA08.jpg,AFNE01.jpg,AFSA19.jpg,FS,4,num_8,32,num_2,0.916778230807,,,2018_Jan_10_1130,59.9936115466,FEMA4ImagesEEG,001,102726,
AFNE01.JPG,AFNE01.JPG,AFNE01.JPG,AFNE01.JPG,AFNE01.JPG,AFNE01.JPG,,,,,,,,,,,,,,,,,2,2,22,0,,,,,,,AFSA02.jpg,AFNE12.jpg,AFSA01.jpg,AFNE04.jpg,AFSA01.jpg,FS,4,num_2,16,num_2,1.08347130497,,,2018_Jan_10_1130,59.9936115466,FEMA4ImagesEEG,001,102726,
AFNE01.JPG,AFNE01.JPG,AFNE01.JPG,AFNE01.JPG,AFNE01.JPG,AFNE01.JPG,,,,,,,,,,,,,,,,,2,3,23,7,,,,,,,AFNE09.jpg,AFSA16.jpg,AFNE20.jpg,AFSA08.jpg,AFSA16.jpg,FS,4,num_6,16,num_6,0.666804691777,,,2018_Jan_10_1130,59.9936115466,FEMA4ImagesEEG,001,102726,
AFNE01.JPG,AFNE01.JPG,AFNE01.JPG,AFNE01.JPG,AFNE01.JPG,AFNE01.JPG,,,,,,,,,,,,,,,,,2,4,24,4,,,,,,,AFSA17.jpg,AFSA12.jpg,AFNE07.jpg,AFNE05.jpg,AFSA17.jpg,FS,4,num_8,32,num_6,1.70006511034,,,2018_Jan_10_1130,59.9936115466,FEMA4ImagesEEG,001,102726,
AFNE01.JPG,AFNE01.JPG,AFNE01.JPG,AFNE01.JPG,AFNE01.JPG,AFNE01.JPG,,,,,,,,,,,,,,,,,2,5,25,8,,,,,,,AFNE06.jpg,AFSA20.jpg,AFNE20.jpg,AFSA14.jpg,AFSA14.jpg,FS,4,num_4,16,num_4,0.783469380578,,,2018_Jan_10_1130,59.9936115466,FEMA4ImagesEEG,001,102726,
AFNE01.JPG,AFNE01.JPG,AFNE01.JPG,AFNE01.JPG,AFNE01.JPG,AFNE01.JPG,,,,,,,,,,,,,,,,,2,6,26,9,,,,,,,AFNE19.jpg,AFSA01.jpg,AFSA19.jpg,AFNE16.jpg,AFNE19.jpg,FN,3,num_8,16,num_8,1.11675545806,,,2018_Jan_10_1130,59.9936115466,FEMA4ImagesEEG,001,102726,
AFNE01.JPG,AFNE01.JPG,AFNE01.JPG,AFNE01.JPG,AFNE01.JPG,AFNE01.JPG,,,,,,,,,,,,,,,,,2,7,27,3,,,,,,,AFNE18.jpg,AFSA18.jpg,AFSA03.jpg,AFNE10.jpg,AFNE10.jpg,FN,3,num_4,16,num_4,0.650147700682,,,2018_Jan_10_1130,59.9936115466,FEMA4ImagesEEG,001,102726,
AFNE01.JPG,AFNE01.JPG,AFNE01.JPG,AFNE01.JPG,AFNE01.JPG,AFNE01.JPG,,,,,,,,,,,,,,,,,2,8,28,1,,,,,,,AFSA07.jpg,AFNE04.jpg,AFSA15.jpg,AFNE08.jpg,AFNE08.jpg,FN,3,num_4,16,num_4,0.966858576052,,,2018_Jan_10_1130,59.9936115466,FEMA4ImagesEEG,001,102726,
AFNE01.JPG,AFNE01.JPG,AFNE01.JPG,AFNE01.JPG,AFNE01.JPG,AFNE01.JPG,,,,,,,,,,,,,,,,,2,9,29,6,,,,,,,AFNE11.jpg,AFNE19.jpg,AFSA07.jpg,AFSA08.jpg,AFSA08.jpg,FS,4,num_4,32,num_2,1.33341437369,,,2018_Jan_10_1130,59.9936115466,FEMA4ImagesEEG,001,102726,
AFNE01.JPG,AFNE01.JPG,AFNE01.JPG,AFNE01.JPG,AFNE01.JPG,AFNE01.JPG,,,,,,,,,,,,,,,,,3,0,30,1,,,,,,,AFSA14.jpg,AFNE01.jpg,AFNE06.jpg,AFSA02.jpg,AFNE06.jpg,FN,3,num_2,32,num_8,1.20010905177,,,2018_Jan_10_1130,59.9936115466,FEMA4ImagesEEG,001,102726,
AFNE01.JPG,AFNE01.JPG,AFNE01.JPG,AFNE01.JPG,AFNE01.JPG,AFNE01.JPG,,,,,,,,,,,,,,,,,3,1,31,7,,,,,,,AFNE02.jpg,AFSA13.jpg,AFNE14.jpg,AFSA11.jpg,AFSA11.jpg,FS,4,num_4,32,num_6,1.06678159838,,,2018_Jan_10_1130,59.9936115466,FEMA4ImagesEEG,001,102726,
AFNE01.JPG,AFNE01.JPG,AFNE01.JPG,AFNE01.JPG,AFNE01.JPG,AFNE01.JPG,,,,,,,,,,,,,,,,,3,2,32,9,,,,,,,AFSA07.jpg,AFSA17.jpg,AFNE13.jpg,AFNE08.jpg,AFSA17.jpg,FS,4,num_6,16,num_6,0.850145455683,,,2018_Jan_10_1130,59.9936115466,FEMA4ImagesEEG,001,102726,
AFNE01.JPG,AFNE01.JPG,AFNE01.JPG,AFNE01.JPG,AFNE01.JPG,AFNE01.JPG,,,,,,,,,,,,,,,,,3,3,33,8,,,,,,,AFNE10.jpg,AFSA15.jpg,AFSA01.jpg,AFNE11.jpg,AFSA01.jpg,FS,4,num_2,32,num_8,1.35003961134,,,2018_Jan_10_1130,59.9936115466,FEMA4ImagesEEG,001,102726,
AFNE01.JPG,AFNE01.JPG,AFNE01.JPG,AFNE01.JPG,AFNE01.JPG,AFNE01.JPG,,,,,,,,,,,,,,,,,3,4,34,6,,,,,,,AFNE17.jpg,AFNE15.jpg,AFSA04.jpg,AFSA20.jpg,AFNE15.jpg,FN,3,num_6,32,num_2,1.3500437811,,,2018_Jan_10_1130,59.9936115466,FEMA4ImagesEEG,001,102726,
AFNE01.JPG,AFNE01.JPG,AFNE01.JPG,AFNE01.JPG,AFNE01.JPG,AFNE01.JPG,,,,,,,,,,,,,,,,,3,5,35,3,,,,,,,AFNE10.jpg,AFSA15.jpg,AFNE15.jpg,AFSA20.jpg,AFNE10.jpg,FN,3,num_8,16,num_8,1.50005260133,,,2018_Jan_10_1130,59.9936115466,FEMA4ImagesEEG,001,102726,
AFNE01.JPG,AFNE01.JPG,AFNE01.JPG,AFNE01.JPG,AFNE01.JPG,AFNE01.JPG,,,,,,,,,,,,,,,,,3,6,36,2,,,,,,,AFNE18.jpg,AFSA20.jpg,AFSA05.jpg,AFNE05.jpg,AFNE05.jpg,FN,3,num_4,16,num_4,1.01706112339,,,2018_Jan_10_1130,59.9936115466,FEMA4ImagesEEG,001,102726,
AFNE01.JPG,AFNE01.JPG,AFNE01.JPG,AFNE01.JPG,AFNE01.JPG,AFNE01.JPG,,,,,,,,,,,,,,,,,3,7,37,0,,,,,,,AFNE17.jpg,AFSA19.jpg,AFNE06.jpg,AFSA05.jpg,AFNE06.jpg,FN,3,num_2,16,num_2,1.51669676276,,,2018_Jan_10_1130,59.9936115466,FEMA4ImagesEEG,001,102726,
AFNE01.JPG,AFNE01.JPG,AFNE01.JPG,AFNE01.JPG,AFNE01.JPG,AFNE01.JPG,,,,,,,,,,,,,,,,,3,8,38,4,,,,,,,AFSA14.jpg,AFNE08.jpg,AFSA15.jpg,AFNE10.jpg,AFNE10.jpg,FN,3,num_4,32,num_2,1.9666626039,,,2018_Jan_10_1130,59.9936115466,FEMA4ImagesEEG,001,102726,
AFNE01.JPG,AFNE01.JPG,AFNE01.JPG,AFNE01.JPG,AFNE01.JPG,AFNE01.JPG,,,,,,,,,,,,,,,,,3,9,39,5,,,,,,,AFNE20.jpg,AFNE17.jpg,AFSA16.jpg,AFSA12.jpg,AFNE17.jpg,FN,3,num_6,16,num_6,1.1165735987,,,2018_Jan_10_1130,59.9936115466,FEMA4ImagesEEG,001,102726,
AFNE01.JPG,AFNE01.JPG,AFNE01.JPG,AFNE01.JPG,AFNE01.JPG,AFNE01.JPG,,,,,,,,,,,,,,,,,4,0,40,0,,,,,,,AFSA11.jpg,AFSA15.jpg,AFNE08.jpg,AFNE11.jpg,AFSA11.jpg,FS,4,num_8,32,num_4,0.666777108097,,,2018_Jan_10_1130,59.9936115466,FEMA4ImagesEEG,001,102726,
AFNE01.JPG,AFNE01.JPG,AFNE01.JPG,AFNE01.JPG,AFNE01.JPG,AFNE01.JPG,,,,,,,,,,,,,,,,,4,1,41,9,,,,,,,AFSA09.jpg,AFSA08.jpg,AFNE02.jpg,AFNE11.jpg,AFSA08.jpg,FS,4,num_6,32,num_2,1.13340699649,,,2018_Jan_10_1130,59.9936115466,FEMA4ImagesEEG,001,102726,
AFNE01.JPG,AFNE01.JPG,AFNE01.JPG,AFNE01.JPG,AFNE01.JPG,AFNE01.JPG,,,,,,,,,,,,,,,,,4,2,42,1,,,,,,,AFSA11.jpg,AFSA12.jpg,AFNE04.jpg,AFNE14.jpg,AFNE14.jpg,FN,3,num_4,16,num_4,1.06675401493,,,2018_Jan_10_1130,59.9936115466,FEMA4ImagesEEG,001,102726,
AFNE01.JPG,AFNE01.JPG,AFNE01.JPG,AFNE01.JPG,AFNE01.JPG,AFNE01.JPG,,,,,,,,,,,,,,,,,4,3,43,6,,,,,,,AFNE07.jpg,AFSA06.jpg,AFNE16.jpg,AFSA01.jpg,AFNE07.jpg,FN,3,num_8,32,num_6,2.66669756453,,,2018_Jan_10_1130,59.9936115466,FEMA4ImagesEEG,001,102726,
AFNE01.JPG,AFNE01.JPG,AFNE01.JPG,AFNE01.JPG,AFNE01.JPG,AFNE01.JPG,,,,,,,,,,,,,,,,,4,4,44,2,,,,,,,AFNE09.jpg,AFNE17.jpg,AFSA08.jpg,AFSA04.jpg,AFSA04.jpg,FS,4,num_4,16,num_4,2.26673188386,,,2018_Jan_10_1130,59.9936115466,FEMA4ImagesEEG,001,102726,
AFNE01.JPG,AFNE01.JPG,AFNE01.JPG,AFNE01.JPG,AFNE01.JPG,AFNE01.JPG,,,,,,,,,,,,,,,,,4,5,45,8,,,,,,,AFNE13.jpg,AFNE17.jpg,AFSA08.jpg,AFSA03.jpg,AFSA08.jpg,FS,4,num_2,16,num_2,0.950166624272,,,2018_Jan_10_1130,59.9936115466,FEMA4ImagesEEG,001,102726,
AFNE01.JPG,AFNE01.JPG,AFNE01.JPG,AFNE01.JPG,AFNE01.JPG,AFNE01.JPG,,,,,,,,,,,,,,,,,4,6,46,4,,,,,,,AFSA13.jpg,AFSA05.jpg,AFNE20.jpg,AFNE04.jpg,AFNE20.jpg,FN,3,num_2,16,num_2,0.933460560162,,,2018_Jan_10_1130,59.9936115466,FEMA4ImagesEEG,001,102726,
AFNE01.JPG,AFNE01.JPG,AFNE01.JPG,AFNE01.JPG,AFNE01.JPG,AFNE01.JPG,,,,,,,,,,,,,,,,,4,7,47,3,,,,,,,AFNE08.jpg,AFSA17.jpg,AFSA02.jpg,AFNE07.jpg,AFNE07.jpg,FN,3,num_4,16,num_4,1.16673829872,,,2018_Jan_10_1130,59.9936115466,FEMA4ImagesEEG,001,102726,
AFNE01.JPG,AFNE01.JPG,AFNE01.JPG,AFNE01.JPG,AFNE01.JPG,AFNE01.JPG,,,,,,,,,,,,,,,,,4,8,48,5,,,,,,,AFNE01.jpg,AFNE07.jpg,AFSA06.jpg,AFSA07.jpg,AFSA06.jpg,FS,4,num_2,16,num_2,0.800096222199,,,2018_Jan_10_1130,59.9936115466,FEMA4ImagesEEG,001,102726,
AFNE01.JPG,AFNE01.JPG,AFNE01.JPG,AFNE01.JPG,AFNE01.JPG,AFNE01.JPG,,,,,,,,,,,,,,,,,4,9,49,7,,,,,,,AFNE19.jpg,AFSA16.jpg,AFNE02.jpg,AFSA14.jpg,AFNE19.jpg,FN,3,num_8,16,num_8,1.13345927722,,,2018_Jan_10_1130,59.9936115466,FEMA4ImagesEEG,001,102726,
AFNE01.JPG,AFNE01.JPG,AFNE01.JPG,AFNE01.JPG,AFNE01.JPG,AFNE01.JPG,,,,,,,,,,,,,,,,,5,0,50,1,,,,,,,AFNE10.jpg,AFSA19.jpg,AFNE17.jpg,AFSA11.jpg,AFSA11.jpg,FS,4,num_4,16,num_4,1.78337123408,,,2018_Jan_10_1130,59.9936115466,FEMA4ImagesEEG,001,102726,
AFNE01.JPG,AFNE01.JPG,AFNE01.JPG,AFNE01.JPG,AFNE01.JPG,AFNE01.JPG,,,,,,,,,,,,,,,,,5,1,51,2,,,,,,,AFNE09.jpg,AFSA07.jpg,AFNE18.jpg,AFSA08.jpg,AFNE09.jpg,FN,3,num_8,32,num_2,1.4167211391,,,2018_Jan_10_1130,59.9936115466,FEMA4ImagesEEG,001,102726,
AFNE01.JPG,AFNE01.JPG,AFNE01.JPG,AFNE01.JPG,AFNE01.JPG,AFNE01.JPG,,,,,,,,,,,,,,,,,5,2,52,7,,,,,,,AFSA13.jpg,AFNE06.jpg,AFSA09.jpg,AFNE08.jpg,AFSA13.jpg,FS,4,num_8,32,num_2,0.666772617726,,,2018_Jan_10_1130,59.9936115466,FEMA4ImagesEEG,001,102726,
AFNE01.JPG,AFNE01.JPG,AFNE01.JPG,AFNE01.JPG,AFNE01.JPG,AFNE01.JPG,,,,,,,,,,,,,,,,,5,3,53,3,,,,,,,AFNE08.jpg,AFNE12.jpg,AFSA04.jpg,AFSA07.jpg,AFNE08.jpg,FN,3,num_8,32,num_6,1.05009092973,,,2018_Jan_10_1130,59.9936115466,FEMA4ImagesEEG,001,102726,
AFNE01.JPG,AFNE01.JPG,AFNE01.JPG,AFNE01.JPG,AFNE01.JPG,AFNE01.JPG,,,,,,,,,,,,,,,,,5,4,54,0,,,,,,,AFNE15.jpg,AFSA05.jpg,AFSA10.jpg,AFNE09.jpg,AFSA05.jpg,FS,4,num_6,16,num_6,0.683441476198,,,2018_Jan_10_1130,59.9936115466,FEMA4ImagesEEG,001,102726,
AFNE01.JPG,AFNE01.JPG,AFNE01.JPG,AFNE01.JPG,AFNE01.JPG,AFNE01.JPG,,,,,,,,,,,,,,,,,5,5,55,5,,,,,,,AFNE07.jpg,AFNE13.jpg,AFSA19.jpg,AFSA05.jpg,AFNE13.jpg,FN,3,num_6,32,num_8,1.83340699668,,,2018_Jan_10_1130,59.9936115466,FEMA4ImagesEEG,001,102726,
AFNE01.JPG,AFNE01.JPG,AFNE01.JPG,AFNE01.JPG,AFNE01.JPG,AFNE01.JPG,,,,,,,,,,,,,,,,,5,6,56,9,,,,,,,AFSA20.jpg,AFNE07.jpg,AFSA08.jpg,AFNE15.jpg,AFSA08.jpg,FS,4,num_2,16,num_2,1.48342832574,,,2018_Jan_10_1130,59.9936115466,FEMA4ImagesEEG,001,102726,
AFNE01.JPG,AFNE01.JPG,AFNE01.JPG,AFNE01.JPG,AFNE01.JPG,AFNE01.JPG,,,,,,,,,,,,,,,,,5,7,57,4,,,,,,,AFNE10.jpg,AFSA14.jpg,AFNE14.jpg,AFSA18.jpg,AFSA18.jpg,FS,4,num_4,16,num_4,0.733468257822,,,2018_Jan_10_1130,59.9936115466,FEMA4ImagesEEG,001,102726,
AFNE01.JPG,AFNE01.JPG,AFNE01.JPG,AFNE01.JPG,AFNE01.JPG,AFNE01.JPG,,,,,,,,,,,,,,,,,5,8,58,8,,,,,,,AFNE12.jpg,AFSA07.jpg,AFSA14.jpg,AFNE09.jpg,AFSA14.jpg,FS,4,num_2,16,num_2,0.683137093903,,,2018_Jan_10_1130,59.9936115466,FEMA4ImagesEEG,001,102726,
AFNE01.JPG,AFNE01.JPG,AFNE01.JPG,AFNE01.JPG,AFNE01.JPG,AFNE01.JPG,,,,,,,,,,,,,,,,,5,9,59,6,,,,,,,AFNE19.jpg,AFSA05.jpg,AFSA07.jpg,AFNE04.jpg,AFNE04.jpg,FN,3,num_4,16,num_4,1.03345735278,,,2018_Jan_10_1130,59.9936115466,FEMA4ImagesEEG,001,102726,
,,,,,,,,,,,,,,,,,,,,,,,,,,,,,,,,,,,,,,,,,,,space,11.7825937604,2018_Jan_10_1130,59.9936115466,FEMA4ImagesEEG,001,102726,
AFNE01.JPG,AFNE01.JPG,AFNE01.JPG,AFNE01.JPG,AFNE01.JPG,AFNE01.JPG,,,,,,,,,,,,,,,,,,,,,0,0,0,8,,,AMNE03.jpg,AMNE07.jpg,AMSA06.jpg,AMSA10.jpg,AMSA06.jpg,MS,2,num_2,32,num_6,1.50009269384,,,2018_Jan_10_1130,59.9936115466,FEMA4ImagesEEG,001,102726,
AFNE01.JPG,AFNE01.JPG,AFNE01.JPG,AFNE01.JPG,AFNE01.JPG,AFNE01.JPG,,,,,,,,,,,,,,,,,,,,,0,1,1,7,,,AMNE15.jpg,AMSA18.jpg,AMNE04.jpg,AMSA12.jpg,AMSA18.jpg,MS,2,num_6,16,num_6,0.71681768191,,,2018_Jan_10_1130,59.9936115466,FEMA4ImagesEEG,001,102726,
AFNE01.JPG,AFNE01.JPG,AFNE01.JPG,AFNE01.JPG,AFNE01.JPG,AFNE01.JPG,,,,,,,,,,,,,,,,,,,,,0,2,2,5,,,AMNE10.jpg,AMSA20.jpg,AMNE16.jpg,AMSA04.jpg,AMNE16.jpg,MN,1,num_2,16,num_2,1.16671488457,,,2018_Jan_10_1130,59.9936115466,FEMA4ImagesEEG,001,102726,
AFNE01.JPG,AFNE01.JPG,AFNE01.JPG,AFNE01.JPG,AFNE01.JPG,AFNE01.JPG,,,,,,,,,,,,,,,,,,,,,0,3,3,0,,,AMNE19.jpg,AMNE03.jpg,AMSA02.jpg,AMSA01.jpg,AMNE19.jpg,MN,1,num_8,16,num_8,1.05009798612,,,2018_Jan_10_1130,59.9936115466,FEMA4ImagesEEG,001,102726,
AFNE01.JPG,AFNE01.JPG,AFNE01.JPG,AFNE01.JPG,AFNE01.JPG,AFNE01.JPG,,,,,,,,,,,,,,,,,,,,,0,4,4,2,,,AMSA04.jpg,AMSA20.jpg,AMNE06.jpg,AMNE11.jpg,AMSA20.jpg,MS,2,num_6,16,num_6,0.866762674879,,,2018_Jan_10_1130,59.9936115466,FEMA4ImagesEEG,001,102726,
AFNE01.JPG,AFNE01.JPG,AFNE01.JPG,AFNE01.JPG,AFNE01.JPG,AFNE01.JPG,,,,,,,,,,,,,,,,,,,,,0,5,5,3,,,AMNE14.jpg,AMSA08.jpg,AMNE19.jpg,AMSA11.jpg,AMSA11.jpg,MS,2,num_4,32,num_6,0.983464890392,,,2018_Jan_10_1130,59.9936115466,FEMA4ImagesEEG,001,102726,
AFNE01.JPG,AFNE01.JPG,AFNE01.JPG,AFNE01.JPG,AFNE01.JPG,AFNE01.JPG,,,,,,,,,,,,,,,,,,,,,0,6,6,6,,,AMNE17.jpg,AMSA02.jpg,AMNE20.jpg,AMSA16.jpg,AMSA02.jpg,MS,2,num_6,16,num_6,1.80005452572,,,2018_Jan_10_1130,59.9936115466,FEMA4ImagesEEG,001,102726,
AFNE01.JPG,AFNE01.JPG,AFNE01.JPG,AFNE01.JPG,AFNE01.JPG,AFNE01.JPG,,,,,,,,,,,,,,,,,,,,,0,7,7,4,,,AMNE08.jpg,AMNE16.jpg,AMSA11.jpg,AMSA05.jpg,AMNE08.jpg,MN,1,num_8,32,num_6,1.29999037762,,,2018_Jan_10_1130,59.9936115466,FEMA4ImagesEEG,001,102726,
AFNE01.JPG,AFNE01.JPG,AFNE01.JPG,AFNE01.JPG,AFNE01.JPG,AFNE01.JPG,,,,,,,,,,,,,,,,,,,,,0,8,8,1,,,AMSA18.jpg,AMNE07.jpg,AMSA14.jpg,AMNE03.jpg,AMNE07.jpg,MN,1,num_6,32,num_4,1.08331831195,,,2018_Jan_10_1130,59.9936115466,FEMA4ImagesEEG,001,102726,
AFNE01.JPG,AFNE01.JPG,AFNE01.JPG,AFNE01.JPG,AFNE01.JPG,AFNE01.JPG,,,,,,,,,,,,,,,,,,,,,0,9,9,9,,,AMNE08.jpg,AMSA14.jpg,AMSA09.jpg,AMNE15.jpg,AMSA14.jpg,MS,2,num_6,16,num_6,1.1166887444,,,2018_Jan_10_1130,59.9936115466,FEMA4ImagesEEG,001,102726,
AFNE01.JPG,AFNE01.JPG,AFNE01.JPG,AFNE01.JPG,AFNE01.JPG,AFNE01.JPG,,,,,,,,,,,,,,,,,,,,,1,0,10,9,,,AMSA03.jpg,AMNE05.jpg,AMSA08.jpg,AMNE07.jpg,AMSA08.jpg,MS,2,num_2,16,num_2,0.700130861951,,,2018_Jan_10_1130,59.9936115466,FEMA4ImagesEEG,001,102726,
AFNE01.JPG,AFNE01.JPG,AFNE01.JPG,AFNE01.JPG,AFNE01.JPG,AFNE01.JPG,,,,,,,,,,,,,,,,,,,,,1,1,11,5,,,AMNE13.jpg,AMNE20.jpg,AMSA10.jpg,AMSA03.jpg,AMSA03.jpg,MS,2,num_4,16,num_4,0.916723384289,,,2018_Jan_10_1130,59.9936115466,FEMA4ImagesEEG,001,102726,
AFNE01.JPG,AFNE01.JPG,AFNE01.JPG,AFNE01.JPG,AFNE01.JPG,AFNE01.JPG,,,,,,,,,,,,,,,,,,,,,1,2,12,3,,,AMSA08.jpg,AMSA07.jpg,AMNE01.jpg,AMNE14.jpg,AMNE01.jpg,MN,1,num_2,16,num_2,1.38340491173,,,2018_Jan_10_1130,59.9936115466,FEMA4ImagesEEG,001,102726,
AFNE01.JPG,AFNE01.JPG,AFNE01.JPG,AFNE01.JPG,AFNE01.JPG,AFNE01.JPG,,,,,,,,,,,,,,,,,,,,,1,3,13,4,,,AMSA18.jpg,AMSA04.jpg,AMNE08.jpg,AMNE19.jpg,AMNE08.jpg,MN,1,num_2,16,num_2,0.837996144779,,,2018_Jan_10_1130,59.9936115466,FEMA4ImagesEEG,001,102726,
AFNE01.JPG,AFNE01.JPG,AFNE01.JPG,AFNE01.JPG,AFNE01.JPG,AFNE01.JPG,,,,,,,,,,,,,,,,,,,,,1,4,14,7,,,AMSA18.jpg,AMNE15.jpg,AMNE09.jpg,AMSA09.jpg,AMNE15.jpg,MN,1,num_6,16,num_6,0.583469701232,,,2018_Jan_10_1130,59.9936115466,FEMA4ImagesEEG,001,102726,
AFNE01.JPG,AFNE01.JPG,AFNE01.JPG,AFNE01.JPG,AFNE01.JPG,AFNE01.JPG,,,,,,,,,,,,,,,,,,,,,1,5,15,8,,,AMNE03.jpg,AMNE09.jpg,AMSA14.jpg,AMSA09.jpg,AMNE03.jpg,MN,1,num_8,16,num_8,0.85011017439,,,2018_Jan_10_1130,59.9936115466,FEMA4ImagesEEG,001,102726,
AFNE01.JPG,AFNE01.JPG,AFNE01.JPG,AFNE01.JPG,AFNE01.JPG,AFNE01.JPG,,,,,,,,,,,,,,,,,,,,,1,6,16,6,,,AMNE10.jpg,AMSA03.jpg,AMSA17.jpg,AMNE13.jpg,AMNE13.jpg,MN,1,num_4,16,num_4,2.99999615108,,,2018_Jan_10_1130,59.9936115466,FEMA4ImagesEEG,001,102726,
AFNE01.JPG,AFNE01.JPG,AFNE01.JPG,AFNE01.JPG,AFNE01.JPG,AFNE01.JPG,,,,,,,,,,,,,,,,,,,,,1,7,17,1,,,AMNE11.jpg,AMSA06.jpg,AMSA18.jpg,AMNE20.jpg,AMNE20.jpg,MN,1,num_4,32,num_8,1.29992911639,,,2018_Jan_10_1130,59.9936115466,FEMA4ImagesEEG,001,102726,
AFNE01.JPG,AFNE01.JPG,AFNE01.JPG,AFNE01.JPG,AFNE01.JPG,AFNE01.JPG,,,,,,,,,,,,,,,,,,,,,1,8,18,0,,,AMSA20.jpg,AMSA09.jpg,AMNE05.jpg,AMNE09.jpg,AMNE05.jpg,MN,1,num_2,16,num_2,0.900149143999,,,2018_Jan_10_1130,59.9936115466,FEMA4ImagesEEG,001,102726,
AFNE01.JPG,AFNE01.JPG,AFNE01.JPG,AFNE01.JPG,AFNE01.JPG,AFNE01.JPG,,,,,,,,,,,,,,,,,,,,,1,9,19,2,,,AMNE15.jpg,AMNE10.jpg,AMSA08.jpg,AMSA05.jpg,AMNE10.jpg,MN,1,num_6,16,num_6,1.41672434635,,,2018_Jan_10_1130,59.9936115466,FEMA4ImagesEEG,001,102726,
AFNE01.JPG,AFNE01.JPG,AFNE01.JPG,AFNE01.JPG,AFNE01.JPG,AFNE01.JPG,,,,,,,,,,,,,,,,,,,,,2,0,20,5,,,AMSA06.jpg,AMSA12.jpg,AMNE18.jpg,AMNE14.jpg,AMNE14.jpg,MN,1,num_4,16,num_4,1.85005693138,,,2018_Jan_10_1130,59.9936115466,FEMA4ImagesEEG,001,102726,
AFNE01.JPG,AFNE01.JPG,AFNE01.JPG,AFNE01.JPG,AFNE01.JPG,AFNE01.JPG,,,,,,,,,,,,,,,,,,,,,2,1,21,1,,,AMNE04.jpg,AMSA07.jpg,AMSA18.jpg,AMNE15.jpg,AMNE04.jpg,MN,1,num_8,16,num_8,1.9500466676,,,2018_Jan_10_1130,59.9936115466,FEMA4ImagesEEG,001,102726,
AFNE01.JPG,AFNE01.JPG,AFNE01.JPG,AFNE01.JPG,AFNE01.JPG,AFNE01.JPG,,,,,,,,,,,,,,,,,,,,,2,2,22,7,,,AMNE10.jpg,AMNE04.jpg,AMSA07.jpg,AMSA20.jpg,AMSA20.jpg,MS,2,num_4,32,num_2,1.15007296833,,,2018_Jan_10_1130,59.9936115466,FEMA4ImagesEEG,001,102726,
AFNE01.JPG,AFNE01.JPG,AFNE01.JPG,AFNE01.JPG,AFNE01.JPG,AFNE01.JPG,,,,,,,,,,,,,,,,,,,,,2,3,23,6,,,AMNE02.jpg,AMSA02.jpg,AMSA10.jpg,AMNE09.jpg,AMSA02.jpg,MS,2,num_6,32,num_2,1.41674904339,,,2018_Jan_10_1130,59.9936115466,FEMA4ImagesEEG,001,102726,
AFNE01.JPG,AFNE01.JPG,AFNE01.JPG,AFNE01.JPG,AFNE01.JPG,AFNE01.JPG,,,,,,,,,,,,,,,,,,,,,2,4,24,2,,,AMSA18.jpg,AMNE02.jpg,AMNE06.jpg,AMSA17.jpg,AMNE02.jpg,MN,1,num_6,32,num_8,1.21677855146,,,2018_Jan_10_1130,59.9936115466,FEMA4ImagesEEG,001,102726,
AFNE01.JPG,AFNE01.JPG,AFNE01.JPG,AFNE01.JPG,AFNE01.JPG,AFNE01.JPG,,,,,,,,,,,,,,,,,,,,,2,5,25,9,,,AMNE04.jpg,AMSA10.jpg,AMSA02.jpg,AMNE20.jpg,AMNE20.jpg,MN,1,num_4,16,num_4,2.21669131005,,,2018_Jan_10_1130,59.9936115466,FEMA4ImagesEEG,001,102726,
AFNE01.JPG,AFNE01.JPG,AFNE01.JPG,AFNE01.JPG,AFNE01.JPG,AFNE01.JPG,,,,,,,,,,,,,,,,,,,,,2,6,26,0,,,AMNE14.jpg,AMSA18.jpg,AMSA19.jpg,AMNE02.jpg,AMSA19.jpg,MS,2,num_2,16,num_2,1.01676187315,,,2018_Jan_10_1130,59.9936115466,FEMA4ImagesEEG,001,102726,
AFNE01.JPG,AFNE01.JPG,AFNE01.JPG,AFNE01.JPG,AFNE01.JPG,AFNE01.JPG,,,,,,,,,,,,,,,,,,,,,2,7,27,4,,,AMSA19.jpg,AMNE10.jpg,AMSA10.jpg,AMNE18.jpg,AMSA19.jpg,MS,2,num_8,16,num_8,2.45003768709,,,2018_Jan_10_1130,59.9936115466,FEMA4ImagesEEG,001,102726,
AFNE01.JPG,AFNE01.JPG,AFNE01.JPG,AFNE01.JPG,AFNE01.JPG,AFNE01.JPG,,,,,,,,,,,,,,,,,,,,,2,8,28,3,,,AMNE04.jpg,AMSA16.jpg,AMSA03.jpg,AMNE17.jpg,AMNE17.jpg,MN,1,num_4,16,num_4,2.84993184265,,,2018_Jan_10_1130,59.9936115466,FEMA4ImagesEEG,001,102726,
AFNE01.JPG,AFNE01.JPG,AFNE01.JPG,AFNE01.JPG,AFNE01.JPG,AFNE01.JPG,,,,,,,,,,,,,,,,,,,,,2,9,29,8,,,AMNE12.jpg,AMSA07.jpg,AMNE01.jpg,AMSA13.jpg,AMNE12.jpg,MN,1,num_8,16,num_8,0.950240715407,,,2018_Jan_10_1130,59.9936115466,FEMA4ImagesEEG,001,102726,
AFNE01.JPG,AFNE01.JPG,AFNE01.JPG,AFNE01.JPG,AFNE01.JPG,AFNE01.JPG,,,,,,,,,,,,,,,,,,,,,3,0,30,8,,,AMSA09.jpg,AMNE06.jpg,AMNE11.jpg,AMSA12.jpg,AMSA12.jpg,MS,2,num_4,32,num_8,2.0666844144,,,2018_Jan_10_1130,59.9936115466,FEMA4ImagesEEG,001,102726,
AFNE01.JPG,AFNE01.JPG,AFNE01.JPG,AFNE01.JPG,AFNE01.JPG,AFNE01.JPG,,,,,,,,,,,,,,,,,,,,,3,1,31,0,,,AMNE16.jpg,AMSA10.jpg,AMSA01.jpg,AMNE03.jpg,AMSA10.jpg,MS,2,num_6,16,num_6,0.783401704393,,,2018_Jan_10_1130,59.9936115466,FEMA4ImagesEEG,001,102726,
AFNE01.JPG,AFNE01.JPG,AFNE01.JPG,AFNE01.JPG,AFNE01.JPG,AFNE01.JPG,,,,,,,,,,,,,,,,,,,,,3,2,32,1,,,AMNE12.jpg,AMSA16.jpg,AMNE10.jpg,AMSA11.jpg,AMNE10.jpg,MN,1,num_2,32,num_8,1.6002152164,,,2018_Jan_10_1130,59.9936115466,FEMA4ImagesEEG,001,102726,
AFNE01.JPG,AFNE01.JPG,AFNE01.JPG,AFNE01.JPG,AFNE01.JPG,AFNE01.JPG,,,,,,,,,,,,,,,,,,,,,3,3,33,3,,,AMSA09.jpg,AMNE02.jpg,AMSA07.jpg,AMNE07.jpg,AMNE07.jpg,MN,1,num_4,16,num_4,1.03316964884,,,2018_Jan_10_1130,59.9936115466,FEMA4ImagesEEG,001,102726,
AFNE01.JPG,AFNE01.JPG,AFNE01.JPG,AFNE01.JPG,AFNE01.JPG,AFNE01.JPG,,,,,,,,,,,,,,,,,,,,,3,4,34,5,,,AMNE16.jpg,AMSA19.jpg,AMSA08.jpg,AMNE09.jpg,AMSA19.jpg,MS,2,num_6,16,num_6,0.73344837199,,,2018_Jan_10_1130,59.9936115466,FEMA4ImagesEEG,001,102726,
AFNE01.JPG,AFNE01.JPG,AFNE01.JPG,AFNE01.JPG,AFNE01.JPG,AFNE01.JPG,,,,,,,,,,,,,,,,,,,,,3,5,35,4,,,AMSA15.jpg,AMNE09.jpg,AMSA01.jpg,AMNE12.jpg,AMSA15.jpg,MS,2,num_8,32,num_2,1.16660743672,,,2018_Jan_10_1130,59.9936115466,FEMA4ImagesEEG,001,102726,
AFNE01.JPG,AFNE01.JPG,AFNE01.JPG,AFNE01.JPG,AFNE01.JPG,AFNE01.JPG,,,,,,,,,,,,,,,,,,,,,3,6,36,2,,,AMNE19.jpg,AMSA20.jpg,AMNE13.jpg,AMSA01.jpg,AMNE19.jpg,MN,1,num_8,16,num_8,1.00008210936,,,2018_Jan_10_1130,59.9936115466,FEMA4ImagesEEG,001,102726,
AFNE01.JPG,AFNE01.JPG,AFNE01.JPG,AFNE01.JPG,AFNE01.JPG,AFNE01.JPG,,,,,,,,,,,,,,,,,,,,,3,7,37,7,,,AMNE18.jpg,AMNE01.jpg,AMSA20.jpg,AMSA07.jpg,AMNE18.jpg,MN,1,num_8,16,num_8,0.933449334232,,,2018_Jan_10_1130,59.9936115466,FEMA4ImagesEEG,001,102726,
AFNE01.JPG,AFNE01.JPG,AFNE01.JPG,AFNE01.JPG,AFNE01.JPG,AFNE01.JPG,,,,,,,,,,,,,,,,,,,,,3,8,38,6,,,AMSA20.jpg,AMNE04.jpg,AMNE08.jpg,AMSA12.jpg,AMNE04.jpg,MN,1,num_6,16,num_6,0.716786249075,,,2018_Jan_10_1130,59.9936115466,FEMA4ImagesEEG,001,102726,
