IPosition2,IPosition3,IPosition1,IPosition6,IPosition4,IPosition5,TrialsM1.thisRepN,TrialsM1.thisTrialN,TrialsM1.thisN,TrialsM1.thisIndex,TrialsF1.thisRepN,TrialsF1.thisTrialN,TrialsF1.thisN,TrialsF1.thisIndex,TrialsM2.thisRepN,TrialsM2.thisTrialN,TrialsM2.thisN,TrialsM2.thisIndex,TrialsF2.thisRepN,TrialsF2.thisTrialN,TrialsF2.thisN,TrialsF2.thisIndex,TrialsM3.thisRepN,TrialsM3.thisTrialN,TrialsM3.thisN,TrialsM3.thisIndex,TrialsF3.thisRepN,TrialsF3.thisTrialN,TrialsF3.thisN,TrialsF3.thisIndex,InstrKey_resp.keys,InstrKey_resp.rt,Image0 _Position,Image1 _Position,Image2 _Position,Image3 _Position,Center_image,condition,code,correct_answer,accuracy,Key_Resp.keys,Key_Resp.rt,BreakKey_resp.keys,BreakKey_resp.rt,date,frameRate,expName,session,participant,
,,,,,,,,,,,,,,,,,,,,,,,,,,,,,,space,9.84957867673,,,,,,,,,,,,,,2018_Jan_23_1846,60.0072367532,MAFE4ImagesEEG,001,102779,
AMSA21.JPG,AMNE22.JPG,AMNE21.JPG,AMSA23.JPG,AMSA22.JPG,AMNE23.JPG,0,0,0,1,,,,,,,,,,,,,,,,,,,,,,,AMNE20.jpg,AMSA09.jpg,AMNE15.jpg,AMSA08.jpg,AMNE15.jpg,MN,1,num_2,32,num_8,1.10011110413,,,2018_Jan_23_1846,60.0072367532,MAFE4ImagesEEG,001,102779,
AMSA21.JPG,AMNE23.JPG,AMNE21.JPG,AMSA25.JPG,AMNE25.JPG,AMSA23.JPG,0,1,1,5,,,,,,,,,,,,,,,,,,,,,,,AMNE03.jpg,AMSA07.jpg,AMNE08.jpg,AMSA11.jpg,AMSA11.jpg,MS,2,num_4,32,num_2,2.38331404619,,,2018_Jan_23_1846,60.0072367532,MAFE4ImagesEEG,001,102779,
AMSA25.JPG,AMNE24.JPG,AMSA24.JPG,AMNE26.JPG,AMSA21.JPG,AMNE25.JPG,0,2,2,3,,,,,,,,,,,,,,,,,,,,,,,AMNE06.jpg,AMNE20.jpg,AMSA01.jpg,AMSA16.jpg,AMNE20.jpg,MN,1,num_6,32,num_4,0.916765240574,,,2018_Jan_23_1846,60.0072367532,MAFE4ImagesEEG,001,102779,
AMNE22.JPG,AMSA24.JPG,AMSA22.JPG,AMNE25.JPG,AMNE24.JPG,AMSA25.JPG,0,3,3,7,,,,,,,,,,,,,,,,,,,,,,,AMSA20.jpg,AMNE03.jpg,AMNE05.jpg,AMSA07.jpg,AMSA07.jpg,MS,2,num_4,16,num_4,1.00016838819,,,2018_Jan_23_1846,60.0072367532,MAFE4ImagesEEG,001,102779,
AFSA25.JPG,AFNE24.JPG,AFSA24.JPG,AFNE21.JPG,AFSA21.JPG,AFNE25.JPG,0,4,4,2,,,,,,,,,,,,,,,,,,,,,,,AMNE11.jpg,AMSA14.jpg,AMSA02.jpg,AMNE07.jpg,AMNE11.jpg,MN,1,num_8,16,num_8,0.983402698563,,,2018_Jan_23_1846,60.0072367532,MAFE4ImagesEEG,001,102779,
AFNE22.JPG,AFSA24.JPG,AFSA22.JPG,AFNE25.JPG,AFNE24.JPG,AFSA25.JPG,0,5,5,6,,,,,,,,,,,,,,,,,,,,,,,AMSA20.jpg,AMNE17.jpg,AMSA01.jpg,AMNE16.jpg,AMNE17.jpg,MN,1,num_6,16,num_6,0.733449847263,,,2018_Jan_23_1846,60.0072367532,MAFE4ImagesEEG,001,102779,
AMNE23.JPG,AMNE24.JPG,AMNE22.JPG,AMSA24.JPG,AMSA22.JPG,AMSA23.JPG,0,6,6,9,,,,,,,,,,,,,,,,,,,,,,,AMSA20.jpg,AMNE01.jpg,AMSA08.jpg,AMNE09.jpg,AMSA20.jpg,MS,2,num_8,32,num_4,0.883454530063,,,2018_Jan_23_1846,60.0072367532,MAFE4ImagesEEG,001,102779,
AFNE23.JPG,AFNE24.JPG,AFNE22.JPG,AFSA24.JPG,AFSA22.JPG,AFSA23.JPG,0,7,7,8,,,,,,,,,,,,,,,,,,,,,,,AMSA19.jpg,AMNE16.jpg,AMNE17.jpg,AMSA09.jpg,AMSA09.jpg,MS,2,num_4,16,num_4,0.800257297145,,,2018_Jan_23_1846,60.0072367532,MAFE4ImagesEEG,001,102779,
AFSA21.JPG,AFNE22.JPG,AFNE21.JPG,AFSA23.JPG,AFSA22.JPG,AFNE23.JPG,0,8,8,0,,,,,,,,,,,,,,,,,,,,,,,AMSA01.jpg,AMNE09.jpg,AMSA11.jpg,AMNE06.jpg,AMNE06.jpg,MN,1,num_4,16,num_4,1.0333251438,,,2018_Jan_23_1846,60.0072367532,MAFE4ImagesEEG,001,102779,
AFSA21.JPG,AFNE23.JPG,AFNE21.JPG,AFSA25.JPG,AFNE25.JPG,AFSA23.JPG,0,9,9,4,,,,,,,,,,,,,,,,,,,,,,,AMNE09.jpg,AMNE04.jpg,AMSA10.jpg,AMSA12.jpg,AMNE09.jpg,MN,1,num_8,16,num_8,1.56670802068,,,2018_Jan_23_1846,60.0072367532,MAFE4ImagesEEG,001,102779,
AFSA21.JPG,AFNE22.JPG,AFNE21.JPG,AFSA23.JPG,AFSA22.JPG,AFNE23.JPG,,,,,0,0,0,0,,,,,,,,,,,,,,,,,,,AFSA17.jpg,AFNE20.jpg,AFNE17.jpg,AFSA06.jpg,AFNE20.jpg,FN,3,num_6,16,num_6,0.750151389002,,,2018_Jan_23_1846,60.0072367532,MAFE4ImagesEEG,001,102779,
AFSA25.JPG,AFNE24.JPG,AFSA24.JPG,AFNE21.JPG,AFSA21.JPG,AFNE25.JPG,,,,,0,1,1,2,,,,,,,,,,,,,,,,,,,AFNE06.jpg,AFSA20.jpg,AFNE04.jpg,AFSA09.jpg,AFSA20.jpg,FS,4,num_6,32,num_4,0.616916244675,,,2018_Jan_23_1846,60.0072367532,MAFE4ImagesEEG,001,102779,
AMSA21.JPG,AMNE22.JPG,AMNE21.JPG,AMSA23.JPG,AMSA22.JPG,AMNE23.JPG,,,,,0,2,2,1,,,,,,,,,,,,,,,,,,,AFNE10.jpg,AFNE09.jpg,AFSA17.jpg,AFSA07.jpg,AFNE09.jpg,FN,3,num_6,32,num_8,1.28341495081,,,2018_Jan_23_1846,60.0072367532,MAFE4ImagesEEG,001,102779,
AFNE22.JPG,AFSA24.JPG,AFSA22.JPG,AFNE25.JPG,AFNE24.JPG,AFSA25.JPG,,,,,0,3,3,6,,,,,,,,,,,,,,,,,,,AFNE16.jpg,AFNE06.jpg,AFSA11.jpg,AFSA01.jpg,AFSA11.jpg,FS,4,num_2,16,num_2,1.63339583475,,,2018_Jan_23_1846,60.0072367532,MAFE4ImagesEEG,001,102779,
AFSA21.JPG,AFNE23.JPG,AFNE21.JPG,AFSA25.JPG,AFNE25.JPG,AFSA23.JPG,,,,,0,4,4,4,,,,,,,,,,,,,,,,,,,AFNE02.jpg,AFNE16.jpg,AFSA20.jpg,AFSA18.jpg,AFNE16.jpg,FN,3,num_6,32,num_8,1.3333762055,,,2018_Jan_23_1846,60.0072367532,MAFE4ImagesEEG,001,102779,
AMNE23.JPG,AMNE24.JPG,AMNE22.JPG,AMSA24.JPG,AMSA22.JPG,AMSA23.JPG,,,,,0,5,5,9,,,,,,,,,,,,,,,,,,,AFNE19.jpg,AFSA20.jpg,AFSA19.jpg,AFNE13.jpg,AFSA20.jpg,FS,4,num_6,32,num_2,1.30015241537,,,2018_Jan_23_1846,60.0072367532,MAFE4ImagesEEG,001,102779,
AFNE23.JPG,AFNE24.JPG,AFNE22.JPG,AFSA24.JPG,AFSA22.JPG,AFSA23.JPG,,,,,0,6,6,8,,,,,,,,,,,,,,,,,,,AFSA02.jpg,AFSA13.jpg,AFNE13.jpg,AFNE14.jpg,AFSA13.jpg,FS,4,num_6,32,num_2,1.3001315673,,,2018_Jan_23_1846,60.0072367532,MAFE4ImagesEEG,001,102779,
AMNE22.JPG,AMSA24.JPG,AMSA22.JPG,AMNE25.JPG,AMNE24.JPG,AMSA25.JPG,,,,,0,7,7,7,,,,,,,,,,,,,,,,,,,AFNE04.jpg,AFSA07.jpg,AFNE13.jpg,AFSA13.jpg,AFNE13.jpg,FN,3,num_2,32,num_8,0.850122009273,,,2018_Jan_23_1846,60.0072367532,MAFE4ImagesEEG,001,102779,
AMSA25.JPG,AMNE24.JPG,AMSA24.JPG,AMNE26.JPG,AMSA21.JPG,AMNE25.JPG,,,,,0,8,8,3,,,,,,,,,,,,,,,,,,,AFSA17.jpg,AFSA08.jpg,AFNE04.jpg,AFNE05.jpg,AFSA17.jpg,FS,4,num_8,32,num_6,1.06649921932,,,2018_Jan_23_1846,60.0072367532,MAFE4ImagesEEG,001,102779,
AMSA21.JPG,AMNE23.JPG,AMNE21.JPG,AMSA25.JPG,AMNE25.JPG,AMSA23.JPG,,,,,0,9,9,5,,,,,,,,,,,,,,,,,,,AFSA03.jpg,AFNE12.jpg,AFNE04.jpg,AFSA08.jpg,AFSA08.jpg,FS,4,num_4,32,num_2,0.333466654018,,,2018_Jan_23_1846,60.0072367532,MAFE4ImagesEEG,001,102779,
AMSA21.JPG,AMNE23.JPG,AMNE21.JPG,AMSA25.JPG,AMNE25.JPG,AMSA23.JPG,,,,,,,,,0,0,0,5,,,,,,,,,,,,,,,AMSA02.jpg,AMNE19.jpg,AMSA13.jpg,AMNE13.jpg,AMNE13.jpg,MN,1,num_4,32,num_6,1.13351033871,,,2018_Jan_23_1846,60.0072367532,MAFE4ImagesEEG,001,102779,
AFSA25.JPG,AFNE24.JPG,AFSA24.JPG,AFNE21.JPG,AFSA21.JPG,AFNE25.JPG,,,,,,,,,0,1,1,2,,,,,,,,,,,,,,,AMSA16.jpg,AMSA11.jpg,AMNE12.jpg,AMNE03.jpg,AMSA16.jpg,MS,2,num_8,32,num_4,2.15032574293,,,2018_Jan_23_1846,60.0072367532,MAFE4ImagesEEG,001,102779,
AFNE22.JPG,AFSA24.JPG,AFSA22.JPG,AFNE25.JPG,AFNE24.JPG,AFSA25.JPG,,,,,,,,,0,2,2,6,,,,,,,,,,,,,,,AMNE04.jpg,AMSA09.jpg,AMSA08.jpg,AMNE02.jpg,AMSA09.jpg,MS,2,num_6,32,num_8,0.800145679823,,,2018_Jan_23_1846,60.0072367532,MAFE4ImagesEEG,001,102779,
AMSA25.JPG,AMNE24.JPG,AMSA24.JPG,AMNE26.JPG,AMSA21.JPG,AMNE25.JPG,,,,,,,,,0,3,3,3,,,,,,,,,,,,,,,AMNE07.jpg,AMNE09.jpg,AMSA01.jpg,AMSA02.jpg,AMSA02.jpg,MS,2,num_4,16,num_4,0.766791028029,,,2018_Jan_23_1846,60.0072367532,MAFE4ImagesEEG,001,102779,
AMNE23.JPG,AMNE24.JPG,AMNE22.JPG,AMSA24.JPG,AMSA22.JPG,AMSA23.JPG,,,,,,,,,0,4,4,9,,,,,,,,,,,,,,,AMSA02.jpg,AMNE09.jpg,AMNE17.jpg,AMSA20.jpg,AMSA20.jpg,MS,2,num_4,16,num_4,0.683432463193,,,2018_Jan_23_1846,60.0072367532,MAFE4ImagesEEG,001,102779,
AFNE23.JPG,AFNE24.JPG,AFNE22.JPG,AFSA24.JPG,AFSA22.JPG,AFSA23.JPG,,,,,,,,,0,5,5,8,,,,,,,,,,,,,,,AMSA19.jpg,AMNE13.jpg,AMSA06.jpg,AMNE20.jpg,AMNE13.jpg,MN,1,num_6,32,num_4,0.583444202246,,,2018_Jan_23_1846,60.0072367532,MAFE4ImagesEEG,001,102779,
AFSA21.JPG,AFNE22.JPG,AFNE21.JPG,AFSA23.JPG,AFSA22.JPG,AFNE23.JPG,,,,,,,,,0,6,6,0,,,,,,,,,,,,,,,AMSA02.jpg,AMNE20.jpg,AMSA16.jpg,AMNE11.jpg,AMSA02.jpg,MS,2,num_8,32,num_4,0.78356762277,,,2018_Jan_23_1846,60.0072367532,MAFE4ImagesEEG,001,102779,
AMNE22.JPG,AMSA24.JPG,AMSA22.JPG,AMNE25.JPG,AMNE24.JPG,AMSA25.JPG,,,,,,,,,0,7,7,7,,,,,,,,,,,,,,,AMSA20.jpg,AMSA09.jpg,AMNE11.jpg,AMNE15.jpg,AMNE11.jpg,MN,1,num_2,16,num_2,1.43344753794,,,2018_Jan_23_1846,60.0072367532,MAFE4ImagesEEG,001,102779,
AMSA21.JPG,AMNE22.JPG,AMNE21.JPG,AMSA23.JPG,AMSA22.JPG,AMNE23.JPG,,,,,,,,,0,8,8,1,,,,,,,,,,,,,,,AMSA02.jpg,AMSA08.jpg,AMNE05.jpg,AMNE15.jpg,AMSA08.jpg,MS,2,num_6,16,num_6,0.883467680367,,,2018_Jan_23_1846,60.0072367532,MAFE4ImagesEEG,001,102779,
AFSA21.JPG,AFNE23.JPG,AFNE21.JPG,AFSA25.JPG,AFNE25.JPG,AFSA23.JPG,,,,,,,,,0,9,9,4,,,,,,,,,,,,,,,AMNE19.jpg,AMNE02.jpg,AMSA14.jpg,AMSA05.jpg,AMSA05.jpg,MS,2,num_4,32,num_8,0.916541043727,,,2018_Jan_23_1846,60.0072367532,MAFE4ImagesEEG,001,102779,
AFSA25.JPG,AFNE24.JPG,AFSA24.JPG,AFNE21.JPG,AFSA21.JPG,AFNE25.JPG,,,,,,,,,,,,,0,0,0,2,,,,,,,,,,,AFNE03.jpg,AFSA03.jpg,AFSA16.jpg,AFNE08.jpg,AFSA16.jpg,FS,4,num_2,32,num_6,1.13350520688,,,2018_Jan_23_1846,60.0072367532,MAFE4ImagesEEG,001,102779,
AMNE22.JPG,AMSA24.JPG,AMSA22.JPG,AMNE25.JPG,AMNE24.JPG,AMSA25.JPG,,,,,,,,,,,,,0,1,1,7,,,,,,,,,,,AFSA12.jpg,AFSA09.jpg,AFNE13.jpg,AFNE10.jpg,AFSA12.jpg,FS,4,num_8,16,num_8,0.583512519748,,,2018_Jan_23_1846,60.0072367532,MAFE4ImagesEEG,001,102779,
AMSA21.JPG,AMNE22.JPG,AMNE21.JPG,AMSA23.JPG,AMSA22.JPG,AMNE23.JPG,,,,,,,,,,,,,0,2,2,1,,,,,,,,,,,AFSA16.jpg,AFSA10.jpg,AFNE19.jpg,AFNE01.jpg,AFSA10.jpg,FS,4,num_6,32,num_2,1.43342476543,,,2018_Jan_23_1846,60.0072367532,MAFE4ImagesEEG,001,102779,
AFNE23.JPG,AFNE24.JPG,AFNE22.JPG,AFSA24.JPG,AFSA22.JPG,AFSA23.JPG,,,,,,,,,,,,,0,3,3,8,,,,,,,,,,,AFSA06.jpg,AFNE08.jpg,AFSA09.jpg,AFNE12.jpg,AFSA09.jpg,FS,4,num_2,32,num_6,0.850200911154,,,2018_Jan_23_1846,60.0072367532,MAFE4ImagesEEG,001,102779,
AMNE23.JPG,AMNE24.JPG,AMNE22.JPG,AMSA24.JPG,AMSA22.JPG,AMSA23.JPG,,,,,,,,,,,,,0,4,4,9,,,,,,,,,,,AFSA06.jpg,AFNE11.jpg,AFNE04.jpg,AFSA19.jpg,AFNE11.jpg,FN,3,num_6,16,num_6,0.783462099513,,,2018_Jan_23_1846,60.0072367532,MAFE4ImagesEEG,001,102779,
AFSA21.JPG,AFNE22.JPG,AFNE21.JPG,AFSA23.JPG,AFSA22.JPG,AFNE23.JPG,,,,,,,,,,,,,0,5,5,0,,,,,,,,,,,AFSA05.jpg,AFNE16.jpg,AFSA13.jpg,AFNE10.jpg,AFNE10.jpg,FN,3,num_4,32,num_6,1.31668845557,,,2018_Jan_23_1846,60.0072367532,MAFE4ImagesEEG,001,102779,
AFSA21.JPG,AFNE23.JPG,AFNE21.JPG,AFSA25.JPG,AFNE25.JPG,AFSA23.JPG,,,,,,,,,,,,,0,6,6,4,,,,,,,,,,,AFNE15.jpg,AFSA12.jpg,AFSA19.jpg,AFNE04.jpg,AFSA12.jpg,FS,4,num_6,32,num_2,1.2332718369,,,2018_Jan_23_1846,60.0072367532,MAFE4ImagesEEG,001,102779,
AMSA25.JPG,AMNE24.JPG,AMSA24.JPG,AMNE26.JPG,AMSA21.JPG,AMNE25.JPG,,,,,,,,,,,,,0,7,7,3,,,,,,,,,,,AFNE19.jpg,AFSA19.jpg,AFSA08.jpg,AFNE05.jpg,AFNE05.jpg,FN,3,num_4,32,num_2,1.13351707424,,,2018_Jan_23_1846,60.0072367532,MAFE4ImagesEEG,001,102779,
AMSA21.JPG,AMNE23.JPG,AMNE21.JPG,AMSA25.JPG,AMNE25.JPG,AMSA23.JPG,,,,,,,,,,,,,0,8,8,5,,,,,,,,,,,AFNE02.jpg,AFSA02.jpg,AFSA19.jpg,AFNE04.jpg,AFNE02.jpg,FN,3,num_8,16,num_8,0.966902260436,,,2018_Jan_23_1846,60.0072367532,MAFE4ImagesEEG,001,102779,
AFNE22.JPG,AFSA24.JPG,AFSA22.JPG,AFNE25.JPG,AFNE24.JPG,AFSA25.JPG,,,,,,,,,,,,,0,9,9,6,,,,,,,,,,,AFNE11.jpg,AFNE04.jpg,AFSA02.jpg,AFSA07.jpg,AFNE04.jpg,FN,3,num_6,32,num_2,1.05012611473,,,2018_Jan_23_1846,60.0072367532,MAFE4ImagesEEG,001,102779,
AFSA21.JPG,AFNE22.JPG,AFNE21.JPG,AFSA23.JPG,AFSA22.JPG,AFNE23.JPG,,,,,,,,,,,,,,,,,0,0,0,0,,,,,,,AMNE10.jpg,AMSA12.jpg,AMSA18.jpg,AMNE08.jpg,AMNE08.jpg,MN,1,num_4,32,num_6,1.41648876321,,,2018_Jan_23_1846,60.0072367532,MAFE4ImagesEEG,001,102779,
AFNE23.JPG,AFNE24.JPG,AFNE22.JPG,AFSA24.JPG,AFSA22.JPG,AFSA23.JPG,,,,,,,,,,,,,,,,,0,1,1,8,,,,,,,AMNE12.jpg,AMSA16.jpg,AMSA09.jpg,AMNE07.jpg,AMSA16.jpg,MS,2,num_6,32,num_4,0.850089293861,,,2018_Jan_23_1846,60.0072367532,MAFE4ImagesEEG,001,102779,
AFSA21.JPG,AFNE23.JPG,AFNE21.JPG,AFSA25.JPG,AFNE25.JPG,AFSA23.JPG,,,,,,,,,,,,,,,,,0,2,2,4,,,,,,,AMNE14.jpg,AMSA15.jpg,AMSA03.jpg,AMNE01.jpg,AMNE14.jpg,MN,1,num_8,16,num_8,0.650022964939,,,2018_Jan_23_1846,60.0072367532,MAFE4ImagesEEG,001,102779,
AMNE22.JPG,AMSA24.JPG,AMSA22.JPG,AMNE25.JPG,AMNE24.JPG,AMSA25.JPG,,,,,,,,,,,,,,,,,0,3,3,7,,,,,,,AMNE05.jpg,AMSA19.jpg,AMNE08.jpg,AMSA05.jpg,AMSA05.jpg,MS,2,num_4,16,num_4,0.616853059022,,,2018_Jan_23_1846,60.0072367532,MAFE4ImagesEEG,001,102779,
AMNE23.JPG,AMNE24.JPG,AMNE22.JPG,AMSA24.JPG,AMSA22.JPG,AMSA23.JPG,,,,,,,,,,,,,,,,,0,4,4,9,,,,,,,AMNE01.jpg,AMSA16.jpg,AMSA13.jpg,AMNE05.jpg,AMNE01.jpg,MN,1,num_8,32,num_4,0.316847221562,,,2018_Jan_23_1846,60.0072367532,MAFE4ImagesEEG,001,102779,
AFSA25.JPG,AFNE24.JPG,AFSA24.JPG,AFNE21.JPG,AFSA21.JPG,AFNE25.JPG,,,,,,,,,,,,,,,,,0,5,5,2,,,,,,,AMSA15.jpg,AMNE20.jpg,AMNE07.jpg,AMSA14.jpg,AMNE07.jpg,MN,1,num_2,32,num_6,0.600139008457,,,2018_Jan_23_1846,60.0072367532,MAFE4ImagesEEG,001,102779,
AMSA21.JPG,AMNE22.JPG,AMNE21.JPG,AMSA23.JPG,AMSA22.JPG,AMNE23.JPG,,,,,,,,,,,,,,,,,0,6,6,1,,,,,,,AMNE16.jpg,AMNE03.jpg,AMSA20.jpg,AMSA15.jpg,AMSA20.jpg,MS,2,num_2,16,num_2,0.416774862766,,,2018_Jan_23_1846,60.0072367532,MAFE4ImagesEEG,001,102779,
AFNE22.JPG,AFSA24.JPG,AFSA22.JPG,AFNE25.JPG,AFNE24.JPG,AFSA25.JPG,,,,,,,,,,,,,,,,,0,7,7,6,,,,,,,AMNE02.jpg,AMSA16.jpg,AMNE13.jpg,AMSA19.jpg,AMSA16.jpg,MS,2,num_6,32,num_2,0.433466461574,,,2018_Jan_23_1846,60.0072367532,MAFE4ImagesEEG,001,102779,
AMSA25.JPG,AMNE24.JPG,AMSA24.JPG,AMNE26.JPG,AMSA21.JPG,AMNE25.JPG,,,,,,,,,,,,,,,,,0,8,8,3,,,,,,,AMNE18.jpg,AMNE09.jpg,AMSA20.jpg,AMSA18.jpg,AMSA18.jpg,MS,2,num_4,32,num_8,1.01671918239,,,2018_Jan_23_1846,60.0072367532,MAFE4ImagesEEG,001,102779,
AMSA21.JPG,AMNE23.JPG,AMNE21.JPG,AMSA25.JPG,AMNE25.JPG,AMSA23.JPG,,,,,,,,,,,,,,,,,0,9,9,5,,,,,,,AMNE06.jpg,AMSA19.jpg,AMSA02.jpg,AMNE13.jpg,AMNE06.jpg,MN,1,num_8,32,num_4,0.583519896754,,,2018_Jan_23_1846,60.0072367532,MAFE4ImagesEEG,001,102779,
AFSA21.JPG,AFNE22.JPG,AFNE21.JPG,AFSA23.JPG,AFSA22.JPG,AFNE23.JPG,,,,,,,,,,,,,,,,,,,,,0,0,0,0,,,AFSA16.jpg,AFNE15.jpg,AFSA19.jpg,AFNE05.jpg,AFNE05.jpg,FN,3,num_4,16,num_4,0.95013592935,,,2018_Jan_23_1846,60.0072367532,MAFE4ImagesEEG,001,102779,
AFNE22.JPG,AFSA24.JPG,AFSA22.JPG,AFNE25.JPG,AFNE24.JPG,AFSA25.JPG,,,,,,,,,,,,,,,,,,,,,0,1,1,6,,,AFSA17.jpg,AFNE02.jpg,AFSA15.jpg,AFNE03.jpg,AFSA15.jpg,FS,4,num_2,16,num_2,1.06680071434,,,2018_Jan_23_1846,60.0072367532,MAFE4ImagesEEG,001,102779,
AMNE23.JPG,AMNE24.JPG,AMNE22.JPG,AMSA24.JPG,AMSA22.JPG,AMSA23.JPG,,,,,,,,,,,,,,,,,,,,,0,2,2,9,,,AFSA14.jpg,AFSA13.jpg,AFNE19.jpg,AFNE18.jpg,AFNE19.jpg,FN,3,num_2,32,num_6,1.61672219734,,,2018_Jan_23_1846,60.0072367532,MAFE4ImagesEEG,001,102779,
AMSA21.JPG,AMNE22.JPG,AMNE21.JPG,AMSA23.JPG,AMSA22.JPG,AMNE23.JPG,,,,,,,,,,,,,,,,,,,,,0,3,3,1,,,AFNE20.jpg,AFSA09.jpg,AFSA10.jpg,AFNE05.jpg,AFSA10.jpg,FS,4,num_2,16,num_2,1.06674522643,,,2018_Jan_23_1846,60.0072367532,MAFE4ImagesEEG,001,102779,
AMSA25.JPG,AMNE24.JPG,AMSA24.JPG,AMNE26.JPG,AMSA21.JPG,AMNE25.JPG,,,,,,,,,,,,,,,,,,,,,0,4,4,3,,,AFNE19.jpg,AFNE15.jpg,AFSA05.jpg,AFSA08.jpg,AFNE19.jpg,FN,3,num_8,16,num_8,0.533463703207,,,2018_Jan_23_1846,60.0072367532,MAFE4ImagesEEG,001,102779,
AMNE22.JPG,AMSA24.JPG,AMSA22.JPG,AMNE25.JPG,AMNE24.JPG,AMSA25.JPG,,,,,,,,,,,,,,,,,,,,,0,5,5,7,,,AFNE07.jpg,AFNE11.jpg,AFSA08.jpg,AFSA11.jpg,AFSA11.jpg,FS,4,num_4,16,num_4,0.783494494186,,,2018_Jan_23_1846,60.0072367532,MAFE4ImagesEEG,001,102779,
AFSA25.JPG,AFNE24.JPG,AFSA24.JPG,AFNE21.JPG,AFSA21.JPG,AFNE25.JPG,,,,,,,,,,,,,,,,,,,,,0,6,6,2,,,AFNE01.jpg,AFSA06.jpg,AFNE19.jpg,AFSA14.jpg,AFSA14.jpg,FS,4,num_4,32,num_6,1.18354440124,,,2018_Jan_23_1846,60.0072367532,MAFE4ImagesEEG,001,102779,
AMSA21.JPG,AMNE23.JPG,AMNE21.JPG,AMSA25.JPG,AMNE25.JPG,AMSA23.JPG,,,,,,,,,,,,,,,,,,,,,0,7,7,5,,,AFSA12.jpg,AFNE07.jpg,AFSA15.jpg,AFNE09.jpg,AFNE09.jpg,FN,3,num_4,32,num_2,1.20006215929,,,2018_Jan_23_1846,60.0072367532,MAFE4ImagesEEG,001,102779,
AFNE23.JPG,AFNE24.JPG,AFNE22.JPG,AFSA24.JPG,AFSA22.JPG,AFSA23.JPG,,,,,,,,,,,,,,,,,,,,,0,8,8,8,,,AFSA05.jpg,AFNE06.jpg,AFSA03.jpg,AFNE12.jpg,AFSA05.jpg,FS,4,num_8,16,num_8,0.916776466445,,,2018_Jan_23_1846,60.0072367532,MAFE4ImagesEEG,001,102779,
AFSA21.JPG,AFNE23.JPG,AFNE21.JPG,AFSA25.JPG,AFNE25.JPG,AFSA23.JPG,,,,,,,,,,,,,,,,,,,,,0,9,9,4,,,AFSA09.jpg,AFSA13.jpg,AFNE03.jpg,AFNE20.jpg,AFNE20.jpg,FN,3,num_4,16,num_4,0.616836059839,,,2018_Jan_23_1846,60.0072367532,MAFE4ImagesEEG,001,102779,
,,,,,,,,,,,,,,,,,,,,,,,,,,,,,,,,,,,,,,,,,,,space,6.21670051536,2018_Jan_23_1846,60.0072367532,MAFE4ImagesEEG,001,102779,
AFNE01.JPG,AFNE01.JPG,AFNE01.JPG,AFNE01.JPG,AFNE01.JPG,AFNE01.JPG,0,0,0,3,,,,,,,,,,,,,,,,,,,,,,,AMSA11.jpg,AMNE09.jpg,AMNE20.jpg,AMSA04.jpg,AMNE20.jpg,MN,1,num_2,16,num_2,1.083466654,,,2018_Jan_23_1846,60.0072367532,MAFE4ImagesEEG,001,102779,
AFNE01.JPG,AFNE01.JPG,AFNE01.JPG,AFNE01.JPG,AFNE01.JPG,AFNE01.JPG,0,1,1,8,,,,,,,,,,,,,,,,,,,,,,,AMNE06.jpg,AMNE02.jpg,AMSA16.jpg,AMSA13.jpg,AMSA16.jpg,MS,2,num_2,32,num_4,0.850205401512,,,2018_Jan_23_1846,60.0072367532,MAFE4ImagesEEG,001,102779,
AFNE01.JPG,AFNE01.JPG,AFNE01.JPG,AFNE01.JPG,AFNE01.JPG,AFNE01.JPG,0,2,2,0,,,,,,,,,,,,,,,,,,,,,,,AMSA18.jpg,AMNE04.jpg,AMSA04.jpg,AMNE15.jpg,AMSA18.jpg,MS,2,num_8,32,num_2,2.03324335524,,,2018_Jan_23_1846,60.0072367532,MAFE4ImagesEEG,001,102779,
AFNE01.JPG,AFNE01.JPG,AFNE01.JPG,AFNE01.JPG,AFNE01.JPG,AFNE01.JPG,0,3,3,7,,,,,,,,,,,,,,,,,,,,,,,AMSA09.jpg,AMNE19.jpg,AMNE09.jpg,AMSA06.jpg,AMNE09.jpg,MN,1,num_2,16,num_2,0.73348127972,,,2018_Jan_23_1846,60.0072367532,MAFE4ImagesEEG,001,102779,
AFNE01.JPG,AFNE01.JPG,AFNE01.JPG,AFNE01.JPG,AFNE01.JPG,AFNE01.JPG,0,4,4,2,,,,,,,,,,,,,,,,,,,,,,,AMSA11.jpg,AMSA06.jpg,AMNE10.jpg,AMNE17.jpg,AMNE10.jpg,MN,1,num_2,32,num_4,0.883526696416,,,2018_Jan_23_1846,60.0072367532,MAFE4ImagesEEG,001,102779,
AFNE01.JPG,AFNE01.JPG,AFNE01.JPG,AFNE01.JPG,AFNE01.JPG,AFNE01.JPG,0,5,5,1,,,,,,,,,,,,,,,,,,,,,,,AMSA16.jpg,AMNE19.jpg,AMSA09.jpg,AMNE14.jpg,AMNE14.jpg,MN,1,num_4,16,num_4,0.700202963897,,,2018_Jan_23_1846,60.0072367532,MAFE4ImagesEEG,001,102779,
AFNE01.JPG,AFNE01.JPG,AFNE01.JPG,AFNE01.JPG,AFNE01.JPG,AFNE01.JPG,0,6,6,5,,,,,,,,,,,,,,,,,,,,,,,AMSA05.jpg,AMSA13.jpg,AMNE05.jpg,AMNE11.jpg,AMNE11.jpg,MN,1,num_4,16,num_4,0.550166527901,,,2018_Jan_23_1846,60.0072367532,MAFE4ImagesEEG,001,102779,
AFNE01.JPG,AFNE01.JPG,AFNE01.JPG,AFNE01.JPG,AFNE01.JPG,AFNE01.JPG,0,7,7,6,,,,,,,,,,,,,,,,,,,,,,,AMNE07.jpg,AMNE14.jpg,AMSA20.jpg,AMSA05.jpg,AMSA20.jpg,MS,2,num_2,16,num_2,0.900175636896,,,2018_Jan_23_1846,60.0072367532,MAFE4ImagesEEG,001,102779,
AFNE01.JPG,AFNE01.JPG,AFNE01.JPG,AFNE01.JPG,AFNE01.JPG,AFNE01.JPG,0,8,8,4,,,,,,,,,,,,,,,,,,,,,,,AMSA02.jpg,AMNE10.jpg,AMNE11.jpg,AMSA08.jpg,AMSA02.jpg,MS,2,num_8,32,num_2,0.466658819249,,,2018_Jan_23_1846,60.0072367532,MAFE4ImagesEEG,001,102779,
AFNE01.JPG,AFNE01.JPG,AFNE01.JPG,AFNE01.JPG,AFNE01.JPG,AFNE01.JPG,0,9,9,9,,,,,,,,,,,,,,,,,,,,,,,AMNE20.jpg,AMSA01.jpg,AMNE15.jpg,AMSA02.jpg,AMNE15.jpg,MN,1,num_2,32,num_6,0.683344580597,,,2018_Jan_23_1846,60.0072367532,MAFE4ImagesEEG,001,102779,
AFNE01.JPG,AFNE01.JPG,AFNE01.JPG,AFNE01.JPG,AFNE01.JPG,AFNE01.JPG,1,0,10,6,,,,,,,,,,,,,,,,,,,,,,,AMSA19.jpg,AMSA18.jpg,AMNE10.jpg,AMNE02.jpg,AMSA19.jpg,MS,2,num_8,32,num_4,0.849930527838,,,2018_Jan_23_1846,60.0072367532,MAFE4ImagesEEG,001,102779,
AFNE01.JPG,AFNE01.JPG,AFNE01.JPG,AFNE01.JPG,AFNE01.JPG,AFNE01.JPG,1,1,11,9,,,,,,,,,,,,,,,,,,,,,,,AMSA14.jpg,AMSA19.jpg,AMNE14.jpg,AMNE10.jpg,AMSA14.jpg,MS,2,num_8,32,num_2,1.06678692256,,,2018_Jan_23_1846,60.0072367532,MAFE4ImagesEEG,001,102779,
AFNE01.JPG,AFNE01.JPG,AFNE01.JPG,AFNE01.JPG,AFNE01.JPG,AFNE01.JPG,1,2,12,8,,,,,,,,,,,,,,,,,,,,,,,AMNE11.jpg,AMNE09.jpg,AMSA03.jpg,AMSA12.jpg,AMSA12.jpg,MS,2,num_4,32,num_8,1.0500933993,,,2018_Jan_23_1846,60.0072367532,MAFE4ImagesEEG,001,102779,
AFNE01.JPG,AFNE01.JPG,AFNE01.JPG,AFNE01.JPG,AFNE01.JPG,AFNE01.JPG,1,3,13,2,,,,,,,,,,,,,,,,,,,,,,,AMNE04.jpg,AMNE20.jpg,AMSA07.jpg,AMSA14.jpg,AMNE04.jpg,MN,1,num_8,32,num_4,0.866820985088,,,2018_Jan_23_1846,60.0072367532,MAFE4ImagesEEG,001,102779,
AFNE01.JPG,AFNE01.JPG,AFNE01.JPG,AFNE01.JPG,AFNE01.JPG,AFNE01.JPG,1,4,14,3,,,,,,,,,,,,,,,,,,,,,,,AMNE10.jpg,AMSA04.jpg,AMSA12.jpg,AMNE05.jpg,AMSA12.jpg,MS,2,num_2,16,num_2,1.20007819627,,,2018_Jan_23_1846,60.0072367532,MAFE4ImagesEEG,001,102779,
AFNE01.JPG,AFNE01.JPG,AFNE01.JPG,AFNE01.JPG,AFNE01.JPG,AFNE01.JPG,1,5,15,1,,,,,,,,,,,,,,,,,,,,,,,AMNE08.jpg,AMNE16.jpg,AMSA12.jpg,AMSA17.jpg,AMNE08.jpg,MN,1,num_8,16,num_8,1.21664566892,,,2018_Jan_23_1846,60.0072367532,MAFE4ImagesEEG,001,102779,
AFNE01.JPG,AFNE01.JPG,AFNE01.JPG,AFNE01.JPG,AFNE01.JPG,AFNE01.JPG,1,6,16,4,,,,,,,,,,,,,,,,,,,,,,,AMSA19.jpg,AMNE04.jpg,AMSA12.jpg,AMNE19.jpg,AMNE04.jpg,MN,1,num_6,32,num_4,1.01677659474,,,2018_Jan_23_1846,60.0072367532,MAFE4ImagesEEG,001,102779,
AFNE01.JPG,AFNE01.JPG,AFNE01.JPG,AFNE01.JPG,AFNE01.JPG,AFNE01.JPG,1,7,17,0,,,,,,,,,,,,,,,,,,,,,,,AMSA06.jpg,AMNE01.jpg,AMNE14.jpg,AMSA17.jpg,AMNE01.jpg,MN,1,num_6,16,num_6,0.700176342521,,,2018_Jan_23_1846,60.0072367532,MAFE4ImagesEEG,001,102779,
AFNE01.JPG,AFNE01.JPG,AFNE01.JPG,AFNE01.JPG,AFNE01.JPG,AFNE01.JPG,1,8,18,7,,,,,,,,,,,,,,,,,,,,,,,AMNE14.jpg,AMSA10.jpg,AMNE11.jpg,AMSA11.jpg,AMNE11.jpg,MN,1,num_2,32,num_4,0.600206684467,,,2018_Jan_23_1846,60.0072367532,MAFE4ImagesEEG,001,102779,
AFNE01.JPG,AFNE01.JPG,AFNE01.JPG,AFNE01.JPG,AFNE01.JPG,AFNE01.JPG,1,9,19,5,,,,,,,,,,,,,,,,,,,,,,,AMNE02.jpg,AMSA08.jpg,AMNE12.jpg,AMSA16.jpg,AMNE12.jpg,MN,1,num_2,16,num_2,0.80008377714,,,2018_Jan_23_1846,60.0072367532,MAFE4ImagesEEG,001,102779,
AFNE01.JPG,AFNE01.JPG,AFNE01.JPG,AFNE01.JPG,AFNE01.JPG,AFNE01.JPG,2,0,20,0,,,,,,,,,,,,,,,,,,,,,,,AMNE03.jpg,AMNE02.jpg,AMSA11.jpg,AMSA04.jpg,AMNE03.jpg,MN,1,num_8,32,num_2,1.0501193792,,,2018_Jan_23_1846,60.0072367532,MAFE4ImagesEEG,001,102779,
AFNE01.JPG,AFNE01.JPG,AFNE01.JPG,AFNE01.JPG,AFNE01.JPG,AFNE01.JPG,2,1,21,1,,,,,,,,,,,,,,,,,,,,,,,AMSA09.jpg,AMNE17.jpg,AMNE14.jpg,AMSA15.jpg,AMSA15.jpg,MS,2,num_4,16,num_4,0.733491864128,,,2018_Jan_23_1846,60.0072367532,MAFE4ImagesEEG,001,102779,
AFNE01.JPG,AFNE01.JPG,AFNE01.JPG,AFNE01.JPG,AFNE01.JPG,AFNE01.JPG,2,2,22,2,,,,,,,,,,,,,,,,,,,,,,,AMSA03.jpg,AMNE15.jpg,AMSA15.jpg,AMNE19.jpg,AMNE19.jpg,MN,1,num_4,32,num_6,0.700155815197,,,2018_Jan_23_1846,60.0072367532,MAFE4ImagesEEG,001,102779,
AFNE01.JPG,AFNE01.JPG,AFNE01.JPG,AFNE01.JPG,AFNE01.JPG,AFNE01.JPG,2,3,23,5,,,,,,,,,,,,,,,,,,,,,,,AMNE11.jpg,AMSA03.jpg,AMNE13.jpg,AMSA14.jpg,AMNE11.jpg,MN,1,num_8,16,num_8,1.36675266759,,,2018_Jan_23_1846,60.0072367532,MAFE4ImagesEEG,001,102779,
AFNE01.JPG,AFNE01.JPG,AFNE01.JPG,AFNE01.JPG,AFNE01.JPG,AFNE01.JPG,2,4,24,6,,,,,,,,,,,,,,,,,,,,,,,AMNE07.jpg,AMNE03.jpg,AMSA03.jpg,AMSA08.jpg,AMNE07.jpg,MN,1,num_8,16,num_8,1.86670712259,,,2018_Jan_23_1846,60.0072367532,MAFE4ImagesEEG,001,102779,
AFNE01.JPG,AFNE01.JPG,AFNE01.JPG,AFNE01.JPG,AFNE01.JPG,AFNE01.JPG,2,5,25,9,,,,,,,,,,,,,,,,,,,,,,,AMNE13.jpg,AMNE11.jpg,AMSA14.jpg,AMSA02.jpg,AMSA14.jpg,MS,2,num_2,16,num_2,2.38335542158,,,2018_Jan_23_1846,60.0072367532,MAFE4ImagesEEG,001,102779,
AFNE01.JPG,AFNE01.JPG,AFNE01.JPG,AFNE01.JPG,AFNE01.JPG,AFNE01.JPG,2,6,26,4,,,,,,,,,,,,,,,,,,,,,,,AMNE17.jpg,AMSA07.jpg,AMSA08.jpg,AMNE12.jpg,AMNE12.jpg,MN,1,num_4,32,num_8,0.916764599096,,,2018_Jan_23_1846,60.0072367532,MAFE4ImagesEEG,001,102779,
AFNE01.JPG,AFNE01.JPG,AFNE01.JPG,AFNE01.JPG,AFNE01.JPG,AFNE01.JPG,2,7,27,8,,,,,,,,,,,,,,,,,,,,,,,AMSA13.jpg,AMNE08.jpg,AMNE14.jpg,AMSA11.jpg,AMNE08.jpg,MN,1,num_6,32,num_4,0.566836637168,,,2018_Jan_23_1846,60.0072367532,MAFE4ImagesEEG,001,102779,
AFNE01.JPG,AFNE01.JPG,AFNE01.JPG,AFNE01.JPG,AFNE01.JPG,AFNE01.JPG,2,8,28,3,,,,,,,,,,,,,,,,,,,,,,,AMNE08.jpg,AMSA18.jpg,AMSA04.jpg,AMNE20.jpg,AMSA04.jpg,MS,2,num_2,16,num_2,1.11678891114,,,2018_Jan_23_1846,60.0072367532,MAFE4ImagesEEG,001,102779,
AFNE01.JPG,AFNE01.JPG,AFNE01.JPG,AFNE01.JPG,AFNE01.JPG,AFNE01.JPG,2,9,29,7,,,,,,,,,,,,,,,,,,,,,,,AMSA08.jpg,AMSA01.jpg,AMNE06.jpg,AMNE16.jpg,AMSA08.jpg,MS,2,num_8,32,num_2,1.33352117971,,,2018_Jan_23_1846,60.0072367532,MAFE4ImagesEEG,001,102779,
AFNE01.JPG,AFNE01.JPG,AFNE01.JPG,AFNE01.JPG,AFNE01.JPG,AFNE01.JPG,3,0,30,0,,,,,,,,,,,,,,,,,,,,,,,AMNE17.jpg,AMNE10.jpg,AMSA20.jpg,AMSA03.jpg,AMSA20.jpg,MS,2,num_2,32,num_4,1.06678531886,,,2018_Jan_23_1846,60.0072367532,MAFE4ImagesEEG,001,102779,
AFNE01.JPG,AFNE01.JPG,AFNE01.JPG,AFNE01.JPG,AFNE01.JPG,AFNE01.JPG,3,1,31,3,,,,,,,,,,,,,,,,,,,,,,,AMNE08.jpg,AMSA15.jpg,AMSA11.jpg,AMNE12.jpg,AMSA11.jpg,MS,2,num_2,32,num_6,0.600228174007,,,2018_Jan_23_1846,60.0072367532,MAFE4ImagesEEG,001,102779,
AFNE01.JPG,AFNE01.JPG,AFNE01.JPG,AFNE01.JPG,AFNE01.JPG,AFNE01.JPG,3,2,32,6,,,,,,,,,,,,,,,,,,,,,,,AMNE05.jpg,AMNE12.jpg,AMSA07.jpg,AMSA11.jpg,AMNE12.jpg,MN,1,num_6,32,num_8,0.833578912803,,,2018_Jan_23_1846,60.0072367532,MAFE4ImagesEEG,001,102779,
AFNE01.JPG,AFNE01.JPG,AFNE01.JPG,AFNE01.JPG,AFNE01.JPG,AFNE01.JPG,3,3,33,5,,,,,,,,,,,,,,,,,,,,,,,AMSA10.jpg,AMNE16.jpg,AMNE12.jpg,AMSA14.jpg,AMNE12.jpg,MN,1,num_2,32,num_4,0.550120341431,,,2018_Jan_23_1846,60.0072367532,MAFE4ImagesEEG,001,102779,
AFNE01.JPG,AFNE01.JPG,AFNE01.JPG,AFNE01.JPG,AFNE01.JPG,AFNE01.JPG,3,4,34,8,,,,,,,,,,,,,,,,,,,,,,,AMNE05.jpg,AMNE19.jpg,AMSA18.jpg,AMSA08.jpg,AMSA18.jpg,MS,2,num_2,16,num_2,2.58334284859,,,2018_Jan_23_1846,60.0072367532,MAFE4ImagesEEG,001,102779,
AFNE01.JPG,AFNE01.JPG,AFNE01.JPG,AFNE01.JPG,AFNE01.JPG,AFNE01.JPG,3,5,35,4,,,,,,,,,,,,,,,,,,,,,,,AMNE03.jpg,AMSA10.jpg,AMSA06.jpg,AMNE06.jpg,AMSA10.jpg,MS,2,num_6,32,num_4,0.966809887497,,,2018_Jan_23_1846,60.0072367532,MAFE4ImagesEEG,001,102779,
AFNE01.JPG,AFNE01.JPG,AFNE01.JPG,AFNE01.JPG,AFNE01.JPG,AFNE01.JPG,3,6,36,2,,,,,,,,,,,,,,,,,,,,,,,AMNE18.jpg,AMSA09.jpg,AMNE12.jpg,AMSA01.jpg,AMSA01.jpg,MS,2,num_4,16,num_4,0.800322727984,,,2018_Jan_23_1846,60.0072367532,MAFE4ImagesEEG,001,102779,
AFNE01.JPG,AFNE01.JPG,AFNE01.JPG,AFNE01.JPG,AFNE01.JPG,AFNE01.JPG,3,7,37,1,,,,,,,,,,,,,,,,,,,,,,,AMSA18.jpg,AMNE16.jpg,AMSA13.jpg,AMNE13.jpg,AMSA13.jpg,MS,2,num_2,32,num_4,0.750243761941,,,2018_Jan_23_1846,60.0072367532,MAFE4ImagesEEG,001,102779,
AFNE01.JPG,AFNE01.JPG,AFNE01.JPG,AFNE01.JPG,AFNE01.JPG,AFNE01.JPG,3,8,38,7,,,,,,,,,,,,,,,,,,,,,,,AMNE02.jpg,AMSA01.jpg,AMNE11.jpg,AMSA11.jpg,AMNE11.jpg,MN,1,num_2,32,num_8,0.600294246309,,,2018_Jan_23_1846,60.0072367532,MAFE4ImagesEEG,001,102779,
AFNE01.JPG,AFNE01.JPG,AFNE01.JPG,AFNE01.JPG,AFNE01.JPG,AFNE01.JPG,3,9,39,9,,,,,,,,,,,,,,,,,,,,,,,AMNE07.jpg,AMNE08.jpg,AMSA11.jpg,AMSA08.jpg,AMNE08.jpg,MN,1,num_6,32,num_4,0.700204567591,,,2018_Jan_23_1846,60.0072367532,MAFE4ImagesEEG,001,102779,
AFNE01.JPG,AFNE01.JPG,AFNE01.JPG,AFNE01.JPG,AFNE01.JPG,AFNE01.JPG,4,0,40,5,,,,,,,,,,,,,,,,,,,,,,,AMSA18.jpg,AMNE09.jpg,AMSA04.jpg,AMNE01.jpg,AMSA18.jpg,MS,2,num_8,32,num_6,0.900123356376,,,2018_Jan_23_1846,60.0072367532,MAFE4ImagesEEG,001,102779,
AFNE01.JPG,AFNE01.JPG,AFNE01.JPG,AFNE01.JPG,AFNE01.JPG,AFNE01.JPG,4,1,41,3,,,,,,,,,,,,,,,,,,,,,,,AMSA08.jpg,AMNE12.jpg,AMSA19.jpg,AMNE02.jpg,AMSA19.jpg,MS,2,num_2,32,num_8,0.400166335457,,,2018_Jan_23_1846,60.0072367532,MAFE4ImagesEEG,001,102779,
AFNE01.JPG,AFNE01.JPG,AFNE01.JPG,AFNE01.JPG,AFNE01.JPG,AFNE01.JPG,4,2,42,1,,,,,,,,,,,,,,,,,,,,,,,AMSA11.jpg,AMSA14.jpg,AMNE12.jpg,AMNE17.jpg,AMNE17.jpg,MN,1,num_4,16,num_4,0.516779802143,,,2018_Jan_23_1846,60.0072367532,MAFE4ImagesEEG,001,102779,
AFNE01.JPG,AFNE01.JPG,AFNE01.JPG,AFNE01.JPG,AFNE01.JPG,AFNE01.JPG,4,3,43,8,,,,,,,,,,,,,,,,,,,,,,,AMSA06.jpg,AMSA12.jpg,AMNE03.jpg,AMNE20.jpg,AMNE20.jpg,MN,1,num_4,16,num_4,0.683361259042,,,2018_Jan_23_1846,60.0072367532,MAFE4ImagesEEG,001,102779,
AFNE01.JPG,AFNE01.JPG,AFNE01.JPG,AFNE01.JPG,AFNE01.JPG,AFNE01.JPG,4,4,44,9,,,,,,,,,,,,,,,,,,,,,,,AMNE02.jpg,AMNE11.jpg,AMSA17.jpg,AMSA16.jpg,AMNE02.jpg,MN,1,num_8,32,num_2,0.983370624643,,,2018_Jan_23_1846,60.0072367532,MAFE4ImagesEEG,001,102779,
AFNE01.JPG,AFNE01.JPG,AFNE01.JPG,AFNE01.JPG,AFNE01.JPG,AFNE01.JPG,4,5,45,0,,,,,,,,,,,,,,,,,,,,,,,AMNE03.jpg,AMSA11.jpg,AMNE07.jpg,AMSA10.jpg,AMNE03.jpg,MN,1,num_8,32,num_6,0.516855175912,,,2018_Jan_23_1846,60.0072367532,MAFE4ImagesEEG,001,102779,
AFNE01.JPG,AFNE01.JPG,AFNE01.JPG,AFNE01.JPG,AFNE01.JPG,AFNE01.JPG,4,6,46,6,,,,,,,,,,,,,,,,,,,,,,,AMSA12.jpg,AMNE02.jpg,AMSA13.jpg,AMNE16.jpg,AMNE16.jpg,MN,1,num_4,16,num_4,0.550187696703,,,2018_Jan_23_1846,60.0072367532,MAFE4ImagesEEG,001,102779,
AFNE01.JPG,AFNE01.JPG,AFNE01.JPG,AFNE01.JPG,AFNE01.JPG,AFNE01.JPG,4,7,47,7,,,,,,,,,,,,,,,,,,,,,,,AMSA14.jpg,AMNE16.jpg,AMSA13.jpg,AMNE18.jpg,AMNE18.jpg,MN,1,num_4,16,num_4,0.64998832508,,,2018_Jan_23_1846,60.0072367532,MAFE4ImagesEEG,001,102779,
AFNE01.JPG,AFNE01.JPG,AFNE01.JPG,AFNE01.JPG,AFNE01.JPG,AFNE01.JPG,4,8,48,2,,,,,,,,,,,,,,,,,,,,,,,AMSA18.jpg,AMNE14.jpg,AMSA16.jpg,AMNE20.jpg,AMSA18.jpg,MS,2,num_8,16,num_8,1.13344522862,,,2018_Jan_23_1846,60.0072367532,MAFE4ImagesEEG,001,102779,
AFNE01.JPG,AFNE01.JPG,AFNE01.JPG,AFNE01.JPG,AFNE01.JPG,AFNE01.JPG,4,9,49,4,,,,,,,,,,,,,,,,,,,,,,,AMSA01.jpg,AMSA04.jpg,AMNE05.jpg,AMNE01.jpg,AMNE01.jpg,MN,1,num_4,32,num_8,0.816651570538,,,2018_Jan_23_1846,60.0072367532,MAFE4ImagesEEG,001,102779,
AFNE01.JPG,AFNE01.JPG,AFNE01.JPG,AFNE01.JPG,AFNE01.JPG,AFNE01.JPG,5,0,50,9,,,,,,,,,,,,,,,,,,,,,,,AMNE01.jpg,AMSA17.jpg,AMSA06.jpg,AMNE12.jpg,AMNE01.jpg,MN,1,num_8,16,num_8,0.766739388971,,,2018_Jan_23_1846,60.0072367532,MAFE4ImagesEEG,001,102779,
AFNE01.JPG,AFNE01.JPG,AFNE01.JPG,AFNE01.JPG,AFNE01.JPG,AFNE01.JPG,5,1,51,4,,,,,,,,,,,,,,,,,,,,,,,AMSA08.jpg,AMNE02.jpg,AMNE10.jpg,AMSA12.jpg,AMNE10.jpg,MN,1,num_2,32,num_4,0.883466718151,,,2018_Jan_23_1846,60.0072367532,MAFE4ImagesEEG,001,102779,
AFNE01.JPG,AFNE01.JPG,AFNE01.JPG,AFNE01.JPG,AFNE01.JPG,AFNE01.JPG,5,2,52,3,,,,,,,,,,,,,,,,,,,,,,,AMNE02.jpg,AMSA12.jpg,AMNE13.jpg,AMSA11.jpg,AMSA12.jpg,MS,2,num_6,32,num_4,1.16660871975,,,2018_Jan_23_1846,60.0072367532,MAFE4ImagesEEG,001,102779,
AFNE01.JPG,AFNE01.JPG,AFNE01.JPG,AFNE01.JPG,AFNE01.JPG,AFNE01.JPG,5,3,53,0,,,,,,,,,,,,,,,,,,,,,,,AMNE14.jpg,AMNE13.jpg,AMSA03.jpg,AMSA11.jpg,AMSA03.jpg,MS,2,num_2,32,num_4,0.516781085098,,,2018_Jan_23_1846,60.0072367532,MAFE4ImagesEEG,001,102779,
AFNE01.JPG,AFNE01.JPG,AFNE01.JPG,AFNE01.JPG,AFNE01.JPG,AFNE01.JPG,5,4,54,2,,,,,,,,,,,,,,,,,,,,,,,AMNE09.jpg,AMSA17.jpg,AMNE08.jpg,AMSA08.jpg,AMSA17.jpg,MS,2,num_6,16,num_6,0.733520089198,,,2018_Jan_23_1846,60.0072367532,MAFE4ImagesEEG,001,102779,
AFNE01.JPG,AFNE01.JPG,AFNE01.JPG,AFNE01.JPG,AFNE01.JPG,AFNE01.JPG,5,5,55,5,,,,,,,,,,,,,,,,,,,,,,,AMNE15.jpg,AMSA01.jpg,AMSA10.jpg,AMNE07.jpg,AMNE07.jpg,MN,1,num_4,16,num_4,0.71680796305,,,2018_Jan_23_1846,60.0072367532,MAFE4ImagesEEG,001,102779,
AFNE01.JPG,AFNE01.JPG,AFNE01.JPG,AFNE01.JPG,AFNE01.JPG,AFNE01.JPG,5,6,56,6,,,,,,,,,,,,,,,,,,,,,,,AMSA10.jpg,AMSA07.jpg,AMNE04.jpg,AMNE07.jpg,AMSA07.jpg,MS,2,num_6,32,num_2,0.450163512942,,,2018_Jan_23_1846,60.0072367532,MAFE4ImagesEEG,001,102779,
AFNE01.JPG,AFNE01.JPG,AFNE01.JPG,AFNE01.JPG,AFNE01.JPG,AFNE01.JPG,5,7,57,1,,,,,,,,,,,,,,,,,,,,,,,AMNE10.jpg,AMNE20.jpg,AMSA03.jpg,AMSA19.jpg,AMSA19.jpg,MS,2,num_4,32,num_8,0.433510082119,,,2018_Jan_23_1846,60.0072367532,MAFE4ImagesEEG,001,102779,
AFNE01.JPG,AFNE01.JPG,AFNE01.JPG,AFNE01.JPG,AFNE01.JPG,AFNE01.JPG,5,8,58,7,,,,,,,,,,,,,,,,,,,,,,,AMSA10.jpg,AMSA01.jpg,AMNE20.jpg,AMNE12.jpg,AMSA10.jpg,MS,2,num_8,32,num_4,0.700141381923,,,2018_Jan_23_1846,60.0072367532,MAFE4ImagesEEG,001,102779,
AFNE01.JPG,AFNE01.JPG,AFNE01.JPG,AFNE01.JPG,AFNE01.JPG,AFNE01.JPG,5,9,59,8,,,,,,,,,,,,,,,,,,,,,,,AMSA09.jpg,AMNE16.jpg,AMSA17.jpg,AMNE12.jpg,AMSA17.jpg,MS,2,num_2,16,num_2,0.883434964955,,,2018_Jan_23_1846,60.0072367532,MAFE4ImagesEEG,001,102779,
,,,,,,,,,,,,,,,,,,,,,,,,,,,,,,,,,,,,,,,,,,,space,10.0829861864,2018_Jan_23_1846,60.0072367532,MAFE4ImagesEEG,001,102779,
AFNE01.JPG,AFNE01.JPG,AFNE01.JPG,AFNE01.JPG,AFNE01.JPG,AFNE01.JPG,,,,,0,0,0,9,,,,,,,,,,,,,,,,,,,AFSA03.jpg,AFSA09.jpg,AFNE08.jpg,AFNE18.jpg,AFSA03.jpg,FS,4,num_8,32,num_4,0.883355421582,,,2018_Jan_23_1846,60.0072367532,MAFE4ImagesEEG,001,102779,
AFNE01.JPG,AFNE01.JPG,AFNE01.JPG,AFNE01.JPG,AFNE01.JPG,AFNE01.JPG,,,,,0,1,1,6,,,,,,,,,,,,,,,,,,,AFNE16.jpg,AFSA03.jpg,AFNE10.jpg,AFSA12.jpg,AFNE16.jpg,FN,3,num_8,32,num_6,1.08329056807,,,2018_Jan_23_1846,60.0072367532,MAFE4ImagesEEG,001,102779,
AFNE01.JPG,AFNE01.JPG,AFNE01.JPG,AFNE01.JPG,AFNE01.JPG,AFNE01.JPG,,,,,0,2,2,1,,,,,,,,,,,,,,,,,,,AFNE12.jpg,AFSA03.jpg,AFNE16.jpg,AFSA13.jpg,AFNE12.jpg,FN,3,num_8,16,num_8,0.866795325928,,,2018_Jan_23_1846,60.0072367532,MAFE4ImagesEEG,001,102779,
AFNE01.JPG,AFNE01.JPG,AFNE01.JPG,AFNE01.JPG,AFNE01.JPG,AFNE01.JPG,,,,,0,3,3,2,,,,,,,,,,,,,,,,,,,AFSA18.jpg,AFSA16.jpg,AFNE17.jpg,AFNE18.jpg,AFNE18.jpg,FN,3,num_4,32,num_2,1.53345921285,,,2018_Jan_23_1846,60.0072367532,MAFE4ImagesEEG,001,102779,
AFNE01.JPG,AFNE01.JPG,AFNE01.JPG,AFNE01.JPG,AFNE01.JPG,AFNE01.JPG,,,,,0,4,4,8,,,,,,,,,,,,,,,,,,,AFNE20.jpg,AFSA08.jpg,AFNE05.jpg,AFSA20.jpg,AFSA08.jpg,FS,4,num_6,32,num_4,2.11667665235,,,2018_Jan_23_1846,60.0072367532,MAFE4ImagesEEG,001,102779,
AFNE01.JPG,AFNE01.JPG,AFNE01.JPG,AFNE01.JPG,AFNE01.JPG,AFNE01.JPG,,,,,0,5,5,0,,,,,,,,,,,,,,,,,,,AFSA09.jpg,AFNE02.jpg,AFSA12.jpg,AFNE07.jpg,AFNE07.jpg,FN,3,num_4,16,num_4,0.783501229715,,,2018_Jan_23_1846,60.0072367532,MAFE4ImagesEEG,001,102779,
AFNE01.JPG,AFNE01.JPG,AFNE01.JPG,AFNE01.JPG,AFNE01.JPG,AFNE01.JPG,,,,,0,6,6,7,,,,,,,,,,,,,,,,,,,AFNE12.jpg,AFSA19.jpg,AFSA09.jpg,AFNE09.jpg,AFSA09.jpg,FS,4,num_2,32,num_4,0.700162229987,,,2018_Jan_23_1846,60.0072367532,MAFE4ImagesEEG,001,102779,
AFNE01.JPG,AFNE01.JPG,AFNE01.JPG,AFNE01.JPG,AFNE01.JPG,AFNE01.JPG,,,,,0,7,7,3,,,,,,,,,,,,,,,,,,,AFNE07.jpg,AFNE06.jpg,AFSA08.jpg,AFSA06.jpg,AFSA08.jpg,FS,4,num_2,32,num_6,0.633498792085,,,2018_Jan_23_1846,60.0072367532,MAFE4ImagesEEG,001,102779,
AFNE01.JPG,AFNE01.JPG,AFNE01.JPG,AFNE01.JPG,AFNE01.JPG,AFNE01.JPG,,,,,0,8,8,4,,,,,,,,,,,,,,,,,,,AFNE12.jpg,AFSA15.jpg,AFSA18.jpg,AFNE17.jpg,AFSA15.jpg,FS,4,num_6,32,num_8,0.583448692603,,,2018_Jan_23_1846,60.0072367532,MAFE4ImagesEEG,001,102779,
AFNE01.JPG,AFNE01.JPG,AFNE01.JPG,AFNE01.JPG,AFNE01.JPG,AFNE01.JPG,,,,,0,9,9,5,,,,,,,,,,,,,,,,,,,AFSA17.jpg,AFSA19.jpg,AFNE19.jpg,AFNE10.jpg,AFSA19.jpg,FS,4,num_6,32,num_2,0.783479740188,,,2018_Jan_23_1846,60.0072367532,MAFE4ImagesEEG,001,102779,
AFNE01.JPG,AFNE01.JPG,AFNE01.JPG,AFNE01.JPG,AFNE01.JPG,AFNE01.JPG,,,,,1,0,10,3,,,,,,,,,,,,,,,,,,,AFSA16.jpg,AFSA14.jpg,AFNE09.jpg,AFNE01.jpg,AFNE01.jpg,FN,3,num_4,16,num_4,0.966791926083,,,2018_Jan_23_1846,60.0072367532,MAFE4ImagesEEG,001,102779,
AFNE01.JPG,AFNE01.JPG,AFNE01.JPG,AFNE01.JPG,AFNE01.JPG,AFNE01.JPG,,,,,1,1,11,5,,,,,,,,,,,,,,,,,,,AFNE07.jpg,AFSA14.jpg,AFSA02.jpg,AFNE20.jpg,AFSA02.jpg,FS,4,num_2,32,num_8,0.750140483855,,,2018_Jan_23_1846,60.0072367532,MAFE4ImagesEEG,001,102779,
AFNE01.JPG,AFNE01.JPG,AFNE01.JPG,AFNE01.JPG,AFNE01.JPG,AFNE01.JPG,,,,,1,2,12,0,,,,,,,,,,,,,,,,,,,AFSA05.jpg,AFNE09.jpg,AFNE07.jpg,AFSA08.jpg,AFNE07.jpg,FN,3,num_2,32,num_4,0.900120469712,,,2018_Jan_23_1846,60.0072367532,MAFE4ImagesEEG,001,102779,
AFNE01.JPG,AFNE01.JPG,AFNE01.JPG,AFNE01.JPG,AFNE01.JPG,AFNE01.JPG,,,,,1,3,13,2,,,,,,,,,,,,,,,,,,,AFSA18.jpg,AFNE11.jpg,AFSA19.jpg,AFNE07.jpg,AFSA19.jpg,FS,4,num_2,32,num_8,0.866761006822,,,2018_Jan_23_1846,60.0072367532,MAFE4ImagesEEG,001,102779,
AFNE01.JPG,AFNE01.JPG,AFNE01.JPG,AFNE01.JPG,AFNE01.JPG,AFNE01.JPG,,,,,1,4,14,8,,,,,,,,,,,,,,,,,,,AFSA07.jpg,AFNE09.jpg,AFNE04.jpg,AFSA10.jpg,AFNE04.jpg,FN,3,num_2,16,num_2,1.05008506008,,,2018_Jan_23_1846,60.0072367532,MAFE4ImagesEEG,001,102779,
AFNE01.JPG,AFNE01.JPG,AFNE01.JPG,AFNE01.JPG,AFNE01.JPG,AFNE01.JPG,,,,,1,5,15,9,,,,,,,,,,,,,,,,,,,AFSA19.jpg,AFSA09.jpg,AFNE15.jpg,AFNE11.jpg,AFSA09.jpg,FS,4,num_6,32,num_8,0.883501999488,,,2018_Jan_23_1846,60.0072367532,MAFE4ImagesEEG,001,102779,
AFNE01.JPG,AFNE01.JPG,AFNE01.JPG,AFNE01.JPG,AFNE01.JPG,AFNE01.JPG,,,,,1,6,16,6,,,,,,,,,,,,,,,,,,,AFSA07.jpg,AFSA13.jpg,AFNE19.jpg,AFNE10.jpg,AFSA13.jpg,FS,4,num_6,16,num_6,0.750177048132,,,2018_Jan_23_1846,60.0072367532,MAFE4ImagesEEG,001,102779,
AFNE01.JPG,AFNE01.JPG,AFNE01.JPG,AFNE01.JPG,AFNE01.JPG,AFNE01.JPG,,,,,1,7,17,1,,,,,,,,,,,,,,,,,,,AFNE15.jpg,AFSA09.jpg,AFSA18.jpg,AFNE20.jpg,AFNE15.jpg,FN,3,num_8,16,num_8,0.750146257167,,,2018_Jan_23_1846,60.0072367532,MAFE4ImagesEEG,001,102779,
AFNE01.JPG,AFNE01.JPG,AFNE01.JPG,AFNE01.JPG,AFNE01.JPG,AFNE01.JPG,,,,,1,8,18,4,,,,,,,,,,,,,,,,,,,AFNE13.jpg,AFSA12.jpg,AFSA20.jpg,AFNE07.jpg,AFNE13.jpg,FN,3,num_8,32,num_4,0.566404601195,,,2018_Jan_23_1846,60.0072367532,MAFE4ImagesEEG,001,102779,
AFNE01.JPG,AFNE01.JPG,AFNE01.JPG,AFNE01.JPG,AFNE01.JPG,AFNE01.JPG,,,,,1,9,19,7,,,,,,,,,,,,,,,,,,,AFSA11.jpg,AFSA20.jpg,AFNE03.jpg,AFNE18.jpg,AFNE18.jpg,FN,3,num_4,16,num_4,0.983512070699,,,2018_Jan_23_1846,60.0072367532,MAFE4ImagesEEG,001,102779,
AFNE01.JPG,AFNE01.JPG,AFNE01.JPG,AFNE01.JPG,AFNE01.JPG,AFNE01.JPG,,,,,2,0,20,2,,,,,,,,,,,,,,,,,,,AFSA18.jpg,AFNE02.jpg,AFNE15.jpg,AFSA12.jpg,AFNE02.jpg,FN,3,num_6,32,num_8,0.700150683362,,,2018_Jan_23_1846,60.0072367532,MAFE4ImagesEEG,001,102779,
AFNE01.JPG,AFNE01.JPG,AFNE01.JPG,AFNE01.JPG,AFNE01.JPG,AFNE01.JPG,,,,,2,1,21,9,,,,,,,,,,,,,,,,,,,AFSA07.jpg,AFSA16.jpg,AFNE08.jpg,AFNE11.jpg,AFNE08.jpg,FN,3,num_2,32,num_6,0.366808796985,,,2018_Jan_23_1846,60.0072367532,MAFE4ImagesEEG,001,102779,
AFNE01.JPG,AFNE01.JPG,AFNE01.JPG,AFNE01.JPG,AFNE01.JPG,AFNE01.JPG,,,,,2,2,22,8,,,,,,,,,,,,,,,,,,,AFNE08.jpg,AFSA03.jpg,AFSA08.jpg,AFNE16.jpg,AFSA03.jpg,FS,4,num_6,32,num_8,1.24997626529,,,2018_Jan_23_1846,60.0072367532,MAFE4ImagesEEG,001,102779,
AFNE01.JPG,AFNE01.JPG,AFNE01.JPG,AFNE01.JPG,AFNE01.JPG,AFNE01.JPG,,,,,2,3,23,6,,,,,,,,,,,,,,,,,,,AFSA07.jpg,AFNE03.jpg,AFSA01.jpg,AFNE13.jpg,AFNE03.jpg,FN,3,num_6,16,num_6,0.666969551574,,,2018_Jan_23_1846,60.0072367532,MAFE4ImagesEEG,001,102779,
AFNE01.JPG,AFNE01.JPG,AFNE01.JPG,AFNE01.JPG,AFNE01.JPG,AFNE01.JPG,,,,,2,4,24,0,,,,,,,,,,,,,,,,,,,AFNE12.jpg,AFNE20.jpg,AFSA03.jpg,AFSA05.jpg,AFNE12.jpg,FN,3,num_8,16,num_8,0.600133235144,,,2018_Jan_23_1846,60.0072367532,MAFE4ImagesEEG,001,102779,
AFNE01.JPG,AFNE01.JPG,AFNE01.JPG,AFNE01.JPG,AFNE01.JPG,AFNE01.JPG,,,,,2,5,25,4,,,,,,,,,,,,,,,,,,,AFSA19.jpg,AFNE01.jpg,AFSA13.jpg,AFNE08.jpg,AFSA13.jpg,FS,4,num_2,32,num_8,0.683461650464,,,2018_Jan_23_1846,60.0072367532,MAFE4ImagesEEG,001,102779,
AFNE01.JPG,AFNE01.JPG,AFNE01.JPG,AFNE01.JPG,AFNE01.JPG,AFNE01.JPG,,,,,2,6,26,5,,,,,,,,,,,,,,,,,,,AFNE03.jpg,AFNE10.jpg,AFSA09.jpg,AFSA16.jpg,AFSA09.jpg,FS,4,num_2,32,num_8,0.816778583321,,,2018_Jan_23_1846,60.0072367532,MAFE4ImagesEEG,001,102779,
AFNE01.JPG,AFNE01.JPG,AFNE01.JPG,AFNE01.JPG,AFNE01.JPG,AFNE01.JPG,,,,,2,7,27,7,,,,,,,,,,,,,,,,,,,AFSA17.jpg,AFNE09.jpg,AFNE02.jpg,AFSA12.jpg,AFSA17.jpg,FS,4,num_8,32,num_4,0.683500459942,,,2018_Jan_23_1846,60.0072367532,MAFE4ImagesEEG,001,102779,
AFNE01.JPG,AFNE01.JPG,AFNE01.JPG,AFNE01.JPG,AFNE01.JPG,AFNE01.JPG,,,,,2,8,28,1,,,,,,,,,,,,,,,,,,,AFSA02.jpg,AFNE08.jpg,AFNE07.jpg,AFSA17.jpg,AFNE08.jpg,FN,3,num_6,16,num_6,0.716747664061,,,2018_Jan_23_1846,60.0072367532,MAFE4ImagesEEG,001,102779,
AFNE01.JPG,AFNE01.JPG,AFNE01.JPG,AFNE01.JPG,AFNE01.JPG,AFNE01.JPG,,,,,2,9,29,3,,,,,,,,,,,,,,,,,,,AFNE01.jpg,AFSA15.jpg,AFNE04.jpg,AFSA20.jpg,AFNE04.jpg,FN,3,num_2,32,num_8,2.16665522696,,,2018_Jan_23_1846,60.0072367532,MAFE4ImagesEEG,001,102779,
AFNE01.JPG,AFNE01.JPG,AFNE01.JPG,AFNE01.JPG,AFNE01.JPG,AFNE01.JPG,,,,,3,0,30,5,,,,,,,,,,,,,,,,,,,AFSA13.jpg,AFNE16.jpg,AFSA16.jpg,AFNE07.jpg,AFSA16.jpg,FS,4,num_2,32,num_6,0.800144717621,,,2018_Jan_23_1846,60.0072367532,MAFE4ImagesEEG,001,102779,
AFNE01.JPG,AFNE01.JPG,AFNE01.JPG,AFNE01.JPG,AFNE01.JPG,AFNE01.JPG,,,,,3,1,31,2,,,,,,,,,,,,,,,,,,,AFSA04.jpg,AFNE15.jpg,AFNE17.jpg,AFSA20.jpg,AFNE17.jpg,FN,3,num_2,32,num_8,0.550128039162,,,2018_Jan_23_1846,60.0072367532,MAFE4ImagesEEG,001,102779,
AFNE01.JPG,AFNE01.JPG,AFNE01.JPG,AFNE01.JPG,AFNE01.JPG,AFNE01.JPG,,,,,3,2,32,9,,,,,,,,,,,,,,,,,,,AFNE15.jpg,AFNE13.jpg,AFSA04.jpg,AFSA01.jpg,AFSA01.jpg,FS,4,num_4,32,num_2,0.500259478169,,,2018_Jan_23_1846,60.0072367532,MAFE4ImagesEEG,001,102779,
AFNE01.JPG,AFNE01.JPG,AFNE01.JPG,AFNE01.JPG,AFNE01.JPG,AFNE01.JPG,,,,,3,3,33,8,,,,,,,,,,,,,,,,,,,AFNE19.jpg,AFSA08.jpg,AFSA17.jpg,AFNE02.jpg,AFNE19.jpg,FN,3,num_8,16,num_8,0.500139521639,,,2018_Jan_23_1846,60.0072367532,MAFE4ImagesEEG,001,102779,
AFNE01.JPG,AFNE01.JPG,AFNE01.JPG,AFNE01.JPG,AFNE01.JPG,AFNE01.JPG,,,,,3,4,34,3,,,,,,,,,,,,,,,,,,,AFNE01.jpg,AFNE13.jpg,AFSA04.jpg,AFSA02.jpg,AFSA02.jpg,FS,4,num_4,16,num_4,0.56686839035,,,2018_Jan_23_1846,60.0072367532,MAFE4ImagesEEG,001,102779,
AFNE01.JPG,AFNE01.JPG,AFNE01.JPG,AFNE01.JPG,AFNE01.JPG,AFNE01.JPG,,,,,3,5,35,4,,,,,,,,,,,,,,,,,,,AFSA06.jpg,AFNE07.jpg,AFNE14.jpg,AFSA13.jpg,AFNE07.jpg,FN,3,num_6,16,num_6,0.65017724059,,,2018_Jan_23_1846,60.0072367532,MAFE4ImagesEEG,001,102779,
AFNE01.JPG,AFNE01.JPG,AFNE01.JPG,AFNE01.JPG,AFNE01.JPG,AFNE01.JPG,,,,,3,6,36,0,,,,,,,,,,,,,,,,,,,AFSA10.jpg,AFSA05.jpg,AFNE12.jpg,AFNE05.jpg,AFNE12.jpg,FN,3,num_2,32,num_6,0.633504886151,,,2018_Jan_23_1846,60.0072367532,MAFE4ImagesEEG,001,102779,
AFNE01.JPG,AFNE01.JPG,AFNE01.JPG,AFNE01.JPG,AFNE01.JPG,AFNE01.JPG,,,,,3,7,37,1,,,,,,,,,,,,,,,,,,,AFSA11.jpg,AFNE09.jpg,AFSA05.jpg,AFNE10.jpg,AFNE09.jpg,FN,3,num_6,16,num_6,0.850114953006,,,2018_Jan_23_1846,60.0072367532,MAFE4ImagesEEG,001,102779,
AFNE01.JPG,AFNE01.JPG,AFNE01.JPG,AFNE01.JPG,AFNE01.JPG,AFNE01.JPG,,,,,3,8,38,7,,,,,,,,,,,,,,,,,,,AFSA06.jpg,AFSA17.jpg,AFNE02.jpg,AFNE05.jpg,AFSA06.jpg,FS,4,num_8,16,num_8,0.70019590763,,,2018_Jan_23_1846,60.0072367532,MAFE4ImagesEEG,001,102779,
AFNE01.JPG,AFNE01.JPG,AFNE01.JPG,AFNE01.JPG,AFNE01.JPG,AFNE01.JPG,,,,,3,9,39,6,,,,,,,,,,,,,,,,,,,AFNE16.jpg,AFSA07.jpg,AFNE06.jpg,AFSA14.jpg,AFNE06.jpg,FN,3,num_2,32,num_8,0.700112515377,,,2018_Jan_23_1846,60.0072367532,MAFE4ImagesEEG,001,102779,
AFNE01.JPG,AFNE01.JPG,AFNE01.JPG,AFNE01.JPG,AFNE01.JPG,AFNE01.JPG,,,,,4,0,40,6,,,,,,,,,,,,,,,,,,,AFSA17.jpg,AFNE15.jpg,AFNE02.jpg,AFSA13.jpg,AFSA13.jpg,FS,4,num_4,16,num_4,0.966769795064,,,2018_Jan_23_1846,60.0072367532,MAFE4ImagesEEG,001,102779,
AFNE01.JPG,AFNE01.JPG,AFNE01.JPG,AFNE01.JPG,AFNE01.JPG,AFNE01.JPG,,,,,4,1,41,8,,,,,,,,,,,,,,,,,,,AFNE11.jpg,AFNE20.jpg,AFSA20.jpg,AFSA07.jpg,AFNE20.jpg,FN,3,num_6,32,num_8,0.316846580085,,,2018_Jan_23_1846,60.0072367532,MAFE4ImagesEEG,001,102779,
AFNE01.JPG,AFNE01.JPG,AFNE01.JPG,AFNE01.JPG,AFNE01.JPG,AFNE01.JPG,,,,,4,2,42,2,,,,,,,,,,,,,,,,,,,AFNE01.jpg,AFSA17.jpg,AFSA12.jpg,AFNE04.jpg,AFNE01.jpg,FN,3,num_8,16,num_8,0.866752667585,,,2018_Jan_23_1846,60.0072367532,MAFE4ImagesEEG,001,102779,
AFNE01.JPG,AFNE01.JPG,AFNE01.JPG,AFNE01.JPG,AFNE01.JPG,AFNE01.JPG,,,,,4,3,43,3,,,,,,,,,,,,,,,,,,,AFSA08.jpg,AFNE02.jpg,AFNE11.jpg,AFSA17.jpg,AFSA08.jpg,FS,4,num_8,32,num_6,0.716803151969,,,2018_Jan_23_1846,60.0072367532,MAFE4ImagesEEG,001,102779,
AFNE01.JPG,AFNE01.JPG,AFNE01.JPG,AFNE01.JPG,AFNE01.JPG,AFNE01.JPG,,,,,4,4,44,5,,,,,,,,,,,,,,,,,,,AFNE06.jpg,AFNE05.jpg,AFSA04.jpg,AFSA02.jpg,AFSA04.jpg,FS,4,num_2,32,num_6,0.966818547473,,,2018_Jan_23_1846,60.0072367532,MAFE4ImagesEEG,001,102779,
AFNE01.JPG,AFNE01.JPG,AFNE01.JPG,AFNE01.JPG,AFNE01.JPG,AFNE01.JPG,,,,,4,5,45,7,,,,,,,,,,,,,,,,,,,AFNE10.jpg,AFNE13.jpg,AFSA11.jpg,AFSA09.jpg,AFNE13.jpg,FN,3,num_6,32,num_8,1.18343534984,,,2018_Jan_23_1846,60.0072367532,MAFE4ImagesEEG,001,102779,
AFNE01.JPG,AFNE01.JPG,AFNE01.JPG,AFNE01.JPG,AFNE01.JPG,AFNE01.JPG,,,,,4,6,46,9,,,,,,,,,,,,,,,,,,,AFNE10.jpg,AFSA13.jpg,AFNE06.jpg,AFSA10.jpg,AFSA10.jpg,FS,4,num_4,16,num_4,0.600126499616,,,2018_Jan_23_1846,60.0072367532,MAFE4ImagesEEG,001,102779,
AFNE01.JPG,AFNE01.JPG,AFNE01.JPG,AFNE01.JPG,AFNE01.JPG,AFNE01.JPG,,,,,4,7,47,1,,,,,,,,,,,,,,,,,,,AFNE18.jpg,AFSA12.jpg,AFSA18.jpg,AFNE04.jpg,AFSA18.jpg,FS,4,num_2,16,num_2,1.46670308129,,,2018_Jan_23_1846,60.0072367532,MAFE4ImagesEEG,001,102779,
AFNE01.JPG,AFNE01.JPG,AFNE01.JPG,AFNE01.JPG,AFNE01.JPG,AFNE01.JPG,,,,,4,8,48,4,,,,,,,,,,,,,,,,,,,AFNE09.jpg,AFSA14.jpg,AFNE08.jpg,AFSA09.jpg,AFSA14.jpg,FS,4,num_6,16,num_6,0.800144717621,,,2018_Jan_23_1846,60.0072367532,MAFE4ImagesEEG,001,102779,
AFNE01.JPG,AFNE01.JPG,AFNE01.JPG,AFNE01.JPG,AFNE01.JPG,AFNE01.JPG,,,,,4,9,49,0,,,,,,,,,,,,,,,,,,,AFSA16.jpg,AFNE18.jpg,AFNE12.jpg,AFSA20.jpg,AFSA20.jpg,FS,4,num_4,16,num_4,0.616803344412,,,2018_Jan_23_1846,60.0072367532,MAFE4ImagesEEG,001,102779,
AFNE01.JPG,AFNE01.JPG,AFNE01.JPG,AFNE01.JPG,AFNE01.JPG,AFNE01.JPG,,,,,5,0,50,3,,,,,,,,,,,,,,,,,,,AFNE02.jpg,AFSA09.jpg,AFSA08.jpg,AFNE03.jpg,AFNE03.jpg,FN,3,num_4,16,num_4,1.48349539227,,,2018_Jan_23_1846,60.0072367532,MAFE4ImagesEEG,001,102779,
AFNE01.JPG,AFNE01.JPG,AFNE01.JPG,AFNE01.JPG,AFNE01.JPG,AFNE01.JPG,,,,,5,1,51,9,,,,,,,,,,,,,,,,,,,AFSA17.jpg,AFNE04.jpg,AFSA16.jpg,AFNE02.jpg,AFSA17.jpg,FS,4,num_8,16,num_8,0.883502961704,,,2018_Jan_23_1846,60.0072367532,MAFE4ImagesEEG,001,102779,
AFNE01.JPG,AFNE01.JPG,AFNE01.JPG,AFNE01.JPG,AFNE01.JPG,AFNE01.JPG,,,,,5,2,52,7,,,,,,,,,,,,,,,,,,,AFNE05.jpg,AFSA15.jpg,AFSA02.jpg,AFNE12.jpg,AFSA15.jpg,FS,4,num_6,32,num_2,0.883456454496,,,2018_Jan_23_1846,60.0072367532,MAFE4ImagesEEG,001,102779,
AFNE01.JPG,AFNE01.JPG,AFNE01.JPG,AFNE01.JPG,AFNE01.JPG,AFNE01.JPG,,,,,5,3,53,1,,,,,,,,,,,,,,,,,,,AFSA15.jpg,AFNE20.jpg,AFNE05.jpg,AFSA04.jpg,AFSA15.jpg,FS,4,num_8,16,num_8,0.983460110918,,,2018_Jan_23_1846,60.0072367532,MAFE4ImagesEEG,001,102779,
AFNE01.JPG,AFNE01.JPG,AFNE01.JPG,AFNE01.JPG,AFNE01.JPG,AFNE01.JPG,,,,,5,4,54,4,,,,,,,,,,,,,,,,,,,AFNE13.jpg,AFSA20.jpg,AFNE06.jpg,AFSA04.jpg,AFNE13.jpg,FN,3,num_8,32,num_4,0.850194175626,,,2018_Jan_23_1846,60.0072367532,MAFE4ImagesEEG,001,102779,
AFNE01.JPG,AFNE01.JPG,AFNE01.JPG,AFNE01.JPG,AFNE01.JPG,AFNE01.JPG,,,,,5,5,55,8,,,,,,,,,,,,,,,,,,,AFSA07.jpg,AFNE13.jpg,AFNE14.jpg,AFSA17.jpg,AFSA07.jpg,FS,4,num_8,16,num_8,1.20018885135,,,2018_Jan_23_1846,60.0072367532,MAFE4ImagesEEG,001,102779,
AFNE01.JPG,AFNE01.JPG,AFNE01.JPG,AFNE01.JPG,AFNE01.JPG,AFNE01.JPG,,,,,5,6,56,5,,,,,,,,,,,,,,,,,,,AFNE17.jpg,AFNE01.jpg,AFSA13.jpg,AFSA06.jpg,AFNE17.jpg,FN,3,num_8,32,num_2,0.733227254124,,,2018_Jan_23_1846,60.0072367532,MAFE4ImagesEEG,001,102779,
AFNE01.JPG,AFNE01.JPG,AFNE01.JPG,AFNE01.JPG,AFNE01.JPG,AFNE01.JPG,,,,,5,7,57,2,,,,,,,,,,,,,,,,,,,AFSA07.jpg,AFNE03.jpg,AFNE18.jpg,AFSA01.jpg,AFSA07.jpg,FS,4,num_8,32,num_6,0.700019500946,,,2018_Jan_23_1846,60.0072367532,MAFE4ImagesEEG,001,102779,
AFNE01.JPG,AFNE01.JPG,AFNE01.JPG,AFNE01.JPG,AFNE01.JPG,AFNE01.JPG,,,,,5,8,58,0,,,,,,,,,,,,,,,,,,,AFNE02.jpg,AFSA16.jpg,AFNE07.jpg,AFSA17.jpg,AFNE07.jpg,FN,3,num_2,32,num_8,0.883469925553,,,2018_Jan_23_1846,60.0072367532,MAFE4ImagesEEG,001,102779,
AFNE01.JPG,AFNE01.JPG,AFNE01.JPG,AFNE01.JPG,AFNE01.JPG,AFNE01.JPG,,,,,5,9,59,6,,,,,,,,,,,,,,,,,,,AFSA05.jpg,AFNE14.jpg,AFSA18.jpg,AFNE01.jpg,AFNE14.jpg,FN,3,num_6,16,num_6,0.983455620575,,,2018_Jan_23_1846,60.0072367532,MAFE4ImagesEEG,001,102779,
,,,,,,,,,,,,,,,,,,,,,,,,,,,,,,,,,,,,,,,,,,,space,8.73276667236,2018_Jan_23_1846,60.0072367532,MAFE4ImagesEEG,001,102779,
AFNE01.JPG,AFNE01.JPG,AFNE01.JPG,AFNE01.JPG,AFNE01.JPG,AFNE01.JPG,,,,,,,,,0,0,0,4,,,,,,,,,,,,,,,AMNE18.jpg,AMSA12.jpg,AMNE15.jpg,AMSA01.jpg,AMSA12.jpg,MS,2,num_6,32,num_8,2.26665535526,,,2018_Jan_23_1846,60.0072367532,MAFE4ImagesEEG,001,102779,
AFNE01.JPG,AFNE01.JPG,AFNE01.JPG,AFNE01.JPG,AFNE01.JPG,AFNE01.JPG,,,,,,,,,0,1,1,8,,,,,,,,,,,,,,,AMSA20.jpg,AMNE01.jpg,AMSA01.jpg,AMNE07.jpg,AMSA20.jpg,MS,2,num_8,32,num_2,1.30009500301,,,2018_Jan_23_1846,60.0072367532,MAFE4ImagesEEG,001,102779,
AFNE01.JPG,AFNE01.JPG,AFNE01.JPG,AFNE01.JPG,AFNE01.JPG,AFNE01.JPG,,,,,,,,,0,2,2,5,,,,,,,,,,,,,,,AMNE06.jpg,AMSA15.jpg,AMSA18.jpg,AMNE15.jpg,AMSA18.jpg,MS,2,num_2,32,num_4,0.316804563219,,,2018_Jan_23_1846,60.0072367532,MAFE4ImagesEEG,001,102779,
AFNE01.JPG,AFNE01.JPG,AFNE01.JPG,AFNE01.JPG,AFNE01.JPG,AFNE01.JPG,,,,,,,,,0,3,3,7,,,,,,,,,,,,,,,AMNE04.jpg,AMSA17.jpg,AMNE07.jpg,AMSA07.jpg,AMSA07.jpg,MS,2,num_4,32,num_6,0.450125344956,,,2018_Jan_23_1846,60.0072367532,MAFE4ImagesEEG,001,102779,
AFNE01.JPG,AFNE01.JPG,AFNE01.JPG,AFNE01.JPG,AFNE01.JPG,AFNE01.JPG,,,,,,,,,0,4,4,6,,,,,,,,,,,,,,,AMSA03.jpg,AMNE07.jpg,AMSA17.jpg,AMNE09.jpg,AMSA03.jpg,MS,2,num_8,32,num_4,0.500184104414,,,2018_Jan_23_1846,60.0072367532,MAFE4ImagesEEG,001,102779,
AFNE01.JPG,AFNE01.JPG,AFNE01.JPG,AFNE01.JPG,AFNE01.JPG,AFNE01.JPG,,,,,,,,,0,5,5,9,,,,,,,,,,,,,,,AMSA19.jpg,AMSA20.jpg,AMNE05.jpg,AMNE14.jpg,AMNE05.jpg,MN,1,num_2,16,num_2,0.783462099498,,,2018_Jan_23_1846,60.0072367532,MAFE4ImagesEEG,001,102779,
AFNE01.JPG,AFNE01.JPG,AFNE01.JPG,AFNE01.JPG,AFNE01.JPG,AFNE01.JPG,,,,,,,,,0,6,6,0,,,,,,,,,,,,,,,AMNE06.jpg,AMSA06.jpg,AMNE19.jpg,AMSA08.jpg,AMSA06.jpg,MS,2,num_6,32,num_8,3.03328184396,,,2018_Jan_23_1846,60.0072367532,MAFE4ImagesEEG,001,102779,
AFNE01.JPG,AFNE01.JPG,AFNE01.JPG,AFNE01.JPG,AFNE01.JPG,AFNE01.JPG,,,,,,,,,0,7,7,3,,,,,,,,,,,,,,,AMNE18.jpg,AMSA19.jpg,AMNE06.jpg,AMSA16.jpg,AMNE06.jpg,MN,1,num_2,16,num_2,0.800173584154,,,2018_Jan_23_1846,60.0072367532,MAFE4ImagesEEG,001,102779,
AFNE01.JPG,AFNE01.JPG,AFNE01.JPG,AFNE01.JPG,AFNE01.JPG,AFNE01.JPG,,,,,,,,,0,8,8,2,,,,,,,,,,,,,,,AMSA18.jpg,AMSA20.jpg,AMNE13.jpg,AMNE18.jpg,AMSA18.jpg,MS,2,num_8,16,num_8,2.05005106171,,,2018_Jan_23_1846,60.0072367532,MAFE4ImagesEEG,001,102779,
AFNE01.JPG,AFNE01.JPG,AFNE01.JPG,AFNE01.JPG,AFNE01.JPG,AFNE01.JPG,,,,,,,,,0,9,9,1,,,,,,,,,,,,,,,AMNE02.jpg,AMNE10.jpg,AMSA03.jpg,AMSA17.jpg,AMNE10.jpg,MN,1,num_6,16,num_6,0.700190775795,,,2018_Jan_23_1846,60.0072367532,MAFE4ImagesEEG,001,102779,
AFNE01.JPG,AFNE01.JPG,AFNE01.JPG,AFNE01.JPG,AFNE01.JPG,AFNE01.JPG,,,,,,,,,1,0,10,6,,,,,,,,,,,,,,,AMNE15.jpg,AMSA12.jpg,AMNE01.jpg,AMSA20.jpg,AMSA12.jpg,MS,2,num_6,32,num_4,0.800047854325,,,2018_Jan_23_1846,60.0072367532,MAFE4ImagesEEG,001,102779,
AFNE01.JPG,AFNE01.JPG,AFNE01.JPG,AFNE01.JPG,AFNE01.JPG,AFNE01.JPG,,,,,,,,,1,1,11,9,,,,,,,,,,,,,,,AMNE12.jpg,AMSA02.jpg,AMSA06.jpg,AMNE04.jpg,AMSA02.jpg,MS,2,num_6,32,num_8,1.2835002675,,,2018_Jan_23_1846,60.0072367532,MAFE4ImagesEEG,001,102779,
AFNE01.JPG,AFNE01.JPG,AFNE01.JPG,AFNE01.JPG,AFNE01.JPG,AFNE01.JPG,,,,,,,,,1,2,12,2,,,,,,,,,,,,,,,AMNE18.jpg,AMSA07.jpg,AMSA18.jpg,AMNE07.jpg,AMNE18.jpg,MN,1,num_8,32,num_6,0.633446190841,,,2018_Jan_23_1846,60.0072367532,MAFE4ImagesEEG,001,102779,
AFNE01.JPG,AFNE01.JPG,AFNE01.JPG,AFNE01.JPG,AFNE01.JPG,AFNE01.JPG,,,,,,,,,1,3,13,5,,,,,,,,,,,,,,,AMSA05.jpg,AMNE08.jpg,AMSA15.jpg,AMNE16.jpg,AMSA05.jpg,MS,2,num_8,32,num_4,0.566827014976,,,2018_Jan_23_1846,60.0072367532,MAFE4ImagesEEG,001,102779,
AFNE01.JPG,AFNE01.JPG,AFNE01.JPG,AFNE01.JPG,AFNE01.JPG,AFNE01.JPG,,,,,,,,,1,4,14,1,,,,,,,,,,,,,,,AMSA10.jpg,AMSA05.jpg,AMNE05.jpg,AMNE14.jpg,AMNE05.jpg,MN,1,num_2,32,num_8,0.650588749224,,,2018_Jan_23_1846,60.0072367532,MAFE4ImagesEEG,001,102779,
AFNE01.JPG,AFNE01.JPG,AFNE01.JPG,AFNE01.JPG,AFNE01.JPG,AFNE01.JPG,,,,,,,,,1,5,15,0,,,,,,,,,,,,,,,AMSA08.jpg,AMSA05.jpg,AMNE13.jpg,AMNE08.jpg,AMSA08.jpg,MS,2,num_8,32,num_4,0.81681963797,,,2018_Jan_23_1846,60.0072367532,MAFE4ImagesEEG,001,102779,
AFNE01.JPG,AFNE01.JPG,AFNE01.JPG,AFNE01.JPG,AFNE01.JPG,AFNE01.JPG,,,,,,,,,1,6,16,7,,,,,,,,,,,,,,,AMSA16.jpg,AMNE05.jpg,AMNE01.jpg,AMSA07.jpg,AMSA16.jpg,MS,2,num_8,32,num_4,1.73343894213,,,2018_Jan_23_1846,60.0072367532,MAFE4ImagesEEG,001,102779,
AFNE01.JPG,AFNE01.JPG,AFNE01.JPG,AFNE01.JPG,AFNE01.JPG,AFNE01.JPG,,,,,,,,,1,7,17,8,,,,,,,,,,,,,,,AMNE10.jpg,AMNE05.jpg,AMSA01.jpg,AMSA05.jpg,AMNE10.jpg,MN,1,num_8,16,num_8,0.616861718983,,,2018_Jan_23_1846,60.0072367532,MAFE4ImagesEEG,001,102779,
AFNE01.JPG,AFNE01.JPG,AFNE01.JPG,AFNE01.JPG,AFNE01.JPG,AFNE01.JPG,,,,,,,,,1,8,18,4,,,,,,,,,,,,,,,AMSA04.jpg,AMNE08.jpg,AMSA06.jpg,AMNE14.jpg,AMSA04.jpg,MS,2,num_8,32,num_4,0.633571920684,,,2018_Jan_23_1846,60.0072367532,MAFE4ImagesEEG,001,102779,
AFNE01.JPG,AFNE01.JPG,AFNE01.JPG,AFNE01.JPG,AFNE01.JPG,AFNE01.JPG,,,,,,,,,1,9,19,3,,,,,,,,,,,,,,,AMNE04.jpg,AMSA06.jpg,AMSA08.jpg,AMNE11.jpg,AMNE04.jpg,MN,1,num_8,16,num_8,0.71661391572,,,2018_Jan_23_1846,60.0072367532,MAFE4ImagesEEG,001,102779,
AFNE01.JPG,AFNE01.JPG,AFNE01.JPG,AFNE01.JPG,AFNE01.JPG,AFNE01.JPG,,,,,,,,,2,0,20,7,,,,,,,,,,,,,,,AMSA02.jpg,AMNE16.jpg,AMNE19.jpg,AMSA09.jpg,AMSA02.jpg,MS,2,num_8,32,num_6,1.4001089231,,,2018_Jan_23_1846,60.0072367532,MAFE4ImagesEEG,001,102779,
AFNE01.JPG,AFNE01.JPG,AFNE01.JPG,AFNE01.JPG,AFNE01.JPG,AFNE01.JPG,,,,,,,,,2,1,21,2,,,,,,,,,,,,,,,AMSA13.jpg,AMSA18.jpg,AMNE03.jpg,AMNE04.jpg,AMNE04.jpg,MN,1,num_4,16,num_4,0.683490837764,,,2018_Jan_23_1846,60.0072367532,MAFE4ImagesEEG,001,102779,
AFNE01.JPG,AFNE01.JPG,AFNE01.JPG,AFNE01.JPG,AFNE01.JPG,AFNE01.JPG,,,,,,,,,2,2,22,8,,,,,,,,,,,,,,,AMNE06.jpg,AMNE20.jpg,AMSA20.jpg,AMSA12.jpg,AMNE20.jpg,MN,1,num_6,16,num_6,0.650134261508,,,2018_Jan_23_1846,60.0072367532,MAFE4ImagesEEG,001,102779,
AFNE01.JPG,AFNE01.JPG,AFNE01.JPG,AFNE01.JPG,AFNE01.JPG,AFNE01.JPG,,,,,,,,,2,3,23,1,,,,,,,,,,,,,,,AMSA09.jpg,AMNE17.jpg,AMNE20.jpg,AMSA17.jpg,AMNE17.jpg,MN,1,num_6,32,num_4,0.783330275619,,,2018_Jan_23_1846,60.0072367532,MAFE4ImagesEEG,001,102779,
AFNE01.JPG,AFNE01.JPG,AFNE01.JPG,AFNE01.JPG,AFNE01.JPG,AFNE01.JPG,,,,,,,,,2,4,24,9,,,,,,,,,,,,,,,AMSA20.jpg,AMSA10.jpg,AMNE19.jpg,AMNE13.jpg,AMSA20.jpg,MS,2,num_8,32,num_6,0.633523489028,,,2018_Jan_23_1846,60.0072367532,MAFE4ImagesEEG,001,102779,
AFNE01.JPG,AFNE01.JPG,AFNE01.JPG,AFNE01.JPG,AFNE01.JPG,AFNE01.JPG,,,,,,,,,2,5,25,5,,,,,,,,,,,,,,,AMNE14.jpg,AMNE08.jpg,AMSA02.jpg,AMSA11.jpg,AMSA02.jpg,MS,2,num_2,32,num_6,0.650201937518,,,2018_Jan_23_1846,60.0072367532,MAFE4ImagesEEG,001,102779,
AFNE01.JPG,AFNE01.JPG,AFNE01.JPG,AFNE01.JPG,AFNE01.JPG,AFNE01.JPG,,,,,,,,,2,6,26,0,,,,,,,,,,,,,,,AMSA18.jpg,AMNE02.jpg,AMNE20.jpg,AMSA03.jpg,AMSA18.jpg,MS,2,num_8,16,num_8,0.516810913861,,,2018_Jan_23_1846,60.0072367532,MAFE4ImagesEEG,001,102779,
AFNE01.JPG,AFNE01.JPG,AFNE01.JPG,AFNE01.JPG,AFNE01.JPG,AFNE01.JPG,,,,,,,,,2,7,27,3,,,,,,,,,,,,,,,AMNE16.jpg,AMSA06.jpg,AMSA13.jpg,AMNE14.jpg,AMNE16.jpg,MN,1,num_8,32,num_4,1.76668967438,,,2018_Jan_23_1846,60.0072367532,MAFE4ImagesEEG,001,102779,
AFNE01.JPG,AFNE01.JPG,AFNE01.JPG,AFNE01.JPG,AFNE01.JPG,AFNE01.JPG,,,,,,,,,2,8,28,6,,,,,,,,,,,,,,,AMSA16.jpg,AMNE13.jpg,AMSA11.jpg,AMNE17.jpg,AMNE13.jpg,MN,1,num_6,32,num_4,0.550163641237,,,2018_Jan_23_1846,60.0072367532,MAFE4ImagesEEG,001,102779,
AFNE01.JPG,AFNE01.JPG,AFNE01.JPG,AFNE01.JPG,AFNE01.JPG,AFNE01.JPG,,,,,,,,,2,9,29,4,,,,,,,,,,,,,,,AMSA02.jpg,AMNE17.jpg,AMSA17.jpg,AMNE08.jpg,AMNE17.jpg,MN,1,num_6,32,num_8,0.766789103582,,,2018_Jan_23_1846,60.0072367532,MAFE4ImagesEEG,001,102779,
AFNE01.JPG,AFNE01.JPG,AFNE01.JPG,AFNE01.JPG,AFNE01.JPG,AFNE01.JPG,,,,,,,,,3,0,30,8,,,,,,,,,,,,,,,AMNE20.jpg,AMNE02.jpg,AMSA06.jpg,AMSA03.jpg,AMSA03.jpg,MS,2,num_4,32,num_6,0.533509568937,,,2018_Jan_23_1846,60.0072367532,MAFE4ImagesEEG,001,102779,
AFNE01.JPG,AFNE01.JPG,AFNE01.JPG,AFNE01.JPG,AFNE01.JPG,AFNE01.JPG,,,,,,,,,3,1,31,7,,,,,,,,,,,,,,,AMNE06.jpg,AMNE11.jpg,AMSA05.jpg,AMSA01.jpg,AMSA01.jpg,MS,2,num_4,16,num_4,0.500190839943,,,2018_Jan_23_1846,60.0072367532,MAFE4ImagesEEG,001,102779,
AFNE01.JPG,AFNE01.JPG,AFNE01.JPG,AFNE01.JPG,AFNE01.JPG,AFNE01.JPG,,,,,,,,,3,2,32,1,,,,,,,,,,,,,,,AMSA05.jpg,AMSA09.jpg,AMNE13.jpg,AMNE02.jpg,AMNE13.jpg,MN,1,num_2,32,num_8,0.566875446631,,,2018_Jan_23_1846,60.0072367532,MAFE4ImagesEEG,001,102779,
AFNE01.JPG,AFNE01.JPG,AFNE01.JPG,AFNE01.JPG,AFNE01.JPG,AFNE01.JPG,,,,,,,,,3,3,33,3,,,,,,,,,,,,,,,AMSA07.jpg,AMNE20.jpg,AMSA19.jpg,AMNE05.jpg,AMNE20.jpg,MN,1,num_6,32,num_4,0.483521692891,,,2018_Jan_23_1846,60.0072367532,MAFE4ImagesEEG,001,102779,
AFNE01.JPG,AFNE01.JPG,AFNE01.JPG,AFNE01.JPG,AFNE01.JPG,AFNE01.JPG,,,,,,,,,3,4,34,6,,,,,,,,,,,,,,,AMSA10.jpg,AMNE20.jpg,AMSA07.jpg,AMNE19.jpg,AMNE20.jpg,MN,1,num_6,16,num_6,0.466806359371,,,2018_Jan_23_1846,60.0072367532,MAFE4ImagesEEG,001,102779,
AFNE01.JPG,AFNE01.JPG,AFNE01.JPG,AFNE01.JPG,AFNE01.JPG,AFNE01.JPG,,,,,,,,,3,5,35,2,,,,,,,,,,,,,,,AMSA16.jpg,AMNE20.jpg,AMSA02.jpg,AMNE06.jpg,AMNE20.jpg,MN,1,num_6,16,num_6,0.700220604558,,,2018_Jan_23_1846,60.0072367532,MAFE4ImagesEEG,001,102779,
AFNE01.JPG,AFNE01.JPG,AFNE01.JPG,AFNE01.JPG,AFNE01.JPG,AFNE01.JPG,,,,,,,,,3,6,36,9,,,,,,,,,,,,,,,AMNE08.jpg,AMSA17.jpg,AMNE09.jpg,AMSA01.jpg,AMSA17.jpg,MS,2,num_6,32,num_8,0.733478072332,,,2018_Jan_23_1846,60.0072367532,MAFE4ImagesEEG,001,102779,
AFNE01.JPG,AFNE01.JPG,AFNE01.JPG,AFNE01.JPG,AFNE01.JPG,AFNE01.JPG,,,,,,,,,3,7,37,4,,,,,,,,,,,,,,,AMSA20.jpg,AMSA06.jpg,AMNE04.jpg,AMNE05.jpg,AMSA20.jpg,MS,2,num_8,32,num_2,1.78333155857,,,2018_Jan_23_1846,60.0072367532,MAFE4ImagesEEG,001,102779,
AFNE01.JPG,AFNE01.JPG,AFNE01.JPG,AFNE01.JPG,AFNE01.JPG,AFNE01.JPG,,,,,,,,,3,8,38,5,,,,,,,,,,,,,,,AMNE07.jpg,AMSA11.jpg,AMSA14.jpg,AMNE03.jpg,AMSA14.jpg,MS,2,num_2,32,num_4,0.716850300669,,,2018_Jan_23_1846,60.0072367532,MAFE4ImagesEEG,001,102779,
AFNE01.JPG,AFNE01.JPG,AFNE01.JPG,AFNE01.JPG,AFNE01.JPG,AFNE01.JPG,,,,,,,,,3,9,39,0,,,,,,,,,,,,,,,AMNE10.jpg,AMSA10.jpg,AMNE16.jpg,AMSA17.jpg,AMNE10.jpg,MN,1,num_8,32,num_6,1.15011630011,,,2018_Jan_23_1846,60.0072367532,MAFE4ImagesEEG,001,102779,
AFNE01.JPG,AFNE01.JPG,AFNE01.JPG,AFNE01.JPG,AFNE01.JPG,AFNE01.JPG,,,,,,,,,4,0,40,9,,,,,,,,,,,,,,,AMNE03.jpg,AMSA17.jpg,AMSA04.jpg,AMNE10.jpg,AMNE03.jpg,MN,1,num_8,16,num_8,0.650196805698,,,2018_Jan_23_1846,60.0072367532,MAFE4ImagesEEG,001,102779,
AFNE01.JPG,AFNE01.JPG,AFNE01.JPG,AFNE01.JPG,AFNE01.JPG,AFNE01.JPG,,,,,,,,,4,1,41,4,,,,,,,,,,,,,,,AMNE13.jpg,AMNE05.jpg,AMSA20.jpg,AMSA02.jpg,AMSA02.jpg,MS,2,num_4,16,num_4,0.566793658072,,,2018_Jan_23_1846,60.0072367532,MAFE4ImagesEEG,001,102779,
AFNE01.JPG,AFNE01.JPG,AFNE01.JPG,AFNE01.JPG,AFNE01.JPG,AFNE01.JPG,,,,,,,,,4,2,42,8,,,,,,,,,,,,,,,AMSA05.jpg,AMSA18.jpg,AMNE11.jpg,AMNE10.jpg,AMNE11.jpg,MN,1,num_2,32,num_6,0.416807578178,,,2018_Jan_23_1846,60.0072367532,MAFE4ImagesEEG,001,102779,
AFNE01.JPG,AFNE01.JPG,AFNE01.JPG,AFNE01.JPG,AFNE01.JPG,AFNE01.JPG,,,,,,,,,4,3,43,6,,,,,,,,,,,,,,,AMSA10.jpg,AMNE11.jpg,AMSA02.jpg,AMNE04.jpg,AMNE11.jpg,MN,1,num_6,32,num_4,0.383518357208,,,2018_Jan_23_1846,60.0072367532,MAFE4ImagesEEG,001,102779,
AFNE01.JPG,AFNE01.JPG,AFNE01.JPG,AFNE01.JPG,AFNE01.JPG,AFNE01.JPG,,,,,,,,,4,4,44,0,,,,,,,,,,,,,,,AMSA14.jpg,AMSA01.jpg,AMNE07.jpg,AMNE10.jpg,AMSA14.jpg,MS,2,num_8,32,num_6,0.950165437374,,,2018_Jan_23_1846,60.0072367532,MAFE4ImagesEEG,001,102779,
AFNE01.JPG,AFNE01.JPG,AFNE01.JPG,AFNE01.JPG,AFNE01.JPG,AFNE01.JPG,,,,,,,,,4,5,45,3,,,,,,,,,,,,,,,AMNE01.jpg,AMSA01.jpg,AMSA07.jpg,AMNE02.jpg,AMSA01.jpg,MS,2,num_6,16,num_6,0.683476083752,,,2018_Jan_23_1846,60.0072367532,MAFE4ImagesEEG,001,102779,
AFNE01.JPG,AFNE01.JPG,AFNE01.JPG,AFNE01.JPG,AFNE01.JPG,AFNE01.JPG,,,,,,,,,4,6,46,1,,,,,,,,,,,,,,,AMNE04.jpg,AMSA09.jpg,AMSA05.jpg,AMNE02.jpg,AMSA09.jpg,MS,2,num_6,32,num_2,1.80006741943,,,2018_Jan_23_1846,60.0072367532,MAFE4ImagesEEG,001,102779,
AFNE01.JPG,AFNE01.JPG,AFNE01.JPG,AFNE01.JPG,AFNE01.JPG,AFNE01.JPG,,,,,,,,,4,7,47,5,,,,,,,,,,,,,,,AMNE14.jpg,AMSA18.jpg,AMSA17.jpg,AMNE06.jpg,AMNE06.jpg,MN,1,num_4,16,num_4,0.716509996171,,,2018_Jan_23_1846,60.0072367532,MAFE4ImagesEEG,001,102779,
AFNE01.JPG,AFNE01.JPG,AFNE01.JPG,AFNE01.JPG,AFNE01.JPG,AFNE01.JPG,,,,,,,,,4,8,48,7,,,,,,,,,,,,,,,AMNE13.jpg,AMSA09.jpg,AMSA13.jpg,AMNE07.jpg,AMSA09.jpg,MS,2,num_6,32,num_4,1.05012675622,,,2018_Jan_23_1846,60.0072367532,MAFE4ImagesEEG,001,102779,
AFNE01.JPG,AFNE01.JPG,AFNE01.JPG,AFNE01.JPG,AFNE01.JPG,AFNE01.JPG,,,,,,,,,4,9,49,2,,,,,,,,,,,,,,,AMNE01.jpg,AMSA01.jpg,AMNE12.jpg,AMSA18.jpg,AMSA18.jpg,MS,2,num_4,16,num_4,0.700127269403,,,2018_Jan_23_1846,60.0072367532,MAFE4ImagesEEG,001,102779,
AFNE01.JPG,AFNE01.JPG,AFNE01.JPG,AFNE01.JPG,AFNE01.JPG,AFNE01.JPG,,,,,,,,,5,0,50,5,,,,,,,,,,,,,,,AMNE15.jpg,AMNE06.jpg,AMSA14.jpg,AMSA13.jpg,AMSA13.jpg,MS,2,num_4,32,num_2,0.983475185683,,,2018_Jan_23_1846,60.0072367532,MAFE4ImagesEEG,001,102779,
AFNE01.JPG,AFNE01.JPG,AFNE01.JPG,AFNE01.JPG,AFNE01.JPG,AFNE01.JPG,,,,,,,,,5,1,51,0,,,,,,,,,,,,,,,AMSA12.jpg,AMNE19.jpg,AMSA06.jpg,AMNE07.jpg,AMSA06.jpg,MS,2,num_2,32,num_4,0.816895973956,,,2018_Jan_23_1846,60.0072367532,MAFE4ImagesEEG,001,102779,
AFNE01.JPG,AFNE01.JPG,AFNE01.JPG,AFNE01.JPG,AFNE01.JPG,AFNE01.JPG,,,,,,,,,5,2,52,8,,,,,,,,,,,,,,,AMNE11.jpg,AMSA03.jpg,AMSA09.jpg,AMNE01.jpg,AMSA09.jpg,MS,2,num_2,32,num_6,0.933330788801,,,2018_Jan_23_1846,60.0072367532,MAFE4ImagesEEG,001,102779,
AFNE01.JPG,AFNE01.JPG,AFNE01.JPG,AFNE01.JPG,AFNE01.JPG,AFNE01.JPG,,,,,,,,,5,3,53,3,,,,,,,,,,,,,,,AMNE03.jpg,AMSA18.jpg,AMSA13.jpg,AMNE01.jpg,AMNE01.jpg,MN,1,num_4,16,num_4,0.550190583352,,,2018_Jan_23_1846,60.0072367532,MAFE4ImagesEEG,001,102779,
AFNE01.JPG,AFNE01.JPG,AFNE01.JPG,AFNE01.JPG,AFNE01.JPG,AFNE01.JPG,,,,,,,,,5,4,54,2,,,,,,,,,,,,,,,AMNE11.jpg,AMSA15.jpg,AMSA11.jpg,AMNE10.jpg,AMNE10.jpg,MN,1,num_4,32,num_8,1.16673348738,,,2018_Jan_23_1846,60.0072367532,MAFE4ImagesEEG,001,102779,
AFNE01.JPG,AFNE01.JPG,AFNE01.JPG,AFNE01.JPG,AFNE01.JPG,AFNE01.JPG,,,,,,,,,5,5,55,7,,,,,,,,,,,,,,,AMNE03.jpg,AMSA04.jpg,AMSA19.jpg,AMNE19.jpg,AMNE19.jpg,MN,1,num_4,32,num_2,0.550144396882,,,2018_Jan_23_1846,60.0072367532,MAFE4ImagesEEG,001,102779,
AFNE01.JPG,AFNE01.JPG,AFNE01.JPG,AFNE01.JPG,AFNE01.JPG,AFNE01.JPG,,,,,,,,,5,6,56,9,,,,,,,,,,,,,,,AMNE10.jpg,AMSA03.jpg,AMSA10.jpg,AMNE07.jpg,AMNE10.jpg,MN,1,num_8,32,num_4,0.600187119373,,,2018_Jan_23_1846,60.0072367532,MAFE4ImagesEEG,001,102779,
AFNE01.JPG,AFNE01.JPG,AFNE01.JPG,AFNE01.JPG,AFNE01.JPG,AFNE01.JPG,,,,,,,,,5,7,57,1,,,,,,,,,,,,,,,AMSA19.jpg,AMNE11.jpg,AMSA14.jpg,AMNE04.jpg,AMNE11.jpg,MN,1,num_6,32,num_8,0.283501229715,,,2018_Jan_23_1846,60.0072367532,MAFE4ImagesEEG,001,102779,
AFNE01.JPG,AFNE01.JPG,AFNE01.JPG,AFNE01.JPG,AFNE01.JPG,AFNE01.JPG,,,,,,,,,5,8,58,4,,,,,,,,,,,,,,,AMSA04.jpg,AMNE10.jpg,AMSA07.jpg,AMNE18.jpg,AMSA04.jpg,MS,2,num_8,32,num_6,0.366831248743,,,2018_Jan_23_1846,60.0072367532,MAFE4ImagesEEG,001,102779,
AFNE01.JPG,AFNE01.JPG,AFNE01.JPG,AFNE01.JPG,AFNE01.JPG,AFNE01.JPG,,,,,,,,,5,9,59,6,,,,,,,,,,,,,,,AMSA07.jpg,AMSA19.jpg,AMNE04.jpg,AMNE20.jpg,AMNE20.jpg,MN,1,num_4,16,num_4,0.566824449066,,,2018_Jan_23_1846,60.0072367532,MAFE4ImagesEEG,001,102779,
,,,,,,,,,,,,,,,,,,,,,,,,,,,,,,,,,,,,,,,,,,,space,15.165958581,2018_Jan_23_1846,60.0072367532,MAFE4ImagesEEG,001,102779,
AFNE01.JPG,AFNE01.JPG,AFNE01.JPG,AFNE01.JPG,AFNE01.JPG,AFNE01.JPG,,,,,,,,,,,,,0,0,0,4,,,,,,,,,,,AFNE15.jpg,AFNE11.jpg,AFSA10.jpg,AFSA14.jpg,AFNE11.jpg,FN,3,num_6,32,num_8,1.36669493451,,,2018_Jan_23_1846,60.0072367532,MAFE4ImagesEEG,001,102779,
AFNE01.JPG,AFNE01.JPG,AFNE01.JPG,AFNE01.JPG,AFNE01.JPG,AFNE01.JPG,,,,,,,,,,,,,0,1,1,7,,,,,,,,,,,AFNE19.jpg,AFSA08.jpg,AFSA12.jpg,AFNE14.jpg,AFNE19.jpg,FN,3,num_8,32,num_4,0.733550880177,,,2018_Jan_23_1846,60.0072367532,MAFE4ImagesEEG,001,102779,
AFNE01.JPG,AFNE01.JPG,AFNE01.JPG,AFNE01.JPG,AFNE01.JPG,AFNE01.JPG,,,,,,,,,,,,,0,2,2,1,,,,,,,,,,,AFNE01.jpg,AFSA05.jpg,AFNE07.jpg,AFSA03.jpg,AFSA05.jpg,FS,4,num_6,16,num_6,0.700169927732,,,2018_Jan_23_1846,60.0072367532,MAFE4ImagesEEG,001,102779,
AFNE01.JPG,AFNE01.JPG,AFNE01.JPG,AFNE01.JPG,AFNE01.JPG,AFNE01.JPG,,,,,,,,,,,,,0,3,3,8,,,,,,,,,,,AFNE09.jpg,AFSA02.jpg,AFSA14.jpg,AFNE20.jpg,AFSA14.jpg,FS,4,num_2,32,num_6,0.70024433927,,,2018_Jan_23_1846,60.0072367532,MAFE4ImagesEEG,001,102779,
AFNE01.JPG,AFNE01.JPG,AFNE01.JPG,AFNE01.JPG,AFNE01.JPG,AFNE01.JPG,,,,,,,,,,,,,0,4,4,9,,,,,,,,,,,AFNE07.jpg,AFSA14.jpg,AFNE15.jpg,AFSA17.jpg,AFNE07.jpg,FN,3,num_8,16,num_8,0.55009147487,,,2018_Jan_23_1846,60.0072367532,MAFE4ImagesEEG,001,102779,
AFNE01.JPG,AFNE01.JPG,AFNE01.JPG,AFNE01.JPG,AFNE01.JPG,AFNE01.JPG,,,,,,,,,,,,,0,5,5,0,,,,,,,,,,,AFSA12.jpg,AFSA16.jpg,AFNE07.jpg,AFNE06.jpg,AFSA16.jpg,FS,4,num_6,16,num_6,0.550158509403,,,2018_Jan_23_1846,60.0072367532,MAFE4ImagesEEG,001,102779,
AFNE01.JPG,AFNE01.JPG,AFNE01.JPG,AFNE01.JPG,AFNE01.JPG,AFNE01.JPG,,,,,,,,,,,,,0,6,6,6,,,,,,,,,,,AFSA15.jpg,AFNE19.jpg,AFSA04.jpg,AFNE06.jpg,AFSA04.jpg,FS,4,num_2,16,num_2,1.19979337968,,,2018_Jan_23_1846,60.0072367532,MAFE4ImagesEEG,001,102779,
AFNE01.JPG,AFNE01.JPG,AFNE01.JPG,AFNE01.JPG,AFNE01.JPG,AFNE01.JPG,,,,,,,,,,,,,0,7,7,3,,,,,,,,,,,AFNE16.jpg,AFSA11.jpg,AFSA19.jpg,AFNE14.jpg,AFSA19.jpg,FS,4,num_2,32,num_6,0.900118224541,,,2018_Jan_23_1846,60.0072367532,MAFE4ImagesEEG,001,102779,
AFNE01.JPG,AFNE01.JPG,AFNE01.JPG,AFNE01.JPG,AFNE01.JPG,AFNE01.JPG,,,,,,,,,,,,,0,8,8,5,,,,,,,,,,,AFSA05.jpg,AFNE04.jpg,AFNE13.jpg,AFSA10.jpg,AFNE04.jpg,FN,3,num_6,32,num_4,0.716798020148,,,2018_Jan_23_1846,60.0072367532,MAFE4ImagesEEG,001,102779,
AFNE01.JPG,AFNE01.JPG,AFNE01.JPG,AFNE01.JPG,AFNE01.JPG,AFNE01.JPG,,,,,,,,,,,,,0,9,9,2,,,,,,,,,,,AFSA12.jpg,AFNE09.jpg,AFNE19.jpg,AFSA13.jpg,AFNE19.jpg,FN,3,num_2,32,num_6,0.366818098424,,,2018_Jan_23_1846,60.0072367532,MAFE4ImagesEEG,001,102779,
AFNE01.JPG,AFNE01.JPG,AFNE01.JPG,AFNE01.JPG,AFNE01.JPG,AFNE01.JPG,,,,,,,,,,,,,1,0,10,8,,,,,,,,,,,AFNE08.jpg,AFSA11.jpg,AFNE18.jpg,AFSA16.jpg,AFNE08.jpg,FN,3,num_8,32,num_6,0.633762439888,,,2018_Jan_23_1846,60.0072367532,MAFE4ImagesEEG,001,102779,
AFNE01.JPG,AFNE01.JPG,AFNE01.JPG,AFNE01.JPG,AFNE01.JPG,AFNE01.JPG,,,,,,,,,,,,,1,1,11,4,,,,,,,,,,,AFNE08.jpg,AFNE04.jpg,AFSA15.jpg,AFSA18.jpg,AFNE04.jpg,FN,3,num_6,32,num_8,0.666773900535,,,2018_Jan_23_1846,60.0072367532,MAFE4ImagesEEG,001,102779,
AFNE01.JPG,AFNE01.JPG,AFNE01.JPG,AFNE01.JPG,AFNE01.JPG,AFNE01.JPG,,,,,,,,,,,,,1,2,12,9,,,,,,,,,,,AFNE05.jpg,AFSA01.jpg,AFNE15.jpg,AFSA17.jpg,AFSA01.jpg,FS,4,num_6,16,num_6,0.516834327835,,,2018_Jan_23_1846,60.0072367532,MAFE4ImagesEEG,001,102779,
AFNE01.JPG,AFNE01.JPG,AFNE01.JPG,AFNE01.JPG,AFNE01.JPG,AFNE01.JPG,,,,,,,,,,,,,1,3,13,6,,,,,,,,,,,AFNE03.jpg,AFSA07.jpg,AFSA20.jpg,AFNE18.jpg,AFSA07.jpg,FS,4,num_6,32,num_4,0.766803857608,,,2018_Jan_23_1846,60.0072367532,MAFE4ImagesEEG,001,102779,
AFNE01.JPG,AFNE01.JPG,AFNE01.JPG,AFNE01.JPG,AFNE01.JPG,AFNE01.JPG,,,,,,,,,,,,,1,4,14,2,,,,,,,,,,,AFNE11.jpg,AFSA05.jpg,AFSA14.jpg,AFNE05.jpg,AFNE11.jpg,FN,3,num_8,16,num_8,1.1334394553,,,2018_Jan_23_1846,60.0072367532,MAFE4ImagesEEG,001,102779,
AFNE01.JPG,AFNE01.JPG,AFNE01.JPG,AFNE01.JPG,AFNE01.JPG,AFNE01.JPG,,,,,,,,,,,,,1,5,15,1,,,,,,,,,,,AFSA17.jpg,AFNE05.jpg,AFNE09.jpg,AFSA02.jpg,AFNE05.jpg,FN,3,num_6,32,num_4,2.43344529277,,,2018_Jan_23_1846,60.0072367532,MAFE4ImagesEEG,001,102779,
AFNE01.JPG,AFNE01.JPG,AFNE01.JPG,AFNE01.JPG,AFNE01.JPG,AFNE01.JPG,,,,,,,,,,,,,1,6,16,7,,,,,,,,,,,AFNE12.jpg,AFNE18.jpg,AFSA02.jpg,AFSA05.jpg,AFSA05.jpg,FS,4,num_4,16,num_4,0.750203028045,,,2018_Jan_23_1846,60.0072367532,MAFE4ImagesEEG,001,102779,
AFNE01.JPG,AFNE01.JPG,AFNE01.JPG,AFNE01.JPG,AFNE01.JPG,AFNE01.JPG,,,,,,,,,,,,,1,7,17,5,,,,,,,,,,,AFNE17.jpg,AFNE19.jpg,AFSA14.jpg,AFSA01.jpg,AFSA14.jpg,FS,4,num_2,32,num_8,0.733480317518,,,2018_Jan_23_1846,60.0072367532,MAFE4ImagesEEG,001,102779,
AFNE01.JPG,AFNE01.JPG,AFNE01.JPG,AFNE01.JPG,AFNE01.JPG,AFNE01.JPG,,,,,,,,,,,,,1,8,18,0,,,,,,,,,,,AFSA18.jpg,AFSA15.jpg,AFNE04.jpg,AFNE18.jpg,AFSA15.jpg,FS,4,num_6,16,num_6,3.83299709154,,,2018_Jan_23_1846,60.0072367532,MAFE4ImagesEEG,001,102779,
AFNE01.JPG,AFNE01.JPG,AFNE01.JPG,AFNE01.JPG,AFNE01.JPG,AFNE01.JPG,,,,,,,,,,,,,1,9,19,3,,,,,,,,,,,AFNE05.jpg,AFSA09.jpg,AFNE08.jpg,AFSA02.jpg,AFSA09.jpg,FS,4,num_6,32,num_8,0.833537537415,,,2018_Jan_23_1846,60.0072367532,MAFE4ImagesEEG,001,102779,
AFNE01.JPG,AFNE01.JPG,AFNE01.JPG,AFNE01.JPG,AFNE01.JPG,AFNE01.JPG,,,,,,,,,,,,,2,0,20,7,,,,,,,,,,,AFNE12.jpg,AFSA04.jpg,AFSA01.jpg,AFNE18.jpg,AFNE12.jpg,FN,3,num_8,32,num_6,0.567092266458,,,2018_Jan_23_1846,60.0072367532,MAFE4ImagesEEG,001,102779,
AFNE01.JPG,AFNE01.JPG,AFNE01.JPG,AFNE01.JPG,AFNE01.JPG,AFNE01.JPG,,,,,,,,,,,,,2,1,21,3,,,,,,,,,,,AFSA08.jpg,AFSA13.jpg,AFNE06.jpg,AFNE15.jpg,AFNE06.jpg,FN,3,num_2,32,num_4,1.01677370809,,,2018_Jan_23_1846,60.0072367532,MAFE4ImagesEEG,001,102779,
AFNE01.JPG,AFNE01.JPG,AFNE01.JPG,AFNE01.JPG,AFNE01.JPG,AFNE01.JPG,,,,,,,,,,,,,2,2,22,0,,,,,,,,,,,AFSA08.jpg,AFNE01.jpg,AFSA18.jpg,AFNE12.jpg,AFNE01.jpg,FN,3,num_6,16,num_6,0.483475506408,,,2018_Jan_23_1846,60.0072367532,MAFE4ImagesEEG,001,102779,
AFNE01.JPG,AFNE01.JPG,AFNE01.JPG,AFNE01.JPG,AFNE01.JPG,AFNE01.JPG,,,,,,,,,,,,,2,3,23,8,,,,,,,,,,,AFSA07.jpg,AFSA17.jpg,AFNE19.jpg,AFNE18.jpg,AFSA17.jpg,FS,4,num_6,32,num_2,0.366851455314,,,2018_Jan_23_1846,60.0072367532,MAFE4ImagesEEG,001,102779,
AFNE01.JPG,AFNE01.JPG,AFNE01.JPG,AFNE01.JPG,AFNE01.JPG,AFNE01.JPG,,,,,,,,,,,,,2,4,24,5,,,,,,,,,,,AFSA03.jpg,AFNE17.jpg,AFNE18.jpg,AFSA08.jpg,AFSA03.jpg,FS,4,num_8,32,num_6,0.716852866579,,,2018_Jan_23_1846,60.0072367532,MAFE4ImagesEEG,001,102779,
AFNE01.JPG,AFNE01.JPG,AFNE01.JPG,AFNE01.JPG,AFNE01.JPG,AFNE01.JPG,,,,,,,,,,,,,2,5,25,2,,,,,,,,,,,AFNE15.jpg,AFSA01.jpg,AFNE02.jpg,AFSA04.jpg,AFNE15.jpg,FN,3,num_8,16,num_8,0.550162358268,,,2018_Jan_23_1846,60.0072367532,MAFE4ImagesEEG,001,102779,
AFNE01.JPG,AFNE01.JPG,AFNE01.JPG,AFNE01.JPG,AFNE01.JPG,AFNE01.JPG,,,,,,,,,,,,,2,6,26,6,,,,,,,,,,,AFNE09.jpg,AFSA10.jpg,AFSA08.jpg,AFNE15.jpg,AFNE15.jpg,FN,3,num_4,16,num_4,0.600148630634,,,2018_Jan_23_1846,60.0072367532,MAFE4ImagesEEG,001,102779,
AFNE01.JPG,AFNE01.JPG,AFNE01.JPG,AFNE01.JPG,AFNE01.JPG,AFNE01.JPG,,,,,,,,,,,,,2,7,27,1,,,,,,,,,,,AFNE05.jpg,AFSA20.jpg,AFSA08.jpg,AFNE02.jpg,AFNE02.jpg,FN,3,num_4,32,num_6,0.633461586331,,,2018_Jan_23_1846,60.0072367532,MAFE4ImagesEEG,001,102779,
AFNE01.JPG,AFNE01.JPG,AFNE01.JPG,AFNE01.JPG,AFNE01.JPG,AFNE01.JPG,,,,,,,,,,,,,2,8,28,4,,,,,,,,,,,AFSA18.jpg,AFNE04.jpg,AFNE19.jpg,AFSA10.jpg,AFNE04.jpg,FN,3,num_6,32,num_4,0.483495071516,,,2018_Jan_23_1846,60.0072367532,MAFE4ImagesEEG,001,102779,
AFNE01.JPG,AFNE01.JPG,AFNE01.JPG,AFNE01.JPG,AFNE01.JPG,AFNE01.JPG,,,,,,,,,,,,,2,9,29,9,,,,,,,,,,,AFSA17.jpg,AFNE03.jpg,AFNE19.jpg,AFSA15.jpg,AFNE19.jpg,FN,3,num_2,32,num_4,0.600213740734,,,2018_Jan_23_1846,60.0072367532,MAFE4ImagesEEG,001,102779,
AFNE01.JPG,AFNE01.JPG,AFNE01.JPG,AFNE01.JPG,AFNE01.JPG,AFNE01.JPG,,,,,,,,,,,,,3,0,30,6,,,,,,,,,,,AFNE12.jpg,AFSA16.jpg,AFSA20.jpg,AFNE08.jpg,AFNE08.jpg,FN,3,num_4,32,num_6,2.2500089807,,,2018_Jan_23_1846,60.0072367532,MAFE4ImagesEEG,001,102779,
AFNE01.JPG,AFNE01.JPG,AFNE01.JPG,AFNE01.JPG,AFNE01.JPG,AFNE01.JPG,,,,,,,,,,,,,3,1,31,2,,,,,,,,,,,AFSA07.jpg,AFNE15.jpg,AFSA18.jpg,AFNE06.jpg,AFNE06.jpg,FN,3,num_4,32,num_8,1.16677005167,,,2018_Jan_23_1846,60.0072367532,MAFE4ImagesEEG,001,102779,
AFNE01.JPG,AFNE01.JPG,AFNE01.JPG,AFNE01.JPG,AFNE01.JPG,AFNE01.JPG,,,,,,,,,,,,,3,2,32,0,,,,,,,,,,,AFNE07.jpg,AFSA18.jpg,AFNE17.jpg,AFSA13.jpg,AFNE17.jpg,FN,3,num_2,32,num_4,0.350149272126,,,2018_Jan_23_1846,60.0072367532,MAFE4ImagesEEG,001,102779,
AFNE01.JPG,AFNE01.JPG,AFNE01.JPG,AFNE01.JPG,AFNE01.JPG,AFNE01.JPG,,,,,,,,,,,,,3,3,33,9,,,,,,,,,,,AFSA02.jpg,AFNE05.jpg,AFNE08.jpg,AFSA10.jpg,AFSA10.jpg,FS,4,num_4,32,num_6,0.483501807044,,,2018_Jan_23_1846,60.0072367532,MAFE4ImagesEEG,001,102779,
AFNE01.JPG,AFNE01.JPG,AFNE01.JPG,AFNE01.JPG,AFNE01.JPG,AFNE01.JPG,,,,,,,,,,,,,3,4,34,5,,,,,,,,,,,AFNE08.jpg,AFSA19.jpg,AFNE17.jpg,AFSA14.jpg,AFNE08.jpg,FN,3,num_8,32,num_4,0.566782111477,,,2018_Jan_23_1846,60.0072367532,MAFE4ImagesEEG,001,102779,
AFNE01.JPG,AFNE01.JPG,AFNE01.JPG,AFNE01.JPG,AFNE01.JPG,AFNE01.JPG,,,,,,,,,,,,,3,5,35,4,,,,,,,,,,,AFNE03.jpg,AFSA19.jpg,AFNE09.jpg,AFSA07.jpg,AFSA07.jpg,FS,4,num_4,32,num_2,0.933465499344,,,2018_Jan_23_1846,60.0072367532,MAFE4ImagesEEG,001,102779,
AFNE01.JPG,AFNE01.JPG,AFNE01.JPG,AFNE01.JPG,AFNE01.JPG,AFNE01.JPG,,,,,,,,,,,,,3,6,36,3,,,,,,,,,,,AFNE17.jpg,AFSA08.jpg,AFSA11.jpg,AFNE05.jpg,AFNE17.jpg,FN,3,num_8,32,num_4,0.750165822261,,,2018_Jan_23_1846,60.0072367532,MAFE4ImagesEEG,001,102779,
AFNE01.JPG,AFNE01.JPG,AFNE01.JPG,AFNE01.JPG,AFNE01.JPG,AFNE01.JPG,,,,,,,,,,,,,3,7,37,7,,,,,,,,,,,AFSA11.jpg,AFSA17.jpg,AFNE15.jpg,AFNE08.jpg,AFNE15.jpg,FN,3,num_2,32,num_6,0.949971710783,,,2018_Jan_23_1846,60.0072367532,MAFE4ImagesEEG,001,102779,
AFNE01.JPG,AFNE01.JPG,AFNE01.JPG,AFNE01.JPG,AFNE01.JPG,AFNE01.JPG,,,,,,,,,,,,,3,8,38,8,,,,,,,,,,,AFNE07.jpg,AFNE19.jpg,AFSA07.jpg,AFSA20.jpg,AFSA20.jpg,FS,4,num_4,32,num_6,0.533454401768,,,2018_Jan_23_1846,60.0072367532,MAFE4ImagesEEG,001,102779,
AFNE01.JPG,AFNE01.JPG,AFNE01.JPG,AFNE01.JPG,AFNE01.JPG,AFNE01.JPG,,,,,,,,,,,,,3,9,39,1,,,,,,,,,,,AFSA17.jpg,AFNE06.jpg,AFSA18.jpg,AFNE09.jpg,AFSA17.jpg,FS,4,num_8,32,num_4,0.383656595877,,,2018_Jan_23_1846,60.0072367532,MAFE4ImagesEEG,001,102779,
AFNE01.JPG,AFNE01.JPG,AFNE01.JPG,AFNE01.JPG,AFNE01.JPG,AFNE01.JPG,,,,,,,,,,,,,4,0,40,8,,,,,,,,,,,AFNE11.jpg,AFNE08.jpg,AFSA13.jpg,AFSA06.jpg,AFSA13.jpg,FS,4,num_2,32,num_4,0.866783458565,,,2018_Jan_23_1846,60.0072367532,MAFE4ImagesEEG,001,102779,
AFNE01.JPG,AFNE01.JPG,AFNE01.JPG,AFNE01.JPG,AFNE01.JPG,AFNE01.JPG,,,,,,,,,,,,,4,1,41,4,,,,,,,,,,,AFSA11.jpg,AFNE11.jpg,AFNE16.jpg,AFSA12.jpg,AFNE16.jpg,FN,3,num_2,32,num_4,0.600178138659,,,2018_Jan_23_1846,60.0072367532,MAFE4ImagesEEG,001,102779,
AFNE01.JPG,AFNE01.JPG,AFNE01.JPG,AFNE01.JPG,AFNE01.JPG,AFNE01.JPG,,,,,,,,,,,,,4,2,42,6,,,,,,,,,,,AFSA16.jpg,AFNE08.jpg,AFNE06.jpg,AFSA07.jpg,AFSA07.jpg,FS,4,num_4,32,num_6,0.683491479227,,,2018_Jan_23_1846,60.0072367532,MAFE4ImagesEEG,001,102779,
AFNE01.JPG,AFNE01.JPG,AFNE01.JPG,AFNE01.JPG,AFNE01.JPG,AFNE01.JPG,,,,,,,,,,,,,4,3,43,9,,,,,,,,,,,AFSA12.jpg,AFNE12.jpg,AFNE01.jpg,AFSA19.jpg,AFSA19.jpg,FS,4,num_4,16,num_4,0.883462548547,,,2018_Jan_23_1846,60.0072367532,MAFE4ImagesEEG,001,102779,
AFNE01.JPG,AFNE01.JPG,AFNE01.JPG,AFNE01.JPG,AFNE01.JPG,AFNE01.JPG,,,,,,,,,,,,,4,4,44,1,,,,,,,,,,,AFNE03.jpg,AFSA08.jpg,AFSA14.jpg,AFNE16.jpg,AFSA14.jpg,FS,4,num_2,16,num_2,0.850165950556,,,2018_Jan_23_1846,60.0072367532,MAFE4ImagesEEG,001,102779,
AFNE01.JPG,AFNE01.JPG,AFNE01.JPG,AFNE01.JPG,AFNE01.JPG,AFNE01.JPG,,,,,,,,,,,,,4,5,45,7,,,,,,,,,,,AFNE15.jpg,AFNE01.jpg,AFSA14.jpg,AFSA12.jpg,AFSA14.jpg,FS,4,num_2,32,num_4,0.683544721978,,,2018_Jan_23_1846,60.0072367532,MAFE4ImagesEEG,001,102779,
AFNE01.JPG,AFNE01.JPG,AFNE01.JPG,AFNE01.JPG,AFNE01.JPG,AFNE01.JPG,,,,,,,,,,,,,4,6,46,5,,,,,,,,,,,AFSA19.jpg,AFSA03.jpg,AFNE14.jpg,AFNE15.jpg,AFSA03.jpg,FS,4,num_6,32,num_4,0.633538884518,,,2018_Jan_23_1846,60.0072367532,MAFE4ImagesEEG,001,102779,
AFNE01.JPG,AFNE01.JPG,AFNE01.JPG,AFNE01.JPG,AFNE01.JPG,AFNE01.JPG,,,,,,,,,,,,,4,7,47,0,,,,,,,,,,,AFSA18.jpg,AFSA04.jpg,AFNE05.jpg,AFNE04.jpg,AFNE04.jpg,FN,3,num_4,32,num_8,0.566794620303,,,2018_Jan_23_1846,60.0072367532,MAFE4ImagesEEG,001,102779,
AFNE01.JPG,AFNE01.JPG,AFNE01.JPG,AFNE01.JPG,AFNE01.JPG,AFNE01.JPG,,,,,,,,,,,,,4,8,48,2,,,,,,,,,,,AFNE18.jpg,AFSA15.jpg,AFSA02.jpg,AFNE03.jpg,AFNE03.jpg,FN,3,num_4,16,num_4,2.83331526502,,,2018_Jan_23_1846,60.0072367532,MAFE4ImagesEEG,001,102779,
AFNE01.JPG,AFNE01.JPG,AFNE01.JPG,AFNE01.JPG,AFNE01.JPG,AFNE01.JPG,,,,,,,,,,,,,4,9,49,3,,,,,,,,,,,AFSA04.jpg,AFSA13.jpg,AFNE04.jpg,AFNE10.jpg,AFNE10.jpg,FN,3,num_4,16,num_4,0.466795133485,,,2018_Jan_23_1846,60.0072367532,MAFE4ImagesEEG,001,102779,
AFNE01.JPG,AFNE01.JPG,AFNE01.JPG,AFNE01.JPG,AFNE01.JPG,AFNE01.JPG,,,,,,,,,,,,,5,0,50,0,,,,,,,,,,,AFNE20.jpg,AFSA19.jpg,AFNE14.jpg,AFSA12.jpg,AFSA12.jpg,FS,4,num_4,32,num_6,2.08331879316,,,2018_Jan_23_1846,60.0072367532,MAFE4ImagesEEG,001,102779,
AFNE01.JPG,AFNE01.JPG,AFNE01.JPG,AFNE01.JPG,AFNE01.JPG,AFNE01.JPG,,,,,,,,,,,,,5,1,51,2,,,,,,,,,,,AFSA19.jpg,AFSA07.jpg,AFNE11.jpg,AFNE17.jpg,AFNE17.jpg,FN,3,num_4,32,num_8,0.616791797802,,,2018_Jan_23_1846,60.0072367532,MAFE4ImagesEEG,001,102779,
AFNE01.JPG,AFNE01.JPG,AFNE01.JPG,AFNE01.JPG,AFNE01.JPG,AFNE01.JPG,,,,,,,,,,,,,5,2,52,7,,,,,,,,,,,AFSA20.jpg,AFSA03.jpg,AFNE07.jpg,AFNE06.jpg,AFNE06.jpg,FN,3,num_4,32,num_2,1.8831203196,,,2018_Jan_23_1846,60.0072367532,MAFE4ImagesEEG,001,102779,
AFNE01.JPG,AFNE01.JPG,AFNE01.JPG,AFNE01.JPG,AFNE01.JPG,AFNE01.JPG,,,,,,,,,,,,,5,3,53,6,,,,,,,,,,,AFSA06.jpg,AFNE09.jpg,AFNE10.jpg,AFSA18.jpg,AFNE10.jpg,FN,3,num_2,32,num_4,0.850027711873,,,2018_Jan_23_1846,60.0072367532,MAFE4ImagesEEG,001,102779,
AFNE01.JPG,AFNE01.JPG,AFNE01.JPG,AFNE01.JPG,AFNE01.JPG,AFNE01.JPG,,,,,,,,,,,,,5,4,54,5,,,,,,,,,,,AFNE05.jpg,AFSA13.jpg,AFNE10.jpg,AFSA20.jpg,AFSA13.jpg,FS,4,num_6,32,num_2,1.03345440177,,,2018_Jan_23_1846,60.0072367532,MAFE4ImagesEEG,001,102779,
AFNE01.JPG,AFNE01.JPG,AFNE01.JPG,AFNE01.JPG,AFNE01.JPG,AFNE01.JPG,,,,,,,,,,,,,5,5,55,9,,,,,,,,,,,AFNE18.jpg,AFSA01.jpg,AFSA07.jpg,AFNE12.jpg,AFSA07.jpg,FS,4,num_2,32,num_6,0.666792182674,,,2018_Jan_23_1846,60.0072367532,MAFE4ImagesEEG,001,102779,
AFNE01.JPG,AFNE01.JPG,AFNE01.JPG,AFNE01.JPG,AFNE01.JPG,AFNE01.JPG,,,,,,,,,,,,,5,6,56,8,,,,,,,,,,,AFNE02.jpg,AFSA14.jpg,AFNE04.jpg,AFSA15.jpg,AFNE02.jpg,FN,3,num_8,32,num_4,0.466821113383,,,2018_Jan_23_1846,60.0072367532,MAFE4ImagesEEG,001,102779,
AFNE01.JPG,AFNE01.JPG,AFNE01.JPG,AFNE01.JPG,AFNE01.JPG,AFNE01.JPG,,,,,,,,,,,,,5,7,57,4,,,,,,,,,,,AFSA20.jpg,AFNE18.jpg,AFNE03.jpg,AFSA10.jpg,AFSA20.jpg,FS,4,num_8,16,num_8,1.35011527373,,,2018_Jan_23_1846,60.0072367532,MAFE4ImagesEEG,001,102779,
AFNE01.JPG,AFNE01.JPG,AFNE01.JPG,AFNE01.JPG,AFNE01.JPG,AFNE01.JPG,,,,,,,,,,,,,5,8,58,3,,,,,,,,,,,AFNE20.jpg,AFSA04.jpg,AFNE12.jpg,AFSA20.jpg,AFSA04.jpg,FS,4,num_6,32,num_2,0.766851327033,,,2018_Jan_23_1846,60.0072367532,MAFE4ImagesEEG,001,102779,
AFNE01.JPG,AFNE01.JPG,AFNE01.JPG,AFNE01.JPG,AFNE01.JPG,AFNE01.JPG,,,,,,,,,,,,,5,9,59,1,,,,,,,,,,,AFSA03.jpg,AFNE07.jpg,AFSA12.jpg,AFNE04.jpg,AFSA03.jpg,FS,4,num_8,32,num_4,0.333517972307,,,2018_Jan_23_1846,60.0072367532,MAFE4ImagesEEG,001,102779,
,,,,,,,,,,,,,,,,,,,,,,,,,,,,,,,,,,,,,,,,,,,space,17.8322664472,2018_Jan_23_1846,60.0072367532,MAFE4ImagesEEG,001,102779,
AFNE01.JPG,AFNE01.JPG,AFNE01.JPG,AFNE01.JPG,AFNE01.JPG,AFNE01.JPG,,,,,,,,,,,,,,,,,0,0,0,0,,,,,,,AMNE06.jpg,AMSA14.jpg,AMNE13.jpg,AMSA09.jpg,AMSA14.jpg,MS,2,num_6,32,num_4,1.6667540147,,,2018_Jan_23_1846,60.0072367532,MAFE4ImagesEEG,001,102779,
AFNE01.JPG,AFNE01.JPG,AFNE01.JPG,AFNE01.JPG,AFNE01.JPG,AFNE01.JPG,,,,,,,,,,,,,,,,,0,1,1,3,,,,,,,AMSA07.jpg,AMNE06.jpg,AMNE08.jpg,AMSA03.jpg,AMSA07.jpg,MS,2,num_8,32,num_4,0.616865888602,,,2018_Jan_23_1846,60.0072367532,MAFE4ImagesEEG,001,102779,
AFNE01.JPG,AFNE01.JPG,AFNE01.JPG,AFNE01.JPG,AFNE01.JPG,AFNE01.JPG,,,,,,,,,,,,,,,,,0,2,2,2,,,,,,,AMNE12.jpg,AMNE09.jpg,AMSA03.jpg,AMSA08.jpg,AMSA03.jpg,MS,2,num_2,32,num_4,0.683501101419,,,2018_Jan_23_1846,60.0072367532,MAFE4ImagesEEG,001,102779,
AFNE01.JPG,AFNE01.JPG,AFNE01.JPG,AFNE01.JPG,AFNE01.JPG,AFNE01.JPG,,,,,,,,,,,,,,,,,0,3,3,9,,,,,,,AMSA17.jpg,AMNE11.jpg,AMSA19.jpg,AMNE04.jpg,AMNE11.jpg,MN,1,num_6,16,num_6,0.750036243553,,,2018_Jan_23_1846,60.0072367532,MAFE4ImagesEEG,001,102779,
AFNE01.JPG,AFNE01.JPG,AFNE01.JPG,AFNE01.JPG,AFNE01.JPG,AFNE01.JPG,,,,,,,,,,,,,,,,,0,4,4,1,,,,,,,AMNE09.jpg,AMSA07.jpg,AMNE06.jpg,AMSA10.jpg,AMSA07.jpg,MS,2,num_6,16,num_6,0.816813543934,,,2018_Jan_23_1846,60.0072367532,MAFE4ImagesEEG,001,102779,
AFNE01.JPG,AFNE01.JPG,AFNE01.JPG,AFNE01.JPG,AFNE01.JPG,AFNE01.JPG,,,,,,,,,,,,,,,,,0,5,5,8,,,,,,,AMSA04.jpg,AMNE05.jpg,AMSA08.jpg,AMNE07.jpg,AMNE05.jpg,MN,1,num_6,32,num_4,2.06670962436,,,2018_Jan_23_1846,60.0072367532,MAFE4ImagesEEG,001,102779,
AFNE01.JPG,AFNE01.JPG,AFNE01.JPG,AFNE01.JPG,AFNE01.JPG,AFNE01.JPG,,,,,,,,,,,,,,,,,0,6,6,5,,,,,,,AMNE03.jpg,AMNE12.jpg,AMSA01.jpg,AMSA13.jpg,AMNE12.jpg,MN,1,num_6,16,num_6,0.733462997581,,,2018_Jan_23_1846,60.0072367532,MAFE4ImagesEEG,001,102779,
AFNE01.JPG,AFNE01.JPG,AFNE01.JPG,AFNE01.JPG,AFNE01.JPG,AFNE01.JPG,,,,,,,,,,,,,,,,,0,7,7,4,,,,,,,AMSA01.jpg,AMNE17.jpg,AMNE08.jpg,AMSA15.jpg,AMSA01.jpg,MS,2,num_8,16,num_8,0.633543695614,,,2018_Jan_23_1846,60.0072367532,MAFE4ImagesEEG,001,102779,
AFNE01.JPG,AFNE01.JPG,AFNE01.JPG,AFNE01.JPG,AFNE01.JPG,AFNE01.JPG,,,,,,,,,,,,,,,,,0,8,8,7,,,,,,,AMSA17.jpg,AMNE18.jpg,AMSA10.jpg,AMNE08.jpg,AMNE18.jpg,MN,1,num_6,16,num_6,0.833460880705,,,2018_Jan_23_1846,60.0072367532,MAFE4ImagesEEG,001,102779,
AFNE01.JPG,AFNE01.JPG,AFNE01.JPG,AFNE01.JPG,AFNE01.JPG,AFNE01.JPG,,,,,,,,,,,,,,,,,0,9,9,6,,,,,,,AMSA05.jpg,AMNE04.jpg,AMSA03.jpg,AMNE03.jpg,AMSA05.jpg,MS,2,num_8,32,num_6,0.900074283243,,,2018_Jan_23_1846,60.0072367532,MAFE4ImagesEEG,001,102779,
AFNE01.JPG,AFNE01.JPG,AFNE01.JPG,AFNE01.JPG,AFNE01.JPG,AFNE01.JPG,,,,,,,,,,,,,,,,,1,0,10,6,,,,,,,AMNE03.jpg,AMSA07.jpg,AMSA03.jpg,AMNE06.jpg,AMSA07.jpg,MS,2,num_6,16,num_6,0.566746188662,,,2018_Jan_23_1846,60.0072367532,MAFE4ImagesEEG,001,102779,
AFNE01.JPG,AFNE01.JPG,AFNE01.JPG,AFNE01.JPG,AFNE01.JPG,AFNE01.JPG,,,,,,,,,,,,,,,,,1,1,11,9,,,,,,,AMNE20.jpg,AMNE08.jpg,AMSA05.jpg,AMSA11.jpg,AMSA05.jpg,MS,2,num_2,32,num_4,0.450027840183,,,2018_Jan_23_1846,60.0072367532,MAFE4ImagesEEG,001,102779,
AFNE01.JPG,AFNE01.JPG,AFNE01.JPG,AFNE01.JPG,AFNE01.JPG,AFNE01.JPG,,,,,,,,,,,,,,,,,1,2,12,4,,,,,,,AMSA15.jpg,AMNE16.jpg,AMNE13.jpg,AMSA16.jpg,AMSA16.jpg,MS,2,num_4,16,num_4,0.683438236505,,,2018_Jan_23_1846,60.0072367532,MAFE4ImagesEEG,001,102779,
AFNE01.JPG,AFNE01.JPG,AFNE01.JPG,AFNE01.JPG,AFNE01.JPG,AFNE01.JPG,,,,,,,,,,,,,,,,,1,3,13,2,,,,,,,AMNE03.jpg,AMSA07.jpg,AMNE18.jpg,AMSA01.jpg,AMSA07.jpg,MS,2,num_6,16,num_6,0.650036435996,,,2018_Jan_23_1846,60.0072367532,MAFE4ImagesEEG,001,102779,
AFNE01.JPG,AFNE01.JPG,AFNE01.JPG,AFNE01.JPG,AFNE01.JPG,AFNE01.JPG,,,,,,,,,,,,,,,,,1,4,14,1,,,,,,,AMNE14.jpg,AMSA03.jpg,AMSA10.jpg,AMNE04.jpg,AMSA03.jpg,MS,2,num_6,32,num_8,0.800125152513,,,2018_Jan_23_1846,60.0072367532,MAFE4ImagesEEG,001,102779,
AFNE01.JPG,AFNE01.JPG,AFNE01.JPG,AFNE01.JPG,AFNE01.JPG,AFNE01.JPG,,,,,,,,,,,,,,,,,1,5,15,7,,,,,,,AMSA03.jpg,AMNE09.jpg,AMSA20.jpg,AMNE04.jpg,AMNE09.jpg,MN,1,num_6,32,num_4,0.633481151439,,,2018_Jan_23_1846,60.0072367532,MAFE4ImagesEEG,001,102779,
AFNE01.JPG,AFNE01.JPG,AFNE01.JPG,AFNE01.JPG,AFNE01.JPG,AFNE01.JPG,,,,,,,,,,,,,,,,,1,6,16,3,,,,,,,AMNE18.jpg,AMNE14.jpg,AMSA04.jpg,AMSA15.jpg,AMNE18.jpg,MN,1,num_8,32,num_6,0.716762418073,,,2018_Jan_23_1846,60.0072367532,MAFE4ImagesEEG,001,102779,
AFNE01.JPG,AFNE01.JPG,AFNE01.JPG,AFNE01.JPG,AFNE01.JPG,AFNE01.JPG,,,,,,,,,,,,,,,,,1,7,17,0,,,,,,,AMSA20.jpg,AMNE14.jpg,AMSA18.jpg,AMNE13.jpg,AMSA20.jpg,MS,2,num_8,16,num_8,0.700106100587,,,2018_Jan_23_1846,60.0072367532,MAFE4ImagesEEG,001,102779,
AFNE01.JPG,AFNE01.JPG,AFNE01.JPG,AFNE01.JPG,AFNE01.JPG,AFNE01.JPG,,,,,,,,,,,,,,,,,1,8,18,8,,,,,,,AMSA20.jpg,AMNE19.jpg,AMNE17.jpg,AMSA03.jpg,AMSA20.jpg,MS,2,num_8,32,num_6,0.633571920684,,,2018_Jan_23_1846,60.0072367532,MAFE4ImagesEEG,001,102779,
AFNE01.JPG,AFNE01.JPG,AFNE01.JPG,AFNE01.JPG,AFNE01.JPG,AFNE01.JPG,,,,,,,,,,,,,,,,,1,9,19,5,,,,,,,AMNE05.jpg,AMSA19.jpg,AMNE08.jpg,AMSA03.jpg,AMSA03.jpg,MS,2,num_4,16,num_4,0.450140098968,,,2018_Jan_23_1846,60.0072367532,MAFE4ImagesEEG,001,102779,
AFNE01.JPG,AFNE01.JPG,AFNE01.JPG,AFNE01.JPG,AFNE01.JPG,AFNE01.JPG,,,,,,,,,,,,,,,,,2,0,20,4,,,,,,,AMNE19.jpg,AMSA20.jpg,AMSA04.jpg,AMNE16.jpg,AMSA04.jpg,MS,2,num_2,32,num_8,0.566796865474,,,2018_Jan_23_1846,60.0072367532,MAFE4ImagesEEG,001,102779,
AFNE01.JPG,AFNE01.JPG,AFNE01.JPG,AFNE01.JPG,AFNE01.JPG,AFNE01.JPG,,,,,,,,,,,,,,,,,2,1,21,9,,,,,,,AMSA05.jpg,AMSA13.jpg,AMNE04.jpg,AMNE06.jpg,AMNE04.jpg,MN,1,num_2,32,num_8,1.40008069802,,,2018_Jan_23_1846,60.0072367532,MAFE4ImagesEEG,001,102779,
AFNE01.JPG,AFNE01.JPG,AFNE01.JPG,AFNE01.JPG,AFNE01.JPG,AFNE01.JPG,,,,,,,,,,,,,,,,,2,2,22,5,,,,,,,AMNE10.jpg,AMSA13.jpg,AMNE07.jpg,AMSA20.jpg,AMSA13.jpg,MS,2,num_6,16,num_6,0.750165501522,,,2018_Jan_23_1846,60.0072367532,MAFE4ImagesEEG,001,102779,
AFNE01.JPG,AFNE01.JPG,AFNE01.JPG,AFNE01.JPG,AFNE01.JPG,AFNE01.JPG,,,,,,,,,,,,,,,,,2,3,23,6,,,,,,,AMSA20.jpg,AMNE09.jpg,AMSA17.jpg,AMNE07.jpg,AMNE07.jpg,MN,1,num_4,32,num_8,0.550193790739,,,2018_Jan_23_1846,60.0072367532,MAFE4ImagesEEG,001,102779,
AFNE01.JPG,AFNE01.JPG,AFNE01.JPG,AFNE01.JPG,AFNE01.JPG,AFNE01.JPG,,,,,,,,,,,,,,,,,2,4,24,1,,,,,,,AMSA17.jpg,AMSA02.jpg,AMNE09.jpg,AMNE03.jpg,AMSA02.jpg,MS,2,num_6,32,num_4,0.350145102493,,,2018_Jan_23_1846,60.0072367532,MAFE4ImagesEEG,001,102779,
AFNE01.JPG,AFNE01.JPG,AFNE01.JPG,AFNE01.JPG,AFNE01.JPG,AFNE01.JPG,,,,,,,,,,,,,,,,,2,5,25,0,,,,,,,AMNE17.jpg,AMNE18.jpg,AMSA09.jpg,AMSA05.jpg,AMNE17.jpg,MN,1,num_8,16,num_8,0.666773579796,,,2018_Jan_23_1846,60.0072367532,MAFE4ImagesEEG,001,102779,
AFNE01.JPG,AFNE01.JPG,AFNE01.JPG,AFNE01.JPG,AFNE01.JPG,AFNE01.JPG,,,,,,,,,,,,,,,,,2,6,26,3,,,,,,,AMNE12.jpg,AMNE18.jpg,AMSA13.jpg,AMSA09.jpg,AMSA09.jpg,MS,2,num_4,32,num_6,0.366684670851,,,2018_Jan_23_1846,60.0072367532,MAFE4ImagesEEG,001,102779,
AFNE01.JPG,AFNE01.JPG,AFNE01.JPG,AFNE01.JPG,AFNE01.JPG,AFNE01.JPG,,,,,,,,,,,,,,,,,2,7,27,8,,,,,,,AMSA20.jpg,AMNE13.jpg,AMSA10.jpg,AMNE17.jpg,AMSA10.jpg,MS,2,num_2,32,num_8,0.583494879073,,,2018_Jan_23_1846,60.0072367532,MAFE4ImagesEEG,001,102779,
AFNE01.JPG,AFNE01.JPG,AFNE01.JPG,AFNE01.JPG,AFNE01.JPG,AFNE01.JPG,,,,,,,,,,,,,,,,,2,8,28,7,,,,,,,AMNE09.jpg,AMSA19.jpg,AMSA15.jpg,AMNE05.jpg,AMSA19.jpg,MS,2,num_6,16,num_6,0.800203412931,,,2018_Jan_23_1846,60.0072367532,MAFE4ImagesEEG,001,102779,
AFNE01.JPG,AFNE01.JPG,AFNE01.JPG,AFNE01.JPG,AFNE01.JPG,AFNE01.JPG,,,,,,,,,,,,,,,,,2,9,29,2,,,,,,,AMSA01.jpg,AMNE16.jpg,AMSA15.jpg,AMNE08.jpg,AMNE16.jpg,MN,1,num_6,32,num_4,0.533488720888,,,2018_Jan_23_1846,60.0072367532,MAFE4ImagesEEG,001,102779,
AFNE01.JPG,AFNE01.JPG,AFNE01.JPG,AFNE01.JPG,AFNE01.JPG,AFNE01.JPG,,,,,,,,,,,,,,,,,3,0,30,1,,,,,,,AMSA09.jpg,AMNE16.jpg,AMSA14.jpg,AMNE11.jpg,AMNE16.jpg,MN,1,num_6,16,num_6,0.66681976628,,,2018_Jan_23_1846,60.0072367532,MAFE4ImagesEEG,001,102779,
AFNE01.JPG,AFNE01.JPG,AFNE01.JPG,AFNE01.JPG,AFNE01.JPG,AFNE01.JPG,,,,,,,,,,,,,,,,,3,1,31,0,,,,,,,AMNE03.jpg,AMSA18.jpg,AMNE09.jpg,AMSA19.jpg,AMNE09.jpg,MN,1,num_2,32,num_6,0.750148502339,,,2018_Jan_23_1846,60.0072367532,MAFE4ImagesEEG,001,102779,
AFNE01.JPG,AFNE01.JPG,AFNE01.JPG,AFNE01.JPG,AFNE01.JPG,AFNE01.JPG,,,,,,,,,,,,,,,,,3,2,32,4,,,,,,,AMNE06.jpg,AMNE16.jpg,AMSA18.jpg,AMSA14.jpg,AMSA18.jpg,MS,2,num_2,32,num_4,0.400126884502,,,2018_Jan_23_1846,60.0072367532,MAFE4ImagesEEG,001,102779,
AFNE01.JPG,AFNE01.JPG,AFNE01.JPG,AFNE01.JPG,AFNE01.JPG,AFNE01.JPG,,,,,,,,,,,,,,,,,3,3,33,5,,,,,,,AMSA02.jpg,AMNE14.jpg,AMSA15.jpg,AMNE18.jpg,AMSA02.jpg,MS,2,num_8,16,num_8,1.20014587228,,,2018_Jan_23_1846,60.0072367532,MAFE4ImagesEEG,001,102779,
AFNE01.JPG,AFNE01.JPG,AFNE01.JPG,AFNE01.JPG,AFNE01.JPG,AFNE01.JPG,,,,,,,,,,,,,,,,,3,4,34,7,,,,,,,AMNE02.jpg,AMSA01.jpg,AMSA07.jpg,AMNE03.jpg,AMNE03.jpg,MN,1,num_4,16,num_4,0.68347031044,,,2018_Jan_23_1846,60.0072367532,MAFE4ImagesEEG,001,102779,
AFNE01.JPG,AFNE01.JPG,AFNE01.JPG,AFNE01.JPG,AFNE01.JPG,AFNE01.JPG,,,,,,,,,,,,,,,,,3,5,35,6,,,,,,,AMSA10.jpg,AMNE20.jpg,AMSA14.jpg,AMNE19.jpg,AMSA10.jpg,MS,2,num_8,32,num_4,0.616789552616,,,2018_Jan_23_1846,60.0072367532,MAFE4ImagesEEG,001,102779,
AFNE01.JPG,AFNE01.JPG,AFNE01.JPG,AFNE01.JPG,AFNE01.JPG,AFNE01.JPG,,,,,,,,,,,,,,,,,3,6,36,9,,,,,,,AMSA05.jpg,AMNE08.jpg,AMNE06.jpg,AMSA11.jpg,AMSA05.jpg,MS,2,num_8,32,num_4,2.68331603479,,,2018_Jan_23_1846,60.0072367532,MAFE4ImagesEEG,001,102779,
AFNE01.JPG,AFNE01.JPG,AFNE01.JPG,AFNE01.JPG,AFNE01.JPG,AFNE01.JPG,,,,,,,,,,,,,,,,,3,7,37,8,,,,,,,AMNE13.jpg,AMSA10.jpg,AMSA19.jpg,AMNE01.jpg,AMNE01.jpg,MN,1,num_4,16,num_4,0.617028182736,,,2018_Jan_23_1846,60.0072367532,MAFE4ImagesEEG,001,102779,
AFNE01.JPG,AFNE01.JPG,AFNE01.JPG,AFNE01.JPG,AFNE01.JPG,AFNE01.JPG,,,,,,,,,,,,,,,,,3,8,38,3,,,,,,,AMNE09.jpg,AMNE18.jpg,AMSA07.jpg,AMSA10.jpg,AMNE18.jpg,MN,1,num_6,32,num_8,0.683504308807,,,2018_Jan_23_1846,60.0072367532,MAFE4ImagesEEG,001,102779,
AFNE01.JPG,AFNE01.JPG,AFNE01.JPG,AFNE01.JPG,AFNE01.JPG,AFNE01.JPG,,,,,,,,,,,,,,,,,3,9,39,2,,,,,,,AMNE14.jpg,AMSA14.jpg,AMNE17.jpg,AMSA04.jpg,AMNE14.jpg,MN,1,num_8,16,num_8,0.517119465163,,,2018_Jan_23_1846,60.0072367532,MAFE4ImagesEEG,001,102779,
AFNE01.JPG,AFNE01.JPG,AFNE01.JPG,AFNE01.JPG,AFNE01.JPG,AFNE01.JPG,,,,,,,,,,,,,,,,,4,0,40,0,,,,,,,AMSA07.jpg,AMNE20.jpg,AMNE05.jpg,AMSA12.jpg,AMNE20.jpg,MN,1,num_6,16,num_6,0.650129450412,,,2018_Jan_23_1846,60.0072367532,MAFE4ImagesEEG,001,102779,
AFNE01.JPG,AFNE01.JPG,AFNE01.JPG,AFNE01.JPG,AFNE01.JPG,AFNE01.JPG,,,,,,,,,,,,,,,,,4,1,41,8,,,,,,,AMSA13.jpg,AMNE17.jpg,AMSA11.jpg,AMNE09.jpg,AMNE17.jpg,MN,1,num_6,32,num_4,0.533442213666,,,2018_Jan_23_1846,60.0072367532,MAFE4ImagesEEG,001,102779,
AFNE01.JPG,AFNE01.JPG,AFNE01.JPG,AFNE01.JPG,AFNE01.JPG,AFNE01.JPG,,,,,,,,,,,,,,,,,4,2,42,4,,,,,,,AMSA11.jpg,AMNE14.jpg,AMSA16.jpg,AMNE15.jpg,AMSA16.jpg,MS,2,num_2,32,num_4,0.483506618126,,,2018_Jan_23_1846,60.0072367532,MAFE4ImagesEEG,001,102779,
AFNE01.JPG,AFNE01.JPG,AFNE01.JPG,AFNE01.JPG,AFNE01.JPG,AFNE01.JPG,,,,,,,,,,,,,,,,,4,3,43,7,,,,,,,AMNE02.jpg,AMNE16.jpg,AMSA14.jpg,AMSA09.jpg,AMNE16.jpg,MN,1,num_6,16,num_6,0.916713280792,,,2018_Jan_23_1846,60.0072367532,MAFE4ImagesEEG,001,102779,
AFNE01.JPG,AFNE01.JPG,AFNE01.JPG,AFNE01.JPG,AFNE01.JPG,AFNE01.JPG,,,,,,,,,,,,,,,,,4,4,44,2,,,,,,,AMNE13.jpg,AMSA08.jpg,AMNE07.jpg,AMSA05.jpg,AMNE13.jpg,MN,1,num_8,32,num_4,0.616819702118,,,2018_Jan_23_1846,60.0072367532,MAFE4ImagesEEG,001,102779,
AFNE01.JPG,AFNE01.JPG,AFNE01.JPG,AFNE01.JPG,AFNE01.JPG,AFNE01.JPG,,,,,,,,,,,,,,,,,4,5,45,1,,,,,,,AMSA05.jpg,AMSA16.jpg,AMNE04.jpg,AMNE12.jpg,AMSA16.jpg,MS,2,num_6,32,num_8,0.466787756479,,,2018_Jan_23_1846,60.0072367532,MAFE4ImagesEEG,001,102779,
AFNE01.JPG,AFNE01.JPG,AFNE01.JPG,AFNE01.JPG,AFNE01.JPG,AFNE01.JPG,,,,,,,,,,,,,,,,,4,6,46,3,,,,,,,AMSA18.jpg,AMNE01.jpg,AMSA08.jpg,AMNE02.jpg,AMNE01.jpg,MN,1,num_6,16,num_6,0.600153441716,,,2018_Jan_23_1846,60.0072367532,MAFE4ImagesEEG,001,102779,
AFNE01.JPG,AFNE01.JPG,AFNE01.JPG,AFNE01.JPG,AFNE01.JPG,AFNE01.JPG,,,,,,,,,,,,,,,,,4,7,47,6,,,,,,,AMSA02.jpg,AMSA15.jpg,AMNE20.jpg,AMNE07.jpg,AMNE07.jpg,MN,1,num_4,16,num_4,1.0501283599,,,2018_Jan_23_1846,60.0072367532,MAFE4ImagesEEG,001,102779,
AFNE01.JPG,AFNE01.JPG,AFNE01.JPG,AFNE01.JPG,AFNE01.JPG,AFNE01.JPG,,,,,,,,,,,,,,,,,4,8,48,9,,,,,,,AMSA09.jpg,AMSA08.jpg,AMNE09.jpg,AMNE20.jpg,AMNE09.jpg,MN,1,num_2,32,num_8,0.383340026092,,,2018_Jan_23_1846,60.0072367532,MAFE4ImagesEEG,001,102779,
AFNE01.JPG,AFNE01.JPG,AFNE01.JPG,AFNE01.JPG,AFNE01.JPG,AFNE01.JPG,,,,,,,,,,,,,,,,,4,9,49,5,,,,,,,AMNE02.jpg,AMSA17.jpg,AMSA11.jpg,AMNE05.jpg,AMSA11.jpg,MS,2,num_2,32,num_6,0.533542284364,,,2018_Jan_23_1846,60.0072367532,MAFE4ImagesEEG,001,102779,
AFNE01.JPG,AFNE01.JPG,AFNE01.JPG,AFNE01.JPG,AFNE01.JPG,AFNE01.JPG,,,,,,,,,,,,,,,,,5,0,50,2,,,,,,,AMSA08.jpg,AMNE19.jpg,AMSA18.jpg,AMNE07.jpg,AMNE19.jpg,MN,1,num_6,32,num_4,0.50020046212,,,2018_Jan_23_1846,60.0072367532,MAFE4ImagesEEG,001,102779,
AFNE01.JPG,AFNE01.JPG,AFNE01.JPG,AFNE01.JPG,AFNE01.JPG,AFNE01.JPG,,,,,,,,,,,,,,,,,5,1,51,7,,,,,,,AMSA19.jpg,AMNE19.jpg,AMNE13.jpg,AMSA20.jpg,AMNE19.jpg,MN,1,num_6,16,num_6,0.550194111478,,,2018_Jan_23_1846,60.0072367532,MAFE4ImagesEEG,001,102779,
AFNE01.JPG,AFNE01.JPG,AFNE01.JPG,AFNE01.JPG,AFNE01.JPG,AFNE01.JPG,,,,,,,,,,,,,,,,,5,2,52,1,,,,,,,AMNE01.jpg,AMSA09.jpg,AMSA01.jpg,AMNE12.jpg,AMSA09.jpg,MS,2,num_6,16,num_6,2.4167466377,,,2018_Jan_23_1846,60.0072367532,MAFE4ImagesEEG,001,102779,
AFNE01.JPG,AFNE01.JPG,AFNE01.JPG,AFNE01.JPG,AFNE01.JPG,AFNE01.JPG,,,,,,,,,,,,,,,,,5,3,53,3,,,,,,,AMNE11.jpg,AMSA05.jpg,AMNE20.jpg,AMSA14.jpg,AMSA05.jpg,MS,2,num_6,16,num_6,2.83331751019,,,2018_Jan_23_1846,60.0072367532,MAFE4ImagesEEG,001,102779,
AFNE01.JPG,AFNE01.JPG,AFNE01.JPG,AFNE01.JPG,AFNE01.JPG,AFNE01.JPG,,,,,,,,,,,,,,,,,5,4,54,9,,,,,,,AMSA15.jpg,AMNE14.jpg,AMNE15.jpg,AMSA05.jpg,AMSA05.jpg,MS,2,num_4,32,num_6,0.666794748598,,,2018_Jan_23_1846,60.0072367532,MAFE4ImagesEEG,001,102779,
AFNE01.JPG,AFNE01.JPG,AFNE01.JPG,AFNE01.JPG,AFNE01.JPG,AFNE01.JPG,,,,,,,,,,,,,,,,,5,5,55,5,,,,,,,AMNE17.jpg,AMSA07.jpg,AMSA12.jpg,AMNE16.jpg,AMNE17.jpg,MN,1,num_8,16,num_8,0.48347871381,,,2018_Jan_23_1846,60.0072367532,MAFE4ImagesEEG,001,102779,
AFNE01.JPG,AFNE01.JPG,AFNE01.JPG,AFNE01.JPG,AFNE01.JPG,AFNE01.JPG,,,,,,,,,,,,,,,,,5,6,56,0,,,,,,,AMSA04.jpg,AMNE06.jpg,AMNE16.jpg,AMSA06.jpg,AMNE06.jpg,MN,1,num_6,16,num_6,0.750139842377,,,2018_Jan_23_1846,60.0072367532,MAFE4ImagesEEG,001,102779,
AFNE01.JPG,AFNE01.JPG,AFNE01.JPG,AFNE01.JPG,AFNE01.JPG,AFNE01.JPG,,,,,,,,,,,,,,,,,5,7,57,6,,,,,,,AMSA20.jpg,AMSA02.jpg,AMNE06.jpg,AMNE15.jpg,AMSA02.jpg,MS,2,num_6,16,num_6,0.616799174793,,,2018_Jan_23_1846,60.0072367532,MAFE4ImagesEEG,001,102779,
AFNE01.JPG,AFNE01.JPG,AFNE01.JPG,AFNE01.JPG,AFNE01.JPG,AFNE01.JPG,,,,,,,,,,,,,,,,,5,8,58,4,,,,,,,AMSA19.jpg,AMNE19.jpg,AMNE14.jpg,AMSA04.jpg,AMNE19.jpg,MN,1,num_6,32,num_8,0.63345549228,,,2018_Jan_23_1846,60.0072367532,MAFE4ImagesEEG,001,102779,
AFNE01.JPG,AFNE01.JPG,AFNE01.JPG,AFNE01.JPG,AFNE01.JPG,AFNE01.JPG,,,,,,,,,,,,,,,,,5,9,59,8,,,,,,,AMSA08.jpg,AMSA02.jpg,AMNE04.jpg,AMNE06.jpg,AMSA02.jpg,MS,2,num_6,32,num_8,1.25027326996,,,2018_Jan_23_1846,60.0072367532,MAFE4ImagesEEG,001,102779,
,,,,,,,,,,,,,,,,,,,,,,,,,,,,,,,,,,,,,,,,,,,space,26.8316169499,2018_Jan_23_1846,60.0072367532,MAFE4ImagesEEG,001,102779,
AFNE01.JPG,AFNE01.JPG,AFNE01.JPG,AFNE01.JPG,AFNE01.JPG,AFNE01.JPG,,,,,,,,,,,,,,,,,,,,,0,0,0,9,,,AFSA12.jpg,AFSA14.jpg,AFNE19.jpg,AFNE07.jpg,AFNE19.jpg,FN,3,num_2,32,num_8,1.7666858255,,,2018_Jan_23_1846,60.0072367532,MAFE4ImagesEEG,001,102779,
AFNE01.JPG,AFNE01.JPG,AFNE01.JPG,AFNE01.JPG,AFNE01.JPG,AFNE01.JPG,,,,,,,,,,,,,,,,,,,,,0,1,1,0,,,AFNE20.jpg,AFNE02.jpg,AFSA01.jpg,AFSA03.jpg,AFNE02.jpg,FN,3,num_6,32,num_4,1.18329999782,,,2018_Jan_23_1846,60.0072367532,MAFE4ImagesEEG,001,102779,
AFNE01.JPG,AFNE01.JPG,AFNE01.JPG,AFNE01.JPG,AFNE01.JPG,AFNE01.JPG,,,,,,,,,,,,,,,,,,,,,0,2,2,7,,,AFSA01.jpg,AFNE01.jpg,AFSA03.jpg,AFNE20.jpg,AFNE01.jpg,FN,3,num_6,16,num_6,0.60013163145,,,2018_Jan_23_1846,60.0072367532,MAFE4ImagesEEG,001,102779,
AFNE01.JPG,AFNE01.JPG,AFNE01.JPG,AFNE01.JPG,AFNE01.JPG,AFNE01.JPG,,,,,,,,,,,,,,,,,,,,,0,3,3,8,,,AFSA16.jpg,AFNE12.jpg,AFSA08.jpg,AFNE15.jpg,AFNE12.jpg,FN,3,num_6,16,num_6,0.500170954096,,,2018_Jan_23_1846,60.0072367532,MAFE4ImagesEEG,001,102779,
AFNE01.JPG,AFNE01.JPG,AFNE01.JPG,AFNE01.JPG,AFNE01.JPG,AFNE01.JPG,,,,,,,,,,,,,,,,,,,,,0,4,4,3,,,AFSA19.jpg,AFNE16.jpg,AFNE06.jpg,AFSA13.jpg,AFNE06.jpg,FN,3,num_2,32,num_8,0.566839844556,,,2018_Jan_23_1846,60.0072367532,MAFE4ImagesEEG,001,102779,
AFNE01.JPG,AFNE01.JPG,AFNE01.JPG,AFNE01.JPG,AFNE01.JPG,AFNE01.JPG,,,,,,,,,,,,,,,,,,,,,0,5,5,2,,,AFSA01.jpg,AFNE17.jpg,AFNE01.jpg,AFSA15.jpg,AFSA01.jpg,FS,4,num_8,32,num_6,0.383526375692,,,2018_Jan_23_1846,60.0072367532,MAFE4ImagesEEG,001,102779,
AFNE01.JPG,AFNE01.JPG,AFNE01.JPG,AFNE01.JPG,AFNE01.JPG,AFNE01.JPG,,,,,,,,,,,,,,,,,,,,,0,6,6,4,,,AFSA15.jpg,AFNE12.jpg,AFNE01.jpg,AFSA16.jpg,AFNE01.jpg,FN,3,num_2,32,num_6,0.433482819266,,,2018_Jan_23_1846,60.0072367532,MAFE4ImagesEEG,001,102779,
AFNE01.JPG,AFNE01.JPG,AFNE01.JPG,AFNE01.JPG,AFNE01.JPG,AFNE01.JPG,,,,,,,,,,,,,,,,,,,,,0,7,7,5,,,AFSA07.jpg,AFNE15.jpg,AFNE20.jpg,AFSA17.jpg,AFSA17.jpg,FS,4,num_4,16,num_4,0.616772232694,,,2018_Jan_23_1846,60.0072367532,MAFE4ImagesEEG,001,102779,
AFNE01.JPG,AFNE01.JPG,AFNE01.JPG,AFNE01.JPG,AFNE01.JPG,AFNE01.JPG,,,,,,,,,,,,,,,,,,,,,0,8,8,6,,,AFSA06.jpg,AFNE06.jpg,AFNE12.jpg,AFSA18.jpg,AFNE12.jpg,FN,3,num_2,32,num_6,0.600235871752,,,2018_Jan_23_1846,60.0072367532,MAFE4ImagesEEG,001,102779,
AFNE01.JPG,AFNE01.JPG,AFNE01.JPG,AFNE01.JPG,AFNE01.JPG,AFNE01.JPG,,,,,,,,,,,,,,,,,,,,,0,9,9,1,,,AFNE17.jpg,AFSA01.jpg,AFSA07.jpg,AFNE02.jpg,AFNE17.jpg,FN,3,num_8,32,num_6,0.750205914694,,,2018_Jan_23_1846,60.0072367532,MAFE4ImagesEEG,001,102779,
AFNE01.JPG,AFNE01.JPG,AFNE01.JPG,AFNE01.JPG,AFNE01.JPG,AFNE01.JPG,,,,,,,,,,,,,,,,,,,,,1,0,10,4,,,AFNE07.jpg,AFNE11.jpg,AFSA04.jpg,AFSA18.jpg,AFSA04.jpg,FS,4,num_2,16,num_2,1.28347813648,,,2018_Jan_23_1846,60.0072367532,MAFE4ImagesEEG,001,102779,
AFNE01.JPG,AFNE01.JPG,AFNE01.JPG,AFNE01.JPG,AFNE01.JPG,AFNE01.JPG,,,,,,,,,,,,,,,,,,,,,1,1,11,6,,,AFSA11.jpg,AFNE16.jpg,AFSA13.jpg,AFNE12.jpg,AFSA13.jpg,FS,4,num_2,32,num_8,1.00022195166,,,2018_Jan_23_1846,60.0072367532,MAFE4ImagesEEG,001,102779,
AFNE01.JPG,AFNE01.JPG,AFNE01.JPG,AFNE01.JPG,AFNE01.JPG,AFNE01.JPG,,,,,,,,,,,,,,,,,,,,,1,2,12,7,,,AFSA19.jpg,AFNE12.jpg,AFNE02.jpg,AFSA03.jpg,AFSA19.jpg,FS,4,num_8,16,num_8,0.533486796441,,,2018_Jan_23_1846,60.0072367532,MAFE4ImagesEEG,001,102779,
AFNE01.JPG,AFNE01.JPG,AFNE01.JPG,AFNE01.JPG,AFNE01.JPG,AFNE01.JPG,,,,,,,,,,,,,,,,,,,,,1,3,13,9,,,AFSA15.jpg,AFNE18.jpg,AFNE04.jpg,AFSA19.jpg,AFNE18.jpg,FN,3,num_6,16,num_6,0.633317895074,,,2018_Jan_23_1846,60.0072367532,MAFE4ImagesEEG,001,102779,
AFNE01.JPG,AFNE01.JPG,AFNE01.JPG,AFNE01.JPG,AFNE01.JPG,AFNE01.JPG,,,,,,,,,,,,,,,,,,,,,1,4,14,2,,,AFNE14.jpg,AFNE04.jpg,AFSA14.jpg,AFSA17.jpg,AFNE04.jpg,FN,3,num_6,16,num_6,1.06665509866,,,2018_Jan_23_1846,60.0072367532,MAFE4ImagesEEG,001,102779,
AFNE01.JPG,AFNE01.JPG,AFNE01.JPG,AFNE01.JPG,AFNE01.JPG,AFNE01.JPG,,,,,,,,,,,,,,,,,,,,,1,5,15,8,,,AFSA14.jpg,AFNE18.jpg,AFNE11.jpg,AFSA11.jpg,AFSA14.jpg,FS,4,num_8,32,num_6,0.783444458852,,,2018_Jan_23_1846,60.0072367532,MAFE4ImagesEEG,001,102779,
AFNE01.JPG,AFNE01.JPG,AFNE01.JPG,AFNE01.JPG,AFNE01.JPG,AFNE01.JPG,,,,,,,,,,,,,,,,,,,,,1,6,16,5,,,AFSA09.jpg,AFNE06.jpg,AFSA13.jpg,AFNE11.jpg,AFNE11.jpg,FN,3,num_4,16,num_4,0.450139136738,,,2018_Jan_23_1846,60.0072367532,MAFE4ImagesEEG,001,102779,
AFNE01.JPG,AFNE01.JPG,AFNE01.JPG,AFNE01.JPG,AFNE01.JPG,AFNE01.JPG,,,,,,,,,,,,,,,,,,,,,1,7,17,1,,,AFNE08.jpg,AFSA02.jpg,AFSA01.jpg,AFNE16.jpg,AFNE16.jpg,FN,3,num_4,16,num_4,0.70012438274,,,2018_Jan_23_1846,60.0072367532,MAFE4ImagesEEG,001,102779,
AFNE01.JPG,AFNE01.JPG,AFNE01.JPG,AFNE01.JPG,AFNE01.JPG,AFNE01.JPG,,,,,,,,,,,,,,,,,,,,,1,8,18,0,,,AFNE03.jpg,AFSA10.jpg,AFNE19.jpg,AFSA02.jpg,AFSA02.jpg,FS,4,num_4,32,num_6,0.833461201444,,,2018_Jan_23_1846,60.0072367532,MAFE4ImagesEEG,001,102779,
AFNE01.JPG,AFNE01.JPG,AFNE01.JPG,AFNE01.JPG,AFNE01.JPG,AFNE01.JPG,,,,,,,,,,,,,,,,,,,,,1,9,19,3,,,AFNE04.jpg,AFSA05.jpg,AFSA16.jpg,AFNE03.jpg,AFSA16.jpg,FS,4,num_2,32,num_6,1.48346203536,,,2018_Jan_23_1846,60.0072367532,MAFE4ImagesEEG,001,102779,
AFNE01.JPG,AFNE01.JPG,AFNE01.JPG,AFNE01.JPG,AFNE01.JPG,AFNE01.JPG,,,,,,,,,,,,,,,,,,,,,2,0,20,7,,,AFNE05.jpg,AFNE16.jpg,AFSA14.jpg,AFSA10.jpg,AFNE05.jpg,FN,3,num_8,16,num_8,0.583524707836,,,2018_Jan_23_1846,60.0072367532,MAFE4ImagesEEG,001,102779,
AFNE01.JPG,AFNE01.JPG,AFNE01.JPG,AFNE01.JPG,AFNE01.JPG,AFNE01.JPG,,,,,,,,,,,,,,,,,,,,,2,1,21,5,,,AFSA15.jpg,AFNE07.jpg,AFSA05.jpg,AFNE06.jpg,AFSA05.jpg,FS,4,num_2,32,num_4,0.550116171798,,,2018_Jan_23_1846,60.0072367532,MAFE4ImagesEEG,001,102779,
AFNE01.JPG,AFNE01.JPG,AFNE01.JPG,AFNE01.JPG,AFNE01.JPG,AFNE01.JPG,,,,,,,,,,,,,,,,,,,,,2,2,22,9,,,AFSA07.jpg,AFNE04.jpg,AFSA11.jpg,AFNE14.jpg,AFNE04.jpg,FN,3,num_6,16,num_6,0.600191288977,,,2018_Jan_23_1846,60.0072367532,MAFE4ImagesEEG,001,102779,
AFNE01.JPG,AFNE01.JPG,AFNE01.JPG,AFNE01.JPG,AFNE01.JPG,AFNE01.JPG,,,,,,,,,,,,,,,,,,,,,2,3,23,2,,,AFNE06.jpg,AFSA19.jpg,AFSA20.jpg,AFNE03.jpg,AFNE06.jpg,FN,3,num_8,32,num_6,0.816780828507,,,2018_Jan_23_1846,60.0072367532,MAFE4ImagesEEG,001,102779,
AFNE01.JPG,AFNE01.JPG,AFNE01.JPG,AFNE01.JPG,AFNE01.JPG,AFNE01.JPG,,,,,,,,,,,,,,,,,,,,,2,4,24,0,,,AFSA14.jpg,AFNE16.jpg,AFNE10.jpg,AFSA15.jpg,AFSA14.jpg,FS,4,num_8,16,num_8,0.716769474326,,,2018_Jan_23_1846,60.0072367532,MAFE4ImagesEEG,001,102779,
AFNE01.JPG,AFNE01.JPG,AFNE01.JPG,AFNE01.JPG,AFNE01.JPG,AFNE01.JPG,,,,,,,,,,,,,,,,,,,,,2,5,25,4,,,AFSA08.jpg,AFNE20.jpg,AFSA05.jpg,AFNE12.jpg,AFSA05.jpg,FS,4,num_2,32,num_4,0.783507644504,,,2018_Jan_23_1846,60.0072367532,MAFE4ImagesEEG,001,102779,
AFNE01.JPG,AFNE01.JPG,AFNE01.JPG,AFNE01.JPG,AFNE01.JPG,AFNE01.JPG,,,,,,,,,,,,,,,,,,,,,2,6,26,1,,,AFSA12.jpg,AFNE20.jpg,AFSA13.jpg,AFNE17.jpg,AFNE17.jpg,FN,3,num_4,32,num_8,0.750220027228,,,2018_Jan_23_1846,60.0072367532,MAFE4ImagesEEG,001,102779,
AFNE01.JPG,AFNE01.JPG,AFNE01.JPG,AFNE01.JPG,AFNE01.JPG,AFNE01.JPG,,,,,,,,,,,,,,,,,,,,,2,7,27,8,,,AFNE04.jpg,AFNE16.jpg,AFSA03.jpg,AFSA09.jpg,AFSA09.jpg,FS,4,num_4,32,num_6,0.566810336531,,,2018_Jan_23_1846,60.0072367532,MAFE4ImagesEEG,001,102779,
AFNE01.JPG,AFNE01.JPG,AFNE01.JPG,AFNE01.JPG,AFNE01.JPG,AFNE01.JPG,,,,,,,,,,,,,,,,,,,,,2,8,28,6,,,AFNE14.jpg,AFNE06.jpg,AFSA17.jpg,AFSA05.jpg,AFSA05.jpg,FS,4,num_4,16,num_4,0.650217012284,,,2018_Jan_23_1846,60.0072367532,MAFE4ImagesEEG,001,102779,
AFNE01.JPG,AFNE01.JPG,AFNE01.JPG,AFNE01.JPG,AFNE01.JPG,AFNE01.JPG,,,,,,,,,,,,,,,,,,,,,2,9,29,3,,,AFSA05.jpg,AFSA11.jpg,AFNE09.jpg,AFNE01.jpg,AFSA05.jpg,FS,4,num_8,16,num_8,0.750121239485,,,2018_Jan_23_1846,60.0072367532,MAFE4ImagesEEG,001,102779,
AFNE01.JPG,AFNE01.JPG,AFNE01.JPG,AFNE01.JPG,AFNE01.JPG,AFNE01.JPG,,,,,,,,,,,,,,,,,,,,,3,0,30,0,,,AFNE08.jpg,AFSA16.jpg,AFSA11.jpg,AFNE03.jpg,AFNE03.jpg,FN,3,num_4,16,num_4,0.650157034004,,,2018_Jan_23_1846,60.0072367532,MAFE4ImagesEEG,001,102779,
AFNE01.JPG,AFNE01.JPG,AFNE01.JPG,AFNE01.JPG,AFNE01.JPG,AFNE01.JPG,,,,,,,,,,,,,,,,,,,,,3,1,31,2,,,AFSA03.jpg,AFNE13.jpg,AFSA02.jpg,AFNE03.jpg,AFNE03.jpg,FN,3,num_4,32,num_8,0.800130284348,,,2018_Jan_23_1846,60.0072367532,MAFE4ImagesEEG,001,102779,
AFNE01.JPG,AFNE01.JPG,AFNE01.JPG,AFNE01.JPG,AFNE01.JPG,AFNE01.JPG,,,,,,,,,,,,,,,,,,,,,3,2,32,6,,,AFNE16.jpg,AFNE07.jpg,AFSA13.jpg,AFSA02.jpg,AFSA02.jpg,FS,4,num_4,32,num_8,0.633474095157,,,2018_Jan_23_1846,60.0072367532,MAFE4ImagesEEG,001,102779,
AFNE01.JPG,AFNE01.JPG,AFNE01.JPG,AFNE01.JPG,AFNE01.JPG,AFNE01.JPG,,,,,,,,,,,,,,,,,,,,,3,3,33,9,,,AFSA18.jpg,AFSA04.jpg,AFNE12.jpg,AFNE20.jpg,AFSA18.jpg,FS,4,num_8,32,num_6,0.500184425153,,,2018_Jan_23_1846,60.0072367532,MAFE4ImagesEEG,001,102779,
AFNE01.JPG,AFNE01.JPG,AFNE01.JPG,AFNE01.JPG,AFNE01.JPG,AFNE01.JPG,,,,,,,,,,,,,,,,,,,,,3,4,34,7,,,AFSA08.jpg,AFNE07.jpg,AFNE20.jpg,AFSA02.jpg,AFNE07.jpg,FN,3,num_6,16,num_6,0.800131888042,,,2018_Jan_23_1846,60.0072367532,MAFE4ImagesEEG,001,102779,
AFNE01.JPG,AFNE01.JPG,AFNE01.JPG,AFNE01.JPG,AFNE01.JPG,AFNE01.JPG,,,,,,,,,,,,,,,,,,,,,3,5,35,5,,,AFNE06.jpg,AFSA05.jpg,AFSA04.jpg,AFNE11.jpg,AFNE11.jpg,FN,3,num_4,16,num_4,0.533475570555,,,2018_Jan_23_1846,60.0072367532,MAFE4ImagesEEG,001,102779,
AFNE01.JPG,AFNE01.JPG,AFNE01.JPG,AFNE01.JPG,AFNE01.JPG,AFNE01.JPG,,,,,,,,,,,,,,,,,,,,,3,6,36,4,,,AFNE13.jpg,AFNE16.jpg,AFSA03.jpg,AFSA15.jpg,AFSA15.jpg,FS,4,num_4,16,num_4,0.533463382468,,,2018_Jan_23_1846,60.0072367532,MAFE4ImagesEEG,001,102779,
AFNE01.JPG,AFNE01.JPG,AFNE01.JPG,AFNE01.JPG,AFNE01.JPG,AFNE01.JPG,,,,,,,,,,,,,,,,,,,,,3,7,37,8,,,AFNE14.jpg,AFNE08.jpg,AFSA04.jpg,AFSA02.jpg,AFNE14.jpg,FN,3,num_8,16,num_8,0.783507003012,,,2018_Jan_23_1846,60.0072367532,MAFE4ImagesEEG,001,102779,
AFNE01.JPG,AFNE01.JPG,AFNE01.JPG,AFNE01.JPG,AFNE01.JPG,AFNE01.JPG,,,,,,,,,,,,,,,,,,,,,3,8,38,3,,,AFSA05.jpg,AFSA16.jpg,AFNE04.jpg,AFNE07.jpg,AFSA05.jpg,FS,4,num_8,16,num_8,0.85022368365,,,2018_Jan_23_1846,60.0072367532,MAFE4ImagesEEG,001,102779,
