IPosition2,IPosition3,IPosition1,IPosition6,IPosition4,IPosition5,TrialsF1.thisRepN,TrialsF1.thisTrialN,TrialsF1.thisN,TrialsF1.thisIndex,TrialsM1.thisRepN,TrialsM1.thisTrialN,TrialsM1.thisN,TrialsM1.thisIndex,TrialsF2.thisRepN,TrialsF2.thisTrialN,TrialsF2.thisN,TrialsF2.thisIndex,TrialsM2.thisRepN,TrialsM2.thisTrialN,TrialsM2.thisN,TrialsM2.thisIndex,TrialsF3.thisRepN,TrialsF3.thisTrialN,TrialsF3.thisN,TrialsF3.thisIndex,TrialsM3.thisRepN,TrialsM3.thisTrialN,TrialsM3.thisN,TrialsM3.thisIndex,InstrKey_resp.keys,InstrKey_resp.rt,Image0 _Position,Image1 _Position,Image2 _Position,Image3 _Position,Center_image,condition,code,correct_answer,accuracy,Key_Resp.keys,Key_Resp.rt,BreakKey_resp.keys,BreakKey_resp.rt,date,frameRate,expName,session,participant,
,,,,,,,,,,,,,,,,,,,,,,,,,,,,,,space,14.7827531681,,,,,,,,,,,,,,2018_Jan_12_1141,60.0050424458,FEMA4ImagesEEG,001,102716,
AFNE23.JPG,AFNE24.JPG,AFNE22.JPG,AFSA24.JPG,AFSA22.JPG,AFSA23.JPG,0,0,0,8,,,,,,,,,,,,,,,,,,,,,,,AFNE03.jpg,AFNE07.jpg,AFSA18.jpg,AFSA13.jpg,AFNE07.jpg,FN,3,num_6,32,num_8,2.10003111186,,,2018_Jan_12_1141,60.0050424458,FEMA4ImagesEEG,001,102716,
AFSA21.JPG,AFNE23.JPG,AFNE21.JPG,AFSA25.JPG,AFNE25.JPG,AFSA23.JPG,0,1,1,4,,,,,,,,,,,,,,,,,,,,,,,AFSA10.jpg,AFNE11.jpg,AFSA16.jpg,AFNE16.jpg,AFSA10.jpg,FS,4,num_8,32,num_6,1.58339079935,,,2018_Jan_12_1141,60.0050424458,FEMA4ImagesEEG,001,102716,
AFSA21.JPG,AFNE22.JPG,AFNE21.JPG,AFSA23.JPG,AFSA22.JPG,AFNE23.JPG,0,2,2,0,,,,,,,,,,,,,,,,,,,,,,,AFSA05.jpg,AFSA14.jpg,AFNE03.jpg,AFNE09.jpg,AFSA05.jpg,FS,4,num_8,16,num_8,1.91668489552,,,2018_Jan_12_1141,60.0050424458,FEMA4ImagesEEG,001,102716,
AMSA21.JPG,AMNE22.JPG,AMNE21.JPG,AMSA23.JPG,AMSA22.JPG,AMNE23.JPG,0,3,3,1,,,,,,,,,,,,,,,,,,,,,,,AFNE16.jpg,AFSA05.jpg,AFSA10.jpg,AFNE01.jpg,AFNE01.jpg,FN,3,num_4,32,num_2,2.20001699915,,,2018_Jan_12_1141,60.0050424458,FEMA4ImagesEEG,001,102716,
AFSA25.JPG,AFNE24.JPG,AFSA24.JPG,AFNE21.JPG,AFSA21.JPG,AFNE25.JPG,0,4,4,2,,,,,,,,,,,,,,,,,,,,,,,AFNE18.jpg,AFSA16.jpg,AFNE14.jpg,AFSA04.jpg,AFSA16.jpg,FS,4,num_6,16,num_6,1.45007842104,,,2018_Jan_12_1141,60.0050424458,FEMA4ImagesEEG,001,102716,
AMSA21.JPG,AMNE23.JPG,AMNE21.JPG,AMSA25.JPG,AMNE25.JPG,AMSA23.JPG,0,5,5,5,,,,,,,,,,,,,,,,,,,,,,,AFSA17.jpg,AFSA15.jpg,AFNE06.jpg,AFNE19.jpg,AFSA17.jpg,FS,4,num_8,32,num_6,1.28318392183,,,2018_Jan_12_1141,60.0050424458,FEMA4ImagesEEG,001,102716,
AMNE22.JPG,AMSA24.JPG,AMSA22.JPG,AMNE25.JPG,AMNE24.JPG,AMSA25.JPG,0,6,6,7,,,,,,,,,,,,,,,,,,,,,,,AFNE01.jpg,AFNE18.jpg,AFSA09.jpg,AFSA03.jpg,AFNE18.jpg,FN,3,num_6,32,num_8,1.3334377876,,,2018_Jan_12_1141,60.0050424458,FEMA4ImagesEEG,001,102716,
AMSA25.JPG,AMNE24.JPG,AMSA24.JPG,AMNE26.JPG,AMSA21.JPG,AMNE25.JPG,0,7,7,3,,,,,,,,,,,,,,,,,,,,,,,AFSA02.jpg,AFNE08.jpg,AFNE15.jpg,AFSA08.jpg,AFNE15.jpg,FN,3,num_2,32,num_6,1.28343794821,,,2018_Jan_12_1141,60.0050424458,FEMA4ImagesEEG,001,102716,
AFNE22.JPG,AFSA24.JPG,AFSA22.JPG,AFNE25.JPG,AFNE24.JPG,AFSA25.JPG,0,8,8,6,,,,,,,,,,,,,,,,,,,,,,,AFNE13.jpg,AFNE11.jpg,AFSA02.jpg,AFSA05.jpg,AFSA05.jpg,FS,4,num_4,16,num_4,0.583521340275,,,2018_Jan_12_1141,60.0050424458,FEMA4ImagesEEG,001,102716,
AMNE23.JPG,AMNE24.JPG,AMNE22.JPG,AMSA24.JPG,AMSA22.JPG,AMSA23.JPG,0,9,9,9,,,,,,,,,,,,,,,,,,,,,,,AFSA07.jpg,AFNE10.jpg,AFNE20.jpg,AFSA02.jpg,AFSA02.jpg,FS,4,num_4,32,num_6,0.850127814803,,,2018_Jan_12_1141,60.0050424458,FEMA4ImagesEEG,001,102716,
AFSA25.JPG,AFNE24.JPG,AFSA24.JPG,AFNE21.JPG,AFSA21.JPG,AFNE25.JPG,,,,,0,0,0,2,,,,,,,,,,,,,,,,,,,AMNE16.jpg,AMNE05.jpg,AMSA12.jpg,AMSA16.jpg,AMSA12.jpg,MS,2,num_2,16,num_2,2.03334060335,,,2018_Jan_12_1141,60.0050424458,FEMA4ImagesEEG,001,102716,
AFNE23.JPG,AFNE24.JPG,AFNE22.JPG,AFSA24.JPG,AFSA22.JPG,AFSA23.JPG,,,,,0,1,1,8,,,,,,,,,,,,,,,,,,,AMSA05.jpg,AMNE18.jpg,AMNE20.jpg,AMSA02.jpg,AMSA02.jpg,MS,2,num_4,16,num_4,1.06679571117,,,2018_Jan_12_1141,60.0050424458,FEMA4ImagesEEG,001,102716,
AMSA21.JPG,AMNE22.JPG,AMNE21.JPG,AMSA23.JPG,AMSA22.JPG,AMNE23.JPG,,,,,0,2,2,1,,,,,,,,,,,,,,,,,,,AMNE09.jpg,AMSA19.jpg,AMSA06.jpg,AMNE01.jpg,AMNE09.jpg,MN,1,num_8,32,num_6,1.00012893742,,,2018_Jan_12_1141,60.0050424458,FEMA4ImagesEEG,001,102716,
AFSA21.JPG,AFNE23.JPG,AFNE21.JPG,AFSA25.JPG,AFNE25.JPG,AFSA23.JPG,,,,,0,3,3,4,,,,,,,,,,,,,,,,,,,AMSA02.jpg,AMNE14.jpg,AMNE09.jpg,AMSA05.jpg,AMSA02.jpg,MS,2,num_8,16,num_8,1.48353416985,,,2018_Jan_12_1141,60.0050424458,FEMA4ImagesEEG,001,102716,
AMNE23.JPG,AMNE24.JPG,AMNE22.JPG,AMSA24.JPG,AMSA22.JPG,AMSA23.JPG,,,,,0,4,4,9,,,,,,,,,,,,,,,,,,,AMNE18.jpg,AMNE07.jpg,AMSA19.jpg,AMSA02.jpg,AMSA19.jpg,MS,2,num_2,32,num_6,1.01676925016,,,2018_Jan_12_1141,60.0050424458,FEMA4ImagesEEG,001,102716,
AMSA25.JPG,AMNE24.JPG,AMSA24.JPG,AMNE26.JPG,AMSA21.JPG,AMNE25.JPG,,,,,0,5,5,3,,,,,,,,,,,,,,,,,,,AMSA05.jpg,AMNE13.jpg,AMSA11.jpg,AMNE19.jpg,AMSA05.jpg,MS,2,num_8,32,num_6,1.26671520527,,,2018_Jan_12_1141,60.0050424458,FEMA4ImagesEEG,001,102716,
AMNE22.JPG,AMSA24.JPG,AMSA22.JPG,AMNE25.JPG,AMNE24.JPG,AMSA25.JPG,,,,,0,6,6,7,,,,,,,,,,,,,,,,,,,AMNE13.jpg,AMSA19.jpg,AMSA01.jpg,AMNE08.jpg,AMSA01.jpg,MS,2,num_2,16,num_2,0.949972256087,,,2018_Jan_12_1141,60.0050424458,FEMA4ImagesEEG,001,102716,
AFSA21.JPG,AFNE22.JPG,AFNE21.JPG,AFSA23.JPG,AFSA22.JPG,AFNE23.JPG,,,,,0,7,7,0,,,,,,,,,,,,,,,,,,,AMNE03.jpg,AMSA18.jpg,AMSA01.jpg,AMNE15.jpg,AMSA18.jpg,MS,2,num_6,16,num_6,1.28345238138,,,2018_Jan_12_1141,60.0050424458,FEMA4ImagesEEG,001,102716,
AFNE22.JPG,AFSA24.JPG,AFSA22.JPG,AFNE25.JPG,AFNE24.JPG,AFSA25.JPG,,,,,0,8,8,6,,,,,,,,,,,,,,,,,,,AMNE12.jpg,AMSA07.jpg,AMNE14.jpg,AMSA06.jpg,AMNE12.jpg,MN,1,num_8,16,num_8,1.15040204767,,,2018_Jan_12_1141,60.0050424458,FEMA4ImagesEEG,001,102716,
AMSA21.JPG,AMNE23.JPG,AMNE21.JPG,AMSA25.JPG,AMNE25.JPG,AMSA23.JPG,,,,,0,9,9,5,,,,,,,,,,,,,,,,,,,AMSA04.jpg,AMSA13.jpg,AMNE02.jpg,AMNE09.jpg,AMNE09.jpg,MN,1,num_4,16,num_4,1.15015090816,,,2018_Jan_12_1141,60.0050424458,FEMA4ImagesEEG,001,102716,
AMSA25.JPG,AMNE24.JPG,AMSA24.JPG,AMNE26.JPG,AMSA21.JPG,AMNE25.JPG,,,,,,,,,0,0,0,3,,,,,,,,,,,,,,,AFNE03.jpg,AFSA12.jpg,AFSA06.jpg,AFNE06.jpg,AFNE06.jpg,FN,3,num_4,16,num_4,2.2666949986,,,2018_Jan_12_1141,60.0050424458,FEMA4ImagesEEG,001,102716,
AFNE23.JPG,AFNE24.JPG,AFNE22.JPG,AFSA24.JPG,AFSA22.JPG,AFSA23.JPG,,,,,,,,,0,1,1,8,,,,,,,,,,,,,,,AFSA09.jpg,AFSA16.jpg,AFNE12.jpg,AFNE11.jpg,AFSA09.jpg,FS,4,num_8,32,num_6,2.30000096234,,,2018_Jan_12_1141,60.0050424458,FEMA4ImagesEEG,001,102716,
AFSA21.JPG,AFNE22.JPG,AFNE21.JPG,AFSA23.JPG,AFSA22.JPG,AFNE23.JPG,,,,,,,,,0,2,2,0,,,,,,,,,,,,,,,AFSA04.jpg,AFNE08.jpg,AFNE18.jpg,AFSA08.jpg,AFSA04.jpg,FS,4,num_8,16,num_8,1.0667767874,,,2018_Jan_12_1141,60.0050424458,FEMA4ImagesEEG,001,102716,
AFNE22.JPG,AFSA24.JPG,AFSA22.JPG,AFNE25.JPG,AFNE24.JPG,AFSA25.JPG,,,,,,,,,0,3,3,6,,,,,,,,,,,,,,,AFSA09.jpg,AFSA10.jpg,AFNE01.jpg,AFNE11.jpg,AFSA10.jpg,FS,4,num_6,16,num_6,1.06679667323,,,2018_Jan_12_1141,60.0050424458,FEMA4ImagesEEG,001,102716,
AMNE22.JPG,AMSA24.JPG,AMSA22.JPG,AMNE25.JPG,AMNE24.JPG,AMSA25.JPG,,,,,,,,,0,4,4,7,,,,,,,,,,,,,,,AFSA04.jpg,AFSA01.jpg,AFNE18.jpg,AFNE09.jpg,AFSA04.jpg,FS,4,num_8,32,num_2,1.46674214769,,,2018_Jan_12_1141,60.0050424458,FEMA4ImagesEEG,001,102716,
AFSA25.JPG,AFNE24.JPG,AFSA24.JPG,AFNE21.JPG,AFSA21.JPG,AFNE25.JPG,,,,,,,,,0,5,5,2,,,,,,,,,,,,,,,AFSA08.jpg,AFNE04.jpg,AFSA11.jpg,AFNE05.jpg,AFNE04.jpg,FN,3,num_6,16,num_6,0.833469220204,,,2018_Jan_12_1141,60.0050424458,FEMA4ImagesEEG,001,102716,
AMSA21.JPG,AMNE22.JPG,AMNE21.JPG,AMSA23.JPG,AMSA22.JPG,AMNE23.JPG,,,,,,,,,0,6,6,1,,,,,,,,,,,,,,,AFSA15.jpg,AFNE14.jpg,AFNE07.jpg,AFSA07.jpg,AFNE07.jpg,FN,3,num_2,32,num_8,1.10015523806,,,2018_Jan_12_1141,60.0050424458,FEMA4ImagesEEG,001,102716,
AMNE23.JPG,AMNE24.JPG,AMNE22.JPG,AMSA24.JPG,AMSA22.JPG,AMSA23.JPG,,,,,,,,,0,7,7,9,,,,,,,,,,,,,,,AFSA02.jpg,AFNE13.jpg,AFNE05.jpg,AFSA20.jpg,AFSA20.jpg,FS,4,num_4,16,num_4,0.783414213452,,,2018_Jan_12_1141,60.0050424458,FEMA4ImagesEEG,001,102716,
AFSA21.JPG,AFNE23.JPG,AFNE21.JPG,AFSA25.JPG,AFNE25.JPG,AFSA23.JPG,,,,,,,,,0,8,8,4,,,,,,,,,,,,,,,AFSA03.jpg,AFNE13.jpg,AFNE04.jpg,AFSA17.jpg,AFNE04.jpg,FN,3,num_2,16,num_2,3.01664416143,,,2018_Jan_12_1141,60.0050424458,FEMA4ImagesEEG,001,102716,
AMSA21.JPG,AMNE23.JPG,AMNE21.JPG,AMSA25.JPG,AMNE25.JPG,AMSA23.JPG,,,,,,,,,0,9,9,5,,,,,,,,,,,,,,,AFSA17.jpg,AFSA07.jpg,AFNE15.jpg,AFNE17.jpg,AFSA17.jpg,FS,4,num_8,16,num_8,1.40010841005,,,2018_Jan_12_1141,60.0050424458,FEMA4ImagesEEG,001,102716,
AMNE23.JPG,AMNE24.JPG,AMNE22.JPG,AMSA24.JPG,AMSA22.JPG,AMSA23.JPG,,,,,,,,,,,,,0,0,0,9,,,,,,,,,,,AMSA11.jpg,AMSA20.jpg,AMNE09.jpg,AMNE14.jpg,AMSA20.jpg,MS,2,num_6,16,num_6,2.05009477865,,,2018_Jan_12_1141,60.0050424458,FEMA4ImagesEEG,001,102716,
AMSA25.JPG,AMNE24.JPG,AMSA24.JPG,AMNE26.JPG,AMSA21.JPG,AMNE25.JPG,,,,,,,,,,,,,0,1,1,3,,,,,,,,,,,AMSA07.jpg,AMNE19.jpg,AMNE08.jpg,AMSA08.jpg,AMSA07.jpg,MS,2,num_8,16,num_8,1.75007874169,,,2018_Jan_12_1141,60.0050424458,FEMA4ImagesEEG,001,102716,
AMNE22.JPG,AMSA24.JPG,AMSA22.JPG,AMNE25.JPG,AMNE24.JPG,AMSA25.JPG,,,,,,,,,,,,,0,2,2,7,,,,,,,,,,,AMSA12.jpg,AMSA02.jpg,AMNE06.jpg,AMNE17.jpg,AMNE06.jpg,MN,1,num_2,32,num_8,2.28340651537,,,2018_Jan_12_1141,60.0050424458,FEMA4ImagesEEG,001,102716,
AMSA21.JPG,AMNE22.JPG,AMNE21.JPG,AMSA23.JPG,AMSA22.JPG,AMNE23.JPG,,,,,,,,,,,,,0,3,3,1,,,,,,,,,,,AMSA08.jpg,AMNE03.jpg,AMNE17.jpg,AMSA01.jpg,AMSA01.jpg,MS,2,num_4,32,num_8,1.30007697758,,,2018_Jan_12_1141,60.0050424458,FEMA4ImagesEEG,001,102716,
AFNE23.JPG,AFNE24.JPG,AFNE22.JPG,AFSA24.JPG,AFSA22.JPG,AFSA23.JPG,,,,,,,,,,,,,0,4,4,8,,,,,,,,,,,AMSA06.jpg,AMSA03.jpg,AMNE13.jpg,AMNE08.jpg,AMNE08.jpg,MN,1,num_4,32,num_2,2.35001427308,,,2018_Jan_12_1141,60.0050424458,FEMA4ImagesEEG,001,102716,
AMSA21.JPG,AMNE23.JPG,AMNE21.JPG,AMSA25.JPG,AMNE25.JPG,AMSA23.JPG,,,,,,,,,,,,,0,5,5,5,,,,,,,,,,,AMSA03.jpg,AMNE08.jpg,AMNE19.jpg,AMSA13.jpg,AMNE19.jpg,MN,1,num_2,32,num_8,1.31675064727,,,2018_Jan_12_1141,60.0050424458,FEMA4ImagesEEG,001,102716,
AFSA25.JPG,AFNE24.JPG,AFSA24.JPG,AFNE21.JPG,AFSA21.JPG,AFNE25.JPG,,,,,,,,,,,,,0,6,6,2,,,,,,,,,,,AMNE13.jpg,AMSA15.jpg,AMSA14.jpg,AMNE03.jpg,AMSA15.jpg,MS,2,num_6,16,num_6,1.43340026122,,,2018_Jan_12_1141,60.0050424458,FEMA4ImagesEEG,001,102716,
AFSA21.JPG,AFNE23.JPG,AFNE21.JPG,AFSA25.JPG,AFNE25.JPG,AFSA23.JPG,,,,,,,,,,,,,0,7,7,4,,,,,,,,,,,AMSA17.jpg,AMNE19.jpg,AMSA12.jpg,AMNE09.jpg,AMNE19.jpg,MN,1,num_6,16,num_6,1.50009910855,,,2018_Jan_12_1141,60.0050424458,FEMA4ImagesEEG,001,102716,
AFSA21.JPG,AFNE22.JPG,AFNE21.JPG,AFSA23.JPG,AFSA22.JPG,AFNE23.JPG,,,,,,,,,,,,,0,8,8,0,,,,,,,,,,,AMSA15.jpg,AMNE17.jpg,AMNE11.jpg,AMSA02.jpg,AMNE17.jpg,MN,1,num_6,32,num_8,1.33340699645,,,2018_Jan_12_1141,60.0050424458,FEMA4ImagesEEG,001,102716,
AFNE22.JPG,AFSA24.JPG,AFSA22.JPG,AFNE25.JPG,AFNE24.JPG,AFSA25.JPG,,,,,,,,,,,,,0,9,9,6,,,,,,,,,,,AMSA13.jpg,AMNE10.jpg,AMSA19.jpg,AMNE01.jpg,AMNE01.jpg,MN,1,num_4,32,num_8,1.55007393053,,,2018_Jan_12_1141,60.0050424458,FEMA4ImagesEEG,001,102716,
AFSA21.JPG,AFNE23.JPG,AFNE21.JPG,AFSA25.JPG,AFNE25.JPG,AFSA23.JPG,,,,,,,,,,,,,,,,,0,0,0,4,,,,,,,AFNE08.jpg,AFSA05.jpg,AFNE13.jpg,AFSA15.jpg,AFSA05.jpg,FS,4,num_6,32,num_4,1.20004233764,,,2018_Jan_12_1141,60.0050424458,FEMA4ImagesEEG,001,102716,
AMNE22.JPG,AMSA24.JPG,AMSA22.JPG,AMNE25.JPG,AMNE24.JPG,AMSA25.JPG,,,,,,,,,,,,,,,,,0,1,1,7,,,,,,,AFNE17.jpg,AFNE09.jpg,AFSA08.jpg,AFSA02.jpg,AFSA02.jpg,FS,4,num_4,16,num_4,0.750086439308,,,2018_Jan_12_1141,60.0050424458,FEMA4ImagesEEG,001,102716,
AMSA25.JPG,AMNE24.JPG,AMSA24.JPG,AMNE26.JPG,AMSA21.JPG,AMNE25.JPG,,,,,,,,,,,,,,,,,0,2,2,3,,,,,,,AFNE09.jpg,AFSA08.jpg,AFSA17.jpg,AFNE13.jpg,AFSA17.jpg,FS,4,num_2,16,num_2,1.28342864662,,,2018_Jan_12_1141,60.0050424458,FEMA4ImagesEEG,001,102716,
AFSA21.JPG,AFNE22.JPG,AFNE21.JPG,AFSA23.JPG,AFSA22.JPG,AFNE23.JPG,,,,,,,,,,,,,,,,,0,3,3,0,,,,,,,AFSA05.jpg,AFNE18.jpg,AFSA19.jpg,AFNE05.jpg,AFNE18.jpg,FN,3,num_6,16,num_6,1.60002309317,,,2018_Jan_12_1141,60.0050424458,FEMA4ImagesEEG,001,102716,
AFNE23.JPG,AFNE24.JPG,AFNE22.JPG,AFSA24.JPG,AFSA22.JPG,AFSA23.JPG,,,,,,,,,,,,,,,,,0,4,4,8,,,,,,,AFSA09.jpg,AFNE02.jpg,AFNE10.jpg,AFSA01.jpg,AFSA01.jpg,FS,4,num_4,32,num_8,1.25017752964,,,2018_Jan_12_1141,60.0050424458,FEMA4ImagesEEG,001,102716,
AMSA21.JPG,AMNE22.JPG,AMNE21.JPG,AMSA23.JPG,AMSA22.JPG,AMNE23.JPG,,,,,,,,,,,,,,,,,0,5,5,1,,,,,,,AFSA04.jpg,AFNE02.jpg,AFNE13.jpg,AFSA12.jpg,AFNE02.jpg,FN,3,num_6,32,num_8,1.31680934248,,,2018_Jan_12_1141,60.0050424458,FEMA4ImagesEEG,001,102716,
AFSA25.JPG,AFNE24.JPG,AFSA24.JPG,AFNE21.JPG,AFSA21.JPG,AFNE25.JPG,,,,,,,,,,,,,,,,,0,6,6,2,,,,,,,AFNE11.jpg,AFNE12.jpg,AFSA08.jpg,AFSA06.jpg,AFNE11.jpg,FN,3,num_8,32,num_6,0.983440513955,,,2018_Jan_12_1141,60.0050424458,FEMA4ImagesEEG,001,102716,
AMNE23.JPG,AMNE24.JPG,AMNE22.JPG,AMSA24.JPG,AMSA22.JPG,AMSA23.JPG,,,,,,,,,,,,,,,,,0,7,7,9,,,,,,,AFNE06.jpg,AFSA12.jpg,AFSA04.jpg,AFNE09.jpg,AFNE06.jpg,FN,3,num_8,16,num_8,1.01677598548,,,2018_Jan_12_1141,60.0050424458,FEMA4ImagesEEG,001,102716,
AFNE22.JPG,AFSA24.JPG,AFSA22.JPG,AFNE25.JPG,AFNE24.JPG,AFSA25.JPG,,,,,,,,,,,,,,,,,0,8,8,6,,,,,,,AFNE10.jpg,AFNE01.jpg,AFSA01.jpg,AFSA05.jpg,AFNE10.jpg,FN,3,num_8,32,num_2,1.63344901358,,,2018_Jan_12_1141,60.0050424458,FEMA4ImagesEEG,001,102716,
AMSA21.JPG,AMNE23.JPG,AMNE21.JPG,AMSA25.JPG,AMNE25.JPG,AMSA23.JPG,,,,,,,,,,,,,,,,,0,9,9,5,,,,,,,AFSA05.jpg,AFNE20.jpg,AFSA10.jpg,AFNE19.jpg,AFSA10.jpg,FS,4,num_2,32,num_6,1.63342720317,,,2018_Jan_12_1141,60.0050424458,FEMA4ImagesEEG,001,102716,
AFSA25.JPG,AFNE24.JPG,AFSA24.JPG,AFNE21.JPG,AFSA21.JPG,AFNE25.JPG,,,,,,,,,,,,,,,,,,,,,0,0,0,2,,,AMSA13.jpg,AMNE04.jpg,AMSA07.jpg,AMNE15.jpg,AMSA07.jpg,MS,2,num_2,32,num_8,1.08372340654,,,2018_Jan_12_1141,60.0050424458,FEMA4ImagesEEG,001,102716,
AFSA21.JPG,AFNE23.JPG,AFNE21.JPG,AFSA25.JPG,AFNE25.JPG,AFSA23.JPG,,,,,,,,,,,,,,,,,,,,,0,1,1,4,,,AMSA02.jpg,AMNE05.jpg,AMSA10.jpg,AMNE18.jpg,AMSA10.jpg,MS,2,num_2,16,num_2,1.51673910045,,,2018_Jan_12_1141,60.0050424458,FEMA4ImagesEEG,001,102716,
AMNE23.JPG,AMNE24.JPG,AMNE22.JPG,AMSA24.JPG,AMSA22.JPG,AMSA23.JPG,,,,,,,,,,,,,,,,,,,,,0,2,2,9,,,AMSA18.jpg,AMNE16.jpg,AMNE19.jpg,AMSA04.jpg,AMNE16.jpg,MN,1,num_6,32,num_8,1.55013551284,,,2018_Jan_12_1141,60.0050424458,FEMA4ImagesEEG,001,102716,
AFNE22.JPG,AFSA24.JPG,AFSA22.JPG,AFNE25.JPG,AFNE24.JPG,AFSA25.JPG,,,,,,,,,,,,,,,,,,,,,0,3,3,6,,,AMNE13.jpg,AMSA13.jpg,AMNE09.jpg,AMSA08.jpg,AMNE09.jpg,MN,1,num_2,32,num_8,0.800119636115,,,2018_Jan_12_1141,60.0050424458,FEMA4ImagesEEG,001,102716,
AMSA21.JPG,AMNE22.JPG,AMNE21.JPG,AMSA23.JPG,AMSA22.JPG,AMNE23.JPG,,,,,,,,,,,,,,,,,,,,,0,4,4,1,,,AMNE06.jpg,AMNE07.jpg,AMSA11.jpg,AMSA16.jpg,AMNE06.jpg,MN,1,num_8,16,num_8,1.06678801333,,,2018_Jan_12_1141,60.0050424458,FEMA4ImagesEEG,001,102716,
AMSA25.JPG,AMNE24.JPG,AMSA24.JPG,AMNE26.JPG,AMSA21.JPG,AMNE25.JPG,,,,,,,,,,,,,,,,,,,,,0,5,5,3,,,AMNE07.jpg,AMSA18.jpg,AMSA17.jpg,AMNE09.jpg,AMSA18.jpg,MS,2,num_6,16,num_6,0.883502737386,,,2018_Jan_12_1141,60.0050424458,FEMA4ImagesEEG,001,102716,
AMSA21.JPG,AMNE23.JPG,AMNE21.JPG,AMSA25.JPG,AMNE25.JPG,AMSA23.JPG,,,,,,,,,,,,,,,,,,,,,0,6,6,5,,,AMNE07.jpg,AMSA16.jpg,AMSA17.jpg,AMNE13.jpg,AMSA16.jpg,MS,2,num_6,32,num_2,1.63314751792,,,2018_Jan_12_1141,60.0050424458,FEMA4ImagesEEG,001,102716,
AFNE23.JPG,AFNE24.JPG,AFNE22.JPG,AFSA24.JPG,AFSA22.JPG,AFSA23.JPG,,,,,,,,,,,,,,,,,,,,,0,7,7,8,,,AMSA06.jpg,AMNE04.jpg,AMSA10.jpg,AMNE17.jpg,AMSA06.jpg,MS,2,num_8,16,num_8,2.16657407954,,,2018_Jan_12_1141,60.0050424458,FEMA4ImagesEEG,001,102716,
AMNE22.JPG,AMSA24.JPG,AMSA22.JPG,AMNE25.JPG,AMNE24.JPG,AMSA25.JPG,,,,,,,,,,,,,,,,,,,,,0,8,8,7,,,AMSA11.jpg,AMNE10.jpg,AMSA12.jpg,AMNE16.jpg,AMNE16.jpg,MN,1,num_4,16,num_4,2.100081468,,,2018_Jan_12_1141,60.0050424458,FEMA4ImagesEEG,001,102716,
AFSA21.JPG,AFNE22.JPG,AFNE21.JPG,AFSA23.JPG,AFSA22.JPG,AFNE23.JPG,,,,,,,,,,,,,,,,,,,,,0,9,9,0,,,AMNE18.jpg,AMSA20.jpg,AMNE06.jpg,AMSA11.jpg,AMNE18.jpg,MN,1,num_8,16,num_8,1.43344035349,,,2018_Jan_12_1141,60.0050424458,FEMA4ImagesEEG,001,102716,
,,,,,,,,,,,,,,,,,,,,,,,,,,,,,,,,,,,,,,,,,,,space,6.29969529691,2018_Jan_12_1141,60.0050424458,FEMA4ImagesEEG,001,102716,
AFNE01.JPG,AFNE01.JPG,AFNE01.JPG,AFNE01.JPG,AFNE01.JPG,AFNE01.JPG,0,0,0,3,,,,,,,,,,,,,,,,,,,,,,,AFSA15.jpg,AFSA16.jpg,AFNE12.jpg,AFNE11.jpg,AFSA15.jpg,FS,4,num_8,16,num_8,1.20013727667,,,2018_Jan_12_1141,60.0050424458,FEMA4ImagesEEG,001,102716,
AFNE01.JPG,AFNE01.JPG,AFNE01.JPG,AFNE01.JPG,AFNE01.JPG,AFNE01.JPG,0,1,1,9,,,,,,,,,,,,,,,,,,,,,,,AFSA06.jpg,AFSA20.jpg,AFNE19.jpg,AFNE18.jpg,AFSA20.jpg,FS,4,num_6,16,num_6,1.70005035633,,,2018_Jan_12_1141,60.0050424458,FEMA4ImagesEEG,001,102716,
AFNE01.JPG,AFNE01.JPG,AFNE01.JPG,AFNE01.JPG,AFNE01.JPG,AFNE01.JPG,0,2,2,1,,,,,,,,,,,,,,,,,,,,,,,AFNE13.jpg,AFNE12.jpg,AFSA17.jpg,AFSA16.jpg,AFNE13.jpg,FN,3,num_8,32,num_6,0.933468578849,,,2018_Jan_12_1141,60.0050424458,FEMA4ImagesEEG,001,102716,
AFNE01.JPG,AFNE01.JPG,AFNE01.JPG,AFNE01.JPG,AFNE01.JPG,AFNE01.JPG,0,3,3,5,,,,,,,,,,,,,,,,,,,,,,,AFNE02.jpg,AFSA04.jpg,AFSA12.jpg,AFNE01.jpg,AFNE02.jpg,FN,3,num_8,16,num_8,2.53333483008,,,2018_Jan_12_1141,60.0050424458,FEMA4ImagesEEG,001,102716,
AFNE01.JPG,AFNE01.JPG,AFNE01.JPG,AFNE01.JPG,AFNE01.JPG,AFNE01.JPG,0,4,4,4,,,,,,,,,,,,,,,,,,,,,,,AFSA20.jpg,AFNE04.jpg,AFNE05.jpg,AFSA08.jpg,AFNE05.jpg,FN,3,num_2,32,num_6,1.36672963854,,,2018_Jan_12_1141,60.0050424458,FEMA4ImagesEEG,001,102716,
AFNE01.JPG,AFNE01.JPG,AFNE01.JPG,AFNE01.JPG,AFNE01.JPG,AFNE01.JPG,0,5,5,7,,,,,,,,,,,,,,,,,,,,,,,AFNE09.jpg,AFSA13.jpg,AFSA12.jpg,AFNE02.jpg,AFSA13.jpg,FS,4,num_6,16,num_6,0.733492313419,,,2018_Jan_12_1141,60.0050424458,FEMA4ImagesEEG,001,102716,
AFNE01.JPG,AFNE01.JPG,AFNE01.JPG,AFNE01.JPG,AFNE01.JPG,AFNE01.JPG,0,6,6,8,,,,,,,,,,,,,,,,,,,,,,,AFSA04.jpg,AFSA09.jpg,AFNE10.jpg,AFNE13.jpg,AFNE13.jpg,FN,3,num_4,32,num_2,1.41672723298,,,2018_Jan_12_1141,60.0050424458,FEMA4ImagesEEG,001,102716,
AFNE01.JPG,AFNE01.JPG,AFNE01.JPG,AFNE01.JPG,AFNE01.JPG,AFNE01.JPG,0,7,7,2,,,,,,,,,,,,,,,,,,,,,,,AFNE03.jpg,AFNE17.jpg,AFSA04.jpg,AFSA13.jpg,AFSA04.jpg,FS,4,num_2,32,num_6,2.13342656172,,,2018_Jan_12_1141,60.0050424458,FEMA4ImagesEEG,001,102716,
AFNE01.JPG,AFNE01.JPG,AFNE01.JPG,AFNE01.JPG,AFNE01.JPG,AFNE01.JPG,0,8,8,0,,,,,,,,,,,,,,,,,,,,,,,AFNE19.jpg,AFNE15.jpg,AFSA10.jpg,AFSA14.jpg,AFSA10.jpg,FS,4,num_2,32,num_8,1.06674792082,,,2018_Jan_12_1141,60.0050424458,FEMA4ImagesEEG,001,102716,
AFNE01.JPG,AFNE01.JPG,AFNE01.JPG,AFNE01.JPG,AFNE01.JPG,AFNE01.JPG,0,9,9,6,,,,,,,,,,,,,,,,,,,,,,,AFSA08.jpg,AFNE13.jpg,AFNE18.jpg,AFSA07.jpg,AFNE13.jpg,FN,3,num_6,32,num_4,1.45003127214,,,2018_Jan_12_1141,60.0050424458,FEMA4ImagesEEG,001,102716,
AFNE01.JPG,AFNE01.JPG,AFNE01.JPG,AFNE01.JPG,AFNE01.JPG,AFNE01.JPG,1,0,10,0,,,,,,,,,,,,,,,,,,,,,,,AFNE20.jpg,AFSA20.jpg,AFNE06.jpg,AFSA07.jpg,AFSA07.jpg,FS,4,num_4,32,num_8,1.14997385954,,,2018_Jan_12_1141,60.0050424458,FEMA4ImagesEEG,001,102716,
AFNE01.JPG,AFNE01.JPG,AFNE01.JPG,AFNE01.JPG,AFNE01.JPG,AFNE01.JPG,1,1,11,6,,,,,,,,,,,,,,,,,,,,,,,AFSA07.jpg,AFSA16.jpg,AFNE20.jpg,AFNE02.jpg,AFSA16.jpg,FS,4,num_6,16,num_6,1.3667350912,,,2018_Jan_12_1141,60.0050424458,FEMA4ImagesEEG,001,102716,
AFNE01.JPG,AFNE01.JPG,AFNE01.JPG,AFNE01.JPG,AFNE01.JPG,AFNE01.JPG,1,2,12,7,,,,,,,,,,,,,,,,,,,,,,,AFSA20.jpg,AFNE17.jpg,AFSA14.jpg,AFNE13.jpg,AFNE13.jpg,FN,3,num_4,32,num_8,0.900128937326,,,2018_Jan_12_1141,60.0050424458,FEMA4ImagesEEG,001,102716,
AFNE01.JPG,AFNE01.JPG,AFNE01.JPG,AFNE01.JPG,AFNE01.JPG,AFNE01.JPG,1,3,13,3,,,,,,,,,,,,,,,,,,,,,,,AFNE05.jpg,AFSA16.jpg,AFNE14.jpg,AFSA04.jpg,AFSA16.jpg,FS,4,num_6,32,num_8,1.28344692872,,,2018_Jan_12_1141,60.0050424458,FEMA4ImagesEEG,001,102716,
AFNE01.JPG,AFNE01.JPG,AFNE01.JPG,AFNE01.JPG,AFNE01.JPG,AFNE01.JPG,1,4,14,5,,,,,,,,,,,,,,,,,,,,,,,AFNE13.jpg,AFSA20.jpg,AFNE05.jpg,AFSA04.jpg,AFNE05.jpg,FN,3,num_2,32,num_6,1.63339160127,,,2018_Jan_12_1141,60.0050424458,FEMA4ImagesEEG,001,102716,
AFNE01.JPG,AFNE01.JPG,AFNE01.JPG,AFNE01.JPG,AFNE01.JPG,AFNE01.JPG,1,5,15,1,,,,,,,,,,,,,,,,,,,,,,,AFSA17.jpg,AFSA18.jpg,AFNE02.jpg,AFNE04.jpg,AFSA17.jpg,FS,4,num_8,16,num_8,1.23346376768,,,2018_Jan_12_1141,60.0050424458,FEMA4ImagesEEG,001,102716,
AFNE01.JPG,AFNE01.JPG,AFNE01.JPG,AFNE01.JPG,AFNE01.JPG,AFNE01.JPG,1,6,16,8,,,,,,,,,,,,,,,,,,,,,,,AFSA09.jpg,AFNE07.jpg,AFNE08.jpg,AFSA11.jpg,AFSA09.jpg,FS,4,num_8,16,num_8,1.50014561578,,,2018_Jan_12_1141,60.0050424458,FEMA4ImagesEEG,001,102716,
AFNE01.JPG,AFNE01.JPG,AFNE01.JPG,AFNE01.JPG,AFNE01.JPG,AFNE01.JPG,1,7,17,2,,,,,,,,,,,,,,,,,,,,,,,AFNE18.jpg,AFSA05.jpg,AFNE08.jpg,AFSA09.jpg,AFSA05.jpg,FS,4,num_6,32,num_2,1.95032122103,,,2018_Jan_12_1141,60.0050424458,FEMA4ImagesEEG,001,102716,
AFNE01.JPG,AFNE01.JPG,AFNE01.JPG,AFNE01.JPG,AFNE01.JPG,AFNE01.JPG,1,8,18,9,,,,,,,,,,,,,,,,,,,,,,,AFNE10.jpg,AFSA09.jpg,AFNE12.jpg,AFSA05.jpg,AFSA05.jpg,FS,4,num_4,16,num_4,1.48344468372,,,2018_Jan_12_1141,60.0050424458,FEMA4ImagesEEG,001,102716,
AFNE01.JPG,AFNE01.JPG,AFNE01.JPG,AFNE01.JPG,AFNE01.JPG,AFNE01.JPG,1,9,19,4,,,,,,,,,,,,,,,,,,,,,,,AFNE01.jpg,AFNE15.jpg,AFSA18.jpg,AFSA01.jpg,AFSA01.jpg,FS,4,num_4,32,num_8,1.26672963868,,,2018_Jan_12_1141,60.0050424458,FEMA4ImagesEEG,001,102716,
AFNE01.JPG,AFNE01.JPG,AFNE01.JPG,AFNE01.JPG,AFNE01.JPG,AFNE01.JPG,2,0,20,1,,,,,,,,,,,,,,,,,,,,,,,AFNE14.jpg,AFNE04.jpg,AFSA06.jpg,AFSA19.jpg,AFNE04.jpg,FN,3,num_6,16,num_6,1.18342255265,,,2018_Jan_12_1141,60.0050424458,FEMA4ImagesEEG,001,102716,
AFNE01.JPG,AFNE01.JPG,AFNE01.JPG,AFNE01.JPG,AFNE01.JPG,AFNE01.JPG,2,1,21,9,,,,,,,,,,,,,,,,,,,,,,,AFNE05.jpg,AFNE12.jpg,AFSA09.jpg,AFSA06.jpg,AFNE12.jpg,FN,3,num_6,16,num_6,1.41675930703,,,2018_Jan_12_1141,60.0050424458,FEMA4ImagesEEG,001,102716,
AFNE01.JPG,AFNE01.JPG,AFNE01.JPG,AFNE01.JPG,AFNE01.JPG,AFNE01.JPG,2,2,22,4,,,,,,,,,,,,,,,,,,,,,,,AFNE12.jpg,AFNE17.jpg,AFSA14.jpg,AFSA04.jpg,AFNE17.jpg,FN,3,num_6,32,num_8,1.30013214494,,,2018_Jan_12_1141,60.0050424458,FEMA4ImagesEEG,001,102716,
AFNE01.JPG,AFNE01.JPG,AFNE01.JPG,AFNE01.JPG,AFNE01.JPG,AFNE01.JPG,2,3,23,0,,,,,,,,,,,,,,,,,,,,,,,AFNE14.jpg,AFNE18.jpg,AFSA14.jpg,AFSA15.jpg,AFSA15.jpg,FS,4,num_4,16,num_4,0.650117551209,,,2018_Jan_12_1141,60.0050424458,FEMA4ImagesEEG,001,102716,
AFNE01.JPG,AFNE01.JPG,AFNE01.JPG,AFNE01.JPG,AFNE01.JPG,AFNE01.JPG,2,4,24,2,,,,,,,,,,,,,,,,,,,,,,,AFSA06.jpg,AFNE05.jpg,AFNE10.jpg,AFSA10.jpg,AFNE10.jpg,FN,3,num_2,32,num_8,1.76674888306,,,2018_Jan_12_1141,60.0050424458,FEMA4ImagesEEG,001,102716,
AFNE01.JPG,AFNE01.JPG,AFNE01.JPG,AFNE01.JPG,AFNE01.JPG,AFNE01.JPG,2,5,25,3,,,,,,,,,,,,,,,,,,,,,,,AFSA17.jpg,AFNE17.jpg,AFNE04.jpg,AFSA18.jpg,AFNE17.jpg,FN,3,num_6,16,num_6,1.39963371493,,,2018_Jan_12_1141,60.0050424458,FEMA4ImagesEEG,001,102716,
AFNE01.JPG,AFNE01.JPG,AFNE01.JPG,AFNE01.JPG,AFNE01.JPG,AFNE01.JPG,2,6,26,5,,,,,,,,,,,,,,,,,,,,,,,AFNE06.jpg,AFSA18.jpg,AFNE20.jpg,AFSA09.jpg,AFNE20.jpg,FN,3,num_2,32,num_8,1.03340603434,,,2018_Jan_12_1141,60.0050424458,FEMA4ImagesEEG,001,102716,
AFNE01.JPG,AFNE01.JPG,AFNE01.JPG,AFNE01.JPG,AFNE01.JPG,AFNE01.JPG,2,7,27,6,,,,,,,,,,,,,,,,,,,,,,,AFNE11.jpg,AFSA08.jpg,AFSA09.jpg,AFNE06.jpg,AFSA09.jpg,FS,4,num_2,32,num_8,1.2834504568,,,2018_Jan_12_1141,60.0050424458,FEMA4ImagesEEG,001,102716,
AFNE01.JPG,AFNE01.JPG,AFNE01.JPG,AFNE01.JPG,AFNE01.JPG,AFNE01.JPG,2,8,28,7,,,,,,,,,,,,,,,,,,,,,,,AFSA01.jpg,AFNE02.jpg,AFSA11.jpg,AFNE18.jpg,AFNE02.jpg,FN,3,num_6,32,num_8,1.76695864694,,,2018_Jan_12_1141,60.0050424458,FEMA4ImagesEEG,001,102716,
AFNE01.JPG,AFNE01.JPG,AFNE01.JPG,AFNE01.JPG,AFNE01.JPG,AFNE01.JPG,2,9,29,8,,,,,,,,,,,,,,,,,,,,,,,AFSA08.jpg,AFSA12.jpg,AFNE03.jpg,AFNE11.jpg,AFSA08.jpg,FS,4,num_8,32,num_2,1.91672498803,,,2018_Jan_12_1141,60.0050424458,FEMA4ImagesEEG,001,102716,
AFNE01.JPG,AFNE01.JPG,AFNE01.JPG,AFNE01.JPG,AFNE01.JPG,AFNE01.JPG,3,0,30,8,,,,,,,,,,,,,,,,,,,,,,,AFNE12.jpg,AFSA01.jpg,AFNE19.jpg,AFSA19.jpg,AFSA01.jpg,FS,4,num_6,32,num_4,1.15010568383,,,2018_Jan_12_1141,60.0050424458,FEMA4ImagesEEG,001,102716,
AFNE01.JPG,AFNE01.JPG,AFNE01.JPG,AFNE01.JPG,AFNE01.JPG,AFNE01.JPG,3,1,31,6,,,,,,,,,,,,,,,,,,,,,,,AFNE02.jpg,AFSA13.jpg,AFNE06.jpg,AFSA07.jpg,AFSA13.jpg,FS,4,num_6,32,num_8,1.25013872003,,,2018_Jan_12_1141,60.0050424458,FEMA4ImagesEEG,001,102716,
AFNE01.JPG,AFNE01.JPG,AFNE01.JPG,AFNE01.JPG,AFNE01.JPG,AFNE01.JPG,3,2,32,3,,,,,,,,,,,,,,,,,,,,,,,AFNE08.jpg,AFSA09.jpg,AFSA05.jpg,AFNE16.jpg,AFNE08.jpg,FN,3,num_8,16,num_8,0.966769410297,,,2018_Jan_12_1141,60.0050424458,FEMA4ImagesEEG,001,102716,
AFNE01.JPG,AFNE01.JPG,AFNE01.JPG,AFNE01.JPG,AFNE01.JPG,AFNE01.JPG,3,3,33,0,,,,,,,,,,,,,,,,,,,,,,,AFSA18.jpg,AFNE20.jpg,AFNE07.jpg,AFSA15.jpg,AFSA15.jpg,FS,4,num_4,32,num_2,1.5667511283,,,2018_Jan_12_1141,60.0050424458,FEMA4ImagesEEG,001,102716,
AFNE01.JPG,AFNE01.JPG,AFNE01.JPG,AFNE01.JPG,AFNE01.JPG,AFNE01.JPG,3,4,34,7,,,,,,,,,,,,,,,,,,,,,,,AFNE01.jpg,AFSA03.jpg,AFSA10.jpg,AFNE04.jpg,AFSA10.jpg,FS,4,num_2,32,num_8,1.13379380899,,,2018_Jan_12_1141,60.0050424458,FEMA4ImagesEEG,001,102716,
AFNE01.JPG,AFNE01.JPG,AFNE01.JPG,AFNE01.JPG,AFNE01.JPG,AFNE01.JPG,3,5,35,4,,,,,,,,,,,,,,,,,,,,,,,AFNE01.jpg,AFNE02.jpg,AFSA04.jpg,AFSA11.jpg,AFSA11.jpg,FS,4,num_4,16,num_4,0.51676668413,,,2018_Jan_12_1141,60.0050424458,FEMA4ImagesEEG,001,102716,
AFNE01.JPG,AFNE01.JPG,AFNE01.JPG,AFNE01.JPG,AFNE01.JPG,AFNE01.JPG,3,6,36,1,,,,,,,,,,,,,,,,,,,,,,,AFNE09.jpg,AFSA10.jpg,AFSA14.jpg,AFNE15.jpg,AFNE09.jpg,FN,3,num_8,16,num_8,2.08344532503,,,2018_Jan_12_1141,60.0050424458,FEMA4ImagesEEG,001,102716,
AFNE01.JPG,AFNE01.JPG,AFNE01.JPG,AFNE01.JPG,AFNE01.JPG,AFNE01.JPG,3,7,37,2,,,,,,,,,,,,,,,,,,,,,,,AFNE02.jpg,AFSA10.jpg,AFNE14.jpg,AFSA08.jpg,AFSA08.jpg,FS,4,num_4,32,num_6,0.816848152084,,,2018_Jan_12_1141,60.0050424458,FEMA4ImagesEEG,001,102716,
AFNE01.JPG,AFNE01.JPG,AFNE01.JPG,AFNE01.JPG,AFNE01.JPG,AFNE01.JPG,3,8,38,5,,,,,,,,,,,,,,,,,,,,,,,AFNE05.jpg,AFSA19.jpg,AFNE19.jpg,AFSA09.jpg,AFSA09.jpg,FS,4,num_4,32,num_8,1.06672065798,,,2018_Jan_12_1141,60.0050424458,FEMA4ImagesEEG,001,102716,
AFNE01.JPG,AFNE01.JPG,AFNE01.JPG,AFNE01.JPG,AFNE01.JPG,AFNE01.JPG,3,9,39,9,,,,,,,,,,,,,,,,,,,,,,,AFSA08.jpg,AFSA07.jpg,AFNE04.jpg,AFNE18.jpg,AFSA07.jpg,FS,4,num_6,16,num_6,1.11682441738,,,2018_Jan_12_1141,60.0050424458,FEMA4ImagesEEG,001,102716,
AFNE01.JPG,AFNE01.JPG,AFNE01.JPG,AFNE01.JPG,AFNE01.JPG,AFNE01.JPG,4,0,40,4,,,,,,,,,,,,,,,,,,,,,,,AFNE16.jpg,AFNE04.jpg,AFSA11.jpg,AFSA15.jpg,AFNE16.jpg,FN,3,num_8,16,num_8,0.866679603001,,,2018_Jan_12_1141,60.0050424458,FEMA4ImagesEEG,001,102716,
AFNE01.JPG,AFNE01.JPG,AFNE01.JPG,AFNE01.JPG,AFNE01.JPG,AFNE01.JPG,4,1,41,8,,,,,,,,,,,,,,,,,,,,,,,AFSA14.jpg,AFSA02.jpg,AFNE05.jpg,AFNE08.jpg,AFSA02.jpg,FS,4,num_6,32,num_4,0.81680709729,,,2018_Jan_12_1141,60.0050424458,FEMA4ImagesEEG,001,102716,
AFNE01.JPG,AFNE01.JPG,AFNE01.JPG,AFNE01.JPG,AFNE01.JPG,AFNE01.JPG,4,2,42,3,,,,,,,,,,,,,,,,,,,,,,,AFSA01.jpg,AFSA06.jpg,AFNE19.jpg,AFNE20.jpg,AFSA06.jpg,FS,4,num_6,32,num_8,1.15013936162,,,2018_Jan_12_1141,60.0050424458,FEMA4ImagesEEG,001,102716,
AFNE01.JPG,AFNE01.JPG,AFNE01.JPG,AFNE01.JPG,AFNE01.JPG,AFNE01.JPG,4,3,43,2,,,,,,,,,,,,,,,,,,,,,,,AFNE20.jpg,AFSA15.jpg,AFNE14.jpg,AFSA07.jpg,AFNE14.jpg,FN,3,num_2,32,num_8,0.700129578821,,,2018_Jan_12_1141,60.0050424458,FEMA4ImagesEEG,001,102716,
AFNE01.JPG,AFNE01.JPG,AFNE01.JPG,AFNE01.JPG,AFNE01.JPG,AFNE01.JPG,4,4,44,5,,,,,,,,,,,,,,,,,,,,,,,AFNE19.jpg,AFSA03.jpg,AFSA02.jpg,AFNE17.jpg,AFSA02.jpg,FS,4,num_2,32,num_4,0.950144814095,,,2018_Jan_12_1141,60.0050424458,FEMA4ImagesEEG,001,102716,
AFNE01.JPG,AFNE01.JPG,AFNE01.JPG,AFNE01.JPG,AFNE01.JPG,AFNE01.JPG,4,5,45,1,,,,,,,,,,,,,,,,,,,,,,,AFNE01.jpg,AFNE16.jpg,AFSA09.jpg,AFSA18.jpg,AFNE01.jpg,FN,3,num_8,16,num_8,0.966736694798,,,2018_Jan_12_1141,60.0050424458,FEMA4ImagesEEG,001,102716,
AFNE01.JPG,AFNE01.JPG,AFNE01.JPG,AFNE01.JPG,AFNE01.JPG,AFNE01.JPG,4,6,46,9,,,,,,,,,,,,,,,,,,,,,,,AFSA13.jpg,AFNE10.jpg,AFNE12.jpg,AFSA18.jpg,AFNE12.jpg,FN,3,num_2,16,num_2,1.5331010106,,,2018_Jan_12_1141,60.0050424458,FEMA4ImagesEEG,001,102716,
AFNE01.JPG,AFNE01.JPG,AFNE01.JPG,AFNE01.JPG,AFNE01.JPG,AFNE01.JPG,4,7,47,7,,,,,,,,,,,,,,,,,,,,,,,AFSA01.jpg,AFSA17.jpg,AFNE15.jpg,AFNE05.jpg,AFNE15.jpg,FN,3,num_2,32,num_8,2.1499706523,,,2018_Jan_12_1141,60.0050424458,FEMA4ImagesEEG,001,102716,
AFNE01.JPG,AFNE01.JPG,AFNE01.JPG,AFNE01.JPG,AFNE01.JPG,AFNE01.JPG,4,8,48,0,,,,,,,,,,,,,,,,,,,,,,,AFSA19.jpg,AFSA08.jpg,AFNE19.jpg,AFNE14.jpg,AFNE14.jpg,FN,3,num_4,16,num_4,1.05013005994,,,2018_Jan_12_1141,60.0050424458,FEMA4ImagesEEG,001,102716,
AFNE01.JPG,AFNE01.JPG,AFNE01.JPG,AFNE01.JPG,AFNE01.JPG,AFNE01.JPG,4,9,49,6,,,,,,,,,,,,,,,,,,,,,,,AFSA01.jpg,AFNE10.jpg,AFSA16.jpg,AFNE12.jpg,AFSA01.jpg,FS,4,num_8,32,num_2,1.65005757287,,,2018_Jan_12_1141,60.0050424458,FEMA4ImagesEEG,001,102716,
AFNE01.JPG,AFNE01.JPG,AFNE01.JPG,AFNE01.JPG,AFNE01.JPG,AFNE01.JPG,5,0,50,2,,,,,,,,,,,,,,,,,,,,,,,AFSA12.jpg,AFNE13.jpg,AFSA16.jpg,AFNE09.jpg,AFNE09.jpg,FN,3,num_4,16,num_4,1.15009606164,,,2018_Jan_12_1141,60.0050424458,FEMA4ImagesEEG,001,102716,
AFNE01.JPG,AFNE01.JPG,AFNE01.JPG,AFNE01.JPG,AFNE01.JPG,AFNE01.JPG,5,1,51,5,,,,,,,,,,,,,,,,,,,,,,,AFNE07.jpg,AFSA09.jpg,AFNE01.jpg,AFSA05.jpg,AFNE07.jpg,FN,3,num_8,16,num_8,1.16673188377,,,2018_Jan_12_1141,60.0050424458,FEMA4ImagesEEG,001,102716,
AFNE01.JPG,AFNE01.JPG,AFNE01.JPG,AFNE01.JPG,AFNE01.JPG,AFNE01.JPG,5,2,52,0,,,,,,,,,,,,,,,,,,,,,,,AFNE18.jpg,AFNE16.jpg,AFSA19.jpg,AFSA01.jpg,AFSA01.jpg,FS,4,num_4,32,num_6,1.16680276743,,,2018_Jan_12_1141,60.0050424458,FEMA4ImagesEEG,001,102716,
AFNE01.JPG,AFNE01.JPG,AFNE01.JPG,AFNE01.JPG,AFNE01.JPG,AFNE01.JPG,5,3,53,4,,,,,,,,,,,,,,,,,,,,,,,AFNE16.jpg,AFSA04.jpg,AFNE14.jpg,AFSA08.jpg,AFSA04.jpg,FS,4,num_6,32,num_4,1.26675593923,,,2018_Jan_12_1141,60.0050424458,FEMA4ImagesEEG,001,102716,
AFNE01.JPG,AFNE01.JPG,AFNE01.JPG,AFNE01.JPG,AFNE01.JPG,AFNE01.JPG,5,4,54,9,,,,,,,,,,,,,,,,,,,,,,,AFSA12.jpg,AFSA03.jpg,AFNE06.jpg,AFNE15.jpg,AFNE06.jpg,FN,3,num_2,32,num_6,1.50009333529,,,2018_Jan_12_1141,60.0050424458,FEMA4ImagesEEG,001,102716,
AFNE01.JPG,AFNE01.JPG,AFNE01.JPG,AFNE01.JPG,AFNE01.JPG,AFNE01.JPG,5,5,55,3,,,,,,,,,,,,,,,,,,,,,,,AFNE06.jpg,AFNE14.jpg,AFSA05.jpg,AFSA02.jpg,AFNE14.jpg,FN,3,num_6,16,num_6,1.41679843725,,,2018_Jan_12_1141,60.0050424458,FEMA4ImagesEEG,001,102716,
AFNE01.JPG,AFNE01.JPG,AFNE01.JPG,AFNE01.JPG,AFNE01.JPG,AFNE01.JPG,5,6,56,7,,,,,,,,,,,,,,,,,,,,,,,AFSA05.jpg,AFSA04.jpg,AFNE07.jpg,AFNE04.jpg,AFSA05.jpg,FS,4,num_8,32,num_2,1.31672787457,,,2018_Jan_12_1141,60.0050424458,FEMA4ImagesEEG,001,102716,
AFNE01.JPG,AFNE01.JPG,AFNE01.JPG,AFNE01.JPG,AFNE01.JPG,AFNE01.JPG,5,7,57,8,,,,,,,,,,,,,,,,,,,,,,,AFNE02.jpg,AFNE18.jpg,AFSA04.jpg,AFSA07.jpg,AFSA04.jpg,FS,4,num_2,32,num_8,2.8666953193,,,2018_Jan_12_1141,60.0050424458,FEMA4ImagesEEG,001,102716,
AFNE01.JPG,AFNE01.JPG,AFNE01.JPG,AFNE01.JPG,AFNE01.JPG,AFNE01.JPG,5,8,58,6,,,,,,,,,,,,,,,,,,,,,,,AFSA12.jpg,AFNE15.jpg,AFNE17.jpg,AFSA14.jpg,AFNE17.jpg,FN,3,num_2,32,num_4,2.33339577075,,,2018_Jan_12_1141,60.0050424458,FEMA4ImagesEEG,001,102716,
AFNE01.JPG,AFNE01.JPG,AFNE01.JPG,AFNE01.JPG,AFNE01.JPG,AFNE01.JPG,5,9,59,1,,,,,,,,,,,,,,,,,,,,,,,AFNE02.jpg,AFSA05.jpg,AFNE11.jpg,AFSA20.jpg,AFNE11.jpg,FN,3,num_2,32,num_8,1.23354266956,,,2018_Jan_12_1141,60.0050424458,FEMA4ImagesEEG,001,102716,
,,,,,,,,,,,,,,,,,,,,,,,,,,,,,,,,,,,,,,,,,,,space,10.9992850705,2018_Jan_12_1141,60.0050424458,FEMA4ImagesEEG,001,102716,
AFNE01.JPG,AFNE01.JPG,AFNE01.JPG,AFNE01.JPG,AFNE01.JPG,AFNE01.JPG,,,,,0,0,0,2,,,,,,,,,,,,,,,,,,,AMSA09.jpg,AMNE11.jpg,AMSA15.jpg,AMNE09.jpg,AMSA09.jpg,MS,2,num_8,16,num_8,0.633449334186,,,2018_Jan_12_1141,60.0050424458,FEMA4ImagesEEG,001,102716,
AFNE01.JPG,AFNE01.JPG,AFNE01.JPG,AFNE01.JPG,AFNE01.JPG,AFNE01.JPG,,,,,0,1,1,1,,,,,,,,,,,,,,,,,,,AMSA19.jpg,AMNE03.jpg,AMNE11.jpg,AMSA20.jpg,AMSA20.jpg,MS,2,num_4,32,num_2,1.8500694402,,,2018_Jan_12_1141,60.0050424458,FEMA4ImagesEEG,001,102716,
AFNE01.JPG,AFNE01.JPG,AFNE01.JPG,AFNE01.JPG,AFNE01.JPG,AFNE01.JPG,,,,,0,2,2,6,,,,,,,,,,,,,,,,,,,AMNE10.jpg,AMSA09.jpg,AMNE13.jpg,AMSA16.jpg,AMNE13.jpg,MN,1,num_2,32,num_8,0.933457031846,,,2018_Jan_12_1141,60.0050424458,FEMA4ImagesEEG,001,102716,
AFNE01.JPG,AFNE01.JPG,AFNE01.JPG,AFNE01.JPG,AFNE01.JPG,AFNE01.JPG,,,,,0,3,3,0,,,,,,,,,,,,,,,,,,,AMSA01.jpg,AMNE16.jpg,AMSA07.jpg,AMNE17.jpg,AMSA07.jpg,MS,2,num_2,32,num_6,1.2500861187,,,2018_Jan_12_1141,60.0050424458,FEMA4ImagesEEG,001,102716,
AFNE01.JPG,AFNE01.JPG,AFNE01.JPG,AFNE01.JPG,AFNE01.JPG,AFNE01.JPG,,,,,0,4,4,9,,,,,,,,,,,,,,,,,,,AMSA03.jpg,AMSA10.jpg,AMNE16.jpg,AMNE07.jpg,AMNE07.jpg,MN,1,num_4,32,num_2,1.1996789393,,,2018_Jan_12_1141,60.0050424458,FEMA4ImagesEEG,001,102716,
AFNE01.JPG,AFNE01.JPG,AFNE01.JPG,AFNE01.JPG,AFNE01.JPG,AFNE01.JPG,,,,,0,5,5,4,,,,,,,,,,,,,,,,,,,AMNE10.jpg,AMSA03.jpg,AMNE17.jpg,AMSA04.jpg,AMNE17.jpg,MN,1,num_2,32,num_8,0.933425920317,,,2018_Jan_12_1141,60.0050424458,FEMA4ImagesEEG,001,102716,
AFNE01.JPG,AFNE01.JPG,AFNE01.JPG,AFNE01.JPG,AFNE01.JPG,AFNE01.JPG,,,,,0,6,6,7,,,,,,,,,,,,,,,,,,,AMNE04.jpg,AMNE18.jpg,AMSA12.jpg,AMSA06.jpg,AMNE04.jpg,MN,1,num_8,32,num_6,0.966764919925,,,2018_Jan_12_1141,60.0050424458,FEMA4ImagesEEG,001,102716,
AFNE01.JPG,AFNE01.JPG,AFNE01.JPG,AFNE01.JPG,AFNE01.JPG,AFNE01.JPG,,,,,0,7,7,5,,,,,,,,,,,,,,,,,,,AMSA01.jpg,AMNE17.jpg,AMNE19.jpg,AMSA14.jpg,AMNE19.jpg,MN,1,num_2,32,num_6,1.11672947835,,,2018_Jan_12_1141,60.0050424458,FEMA4ImagesEEG,001,102716,
AFNE01.JPG,AFNE01.JPG,AFNE01.JPG,AFNE01.JPG,AFNE01.JPG,AFNE01.JPG,,,,,0,8,8,3,,,,,,,,,,,,,,,,,,,AMNE20.jpg,AMNE07.jpg,AMSA06.jpg,AMSA04.jpg,AMNE07.jpg,MN,1,num_6,32,num_8,0.950134871062,,,2018_Jan_12_1141,60.0050424458,FEMA4ImagesEEG,001,102716,
AFNE01.JPG,AFNE01.JPG,AFNE01.JPG,AFNE01.JPG,AFNE01.JPG,AFNE01.JPG,,,,,0,9,9,8,,,,,,,,,,,,,,,,,,,AMNE14.jpg,AMSA19.jpg,AMSA04.jpg,AMNE06.jpg,AMNE06.jpg,MN,1,num_4,16,num_4,0.916801965563,,,2018_Jan_12_1141,60.0050424458,FEMA4ImagesEEG,001,102716,
AFNE01.JPG,AFNE01.JPG,AFNE01.JPG,AFNE01.JPG,AFNE01.JPG,AFNE01.JPG,,,,,1,0,10,2,,,,,,,,,,,,,,,,,,,AMSA06.jpg,AMNE16.jpg,AMNE03.jpg,AMSA15.jpg,AMNE03.jpg,MN,1,num_2,32,num_6,1.23344195727,,,2018_Jan_12_1141,60.0050424458,FEMA4ImagesEEG,001,102716,
AFNE01.JPG,AFNE01.JPG,AFNE01.JPG,AFNE01.JPG,AFNE01.JPG,AFNE01.JPG,,,,,1,1,11,0,,,,,,,,,,,,,,,,,,,AMNE11.jpg,AMSA09.jpg,AMSA19.jpg,AMNE02.jpg,AMSA19.jpg,MS,2,num_2,16,num_2,1.31676219357,,,2018_Jan_12_1141,60.0050424458,FEMA4ImagesEEG,001,102716,
AFNE01.JPG,AFNE01.JPG,AFNE01.JPG,AFNE01.JPG,AFNE01.JPG,AFNE01.JPG,,,,,1,2,12,8,,,,,,,,,,,,,,,,,,,AMNE19.jpg,AMNE14.jpg,AMSA02.jpg,AMSA17.jpg,AMNE14.jpg,MN,1,num_6,32,num_8,0.983451098436,,,2018_Jan_12_1141,60.0050424458,FEMA4ImagesEEG,001,102716,
AFNE01.JPG,AFNE01.JPG,AFNE01.JPG,AFNE01.JPG,AFNE01.JPG,AFNE01.JPG,,,,,1,3,13,1,,,,,,,,,,,,,,,,,,,AMNE10.jpg,AMSA20.jpg,AMSA15.jpg,AMNE17.jpg,AMSA20.jpg,MS,2,num_6,16,num_6,1.1667360533,,,2018_Jan_12_1141,60.0050424458,FEMA4ImagesEEG,001,102716,
AFNE01.JPG,AFNE01.JPG,AFNE01.JPG,AFNE01.JPG,AFNE01.JPG,AFNE01.JPG,,,,,1,4,14,9,,,,,,,,,,,,,,,,,,,AMNE02.jpg,AMNE07.jpg,AMSA08.jpg,AMSA16.jpg,AMSA16.jpg,MS,2,num_4,16,num_4,0.616798758041,,,2018_Jan_12_1141,60.0050424458,FEMA4ImagesEEG,001,102716,
AFNE01.JPG,AFNE01.JPG,AFNE01.JPG,AFNE01.JPG,AFNE01.JPG,AFNE01.JPG,,,,,1,5,15,7,,,,,,,,,,,,,,,,,,,AMNE08.jpg,AMNE03.jpg,AMSA09.jpg,AMSA04.jpg,AMSA09.jpg,MS,2,num_2,32,num_8,1.33311544405,,,2018_Jan_12_1141,60.0050424458,FEMA4ImagesEEG,001,102716,
AFNE01.JPG,AFNE01.JPG,AFNE01.JPG,AFNE01.JPG,AFNE01.JPG,AFNE01.JPG,,,,,1,6,16,5,,,,,,,,,,,,,,,,,,,AMSA05.jpg,AMNE10.jpg,AMSA06.jpg,AMNE03.jpg,AMNE03.jpg,MN,1,num_4,32,num_2,1.33345125872,,,2018_Jan_12_1141,60.0050424458,FEMA4ImagesEEG,001,102716,
AFNE01.JPG,AFNE01.JPG,AFNE01.JPG,AFNE01.JPG,AFNE01.JPG,AFNE01.JPG,,,,,1,7,17,4,,,,,,,,,,,,,,,,,,,AMNE04.jpg,AMNE08.jpg,AMSA20.jpg,AMSA17.jpg,AMSA20.jpg,MS,2,num_2,16,num_2,1.43342207139,,,2018_Jan_12_1141,60.0050424458,FEMA4ImagesEEG,001,102716,
AFNE01.JPG,AFNE01.JPG,AFNE01.JPG,AFNE01.JPG,AFNE01.JPG,AFNE01.JPG,,,,,1,8,18,3,,,,,,,,,,,,,,,,,,,AMNE02.jpg,AMNE14.jpg,AMSA10.jpg,AMSA20.jpg,AMSA20.jpg,MS,2,num_4,32,num_2,1.35039499146,,,2018_Jan_12_1141,60.0050424458,FEMA4ImagesEEG,001,102716,
AFNE01.JPG,AFNE01.JPG,AFNE01.JPG,AFNE01.JPG,AFNE01.JPG,AFNE01.JPG,,,,,1,9,19,6,,,,,,,,,,,,,,,,,,,AMNE10.jpg,AMNE08.jpg,AMSA13.jpg,AMSA05.jpg,AMSA05.jpg,MS,2,num_4,32,num_8,1.38345526787,,,2018_Jan_12_1141,60.0050424458,FEMA4ImagesEEG,001,102716,
AFNE01.JPG,AFNE01.JPG,AFNE01.JPG,AFNE01.JPG,AFNE01.JPG,AFNE01.JPG,,,,,2,0,20,3,,,,,,,,,,,,,,,,,,,AMNE20.jpg,AMSA18.jpg,AMSA14.jpg,AMNE01.jpg,AMSA14.jpg,MS,2,num_2,32,num_4,1.61672979896,,,2018_Jan_12_1141,60.0050424458,FEMA4ImagesEEG,001,102716,
AFNE01.JPG,AFNE01.JPG,AFNE01.JPG,AFNE01.JPG,AFNE01.JPG,AFNE01.JPG,,,,,2,1,21,1,,,,,,,,,,,,,,,,,,,AMNE12.jpg,AMNE18.jpg,AMSA17.jpg,AMSA10.jpg,AMNE18.jpg,MN,1,num_6,16,num_6,0.81661978527,,,2018_Jan_12_1141,60.0050424458,FEMA4ImagesEEG,001,102716,
AFNE01.JPG,AFNE01.JPG,AFNE01.JPG,AFNE01.JPG,AFNE01.JPG,AFNE01.JPG,,,,,2,2,22,0,,,,,,,,,,,,,,,,,,,AMNE02.jpg,AMSA11.jpg,AMSA12.jpg,AMNE20.jpg,AMSA12.jpg,MS,2,num_2,32,num_8,0.950144814095,,,2018_Jan_12_1141,60.0050424458,FEMA4ImagesEEG,001,102716,
AFNE01.JPG,AFNE01.JPG,AFNE01.JPG,AFNE01.JPG,AFNE01.JPG,AFNE01.JPG,,,,,2,3,23,4,,,,,,,,,,,,,,,,,,,AMSA13.jpg,AMNE18.jpg,AMSA11.jpg,AMNE08.jpg,AMNE08.jpg,MN,1,num_4,32,num_6,0.800092373043,,,2018_Jan_12_1141,60.0050424458,FEMA4ImagesEEG,001,102716,
AFNE01.JPG,AFNE01.JPG,AFNE01.JPG,AFNE01.JPG,AFNE01.JPG,AFNE01.JPG,,,,,2,4,24,9,,,,,,,,,,,,,,,,,,,AMNE17.jpg,AMSA11.jpg,AMNE10.jpg,AMSA17.jpg,AMSA11.jpg,MS,2,num_6,32,num_8,1.00015459675,,,2018_Jan_12_1141,60.0050424458,FEMA4ImagesEEG,001,102716,
AFNE01.JPG,AFNE01.JPG,AFNE01.JPG,AFNE01.JPG,AFNE01.JPG,AFNE01.JPG,,,,,2,5,25,7,,,,,,,,,,,,,,,,,,,AMSA03.jpg,AMSA08.jpg,AMNE19.jpg,AMNE06.jpg,AMNE19.jpg,MN,1,num_2,32,num_8,0.816773098893,,,2018_Jan_12_1141,60.0050424458,FEMA4ImagesEEG,001,102716,
AFNE01.JPG,AFNE01.JPG,AFNE01.JPG,AFNE01.JPG,AFNE01.JPG,AFNE01.JPG,,,,,2,6,26,6,,,,,,,,,,,,,,,,,,,AMSA05.jpg,AMSA20.jpg,AMNE14.jpg,AMNE19.jpg,AMSA05.jpg,MS,2,num_8,32,num_6,0.933439712273,,,2018_Jan_12_1141,60.0050424458,FEMA4ImagesEEG,001,102716,
AFNE01.JPG,AFNE01.JPG,AFNE01.JPG,AFNE01.JPG,AFNE01.JPG,AFNE01.JPG,,,,,2,7,27,2,,,,,,,,,,,,,,,,,,,AMNE16.jpg,AMSA13.jpg,AMNE09.jpg,AMSA08.jpg,AMNE16.jpg,MN,1,num_8,16,num_8,1.01675994857,,,2018_Jan_12_1141,60.0050424458,FEMA4ImagesEEG,001,102716,
AFNE01.JPG,AFNE01.JPG,AFNE01.JPG,AFNE01.JPG,AFNE01.JPG,AFNE01.JPG,,,,,2,8,28,5,,,,,,,,,,,,,,,,,,,AMNE12.jpg,AMNE11.jpg,AMSA09.jpg,AMSA19.jpg,AMNE11.jpg,MN,1,num_6,32,num_8,0.883470663568,,,2018_Jan_12_1141,60.0050424458,FEMA4ImagesEEG,001,102716,
AFNE01.JPG,AFNE01.JPG,AFNE01.JPG,AFNE01.JPG,AFNE01.JPG,AFNE01.JPG,,,,,2,9,29,8,,,,,,,,,,,,,,,,,,,AMSA02.jpg,AMSA13.jpg,AMNE19.jpg,AMNE02.jpg,AMNE19.jpg,MN,1,num_2,16,num_2,1.33343842905,,,2018_Jan_12_1141,60.0050424458,FEMA4ImagesEEG,001,102716,
AFNE01.JPG,AFNE01.JPG,AFNE01.JPG,AFNE01.JPG,AFNE01.JPG,AFNE01.JPG,,,,,3,0,30,9,,,,,,,,,,,,,,,,,,,AMSA11.jpg,AMSA08.jpg,AMNE13.jpg,AMNE06.jpg,AMSA11.jpg,MS,2,num_8,16,num_8,1.11676123133,,,2018_Jan_12_1141,60.0050424458,FEMA4ImagesEEG,001,102716,
AFNE01.JPG,AFNE01.JPG,AFNE01.JPG,AFNE01.JPG,AFNE01.JPG,AFNE01.JPG,,,,,3,1,31,8,,,,,,,,,,,,,,,,,,,AMSA11.jpg,AMSA13.jpg,AMNE18.jpg,AMNE17.jpg,AMSA11.jpg,MS,2,num_8,32,num_2,1.05019132141,,,2018_Jan_12_1141,60.0050424458,FEMA4ImagesEEG,001,102716,
AFNE01.JPG,AFNE01.JPG,AFNE01.JPG,AFNE01.JPG,AFNE01.JPG,AFNE01.JPG,,,,,3,2,32,2,,,,,,,,,,,,,,,,,,,AMSA04.jpg,AMNE06.jpg,AMNE08.jpg,AMSA10.jpg,AMNE08.jpg,MN,1,num_2,32,num_4,0.883489587111,,,2018_Jan_12_1141,60.0050424458,FEMA4ImagesEEG,001,102716,
AFNE01.JPG,AFNE01.JPG,AFNE01.JPG,AFNE01.JPG,AFNE01.JPG,AFNE01.JPG,,,,,3,3,33,7,,,,,,,,,,,,,,,,,,,AMSA06.jpg,AMNE08.jpg,AMSA20.jpg,AMNE19.jpg,AMNE08.jpg,MN,1,num_6,16,num_6,0.433470824035,,,2018_Jan_12_1141,60.0050424458,FEMA4ImagesEEG,001,102716,
AFNE01.JPG,AFNE01.JPG,AFNE01.JPG,AFNE01.JPG,AFNE01.JPG,AFNE01.JPG,,,,,3,4,34,4,,,,,,,,,,,,,,,,,,,AMNE06.jpg,AMNE20.jpg,AMSA20.jpg,AMSA09.jpg,AMSA20.jpg,MS,2,num_2,32,num_4,1.01675866568,,,2018_Jan_12_1141,60.0050424458,FEMA4ImagesEEG,001,102716,
AFNE01.JPG,AFNE01.JPG,AFNE01.JPG,AFNE01.JPG,AFNE01.JPG,AFNE01.JPG,,,,,3,5,35,3,,,,,,,,,,,,,,,,,,,AMSA05.jpg,AMSA09.jpg,AMNE10.jpg,AMNE05.jpg,AMNE10.jpg,MN,1,num_2,16,num_2,0.833409562474,,,2018_Jan_12_1141,60.0050424458,FEMA4ImagesEEG,001,102716,
AFNE01.JPG,AFNE01.JPG,AFNE01.JPG,AFNE01.JPG,AFNE01.JPG,AFNE01.JPG,,,,,3,6,36,5,,,,,,,,,,,,,,,,,,,AMSA15.jpg,AMNE01.jpg,AMSA05.jpg,AMNE15.jpg,AMSA05.jpg,MS,2,num_2,32,num_4,0.950157322921,,,2018_Jan_12_1141,60.0050424458,FEMA4ImagesEEG,001,102716,
AFNE01.JPG,AFNE01.JPG,AFNE01.JPG,AFNE01.JPG,AFNE01.JPG,AFNE01.JPG,,,,,3,7,37,0,,,,,,,,,,,,,,,,,,,AMSA17.jpg,AMSA07.jpg,AMNE03.jpg,AMNE10.jpg,AMSA17.jpg,MS,2,num_8,16,num_8,0.900157803902,,,2018_Jan_12_1141,60.0050424458,FEMA4ImagesEEG,001,102716,
AFNE01.JPG,AFNE01.JPG,AFNE01.JPG,AFNE01.JPG,AFNE01.JPG,AFNE01.JPG,,,,,3,8,38,6,,,,,,,,,,,,,,,,,,,AMSA04.jpg,AMNE13.jpg,AMSA05.jpg,AMNE19.jpg,AMSA05.jpg,MS,2,num_2,32,num_4,1.18347675749,,,2018_Jan_12_1141,60.0050424458,FEMA4ImagesEEG,001,102716,
AFNE01.JPG,AFNE01.JPG,AFNE01.JPG,AFNE01.JPG,AFNE01.JPG,AFNE01.JPG,,,,,3,9,39,1,,,,,,,,,,,,,,,,,,,AMNE18.jpg,AMNE07.jpg,AMSA14.jpg,AMSA08.jpg,AMNE18.jpg,MN,1,num_8,16,num_8,0.966783202253,,,2018_Jan_12_1141,60.0050424458,FEMA4ImagesEEG,001,102716,
AFNE01.JPG,AFNE01.JPG,AFNE01.JPG,AFNE01.JPG,AFNE01.JPG,AFNE01.JPG,,,,,4,0,40,1,,,,,,,,,,,,,,,,,,,AMNE13.jpg,AMSA20.jpg,AMSA03.jpg,AMNE16.jpg,AMNE16.jpg,MN,1,num_4,32,num_6,0.833734472282,,,2018_Jan_12_1141,60.0050424458,FEMA4ImagesEEG,001,102716,
AFNE01.JPG,AFNE01.JPG,AFNE01.JPG,AFNE01.JPG,AFNE01.JPG,AFNE01.JPG,,,,,4,1,41,8,,,,,,,,,,,,,,,,,,,AMSA09.jpg,AMSA19.jpg,AMNE19.jpg,AMNE04.jpg,AMSA19.jpg,MS,2,num_6,32,num_8,0.816803569207,,,2018_Jan_12_1141,60.0050424458,FEMA4ImagesEEG,001,102716,
AFNE01.JPG,AFNE01.JPG,AFNE01.JPG,AFNE01.JPG,AFNE01.JPG,AFNE01.JPG,,,,,4,2,42,4,,,,,,,,,,,,,,,,,,,AMSA08.jpg,AMNE06.jpg,AMSA03.jpg,AMNE08.jpg,AMSA08.jpg,MS,2,num_8,32,num_4,1.01683885069,,,2018_Jan_12_1141,60.0050424458,FEMA4ImagesEEG,001,102716,
AFNE01.JPG,AFNE01.JPG,AFNE01.JPG,AFNE01.JPG,AFNE01.JPG,AFNE01.JPG,,,,,4,3,43,9,,,,,,,,,,,,,,,,,,,AMSA12.jpg,AMNE02.jpg,AMSA17.jpg,AMNE08.jpg,AMNE08.jpg,MN,1,num_4,32,num_8,0.683486700524,,,2018_Jan_12_1141,60.0050424458,FEMA4ImagesEEG,001,102716,
AFNE01.JPG,AFNE01.JPG,AFNE01.JPG,AFNE01.JPG,AFNE01.JPG,AFNE01.JPG,,,,,4,4,44,0,,,,,,,,,,,,,,,,,,,AMSA11.jpg,AMNE01.jpg,AMNE19.jpg,AMSA12.jpg,AMSA11.jpg,MS,2,num_8,16,num_8,0.71680100332,,,2018_Jan_12_1141,60.0050424458,FEMA4ImagesEEG,001,102716,
AFNE01.JPG,AFNE01.JPG,AFNE01.JPG,AFNE01.JPG,AFNE01.JPG,AFNE01.JPG,,,,,4,5,45,7,,,,,,,,,,,,,,,,,,,AMSA04.jpg,AMNE04.jpg,AMNE17.jpg,AMSA17.jpg,AMSA17.jpg,MS,2,num_4,16,num_4,1.11677887221,,,2018_Jan_12_1141,60.0050424458,FEMA4ImagesEEG,001,102716,
AFNE01.JPG,AFNE01.JPG,AFNE01.JPG,AFNE01.JPG,AFNE01.JPG,AFNE01.JPG,,,,,4,6,46,2,,,,,,,,,,,,,,,,,,,AMNE02.jpg,AMSA05.jpg,AMSA02.jpg,AMNE15.jpg,AMSA02.jpg,MS,2,num_2,32,num_8,0.700156200444,,,2018_Jan_12_1141,60.0050424458,FEMA4ImagesEEG,001,102716,
AFNE01.JPG,AFNE01.JPG,AFNE01.JPG,AFNE01.JPG,AFNE01.JPG,AFNE01.JPG,,,,,4,7,47,5,,,,,,,,,,,,,,,,,,,AMNE11.jpg,AMNE03.jpg,AMSA17.jpg,AMSA12.jpg,AMSA17.jpg,MS,2,num_2,32,num_8,0.850085477112,,,2018_Jan_12_1141,60.0050424458,FEMA4ImagesEEG,001,102716,
AFNE01.JPG,AFNE01.JPG,AFNE01.JPG,AFNE01.JPG,AFNE01.JPG,AFNE01.JPG,,,,,4,8,48,3,,,,,,,,,,,,,,,,,,,AMNE12.jpg,AMSA13.jpg,AMSA12.jpg,AMNE14.jpg,AMSA13.jpg,MS,2,num_6,16,num_6,1.01650945051,,,2018_Jan_12_1141,60.0050424458,FEMA4ImagesEEG,001,102716,
AFNE01.JPG,AFNE01.JPG,AFNE01.JPG,AFNE01.JPG,AFNE01.JPG,AFNE01.JPG,,,,,4,9,49,6,,,,,,,,,,,,,,,,,,,AMNE15.jpg,AMSA15.jpg,AMSA13.jpg,AMNE16.jpg,AMSA15.jpg,MS,2,num_6,32,num_8,0.783490549307,,,2018_Jan_12_1141,60.0050424458,FEMA4ImagesEEG,001,102716,
AFNE01.JPG,AFNE01.JPG,AFNE01.JPG,AFNE01.JPG,AFNE01.JPG,AFNE01.JPG,,,,,5,0,50,1,,,,,,,,,,,,,,,,,,,AMNE16.jpg,AMSA11.jpg,AMSA06.jpg,AMNE05.jpg,AMNE16.jpg,MN,1,num_8,32,num_4,0.833507067524,,,2018_Jan_12_1141,60.0050424458,FEMA4ImagesEEG,001,102716,
AFNE01.JPG,AFNE01.JPG,AFNE01.JPG,AFNE01.JPG,AFNE01.JPG,AFNE01.JPG,,,,,5,1,51,8,,,,,,,,,,,,,,,,,,,AMNE04.jpg,AMNE10.jpg,AMSA06.jpg,AMSA15.jpg,AMSA06.jpg,MS,2,num_2,32,num_6,0.916788815055,,,2018_Jan_12_1141,60.0050424458,FEMA4ImagesEEG,001,102716,
AFNE01.JPG,AFNE01.JPG,AFNE01.JPG,AFNE01.JPG,AFNE01.JPG,AFNE01.JPG,,,,,5,2,52,4,,,,,,,,,,,,,,,,,,,AMSA11.jpg,AMNE06.jpg,AMSA06.jpg,AMNE20.jpg,AMSA06.jpg,MS,2,num_2,32,num_6,1.68338630907,,,2018_Jan_12_1141,60.0050424458,FEMA4ImagesEEG,001,102716,
AFNE01.JPG,AFNE01.JPG,AFNE01.JPG,AFNE01.JPG,AFNE01.JPG,AFNE01.JPG,,,,,5,3,53,3,,,,,,,,,,,,,,,,,,,AMNE13.jpg,AMSA07.jpg,AMSA06.jpg,AMNE06.jpg,AMSA07.jpg,MS,2,num_6,32,num_8,1.7167217806,,,2018_Jan_12_1141,60.0050424458,FEMA4ImagesEEG,001,102716,
AFNE01.JPG,AFNE01.JPG,AFNE01.JPG,AFNE01.JPG,AFNE01.JPG,AFNE01.JPG,,,,,5,4,54,9,,,,,,,,,,,,,,,,,,,AMSA08.jpg,AMNE12.jpg,AMSA09.jpg,AMNE10.jpg,AMSA08.jpg,MS,2,num_8,32,num_6,0.916780475993,,,2018_Jan_12_1141,60.0050424458,FEMA4ImagesEEG,001,102716,
AFNE01.JPG,AFNE01.JPG,AFNE01.JPG,AFNE01.JPG,AFNE01.JPG,AFNE01.JPG,,,,,5,5,55,2,,,,,,,,,,,,,,,,,,,AMSA08.jpg,AMNE11.jpg,AMNE06.jpg,AMSA15.jpg,AMNE11.jpg,MN,1,num_6,32,num_8,0.750130380737,,,2018_Jan_12_1141,60.0050424458,FEMA4ImagesEEG,001,102716,
AFNE01.JPG,AFNE01.JPG,AFNE01.JPG,AFNE01.JPG,AFNE01.JPG,AFNE01.JPG,,,,,5,6,56,5,,,,,,,,,,,,,,,,,,,AMNE19.jpg,AMNE04.jpg,AMSA18.jpg,AMSA04.jpg,AMSA04.jpg,MS,2,num_4,32,num_6,1.18348221015,,,2018_Jan_12_1141,60.0050424458,FEMA4ImagesEEG,001,102716,
AFNE01.JPG,AFNE01.JPG,AFNE01.JPG,AFNE01.JPG,AFNE01.JPG,AFNE01.JPG,,,,,5,7,57,6,,,,,,,,,,,,,,,,,,,AMNE11.jpg,AMSA04.jpg,AMNE05.jpg,AMSA07.jpg,AMNE05.jpg,MN,1,num_2,32,num_8,1.3834648903,,,2018_Jan_12_1141,60.0050424458,FEMA4ImagesEEG,001,102716,
AFNE01.JPG,AFNE01.JPG,AFNE01.JPG,AFNE01.JPG,AFNE01.JPG,AFNE01.JPG,,,,,5,8,58,0,,,,,,,,,,,,,,,,,,,AMSA07.jpg,AMSA11.jpg,AMNE07.jpg,AMNE11.jpg,AMNE11.jpg,MN,1,num_4,32,num_2,1.00015716255,,,2018_Jan_12_1141,60.0050424458,FEMA4ImagesEEG,001,102716,
AFNE01.JPG,AFNE01.JPG,AFNE01.JPG,AFNE01.JPG,AFNE01.JPG,AFNE01.JPG,,,,,5,9,59,7,,,,,,,,,,,,,,,,,,,AMNE06.jpg,AMNE11.jpg,AMSA11.jpg,AMSA07.jpg,AMSA07.jpg,MS,2,num_4,32,num_6,0.950129418634,,,2018_Jan_12_1141,60.0050424458,FEMA4ImagesEEG,001,102716,
,,,,,,,,,,,,,,,,,,,,,,,,,,,,,,,,,,,,,,,,,,,space,9.88286254066,2018_Jan_12_1141,60.0050424458,FEMA4ImagesEEG,001,102716,
AFNE01.JPG,AFNE01.JPG,AFNE01.JPG,AFNE01.JPG,AFNE01.JPG,AFNE01.JPG,,,,,,,,,0,0,0,8,,,,,,,,,,,,,,,AFNE10.jpg,AFSA13.jpg,AFSA17.jpg,AFNE16.jpg,AFSA13.jpg,FS,4,num_6,16,num_6,0.916627803585,,,2018_Jan_12_1141,60.0050424458,FEMA4ImagesEEG,001,102716,
AFNE01.JPG,AFNE01.JPG,AFNE01.JPG,AFNE01.JPG,AFNE01.JPG,AFNE01.JPG,,,,,,,,,0,1,1,0,,,,,,,,,,,,,,,AFNE09.jpg,AFSA01.jpg,AFNE19.jpg,AFSA19.jpg,AFNE19.jpg,FN,3,num_2,32,num_8,1.31673493073,,,2018_Jan_12_1141,60.0050424458,FEMA4ImagesEEG,001,102716,
AFNE01.JPG,AFNE01.JPG,AFNE01.JPG,AFNE01.JPG,AFNE01.JPG,AFNE01.JPG,,,,,,,,,0,2,2,3,,,,,,,,,,,,,,,AFSA07.jpg,AFNE20.jpg,AFSA18.jpg,AFNE04.jpg,AFNE04.jpg,FN,3,num_4,16,num_4,0.816745836055,,,2018_Jan_12_1141,60.0050424458,FEMA4ImagesEEG,001,102716,
AFNE01.JPG,AFNE01.JPG,AFNE01.JPG,AFNE01.JPG,AFNE01.JPG,AFNE01.JPG,,,,,,,,,0,3,3,1,,,,,,,,,,,,,,,AFSA06.jpg,AFNE15.jpg,AFNE08.jpg,AFSA19.jpg,AFNE08.jpg,FN,3,num_2,32,num_8,0.783494398231,,,2018_Jan_12_1141,60.0050424458,FEMA4ImagesEEG,001,102716,
AFNE01.JPG,AFNE01.JPG,AFNE01.JPG,AFNE01.JPG,AFNE01.JPG,AFNE01.JPG,,,,,,,,,0,4,4,2,,,,,,,,,,,,,,,AFNE08.jpg,AFNE05.jpg,AFSA20.jpg,AFSA10.jpg,AFSA10.jpg,FS,4,num_4,32,num_6,1.1500944579,,,2018_Jan_12_1141,60.0050424458,FEMA4ImagesEEG,001,102716,
AFNE01.JPG,AFNE01.JPG,AFNE01.JPG,AFNE01.JPG,AFNE01.JPG,AFNE01.JPG,,,,,,,,,0,5,5,9,,,,,,,,,,,,,,,AFNE05.jpg,AFSA18.jpg,AFNE20.jpg,AFSA05.jpg,AFNE05.jpg,FN,3,num_8,32,num_2,1.15005757264,,,2018_Jan_12_1141,60.0050424458,FEMA4ImagesEEG,001,102716,
AFNE01.JPG,AFNE01.JPG,AFNE01.JPG,AFNE01.JPG,AFNE01.JPG,AFNE01.JPG,,,,,,,,,0,6,6,7,,,,,,,,,,,,,,,AFSA05.jpg,AFNE03.jpg,AFNE05.jpg,AFSA07.jpg,AFSA07.jpg,FS,4,num_4,32,num_8,1.05016245483,,,2018_Jan_12_1141,60.0050424458,FEMA4ImagesEEG,001,102716,
AFNE01.JPG,AFNE01.JPG,AFNE01.JPG,AFNE01.JPG,AFNE01.JPG,AFNE01.JPG,,,,,,,,,0,7,7,4,,,,,,,,,,,,,,,AFSA09.jpg,AFSA03.jpg,AFNE16.jpg,AFNE10.jpg,AFNE16.jpg,FN,3,num_2,32,num_4,0.600148502737,,,2018_Jan_12_1141,60.0050424458,FEMA4ImagesEEG,001,102716,
AFNE01.JPG,AFNE01.JPG,AFNE01.JPG,AFNE01.JPG,AFNE01.JPG,AFNE01.JPG,,,,,,,,,0,8,8,5,,,,,,,,,,,,,,,AFSA04.jpg,AFSA02.jpg,AFNE10.jpg,AFNE07.jpg,AFSA02.jpg,FS,4,num_6,32,num_8,0.850156681379,,,2018_Jan_12_1141,60.0050424458,FEMA4ImagesEEG,001,102716,
AFNE01.JPG,AFNE01.JPG,AFNE01.JPG,AFNE01.JPG,AFNE01.JPG,AFNE01.JPG,,,,,,,,,0,9,9,6,,,,,,,,,,,,,,,AFSA16.jpg,AFNE10.jpg,AFNE05.jpg,AFSA17.jpg,AFSA17.jpg,FS,4,num_4,32,num_8,0.766777749406,,,2018_Jan_12_1141,60.0050424458,FEMA4ImagesEEG,001,102716,
AFNE01.JPG,AFNE01.JPG,AFNE01.JPG,AFNE01.JPG,AFNE01.JPG,AFNE01.JPG,,,,,,,,,1,0,10,9,,,,,,,,,,,,,,,AFSA10.jpg,AFNE08.jpg,AFNE17.jpg,AFSA06.jpg,AFSA06.jpg,FS,4,num_4,32,num_2,1.28345590946,,,2018_Jan_12_1141,60.0050424458,FEMA4ImagesEEG,001,102716,
AFNE01.JPG,AFNE01.JPG,AFNE01.JPG,AFNE01.JPG,AFNE01.JPG,AFNE01.JPG,,,,,,,,,1,1,11,5,,,,,,,,,,,,,,,AFNE09.jpg,AFSA15.jpg,AFNE11.jpg,AFSA04.jpg,AFNE11.jpg,FN,3,num_2,16,num_2,1.51668746118,,,2018_Jan_12_1141,60.0050424458,FEMA4ImagesEEG,001,102716,
AFNE01.JPG,AFNE01.JPG,AFNE01.JPG,AFNE01.JPG,AFNE01.JPG,AFNE01.JPG,,,,,,,,,1,2,12,4,,,,,,,,,,,,,,,AFNE06.jpg,AFSA09.jpg,AFNE01.jpg,AFSA12.jpg,AFSA09.jpg,FS,4,num_6,32,num_8,1.28343666508,,,2018_Jan_12_1141,60.0050424458,FEMA4ImagesEEG,001,102716,
AFNE01.JPG,AFNE01.JPG,AFNE01.JPG,AFNE01.JPG,AFNE01.JPG,AFNE01.JPG,,,,,,,,,1,3,13,8,,,,,,,,,,,,,,,AFSA07.jpg,AFSA19.jpg,AFNE10.jpg,AFNE05.jpg,AFSA07.jpg,FS,4,num_8,16,num_8,1.0167737403,,,2018_Jan_12_1141,60.0050424458,FEMA4ImagesEEG,001,102716,
AFNE01.JPG,AFNE01.JPG,AFNE01.JPG,AFNE01.JPG,AFNE01.JPG,AFNE01.JPG,,,,,,,,,1,4,14,7,,,,,,,,,,,,,,,AFNE18.jpg,AFSA10.jpg,AFSA11.jpg,AFNE05.jpg,AFNE18.jpg,FN,3,num_8,16,num_8,0.866886480479,,,2018_Jan_12_1141,60.0050424458,FEMA4ImagesEEG,001,102716,
AFNE01.JPG,AFNE01.JPG,AFNE01.JPG,AFNE01.JPG,AFNE01.JPG,AFNE01.JPG,,,,,,,,,1,5,15,0,,,,,,,,,,,,,,,AFSA02.jpg,AFNE13.jpg,AFSA01.jpg,AFNE19.jpg,AFNE19.jpg,FN,3,num_4,32,num_8,0.600132144988,,,2018_Jan_12_1141,60.0050424458,FEMA4ImagesEEG,001,102716,
AFNE01.JPG,AFNE01.JPG,AFNE01.JPG,AFNE01.JPG,AFNE01.JPG,AFNE01.JPG,,,,,,,,,1,6,16,2,,,,,,,,,,,,,,,AFNE02.jpg,AFSA02.jpg,AFNE10.jpg,AFSA09.jpg,AFSA09.jpg,FS,4,num_4,32,num_8,1.20007633604,,,2018_Jan_12_1141,60.0050424458,FEMA4ImagesEEG,001,102716,
AFNE01.JPG,AFNE01.JPG,AFNE01.JPG,AFNE01.JPG,AFNE01.JPG,AFNE01.JPG,,,,,,,,,1,7,17,3,,,,,,,,,,,,,,,AFSA07.jpg,AFNE18.jpg,AFSA09.jpg,AFNE02.jpg,AFSA07.jpg,FS,4,num_8,16,num_8,0.833491030615,,,2018_Jan_12_1141,60.0050424458,FEMA4ImagesEEG,001,102716,
AFNE01.JPG,AFNE01.JPG,AFNE01.JPG,AFNE01.JPG,AFNE01.JPG,AFNE01.JPG,,,,,,,,,1,8,18,6,,,,,,,,,,,,,,,AFNE10.jpg,AFSA05.jpg,AFSA13.jpg,AFNE09.jpg,AFNE10.jpg,FN,3,num_8,16,num_8,0.683502737666,,,2018_Jan_12_1141,60.0050424458,FEMA4ImagesEEG,001,102716,
AFNE01.JPG,AFNE01.JPG,AFNE01.JPG,AFNE01.JPG,AFNE01.JPG,AFNE01.JPG,,,,,,,,,1,9,19,1,,,,,,,,,,,,,,,AFSA19.jpg,AFSA18.jpg,AFNE14.jpg,AFNE01.jpg,AFSA19.jpg,FS,4,num_8,32,num_6,0.866772617679,,,2018_Jan_12_1141,60.0050424458,FEMA4ImagesEEG,001,102716,
AFNE01.JPG,AFNE01.JPG,AFNE01.JPG,AFNE01.JPG,AFNE01.JPG,AFNE01.JPG,,,,,,,,,2,0,20,9,,,,,,,,,,,,,,,AFNE18.jpg,AFNE15.jpg,AFSA13.jpg,AFSA09.jpg,AFNE18.jpg,FN,3,num_8,16,num_8,1.00012893742,,,2018_Jan_12_1141,60.0050424458,FEMA4ImagesEEG,001,102716,
AFNE01.JPG,AFNE01.JPG,AFNE01.JPG,AFNE01.JPG,AFNE01.JPG,AFNE01.JPG,,,,,,,,,2,1,21,0,,,,,,,,,,,,,,,AFSA18.jpg,AFNE07.jpg,AFNE06.jpg,AFSA19.jpg,AFSA18.jpg,FS,4,num_8,32,num_4,1.216763156,,,2018_Jan_12_1141,60.0050424458,FEMA4ImagesEEG,001,102716,
AFNE01.JPG,AFNE01.JPG,AFNE01.JPG,AFNE01.JPG,AFNE01.JPG,AFNE01.JPG,,,,,,,,,2,2,22,2,,,,,,,,,,,,,,,AFSA13.jpg,AFSA06.jpg,AFNE20.jpg,AFNE02.jpg,AFSA13.jpg,FS,4,num_8,32,num_6,1.36697308044,,,2018_Jan_12_1141,60.0050424458,FEMA4ImagesEEG,001,102716,
AFNE01.JPG,AFNE01.JPG,AFNE01.JPG,AFNE01.JPG,AFNE01.JPG,AFNE01.JPG,,,,,,,,,2,3,23,5,,,,,,,,,,,,,,,AFSA05.jpg,AFSA16.jpg,AFNE15.jpg,AFNE05.jpg,AFSA16.jpg,FS,4,num_6,32,num_8,0.600232857279,,,2018_Jan_12_1141,60.0050424458,FEMA4ImagesEEG,001,102716,
AFNE01.JPG,AFNE01.JPG,AFNE01.JPG,AFNE01.JPG,AFNE01.JPG,AFNE01.JPG,,,,,,,,,2,4,24,7,,,,,,,,,,,,,,,AFSA06.jpg,AFSA15.jpg,AFNE02.jpg,AFNE10.jpg,AFNE10.jpg,FN,3,num_4,32,num_6,1.31674743979,,,2018_Jan_12_1141,60.0050424458,FEMA4ImagesEEG,001,102716,
AFNE01.JPG,AFNE01.JPG,AFNE01.JPG,AFNE01.JPG,AFNE01.JPG,AFNE01.JPG,,,,,,,,,2,5,25,1,,,,,,,,,,,,,,,AFSA11.jpg,AFNE11.jpg,AFSA20.jpg,AFNE07.jpg,AFNE11.jpg,FN,3,num_6,16,num_6,0.783486379776,,,2018_Jan_12_1141,60.0050424458,FEMA4ImagesEEG,001,102716,
AFNE01.JPG,AFNE01.JPG,AFNE01.JPG,AFNE01.JPG,AFNE01.JPG,AFNE01.JPG,,,,,,,,,2,6,26,4,,,,,,,,,,,,,,,AFNE15.jpg,AFNE05.jpg,AFSA02.jpg,AFSA13.jpg,AFSA02.jpg,FS,4,num_2,32,num_6,1.16676203324,,,2018_Jan_12_1141,60.0050424458,FEMA4ImagesEEG,001,102716,
AFNE01.JPG,AFNE01.JPG,AFNE01.JPG,AFNE01.JPG,AFNE01.JPG,AFNE01.JPG,,,,,,,,,2,7,27,8,,,,,,,,,,,,,,,AFSA01.jpg,AFNE08.jpg,AFSA18.jpg,AFNE16.jpg,AFNE16.jpg,FN,3,num_4,16,num_4,0.466767485952,,,2018_Jan_12_1141,60.0050424458,FEMA4ImagesEEG,001,102716,
AFNE01.JPG,AFNE01.JPG,AFNE01.JPG,AFNE01.JPG,AFNE01.JPG,AFNE01.JPG,,,,,,,,,2,8,28,6,,,,,,,,,,,,,,,AFNE15.jpg,AFSA09.jpg,AFNE16.jpg,AFSA19.jpg,AFSA09.jpg,FS,4,num_6,32,num_8,0.916773098987,,,2018_Jan_12_1141,60.0050424458,FEMA4ImagesEEG,001,102716,
AFNE01.JPG,AFNE01.JPG,AFNE01.JPG,AFNE01.JPG,AFNE01.JPG,AFNE01.JPG,,,,,,,,,2,9,29,3,,,,,,,,,,,,,,,AFNE18.jpg,AFSA19.jpg,AFNE09.jpg,AFSA15.jpg,AFNE18.jpg,FN,3,num_8,32,num_2,2.58340555336,,,2018_Jan_12_1141,60.0050424458,FEMA4ImagesEEG,001,102716,
AFNE01.JPG,AFNE01.JPG,AFNE01.JPG,AFNE01.JPG,AFNE01.JPG,AFNE01.JPG,,,,,,,,,3,0,30,8,,,,,,,,,,,,,,,AFSA12.jpg,AFNE13.jpg,AFNE15.jpg,AFSA20.jpg,AFSA12.jpg,FS,4,num_8,16,num_8,0.716771495296,,,2018_Jan_12_1141,60.0050424458,FEMA4ImagesEEG,001,102716,
AFNE01.JPG,AFNE01.JPG,AFNE01.JPG,AFNE01.JPG,AFNE01.JPG,AFNE01.JPG,,,,,,,,,3,1,31,2,,,,,,,,,,,,,,,AFNE20.jpg,AFSA18.jpg,AFNE08.jpg,AFSA08.jpg,AFNE20.jpg,FN,3,num_8,16,num_8,1.05006494978,,,2018_Jan_12_1141,60.0050424458,FEMA4ImagesEEG,001,102716,
AFNE01.JPG,AFNE01.JPG,AFNE01.JPG,AFNE01.JPG,AFNE01.JPG,AFNE01.JPG,,,,,,,,,3,2,32,9,,,,,,,,,,,,,,,AFSA02.jpg,AFNE10.jpg,AFSA19.jpg,AFNE12.jpg,AFNE12.jpg,FN,3,num_4,16,num_4,0.950120758731,,,2018_Jan_12_1141,60.0050424458,FEMA4ImagesEEG,001,102716,
AFNE01.JPG,AFNE01.JPG,AFNE01.JPG,AFNE01.JPG,AFNE01.JPG,AFNE01.JPG,,,,,,,,,3,3,33,1,,,,,,,,,,,,,,,AFSA04.jpg,AFNE03.jpg,AFNE08.jpg,AFSA20.jpg,AFSA20.jpg,FS,4,num_4,32,num_8,0.900143050123,,,2018_Jan_12_1141,60.0050424458,FEMA4ImagesEEG,001,102716,
AFNE01.JPG,AFNE01.JPG,AFNE01.JPG,AFNE01.JPG,AFNE01.JPG,AFNE01.JPG,,,,,,,,,3,4,34,0,,,,,,,,,,,,,,,AFSA14.jpg,AFNE16.jpg,AFSA06.jpg,AFNE11.jpg,AFSA14.jpg,FS,4,num_8,16,num_8,1.40009205253,,,2018_Jan_12_1141,60.0050424458,FEMA4ImagesEEG,001,102716,
AFNE01.JPG,AFNE01.JPG,AFNE01.JPG,AFNE01.JPG,AFNE01.JPG,AFNE01.JPG,,,,,,,,,3,5,35,4,,,,,,,,,,,,,,,AFSA02.jpg,AFSA06.jpg,AFNE08.jpg,AFNE03.jpg,AFSA02.jpg,FS,4,num_8,32,num_2,1.66674054391,,,2018_Jan_12_1141,60.0050424458,FEMA4ImagesEEG,001,102716,
AFNE01.JPG,AFNE01.JPG,AFNE01.JPG,AFNE01.JPG,AFNE01.JPG,AFNE01.JPG,,,,,,,,,3,6,36,3,,,,,,,,,,,,,,,AFNE20.jpg,AFSA14.jpg,AFNE10.jpg,AFSA17.jpg,AFNE20.jpg,FN,3,num_8,32,num_2,1.13344740984,,,2018_Jan_12_1141,60.0050424458,FEMA4ImagesEEG,001,102716,
AFNE01.JPG,AFNE01.JPG,AFNE01.JPG,AFNE01.JPG,AFNE01.JPG,AFNE01.JPG,,,,,,,,,3,7,37,6,,,,,,,,,,,,,,,AFSA17.jpg,AFNE04.jpg,AFNE19.jpg,AFSA01.jpg,AFNE19.jpg,FN,3,num_2,16,num_2,1.13341629808,,,2018_Jan_12_1141,60.0050424458,FEMA4ImagesEEG,001,102716,
AFNE01.JPG,AFNE01.JPG,AFNE01.JPG,AFNE01.JPG,AFNE01.JPG,AFNE01.JPG,,,,,,,,,3,8,38,5,,,,,,,,,,,,,,,AFNE13.jpg,AFNE04.jpg,AFSA14.jpg,AFSA19.jpg,AFSA19.jpg,FS,4,num_4,32,num_8,1.2167233841,,,2018_Jan_12_1141,60.0050424458,FEMA4ImagesEEG,001,102716,
AFNE01.JPG,AFNE01.JPG,AFNE01.JPG,AFNE01.JPG,AFNE01.JPG,AFNE01.JPG,,,,,,,,,3,9,39,7,,,,,,,,,,,,,,,AFNE15.jpg,AFNE16.jpg,AFSA03.jpg,AFSA06.jpg,AFNE16.jpg,FN,3,num_6,32,num_8,1.23345991876,,,2018_Jan_12_1141,60.0050424458,FEMA4ImagesEEG,001,102716,
AFNE01.JPG,AFNE01.JPG,AFNE01.JPG,AFNE01.JPG,AFNE01.JPG,AFNE01.JPG,,,,,,,,,4,0,40,0,,,,,,,,,,,,,,,AFSA16.jpg,AFNE10.jpg,AFSA17.jpg,AFNE01.jpg,AFSA16.jpg,FS,4,num_8,16,num_8,0.650211848784,,,2018_Jan_12_1141,60.0050424458,FEMA4ImagesEEG,001,102716,
AFNE01.JPG,AFNE01.JPG,AFNE01.JPG,AFNE01.JPG,AFNE01.JPG,AFNE01.JPG,,,,,,,,,4,1,41,2,,,,,,,,,,,,,,,AFNE12.jpg,AFSA05.jpg,AFNE01.jpg,AFSA17.jpg,AFNE01.jpg,FN,3,num_2,32,num_8,0.950138399377,,,2018_Jan_12_1141,60.0050424458,FEMA4ImagesEEG,001,102716,
AFNE01.JPG,AFNE01.JPG,AFNE01.JPG,AFNE01.JPG,AFNE01.JPG,AFNE01.JPG,,,,,,,,,4,2,42,4,,,,,,,,,,,,,,,AFNE08.jpg,AFNE20.jpg,AFSA06.jpg,AFSA10.jpg,AFSA06.jpg,FS,4,num_2,32,num_8,1.18342062808,,,2018_Jan_12_1141,60.0050424458,FEMA4ImagesEEG,001,102716,
AFNE01.JPG,AFNE01.JPG,AFNE01.JPG,AFNE01.JPG,AFNE01.JPG,AFNE01.JPG,,,,,,,,,4,3,43,5,,,,,,,,,,,,,,,AFNE08.jpg,AFSA09.jpg,AFNE19.jpg,AFSA15.jpg,AFNE08.jpg,FN,3,num_8,32,num_2,1.10014914395,,,2018_Jan_12_1141,60.0050424458,FEMA4ImagesEEG,001,102716,
AFNE01.JPG,AFNE01.JPG,AFNE01.JPG,AFNE01.JPG,AFNE01.JPG,AFNE01.JPG,,,,,,,,,4,4,44,1,,,,,,,,,,,,,,,AFSA15.jpg,AFNE08.jpg,AFSA10.jpg,AFNE13.jpg,AFSA15.jpg,FS,4,num_8,16,num_8,0.733534330269,,,2018_Jan_12_1141,60.0050424458,FEMA4ImagesEEG,001,102716,
AFNE01.JPG,AFNE01.JPG,AFNE01.JPG,AFNE01.JPG,AFNE01.JPG,AFNE01.JPG,,,,,,,,,4,5,45,7,,,,,,,,,,,,,,,AFSA18.jpg,AFSA03.jpg,AFNE11.jpg,AFNE06.jpg,AFNE06.jpg,FN,3,num_4,32,num_8,0.750126531813,,,2018_Jan_12_1141,60.0050424458,FEMA4ImagesEEG,001,102716,
AFNE01.JPG,AFNE01.JPG,AFNE01.JPG,AFNE01.JPG,AFNE01.JPG,AFNE01.JPG,,,,,,,,,4,6,46,9,,,,,,,,,,,,,,,AFSA06.jpg,AFSA09.jpg,AFNE19.jpg,AFNE07.jpg,AFSA06.jpg,FS,4,num_8,32,num_6,0.983481889358,,,2018_Jan_12_1141,60.0050424458,FEMA4ImagesEEG,001,102716,
AFNE01.JPG,AFNE01.JPG,AFNE01.JPG,AFNE01.JPG,AFNE01.JPG,AFNE01.JPG,,,,,,,,,4,7,47,6,,,,,,,,,,,,,,,AFNE04.jpg,AFSA06.jpg,AFNE10.jpg,AFSA12.jpg,AFSA06.jpg,FS,4,num_6,16,num_6,0.700138559798,,,2018_Jan_12_1141,60.0050424458,FEMA4ImagesEEG,001,102716,
AFNE01.JPG,AFNE01.JPG,AFNE01.JPG,AFNE01.JPG,AFNE01.JPG,AFNE01.JPG,,,,,,,,,4,8,48,3,,,,,,,,,,,,,,,AFSA14.jpg,AFSA20.jpg,AFNE09.jpg,AFNE04.jpg,AFSA20.jpg,FS,4,num_6,32,num_4,0.883490228793,,,2018_Jan_12_1141,60.0050424458,FEMA4ImagesEEG,001,102716,
AFNE01.JPG,AFNE01.JPG,AFNE01.JPG,AFNE01.JPG,AFNE01.JPG,AFNE01.JPG,,,,,,,,,4,9,49,8,,,,,,,,,,,,,,,AFSA03.jpg,AFNE17.jpg,AFNE16.jpg,AFSA04.jpg,AFSA03.jpg,FS,4,num_8,16,num_8,0.683473870857,,,2018_Jan_12_1141,60.0050424458,FEMA4ImagesEEG,001,102716,
AFNE01.JPG,AFNE01.JPG,AFNE01.JPG,AFNE01.JPG,AFNE01.JPG,AFNE01.JPG,,,,,,,,,5,0,50,1,,,,,,,,,,,,,,,AFSA16.jpg,AFSA12.jpg,AFNE10.jpg,AFNE01.jpg,AFSA16.jpg,FS,4,num_8,16,num_8,0.916779513704,,,2018_Jan_12_1141,60.0050424458,FEMA4ImagesEEG,001,102716,
AFNE01.JPG,AFNE01.JPG,AFNE01.JPG,AFNE01.JPG,AFNE01.JPG,AFNE01.JPG,,,,,,,,,5,1,51,3,,,,,,,,,,,,,,,AFSA15.jpg,AFNE18.jpg,AFSA05.jpg,AFNE14.jpg,AFSA05.jpg,FS,4,num_2,16,num_2,1.13342527859,,,2018_Jan_12_1141,60.0050424458,FEMA4ImagesEEG,001,102716,
AFNE01.JPG,AFNE01.JPG,AFNE01.JPG,AFNE01.JPG,AFNE01.JPG,AFNE01.JPG,,,,,,,,,5,2,52,4,,,,,,,,,,,,,,,AFNE19.jpg,AFNE02.jpg,AFSA14.jpg,AFSA03.jpg,AFNE02.jpg,FN,3,num_6,32,num_8,0.866757542826,,,2018_Jan_12_1141,60.0050424458,FEMA4ImagesEEG,001,102716,
AFNE01.JPG,AFNE01.JPG,AFNE01.JPG,AFNE01.JPG,AFNE01.JPG,AFNE01.JPG,,,,,,,,,5,3,53,6,,,,,,,,,,,,,,,AFNE16.jpg,AFSA08.jpg,AFNE02.jpg,AFSA01.jpg,AFSA08.jpg,FS,4,num_6,32,num_8,0.750113381771,,,2018_Jan_12_1141,60.0050424458,FEMA4ImagesEEG,001,102716,
AFNE01.JPG,AFNE01.JPG,AFNE01.JPG,AFNE01.JPG,AFNE01.JPG,AFNE01.JPG,,,,,,,,,5,4,54,2,,,,,,,,,,,,,,,AFNE20.jpg,AFSA17.jpg,AFSA19.jpg,AFNE18.jpg,AFSA19.jpg,FS,4,num_2,16,num_2,1.38349279459,,,2018_Jan_12_1141,60.0050424458,FEMA4ImagesEEG,001,102716,
AFNE01.JPG,AFNE01.JPG,AFNE01.JPG,AFNE01.JPG,AFNE01.JPG,AFNE01.JPG,,,,,,,,,5,5,55,9,,,,,,,,,,,,,,,AFSA02.jpg,AFSA13.jpg,AFNE11.jpg,AFNE15.jpg,AFNE11.jpg,FN,3,num_2,16,num_2,0.900166784646,,,2018_Jan_12_1141,60.0050424458,FEMA4ImagesEEG,001,102716,
AFNE01.JPG,AFNE01.JPG,AFNE01.JPG,AFNE01.JPG,AFNE01.JPG,AFNE01.JPG,,,,,,,,,5,6,56,5,,,,,,,,,,,,,,,AFNE10.jpg,AFSA14.jpg,AFNE11.jpg,AFSA05.jpg,AFNE10.jpg,FN,3,num_8,16,num_8,1.11677951366,,,2018_Jan_12_1141,60.0050424458,FEMA4ImagesEEG,001,102716,
AFNE01.JPG,AFNE01.JPG,AFNE01.JPG,AFNE01.JPG,AFNE01.JPG,AFNE01.JPG,,,,,,,,,5,7,57,7,,,,,,,,,,,,,,,AFSA12.jpg,AFNE13.jpg,AFSA14.jpg,AFNE17.jpg,AFNE17.jpg,FN,3,num_4,32,num_6,1.11675000563,,,2018_Jan_12_1141,60.0050424458,FEMA4ImagesEEG,001,102716,
AFNE01.JPG,AFNE01.JPG,AFNE01.JPG,AFNE01.JPG,AFNE01.JPG,AFNE01.JPG,,,,,,,,,5,8,58,0,,,,,,,,,,,,,,,AFSA08.jpg,AFSA09.jpg,AFNE05.jpg,AFNE17.jpg,AFSA09.jpg,FS,4,num_6,32,num_8,1.1667443926,,,2018_Jan_12_1141,60.0050424458,FEMA4ImagesEEG,001,102716,
AFNE01.JPG,AFNE01.JPG,AFNE01.JPG,AFNE01.JPG,AFNE01.JPG,AFNE01.JPG,,,,,,,,,5,9,59,8,,,,,,,,,,,,,,,AFSA16.jpg,AFNE01.jpg,AFNE12.jpg,AFSA17.jpg,AFSA17.jpg,FS,4,num_4,32,num_8,0.716871245299,,,2018_Jan_12_1141,60.0050424458,FEMA4ImagesEEG,001,102716,
,,,,,,,,,,,,,,,,,,,,,,,,,,,,,,,,,,,,,,,,,,,space,9.4326965576,2018_Jan_12_1141,60.0050424458,FEMA4ImagesEEG,001,102716,
AFNE01.JPG,AFNE01.JPG,AFNE01.JPG,AFNE01.JPG,AFNE01.JPG,AFNE01.JPG,,,,,,,,,,,,,0,0,0,9,,,,,,,,,,,AMSA10.jpg,AMNE19.jpg,AMSA18.jpg,AMNE01.jpg,AMSA10.jpg,MS,2,num_8,16,num_8,0.850126531906,,,2018_Jan_12_1141,60.0050424458,FEMA4ImagesEEG,001,102716,
AFNE01.JPG,AFNE01.JPG,AFNE01.JPG,AFNE01.JPG,AFNE01.JPG,AFNE01.JPG,,,,,,,,,,,,,0,1,1,4,,,,,,,,,,,AMNE18.jpg,AMSA16.jpg,AMNE09.jpg,AMSA09.jpg,AMSA09.jpg,MS,2,num_4,32,num_8,0.916766042588,,,2018_Jan_12_1141,60.0050424458,FEMA4ImagesEEG,001,102716,
AFNE01.JPG,AFNE01.JPG,AFNE01.JPG,AFNE01.JPG,AFNE01.JPG,AFNE01.JPG,,,,,,,,,,,,,0,2,2,8,,,,,,,,,,,AMNE19.jpg,AMSA08.jpg,AMSA13.jpg,AMNE13.jpg,AMNE13.jpg,MN,1,num_4,32,num_8,1.0334381084,,,2018_Jan_12_1141,60.0050424458,FEMA4ImagesEEG,001,102716,
AFNE01.JPG,AFNE01.JPG,AFNE01.JPG,AFNE01.JPG,AFNE01.JPG,AFNE01.JPG,,,,,,,,,,,,,0,3,3,2,,,,,,,,,,,AMNE12.jpg,AMSA10.jpg,AMNE15.jpg,AMSA17.jpg,AMNE12.jpg,MN,1,num_8,16,num_8,0.833516689716,,,2018_Jan_12_1141,60.0050424458,FEMA4ImagesEEG,001,102716,
AFNE01.JPG,AFNE01.JPG,AFNE01.JPG,AFNE01.JPG,AFNE01.JPG,AFNE01.JPG,,,,,,,,,,,,,0,4,4,5,,,,,,,,,,,AMNE04.jpg,AMSA13.jpg,AMNE01.jpg,AMSA10.jpg,AMNE04.jpg,MN,1,num_8,32,num_2,0.566824577516,,,2018_Jan_12_1141,60.0050424458,FEMA4ImagesEEG,001,102716,
AFNE01.JPG,AFNE01.JPG,AFNE01.JPG,AFNE01.JPG,AFNE01.JPG,AFNE01.JPG,,,,,,,,,,,,,0,5,5,3,,,,,,,,,,,AMSA02.jpg,AMSA08.jpg,AMNE09.jpg,AMNE02.jpg,AMNE02.jpg,MN,1,num_4,32,num_8,0.683571055066,,,2018_Jan_12_1141,60.0050424458,FEMA4ImagesEEG,001,102716,
AFNE01.JPG,AFNE01.JPG,AFNE01.JPG,AFNE01.JPG,AFNE01.JPG,AFNE01.JPG,,,,,,,,,,,,,0,6,6,6,,,,,,,,,,,AMNE18.jpg,AMNE09.jpg,AMSA05.jpg,AMSA16.jpg,AMSA05.jpg,MS,2,num_2,32,num_8,0.716809021775,,,2018_Jan_12_1141,60.0050424458,FEMA4ImagesEEG,001,102716,
AFNE01.JPG,AFNE01.JPG,AFNE01.JPG,AFNE01.JPG,AFNE01.JPG,AFNE01.JPG,,,,,,,,,,,,,0,7,7,1,,,,,,,,,,,AMSA15.jpg,AMNE08.jpg,AMSA09.jpg,AMNE09.jpg,AMSA15.jpg,MS,2,num_8,32,num_6,0.73349167197,,,2018_Jan_12_1141,60.0050424458,FEMA4ImagesEEG,001,102716,
AFNE01.JPG,AFNE01.JPG,AFNE01.JPG,AFNE01.JPG,AFNE01.JPG,AFNE01.JPG,,,,,,,,,,,,,0,8,8,7,,,,,,,,,,,AMNE04.jpg,AMSA15.jpg,AMSA11.jpg,AMNE02.jpg,AMSA15.jpg,MS,2,num_6,16,num_6,0.700165822404,,,2018_Jan_12_1141,60.0050424458,FEMA4ImagesEEG,001,102716,
AFNE01.JPG,AFNE01.JPG,AFNE01.JPG,AFNE01.JPG,AFNE01.JPG,AFNE01.JPG,,,,,,,,,,,,,0,9,9,0,,,,,,,,,,,AMSA19.jpg,AMNE11.jpg,AMNE03.jpg,AMSA02.jpg,AMSA02.jpg,MS,2,num_4,16,num_4,0.866770693334,,,2018_Jan_12_1141,60.0050424458,FEMA4ImagesEEG,001,102716,
AFNE01.JPG,AFNE01.JPG,AFNE01.JPG,AFNE01.JPG,AFNE01.JPG,AFNE01.JPG,,,,,,,,,,,,,1,0,10,9,,,,,,,,,,,AMNE19.jpg,AMNE05.jpg,AMSA07.jpg,AMSA11.jpg,AMNE19.jpg,MN,1,num_8,16,num_8,0.700157803949,,,2018_Jan_12_1141,60.0050424458,FEMA4ImagesEEG,001,102716,
AFNE01.JPG,AFNE01.JPG,AFNE01.JPG,AFNE01.JPG,AFNE01.JPG,AFNE01.JPG,,,,,,,,,,,,,1,1,11,6,,,,,,,,,,,AMNE13.jpg,AMSA18.jpg,AMNE18.jpg,AMSA03.jpg,AMNE13.jpg,MN,1,num_8,32,num_6,0.600130862091,,,2018_Jan_12_1141,60.0050424458,FEMA4ImagesEEG,001,102716,
AFNE01.JPG,AFNE01.JPG,AFNE01.JPG,AFNE01.JPG,AFNE01.JPG,AFNE01.JPG,,,,,,,,,,,,,1,2,12,7,,,,,,,,,,,AMSA11.jpg,AMNE12.jpg,AMNE03.jpg,AMSA14.jpg,AMNE12.jpg,MN,1,num_6,32,num_8,0.63346248446,,,2018_Jan_12_1141,60.0050424458,FEMA4ImagesEEG,001,102716,
AFNE01.JPG,AFNE01.JPG,AFNE01.JPG,AFNE01.JPG,AFNE01.JPG,AFNE01.JPG,,,,,,,,,,,,,1,3,13,4,,,,,,,,,,,AMNE12.jpg,AMNE14.jpg,AMSA19.jpg,AMSA10.jpg,AMNE12.jpg,MN,1,num_8,16,num_8,0.800128937466,,,2018_Jan_12_1141,60.0050424458,FEMA4ImagesEEG,001,102716,
AFNE01.JPG,AFNE01.JPG,AFNE01.JPG,AFNE01.JPG,AFNE01.JPG,AFNE01.JPG,,,,,,,,,,,,,1,4,14,8,,,,,,,,,,,AMNE13.jpg,AMSA01.jpg,AMSA16.jpg,AMNE16.jpg,AMSA01.jpg,MS,2,num_6,16,num_6,0.716777910013,,,2018_Jan_12_1141,60.0050424458,FEMA4ImagesEEG,001,102716,
AFNE01.JPG,AFNE01.JPG,AFNE01.JPG,AFNE01.JPG,AFNE01.JPG,AFNE01.JPG,,,,,,,,,,,,,1,5,15,2,,,,,,,,,,,AMNE08.jpg,AMNE03.jpg,AMSA18.jpg,AMSA14.jpg,AMNE03.jpg,MN,1,num_6,32,num_8,0.733498086687,,,2018_Jan_12_1141,60.0050424458,FEMA4ImagesEEG,001,102716,
AFNE01.JPG,AFNE01.JPG,AFNE01.JPG,AFNE01.JPG,AFNE01.JPG,AFNE01.JPG,,,,,,,,,,,,,1,6,16,3,,,,,,,,,,,AMNE15.jpg,AMNE17.jpg,AMSA13.jpg,AMSA14.jpg,AMSA13.jpg,MS,2,num_2,16,num_2,1.25009542005,,,2018_Jan_12_1141,60.0050424458,FEMA4ImagesEEG,001,102716,
AFNE01.JPG,AFNE01.JPG,AFNE01.JPG,AFNE01.JPG,AFNE01.JPG,AFNE01.JPG,,,,,,,,,,,,,1,7,17,1,,,,,,,,,,,AMNE02.jpg,AMSA05.jpg,AMSA07.jpg,AMNE14.jpg,AMSA05.jpg,MS,2,num_6,16,num_6,1.55006687413,,,2018_Jan_12_1141,60.0050424458,FEMA4ImagesEEG,001,102716,
AFNE01.JPG,AFNE01.JPG,AFNE01.JPG,AFNE01.JPG,AFNE01.JPG,AFNE01.JPG,,,,,,,,,,,,,1,8,18,0,,,,,,,,,,,AMNE07.jpg,AMSA08.jpg,AMNE12.jpg,AMSA13.jpg,AMSA13.jpg,MS,2,num_4,16,num_4,0.933523104526,,,2018_Jan_12_1141,60.0050424458,FEMA4ImagesEEG,001,102716,
AFNE01.JPG,AFNE01.JPG,AFNE01.JPG,AFNE01.JPG,AFNE01.JPG,AFNE01.JPG,,,,,,,,,,,,,1,9,19,5,,,,,,,,,,,AMNE02.jpg,AMNE06.jpg,AMSA06.jpg,AMSA16.jpg,AMSA16.jpg,MS,2,num_4,16,num_4,0.450161171844,,,2018_Jan_12_1141,60.0050424458,FEMA4ImagesEEG,001,102716,
AFNE01.JPG,AFNE01.JPG,AFNE01.JPG,AFNE01.JPG,AFNE01.JPG,AFNE01.JPG,,,,,,,,,,,,,2,0,20,8,,,,,,,,,,,AMSA08.jpg,AMNE01.jpg,AMSA02.jpg,AMNE06.jpg,AMNE01.jpg,MN,1,num_6,32,num_2,1.16677486291,,,2018_Jan_12_1141,60.0050424458,FEMA4ImagesEEG,001,102716,
AFNE01.JPG,AFNE01.JPG,AFNE01.JPG,AFNE01.JPG,AFNE01.JPG,AFNE01.JPG,,,,,,,,,,,,,2,1,21,1,,,,,,,,,,,AMNE07.jpg,AMSA04.jpg,AMSA07.jpg,AMNE17.jpg,AMNE17.jpg,MN,1,num_4,16,num_4,0.766740222927,,,2018_Jan_12_1141,60.0050424458,FEMA4ImagesEEG,001,102716,
AFNE01.JPG,AFNE01.JPG,AFNE01.JPG,AFNE01.JPG,AFNE01.JPG,AFNE01.JPG,,,,,,,,,,,,,2,2,22,2,,,,,,,,,,,AMSA11.jpg,AMNE05.jpg,AMSA20.jpg,AMNE04.jpg,AMNE04.jpg,MN,1,num_4,32,num_8,1.40007569455,,,2018_Jan_12_1141,60.0050424458,FEMA4ImagesEEG,001,102716,
AFNE01.JPG,AFNE01.JPG,AFNE01.JPG,AFNE01.JPG,AFNE01.JPG,AFNE01.JPG,,,,,,,,,,,,,2,3,23,4,,,,,,,,,,,AMSA10.jpg,AMNE08.jpg,AMSA07.jpg,AMNE05.jpg,AMSA10.jpg,MS,2,num_8,32,num_4,0.966770051979,,,2018_Jan_12_1141,60.0050424458,FEMA4ImagesEEG,001,102716,
AFNE01.JPG,AFNE01.JPG,AFNE01.JPG,AFNE01.JPG,AFNE01.JPG,AFNE01.JPG,,,,,,,,,,,,,2,4,24,6,,,,,,,,,,,AMNE19.jpg,AMSA20.jpg,AMNE10.jpg,AMSA16.jpg,AMNE19.jpg,MN,1,num_8,32,num_2,1.26679539029,,,2018_Jan_12_1141,60.0050424458,FEMA4ImagesEEG,001,102716,
AFNE01.JPG,AFNE01.JPG,AFNE01.JPG,AFNE01.JPG,AFNE01.JPG,AFNE01.JPG,,,,,,,,,,,,,2,5,25,3,,,,,,,,,,,AMSA18.jpg,AMNE15.jpg,AMNE02.jpg,AMSA15.jpg,AMNE15.jpg,MN,1,num_6,16,num_6,0.666773580015,,,2018_Jan_12_1141,60.0050424458,FEMA4ImagesEEG,001,102716,
AFNE01.JPG,AFNE01.JPG,AFNE01.JPG,AFNE01.JPG,AFNE01.JPG,AFNE01.JPG,,,,,,,,,,,,,2,6,26,7,,,,,,,,,,,AMNE19.jpg,AMSA18.jpg,AMNE20.jpg,AMSA11.jpg,AMSA11.jpg,MS,2,num_4,32,num_6,0.90021906537,,,2018_Jan_12_1141,60.0050424458,FEMA4ImagesEEG,001,102716,
AFNE01.JPG,AFNE01.JPG,AFNE01.JPG,AFNE01.JPG,AFNE01.JPG,AFNE01.JPG,,,,,,,,,,,,,2,7,27,5,,,,,,,,,,,AMNE07.jpg,AMSA20.jpg,AMSA03.jpg,AMNE09.jpg,AMNE07.jpg,MN,1,num_8,16,num_8,0.916795229772,,,2018_Jan_12_1141,60.0050424458,FEMA4ImagesEEG,001,102716,
AFNE01.JPG,AFNE01.JPG,AFNE01.JPG,AFNE01.JPG,AFNE01.JPG,AFNE01.JPG,,,,,,,,,,,,,2,8,28,9,,,,,,,,,,,AMSA15.jpg,AMNE02.jpg,AMNE06.jpg,AMSA09.jpg,AMNE06.jpg,MN,1,num_2,32,num_6,0.933455107501,,,2018_Jan_12_1141,60.0050424458,FEMA4ImagesEEG,001,102716,
AFNE01.JPG,AFNE01.JPG,AFNE01.JPG,AFNE01.JPG,AFNE01.JPG,AFNE01.JPG,,,,,,,,,,,,,2,9,29,0,,,,,,,,,,,AMSA15.jpg,AMNE10.jpg,AMNE04.jpg,AMSA14.jpg,AMSA15.jpg,MS,2,num_8,16,num_8,0.883308369201,,,2018_Jan_12_1141,60.0050424458,FEMA4ImagesEEG,001,102716,
AFNE01.JPG,AFNE01.JPG,AFNE01.JPG,AFNE01.JPG,AFNE01.JPG,AFNE01.JPG,,,,,,,,,,,,,3,0,30,0,,,,,,,,,,,AMNE04.jpg,AMSA11.jpg,AMSA12.jpg,AMNE05.jpg,AMNE05.jpg,MN,1,num_4,32,num_8,0.716819926864,,,2018_Jan_12_1141,60.0050424458,FEMA4ImagesEEG,001,102716,
AFNE01.JPG,AFNE01.JPG,AFNE01.JPG,AFNE01.JPG,AFNE01.JPG,AFNE01.JPG,,,,,,,,,,,,,3,1,31,6,,,,,,,,,,,AMSA20.jpg,AMSA08.jpg,AMNE15.jpg,AMNE06.jpg,AMNE06.jpg,MN,1,num_4,16,num_4,0.800144653767,,,2018_Jan_12_1141,60.0050424458,FEMA4ImagesEEG,001,102716,
AFNE01.JPG,AFNE01.JPG,AFNE01.JPG,AFNE01.JPG,AFNE01.JPG,AFNE01.JPG,,,,,,,,,,,,,3,2,32,5,,,,,,,,,,,AMNE17.jpg,AMSA13.jpg,AMNE13.jpg,AMSA19.jpg,AMSA13.jpg,MS,2,num_6,16,num_6,1.18355982914,,,2018_Jan_12_1141,60.0050424458,FEMA4ImagesEEG,001,102716,
AFNE01.JPG,AFNE01.JPG,AFNE01.JPG,AFNE01.JPG,AFNE01.JPG,AFNE01.JPG,,,,,,,,,,,,,3,3,33,2,,,,,,,,,,,AMNE12.jpg,AMSA16.jpg,AMSA09.jpg,AMNE06.jpg,AMNE06.jpg,MN,1,num_4,16,num_4,0.750166945159,,,2018_Jan_12_1141,60.0050424458,FEMA4ImagesEEG,001,102716,
AFNE01.JPG,AFNE01.JPG,AFNE01.JPG,AFNE01.JPG,AFNE01.JPG,AFNE01.JPG,,,,,,,,,,,,,3,4,34,9,,,,,,,,,,,AMSA10.jpg,AMNE04.jpg,AMNE06.jpg,AMSA17.jpg,AMSA17.jpg,MS,2,num_4,32,num_8,0.766772938427,,,2018_Jan_12_1141,60.0050424458,FEMA4ImagesEEG,001,102716,
AFNE01.JPG,AFNE01.JPG,AFNE01.JPG,AFNE01.JPG,AFNE01.JPG,AFNE01.JPG,,,,,,,,,,,,,3,5,35,7,,,,,,,,,,,AMSA05.jpg,AMNE11.jpg,AMNE20.jpg,AMSA07.jpg,AMNE20.jpg,MN,1,num_2,32,num_8,0.900102636777,,,2018_Jan_12_1141,60.0050424458,FEMA4ImagesEEG,001,102716,
AFNE01.JPG,AFNE01.JPG,AFNE01.JPG,AFNE01.JPG,AFNE01.JPG,AFNE01.JPG,,,,,,,,,,,,,3,6,36,3,,,,,,,,,,,AMNE16.jpg,AMSA18.jpg,AMSA07.jpg,AMNE13.jpg,AMNE13.jpg,MN,1,num_4,32,num_6,0.733474352164,,,2018_Jan_12_1141,60.0050424458,FEMA4ImagesEEG,001,102716,
AFNE01.JPG,AFNE01.JPG,AFNE01.JPG,AFNE01.JPG,AFNE01.JPG,AFNE01.JPG,,,,,,,,,,,,,3,7,37,1,,,,,,,,,,,AMSA16.jpg,AMSA20.jpg,AMNE05.jpg,AMNE19.jpg,AMSA16.jpg,MS,2,num_8,16,num_8,3.26689161244,,,2018_Jan_12_1141,60.0050424458,FEMA4ImagesEEG,001,102716,
AFNE01.JPG,AFNE01.JPG,AFNE01.JPG,AFNE01.JPG,AFNE01.JPG,AFNE01.JPG,,,,,,,,,,,,,3,8,38,8,,,,,,,,,,,AMSA01.jpg,AMNE04.jpg,AMNE20.jpg,AMSA12.jpg,AMNE04.jpg,MN,1,num_6,32,num_8,0.96672001644,,,2018_Jan_12_1141,60.0050424458,FEMA4ImagesEEG,001,102716,
AFNE01.JPG,AFNE01.JPG,AFNE01.JPG,AFNE01.JPG,AFNE01.JPG,AFNE01.JPG,,,,,,,,,,,,,3,9,39,4,,,,,,,,,,,AMNE15.jpg,AMNE05.jpg,AMSA02.jpg,AMSA12.jpg,AMSA02.jpg,MS,2,num_2,16,num_2,0.750179774826,,,2018_Jan_12_1141,60.0050424458,FEMA4ImagesEEG,001,102716,
AFNE01.JPG,AFNE01.JPG,AFNE01.JPG,AFNE01.JPG,AFNE01.JPG,AFNE01.JPG,,,,,,,,,,,,,4,0,40,1,,,,,,,,,,,AMSA16.jpg,AMSA14.jpg,AMNE02.jpg,AMNE06.jpg,AMNE06.jpg,MN,1,num_4,16,num_4,0.933480446227,,,2018_Jan_12_1141,60.0050424458,FEMA4ImagesEEG,001,102716,
AFNE01.JPG,AFNE01.JPG,AFNE01.JPG,AFNE01.JPG,AFNE01.JPG,AFNE01.JPG,,,,,,,,,,,,,4,1,41,6,,,,,,,,,,,AMNE20.jpg,AMNE09.jpg,AMSA04.jpg,AMSA02.jpg,AMSA04.jpg,MS,2,num_2,32,num_4,0.966733808164,,,2018_Jan_12_1141,60.0050424458,FEMA4ImagesEEG,001,102716,
AFNE01.JPG,AFNE01.JPG,AFNE01.JPG,AFNE01.JPG,AFNE01.JPG,AFNE01.JPG,,,,,,,,,,,,,4,2,42,9,,,,,,,,,,,AMNE16.jpg,AMNE03.jpg,AMSA04.jpg,AMSA14.jpg,AMNE03.jpg,MN,1,num_6,32,num_8,1.05013647489,,,2018_Jan_12_1141,60.0050424458,FEMA4ImagesEEG,001,102716,
AFNE01.JPG,AFNE01.JPG,AFNE01.JPG,AFNE01.JPG,AFNE01.JPG,AFNE01.JPG,,,,,,,,,,,,,4,3,43,2,,,,,,,,,,,AMNE10.jpg,AMNE20.jpg,AMSA14.jpg,AMSA15.jpg,AMNE20.jpg,MN,1,num_6,32,num_8,0.733426882653,,,2018_Jan_12_1141,60.0050424458,FEMA4ImagesEEG,001,102716,
AFNE01.JPG,AFNE01.JPG,AFNE01.JPG,AFNE01.JPG,AFNE01.JPG,AFNE01.JPG,,,,,,,,,,,,,4,4,44,5,,,,,,,,,,,AMSA15.jpg,AMNE08.jpg,AMNE02.jpg,AMSA07.jpg,AMNE02.jpg,MN,1,num_2,32,num_8,1.08344596671,,,2018_Jan_12_1141,60.0050424458,FEMA4ImagesEEG,001,102716,
AFNE01.JPG,AFNE01.JPG,AFNE01.JPG,AFNE01.JPG,AFNE01.JPG,AFNE01.JPG,,,,,,,,,,,,,4,5,45,0,,,,,,,,,,,AMSA08.jpg,AMSA14.jpg,AMNE17.jpg,AMNE08.jpg,AMNE17.jpg,MN,1,num_2,32,num_8,0.700193085475,,,2018_Jan_12_1141,60.0050424458,FEMA4ImagesEEG,001,102716,
AFNE01.JPG,AFNE01.JPG,AFNE01.JPG,AFNE01.JPG,AFNE01.JPG,AFNE01.JPG,,,,,,,,,,,,,4,6,46,8,,,,,,,,,,,AMNE06.jpg,AMSA19.jpg,AMSA01.jpg,AMNE12.jpg,AMNE06.jpg,MN,1,num_8,32,num_4,0.700138559798,,,2018_Jan_12_1141,60.0050424458,FEMA4ImagesEEG,001,102716,
AFNE01.JPG,AFNE01.JPG,AFNE01.JPG,AFNE01.JPG,AFNE01.JPG,AFNE01.JPG,,,,,,,,,,,,,4,7,47,3,,,,,,,,,,,AMNE06.jpg,AMNE12.jpg,AMSA20.jpg,AMSA09.jpg,AMNE06.jpg,MN,1,num_8,32,num_6,0.533427844755,,,2018_Jan_12_1141,60.0050424458,FEMA4ImagesEEG,001,102716,
AFNE01.JPG,AFNE01.JPG,AFNE01.JPG,AFNE01.JPG,AFNE01.JPG,AFNE01.JPG,,,,,,,,,,,,,4,8,48,7,,,,,,,,,,,AMNE02.jpg,AMNE05.jpg,AMSA15.jpg,AMSA02.jpg,AMSA15.jpg,MS,2,num_2,16,num_2,1.9001404841,,,2018_Jan_12_1141,60.0050424458,FEMA4ImagesEEG,001,102716,
AFNE01.JPG,AFNE01.JPG,AFNE01.JPG,AFNE01.JPG,AFNE01.JPG,AFNE01.JPG,,,,,,,,,,,,,4,9,49,4,,,,,,,,,,,AMSA17.jpg,AMSA01.jpg,AMNE10.jpg,AMNE06.jpg,AMNE10.jpg,MN,1,num_2,32,num_8,0.833445485448,,,2018_Jan_12_1141,60.0050424458,FEMA4ImagesEEG,001,102716,
AFNE01.JPG,AFNE01.JPG,AFNE01.JPG,AFNE01.JPG,AFNE01.JPG,AFNE01.JPG,,,,,,,,,,,,,5,0,50,1,,,,,,,,,,,AMSA04.jpg,AMSA16.jpg,AMNE12.jpg,AMNE07.jpg,AMSA16.jpg,MS,2,num_6,32,num_2,1.01679298491,,,2018_Jan_12_1141,60.0050424458,FEMA4ImagesEEG,001,102716,
AFNE01.JPG,AFNE01.JPG,AFNE01.JPG,AFNE01.JPG,AFNE01.JPG,AFNE01.JPG,,,,,,,,,,,,,5,1,51,9,,,,,,,,,,,AMNE19.jpg,AMSA12.jpg,AMNE15.jpg,AMSA08.jpg,AMNE19.jpg,MN,1,num_8,32,num_2,0.783563998993,,,2018_Jan_12_1141,60.0050424458,FEMA4ImagesEEG,001,102716,
AFNE01.JPG,AFNE01.JPG,AFNE01.JPG,AFNE01.JPG,AFNE01.JPG,AFNE01.JPG,,,,,,,,,,,,,5,2,52,2,,,,,,,,,,,AMSA05.jpg,AMNE05.jpg,AMSA17.jpg,AMNE17.jpg,AMSA05.jpg,MS,2,num_8,16,num_8,0.733479804592,,,2018_Jan_12_1141,60.0050424458,FEMA4ImagesEEG,001,102716,
AFNE01.JPG,AFNE01.JPG,AFNE01.JPG,AFNE01.JPG,AFNE01.JPG,AFNE01.JPG,,,,,,,,,,,,,5,3,53,6,,,,,,,,,,,AMNE13.jpg,AMNE19.jpg,AMSA01.jpg,AMSA17.jpg,AMNE19.jpg,MN,1,num_6,32,num_8,0.983493436128,,,2018_Jan_12_1141,60.0050424458,FEMA4ImagesEEG,001,102716,
AFNE01.JPG,AFNE01.JPG,AFNE01.JPG,AFNE01.JPG,AFNE01.JPG,AFNE01.JPG,,,,,,,,,,,,,5,4,54,0,,,,,,,,,,,AMNE03.jpg,AMNE01.jpg,AMSA03.jpg,AMSA01.jpg,AMSA03.jpg,MS,2,num_2,32,num_4,0.899998396402,,,2018_Jan_12_1141,60.0050424458,FEMA4ImagesEEG,001,102716,
AFNE01.JPG,AFNE01.JPG,AFNE01.JPG,AFNE01.JPG,AFNE01.JPG,AFNE01.JPG,,,,,,,,,,,,,5,5,55,8,,,,,,,,,,,AMNE02.jpg,AMSA18.jpg,AMSA05.jpg,AMNE20.jpg,AMSA18.jpg,MS,2,num_6,16,num_6,0.700198217295,,,2018_Jan_12_1141,60.0050424458,FEMA4ImagesEEG,001,102716,
AFNE01.JPG,AFNE01.JPG,AFNE01.JPG,AFNE01.JPG,AFNE01.JPG,AFNE01.JPG,,,,,,,,,,,,,5,6,56,3,,,,,,,,,,,AMSA10.jpg,AMNE08.jpg,AMSA11.jpg,AMNE18.jpg,AMSA11.jpg,MS,2,num_2,32,num_8,0.833544914844,,,2018_Jan_12_1141,60.0050424458,FEMA4ImagesEEG,001,102716,
AFNE01.JPG,AFNE01.JPG,AFNE01.JPG,AFNE01.JPG,AFNE01.JPG,AFNE01.JPG,,,,,,,,,,,,,5,7,57,7,,,,,,,,,,,AMSA03.jpg,AMNE06.jpg,AMNE10.jpg,AMSA01.jpg,AMSA03.jpg,MS,2,num_8,16,num_8,0.750188434729,,,2018_Jan_12_1141,60.0050424458,FEMA4ImagesEEG,001,102716,
AFNE01.JPG,AFNE01.JPG,AFNE01.JPG,AFNE01.JPG,AFNE01.JPG,AFNE01.JPG,,,,,,,,,,,,,5,8,58,5,,,,,,,,,,,AMSA10.jpg,AMSA14.jpg,AMNE08.jpg,AMNE19.jpg,AMNE19.jpg,MN,1,num_4,32,num_8,1.11678657006,,,2018_Jan_12_1141,60.0050424458,FEMA4ImagesEEG,001,102716,
AFNE01.JPG,AFNE01.JPG,AFNE01.JPG,AFNE01.JPG,AFNE01.JPG,AFNE01.JPG,,,,,,,,,,,,,5,9,59,4,,,,,,,,,,,AMSA02.jpg,AMNE12.jpg,AMNE11.jpg,AMSA16.jpg,AMNE11.jpg,MN,1,num_2,32,num_4,0.983438589377,,,2018_Jan_12_1141,60.0050424458,FEMA4ImagesEEG,001,102716,
,,,,,,,,,,,,,,,,,,,,,,,,,,,,,,,,,,,,,,,,,,,space,12.5995137582,2018_Jan_12_1141,60.0050424458,FEMA4ImagesEEG,001,102716,
AFNE01.JPG,AFNE01.JPG,AFNE01.JPG,AFNE01.JPG,AFNE01.JPG,AFNE01.JPG,,,,,,,,,,,,,,,,,0,0,0,8,,,,,,,AFSA09.jpg,AFNE17.jpg,AFSA10.jpg,AFNE01.jpg,AFSA09.jpg,FS,4,num_8,16,num_8,0.633476917865,,,2018_Jan_12_1141,60.0050424458,FEMA4ImagesEEG,001,102716,
AFNE01.JPG,AFNE01.JPG,AFNE01.JPG,AFNE01.JPG,AFNE01.JPG,AFNE01.JPG,,,,,,,,,,,,,,,,,0,1,1,2,,,,,,,AFNE14.jpg,AFSA20.jpg,AFSA17.jpg,AFNE16.jpg,AFNE14.jpg,FN,3,num_8,16,num_8,0.716799078975,,,2018_Jan_12_1141,60.0050424458,FEMA4ImagesEEG,001,102716,
AFNE01.JPG,AFNE01.JPG,AFNE01.JPG,AFNE01.JPG,AFNE01.JPG,AFNE01.JPG,,,,,,,,,,,,,,,,,0,2,2,7,,,,,,,AFSA13.jpg,AFNE03.jpg,AFNE19.jpg,AFSA12.jpg,AFNE03.jpg,FN,3,num_6,32,num_8,1.86658306047,,,2018_Jan_12_1141,60.0050424458,FEMA4ImagesEEG,001,102716,
AFNE01.JPG,AFNE01.JPG,AFNE01.JPG,AFNE01.JPG,AFNE01.JPG,AFNE01.JPG,,,,,,,,,,,,,,,,,0,3,3,0,,,,,,,AFSA07.jpg,AFNE14.jpg,AFNE17.jpg,AFSA01.jpg,AFSA01.jpg,FS,4,num_4,32,num_6,0.766746637877,,,2018_Jan_12_1141,60.0050424458,FEMA4ImagesEEG,001,102716,
AFNE01.JPG,AFNE01.JPG,AFNE01.JPG,AFNE01.JPG,AFNE01.JPG,AFNE01.JPG,,,,,,,,,,,,,,,,,0,4,4,4,,,,,,,AFSA12.jpg,AFNE03.jpg,AFSA15.jpg,AFNE02.jpg,AFNE03.jpg,FN,3,num_6,32,num_2,1.58340394963,,,2018_Jan_12_1141,60.0050424458,FEMA4ImagesEEG,001,102716,
AFNE01.JPG,AFNE01.JPG,AFNE01.JPG,AFNE01.JPG,AFNE01.JPG,AFNE01.JPG,,,,,,,,,,,,,,,,,0,5,5,3,,,,,,,AFSA08.jpg,AFNE03.jpg,AFNE10.jpg,AFSA02.jpg,AFSA02.jpg,FS,4,num_4,32,num_2,1.60007922258,,,2018_Jan_12_1141,60.0050424458,FEMA4ImagesEEG,001,102716,
AFNE01.JPG,AFNE01.JPG,AFNE01.JPG,AFNE01.JPG,AFNE01.JPG,AFNE01.JPG,,,,,,,,,,,,,,,,,0,6,6,9,,,,,,,AFSA11.jpg,AFNE17.jpg,AFNE14.jpg,AFSA12.jpg,AFNE17.jpg,FN,3,num_6,32,num_4,0.733535292558,,,2018_Jan_12_1141,60.0050424458,FEMA4ImagesEEG,001,102716,
AFNE01.JPG,AFNE01.JPG,AFNE01.JPG,AFNE01.JPG,AFNE01.JPG,AFNE01.JPG,,,,,,,,,,,,,,,,,0,7,7,6,,,,,,,AFNE02.jpg,AFSA12.jpg,AFSA16.jpg,AFNE04.jpg,AFNE02.jpg,FN,3,num_8,32,num_6,1.05013358826,,,2018_Jan_12_1141,60.0050424458,FEMA4ImagesEEG,001,102716,
AFNE01.JPG,AFNE01.JPG,AFNE01.JPG,AFNE01.JPG,AFNE01.JPG,AFNE01.JPG,,,,,,,,,,,,,,,,,0,8,8,1,,,,,,,AFNE03.jpg,AFSA13.jpg,AFSA17.jpg,AFNE08.jpg,AFSA13.jpg,FS,4,num_6,32,num_8,1.21675802418,,,2018_Jan_12_1141,60.0050424458,FEMA4ImagesEEG,001,102716,
AFNE01.JPG,AFNE01.JPG,AFNE01.JPG,AFNE01.JPG,AFNE01.JPG,AFNE01.JPG,,,,,,,,,,,,,,,,,0,9,9,5,,,,,,,AFNE15.jpg,AFSA02.jpg,AFNE11.jpg,AFSA20.jpg,AFSA20.jpg,FS,4,num_4,32,num_2,2.05007938319,,,2018_Jan_12_1141,60.0050424458,FEMA4ImagesEEG,001,102716,
AFNE01.JPG,AFNE01.JPG,AFNE01.JPG,AFNE01.JPG,AFNE01.JPG,AFNE01.JPG,,,,,,,,,,,,,,,,,1,0,10,1,,,,,,,AFSA12.jpg,AFNE09.jpg,AFNE18.jpg,AFSA08.jpg,AFNE09.jpg,FN,3,num_6,16,num_6,1.48346072063,,,2018_Jan_12_1141,60.0050424458,FEMA4ImagesEEG,001,102716,
AFNE01.JPG,AFNE01.JPG,AFNE01.JPG,AFNE01.JPG,AFNE01.JPG,AFNE01.JPG,,,,,,,,,,,,,,,,,1,1,11,5,,,,,,,AFSA15.jpg,AFNE09.jpg,AFSA13.jpg,AFNE02.jpg,AFNE09.jpg,FN,3,num_6,32,num_8,0.916798116639,,,2018_Jan_12_1141,60.0050424458,FEMA4ImagesEEG,001,102716,
AFNE01.JPG,AFNE01.JPG,AFNE01.JPG,AFNE01.JPG,AFNE01.JPG,AFNE01.JPG,,,,,,,,,,,,,,,,,1,2,12,4,,,,,,,AFNE03.jpg,AFNE18.jpg,AFSA11.jpg,AFSA08.jpg,AFNE03.jpg,FN,3,num_8,16,num_8,0.916716969572,,,2018_Jan_12_1141,60.0050424458,FEMA4ImagesEEG,001,102716,
AFNE01.JPG,AFNE01.JPG,AFNE01.JPG,AFNE01.JPG,AFNE01.JPG,AFNE01.JPG,,,,,,,,,,,,,,,,,1,3,13,7,,,,,,,AFNE19.jpg,AFNE09.jpg,AFSA17.jpg,AFSA01.jpg,AFSA01.jpg,FS,4,num_4,32,num_6,0.733487181598,,,2018_Jan_12_1141,60.0050424458,FEMA4ImagesEEG,001,102716,
AFNE01.JPG,AFNE01.JPG,AFNE01.JPG,AFNE01.JPG,AFNE01.JPG,AFNE01.JPG,,,,,,,,,,,,,,,,,1,4,14,9,,,,,,,AFNE11.jpg,AFSA11.jpg,AFNE09.jpg,AFSA03.jpg,AFSA11.jpg,FS,4,num_6,16,num_6,0.400209443411,,,2018_Jan_12_1141,60.0050424458,FEMA4ImagesEEG,001,102716,
AFNE01.JPG,AFNE01.JPG,AFNE01.JPG,AFNE01.JPG,AFNE01.JPG,AFNE01.JPG,,,,,,,,,,,,,,,,,1,5,15,2,,,,,,,AFSA08.jpg,AFNE06.jpg,AFNE01.jpg,AFSA19.jpg,AFSA19.jpg,FS,4,num_4,32,num_6,1.45010023145,,,2018_Jan_12_1141,60.0050424458,FEMA4ImagesEEG,001,102716,
AFNE01.JPG,AFNE01.JPG,AFNE01.JPG,AFNE01.JPG,AFNE01.JPG,AFNE01.JPG,,,,,,,,,,,,,,,,,1,6,16,3,,,,,,,AFSA14.jpg,AFNE03.jpg,AFSA16.jpg,AFNE19.jpg,AFSA16.jpg,FS,4,num_2,16,num_2,2.03336626268,,,2018_Jan_12_1141,60.0050424458,FEMA4ImagesEEG,001,102716,
AFNE01.JPG,AFNE01.JPG,AFNE01.JPG,AFNE01.JPG,AFNE01.JPG,AFNE01.JPG,,,,,,,,,,,,,,,,,1,7,17,6,,,,,,,AFNE09.jpg,AFNE03.jpg,AFSA01.jpg,AFSA12.jpg,AFSA12.jpg,FS,4,num_4,16,num_4,0.950119796442,,,2018_Jan_12_1141,60.0050424458,FEMA4ImagesEEG,001,102716,
AFNE01.JPG,AFNE01.JPG,AFNE01.JPG,AFNE01.JPG,AFNE01.JPG,AFNE01.JPG,,,,,,,,,,,,,,,,,1,8,18,0,,,,,,,AFNE08.jpg,AFNE09.jpg,AFSA07.jpg,AFSA05.jpg,AFSA07.jpg,FS,4,num_2,32,num_6,0.766802125843,,,2018_Jan_12_1141,60.0050424458,FEMA4ImagesEEG,001,102716,
AFNE01.JPG,AFNE01.JPG,AFNE01.JPG,AFNE01.JPG,AFNE01.JPG,AFNE01.JPG,,,,,,,,,,,,,,,,,1,9,19,8,,,,,,,AFSA14.jpg,AFNE08.jpg,AFNE07.jpg,AFSA13.jpg,AFNE08.jpg,FN,3,num_6,32,num_8,1.0834911908,,,2018_Jan_12_1141,60.0050424458,FEMA4ImagesEEG,001,102716,
AFNE01.JPG,AFNE01.JPG,AFNE01.JPG,AFNE01.JPG,AFNE01.JPG,AFNE01.JPG,,,,,,,,,,,,,,,,,2,0,20,7,,,,,,,AFNE16.jpg,AFSA10.jpg,AFNE06.jpg,AFSA11.jpg,AFNE06.jpg,FN,3,num_2,16,num_2,1.48341902439,,,2018_Jan_12_1141,60.0050424458,FEMA4ImagesEEG,001,102716,
AFNE01.JPG,AFNE01.JPG,AFNE01.JPG,AFNE01.JPG,AFNE01.JPG,AFNE01.JPG,,,,,,,,,,,,,,,,,2,1,21,1,,,,,,,AFSA20.jpg,AFNE13.jpg,AFNE02.jpg,AFSA12.jpg,AFSA12.jpg,FS,4,num_4,16,num_4,0.783470663708,,,2018_Jan_12_1141,60.0050424458,FEMA4ImagesEEG,001,102716,
AFNE01.JPG,AFNE01.JPG,AFNE01.JPG,AFNE01.JPG,AFNE01.JPG,AFNE01.JPG,,,,,,,,,,,,,,,,,2,2,22,3,,,,,,,AFNE07.jpg,AFSA08.jpg,AFSA01.jpg,AFNE13.jpg,AFNE07.jpg,FN,3,num_8,16,num_8,1.01674808119,,,2018_Jan_12_1141,60.0050424458,FEMA4ImagesEEG,001,102716,
AFNE01.JPG,AFNE01.JPG,AFNE01.JPG,AFNE01.JPG,AFNE01.JPG,AFNE01.JPG,,,,,,,,,,,,,,,,,2,3,23,8,,,,,,,AFSA16.jpg,AFNE01.jpg,AFNE04.jpg,AFSA09.jpg,AFSA16.jpg,FS,4,num_8,16,num_8,0.950170473196,,,2018_Jan_12_1141,60.0050424458,FEMA4ImagesEEG,001,102716,
AFNE01.JPG,AFNE01.JPG,AFNE01.JPG,AFNE01.JPG,AFNE01.JPG,AFNE01.JPG,,,,,,,,,,,,,,,,,2,4,24,2,,,,,,,AFSA10.jpg,AFNE03.jpg,AFSA18.jpg,AFNE14.jpg,AFNE03.jpg,FN,3,num_6,32,num_8,0.833167083096,,,2018_Jan_12_1141,60.0050424458,FEMA4ImagesEEG,001,102716,
AFNE01.JPG,AFNE01.JPG,AFNE01.JPG,AFNE01.JPG,AFNE01.JPG,AFNE01.JPG,,,,,,,,,,,,,,,,,2,5,25,5,,,,,,,AFSA18.jpg,AFNE10.jpg,AFSA15.jpg,AFNE05.jpg,AFNE05.jpg,FN,3,num_4,32,num_6,1.01671151677,,,2018_Jan_12_1141,60.0050424458,FEMA4ImagesEEG,001,102716,
AFNE01.JPG,AFNE01.JPG,AFNE01.JPG,AFNE01.JPG,AFNE01.JPG,AFNE01.JPG,,,,,,,,,,,,,,,,,2,6,26,0,,,,,,,AFNE16.jpg,AFSA05.jpg,AFSA08.jpg,AFNE19.jpg,AFNE19.jpg,FN,3,num_4,32,num_8,0.750100872712,,,2018_Jan_12_1141,60.0050424458,FEMA4ImagesEEG,001,102716,
AFNE01.JPG,AFNE01.JPG,AFNE01.JPG,AFNE01.JPG,AFNE01.JPG,AFNE01.JPG,,,,,,,,,,,,,,,,,2,7,27,9,,,,,,,AFSA01.jpg,AFNE19.jpg,AFNE08.jpg,AFSA09.jpg,AFSA01.jpg,FS,4,num_8,16,num_8,0.850144493394,,,2018_Jan_12_1141,60.0050424458,FEMA4ImagesEEG,001,102716,
AFNE01.JPG,AFNE01.JPG,AFNE01.JPG,AFNE01.JPG,AFNE01.JPG,AFNE01.JPG,,,,,,,,,,,,,,,,,2,8,28,6,,,,,,,AFSA09.jpg,AFNE16.jpg,AFNE14.jpg,AFSA17.jpg,AFNE14.jpg,FN,3,num_2,32,num_8,0.683481568703,,,2018_Jan_12_1141,60.0050424458,FEMA4ImagesEEG,001,102716,
AFNE01.JPG,AFNE01.JPG,AFNE01.JPG,AFNE01.JPG,AFNE01.JPG,AFNE01.JPG,,,,,,,,,,,,,,,,,2,9,29,4,,,,,,,AFNE18.jpg,AFSA03.jpg,AFNE04.jpg,AFSA13.jpg,AFNE04.jpg,FN,3,num_2,32,num_8,0.566960892174,,,2018_Jan_12_1141,60.0050424458,FEMA4ImagesEEG,001,102716,
AFNE01.JPG,AFNE01.JPG,AFNE01.JPG,AFNE01.JPG,AFNE01.JPG,AFNE01.JPG,,,,,,,,,,,,,,,,,3,0,30,7,,,,,,,AFSA07.jpg,AFNE11.jpg,AFSA19.jpg,AFNE18.jpg,AFSA19.jpg,FS,4,num_2,16,num_2,0.583488304168,,,2018_Jan_12_1141,60.0050424458,FEMA4ImagesEEG,001,102716,
AFNE01.JPG,AFNE01.JPG,AFNE01.JPG,AFNE01.JPG,AFNE01.JPG,AFNE01.JPG,,,,,,,,,,,,,,,,,3,1,31,6,,,,,,,AFNE20.jpg,AFSA03.jpg,AFSA06.jpg,AFNE04.jpg,AFNE04.jpg,FN,3,num_4,16,num_4,0.500181218144,,,2018_Jan_12_1141,60.0050424458,FEMA4ImagesEEG,001,102716,
AFNE01.JPG,AFNE01.JPG,AFNE01.JPG,AFNE01.JPG,AFNE01.JPG,AFNE01.JPG,,,,,,,,,,,,,,,,,3,2,32,5,,,,,,,AFSA05.jpg,AFSA14.jpg,AFNE06.jpg,AFNE04.jpg,AFSA14.jpg,FS,4,num_6,32,num_4,0.933475955622,,,2018_Jan_12_1141,60.0050424458,FEMA4ImagesEEG,001,102716,
AFNE01.JPG,AFNE01.JPG,AFNE01.JPG,AFNE01.JPG,AFNE01.JPG,AFNE01.JPG,,,,,,,,,,,,,,,,,3,3,33,3,,,,,,,AFSA09.jpg,AFNE20.jpg,AFNE03.jpg,AFSA05.jpg,AFSA09.jpg,FS,4,num_8,16,num_8,1.43340443075,,,2018_Jan_12_1141,60.0050424458,FEMA4ImagesEEG,001,102716,
AFNE01.JPG,AFNE01.JPG,AFNE01.JPG,AFNE01.JPG,AFNE01.JPG,AFNE01.JPG,,,,,,,,,,,,,,,,,3,4,34,8,,,,,,,AFSA10.jpg,AFSA01.jpg,AFNE05.jpg,AFNE18.jpg,AFSA01.jpg,FS,4,num_6,16,num_6,0.666822653264,,,2018_Jan_12_1141,60.0050424458,FEMA4ImagesEEG,001,102716,
AFNE01.JPG,AFNE01.JPG,AFNE01.JPG,AFNE01.JPG,AFNE01.JPG,AFNE01.JPG,,,,,,,,,,,,,,,,,3,5,35,4,,,,,,,AFSA19.jpg,AFNE04.jpg,AFNE17.jpg,AFSA16.jpg,AFNE04.jpg,FN,3,num_6,16,num_6,0.616773419548,,,2018_Jan_12_1141,60.0050424458,FEMA4ImagesEEG,001,102716,
AFNE01.JPG,AFNE01.JPG,AFNE01.JPG,AFNE01.JPG,AFNE01.JPG,AFNE01.JPG,,,,,,,,,,,,,,,,,3,6,36,0,,,,,,,AFSA04.jpg,AFSA08.jpg,AFNE17.jpg,AFNE12.jpg,AFNE12.jpg,FN,3,num_4,32,num_8,1.4834510982,,,2018_Jan_12_1141,60.0050424458,FEMA4ImagesEEG,001,102716,
AFNE01.JPG,AFNE01.JPG,AFNE01.JPG,AFNE01.JPG,AFNE01.JPG,AFNE01.JPG,,,,,,,,,,,,,,,,,3,7,37,2,,,,,,,AFNE07.jpg,AFSA02.jpg,AFSA04.jpg,AFNE08.jpg,AFSA02.jpg,FS,4,num_6,32,num_4,1.08350369986,,,2018_Jan_12_1141,60.0050424458,FEMA4ImagesEEG,001,102716,
AFNE01.JPG,AFNE01.JPG,AFNE01.JPG,AFNE01.JPG,AFNE01.JPG,AFNE01.JPG,,,,,,,,,,,,,,,,,3,8,38,1,,,,,,,AFNE10.jpg,AFSA19.jpg,AFNE04.jpg,AFSA08.jpg,AFNE04.jpg,FN,3,num_2,32,num_8,0.800136956153,,,2018_Jan_12_1141,60.0050424458,FEMA4ImagesEEG,001,102716,
AFNE01.JPG,AFNE01.JPG,AFNE01.JPG,AFNE01.JPG,AFNE01.JPG,AFNE01.JPG,,,,,,,,,,,,,,,,,3,9,39,9,,,,,,,AFNE13.jpg,AFSA20.jpg,AFSA12.jpg,AFNE20.jpg,AFNE20.jpg,FN,3,num_4,32,num_8,0.750110494904,,,2018_Jan_12_1141,60.0050424458,FEMA4ImagesEEG,001,102716,
AFNE01.JPG,AFNE01.JPG,AFNE01.JPG,AFNE01.JPG,AFNE01.JPG,AFNE01.JPG,,,,,,,,,,,,,,,,,4,0,40,7,,,,,,,AFSA15.jpg,AFNE12.jpg,AFSA03.jpg,AFNE19.jpg,AFNE19.jpg,FN,3,num_4,32,num_8,1.05011338159,,,2018_Jan_12_1141,60.0050424458,FEMA4ImagesEEG,001,102716,
AFNE01.JPG,AFNE01.JPG,AFNE01.JPG,AFNE01.JPG,AFNE01.JPG,AFNE01.JPG,,,,,,,,,,,,,,,,,4,1,41,1,,,,,,,AFSA16.jpg,AFNE15.jpg,AFSA14.jpg,AFNE01.jpg,AFNE15.jpg,FN,3,num_6,16,num_6,0.66681367252,,,2018_Jan_12_1141,60.0050424458,FEMA4ImagesEEG,001,102716,
AFNE01.JPG,AFNE01.JPG,AFNE01.JPG,AFNE01.JPG,AFNE01.JPG,AFNE01.JPG,,,,,,,,,,,,,,,,,4,2,42,0,,,,,,,AFSA01.jpg,AFNE05.jpg,AFNE03.jpg,AFSA15.jpg,AFNE05.jpg,FN,3,num_6,32,num_4,0.766605191631,,,2018_Jan_12_1141,60.0050424458,FEMA4ImagesEEG,001,102716,
AFNE01.JPG,AFNE01.JPG,AFNE01.JPG,AFNE01.JPG,AFNE01.JPG,AFNE01.JPG,,,,,,,,,,,,,,,,,4,3,43,3,,,,,,,AFSA11.jpg,AFNE14.jpg,AFSA03.jpg,AFNE02.jpg,AFNE14.jpg,FN,3,num_6,16,num_6,0.700144012226,,,2018_Jan_12_1141,60.0050424458,FEMA4ImagesEEG,001,102716,
AFNE01.JPG,AFNE01.JPG,AFNE01.JPG,AFNE01.JPG,AFNE01.JPG,AFNE01.JPG,,,,,,,,,,,,,,,,,4,4,44,6,,,,,,,AFSA16.jpg,AFNE15.jpg,AFNE08.jpg,AFSA15.jpg,AFSA16.jpg,FS,4,num_8,16,num_8,0.850007216679,,,2018_Jan_12_1141,60.0050424458,FEMA4ImagesEEG,001,102716,
AFNE01.JPG,AFNE01.JPG,AFNE01.JPG,AFNE01.JPG,AFNE01.JPG,AFNE01.JPG,,,,,,,,,,,,,,,,,4,5,45,5,,,,,,,AFSA11.jpg,AFNE02.jpg,AFSA07.jpg,AFNE17.jpg,AFSA07.jpg,FS,4,num_2,32,num_8,1.00011739088,,,2018_Jan_12_1141,60.0050424458,FEMA4ImagesEEG,001,102716,
AFNE01.JPG,AFNE01.JPG,AFNE01.JPG,AFNE01.JPG,AFNE01.JPG,AFNE01.JPG,,,,,,,,,,,,,,,,,4,6,46,2,,,,,,,AFNE04.jpg,AFNE06.jpg,AFSA08.jpg,AFSA05.jpg,AFNE04.jpg,FN,3,num_8,16,num_8,0.583474512445,,,2018_Jan_12_1141,60.0050424458,FEMA4ImagesEEG,001,102716,
AFNE01.JPG,AFNE01.JPG,AFNE01.JPG,AFNE01.JPG,AFNE01.JPG,AFNE01.JPG,,,,,,,,,,,,,,,,,4,7,47,8,,,,,,,AFSA19.jpg,AFSA01.jpg,AFNE20.jpg,AFNE19.jpg,AFNE20.jpg,FN,3,num_2,32,num_6,0.883507548599,,,2018_Jan_12_1141,60.0050424458,FEMA4ImagesEEG,001,102716,
AFNE01.JPG,AFNE01.JPG,AFNE01.JPG,AFNE01.JPG,AFNE01.JPG,AFNE01.JPG,,,,,,,,,,,,,,,,,4,8,48,4,,,,,,,AFSA03.jpg,AFSA13.jpg,AFNE20.jpg,AFNE12.jpg,AFNE20.jpg,FN,3,num_2,32,num_4,0.783442117507,,,2018_Jan_12_1141,60.0050424458,FEMA4ImagesEEG,001,102716,
AFNE01.JPG,AFNE01.JPG,AFNE01.JPG,AFNE01.JPG,AFNE01.JPG,AFNE01.JPG,,,,,,,,,,,,,,,,,4,9,49,9,,,,,,,AFSA20.jpg,AFNE09.jpg,AFNE16.jpg,AFSA17.jpg,AFSA17.jpg,FS,4,num_4,32,num_8,0.983440193115,,,2018_Jan_12_1141,60.0050424458,FEMA4ImagesEEG,001,102716,
AFNE01.JPG,AFNE01.JPG,AFNE01.JPG,AFNE01.JPG,AFNE01.JPG,AFNE01.JPG,,,,,,,,,,,,,,,,,5,0,50,4,,,,,,,AFSA13.jpg,AFSA03.jpg,AFNE03.jpg,AFNE16.jpg,AFSA03.jpg,FS,4,num_6,32,num_8,0.800143691478,,,2018_Jan_12_1141,60.0050424458,FEMA4ImagesEEG,001,102716,
AFNE01.JPG,AFNE01.JPG,AFNE01.JPG,AFNE01.JPG,AFNE01.JPG,AFNE01.JPG,,,,,,,,,,,,,,,,,5,1,51,3,,,,,,,AFSA08.jpg,AFNE13.jpg,AFNE07.jpg,AFSA19.jpg,AFNE07.jpg,FN,3,num_2,32,num_6,0.850214735372,,,2018_Jan_12_1141,60.0050424458,FEMA4ImagesEEG,001,102716,
AFNE01.JPG,AFNE01.JPG,AFNE01.JPG,AFNE01.JPG,AFNE01.JPG,AFNE01.JPG,,,,,,,,,,,,,,,,,5,2,52,6,,,,,,,AFNE09.jpg,AFSA03.jpg,AFSA09.jpg,AFNE02.jpg,AFNE09.jpg,FN,3,num_8,16,num_8,1.13377648918,,,2018_Jan_12_1141,60.0050424458,FEMA4ImagesEEG,001,102716,
AFNE01.JPG,AFNE01.JPG,AFNE01.JPG,AFNE01.JPG,AFNE01.JPG,AFNE01.JPG,,,,,,,,,,,,,,,,,5,3,53,0,,,,,,,AFNE20.jpg,AFSA17.jpg,AFNE19.jpg,AFSA05.jpg,AFNE19.jpg,FN,3,num_2,32,num_8,0.716890489683,,,2018_Jan_12_1141,60.0050424458,FEMA4ImagesEEG,001,102716,
AFNE01.JPG,AFNE01.JPG,AFNE01.JPG,AFNE01.JPG,AFNE01.JPG,AFNE01.JPG,,,,,,,,,,,,,,,,,5,4,54,8,,,,,,,AFNE03.jpg,AFNE09.jpg,AFSA01.jpg,AFSA19.jpg,AFNE03.jpg,FN,3,num_8,32,num_6,0.550191963091,,,2018_Jan_12_1141,60.0050424458,FEMA4ImagesEEG,001,102716,
AFNE01.JPG,AFNE01.JPG,AFNE01.JPG,AFNE01.JPG,AFNE01.JPG,AFNE01.JPG,,,,,,,,,,,,,,,,,5,5,55,9,,,,,,,AFSA02.jpg,AFNE13.jpg,AFNE05.jpg,AFSA11.jpg,AFSA11.jpg,FS,4,num_4,16,num_4,0.950112740276,,,2018_Jan_12_1141,60.0050424458,FEMA4ImagesEEG,001,102716,
AFNE01.JPG,AFNE01.JPG,AFNE01.JPG,AFNE01.JPG,AFNE01.JPG,AFNE01.JPG,,,,,,,,,,,,,,,,,5,6,56,7,,,,,,,AFSA07.jpg,AFNE05.jpg,AFNE15.jpg,AFSA11.jpg,AFNE05.jpg,FN,3,num_6,32,num_8,0.683453985024,,,2018_Jan_12_1141,60.0050424458,FEMA4ImagesEEG,001,102716,
AFNE01.JPG,AFNE01.JPG,AFNE01.JPG,AFNE01.JPG,AFNE01.JPG,AFNE01.JPG,,,,,,,,,,,,,,,,,5,7,57,1,,,,,,,AFNE10.jpg,AFNE18.jpg,AFSA02.jpg,AFSA17.jpg,AFNE10.jpg,FN,3,num_8,16,num_8,0.733522142284,,,2018_Jan_12_1141,60.0050424458,FEMA4ImagesEEG,001,102716,
AFNE01.JPG,AFNE01.JPG,AFNE01.JPG,AFNE01.JPG,AFNE01.JPG,AFNE01.JPG,,,,,,,,,,,,,,,,,5,8,58,5,,,,,,,AFNE18.jpg,AFSA17.jpg,AFSA11.jpg,AFNE15.jpg,AFNE18.jpg,FN,3,num_8,32,num_4,0.650171756279,,,2018_Jan_12_1141,60.0050424458,FEMA4ImagesEEG,001,102716,
AFNE01.JPG,AFNE01.JPG,AFNE01.JPG,AFNE01.JPG,AFNE01.JPG,AFNE01.JPG,,,,,,,,,,,,,,,,,5,9,59,2,,,,,,,AFSA20.jpg,AFNE19.jpg,AFNE20.jpg,AFSA12.jpg,AFSA20.jpg,FS,4,num_8,32,num_6,1.15010087262,,,2018_Jan_12_1141,60.0050424458,FEMA4ImagesEEG,001,102716,
,,,,,,,,,,,,,,,,,,,,,,,,,,,,,,,,,,,,,,,,,,,space,14.1820738406,2018_Jan_12_1141,60.0050424458,FEMA4ImagesEEG,001,102716,
AFNE01.JPG,AFNE01.JPG,AFNE01.JPG,AFNE01.JPG,AFNE01.JPG,AFNE01.JPG,,,,,,,,,,,,,,,,,,,,,0,0,0,1,,,AMNE20.jpg,AMSA20.jpg,AMSA09.jpg,AMNE05.jpg,AMSA20.jpg,MS,2,num_6,16,num_6,1.03345222096,,,2018_Jan_12_1141,60.0050424458,FEMA4ImagesEEG,001,102716,
AFNE01.JPG,AFNE01.JPG,AFNE01.JPG,AFNE01.JPG,AFNE01.JPG,AFNE01.JPG,,,,,,,,,,,,,,,,,,,,,0,1,1,8,,,AMSA03.jpg,AMNE10.jpg,AMSA11.jpg,AMNE01.jpg,AMNE10.jpg,MN,1,num_6,16,num_6,0.450128135737,,,2018_Jan_12_1141,60.0050424458,FEMA4ImagesEEG,001,102716,
AFNE01.JPG,AFNE01.JPG,AFNE01.JPG,AFNE01.JPG,AFNE01.JPG,AFNE01.JPG,,,,,,,,,,,,,,,,,,,,,0,2,2,9,,,AMNE18.jpg,AMNE06.jpg,AMSA04.jpg,AMSA17.jpg,AMNE06.jpg,MN,1,num_6,32,num_8,0.600160369882,,,2018_Jan_12_1141,60.0050424458,FEMA4ImagesEEG,001,102716,
AFNE01.JPG,AFNE01.JPG,AFNE01.JPG,AFNE01.JPG,AFNE01.JPG,AFNE01.JPG,,,,,,,,,,,,,,,,,,,,,0,3,3,4,,,AMSA18.jpg,AMNE07.jpg,AMNE06.jpg,AMSA16.jpg,AMNE06.jpg,MN,1,num_2,32,num_6,0.60015716264,,,2018_Jan_12_1141,60.0050424458,FEMA4ImagesEEG,001,102716,
AFNE01.JPG,AFNE01.JPG,AFNE01.JPG,AFNE01.JPG,AFNE01.JPG,AFNE01.JPG,,,,,,,,,,,,,,,,,,,,,0,4,4,2,,,AMSA08.jpg,AMSA14.jpg,AMNE02.jpg,AMNE09.jpg,AMNE09.jpg,MN,1,num_4,16,num_4,0.966755297733,,,2018_Jan_12_1141,60.0050424458,FEMA4ImagesEEG,001,102716,
AFNE01.JPG,AFNE01.JPG,AFNE01.JPG,AFNE01.JPG,AFNE01.JPG,AFNE01.JPG,,,,,,,,,,,,,,,,,,,,,0,5,5,7,,,AMNE07.jpg,AMNE08.jpg,AMSA04.jpg,AMSA15.jpg,AMNE08.jpg,MN,1,num_6,32,num_8,0.68347258796,,,2018_Jan_12_1141,60.0050424458,FEMA4ImagesEEG,001,102716,
AFNE01.JPG,AFNE01.JPG,AFNE01.JPG,AFNE01.JPG,AFNE01.JPG,AFNE01.JPG,,,,,,,,,,,,,,,,,,,,,0,6,6,0,,,AMSA13.jpg,AMSA15.jpg,AMNE20.jpg,AMNE07.jpg,AMSA13.jpg,MS,2,num_8,32,num_6,0.733490709681,,,2018_Jan_12_1141,60.0050424458,FEMA4ImagesEEG,001,102716,
AFNE01.JPG,AFNE01.JPG,AFNE01.JPG,AFNE01.JPG,AFNE01.JPG,AFNE01.JPG,,,,,,,,,,,,,,,,,,,,,0,7,7,6,,,AMSA09.jpg,AMNE18.jpg,AMSA15.jpg,AMNE09.jpg,AMNE18.jpg,MN,1,num_6,32,num_8,0.550255469512,,,2018_Jan_12_1141,60.0050424458,FEMA4ImagesEEG,001,102716,
AFNE01.JPG,AFNE01.JPG,AFNE01.JPG,AFNE01.JPG,AFNE01.JPG,AFNE01.JPG,,,,,,,,,,,,,,,,,,,,,0,8,8,3,,,AMSA12.jpg,AMNE17.jpg,AMNE19.jpg,AMSA04.jpg,AMSA04.jpg,MS,2,num_4,16,num_4,0.85014064447,,,2018_Jan_12_1141,60.0050424458,FEMA4ImagesEEG,001,102716,
AFNE01.JPG,AFNE01.JPG,AFNE01.JPG,AFNE01.JPG,AFNE01.JPG,AFNE01.JPG,,,,,,,,,,,,,,,,,,,,,0,9,9,5,,,AMNE03.jpg,AMSA17.jpg,AMSA03.jpg,AMNE06.jpg,AMNE06.jpg,MN,1,num_4,32,num_8,0.68347258796,,,2018_Jan_12_1141,60.0050424458,FEMA4ImagesEEG,001,102716,
AFNE01.JPG,AFNE01.JPG,AFNE01.JPG,AFNE01.JPG,AFNE01.JPG,AFNE01.JPG,,,,,,,,,,,,,,,,,,,,,1,0,10,6,,,AMSA02.jpg,AMNE02.jpg,AMSA06.jpg,AMNE18.jpg,AMSA06.jpg,MS,2,num_2,32,num_4,0.816771495156,,,2018_Jan_12_1141,60.0050424458,FEMA4ImagesEEG,001,102716,
AFNE01.JPG,AFNE01.JPG,AFNE01.JPG,AFNE01.JPG,AFNE01.JPG,AFNE01.JPG,,,,,,,,,,,,,,,,,,,,,1,1,11,9,,,AMNE07.jpg,AMSA11.jpg,AMNE11.jpg,AMSA20.jpg,AMSA11.jpg,MS,2,num_6,32,num_8,0.650163096376,,,2018_Jan_12_1141,60.0050424458,FEMA4ImagesEEG,001,102716,
AFNE01.JPG,AFNE01.JPG,AFNE01.JPG,AFNE01.JPG,AFNE01.JPG,AFNE01.JPG,,,,,,,,,,,,,,,,,,,,,1,2,12,2,,,AMNE05.jpg,AMSA08.jpg,AMNE11.jpg,AMSA03.jpg,AMSA03.jpg,MS,2,num_4,16,num_4,0.683760291897,,,2018_Jan_12_1141,60.0050424458,FEMA4ImagesEEG,001,102716,
AFNE01.JPG,AFNE01.JPG,AFNE01.JPG,AFNE01.JPG,AFNE01.JPG,AFNE01.JPG,,,,,,,,,,,,,,,,,,,,,1,3,13,3,,,AMNE09.jpg,AMSA15.jpg,AMNE08.jpg,AMSA18.jpg,AMSA18.jpg,MS,2,num_4,32,num_8,0.633457352873,,,2018_Jan_12_1141,60.0050424458,FEMA4ImagesEEG,001,102716,
AFNE01.JPG,AFNE01.JPG,AFNE01.JPG,AFNE01.JPG,AFNE01.JPG,AFNE01.JPG,,,,,,,,,,,,,,,,,,,,,1,4,14,4,,,AMSA03.jpg,AMNE14.jpg,AMNE01.jpg,AMSA05.jpg,AMNE14.jpg,MN,1,num_6,32,num_4,0.716791380895,,,2018_Jan_12_1141,60.0050424458,FEMA4ImagesEEG,001,102716,
AFNE01.JPG,AFNE01.JPG,AFNE01.JPG,AFNE01.JPG,AFNE01.JPG,AFNE01.JPG,,,,,,,,,,,,,,,,,,,,,1,5,15,1,,,AMSA01.jpg,AMNE08.jpg,AMNE15.jpg,AMSA09.jpg,AMNE08.jpg,MN,1,num_6,32,num_8,0.650163737824,,,2018_Jan_12_1141,60.0050424458,FEMA4ImagesEEG,001,102716,
AFNE01.JPG,AFNE01.JPG,AFNE01.JPG,AFNE01.JPG,AFNE01.JPG,AFNE01.JPG,,,,,,,,,,,,,,,,,,,,,1,6,16,0,,,AMSA13.jpg,AMNE02.jpg,AMNE01.jpg,AMSA03.jpg,AMNE02.jpg,MN,1,num_6,16,num_6,0.583602166967,,,2018_Jan_12_1141,60.0050424458,FEMA4ImagesEEG,001,102716,
AFNE01.JPG,AFNE01.JPG,AFNE01.JPG,AFNE01.JPG,AFNE01.JPG,AFNE01.JPG,,,,,,,,,,,,,,,,,,,,,1,7,17,5,,,AMSA06.jpg,AMNE07.jpg,AMNE18.jpg,AMSA20.jpg,AMNE07.jpg,MN,1,num_6,32,num_4,0.666811427334,,,2018_Jan_12_1141,60.0050424458,FEMA4ImagesEEG,001,102716,
AFNE01.JPG,AFNE01.JPG,AFNE01.JPG,AFNE01.JPG,AFNE01.JPG,AFNE01.JPG,,,,,,,,,,,,,,,,,,,,,1,8,18,8,,,AMSA13.jpg,AMNE15.jpg,AMNE03.jpg,AMSA17.jpg,AMNE03.jpg,MN,1,num_2,32,num_6,0.866779353237,,,2018_Jan_12_1141,60.0050424458,FEMA4ImagesEEG,001,102716,
AFNE01.JPG,AFNE01.JPG,AFNE01.JPG,AFNE01.JPG,AFNE01.JPG,AFNE01.JPG,,,,,,,,,,,,,,,,,,,,,1,9,19,7,,,AMNE20.jpg,AMSA08.jpg,AMNE14.jpg,AMSA01.jpg,AMSA01.jpg,MS,2,num_4,16,num_4,1.01681415364,,,2018_Jan_12_1141,60.0050424458,FEMA4ImagesEEG,001,102716,
AFNE01.JPG,AFNE01.JPG,AFNE01.JPG,AFNE01.JPG,AFNE01.JPG,AFNE01.JPG,,,,,,,,,,,,,,,,,,,,,2,0,20,6,,,AMNE15.jpg,AMSA05.jpg,AMSA01.jpg,AMNE16.jpg,AMNE15.jpg,MN,1,num_8,16,num_8,0.766811106587,,,2018_Jan_12_1141,60.0050424458,FEMA4ImagesEEG,001,102716,
AFNE01.JPG,AFNE01.JPG,AFNE01.JPG,AFNE01.JPG,AFNE01.JPG,AFNE01.JPG,,,,,,,,,,,,,,,,,,,,,2,1,21,5,,,AMNE05.jpg,AMSA17.jpg,AMSA03.jpg,AMNE02.jpg,AMSA17.jpg,MS,2,num_6,16,num_6,0.749746455112,,,2018_Jan_12_1141,60.0050424458,FEMA4ImagesEEG,001,102716,
AFNE01.JPG,AFNE01.JPG,AFNE01.JPG,AFNE01.JPG,AFNE01.JPG,AFNE01.JPG,,,,,,,,,,,,,,,,,,,,,2,2,22,8,,,AMSA10.jpg,AMSA20.jpg,AMNE05.jpg,AMNE02.jpg,AMSA10.jpg,MS,2,num_8,16,num_8,0.80015940778,,,2018_Jan_12_1141,60.0050424458,FEMA4ImagesEEG,001,102716,
AFNE01.JPG,AFNE01.JPG,AFNE01.JPG,AFNE01.JPG,AFNE01.JPG,AFNE01.JPG,,,,,,,,,,,,,,,,,,,,,2,3,23,7,,,AMSA03.jpg,AMNE03.jpg,AMNE04.jpg,AMSA04.jpg,AMSA03.jpg,MS,2,num_8,32,num_4,0.833469861653,,,2018_Jan_12_1141,60.0050424458,FEMA4ImagesEEG,001,102716,
AFNE01.JPG,AFNE01.JPG,AFNE01.JPG,AFNE01.JPG,AFNE01.JPG,AFNE01.JPG,,,,,,,,,,,,,,,,,,,,,2,4,24,0,,,AMNE14.jpg,AMSA19.jpg,AMSA16.jpg,AMNE13.jpg,AMNE14.jpg,MN,1,num_8,16,num_8,0.799995189067,,,2018_Jan_12_1141,60.0050424458,FEMA4ImagesEEG,001,102716,
AFNE01.JPG,AFNE01.JPG,AFNE01.JPG,AFNE01.JPG,AFNE01.JPG,AFNE01.JPG,,,,,,,,,,,,,,,,,,,,,2,5,25,2,,,AMNE13.jpg,AMSA17.jpg,AMSA03.jpg,AMNE05.jpg,AMSA03.jpg,MS,2,num_2,16,num_2,1.35010921187,,,2018_Jan_12_1141,60.0050424458,FEMA4ImagesEEG,001,102716,
AFNE01.JPG,AFNE01.JPG,AFNE01.JPG,AFNE01.JPG,AFNE01.JPG,AFNE01.JPG,,,,,,,,,,,,,,,,,,,,,2,6,26,1,,,AMNE09.jpg,AMSA16.jpg,AMNE03.jpg,AMSA04.jpg,AMNE03.jpg,MN,1,num_2,32,num_8,0.88347900263,,,2018_Jan_12_1141,60.0050424458,FEMA4ImagesEEG,001,102716,
AFNE01.JPG,AFNE01.JPG,AFNE01.JPG,AFNE01.JPG,AFNE01.JPG,AFNE01.JPG,,,,,,,,,,,,,,,,,,,,,2,7,27,9,,,AMNE19.jpg,AMSA07.jpg,AMNE17.jpg,AMSA10.jpg,AMNE19.jpg,MN,1,num_8,16,num_8,0.616815436399,,,2018_Jan_12_1141,60.0050424458,FEMA4ImagesEEG,001,102716,
AFNE01.JPG,AFNE01.JPG,AFNE01.JPG,AFNE01.JPG,AFNE01.JPG,AFNE01.JPG,,,,,,,,,,,,,,,,,,,,,2,8,28,4,,,AMSA10.jpg,AMNE05.jpg,AMSA06.jpg,AMNE03.jpg,AMNE03.jpg,MN,1,num_4,32,num_8,1.18341068528,,,2018_Jan_12_1141,60.0050424458,FEMA4ImagesEEG,001,102716,
AFNE01.JPG,AFNE01.JPG,AFNE01.JPG,AFNE01.JPG,AFNE01.JPG,AFNE01.JPG,,,,,,,,,,,,,,,,,,,,,2,9,29,3,,,AMSA16.jpg,AMNE12.jpg,AMNE09.jpg,AMSA14.jpg,AMSA14.jpg,MS,2,num_4,16,num_4,0.533435221761,,,2018_Jan_12_1141,60.0050424458,FEMA4ImagesEEG,001,102716,
AFNE01.JPG,AFNE01.JPG,AFNE01.JPG,AFNE01.JPG,AFNE01.JPG,AFNE01.JPG,,,,,,,,,,,,,,,,,,,,,3,0,30,4,,,AMSA09.jpg,AMNE16.jpg,AMNE04.jpg,AMSA05.jpg,AMNE04.jpg,MN,1,num_2,32,num_8,0.866729638772,,,2018_Jan_12_1141,60.0050424458,FEMA4ImagesEEG,001,102716,
AFNE01.JPG,AFNE01.JPG,AFNE01.JPG,AFNE01.JPG,AFNE01.JPG,AFNE01.JPG,,,,,,,,,,,,,,,,,,,,,3,1,31,5,,,AMSA11.jpg,AMNE20.jpg,AMNE12.jpg,AMSA15.jpg,AMNE12.jpg,MN,1,num_2,32,num_8,0.683580677491,,,2018_Jan_12_1141,60.0050424458,FEMA4ImagesEEG,001,102716,
AFNE01.JPG,AFNE01.JPG,AFNE01.JPG,AFNE01.JPG,AFNE01.JPG,AFNE01.JPG,,,,,,,,,,,,,,,,,,,,,3,2,32,0,,,AMSA12.jpg,AMSA14.jpg,AMNE06.jpg,AMNE04.jpg,AMSA14.jpg,MS,2,num_6,16,num_6,0.966838048771,,,2018_Jan_12_1141,60.0050424458,FEMA4ImagesEEG,001,102716,
AFNE01.JPG,AFNE01.JPG,AFNE01.JPG,AFNE01.JPG,AFNE01.JPG,AFNE01.JPG,,,,,,,,,,,,,,,,,,,,,3,3,33,6,,,AMSA02.jpg,AMNE18.jpg,AMSA04.jpg,AMNE05.jpg,AMSA02.jpg,MS,2,num_8,32,num_2,1.24991195695,,,2018_Jan_12_1141,60.0050424458,FEMA4ImagesEEG,001,102716,
AFNE01.JPG,AFNE01.JPG,AFNE01.JPG,AFNE01.JPG,AFNE01.JPG,AFNE01.JPG,,,,,,,,,,,,,,,,,,,,,3,4,34,2,,,AMSA01.jpg,AMNE10.jpg,AMNE13.jpg,AMSA05.jpg,AMNE10.jpg,MN,1,num_6,16,num_6,0.716823775787,,,2018_Jan_12_1141,60.0050424458,FEMA4ImagesEEG,001,102716,
AFNE01.JPG,AFNE01.JPG,AFNE01.JPG,AFNE01.JPG,AFNE01.JPG,AFNE01.JPG,,,,,,,,,,,,,,,,,,,,,3,5,35,7,,,AMNE16.jpg,AMNE08.jpg,AMSA18.jpg,AMSA06.jpg,AMNE08.jpg,MN,1,num_6,32,num_8,1.26707539638,,,2018_Jan_12_1141,60.0050424458,FEMA4ImagesEEG,001,102716,
AFNE01.JPG,AFNE01.JPG,AFNE01.JPG,AFNE01.JPG,AFNE01.JPG,AFNE01.JPG,,,,,,,,,,,,,,,,,,,,,3,6,36,3,,,AMSA16.jpg,AMNE04.jpg,AMSA01.jpg,AMNE14.jpg,AMNE04.jpg,MN,1,num_6,32,num_8,1.06680533313,,,2018_Jan_12_1141,60.0050424458,FEMA4ImagesEEG,001,102716,
AFNE01.JPG,AFNE01.JPG,AFNE01.JPG,AFNE01.JPG,AFNE01.JPG,AFNE01.JPG,,,,,,,,,,,,,,,,,,,,,3,7,37,9,,,AMNE04.jpg,AMSA07.jpg,AMNE08.jpg,AMSA18.jpg,AMNE04.jpg,MN,1,num_8,32,num_6,0.900165181141,,,2018_Jan_12_1141,60.0050424458,FEMA4ImagesEEG,001,102716,
AFNE01.JPG,AFNE01.JPG,AFNE01.JPG,AFNE01.JPG,AFNE01.JPG,AFNE01.JPG,,,,,,,,,,,,,,,,,,,,,3,8,38,1,,,AMSA19.jpg,AMSA20.jpg,AMNE17.jpg,AMNE14.jpg,AMSA19.jpg,MS,2,num_8,16,num_8,0.683518453967,,,2018_Jan_12_1141,60.0050424458,FEMA4ImagesEEG,001,102716,
