IPosition2,IPosition3,IPosition1,IPosition6,IPosition4,IPosition5,TrialsF1.thisRepN,TrialsF1.thisTrialN,TrialsF1.thisN,TrialsF1.thisIndex,TrialsM1.thisRepN,TrialsM1.thisTrialN,TrialsM1.thisN,TrialsM1.thisIndex,TrialsF2.thisRepN,TrialsF2.thisTrialN,TrialsF2.thisN,TrialsF2.thisIndex,TrialsM2.thisRepN,TrialsM2.thisTrialN,TrialsM2.thisN,TrialsM2.thisIndex,TrialsF3.thisRepN,TrialsF3.thisTrialN,TrialsF3.thisN,TrialsF3.thisIndex,TrialsM3.thisRepN,TrialsM3.thisTrialN,TrialsM3.thisN,TrialsM3.thisIndex,InstrKey_resp.keys,InstrKey_resp.rt,Image0 _Position,Image1 _Position,Image2 _Position,Image3 _Position,Center_image,condition,code,correct_answer,accuracy,Key_Resp.keys,Key_Resp.rt,BreakKey_resp.keys,BreakKey_resp.rt,date,frameRate,expName,session,participant,
,,,,,,,,,,,,,,,,,,,,,,,,,,,,,,space,16.5492749675,,,,,,,,,,,,,,2018_Jan_18_1404,60.0046959655,FEMA4ImagesEEG,001,102774,
AFSA21.JPG,AFNE22.JPG,AFNE21.JPG,AFSA23.JPG,AFSA22.JPG,AFNE23.JPG,0,0,0,0,,,,,,,,,,,,,,,,,,,,,,,AFNE08.jpg,AFSA02.jpg,AFNE05.jpg,AFSA17.jpg,AFSA17.jpg,FS,4,num_4,16,num_4,2.03338165814,,,2018_Jan_18_1404,60.0046959655,FEMA4ImagesEEG,001,102774,
AMSA21.JPG,AMNE23.JPG,AMNE21.JPG,AMSA25.JPG,AMNE25.JPG,AMSA23.JPG,0,1,1,5,,,,,,,,,,,,,,,,,,,,,,,AFNE17.jpg,AFNE09.jpg,AFSA15.jpg,AFSA08.jpg,AFSA15.jpg,FS,4,num_2,32,num_8,1.61671536556,,,2018_Jan_18_1404,60.0046959655,FEMA4ImagesEEG,001,102774,
AFSA21.JPG,AFNE23.JPG,AFNE21.JPG,AFSA25.JPG,AFNE25.JPG,AFSA23.JPG,0,2,2,4,,,,,,,,,,,,,,,,,,,,,,,AFSA15.jpg,AFSA20.jpg,AFNE11.jpg,AFNE08.jpg,AFNE11.jpg,FN,3,num_2,16,num_2,2.00004714914,,,2018_Jan_18_1404,60.0046959655,FEMA4ImagesEEG,001,102774,
AMNE23.JPG,AMNE24.JPG,AMNE22.JPG,AMSA24.JPG,AMSA22.JPG,AMSA23.JPG,0,3,3,9,,,,,,,,,,,,,,,,,,,,,,,AFSA19.jpg,AFNE10.jpg,AFNE16.jpg,AFSA13.jpg,AFNE16.jpg,FN,3,num_2,32,num_4,1.56673573237,,,2018_Jan_18_1404,60.0046959655,FEMA4ImagesEEG,001,102774,
AMNE22.JPG,AMSA24.JPG,AMSA22.JPG,AMNE25.JPG,AMNE24.JPG,AMSA25.JPG,0,4,4,7,,,,,,,,,,,,,,,,,,,,,,,AFSA20.jpg,AFNE16.jpg,AFNE11.jpg,AFSA13.jpg,AFSA13.jpg,FS,4,num_4,32,num_2,1.80022997037,,,2018_Jan_18_1404,60.0046959655,FEMA4ImagesEEG,001,102774,
AMSA25.JPG,AMNE24.JPG,AMSA24.JPG,AMNE26.JPG,AMSA21.JPG,AMNE25.JPG,0,5,5,3,,,,,,,,,,,,,,,,,,,,,,,AFSA02.jpg,AFSA07.jpg,AFNE12.jpg,AFNE02.jpg,AFSA07.jpg,FS,4,num_6,16,num_6,1.28315024404,,,2018_Jan_18_1404,60.0046959655,FEMA4ImagesEEG,001,102774,
AFNE22.JPG,AFSA24.JPG,AFSA22.JPG,AFNE25.JPG,AFNE24.JPG,AFSA25.JPG,0,6,6,6,,,,,,,,,,,,,,,,,,,,,,,AFNE06.jpg,AFSA11.jpg,AFSA19.jpg,AFNE09.jpg,AFSA19.jpg,FS,4,num_2,32,num_4,1.08350434108,,,2018_Jan_18_1404,60.0046959655,FEMA4ImagesEEG,001,102774,
AFSA25.JPG,AFNE24.JPG,AFSA24.JPG,AFNE21.JPG,AFSA21.JPG,AFNE25.JPG,0,7,7,2,,,,,,,,,,,,,,,,,,,,,,,AFSA02.jpg,AFNE03.jpg,AFNE04.jpg,AFSA06.jpg,AFNE04.jpg,FN,3,num_2,16,num_2,1.38341902476,,,2018_Jan_18_1404,60.0046959655,FEMA4ImagesEEG,001,102774,
AMSA21.JPG,AMNE22.JPG,AMNE21.JPG,AMSA23.JPG,AMSA22.JPG,AMNE23.JPG,0,8,8,1,,,,,,,,,,,,,,,,,,,,,,,AFNE19.jpg,AFNE18.jpg,AFSA07.jpg,AFSA05.jpg,AFNE18.jpg,FN,3,num_6,16,num_6,0.9836701639,,,2018_Jan_18_1404,60.0046959655,FEMA4ImagesEEG,001,102774,
AFNE23.JPG,AFNE24.JPG,AFNE22.JPG,AFSA24.JPG,AFSA22.JPG,AFSA23.JPG,0,9,9,8,,,,,,,,,,,,,,,,,,,,,,,AFSA01.jpg,AFSA07.jpg,AFNE15.jpg,AFNE20.jpg,AFNE15.jpg,FN,3,num_2,32,num_8,1.48321118485,,,2018_Jan_18_1404,60.0046959655,FEMA4ImagesEEG,001,102774,
AMSA25.JPG,AMNE24.JPG,AMSA24.JPG,AMNE26.JPG,AMSA21.JPG,AMNE25.JPG,,,,,0,0,0,3,,,,,,,,,,,,,,,,,,,AMSA07.jpg,AMNE12.jpg,AMSA13.jpg,AMNE04.jpg,AMNE12.jpg,MN,1,num_6,32,num_2,2.21667270735,,,2018_Jan_18_1404,60.0046959655,FEMA4ImagesEEG,001,102774,
AFSA21.JPG,AFNE22.JPG,AFNE21.JPG,AFSA23.JPG,AFSA22.JPG,AFNE23.JPG,,,,,0,1,1,0,,,,,,,,,,,,,,,,,,,AMSA04.jpg,AMNE03.jpg,AMSA08.jpg,AMNE11.jpg,AMSA04.jpg,MS,2,num_8,32,num_6,1.96670494135,,,2018_Jan_18_1404,60.0046959655,FEMA4ImagesEEG,001,102774,
AFSA25.JPG,AFNE24.JPG,AFSA24.JPG,AFNE21.JPG,AFSA21.JPG,AFNE25.JPG,,,,,0,2,2,2,,,,,,,,,,,,,,,,,,,AMNE09.jpg,AMNE06.jpg,AMSA09.jpg,AMSA08.jpg,AMNE09.jpg,MN,1,num_8,16,num_8,1.38345141895,,,2018_Jan_18_1404,60.0046959655,FEMA4ImagesEEG,001,102774,
AMNE23.JPG,AMNE24.JPG,AMNE22.JPG,AMSA24.JPG,AMSA22.JPG,AMSA23.JPG,,,,,0,3,3,9,,,,,,,,,,,,,,,,,,,AMSA08.jpg,AMNE08.jpg,AMNE04.jpg,AMSA09.jpg,AMSA08.jpg,MS,2,num_8,32,num_6,1.56671456387,,,2018_Jan_18_1404,60.0046959655,FEMA4ImagesEEG,001,102774,
AMSA21.JPG,AMNE22.JPG,AMNE21.JPG,AMSA23.JPG,AMSA22.JPG,AMNE23.JPG,,,,,0,4,4,1,,,,,,,,,,,,,,,,,,,AMNE12.jpg,AMNE14.jpg,AMSA19.jpg,AMSA08.jpg,AMNE12.jpg,MN,1,num_8,32,num_4,1.55008323211,,,2018_Jan_18_1404,60.0046959655,FEMA4ImagesEEG,001,102774,
AFSA21.JPG,AFNE23.JPG,AFNE21.JPG,AFSA25.JPG,AFNE25.JPG,AFSA23.JPG,,,,,0,5,5,4,,,,,,,,,,,,,,,,,,,AMNE12.jpg,AMSA01.jpg,AMNE08.jpg,AMSA20.jpg,AMNE12.jpg,MN,1,num_8,16,num_8,1.04980194289,,,2018_Jan_18_1404,60.0046959655,FEMA4ImagesEEG,001,102774,
AFNE22.JPG,AFSA24.JPG,AFSA22.JPG,AFNE25.JPG,AFNE24.JPG,AFSA25.JPG,,,,,0,6,6,6,,,,,,,,,,,,,,,,,,,AMSA12.jpg,AMSA14.jpg,AMNE08.jpg,AMNE05.jpg,AMSA14.jpg,MS,2,num_6,16,num_6,1.0667767874,,,2018_Jan_18_1404,60.0046959655,FEMA4ImagesEEG,001,102774,
AFNE23.JPG,AFNE24.JPG,AFNE22.JPG,AFSA24.JPG,AFSA22.JPG,AFSA23.JPG,,,,,0,7,7,8,,,,,,,,,,,,,,,,,,,AMNE04.jpg,AMSA07.jpg,AMNE11.jpg,AMSA19.jpg,AMSA07.jpg,MS,2,num_6,16,num_6,0.616812549531,,,2018_Jan_18_1404,60.0046959655,FEMA4ImagesEEG,001,102774,
AMSA21.JPG,AMNE23.JPG,AMNE21.JPG,AMSA25.JPG,AMNE25.JPG,AMSA23.JPG,,,,,0,8,8,5,,,,,,,,,,,,,,,,,,,AMSA03.jpg,AMNE20.jpg,AMSA04.jpg,AMNE19.jpg,AMNE19.jpg,MN,1,num_4,32,num_8,1.35008355277,,,2018_Jan_18_1404,60.0046959655,FEMA4ImagesEEG,001,102774,
AMNE22.JPG,AMSA24.JPG,AMSA22.JPG,AMNE25.JPG,AMNE24.JPG,AMSA25.JPG,,,,,0,9,9,7,,,,,,,,,,,,,,,,,,,AMSA11.jpg,AMNE19.jpg,AMNE20.jpg,AMSA12.jpg,AMSA11.jpg,MS,2,num_8,32,num_4,1.05013807863,,,2018_Jan_18_1404,60.0046959655,FEMA4ImagesEEG,001,102774,
AFNE23.JPG,AFNE24.JPG,AFNE22.JPG,AFSA24.JPG,AFSA22.JPG,AFSA23.JPG,,,,,,,,,0,0,0,8,,,,,,,,,,,,,,,AFSA19.jpg,AFNE07.jpg,AFSA01.jpg,AFNE11.jpg,AFSA01.jpg,FS,4,num_2,16,num_2,1.15007264726,,,2018_Jan_18_1404,60.0046959655,FEMA4ImagesEEG,001,102774,
AFSA21.JPG,AFNE23.JPG,AFNE21.JPG,AFSA25.JPG,AFNE25.JPG,AFSA23.JPG,,,,,,,,,0,1,1,4,,,,,,,,,,,,,,,AFNE04.jpg,AFNE11.jpg,AFSA14.jpg,AFSA03.jpg,AFSA03.jpg,FS,4,num_4,16,num_4,1.35009349603,,,2018_Jan_18_1404,60.0046959655,FEMA4ImagesEEG,001,102774,
AFSA25.JPG,AFNE24.JPG,AFSA24.JPG,AFNE21.JPG,AFSA21.JPG,AFNE25.JPG,,,,,,,,,0,2,2,2,,,,,,,,,,,,,,,AFNE08.jpg,AFSA19.jpg,AFSA12.jpg,AFNE06.jpg,AFSA12.jpg,FS,4,num_2,16,num_2,1.100077298,,,2018_Jan_18_1404,60.0046959655,FEMA4ImagesEEG,001,102774,
AMSA25.JPG,AMNE24.JPG,AMSA24.JPG,AMNE26.JPG,AMSA21.JPG,AMNE25.JPG,,,,,,,,,0,3,3,3,,,,,,,,,,,,,,,AFSA12.jpg,AFNE12.jpg,AFSA13.jpg,AFNE19.jpg,AFNE19.jpg,FN,3,num_4,16,num_4,1.10013727704,,,2018_Jan_18_1404,60.0046959655,FEMA4ImagesEEG,001,102774,
AMSA21.JPG,AMNE22.JPG,AMNE21.JPG,AMSA23.JPG,AMSA22.JPG,AMNE23.JPG,,,,,,,,,0,4,4,1,,,,,,,,,,,,,,,AFNE02.jpg,AFNE06.jpg,AFSA10.jpg,AFSA05.jpg,AFNE02.jpg,FN,3,num_8,16,num_8,1.48346745642,,,2018_Jan_18_1404,60.0046959655,FEMA4ImagesEEG,001,102774,
AFNE22.JPG,AFSA24.JPG,AFSA22.JPG,AFNE25.JPG,AFNE24.JPG,AFSA25.JPG,,,,,,,,,0,5,5,6,,,,,,,,,,,,,,,AFSA01.jpg,AFSA17.jpg,AFNE04.jpg,AFNE18.jpg,AFSA17.jpg,FS,4,num_6,16,num_6,0.983422552235,,,2018_Jan_18_1404,60.0046959655,FEMA4ImagesEEG,001,102774,
AMNE23.JPG,AMNE24.JPG,AMNE22.JPG,AMSA24.JPG,AMSA22.JPG,AMSA23.JPG,,,,,,,,,0,6,6,9,,,,,,,,,,,,,,,AFSA14.jpg,AFNE06.jpg,AFSA19.jpg,AFNE11.jpg,AFNE11.jpg,FN,3,num_4,32,num_6,1.40010520257,,,2018_Jan_18_1404,60.0046959655,FEMA4ImagesEEG,001,102774,
AMNE22.JPG,AMSA24.JPG,AMSA22.JPG,AMNE25.JPG,AMNE24.JPG,AMSA25.JPG,,,,,,,,,0,7,7,7,,,,,,,,,,,,,,,AFSA18.jpg,AFSA06.jpg,AFNE16.jpg,AFNE13.jpg,AFSA06.jpg,FS,4,num_6,32,num_8,1.21674808115,,,2018_Jan_18_1404,60.0046959655,FEMA4ImagesEEG,001,102774,
AMSA21.JPG,AMNE23.JPG,AMNE21.JPG,AMSA25.JPG,AMNE25.JPG,AMSA23.JPG,,,,,,,,,0,8,8,5,,,,,,,,,,,,,,,AFNE12.jpg,AFNE05.jpg,AFSA20.jpg,AFSA03.jpg,AFNE05.jpg,FN,3,num_6,32,num_2,1.83340603439,,,2018_Jan_18_1404,60.0046959655,FEMA4ImagesEEG,001,102774,
AFSA21.JPG,AFNE22.JPG,AFNE21.JPG,AFSA23.JPG,AFSA22.JPG,AFNE23.JPG,,,,,,,,,0,9,9,0,,,,,,,,,,,,,,,AFSA03.jpg,AFSA14.jpg,AFNE05.jpg,AFNE03.jpg,AFNE03.jpg,FN,3,num_4,32,num_6,1.75000946177,,,2018_Jan_18_1404,60.0046959655,FEMA4ImagesEEG,001,102774,
AMNE23.JPG,AMNE24.JPG,AMNE22.JPG,AMSA24.JPG,AMSA22.JPG,AMSA23.JPG,,,,,,,,,,,,,0,0,0,9,,,,,,,,,,,AMNE02.jpg,AMSA19.jpg,AMNE04.jpg,AMSA18.jpg,AMNE04.jpg,MN,1,num_2,32,num_4,1.68343153363,,,2018_Jan_18_1404,60.0046959655,FEMA4ImagesEEG,001,102774,
AFSA25.JPG,AFNE24.JPG,AFSA24.JPG,AFNE21.JPG,AFSA21.JPG,AFNE25.JPG,,,,,,,,,,,,,0,1,1,2,,,,,,,,,,,AMNE16.jpg,AMSA14.jpg,AMNE14.jpg,AMSA08.jpg,AMSA08.jpg,MS,2,num_4,32,num_8,1.05012621125,,,2018_Jan_18_1404,60.0046959655,FEMA4ImagesEEG,001,102774,
AFNE23.JPG,AFNE24.JPG,AFNE22.JPG,AFSA24.JPG,AFSA22.JPG,AFSA23.JPG,,,,,,,,,,,,,0,2,2,8,,,,,,,,,,,AMSA10.jpg,AMNE07.jpg,AMSA13.jpg,AMNE15.jpg,AMNE07.jpg,MN,1,num_6,32,num_4,1.76670654537,,,2018_Jan_18_1404,60.0046959655,FEMA4ImagesEEG,001,102774,
AMSA25.JPG,AMNE24.JPG,AMSA24.JPG,AMNE26.JPG,AMSA21.JPG,AMNE25.JPG,,,,,,,,,,,,,0,3,3,3,,,,,,,,,,,AMNE06.jpg,AMSA12.jpg,AMNE09.jpg,AMSA03.jpg,AMSA03.jpg,MS,2,num_4,32,num_2,1.48345719231,,,2018_Jan_18_1404,60.0046959655,FEMA4ImagesEEG,001,102774,
AMSA21.JPG,AMNE22.JPG,AMNE21.JPG,AMSA23.JPG,AMSA22.JPG,AMNE23.JPG,,,,,,,,,,,,,0,4,4,1,,,,,,,,,,,AMNE12.jpg,AMSA11.jpg,AMNE13.jpg,AMSA16.jpg,AMNE12.jpg,MN,1,num_8,16,num_8,0.583486058749,,,2018_Jan_18_1404,60.0046959655,FEMA4ImagesEEG,001,102774,
AFSA21.JPG,AFNE23.JPG,AFNE21.JPG,AFSA25.JPG,AFNE25.JPG,AFSA23.JPG,,,,,,,,,,,,,0,5,5,4,,,,,,,,,,,AMSA11.jpg,AMSA18.jpg,AMNE07.jpg,AMNE08.jpg,AMNE07.jpg,MN,1,num_2,16,num_2,1.51674327021,,,2018_Jan_18_1404,60.0046959655,FEMA4ImagesEEG,001,102774,
AMSA21.JPG,AMNE23.JPG,AMNE21.JPG,AMSA25.JPG,AMNE25.JPG,AMSA23.JPG,,,,,,,,,,,,,0,6,6,5,,,,,,,,,,,AMSA16.jpg,AMNE12.jpg,AMSA11.jpg,AMNE03.jpg,AMSA16.jpg,MS,2,num_8,32,num_2,1.40014112554,,,2018_Jan_18_1404,60.0046959655,FEMA4ImagesEEG,001,102774,
AFNE22.JPG,AFSA24.JPG,AFSA22.JPG,AFNE25.JPG,AFNE24.JPG,AFSA25.JPG,,,,,,,,,,,,,0,7,7,6,,,,,,,,,,,AMNE20.jpg,AMSA02.jpg,AMSA11.jpg,AMNE19.jpg,AMSA11.jpg,MS,2,num_2,16,num_2,1.33339544991,,,2018_Jan_18_1404,60.0046959655,FEMA4ImagesEEG,001,102774,
AMNE22.JPG,AMSA24.JPG,AMSA22.JPG,AMNE25.JPG,AMNE24.JPG,AMSA25.JPG,,,,,,,,,,,,,0,8,8,7,,,,,,,,,,,AMNE05.jpg,AMSA14.jpg,AMNE02.jpg,AMSA18.jpg,AMSA18.jpg,MS,2,num_4,16,num_4,0.750146738719,,,2018_Jan_18_1404,60.0046959655,FEMA4ImagesEEG,001,102774,
AFSA21.JPG,AFNE22.JPG,AFNE21.JPG,AFSA23.JPG,AFSA22.JPG,AFNE23.JPG,,,,,,,,,,,,,0,9,9,0,,,,,,,,,,,AMSA04.jpg,AMNE06.jpg,AMNE04.jpg,AMSA09.jpg,AMSA04.jpg,MS,2,num_8,32,num_6,1.38352967938,,,2018_Jan_18_1404,60.0046959655,FEMA4ImagesEEG,001,102774,
AMNE22.JPG,AMSA24.JPG,AMSA22.JPG,AMNE25.JPG,AMNE24.JPG,AMSA25.JPG,,,,,,,,,,,,,,,,,0,0,0,7,,,,,,,AFSA08.jpg,AFNE08.jpg,AFSA10.jpg,AFNE05.jpg,AFNE05.jpg,FN,3,num_4,32,num_8,1.1834029872,,,2018_Jan_18_1404,60.0046959655,FEMA4ImagesEEG,001,102774,
AFNE23.JPG,AFNE24.JPG,AFNE22.JPG,AFSA24.JPG,AFSA22.JPG,AFSA23.JPG,,,,,,,,,,,,,,,,,0,1,1,8,,,,,,,AFSA16.jpg,AFNE14.jpg,AFSA02.jpg,AFNE16.jpg,AFSA16.jpg,FS,4,num_8,32,num_2,1.25013807882,,,2018_Jan_18_1404,60.0046959655,FEMA4ImagesEEG,001,102774,
AMSA25.JPG,AMNE24.JPG,AMSA24.JPG,AMNE26.JPG,AMSA21.JPG,AMNE25.JPG,,,,,,,,,,,,,,,,,0,2,2,3,,,,,,,AFSA15.jpg,AFNE02.jpg,AFNE14.jpg,AFSA07.jpg,AFSA07.jpg,FS,4,num_4,32,num_2,1.46673733648,,,2018_Jan_18_1404,60.0046959655,FEMA4ImagesEEG,001,102774,
AMSA21.JPG,AMNE22.JPG,AMNE21.JPG,AMSA23.JPG,AMSA22.JPG,AMNE23.JPG,,,,,,,,,,,,,,,,,0,3,3,1,,,,,,,AFNE19.jpg,AFSA10.jpg,AFNE04.jpg,AFSA16.jpg,AFNE04.jpg,FN,3,num_2,32,num_6,1.05009766528,,,2018_Jan_18_1404,60.0046959655,FEMA4ImagesEEG,001,102774,
AMSA21.JPG,AMNE23.JPG,AMNE21.JPG,AMSA25.JPG,AMNE25.JPG,AMSA23.JPG,,,,,,,,,,,,,,,,,0,4,4,5,,,,,,,AFSA05.jpg,AFNE04.jpg,AFSA19.jpg,AFNE16.jpg,AFNE04.jpg,FN,3,num_6,16,num_6,0.716775664594,,,2018_Jan_18_1404,60.0046959655,FEMA4ImagesEEG,001,102774,
AMNE23.JPG,AMNE24.JPG,AMNE22.JPG,AMSA24.JPG,AMSA22.JPG,AMSA23.JPG,,,,,,,,,,,,,,,,,0,5,5,9,,,,,,,AFNE18.jpg,AFSA10.jpg,AFNE17.jpg,AFSA06.jpg,AFSA06.jpg,FS,4,num_4,32,num_8,1.60007248726,,,2018_Jan_18_1404,60.0046959655,FEMA4ImagesEEG,001,102774,
AFNE22.JPG,AFSA24.JPG,AFSA22.JPG,AFNE25.JPG,AFNE24.JPG,AFSA25.JPG,,,,,,,,,,,,,,,,,0,6,6,6,,,,,,,AFSA19.jpg,AFSA10.jpg,AFNE16.jpg,AFNE10.jpg,AFNE10.jpg,FN,3,num_4,32,num_8,1.20008339267,,,2018_Jan_18_1404,60.0046959655,FEMA4ImagesEEG,001,102774,
AFSA25.JPG,AFNE24.JPG,AFSA24.JPG,AFNE21.JPG,AFSA21.JPG,AFNE25.JPG,,,,,,,,,,,,,,,,,0,7,7,2,,,,,,,AFSA16.jpg,AFNE17.jpg,AFSA10.jpg,AFNE04.jpg,AFNE04.jpg,FN,3,num_4,16,num_4,0.866765240673,,,2018_Jan_18_1404,60.0046959655,FEMA4ImagesEEG,001,102774,
AFSA21.JPG,AFNE22.JPG,AFNE21.JPG,AFSA23.JPG,AFSA22.JPG,AFNE23.JPG,,,,,,,,,,,,,,,,,0,8,8,0,,,,,,,AFNE03.jpg,AFSA15.jpg,AFSA20.jpg,AFNE04.jpg,AFNE03.jpg,FN,3,num_8,32,num_6,1.28345270222,,,2018_Jan_18_1404,60.0046959655,FEMA4ImagesEEG,001,102774,
AFSA21.JPG,AFNE23.JPG,AFNE21.JPG,AFSA25.JPG,AFNE25.JPG,AFSA23.JPG,,,,,,,,,,,,,,,,,0,9,9,4,,,,,,,AFNE08.jpg,AFNE06.jpg,AFSA03.jpg,AFSA05.jpg,AFSA03.jpg,FS,4,num_2,16,num_2,0.650121400133,,,2018_Jan_18_1404,60.0046959655,FEMA4ImagesEEG,001,102774,
AFNE22.JPG,AFSA24.JPG,AFSA22.JPG,AFNE25.JPG,AFNE24.JPG,AFSA25.JPG,,,,,,,,,,,,,,,,,,,,,0,0,0,6,,,AMSA04.jpg,AMSA18.jpg,AMNE06.jpg,AMNE09.jpg,AMSA04.jpg,MS,2,num_8,32,num_2,1.116747119,,,2018_Jan_18_1404,60.0046959655,FEMA4ImagesEEG,001,102774,
AFSA21.JPG,AFNE22.JPG,AFNE21.JPG,AFSA23.JPG,AFSA22.JPG,AFNE23.JPG,,,,,,,,,,,,,,,,,,,,,0,1,1,0,,,AMSA12.jpg,AMNE01.jpg,AMSA03.jpg,AMNE13.jpg,AMNE13.jpg,MN,1,num_4,32,num_8,1.08343666466,,,2018_Jan_18_1404,60.0046959655,FEMA4ImagesEEG,001,102774,
AMSA25.JPG,AMNE24.JPG,AMSA24.JPG,AMNE26.JPG,AMSA21.JPG,AMNE25.JPG,,,,,,,,,,,,,,,,,,,,,0,2,2,3,,,AMSA08.jpg,AMNE16.jpg,AMSA17.jpg,AMNE11.jpg,AMSA08.jpg,MS,2,num_8,32,num_4,0.983453985304,,,2018_Jan_18_1404,60.0046959655,FEMA4ImagesEEG,001,102774,
AFSA25.JPG,AFNE24.JPG,AFSA24.JPG,AFNE21.JPG,AFSA21.JPG,AFNE25.JPG,,,,,,,,,,,,,,,,,,,,,0,3,3,2,,,AMNE06.jpg,AMSA13.jpg,AMNE15.jpg,AMSA12.jpg,AMSA12.jpg,MS,2,num_4,32,num_8,1.53340988327,,,2018_Jan_18_1404,60.0046959655,FEMA4ImagesEEG,001,102774,
AFNE23.JPG,AFNE24.JPG,AFNE22.JPG,AFSA24.JPG,AFSA22.JPG,AFSA23.JPG,,,,,,,,,,,,,,,,,,,,,0,4,4,8,,,AMSA08.jpg,AMNE12.jpg,AMNE09.jpg,AMSA03.jpg,AMNE12.jpg,MN,1,num_6,16,num_6,1.00017801067,,,2018_Jan_18_1404,60.0046959655,FEMA4ImagesEEG,001,102774,
AMNE22.JPG,AMSA24.JPG,AMSA22.JPG,AMNE25.JPG,AMNE24.JPG,AMSA25.JPG,,,,,,,,,,,,,,,,,,,,,0,5,5,7,,,AMSA16.jpg,AMNE05.jpg,AMSA07.jpg,AMNE04.jpg,AMSA16.jpg,MS,2,num_8,16,num_8,1.40010199556,,,2018_Jan_18_1404,60.0046959655,FEMA4ImagesEEG,001,102774,
AFSA21.JPG,AFNE23.JPG,AFNE21.JPG,AFSA25.JPG,AFNE25.JPG,AFSA23.JPG,,,,,,,,,,,,,,,,,,,,,0,6,6,4,,,AMSA07.jpg,AMNE11.jpg,AMNE05.jpg,AMSA20.jpg,AMNE11.jpg,MN,1,num_6,16,num_6,1.16672707256,,,2018_Jan_18_1404,60.0046959655,FEMA4ImagesEEG,001,102774,
AMSA21.JPG,AMNE22.JPG,AMNE21.JPG,AMSA23.JPG,AMSA22.JPG,AMNE23.JPG,,,,,,,,,,,,,,,,,,,,,0,7,7,1,,,AMNE17.jpg,AMNE08.jpg,AMSA13.jpg,AMSA10.jpg,AMNE08.jpg,MN,1,num_6,32,num_2,1.09978317982,,,2018_Jan_18_1404,60.0046959655,FEMA4ImagesEEG,001,102774,
AMSA21.JPG,AMNE23.JPG,AMNE21.JPG,AMSA25.JPG,AMNE25.JPG,AMSA23.JPG,,,,,,,,,,,,,,,,,,,,,0,8,8,5,,,AMNE07.jpg,AMNE04.jpg,AMSA05.jpg,AMSA10.jpg,AMSA10.jpg,MS,2,num_4,32,num_8,0.950143210124,,,2018_Jan_18_1404,60.0046959655,FEMA4ImagesEEG,001,102774,
AMNE23.JPG,AMNE24.JPG,AMNE22.JPG,AMSA24.JPG,AMSA22.JPG,AMSA23.JPG,,,,,,,,,,,,,,,,,,,,,0,9,9,9,,,AMSA06.jpg,AMSA13.jpg,AMNE10.jpg,AMNE07.jpg,AMSA06.jpg,MS,2,num_8,32,num_4,1.0667755045,,,2018_Jan_18_1404,60.0046959655,FEMA4ImagesEEG,001,102774,
,,,,,,,,,,,,,,,,,,,,,,,,,,,,,,,,,,,,,,,,,,,space,4.80009525968,2018_Jan_18_1404,60.0046959655,FEMA4ImagesEEG,001,102774,
AFNE01.JPG,AFNE01.JPG,AFNE01.JPG,AFNE01.JPG,AFNE01.JPG,AFNE01.JPG,0,0,0,0,,,,,,,,,,,,,,,,,,,,,,,AFSA06.jpg,AFSA09.jpg,AFNE01.jpg,AFNE11.jpg,AFNE01.jpg,FN,3,num_2,32,num_8,1.03344676876,,,2018_Jan_18_1404,60.0046959655,FEMA4ImagesEEG,001,102774,
AFNE01.JPG,AFNE01.JPG,AFNE01.JPG,AFNE01.JPG,AFNE01.JPG,AFNE01.JPG,0,1,1,7,,,,,,,,,,,,,,,,,,,,,,,AFNE02.jpg,AFNE01.jpg,AFSA14.jpg,AFSA03.jpg,AFNE01.jpg,FN,3,num_6,16,num_6,1.00016229413,,,2018_Jan_18_1404,60.0046959655,FEMA4ImagesEEG,001,102774,
AFNE01.JPG,AFNE01.JPG,AFNE01.JPG,AFNE01.JPG,AFNE01.JPG,AFNE01.JPG,0,2,2,3,,,,,,,,,,,,,,,,,,,,,,,AFNE11.jpg,AFSA01.jpg,AFNE08.jpg,AFSA16.jpg,AFSA01.jpg,FS,4,num_6,32,num_4,0.95008355286,,,2018_Jan_18_1404,60.0046959655,FEMA4ImagesEEG,001,102774,
AFNE01.JPG,AFNE01.JPG,AFNE01.JPG,AFNE01.JPG,AFNE01.JPG,AFNE01.JPG,0,3,3,6,,,,,,,,,,,,,,,,,,,,,,,AFSA09.jpg,AFNE14.jpg,AFSA06.jpg,AFNE16.jpg,AFSA09.jpg,FS,4,num_8,16,num_8,1.3166168984,,,2018_Jan_18_1404,60.0046959655,FEMA4ImagesEEG,001,102774,
AFNE01.JPG,AFNE01.JPG,AFNE01.JPG,AFNE01.JPG,AFNE01.JPG,AFNE01.JPG,0,4,4,4,,,,,,,,,,,,,,,,,,,,,,,AFSA02.jpg,AFNE11.jpg,AFNE03.jpg,AFSA08.jpg,AFSA08.jpg,FS,4,num_4,32,num_8,1.33341918513,,,2018_Jan_18_1404,60.0046959655,FEMA4ImagesEEG,001,102774,
AFNE01.JPG,AFNE01.JPG,AFNE01.JPG,AFNE01.JPG,AFNE01.JPG,AFNE01.JPG,0,5,5,8,,,,,,,,,,,,,,,,,,,,,,,AFNE16.jpg,AFNE19.jpg,AFSA16.jpg,AFSA07.jpg,AFSA16.jpg,FS,4,num_2,16,num_2,0.833457031753,,,2018_Jan_18_1404,60.0046959655,FEMA4ImagesEEG,001,102774,
AFNE01.JPG,AFNE01.JPG,AFNE01.JPG,AFNE01.JPG,AFNE01.JPG,AFNE01.JPG,0,6,6,5,,,,,,,,,,,,,,,,,,,,,,,AFNE08.jpg,AFNE20.jpg,AFSA07.jpg,AFSA16.jpg,AFNE08.jpg,FN,3,num_8,32,num_6,0.88346104091,,,2018_Jan_18_1404,60.0046959655,FEMA4ImagesEEG,001,102774,
AFNE01.JPG,AFNE01.JPG,AFNE01.JPG,AFNE01.JPG,AFNE01.JPG,AFNE01.JPG,0,7,7,9,,,,,,,,,,,,,,,,,,,,,,,AFNE13.jpg,AFNE06.jpg,AFSA20.jpg,AFSA15.jpg,AFSA20.jpg,FS,4,num_2,32,num_4,1.36646053754,,,2018_Jan_18_1404,60.0046959655,FEMA4ImagesEEG,001,102774,
AFNE01.JPG,AFNE01.JPG,AFNE01.JPG,AFNE01.JPG,AFNE01.JPG,AFNE01.JPG,0,8,8,2,,,,,,,,,,,,,,,,,,,,,,,AFNE10.jpg,AFSA12.jpg,AFNE13.jpg,AFSA19.jpg,AFSA12.jpg,FS,4,num_6,16,num_6,0.683498888742,,,2018_Jan_18_1404,60.0046959655,FEMA4ImagesEEG,001,102774,
AFNE01.JPG,AFNE01.JPG,AFNE01.JPG,AFNE01.JPG,AFNE01.JPG,AFNE01.JPG,0,9,9,1,,,,,,,,,,,,,,,,,,,,,,,AFNE12.jpg,AFSA09.jpg,AFSA03.jpg,AFNE05.jpg,AFSA03.jpg,FS,4,num_2,16,num_2,1.61670766817,,,2018_Jan_18_1404,60.0046959655,FEMA4ImagesEEG,001,102774,
AFNE01.JPG,AFNE01.JPG,AFNE01.JPG,AFNE01.JPG,AFNE01.JPG,AFNE01.JPG,1,0,10,8,,,,,,,,,,,,,,,,,,,,,,,AFNE20.jpg,AFNE09.jpg,AFSA08.jpg,AFSA12.jpg,AFNE09.jpg,FN,3,num_6,16,num_6,0.450405896641,,,2018_Jan_18_1404,60.0046959655,FEMA4ImagesEEG,001,102774,
AFNE01.JPG,AFNE01.JPG,AFNE01.JPG,AFNE01.JPG,AFNE01.JPG,AFNE01.JPG,1,1,11,5,,,,,,,,,,,,,,,,,,,,,,,AFSA02.jpg,AFNE03.jpg,AFSA10.jpg,AFNE12.jpg,AFSA10.jpg,FS,4,num_2,32,num_8,1.20009942958,,,2018_Jan_18_1404,60.0046959655,FEMA4ImagesEEG,001,102774,
AFNE01.JPG,AFNE01.JPG,AFNE01.JPG,AFNE01.JPG,AFNE01.JPG,AFNE01.JPG,1,2,12,7,,,,,,,,,,,,,,,,,,,,,,,AFSA08.jpg,AFSA15.jpg,AFNE07.jpg,AFNE19.jpg,AFNE19.jpg,FN,3,num_4,32,num_8,1.58339079935,,,2018_Jan_18_1404,60.0046959655,FEMA4ImagesEEG,001,102774,
AFNE01.JPG,AFNE01.JPG,AFNE01.JPG,AFNE01.JPG,AFNE01.JPG,AFNE01.JPG,1,3,13,2,,,,,,,,,,,,,,,,,,,,,,,AFNE09.jpg,AFNE11.jpg,AFSA07.jpg,AFSA05.jpg,AFNE11.jpg,FN,3,num_6,32,num_2,1.51674038358,,,2018_Jan_18_1404,60.0046959655,FEMA4ImagesEEG,001,102774,
AFNE01.JPG,AFNE01.JPG,AFNE01.JPG,AFNE01.JPG,AFNE01.JPG,AFNE01.JPG,1,4,14,9,,,,,,,,,,,,,,,,,,,,,,,AFSA02.jpg,AFSA17.jpg,AFNE04.jpg,AFNE10.jpg,AFSA02.jpg,FS,4,num_8,32,num_2,1.41669195145,,,2018_Jan_18_1404,60.0046959655,FEMA4ImagesEEG,001,102774,
AFNE01.JPG,AFNE01.JPG,AFNE01.JPG,AFNE01.JPG,AFNE01.JPG,AFNE01.JPG,1,5,15,0,,,,,,,,,,,,,,,,,,,,,,,AFNE12.jpg,AFNE19.jpg,AFSA15.jpg,AFSA17.jpg,AFNE12.jpg,FN,3,num_8,32,num_6,1.11680838047,,,2018_Jan_18_1404,60.0046959655,FEMA4ImagesEEG,001,102774,
AFNE01.JPG,AFNE01.JPG,AFNE01.JPG,AFNE01.JPG,AFNE01.JPG,AFNE01.JPG,1,6,16,3,,,,,,,,,,,,,,,,,,,,,,,AFNE16.jpg,AFNE17.jpg,AFSA14.jpg,AFSA12.jpg,AFSA14.jpg,FS,4,num_2,32,num_8,1.21671857312,,,2018_Jan_18_1404,60.0046959655,FEMA4ImagesEEG,001,102774,
AFNE01.JPG,AFNE01.JPG,AFNE01.JPG,AFNE01.JPG,AFNE01.JPG,AFNE01.JPG,1,7,17,4,,,,,,,,,,,,,,,,,,,,,,,AFNE14.jpg,AFNE06.jpg,AFSA11.jpg,AFSA09.jpg,AFNE06.jpg,FN,3,num_6,32,num_2,1.13341501495,,,2018_Jan_18_1404,60.0046959655,FEMA4ImagesEEG,001,102774,
AFNE01.JPG,AFNE01.JPG,AFNE01.JPG,AFNE01.JPG,AFNE01.JPG,AFNE01.JPG,1,8,18,1,,,,,,,,,,,,,,,,,,,,,,,AFNE11.jpg,AFNE14.jpg,AFSA11.jpg,AFSA19.jpg,AFNE11.jpg,FN,3,num_8,32,num_6,1.16659075813,,,2018_Jan_18_1404,60.0046959655,FEMA4ImagesEEG,001,102774,
AFNE01.JPG,AFNE01.JPG,AFNE01.JPG,AFNE01.JPG,AFNE01.JPG,AFNE01.JPG,1,9,19,6,,,,,,,,,,,,,,,,,,,,,,,AFNE10.jpg,AFSA14.jpg,AFSA06.jpg,AFNE15.jpg,AFSA14.jpg,FS,4,num_6,32,num_8,0.966759467497,,,2018_Jan_18_1404,60.0046959655,FEMA4ImagesEEG,001,102774,
AFNE01.JPG,AFNE01.JPG,AFNE01.JPG,AFNE01.JPG,AFNE01.JPG,AFNE01.JPG,2,0,20,9,,,,,,,,,,,,,,,,,,,,,,,AFNE18.jpg,AFNE09.jpg,AFSA16.jpg,AFSA05.jpg,AFSA16.jpg,FS,4,num_2,16,num_2,1.75037061516,,,2018_Jan_18_1404,60.0046959655,FEMA4ImagesEEG,001,102774,
AFNE01.JPG,AFNE01.JPG,AFNE01.JPG,AFNE01.JPG,AFNE01.JPG,AFNE01.JPG,2,1,21,0,,,,,,,,,,,,,,,,,,,,,,,AFSA03.jpg,AFNE15.jpg,AFNE18.jpg,AFSA18.jpg,AFSA03.jpg,FS,4,num_8,16,num_8,1.51672146004,,,2018_Jan_18_1404,60.0046959655,FEMA4ImagesEEG,001,102774,
AFNE01.JPG,AFNE01.JPG,AFNE01.JPG,AFNE01.JPG,AFNE01.JPG,AFNE01.JPG,2,2,22,2,,,,,,,,,,,,,,,,,,,,,,,AFNE13.jpg,AFNE18.jpg,AFSA17.jpg,AFSA20.jpg,AFNE18.jpg,FN,3,num_6,16,num_6,1.03342367522,,,2018_Jan_18_1404,60.0046959655,FEMA4ImagesEEG,001,102774,
AFNE01.JPG,AFNE01.JPG,AFNE01.JPG,AFNE01.JPG,AFNE01.JPG,AFNE01.JPG,2,3,23,6,,,,,,,,,,,,,,,,,,,,,,,AFSA07.jpg,AFSA01.jpg,AFNE07.jpg,AFNE10.jpg,AFSA01.jpg,FS,4,num_6,32,num_8,1.3001388805,,,2018_Jan_18_1404,60.0046959655,FEMA4ImagesEEG,001,102774,
AFNE01.JPG,AFNE01.JPG,AFNE01.JPG,AFNE01.JPG,AFNE01.JPG,AFNE01.JPG,2,4,24,5,,,,,,,,,,,,,,,,,,,,,,,AFNE08.jpg,AFSA16.jpg,AFNE11.jpg,AFSA05.jpg,AFNE08.jpg,FN,3,num_8,32,num_2,1.66667832015,,,2018_Jan_18_1404,60.0046959655,FEMA4ImagesEEG,001,102774,
AFNE01.JPG,AFNE01.JPG,AFNE01.JPG,AFNE01.JPG,AFNE01.JPG,AFNE01.JPG,2,5,25,3,,,,,,,,,,,,,,,,,,,,,,,AFNE17.jpg,AFSA04.jpg,AFNE18.jpg,AFSA11.jpg,AFNE17.jpg,FN,3,num_8,16,num_8,1.05016437918,,,2018_Jan_18_1404,60.0046959655,FEMA4ImagesEEG,001,102774,
AFNE01.JPG,AFNE01.JPG,AFNE01.JPG,AFNE01.JPG,AFNE01.JPG,AFNE01.JPG,2,6,26,7,,,,,,,,,,,,,,,,,,,,,,,AFSA13.jpg,AFNE06.jpg,AFNE12.jpg,AFSA10.jpg,AFNE12.jpg,FN,3,num_2,16,num_2,0.983441797085,,,2018_Jan_18_1404,60.0046959655,FEMA4ImagesEEG,001,102774,
AFNE01.JPG,AFNE01.JPG,AFNE01.JPG,AFNE01.JPG,AFNE01.JPG,AFNE01.JPG,2,7,27,1,,,,,,,,,,,,,,,,,,,,,,,AFNE11.jpg,AFNE17.jpg,AFSA05.jpg,AFSA16.jpg,AFSA16.jpg,FS,4,num_4,16,num_4,1.50010103313,,,2018_Jan_18_1404,60.0046959655,FEMA4ImagesEEG,001,102774,
AFNE01.JPG,AFNE01.JPG,AFNE01.JPG,AFNE01.JPG,AFNE01.JPG,AFNE01.JPG,2,8,28,8,,,,,,,,,,,,,,,,,,,,,,,AFNE18.jpg,AFSA13.jpg,AFNE06.jpg,AFSA16.jpg,AFSA13.jpg,FS,4,num_6,32,num_2,1.58341774158,,,2018_Jan_18_1404,60.0046959655,FEMA4ImagesEEG,001,102774,
AFNE01.JPG,AFNE01.JPG,AFNE01.JPG,AFNE01.JPG,AFNE01.JPG,AFNE01.JPG,2,9,29,4,,,,,,,,,,,,,,,,,,,,,,,AFSA18.jpg,AFSA06.jpg,AFNE09.jpg,AFNE06.jpg,AFNE09.jpg,FN,3,num_2,32,num_8,1.33343393914,,,2018_Jan_18_1404,60.0046959655,FEMA4ImagesEEG,001,102774,
AFNE01.JPG,AFNE01.JPG,AFNE01.JPG,AFNE01.JPG,AFNE01.JPG,AFNE01.JPG,3,0,30,3,,,,,,,,,,,,,,,,,,,,,,,AFNE06.jpg,AFSA19.jpg,AFSA03.jpg,AFNE16.jpg,AFSA03.jpg,FS,4,num_2,32,num_6,1.31675577862,,,2018_Jan_18_1404,60.0046959655,FEMA4ImagesEEG,001,102774,
AFNE01.JPG,AFNE01.JPG,AFNE01.JPG,AFNE01.JPG,AFNE01.JPG,AFNE01.JPG,3,1,31,7,,,,,,,,,,,,,,,,,,,,,,,AFNE19.jpg,AFNE08.jpg,AFSA03.jpg,AFSA02.jpg,AFSA02.jpg,FS,4,num_4,32,num_2,1.13345606951,,,2018_Jan_18_1404,60.0046959655,FEMA4ImagesEEG,001,102774,
AFNE01.JPG,AFNE01.JPG,AFNE01.JPG,AFNE01.JPG,AFNE01.JPG,AFNE01.JPG,3,2,32,5,,,,,,,,,,,,,,,,,,,,,,,AFSA20.jpg,AFSA19.jpg,AFNE20.jpg,AFNE05.jpg,AFSA19.jpg,FS,4,num_6,16,num_6,1.15011113649,,,2018_Jan_18_1404,60.0046959655,FEMA4ImagesEEG,001,102774,
AFNE01.JPG,AFNE01.JPG,AFNE01.JPG,AFNE01.JPG,AFNE01.JPG,AFNE01.JPG,3,3,33,8,,,,,,,,,,,,,,,,,,,,,,,AFSA03.jpg,AFNE13.jpg,AFSA20.jpg,AFNE03.jpg,AFSA20.jpg,FS,4,num_2,32,num_8,1.05000978243,,,2018_Jan_18_1404,60.0046959655,FEMA4ImagesEEG,001,102774,
AFNE01.JPG,AFNE01.JPG,AFNE01.JPG,AFNE01.JPG,AFNE01.JPG,AFNE01.JPG,3,4,34,9,,,,,,,,,,,,,,,,,,,,,,,AFSA02.jpg,AFSA05.jpg,AFNE09.jpg,AFNE01.jpg,AFNE01.jpg,FN,3,num_4,16,num_4,1.06681591785,,,2018_Jan_18_1404,60.0046959655,FEMA4ImagesEEG,001,102774,
AFNE01.JPG,AFNE01.JPG,AFNE01.JPG,AFNE01.JPG,AFNE01.JPG,AFNE01.JPG,3,5,35,6,,,,,,,,,,,,,,,,,,,,,,,AFNE09.jpg,AFNE15.jpg,AFSA04.jpg,AFSA13.jpg,AFSA13.jpg,FS,4,num_4,32,num_8,1.28207961423,,,2018_Jan_18_1404,60.0046959655,FEMA4ImagesEEG,001,102774,
AFNE01.JPG,AFNE01.JPG,AFNE01.JPG,AFNE01.JPG,AFNE01.JPG,AFNE01.JPG,3,6,36,1,,,,,,,,,,,,,,,,,,,,,,,AFSA10.jpg,AFSA03.jpg,AFNE15.jpg,AFNE11.jpg,AFNE11.jpg,FN,3,num_4,32,num_2,1.51672466705,,,2018_Jan_18_1404,60.0046959655,FEMA4ImagesEEG,001,102774,
AFNE01.JPG,AFNE01.JPG,AFNE01.JPG,AFNE01.JPG,AFNE01.JPG,AFNE01.JPG,3,7,37,2,,,,,,,,,,,,,,,,,,,,,,,AFSA14.jpg,AFNE01.jpg,AFSA13.jpg,AFNE08.jpg,AFNE08.jpg,FN,3,num_4,32,num_8,1.28347771941,,,2018_Jan_18_1404,60.0046959655,FEMA4ImagesEEG,001,102774,
AFNE01.JPG,AFNE01.JPG,AFNE01.JPG,AFNE01.JPG,AFNE01.JPG,AFNE01.JPG,3,8,38,0,,,,,,,,,,,,,,,,,,,,,,,AFNE12.jpg,AFNE13.jpg,AFSA14.jpg,AFSA06.jpg,AFSA06.jpg,FS,4,num_4,32,num_6,1.03332424583,,,2018_Jan_18_1404,60.0046959655,FEMA4ImagesEEG,001,102774,
AFNE01.JPG,AFNE01.JPG,AFNE01.JPG,AFNE01.JPG,AFNE01.JPG,AFNE01.JPG,3,9,39,4,,,,,,,,,,,,,,,,,,,,,,,AFSA03.jpg,AFNE13.jpg,AFNE11.jpg,AFSA11.jpg,AFNE13.jpg,FN,3,num_6,32,num_2,1.08342511812,,,2018_Jan_18_1404,60.0046959655,FEMA4ImagesEEG,001,102774,
AFNE01.JPG,AFNE01.JPG,AFNE01.JPG,AFNE01.JPG,AFNE01.JPG,AFNE01.JPG,4,0,40,1,,,,,,,,,,,,,,,,,,,,,,,AFSA16.jpg,AFNE18.jpg,AFSA07.jpg,AFNE06.jpg,AFNE18.jpg,FN,3,num_6,32,num_8,1.35009894846,,,2018_Jan_18_1404,60.0046959655,FEMA4ImagesEEG,001,102774,
AFNE01.JPG,AFNE01.JPG,AFNE01.JPG,AFNE01.JPG,AFNE01.JPG,AFNE01.JPG,4,1,41,7,,,,,,,,,,,,,,,,,,,,,,,AFSA12.jpg,AFSA11.jpg,AFNE03.jpg,AFNE05.jpg,AFNE05.jpg,FN,3,num_4,32,num_2,1.2667588261,,,2018_Jan_18_1404,60.0046959655,FEMA4ImagesEEG,001,102774,
AFNE01.JPG,AFNE01.JPG,AFNE01.JPG,AFNE01.JPG,AFNE01.JPG,AFNE01.JPG,4,2,42,3,,,,,,,,,,,,,,,,,,,,,,,AFNE19.jpg,AFSA08.jpg,AFNE10.jpg,AFSA18.jpg,AFSA18.jpg,FS,4,num_4,16,num_4,0.76679859776,,,2018_Jan_18_1404,60.0046959655,FEMA4ImagesEEG,001,102774,
AFNE01.JPG,AFNE01.JPG,AFNE01.JPG,AFNE01.JPG,AFNE01.JPG,AFNE01.JPG,4,3,43,5,,,,,,,,,,,,,,,,,,,,,,,AFNE08.jpg,AFSA19.jpg,AFSA01.jpg,AFNE11.jpg,AFSA01.jpg,FS,4,num_2,16,num_2,1.43345799437,,,2018_Jan_18_1404,60.0046959655,FEMA4ImagesEEG,001,102774,
AFNE01.JPG,AFNE01.JPG,AFNE01.JPG,AFNE01.JPG,AFNE01.JPG,AFNE01.JPG,4,4,44,8,,,,,,,,,,,,,,,,,,,,,,,AFSA10.jpg,AFNE16.jpg,AFSA15.jpg,AFNE07.jpg,AFSA15.jpg,FS,4,num_2,32,num_6,1.33346569212,,,2018_Jan_18_1404,60.0046959655,FEMA4ImagesEEG,001,102774,
AFNE01.JPG,AFNE01.JPG,AFNE01.JPG,AFNE01.JPG,AFNE01.JPG,AFNE01.JPG,4,5,45,4,,,,,,,,,,,,,,,,,,,,,,,AFSA15.jpg,AFNE18.jpg,AFNE12.jpg,AFSA05.jpg,AFNE12.jpg,FN,3,num_2,16,num_2,1.4500396112,,,2018_Jan_18_1404,60.0046959655,FEMA4ImagesEEG,001,102774,
AFNE01.JPG,AFNE01.JPG,AFNE01.JPG,AFNE01.JPG,AFNE01.JPG,AFNE01.JPG,4,6,46,6,,,,,,,,,,,,,,,,,,,,,,,AFNE18.jpg,AFSA08.jpg,AFSA15.jpg,AFNE11.jpg,AFNE18.jpg,FN,3,num_8,16,num_8,1.23346825782,,,2018_Jan_18_1404,60.0046959655,FEMA4ImagesEEG,001,102774,
AFNE01.JPG,AFNE01.JPG,AFNE01.JPG,AFNE01.JPG,AFNE01.JPG,AFNE01.JPG,4,7,47,9,,,,,,,,,,,,,,,,,,,,,,,AFSA02.jpg,AFNE19.jpg,AFNE20.jpg,AFSA13.jpg,AFSA13.jpg,FS,4,num_4,16,num_4,0.633476918098,,,2018_Jan_18_1404,60.0046959655,FEMA4ImagesEEG,001,102774,
AFNE01.JPG,AFNE01.JPG,AFNE01.JPG,AFNE01.JPG,AFNE01.JPG,AFNE01.JPG,4,8,48,2,,,,,,,,,,,,,,,,,,,,,,,AFSA14.jpg,AFNE08.jpg,AFSA04.jpg,AFNE18.jpg,AFSA14.jpg,FS,4,num_8,32,num_2,1.36673156312,,,2018_Jan_18_1404,60.0046959655,FEMA4ImagesEEG,001,102774,
AFNE01.JPG,AFNE01.JPG,AFNE01.JPG,AFNE01.JPG,AFNE01.JPG,AFNE01.JPG,4,9,49,0,,,,,,,,,,,,,,,,,,,,,,,AFNE14.jpg,AFSA14.jpg,AFNE10.jpg,AFSA13.jpg,AFSA13.jpg,FS,4,num_4,32,num_8,1.0334682581,,,2018_Jan_18_1404,60.0046959655,FEMA4ImagesEEG,001,102774,
AFNE01.JPG,AFNE01.JPG,AFNE01.JPG,AFNE01.JPG,AFNE01.JPG,AFNE01.JPG,5,0,50,8,,,,,,,,,,,,,,,,,,,,,,,AFSA11.jpg,AFNE15.jpg,AFSA06.jpg,AFNE17.jpg,AFNE17.jpg,FN,3,num_4,32,num_6,1.21677823085,,,2018_Jan_18_1404,60.0046959655,FEMA4ImagesEEG,001,102774,
AFNE01.JPG,AFNE01.JPG,AFNE01.JPG,AFNE01.JPG,AFNE01.JPG,AFNE01.JPG,5,1,51,3,,,,,,,,,,,,,,,,,,,,,,,AFSA11.jpg,AFNE20.jpg,AFSA17.jpg,AFNE08.jpg,AFSA11.jpg,FS,4,num_8,32,num_2,1.0500925337,,,2018_Jan_18_1404,60.0046959655,FEMA4ImagesEEG,001,102774,
AFNE01.JPG,AFNE01.JPG,AFNE01.JPG,AFNE01.JPG,AFNE01.JPG,AFNE01.JPG,5,2,52,4,,,,,,,,,,,,,,,,,,,,,,,AFSA14.jpg,AFNE12.jpg,AFSA07.jpg,AFNE17.jpg,AFSA14.jpg,FS,4,num_8,16,num_8,0.733711379115,,,2018_Jan_18_1404,60.0046959655,FEMA4ImagesEEG,001,102774,
AFNE01.JPG,AFNE01.JPG,AFNE01.JPG,AFNE01.JPG,AFNE01.JPG,AFNE01.JPG,5,3,53,5,,,,,,,,,,,,,,,,,,,,,,,AFNE11.jpg,AFSA20.jpg,AFNE19.jpg,AFSA15.jpg,AFNE19.jpg,FN,3,num_2,32,num_8,0.966779353563,,,2018_Jan_18_1404,60.0046959655,FEMA4ImagesEEG,001,102774,
AFNE01.JPG,AFNE01.JPG,AFNE01.JPG,AFNE01.JPG,AFNE01.JPG,AFNE01.JPG,5,4,54,1,,,,,,,,,,,,,,,,,,,,,,,AFNE19.jpg,AFSA09.jpg,AFSA04.jpg,AFNE01.jpg,AFSA09.jpg,FS,4,num_6,16,num_6,0.933449975681,,,2018_Jan_18_1404,60.0046959655,FEMA4ImagesEEG,001,102774,
AFNE01.JPG,AFNE01.JPG,AFNE01.JPG,AFNE01.JPG,AFNE01.JPG,AFNE01.JPG,5,5,55,6,,,,,,,,,,,,,,,,,,,,,,,AFNE04.jpg,AFNE07.jpg,AFSA13.jpg,AFSA04.jpg,AFNE04.jpg,FN,3,num_8,16,num_8,1.00011707051,,,2018_Jan_18_1404,60.0046959655,FEMA4ImagesEEG,001,102774,
AFNE01.JPG,AFNE01.JPG,AFNE01.JPG,AFNE01.JPG,AFNE01.JPG,AFNE01.JPG,5,6,56,9,,,,,,,,,,,,,,,,,,,,,,,AFSA13.jpg,AFNE07.jpg,AFNE09.jpg,AFSA16.jpg,AFSA16.jpg,FS,4,num_4,16,num_4,1.21668297099,,,2018_Jan_18_1404,60.0046959655,FEMA4ImagesEEG,001,102774,
AFNE01.JPG,AFNE01.JPG,AFNE01.JPG,AFNE01.JPG,AFNE01.JPG,AFNE01.JPG,5,7,57,0,,,,,,,,,,,,,,,,,,,,,,,AFNE06.jpg,AFNE16.jpg,AFSA02.jpg,AFSA14.jpg,AFSA02.jpg,FS,4,num_2,32,num_8,1.1167317233,,,2018_Jan_18_1404,60.0046959655,FEMA4ImagesEEG,001,102774,
AFNE01.JPG,AFNE01.JPG,AFNE01.JPG,AFNE01.JPG,AFNE01.JPG,AFNE01.JPG,5,8,58,7,,,,,,,,,,,,,,,,,,,,,,,AFNE15.jpg,AFSA12.jpg,AFSA10.jpg,AFNE09.jpg,AFSA12.jpg,FS,4,num_6,32,num_2,1.11661304953,,,2018_Jan_18_1404,60.0046959655,FEMA4ImagesEEG,001,102774,
AFNE01.JPG,AFNE01.JPG,AFNE01.JPG,AFNE01.JPG,AFNE01.JPG,AFNE01.JPG,5,9,59,2,,,,,,,,,,,,,,,,,,,,,,,AFSA13.jpg,AFNE11.jpg,AFSA18.jpg,AFNE15.jpg,AFNE11.jpg,FN,3,num_6,32,num_2,1.36673573265,,,2018_Jan_18_1404,60.0046959655,FEMA4ImagesEEG,001,102774,
,,,,,,,,,,,,,,,,,,,,,,,,,,,,,,,,,,,,,,,,,,,space,3.63292588666,2018_Jan_18_1404,60.0046959655,FEMA4ImagesEEG,001,102774,
AFNE01.JPG,AFNE01.JPG,AFNE01.JPG,AFNE01.JPG,AFNE01.JPG,AFNE01.JPG,,,,,0,0,0,6,,,,,,,,,,,,,,,,,,,AMNE10.jpg,AMNE07.jpg,AMSA12.jpg,AMSA07.jpg,AMSA12.jpg,MS,2,num_2,16,num_2,0.95015315339,,,2018_Jan_18_1404,60.0046959655,FEMA4ImagesEEG,001,102774,
AFNE01.JPG,AFNE01.JPG,AFNE01.JPG,AFNE01.JPG,AFNE01.JPG,AFNE01.JPG,,,,,0,1,1,2,,,,,,,,,,,,,,,,,,,AMNE11.jpg,AMSA07.jpg,AMSA01.jpg,AMNE02.jpg,AMSA07.jpg,MS,2,num_6,16,num_6,1.08345398493,,,2018_Jan_18_1404,60.0046959655,FEMA4ImagesEEG,001,102774,
AFNE01.JPG,AFNE01.JPG,AFNE01.JPG,AFNE01.JPG,AFNE01.JPG,AFNE01.JPG,,,,,0,2,2,4,,,,,,,,,,,,,,,,,,,AMNE10.jpg,AMSA05.jpg,AMSA09.jpg,AMNE17.jpg,AMSA05.jpg,MS,2,num_6,32,num_4,0.966811748222,,,2018_Jan_18_1404,60.0046959655,FEMA4ImagesEEG,001,102774,
AFNE01.JPG,AFNE01.JPG,AFNE01.JPG,AFNE01.JPG,AFNE01.JPG,AFNE01.JPG,,,,,0,3,3,9,,,,,,,,,,,,,,,,,,,AMSA06.jpg,AMSA18.jpg,AMNE19.jpg,AMNE11.jpg,AMSA06.jpg,MS,2,num_8,16,num_8,1.01671632798,,,2018_Jan_18_1404,60.0046959655,FEMA4ImagesEEG,001,102774,
AFNE01.JPG,AFNE01.JPG,AFNE01.JPG,AFNE01.JPG,AFNE01.JPG,AFNE01.JPG,,,,,0,4,4,7,,,,,,,,,,,,,,,,,,,AMSA05.jpg,AMNE05.jpg,AMNE06.jpg,AMSA16.jpg,AMNE06.jpg,MN,1,num_2,32,num_4,1.83334124461,,,2018_Jan_18_1404,60.0046959655,FEMA4ImagesEEG,001,102774,
AFNE01.JPG,AFNE01.JPG,AFNE01.JPG,AFNE01.JPG,AFNE01.JPG,AFNE01.JPG,,,,,0,5,5,1,,,,,,,,,,,,,,,,,,,AMSA06.jpg,AMNE02.jpg,AMNE08.jpg,AMSA10.jpg,AMNE02.jpg,MN,1,num_6,32,num_2,1.03348044632,,,2018_Jan_18_1404,60.0046959655,FEMA4ImagesEEG,001,102774,
AFNE01.JPG,AFNE01.JPG,AFNE01.JPG,AFNE01.JPG,AFNE01.JPG,AFNE01.JPG,,,,,0,6,6,5,,,,,,,,,,,,,,,,,,,AMSA04.jpg,AMSA15.jpg,AMNE11.jpg,AMNE06.jpg,AMNE11.jpg,MN,1,num_2,32,num_8,0.716741987038,,,2018_Jan_18_1404,60.0046959655,FEMA4ImagesEEG,001,102774,
AFNE01.JPG,AFNE01.JPG,AFNE01.JPG,AFNE01.JPG,AFNE01.JPG,AFNE01.JPG,,,,,0,7,7,0,,,,,,,,,,,,,,,,,,,AMNE06.jpg,AMSA17.jpg,AMNE04.jpg,AMSA07.jpg,AMNE04.jpg,MN,1,num_2,32,num_6,1.15013230545,,,2018_Jan_18_1404,60.0046959655,FEMA4ImagesEEG,001,102774,
AFNE01.JPG,AFNE01.JPG,AFNE01.JPG,AFNE01.JPG,AFNE01.JPG,AFNE01.JPG,,,,,0,8,8,8,,,,,,,,,,,,,,,,,,,AMSA13.jpg,AMNE19.jpg,AMNE04.jpg,AMSA03.jpg,AMNE04.jpg,MN,1,num_2,16,num_2,0.866825860925,,,2018_Jan_18_1404,60.0046959655,FEMA4ImagesEEG,001,102774,
AFNE01.JPG,AFNE01.JPG,AFNE01.JPG,AFNE01.JPG,AFNE01.JPG,AFNE01.JPG,,,,,0,9,9,3,,,,,,,,,,,,,,,,,,,AMNE19.jpg,AMSA12.jpg,AMSA16.jpg,AMNE14.jpg,AMNE14.jpg,MN,1,num_4,32,num_8,0.900230932981,,,2018_Jan_18_1404,60.0046959655,FEMA4ImagesEEG,001,102774,
AFNE01.JPG,AFNE01.JPG,AFNE01.JPG,AFNE01.JPG,AFNE01.JPG,AFNE01.JPG,,,,,1,0,10,9,,,,,,,,,,,,,,,,,,,AMSA02.jpg,AMNE05.jpg,AMSA17.jpg,AMNE16.jpg,AMNE16.jpg,MN,1,num_4,32,num_8,1.45006494969,,,2018_Jan_18_1404,60.0046959655,FEMA4ImagesEEG,001,102774,
AFNE01.JPG,AFNE01.JPG,AFNE01.JPG,AFNE01.JPG,AFNE01.JPG,AFNE01.JPG,,,,,1,1,11,0,,,,,,,,,,,,,,,,,,,AMNE07.jpg,AMSA18.jpg,AMNE13.jpg,AMSA08.jpg,AMSA18.jpg,MS,2,num_6,16,num_6,1.01681062533,,,2018_Jan_18_1404,60.0046959655,FEMA4ImagesEEG,001,102774,
AFNE01.JPG,AFNE01.JPG,AFNE01.JPG,AFNE01.JPG,AFNE01.JPG,AFNE01.JPG,,,,,1,2,12,2,,,,,,,,,,,,,,,,,,,AMSA02.jpg,AMSA01.jpg,AMNE17.jpg,AMNE07.jpg,AMSA01.jpg,MS,2,num_6,32,num_4,0.850130701438,,,2018_Jan_18_1404,60.0046959655,FEMA4ImagesEEG,001,102774,
AFNE01.JPG,AFNE01.JPG,AFNE01.JPG,AFNE01.JPG,AFNE01.JPG,AFNE01.JPG,,,,,1,3,13,7,,,,,,,,,,,,,,,,,,,AMNE01.jpg,AMNE12.jpg,AMSA04.jpg,AMSA13.jpg,AMNE01.jpg,MN,1,num_8,16,num_8,1.00040509459,,,2018_Jan_18_1404,60.0046959655,FEMA4ImagesEEG,001,102774,
AFNE01.JPG,AFNE01.JPG,AFNE01.JPG,AFNE01.JPG,AFNE01.JPG,AFNE01.JPG,,,,,1,4,14,6,,,,,,,,,,,,,,,,,,,AMNE04.jpg,AMNE16.jpg,AMSA03.jpg,AMSA04.jpg,AMNE16.jpg,MN,1,num_6,32,num_8,1.55006655352,,,2018_Jan_18_1404,60.0046959655,FEMA4ImagesEEG,001,102774,
AFNE01.JPG,AFNE01.JPG,AFNE01.JPG,AFNE01.JPG,AFNE01.JPG,AFNE01.JPG,,,,,1,5,15,4,,,,,,,,,,,,,,,,,,,AMSA12.jpg,AMNE13.jpg,AMSA13.jpg,AMNE02.jpg,AMSA12.jpg,MS,2,num_8,32,num_2,1.08346809726,,,2018_Jan_18_1404,60.0046959655,FEMA4ImagesEEG,001,102774,
AFNE01.JPG,AFNE01.JPG,AFNE01.JPG,AFNE01.JPG,AFNE01.JPG,AFNE01.JPG,,,,,1,6,16,3,,,,,,,,,,,,,,,,,,,AMSA10.jpg,AMSA09.jpg,AMNE04.jpg,AMNE18.jpg,AMNE04.jpg,MN,1,num_2,32,num_4,1.03348044632,,,2018_Jan_18_1404,60.0046959655,FEMA4ImagesEEG,001,102774,
AFNE01.JPG,AFNE01.JPG,AFNE01.JPG,AFNE01.JPG,AFNE01.JPG,AFNE01.JPG,,,,,1,7,17,1,,,,,,,,,,,,,,,,,,,AMNE15.jpg,AMNE11.jpg,AMSA06.jpg,AMSA13.jpg,AMSA13.jpg,MS,2,num_4,32,num_6,0.850110174157,,,2018_Jan_18_1404,60.0046959655,FEMA4ImagesEEG,001,102774,
AFNE01.JPG,AFNE01.JPG,AFNE01.JPG,AFNE01.JPG,AFNE01.JPG,AFNE01.JPG,,,,,1,8,18,5,,,,,,,,,,,,,,,,,,,AMSA01.jpg,AMNE06.jpg,AMNE03.jpg,AMSA13.jpg,AMNE03.jpg,MN,1,num_2,32,num_8,1.0001295791,,,2018_Jan_18_1404,60.0046959655,FEMA4ImagesEEG,001,102774,
AFNE01.JPG,AFNE01.JPG,AFNE01.JPG,AFNE01.JPG,AFNE01.JPG,AFNE01.JPG,,,,,1,9,19,8,,,,,,,,,,,,,,,,,,,AMNE09.jpg,AMSA03.jpg,AMNE14.jpg,AMSA02.jpg,AMNE09.jpg,MN,1,num_8,16,num_8,1.28341068514,,,2018_Jan_18_1404,60.0046959655,FEMA4ImagesEEG,001,102774,
AFNE01.JPG,AFNE01.JPG,AFNE01.JPG,AFNE01.JPG,AFNE01.JPG,AFNE01.JPG,,,,,2,0,20,6,,,,,,,,,,,,,,,,,,,AMNE07.jpg,AMSA19.jpg,AMSA06.jpg,AMNE18.jpg,AMNE18.jpg,MN,1,num_4,32,num_2,1.08343955176,,,2018_Jan_18_1404,60.0046959655,FEMA4ImagesEEG,001,102774,
AFNE01.JPG,AFNE01.JPG,AFNE01.JPG,AFNE01.JPG,AFNE01.JPG,AFNE01.JPG,,,,,2,1,21,7,,,,,,,,,,,,,,,,,,,AMNE07.jpg,AMSA06.jpg,AMSA14.jpg,AMNE04.jpg,AMSA06.jpg,MS,2,num_6,32,num_4,1.15007970389,,,2018_Jan_18_1404,60.0046959655,FEMA4ImagesEEG,001,102774,
AFNE01.JPG,AFNE01.JPG,AFNE01.JPG,AFNE01.JPG,AFNE01.JPG,AFNE01.JPG,,,,,2,2,22,1,,,,,,,,,,,,,,,,,,,AMNE18.jpg,AMNE04.jpg,AMSA17.jpg,AMSA18.jpg,AMNE18.jpg,MN,1,num_8,32,num_4,1.03337396076,,,2018_Jan_18_1404,60.0046959655,FEMA4ImagesEEG,001,102774,
AFNE01.JPG,AFNE01.JPG,AFNE01.JPG,AFNE01.JPG,AFNE01.JPG,AFNE01.JPG,,,,,2,3,23,8,,,,,,,,,,,,,,,,,,,AMNE09.jpg,AMSA17.jpg,AMSA12.jpg,AMNE20.jpg,AMNE09.jpg,MN,1,num_8,16,num_8,1.25009542052,,,2018_Jan_18_1404,60.0046959655,FEMA4ImagesEEG,001,102774,
AFNE01.JPG,AFNE01.JPG,AFNE01.JPG,AFNE01.JPG,AFNE01.JPG,AFNE01.JPG,,,,,2,4,24,0,,,,,,,,,,,,,,,,,,,AMSA17.jpg,AMSA10.jpg,AMNE19.jpg,AMNE03.jpg,AMNE03.jpg,MN,1,num_4,16,num_4,0.683475153986,,,2018_Jan_18_1404,60.0046959655,FEMA4ImagesEEG,001,102774,
AFNE01.JPG,AFNE01.JPG,AFNE01.JPG,AFNE01.JPG,AFNE01.JPG,AFNE01.JPG,,,,,2,5,25,5,,,,,,,,,,,,,,,,,,,AMSA18.jpg,AMSA16.jpg,AMNE09.jpg,AMNE19.jpg,AMSA16.jpg,MS,2,num_6,32,num_8,1.05009670323,,,2018_Jan_18_1404,60.0046959655,FEMA4ImagesEEG,001,102774,
AFNE01.JPG,AFNE01.JPG,AFNE01.JPG,AFNE01.JPG,AFNE01.JPG,AFNE01.JPG,,,,,2,6,26,3,,,,,,,,,,,,,,,,,,,AMSA01.jpg,AMNE20.jpg,AMSA08.jpg,AMNE08.jpg,AMSA01.jpg,MS,2,num_8,32,num_6,1.15011498565,,,2018_Jan_18_1404,60.0046959655,FEMA4ImagesEEG,001,102774,
AFNE01.JPG,AFNE01.JPG,AFNE01.JPG,AFNE01.JPG,AFNE01.JPG,AFNE01.JPG,,,,,2,7,27,2,,,,,,,,,,,,,,,,,,,AMSA15.jpg,AMNE20.jpg,AMNE11.jpg,AMSA20.jpg,AMSA15.jpg,MS,2,num_8,32,num_2,1.11672274256,,,2018_Jan_18_1404,60.0046959655,FEMA4ImagesEEG,001,102774,
AFNE01.JPG,AFNE01.JPG,AFNE01.JPG,AFNE01.JPG,AFNE01.JPG,AFNE01.JPG,,,,,2,8,28,4,,,,,,,,,,,,,,,,,,,AMNE17.jpg,AMNE02.jpg,AMSA05.jpg,AMSA11.jpg,AMSA11.jpg,MS,2,num_4,32,num_8,1.11674134573,,,2018_Jan_18_1404,60.0046959655,FEMA4ImagesEEG,001,102774,
AFNE01.JPG,AFNE01.JPG,AFNE01.JPG,AFNE01.JPG,AFNE01.JPG,AFNE01.JPG,,,,,2,9,29,9,,,,,,,,,,,,,,,,,,,AMSA01.jpg,AMNE08.jpg,AMSA17.jpg,AMNE14.jpg,AMNE14.jpg,MN,1,num_4,32,num_2,1.65004249802,,,2018_Jan_18_1404,60.0046959655,FEMA4ImagesEEG,001,102774,
AFNE01.JPG,AFNE01.JPG,AFNE01.JPG,AFNE01.JPG,AFNE01.JPG,AFNE01.JPG,,,,,3,0,30,8,,,,,,,,,,,,,,,,,,,AMNE01.jpg,AMSA18.jpg,AMSA15.jpg,AMNE20.jpg,AMSA18.jpg,MS,2,num_6,32,num_4,1.63344612718,,,2018_Jan_18_1404,60.0046959655,FEMA4ImagesEEG,001,102774,
AFNE01.JPG,AFNE01.JPG,AFNE01.JPG,AFNE01.JPG,AFNE01.JPG,AFNE01.JPG,,,,,3,1,31,9,,,,,,,,,,,,,,,,,,,AMSA01.jpg,AMNE16.jpg,AMSA20.jpg,AMNE02.jpg,AMNE16.jpg,MN,1,num_6,32,num_8,1.1001655017,,,2018_Jan_18_1404,60.0046959655,FEMA4ImagesEEG,001,102774,
AFNE01.JPG,AFNE01.JPG,AFNE01.JPG,AFNE01.JPG,AFNE01.JPG,AFNE01.JPG,,,,,3,2,32,1,,,,,,,,,,,,,,,,,,,AMSA16.jpg,AMNE07.jpg,AMNE13.jpg,AMSA17.jpg,AMSA17.jpg,MS,2,num_4,16,num_4,1.11662716232,,,2018_Jan_18_1404,60.0046959655,FEMA4ImagesEEG,001,102774,
AFNE01.JPG,AFNE01.JPG,AFNE01.JPG,AFNE01.JPG,AFNE01.JPG,AFNE01.JPG,,,,,3,3,33,6,,,,,,,,,,,,,,,,,,,AMNE11.jpg,AMNE19.jpg,AMSA08.jpg,AMSA16.jpg,AMNE19.jpg,MN,1,num_6,32,num_8,1.70006414782,,,2018_Jan_18_1404,60.0046959655,FEMA4ImagesEEG,001,102774,
AFNE01.JPG,AFNE01.JPG,AFNE01.JPG,AFNE01.JPG,AFNE01.JPG,AFNE01.JPG,,,,,3,4,34,3,,,,,,,,,,,,,,,,,,,AMNE20.jpg,AMNE03.jpg,AMSA09.jpg,AMSA19.jpg,AMNE03.jpg,MN,1,num_6,16,num_6,0.8668162385,,,2018_Jan_18_1404,60.0046959655,FEMA4ImagesEEG,001,102774,
AFNE01.JPG,AFNE01.JPG,AFNE01.JPG,AFNE01.JPG,AFNE01.JPG,AFNE01.JPG,,,,,3,5,35,2,,,,,,,,,,,,,,,,,,,AMNE03.jpg,AMSA05.jpg,AMSA09.jpg,AMNE11.jpg,AMSA09.jpg,MS,2,num_2,32,num_6,1.06673124246,,,2018_Jan_18_1404,60.0046959655,FEMA4ImagesEEG,001,102774,
AFNE01.JPG,AFNE01.JPG,AFNE01.JPG,AFNE01.JPG,AFNE01.JPG,AFNE01.JPG,,,,,3,6,36,0,,,,,,,,,,,,,,,,,,,AMNE03.jpg,AMNE19.jpg,AMSA09.jpg,AMSA13.jpg,AMNE03.jpg,MN,1,num_8,16,num_8,1.11692256387,,,2018_Jan_18_1404,60.0046959655,FEMA4ImagesEEG,001,102774,
AFNE01.JPG,AFNE01.JPG,AFNE01.JPG,AFNE01.JPG,AFNE01.JPG,AFNE01.JPG,,,,,3,7,37,5,,,,,,,,,,,,,,,,,,,AMNE04.jpg,AMSA07.jpg,AMSA11.jpg,AMNE13.jpg,AMNE04.jpg,MN,1,num_8,16,num_8,0.683590941131,,,2018_Jan_18_1404,60.0046959655,FEMA4ImagesEEG,001,102774,
AFNE01.JPG,AFNE01.JPG,AFNE01.JPG,AFNE01.JPG,AFNE01.JPG,AFNE01.JPG,,,,,3,8,38,4,,,,,,,,,,,,,,,,,,,AMNE13.jpg,AMNE09.jpg,AMSA03.jpg,AMSA17.jpg,AMNE13.jpg,MN,1,num_8,32,num_4,0.950179133099,,,2018_Jan_18_1404,60.0046959655,FEMA4ImagesEEG,001,102774,
AFNE01.JPG,AFNE01.JPG,AFNE01.JPG,AFNE01.JPG,AFNE01.JPG,AFNE01.JPG,,,,,3,9,39,7,,,,,,,,,,,,,,,,,,,AMNE15.jpg,AMNE13.jpg,AMSA10.jpg,AMSA07.jpg,AMSA07.jpg,MS,2,num_4,32,num_2,0.800169992261,,,2018_Jan_18_1404,60.0046959655,FEMA4ImagesEEG,001,102774,
AFNE01.JPG,AFNE01.JPG,AFNE01.JPG,AFNE01.JPG,AFNE01.JPG,AFNE01.JPG,,,,,4,0,40,7,,,,,,,,,,,,,,,,,,,AMSA20.jpg,AMNE17.jpg,AMNE03.jpg,AMSA11.jpg,AMSA20.jpg,MS,2,num_8,16,num_8,0.71680966299,,,2018_Jan_18_1404,60.0046959655,FEMA4ImagesEEG,001,102774,
AFNE01.JPG,AFNE01.JPG,AFNE01.JPG,AFNE01.JPG,AFNE01.JPG,AFNE01.JPG,,,,,4,1,41,2,,,,,,,,,,,,,,,,,,,AMNE06.jpg,AMSA20.jpg,AMNE17.jpg,AMSA03.jpg,AMSA20.jpg,MS,2,num_6,16,num_6,1.2833978557,,,2018_Jan_18_1404,60.0046959655,FEMA4ImagesEEG,001,102774,
AFNE01.JPG,AFNE01.JPG,AFNE01.JPG,AFNE01.JPG,AFNE01.JPG,AFNE01.JPG,,,,,4,2,42,1,,,,,,,,,,,,,,,,,,,AMSA01.jpg,AMSA03.jpg,AMNE02.jpg,AMNE04.jpg,AMNE02.jpg,MN,1,num_2,32,num_4,0.966731562745,,,2018_Jan_18_1404,60.0046959655,FEMA4ImagesEEG,001,102774,
AFNE01.JPG,AFNE01.JPG,AFNE01.JPG,AFNE01.JPG,AFNE01.JPG,AFNE01.JPG,,,,,4,3,43,5,,,,,,,,,,,,,,,,,,,AMNE06.jpg,AMSA12.jpg,AMSA19.jpg,AMNE11.jpg,AMNE11.jpg,MN,1,num_4,16,num_4,1.33339865739,,,2018_Jan_18_1404,60.0046959655,FEMA4ImagesEEG,001,102774,
AFNE01.JPG,AFNE01.JPG,AFNE01.JPG,AFNE01.JPG,AFNE01.JPG,AFNE01.JPG,,,,,4,4,44,3,,,,,,,,,,,,,,,,,,,AMSA16.jpg,AMNE06.jpg,AMSA19.jpg,AMNE17.jpg,AMSA19.jpg,MS,2,num_2,32,num_8,1.0667941072,,,2018_Jan_18_1404,60.0046959655,FEMA4ImagesEEG,001,102774,
AFNE01.JPG,AFNE01.JPG,AFNE01.JPG,AFNE01.JPG,AFNE01.JPG,AFNE01.JPG,,,,,4,5,45,8,,,,,,,,,,,,,,,,,,,AMSA08.jpg,AMSA14.jpg,AMNE04.jpg,AMNE13.jpg,AMNE04.jpg,MN,1,num_2,32,num_8,1.11679779552,,,2018_Jan_18_1404,60.0046959655,FEMA4ImagesEEG,001,102774,
AFNE01.JPG,AFNE01.JPG,AFNE01.JPG,AFNE01.JPG,AFNE01.JPG,AFNE01.JPG,,,,,4,6,46,0,,,,,,,,,,,,,,,,,,,AMNE01.jpg,AMSA04.jpg,AMSA08.jpg,AMNE04.jpg,AMSA08.jpg,MS,2,num_2,16,num_2,0.866868839599,,,2018_Jan_18_1404,60.0046959655,FEMA4ImagesEEG,001,102774,
AFNE01.JPG,AFNE01.JPG,AFNE01.JPG,AFNE01.JPG,AFNE01.JPG,AFNE01.JPG,,,,,4,7,47,6,,,,,,,,,,,,,,,,,,,AMSA14.jpg,AMNE06.jpg,AMNE04.jpg,AMSA16.jpg,AMSA16.jpg,MS,2,num_4,32,num_6,0.999952530488,,,2018_Jan_18_1404,60.0046959655,FEMA4ImagesEEG,001,102774,
AFNE01.JPG,AFNE01.JPG,AFNE01.JPG,AFNE01.JPG,AFNE01.JPG,AFNE01.JPG,,,,,4,8,48,4,,,,,,,,,,,,,,,,,,,AMNE20.jpg,AMSA07.jpg,AMSA06.jpg,AMNE03.jpg,AMNE03.jpg,MN,1,num_4,32,num_6,0.766786409542,,,2018_Jan_18_1404,60.0046959655,FEMA4ImagesEEG,001,102774,
AFNE01.JPG,AFNE01.JPG,AFNE01.JPG,AFNE01.JPG,AFNE01.JPG,AFNE01.JPG,,,,,4,9,49,9,,,,,,,,,,,,,,,,,,,AMNE01.jpg,AMSA12.jpg,AMNE17.jpg,AMSA19.jpg,AMSA12.jpg,MS,2,num_6,32,num_8,1.51669323444,,,2018_Jan_18_1404,60.0046959655,FEMA4ImagesEEG,001,102774,
AFNE01.JPG,AFNE01.JPG,AFNE01.JPG,AFNE01.JPG,AFNE01.JPG,AFNE01.JPG,,,,,5,0,50,7,,,,,,,,,,,,,,,,,,,AMNE09.jpg,AMNE02.jpg,AMSA13.jpg,AMSA03.jpg,AMNE02.jpg,MN,1,num_6,32,num_8,0.966698847245,,,2018_Jan_18_1404,60.0046959655,FEMA4ImagesEEG,001,102774,
AFNE01.JPG,AFNE01.JPG,AFNE01.JPG,AFNE01.JPG,AFNE01.JPG,AFNE01.JPG,,,,,5,1,51,5,,,,,,,,,,,,,,,,,,,AMNE18.jpg,AMSA10.jpg,AMNE15.jpg,AMSA18.jpg,AMNE15.jpg,MN,1,num_2,16,num_2,1.01675545797,,,2018_Jan_18_1404,60.0046959655,FEMA4ImagesEEG,001,102774,
AFNE01.JPG,AFNE01.JPG,AFNE01.JPG,AFNE01.JPG,AFNE01.JPG,AFNE01.JPG,,,,,5,2,52,2,,,,,,,,,,,,,,,,,,,AMSA11.jpg,AMNE03.jpg,AMSA02.jpg,AMNE13.jpg,AMSA11.jpg,MS,2,num_8,16,num_8,1.10014112573,,,2018_Jan_18_1404,60.0046959655,FEMA4ImagesEEG,001,102774,
AFNE01.JPG,AFNE01.JPG,AFNE01.JPG,AFNE01.JPG,AFNE01.JPG,AFNE01.JPG,,,,,5,3,53,4,,,,,,,,,,,,,,,,,,,AMNE05.jpg,AMNE09.jpg,AMSA13.jpg,AMSA10.jpg,AMSA10.jpg,MS,2,num_4,32,num_6,0.949825678021,,,2018_Jan_18_1404,60.0046959655,FEMA4ImagesEEG,001,102774,
AFNE01.JPG,AFNE01.JPG,AFNE01.JPG,AFNE01.JPG,AFNE01.JPG,AFNE01.JPG,,,,,5,4,54,0,,,,,,,,,,,,,,,,,,,AMSA04.jpg,AMNE08.jpg,AMNE19.jpg,AMSA18.jpg,AMSA18.jpg,MS,2,num_4,32,num_2,1.48342287354,,,2018_Jan_18_1404,60.0046959655,FEMA4ImagesEEG,001,102774,
AFNE01.JPG,AFNE01.JPG,AFNE01.JPG,AFNE01.JPG,AFNE01.JPG,AFNE01.JPG,,,,,5,5,55,8,,,,,,,,,,,,,,,,,,,AMNE18.jpg,AMSA01.jpg,AMSA20.jpg,AMNE16.jpg,AMSA01.jpg,MS,2,num_6,32,num_8,1.01674262853,,,2018_Jan_18_1404,60.0046959655,FEMA4ImagesEEG,001,102774,
AFNE01.JPG,AFNE01.JPG,AFNE01.JPG,AFNE01.JPG,AFNE01.JPG,AFNE01.JPG,,,,,5,6,56,6,,,,,,,,,,,,,,,,,,,AMSA04.jpg,AMSA13.jpg,AMNE13.jpg,AMNE09.jpg,AMNE13.jpg,MN,1,num_2,32,num_4,1.01675994834,,,2018_Jan_18_1404,60.0046959655,FEMA4ImagesEEG,001,102774,
AFNE01.JPG,AFNE01.JPG,AFNE01.JPG,AFNE01.JPG,AFNE01.JPG,AFNE01.JPG,,,,,5,7,57,1,,,,,,,,,,,,,,,,,,,AMNE01.jpg,AMSA18.jpg,AMNE16.jpg,AMSA12.jpg,AMNE01.jpg,MN,1,num_8,16,num_8,0.952263622545,,,2018_Jan_18_1404,60.0046959655,FEMA4ImagesEEG,001,102774,
AFNE01.JPG,AFNE01.JPG,AFNE01.JPG,AFNE01.JPG,AFNE01.JPG,AFNE01.JPG,,,,,5,8,58,3,,,,,,,,,,,,,,,,,,,AMSA17.jpg,AMSA06.jpg,AMNE17.jpg,AMNE02.jpg,AMNE17.jpg,MN,1,num_2,32,num_8,1.26676973095,,,2018_Jan_18_1404,60.0046959655,FEMA4ImagesEEG,001,102774,
AFNE01.JPG,AFNE01.JPG,AFNE01.JPG,AFNE01.JPG,AFNE01.JPG,AFNE01.JPG,,,,,5,9,59,9,,,,,,,,,,,,,,,,,,,AMNE01.jpg,AMSA10.jpg,AMNE15.jpg,AMSA16.jpg,AMSA10.jpg,MS,2,num_6,32,num_2,1.05008515622,,,2018_Jan_18_1404,60.0046959655,FEMA4ImagesEEG,001,102774,
,,,,,,,,,,,,,,,,,,,,,,,,,,,,,,,,,,,,,,,,,,,space,3.36656862684,2018_Jan_18_1404,60.0046959655,FEMA4ImagesEEG,001,102774,
AFNE01.JPG,AFNE01.JPG,AFNE01.JPG,AFNE01.JPG,AFNE01.JPG,AFNE01.JPG,,,,,,,,,0,0,0,8,,,,,,,,,,,,,,,AFNE03.jpg,AFSA16.jpg,AFNE02.jpg,AFSA13.jpg,AFSA16.jpg,FS,4,num_6,32,num_4,0.983445324935,,,2018_Jan_18_1404,60.0046959655,FEMA4ImagesEEG,001,102774,
AFNE01.JPG,AFNE01.JPG,AFNE01.JPG,AFNE01.JPG,AFNE01.JPG,AFNE01.JPG,,,,,,,,,0,1,1,7,,,,,,,,,,,,,,,AFNE05.jpg,AFNE10.jpg,AFSA09.jpg,AFSA13.jpg,AFSA09.jpg,FS,4,num_2,32,num_8,0.95016694488,,,2018_Jan_18_1404,60.0046959655,FEMA4ImagesEEG,001,102774,
AFNE01.JPG,AFNE01.JPG,AFNE01.JPG,AFNE01.JPG,AFNE01.JPG,AFNE01.JPG,,,,,,,,,0,2,2,0,,,,,,,,,,,,,,,AFNE02.jpg,AFSA17.jpg,AFSA19.jpg,AFNE06.jpg,AFSA17.jpg,FS,4,num_6,32,num_2,0.966787051409,,,2018_Jan_18_1404,60.0046959655,FEMA4ImagesEEG,001,102774,
AFNE01.JPG,AFNE01.JPG,AFNE01.JPG,AFNE01.JPG,AFNE01.JPG,AFNE01.JPG,,,,,,,,,0,3,3,1,,,,,,,,,,,,,,,AFSA18.jpg,AFSA11.jpg,AFNE09.jpg,AFNE04.jpg,AFSA18.jpg,FS,4,num_8,16,num_8,1.38339625206,,,2018_Jan_18_1404,60.0046959655,FEMA4ImagesEEG,001,102774,
AFNE01.JPG,AFNE01.JPG,AFNE01.JPG,AFNE01.JPG,AFNE01.JPG,AFNE01.JPG,,,,,,,,,0,4,4,4,,,,,,,,,,,,,,,AFNE05.jpg,AFSA18.jpg,AFSA05.jpg,AFNE11.jpg,AFNE11.jpg,FN,3,num_4,16,num_4,0.850137757603,,,2018_Jan_18_1404,60.0046959655,FEMA4ImagesEEG,001,102774,
AFNE01.JPG,AFNE01.JPG,AFNE01.JPG,AFNE01.JPG,AFNE01.JPG,AFNE01.JPG,,,,,,,,,0,5,5,2,,,,,,,,,,,,,,,AFSA02.jpg,AFSA12.jpg,AFNE12.jpg,AFNE15.jpg,AFNE15.jpg,FN,3,num_4,32,num_2,2.13343297644,,,2018_Jan_18_1404,60.0046959655,FEMA4ImagesEEG,001,102774,
AFNE01.JPG,AFNE01.JPG,AFNE01.JPG,AFNE01.JPG,AFNE01.JPG,AFNE01.JPG,,,,,,,,,0,6,6,3,,,,,,,,,,,,,,,AFSA05.jpg,AFNE17.jpg,AFSA07.jpg,AFNE16.jpg,AFNE16.jpg,FN,3,num_4,32,num_2,1.80033132434,,,2018_Jan_18_1404,60.0046959655,FEMA4ImagesEEG,001,102774,
AFNE01.JPG,AFNE01.JPG,AFNE01.JPG,AFNE01.JPG,AFNE01.JPG,AFNE01.JPG,,,,,,,,,0,7,7,9,,,,,,,,,,,,,,,AFNE16.jpg,AFSA03.jpg,AFSA05.jpg,AFNE01.jpg,AFNE16.jpg,FN,3,num_8,16,num_8,1.95008034538,,,2018_Jan_18_1404,60.0046959655,FEMA4ImagesEEG,001,102774,
AFNE01.JPG,AFNE01.JPG,AFNE01.JPG,AFNE01.JPG,AFNE01.JPG,AFNE01.JPG,,,,,,,,,0,8,8,6,,,,,,,,,,,,,,,AFSA07.jpg,AFNE10.jpg,AFNE14.jpg,AFSA10.jpg,AFSA10.jpg,FS,4,num_4,16,num_4,0.800140804611,,,2018_Jan_18_1404,60.0046959655,FEMA4ImagesEEG,001,102774,
AFNE01.JPG,AFNE01.JPG,AFNE01.JPG,AFNE01.JPG,AFNE01.JPG,AFNE01.JPG,,,,,,,,,0,9,9,5,,,,,,,,,,,,,,,AFSA06.jpg,AFNE13.jpg,AFSA04.jpg,AFNE15.jpg,AFNE15.jpg,FN,3,num_4,16,num_4,1.7334034685,,,2018_Jan_18_1404,60.0046959655,FEMA4ImagesEEG,001,102774,
AFNE01.JPG,AFNE01.JPG,AFNE01.JPG,AFNE01.JPG,AFNE01.JPG,AFNE01.JPG,,,,,,,,,1,0,10,5,,,,,,,,,,,,,,,AFNE20.jpg,AFSA14.jpg,AFNE04.jpg,AFSA09.jpg,AFNE04.jpg,FN,3,num_2,16,num_2,1.01675674086,,,2018_Jan_18_1404,60.0046959655,FEMA4ImagesEEG,001,102774,
AFNE01.JPG,AFNE01.JPG,AFNE01.JPG,AFNE01.JPG,AFNE01.JPG,AFNE01.JPG,,,,,,,,,1,1,11,1,,,,,,,,,,,,,,,AFNE20.jpg,AFSA12.jpg,AFSA10.jpg,AFNE15.jpg,AFNE20.jpg,FN,3,num_8,16,num_8,0.800122522749,,,2018_Jan_18_1404,60.0046959655,FEMA4ImagesEEG,001,102774,
AFNE01.JPG,AFNE01.JPG,AFNE01.JPG,AFNE01.JPG,AFNE01.JPG,AFNE01.JPG,,,,,,,,,1,2,12,9,,,,,,,,,,,,,,,AFSA19.jpg,AFNE09.jpg,AFNE17.jpg,AFSA09.jpg,AFSA19.jpg,FS,4,num_8,32,num_4,1.31670766789,,,2018_Jan_18_1404,60.0046959655,FEMA4ImagesEEG,001,102774,
AFNE01.JPG,AFNE01.JPG,AFNE01.JPG,AFNE01.JPG,AFNE01.JPG,AFNE01.JPG,,,,,,,,,1,3,13,4,,,,,,,,,,,,,,,AFSA19.jpg,AFSA20.jpg,AFNE12.jpg,AFNE02.jpg,AFSA20.jpg,FS,4,num_6,32,num_2,1.48339528963,,,2018_Jan_18_1404,60.0046959655,FEMA4ImagesEEG,001,102774,
AFNE01.JPG,AFNE01.JPG,AFNE01.JPG,AFNE01.JPG,AFNE01.JPG,AFNE01.JPG,,,,,,,,,1,4,14,7,,,,,,,,,,,,,,,AFSA12.jpg,AFNE07.jpg,AFNE17.jpg,AFSA01.jpg,AFSA12.jpg,FS,4,num_8,16,num_8,0.750096061267,,,2018_Jan_18_1404,60.0046959655,FEMA4ImagesEEG,001,102774,
AFNE01.JPG,AFNE01.JPG,AFNE01.JPG,AFNE01.JPG,AFNE01.JPG,AFNE01.JPG,,,,,,,,,1,5,15,0,,,,,,,,,,,,,,,AFSA16.jpg,AFSA08.jpg,AFNE15.jpg,AFNE12.jpg,AFNE12.jpg,FN,3,num_4,32,num_2,1.21676796721,,,2018_Jan_18_1404,60.0046959655,FEMA4ImagesEEG,001,102774,
AFNE01.JPG,AFNE01.JPG,AFNE01.JPG,AFNE01.JPG,AFNE01.JPG,AFNE01.JPG,,,,,,,,,1,6,16,6,,,,,,,,,,,,,,,AFNE18.jpg,AFSA08.jpg,AFNE17.jpg,AFSA11.jpg,AFSA08.jpg,FS,4,num_6,16,num_6,0.78330676537,,,2018_Jan_18_1404,60.0046959655,FEMA4ImagesEEG,001,102774,
AFNE01.JPG,AFNE01.JPG,AFNE01.JPG,AFNE01.JPG,AFNE01.JPG,AFNE01.JPG,,,,,,,,,1,7,17,8,,,,,,,,,,,,,,,AFSA02.jpg,AFSA04.jpg,AFNE19.jpg,AFNE10.jpg,AFNE19.jpg,FN,3,num_2,32,num_8,1.05012941873,,,2018_Jan_18_1404,60.0046959655,FEMA4ImagesEEG,001,102774,
AFNE01.JPG,AFNE01.JPG,AFNE01.JPG,AFNE01.JPG,AFNE01.JPG,AFNE01.JPG,,,,,,,,,1,8,18,3,,,,,,,,,,,,,,,AFNE04.jpg,AFSA19.jpg,AFNE06.jpg,AFSA02.jpg,AFSA02.jpg,FS,4,num_4,32,num_2,0.900109372567,,,2018_Jan_18_1404,60.0046959655,FEMA4ImagesEEG,001,102774,
AFNE01.JPG,AFNE01.JPG,AFNE01.JPG,AFNE01.JPG,AFNE01.JPG,AFNE01.JPG,,,,,,,,,1,9,19,2,,,,,,,,,,,,,,,AFSA04.jpg,AFNE19.jpg,AFNE07.jpg,AFSA07.jpg,AFNE07.jpg,FN,3,num_2,16,num_2,0.983419986907,,,2018_Jan_18_1404,60.0046959655,FEMA4ImagesEEG,001,102774,
AFNE01.JPG,AFNE01.JPG,AFNE01.JPG,AFNE01.JPG,AFNE01.JPG,AFNE01.JPG,,,,,,,,,2,0,20,2,,,,,,,,,,,,,,,AFSA02.jpg,AFNE02.jpg,AFNE01.jpg,AFSA18.jpg,AFSA02.jpg,FS,4,num_8,32,num_4,1.28338342253,,,2018_Jan_18_1404,60.0046959655,FEMA4ImagesEEG,001,102774,
AFNE01.JPG,AFNE01.JPG,AFNE01.JPG,AFNE01.JPG,AFNE01.JPG,AFNE01.JPG,,,,,,,,,2,1,21,9,,,,,,,,,,,,,,,AFNE03.jpg,AFSA20.jpg,AFSA07.jpg,AFNE07.jpg,AFNE07.jpg,FN,3,num_4,32,num_8,0.983410043642,,,2018_Jan_18_1404,60.0046959655,FEMA4ImagesEEG,001,102774,
AFNE01.JPG,AFNE01.JPG,AFNE01.JPG,AFNE01.JPG,AFNE01.JPG,AFNE01.JPG,,,,,,,,,2,2,22,3,,,,,,,,,,,,,,,AFSA04.jpg,AFNE12.jpg,AFSA19.jpg,AFNE05.jpg,AFSA04.jpg,FS,4,num_8,16,num_8,0.78342960868,,,2018_Jan_18_1404,60.0046959655,FEMA4ImagesEEG,001,102774,
AFNE01.JPG,AFNE01.JPG,AFNE01.JPG,AFNE01.JPG,AFNE01.JPG,AFNE01.JPG,,,,,,,,,2,3,23,6,,,,,,,,,,,,,,,AFNE03.jpg,AFNE16.jpg,AFSA12.jpg,AFSA08.jpg,AFNE16.jpg,FN,3,num_6,32,num_4,0.733305322006,,,2018_Jan_18_1404,60.0046959655,FEMA4ImagesEEG,001,102774,
AFNE01.JPG,AFNE01.JPG,AFNE01.JPG,AFNE01.JPG,AFNE01.JPG,AFNE01.JPG,,,,,,,,,2,4,24,1,,,,,,,,,,,,,,,AFSA09.jpg,AFSA15.jpg,AFNE08.jpg,AFNE14.jpg,AFNE08.jpg,FN,3,num_2,32,num_8,1.0167509676,,,2018_Jan_18_1404,60.0046959655,FEMA4ImagesEEG,001,102774,
AFNE01.JPG,AFNE01.JPG,AFNE01.JPG,AFNE01.JPG,AFNE01.JPG,AFNE01.JPG,,,,,,,,,2,5,25,4,,,,,,,,,,,,,,,AFNE20.jpg,AFNE13.jpg,AFSA11.jpg,AFSA03.jpg,AFNE13.jpg,FN,3,num_6,32,num_2,1.66668986715,,,2018_Jan_18_1404,60.0046959655,FEMA4ImagesEEG,001,102774,
AFNE01.JPG,AFNE01.JPG,AFNE01.JPG,AFNE01.JPG,AFNE01.JPG,AFNE01.JPG,,,,,,,,,2,6,26,0,,,,,,,,,,,,,,,AFSA15.jpg,AFNE15.jpg,AFSA04.jpg,AFNE20.jpg,AFSA04.jpg,FS,4,num_2,32,num_4,1.5665718345,,,2018_Jan_18_1404,60.0046959655,FEMA4ImagesEEG,001,102774,
AFNE01.JPG,AFNE01.JPG,AFNE01.JPG,AFNE01.JPG,AFNE01.JPG,AFNE01.JPG,,,,,,,,,2,7,27,7,,,,,,,,,,,,,,,AFNE06.jpg,AFSA02.jpg,AFNE05.jpg,AFSA13.jpg,AFNE05.jpg,FN,3,num_2,16,num_2,0.966774541885,,,2018_Jan_18_1404,60.0046959655,FEMA4ImagesEEG,001,102774,
AFNE01.JPG,AFNE01.JPG,AFNE01.JPG,AFNE01.JPG,AFNE01.JPG,AFNE01.JPG,,,,,,,,,2,8,28,5,,,,,,,,,,,,,,,AFSA06.jpg,AFSA04.jpg,AFNE09.jpg,AFNE19.jpg,AFNE19.jpg,FN,3,num_4,32,num_8,0.966786409728,,,2018_Jan_18_1404,60.0046959655,FEMA4ImagesEEG,001,102774,
AFNE01.JPG,AFNE01.JPG,AFNE01.JPG,AFNE01.JPG,AFNE01.JPG,AFNE01.JPG,,,,,,,,,2,9,29,8,,,,,,,,,,,,,,,AFSA10.jpg,AFSA01.jpg,AFNE09.jpg,AFNE03.jpg,AFNE03.jpg,FN,3,num_4,32,num_2,1.13351252023,,,2018_Jan_18_1404,60.0046959655,FEMA4ImagesEEG,001,102774,
AFNE01.JPG,AFNE01.JPG,AFNE01.JPG,AFNE01.JPG,AFNE01.JPG,AFNE01.JPG,,,,,,,,,3,0,30,2,,,,,,,,,,,,,,,AFSA07.jpg,AFNE14.jpg,AFNE06.jpg,AFSA12.jpg,AFSA07.jpg,FS,4,num_8,32,num_2,1.06676748581,,,2018_Jan_18_1404,60.0046959655,FEMA4ImagesEEG,001,102774,
AFNE01.JPG,AFNE01.JPG,AFNE01.JPG,AFNE01.JPG,AFNE01.JPG,AFNE01.JPG,,,,,,,,,3,1,31,6,,,,,,,,,,,,,,,AFNE20.jpg,AFNE04.jpg,AFSA04.jpg,AFSA07.jpg,AFSA07.jpg,FS,4,num_4,32,num_8,1.06674535479,,,2018_Jan_18_1404,60.0046959655,FEMA4ImagesEEG,001,102774,
AFNE01.JPG,AFNE01.JPG,AFNE01.JPG,AFNE01.JPG,AFNE01.JPG,AFNE01.JPG,,,,,,,,,3,2,32,5,,,,,,,,,,,,,,,AFSA10.jpg,AFNE04.jpg,AFSA08.jpg,AFNE02.jpg,AFSA10.jpg,FS,4,num_8,32,num_6,1.50007954333,,,2018_Jan_18_1404,60.0046959655,FEMA4ImagesEEG,001,102774,
AFNE01.JPG,AFNE01.JPG,AFNE01.JPG,AFNE01.JPG,AFNE01.JPG,AFNE01.JPG,,,,,,,,,3,3,33,3,,,,,,,,,,,,,,,AFSA08.jpg,AFSA19.jpg,AFNE04.jpg,AFNE18.jpg,AFSA08.jpg,FS,4,num_8,32,num_4,1.0501024765,,,2018_Jan_18_1404,60.0046959655,FEMA4ImagesEEG,001,102774,
AFNE01.JPG,AFNE01.JPG,AFNE01.JPG,AFNE01.JPG,AFNE01.JPG,AFNE01.JPG,,,,,,,,,3,4,34,4,,,,,,,,,,,,,,,AFSA04.jpg,AFNE05.jpg,AFNE02.jpg,AFSA12.jpg,AFNE05.jpg,FN,3,num_6,16,num_6,1.00009782566,,,2018_Jan_18_1404,60.0046959655,FEMA4ImagesEEG,001,102774,
AFNE01.JPG,AFNE01.JPG,AFNE01.JPG,AFNE01.JPG,AFNE01.JPG,AFNE01.JPG,,,,,,,,,3,5,35,9,,,,,,,,,,,,,,,AFSA17.jpg,AFNE14.jpg,AFNE13.jpg,AFSA16.jpg,AFSA16.jpg,FS,4,num_4,32,num_8,1.19980980083,,,2018_Jan_18_1404,60.0046959655,FEMA4ImagesEEG,001,102774,
AFNE01.JPG,AFNE01.JPG,AFNE01.JPG,AFNE01.JPG,AFNE01.JPG,AFNE01.JPG,,,,,,,,,3,6,36,7,,,,,,,,,,,,,,,AFSA17.jpg,AFNE10.jpg,AFNE03.jpg,AFSA01.jpg,AFSA17.jpg,FS,4,num_8,32,num_4,1.18340427009,,,2018_Jan_18_1404,60.0046959655,FEMA4ImagesEEG,001,102774,
AFNE01.JPG,AFNE01.JPG,AFNE01.JPG,AFNE01.JPG,AFNE01.JPG,AFNE01.JPG,,,,,,,,,3,7,37,8,,,,,,,,,,,,,,,AFNE18.jpg,AFNE15.jpg,AFSA06.jpg,AFSA02.jpg,AFSA06.jpg,FS,4,num_2,16,num_2,0.733479163144,,,2018_Jan_18_1404,60.0046959655,FEMA4ImagesEEG,001,102774,
AFNE01.JPG,AFNE01.JPG,AFNE01.JPG,AFNE01.JPG,AFNE01.JPG,AFNE01.JPG,,,,,,,,,3,8,38,0,,,,,,,,,,,,,,,AFSA04.jpg,AFNE19.jpg,AFNE11.jpg,AFSA17.jpg,AFSA04.jpg,FS,4,num_8,16,num_8,1.03355421638,,,2018_Jan_18_1404,60.0046959655,FEMA4ImagesEEG,001,102774,
AFNE01.JPG,AFNE01.JPG,AFNE01.JPG,AFNE01.JPG,AFNE01.JPG,AFNE01.JPG,,,,,,,,,3,9,39,1,,,,,,,,,,,,,,,AFNE01.jpg,AFNE19.jpg,AFSA16.jpg,AFSA14.jpg,AFSA16.jpg,FS,4,num_2,16,num_2,1.26660070149,,,2018_Jan_18_1404,60.0046959655,FEMA4ImagesEEG,001,102774,
AFNE01.JPG,AFNE01.JPG,AFNE01.JPG,AFNE01.JPG,AFNE01.JPG,AFNE01.JPG,,,,,,,,,4,0,40,1,,,,,,,,,,,,,,,AFSA13.jpg,AFSA19.jpg,AFNE17.jpg,AFNE08.jpg,AFSA13.jpg,FS,4,num_8,32,num_6,1.33347146539,,,2018_Jan_18_1404,60.0046959655,FEMA4ImagesEEG,001,102774,
AFNE01.JPG,AFNE01.JPG,AFNE01.JPG,AFNE01.JPG,AFNE01.JPG,AFNE01.JPG,,,,,,,,,4,1,41,7,,,,,,,,,,,,,,,AFNE05.jpg,AFSA09.jpg,AFNE03.jpg,AFSA08.jpg,AFSA08.jpg,FS,4,num_4,16,num_4,0.850144814234,,,2018_Jan_18_1404,60.0046959655,FEMA4ImagesEEG,001,102774,
AFNE01.JPG,AFNE01.JPG,AFNE01.JPG,AFNE01.JPG,AFNE01.JPG,AFNE01.JPG,,,,,,,,,4,2,42,8,,,,,,,,,,,,,,,AFSA05.jpg,AFNE04.jpg,AFSA15.jpg,AFNE13.jpg,AFSA15.jpg,FS,4,num_2,32,num_8,0.916784645524,,,2018_Jan_18_1404,60.0046959655,FEMA4ImagesEEG,001,102774,
AFNE01.JPG,AFNE01.JPG,AFNE01.JPG,AFNE01.JPG,AFNE01.JPG,AFNE01.JPG,,,,,,,,,4,3,43,2,,,,,,,,,,,,,,,AFNE07.jpg,AFNE16.jpg,AFSA10.jpg,AFSA17.jpg,AFNE16.jpg,FN,3,num_6,32,num_2,0.833495200146,,,2018_Jan_18_1404,60.0046959655,FEMA4ImagesEEG,001,102774,
AFNE01.JPG,AFNE01.JPG,AFNE01.JPG,AFNE01.JPG,AFNE01.JPG,AFNE01.JPG,,,,,,,,,4,4,44,9,,,,,,,,,,,,,,,AFSA18.jpg,AFSA08.jpg,AFNE15.jpg,AFNE17.jpg,AFSA18.jpg,FS,4,num_8,32,num_6,1.40010905126,,,2018_Jan_18_1404,60.0046959655,FEMA4ImagesEEG,001,102774,
AFNE01.JPG,AFNE01.JPG,AFNE01.JPG,AFNE01.JPG,AFNE01.JPG,AFNE01.JPG,,,,,,,,,4,5,45,3,,,,,,,,,,,,,,,AFSA07.jpg,AFSA11.jpg,AFNE05.jpg,AFNE03.jpg,AFSA07.jpg,FS,4,num_8,16,num_8,1.10012925835,,,2018_Jan_18_1404,60.0046959655,FEMA4ImagesEEG,001,102774,
AFNE01.JPG,AFNE01.JPG,AFNE01.JPG,AFNE01.JPG,AFNE01.JPG,AFNE01.JPG,,,,,,,,,4,6,46,0,,,,,,,,,,,,,,,AFSA19.jpg,AFSA18.jpg,AFNE07.jpg,AFNE04.jpg,AFNE04.jpg,FN,3,num_4,32,num_2,1.25009670295,,,2018_Jan_18_1404,60.0046959655,FEMA4ImagesEEG,001,102774,
AFNE01.JPG,AFNE01.JPG,AFNE01.JPG,AFNE01.JPG,AFNE01.JPG,AFNE01.JPG,,,,,,,,,4,7,47,6,,,,,,,,,,,,,,,AFNE08.jpg,AFSA16.jpg,AFSA14.jpg,AFNE03.jpg,AFNE08.jpg,FN,3,num_8,32,num_4,1.36672867648,,,2018_Jan_18_1404,60.0046959655,FEMA4ImagesEEG,001,102774,
AFNE01.JPG,AFNE01.JPG,AFNE01.JPG,AFNE01.JPG,AFNE01.JPG,AFNE01.JPG,,,,,,,,,4,8,48,5,,,,,,,,,,,,,,,AFNE02.jpg,AFSA17.jpg,AFNE04.jpg,AFSA05.jpg,AFSA17.jpg,FS,4,num_6,32,num_2,0.96677454235,,,2018_Jan_18_1404,60.0046959655,FEMA4ImagesEEG,001,102774,
AFNE01.JPG,AFNE01.JPG,AFNE01.JPG,AFNE01.JPG,AFNE01.JPG,AFNE01.JPG,,,,,,,,,4,9,49,4,,,,,,,,,,,,,,,AFNE07.jpg,AFSA20.jpg,AFNE08.jpg,AFSA17.jpg,AFNE08.jpg,FN,3,num_2,32,num_8,2.11689658416,,,2018_Jan_18_1404,60.0046959655,FEMA4ImagesEEG,001,102774,
AFNE01.JPG,AFNE01.JPG,AFNE01.JPG,AFNE01.JPG,AFNE01.JPG,AFNE01.JPG,,,,,,,,,5,0,50,7,,,,,,,,,,,,,,,AFNE04.jpg,AFSA10.jpg,AFNE03.jpg,AFSA15.jpg,AFSA10.jpg,FS,4,num_6,32,num_2,1.88342287345,,,2018_Jan_18_1404,60.0046959655,FEMA4ImagesEEG,001,102774,
AFNE01.JPG,AFNE01.JPG,AFNE01.JPG,AFNE01.JPG,AFNE01.JPG,AFNE01.JPG,,,,,,,,,5,1,51,4,,,,,,,,,,,,,,,AFSA09.jpg,AFNE16.jpg,AFSA13.jpg,AFNE08.jpg,AFSA13.jpg,FS,4,num_2,16,num_2,0.666781277861,,,2018_Jan_18_1404,60.0046959655,FEMA4ImagesEEG,001,102774,
AFNE01.JPG,AFNE01.JPG,AFNE01.JPG,AFNE01.JPG,AFNE01.JPG,AFNE01.JPG,,,,,,,,,5,2,52,8,,,,,,,,,,,,,,,AFSA03.jpg,AFSA13.jpg,AFNE05.jpg,AFNE07.jpg,AFSA03.jpg,FS,4,num_8,32,num_6,1.08341293037,,,2018_Jan_18_1404,60.0046959655,FEMA4ImagesEEG,001,102774,
AFNE01.JPG,AFNE01.JPG,AFNE01.JPG,AFNE01.JPG,AFNE01.JPG,AFNE01.JPG,,,,,,,,,5,3,53,9,,,,,,,,,,,,,,,AFSA04.jpg,AFNE10.jpg,AFSA18.jpg,AFNE19.jpg,AFSA18.jpg,FS,4,num_2,16,num_2,0.666778711602,,,2018_Jan_18_1404,60.0046959655,FEMA4ImagesEEG,001,102774,
AFNE01.JPG,AFNE01.JPG,AFNE01.JPG,AFNE01.JPG,AFNE01.JPG,AFNE01.JPG,,,,,,,,,5,4,54,3,,,,,,,,,,,,,,,AFSA14.jpg,AFNE07.jpg,AFSA11.jpg,AFNE01.jpg,AFNE07.jpg,FN,3,num_6,16,num_6,0.69997594459,,,2018_Jan_18_1404,60.0046959655,FEMA4ImagesEEG,001,102774,
AFNE01.JPG,AFNE01.JPG,AFNE01.JPG,AFNE01.JPG,AFNE01.JPG,AFNE01.JPG,,,,,,,,,5,5,55,2,,,,,,,,,,,,,,,AFSA17.jpg,AFNE12.jpg,AFNE10.jpg,AFSA16.jpg,AFNE10.jpg,FN,3,num_2,32,num_8,0.933438108303,,,2018_Jan_18_1404,60.0046959655,FEMA4ImagesEEG,001,102774,
AFNE01.JPG,AFNE01.JPG,AFNE01.JPG,AFNE01.JPG,AFNE01.JPG,AFNE01.JPG,,,,,,,,,5,6,56,0,,,,,,,,,,,,,,,AFSA06.jpg,AFNE17.jpg,AFNE05.jpg,AFSA09.jpg,AFSA06.jpg,FS,4,num_8,32,num_2,1.11672979873,,,2018_Jan_18_1404,60.0046959655,FEMA4ImagesEEG,001,102774,
AFNE01.JPG,AFNE01.JPG,AFNE01.JPG,AFNE01.JPG,AFNE01.JPG,AFNE01.JPG,,,,,,,,,5,7,57,1,,,,,,,,,,,,,,,AFSA12.jpg,AFSA10.jpg,AFNE12.jpg,AFNE04.jpg,AFSA10.jpg,FS,4,num_6,32,num_8,0.983464248944,,,2018_Jan_18_1404,60.0046959655,FEMA4ImagesEEG,001,102774,
AFNE01.JPG,AFNE01.JPG,AFNE01.JPG,AFNE01.JPG,AFNE01.JPG,AFNE01.JPG,,,,,,,,,5,8,58,5,,,,,,,,,,,,,,,AFNE02.jpg,AFSA01.jpg,AFSA15.jpg,AFNE07.jpg,AFNE02.jpg,FN,3,num_8,32,num_6,0.933423995972,,,2018_Jan_18_1404,60.0046959655,FEMA4ImagesEEG,001,102774,
AFNE01.JPG,AFNE01.JPG,AFNE01.JPG,AFNE01.JPG,AFNE01.JPG,AFNE01.JPG,,,,,,,,,5,9,59,6,,,,,,,,,,,,,,,AFNE14.jpg,AFSA17.jpg,AFNE16.jpg,AFSA15.jpg,AFNE14.jpg,FN,3,num_8,32,num_2,1.31707812287,,,2018_Jan_18_1404,60.0046959655,FEMA4ImagesEEG,001,102774,
,,,,,,,,,,,,,,,,,,,,,,,,,,,,,,,,,,,,,,,,,,,space,2.94992606947,2018_Jan_18_1404,60.0046959655,FEMA4ImagesEEG,001,102774,
AFNE01.JPG,AFNE01.JPG,AFNE01.JPG,AFNE01.JPG,AFNE01.JPG,AFNE01.JPG,,,,,,,,,,,,,0,0,0,0,,,,,,,,,,,AMSA14.jpg,AMNE18.jpg,AMNE13.jpg,AMSA17.jpg,AMNE13.jpg,MN,1,num_2,16,num_2,0.766818804201,,,2018_Jan_18_1404,60.0046959655,FEMA4ImagesEEG,001,102774,
AFNE01.JPG,AFNE01.JPG,AFNE01.JPG,AFNE01.JPG,AFNE01.JPG,AFNE01.JPG,,,,,,,,,,,,,0,1,1,1,,,,,,,,,,,AMNE08.jpg,AMNE04.jpg,AMSA17.jpg,AMSA20.jpg,AMNE04.jpg,MN,1,num_6,16,num_6,1.41669323435,,,2018_Jan_18_1404,60.0046959655,FEMA4ImagesEEG,001,102774,
AFNE01.JPG,AFNE01.JPG,AFNE01.JPG,AFNE01.JPG,AFNE01.JPG,AFNE01.JPG,,,,,,,,,,,,,0,2,2,7,,,,,,,,,,,AMSA12.jpg,AMSA08.jpg,AMNE12.jpg,AMNE16.jpg,AMSA12.jpg,MS,2,num_8,32,num_4,1.05011723051,,,2018_Jan_18_1404,60.0046959655,FEMA4ImagesEEG,001,102774,
AFNE01.JPG,AFNE01.JPG,AFNE01.JPG,AFNE01.JPG,AFNE01.JPG,AFNE01.JPG,,,,,,,,,,,,,0,3,3,3,,,,,,,,,,,AMSA11.jpg,AMSA02.jpg,AMNE18.jpg,AMNE09.jpg,AMNE09.jpg,MN,1,num_4,32,num_8,1.03346857848,,,2018_Jan_18_1404,60.0046959655,FEMA4ImagesEEG,001,102774,
AFNE01.JPG,AFNE01.JPG,AFNE01.JPG,AFNE01.JPG,AFNE01.JPG,AFNE01.JPG,,,,,,,,,,,,,0,4,4,5,,,,,,,,,,,AMSA05.jpg,AMNE06.jpg,AMSA11.jpg,AMNE10.jpg,AMSA05.jpg,MS,2,num_8,16,num_8,0.866745996289,,,2018_Jan_18_1404,60.0046959655,FEMA4ImagesEEG,001,102774,
AFNE01.JPG,AFNE01.JPG,AFNE01.JPG,AFNE01.JPG,AFNE01.JPG,AFNE01.JPG,,,,,,,,,,,,,0,5,5,9,,,,,,,,,,,AMNE14.jpg,AMSA06.jpg,AMNE17.jpg,AMSA02.jpg,AMNE17.jpg,MN,1,num_2,32,num_6,0.833500010893,,,2018_Jan_18_1404,60.0046959655,FEMA4ImagesEEG,001,102774,
AFNE01.JPG,AFNE01.JPG,AFNE01.JPG,AFNE01.JPG,AFNE01.JPG,AFNE01.JPG,,,,,,,,,,,,,0,6,6,2,,,,,,,,,,,AMNE04.jpg,AMNE06.jpg,AMSA02.jpg,AMSA07.jpg,AMNE04.jpg,MN,1,num_8,16,num_8,1.31675321329,,,2018_Jan_18_1404,60.0046959655,FEMA4ImagesEEG,001,102774,
AFNE01.JPG,AFNE01.JPG,AFNE01.JPG,AFNE01.JPG,AFNE01.JPG,AFNE01.JPG,,,,,,,,,,,,,0,7,7,8,,,,,,,,,,,AMNE18.jpg,AMSA05.jpg,AMSA20.jpg,AMNE15.jpg,AMSA05.jpg,MS,2,num_6,32,num_4,1.60004105465,,,2018_Jan_18_1404,60.0046959655,FEMA4ImagesEEG,001,102774,
AFNE01.JPG,AFNE01.JPG,AFNE01.JPG,AFNE01.JPG,AFNE01.JPG,AFNE01.JPG,,,,,,,,,,,,,0,8,8,6,,,,,,,,,,,AMNE01.jpg,AMSA08.jpg,AMSA13.jpg,AMNE06.jpg,AMNE06.jpg,MN,1,num_4,32,num_8,0.900410226546,,,2018_Jan_18_1404,60.0046959655,FEMA4ImagesEEG,001,102774,
AFNE01.JPG,AFNE01.JPG,AFNE01.JPG,AFNE01.JPG,AFNE01.JPG,AFNE01.JPG,,,,,,,,,,,,,0,9,9,4,,,,,,,,,,,AMNE20.jpg,AMSA11.jpg,AMSA03.jpg,AMNE13.jpg,AMSA11.jpg,MS,2,num_6,32,num_2,1.13341469457,,,2018_Jan_18_1404,60.0046959655,FEMA4ImagesEEG,001,102774,
AFNE01.JPG,AFNE01.JPG,AFNE01.JPG,AFNE01.JPG,AFNE01.JPG,AFNE01.JPG,,,,,,,,,,,,,1,0,10,3,,,,,,,,,,,AMSA01.jpg,AMNE17.jpg,AMSA09.jpg,AMNE05.jpg,AMNE17.jpg,MN,1,num_6,32,num_8,0.933478842024,,,2018_Jan_18_1404,60.0046959655,FEMA4ImagesEEG,001,102774,
AFNE01.JPG,AFNE01.JPG,AFNE01.JPG,AFNE01.JPG,AFNE01.JPG,AFNE01.JPG,,,,,,,,,,,,,1,1,11,9,,,,,,,,,,,AMSA07.jpg,AMSA08.jpg,AMNE08.jpg,AMNE03.jpg,AMNE03.jpg,MN,1,num_4,32,num_8,1.1168026072,,,2018_Jan_18_1404,60.0046959655,FEMA4ImagesEEG,001,102774,
AFNE01.JPG,AFNE01.JPG,AFNE01.JPG,AFNE01.JPG,AFNE01.JPG,AFNE01.JPG,,,,,,,,,,,,,1,2,12,8,,,,,,,,,,,AMSA07.jpg,AMSA20.jpg,AMNE12.jpg,AMNE01.jpg,AMSA20.jpg,MS,2,num_6,32,num_2,1.21670029126,,,2018_Jan_18_1404,60.0046959655,FEMA4ImagesEEG,001,102774,
AFNE01.JPG,AFNE01.JPG,AFNE01.JPG,AFNE01.JPG,AFNE01.JPG,AFNE01.JPG,,,,,,,,,,,,,1,3,13,2,,,,,,,,,,,AMNE05.jpg,AMNE07.jpg,AMSA06.jpg,AMSA05.jpg,AMSA05.jpg,MS,2,num_4,32,num_2,1.06672643125,,,2018_Jan_18_1404,60.0046959655,FEMA4ImagesEEG,001,102774,
AFNE01.JPG,AFNE01.JPG,AFNE01.JPG,AFNE01.JPG,AFNE01.JPG,AFNE01.JPG,,,,,,,,,,,,,1,4,14,4,,,,,,,,,,,AMNE14.jpg,AMNE19.jpg,AMSA19.jpg,AMSA09.jpg,AMNE14.jpg,MN,1,num_8,16,num_8,1.016738459,,,2018_Jan_18_1404,60.0046959655,FEMA4ImagesEEG,001,102774,
AFNE01.JPG,AFNE01.JPG,AFNE01.JPG,AFNE01.JPG,AFNE01.JPG,AFNE01.JPG,,,,,,,,,,,,,1,5,15,0,,,,,,,,,,,AMSA06.jpg,AMSA11.jpg,AMNE06.jpg,AMNE19.jpg,AMNE19.jpg,MN,1,num_4,32,num_8,0.866615134757,,,2018_Jan_18_1404,60.0046959655,FEMA4ImagesEEG,001,102774,
AFNE01.JPG,AFNE01.JPG,AFNE01.JPG,AFNE01.JPG,AFNE01.JPG,AFNE01.JPG,,,,,,,,,,,,,1,6,16,7,,,,,,,,,,,AMSA03.jpg,AMNE11.jpg,AMNE07.jpg,AMSA19.jpg,AMSA03.jpg,MS,2,num_8,32,num_6,1.2167317234,,,2018_Jan_18_1404,60.0046959655,FEMA4ImagesEEG,001,102774,
AFNE01.JPG,AFNE01.JPG,AFNE01.JPG,AFNE01.JPG,AFNE01.JPG,AFNE01.JPG,,,,,,,,,,,,,1,7,17,1,,,,,,,,,,,AMSA02.jpg,AMSA20.jpg,AMNE13.jpg,AMNE18.jpg,AMNE18.jpg,MN,1,num_4,32,num_2,1.06676780665,,,2018_Jan_18_1404,60.0046959655,FEMA4ImagesEEG,001,102774,
AFNE01.JPG,AFNE01.JPG,AFNE01.JPG,AFNE01.JPG,AFNE01.JPG,AFNE01.JPG,,,,,,,,,,,,,1,8,18,6,,,,,,,,,,,AMNE06.jpg,AMSA08.jpg,AMNE12.jpg,AMSA09.jpg,AMNE12.jpg,MN,1,num_2,32,num_8,0.966718412936,,,2018_Jan_18_1404,60.0046959655,FEMA4ImagesEEG,001,102774,
AFNE01.JPG,AFNE01.JPG,AFNE01.JPG,AFNE01.JPG,AFNE01.JPG,AFNE01.JPG,,,,,,,,,,,,,1,9,19,5,,,,,,,,,,,AMNE16.jpg,AMSA06.jpg,AMNE03.jpg,AMSA19.jpg,AMSA06.jpg,MS,2,num_6,32,num_2,1.2667575432,,,2018_Jan_18_1404,60.0046959655,FEMA4ImagesEEG,001,102774,
AFNE01.JPG,AFNE01.JPG,AFNE01.JPG,AFNE01.JPG,AFNE01.JPG,AFNE01.JPG,,,,,,,,,,,,,2,0,20,4,,,,,,,,,,,AMSA03.jpg,AMNE06.jpg,AMNE19.jpg,AMSA10.jpg,AMNE19.jpg,MN,1,num_2,32,num_8,1.78376959311,,,2018_Jan_18_1404,60.0046959655,FEMA4ImagesEEG,001,102774,
AFNE01.JPG,AFNE01.JPG,AFNE01.JPG,AFNE01.JPG,AFNE01.JPG,AFNE01.JPG,,,,,,,,,,,,,2,1,21,9,,,,,,,,,,,AMNE12.jpg,AMSA11.jpg,AMNE13.jpg,AMSA01.jpg,AMSA11.jpg,MS,2,num_6,16,num_6,1.08344404213,,,2018_Jan_18_1404,60.0046959655,FEMA4ImagesEEG,001,102774,
AFNE01.JPG,AFNE01.JPG,AFNE01.JPG,AFNE01.JPG,AFNE01.JPG,AFNE01.JPG,,,,,,,,,,,,,2,2,22,3,,,,,,,,,,,AMNE19.jpg,AMSA03.jpg,AMSA08.jpg,AMNE07.jpg,AMNE19.jpg,MN,1,num_8,32,num_4,0.833431693725,,,2018_Jan_18_1404,60.0046959655,FEMA4ImagesEEG,001,102774,
AFNE01.JPG,AFNE01.JPG,AFNE01.JPG,AFNE01.JPG,AFNE01.JPG,AFNE01.JPG,,,,,,,,,,,,,2,3,23,7,,,,,,,,,,,AMSA01.jpg,AMSA09.jpg,AMNE18.jpg,AMNE14.jpg,AMSA09.jpg,MS,2,num_6,32,num_8,1.10011963593,,,2018_Jan_18_1404,60.0046959655,FEMA4ImagesEEG,001,102774,
AFNE01.JPG,AFNE01.JPG,AFNE01.JPG,AFNE01.JPG,AFNE01.JPG,AFNE01.JPG,,,,,,,,,,,,,2,4,24,6,,,,,,,,,,,AMSA19.jpg,AMSA07.jpg,AMNE04.jpg,AMNE17.jpg,AMNE17.jpg,MN,1,num_4,32,num_6,1.33344388148,,,2018_Jan_18_1404,60.0046959655,FEMA4ImagesEEG,001,102774,
AFNE01.JPG,AFNE01.JPG,AFNE01.JPG,AFNE01.JPG,AFNE01.JPG,AFNE01.JPG,,,,,,,,,,,,,2,5,25,5,,,,,,,,,,,AMNE05.jpg,AMSA14.jpg,AMSA08.jpg,AMNE10.jpg,AMNE10.jpg,MN,1,num_4,32,num_2,1.50006511016,,,2018_Jan_18_1404,60.0046959655,FEMA4ImagesEEG,001,102774,
AFNE01.JPG,AFNE01.JPG,AFNE01.JPG,AFNE01.JPG,AFNE01.JPG,AFNE01.JPG,,,,,,,,,,,,,2,6,26,2,,,,,,,,,,,AMSA04.jpg,AMSA18.jpg,AMNE09.jpg,AMNE12.jpg,AMSA04.jpg,MS,2,num_8,16,num_8,0.900160369929,,,2018_Jan_18_1404,60.0046959655,FEMA4ImagesEEG,001,102774,
AFNE01.JPG,AFNE01.JPG,AFNE01.JPG,AFNE01.JPG,AFNE01.JPG,AFNE01.JPG,,,,,,,,,,,,,2,7,27,1,,,,,,,,,,,AMSA15.jpg,AMNE05.jpg,AMSA12.jpg,AMNE14.jpg,AMNE14.jpg,MN,1,num_4,32,num_2,1.15009638248,,,2018_Jan_18_1404,60.0046959655,FEMA4ImagesEEG,001,102774,
AFNE01.JPG,AFNE01.JPG,AFNE01.JPG,AFNE01.JPG,AFNE01.JPG,AFNE01.JPG,,,,,,,,,,,,,2,8,28,8,,,,,,,,,,,AMSA06.jpg,AMNE15.jpg,AMSA12.jpg,AMNE20.jpg,AMSA12.jpg,MS,2,num_2,32,num_8,0.833502577152,,,2018_Jan_18_1404,60.0046959655,FEMA4ImagesEEG,001,102774,
AFNE01.JPG,AFNE01.JPG,AFNE01.JPG,AFNE01.JPG,AFNE01.JPG,AFNE01.JPG,,,,,,,,,,,,,2,9,29,0,,,,,,,,,,,AMNE03.jpg,AMSA17.jpg,AMSA05.jpg,AMNE04.jpg,AMSA17.jpg,MS,2,num_6,32,num_8,0.983414854854,,,2018_Jan_18_1404,60.0046959655,FEMA4ImagesEEG,001,102774,
AFNE01.JPG,AFNE01.JPG,AFNE01.JPG,AFNE01.JPG,AFNE01.JPG,AFNE01.JPG,,,,,,,,,,,,,3,0,30,7,,,,,,,,,,,AMNE05.jpg,AMSA15.jpg,AMNE11.jpg,AMSA02.jpg,AMSA15.jpg,MS,2,num_6,32,num_8,1.21681255009,,,2018_Jan_18_1404,60.0046959655,FEMA4ImagesEEG,001,102774,
AFNE01.JPG,AFNE01.JPG,AFNE01.JPG,AFNE01.JPG,AFNE01.JPG,AFNE01.JPG,,,,,,,,,,,,,3,1,31,3,,,,,,,,,,,AMSA01.jpg,AMNE15.jpg,AMNE04.jpg,AMSA03.jpg,AMNE15.jpg,MN,1,num_6,16,num_6,1.05008900538,,,2018_Jan_18_1404,60.0046959655,FEMA4ImagesEEG,001,102774,
AFNE01.JPG,AFNE01.JPG,AFNE01.JPG,AFNE01.JPG,AFNE01.JPG,AFNE01.JPG,,,,,,,,,,,,,3,2,32,8,,,,,,,,,,,AMSA13.jpg,AMSA15.jpg,AMNE06.jpg,AMNE12.jpg,AMNE06.jpg,MN,1,num_2,32,num_8,0.883413571864,,,2018_Jan_18_1404,60.0046959655,FEMA4ImagesEEG,001,102774,
AFNE01.JPG,AFNE01.JPG,AFNE01.JPG,AFNE01.JPG,AFNE01.JPG,AFNE01.JPG,,,,,,,,,,,,,3,3,33,4,,,,,,,,,,,AMSA11.jpg,AMNE11.jpg,AMNE15.jpg,AMSA05.jpg,AMNE11.jpg,MN,1,num_6,32,num_2,1.11678753188,,,2018_Jan_18_1404,60.0046959655,FEMA4ImagesEEG,001,102774,
AFNE01.JPG,AFNE01.JPG,AFNE01.JPG,AFNE01.JPG,AFNE01.JPG,AFNE01.JPG,,,,,,,,,,,,,3,4,34,9,,,,,,,,,,,AMSA16.jpg,AMNE16.jpg,AMSA09.jpg,AMNE15.jpg,AMSA09.jpg,MS,2,num_2,32,num_8,1.70003720559,,,2018_Jan_18_1404,60.0046959655,FEMA4ImagesEEG,001,102774,
AFNE01.JPG,AFNE01.JPG,AFNE01.JPG,AFNE01.JPG,AFNE01.JPG,AFNE01.JPG,,,,,,,,,,,,,3,5,35,0,,,,,,,,,,,AMSA11.jpg,AMNE05.jpg,AMNE17.jpg,AMSA16.jpg,AMSA16.jpg,MS,2,num_4,16,num_4,1.1165748816,,,2018_Jan_18_1404,60.0046959655,FEMA4ImagesEEG,001,102774,
AFNE01.JPG,AFNE01.JPG,AFNE01.JPG,AFNE01.JPG,AFNE01.JPG,AFNE01.JPG,,,,,,,,,,,,,3,6,36,6,,,,,,,,,,,AMSA01.jpg,AMSA15.jpg,AMNE16.jpg,AMNE01.jpg,AMNE16.jpg,MN,1,num_2,16,num_2,1.53347178595,,,2018_Jan_18_1404,60.0046959655,FEMA4ImagesEEG,001,102774,
AFNE01.JPG,AFNE01.JPG,AFNE01.JPG,AFNE01.JPG,AFNE01.JPG,AFNE01.JPG,,,,,,,,,,,,,3,7,37,5,,,,,,,,,,,AMNE15.jpg,AMSA12.jpg,AMNE03.jpg,AMSA03.jpg,AMSA12.jpg,MS,2,num_6,32,num_4,1.36671103584,,,2018_Jan_18_1404,60.0046959655,FEMA4ImagesEEG,001,102774,
AFNE01.JPG,AFNE01.JPG,AFNE01.JPG,AFNE01.JPG,AFNE01.JPG,AFNE01.JPG,,,,,,,,,,,,,3,8,38,1,,,,,,,,,,,AMNE18.jpg,AMSA19.jpg,AMNE19.jpg,AMSA07.jpg,AMNE19.jpg,MN,1,num_2,32,num_8,1.13346889941,,,2018_Jan_18_1404,60.0046959655,FEMA4ImagesEEG,001,102774,
AFNE01.JPG,AFNE01.JPG,AFNE01.JPG,AFNE01.JPG,AFNE01.JPG,AFNE01.JPG,,,,,,,,,,,,,3,9,39,2,,,,,,,,,,,AMSA05.jpg,AMNE20.jpg,AMSA11.jpg,AMNE19.jpg,AMSA05.jpg,MS,2,num_8,32,num_2,1.33341629803,,,2018_Jan_18_1404,60.0046959655,FEMA4ImagesEEG,001,102774,
AFNE01.JPG,AFNE01.JPG,AFNE01.JPG,AFNE01.JPG,AFNE01.JPG,AFNE01.JPG,,,,,,,,,,,,,4,0,40,3,,,,,,,,,,,AMSA19.jpg,AMNE02.jpg,AMSA03.jpg,AMNE03.jpg,AMSA03.jpg,MS,2,num_2,16,num_2,1.21676283563,,,2018_Jan_18_1404,60.0046959655,FEMA4ImagesEEG,001,102774,
AFNE01.JPG,AFNE01.JPG,AFNE01.JPG,AFNE01.JPG,AFNE01.JPG,AFNE01.JPG,,,,,,,,,,,,,4,1,41,5,,,,,,,,,,,AMSA17.jpg,AMNE06.jpg,AMNE17.jpg,AMSA05.jpg,AMSA05.jpg,MS,2,num_4,32,num_2,1.00009141117,,,2018_Jan_18_1404,60.0046959655,FEMA4ImagesEEG,001,102774,
AFNE01.JPG,AFNE01.JPG,AFNE01.JPG,AFNE01.JPG,AFNE01.JPG,AFNE01.JPG,,,,,,,,,,,,,4,2,42,6,,,,,,,,,,,AMSA17.jpg,AMNE16.jpg,AMNE18.jpg,AMSA15.jpg,AMSA17.jpg,MS,2,num_8,16,num_8,1.18349632248,,,2018_Jan_18_1404,60.0046959655,FEMA4ImagesEEG,001,102774,
AFNE01.JPG,AFNE01.JPG,AFNE01.JPG,AFNE01.JPG,AFNE01.JPG,AFNE01.JPG,,,,,,,,,,,,,4,3,43,4,,,,,,,,,,,AMNE14.jpg,AMSA15.jpg,AMNE07.jpg,AMSA13.jpg,AMSA15.jpg,MS,2,num_6,16,num_6,0.63346505072,,,2018_Jan_18_1404,60.0046959655,FEMA4ImagesEEG,001,102774,
AFNE01.JPG,AFNE01.JPG,AFNE01.JPG,AFNE01.JPG,AFNE01.JPG,AFNE01.JPG,,,,,,,,,,,,,4,4,44,8,,,,,,,,,,,AMSA07.jpg,AMNE07.jpg,AMNE06.jpg,AMSA11.jpg,AMSA11.jpg,MS,2,num_4,16,num_4,1.23342014709,,,2018_Jan_18_1404,60.0046959655,FEMA4ImagesEEG,001,102774,
AFNE01.JPG,AFNE01.JPG,AFNE01.JPG,AFNE01.JPG,AFNE01.JPG,AFNE01.JPG,,,,,,,,,,,,,4,5,45,1,,,,,,,,,,,AMSA09.jpg,AMSA08.jpg,AMNE18.jpg,AMNE17.jpg,AMSA08.jpg,MS,2,num_6,32,num_8,1.10007601557,,,2018_Jan_18_1404,60.0046959655,FEMA4ImagesEEG,001,102774,
AFNE01.JPG,AFNE01.JPG,AFNE01.JPG,AFNE01.JPG,AFNE01.JPG,AFNE01.JPG,,,,,,,,,,,,,4,6,46,9,,,,,,,,,,,AMSA13.jpg,AMNE07.jpg,AMNE10.jpg,AMSA19.jpg,AMNE07.jpg,MN,1,num_6,32,num_8,1.11677662702,,,2018_Jan_18_1404,60.0046959655,FEMA4ImagesEEG,001,102774,
AFNE01.JPG,AFNE01.JPG,AFNE01.JPG,AFNE01.JPG,AFNE01.JPG,AFNE01.JPG,,,,,,,,,,,,,4,7,47,0,,,,,,,,,,,AMSA16.jpg,AMSA10.jpg,AMNE20.jpg,AMNE11.jpg,AMNE11.jpg,MN,1,num_4,16,num_4,0.633529840037,,,2018_Jan_18_1404,60.0046959655,FEMA4ImagesEEG,001,102774,
AFNE01.JPG,AFNE01.JPG,AFNE01.JPG,AFNE01.JPG,AFNE01.JPG,AFNE01.JPG,,,,,,,,,,,,,4,8,48,2,,,,,,,,,,,AMNE16.jpg,AMNE20.jpg,AMSA15.jpg,AMSA06.jpg,AMNE16.jpg,MN,1,num_8,32,num_2,1.29992847517,,,2018_Jan_18_1404,60.0046959655,FEMA4ImagesEEG,001,102774,
AFNE01.JPG,AFNE01.JPG,AFNE01.JPG,AFNE01.JPG,AFNE01.JPG,AFNE01.JPG,,,,,,,,,,,,,4,9,49,7,,,,,,,,,,,AMNE20.jpg,AMSA11.jpg,AMSA07.jpg,AMNE05.jpg,AMNE20.jpg,MN,1,num_8,32,num_2,1.3667421476,,,2018_Jan_18_1404,60.0046959655,FEMA4ImagesEEG,001,102774,
AFNE01.JPG,AFNE01.JPG,AFNE01.JPG,AFNE01.JPG,AFNE01.JPG,AFNE01.JPG,,,,,,,,,,,,,5,0,50,4,,,,,,,,,,,AMNE14.jpg,AMNE16.jpg,AMSA08.jpg,AMSA02.jpg,AMSA02.jpg,MS,2,num_4,32,num_8,1.55015571928,,,2018_Jan_18_1404,60.0046959655,FEMA4ImagesEEG,001,102774,
AFNE01.JPG,AFNE01.JPG,AFNE01.JPG,AFNE01.JPG,AFNE01.JPG,AFNE01.JPG,,,,,,,,,,,,,5,1,51,8,,,,,,,,,,,AMSA20.jpg,AMSA10.jpg,AMNE03.jpg,AMNE09.jpg,AMSA20.jpg,MS,2,num_8,16,num_8,0.75015700236,,,2018_Jan_18_1404,60.0046959655,FEMA4ImagesEEG,001,102774,
AFNE01.JPG,AFNE01.JPG,AFNE01.JPG,AFNE01.JPG,AFNE01.JPG,AFNE01.JPG,,,,,,,,,,,,,5,2,52,0,,,,,,,,,,,AMNE14.jpg,AMSA16.jpg,AMNE13.jpg,AMSA13.jpg,AMNE13.jpg,MN,1,num_2,16,num_2,1.33346312633,,,2018_Jan_18_1404,60.0046959655,FEMA4ImagesEEG,001,102774,
AFNE01.JPG,AFNE01.JPG,AFNE01.JPG,AFNE01.JPG,AFNE01.JPG,AFNE01.JPG,,,,,,,,,,,,,5,3,53,7,,,,,,,,,,,AMSA10.jpg,AMNE03.jpg,AMNE20.jpg,AMSA14.jpg,AMNE03.jpg,MN,1,num_6,16,num_6,0.73342720326,,,2018_Jan_18_1404,60.0046959655,FEMA4ImagesEEG,001,102774,
AFNE01.JPG,AFNE01.JPG,AFNE01.JPG,AFNE01.JPG,AFNE01.JPG,AFNE01.JPG,,,,,,,,,,,,,5,4,54,1,,,,,,,,,,,AMNE13.jpg,AMSA10.jpg,AMSA05.jpg,AMNE03.jpg,AMNE03.jpg,MN,1,num_4,32,num_2,1.58337091329,,,2018_Jan_18_1404,60.0046959655,FEMA4ImagesEEG,001,102774,
AFNE01.JPG,AFNE01.JPG,AFNE01.JPG,AFNE01.JPG,AFNE01.JPG,AFNE01.JPG,,,,,,,,,,,,,5,5,55,3,,,,,,,,,,,AMSA12.jpg,AMNE10.jpg,AMSA11.jpg,AMNE20.jpg,AMSA12.jpg,MS,2,num_8,16,num_8,1.05010151397,,,2018_Jan_18_1404,60.0046959655,FEMA4ImagesEEG,001,102774,
AFNE01.JPG,AFNE01.JPG,AFNE01.JPG,AFNE01.JPG,AFNE01.JPG,AFNE01.JPG,,,,,,,,,,,,,5,6,56,9,,,,,,,,,,,AMSA18.jpg,AMSA12.jpg,AMNE08.jpg,AMNE19.jpg,AMSA12.jpg,MS,2,num_6,16,num_6,0.583481568843,,,2018_Jan_18_1404,60.0046959655,FEMA4ImagesEEG,001,102774,
AFNE01.JPG,AFNE01.JPG,AFNE01.JPG,AFNE01.JPG,AFNE01.JPG,AFNE01.JPG,,,,,,,,,,,,,5,7,57,5,,,,,,,,,,,AMNE16.jpg,AMSA03.jpg,AMNE18.jpg,AMSA20.jpg,AMNE16.jpg,MN,1,num_8,32,num_2,1.23346537119,,,2018_Jan_18_1404,60.0046959655,FEMA4ImagesEEG,001,102774,
AFNE01.JPG,AFNE01.JPG,AFNE01.JPG,AFNE01.JPG,AFNE01.JPG,AFNE01.JPG,,,,,,,,,,,,,5,8,58,6,,,,,,,,,,,AMSA14.jpg,AMNE06.jpg,AMNE09.jpg,AMSA16.jpg,AMNE06.jpg,MN,1,num_6,32,num_8,1.31670830911,,,2018_Jan_18_1404,60.0046959655,FEMA4ImagesEEG,001,102774,
AFNE01.JPG,AFNE01.JPG,AFNE01.JPG,AFNE01.JPG,AFNE01.JPG,AFNE01.JPG,,,,,,,,,,,,,5,9,59,2,,,,,,,,,,,AMNE20.jpg,AMNE01.jpg,AMSA20.jpg,AMSA05.jpg,AMNE20.jpg,MN,1,num_8,32,num_2,1.6167570618,,,2018_Jan_18_1404,60.0046959655,FEMA4ImagesEEG,001,102774,
,,,,,,,,,,,,,,,,,,,,,,,,,,,,,,,,,,,,,,,,,,,space,4.53309395444,2018_Jan_18_1404,60.0046959655,FEMA4ImagesEEG,001,102774,
AFNE01.JPG,AFNE01.JPG,AFNE01.JPG,AFNE01.JPG,AFNE01.JPG,AFNE01.JPG,,,,,,,,,,,,,,,,,0,0,0,1,,,,,,,AFNE14.jpg,AFSA10.jpg,AFNE08.jpg,AFSA17.jpg,AFSA17.jpg,FS,4,num_4,32,num_8,1.46660294663,,,2018_Jan_18_1404,60.0046959655,FEMA4ImagesEEG,001,102774,
AFNE01.JPG,AFNE01.JPG,AFNE01.JPG,AFNE01.JPG,AFNE01.JPG,AFNE01.JPG,,,,,,,,,,,,,,,,,0,1,1,4,,,,,,,AFSA15.jpg,AFNE10.jpg,AFNE12.jpg,AFSA12.jpg,AFNE12.jpg,FN,3,num_2,32,num_6,0.966793786734,,,2018_Jan_18_1404,60.0046959655,FEMA4ImagesEEG,001,102774,
AFNE01.JPG,AFNE01.JPG,AFNE01.JPG,AFNE01.JPG,AFNE01.JPG,AFNE01.JPG,,,,,,,,,,,,,,,,,0,2,2,6,,,,,,,AFSA04.jpg,AFNE06.jpg,AFSA15.jpg,AFNE05.jpg,AFSA15.jpg,FS,4,num_2,32,num_6,1.46696826909,,,2018_Jan_18_1404,60.0046959655,FEMA4ImagesEEG,001,102774,
AFNE01.JPG,AFNE01.JPG,AFNE01.JPG,AFNE01.JPG,AFNE01.JPG,AFNE01.JPG,,,,,,,,,,,,,,,,,0,3,3,3,,,,,,,AFSA08.jpg,AFSA12.jpg,AFNE11.jpg,AFNE02.jpg,AFSA08.jpg,FS,4,num_8,16,num_8,1.2004217729,,,2018_Jan_18_1404,60.0046959655,FEMA4ImagesEEG,001,102774,
AFNE01.JPG,AFNE01.JPG,AFNE01.JPG,AFNE01.JPG,AFNE01.JPG,AFNE01.JPG,,,,,,,,,,,,,,,,,0,4,4,2,,,,,,,AFNE16.jpg,AFSA17.jpg,AFNE04.jpg,AFSA09.jpg,AFSA17.jpg,FS,4,num_6,32,num_8,1.33343650447,,,2018_Jan_18_1404,60.0046959655,FEMA4ImagesEEG,001,102774,
AFNE01.JPG,AFNE01.JPG,AFNE01.JPG,AFNE01.JPG,AFNE01.JPG,AFNE01.JPG,,,,,,,,,,,,,,,,,0,5,5,5,,,,,,,AFSA03.jpg,AFSA08.jpg,AFNE06.jpg,AFNE13.jpg,AFSA08.jpg,FS,4,num_6,16,num_6,0.750089326408,,,2018_Jan_18_1404,60.0046959655,FEMA4ImagesEEG,001,102774,
AFNE01.JPG,AFNE01.JPG,AFNE01.JPG,AFNE01.JPG,AFNE01.JPG,AFNE01.JPG,,,,,,,,,,,,,,,,,0,6,6,7,,,,,,,AFNE04.jpg,AFSA11.jpg,AFNE05.jpg,AFSA07.jpg,AFSA11.jpg,FS,4,num_6,32,num_8,1.16673733667,,,2018_Jan_18_1404,60.0046959655,FEMA4ImagesEEG,001,102774,
AFNE01.JPG,AFNE01.JPG,AFNE01.JPG,AFNE01.JPG,AFNE01.JPG,AFNE01.JPG,,,,,,,,,,,,,,,,,0,7,7,0,,,,,,,AFSA15.jpg,AFNE09.jpg,AFSA17.jpg,AFNE13.jpg,AFNE09.jpg,FN,3,num_6,16,num_6,0.583561433014,,,2018_Jan_18_1404,60.0046959655,FEMA4ImagesEEG,001,102774,
AFNE01.JPG,AFNE01.JPG,AFNE01.JPG,AFNE01.JPG,AFNE01.JPG,AFNE01.JPG,,,,,,,,,,,,,,,,,0,8,8,8,,,,,,,AFSA20.jpg,AFNE12.jpg,AFNE11.jpg,AFSA14.jpg,AFSA14.jpg,FS,4,num_4,16,num_4,1.0000827508,,,2018_Jan_18_1404,60.0046959655,FEMA4ImagesEEG,001,102774,
AFNE01.JPG,AFNE01.JPG,AFNE01.JPG,AFNE01.JPG,AFNE01.JPG,AFNE01.JPG,,,,,,,,,,,,,,,,,0,9,9,9,,,,,,,AFNE10.jpg,AFSA04.jpg,AFNE12.jpg,AFSA09.jpg,AFSA09.jpg,FS,4,num_4,16,num_4,0.966756260023,,,2018_Jan_18_1404,60.0046959655,FEMA4ImagesEEG,001,102774,
AFNE01.JPG,AFNE01.JPG,AFNE01.JPG,AFNE01.JPG,AFNE01.JPG,AFNE01.JPG,,,,,,,,,,,,,,,,,1,0,10,5,,,,,,,AFSA08.jpg,AFNE10.jpg,AFNE14.jpg,AFSA05.jpg,AFSA05.jpg,FS,4,num_4,32,num_8,0.750176567584,,,2018_Jan_18_1404,60.0046959655,FEMA4ImagesEEG,001,102774,
AFNE01.JPG,AFNE01.JPG,AFNE01.JPG,AFNE01.JPG,AFNE01.JPG,AFNE01.JPG,,,,,,,,,,,,,,,,,1,1,11,2,,,,,,,AFSA12.jpg,AFNE13.jpg,AFSA11.jpg,AFNE14.jpg,AFSA11.jpg,FS,4,num_2,16,num_2,1.78339079907,,,2018_Jan_18_1404,60.0046959655,FEMA4ImagesEEG,001,102774,
AFNE01.JPG,AFNE01.JPG,AFNE01.JPG,AFNE01.JPG,AFNE01.JPG,AFNE01.JPG,,,,,,,,,,,,,,,,,1,2,12,6,,,,,,,AFNE16.jpg,AFSA11.jpg,AFSA15.jpg,AFNE02.jpg,AFNE02.jpg,FN,3,num_4,16,num_4,1.05010055192,,,2018_Jan_18_1404,60.0046959655,FEMA4ImagesEEG,001,102774,
AFNE01.JPG,AFNE01.JPG,AFNE01.JPG,AFNE01.JPG,AFNE01.JPG,AFNE01.JPG,,,,,,,,,,,,,,,,,1,3,13,1,,,,,,,AFNE02.jpg,AFSA20.jpg,AFNE17.jpg,AFSA09.jpg,AFNE17.jpg,FN,3,num_2,16,num_2,1.01700210758,,,2018_Jan_18_1404,60.0046959655,FEMA4ImagesEEG,001,102774,
AFNE01.JPG,AFNE01.JPG,AFNE01.JPG,AFNE01.JPG,AFNE01.JPG,AFNE01.JPG,,,,,,,,,,,,,,,,,1,4,14,3,,,,,,,AFSA18.jpg,AFNE19.jpg,AFNE16.jpg,AFSA14.jpg,AFSA18.jpg,FS,4,num_8,16,num_8,1.36672514817,,,2018_Jan_18_1404,60.0046959655,FEMA4ImagesEEG,001,102774,
AFNE01.JPG,AFNE01.JPG,AFNE01.JPG,AFNE01.JPG,AFNE01.JPG,AFNE01.JPG,,,,,,,,,,,,,,,,,1,5,15,8,,,,,,,AFNE19.jpg,AFSA04.jpg,AFSA06.jpg,AFNE05.jpg,AFSA04.jpg,FS,4,num_6,16,num_6,0.683447249699,,,2018_Jan_18_1404,60.0046959655,FEMA4ImagesEEG,001,102774,
AFNE01.JPG,AFNE01.JPG,AFNE01.JPG,AFNE01.JPG,AFNE01.JPG,AFNE01.JPG,,,,,,,,,,,,,,,,,1,6,16,9,,,,,,,AFSA03.jpg,AFNE11.jpg,AFNE01.jpg,AFSA08.jpg,AFSA03.jpg,FS,4,num_8,16,num_8,1.03346376773,,,2018_Jan_18_1404,60.0046959655,FEMA4ImagesEEG,001,102774,
AFNE01.JPG,AFNE01.JPG,AFNE01.JPG,AFNE01.JPG,AFNE01.JPG,AFNE01.JPG,,,,,,,,,,,,,,,,,1,7,17,0,,,,,,,AFNE15.jpg,AFNE04.jpg,AFSA16.jpg,AFSA01.jpg,AFNE04.jpg,FN,3,num_6,32,num_8,0.949969048612,,,2018_Jan_18_1404,60.0046959655,FEMA4ImagesEEG,001,102774,
AFNE01.JPG,AFNE01.JPG,AFNE01.JPG,AFNE01.JPG,AFNE01.JPG,AFNE01.JPG,,,,,,,,,,,,,,,,,1,8,18,4,,,,,,,AFNE04.jpg,AFNE07.jpg,AFSA14.jpg,AFSA15.jpg,AFNE07.jpg,FN,3,num_6,32,num_8,0.966751127969,,,2018_Jan_18_1404,60.0046959655,FEMA4ImagesEEG,001,102774,
AFNE01.JPG,AFNE01.JPG,AFNE01.JPG,AFNE01.JPG,AFNE01.JPG,AFNE01.JPG,,,,,,,,,,,,,,,,,1,9,19,7,,,,,,,AFNE18.jpg,AFSA07.jpg,AFNE03.jpg,AFSA06.jpg,AFNE18.jpg,FN,3,num_8,32,num_4,1.0833843844,,,2018_Jan_18_1404,60.0046959655,FEMA4ImagesEEG,001,102774,
AFNE01.JPG,AFNE01.JPG,AFNE01.JPG,AFNE01.JPG,AFNE01.JPG,AFNE01.JPG,,,,,,,,,,,,,,,,,2,0,20,7,,,,,,,AFNE01.jpg,AFSA09.jpg,AFSA03.jpg,AFNE18.jpg,AFNE01.jpg,FN,3,num_8,32,num_4,1.03342175065,,,2018_Jan_18_1404,60.0046959655,FEMA4ImagesEEG,001,102774,
AFNE01.JPG,AFNE01.JPG,AFNE01.JPG,AFNE01.JPG,AFNE01.JPG,AFNE01.JPG,,,,,,,,,,,,,,,,,2,1,21,6,,,,,,,AFSA10.jpg,AFNE16.jpg,AFSA02.jpg,AFNE12.jpg,AFNE16.jpg,FN,3,num_6,16,num_6,0.883186808787,,,2018_Jan_18_1404,60.0046959655,FEMA4ImagesEEG,001,102774,
AFNE01.JPG,AFNE01.JPG,AFNE01.JPG,AFNE01.JPG,AFNE01.JPG,AFNE01.JPG,,,,,,,,,,,,,,,,,2,2,22,5,,,,,,,AFSA10.jpg,AFNE17.jpg,AFSA20.jpg,AFNE12.jpg,AFNE12.jpg,FN,3,num_4,32,num_8,1.35010696715,,,2018_Jan_18_1404,60.0046959655,FEMA4ImagesEEG,001,102774,
AFNE01.JPG,AFNE01.JPG,AFNE01.JPG,AFNE01.JPG,AFNE01.JPG,AFNE01.JPG,,,,,,,,,,,,,,,,,2,3,23,9,,,,,,,AFSA11.jpg,AFSA01.jpg,AFNE13.jpg,AFNE20.jpg,AFNE20.jpg,FN,3,num_4,16,num_4,0.616801965516,,,2018_Jan_18_1404,60.0046959655,FEMA4ImagesEEG,001,102774,
AFNE01.JPG,AFNE01.JPG,AFNE01.JPG,AFNE01.JPG,AFNE01.JPG,AFNE01.JPG,,,,,,,,,,,,,,,,,2,4,24,1,,,,,,,AFSA13.jpg,AFNE16.jpg,AFSA04.jpg,AFNE11.jpg,AFNE16.jpg,FN,3,num_6,32,num_8,1.21699825814,,,2018_Jan_18_1404,60.0046959655,FEMA4ImagesEEG,001,102774,
AFNE01.JPG,AFNE01.JPG,AFNE01.JPG,AFNE01.JPG,AFNE01.JPG,AFNE01.JPG,,,,,,,,,,,,,,,,,2,5,25,4,,,,,,,AFNE08.jpg,AFSA04.jpg,AFNE19.jpg,AFSA03.jpg,AFSA04.jpg,FS,4,num_6,16,num_6,1.30014080461,,,2018_Jan_18_1404,60.0046959655,FEMA4ImagesEEG,001,102774,
AFNE01.JPG,AFNE01.JPG,AFNE01.JPG,AFNE01.JPG,AFNE01.JPG,AFNE01.JPG,,,,,,,,,,,,,,,,,2,6,26,3,,,,,,,AFSA15.jpg,AFNE03.jpg,AFNE16.jpg,AFSA10.jpg,AFNE03.jpg,FN,3,num_6,32,num_8,1.06670173444,,,2018_Jan_18_1404,60.0046959655,FEMA4ImagesEEG,001,102774,
AFNE01.JPG,AFNE01.JPG,AFNE01.JPG,AFNE01.JPG,AFNE01.JPG,AFNE01.JPG,,,,,,,,,,,,,,,,,2,7,27,0,,,,,,,AFSA16.jpg,AFSA08.jpg,AFNE19.jpg,AFNE05.jpg,AFSA16.jpg,FS,4,num_8,16,num_8,0.916807739064,,,2018_Jan_18_1404,60.0046959655,FEMA4ImagesEEG,001,102774,
AFNE01.JPG,AFNE01.JPG,AFNE01.JPG,AFNE01.JPG,AFNE01.JPG,AFNE01.JPG,,,,,,,,,,,,,,,,,2,8,28,8,,,,,,,AFSA13.jpg,AFSA01.jpg,AFNE01.jpg,AFNE16.jpg,AFSA01.jpg,FS,4,num_6,32,num_4,0.800146578345,,,2018_Jan_18_1404,60.0046959655,FEMA4ImagesEEG,001,102774,
AFNE01.JPG,AFNE01.JPG,AFNE01.JPG,AFNE01.JPG,AFNE01.JPG,AFNE01.JPG,,,,,,,,,,,,,,,,,2,9,29,2,,,,,,,AFSA02.jpg,AFNE05.jpg,AFNE04.jpg,AFSA18.jpg,AFNE05.jpg,FN,3,num_6,32,num_2,1.73337267712,,,2018_Jan_18_1404,60.0046959655,FEMA4ImagesEEG,001,102774,
AFNE01.JPG,AFNE01.JPG,AFNE01.JPG,AFNE01.JPG,AFNE01.JPG,AFNE01.JPG,,,,,,,,,,,,,,,,,3,0,30,7,,,,,,,AFNE03.jpg,AFSA09.jpg,AFSA05.jpg,AFNE16.jpg,AFSA05.jpg,FS,4,num_2,32,num_8,0.750108570792,,,2018_Jan_18_1404,60.0046959655,FEMA4ImagesEEG,001,102774,
AFNE01.JPG,AFNE01.JPG,AFNE01.JPG,AFNE01.JPG,AFNE01.JPG,AFNE01.JPG,,,,,,,,,,,,,,,,,3,1,31,1,,,,,,,AFSA16.jpg,AFNE02.jpg,AFNE01.jpg,AFSA14.jpg,AFNE02.jpg,FN,3,num_6,32,num_2,1.03345895652,,,2018_Jan_18_1404,60.0046959655,FEMA4ImagesEEG,001,102774,
AFNE01.JPG,AFNE01.JPG,AFNE01.JPG,AFNE01.JPG,AFNE01.JPG,AFNE01.JPG,,,,,,,,,,,,,,,,,3,2,32,9,,,,,,,AFSA05.jpg,AFSA20.jpg,AFNE08.jpg,AFNE04.jpg,AFSA05.jpg,FS,4,num_8,32,num_2,1.90006478969,,,2018_Jan_18_1404,60.0046959655,FEMA4ImagesEEG,001,102774,
AFNE01.JPG,AFNE01.JPG,AFNE01.JPG,AFNE01.JPG,AFNE01.JPG,AFNE01.JPG,,,,,,,,,,,,,,,,,3,3,33,4,,,,,,,AFSA15.jpg,AFSA05.jpg,AFNE10.jpg,AFNE09.jpg,AFSA05.jpg,FS,4,num_6,32,num_2,0.966816879809,,,2018_Jan_18_1404,60.0046959655,FEMA4ImagesEEG,001,102774,
AFNE01.JPG,AFNE01.JPG,AFNE01.JPG,AFNE01.JPG,AFNE01.JPG,AFNE01.JPG,,,,,,,,,,,,,,,,,3,4,34,2,,,,,,,AFNE03.jpg,AFSA18.jpg,AFNE14.jpg,AFSA06.jpg,AFSA06.jpg,FS,4,num_4,16,num_4,0.783459758386,,,2018_Jan_18_1404,60.0046959655,FEMA4ImagesEEG,001,102774,
AFNE01.JPG,AFNE01.JPG,AFNE01.JPG,AFNE01.JPG,AFNE01.JPG,AFNE01.JPG,,,,,,,,,,,,,,,,,3,5,35,8,,,,,,,AFSA07.jpg,AFNE07.jpg,AFSA17.jpg,AFNE16.jpg,AFSA17.jpg,FS,4,num_2,32,num_6,0.800193085335,,,2018_Jan_18_1404,60.0046959655,FEMA4ImagesEEG,001,102774,
AFNE01.JPG,AFNE01.JPG,AFNE01.JPG,AFNE01.JPG,AFNE01.JPG,AFNE01.JPG,,,,,,,,,,,,,,,,,3,6,36,0,,,,,,,AFSA04.jpg,AFSA07.jpg,AFNE01.jpg,AFNE02.jpg,AFSA04.jpg,FS,4,num_8,16,num_8,1.20007665688,,,2018_Jan_18_1404,60.0046959655,FEMA4ImagesEEG,001,102774,
AFNE01.JPG,AFNE01.JPG,AFNE01.JPG,AFNE01.JPG,AFNE01.JPG,AFNE01.JPG,,,,,,,,,,,,,,,,,3,7,37,6,,,,,,,AFSA19.jpg,AFSA06.jpg,AFNE14.jpg,AFNE12.jpg,AFNE14.jpg,FN,3,num_2,32,num_8,0.933476597071,,,2018_Jan_18_1404,60.0046959655,FEMA4ImagesEEG,001,102774,
AFNE01.JPG,AFNE01.JPG,AFNE01.JPG,AFNE01.JPG,AFNE01.JPG,AFNE01.JPG,,,,,,,,,,,,,,,,,3,8,38,5,,,,,,,AFSA03.jpg,AFNE01.jpg,AFNE07.jpg,AFSA14.jpg,AFSA14.jpg,FS,4,num_4,16,num_4,1.30011642864,,,2018_Jan_18_1404,60.0046959655,FEMA4ImagesEEG,001,102774,
AFNE01.JPG,AFNE01.JPG,AFNE01.JPG,AFNE01.JPG,AFNE01.JPG,AFNE01.JPG,,,,,,,,,,,,,,,,,3,9,39,3,,,,,,,AFNE16.jpg,AFSA03.jpg,AFNE07.jpg,AFSA11.jpg,AFNE16.jpg,FN,3,num_8,32,num_2,1.75003993232,,,2018_Jan_18_1404,60.0046959655,FEMA4ImagesEEG,001,102774,
AFNE01.JPG,AFNE01.JPG,AFNE01.JPG,AFNE01.JPG,AFNE01.JPG,AFNE01.JPG,,,,,,,,,,,,,,,,,4,0,40,1,,,,,,,AFSA10.jpg,AFNE11.jpg,AFSA06.jpg,AFNE17.jpg,AFNE11.jpg,FN,3,num_6,32,num_8,0.983515567146,,,2018_Jan_18_1404,60.0046959655,FEMA4ImagesEEG,001,102774,
AFNE01.JPG,AFNE01.JPG,AFNE01.JPG,AFNE01.JPG,AFNE01.JPG,AFNE01.JPG,,,,,,,,,,,,,,,,,4,1,41,9,,,,,,,AFSA08.jpg,AFNE10.jpg,AFNE12.jpg,AFSA18.jpg,AFSA08.jpg,FS,4,num_8,32,num_4,1.30008050567,,,2018_Jan_18_1404,60.0046959655,FEMA4ImagesEEG,001,102774,
AFNE01.JPG,AFNE01.JPG,AFNE01.JPG,AFNE01.JPG,AFNE01.JPG,AFNE01.JPG,,,,,,,,,,,,,,,,,4,2,42,6,,,,,,,AFSA08.jpg,AFSA18.jpg,AFNE01.jpg,AFNE18.jpg,AFSA08.jpg,FS,4,num_8,16,num_8,1.36669724388,,,2018_Jan_18_1404,60.0046959655,FEMA4ImagesEEG,001,102774,
AFNE01.JPG,AFNE01.JPG,AFNE01.JPG,AFNE01.JPG,AFNE01.JPG,AFNE01.JPG,,,,,,,,,,,,,,,,,4,3,43,2,,,,,,,AFSA12.jpg,AFSA14.jpg,AFNE12.jpg,AFNE14.jpg,AFNE14.jpg,FN,3,num_4,32,num_6,1.2333848658,,,2018_Jan_18_1404,60.0046959655,FEMA4ImagesEEG,001,102774,
AFNE01.JPG,AFNE01.JPG,AFNE01.JPG,AFNE01.JPG,AFNE01.JPG,AFNE01.JPG,,,,,,,,,,,,,,,,,4,4,44,4,,,,,,,AFSA08.jpg,AFNE11.jpg,AFNE05.jpg,AFSA09.jpg,AFNE11.jpg,FN,3,num_6,32,num_8,0.883458796423,,,2018_Jan_18_1404,60.0046959655,FEMA4ImagesEEG,001,102774,
AFNE01.JPG,AFNE01.JPG,AFNE01.JPG,AFNE01.JPG,AFNE01.JPG,AFNE01.JPG,,,,,,,,,,,,,,,,,4,5,45,0,,,,,,,AFNE12.jpg,AFNE16.jpg,AFSA19.jpg,AFSA07.jpg,AFSA07.jpg,FS,4,num_4,16,num_4,0.766598776914,,,2018_Jan_18_1404,60.0046959655,FEMA4ImagesEEG,001,102774,
AFNE01.JPG,AFNE01.JPG,AFNE01.JPG,AFNE01.JPG,AFNE01.JPG,AFNE01.JPG,,,,,,,,,,,,,,,,,4,6,46,7,,,,,,,AFNE15.jpg,AFNE06.jpg,AFSA07.jpg,AFSA15.jpg,AFNE15.jpg,FN,3,num_8,32,num_2,1.88325608848,,,2018_Jan_18_1404,60.0046959655,FEMA4ImagesEEG,001,102774,
AFNE01.JPG,AFNE01.JPG,AFNE01.JPG,AFNE01.JPG,AFNE01.JPG,AFNE01.JPG,,,,,,,,,,,,,,,,,4,7,47,8,,,,,,,AFSA02.jpg,AFNE10.jpg,AFSA08.jpg,AFNE13.jpg,AFNE13.jpg,FN,3,num_4,32,num_8,1.10015587928,,,2018_Jan_18_1404,60.0046959655,FEMA4ImagesEEG,001,102774,
AFNE01.JPG,AFNE01.JPG,AFNE01.JPG,AFNE01.JPG,AFNE01.JPG,AFNE01.JPG,,,,,,,,,,,,,,,,,4,8,48,3,,,,,,,AFNE14.jpg,AFSA20.jpg,AFSA16.jpg,AFNE10.jpg,AFNE14.jpg,FN,3,num_8,32,num_6,0.883469059598,,,2018_Jan_18_1404,60.0046959655,FEMA4ImagesEEG,001,102774,
AFNE01.JPG,AFNE01.JPG,AFNE01.JPG,AFNE01.JPG,AFNE01.JPG,AFNE01.JPG,,,,,,,,,,,,,,,,,4,9,49,5,,,,,,,AFNE10.jpg,AFSA14.jpg,AFSA02.jpg,AFNE02.jpg,AFNE10.jpg,FN,3,num_8,16,num_8,0.766794748604,,,2018_Jan_18_1404,60.0046959655,FEMA4ImagesEEG,001,102774,
AFNE01.JPG,AFNE01.JPG,AFNE01.JPG,AFNE01.JPG,AFNE01.JPG,AFNE01.JPG,,,,,,,,,,,,,,,,,5,0,50,1,,,,,,,AFSA13.jpg,AFNE10.jpg,AFNE20.jpg,AFSA04.jpg,AFNE20.jpg,FN,3,num_2,16,num_2,1.11677149497,,,2018_Jan_18_1404,60.0046959655,FEMA4ImagesEEG,001,102774,
AFNE01.JPG,AFNE01.JPG,AFNE01.JPG,AFNE01.JPG,AFNE01.JPG,AFNE01.JPG,,,,,,,,,,,,,,,,,5,1,51,6,,,,,,,AFNE13.jpg,AFNE18.jpg,AFSA07.jpg,AFSA18.jpg,AFNE18.jpg,FN,3,num_6,32,num_8,0.866779032629,,,2018_Jan_18_1404,60.0046959655,FEMA4ImagesEEG,001,102774,
AFNE01.JPG,AFNE01.JPG,AFNE01.JPG,AFNE01.JPG,AFNE01.JPG,AFNE01.JPG,,,,,,,,,,,,,,,,,5,2,52,7,,,,,,,AFNE06.jpg,AFSA07.jpg,AFSA20.jpg,AFNE02.jpg,AFNE06.jpg,FN,3,num_8,32,num_6,1.03345831484,,,2018_Jan_18_1404,60.0046959655,FEMA4ImagesEEG,001,102774,
AFNE01.JPG,AFNE01.JPG,AFNE01.JPG,AFNE01.JPG,AFNE01.JPG,AFNE01.JPG,,,,,,,,,,,,,,,,,5,3,53,9,,,,,,,AFSA04.jpg,AFSA10.jpg,AFNE10.jpg,AFNE12.jpg,AFNE10.jpg,FN,3,num_2,16,num_2,1.23344676849,,,2018_Jan_18_1404,60.0046959655,FEMA4ImagesEEG,001,102774,
AFNE01.JPG,AFNE01.JPG,AFNE01.JPG,AFNE01.JPG,AFNE01.JPG,AFNE01.JPG,,,,,,,,,,,,,,,,,5,4,54,3,,,,,,,AFNE14.jpg,AFSA03.jpg,AFSA12.jpg,AFNE03.jpg,AFNE03.jpg,FN,3,num_4,16,num_4,0.800131182652,,,2018_Jan_18_1404,60.0046959655,FEMA4ImagesEEG,001,102774,
AFNE01.JPG,AFNE01.JPG,AFNE01.JPG,AFNE01.JPG,AFNE01.JPG,AFNE01.JPG,,,,,,,,,,,,,,,,,5,5,55,0,,,,,,,AFNE16.jpg,AFNE12.jpg,AFSA09.jpg,AFSA08.jpg,AFNE12.jpg,FN,3,num_6,16,num_6,0.816792984493,,,2018_Jan_18_1404,60.0046959655,FEMA4ImagesEEG,001,102774,
AFNE01.JPG,AFNE01.JPG,AFNE01.JPG,AFNE01.JPG,AFNE01.JPG,AFNE01.JPG,,,,,,,,,,,,,,,,,5,6,56,8,,,,,,,AFNE05.jpg,AFSA07.jpg,AFNE20.jpg,AFSA19.jpg,AFNE05.jpg,FN,3,num_8,16,num_8,0.733470824081,,,2018_Jan_18_1404,60.0046959655,FEMA4ImagesEEG,001,102774,
AFNE01.JPG,AFNE01.JPG,AFNE01.JPG,AFNE01.JPG,AFNE01.JPG,AFNE01.JPG,,,,,,,,,,,,,,,,,5,7,57,2,,,,,,,AFNE14.jpg,AFSA01.jpg,AFSA09.jpg,AFNE08.jpg,AFSA09.jpg,FS,4,num_2,32,num_4,1.05011979677,,,2018_Jan_18_1404,60.0046959655,FEMA4ImagesEEG,001,102774,
AFNE01.JPG,AFNE01.JPG,AFNE01.JPG,AFNE01.JPG,AFNE01.JPG,AFNE01.JPG,,,,,,,,,,,,,,,,,5,8,58,4,,,,,,,AFSA13.jpg,AFNE16.jpg,AFNE20.jpg,AFSA03.jpg,AFSA03.jpg,FS,4,num_4,16,num_4,0.933442919515,,,2018_Jan_18_1404,60.0046959655,FEMA4ImagesEEG,001,102774,
AFNE01.JPG,AFNE01.JPG,AFNE01.JPG,AFNE01.JPG,AFNE01.JPG,AFNE01.JPG,,,,,,,,,,,,,,,,,5,9,59,5,,,,,,,AFSA08.jpg,AFNE09.jpg,AFNE17.jpg,AFSA17.jpg,AFSA08.jpg,FS,4,num_8,32,num_4,1.56672482751,,,2018_Jan_18_1404,60.0046959655,FEMA4ImagesEEG,001,102774,
,,,,,,,,,,,,,,,,,,,,,,,,,,,,,,,,,,,,,,,,,,,space,9.04948890116,2018_Jan_18_1404,60.0046959655,FEMA4ImagesEEG,001,102774,
AFNE01.JPG,AFNE01.JPG,AFNE01.JPG,AFNE01.JPG,AFNE01.JPG,AFNE01.JPG,,,,,,,,,,,,,,,,,,,,,0,0,0,7,,,AMNE03.jpg,AMSA19.jpg,AMSA15.jpg,AMNE02.jpg,AMNE02.jpg,MN,1,num_4,32,num_6,0.850137116387,,,2018_Jan_18_1404,60.0046959655,FEMA4ImagesEEG,001,102774,
AFNE01.JPG,AFNE01.JPG,AFNE01.JPG,AFNE01.JPG,AFNE01.JPG,AFNE01.JPG,,,,,,,,,,,,,,,,,,,,,0,1,1,9,,,AMNE05.jpg,AMSA06.jpg,AMNE09.jpg,AMSA18.jpg,AMSA06.jpg,MS,2,num_6,32,num_4,0.950098306406,,,2018_Jan_18_1404,60.0046959655,FEMA4ImagesEEG,001,102774,
AFNE01.JPG,AFNE01.JPG,AFNE01.JPG,AFNE01.JPG,AFNE01.JPG,AFNE01.JPG,,,,,,,,,,,,,,,,,,,,,0,2,2,3,,,AMNE20.jpg,AMSA09.jpg,AMSA20.jpg,AMNE10.jpg,AMSA20.jpg,MS,2,num_2,16,num_2,0.800179614685,,,2018_Jan_18_1404,60.0046959655,FEMA4ImagesEEG,001,102774,
AFNE01.JPG,AFNE01.JPG,AFNE01.JPG,AFNE01.JPG,AFNE01.JPG,AFNE01.JPG,,,,,,,,,,,,,,,,,,,,,0,3,3,4,,,AMSA09.jpg,AMSA12.jpg,AMNE17.jpg,AMNE09.jpg,AMSA12.jpg,MS,2,num_6,16,num_6,1.01678945683,,,2018_Jan_18_1404,60.0046959655,FEMA4ImagesEEG,001,102774,
AFNE01.JPG,AFNE01.JPG,AFNE01.JPG,AFNE01.JPG,AFNE01.JPG,AFNE01.JPG,,,,,,,,,,,,,,,,,,,,,0,4,4,1,,,AMNE12.jpg,AMNE07.jpg,AMSA10.jpg,AMSA07.jpg,AMSA07.jpg,MS,2,num_4,16,num_4,0.73343714606,,,2018_Jan_18_1404,60.0046959655,FEMA4ImagesEEG,001,102774,
AFNE01.JPG,AFNE01.JPG,AFNE01.JPG,AFNE01.JPG,AFNE01.JPG,AFNE01.JPG,,,,,,,,,,,,,,,,,,,,,0,5,5,6,,,AMSA06.jpg,AMNE20.jpg,AMSA01.jpg,AMNE08.jpg,AMSA01.jpg,MS,2,num_2,16,num_2,0.800182180479,,,2018_Jan_18_1404,60.0046959655,FEMA4ImagesEEG,001,102774,
AFNE01.JPG,AFNE01.JPG,AFNE01.JPG,AFNE01.JPG,AFNE01.JPG,AFNE01.JPG,,,,,,,,,,,,,,,,,,,,,0,6,6,5,,,AMNE05.jpg,AMSA12.jpg,AMNE18.jpg,AMSA14.jpg,AMNE05.jpg,MN,1,num_8,16,num_8,1.03343618382,,,2018_Jan_18_1404,60.0046959655,FEMA4ImagesEEG,001,102774,
AFNE01.JPG,AFNE01.JPG,AFNE01.JPG,AFNE01.JPG,AFNE01.JPG,AFNE01.JPG,,,,,,,,,,,,,,,,,,,,,0,7,7,2,,,AMSA14.jpg,AMNE11.jpg,AMNE16.jpg,AMSA08.jpg,AMSA08.jpg,MS,2,num_4,16,num_4,0.616768287495,,,2018_Jan_18_1404,60.0046959655,FEMA4ImagesEEG,001,102774,
AFNE01.JPG,AFNE01.JPG,AFNE01.JPG,AFNE01.JPG,AFNE01.JPG,AFNE01.JPG,,,,,,,,,,,,,,,,,,,,,0,8,8,0,,,AMSA05.jpg,AMNE06.jpg,AMSA06.jpg,AMNE02.jpg,AMSA05.jpg,MS,2,num_8,16,num_8,0.866755297873,,,2018_Jan_18_1404,60.0046959655,FEMA4ImagesEEG,001,102774,
AFNE01.JPG,AFNE01.JPG,AFNE01.JPG,AFNE01.JPG,AFNE01.JPG,AFNE01.JPG,,,,,,,,,,,,,,,,,,,,,0,9,9,8,,,AMNE02.jpg,AMSA13.jpg,AMSA10.jpg,AMNE07.jpg,AMNE02.jpg,MN,1,num_8,32,num_6,0.733477879781,,,2018_Jan_18_1404,60.0046959655,FEMA4ImagesEEG,001,102774,
AFNE01.JPG,AFNE01.JPG,AFNE01.JPG,AFNE01.JPG,AFNE01.JPG,AFNE01.JPG,,,,,,,,,,,,,,,,,,,,,1,0,10,8,,,AMSA04.jpg,AMSA15.jpg,AMNE06.jpg,AMNE13.jpg,AMSA15.jpg,MS,2,num_6,32,num_8,0.933491671924,,,2018_Jan_18_1404,60.0046959655,FEMA4ImagesEEG,001,102774,
AFNE01.JPG,AFNE01.JPG,AFNE01.JPG,AFNE01.JPG,AFNE01.JPG,AFNE01.JPG,,,,,,,,,,,,,,,,,,,,,1,1,11,6,,,AMNE10.jpg,AMNE05.jpg,AMSA13.jpg,AMSA17.jpg,AMSA17.jpg,MS,2,num_4,32,num_6,1.40006575175,,,2018_Jan_18_1404,60.0046959655,FEMA4ImagesEEG,001,102774,
AFNE01.JPG,AFNE01.JPG,AFNE01.JPG,AFNE01.JPG,AFNE01.JPG,AFNE01.JPG,,,,,,,,,,,,,,,,,,,,,1,2,12,9,,,AMSA08.jpg,AMNE09.jpg,AMNE08.jpg,AMSA06.jpg,AMSA08.jpg,MS,2,num_8,32,num_2,1.6167230634,,,2018_Jan_18_1404,60.0046959655,FEMA4ImagesEEG,001,102774,
AFNE01.JPG,AFNE01.JPG,AFNE01.JPG,AFNE01.JPG,AFNE01.JPG,AFNE01.JPG,,,,,,,,,,,,,,,,,,,,,1,3,13,4,,,AMNE17.jpg,AMSA18.jpg,AMNE08.jpg,AMSA05.jpg,AMNE17.jpg,MN,1,num_8,32,num_2,1.76669981005,,,2018_Jan_18_1404,60.0046959655,FEMA4ImagesEEG,001,102774,
AFNE01.JPG,AFNE01.JPG,AFNE01.JPG,AFNE01.JPG,AFNE01.JPG,AFNE01.JPG,,,,,,,,,,,,,,,,,,,,,1,4,14,2,,,AMSA20.jpg,AMSA03.jpg,AMNE11.jpg,AMNE12.jpg,AMNE11.jpg,MN,1,num_2,32,num_8,1.45008708118,,,2018_Jan_18_1404,60.0046959655,FEMA4ImagesEEG,001,102774,
AFNE01.JPG,AFNE01.JPG,AFNE01.JPG,AFNE01.JPG,AFNE01.JPG,AFNE01.JPG,,,,,,,,,,,,,,,,,,,,,1,5,15,1,,,AMNE07.jpg,AMSA05.jpg,AMSA09.jpg,AMNE19.jpg,AMSA09.jpg,MS,2,num_2,16,num_2,1.48338470515,,,2018_Jan_18_1404,60.0046959655,FEMA4ImagesEEG,001,102774,
AFNE01.JPG,AFNE01.JPG,AFNE01.JPG,AFNE01.JPG,AFNE01.JPG,AFNE01.JPG,,,,,,,,,,,,,,,,,,,,,1,6,16,3,,,AMNE12.jpg,AMSA17.jpg,AMSA13.jpg,AMNE04.jpg,AMNE04.jpg,MN,1,num_4,32,num_2,1.33341918467,,,2018_Jan_18_1404,60.0046959655,FEMA4ImagesEEG,001,102774,
AFNE01.JPG,AFNE01.JPG,AFNE01.JPG,AFNE01.JPG,AFNE01.JPG,AFNE01.JPG,,,,,,,,,,,,,,,,,,,,,1,7,17,7,,,AMSA06.jpg,AMNE19.jpg,AMSA14.jpg,AMNE12.jpg,AMSA14.jpg,MS,2,num_2,32,num_8,0.88345751306,,,2018_Jan_18_1404,60.0046959655,FEMA4ImagesEEG,001,102774,
AFNE01.JPG,AFNE01.JPG,AFNE01.JPG,AFNE01.JPG,AFNE01.JPG,AFNE01.JPG,,,,,,,,,,,,,,,,,,,,,1,8,18,0,,,AMSA10.jpg,AMNE07.jpg,AMSA01.jpg,AMNE05.jpg,AMNE07.jpg,MN,1,num_6,16,num_6,0.950085477438,,,2018_Jan_18_1404,60.0046959655,FEMA4ImagesEEG,001,102774,
AFNE01.JPG,AFNE01.JPG,AFNE01.JPG,AFNE01.JPG,AFNE01.JPG,AFNE01.JPG,,,,,,,,,,,,,,,,,,,,,1,9,19,5,,,AMSA11.jpg,AMNE06.jpg,AMNE19.jpg,AMSA08.jpg,AMSA08.jpg,MS,2,num_4,32,num_8,1.11659893719,,,2018_Jan_18_1404,60.0046959655,FEMA4ImagesEEG,001,102774,
AFNE01.JPG,AFNE01.JPG,AFNE01.JPG,AFNE01.JPG,AFNE01.JPG,AFNE01.JPG,,,,,,,,,,,,,,,,,,,,,2,0,20,1,,,AMSA17.jpg,AMSA01.jpg,AMNE02.jpg,AMNE11.jpg,AMNE02.jpg,MN,1,num_2,32,num_4,1.06661898317,,,2018_Jan_18_1404,60.0046959655,FEMA4ImagesEEG,001,102774,
AFNE01.JPG,AFNE01.JPG,AFNE01.JPG,AFNE01.JPG,AFNE01.JPG,AFNE01.JPG,,,,,,,,,,,,,,,,,,,,,2,1,21,7,,,AMNE17.jpg,AMNE06.jpg,AMSA20.jpg,AMSA01.jpg,AMNE17.jpg,MN,1,num_8,32,num_2,1.16670814902,,,2018_Jan_18_1404,60.0046959655,FEMA4ImagesEEG,001,102774,
AFNE01.JPG,AFNE01.JPG,AFNE01.JPG,AFNE01.JPG,AFNE01.JPG,AFNE01.JPG,,,,,,,,,,,,,,,,,,,,,2,2,22,0,,,AMNE06.jpg,AMSA13.jpg,AMNE08.jpg,AMSA07.jpg,AMNE08.jpg,MN,1,num_2,16,num_2,1.13344676839,,,2018_Jan_18_1404,60.0046959655,FEMA4ImagesEEG,001,102774,
AFNE01.JPG,AFNE01.JPG,AFNE01.JPG,AFNE01.JPG,AFNE01.JPG,AFNE01.JPG,,,,,,,,,,,,,,,,,,,,,2,3,23,9,,,AMNE20.jpg,AMSA01.jpg,AMNE10.jpg,AMSA15.jpg,AMSA15.jpg,MS,2,num_4,16,num_4,0.883435702883,,,2018_Jan_18_1404,60.0046959655,FEMA4ImagesEEG,001,102774,
AFNE01.JPG,AFNE01.JPG,AFNE01.JPG,AFNE01.JPG,AFNE01.JPG,AFNE01.JPG,,,,,,,,,,,,,,,,,,,,,2,4,24,8,,,AMNE16.jpg,AMSA02.jpg,AMNE07.jpg,AMSA01.jpg,AMSA02.jpg,MS,2,num_6,16,num_6,0.499830649234,,,2018_Jan_18_1404,60.0046959655,FEMA4ImagesEEG,001,102774,
AFNE01.JPG,AFNE01.JPG,AFNE01.JPG,AFNE01.JPG,AFNE01.JPG,AFNE01.JPG,,,,,,,,,,,,,,,,,,,,,2,5,25,2,,,AMNE09.jpg,AMSA15.jpg,AMNE17.jpg,AMSA14.jpg,AMSA15.jpg,MS,2,num_6,32,num_4,1.03343425971,,,2018_Jan_18_1404,60.0046959655,FEMA4ImagesEEG,001,102774,
AFNE01.JPG,AFNE01.JPG,AFNE01.JPG,AFNE01.JPG,AFNE01.JPG,AFNE01.JPG,,,,,,,,,,,,,,,,,,,,,2,6,26,6,,,AMSA06.jpg,AMSA01.jpg,AMNE03.jpg,AMNE14.jpg,AMNE03.jpg,MN,1,num_2,32,num_6,0.866762674879,,,2018_Jan_18_1404,60.0046959655,FEMA4ImagesEEG,001,102774,
AFNE01.JPG,AFNE01.JPG,AFNE01.JPG,AFNE01.JPG,AFNE01.JPG,AFNE01.JPG,,,,,,,,,,,,,,,,,,,,,2,7,27,5,,,AMNE02.jpg,AMSA19.jpg,AMNE13.jpg,AMSA11.jpg,AMSA19.jpg,MS,2,num_6,16,num_6,1.06674727937,,,2018_Jan_18_1404,60.0046959655,FEMA4ImagesEEG,001,102774,
AFNE01.JPG,AFNE01.JPG,AFNE01.JPG,AFNE01.JPG,AFNE01.JPG,AFNE01.JPG,,,,,,,,,,,,,,,,,,,,,2,8,28,4,,,AMSA05.jpg,AMSA10.jpg,AMNE16.jpg,AMNE02.jpg,AMNE02.jpg,MN,1,num_4,32,num_8,1.2167391004,,,2018_Jan_18_1404,60.0046959655,FEMA4ImagesEEG,001,102774,
AFNE01.JPG,AFNE01.JPG,AFNE01.JPG,AFNE01.JPG,AFNE01.JPG,AFNE01.JPG,,,,,,,,,,,,,,,,,,,,,2,9,29,3,,,AMSA18.jpg,AMSA02.jpg,AMNE16.jpg,AMNE11.jpg,AMSA18.jpg,MS,2,num_8,16,num_8,0.916830832139,,,2018_Jan_18_1404,60.0046959655,FEMA4ImagesEEG,001,102774,
AFNE01.JPG,AFNE01.JPG,AFNE01.JPG,AFNE01.JPG,AFNE01.JPG,AFNE01.JPG,,,,,,,,,,,,,,,,,,,,,3,0,30,5,,,AMSA11.jpg,AMSA10.jpg,AMNE06.jpg,AMNE18.jpg,AMNE06.jpg,MN,1,num_2,16,num_2,1.15012813546,,,2018_Jan_18_1404,60.0046959655,FEMA4ImagesEEG,001,102774,
AFNE01.JPG,AFNE01.JPG,AFNE01.JPG,AFNE01.JPG,AFNE01.JPG,AFNE01.JPG,,,,,,,,,,,,,,,,,,,,,3,1,31,7,,,AMSA18.jpg,AMNE20.jpg,AMNE13.jpg,AMSA14.jpg,AMSA18.jpg,MS,2,num_8,32,num_4,0.76678159833,,,2018_Jan_18_1404,60.0046959655,FEMA4ImagesEEG,001,102774,
AFNE01.JPG,AFNE01.JPG,AFNE01.JPG,AFNE01.JPG,AFNE01.JPG,AFNE01.JPG,,,,,,,,,,,,,,,,,,,,,3,2,32,2,,,AMNE20.jpg,AMNE19.jpg,AMSA10.jpg,AMSA19.jpg,AMSA19.jpg,MS,2,num_4,32,num_6,0.816748722456,,,2018_Jan_18_1404,60.0046959655,FEMA4ImagesEEG,001,102774,
AFNE01.JPG,AFNE01.JPG,AFNE01.JPG,AFNE01.JPG,AFNE01.JPG,AFNE01.JPG,,,,,,,,,,,,,,,,,,,,,3,3,33,1,,,AMNE17.jpg,AMNE18.jpg,AMSA12.jpg,AMSA18.jpg,AMSA12.jpg,MS,2,num_2,32,num_8,0.800112579949,,,2018_Jan_18_1404,60.0046959655,FEMA4ImagesEEG,001,102774,
AFNE01.JPG,AFNE01.JPG,AFNE01.JPG,AFNE01.JPG,AFNE01.JPG,AFNE01.JPG,,,,,,,,,,,,,,,,,,,,,3,4,34,0,,,AMNE06.jpg,AMNE05.jpg,AMSA13.jpg,AMSA06.jpg,AMNE05.jpg,MN,1,num_6,32,num_2,1.26673765713,,,2018_Jan_18_1404,60.0046959655,FEMA4ImagesEEG,001,102774,
AFNE01.JPG,AFNE01.JPG,AFNE01.JPG,AFNE01.JPG,AFNE01.JPG,AFNE01.JPG,,,,,,,,,,,,,,,,,,,,,3,5,35,9,,,AMSA05.jpg,AMSA12.jpg,AMNE14.jpg,AMNE18.jpg,AMSA05.jpg,MS,2,num_8,16,num_8,0.816822492983,,,2018_Jan_18_1404,60.0046959655,FEMA4ImagesEEG,001,102774,
AFNE01.JPG,AFNE01.JPG,AFNE01.JPG,AFNE01.JPG,AFNE01.JPG,AFNE01.JPG,,,,,,,,,,,,,,,,,,,,,3,6,36,4,,,AMSA05.jpg,AMNE02.jpg,AMNE05.jpg,AMSA11.jpg,AMSA11.jpg,MS,2,num_4,32,num_2,1.11683788802,,,2018_Jan_18_1404,60.0046959655,FEMA4ImagesEEG,001,102774,
AFNE01.JPG,AFNE01.JPG,AFNE01.JPG,AFNE01.JPG,AFNE01.JPG,AFNE01.JPG,,,,,,,,,,,,,,,,,,,,,3,7,37,3,,,AMNE12.jpg,AMSA16.jpg,AMSA07.jpg,AMNE02.jpg,AMNE02.jpg,MN,1,num_4,16,num_4,0.850169511046,,,2018_Jan_18_1404,60.0046959655,FEMA4ImagesEEG,001,102774,
AFNE01.JPG,AFNE01.JPG,AFNE01.JPG,AFNE01.JPG,AFNE01.JPG,AFNE01.JPG,,,,,,,,,,,,,,,,,,,,,3,8,38,6,,,AMNE17.jpg,AMSA06.jpg,AMSA05.jpg,AMNE09.jpg,AMNE17.jpg,MN,1,num_8,16,num_8,0.950074892957,,,2018_Jan_18_1404,60.0046959655,FEMA4ImagesEEG,001,102774,
AFNE01.JPG,AFNE01.JPG,AFNE01.JPG,AFNE01.JPG,AFNE01.JPG,AFNE01.JPG,,,,,,,,,,,,,,,,,,,,,3,9,39,8,,,AMSA12.jpg,AMNE12.jpg,AMNE06.jpg,AMSA06.jpg,AMNE12.jpg,MN,1,num_6,16,num_6,0.733554216102,,,2018_Jan_18_1404,60.0046959655,FEMA4ImagesEEG,001,102774,
