IPosition2,IPosition3,IPosition1,IPosition6,IPosition4,IPosition5,TrialsM1.thisRepN,TrialsM1.thisTrialN,TrialsM1.thisN,TrialsM1.thisIndex,TrialsF1.thisRepN,TrialsF1.thisTrialN,TrialsF1.thisN,TrialsF1.thisIndex,TrialsM2.thisRepN,TrialsM2.thisTrialN,TrialsM2.thisN,TrialsM2.thisIndex,TrialsF2.thisRepN,TrialsF2.thisTrialN,TrialsF2.thisN,TrialsF2.thisIndex,TrialsM3.thisRepN,TrialsM3.thisTrialN,TrialsM3.thisN,TrialsM3.thisIndex,TrialsF3.thisRepN,TrialsF3.thisTrialN,TrialsF3.thisN,TrialsF3.thisIndex,InstrKey_resp.keys,InstrKey_resp.rt,Image0 _Position,Image1 _Position,Image2 _Position,Image3 _Position,Center_image,condition,code,correct_answer,accuracy,Key_Resp.keys,Key_Resp.rt,BreakKey_resp.keys,BreakKey_resp.rt,date,frameRate,expName,session,participant,
,,,,,,,,,,,,,,,,,,,,,,,,,,,,,,space,14.5161312982,,,,,,,,,,,,,,2018_Jan_18_1848,60.0030792222,MAFE4ImagesEEG,001,102782,
AMSA21.JPG,AMNE22.JPG,AMNE21.JPG,AMSA23.JPG,AMSA22.JPG,AMNE23.JPG,0,0,0,1,,,,,,,,,,,,,,,,,,,,,,,AMNE14.jpg,AMSA10.jpg,AMNE11.jpg,AMSA03.jpg,AMSA03.jpg,MS,2,num_4,16,num_4,4.11653093994,,,2018_Jan_18_1848,60.0030792222,MAFE4ImagesEEG,001,102782,
AFSA21.JPG,AFNE23.JPG,AFNE21.JPG,AFSA25.JPG,AFNE25.JPG,AFSA23.JPG,0,1,1,4,,,,,,,,,,,,,,,,,,,,,,,AMNE18.jpg,AMSA11.jpg,AMSA15.jpg,AMNE04.jpg,AMNE04.jpg,MN,1,num_4,32,num_8,0.933460881002,,,2018_Jan_18_1848,60.0030792222,MAFE4ImagesEEG,001,102782,
AMSA21.JPG,AMNE23.JPG,AMNE21.JPG,AMSA25.JPG,AMNE25.JPG,AMSA23.JPG,0,2,2,5,,,,,,,,,,,,,,,,,,,,,,,AMSA14.jpg,AMNE02.jpg,AMNE03.jpg,AMSA16.jpg,AMNE03.jpg,MN,1,num_2,16,num_2,2.01664961409,,,2018_Jan_18_1848,60.0030792222,MAFE4ImagesEEG,001,102782,
AFSA25.JPG,AFNE24.JPG,AFSA24.JPG,AFNE21.JPG,AFSA21.JPG,AFNE25.JPG,0,3,3,2,,,,,,,,,,,,,,,,,,,,,,,AMSA07.jpg,AMNE17.jpg,AMSA19.jpg,AMNE12.jpg,AMNE12.jpg,MN,1,num_4,32,num_6,1.2334374669,,,2018_Jan_18_1848,60.0030792222,MAFE4ImagesEEG,001,102782,
AFNE22.JPG,AFSA24.JPG,AFSA22.JPG,AFNE25.JPG,AFNE24.JPG,AFSA25.JPG,0,4,4,6,,,,,,,,,,,,,,,,,,,,,,,AMSA18.jpg,AMNE19.jpg,AMNE03.jpg,AMSA02.jpg,AMNE03.jpg,MN,1,num_2,32,num_4,1.05014481395,,,2018_Jan_18_1848,60.0030792222,MAFE4ImagesEEG,001,102782,
AMSA25.JPG,AMNE24.JPG,AMSA24.JPG,AMNE26.JPG,AMSA21.JPG,AMNE25.JPG,0,5,5,3,,,,,,,,,,,,,,,,,,,,,,,AMSA14.jpg,AMNE18.jpg,AMSA10.jpg,AMNE01.jpg,AMNE01.jpg,MN,1,num_4,32,num_6,1.25009734463,,,2018_Jan_18_1848,60.0030792222,MAFE4ImagesEEG,001,102782,
AFNE23.JPG,AFNE24.JPG,AFNE22.JPG,AFSA24.JPG,AFSA22.JPG,AFSA23.JPG,0,6,6,8,,,,,,,,,,,,,,,,,,,,,,,AMSA16.jpg,AMNE12.jpg,AMSA19.jpg,AMNE01.jpg,AMSA16.jpg,MS,2,num_8,16,num_8,0.800161653198,,,2018_Jan_18_1848,60.0030792222,MAFE4ImagesEEG,001,102782,
AFSA21.JPG,AFNE22.JPG,AFNE21.JPG,AFSA23.JPG,AFSA22.JPG,AFNE23.JPG,0,7,7,0,,,,,,,,,,,,,,,,,,,,,,,AMSA08.jpg,AMSA11.jpg,AMNE13.jpg,AMNE20.jpg,AMNE13.jpg,MN,1,num_2,32,num_6,0.916796833277,,,2018_Jan_18_1848,60.0030792222,MAFE4ImagesEEG,001,102782,
AMNE23.JPG,AMNE24.JPG,AMNE22.JPG,AMSA24.JPG,AMSA22.JPG,AMSA23.JPG,0,8,8,9,,,,,,,,,,,,,,,,,,,,,,,AMNE15.jpg,AMSA16.jpg,AMSA12.jpg,AMNE01.jpg,AMSA12.jpg,MS,2,num_2,16,num_2,1.21704508644,,,2018_Jan_18_1848,60.0030792222,MAFE4ImagesEEG,001,102782,
AMNE22.JPG,AMSA24.JPG,AMSA22.JPG,AMNE25.JPG,AMNE24.JPG,AMSA25.JPG,0,9,9,7,,,,,,,,,,,,,,,,,,,,,,,AMNE11.jpg,AMSA13.jpg,AMNE12.jpg,AMSA05.jpg,AMSA05.jpg,MS,2,num_4,32,num_8,0.700113541912,,,2018_Jan_18_1848,60.0030792222,MAFE4ImagesEEG,001,102782,
AFSA21.JPG,AFNE22.JPG,AFNE21.JPG,AFSA23.JPG,AFSA22.JPG,AFNE23.JPG,,,,,0,0,0,0,,,,,,,,,,,,,,,,,,,AFSA04.jpg,AFNE13.jpg,AFNE17.jpg,AFSA12.jpg,AFNE17.jpg,FN,3,num_2,32,num_6,0.916765080299,,,2018_Jan_18_1848,60.0030792222,MAFE4ImagesEEG,001,102782,
AFNE23.JPG,AFNE24.JPG,AFNE22.JPG,AFSA24.JPG,AFSA22.JPG,AFSA23.JPG,,,,,0,1,1,8,,,,,,,,,,,,,,,,,,,AFSA13.jpg,AFNE05.jpg,AFNE19.jpg,AFSA06.jpg,AFSA06.jpg,FS,4,num_4,16,num_4,0.75015090825,,,2018_Jan_18_1848,60.0030792222,MAFE4ImagesEEG,001,102782,
AMSA21.JPG,AMNE22.JPG,AMNE21.JPG,AMSA23.JPG,AMSA22.JPG,AMNE23.JPG,,,,,0,2,2,1,,,,,,,,,,,,,,,,,,,AFSA12.jpg,AFSA05.jpg,AFNE18.jpg,AFNE07.jpg,AFNE18.jpg,FN,3,num_2,32,num_6,1.10009718407,,,2018_Jan_18_1848,60.0030792222,MAFE4ImagesEEG,001,102782,
AMNE23.JPG,AMNE24.JPG,AMNE22.JPG,AMSA24.JPG,AMSA22.JPG,AMSA23.JPG,,,,,0,3,3,9,,,,,,,,,,,,,,,,,,,AFSA20.jpg,AFNE02.jpg,AFNE17.jpg,AFSA19.jpg,AFNE17.jpg,FN,3,num_2,32,num_8,0.483509793412,,,2018_Jan_18_1848,60.0030792222,MAFE4ImagesEEG,001,102782,
AFNE22.JPG,AFSA24.JPG,AFSA22.JPG,AFNE25.JPG,AFNE24.JPG,AFSA25.JPG,,,,,0,4,4,6,,,,,,,,,,,,,,,,,,,AFNE19.jpg,AFNE07.jpg,AFSA14.jpg,AFSA13.jpg,AFNE07.jpg,FN,3,num_6,32,num_2,1.01674808143,,,2018_Jan_18_1848,60.0030792222,MAFE4ImagesEEG,001,102782,
AMNE22.JPG,AMSA24.JPG,AMSA22.JPG,AMNE25.JPG,AMNE24.JPG,AMSA25.JPG,,,,,0,5,5,7,,,,,,,,,,,,,,,,,,,AFSA03.jpg,AFNE14.jpg,AFSA08.jpg,AFNE01.jpg,AFNE01.jpg,FN,3,num_4,16,num_4,0.750084515195,,,2018_Jan_18_1848,60.0030792222,MAFE4ImagesEEG,001,102782,
AFSA21.JPG,AFNE23.JPG,AFNE21.JPG,AFSA25.JPG,AFNE25.JPG,AFSA23.JPG,,,,,0,6,6,4,,,,,,,,,,,,,,,,,,,AFNE16.jpg,AFNE06.jpg,AFSA12.jpg,AFSA05.jpg,AFSA12.jpg,FS,4,num_2,16,num_2,0.783383101691,,,2018_Jan_18_1848,60.0030792222,MAFE4ImagesEEG,001,102782,
AFSA25.JPG,AFNE24.JPG,AFSA24.JPG,AFNE21.JPG,AFSA21.JPG,AFNE25.JPG,,,,,0,7,7,2,,,,,,,,,,,,,,,,,,,AFNE08.jpg,AFNE16.jpg,AFSA20.jpg,AFSA13.jpg,AFSA20.jpg,FS,4,num_2,32,num_6,0.516801965423,,,2018_Jan_18_1848,60.0030792222,MAFE4ImagesEEG,001,102782,
AMSA21.JPG,AMNE23.JPG,AMNE21.JPG,AMSA25.JPG,AMNE25.JPG,AMSA23.JPG,,,,,0,8,8,5,,,,,,,,,,,,,,,,,,,AFNE18.jpg,AFSA11.jpg,AFNE01.jpg,AFSA17.jpg,AFSA11.jpg,FS,4,num_6,16,num_6,0.633442919236,,,2018_Jan_18_1848,60.0030792222,MAFE4ImagesEEG,001,102782,
AMSA25.JPG,AMNE24.JPG,AMSA24.JPG,AMNE26.JPG,AMSA21.JPG,AMNE25.JPG,,,,,0,9,9,3,,,,,,,,,,,,,,,,,,,AFNE10.jpg,AFNE07.jpg,AFSA10.jpg,AFSA09.jpg,AFSA09.jpg,FS,4,num_4,32,num_8,0.600125730038,,,2018_Jan_18_1848,60.0030792222,MAFE4ImagesEEG,001,102782,
AFNE23.JPG,AFNE24.JPG,AFNE22.JPG,AFSA24.JPG,AFSA22.JPG,AFSA23.JPG,,,,,,,,,0,0,0,8,,,,,,,,,,,,,,,AMNE17.jpg,AMSA07.jpg,AMNE14.jpg,AMSA09.jpg,AMSA09.jpg,MS,2,num_4,32,num_6,0.800034960732,,,2018_Jan_18_1848,60.0030792222,MAFE4ImagesEEG,001,102782,
AFNE22.JPG,AFSA24.JPG,AFSA22.JPG,AFNE25.JPG,AFNE24.JPG,AFSA25.JPG,,,,,,,,,0,1,1,6,,,,,,,,,,,,,,,AMNE01.jpg,AMSA11.jpg,AMNE20.jpg,AMSA13.jpg,AMNE20.jpg,MN,1,num_2,16,num_2,0.86671328079,,,2018_Jan_18_1848,60.0030792222,MAFE4ImagesEEG,001,102782,
AFSA25.JPG,AFNE24.JPG,AFSA24.JPG,AFNE21.JPG,AFSA21.JPG,AFNE25.JPG,,,,,,,,,0,2,2,2,,,,,,,,,,,,,,,AMNE02.jpg,AMSA03.jpg,AMSA09.jpg,AMNE16.jpg,AMSA03.jpg,MS,2,num_6,32,num_4,0.433485577814,,,2018_Jan_18_1848,60.0030792222,MAFE4ImagesEEG,001,102782,
AMNE23.JPG,AMNE24.JPG,AMNE22.JPG,AMSA24.JPG,AMSA22.JPG,AMSA23.JPG,,,,,,,,,0,3,3,9,,,,,,,,,,,,,,,AMNE10.jpg,AMSA14.jpg,AMNE19.jpg,AMSA08.jpg,AMNE10.jpg,MN,1,num_8,32,num_6,0.416793626267,,,2018_Jan_18_1848,60.0030792222,MAFE4ImagesEEG,001,102782,
AFSA21.JPG,AFNE23.JPG,AFNE21.JPG,AFSA25.JPG,AFNE25.JPG,AFSA23.JPG,,,,,,,,,0,4,4,4,,,,,,,,,,,,,,,AMSA02.jpg,AMSA14.jpg,AMNE09.jpg,AMNE14.jpg,AMNE09.jpg,MN,1,num_2,32,num_4,0.450118192937,,,2018_Jan_18_1848,60.0030792222,MAFE4ImagesEEG,001,102782,
AMNE22.JPG,AMSA24.JPG,AMSA22.JPG,AMNE25.JPG,AMNE24.JPG,AMSA25.JPG,,,,,,,,,0,5,5,7,,,,,,,,,,,,,,,AMNE11.jpg,AMSA19.jpg,AMSA05.jpg,AMNE18.jpg,AMSA19.jpg,MS,2,num_6,32,num_2,0.516810625792,,,2018_Jan_18_1848,60.0030792222,MAFE4ImagesEEG,001,102782,
AMSA21.JPG,AMNE22.JPG,AMNE21.JPG,AMSA23.JPG,AMSA22.JPG,AMNE23.JPG,,,,,,,,,0,6,6,1,,,,,,,,,,,,,,,AMNE19.jpg,AMSA18.jpg,AMNE14.jpg,AMSA12.jpg,AMNE19.jpg,MN,1,num_8,16,num_8,0.850097665563,,,2018_Jan_18_1848,60.0030792222,MAFE4ImagesEEG,001,102782,
AFSA21.JPG,AFNE22.JPG,AFNE21.JPG,AFSA23.JPG,AFSA22.JPG,AFNE23.JPG,,,,,,,,,0,7,7,0,,,,,,,,,,,,,,,AMNE07.jpg,AMNE20.jpg,AMSA10.jpg,AMSA04.jpg,AMSA04.jpg,MS,2,num_4,32,num_6,0.633466653991,,,2018_Jan_18_1848,60.0030792222,MAFE4ImagesEEG,001,102782,
AMSA21.JPG,AMNE23.JPG,AMNE21.JPG,AMSA25.JPG,AMNE25.JPG,AMSA23.JPG,,,,,,,,,0,8,8,5,,,,,,,,,,,,,,,AMSA14.jpg,AMSA15.jpg,AMNE09.jpg,AMNE19.jpg,AMSA15.jpg,MS,2,num_6,16,num_6,0.600146578625,,,2018_Jan_18_1848,60.0030792222,MAFE4ImagesEEG,001,102782,
AMSA25.JPG,AMNE24.JPG,AMSA24.JPG,AMNE26.JPG,AMSA21.JPG,AMNE25.JPG,,,,,,,,,0,9,9,3,,,,,,,,,,,,,,,AMSA02.jpg,AMNE16.jpg,AMSA16.jpg,AMNE03.jpg,AMNE16.jpg,MN,1,num_6,32,num_2,1.00010584388,,,2018_Jan_18_1848,60.0030792222,MAFE4ImagesEEG,001,102782,
AFNE22.JPG,AFSA24.JPG,AFSA22.JPG,AFNE25.JPG,AFNE24.JPG,AFSA25.JPG,,,,,,,,,,,,,0,0,0,6,,,,,,,,,,,AFNE06.jpg,AFSA18.jpg,AFNE14.jpg,AFSA14.jpg,AFNE06.jpg,FN,3,num_8,32,num_6,1.25007745856,,,2018_Jan_18_1848,60.0030792222,MAFE4ImagesEEG,001,102782,
AMSA21.JPG,AMNE23.JPG,AMNE21.JPG,AMSA25.JPG,AMNE25.JPG,AMSA23.JPG,,,,,,,,,,,,,0,1,1,5,,,,,,,,,,,AFSA17.jpg,AFSA15.jpg,AFNE19.jpg,AFNE14.jpg,AFNE19.jpg,FN,3,num_2,32,num_8,1.21676026937,,,2018_Jan_18_1848,60.0030792222,MAFE4ImagesEEG,001,102782,
AFSA21.JPG,AFNE22.JPG,AFNE21.JPG,AFSA23.JPG,AFSA22.JPG,AFNE23.JPG,,,,,,,,,,,,,0,2,2,0,,,,,,,,,,,AFSA15.jpg,AFNE06.jpg,AFSA03.jpg,AFNE05.jpg,AFSA03.jpg,FS,4,num_2,16,num_2,0.850087401923,,,2018_Jan_18_1848,60.0030792222,MAFE4ImagesEEG,001,102782,
AFNE23.JPG,AFNE24.JPG,AFNE22.JPG,AFSA24.JPG,AFSA22.JPG,AFSA23.JPG,,,,,,,,,,,,,0,3,3,8,,,,,,,,,,,AFNE12.jpg,AFNE14.jpg,AFSA14.jpg,AFSA04.jpg,AFNE14.jpg,FN,3,num_6,32,num_2,0.666772297118,,,2018_Jan_18_1848,60.0030792222,MAFE4ImagesEEG,001,102782,
AMSA25.JPG,AMNE24.JPG,AMSA24.JPG,AMNE26.JPG,AMSA21.JPG,AMNE25.JPG,,,,,,,,,,,,,0,4,4,3,,,,,,,,,,,AFSA09.jpg,AFNE11.jpg,AFSA08.jpg,AFNE16.jpg,AFSA08.jpg,FS,4,num_2,32,num_8,0.666791862343,,,2018_Jan_18_1848,60.0030792222,MAFE4ImagesEEG,001,102782,
AMSA21.JPG,AMNE22.JPG,AMNE21.JPG,AMSA23.JPG,AMSA22.JPG,AMNE23.JPG,,,,,,,,,,,,,0,5,5,1,,,,,,,,,,,AFNE15.jpg,AFSA05.jpg,AFNE06.jpg,AFSA07.jpg,AFSA07.jpg,FS,4,num_4,32,num_8,0.766831634101,,,2018_Jan_18_1848,60.0030792222,MAFE4ImagesEEG,001,102782,
AFSA21.JPG,AFNE23.JPG,AFNE21.JPG,AFSA25.JPG,AFNE25.JPG,AFSA23.JPG,,,,,,,,,,,,,0,6,6,4,,,,,,,,,,,AFNE12.jpg,AFSA04.jpg,AFSA09.jpg,AFNE20.jpg,AFSA09.jpg,FS,4,num_2,32,num_8,0.350149946287,,,2018_Jan_18_1848,60.0030792222,MAFE4ImagesEEG,001,102782,
AFSA25.JPG,AFNE24.JPG,AFSA24.JPG,AFNE21.JPG,AFSA21.JPG,AFNE25.JPG,,,,,,,,,,,,,0,7,7,2,,,,,,,,,,,AFNE01.jpg,AFSA04.jpg,AFSA07.jpg,AFNE20.jpg,AFNE01.jpg,FN,3,num_8,32,num_4,0.517099611927,,,2018_Jan_18_1848,60.0030792222,MAFE4ImagesEEG,001,102782,
AMNE22.JPG,AMSA24.JPG,AMSA22.JPG,AMNE25.JPG,AMNE24.JPG,AMSA25.JPG,,,,,,,,,,,,,0,8,8,7,,,,,,,,,,,AFSA11.jpg,AFSA14.jpg,AFNE03.jpg,AFNE12.jpg,AFSA11.jpg,FS,4,num_8,16,num_8,0.333511237521,,,2018_Jan_18_1848,60.0030792222,MAFE4ImagesEEG,001,102782,
AMNE23.JPG,AMNE24.JPG,AMNE22.JPG,AMSA24.JPG,AMSA22.JPG,AMSA23.JPG,,,,,,,,,,,,,0,9,9,9,,,,,,,,,,,AFNE15.jpg,AFNE19.jpg,AFSA14.jpg,AFSA15.jpg,AFNE15.jpg,FN,3,num_8,32,num_2,0.483481247909,,,2018_Jan_18_1848,60.0030792222,MAFE4ImagesEEG,001,102782,
AMNE23.JPG,AMNE24.JPG,AMNE22.JPG,AMSA24.JPG,AMSA22.JPG,AMSA23.JPG,,,,,,,,,,,,,,,,,0,0,0,9,,,,,,,AMSA07.jpg,AMSA19.jpg,AMNE16.jpg,AMNE04.jpg,AMSA07.jpg,MS,2,num_8,32,num_2,0.733483974356,,,2018_Jan_18_1848,60.0030792222,MAFE4ImagesEEG,001,102782,
AFNE22.JPG,AFSA24.JPG,AFSA22.JPG,AFNE25.JPG,AFNE24.JPG,AFSA25.JPG,,,,,,,,,,,,,,,,,0,1,1,6,,,,,,,AMSA10.jpg,AMNE05.jpg,AMSA18.jpg,AMNE09.jpg,AMSA18.jpg,MS,2,num_2,32,num_4,0.416779193096,,,2018_Jan_18_1848,60.0030792222,MAFE4ImagesEEG,001,102782,
AFSA21.JPG,AFNE22.JPG,AFNE21.JPG,AFSA23.JPG,AFSA22.JPG,AFNE23.JPG,,,,,,,,,,,,,,,,,0,2,2,0,,,,,,,AMSA05.jpg,AMNE17.jpg,AMNE19.jpg,AMSA20.jpg,AMSA20.jpg,MS,2,num_4,32,num_2,0.550135191996,,,2018_Jan_18_1848,60.0030792222,MAFE4ImagesEEG,001,102782,
AFSA21.JPG,AFNE23.JPG,AFNE21.JPG,AFSA25.JPG,AFNE25.JPG,AFSA23.JPG,,,,,,,,,,,,,,,,,0,3,3,4,,,,,,,AMNE13.jpg,AMSA18.jpg,AMSA14.jpg,AMNE02.jpg,AMSA14.jpg,MS,2,num_2,32,num_8,0.400155237876,,,2018_Jan_18_1848,60.0030792222,MAFE4ImagesEEG,001,102782,
AFSA25.JPG,AFNE24.JPG,AFSA24.JPG,AFNE21.JPG,AFSA21.JPG,AFNE25.JPG,,,,,,,,,,,,,,,,,0,4,4,2,,,,,,,AMNE11.jpg,AMNE07.jpg,AMSA07.jpg,AMSA19.jpg,AMNE07.jpg,MN,1,num_6,32,num_8,0.75036965264,,,2018_Jan_18_1848,60.0030792222,MAFE4ImagesEEG,001,102782,
AMSA21.JPG,AMNE22.JPG,AMNE21.JPG,AMSA23.JPG,AMSA22.JPG,AMNE23.JPG,,,,,,,,,,,,,,,,,0,5,5,1,,,,,,,AMSA07.jpg,AMNE04.jpg,AMNE02.jpg,AMSA05.jpg,AMNE02.jpg,MN,1,num_2,32,num_8,0.600149785168,,,2018_Jan_18_1848,60.0030792222,MAFE4ImagesEEG,001,102782,
AFNE23.JPG,AFNE24.JPG,AFNE22.JPG,AFSA24.JPG,AFSA22.JPG,AFSA23.JPG,,,,,,,,,,,,,,,,,0,6,6,8,,,,,,,AMSA12.jpg,AMNE08.jpg,AMNE14.jpg,AMSA15.jpg,AMNE08.jpg,MN,1,num_6,16,num_6,0.900127013214,,,2018_Jan_18_1848,60.0030792222,MAFE4ImagesEEG,001,102782,
AMNE22.JPG,AMSA24.JPG,AMSA22.JPG,AMNE25.JPG,AMNE24.JPG,AMSA25.JPG,,,,,,,,,,,,,,,,,0,7,7,7,,,,,,,AMNE14.jpg,AMSA04.jpg,AMSA20.jpg,AMNE01.jpg,AMNE14.jpg,MN,1,num_8,32,num_2,1.01669066912,,,2018_Jan_18_1848,60.0030792222,MAFE4ImagesEEG,001,102782,
AMSA21.JPG,AMNE23.JPG,AMNE21.JPG,AMSA25.JPG,AMNE25.JPG,AMSA23.JPG,,,,,,,,,,,,,,,,,0,8,8,5,,,,,,,AMSA07.jpg,AMSA14.jpg,AMNE18.jpg,AMNE12.jpg,AMNE12.jpg,MN,1,num_4,32,num_2,1.70005741203,,,2018_Jan_18_1848,60.0030792222,MAFE4ImagesEEG,001,102782,
AMSA25.JPG,AMNE24.JPG,AMSA24.JPG,AMNE26.JPG,AMSA21.JPG,AMNE25.JPG,,,,,,,,,,,,,,,,,0,9,9,3,,,,,,,AMNE05.jpg,AMSA09.jpg,AMNE01.jpg,AMSA18.jpg,AMNE01.jpg,MN,1,num_2,32,num_6,0.900085637346,,,2018_Jan_18_1848,60.0030792222,MAFE4ImagesEEG,001,102782,
AFSA21.JPG,AFNE23.JPG,AFNE21.JPG,AFSA25.JPG,AFNE25.JPG,AFSA23.JPG,,,,,,,,,,,,,,,,,,,,,0,0,0,4,,,AFNE01.jpg,AFNE11.jpg,AFSA20.jpg,AFSA08.jpg,AFSA20.jpg,FS,4,num_2,32,num_4,0.750143531244,,,2018_Jan_18_1848,60.0030792222,MAFE4ImagesEEG,001,102782,
AFSA25.JPG,AFNE24.JPG,AFSA24.JPG,AFNE21.JPG,AFSA21.JPG,AFNE25.JPG,,,,,,,,,,,,,,,,,,,,,0,1,1,2,,,AFNE01.jpg,AFSA11.jpg,AFNE15.jpg,AFSA05.jpg,AFNE01.jpg,FN,3,num_8,32,num_6,0.666801163927,,,2018_Jan_18_1848,60.0030792222,MAFE4ImagesEEG,001,102782,
AMSA21.JPG,AMNE23.JPG,AMNE21.JPG,AMSA25.JPG,AMNE25.JPG,AMSA23.JPG,,,,,,,,,,,,,,,,,,,,,0,2,2,5,,,AFSA03.jpg,AFSA20.jpg,AFNE02.jpg,AFNE16.jpg,AFSA03.jpg,FS,4,num_8,16,num_8,0.266782560851,,,2018_Jan_18_1848,60.0030792222,MAFE4ImagesEEG,001,102782,
AFSA21.JPG,AFNE22.JPG,AFNE21.JPG,AFSA23.JPG,AFSA22.JPG,AFNE23.JPG,,,,,,,,,,,,,,,,,,,,,0,3,3,0,,,AFNE08.jpg,AFSA15.jpg,AFSA03.jpg,AFNE18.jpg,AFNE08.jpg,FN,3,num_8,32,num_6,1.01679747505,,,2018_Jan_18_1848,60.0030792222,MAFE4ImagesEEG,001,102782,
AMSA25.JPG,AMNE24.JPG,AMSA24.JPG,AMNE26.JPG,AMSA21.JPG,AMNE25.JPG,,,,,,,,,,,,,,,,,,,,,0,4,4,3,,,AFSA14.jpg,AFNE10.jpg,AFNE07.jpg,AFSA17.jpg,AFSA17.jpg,FS,4,num_4,32,num_6,0.733464729507,,,2018_Jan_18_1848,60.0030792222,MAFE4ImagesEEG,001,102782,
AFNE22.JPG,AFSA24.JPG,AFSA22.JPG,AFNE25.JPG,AFNE24.JPG,AFSA25.JPG,,,,,,,,,,,,,,,,,,,,,0,5,5,6,,,AFNE07.jpg,AFNE15.jpg,AFSA15.jpg,AFSA03.jpg,AFSA15.jpg,FS,4,num_2,32,num_6,0.716807418037,,,2018_Jan_18_1848,60.0030792222,MAFE4ImagesEEG,001,102782,
AMSA21.JPG,AMNE22.JPG,AMNE21.JPG,AMSA23.JPG,AMSA22.JPG,AMNE23.JPG,,,,,,,,,,,,,,,,,,,,,0,6,6,1,,,AFSA12.jpg,AFNE07.jpg,AFNE03.jpg,AFSA02.jpg,AFNE07.jpg,FN,3,num_6,16,num_6,0.73346986156,,,2018_Jan_18_1848,60.0030792222,MAFE4ImagesEEG,001,102782,
AFNE23.JPG,AFNE24.JPG,AFNE22.JPG,AFSA24.JPG,AFSA22.JPG,AFSA23.JPG,,,,,,,,,,,,,,,,,,,,,0,7,7,8,,,AFNE17.jpg,AFSA17.jpg,AFNE05.jpg,AFSA18.jpg,AFNE17.jpg,FN,3,num_8,16,num_8,0.833464408759,,,2018_Jan_18_1848,60.0030792222,MAFE4ImagesEEG,001,102782,
AMNE23.JPG,AMNE24.JPG,AMNE22.JPG,AMSA24.JPG,AMSA22.JPG,AMSA23.JPG,,,,,,,,,,,,,,,,,,,,,0,8,8,9,,,AFNE12.jpg,AFSA20.jpg,AFSA01.jpg,AFNE06.jpg,AFNE06.jpg,FN,3,num_4,16,num_4,0.766772938427,,,2018_Jan_18_1848,60.0030792222,MAFE4ImagesEEG,001,102782,
AMNE22.JPG,AMSA24.JPG,AMSA22.JPG,AMNE25.JPG,AMNE24.JPG,AMSA25.JPG,,,,,,,,,,,,,,,,,,,,,0,9,9,7,,,AFSA05.jpg,AFSA07.jpg,AFNE10.jpg,AFNE17.jpg,AFNE17.jpg,FN,3,num_4,32,num_8,0.400101033039,,,2018_Jan_18_1848,60.0030792222,MAFE4ImagesEEG,001,102782,
,,,,,,,,,,,,,,,,,,,,,,,,,,,,,,,,,,,,,,,,,,,space,46.1799345044,2018_Jan_18_1848,60.0030792222,MAFE4ImagesEEG,001,102782,
AFNE01.JPG,AFNE01.JPG,AFNE01.JPG,AFNE01.JPG,AFNE01.JPG,AFNE01.JPG,0,0,0,4,,,,,,,,,,,,,,,,,,,,,,,AMNE20.jpg,AMNE13.jpg,AMSA09.jpg,AMSA20.jpg,AMSA20.jpg,MS,2,num_4,32,num_8,0.88342447672,,,2018_Jan_18_1848,60.0030792222,MAFE4ImagesEEG,001,102782,
AFNE01.JPG,AFNE01.JPG,AFNE01.JPG,AFNE01.JPG,AFNE01.JPG,AFNE01.JPG,0,1,1,9,,,,,,,,,,,,,,,,,,,,,,,AMSA03.jpg,AMSA19.jpg,AMNE10.jpg,AMNE15.jpg,AMNE10.jpg,MN,1,num_2,32,num_6,0.250249695964,,,2018_Jan_18_1848,60.0030792222,MAFE4ImagesEEG,001,102782,
AFNE01.JPG,AFNE01.JPG,AFNE01.JPG,AFNE01.JPG,AFNE01.JPG,AFNE01.JPG,0,2,2,6,,,,,,,,,,,,,,,,,,,,,,,AMNE17.jpg,AMSA08.jpg,AMNE08.jpg,AMSA07.jpg,AMNE17.jpg,MN,1,num_8,16,num_8,0.60017352039,,,2018_Jan_18_1848,60.0030792222,MAFE4ImagesEEG,001,102782,
AFNE01.JPG,AFNE01.JPG,AFNE01.JPG,AFNE01.JPG,AFNE01.JPG,AFNE01.JPG,0,3,3,2,,,,,,,,,,,,,,,,,,,,,,,AMSA15.jpg,AMNE05.jpg,AMSA02.jpg,AMNE08.jpg,AMNE05.jpg,MN,1,num_6,32,num_2,0.649986689445,,,2018_Jan_18_1848,60.0030792222,MAFE4ImagesEEG,001,102782,
AFNE01.JPG,AFNE01.JPG,AFNE01.JPG,AFNE01.JPG,AFNE01.JPG,AFNE01.JPG,0,4,4,3,,,,,,,,,,,,,,,,,,,,,,,AMSA08.jpg,AMNE17.jpg,AMNE20.jpg,AMSA01.jpg,AMNE20.jpg,MN,1,num_2,32,num_6,0.450177850202,,,2018_Jan_18_1848,60.0030792222,MAFE4ImagesEEG,001,102782,
AFNE01.JPG,AFNE01.JPG,AFNE01.JPG,AFNE01.JPG,AFNE01.JPG,AFNE01.JPG,0,5,5,8,,,,,,,,,,,,,,,,,,,,,,,AMNE08.jpg,AMSA15.jpg,AMNE11.jpg,AMSA18.jpg,AMSA18.jpg,MS,2,num_4,16,num_4,0.983154414222,,,2018_Jan_18_1848,60.0030792222,MAFE4ImagesEEG,001,102782,
AFNE01.JPG,AFNE01.JPG,AFNE01.JPG,AFNE01.JPG,AFNE01.JPG,AFNE01.JPG,0,6,6,0,,,,,,,,,,,,,,,,,,,,,,,AMNE13.jpg,AMSA16.jpg,AMNE20.jpg,AMSA10.jpg,AMNE13.jpg,MN,1,num_8,32,num_2,0.700164539739,,,2018_Jan_18_1848,60.0030792222,MAFE4ImagesEEG,001,102782,
AFNE01.JPG,AFNE01.JPG,AFNE01.JPG,AFNE01.JPG,AFNE01.JPG,AFNE01.JPG,0,7,7,5,,,,,,,,,,,,,,,,,,,,,,,AMSA14.jpg,AMSA18.jpg,AMNE15.jpg,AMNE03.jpg,AMSA14.jpg,MS,2,num_8,16,num_8,0.316801644862,,,2018_Jan_18_1848,60.0030792222,MAFE4ImagesEEG,001,102782,
AFNE01.JPG,AFNE01.JPG,AFNE01.JPG,AFNE01.JPG,AFNE01.JPG,AFNE01.JPG,0,8,8,1,,,,,,,,,,,,,,,,,,,,,,,AMSA18.jpg,AMSA01.jpg,AMNE11.jpg,AMNE19.jpg,AMNE11.jpg,MN,1,num_2,16,num_2,2.46683420008,,,2018_Jan_18_1848,60.0030792222,MAFE4ImagesEEG,001,102782,
AFNE01.JPG,AFNE01.JPG,AFNE01.JPG,AFNE01.JPG,AFNE01.JPG,AFNE01.JPG,0,9,9,7,,,,,,,,,,,,,,,,,,,,,,,AMNE13.jpg,AMSA18.jpg,AMSA03.jpg,AMNE02.jpg,AMNE02.jpg,MN,1,num_4,32,num_2,0.266803088132,,,2018_Jan_18_1848,60.0030792222,MAFE4ImagesEEG,001,102782,
AFNE01.JPG,AFNE01.JPG,AFNE01.JPG,AFNE01.JPG,AFNE01.JPG,AFNE01.JPG,1,0,10,5,,,,,,,,,,,,,,,,,,,,,,,AMNE10.jpg,AMNE09.jpg,AMSA08.jpg,AMSA18.jpg,AMNE09.jpg,MN,1,num_6,16,num_6,1.03347627679,,,2018_Jan_18_1848,60.0030792222,MAFE4ImagesEEG,001,102782,
AFNE01.JPG,AFNE01.JPG,AFNE01.JPG,AFNE01.JPG,AFNE01.JPG,AFNE01.JPG,1,1,11,7,,,,,,,,,,,,,,,,,,,,,,,AMNE01.jpg,AMSA13.jpg,AMNE17.jpg,AMSA16.jpg,AMNE17.jpg,MN,1,num_2,32,num_8,0.866724506952,,,2018_Jan_18_1848,60.0030792222,MAFE4ImagesEEG,001,102782,
AFNE01.JPG,AFNE01.JPG,AFNE01.JPG,AFNE01.JPG,AFNE01.JPG,AFNE01.JPG,1,2,12,8,,,,,,,,,,,,,,,,,,,,,,,AMSA19.jpg,AMNE09.jpg,AMSA03.jpg,AMNE08.jpg,AMNE08.jpg,MN,1,num_4,32,num_2,0.433480446227,,,2018_Jan_18_1848,60.0030792222,MAFE4ImagesEEG,001,102782,
AFNE01.JPG,AFNE01.JPG,AFNE01.JPG,AFNE01.JPG,AFNE01.JPG,AFNE01.JPG,1,3,13,3,,,,,,,,,,,,,,,,,,,,,,,AMNE16.jpg,AMSA02.jpg,AMNE05.jpg,AMSA19.jpg,AMNE05.jpg,MN,1,num_2,32,num_4,0.766780957114,,,2018_Jan_18_1848,60.0030792222,MAFE4ImagesEEG,001,102782,
AFNE01.JPG,AFNE01.JPG,AFNE01.JPG,AFNE01.JPG,AFNE01.JPG,AFNE01.JPG,1,4,14,6,,,,,,,,,,,,,,,,,,,,,,,AMNE17.jpg,AMSA18.jpg,AMNE16.jpg,AMSA01.jpg,AMSA01.jpg,MS,2,num_4,32,num_8,0.650097023696,,,2018_Jan_18_1848,60.0030792222,MAFE4ImagesEEG,001,102782,
AFNE01.JPG,AFNE01.JPG,AFNE01.JPG,AFNE01.JPG,AFNE01.JPG,AFNE01.JPG,1,5,15,2,,,,,,,,,,,,,,,,,,,,,,,AMSA14.jpg,AMNE14.jpg,AMSA11.jpg,AMNE08.jpg,AMNE14.jpg,MN,1,num_6,32,num_8,0.383429929614,,,2018_Jan_18_1848,60.0030792222,MAFE4ImagesEEG,001,102782,
AFNE01.JPG,AFNE01.JPG,AFNE01.JPG,AFNE01.JPG,AFNE01.JPG,AFNE01.JPG,1,6,16,9,,,,,,,,,,,,,,,,,,,,,,,AMNE14.jpg,AMNE09.jpg,AMSA15.jpg,AMSA14.jpg,AMNE14.jpg,MN,1,num_8,16,num_8,0.583456872031,,,2018_Jan_18_1848,60.0030792222,MAFE4ImagesEEG,001,102782,
AFNE01.JPG,AFNE01.JPG,AFNE01.JPG,AFNE01.JPG,AFNE01.JPG,AFNE01.JPG,1,7,17,1,,,,,,,,,,,,,,,,,,,,,,,AMNE06.jpg,AMSA07.jpg,AMSA06.jpg,AMNE20.jpg,AMNE06.jpg,MN,1,num_8,32,num_6,0.566625077277,,,2018_Jan_18_1848,60.0030792222,MAFE4ImagesEEG,001,102782,
AFNE01.JPG,AFNE01.JPG,AFNE01.JPG,AFNE01.JPG,AFNE01.JPG,AFNE01.JPG,1,8,18,4,,,,,,,,,,,,,,,,,,,,,,,AMSA03.jpg,AMNE12.jpg,AMSA18.jpg,AMNE11.jpg,AMSA18.jpg,MS,2,num_2,32,num_4,1.23337652627,,,2018_Jan_18_1848,60.0030792222,MAFE4ImagesEEG,001,102782,
AFNE01.JPG,AFNE01.JPG,AFNE01.JPG,AFNE01.JPG,AFNE01.JPG,AFNE01.JPG,1,9,19,0,,,,,,,,,,,,,,,,,,,,,,,AMSA06.jpg,AMNE03.jpg,AMSA08.jpg,AMNE02.jpg,AMNE02.jpg,MN,1,num_4,32,num_8,1.45008996734,,,2018_Jan_18_1848,60.0030792222,MAFE4ImagesEEG,001,102782,
AFNE01.JPG,AFNE01.JPG,AFNE01.JPG,AFNE01.JPG,AFNE01.JPG,AFNE01.JPG,2,0,20,2,,,,,,,,,,,,,,,,,,,,,,,AMSA07.jpg,AMSA16.jpg,AMNE03.jpg,AMNE05.jpg,AMNE03.jpg,MN,1,num_2,16,num_2,1.00020399038,,,2018_Jan_18_1848,60.0030792222,MAFE4ImagesEEG,001,102782,
AFNE01.JPG,AFNE01.JPG,AFNE01.JPG,AFNE01.JPG,AFNE01.JPG,AFNE01.JPG,2,1,21,9,,,,,,,,,,,,,,,,,,,,,,,AMSA19.jpg,AMSA10.jpg,AMNE03.jpg,AMNE05.jpg,AMNE03.jpg,MN,1,num_2,16,num_2,1.16676716506,,,2018_Jan_18_1848,60.0030792222,MAFE4ImagesEEG,001,102782,
AFNE01.JPG,AFNE01.JPG,AFNE01.JPG,AFNE01.JPG,AFNE01.JPG,AFNE01.JPG,2,2,22,3,,,,,,,,,,,,,,,,,,,,,,,AMNE06.jpg,AMNE15.jpg,AMSA17.jpg,AMSA04.jpg,AMNE06.jpg,MN,1,num_8,32,num_6,0.816756099928,,,2018_Jan_18_1848,60.0030792222,MAFE4ImagesEEG,001,102782,
AFNE01.JPG,AFNE01.JPG,AFNE01.JPG,AFNE01.JPG,AFNE01.JPG,AFNE01.JPG,2,3,23,5,,,,,,,,,,,,,,,,,,,,,,,AMNE20.jpg,AMSA20.jpg,AMSA17.jpg,AMNE15.jpg,AMSA20.jpg,MS,2,num_6,32,num_8,0.333486540243,,,2018_Jan_18_1848,60.0030792222,MAFE4ImagesEEG,001,102782,
AFNE01.JPG,AFNE01.JPG,AFNE01.JPG,AFNE01.JPG,AFNE01.JPG,AFNE01.JPG,2,4,24,4,,,,,,,,,,,,,,,,,,,,,,,AMSA09.jpg,AMSA11.jpg,AMNE14.jpg,AMNE11.jpg,AMSA11.jpg,MS,2,num_6,32,num_4,0.800111938268,,,2018_Jan_18_1848,60.0030792222,MAFE4ImagesEEG,001,102782,
AFNE01.JPG,AFNE01.JPG,AFNE01.JPG,AFNE01.JPG,AFNE01.JPG,AFNE01.JPG,2,5,25,6,,,,,,,,,,,,,,,,,,,,,,,AMNE13.jpg,AMSA10.jpg,AMNE01.jpg,AMSA13.jpg,AMNE01.jpg,MN,1,num_2,32,num_6,0.466774541885,,,2018_Jan_18_1848,60.0030792222,MAFE4ImagesEEG,001,102782,
AFNE01.JPG,AFNE01.JPG,AFNE01.JPG,AFNE01.JPG,AFNE01.JPG,AFNE01.JPG,2,6,26,0,,,,,,,,,,,,,,,,,,,,,,,AMNE02.jpg,AMSA05.jpg,AMNE11.jpg,AMSA17.jpg,AMNE11.jpg,MN,1,num_2,32,num_6,0.766773259267,,,2018_Jan_18_1848,60.0030792222,MAFE4ImagesEEG,001,102782,
AFNE01.JPG,AFNE01.JPG,AFNE01.JPG,AFNE01.JPG,AFNE01.JPG,AFNE01.JPG,2,7,27,1,,,,,,,,,,,,,,,,,,,,,,,AMSA01.jpg,AMNE16.jpg,AMSA05.jpg,AMNE13.jpg,AMSA05.jpg,MS,2,num_2,16,num_2,0.933449976146,,,2018_Jan_18_1848,60.0030792222,MAFE4ImagesEEG,001,102782,
AFNE01.JPG,AFNE01.JPG,AFNE01.JPG,AFNE01.JPG,AFNE01.JPG,AFNE01.JPG,2,8,28,8,,,,,,,,,,,,,,,,,,,,,,,AMNE19.jpg,AMNE16.jpg,AMSA16.jpg,AMSA13.jpg,AMNE19.jpg,MN,1,num_8,32,num_6,0.866533666383,,,2018_Jan_18_1848,60.0030792222,MAFE4ImagesEEG,001,102782,
AFNE01.JPG,AFNE01.JPG,AFNE01.JPG,AFNE01.JPG,AFNE01.JPG,AFNE01.JPG,2,9,29,7,,,,,,,,,,,,,,,,,,,,,,,AMSA14.jpg,AMNE08.jpg,AMNE09.jpg,AMSA12.jpg,AMNE09.jpg,MN,1,num_2,16,num_2,0.700117070228,,,2018_Jan_18_1848,60.0030792222,MAFE4ImagesEEG,001,102782,
AFNE01.JPG,AFNE01.JPG,AFNE01.JPG,AFNE01.JPG,AFNE01.JPG,AFNE01.JPG,3,0,30,3,,,,,,,,,,,,,,,,,,,,,,,AMSA02.jpg,AMNE05.jpg,AMNE15.jpg,AMSA13.jpg,AMNE15.jpg,MN,1,num_2,32,num_6,0.500195972156,,,2018_Jan_18_1848,60.0030792222,MAFE4ImagesEEG,001,102782,
AFNE01.JPG,AFNE01.JPG,AFNE01.JPG,AFNE01.JPG,AFNE01.JPG,AFNE01.JPG,3,1,31,7,,,,,,,,,,,,,,,,,,,,,,,AMSA18.jpg,AMSA06.jpg,AMNE09.jpg,AMNE19.jpg,AMSA06.jpg,MS,2,num_6,32,num_4,1.1334656924,,,2018_Jan_18_1848,60.0030792222,MAFE4ImagesEEG,001,102782,
AFNE01.JPG,AFNE01.JPG,AFNE01.JPG,AFNE01.JPG,AFNE01.JPG,AFNE01.JPG,3,2,32,2,,,,,,,,,,,,,,,,,,,,,,,AMSA01.jpg,AMNE04.jpg,AMNE06.jpg,AMSA09.jpg,AMNE04.jpg,MN,1,num_6,32,num_2,1.21673076134,,,2018_Jan_18_1848,60.0030792222,MAFE4ImagesEEG,001,102782,
AFNE01.JPG,AFNE01.JPG,AFNE01.JPG,AFNE01.JPG,AFNE01.JPG,AFNE01.JPG,3,3,33,0,,,,,,,,,,,,,,,,,,,,,,,AMSA05.jpg,AMNE17.jpg,AMSA04.jpg,AMNE11.jpg,AMNE11.jpg,MN,1,num_4,32,num_2,0.666757863946,,,2018_Jan_18_1848,60.0030792222,MAFE4ImagesEEG,001,102782,
AFNE01.JPG,AFNE01.JPG,AFNE01.JPG,AFNE01.JPG,AFNE01.JPG,AFNE01.JPG,3,4,34,1,,,,,,,,,,,,,,,,,,,,,,,AMSA18.jpg,AMNE06.jpg,AMNE10.jpg,AMSA08.jpg,AMSA08.jpg,MS,2,num_4,32,num_2,1.19999166066,,,2018_Jan_18_1848,60.0030792222,MAFE4ImagesEEG,001,102782,
AFNE01.JPG,AFNE01.JPG,AFNE01.JPG,AFNE01.JPG,AFNE01.JPG,AFNE01.JPG,3,5,35,8,,,,,,,,,,,,,,,,,,,,,,,AMSA08.jpg,AMSA18.jpg,AMNE03.jpg,AMNE08.jpg,AMSA18.jpg,MS,2,num_6,16,num_6,0.583487983327,,,2018_Jan_18_1848,60.0030792222,MAFE4ImagesEEG,001,102782,
AFNE01.JPG,AFNE01.JPG,AFNE01.JPG,AFNE01.JPG,AFNE01.JPG,AFNE01.JPG,3,6,36,4,,,,,,,,,,,,,,,,,,,,,,,AMNE18.jpg,AMSA07.jpg,AMSA10.jpg,AMNE16.jpg,AMNE18.jpg,MN,1,num_8,16,num_8,1.08346392773,,,2018_Jan_18_1848,60.0030792222,MAFE4ImagesEEG,001,102782,
AFNE01.JPG,AFNE01.JPG,AFNE01.JPG,AFNE01.JPG,AFNE01.JPG,AFNE01.JPG,3,7,37,6,,,,,,,,,,,,,,,,,,,,,,,AMNE12.jpg,AMSA06.jpg,AMNE04.jpg,AMSA01.jpg,AMNE12.jpg,MN,1,num_8,32,num_2,1.30010808958,,,2018_Jan_18_1848,60.0030792222,MAFE4ImagesEEG,001,102782,
AFNE01.JPG,AFNE01.JPG,AFNE01.JPG,AFNE01.JPG,AFNE01.JPG,AFNE01.JPG,3,8,38,5,,,,,,,,,,,,,,,,,,,,,,,AMSA07.jpg,AMNE04.jpg,AMNE02.jpg,AMSA12.jpg,AMNE04.jpg,MN,1,num_6,16,num_6,0.350068798754,,,2018_Jan_18_1848,60.0030792222,MAFE4ImagesEEG,001,102782,
AFNE01.JPG,AFNE01.JPG,AFNE01.JPG,AFNE01.JPG,AFNE01.JPG,AFNE01.JPG,3,9,39,9,,,,,,,,,,,,,,,,,,,,,,,AMSA19.jpg,AMSA05.jpg,AMNE15.jpg,AMNE18.jpg,AMSA19.jpg,MS,2,num_8,32,num_6,0.850153794978,,,2018_Jan_18_1848,60.0030792222,MAFE4ImagesEEG,001,102782,
AFNE01.JPG,AFNE01.JPG,AFNE01.JPG,AFNE01.JPG,AFNE01.JPG,AFNE01.JPG,4,0,40,5,,,,,,,,,,,,,,,,,,,,,,,AMNE06.jpg,AMSA19.jpg,AMNE14.jpg,AMSA16.jpg,AMSA16.jpg,MS,2,num_4,16,num_4,0.50011257967,,,2018_Jan_18_1848,60.0030792222,MAFE4ImagesEEG,001,102782,
AFNE01.JPG,AFNE01.JPG,AFNE01.JPG,AFNE01.JPG,AFNE01.JPG,AFNE01.JPG,4,1,41,0,,,,,,,,,,,,,,,,,,,,,,,AMSA18.jpg,AMNE13.jpg,AMNE02.jpg,AMSA17.jpg,AMNE02.jpg,MN,1,num_2,32,num_8,1.03345061745,,,2018_Jan_18_1848,60.0030792222,MAFE4ImagesEEG,001,102782,
AFNE01.JPG,AFNE01.JPG,AFNE01.JPG,AFNE01.JPG,AFNE01.JPG,AFNE01.JPG,4,2,42,9,,,,,,,,,,,,,,,,,,,,,,,AMNE06.jpg,AMSA20.jpg,AMSA01.jpg,AMNE12.jpg,AMNE06.jpg,MN,1,num_8,32,num_2,3.90018185927,,,2018_Jan_18_1848,60.0030792222,MAFE4ImagesEEG,001,102782,
AFNE01.JPG,AFNE01.JPG,AFNE01.JPG,AFNE01.JPG,AFNE01.JPG,AFNE01.JPG,4,3,43,4,,,,,,,,,,,,,,,,,,,,,,,AMSA11.jpg,AMNE06.jpg,AMNE17.jpg,AMSA09.jpg,AMNE17.jpg,MN,1,num_2,16,num_2,0.350207679439,,,2018_Jan_18_1848,60.0030792222,MAFE4ImagesEEG,001,102782,
AFNE01.JPG,AFNE01.JPG,AFNE01.JPG,AFNE01.JPG,AFNE01.JPG,AFNE01.JPG,4,4,44,1,,,,,,,,,,,,,,,,,,,,,,,AMNE03.jpg,AMSA02.jpg,AMNE13.jpg,AMSA09.jpg,AMNE03.jpg,MN,1,num_8,32,num_4,0.399995830376,,,2018_Jan_18_1848,60.0030792222,MAFE4ImagesEEG,001,102782,
AFNE01.JPG,AFNE01.JPG,AFNE01.JPG,AFNE01.JPG,AFNE01.JPG,AFNE01.JPG,4,5,45,7,,,,,,,,,,,,,,,,,,,,,,,AMSA13.jpg,AMNE12.jpg,AMNE19.jpg,AMSA07.jpg,AMNE12.jpg,MN,1,num_6,16,num_6,4.71648892341,,,2018_Jan_18_1848,60.0030792222,MAFE4ImagesEEG,001,102782,
AFNE01.JPG,AFNE01.JPG,AFNE01.JPG,AFNE01.JPG,AFNE01.JPG,AFNE01.JPG,4,6,46,6,,,,,,,,,,,,,,,,,,,,,,,AMSA17.jpg,AMNE09.jpg,AMSA16.jpg,AMNE02.jpg,AMSA17.jpg,MS,2,num_8,32,num_6,0.383462324273,,,2018_Jan_18_1848,60.0030792222,MAFE4ImagesEEG,001,102782,
AFNE01.JPG,AFNE01.JPG,AFNE01.JPG,AFNE01.JPG,AFNE01.JPG,AFNE01.JPG,4,7,47,3,,,,,,,,,,,,,,,,,,,,,,,AMSA05.jpg,AMNE15.jpg,AMNE07.jpg,AMSA07.jpg,AMSA05.jpg,MS,2,num_8,32,num_4,0.650093175005,,,2018_Jan_18_1848,60.0030792222,MAFE4ImagesEEG,001,102782,
AFNE01.JPG,AFNE01.JPG,AFNE01.JPG,AFNE01.JPG,AFNE01.JPG,AFNE01.JPG,4,8,48,8,,,,,,,,,,,,,,,,,,,,,,,AMNE17.jpg,AMSA04.jpg,AMSA20.jpg,AMNE05.jpg,AMNE17.jpg,MN,1,num_8,32,num_2,2.74997482216,,,2018_Jan_18_1848,60.0030792222,MAFE4ImagesEEG,001,102782,
AFNE01.JPG,AFNE01.JPG,AFNE01.JPG,AFNE01.JPG,AFNE01.JPG,AFNE01.JPG,4,9,49,2,,,,,,,,,,,,,,,,,,,,,,,AMSA03.jpg,AMNE14.jpg,AMNE19.jpg,AMSA20.jpg,AMSA20.jpg,MS,2,num_4,32,num_6,0.316773419734,,,2018_Jan_18_1848,60.0030792222,MAFE4ImagesEEG,001,102782,
AFNE01.JPG,AFNE01.JPG,AFNE01.JPG,AFNE01.JPG,AFNE01.JPG,AFNE01.JPG,5,0,50,6,,,,,,,,,,,,,,,,,,,,,,,AMSA20.jpg,AMNE19.jpg,AMNE05.jpg,AMSA03.jpg,AMNE19.jpg,MN,1,num_6,16,num_6,0.366813993081,,,2018_Jan_18_1848,60.0030792222,MAFE4ImagesEEG,001,102782,
AFNE01.JPG,AFNE01.JPG,AFNE01.JPG,AFNE01.JPG,AFNE01.JPG,AFNE01.JPG,5,1,51,0,,,,,,,,,,,,,,,,,,,,,,,AMSA07.jpg,AMSA17.jpg,AMNE07.jpg,AMNE01.jpg,AMSA07.jpg,MS,2,num_8,32,num_6,0.350167266093,,,2018_Jan_18_1848,60.0030792222,MAFE4ImagesEEG,001,102782,
AFNE01.JPG,AFNE01.JPG,AFNE01.JPG,AFNE01.JPG,AFNE01.JPG,AFNE01.JPG,5,2,52,9,,,,,,,,,,,,,,,,,,,,,,,AMSA15.jpg,AMNE17.jpg,AMNE07.jpg,AMSA16.jpg,AMSA16.jpg,MS,2,num_4,32,num_6,0.350193887018,,,2018_Jan_18_1848,60.0030792222,MAFE4ImagesEEG,001,102782,
AFNE01.JPG,AFNE01.JPG,AFNE01.JPG,AFNE01.JPG,AFNE01.JPG,AFNE01.JPG,5,3,53,3,,,,,,,,,,,,,,,,,,,,,,,AMSA20.jpg,AMNE16.jpg,AMNE08.jpg,AMSA18.jpg,AMSA20.jpg,MS,2,num_8,32,num_6,0.350155077409,,,2018_Jan_18_1848,60.0030792222,MAFE4ImagesEEG,001,102782,
AFNE01.JPG,AFNE01.JPG,AFNE01.JPG,AFNE01.JPG,AFNE01.JPG,AFNE01.JPG,5,4,54,1,,,,,,,,,,,,,,,,,,,,,,,AMNE04.jpg,AMSA16.jpg,AMSA20.jpg,AMNE14.jpg,AMNE04.jpg,MN,1,num_8,32,num_2,0.483483172487,,,2018_Jan_18_1848,60.0030792222,MAFE4ImagesEEG,001,102782,
AFNE01.JPG,AFNE01.JPG,AFNE01.JPG,AFNE01.JPG,AFNE01.JPG,AFNE01.JPG,5,5,55,5,,,,,,,,,,,,,,,,,,,,,,,AMSA14.jpg,AMNE16.jpg,AMNE18.jpg,AMSA19.jpg,AMSA19.jpg,MS,2,num_4,32,num_2,0.550125249196,,,2018_Jan_18_1848,60.0030792222,MAFE4ImagesEEG,001,102782,
AFNE01.JPG,AFNE01.JPG,AFNE01.JPG,AFNE01.JPG,AFNE01.JPG,AFNE01.JPG,5,6,56,4,,,,,,,,,,,,,,,,,,,,,,,AMNE10.jpg,AMSA03.jpg,AMNE11.jpg,AMSA14.jpg,AMSA14.jpg,MS,2,num_4,32,num_2,0.333545556292,,,2018_Jan_18_1848,60.0030792222,MAFE4ImagesEEG,001,102782,
AFNE01.JPG,AFNE01.JPG,AFNE01.JPG,AFNE01.JPG,AFNE01.JPG,AFNE01.JPG,5,7,57,8,,,,,,,,,,,,,,,,,,,,,,,AMNE08.jpg,AMNE16.jpg,AMSA20.jpg,AMSA10.jpg,AMNE08.jpg,MN,1,num_8,32,num_2,0.433496162295,,,2018_Jan_18_1848,60.0030792222,MAFE4ImagesEEG,001,102782,
AFNE01.JPG,AFNE01.JPG,AFNE01.JPG,AFNE01.JPG,AFNE01.JPG,AFNE01.JPG,5,8,58,2,,,,,,,,,,,,,,,,,,,,,,,AMNE08.jpg,AMNE19.jpg,AMSA08.jpg,AMSA03.jpg,AMNE08.jpg,MN,1,num_8,32,num_6,0.283487983514,,,2018_Jan_18_1848,60.0030792222,MAFE4ImagesEEG,001,102782,
AFNE01.JPG,AFNE01.JPG,AFNE01.JPG,AFNE01.JPG,AFNE01.JPG,AFNE01.JPG,5,9,59,7,,,,,,,,,,,,,,,,,,,,,,,AMSA18.jpg,AMNE04.jpg,AMNE02.jpg,AMSA13.jpg,AMSA13.jpg,MS,2,num_4,32,num_6,0.583502416499,,,2018_Jan_18_1848,60.0030792222,MAFE4ImagesEEG,001,102782,
,,,,,,,,,,,,,,,,,,,,,,,,,,,,,,,,,,,,,,,,,,,space,66.1447669663,2018_Jan_18_1848,60.0030792222,MAFE4ImagesEEG,001,102782,
AFNE01.JPG,AFNE01.JPG,AFNE01.JPG,AFNE01.JPG,AFNE01.JPG,AFNE01.JPG,,,,,0,0,0,3,,,,,,,,,,,,,,,,,,,AFNE07.jpg,AFSA14.jpg,AFNE19.jpg,AFSA01.jpg,AFSA14.jpg,FS,4,num_6,16,num_6,2.36666100007,,,2018_Jan_18_1848,60.0030792222,MAFE4ImagesEEG,001,102782,
AFNE01.JPG,AFNE01.JPG,AFNE01.JPG,AFNE01.JPG,AFNE01.JPG,AFNE01.JPG,,,,,0,1,1,7,,,,,,,,,,,,,,,,,,,AFSA02.jpg,AFNE18.jpg,AFNE17.jpg,AFSA05.jpg,AFSA02.jpg,FS,4,num_8,32,num_4,0.466853444465,,,2018_Jan_18_1848,60.0030792222,MAFE4ImagesEEG,001,102782,
AFNE01.JPG,AFNE01.JPG,AFNE01.JPG,AFNE01.JPG,AFNE01.JPG,AFNE01.JPG,,,,,0,2,2,6,,,,,,,,,,,,,,,,,,,AFSA09.jpg,AFNE03.jpg,AFSA14.jpg,AFNE10.jpg,AFNE03.jpg,FN,3,num_6,32,num_2,0.333506426308,,,2018_Jan_18_1848,60.0030792222,MAFE4ImagesEEG,001,102782,
AFNE01.JPG,AFNE01.JPG,AFNE01.JPG,AFNE01.JPG,AFNE01.JPG,AFNE01.JPG,,,,,0,3,3,0,,,,,,,,,,,,,,,,,,,AFNE14.jpg,AFSA18.jpg,AFNE18.jpg,AFSA11.jpg,AFSA11.jpg,FS,4,num_4,32,num_6,0.383519736584,,,2018_Jan_18_1848,60.0030792222,MAFE4ImagesEEG,001,102782,
AFNE01.JPG,AFNE01.JPG,AFNE01.JPG,AFNE01.JPG,AFNE01.JPG,AFNE01.JPG,,,,,0,4,4,1,,,,,,,,,,,,,,,,,,,AFNE01.jpg,AFSA04.jpg,AFNE10.jpg,AFSA12.jpg,AFNE01.jpg,FN,3,num_8,32,num_6,0.500158445444,,,2018_Jan_18_1848,60.0030792222,MAFE4ImagesEEG,001,102782,
AFNE01.JPG,AFNE01.JPG,AFNE01.JPG,AFNE01.JPG,AFNE01.JPG,AFNE01.JPG,,,,,0,5,5,9,,,,,,,,,,,,,,,,,,,AFNE10.jpg,AFSA07.jpg,AFNE11.jpg,AFSA18.jpg,AFSA18.jpg,FS,4,num_4,32,num_2,0.316775664687,,,2018_Jan_18_1848,60.0030792222,MAFE4ImagesEEG,001,102782,
AFNE01.JPG,AFNE01.JPG,AFNE01.JPG,AFNE01.JPG,AFNE01.JPG,AFNE01.JPG,,,,,0,6,6,5,,,,,,,,,,,,,,,,,,,AFNE04.jpg,AFSA06.jpg,AFSA12.jpg,AFNE05.jpg,AFNE04.jpg,FN,3,num_8,32,num_2,0.300143370871,,,2018_Jan_18_1848,60.0030792222,MAFE4ImagesEEG,001,102782,
AFNE01.JPG,AFNE01.JPG,AFNE01.JPG,AFNE01.JPG,AFNE01.JPG,AFNE01.JPG,,,,,0,7,7,4,,,,,,,,,,,,,,,,,,,AFNE10.jpg,AFSA05.jpg,AFSA03.jpg,AFNE16.jpg,AFNE16.jpg,FN,3,num_4,32,num_6,0.316692272667,,,2018_Jan_18_1848,60.0030792222,MAFE4ImagesEEG,001,102782,
AFNE01.JPG,AFNE01.JPG,AFNE01.JPG,AFNE01.JPG,AFNE01.JPG,AFNE01.JPG,,,,,0,8,8,2,,,,,,,,,,,,,,,,,,,AFNE06.jpg,AFSA05.jpg,AFNE14.jpg,AFSA08.jpg,AFNE06.jpg,FN,3,num_8,32,num_6,0.666824257001,,,2018_Jan_18_1848,60.0030792222,MAFE4ImagesEEG,001,102782,
AFNE01.JPG,AFNE01.JPG,AFNE01.JPG,AFNE01.JPG,AFNE01.JPG,AFNE01.JPG,,,,,0,9,9,8,,,,,,,,,,,,,,,,,,,AFNE03.jpg,AFSA17.jpg,AFNE16.jpg,AFSA06.jpg,AFSA06.jpg,FS,4,num_4,32,num_6,0.466715205461,,,2018_Jan_18_1848,60.0030792222,MAFE4ImagesEEG,001,102782,
AFNE01.JPG,AFNE01.JPG,AFNE01.JPG,AFNE01.JPG,AFNE01.JPG,AFNE01.JPG,,,,,1,0,10,6,,,,,,,,,,,,,,,,,,,AFNE03.jpg,AFSA08.jpg,AFSA14.jpg,AFNE13.jpg,AFNE13.jpg,FN,3,num_4,32,num_6,0.483188733459,,,2018_Jan_18_1848,60.0030792222,MAFE4ImagesEEG,001,102782,
AFNE01.JPG,AFNE01.JPG,AFNE01.JPG,AFNE01.JPG,AFNE01.JPG,AFNE01.JPG,,,,,1,1,11,3,,,,,,,,,,,,,,,,,,,AFNE10.jpg,AFNE06.jpg,AFSA11.jpg,AFSA07.jpg,AFNE10.jpg,FN,3,num_8,32,num_6,0.483488945756,,,2018_Jan_18_1848,60.0030792222,MAFE4ImagesEEG,001,102782,
AFNE01.JPG,AFNE01.JPG,AFNE01.JPG,AFNE01.JPG,AFNE01.JPG,AFNE01.JPG,,,,,1,2,12,0,,,,,,,,,,,,,,,,,,,AFSA05.jpg,AFNE04.jpg,AFNE10.jpg,AFSA03.jpg,AFNE10.jpg,FN,3,num_2,32,num_6,0.700081788469,,,2018_Jan_18_1848,60.0030792222,MAFE4ImagesEEG,001,102782,
AFNE01.JPG,AFNE01.JPG,AFNE01.JPG,AFNE01.JPG,AFNE01.JPG,AFNE01.JPG,,,,,1,3,13,5,,,,,,,,,,,,,,,,,,,AFSA02.jpg,AFNE19.jpg,AFSA09.jpg,AFNE15.jpg,AFSA02.jpg,FS,4,num_8,16,num_8,0.366816238035,,,2018_Jan_18_1848,60.0030792222,MAFE4ImagesEEG,001,102782,
AFNE01.JPG,AFNE01.JPG,AFNE01.JPG,AFNE01.JPG,AFNE01.JPG,AFNE01.JPG,,,,,1,4,14,9,,,,,,,,,,,,,,,,,,,AFNE03.jpg,AFNE14.jpg,AFSA01.jpg,AFSA16.jpg,AFNE03.jpg,FN,3,num_8,32,num_2,0.383486059029,,,2018_Jan_18_1848,60.0030792222,MAFE4ImagesEEG,001,102782,
AFNE01.JPG,AFNE01.JPG,AFNE01.JPG,AFNE01.JPG,AFNE01.JPG,AFNE01.JPG,,,,,1,5,15,4,,,,,,,,,,,,,,,,,,,AFNE01.jpg,AFSA08.jpg,AFNE09.jpg,AFSA19.jpg,AFNE09.jpg,FN,3,num_2,32,num_8,0.666755939368,,,2018_Jan_18_1848,60.0030792222,MAFE4ImagesEEG,001,102782,
AFNE01.JPG,AFNE01.JPG,AFNE01.JPG,AFNE01.JPG,AFNE01.JPG,AFNE01.JPG,,,,,1,6,16,8,,,,,,,,,,,,,,,,,,,AFNE13.jpg,AFSA20.jpg,AFSA10.jpg,AFNE10.jpg,AFNE13.jpg,FN,3,num_8,32,num_4,1.0667867302,,,2018_Jan_18_1848,60.0030792222,MAFE4ImagesEEG,001,102782,
AFNE01.JPG,AFNE01.JPG,AFNE01.JPG,AFNE01.JPG,AFNE01.JPG,AFNE01.JPG,,,,,1,7,17,7,,,,,,,,,,,,,,,,,,,AFSA13.jpg,AFNE06.jpg,AFSA12.jpg,AFNE01.jpg,AFSA12.jpg,FS,4,num_2,32,num_6,0.533484295011,,,2018_Jan_18_1848,60.0030792222,MAFE4ImagesEEG,001,102782,
AFNE01.JPG,AFNE01.JPG,AFNE01.JPG,AFNE01.JPG,AFNE01.JPG,AFNE01.JPG,,,,,1,8,18,2,,,,,,,,,,,,,,,,,,,AFNE18.jpg,AFNE20.jpg,AFSA17.jpg,AFSA06.jpg,AFNE18.jpg,FN,3,num_8,16,num_8,0.900194047485,,,2018_Jan_18_1848,60.0030792222,MAFE4ImagesEEG,001,102782,
AFNE01.JPG,AFNE01.JPG,AFNE01.JPG,AFNE01.JPG,AFNE01.JPG,AFNE01.JPG,,,,,1,9,19,1,,,,,,,,,,,,,,,,,,,AFNE16.jpg,AFSA08.jpg,AFNE11.jpg,AFSA06.jpg,AFNE11.jpg,FN,3,num_2,32,num_8,0.950127494056,,,2018_Jan_18_1848,60.0030792222,MAFE4ImagesEEG,001,102782,
AFNE01.JPG,AFNE01.JPG,AFNE01.JPG,AFNE01.JPG,AFNE01.JPG,AFNE01.JPG,,,,,2,0,20,5,,,,,,,,,,,,,,,,,,,AFSA15.jpg,AFSA10.jpg,AFNE15.jpg,AFNE02.jpg,AFNE02.jpg,FN,3,num_4,32,num_6,0.800120598637,,,2018_Jan_18_1848,60.0030792222,MAFE4ImagesEEG,001,102782,
AFNE01.JPG,AFNE01.JPG,AFNE01.JPG,AFNE01.JPG,AFNE01.JPG,AFNE01.JPG,,,,,2,1,21,3,,,,,,,,,,,,,,,,,,,AFSA02.jpg,AFSA13.jpg,AFNE16.jpg,AFNE15.jpg,AFSA13.jpg,FS,4,num_6,16,num_6,0.766785768326,,,2018_Jan_18_1848,60.0030792222,MAFE4ImagesEEG,001,102782,
AFNE01.JPG,AFNE01.JPG,AFNE01.JPG,AFNE01.JPG,AFNE01.JPG,AFNE01.JPG,,,,,2,2,22,0,,,,,,,,,,,,,,,,,,,AFNE17.jpg,AFSA01.jpg,AFNE02.jpg,AFSA18.jpg,AFSA18.jpg,FS,4,num_4,32,num_6,0.433480446227,,,2018_Jan_18_1848,60.0030792222,MAFE4ImagesEEG,001,102782,
AFNE01.JPG,AFNE01.JPG,AFNE01.JPG,AFNE01.JPG,AFNE01.JPG,AFNE01.JPG,,,,,2,3,23,1,,,,,,,,,,,,,,,,,,,AFSA07.jpg,AFNE10.jpg,AFSA13.jpg,AFNE13.jpg,AFSA13.jpg,FS,4,num_2,32,num_6,0.650143851992,,,2018_Jan_18_1848,60.0030792222,MAFE4ImagesEEG,001,102782,
AFNE01.JPG,AFNE01.JPG,AFNE01.JPG,AFNE01.JPG,AFNE01.JPG,AFNE01.JPG,,,,,2,4,24,4,,,,,,,,,,,,,,,,,,,AFNE01.jpg,AFNE03.jpg,AFSA08.jpg,AFSA09.jpg,AFSA09.jpg,FS,4,num_4,32,num_6,0.383441476151,,,2018_Jan_18_1848,60.0030792222,MAFE4ImagesEEG,001,102782,
AFNE01.JPG,AFNE01.JPG,AFNE01.JPG,AFNE01.JPG,AFNE01.JPG,AFNE01.JPG,,,,,2,5,25,8,,,,,,,,,,,,,,,,,,,AFSA06.jpg,AFNE19.jpg,AFNE03.jpg,AFSA10.jpg,AFSA10.jpg,FS,4,num_4,32,num_6,0.483477399219,,,2018_Jan_18_1848,60.0030792222,MAFE4ImagesEEG,001,102782,
AFNE01.JPG,AFNE01.JPG,AFNE01.JPG,AFNE01.JPG,AFNE01.JPG,AFNE01.JPG,,,,,2,6,26,9,,,,,,,,,,,,,,,,,,,AFNE16.jpg,AFSA14.jpg,AFSA10.jpg,AFNE20.jpg,AFSA10.jpg,FS,4,num_2,32,num_6,0.450154757127,,,2018_Jan_18_1848,60.0030792222,MAFE4ImagesEEG,001,102782,
AFNE01.JPG,AFNE01.JPG,AFNE01.JPG,AFNE01.JPG,AFNE01.JPG,AFNE01.JPG,,,,,2,7,27,2,,,,,,,,,,,,,,,,,,,AFNE14.jpg,AFSA18.jpg,AFSA10.jpg,AFNE20.jpg,AFNE20.jpg,FN,3,num_4,32,num_6,0.433554216288,,,2018_Jan_18_1848,60.0030792222,MAFE4ImagesEEG,001,102782,
AFNE01.JPG,AFNE01.JPG,AFNE01.JPG,AFNE01.JPG,AFNE01.JPG,AFNE01.JPG,,,,,2,8,28,6,,,,,,,,,,,,,,,,,,,AFSA08.jpg,AFSA09.jpg,AFNE14.jpg,AFNE11.jpg,AFSA09.jpg,FS,4,num_6,16,num_6,0.433463446796,,,2018_Jan_18_1848,60.0030792222,MAFE4ImagesEEG,001,102782,
AFNE01.JPG,AFNE01.JPG,AFNE01.JPG,AFNE01.JPG,AFNE01.JPG,AFNE01.JPG,,,,,2,9,29,7,,,,,,,,,,,,,,,,,,,AFSA03.jpg,AFNE01.jpg,AFNE05.jpg,AFSA08.jpg,AFSA03.jpg,FS,4,num_8,32,num_4,0.316793626174,,,2018_Jan_18_1848,60.0030792222,MAFE4ImagesEEG,001,102782,
AFNE01.JPG,AFNE01.JPG,AFNE01.JPG,AFNE01.JPG,AFNE01.JPG,AFNE01.JPG,,,,,3,0,30,9,,,,,,,,,,,,,,,,,,,AFNE17.jpg,AFSA12.jpg,AFSA11.jpg,AFNE06.jpg,AFNE06.jpg,FN,3,num_4,32,num_8,0.350148983765,,,2018_Jan_18_1848,60.0030792222,MAFE4ImagesEEG,001,102782,
AFNE01.JPG,AFNE01.JPG,AFNE01.JPG,AFNE01.JPG,AFNE01.JPG,AFNE01.JPG,,,,,3,1,31,6,,,,,,,,,,,,,,,,,,,AFSA16.jpg,AFNE14.jpg,AFSA04.jpg,AFNE17.jpg,AFSA16.jpg,FS,4,num_8,16,num_8,0.366826502141,,,2018_Jan_18_1848,60.0030792222,MAFE4ImagesEEG,001,102782,
AFNE01.JPG,AFNE01.JPG,AFNE01.JPG,AFNE01.JPG,AFNE01.JPG,AFNE01.JPG,,,,,3,2,32,2,,,,,,,,,,,,,,,,,,,AFNE02.jpg,AFSA20.jpg,AFNE05.jpg,AFSA18.jpg,AFNE05.jpg,FN,3,num_2,32,num_6,0.466792182997,,,2018_Jan_18_1848,60.0030792222,MAFE4ImagesEEG,001,102782,
AFNE01.JPG,AFNE01.JPG,AFNE01.JPG,AFNE01.JPG,AFNE01.JPG,AFNE01.JPG,,,,,3,3,33,0,,,,,,,,,,,,,,,,,,,AFNE15.jpg,AFSA01.jpg,AFNE01.jpg,AFSA07.jpg,AFNE15.jpg,FN,3,num_8,32,num_4,0.716751929838,,,2018_Jan_18_1848,60.0030792222,MAFE4ImagesEEG,001,102782,
AFNE01.JPG,AFNE01.JPG,AFNE01.JPG,AFNE01.JPG,AFNE01.JPG,AFNE01.JPG,,,,,3,4,34,5,,,,,,,,,,,,,,,,,,,AFNE03.jpg,AFNE16.jpg,AFSA02.jpg,AFSA06.jpg,AFNE16.jpg,FN,3,num_6,16,num_6,0.833434579894,,,2018_Jan_18_1848,60.0030792222,MAFE4ImagesEEG,001,102782,
AFNE01.JPG,AFNE01.JPG,AFNE01.JPG,AFNE01.JPG,AFNE01.JPG,AFNE01.JPG,,,,,3,5,35,1,,,,,,,,,,,,,,,,,,,AFSA09.jpg,AFNE10.jpg,AFSA17.jpg,AFNE13.jpg,AFSA09.jpg,FS,4,num_8,32,num_6,0.866772296838,,,2018_Jan_18_1848,60.0030792222,MAFE4ImagesEEG,001,102782,
AFNE01.JPG,AFNE01.JPG,AFNE01.JPG,AFNE01.JPG,AFNE01.JPG,AFNE01.JPG,,,,,3,6,36,7,,,,,,,,,,,,,,,,,,,AFNE18.jpg,AFSA15.jpg,AFSA19.jpg,AFNE02.jpg,AFSA19.jpg,FS,4,num_2,16,num_2,0.400184425525,,,2018_Jan_18_1848,60.0030792222,MAFE4ImagesEEG,001,102782,
AFNE01.JPG,AFNE01.JPG,AFNE01.JPG,AFNE01.JPG,AFNE01.JPG,AFNE01.JPG,,,,,3,7,37,3,,,,,,,,,,,,,,,,,,,AFSA14.jpg,AFNE20.jpg,AFNE16.jpg,AFSA06.jpg,AFNE16.jpg,FN,3,num_2,32,num_6,0.567089829594,,,2018_Jan_18_1848,60.0030792222,MAFE4ImagesEEG,001,102782,
AFNE01.JPG,AFNE01.JPG,AFNE01.JPG,AFNE01.JPG,AFNE01.JPG,AFNE01.JPG,,,,,3,8,38,4,,,,,,,,,,,,,,,,,,,AFNE06.jpg,AFNE10.jpg,AFSA04.jpg,AFSA14.jpg,AFNE06.jpg,FN,3,num_8,32,num_6,0.533464088105,,,2018_Jan_18_1848,60.0030792222,MAFE4ImagesEEG,001,102782,
AFNE01.JPG,AFNE01.JPG,AFNE01.JPG,AFNE01.JPG,AFNE01.JPG,AFNE01.JPG,,,,,3,9,39,8,,,,,,,,,,,,,,,,,,,AFNE09.jpg,AFNE04.jpg,AFSA16.jpg,AFSA12.jpg,AFSA12.jpg,FS,4,num_4,32,num_6,0.50022900803,,,2018_Jan_18_1848,60.0030792222,MAFE4ImagesEEG,001,102782,
AFNE01.JPG,AFNE01.JPG,AFNE01.JPG,AFNE01.JPG,AFNE01.JPG,AFNE01.JPG,,,,,4,0,40,7,,,,,,,,,,,,,,,,,,,AFNE09.jpg,AFNE10.jpg,AFSA17.jpg,AFSA09.jpg,AFNE10.jpg,FN,3,num_6,16,num_6,0.483461682685,,,2018_Jan_18_1848,60.0030792222,MAFE4ImagesEEG,001,102782,
AFNE01.JPG,AFNE01.JPG,AFNE01.JPG,AFNE01.JPG,AFNE01.JPG,AFNE01.JPG,,,,,4,1,41,2,,,,,,,,,,,,,,,,,,,AFSA10.jpg,AFSA03.jpg,AFNE13.jpg,AFNE05.jpg,AFNE05.jpg,FN,3,num_4,32,num_6,0.333531443495,,,2018_Jan_18_1848,60.0030792222,MAFE4ImagesEEG,001,102782,
AFNE01.JPG,AFNE01.JPG,AFNE01.JPG,AFNE01.JPG,AFNE01.JPG,AFNE01.JPG,,,,,4,2,42,4,,,,,,,,,,,,,,,,,,,AFSA03.jpg,AFNE11.jpg,AFSA15.jpg,AFNE04.jpg,AFSA03.jpg,FS,4,num_8,32,num_4,0.316813511774,,,2018_Jan_18_1848,60.0030792222,MAFE4ImagesEEG,001,102782,
AFNE01.JPG,AFNE01.JPG,AFNE01.JPG,AFNE01.JPG,AFNE01.JPG,AFNE01.JPG,,,,,4,3,43,0,,,,,,,,,,,,,,,,,,,AFSA19.jpg,AFSA17.jpg,AFNE09.jpg,AFNE16.jpg,AFSA17.jpg,FS,4,num_6,16,num_6,0.333517010324,,,2018_Jan_18_1848,60.0030792222,MAFE4ImagesEEG,001,102782,
AFNE01.JPG,AFNE01.JPG,AFNE01.JPG,AFNE01.JPG,AFNE01.JPG,AFNE01.JPG,,,,,4,4,44,3,,,,,,,,,,,,,,,,,,,AFNE01.jpg,AFSA19.jpg,AFSA15.jpg,AFNE11.jpg,AFNE01.jpg,FN,3,num_8,32,num_4,0.250152191147,,,2018_Jan_18_1848,60.0030792222,MAFE4ImagesEEG,001,102782,
AFNE01.JPG,AFNE01.JPG,AFNE01.JPG,AFNE01.JPG,AFNE01.JPG,AFNE01.JPG,,,,,4,5,45,9,,,,,,,,,,,,,,,,,,,AFNE04.jpg,AFNE10.jpg,AFSA07.jpg,AFSA19.jpg,AFSA07.jpg,FS,4,num_2,16,num_2,0.416844303254,,,2018_Jan_18_1848,60.0030792222,MAFE4ImagesEEG,001,102782,
AFNE01.JPG,AFNE01.JPG,AFNE01.JPG,AFNE01.JPG,AFNE01.JPG,AFNE01.JPG,,,,,4,6,46,8,,,,,,,,,,,,,,,,,,,AFSA14.jpg,AFNE15.jpg,AFNE01.jpg,AFSA18.jpg,AFSA18.jpg,FS,4,num_4,32,num_8,0.366808540653,,,2018_Jan_18_1848,60.0030792222,MAFE4ImagesEEG,001,102782,
AFNE01.JPG,AFNE01.JPG,AFNE01.JPG,AFNE01.JPG,AFNE01.JPG,AFNE01.JPG,,,,,4,7,47,1,,,,,,,,,,,,,,,,,,,AFSA05.jpg,AFSA19.jpg,AFNE15.jpg,AFNE13.jpg,AFNE13.jpg,FN,3,num_4,32,num_2,0.450011706911,,,2018_Jan_18_1848,60.0030792222,MAFE4ImagesEEG,001,102782,
AFNE01.JPG,AFNE01.JPG,AFNE01.JPG,AFNE01.JPG,AFNE01.JPG,AFNE01.JPG,,,,,4,8,48,6,,,,,,,,,,,,,,,,,,,AFNE09.jpg,AFSA04.jpg,AFNE12.jpg,AFSA06.jpg,AFNE12.jpg,FN,3,num_2,32,num_8,0.0168497557752,,,2018_Jan_18_1848,60.0030792222,MAFE4ImagesEEG,001,102782,
AFNE01.JPG,AFNE01.JPG,AFNE01.JPG,AFNE01.JPG,AFNE01.JPG,AFNE01.JPG,,,,,4,9,49,5,,,,,,,,,,,,,,,,,,,AFNE19.jpg,AFSA06.jpg,AFNE06.jpg,AFSA07.jpg,AFSA06.jpg,FS,4,num_6,32,num_2,0.383478682023,,,2018_Jan_18_1848,60.0030792222,MAFE4ImagesEEG,001,102782,
AFNE01.JPG,AFNE01.JPG,AFNE01.JPG,AFNE01.JPG,AFNE01.JPG,AFNE01.JPG,,,,,5,0,50,0,,,,,,,,,,,,,,,,,,,AFSA20.jpg,AFNE07.jpg,AFSA07.jpg,AFNE12.jpg,AFSA20.jpg,FS,4,num_8,32,num_6,0.566796673462,,,2018_Jan_18_1848,60.0030792222,MAFE4ImagesEEG,001,102782,
AFNE01.JPG,AFNE01.JPG,AFNE01.JPG,AFNE01.JPG,AFNE01.JPG,AFNE01.JPG,,,,,5,1,51,4,,,,,,,,,,,,,,,,,,,AFNE17.jpg,AFNE09.jpg,AFSA06.jpg,AFSA12.jpg,AFSA12.jpg,FS,4,num_4,32,num_2,0.316779834218,,,2018_Jan_18_1848,60.0030792222,MAFE4ImagesEEG,001,102782,
AFNE01.JPG,AFNE01.JPG,AFNE01.JPG,AFNE01.JPG,AFNE01.JPG,AFNE01.JPG,,,,,5,2,52,6,,,,,,,,,,,,,,,,,,,AFNE10.jpg,AFNE09.jpg,AFSA11.jpg,AFSA14.jpg,AFSA11.jpg,FS,4,num_2,32,num_4,0.583507227711,,,2018_Jan_18_1848,60.0030792222,MAFE4ImagesEEG,001,102782,
AFNE01.JPG,AFNE01.JPG,AFNE01.JPG,AFNE01.JPG,AFNE01.JPG,AFNE01.JPG,,,,,5,3,53,9,,,,,,,,,,,,,,,,,,,AFSA02.jpg,AFNE20.jpg,AFNE19.jpg,AFSA08.jpg,AFSA02.jpg,FS,4,num_8,16,num_8,0.70011546649,,,2018_Jan_18_1848,60.0030792222,MAFE4ImagesEEG,001,102782,
AFNE01.JPG,AFNE01.JPG,AFNE01.JPG,AFNE01.JPG,AFNE01.JPG,AFNE01.JPG,,,,,5,4,54,1,,,,,,,,,,,,,,,,,,,AFSA10.jpg,AFNE14.jpg,AFNE10.jpg,AFSA19.jpg,AFNE14.jpg,FN,3,num_6,32,num_4,0.41683532251,,,2018_Jan_18_1848,60.0030792222,MAFE4ImagesEEG,001,102782,
AFNE01.JPG,AFNE01.JPG,AFNE01.JPG,AFNE01.JPG,AFNE01.JPG,AFNE01.JPG,,,,,5,5,55,7,,,,,,,,,,,,,,,,,,,AFSA01.jpg,AFSA07.jpg,AFNE16.jpg,AFNE01.jpg,AFSA01.jpg,FS,4,num_8,32,num_4,0.266807257663,,,2018_Jan_18_1848,60.0030792222,MAFE4ImagesEEG,001,102782,
AFNE01.JPG,AFNE01.JPG,AFNE01.JPG,AFNE01.JPG,AFNE01.JPG,AFNE01.JPG,,,,,5,6,56,2,,,,,,,,,,,,,,,,,,,AFNE20.jpg,AFSA10.jpg,AFSA13.jpg,AFNE11.jpg,AFNE11.jpg,FN,3,num_4,32,num_8,0.316739100497,,,2018_Jan_18_1848,60.0030792222,MAFE4ImagesEEG,001,102782,
AFNE01.JPG,AFNE01.JPG,AFNE01.JPG,AFNE01.JPG,AFNE01.JPG,AFNE01.JPG,,,,,5,7,57,8,,,,,,,,,,,,,,,,,,,AFNE17.jpg,AFSA03.jpg,AFNE01.jpg,AFSA02.jpg,AFNE01.jpg,FN,3,num_2,16,num_2,1.06671263929,,,2018_Jan_18_1848,60.0030792222,MAFE4ImagesEEG,001,102782,
AFNE01.JPG,AFNE01.JPG,AFNE01.JPG,AFNE01.JPG,AFNE01.JPG,AFNE01.JPG,,,,,5,8,58,5,,,,,,,,,,,,,,,,,,,AFSA02.jpg,AFSA08.jpg,AFNE12.jpg,AFNE20.jpg,AFSA02.jpg,FS,4,num_8,16,num_8,0.417140987702,,,2018_Jan_18_1848,60.0030792222,MAFE4ImagesEEG,001,102782,
AFNE01.JPG,AFNE01.JPG,AFNE01.JPG,AFNE01.JPG,AFNE01.JPG,AFNE01.JPG,,,,,5,9,59,3,,,,,,,,,,,,,,,,,,,AFSA17.jpg,AFNE06.jpg,AFNE16.jpg,AFSA16.jpg,AFNE16.jpg,FN,3,num_2,16,num_2,0.43353561312,,,2018_Jan_18_1848,60.0030792222,MAFE4ImagesEEG,001,102782,
,,,,,,,,,,,,,,,,,,,,,,,,,,,,,,,,,,,,,,,,,,,space,39.3637983957,2018_Jan_18_1848,60.0030792222,MAFE4ImagesEEG,001,102782,
AFNE01.JPG,AFNE01.JPG,AFNE01.JPG,AFNE01.JPG,AFNE01.JPG,AFNE01.JPG,,,,,,,,,0,0,0,0,,,,,,,,,,,,,,,AMNE12.jpg,AMSA18.jpg,AMNE08.jpg,AMSA05.jpg,AMSA05.jpg,MS,2,num_4,32,num_2,0.316818002146,,,2018_Jan_18_1848,60.0030792222,MAFE4ImagesEEG,001,102782,
AFNE01.JPG,AFNE01.JPG,AFNE01.JPG,AFNE01.JPG,AFNE01.JPG,AFNE01.JPG,,,,,,,,,0,1,1,6,,,,,,,,,,,,,,,AMSA07.jpg,AMNE09.jpg,AMNE18.jpg,AMSA19.jpg,AMSA19.jpg,MS,2,num_4,16,num_4,0.683474191464,,,2018_Jan_18_1848,60.0030792222,MAFE4ImagesEEG,001,102782,
AFNE01.JPG,AFNE01.JPG,AFNE01.JPG,AFNE01.JPG,AFNE01.JPG,AFNE01.JPG,,,,,,,,,0,2,2,8,,,,,,,,,,,,,,,AMNE11.jpg,AMSA09.jpg,AMSA06.jpg,AMNE04.jpg,AMSA06.jpg,MS,2,num_2,32,num_6,0.250195170287,,,2018_Jan_18_1848,60.0030792222,MAFE4ImagesEEG,001,102782,
AFNE01.JPG,AFNE01.JPG,AFNE01.JPG,AFNE01.JPG,AFNE01.JPG,AFNE01.JPG,,,,,,,,,0,3,3,9,,,,,,,,,,,,,,,AMNE07.jpg,AMSA14.jpg,AMSA20.jpg,AMNE11.jpg,AMNE11.jpg,MN,1,num_4,16,num_4,0.300173199736,,,2018_Jan_18_1848,60.0030792222,MAFE4ImagesEEG,001,102782,
AFNE01.JPG,AFNE01.JPG,AFNE01.JPG,AFNE01.JPG,AFNE01.JPG,AFNE01.JPG,,,,,,,,,0,4,4,7,,,,,,,,,,,,,,,AMSA03.jpg,AMNE05.jpg,AMNE02.jpg,AMSA17.jpg,AMNE05.jpg,MN,1,num_6,32,num_2,0.333364017773,,,2018_Jan_18_1848,60.0030792222,MAFE4ImagesEEG,001,102782,
AFNE01.JPG,AFNE01.JPG,AFNE01.JPG,AFNE01.JPG,AFNE01.JPG,AFNE01.JPG,,,,,,,,,0,5,5,2,,,,,,,,,,,,,,,AMNE03.jpg,AMSA09.jpg,AMNE18.jpg,AMSA15.jpg,AMSA09.jpg,MS,2,num_6,32,num_2,0.283594789915,,,2018_Jan_18_1848,60.0030792222,MAFE4ImagesEEG,001,102782,
AFNE01.JPG,AFNE01.JPG,AFNE01.JPG,AFNE01.JPG,AFNE01.JPG,AFNE01.JPG,,,,,,,,,0,6,6,1,,,,,,,,,,,,,,,AMNE18.jpg,AMNE13.jpg,AMSA10.jpg,AMSA12.jpg,AMNE18.jpg,MN,1,num_8,32,num_6,0.266805974767,,,2018_Jan_18_1848,60.0030792222,MAFE4ImagesEEG,001,102782,
AFNE01.JPG,AFNE01.JPG,AFNE01.JPG,AFNE01.JPG,AFNE01.JPG,AFNE01.JPG,,,,,,,,,0,7,7,5,,,,,,,,,,,,,,,AMNE11.jpg,AMSA14.jpg,AMNE08.jpg,AMSA05.jpg,AMNE08.jpg,MN,1,num_2,16,num_2,0.816767646,,,2018_Jan_18_1848,60.0030792222,MAFE4ImagesEEG,001,102782,
AFNE01.JPG,AFNE01.JPG,AFNE01.JPG,AFNE01.JPG,AFNE01.JPG,AFNE01.JPG,,,,,,,,,0,8,8,4,,,,,,,,,,,,,,,AMSA08.jpg,AMNE20.jpg,AMSA02.jpg,AMNE12.jpg,AMSA02.jpg,MS,2,num_2,32,num_8,0.51681992691,,,2018_Jan_18_1848,60.0030792222,MAFE4ImagesEEG,001,102782,
AFNE01.JPG,AFNE01.JPG,AFNE01.JPG,AFNE01.JPG,AFNE01.JPG,AFNE01.JPG,,,,,,,,,0,9,9,3,,,,,,,,,,,,,,,AMNE13.jpg,AMSA17.jpg,AMNE20.jpg,AMSA11.jpg,AMNE13.jpg,MN,1,num_8,32,num_2,0.300196934026,,,2018_Jan_18_1848,60.0030792222,MAFE4ImagesEEG,001,102782,
AFNE01.JPG,AFNE01.JPG,AFNE01.JPG,AFNE01.JPG,AFNE01.JPG,AFNE01.JPG,,,,,,,,,1,0,10,9,,,,,,,,,,,,,,,AMNE07.jpg,AMSA04.jpg,AMNE20.jpg,AMSA07.jpg,AMSA04.jpg,MS,2,num_6,32,num_8,0.400155559182,,,2018_Jan_18_1848,60.0030792222,MAFE4ImagesEEG,001,102782,
AFNE01.JPG,AFNE01.JPG,AFNE01.JPG,AFNE01.JPG,AFNE01.JPG,AFNE01.JPG,,,,,,,,,1,1,11,2,,,,,,,,,,,,,,,AMSA14.jpg,AMSA06.jpg,AMNE17.jpg,AMNE11.jpg,AMNE11.jpg,MN,1,num_4,16,num_4,0.283496643417,,,2018_Jan_18_1848,60.0030792222,MAFE4ImagesEEG,001,102782,
AFNE01.JPG,AFNE01.JPG,AFNE01.JPG,AFNE01.JPG,AFNE01.JPG,AFNE01.JPG,,,,,,,,,1,2,12,0,,,,,,,,,,,,,,,AMNE08.jpg,AMSA14.jpg,AMNE18.jpg,AMSA07.jpg,AMSA07.jpg,MS,2,num_4,32,num_2,0.283458154649,,,2018_Jan_18_1848,60.0030792222,MAFE4ImagesEEG,001,102782,
AFNE01.JPG,AFNE01.JPG,AFNE01.JPG,AFNE01.JPG,AFNE01.JPG,AFNE01.JPG,,,,,,,,,1,3,13,8,,,,,,,,,,,,,,,AMNE14.jpg,AMSA16.jpg,AMSA20.jpg,AMNE17.jpg,AMSA20.jpg,MS,2,num_2,32,num_8,0.250147059094,,,2018_Jan_18_1848,60.0030792222,MAFE4ImagesEEG,001,102782,
AFNE01.JPG,AFNE01.JPG,AFNE01.JPG,AFNE01.JPG,AFNE01.JPG,AFNE01.JPG,,,,,,,,,1,4,14,6,,,,,,,,,,,,,,,AMSA05.jpg,AMNE09.jpg,AMSA10.jpg,AMNE01.jpg,AMNE01.jpg,MN,1,num_4,32,num_2,1.03339641215,,,2018_Jan_18_1848,60.0030792222,MAFE4ImagesEEG,001,102782,
AFNE01.JPG,AFNE01.JPG,AFNE01.JPG,AFNE01.JPG,AFNE01.JPG,AFNE01.JPG,,,,,,,,,1,5,15,1,,,,,,,,,,,,,,,AMNE18.jpg,AMSA07.jpg,AMNE14.jpg,AMSA16.jpg,AMSA07.jpg,MS,2,num_6,32,num_8,0.450123324525,,,2018_Jan_18_1848,60.0030792222,MAFE4ImagesEEG,001,102782,
AFNE01.JPG,AFNE01.JPG,AFNE01.JPG,AFNE01.JPG,AFNE01.JPG,AFNE01.JPG,,,,,,,,,1,6,16,3,,,,,,,,,,,,,,,AMNE20.jpg,AMNE12.jpg,AMSA19.jpg,AMSA06.jpg,AMSA19.jpg,MS,2,num_2,16,num_2,0.416880867444,,,2018_Jan_18_1848,60.0030792222,MAFE4ImagesEEG,001,102782,
AFNE01.JPG,AFNE01.JPG,AFNE01.JPG,AFNE01.JPG,AFNE01.JPG,AFNE01.JPG,,,,,,,,,1,7,17,4,,,,,,,,,,,,,,,AMSA16.jpg,AMNE10.jpg,AMSA12.jpg,AMNE19.jpg,AMSA16.jpg,MS,2,num_8,16,num_8,0.166830350645,,,2018_Jan_18_1848,60.0030792222,MAFE4ImagesEEG,001,102782,
AFNE01.JPG,AFNE01.JPG,AFNE01.JPG,AFNE01.JPG,AFNE01.JPG,AFNE01.JPG,,,,,,,,,1,8,18,7,,,,,,,,,,,,,,,AMNE16.jpg,AMNE04.jpg,AMSA14.jpg,AMSA05.jpg,AMSA14.jpg,MS,2,num_2,16,num_2,0.00021040532738,,,2018_Jan_18_1848,60.0030792222,MAFE4ImagesEEG,001,102782,
AFNE01.JPG,AFNE01.JPG,AFNE01.JPG,AFNE01.JPG,AFNE01.JPG,AFNE01.JPG,,,,,,,,,1,9,19,5,,,,,,,,,,,,,,,AMNE03.jpg,AMSA16.jpg,AMSA19.jpg,AMNE11.jpg,AMSA19.jpg,MS,2,num_2,32,num_6,0.466784805991,,,2018_Jan_18_1848,60.0030792222,MAFE4ImagesEEG,001,102782,
AFNE01.JPG,AFNE01.JPG,AFNE01.JPG,AFNE01.JPG,AFNE01.JPG,AFNE01.JPG,,,,,,,,,2,0,20,0,,,,,,,,,,,,,,,AMSA15.jpg,AMNE04.jpg,AMSA01.jpg,AMNE03.jpg,AMSA15.jpg,MS,2,num_8,32,num_4,0.266806936823,,,2018_Jan_18_1848,60.0030792222,MAFE4ImagesEEG,001,102782,
AFNE01.JPG,AFNE01.JPG,AFNE01.JPG,AFNE01.JPG,AFNE01.JPG,AFNE01.JPG,,,,,,,,,2,1,21,7,,,,,,,,,,,,,,,AMNE19.jpg,AMNE18.jpg,AMSA20.jpg,AMSA03.jpg,AMSA03.jpg,MS,2,num_4,32,num_6,1.38342191139,,,2018_Jan_18_1848,60.0030792222,MAFE4ImagesEEG,001,102782,
AFNE01.JPG,AFNE01.JPG,AFNE01.JPG,AFNE01.JPG,AFNE01.JPG,AFNE01.JPG,,,,,,,,,2,2,22,3,,,,,,,,,,,,,,,AMNE16.jpg,AMSA10.jpg,AMSA18.jpg,AMNE07.jpg,AMNE16.jpg,MN,1,num_8,16,num_8,0.500166784506,,,2018_Jan_18_1848,60.0030792222,MAFE4ImagesEEG,001,102782,
AFNE01.JPG,AFNE01.JPG,AFNE01.JPG,AFNE01.JPG,AFNE01.JPG,AFNE01.JPG,,,,,,,,,2,3,23,6,,,,,,,,,,,,,,,AMSA10.jpg,AMNE18.jpg,AMNE15.jpg,AMSA17.jpg,AMNE18.jpg,MN,1,num_6,16,num_6,0.850132305641,,,2018_Jan_18_1848,60.0030792222,MAFE4ImagesEEG,001,102782,
AFNE01.JPG,AFNE01.JPG,AFNE01.JPG,AFNE01.JPG,AFNE01.JPG,AFNE01.JPG,,,,,,,,,2,4,24,4,,,,,,,,,,,,,,,AMSA13.jpg,AMNE16.jpg,AMSA05.jpg,AMNE12.jpg,AMSA05.jpg,MS,2,num_2,16,num_2,0.400178331416,,,2018_Jan_18_1848,60.0030792222,MAFE4ImagesEEG,001,102782,
AFNE01.JPG,AFNE01.JPG,AFNE01.JPG,AFNE01.JPG,AFNE01.JPG,AFNE01.JPG,,,,,,,,,2,5,25,8,,,,,,,,,,,,,,,AMNE06.jpg,AMSA11.jpg,AMNE12.jpg,AMSA03.jpg,AMSA03.jpg,MS,2,num_4,32,num_8,0.450129739475,,,2018_Jan_18_1848,60.0030792222,MAFE4ImagesEEG,001,102782,
AFNE01.JPG,AFNE01.JPG,AFNE01.JPG,AFNE01.JPG,AFNE01.JPG,AFNE01.JPG,,,,,,,,,2,6,26,1,,,,,,,,,,,,,,,AMSA14.jpg,AMNE20.jpg,AMSA01.jpg,AMNE10.jpg,AMNE20.jpg,MN,1,num_6,32,num_4,0.333479163237,,,2018_Jan_18_1848,60.0030792222,MAFE4ImagesEEG,001,102782,
AFNE01.JPG,AFNE01.JPG,AFNE01.JPG,AFNE01.JPG,AFNE01.JPG,AFNE01.JPG,,,,,,,,,2,7,27,2,,,,,,,,,,,,,,,AMSA17.jpg,AMSA07.jpg,AMNE14.jpg,AMNE07.jpg,AMSA17.jpg,MS,2,num_8,16,num_8,0.5001523518,,,2018_Jan_18_1848,60.0030792222,MAFE4ImagesEEG,001,102782,
AFNE01.JPG,AFNE01.JPG,AFNE01.JPG,AFNE01.JPG,AFNE01.JPG,AFNE01.JPG,,,,,,,,,2,8,28,5,,,,,,,,,,,,,,,AMSA14.jpg,AMNE13.jpg,AMNE08.jpg,AMSA17.jpg,AMNE13.jpg,MN,1,num_6,16,num_6,0.500177048147,,,2018_Jan_18_1848,60.0030792222,MAFE4ImagesEEG,001,102782,
AFNE01.JPG,AFNE01.JPG,AFNE01.JPG,AFNE01.JPG,AFNE01.JPG,AFNE01.JPG,,,,,,,,,2,9,29,9,,,,,,,,,,,,,,,AMNE09.jpg,AMNE19.jpg,AMSA02.jpg,AMSA08.jpg,AMNE09.jpg,MN,1,num_8,32,num_2,0.983445645776,,,2018_Jan_18_1848,60.0030792222,MAFE4ImagesEEG,001,102782,
AFNE01.JPG,AFNE01.JPG,AFNE01.JPG,AFNE01.JPG,AFNE01.JPG,AFNE01.JPG,,,,,,,,,3,0,30,4,,,,,,,,,,,,,,,AMSA01.jpg,AMNE08.jpg,AMNE03.jpg,AMSA12.jpg,AMSA01.jpg,MS,2,num_8,16,num_8,0.866788334213,,,2018_Jan_18_1848,60.0030792222,MAFE4ImagesEEG,001,102782,
AFNE01.JPG,AFNE01.JPG,AFNE01.JPG,AFNE01.JPG,AFNE01.JPG,AFNE01.JPG,,,,,,,,,3,1,31,5,,,,,,,,,,,,,,,AMSA12.jpg,AMSA06.jpg,AMNE19.jpg,AMNE07.jpg,AMSA06.jpg,MS,2,num_6,16,num_6,0.650193566922,,,2018_Jan_18_1848,60.0030792222,MAFE4ImagesEEG,001,102782,
AFNE01.JPG,AFNE01.JPG,AFNE01.JPG,AFNE01.JPG,AFNE01.JPG,AFNE01.JPG,,,,,,,,,3,2,32,8,,,,,,,,,,,,,,,AMSA04.jpg,AMSA06.jpg,AMNE17.jpg,AMNE03.jpg,AMNE17.jpg,MN,1,num_2,16,num_2,0.883474191651,,,2018_Jan_18_1848,60.0030792222,MAFE4ImagesEEG,001,102782,
AFNE01.JPG,AFNE01.JPG,AFNE01.JPG,AFNE01.JPG,AFNE01.JPG,AFNE01.JPG,,,,,,,,,3,3,33,3,,,,,,,,,,,,,,,AMSA01.jpg,AMNE04.jpg,AMSA16.jpg,AMNE11.jpg,AMSA16.jpg,MS,2,num_2,16,num_2,0.550176567398,,,2018_Jan_18_1848,60.0030792222,MAFE4ImagesEEG,001,102782,
AFNE01.JPG,AFNE01.JPG,AFNE01.JPG,AFNE01.JPG,AFNE01.JPG,AFNE01.JPG,,,,,,,,,3,4,34,9,,,,,,,,,,,,,,,AMSA01.jpg,AMNE03.jpg,AMNE20.jpg,AMSA06.jpg,AMSA06.jpg,MS,2,num_4,16,num_4,0.933449975681,,,2018_Jan_18_1848,60.0030792222,MAFE4ImagesEEG,001,102782,
AFNE01.JPG,AFNE01.JPG,AFNE01.JPG,AFNE01.JPG,AFNE01.JPG,AFNE01.JPG,,,,,,,,,3,5,35,6,,,,,,,,,,,,,,,AMSA09.jpg,AMNE12.jpg,AMNE06.jpg,AMSA10.jpg,AMNE06.jpg,MN,1,num_2,16,num_2,0.983429288026,,,2018_Jan_18_1848,60.0030792222,MAFE4ImagesEEG,001,102782,
AFNE01.JPG,AFNE01.JPG,AFNE01.JPG,AFNE01.JPG,AFNE01.JPG,AFNE01.JPG,,,,,,,,,3,6,36,7,,,,,,,,,,,,,,,AMNE14.jpg,AMSA14.jpg,AMSA17.jpg,AMNE16.jpg,AMSA17.jpg,MS,2,num_2,16,num_2,0.683446287643,,,2018_Jan_18_1848,60.0030792222,MAFE4ImagesEEG,001,102782,
AFNE01.JPG,AFNE01.JPG,AFNE01.JPG,AFNE01.JPG,AFNE01.JPG,AFNE01.JPG,,,,,,,,,3,7,37,0,,,,,,,,,,,,,,,AMNE20.jpg,AMSA11.jpg,AMSA04.jpg,AMNE07.jpg,AMNE07.jpg,MN,1,num_4,16,num_4,0.616791381035,,,2018_Jan_18_1848,60.0030792222,MAFE4ImagesEEG,001,102782,
AFNE01.JPG,AFNE01.JPG,AFNE01.JPG,AFNE01.JPG,AFNE01.JPG,AFNE01.JPG,,,,,,,,,3,8,38,2,,,,,,,,,,,,,,,AMSA05.jpg,AMSA11.jpg,AMNE10.jpg,AMNE12.jpg,AMNE12.jpg,MN,1,num_4,16,num_4,1.18344757007,,,2018_Jan_18_1848,60.0030792222,MAFE4ImagesEEG,001,102782,
AFNE01.JPG,AFNE01.JPG,AFNE01.JPG,AFNE01.JPG,AFNE01.JPG,AFNE01.JPG,,,,,,,,,3,9,39,1,,,,,,,,,,,,,,,AMNE04.jpg,AMNE19.jpg,AMSA19.jpg,AMSA01.jpg,AMSA19.jpg,MS,2,num_2,16,num_2,0.91677566478,,,2018_Jan_18_1848,60.0030792222,MAFE4ImagesEEG,001,102782,
AFNE01.JPG,AFNE01.JPG,AFNE01.JPG,AFNE01.JPG,AFNE01.JPG,AFNE01.JPG,,,,,,,,,4,0,40,5,,,,,,,,,,,,,,,AMNE15.jpg,AMNE16.jpg,AMSA12.jpg,AMSA09.jpg,AMNE15.jpg,MN,1,num_8,32,num_6,0.900140163489,,,2018_Jan_18_1848,60.0030792222,MAFE4ImagesEEG,001,102782,
AFNE01.JPG,AFNE01.JPG,AFNE01.JPG,AFNE01.JPG,AFNE01.JPG,AFNE01.JPG,,,,,,,,,4,1,41,8,,,,,,,,,,,,,,,AMNE12.jpg,AMSA14.jpg,AMNE18.jpg,AMSA12.jpg,AMNE12.jpg,MN,1,num_8,16,num_8,0.550127173308,,,2018_Jan_18_1848,60.0030792222,MAFE4ImagesEEG,001,102782,
AFNE01.JPG,AFNE01.JPG,AFNE01.JPG,AFNE01.JPG,AFNE01.JPG,AFNE01.JPG,,,,,,,,,4,2,42,0,,,,,,,,,,,,,,,AMNE03.jpg,AMNE11.jpg,AMSA09.jpg,AMSA04.jpg,AMNE03.jpg,MN,1,num_8,16,num_8,0.600142408628,,,2018_Jan_18_1848,60.0030792222,MAFE4ImagesEEG,001,102782,
AFNE01.JPG,AFNE01.JPG,AFNE01.JPG,AFNE01.JPG,AFNE01.JPG,AFNE01.JPG,,,,,,,,,4,3,43,6,,,,,,,,,,,,,,,AMNE18.jpg,AMNE13.jpg,AMSA01.jpg,AMSA06.jpg,AMNE13.jpg,MN,1,num_6,16,num_6,0.766797956545,,,2018_Jan_18_1848,60.0030792222,MAFE4ImagesEEG,001,102782,
AFNE01.JPG,AFNE01.JPG,AFNE01.JPG,AFNE01.JPG,AFNE01.JPG,AFNE01.JPG,,,,,,,,,4,4,44,9,,,,,,,,,,,,,,,AMSA17.jpg,AMSA14.jpg,AMNE16.jpg,AMNE07.jpg,AMSA14.jpg,MS,2,num_6,16,num_6,0.666770051699,,,2018_Jan_18_1848,60.0030792222,MAFE4ImagesEEG,001,102782,
AFNE01.JPG,AFNE01.JPG,AFNE01.JPG,AFNE01.JPG,AFNE01.JPG,AFNE01.JPG,,,,,,,,,4,5,45,3,,,,,,,,,,,,,,,AMSA02.jpg,AMSA03.jpg,AMNE10.jpg,AMNE05.jpg,AMNE05.jpg,MN,1,num_4,16,num_4,0.533777130302,,,2018_Jan_18_1848,60.0030792222,MAFE4ImagesEEG,001,102782,
AFNE01.JPG,AFNE01.JPG,AFNE01.JPG,AFNE01.JPG,AFNE01.JPG,AFNE01.JPG,,,,,,,,,4,6,46,2,,,,,,,,,,,,,,,AMSA17.jpg,AMSA14.jpg,AMNE10.jpg,AMNE15.jpg,AMSA14.jpg,MS,2,num_6,16,num_6,0.683488625102,,,2018_Jan_18_1848,60.0030792222,MAFE4ImagesEEG,001,102782,
AFNE01.JPG,AFNE01.JPG,AFNE01.JPG,AFNE01.JPG,AFNE01.JPG,AFNE01.JPG,,,,,,,,,4,7,47,4,,,,,,,,,,,,,,,AMNE08.jpg,AMSA11.jpg,AMSA20.jpg,AMNE09.jpg,AMSA11.jpg,MS,2,num_6,16,num_6,0.666807578411,,,2018_Jan_18_1848,60.0030792222,MAFE4ImagesEEG,001,102782,
AFNE01.JPG,AFNE01.JPG,AFNE01.JPG,AFNE01.JPG,AFNE01.JPG,AFNE01.JPG,,,,,,,,,4,8,48,7,,,,,,,,,,,,,,,AMNE16.jpg,AMSA11.jpg,AMSA08.jpg,AMNE04.jpg,AMSA11.jpg,MS,2,num_6,16,num_6,0.850142568815,,,2018_Jan_18_1848,60.0030792222,MAFE4ImagesEEG,001,102782,
AFNE01.JPG,AFNE01.JPG,AFNE01.JPG,AFNE01.JPG,AFNE01.JPG,AFNE01.JPG,,,,,,,,,4,9,49,1,,,,,,,,,,,,,,,AMSA11.jpg,AMNE16.jpg,AMNE12.jpg,AMSA16.jpg,AMNE16.jpg,MN,1,num_6,16,num_6,0.666810785886,,,2018_Jan_18_1848,60.0030792222,MAFE4ImagesEEG,001,102782,
AFNE01.JPG,AFNE01.JPG,AFNE01.JPG,AFNE01.JPG,AFNE01.JPG,AFNE01.JPG,,,,,,,,,5,0,50,8,,,,,,,,,,,,,,,AMSA18.jpg,AMNE06.jpg,AMSA02.jpg,AMNE01.jpg,AMNE01.jpg,MN,1,num_4,32,num_8,0.316809663083,,,2018_Jan_18_1848,60.0030792222,MAFE4ImagesEEG,001,102782,
AFNE01.JPG,AFNE01.JPG,AFNE01.JPG,AFNE01.JPG,AFNE01.JPG,AFNE01.JPG,,,,,,,,,5,1,51,7,,,,,,,,,,,,,,,AMNE19.jpg,AMSA06.jpg,AMSA19.jpg,AMNE09.jpg,AMNE09.jpg,MN,1,num_4,32,num_6,0.2668415769,,,2018_Jan_18_1848,60.0030792222,MAFE4ImagesEEG,001,102782,
AFNE01.JPG,AFNE01.JPG,AFNE01.JPG,AFNE01.JPG,AFNE01.JPG,AFNE01.JPG,,,,,,,,,5,2,52,9,,,,,,,,,,,,,,,AMSA12.jpg,AMNE02.jpg,AMNE03.jpg,AMSA17.jpg,AMSA12.jpg,MS,2,num_8,16,num_8,0.283477719873,,,2018_Jan_18_1848,60.0030792222,MAFE4ImagesEEG,001,102782,
AFNE01.JPG,AFNE01.JPG,AFNE01.JPG,AFNE01.JPG,AFNE01.JPG,AFNE01.JPG,,,,,,,,,5,3,53,4,,,,,,,,,,,,,,,AMSA06.jpg,AMNE20.jpg,AMSA08.jpg,AMNE14.jpg,AMNE20.jpg,MN,1,num_6,32,num_8,0.666812389623,,,2018_Jan_18_1848,60.0030792222,MAFE4ImagesEEG,001,102782,
AFNE01.JPG,AFNE01.JPG,AFNE01.JPG,AFNE01.JPG,AFNE01.JPG,AFNE01.JPG,,,,,,,,,5,4,54,2,,,,,,,,,,,,,,,AMNE09.jpg,AMSA01.jpg,AMNE17.jpg,AMSA15.jpg,AMSA15.jpg,MS,2,num_4,32,num_8,0.466804050375,,,2018_Jan_18_1848,60.0030792222,MAFE4ImagesEEG,001,102782,
AFNE01.JPG,AFNE01.JPG,AFNE01.JPG,AFNE01.JPG,AFNE01.JPG,AFNE01.JPG,,,,,,,,,5,5,55,1,,,,,,,,,,,,,,,AMNE01.jpg,AMSA15.jpg,AMSA12.jpg,AMNE16.jpg,AMNE01.jpg,MN,1,num_8,32,num_2,0.316773419268,,,2018_Jan_18_1848,60.0030792222,MAFE4ImagesEEG,001,102782,
AFNE01.JPG,AFNE01.JPG,AFNE01.JPG,AFNE01.JPG,AFNE01.JPG,AFNE01.JPG,,,,,,,,,5,6,56,5,,,,,,,,,,,,,,,AMSA06.jpg,AMSA09.jpg,AMNE10.jpg,AMNE09.jpg,AMSA09.jpg,MS,2,num_6,16,num_6,0.450134229381,,,2018_Jan_18_1848,60.0030792222,MAFE4ImagesEEG,001,102782,
AFNE01.JPG,AFNE01.JPG,AFNE01.JPG,AFNE01.JPG,AFNE01.JPG,AFNE01.JPG,,,,,,,,,5,7,57,6,,,,,,,,,,,,,,,AMNE11.jpg,AMSA15.jpg,AMSA11.jpg,AMNE16.jpg,AMSA11.jpg,MS,2,num_2,32,num_6,0.716766363475,,,2018_Jan_18_1848,60.0030792222,MAFE4ImagesEEG,001,102782,
AFNE01.JPG,AFNE01.JPG,AFNE01.JPG,AFNE01.JPG,AFNE01.JPG,AFNE01.JPG,,,,,,,,,5,8,58,3,,,,,,,,,,,,,,,AMSA10.jpg,AMNE03.jpg,AMSA04.jpg,AMNE08.jpg,AMSA04.jpg,MS,2,num_2,32,num_6,0.700099749956,,,2018_Jan_18_1848,60.0030792222,MAFE4ImagesEEG,001,102782,
AFNE01.JPG,AFNE01.JPG,AFNE01.JPG,AFNE01.JPG,AFNE01.JPG,AFNE01.JPG,,,,,,,,,5,9,59,0,,,,,,,,,,,,,,,AMSA19.jpg,AMSA04.jpg,AMNE13.jpg,AMNE03.jpg,AMSA04.jpg,MS,2,num_6,16,num_6,0.700173840858,,,2018_Jan_18_1848,60.0030792222,MAFE4ImagesEEG,001,102782,
,,,,,,,,,,,,,,,,,,,,,,,,,,,,,,,,,,,,,,,,,,,space,2.71661882335,2018_Jan_18_1848,60.0030792222,MAFE4ImagesEEG,001,102782,
AFNE01.JPG,AFNE01.JPG,AFNE01.JPG,AFNE01.JPG,AFNE01.JPG,AFNE01.JPG,,,,,,,,,,,,,0,0,0,2,,,,,,,,,,,AFNE15.jpg,AFSA07.jpg,AFSA04.jpg,AFNE19.jpg,AFSA04.jpg,FS,4,num_2,32,num_8,1.06671841256,,,2018_Jan_18_1848,60.0030792222,MAFE4ImagesEEG,001,102782,
AFNE01.JPG,AFNE01.JPG,AFNE01.JPG,AFNE01.JPG,AFNE01.JPG,AFNE01.JPG,,,,,,,,,,,,,0,1,1,3,,,,,,,,,,,AFNE17.jpg,AFNE05.jpg,AFSA13.jpg,AFSA07.jpg,AFNE05.jpg,FN,3,num_6,16,num_6,0.800136955921,,,2018_Jan_18_1848,60.0030792222,MAFE4ImagesEEG,001,102782,
AFNE01.JPG,AFNE01.JPG,AFNE01.JPG,AFNE01.JPG,AFNE01.JPG,AFNE01.JPG,,,,,,,,,,,,,0,2,2,7,,,,,,,,,,,AFSA18.jpg,AFNE13.jpg,AFSA13.jpg,AFNE08.jpg,AFSA13.jpg,FS,4,num_2,32,num_6,0.700156521518,,,2018_Jan_18_1848,60.0030792222,MAFE4ImagesEEG,001,102782,
AFNE01.JPG,AFNE01.JPG,AFNE01.JPG,AFNE01.JPG,AFNE01.JPG,AFNE01.JPG,,,,,,,,,,,,,0,3,3,8,,,,,,,,,,,AFSA13.jpg,AFNE04.jpg,AFNE09.jpg,AFSA02.jpg,AFNE04.jpg,FN,3,num_6,32,num_8,1.45004602615,,,2018_Jan_18_1848,60.0030792222,MAFE4ImagesEEG,001,102782,
AFNE01.JPG,AFNE01.JPG,AFNE01.JPG,AFNE01.JPG,AFNE01.JPG,AFNE01.JPG,,,,,,,,,,,,,0,4,4,9,,,,,,,,,,,AFNE14.jpg,AFSA07.jpg,AFSA01.jpg,AFNE13.jpg,AFNE14.jpg,FN,3,num_8,32,num_6,0.533529519103,,,2018_Jan_18_1848,60.0030792222,MAFE4ImagesEEG,001,102782,
AFNE01.JPG,AFNE01.JPG,AFNE01.JPG,AFNE01.JPG,AFNE01.JPG,AFNE01.JPG,,,,,,,,,,,,,0,5,5,0,,,,,,,,,,,AFSA09.jpg,AFNE01.jpg,AFNE20.jpg,AFSA08.jpg,AFSA09.jpg,FS,4,num_8,16,num_8,0.666768769268,,,2018_Jan_18_1848,60.0030792222,MAFE4ImagesEEG,001,102782,
AFNE01.JPG,AFNE01.JPG,AFNE01.JPG,AFNE01.JPG,AFNE01.JPG,AFNE01.JPG,,,,,,,,,,,,,0,6,6,1,,,,,,,,,,,AFNE05.jpg,AFNE18.jpg,AFSA10.jpg,AFSA17.jpg,AFNE18.jpg,FN,3,num_6,32,num_8,0.333494558465,,,2018_Jan_18_1848,60.0030792222,MAFE4ImagesEEG,001,102782,
AFNE01.JPG,AFNE01.JPG,AFNE01.JPG,AFNE01.JPG,AFNE01.JPG,AFNE01.JPG,,,,,,,,,,,,,0,7,7,5,,,,,,,,,,,AFNE16.jpg,AFNE18.jpg,AFSA18.jpg,AFSA16.jpg,AFNE16.jpg,FN,3,num_8,32,num_6,0.300172237214,,,2018_Jan_18_1848,60.0030792222,MAFE4ImagesEEG,001,102782,
AFNE01.JPG,AFNE01.JPG,AFNE01.JPG,AFNE01.JPG,AFNE01.JPG,AFNE01.JPG,,,,,,,,,,,,,0,8,8,4,,,,,,,,,,,AFSA03.jpg,AFNE12.jpg,AFSA18.jpg,AFNE07.jpg,AFSA03.jpg,FS,4,num_8,16,num_8,0.366792824119,,,2018_Jan_18_1848,60.0030792222,MAFE4ImagesEEG,001,102782,
AFNE01.JPG,AFNE01.JPG,AFNE01.JPG,AFNE01.JPG,AFNE01.JPG,AFNE01.JPG,,,,,,,,,,,,,0,9,9,6,,,,,,,,,,,AFSA01.jpg,AFNE18.jpg,AFSA05.jpg,AFNE12.jpg,AFNE12.jpg,FN,3,num_4,32,num_6,4.96632646862,,,2018_Jan_18_1848,60.0030792222,MAFE4ImagesEEG,001,102782,
AFNE01.JPG,AFNE01.JPG,AFNE01.JPG,AFNE01.JPG,AFNE01.JPG,AFNE01.JPG,,,,,,,,,,,,,1,0,10,6,,,,,,,,,,,AFSA19.jpg,AFNE05.jpg,AFSA09.jpg,AFNE09.jpg,AFSA09.jpg,FS,4,num_2,16,num_2,0.616844944656,,,2018_Jan_18_1848,60.0030792222,MAFE4ImagesEEG,001,102782,
AFNE01.JPG,AFNE01.JPG,AFNE01.JPG,AFNE01.JPG,AFNE01.JPG,AFNE01.JPG,,,,,,,,,,,,,1,1,11,2,,,,,,,,,,,AFNE12.jpg,AFSA18.jpg,AFNE17.jpg,AFSA16.jpg,AFSA18.jpg,FS,4,num_6,16,num_6,0.783443079796,,,2018_Jan_18_1848,60.0030792222,MAFE4ImagesEEG,001,102782,
AFNE01.JPG,AFNE01.JPG,AFNE01.JPG,AFNE01.JPG,AFNE01.JPG,AFNE01.JPG,,,,,,,,,,,,,1,2,12,8,,,,,,,,,,,AFNE05.jpg,AFNE14.jpg,AFSA01.jpg,AFSA16.jpg,AFSA16.jpg,FS,4,num_4,32,num_2,0.600159407593,,,2018_Jan_18_1848,60.0030792222,MAFE4ImagesEEG,001,102782,
AFNE01.JPG,AFNE01.JPG,AFNE01.JPG,AFNE01.JPG,AFNE01.JPG,AFNE01.JPG,,,,,,,,,,,,,1,3,13,0,,,,,,,,,,,AFNE06.jpg,AFSA10.jpg,AFNE10.jpg,AFSA06.jpg,AFNE06.jpg,FN,3,num_8,16,num_8,0.500160049181,,,2018_Jan_18_1848,60.0030792222,MAFE4ImagesEEG,001,102782,
AFNE01.JPG,AFNE01.JPG,AFNE01.JPG,AFNE01.JPG,AFNE01.JPG,AFNE01.JPG,,,,,,,,,,,,,1,4,14,5,,,,,,,,,,,AFNE12.jpg,AFSA08.jpg,AFNE16.jpg,AFSA02.jpg,AFSA08.jpg,FS,4,num_6,16,num_6,0.466768448241,,,2018_Jan_18_1848,60.0030792222,MAFE4ImagesEEG,001,102782,
AFNE01.JPG,AFNE01.JPG,AFNE01.JPG,AFNE01.JPG,AFNE01.JPG,AFNE01.JPG,,,,,,,,,,,,,1,5,15,7,,,,,,,,,,,AFNE07.jpg,AFSA02.jpg,AFSA05.jpg,AFNE17.jpg,AFSA05.jpg,FS,4,num_2,32,num_6,1.00008627912,,,2018_Jan_18_1848,60.0030792222,MAFE4ImagesEEG,001,102782,
AFNE01.JPG,AFNE01.JPG,AFNE01.JPG,AFNE01.JPG,AFNE01.JPG,AFNE01.JPG,,,,,,,,,,,,,1,6,16,9,,,,,,,,,,,AFNE06.jpg,AFSA17.jpg,AFNE16.jpg,AFSA16.jpg,AFSA16.jpg,FS,4,num_4,32,num_2,0.516841737088,,,2018_Jan_18_1848,60.0030792222,MAFE4ImagesEEG,001,102782,
AFNE01.JPG,AFNE01.JPG,AFNE01.JPG,AFNE01.JPG,AFNE01.JPG,AFNE01.JPG,,,,,,,,,,,,,1,7,17,1,,,,,,,,,,,AFSA08.jpg,AFSA14.jpg,AFNE08.jpg,AFNE06.jpg,AFNE08.jpg,FN,3,num_2,16,num_2,0.616815757006,,,2018_Jan_18_1848,60.0030792222,MAFE4ImagesEEG,001,102782,
AFNE01.JPG,AFNE01.JPG,AFNE01.JPG,AFNE01.JPG,AFNE01.JPG,AFNE01.JPG,,,,,,,,,,,,,1,8,18,3,,,,,,,,,,,AFSA10.jpg,AFSA17.jpg,AFNE19.jpg,AFNE18.jpg,AFNE18.jpg,FN,3,num_4,16,num_4,0.516842057928,,,2018_Jan_18_1848,60.0030792222,MAFE4ImagesEEG,001,102782,
AFNE01.JPG,AFNE01.JPG,AFNE01.JPG,AFNE01.JPG,AFNE01.JPG,AFNE01.JPG,,,,,,,,,,,,,1,9,19,4,,,,,,,,,,,AFNE10.jpg,AFNE04.jpg,AFSA14.jpg,AFSA06.jpg,AFSA14.jpg,FS,4,num_2,16,num_2,0.600135351997,,,2018_Jan_18_1848,60.0030792222,MAFE4ImagesEEG,001,102782,
AFNE01.JPG,AFNE01.JPG,AFNE01.JPG,AFNE01.JPG,AFNE01.JPG,AFNE01.JPG,,,,,,,,,,,,,2,0,20,1,,,,,,,,,,,AFSA14.jpg,AFNE06.jpg,AFNE13.jpg,AFSA13.jpg,AFSA14.jpg,FS,4,num_8,16,num_8,1.10007216642,,,2018_Jan_18_1848,60.0030792222,MAFE4ImagesEEG,001,102782,
AFNE01.JPG,AFNE01.JPG,AFNE01.JPG,AFNE01.JPG,AFNE01.JPG,AFNE01.JPG,,,,,,,,,,,,,2,1,21,0,,,,,,,,,,,AFSA12.jpg,AFNE06.jpg,AFNE18.jpg,AFSA14.jpg,AFNE18.jpg,FN,3,num_2,32,num_6,0.550142248161,,,2018_Jan_18_1848,60.0030792222,MAFE4ImagesEEG,001,102782,
AFNE01.JPG,AFNE01.JPG,AFNE01.JPG,AFNE01.JPG,AFNE01.JPG,AFNE01.JPG,,,,,,,,,,,,,2,2,22,8,,,,,,,,,,,AFNE11.jpg,AFSA05.jpg,AFSA17.jpg,AFNE17.jpg,AFSA05.jpg,FS,4,num_6,16,num_6,0.483466814272,,,2018_Jan_18_1848,60.0030792222,MAFE4ImagesEEG,001,102782,
AFNE01.JPG,AFNE01.JPG,AFNE01.JPG,AFNE01.JPG,AFNE01.JPG,AFNE01.JPG,,,,,,,,,,,,,2,3,23,5,,,,,,,,,,,AFSA04.jpg,AFNE20.jpg,AFSA18.jpg,AFNE12.jpg,AFNE20.jpg,FN,3,num_6,32,num_2,0.450100552291,,,2018_Jan_18_1848,60.0030792222,MAFE4ImagesEEG,001,102782,
AFNE01.JPG,AFNE01.JPG,AFNE01.JPG,AFNE01.JPG,AFNE01.JPG,AFNE01.JPG,,,,,,,,,,,,,2,4,24,9,,,,,,,,,,,AFSA01.jpg,AFNE20.jpg,AFSA16.jpg,AFNE19.jpg,AFSA01.jpg,FS,4,num_8,32,num_6,0.46681110654,,,2018_Jan_18_1848,60.0030792222,MAFE4ImagesEEG,001,102782,
AFNE01.JPG,AFNE01.JPG,AFNE01.JPG,AFNE01.JPG,AFNE01.JPG,AFNE01.JPG,,,,,,,,,,,,,2,5,25,7,,,,,,,,,,,AFNE20.jpg,AFSA18.jpg,AFSA15.jpg,AFNE06.jpg,AFSA15.jpg,FS,4,num_2,32,num_6,0.366878141183,,,2018_Jan_18_1848,60.0030792222,MAFE4ImagesEEG,001,102782,
AFNE01.JPG,AFNE01.JPG,AFNE01.JPG,AFNE01.JPG,AFNE01.JPG,AFNE01.JPG,,,,,,,,,,,,,2,6,26,4,,,,,,,,,,,AFNE20.jpg,AFSA19.jpg,AFSA18.jpg,AFNE02.jpg,AFSA19.jpg,FS,4,num_6,32,num_8,0.433534651063,,,2018_Jan_18_1848,60.0030792222,MAFE4ImagesEEG,001,102782,
AFNE01.JPG,AFNE01.JPG,AFNE01.JPG,AFNE01.JPG,AFNE01.JPG,AFNE01.JPG,,,,,,,,,,,,,2,7,27,6,,,,,,,,,,,AFSA10.jpg,AFNE20.jpg,AFNE08.jpg,AFSA15.jpg,AFSA15.jpg,FS,4,num_4,32,num_6,0.200128295925,,,2018_Jan_18_1848,60.0030792222,MAFE4ImagesEEG,001,102782,
AFNE01.JPG,AFNE01.JPG,AFNE01.JPG,AFNE01.JPG,AFNE01.JPG,AFNE01.JPG,,,,,,,,,,,,,2,8,28,3,,,,,,,,,,,AFNE16.jpg,AFSA01.jpg,AFSA08.jpg,AFNE15.jpg,AFNE15.jpg,FN,3,num_4,32,num_8,0.350086439401,,,2018_Jan_18_1848,60.0030792222,MAFE4ImagesEEG,001,102782,
AFNE01.JPG,AFNE01.JPG,AFNE01.JPG,AFNE01.JPG,AFNE01.JPG,AFNE01.JPG,,,,,,,,,,,,,2,9,29,2,,,,,,,,,,,AFNE16.jpg,AFNE08.jpg,AFSA09.jpg,AFSA04.jpg,AFNE16.jpg,FN,3,num_8,32,num_6,0.233551650308,,,2018_Jan_18_1848,60.0030792222,MAFE4ImagesEEG,001,102782,
AFNE01.JPG,AFNE01.JPG,AFNE01.JPG,AFNE01.JPG,AFNE01.JPG,AFNE01.JPG,,,,,,,,,,,,,3,0,30,3,,,,,,,,,,,AFSA13.jpg,AFNE02.jpg,AFNE12.jpg,AFSA04.jpg,AFNE12.jpg,FN,3,num_2,32,num_6,0.683483493049,,,2018_Jan_18_1848,60.0030792222,MAFE4ImagesEEG,001,102782,
AFNE01.JPG,AFNE01.JPG,AFNE01.JPG,AFNE01.JPG,AFNE01.JPG,AFNE01.JPG,,,,,,,,,,,,,3,1,31,7,,,,,,,,,,,AFNE05.jpg,AFNE09.jpg,AFSA18.jpg,AFSA20.jpg,AFSA20.jpg,FS,4,num_4,32,num_8,0.266837727744,,,2018_Jan_18_1848,60.0030792222,MAFE4ImagesEEG,001,102782,
AFNE01.JPG,AFNE01.JPG,AFNE01.JPG,AFNE01.JPG,AFNE01.JPG,AFNE01.JPG,,,,,,,,,,,,,3,2,32,4,,,,,,,,,,,AFNE05.jpg,AFNE01.jpg,AFSA20.jpg,AFSA10.jpg,AFSA10.jpg,FS,4,num_4,32,num_6,0.633471144363,,,2018_Jan_18_1848,60.0030792222,MAFE4ImagesEEG,001,102782,
AFNE01.JPG,AFNE01.JPG,AFNE01.JPG,AFNE01.JPG,AFNE01.JPG,AFNE01.JPG,,,,,,,,,,,,,3,3,33,1,,,,,,,,,,,AFSA11.jpg,AFNE19.jpg,AFSA18.jpg,AFNE08.jpg,AFSA11.jpg,FS,4,num_8,16,num_8,0.333529198542,,,2018_Jan_18_1848,60.0030792222,MAFE4ImagesEEG,001,102782,
AFNE01.JPG,AFNE01.JPG,AFNE01.JPG,AFNE01.JPG,AFNE01.JPG,AFNE01.JPG,,,,,,,,,,,,,3,4,34,9,,,,,,,,,,,AFNE20.jpg,AFSA15.jpg,AFSA03.jpg,AFNE03.jpg,AFSA15.jpg,FS,4,num_6,16,num_6,0.35018875543,,,2018_Jan_18_1848,60.0030792222,MAFE4ImagesEEG,001,102782,
AFNE01.JPG,AFNE01.JPG,AFNE01.JPG,AFNE01.JPG,AFNE01.JPG,AFNE01.JPG,,,,,,,,,,,,,3,5,35,0,,,,,,,,,,,AFNE04.jpg,AFNE10.jpg,AFSA20.jpg,AFSA13.jpg,AFNE04.jpg,FN,3,num_8,32,num_6,0.616656670347,,,2018_Jan_18_1848,60.0030792222,MAFE4ImagesEEG,001,102782,
AFNE01.JPG,AFNE01.JPG,AFNE01.JPG,AFNE01.JPG,AFNE01.JPG,AFNE01.JPG,,,,,,,,,,,,,3,6,36,2,,,,,,,,,,,AFNE13.jpg,AFNE19.jpg,AFSA10.jpg,AFSA14.jpg,AFNE13.jpg,FN,3,num_8,32,num_6,0.500115466304,,,2018_Jan_18_1848,60.0030792222,MAFE4ImagesEEG,001,102782,
AFNE01.JPG,AFNE01.JPG,AFNE01.JPG,AFNE01.JPG,AFNE01.JPG,AFNE01.JPG,,,,,,,,,,,,,3,7,37,5,,,,,,,,,,,AFNE12.jpg,AFSA20.jpg,AFSA09.jpg,AFNE11.jpg,AFNE11.jpg,FN,3,num_4,32,num_6,0.316800361965,,,2018_Jan_18_1848,60.0030792222,MAFE4ImagesEEG,001,102782,
AFNE01.JPG,AFNE01.JPG,AFNE01.JPG,AFNE01.JPG,AFNE01.JPG,AFNE01.JPG,,,,,,,,,,,,,3,8,38,8,,,,,,,,,,,AFSA12.jpg,AFNE05.jpg,AFSA08.jpg,AFNE16.jpg,AFNE16.jpg,FN,3,num_4,32,num_2,1.18346232409,,,2018_Jan_18_1848,60.0030792222,MAFE4ImagesEEG,001,102782,
AFNE01.JPG,AFNE01.JPG,AFNE01.JPG,AFNE01.JPG,AFNE01.JPG,AFNE01.JPG,,,,,,,,,,,,,3,9,39,6,,,,,,,,,,,AFSA14.jpg,AFNE06.jpg,AFNE18.jpg,AFSA17.jpg,AFNE06.jpg,FN,3,num_6,16,num_6,0.666814955417,,,2018_Jan_18_1848,60.0030792222,MAFE4ImagesEEG,001,102782,
AFNE01.JPG,AFNE01.JPG,AFNE01.JPG,AFNE01.JPG,AFNE01.JPG,AFNE01.JPG,,,,,,,,,,,,,4,0,40,5,,,,,,,,,,,AFSA18.jpg,AFSA04.jpg,AFNE02.jpg,AFNE10.jpg,AFNE10.jpg,FN,3,num_4,32,num_6,0.333482049406,,,2018_Jan_18_1848,60.0030792222,MAFE4ImagesEEG,001,102782,
AFNE01.JPG,AFNE01.JPG,AFNE01.JPG,AFNE01.JPG,AFNE01.JPG,AFNE01.JPG,,,,,,,,,,,,,4,1,41,6,,,,,,,,,,,AFNE19.jpg,AFSA12.jpg,AFSA20.jpg,AFNE11.jpg,AFNE11.jpg,FN,3,num_4,16,num_4,0.333507388365,,,2018_Jan_18_1848,60.0030792222,MAFE4ImagesEEG,001,102782,
AFNE01.JPG,AFNE01.JPG,AFNE01.JPG,AFNE01.JPG,AFNE01.JPG,AFNE01.JPG,,,,,,,,,,,,,4,2,42,3,,,,,,,,,,,AFSA20.jpg,AFNE20.jpg,AFNE10.jpg,AFSA10.jpg,AFSA20.jpg,FS,4,num_8,16,num_8,1.0501438519,,,2018_Jan_18_1848,60.0030792222,MAFE4ImagesEEG,001,102782,
AFNE01.JPG,AFNE01.JPG,AFNE01.JPG,AFNE01.JPG,AFNE01.JPG,AFNE01.JPG,,,,,,,,,,,,,4,3,43,7,,,,,,,,,,,AFSA10.jpg,AFNE08.jpg,AFSA08.jpg,AFNE17.jpg,AFSA08.jpg,FS,4,num_2,16,num_2,0.933448372409,,,2018_Jan_18_1848,60.0030792222,MAFE4ImagesEEG,001,102782,
AFNE01.JPG,AFNE01.JPG,AFNE01.JPG,AFNE01.JPG,AFNE01.JPG,AFNE01.JPG,,,,,,,,,,,,,4,4,44,1,,,,,,,,,,,AFNE03.jpg,AFSA15.jpg,AFSA16.jpg,AFNE05.jpg,AFNE05.jpg,FN,3,num_4,32,num_2,0.883454626426,,,2018_Jan_18_1848,60.0030792222,MAFE4ImagesEEG,001,102782,
AFNE01.JPG,AFNE01.JPG,AFNE01.JPG,AFNE01.JPG,AFNE01.JPG,AFNE01.JPG,,,,,,,,,,,,,4,5,45,4,,,,,,,,,,,AFNE17.jpg,AFSA09.jpg,AFSA05.jpg,AFNE10.jpg,AFSA09.jpg,FS,4,num_6,16,num_6,0.766757221892,,,2018_Jan_18_1848,60.0030792222,MAFE4ImagesEEG,001,102782,
AFNE01.JPG,AFNE01.JPG,AFNE01.JPG,AFNE01.JPG,AFNE01.JPG,AFNE01.JPG,,,,,,,,,,,,,4,6,46,9,,,,,,,,,,,AFSA19.jpg,AFNE10.jpg,AFNE13.jpg,AFSA15.jpg,AFSA15.jpg,FS,4,num_4,32,num_6,0.683488945942,,,2018_Jan_18_1848,60.0030792222,MAFE4ImagesEEG,001,102782,
AFNE01.JPG,AFNE01.JPG,AFNE01.JPG,AFNE01.JPG,AFNE01.JPG,AFNE01.JPG,,,,,,,,,,,,,4,7,47,8,,,,,,,,,,,AFSA08.jpg,AFNE13.jpg,AFSA17.jpg,AFNE19.jpg,AFNE13.jpg,FN,3,num_6,32,num_4,0.233365620952,,,2018_Jan_18_1848,60.0030792222,MAFE4ImagesEEG,001,102782,
AFNE01.JPG,AFNE01.JPG,AFNE01.JPG,AFNE01.JPG,AFNE01.JPG,AFNE01.JPG,,,,,,,,,,,,,4,8,48,0,,,,,,,,,,,AFNE05.jpg,AFSA14.jpg,AFSA04.jpg,AFNE16.jpg,AFSA04.jpg,FS,4,num_2,16,num_2,0.766775825527,,,2018_Jan_18_1848,60.0030792222,MAFE4ImagesEEG,001,102782,
AFNE01.JPG,AFNE01.JPG,AFNE01.JPG,AFNE01.JPG,AFNE01.JPG,AFNE01.JPG,,,,,,,,,,,,,4,9,49,2,,,,,,,,,,,AFSA08.jpg,AFNE15.jpg,AFNE13.jpg,AFSA04.jpg,AFNE13.jpg,FN,3,num_2,32,num_6,0.666783843655,,,2018_Jan_18_1848,60.0030792222,MAFE4ImagesEEG,001,102782,
AFNE01.JPG,AFNE01.JPG,AFNE01.JPG,AFNE01.JPG,AFNE01.JPG,AFNE01.JPG,,,,,,,,,,,,,5,0,50,3,,,,,,,,,,,AFSA15.jpg,AFNE07.jpg,AFNE14.jpg,AFSA10.jpg,AFSA10.jpg,FS,4,num_4,32,num_6,0.400186670944,,,2018_Jan_18_1848,60.0030792222,MAFE4ImagesEEG,001,102782,
AFNE01.JPG,AFNE01.JPG,AFNE01.JPG,AFNE01.JPG,AFNE01.JPG,AFNE01.JPG,,,,,,,,,,,,,5,1,51,4,,,,,,,,,,,AFSA14.jpg,AFSA16.jpg,AFNE08.jpg,AFNE14.jpg,AFSA16.jpg,FS,4,num_6,16,num_6,0.333513482474,,,2018_Jan_18_1848,60.0030792222,MAFE4ImagesEEG,001,102782,
AFNE01.JPG,AFNE01.JPG,AFNE01.JPG,AFNE01.JPG,AFNE01.JPG,AFNE01.JPG,,,,,,,,,,,,,5,2,52,0,,,,,,,,,,,AFNE20.jpg,AFSA11.jpg,AFSA12.jpg,AFNE18.jpg,AFNE18.jpg,FN,3,num_4,32,num_8,0.933468578849,,,2018_Jan_18_1848,60.0030792222,MAFE4ImagesEEG,001,102782,
AFNE01.JPG,AFNE01.JPG,AFNE01.JPG,AFNE01.JPG,AFNE01.JPG,AFNE01.JPG,,,,,,,,,,,,,5,3,53,2,,,,,,,,,,,AFSA12.jpg,AFNE12.jpg,AFSA16.jpg,AFNE01.jpg,AFNE01.jpg,FN,3,num_4,32,num_8,0.383479323238,,,2018_Jan_18_1848,60.0030792222,MAFE4ImagesEEG,001,102782,
AFNE01.JPG,AFNE01.JPG,AFNE01.JPG,AFNE01.JPG,AFNE01.JPG,AFNE01.JPG,,,,,,,,,,,,,5,4,54,8,,,,,,,,,,,AFNE04.jpg,AFSA02.jpg,AFSA11.jpg,AFNE11.jpg,AFNE04.jpg,FN,3,num_8,32,num_2,0.383495039772,,,2018_Jan_18_1848,60.0030792222,MAFE4ImagesEEG,001,102782,
AFNE01.JPG,AFNE01.JPG,AFNE01.JPG,AFNE01.JPG,AFNE01.JPG,AFNE01.JPG,,,,,,,,,,,,,5,5,55,1,,,,,,,,,,,AFSA15.jpg,AFNE15.jpg,AFNE03.jpg,AFSA11.jpg,AFSA11.jpg,FS,4,num_4,32,num_6,0.383546678815,,,2018_Jan_18_1848,60.0030792222,MAFE4ImagesEEG,001,102782,
AFNE01.JPG,AFNE01.JPG,AFNE01.JPG,AFNE01.JPG,AFNE01.JPG,AFNE01.JPG,,,,,,,,,,,,,5,6,56,9,,,,,,,,,,,AFNE02.jpg,AFSA11.jpg,AFSA07.jpg,AFNE14.jpg,AFNE14.jpg,FN,3,num_4,32,num_6,1.05010215566,,,2018_Jan_18_1848,60.0030792222,MAFE4ImagesEEG,001,102782,
AFNE01.JPG,AFNE01.JPG,AFNE01.JPG,AFNE01.JPG,AFNE01.JPG,AFNE01.JPG,,,,,,,,,,,,,5,7,57,5,,,,,,,,,,,AFNE15.jpg,AFSA20.jpg,AFNE02.jpg,AFSA17.jpg,AFSA17.jpg,FS,4,num_4,32,num_6,0.783530320972,,,2018_Jan_18_1848,60.0030792222,MAFE4ImagesEEG,001,102782,
AFNE01.JPG,AFNE01.JPG,AFNE01.JPG,AFNE01.JPG,AFNE01.JPG,AFNE01.JPG,,,,,,,,,,,,,5,8,58,6,,,,,,,,,,,AFNE08.jpg,AFNE13.jpg,AFSA06.jpg,AFSA20.jpg,AFNE13.jpg,FN,3,num_6,16,num_6,0.650134229567,,,2018_Jan_18_1848,60.0030792222,MAFE4ImagesEEG,001,102782,
AFNE01.JPG,AFNE01.JPG,AFNE01.JPG,AFNE01.JPG,AFNE01.JPG,AFNE01.JPG,,,,,,,,,,,,,5,9,59,7,,,,,,,,,,,AFNE19.jpg,AFNE14.jpg,AFSA04.jpg,AFSA07.jpg,AFSA07.jpg,FS,4,num_4,32,num_6,0.683458796237,,,2018_Jan_18_1848,60.0030792222,MAFE4ImagesEEG,001,102782,
,,,,,,,,,,,,,,,,,,,,,,,,,,,,,,,,,,,,,,,,,,,space,15.8819772983,2018_Jan_18_1848,60.0030792222,MAFE4ImagesEEG,001,102782,
AFNE01.JPG,AFNE01.JPG,AFNE01.JPG,AFNE01.JPG,AFNE01.JPG,AFNE01.JPG,,,,,,,,,,,,,,,,,0,0,0,2,,,,,,,AMSA17.jpg,AMNE01.jpg,AMSA12.jpg,AMNE03.jpg,AMNE01.jpg,MN,1,num_6,32,num_8,1.88339400664,,,2018_Jan_18_1848,60.0030792222,MAFE4ImagesEEG,001,102782,
AFNE01.JPG,AFNE01.JPG,AFNE01.JPG,AFNE01.JPG,AFNE01.JPG,AFNE01.JPG,,,,,,,,,,,,,,,,,0,1,1,8,,,,,,,AMNE15.jpg,AMSA15.jpg,AMSA16.jpg,AMNE20.jpg,AMNE15.jpg,MN,1,num_8,32,num_6,0.283605053555,,,2018_Jan_18_1848,60.0030792222,MAFE4ImagesEEG,001,102782,
AFNE01.JPG,AFNE01.JPG,AFNE01.JPG,AFNE01.JPG,AFNE01.JPG,AFNE01.JPG,,,,,,,,,,,,,,,,,0,2,2,7,,,,,,,AMSA18.jpg,AMNE05.jpg,AMSA10.jpg,AMNE17.jpg,AMNE17.jpg,MN,1,num_4,32,num_6,0.266655547544,,,2018_Jan_18_1848,60.0030792222,MAFE4ImagesEEG,001,102782,
AFNE01.JPG,AFNE01.JPG,AFNE01.JPG,AFNE01.JPG,AFNE01.JPG,AFNE01.JPG,,,,,,,,,,,,,,,,,0,3,3,4,,,,,,,AMSA11.jpg,AMSA06.jpg,AMNE04.jpg,AMNE01.jpg,AMSA11.jpg,MS,2,num_8,32,num_6,0.283497285098,,,2018_Jan_18_1848,60.0030792222,MAFE4ImagesEEG,001,102782,
AFNE01.JPG,AFNE01.JPG,AFNE01.JPG,AFNE01.JPG,AFNE01.JPG,AFNE01.JPG,,,,,,,,,,,,,,,,,0,4,4,5,,,,,,,AMNE05.jpg,AMSA07.jpg,AMSA13.jpg,AMNE15.jpg,AMNE05.jpg,MN,1,num_8,32,num_4,0.28352230275,,,2018_Jan_18_1848,60.0030792222,MAFE4ImagesEEG,001,102782,
AFNE01.JPG,AFNE01.JPG,AFNE01.JPG,AFNE01.JPG,AFNE01.JPG,AFNE01.JPG,,,,,,,,,,,,,,,,,0,5,5,6,,,,,,,AMNE10.jpg,AMSA10.jpg,AMSA15.jpg,AMNE12.jpg,AMSA10.jpg,MS,2,num_6,32,num_2,0.283475795295,,,2018_Jan_18_1848,60.0030792222,MAFE4ImagesEEG,001,102782,
AFNE01.JPG,AFNE01.JPG,AFNE01.JPG,AFNE01.JPG,AFNE01.JPG,AFNE01.JPG,,,,,,,,,,,,,,,,,0,6,6,3,,,,,,,AMNE03.jpg,AMSA17.jpg,AMNE11.jpg,AMSA05.jpg,AMSA05.jpg,MS,2,num_4,32,num_8,0.950136474799,,,2018_Jan_18_1848,60.0030792222,MAFE4ImagesEEG,001,102782,
AFNE01.JPG,AFNE01.JPG,AFNE01.JPG,AFNE01.JPG,AFNE01.JPG,AFNE01.JPG,,,,,,,,,,,,,,,,,0,7,7,9,,,,,,,AMNE04.jpg,AMNE02.jpg,AMSA12.jpg,AMSA15.jpg,AMSA15.jpg,MS,2,num_4,32,num_6,0.433462163899,,,2018_Jan_18_1848,60.0030792222,MAFE4ImagesEEG,001,102782,
AFNE01.JPG,AFNE01.JPG,AFNE01.JPG,AFNE01.JPG,AFNE01.JPG,AFNE01.JPG,,,,,,,,,,,,,,,,,0,8,8,0,,,,,,,AMNE04.jpg,AMSA03.jpg,AMSA04.jpg,AMNE11.jpg,AMSA03.jpg,MS,2,num_6,16,num_6,0.400201424956,,,2018_Jan_18_1848,60.0030792222,MAFE4ImagesEEG,001,102782,
AFNE01.JPG,AFNE01.JPG,AFNE01.JPG,AFNE01.JPG,AFNE01.JPG,AFNE01.JPG,,,,,,,,,,,,,,,,,0,9,9,1,,,,,,,AMNE14.jpg,AMNE15.jpg,AMSA11.jpg,AMSA07.jpg,AMNE15.jpg,MN,1,num_6,32,num_8,0.550129097886,,,2018_Jan_18_1848,60.0030792222,MAFE4ImagesEEG,001,102782,
AFNE01.JPG,AFNE01.JPG,AFNE01.JPG,AFNE01.JPG,AFNE01.JPG,AFNE01.JPG,,,,,,,,,,,,,,,,,1,0,10,1,,,,,,,AMNE04.jpg,AMSA20.jpg,AMSA07.jpg,AMNE10.jpg,AMSA07.jpg,MS,2,num_2,32,num_8,0.416820888873,,,2018_Jan_18_1848,60.0030792222,MAFE4ImagesEEG,001,102782,
AFNE01.JPG,AFNE01.JPG,AFNE01.JPG,AFNE01.JPG,AFNE01.JPG,AFNE01.JPG,,,,,,,,,,,,,,,,,1,1,11,4,,,,,,,AMSA04.jpg,AMSA01.jpg,AMNE08.jpg,AMNE13.jpg,AMSA04.jpg,MS,2,num_8,32,num_6,0.68349760538,,,2018_Jan_18_1848,60.0030792222,MAFE4ImagesEEG,001,102782,
AFNE01.JPG,AFNE01.JPG,AFNE01.JPG,AFNE01.JPG,AFNE01.JPG,AFNE01.JPG,,,,,,,,,,,,,,,,,1,2,12,5,,,,,,,AMSA12.jpg,AMNE14.jpg,AMSA09.jpg,AMNE20.jpg,AMSA09.jpg,MS,2,num_2,32,num_8,0.833518293221,,,2018_Jan_18_1848,60.0030792222,MAFE4ImagesEEG,001,102782,
AFNE01.JPG,AFNE01.JPG,AFNE01.JPG,AFNE01.JPG,AFNE01.JPG,AFNE01.JPG,,,,,,,,,,,,,,,,,1,3,13,7,,,,,,,AMNE08.jpg,AMSA15.jpg,AMNE03.jpg,AMSA07.jpg,AMNE03.jpg,MN,1,num_2,32,num_4,0.166862424929,,,2018_Jan_18_1848,60.0030792222,MAFE4ImagesEEG,001,102782,
AFNE01.JPG,AFNE01.JPG,AFNE01.JPG,AFNE01.JPG,AFNE01.JPG,AFNE01.JPG,,,,,,,,,,,,,,,,,1,4,14,2,,,,,,,AMNE07.jpg,AMSA06.jpg,AMNE17.jpg,AMSA01.jpg,AMSA01.jpg,MS,2,num_4,32,num_6,0.883449494373,,,2018_Jan_18_1848,60.0030792222,MAFE4ImagesEEG,001,102782,
AFNE01.JPG,AFNE01.JPG,AFNE01.JPG,AFNE01.JPG,AFNE01.JPG,AFNE01.JPG,,,,,,,,,,,,,,,,,1,5,15,8,,,,,,,AMSA18.jpg,AMNE14.jpg,AMNE09.jpg,AMSA04.jpg,AMNE09.jpg,MN,1,num_2,32,num_8,0.383458475582,,,2018_Jan_18_1848,60.0030792222,MAFE4ImagesEEG,001,102782,
AFNE01.JPG,AFNE01.JPG,AFNE01.JPG,AFNE01.JPG,AFNE01.JPG,AFNE01.JPG,,,,,,,,,,,,,,,,,1,6,16,3,,,,,,,AMNE14.jpg,AMSA02.jpg,AMNE15.jpg,AMSA03.jpg,AMNE14.jpg,MN,1,num_8,16,num_8,0.300175444689,,,2018_Jan_18_1848,60.0030792222,MAFE4ImagesEEG,001,102782,
AFNE01.JPG,AFNE01.JPG,AFNE01.JPG,AFNE01.JPG,AFNE01.JPG,AFNE01.JPG,,,,,,,,,,,,,,,,,1,7,17,9,,,,,,,AMNE18.jpg,AMSA14.jpg,AMSA06.jpg,AMNE07.jpg,AMNE07.jpg,MN,1,num_4,32,num_8,1.23344805138,,,2018_Jan_18_1848,60.0030792222,MAFE4ImagesEEG,001,102782,
AFNE01.JPG,AFNE01.JPG,AFNE01.JPG,AFNE01.JPG,AFNE01.JPG,AFNE01.JPG,,,,,,,,,,,,,,,,,1,8,18,6,,,,,,,AMNE19.jpg,AMSA18.jpg,AMNE08.jpg,AMSA01.jpg,AMNE19.jpg,MN,1,num_8,32,num_2,0.416805172805,,,2018_Jan_18_1848,60.0030792222,MAFE4ImagesEEG,001,102782,
AFNE01.JPG,AFNE01.JPG,AFNE01.JPG,AFNE01.JPG,AFNE01.JPG,AFNE01.JPG,,,,,,,,,,,,,,,,,1,9,19,0,,,,,,,AMSA10.jpg,AMSA16.jpg,AMNE20.jpg,AMNE18.jpg,AMNE20.jpg,MN,1,num_2,32,num_6,0.166804050561,,,2018_Jan_18_1848,60.0030792222,MAFE4ImagesEEG,001,102782,
AFNE01.JPG,AFNE01.JPG,AFNE01.JPG,AFNE01.JPG,AFNE01.JPG,AFNE01.JPG,,,,,,,,,,,,,,,,,2,0,20,3,,,,,,,AMNE01.jpg,AMNE08.jpg,AMSA07.jpg,AMSA03.jpg,AMSA07.jpg,MS,2,num_2,32,num_6,0.300160048995,,,2018_Jan_18_1848,60.0030792222,MAFE4ImagesEEG,001,102782,
AFNE01.JPG,AFNE01.JPG,AFNE01.JPG,AFNE01.JPG,AFNE01.JPG,AFNE01.JPG,,,,,,,,,,,,,,,,,2,1,21,2,,,,,,,AMSA19.jpg,AMNE12.jpg,AMNE19.jpg,AMSA13.jpg,AMNE12.jpg,MN,1,num_6,32,num_4,0.266807899345,,,2018_Jan_18_1848,60.0030792222,MAFE4ImagesEEG,001,102782,
AFNE01.JPG,AFNE01.JPG,AFNE01.JPG,AFNE01.JPG,AFNE01.JPG,AFNE01.JPG,,,,,,,,,,,,,,,,,2,2,22,5,,,,,,,AMSA18.jpg,AMNE15.jpg,AMNE14.jpg,AMSA20.jpg,AMNE15.jpg,MN,1,num_6,32,num_2,0.583498888649,,,2018_Jan_18_1848,60.0030792222,MAFE4ImagesEEG,001,102782,
AFNE01.JPG,AFNE01.JPG,AFNE01.JPG,AFNE01.JPG,AFNE01.JPG,AFNE01.JPG,,,,,,,,,,,,,,,,,2,3,23,7,,,,,,,AMSA17.jpg,AMNE14.jpg,AMNE10.jpg,AMSA14.jpg,AMSA17.jpg,MS,2,num_8,32,num_6,1.31673717592,,,2018_Jan_18_1848,60.0030792222,MAFE4ImagesEEG,001,102782,
AFNE01.JPG,AFNE01.JPG,AFNE01.JPG,AFNE01.JPG,AFNE01.JPG,AFNE01.JPG,,,,,,,,,,,,,,,,,2,4,24,4,,,,,,,AMNE11.jpg,AMNE02.jpg,AMSA05.jpg,AMSA10.jpg,AMSA10.jpg,MS,2,num_4,32,num_2,0.28348894557,,,2018_Jan_18_1848,60.0030792222,MAFE4ImagesEEG,001,102782,
AFNE01.JPG,AFNE01.JPG,AFNE01.JPG,AFNE01.JPG,AFNE01.JPG,AFNE01.JPG,,,,,,,,,,,,,,,,,2,5,25,8,,,,,,,AMNE11.jpg,AMSA10.jpg,AMSA15.jpg,AMNE07.jpg,AMSA15.jpg,MS,2,num_2,32,num_4,0.433500652667,,,2018_Jan_18_1848,60.0030792222,MAFE4ImagesEEG,001,102782,
AFNE01.JPG,AFNE01.JPG,AFNE01.JPG,AFNE01.JPG,AFNE01.JPG,AFNE01.JPG,,,,,,,,,,,,,,,,,2,6,26,0,,,,,,,AMSA19.jpg,AMSA08.jpg,AMNE19.jpg,AMNE17.jpg,AMSA19.jpg,MS,2,num_8,32,num_6,0.66677390039,,,2018_Jan_18_1848,60.0030792222,MAFE4ImagesEEG,001,102782,
AFNE01.JPG,AFNE01.JPG,AFNE01.JPG,AFNE01.JPG,AFNE01.JPG,AFNE01.JPG,,,,,,,,,,,,,,,,,2,7,27,9,,,,,,,AMNE15.jpg,AMSA06.jpg,AMNE16.jpg,AMSA17.jpg,AMNE16.jpg,MN,1,num_2,32,num_6,0.250159888994,,,2018_Jan_18_1848,60.0030792222,MAFE4ImagesEEG,001,102782,
AFNE01.JPG,AFNE01.JPG,AFNE01.JPG,AFNE01.JPG,AFNE01.JPG,AFNE01.JPG,,,,,,,,,,,,,,,,,2,8,28,6,,,,,,,AMSA07.jpg,AMNE18.jpg,AMNE10.jpg,AMSA04.jpg,AMNE18.jpg,MN,1,num_6,16,num_6,0.416812870651,,,2018_Jan_18_1848,60.0030792222,MAFE4ImagesEEG,001,102782,
AFNE01.JPG,AFNE01.JPG,AFNE01.JPG,AFNE01.JPG,AFNE01.JPG,AFNE01.JPG,,,,,,,,,,,,,,,,,2,9,29,1,,,,,,,AMSA13.jpg,AMNE10.jpg,AMSA02.jpg,AMNE18.jpg,AMNE10.jpg,MN,1,num_6,16,num_6,0.300208160654,,,2018_Jan_18_1848,60.0030792222,MAFE4ImagesEEG,001,102782,
AFNE01.JPG,AFNE01.JPG,AFNE01.JPG,AFNE01.JPG,AFNE01.JPG,AFNE01.JPG,,,,,,,,,,,,,,,,,3,0,30,7,,,,,,,AMSA09.jpg,AMSA13.jpg,AMNE01.jpg,AMNE15.jpg,AMSA13.jpg,MS,2,num_6,16,num_6,0.666762675159,,,2018_Jan_18_1848,60.0030792222,MAFE4ImagesEEG,001,102782,
AFNE01.JPG,AFNE01.JPG,AFNE01.JPG,AFNE01.JPG,AFNE01.JPG,AFNE01.JPG,,,,,,,,,,,,,,,,,3,1,31,6,,,,,,,AMSA07.jpg,AMSA18.jpg,AMNE05.jpg,AMNE12.jpg,AMNE12.jpg,MN,1,num_4,32,num_6,0.50011257967,,,2018_Jan_18_1848,60.0030792222,MAFE4ImagesEEG,001,102782,
AFNE01.JPG,AFNE01.JPG,AFNE01.JPG,AFNE01.JPG,AFNE01.JPG,AFNE01.JPG,,,,,,,,,,,,,,,,,3,2,32,4,,,,,,,AMSA08.jpg,AMNE10.jpg,AMNE16.jpg,AMSA13.jpg,AMNE10.jpg,MN,1,num_6,16,num_6,0.31681736093,,,2018_Jan_18_1848,60.0030792222,MAFE4ImagesEEG,001,102782,
AFNE01.JPG,AFNE01.JPG,AFNE01.JPG,AFNE01.JPG,AFNE01.JPG,AFNE01.JPG,,,,,,,,,,,,,,,,,3,3,33,3,,,,,,,AMNE01.jpg,AMSA17.jpg,AMNE10.jpg,AMSA09.jpg,AMSA17.jpg,MS,2,num_6,32,num_2,0.333344452083,,,2018_Jan_18_1848,60.0030792222,MAFE4ImagesEEG,001,102782,
AFNE01.JPG,AFNE01.JPG,AFNE01.JPG,AFNE01.JPG,AFNE01.JPG,AFNE01.JPG,,,,,,,,,,,,,,,,,3,4,34,8,,,,,,,AMSA05.jpg,AMNE14.jpg,AMNE20.jpg,AMSA20.jpg,AMNE20.jpg,MN,1,num_2,32,num_4,0.283480927348,,,2018_Jan_18_1848,60.0030792222,MAFE4ImagesEEG,001,102782,
AFNE01.JPG,AFNE01.JPG,AFNE01.JPG,AFNE01.JPG,AFNE01.JPG,AFNE01.JPG,,,,,,,,,,,,,,,,,3,5,35,9,,,,,,,AMNE15.jpg,AMSA08.jpg,AMNE13.jpg,AMSA05.jpg,AMNE13.jpg,MN,1,num_2,32,num_8,0.533204609994,,,2018_Jan_18_1848,60.0030792222,MAFE4ImagesEEG,001,102782,
AFNE01.JPG,AFNE01.JPG,AFNE01.JPG,AFNE01.JPG,AFNE01.JPG,AFNE01.JPG,,,,,,,,,,,,,,,,,3,6,36,2,,,,,,,AMNE07.jpg,AMSA10.jpg,AMSA18.jpg,AMNE13.jpg,AMSA10.jpg,MS,2,num_6,16,num_6,0.250156681519,,,2018_Jan_18_1848,60.0030792222,MAFE4ImagesEEG,001,102782,
AFNE01.JPG,AFNE01.JPG,AFNE01.JPG,AFNE01.JPG,AFNE01.JPG,AFNE01.JPG,,,,,,,,,,,,,,,,,3,7,37,5,,,,,,,AMNE11.jpg,AMSA16.jpg,AMNE09.jpg,AMSA06.jpg,AMNE09.jpg,MN,1,num_2,16,num_2,0.283533849288,,,2018_Jan_18_1848,60.0030792222,MAFE4ImagesEEG,001,102782,
AFNE01.JPG,AFNE01.JPG,AFNE01.JPG,AFNE01.JPG,AFNE01.JPG,AFNE01.JPG,,,,,,,,,,,,,,,,,3,8,38,0,,,,,,,AMNE13.jpg,AMSA15.jpg,AMSA01.jpg,AMNE15.jpg,AMNE13.jpg,MN,1,num_8,16,num_8,0.833310774993,,,2018_Jan_18_1848,60.0030792222,MAFE4ImagesEEG,001,102782,
AFNE01.JPG,AFNE01.JPG,AFNE01.JPG,AFNE01.JPG,AFNE01.JPG,AFNE01.JPG,,,,,,,,,,,,,,,,,3,9,39,1,,,,,,,AMNE10.jpg,AMNE05.jpg,AMSA14.jpg,AMSA12.jpg,AMNE05.jpg,MN,1,num_6,16,num_6,0.316823134199,,,2018_Jan_18_1848,60.0030792222,MAFE4ImagesEEG,001,102782,
AFNE01.JPG,AFNE01.JPG,AFNE01.JPG,AFNE01.JPG,AFNE01.JPG,AFNE01.JPG,,,,,,,,,,,,,,,,,4,0,40,6,,,,,,,AMSA10.jpg,AMSA15.jpg,AMNE12.jpg,AMNE08.jpg,AMNE08.jpg,MN,1,num_4,32,num_6,0.300171595532,,,2018_Jan_18_1848,60.0030792222,MAFE4ImagesEEG,001,102782,
AFNE01.JPG,AFNE01.JPG,AFNE01.JPG,AFNE01.JPG,AFNE01.JPG,AFNE01.JPG,,,,,,,,,,,,,,,,,4,1,41,3,,,,,,,AMSA19.jpg,AMSA13.jpg,AMNE19.jpg,AMNE15.jpg,AMSA19.jpg,MS,2,num_8,16,num_8,0.25014417246,,,2018_Jan_18_1848,60.0030792222,MAFE4ImagesEEG,001,102782,
AFNE01.JPG,AFNE01.JPG,AFNE01.JPG,AFNE01.JPG,AFNE01.JPG,AFNE01.JPG,,,,,,,,,,,,,,,,,4,2,42,5,,,,,,,AMNE03.jpg,AMSA14.jpg,AMSA19.jpg,AMNE15.jpg,AMSA19.jpg,MS,2,num_2,32,num_4,0.300153954886,,,2018_Jan_18_1848,60.0030792222,MAFE4ImagesEEG,001,102782,
AFNE01.JPG,AFNE01.JPG,AFNE01.JPG,AFNE01.JPG,AFNE01.JPG,AFNE01.JPG,,,,,,,,,,,,,,,,,4,3,43,4,,,,,,,AMSA10.jpg,AMNE07.jpg,AMNE01.jpg,AMSA01.jpg,AMNE07.jpg,MN,1,num_6,32,num_2,0.283501454629,,,2018_Jan_18_1848,60.0030792222,MAFE4ImagesEEG,001,102782,
AFNE01.JPG,AFNE01.JPG,AFNE01.JPG,AFNE01.JPG,AFNE01.JPG,AFNE01.JPG,,,,,,,,,,,,,,,,,4,4,44,1,,,,,,,AMNE16.jpg,AMNE15.jpg,AMSA18.jpg,AMSA19.jpg,AMSA19.jpg,MS,2,num_4,32,num_6,0.0501570021734,,,2018_Jan_18_1848,60.0030792222,MAFE4ImagesEEG,001,102782,
AFNE01.JPG,AFNE01.JPG,AFNE01.JPG,AFNE01.JPG,AFNE01.JPG,AFNE01.JPG,,,,,,,,,,,,,,,,,4,5,45,0,,,,,,,AMNE19.jpg,AMSA14.jpg,AMSA17.jpg,AMNE17.jpg,AMSA14.jpg,MS,2,num_6,32,num_8,0.633469541091,,,2018_Jan_18_1848,60.0030792222,MAFE4ImagesEEG,001,102782,
AFNE01.JPG,AFNE01.JPG,AFNE01.JPG,AFNE01.JPG,AFNE01.JPG,AFNE01.JPG,,,,,,,,,,,,,,,,,4,6,46,7,,,,,,,AMSA06.jpg,AMNE03.jpg,AMSA13.jpg,AMNE08.jpg,AMNE08.jpg,MN,1,num_4,32,num_6,0.266812068876,,,2018_Jan_18_1848,60.0030792222,MAFE4ImagesEEG,001,102782,
AFNE01.JPG,AFNE01.JPG,AFNE01.JPG,AFNE01.JPG,AFNE01.JPG,AFNE01.JPG,,,,,,,,,,,,,,,,,4,7,47,2,,,,,,,AMSA05.jpg,AMNE08.jpg,AMNE13.jpg,AMSA13.jpg,AMNE13.jpg,MN,1,num_2,16,num_2,0.266852161381,,,2018_Jan_18_1848,60.0030792222,MAFE4ImagesEEG,001,102782,
AFNE01.JPG,AFNE01.JPG,AFNE01.JPG,AFNE01.JPG,AFNE01.JPG,AFNE01.JPG,,,,,,,,,,,,,,,,,4,8,48,9,,,,,,,AMSA19.jpg,AMSA03.jpg,AMNE20.jpg,AMNE04.jpg,AMNE20.jpg,MN,1,num_2,32,num_4,0.283499530051,,,2018_Jan_18_1848,60.0030792222,MAFE4ImagesEEG,001,102782,
AFNE01.JPG,AFNE01.JPG,AFNE01.JPG,AFNE01.JPG,AFNE01.JPG,AFNE01.JPG,,,,,,,,,,,,,,,,,4,9,49,8,,,,,,,AMSA16.jpg,AMSA10.jpg,AMNE02.jpg,AMNE12.jpg,AMNE02.jpg,MN,1,num_2,32,num_4,0.350153794978,,,2018_Jan_18_1848,60.0030792222,MAFE4ImagesEEG,001,102782,
AFNE01.JPG,AFNE01.JPG,AFNE01.JPG,AFNE01.JPG,AFNE01.JPG,AFNE01.JPG,,,,,,,,,,,,,,,,,5,0,50,6,,,,,,,AMNE16.jpg,AMNE03.jpg,AMSA08.jpg,AMSA03.jpg,AMNE16.jpg,MN,1,num_8,32,num_6,0.250209603459,,,2018_Jan_18_1848,60.0030792222,MAFE4ImagesEEG,001,102782,
AFNE01.JPG,AFNE01.JPG,AFNE01.JPG,AFNE01.JPG,AFNE01.JPG,AFNE01.JPG,,,,,,,,,,,,,,,,,5,1,51,7,,,,,,,AMSA01.jpg,AMNE13.jpg,AMSA11.jpg,AMNE06.jpg,AMNE06.jpg,MN,1,num_4,32,num_2,0.283478361089,,,2018_Jan_18_1848,60.0030792222,MAFE4ImagesEEG,001,102782,
AFNE01.JPG,AFNE01.JPG,AFNE01.JPG,AFNE01.JPG,AFNE01.JPG,AFNE01.JPG,,,,,,,,,,,,,,,,,5,2,52,8,,,,,,,AMNE20.jpg,AMNE11.jpg,AMSA15.jpg,AMSA11.jpg,AMNE20.jpg,MN,1,num_8,16,num_8,0.283509793691,,,2018_Jan_18_1848,60.0030792222,MAFE4ImagesEEG,001,102782,
AFNE01.JPG,AFNE01.JPG,AFNE01.JPG,AFNE01.JPG,AFNE01.JPG,AFNE01.JPG,,,,,,,,,,,,,,,,,5,3,53,1,,,,,,,AMSA13.jpg,AMNE20.jpg,AMNE08.jpg,AMSA11.jpg,AMNE20.jpg,MN,1,num_6,16,num_6,0.383425118402,,,2018_Jan_18_1848,60.0030792222,MAFE4ImagesEEG,001,102782,
AFNE01.JPG,AFNE01.JPG,AFNE01.JPG,AFNE01.JPG,AFNE01.JPG,AFNE01.JPG,,,,,,,,,,,,,,,,,5,4,54,3,,,,,,,AMNE01.jpg,AMSA15.jpg,AMNE18.jpg,AMSA12.jpg,AMNE01.jpg,MN,1,num_8,32,num_4,0.266822332516,,,2018_Jan_18_1848,60.0030792222,MAFE4ImagesEEG,001,102782,
AFNE01.JPG,AFNE01.JPG,AFNE01.JPG,AFNE01.JPG,AFNE01.JPG,AFNE01.JPG,,,,,,,,,,,,,,,,,5,5,55,5,,,,,,,AMNE07.jpg,AMNE08.jpg,AMSA11.jpg,AMSA01.jpg,AMNE07.jpg,MN,1,num_8,32,num_2,0.283481569029,,,2018_Jan_18_1848,60.0030792222,MAFE4ImagesEEG,001,102782,
AFNE01.JPG,AFNE01.JPG,AFNE01.JPG,AFNE01.JPG,AFNE01.JPG,AFNE01.JPG,,,,,,,,,,,,,,,,,5,6,56,4,,,,,,,AMNE07.jpg,AMNE18.jpg,AMSA01.jpg,AMSA02.jpg,AMSA01.jpg,MS,2,num_2,32,num_8,0.400190519635,,,2018_Jan_18_1848,60.0030792222,MAFE4ImagesEEG,001,102782,
AFNE01.JPG,AFNE01.JPG,AFNE01.JPG,AFNE01.JPG,AFNE01.JPG,AFNE01.JPG,,,,,,,,,,,,,,,,,5,7,57,0,,,,,,,AMNE02.jpg,AMSA14.jpg,AMNE09.jpg,AMSA09.jpg,AMNE02.jpg,MN,1,num_8,32,num_6,0.450129739475,,,2018_Jan_18_1848,60.0030792222,MAFE4ImagesEEG,001,102782,
AFNE01.JPG,AFNE01.JPG,AFNE01.JPG,AFNE01.JPG,AFNE01.JPG,AFNE01.JPG,,,,,,,,,,,,,,,,,5,8,58,2,,,,,,,AMSA09.jpg,AMSA07.jpg,AMNE16.jpg,AMNE18.jpg,AMSA07.jpg,MS,2,num_6,16,num_6,0.433487502392,,,2018_Jan_18_1848,60.0030792222,MAFE4ImagesEEG,001,102782,
AFNE01.JPG,AFNE01.JPG,AFNE01.JPG,AFNE01.JPG,AFNE01.JPG,AFNE01.JPG,,,,,,,,,,,,,,,,,5,9,59,9,,,,,,,AMSA14.jpg,AMNE13.jpg,AMNE01.jpg,AMSA15.jpg,AMNE01.jpg,MN,1,num_2,32,num_6,0.433466013055,,,2018_Jan_18_1848,60.0030792222,MAFE4ImagesEEG,001,102782,
,,,,,,,,,,,,,,,,,,,,,,,,,,,,,,,,,,,,,,,,,,,space,2.68330868986,2018_Jan_18_1848,60.0030792222,MAFE4ImagesEEG,001,102782,
AFNE01.JPG,AFNE01.JPG,AFNE01.JPG,AFNE01.JPG,AFNE01.JPG,AFNE01.JPG,,,,,,,,,,,,,,,,,,,,,0,0,0,1,,,AFNE16.jpg,AFSA15.jpg,AFSA07.jpg,AFNE05.jpg,AFNE16.jpg,FN,3,num_8,32,num_4,0.266805974767,,,2018_Jan_18_1848,60.0030792222,MAFE4ImagesEEG,001,102782,
AFNE01.JPG,AFNE01.JPG,AFNE01.JPG,AFNE01.JPG,AFNE01.JPG,AFNE01.JPG,,,,,,,,,,,,,,,,,,,,,0,1,1,4,,,AFSA01.jpg,AFSA12.jpg,AFNE02.jpg,AFNE19.jpg,AFSA12.jpg,FS,4,num_6,32,num_8,0.300167746842,,,2018_Jan_18_1848,60.0030792222,MAFE4ImagesEEG,001,102782,
AFNE01.JPG,AFNE01.JPG,AFNE01.JPG,AFNE01.JPG,AFNE01.JPG,AFNE01.JPG,,,,,,,,,,,,,,,,,,,,,0,2,2,2,,,AFSA16.jpg,AFNE05.jpg,AFNE03.jpg,AFSA20.jpg,AFNE05.jpg,FN,3,num_6,32,num_2,0.31681383308,,,2018_Jan_18_1848,60.0030792222,MAFE4ImagesEEG,001,102782,
AFNE01.JPG,AFNE01.JPG,AFNE01.JPG,AFNE01.JPG,AFNE01.JPG,AFNE01.JPG,,,,,,,,,,,,,,,,,,,,,0,3,3,8,,,AFNE10.jpg,AFNE06.jpg,AFSA13.jpg,AFSA20.jpg,AFSA13.jpg,FS,4,num_2,32,num_6,0.133486219216,,,2018_Jan_18_1848,60.0030792222,MAFE4ImagesEEG,001,102782,
AFNE01.JPG,AFNE01.JPG,AFNE01.JPG,AFNE01.JPG,AFNE01.JPG,AFNE01.JPG,,,,,,,,,,,,,,,,,,,,,0,4,4,6,,,AFSA12.jpg,AFNE05.jpg,AFSA08.jpg,AFNE12.jpg,AFNE05.jpg,FN,3,num_6,32,num_4,0.350216018036,,,2018_Jan_18_1848,60.0030792222,MAFE4ImagesEEG,001,102782,
AFNE01.JPG,AFNE01.JPG,AFNE01.JPG,AFNE01.JPG,AFNE01.JPG,AFNE01.JPG,,,,,,,,,,,,,,,,,,,,,0,5,5,9,,,AFNE20.jpg,AFNE19.jpg,AFSA17.jpg,AFSA06.jpg,AFNE19.jpg,FN,3,num_6,32,num_8,0.200171916746,,,2018_Jan_18_1848,60.0030792222,MAFE4ImagesEEG,001,102782,
AFNE01.JPG,AFNE01.JPG,AFNE01.JPG,AFNE01.JPG,AFNE01.JPG,AFNE01.JPG,,,,,,,,,,,,,,,,,,,,,0,6,6,7,,,AFNE06.jpg,AFSA13.jpg,AFSA02.jpg,AFNE01.jpg,AFNE06.jpg,FN,3,num_8,32,num_6,0.26683131326,,,2018_Jan_18_1848,60.0030792222,MAFE4ImagesEEG,001,102782,
AFNE01.JPG,AFNE01.JPG,AFNE01.JPG,AFNE01.JPG,AFNE01.JPG,AFNE01.JPG,,,,,,,,,,,,,,,,,,,,,0,7,7,5,,,AFSA04.jpg,AFSA10.jpg,AFNE18.jpg,AFNE15.jpg,AFNE15.jpg,FN,3,num_4,32,num_2,0.366820728872,,,2018_Jan_18_1848,60.0030792222,MAFE4ImagesEEG,001,102782,
AFNE01.JPG,AFNE01.JPG,AFNE01.JPG,AFNE01.JPG,AFNE01.JPG,AFNE01.JPG,,,,,,,,,,,,,,,,,,,,,0,8,8,3,,,AFSA17.jpg,AFSA05.jpg,AFNE14.jpg,AFNE16.jpg,AFSA05.jpg,FS,4,num_6,32,num_8,0.116813512053,,,2018_Jan_18_1848,60.0030792222,MAFE4ImagesEEG,001,102782,
AFNE01.JPG,AFNE01.JPG,AFNE01.JPG,AFNE01.JPG,AFNE01.JPG,AFNE01.JPG,,,,,,,,,,,,,,,,,,,,,0,9,9,0,,,AFSA18.jpg,AFNE08.jpg,AFSA07.jpg,AFNE06.jpg,AFSA18.jpg,FS,4,num_8,32,num_4,0.383527434431,,,2018_Jan_18_1848,60.0030792222,MAFE4ImagesEEG,001,102782,
AFNE01.JPG,AFNE01.JPG,AFNE01.JPG,AFNE01.JPG,AFNE01.JPG,AFNE01.JPG,,,,,,,,,,,,,,,,,,,,,1,0,10,6,,,AFSA20.jpg,AFNE03.jpg,AFSA12.jpg,AFNE08.jpg,AFSA20.jpg,FS,4,num_8,32,num_6,0.283513642848,,,2018_Jan_18_1848,60.0030792222,MAFE4ImagesEEG,001,102782,
AFNE01.JPG,AFNE01.JPG,AFNE01.JPG,AFNE01.JPG,AFNE01.JPG,AFNE01.JPG,,,,,,,,,,,,,,,,,,,,,1,1,11,2,,,AFNE20.jpg,AFSA17.jpg,AFNE12.jpg,AFSA14.jpg,AFSA14.jpg,FS,4,num_4,32,num_6,0.33353080228,,,2018_Jan_18_1848,60.0030792222,MAFE4ImagesEEG,001,102782,
AFNE01.JPG,AFNE01.JPG,AFNE01.JPG,AFNE01.JPG,AFNE01.JPG,AFNE01.JPG,,,,,,,,,,,,,,,,,,,,,1,2,12,9,,,AFSA18.jpg,AFSA17.jpg,AFNE20.jpg,AFNE03.jpg,AFSA17.jpg,FS,4,num_6,32,num_2,0.316860981751,,,2018_Jan_18_1848,60.0030792222,MAFE4ImagesEEG,001,102782,
AFNE01.JPG,AFNE01.JPG,AFNE01.JPG,AFNE01.JPG,AFNE01.JPG,AFNE01.JPG,,,,,,,,,,,,,,,,,,,,,1,3,13,3,,,AFSA02.jpg,AFNE17.jpg,AFNE02.jpg,AFSA05.jpg,AFSA02.jpg,FS,4,num_8,16,num_8,0.116819606163,,,2018_Jan_18_1848,60.0030792222,MAFE4ImagesEEG,001,102782,
AFNE01.JPG,AFNE01.JPG,AFNE01.JPG,AFNE01.JPG,AFNE01.JPG,AFNE01.JPG,,,,,,,,,,,,,,,,,,,,,1,4,14,0,,,AFNE10.jpg,AFSA11.jpg,AFNE04.jpg,AFSA01.jpg,AFSA01.jpg,FS,4,num_4,32,num_6,0.250045063905,,,2018_Jan_18_1848,60.0030792222,MAFE4ImagesEEG,001,102782,
AFNE01.JPG,AFNE01.JPG,AFNE01.JPG,AFNE01.JPG,AFNE01.JPG,AFNE01.JPG,,,,,,,,,,,,,,,,,,,,,1,5,15,8,,,AFSA19.jpg,AFSA02.jpg,AFNE12.jpg,AFNE16.jpg,AFSA19.jpg,FS,4,num_8,32,num_6,0.26664881222,,,2018_Jan_18_1848,60.0030792222,MAFE4ImagesEEG,001,102782,
AFNE01.JPG,AFNE01.JPG,AFNE01.JPG,AFNE01.JPG,AFNE01.JPG,AFNE01.JPG,,,,,,,,,,,,,,,,,,,,,1,6,16,5,,,AFSA15.jpg,AFNE12.jpg,AFNE03.jpg,AFSA10.jpg,AFNE12.jpg,FN,3,num_6,32,num_4,0.483475795016,,,2018_Jan_18_1848,60.0030792222,MAFE4ImagesEEG,001,102782,
AFNE01.JPG,AFNE01.JPG,AFNE01.JPG,AFNE01.JPG,AFNE01.JPG,AFNE01.JPG,,,,,,,,,,,,,,,,,,,,,1,7,17,7,,,AFNE15.jpg,AFSA11.jpg,AFSA20.jpg,AFNE02.jpg,AFNE02.jpg,FN,3,num_4,32,num_6,0.300167105626,,,2018_Jan_18_1848,60.0030792222,MAFE4ImagesEEG,001,102782,
AFNE01.JPG,AFNE01.JPG,AFNE01.JPG,AFNE01.JPG,AFNE01.JPG,AFNE01.JPG,,,,,,,,,,,,,,,,,,,,,1,8,18,1,,,AFNE03.jpg,AFSA06.jpg,AFNE04.jpg,AFSA16.jpg,AFNE04.jpg,FN,3,num_2,32,num_6,0.566792824306,,,2018_Jan_18_1848,60.0030792222,MAFE4ImagesEEG,001,102782,
AFNE01.JPG,AFNE01.JPG,AFNE01.JPG,AFNE01.JPG,AFNE01.JPG,AFNE01.JPG,,,,,,,,,,,,,,,,,,,,,1,9,19,4,,,AFSA06.jpg,AFNE11.jpg,AFNE09.jpg,AFSA13.jpg,AFNE09.jpg,FN,3,num_2,32,num_6,0.700121239759,,,2018_Jan_18_1848,60.0030792222,MAFE4ImagesEEG,001,102782,
AFNE01.JPG,AFNE01.JPG,AFNE01.JPG,AFNE01.JPG,AFNE01.JPG,AFNE01.JPG,,,,,,,,,,,,,,,,,,,,,2,0,20,0,,,AFSA04.jpg,AFSA11.jpg,AFNE03.jpg,AFNE19.jpg,AFSA11.jpg,FS,4,num_6,16,num_6,2.71647096192,,,2018_Jan_18_1848,60.0030792222,MAFE4ImagesEEG,001,102782,
AFNE01.JPG,AFNE01.JPG,AFNE01.JPG,AFNE01.JPG,AFNE01.JPG,AFNE01.JPG,,,,,,,,,,,,,,,,,,,,,2,1,21,4,,,AFSA13.jpg,AFNE15.jpg,AFNE01.jpg,AFSA06.jpg,AFSA13.jpg,FS,4,num_8,32,num_2,0.250182982069,,,2018_Jan_18_1848,60.0030792222,MAFE4ImagesEEG,001,102782,
AFNE01.JPG,AFNE01.JPG,AFNE01.JPG,AFNE01.JPG,AFNE01.JPG,AFNE01.JPG,,,,,,,,,,,,,,,,,,,,,2,2,22,1,,,AFNE01.jpg,AFNE06.jpg,AFSA16.jpg,AFSA20.jpg,AFNE01.jpg,FN,3,num_8,32,num_6,0.783513963688,,,2018_Jan_18_1848,60.0030792222,MAFE4ImagesEEG,001,102782,
AFNE01.JPG,AFNE01.JPG,AFNE01.JPG,AFNE01.JPG,AFNE01.JPG,AFNE01.JPG,,,,,,,,,,,,,,,,,,,,,2,3,23,8,,,AFNE12.jpg,AFSA03.jpg,AFNE20.jpg,AFSA20.jpg,AFNE20.jpg,FN,3,num_2,32,num_8,0.233466012869,,,2018_Jan_18_1848,60.0030792222,MAFE4ImagesEEG,001,102782,
AFNE01.JPG,AFNE01.JPG,AFNE01.JPG,AFNE01.JPG,AFNE01.JPG,AFNE01.JPG,,,,,,,,,,,,,,,,,,,,,2,4,24,2,,,AFSA06.jpg,AFSA15.jpg,AFNE20.jpg,AFNE17.jpg,AFSA15.jpg,FS,4,num_6,32,num_4,0.266806295607,,,2018_Jan_18_1848,60.0030792222,MAFE4ImagesEEG,001,102782,
AFNE01.JPG,AFNE01.JPG,AFNE01.JPG,AFNE01.JPG,AFNE01.JPG,AFNE01.JPG,,,,,,,,,,,,,,,,,,,,,2,5,25,5,,,AFNE09.jpg,AFNE08.jpg,AFSA10.jpg,AFSA06.jpg,AFSA10.jpg,FS,4,num_2,16,num_2,0.500214254484,,,2018_Jan_18_1848,60.0030792222,MAFE4ImagesEEG,001,102782,
AFNE01.JPG,AFNE01.JPG,AFNE01.JPG,AFNE01.JPG,AFNE01.JPG,AFNE01.JPG,,,,,,,,,,,,,,,,,,,,,2,6,26,3,,,AFSA16.jpg,AFSA07.jpg,AFNE05.jpg,AFNE11.jpg,AFSA16.jpg,FS,4,num_8,32,num_6,0.150228527375,,,2018_Jan_18_1848,60.0030792222,MAFE4ImagesEEG,001,102782,
AFNE01.JPG,AFNE01.JPG,AFNE01.JPG,AFNE01.JPG,AFNE01.JPG,AFNE01.JPG,,,,,,,,,,,,,,,,,,,,,2,7,27,9,,,AFNE03.jpg,AFNE08.jpg,AFSA04.jpg,AFSA16.jpg,AFSA16.jpg,FS,4,num_4,32,num_8,0.10017352039,,,2018_Jan_18_1848,60.0030792222,MAFE4ImagesEEG,001,102782,
AFNE01.JPG,AFNE01.JPG,AFNE01.JPG,AFNE01.JPG,AFNE01.JPG,AFNE01.JPG,,,,,,,,,,,,,,,,,,,,,2,8,28,7,,,AFNE15.jpg,AFNE18.jpg,AFSA03.jpg,AFSA16.jpg,AFNE18.jpg,FN,3,num_6,32,num_4,0.550123644993,,,2018_Jan_18_1848,60.0030792222,MAFE4ImagesEEG,001,102782,
AFNE01.JPG,AFNE01.JPG,AFNE01.JPG,AFNE01.JPG,AFNE01.JPG,AFNE01.JPG,,,,,,,,,,,,,,,,,,,,,2,9,29,6,,,AFNE07.jpg,AFNE13.jpg,AFSA16.jpg,AFSA13.jpg,AFSA16.jpg,FS,4,num_2,16,num_2,0.300141125452,,,2018_Jan_18_1848,60.0030792222,MAFE4ImagesEEG,001,102782,
AFNE01.JPG,AFNE01.JPG,AFNE01.JPG,AFNE01.JPG,AFNE01.JPG,AFNE01.JPG,,,,,,,,,,,,,,,,,,,,,3,0,30,3,,,AFSA14.jpg,AFNE07.jpg,AFNE01.jpg,AFSA04.jpg,AFNE07.jpg,FN,3,num_6,32,num_8,0.83342463756,,,2018_Jan_18_1848,60.0030792222,MAFE4ImagesEEG,001,102782,
AFNE01.JPG,AFNE01.JPG,AFNE01.JPG,AFNE01.JPG,AFNE01.JPG,AFNE01.JPG,,,,,,,,,,,,,,,,,,,,,3,1,31,5,,,AFSA14.jpg,AFNE16.jpg,AFSA11.jpg,AFNE04.jpg,AFSA14.jpg,FS,4,num_8,32,num_6,0.266740864143,,,2018_Jan_18_1848,60.0030792222,MAFE4ImagesEEG,001,102782,
AFNE01.JPG,AFNE01.JPG,AFNE01.JPG,AFNE01.JPG,AFNE01.JPG,AFNE01.JPG,,,,,,,,,,,,,,,,,,,,,3,2,32,4,,,AFNE08.jpg,AFSA14.jpg,AFNE04.jpg,AFSA04.jpg,AFNE08.jpg,FN,3,num_8,32,num_6,0.383459116798,,,2018_Jan_18_1848,60.0030792222,MAFE4ImagesEEG,001,102782,
AFNE01.JPG,AFNE01.JPG,AFNE01.JPG,AFNE01.JPG,AFNE01.JPG,AFNE01.JPG,,,,,,,,,,,,,,,,,,,,,3,3,33,8,,,AFSA18.jpg,AFNE09.jpg,AFSA06.jpg,AFNE20.jpg,AFSA18.jpg,FS,4,num_8,16,num_8,0.400151389185,,,2018_Jan_18_1848,60.0030792222,MAFE4ImagesEEG,001,102782,
AFNE01.JPG,AFNE01.JPG,AFNE01.JPG,AFNE01.JPG,AFNE01.JPG,AFNE01.JPG,,,,,,,,,,,,,,,,,,,,,3,4,34,7,,,AFNE13.jpg,AFNE10.jpg,AFSA07.jpg,AFSA20.jpg,AFSA20.jpg,FS,4,num_4,16,num_4,0.333603289444,,,2018_Jan_18_1848,60.0030792222,MAFE4ImagesEEG,001,102782,
AFNE01.JPG,AFNE01.JPG,AFNE01.JPG,AFNE01.JPG,AFNE01.JPG,AFNE01.JPG,,,,,,,,,,,,,,,,,,,,,3,5,35,0,,,AFSA02.jpg,AFNE15.jpg,AFSA10.jpg,AFNE08.jpg,AFSA02.jpg,FS,4,num_8,32,num_6,0.300278081559,,,2018_Jan_18_1848,60.0030792222,MAFE4ImagesEEG,001,102782,
AFNE01.JPG,AFNE01.JPG,AFNE01.JPG,AFNE01.JPG,AFNE01.JPG,AFNE01.JPG,,,,,,,,,,,,,,,,,,,,,3,6,36,1,,,AFSA13.jpg,AFNE12.jpg,AFNE06.jpg,AFSA01.jpg,AFNE06.jpg,FN,3,num_2,32,num_4,0.300241838209,,,2018_Jan_18_1848,60.0030792222,MAFE4ImagesEEG,001,102782,
AFNE01.JPG,AFNE01.JPG,AFNE01.JPG,AFNE01.JPG,AFNE01.JPG,AFNE01.JPG,,,,,,,,,,,,,,,,,,,,,3,7,37,2,,,AFSA03.jpg,AFSA16.jpg,AFNE03.jpg,AFNE20.jpg,AFNE20.jpg,FN,3,num_4,32,num_2,0.0501400032081,,,2018_Jan_18_1848,60.0030792222,MAFE4ImagesEEG,001,102782,
AFNE01.JPG,AFNE01.JPG,AFNE01.JPG,AFNE01.JPG,AFNE01.JPG,AFNE01.JPG,,,,,,,,,,,,,,,,,,,,,3,8,38,6,,,AFNE09.jpg,AFNE13.jpg,AFSA11.jpg,AFSA06.jpg,AFNE13.jpg,FN,3,num_6,16,num_6,0.100248894654,,,2018_Jan_18_1848,60.0030792222,MAFE4ImagesEEG,001,102782,
