IPosition2,IPosition3,IPosition1,IPosition6,IPosition4,IPosition5,TrialsM1.thisRepN,TrialsM1.thisTrialN,TrialsM1.thisN,TrialsM1.thisIndex,TrialsF1.thisRepN,TrialsF1.thisTrialN,TrialsF1.thisN,TrialsF1.thisIndex,TrialsM2.thisRepN,TrialsM2.thisTrialN,TrialsM2.thisN,TrialsM2.thisIndex,TrialsF2.thisRepN,TrialsF2.thisTrialN,TrialsF2.thisN,TrialsF2.thisIndex,TrialsM3.thisRepN,TrialsM3.thisTrialN,TrialsM3.thisN,TrialsM3.thisIndex,TrialsF3.thisRepN,TrialsF3.thisTrialN,TrialsF3.thisN,TrialsF3.thisIndex,InstrKey_resp.keys,InstrKey_resp.rt,Image0 _Position,Image1 _Position,Image2 _Position,Image3 _Position,Center_image,condition,code,correct_answer,accuracy,Key_Resp.keys,Key_Resp.rt,BreakKey_resp.keys,BreakKey_resp.rt,date,frameRate,expName,session,participant,
,,,,,,,,,,,,,,,,,,,,,,,,,,,,,,space,26.2984841827,,,,,,,,,,,,,,2018_Jan_10_1554,60.0113949023,MAFE4ImagesEEG,001,102745,
AFNE23.JPG,AFNE24.JPG,AFNE22.JPG,AFSA24.JPG,AFSA22.JPG,AFSA23.JPG,0,0,0,8,,,,,,,,,,,,,,,,,,,,,,,AMNE13.jpg,AMSA17.jpg,AMSA07.jpg,AMNE05.jpg,AMNE13.jpg,MN,1,num_8,32,num_6,2.64998091594,,,2018_Jan_10_1554,60.0113949023,MAFE4ImagesEEG,001,102745,
AMNE23.JPG,AMNE24.JPG,AMNE22.JPG,AMSA24.JPG,AMSA22.JPG,AMSA23.JPG,0,1,1,9,,,,,,,,,,,,,,,,,,,,,,,AMNE20.jpg,AMNE19.jpg,AMSA07.jpg,AMSA04.jpg,AMSA07.jpg,MS,2,num_2,16,num_2,1.08343345765,,,2018_Jan_10_1554,60.0113949023,MAFE4ImagesEEG,001,102745,
AFSA21.JPG,AFNE23.JPG,AFNE21.JPG,AFSA25.JPG,AFNE25.JPG,AFSA23.JPG,0,2,2,4,,,,,,,,,,,,,,,,,,,,,,,AMNE14.jpg,AMSA17.jpg,AMNE15.jpg,AMSA08.jpg,AMSA17.jpg,MS,2,num_6,32,num_8,1.50003367756,,,2018_Jan_10_1554,60.0113949023,MAFE4ImagesEEG,001,102745,
AMNE22.JPG,AMSA24.JPG,AMSA22.JPG,AMNE25.JPG,AMNE24.JPG,AMSA25.JPG,0,3,3,7,,,,,,,,,,,,,,,,,,,,,,,AMSA04.jpg,AMNE05.jpg,AMNE19.jpg,AMSA06.jpg,AMNE19.jpg,MN,1,num_2,32,num_4,2.03321583569,,,2018_Jan_10_1554,60.0113949023,MAFE4ImagesEEG,001,102745,
AFNE22.JPG,AFSA24.JPG,AFSA22.JPG,AFNE25.JPG,AFNE24.JPG,AFSA25.JPG,0,4,4,6,,,,,,,,,,,,,,,,,,,,,,,AMSA11.jpg,AMNE19.jpg,AMNE15.jpg,AMSA10.jpg,AMSA10.jpg,MS,2,num_4,16,num_4,1.05008162837,,,2018_Jan_10_1554,60.0113949023,MAFE4ImagesEEG,001,102745,
AMSA21.JPG,AMNE22.JPG,AMNE21.JPG,AMSA23.JPG,AMSA22.JPG,AMNE23.JPG,0,5,5,1,,,,,,,,,,,,,,,,,,,,,,,AMSA20.jpg,AMNE17.jpg,AMSA14.jpg,AMNE12.jpg,AMNE12.jpg,MN,1,num_4,32,num_6,1.95009253337,,,2018_Jan_10_1554,60.0113949023,MAFE4ImagesEEG,001,102745,
AFSA25.JPG,AFNE24.JPG,AFSA24.JPG,AFNE21.JPG,AFSA21.JPG,AFNE25.JPG,0,6,6,2,,,,,,,,,,,,,,,,,,,,,,,AMNE07.jpg,AMNE12.jpg,AMSA03.jpg,AMSA10.jpg,AMSA10.jpg,MS,2,num_4,16,num_4,1.13354170742,,,2018_Jan_10_1554,60.0113949023,MAFE4ImagesEEG,001,102745,
AMSA25.JPG,AMNE24.JPG,AMSA24.JPG,AMNE26.JPG,AMSA21.JPG,AMNE25.JPG,0,7,7,3,,,,,,,,,,,,,,,,,,,,,,,AMSA11.jpg,AMNE05.jpg,AMSA17.jpg,AMNE10.jpg,AMSA17.jpg,MS,2,num_2,32,num_8,1.98334942362,,,2018_Jan_10_1554,60.0113949023,MAFE4ImagesEEG,001,102745,
AFSA21.JPG,AFNE22.JPG,AFNE21.JPG,AFSA23.JPG,AFSA22.JPG,AFNE23.JPG,0,8,8,0,,,,,,,,,,,,,,,,,,,,,,,AMSA12.jpg,AMNE07.jpg,AMSA06.jpg,AMNE14.jpg,AMSA06.jpg,MS,2,num_2,32,num_4,1.56667062244,,,2018_Jan_10_1554,60.0113949023,MAFE4ImagesEEG,001,102745,
AMSA21.JPG,AMNE23.JPG,AMNE21.JPG,AMSA25.JPG,AMNE25.JPG,AMSA23.JPG,0,9,9,5,,,,,,,,,,,,,,,,,,,,,,,AMSA18.jpg,AMSA11.jpg,AMNE20.jpg,AMNE05.jpg,AMNE20.jpg,MN,1,num_2,32,num_8,1.90004297905,,,2018_Jan_10_1554,60.0113949023,MAFE4ImagesEEG,001,102745,
AMSA25.JPG,AMNE24.JPG,AMSA24.JPG,AMNE26.JPG,AMSA21.JPG,AMNE25.JPG,,,,,0,0,0,3,,,,,,,,,,,,,,,,,,,AFNE02.jpg,AFSA17.jpg,AFSA04.jpg,AFNE06.jpg,AFNE06.jpg,FN,3,num_4,32,num_8,2.3333781301,,,2018_Jan_10_1554,60.0113949023,MAFE4ImagesEEG,001,102745,
AMNE23.JPG,AMNE24.JPG,AMNE22.JPG,AMSA24.JPG,AMSA22.JPG,AMSA23.JPG,,,,,0,1,1,9,,,,,,,,,,,,,,,,,,,AFNE03.jpg,AFSA02.jpg,AFNE17.jpg,AFSA12.jpg,AFNE03.jpg,FN,3,num_8,32,num_2,2.81663806736,,,2018_Jan_10_1554,60.0113949023,MAFE4ImagesEEG,001,102745,
AFSA21.JPG,AFNE23.JPG,AFNE21.JPG,AFSA25.JPG,AFNE25.JPG,AFSA23.JPG,,,,,0,2,2,4,,,,,,,,,,,,,,,,,,,AFNE12.jpg,AFSA19.jpg,AFSA05.jpg,AFNE10.jpg,AFSA05.jpg,FS,4,num_2,32,num_6,4.39950670185,,,2018_Jan_10_1554,60.0113949023,MAFE4ImagesEEG,001,102745,
AMSA21.JPG,AMNE22.JPG,AMNE21.JPG,AMSA23.JPG,AMSA22.JPG,AMNE23.JPG,,,,,0,3,3,1,,,,,,,,,,,,,,,,,,,AFSA12.jpg,AFNE18.jpg,AFSA03.jpg,AFNE01.jpg,AFSA03.jpg,FS,4,num_2,32,num_8,2.28333851881,,,2018_Jan_10_1554,60.0113949023,MAFE4ImagesEEG,001,102745,
AFSA21.JPG,AFNE22.JPG,AFNE21.JPG,AFSA23.JPG,AFSA22.JPG,AFNE23.JPG,,,,,0,4,4,0,,,,,,,,,,,,,,,,,,,AFSA01.jpg,AFNE04.jpg,AFNE08.jpg,AFSA15.jpg,AFNE04.jpg,FN,3,num_6,16,num_6,1.75004987489,,,2018_Jan_10_1554,60.0113949023,MAFE4ImagesEEG,001,102745,
AFNE22.JPG,AFSA24.JPG,AFSA22.JPG,AFNE25.JPG,AFNE24.JPG,AFSA25.JPG,,,,,0,5,5,6,,,,,,,,,,,,,,,,,,,AFSA04.jpg,AFNE04.jpg,AFSA03.jpg,AFNE07.jpg,AFNE04.jpg,FN,3,num_6,32,num_4,1.35007328913,,,2018_Jan_10_1554,60.0113949023,MAFE4ImagesEEG,001,102745,
AFSA25.JPG,AFNE24.JPG,AFSA24.JPG,AFNE21.JPG,AFSA21.JPG,AFNE25.JPG,,,,,0,6,6,2,,,,,,,,,,,,,,,,,,,AFNE05.jpg,AFSA20.jpg,AFNE02.jpg,AFSA08.jpg,AFNE02.jpg,FN,3,num_2,32,num_6,1.7500604596,,,2018_Jan_10_1554,60.0113949023,MAFE4ImagesEEG,001,102745,
AFNE23.JPG,AFNE24.JPG,AFNE22.JPG,AFSA24.JPG,AFSA22.JPG,AFSA23.JPG,,,,,0,7,7,8,,,,,,,,,,,,,,,,,,,AFSA17.jpg,AFNE18.jpg,AFNE01.jpg,AFSA03.jpg,AFSA03.jpg,FS,4,num_4,48,None,,,,2018_Jan_10_1554,60.0113949023,MAFE4ImagesEEG,001,102745,
AMSA21.JPG,AMNE23.JPG,AMNE21.JPG,AMSA25.JPG,AMNE25.JPG,AMSA23.JPG,,,,,0,8,8,5,,,,,,,,,,,,,,,,,,,AFNE03.jpg,AFSA06.jpg,AFNE11.jpg,AFSA12.jpg,AFSA06.jpg,FS,4,num_6,32,num_4,1.61670766794,,,2018_Jan_10_1554,60.0113949023,MAFE4ImagesEEG,001,102745,
AMNE22.JPG,AMSA24.JPG,AMSA22.JPG,AMNE25.JPG,AMNE24.JPG,AMSA25.JPG,,,,,0,9,9,7,,,,,,,,,,,,,,,,,,,AFNE16.jpg,AFNE02.jpg,AFSA18.jpg,AFSA15.jpg,AFSA15.jpg,FS,4,num_4,32,num_6,2.53331847233,,,2018_Jan_10_1554,60.0113949023,MAFE4ImagesEEG,001,102745,
AMNE22.JPG,AMSA24.JPG,AMSA22.JPG,AMNE25.JPG,AMNE24.JPG,AMSA25.JPG,,,,,,,,,0,0,0,7,,,,,,,,,,,,,,,AMSA19.jpg,AMSA08.jpg,AMNE01.jpg,AMNE07.jpg,AMSA08.jpg,MS,2,num_6,32,num_8,1.43354138662,,,2018_Jan_10_1554,60.0113949023,MAFE4ImagesEEG,001,102745,
AMSA21.JPG,AMNE22.JPG,AMNE21.JPG,AMSA23.JPG,AMSA22.JPG,AMNE23.JPG,,,,,,,,,0,1,1,1,,,,,,,,,,,,,,,AMSA02.jpg,AMSA01.jpg,AMNE05.jpg,AMNE06.jpg,AMNE06.jpg,MN,1,num_4,32,num_6,1.4997536717,,,2018_Jan_10_1554,60.0113949023,MAFE4ImagesEEG,001,102745,
AFSA25.JPG,AFNE24.JPG,AFSA24.JPG,AFNE21.JPG,AFSA21.JPG,AFNE25.JPG,,,,,,,,,0,2,2,2,,,,,,,,,,,,,,,AMSA12.jpg,AMNE06.jpg,AMNE08.jpg,AMSA11.jpg,AMNE06.jpg,MN,1,num_6,32,num_8,2.21671825228,,,2018_Jan_10_1554,60.0113949023,MAFE4ImagesEEG,001,102745,
AFSA21.JPG,AFNE23.JPG,AFNE21.JPG,AFSA25.JPG,AFNE25.JPG,AFSA23.JPG,,,,,,,,,0,3,3,4,,,,,,,,,,,,,,,AMNE12.jpg,AMSA15.jpg,AMNE04.jpg,AMSA12.jpg,AMSA15.jpg,MS,2,num_6,16,num_6,1.51699825842,,,2018_Jan_10_1554,60.0113949023,MAFE4ImagesEEG,001,102745,
AMSA21.JPG,AMNE23.JPG,AMNE21.JPG,AMSA25.JPG,AMNE25.JPG,AMSA23.JPG,,,,,,,,,0,4,4,5,,,,,,,,,,,,,,,AMNE14.jpg,AMSA05.jpg,AMSA06.jpg,AMNE17.jpg,AMNE14.jpg,MN,1,num_8,16,num_8,2.28329906776,,,2018_Jan_10_1554,60.0113949023,MAFE4ImagesEEG,001,102745,
AFNE22.JPG,AFSA24.JPG,AFSA22.JPG,AFNE25.JPG,AFNE24.JPG,AFSA25.JPG,,,,,,,,,0,5,5,6,,,,,,,,,,,,,,,AMSA04.jpg,AMNE10.jpg,AMNE15.jpg,AMSA15.jpg,AMNE15.jpg,MN,1,num_2,32,num_6,1.98339785542,,,2018_Jan_10_1554,60.0113949023,MAFE4ImagesEEG,001,102745,
AMNE23.JPG,AMNE24.JPG,AMNE22.JPG,AMSA24.JPG,AMSA22.JPG,AMSA23.JPG,,,,,,,,,0,6,6,9,,,,,,,,,,,,,,,AMSA18.jpg,AMSA07.jpg,AMNE15.jpg,AMNE01.jpg,AMNE01.jpg,MN,1,num_4,16,num_4,0.816794909304,,,2018_Jan_10_1554,60.0113949023,MAFE4ImagesEEG,001,102745,
AFSA21.JPG,AFNE22.JPG,AFNE21.JPG,AFSA23.JPG,AFSA22.JPG,AFNE23.JPG,,,,,,,,,0,7,7,0,,,,,,,,,,,,,,,AMSA16.jpg,AMSA18.jpg,AMNE09.jpg,AMNE11.jpg,AMSA18.jpg,MS,2,num_6,32,num_8,1.2001231641,,,2018_Jan_10_1554,60.0113949023,MAFE4ImagesEEG,001,102745,
AFNE23.JPG,AFNE24.JPG,AFNE22.JPG,AFSA24.JPG,AFSA22.JPG,AFSA23.JPG,,,,,,,,,0,8,8,8,,,,,,,,,,,,,,,AMSA11.jpg,AMNE19.jpg,AMSA12.jpg,AMNE04.jpg,AMSA12.jpg,MS,2,num_2,16,num_2,1.48337283777,,,2018_Jan_10_1554,60.0113949023,MAFE4ImagesEEG,001,102745,
AMSA25.JPG,AMNE24.JPG,AMSA24.JPG,AMNE26.JPG,AMSA21.JPG,AMNE25.JPG,,,,,,,,,0,9,9,3,,,,,,,,,,,,,,,AMNE20.jpg,AMNE15.jpg,AMSA04.jpg,AMSA09.jpg,AMNE15.jpg,MN,1,num_6,16,num_6,0.70014689886,,,2018_Jan_10_1554,60.0113949023,MAFE4ImagesEEG,001,102745,
AMSA25.JPG,AMNE24.JPG,AMSA24.JPG,AMNE26.JPG,AMSA21.JPG,AMNE25.JPG,,,,,,,,,,,,,0,0,0,3,,,,,,,,,,,AFSA13.jpg,AFSA11.jpg,AFNE01.jpg,AFNE16.jpg,AFNE01.jpg,FN,3,num_2,32,num_8,1.08341068518,,,2018_Jan_10_1554,60.0113949023,MAFE4ImagesEEG,001,102745,
AMNE22.JPG,AMSA24.JPG,AMSA22.JPG,AMNE25.JPG,AMNE24.JPG,AMSA25.JPG,,,,,,,,,,,,,0,1,1,7,,,,,,,,,,,AFSA06.jpg,AFNE17.jpg,AFNE02.jpg,AFSA15.jpg,AFSA15.jpg,FS,4,num_4,32,num_2,1.68313901848,,,2018_Jan_10_1554,60.0113949023,MAFE4ImagesEEG,001,102745,
AFNE22.JPG,AFSA24.JPG,AFSA22.JPG,AFNE25.JPG,AFNE24.JPG,AFSA25.JPG,,,,,,,,,,,,,0,2,2,6,,,,,,,,,,,AFSA05.jpg,AFNE13.jpg,AFNE02.jpg,AFSA01.jpg,AFNE02.jpg,FN,3,num_2,32,num_6,1.70002245181,,,2018_Jan_10_1554,60.0113949023,MAFE4ImagesEEG,001,102745,
AMSA21.JPG,AMNE23.JPG,AMNE21.JPG,AMSA25.JPG,AMNE25.JPG,AMSA23.JPG,,,,,,,,,,,,,0,3,3,5,,,,,,,,,,,AFNE14.jpg,AFNE04.jpg,AFSA11.jpg,AFSA05.jpg,AFNE04.jpg,FN,3,num_6,16,num_6,2.78330131271,,,2018_Jan_10_1554,60.0113949023,MAFE4ImagesEEG,001,102745,
AMSA21.JPG,AMNE22.JPG,AMNE21.JPG,AMSA23.JPG,AMSA22.JPG,AMNE23.JPG,,,,,,,,,,,,,0,4,4,1,,,,,,,,,,,AFNE05.jpg,AFSA18.jpg,AFSA10.jpg,AFNE11.jpg,AFNE11.jpg,FN,3,num_4,16,num_4,2.30003431905,,,2018_Jan_10_1554,60.0113949023,MAFE4ImagesEEG,001,102745,
AMNE23.JPG,AMNE24.JPG,AMNE22.JPG,AMSA24.JPG,AMSA22.JPG,AMSA23.JPG,,,,,,,,,,,,,0,5,5,9,,,,,,,,,,,AFSA15.jpg,AFNE10.jpg,AFSA13.jpg,AFNE05.jpg,AFSA13.jpg,FS,4,num_2,16,num_2,1.633347339,,,2018_Jan_10_1554,60.0113949023,MAFE4ImagesEEG,001,102745,
AFSA21.JPG,AFNE22.JPG,AFNE21.JPG,AFSA23.JPG,AFSA22.JPG,AFNE23.JPG,,,,,,,,,,,,,0,6,6,0,,,,,,,,,,,AFNE09.jpg,AFSA08.jpg,AFSA09.jpg,AFNE01.jpg,AFSA08.jpg,FS,4,num_6,32,num_8,0.883504982572,,,2018_Jan_10_1554,60.0113949023,MAFE4ImagesEEG,001,102745,
AFSA25.JPG,AFNE24.JPG,AFSA24.JPG,AFNE21.JPG,AFSA21.JPG,AFNE25.JPG,,,,,,,,,,,,,0,7,7,2,,,,,,,,,,,AFSA01.jpg,AFSA14.jpg,AFNE03.jpg,AFNE12.jpg,AFNE03.jpg,FN,3,num_2,16,num_2,0.700175765436,,,2018_Jan_10_1554,60.0113949023,MAFE4ImagesEEG,001,102745,
AFSA21.JPG,AFNE23.JPG,AFNE21.JPG,AFSA25.JPG,AFNE25.JPG,AFSA23.JPG,,,,,,,,,,,,,0,8,8,4,,,,,,,,,,,AFNE07.jpg,AFNE09.jpg,AFSA12.jpg,AFSA05.jpg,AFNE07.jpg,FN,3,num_8,16,num_8,1.18339112005,,,2018_Jan_10_1554,60.0113949023,MAFE4ImagesEEG,001,102745,
AFNE23.JPG,AFNE24.JPG,AFNE22.JPG,AFSA24.JPG,AFSA22.JPG,AFSA23.JPG,,,,,,,,,,,,,0,9,9,8,,,,,,,,,,,AFNE10.jpg,AFNE01.jpg,AFSA09.jpg,AFSA20.jpg,AFSA20.jpg,FS,4,num_4,16,num_4,1.15022307471,,,2018_Jan_10_1554,60.0113949023,MAFE4ImagesEEG,001,102745,
AFSA25.JPG,AFNE24.JPG,AFSA24.JPG,AFNE21.JPG,AFSA21.JPG,AFNE25.JPG,,,,,,,,,,,,,,,,,0,0,0,2,,,,,,,AMSA13.jpg,AMSA07.jpg,AMNE11.jpg,AMNE07.jpg,AMSA07.jpg,MS,2,num_6,16,num_6,1.10006863857,,,2018_Jan_10_1554,60.0113949023,MAFE4ImagesEEG,001,102745,
AFSA21.JPG,AFNE22.JPG,AFNE21.JPG,AFSA23.JPG,AFSA22.JPG,AFNE23.JPG,,,,,,,,,,,,,,,,,0,1,1,0,,,,,,,AMNE14.jpg,AMNE04.jpg,AMSA13.jpg,AMSA15.jpg,AMSA13.jpg,MS,2,num_2,16,num_2,1.45002774405,,,2018_Jan_10_1554,60.0113949023,MAFE4ImagesEEG,001,102745,
AMNE22.JPG,AMSA24.JPG,AMSA22.JPG,AMNE25.JPG,AMNE24.JPG,AMSA25.JPG,,,,,,,,,,,,,,,,,0,2,2,7,,,,,,,AMNE03.jpg,AMSA12.jpg,AMNE15.jpg,AMSA11.jpg,AMNE15.jpg,MN,1,num_2,16,num_2,0.816779193003,,,2018_Jan_10_1554,60.0113949023,MAFE4ImagesEEG,001,102745,
AMNE23.JPG,AMNE24.JPG,AMNE22.JPG,AMSA24.JPG,AMSA22.JPG,AMSA23.JPG,,,,,,,,,,,,,,,,,0,3,3,9,,,,,,,AMNE08.jpg,AMSA16.jpg,AMSA17.jpg,AMNE17.jpg,AMNE17.jpg,MN,1,num_4,16,num_4,1.90002020658,,,2018_Jan_10_1554,60.0113949023,MAFE4ImagesEEG,001,102745,
AMSA21.JPG,AMNE23.JPG,AMNE21.JPG,AMSA25.JPG,AMNE25.JPG,AMSA23.JPG,,,,,,,,,,,,,,,,,0,4,4,5,,,,,,,AMNE04.jpg,AMSA12.jpg,AMNE01.jpg,AMSA04.jpg,AMNE04.jpg,MN,1,num_8,32,num_2,1.80002886662,,,2018_Jan_10_1554,60.0113949023,MAFE4ImagesEEG,001,102745,
AFNE22.JPG,AFSA24.JPG,AFSA22.JPG,AFNE25.JPG,AFNE24.JPG,AFSA25.JPG,,,,,,,,,,,,,,,,,0,5,5,6,,,,,,,AMNE15.jpg,AMSA02.jpg,AMSA20.jpg,AMNE03.jpg,AMSA02.jpg,MS,2,num_6,32,num_4,1.33341405308,,,2018_Jan_10_1554,60.0113949023,MAFE4ImagesEEG,001,102745,
AMSA25.JPG,AMNE24.JPG,AMSA24.JPG,AMNE26.JPG,AMSA21.JPG,AMNE25.JPG,,,,,,,,,,,,,,,,,0,6,6,3,,,,,,,AMSA12.jpg,AMSA13.jpg,AMNE18.jpg,AMNE07.jpg,AMSA12.jpg,MS,2,num_8,16,num_8,1.78334685788,,,2018_Jan_10_1554,60.0113949023,MAFE4ImagesEEG,001,102745,
AFNE23.JPG,AFNE24.JPG,AFNE22.JPG,AFSA24.JPG,AFSA22.JPG,AFSA23.JPG,,,,,,,,,,,,,,,,,0,7,7,8,,,,,,,AMNE15.jpg,AMSA16.jpg,AMNE08.jpg,AMSA10.jpg,AMNE08.jpg,MN,1,num_2,32,num_6,1.41666308511,,,2018_Jan_10_1554,60.0113949023,MAFE4ImagesEEG,001,102745,
AFSA21.JPG,AFNE23.JPG,AFNE21.JPG,AFSA25.JPG,AFNE25.JPG,AFSA23.JPG,,,,,,,,,,,,,,,,,0,8,8,4,,,,,,,AMNE09.jpg,AMSA19.jpg,AMSA05.jpg,AMNE07.jpg,AMNE09.jpg,MN,1,num_8,16,num_8,1.40008756216,,,2018_Jan_10_1554,60.0113949023,MAFE4ImagesEEG,001,102745,
AMSA21.JPG,AMNE22.JPG,AMNE21.JPG,AMSA23.JPG,AMSA22.JPG,AMNE23.JPG,,,,,,,,,,,,,,,,,0,9,9,1,,,,,,,AMNE10.jpg,AMNE05.jpg,AMSA02.jpg,AMSA17.jpg,AMNE05.jpg,MN,1,num_6,32,num_2,2.16671296023,,,2018_Jan_10_1554,60.0113949023,MAFE4ImagesEEG,001,102745,
AMNE23.JPG,AMNE24.JPG,AMNE22.JPG,AMSA24.JPG,AMSA22.JPG,AMSA23.JPG,,,,,,,,,,,,,,,,,,,,,0,0,0,9,,,AFSA14.jpg,AFNE18.jpg,AFSA15.jpg,AFNE02.jpg,AFSA15.jpg,FS,4,num_2,32,num_8,1.91667912202,,,2018_Jan_10_1554,60.0113949023,MAFE4ImagesEEG,001,102745,
AMSA21.JPG,AMNE22.JPG,AMNE21.JPG,AMSA23.JPG,AMSA22.JPG,AMNE23.JPG,,,,,,,,,,,,,,,,,,,,,0,1,1,1,,,AFNE12.jpg,AFNE20.jpg,AFSA02.jpg,AFSA18.jpg,AFNE12.jpg,FN,3,num_8,16,num_8,1.13342303364,,,2018_Jan_10_1554,60.0113949023,MAFE4ImagesEEG,001,102745,
AFSA21.JPG,AFNE23.JPG,AFNE21.JPG,AFSA25.JPG,AFNE25.JPG,AFSA23.JPG,,,,,,,,,,,,,,,,,,,,,0,2,2,4,,,AFNE11.jpg,AFSA08.jpg,AFNE17.jpg,AFSA19.jpg,AFNE17.jpg,FN,3,num_2,32,num_4,1.23347242759,,,2018_Jan_10_1554,60.0113949023,MAFE4ImagesEEG,001,102745,
AFSA21.JPG,AFNE22.JPG,AFNE21.JPG,AFSA23.JPG,AFSA22.JPG,AFNE23.JPG,,,,,,,,,,,,,,,,,,,,,0,3,3,0,,,AFNE20.jpg,AFSA16.jpg,AFNE07.jpg,AFSA08.jpg,AFSA08.jpg,FS,4,num_4,32,num_2,1.15444401326,,,2018_Jan_10_1554,60.0113949023,MAFE4ImagesEEG,001,102745,
AFNE22.JPG,AFSA24.JPG,AFSA22.JPG,AFNE25.JPG,AFNE24.JPG,AFSA25.JPG,,,,,,,,,,,,,,,,,,,,,0,4,4,6,,,AFSA08.jpg,AFNE20.jpg,AFNE07.jpg,AFSA09.jpg,AFSA09.jpg,FS,4,num_4,32,num_8,1.20040862262,,,2018_Jan_10_1554,60.0113949023,MAFE4ImagesEEG,001,102745,
AFSA25.JPG,AFNE24.JPG,AFSA24.JPG,AFNE21.JPG,AFSA21.JPG,AFNE25.JPG,,,,,,,,,,,,,,,,,,,,,0,5,5,2,,,AFNE15.jpg,AFNE20.jpg,AFSA02.jpg,AFSA05.jpg,AFSA05.jpg,FS,4,num_4,16,num_4,0.850094137248,,,2018_Jan_10_1554,60.0113949023,MAFE4ImagesEEG,001,102745,
AFNE23.JPG,AFNE24.JPG,AFNE22.JPG,AFSA24.JPG,AFSA22.JPG,AFSA23.JPG,,,,,,,,,,,,,,,,,,,,,0,6,6,8,,,AFSA15.jpg,AFNE03.jpg,AFNE19.jpg,AFSA19.jpg,AFSA15.jpg,FS,4,num_8,16,num_8,1.15010728757,,,2018_Jan_10_1554,60.0113949023,MAFE4ImagesEEG,001,102745,
AMSA25.JPG,AMNE24.JPG,AMSA24.JPG,AMNE26.JPG,AMSA21.JPG,AMNE25.JPG,,,,,,,,,,,,,,,,,,,,,0,7,7,3,,,AFNE07.jpg,AFSA02.jpg,AFNE03.jpg,AFSA11.jpg,AFSA11.jpg,FS,4,num_4,32,num_2,2.33332552854,,,2018_Jan_10_1554,60.0113949023,MAFE4ImagesEEG,001,102745,
AMSA21.JPG,AMNE23.JPG,AMNE21.JPG,AMSA25.JPG,AMNE25.JPG,AMSA23.JPG,,,,,,,,,,,,,,,,,,,,,0,8,8,5,,,AFSA10.jpg,AFSA05.jpg,AFNE14.jpg,AFNE05.jpg,AFSA05.jpg,FS,4,num_6,16,num_6,0.533457031939,,,2018_Jan_10_1554,60.0113949023,MAFE4ImagesEEG,001,102745,
AMNE22.JPG,AMSA24.JPG,AMSA22.JPG,AMNE25.JPG,AMNE24.JPG,AMSA25.JPG,,,,,,,,,,,,,,,,,,,,,0,9,9,7,,,AFSA07.jpg,AFNE08.jpg,AFSA04.jpg,AFNE20.jpg,AFSA04.jpg,FS,4,num_2,32,num_8,1.71669804584,,,2018_Jan_10_1554,60.0113949023,MAFE4ImagesEEG,001,102745,
,,,,,,,,,,,,,,,,,,,,,,,,,,,,,,,,,,,,,,,,,,,space,7.53285756893,2018_Jan_10_1554,60.0113949023,MAFE4ImagesEEG,001,102745,
AFNE01.JPG,AFNE01.JPG,AFNE01.JPG,AFNE01.JPG,AFNE01.JPG,AFNE01.JPG,0,0,0,9,,,,,,,,,,,,,,,,,,,,,,,AMSA03.jpg,AMNE17.jpg,AMSA12.jpg,AMNE13.jpg,AMNE13.jpg,MN,1,num_4,16,num_4,4.91638949374,,,2018_Jan_10_1554,60.0113949023,MAFE4ImagesEEG,001,102745,
AFNE01.JPG,AFNE01.JPG,AFNE01.JPG,AFNE01.JPG,AFNE01.JPG,AFNE01.JPG,0,1,1,0,,,,,,,,,,,,,,,,,,,,,,,AMNE03.jpg,AMSA17.jpg,AMSA19.jpg,AMNE07.jpg,AMSA17.jpg,MS,2,num_6,16,num_6,1.06684189779,,,2018_Jan_10_1554,60.0113949023,MAFE4ImagesEEG,001,102745,
AFNE01.JPG,AFNE01.JPG,AFNE01.JPG,AFNE01.JPG,AFNE01.JPG,AFNE01.JPG,0,2,2,7,,,,,,,,,,,,,,,,,,,,,,,AMSA03.jpg,AMNE02.jpg,AMNE13.jpg,AMSA14.jpg,AMNE02.jpg,MN,1,num_6,32,num_4,0.866762674879,,,2018_Jan_10_1554,60.0113949023,MAFE4ImagesEEG,001,102745,
AFNE01.JPG,AFNE01.JPG,AFNE01.JPG,AFNE01.JPG,AFNE01.JPG,AFNE01.JPG,0,3,3,8,,,,,,,,,,,,,,,,,,,,,,,AMSA15.jpg,AMNE02.jpg,AMNE05.jpg,AMSA04.jpg,AMSA15.jpg,MS,2,num_8,32,num_4,1.81664191629,,,2018_Jan_10_1554,60.0113949023,MAFE4ImagesEEG,001,102745,
AFNE01.JPG,AFNE01.JPG,AFNE01.JPG,AFNE01.JPG,AFNE01.JPG,AFNE01.JPG,0,4,4,5,,,,,,,,,,,,,,,,,,,,,,,AMSA14.jpg,AMNE11.jpg,AMSA15.jpg,AMNE14.jpg,AMNE14.jpg,MN,1,num_4,16,num_4,1.35007553431,,,2018_Jan_10_1554,60.0113949023,MAFE4ImagesEEG,001,102745,
AFNE01.JPG,AFNE01.JPG,AFNE01.JPG,AFNE01.JPG,AFNE01.JPG,AFNE01.JPG,0,5,5,6,,,,,,,,,,,,,,,,,,,,,,,AMNE05.jpg,AMNE15.jpg,AMSA09.jpg,AMSA12.jpg,AMNE15.jpg,MN,1,num_6,32,num_8,1.33339352557,,,2018_Jan_10_1554,60.0113949023,MAFE4ImagesEEG,001,102745,
AFNE01.JPG,AFNE01.JPG,AFNE01.JPG,AFNE01.JPG,AFNE01.JPG,AFNE01.JPG,0,6,6,2,,,,,,,,,,,,,,,,,,,,,,,AMSA08.jpg,AMNE15.jpg,AMSA11.jpg,AMNE14.jpg,AMNE15.jpg,MN,1,num_6,16,num_6,0.683442759328,,,2018_Jan_10_1554,60.0113949023,MAFE4ImagesEEG,001,102745,
AFNE01.JPG,AFNE01.JPG,AFNE01.JPG,AFNE01.JPG,AFNE01.JPG,AFNE01.JPG,0,7,7,3,,,,,,,,,,,,,,,,,,,,,,,AMNE18.jpg,AMSA16.jpg,AMSA20.jpg,AMNE04.jpg,AMSA16.jpg,MS,2,num_6,16,num_6,0.950223074527,,,2018_Jan_10_1554,60.0113949023,MAFE4ImagesEEG,001,102745,
AFNE01.JPG,AFNE01.JPG,AFNE01.JPG,AFNE01.JPG,AFNE01.JPG,AFNE01.JPG,0,8,8,1,,,,,,,,,,,,,,,,,,,,,,,AMSA12.jpg,AMNE17.jpg,AMNE04.jpg,AMSA04.jpg,AMNE17.jpg,MN,1,num_6,32,num_4,0.900120598264,,,2018_Jan_10_1554,60.0113949023,MAFE4ImagesEEG,001,102745,
AFNE01.JPG,AFNE01.JPG,AFNE01.JPG,AFNE01.JPG,AFNE01.JPG,AFNE01.JPG,0,9,9,4,,,,,,,,,,,,,,,,,,,,,,,AMNE13.jpg,AMSA08.jpg,AMSA03.jpg,AMNE01.jpg,AMNE13.jpg,MN,1,num_8,16,num_8,1.25006398768,,,2018_Jan_10_1554,60.0113949023,MAFE4ImagesEEG,001,102745,
AFNE01.JPG,AFNE01.JPG,AFNE01.JPG,AFNE01.JPG,AFNE01.JPG,AFNE01.JPG,1,0,10,3,,,,,,,,,,,,,,,,,,,,,,,AMNE16.jpg,AMNE08.jpg,AMSA14.jpg,AMSA02.jpg,AMNE16.jpg,MN,1,num_8,16,num_8,1.8333492633,,,2018_Jan_10_1554,60.0113949023,MAFE4ImagesEEG,001,102745,
AFNE01.JPG,AFNE01.JPG,AFNE01.JPG,AFNE01.JPG,AFNE01.JPG,AFNE01.JPG,1,1,11,8,,,,,,,,,,,,,,,,,,,,,,,AMNE10.jpg,AMNE02.jpg,AMSA18.jpg,AMSA01.jpg,AMSA01.jpg,MS,2,num_4,16,num_4,3.66664271825,,,2018_Jan_10_1554,60.0113949023,MAFE4ImagesEEG,001,102745,
AFNE01.JPG,AFNE01.JPG,AFNE01.JPG,AFNE01.JPG,AFNE01.JPG,AFNE01.JPG,1,2,12,0,,,,,,,,,,,,,,,,,,,,,,,AMSA04.jpg,AMNE01.jpg,AMSA20.jpg,AMNE14.jpg,AMNE14.jpg,MN,1,num_4,32,num_2,1.46669628168,,,2018_Jan_10_1554,60.0113949023,MAFE4ImagesEEG,001,102745,
AFNE01.JPG,AFNE01.JPG,AFNE01.JPG,AFNE01.JPG,AFNE01.JPG,AFNE01.JPG,1,3,13,4,,,,,,,,,,,,,,,,,,,,,,,AMNE08.jpg,AMNE06.jpg,AMSA18.jpg,AMSA15.jpg,AMSA15.jpg,MS,2,num_4,32,num_8,1.4833898372,,,2018_Jan_10_1554,60.0113949023,MAFE4ImagesEEG,001,102745,
AFNE01.JPG,AFNE01.JPG,AFNE01.JPG,AFNE01.JPG,AFNE01.JPG,AFNE01.JPG,1,4,14,9,,,,,,,,,,,,,,,,,,,,,,,AMNE11.jpg,AMSA04.jpg,AMNE18.jpg,AMSA15.jpg,AMNE18.jpg,MN,1,num_2,16,num_2,1.36673220457,,,2018_Jan_10_1554,60.0113949023,MAFE4ImagesEEG,001,102745,
AFNE01.JPG,AFNE01.JPG,AFNE01.JPG,AFNE01.JPG,AFNE01.JPG,AFNE01.JPG,1,5,15,7,,,,,,,,,,,,,,,,,,,,,,,AMSA06.jpg,AMNE04.jpg,AMSA12.jpg,AMNE02.jpg,AMSA12.jpg,MS,2,num_2,32,num_6,1.06680372963,,,2018_Jan_10_1554,60.0113949023,MAFE4ImagesEEG,001,102745,
AFNE01.JPG,AFNE01.JPG,AFNE01.JPG,AFNE01.JPG,AFNE01.JPG,AFNE01.JPG,1,6,16,6,,,,,,,,,,,,,,,,,,,,,,,AMNE01.jpg,AMSA13.jpg,AMSA02.jpg,AMNE19.jpg,AMNE01.jpg,MN,1,num_8,16,num_8,0.933125066105,,,2018_Jan_10_1554,60.0113949023,MAFE4ImagesEEG,001,102745,
AFNE01.JPG,AFNE01.JPG,AFNE01.JPG,AFNE01.JPG,AFNE01.JPG,AFNE01.JPG,1,7,17,1,,,,,,,,,,,,,,,,,,,,,,,AMSA03.jpg,AMSA11.jpg,AMNE07.jpg,AMNE01.jpg,AMSA11.jpg,MS,2,num_6,32,num_8,1.05006815726,,,2018_Jan_10_1554,60.0113949023,MAFE4ImagesEEG,001,102745,
AFNE01.JPG,AFNE01.JPG,AFNE01.JPG,AFNE01.JPG,AFNE01.JPG,AFNE01.JPG,1,8,18,2,,,,,,,,,,,,,,,,,,,,,,,AMNE05.jpg,AMSA03.jpg,AMNE06.jpg,AMSA17.jpg,AMSA17.jpg,MS,2,num_4,32,num_2,1.78338630893,,,2018_Jan_10_1554,60.0113949023,MAFE4ImagesEEG,001,102745,
AFNE01.JPG,AFNE01.JPG,AFNE01.JPG,AFNE01.JPG,AFNE01.JPG,AFNE01.JPG,1,9,19,5,,,,,,,,,,,,,,,,,,,,,,,AMSA03.jpg,AMNE15.jpg,AMNE10.jpg,AMSA10.jpg,AMSA03.jpg,MS,2,num_8,16,num_8,0.983446928672,,,2018_Jan_10_1554,60.0113949023,MAFE4ImagesEEG,001,102745,
AFNE01.JPG,AFNE01.JPG,AFNE01.JPG,AFNE01.JPG,AFNE01.JPG,AFNE01.JPG,2,0,20,6,,,,,,,,,,,,,,,,,,,,,,,AMNE11.jpg,AMSA15.jpg,AMSA06.jpg,AMNE07.jpg,AMNE07.jpg,MN,1,num_4,16,num_4,1.06676908955,,,2018_Jan_10_1554,60.0113949023,MAFE4ImagesEEG,001,102745,
AFNE01.JPG,AFNE01.JPG,AFNE01.JPG,AFNE01.JPG,AFNE01.JPG,AFNE01.JPG,2,1,21,2,,,,,,,,,,,,,,,,,,,,,,,AMSA18.jpg,AMNE09.jpg,AMNE19.jpg,AMSA19.jpg,AMSA19.jpg,MS,2,num_4,16,num_4,0.766776145902,,,2018_Jan_10_1554,60.0113949023,MAFE4ImagesEEG,001,102745,
AFNE01.JPG,AFNE01.JPG,AFNE01.JPG,AFNE01.JPG,AFNE01.JPG,AFNE01.JPG,2,2,22,1,,,,,,,,,,,,,,,,,,,,,,,AMNE03.jpg,AMSA04.jpg,AMNE14.jpg,AMSA07.jpg,AMSA07.jpg,MS,2,num_4,32,num_8,0.96677935333,,,2018_Jan_10_1554,60.0113949023,MAFE4ImagesEEG,001,102745,
AFNE01.JPG,AFNE01.JPG,AFNE01.JPG,AFNE01.JPG,AFNE01.JPG,AFNE01.JPG,2,3,23,4,,,,,,,,,,,,,,,,,,,,,,,AMSA04.jpg,AMNE16.jpg,AMSA11.jpg,AMNE10.jpg,AMSA11.jpg,MS,2,num_2,32,num_8,0.90010616486,,,2018_Jan_10_1554,60.0113949023,MAFE4ImagesEEG,001,102745,
AFNE01.JPG,AFNE01.JPG,AFNE01.JPG,AFNE01.JPG,AFNE01.JPG,AFNE01.JPG,2,4,24,8,,,,,,,,,,,,,,,,,,,,,,,AMSA19.jpg,AMSA11.jpg,AMNE07.jpg,AMNE14.jpg,AMSA19.jpg,MS,2,num_8,16,num_8,0.783477399033,,,2018_Jan_10_1554,60.0113949023,MAFE4ImagesEEG,001,102745,
AFNE01.JPG,AFNE01.JPG,AFNE01.JPG,AFNE01.JPG,AFNE01.JPG,AFNE01.JPG,2,5,25,9,,,,,,,,,,,,,,,,,,,,,,,AMSA20.jpg,AMSA11.jpg,AMNE07.jpg,AMNE12.jpg,AMNE12.jpg,MN,1,num_4,16,num_4,1.01680741808,,,2018_Jan_10_1554,60.0113949023,MAFE4ImagesEEG,001,102745,
AFNE01.JPG,AFNE01.JPG,AFNE01.JPG,AFNE01.JPG,AFNE01.JPG,AFNE01.JPG,2,6,26,7,,,,,,,,,,,,,,,,,,,,,,,AMNE05.jpg,AMSA06.jpg,AMSA09.jpg,AMNE07.jpg,AMNE07.jpg,MN,1,num_4,32,num_8,2.13337460184,,,2018_Jan_10_1554,60.0113949023,MAFE4ImagesEEG,001,102745,
AFNE01.JPG,AFNE01.JPG,AFNE01.JPG,AFNE01.JPG,AFNE01.JPG,AFNE01.JPG,2,7,27,5,,,,,,,,,,,,,,,,,,,,,,,AMNE03.jpg,AMSA06.jpg,AMNE09.jpg,AMSA07.jpg,AMNE09.jpg,MN,1,num_2,16,num_2,0.78345109825,,,2018_Jan_10_1554,60.0113949023,MAFE4ImagesEEG,001,102745,
AFNE01.JPG,AFNE01.JPG,AFNE01.JPG,AFNE01.JPG,AFNE01.JPG,AFNE01.JPG,2,8,28,0,,,,,,,,,,,,,,,,,,,,,,,AMSA06.jpg,AMNE19.jpg,AMSA11.jpg,AMNE10.jpg,AMSA06.jpg,MS,2,num_8,16,num_8,1.43340667593,,,2018_Jan_10_1554,60.0113949023,MAFE4ImagesEEG,001,102745,
AFNE01.JPG,AFNE01.JPG,AFNE01.JPG,AFNE01.JPG,AFNE01.JPG,AFNE01.JPG,2,9,29,3,,,,,,,,,,,,,,,,,,,,,,,AMNE17.jpg,AMSA10.jpg,AMNE15.jpg,AMSA03.jpg,AMNE17.jpg,MN,1,num_8,32,num_6,0.950074892724,,,2018_Jan_10_1554,60.0113949023,MAFE4ImagesEEG,001,102745,
AFNE01.JPG,AFNE01.JPG,AFNE01.JPG,AFNE01.JPG,AFNE01.JPG,AFNE01.JPG,3,0,30,0,,,,,,,,,,,,,,,,,,,,,,,AMSA11.jpg,AMSA09.jpg,AMNE05.jpg,AMNE07.jpg,AMNE07.jpg,MN,1,num_4,32,num_6,1.21648475365,,,2018_Jan_10_1554,60.0113949023,MAFE4ImagesEEG,001,102745,
AFNE01.JPG,AFNE01.JPG,AFNE01.JPG,AFNE01.JPG,AFNE01.JPG,AFNE01.JPG,3,1,31,1,,,,,,,,,,,,,,,,,,,,,,,AMSA09.jpg,AMNE18.jpg,AMNE20.jpg,AMSA07.jpg,AMSA09.jpg,MS,2,num_8,32,num_4,0.98343698564,,,2018_Jan_10_1554,60.0113949023,MAFE4ImagesEEG,001,102745,
AFNE01.JPG,AFNE01.JPG,AFNE01.JPG,AFNE01.JPG,AFNE01.JPG,AFNE01.JPG,3,2,32,2,,,,,,,,,,,,,,,,,,,,,,,AMNE12.jpg,AMNE02.jpg,AMSA04.jpg,AMSA03.jpg,AMSA03.jpg,MS,2,num_4,16,num_4,1.41673589312,,,2018_Jan_10_1554,60.0113949023,MAFE4ImagesEEG,001,102745,
AFNE01.JPG,AFNE01.JPG,AFNE01.JPG,AFNE01.JPG,AFNE01.JPG,AFNE01.JPG,3,3,33,3,,,,,,,,,,,,,,,,,,,,,,,AMSA04.jpg,AMSA16.jpg,AMNE10.jpg,AMNE05.jpg,AMNE05.jpg,MN,1,num_4,32,num_2,1.36699553207,,,2018_Jan_10_1554,60.0113949023,MAFE4ImagesEEG,001,102745,
AFNE01.JPG,AFNE01.JPG,AFNE01.JPG,AFNE01.JPG,AFNE01.JPG,AFNE01.JPG,3,4,34,5,,,,,,,,,,,,,,,,,,,,,,,AMSA04.jpg,AMNE05.jpg,AMNE19.jpg,AMSA19.jpg,AMNE19.jpg,MN,1,num_2,32,num_6,1.00014112564,,,2018_Jan_10_1554,60.0113949023,MAFE4ImagesEEG,001,102745,
AFNE01.JPG,AFNE01.JPG,AFNE01.JPG,AFNE01.JPG,AFNE01.JPG,AFNE01.JPG,3,5,35,6,,,,,,,,,,,,,,,,,,,,,,,AMSA20.jpg,AMSA09.jpg,AMNE18.jpg,AMNE08.jpg,AMSA20.jpg,MS,2,num_8,16,num_8,1.35010696691,,,2018_Jan_10_1554,60.0113949023,MAFE4ImagesEEG,001,102745,
AFNE01.JPG,AFNE01.JPG,AFNE01.JPG,AFNE01.JPG,AFNE01.JPG,AFNE01.JPG,3,6,36,9,,,,,,,,,,,,,,,,,,,,,,,AMNE11.jpg,AMSA12.jpg,AMNE13.jpg,AMSA14.jpg,AMSA14.jpg,MS,2,num_4,16,num_4,0.833450937876,,,2018_Jan_10_1554,60.0113949023,MAFE4ImagesEEG,001,102745,
AFNE01.JPG,AFNE01.JPG,AFNE01.JPG,AFNE01.JPG,AFNE01.JPG,AFNE01.JPG,3,7,37,4,,,,,,,,,,,,,,,,,,,,,,,AMSA19.jpg,AMNE07.jpg,AMNE03.jpg,AMSA20.jpg,AMSA19.jpg,MS,2,num_8,16,num_8,1.66659492766,,,2018_Jan_10_1554,60.0113949023,MAFE4ImagesEEG,001,102745,
AFNE01.JPG,AFNE01.JPG,AFNE01.JPG,AFNE01.JPG,AFNE01.JPG,AFNE01.JPG,3,8,38,8,,,,,,,,,,,,,,,,,,,,,,,AMSA20.jpg,AMNE09.jpg,AMSA16.jpg,AMNE01.jpg,AMNE09.jpg,MN,1,num_6,32,num_2,1.30010584416,,,2018_Jan_10_1554,60.0113949023,MAFE4ImagesEEG,001,102745,
AFNE01.JPG,AFNE01.JPG,AFNE01.JPG,AFNE01.JPG,AFNE01.JPG,AFNE01.JPG,3,9,39,7,,,,,,,,,,,,,,,,,,,,,,,AMSA03.jpg,AMSA15.jpg,AMNE02.jpg,AMNE09.jpg,AMNE02.jpg,MN,1,num_2,16,num_2,2.86644193484,,,2018_Jan_10_1554,60.0113949023,MAFE4ImagesEEG,001,102745,
AFNE01.JPG,AFNE01.JPG,AFNE01.JPG,AFNE01.JPG,AFNE01.JPG,AFNE01.JPG,4,0,40,5,,,,,,,,,,,,,,,,,,,,,,,AMSA10.jpg,AMNE08.jpg,AMNE18.jpg,AMSA15.jpg,AMNE18.jpg,MN,1,num_2,32,num_8,1.56642365269,,,2018_Jan_10_1554,60.0113949023,MAFE4ImagesEEG,001,102745,
AFNE01.JPG,AFNE01.JPG,AFNE01.JPG,AFNE01.JPG,AFNE01.JPG,AFNE01.JPG,4,1,41,3,,,,,,,,,,,,,,,,,,,,,,,AMNE03.jpg,AMSA05.jpg,AMNE18.jpg,AMSA17.jpg,AMSA17.jpg,MS,2,num_4,32,num_2,1.13344612671,,,2018_Jan_10_1554,60.0113949023,MAFE4ImagesEEG,001,102745,
AFNE01.JPG,AFNE01.JPG,AFNE01.JPG,AFNE01.JPG,AFNE01.JPG,AFNE01.JPG,4,2,42,8,,,,,,,,,,,,,,,,,,,,,,,AMNE17.jpg,AMNE05.jpg,AMSA03.jpg,AMSA08.jpg,AMNE05.jpg,MN,1,num_6,32,num_8,0.91678689071,,,2018_Jan_10_1554,60.0113949023,MAFE4ImagesEEG,001,102745,
AFNE01.JPG,AFNE01.JPG,AFNE01.JPG,AFNE01.JPG,AFNE01.JPG,AFNE01.JPG,4,3,43,7,,,,,,,,,,,,,,,,,,,,,,,AMSA16.jpg,AMNE13.jpg,AMSA03.jpg,AMNE10.jpg,AMNE13.jpg,MN,1,num_6,16,num_6,1.06661545532,,,2018_Jan_10_1554,60.0113949023,MAFE4ImagesEEG,001,102745,
AFNE01.JPG,AFNE01.JPG,AFNE01.JPG,AFNE01.JPG,AFNE01.JPG,AFNE01.JPG,4,4,44,1,,,,,,,,,,,,,,,,,,,,,,,AMNE08.jpg,AMNE07.jpg,AMSA06.jpg,AMSA08.jpg,AMNE08.jpg,MN,1,num_8,32,num_4,1.48347739899,,,2018_Jan_10_1554,60.0113949023,MAFE4ImagesEEG,001,102745,
AFNE01.JPG,AFNE01.JPG,AFNE01.JPG,AFNE01.JPG,AFNE01.JPG,AFNE01.JPG,4,5,45,0,,,,,,,,,,,,,,,,,,,,,,,AMSA10.jpg,AMNE20.jpg,AMSA08.jpg,AMNE11.jpg,AMNE11.jpg,MN,1,num_4,32,num_6,2.18338213931,,,2018_Jan_10_1554,60.0113949023,MAFE4ImagesEEG,001,102745,
AFNE01.JPG,AFNE01.JPG,AFNE01.JPG,AFNE01.JPG,AFNE01.JPG,AFNE01.JPG,4,6,46,9,,,,,,,,,,,,,,,,,,,,,,,AMNE07.jpg,AMNE12.jpg,AMSA15.jpg,AMSA18.jpg,AMSA15.jpg,MS,2,num_2,32,num_8,3.11657488137,,,2018_Jan_10_1554,60.0113949023,MAFE4ImagesEEG,001,102745,
AFNE01.JPG,AFNE01.JPG,AFNE01.JPG,AFNE01.JPG,AFNE01.JPG,AFNE01.JPG,4,7,47,6,,,,,,,,,,,,,,,,,,,,,,,AMNE10.jpg,AMNE06.jpg,AMSA11.jpg,AMSA06.jpg,AMNE06.jpg,MN,1,num_6,32,num_8,1.28338791244,,,2018_Jan_10_1554,60.0113949023,MAFE4ImagesEEG,001,102745,
AFNE01.JPG,AFNE01.JPG,AFNE01.JPG,AFNE01.JPG,AFNE01.JPG,AFNE01.JPG,4,8,48,4,,,,,,,,,,,,,,,,,,,,,,,AMNE16.jpg,AMSA03.jpg,AMSA06.jpg,AMNE17.jpg,AMNE16.jpg,MN,1,num_8,32,num_2,1.85002453672,,,2018_Jan_10_1554,60.0113949023,MAFE4ImagesEEG,001,102745,
AFNE01.JPG,AFNE01.JPG,AFNE01.JPG,AFNE01.JPG,AFNE01.JPG,AFNE01.JPG,4,9,49,2,,,,,,,,,,,,,,,,,,,,,,,AMSA05.jpg,AMNE10.jpg,AMNE20.jpg,AMSA01.jpg,AMSA05.jpg,MS,2,num_8,32,num_6,1.28346553165,,,2018_Jan_10_1554,60.0113949023,MAFE4ImagesEEG,001,102745,
AFNE01.JPG,AFNE01.JPG,AFNE01.JPG,AFNE01.JPG,AFNE01.JPG,AFNE01.JPG,5,0,50,7,,,,,,,,,,,,,,,,,,,,,,,AMSA06.jpg,AMNE19.jpg,AMSA09.jpg,AMNE03.jpg,AMSA09.jpg,MS,2,num_2,16,num_2,0.983400742291,,,2018_Jan_10_1554,60.0113949023,MAFE4ImagesEEG,001,102745,
AFNE01.JPG,AFNE01.JPG,AFNE01.JPG,AFNE01.JPG,AFNE01.JPG,AFNE01.JPG,5,1,51,9,,,,,,,,,,,,,,,,,,,,,,,AMNE05.jpg,AMSA03.jpg,AMSA05.jpg,AMNE02.jpg,AMNE05.jpg,MN,1,num_8,16,num_8,0.866834199987,,,2018_Jan_10_1554,60.0113949023,MAFE4ImagesEEG,001,102745,
AFNE01.JPG,AFNE01.JPG,AFNE01.JPG,AFNE01.JPG,AFNE01.JPG,AFNE01.JPG,5,2,52,3,,,,,,,,,,,,,,,,,,,,,,,AMSA15.jpg,AMSA12.jpg,AMNE19.jpg,AMNE10.jpg,AMSA15.jpg,MS,2,num_8,16,num_8,0.88342575985,,,2018_Jan_10_1554,60.0113949023,MAFE4ImagesEEG,001,102745,
AFNE01.JPG,AFNE01.JPG,AFNE01.JPG,AFNE01.JPG,AFNE01.JPG,AFNE01.JPG,5,3,53,6,,,,,,,,,,,,,,,,,,,,,,,AMSA12.jpg,AMSA02.jpg,AMNE18.jpg,AMNE17.jpg,AMSA12.jpg,MS,2,num_8,32,num_2,1.00038713333,,,2018_Jan_10_1554,60.0113949023,MAFE4ImagesEEG,001,102745,
AFNE01.JPG,AFNE01.JPG,AFNE01.JPG,AFNE01.JPG,AFNE01.JPG,AFNE01.JPG,5,4,54,2,,,,,,,,,,,,,,,,,,,,,,,AMSA18.jpg,AMNE04.jpg,AMSA01.jpg,AMNE02.jpg,AMSA18.jpg,MS,2,num_8,32,num_6,0.750169831794,,,2018_Jan_10_1554,60.0113949023,MAFE4ImagesEEG,001,102745,
AFNE01.JPG,AFNE01.JPG,AFNE01.JPG,AFNE01.JPG,AFNE01.JPG,AFNE01.JPG,5,5,55,1,,,,,,,,,,,,,,,,,,,,,,,AMSA09.jpg,AMNE06.jpg,AMNE05.jpg,AMSA18.jpg,AMSA18.jpg,MS,2,num_4,16,num_4,0.800232536625,,,2018_Jan_10_1554,60.0113949023,MAFE4ImagesEEG,001,102745,
AFNE01.JPG,AFNE01.JPG,AFNE01.JPG,AFNE01.JPG,AFNE01.JPG,AFNE01.JPG,5,6,56,5,,,,,,,,,,,,,,,,,,,,,,,AMSA04.jpg,AMNE09.jpg,AMSA13.jpg,AMNE03.jpg,AMSA13.jpg,MS,2,num_2,32,num_6,1.38339721411,,,2018_Jan_10_1554,60.0113949023,MAFE4ImagesEEG,001,102745,
AFNE01.JPG,AFNE01.JPG,AFNE01.JPG,AFNE01.JPG,AFNE01.JPG,AFNE01.JPG,5,7,57,8,,,,,,,,,,,,,,,,,,,,,,,AMNE16.jpg,AMNE12.jpg,AMSA06.jpg,AMSA10.jpg,AMNE16.jpg,MN,1,num_8,32,num_2,1.23344612704,,,2018_Jan_10_1554,60.0113949023,MAFE4ImagesEEG,001,102745,
AFNE01.JPG,AFNE01.JPG,AFNE01.JPG,AFNE01.JPG,AFNE01.JPG,AFNE01.JPG,5,8,58,4,,,,,,,,,,,,,,,,,,,,,,,AMSA15.jpg,AMSA18.jpg,AMNE05.jpg,AMNE18.jpg,AMSA15.jpg,MS,2,num_8,16,num_8,2.18338374305,,,2018_Jan_10_1554,60.0113949023,MAFE4ImagesEEG,001,102745,
AFNE01.JPG,AFNE01.JPG,AFNE01.JPG,AFNE01.JPG,AFNE01.JPG,AFNE01.JPG,5,9,59,0,,,,,,,,,,,,,,,,,,,,,,,AMNE18.jpg,AMSA03.jpg,AMNE08.jpg,AMSA14.jpg,AMNE18.jpg,MN,1,num_8,32,num_4,1.23341629794,,,2018_Jan_10_1554,60.0113949023,MAFE4ImagesEEG,001,102745,
,,,,,,,,,,,,,,,,,,,,,,,,,,,,,,,,,,,,,,,,,,,space,10.5490632788,2018_Jan_10_1554,60.0113949023,MAFE4ImagesEEG,001,102745,
AFNE01.JPG,AFNE01.JPG,AFNE01.JPG,AFNE01.JPG,AFNE01.JPG,AFNE01.JPG,,,,,0,0,0,8,,,,,,,,,,,,,,,,,,,AFSA14.jpg,AFSA01.jpg,AFNE04.jpg,AFNE14.jpg,AFSA01.jpg,FS,4,num_6,16,num_6,1.65005468624,,,2018_Jan_10_1554,60.0113949023,MAFE4ImagesEEG,001,102745,
AFNE01.JPG,AFNE01.JPG,AFNE01.JPG,AFNE01.JPG,AFNE01.JPG,AFNE01.JPG,,,,,0,1,1,2,,,,,,,,,,,,,,,,,,,AFSA03.jpg,AFNE11.jpg,AFNE03.jpg,AFSA01.jpg,AFNE03.jpg,FN,3,num_2,32,num_4,0.950086760102,,,2018_Jan_10_1554,60.0113949023,MAFE4ImagesEEG,001,102745,
AFNE01.JPG,AFNE01.JPG,AFNE01.JPG,AFNE01.JPG,AFNE01.JPG,AFNE01.JPG,,,,,0,2,2,7,,,,,,,,,,,,,,,,,,,AFSA14.jpg,AFSA20.jpg,AFNE13.jpg,AFNE11.jpg,AFNE11.jpg,FN,3,num_4,32,num_8,0.883436986012,,,2018_Jan_10_1554,60.0113949023,MAFE4ImagesEEG,001,102745,
AFNE01.JPG,AFNE01.JPG,AFNE01.JPG,AFNE01.JPG,AFNE01.JPG,AFNE01.JPG,,,,,0,3,3,6,,,,,,,,,,,,,,,,,,,AFSA14.jpg,AFNE02.jpg,AFSA09.jpg,AFNE10.jpg,AFNE02.jpg,FN,3,num_6,32,num_4,1.20005837455,,,2018_Jan_10_1554,60.0113949023,MAFE4ImagesEEG,001,102745,
AFNE01.JPG,AFNE01.JPG,AFNE01.JPG,AFNE01.JPG,AFNE01.JPG,AFNE01.JPG,,,,,0,4,4,1,,,,,,,,,,,,,,,,,,,AFNE02.jpg,AFSA01.jpg,AFSA11.jpg,AFNE08.jpg,AFNE02.jpg,FN,3,num_8,32,num_4,0.75017849193,,,2018_Jan_10_1554,60.0113949023,MAFE4ImagesEEG,001,102745,
AFNE01.JPG,AFNE01.JPG,AFNE01.JPG,AFNE01.JPG,AFNE01.JPG,AFNE01.JPG,,,,,0,5,5,3,,,,,,,,,,,,,,,,,,,AFNE18.jpg,AFSA08.jpg,AFNE06.jpg,AFSA11.jpg,AFNE18.jpg,FN,3,num_8,32,num_2,3.68330772757,,,2018_Jan_10_1554,60.0113949023,MAFE4ImagesEEG,001,102745,
AFNE01.JPG,AFNE01.JPG,AFNE01.JPG,AFNE01.JPG,AFNE01.JPG,AFNE01.JPG,,,,,0,6,6,0,,,,,,,,,,,,,,,,,,,AFSA12.jpg,AFNE01.jpg,AFNE11.jpg,AFSA16.jpg,AFNE01.jpg,FN,3,num_6,32,num_8,1.11677566473,,,2018_Jan_10_1554,60.0113949023,MAFE4ImagesEEG,001,102745,
AFNE01.JPG,AFNE01.JPG,AFNE01.JPG,AFNE01.JPG,AFNE01.JPG,AFNE01.JPG,,,,,0,7,7,4,,,,,,,,,,,,,,,,,,,AFSA05.jpg,AFNE13.jpg,AFNE08.jpg,AFSA13.jpg,AFNE13.jpg,FN,3,num_6,32,num_4,1.06677710824,,,2018_Jan_10_1554,60.0113949023,MAFE4ImagesEEG,001,102745,
AFNE01.JPG,AFNE01.JPG,AFNE01.JPG,AFNE01.JPG,AFNE01.JPG,AFNE01.JPG,,,,,0,8,8,9,,,,,,,,,,,,,,,,,,,AFNE01.jpg,AFSA05.jpg,AFNE02.jpg,AFSA11.jpg,AFNE01.jpg,FN,3,num_8,16,num_8,0.916762514273,,,2018_Jan_10_1554,60.0113949023,MAFE4ImagesEEG,001,102745,
AFNE01.JPG,AFNE01.JPG,AFNE01.JPG,AFNE01.JPG,AFNE01.JPG,AFNE01.JPG,,,,,0,9,9,5,,,,,,,,,,,,,,,,,,,AFNE13.jpg,AFSA13.jpg,AFNE06.jpg,AFSA07.jpg,AFSA13.jpg,FS,4,num_6,32,num_4,3.64990425925,,,2018_Jan_10_1554,60.0113949023,MAFE4ImagesEEG,001,102745,
AFNE01.JPG,AFNE01.JPG,AFNE01.JPG,AFNE01.JPG,AFNE01.JPG,AFNE01.JPG,,,,,1,0,10,1,,,,,,,,,,,,,,,,,,,AFSA02.jpg,AFNE13.jpg,AFNE20.jpg,AFSA17.jpg,AFNE13.jpg,FN,3,num_6,32,num_2,1.18360890262,,,2018_Jan_10_1554,60.0113949023,MAFE4ImagesEEG,001,102745,
AFNE01.JPG,AFNE01.JPG,AFNE01.JPG,AFNE01.JPG,AFNE01.JPG,AFNE01.JPG,,,,,1,1,11,7,,,,,,,,,,,,,,,,,,,AFNE18.jpg,AFNE09.jpg,AFSA18.jpg,AFSA19.jpg,AFNE09.jpg,FN,3,num_6,16,num_6,0.733429127838,,,2018_Jan_10_1554,60.0113949023,MAFE4ImagesEEG,001,102745,
AFNE01.JPG,AFNE01.JPG,AFNE01.JPG,AFNE01.JPG,AFNE01.JPG,AFNE01.JPG,,,,,1,2,12,8,,,,,,,,,,,,,,,,,,,AFSA18.jpg,AFSA07.jpg,AFNE19.jpg,AFNE09.jpg,AFNE19.jpg,FN,3,num_2,32,num_4,2.03332264209,,,2018_Jan_10_1554,60.0113949023,MAFE4ImagesEEG,001,102745,
AFNE01.JPG,AFNE01.JPG,AFNE01.JPG,AFNE01.JPG,AFNE01.JPG,AFNE01.JPG,,,,,1,3,13,6,,,,,,,,,,,,,,,,,,,AFNE17.jpg,AFNE04.jpg,AFSA11.jpg,AFSA04.jpg,AFSA04.jpg,FS,4,num_4,16,num_4,1.30005131825,,,2018_Jan_10_1554,60.0113949023,MAFE4ImagesEEG,001,102745,
AFNE01.JPG,AFNE01.JPG,AFNE01.JPG,AFNE01.JPG,AFNE01.JPG,AFNE01.JPG,,,,,1,4,14,4,,,,,,,,,,,,,,,,,,,AFNE07.jpg,AFSA13.jpg,AFSA11.jpg,AFNE14.jpg,AFSA13.jpg,FS,4,num_6,16,num_6,0.783477399033,,,2018_Jan_10_1554,60.0113949023,MAFE4ImagesEEG,001,102745,
AFNE01.JPG,AFNE01.JPG,AFNE01.JPG,AFNE01.JPG,AFNE01.JPG,AFNE01.JPG,,,,,1,5,15,5,,,,,,,,,,,,,,,,,,,AFNE01.jpg,AFNE14.jpg,AFSA10.jpg,AFSA17.jpg,AFSA17.jpg,FS,4,num_4,32,num_8,1.55006527039,,,2018_Jan_10_1554,60.0113949023,MAFE4ImagesEEG,001,102745,
AFNE01.JPG,AFNE01.JPG,AFNE01.JPG,AFNE01.JPG,AFNE01.JPG,AFNE01.JPG,,,,,1,6,16,2,,,,,,,,,,,,,,,,,,,AFNE12.jpg,AFNE08.jpg,AFSA05.jpg,AFSA03.jpg,AFNE08.jpg,FN,3,num_6,16,num_6,2.61665346287,,,2018_Jan_10_1554,60.0113949023,MAFE4ImagesEEG,001,102745,
AFNE01.JPG,AFNE01.JPG,AFNE01.JPG,AFNE01.JPG,AFNE01.JPG,AFNE01.JPG,,,,,1,7,17,3,,,,,,,,,,,,,,,,,,,AFSA15.jpg,AFNE01.jpg,AFSA09.jpg,AFNE04.jpg,AFNE01.jpg,FN,3,num_6,32,num_4,0.583470022073,,,2018_Jan_10_1554,60.0113949023,MAFE4ImagesEEG,001,102745,
AFNE01.JPG,AFNE01.JPG,AFNE01.JPG,AFNE01.JPG,AFNE01.JPG,AFNE01.JPG,,,,,1,8,18,0,,,,,,,,,,,,,,,,,,,AFNE01.jpg,AFNE19.jpg,AFSA02.jpg,AFSA20.jpg,AFNE01.jpg,FN,3,num_8,16,num_8,0.683390478371,,,2018_Jan_10_1554,60.0113949023,MAFE4ImagesEEG,001,102745,
AFNE01.JPG,AFNE01.JPG,AFNE01.JPG,AFNE01.JPG,AFNE01.JPG,AFNE01.JPG,,,,,1,9,19,9,,,,,,,,,,,,,,,,,,,AFSA12.jpg,AFNE20.jpg,AFNE11.jpg,AFSA04.jpg,AFSA12.jpg,FS,4,num_8,32,num_2,1.18338246015,,,2018_Jan_10_1554,60.0113949023,MAFE4ImagesEEG,001,102745,
AFNE01.JPG,AFNE01.JPG,AFNE01.JPG,AFNE01.JPG,AFNE01.JPG,AFNE01.JPG,,,,,2,0,20,5,,,,,,,,,,,,,,,,,,,AFNE08.jpg,AFSA05.jpg,AFNE09.jpg,AFSA10.jpg,AFSA05.jpg,FS,4,num_6,32,num_8,0.650007858174,,,2018_Jan_10_1554,60.0113949023,MAFE4ImagesEEG,001,102745,
AFNE01.JPG,AFNE01.JPG,AFNE01.JPG,AFNE01.JPG,AFNE01.JPG,AFNE01.JPG,,,,,2,1,21,2,,,,,,,,,,,,,,,,,,,AFSA13.jpg,AFNE03.jpg,AFNE04.jpg,AFSA14.jpg,AFNE03.jpg,FN,3,num_6,16,num_6,1.16677518375,,,2018_Jan_10_1554,60.0113949023,MAFE4ImagesEEG,001,102745,
AFNE01.JPG,AFNE01.JPG,AFNE01.JPG,AFNE01.JPG,AFNE01.JPG,AFNE01.JPG,,,,,2,2,22,4,,,,,,,,,,,,,,,,,,,AFNE09.jpg,AFSA18.jpg,AFNE08.jpg,AFSA01.jpg,AFSA01.jpg,FS,4,num_4,16,num_4,0.883446287364,,,2018_Jan_10_1554,60.0113949023,MAFE4ImagesEEG,001,102745,
AFNE01.JPG,AFNE01.JPG,AFNE01.JPG,AFNE01.JPG,AFNE01.JPG,AFNE01.JPG,,,,,2,3,23,0,,,,,,,,,,,,,,,,,,,AFSA05.jpg,AFSA12.jpg,AFNE15.jpg,AFNE05.jpg,AFSA12.jpg,FS,4,num_6,16,num_6,0.983477719594,,,2018_Jan_10_1554,60.0113949023,MAFE4ImagesEEG,001,102745,
AFNE01.JPG,AFNE01.JPG,AFNE01.JPG,AFNE01.JPG,AFNE01.JPG,AFNE01.JPG,,,,,2,4,24,1,,,,,,,,,,,,,,,,,,,AFSA08.jpg,AFSA12.jpg,AFNE17.jpg,AFNE08.jpg,AFSA08.jpg,FS,4,num_8,16,num_8,1.00010776869,,,2018_Jan_10_1554,60.0113949023,MAFE4ImagesEEG,001,102745,
AFNE01.JPG,AFNE01.JPG,AFNE01.JPG,AFNE01.JPG,AFNE01.JPG,AFNE01.JPG,,,,,2,5,25,8,,,,,,,,,,,,,,,,,,,AFNE07.jpg,AFNE02.jpg,AFSA14.jpg,AFSA07.jpg,AFNE07.jpg,FN,3,num_8,32,num_2,1.81672883662,,,2018_Jan_10_1554,60.0113949023,MAFE4ImagesEEG,001,102745,
AFNE01.JPG,AFNE01.JPG,AFNE01.JPG,AFNE01.JPG,AFNE01.JPG,AFNE01.JPG,,,,,2,6,26,7,,,,,,,,,,,,,,,,,,,AFNE06.jpg,AFNE02.jpg,AFSA12.jpg,AFSA15.jpg,AFNE02.jpg,FN,3,num_6,16,num_6,1.63339128043,,,2018_Jan_10_1554,60.0113949023,MAFE4ImagesEEG,001,102745,
AFNE01.JPG,AFNE01.JPG,AFNE01.JPG,AFNE01.JPG,AFNE01.JPG,AFNE01.JPG,,,,,2,7,27,9,,,,,,,,,,,,,,,,,,,AFNE18.jpg,AFSA06.jpg,AFSA09.jpg,AFNE15.jpg,AFSA09.jpg,FS,4,num_2,32,num_8,2.68337957328,,,2018_Jan_10_1554,60.0113949023,MAFE4ImagesEEG,001,102745,
AFNE01.JPG,AFNE01.JPG,AFNE01.JPG,AFNE01.JPG,AFNE01.JPG,AFNE01.JPG,,,,,2,8,28,3,,,,,,,,,,,,,,,,,,,AFSA09.jpg,AFNE18.jpg,AFNE19.jpg,AFSA12.jpg,AFSA09.jpg,FS,4,num_8,16,num_8,0.850131343119,,,2018_Jan_10_1554,60.0113949023,MAFE4ImagesEEG,001,102745,
AFNE01.JPG,AFNE01.JPG,AFNE01.JPG,AFNE01.JPG,AFNE01.JPG,AFNE01.JPG,,,,,2,9,29,6,,,,,,,,,,,,,,,,,,,AFNE11.jpg,AFNE09.jpg,AFSA20.jpg,AFSA06.jpg,AFSA20.jpg,FS,4,num_2,16,num_2,1.49977612356,,,2018_Jan_10_1554,60.0113949023,MAFE4ImagesEEG,001,102745,
AFNE01.JPG,AFNE01.JPG,AFNE01.JPG,AFNE01.JPG,AFNE01.JPG,AFNE01.JPG,,,,,3,0,30,0,,,,,,,,,,,,,,,,,,,AFNE04.jpg,AFSA06.jpg,AFNE17.jpg,AFSA10.jpg,AFSA10.jpg,FS,4,num_4,32,num_6,1.03344901348,,,2018_Jan_10_1554,60.0113949023,MAFE4ImagesEEG,001,102745,
AFNE01.JPG,AFNE01.JPG,AFNE01.JPG,AFNE01.JPG,AFNE01.JPG,AFNE01.JPG,,,,,3,1,31,2,,,,,,,,,,,,,,,,,,,AFNE13.jpg,AFNE03.jpg,AFSA09.jpg,AFSA14.jpg,AFNE03.jpg,FN,3,num_6,16,num_6,1.00015876628,,,2018_Jan_10_1554,60.0113949023,MAFE4ImagesEEG,001,102745,
AFNE01.JPG,AFNE01.JPG,AFNE01.JPG,AFNE01.JPG,AFNE01.JPG,AFNE01.JPG,,,,,3,2,32,8,,,,,,,,,,,,,,,,,,,AFSA02.jpg,AFNE08.jpg,AFNE14.jpg,AFSA13.jpg,AFNE14.jpg,FN,3,num_2,16,num_2,1.6833818187,,,2018_Jan_10_1554,60.0113949023,MAFE4ImagesEEG,001,102745,
AFNE01.JPG,AFNE01.JPG,AFNE01.JPG,AFNE01.JPG,AFNE01.JPG,AFNE01.JPG,,,,,3,3,33,1,,,,,,,,,,,,,,,,,,,AFNE02.jpg,AFNE04.jpg,AFSA05.jpg,AFSA02.jpg,AFNE04.jpg,FN,3,num_6,32,num_4,1.00010327832,,,2018_Jan_10_1554,60.0113949023,MAFE4ImagesEEG,001,102745,
AFNE01.JPG,AFNE01.JPG,AFNE01.JPG,AFNE01.JPG,AFNE01.JPG,AFNE01.JPG,,,,,3,4,34,6,,,,,,,,,,,,,,,,,,,AFNE07.jpg,AFNE09.jpg,AFSA01.jpg,AFSA04.jpg,AFNE07.jpg,FN,3,num_8,32,num_6,1.21671183757,,,2018_Jan_10_1554,60.0113949023,MAFE4ImagesEEG,001,102745,
AFNE01.JPG,AFNE01.JPG,AFNE01.JPG,AFNE01.JPG,AFNE01.JPG,AFNE01.JPG,,,,,3,5,35,7,,,,,,,,,,,,,,,,,,,AFSA04.jpg,AFSA08.jpg,AFNE05.jpg,AFNE08.jpg,AFNE08.jpg,FN,3,num_4,32,num_8,2.15000240551,,,2018_Jan_10_1554,60.0113949023,MAFE4ImagesEEG,001,102745,
AFNE01.JPG,AFNE01.JPG,AFNE01.JPG,AFNE01.JPG,AFNE01.JPG,AFNE01.JPG,,,,,3,6,36,9,,,,,,,,,,,,,,,,,,,AFNE06.jpg,AFNE10.jpg,AFSA06.jpg,AFSA04.jpg,AFNE06.jpg,FN,3,num_8,32,num_6,0.71671857289,,,2018_Jan_10_1554,60.0113949023,MAFE4ImagesEEG,001,102745,
AFNE01.JPG,AFNE01.JPG,AFNE01.JPG,AFNE01.JPG,AFNE01.JPG,AFNE01.JPG,,,,,3,7,37,3,,,,,,,,,,,,,,,,,,,AFNE14.jpg,AFSA18.jpg,AFSA11.jpg,AFNE15.jpg,AFSA18.jpg,FS,4,num_6,32,num_2,1.58370640734,,,2018_Jan_10_1554,60.0113949023,MAFE4ImagesEEG,001,102745,
AFNE01.JPG,AFNE01.JPG,AFNE01.JPG,AFNE01.JPG,AFNE01.JPG,AFNE01.JPG,,,,,3,8,38,5,,,,,,,,,,,,,,,,,,,AFSA14.jpg,AFSA11.jpg,AFNE12.jpg,AFNE09.jpg,AFNE12.jpg,FN,3,num_2,32,num_8,1.28344981535,,,2018_Jan_10_1554,60.0113949023,MAFE4ImagesEEG,001,102745,
AFNE01.JPG,AFNE01.JPG,AFNE01.JPG,AFNE01.JPG,AFNE01.JPG,AFNE01.JPG,,,,,3,9,39,4,,,,,,,,,,,,,,,,,,,AFNE19.jpg,AFSA04.jpg,AFSA05.jpg,AFNE05.jpg,AFNE05.jpg,FN,3,num_4,16,num_4,0.883458154509,,,2018_Jan_10_1554,60.0113949023,MAFE4ImagesEEG,001,102745,
AFNE01.JPG,AFNE01.JPG,AFNE01.JPG,AFNE01.JPG,AFNE01.JPG,AFNE01.JPG,,,,,4,0,40,4,,,,,,,,,,,,,,,,,,,AFSA15.jpg,AFNE09.jpg,AFNE13.jpg,AFSA18.jpg,AFNE09.jpg,FN,3,num_6,16,num_6,1.56674471335,,,2018_Jan_10_1554,60.0113949023,MAFE4ImagesEEG,001,102745,
AFNE01.JPG,AFNE01.JPG,AFNE01.JPG,AFNE01.JPG,AFNE01.JPG,AFNE01.JPG,,,,,4,1,41,6,,,,,,,,,,,,,,,,,,,AFNE06.jpg,AFNE18.jpg,AFSA15.jpg,AFSA16.jpg,AFSA16.jpg,FS,4,num_4,16,num_4,0.983420628123,,,2018_Jan_10_1554,60.0113949023,MAFE4ImagesEEG,001,102745,
AFNE01.JPG,AFNE01.JPG,AFNE01.JPG,AFNE01.JPG,AFNE01.JPG,AFNE01.JPG,,,,,4,2,42,0,,,,,,,,,,,,,,,,,,,AFSA20.jpg,AFSA12.jpg,AFNE12.jpg,AFNE01.jpg,AFSA12.jpg,FS,4,num_6,16,num_6,0.666780636413,,,2018_Jan_10_1554,60.0113949023,MAFE4ImagesEEG,001,102745,
AFNE01.JPG,AFNE01.JPG,AFNE01.JPG,AFNE01.JPG,AFNE01.JPG,AFNE01.JPG,,,,,4,3,43,3,,,,,,,,,,,,,,,,,,,AFSA11.jpg,AFNE19.jpg,AFNE05.jpg,AFSA16.jpg,AFSA11.jpg,FS,4,num_8,32,num_2,1.01673685526,,,2018_Jan_10_1554,60.0113949023,MAFE4ImagesEEG,001,102745,
AFNE01.JPG,AFNE01.JPG,AFNE01.JPG,AFNE01.JPG,AFNE01.JPG,AFNE01.JPG,,,,,4,4,44,7,,,,,,,,,,,,,,,,,,,AFNE12.jpg,AFSA08.jpg,AFSA14.jpg,AFNE16.jpg,AFNE12.jpg,FN,3,num_8,32,num_6,1.00008692034,,,2018_Jan_10_1554,60.0113949023,MAFE4ImagesEEG,001,102745,
AFNE01.JPG,AFNE01.JPG,AFNE01.JPG,AFNE01.JPG,AFNE01.JPG,AFNE01.JPG,,,,,4,5,45,2,,,,,,,,,,,,,,,,,,,AFSA01.jpg,AFSA04.jpg,AFNE05.jpg,AFNE16.jpg,AFSA01.jpg,FS,4,num_8,16,num_8,1.20008852426,,,2018_Jan_10_1554,60.0113949023,MAFE4ImagesEEG,001,102745,
AFNE01.JPG,AFNE01.JPG,AFNE01.JPG,AFNE01.JPG,AFNE01.JPG,AFNE01.JPG,,,,,4,6,46,8,,,,,,,,,,,,,,,,,,,AFNE07.jpg,AFNE05.jpg,AFSA20.jpg,AFSA13.jpg,AFNE05.jpg,FN,3,num_6,32,num_8,1.88339336519,,,2018_Jan_10_1554,60.0113949023,MAFE4ImagesEEG,001,102745,
AFNE01.JPG,AFNE01.JPG,AFNE01.JPG,AFNE01.JPG,AFNE01.JPG,AFNE01.JPG,,,,,4,7,47,1,,,,,,,,,,,,,,,,,,,AFNE03.jpg,AFNE15.jpg,AFSA16.jpg,AFSA11.jpg,AFNE03.jpg,FN,3,num_8,32,num_6,1.28339849715,,,2018_Jan_10_1554,60.0113949023,MAFE4ImagesEEG,001,102745,
AFNE01.JPG,AFNE01.JPG,AFNE01.JPG,AFNE01.JPG,AFNE01.JPG,AFNE01.JPG,,,,,4,8,48,5,,,,,,,,,,,,,,,,,,,AFNE12.jpg,AFSA07.jpg,AFNE17.jpg,AFSA16.jpg,AFSA16.jpg,FS,4,num_4,32,num_8,0.883439872414,,,2018_Jan_10_1554,60.0113949023,MAFE4ImagesEEG,001,102745,
AFNE01.JPG,AFNE01.JPG,AFNE01.JPG,AFNE01.JPG,AFNE01.JPG,AFNE01.JPG,,,,,4,9,49,9,,,,,,,,,,,,,,,,,,,AFSA18.jpg,AFSA03.jpg,AFNE08.jpg,AFNE06.jpg,AFSA18.jpg,FS,4,num_8,32,num_6,0.800090127857,,,2018_Jan_10_1554,60.0113949023,MAFE4ImagesEEG,001,102745,
AFNE01.JPG,AFNE01.JPG,AFNE01.JPG,AFNE01.JPG,AFNE01.JPG,AFNE01.JPG,,,,,5,0,50,8,,,,,,,,,,,,,,,,,,,AFSA05.jpg,AFSA10.jpg,AFNE06.jpg,AFNE10.jpg,AFSA10.jpg,FS,4,num_6,32,num_2,4.13288258668,,,2018_Jan_10_1554,60.0113949023,MAFE4ImagesEEG,001,102745,
AFNE01.JPG,AFNE01.JPG,AFNE01.JPG,AFNE01.JPG,AFNE01.JPG,AFNE01.JPG,,,,,5,1,51,7,,,,,,,,,,,,,,,,,,,AFNE17.jpg,AFSA09.jpg,AFSA18.jpg,AFNE19.jpg,AFNE17.jpg,FN,3,num_8,16,num_8,1.16674535489,,,2018_Jan_10_1554,60.0113949023,MAFE4ImagesEEG,001,102745,
AFNE01.JPG,AFNE01.JPG,AFNE01.JPG,AFNE01.JPG,AFNE01.JPG,AFNE01.JPG,,,,,5,2,52,5,,,,,,,,,,,,,,,,,,,AFNE17.jpg,AFSA14.jpg,AFSA07.jpg,AFNE09.jpg,AFNE17.jpg,FN,3,num_8,32,num_2,1.63337363978,,,2018_Jan_10_1554,60.0113949023,MAFE4ImagesEEG,001,102745,
AFNE01.JPG,AFNE01.JPG,AFNE01.JPG,AFNE01.JPG,AFNE01.JPG,AFNE01.JPG,,,,,5,3,53,4,,,,,,,,,,,,,,,,,,,AFNE02.jpg,AFSA14.jpg,AFSA20.jpg,AFNE20.jpg,AFSA20.jpg,FS,4,num_2,32,num_4,2.83372003888,,,2018_Jan_10_1554,60.0113949023,MAFE4ImagesEEG,001,102745,
AFNE01.JPG,AFNE01.JPG,AFNE01.JPG,AFNE01.JPG,AFNE01.JPG,AFNE01.JPG,,,,,5,4,54,1,,,,,,,,,,,,,,,,,,,AFSA05.jpg,AFSA01.jpg,AFNE02.jpg,AFNE20.jpg,AFSA01.jpg,FS,4,num_6,16,num_6,1.20010873093,,,2018_Jan_10_1554,60.0113949023,MAFE4ImagesEEG,001,102745,
AFNE01.JPG,AFNE01.JPG,AFNE01.JPG,AFNE01.JPG,AFNE01.JPG,AFNE01.JPG,,,,,5,5,55,2,,,,,,,,,,,,,,,,,,,AFSA17.jpg,AFSA14.jpg,AFNE11.jpg,AFNE13.jpg,AFNE13.jpg,FN,3,num_4,32,num_8,3.13325239997,,,2018_Jan_10_1554,60.0113949023,MAFE4ImagesEEG,001,102745,
AFNE01.JPG,AFNE01.JPG,AFNE01.JPG,AFNE01.JPG,AFNE01.JPG,AFNE01.JPG,,,,,5,6,56,3,,,,,,,,,,,,,,,,,,,AFNE06.jpg,AFSA19.jpg,AFNE03.jpg,AFSA13.jpg,AFNE03.jpg,FN,3,num_2,32,num_6,0.883447890868,,,2018_Jan_10_1554,60.0113949023,MAFE4ImagesEEG,001,102745,
AFNE01.JPG,AFNE01.JPG,AFNE01.JPG,AFNE01.JPG,AFNE01.JPG,AFNE01.JPG,,,,,5,7,57,0,,,,,,,,,,,,,,,,,,,AFNE20.jpg,AFNE19.jpg,AFSA05.jpg,AFSA18.jpg,AFNE20.jpg,FN,3,num_8,32,num_4,1.70002565929,,,2018_Jan_10_1554,60.0113949023,MAFE4ImagesEEG,001,102745,
AFNE01.JPG,AFNE01.JPG,AFNE01.JPG,AFNE01.JPG,AFNE01.JPG,AFNE01.JPG,,,,,5,8,58,9,,,,,,,,,,,,,,,,,,,AFSA13.jpg,AFNE04.jpg,AFNE02.jpg,AFSA16.jpg,AFSA16.jpg,FS,4,num_4,32,num_8,0.96672611055,,,2018_Jan_10_1554,60.0113949023,MAFE4ImagesEEG,001,102745,
AFNE01.JPG,AFNE01.JPG,AFNE01.JPG,AFNE01.JPG,AFNE01.JPG,AFNE01.JPG,,,,,5,9,59,6,,,,,,,,,,,,,,,,,,,AFSA17.jpg,AFSA03.jpg,AFNE08.jpg,AFNE10.jpg,AFSA03.jpg,FS,4,num_6,32,num_8,1.08340427023,,,2018_Jan_10_1554,60.0113949023,MAFE4ImagesEEG,001,102745,
,,,,,,,,,,,,,,,,,,,,,,,,,,,,,,,,,,,,,,,,,,,space,26.1481947149,2018_Jan_10_1554,60.0113949023,MAFE4ImagesEEG,001,102745,
AFNE01.JPG,AFNE01.JPG,AFNE01.JPG,AFNE01.JPG,AFNE01.JPG,AFNE01.JPG,,,,,,,,,0,0,0,4,,,,,,,,,,,,,,,AMNE20.jpg,AMNE19.jpg,AMSA05.jpg,AMSA02.jpg,AMSA02.jpg,MS,2,num_4,16,num_4,0.633478842443,,,2018_Jan_10_1554,60.0113949023,MAFE4ImagesEEG,001,102745,
AFNE01.JPG,AFNE01.JPG,AFNE01.JPG,AFNE01.JPG,AFNE01.JPG,AFNE01.JPG,,,,,,,,,0,1,1,0,,,,,,,,,,,,,,,AMNE01.jpg,AMSA16.jpg,AMNE19.jpg,AMSA08.jpg,AMSA16.jpg,MS,2,num_6,32,num_2,1.00009141094,,,2018_Jan_10_1554,60.0113949023,MAFE4ImagesEEG,001,102745,
AFNE01.JPG,AFNE01.JPG,AFNE01.JPG,AFNE01.JPG,AFNE01.JPG,AFNE01.JPG,,,,,,,,,0,2,2,6,,,,,,,,,,,,,,,AMSA18.jpg,AMNE20.jpg,AMSA15.jpg,AMNE11.jpg,AMNE20.jpg,MN,1,num_6,16,num_6,1.00008627912,,,2018_Jan_10_1554,60.0113949023,MAFE4ImagesEEG,001,102745,
AFNE01.JPG,AFNE01.JPG,AFNE01.JPG,AFNE01.JPG,AFNE01.JPG,AFNE01.JPG,,,,,,,,,0,3,3,5,,,,,,,,,,,,,,,AMNE20.jpg,AMSA03.jpg,AMSA13.jpg,AMNE08.jpg,AMNE08.jpg,MN,1,num_4,16,num_4,0.700105844066,,,2018_Jan_10_1554,60.0113949023,MAFE4ImagesEEG,001,102745,
AFNE01.JPG,AFNE01.JPG,AFNE01.JPG,AFNE01.JPG,AFNE01.JPG,AFNE01.JPG,,,,,,,,,0,4,4,3,,,,,,,,,,,,,,,AMSA19.jpg,AMNE20.jpg,AMSA16.jpg,AMNE06.jpg,AMSA19.jpg,MS,2,num_8,32,num_2,1.13342367508,,,2018_Jan_10_1554,60.0113949023,MAFE4ImagesEEG,001,102745,
AFNE01.JPG,AFNE01.JPG,AFNE01.JPG,AFNE01.JPG,AFNE01.JPG,AFNE01.JPG,,,,,,,,,0,5,5,2,,,,,,,,,,,,,,,AMSA01.jpg,AMNE18.jpg,AMNE06.jpg,AMSA09.jpg,AMNE18.jpg,MN,1,num_6,16,num_6,1.86672899732,,,2018_Jan_10_1554,60.0113949023,MAFE4ImagesEEG,001,102745,
AFNE01.JPG,AFNE01.JPG,AFNE01.JPG,AFNE01.JPG,AFNE01.JPG,AFNE01.JPG,,,,,,,,,0,6,6,7,,,,,,,,,,,,,,,AMNE07.jpg,AMSA11.jpg,AMNE17.jpg,AMSA03.jpg,AMSA11.jpg,MS,2,num_6,32,num_8,1.11675866554,,,2018_Jan_10_1554,60.0113949023,MAFE4ImagesEEG,001,102745,
AFNE01.JPG,AFNE01.JPG,AFNE01.JPG,AFNE01.JPG,AFNE01.JPG,AFNE01.JPG,,,,,,,,,0,7,7,1,,,,,,,,,,,,,,,AMNE08.jpg,AMSA09.jpg,AMNE07.jpg,AMSA08.jpg,AMSA09.jpg,MS,2,num_6,32,num_2,0.666794748744,,,2018_Jan_10_1554,60.0113949023,MAFE4ImagesEEG,001,102745,
AFNE01.JPG,AFNE01.JPG,AFNE01.JPG,AFNE01.JPG,AFNE01.JPG,AFNE01.JPG,,,,,,,,,0,8,8,8,,,,,,,,,,,,,,,AMSA14.jpg,AMSA10.jpg,AMNE18.jpg,AMNE02.jpg,AMNE18.jpg,MN,1,num_2,32,num_6,0.833403789205,,,2018_Jan_10_1554,60.0113949023,MAFE4ImagesEEG,001,102745,
AFNE01.JPG,AFNE01.JPG,AFNE01.JPG,AFNE01.JPG,AFNE01.JPG,AFNE01.JPG,,,,,,,,,0,9,9,9,,,,,,,,,,,,,,,AMNE19.jpg,AMSA07.jpg,AMSA16.jpg,AMNE07.jpg,AMNE19.jpg,MN,1,num_8,16,num_8,1.01681351219,,,2018_Jan_10_1554,60.0113949023,MAFE4ImagesEEG,001,102745,
AFNE01.JPG,AFNE01.JPG,AFNE01.JPG,AFNE01.JPG,AFNE01.JPG,AFNE01.JPG,,,,,,,,,1,0,10,2,,,,,,,,,,,,,,,AMSA14.jpg,AMNE13.jpg,AMSA10.jpg,AMNE10.jpg,AMSA10.jpg,MS,2,num_2,32,num_4,0.866742147598,,,2018_Jan_10_1554,60.0113949023,MAFE4ImagesEEG,001,102745,
AFNE01.JPG,AFNE01.JPG,AFNE01.JPG,AFNE01.JPG,AFNE01.JPG,AFNE01.JPG,,,,,,,,,1,1,11,8,,,,,,,,,,,,,,,AMSA13.jpg,AMNE04.jpg,AMNE09.jpg,AMSA16.jpg,AMNE09.jpg,MN,1,num_2,32,num_6,0.866704300279,,,2018_Jan_10_1554,60.0113949023,MAFE4ImagesEEG,001,102745,
AFNE01.JPG,AFNE01.JPG,AFNE01.JPG,AFNE01.JPG,AFNE01.JPG,AFNE01.JPG,,,,,,,,,1,2,12,1,,,,,,,,,,,,,,,AMSA15.jpg,AMNE13.jpg,AMSA20.jpg,AMNE05.jpg,AMNE13.jpg,MN,1,num_6,16,num_6,1.36670879042,,,2018_Jan_10_1554,60.0113949023,MAFE4ImagesEEG,001,102745,
AFNE01.JPG,AFNE01.JPG,AFNE01.JPG,AFNE01.JPG,AFNE01.JPG,AFNE01.JPG,,,,,,,,,1,3,13,5,,,,,,,,,,,,,,,AMNE12.jpg,AMNE14.jpg,AMSA19.jpg,AMSA04.jpg,AMNE14.jpg,MN,1,num_6,32,num_4,1.03346569207,,,2018_Jan_10_1554,60.0113949023,MAFE4ImagesEEG,001,102745,
AFNE01.JPG,AFNE01.JPG,AFNE01.JPG,AFNE01.JPG,AFNE01.JPG,AFNE01.JPG,,,,,,,,,1,4,14,7,,,,,,,,,,,,,,,AMNE01.jpg,AMSA12.jpg,AMNE20.jpg,AMSA06.jpg,AMSA06.jpg,MS,2,num_4,32,num_6,1.70002277265,,,2018_Jan_10_1554,60.0113949023,MAFE4ImagesEEG,001,102745,
AFNE01.JPG,AFNE01.JPG,AFNE01.JPG,AFNE01.JPG,AFNE01.JPG,AFNE01.JPG,,,,,,,,,1,5,15,3,,,,,,,,,,,,,,,AMSA01.jpg,AMNE18.jpg,AMSA14.jpg,AMNE03.jpg,AMNE18.jpg,MN,1,num_6,32,num_8,2.11644337815,,,2018_Jan_10_1554,60.0113949023,MAFE4ImagesEEG,001,102745,
AFNE01.JPG,AFNE01.JPG,AFNE01.JPG,AFNE01.JPG,AFNE01.JPG,AFNE01.JPG,,,,,,,,,1,6,16,6,,,,,,,,,,,,,,,AMSA18.jpg,AMNE14.jpg,AMNE05.jpg,AMSA14.jpg,AMNE14.jpg,MN,1,num_6,16,num_6,0.683482210152,,,2018_Jan_10_1554,60.0113949023,MAFE4ImagesEEG,001,102745,
AFNE01.JPG,AFNE01.JPG,AFNE01.JPG,AFNE01.JPG,AFNE01.JPG,AFNE01.JPG,,,,,,,,,1,7,17,4,,,,,,,,,,,,,,,AMSA02.jpg,AMNE20.jpg,AMNE18.jpg,AMSA11.jpg,AMSA11.jpg,MS,2,num_4,16,num_4,0.716668537818,,,2018_Jan_10_1554,60.0113949023,MAFE4ImagesEEG,001,102745,
AFNE01.JPG,AFNE01.JPG,AFNE01.JPG,AFNE01.JPG,AFNE01.JPG,AFNE01.JPG,,,,,,,,,1,8,18,9,,,,,,,,,,,,,,,AMSA12.jpg,AMSA16.jpg,AMNE03.jpg,AMNE05.jpg,AMNE05.jpg,MN,1,num_4,32,num_8,1.20009782584,,,2018_Jan_10_1554,60.0113949023,MAFE4ImagesEEG,001,102745,
AFNE01.JPG,AFNE01.JPG,AFNE01.JPG,AFNE01.JPG,AFNE01.JPG,AFNE01.JPG,,,,,,,,,1,9,19,0,,,,,,,,,,,,,,,AMSA06.jpg,AMNE04.jpg,AMNE19.jpg,AMSA11.jpg,AMNE04.jpg,MN,1,num_6,16,num_6,0.833442277974,,,2018_Jan_10_1554,60.0113949023,MAFE4ImagesEEG,001,102745,
AFNE01.JPG,AFNE01.JPG,AFNE01.JPG,AFNE01.JPG,AFNE01.JPG,AFNE01.JPG,,,,,,,,,2,0,20,4,,,,,,,,,,,,,,,AMNE03.jpg,AMSA05.jpg,AMSA14.jpg,AMNE12.jpg,AMNE03.jpg,MN,1,num_8,16,num_8,0.833517972613,,,2018_Jan_10_1554,60.0113949023,MAFE4ImagesEEG,001,102745,
AFNE01.JPG,AFNE01.JPG,AFNE01.JPG,AFNE01.JPG,AFNE01.JPG,AFNE01.JPG,,,,,,,,,2,1,21,0,,,,,,,,,,,,,,,AMNE13.jpg,AMSA13.jpg,AMNE11.jpg,AMSA19.jpg,AMSA19.jpg,MS,2,num_4,16,num_4,0.883437948069,,,2018_Jan_10_1554,60.0113949023,MAFE4ImagesEEG,001,102745,
AFNE01.JPG,AFNE01.JPG,AFNE01.JPG,AFNE01.JPG,AFNE01.JPG,AFNE01.JPG,,,,,,,,,2,2,22,3,,,,,,,,,,,,,,,AMNE13.jpg,AMSA11.jpg,AMSA07.jpg,AMNE18.jpg,AMNE18.jpg,MN,1,num_4,32,num_8,0.683476116043,,,2018_Jan_10_1554,60.0113949023,MAFE4ImagesEEG,001,102745,
AFNE01.JPG,AFNE01.JPG,AFNE01.JPG,AFNE01.JPG,AFNE01.JPG,AFNE01.JPG,,,,,,,,,2,3,23,6,,,,,,,,,,,,,,,AMNE13.jpg,AMNE08.jpg,AMSA17.jpg,AMSA12.jpg,AMSA12.jpg,MS,2,num_4,32,num_2,0.533474672819,,,2018_Jan_10_1554,60.0113949023,MAFE4ImagesEEG,001,102745,
AFNE01.JPG,AFNE01.JPG,AFNE01.JPG,AFNE01.JPG,AFNE01.JPG,AFNE01.JPG,,,,,,,,,2,4,24,7,,,,,,,,,,,,,,,AMNE07.jpg,AMSA04.jpg,AMNE10.jpg,AMSA01.jpg,AMNE07.jpg,MN,1,num_8,16,num_8,0.933408921119,,,2018_Jan_10_1554,60.0113949023,MAFE4ImagesEEG,001,102745,
AFNE01.JPG,AFNE01.JPG,AFNE01.JPG,AFNE01.JPG,AFNE01.JPG,AFNE01.JPG,,,,,,,,,2,5,25,2,,,,,,,,,,,,,,,AMNE14.jpg,AMSA05.jpg,AMNE19.jpg,AMSA17.jpg,AMSA05.jpg,MS,2,num_6,16,num_6,0.933444202412,,,2018_Jan_10_1554,60.0113949023,MAFE4ImagesEEG,001,102745,
AFNE01.JPG,AFNE01.JPG,AFNE01.JPG,AFNE01.JPG,AFNE01.JPG,AFNE01.JPG,,,,,,,,,2,6,26,9,,,,,,,,,,,,,,,AMNE02.jpg,AMNE14.jpg,AMSA16.jpg,AMSA10.jpg,AMSA10.jpg,MS,2,num_4,16,num_4,0.7667504868,,,2018_Jan_10_1554,60.0113949023,MAFE4ImagesEEG,001,102745,
AFNE01.JPG,AFNE01.JPG,AFNE01.JPG,AFNE01.JPG,AFNE01.JPG,AFNE01.JPG,,,,,,,,,2,7,27,8,,,,,,,,,,,,,,,AMNE05.jpg,AMNE13.jpg,AMSA06.jpg,AMSA02.jpg,AMSA06.jpg,MS,2,num_2,16,num_2,1.73340635514,,,2018_Jan_10_1554,60.0113949023,MAFE4ImagesEEG,001,102745,
AFNE01.JPG,AFNE01.JPG,AFNE01.JPG,AFNE01.JPG,AFNE01.JPG,AFNE01.JPG,,,,,,,,,2,8,28,1,,,,,,,,,,,,,,,AMNE04.jpg,AMSA17.jpg,AMSA11.jpg,AMNE01.jpg,AMNE01.jpg,MN,1,num_4,32,num_8,1.15014256886,,,2018_Jan_10_1554,60.0113949023,MAFE4ImagesEEG,001,102745,
AFNE01.JPG,AFNE01.JPG,AFNE01.JPG,AFNE01.JPG,AFNE01.JPG,AFNE01.JPG,,,,,,,,,2,9,29,5,,,,,,,,,,,,,,,AMNE01.jpg,AMNE05.jpg,AMSA11.jpg,AMSA01.jpg,AMNE05.jpg,MN,1,num_6,16,num_6,0.850098627619,,,2018_Jan_10_1554,60.0113949023,MAFE4ImagesEEG,001,102745,
AFNE01.JPG,AFNE01.JPG,AFNE01.JPG,AFNE01.JPG,AFNE01.JPG,AFNE01.JPG,,,,,,,,,3,0,30,2,,,,,,,,,,,,,,,AMNE11.jpg,AMSA05.jpg,AMSA08.jpg,AMNE12.jpg,AMNE11.jpg,MN,1,num_8,16,num_8,0.766785447486,,,2018_Jan_10_1554,60.0113949023,MAFE4ImagesEEG,001,102745,
AFNE01.JPG,AFNE01.JPG,AFNE01.JPG,AFNE01.JPG,AFNE01.JPG,AFNE01.JPG,,,,,,,,,3,1,31,9,,,,,,,,,,,,,,,AMNE10.jpg,AMSA19.jpg,AMNE20.jpg,AMSA07.jpg,AMNE20.jpg,MN,1,num_2,16,num_2,1.03343201429,,,2018_Jan_10_1554,60.0113949023,MAFE4ImagesEEG,001,102745,
AFNE01.JPG,AFNE01.JPG,AFNE01.JPG,AFNE01.JPG,AFNE01.JPG,AFNE01.JPG,,,,,,,,,3,2,32,4,,,,,,,,,,,,,,,AMSA18.jpg,AMNE03.jpg,AMNE18.jpg,AMSA19.jpg,AMSA18.jpg,MS,2,num_8,32,num_6,1.7333646589,,,2018_Jan_10_1554,60.0113949023,MAFE4ImagesEEG,001,102745,
AFNE01.JPG,AFNE01.JPG,AFNE01.JPG,AFNE01.JPG,AFNE01.JPG,AFNE01.JPG,,,,,,,,,3,3,33,6,,,,,,,,,,,,,,,AMSA08.jpg,AMNE12.jpg,AMSA07.jpg,AMNE06.jpg,AMSA08.jpg,MS,2,num_8,16,num_8,1.4166897065,,,2018_Jan_10_1554,60.0113949023,MAFE4ImagesEEG,001,102745,
AFNE01.JPG,AFNE01.JPG,AFNE01.JPG,AFNE01.JPG,AFNE01.JPG,AFNE01.JPG,,,,,,,,,3,4,34,3,,,,,,,,,,,,,,,AMSA02.jpg,AMNE18.jpg,AMNE15.jpg,AMSA03.jpg,AMNE18.jpg,MN,1,num_6,32,num_8,1.38339721411,,,2018_Jan_10_1554,60.0113949023,MAFE4ImagesEEG,001,102745,
AFNE01.JPG,AFNE01.JPG,AFNE01.JPG,AFNE01.JPG,AFNE01.JPG,AFNE01.JPG,,,,,,,,,3,5,35,1,,,,,,,,,,,,,,,AMNE17.jpg,AMSA20.jpg,AMSA16.jpg,AMNE20.jpg,AMNE17.jpg,MN,1,num_8,32,num_4,0.950182661414,,,2018_Jan_10_1554,60.0113949023,MAFE4ImagesEEG,001,102745,
AFNE01.JPG,AFNE01.JPG,AFNE01.JPG,AFNE01.JPG,AFNE01.JPG,AFNE01.JPG,,,,,,,,,3,6,36,7,,,,,,,,,,,,,,,AMSA13.jpg,AMSA12.jpg,AMNE06.jpg,AMNE11.jpg,AMNE11.jpg,MN,1,num_4,32,num_6,1.15011113626,,,2018_Jan_10_1554,60.0113949023,MAFE4ImagesEEG,001,102745,
AFNE01.JPG,AFNE01.JPG,AFNE01.JPG,AFNE01.JPG,AFNE01.JPG,AFNE01.JPG,,,,,,,,,3,7,37,5,,,,,,,,,,,,,,,AMSA03.jpg,AMNE08.jpg,AMNE13.jpg,AMSA20.jpg,AMSA03.jpg,MS,2,num_8,32,num_2,1.34985229908,,,2018_Jan_10_1554,60.0113949023,MAFE4ImagesEEG,001,102745,
AFNE01.JPG,AFNE01.JPG,AFNE01.JPG,AFNE01.JPG,AFNE01.JPG,AFNE01.JPG,,,,,,,,,3,8,38,0,,,,,,,,,,,,,,,AMSA20.jpg,AMNE07.jpg,AMNE09.jpg,AMSA13.jpg,AMSA20.jpg,MS,2,num_8,32,num_6,0.950090929633,,,2018_Jan_10_1554,60.0113949023,MAFE4ImagesEEG,001,102745,
AFNE01.JPG,AFNE01.JPG,AFNE01.JPG,AFNE01.JPG,AFNE01.JPG,AFNE01.JPG,,,,,,,,,3,9,39,8,,,,,,,,,,,,,,,AMSA02.jpg,AMSA07.jpg,AMNE20.jpg,AMNE06.jpg,AMNE06.jpg,MN,1,num_4,16,num_4,2.3499866894,,,2018_Jan_10_1554,60.0113949023,MAFE4ImagesEEG,001,102745,
AFNE01.JPG,AFNE01.JPG,AFNE01.JPG,AFNE01.JPG,AFNE01.JPG,AFNE01.JPG,,,,,,,,,4,0,40,1,,,,,,,,,,,,,,,AMSA05.jpg,AMNE05.jpg,AMSA06.jpg,AMNE17.jpg,AMSA06.jpg,MS,2,num_2,32,num_6,0.850151228951,,,2018_Jan_10_1554,60.0113949023,MAFE4ImagesEEG,001,102745,
AFNE01.JPG,AFNE01.JPG,AFNE01.JPG,AFNE01.JPG,AFNE01.JPG,AFNE01.JPG,,,,,,,,,4,1,41,0,,,,,,,,,,,,,,,AMNE05.jpg,AMNE01.jpg,AMSA09.jpg,AMSA07.jpg,AMNE01.jpg,MN,1,num_6,32,num_2,1.75002870639,,,2018_Jan_10_1554,60.0113949023,MAFE4ImagesEEG,001,102745,
AFNE01.JPG,AFNE01.JPG,AFNE01.JPG,AFNE01.JPG,AFNE01.JPG,AFNE01.JPG,,,,,,,,,4,2,42,7,,,,,,,,,,,,,,,AMNE13.jpg,AMSA19.jpg,AMNE11.jpg,AMSA16.jpg,AMSA19.jpg,MS,2,num_6,32,num_8,1.18342415616,,,2018_Jan_10_1554,60.0113949023,MAFE4ImagesEEG,001,102745,
AFNE01.JPG,AFNE01.JPG,AFNE01.JPG,AFNE01.JPG,AFNE01.JPG,AFNE01.JPG,,,,,,,,,4,3,43,4,,,,,,,,,,,,,,,AMNE13.jpg,AMNE12.jpg,AMSA01.jpg,AMSA13.jpg,AMSA01.jpg,MS,2,num_2,32,num_4,0.916750005446,,,2018_Jan_10_1554,60.0113949023,MAFE4ImagesEEG,001,102745,
AFNE01.JPG,AFNE01.JPG,AFNE01.JPG,AFNE01.JPG,AFNE01.JPG,AFNE01.JPG,,,,,,,,,4,4,44,6,,,,,,,,,,,,,,,AMSA18.jpg,AMNE20.jpg,AMNE06.jpg,AMSA16.jpg,AMNE06.jpg,MN,1,num_2,32,num_4,3.21656718384,,,2018_Jan_10_1554,60.0113949023,MAFE4ImagesEEG,001,102745,
AFNE01.JPG,AFNE01.JPG,AFNE01.JPG,AFNE01.JPG,AFNE01.JPG,AFNE01.JPG,,,,,,,,,4,5,45,9,,,,,,,,,,,,,,,AMSA19.jpg,AMNE09.jpg,AMNE04.jpg,AMSA04.jpg,AMSA19.jpg,MS,2,num_8,32,num_2,1.33342624106,,,2018_Jan_10_1554,60.0113949023,MAFE4ImagesEEG,001,102745,
AFNE01.JPG,AFNE01.JPG,AFNE01.JPG,AFNE01.JPG,AFNE01.JPG,AFNE01.JPG,,,,,,,,,4,6,46,3,,,,,,,,,,,,,,,AMSA10.jpg,AMNE06.jpg,AMNE18.jpg,AMSA09.jpg,AMNE06.jpg,MN,1,num_6,32,num_2,2.4332642674,,,2018_Jan_10_1554,60.0113949023,MAFE4ImagesEEG,001,102745,
AFNE01.JPG,AFNE01.JPG,AFNE01.JPG,AFNE01.JPG,AFNE01.JPG,AFNE01.JPG,,,,,,,,,4,7,47,5,,,,,,,,,,,,,,,AMNE13.jpg,AMSA06.jpg,AMSA15.jpg,AMNE06.jpg,AMNE06.jpg,MN,1,num_4,32,num_6,0.733444843907,,,2018_Jan_10_1554,60.0113949023,MAFE4ImagesEEG,001,102745,
AFNE01.JPG,AFNE01.JPG,AFNE01.JPG,AFNE01.JPG,AFNE01.JPG,AFNE01.JPG,,,,,,,,,4,8,48,8,,,,,,,,,,,,,,,AMSA02.jpg,AMNE01.jpg,AMNE17.jpg,AMSA07.jpg,AMSA02.jpg,MS,2,num_8,16,num_8,1.16673701582,,,2018_Jan_10_1554,60.0113949023,MAFE4ImagesEEG,001,102745,
AFNE01.JPG,AFNE01.JPG,AFNE01.JPG,AFNE01.JPG,AFNE01.JPG,AFNE01.JPG,,,,,,,,,4,9,49,2,,,,,,,,,,,,,,,AMNE07.jpg,AMSA03.jpg,AMNE13.jpg,AMSA12.jpg,AMSA12.jpg,MS,2,num_4,16,num_4,2.71702488,,,2018_Jan_10_1554,60.0113949023,MAFE4ImagesEEG,001,102745,
AFNE01.JPG,AFNE01.JPG,AFNE01.JPG,AFNE01.JPG,AFNE01.JPG,AFNE01.JPG,,,,,,,,,5,0,50,2,,,,,,,,,,,,,,,AMSA04.jpg,AMNE17.jpg,AMSA08.jpg,AMNE20.jpg,AMNE20.jpg,MN,1,num_4,16,num_4,1.25011915481,,,2018_Jan_10_1554,60.0113949023,MAFE4ImagesEEG,001,102745,
AFNE01.JPG,AFNE01.JPG,AFNE01.JPG,AFNE01.JPG,AFNE01.JPG,AFNE01.JPG,,,,,,,,,5,1,51,5,,,,,,,,,,,,,,,AMNE08.jpg,AMNE01.jpg,AMSA14.jpg,AMSA13.jpg,AMSA13.jpg,MS,2,num_4,32,num_8,0.966774542117,,,2018_Jan_10_1554,60.0113949023,MAFE4ImagesEEG,001,102745,
AFNE01.JPG,AFNE01.JPG,AFNE01.JPG,AFNE01.JPG,AFNE01.JPG,AFNE01.JPG,,,,,,,,,5,2,52,8,,,,,,,,,,,,,,,AMNE11.jpg,AMSA04.jpg,AMNE15.jpg,AMSA19.jpg,AMNE15.jpg,MN,1,num_2,32,num_8,2.950026782,,,2018_Jan_10_1554,60.0113949023,MAFE4ImagesEEG,001,102745,
AFNE01.JPG,AFNE01.JPG,AFNE01.JPG,AFNE01.JPG,AFNE01.JPG,AFNE01.JPG,,,,,,,,,5,3,53,9,,,,,,,,,,,,,,,AMNE11.jpg,AMSA11.jpg,AMSA05.jpg,AMNE17.jpg,AMNE11.jpg,MN,1,num_8,32,num_2,0.683455267921,,,2018_Jan_10_1554,60.0113949023,MAFE4ImagesEEG,001,102745,
AFNE01.JPG,AFNE01.JPG,AFNE01.JPG,AFNE01.JPG,AFNE01.JPG,AFNE01.JPG,,,,,,,,,5,4,54,7,,,,,,,,,,,,,,,AMSA13.jpg,AMSA08.jpg,AMNE16.jpg,AMNE10.jpg,AMSA13.jpg,MS,2,num_8,16,num_8,1.70004618657,,,2018_Jan_10_1554,60.0113949023,MAFE4ImagesEEG,001,102745,
AFNE01.JPG,AFNE01.JPG,AFNE01.JPG,AFNE01.JPG,AFNE01.JPG,AFNE01.JPG,,,,,,,,,5,5,55,4,,,,,,,,,,,,,,,AMNE06.jpg,AMSA19.jpg,AMSA15.jpg,AMNE01.jpg,AMSA15.jpg,MS,2,num_2,32,num_6,1.700024697,,,2018_Jan_10_1554,60.0113949023,MAFE4ImagesEEG,001,102745,
AFNE01.JPG,AFNE01.JPG,AFNE01.JPG,AFNE01.JPG,AFNE01.JPG,AFNE01.JPG,,,,,,,,,5,6,56,1,,,,,,,,,,,,,,,AMNE05.jpg,AMNE16.jpg,AMSA09.jpg,AMSA03.jpg,AMNE05.jpg,MN,1,num_8,32,num_4,0.883489907952,,,2018_Jan_10_1554,60.0113949023,MAFE4ImagesEEG,001,102745,
AFNE01.JPG,AFNE01.JPG,AFNE01.JPG,AFNE01.JPG,AFNE01.JPG,AFNE01.JPG,,,,,,,,,5,7,57,6,,,,,,,,,,,,,,,AMNE15.jpg,AMSA04.jpg,AMNE08.jpg,AMSA14.jpg,AMSA04.jpg,MS,2,num_6,32,num_8,1.00014689891,,,2018_Jan_10_1554,60.0113949023,MAFE4ImagesEEG,001,102745,
AFNE01.JPG,AFNE01.JPG,AFNE01.JPG,AFNE01.JPG,AFNE01.JPG,AFNE01.JPG,,,,,,,,,5,8,58,0,,,,,,,,,,,,,,,AMSA14.jpg,AMSA03.jpg,AMNE03.jpg,AMNE05.jpg,AMSA14.jpg,MS,2,num_8,32,num_6,0.683454947313,,,2018_Jan_10_1554,60.0113949023,MAFE4ImagesEEG,001,102745,
AFNE01.JPG,AFNE01.JPG,AFNE01.JPG,AFNE01.JPG,AFNE01.JPG,AFNE01.JPG,,,,,,,,,5,9,59,3,,,,,,,,,,,,,,,AMNE04.jpg,AMSA14.jpg,AMSA04.jpg,AMNE05.jpg,AMNE05.jpg,MN,1,num_4,16,num_4,0.66682489845,,,2018_Jan_10_1554,60.0113949023,MAFE4ImagesEEG,001,102745,
,,,,,,,,,,,,,,,,,,,,,,,,,,,,,,,,,,,,,,,,,,,space,3.59988228837,2018_Jan_10_1554,60.0113949023,MAFE4ImagesEEG,001,102745,
AFNE01.JPG,AFNE01.JPG,AFNE01.JPG,AFNE01.JPG,AFNE01.JPG,AFNE01.JPG,,,,,,,,,,,,,0,0,0,3,,,,,,,,,,,AFSA03.jpg,AFSA16.jpg,AFNE20.jpg,AFNE07.jpg,AFNE20.jpg,FN,3,num_2,16,num_2,0.966754335677,,,2018_Jan_10_1554,60.0113949023,MAFE4ImagesEEG,001,102745,
AFNE01.JPG,AFNE01.JPG,AFNE01.JPG,AFNE01.JPG,AFNE01.JPG,AFNE01.JPG,,,,,,,,,,,,,0,1,1,8,,,,,,,,,,,AFNE02.jpg,AFSA20.jpg,AFNE17.jpg,AFSA16.jpg,AFSA20.jpg,FS,4,num_6,32,num_4,0.950101514347,,,2018_Jan_10_1554,60.0113949023,MAFE4ImagesEEG,001,102745,
AFNE01.JPG,AFNE01.JPG,AFNE01.JPG,AFNE01.JPG,AFNE01.JPG,AFNE01.JPG,,,,,,,,,,,,,0,2,2,5,,,,,,,,,,,AFSA07.jpg,AFNE13.jpg,AFSA13.jpg,AFNE02.jpg,AFSA13.jpg,FS,4,num_2,32,num_6,0.633455107687,,,2018_Jan_10_1554,60.0113949023,MAFE4ImagesEEG,001,102745,
AFNE01.JPG,AFNE01.JPG,AFNE01.JPG,AFNE01.JPG,AFNE01.JPG,AFNE01.JPG,,,,,,,,,,,,,0,3,3,4,,,,,,,,,,,AFSA17.jpg,AFNE13.jpg,AFNE08.jpg,AFSA19.jpg,AFSA19.jpg,FS,4,num_4,32,num_8,0.583464569412,,,2018_Jan_10_1554,60.0113949023,MAFE4ImagesEEG,001,102745,
AFNE01.JPG,AFNE01.JPG,AFNE01.JPG,AFNE01.JPG,AFNE01.JPG,AFNE01.JPG,,,,,,,,,,,,,0,4,4,9,,,,,,,,,,,AFNE07.jpg,AFSA17.jpg,AFNE04.jpg,AFSA01.jpg,AFSA17.jpg,FS,4,num_6,16,num_6,0.783502096077,,,2018_Jan_10_1554,60.0113949023,MAFE4ImagesEEG,001,102745,
AFNE01.JPG,AFNE01.JPG,AFNE01.JPG,AFNE01.JPG,AFNE01.JPG,AFNE01.JPG,,,,,,,,,,,,,0,5,5,6,,,,,,,,,,,AFNE14.jpg,AFNE04.jpg,AFSA14.jpg,AFSA06.jpg,AFSA06.jpg,FS,4,num_4,16,num_4,1.09993617283,,,2018_Jan_10_1554,60.0113949023,MAFE4ImagesEEG,001,102745,
AFNE01.JPG,AFNE01.JPG,AFNE01.JPG,AFNE01.JPG,AFNE01.JPG,AFNE01.JPG,,,,,,,,,,,,,0,6,6,2,,,,,,,,,,,AFSA09.jpg,AFSA18.jpg,AFNE09.jpg,AFNE14.jpg,AFNE14.jpg,FN,3,num_4,16,num_4,0.633489747532,,,2018_Jan_10_1554,60.0113949023,MAFE4ImagesEEG,001,102745,
AFNE01.JPG,AFNE01.JPG,AFNE01.JPG,AFNE01.JPG,AFNE01.JPG,AFNE01.JPG,,,,,,,,,,,,,0,7,7,1,,,,,,,,,,,AFNE06.jpg,AFSA02.jpg,AFSA06.jpg,AFNE09.jpg,AFSA02.jpg,FS,4,num_6,32,num_8,1.0667382984,,,2018_Jan_10_1554,60.0113949023,MAFE4ImagesEEG,001,102745,
AFNE01.JPG,AFNE01.JPG,AFNE01.JPG,AFNE01.JPG,AFNE01.JPG,AFNE01.JPG,,,,,,,,,,,,,0,8,8,0,,,,,,,,,,,AFSA07.jpg,AFNE02.jpg,AFNE15.jpg,AFSA03.jpg,AFNE15.jpg,FN,3,num_2,16,num_2,1.4167480811,,,2018_Jan_10_1554,60.0113949023,MAFE4ImagesEEG,001,102745,
AFNE01.JPG,AFNE01.JPG,AFNE01.JPG,AFNE01.JPG,AFNE01.JPG,AFNE01.JPG,,,,,,,,,,,,,0,9,9,7,,,,,,,,,,,AFSA09.jpg,AFNE04.jpg,AFSA15.jpg,AFNE16.jpg,AFNE04.jpg,FN,3,num_6,16,num_6,1.80000833934,,,2018_Jan_10_1554,60.0113949023,MAFE4ImagesEEG,001,102745,
AFNE01.JPG,AFNE01.JPG,AFNE01.JPG,AFNE01.JPG,AFNE01.JPG,AFNE01.JPG,,,,,,,,,,,,,1,0,10,9,,,,,,,,,,,AFSA05.jpg,AFNE04.jpg,AFNE11.jpg,AFSA17.jpg,AFSA05.jpg,FS,4,num_8,16,num_8,0.583443400683,,,2018_Jan_10_1554,60.0113949023,MAFE4ImagesEEG,001,102745,
AFNE01.JPG,AFNE01.JPG,AFNE01.JPG,AFNE01.JPG,AFNE01.JPG,AFNE01.JPG,,,,,,,,,,,,,1,1,11,2,,,,,,,,,,,AFSA05.jpg,AFNE17.jpg,AFNE12.jpg,AFSA14.jpg,AFNE12.jpg,FN,3,num_2,16,num_2,1.20009525982,,,2018_Jan_10_1554,60.0113949023,MAFE4ImagesEEG,001,102745,
AFNE01.JPG,AFNE01.JPG,AFNE01.JPG,AFNE01.JPG,AFNE01.JPG,AFNE01.JPG,,,,,,,,,,,,,1,2,12,7,,,,,,,,,,,AFNE17.jpg,AFSA01.jpg,AFSA17.jpg,AFNE14.jpg,AFSA01.jpg,FS,4,num_6,16,num_6,0.583451739978,,,2018_Jan_10_1554,60.0113949023,MAFE4ImagesEEG,001,102745,
AFNE01.JPG,AFNE01.JPG,AFNE01.JPG,AFNE01.JPG,AFNE01.JPG,AFNE01.JPG,,,,,,,,,,,,,1,3,13,1,,,,,,,,,,,AFNE12.jpg,AFNE10.jpg,AFSA11.jpg,AFSA17.jpg,AFSA17.jpg,FS,4,num_4,32,num_8,0.916569108143,,,2018_Jan_10_1554,60.0113949023,MAFE4ImagesEEG,001,102745,
AFNE01.JPG,AFNE01.JPG,AFNE01.JPG,AFNE01.JPG,AFNE01.JPG,AFNE01.JPG,,,,,,,,,,,,,1,4,14,0,,,,,,,,,,,AFNE03.jpg,AFSA19.jpg,AFNE07.jpg,AFSA05.jpg,AFSA19.jpg,FS,4,num_6,16,num_6,2.0834241563,,,2018_Jan_10_1554,60.0113949023,MAFE4ImagesEEG,001,102745,
AFNE01.JPG,AFNE01.JPG,AFNE01.JPG,AFNE01.JPG,AFNE01.JPG,AFNE01.JPG,,,,,,,,,,,,,1,5,15,5,,,,,,,,,,,AFNE11.jpg,AFSA06.jpg,AFNE07.jpg,AFSA05.jpg,AFSA06.jpg,FS,4,num_6,32,num_8,0.783422231674,,,2018_Jan_10_1554,60.0113949023,MAFE4ImagesEEG,001,102745,
AFNE01.JPG,AFNE01.JPG,AFNE01.JPG,AFNE01.JPG,AFNE01.JPG,AFNE01.JPG,,,,,,,,,,,,,1,6,16,4,,,,,,,,,,,AFSA08.jpg,AFSA06.jpg,AFNE08.jpg,AFNE05.jpg,AFNE05.jpg,FN,3,num_4,16,num_4,1.20006446866,,,2018_Jan_10_1554,60.0113949023,MAFE4ImagesEEG,001,102745,
AFNE01.JPG,AFNE01.JPG,AFNE01.JPG,AFNE01.JPG,AFNE01.JPG,AFNE01.JPG,,,,,,,,,,,,,1,7,17,6,,,,,,,,,,,AFNE15.jpg,AFSA20.jpg,AFNE16.jpg,AFSA03.jpg,AFSA03.jpg,FS,4,num_4,32,num_2,1.16672995943,,,2018_Jan_10_1554,60.0113949023,MAFE4ImagesEEG,001,102745,
AFNE01.JPG,AFNE01.JPG,AFNE01.JPG,AFNE01.JPG,AFNE01.JPG,AFNE01.JPG,,,,,,,,,,,,,1,8,18,8,,,,,,,,,,,AFNE17.jpg,AFSA11.jpg,AFSA14.jpg,AFNE04.jpg,AFNE04.jpg,FN,3,num_4,32,num_6,0.649785585236,,,2018_Jan_10_1554,60.0113949023,MAFE4ImagesEEG,001,102745,
AFNE01.JPG,AFNE01.JPG,AFNE01.JPG,AFNE01.JPG,AFNE01.JPG,AFNE01.JPG,,,,,,,,,,,,,1,9,19,3,,,,,,,,,,,AFSA14.jpg,AFNE02.jpg,AFSA16.jpg,AFNE18.jpg,AFNE02.jpg,FN,3,num_6,32,num_4,0.916769570671,,,2018_Jan_10_1554,60.0113949023,MAFE4ImagesEEG,001,102745,
AFNE01.JPG,AFNE01.JPG,AFNE01.JPG,AFNE01.JPG,AFNE01.JPG,AFNE01.JPG,,,,,,,,,,,,,2,0,20,0,,,,,,,,,,,AFNE06.jpg,AFNE04.jpg,AFSA02.jpg,AFSA18.jpg,AFSA18.jpg,FS,4,num_4,16,num_4,1.03344035358,,,2018_Jan_10_1554,60.0113949023,MAFE4ImagesEEG,001,102745,
AFNE01.JPG,AFNE01.JPG,AFNE01.JPG,AFNE01.JPG,AFNE01.JPG,AFNE01.JPG,,,,,,,,,,,,,2,1,21,5,,,,,,,,,,,AFSA17.jpg,AFNE03.jpg,AFNE10.jpg,AFSA01.jpg,AFNE10.jpg,FN,3,num_2,16,num_2,0.783378290478,,,2018_Jan_10_1554,60.0113949023,MAFE4ImagesEEG,001,102745,
AFNE01.JPG,AFNE01.JPG,AFNE01.JPG,AFNE01.JPG,AFNE01.JPG,AFNE01.JPG,,,,,,,,,,,,,2,2,22,4,,,,,,,,,,,AFNE10.jpg,AFSA08.jpg,AFSA19.jpg,AFNE08.jpg,AFNE08.jpg,FN,3,num_4,32,num_8,0.866612568498,,,2018_Jan_10_1554,60.0113949023,MAFE4ImagesEEG,001,102745,
AFNE01.JPG,AFNE01.JPG,AFNE01.JPG,AFNE01.JPG,AFNE01.JPG,AFNE01.JPG,,,,,,,,,,,,,2,3,23,6,,,,,,,,,,,AFSA07.jpg,AFNE17.jpg,AFSA06.jpg,AFNE14.jpg,AFNE17.jpg,FN,3,num_6,32,num_4,0.800128296018,,,2018_Jan_10_1554,60.0113949023,MAFE4ImagesEEG,001,102745,
AFNE01.JPG,AFNE01.JPG,AFNE01.JPG,AFNE01.JPG,AFNE01.JPG,AFNE01.JPG,,,,,,,,,,,,,2,4,24,9,,,,,,,,,,,AFNE16.jpg,AFNE12.jpg,AFSA18.jpg,AFSA17.jpg,AFSA17.jpg,FS,4,num_4,16,num_4,0.600121881114,,,2018_Jan_10_1554,60.0113949023,MAFE4ImagesEEG,001,102745,
AFNE01.JPG,AFNE01.JPG,AFNE01.JPG,AFNE01.JPG,AFNE01.JPG,AFNE01.JPG,,,,,,,,,,,,,2,5,25,1,,,,,,,,,,,AFNE11.jpg,AFNE16.jpg,AFSA17.jpg,AFSA06.jpg,AFNE16.jpg,FN,3,num_6,16,num_6,0.716777589172,,,2018_Jan_10_1554,60.0113949023,MAFE4ImagesEEG,001,102745,
AFNE01.JPG,AFNE01.JPG,AFNE01.JPG,AFNE01.JPG,AFNE01.JPG,AFNE01.JPG,,,,,,,,,,,,,2,6,26,8,,,,,,,,,,,AFSA04.jpg,AFNE02.jpg,AFNE09.jpg,AFSA18.jpg,AFSA04.jpg,FS,4,num_8,16,num_8,0.833581158658,,,2018_Jan_10_1554,60.0113949023,MAFE4ImagesEEG,001,102745,
AFNE01.JPG,AFNE01.JPG,AFNE01.JPG,AFNE01.JPG,AFNE01.JPG,AFNE01.JPG,,,,,,,,,,,,,2,7,27,3,,,,,,,,,,,AFNE17.jpg,AFSA15.jpg,AFNE14.jpg,AFSA16.jpg,AFSA16.jpg,FS,4,num_4,16,num_4,0.883414854761,,,2018_Jan_10_1554,60.0113949023,MAFE4ImagesEEG,001,102745,
AFNE01.JPG,AFNE01.JPG,AFNE01.JPG,AFNE01.JPG,AFNE01.JPG,AFNE01.JPG,,,,,,,,,,,,,2,8,28,7,,,,,,,,,,,AFSA05.jpg,AFSA09.jpg,AFNE04.jpg,AFNE06.jpg,AFNE04.jpg,FN,3,num_2,32,num_8,0.85018362361,,,2018_Jan_10_1554,60.0113949023,MAFE4ImagesEEG,001,102745,
AFNE01.JPG,AFNE01.JPG,AFNE01.JPG,AFNE01.JPG,AFNE01.JPG,AFNE01.JPG,,,,,,,,,,,,,2,9,29,2,,,,,,,,,,,AFNE04.jpg,AFSA13.jpg,AFNE16.jpg,AFSA01.jpg,AFSA01.jpg,FS,4,num_4,32,num_6,0.966761071235,,,2018_Jan_10_1554,60.0113949023,MAFE4ImagesEEG,001,102745,
AFNE01.JPG,AFNE01.JPG,AFNE01.JPG,AFNE01.JPG,AFNE01.JPG,AFNE01.JPG,,,,,,,,,,,,,3,0,30,8,,,,,,,,,,,AFNE14.jpg,AFSA15.jpg,AFNE08.jpg,AFSA13.jpg,AFSA15.jpg,FS,4,num_6,32,num_8,0.866772617912,,,2018_Jan_10_1554,60.0113949023,MAFE4ImagesEEG,001,102745,
AFNE01.JPG,AFNE01.JPG,AFNE01.JPG,AFNE01.JPG,AFNE01.JPG,AFNE01.JPG,,,,,,,,,,,,,3,1,31,7,,,,,,,,,,,AFNE02.jpg,AFSA03.jpg,AFSA12.jpg,AFNE08.jpg,AFNE08.jpg,FN,3,num_4,32,num_6,1.0000994294,,,2018_Jan_10_1554,60.0113949023,MAFE4ImagesEEG,001,102745,
AFNE01.JPG,AFNE01.JPG,AFNE01.JPG,AFNE01.JPG,AFNE01.JPG,AFNE01.JPG,,,,,,,,,,,,,3,2,32,0,,,,,,,,,,,AFSA13.jpg,AFSA14.jpg,AFNE04.jpg,AFNE10.jpg,AFSA13.jpg,FS,4,num_8,32,num_6,0.866800201591,,,2018_Jan_10_1554,60.0113949023,MAFE4ImagesEEG,001,102745,
AFNE01.JPG,AFNE01.JPG,AFNE01.JPG,AFNE01.JPG,AFNE01.JPG,AFNE01.JPG,,,,,,,,,,,,,3,3,33,4,,,,,,,,,,,AFNE18.jpg,AFSA16.jpg,AFNE03.jpg,AFSA05.jpg,AFNE18.jpg,FN,3,num_8,32,num_4,0.866776145995,,,2018_Jan_10_1554,60.0113949023,MAFE4ImagesEEG,001,102745,
AFNE01.JPG,AFNE01.JPG,AFNE01.JPG,AFNE01.JPG,AFNE01.JPG,AFNE01.JPG,,,,,,,,,,,,,3,4,34,1,,,,,,,,,,,AFSA08.jpg,AFNE08.jpg,AFSA20.jpg,AFNE12.jpg,AFNE08.jpg,FN,3,num_6,32,num_2,1.68338342221,,,2018_Jan_10_1554,60.0113949023,MAFE4ImagesEEG,001,102745,
AFNE01.JPG,AFNE01.JPG,AFNE01.JPG,AFNE01.JPG,AFNE01.JPG,AFNE01.JPG,,,,,,,,,,,,,3,5,35,2,,,,,,,,,,,AFNE08.jpg,AFSA11.jpg,AFSA18.jpg,AFNE20.jpg,AFSA11.jpg,FS,4,num_6,16,num_6,0.600132144755,,,2018_Jan_10_1554,60.0113949023,MAFE4ImagesEEG,001,102745,
AFNE01.JPG,AFNE01.JPG,AFNE01.JPG,AFNE01.JPG,AFNE01.JPG,AFNE01.JPG,,,,,,,,,,,,,3,6,36,3,,,,,,,,,,,AFSA02.jpg,AFNE06.jpg,AFNE04.jpg,AFSA15.jpg,AFNE04.jpg,FN,3,num_2,32,num_4,2.06663983152,,,2018_Jan_10_1554,60.0113949023,MAFE4ImagesEEG,001,102745,
AFNE01.JPG,AFNE01.JPG,AFNE01.JPG,AFNE01.JPG,AFNE01.JPG,AFNE01.JPG,,,,,,,,,,,,,3,7,37,6,,,,,,,,,,,AFNE07.jpg,AFSA18.jpg,AFSA02.jpg,AFNE11.jpg,AFSA02.jpg,FS,4,num_2,32,num_8,0.850178171182,,,2018_Jan_10_1554,60.0113949023,MAFE4ImagesEEG,001,102745,
AFNE01.JPG,AFNE01.JPG,AFNE01.JPG,AFNE01.JPG,AFNE01.JPG,AFNE01.JPG,,,,,,,,,,,,,3,8,38,9,,,,,,,,,,,AFSA05.jpg,AFSA02.jpg,AFNE06.jpg,AFNE20.jpg,AFSA05.jpg,FS,4,num_8,16,num_8,1.65008034534,,,2018_Jan_10_1554,60.0113949023,MAFE4ImagesEEG,001,102745,
AFNE01.JPG,AFNE01.JPG,AFNE01.JPG,AFNE01.JPG,AFNE01.JPG,AFNE01.JPG,,,,,,,,,,,,,3,9,39,5,,,,,,,,,,,AFSA11.jpg,AFNE04.jpg,AFSA15.jpg,AFNE07.jpg,AFNE04.jpg,FN,3,num_6,16,num_6,2.88328784169,,,2018_Jan_10_1554,60.0113949023,MAFE4ImagesEEG,001,102745,
AFNE01.JPG,AFNE01.JPG,AFNE01.JPG,AFNE01.JPG,AFNE01.JPG,AFNE01.JPG,,,,,,,,,,,,,4,0,40,6,,,,,,,,,,,AFNE08.jpg,AFSA18.jpg,AFNE19.jpg,AFSA10.jpg,AFSA18.jpg,FS,4,num_6,16,num_6,0.766629246995,,,2018_Jan_10_1554,60.0113949023,MAFE4ImagesEEG,001,102745,
AFNE01.JPG,AFNE01.JPG,AFNE01.JPG,AFNE01.JPG,AFNE01.JPG,AFNE01.JPG,,,,,,,,,,,,,4,1,41,0,,,,,,,,,,,AFSA04.jpg,AFSA14.jpg,AFNE05.jpg,AFNE06.jpg,AFSA04.jpg,FS,4,num_8,16,num_8,4.51652356307,,,2018_Jan_10_1554,60.0113949023,MAFE4ImagesEEG,001,102745,
AFNE01.JPG,AFNE01.JPG,AFNE01.JPG,AFNE01.JPG,AFNE01.JPG,AFNE01.JPG,,,,,,,,,,,,,4,2,42,9,,,,,,,,,,,AFNE01.jpg,AFSA12.jpg,AFNE10.jpg,AFSA20.jpg,AFSA20.jpg,FS,4,num_4,16,num_4,0.933518614154,,,2018_Jan_10_1554,60.0113949023,MAFE4ImagesEEG,001,102745,
AFNE01.JPG,AFNE01.JPG,AFNE01.JPG,AFNE01.JPG,AFNE01.JPG,AFNE01.JPG,,,,,,,,,,,,,4,3,43,4,,,,,,,,,,,AFSA13.jpg,AFSA01.jpg,AFNE15.jpg,AFNE18.jpg,AFSA01.jpg,FS,4,num_6,32,num_8,2.71664095391,,,2018_Jan_10_1554,60.0113949023,MAFE4ImagesEEG,001,102745,
AFNE01.JPG,AFNE01.JPG,AFNE01.JPG,AFNE01.JPG,AFNE01.JPG,AFNE01.JPG,,,,,,,,,,,,,4,4,44,5,,,,,,,,,,,AFSA14.jpg,AFNE05.jpg,AFNE07.jpg,AFSA15.jpg,AFNE05.jpg,FN,3,num_6,16,num_6,0.750091571361,,,2018_Jan_10_1554,60.0113949023,MAFE4ImagesEEG,001,102745,
AFNE01.JPG,AFNE01.JPG,AFNE01.JPG,AFNE01.JPG,AFNE01.JPG,AFNE01.JPG,,,,,,,,,,,,,4,5,45,3,,,,,,,,,,,AFSA06.jpg,AFNE05.jpg,AFNE14.jpg,AFSA04.jpg,AFSA06.jpg,FS,4,num_8,16,num_8,0.816787532298,,,2018_Jan_10_1554,60.0113949023,MAFE4ImagesEEG,001,102745,
AFNE01.JPG,AFNE01.JPG,AFNE01.JPG,AFNE01.JPG,AFNE01.JPG,AFNE01.JPG,,,,,,,,,,,,,4,6,46,7,,,,,,,,,,,AFSA11.jpg,AFNE16.jpg,AFSA06.jpg,AFNE07.jpg,AFNE07.jpg,FN,3,num_4,32,num_6,0.73351187841,,,2018_Jan_10_1554,60.0113949023,MAFE4ImagesEEG,001,102745,
AFNE01.JPG,AFNE01.JPG,AFNE01.JPG,AFNE01.JPG,AFNE01.JPG,AFNE01.JPG,,,,,,,,,,,,,4,7,47,2,,,,,,,,,,,AFSA11.jpg,AFSA10.jpg,AFNE07.jpg,AFNE08.jpg,AFSA11.jpg,FS,4,num_8,32,num_4,0.866748562315,,,2018_Jan_10_1554,60.0113949023,MAFE4ImagesEEG,001,102745,
AFNE01.JPG,AFNE01.JPG,AFNE01.JPG,AFNE01.JPG,AFNE01.JPG,AFNE01.JPG,,,,,,,,,,,,,4,8,48,1,,,,,,,,,,,AFNE06.jpg,AFSA15.jpg,AFSA02.jpg,AFNE05.jpg,AFSA15.jpg,FS,4,num_6,32,num_8,0.683352951892,,,2018_Jan_10_1554,60.0113949023,MAFE4ImagesEEG,001,102745,
AFNE01.JPG,AFNE01.JPG,AFNE01.JPG,AFNE01.JPG,AFNE01.JPG,AFNE01.JPG,,,,,,,,,,,,,4,9,49,8,,,,,,,,,,,AFNE19.jpg,AFSA02.jpg,AFSA18.jpg,AFNE02.jpg,AFSA18.jpg,FS,4,num_2,32,num_6,0.800086599775,,,2018_Jan_10_1554,60.0113949023,MAFE4ImagesEEG,001,102745,
AFNE01.JPG,AFNE01.JPG,AFNE01.JPG,AFNE01.JPG,AFNE01.JPG,AFNE01.JPG,,,,,,,,,,,,,5,0,50,1,,,,,,,,,,,AFNE08.jpg,AFSA07.jpg,AFSA09.jpg,AFNE17.jpg,AFSA07.jpg,FS,4,num_6,16,num_6,0.63318889332,,,2018_Jan_10_1554,60.0113949023,MAFE4ImagesEEG,001,102745,
AFNE01.JPG,AFNE01.JPG,AFNE01.JPG,AFNE01.JPG,AFNE01.JPG,AFNE01.JPG,,,,,,,,,,,,,5,1,51,6,,,,,,,,,,,AFNE06.jpg,AFNE07.jpg,AFSA09.jpg,AFSA07.jpg,AFSA09.jpg,FS,4,num_2,32,num_4,0.88351203897,,,2018_Jan_10_1554,60.0113949023,MAFE4ImagesEEG,001,102745,
AFNE01.JPG,AFNE01.JPG,AFNE01.JPG,AFNE01.JPG,AFNE01.JPG,AFNE01.JPG,,,,,,,,,,,,,5,2,52,2,,,,,,,,,,,AFSA06.jpg,AFNE01.jpg,AFSA14.jpg,AFNE15.jpg,AFSA06.jpg,FS,4,num_8,16,num_8,0.616797795752,,,2018_Jan_10_1554,60.0113949023,MAFE4ImagesEEG,001,102745,
AFNE01.JPG,AFNE01.JPG,AFNE01.JPG,AFNE01.JPG,AFNE01.JPG,AFNE01.JPG,,,,,,,,,,,,,5,3,53,5,,,,,,,,,,,AFNE11.jpg,AFSA10.jpg,AFSA14.jpg,AFNE16.jpg,AFNE16.jpg,FN,3,num_4,16,num_4,1.2333973744,,,2018_Jan_10_1554,60.0113949023,MAFE4ImagesEEG,001,102745,
AFNE01.JPG,AFNE01.JPG,AFNE01.JPG,AFNE01.JPG,AFNE01.JPG,AFNE01.JPG,,,,,,,,,,,,,5,4,54,0,,,,,,,,,,,AFSA17.jpg,AFSA15.jpg,AFNE18.jpg,AFNE02.jpg,AFSA15.jpg,FS,4,num_6,32,num_8,2.41663197312,,,2018_Jan_10_1554,60.0113949023,MAFE4ImagesEEG,001,102745,
AFNE01.JPG,AFNE01.JPG,AFNE01.JPG,AFNE01.JPG,AFNE01.JPG,AFNE01.JPG,,,,,,,,,,,,,5,5,55,8,,,,,,,,,,,AFSA02.jpg,AFSA20.jpg,AFNE04.jpg,AFNE09.jpg,AFNE09.jpg,FN,3,num_4,16,num_4,1.25008836389,,,2018_Jan_10_1554,60.0113949023,MAFE4ImagesEEG,001,102745,
AFNE01.JPG,AFNE01.JPG,AFNE01.JPG,AFNE01.JPG,AFNE01.JPG,AFNE01.JPG,,,,,,,,,,,,,5,6,56,4,,,,,,,,,,,AFNE14.jpg,AFSA04.jpg,AFSA11.jpg,AFNE19.jpg,AFNE19.jpg,FN,3,num_4,32,num_8,1.50008756202,,,2018_Jan_10_1554,60.0113949023,MAFE4ImagesEEG,001,102745,
AFNE01.JPG,AFNE01.JPG,AFNE01.JPG,AFNE01.JPG,AFNE01.JPG,AFNE01.JPG,,,,,,,,,,,,,5,7,57,3,,,,,,,,,,,AFSA08.jpg,AFSA11.jpg,AFNE15.jpg,AFNE09.jpg,AFSA11.jpg,FS,4,num_6,16,num_6,0.550112098455,,,2018_Jan_10_1554,60.0113949023,MAFE4ImagesEEG,001,102745,
AFNE01.JPG,AFNE01.JPG,AFNE01.JPG,AFNE01.JPG,AFNE01.JPG,AFNE01.JPG,,,,,,,,,,,,,5,8,58,9,,,,,,,,,,,AFNE17.jpg,AFSA02.jpg,AFSA12.jpg,AFNE10.jpg,AFNE10.jpg,FN,3,num_4,32,num_8,1.26672514831,,,2018_Jan_10_1554,60.0113949023,MAFE4ImagesEEG,001,102745,
AFNE01.JPG,AFNE01.JPG,AFNE01.JPG,AFNE01.JPG,AFNE01.JPG,AFNE01.JPG,,,,,,,,,,,,,5,9,59,7,,,,,,,,,,,AFSA03.jpg,AFSA11.jpg,AFNE07.jpg,AFNE13.jpg,AFSA11.jpg,FS,4,num_6,16,num_6,1.46661128546,,,2018_Jan_10_1554,60.0113949023,MAFE4ImagesEEG,001,102745,
,,,,,,,,,,,,,,,,,,,,,,,,,,,,,,,,,,,,,,,,,,,space,2.99991885293,2018_Jan_10_1554,60.0113949023,MAFE4ImagesEEG,001,102745,
AFNE01.JPG,AFNE01.JPG,AFNE01.JPG,AFNE01.JPG,AFNE01.JPG,AFNE01.JPG,,,,,,,,,,,,,,,,,0,0,0,6,,,,,,,AMSA18.jpg,AMSA05.jpg,AMNE18.jpg,AMNE14.jpg,AMSA18.jpg,MS,2,num_8,32,num_4,0.583171413047,,,2018_Jan_10_1554,60.0113949023,MAFE4ImagesEEG,001,102745,
AFNE01.JPG,AFNE01.JPG,AFNE01.JPG,AFNE01.JPG,AFNE01.JPG,AFNE01.JPG,,,,,,,,,,,,,,,,,0,1,1,3,,,,,,,AMSA12.jpg,AMNE03.jpg,AMNE02.jpg,AMSA19.jpg,AMSA19.jpg,MS,2,num_4,32,num_8,0.833693096647,,,2018_Jan_10_1554,60.0113949023,MAFE4ImagesEEG,001,102745,
AFNE01.JPG,AFNE01.JPG,AFNE01.JPG,AFNE01.JPG,AFNE01.JPG,AFNE01.JPG,,,,,,,,,,,,,,,,,0,2,2,7,,,,,,,AMNE17.jpg,AMSA12.jpg,AMSA06.jpg,AMNE07.jpg,AMSA12.jpg,MS,2,num_6,32,num_8,0.950075534172,,,2018_Jan_10_1554,60.0113949023,MAFE4ImagesEEG,001,102745,
AFNE01.JPG,AFNE01.JPG,AFNE01.JPG,AFNE01.JPG,AFNE01.JPG,AFNE01.JPG,,,,,,,,,,,,,,,,,0,3,3,8,,,,,,,AMNE04.jpg,AMNE10.jpg,AMSA17.jpg,AMSA20.jpg,AMNE10.jpg,MN,1,num_6,16,num_6,0.966797314817,,,2018_Jan_10_1554,60.0113949023,MAFE4ImagesEEG,001,102745,
AFNE01.JPG,AFNE01.JPG,AFNE01.JPG,AFNE01.JPG,AFNE01.JPG,AFNE01.JPG,,,,,,,,,,,,,,,,,0,4,4,9,,,,,,,AMNE01.jpg,AMSA08.jpg,AMSA03.jpg,AMNE11.jpg,AMNE11.jpg,MN,1,num_4,16,num_4,0.616754496004,,,2018_Jan_10_1554,60.0113949023,MAFE4ImagesEEG,001,102745,
AFNE01.JPG,AFNE01.JPG,AFNE01.JPG,AFNE01.JPG,AFNE01.JPG,AFNE01.JPG,,,,,,,,,,,,,,,,,0,5,5,0,,,,,,,AMNE09.jpg,AMSA13.jpg,AMSA16.jpg,AMNE04.jpg,AMSA13.jpg,MS,2,num_6,16,num_6,0.8501518704,,,2018_Jan_10_1554,60.0113949023,MAFE4ImagesEEG,001,102745,
AFNE01.JPG,AFNE01.JPG,AFNE01.JPG,AFNE01.JPG,AFNE01.JPG,AFNE01.JPG,,,,,,,,,,,,,,,,,0,6,6,2,,,,,,,AMSA20.jpg,AMSA01.jpg,AMNE14.jpg,AMNE12.jpg,AMSA20.jpg,MS,2,num_8,16,num_8,0.783415816957,,,2018_Jan_10_1554,60.0113949023,MAFE4ImagesEEG,001,102745,
AFNE01.JPG,AFNE01.JPG,AFNE01.JPG,AFNE01.JPG,AFNE01.JPG,AFNE01.JPG,,,,,,,,,,,,,,,,,0,7,7,4,,,,,,,AMNE02.jpg,AMSA19.jpg,AMSA11.jpg,AMNE17.jpg,AMNE17.jpg,MN,1,num_4,32,num_8,2.3333550368,,,2018_Jan_10_1554,60.0113949023,MAFE4ImagesEEG,001,102745,
AFNE01.JPG,AFNE01.JPG,AFNE01.JPG,AFNE01.JPG,AFNE01.JPG,AFNE01.JPG,,,,,,,,,,,,,,,,,0,8,8,5,,,,,,,AMNE09.jpg,AMSA16.jpg,AMSA11.jpg,AMNE03.jpg,AMSA16.jpg,MS,2,num_6,16,num_6,0.583432816202,,,2018_Jan_10_1554,60.0113949023,MAFE4ImagesEEG,001,102745,
AFNE01.JPG,AFNE01.JPG,AFNE01.JPG,AFNE01.JPG,AFNE01.JPG,AFNE01.JPG,,,,,,,,,,,,,,,,,0,9,9,1,,,,,,,AMNE15.jpg,AMNE06.jpg,AMSA10.jpg,AMSA09.jpg,AMNE15.jpg,MN,1,num_8,32,num_4,1.18345366442,,,2018_Jan_10_1554,60.0113949023,MAFE4ImagesEEG,001,102745,
AFNE01.JPG,AFNE01.JPG,AFNE01.JPG,AFNE01.JPG,AFNE01.JPG,AFNE01.JPG,,,,,,,,,,,,,,,,,1,0,10,8,,,,,,,AMSA03.jpg,AMNE12.jpg,AMNE17.jpg,AMSA18.jpg,AMNE12.jpg,MN,1,num_6,16,num_6,0.766752731754,,,2018_Jan_10_1554,60.0113949023,MAFE4ImagesEEG,001,102745,
AFNE01.JPG,AFNE01.JPG,AFNE01.JPG,AFNE01.JPG,AFNE01.JPG,AFNE01.JPG,,,,,,,,,,,,,,,,,1,1,11,0,,,,,,,AMSA01.jpg,AMNE06.jpg,AMNE09.jpg,AMSA12.jpg,AMNE06.jpg,MN,1,num_6,32,num_2,1.91643215227,,,2018_Jan_10_1554,60.0113949023,MAFE4ImagesEEG,001,102745,
AFNE01.JPG,AFNE01.JPG,AFNE01.JPG,AFNE01.JPG,AFNE01.JPG,AFNE01.JPG,,,,,,,,,,,,,,,,,1,2,12,2,,,,,,,AMSA04.jpg,AMNE02.jpg,AMSA09.jpg,AMNE04.jpg,AMNE04.jpg,MN,1,num_4,16,num_4,0.566782239825,,,2018_Jan_10_1554,60.0113949023,MAFE4ImagesEEG,001,102745,
AFNE01.JPG,AFNE01.JPG,AFNE01.JPG,AFNE01.JPG,AFNE01.JPG,AFNE01.JPG,,,,,,,,,,,,,,,,,1,3,13,9,,,,,,,AMNE12.jpg,AMSA11.jpg,AMNE18.jpg,AMSA05.jpg,AMNE12.jpg,MN,1,num_8,32,num_6,3.29996279418,,,2018_Jan_10_1554,60.0113949023,MAFE4ImagesEEG,001,102745,
AFNE01.JPG,AFNE01.JPG,AFNE01.JPG,AFNE01.JPG,AFNE01.JPG,AFNE01.JPG,,,,,,,,,,,,,,,,,1,4,14,6,,,,,,,AMSA18.jpg,AMSA13.jpg,AMNE08.jpg,AMNE16.jpg,AMNE16.jpg,MN,1,num_4,32,num_8,1.08342479775,,,2018_Jan_10_1554,60.0113949023,MAFE4ImagesEEG,001,102745,
AFNE01.JPG,AFNE01.JPG,AFNE01.JPG,AFNE01.JPG,AFNE01.JPG,AFNE01.JPG,,,,,,,,,,,,,,,,,1,5,15,4,,,,,,,AMSA15.jpg,AMNE01.jpg,AMSA02.jpg,AMNE16.jpg,AMNE16.jpg,MN,1,num_4,32,num_8,0.666772617726,,,2018_Jan_10_1554,60.0113949023,MAFE4ImagesEEG,001,102745,
AFNE01.JPG,AFNE01.JPG,AFNE01.JPG,AFNE01.JPG,AFNE01.JPG,AFNE01.JPG,,,,,,,,,,,,,,,,,1,6,16,5,,,,,,,AMSA03.jpg,AMSA04.jpg,AMNE06.jpg,AMNE16.jpg,AMNE16.jpg,MN,1,num_4,32,num_6,1.26671520527,,,2018_Jan_10_1554,60.0113949023,MAFE4ImagesEEG,001,102745,
AFNE01.JPG,AFNE01.JPG,AFNE01.JPG,AFNE01.JPG,AFNE01.JPG,AFNE01.JPG,,,,,,,,,,,,,,,,,1,7,17,3,,,,,,,AMNE06.jpg,AMNE14.jpg,AMSA09.jpg,AMSA12.jpg,AMNE14.jpg,MN,1,num_6,32,num_4,1.81669515907,,,2018_Jan_10_1554,60.0113949023,MAFE4ImagesEEG,001,102745,
AFNE01.JPG,AFNE01.JPG,AFNE01.JPG,AFNE01.JPG,AFNE01.JPG,AFNE01.JPG,,,,,,,,,,,,,,,,,1,8,18,7,,,,,,,AMNE01.jpg,AMSA19.jpg,AMNE19.jpg,AMSA04.jpg,AMSA19.jpg,MS,2,num_6,32,num_2,3.94987154379,,,2018_Jan_10_1554,60.0113949023,MAFE4ImagesEEG,001,102745,
AFNE01.JPG,AFNE01.JPG,AFNE01.JPG,AFNE01.JPG,AFNE01.JPG,AFNE01.JPG,,,,,,,,,,,,,,,,,1,9,19,1,,,,,,,AMSA01.jpg,AMNE20.jpg,AMSA17.jpg,AMNE05.jpg,AMSA17.jpg,MS,2,num_2,16,num_2,1.63336979086,,,2018_Jan_10_1554,60.0113949023,MAFE4ImagesEEG,001,102745,
AFNE01.JPG,AFNE01.JPG,AFNE01.JPG,AFNE01.JPG,AFNE01.JPG,AFNE01.JPG,,,,,,,,,,,,,,,,,2,0,20,0,,,,,,,AMNE19.jpg,AMNE20.jpg,AMSA10.jpg,AMSA03.jpg,AMNE19.jpg,MN,1,num_8,32,num_6,0.8501191549,,,2018_Jan_10_1554,60.0113949023,MAFE4ImagesEEG,001,102745,
AFNE01.JPG,AFNE01.JPG,AFNE01.JPG,AFNE01.JPG,AFNE01.JPG,AFNE01.JPG,,,,,,,,,,,,,,,,,2,1,21,8,,,,,,,AMNE19.jpg,AMNE03.jpg,AMSA10.jpg,AMSA04.jpg,AMSA04.jpg,MS,2,num_4,32,num_2,3.29994354979,,,2018_Jan_10_1554,60.0113949023,MAFE4ImagesEEG,001,102745,
AFNE01.JPG,AFNE01.JPG,AFNE01.JPG,AFNE01.JPG,AFNE01.JPG,AFNE01.JPG,,,,,,,,,,,,,,,,,2,2,22,1,,,,,,,AMSA10.jpg,AMNE13.jpg,AMNE18.jpg,AMSA16.jpg,AMNE13.jpg,MN,1,num_6,16,num_6,0.616878301837,,,2018_Jan_10_1554,60.0113949023,MAFE4ImagesEEG,001,102745,
AFNE01.JPG,AFNE01.JPG,AFNE01.JPG,AFNE01.JPG,AFNE01.JPG,AFNE01.JPG,,,,,,,,,,,,,,,,,2,3,23,5,,,,,,,AMNE03.jpg,AMNE07.jpg,AMSA19.jpg,AMSA06.jpg,AMSA19.jpg,MS,2,num_2,16,num_2,0.900207197992,,,2018_Jan_10_1554,60.0113949023,MAFE4ImagesEEG,001,102745,
AFNE01.JPG,AFNE01.JPG,AFNE01.JPG,AFNE01.JPG,AFNE01.JPG,AFNE01.JPG,,,,,,,,,,,,,,,,,2,4,24,4,,,,,,,AMNE13.jpg,AMSA15.jpg,AMSA08.jpg,AMNE04.jpg,AMSA15.jpg,MS,2,num_6,32,num_8,1.08345302287,,,2018_Jan_10_1554,60.0113949023,MAFE4ImagesEEG,001,102745,
AFNE01.JPG,AFNE01.JPG,AFNE01.JPG,AFNE01.JPG,AFNE01.JPG,AFNE01.JPG,,,,,,,,,,,,,,,,,2,5,25,6,,,,,,,AMSA12.jpg,AMSA01.jpg,AMNE16.jpg,AMNE12.jpg,AMNE12.jpg,MN,1,num_4,16,num_4,0.983433778398,,,2018_Jan_10_1554,60.0113949023,MAFE4ImagesEEG,001,102745,
AFNE01.JPG,AFNE01.JPG,AFNE01.JPG,AFNE01.JPG,AFNE01.JPG,AFNE01.JPG,,,,,,,,,,,,,,,,,2,6,26,7,,,,,,,AMSA17.jpg,AMNE17.jpg,AMNE20.jpg,AMSA10.jpg,AMSA17.jpg,MS,2,num_8,32,num_6,2.06668986683,,,2018_Jan_10_1554,60.0113949023,MAFE4ImagesEEG,001,102745,
AFNE01.JPG,AFNE01.JPG,AFNE01.JPG,AFNE01.JPG,AFNE01.JPG,AFNE01.JPG,,,,,,,,,,,,,,,,,2,7,27,2,,,,,,,AMSA01.jpg,AMNE13.jpg,AMNE11.jpg,AMSA07.jpg,AMSA01.jpg,MS,2,num_8,16,num_8,0.916733968537,,,2018_Jan_10_1554,60.0113949023,MAFE4ImagesEEG,001,102745,
AFNE01.JPG,AFNE01.JPG,AFNE01.JPG,AFNE01.JPG,AFNE01.JPG,AFNE01.JPG,,,,,,,,,,,,,,,,,2,8,28,9,,,,,,,AMNE07.jpg,AMSA08.jpg,AMNE09.jpg,AMSA04.jpg,AMNE09.jpg,MN,1,num_2,32,num_6,3.48323652335,,,2018_Jan_10_1554,60.0113949023,MAFE4ImagesEEG,001,102745,
AFNE01.JPG,AFNE01.JPG,AFNE01.JPG,AFNE01.JPG,AFNE01.JPG,AFNE01.JPG,,,,,,,,,,,,,,,,,2,9,29,3,,,,,,,AMSA11.jpg,AMNE05.jpg,AMSA14.jpg,AMNE10.jpg,AMNE05.jpg,MN,1,num_6,32,num_8,0.750162775628,,,2018_Jan_10_1554,60.0113949023,MAFE4ImagesEEG,001,102745,
AFNE01.JPG,AFNE01.JPG,AFNE01.JPG,AFNE01.JPG,AFNE01.JPG,AFNE01.JPG,,,,,,,,,,,,,,,,,3,0,30,9,,,,,,,AMNE19.jpg,AMNE13.jpg,AMSA01.jpg,AMSA12.jpg,AMNE19.jpg,MN,1,num_8,16,num_8,3.34963195096,,,2018_Jan_10_1554,60.0113949023,MAFE4ImagesEEG,001,102745,
AFNE01.JPG,AFNE01.JPG,AFNE01.JPG,AFNE01.JPG,AFNE01.JPG,AFNE01.JPG,,,,,,,,,,,,,,,,,3,1,31,1,,,,,,,AMNE14.jpg,AMNE12.jpg,AMSA01.jpg,AMSA13.jpg,AMNE12.jpg,MN,1,num_6,16,num_6,0.666919837473,,,2018_Jan_10_1554,60.0113949023,MAFE4ImagesEEG,001,102745,
AFNE01.JPG,AFNE01.JPG,AFNE01.JPG,AFNE01.JPG,AFNE01.JPG,AFNE01.JPG,,,,,,,,,,,,,,,,,3,2,32,8,,,,,,,AMSA01.jpg,AMNE14.jpg,AMSA09.jpg,AMNE13.jpg,AMNE13.jpg,MN,1,num_4,16,num_4,0.86674631713,,,2018_Jan_10_1554,60.0113949023,MAFE4ImagesEEG,001,102745,
AFNE01.JPG,AFNE01.JPG,AFNE01.JPG,AFNE01.JPG,AFNE01.JPG,AFNE01.JPG,,,,,,,,,,,,,,,,,3,3,33,4,,,,,,,AMNE03.jpg,AMSA05.jpg,AMSA13.jpg,AMNE13.jpg,AMSA05.jpg,MS,2,num_6,16,num_6,0.750100551872,,,2018_Jan_10_1554,60.0113949023,MAFE4ImagesEEG,001,102745,
AFNE01.JPG,AFNE01.JPG,AFNE01.JPG,AFNE01.JPG,AFNE01.JPG,AFNE01.JPG,,,,,,,,,,,,,,,,,3,4,34,5,,,,,,,AMSA20.jpg,AMNE15.jpg,AMSA08.jpg,AMNE20.jpg,AMNE15.jpg,MN,1,num_6,16,num_6,2.06670333794,,,2018_Jan_10_1554,60.0113949023,MAFE4ImagesEEG,001,102745,
AFNE01.JPG,AFNE01.JPG,AFNE01.JPG,AFNE01.JPG,AFNE01.JPG,AFNE01.JPG,,,,,,,,,,,,,,,,,3,5,35,2,,,,,,,AMNE04.jpg,AMSA08.jpg,AMSA18.jpg,AMNE12.jpg,AMNE04.jpg,MN,1,num_8,16,num_8,0.88341549621,,,2018_Jan_10_1554,60.0113949023,MAFE4ImagesEEG,001,102745,
AFNE01.JPG,AFNE01.JPG,AFNE01.JPG,AFNE01.JPG,AFNE01.JPG,AFNE01.JPG,,,,,,,,,,,,,,,,,3,6,36,3,,,,,,,AMSA07.jpg,AMSA13.jpg,AMNE20.jpg,AMNE11.jpg,AMNE20.jpg,MN,1,num_2,32,num_6,3.89993521059,,,2018_Jan_10_1554,60.0113949023,MAFE4ImagesEEG,001,102745,
AFNE01.JPG,AFNE01.JPG,AFNE01.JPG,AFNE01.JPG,AFNE01.JPG,AFNE01.JPG,,,,,,,,,,,,,,,,,3,7,37,6,,,,,,,AMSA02.jpg,AMNE19.jpg,AMNE10.jpg,AMSA13.jpg,AMSA02.jpg,MS,2,num_8,32,num_4,0.6834344198,,,2018_Jan_10_1554,60.0113949023,MAFE4ImagesEEG,001,102745,
AFNE01.JPG,AFNE01.JPG,AFNE01.JPG,AFNE01.JPG,AFNE01.JPG,AFNE01.JPG,,,,,,,,,,,,,,,,,3,8,38,0,,,,,,,AMNE09.jpg,AMSA04.jpg,AMNE19.jpg,AMSA08.jpg,AMSA08.jpg,MS,2,num_4,32,num_8,0.616857453482,,,2018_Jan_10_1554,60.0113949023,MAFE4ImagesEEG,001,102745,
AFNE01.JPG,AFNE01.JPG,AFNE01.JPG,AFNE01.JPG,AFNE01.JPG,AFNE01.JPG,,,,,,,,,,,,,,,,,3,9,39,7,,,,,,,AMNE06.jpg,AMNE03.jpg,AMSA07.jpg,AMSA18.jpg,AMSA07.jpg,MS,2,num_2,32,num_4,0.95008868468,,,2018_Jan_10_1554,60.0113949023,MAFE4ImagesEEG,001,102745,
AFNE01.JPG,AFNE01.JPG,AFNE01.JPG,AFNE01.JPG,AFNE01.JPG,AFNE01.JPG,,,,,,,,,,,,,,,,,4,0,40,7,,,,,,,AMSA19.jpg,AMNE10.jpg,AMNE09.jpg,AMSA18.jpg,AMNE10.jpg,MN,1,num_6,32,num_2,0.966584984912,,,2018_Jan_10_1554,60.0113949023,MAFE4ImagesEEG,001,102745,
AFNE01.JPG,AFNE01.JPG,AFNE01.JPG,AFNE01.JPG,AFNE01.JPG,AFNE01.JPG,,,,,,,,,,,,,,,,,4,1,41,0,,,,,,,AMNE05.jpg,AMNE04.jpg,AMSA12.jpg,AMSA17.jpg,AMSA17.jpg,MS,2,num_4,32,num_8,0.650150266709,,,2018_Jan_10_1554,60.0113949023,MAFE4ImagesEEG,001,102745,
AFNE01.JPG,AFNE01.JPG,AFNE01.JPG,AFNE01.JPG,AFNE01.JPG,AFNE01.JPG,,,,,,,,,,,,,,,,,4,2,42,9,,,,,,,AMNE07.jpg,AMSA01.jpg,AMSA13.jpg,AMNE04.jpg,AMSA01.jpg,MS,2,num_6,16,num_6,0.550113702193,,,2018_Jan_10_1554,60.0113949023,MAFE4ImagesEEG,001,102745,
AFNE01.JPG,AFNE01.JPG,AFNE01.JPG,AFNE01.JPG,AFNE01.JPG,AFNE01.JPG,,,,,,,,,,,,,,,,,4,3,43,3,,,,,,,AMNE08.jpg,AMNE03.jpg,AMSA20.jpg,AMSA11.jpg,AMSA11.jpg,MS,2,num_4,16,num_4,1.43367096572,,,2018_Jan_10_1554,60.0113949023,MAFE4ImagesEEG,001,102745,
AFNE01.JPG,AFNE01.JPG,AFNE01.JPG,AFNE01.JPG,AFNE01.JPG,AFNE01.JPG,,,,,,,,,,,,,,,,,4,4,44,5,,,,,,,AMNE11.jpg,AMNE10.jpg,AMSA07.jpg,AMSA18.jpg,AMSA18.jpg,MS,2,num_4,32,num_8,0.983367705951,,,2018_Jan_10_1554,60.0113949023,MAFE4ImagesEEG,001,102745,
AFNE01.JPG,AFNE01.JPG,AFNE01.JPG,AFNE01.JPG,AFNE01.JPG,AFNE01.JPG,,,,,,,,,,,,,,,,,4,5,45,4,,,,,,,AMSA19.jpg,AMNE14.jpg,AMNE02.jpg,AMSA15.jpg,AMSA19.jpg,MS,2,num_8,32,num_6,1.50004362059,,,2018_Jan_10_1554,60.0113949023,MAFE4ImagesEEG,001,102745,
AFNE01.JPG,AFNE01.JPG,AFNE01.JPG,AFNE01.JPG,AFNE01.JPG,AFNE01.JPG,,,,,,,,,,,,,,,,,4,6,46,1,,,,,,,AMSA10.jpg,AMNE15.jpg,AMSA20.jpg,AMNE16.jpg,AMNE15.jpg,MN,1,num_6,16,num_6,0.95011017425,,,2018_Jan_10_1554,60.0113949023,MAFE4ImagesEEG,001,102745,
AFNE01.JPG,AFNE01.JPG,AFNE01.JPG,AFNE01.JPG,AFNE01.JPG,AFNE01.JPG,,,,,,,,,,,,,,,,,4,7,47,8,,,,,,,AMSA12.jpg,AMNE12.jpg,AMSA08.jpg,AMNE20.jpg,AMSA08.jpg,MS,2,num_2,32,num_8,1.16674599657,,,2018_Jan_10_1554,60.0113949023,MAFE4ImagesEEG,001,102745,
AFNE01.JPG,AFNE01.JPG,AFNE01.JPG,AFNE01.JPG,AFNE01.JPG,AFNE01.JPG,,,,,,,,,,,,,,,,,4,8,48,2,,,,,,,AMNE05.jpg,AMNE04.jpg,AMSA03.jpg,AMSA16.jpg,AMSA16.jpg,MS,2,num_4,32,num_6,0.633487823186,,,2018_Jan_10_1554,60.0113949023,MAFE4ImagesEEG,001,102745,
AFNE01.JPG,AFNE01.JPG,AFNE01.JPG,AFNE01.JPG,AFNE01.JPG,AFNE01.JPG,,,,,,,,,,,,,,,,,4,9,49,6,,,,,,,AMSA12.jpg,AMNE05.jpg,AMSA08.jpg,AMNE08.jpg,AMNE08.jpg,MN,1,num_4,16,num_4,0.61664384068,,,2018_Jan_10_1554,60.0113949023,MAFE4ImagesEEG,001,102745,
AFNE01.JPG,AFNE01.JPG,AFNE01.JPG,AFNE01.JPG,AFNE01.JPG,AFNE01.JPG,,,,,,,,,,,,,,,,,5,0,50,9,,,,,,,AMNE10.jpg,AMNE05.jpg,AMSA02.jpg,AMSA16.jpg,AMSA02.jpg,MS,2,num_2,16,num_2,1.40009333543,,,2018_Jan_10_1554,60.0113949023,MAFE4ImagesEEG,001,102745,
AFNE01.JPG,AFNE01.JPG,AFNE01.JPG,AFNE01.JPG,AFNE01.JPG,AFNE01.JPG,,,,,,,,,,,,,,,,,5,1,51,5,,,,,,,AMNE14.jpg,AMNE15.jpg,AMSA08.jpg,AMSA20.jpg,AMSA20.jpg,MS,2,num_4,32,num_8,0.916738458909,,,2018_Jan_10_1554,60.0113949023,MAFE4ImagesEEG,001,102745,
AFNE01.JPG,AFNE01.JPG,AFNE01.JPG,AFNE01.JPG,AFNE01.JPG,AFNE01.JPG,,,,,,,,,,,,,,,,,5,2,52,1,,,,,,,AMNE06.jpg,AMNE10.jpg,AMSA03.jpg,AMSA20.jpg,AMSA20.jpg,MS,2,num_4,32,num_6,0.833445164841,,,2018_Jan_10_1554,60.0113949023,MAFE4ImagesEEG,001,102745,
AFNE01.JPG,AFNE01.JPG,AFNE01.JPG,AFNE01.JPG,AFNE01.JPG,AFNE01.JPG,,,,,,,,,,,,,,,,,5,3,53,6,,,,,,,AMNE15.jpg,AMSA14.jpg,AMSA18.jpg,AMNE09.jpg,AMSA18.jpg,MS,2,num_2,32,num_8,1.43340443075,,,2018_Jan_10_1554,60.0113949023,MAFE4ImagesEEG,001,102745,
AFNE01.JPG,AFNE01.JPG,AFNE01.JPG,AFNE01.JPG,AFNE01.JPG,AFNE01.JPG,,,,,,,,,,,,,,,,,5,4,54,8,,,,,,,AMNE10.jpg,AMSA08.jpg,AMSA01.jpg,AMNE15.jpg,AMSA08.jpg,MS,2,num_6,16,num_6,0.966860179789,,,2018_Jan_10_1554,60.0113949023,MAFE4ImagesEEG,001,102745,
AFNE01.JPG,AFNE01.JPG,AFNE01.JPG,AFNE01.JPG,AFNE01.JPG,AFNE01.JPG,,,,,,,,,,,,,,,,,5,5,55,7,,,,,,,AMSA05.jpg,AMNE08.jpg,AMNE09.jpg,AMSA06.jpg,AMNE08.jpg,MN,1,num_6,32,num_4,0.883450777736,,,2018_Jan_10_1554,60.0113949023,MAFE4ImagesEEG,001,102745,
AFNE01.JPG,AFNE01.JPG,AFNE01.JPG,AFNE01.JPG,AFNE01.JPG,AFNE01.JPG,,,,,,,,,,,,,,,,,5,6,56,2,,,,,,,AMNE17.jpg,AMSA02.jpg,AMSA10.jpg,AMNE18.jpg,AMSA02.jpg,MS,2,num_6,16,num_6,0.98347002198,,,2018_Jan_10_1554,60.0113949023,MAFE4ImagesEEG,001,102745,
AFNE01.JPG,AFNE01.JPG,AFNE01.JPG,AFNE01.JPG,AFNE01.JPG,AFNE01.JPG,,,,,,,,,,,,,,,,,5,7,57,4,,,,,,,AMNE07.jpg,AMNE04.jpg,AMSA08.jpg,AMSA04.jpg,AMNE07.jpg,MN,1,num_8,32,num_2,1.01674006251,,,2018_Jan_10_1554,60.0113949023,MAFE4ImagesEEG,001,102745,
AFNE01.JPG,AFNE01.JPG,AFNE01.JPG,AFNE01.JPG,AFNE01.JPG,AFNE01.JPG,,,,,,,,,,,,,,,,,5,8,58,3,,,,,,,AMNE12.jpg,AMNE02.jpg,AMSA19.jpg,AMSA01.jpg,AMSA01.jpg,MS,2,num_4,32,num_6,3.74992446578,,,2018_Jan_10_1554,60.0113949023,MAFE4ImagesEEG,001,102745,
AFNE01.JPG,AFNE01.JPG,AFNE01.JPG,AFNE01.JPG,AFNE01.JPG,AFNE01.JPG,,,,,,,,,,,,,,,,,5,9,59,0,,,,,,,AMSA11.jpg,AMNE12.jpg,AMSA06.jpg,AMNE09.jpg,AMNE12.jpg,MN,1,num_6,32,num_4,1.08347515389,,,2018_Jan_10_1554,60.0113949023,MAFE4ImagesEEG,001,102745,
,,,,,,,,,,,,,,,,,,,,,,,,,,,,,,,,,,,,,,,,,,,space,27.3980499005,2018_Jan_10_1554,60.0113949023,MAFE4ImagesEEG,001,102745,
AFNE01.JPG,AFNE01.JPG,AFNE01.JPG,AFNE01.JPG,AFNE01.JPG,AFNE01.JPG,,,,,,,,,,,,,,,,,,,,,0,0,0,7,,,AFNE17.jpg,AFSA12.jpg,AFSA20.jpg,AFNE18.jpg,AFSA20.jpg,FS,4,num_2,32,num_6,0.883473550202,,,2018_Jan_10_1554,60.0113949023,MAFE4ImagesEEG,001,102745,
AFNE01.JPG,AFNE01.JPG,AFNE01.JPG,AFNE01.JPG,AFNE01.JPG,AFNE01.JPG,,,,,,,,,,,,,,,,,,,,,0,1,1,2,,,AFNE15.jpg,AFSA17.jpg,AFSA11.jpg,AFNE05.jpg,AFNE05.jpg,FN,3,num_4,32,num_8,0.85016341717,,,2018_Jan_10_1554,60.0113949023,MAFE4ImagesEEG,001,102745,
AFNE01.JPG,AFNE01.JPG,AFNE01.JPG,AFNE01.JPG,AFNE01.JPG,AFNE01.JPG,,,,,,,,,,,,,,,,,,,,,0,2,2,4,,,AFNE15.jpg,AFSA13.jpg,AFSA07.jpg,AFNE13.jpg,AFSA13.jpg,FS,4,num_6,32,num_8,0.933468578616,,,2018_Jan_10_1554,60.0113949023,MAFE4ImagesEEG,001,102745,
AFNE01.JPG,AFNE01.JPG,AFNE01.JPG,AFNE01.JPG,AFNE01.JPG,AFNE01.JPG,,,,,,,,,,,,,,,,,,,,,0,3,3,1,,,AFSA09.jpg,AFNE17.jpg,AFNE01.jpg,AFSA17.jpg,AFSA17.jpg,FS,4,num_4,16,num_4,0.516786890803,,,2018_Jan_10_1554,60.0113949023,MAFE4ImagesEEG,001,102745,
AFNE01.JPG,AFNE01.JPG,AFNE01.JPG,AFNE01.JPG,AFNE01.JPG,AFNE01.JPG,,,,,,,,,,,,,,,,,,,,,0,4,4,9,,,AFSA08.jpg,AFSA11.jpg,AFNE14.jpg,AFNE03.jpg,AFSA11.jpg,FS,4,num_6,32,num_2,0.583451739978,,,2018_Jan_10_1554,60.0113949023,MAFE4ImagesEEG,001,102745,
AFNE01.JPG,AFNE01.JPG,AFNE01.JPG,AFNE01.JPG,AFNE01.JPG,AFNE01.JPG,,,,,,,,,,,,,,,,,,,,,0,5,5,0,,,AFSA06.jpg,AFNE15.jpg,AFNE20.jpg,AFSA04.jpg,AFSA06.jpg,FS,4,num_8,16,num_8,0.416631652508,,,2018_Jan_10_1554,60.0113949023,MAFE4ImagesEEG,001,102745,
AFNE01.JPG,AFNE01.JPG,AFNE01.JPG,AFNE01.JPG,AFNE01.JPG,AFNE01.JPG,,,,,,,,,,,,,,,,,,,,,0,6,6,6,,,AFNE05.jpg,AFSA01.jpg,AFSA04.jpg,AFNE15.jpg,AFSA04.jpg,FS,4,num_2,32,num_6,0.450176567538,,,2018_Jan_10_1554,60.0113949023,MAFE4ImagesEEG,001,102745,
AFNE01.JPG,AFNE01.JPG,AFNE01.JPG,AFNE01.JPG,AFNE01.JPG,AFNE01.JPG,,,,,,,,,,,,,,,,,,,,,0,7,7,8,,,AFNE16.jpg,AFSA15.jpg,AFNE19.jpg,AFSA10.jpg,AFSA15.jpg,FS,4,num_6,32,num_4,0.583445645869,,,2018_Jan_10_1554,60.0113949023,MAFE4ImagesEEG,001,102745,
AFNE01.JPG,AFNE01.JPG,AFNE01.JPG,AFNE01.JPG,AFNE01.JPG,AFNE01.JPG,,,,,,,,,,,,,,,,,,,,,0,8,8,3,,,AFSA05.jpg,AFNE19.jpg,AFNE10.jpg,AFSA03.jpg,AFNE10.jpg,FN,3,num_2,32,num_6,0.650124928216,,,2018_Jan_10_1554,60.0113949023,MAFE4ImagesEEG,001,102745,
AFNE01.JPG,AFNE01.JPG,AFNE01.JPG,AFNE01.JPG,AFNE01.JPG,AFNE01.JPG,,,,,,,,,,,,,,,,,,,,,0,9,9,5,,,AFSA13.jpg,AFSA05.jpg,AFNE10.jpg,AFNE04.jpg,AFSA05.jpg,FS,4,num_6,32,num_8,0.45017335983,,,2018_Jan_10_1554,60.0113949023,MAFE4ImagesEEG,001,102745,
AFNE01.JPG,AFNE01.JPG,AFNE01.JPG,AFNE01.JPG,AFNE01.JPG,AFNE01.JPG,,,,,,,,,,,,,,,,,,,,,1,0,10,9,,,AFNE06.jpg,AFSA03.jpg,AFNE15.jpg,AFSA16.jpg,AFSA03.jpg,FS,4,num_6,16,num_6,0.98342191102,,,2018_Jan_10_1554,60.0113949023,MAFE4ImagesEEG,001,102745,
AFNE01.JPG,AFNE01.JPG,AFNE01.JPG,AFNE01.JPG,AFNE01.JPG,AFNE01.JPG,,,,,,,,,,,,,,,,,,,,,1,1,11,5,,,AFNE17.jpg,AFNE10.jpg,AFSA08.jpg,AFSA15.jpg,AFSA08.jpg,FS,4,num_2,32,num_8,0.683466814691,,,2018_Jan_10_1554,60.0113949023,MAFE4ImagesEEG,001,102745,
AFNE01.JPG,AFNE01.JPG,AFNE01.JPG,AFNE01.JPG,AFNE01.JPG,AFNE01.JPG,,,,,,,,,,,,,,,,,,,,,1,2,12,1,,,AFSA20.jpg,AFSA15.jpg,AFNE06.jpg,AFNE18.jpg,AFNE18.jpg,FN,3,num_4,32,num_6,1.13342046761,,,2018_Jan_10_1554,60.0113949023,MAFE4ImagesEEG,001,102745,
AFNE01.JPG,AFNE01.JPG,AFNE01.JPG,AFNE01.JPG,AFNE01.JPG,AFNE01.JPG,,,,,,,,,,,,,,,,,,,,,1,3,13,0,,,AFNE05.jpg,AFSA13.jpg,AFNE10.jpg,AFSA10.jpg,AFSA10.jpg,FS,4,num_4,32,num_6,2.81661882275,,,2018_Jan_10_1554,60.0113949023,MAFE4ImagesEEG,001,102745,
AFNE01.JPG,AFNE01.JPG,AFNE01.JPG,AFNE01.JPG,AFNE01.JPG,AFNE01.JPG,,,,,,,,,,,,,,,,,,,,,1,4,14,4,,,AFNE12.jpg,AFSA03.jpg,AFNE03.jpg,AFSA01.jpg,AFSA01.jpg,FS,4,num_4,32,num_2,1.2334034685,,,2018_Jan_10_1554,60.0113949023,MAFE4ImagesEEG,001,102745,
AFNE01.JPG,AFNE01.JPG,AFNE01.JPG,AFNE01.JPG,AFNE01.JPG,AFNE01.JPG,,,,,,,,,,,,,,,,,,,,,1,5,15,3,,,AFSA03.jpg,AFSA09.jpg,AFNE14.jpg,AFNE17.jpg,AFSA09.jpg,FS,4,num_6,32,num_4,1.61669676285,,,2018_Jan_10_1554,60.0113949023,MAFE4ImagesEEG,001,102745,
AFNE01.JPG,AFNE01.JPG,AFNE01.JPG,AFNE01.JPG,AFNE01.JPG,AFNE01.JPG,,,,,,,,,,,,,,,,,,,,,1,6,16,7,,,AFSA06.jpg,AFNE10.jpg,AFSA08.jpg,AFNE05.jpg,AFSA08.jpg,FS,4,num_2,32,num_6,4.73312025494,,,2018_Jan_10_1554,60.0113949023,MAFE4ImagesEEG,001,102745,
AFNE01.JPG,AFNE01.JPG,AFNE01.JPG,AFNE01.JPG,AFNE01.JPG,AFNE01.JPG,,,,,,,,,,,,,,,,,,,,,1,7,17,6,,,AFNE09.jpg,AFSA10.jpg,AFSA02.jpg,AFNE20.jpg,AFNE20.jpg,FN,3,num_4,32,num_8,0.983279181644,,,2018_Jan_10_1554,60.0113949023,MAFE4ImagesEEG,001,102745,
AFNE01.JPG,AFNE01.JPG,AFNE01.JPG,AFNE01.JPG,AFNE01.JPG,AFNE01.JPG,,,,,,,,,,,,,,,,,,,,,1,8,18,2,,,AFNE07.jpg,AFSA01.jpg,AFNE02.jpg,AFSA13.jpg,AFSA01.jpg,FS,4,num_6,16,num_6,1.00011193822,,,2018_Jan_10_1554,60.0113949023,MAFE4ImagesEEG,001,102745,
AFNE01.JPG,AFNE01.JPG,AFNE01.JPG,AFNE01.JPG,AFNE01.JPG,AFNE01.JPG,,,,,,,,,,,,,,,,,,,,,1,9,19,8,,,AFNE07.jpg,AFNE18.jpg,AFSA20.jpg,AFSA17.jpg,AFSA17.jpg,FS,4,num_4,32,num_8,0.933436825406,,,2018_Jan_10_1554,60.0113949023,MAFE4ImagesEEG,001,102745,
AFNE01.JPG,AFNE01.JPG,AFNE01.JPG,AFNE01.JPG,AFNE01.JPG,AFNE01.JPG,,,,,,,,,,,,,,,,,,,,,2,0,20,0,,,AFNE07.jpg,AFNE09.jpg,AFSA10.jpg,AFSA19.jpg,AFSA10.jpg,FS,4,num_2,16,num_2,1.08371635037,,,2018_Jan_10_1554,60.0113949023,MAFE4ImagesEEG,001,102745,
AFNE01.JPG,AFNE01.JPG,AFNE01.JPG,AFNE01.JPG,AFNE01.JPG,AFNE01.JPG,,,,,,,,,,,,,,,,,,,,,2,1,21,7,,,AFSA13.jpg,AFSA03.jpg,AFNE20.jpg,AFNE19.jpg,AFSA13.jpg,FS,4,num_8,32,num_6,0.650120117003,,,2018_Jan_10_1554,60.0113949023,MAFE4ImagesEEG,001,102745,
AFNE01.JPG,AFNE01.JPG,AFNE01.JPG,AFNE01.JPG,AFNE01.JPG,AFNE01.JPG,,,,,,,,,,,,,,,,,,,,,2,2,22,5,,,AFSA03.jpg,AFSA14.jpg,AFNE09.jpg,AFNE07.jpg,AFSA03.jpg,FS,4,num_8,32,num_6,1.05015283264,,,2018_Jan_10_1554,60.0113949023,MAFE4ImagesEEG,001,102745,
AFNE01.JPG,AFNE01.JPG,AFNE01.JPG,AFNE01.JPG,AFNE01.JPG,AFNE01.JPG,,,,,,,,,,,,,,,,,,,,,2,3,23,6,,,AFSA05.jpg,AFNE07.jpg,AFSA11.jpg,AFNE09.jpg,AFNE09.jpg,FN,3,num_4,32,num_8,0.750131343026,,,2018_Jan_10_1554,60.0113949023,MAFE4ImagesEEG,001,102745,
AFNE01.JPG,AFNE01.JPG,AFNE01.JPG,AFNE01.JPG,AFNE01.JPG,AFNE01.JPG,,,,,,,,,,,,,,,,,,,,,2,4,24,3,,,AFSA04.jpg,AFNE07.jpg,AFNE20.jpg,AFSA08.jpg,AFSA08.jpg,FS,4,num_4,16,num_4,1.15008483594,,,2018_Jan_10_1554,60.0113949023,MAFE4ImagesEEG,001,102745,
AFNE01.JPG,AFNE01.JPG,AFNE01.JPG,AFNE01.JPG,AFNE01.JPG,AFNE01.JPG,,,,,,,,,,,,,,,,,,,,,2,5,25,1,,,AFSA16.jpg,AFNE08.jpg,AFNE06.jpg,AFSA19.jpg,AFSA16.jpg,FS,4,num_8,16,num_8,1.00006895908,,,2018_Jan_10_1554,60.0113949023,MAFE4ImagesEEG,001,102745,
AFNE01.JPG,AFNE01.JPG,AFNE01.JPG,AFNE01.JPG,AFNE01.JPG,AFNE01.JPG,,,,,,,,,,,,,,,,,,,,,2,6,26,8,,,AFNE15.jpg,AFNE02.jpg,AFSA09.jpg,AFSA01.jpg,AFSA09.jpg,FS,4,num_2,16,num_2,1.05008900515,,,2018_Jan_10_1554,60.0113949023,MAFE4ImagesEEG,001,102745,
AFNE01.JPG,AFNE01.JPG,AFNE01.JPG,AFNE01.JPG,AFNE01.JPG,AFNE01.JPG,,,,,,,,,,,,,,,,,,,,,2,7,27,4,,,AFSA09.jpg,AFSA18.jpg,AFNE04.jpg,AFNE08.jpg,AFSA18.jpg,FS,4,num_6,16,num_6,0.666784485104,,,2018_Jan_10_1554,60.0113949023,MAFE4ImagesEEG,001,102745,
AFNE01.JPG,AFNE01.JPG,AFNE01.JPG,AFNE01.JPG,AFNE01.JPG,AFNE01.JPG,,,,,,,,,,,,,,,,,,,,,2,8,28,2,,,AFNE12.jpg,AFNE17.jpg,AFSA10.jpg,AFSA09.jpg,AFNE12.jpg,FN,3,num_8,32,num_4,1.00011867378,,,2018_Jan_10_1554,60.0113949023,MAFE4ImagesEEG,001,102745,
AFNE01.JPG,AFNE01.JPG,AFNE01.JPG,AFNE01.JPG,AFNE01.JPG,AFNE01.JPG,,,,,,,,,,,,,,,,,,,,,2,9,29,9,,,AFSA15.jpg,AFSA04.jpg,AFNE14.jpg,AFNE12.jpg,AFSA04.jpg,FS,4,num_6,32,num_8,0.666773259407,,,2018_Jan_10_1554,60.0113949023,MAFE4ImagesEEG,001,102745,
AFNE01.JPG,AFNE01.JPG,AFNE01.JPG,AFNE01.JPG,AFNE01.JPG,AFNE01.JPG,,,,,,,,,,,,,,,,,,,,,3,0,30,5,,,AFNE15.jpg,AFSA09.jpg,AFSA04.jpg,AFNE14.jpg,AFNE14.jpg,FN,3,num_4,32,num_2,2.63328671921,,,2018_Jan_10_1554,60.0113949023,MAFE4ImagesEEG,001,102745,
AFNE01.JPG,AFNE01.JPG,AFNE01.JPG,AFNE01.JPG,AFNE01.JPG,AFNE01.JPG,,,,,,,,,,,,,,,,,,,,,3,1,31,3,,,AFSA18.jpg,AFNE06.jpg,AFSA07.jpg,AFNE05.jpg,AFNE06.jpg,FN,3,num_6,16,num_6,3.00032651331,,,2018_Jan_10_1554,60.0113949023,MAFE4ImagesEEG,001,102745,
AFNE01.JPG,AFNE01.JPG,AFNE01.JPG,AFNE01.JPG,AFNE01.JPG,AFNE01.JPG,,,,,,,,,,,,,,,,,,,,,3,2,32,0,,,AFNE19.jpg,AFSA12.jpg,AFNE11.jpg,AFSA06.jpg,AFSA12.jpg,FS,4,num_6,32,num_2,1.7834004215,,,2018_Jan_10_1554,60.0113949023,MAFE4ImagesEEG,001,102745,
AFNE01.JPG,AFNE01.JPG,AFNE01.JPG,AFNE01.JPG,AFNE01.JPG,AFNE01.JPG,,,,,,,,,,,,,,,,,,,,,3,3,33,4,,,AFSA14.jpg,AFNE13.jpg,AFNE16.jpg,AFSA05.jpg,AFNE16.jpg,FN,3,num_2,32,num_6,0.683539301855,,,2018_Jan_10_1554,60.0113949023,MAFE4ImagesEEG,001,102745,
AFNE01.JPG,AFNE01.JPG,AFNE01.JPG,AFNE01.JPG,AFNE01.JPG,AFNE01.JPG,,,,,,,,,,,,,,,,,,,,,3,4,34,6,,,AFSA08.jpg,AFNE20.jpg,AFSA06.jpg,AFNE16.jpg,AFNE16.jpg,FN,3,num_4,16,num_4,0.950138719985,,,2018_Jan_10_1554,60.0113949023,MAFE4ImagesEEG,001,102745,
AFNE01.JPG,AFNE01.JPG,AFNE01.JPG,AFNE01.JPG,AFNE01.JPG,AFNE01.JPG,,,,,,,,,,,,,,,,,,,,,3,5,35,2,,,AFSA03.jpg,AFNE06.jpg,AFSA01.jpg,AFNE09.jpg,AFNE09.jpg,FN,3,num_4,32,num_8,0.750121400226,,,2018_Jan_10_1554,60.0113949023,MAFE4ImagesEEG,001,102745,
AFNE01.JPG,AFNE01.JPG,AFNE01.JPG,AFNE01.JPG,AFNE01.JPG,AFNE01.JPG,,,,,,,,,,,,,,,,,,,,,3,6,36,9,,,AFSA14.jpg,AFSA09.jpg,AFNE14.jpg,AFNE03.jpg,AFSA14.jpg,FS,4,num_8,32,num_6,0.700134069426,,,2018_Jan_10_1554,60.0113949023,MAFE4ImagesEEG,001,102745,
AFNE01.JPG,AFNE01.JPG,AFNE01.JPG,AFNE01.JPG,AFNE01.JPG,AFNE01.JPG,,,,,,,,,,,,,,,,,,,,,3,7,37,1,,,AFSA20.jpg,AFNE05.jpg,AFNE02.jpg,AFSA12.jpg,AFNE05.jpg,FN,3,num_6,16,num_6,0.433496803744,,,2018_Jan_10_1554,60.0113949023,MAFE4ImagesEEG,001,102745,
AFNE01.JPG,AFNE01.JPG,AFNE01.JPG,AFNE01.JPG,AFNE01.JPG,AFNE01.JPG,,,,,,,,,,,,,,,,,,,,,3,8,38,8,,,AFSA19.jpg,AFNE14.jpg,AFSA03.jpg,AFNE03.jpg,AFSA03.jpg,FS,4,num_2,32,num_4,1.31672306359,,,2018_Jan_10_1554,60.0113949023,MAFE4ImagesEEG,001,102745,
AFNE01.JPG,AFNE01.JPG,AFNE01.JPG,AFNE01.JPG,AFNE01.JPG,AFNE01.JPG,,,,,,,,,,,,,,,,,,,,,3,9,39,7,,,AFNE14.jpg,AFSA18.jpg,AFNE02.jpg,AFSA20.jpg,AFNE14.jpg,FN,3,num_8,16,num_8,1.04982920596,,,2018_Jan_10_1554,60.0113949023,MAFE4ImagesEEG,001,102745,
