IPosition2,IPosition3,IPosition1,IPosition6,IPosition4,IPosition5,TrialsF1.thisRepN,TrialsF1.thisTrialN,TrialsF1.thisN,TrialsF1.thisIndex,TrialsM1.thisRepN,TrialsM1.thisTrialN,TrialsM1.thisN,TrialsM1.thisIndex,TrialsF2.thisRepN,TrialsF2.thisTrialN,TrialsF2.thisN,TrialsF2.thisIndex,TrialsM2.thisRepN,TrialsM2.thisTrialN,TrialsM2.thisN,TrialsM2.thisIndex,TrialsF3.thisRepN,TrialsF3.thisTrialN,TrialsF3.thisN,TrialsF3.thisIndex,TrialsM3.thisRepN,TrialsM3.thisTrialN,TrialsM3.thisN,TrialsM3.thisIndex,InstrKey_resp.keys,InstrKey_resp.rt,Image0 _Position,Image1 _Position,Image2 _Position,Image3 _Position,Center_image,condition,code,correct_answer,accuracy,Key_Resp.keys,Key_Resp.rt,BreakKey_resp.keys,BreakKey_resp.rt,date,frameRate,expName,session,participant,
,,,,,,,,,,,,,,,,,,,,,,,,,,,,,,space,15.9493205124,,,,,,,,,,,,,,2018_Jan_12_1523,60.0098932546,FEMA4ImagesEEG,001,102766,
AFSA21.JPG,AFNE23.JPG,AFNE21.JPG,AFSA25.JPG,AFNE25.JPG,AFSA23.JPG,0,0,0,4,,,,,,,,,,,,,,,,,,,,,,,AFSA01.jpg,AFSA16.jpg,AFNE12.jpg,AFNE13.jpg,AFSA01.jpg,FS,4,num_8,16,num_8,1.65006719483,,,2018_Jan_12_1523,60.0098932546,FEMA4ImagesEEG,001,102766,
AFNE23.JPG,AFNE24.JPG,AFNE22.JPG,AFSA24.JPG,AFSA22.JPG,AFSA23.JPG,0,1,1,8,,,,,,,,,,,,,,,,,,,,,,,AFSA20.jpg,AFSA08.jpg,AFNE20.jpg,AFNE10.jpg,AFSA20.jpg,FS,4,num_8,32,num_4,1.83334926353,,,2018_Jan_12_1523,60.0098932546,FEMA4ImagesEEG,001,102766,
AFNE22.JPG,AFSA24.JPG,AFSA22.JPG,AFNE25.JPG,AFNE24.JPG,AFSA25.JPG,0,2,2,6,,,,,,,,,,,,,,,,,,,,,,,AFNE07.jpg,AFNE08.jpg,AFSA20.jpg,AFSA19.jpg,AFSA20.jpg,FS,4,num_2,32,num_6,1.44995076628,,,2018_Jan_12_1523,60.0098932546,FEMA4ImagesEEG,001,102766,
AMNE22.JPG,AMSA24.JPG,AMSA22.JPG,AMNE25.JPG,AMNE24.JPG,AMSA25.JPG,0,3,3,7,,,,,,,,,,,,,,,,,,,,,,,AFNE20.jpg,AFSA12.jpg,AFNE05.jpg,AFSA03.jpg,AFNE20.jpg,FN,3,num_8,16,num_8,2.33336401754,,,2018_Jan_12_1523,60.0098932546,FEMA4ImagesEEG,001,102766,
AMSA21.JPG,AMNE22.JPG,AMNE21.JPG,AMSA23.JPG,AMSA22.JPG,AMNE23.JPG,0,4,4,1,,,,,,,,,,,,,,,,,,,,,,,AFNE08.jpg,AFSA09.jpg,AFNE02.jpg,AFSA13.jpg,AFSA09.jpg,FS,4,num_6,32,num_2,1.40010969318,,,2018_Jan_12_1523,60.0098932546,FEMA4ImagesEEG,001,102766,
AMSA21.JPG,AMNE23.JPG,AMNE21.JPG,AMSA25.JPG,AMNE25.JPG,AMSA23.JPG,0,5,5,5,,,,,,,,,,,,,,,,,,,,,,,AFSA06.jpg,AFNE05.jpg,AFSA01.jpg,AFNE02.jpg,AFNE02.jpg,FN,3,num_4,32,num_6,1.19982583821,,,2018_Jan_12_1523,60.0098932546,FEMA4ImagesEEG,001,102766,
AMNE23.JPG,AMNE24.JPG,AMNE22.JPG,AMSA24.JPG,AMSA22.JPG,AMSA23.JPG,0,6,6,9,,,,,,,,,,,,,,,,,,,,,,,AFNE02.jpg,AFSA06.jpg,AFNE14.jpg,AFSA04.jpg,AFNE02.jpg,FN,3,num_8,16,num_8,1.7832439004,,,2018_Jan_12_1523,60.0098932546,FEMA4ImagesEEG,001,102766,
AFSA25.JPG,AFNE24.JPG,AFSA24.JPG,AFNE21.JPG,AFSA21.JPG,AFNE25.JPG,0,7,7,2,,,,,,,,,,,,,,,,,,,,,,,AFNE17.jpg,AFSA18.jpg,AFNE05.jpg,AFSA09.jpg,AFSA18.jpg,FS,4,num_6,32,num_4,0.900123805739,,,2018_Jan_12_1523,60.0098932546,FEMA4ImagesEEG,001,102766,
AMSA25.JPG,AMNE24.JPG,AMSA24.JPG,AMNE26.JPG,AMSA21.JPG,AMNE25.JPG,0,8,8,3,,,,,,,,,,,,,,,,,,,,,,,AFSA08.jpg,AFNE06.jpg,AFSA16.jpg,AFNE01.jpg,AFNE06.jpg,FN,3,num_6,32,num_8,1.06675850507,,,2018_Jan_12_1523,60.0098932546,FEMA4ImagesEEG,001,102766,
AFSA21.JPG,AFNE22.JPG,AFNE21.JPG,AFSA23.JPG,AFSA22.JPG,AFNE23.JPG,0,9,9,0,,,,,,,,,,,,,,,,,,,,,,,AFNE12.jpg,AFSA18.jpg,AFSA04.jpg,AFNE19.jpg,AFSA04.jpg,FS,4,num_2,32,num_6,1.33337075287,,,2018_Jan_12_1523,60.0098932546,FEMA4ImagesEEG,001,102766,
AMSA21.JPG,AMNE23.JPG,AMNE21.JPG,AMSA25.JPG,AMNE25.JPG,AMSA23.JPG,,,,,0,0,0,5,,,,,,,,,,,,,,,,,,,AMNE11.jpg,AMSA03.jpg,AMNE18.jpg,AMSA08.jpg,AMSA08.jpg,MS,2,num_4,32,num_2,1.21677758917,,,2018_Jan_12_1523,60.0098932546,FEMA4ImagesEEG,001,102766,
AFSA21.JPG,AFNE23.JPG,AFNE21.JPG,AFSA25.JPG,AFNE25.JPG,AFSA23.JPG,,,,,0,1,1,4,,,,,,,,,,,,,,,,,,,AMNE19.jpg,AMSA13.jpg,AMNE02.jpg,AMSA19.jpg,AMSA19.jpg,MS,2,num_4,16,num_4,0.983453985071,,,2018_Jan_12_1523,60.0098932546,FEMA4ImagesEEG,001,102766,
AMNE22.JPG,AMSA24.JPG,AMSA22.JPG,AMNE25.JPG,AMNE24.JPG,AMSA25.JPG,,,,,0,2,2,7,,,,,,,,,,,,,,,,,,,AMNE07.jpg,AMSA16.jpg,AMNE01.jpg,AMSA15.jpg,AMSA16.jpg,MS,2,num_6,16,num_6,1.23342784471,,,2018_Jan_12_1523,60.0098932546,FEMA4ImagesEEG,001,102766,
AMNE23.JPG,AMNE24.JPG,AMNE22.JPG,AMSA24.JPG,AMSA22.JPG,AMSA23.JPG,,,,,0,3,3,9,,,,,,,,,,,,,,,,,,,AMNE02.jpg,AMSA18.jpg,AMSA11.jpg,AMNE09.jpg,AMNE09.jpg,MN,1,num_4,32,num_8,2.84998797229,,,2018_Jan_12_1523,60.0098932546,FEMA4ImagesEEG,001,102766,
AFSA21.JPG,AFNE22.JPG,AFNE21.JPG,AFSA23.JPG,AFSA22.JPG,AFNE23.JPG,,,,,0,4,4,0,,,,,,,,,,,,,,,,,,,AMSA01.jpg,AMNE10.jpg,AMSA15.jpg,AMNE06.jpg,AMNE10.jpg,MN,1,num_6,16,num_6,2.083350386,,,2018_Jan_12_1523,60.0098932546,FEMA4ImagesEEG,001,102766,
AMSA25.JPG,AMNE24.JPG,AMSA24.JPG,AMNE26.JPG,AMSA21.JPG,AMNE25.JPG,,,,,0,5,5,3,,,,,,,,,,,,,,,,,,,AMSA16.jpg,AMNE01.jpg,AMNE03.jpg,AMSA07.jpg,AMNE01.jpg,MN,1,num_6,32,num_2,1.01648475346,,,2018_Jan_12_1523,60.0098932546,FEMA4ImagesEEG,001,102766,
AFNE22.JPG,AFSA24.JPG,AFSA22.JPG,AFNE25.JPG,AFNE24.JPG,AFSA25.JPG,,,,,0,6,6,6,,,,,,,,,,,,,,,,,,,AMSA20.jpg,AMNE08.jpg,AMSA11.jpg,AMNE11.jpg,AMNE11.jpg,MN,1,num_4,32,num_6,2.41665185918,,,2018_Jan_12_1523,60.0098932546,FEMA4ImagesEEG,001,102766,
AFSA25.JPG,AFNE24.JPG,AFSA24.JPG,AFNE21.JPG,AFSA21.JPG,AFNE25.JPG,,,,,0,7,7,2,,,,,,,,,,,,,,,,,,,AMNE10.jpg,AMNE14.jpg,AMSA20.jpg,AMSA03.jpg,AMSA20.jpg,MS,2,num_2,32,num_4,1.46674599638,,,2018_Jan_12_1523,60.0098932546,FEMA4ImagesEEG,001,102766,
AFNE23.JPG,AFNE24.JPG,AFNE22.JPG,AFSA24.JPG,AFSA22.JPG,AFSA23.JPG,,,,,0,8,8,8,,,,,,,,,,,,,,,,,,,AMNE09.jpg,AMSA04.jpg,AMNE07.jpg,AMSA17.jpg,AMNE07.jpg,MN,1,num_2,32,num_8,1.36669756472,,,2018_Jan_12_1523,60.0098932546,FEMA4ImagesEEG,001,102766,
AMSA21.JPG,AMNE22.JPG,AMNE21.JPG,AMSA23.JPG,AMSA22.JPG,AMNE23.JPG,,,,,0,9,9,1,,,,,,,,,,,,,,,,,,,AMNE08.jpg,AMNE03.jpg,AMSA07.jpg,AMSA09.jpg,AMNE03.jpg,MN,1,num_6,16,num_6,1.10010488192,,,2018_Jan_12_1523,60.0098932546,FEMA4ImagesEEG,001,102766,
AFNE22.JPG,AFSA24.JPG,AFSA22.JPG,AFNE25.JPG,AFNE24.JPG,AFSA25.JPG,,,,,,,,,0,0,0,6,,,,,,,,,,,,,,,AFNE04.jpg,AFNE12.jpg,AFSA14.jpg,AFSA10.jpg,AFNE12.jpg,FN,3,num_6,32,num_4,2.11668072571,,,2018_Jan_12_1523,60.0098932546,FEMA4ImagesEEG,001,102766,
AFNE23.JPG,AFNE24.JPG,AFNE22.JPG,AFSA24.JPG,AFSA22.JPG,AFSA23.JPG,,,,,,,,,0,1,1,8,,,,,,,,,,,,,,,AFSA15.jpg,AFSA06.jpg,AFNE01.jpg,AFNE16.jpg,AFSA15.jpg,FS,4,num_8,16,num_8,0.783473229269,,,2018_Jan_12_1523,60.0098932546,FEMA4ImagesEEG,001,102766,
AFSA21.JPG,AFNE23.JPG,AFNE21.JPG,AFSA25.JPG,AFNE25.JPG,AFSA23.JPG,,,,,,,,,0,2,2,4,,,,,,,,,,,,,,,AFNE10.jpg,AFSA10.jpg,AFSA04.jpg,AFNE18.jpg,AFSA04.jpg,FS,4,num_2,32,num_6,1.58339849696,,,2018_Jan_12_1523,60.0098932546,FEMA4ImagesEEG,001,102766,
AMSA21.JPG,AMNE22.JPG,AMNE21.JPG,AMSA23.JPG,AMSA22.JPG,AMNE23.JPG,,,,,,,,,0,3,3,1,,,,,,,,,,,,,,,AFSA10.jpg,AFSA03.jpg,AFNE16.jpg,AFNE18.jpg,AFSA10.jpg,FS,4,num_8,16,num_8,1.58339945925,,,2018_Jan_12_1523,60.0098932546,FEMA4ImagesEEG,001,102766,
AFSA21.JPG,AFNE22.JPG,AFNE21.JPG,AFSA23.JPG,AFSA22.JPG,AFNE23.JPG,,,,,,,,,0,4,4,0,,,,,,,,,,,,,,,AFSA17.jpg,AFNE05.jpg,AFSA15.jpg,AFNE12.jpg,AFSA15.jpg,FS,4,num_2,16,num_2,0.9334778802,,,2018_Jan_12_1523,60.0098932546,FEMA4ImagesEEG,001,102766,
AMNE23.JPG,AMNE24.JPG,AMNE22.JPG,AMSA24.JPG,AMSA22.JPG,AMSA23.JPG,,,,,,,,,0,5,5,9,,,,,,,,,,,,,,,AFNE17.jpg,AFSA07.jpg,AFNE07.jpg,AFSA10.jpg,AFNE07.jpg,FN,3,num_2,16,num_2,1.46644257638,,,2018_Jan_12_1523,60.0098932546,FEMA4ImagesEEG,001,102766,
AMSA21.JPG,AMNE23.JPG,AMNE21.JPG,AMSA25.JPG,AMNE25.JPG,AMSA23.JPG,,,,,,,,,0,6,6,5,,,,,,,,,,,,,,,AFSA15.jpg,AFSA16.jpg,AFNE04.jpg,AFNE16.jpg,AFSA16.jpg,FS,4,num_6,32,num_2,1.55011915485,,,2018_Jan_12_1523,60.0098932546,FEMA4ImagesEEG,001,102766,
AMSA25.JPG,AMNE24.JPG,AMSA24.JPG,AMNE26.JPG,AMSA21.JPG,AMNE25.JPG,,,,,,,,,0,7,7,3,,,,,,,,,,,,,,,AFNE17.jpg,AFSA10.jpg,AFSA13.jpg,AFNE11.jpg,AFNE11.jpg,FN,3,num_4,32,num_6,1.34994499292,,,2018_Jan_12_1523,60.0098932546,FEMA4ImagesEEG,001,102766,
AFSA25.JPG,AFNE24.JPG,AFSA24.JPG,AFNE21.JPG,AFSA21.JPG,AFNE25.JPG,,,,,,,,,0,8,8,2,,,,,,,,,,,,,,,AFSA19.jpg,AFNE19.jpg,AFNE20.jpg,AFSA01.jpg,AFNE20.jpg,FN,3,num_2,32,num_4,1.11689048959,,,2018_Jan_12_1523,60.0098932546,FEMA4ImagesEEG,001,102766,
AMNE22.JPG,AMSA24.JPG,AMSA22.JPG,AMNE25.JPG,AMNE24.JPG,AMSA25.JPG,,,,,,,,,0,9,9,7,,,,,,,,,,,,,,,AFSA03.jpg,AFSA16.jpg,AFNE01.jpg,AFNE18.jpg,AFNE18.jpg,FN,3,num_4,32,num_6,1.05008002464,,,2018_Jan_12_1523,60.0098932546,FEMA4ImagesEEG,001,102766,
AMSA21.JPG,AMNE23.JPG,AMNE21.JPG,AMSA25.JPG,AMNE25.JPG,AMSA23.JPG,,,,,,,,,,,,,0,0,0,5,,,,,,,,,,,AMSA18.jpg,AMNE15.jpg,AMSA19.jpg,AMNE16.jpg,AMSA19.jpg,MS,2,num_2,16,num_2,1.40007120417,,,2018_Jan_12_1523,60.0098932546,FEMA4ImagesEEG,001,102766,
AMSA21.JPG,AMNE22.JPG,AMNE21.JPG,AMSA23.JPG,AMSA22.JPG,AMNE23.JPG,,,,,,,,,,,,,0,1,1,1,,,,,,,,,,,AMNE03.jpg,AMSA18.jpg,AMNE09.jpg,AMSA19.jpg,AMSA18.jpg,MS,2,num_6,16,num_6,0.583750028163,,,2018_Jan_12_1523,60.0098932546,FEMA4ImagesEEG,001,102766,
AFSA21.JPG,AFNE22.JPG,AFNE21.JPG,AFSA23.JPG,AFSA22.JPG,AFNE23.JPG,,,,,,,,,,,,,0,2,2,0,,,,,,,,,,,AMSA06.jpg,AMNE10.jpg,AMNE07.jpg,AMSA07.jpg,AMSA06.jpg,MS,2,num_8,16,num_8,1.18345238129,,,2018_Jan_12_1523,60.0098932546,FEMA4ImagesEEG,001,102766,
AFSA25.JPG,AFNE24.JPG,AFSA24.JPG,AFNE21.JPG,AFSA21.JPG,AFNE25.JPG,,,,,,,,,,,,,0,3,3,2,,,,,,,,,,,AMNE16.jpg,AMSA14.jpg,AMSA09.jpg,AMNE20.jpg,AMSA14.jpg,MS,2,num_6,16,num_6,0.816766363336,,,2018_Jan_12_1523,60.0098932546,FEMA4ImagesEEG,001,102766,
AMNE22.JPG,AMSA24.JPG,AMSA22.JPG,AMNE25.JPG,AMNE24.JPG,AMSA25.JPG,,,,,,,,,,,,,0,4,4,7,,,,,,,,,,,AMSA13.jpg,AMSA19.jpg,AMNE11.jpg,AMNE20.jpg,AMSA13.jpg,MS,2,num_8,32,num_4,1.06677133497,,,2018_Jan_12_1523,60.0098932546,FEMA4ImagesEEG,001,102766,
AFSA21.JPG,AFNE23.JPG,AFNE21.JPG,AFSA25.JPG,AFNE25.JPG,AFSA23.JPG,,,,,,,,,,,,,0,5,5,4,,,,,,,,,,,AMNE06.jpg,AMSA19.jpg,AMNE12.jpg,AMSA14.jpg,AMNE06.jpg,MN,1,num_8,32,num_2,1.80008820351,,,2018_Jan_12_1523,60.0098932546,FEMA4ImagesEEG,001,102766,
AFNE22.JPG,AFSA24.JPG,AFSA22.JPG,AFNE25.JPG,AFNE24.JPG,AFSA25.JPG,,,,,,,,,,,,,0,6,6,6,,,,,,,,,,,AMSA17.jpg,AMSA03.jpg,AMNE19.jpg,AMNE14.jpg,AMNE19.jpg,MN,1,num_2,32,num_6,1.25005308259,,,2018_Jan_12_1523,60.0098932546,FEMA4ImagesEEG,001,102766,
AMSA25.JPG,AMNE24.JPG,AMSA24.JPG,AMNE26.JPG,AMSA21.JPG,AMNE25.JPG,,,,,,,,,,,,,0,7,7,3,,,,,,,,,,,AMNE01.jpg,AMSA07.jpg,AMNE04.jpg,AMSA19.jpg,AMNE01.jpg,MN,1,num_8,16,num_8,1.31679394701,,,2018_Jan_12_1523,60.0098932546,FEMA4ImagesEEG,001,102766,
AFNE23.JPG,AFNE24.JPG,AFNE22.JPG,AFSA24.JPG,AFSA22.JPG,AFSA23.JPG,,,,,,,,,,,,,0,8,8,8,,,,,,,,,,,AMSA16.jpg,AMNE14.jpg,AMSA09.jpg,AMNE07.jpg,AMSA16.jpg,MS,2,num_8,16,num_8,1.71681704023,,,2018_Jan_12_1523,60.0098932546,FEMA4ImagesEEG,001,102766,
AMNE23.JPG,AMNE24.JPG,AMNE22.JPG,AMSA24.JPG,AMSA22.JPG,AMSA23.JPG,,,,,,,,,,,,,0,9,9,9,,,,,,,,,,,AMSA19.jpg,AMNE08.jpg,AMSA17.jpg,AMNE13.jpg,AMNE08.jpg,MN,1,num_6,32,num_2,2.81663774652,,,2018_Jan_12_1523,60.0098932546,FEMA4ImagesEEG,001,102766,
AFNE23.JPG,AFNE24.JPG,AFNE22.JPG,AFSA24.JPG,AFSA22.JPG,AFSA23.JPG,,,,,,,,,,,,,,,,,0,0,0,8,,,,,,,AFNE19.jpg,AFSA07.jpg,AFSA13.jpg,AFNE16.jpg,AFSA13.jpg,FS,4,num_2,16,num_2,0.733487502439,,,2018_Jan_12_1523,60.0098932546,FEMA4ImagesEEG,001,102766,
AMNE22.JPG,AMSA24.JPG,AMSA22.JPG,AMNE25.JPG,AMNE24.JPG,AMSA25.JPG,,,,,,,,,,,,,,,,,0,1,1,7,,,,,,,AFNE15.jpg,AFSA10.jpg,AFNE08.jpg,AFSA12.jpg,AFNE15.jpg,FN,3,num_8,16,num_8,1.100081468,,,2018_Jan_12_1523,60.0098932546,FEMA4ImagesEEG,001,102766,
AFSA21.JPG,AFNE23.JPG,AFNE21.JPG,AFSA25.JPG,AFNE25.JPG,AFSA23.JPG,,,,,,,,,,,,,,,,,0,2,2,4,,,,,,,AFNE15.jpg,AFNE02.jpg,AFSA16.jpg,AFSA02.jpg,AFNE15.jpg,FN,3,num_8,16,num_8,1.25011338177,,,2018_Jan_12_1523,60.0098932546,FEMA4ImagesEEG,001,102766,
AMSA21.JPG,AMNE22.JPG,AMNE21.JPG,AMSA23.JPG,AMSA22.JPG,AMNE23.JPG,,,,,,,,,,,,,,,,,0,3,3,1,,,,,,,AFSA15.jpg,AFSA07.jpg,AFNE01.jpg,AFNE14.jpg,AFNE14.jpg,FN,3,num_4,32,num_6,1.2667347705,,,2018_Jan_12_1523,60.0098932546,FEMA4ImagesEEG,001,102766,
AMSA25.JPG,AMNE24.JPG,AMSA24.JPG,AMNE26.JPG,AMSA21.JPG,AMNE25.JPG,,,,,,,,,,,,,,,,,0,4,4,3,,,,,,,AFNE10.jpg,AFSA17.jpg,AFNE17.jpg,AFSA04.jpg,AFSA17.jpg,FS,4,num_6,32,num_4,1.00015299302,,,2018_Jan_12_1523,60.0098932546,FEMA4ImagesEEG,001,102766,
AMNE23.JPG,AMNE24.JPG,AMNE22.JPG,AMSA24.JPG,AMSA22.JPG,AMSA23.JPG,,,,,,,,,,,,,,,,,0,5,5,9,,,,,,,AFNE18.jpg,AFSA19.jpg,AFSA15.jpg,AFNE10.jpg,AFNE18.jpg,FN,3,num_8,16,num_8,1.23346376745,,,2018_Jan_12_1523,60.0098932546,FEMA4ImagesEEG,001,102766,
AFNE22.JPG,AFSA24.JPG,AFSA22.JPG,AFNE25.JPG,AFNE24.JPG,AFSA25.JPG,,,,,,,,,,,,,,,,,0,6,6,6,,,,,,,AFSA05.jpg,AFNE11.jpg,AFNE01.jpg,AFSA13.jpg,AFNE01.jpg,FN,3,num_2,32,num_8,1.11676475964,,,2018_Jan_12_1523,60.0098932546,FEMA4ImagesEEG,001,102766,
AMSA21.JPG,AMNE23.JPG,AMNE21.JPG,AMSA25.JPG,AMNE25.JPG,AMSA23.JPG,,,,,,,,,,,,,,,,,0,7,7,5,,,,,,,AFSA19.jpg,AFSA08.jpg,AFNE15.jpg,AFNE11.jpg,AFNE11.jpg,FN,3,num_4,32,num_2,1.26675722236,,,2018_Jan_12_1523,60.0098932546,FEMA4ImagesEEG,001,102766,
AFSA25.JPG,AFNE24.JPG,AFSA24.JPG,AFNE21.JPG,AFSA21.JPG,AFNE25.JPG,,,,,,,,,,,,,,,,,0,8,8,2,,,,,,,AFNE01.jpg,AFSA19.jpg,AFNE06.jpg,AFSA06.jpg,AFSA19.jpg,FS,4,num_6,32,num_8,1.01677887235,,,2018_Jan_12_1523,60.0098932546,FEMA4ImagesEEG,001,102766,
AFSA21.JPG,AFNE22.JPG,AFNE21.JPG,AFSA23.JPG,AFSA22.JPG,AFNE23.JPG,,,,,,,,,,,,,,,,,0,9,9,0,,,,,,,AFNE02.jpg,AFSA15.jpg,AFNE04.jpg,AFSA04.jpg,AFSA15.jpg,FS,4,num_6,16,num_6,0.833478842396,,,2018_Jan_12_1523,60.0098932546,FEMA4ImagesEEG,001,102766,
AFSA21.JPG,AFNE22.JPG,AFNE21.JPG,AFSA23.JPG,AFSA22.JPG,AFNE23.JPG,,,,,,,,,,,,,,,,,,,,,0,0,0,0,,,AMSA16.jpg,AMNE18.jpg,AMNE05.jpg,AMSA05.jpg,AMSA05.jpg,MS,2,num_4,32,num_8,1.10010488192,,,2018_Jan_12_1523,60.0098932546,FEMA4ImagesEEG,001,102766,
AMNE22.JPG,AMSA24.JPG,AMSA22.JPG,AMNE25.JPG,AMNE24.JPG,AMSA25.JPG,,,,,,,,,,,,,,,,,,,,,0,1,1,7,,,AMSA10.jpg,AMSA12.jpg,AMNE10.jpg,AMNE16.jpg,AMNE10.jpg,MN,1,num_2,32,num_4,0.900135352276,,,2018_Jan_12_1523,60.0098932546,FEMA4ImagesEEG,001,102766,
AFSA21.JPG,AFNE23.JPG,AFNE21.JPG,AFSA25.JPG,AFNE25.JPG,AFSA23.JPG,,,,,,,,,,,,,,,,,,,,,0,2,2,4,,,AMNE15.jpg,AMSA19.jpg,AMNE09.jpg,AMSA09.jpg,AMSA09.jpg,MS,2,num_4,16,num_4,1.01679106033,,,2018_Jan_12_1523,60.0098932546,FEMA4ImagesEEG,001,102766,
AFSA25.JPG,AFNE24.JPG,AFSA24.JPG,AFNE21.JPG,AFSA21.JPG,AFNE25.JPG,,,,,,,,,,,,,,,,,,,,,0,3,3,2,,,AMNE08.jpg,AMNE13.jpg,AMSA16.jpg,AMSA03.jpg,AMNE08.jpg,MN,1,num_8,16,num_8,1.85028882651,,,2018_Jan_12_1523,60.0098932546,FEMA4ImagesEEG,001,102766,
AMSA21.JPG,AMNE22.JPG,AMNE21.JPG,AMSA23.JPG,AMSA22.JPG,AMNE23.JPG,,,,,,,,,,,,,,,,,,,,,0,4,4,1,,,AMNE10.jpg,AMNE12.jpg,AMSA06.jpg,AMSA19.jpg,AMNE10.jpg,MN,1,num_8,32,num_6,1.0333072464,,,2018_Jan_12_1523,60.0098932546,FEMA4ImagesEEG,001,102766,
AMSA25.JPG,AMNE24.JPG,AMSA24.JPG,AMNE26.JPG,AMSA21.JPG,AMNE25.JPG,,,,,,,,,,,,,,,,,,,,,0,5,5,3,,,AMNE12.jpg,AMNE07.jpg,AMSA10.jpg,AMSA18.jpg,AMNE12.jpg,MN,1,num_8,32,num_2,1.50006029918,,,2018_Jan_12_1523,60.0098932546,FEMA4ImagesEEG,001,102766,
AMNE23.JPG,AMNE24.JPG,AMNE22.JPG,AMSA24.JPG,AMSA22.JPG,AMSA23.JPG,,,,,,,,,,,,,,,,,,,,,0,6,6,9,,,AMSA14.jpg,AMNE06.jpg,AMNE20.jpg,AMSA15.jpg,AMNE06.jpg,MN,1,num_6,32,num_2,1.18345911684,,,2018_Jan_12_1523,60.0098932546,FEMA4ImagesEEG,001,102766,
AMSA21.JPG,AMNE23.JPG,AMNE21.JPG,AMSA25.JPG,AMNE25.JPG,AMSA23.JPG,,,,,,,,,,,,,,,,,,,,,0,7,7,5,,,AMNE14.jpg,AMSA02.jpg,AMSA04.jpg,AMNE09.jpg,AMSA02.jpg,MS,2,num_6,32,num_2,1.25012685265,,,2018_Jan_12_1523,60.0098932546,FEMA4ImagesEEG,001,102766,
AFNE23.JPG,AFNE24.JPG,AFNE22.JPG,AFSA24.JPG,AFSA22.JPG,AFSA23.JPG,,,,,,,,,,,,,,,,,,,,,0,8,8,8,,,AMNE02.jpg,AMNE10.jpg,AMSA12.jpg,AMSA13.jpg,AMNE10.jpg,MN,1,num_6,16,num_6,0.983291369863,,,2018_Jan_12_1523,60.0098932546,FEMA4ImagesEEG,001,102766,
AFNE22.JPG,AFSA24.JPG,AFSA22.JPG,AFNE25.JPG,AFNE24.JPG,AFSA25.JPG,,,,,,,,,,,,,,,,,,,,,0,9,9,6,,,AMSA15.jpg,AMNE17.jpg,AMNE04.jpg,AMSA13.jpg,AMSA15.jpg,MS,2,num_8,16,num_8,0.916851038812,,,2018_Jan_12_1523,60.0098932546,FEMA4ImagesEEG,001,102766,
,,,,,,,,,,,,,,,,,,,,,,,,,,,,,,,,,,,,,,,,,,,space,7.61658610753,2018_Jan_12_1523,60.0098932546,FEMA4ImagesEEG,001,102766,
AFNE01.JPG,AFNE01.JPG,AFNE01.JPG,AFNE01.JPG,AFNE01.JPG,AFNE01.JPG,0,0,0,0,,,,,,,,,,,,,,,,,,,,,,,AFNE01.jpg,AFSA01.jpg,AFSA13.jpg,AFNE02.jpg,AFSA01.jpg,FS,4,num_6,16,num_6,1.01676989137,,,2018_Jan_12_1523,60.0098932546,FEMA4ImagesEEG,001,102766,
AFNE01.JPG,AFNE01.JPG,AFNE01.JPG,AFNE01.JPG,AFNE01.JPG,AFNE01.JPG,0,1,1,7,,,,,,,,,,,,,,,,,,,,,,,AFSA06.jpg,AFNE01.jpg,AFSA17.jpg,AFNE15.jpg,AFNE01.jpg,FN,3,num_6,32,num_2,1.21671825228,,,2018_Jan_12_1523,60.0098932546,FEMA4ImagesEEG,001,102766,
AFNE01.JPG,AFNE01.JPG,AFNE01.JPG,AFNE01.JPG,AFNE01.JPG,AFNE01.JPG,0,2,2,4,,,,,,,,,,,,,,,,,,,,,,,AFSA17.jpg,AFNE14.jpg,AFSA13.jpg,AFNE12.jpg,AFSA17.jpg,FS,4,num_8,16,num_8,1.11672466714,,,2018_Jan_12_1523,60.0098932546,FEMA4ImagesEEG,001,102766,
AFNE01.JPG,AFNE01.JPG,AFNE01.JPG,AFNE01.JPG,AFNE01.JPG,AFNE01.JPG,0,3,3,5,,,,,,,,,,,,,,,,,,,,,,,AFNE04.jpg,AFNE18.jpg,AFSA16.jpg,AFSA07.jpg,AFNE04.jpg,FN,3,num_8,32,num_6,0.983465210767,,,2018_Jan_12_1523,60.0098932546,FEMA4ImagesEEG,001,102766,
AFNE01.JPG,AFNE01.JPG,AFNE01.JPG,AFNE01.JPG,AFNE01.JPG,AFNE01.JPG,0,4,4,8,,,,,,,,,,,,,,,,,,,,,,,AFNE16.jpg,AFSA18.jpg,AFSA01.jpg,AFNE19.jpg,AFSA01.jpg,FS,4,num_2,16,num_2,0.750175605062,,,2018_Jan_12_1523,60.0098932546,FEMA4ImagesEEG,001,102766,
AFNE01.JPG,AFNE01.JPG,AFNE01.JPG,AFNE01.JPG,AFNE01.JPG,AFNE01.JPG,0,5,5,9,,,,,,,,,,,,,,,,,,,,,,,AFSA03.jpg,AFNE16.jpg,AFNE07.jpg,AFSA12.jpg,AFNE16.jpg,FN,3,num_6,16,num_6,1.09996215277,,,2018_Jan_12_1523,60.0098932546,FEMA4ImagesEEG,001,102766,
AFNE01.JPG,AFNE01.JPG,AFNE01.JPG,AFNE01.JPG,AFNE01.JPG,AFNE01.JPG,0,6,6,3,,,,,,,,,,,,,,,,,,,,,,,AFNE15.jpg,AFSA19.jpg,AFNE08.jpg,AFSA01.jpg,AFSA01.jpg,FS,4,num_4,32,num_6,1.35012396588,,,2018_Jan_12_1523,60.0098932546,FEMA4ImagesEEG,001,102766,
AFNE01.JPG,AFNE01.JPG,AFNE01.JPG,AFNE01.JPG,AFNE01.JPG,AFNE01.JPG,0,7,7,6,,,,,,,,,,,,,,,,,,,,,,,AFSA14.jpg,AFNE06.jpg,AFSA05.jpg,AFNE02.jpg,AFSA14.jpg,FS,4,num_8,16,num_8,1.40013214503,,,2018_Jan_12_1523,60.0098932546,FEMA4ImagesEEG,001,102766,
AFNE01.JPG,AFNE01.JPG,AFNE01.JPG,AFNE01.JPG,AFNE01.JPG,AFNE01.JPG,0,8,8,1,,,,,,,,,,,,,,,,,,,,,,,AFSA11.jpg,AFNE15.jpg,AFSA08.jpg,AFNE11.jpg,AFNE15.jpg,FN,3,num_6,16,num_6,0.883148961235,,,2018_Jan_12_1523,60.0098932546,FEMA4ImagesEEG,001,102766,
AFNE01.JPG,AFNE01.JPG,AFNE01.JPG,AFNE01.JPG,AFNE01.JPG,AFNE01.JPG,0,9,9,2,,,,,,,,,,,,,,,,,,,,,,,AFSA07.jpg,AFSA16.jpg,AFNE04.jpg,AFNE01.jpg,AFNE01.jpg,FN,3,num_4,32,num_8,1.15006623277,,,2018_Jan_12_1523,60.0098932546,FEMA4ImagesEEG,001,102766,
AFNE01.JPG,AFNE01.JPG,AFNE01.JPG,AFNE01.JPG,AFNE01.JPG,AFNE01.JPG,1,0,10,4,,,,,,,,,,,,,,,,,,,,,,,AFSA05.jpg,AFSA10.jpg,AFNE05.jpg,AFNE18.jpg,AFSA10.jpg,FS,4,num_6,16,num_6,0.916799399769,,,2018_Jan_12_1523,60.0098932546,FEMA4ImagesEEG,001,102766,
AFNE01.JPG,AFNE01.JPG,AFNE01.JPG,AFNE01.JPG,AFNE01.JPG,AFNE01.JPG,1,1,11,0,,,,,,,,,,,,,,,,,,,,,,,AFNE03.jpg,AFSA15.jpg,AFSA19.jpg,AFNE05.jpg,AFNE05.jpg,FN,3,num_4,32,num_8,0.96675786376,,,2018_Jan_12_1523,60.0098932546,FEMA4ImagesEEG,001,102766,
AFNE01.JPG,AFNE01.JPG,AFNE01.JPG,AFNE01.JPG,AFNE01.JPG,AFNE01.JPG,1,2,12,2,,,,,,,,,,,,,,,,,,,,,,,AFSA16.jpg,AFSA06.jpg,AFNE04.jpg,AFNE12.jpg,AFSA06.jpg,FS,4,num_6,32,num_8,0.866728355642,,,2018_Jan_12_1523,60.0098932546,FEMA4ImagesEEG,001,102766,
AFNE01.JPG,AFNE01.JPG,AFNE01.JPG,AFNE01.JPG,AFNE01.JPG,AFNE01.JPG,1,3,13,1,,,,,,,,,,,,,,,,,,,,,,,AFNE19.jpg,AFSA05.jpg,AFSA02.jpg,AFNE02.jpg,AFSA02.jpg,FS,4,num_2,16,num_2,2.06655291072,,,2018_Jan_12_1523,60.0098932546,FEMA4ImagesEEG,001,102766,
AFNE01.JPG,AFNE01.JPG,AFNE01.JPG,AFNE01.JPG,AFNE01.JPG,AFNE01.JPG,1,4,14,5,,,,,,,,,,,,,,,,,,,,,,,AFSA14.jpg,AFNE20.jpg,AFSA09.jpg,AFNE11.jpg,AFNE20.jpg,FN,3,num_6,32,num_4,1.76669179136,,,2018_Jan_12_1523,60.0098932546,FEMA4ImagesEEG,001,102766,
AFNE01.JPG,AFNE01.JPG,AFNE01.JPG,AFNE01.JPG,AFNE01.JPG,AFNE01.JPG,1,5,15,7,,,,,,,,,,,,,,,,,,,,,,,AFSA06.jpg,AFNE15.jpg,AFSA11.jpg,AFNE03.jpg,AFNE15.jpg,FN,3,num_6,16,num_6,1.03342559957,,,2018_Jan_12_1523,60.0098932546,FEMA4ImagesEEG,001,102766,
AFNE01.JPG,AFNE01.JPG,AFNE01.JPG,AFNE01.JPG,AFNE01.JPG,AFNE01.JPG,1,6,16,6,,,,,,,,,,,,,,,,,,,,,,,AFSA17.jpg,AFNE09.jpg,AFNE01.jpg,AFSA12.jpg,AFSA17.jpg,FS,4,num_8,32,num_2,1.18339561042,,,2018_Jan_12_1523,60.0098932546,FEMA4ImagesEEG,001,102766,
AFNE01.JPG,AFNE01.JPG,AFNE01.JPG,AFNE01.JPG,AFNE01.JPG,AFNE01.JPG,1,7,17,3,,,,,,,,,,,,,,,,,,,,,,,AFSA13.jpg,AFNE09.jpg,AFNE05.jpg,AFSA01.jpg,AFNE05.jpg,FN,3,num_2,32,num_8,2.09999390598,,,2018_Jan_12_1523,60.0098932546,FEMA4ImagesEEG,001,102766,
AFNE01.JPG,AFNE01.JPG,AFNE01.JPG,AFNE01.JPG,AFNE01.JPG,AFNE01.JPG,1,8,18,8,,,,,,,,,,,,,,,,,,,,,,,AFSA15.jpg,AFNE06.jpg,AFSA18.jpg,AFNE16.jpg,AFSA15.jpg,FS,4,num_8,16,num_8,1.31677406095,,,2018_Jan_12_1523,60.0098932546,FEMA4ImagesEEG,001,102766,
AFNE01.JPG,AFNE01.JPG,AFNE01.JPG,AFNE01.JPG,AFNE01.JPG,AFNE01.JPG,1,9,19,9,,,,,,,,,,,,,,,,,,,,,,,AFSA14.jpg,AFNE07.jpg,AFSA19.jpg,AFNE08.jpg,AFSA19.jpg,FS,4,num_2,16,num_2,1.13368443679,,,2018_Jan_12_1523,60.0098932546,FEMA4ImagesEEG,001,102766,
AFNE01.JPG,AFNE01.JPG,AFNE01.JPG,AFNE01.JPG,AFNE01.JPG,AFNE01.JPG,2,0,20,4,,,,,,,,,,,,,,,,,,,,,,,AFNE03.jpg,AFNE06.jpg,AFSA14.jpg,AFSA07.jpg,AFSA07.jpg,FS,4,num_4,16,num_4,1.18345366418,,,2018_Jan_12_1523,60.0098932546,FEMA4ImagesEEG,001,102766,
AFNE01.JPG,AFNE01.JPG,AFNE01.JPG,AFNE01.JPG,AFNE01.JPG,AFNE01.JPG,2,1,21,5,,,,,,,,,,,,,,,,,,,,,,,AFSA08.jpg,AFNE15.jpg,AFSA14.jpg,AFNE06.jpg,AFSA14.jpg,FS,4,num_2,32,num_8,1.9167166485,,,2018_Jan_12_1523,60.0098932546,FEMA4ImagesEEG,001,102766,
AFNE01.JPG,AFNE01.JPG,AFNE01.JPG,AFNE01.JPG,AFNE01.JPG,AFNE01.JPG,2,2,22,6,,,,,,,,,,,,,,,,,,,,,,,AFSA09.jpg,AFSA15.jpg,AFNE13.jpg,AFNE20.jpg,AFSA15.jpg,FS,4,num_6,16,num_6,0.916764759691,,,2018_Jan_12_1523,60.0098932546,FEMA4ImagesEEG,001,102766,
AFNE01.JPG,AFNE01.JPG,AFNE01.JPG,AFNE01.JPG,AFNE01.JPG,AFNE01.JPG,2,3,23,1,,,,,,,,,,,,,,,,,,,,,,,AFSA14.jpg,AFNE08.jpg,AFNE03.jpg,AFSA02.jpg,AFNE03.jpg,FN,3,num_2,32,num_8,1.28341389238,,,2018_Jan_12_1523,60.0098932546,FEMA4ImagesEEG,001,102766,
AFNE01.JPG,AFNE01.JPG,AFNE01.JPG,AFNE01.JPG,AFNE01.JPG,AFNE01.JPG,2,4,24,0,,,,,,,,,,,,,,,,,,,,,,,AFSA10.jpg,AFNE20.jpg,AFSA12.jpg,AFNE14.jpg,AFSA10.jpg,FS,4,num_8,32,num_4,1.55010696664,,,2018_Jan_12_1523,60.0098932546,FEMA4ImagesEEG,001,102766,
AFNE01.JPG,AFNE01.JPG,AFNE01.JPG,AFNE01.JPG,AFNE01.JPG,AFNE01.JPG,2,5,25,3,,,,,,,,,,,,,,,,,,,,,,,AFSA06.jpg,AFNE03.jpg,AFSA18.jpg,AFNE19.jpg,AFNE19.jpg,FN,3,num_4,16,num_4,1.15020094346,,,2018_Jan_12_1523,60.0098932546,FEMA4ImagesEEG,001,102766,
AFNE01.JPG,AFNE01.JPG,AFNE01.JPG,AFNE01.JPG,AFNE01.JPG,AFNE01.JPG,2,6,26,8,,,,,,,,,,,,,,,,,,,,,,,AFSA17.jpg,AFSA15.jpg,AFNE03.jpg,AFNE05.jpg,AFNE05.jpg,FN,3,num_4,32,num_8,0.916812229203,,,2018_Jan_12_1523,60.0098932546,FEMA4ImagesEEG,001,102766,
AFNE01.JPG,AFNE01.JPG,AFNE01.JPG,AFNE01.JPG,AFNE01.JPG,AFNE01.JPG,2,7,27,7,,,,,,,,,,,,,,,,,,,,,,,AFSA13.jpg,AFNE01.jpg,AFSA14.jpg,AFNE18.jpg,AFNE01.jpg,FN,3,num_6,32,num_4,1.46653527021,,,2018_Jan_12_1523,60.0098932546,FEMA4ImagesEEG,001,102766,
AFNE01.JPG,AFNE01.JPG,AFNE01.JPG,AFNE01.JPG,AFNE01.JPG,AFNE01.JPG,2,8,28,2,,,,,,,,,,,,,,,,,,,,,,,AFSA14.jpg,AFSA15.jpg,AFNE10.jpg,AFNE20.jpg,AFSA15.jpg,FS,4,num_6,16,num_6,0.950148342177,,,2018_Jan_12_1523,60.0098932546,FEMA4ImagesEEG,001,102766,
AFNE01.JPG,AFNE01.JPG,AFNE01.JPG,AFNE01.JPG,AFNE01.JPG,AFNE01.JPG,2,9,29,9,,,,,,,,,,,,,,,,,,,,,,,AFSA07.jpg,AFNE17.jpg,AFSA05.jpg,AFNE10.jpg,AFSA05.jpg,FS,4,num_2,16,num_2,1.4334294484,,,2018_Jan_12_1523,60.0098932546,FEMA4ImagesEEG,001,102766,
AFNE01.JPG,AFNE01.JPG,AFNE01.JPG,AFNE01.JPG,AFNE01.JPG,AFNE01.JPG,3,0,30,4,,,,,,,,,,,,,,,,,,,,,,,AFSA07.jpg,AFNE14.jpg,AFNE19.jpg,AFSA04.jpg,AFNE19.jpg,FN,3,num_2,16,num_2,1.10010937229,,,2018_Jan_12_1523,60.0098932546,FEMA4ImagesEEG,001,102766,
AFNE01.JPG,AFNE01.JPG,AFNE01.JPG,AFNE01.JPG,AFNE01.JPG,AFNE01.JPG,3,1,31,5,,,,,,,,,,,,,,,,,,,,,,,AFSA19.jpg,AFNE14.jpg,AFNE15.jpg,AFSA09.jpg,AFSA19.jpg,FS,4,num_8,32,num_6,1.36660166341,,,2018_Jan_12_1523,60.0098932546,FEMA4ImagesEEG,001,102766,
AFNE01.JPG,AFNE01.JPG,AFNE01.JPG,AFNE01.JPG,AFNE01.JPG,AFNE01.JPG,3,2,32,7,,,,,,,,,,,,,,,,,,,,,,,AFSA04.jpg,AFNE03.jpg,AFSA14.jpg,AFNE11.jpg,AFNE03.jpg,FN,3,num_6,32,num_4,1.21677502338,,,2018_Jan_12_1523,60.0098932546,FEMA4ImagesEEG,001,102766,
AFNE01.JPG,AFNE01.JPG,AFNE01.JPG,AFNE01.JPG,AFNE01.JPG,AFNE01.JPG,3,3,33,2,,,,,,,,,,,,,,,,,,,,,,,AFSA02.jpg,AFNE08.jpg,AFSA09.jpg,AFNE03.jpg,AFSA09.jpg,FS,4,num_2,32,num_8,1.91669868724,,,2018_Jan_12_1523,60.0098932546,FEMA4ImagesEEG,001,102766,
AFNE01.JPG,AFNE01.JPG,AFNE01.JPG,AFNE01.JPG,AFNE01.JPG,AFNE01.JPG,3,4,34,6,,,,,,,,,,,,,,,,,,,,,,,AFSA03.jpg,AFSA01.jpg,AFNE15.jpg,AFNE01.jpg,AFSA01.jpg,FS,4,num_6,32,num_4,1.21674968489,,,2018_Jan_12_1523,60.0098932546,FEMA4ImagesEEG,001,102766,
AFNE01.JPG,AFNE01.JPG,AFNE01.JPG,AFNE01.JPG,AFNE01.JPG,AFNE01.JPG,3,5,35,9,,,,,,,,,,,,,,,,,,,,,,,AFNE09.jpg,AFSA10.jpg,AFSA18.jpg,AFNE04.jpg,AFNE04.jpg,FN,3,num_4,32,num_8,0.983457192546,,,2018_Jan_12_1523,60.0098932546,FEMA4ImagesEEG,001,102766,
AFNE01.JPG,AFNE01.JPG,AFNE01.JPG,AFNE01.JPG,AFNE01.JPG,AFNE01.JPG,3,6,36,8,,,,,,,,,,,,,,,,,,,,,,,AFNE18.jpg,AFSA03.jpg,AFSA05.jpg,AFNE02.jpg,AFSA03.jpg,FS,4,num_6,16,num_6,1.25010472164,,,2018_Jan_12_1523,60.0098932546,FEMA4ImagesEEG,001,102766,
AFNE01.JPG,AFNE01.JPG,AFNE01.JPG,AFNE01.JPG,AFNE01.JPG,AFNE01.JPG,3,7,37,1,,,,,,,,,,,,,,,,,,,,,,,AFSA19.jpg,AFNE13.jpg,AFNE05.jpg,AFSA16.jpg,AFNE05.jpg,FN,3,num_2,32,num_6,1.10007312871,,,2018_Jan_12_1523,60.0098932546,FEMA4ImagesEEG,001,102766,
AFNE01.JPG,AFNE01.JPG,AFNE01.JPG,AFNE01.JPG,AFNE01.JPG,AFNE01.JPG,3,8,38,0,,,,,,,,,,,,,,,,,,,,,,,AFNE19.jpg,AFSA03.jpg,AFSA16.jpg,AFNE08.jpg,AFSA03.jpg,FS,4,num_6,32,num_8,1.98339079926,,,2018_Jan_12_1523,60.0098932546,FEMA4ImagesEEG,001,102766,
AFNE01.JPG,AFNE01.JPG,AFNE01.JPG,AFNE01.JPG,AFNE01.JPG,AFNE01.JPG,3,9,39,3,,,,,,,,,,,,,,,,,,,,,,,AFSA04.jpg,AFNE16.jpg,AFNE08.jpg,AFSA05.jpg,AFSA04.jpg,FS,4,num_8,32,num_4,2.06672290293,,,2018_Jan_12_1523,60.0098932546,FEMA4ImagesEEG,001,102766,
AFNE01.JPG,AFNE01.JPG,AFNE01.JPG,AFNE01.JPG,AFNE01.JPG,AFNE01.JPG,4,0,40,3,,,,,,,,,,,,,,,,,,,,,,,AFSA07.jpg,AFNE17.jpg,AFSA03.jpg,AFNE16.jpg,AFNE17.jpg,FN,3,num_6,16,num_6,1.26677582529,,,2018_Jan_12_1523,60.0098932546,FEMA4ImagesEEG,001,102766,
AFNE01.JPG,AFNE01.JPG,AFNE01.JPG,AFNE01.JPG,AFNE01.JPG,AFNE01.JPG,4,1,41,6,,,,,,,,,,,,,,,,,,,,,,,AFNE02.jpg,AFSA11.jpg,AFNE10.jpg,AFSA09.jpg,AFNE02.jpg,FN,3,num_8,32,num_4,1.3334618432,,,2018_Jan_12_1523,60.0098932546,FEMA4ImagesEEG,001,102766,
AFNE01.JPG,AFNE01.JPG,AFNE01.JPG,AFNE01.JPG,AFNE01.JPG,AFNE01.JPG,4,2,42,1,,,,,,,,,,,,,,,,,,,,,,,AFNE14.jpg,AFNE03.jpg,AFSA09.jpg,AFSA08.jpg,AFSA08.jpg,FS,4,num_4,32,num_2,1.2334387498,,,2018_Jan_12_1523,60.0098932546,FEMA4ImagesEEG,001,102766,
AFNE01.JPG,AFNE01.JPG,AFNE01.JPG,AFNE01.JPG,AFNE01.JPG,AFNE01.JPG,4,3,43,4,,,,,,,,,,,,,,,,,,,,,,,AFSA07.jpg,AFNE18.jpg,AFNE16.jpg,AFSA12.jpg,AFNE16.jpg,FN,3,num_2,32,num_8,1.55010279734,,,2018_Jan_12_1523,60.0098932546,FEMA4ImagesEEG,001,102766,
AFNE01.JPG,AFNE01.JPG,AFNE01.JPG,AFNE01.JPG,AFNE01.JPG,AFNE01.JPG,4,4,44,8,,,,,,,,,,,,,,,,,,,,,,,AFNE07.jpg,AFSA08.jpg,AFSA04.jpg,AFNE10.jpg,AFNE07.jpg,FN,3,num_8,32,num_4,1.06677999464,,,2018_Jan_12_1523,60.0098932546,FEMA4ImagesEEG,001,102766,
AFNE01.JPG,AFNE01.JPG,AFNE01.JPG,AFNE01.JPG,AFNE01.JPG,AFNE01.JPG,4,5,45,0,,,,,,,,,,,,,,,,,,,,,,,AFNE11.jpg,AFSA14.jpg,AFSA05.jpg,AFNE08.jpg,AFNE08.jpg,FN,3,num_4,16,num_4,1.08330516168,,,2018_Jan_12_1523,60.0098932546,FEMA4ImagesEEG,001,102766,
AFNE01.JPG,AFNE01.JPG,AFNE01.JPG,AFNE01.JPG,AFNE01.JPG,AFNE01.JPG,4,6,46,5,,,,,,,,,,,,,,,,,,,,,,,AFNE15.jpg,AFSA02.jpg,AFSA10.jpg,AFNE08.jpg,AFNE08.jpg,FN,3,num_4,16,num_4,0.866789937951,,,2018_Jan_12_1523,60.0098932546,FEMA4ImagesEEG,001,102766,
AFNE01.JPG,AFNE01.JPG,AFNE01.JPG,AFNE01.JPG,AFNE01.JPG,AFNE01.JPG,4,7,47,7,,,,,,,,,,,,,,,,,,,,,,,AFSA20.jpg,AFSA04.jpg,AFNE18.jpg,AFNE20.jpg,AFSA04.jpg,FS,4,num_6,16,num_6,0.63352310448,,,2018_Jan_12_1523,60.0098932546,FEMA4ImagesEEG,001,102766,
AFNE01.JPG,AFNE01.JPG,AFNE01.JPG,AFNE01.JPG,AFNE01.JPG,AFNE01.JPG,4,8,48,2,,,,,,,,,,,,,,,,,,,,,,,AFSA17.jpg,AFNE08.jpg,AFNE12.jpg,AFSA15.jpg,AFNE12.jpg,FN,3,num_2,16,num_2,1.48335198965,,,2018_Jan_12_1523,60.0098932546,FEMA4ImagesEEG,001,102766,
AFNE01.JPG,AFNE01.JPG,AFNE01.JPG,AFNE01.JPG,AFNE01.JPG,AFNE01.JPG,4,9,49,9,,,,,,,,,,,,,,,,,,,,,,,AFNE01.jpg,AFSA12.jpg,AFNE02.jpg,AFSA11.jpg,AFNE02.jpg,FN,3,num_2,32,num_8,0.850163416937,,,2018_Jan_12_1523,60.0098932546,FEMA4ImagesEEG,001,102766,
AFNE01.JPG,AFNE01.JPG,AFNE01.JPG,AFNE01.JPG,AFNE01.JPG,AFNE01.JPG,5,0,50,1,,,,,,,,,,,,,,,,,,,,,,,AFNE07.jpg,AFSA07.jpg,AFNE04.jpg,AFSA13.jpg,AFNE04.jpg,FN,3,num_2,32,num_8,1.18344949465,,,2018_Jan_12_1523,60.0098932546,FEMA4ImagesEEG,001,102766,
AFNE01.JPG,AFNE01.JPG,AFNE01.JPG,AFNE01.JPG,AFNE01.JPG,AFNE01.JPG,5,1,51,0,,,,,,,,,,,,,,,,,,,,,,,AFNE20.jpg,AFSA12.jpg,AFSA16.jpg,AFNE03.jpg,AFNE20.jpg,FN,3,num_8,16,num_8,1.65005628974,,,2018_Jan_12_1523,60.0098932546,FEMA4ImagesEEG,001,102766,
AFNE01.JPG,AFNE01.JPG,AFNE01.JPG,AFNE01.JPG,AFNE01.JPG,AFNE01.JPG,5,2,52,7,,,,,,,,,,,,,,,,,,,,,,,AFNE16.jpg,AFSA18.jpg,AFSA19.jpg,AFNE07.jpg,AFSA19.jpg,FS,4,num_2,16,num_2,1.53340218542,,,2018_Jan_12_1523,60.0098932546,FEMA4ImagesEEG,001,102766,
AFNE01.JPG,AFNE01.JPG,AFNE01.JPG,AFNE01.JPG,AFNE01.JPG,AFNE01.JPG,5,3,53,8,,,,,,,,,,,,,,,,,,,,,,,AFSA17.jpg,AFNE12.jpg,AFSA01.jpg,AFNE10.jpg,AFSA17.jpg,FS,4,num_8,16,num_8,1.06670654519,,,2018_Jan_12_1523,60.0098932546,FEMA4ImagesEEG,001,102766,
AFNE01.JPG,AFNE01.JPG,AFNE01.JPG,AFNE01.JPG,AFNE01.JPG,AFNE01.JPG,5,4,54,4,,,,,,,,,,,,,,,,,,,,,,,AFNE16.jpg,AFNE11.jpg,AFSA18.jpg,AFSA13.jpg,AFNE16.jpg,FN,3,num_8,16,num_8,0.866785126738,,,2018_Jan_12_1523,60.0098932546,FEMA4ImagesEEG,001,102766,
AFNE01.JPG,AFNE01.JPG,AFNE01.JPG,AFNE01.JPG,AFNE01.JPG,AFNE01.JPG,5,5,55,9,,,,,,,,,,,,,,,,,,,,,,,AFNE17.jpg,AFNE03.jpg,AFSA14.jpg,AFSA06.jpg,AFNE17.jpg,FN,3,num_8,32,num_6,1.19996536011,,,2018_Jan_12_1523,60.0098932546,FEMA4ImagesEEG,001,102766,
AFNE01.JPG,AFNE01.JPG,AFNE01.JPG,AFNE01.JPG,AFNE01.JPG,AFNE01.JPG,5,6,56,5,,,,,,,,,,,,,,,,,,,,,,,AFNE18.jpg,AFSA17.jpg,AFSA12.jpg,AFNE01.jpg,AFSA17.jpg,FS,4,num_6,32,num_2,1.1834584754,,,2018_Jan_12_1523,60.0098932546,FEMA4ImagesEEG,001,102766,
AFNE01.JPG,AFNE01.JPG,AFNE01.JPG,AFNE01.JPG,AFNE01.JPG,AFNE01.JPG,5,7,57,3,,,,,,,,,,,,,,,,,,,,,,,AFNE03.jpg,AFSA03.jpg,AFSA15.jpg,AFNE06.jpg,AFNE06.jpg,FN,3,num_4,32,num_8,1.10014465381,,,2018_Jan_12_1523,60.0098932546,FEMA4ImagesEEG,001,102766,
AFNE01.JPG,AFNE01.JPG,AFNE01.JPG,AFNE01.JPG,AFNE01.JPG,AFNE01.JPG,5,8,58,6,,,,,,,,,,,,,,,,,,,,,,,AFNE18.jpg,AFNE19.jpg,AFSA04.jpg,AFSA19.jpg,AFNE19.jpg,FN,3,num_6,32,num_4,1.16662988835,,,2018_Jan_12_1523,60.0098932546,FEMA4ImagesEEG,001,102766,
AFNE01.JPG,AFNE01.JPG,AFNE01.JPG,AFNE01.JPG,AFNE01.JPG,AFNE01.JPG,5,9,59,2,,,,,,,,,,,,,,,,,,,,,,,AFSA20.jpg,AFSA03.jpg,AFNE08.jpg,AFNE02.jpg,AFSA20.jpg,FS,4,num_8,16,num_8,1.08346553147,,,2018_Jan_12_1523,60.0098932546,FEMA4ImagesEEG,001,102766,
,,,,,,,,,,,,,,,,,,,,,,,,,,,,,,,,,,,,,,,,,,,space,14.64940615,2018_Jan_12_1523,60.0098932546,FEMA4ImagesEEG,001,102766,
AFNE01.JPG,AFNE01.JPG,AFNE01.JPG,AFNE01.JPG,AFNE01.JPG,AFNE01.JPG,,,,,0,0,0,4,,,,,,,,,,,,,,,,,,,AMSA02.jpg,AMSA17.jpg,AMNE20.jpg,AMNE01.jpg,AMSA17.jpg,MS,2,num_6,16,num_6,1.05012075859,,,2018_Jan_12_1523,60.0098932546,FEMA4ImagesEEG,001,102766,
AFNE01.JPG,AFNE01.JPG,AFNE01.JPG,AFNE01.JPG,AFNE01.JPG,AFNE01.JPG,,,,,0,1,1,5,,,,,,,,,,,,,,,,,,,AMSA03.jpg,AMNE01.jpg,AMSA06.jpg,AMNE08.jpg,AMNE01.jpg,MN,1,num_6,32,num_8,0.966732525267,,,2018_Jan_12_1523,60.0098932546,FEMA4ImagesEEG,001,102766,
AFNE01.JPG,AFNE01.JPG,AFNE01.JPG,AFNE01.JPG,AFNE01.JPG,AFNE01.JPG,,,,,0,2,2,8,,,,,,,,,,,,,,,,,,,AMNE17.jpg,AMSA11.jpg,AMSA16.jpg,AMNE12.jpg,AMNE17.jpg,MN,1,num_8,16,num_8,0.966872047167,,,2018_Jan_12_1523,60.0098932546,FEMA4ImagesEEG,001,102766,
AFNE01.JPG,AFNE01.JPG,AFNE01.JPG,AFNE01.JPG,AFNE01.JPG,AFNE01.JPG,,,,,0,3,3,9,,,,,,,,,,,,,,,,,,,AMNE20.jpg,AMSA16.jpg,AMSA11.jpg,AMNE06.jpg,AMSA11.jpg,MS,2,num_2,16,num_2,0.916819606209,,,2018_Jan_12_1523,60.0098932546,FEMA4ImagesEEG,001,102766,
AFNE01.JPG,AFNE01.JPG,AFNE01.JPG,AFNE01.JPG,AFNE01.JPG,AFNE01.JPG,,,,,0,4,4,6,,,,,,,,,,,,,,,,,,,AMSA11.jpg,AMNE16.jpg,AMSA07.jpg,AMNE10.jpg,AMSA11.jpg,MS,2,num_8,16,num_8,0.65017720894,,,2018_Jan_12_1523,60.0098932546,FEMA4ImagesEEG,001,102766,
AFNE01.JPG,AFNE01.JPG,AFNE01.JPG,AFNE01.JPG,AFNE01.JPG,AFNE01.JPG,,,,,0,5,5,1,,,,,,,,,,,,,,,,,,,AMNE02.jpg,AMSA16.jpg,AMNE09.jpg,AMSA10.jpg,AMSA10.jpg,MS,2,num_4,32,num_6,1.28348477604,,,2018_Jan_12_1523,60.0098932546,FEMA4ImagesEEG,001,102766,
AFNE01.JPG,AFNE01.JPG,AFNE01.JPG,AFNE01.JPG,AFNE01.JPG,AFNE01.JPG,,,,,0,6,6,0,,,,,,,,,,,,,,,,,,,AMNE01.jpg,AMSA12.jpg,AMNE14.jpg,AMSA11.jpg,AMNE01.jpg,MN,1,num_8,16,num_8,1.43343586312,,,2018_Jan_12_1523,60.0098932546,FEMA4ImagesEEG,001,102766,
AFNE01.JPG,AFNE01.JPG,AFNE01.JPG,AFNE01.JPG,AFNE01.JPG,AFNE01.JPG,,,,,0,7,7,2,,,,,,,,,,,,,,,,,,,AMNE12.jpg,AMNE03.jpg,AMSA01.jpg,AMSA10.jpg,AMSA10.jpg,MS,2,num_4,32,num_8,1.20009622211,,,2018_Jan_12_1523,60.0098932546,FEMA4ImagesEEG,001,102766,
AFNE01.JPG,AFNE01.JPG,AFNE01.JPG,AFNE01.JPG,AFNE01.JPG,AFNE01.JPG,,,,,0,8,8,7,,,,,,,,,,,,,,,,,,,AMNE11.jpg,AMNE19.jpg,AMSA14.jpg,AMSA10.jpg,AMSA10.jpg,MS,2,num_4,16,num_4,1.00012829597,,,2018_Jan_12_1523,60.0098932546,FEMA4ImagesEEG,001,102766,
AFNE01.JPG,AFNE01.JPG,AFNE01.JPG,AFNE01.JPG,AFNE01.JPG,AFNE01.JPG,,,,,0,9,9,3,,,,,,,,,,,,,,,,,,,AMNE18.jpg,AMSA18.jpg,AMSA04.jpg,AMNE20.jpg,AMNE18.jpg,MN,1,num_8,32,num_6,1.40008467529,,,2018_Jan_12_1523,60.0098932546,FEMA4ImagesEEG,001,102766,
AFNE01.JPG,AFNE01.JPG,AFNE01.JPG,AFNE01.JPG,AFNE01.JPG,AFNE01.JPG,,,,,1,0,10,2,,,,,,,,,,,,,,,,,,,AMSA01.jpg,AMSA02.jpg,AMNE17.jpg,AMNE09.jpg,AMNE17.jpg,MN,1,num_2,16,num_2,0.733495520893,,,2018_Jan_12_1523,60.0098932546,FEMA4ImagesEEG,001,102766,
AFNE01.JPG,AFNE01.JPG,AFNE01.JPG,AFNE01.JPG,AFNE01.JPG,AFNE01.JPG,,,,,1,1,11,9,,,,,,,,,,,,,,,,,,,AMNE11.jpg,AMNE14.jpg,AMSA02.jpg,AMSA11.jpg,AMSA02.jpg,MS,2,num_2,16,num_2,1.50008178852,,,2018_Jan_12_1523,60.0098932546,FEMA4ImagesEEG,001,102766,
AFNE01.JPG,AFNE01.JPG,AFNE01.JPG,AFNE01.JPG,AFNE01.JPG,AFNE01.JPG,,,,,1,2,12,7,,,,,,,,,,,,,,,,,,,AMSA12.jpg,AMSA15.jpg,AMNE03.jpg,AMNE12.jpg,AMNE03.jpg,MN,1,num_2,16,num_2,1.2834645696,,,2018_Jan_12_1523,60.0098932546,FEMA4ImagesEEG,001,102766,
AFNE01.JPG,AFNE01.JPG,AFNE01.JPG,AFNE01.JPG,AFNE01.JPG,AFNE01.JPG,,,,,1,3,13,0,,,,,,,,,,,,,,,,,,,AMNE08.jpg,AMSA04.jpg,AMSA10.jpg,AMNE10.jpg,AMNE10.jpg,MN,1,num_4,32,num_8,0.75009638234,,,2018_Jan_12_1523,60.0098932546,FEMA4ImagesEEG,001,102766,
AFNE01.JPG,AFNE01.JPG,AFNE01.JPG,AFNE01.JPG,AFNE01.JPG,AFNE01.JPG,,,,,1,4,14,1,,,,,,,,,,,,,,,,,,,AMNE19.jpg,AMSA17.jpg,AMSA03.jpg,AMNE17.jpg,AMSA17.jpg,MS,2,num_6,16,num_6,0.800133427838,,,2018_Jan_12_1523,60.0098932546,FEMA4ImagesEEG,001,102766,
AFNE01.JPG,AFNE01.JPG,AFNE01.JPG,AFNE01.JPG,AFNE01.JPG,AFNE01.JPG,,,,,1,5,15,3,,,,,,,,,,,,,,,,,,,AMNE11.jpg,AMSA17.jpg,AMSA12.jpg,AMNE09.jpg,AMSA12.jpg,MS,2,num_2,16,num_2,1.45008291118,,,2018_Jan_12_1523,60.0098932546,FEMA4ImagesEEG,001,102766,
AFNE01.JPG,AFNE01.JPG,AFNE01.JPG,AFNE01.JPG,AFNE01.JPG,AFNE01.JPG,,,,,1,6,16,4,,,,,,,,,,,,,,,,,,,AMNE03.jpg,AMSA08.jpg,AMSA04.jpg,AMNE04.jpg,AMSA08.jpg,MS,2,num_6,16,num_6,1.04993665381,,,2018_Jan_12_1523,60.0098932546,FEMA4ImagesEEG,001,102766,
AFNE01.JPG,AFNE01.JPG,AFNE01.JPG,AFNE01.JPG,AFNE01.JPG,AFNE01.JPG,,,,,1,7,17,6,,,,,,,,,,,,,,,,,,,AMNE19.jpg,AMSA16.jpg,AMSA17.jpg,AMNE20.jpg,AMNE19.jpg,MN,1,num_8,32,num_4,1.43339641206,,,2018_Jan_12_1523,60.0098932546,FEMA4ImagesEEG,001,102766,
AFNE01.JPG,AFNE01.JPG,AFNE01.JPG,AFNE01.JPG,AFNE01.JPG,AFNE01.JPG,,,,,1,8,18,5,,,,,,,,,,,,,,,,,,,AMSA07.jpg,AMNE16.jpg,AMSA15.jpg,AMNE14.jpg,AMNE14.jpg,MN,1,num_4,16,num_4,1.16675112839,,,2018_Jan_12_1523,60.0098932546,FEMA4ImagesEEG,001,102766,
AFNE01.JPG,AFNE01.JPG,AFNE01.JPG,AFNE01.JPG,AFNE01.JPG,AFNE01.JPG,,,,,1,9,19,8,,,,,,,,,,,,,,,,,,,AMSA11.jpg,AMNE15.jpg,AMSA16.jpg,AMNE16.jpg,AMNE15.jpg,MN,1,num_6,16,num_6,0.933476917911,,,2018_Jan_12_1523,60.0098932546,FEMA4ImagesEEG,001,102766,
AFNE01.JPG,AFNE01.JPG,AFNE01.JPG,AFNE01.JPG,AFNE01.JPG,AFNE01.JPG,,,,,2,0,20,6,,,,,,,,,,,,,,,,,,,AMNE17.jpg,AMSA04.jpg,AMSA17.jpg,AMNE07.jpg,AMSA04.jpg,MS,2,num_6,16,num_6,1.21669483813,,,2018_Jan_12_1523,60.0098932546,FEMA4ImagesEEG,001,102766,
AFNE01.JPG,AFNE01.JPG,AFNE01.JPG,AFNE01.JPG,AFNE01.JPG,AFNE01.JPG,,,,,2,1,21,0,,,,,,,,,,,,,,,,,,,AMSA10.jpg,AMSA14.jpg,AMNE09.jpg,AMNE11.jpg,AMSA14.jpg,MS,2,num_6,16,num_6,0.833567687543,,,2018_Jan_12_1523,60.0098932546,FEMA4ImagesEEG,001,102766,
AFNE01.JPG,AFNE01.JPG,AFNE01.JPG,AFNE01.JPG,AFNE01.JPG,AFNE01.JPG,,,,,2,2,22,3,,,,,,,,,,,,,,,,,,,AMNE10.jpg,AMSA14.jpg,AMSA09.jpg,AMNE04.jpg,AMNE10.jpg,MN,1,num_8,16,num_8,0.916721459711,,,2018_Jan_12_1523,60.0098932546,FEMA4ImagesEEG,001,102766,
AFNE01.JPG,AFNE01.JPG,AFNE01.JPG,AFNE01.JPG,AFNE01.JPG,AFNE01.JPG,,,,,2,3,23,8,,,,,,,,,,,,,,,,,,,AMSA08.jpg,AMSA04.jpg,AMNE05.jpg,AMNE10.jpg,AMNE10.jpg,MN,1,num_4,16,num_4,0.783473550109,,,2018_Jan_12_1523,60.0098932546,FEMA4ImagesEEG,001,102766,
AFNE01.JPG,AFNE01.JPG,AFNE01.JPG,AFNE01.JPG,AFNE01.JPG,AFNE01.JPG,,,,,2,4,24,9,,,,,,,,,,,,,,,,,,,AMSA01.jpg,AMNE11.jpg,AMSA06.jpg,AMNE18.jpg,AMSA01.jpg,MS,2,num_8,16,num_8,1.28342159023,,,2018_Jan_12_1523,60.0098932546,FEMA4ImagesEEG,001,102766,
AFNE01.JPG,AFNE01.JPG,AFNE01.JPG,AFNE01.JPG,AFNE01.JPG,AFNE01.JPG,,,,,2,5,25,2,,,,,,,,,,,,,,,,,,,AMNE02.jpg,AMSA07.jpg,AMNE09.jpg,AMSA02.jpg,AMSA07.jpg,MS,2,num_6,32,num_2,0.93343458022,,,2018_Jan_12_1523,60.0098932546,FEMA4ImagesEEG,001,102766,
AFNE01.JPG,AFNE01.JPG,AFNE01.JPG,AFNE01.JPG,AFNE01.JPG,AFNE01.JPG,,,,,2,6,26,7,,,,,,,,,,,,,,,,,,,AMNE19.jpg,AMSA03.jpg,AMSA04.jpg,AMNE16.jpg,AMNE16.jpg,MN,1,num_4,32,num_2,1.11673364788,,,2018_Jan_12_1523,60.0098932546,FEMA4ImagesEEG,001,102766,
AFNE01.JPG,AFNE01.JPG,AFNE01.JPG,AFNE01.JPG,AFNE01.JPG,AFNE01.JPG,,,,,2,7,27,4,,,,,,,,,,,,,,,,,,,AMNE06.jpg,AMSA09.jpg,AMSA07.jpg,AMNE10.jpg,AMSA09.jpg,MS,2,num_6,16,num_6,0.850139040733,,,2018_Jan_12_1523,60.0098932546,FEMA4ImagesEEG,001,102766,
AFNE01.JPG,AFNE01.JPG,AFNE01.JPG,AFNE01.JPG,AFNE01.JPG,AFNE01.JPG,,,,,2,8,28,5,,,,,,,,,,,,,,,,,,,AMSA02.jpg,AMNE15.jpg,AMSA15.jpg,AMNE04.jpg,AMNE15.jpg,MN,1,num_6,32,num_4,1.25008451496,,,2018_Jan_12_1523,60.0098932546,FEMA4ImagesEEG,001,102766,
AFNE01.JPG,AFNE01.JPG,AFNE01.JPG,AFNE01.JPG,AFNE01.JPG,AFNE01.JPG,,,,,2,9,29,1,,,,,,,,,,,,,,,,,,,AMSA02.jpg,AMNE03.jpg,AMSA17.jpg,AMNE10.jpg,AMNE03.jpg,MN,1,num_6,32,num_2,1.23346023937,,,2018_Jan_12_1523,60.0098932546,FEMA4ImagesEEG,001,102766,
AFNE01.JPG,AFNE01.JPG,AFNE01.JPG,AFNE01.JPG,AFNE01.JPG,AFNE01.JPG,,,,,3,0,30,4,,,,,,,,,,,,,,,,,,,AMNE16.jpg,AMSA02.jpg,AMSA12.jpg,AMNE06.jpg,AMSA12.jpg,MS,2,num_2,32,num_8,0.950113381725,,,2018_Jan_12_1523,60.0098932546,FEMA4ImagesEEG,001,102766,
AFNE01.JPG,AFNE01.JPG,AFNE01.JPG,AFNE01.JPG,AFNE01.JPG,AFNE01.JPG,,,,,3,1,31,9,,,,,,,,,,,,,,,,,,,AMSA07.jpg,AMNE10.jpg,AMSA10.jpg,AMNE12.jpg,AMNE10.jpg,MN,1,num_6,16,num_6,0.83343971218,,,2018_Jan_12_1523,60.0098932546,FEMA4ImagesEEG,001,102766,
AFNE01.JPG,AFNE01.JPG,AFNE01.JPG,AFNE01.JPG,AFNE01.JPG,AFNE01.JPG,,,,,3,2,32,2,,,,,,,,,,,,,,,,,,,AMSA20.jpg,AMSA19.jpg,AMNE03.jpg,AMNE17.jpg,AMSA19.jpg,MS,2,num_6,32,num_4,0.933554857969,,,2018_Jan_12_1523,60.0098932546,FEMA4ImagesEEG,001,102766,
AFNE01.JPG,AFNE01.JPG,AFNE01.JPG,AFNE01.JPG,AFNE01.JPG,AFNE01.JPG,,,,,3,3,33,7,,,,,,,,,,,,,,,,,,,AMSA14.jpg,AMSA20.jpg,AMNE13.jpg,AMNE06.jpg,AMSA20.jpg,MS,2,num_6,32,num_8,0.866825860692,,,2018_Jan_12_1523,60.0098932546,FEMA4ImagesEEG,001,102766,
AFNE01.JPG,AFNE01.JPG,AFNE01.JPG,AFNE01.JPG,AFNE01.JPG,AFNE01.JPG,,,,,3,4,34,6,,,,,,,,,,,,,,,,,,,AMSA19.jpg,AMSA09.jpg,AMNE12.jpg,AMNE14.jpg,AMNE12.jpg,MN,1,num_2,32,num_4,1.11675096792,,,2018_Jan_12_1523,60.0098932546,FEMA4ImagesEEG,001,102766,
AFNE01.JPG,AFNE01.JPG,AFNE01.JPG,AFNE01.JPG,AFNE01.JPG,AFNE01.JPG,,,,,3,5,35,1,,,,,,,,,,,,,,,,,,,AMNE19.jpg,AMNE20.jpg,AMSA06.jpg,AMSA18.jpg,AMSA18.jpg,MS,2,num_4,32,num_2,1.53354908433,,,2018_Jan_12_1523,60.0098932546,FEMA4ImagesEEG,001,102766,
AFNE01.JPG,AFNE01.JPG,AFNE01.JPG,AFNE01.JPG,AFNE01.JPG,AFNE01.JPG,,,,,3,6,36,8,,,,,,,,,,,,,,,,,,,AMNE17.jpg,AMNE16.jpg,AMSA17.jpg,AMSA19.jpg,AMNE17.jpg,MN,1,num_8,32,num_2,1.96674727928,,,2018_Jan_12_1523,60.0098932546,FEMA4ImagesEEG,001,102766,
AFNE01.JPG,AFNE01.JPG,AFNE01.JPG,AFNE01.JPG,AFNE01.JPG,AFNE01.JPG,,,,,3,7,37,0,,,,,,,,,,,,,,,,,,,AMSA02.jpg,AMSA07.jpg,AMNE06.jpg,AMNE13.jpg,AMSA07.jpg,MS,2,num_6,32,num_2,1.0501197963,,,2018_Jan_12_1523,60.0098932546,FEMA4ImagesEEG,001,102766,
AFNE01.JPG,AFNE01.JPG,AFNE01.JPG,AFNE01.JPG,AFNE01.JPG,AFNE01.JPG,,,,,3,8,38,5,,,,,,,,,,,,,,,,,,,AMSA19.jpg,AMNE10.jpg,AMNE15.jpg,AMSA10.jpg,AMNE10.jpg,MN,1,num_6,32,num_4,1.66673412896,,,2018_Jan_12_1523,60.0098932546,FEMA4ImagesEEG,001,102766,
AFNE01.JPG,AFNE01.JPG,AFNE01.JPG,AFNE01.JPG,AFNE01.JPG,AFNE01.JPG,,,,,3,9,39,3,,,,,,,,,,,,,,,,,,,AMNE08.jpg,AMSA02.jpg,AMNE05.jpg,AMSA19.jpg,AMNE08.jpg,MN,1,num_8,16,num_8,1.63351123733,,,2018_Jan_12_1523,60.0098932546,FEMA4ImagesEEG,001,102766,
AFNE01.JPG,AFNE01.JPG,AFNE01.JPG,AFNE01.JPG,AFNE01.JPG,AFNE01.JPG,,,,,4,0,40,6,,,,,,,,,,,,,,,,,,,AMNE19.jpg,AMNE02.jpg,AMSA03.jpg,AMSA09.jpg,AMNE19.jpg,MN,1,num_8,32,num_6,0.9504382913,,,2018_Jan_12_1523,60.0098932546,FEMA4ImagesEEG,001,102766,
AFNE01.JPG,AFNE01.JPG,AFNE01.JPG,AFNE01.JPG,AFNE01.JPG,AFNE01.JPG,,,,,4,1,41,4,,,,,,,,,,,,,,,,,,,AMNE13.jpg,AMNE01.jpg,AMSA17.jpg,AMSA12.jpg,AMSA12.jpg,MS,2,num_4,16,num_4,1.06676171254,,,2018_Jan_12_1523,60.0098932546,FEMA4ImagesEEG,001,102766,
AFNE01.JPG,AFNE01.JPG,AFNE01.JPG,AFNE01.JPG,AFNE01.JPG,AFNE01.JPG,,,,,4,2,42,8,,,,,,,,,,,,,,,,,,,AMNE08.jpg,AMSA04.jpg,AMNE04.jpg,AMSA07.jpg,AMSA04.jpg,MS,2,num_6,16,num_6,1.21675417526,,,2018_Jan_12_1523,60.0098932546,FEMA4ImagesEEG,001,102766,
AFNE01.JPG,AFNE01.JPG,AFNE01.JPG,AFNE01.JPG,AFNE01.JPG,AFNE01.JPG,,,,,4,3,43,7,,,,,,,,,,,,,,,,,,,AMNE18.jpg,AMSA01.jpg,AMNE17.jpg,AMSA11.jpg,AMNE17.jpg,MN,1,num_2,16,num_2,1.33341790177,,,2018_Jan_12_1523,60.0098932546,FEMA4ImagesEEG,001,102766,
AFNE01.JPG,AFNE01.JPG,AFNE01.JPG,AFNE01.JPG,AFNE01.JPG,AFNE01.JPG,,,,,4,4,44,1,,,,,,,,,,,,,,,,,,,AMSA17.jpg,AMSA01.jpg,AMNE14.jpg,AMNE07.jpg,AMSA17.jpg,MS,2,num_8,32,num_2,1.18343570293,,,2018_Jan_12_1523,60.0098932546,FEMA4ImagesEEG,001,102766,
AFNE01.JPG,AFNE01.JPG,AFNE01.JPG,AFNE01.JPG,AFNE01.JPG,AFNE01.JPG,,,,,4,5,45,9,,,,,,,,,,,,,,,,,,,AMNE15.jpg,AMSA08.jpg,AMSA12.jpg,AMNE07.jpg,AMSA08.jpg,MS,2,num_6,32,num_8,1.51671825233,,,2018_Jan_12_1523,60.0098932546,FEMA4ImagesEEG,001,102766,
AFNE01.JPG,AFNE01.JPG,AFNE01.JPG,AFNE01.JPG,AFNE01.JPG,AFNE01.JPG,,,,,4,6,46,2,,,,,,,,,,,,,,,,,,,AMNE12.jpg,AMNE18.jpg,AMSA16.jpg,AMSA03.jpg,AMSA16.jpg,MS,2,num_2,16,num_2,0.89994034241,,,2018_Jan_12_1523,60.0098932546,FEMA4ImagesEEG,001,102766,
AFNE01.JPG,AFNE01.JPG,AFNE01.JPG,AFNE01.JPG,AFNE01.JPG,AFNE01.JPG,,,,,4,7,47,0,,,,,,,,,,,,,,,,,,,AMSA11.jpg,AMSA19.jpg,AMNE07.jpg,AMNE16.jpg,AMNE16.jpg,MN,1,num_4,16,num_4,1.00010584411,,,2018_Jan_12_1523,60.0098932546,FEMA4ImagesEEG,001,102766,
AFNE01.JPG,AFNE01.JPG,AFNE01.JPG,AFNE01.JPG,AFNE01.JPG,AFNE01.JPG,,,,,4,8,48,3,,,,,,,,,,,,,,,,,,,AMNE06.jpg,AMSA02.jpg,AMNE07.jpg,AMSA10.jpg,AMNE07.jpg,MN,1,num_2,16,num_2,0.750154757174,,,2018_Jan_12_1523,60.0098932546,FEMA4ImagesEEG,001,102766,
AFNE01.JPG,AFNE01.JPG,AFNE01.JPG,AFNE01.JPG,AFNE01.JPG,AFNE01.JPG,,,,,4,9,49,5,,,,,,,,,,,,,,,,,,,AMSA01.jpg,AMSA03.jpg,AMNE10.jpg,AMNE13.jpg,AMNE13.jpg,MN,1,num_4,32,num_2,1.25009125052,,,2018_Jan_12_1523,60.0098932546,FEMA4ImagesEEG,001,102766,
AFNE01.JPG,AFNE01.JPG,AFNE01.JPG,AFNE01.JPG,AFNE01.JPG,AFNE01.JPG,,,,,5,0,50,1,,,,,,,,,,,,,,,,,,,AMSA17.jpg,AMNE07.jpg,AMNE02.jpg,AMSA01.jpg,AMNE02.jpg,MN,1,num_2,32,num_4,1.28342191107,,,2018_Jan_12_1523,60.0098932546,FEMA4ImagesEEG,001,102766,
AFNE01.JPG,AFNE01.JPG,AFNE01.JPG,AFNE01.JPG,AFNE01.JPG,AFNE01.JPG,,,,,5,1,51,0,,,,,,,,,,,,,,,,,,,AMSA01.jpg,AMNE07.jpg,AMNE10.jpg,AMSA13.jpg,AMNE10.jpg,MN,1,num_2,16,num_2,1.0834183828,,,2018_Jan_12_1523,60.0098932546,FEMA4ImagesEEG,001,102766,
AFNE01.JPG,AFNE01.JPG,AFNE01.JPG,AFNE01.JPG,AFNE01.JPG,AFNE01.JPG,,,,,5,2,52,3,,,,,,,,,,,,,,,,,,,AMSA04.jpg,AMNE18.jpg,AMNE04.jpg,AMSA07.jpg,AMNE04.jpg,MN,1,num_2,32,num_6,2.69997562375,,,2018_Jan_12_1523,60.0098932546,FEMA4ImagesEEG,001,102766,
AFNE01.JPG,AFNE01.JPG,AFNE01.JPG,AFNE01.JPG,AFNE01.JPG,AFNE01.JPG,,,,,5,3,53,2,,,,,,,,,,,,,,,,,,,AMNE05.jpg,AMNE10.jpg,AMSA01.jpg,AMSA15.jpg,AMNE10.jpg,MN,1,num_6,16,num_6,0.916854566894,,,2018_Jan_12_1523,60.0098932546,FEMA4ImagesEEG,001,102766,
AFNE01.JPG,AFNE01.JPG,AFNE01.JPG,AFNE01.JPG,AFNE01.JPG,AFNE01.JPG,,,,,5,4,54,4,,,,,,,,,,,,,,,,,,,AMSA09.jpg,AMNE08.jpg,AMSA17.jpg,AMNE03.jpg,AMSA17.jpg,MS,2,num_2,16,num_2,1.08347098413,,,2018_Jan_12_1523,60.0098932546,FEMA4ImagesEEG,001,102766,
AFNE01.JPG,AFNE01.JPG,AFNE01.JPG,AFNE01.JPG,AFNE01.JPG,AFNE01.JPG,,,,,5,5,55,5,,,,,,,,,,,,,,,,,,,AMSA20.jpg,AMNE14.jpg,AMNE17.jpg,AMSA19.jpg,AMSA19.jpg,MS,2,num_4,16,num_4,0.983431854052,,,2018_Jan_12_1523,60.0098932546,FEMA4ImagesEEG,001,102766,
AFNE01.JPG,AFNE01.JPG,AFNE01.JPG,AFNE01.JPG,AFNE01.JPG,AFNE01.JPG,,,,,5,6,56,7,,,,,,,,,,,,,,,,,,,AMSA10.jpg,AMNE15.jpg,AMNE14.jpg,AMSA03.jpg,AMSA10.jpg,MS,2,num_8,32,num_6,0.800125730224,,,2018_Jan_12_1523,60.0098932546,FEMA4ImagesEEG,001,102766,
AFNE01.JPG,AFNE01.JPG,AFNE01.JPG,AFNE01.JPG,AFNE01.JPG,AFNE01.JPG,,,,,5,7,57,9,,,,,,,,,,,,,,,,,,,AMSA20.jpg,AMNE02.jpg,AMNE20.jpg,AMSA16.jpg,AMSA16.jpg,MS,2,num_4,32,num_8,1.71671536565,,,2018_Jan_12_1523,60.0098932546,FEMA4ImagesEEG,001,102766,
AFNE01.JPG,AFNE01.JPG,AFNE01.JPG,AFNE01.JPG,AFNE01.JPG,AFNE01.JPG,,,,,5,8,58,6,,,,,,,,,,,,,,,,,,,AMNE01.jpg,AMSA04.jpg,AMNE08.jpg,AMSA14.jpg,AMSA14.jpg,MS,2,num_4,16,num_4,0.65009638248,,,2018_Jan_12_1523,60.0098932546,FEMA4ImagesEEG,001,102766,
AFNE01.JPG,AFNE01.JPG,AFNE01.JPG,AFNE01.JPG,AFNE01.JPG,AFNE01.JPG,,,,,5,9,59,8,,,,,,,,,,,,,,,,,,,AMSA18.jpg,AMNE19.jpg,AMNE13.jpg,AMSA20.jpg,AMNE19.jpg,MN,1,num_6,16,num_6,1.10016582254,,,2018_Jan_12_1523,60.0098932546,FEMA4ImagesEEG,001,102766,
,,,,,,,,,,,,,,,,,,,,,,,,,,,,,,,,,,,,,,,,,,,space,24.0819824298,2018_Jan_12_1523,60.0098932546,FEMA4ImagesEEG,001,102766,
AFNE01.JPG,AFNE01.JPG,AFNE01.JPG,AFNE01.JPG,AFNE01.JPG,AFNE01.JPG,,,,,,,,,0,0,0,5,,,,,,,,,,,,,,,AFSA11.jpg,AFNE13.jpg,AFNE02.jpg,AFSA20.jpg,AFNE02.jpg,FN,3,num_2,32,num_8,1.08342094882,,,2018_Jan_12_1523,60.0098932546,FEMA4ImagesEEG,001,102766,
AFNE01.JPG,AFNE01.JPG,AFNE01.JPG,AFNE01.JPG,AFNE01.JPG,AFNE01.JPG,,,,,,,,,0,1,1,9,,,,,,,,,,,,,,,AFNE09.jpg,AFSA14.jpg,AFNE05.jpg,AFSA09.jpg,AFSA09.jpg,FS,4,num_4,32,num_6,1.3667607503,,,2018_Jan_12_1523,60.0098932546,FEMA4ImagesEEG,001,102766,
AFNE01.JPG,AFNE01.JPG,AFNE01.JPG,AFNE01.JPG,AFNE01.JPG,AFNE01.JPG,,,,,,,,,0,2,2,3,,,,,,,,,,,,,,,AFNE17.jpg,AFNE07.jpg,AFSA20.jpg,AFSA10.jpg,AFSA20.jpg,FS,4,num_2,16,num_2,1.28343698592,,,2018_Jan_12_1523,60.0098932546,FEMA4ImagesEEG,001,102766,
AFNE01.JPG,AFNE01.JPG,AFNE01.JPG,AFNE01.JPG,AFNE01.JPG,AFNE01.JPG,,,,,,,,,0,3,3,2,,,,,,,,,,,,,,,AFNE07.jpg,AFSA09.jpg,AFSA15.jpg,AFNE15.jpg,AFNE07.jpg,FN,3,num_8,32,num_6,0.90015427582,,,2018_Jan_12_1523,60.0098932546,FEMA4ImagesEEG,001,102766,
AFNE01.JPG,AFNE01.JPG,AFNE01.JPG,AFNE01.JPG,AFNE01.JPG,AFNE01.JPG,,,,,,,,,0,4,4,4,,,,,,,,,,,,,,,AFNE10.jpg,AFSA04.jpg,AFNE14.jpg,AFSA17.jpg,AFSA17.jpg,FS,4,num_4,16,num_4,0.850113702239,,,2018_Jan_12_1523,60.0098932546,FEMA4ImagesEEG,001,102766,
AFNE01.JPG,AFNE01.JPG,AFNE01.JPG,AFNE01.JPG,AFNE01.JPG,AFNE01.JPG,,,,,,,,,0,5,5,0,,,,,,,,,,,,,,,AFSA03.jpg,AFSA01.jpg,AFNE02.jpg,AFNE05.jpg,AFSA03.jpg,FS,4,num_8,16,num_8,0.950089967577,,,2018_Jan_12_1523,60.0098932546,FEMA4ImagesEEG,001,102766,
AFNE01.JPG,AFNE01.JPG,AFNE01.JPG,AFNE01.JPG,AFNE01.JPG,AFNE01.JPG,,,,,,,,,0,6,6,8,,,,,,,,,,,,,,,AFNE16.jpg,AFSA09.jpg,AFNE02.jpg,AFSA17.jpg,AFSA17.jpg,FS,4,num_4,16,num_4,1.36684863316,,,2018_Jan_12_1523,60.0098932546,FEMA4ImagesEEG,001,102766,
AFNE01.JPG,AFNE01.JPG,AFNE01.JPG,AFNE01.JPG,AFNE01.JPG,AFNE01.JPG,,,,,,,,,0,7,7,7,,,,,,,,,,,,,,,AFNE11.jpg,AFSA06.jpg,AFSA08.jpg,AFNE06.jpg,AFNE11.jpg,FN,3,num_8,32,num_4,1.30010841019,,,2018_Jan_12_1523,60.0098932546,FEMA4ImagesEEG,001,102766,
AFNE01.JPG,AFNE01.JPG,AFNE01.JPG,AFNE01.JPG,AFNE01.JPG,AFNE01.JPG,,,,,,,,,0,8,8,6,,,,,,,,,,,,,,,AFSA03.jpg,AFSA02.jpg,AFNE05.jpg,AFNE15.jpg,AFSA02.jpg,FS,4,num_6,16,num_6,0.833462805254,,,2018_Jan_12_1523,60.0098932546,FEMA4ImagesEEG,001,102766,
AFNE01.JPG,AFNE01.JPG,AFNE01.JPG,AFNE01.JPG,AFNE01.JPG,AFNE01.JPG,,,,,,,,,0,9,9,1,,,,,,,,,,,,,,,AFSA10.jpg,AFNE05.jpg,AFSA02.jpg,AFNE10.jpg,AFNE10.jpg,FN,3,num_4,16,num_4,1.5334227127,,,2018_Jan_12_1523,60.0098932546,FEMA4ImagesEEG,001,102766,
AFNE01.JPG,AFNE01.JPG,AFNE01.JPG,AFNE01.JPG,AFNE01.JPG,AFNE01.JPG,,,,,,,,,1,0,10,2,,,,,,,,,,,,,,,AFNE20.jpg,AFSA15.jpg,AFSA13.jpg,AFNE15.jpg,AFNE20.jpg,FN,3,num_8,16,num_8,1.63336401735,,,2018_Jan_12_1523,60.0098932546,FEMA4ImagesEEG,001,102766,
AFNE01.JPG,AFNE01.JPG,AFNE01.JPG,AFNE01.JPG,AFNE01.JPG,AFNE01.JPG,,,,,,,,,1,1,11,1,,,,,,,,,,,,,,,AFNE09.jpg,AFSA19.jpg,AFSA01.jpg,AFNE02.jpg,AFNE02.jpg,FN,3,num_4,16,num_4,1.15011113649,,,2018_Jan_12_1523,60.0098932546,FEMA4ImagesEEG,001,102766,
AFNE01.JPG,AFNE01.JPG,AFNE01.JPG,AFNE01.JPG,AFNE01.JPG,AFNE01.JPG,,,,,,,,,1,2,12,4,,,,,,,,,,,,,,,AFNE15.jpg,AFNE03.jpg,AFSA01.jpg,AFSA03.jpg,AFSA03.jpg,FS,4,num_4,32,num_2,2.51666404726,,,2018_Jan_12_1523,60.0098932546,FEMA4ImagesEEG,001,102766,
AFNE01.JPG,AFNE01.JPG,AFNE01.JPG,AFNE01.JPG,AFNE01.JPG,AFNE01.JPG,,,,,,,,,1,3,13,0,,,,,,,,,,,,,,,AFSA20.jpg,AFSA12.jpg,AFNE15.jpg,AFNE03.jpg,AFNE15.jpg,FN,3,num_2,16,num_2,0.816790418932,,,2018_Jan_12_1523,60.0098932546,FEMA4ImagesEEG,001,102766,
AFNE01.JPG,AFNE01.JPG,AFNE01.JPG,AFNE01.JPG,AFNE01.JPG,AFNE01.JPG,,,,,,,,,1,4,14,8,,,,,,,,,,,,,,,AFNE08.jpg,AFSA08.jpg,AFNE07.jpg,AFSA11.jpg,AFNE07.jpg,FN,3,num_2,16,num_2,0.949975142488,,,2018_Jan_12_1523,60.0098932546,FEMA4ImagesEEG,001,102766,
AFNE01.JPG,AFNE01.JPG,AFNE01.JPG,AFNE01.JPG,AFNE01.JPG,AFNE01.JPG,,,,,,,,,1,5,15,5,,,,,,,,,,,,,,,AFNE10.jpg,AFNE06.jpg,AFSA16.jpg,AFSA19.jpg,AFSA16.jpg,FS,4,num_2,32,num_4,1.1334227128,,,2018_Jan_12_1523,60.0098932546,FEMA4ImagesEEG,001,102766,
AFNE01.JPG,AFNE01.JPG,AFNE01.JPG,AFNE01.JPG,AFNE01.JPG,AFNE01.JPG,,,,,,,,,1,6,16,3,,,,,,,,,,,,,,,AFNE16.jpg,AFSA04.jpg,AFSA08.jpg,AFNE06.jpg,AFNE16.jpg,FN,3,num_8,16,num_8,0.800156521145,,,2018_Jan_12_1523,60.0098932546,FEMA4ImagesEEG,001,102766,
AFNE01.JPG,AFNE01.JPG,AFNE01.JPG,AFNE01.JPG,AFNE01.JPG,AFNE01.JPG,,,,,,,,,1,7,17,7,,,,,,,,,,,,,,,AFSA12.jpg,AFSA06.jpg,AFNE20.jpg,AFNE12.jpg,AFSA12.jpg,FS,4,num_8,16,num_8,0.866767485859,,,2018_Jan_12_1523,60.0098932546,FEMA4ImagesEEG,001,102766,
AFNE01.JPG,AFNE01.JPG,AFNE01.JPG,AFNE01.JPG,AFNE01.JPG,AFNE01.JPG,,,,,,,,,1,8,18,6,,,,,,,,,,,,,,,AFNE13.jpg,AFSA05.jpg,AFNE05.jpg,AFSA20.jpg,AFSA05.jpg,FS,4,num_6,16,num_6,1.03346440918,,,2018_Jan_12_1523,60.0098932546,FEMA4ImagesEEG,001,102766,
AFNE01.JPG,AFNE01.JPG,AFNE01.JPG,AFNE01.JPG,AFNE01.JPG,AFNE01.JPG,,,,,,,,,1,9,19,9,,,,,,,,,,,,,,,AFSA07.jpg,AFNE03.jpg,AFNE13.jpg,AFSA08.jpg,AFSA07.jpg,FS,4,num_8,32,num_4,0.816823455039,,,2018_Jan_12_1523,60.0098932546,FEMA4ImagesEEG,001,102766,
AFNE01.JPG,AFNE01.JPG,AFNE01.JPG,AFNE01.JPG,AFNE01.JPG,AFNE01.JPG,,,,,,,,,2,0,20,2,,,,,,,,,,,,,,,AFSA17.jpg,AFSA19.jpg,AFNE18.jpg,AFNE04.jpg,AFNE18.jpg,FN,3,num_2,32,num_8,1.03343329718,,,2018_Jan_12_1523,60.0098932546,FEMA4ImagesEEG,001,102766,
AFNE01.JPG,AFNE01.JPG,AFNE01.JPG,AFNE01.JPG,AFNE01.JPG,AFNE01.JPG,,,,,,,,,2,1,21,3,,,,,,,,,,,,,,,AFNE10.jpg,AFSA12.jpg,AFSA16.jpg,AFNE13.jpg,AFSA12.jpg,FS,4,num_6,16,num_6,1.5333883937,,,2018_Jan_12_1523,60.0098932546,FEMA4ImagesEEG,001,102766,
AFNE01.JPG,AFNE01.JPG,AFNE01.JPG,AFNE01.JPG,AFNE01.JPG,AFNE01.JPG,,,,,,,,,2,2,22,4,,,,,,,,,,,,,,,AFNE08.jpg,AFSA05.jpg,AFNE04.jpg,AFSA10.jpg,AFSA05.jpg,FS,4,num_6,16,num_6,0.733458315022,,,2018_Jan_12_1523,60.0098932546,FEMA4ImagesEEG,001,102766,
AFNE01.JPG,AFNE01.JPG,AFNE01.JPG,AFNE01.JPG,AFNE01.JPG,AFNE01.JPG,,,,,,,,,2,3,23,9,,,,,,,,,,,,,,,AFNE08.jpg,AFSA09.jpg,AFSA18.jpg,AFNE09.jpg,AFNE09.jpg,FN,3,num_4,32,num_6,2.51666853763,,,2018_Jan_12_1523,60.0098932546,FEMA4ImagesEEG,001,102766,
AFNE01.JPG,AFNE01.JPG,AFNE01.JPG,AFNE01.JPG,AFNE01.JPG,AFNE01.JPG,,,,,,,,,2,4,24,0,,,,,,,,,,,,,,,AFSA05.jpg,AFNE08.jpg,AFNE16.jpg,AFSA01.jpg,AFSA01.jpg,FS,4,num_4,16,num_4,1.38340651547,,,2018_Jan_12_1523,60.0098932546,FEMA4ImagesEEG,001,102766,
AFNE01.JPG,AFNE01.JPG,AFNE01.JPG,AFNE01.JPG,AFNE01.JPG,AFNE01.JPG,,,,,,,,,2,5,25,7,,,,,,,,,,,,,,,AFNE19.jpg,AFNE17.jpg,AFSA14.jpg,AFSA08.jpg,AFNE17.jpg,FN,3,num_6,32,num_8,1.16675978829,,,2018_Jan_12_1523,60.0098932546,FEMA4ImagesEEG,001,102766,
AFNE01.JPG,AFNE01.JPG,AFNE01.JPG,AFNE01.JPG,AFNE01.JPG,AFNE01.JPG,,,,,,,,,2,6,26,6,,,,,,,,,,,,,,,AFSA11.jpg,AFNE08.jpg,AFNE17.jpg,AFSA15.jpg,AFSA11.jpg,FS,4,num_8,32,num_2,1.71669932874,,,2018_Jan_12_1523,60.0098932546,FEMA4ImagesEEG,001,102766,
AFNE01.JPG,AFNE01.JPG,AFNE01.JPG,AFNE01.JPG,AFNE01.JPG,AFNE01.JPG,,,,,,,,,2,7,27,5,,,,,,,,,,,,,,,AFSA18.jpg,AFNE12.jpg,AFSA01.jpg,AFNE18.jpg,AFSA18.jpg,FS,4,num_8,16,num_8,1.05012332462,,,2018_Jan_12_1523,60.0098932546,FEMA4ImagesEEG,001,102766,
AFNE01.JPG,AFNE01.JPG,AFNE01.JPG,AFNE01.JPG,AFNE01.JPG,AFNE01.JPG,,,,,,,,,2,8,28,1,,,,,,,,,,,,,,,AFSA08.jpg,AFSA07.jpg,AFNE05.jpg,AFNE06.jpg,AFNE05.jpg,FN,3,num_2,16,num_2,1.21679202258,,,2018_Jan_12_1523,60.0098932546,FEMA4ImagesEEG,001,102766,
AFNE01.JPG,AFNE01.JPG,AFNE01.JPG,AFNE01.JPG,AFNE01.JPG,AFNE01.JPG,,,,,,,,,2,9,29,8,,,,,,,,,,,,,,,AFNE05.jpg,AFNE11.jpg,AFSA10.jpg,AFSA03.jpg,AFNE11.jpg,FN,3,num_6,32,num_8,1.01677085366,,,2018_Jan_12_1523,60.0098932546,FEMA4ImagesEEG,001,102766,
AFNE01.JPG,AFNE01.JPG,AFNE01.JPG,AFNE01.JPG,AFNE01.JPG,AFNE01.JPG,,,,,,,,,3,0,30,1,,,,,,,,,,,,,,,AFSA01.jpg,AFNE06.jpg,AFSA12.jpg,AFNE02.jpg,AFNE06.jpg,FN,3,num_6,16,num_6,0.800160690676,,,2018_Jan_12_1523,60.0098932546,FEMA4ImagesEEG,001,102766,
AFNE01.JPG,AFNE01.JPG,AFNE01.JPG,AFNE01.JPG,AFNE01.JPG,AFNE01.JPG,,,,,,,,,3,1,31,7,,,,,,,,,,,,,,,AFSA09.jpg,AFSA06.jpg,AFNE07.jpg,AFNE03.jpg,AFSA06.jpg,FS,4,num_6,16,num_6,1.58339561033,,,2018_Jan_12_1523,60.0098932546,FEMA4ImagesEEG,001,102766,
AFNE01.JPG,AFNE01.JPG,AFNE01.JPG,AFNE01.JPG,AFNE01.JPG,AFNE01.JPG,,,,,,,,,3,2,32,0,,,,,,,,,,,,,,,AFNE10.jpg,AFSA10.jpg,AFNE07.jpg,AFSA15.jpg,AFNE07.jpg,FN,3,num_2,32,num_8,1.03345959797,,,2018_Jan_12_1523,60.0098932546,FEMA4ImagesEEG,001,102766,
AFNE01.JPG,AFNE01.JPG,AFNE01.JPG,AFNE01.JPG,AFNE01.JPG,AFNE01.JPG,,,,,,,,,3,3,33,5,,,,,,,,,,,,,,,AFSA06.jpg,AFSA02.jpg,AFNE08.jpg,AFNE04.jpg,AFSA02.jpg,FS,4,num_6,32,num_2,2.1499805951,,,2018_Jan_12_1523,60.0098932546,FEMA4ImagesEEG,001,102766,
AFNE01.JPG,AFNE01.JPG,AFNE01.JPG,AFNE01.JPG,AFNE01.JPG,AFNE01.JPG,,,,,,,,,3,4,34,9,,,,,,,,,,,,,,,AFNE04.jpg,AFNE12.jpg,AFSA09.jpg,AFSA19.jpg,AFNE12.jpg,FN,3,num_6,32,num_8,1.1834401933,,,2018_Jan_12_1523,60.0098932546,FEMA4ImagesEEG,001,102766,
AFNE01.JPG,AFNE01.JPG,AFNE01.JPG,AFNE01.JPG,AFNE01.JPG,AFNE01.JPG,,,,,,,,,3,5,35,2,,,,,,,,,,,,,,,AFSA20.jpg,AFNE15.jpg,AFSA16.jpg,AFNE18.jpg,AFSA20.jpg,FS,4,num_8,32,num_2,1.15011787182,,,2018_Jan_12_1523,60.0098932546,FEMA4ImagesEEG,001,102766,
AFNE01.JPG,AFNE01.JPG,AFNE01.JPG,AFNE01.JPG,AFNE01.JPG,AFNE01.JPG,,,,,,,,,3,6,36,4,,,,,,,,,,,,,,,AFNE03.jpg,AFSA12.jpg,AFSA06.jpg,AFNE02.jpg,AFSA06.jpg,FS,4,num_2,32,num_4,2.24996455829,,,2018_Jan_12_1523,60.0098932546,FEMA4ImagesEEG,001,102766,
AFNE01.JPG,AFNE01.JPG,AFNE01.JPG,AFNE01.JPG,AFNE01.JPG,AFNE01.JPG,,,,,,,,,3,7,37,8,,,,,,,,,,,,,,,AFSA12.jpg,AFSA16.jpg,AFNE17.jpg,AFNE06.jpg,AFNE06.jpg,FN,3,num_4,32,num_6,1.33341405285,,,2018_Jan_12_1523,60.0098932546,FEMA4ImagesEEG,001,102766,
AFNE01.JPG,AFNE01.JPG,AFNE01.JPG,AFNE01.JPG,AFNE01.JPG,AFNE01.JPG,,,,,,,,,3,8,38,6,,,,,,,,,,,,,,,AFNE13.jpg,AFNE05.jpg,AFSA05.jpg,AFSA18.jpg,AFNE13.jpg,FN,3,num_8,32,num_2,1.33371939743,,,2018_Jan_12_1523,60.0098932546,FEMA4ImagesEEG,001,102766,
AFNE01.JPG,AFNE01.JPG,AFNE01.JPG,AFNE01.JPG,AFNE01.JPG,AFNE01.JPG,,,,,,,,,3,9,39,3,,,,,,,,,,,,,,,AFNE03.jpg,AFSA05.jpg,AFNE10.jpg,AFSA01.jpg,AFNE03.jpg,FN,3,num_8,16,num_8,1.05010279734,,,2018_Jan_12_1523,60.0098932546,FEMA4ImagesEEG,001,102766,
AFNE01.JPG,AFNE01.JPG,AFNE01.JPG,AFNE01.JPG,AFNE01.JPG,AFNE01.JPG,,,,,,,,,4,0,40,4,,,,,,,,,,,,,,,AFSA14.jpg,AFNE12.jpg,AFNE05.jpg,AFSA10.jpg,AFNE05.jpg,FN,3,num_2,32,num_4,1.05012909789,,,2018_Jan_12_1523,60.0098932546,FEMA4ImagesEEG,001,102766,
AFNE01.JPG,AFNE01.JPG,AFNE01.JPG,AFNE01.JPG,AFNE01.JPG,AFNE01.JPG,,,,,,,,,4,1,41,3,,,,,,,,,,,,,,,AFSA20.jpg,AFNE09.jpg,AFNE20.jpg,AFSA08.jpg,AFSA08.jpg,FS,4,num_4,16,num_4,1.90003977157,,,2018_Jan_12_1523,60.0098932546,FEMA4ImagesEEG,001,102766,
AFNE01.JPG,AFNE01.JPG,AFNE01.JPG,AFNE01.JPG,AFNE01.JPG,AFNE01.JPG,,,,,,,,,4,2,42,1,,,,,,,,,,,,,,,AFSA04.jpg,AFSA17.jpg,AFNE17.jpg,AFNE09.jpg,AFNE09.jpg,FN,3,num_4,32,num_8,1.8666779995,,,2018_Jan_12_1523,60.0098932546,FEMA4ImagesEEG,001,102766,
AFNE01.JPG,AFNE01.JPG,AFNE01.JPG,AFNE01.JPG,AFNE01.JPG,AFNE01.JPG,,,,,,,,,4,3,43,9,,,,,,,,,,,,,,,AFSA04.jpg,AFNE14.jpg,AFSA06.jpg,AFNE07.jpg,AFSA04.jpg,FS,4,num_8,32,num_6,1.46673701564,,,2018_Jan_12_1523,60.0098932546,FEMA4ImagesEEG,001,102766,
AFNE01.JPG,AFNE01.JPG,AFNE01.JPG,AFNE01.JPG,AFNE01.JPG,AFNE01.JPG,,,,,,,,,4,4,44,7,,,,,,,,,,,,,,,AFSA06.jpg,AFNE08.jpg,AFSA02.jpg,AFNE19.jpg,AFNE19.jpg,FN,3,num_4,16,num_4,1.61670189467,,,2018_Jan_12_1523,60.0098932546,FEMA4ImagesEEG,001,102766,
AFNE01.JPG,AFNE01.JPG,AFNE01.JPG,AFNE01.JPG,AFNE01.JPG,AFNE01.JPG,,,,,,,,,4,5,45,8,,,,,,,,,,,,,,,AFSA19.jpg,AFNE12.jpg,AFSA12.jpg,AFNE16.jpg,AFNE16.jpg,FN,3,num_4,32,num_8,1.10009173164,,,2018_Jan_12_1523,60.0098932546,FEMA4ImagesEEG,001,102766,
AFNE01.JPG,AFNE01.JPG,AFNE01.JPG,AFNE01.JPG,AFNE01.JPG,AFNE01.JPG,,,,,,,,,4,6,46,2,,,,,,,,,,,,,,,AFSA05.jpg,AFNE14.jpg,AFSA09.jpg,AFNE08.jpg,AFSA05.jpg,FS,4,num_8,32,num_6,1.10011193831,,,2018_Jan_12_1523,60.0098932546,FEMA4ImagesEEG,001,102766,
AFNE01.JPG,AFNE01.JPG,AFNE01.JPG,AFNE01.JPG,AFNE01.JPG,AFNE01.JPG,,,,,,,,,4,7,47,0,,,,,,,,,,,,,,,AFSA20.jpg,AFNE01.jpg,AFNE10.jpg,AFSA17.jpg,AFNE10.jpg,FN,3,num_2,16,num_2,1.08343762718,,,2018_Jan_12_1523,60.0098932546,FEMA4ImagesEEG,001,102766,
AFNE01.JPG,AFNE01.JPG,AFNE01.JPG,AFNE01.JPG,AFNE01.JPG,AFNE01.JPG,,,,,,,,,4,8,48,5,,,,,,,,,,,,,,,AFNE12.jpg,AFSA13.jpg,AFSA17.jpg,AFNE01.jpg,AFSA13.jpg,FS,4,num_6,16,num_6,1.15013102232,,,2018_Jan_12_1523,60.0098932546,FEMA4ImagesEEG,001,102766,
AFNE01.JPG,AFNE01.JPG,AFNE01.JPG,AFNE01.JPG,AFNE01.JPG,AFNE01.JPG,,,,,,,,,4,9,49,6,,,,,,,,,,,,,,,AFNE02.jpg,AFNE05.jpg,AFSA09.jpg,AFSA13.jpg,AFSA13.jpg,FS,4,num_4,16,num_4,2.65000625444,,,2018_Jan_12_1523,60.0098932546,FEMA4ImagesEEG,001,102766,
AFNE01.JPG,AFNE01.JPG,AFNE01.JPG,AFNE01.JPG,AFNE01.JPG,AFNE01.JPG,,,,,,,,,5,0,50,7,,,,,,,,,,,,,,,AFNE11.jpg,AFSA20.jpg,AFNE19.jpg,AFSA10.jpg,AFNE19.jpg,FN,3,num_2,16,num_2,1.41668104636,,,2018_Jan_12_1523,60.0098932546,FEMA4ImagesEEG,001,102766,
AFNE01.JPG,AFNE01.JPG,AFNE01.JPG,AFNE01.JPG,AFNE01.JPG,AFNE01.JPG,,,,,,,,,5,1,51,3,,,,,,,,,,,,,,,AFNE15.jpg,AFNE02.jpg,AFSA13.jpg,AFSA14.jpg,AFNE15.jpg,FN,3,num_8,16,num_8,0.616792343324,,,2018_Jan_12_1523,60.0098932546,FEMA4ImagesEEG,001,102766,
AFNE01.JPG,AFNE01.JPG,AFNE01.JPG,AFNE01.JPG,AFNE01.JPG,AFNE01.JPG,,,,,,,,,5,2,52,9,,,,,,,,,,,,,,,AFNE16.jpg,AFSA05.jpg,AFSA11.jpg,AFNE10.jpg,AFNE10.jpg,FN,3,num_4,16,num_4,1.15010760841,,,2018_Jan_12_1523,60.0098932546,FEMA4ImagesEEG,001,102766,
AFNE01.JPG,AFNE01.JPG,AFNE01.JPG,AFNE01.JPG,AFNE01.JPG,AFNE01.JPG,,,,,,,,,5,3,53,5,,,,,,,,,,,,,,,AFNE05.jpg,AFNE09.jpg,AFSA17.jpg,AFSA12.jpg,AFNE09.jpg,FN,3,num_6,32,num_8,1.38341132645,,,2018_Jan_12_1523,60.0098932546,FEMA4ImagesEEG,001,102766,
AFNE01.JPG,AFNE01.JPG,AFNE01.JPG,AFNE01.JPG,AFNE01.JPG,AFNE01.JPG,,,,,,,,,5,4,54,8,,,,,,,,,,,,,,,AFNE03.jpg,AFSA06.jpg,AFNE04.jpg,AFSA16.jpg,AFSA06.jpg,FS,4,num_6,16,num_6,0.933423354523,,,2018_Jan_12_1523,60.0098932546,FEMA4ImagesEEG,001,102766,
AFNE01.JPG,AFNE01.JPG,AFNE01.JPG,AFNE01.JPG,AFNE01.JPG,AFNE01.JPG,,,,,,,,,5,5,55,6,,,,,,,,,,,,,,,AFNE01.jpg,AFSA07.jpg,AFSA15.jpg,AFNE12.jpg,AFNE01.jpg,FN,3,num_8,16,num_8,2.69999999995,,,2018_Jan_12_1523,60.0098932546,FEMA4ImagesEEG,001,102766,
AFNE01.JPG,AFNE01.JPG,AFNE01.JPG,AFNE01.JPG,AFNE01.JPG,AFNE01.JPG,,,,,,,,,5,6,56,0,,,,,,,,,,,,,,,AFSA03.jpg,AFNE10.jpg,AFSA05.jpg,AFNE08.jpg,AFNE10.jpg,FN,3,num_6,32,num_4,0.76679859776,,,2018_Jan_12_1523,60.0098932546,FEMA4ImagesEEG,001,102766,
AFNE01.JPG,AFNE01.JPG,AFNE01.JPG,AFNE01.JPG,AFNE01.JPG,AFNE01.JPG,,,,,,,,,5,7,57,2,,,,,,,,,,,,,,,AFNE07.jpg,AFNE02.jpg,AFSA10.jpg,AFSA19.jpg,AFNE02.jpg,FN,3,num_6,16,num_6,0.933479804546,,,2018_Jan_12_1523,60.0098932546,FEMA4ImagesEEG,001,102766,
AFNE01.JPG,AFNE01.JPG,AFNE01.JPG,AFNE01.JPG,AFNE01.JPG,AFNE01.JPG,,,,,,,,,5,8,58,1,,,,,,,,,,,,,,,AFNE12.jpg,AFNE03.jpg,AFSA08.jpg,AFSA01.jpg,AFNE03.jpg,FN,3,num_6,16,num_6,0.866815276211,,,2018_Jan_12_1523,60.0098932546,FEMA4ImagesEEG,001,102766,
AFNE01.JPG,AFNE01.JPG,AFNE01.JPG,AFNE01.JPG,AFNE01.JPG,AFNE01.JPG,,,,,,,,,5,9,59,4,,,,,,,,,,,,,,,AFNE13.jpg,AFSA05.jpg,AFSA06.jpg,AFNE12.jpg,AFNE12.jpg,FN,3,num_4,16,num_4,0.850182020105,,,2018_Jan_12_1523,60.0098932546,FEMA4ImagesEEG,001,102766,
,,,,,,,,,,,,,,,,,,,,,,,,,,,,,,,,,,,,,,,,,,,space,23.6983315104,2018_Jan_12_1523,60.0098932546,FEMA4ImagesEEG,001,102766,
AFNE01.JPG,AFNE01.JPG,AFNE01.JPG,AFNE01.JPG,AFNE01.JPG,AFNE01.JPG,,,,,,,,,,,,,0,0,0,6,,,,,,,,,,,AMNE09.jpg,AMNE12.jpg,AMSA04.jpg,AMSA13.jpg,AMSA13.jpg,MS,2,num_4,16,num_4,0.777651156764,,,2018_Jan_12_1523,60.0098932546,FEMA4ImagesEEG,001,102766,
AFNE01.JPG,AFNE01.JPG,AFNE01.JPG,AFNE01.JPG,AFNE01.JPG,AFNE01.JPG,,,,,,,,,,,,,0,1,1,2,,,,,,,,,,,AMSA19.jpg,AMNE16.jpg,AMNE01.jpg,AMSA01.jpg,AMNE01.jpg,MN,1,num_2,32,num_4,0.966820087517,,,2018_Jan_12_1523,60.0098932546,FEMA4ImagesEEG,001,102766,
AFNE01.JPG,AFNE01.JPG,AFNE01.JPG,AFNE01.JPG,AFNE01.JPG,AFNE01.JPG,,,,,,,,,,,,,0,2,2,9,,,,,,,,,,,AMNE03.jpg,AMSA12.jpg,AMSA03.jpg,AMNE10.jpg,AMNE10.jpg,MN,1,num_4,32,num_6,1.91661304957,,,2018_Jan_12_1523,60.0098932546,FEMA4ImagesEEG,001,102766,
AFNE01.JPG,AFNE01.JPG,AFNE01.JPG,AFNE01.JPG,AFNE01.JPG,AFNE01.JPG,,,,,,,,,,,,,0,3,3,4,,,,,,,,,,,AMSA13.jpg,AMSA07.jpg,AMNE12.jpg,AMNE13.jpg,AMNE13.jpg,MN,1,num_4,32,num_2,1.06683419971,,,2018_Jan_12_1523,60.0098932546,FEMA4ImagesEEG,001,102766,
AFNE01.JPG,AFNE01.JPG,AFNE01.JPG,AFNE01.JPG,AFNE01.JPG,AFNE01.JPG,,,,,,,,,,,,,0,4,4,5,,,,,,,,,,,AMSA06.jpg,AMSA05.jpg,AMNE11.jpg,AMNE02.jpg,AMSA05.jpg,MS,2,num_6,16,num_6,0.733469861792,,,2018_Jan_12_1523,60.0098932546,FEMA4ImagesEEG,001,102766,
AFNE01.JPG,AFNE01.JPG,AFNE01.JPG,AFNE01.JPG,AFNE01.JPG,AFNE01.JPG,,,,,,,,,,,,,0,5,5,7,,,,,,,,,,,AMNE11.jpg,AMSA11.jpg,AMSA06.jpg,AMNE16.jpg,AMNE16.jpg,MN,1,num_4,16,num_4,0.616839171387,,,2018_Jan_12_1523,60.0098932546,FEMA4ImagesEEG,001,102766,
AFNE01.JPG,AFNE01.JPG,AFNE01.JPG,AFNE01.JPG,AFNE01.JPG,AFNE01.JPG,,,,,,,,,,,,,0,6,6,1,,,,,,,,,,,AMSA14.jpg,AMNE03.jpg,AMSA06.jpg,AMNE18.jpg,AMNE18.jpg,MN,1,num_4,32,num_6,1.35008194903,,,2018_Jan_12_1523,60.0098932546,FEMA4ImagesEEG,001,102766,
AFNE01.JPG,AFNE01.JPG,AFNE01.JPG,AFNE01.JPG,AFNE01.JPG,AFNE01.JPG,,,,,,,,,,,,,0,7,7,3,,,,,,,,,,,AMSA06.jpg,AMNE12.jpg,AMNE15.jpg,AMSA04.jpg,AMSA06.jpg,MS,2,num_8,16,num_8,0.966789296363,,,2018_Jan_12_1523,60.0098932546,FEMA4ImagesEEG,001,102766,
AFNE01.JPG,AFNE01.JPG,AFNE01.JPG,AFNE01.JPG,AFNE01.JPG,AFNE01.JPG,,,,,,,,,,,,,0,8,8,8,,,,,,,,,,,AMNE20.jpg,AMSA19.jpg,AMSA20.jpg,AMNE09.jpg,AMSA20.jpg,MS,2,num_2,32,num_8,1.13352374593,,,2018_Jan_12_1523,60.0098932546,FEMA4ImagesEEG,001,102766,
AFNE01.JPG,AFNE01.JPG,AFNE01.JPG,AFNE01.JPG,AFNE01.JPG,AFNE01.JPG,,,,,,,,,,,,,0,9,9,0,,,,,,,,,,,AMSA10.jpg,AMNE06.jpg,AMSA01.jpg,AMNE05.jpg,AMSA01.jpg,MS,2,num_2,16,num_2,0.983456550865,,,2018_Jan_12_1523,60.0098932546,FEMA4ImagesEEG,001,102766,
AFNE01.JPG,AFNE01.JPG,AFNE01.JPG,AFNE01.JPG,AFNE01.JPG,AFNE01.JPG,,,,,,,,,,,,,1,0,10,8,,,,,,,,,,,AMSA13.jpg,AMNE17.jpg,AMSA20.jpg,AMNE02.jpg,AMNE02.jpg,MN,1,num_4,16,num_4,1.03341661883,,,2018_Jan_12_1523,60.0098932546,FEMA4ImagesEEG,001,102766,
AFNE01.JPG,AFNE01.JPG,AFNE01.JPG,AFNE01.JPG,AFNE01.JPG,AFNE01.JPG,,,,,,,,,,,,,1,1,11,6,,,,,,,,,,,AMSA05.jpg,AMNE20.jpg,AMNE08.jpg,AMSA07.jpg,AMSA07.jpg,MS,2,num_4,32,num_8,0.833452221006,,,2018_Jan_12_1523,60.0098932546,FEMA4ImagesEEG,001,102766,
AFNE01.JPG,AFNE01.JPG,AFNE01.JPG,AFNE01.JPG,AFNE01.JPG,AFNE01.JPG,,,,,,,,,,,,,1,2,12,5,,,,,,,,,,,AMSA11.jpg,AMNE08.jpg,AMNE01.jpg,AMSA08.jpg,AMNE01.jpg,MN,1,num_2,16,num_2,1.21676860843,,,2018_Jan_12_1523,60.0098932546,FEMA4ImagesEEG,001,102766,
AFNE01.JPG,AFNE01.JPG,AFNE01.JPG,AFNE01.JPG,AFNE01.JPG,AFNE01.JPG,,,,,,,,,,,,,1,3,13,3,,,,,,,,,,,AMNE10.jpg,AMSA04.jpg,AMNE07.jpg,AMSA02.jpg,AMSA04.jpg,MS,2,num_6,16,num_6,0.800146257505,,,2018_Jan_12_1523,60.0098932546,FEMA4ImagesEEG,001,102766,
AFNE01.JPG,AFNE01.JPG,AFNE01.JPG,AFNE01.JPG,AFNE01.JPG,AFNE01.JPG,,,,,,,,,,,,,1,4,14,1,,,,,,,,,,,AMSA17.jpg,AMSA14.jpg,AMNE19.jpg,AMNE09.jpg,AMSA14.jpg,MS,2,num_6,16,num_6,1.56681399327,,,2018_Jan_12_1523,60.0098932546,FEMA4ImagesEEG,001,102766,
AFNE01.JPG,AFNE01.JPG,AFNE01.JPG,AFNE01.JPG,AFNE01.JPG,AFNE01.JPG,,,,,,,,,,,,,1,5,15,4,,,,,,,,,,,AMNE16.jpg,AMSA14.jpg,AMNE19.jpg,AMSA19.jpg,AMSA19.jpg,MS,2,num_4,16,num_4,0.566814634716,,,2018_Jan_12_1523,60.0098932546,FEMA4ImagesEEG,001,102766,
AFNE01.JPG,AFNE01.JPG,AFNE01.JPG,AFNE01.JPG,AFNE01.JPG,AFNE01.JPG,,,,,,,,,,,,,1,6,16,9,,,,,,,,,,,AMNE10.jpg,AMSA10.jpg,AMSA01.jpg,AMNE02.jpg,AMSA01.jpg,MS,2,num_2,16,num_2,0.966798918322,,,2018_Jan_12_1523,60.0098932546,FEMA4ImagesEEG,001,102766,
AFNE01.JPG,AFNE01.JPG,AFNE01.JPG,AFNE01.JPG,AFNE01.JPG,AFNE01.JPG,,,,,,,,,,,,,1,7,17,7,,,,,,,,,,,AMSA04.jpg,AMNE17.jpg,AMNE06.jpg,AMSA08.jpg,AMSA08.jpg,MS,2,num_4,32,num_2,1.18341389252,,,2018_Jan_12_1523,60.0098932546,FEMA4ImagesEEG,001,102766,
AFNE01.JPG,AFNE01.JPG,AFNE01.JPG,AFNE01.JPG,AFNE01.JPG,AFNE01.JPG,,,,,,,,,,,,,1,8,18,2,,,,,,,,,,,AMNE14.jpg,AMSA11.jpg,AMNE11.jpg,AMSA18.jpg,AMSA18.jpg,MS,2,num_4,16,num_4,0.766762033338,,,2018_Jan_12_1523,60.0098932546,FEMA4ImagesEEG,001,102766,
AFNE01.JPG,AFNE01.JPG,AFNE01.JPG,AFNE01.JPG,AFNE01.JPG,AFNE01.JPG,,,,,,,,,,,,,1,9,19,0,,,,,,,,,,,AMNE18.jpg,AMNE15.jpg,AMSA11.jpg,AMSA04.jpg,AMNE18.jpg,MN,1,num_8,16,num_8,0.866803729674,,,2018_Jan_12_1523,60.0098932546,FEMA4ImagesEEG,001,102766,
AFNE01.JPG,AFNE01.JPG,AFNE01.JPG,AFNE01.JPG,AFNE01.JPG,AFNE01.JPG,,,,,,,,,,,,,2,0,20,1,,,,,,,,,,,AMNE10.jpg,AMNE02.jpg,AMSA15.jpg,AMSA11.jpg,AMNE10.jpg,MN,1,num_8,16,num_8,0.700124767842,,,2018_Jan_12_1523,60.0098932546,FEMA4ImagesEEG,001,102766,
AFNE01.JPG,AFNE01.JPG,AFNE01.JPG,AFNE01.JPG,AFNE01.JPG,AFNE01.JPG,,,,,,,,,,,,,2,1,21,0,,,,,,,,,,,AMSA04.jpg,AMSA07.jpg,AMNE03.jpg,AMNE04.jpg,AMSA07.jpg,MS,2,num_6,16,num_6,0.800124447094,,,2018_Jan_12_1523,60.0098932546,FEMA4ImagesEEG,001,102766,
AFNE01.JPG,AFNE01.JPG,AFNE01.JPG,AFNE01.JPG,AFNE01.JPG,AFNE01.JPG,,,,,,,,,,,,,2,2,22,6,,,,,,,,,,,AMNE01.jpg,AMSA07.jpg,AMSA05.jpg,AMNE11.jpg,AMNE11.jpg,MN,1,num_4,32,num_8,1.30011322116,,,2018_Jan_12_1523,60.0098932546,FEMA4ImagesEEG,001,102766,
AFNE01.JPG,AFNE01.JPG,AFNE01.JPG,AFNE01.JPG,AFNE01.JPG,AFNE01.JPG,,,,,,,,,,,,,2,3,23,3,,,,,,,,,,,AMNE04.jpg,AMSA01.jpg,AMSA13.jpg,AMNE02.jpg,AMNE04.jpg,MN,1,num_8,32,num_6,1.05014224816,,,2018_Jan_12_1523,60.0098932546,FEMA4ImagesEEG,001,102766,
AFNE01.JPG,AFNE01.JPG,AFNE01.JPG,AFNE01.JPG,AFNE01.JPG,AFNE01.JPG,,,,,,,,,,,,,2,4,24,9,,,,,,,,,,,AMSA11.jpg,AMSA07.jpg,AMNE02.jpg,AMNE15.jpg,AMSA07.jpg,MS,2,num_6,16,num_6,1.58324806998,,,2018_Jan_12_1523,60.0098932546,FEMA4ImagesEEG,001,102766,
AFNE01.JPG,AFNE01.JPG,AFNE01.JPG,AFNE01.JPG,AFNE01.JPG,AFNE01.JPG,,,,,,,,,,,,,2,5,25,7,,,,,,,,,,,AMSA20.jpg,AMNE01.jpg,AMNE14.jpg,AMSA13.jpg,AMNE01.jpg,MN,1,num_6,32,num_2,1.05011755112,,,2018_Jan_12_1523,60.0098932546,FEMA4ImagesEEG,001,102766,
AFNE01.JPG,AFNE01.JPG,AFNE01.JPG,AFNE01.JPG,AFNE01.JPG,AFNE01.JPG,,,,,,,,,,,,,2,6,26,5,,,,,,,,,,,AMSA01.jpg,AMSA08.jpg,AMNE17.jpg,AMNE07.jpg,AMNE17.jpg,MN,1,num_2,16,num_2,0.900142729282,,,2018_Jan_12_1523,60.0098932546,FEMA4ImagesEEG,001,102766,
AFNE01.JPG,AFNE01.JPG,AFNE01.JPG,AFNE01.JPG,AFNE01.JPG,AFNE01.JPG,,,,,,,,,,,,,2,7,27,2,,,,,,,,,,,AMNE10.jpg,AMNE20.jpg,AMSA02.jpg,AMSA16.jpg,AMSA02.jpg,MS,2,num_2,16,num_2,0.916752250865,,,2018_Jan_12_1523,60.0098932546,FEMA4ImagesEEG,001,102766,
AFNE01.JPG,AFNE01.JPG,AFNE01.JPG,AFNE01.JPG,AFNE01.JPG,AFNE01.JPG,,,,,,,,,,,,,2,8,28,4,,,,,,,,,,,AMNE03.jpg,AMSA18.jpg,AMSA02.jpg,AMNE20.jpg,AMSA02.jpg,MS,2,num_2,16,num_2,1.13341565663,,,2018_Jan_12_1523,60.0098932546,FEMA4ImagesEEG,001,102766,
AFNE01.JPG,AFNE01.JPG,AFNE01.JPG,AFNE01.JPG,AFNE01.JPG,AFNE01.JPG,,,,,,,,,,,,,2,9,29,8,,,,,,,,,,,AMNE19.jpg,AMSA05.jpg,AMNE12.jpg,AMSA09.jpg,AMSA05.jpg,MS,2,num_6,16,num_6,1.16660326696,,,2018_Jan_12_1523,60.0098932546,FEMA4ImagesEEG,001,102766,
AFNE01.JPG,AFNE01.JPG,AFNE01.JPG,AFNE01.JPG,AFNE01.JPG,AFNE01.JPG,,,,,,,,,,,,,3,0,30,6,,,,,,,,,,,AMNE12.jpg,AMSA12.jpg,AMSA04.jpg,AMNE13.jpg,AMNE13.jpg,MN,1,num_4,16,num_4,1.53338229959,,,2018_Jan_12_1523,60.0098932546,FEMA4ImagesEEG,001,102766,
AFNE01.JPG,AFNE01.JPG,AFNE01.JPG,AFNE01.JPG,AFNE01.JPG,AFNE01.JPG,,,,,,,,,,,,,3,1,31,9,,,,,,,,,,,AMSA19.jpg,AMNE20.jpg,AMNE02.jpg,AMSA05.jpg,AMNE02.jpg,MN,1,num_2,16,num_2,1.05008259043,,,2018_Jan_12_1523,60.0098932546,FEMA4ImagesEEG,001,102766,
AFNE01.JPG,AFNE01.JPG,AFNE01.JPG,AFNE01.JPG,AFNE01.JPG,AFNE01.JPG,,,,,,,,,,,,,3,2,32,7,,,,,,,,,,,AMSA01.jpg,AMNE14.jpg,AMNE16.jpg,AMSA05.jpg,AMNE16.jpg,MN,1,num_2,16,num_2,0.850024536718,,,2018_Jan_12_1523,60.0098932546,FEMA4ImagesEEG,001,102766,
AFNE01.JPG,AFNE01.JPG,AFNE01.JPG,AFNE01.JPG,AFNE01.JPG,AFNE01.JPG,,,,,,,,,,,,,3,3,33,0,,,,,,,,,,,AMSA13.jpg,AMNE18.jpg,AMNE02.jpg,AMSA02.jpg,AMSA02.jpg,MS,2,num_4,16,num_4,1.08343538223,,,2018_Jan_12_1523,60.0098932546,FEMA4ImagesEEG,001,102766,
AFNE01.JPG,AFNE01.JPG,AFNE01.JPG,AFNE01.JPG,AFNE01.JPG,AFNE01.JPG,,,,,,,,,,,,,3,4,34,4,,,,,,,,,,,AMSA03.jpg,AMNE11.jpg,AMNE20.jpg,AMSA05.jpg,AMNE11.jpg,MN,1,num_6,32,num_2,1.06659524865,,,2018_Jan_12_1523,60.0098932546,FEMA4ImagesEEG,001,102766,
AFNE01.JPG,AFNE01.JPG,AFNE01.JPG,AFNE01.JPG,AFNE01.JPG,AFNE01.JPG,,,,,,,,,,,,,3,5,35,5,,,,,,,,,,,AMNE03.jpg,AMNE13.jpg,AMSA03.jpg,AMSA02.jpg,AMNE13.jpg,MN,1,num_6,16,num_6,1.15019549103,,,2018_Jan_12_1523,60.0098932546,FEMA4ImagesEEG,001,102766,
AFNE01.JPG,AFNE01.JPG,AFNE01.JPG,AFNE01.JPG,AFNE01.JPG,AFNE01.JPG,,,,,,,,,,,,,3,6,36,1,,,,,,,,,,,AMSA07.jpg,AMNE14.jpg,AMSA15.jpg,AMNE16.jpg,AMNE14.jpg,MN,1,num_6,16,num_6,0.950117871864,,,2018_Jan_12_1523,60.0098932546,FEMA4ImagesEEG,001,102766,
AFNE01.JPG,AFNE01.JPG,AFNE01.JPG,AFNE01.JPG,AFNE01.JPG,AFNE01.JPG,,,,,,,,,,,,,3,7,37,3,,,,,,,,,,,AMNE16.jpg,AMSA12.jpg,AMSA04.jpg,AMNE13.jpg,AMSA12.jpg,MS,2,num_6,16,num_6,1.08352294401,,,2018_Jan_12_1523,60.0098932546,FEMA4ImagesEEG,001,102766,
AFNE01.JPG,AFNE01.JPG,AFNE01.JPG,AFNE01.JPG,AFNE01.JPG,AFNE01.JPG,,,,,,,,,,,,,3,8,38,2,,,,,,,,,,,AMNE13.jpg,AMNE03.jpg,AMSA15.jpg,AMSA14.jpg,AMSA15.jpg,MS,2,num_2,16,num_2,0.800126050832,,,2018_Jan_12_1523,60.0098932546,FEMA4ImagesEEG,001,102766,
AFNE01.JPG,AFNE01.JPG,AFNE01.JPG,AFNE01.JPG,AFNE01.JPG,AFNE01.JPG,,,,,,,,,,,,,3,9,39,8,,,,,,,,,,,AMNE17.jpg,AMNE07.jpg,AMSA05.jpg,AMSA06.jpg,AMSA05.jpg,MS,2,num_2,16,num_2,1.43342431658,,,2018_Jan_12_1523,60.0098932546,FEMA4ImagesEEG,001,102766,
AFNE01.JPG,AFNE01.JPG,AFNE01.JPG,AFNE01.JPG,AFNE01.JPG,AFNE01.JPG,,,,,,,,,,,,,4,0,40,4,,,,,,,,,,,AMSA14.jpg,AMNE14.jpg,AMSA16.jpg,AMNE15.jpg,AMSA14.jpg,MS,2,num_8,16,num_8,0.683500813087,,,2018_Jan_12_1523,60.0098932546,FEMA4ImagesEEG,001,102766,
AFNE01.JPG,AFNE01.JPG,AFNE01.JPG,AFNE01.JPG,AFNE01.JPG,AFNE01.JPG,,,,,,,,,,,,,4,1,41,3,,,,,,,,,,,AMNE14.jpg,AMNE20.jpg,AMSA19.jpg,AMSA10.jpg,AMNE14.jpg,MN,1,num_8,16,num_8,3.61639911612,,,2018_Jan_12_1523,60.0098932546,FEMA4ImagesEEG,001,102766,
AFNE01.JPG,AFNE01.JPG,AFNE01.JPG,AFNE01.JPG,AFNE01.JPG,AFNE01.JPG,,,,,,,,,,,,,4,2,42,1,,,,,,,,,,,AMSA14.jpg,AMNE14.jpg,AMSA03.jpg,AMNE12.jpg,AMNE14.jpg,MN,1,num_6,16,num_6,0.800139842788,,,2018_Jan_12_1523,60.0098932546,FEMA4ImagesEEG,001,102766,
AFNE01.JPG,AFNE01.JPG,AFNE01.JPG,AFNE01.JPG,AFNE01.JPG,AFNE01.JPG,,,,,,,,,,,,,4,3,43,5,,,,,,,,,,,AMNE18.jpg,AMNE03.jpg,AMSA03.jpg,AMSA04.jpg,AMNE03.jpg,MN,1,num_6,16,num_6,1.11677758931,,,2018_Jan_12_1523,60.0098932546,FEMA4ImagesEEG,001,102766,
AFNE01.JPG,AFNE01.JPG,AFNE01.JPG,AFNE01.JPG,AFNE01.JPG,AFNE01.JPG,,,,,,,,,,,,,4,4,44,6,,,,,,,,,,,AMSA05.jpg,AMNE01.jpg,AMNE02.jpg,AMSA07.jpg,AMNE01.jpg,MN,1,num_6,16,num_6,1.41675289231,,,2018_Jan_12_1523,60.0098932546,FEMA4ImagesEEG,001,102766,
AFNE01.JPG,AFNE01.JPG,AFNE01.JPG,AFNE01.JPG,AFNE01.JPG,AFNE01.JPG,,,,,,,,,,,,,4,5,45,2,,,,,,,,,,,AMNE17.jpg,AMNE11.jpg,AMSA13.jpg,AMSA14.jpg,AMNE17.jpg,MN,1,num_8,16,num_8,1.38329297351,,,2018_Jan_12_1523,60.0098932546,FEMA4ImagesEEG,001,102766,
AFNE01.JPG,AFNE01.JPG,AFNE01.JPG,AFNE01.JPG,AFNE01.JPG,AFNE01.JPG,,,,,,,,,,,,,4,6,46,9,,,,,,,,,,,AMNE12.jpg,AMSA13.jpg,AMNE20.jpg,AMSA17.jpg,AMSA13.jpg,MS,2,num_6,16,num_6,0.783449173905,,,2018_Jan_12_1523,60.0098932546,FEMA4ImagesEEG,001,102766,
AFNE01.JPG,AFNE01.JPG,AFNE01.JPG,AFNE01.JPG,AFNE01.JPG,AFNE01.JPG,,,,,,,,,,,,,4,7,47,0,,,,,,,,,,,AMNE05.jpg,AMNE20.jpg,AMSA01.jpg,AMSA04.jpg,AMNE05.jpg,MN,1,num_8,16,num_8,0.650191642344,,,2018_Jan_12_1523,60.0098932546,FEMA4ImagesEEG,001,102766,
AFNE01.JPG,AFNE01.JPG,AFNE01.JPG,AFNE01.JPG,AFNE01.JPG,AFNE01.JPG,,,,,,,,,,,,,4,8,48,8,,,,,,,,,,,AMSA15.jpg,AMNE09.jpg,AMSA10.jpg,AMNE14.jpg,AMSA15.jpg,MS,2,num_8,32,num_6,1.00038071838,,,2018_Jan_12_1523,60.0098932546,FEMA4ImagesEEG,001,102766,
AFNE01.JPG,AFNE01.JPG,AFNE01.JPG,AFNE01.JPG,AFNE01.JPG,AFNE01.JPG,,,,,,,,,,,,,4,9,49,7,,,,,,,,,,,AMNE19.jpg,AMSA08.jpg,AMNE17.jpg,AMSA09.jpg,AMSA08.jpg,MS,2,num_6,16,num_6,1.11673589307,,,2018_Jan_12_1523,60.0098932546,FEMA4ImagesEEG,001,102766,
AFNE01.JPG,AFNE01.JPG,AFNE01.JPG,AFNE01.JPG,AFNE01.JPG,AFNE01.JPG,,,,,,,,,,,,,5,0,50,5,,,,,,,,,,,AMNE20.jpg,AMSA12.jpg,AMNE16.jpg,AMSA11.jpg,AMNE20.jpg,MN,1,num_8,16,num_8,0.90007858118,,,2018_Jan_12_1523,60.0098932546,FEMA4ImagesEEG,001,102766,
AFNE01.JPG,AFNE01.JPG,AFNE01.JPG,AFNE01.JPG,AFNE01.JPG,AFNE01.JPG,,,,,,,,,,,,,5,1,51,1,,,,,,,,,,,AMSA19.jpg,AMSA18.jpg,AMNE15.jpg,AMNE09.jpg,AMNE15.jpg,MN,1,num_2,16,num_2,1.38343923097,,,2018_Jan_12_1523,60.0098932546,FEMA4ImagesEEG,001,102766,
AFNE01.JPG,AFNE01.JPG,AFNE01.JPG,AFNE01.JPG,AFNE01.JPG,AFNE01.JPG,,,,,,,,,,,,,5,2,52,2,,,,,,,,,,,AMNE16.jpg,AMNE15.jpg,AMSA10.jpg,AMSA14.jpg,AMNE16.jpg,MN,1,num_8,16,num_8,0.966680565383,,,2018_Jan_12_1523,60.0098932546,FEMA4ImagesEEG,001,102766,
AFNE01.JPG,AFNE01.JPG,AFNE01.JPG,AFNE01.JPG,AFNE01.JPG,AFNE01.JPG,,,,,,,,,,,,,5,3,53,3,,,,,,,,,,,AMSA10.jpg,AMSA16.jpg,AMNE05.jpg,AMNE17.jpg,AMNE17.jpg,MN,1,num_4,16,num_4,0.816745836055,,,2018_Jan_12_1523,60.0098932546,FEMA4ImagesEEG,001,102766,
AFNE01.JPG,AFNE01.JPG,AFNE01.JPG,AFNE01.JPG,AFNE01.JPG,AFNE01.JPG,,,,,,,,,,,,,5,4,54,6,,,,,,,,,,,AMNE05.jpg,AMSA13.jpg,AMSA05.jpg,AMNE17.jpg,AMSA13.jpg,MS,2,num_6,32,num_2,1.56674920372,,,2018_Jan_12_1523,60.0098932546,FEMA4ImagesEEG,001,102766,
AFNE01.JPG,AFNE01.JPG,AFNE01.JPG,AFNE01.JPG,AFNE01.JPG,AFNE01.JPG,,,,,,,,,,,,,5,5,55,0,,,,,,,,,,,AMSA08.jpg,AMNE01.jpg,AMSA16.jpg,AMNE02.jpg,AMNE01.jpg,MN,1,num_6,16,num_6,1.45009349566,,,2018_Jan_12_1523,60.0098932546,FEMA4ImagesEEG,001,102766,
AFNE01.JPG,AFNE01.JPG,AFNE01.JPG,AFNE01.JPG,AFNE01.JPG,AFNE01.JPG,,,,,,,,,,,,,5,6,56,7,,,,,,,,,,,AMNE20.jpg,AMNE02.jpg,AMSA05.jpg,AMSA08.jpg,AMSA05.jpg,MS,2,num_2,16,num_2,0.833436504705,,,2018_Jan_12_1523,60.0098932546,FEMA4ImagesEEG,001,102766,
AFNE01.JPG,AFNE01.JPG,AFNE01.JPG,AFNE01.JPG,AFNE01.JPG,AFNE01.JPG,,,,,,,,,,,,,5,7,57,9,,,,,,,,,,,AMSA12.jpg,AMNE17.jpg,AMNE15.jpg,AMSA02.jpg,AMNE17.jpg,MN,1,num_6,16,num_6,0.716782400385,,,2018_Jan_12_1523,60.0098932546,FEMA4ImagesEEG,001,102766,
AFNE01.JPG,AFNE01.JPG,AFNE01.JPG,AFNE01.JPG,AFNE01.JPG,AFNE01.JPG,,,,,,,,,,,,,5,8,58,4,,,,,,,,,,,AMNE03.jpg,AMSA05.jpg,AMNE08.jpg,AMSA16.jpg,AMSA05.jpg,MS,2,num_6,32,num_4,1.01676796703,,,2018_Jan_12_1523,60.0098932546,FEMA4ImagesEEG,001,102766,
AFNE01.JPG,AFNE01.JPG,AFNE01.JPG,AFNE01.JPG,AFNE01.JPG,AFNE01.JPG,,,,,,,,,,,,,5,9,59,8,,,,,,,,,,,AMNE08.jpg,AMNE07.jpg,AMSA14.jpg,AMSA09.jpg,AMNE07.jpg,MN,1,num_6,16,num_6,1.90009141085,,,2018_Jan_12_1523,60.0098932546,FEMA4ImagesEEG,001,102766,
,,,,,,,,,,,,,,,,,,,,,,,,,,,,,,,,,,,,,,,,,,,space,10.3493298136,2018_Jan_12_1523,60.0098932546,FEMA4ImagesEEG,001,102766,
AFNE01.JPG,AFNE01.JPG,AFNE01.JPG,AFNE01.JPG,AFNE01.JPG,AFNE01.JPG,,,,,,,,,,,,,,,,,0,0,0,7,,,,,,,AFSA03.jpg,AFSA05.jpg,AFNE08.jpg,AFNE13.jpg,AFNE13.jpg,FN,3,num_4,16,num_4,0.966777749592,,,2018_Jan_12_1523,60.0098932546,FEMA4ImagesEEG,001,102766,
AFNE01.JPG,AFNE01.JPG,AFNE01.JPG,AFNE01.JPG,AFNE01.JPG,AFNE01.JPG,,,,,,,,,,,,,,,,,0,1,1,2,,,,,,,AFSA05.jpg,AFSA11.jpg,AFNE06.jpg,AFNE01.jpg,AFSA05.jpg,FS,4,num_8,16,num_8,1.016765401,,,2018_Jan_12_1523,60.0098932546,FEMA4ImagesEEG,001,102766,
AFNE01.JPG,AFNE01.JPG,AFNE01.JPG,AFNE01.JPG,AFNE01.JPG,AFNE01.JPG,,,,,,,,,,,,,,,,,0,2,2,9,,,,,,,AFSA20.jpg,AFSA16.jpg,AFNE18.jpg,AFNE14.jpg,AFNE14.jpg,FN,3,num_4,16,num_4,1.68342800508,,,2018_Jan_12_1523,60.0098932546,FEMA4ImagesEEG,001,102766,
AFNE01.JPG,AFNE01.JPG,AFNE01.JPG,AFNE01.JPG,AFNE01.JPG,AFNE01.JPG,,,,,,,,,,,,,,,,,0,3,3,6,,,,,,,AFNE08.jpg,AFSA05.jpg,AFSA01.jpg,AFNE05.jpg,AFSA05.jpg,FS,4,num_6,16,num_6,1.01677855151,,,2018_Jan_12_1523,60.0098932546,FEMA4ImagesEEG,001,102766,
AFNE01.JPG,AFNE01.JPG,AFNE01.JPG,AFNE01.JPG,AFNE01.JPG,AFNE01.JPG,,,,,,,,,,,,,,,,,0,4,4,8,,,,,,,AFNE17.jpg,AFSA09.jpg,AFSA20.jpg,AFNE14.jpg,AFNE14.jpg,FN,3,num_4,16,num_4,1.25008772244,,,2018_Jan_12_1523,60.0098932546,FEMA4ImagesEEG,001,102766,
AFNE01.JPG,AFNE01.JPG,AFNE01.JPG,AFNE01.JPG,AFNE01.JPG,AFNE01.JPG,,,,,,,,,,,,,,,,,0,5,5,3,,,,,,,AFSA12.jpg,AFNE17.jpg,AFNE06.jpg,AFSA05.jpg,AFSA05.jpg,FS,4,num_4,32,num_2,1.53327870043,,,2018_Jan_12_1523,60.0098932546,FEMA4ImagesEEG,001,102766,
AFNE01.JPG,AFNE01.JPG,AFNE01.JPG,AFNE01.JPG,AFNE01.JPG,AFNE01.JPG,,,,,,,,,,,,,,,,,0,6,6,5,,,,,,,AFSA11.jpg,AFNE20.jpg,AFNE19.jpg,AFSA05.jpg,AFSA05.jpg,FS,4,num_4,16,num_4,0.883307086071,,,2018_Jan_12_1523,60.0098932546,FEMA4ImagesEEG,001,102766,
AFNE01.JPG,AFNE01.JPG,AFNE01.JPG,AFNE01.JPG,AFNE01.JPG,AFNE01.JPG,,,,,,,,,,,,,,,,,0,7,7,0,,,,,,,AFNE01.jpg,AFSA06.jpg,AFNE10.jpg,AFSA17.jpg,AFNE10.jpg,FN,3,num_2,16,num_2,0.750132305082,,,2018_Jan_12_1523,60.0098932546,FEMA4ImagesEEG,001,102766,
AFNE01.JPG,AFNE01.JPG,AFNE01.JPG,AFNE01.JPG,AFNE01.JPG,AFNE01.JPG,,,,,,,,,,,,,,,,,0,8,8,1,,,,,,,AFSA13.jpg,AFNE04.jpg,AFNE18.jpg,AFSA01.jpg,AFSA13.jpg,FS,4,num_8,16,num_8,1.06690155528,,,2018_Jan_12_1523,60.0098932546,FEMA4ImagesEEG,001,102766,
AFNE01.JPG,AFNE01.JPG,AFNE01.JPG,AFNE01.JPG,AFNE01.JPG,AFNE01.JPG,,,,,,,,,,,,,,,,,0,9,9,4,,,,,,,AFSA02.jpg,AFSA11.jpg,AFNE20.jpg,AFNE07.jpg,AFSA11.jpg,FS,4,num_6,16,num_6,0.716797796078,,,2018_Jan_12_1523,60.0098932546,FEMA4ImagesEEG,001,102766,
AFNE01.JPG,AFNE01.JPG,AFNE01.JPG,AFNE01.JPG,AFNE01.JPG,AFNE01.JPG,,,,,,,,,,,,,,,,,1,0,10,7,,,,,,,AFNE18.jpg,AFSA15.jpg,AFNE10.jpg,AFSA05.jpg,AFNE10.jpg,FN,3,num_2,32,num_8,1.30005837465,,,2018_Jan_12_1523,60.0098932546,FEMA4ImagesEEG,001,102766,
AFNE01.JPG,AFNE01.JPG,AFNE01.JPG,AFNE01.JPG,AFNE01.JPG,AFNE01.JPG,,,,,,,,,,,,,,,,,1,1,11,8,,,,,,,AFNE15.jpg,AFSA12.jpg,AFNE04.jpg,AFSA09.jpg,AFSA09.jpg,FS,4,num_4,16,num_4,1.08344307984,,,2018_Jan_12_1523,60.0098932546,FEMA4ImagesEEG,001,102766,
AFNE01.JPG,AFNE01.JPG,AFNE01.JPG,AFNE01.JPG,AFNE01.JPG,AFNE01.JPG,,,,,,,,,,,,,,,,,1,2,12,2,,,,,,,AFSA19.jpg,AFNE12.jpg,AFNE09.jpg,AFSA15.jpg,AFNE09.jpg,FN,3,num_2,32,num_6,1.05007777945,,,2018_Jan_12_1523,60.0098932546,FEMA4ImagesEEG,001,102766,
AFNE01.JPG,AFNE01.JPG,AFNE01.JPG,AFNE01.JPG,AFNE01.JPG,AFNE01.JPG,,,,,,,,,,,,,,,,,1,3,13,0,,,,,,,AFNE01.jpg,AFNE15.jpg,AFSA01.jpg,AFSA12.jpg,AFNE15.jpg,FN,3,num_6,16,num_6,0.666861462872,,,2018_Jan_12_1523,60.0098932546,FEMA4ImagesEEG,001,102766,
AFNE01.JPG,AFNE01.JPG,AFNE01.JPG,AFNE01.JPG,AFNE01.JPG,AFNE01.JPG,,,,,,,,,,,,,,,,,1,4,14,5,,,,,,,AFSA08.jpg,AFNE20.jpg,AFNE09.jpg,AFSA11.jpg,AFNE09.jpg,FN,3,num_2,32,num_8,1.11677887221,,,2018_Jan_12_1523,60.0098932546,FEMA4ImagesEEG,001,102766,
AFNE01.JPG,AFNE01.JPG,AFNE01.JPG,AFNE01.JPG,AFNE01.JPG,AFNE01.JPG,,,,,,,,,,,,,,,,,1,5,15,4,,,,,,,AFNE20.jpg,AFSA07.jpg,AFNE04.jpg,AFSA09.jpg,AFSA07.jpg,FS,4,num_6,16,num_6,1.19980082032,,,2018_Jan_12_1523,60.0098932546,FEMA4ImagesEEG,001,102766,
AFNE01.JPG,AFNE01.JPG,AFNE01.JPG,AFNE01.JPG,AFNE01.JPG,AFNE01.JPG,,,,,,,,,,,,,,,,,1,6,16,1,,,,,,,AFNE03.jpg,AFSA20.jpg,AFSA11.jpg,AFNE08.jpg,AFSA11.jpg,FS,4,num_2,16,num_2,0.700115145883,,,2018_Jan_12_1523,60.0098932546,FEMA4ImagesEEG,001,102766,
AFNE01.JPG,AFNE01.JPG,AFNE01.JPG,AFNE01.JPG,AFNE01.JPG,AFNE01.JPG,,,,,,,,,,,,,,,,,1,7,17,6,,,,,,,AFNE09.jpg,AFSA03.jpg,AFNE05.jpg,AFSA10.jpg,AFSA03.jpg,FS,4,num_6,16,num_6,0.800134710968,,,2018_Jan_12_1523,60.0098932546,FEMA4ImagesEEG,001,102766,
AFNE01.JPG,AFNE01.JPG,AFNE01.JPG,AFNE01.JPG,AFNE01.JPG,AFNE01.JPG,,,,,,,,,,,,,,,,,1,8,18,9,,,,,,,AFNE01.jpg,AFSA06.jpg,AFNE17.jpg,AFSA05.jpg,AFNE17.jpg,FN,3,num_2,16,num_2,0.750176888192,,,2018_Jan_12_1523,60.0098932546,FEMA4ImagesEEG,001,102766,
AFNE01.JPG,AFNE01.JPG,AFNE01.JPG,AFNE01.JPG,AFNE01.JPG,AFNE01.JPG,,,,,,,,,,,,,,,,,1,9,19,3,,,,,,,AFSA12.jpg,AFSA17.jpg,AFNE14.jpg,AFNE10.jpg,AFNE14.jpg,FN,3,num_2,16,num_2,1.00012925826,,,2018_Jan_12_1523,60.0098932546,FEMA4ImagesEEG,001,102766,
AFNE01.JPG,AFNE01.JPG,AFNE01.JPG,AFNE01.JPG,AFNE01.JPG,AFNE01.JPG,,,,,,,,,,,,,,,,,2,0,20,8,,,,,,,AFNE19.jpg,AFNE04.jpg,AFSA17.jpg,AFSA04.jpg,AFSA04.jpg,FS,4,num_4,16,num_4,0.883481889497,,,2018_Jan_12_1523,60.0098932546,FEMA4ImagesEEG,001,102766,
AFNE01.JPG,AFNE01.JPG,AFNE01.JPG,AFNE01.JPG,AFNE01.JPG,AFNE01.JPG,,,,,,,,,,,,,,,,,2,1,21,1,,,,,,,AFSA04.jpg,AFNE08.jpg,AFNE13.jpg,AFSA02.jpg,AFSA02.jpg,FS,4,num_4,32,num_2,0.833516368875,,,2018_Jan_12_1523,60.0098932546,FEMA4ImagesEEG,001,102766,
AFNE01.JPG,AFNE01.JPG,AFNE01.JPG,AFNE01.JPG,AFNE01.JPG,AFNE01.JPG,,,,,,,,,,,,,,,,,2,2,22,2,,,,,,,AFNE20.jpg,AFSA16.jpg,AFSA10.jpg,AFNE05.jpg,AFSA10.jpg,FS,4,num_2,32,num_4,0.950177850435,,,2018_Jan_12_1523,60.0098932546,FEMA4ImagesEEG,001,102766,
AFNE01.JPG,AFNE01.JPG,AFNE01.JPG,AFNE01.JPG,AFNE01.JPG,AFNE01.JPG,,,,,,,,,,,,,,,,,2,3,23,9,,,,,,,AFNE05.jpg,AFNE08.jpg,AFSA06.jpg,AFSA01.jpg,AFSA01.jpg,FS,4,num_4,16,num_4,1.05011338182,,,2018_Jan_12_1523,60.0098932546,FEMA4ImagesEEG,001,102766,
AFNE01.JPG,AFNE01.JPG,AFNE01.JPG,AFNE01.JPG,AFNE01.JPG,AFNE01.JPG,,,,,,,,,,,,,,,,,2,4,24,3,,,,,,,AFSA16.jpg,AFSA03.jpg,AFNE09.jpg,AFNE17.jpg,AFNE09.jpg,FN,3,num_2,16,num_2,0.983504662057,,,2018_Jan_12_1523,60.0098932546,FEMA4ImagesEEG,001,102766,
AFNE01.JPG,AFNE01.JPG,AFNE01.JPG,AFNE01.JPG,AFNE01.JPG,AFNE01.JPG,,,,,,,,,,,,,,,,,2,5,25,7,,,,,,,AFNE20.jpg,AFSA17.jpg,AFNE18.jpg,AFSA04.jpg,AFSA04.jpg,FS,4,num_4,16,num_4,0.833470823942,,,2018_Jan_12_1523,60.0098932546,FEMA4ImagesEEG,001,102766,
AFNE01.JPG,AFNE01.JPG,AFNE01.JPG,AFNE01.JPG,AFNE01.JPG,AFNE01.JPG,,,,,,,,,,,,,,,,,2,6,26,5,,,,,,,AFSA14.jpg,AFNE03.jpg,AFSA08.jpg,AFNE07.jpg,AFNE03.jpg,FN,3,num_6,16,num_6,0.949942427222,,,2018_Jan_12_1523,60.0098932546,FEMA4ImagesEEG,001,102766,
AFNE01.JPG,AFNE01.JPG,AFNE01.JPG,AFNE01.JPG,AFNE01.JPG,AFNE01.JPG,,,,,,,,,,,,,,,,,2,7,27,4,,,,,,,AFNE10.jpg,AFSA16.jpg,AFSA02.jpg,AFNE03.jpg,AFNE03.jpg,FN,3,num_4,16,num_4,1.08348445524,,,2018_Jan_12_1523,60.0098932546,FEMA4ImagesEEG,001,102766,
AFNE01.JPG,AFNE01.JPG,AFNE01.JPG,AFNE01.JPG,AFNE01.JPG,AFNE01.JPG,,,,,,,,,,,,,,,,,2,8,28,0,,,,,,,AFNE16.jpg,AFSA20.jpg,AFNE02.jpg,AFSA08.jpg,AFSA20.jpg,FS,4,num_6,16,num_6,1.38341838308,,,2018_Jan_12_1523,60.0098932546,FEMA4ImagesEEG,001,102766,
AFNE01.JPG,AFNE01.JPG,AFNE01.JPG,AFNE01.JPG,AFNE01.JPG,AFNE01.JPG,,,,,,,,,,,,,,,,,2,9,29,6,,,,,,,AFSA03.jpg,AFNE05.jpg,AFNE02.jpg,AFSA11.jpg,AFSA03.jpg,FS,4,num_8,32,num_6,0.800113221165,,,2018_Jan_12_1523,60.0098932546,FEMA4ImagesEEG,001,102766,
AFNE01.JPG,AFNE01.JPG,AFNE01.JPG,AFNE01.JPG,AFNE01.JPG,AFNE01.JPG,,,,,,,,,,,,,,,,,3,0,30,4,,,,,,,AFNE13.jpg,AFSA13.jpg,AFNE02.jpg,AFSA03.jpg,AFSA03.jpg,FS,4,num_4,32,num_6,0.983537377324,,,2018_Jan_12_1523,60.0098932546,FEMA4ImagesEEG,001,102766,
AFNE01.JPG,AFNE01.JPG,AFNE01.JPG,AFNE01.JPG,AFNE01.JPG,AFNE01.JPG,,,,,,,,,,,,,,,,,3,1,31,9,,,,,,,AFSA06.jpg,AFNE20.jpg,AFNE16.jpg,AFSA09.jpg,AFSA06.jpg,FS,4,num_8,32,num_4,0.716653462965,,,2018_Jan_12_1523,60.0098932546,FEMA4ImagesEEG,001,102766,
AFNE01.JPG,AFNE01.JPG,AFNE01.JPG,AFNE01.JPG,AFNE01.JPG,AFNE01.JPG,,,,,,,,,,,,,,,,,3,2,32,7,,,,,,,AFSA13.jpg,AFNE05.jpg,AFNE13.jpg,AFSA16.jpg,AFNE13.jpg,FN,3,num_2,16,num_2,1.10011193831,,,2018_Jan_12_1523,60.0098932546,FEMA4ImagesEEG,001,102766,
AFNE01.JPG,AFNE01.JPG,AFNE01.JPG,AFNE01.JPG,AFNE01.JPG,AFNE01.JPG,,,,,,,,,,,,,,,,,3,3,33,3,,,,,,,AFNE12.jpg,AFSA03.jpg,AFNE15.jpg,AFSA15.jpg,AFSA15.jpg,FS,4,num_4,16,num_4,0.933451579418,,,2018_Jan_12_1523,60.0098932546,FEMA4ImagesEEG,001,102766,
AFNE01.JPG,AFNE01.JPG,AFNE01.JPG,AFNE01.JPG,AFNE01.JPG,AFNE01.JPG,,,,,,,,,,,,,,,,,3,4,34,1,,,,,,,AFSA07.jpg,AFSA03.jpg,AFNE19.jpg,AFNE14.jpg,AFNE19.jpg,FN,3,num_2,16,num_2,1.00019116094,,,2018_Jan_12_1523,60.0098932546,FEMA4ImagesEEG,001,102766,
AFNE01.JPG,AFNE01.JPG,AFNE01.JPG,AFNE01.JPG,AFNE01.JPG,AFNE01.JPG,,,,,,,,,,,,,,,,,3,5,35,0,,,,,,,AFNE01.jpg,AFSA02.jpg,AFNE16.jpg,AFSA11.jpg,AFSA02.jpg,FS,4,num_6,16,num_6,0.966776145855,,,2018_Jan_12_1523,60.0098932546,FEMA4ImagesEEG,001,102766,
AFNE01.JPG,AFNE01.JPG,AFNE01.JPG,AFNE01.JPG,AFNE01.JPG,AFNE01.JPG,,,,,,,,,,,,,,,,,3,6,36,8,,,,,,,AFNE01.jpg,AFSA02.jpg,AFSA20.jpg,AFNE07.jpg,AFNE07.jpg,FN,3,num_4,16,num_4,0.983512038831,,,2018_Jan_12_1523,60.0098932546,FEMA4ImagesEEG,001,102766,
AFNE01.JPG,AFNE01.JPG,AFNE01.JPG,AFNE01.JPG,AFNE01.JPG,AFNE01.JPG,,,,,,,,,,,,,,,,,3,7,37,6,,,,,,,AFNE03.jpg,AFSA11.jpg,AFNE06.jpg,AFSA10.jpg,AFNE06.jpg,FN,3,num_2,16,num_2,1.45008130767,,,2018_Jan_12_1523,60.0098932546,FEMA4ImagesEEG,001,102766,
AFNE01.JPG,AFNE01.JPG,AFNE01.JPG,AFNE01.JPG,AFNE01.JPG,AFNE01.JPG,,,,,,,,,,,,,,,,,3,8,38,5,,,,,,,AFNE03.jpg,AFSA17.jpg,AFSA04.jpg,AFNE09.jpg,AFNE09.jpg,FN,3,num_4,32,num_6,1.91658386239,,,2018_Jan_12_1523,60.0098932546,FEMA4ImagesEEG,001,102766,
AFNE01.JPG,AFNE01.JPG,AFNE01.JPG,AFNE01.JPG,AFNE01.JPG,AFNE01.JPG,,,,,,,,,,,,,,,,,3,9,39,2,,,,,,,AFSA09.jpg,AFNE11.jpg,AFNE04.jpg,AFSA11.jpg,AFNE11.jpg,FN,3,num_6,16,num_6,0.950142889516,,,2018_Jan_12_1523,60.0098932546,FEMA4ImagesEEG,001,102766,
AFNE01.JPG,AFNE01.JPG,AFNE01.JPG,AFNE01.JPG,AFNE01.JPG,AFNE01.JPG,,,,,,,,,,,,,,,,,4,0,40,3,,,,,,,AFSA14.jpg,AFNE14.jpg,AFNE10.jpg,AFSA11.jpg,AFSA11.jpg,FS,4,num_4,16,num_4,0.633434901014,,,2018_Jan_12_1523,60.0098932546,FEMA4ImagesEEG,001,102766,
AFNE01.JPG,AFNE01.JPG,AFNE01.JPG,AFNE01.JPG,AFNE01.JPG,AFNE01.JPG,,,,,,,,,,,,,,,,,4,1,41,1,,,,,,,AFSA19.jpg,AFNE18.jpg,AFNE11.jpg,AFSA06.jpg,AFNE18.jpg,FN,3,num_6,32,num_2,0.850101835094,,,2018_Jan_12_1523,60.0098932546,FEMA4ImagesEEG,001,102766,
AFNE01.JPG,AFNE01.JPG,AFNE01.JPG,AFNE01.JPG,AFNE01.JPG,AFNE01.JPG,,,,,,,,,,,,,,,,,4,2,42,2,,,,,,,AFNE19.jpg,AFNE18.jpg,AFSA17.jpg,AFSA19.jpg,AFSA17.jpg,FS,4,num_2,32,num_8,1.28341581696,,,2018_Jan_12_1523,60.0098932546,FEMA4ImagesEEG,001,102766,
AFNE01.JPG,AFNE01.JPG,AFNE01.JPG,AFNE01.JPG,AFNE01.JPG,AFNE01.JPG,,,,,,,,,,,,,,,,,4,3,43,7,,,,,,,AFNE09.jpg,AFSA13.jpg,AFNE07.jpg,AFSA06.jpg,AFNE07.jpg,FN,3,num_2,16,num_2,0.666848312365,,,2018_Jan_12_1523,60.0098932546,FEMA4ImagesEEG,001,102766,
AFNE01.JPG,AFNE01.JPG,AFNE01.JPG,AFNE01.JPG,AFNE01.JPG,AFNE01.JPG,,,,,,,,,,,,,,,,,4,4,44,5,,,,,,,AFNE17.jpg,AFSA04.jpg,AFNE18.jpg,AFSA14.jpg,AFSA04.jpg,FS,4,num_6,16,num_6,0.950094457949,,,2018_Jan_12_1523,60.0098932546,FEMA4ImagesEEG,001,102766,
AFNE01.JPG,AFNE01.JPG,AFNE01.JPG,AFNE01.JPG,AFNE01.JPG,AFNE01.JPG,,,,,,,,,,,,,,,,,4,5,45,8,,,,,,,AFSA11.jpg,AFNE10.jpg,AFNE09.jpg,AFSA03.jpg,AFSA11.jpg,FS,4,num_8,16,num_8,0.950114985462,,,2018_Jan_12_1523,60.0098932546,FEMA4ImagesEEG,001,102766,
AFNE01.JPG,AFNE01.JPG,AFNE01.JPG,AFNE01.JPG,AFNE01.JPG,AFNE01.JPG,,,,,,,,,,,,,,,,,4,6,46,9,,,,,,,AFSA04.jpg,AFNE07.jpg,AFNE06.jpg,AFSA17.jpg,AFNE06.jpg,FN,3,num_2,32,num_4,0.966786409495,,,2018_Jan_12_1523,60.0098932546,FEMA4ImagesEEG,001,102766,
AFNE01.JPG,AFNE01.JPG,AFNE01.JPG,AFNE01.JPG,AFNE01.JPG,AFNE01.JPG,,,,,,,,,,,,,,,,,4,7,47,0,,,,,,,AFSA10.jpg,AFNE10.jpg,AFNE07.jpg,AFSA17.jpg,AFSA10.jpg,FS,4,num_8,16,num_8,1.63337139459,,,2018_Jan_12_1523,60.0098932546,FEMA4ImagesEEG,001,102766,
AFNE01.JPG,AFNE01.JPG,AFNE01.JPG,AFNE01.JPG,AFNE01.JPG,AFNE01.JPG,,,,,,,,,,,,,,,,,4,8,48,4,,,,,,,AFSA18.jpg,AFNE20.jpg,AFNE04.jpg,AFSA05.jpg,AFSA18.jpg,FS,4,num_8,32,num_4,1.49978799094,,,2018_Jan_12_1523,60.0098932546,FEMA4ImagesEEG,001,102766,
AFNE01.JPG,AFNE01.JPG,AFNE01.JPG,AFNE01.JPG,AFNE01.JPG,AFNE01.JPG,,,,,,,,,,,,,,,,,4,9,49,6,,,,,,,AFNE08.jpg,AFNE16.jpg,AFSA10.jpg,AFSA07.jpg,AFSA10.jpg,FS,4,num_2,16,num_2,1.11679843743,,,2018_Jan_12_1523,60.0098932546,FEMA4ImagesEEG,001,102766,
AFNE01.JPG,AFNE01.JPG,AFNE01.JPG,AFNE01.JPG,AFNE01.JPG,AFNE01.JPG,,,,,,,,,,,,,,,,,5,0,50,6,,,,,,,AFSA07.jpg,AFNE07.jpg,AFSA18.jpg,AFNE16.jpg,AFNE16.jpg,FN,3,num_4,16,num_4,0.750116589013,,,2018_Jan_12_1523,60.0098932546,FEMA4ImagesEEG,001,102766,
AFNE01.JPG,AFNE01.JPG,AFNE01.JPG,AFNE01.JPG,AFNE01.JPG,AFNE01.JPG,,,,,,,,,,,,,,,,,5,1,51,3,,,,,,,AFNE18.jpg,AFNE17.jpg,AFSA08.jpg,AFSA09.jpg,AFNE18.jpg,FN,3,num_8,16,num_8,0.516806135187,,,2018_Jan_12_1523,60.0098932546,FEMA4ImagesEEG,001,102766,
AFNE01.JPG,AFNE01.JPG,AFNE01.JPG,AFNE01.JPG,AFNE01.JPG,AFNE01.JPG,,,,,,,,,,,,,,,,,5,2,52,4,,,,,,,AFSA10.jpg,AFSA19.jpg,AFNE18.jpg,AFNE17.jpg,AFSA19.jpg,FS,4,num_6,16,num_6,0.683447570307,,,2018_Jan_12_1523,60.0098932546,FEMA4ImagesEEG,001,102766,
AFNE01.JPG,AFNE01.JPG,AFNE01.JPG,AFNE01.JPG,AFNE01.JPG,AFNE01.JPG,,,,,,,,,,,,,,,,,5,3,53,1,,,,,,,AFSA15.jpg,AFNE02.jpg,AFNE14.jpg,AFSA12.jpg,AFNE02.jpg,FN,3,num_6,32,num_4,0.81679073954,,,2018_Jan_12_1523,60.0098932546,FEMA4ImagesEEG,001,102766,
AFNE01.JPG,AFNE01.JPG,AFNE01.JPG,AFNE01.JPG,AFNE01.JPG,AFNE01.JPG,,,,,,,,,,,,,,,,,5,4,54,9,,,,,,,AFSA01.jpg,AFSA16.jpg,AFNE12.jpg,AFNE19.jpg,AFSA16.jpg,FS,4,num_6,16,num_6,0.666762354085,,,2018_Jan_12_1523,60.0098932546,FEMA4ImagesEEG,001,102766,
AFNE01.JPG,AFNE01.JPG,AFNE01.JPG,AFNE01.JPG,AFNE01.JPG,AFNE01.JPG,,,,,,,,,,,,,,,,,5,5,55,0,,,,,,,AFNE04.jpg,AFSA03.jpg,AFNE07.jpg,AFSA07.jpg,AFSA03.jpg,FS,4,num_6,32,num_2,1.41670221533,,,2018_Jan_12_1523,60.0098932546,FEMA4ImagesEEG,001,102766,
AFNE01.JPG,AFNE01.JPG,AFNE01.JPG,AFNE01.JPG,AFNE01.JPG,AFNE01.JPG,,,,,,,,,,,,,,,,,5,6,56,8,,,,,,,AFSA09.jpg,AFNE20.jpg,AFNE11.jpg,AFSA20.jpg,AFNE20.jpg,FN,3,num_6,32,num_4,0.933438429143,,,2018_Jan_12_1523,60.0098932546,FEMA4ImagesEEG,001,102766,
AFNE01.JPG,AFNE01.JPG,AFNE01.JPG,AFNE01.JPG,AFNE01.JPG,AFNE01.JPG,,,,,,,,,,,,,,,,,5,7,57,2,,,,,,,AFNE09.jpg,AFSA18.jpg,AFNE13.jpg,AFSA05.jpg,AFSA18.jpg,FS,4,num_6,16,num_6,1.96673893998,,,2018_Jan_12_1523,60.0098932546,FEMA4ImagesEEG,001,102766,
AFNE01.JPG,AFNE01.JPG,AFNE01.JPG,AFNE01.JPG,AFNE01.JPG,AFNE01.JPG,,,,,,,,,,,,,,,,,5,8,58,5,,,,,,,AFSA14.jpg,AFNE01.jpg,AFSA18.jpg,AFNE05.jpg,AFNE01.jpg,FN,3,num_6,32,num_2,1.10016229446,,,2018_Jan_12_1523,60.0098932546,FEMA4ImagesEEG,001,102766,
AFNE01.JPG,AFNE01.JPG,AFNE01.JPG,AFNE01.JPG,AFNE01.JPG,AFNE01.JPG,,,,,,,,,,,,,,,,,5,9,59,7,,,,,,,AFSA01.jpg,AFNE13.jpg,AFSA14.jpg,AFNE10.jpg,AFSA01.jpg,FS,4,num_8,16,num_8,1.21643086942,,,2018_Jan_12_1523,60.0098932546,FEMA4ImagesEEG,001,102766,
,,,,,,,,,,,,,,,,,,,,,,,,,,,,,,,,,,,,,,,,,,,space,5.49974212493,2018_Jan_12_1523,60.0098932546,FEMA4ImagesEEG,001,102766,
AFNE01.JPG,AFNE01.JPG,AFNE01.JPG,AFNE01.JPG,AFNE01.JPG,AFNE01.JPG,,,,,,,,,,,,,,,,,,,,,0,0,0,4,,,AMNE18.jpg,AMNE01.jpg,AMSA19.jpg,AMSA12.jpg,AMNE01.jpg,MN,1,num_6,16,num_6,1.13342688233,,,2018_Jan_12_1523,60.0098932546,FEMA4ImagesEEG,001,102766,
AFNE01.JPG,AFNE01.JPG,AFNE01.JPG,AFNE01.JPG,AFNE01.JPG,AFNE01.JPG,,,,,,,,,,,,,,,,,,,,,0,1,1,5,,,AMNE03.jpg,AMSA08.jpg,AMNE12.jpg,AMSA19.jpg,AMNE12.jpg,MN,1,num_2,16,num_2,0.950144172646,,,2018_Jan_12_1523,60.0098932546,FEMA4ImagesEEG,001,102766,
AFNE01.JPG,AFNE01.JPG,AFNE01.JPG,AFNE01.JPG,AFNE01.JPG,AFNE01.JPG,,,,,,,,,,,,,,,,,,,,,0,2,2,7,,,AMNE13.jpg,AMSA08.jpg,AMSA07.jpg,AMNE08.jpg,AMSA07.jpg,MS,2,num_2,16,num_2,1.1500874015,,,2018_Jan_12_1523,60.0098932546,FEMA4ImagesEEG,001,102766,
AFNE01.JPG,AFNE01.JPG,AFNE01.JPG,AFNE01.JPG,AFNE01.JPG,AFNE01.JPG,,,,,,,,,,,,,,,,,,,,,0,3,3,3,,,AMNE20.jpg,AMSA16.jpg,AMNE17.jpg,AMSA13.jpg,AMNE20.jpg,MN,1,num_8,16,num_8,0.683485738235,,,2018_Jan_12_1523,60.0098932546,FEMA4ImagesEEG,001,102766,
AFNE01.JPG,AFNE01.JPG,AFNE01.JPG,AFNE01.JPG,AFNE01.JPG,AFNE01.JPG,,,,,,,,,,,,,,,,,,,,,0,4,4,8,,,AMNE19.jpg,AMSA12.jpg,AMNE20.jpg,AMSA17.jpg,AMSA12.jpg,MS,2,num_6,32,num_8,1.26679667342,,,2018_Jan_12_1523,60.0098932546,FEMA4ImagesEEG,001,102766,
AFNE01.JPG,AFNE01.JPG,AFNE01.JPG,AFNE01.JPG,AFNE01.JPG,AFNE01.JPG,,,,,,,,,,,,,,,,,,,,,0,5,5,6,,,AMSA17.jpg,AMNE20.jpg,AMNE05.jpg,AMSA01.jpg,AMSA01.jpg,MS,2,num_4,32,num_2,1.0834154964,,,2018_Jan_12_1523,60.0098932546,FEMA4ImagesEEG,001,102766,
AFNE01.JPG,AFNE01.JPG,AFNE01.JPG,AFNE01.JPG,AFNE01.JPG,AFNE01.JPG,,,,,,,,,,,,,,,,,,,,,0,6,6,9,,,AMNE08.jpg,AMSA14.jpg,AMNE02.jpg,AMSA20.jpg,AMSA20.jpg,MS,2,num_4,16,num_4,0.616734931013,,,2018_Jan_12_1523,60.0098932546,FEMA4ImagesEEG,001,102766,
AFNE01.JPG,AFNE01.JPG,AFNE01.JPG,AFNE01.JPG,AFNE01.JPG,AFNE01.JPG,,,,,,,,,,,,,,,,,,,,,0,7,7,2,,,AMSA12.jpg,AMSA08.jpg,AMNE12.jpg,AMNE16.jpg,AMSA08.jpg,MS,2,num_6,32,num_8,1.38355373521,,,2018_Jan_12_1523,60.0098932546,FEMA4ImagesEEG,001,102766,
AFNE01.JPG,AFNE01.JPG,AFNE01.JPG,AFNE01.JPG,AFNE01.JPG,AFNE01.JPG,,,,,,,,,,,,,,,,,,,,,0,8,8,1,,,AMSA07.jpg,AMNE18.jpg,AMNE01.jpg,AMSA08.jpg,AMNE18.jpg,MN,1,num_6,32,num_4,1.09995734156,,,2018_Jan_12_1523,60.0098932546,FEMA4ImagesEEG,001,102766,
AFNE01.JPG,AFNE01.JPG,AFNE01.JPG,AFNE01.JPG,AFNE01.JPG,AFNE01.JPG,,,,,,,,,,,,,,,,,,,,,0,9,9,0,,,AMNE03.jpg,AMSA07.jpg,AMNE19.jpg,AMSA15.jpg,AMSA07.jpg,MS,2,num_6,16,num_6,0.916791060241,,,2018_Jan_12_1523,60.0098932546,FEMA4ImagesEEG,001,102766,
AFNE01.JPG,AFNE01.JPG,AFNE01.JPG,AFNE01.JPG,AFNE01.JPG,AFNE01.JPG,,,,,,,,,,,,,,,,,,,,,1,0,10,3,,,AMSA01.jpg,AMSA04.jpg,AMNE15.jpg,AMNE06.jpg,AMSA01.jpg,MS,2,num_8,32,num_4,0.916757061845,,,2018_Jan_12_1523,60.0098932546,FEMA4ImagesEEG,001,102766,
AFNE01.JPG,AFNE01.JPG,AFNE01.JPG,AFNE01.JPG,AFNE01.JPG,AFNE01.JPG,,,,,,,,,,,,,,,,,,,,,1,1,11,2,,,AMNE08.jpg,AMSA10.jpg,AMNE07.jpg,AMSA05.jpg,AMSA05.jpg,MS,2,num_4,16,num_4,2.13365172129,,,2018_Jan_12_1523,60.0098932546,FEMA4ImagesEEG,001,102766,
AFNE01.JPG,AFNE01.JPG,AFNE01.JPG,AFNE01.JPG,AFNE01.JPG,AFNE01.JPG,,,,,,,,,,,,,,,,,,,,,1,2,12,0,,,AMSA10.jpg,AMNE01.jpg,AMNE12.jpg,AMSA07.jpg,AMNE01.jpg,MN,1,num_6,16,num_6,0.816818323219,,,2018_Jan_12_1523,60.0098932546,FEMA4ImagesEEG,001,102766,
AFNE01.JPG,AFNE01.JPG,AFNE01.JPG,AFNE01.JPG,AFNE01.JPG,AFNE01.JPG,,,,,,,,,,,,,,,,,,,,,1,3,13,9,,,AMNE04.jpg,AMSA10.jpg,AMSA04.jpg,AMNE15.jpg,AMSA04.jpg,MS,2,num_2,16,num_2,0.883433136856,,,2018_Jan_12_1523,60.0098932546,FEMA4ImagesEEG,001,102766,
AFNE01.JPG,AFNE01.JPG,AFNE01.JPG,AFNE01.JPG,AFNE01.JPG,AFNE01.JPG,,,,,,,,,,,,,,,,,,,,,1,4,14,1,,,AMNE11.jpg,AMNE17.jpg,AMSA08.jpg,AMSA04.jpg,AMSA08.jpg,MS,2,num_2,16,num_2,0.931695527863,,,2018_Jan_12_1523,60.0098932546,FEMA4ImagesEEG,001,102766,
AFNE01.JPG,AFNE01.JPG,AFNE01.JPG,AFNE01.JPG,AFNE01.JPG,AFNE01.JPG,,,,,,,,,,,,,,,,,,,,,1,5,15,8,,,AMSA11.jpg,AMNE12.jpg,AMNE11.jpg,AMSA03.jpg,AMNE11.jpg,MN,1,num_2,16,num_2,0.783485738328,,,2018_Jan_12_1523,60.0098932546,FEMA4ImagesEEG,001,102766,
AFNE01.JPG,AFNE01.JPG,AFNE01.JPG,AFNE01.JPG,AFNE01.JPG,AFNE01.JPG,,,,,,,,,,,,,,,,,,,,,1,6,16,5,,,AMSA10.jpg,AMNE17.jpg,AMNE03.jpg,AMSA16.jpg,AMSA16.jpg,MS,2,num_4,16,num_4,0.683531283401,,,2018_Jan_12_1523,60.0098932546,FEMA4ImagesEEG,001,102766,
AFNE01.JPG,AFNE01.JPG,AFNE01.JPG,AFNE01.JPG,AFNE01.JPG,AFNE01.JPG,,,,,,,,,,,,,,,,,,,,,1,7,17,4,,,AMSA17.jpg,AMNE14.jpg,AMSA01.jpg,AMNE19.jpg,AMSA17.jpg,MS,2,num_8,16,num_8,0.683462003479,,,2018_Jan_12_1523,60.0098932546,FEMA4ImagesEEG,001,102766,
AFNE01.JPG,AFNE01.JPG,AFNE01.JPG,AFNE01.JPG,AFNE01.JPG,AFNE01.JPG,,,,,,,,,,,,,,,,,,,,,1,8,18,7,,,AMNE20.jpg,AMSA10.jpg,AMNE09.jpg,AMSA13.jpg,AMNE20.jpg,MN,1,num_8,16,num_8,1.1334057136,,,2018_Jan_12_1523,60.0098932546,FEMA4ImagesEEG,001,102766,
AFNE01.JPG,AFNE01.JPG,AFNE01.JPG,AFNE01.JPG,AFNE01.JPG,AFNE01.JPG,,,,,,,,,,,,,,,,,,,,,1,9,19,6,,,AMSA02.jpg,AMNE04.jpg,AMSA04.jpg,AMNE01.jpg,AMSA04.jpg,MS,2,num_2,16,num_2,1.11674391152,,,2018_Jan_12_1523,60.0098932546,FEMA4ImagesEEG,001,102766,
AFNE01.JPG,AFNE01.JPG,AFNE01.JPG,AFNE01.JPG,AFNE01.JPG,AFNE01.JPG,,,,,,,,,,,,,,,,,,,,,2,0,20,4,,,AMSA09.jpg,AMSA13.jpg,AMNE16.jpg,AMNE14.jpg,AMSA09.jpg,MS,2,num_8,16,num_8,0.800169350812,,,2018_Jan_12_1523,60.0098932546,FEMA4ImagesEEG,001,102766,
AFNE01.JPG,AFNE01.JPG,AFNE01.JPG,AFNE01.JPG,AFNE01.JPG,AFNE01.JPG,,,,,,,,,,,,,,,,,,,,,2,1,21,1,,,AMNE04.jpg,AMNE18.jpg,AMSA19.jpg,AMSA18.jpg,AMNE18.jpg,MN,1,num_6,32,num_4,0.883448853157,,,2018_Jan_12_1523,60.0098932546,FEMA4ImagesEEG,001,102766,
AFNE01.JPG,AFNE01.JPG,AFNE01.JPG,AFNE01.JPG,AFNE01.JPG,AFNE01.JPG,,,,,,,,,,,,,,,,,,,,,2,2,22,5,,,AMSA15.jpg,AMNE03.jpg,AMSA06.jpg,AMNE09.jpg,AMNE03.jpg,MN,1,num_6,32,num_4,1.45008291118,,,2018_Jan_12_1523,60.0098932546,FEMA4ImagesEEG,001,102766,
AFNE01.JPG,AFNE01.JPG,AFNE01.JPG,AFNE01.JPG,AFNE01.JPG,AFNE01.JPG,,,,,,,,,,,,,,,,,,,,,2,3,23,3,,,AMNE10.jpg,AMSA13.jpg,AMSA11.jpg,AMNE19.jpg,AMSA13.jpg,MS,2,num_6,16,num_6,1.2167002908,,,2018_Jan_12_1523,60.0098932546,FEMA4ImagesEEG,001,102766,
AFNE01.JPG,AFNE01.JPG,AFNE01.JPG,AFNE01.JPG,AFNE01.JPG,AFNE01.JPG,,,,,,,,,,,,,,,,,,,,,2,4,24,8,,,AMNE16.jpg,AMSA06.jpg,AMNE03.jpg,AMSA10.jpg,AMNE03.jpg,MN,1,num_2,16,num_2,1.23339865729,,,2018_Jan_12_1523,60.0098932546,FEMA4ImagesEEG,001,102766,
AFNE01.JPG,AFNE01.JPG,AFNE01.JPG,AFNE01.JPG,AFNE01.JPG,AFNE01.JPG,,,,,,,,,,,,,,,,,,,,,2,5,25,6,,,AMNE14.jpg,AMNE07.jpg,AMSA13.jpg,AMSA14.jpg,AMNE14.jpg,MN,1,num_8,32,num_4,2.13333803765,,,2018_Jan_12_1523,60.0098932546,FEMA4ImagesEEG,001,102766,
AFNE01.JPG,AFNE01.JPG,AFNE01.JPG,AFNE01.JPG,AFNE01.JPG,AFNE01.JPG,,,,,,,,,,,,,,,,,,,,,2,6,26,7,,,AMNE14.jpg,AMSA04.jpg,AMSA05.jpg,AMNE11.jpg,AMSA04.jpg,MS,2,num_6,16,num_6,0.600087882718,,,2018_Jan_12_1523,60.0098932546,FEMA4ImagesEEG,001,102766,
AFNE01.JPG,AFNE01.JPG,AFNE01.JPG,AFNE01.JPG,AFNE01.JPG,AFNE01.JPG,,,,,,,,,,,,,,,,,,,,,2,7,27,2,,,AMNE13.jpg,AMSA08.jpg,AMNE18.jpg,AMSA19.jpg,AMSA08.jpg,MS,2,num_6,16,num_6,1.11674743961,,,2018_Jan_12_1523,60.0098932546,FEMA4ImagesEEG,001,102766,
AFNE01.JPG,AFNE01.JPG,AFNE01.JPG,AFNE01.JPG,AFNE01.JPG,AFNE01.JPG,,,,,,,,,,,,,,,,,,,,,2,8,28,9,,,AMNE14.jpg,AMNE15.jpg,AMSA09.jpg,AMSA17.jpg,AMSA09.jpg,MS,2,num_2,32,num_6,1.26675305259,,,2018_Jan_12_1523,60.0098932546,FEMA4ImagesEEG,001,102766,
AFNE01.JPG,AFNE01.JPG,AFNE01.JPG,AFNE01.JPG,AFNE01.JPG,AFNE01.JPG,,,,,,,,,,,,,,,,,,,,,2,9,29,0,,,AMSA08.jpg,AMSA17.jpg,AMNE09.jpg,AMNE14.jpg,AMNE14.jpg,MN,1,num_4,16,num_4,0.983473550295,,,2018_Jan_12_1523,60.0098932546,FEMA4ImagesEEG,001,102766,
AFNE01.JPG,AFNE01.JPG,AFNE01.JPG,AFNE01.JPG,AFNE01.JPG,AFNE01.JPG,,,,,,,,,,,,,,,,,,,,,3,0,30,3,,,AMSA10.jpg,AMNE19.jpg,AMSA16.jpg,AMNE16.jpg,AMSA16.jpg,MS,2,num_2,16,num_2,1.10007890221,,,2018_Jan_12_1523,60.0098932546,FEMA4ImagesEEG,001,102766,
AFNE01.JPG,AFNE01.JPG,AFNE01.JPG,AFNE01.JPG,AFNE01.JPG,AFNE01.JPG,,,,,,,,,,,,,,,,,,,,,3,1,31,5,,,AMSA01.jpg,AMNE17.jpg,AMSA07.jpg,AMNE16.jpg,AMNE17.jpg,MN,1,num_6,16,num_6,1.03345157951,,,2018_Jan_12_1523,60.0098932546,FEMA4ImagesEEG,001,102766,
AFNE01.JPG,AFNE01.JPG,AFNE01.JPG,AFNE01.JPG,AFNE01.JPG,AFNE01.JPG,,,,,,,,,,,,,,,,,,,,,3,2,32,4,,,AMNE12.jpg,AMSA11.jpg,AMNE15.jpg,AMSA04.jpg,AMSA04.jpg,MS,2,num_4,16,num_4,0.800103919813,,,2018_Jan_12_1523,60.0098932546,FEMA4ImagesEEG,001,102766,
AFNE01.JPG,AFNE01.JPG,AFNE01.JPG,AFNE01.JPG,AFNE01.JPG,AFNE01.JPG,,,,,,,,,,,,,,,,,,,,,3,3,33,7,,,AMNE12.jpg,AMSA04.jpg,AMSA14.jpg,AMNE08.jpg,AMSA14.jpg,MS,2,num_2,16,num_2,1.01703642635,,,2018_Jan_12_1523,60.0098932546,FEMA4ImagesEEG,001,102766,
AFNE01.JPG,AFNE01.JPG,AFNE01.JPG,AFNE01.JPG,AFNE01.JPG,AFNE01.JPG,,,,,,,,,,,,,,,,,,,,,3,4,34,2,,,AMSA02.jpg,AMNE08.jpg,AMNE09.jpg,AMSA11.jpg,AMNE08.jpg,MN,1,num_6,16,num_6,0.850101193646,,,2018_Jan_12_1523,60.0098932546,FEMA4ImagesEEG,001,102766,
AFNE01.JPG,AFNE01.JPG,AFNE01.JPG,AFNE01.JPG,AFNE01.JPG,AFNE01.JPG,,,,,,,,,,,,,,,,,,,,,3,5,35,6,,,AMSA16.jpg,AMSA06.jpg,AMNE17.jpg,AMNE16.jpg,AMSA16.jpg,MS,2,num_8,32,num_2,1.28344340064,,,2018_Jan_12_1523,60.0098932546,FEMA4ImagesEEG,001,102766,
AFNE01.JPG,AFNE01.JPG,AFNE01.JPG,AFNE01.JPG,AFNE01.JPG,AFNE01.JPG,,,,,,,,,,,,,,,,,,,,,3,6,36,0,,,AMNE05.jpg,AMSA05.jpg,AMSA20.jpg,AMNE01.jpg,AMSA20.jpg,MS,2,num_2,16,num_2,1.11678047595,,,2018_Jan_12_1523,60.0098932546,FEMA4ImagesEEG,001,102766,
AFNE01.JPG,AFNE01.JPG,AFNE01.JPG,AFNE01.JPG,AFNE01.JPG,AFNE01.JPG,,,,,,,,,,,,,,,,,,,,,3,7,37,1,,,AMSA18.jpg,AMSA07.jpg,AMNE13.jpg,AMNE18.jpg,AMSA18.jpg,MS,2,num_8,16,num_8,0.866747279186,,,2018_Jan_12_1523,60.0098932546,FEMA4ImagesEEG,001,102766,
AFNE01.JPG,AFNE01.JPG,AFNE01.JPG,AFNE01.JPG,AFNE01.JPG,AFNE01.JPG,,,,,,,,,,,,,,,,,,,,,3,8,38,8,,,AMSA03.jpg,AMNE07.jpg,AMNE05.jpg,AMSA13.jpg,AMNE05.jpg,MN,1,num_2,16,num_2,1.11676315591,,,2018_Jan_12_1523,60.0098932546,FEMA4ImagesEEG,001,102766,
AFNE01.JPG,AFNE01.JPG,AFNE01.JPG,AFNE01.JPG,AFNE01.JPG,AFNE01.JPG,,,,,,,,,,,,,,,,,,,,,3,9,39,9,,,AMNE19.jpg,AMSA03.jpg,AMSA06.jpg,AMNE03.jpg,AMNE03.jpg,MN,1,num_4,16,num_4,1.08347515389,,,2018_Jan_12_1523,60.0098932546,FEMA4ImagesEEG,001,102766,
