IPosition2,IPosition3,IPosition1,IPosition6,IPosition4,IPosition5,TrialsF1.thisRepN,TrialsF1.thisTrialN,TrialsF1.thisN,TrialsF1.thisIndex,TrialsM1.thisRepN,TrialsM1.thisTrialN,TrialsM1.thisN,TrialsM1.thisIndex,TrialsF2.thisRepN,TrialsF2.thisTrialN,TrialsF2.thisN,TrialsF2.thisIndex,TrialsM2.thisRepN,TrialsM2.thisTrialN,TrialsM2.thisN,TrialsM2.thisIndex,TrialsF3.thisRepN,TrialsF3.thisTrialN,TrialsF3.thisN,TrialsF3.thisIndex,TrialsM3.thisRepN,TrialsM3.thisTrialN,TrialsM3.thisN,TrialsM3.thisIndex,InstrKey_resp.keys,InstrKey_resp.rt,Image0 _Position,Image1 _Position,Image2 _Position,Image3 _Position,Center_image,condition,code,correct_answer,accuracy,Key_Resp.keys,Key_Resp.rt,BreakKey_resp.keys,BreakKey_resp.rt,date,frameRate,expName,session,participant,
,,,,,,,,,,,,,,,,,,,,,,,,,,,,,,space,22.8987515864,,,,,,,,,,,,,,2018_Jan_31_1702,60.0091039324,FEMA4ImagesEEG,001,102833,
AFSA21.JPG,AFNE23.JPG,AFNE21.JPG,AFSA25.JPG,AFNE25.JPG,AFSA23.JPG,0,0,0,4,,,,,,,,,,,,,,,,,,,,,,,AFNE09.jpg,AFNE07.jpg,AFSA12.jpg,AFSA07.jpg,AFSA12.jpg,FS,4,num_2,16,num_2,1.88343147421,,,2018_Jan_31_1702,60.0091039324,FEMA4ImagesEEG,001,102833,
AMSA21.JPG,AMNE23.JPG,AMNE21.JPG,AMSA25.JPG,AMNE25.JPG,AMSA23.JPG,0,1,1,5,,,,,,,,,,,,,,,,,,,,,,,AFSA15.jpg,AFNE13.jpg,AFNE14.jpg,AFSA18.jpg,AFSA15.jpg,FS,4,num_8,32,num_6,1.63351622957,,,2018_Jan_31_1702,60.0091039324,FEMA4ImagesEEG,001,102833,
AMSA21.JPG,AMNE22.JPG,AMNE21.JPG,AMSA23.JPG,AMSA22.JPG,AMNE23.JPG,0,2,2,1,,,,,,,,,,,,,,,,,,,,,,,AFSA07.jpg,AFSA19.jpg,AFNE19.jpg,AFNE09.jpg,AFNE19.jpg,FN,3,num_2,16,num_2,1.45009793772,,,2018_Jan_31_1702,60.0091039324,FEMA4ImagesEEG,001,102833,
AFSA25.JPG,AFNE24.JPG,AFSA24.JPG,AFNE21.JPG,AFSA21.JPG,AFNE25.JPG,0,3,3,2,,,,,,,,,,,,,,,,,,,,,,,AFNE10.jpg,AFSA07.jpg,AFNE17.jpg,AFSA17.jpg,AFSA07.jpg,FS,4,num_6,32,num_4,1.96653823194,,,2018_Jan_31_1702,60.0091039324,FEMA4ImagesEEG,001,102833,
AFNE23.JPG,AFNE24.JPG,AFNE22.JPG,AFSA24.JPG,AFSA22.JPG,AFSA23.JPG,0,4,4,8,,,,,,,,,,,,,,,,,,,,,,,AFSA02.jpg,AFNE13.jpg,AFNE19.jpg,AFSA08.jpg,AFNE19.jpg,FN,3,num_2,32,num_6,0.93344723864,,,2018_Jan_31_1702,60.0091039324,FEMA4ImagesEEG,001,102833,
AMNE22.JPG,AMSA24.JPG,AMSA22.JPG,AMNE25.JPG,AMNE24.JPG,AMSA25.JPG,0,5,5,7,,,,,,,,,,,,,,,,,,,,,,,AFSA06.jpg,AFSA04.jpg,AFNE03.jpg,AFNE09.jpg,AFSA06.jpg,FS,4,num_8,16,num_8,1.50009766512,,,2018_Jan_31_1702,60.0091039324,FEMA4ImagesEEG,001,102833,
AMSA25.JPG,AMNE24.JPG,AMSA24.JPG,AMNE26.JPG,AMSA21.JPG,AMNE25.JPG,0,6,6,3,,,,,,,,,,,,,,,,,,,,,,,AFSA03.jpg,AFSA20.jpg,AFNE06.jpg,AFNE02.jpg,AFSA03.jpg,FS,4,num_8,32,num_6,1.65010197903,,,2018_Jan_31_1702,60.0091039324,FEMA4ImagesEEG,001,102833,
AFSA21.JPG,AFNE22.JPG,AFNE21.JPG,AFSA23.JPG,AFSA22.JPG,AFNE23.JPG,0,7,7,0,,,,,,,,,,,,,,,,,,,,,,,AFSA01.jpg,AFSA16.jpg,AFNE20.jpg,AFNE03.jpg,AFSA16.jpg,FS,4,num_6,32,num_8,1.56671585736,,,2018_Jan_31_1702,60.0091039324,FEMA4ImagesEEG,001,102833,
AFNE22.JPG,AFSA24.JPG,AFSA22.JPG,AFNE25.JPG,AFNE24.JPG,AFSA25.JPG,0,8,8,6,,,,,,,,,,,,,,,,,,,,,,,AFSA18.jpg,AFNE17.jpg,AFSA04.jpg,AFNE12.jpg,AFNE12.jpg,FN,3,num_4,32,num_8,1.51671901671,,,2018_Jan_31_1702,60.0091039324,FEMA4ImagesEEG,001,102833,
AMNE23.JPG,AMNE24.JPG,AMNE22.JPG,AMSA24.JPG,AMSA22.JPG,AMSA23.JPG,0,9,9,9,,,,,,,,,,,,,,,,,,,,,,,AFSA09.jpg,AFNE02.jpg,AFNE11.jpg,AFSA10.jpg,AFNE11.jpg,FN,3,num_2,16,num_2,1.18346896861,,,2018_Jan_31_1702,60.0091039324,FEMA4ImagesEEG,001,102833,
AMNE22.JPG,AMSA24.JPG,AMSA22.JPG,AMNE25.JPG,AMNE24.JPG,AMSA25.JPG,,,,,0,0,0,7,,,,,,,,,,,,,,,,,,,AMSA13.jpg,AMNE14.jpg,AMSA01.jpg,AMNE07.jpg,AMSA13.jpg,MS,2,num_8,32,num_2,1.2834876678,,,2018_Jan_31_1702,60.0091039324,FEMA4ImagesEEG,001,102833,
AFSA21.JPG,AFNE22.JPG,AFNE21.JPG,AFSA23.JPG,AFSA22.JPG,AFNE23.JPG,,,,,0,1,1,0,,,,,,,,,,,,,,,,,,,AMNE06.jpg,AMSA08.jpg,AMNE19.jpg,AMSA02.jpg,AMNE06.jpg,MN,1,num_8,16,num_8,1.01678557007,,,2018_Jan_31_1702,60.0091039324,FEMA4ImagesEEG,001,102833,
AFNE23.JPG,AFNE24.JPG,AFNE22.JPG,AFSA24.JPG,AFSA22.JPG,AFSA23.JPG,,,,,0,2,2,8,,,,,,,,,,,,,,,,,,,AMSA07.jpg,AMNE02.jpg,AMSA15.jpg,AMNE13.jpg,AMSA07.jpg,MS,2,num_8,32,num_2,1.1667610174,,,2018_Jan_31_1702,60.0091039324,FEMA4ImagesEEG,001,102833,
AMSA21.JPG,AMNE22.JPG,AMNE21.JPG,AMSA23.JPG,AMSA22.JPG,AMNE23.JPG,,,,,0,3,3,1,,,,,,,,,,,,,,,,,,,AMNE18.jpg,AMSA20.jpg,AMNE08.jpg,AMSA18.jpg,AMNE18.jpg,MN,1,num_8,16,num_8,1.08347240055,,,2018_Jan_31_1702,60.0091039324,FEMA4ImagesEEG,001,102833,
AMNE23.JPG,AMNE24.JPG,AMNE22.JPG,AMSA24.JPG,AMSA22.JPG,AMSA23.JPG,,,,,0,4,4,9,,,,,,,,,,,,,,,,,,,AMSA12.jpg,AMSA11.jpg,AMNE02.jpg,AMNE15.jpg,AMNE15.jpg,MN,1,num_4,32,num_8,1.65011833678,,,2018_Jan_31_1702,60.0091039324,FEMA4ImagesEEG,001,102833,
AMSA21.JPG,AMNE23.JPG,AMNE21.JPG,AMSA25.JPG,AMNE25.JPG,AMSA23.JPG,,,,,0,5,5,5,,,,,,,,,,,,,,,,,,,AMSA09.jpg,AMNE04.jpg,AMNE18.jpg,AMSA17.jpg,AMNE18.jpg,MN,1,num_2,32,num_8,1.13343684655,,,2018_Jan_31_1702,60.0091039324,FEMA4ImagesEEG,001,102833,
AFNE22.JPG,AFSA24.JPG,AFSA22.JPG,AFNE25.JPG,AFNE24.JPG,AFSA25.JPG,,,,,0,6,6,6,,,,,,,,,,,,,,,,,,,AMNE03.jpg,AMSA06.jpg,AMNE07.jpg,AMSA14.jpg,AMNE03.jpg,MN,1,num_8,16,num_8,1.23346003611,,,2018_Jan_31_1702,60.0091039324,FEMA4ImagesEEG,001,102833,
AMSA25.JPG,AMNE24.JPG,AMSA24.JPG,AMNE26.JPG,AMSA21.JPG,AMNE25.JPG,,,,,0,7,7,3,,,,,,,,,,,,,,,,,,,AMNE07.jpg,AMSA14.jpg,AMNE06.jpg,AMSA16.jpg,AMSA14.jpg,MS,2,num_6,16,num_6,1.11680458987,,,2018_Jan_31_1702,60.0091039324,FEMA4ImagesEEG,001,102833,
AFSA21.JPG,AFNE23.JPG,AFNE21.JPG,AFSA25.JPG,AFNE25.JPG,AFSA23.JPG,,,,,0,8,8,4,,,,,,,,,,,,,,,,,,,AMNE02.jpg,AMSA04.jpg,AMSA17.jpg,AMNE09.jpg,AMSA17.jpg,MS,2,num_2,16,num_2,1.43342590949,,,2018_Jan_31_1702,60.0091039324,FEMA4ImagesEEG,001,102833,
AFSA25.JPG,AFNE24.JPG,AFSA24.JPG,AFNE21.JPG,AFSA21.JPG,AFNE25.JPG,,,,,0,9,9,2,,,,,,,,,,,,,,,,,,,AMSA20.jpg,AMSA11.jpg,AMNE13.jpg,AMNE02.jpg,AMSA11.jpg,MS,2,num_6,32,num_8,0.966814067797,,,2018_Jan_31_1702,60.0091039324,FEMA4ImagesEEG,001,102833,
AMNE23.JPG,AMNE24.JPG,AMNE22.JPG,AMSA24.JPG,AMSA22.JPG,AMSA23.JPG,,,,,,,,,0,0,0,9,,,,,,,,,,,,,,,AFSA12.jpg,AFNE04.jpg,AFNE18.jpg,AFSA19.jpg,AFSA19.jpg,FS,4,num_4,16,num_4,1.18349045818,,,2018_Jan_31_1702,60.0091039324,FEMA4ImagesEEG,001,102833,
AFSA21.JPG,AFNE23.JPG,AFNE21.JPG,AFSA25.JPG,AFNE25.JPG,AFSA23.JPG,,,,,,,,,0,1,1,4,,,,,,,,,,,,,,,AFSA09.jpg,AFNE14.jpg,AFNE02.jpg,AFSA18.jpg,AFSA09.jpg,FS,4,num_8,32,num_4,0.866812688648,,,2018_Jan_31_1702,60.0091039324,FEMA4ImagesEEG,001,102833,
AMSA21.JPG,AMNE23.JPG,AMNE21.JPG,AMSA25.JPG,AMNE25.JPG,AMSA23.JPG,,,,,,,,,0,2,2,5,,,,,,,,,,,,,,,AFNE07.jpg,AFNE19.jpg,AFSA05.jpg,AFSA01.jpg,AFNE07.jpg,FN,3,num_8,16,num_8,1.55001560401,,,2018_Jan_31_1702,60.0091039324,FEMA4ImagesEEG,001,102833,
AMSA25.JPG,AMNE24.JPG,AMSA24.JPG,AMNE26.JPG,AMSA21.JPG,AMNE25.JPG,,,,,,,,,0,3,3,3,,,,,,,,,,,,,,,AFNE15.jpg,AFNE14.jpg,AFSA01.jpg,AFSA18.jpg,AFNE15.jpg,FN,3,num_8,16,num_8,1.11679304333,,,2018_Jan_31_1702,60.0091039324,FEMA4ImagesEEG,001,102833,
AMSA21.JPG,AMNE22.JPG,AMNE21.JPG,AMSA23.JPG,AMSA22.JPG,AMNE23.JPG,,,,,,,,,0,4,4,1,,,,,,,,,,,,,,,AFSA13.jpg,AFNE06.jpg,AFSA06.jpg,AFNE15.jpg,AFNE06.jpg,FN,3,num_6,32,num_2,1.90005250496,,,2018_Jan_31_1702,60.0091039324,FEMA4ImagesEEG,001,102833,
AFSA25.JPG,AFNE24.JPG,AFSA24.JPG,AFNE21.JPG,AFSA21.JPG,AFNE25.JPG,,,,,,,,,0,5,5,2,,,,,,,,,,,,,,,AFNE19.jpg,AFSA08.jpg,AFSA14.jpg,AFNE13.jpg,AFNE13.jpg,FN,3,num_4,32,num_6,2.11669361417,,,2018_Jan_31_1702,60.0091039324,FEMA4ImagesEEG,001,102833,
AMNE22.JPG,AMSA24.JPG,AMSA22.JPG,AMNE25.JPG,AMNE24.JPG,AMSA25.JPG,,,,,,,,,0,6,6,7,,,,,,,,,,,,,,,AFNE03.jpg,AFNE08.jpg,AFSA04.jpg,AFSA19.jpg,AFSA04.jpg,FS,4,num_2,16,num_2,1.53339264868,,,2018_Jan_31_1702,60.0091039324,FEMA4ImagesEEG,001,102833,
AFSA21.JPG,AFNE22.JPG,AFNE21.JPG,AFSA23.JPG,AFSA22.JPG,AFNE23.JPG,,,,,,,,,0,7,7,0,,,,,,,,,,,,,,,AFNE06.jpg,AFSA04.jpg,AFSA19.jpg,AFNE11.jpg,AFNE06.jpg,FN,3,num_8,32,num_6,0.967039868119,,,2018_Jan_31_1702,60.0091039324,FEMA4ImagesEEG,001,102833,
AFNE22.JPG,AFSA24.JPG,AFSA22.JPG,AFNE25.JPG,AFNE24.JPG,AFSA25.JPG,,,,,,,,,0,8,8,6,,,,,,,,,,,,,,,AFNE18.jpg,AFSA07.jpg,AFSA09.jpg,AFNE13.jpg,AFNE18.jpg,FN,3,num_8,16,num_8,1.25008972688,,,2018_Jan_31_1702,60.0091039324,FEMA4ImagesEEG,001,102833,
AFNE23.JPG,AFNE24.JPG,AFNE22.JPG,AFSA24.JPG,AFSA22.JPG,AFSA23.JPG,,,,,,,,,0,9,9,8,,,,,,,,,,,,,,,AFNE06.jpg,AFSA08.jpg,AFSA16.jpg,AFNE18.jpg,AFNE18.jpg,FN,3,num_4,32,num_8,0.900117294281,,,2018_Jan_31_1702,60.0091039324,FEMA4ImagesEEG,001,102833,
AFSA21.JPG,AFNE23.JPG,AFNE21.JPG,AFSA25.JPG,AFNE25.JPG,AFSA23.JPG,,,,,,,,,,,,,0,0,0,4,,,,,,,,,,,AMSA17.jpg,AMSA09.jpg,AMNE06.jpg,AMNE15.jpg,AMSA17.jpg,MS,2,num_8,32,num_6,1.5501105428,,,2018_Jan_31_1702,60.0091039324,FEMA4ImagesEEG,001,102833,
AFNE22.JPG,AFSA24.JPG,AFSA22.JPG,AFNE25.JPG,AFNE24.JPG,AFSA25.JPG,,,,,,,,,,,,,0,1,1,6,,,,,,,,,,,AMSA02.jpg,AMNE08.jpg,AMNE06.jpg,AMSA13.jpg,AMSA13.jpg,MS,2,num_4,32,num_2,1.03343450523,,,2018_Jan_31_1702,60.0091039324,FEMA4ImagesEEG,001,102833,
AMSA21.JPG,AMNE23.JPG,AMNE21.JPG,AMSA25.JPG,AMNE25.JPG,AMSA23.JPG,,,,,,,,,,,,,0,2,2,5,,,,,,,,,,,AMNE10.jpg,AMSA06.jpg,AMSA03.jpg,AMNE14.jpg,AMSA06.jpg,MS,2,num_6,32,num_2,0.966771088657,,,2018_Jan_31_1702,60.0091039324,FEMA4ImagesEEG,001,102833,
AMSA25.JPG,AMNE24.JPG,AMSA24.JPG,AMNE26.JPG,AMSA21.JPG,AMNE25.JPG,,,,,,,,,,,,,0,3,3,3,,,,,,,,,,,AMNE03.jpg,AMSA06.jpg,AMNE02.jpg,AMSA11.jpg,AMSA06.jpg,MS,2,num_6,16,num_6,1.95002368651,,,2018_Jan_31_1702,60.0091039324,FEMA4ImagesEEG,001,102833,
AFSA25.JPG,AFNE24.JPG,AFSA24.JPG,AFNE21.JPG,AFSA21.JPG,AFNE25.JPG,,,,,,,,,,,,,0,4,4,2,,,,,,,,,,,AMSA04.jpg,AMNE03.jpg,AMSA06.jpg,AMNE14.jpg,AMNE14.jpg,MN,1,num_4,16,num_4,1.05013219267,,,2018_Jan_31_1702,60.0091039324,FEMA4ImagesEEG,001,102833,
AMNE23.JPG,AMNE24.JPG,AMNE22.JPG,AMSA24.JPG,AMSA22.JPG,AMSA23.JPG,,,,,,,,,,,,,0,5,5,9,,,,,,,,,,,AMSA06.jpg,AMNE15.jpg,AMSA08.jpg,AMNE10.jpg,AMNE10.jpg,MN,1,num_4,32,num_6,1.43316867645,,,2018_Jan_31_1702,60.0091039324,FEMA4ImagesEEG,001,102833,
AMSA21.JPG,AMNE22.JPG,AMNE21.JPG,AMSA23.JPG,AMSA22.JPG,AMNE23.JPG,,,,,,,,,,,,,0,6,6,1,,,,,,,,,,,AMNE19.jpg,AMSA10.jpg,AMSA11.jpg,AMNE10.jpg,AMNE19.jpg,MN,1,num_8,32,num_2,1.26679158385,,,2018_Jan_31_1702,60.0091039324,FEMA4ImagesEEG,001,102833,
AFNE23.JPG,AFNE24.JPG,AFNE22.JPG,AFSA24.JPG,AFSA22.JPG,AFSA23.JPG,,,,,,,,,,,,,0,7,7,8,,,,,,,,,,,AMSA20.jpg,AMSA03.jpg,AMNE09.jpg,AMNE15.jpg,AMSA20.jpg,MS,2,num_8,32,num_6,0.716830184916,,,2018_Jan_31_1702,60.0091039324,FEMA4ImagesEEG,001,102833,
AFSA21.JPG,AFNE22.JPG,AFNE21.JPG,AFSA23.JPG,AFSA22.JPG,AFNE23.JPG,,,,,,,,,,,,,0,8,8,0,,,,,,,,,,,AMNE18.jpg,AMSA10.jpg,AMNE01.jpg,AMSA15.jpg,AMNE18.jpg,MN,1,num_8,32,num_6,1.11673370656,,,2018_Jan_31_1702,60.0091039324,FEMA4ImagesEEG,001,102833,
AMNE22.JPG,AMSA24.JPG,AMSA22.JPG,AMNE25.JPG,AMNE24.JPG,AMSA25.JPG,,,,,,,,,,,,,0,9,9,7,,,,,,,,,,,AMNE13.jpg,AMSA15.jpg,AMSA03.jpg,AMNE06.jpg,AMNE06.jpg,MN,1,num_4,32,num_8,1.13344197837,,,2018_Jan_31_1702,60.0091039324,FEMA4ImagesEEG,001,102833,
AMSA21.JPG,AMNE22.JPG,AMNE21.JPG,AMSA23.JPG,AMSA22.JPG,AMNE23.JPG,,,,,,,,,,,,,,,,,0,0,0,1,,,,,,,AFNE20.jpg,AFNE04.jpg,AFSA17.jpg,AFSA12.jpg,AFNE04.jpg,FN,3,num_6,16,num_6,1.16675331967,,,2018_Jan_31_1702,60.0091039324,FEMA4ImagesEEG,001,102833,
AMNE23.JPG,AMNE24.JPG,AMNE22.JPG,AMSA24.JPG,AMSA22.JPG,AMSA23.JPG,,,,,,,,,,,,,,,,,0,1,1,9,,,,,,,AFNE05.jpg,AFSA08.jpg,AFNE02.jpg,AFSA07.jpg,AFNE05.jpg,FN,3,num_8,16,num_8,1.53343242034,,,2018_Jan_31_1702,60.0091039324,FEMA4ImagesEEG,001,102833,
AFSA21.JPG,AFNE22.JPG,AFNE21.JPG,AFSA23.JPG,AFSA22.JPG,AFNE23.JPG,,,,,,,,,,,,,,,,,0,2,2,0,,,,,,,AFNE20.jpg,AFSA18.jpg,AFSA20.jpg,AFNE12.jpg,AFNE20.jpg,FN,3,num_8,16,num_8,0.883485037601,,,2018_Jan_31_1702,60.0091039324,FEMA4ImagesEEG,001,102833,
AMSA25.JPG,AMNE24.JPG,AMSA24.JPG,AMNE26.JPG,AMSA21.JPG,AMNE25.JPG,,,,,,,,,,,,,,,,,0,3,3,3,,,,,,,AFNE06.jpg,AFSA09.jpg,AFNE08.jpg,AFSA19.jpg,AFNE08.jpg,FN,3,num_2,32,num_8,1.26674411446,,,2018_Jan_31_1702,60.0091039324,FEMA4ImagesEEG,001,102833,
AMSA21.JPG,AMNE23.JPG,AMNE21.JPG,AMSA25.JPG,AMNE25.JPG,AMSA23.JPG,,,,,,,,,,,,,,,,,0,4,4,5,,,,,,,AFNE20.jpg,AFSA16.jpg,AFSA15.jpg,AFNE08.jpg,AFNE08.jpg,FN,3,num_4,16,num_4,0.833565495093,,,2018_Jan_31_1702,60.0091039324,FEMA4ImagesEEG,001,102833,
AFSA25.JPG,AFNE24.JPG,AFSA24.JPG,AFNE21.JPG,AFSA21.JPG,AFNE25.JPG,,,,,,,,,,,,,,,,,0,5,5,2,,,,,,,AFNE17.jpg,AFNE15.jpg,AFSA04.jpg,AFSA14.jpg,AFNE17.jpg,FN,3,num_8,16,num_8,1.05015304068,,,2018_Jan_31_1702,60.0091039324,FEMA4ImagesEEG,001,102833,
AFNE22.JPG,AFSA24.JPG,AFSA22.JPG,AFNE25.JPG,AFNE24.JPG,AFSA25.JPG,,,,,,,,,,,,,,,,,0,6,6,6,,,,,,,AFNE17.jpg,AFNE03.jpg,AFSA05.jpg,AFSA03.jpg,AFNE17.jpg,FN,3,num_8,32,num_6,0.933485727292,,,2018_Jan_31_1702,60.0091039324,FEMA4ImagesEEG,001,102833,
AFSA21.JPG,AFNE23.JPG,AFNE21.JPG,AFSA25.JPG,AFNE25.JPG,AFSA23.JPG,,,,,,,,,,,,,,,,,0,7,7,4,,,,,,,AFSA02.jpg,AFNE13.jpg,AFNE17.jpg,AFSA03.jpg,AFSA02.jpg,FS,4,num_8,32,num_4,1.61673579132,,,2018_Jan_31_1702,60.0091039324,FEMA4ImagesEEG,001,102833,
AFNE23.JPG,AFNE24.JPG,AFNE22.JPG,AFSA24.JPG,AFSA22.JPG,AFSA23.JPG,,,,,,,,,,,,,,,,,0,8,8,8,,,,,,,AFNE20.jpg,AFNE02.jpg,AFSA16.jpg,AFSA09.jpg,AFNE02.jpg,FN,3,num_6,16,num_6,0.550170841743,,,2018_Jan_31_1702,60.0091039324,FEMA4ImagesEEG,001,102833,
AMNE22.JPG,AMSA24.JPG,AMSA22.JPG,AMNE25.JPG,AMNE24.JPG,AMSA25.JPG,,,,,,,,,,,,,,,,,0,9,9,7,,,,,,,AFNE18.jpg,AFSA13.jpg,AFSA18.jpg,AFNE02.jpg,AFNE02.jpg,FN,3,num_4,32,num_8,1.51674660027,,,2018_Jan_31_1702,60.0091039324,FEMA4ImagesEEG,001,102833,
AFNE22.JPG,AFSA24.JPG,AFSA22.JPG,AFNE25.JPG,AFNE24.JPG,AFSA25.JPG,,,,,,,,,,,,,,,,,,,,,0,0,0,6,,,AMNE04.jpg,AMSA10.jpg,AMSA09.jpg,AMNE05.jpg,AMSA10.jpg,MS,2,num_6,32,num_2,1.3334668678,,,2018_Jan_31_1702,60.0091039324,FEMA4ImagesEEG,001,102833,
AMNE22.JPG,AMSA24.JPG,AMSA22.JPG,AMNE25.JPG,AMNE24.JPG,AMSA25.JPG,,,,,,,,,,,,,,,,,,,,,0,1,1,7,,,AMNE06.jpg,AMNE16.jpg,AMSA09.jpg,AMSA08.jpg,AMSA08.jpg,MS,2,num_4,16,num_4,0.883494980517,,,2018_Jan_31_1702,60.0091039324,FEMA4ImagesEEG,001,102833,
AFSA21.JPG,AFNE23.JPG,AFNE21.JPG,AFSA25.JPG,AFNE25.JPG,AFSA23.JPG,,,,,,,,,,,,,,,,,,,,,0,2,2,4,,,AMNE14.jpg,AMNE01.jpg,AMSA15.jpg,AMSA11.jpg,AMNE01.jpg,MN,1,num_6,16,num_6,1.1334605813,,,2018_Jan_31_1702,60.0091039324,FEMA4ImagesEEG,001,102833,
AMSA21.JPG,AMNE22.JPG,AMNE21.JPG,AMSA23.JPG,AMSA22.JPG,AMNE23.JPG,,,,,,,,,,,,,,,,,,,,,0,3,3,1,,,AMSA08.jpg,AMNE19.jpg,AMNE03.jpg,AMSA09.jpg,AMSA09.jpg,MS,2,num_4,16,num_4,1.61675824306,,,2018_Jan_31_1702,60.0091039324,FEMA4ImagesEEG,001,102833,
AMSA21.JPG,AMNE23.JPG,AMNE21.JPG,AMSA25.JPG,AMNE25.JPG,AMSA23.JPG,,,,,,,,,,,,,,,,,,,,,0,4,4,5,,,AMNE08.jpg,AMSA03.jpg,AMNE16.jpg,AMSA11.jpg,AMNE16.jpg,MN,1,num_2,32,num_8,0.700172910583,,,2018_Jan_31_1702,60.0091039324,FEMA4ImagesEEG,001,102833,
AFNE23.JPG,AFNE24.JPG,AFNE22.JPG,AFSA24.JPG,AFSA22.JPG,AFSA23.JPG,,,,,,,,,,,,,,,,,,,,,0,5,5,8,,,AMSA18.jpg,AMSA19.jpg,AMNE10.jpg,AMNE18.jpg,AMNE10.jpg,MN,1,num_2,32,num_4,1.20011373411,,,2018_Jan_31_1702,60.0091039324,FEMA4ImagesEEG,001,102833,
AMSA25.JPG,AMNE24.JPG,AMSA24.JPG,AMNE26.JPG,AMSA21.JPG,AMNE25.JPG,,,,,,,,,,,,,,,,,,,,,0,6,6,3,,,AMNE11.jpg,AMNE17.jpg,AMSA19.jpg,AMSA05.jpg,AMNE17.jpg,MN,1,num_6,16,num_6,1.38342682354,,,2018_Jan_31_1702,60.0091039324,FEMA4ImagesEEG,001,102833,
AMNE23.JPG,AMNE24.JPG,AMNE22.JPG,AMSA24.JPG,AMSA22.JPG,AMSA23.JPG,,,,,,,,,,,,,,,,,,,,,0,7,7,9,,,AMSA11.jpg,AMSA16.jpg,AMNE16.jpg,AMNE13.jpg,AMSA16.jpg,MS,2,num_6,32,num_2,1.16676005523,,,2018_Jan_31_1702,60.0091039324,FEMA4ImagesEEG,001,102833,
AFSA21.JPG,AFNE22.JPG,AFNE21.JPG,AFSA23.JPG,AFSA22.JPG,AFNE23.JPG,,,,,,,,,,,,,,,,,,,,,0,8,8,0,,,AMSA01.jpg,AMNE18.jpg,AMNE17.jpg,AMSA14.jpg,AMNE17.jpg,MN,1,num_2,16,num_2,1.28347387596,,,2018_Jan_31_1702,60.0091039324,FEMA4ImagesEEG,001,102833,
AFSA25.JPG,AFNE24.JPG,AFSA24.JPG,AFNE21.JPG,AFSA21.JPG,AFNE25.JPG,,,,,,,,,,,,,,,,,,,,,0,9,9,2,,,AMNE06.jpg,AMSA11.jpg,AMSA09.jpg,AMNE02.jpg,AMNE06.jpg,MN,1,num_8,32,num_6,0.750033437042,,,2018_Jan_31_1702,60.0091039324,FEMA4ImagesEEG,001,102833,
,,,,,,,,,,,,,,,,,,,,,,,,,,,,,,,,,,,,,,,,,,,space,8.26645576989,2018_Jan_31_1702,60.0091039324,FEMA4ImagesEEG,001,102833,
AFNE01.JPG,AFNE01.JPG,AFNE01.JPG,AFNE01.JPG,AFNE01.JPG,AFNE01.JPG,0,0,0,1,,,,,,,,,,,,,,,,,,,,,,,AFNE19.jpg,AFSA03.jpg,AFSA02.jpg,AFNE20.jpg,AFSA03.jpg,FS,4,num_6,32,num_8,2.00007473235,,,2018_Jan_31_1702,60.0091039324,FEMA4ImagesEEG,001,102833,
AFNE01.JPG,AFNE01.JPG,AFNE01.JPG,AFNE01.JPG,AFNE01.JPG,AFNE01.JPG,0,1,1,3,,,,,,,,,,,,,,,,,,,,,,,AFSA18.jpg,AFNE16.jpg,AFNE18.jpg,AFSA05.jpg,AFSA05.jpg,FS,4,num_4,16,num_4,0.766802328639,,,2018_Jan_31_1702,60.0091039324,FEMA4ImagesEEG,001,102833,
AFNE01.JPG,AFNE01.JPG,AFNE01.JPG,AFNE01.JPG,AFNE01.JPG,AFNE01.JPG,0,2,2,2,,,,,,,,,,,,,,,,,,,,,,,AFNE04.jpg,AFSA20.jpg,AFNE20.jpg,AFSA12.jpg,AFNE04.jpg,FN,3,num_8,32,num_6,2.29999387381,,,2018_Jan_31_1702,60.0091039324,FEMA4ImagesEEG,001,102833,
AFNE01.JPG,AFNE01.JPG,AFNE01.JPG,AFNE01.JPG,AFNE01.JPG,AFNE01.JPG,0,3,3,8,,,,,,,,,,,,,,,,,,,,,,,AFSA10.jpg,AFNE17.jpg,AFNE20.jpg,AFSA14.jpg,AFNE17.jpg,FN,3,num_6,32,num_8,0.583526445087,,,2018_Jan_31_1702,60.0091039324,FEMA4ImagesEEG,001,102833,
AFNE01.JPG,AFNE01.JPG,AFNE01.JPG,AFNE01.JPG,AFNE01.JPG,AFNE01.JPG,0,4,4,9,,,,,,,,,,,,,,,,,,,,,,,AFSA03.jpg,AFSA08.jpg,AFNE20.jpg,AFNE02.jpg,AFSA08.jpg,FS,4,num_6,32,num_2,0.566875906312,,,2018_Jan_31_1702,60.0091039324,FEMA4ImagesEEG,001,102833,
AFNE01.JPG,AFNE01.JPG,AFNE01.JPG,AFNE01.JPG,AFNE01.JPG,AFNE01.JPG,0,5,5,4,,,,,,,,,,,,,,,,,,,,,,,AFSA14.jpg,AFSA11.jpg,AFNE16.jpg,AFNE11.jpg,AFNE16.jpg,FN,3,num_2,32,num_8,1.34996986657,,,2018_Jan_31_1702,60.0091039324,FEMA4ImagesEEG,001,102833,
AFNE01.JPG,AFNE01.JPG,AFNE01.JPG,AFNE01.JPG,AFNE01.JPG,AFNE01.JPG,0,6,6,7,,,,,,,,,,,,,,,,,,,,,,,AFNE05.jpg,AFNE04.jpg,AFSA06.jpg,AFSA20.jpg,AFSA20.jpg,FS,4,num_4,16,num_4,1.50009541993,,,2018_Jan_31_1702,60.0091039324,FEMA4ImagesEEG,001,102833,
AFNE01.JPG,AFNE01.JPG,AFNE01.JPG,AFNE01.JPG,AFNE01.JPG,AFNE01.JPG,0,7,7,0,,,,,,,,,,,,,,,,,,,,,,,AFNE10.jpg,AFSA15.jpg,AFSA05.jpg,AFNE19.jpg,AFSA05.jpg,FS,4,num_2,16,num_2,0.883307668846,,,2018_Jan_31_1702,60.0091039324,FEMA4ImagesEEG,001,102833,
AFNE01.JPG,AFNE01.JPG,AFNE01.JPG,AFNE01.JPG,AFNE01.JPG,AFNE01.JPG,0,8,8,5,,,,,,,,,,,,,,,,,,,,,,,AFSA16.jpg,AFNE04.jpg,AFNE10.jpg,AFSA19.jpg,AFNE04.jpg,FN,3,num_6,32,num_2,2.06664770027,,,2018_Jan_31_1702,60.0091039324,FEMA4ImagesEEG,001,102833,
AFNE01.JPG,AFNE01.JPG,AFNE01.JPG,AFNE01.JPG,AFNE01.JPG,AFNE01.JPG,0,9,9,6,,,,,,,,,,,,,,,,,,,,,,,AFNE17.jpg,AFNE19.jpg,AFSA18.jpg,AFSA04.jpg,AFSA04.jpg,FS,4,num_4,16,num_4,1.36674292781,,,2018_Jan_31_1702,60.0091039324,FEMA4ImagesEEG,001,102833,
AFNE01.JPG,AFNE01.JPG,AFNE01.JPG,AFNE01.JPG,AFNE01.JPG,AFNE01.JPG,1,0,10,1,,,,,,,,,,,,,,,,,,,,,,,AFSA07.jpg,AFSA14.jpg,AFNE08.jpg,AFNE02.jpg,AFSA07.jpg,FS,4,num_8,16,num_8,1.56658692029,,,2018_Jan_31_1702,60.0091039324,FEMA4ImagesEEG,001,102833,
AFNE01.JPG,AFNE01.JPG,AFNE01.JPG,AFNE01.JPG,AFNE01.JPG,AFNE01.JPG,1,1,11,8,,,,,,,,,,,,,,,,,,,,,,,AFNE16.jpg,AFNE12.jpg,AFSA03.jpg,AFSA20.jpg,AFSA03.jpg,FS,4,num_2,32,num_4,1.33344024641,,,2018_Jan_31_1702,60.0091039324,FEMA4ImagesEEG,001,102833,
AFNE01.JPG,AFNE01.JPG,AFNE01.JPG,AFNE01.JPG,AFNE01.JPG,AFNE01.JPG,1,2,12,4,,,,,,,,,,,,,,,,,,,,,,,AFSA18.jpg,AFSA15.jpg,AFNE13.jpg,AFNE17.jpg,AFSA15.jpg,FS,4,num_6,16,num_6,1.58339782874,,,2018_Jan_31_1702,60.0091039324,FEMA4ImagesEEG,001,102833,
AFNE01.JPG,AFNE01.JPG,AFNE01.JPG,AFNE01.JPG,AFNE01.JPG,AFNE01.JPG,1,3,13,6,,,,,,,,,,,,,,,,,,,,,,,AFSA15.jpg,AFNE08.jpg,AFSA17.jpg,AFNE12.jpg,AFNE08.jpg,FN,3,num_6,32,num_8,0.683496071142,,,2018_Jan_31_1702,60.0091039324,FEMA4ImagesEEG,001,102833,
AFNE01.JPG,AFNE01.JPG,AFNE01.JPG,AFNE01.JPG,AFNE01.JPG,AFNE01.JPG,1,4,14,2,,,,,,,,,,,,,,,,,,,,,,,AFSA07.jpg,AFSA01.jpg,AFNE07.jpg,AFNE02.jpg,AFSA01.jpg,FS,4,num_6,32,num_4,0.716789130354,,,2018_Jan_31_1702,60.0091039324,FEMA4ImagesEEG,001,102833,
AFNE01.JPG,AFNE01.JPG,AFNE01.JPG,AFNE01.JPG,AFNE01.JPG,AFNE01.JPG,1,5,15,5,,,,,,,,,,,,,,,,,,,,,,,AFSA13.jpg,AFSA06.jpg,AFNE04.jpg,AFNE06.jpg,AFSA13.jpg,FS,4,num_8,16,num_8,0.966777824215,,,2018_Jan_31_1702,60.0091039324,FEMA4ImagesEEG,001,102833,
AFNE01.JPG,AFNE01.JPG,AFNE01.JPG,AFNE01.JPG,AFNE01.JPG,AFNE01.JPG,1,6,16,3,,,,,,,,,,,,,,,,,,,,,,,AFNE12.jpg,AFSA04.jpg,AFNE20.jpg,AFSA12.jpg,AFNE20.jpg,FN,3,num_2,16,num_2,2.05002506578,,,2018_Jan_31_1702,60.0091039324,FEMA4ImagesEEG,001,102833,
AFNE01.JPG,AFNE01.JPG,AFNE01.JPG,AFNE01.JPG,AFNE01.JPG,AFNE01.JPG,1,7,17,7,,,,,,,,,,,,,,,,,,,,,,,AFSA02.jpg,AFNE07.jpg,AFNE09.jpg,AFSA18.jpg,AFSA18.jpg,FS,4,num_4,16,num_4,1.15007744252,,,2018_Jan_31_1702,60.0091039324,FEMA4ImagesEEG,001,102833,
AFNE01.JPG,AFNE01.JPG,AFNE01.JPG,AFNE01.JPG,AFNE01.JPG,AFNE01.JPG,1,8,18,9,,,,,,,,,,,,,,,,,,,,,,,AFNE12.jpg,AFSA13.jpg,AFNE07.jpg,AFSA19.jpg,AFNE12.jpg,FN,3,num_8,16,num_8,0.850180431851,,,2018_Jan_31_1702,60.0091039324,FEMA4ImagesEEG,001,102833,
AFNE01.JPG,AFNE01.JPG,AFNE01.JPG,AFNE01.JPG,AFNE01.JPG,AFNE01.JPG,1,9,19,0,,,,,,,,,,,,,,,,,,,,,,,AFSA11.jpg,AFSA12.jpg,AFNE09.jpg,AFNE19.jpg,AFSA12.jpg,FS,4,num_6,32,num_2,1.20018237235,,,2018_Jan_31_1702,60.0091039324,FEMA4ImagesEEG,001,102833,
AFNE01.JPG,AFNE01.JPG,AFNE01.JPG,AFNE01.JPG,AFNE01.JPG,AFNE01.JPG,2,0,20,9,,,,,,,,,,,,,,,,,,,,,,,AFNE11.jpg,AFNE17.jpg,AFSA02.jpg,AFSA18.jpg,AFSA02.jpg,FS,4,num_2,32,num_6,0.716809657519,,,2018_Jan_31_1702,60.0091039324,FEMA4ImagesEEG,001,102833,
AFNE01.JPG,AFNE01.JPG,AFNE01.JPG,AFNE01.JPG,AFNE01.JPG,AFNE01.JPG,2,1,21,0,,,,,,,,,,,,,,,,,,,,,,,AFSA11.jpg,AFSA01.jpg,AFNE15.jpg,AFNE17.jpg,AFNE17.jpg,FN,3,num_4,16,num_4,0.716800676775,,,2018_Jan_31_1702,60.0091039324,FEMA4ImagesEEG,001,102833,
AFNE01.JPG,AFNE01.JPG,AFNE01.JPG,AFNE01.JPG,AFNE01.JPG,AFNE01.JPG,2,2,22,4,,,,,,,,,,,,,,,,,,,,,,,AFSA13.jpg,AFNE18.jpg,AFNE14.jpg,AFSA12.jpg,AFNE14.jpg,FN,3,num_2,32,num_6,0.416818349622,,,2018_Jan_31_1702,60.0091039324,FEMA4ImagesEEG,001,102833,
AFNE01.JPG,AFNE01.JPG,AFNE01.JPG,AFNE01.JPG,AFNE01.JPG,AFNE01.JPG,2,3,23,6,,,,,,,,,,,,,,,,,,,,,,,AFNE06.jpg,AFSA20.jpg,AFSA18.jpg,AFNE15.jpg,AFNE06.jpg,FN,3,num_8,32,num_2,1.46673340176,,,2018_Jan_31_1702,60.0091039324,FEMA4ImagesEEG,001,102833,
AFNE01.JPG,AFNE01.JPG,AFNE01.JPG,AFNE01.JPG,AFNE01.JPG,AFNE01.JPG,2,4,24,8,,,,,,,,,,,,,,,,,,,,,,,AFSA01.jpg,AFSA18.jpg,AFNE05.jpg,AFNE18.jpg,AFNE18.jpg,FN,3,num_4,32,num_2,1.23339813331,,,2018_Jan_31_1702,60.0091039324,FEMA4ImagesEEG,001,102833,
AFNE01.JPG,AFNE01.JPG,AFNE01.JPG,AFNE01.JPG,AFNE01.JPG,AFNE01.JPG,2,5,25,5,,,,,,,,,,,,,,,,,,,,,,,AFSA13.jpg,AFSA17.jpg,AFNE10.jpg,AFNE15.jpg,AFSA17.jpg,FS,4,num_6,16,num_6,1.66657226242,,,2018_Jan_31_1702,60.0091039324,FEMA4ImagesEEG,001,102833,
AFNE01.JPG,AFNE01.JPG,AFNE01.JPG,AFNE01.JPG,AFNE01.JPG,AFNE01.JPG,2,6,26,3,,,,,,,,,,,,,,,,,,,,,,,AFNE16.jpg,AFSA04.jpg,AFSA12.jpg,AFNE19.jpg,AFSA12.jpg,FS,4,num_2,16,num_2,0.933494066587,,,2018_Jan_31_1702,60.0091039324,FEMA4ImagesEEG,001,102833,
AFNE01.JPG,AFNE01.JPG,AFNE01.JPG,AFNE01.JPG,AFNE01.JPG,AFNE01.JPG,2,7,27,2,,,,,,,,,,,,,,,,,,,,,,,AFSA10.jpg,AFNE15.jpg,AFNE13.jpg,AFSA04.jpg,AFNE13.jpg,FN,3,num_2,32,num_4,0.616857030778,,,2018_Jan_31_1702,60.0091039324,FEMA4ImagesEEG,001,102833,
AFNE01.JPG,AFNE01.JPG,AFNE01.JPG,AFNE01.JPG,AFNE01.JPG,AFNE01.JPG,2,8,28,7,,,,,,,,,,,,,,,,,,,,,,,AFNE07.jpg,AFSA17.jpg,AFNE06.jpg,AFSA11.jpg,AFNE06.jpg,FN,3,num_2,16,num_2,1.01679775817,,,2018_Jan_31_1702,60.0091039324,FEMA4ImagesEEG,001,102833,
AFNE01.JPG,AFNE01.JPG,AFNE01.JPG,AFNE01.JPG,AFNE01.JPG,AFNE01.JPG,2,9,29,1,,,,,,,,,,,,,,,,,,,,,,,AFSA03.jpg,AFNE05.jpg,AFSA09.jpg,AFNE17.jpg,AFSA03.jpg,FS,4,num_8,16,num_8,0.766773782903,,,2018_Jan_31_1702,60.0091039324,FEMA4ImagesEEG,001,102833,
AFNE01.JPG,AFNE01.JPG,AFNE01.JPG,AFNE01.JPG,AFNE01.JPG,AFNE01.JPG,3,0,30,6,,,,,,,,,,,,,,,,,,,,,,,AFNE05.jpg,AFSA09.jpg,AFNE08.jpg,AFSA19.jpg,AFNE05.jpg,FN,3,num_8,32,num_4,0.716797148809,,,2018_Jan_31_1702,60.0091039324,FEMA4ImagesEEG,001,102833,
AFNE01.JPG,AFNE01.JPG,AFNE01.JPG,AFNE01.JPG,AFNE01.JPG,AFNE01.JPG,3,1,31,9,,,,,,,,,,,,,,,,,,,,,,,AFNE07.jpg,AFSA18.jpg,AFSA13.jpg,AFNE18.jpg,AFNE07.jpg,FN,3,num_8,16,num_8,1.33348835725,,,2018_Jan_31_1702,60.0091039324,FEMA4ImagesEEG,001,102833,
AFNE01.JPG,AFNE01.JPG,AFNE01.JPG,AFNE01.JPG,AFNE01.JPG,AFNE01.JPG,3,2,32,0,,,,,,,,,,,,,,,,,,,,,,,AFSA11.jpg,AFSA15.jpg,AFNE19.jpg,AFNE08.jpg,AFNE08.jpg,FN,3,num_4,32,num_6,0.800168837071,,,2018_Jan_31_1702,60.0091039324,FEMA4ImagesEEG,001,102833,
AFNE01.JPG,AFNE01.JPG,AFNE01.JPG,AFNE01.JPG,AFNE01.JPG,AFNE01.JPG,3,3,33,1,,,,,,,,,,,,,,,,,,,,,,,AFNE10.jpg,AFSA17.jpg,AFNE16.jpg,AFSA12.jpg,AFNE10.jpg,FN,3,num_8,16,num_8,0.766840817407,,,2018_Jan_31_1702,60.0091039324,FEMA4ImagesEEG,001,102833,
AFNE01.JPG,AFNE01.JPG,AFNE01.JPG,AFNE01.JPG,AFNE01.JPG,AFNE01.JPG,3,4,34,3,,,,,,,,,,,,,,,,,,,,,,,AFNE08.jpg,AFSA13.jpg,AFNE01.jpg,AFSA19.jpg,AFNE08.jpg,FN,3,num_8,32,num_4,1.21675882034,,,2018_Jan_31_1702,60.0091039324,FEMA4ImagesEEG,001,102833,
AFNE01.JPG,AFNE01.JPG,AFNE01.JPG,AFNE01.JPG,AFNE01.JPG,AFNE01.JPG,3,5,35,5,,,,,,,,,,,,,,,,,,,,,,,AFNE10.jpg,AFSA02.jpg,AFSA05.jpg,AFNE11.jpg,AFSA05.jpg,FS,4,num_2,16,num_2,1.26676400041,,,2018_Jan_31_1702,60.0091039324,FEMA4ImagesEEG,001,102833,
AFNE01.JPG,AFNE01.JPG,AFNE01.JPG,AFNE01.JPG,AFNE01.JPG,AFNE01.JPG,3,6,36,2,,,,,,,,,,,,,,,,,,,,,,,AFNE09.jpg,AFSA19.jpg,AFNE19.jpg,AFSA04.jpg,AFSA04.jpg,FS,4,num_4,32,num_8,0.433535922901,,,2018_Jan_31_1702,60.0091039324,FEMA4ImagesEEG,001,102833,
AFNE01.JPG,AFNE01.JPG,AFNE01.JPG,AFNE01.JPG,AFNE01.JPG,AFNE01.JPG,3,7,37,4,,,,,,,,,,,,,,,,,,,,,,,AFSA11.jpg,AFSA17.jpg,AFNE18.jpg,AFNE20.jpg,AFNE20.jpg,FN,3,num_4,32,num_2,1.08343904361,,,2018_Jan_31_1702,60.0091039324,FEMA4ImagesEEG,001,102833,
AFNE01.JPG,AFNE01.JPG,AFNE01.JPG,AFNE01.JPG,AFNE01.JPG,AFNE01.JPG,3,8,38,8,,,,,,,,,,,,,,,,,,,,,,,AFNE02.jpg,AFSA17.jpg,AFSA02.jpg,AFNE13.jpg,AFSA02.jpg,FS,4,num_2,32,num_8,1.2501048015,,,2018_Jan_31_1702,60.0091039324,FEMA4ImagesEEG,001,102833,
AFNE01.JPG,AFNE01.JPG,AFNE01.JPG,AFNE01.JPG,AFNE01.JPG,AFNE01.JPG,3,9,39,7,,,,,,,,,,,,,,,,,,,,,,,AFSA18.jpg,AFNE09.jpg,AFSA03.jpg,AFNE01.jpg,AFSA18.jpg,FS,4,num_8,32,num_6,0.533538264455,,,2018_Jan_31_1702,60.0091039324,FEMA4ImagesEEG,001,102833,
AFNE01.JPG,AFNE01.JPG,AFNE01.JPG,AFNE01.JPG,AFNE01.JPG,AFNE01.JPG,4,0,40,6,,,,,,,,,,,,,,,,,,,,,,,AFSA14.jpg,AFNE04.jpg,AFNE11.jpg,AFSA15.jpg,AFNE11.jpg,FN,3,num_2,16,num_2,0.600139136659,,,2018_Jan_31_1702,60.0091039324,FEMA4ImagesEEG,001,102833,
AFNE01.JPG,AFNE01.JPG,AFNE01.JPG,AFNE01.JPG,AFNE01.JPG,AFNE01.JPG,4,1,41,7,,,,,,,,,,,,,,,,,,,,,,,AFNE06.jpg,AFSA11.jpg,AFNE14.jpg,AFSA01.jpg,AFNE06.jpg,FN,3,num_8,16,num_8,1.06700147572,,,2018_Jan_31_1702,60.0091039324,FEMA4ImagesEEG,001,102833,
AFNE01.JPG,AFNE01.JPG,AFNE01.JPG,AFNE01.JPG,AFNE01.JPG,AFNE01.JPG,4,2,42,4,,,,,,,,,,,,,,,,,,,,,,,AFSA12.jpg,AFNE07.jpg,AFSA03.jpg,AFNE06.jpg,AFSA12.jpg,FS,4,num_8,32,num_4,1.11677091231,,,2018_Jan_31_1702,60.0091039324,FEMA4ImagesEEG,001,102833,
AFNE01.JPG,AFNE01.JPG,AFNE01.JPG,AFNE01.JPG,AFNE01.JPG,AFNE01.JPG,4,3,43,5,,,,,,,,,,,,,,,,,,,,,,,AFSA01.jpg,AFNE12.jpg,AFNE18.jpg,AFSA06.jpg,AFSA06.jpg,FS,4,num_4,32,num_6,0.750203749631,,,2018_Jan_31_1702,60.0091039324,FEMA4ImagesEEG,001,102833,
AFNE01.JPG,AFNE01.JPG,AFNE01.JPG,AFNE01.JPG,AFNE01.JPG,AFNE01.JPG,4,4,44,0,,,,,,,,,,,,,,,,,,,,,,,AFNE08.jpg,AFNE05.jpg,AFSA20.jpg,AFSA09.jpg,AFNE08.jpg,FN,3,num_8,16,num_8,0.683469449752,,,2018_Jan_31_1702,60.0091039324,FEMA4ImagesEEG,001,102833,
AFNE01.JPG,AFNE01.JPG,AFNE01.JPG,AFNE01.JPG,AFNE01.JPG,AFNE01.JPG,4,5,45,3,,,,,,,,,,,,,,,,,,,,,,,AFSA12.jpg,AFNE06.jpg,AFSA08.jpg,AFNE09.jpg,AFSA08.jpg,FS,4,num_2,32,num_4,0.816792433849,,,2018_Jan_31_1702,60.0091039324,FEMA4ImagesEEG,001,102833,
AFNE01.JPG,AFNE01.JPG,AFNE01.JPG,AFNE01.JPG,AFNE01.JPG,AFNE01.JPG,4,6,46,1,,,,,,,,,,,,,,,,,,,,,,,AFNE16.jpg,AFSA20.jpg,AFSA07.jpg,AFNE18.jpg,AFSA07.jpg,FS,4,num_2,32,num_8,0.800020655617,,,2018_Jan_31_1702,60.0091039324,FEMA4ImagesEEG,001,102833,
AFNE01.JPG,AFNE01.JPG,AFNE01.JPG,AFNE01.JPG,AFNE01.JPG,AFNE01.JPG,4,7,47,8,,,,,,,,,,,,,,,,,,,,,,,AFNE17.jpg,AFNE15.jpg,AFSA19.jpg,AFSA13.jpg,AFNE15.jpg,FN,3,num_6,16,num_6,0.633466194151,,,2018_Jan_31_1702,60.0091039324,FEMA4ImagesEEG,001,102833,
AFNE01.JPG,AFNE01.JPG,AFNE01.JPG,AFNE01.JPG,AFNE01.JPG,AFNE01.JPG,4,8,48,9,,,,,,,,,,,,,,,,,,,,,,,AFSA19.jpg,AFNE20.jpg,AFSA02.jpg,AFNE02.jpg,AFSA02.jpg,FS,4,num_2,16,num_2,1.03347010724,,,2018_Jan_31_1702,60.0091039324,FEMA4ImagesEEG,001,102833,
AFNE01.JPG,AFNE01.JPG,AFNE01.JPG,AFNE01.JPG,AFNE01.JPG,AFNE01.JPG,4,9,49,2,,,,,,,,,,,,,,,,,,,,,,,AFSA20.jpg,AFSA14.jpg,AFNE15.jpg,AFNE05.jpg,AFNE05.jpg,FN,3,num_4,32,num_8,1.08308462671,,,2018_Jan_31_1702,60.0091039324,FEMA4ImagesEEG,001,102833,
AFNE01.JPG,AFNE01.JPG,AFNE01.JPG,AFNE01.JPG,AFNE01.JPG,AFNE01.JPG,5,0,50,4,,,,,,,,,,,,,,,,,,,,,,,AFSA05.jpg,AFSA10.jpg,AFNE10.jpg,AFNE04.jpg,AFSA10.jpg,FS,4,num_6,16,num_6,0.833431426086,,,2018_Jan_31_1702,60.0091039324,FEMA4ImagesEEG,001,102833,
AFNE01.JPG,AFNE01.JPG,AFNE01.JPG,AFNE01.JPG,AFNE01.JPG,AFNE01.JPG,5,1,51,7,,,,,,,,,,,,,,,,,,,,,,,AFSA04.jpg,AFSA15.jpg,AFNE06.jpg,AFNE02.jpg,AFNE06.jpg,FN,3,num_2,32,num_4,0.783475639997,,,2018_Jan_31_1702,60.0091039324,FEMA4ImagesEEG,001,102833,
AFNE01.JPG,AFNE01.JPG,AFNE01.JPG,AFNE01.JPG,AFNE01.JPG,AFNE01.JPG,5,2,52,3,,,,,,,,,,,,,,,,,,,,,,,AFNE07.jpg,AFSA01.jpg,AFNE01.jpg,AFSA08.jpg,AFSA01.jpg,FS,4,num_6,32,num_8,0.500191321014,,,2018_Jan_31_1702,60.0091039324,FEMA4ImagesEEG,001,102833,
AFNE01.JPG,AFNE01.JPG,AFNE01.JPG,AFNE01.JPG,AFNE01.JPG,AFNE01.JPG,5,3,53,0,,,,,,,,,,,,,,,,,,,,,,,AFSA06.jpg,AFSA09.jpg,AFNE09.jpg,AFNE20.jpg,AFSA09.jpg,FS,4,num_6,16,num_6,0.733556738938,,,2018_Jan_31_1702,60.0091039324,FEMA4ImagesEEG,001,102833,
AFNE01.JPG,AFNE01.JPG,AFNE01.JPG,AFNE01.JPG,AFNE01.JPG,AFNE01.JPG,5,4,54,8,,,,,,,,,,,,,,,,,,,,,,,AFSA18.jpg,AFSA10.jpg,AFNE16.jpg,AFNE10.jpg,AFSA18.jpg,FS,4,num_8,16,num_8,0.966779427836,,,2018_Jan_31_1702,60.0091039324,FEMA4ImagesEEG,001,102833,
AFNE01.JPG,AFNE01.JPG,AFNE01.JPG,AFNE01.JPG,AFNE01.JPG,AFNE01.JPG,5,5,55,6,,,,,,,,,,,,,,,,,,,,,,,AFSA03.jpg,AFNE06.jpg,AFNE18.jpg,AFSA16.jpg,AFNE18.jpg,FN,3,num_2,32,num_6,0.666768875555,,,2018_Jan_31_1702,60.0091039324,FEMA4ImagesEEG,001,102833,
AFNE01.JPG,AFNE01.JPG,AFNE01.JPG,AFNE01.JPG,AFNE01.JPG,AFNE01.JPG,5,6,56,2,,,,,,,,,,,,,,,,,,,,,,,AFSA14.jpg,AFNE05.jpg,AFNE20.jpg,AFSA12.jpg,AFSA14.jpg,FS,4,num_8,16,num_8,0.466795304441,,,2018_Jan_31_1702,60.0091039324,FEMA4ImagesEEG,001,102833,
AFNE01.JPG,AFNE01.JPG,AFNE01.JPG,AFNE01.JPG,AFNE01.JPG,AFNE01.JPG,5,7,57,5,,,,,,,,,,,,,,,,,,,,,,,AFSA20.jpg,AFNE12.jpg,AFSA18.jpg,AFNE16.jpg,AFSA18.jpg,FS,4,num_2,16,num_2,0.633471646812,,,2018_Jan_31_1702,60.0091039324,FEMA4ImagesEEG,001,102833,
AFNE01.JPG,AFNE01.JPG,AFNE01.JPG,AFNE01.JPG,AFNE01.JPG,AFNE01.JPG,5,8,58,9,,,,,,,,,,,,,,,,,,,,,,,AFSA10.jpg,AFNE16.jpg,AFNE20.jpg,AFSA17.jpg,AFSA10.jpg,FS,4,num_8,32,num_6,0.683500240673,,,2018_Jan_31_1702,60.0091039324,FEMA4ImagesEEG,001,102833,
AFNE01.JPG,AFNE01.JPG,AFNE01.JPG,AFNE01.JPG,AFNE01.JPG,AFNE01.JPG,5,9,59,1,,,,,,,,,,,,,,,,,,,,,,,AFSA09.jpg,AFNE01.jpg,AFNE05.jpg,AFSA08.jpg,AFNE01.jpg,FN,3,num_6,32,num_8,1.01678557007,,,2018_Jan_31_1702,60.0091039324,FEMA4ImagesEEG,001,102833,
,,,,,,,,,,,,,,,,,,,,,,,,,,,,,,,,,,,,,,,,,,,space,5.44983236562,2018_Jan_31_1702,60.0091039324,FEMA4ImagesEEG,001,102833,
AFNE01.JPG,AFNE01.JPG,AFNE01.JPG,AFNE01.JPG,AFNE01.JPG,AFNE01.JPG,,,,,0,0,0,0,,,,,,,,,,,,,,,,,,,AMNE05.jpg,AMSA13.jpg,AMSA02.jpg,AMNE14.jpg,AMNE05.jpg,MN,1,num_8,16,num_8,0.900032619131,,,2018_Jan_31_1702,60.0091039324,FEMA4ImagesEEG,001,102833,
AFNE01.JPG,AFNE01.JPG,AFNE01.JPG,AFNE01.JPG,AFNE01.JPG,AFNE01.JPG,,,,,0,1,1,6,,,,,,,,,,,,,,,,,,,AMNE13.jpg,AMNE03.jpg,AMSA12.jpg,AMSA04.jpg,AMNE13.jpg,MN,1,num_8,32,num_6,0.883429549751,,,2018_Jan_31_1702,60.0091039324,FEMA4ImagesEEG,001,102833,
AFNE01.JPG,AFNE01.JPG,AFNE01.JPG,AFNE01.JPG,AFNE01.JPG,AFNE01.JPG,,,,,0,2,2,2,,,,,,,,,,,,,,,,,,,AMSA06.jpg,AMSA04.jpg,AMNE07.jpg,AMNE05.jpg,AMSA04.jpg,MS,2,num_6,16,num_6,0.716778225149,,,2018_Jan_31_1702,60.0091039324,FEMA4ImagesEEG,001,102833,
AFNE01.JPG,AFNE01.JPG,AFNE01.JPG,AFNE01.JPG,AFNE01.JPG,AFNE01.JPG,,,,,0,3,3,8,,,,,,,,,,,,,,,,,,,AMSA12.jpg,AMNE08.jpg,AMNE06.jpg,AMSA08.jpg,AMSA08.jpg,MS,2,num_4,32,num_8,1.5000546861,,,2018_Jan_31_1702,60.0091039324,FEMA4ImagesEEG,001,102833,
AFNE01.JPG,AFNE01.JPG,AFNE01.JPG,AFNE01.JPG,AFNE01.JPG,AFNE01.JPG,,,,,0,4,4,3,,,,,,,,,,,,,,,,,,,AMNE03.jpg,AMNE10.jpg,AMSA09.jpg,AMSA13.jpg,AMSA13.jpg,MS,2,num_4,32,num_2,0.866766181425,,,2018_Jan_31_1702,60.0091039324,FEMA4ImagesEEG,001,102833,
AFNE01.JPG,AFNE01.JPG,AFNE01.JPG,AFNE01.JPG,AFNE01.JPG,AFNE01.JPG,,,,,0,5,5,1,,,,,,,,,,,,,,,,,,,AMSA07.jpg,AMNE18.jpg,AMSA19.jpg,AMNE05.jpg,AMSA19.jpg,MS,2,num_2,32,num_8,0.73333863623,,,2018_Jan_31_1702,60.0091039324,FEMA4ImagesEEG,001,102833,
AFNE01.JPG,AFNE01.JPG,AFNE01.JPG,AFNE01.JPG,AFNE01.JPG,AFNE01.JPG,,,,,0,6,6,9,,,,,,,,,,,,,,,,,,,AMNE11.jpg,AMSA09.jpg,AMSA01.jpg,AMNE08.jpg,AMSA01.jpg,MS,2,num_2,16,num_2,1.00015684147,,,2018_Jan_31_1702,60.0091039324,FEMA4ImagesEEG,001,102833,
AFNE01.JPG,AFNE01.JPG,AFNE01.JPG,AFNE01.JPG,AFNE01.JPG,AFNE01.JPG,,,,,0,7,7,5,,,,,,,,,,,,,,,,,,,AMSA02.jpg,AMSA20.jpg,AMNE05.jpg,AMNE08.jpg,AMSA20.jpg,MS,2,num_6,16,num_6,1.68324685667,,,2018_Jan_31_1702,60.0091039324,FEMA4ImagesEEG,001,102833,
AFNE01.JPG,AFNE01.JPG,AFNE01.JPG,AFNE01.JPG,AFNE01.JPG,AFNE01.JPG,,,,,0,8,8,4,,,,,,,,,,,,,,,,,,,AMSA09.jpg,AMSA02.jpg,AMNE07.jpg,AMNE16.jpg,AMNE16.jpg,MN,1,num_4,32,num_2,1.05014470161,,,2018_Jan_31_1702,60.0091039324,FEMA4ImagesEEG,001,102833,
AFNE01.JPG,AFNE01.JPG,AFNE01.JPG,AFNE01.JPG,AFNE01.JPG,AFNE01.JPG,,,,,0,9,9,7,,,,,,,,,,,,,,,,,,,AMNE07.jpg,AMNE02.jpg,AMSA09.jpg,AMSA20.jpg,AMNE02.jpg,MN,1,num_6,16,num_6,0.983430608292,,,2018_Jan_31_1702,60.0091039324,FEMA4ImagesEEG,001,102833,
AFNE01.JPG,AFNE01.JPG,AFNE01.JPG,AFNE01.JPG,AFNE01.JPG,AFNE01.JPG,,,,,1,0,10,0,,,,,,,,,,,,,,,,,,,AMNE09.jpg,AMNE07.jpg,AMSA15.jpg,AMSA09.jpg,AMSA15.jpg,MS,2,num_2,32,num_8,1.33341907768,,,2018_Jan_31_1702,60.0091039324,FEMA4ImagesEEG,001,102833,
AFNE01.JPG,AFNE01.JPG,AFNE01.JPG,AFNE01.JPG,AFNE01.JPG,AFNE01.JPG,,,,,1,1,11,3,,,,,,,,,,,,,,,,,,,AMNE17.jpg,AMSA16.jpg,AMNE09.jpg,AMSA18.jpg,AMSA16.jpg,MS,2,num_6,32,num_8,1.00010071218,,,2018_Jan_31_1702,60.0091039324,FEMA4ImagesEEG,001,102833,
AFNE01.JPG,AFNE01.JPG,AFNE01.JPG,AFNE01.JPG,AFNE01.JPG,AFNE01.JPG,,,,,1,2,12,6,,,,,,,,,,,,,,,,,,,AMSA19.jpg,AMSA16.jpg,AMNE02.jpg,AMNE19.jpg,AMNE19.jpg,MN,1,num_4,32,num_6,0.816761001479,,,2018_Jan_31_1702,60.0091039324,FEMA4ImagesEEG,001,102833,
AFNE01.JPG,AFNE01.JPG,AFNE01.JPG,AFNE01.JPG,AFNE01.JPG,AFNE01.JPG,,,,,1,3,13,2,,,,,,,,,,,,,,,,,,,AMNE18.jpg,AMSA10.jpg,AMNE08.jpg,AMSA19.jpg,AMSA19.jpg,MS,2,num_4,32,num_8,0.80017332756,,,2018_Jan_31_1702,60.0091039324,FEMA4ImagesEEG,001,102833,
AFNE01.JPG,AFNE01.JPG,AFNE01.JPG,AFNE01.JPG,AFNE01.JPG,AFNE01.JPG,,,,,1,4,14,7,,,,,,,,,,,,,,,,,,,AMNE06.jpg,AMNE11.jpg,AMSA18.jpg,AMSA14.jpg,AMSA14.jpg,MS,2,num_4,32,num_6,2.23333462689,,,2018_Jan_31_1702,60.0091039324,FEMA4ImagesEEG,001,102833,
AFNE01.JPG,AFNE01.JPG,AFNE01.JPG,AFNE01.JPG,AFNE01.JPG,AFNE01.JPG,,,,,1,5,15,1,,,,,,,,,,,,,,,,,,,AMNE08.jpg,AMSA03.jpg,AMSA07.jpg,AMNE14.jpg,AMSA07.jpg,MS,2,num_2,32,num_4,0.599986464833,,,2018_Jan_31_1702,60.0091039324,FEMA4ImagesEEG,001,102833,
AFNE01.JPG,AFNE01.JPG,AFNE01.JPG,AFNE01.JPG,AFNE01.JPG,AFNE01.JPG,,,,,1,6,16,8,,,,,,,,,,,,,,,,,,,AMNE02.jpg,AMSA19.jpg,AMSA18.jpg,AMNE16.jpg,AMNE02.jpg,MN,1,num_8,32,num_2,0.866834178101,,,2018_Jan_31_1702,60.0091039324,FEMA4ImagesEEG,001,102833,
AFNE01.JPG,AFNE01.JPG,AFNE01.JPG,AFNE01.JPG,AFNE01.JPG,AFNE01.JPG,,,,,1,7,17,5,,,,,,,,,,,,,,,,,,,AMNE08.jpg,AMSA07.jpg,AMSA17.jpg,AMNE18.jpg,AMNE08.jpg,MN,1,num_8,32,num_6,0.716859051492,,,2018_Jan_31_1702,60.0091039324,FEMA4ImagesEEG,001,102833,
AFNE01.JPG,AFNE01.JPG,AFNE01.JPG,AFNE01.JPG,AFNE01.JPG,AFNE01.JPG,,,,,1,8,18,9,,,,,,,,,,,,,,,,,,,AMSA06.jpg,AMNE16.jpg,AMSA04.jpg,AMNE08.jpg,AMNE08.jpg,MN,1,num_4,16,num_4,0.566764609772,,,2018_Jan_31_1702,60.0091039324,FEMA4ImagesEEG,001,102833,
AFNE01.JPG,AFNE01.JPG,AFNE01.JPG,AFNE01.JPG,AFNE01.JPG,AFNE01.JPG,,,,,1,9,19,4,,,,,,,,,,,,,,,,,,,AMNE19.jpg,AMSA04.jpg,AMSA14.jpg,AMNE17.jpg,AMSA04.jpg,MS,2,num_6,32,num_8,0.966768522863,,,2018_Jan_31_1702,60.0091039324,FEMA4ImagesEEG,001,102833,
AFNE01.JPG,AFNE01.JPG,AFNE01.JPG,AFNE01.JPG,AFNE01.JPG,AFNE01.JPG,,,,,2,0,20,4,,,,,,,,,,,,,,,,,,,AMNE08.jpg,AMSA19.jpg,AMSA16.jpg,AMNE02.jpg,AMNE08.jpg,MN,1,num_8,32,num_2,0.716793299885,,,2018_Jan_31_1702,60.0091039324,FEMA4ImagesEEG,001,102833,
AFNE01.JPG,AFNE01.JPG,AFNE01.JPG,AFNE01.JPG,AFNE01.JPG,AFNE01.JPG,,,,,2,1,21,2,,,,,,,,,,,,,,,,,,,AMNE02.jpg,AMNE13.jpg,AMSA01.jpg,AMSA19.jpg,AMSA01.jpg,MS,2,num_2,32,num_6,1.06672467769,,,2018_Jan_31_1702,60.0091039324,FEMA4ImagesEEG,001,102833,
AFNE01.JPG,AFNE01.JPG,AFNE01.JPG,AFNE01.JPG,AFNE01.JPG,AFNE01.JPG,,,,,2,2,22,9,,,,,,,,,,,,,,,,,,,AMSA02.jpg,AMNE10.jpg,AMSA15.jpg,AMNE07.jpg,AMSA02.jpg,MS,2,num_8,32,num_4,0.61668960494,,,2018_Jan_31_1702,60.0091039324,FEMA4ImagesEEG,001,102833,
AFNE01.JPG,AFNE01.JPG,AFNE01.JPG,AFNE01.JPG,AFNE01.JPG,AFNE01.JPG,,,,,2,3,23,7,,,,,,,,,,,,,,,,,,,AMNE01.jpg,AMNE20.jpg,AMSA16.jpg,AMSA02.jpg,AMSA02.jpg,MS,2,num_4,32,num_8,0.83343784092,,,2018_Jan_31_1702,60.0091039324,FEMA4ImagesEEG,001,102833,
AFNE01.JPG,AFNE01.JPG,AFNE01.JPG,AFNE01.JPG,AFNE01.JPG,AFNE01.JPG,,,,,2,4,24,8,,,,,,,,,,,,,,,,,,,AMSA20.jpg,AMNE05.jpg,AMSA19.jpg,AMNE13.jpg,AMNE13.jpg,MN,1,num_4,32,num_8,1.05009306245,,,2018_Jan_31_1702,60.0091039324,FEMA4ImagesEEG,001,102833,
AFNE01.JPG,AFNE01.JPG,AFNE01.JPG,AFNE01.JPG,AFNE01.JPG,AFNE01.JPG,,,,,2,5,25,0,,,,,,,,,,,,,,,,,,,AMSA13.jpg,AMNE08.jpg,AMSA06.jpg,AMNE15.jpg,AMSA06.jpg,MS,2,num_2,16,num_2,1.0334855027,,,2018_Jan_31_1702,60.0091039324,FEMA4ImagesEEG,001,102833,
AFNE01.JPG,AFNE01.JPG,AFNE01.JPG,AFNE01.JPG,AFNE01.JPG,AFNE01.JPG,,,,,2,6,26,5,,,,,,,,,,,,,,,,,,,AMSA15.jpg,AMNE16.jpg,AMSA16.jpg,AMNE19.jpg,AMNE16.jpg,MN,1,num_6,16,num_6,0.96674831619,,,2018_Jan_31_1702,60.0091039324,FEMA4ImagesEEG,001,102833,
AFNE01.JPG,AFNE01.JPG,AFNE01.JPG,AFNE01.JPG,AFNE01.JPG,AFNE01.JPG,,,,,2,7,27,1,,,,,,,,,,,,,,,,,,,AMSA15.jpg,AMSA12.jpg,AMNE04.jpg,AMNE16.jpg,AMNE16.jpg,MN,1,num_4,16,num_4,0.583497578627,,,2018_Jan_31_1702,60.0091039324,FEMA4ImagesEEG,001,102833,
AFNE01.JPG,AFNE01.JPG,AFNE01.JPG,AFNE01.JPG,AFNE01.JPG,AFNE01.JPG,,,,,2,8,28,6,,,,,,,,,,,,,,,,,,,AMNE01.jpg,AMSA10.jpg,AMNE14.jpg,AMSA11.jpg,AMSA11.jpg,MS,2,num_4,32,num_2,1.63344342168,,,2018_Jan_31_1702,60.0091039324,FEMA4ImagesEEG,001,102833,
AFNE01.JPG,AFNE01.JPG,AFNE01.JPG,AFNE01.JPG,AFNE01.JPG,AFNE01.JPG,,,,,2,9,29,3,,,,,,,,,,,,,,,,,,,AMNE13.jpg,AMSA03.jpg,AMNE08.jpg,AMSA08.jpg,AMNE08.jpg,MN,1,num_2,32,num_6,0.75017809053,,,2018_Jan_31_1702,60.0091039324,FEMA4ImagesEEG,001,102833,
AFNE01.JPG,AFNE01.JPG,AFNE01.JPG,AFNE01.JPG,AFNE01.JPG,AFNE01.JPG,,,,,3,0,30,5,,,,,,,,,,,,,,,,,,,AMNE10.jpg,AMNE20.jpg,AMSA03.jpg,AMSA09.jpg,AMSA03.jpg,MS,2,num_2,16,num_2,0.800139329163,,,2018_Jan_31_1702,60.0091039324,FEMA4ImagesEEG,001,102833,
AFNE01.JPG,AFNE01.JPG,AFNE01.JPG,AFNE01.JPG,AFNE01.JPG,AFNE01.JPG,,,,,3,1,31,3,,,,,,,,,,,,,,,,,,,AMNE14.jpg,AMSA11.jpg,AMNE11.jpg,AMSA10.jpg,AMNE11.jpg,MN,1,num_2,32,num_8,1.31675314333,,,2018_Jan_31_1702,60.0091039324,FEMA4ImagesEEG,001,102833,
AFNE01.JPG,AFNE01.JPG,AFNE01.JPG,AFNE01.JPG,AFNE01.JPG,AFNE01.JPG,,,,,3,2,32,1,,,,,,,,,,,,,,,,,,,AMNE07.jpg,AMSA03.jpg,AMSA06.jpg,AMNE10.jpg,AMNE10.jpg,MN,1,num_4,32,num_6,0.783500016201,,,2018_Jan_31_1702,60.0091039324,FEMA4ImagesEEG,001,102833,
AFNE01.JPG,AFNE01.JPG,AFNE01.JPG,AFNE01.JPG,AFNE01.JPG,AFNE01.JPG,,,,,3,3,33,4,,,,,,,,,,,,,,,,,,,AMNE16.jpg,AMSA08.jpg,AMNE02.jpg,AMSA12.jpg,AMNE02.jpg,MN,1,num_2,32,num_4,0.68346752529,,,2018_Jan_31_1702,60.0091039324,FEMA4ImagesEEG,001,102833,
AFNE01.JPG,AFNE01.JPG,AFNE01.JPG,AFNE01.JPG,AFNE01.JPG,AFNE01.JPG,,,,,3,4,34,0,,,,,,,,,,,,,,,,,,,AMSA07.jpg,AMNE10.jpg,AMSA03.jpg,AMNE02.jpg,AMSA07.jpg,MS,2,num_8,32,num_6,0.933501122752,,,2018_Jan_31_1702,60.0091039324,FEMA4ImagesEEG,001,102833,
AFNE01.JPG,AFNE01.JPG,AFNE01.JPG,AFNE01.JPG,AFNE01.JPG,AFNE01.JPG,,,,,3,5,35,9,,,,,,,,,,,,,,,,,,,AMNE18.jpg,AMSA18.jpg,AMSA14.jpg,AMNE03.jpg,AMSA14.jpg,MS,2,num_2,16,num_2,0.900137821678,,,2018_Jan_31_1702,60.0091039324,FEMA4ImagesEEG,001,102833,
AFNE01.JPG,AFNE01.JPG,AFNE01.JPG,AFNE01.JPG,AFNE01.JPG,AFNE01.JPG,,,,,3,6,36,7,,,,,,,,,,,,,,,,,,,AMNE08.jpg,AMSA02.jpg,AMSA19.jpg,AMNE12.jpg,AMSA02.jpg,MS,2,num_6,16,num_6,0.800398165709,,,2018_Jan_31_1702,60.0091039324,FEMA4ImagesEEG,001,102833,
AFNE01.JPG,AFNE01.JPG,AFNE01.JPG,AFNE01.JPG,AFNE01.JPG,AFNE01.JPG,,,,,3,7,37,6,,,,,,,,,,,,,,,,,,,AMSA07.jpg,AMNE01.jpg,AMSA17.jpg,AMNE19.jpg,AMSA07.jpg,MS,2,num_8,16,num_8,0.70016425068,,,2018_Jan_31_1702,60.0091039324,FEMA4ImagesEEG,001,102833,
AFNE01.JPG,AFNE01.JPG,AFNE01.JPG,AFNE01.JPG,AFNE01.JPG,AFNE01.JPG,,,,,3,8,38,8,,,,,,,,,,,,,,,,,,,AMNE08.jpg,AMNE20.jpg,AMSA12.jpg,AMSA15.jpg,AMNE08.jpg,MN,1,num_8,32,num_6,0.633329559234,,,2018_Jan_31_1702,60.0091039324,FEMA4ImagesEEG,001,102833,
AFNE01.JPG,AFNE01.JPG,AFNE01.JPG,AFNE01.JPG,AFNE01.JPG,AFNE01.JPG,,,,,3,9,39,2,,,,,,,,,,,,,,,,,,,AMNE15.jpg,AMSA09.jpg,AMNE04.jpg,AMSA15.jpg,AMSA15.jpg,MS,2,num_4,32,num_2,0.53353217023,,,2018_Jan_31_1702,60.0091039324,FEMA4ImagesEEG,001,102833,
AFNE01.JPG,AFNE01.JPG,AFNE01.JPG,AFNE01.JPG,AFNE01.JPG,AFNE01.JPG,,,,,4,0,40,7,,,,,,,,,,,,,,,,,,,AMSA02.jpg,AMNE05.jpg,AMNE03.jpg,AMSA09.jpg,AMSA09.jpg,MS,2,num_4,32,num_2,1.08345572208,,,2018_Jan_31_1702,60.0091039324,FEMA4ImagesEEG,001,102833,
AFNE01.JPG,AFNE01.JPG,AFNE01.JPG,AFNE01.JPG,AFNE01.JPG,AFNE01.JPG,,,,,4,1,41,8,,,,,,,,,,,,,,,,,,,AMNE06.jpg,AMSA20.jpg,AMSA08.jpg,AMNE08.jpg,AMNE08.jpg,MN,1,num_4,16,num_4,1.38257526071,,,2018_Jan_31_1702,60.0091039324,FEMA4ImagesEEG,001,102833,
AFNE01.JPG,AFNE01.JPG,AFNE01.JPG,AFNE01.JPG,AFNE01.JPG,AFNE01.JPG,,,,,4,2,42,5,,,,,,,,,,,,,,,,,,,AMNE11.jpg,AMNE01.jpg,AMSA01.jpg,AMSA07.jpg,AMSA07.jpg,MS,2,num_4,32,num_8,0.966789691593,,,2018_Jan_31_1702,60.0091039324,FEMA4ImagesEEG,001,102833,
AFNE01.JPG,AFNE01.JPG,AFNE01.JPG,AFNE01.JPG,AFNE01.JPG,AFNE01.JPG,,,,,4,3,43,3,,,,,,,,,,,,,,,,,,,AMSA10.jpg,AMSA12.jpg,AMNE15.jpg,AMNE04.jpg,AMNE04.jpg,MN,1,num_4,32,num_8,1.01676632569,,,2018_Jan_31_1702,60.0091039324,FEMA4ImagesEEG,001,102833,
AFNE01.JPG,AFNE01.JPG,AFNE01.JPG,AFNE01.JPG,AFNE01.JPG,AFNE01.JPG,,,,,4,4,44,0,,,,,,,,,,,,,,,,,,,AMSA09.jpg,AMNE20.jpg,AMSA02.jpg,AMNE05.jpg,AMNE20.jpg,MN,1,num_6,32,num_8,1.08299963083,,,2018_Jan_31_1702,60.0091039324,FEMA4ImagesEEG,001,102833,
AFNE01.JPG,AFNE01.JPG,AFNE01.JPG,AFNE01.JPG,AFNE01.JPG,AFNE01.JPG,,,,,4,5,45,1,,,,,,,,,,,,,,,,,,,AMSA07.jpg,AMSA01.jpg,AMNE18.jpg,AMNE14.jpg,AMSA07.jpg,MS,2,num_8,32,num_2,0.633499871939,,,2018_Jan_31_1702,60.0091039324,FEMA4ImagesEEG,001,102833,
AFNE01.JPG,AFNE01.JPG,AFNE01.JPG,AFNE01.JPG,AFNE01.JPG,AFNE01.JPG,,,,,4,6,46,6,,,,,,,,,,,,,,,,,,,AMSA15.jpg,AMNE10.jpg,AMNE04.jpg,AMSA20.jpg,AMSA15.jpg,MS,2,num_8,16,num_8,0.716868032119,,,2018_Jan_31_1702,60.0091039324,FEMA4ImagesEEG,001,102833,
AFNE01.JPG,AFNE01.JPG,AFNE01.JPG,AFNE01.JPG,AFNE01.JPG,AFNE01.JPG,,,,,4,7,47,4,,,,,,,,,,,,,,,,,,,AMSA18.jpg,AMSA04.jpg,AMNE11.jpg,AMNE14.jpg,AMNE11.jpg,MN,1,num_2,32,num_4,1.43343456928,,,2018_Jan_31_1702,60.0091039324,FEMA4ImagesEEG,001,102833,
AFNE01.JPG,AFNE01.JPG,AFNE01.JPG,AFNE01.JPG,AFNE01.JPG,AFNE01.JPG,,,,,4,8,48,9,,,,,,,,,,,,,,,,,,,AMSA20.jpg,AMNE17.jpg,AMSA16.jpg,AMNE03.jpg,AMNE17.jpg,MN,1,num_6,32,num_2,0.900130765396,,,2018_Jan_31_1702,60.0091039324,FEMA4ImagesEEG,001,102833,
AFNE01.JPG,AFNE01.JPG,AFNE01.JPG,AFNE01.JPG,AFNE01.JPG,AFNE01.JPG,,,,,4,9,49,2,,,,,,,,,,,,,,,,,,,AMSA07.jpg,AMNE08.jpg,AMSA05.jpg,AMNE14.jpg,AMNE14.jpg,MN,1,num_4,32,num_8,0.816769661498,,,2018_Jan_31_1702,60.0091039324,FEMA4ImagesEEG,001,102833,
AFNE01.JPG,AFNE01.JPG,AFNE01.JPG,AFNE01.JPG,AFNE01.JPG,AFNE01.JPG,,,,,5,0,50,3,,,,,,,,,,,,,,,,,,,AMNE08.jpg,AMSA09.jpg,AMSA03.jpg,AMNE19.jpg,AMNE19.jpg,MN,1,num_4,16,num_4,0.616822070209,,,2018_Jan_31_1702,60.0091039324,FEMA4ImagesEEG,001,102833,
AFNE01.JPG,AFNE01.JPG,AFNE01.JPG,AFNE01.JPG,AFNE01.JPG,AFNE01.JPG,,,,,5,1,51,7,,,,,,,,,,,,,,,,,,,AMNE13.jpg,AMSA18.jpg,AMSA05.jpg,AMNE04.jpg,AMNE04.jpg,MN,1,num_4,32,num_8,1.05021141539,,,2018_Jan_31_1702,60.0091039324,FEMA4ImagesEEG,001,102833,
AFNE01.JPG,AFNE01.JPG,AFNE01.JPG,AFNE01.JPG,AFNE01.JPG,AFNE01.JPG,,,,,5,2,52,1,,,,,,,,,,,,,,,,,,,AMSA04.jpg,AMNE18.jpg,AMSA16.jpg,AMNE05.jpg,AMSA16.jpg,MS,2,num_2,32,num_6,0.883444303763,,,2018_Jan_31_1702,60.0091039324,FEMA4ImagesEEG,001,102833,
AFNE01.JPG,AFNE01.JPG,AFNE01.JPG,AFNE01.JPG,AFNE01.JPG,AFNE01.JPG,,,,,5,3,53,6,,,,,,,,,,,,,,,,,,,AMSA05.jpg,AMNE10.jpg,AMSA15.jpg,AMNE20.jpg,AMSA05.jpg,MS,2,num_8,32,num_4,1.15013228892,,,2018_Jan_31_1702,60.0091039324,FEMA4ImagesEEG,001,102833,
AFNE01.JPG,AFNE01.JPG,AFNE01.JPG,AFNE01.JPG,AFNE01.JPG,AFNE01.JPG,,,,,5,4,54,8,,,,,,,,,,,,,,,,,,,AMSA08.jpg,AMNE12.jpg,AMNE02.jpg,AMSA14.jpg,AMNE02.jpg,MN,1,num_2,32,num_8,0.88346483116,,,2018_Jan_31_1702,60.0091039324,FEMA4ImagesEEG,001,102833,
AFNE01.JPG,AFNE01.JPG,AFNE01.JPG,AFNE01.JPG,AFNE01.JPG,AFNE01.JPG,,,,,5,5,55,9,,,,,,,,,,,,,,,,,,,AMNE19.jpg,AMSA20.jpg,AMSA12.jpg,AMNE07.jpg,AMNE07.jpg,MN,1,num_4,32,num_2,0.816789547214,,,2018_Jan_31_1702,60.0091039324,FEMA4ImagesEEG,001,102833,
AFNE01.JPG,AFNE01.JPG,AFNE01.JPG,AFNE01.JPG,AFNE01.JPG,AFNE01.JPG,,,,,5,6,56,0,,,,,,,,,,,,,,,,,,,AMNE04.jpg,AMSA03.jpg,AMNE20.jpg,AMSA04.jpg,AMNE20.jpg,MN,1,num_2,32,num_8,0.633579415269,,,2018_Jan_31_1702,60.0091039324,FEMA4ImagesEEG,001,102833,
AFNE01.JPG,AFNE01.JPG,AFNE01.JPG,AFNE01.JPG,AFNE01.JPG,AFNE01.JPG,,,,,5,7,57,2,,,,,,,,,,,,,,,,,,,AMNE15.jpg,AMSA06.jpg,AMNE10.jpg,AMSA11.jpg,AMNE15.jpg,MN,1,num_8,32,num_6,1.01661621977,,,2018_Jan_31_1702,60.0091039324,FEMA4ImagesEEG,001,102833,
AFNE01.JPG,AFNE01.JPG,AFNE01.JPG,AFNE01.JPG,AFNE01.JPG,AFNE01.JPG,,,,,5,8,58,5,,,,,,,,,,,,,,,,,,,AMSA04.jpg,AMNE11.jpg,AMSA02.jpg,AMNE16.jpg,AMSA02.jpg,MS,2,num_2,32,num_8,0.633540605777,,,2018_Jan_31_1702,60.0091039324,FEMA4ImagesEEG,001,102833,
AFNE01.JPG,AFNE01.JPG,AFNE01.JPG,AFNE01.JPG,AFNE01.JPG,AFNE01.JPG,,,,,5,9,59,4,,,,,,,,,,,,,,,,,,,AMSA08.jpg,AMSA05.jpg,AMNE17.jpg,AMNE09.jpg,AMNE17.jpg,MN,1,num_2,32,num_8,0.766802970204,,,2018_Jan_31_1702,60.0091039324,FEMA4ImagesEEG,001,102833,
,,,,,,,,,,,,,,,,,,,,,,,,,,,,,,,,,,,,,,,,,,,space,8.01619188162,2018_Jan_31_1702,60.0091039324,FEMA4ImagesEEG,001,102833,
AFNE01.JPG,AFNE01.JPG,AFNE01.JPG,AFNE01.JPG,AFNE01.JPG,AFNE01.JPG,,,,,,,,,0,0,0,1,,,,,,,,,,,,,,,AFNE04.jpg,AFSA14.jpg,AFSA13.jpg,AFNE13.jpg,AFSA13.jpg,FS,4,num_2,32,num_8,1.03347299388,,,2018_Jan_31_1702,60.0091039324,FEMA4ImagesEEG,001,102833,
AFNE01.JPG,AFNE01.JPG,AFNE01.JPG,AFNE01.JPG,AFNE01.JPG,AFNE01.JPG,,,,,,,,,0,1,1,5,,,,,,,,,,,,,,,AFNE20.jpg,AFNE09.jpg,AFSA06.jpg,AFSA10.jpg,AFNE20.jpg,FN,3,num_8,16,num_8,1.26677682996,,,2018_Jan_31_1702,60.0091039324,FEMA4ImagesEEG,001,102833,
AFNE01.JPG,AFNE01.JPG,AFNE01.JPG,AFNE01.JPG,AFNE01.JPG,AFNE01.JPG,,,,,,,,,0,2,2,6,,,,,,,,,,,,,,,AFSA04.jpg,AFNE18.jpg,AFNE13.jpg,AFSA16.jpg,AFNE13.jpg,FN,3,num_2,16,num_2,0.90021319536,,,2018_Jan_31_1702,60.0091039324,FEMA4ImagesEEG,001,102833,
AFNE01.JPG,AFNE01.JPG,AFNE01.JPG,AFNE01.JPG,AFNE01.JPG,AFNE01.JPG,,,,,,,,,0,3,3,7,,,,,,,,,,,,,,,AFSA15.jpg,AFNE13.jpg,AFSA17.jpg,AFNE10.jpg,AFSA17.jpg,FS,4,num_2,32,num_8,0.550195217947,,,2018_Jan_31_1702,60.0091039324,FEMA4ImagesEEG,001,102833,
AFNE01.JPG,AFNE01.JPG,AFNE01.JPG,AFNE01.JPG,AFNE01.JPG,AFNE01.JPG,,,,,,,,,0,4,4,9,,,,,,,,,,,,,,,AFNE10.jpg,AFSA12.jpg,AFNE14.jpg,AFSA07.jpg,AFSA07.jpg,FS,4,num_4,32,num_2,0.866794406436,,,2018_Jan_31_1702,60.0091039324,FEMA4ImagesEEG,001,102833,
AFNE01.JPG,AFNE01.JPG,AFNE01.JPG,AFNE01.JPG,AFNE01.JPG,AFNE01.JPG,,,,,,,,,0,5,5,2,,,,,,,,,,,,,,,AFNE11.jpg,AFSA12.jpg,AFSA01.jpg,AFNE17.jpg,AFNE11.jpg,FN,3,num_8,32,num_4,0.916510920972,,,2018_Jan_31_1702,60.0091039324,FEMA4ImagesEEG,001,102833,
AFNE01.JPG,AFNE01.JPG,AFNE01.JPG,AFNE01.JPG,AFNE01.JPG,AFNE01.JPG,,,,,,,,,0,6,6,8,,,,,,,,,,,,,,,AFNE20.jpg,AFSA19.jpg,AFSA13.jpg,AFNE17.jpg,AFSA13.jpg,FS,4,num_2,32,num_8,0.983418420074,,,2018_Jan_31_1702,60.0091039324,FEMA4ImagesEEG,001,102833,
AFNE01.JPG,AFNE01.JPG,AFNE01.JPG,AFNE01.JPG,AFNE01.JPG,AFNE01.JPG,,,,,,,,,0,7,7,3,,,,,,,,,,,,,,,AFNE04.jpg,AFSA19.jpg,AFNE13.jpg,AFSA09.jpg,AFSA19.jpg,FS,4,num_6,16,num_6,0.30020492035,,,2018_Jan_31_1702,60.0091039324,FEMA4ImagesEEG,001,102833,
AFNE01.JPG,AFNE01.JPG,AFNE01.JPG,AFNE01.JPG,AFNE01.JPG,AFNE01.JPG,,,,,,,,,0,8,8,4,,,,,,,,,,,,,,,AFNE10.jpg,AFNE02.jpg,AFSA20.jpg,AFSA10.jpg,AFSA10.jpg,FS,4,num_4,16,num_4,0.80019385484,,,2018_Jan_31_1702,60.0091039324,FEMA4ImagesEEG,001,102833,
AFNE01.JPG,AFNE01.JPG,AFNE01.JPG,AFNE01.JPG,AFNE01.JPG,AFNE01.JPG,,,,,,,,,0,9,9,0,,,,,,,,,,,,,,,AFNE15.jpg,AFSA14.jpg,AFSA05.jpg,AFNE14.jpg,AFNE14.jpg,FN,3,num_4,32,num_8,1.11679785443,,,2018_Jan_31_1702,60.0091039324,FEMA4ImagesEEG,001,102833,
AFNE01.JPG,AFNE01.JPG,AFNE01.JPG,AFNE01.JPG,AFNE01.JPG,AFNE01.JPG,,,,,,,,,1,0,10,5,,,,,,,,,,,,,,,AFNE09.jpg,AFNE10.jpg,AFSA06.jpg,AFSA07.jpg,AFSA07.jpg,FS,4,num_4,32,num_8,1.0501617007,,,2018_Jan_31_1702,60.0091039324,FEMA4ImagesEEG,001,102833,
AFNE01.JPG,AFNE01.JPG,AFNE01.JPG,AFNE01.JPG,AFNE01.JPG,AFNE01.JPG,,,,,,,,,1,1,11,3,,,,,,,,,,,,,,,AFNE09.jpg,AFSA06.jpg,AFNE20.jpg,AFSA02.jpg,AFNE09.jpg,FN,3,num_8,32,num_6,0.58357551822,,,2018_Jan_31_1702,60.0091039324,FEMA4ImagesEEG,001,102833,
AFNE01.JPG,AFNE01.JPG,AFNE01.JPG,AFNE01.JPG,AFNE01.JPG,AFNE01.JPG,,,,,,,,,1,2,12,4,,,,,,,,,,,,,,,AFSA11.jpg,AFNE14.jpg,AFSA17.jpg,AFNE17.jpg,AFSA11.jpg,FS,4,num_8,32,num_2,1.6001019309,,,2018_Jan_31_1702,60.0091039324,FEMA4ImagesEEG,001,102833,
AFNE01.JPG,AFNE01.JPG,AFNE01.JPG,AFNE01.JPG,AFNE01.JPG,AFNE01.JPG,,,,,,,,,1,3,13,8,,,,,,,,,,,,,,,AFNE08.jpg,AFNE06.jpg,AFSA12.jpg,AFSA09.jpg,AFSA09.jpg,FS,4,num_4,16,num_4,0.53346417367,,,2018_Jan_31_1702,60.0091039324,FEMA4ImagesEEG,001,102833,
AFNE01.JPG,AFNE01.JPG,AFNE01.JPG,AFNE01.JPG,AFNE01.JPG,AFNE01.JPG,,,,,,,,,1,4,14,7,,,,,,,,,,,,,,,AFSA08.jpg,AFSA20.jpg,AFNE11.jpg,AFNE20.jpg,AFNE11.jpg,FN,3,num_2,16,num_2,0.866848290665,,,2018_Jan_31_1702,60.0091039324,FEMA4ImagesEEG,001,102833,
AFNE01.JPG,AFNE01.JPG,AFNE01.JPG,AFNE01.JPG,AFNE01.JPG,AFNE01.JPG,,,,,,,,,1,5,15,0,,,,,,,,,,,,,,,AFNE18.jpg,AFSA18.jpg,AFSA10.jpg,AFNE02.jpg,AFNE02.jpg,FN,3,num_4,16,num_4,0.983439588919,,,2018_Jan_31_1702,60.0091039324,FEMA4ImagesEEG,001,102833,
AFNE01.JPG,AFNE01.JPG,AFNE01.JPG,AFNE01.JPG,AFNE01.JPG,AFNE01.JPG,,,,,,,,,1,6,16,2,,,,,,,,,,,,,,,AFNE17.jpg,AFSA13.jpg,AFSA10.jpg,AFNE14.jpg,AFSA10.jpg,FS,4,num_2,32,num_4,1.03345214587,,,2018_Jan_31_1702,60.0091039324,FEMA4ImagesEEG,001,102833,
AFNE01.JPG,AFNE01.JPG,AFNE01.JPG,AFNE01.JPG,AFNE01.JPG,AFNE01.JPG,,,,,,,,,1,7,17,6,,,,,,,,,,,,,,,AFSA03.jpg,AFNE12.jpg,AFSA11.jpg,AFNE15.jpg,AFSA11.jpg,FS,4,num_2,16,num_2,0.91680632194,,,2018_Jan_31_1702,60.0091039324,FEMA4ImagesEEG,001,102833,
AFNE01.JPG,AFNE01.JPG,AFNE01.JPG,AFNE01.JPG,AFNE01.JPG,AFNE01.JPG,,,,,,,,,1,8,18,1,,,,,,,,,,,,,,,AFNE02.jpg,AFNE01.jpg,AFSA06.jpg,AFSA08.jpg,AFSA08.jpg,FS,4,num_4,16,num_4,0.766810667934,,,2018_Jan_31_1702,60.0091039324,FEMA4ImagesEEG,001,102833,
AFNE01.JPG,AFNE01.JPG,AFNE01.JPG,AFNE01.JPG,AFNE01.JPG,AFNE01.JPG,,,,,,,,,1,9,19,9,,,,,,,,,,,,,,,AFSA08.jpg,AFSA09.jpg,AFNE18.jpg,AFNE03.jpg,AFNE03.jpg,FN,3,num_4,32,num_6,0.550166351371,,,2018_Jan_31_1702,60.0091039324,FEMA4ImagesEEG,001,102833,
AFNE01.JPG,AFNE01.JPG,AFNE01.JPG,AFNE01.JPG,AFNE01.JPG,AFNE01.JPG,,,,,,,,,2,0,20,0,,,,,,,,,,,,,,,AFNE16.jpg,AFSA08.jpg,AFNE11.jpg,AFSA07.jpg,AFSA07.jpg,FS,4,num_4,32,num_8,0.850164394942,,,2018_Jan_31_1702,60.0091039324,FEMA4ImagesEEG,001,102833,
AFNE01.JPG,AFNE01.JPG,AFNE01.JPG,AFNE01.JPG,AFNE01.JPG,AFNE01.JPG,,,,,,,,,2,1,21,6,,,,,,,,,,,,,,,AFNE19.jpg,AFSA10.jpg,AFSA20.jpg,AFNE04.jpg,AFNE04.jpg,FN,3,num_4,32,num_2,0.933455898543,,,2018_Jan_31_1702,60.0091039324,FEMA4ImagesEEG,001,102833,
AFNE01.JPG,AFNE01.JPG,AFNE01.JPG,AFNE01.JPG,AFNE01.JPG,AFNE01.JPG,,,,,,,,,2,2,22,7,,,,,,,,,,,,,,,AFSA04.jpg,AFNE19.jpg,AFSA12.jpg,AFNE15.jpg,AFSA04.jpg,FS,4,num_8,16,num_8,0.450213724631,,,2018_Jan_31_1702,60.0091039324,FEMA4ImagesEEG,001,102833,
AFNE01.JPG,AFNE01.JPG,AFNE01.JPG,AFNE01.JPG,AFNE01.JPG,AFNE01.JPG,,,,,,,,,2,3,23,4,,,,,,,,,,,,,,,AFNE18.jpg,AFNE06.jpg,AFSA12.jpg,AFSA15.jpg,AFSA12.jpg,FS,4,num_2,32,num_6,0.583444977412,,,2018_Jan_31_1702,60.0091039324,FEMA4ImagesEEG,001,102833,
AFNE01.JPG,AFNE01.JPG,AFNE01.JPG,AFNE01.JPG,AFNE01.JPG,AFNE01.JPG,,,,,,,,,2,4,24,3,,,,,,,,,,,,,,,AFNE05.jpg,AFNE08.jpg,AFSA13.jpg,AFSA10.jpg,AFSA13.jpg,FS,4,num_2,32,num_8,1.00013182382,,,2018_Jan_31_1702,60.0091039324,FEMA4ImagesEEG,001,102833,
AFNE01.JPG,AFNE01.JPG,AFNE01.JPG,AFNE01.JPG,AFNE01.JPG,AFNE01.JPG,,,,,,,,,2,5,25,2,,,,,,,,,,,,,,,AFNE09.jpg,AFSA09.jpg,AFNE15.jpg,AFSA04.jpg,AFNE15.jpg,FN,3,num_2,16,num_2,0.816837337334,,,2018_Jan_31_1702,60.0091039324,FEMA4ImagesEEG,001,102833,
AFNE01.JPG,AFNE01.JPG,AFNE01.JPG,AFNE01.JPG,AFNE01.JPG,AFNE01.JPG,,,,,,,,,2,6,26,1,,,,,,,,,,,,,,,AFSA11.jpg,AFNE03.jpg,AFSA05.jpg,AFNE16.jpg,AFNE16.jpg,FN,3,num_4,16,num_4,0.683493825956,,,2018_Jan_31_1702,60.0091039324,FEMA4ImagesEEG,001,102833,
AFNE01.JPG,AFNE01.JPG,AFNE01.JPG,AFNE01.JPG,AFNE01.JPG,AFNE01.JPG,,,,,,,,,2,7,27,5,,,,,,,,,,,,,,,AFSA12.jpg,AFNE12.jpg,AFSA19.jpg,AFNE09.jpg,AFNE09.jpg,FN,3,num_4,32,num_6,0.633507248829,,,2018_Jan_31_1702,60.0091039324,FEMA4ImagesEEG,001,102833,
AFNE01.JPG,AFNE01.JPG,AFNE01.JPG,AFNE01.JPG,AFNE01.JPG,AFNE01.JPG,,,,,,,,,2,8,28,8,,,,,,,,,,,,,,,AFNE13.jpg,AFSA03.jpg,AFSA12.jpg,AFNE06.jpg,AFNE13.jpg,FN,3,num_8,16,num_8,0.433524697088,,,2018_Jan_31_1702,60.0091039324,FEMA4ImagesEEG,001,102833,
AFNE01.JPG,AFNE01.JPG,AFNE01.JPG,AFNE01.JPG,AFNE01.JPG,AFNE01.JPG,,,,,,,,,2,9,29,9,,,,,,,,,,,,,,,AFSA16.jpg,AFNE17.jpg,AFNE11.jpg,AFSA02.jpg,AFSA02.jpg,FS,4,num_4,32,num_2,1.8500579095,,,2018_Jan_31_1702,60.0091039324,FEMA4ImagesEEG,001,102833,
AFNE01.JPG,AFNE01.JPG,AFNE01.JPG,AFNE01.JPG,AFNE01.JPG,AFNE01.JPG,,,,,,,,,3,0,30,3,,,,,,,,,,,,,,,AFSA02.jpg,AFNE10.jpg,AFSA12.jpg,AFNE12.jpg,AFSA02.jpg,FS,4,num_8,16,num_8,0.533518378506,,,2018_Jan_31_1702,60.0091039324,FEMA4ImagesEEG,001,102833,
AFNE01.JPG,AFNE01.JPG,AFNE01.JPG,AFNE01.JPG,AFNE01.JPG,AFNE01.JPG,,,,,,,,,3,1,31,8,,,,,,,,,,,,,,,AFSA18.jpg,AFNE05.jpg,AFSA19.jpg,AFNE18.jpg,AFSA19.jpg,FS,4,num_2,32,num_4,0.916819472215,,,2018_Jan_31_1702,60.0091039324,FEMA4ImagesEEG,001,102833,
AFNE01.JPG,AFNE01.JPG,AFNE01.JPG,AFNE01.JPG,AFNE01.JPG,AFNE01.JPG,,,,,,,,,3,2,32,9,,,,,,,,,,,,,,,AFSA09.jpg,AFNE19.jpg,AFSA16.jpg,AFNE02.jpg,AFSA16.jpg,FS,4,num_2,32,num_6,0.650173824746,,,2018_Jan_31_1702,60.0091039324,FEMA4ImagesEEG,001,102833,
AFNE01.JPG,AFNE01.JPG,AFNE01.JPG,AFNE01.JPG,AFNE01.JPG,AFNE01.JPG,,,,,,,,,3,3,33,7,,,,,,,,,,,,,,,AFSA11.jpg,AFNE18.jpg,AFSA14.jpg,AFNE12.jpg,AFNE18.jpg,FN,3,num_6,32,num_2,0.783463451895,,,2018_Jan_31_1702,60.0091039324,FEMA4ImagesEEG,001,102833,
AFNE01.JPG,AFNE01.JPG,AFNE01.JPG,AFNE01.JPG,AFNE01.JPG,AFNE01.JPG,,,,,,,,,3,4,34,2,,,,,,,,,,,,,,,AFNE07.jpg,AFSA07.jpg,AFNE13.jpg,AFSA16.jpg,AFNE07.jpg,FN,3,num_8,16,num_8,0.650185692008,,,2018_Jan_31_1702,60.0091039324,FEMA4ImagesEEG,001,102833,
AFNE01.JPG,AFNE01.JPG,AFNE01.JPG,AFNE01.JPG,AFNE01.JPG,AFNE01.JPG,,,,,,,,,3,5,35,6,,,,,,,,,,,,,,,AFSA01.jpg,AFNE12.jpg,AFNE19.jpg,AFSA17.jpg,AFNE19.jpg,FN,3,num_2,32,num_4,0.683501202962,,,2018_Jan_31_1702,60.0091039324,FEMA4ImagesEEG,001,102833,
AFNE01.JPG,AFNE01.JPG,AFNE01.JPG,AFNE01.JPG,AFNE01.JPG,AFNE01.JPG,,,,,,,,,3,6,36,0,,,,,,,,,,,,,,,AFSA05.jpg,AFSA06.jpg,AFNE03.jpg,AFNE17.jpg,AFSA06.jpg,FS,4,num_6,16,num_6,0.716790092527,,,2018_Jan_31_1702,60.0091039324,FEMA4ImagesEEG,001,102833,
AFNE01.JPG,AFNE01.JPG,AFNE01.JPG,AFNE01.JPG,AFNE01.JPG,AFNE01.JPG,,,,,,,,,3,7,37,1,,,,,,,,,,,,,,,AFSA01.jpg,AFSA03.jpg,AFNE13.jpg,AFNE20.jpg,AFNE20.jpg,FN,3,num_4,32,num_2,0.916797661921,,,2018_Jan_31_1702,60.0091039324,FEMA4ImagesEEG,001,102833,
AFNE01.JPG,AFNE01.JPG,AFNE01.JPG,AFNE01.JPG,AFNE01.JPG,AFNE01.JPG,,,,,,,,,3,8,38,5,,,,,,,,,,,,,,,AFSA02.jpg,AFNE13.jpg,AFSA19.jpg,AFNE03.jpg,AFSA19.jpg,FS,4,num_2,32,num_8,1.15013517556,,,2018_Jan_31_1702,60.0091039324,FEMA4ImagesEEG,001,102833,
AFNE01.JPG,AFNE01.JPG,AFNE01.JPG,AFNE01.JPG,AFNE01.JPG,AFNE01.JPG,,,,,,,,,3,9,39,4,,,,,,,,,,,,,,,AFNE10.jpg,AFSA03.jpg,AFSA19.jpg,AFNE15.jpg,AFNE15.jpg,FN,3,num_4,32,num_8,1.00014208746,,,2018_Jan_31_1702,60.0091039324,FEMA4ImagesEEG,001,102833,
AFNE01.JPG,AFNE01.JPG,AFNE01.JPG,AFNE01.JPG,AFNE01.JPG,AFNE01.JPG,,,,,,,,,4,0,40,3,,,,,,,,,,,,,,,AFSA03.jpg,AFSA13.jpg,AFNE11.jpg,AFNE16.jpg,AFSA13.jpg,FS,4,num_6,32,num_4,1.06683854014,,,2018_Jan_31_1702,60.0091039324,FEMA4ImagesEEG,001,102833,
AFNE01.JPG,AFNE01.JPG,AFNE01.JPG,AFNE01.JPG,AFNE01.JPG,AFNE01.JPG,,,,,,,,,4,1,41,5,,,,,,,,,,,,,,,AFNE12.jpg,AFSA06.jpg,AFSA13.jpg,AFNE18.jpg,AFSA13.jpg,FS,4,num_2,16,num_2,0.800152158714,,,2018_Jan_31_1702,60.0091039324,FEMA4ImagesEEG,001,102833,
AFNE01.JPG,AFNE01.JPG,AFNE01.JPG,AFNE01.JPG,AFNE01.JPG,AFNE01.JPG,,,,,,,,,4,2,42,6,,,,,,,,,,,,,,,AFSA18.jpg,AFSA19.jpg,AFNE10.jpg,AFNE16.jpg,AFSA18.jpg,FS,4,num_8,16,num_8,1.03372381208,,,2018_Jan_31_1702,60.0091039324,FEMA4ImagesEEG,001,102833,
AFNE01.JPG,AFNE01.JPG,AFNE01.JPG,AFNE01.JPG,AFNE01.JPG,AFNE01.JPG,,,,,,,,,4,3,43,1,,,,,,,,,,,,,,,AFSA15.jpg,AFNE18.jpg,AFSA20.jpg,AFNE16.jpg,AFSA15.jpg,FS,4,num_8,32,num_4,1.4500110175,,,2018_Jan_31_1702,60.0091039324,FEMA4ImagesEEG,001,102833,
AFNE01.JPG,AFNE01.JPG,AFNE01.JPG,AFNE01.JPG,AFNE01.JPG,AFNE01.JPG,,,,,,,,,4,4,44,0,,,,,,,,,,,,,,,AFNE07.jpg,AFSA05.jpg,AFSA03.jpg,AFNE10.jpg,AFNE10.jpg,FN,3,num_4,32,num_2,0.433445474482,,,2018_Jan_31_1702,60.0091039324,FEMA4ImagesEEG,001,102833,
AFNE01.JPG,AFNE01.JPG,AFNE01.JPG,AFNE01.JPG,AFNE01.JPG,AFNE01.JPG,,,,,,,,,4,5,45,8,,,,,,,,,,,,,,,AFNE18.jpg,AFSA20.jpg,AFNE03.jpg,AFSA04.jpg,AFNE18.jpg,FN,3,num_8,16,num_8,0.850121736643,,,2018_Jan_31_1702,60.0091039324,FEMA4ImagesEEG,001,102833,
AFNE01.JPG,AFNE01.JPG,AFNE01.JPG,AFNE01.JPG,AFNE01.JPG,AFNE01.JPG,,,,,,,,,4,6,46,9,,,,,,,,,,,,,,,AFNE13.jpg,AFNE17.jpg,AFSA03.jpg,AFSA01.jpg,AFSA01.jpg,FS,4,num_4,32,num_2,1.05023033894,,,2018_Jan_31_1702,60.0091039324,FEMA4ImagesEEG,001,102833,
AFNE01.JPG,AFNE01.JPG,AFNE01.JPG,AFNE01.JPG,AFNE01.JPG,AFNE01.JPG,,,,,,,,,4,7,47,2,,,,,,,,,,,,,,,AFSA08.jpg,AFSA17.jpg,AFNE01.jpg,AFNE03.jpg,AFSA08.jpg,FS,4,num_8,32,num_6,0.583511370351,,,2018_Jan_31_1702,60.0091039324,FEMA4ImagesEEG,001,102833,
AFNE01.JPG,AFNE01.JPG,AFNE01.JPG,AFNE01.JPG,AFNE01.JPG,AFNE01.JPG,,,,,,,,,4,8,48,7,,,,,,,,,,,,,,,AFNE16.jpg,AFNE09.jpg,AFSA14.jpg,AFSA09.jpg,AFSA14.jpg,FS,4,num_2,32,num_4,0.816778321285,,,2018_Jan_31_1702,60.0091039324,FEMA4ImagesEEG,001,102833,
AFNE01.JPG,AFNE01.JPG,AFNE01.JPG,AFNE01.JPG,AFNE01.JPG,AFNE01.JPG,,,,,,,,,4,9,49,4,,,,,,,,,,,,,,,AFNE08.jpg,AFNE19.jpg,AFSA12.jpg,AFSA06.jpg,AFNE08.jpg,FN,3,num_8,32,num_2,1.00016004883,,,2018_Jan_31_1702,60.0091039324,FEMA4ImagesEEG,001,102833,
AFNE01.JPG,AFNE01.JPG,AFNE01.JPG,AFNE01.JPG,AFNE01.JPG,AFNE01.JPG,,,,,,,,,5,0,50,2,,,,,,,,,,,,,,,AFSA13.jpg,AFNE17.jpg,AFSA06.jpg,AFNE06.jpg,AFNE17.jpg,FN,3,num_6,16,num_6,0.633495060843,,,2018_Jan_31_1702,60.0091039324,FEMA4ImagesEEG,001,102833,
AFNE01.JPG,AFNE01.JPG,AFNE01.JPG,AFNE01.JPG,AFNE01.JPG,AFNE01.JPG,,,,,,,,,5,1,51,7,,,,,,,,,,,,,,,AFNE08.jpg,AFSA19.jpg,AFSA04.jpg,AFNE04.jpg,AFNE04.jpg,FN,3,num_4,16,num_4,0.98351945309,,,2018_Jan_31_1702,60.0091039324,FEMA4ImagesEEG,001,102833,
AFNE01.JPG,AFNE01.JPG,AFNE01.JPG,AFNE01.JPG,AFNE01.JPG,AFNE01.JPG,,,,,,,,,5,2,52,8,,,,,,,,,,,,,,,AFNE10.jpg,AFSA07.jpg,AFSA08.jpg,AFNE08.jpg,AFSA07.jpg,FS,4,num_6,32,num_8,1.21680179948,,,2018_Jan_31_1702,60.0091039324,FEMA4ImagesEEG,001,102833,
AFNE01.JPG,AFNE01.JPG,AFNE01.JPG,AFNE01.JPG,AFNE01.JPG,AFNE01.JPG,,,,,,,,,5,3,53,6,,,,,,,,,,,,,,,AFSA09.jpg,AFNE14.jpg,AFNE05.jpg,AFSA13.jpg,AFNE05.jpg,FN,3,num_2,32,num_6,0.633498268202,,,2018_Jan_31_1702,60.0091039324,FEMA4ImagesEEG,001,102833,
AFNE01.JPG,AFNE01.JPG,AFNE01.JPG,AFNE01.JPG,AFNE01.JPG,AFNE01.JPG,,,,,,,,,5,4,54,9,,,,,,,,,,,,,,,AFSA02.jpg,AFNE03.jpg,AFNE13.jpg,AFSA01.jpg,AFSA01.jpg,FS,4,num_4,32,num_8,0.483506783727,,,2018_Jan_31_1702,60.0091039324,FEMA4ImagesEEG,001,102833,
AFNE01.JPG,AFNE01.JPG,AFNE01.JPG,AFNE01.JPG,AFNE01.JPG,AFNE01.JPG,,,,,,,,,5,5,55,0,,,,,,,,,,,,,,,AFSA04.jpg,AFNE09.jpg,AFSA09.jpg,AFNE16.jpg,AFSA09.jpg,FS,4,num_2,16,num_2,0.833529251511,,,2018_Jan_31_1702,60.0091039324,FEMA4ImagesEEG,001,102833,
AFNE01.JPG,AFNE01.JPG,AFNE01.JPG,AFNE01.JPG,AFNE01.JPG,AFNE01.JPG,,,,,,,,,5,6,56,4,,,,,,,,,,,,,,,AFNE17.jpg,AFSA10.jpg,AFNE04.jpg,AFSA16.jpg,AFNE17.jpg,FN,3,num_8,32,num_2,0.900112483301,,,2018_Jan_31_1702,60.0091039324,FEMA4ImagesEEG,001,102833,
AFNE01.JPG,AFNE01.JPG,AFNE01.JPG,AFNE01.JPG,AFNE01.JPG,AFNE01.JPG,,,,,,,,,5,7,57,3,,,,,,,,,,,,,,,AFNE01.jpg,AFNE04.jpg,AFSA15.jpg,AFSA16.jpg,AFSA16.jpg,FS,4,num_4,32,num_8,0.633549907245,,,2018_Jan_31_1702,60.0091039324,FEMA4ImagesEEG,001,102833,
AFNE01.JPG,AFNE01.JPG,AFNE01.JPG,AFNE01.JPG,AFNE01.JPG,AFNE01.JPG,,,,,,,,,5,8,58,1,,,,,,,,,,,,,,,AFSA13.jpg,AFSA08.jpg,AFNE09.jpg,AFNE10.jpg,AFNE09.jpg,FN,3,num_2,32,num_8,0.933427994139,,,2018_Jan_31_1702,60.0091039324,FEMA4ImagesEEG,001,102833,
AFNE01.JPG,AFNE01.JPG,AFNE01.JPG,AFNE01.JPG,AFNE01.JPG,AFNE01.JPG,,,,,,,,,5,9,59,5,,,,,,,,,,,,,,,AFSA09.jpg,AFNE12.jpg,AFNE18.jpg,AFSA03.jpg,AFNE12.jpg,FN,3,num_6,16,num_6,0.600127590122,,,2018_Jan_31_1702,60.0091039324,FEMA4ImagesEEG,001,102833,
,,,,,,,,,,,,,,,,,,,,,,,,,,,,,,,,,,,,,,,,,,,space,5.31638942496,2018_Jan_31_1702,60.0091039324,FEMA4ImagesEEG,001,102833,
AFNE01.JPG,AFNE01.JPG,AFNE01.JPG,AFNE01.JPG,AFNE01.JPG,AFNE01.JPG,,,,,,,,,,,,,0,0,0,8,,,,,,,,,,,AMSA01.jpg,AMNE06.jpg,AMSA17.jpg,AMNE03.jpg,AMSA17.jpg,MS,2,num_2,16,num_2,1.06674873317,,,2018_Jan_31_1702,60.0091039324,FEMA4ImagesEEG,001,102833,
AFNE01.JPG,AFNE01.JPG,AFNE01.JPG,AFNE01.JPG,AFNE01.JPG,AFNE01.JPG,,,,,,,,,,,,,0,1,1,1,,,,,,,,,,,AMNE08.jpg,AMSA11.jpg,AMNE10.jpg,AMSA17.jpg,AMSA11.jpg,MS,2,num_6,16,num_6,0.833474725951,,,2018_Jan_31_1702,60.0091039324,FEMA4ImagesEEG,001,102833,
AFNE01.JPG,AFNE01.JPG,AFNE01.JPG,AFNE01.JPG,AFNE01.JPG,AFNE01.JPG,,,,,,,,,,,,,0,2,2,7,,,,,,,,,,,AMSA15.jpg,AMNE05.jpg,AMNE08.jpg,AMSA06.jpg,AMNE05.jpg,MN,1,num_6,16,num_6,0.783418869134,,,2018_Jan_31_1702,60.0091039324,FEMA4ImagesEEG,001,102833,
AFNE01.JPG,AFNE01.JPG,AFNE01.JPG,AFNE01.JPG,AFNE01.JPG,AFNE01.JPG,,,,,,,,,,,,,0,3,3,9,,,,,,,,,,,AMSA17.jpg,AMSA06.jpg,AMNE14.jpg,AMNE10.jpg,AMNE14.jpg,MN,1,num_2,32,num_8,1.25007978384,,,2018_Jan_31_1702,60.0091039324,FEMA4ImagesEEG,001,102833,
AFNE01.JPG,AFNE01.JPG,AFNE01.JPG,AFNE01.JPG,AFNE01.JPG,AFNE01.JPG,,,,,,,,,,,,,0,4,4,5,,,,,,,,,,,AMNE05.jpg,AMNE16.jpg,AMSA19.jpg,AMSA18.jpg,AMNE05.jpg,MN,1,num_8,32,num_2,0.81710515474,,,2018_Jan_31_1702,60.0091039324,FEMA4ImagesEEG,001,102833,
AFNE01.JPG,AFNE01.JPG,AFNE01.JPG,AFNE01.JPG,AFNE01.JPG,AFNE01.JPG,,,,,,,,,,,,,0,5,5,6,,,,,,,,,,,AMSA19.jpg,AMSA16.jpg,AMNE05.jpg,AMNE03.jpg,AMSA19.jpg,MS,2,num_8,16,num_8,1.03329402138,,,2018_Jan_31_1702,60.0091039324,FEMA4ImagesEEG,001,102833,
AFNE01.JPG,AFNE01.JPG,AFNE01.JPG,AFNE01.JPG,AFNE01.JPG,AFNE01.JPG,,,,,,,,,,,,,0,6,6,4,,,,,,,,,,,AMNE12.jpg,AMNE08.jpg,AMSA09.jpg,AMSA16.jpg,AMSA16.jpg,MS,2,num_4,32,num_6,0.333510808996,,,2018_Jan_31_1702,60.0091039324,FEMA4ImagesEEG,001,102833,
AFNE01.JPG,AFNE01.JPG,AFNE01.JPG,AFNE01.JPG,AFNE01.JPG,AFNE01.JPG,,,,,,,,,,,,,0,7,7,2,,,,,,,,,,,AMSA01.jpg,AMNE14.jpg,AMSA13.jpg,AMNE03.jpg,AMNE03.jpg,MN,1,num_4,32,num_2,0.650138864061,,,2018_Jan_31_1702,60.0091039324,FEMA4ImagesEEG,001,102833,
AFNE01.JPG,AFNE01.JPG,AFNE01.JPG,AFNE01.JPG,AFNE01.JPG,AFNE01.JPG,,,,,,,,,,,,,0,8,8,3,,,,,,,,,,,AMSA18.jpg,AMSA01.jpg,AMNE16.jpg,AMNE15.jpg,AMSA01.jpg,MS,2,num_6,32,num_8,1.41673976847,,,2018_Jan_31_1702,60.0091039324,FEMA4ImagesEEG,001,102833,
AFNE01.JPG,AFNE01.JPG,AFNE01.JPG,AFNE01.JPG,AFNE01.JPG,AFNE01.JPG,,,,,,,,,,,,,0,9,9,0,,,,,,,,,,,AMSA20.jpg,AMNE15.jpg,AMNE05.jpg,AMSA13.jpg,AMSA20.jpg,MS,2,num_8,16,num_8,1.03346754133,,,2018_Jan_31_1702,60.0091039324,FEMA4ImagesEEG,001,102833,
AFNE01.JPG,AFNE01.JPG,AFNE01.JPG,AFNE01.JPG,AFNE01.JPG,AFNE01.JPG,,,,,,,,,,,,,1,0,10,0,,,,,,,,,,,AMNE01.jpg,AMSA14.jpg,AMSA01.jpg,AMNE05.jpg,AMNE01.jpg,MN,1,num_8,32,num_2,0.683483562199,,,2018_Jan_31_1702,60.0091039324,FEMA4ImagesEEG,001,102833,
AFNE01.JPG,AFNE01.JPG,AFNE01.JPG,AFNE01.JPG,AFNE01.JPG,AFNE01.JPG,,,,,,,,,,,,,1,1,11,5,,,,,,,,,,,AMNE20.jpg,AMSA19.jpg,AMSA03.jpg,AMNE14.jpg,AMSA03.jpg,MS,2,num_2,32,num_6,0.866795368609,,,2018_Jan_31_1702,60.0091039324,FEMA4ImagesEEG,001,102833,
AFNE01.JPG,AFNE01.JPG,AFNE01.JPG,AFNE01.JPG,AFNE01.JPG,AFNE01.JPG,,,,,,,,,,,,,1,2,12,2,,,,,,,,,,,AMNE12.jpg,AMSA09.jpg,AMSA01.jpg,AMNE02.jpg,AMSA01.jpg,MS,2,num_2,16,num_2,0.950124398689,,,2018_Jan_31_1702,60.0091039324,FEMA4ImagesEEG,001,102833,
AFNE01.JPG,AFNE01.JPG,AFNE01.JPG,AFNE01.JPG,AFNE01.JPG,AFNE01.JPG,,,,,,,,,,,,,1,3,13,1,,,,,,,,,,,AMSA06.jpg,AMNE05.jpg,AMSA05.jpg,AMNE16.jpg,AMSA05.jpg,MS,2,num_2,32,num_8,0.616802505101,,,2018_Jan_31_1702,60.0091039324,FEMA4ImagesEEG,001,102833,
AFNE01.JPG,AFNE01.JPG,AFNE01.JPG,AFNE01.JPG,AFNE01.JPG,AFNE01.JPG,,,,,,,,,,,,,1,4,14,7,,,,,,,,,,,AMNE12.jpg,AMSA06.jpg,AMNE06.jpg,AMSA08.jpg,AMSA08.jpg,MS,2,num_4,32,num_2,1.53330348316,,,2018_Jan_31_1702,60.0091039324,FEMA4ImagesEEG,001,102833,
AFNE01.JPG,AFNE01.JPG,AFNE01.JPG,AFNE01.JPG,AFNE01.JPG,AFNE01.JPG,,,,,,,,,,,,,1,5,15,4,,,,,,,,,,,AMNE08.jpg,AMSA08.jpg,AMNE09.jpg,AMSA19.jpg,AMNE09.jpg,MN,1,num_2,32,num_8,0.983457229566,,,2018_Jan_31_1702,60.0091039324,FEMA4ImagesEEG,001,102833,
AFNE01.JPG,AFNE01.JPG,AFNE01.JPG,AFNE01.JPG,AFNE01.JPG,AFNE01.JPG,,,,,,,,,,,,,1,6,16,9,,,,,,,,,,,AMSA10.jpg,AMNE11.jpg,AMSA02.jpg,AMNE01.jpg,AMNE11.jpg,MN,1,num_6,16,num_6,0.866762653342,,,2018_Jan_31_1702,60.0091039324,FEMA4ImagesEEG,001,102833,
AFNE01.JPG,AFNE01.JPG,AFNE01.JPG,AFNE01.JPG,AFNE01.JPG,AFNE01.JPG,,,,,,,,,,,,,1,7,17,3,,,,,,,,,,,AMNE13.jpg,AMSA01.jpg,AMNE05.jpg,AMSA18.jpg,AMNE13.jpg,MN,1,num_8,32,num_2,0.65012860042,,,2018_Jan_31_1702,60.0091039324,FEMA4ImagesEEG,001,102833,
AFNE01.JPG,AFNE01.JPG,AFNE01.JPG,AFNE01.JPG,AFNE01.JPG,AFNE01.JPG,,,,,,,,,,,,,1,8,18,6,,,,,,,,,,,AMNE16.jpg,AMSA15.jpg,AMNE07.jpg,AMSA08.jpg,AMNE16.jpg,MN,1,num_8,32,num_4,0.633475175011,,,2018_Jan_31_1702,60.0091039324,FEMA4ImagesEEG,001,102833,
AFNE01.JPG,AFNE01.JPG,AFNE01.JPG,AFNE01.JPG,AFNE01.JPG,AFNE01.JPG,,,,,,,,,,,,,1,9,19,8,,,,,,,,,,,AMNE10.jpg,AMSA19.jpg,AMSA13.jpg,AMNE15.jpg,AMSA13.jpg,MS,2,num_2,32,num_8,0.616682227934,,,2018_Jan_31_1702,60.0091039324,FEMA4ImagesEEG,001,102833,
AFNE01.JPG,AFNE01.JPG,AFNE01.JPG,AFNE01.JPG,AFNE01.JPG,AFNE01.JPG,,,,,,,,,,,,,2,0,20,3,,,,,,,,,,,AMNE05.jpg,AMSA07.jpg,AMNE18.jpg,AMSA05.jpg,AMSA05.jpg,MS,2,num_4,32,num_2,0.983465248137,,,2018_Jan_31_1702,60.0091039324,FEMA4ImagesEEG,001,102833,
AFNE01.JPG,AFNE01.JPG,AFNE01.JPG,AFNE01.JPG,AFNE01.JPG,AFNE01.JPG,,,,,,,,,,,,,2,1,21,1,,,,,,,,,,,AMNE08.jpg,AMNE18.jpg,AMSA15.jpg,AMSA12.jpg,AMSA12.jpg,MS,2,num_4,32,num_2,1.13345961913,,,2018_Jan_31_1702,60.0091039324,FEMA4ImagesEEG,001,102833,
AFNE01.JPG,AFNE01.JPG,AFNE01.JPG,AFNE01.JPG,AFNE01.JPG,AFNE01.JPG,,,,,,,,,,,,,2,2,22,4,,,,,,,,,,,AMSA10.jpg,AMSA20.jpg,AMNE19.jpg,AMNE13.jpg,AMNE13.jpg,MN,1,num_4,16,num_4,0.900156424497,,,2018_Jan_31_1702,60.0091039324,FEMA4ImagesEEG,001,102833,
AFNE01.JPG,AFNE01.JPG,AFNE01.JPG,AFNE01.JPG,AFNE01.JPG,AFNE01.JPG,,,,,,,,,,,,,2,3,23,6,,,,,,,,,,,AMSA10.jpg,AMSA02.jpg,AMNE17.jpg,AMNE06.jpg,AMSA02.jpg,MS,2,num_6,32,num_8,1.00016229402,,,2018_Jan_31_1702,60.0091039324,FEMA4ImagesEEG,001,102833,
AFNE01.JPG,AFNE01.JPG,AFNE01.JPG,AFNE01.JPG,AFNE01.JPG,AFNE01.JPG,,,,,,,,,,,,,2,4,24,0,,,,,,,,,,,AMSA10.jpg,AMNE05.jpg,AMSA12.jpg,AMNE19.jpg,AMSA12.jpg,MS,2,num_2,16,num_2,0.916791247088,,,2018_Jan_31_1702,60.0091039324,FEMA4ImagesEEG,001,102833,
AFNE01.JPG,AFNE01.JPG,AFNE01.JPG,AFNE01.JPG,AFNE01.JPG,AFNE01.JPG,,,,,,,,,,,,,2,5,25,7,,,,,,,,,,,AMSA07.jpg,AMNE07.jpg,AMNE15.jpg,AMSA17.jpg,AMSA17.jpg,MS,2,num_4,32,num_6,0.533490474103,,,2018_Jan_31_1702,60.0091039324,FEMA4ImagesEEG,001,102833,
AFNE01.JPG,AFNE01.JPG,AFNE01.JPG,AFNE01.JPG,AFNE01.JPG,AFNE01.JPG,,,,,,,,,,,,,2,6,26,9,,,,,,,,,,,AMSA12.jpg,AMSA14.jpg,AMNE19.jpg,AMNE06.jpg,AMSA12.jpg,MS,2,num_8,32,num_4,0.750190919964,,,2018_Jan_31_1702,60.0091039324,FEMA4ImagesEEG,001,102833,
AFNE01.JPG,AFNE01.JPG,AFNE01.JPG,AFNE01.JPG,AFNE01.JPG,AFNE01.JPG,,,,,,,,,,,,,2,7,27,8,,,,,,,,,,,AMSA01.jpg,AMSA07.jpg,AMNE14.jpg,AMNE11.jpg,AMNE11.jpg,MN,1,num_4,32,num_6,1.11676321458,,,2018_Jan_31_1702,60.0091039324,FEMA4ImagesEEG,001,102833,
AFNE01.JPG,AFNE01.JPG,AFNE01.JPG,AFNE01.JPG,AFNE01.JPG,AFNE01.JPG,,,,,,,,,,,,,2,8,28,2,,,,,,,,,,,AMSA17.jpg,AMNE05.jpg,AMNE03.jpg,AMSA12.jpg,AMSA12.jpg,MS,2,num_4,16,num_4,0.750109452289,,,2018_Jan_31_1702,60.0091039324,FEMA4ImagesEEG,001,102833,
AFNE01.JPG,AFNE01.JPG,AFNE01.JPG,AFNE01.JPG,AFNE01.JPG,AFNE01.JPG,,,,,,,,,,,,,2,9,29,5,,,,,,,,,,,AMNE09.jpg,AMNE13.jpg,AMSA15.jpg,AMSA05.jpg,AMSA15.jpg,MS,2,num_2,32,num_6,0.633454006165,,,2018_Jan_31_1702,60.0091039324,FEMA4ImagesEEG,001,102833,
AFNE01.JPG,AFNE01.JPG,AFNE01.JPG,AFNE01.JPG,AFNE01.JPG,AFNE01.JPG,,,,,,,,,,,,,3,0,30,1,,,,,,,,,,,AMSA03.jpg,AMSA06.jpg,AMNE06.jpg,AMNE08.jpg,AMSA03.jpg,MS,2,num_8,16,num_8,1.21672001097,,,2018_Jan_31_1702,60.0091039324,FEMA4ImagesEEG,001,102833,
AFNE01.JPG,AFNE01.JPG,AFNE01.JPG,AFNE01.JPG,AFNE01.JPG,AFNE01.JPG,,,,,,,,,,,,,3,1,31,5,,,,,,,,,,,AMNE19.jpg,AMNE15.jpg,AMSA14.jpg,AMSA20.jpg,AMNE15.jpg,MN,1,num_6,32,num_8,0.81680558424,,,2018_Jan_31_1702,60.0091039324,FEMA4ImagesEEG,001,102833,
AFNE01.JPG,AFNE01.JPG,AFNE01.JPG,AFNE01.JPG,AFNE01.JPG,AFNE01.JPG,,,,,,,,,,,,,3,2,32,3,,,,,,,,,,,AMSA05.jpg,AMNE19.jpg,AMSA03.jpg,AMNE18.jpg,AMNE19.jpg,MN,1,num_6,16,num_6,0.633437648416,,,2018_Jan_31_1702,60.0091039324,FEMA4ImagesEEG,001,102833,
AFNE01.JPG,AFNE01.JPG,AFNE01.JPG,AFNE01.JPG,AFNE01.JPG,AFNE01.JPG,,,,,,,,,,,,,3,3,33,2,,,,,,,,,,,AMNE10.jpg,AMNE15.jpg,AMSA14.jpg,AMSA08.jpg,AMNE15.jpg,MN,1,num_6,32,num_4,0.416817387333,,,2018_Jan_31_1702,60.0091039324,FEMA4ImagesEEG,001,102833,
AFNE01.JPG,AFNE01.JPG,AFNE01.JPG,AFNE01.JPG,AFNE01.JPG,AFNE01.JPG,,,,,,,,,,,,,3,4,34,9,,,,,,,,,,,AMNE13.jpg,AMNE08.jpg,AMSA03.jpg,AMSA12.jpg,AMNE08.jpg,MN,1,num_6,32,num_8,0.433506414993,,,2018_Jan_31_1702,60.0091039324,FEMA4ImagesEEG,001,102833,
AFNE01.JPG,AFNE01.JPG,AFNE01.JPG,AFNE01.JPG,AFNE01.JPG,AFNE01.JPG,,,,,,,,,,,,,3,5,35,4,,,,,,,,,,,AMNE13.jpg,AMSA05.jpg,AMSA04.jpg,AMNE05.jpg,AMNE05.jpg,MN,1,num_4,32,num_8,0.616830088664,,,2018_Jan_31_1702,60.0091039324,FEMA4ImagesEEG,001,102833,
AFNE01.JPG,AFNE01.JPG,AFNE01.JPG,AFNE01.JPG,AFNE01.JPG,AFNE01.JPG,,,,,,,,,,,,,3,6,36,8,,,,,,,,,,,AMSA05.jpg,AMSA11.jpg,AMNE15.jpg,AMNE07.jpg,AMNE15.jpg,MN,1,num_2,32,num_6,1.016796796,,,2018_Jan_31_1702,60.0091039324,FEMA4ImagesEEG,001,102833,
AFNE01.JPG,AFNE01.JPG,AFNE01.JPG,AFNE01.JPG,AFNE01.JPG,AFNE01.JPG,,,,,,,,,,,,,3,7,37,6,,,,,,,,,,,AMNE19.jpg,AMNE10.jpg,AMSA01.jpg,AMSA10.jpg,AMNE10.jpg,MN,1,num_6,32,num_8,0.583534463542,,,2018_Jan_31_1702,60.0091039324,FEMA4ImagesEEG,001,102833,
AFNE01.JPG,AFNE01.JPG,AFNE01.JPG,AFNE01.JPG,AFNE01.JPG,AFNE01.JPG,,,,,,,,,,,,,3,8,38,7,,,,,,,,,,,AMSA13.jpg,AMNE20.jpg,AMNE10.jpg,AMSA12.jpg,AMSA13.jpg,MS,2,num_8,32,num_4,0.600111232372,,,2018_Jan_31_1702,60.0091039324,FEMA4ImagesEEG,001,102833,
AFNE01.JPG,AFNE01.JPG,AFNE01.JPG,AFNE01.JPG,AFNE01.JPG,AFNE01.JPG,,,,,,,,,,,,,3,9,39,0,,,,,,,,,,,AMSA14.jpg,AMSA02.jpg,AMNE11.jpg,AMNE14.jpg,AMSA02.jpg,MS,2,num_6,32,num_8,0.73344480095,,,2018_Jan_31_1702,60.0091039324,FEMA4ImagesEEG,001,102833,
AFNE01.JPG,AFNE01.JPG,AFNE01.JPG,AFNE01.JPG,AFNE01.JPG,AFNE01.JPG,,,,,,,,,,,,,4,0,40,1,,,,,,,,,,,AMNE11.jpg,AMSA01.jpg,AMSA07.jpg,AMNE20.jpg,AMSA07.jpg,MS,2,num_2,32,num_6,0.516856293078,,,2018_Jan_31_1702,60.0091039324,FEMA4ImagesEEG,001,102833,
AFNE01.JPG,AFNE01.JPG,AFNE01.JPG,AFNE01.JPG,AFNE01.JPG,AFNE01.JPG,,,,,,,,,,,,,4,1,41,5,,,,,,,,,,,AMNE19.jpg,AMSA19.jpg,AMSA07.jpg,AMNE11.jpg,AMNE11.jpg,MN,1,num_4,32,num_2,0.600169606972,,,2018_Jan_31_1702,60.0091039324,FEMA4ImagesEEG,001,102833,
AFNE01.JPG,AFNE01.JPG,AFNE01.JPG,AFNE01.JPG,AFNE01.JPG,AFNE01.JPG,,,,,,,,,,,,,4,2,42,3,,,,,,,,,,,AMNE05.jpg,AMSA17.jpg,AMNE02.jpg,AMSA10.jpg,AMSA10.jpg,MS,2,num_4,16,num_4,0.716790733975,,,2018_Jan_31_1702,60.0091039324,FEMA4ImagesEEG,001,102833,
AFNE01.JPG,AFNE01.JPG,AFNE01.JPG,AFNE01.JPG,AFNE01.JPG,AFNE01.JPG,,,,,,,,,,,,,4,3,43,4,,,,,,,,,,,AMSA01.jpg,AMSA03.jpg,AMNE19.jpg,AMNE20.jpg,AMNE19.jpg,MN,1,num_2,32,num_8,0.900111521012,,,2018_Jan_31_1702,60.0091039324,FEMA4ImagesEEG,001,102833,
AFNE01.JPG,AFNE01.JPG,AFNE01.JPG,AFNE01.JPG,AFNE01.JPG,AFNE01.JPG,,,,,,,,,,,,,4,4,44,9,,,,,,,,,,,AMNE07.jpg,AMSA11.jpg,AMNE13.jpg,AMSA15.jpg,AMSA15.jpg,MS,2,num_4,32,num_6,0.700177080114,,,2018_Jan_31_1702,60.0091039324,FEMA4ImagesEEG,001,102833,
AFNE01.JPG,AFNE01.JPG,AFNE01.JPG,AFNE01.JPG,AFNE01.JPG,AFNE01.JPG,,,,,,,,,,,,,4,5,45,2,,,,,,,,,,,AMSA07.jpg,AMNE14.jpg,AMSA10.jpg,AMNE11.jpg,AMSA10.jpg,MS,2,num_2,32,num_6,0.733495798428,,,2018_Jan_31_1702,60.0091039324,FEMA4ImagesEEG,001,102833,
AFNE01.JPG,AFNE01.JPG,AFNE01.JPG,AFNE01.JPG,AFNE01.JPG,AFNE01.JPG,,,,,,,,,,,,,4,6,46,0,,,,,,,,,,,AMNE19.jpg,AMSA03.jpg,AMNE10.jpg,AMSA11.jpg,AMNE19.jpg,MN,1,num_8,16,num_8,0.950173792662,,,2018_Jan_31_1702,60.0091039324,FEMA4ImagesEEG,001,102833,
AFNE01.JPG,AFNE01.JPG,AFNE01.JPG,AFNE01.JPG,AFNE01.JPG,AFNE01.JPG,,,,,,,,,,,,,4,7,47,6,,,,,,,,,,,AMNE13.jpg,AMNE19.jpg,AMSA10.jpg,AMSA09.jpg,AMNE13.jpg,MN,1,num_8,32,num_6,0.716809978359,,,2018_Jan_31_1702,60.0091039324,FEMA4ImagesEEG,001,102833,
AFNE01.JPG,AFNE01.JPG,AFNE01.JPG,AFNE01.JPG,AFNE01.JPG,AFNE01.JPG,,,,,,,,,,,,,4,8,48,7,,,,,,,,,,,AMSA20.jpg,AMNE19.jpg,AMSA03.jpg,AMNE11.jpg,AMNE11.jpg,MN,1,num_4,16,num_4,0.95012632315,,,2018_Jan_31_1702,60.0091039324,FEMA4ImagesEEG,001,102833,
AFNE01.JPG,AFNE01.JPG,AFNE01.JPG,AFNE01.JPG,AFNE01.JPG,AFNE01.JPG,,,,,,,,,,,,,4,9,49,8,,,,,,,,,,,AMSA14.jpg,AMSA06.jpg,AMNE10.jpg,AMNE12.jpg,AMNE10.jpg,MN,1,num_2,32,num_8,0.900141349761,,,2018_Jan_31_1702,60.0091039324,FEMA4ImagesEEG,001,102833,
AFNE01.JPG,AFNE01.JPG,AFNE01.JPG,AFNE01.JPG,AFNE01.JPG,AFNE01.JPG,,,,,,,,,,,,,5,0,50,5,,,,,,,,,,,AMSA07.jpg,AMNE16.jpg,AMNE20.jpg,AMSA18.jpg,AMSA18.jpg,MS,2,num_4,32,num_6,0.983716066112,,,2018_Jan_31_1702,60.0091039324,FEMA4ImagesEEG,001,102833,
AFNE01.JPG,AFNE01.JPG,AFNE01.JPG,AFNE01.JPG,AFNE01.JPG,AFNE01.JPG,,,,,,,,,,,,,5,1,51,3,,,,,,,,,,,AMNE10.jpg,AMNE11.jpg,AMSA04.jpg,AMSA15.jpg,AMNE10.jpg,MN,1,num_8,32,num_4,0.61680346739,,,2018_Jan_31_1702,60.0091039324,FEMA4ImagesEEG,001,102833,
AFNE01.JPG,AFNE01.JPG,AFNE01.JPG,AFNE01.JPG,AFNE01.JPG,AFNE01.JPG,,,,,,,,,,,,,5,2,52,9,,,,,,,,,,,AMSA03.jpg,AMNE03.jpg,AMSA01.jpg,AMNE15.jpg,AMSA03.jpg,MS,2,num_8,16,num_8,1.15015057113,,,2018_Jan_31_1702,60.0091039324,FEMA4ImagesEEG,001,102833,
AFNE01.JPG,AFNE01.JPG,AFNE01.JPG,AFNE01.JPG,AFNE01.JPG,AFNE01.JPG,,,,,,,,,,,,,5,3,53,0,,,,,,,,,,,AMSA12.jpg,AMNE06.jpg,AMSA19.jpg,AMNE15.jpg,AMNE06.jpg,MN,1,num_6,16,num_6,0.883421852137,,,2018_Jan_31_1702,60.0091039324,FEMA4ImagesEEG,001,102833,
AFNE01.JPG,AFNE01.JPG,AFNE01.JPG,AFNE01.JPG,AFNE01.JPG,AFNE01.JPG,,,,,,,,,,,,,5,4,54,8,,,,,,,,,,,AMNE05.jpg,AMSA06.jpg,AMNE02.jpg,AMSA18.jpg,AMNE02.jpg,MN,1,num_2,32,num_4,0.900148726767,,,2018_Jan_31_1702,60.0091039324,FEMA4ImagesEEG,001,102833,
AFNE01.JPG,AFNE01.JPG,AFNE01.JPG,AFNE01.JPG,AFNE01.JPG,AFNE01.JPG,,,,,,,,,,,,,5,5,55,1,,,,,,,,,,,AMNE09.jpg,AMNE19.jpg,AMSA12.jpg,AMSA11.jpg,AMSA11.jpg,MS,2,num_4,32,num_6,0.683438658831,,,2018_Jan_31_1702,60.0091039324,FEMA4ImagesEEG,001,102833,
AFNE01.JPG,AFNE01.JPG,AFNE01.JPG,AFNE01.JPG,AFNE01.JPG,AFNE01.JPG,,,,,,,,,,,,,5,6,56,7,,,,,,,,,,,AMSA02.jpg,AMNE17.jpg,AMNE19.jpg,AMSA20.jpg,AMSA02.jpg,MS,2,num_8,16,num_8,0.933443389717,,,2018_Jan_31_1702,60.0091039324,FEMA4ImagesEEG,001,102833,
AFNE01.JPG,AFNE01.JPG,AFNE01.JPG,AFNE01.JPG,AFNE01.JPG,AFNE01.JPG,,,,,,,,,,,,,5,7,57,6,,,,,,,,,,,AMSA16.jpg,AMNE14.jpg,AMNE07.jpg,AMSA03.jpg,AMNE07.jpg,MN,1,num_2,16,num_2,1.06677407166,,,2018_Jan_31_1702,60.0091039324,FEMA4ImagesEEG,001,102833,
AFNE01.JPG,AFNE01.JPG,AFNE01.JPG,AFNE01.JPG,AFNE01.JPG,AFNE01.JPG,,,,,,,,,,,,,5,8,58,4,,,,,,,,,,,AMSA04.jpg,AMNE19.jpg,AMNE08.jpg,AMSA14.jpg,AMNE19.jpg,MN,1,num_6,16,num_6,0.65017157956,,,2018_Jan_31_1702,60.0091039324,FEMA4ImagesEEG,001,102833,
AFNE01.JPG,AFNE01.JPG,AFNE01.JPG,AFNE01.JPG,AFNE01.JPG,AFNE01.JPG,,,,,,,,,,,,,5,9,59,2,,,,,,,,,,,AMSA05.jpg,AMNE08.jpg,AMSA10.jpg,AMNE03.jpg,AMSA05.jpg,MS,2,num_8,16,num_8,0.53347668238,,,2018_Jan_31_1702,60.0091039324,FEMA4ImagesEEG,001,102833,
,,,,,,,,,,,,,,,,,,,,,,,,,,,,,,,,,,,,,,,,,,,space,14.6992886324,2018_Jan_31_1702,60.0091039324,FEMA4ImagesEEG,001,102833,
AFNE01.JPG,AFNE01.JPG,AFNE01.JPG,AFNE01.JPG,AFNE01.JPG,AFNE01.JPG,,,,,,,,,,,,,,,,,0,0,0,2,,,,,,,AFSA14.jpg,AFSA15.jpg,AFNE04.jpg,AFNE11.jpg,AFSA15.jpg,FS,4,num_6,16,num_6,0.783481092541,,,2018_Jan_31_1702,60.0091039324,FEMA4ImagesEEG,001,102833,
AFNE01.JPG,AFNE01.JPG,AFNE01.JPG,AFNE01.JPG,AFNE01.JPG,AFNE01.JPG,,,,,,,,,,,,,,,,,0,1,1,5,,,,,,,AFSA16.jpg,AFNE02.jpg,AFNE10.jpg,AFSA07.jpg,AFSA07.jpg,FS,4,num_4,32,num_2,1.83358409803,,,2018_Jan_31_1702,60.0091039324,FEMA4ImagesEEG,001,102833,
AFNE01.JPG,AFNE01.JPG,AFNE01.JPG,AFNE01.JPG,AFNE01.JPG,AFNE01.JPG,,,,,,,,,,,,,,,,,0,2,2,9,,,,,,,AFNE19.jpg,AFNE20.jpg,AFSA13.jpg,AFSA19.jpg,AFSA13.jpg,FS,4,num_2,32,num_4,0.633497626637,,,2018_Jan_31_1702,60.0091039324,FEMA4ImagesEEG,001,102833,
AFNE01.JPG,AFNE01.JPG,AFNE01.JPG,AFNE01.JPG,AFNE01.JPG,AFNE01.JPG,,,,,,,,,,,,,,,,,0,3,3,7,,,,,,,AFSA17.jpg,AFSA12.jpg,AFNE19.jpg,AFNE09.jpg,AFSA17.jpg,FS,4,num_8,32,num_6,0.400191545603,,,2018_Jan_31_1702,60.0091039324,FEMA4ImagesEEG,001,102833,
AFNE01.JPG,AFNE01.JPG,AFNE01.JPG,AFNE01.JPG,AFNE01.JPG,AFNE01.JPG,,,,,,,,,,,,,,,,,0,4,4,4,,,,,,,AFNE13.jpg,AFSA03.jpg,AFSA16.jpg,AFNE16.jpg,AFNE16.jpg,FN,3,num_4,32,num_8,0.583478013403,,,2018_Jan_31_1702,60.0091039324,FEMA4ImagesEEG,001,102833,
AFNE01.JPG,AFNE01.JPG,AFNE01.JPG,AFNE01.JPG,AFNE01.JPG,AFNE01.JPG,,,,,,,,,,,,,,,,,0,5,5,0,,,,,,,AFSA19.jpg,AFNE14.jpg,AFSA09.jpg,AFNE10.jpg,AFNE14.jpg,FN,3,num_6,32,num_2,0.750269821961,,,2018_Jan_31_1702,60.0091039324,FEMA4ImagesEEG,001,102833,
AFNE01.JPG,AFNE01.JPG,AFNE01.JPG,AFNE01.JPG,AFNE01.JPG,AFNE01.JPG,,,,,,,,,,,,,,,,,0,6,6,3,,,,,,,AFNE04.jpg,AFNE13.jpg,AFSA12.jpg,AFSA17.jpg,AFSA12.jpg,FS,4,num_2,32,num_4,0.716787526617,,,2018_Jan_31_1702,60.0091039324,FEMA4ImagesEEG,001,102833,
AFNE01.JPG,AFNE01.JPG,AFNE01.JPG,AFNE01.JPG,AFNE01.JPG,AFNE01.JPG,,,,,,,,,,,,,,,,,0,7,7,8,,,,,,,AFSA06.jpg,AFNE15.jpg,AFSA17.jpg,AFNE11.jpg,AFSA06.jpg,FS,4,num_8,32,num_6,0.716781432508,,,2018_Jan_31_1702,60.0091039324,FEMA4ImagesEEG,001,102833,
AFNE01.JPG,AFNE01.JPG,AFNE01.JPG,AFNE01.JPG,AFNE01.JPG,AFNE01.JPG,,,,,,,,,,,,,,,,,0,8,8,6,,,,,,,AFNE04.jpg,AFNE14.jpg,AFSA03.jpg,AFSA14.jpg,AFSA14.jpg,FS,4,num_4,32,num_2,3.38328345295,,,2018_Jan_31_1702,60.0091039324,FEMA4ImagesEEG,001,102833,
AFNE01.JPG,AFNE01.JPG,AFNE01.JPG,AFNE01.JPG,AFNE01.JPG,AFNE01.JPG,,,,,,,,,,,,,,,,,0,9,9,1,,,,,,,AFNE17.jpg,AFSA07.jpg,AFNE14.jpg,AFSA04.jpg,AFSA07.jpg,FS,4,num_6,32,num_4,0.817081740708,,,2018_Jan_31_1702,60.0091039324,FEMA4ImagesEEG,001,102833,
AFNE01.JPG,AFNE01.JPG,AFNE01.JPG,AFNE01.JPG,AFNE01.JPG,AFNE01.JPG,,,,,,,,,,,,,,,,,1,0,10,4,,,,,,,AFSA02.jpg,AFNE06.jpg,AFNE20.jpg,AFSA04.jpg,AFNE20.jpg,FN,3,num_2,16,num_2,0.350188931567,,,2018_Jan_31_1702,60.0091039324,FEMA4ImagesEEG,001,102833,
AFNE01.JPG,AFNE01.JPG,AFNE01.JPG,AFNE01.JPG,AFNE01.JPG,AFNE01.JPG,,,,,,,,,,,,,,,,,1,1,11,2,,,,,,,AFSA03.jpg,AFNE03.jpg,AFSA15.jpg,AFNE20.jpg,AFNE20.jpg,FN,3,num_4,16,num_4,0.616814372363,,,2018_Jan_31_1702,60.0091039324,FEMA4ImagesEEG,001,102833,
AFNE01.JPG,AFNE01.JPG,AFNE01.JPG,AFNE01.JPG,AFNE01.JPG,AFNE01.JPG,,,,,,,,,,,,,,,,,1,2,12,8,,,,,,,AFNE12.jpg,AFSA12.jpg,AFNE07.jpg,AFSA11.jpg,AFNE07.jpg,FN,3,num_2,32,num_8,0.716762508964,,,2018_Jan_31_1702,60.0091039324,FEMA4ImagesEEG,001,102833,
AFNE01.JPG,AFNE01.JPG,AFNE01.JPG,AFNE01.JPG,AFNE01.JPG,AFNE01.JPG,,,,,,,,,,,,,,,,,1,3,13,0,,,,,,,AFNE04.jpg,AFSA15.jpg,AFNE15.jpg,AFSA02.jpg,AFSA15.jpg,FS,4,num_6,32,num_8,0.666927962331,,,2018_Jan_31_1702,60.0091039324,FEMA4ImagesEEG,001,102833,
AFNE01.JPG,AFNE01.JPG,AFNE01.JPG,AFNE01.JPG,AFNE01.JPG,AFNE01.JPG,,,,,,,,,,,,,,,,,1,4,14,9,,,,,,,AFNE01.jpg,AFSA20.jpg,AFSA11.jpg,AFNE06.jpg,AFNE01.jpg,FN,3,num_8,16,num_8,0.750153714325,,,2018_Jan_31_1702,60.0091039324,FEMA4ImagesEEG,001,102833,
AFNE01.JPG,AFNE01.JPG,AFNE01.JPG,AFNE01.JPG,AFNE01.JPG,AFNE01.JPG,,,,,,,,,,,,,,,,,1,5,15,5,,,,,,,AFNE19.jpg,AFNE07.jpg,AFSA10.jpg,AFSA07.jpg,AFSA10.jpg,FS,4,num_2,16,num_2,1.21674855682,,,2018_Jan_31_1702,60.0091039324,FEMA4ImagesEEG,001,102833,
AFNE01.JPG,AFNE01.JPG,AFNE01.JPG,AFNE01.JPG,AFNE01.JPG,AFNE01.JPG,,,,,,,,,,,,,,,,,1,6,16,1,,,,,,,AFNE18.jpg,AFNE14.jpg,AFSA08.jpg,AFSA02.jpg,AFSA02.jpg,FS,4,num_4,32,num_6,0.733482648153,,,2018_Jan_31_1702,60.0091039324,FEMA4ImagesEEG,001,102833,
AFNE01.JPG,AFNE01.JPG,AFNE01.JPG,AFNE01.JPG,AFNE01.JPG,AFNE01.JPG,,,,,,,,,,,,,,,,,1,7,17,3,,,,,,,AFNE01.jpg,AFNE12.jpg,AFSA14.jpg,AFSA11.jpg,AFNE12.jpg,FN,3,num_6,32,num_8,0.500177529291,,,2018_Jan_31_1702,60.0091039324,FEMA4ImagesEEG,001,102833,
AFNE01.JPG,AFNE01.JPG,AFNE01.JPG,AFNE01.JPG,AFNE01.JPG,AFNE01.JPG,,,,,,,,,,,,,,,,,1,8,18,7,,,,,,,AFSA09.jpg,AFNE17.jpg,AFNE11.jpg,AFSA17.jpg,AFNE11.jpg,FN,3,num_2,16,num_2,1.91660104867,,,2018_Jan_31_1702,60.0091039324,FEMA4ImagesEEG,001,102833,
AFNE01.JPG,AFNE01.JPG,AFNE01.JPG,AFNE01.JPG,AFNE01.JPG,AFNE01.JPG,,,,,,,,,,,,,,,,,1,9,19,6,,,,,,,AFSA05.jpg,AFNE12.jpg,AFSA19.jpg,AFNE17.jpg,AFSA05.jpg,FS,4,num_8,32,num_4,0.750130941859,,,2018_Jan_31_1702,60.0091039324,FEMA4ImagesEEG,001,102833,
AFNE01.JPG,AFNE01.JPG,AFNE01.JPG,AFNE01.JPG,AFNE01.JPG,AFNE01.JPG,,,,,,,,,,,,,,,,,2,0,20,0,,,,,,,AFNE14.jpg,AFSA11.jpg,AFNE06.jpg,AFSA04.jpg,AFSA04.jpg,FS,4,num_4,32,num_8,0.950152302976,,,2018_Jan_31_1702,60.0091039324,FEMA4ImagesEEG,001,102833,
AFNE01.JPG,AFNE01.JPG,AFNE01.JPG,AFNE01.JPG,AFNE01.JPG,AFNE01.JPG,,,,,,,,,,,,,,,,,2,1,21,8,,,,,,,AFNE02.jpg,AFSA20.jpg,AFSA11.jpg,AFNE03.jpg,AFSA11.jpg,FS,4,num_2,16,num_2,0.883434040123,,,2018_Jan_31_1702,60.0091039324,FEMA4ImagesEEG,001,102833,
AFNE01.JPG,AFNE01.JPG,AFNE01.JPG,AFNE01.JPG,AFNE01.JPG,AFNE01.JPG,,,,,,,,,,,,,,,,,2,2,22,7,,,,,,,AFNE10.jpg,AFSA07.jpg,AFNE06.jpg,AFSA15.jpg,AFSA15.jpg,FS,4,num_4,32,num_6,0.683493184391,,,2018_Jan_31_1702,60.0091039324,FEMA4ImagesEEG,001,102833,
AFNE01.JPG,AFNE01.JPG,AFNE01.JPG,AFNE01.JPG,AFNE01.JPG,AFNE01.JPG,,,,,,,,,,,,,,,,,2,3,23,5,,,,,,,AFSA03.jpg,AFNE04.jpg,AFSA17.jpg,AFNE12.jpg,AFNE12.jpg,FN,3,num_4,32,num_8,1.66674834827,,,2018_Jan_31_1702,60.0091039324,FEMA4ImagesEEG,001,102833,
AFNE01.JPG,AFNE01.JPG,AFNE01.JPG,AFNE01.JPG,AFNE01.JPG,AFNE01.JPG,,,,,,,,,,,,,,,,,2,4,24,6,,,,,,,AFNE13.jpg,AFSA01.jpg,AFSA17.jpg,AFNE01.jpg,AFSA17.jpg,FS,4,num_2,32,num_4,1.18347570417,,,2018_Jan_31_1702,60.0091039324,FEMA4ImagesEEG,001,102833,
AFNE01.JPG,AFNE01.JPG,AFNE01.JPG,AFNE01.JPG,AFNE01.JPG,AFNE01.JPG,,,,,,,,,,,,,,,,,2,5,25,9,,,,,,,AFSA05.jpg,AFNE18.jpg,AFNE03.jpg,AFSA18.jpg,AFSA05.jpg,FS,4,num_8,32,num_2,1.10014667409,,,2018_Jan_31_1702,60.0091039324,FEMA4ImagesEEG,001,102833,
AFNE01.JPG,AFNE01.JPG,AFNE01.JPG,AFNE01.JPG,AFNE01.JPG,AFNE01.JPG,,,,,,,,,,,,,,,,,2,6,26,4,,,,,,,AFNE10.jpg,AFNE07.jpg,AFSA02.jpg,AFSA03.jpg,AFSA02.jpg,FS,4,num_2,32,num_8,0.766654147184,,,2018_Jan_31_1702,60.0091039324,FEMA4ImagesEEG,001,102833,
AFNE01.JPG,AFNE01.JPG,AFNE01.JPG,AFNE01.JPG,AFNE01.JPG,AFNE01.JPG,,,,,,,,,,,,,,,,,2,7,27,3,,,,,,,AFSA19.jpg,AFSA03.jpg,AFNE09.jpg,AFNE08.jpg,AFSA03.jpg,FS,4,num_6,16,num_6,0.616849333048,,,2018_Jan_31_1702,60.0091039324,FEMA4ImagesEEG,001,102833,
AFNE01.JPG,AFNE01.JPG,AFNE01.JPG,AFNE01.JPG,AFNE01.JPG,AFNE01.JPG,,,,,,,,,,,,,,,,,2,8,28,2,,,,,,,AFSA19.jpg,AFNE01.jpg,AFNE14.jpg,AFSA02.jpg,AFSA19.jpg,FS,4,num_8,32,num_4,0.716758018592,,,2018_Jan_31_1702,60.0091039324,FEMA4ImagesEEG,001,102833,
AFNE01.JPG,AFNE01.JPG,AFNE01.JPG,AFNE01.JPG,AFNE01.JPG,AFNE01.JPG,,,,,,,,,,,,,,,,,2,9,29,1,,,,,,,AFNE11.jpg,AFSA14.jpg,AFSA08.jpg,AFNE12.jpg,AFSA08.jpg,FS,4,num_2,32,num_6,0.333506639465,,,2018_Jan_31_1702,60.0091039324,FEMA4ImagesEEG,001,102833,
AFNE01.JPG,AFNE01.JPG,AFNE01.JPG,AFNE01.JPG,AFNE01.JPG,AFNE01.JPG,,,,,,,,,,,,,,,,,3,0,30,8,,,,,,,AFNE08.jpg,AFSA03.jpg,AFSA06.jpg,AFNE07.jpg,AFSA03.jpg,FS,4,num_6,32,num_8,0.900109596667,,,2018_Jan_31_1702,60.0091039324,FEMA4ImagesEEG,001,102833,
AFNE01.JPG,AFNE01.JPG,AFNE01.JPG,AFNE01.JPG,AFNE01.JPG,AFNE01.JPG,,,,,,,,,,,,,,,,,3,1,31,9,,,,,,,AFSA09.jpg,AFSA08.jpg,AFNE12.jpg,AFNE13.jpg,AFSA09.jpg,FS,4,num_8,16,num_8,0.916816585581,,,2018_Jan_31_1702,60.0091039324,FEMA4ImagesEEG,001,102833,
AFNE01.JPG,AFNE01.JPG,AFNE01.JPG,AFNE01.JPG,AFNE01.JPG,AFNE01.JPG,,,,,,,,,,,,,,,,,3,2,32,6,,,,,,,AFNE15.jpg,AFNE01.jpg,AFSA10.jpg,AFSA13.jpg,AFSA10.jpg,FS,4,num_2,32,num_4,0.883449756308,,,2018_Jan_31_1702,60.0091039324,FEMA4ImagesEEG,001,102833,
AFNE01.JPG,AFNE01.JPG,AFNE01.JPG,AFNE01.JPG,AFNE01.JPG,AFNE01.JPG,,,,,,,,,,,,,,,,,3,3,33,2,,,,,,,AFSA16.jpg,AFNE19.jpg,AFSA15.jpg,AFNE02.jpg,AFSA15.jpg,FS,4,num_2,32,num_8,0.78353241086,,,2018_Jan_31_1702,60.0091039324,FEMA4ImagesEEG,001,102833,
AFNE01.JPG,AFNE01.JPG,AFNE01.JPG,AFNE01.JPG,AFNE01.JPG,AFNE01.JPG,,,,,,,,,,,,,,,,,3,4,34,1,,,,,,,AFSA06.jpg,AFNE15.jpg,AFNE16.jpg,AFSA12.jpg,AFSA12.jpg,FS,4,num_4,32,num_2,1.18340385857,,,2018_Jan_31_1702,60.0091039324,FEMA4ImagesEEG,001,102833,
AFNE01.JPG,AFNE01.JPG,AFNE01.JPG,AFNE01.JPG,AFNE01.JPG,AFNE01.JPG,,,,,,,,,,,,,,,,,3,5,35,4,,,,,,,AFNE11.jpg,AFSA03.jpg,AFSA02.jpg,AFNE15.jpg,AFNE11.jpg,FN,3,num_8,16,num_8,0.750113621936,,,2018_Jan_31_1702,60.0091039324,FEMA4ImagesEEG,001,102833,
AFNE01.JPG,AFNE01.JPG,AFNE01.JPG,AFNE01.JPG,AFNE01.JPG,AFNE01.JPG,,,,,,,,,,,,,,,,,3,6,36,5,,,,,,,AFSA06.jpg,AFNE20.jpg,AFSA11.jpg,AFNE03.jpg,AFNE03.jpg,FN,3,num_4,16,num_4,0.750146337319,,,2018_Jan_31_1702,60.0091039324,FEMA4ImagesEEG,001,102833,
AFNE01.JPG,AFNE01.JPG,AFNE01.JPG,AFNE01.JPG,AFNE01.JPG,AFNE01.JPG,,,,,,,,,,,,,,,,,3,7,37,0,,,,,,,AFSA12.jpg,AFSA15.jpg,AFNE18.jpg,AFNE07.jpg,AFSA12.jpg,FS,4,num_8,32,num_2,0.800123612978,,,2018_Jan_31_1702,60.0091039324,FEMA4ImagesEEG,001,102833,
AFNE01.JPG,AFNE01.JPG,AFNE01.JPG,AFNE01.JPG,AFNE01.JPG,AFNE01.JPG,,,,,,,,,,,,,,,,,3,8,38,7,,,,,,,AFSA09.jpg,AFNE13.jpg,AFSA04.jpg,AFNE09.jpg,AFNE13.jpg,FN,3,num_6,32,num_8,0.516781560844,,,2018_Jan_31_1702,60.0091039324,FEMA4ImagesEEG,001,102833,
AFNE01.JPG,AFNE01.JPG,AFNE01.JPG,AFNE01.JPG,AFNE01.JPG,AFNE01.JPG,,,,,,,,,,,,,,,,,3,9,39,3,,,,,,,AFSA06.jpg,AFSA09.jpg,AFNE17.jpg,AFNE14.jpg,AFSA09.jpg,FS,4,num_6,16,num_6,0.833308903733,,,2018_Jan_31_1702,60.0091039324,FEMA4ImagesEEG,001,102833,
AFNE01.JPG,AFNE01.JPG,AFNE01.JPG,AFNE01.JPG,AFNE01.JPG,AFNE01.JPG,,,,,,,,,,,,,,,,,4,0,40,3,,,,,,,AFSA15.jpg,AFNE11.jpg,AFSA20.jpg,AFNE03.jpg,AFSA20.jpg,FS,4,num_2,32,num_6,0.816823545611,,,2018_Jan_31_1702,60.0091039324,FEMA4ImagesEEG,001,102833,
AFNE01.JPG,AFNE01.JPG,AFNE01.JPG,AFNE01.JPG,AFNE01.JPG,AFNE01.JPG,,,,,,,,,,,,,,,,,4,1,41,4,,,,,,,AFSA01.jpg,AFNE04.jpg,AFNE18.jpg,AFSA18.jpg,AFSA18.jpg,FS,4,num_4,16,num_4,0.650168051361,,,2018_Jan_31_1702,60.0091039324,FEMA4ImagesEEG,001,102833,
AFNE01.JPG,AFNE01.JPG,AFNE01.JPG,AFNE01.JPG,AFNE01.JPG,AFNE01.JPG,,,,,,,,,,,,,,,,,4,2,42,7,,,,,,,AFNE20.jpg,AFSA02.jpg,AFSA09.jpg,AFNE19.jpg,AFNE19.jpg,FN,3,num_4,32,num_2,1.48344905069,,,2018_Jan_31_1702,60.0091039324,FEMA4ImagesEEG,001,102833,
AFNE01.JPG,AFNE01.JPG,AFNE01.JPG,AFNE01.JPG,AFNE01.JPG,AFNE01.JPG,,,,,,,,,,,,,,,,,4,3,43,9,,,,,,,AFSA04.jpg,AFSA12.jpg,AFNE18.jpg,AFNE09.jpg,AFSA12.jpg,FS,4,num_6,32,num_8,0.816767095472,,,2018_Jan_31_1702,60.0091039324,FEMA4ImagesEEG,001,102833,
AFNE01.JPG,AFNE01.JPG,AFNE01.JPG,AFNE01.JPG,AFNE01.JPG,AFNE01.JPG,,,,,,,,,,,,,,,,,4,4,44,0,,,,,,,AFSA12.jpg,AFSA09.jpg,AFNE05.jpg,AFNE08.jpg,AFSA09.jpg,FS,4,num_6,16,num_6,0.78346665937,,,2018_Jan_31_1702,60.0091039324,FEMA4ImagesEEG,001,102833,
AFNE01.JPG,AFNE01.JPG,AFNE01.JPG,AFNE01.JPG,AFNE01.JPG,AFNE01.JPG,,,,,,,,,,,,,,,,,4,5,45,5,,,,,,,AFNE06.jpg,AFSA09.jpg,AFSA05.jpg,AFNE19.jpg,AFSA05.jpg,FS,4,num_2,32,num_4,0.700138912187,,,2018_Jan_31_1702,60.0091039324,FEMA4ImagesEEG,001,102833,
AFNE01.JPG,AFNE01.JPG,AFNE01.JPG,AFNE01.JPG,AFNE01.JPG,AFNE01.JPG,,,,,,,,,,,,,,,,,4,6,46,2,,,,,,,AFSA02.jpg,AFNE11.jpg,AFSA17.jpg,AFNE19.jpg,AFSA02.jpg,FS,4,num_8,32,num_2,0.616780374083,,,2018_Jan_31_1702,60.0091039324,FEMA4ImagesEEG,001,102833,
AFNE01.JPG,AFNE01.JPG,AFNE01.JPG,AFNE01.JPG,AFNE01.JPG,AFNE01.JPG,,,,,,,,,,,,,,,,,4,7,47,8,,,,,,,AFNE11.jpg,AFSA03.jpg,AFSA15.jpg,AFNE13.jpg,AFSA15.jpg,FS,4,num_2,32,num_8,0.533362178481,,,2018_Jan_31_1702,60.0091039324,FEMA4ImagesEEG,001,102833,
AFNE01.JPG,AFNE01.JPG,AFNE01.JPG,AFNE01.JPG,AFNE01.JPG,AFNE01.JPG,,,,,,,,,,,,,,,,,4,8,48,6,,,,,,,AFNE11.jpg,AFSA19.jpg,AFSA20.jpg,AFNE12.jpg,AFSA20.jpg,FS,4,num_2,16,num_2,1.18346127088,,,2018_Jan_31_1702,60.0091039324,FEMA4ImagesEEG,001,102833,
AFNE01.JPG,AFNE01.JPG,AFNE01.JPG,AFNE01.JPG,AFNE01.JPG,AFNE01.JPG,,,,,,,,,,,,,,,,,4,9,49,1,,,,,,,AFNE13.jpg,AFNE04.jpg,AFSA12.jpg,AFSA07.jpg,AFSA12.jpg,FS,4,num_2,32,num_8,0.566752742394,,,2018_Jan_31_1702,60.0091039324,FEMA4ImagesEEG,001,102833,
AFNE01.JPG,AFNE01.JPG,AFNE01.JPG,AFNE01.JPG,AFNE01.JPG,AFNE01.JPG,,,,,,,,,,,,,,,,,5,0,50,7,,,,,,,AFNE03.jpg,AFSA10.jpg,AFSA08.jpg,AFNE08.jpg,AFSA08.jpg,FS,4,num_2,32,num_8,0.566843190929,,,2018_Jan_31_1702,60.0091039324,FEMA4ImagesEEG,001,102833,
AFNE01.JPG,AFNE01.JPG,AFNE01.JPG,AFNE01.JPG,AFNE01.JPG,AFNE01.JPG,,,,,,,,,,,,,,,,,5,1,51,3,,,,,,,AFNE10.jpg,AFSA09.jpg,AFSA10.jpg,AFNE15.jpg,AFSA09.jpg,FS,4,num_6,16,num_6,0.666803194676,,,2018_Jan_31_1702,60.0091039324,FEMA4ImagesEEG,001,102833,
AFNE01.JPG,AFNE01.JPG,AFNE01.JPG,AFNE01.JPG,AFNE01.JPG,AFNE01.JPG,,,,,,,,,,,,,,,,,5,2,52,2,,,,,,,AFSA09.jpg,AFSA15.jpg,AFNE09.jpg,AFNE16.jpg,AFNE16.jpg,FN,3,num_4,32,num_8,0.700164892129,,,2018_Jan_31_1702,60.0091039324,FEMA4ImagesEEG,001,102833,
AFNE01.JPG,AFNE01.JPG,AFNE01.JPG,AFNE01.JPG,AFNE01.JPG,AFNE01.JPG,,,,,,,,,,,,,,,,,5,3,53,9,,,,,,,AFSA09.jpg,AFNE16.jpg,AFNE11.jpg,AFSA03.jpg,AFNE11.jpg,FN,3,num_2,16,num_2,1.35013248131,,,2018_Jan_31_1702,60.0091039324,FEMA4ImagesEEG,001,102833,
AFNE01.JPG,AFNE01.JPG,AFNE01.JPG,AFNE01.JPG,AFNE01.JPG,AFNE01.JPG,,,,,,,,,,,,,,,,,5,4,54,5,,,,,,,AFSA07.jpg,AFNE12.jpg,AFNE06.jpg,AFSA18.jpg,AFNE12.jpg,FN,3,num_6,16,num_6,0.783470187453,,,2018_Jan_31_1702,60.0091039324,FEMA4ImagesEEG,001,102833,
AFNE01.JPG,AFNE01.JPG,AFNE01.JPG,AFNE01.JPG,AFNE01.JPG,AFNE01.JPG,,,,,,,,,,,,,,,,,5,5,55,1,,,,,,,AFSA10.jpg,AFNE19.jpg,AFNE05.jpg,AFSA03.jpg,AFNE19.jpg,FN,3,num_6,16,num_6,0.483490105369,,,2018_Jan_31_1702,60.0091039324,FEMA4ImagesEEG,001,102833,
AFNE01.JPG,AFNE01.JPG,AFNE01.JPG,AFNE01.JPG,AFNE01.JPG,AFNE01.JPG,,,,,,,,,,,,,,,,,5,6,56,4,,,,,,,AFSA20.jpg,AFNE17.jpg,AFNE02.jpg,AFSA16.jpg,AFNE17.jpg,FN,3,num_6,32,num_8,0.700162005378,,,2018_Jan_31_1702,60.0091039324,FEMA4ImagesEEG,001,102833,
AFNE01.JPG,AFNE01.JPG,AFNE01.JPG,AFNE01.JPG,AFNE01.JPG,AFNE01.JPG,,,,,,,,,,,,,,,,,5,7,57,6,,,,,,,AFNE16.jpg,AFSA13.jpg,AFSA18.jpg,AFNE09.jpg,AFNE09.jpg,FN,3,num_4,32,num_2,0.733507665806,,,2018_Jan_31_1702,60.0091039324,FEMA4ImagesEEG,001,102833,
AFNE01.JPG,AFNE01.JPG,AFNE01.JPG,AFNE01.JPG,AFNE01.JPG,AFNE01.JPG,,,,,,,,,,,,,,,,,5,8,58,0,,,,,,,AFNE09.jpg,AFSA08.jpg,AFSA18.jpg,AFNE12.jpg,AFNE09.jpg,FN,3,num_8,32,num_4,0.683496712591,,,2018_Jan_31_1702,60.0091039324,FEMA4ImagesEEG,001,102833,
AFNE01.JPG,AFNE01.JPG,AFNE01.JPG,AFNE01.JPG,AFNE01.JPG,AFNE01.JPG,,,,,,,,,,,,,,,,,5,9,59,8,,,,,,,AFSA10.jpg,AFNE07.jpg,AFSA01.jpg,AFNE03.jpg,AFSA01.jpg,FS,4,num_2,32,num_8,1.08332838851,,,2018_Jan_31_1702,60.0091039324,FEMA4ImagesEEG,001,102833,
,,,,,,,,,,,,,,,,,,,,,,,,,,,,,,,,,,,,,,,,,,,space,12.7491857231,2018_Jan_31_1702,60.0091039324,FEMA4ImagesEEG,001,102833,
AFNE01.JPG,AFNE01.JPG,AFNE01.JPG,AFNE01.JPG,AFNE01.JPG,AFNE01.JPG,,,,,,,,,,,,,,,,,,,,,0,0,0,9,,,AMNE14.jpg,AMSA04.jpg,AMSA01.jpg,AMNE12.jpg,AMNE12.jpg,MN,1,num_4,32,num_8,0.733302071923,,,2018_Jan_31_1702,60.0091039324,FEMA4ImagesEEG,001,102833,
AFNE01.JPG,AFNE01.JPG,AFNE01.JPG,AFNE01.JPG,AFNE01.JPG,AFNE01.JPG,,,,,,,,,,,,,,,,,,,,,0,1,1,8,,,AMSA08.jpg,AMNE05.jpg,AMNE15.jpg,AMSA11.jpg,AMNE15.jpg,MN,1,num_2,16,num_2,1.00011065509,,,2018_Jan_31_1702,60.0091039324,FEMA4ImagesEEG,001,102833,
AFNE01.JPG,AFNE01.JPG,AFNE01.JPG,AFNE01.JPG,AFNE01.JPG,AFNE01.JPG,,,,,,,,,,,,,,,,,,,,,0,2,2,2,,,AMSA09.jpg,AMNE19.jpg,AMSA12.jpg,AMNE08.jpg,AMNE19.jpg,MN,1,num_6,32,num_4,0.883518715273,,,2018_Jan_31_1702,60.0091039324,FEMA4ImagesEEG,001,102833,
AFNE01.JPG,AFNE01.JPG,AFNE01.JPG,AFNE01.JPG,AFNE01.JPG,AFNE01.JPG,,,,,,,,,,,,,,,,,,,,,0,3,3,6,,,AMSA12.jpg,AMSA03.jpg,AMNE11.jpg,AMNE03.jpg,AMSA03.jpg,MS,2,num_6,32,num_2,0.916827490786,,,2018_Jan_31_1702,60.0091039324,FEMA4ImagesEEG,001,102833,
AFNE01.JPG,AFNE01.JPG,AFNE01.JPG,AFNE01.JPG,AFNE01.JPG,AFNE01.JPG,,,,,,,,,,,,,,,,,,,,,0,4,4,4,,,AMSA11.jpg,AMNE11.jpg,AMNE13.jpg,AMSA01.jpg,AMNE11.jpg,MN,1,num_6,32,num_4,0.550144541194,,,2018_Jan_31_1702,60.0091039324,FEMA4ImagesEEG,001,102833,
AFNE01.JPG,AFNE01.JPG,AFNE01.JPG,AFNE01.JPG,AFNE01.JPG,AFNE01.JPG,,,,,,,,,,,,,,,,,,,,,0,5,5,3,,,AMSA15.jpg,AMSA06.jpg,AMNE10.jpg,AMNE04.jpg,AMSA15.jpg,MS,2,num_8,16,num_8,0.683510504314,,,2018_Jan_31_1702,60.0091039324,FEMA4ImagesEEG,001,102833,
AFNE01.JPG,AFNE01.JPG,AFNE01.JPG,AFNE01.JPG,AFNE01.JPG,AFNE01.JPG,,,,,,,,,,,,,,,,,,,,,0,6,6,5,,,AMNE08.jpg,AMSA13.jpg,AMSA14.jpg,AMNE01.jpg,AMNE01.jpg,MN,1,num_4,16,num_4,0.850123661105,,,2018_Jan_31_1702,60.0091039324,FEMA4ImagesEEG,001,102833,
AFNE01.JPG,AFNE01.JPG,AFNE01.JPG,AFNE01.JPG,AFNE01.JPG,AFNE01.JPG,,,,,,,,,,,,,,,,,,,,,0,7,7,0,,,AMSA05.jpg,AMNE18.jpg,AMNE14.jpg,AMSA18.jpg,AMNE14.jpg,MN,1,num_2,32,num_6,0.650158749893,,,2018_Jan_31_1702,60.0091039324,FEMA4ImagesEEG,001,102833,
AFNE01.JPG,AFNE01.JPG,AFNE01.JPG,AFNE01.JPG,AFNE01.JPG,AFNE01.JPG,,,,,,,,,,,,,,,,,,,,,0,8,8,1,,,AMNE08.jpg,AMSA02.jpg,AMNE06.jpg,AMSA13.jpg,AMSA02.jpg,MS,2,num_6,32,num_8,0.766741067404,,,2018_Jan_31_1702,60.0091039324,FEMA4ImagesEEG,001,102833,
AFNE01.JPG,AFNE01.JPG,AFNE01.JPG,AFNE01.JPG,AFNE01.JPG,AFNE01.JPG,,,,,,,,,,,,,,,,,,,,,0,9,9,7,,,AMSA01.jpg,AMNE10.jpg,AMSA02.jpg,AMNE09.jpg,AMNE10.jpg,MN,1,num_6,16,num_6,0.833465424483,,,2018_Jan_31_1702,60.0091039324,FEMA4ImagesEEG,001,102833,
AFNE01.JPG,AFNE01.JPG,AFNE01.JPG,AFNE01.JPG,AFNE01.JPG,AFNE01.JPG,,,,,,,,,,,,,,,,,,,,,1,0,10,5,,,AMNE12.jpg,AMNE20.jpg,AMSA12.jpg,AMSA06.jpg,AMSA06.jpg,MS,2,num_4,32,num_8,0.683509221417,,,2018_Jan_31_1702,60.0091039324,FEMA4ImagesEEG,001,102833,
AFNE01.JPG,AFNE01.JPG,AFNE01.JPG,AFNE01.JPG,AFNE01.JPG,AFNE01.JPG,,,,,,,,,,,,,,,,,,,,,1,1,11,9,,,AMNE13.jpg,AMSA16.jpg,AMSA11.jpg,AMNE19.jpg,AMSA11.jpg,MS,2,num_2,32,num_4,0.666821797495,,,2018_Jan_31_1702,60.0091039324,FEMA4ImagesEEG,001,102833,
AFNE01.JPG,AFNE01.JPG,AFNE01.JPG,AFNE01.JPG,AFNE01.JPG,AFNE01.JPG,,,,,,,,,,,,,,,,,,,,,1,2,12,3,,,AMNE18.jpg,AMSA01.jpg,AMSA19.jpg,AMNE15.jpg,AMSA01.jpg,MS,2,num_6,32,num_2,1.06650208461,,,2018_Jan_31_1702,60.0091039324,FEMA4ImagesEEG,001,102833,
AFNE01.JPG,AFNE01.JPG,AFNE01.JPG,AFNE01.JPG,AFNE01.JPG,AFNE01.JPG,,,,,,,,,,,,,,,,,,,,,1,3,13,6,,,AMSA05.jpg,AMSA18.jpg,AMNE10.jpg,AMNE11.jpg,AMNE11.jpg,MN,1,num_4,32,num_6,0.566834851634,,,2018_Jan_31_1702,60.0091039324,FEMA4ImagesEEG,001,102833,
AFNE01.JPG,AFNE01.JPG,AFNE01.JPG,AFNE01.JPG,AFNE01.JPG,AFNE01.JPG,,,,,,,,,,,,,,,,,,,,,1,4,14,7,,,AMSA02.jpg,AMSA18.jpg,AMNE14.jpg,AMNE04.jpg,AMNE14.jpg,MN,1,num_2,32,num_8,0.600155815133,,,2018_Jan_31_1702,60.0091039324,FEMA4ImagesEEG,001,102833,
AFNE01.JPG,AFNE01.JPG,AFNE01.JPG,AFNE01.JPG,AFNE01.JPG,AFNE01.JPG,,,,,,,,,,,,,,,,,,,,,1,5,15,0,,,AMSA09.jpg,AMNE18.jpg,AMNE14.jpg,AMSA01.jpg,AMSA01.jpg,MS,2,num_4,16,num_4,0.733497081441,,,2018_Jan_31_1702,60.0091039324,FEMA4ImagesEEG,001,102833,
AFNE01.JPG,AFNE01.JPG,AFNE01.JPG,AFNE01.JPG,AFNE01.JPG,AFNE01.JPG,,,,,,,,,,,,,,,,,,,,,1,6,16,2,,,AMNE14.jpg,AMNE09.jpg,AMSA08.jpg,AMSA12.jpg,AMSA08.jpg,MS,2,num_2,32,num_8,1.15013485483,,,2018_Jan_31_1702,60.0091039324,FEMA4ImagesEEG,001,102833,
AFNE01.JPG,AFNE01.JPG,AFNE01.JPG,AFNE01.JPG,AFNE01.JPG,AFNE01.JPG,,,,,,,,,,,,,,,,,,,,,1,7,17,4,,,AMSA20.jpg,AMSA04.jpg,AMNE07.jpg,AMNE02.jpg,AMNE07.jpg,MN,1,num_2,32,num_4,0.666868946166,,,2018_Jan_31_1702,60.0091039324,FEMA4ImagesEEG,001,102833,
AFNE01.JPG,AFNE01.JPG,AFNE01.JPG,AFNE01.JPG,AFNE01.JPG,AFNE01.JPG,,,,,,,,,,,,,,,,,,,,,1,8,18,1,,,AMSA17.jpg,AMNE19.jpg,AMNE13.jpg,AMSA04.jpg,AMSA17.jpg,MS,2,num_8,16,num_8,0.65017157956,,,2018_Jan_31_1702,60.0091039324,FEMA4ImagesEEG,001,102833,
AFNE01.JPG,AFNE01.JPG,AFNE01.JPG,AFNE01.JPG,AFNE01.JPG,AFNE01.JPG,,,,,,,,,,,,,,,,,,,,,1,9,19,8,,,AMSA08.jpg,AMNE08.jpg,AMSA01.jpg,AMNE15.jpg,AMSA08.jpg,MS,2,num_8,32,num_4,0.733543588663,,,2018_Jan_31_1702,60.0091039324,FEMA4ImagesEEG,001,102833,
AFNE01.JPG,AFNE01.JPG,AFNE01.JPG,AFNE01.JPG,AFNE01.JPG,AFNE01.JPG,,,,,,,,,,,,,,,,,,,,,2,0,20,4,,,AMSA02.jpg,AMNE08.jpg,AMNE14.jpg,AMSA06.jpg,AMSA02.jpg,MS,2,num_8,16,num_8,0.633499551099,,,2018_Jan_31_1702,60.0091039324,FEMA4ImagesEEG,001,102833,
AFNE01.JPG,AFNE01.JPG,AFNE01.JPG,AFNE01.JPG,AFNE01.JPG,AFNE01.JPG,,,,,,,,,,,,,,,,,,,,,2,1,21,3,,,AMSA01.jpg,AMNE06.jpg,AMSA16.jpg,AMNE14.jpg,AMNE14.jpg,MN,1,num_4,32,num_8,1.70010234788,,,2018_Jan_31_1702,60.0091039324,FEMA4ImagesEEG,001,102833,
AFNE01.JPG,AFNE01.JPG,AFNE01.JPG,AFNE01.JPG,AFNE01.JPG,AFNE01.JPG,,,,,,,,,,,,,,,,,,,,,2,2,22,7,,,AMSA15.jpg,AMNE13.jpg,AMNE12.jpg,AMSA01.jpg,AMNE13.jpg,MN,1,num_6,16,num_6,0.566825229442,,,2018_Jan_31_1702,60.0091039324,FEMA4ImagesEEG,001,102833,
AFNE01.JPG,AFNE01.JPG,AFNE01.JPG,AFNE01.JPG,AFNE01.JPG,AFNE01.JPG,,,,,,,,,,,,,,,,,,,,,2,3,23,6,,,AMSA06.jpg,AMNE14.jpg,AMSA01.jpg,AMNE05.jpg,AMNE05.jpg,MN,1,num_4,16,num_4,0.583459410584,,,2018_Jan_31_1702,60.0091039324,FEMA4ImagesEEG,001,102833,
AFNE01.JPG,AFNE01.JPG,AFNE01.JPG,AFNE01.JPG,AFNE01.JPG,AFNE01.JPG,,,,,,,,,,,,,,,,,,,,,2,4,24,9,,,AMNE02.jpg,AMNE10.jpg,AMSA19.jpg,AMSA09.jpg,AMSA09.jpg,MS,2,num_4,32,num_8,0.900127878645,,,2018_Jan_31_1702,60.0091039324,FEMA4ImagesEEG,001,102833,
AFNE01.JPG,AFNE01.JPG,AFNE01.JPG,AFNE01.JPG,AFNE01.JPG,AFNE01.JPG,,,,,,,,,,,,,,,,,,,,,2,5,25,1,,,AMSA19.jpg,AMNE14.jpg,AMNE02.jpg,AMSA05.jpg,AMSA05.jpg,MS,2,num_4,16,num_4,0.816774472478,,,2018_Jan_31_1702,60.0091039324,FEMA4ImagesEEG,001,102833,
AFNE01.JPG,AFNE01.JPG,AFNE01.JPG,AFNE01.JPG,AFNE01.JPG,AFNE01.JPG,,,,,,,,,,,,,,,,,,,,,2,6,26,0,,,AMNE02.jpg,AMSA03.jpg,AMNE06.jpg,AMSA05.jpg,AMNE02.jpg,MN,1,num_8,32,num_6,0.700132818078,,,2018_Jan_31_1702,60.0091039324,FEMA4ImagesEEG,001,102833,
AFNE01.JPG,AFNE01.JPG,AFNE01.JPG,AFNE01.JPG,AFNE01.JPG,AFNE01.JPG,,,,,,,,,,,,,,,,,,,,,2,7,27,2,,,AMNE14.jpg,AMSA08.jpg,AMSA09.jpg,AMNE06.jpg,AMNE06.jpg,MN,1,num_4,32,num_8,1.93346070952,,,2018_Jan_31_1702,60.0091039324,FEMA4ImagesEEG,001,102833,
AFNE01.JPG,AFNE01.JPG,AFNE01.JPG,AFNE01.JPG,AFNE01.JPG,AFNE01.JPG,,,,,,,,,,,,,,,,,,,,,2,8,28,5,,,AMNE08.jpg,AMSA05.jpg,AMNE10.jpg,AMSA03.jpg,AMNE10.jpg,MN,1,num_2,32,num_6,0.666804156848,,,2018_Jan_31_1702,60.0091039324,FEMA4ImagesEEG,001,102833,
AFNE01.JPG,AFNE01.JPG,AFNE01.JPG,AFNE01.JPG,AFNE01.JPG,AFNE01.JPG,,,,,,,,,,,,,,,,,,,,,2,9,29,8,,,AMNE07.jpg,AMSA11.jpg,AMNE16.jpg,AMSA04.jpg,AMSA04.jpg,MS,2,num_4,32,num_8,0.566795721417,,,2018_Jan_31_1702,60.0091039324,FEMA4ImagesEEG,001,102833,
AFNE01.JPG,AFNE01.JPG,AFNE01.JPG,AFNE01.JPG,AFNE01.JPG,AFNE01.JPG,,,,,,,,,,,,,,,,,,,,,3,0,30,2,,,AMNE14.jpg,AMSA09.jpg,AMSA12.jpg,AMNE03.jpg,AMNE14.jpg,MN,1,num_8,32,num_4,0.333568221424,,,2018_Jan_31_1702,60.0091039324,FEMA4ImagesEEG,001,102833,
AFNE01.JPG,AFNE01.JPG,AFNE01.JPG,AFNE01.JPG,AFNE01.JPG,AFNE01.JPG,,,,,,,,,,,,,,,,,,,,,3,1,31,5,,,AMNE14.jpg,AMNE19.jpg,AMSA19.jpg,AMSA14.jpg,AMNE14.jpg,MN,1,num_8,16,num_8,0.500140964868,,,2018_Jan_31_1702,60.0091039324,FEMA4ImagesEEG,001,102833,
AFNE01.JPG,AFNE01.JPG,AFNE01.JPG,AFNE01.JPG,AFNE01.JPG,AFNE01.JPG,,,,,,,,,,,,,,,,,,,,,3,2,32,6,,,AMSA14.jpg,AMNE14.jpg,AMSA09.jpg,AMNE02.jpg,AMSA09.jpg,MS,2,num_2,16,num_2,0.950114776613,,,2018_Jan_31_1702,60.0091039324,FEMA4ImagesEEG,001,102833,
AFNE01.JPG,AFNE01.JPG,AFNE01.JPG,AFNE01.JPG,AFNE01.JPG,AFNE01.JPG,,,,,,,,,,,,,,,,,,,,,3,3,33,0,,,AMNE18.jpg,AMSA14.jpg,AMNE07.jpg,AMSA13.jpg,AMSA13.jpg,MS,2,num_4,16,num_4,0.883543412201,,,2018_Jan_31_1702,60.0091039324,FEMA4ImagesEEG,001,102833,
AFNE01.JPG,AFNE01.JPG,AFNE01.JPG,AFNE01.JPG,AFNE01.JPG,AFNE01.JPG,,,,,,,,,,,,,,,,,,,,,3,4,34,3,,,AMSA08.jpg,AMSA10.jpg,AMNE15.jpg,AMNE13.jpg,AMNE13.jpg,MN,1,num_4,32,num_2,0.833453877829,,,2018_Jan_31_1702,60.0091039324,FEMA4ImagesEEG,001,102833,
AFNE01.JPG,AFNE01.JPG,AFNE01.JPG,AFNE01.JPG,AFNE01.JPG,AFNE01.JPG,,,,,,,,,,,,,,,,,,,,,3,5,35,8,,,AMNE06.jpg,AMSA15.jpg,AMSA04.jpg,AMNE14.jpg,AMNE14.jpg,MN,1,num_4,32,num_8,0.783203973901,,,2018_Jan_31_1702,60.0091039324,FEMA4ImagesEEG,001,102833,
AFNE01.JPG,AFNE01.JPG,AFNE01.JPG,AFNE01.JPG,AFNE01.JPG,AFNE01.JPG,,,,,,,,,,,,,,,,,,,,,3,6,36,7,,,AMSA18.jpg,AMSA01.jpg,AMNE15.jpg,AMNE07.jpg,AMSA01.jpg,MS,2,num_6,16,num_6,0.583504955634,,,2018_Jan_31_1702,60.0091039324,FEMA4ImagesEEG,001,102833,
AFNE01.JPG,AFNE01.JPG,AFNE01.JPG,AFNE01.JPG,AFNE01.JPG,AFNE01.JPG,,,,,,,,,,,,,,,,,,,,,3,7,37,1,,,AMNE06.jpg,AMSA07.jpg,AMNE17.jpg,AMSA04.jpg,AMSA04.jpg,MS,2,num_4,32,num_8,0.950097135967,,,2018_Jan_31_1702,60.0091039324,FEMA4ImagesEEG,001,102833,
AFNE01.JPG,AFNE01.JPG,AFNE01.JPG,AFNE01.JPG,AFNE01.JPG,AFNE01.JPG,,,,,,,,,,,,,,,,,,,,,3,8,38,9,,,AMSA05.jpg,AMNE12.jpg,AMSA11.jpg,AMNE14.jpg,AMNE12.jpg,MN,1,num_6,32,num_4,0.683555087191,,,2018_Jan_31_1702,60.0091039324,FEMA4ImagesEEG,001,102833,
