IPosition2,IPosition3,IPosition1,IPosition6,IPosition4,IPosition5,TrialsM1.thisRepN,TrialsM1.thisTrialN,TrialsM1.thisN,TrialsM1.thisIndex,TrialsF1.thisRepN,TrialsF1.thisTrialN,TrialsF1.thisN,TrialsF1.thisIndex,TrialsM2.thisRepN,TrialsM2.thisTrialN,TrialsM2.thisN,TrialsM2.thisIndex,TrialsF2.thisRepN,TrialsF2.thisTrialN,TrialsF2.thisN,TrialsF2.thisIndex,TrialsM3.thisRepN,TrialsM3.thisTrialN,TrialsM3.thisN,TrialsM3.thisIndex,TrialsF3.thisRepN,TrialsF3.thisTrialN,TrialsF3.thisN,TrialsF3.thisIndex,InstrKey_resp.keys,InstrKey_resp.rt,Image0 _Position,Image1 _Position,Image2 _Position,Image3 _Position,Center_image,condition,code,correct_answer,accuracy,Key_Resp.keys,Key_Resp.rt,BreakKey_resp.keys,BreakKey_resp.rt,date,frameRate,expName,session,participant,
,,,,,,,,,,,,,,,,,,,,,,,,,,,,,,space,50.9628821248,,,,,,,,,,,,,,2018_Feb_09_1519,59.9960552049,MAFE4ImagesEEG,001,102949,
AMNE22.JPG,AMSA24.JPG,AMSA22.JPG,AMNE25.JPG,AMNE24.JPG,AMSA25.JPG,0,0,0,7,,,,,,,,,,,,,,,,,,,,,,,AMNE13.jpg,AMNE10.jpg,AMSA05.jpg,AMSA14.jpg,AMNE10.jpg,MN,1,num_6,32,num_8,2.48334128223,,,2018_Feb_09_1519,59.9960552049,MAFE4ImagesEEG,001,102949,
AFSA21.JPG,AFNE23.JPG,AFNE21.JPG,AFSA25.JPG,AFNE25.JPG,AFSA23.JPG,0,1,1,4,,,,,,,,,,,,,,,,,,,,,,,AMNE09.jpg,AMSA20.jpg,AMSA14.jpg,AMNE06.jpg,AMSA20.jpg,MS,2,num_6,32,num_2,4.58334811404,,,2018_Feb_09_1519,59.9960552049,MAFE4ImagesEEG,001,102949,
AFSA21.JPG,AFNE22.JPG,AFNE21.JPG,AFSA23.JPG,AFSA22.JPG,AFNE23.JPG,0,2,2,0,,,,,,,,,,,,,,,,,,,,,,,AMSA06.jpg,AMNE12.jpg,AMNE14.jpg,AMSA04.jpg,AMNE12.jpg,MN,1,num_6,16,num_6,1.1667379241,,,2018_Feb_09_1519,59.9960552049,MAFE4ImagesEEG,001,102949,
AFNE22.JPG,AFSA24.JPG,AFSA22.JPG,AFNE25.JPG,AFNE24.JPG,AFSA25.JPG,0,3,3,6,,,,,,,,,,,,,,,,,,,,,,,AMSA04.jpg,AMNE05.jpg,AMNE10.jpg,AMSA18.jpg,AMNE05.jpg,MN,1,num_6,16,num_6,1.68341748999,,,2018_Feb_09_1519,59.9960552049,MAFE4ImagesEEG,001,102949,
AFNE23.JPG,AFNE24.JPG,AFNE22.JPG,AFSA24.JPG,AFSA22.JPG,AFSA23.JPG,0,4,4,8,,,,,,,,,,,,,,,,,,,,,,,AMSA16.jpg,AMNE02.jpg,AMSA01.jpg,AMNE04.jpg,AMSA01.jpg,MS,2,num_2,32,num_4,2.94995087874,,,2018_Feb_09_1519,59.9960552049,MAFE4ImagesEEG,001,102949,
AMSA25.JPG,AMNE24.JPG,AMSA24.JPG,AMNE26.JPG,AMSA21.JPG,AMNE25.JPG,0,5,5,3,,,,,,,,,,,,,,,,,,,,,,,AMSA13.jpg,AMNE04.jpg,AMNE08.jpg,AMSA09.jpg,AMNE08.jpg,MN,1,num_2,32,num_4,1.55020484002,,,2018_Feb_09_1519,59.9960552049,MAFE4ImagesEEG,001,102949,
AMNE23.JPG,AMNE24.JPG,AMNE22.JPG,AMSA24.JPG,AMSA22.JPG,AMSA23.JPG,0,6,6,9,,,,,,,,,,,,,,,,,,,,,,,AMSA06.jpg,AMNE15.jpg,AMNE01.jpg,AMSA18.jpg,AMNE01.jpg,MN,1,num_2,32,num_8,1.38344029454,,,2018_Feb_09_1519,59.9960552049,MAFE4ImagesEEG,001,102949,
AMSA21.JPG,AMNE23.JPG,AMNE21.JPG,AMSA25.JPG,AMNE25.JPG,AMSA23.JPG,0,7,7,5,,,,,,,,,,,,,,,,,,,,,,,AMNE05.jpg,AMSA20.jpg,AMNE02.jpg,AMSA09.jpg,AMSA09.jpg,MS,2,num_4,16,num_4,1.0499654084,,,2018_Feb_09_1519,59.9960552049,MAFE4ImagesEEG,001,102949,
AMSA21.JPG,AMNE22.JPG,AMNE21.JPG,AMSA23.JPG,AMSA22.JPG,AMNE23.JPG,0,8,8,1,,,,,,,,,,,,,,,,,,,,,,,AMSA02.jpg,AMSA20.jpg,AMNE13.jpg,AMNE14.jpg,AMSA20.jpg,MS,2,num_6,16,num_6,2.18335286109,,,2018_Feb_09_1519,59.9960552049,MAFE4ImagesEEG,001,102949,
AFSA25.JPG,AFNE24.JPG,AFSA24.JPG,AFNE21.JPG,AFSA21.JPG,AFNE25.JPG,0,9,9,2,,,,,,,,,,,,,,,,,,,,,,,AMNE03.jpg,AMSA03.jpg,AMSA12.jpg,AMNE02.jpg,AMNE02.jpg,MN,1,num_4,32,num_2,3.01664027525,,,2018_Feb_09_1519,59.9960552049,MAFE4ImagesEEG,001,102949,
AMSA21.JPG,AMNE23.JPG,AMNE21.JPG,AMSA25.JPG,AMNE25.JPG,AMSA23.JPG,,,,,0,0,0,5,,,,,,,,,,,,,,,,,,,AFNE13.jpg,AFSA10.jpg,AFNE08.jpg,AFSA07.jpg,AFSA10.jpg,FS,4,num_6,48,None,,,,2018_Feb_09_1519,59.9960552049,MAFE4ImagesEEG,001,102949,
AFNE23.JPG,AFNE24.JPG,AFNE22.JPG,AFSA24.JPG,AFSA22.JPG,AFSA23.JPG,,,,,0,1,1,8,,,,,,,,,,,,,,,,,,,AFNE14.jpg,AFSA07.jpg,AFSA06.jpg,AFNE12.jpg,AFSA07.jpg,FS,4,num_6,32,num_8,1.33330393233,,,2018_Feb_09_1519,59.9960552049,MAFE4ImagesEEG,001,102949,
AFSA25.JPG,AFNE24.JPG,AFSA24.JPG,AFNE21.JPG,AFSA21.JPG,AFNE25.JPG,,,,,0,2,2,2,,,,,,,,,,,,,,,,,,,AFSA08.jpg,AFSA01.jpg,AFNE14.jpg,AFNE11.jpg,AFNE14.jpg,FN,3,num_2,16,num_2,1.26676271739,,,2018_Feb_09_1519,59.9960552049,MAFE4ImagesEEG,001,102949,
AMSA21.JPG,AMNE22.JPG,AMNE21.JPG,AMSA23.JPG,AMSA22.JPG,AMNE23.JPG,,,,,0,3,3,1,,,,,,,,,,,,,,,,,,,AFSA20.jpg,AFNE17.jpg,AFSA09.jpg,AFNE09.jpg,AFNE17.jpg,FN,3,num_6,32,num_4,0.983494435437,,,2018_Feb_09_1519,59.9960552049,MAFE4ImagesEEG,001,102949,
AFNE22.JPG,AFSA24.JPG,AFSA22.JPG,AFNE25.JPG,AFNE24.JPG,AFSA25.JPG,,,,,0,4,4,6,,,,,,,,,,,,,,,,,,,AFSA12.jpg,AFNE16.jpg,AFSA13.jpg,AFNE01.jpg,AFSA12.jpg,FS,4,num_8,16,num_8,1.05008536484,,,2018_Feb_09_1519,59.9960552049,MAFE4ImagesEEG,001,102949,
AMNE23.JPG,AMNE24.JPG,AMNE22.JPG,AMSA24.JPG,AMSA22.JPG,AMSA23.JPG,,,,,0,5,5,9,,,,,,,,,,,,,,,,,,,AFNE13.jpg,AFNE11.jpg,AFSA08.jpg,AFSA01.jpg,AFSA01.jpg,FS,4,num_4,32,num_2,1.85005245684,,,2018_Feb_09_1519,59.9960552049,MAFE4ImagesEEG,001,102949,
AFSA21.JPG,AFNE22.JPG,AFNE21.JPG,AFSA23.JPG,AFSA22.JPG,AFNE23.JPG,,,,,0,6,6,0,,,,,,,,,,,,,,,,,,,AFSA16.jpg,AFSA08.jpg,AFNE15.jpg,AFNE03.jpg,AFSA16.jpg,FS,4,num_8,16,num_8,1.36676409654,,,2018_Feb_09_1519,59.9960552049,MAFE4ImagesEEG,001,102949,
AMNE22.JPG,AMSA24.JPG,AMSA22.JPG,AMNE25.JPG,AMNE24.JPG,AMSA25.JPG,,,,,0,7,7,7,,,,,,,,,,,,,,,,,,,AFSA04.jpg,AFSA03.jpg,AFNE03.jpg,AFNE13.jpg,AFSA04.jpg,FS,4,num_8,32,num_6,1.3332612738,,,2018_Feb_09_1519,59.9960552049,MAFE4ImagesEEG,001,102949,
AFSA21.JPG,AFNE23.JPG,AFNE21.JPG,AFSA25.JPG,AFNE25.JPG,AFSA23.JPG,,,,,0,8,8,4,,,,,,,,,,,,,,,,,,,AFNE02.jpg,AFSA05.jpg,AFNE07.jpg,AFSA11.jpg,AFNE07.jpg,FN,3,num_2,16,num_2,1.08346309909,,,2018_Feb_09_1519,59.9960552049,MAFE4ImagesEEG,001,102949,
AMSA25.JPG,AMNE24.JPG,AMSA24.JPG,AMNE26.JPG,AMSA21.JPG,AMNE25.JPG,,,,,0,9,9,3,,,,,,,,,,,,,,,,,,,AFSA18.jpg,AFNE06.jpg,AFSA19.jpg,AFNE11.jpg,AFNE06.jpg,FN,3,num_6,16,num_6,0.916795737576,,,2018_Feb_09_1519,59.9960552049,MAFE4ImagesEEG,001,102949,
AFSA21.JPG,AFNE22.JPG,AFNE21.JPG,AFSA23.JPG,AFSA22.JPG,AFNE23.JPG,,,,,,,,,0,0,0,0,,,,,,,,,,,,,,,AMSA05.jpg,AMNE08.jpg,AMNE02.jpg,AMSA08.jpg,AMNE08.jpg,MN,1,num_6,32,num_4,1.88343596435,,,2018_Feb_09_1519,59.9960552049,MAFE4ImagesEEG,001,102949,
AFNE23.JPG,AFNE24.JPG,AFNE22.JPG,AFSA24.JPG,AFSA22.JPG,AFSA23.JPG,,,,,,,,,0,1,1,8,,,,,,,,,,,,,,,AMSA11.jpg,AMSA16.jpg,AMNE08.jpg,AMNE20.jpg,AMNE20.jpg,MN,1,num_4,32,num_6,1.01673168596,,,2018_Feb_09_1519,59.9960552049,MAFE4ImagesEEG,001,102949,
AMSA21.JPG,AMNE22.JPG,AMNE21.JPG,AMSA23.JPG,AMSA22.JPG,AMNE23.JPG,,,,,,,,,0,2,2,1,,,,,,,,,,,,,,,AMSA07.jpg,AMSA01.jpg,AMNE18.jpg,AMNE04.jpg,AMSA01.jpg,MS,2,num_6,32,num_4,0.983469096944,,,2018_Feb_09_1519,59.9960552049,MAFE4ImagesEEG,001,102949,
AMNE23.JPG,AMNE24.JPG,AMNE22.JPG,AMSA24.JPG,AMSA22.JPG,AMSA23.JPG,,,,,,,,,0,3,3,9,,,,,,,,,,,,,,,AMNE05.jpg,AMNE11.jpg,AMSA12.jpg,AMSA16.jpg,AMSA16.jpg,MS,2,num_4,32,num_6,1.86674052221,,,2018_Feb_09_1519,59.9960552049,MAFE4ImagesEEG,001,102949,
AMSA25.JPG,AMNE24.JPG,AMSA24.JPG,AMNE26.JPG,AMSA21.JPG,AMNE25.JPG,,,,,,,,,0,4,4,3,,,,,,,,,,,,,,,AMSA02.jpg,AMSA15.jpg,AMNE20.jpg,AMNE06.jpg,AMSA15.jpg,MS,2,num_6,16,num_6,0.733516005101,,,2018_Feb_09_1519,59.9960552049,MAFE4ImagesEEG,001,102949,
AMNE22.JPG,AMSA24.JPG,AMSA22.JPG,AMNE25.JPG,AMNE24.JPG,AMSA25.JPG,,,,,,,,,0,5,5,7,,,,,,,,,,,,,,,AMNE20.jpg,AMSA05.jpg,AMNE03.jpg,AMSA03.jpg,AMSA03.jpg,MS,2,num_4,16,num_4,0.733501250856,,,2018_Feb_09_1519,59.9960552049,MAFE4ImagesEEG,001,102949,
AMSA21.JPG,AMNE23.JPG,AMNE21.JPG,AMSA25.JPG,AMNE25.JPG,AMSA23.JPG,,,,,,,,,0,6,6,5,,,,,,,,,,,,,,,AMNE14.jpg,AMSA19.jpg,AMSA13.jpg,AMNE01.jpg,AMSA19.jpg,MS,2,num_6,16,num_6,0.850140660303,,,2018_Feb_09_1519,59.9960552049,MAFE4ImagesEEG,001,102949,
AFSA25.JPG,AFNE24.JPG,AFSA24.JPG,AFNE21.JPG,AFSA21.JPG,AFNE25.JPG,,,,,,,,,0,7,7,2,,,,,,,,,,,,,,,AMSA20.jpg,AMNE20.jpg,AMSA16.jpg,AMNE02.jpg,AMSA20.jpg,MS,2,num_8,32,num_2,1.05007317662,,,2018_Feb_09_1519,59.9960552049,MAFE4ImagesEEG,001,102949,
AFSA21.JPG,AFNE23.JPG,AFNE21.JPG,AFSA25.JPG,AFNE25.JPG,AFSA23.JPG,,,,,,,,,0,8,8,4,,,,,,,,,,,,,,,AMNE11.jpg,AMSA01.jpg,AMNE02.jpg,AMSA16.jpg,AMNE11.jpg,MN,1,num_8,16,num_8,1.86669529811,,,2018_Feb_09_1519,59.9960552049,MAFE4ImagesEEG,001,102949,
AFNE22.JPG,AFSA24.JPG,AFSA22.JPG,AFNE25.JPG,AFNE24.JPG,AFSA25.JPG,,,,,,,,,0,9,9,6,,,,,,,,,,,,,,,AMNE14.jpg,AMSA11.jpg,AMSA13.jpg,AMNE16.jpg,AMSA11.jpg,MS,2,num_6,16,num_6,0.950113814324,,,2018_Feb_09_1519,59.9960552049,MAFE4ImagesEEG,001,102949,
AFSA25.JPG,AFNE24.JPG,AFSA24.JPG,AFNE21.JPG,AFSA21.JPG,AFNE25.JPG,,,,,,,,,,,,,0,0,0,2,,,,,,,,,,,AFSA02.jpg,AFSA16.jpg,AFNE20.jpg,AFNE11.jpg,AFSA02.jpg,FS,4,num_8,32,num_4,1.13343460159,,,2018_Feb_09_1519,59.9960552049,MAFE4ImagesEEG,001,102949,
AMSA21.JPG,AMNE22.JPG,AMNE21.JPG,AMSA23.JPG,AMSA22.JPG,AMNE23.JPG,,,,,,,,,,,,,0,1,1,1,,,,,,,,,,,AFNE20.jpg,AFSA16.jpg,AFNE01.jpg,AFSA12.jpg,AFNE20.jpg,FN,3,num_8,32,num_6,2.06671890453,,,2018_Feb_09_1519,59.9960552049,MAFE4ImagesEEG,001,102949,
AMNE22.JPG,AMSA24.JPG,AMSA22.JPG,AMNE25.JPG,AMNE24.JPG,AMSA25.JPG,,,,,,,,,,,,,0,2,2,7,,,,,,,,,,,AFNE07.jpg,AFSA19.jpg,AFSA01.jpg,AFNE08.jpg,AFSA01.jpg,FS,4,num_2,16,num_2,2.20005696313,,,2018_Feb_09_1519,59.9960552049,MAFE4ImagesEEG,001,102949,
AFNE23.JPG,AFNE24.JPG,AFNE22.JPG,AFSA24.JPG,AFSA22.JPG,AFSA23.JPG,,,,,,,,,,,,,0,3,3,8,,,,,,,,,,,AFSA08.jpg,AFNE16.jpg,AFNE09.jpg,AFSA17.jpg,AFNE16.jpg,FN,3,num_6,32,num_4,0.883442379301,,,2018_Feb_09_1519,59.9960552049,MAFE4ImagesEEG,001,102949,
AMNE23.JPG,AMNE24.JPG,AMNE22.JPG,AMSA24.JPG,AMSA22.JPG,AMSA23.JPG,,,,,,,,,,,,,0,4,4,9,,,,,,,,,,,AFSA19.jpg,AFNE01.jpg,AFSA20.jpg,AFNE17.jpg,AFSA20.jpg,FS,4,num_2,32,num_8,0.850126868347,,,2018_Feb_09_1519,59.9960552049,MAFE4ImagesEEG,001,102949,
AFSA21.JPG,AFNE23.JPG,AFNE21.JPG,AFSA25.JPG,AFNE25.JPG,AFSA23.JPG,,,,,,,,,,,,,0,5,5,4,,,,,,,,,,,AFSA20.jpg,AFSA04.jpg,AFNE19.jpg,AFNE18.jpg,AFSA20.jpg,FS,4,num_8,32,num_2,1.15014511836,,,2018_Feb_09_1519,59.9960552049,MAFE4ImagesEEG,001,102949,
AFNE22.JPG,AFSA24.JPG,AFSA22.JPG,AFNE25.JPG,AFNE24.JPG,AFSA25.JPG,,,,,,,,,,,,,0,6,6,6,,,,,,,,,,,AFNE16.jpg,AFSA16.jpg,AFSA09.jpg,AFNE05.jpg,AFNE16.jpg,FN,3,num_8,32,num_6,1.0500949868,,,2018_Feb_09_1519,59.9960552049,MAFE4ImagesEEG,001,102949,
AMSA21.JPG,AMNE23.JPG,AMNE21.JPG,AMSA25.JPG,AMNE25.JPG,AMSA23.JPG,,,,,,,,,,,,,0,7,7,5,,,,,,,,,,,AFSA19.jpg,AFNE02.jpg,AFNE03.jpg,AFSA18.jpg,AFSA19.jpg,FS,4,num_8,32,num_6,0.90013750107,,,2018_Feb_09_1519,59.9960552049,MAFE4ImagesEEG,001,102949,
AMSA25.JPG,AMNE24.JPG,AMSA24.JPG,AMNE26.JPG,AMSA21.JPG,AMNE25.JPG,,,,,,,,,,,,,0,8,8,3,,,,,,,,,,,AFSA04.jpg,AFNE09.jpg,AFSA09.jpg,AFNE05.jpg,AFSA04.jpg,FS,4,num_8,16,num_8,1.20025678398,,,2018_Feb_09_1519,59.9960552049,MAFE4ImagesEEG,001,102949,
AFSA21.JPG,AFNE22.JPG,AFNE21.JPG,AFSA23.JPG,AFSA22.JPG,AFNE23.JPG,,,,,,,,,,,,,0,9,9,0,,,,,,,,,,,AFNE06.jpg,AFSA02.jpg,AFSA03.jpg,AFNE14.jpg,AFSA03.jpg,FS,4,num_2,16,num_2,1.25011121645,,,2018_Feb_09_1519,59.9960552049,MAFE4ImagesEEG,001,102949,
AMSA25.JPG,AMNE24.JPG,AMSA24.JPG,AMNE26.JPG,AMSA21.JPG,AMNE25.JPG,,,,,,,,,,,,,,,,,0,0,0,3,,,,,,,AMNE03.jpg,AMSA10.jpg,AMSA06.jpg,AMNE06.jpg,AMSA10.jpg,MS,2,num_6,16,num_6,1.00012476766,,,2018_Feb_09_1519,59.9960552049,MAFE4ImagesEEG,001,102949,
AFSA21.JPG,AFNE22.JPG,AFNE21.JPG,AFSA23.JPG,AFSA22.JPG,AFNE23.JPG,,,,,,,,,,,,,,,,,0,1,1,0,,,,,,,AMNE15.jpg,AMSA15.jpg,AMSA03.jpg,AMNE10.jpg,AMSA03.jpg,MS,2,num_2,32,num_4,2.00000288663,,,2018_Feb_09_1519,59.9960552049,MAFE4ImagesEEG,001,102949,
AFNE23.JPG,AFNE24.JPG,AFNE22.JPG,AFSA24.JPG,AFSA22.JPG,AFSA23.JPG,,,,,,,,,,,,,,,,,0,2,2,8,,,,,,,AMNE04.jpg,AMSA18.jpg,AMNE12.jpg,AMSA04.jpg,AMNE04.jpg,MN,1,num_8,32,num_2,1.18343817745,,,2018_Feb_09_1519,59.9960552049,MAFE4ImagesEEG,001,102949,
AFNE22.JPG,AFSA24.JPG,AFSA22.JPG,AFNE25.JPG,AFNE24.JPG,AFSA25.JPG,,,,,,,,,,,,,,,,,0,3,3,6,,,,,,,AMSA18.jpg,AMSA09.jpg,AMNE10.jpg,AMNE03.jpg,AMNE03.jpg,MN,1,num_4,16,num_4,1.25010127341,,,2018_Feb_09_1519,59.9960552049,MAFE4ImagesEEG,001,102949,
AFSA25.JPG,AFNE24.JPG,AFSA24.JPG,AFNE21.JPG,AFSA21.JPG,AFNE25.JPG,,,,,,,,,,,,,,,,,0,4,4,2,,,,,,,AMSA14.jpg,AMNE07.jpg,AMSA17.jpg,AMNE08.jpg,AMNE08.jpg,MN,1,num_4,32,num_6,1.21672097314,,,2018_Feb_09_1519,59.9960552049,MAFE4ImagesEEG,001,102949,
AMSA21.JPG,AMNE22.JPG,AMNE21.JPG,AMSA23.JPG,AMSA22.JPG,AMNE23.JPG,,,,,,,,,,,,,,,,,0,5,5,1,,,,,,,AMNE16.jpg,AMSA02.jpg,AMSA10.jpg,AMNE02.jpg,AMNE16.jpg,MN,1,num_8,32,num_2,1.01676151459,,,2018_Feb_09_1519,59.9960552049,MAFE4ImagesEEG,001,102949,
AMNE23.JPG,AMNE24.JPG,AMNE22.JPG,AMSA24.JPG,AMSA22.JPG,AMSA23.JPG,,,,,,,,,,,,,,,,,0,6,6,9,,,,,,,AMSA01.jpg,AMNE18.jpg,AMNE13.jpg,AMSA17.jpg,AMSA01.jpg,MS,2,num_8,32,num_4,1.70013089385,,,2018_Feb_09_1519,59.9960552049,MAFE4ImagesEEG,001,102949,
AMNE22.JPG,AMSA24.JPG,AMSA22.JPG,AMNE25.JPG,AMNE24.JPG,AMSA25.JPG,,,,,,,,,,,,,,,,,0,7,7,7,,,,,,,AMSA06.jpg,AMNE16.jpg,AMNE18.jpg,AMSA20.jpg,AMNE18.jpg,MN,1,num_2,32,num_8,1.28352166619,,,2018_Feb_09_1519,59.9960552049,MAFE4ImagesEEG,001,102949,
AFSA21.JPG,AFNE23.JPG,AFNE21.JPG,AFSA25.JPG,AFNE25.JPG,AFSA23.JPG,,,,,,,,,,,,,,,,,0,8,8,4,,,,,,,AMNE09.jpg,AMSA12.jpg,AMSA11.jpg,AMNE20.jpg,AMNE09.jpg,MN,1,num_8,32,num_2,2.5997410994,,,2018_Feb_09_1519,59.9960552049,MAFE4ImagesEEG,001,102949,
AMSA21.JPG,AMNE23.JPG,AMNE21.JPG,AMSA25.JPG,AMNE25.JPG,AMSA23.JPG,,,,,,,,,,,,,,,,,0,9,9,5,,,,,,,AMNE07.jpg,AMSA08.jpg,AMSA17.jpg,AMNE13.jpg,AMSA08.jpg,MS,2,num_6,16,num_6,2.78330244077,,,2018_Feb_09_1519,59.9960552049,MAFE4ImagesEEG,001,102949,
AFNE22.JPG,AFSA24.JPG,AFSA22.JPG,AFNE25.JPG,AFNE24.JPG,AFSA25.JPG,,,,,,,,,,,,,,,,,,,,,0,0,0,6,,,AFSA05.jpg,AFNE06.jpg,AFNE10.jpg,AFSA07.jpg,AFSA07.jpg,FS,4,num_4,32,num_2,1.78340379451,,,2018_Feb_09_1519,59.9960552049,MAFE4ImagesEEG,001,102949,
AMSA25.JPG,AMNE24.JPG,AMSA24.JPG,AMNE26.JPG,AMSA21.JPG,AMNE25.JPG,,,,,,,,,,,,,,,,,,,,,0,1,1,3,,,AFSA17.jpg,AFSA11.jpg,AFNE16.jpg,AFNE12.jpg,AFSA17.jpg,FS,4,num_8,16,num_8,0.883442058461,,,2018_Feb_09_1519,59.9960552049,MAFE4ImagesEEG,001,102949,
AFSA21.JPG,AFNE23.JPG,AFNE21.JPG,AFSA25.JPG,AFNE25.JPG,AFSA23.JPG,,,,,,,,,,,,,,,,,,,,,0,2,2,4,,,AFSA11.jpg,AFSA14.jpg,AFNE19.jpg,AFNE10.jpg,AFSA14.jpg,FS,4,num_6,32,num_2,1.76666473155,,,2018_Feb_09_1519,59.9960552049,MAFE4ImagesEEG,001,102949,
AFSA25.JPG,AFNE24.JPG,AFSA24.JPG,AFNE21.JPG,AFSA21.JPG,AFNE25.JPG,,,,,,,,,,,,,,,,,,,,,0,3,3,2,,,AFSA20.jpg,AFNE15.jpg,AFNE06.jpg,AFSA04.jpg,AFNE06.jpg,FN,3,num_2,32,num_4,1.51674082689,,,2018_Feb_09_1519,59.9960552049,MAFE4ImagesEEG,001,102949,
AMNE22.JPG,AMSA24.JPG,AMSA22.JPG,AMNE25.JPG,AMNE24.JPG,AMSA25.JPG,,,,,,,,,,,,,,,,,,,,,0,4,4,7,,,AFNE17.jpg,AFSA16.jpg,AFNE04.jpg,AFSA02.jpg,AFSA16.jpg,FS,4,num_6,16,num_6,1.05020724563,,,2018_Feb_09_1519,59.9960552049,MAFE4ImagesEEG,001,102949,
AFNE23.JPG,AFNE24.JPG,AFNE22.JPG,AFSA24.JPG,AFSA22.JPG,AFSA23.JPG,,,,,,,,,,,,,,,,,,,,,0,5,5,8,,,AFNE12.jpg,AFSA12.jpg,AFSA18.jpg,AFNE06.jpg,AFNE06.jpg,FN,3,num_4,16,num_4,1.36676024762,,,2018_Feb_09_1519,59.9960552049,MAFE4ImagesEEG,001,102949,
AMSA21.JPG,AMNE22.JPG,AMNE21.JPG,AMSA23.JPG,AMSA22.JPG,AMNE23.JPG,,,,,,,,,,,,,,,,,,,,,0,6,6,1,,,AFSA11.jpg,AFNE11.jpg,AFSA02.jpg,AFNE03.jpg,AFNE11.jpg,FN,3,num_6,32,num_8,1.03343322221,,,2018_Feb_09_1519,59.9960552049,MAFE4ImagesEEG,001,102949,
AMNE23.JPG,AMNE24.JPG,AMNE22.JPG,AMSA24.JPG,AMSA22.JPG,AMSA23.JPG,,,,,,,,,,,,,,,,,,,,,0,7,7,9,,,AFNE01.jpg,AFSA16.jpg,AFNE11.jpg,AFSA12.jpg,AFNE01.jpg,FN,3,num_8,32,num_2,1.20009224443,,,2018_Feb_09_1519,59.9960552049,MAFE4ImagesEEG,001,102949,
AMSA21.JPG,AMNE23.JPG,AMNE21.JPG,AMSA25.JPG,AMNE25.JPG,AMSA23.JPG,,,,,,,,,,,,,,,,,,,,,0,8,8,5,,,AFSA04.jpg,AFNE05.jpg,AFSA12.jpg,AFNE02.jpg,AFSA12.jpg,FS,4,num_2,32,num_8,3.89984755265,,,2018_Feb_09_1519,59.9960552049,MAFE4ImagesEEG,001,102949,
AFSA21.JPG,AFNE22.JPG,AFNE21.JPG,AFSA23.JPG,AFSA22.JPG,AFNE23.JPG,,,,,,,,,,,,,,,,,,,,,0,9,9,0,,,AFNE15.jpg,AFSA14.jpg,AFSA11.jpg,AFNE09.jpg,AFNE09.jpg,FN,3,num_4,16,num_4,1.90000792244,,,2018_Feb_09_1519,59.9960552049,MAFE4ImagesEEG,001,102949,
,,,,,,,,,,,,,,,,,,,,,,,,,,,,,,,,,,,,,,,,,,,space,29.2814458415,2018_Feb_09_1519,59.9960552049,MAFE4ImagesEEG,001,102949,
AFNE01.JPG,AFNE01.JPG,AFNE01.JPG,AFNE01.JPG,AFNE01.JPG,AFNE01.JPG,0,0,0,3,,,,,,,,,,,,,,,,,,,,,,,AMSA05.jpg,AMNE08.jpg,AMSA07.jpg,AMNE12.jpg,AMSA05.jpg,MS,2,num_8,16,num_8,1.23349916632,,,2018_Feb_09_1519,59.9960552049,MAFE4ImagesEEG,001,102949,
AFNE01.JPG,AFNE01.JPG,AFNE01.JPG,AFNE01.JPG,AFNE01.JPG,AFNE01.JPG,0,1,1,0,,,,,,,,,,,,,,,,,,,,,,,AMNE01.jpg,AMNE11.jpg,AMSA03.jpg,AMSA10.jpg,AMNE01.jpg,MN,1,num_8,32,num_6,0.850261578802,,,2018_Feb_09_1519,59.9960552049,MAFE4ImagesEEG,001,102949,
AFNE01.JPG,AFNE01.JPG,AFNE01.JPG,AFNE01.JPG,AFNE01.JPG,AFNE01.JPG,0,2,2,2,,,,,,,,,,,,,,,,,,,,,,,AMSA04.jpg,AMNE16.jpg,AMNE10.jpg,AMSA13.jpg,AMSA04.jpg,MS,2,num_8,16,num_8,0.650137581164,,,2018_Feb_09_1519,59.9960552049,MAFE4ImagesEEG,001,102949,
AFNE01.JPG,AFNE01.JPG,AFNE01.JPG,AFNE01.JPG,AFNE01.JPG,AFNE01.JPG,0,3,3,4,,,,,,,,,,,,,,,,,,,,,,,AMSA04.jpg,AMNE11.jpg,AMSA15.jpg,AMNE13.jpg,AMNE11.jpg,MN,1,num_6,32,num_2,2.4499895277,,,2018_Feb_09_1519,59.9960552049,MAFE4ImagesEEG,001,102949,
AFNE01.JPG,AFNE01.JPG,AFNE01.JPG,AFNE01.JPG,AFNE01.JPG,AFNE01.JPG,0,4,4,7,,,,,,,,,,,,,,,,,,,,,,,AMNE14.jpg,AMSA10.jpg,AMSA01.jpg,AMNE11.jpg,AMNE11.jpg,MN,1,num_4,32,num_6,1.83352411981,,,2018_Feb_09_1519,59.9960552049,MAFE4ImagesEEG,001,102949,
AFNE01.JPG,AFNE01.JPG,AFNE01.JPG,AFNE01.JPG,AFNE01.JPG,AFNE01.JPG,0,5,5,5,,,,,,,,,,,,,,,,,,,,,,,AMSA08.jpg,AMNE03.jpg,AMNE01.jpg,AMSA17.jpg,AMSA17.jpg,MS,2,num_4,32,num_2,2.60010642116,,,2018_Feb_09_1519,59.9960552049,MAFE4ImagesEEG,001,102949,
AFNE01.JPG,AFNE01.JPG,AFNE01.JPG,AFNE01.JPG,AFNE01.JPG,AFNE01.JPG,0,6,6,6,,,,,,,,,,,,,,,,,,,,,,,AMSA17.jpg,AMSA01.jpg,AMNE13.jpg,AMNE18.jpg,AMNE18.jpg,MN,1,num_4,16,num_4,1.08343166648,,,2018_Feb_09_1519,59.9960552049,MAFE4ImagesEEG,001,102949,
AFNE01.JPG,AFNE01.JPG,AFNE01.JPG,AFNE01.JPG,AFNE01.JPG,AFNE01.JPG,0,7,7,9,,,,,,,,,,,,,,,,,,,,,,,AMNE03.jpg,AMNE06.jpg,AMSA11.jpg,AMSA17.jpg,AMSA17.jpg,MS,2,num_4,32,num_2,1.36670347699,,,2018_Feb_09_1519,59.9960552049,MAFE4ImagesEEG,001,102949,
AFNE01.JPG,AFNE01.JPG,AFNE01.JPG,AFNE01.JPG,AFNE01.JPG,AFNE01.JPG,0,8,8,8,,,,,,,,,,,,,,,,,,,,,,,AMNE17.jpg,AMSA04.jpg,AMSA20.jpg,AMNE18.jpg,AMNE17.jpg,MN,1,num_8,16,num_8,0.81678794371,,,2018_Feb_09_1519,59.9960552049,MAFE4ImagesEEG,001,102949,
AFNE01.JPG,AFNE01.JPG,AFNE01.JPG,AFNE01.JPG,AFNE01.JPG,AFNE01.JPG,0,9,9,1,,,,,,,,,,,,,,,,,,,,,,,AMNE05.jpg,AMSA07.jpg,AMSA20.jpg,AMNE12.jpg,AMSA07.jpg,MS,2,num_6,32,num_4,0.850188450422,,,2018_Feb_09_1519,59.9960552049,MAFE4ImagesEEG,001,102949,
AFNE01.JPG,AFNE01.JPG,AFNE01.JPG,AFNE01.JPG,AFNE01.JPG,AFNE01.JPG,1,0,10,8,,,,,,,,,,,,,,,,,,,,,,,AMNE14.jpg,AMSA04.jpg,AMNE07.jpg,AMSA05.jpg,AMSA04.jpg,MS,2,num_6,16,num_6,1.55007269559,,,2018_Feb_09_1519,59.9960552049,MAFE4ImagesEEG,001,102949,
AFNE01.JPG,AFNE01.JPG,AFNE01.JPG,AFNE01.JPG,AFNE01.JPG,AFNE01.JPG,1,1,11,3,,,,,,,,,,,,,,,,,,,,,,,AMNE07.jpg,AMSA17.jpg,AMNE20.jpg,AMSA07.jpg,AMNE20.jpg,MN,1,num_2,16,num_2,1.0501703606,,,2018_Feb_09_1519,59.9960552049,MAFE4ImagesEEG,001,102949,
AFNE01.JPG,AFNE01.JPG,AFNE01.JPG,AFNE01.JPG,AFNE01.JPG,AFNE01.JPG,1,2,12,4,,,,,,,,,,,,,,,,,,,,,,,AMNE17.jpg,AMSA06.jpg,AMSA19.jpg,AMNE05.jpg,AMSA19.jpg,MS,2,num_2,32,num_4,1.79971723631,,,2018_Feb_09_1519,59.9960552049,MAFE4ImagesEEG,001,102949,
AFNE01.JPG,AFNE01.JPG,AFNE01.JPG,AFNE01.JPG,AFNE01.JPG,AFNE01.JPG,1,3,13,5,,,,,,,,,,,,,,,,,,,,,,,AMSA20.jpg,AMNE02.jpg,AMNE10.jpg,AMSA14.jpg,AMSA20.jpg,MS,2,num_8,32,num_6,0.883477019146,,,2018_Feb_09_1519,59.9960552049,MAFE4ImagesEEG,001,102949,
AFNE01.JPG,AFNE01.JPG,AFNE01.JPG,AFNE01.JPG,AFNE01.JPG,AFNE01.JPG,1,4,14,0,,,,,,,,,,,,,,,,,,,,,,,AMSA01.jpg,AMNE16.jpg,AMSA18.jpg,AMNE13.jpg,AMSA18.jpg,MS,2,num_2,16,num_2,1.43371329177,,,2018_Feb_09_1519,59.9960552049,MAFE4ImagesEEG,001,102949,
AFNE01.JPG,AFNE01.JPG,AFNE01.JPG,AFNE01.JPG,AFNE01.JPG,AFNE01.JPG,1,5,15,9,,,,,,,,,,,,,,,,,,,,,,,AMNE09.jpg,AMNE02.jpg,AMSA05.jpg,AMSA04.jpg,AMNE09.jpg,MN,1,num_8,32,num_6,2.41666984744,,,2018_Feb_09_1519,59.9960552049,MAFE4ImagesEEG,001,102949,
AFNE01.JPG,AFNE01.JPG,AFNE01.JPG,AFNE01.JPG,AFNE01.JPG,AFNE01.JPG,1,6,16,1,,,,,,,,,,,,,,,,,,,,,,,AMSA18.jpg,AMSA05.jpg,AMNE18.jpg,AMNE11.jpg,AMSA05.jpg,MS,2,num_6,32,num_2,2.58331860602,,,2018_Feb_09_1519,59.9960552049,MAFE4ImagesEEG,001,102949,
AFNE01.JPG,AFNE01.JPG,AFNE01.JPG,AFNE01.JPG,AFNE01.JPG,AFNE01.JPG,1,7,17,6,,,,,,,,,,,,,,,,,,,,,,,AMSA15.jpg,AMSA19.jpg,AMNE11.jpg,AMNE12.jpg,AMSA15.jpg,MS,2,num_8,32,num_4,1.46678664465,,,2018_Feb_09_1519,59.9960552049,MAFE4ImagesEEG,001,102949,
AFNE01.JPG,AFNE01.JPG,AFNE01.JPG,AFNE01.JPG,AFNE01.JPG,AFNE01.JPG,1,8,18,7,,,,,,,,,,,,,,,,,,,,,,,AMNE07.jpg,AMSA02.jpg,AMSA15.jpg,AMNE05.jpg,AMNE05.jpg,MN,1,num_4,16,num_4,1.56669885805,,,2018_Feb_09_1519,59.9960552049,MAFE4ImagesEEG,001,102949,
AFNE01.JPG,AFNE01.JPG,AFNE01.JPG,AFNE01.JPG,AFNE01.JPG,AFNE01.JPG,1,9,19,2,,,,,,,,,,,,,,,,,,,,,,,AMNE11.jpg,AMNE04.jpg,AMSA07.jpg,AMSA13.jpg,AMSA07.jpg,MS,2,num_2,32,num_6,1.25011378224,,,2018_Feb_09_1519,59.9960552049,MAFE4ImagesEEG,001,102949,
AFNE01.JPG,AFNE01.JPG,AFNE01.JPG,AFNE01.JPG,AFNE01.JPG,AFNE01.JPG,2,0,20,7,,,,,,,,,,,,,,,,,,,,,,,AMNE14.jpg,AMSA05.jpg,AMNE11.jpg,AMSA20.jpg,AMNE11.jpg,MN,1,num_2,32,num_8,0.98343990976,,,2018_Feb_09_1519,59.9960552049,MAFE4ImagesEEG,001,102949,
AFNE01.JPG,AFNE01.JPG,AFNE01.JPG,AFNE01.JPG,AFNE01.JPG,AFNE01.JPG,2,1,21,0,,,,,,,,,,,,,,,,,,,,,,,AMSA01.jpg,AMNE18.jpg,AMSA02.jpg,AMNE03.jpg,AMNE18.jpg,MN,1,num_6,32,num_4,0.966787125682,,,2018_Feb_09_1519,59.9960552049,MAFE4ImagesEEG,001,102949,
AFNE01.JPG,AFNE01.JPG,AFNE01.JPG,AFNE01.JPG,AFNE01.JPG,AFNE01.JPG,2,2,22,4,,,,,,,,,,,,,,,,,,,,,,,AMNE19.jpg,AMNE09.jpg,AMSA06.jpg,AMSA15.jpg,AMSA15.jpg,MS,2,num_4,32,num_6,0.400166848674,,,2018_Feb_09_1519,59.9960552049,MAFE4ImagesEEG,001,102949,
AFNE01.JPG,AFNE01.JPG,AFNE01.JPG,AFNE01.JPG,AFNE01.JPG,AFNE01.JPG,2,3,23,8,,,,,,,,,,,,,,,,,,,,,,,AMSA06.jpg,AMNE15.jpg,AMSA10.jpg,AMNE19.jpg,AMSA06.jpg,MS,2,num_8,16,num_8,0.466819359921,,,2018_Feb_09_1519,59.9960552049,MAFE4ImagesEEG,001,102949,
AFNE01.JPG,AFNE01.JPG,AFNE01.JPG,AFNE01.JPG,AFNE01.JPG,AFNE01.JPG,2,4,24,5,,,,,,,,,,,,,,,,,,,,,,,AMNE15.jpg,AMSA01.jpg,AMSA05.jpg,AMNE03.jpg,AMSA01.jpg,MS,2,num_6,32,num_2,0.883439172059,,,2018_Feb_09_1519,59.9960552049,MAFE4ImagesEEG,001,102949,
AFNE01.JPG,AFNE01.JPG,AFNE01.JPG,AFNE01.JPG,AFNE01.JPG,AFNE01.JPG,2,5,25,1,,,,,,,,,,,,,,,,,,,,,,,AMSA02.jpg,AMSA19.jpg,AMNE19.jpg,AMNE10.jpg,AMNE19.jpg,MN,1,num_2,32,num_4,0.916810170747,,,2018_Feb_09_1519,59.9960552049,MAFE4ImagesEEG,001,102949,
AFNE01.JPG,AFNE01.JPG,AFNE01.JPG,AFNE01.JPG,AFNE01.JPG,AFNE01.JPG,2,6,26,2,,,,,,,,,,,,,,,,,,,,,,,AMSA11.jpg,AMNE07.jpg,AMNE18.jpg,AMSA20.jpg,AMSA20.jpg,MS,2,num_4,32,num_6,0.966720411787,,,2018_Feb_09_1519,59.9960552049,MAFE4ImagesEEG,001,102949,
AFNE01.JPG,AFNE01.JPG,AFNE01.JPG,AFNE01.JPG,AFNE01.JPG,AFNE01.JPG,2,7,27,6,,,,,,,,,,,,,,,,,,,,,,,AMSA17.jpg,AMSA20.jpg,AMNE03.jpg,AMNE08.jpg,AMSA17.jpg,MS,2,num_8,16,num_8,0.716810940532,,,2018_Feb_09_1519,59.9960552049,MAFE4ImagesEEG,001,102949,
AFNE01.JPG,AFNE01.JPG,AFNE01.JPG,AFNE01.JPG,AFNE01.JPG,AFNE01.JPG,2,8,28,3,,,,,,,,,,,,,,,,,,,,,,,AMNE13.jpg,AMNE01.jpg,AMSA06.jpg,AMSA02.jpg,AMSA06.jpg,MS,2,num_2,32,num_4,1.01675477903,,,2018_Feb_09_1519,59.9960552049,MAFE4ImagesEEG,001,102949,
AFNE01.JPG,AFNE01.JPG,AFNE01.JPG,AFNE01.JPG,AFNE01.JPG,AFNE01.JPG,2,9,29,9,,,,,,,,,,,,,,,,,,,,,,,AMSA15.jpg,AMNE17.jpg,AMSA01.jpg,AMNE19.jpg,AMNE17.jpg,MN,1,num_6,32,num_8,1.08355803788,,,2018_Feb_09_1519,59.9960552049,MAFE4ImagesEEG,001,102949,
AFNE01.JPG,AFNE01.JPG,AFNE01.JPG,AFNE01.JPG,AFNE01.JPG,AFNE01.JPG,3,0,30,6,,,,,,,,,,,,,,,,,,,,,,,AMSA03.jpg,AMNE07.jpg,AMSA18.jpg,AMNE16.jpg,AMNE16.jpg,MN,1,num_4,16,num_4,1.58348314534,,,2018_Feb_09_1519,59.9960552049,MAFE4ImagesEEG,001,102949,
AFNE01.JPG,AFNE01.JPG,AFNE01.JPG,AFNE01.JPG,AFNE01.JPG,AFNE01.JPG,3,1,31,8,,,,,,,,,,,,,,,,,,,,,,,AMNE08.jpg,AMSA19.jpg,AMSA01.jpg,AMNE14.jpg,AMNE14.jpg,MN,1,num_4,16,num_4,1.28342897259,,,2018_Feb_09_1519,59.9960552049,MAFE4ImagesEEG,001,102949,
AFNE01.JPG,AFNE01.JPG,AFNE01.JPG,AFNE01.JPG,AFNE01.JPG,AFNE01.JPG,3,2,32,0,,,,,,,,,,,,,,,,,,,,,,,AMSA16.jpg,AMSA15.jpg,AMNE03.jpg,AMNE08.jpg,AMSA15.jpg,MS,2,num_6,32,num_8,1.133417923,,,2018_Feb_09_1519,59.9960552049,MAFE4ImagesEEG,001,102949,
AFNE01.JPG,AFNE01.JPG,AFNE01.JPG,AFNE01.JPG,AFNE01.JPG,AFNE01.JPG,3,3,33,7,,,,,,,,,,,,,,,,,,,,,,,AMSA12.jpg,AMSA11.jpg,AMNE02.jpg,AMNE15.jpg,AMNE15.jpg,MN,1,num_4,16,num_4,1.14994176966,,,2018_Feb_09_1519,59.9960552049,MAFE4ImagesEEG,001,102949,
AFNE01.JPG,AFNE01.JPG,AFNE01.JPG,AFNE01.JPG,AFNE01.JPG,AFNE01.JPG,3,4,34,1,,,,,,,,,,,,,,,,,,,,,,,AMSA08.jpg,AMNE02.jpg,AMNE04.jpg,AMSA02.jpg,AMSA02.jpg,MS,2,num_4,32,num_8,2.3833703734,,,2018_Feb_09_1519,59.9960552049,MAFE4ImagesEEG,001,102949,
AFNE01.JPG,AFNE01.JPG,AFNE01.JPG,AFNE01.JPG,AFNE01.JPG,AFNE01.JPG,3,5,35,3,,,,,,,,,,,,,,,,,,,,,,,AMSA02.jpg,AMNE07.jpg,AMSA10.jpg,AMNE02.jpg,AMSA10.jpg,MS,2,num_2,32,num_6,1.2167790269,,,2018_Feb_09_1519,59.9960552049,MAFE4ImagesEEG,001,102949,
AFNE01.JPG,AFNE01.JPG,AFNE01.JPG,AFNE01.JPG,AFNE01.JPG,AFNE01.JPG,3,6,36,9,,,,,,,,,,,,,,,,,,,,,,,AMSA08.jpg,AMSA14.jpg,AMNE09.jpg,AMNE10.jpg,AMNE09.jpg,MN,1,num_2,16,num_2,1.28340555844,,,2018_Feb_09_1519,59.9960552049,MAFE4ImagesEEG,001,102949,
AFNE01.JPG,AFNE01.JPG,AFNE01.JPG,AFNE01.JPG,AFNE01.JPG,AFNE01.JPG,3,7,37,4,,,,,,,,,,,,,,,,,,,,,,,AMSA19.jpg,AMNE14.jpg,AMSA03.jpg,AMNE08.jpg,AMNE14.jpg,MN,1,num_6,32,num_4,1.31674672849,,,2018_Feb_09_1519,59.9960552049,MAFE4ImagesEEG,001,102949,
AFNE01.JPG,AFNE01.JPG,AFNE01.JPG,AFNE01.JPG,AFNE01.JPG,AFNE01.JPG,3,8,38,2,,,,,,,,,,,,,,,,,,,,,,,AMNE01.jpg,AMSA11.jpg,AMSA13.jpg,AMNE06.jpg,AMNE06.jpg,MN,1,num_4,32,num_8,0.733562191483,,,2018_Feb_09_1519,59.9960552049,MAFE4ImagesEEG,001,102949,
AFNE01.JPG,AFNE01.JPG,AFNE01.JPG,AFNE01.JPG,AFNE01.JPG,AFNE01.JPG,3,9,39,5,,,,,,,,,,,,,,,,,,,,,,,AMNE20.jpg,AMSA05.jpg,AMSA11.jpg,AMNE15.jpg,AMSA11.jpg,MS,2,num_2,32,num_6,0.0668616332114,,,2018_Feb_09_1519,59.9960552049,MAFE4ImagesEEG,001,102949,
AFNE01.JPG,AFNE01.JPG,AFNE01.JPG,AFNE01.JPG,AFNE01.JPG,AFNE01.JPG,4,0,40,0,,,,,,,,,,,,,,,,,,,,,,,AMSA03.jpg,AMNE20.jpg,AMSA08.jpg,AMNE18.jpg,AMNE18.jpg,MN,1,num_4,32,num_2,1.71667655092,,,2018_Feb_09_1519,59.9960552049,MAFE4ImagesEEG,001,102949,
AFNE01.JPG,AFNE01.JPG,AFNE01.JPG,AFNE01.JPG,AFNE01.JPG,AFNE01.JPG,4,1,41,1,,,,,,,,,,,,,,,,,,,,,,,AMNE16.jpg,AMSA13.jpg,AMNE01.jpg,AMSA09.jpg,AMNE01.jpg,MN,1,num_2,16,num_2,1.28346585762,,,2018_Feb_09_1519,59.9960552049,MAFE4ImagesEEG,001,102949,
AFNE01.JPG,AFNE01.JPG,AFNE01.JPG,AFNE01.JPG,AFNE01.JPG,AFNE01.JPG,4,2,42,8,,,,,,,,,,,,,,,,,,,,,,,AMNE18.jpg,AMSA13.jpg,AMSA02.jpg,AMNE14.jpg,AMSA02.jpg,MS,2,num_2,16,num_2,1.11675679986,,,2018_Feb_09_1519,59.9960552049,MAFE4ImagesEEG,001,102949,
AFNE01.JPG,AFNE01.JPG,AFNE01.JPG,AFNE01.JPG,AFNE01.JPG,AFNE01.JPG,4,3,43,4,,,,,,,,,,,,,,,,,,,,,,,AMNE09.jpg,AMSA15.jpg,AMNE14.jpg,AMSA04.jpg,AMNE09.jpg,MN,1,num_8,32,num_6,2.46635043924,,,2018_Feb_09_1519,59.9960552049,MAFE4ImagesEEG,001,102949,
AFNE01.JPG,AFNE01.JPG,AFNE01.JPG,AFNE01.JPG,AFNE01.JPG,AFNE01.JPG,4,4,44,7,,,,,,,,,,,,,,,,,,,,,,,AMNE01.jpg,AMSA05.jpg,AMSA19.jpg,AMNE10.jpg,AMNE01.jpg,MN,1,num_8,32,num_4,1.45007452369,,,2018_Feb_09_1519,59.9960552049,MAFE4ImagesEEG,001,102949,
AFNE01.JPG,AFNE01.JPG,AFNE01.JPG,AFNE01.JPG,AFNE01.JPG,AFNE01.JPG,4,5,45,5,,,,,,,,,,,,,,,,,,,,,,,AMSA20.jpg,AMSA16.jpg,AMNE04.jpg,AMNE09.jpg,AMSA20.jpg,MS,2,num_8,16,num_8,1.33346398105,,,2018_Feb_09_1519,59.9960552049,MAFE4ImagesEEG,001,102949,
AFNE01.JPG,AFNE01.JPG,AFNE01.JPG,AFNE01.JPG,AFNE01.JPG,AFNE01.JPG,4,6,46,2,,,,,,,,,,,,,,,,,,,,,,,AMSA15.jpg,AMNE03.jpg,AMSA09.jpg,AMNE18.jpg,AMSA15.jpg,MS,2,num_8,16,num_8,0.799967733677,,,2018_Feb_09_1519,59.9960552049,MAFE4ImagesEEG,001,102949,
AFNE01.JPG,AFNE01.JPG,AFNE01.JPG,AFNE01.JPG,AFNE01.JPG,AFNE01.JPG,4,7,47,6,,,,,,,,,,,,,,,,,,,,,,,AMNE06.jpg,AMNE07.jpg,AMSA16.jpg,AMSA06.jpg,AMNE06.jpg,MN,1,num_8,32,num_6,1.1001299955,,,2018_Feb_09_1519,59.9960552049,MAFE4ImagesEEG,001,102949,
AFNE01.JPG,AFNE01.JPG,AFNE01.JPG,AFNE01.JPG,AFNE01.JPG,AFNE01.JPG,4,8,48,9,,,,,,,,,,,,,,,,,,,,,,,AMNE04.jpg,AMNE07.jpg,AMSA05.jpg,AMSA13.jpg,AMSA05.jpg,MS,2,num_2,16,num_2,0.933470652439,,,2018_Feb_09_1519,59.9960552049,MAFE4ImagesEEG,001,102949,
AFNE01.JPG,AFNE01.JPG,AFNE01.JPG,AFNE01.JPG,AFNE01.JPG,AFNE01.JPG,4,9,49,3,,,,,,,,,,,,,,,,,,,,,,,AMNE03.jpg,AMNE17.jpg,AMSA08.jpg,AMSA14.jpg,AMNE17.jpg,MN,1,num_6,32,num_8,0.933506896021,,,2018_Feb_09_1519,59.9960552049,MAFE4ImagesEEG,001,102949,
AFNE01.JPG,AFNE01.JPG,AFNE01.JPG,AFNE01.JPG,AFNE01.JPG,AFNE01.JPG,5,0,50,4,,,,,,,,,,,,,,,,,,,,,,,AMNE08.jpg,AMSA20.jpg,AMSA08.jpg,AMNE02.jpg,AMSA08.jpg,MS,2,num_2,32,num_4,1.21685824962,,,2018_Feb_09_1519,59.9960552049,MAFE4ImagesEEG,001,102949,
AFNE01.JPG,AFNE01.JPG,AFNE01.JPG,AFNE01.JPG,AFNE01.JPG,AFNE01.JPG,5,1,51,1,,,,,,,,,,,,,,,,,,,,,,,AMNE02.jpg,AMSA02.jpg,AMNE19.jpg,AMSA04.jpg,AMSA04.jpg,MS,2,num_4,32,num_6,2.13332875748,,,2018_Feb_09_1519,59.9960552049,MAFE4ImagesEEG,001,102949,
AFNE01.JPG,AFNE01.JPG,AFNE01.JPG,AFNE01.JPG,AFNE01.JPG,AFNE01.JPG,5,2,52,6,,,,,,,,,,,,,,,,,,,,,,,AMSA13.jpg,AMNE11.jpg,AMNE08.jpg,AMSA16.jpg,AMSA13.jpg,MS,2,num_8,32,num_2,1.26673417143,,,2018_Feb_09_1519,59.9960552049,MAFE4ImagesEEG,001,102949,
AFNE01.JPG,AFNE01.JPG,AFNE01.JPG,AFNE01.JPG,AFNE01.JPG,AFNE01.JPG,5,3,53,7,,,,,,,,,,,,,,,,,,,,,,,AMNE13.jpg,AMSA06.jpg,AMNE16.jpg,AMSA03.jpg,AMNE13.jpg,MN,1,num_8,32,num_2,1.09997892752,,,2018_Feb_09_1519,59.9960552049,MAFE4ImagesEEG,001,102949,
AFNE01.JPG,AFNE01.JPG,AFNE01.JPG,AFNE01.JPG,AFNE01.JPG,AFNE01.JPG,5,4,54,0,,,,,,,,,,,,,,,,,,,,,,,AMNE01.jpg,AMNE19.jpg,AMSA11.jpg,AMSA18.jpg,AMNE01.jpg,MN,1,num_8,32,num_4,1.08345989161,,,2018_Feb_09_1519,59.9960552049,MAFE4ImagesEEG,001,102949,
AFNE01.JPG,AFNE01.JPG,AFNE01.JPG,AFNE01.JPG,AFNE01.JPG,AFNE01.JPG,5,5,55,5,,,,,,,,,,,,,,,,,,,,,,,AMNE18.jpg,AMNE03.jpg,AMSA06.jpg,AMSA05.jpg,AMNE18.jpg,MN,1,num_8,16,num_8,1.11689343466,,,2018_Feb_09_1519,59.9960552049,MAFE4ImagesEEG,001,102949,
AFNE01.JPG,AFNE01.JPG,AFNE01.JPG,AFNE01.JPG,AFNE01.JPG,AFNE01.JPG,5,6,56,2,,,,,,,,,,,,,,,,,,,,,,,AMSA06.jpg,AMNE14.jpg,AMNE11.jpg,AMSA11.jpg,AMSA11.jpg,MS,2,num_4,16,num_4,1.21676266915,,,2018_Feb_09_1519,59.9960552049,MAFE4ImagesEEG,001,102949,
AFNE01.JPG,AFNE01.JPG,AFNE01.JPG,AFNE01.JPG,AFNE01.JPG,AFNE01.JPG,5,7,57,9,,,,,,,,,,,,,,,,,,,,,,,AMSA18.jpg,AMNE20.jpg,AMSA12.jpg,AMNE19.jpg,AMNE19.jpg,MN,1,num_4,32,num_6,0.900123709114,,,2018_Feb_09_1519,59.9960552049,MAFE4ImagesEEG,001,102949,
AFNE01.JPG,AFNE01.JPG,AFNE01.JPG,AFNE01.JPG,AFNE01.JPG,AFNE01.JPG,5,8,58,8,,,,,,,,,,,,,,,,,,,,,,,AMNE05.jpg,AMSA18.jpg,AMSA05.jpg,AMNE06.jpg,AMSA05.jpg,MS,2,num_2,32,num_4,0.849981252803,,,2018_Feb_09_1519,59.9960552049,MAFE4ImagesEEG,001,102949,
AFNE01.JPG,AFNE01.JPG,AFNE01.JPG,AFNE01.JPG,AFNE01.JPG,AFNE01.JPG,5,9,59,3,,,,,,,,,,,,,,,,,,,,,,,AMSA02.jpg,AMNE17.jpg,AMNE01.jpg,AMSA09.jpg,AMNE17.jpg,MN,1,num_6,48,None,,,,2018_Feb_09_1519,59.9960552049,MAFE4ImagesEEG,001,102949,
,,,,,,,,,,,,,,,,,,,,,,,,,,,,,,,,,,,,,,,,,,,space,34.8140818663,2018_Feb_09_1519,59.9960552049,MAFE4ImagesEEG,001,102949,
AFNE01.JPG,AFNE01.JPG,AFNE01.JPG,AFNE01.JPG,AFNE01.JPG,AFNE01.JPG,,,,,0,0,0,2,,,,,,,,,,,,,,,,,,,AFNE04.jpg,AFSA16.jpg,AFSA19.jpg,AFNE17.jpg,AFNE04.jpg,FN,3,num_8,16,num_8,0.750144412974,,,2018_Feb_09_1519,59.9960552049,MAFE4ImagesEEG,001,102949,
AFNE01.JPG,AFNE01.JPG,AFNE01.JPG,AFNE01.JPG,AFNE01.JPG,AFNE01.JPG,,,,,0,1,1,1,,,,,,,,,,,,,,,,,,,AFNE16.jpg,AFNE13.jpg,AFSA07.jpg,AFSA13.jpg,AFSA13.jpg,FS,4,num_4,16,num_4,1.08348170202,,,2018_Feb_09_1519,59.9960552049,MAFE4ImagesEEG,001,102949,
AFNE01.JPG,AFNE01.JPG,AFNE01.JPG,AFNE01.JPG,AFNE01.JPG,AFNE01.JPG,,,,,0,2,2,7,,,,,,,,,,,,,,,,,,,AFNE10.jpg,AFSA04.jpg,AFNE19.jpg,AFSA12.jpg,AFSA04.jpg,FS,4,num_6,32,num_2,1.06678978773,,,2018_Feb_09_1519,59.9960552049,MAFE4ImagesEEG,001,102949,
AFNE01.JPG,AFNE01.JPG,AFNE01.JPG,AFNE01.JPG,AFNE01.JPG,AFNE01.JPG,,,,,0,3,3,0,,,,,,,,,,,,,,,,,,,AFNE13.jpg,AFSA18.jpg,AFNE10.jpg,AFSA08.jpg,AFSA18.jpg,FS,4,num_6,32,num_4,1.23344624415,,,2018_Feb_09_1519,59.9960552049,MAFE4ImagesEEG,001,102949,
AFNE01.JPG,AFNE01.JPG,AFNE01.JPG,AFNE01.JPG,AFNE01.JPG,AFNE01.JPG,,,,,0,4,4,8,,,,,,,,,,,,,,,,,,,AFNE08.jpg,AFNE19.jpg,AFSA11.jpg,AFSA15.jpg,AFNE19.jpg,FN,3,num_6,32,num_8,1.20009641419,,,2018_Feb_09_1519,59.9960552049,MAFE4ImagesEEG,001,102949,
AFNE01.JPG,AFNE01.JPG,AFNE01.JPG,AFNE01.JPG,AFNE01.JPG,AFNE01.JPG,,,,,0,5,5,9,,,,,,,,,,,,,,,,,,,AFNE10.jpg,AFSA09.jpg,AFSA20.jpg,AFNE17.jpg,AFNE17.jpg,FN,3,num_4,32,num_6,0.716759301489,,,2018_Feb_09_1519,59.9960552049,MAFE4ImagesEEG,001,102949,
AFNE01.JPG,AFNE01.JPG,AFNE01.JPG,AFNE01.JPG,AFNE01.JPG,AFNE01.JPG,,,,,0,6,6,6,,,,,,,,,,,,,,,,,,,AFNE05.jpg,AFSA17.jpg,AFSA11.jpg,AFNE02.jpg,AFNE02.jpg,FN,3,num_4,16,num_4,0.666880172212,,,2018_Feb_09_1519,59.9960552049,MAFE4ImagesEEG,001,102949,
AFNE01.JPG,AFNE01.JPG,AFNE01.JPG,AFNE01.JPG,AFNE01.JPG,AFNE01.JPG,,,,,0,7,7,4,,,,,,,,,,,,,,,,,,,AFSA08.jpg,AFSA19.jpg,AFNE17.jpg,AFNE19.jpg,AFSA19.jpg,FS,4,num_6,16,num_6,1.64977450436,,,2018_Feb_09_1519,59.9960552049,MAFE4ImagesEEG,001,102949,
AFNE01.JPG,AFNE01.JPG,AFNE01.JPG,AFNE01.JPG,AFNE01.JPG,AFNE01.JPG,,,,,0,8,8,5,,,,,,,,,,,,,,,,,,,AFNE18.jpg,AFSA15.jpg,AFSA03.jpg,AFNE07.jpg,AFNE18.jpg,FN,3,num_8,16,num_8,0.966750240652,,,2018_Feb_09_1519,59.9960552049,MAFE4ImagesEEG,001,102949,
AFNE01.JPG,AFNE01.JPG,AFNE01.JPG,AFNE01.JPG,AFNE01.JPG,AFNE01.JPG,,,,,0,9,9,3,,,,,,,,,,,,,,,,,,,AFSA08.jpg,AFNE07.jpg,AFNE14.jpg,AFSA14.jpg,AFNE07.jpg,FN,3,num_6,32,num_2,1.31684102584,,,2018_Feb_09_1519,59.9960552049,MAFE4ImagesEEG,001,102949,
AFNE01.JPG,AFNE01.JPG,AFNE01.JPG,AFNE01.JPG,AFNE01.JPG,AFNE01.JPG,,,,,1,0,10,7,,,,,,,,,,,,,,,,,,,AFSA15.jpg,AFNE20.jpg,AFSA10.jpg,AFNE19.jpg,AFNE19.jpg,FN,3,num_4,32,num_8,0.900097408332,,,2018_Feb_09_1519,59.9960552049,MAFE4ImagesEEG,001,102949,
AFNE01.JPG,AFNE01.JPG,AFNE01.JPG,AFNE01.JPG,AFNE01.JPG,AFNE01.JPG,,,,,1,1,11,0,,,,,,,,,,,,,,,,,,,AFSA06.jpg,AFSA17.jpg,AFNE14.jpg,AFNE12.jpg,AFNE14.jpg,FN,3,num_2,16,num_2,0.83352251607,,,2018_Feb_09_1519,59.9960552049,MAFE4ImagesEEG,001,102949,
AFNE01.JPG,AFNE01.JPG,AFNE01.JPG,AFNE01.JPG,AFNE01.JPG,AFNE01.JPG,,,,,1,2,12,9,,,,,,,,,,,,,,,,,,,AFSA14.jpg,AFNE16.jpg,AFSA04.jpg,AFNE06.jpg,AFSA04.jpg,FS,4,num_2,32,num_6,1.08347240067,,,2018_Feb_09_1519,59.9960552049,MAFE4ImagesEEG,001,102949,
AFNE01.JPG,AFNE01.JPG,AFNE01.JPG,AFNE01.JPG,AFNE01.JPG,AFNE01.JPG,,,,,1,3,13,6,,,,,,,,,,,,,,,,,,,AFNE15.jpg,AFNE13.jpg,AFSA02.jpg,AFSA16.jpg,AFNE13.jpg,FN,3,num_6,32,num_2,0.80010404787,,,2018_Feb_09_1519,59.9960552049,MAFE4ImagesEEG,001,102949,
AFNE01.JPG,AFNE01.JPG,AFNE01.JPG,AFNE01.JPG,AFNE01.JPG,AFNE01.JPG,,,,,1,4,14,4,,,,,,,,,,,,,,,,,,,AFSA14.jpg,AFNE04.jpg,AFNE16.jpg,AFSA12.jpg,AFSA12.jpg,FS,4,num_4,16,num_4,0.700132818194,,,2018_Feb_09_1519,59.9960552049,MAFE4ImagesEEG,001,102949,
AFNE01.JPG,AFNE01.JPG,AFNE01.JPG,AFNE01.JPG,AFNE01.JPG,AFNE01.JPG,,,,,1,5,15,1,,,,,,,,,,,,,,,,,,,AFSA15.jpg,AFNE01.jpg,AFNE03.jpg,AFSA08.jpg,AFSA08.jpg,FS,4,num_4,32,num_6,0.65017157956,,,2018_Feb_09_1519,59.9960552049,MAFE4ImagesEEG,001,102949,
AFNE01.JPG,AFNE01.JPG,AFNE01.JPG,AFNE01.JPG,AFNE01.JPG,AFNE01.JPG,,,,,1,6,16,5,,,,,,,,,,,,,,,,,,,AFNE02.jpg,AFSA17.jpg,AFNE05.jpg,AFSA13.jpg,AFNE02.jpg,FN,3,num_8,16,num_8,0.966901950305,,,2018_Feb_09_1519,59.9960552049,MAFE4ImagesEEG,001,102949,
AFNE01.JPG,AFNE01.JPG,AFNE01.JPG,AFNE01.JPG,AFNE01.JPG,AFNE01.JPG,,,,,1,7,17,2,,,,,,,,,,,,,,,,,,,AFNE06.jpg,AFSA06.jpg,AFNE05.jpg,AFSA17.jpg,AFNE05.jpg,FN,3,num_2,16,num_2,0.666782025946,,,2018_Feb_09_1519,59.9960552049,MAFE4ImagesEEG,001,102949,
AFNE01.JPG,AFNE01.JPG,AFNE01.JPG,AFNE01.JPG,AFNE01.JPG,AFNE01.JPG,,,,,1,8,18,8,,,,,,,,,,,,,,,,,,,AFSA16.jpg,AFNE02.jpg,AFNE06.jpg,AFSA09.jpg,AFSA16.jpg,FS,4,num_8,32,num_4,1.08319496107,,,2018_Feb_09_1519,59.9960552049,MAFE4ImagesEEG,001,102949,
AFNE01.JPG,AFNE01.JPG,AFNE01.JPG,AFNE01.JPG,AFNE01.JPG,AFNE01.JPG,,,,,1,9,19,3,,,,,,,,,,,,,,,,,,,AFNE12.jpg,AFSA07.jpg,AFSA06.jpg,AFNE15.jpg,AFNE15.jpg,FN,3,num_4,32,num_8,0.416837914847,,,2018_Feb_09_1519,59.9960552049,MAFE4ImagesEEG,001,102949,
AFNE01.JPG,AFNE01.JPG,AFNE01.JPG,AFNE01.JPG,AFNE01.JPG,AFNE01.JPG,,,,,2,0,20,6,,,,,,,,,,,,,,,,,,,AFSA13.jpg,AFNE02.jpg,AFNE04.jpg,AFSA17.jpg,AFSA13.jpg,FS,4,num_8,32,num_6,0.68346720445,,,2018_Feb_09_1519,59.9960552049,MAFE4ImagesEEG,001,102949,
AFNE01.JPG,AFNE01.JPG,AFNE01.JPG,AFNE01.JPG,AFNE01.JPG,AFNE01.JPG,,,,,2,1,21,4,,,,,,,,,,,,,,,,,,,AFSA19.jpg,AFNE20.jpg,AFSA20.jpg,AFNE19.jpg,AFSA20.jpg,FS,4,num_2,32,num_8,0.716767640784,,,2018_Feb_09_1519,59.9960552049,MAFE4ImagesEEG,001,102949,
AFNE01.JPG,AFNE01.JPG,AFNE01.JPG,AFNE01.JPG,AFNE01.JPG,AFNE01.JPG,,,,,2,2,22,7,,,,,,,,,,,,,,,,,,,AFSA07.jpg,AFNE10.jpg,AFNE08.jpg,AFSA17.jpg,AFNE08.jpg,FN,3,num_2,32,num_6,0.783441962441,,,2018_Feb_09_1519,59.9960552049,MAFE4ImagesEEG,001,102949,
AFNE01.JPG,AFNE01.JPG,AFNE01.JPG,AFNE01.JPG,AFNE01.JPG,AFNE01.JPG,,,,,2,3,23,3,,,,,,,,,,,,,,,,,,,AFNE14.jpg,AFSA14.jpg,AFSA02.jpg,AFNE07.jpg,AFNE14.jpg,FN,3,num_8,16,num_8,1.13355135056,,,2018_Feb_09_1519,59.9960552049,MAFE4ImagesEEG,001,102949,
AFNE01.JPG,AFNE01.JPG,AFNE01.JPG,AFNE01.JPG,AFNE01.JPG,AFNE01.JPG,,,,,2,4,24,2,,,,,,,,,,,,,,,,,,,AFNE03.jpg,AFSA18.jpg,AFNE19.jpg,AFSA07.jpg,AFSA07.jpg,FS,4,num_4,16,num_4,1.20009705564,,,2018_Feb_09_1519,59.9960552049,MAFE4ImagesEEG,001,102949,
AFNE01.JPG,AFNE01.JPG,AFNE01.JPG,AFNE01.JPG,AFNE01.JPG,AFNE01.JPG,,,,,2,5,25,1,,,,,,,,,,,,,,,,,,,AFNE04.jpg,AFSA11.jpg,AFSA12.jpg,AFNE02.jpg,AFSA12.jpg,FS,4,num_2,16,num_2,0.91678226646,,,2018_Feb_09_1519,59.9960552049,MAFE4ImagesEEG,001,102949,
AFNE01.JPG,AFNE01.JPG,AFNE01.JPG,AFNE01.JPG,AFNE01.JPG,AFNE01.JPG,,,,,2,6,26,9,,,,,,,,,,,,,,,,,,,AFSA05.jpg,AFNE01.jpg,AFNE03.jpg,AFSA03.jpg,AFNE03.jpg,FN,3,num_2,32,num_8,0.783339646412,,,2018_Feb_09_1519,59.9960552049,MAFE4ImagesEEG,001,102949,
AFNE01.JPG,AFNE01.JPG,AFNE01.JPG,AFNE01.JPG,AFNE01.JPG,AFNE01.JPG,,,,,2,7,27,5,,,,,,,,,,,,,,,,,,,AFNE16.jpg,AFNE14.jpg,AFSA20.jpg,AFSA06.jpg,AFSA20.jpg,FS,4,num_2,32,num_4,0.48351191543,,,2018_Feb_09_1519,59.9960552049,MAFE4ImagesEEG,001,102949,
AFNE01.JPG,AFNE01.JPG,AFNE01.JPG,AFNE01.JPG,AFNE01.JPG,AFNE01.JPG,,,,,2,8,28,8,,,,,,,,,,,,,,,,,,,AFSA20.jpg,AFSA01.jpg,AFNE16.jpg,AFNE09.jpg,AFNE09.jpg,FN,3,num_4,32,num_2,1.40009853104,,,2018_Feb_09_1519,59.9960552049,MAFE4ImagesEEG,001,102949,
AFNE01.JPG,AFNE01.JPG,AFNE01.JPG,AFNE01.JPG,AFNE01.JPG,AFNE01.JPG,,,,,2,9,29,0,,,,,,,,,,,,,,,,,,,AFSA17.jpg,AFNE13.jpg,AFSA14.jpg,AFNE20.jpg,AFSA14.jpg,FS,4,num_2,32,num_8,0.75009213225,,,2018_Feb_09_1519,59.9960552049,MAFE4ImagesEEG,001,102949,
AFNE01.JPG,AFNE01.JPG,AFNE01.JPG,AFNE01.JPG,AFNE01.JPG,AFNE01.JPG,,,,,3,0,30,7,,,,,,,,,,,,,,,,,,,AFNE04.jpg,AFSA04.jpg,AFSA06.jpg,AFNE06.jpg,AFNE04.jpg,FN,3,num_8,32,num_6,0.650505469181,,,2018_Feb_09_1519,59.9960552049,MAFE4ImagesEEG,001,102949,
AFNE01.JPG,AFNE01.JPG,AFNE01.JPG,AFNE01.JPG,AFNE01.JPG,AFNE01.JPG,,,,,3,1,31,5,,,,,,,,,,,,,,,,,,,AFNE19.jpg,AFNE18.jpg,AFSA03.jpg,AFSA01.jpg,AFNE18.jpg,FN,3,num_6,32,num_8,0.983506623423,,,2018_Feb_09_1519,59.9960552049,MAFE4ImagesEEG,001,102949,
AFNE01.JPG,AFNE01.JPG,AFNE01.JPG,AFNE01.JPG,AFNE01.JPG,AFNE01.JPG,,,,,3,2,32,2,,,,,,,,,,,,,,,,,,,AFNE05.jpg,AFSA03.jpg,AFSA20.jpg,AFNE11.jpg,AFNE11.jpg,FN,3,num_4,32,num_2,0.666841041995,,,2018_Feb_09_1519,59.9960552049,MAFE4ImagesEEG,001,102949,
AFNE01.JPG,AFNE01.JPG,AFNE01.JPG,AFNE01.JPG,AFNE01.JPG,AFNE01.JPG,,,,,3,3,33,1,,,,,,,,,,,,,,,,,,,AFSA17.jpg,AFSA14.jpg,AFNE02.jpg,AFNE18.jpg,AFSA14.jpg,FS,4,num_6,32,num_8,0.883442700142,,,2018_Feb_09_1519,59.9960552049,MAFE4ImagesEEG,001,102949,
AFNE01.JPG,AFNE01.JPG,AFNE01.JPG,AFNE01.JPG,AFNE01.JPG,AFNE01.JPG,,,,,3,4,34,0,,,,,,,,,,,,,,,,,,,AFSA05.jpg,AFNE13.jpg,AFSA18.jpg,AFNE20.jpg,AFNE20.jpg,FN,3,num_4,32,num_6,0.616806033067,,,2018_Feb_09_1519,59.9960552049,MAFE4ImagesEEG,001,102949,
AFNE01.JPG,AFNE01.JPG,AFNE01.JPG,AFNE01.JPG,AFNE01.JPG,AFNE01.JPG,,,,,3,5,35,4,,,,,,,,,,,,,,,,,,,AFNE15.jpg,AFSA18.jpg,AFNE10.jpg,AFSA19.jpg,AFSA18.jpg,FS,4,num_6,32,num_4,0.450249968097,,,2018_Feb_09_1519,59.9960552049,MAFE4ImagesEEG,001,102949,
AFNE01.JPG,AFNE01.JPG,AFNE01.JPG,AFNE01.JPG,AFNE01.JPG,AFNE01.JPG,,,,,3,6,36,8,,,,,,,,,,,,,,,,,,,AFSA11.jpg,AFSA03.jpg,AFNE05.jpg,AFNE03.jpg,AFNE03.jpg,FN,3,num_4,32,num_2,0.683455337305,,,2018_Feb_09_1519,59.9960552049,MAFE4ImagesEEG,001,102949,
AFNE01.JPG,AFNE01.JPG,AFNE01.JPG,AFNE01.JPG,AFNE01.JPG,AFNE01.JPG,,,,,3,7,37,9,,,,,,,,,,,,,,,,,,,AFNE17.jpg,AFNE16.jpg,AFSA16.jpg,AFSA18.jpg,AFNE16.jpg,FN,3,num_6,32,num_8,1.75006037904,,,2018_Feb_09_1519,59.9960552049,MAFE4ImagesEEG,001,102949,
AFNE01.JPG,AFNE01.JPG,AFNE01.JPG,AFNE01.JPG,AFNE01.JPG,AFNE01.JPG,,,,,3,8,38,3,,,,,,,,,,,,,,,,,,,AFSA20.jpg,AFNE09.jpg,AFSA18.jpg,AFNE02.jpg,AFSA20.jpg,FS,4,num_8,32,num_4,0.583480258705,,,2018_Feb_09_1519,59.9960552049,MAFE4ImagesEEG,001,102949,
AFNE01.JPG,AFNE01.JPG,AFNE01.JPG,AFNE01.JPG,AFNE01.JPG,AFNE01.JPG,,,,,3,9,39,6,,,,,,,,,,,,,,,,,,,AFSA06.jpg,AFNE01.jpg,AFNE19.jpg,AFSA11.jpg,AFSA06.jpg,FS,4,num_8,32,num_6,0.850129113765,,,2018_Feb_09_1519,59.9960552049,MAFE4ImagesEEG,001,102949,
AFNE01.JPG,AFNE01.JPG,AFNE01.JPG,AFNE01.JPG,AFNE01.JPG,AFNE01.JPG,,,,,4,0,40,4,,,,,,,,,,,,,,,,,,,AFSA05.jpg,AFNE09.jpg,AFSA07.jpg,AFNE14.jpg,AFSA05.jpg,FS,4,num_8,32,num_2,1.28341197339,,,2018_Feb_09_1519,59.9960552049,MAFE4ImagesEEG,001,102949,
AFNE01.JPG,AFNE01.JPG,AFNE01.JPG,AFNE01.JPG,AFNE01.JPG,AFNE01.JPG,,,,,4,1,41,6,,,,,,,,,,,,,,,,,,,AFSA05.jpg,AFNE17.jpg,AFSA19.jpg,AFNE03.jpg,AFSA19.jpg,FS,4,num_2,32,num_8,0.633467477281,,,2018_Feb_09_1519,59.9960552049,MAFE4ImagesEEG,001,102949,
AFNE01.JPG,AFNE01.JPG,AFNE01.JPG,AFNE01.JPG,AFNE01.JPG,AFNE01.JPG,,,,,4,2,42,2,,,,,,,,,,,,,,,,,,,AFSA07.jpg,AFNE09.jpg,AFNE01.jpg,AFSA11.jpg,AFSA11.jpg,FS,4,num_4,16,num_4,0.966768843587,,,2018_Feb_09_1519,59.9960552049,MAFE4ImagesEEG,001,102949,
AFNE01.JPG,AFNE01.JPG,AFNE01.JPG,AFNE01.JPG,AFNE01.JPG,AFNE01.JPG,,,,,4,3,43,5,,,,,,,,,,,,,,,,,,,AFSA03.jpg,AFNE03.jpg,AFNE20.jpg,AFSA07.jpg,AFNE20.jpg,FN,3,num_2,32,num_6,0.583486352582,,,2018_Feb_09_1519,59.9960552049,MAFE4ImagesEEG,001,102949,
AFNE01.JPG,AFNE01.JPG,AFNE01.JPG,AFNE01.JPG,AFNE01.JPG,AFNE01.JPG,,,,,4,4,44,7,,,,,,,,,,,,,,,,,,,AFNE16.jpg,AFSA06.jpg,AFNE11.jpg,AFSA08.jpg,AFSA08.jpg,FS,4,num_4,32,num_2,1.15007198998,,,2018_Feb_09_1519,59.9960552049,MAFE4ImagesEEG,001,102949,
AFNE01.JPG,AFNE01.JPG,AFNE01.JPG,AFNE01.JPG,AFNE01.JPG,AFNE01.JPG,,,,,4,5,45,3,,,,,,,,,,,,,,,,,,,AFNE15.jpg,AFSA04.jpg,AFSA13.jpg,AFNE06.jpg,AFSA04.jpg,FS,4,num_6,32,num_8,1.21671359614,,,2018_Feb_09_1519,59.9960552049,MAFE4ImagesEEG,001,102949,
AFNE01.JPG,AFNE01.JPG,AFNE01.JPG,AFNE01.JPG,AFNE01.JPG,AFNE01.JPG,,,,,4,6,46,1,,,,,,,,,,,,,,,,,,,AFNE03.jpg,AFSA17.jpg,AFSA03.jpg,AFNE12.jpg,AFNE12.jpg,FN,3,num_4,16,num_4,0.666927000042,,,2018_Feb_09_1519,59.9960552049,MAFE4ImagesEEG,001,102949,
AFNE01.JPG,AFNE01.JPG,AFNE01.JPG,AFNE01.JPG,AFNE01.JPG,AFNE01.JPG,,,,,4,7,47,8,,,,,,,,,,,,,,,,,,,AFNE16.jpg,AFNE19.jpg,AFSA19.jpg,AFSA06.jpg,AFNE19.jpg,FN,3,num_6,16,num_6,0.833449066849,,,2018_Feb_09_1519,59.9960552049,MAFE4ImagesEEG,001,102949,
AFNE01.JPG,AFNE01.JPG,AFNE01.JPG,AFNE01.JPG,AFNE01.JPG,AFNE01.JPG,,,,,4,8,48,0,,,,,,,,,,,,,,,,,,,AFSA06.jpg,AFNE04.jpg,AFNE14.jpg,AFSA11.jpg,AFNE14.jpg,FN,3,num_2,32,num_6,0.983449531952,,,2018_Feb_09_1519,59.9960552049,MAFE4ImagesEEG,001,102949,
AFNE01.JPG,AFNE01.JPG,AFNE01.JPG,AFNE01.JPG,AFNE01.JPG,AFNE01.JPG,,,,,4,9,49,9,,,,,,,,,,,,,,,,,,,AFSA05.jpg,AFNE05.jpg,AFSA09.jpg,AFNE09.jpg,AFSA09.jpg,FS,4,num_2,32,num_8,1.41678852099,,,2018_Feb_09_1519,59.9960552049,MAFE4ImagesEEG,001,102949,
AFNE01.JPG,AFNE01.JPG,AFNE01.JPG,AFNE01.JPG,AFNE01.JPG,AFNE01.JPG,,,,,5,0,50,0,,,,,,,,,,,,,,,,,,,AFSA09.jpg,AFSA19.jpg,AFNE13.jpg,AFNE12.jpg,AFSA09.jpg,FS,4,num_8,32,num_6,0.716630043462,,,2018_Feb_09_1519,59.9960552049,MAFE4ImagesEEG,001,102949,
AFNE01.JPG,AFNE01.JPG,AFNE01.JPG,AFNE01.JPG,AFNE01.JPG,AFNE01.JPG,,,,,5,1,51,8,,,,,,,,,,,,,,,,,,,AFSA17.jpg,AFNE08.jpg,AFSA15.jpg,AFNE13.jpg,AFNE08.jpg,FN,3,num_6,32,num_4,0.500192924635,,,2018_Feb_09_1519,59.9960552049,MAFE4ImagesEEG,001,102949,
AFNE01.JPG,AFNE01.JPG,AFNE01.JPG,AFNE01.JPG,AFNE01.JPG,AFNE01.JPG,,,,,5,2,52,2,,,,,,,,,,,,,,,,,,,AFSA16.jpg,AFNE02.jpg,AFNE15.jpg,AFSA07.jpg,AFSA07.jpg,FS,4,num_4,32,num_8,0.333493489074,,,2018_Feb_09_1519,59.9960552049,MAFE4ImagesEEG,001,102949,
AFNE01.JPG,AFNE01.JPG,AFNE01.JPG,AFNE01.JPG,AFNE01.JPG,AFNE01.JPG,,,,,5,3,53,3,,,,,,,,,,,,,,,,,,,AFNE03.jpg,AFSA06.jpg,AFNE02.jpg,AFSA15.jpg,AFNE02.jpg,FN,3,num_2,16,num_2,1.06674360135,,,2018_Feb_09_1519,59.9960552049,MAFE4ImagesEEG,001,102949,
AFNE01.JPG,AFNE01.JPG,AFNE01.JPG,AFNE01.JPG,AFNE01.JPG,AFNE01.JPG,,,,,5,4,54,4,,,,,,,,,,,,,,,,,,,AFNE15.jpg,AFSA17.jpg,AFNE09.jpg,AFSA10.jpg,AFSA17.jpg,FS,4,num_6,32,num_4,0.600145551376,,,2018_Feb_09_1519,59.9960552049,MAFE4ImagesEEG,001,102949,
AFNE01.JPG,AFNE01.JPG,AFNE01.JPG,AFNE01.JPG,AFNE01.JPG,AFNE01.JPG,,,,,5,5,55,6,,,,,,,,,,,,,,,,,,,AFNE15.jpg,AFNE14.jpg,AFSA07.jpg,AFSA17.jpg,AFNE15.jpg,FN,3,num_8,16,num_8,0.683460469125,,,2018_Feb_09_1519,59.9960552049,MAFE4ImagesEEG,001,102949,
AFNE01.JPG,AFNE01.JPG,AFNE01.JPG,AFNE01.JPG,AFNE01.JPG,AFNE01.JPG,,,,,5,6,56,1,,,,,,,,,,,,,,,,,,,AFSA07.jpg,AFNE08.jpg,AFSA15.jpg,AFNE01.jpg,AFSA15.jpg,FS,4,num_2,32,num_8,0.983544470742,,,2018_Feb_09_1519,59.9960552049,MAFE4ImagesEEG,001,102949,
AFNE01.JPG,AFNE01.JPG,AFNE01.JPG,AFNE01.JPG,AFNE01.JPG,AFNE01.JPG,,,,,5,7,57,5,,,,,,,,,,,,,,,,,,,AFSA18.jpg,AFNE01.jpg,AFSA10.jpg,AFNE10.jpg,AFSA18.jpg,FS,4,num_8,16,num_8,1.01676087314,,,2018_Feb_09_1519,59.9960552049,MAFE4ImagesEEG,001,102949,
AFNE01.JPG,AFNE01.JPG,AFNE01.JPG,AFNE01.JPG,AFNE01.JPG,AFNE01.JPG,,,,,5,8,58,7,,,,,,,,,,,,,,,,,,,AFSA11.jpg,AFNE19.jpg,AFNE11.jpg,AFSA19.jpg,AFSA11.jpg,FS,4,num_8,32,num_6,4.61645803112,,,2018_Feb_09_1519,59.9960552049,MAFE4ImagesEEG,001,102949,
AFNE01.JPG,AFNE01.JPG,AFNE01.JPG,AFNE01.JPG,AFNE01.JPG,AFNE01.JPG,,,,,5,9,59,9,,,,,,,,,,,,,,,,,,,AFNE17.jpg,AFNE15.jpg,AFSA09.jpg,AFSA13.jpg,AFSA13.jpg,FS,4,num_4,32,num_2,1.43346664333,,,2018_Feb_09_1519,59.9960552049,MAFE4ImagesEEG,001,102949,
,,,,,,,,,,,,,,,,,,,,,,,,,,,,,,,,,,,,,,,,,,,space,40.76358371,2018_Feb_09_1519,59.9960552049,MAFE4ImagesEEG,001,102949,
AFNE01.JPG,AFNE01.JPG,AFNE01.JPG,AFNE01.JPG,AFNE01.JPG,AFNE01.JPG,,,,,,,,,0,0,0,9,,,,,,,,,,,,,,,AMNE20.jpg,AMSA14.jpg,AMSA19.jpg,AMNE13.jpg,AMSA14.jpg,MS,2,num_6,16,num_6,0.61668318999,,,2018_Feb_09_1519,59.9960552049,MAFE4ImagesEEG,001,102949,
AFNE01.JPG,AFNE01.JPG,AFNE01.JPG,AFNE01.JPG,AFNE01.JPG,AFNE01.JPG,,,,,,,,,0,1,1,8,,,,,,,,,,,,,,,AMSA01.jpg,AMNE04.jpg,AMSA02.jpg,AMNE10.jpg,AMSA01.jpg,MS,2,num_8,16,num_8,0.966771730222,,,2018_Feb_09_1519,59.9960552049,MAFE4ImagesEEG,001,102949,
AFNE01.JPG,AFNE01.JPG,AFNE01.JPG,AFNE01.JPG,AFNE01.JPG,AFNE01.JPG,,,,,,,,,0,2,2,3,,,,,,,,,,,,,,,AMSA11.jpg,AMSA09.jpg,AMNE13.jpg,AMNE17.jpg,AMSA09.jpg,MS,2,num_6,32,num_2,1.38327318942,,,2018_Feb_09_1519,59.9960552049,MAFE4ImagesEEG,001,102949,
AFNE01.JPG,AFNE01.JPG,AFNE01.JPG,AFNE01.JPG,AFNE01.JPG,AFNE01.JPG,,,,,,,,,0,3,3,1,,,,,,,,,,,,,,,AMSA12.jpg,AMNE16.jpg,AMSA19.jpg,AMNE04.jpg,AMNE04.jpg,MN,1,num_4,16,num_4,0.633503079414,,,2018_Feb_09_1519,59.9960552049,MAFE4ImagesEEG,001,102949,
AFNE01.JPG,AFNE01.JPG,AFNE01.JPG,AFNE01.JPG,AFNE01.JPG,AFNE01.JPG,,,,,,,,,0,4,4,7,,,,,,,,,,,,,,,AMNE13.jpg,AMNE02.jpg,AMSA10.jpg,AMSA02.jpg,AMNE02.jpg,MN,1,num_6,32,num_4,0.666896850569,,,2018_Feb_09_1519,59.9960552049,MAFE4ImagesEEG,001,102949,
AFNE01.JPG,AFNE01.JPG,AFNE01.JPG,AFNE01.JPG,AFNE01.JPG,AFNE01.JPG,,,,,,,,,0,5,5,2,,,,,,,,,,,,,,,AMSA04.jpg,AMSA19.jpg,AMNE02.jpg,AMNE19.jpg,AMSA19.jpg,MS,2,num_6,16,num_6,0.650160033023,,,2018_Feb_09_1519,59.9960552049,MAFE4ImagesEEG,001,102949,
AFNE01.JPG,AFNE01.JPG,AFNE01.JPG,AFNE01.JPG,AFNE01.JPG,AFNE01.JPG,,,,,,,,,0,6,6,4,,,,,,,,,,,,,,,AMNE04.jpg,AMSA20.jpg,AMSA04.jpg,AMNE13.jpg,AMNE13.jpg,MN,1,num_4,32,num_8,0.833483065013,,,2018_Feb_09_1519,59.9960552049,MAFE4ImagesEEG,001,102949,
AFNE01.JPG,AFNE01.JPG,AFNE01.JPG,AFNE01.JPG,AFNE01.JPG,AFNE01.JPG,,,,,,,,,0,7,7,5,,,,,,,,,,,,,,,AMNE16.jpg,AMSA04.jpg,AMSA20.jpg,AMNE01.jpg,AMNE01.jpg,MN,1,num_4,32,num_2,0.550136843463,,,2018_Feb_09_1519,59.9960552049,MAFE4ImagesEEG,001,102949,
AFNE01.JPG,AFNE01.JPG,AFNE01.JPG,AFNE01.JPG,AFNE01.JPG,AFNE01.JPG,,,,,,,,,0,8,8,6,,,,,,,,,,,,,,,AMSA20.jpg,AMNE20.jpg,AMNE07.jpg,AMSA17.jpg,AMSA17.jpg,MS,2,num_4,16,num_4,0.650135656586,,,2018_Feb_09_1519,59.9960552049,MAFE4ImagesEEG,001,102949,
AFNE01.JPG,AFNE01.JPG,AFNE01.JPG,AFNE01.JPG,AFNE01.JPG,AFNE01.JPG,,,,,,,,,0,9,9,0,,,,,,,,,,,,,,,AMSA18.jpg,AMNE18.jpg,AMSA02.jpg,AMNE09.jpg,AMNE18.jpg,MN,1,num_6,32,num_4,1.0667859388,,,2018_Feb_09_1519,59.9960552049,MAFE4ImagesEEG,001,102949,
AFNE01.JPG,AFNE01.JPG,AFNE01.JPG,AFNE01.JPG,AFNE01.JPG,AFNE01.JPG,,,,,,,,,1,0,10,8,,,,,,,,,,,,,,,AMNE17.jpg,AMNE15.jpg,AMSA11.jpg,AMSA02.jpg,AMSA11.jpg,MS,2,num_2,32,num_8,4.19987542485,,,2018_Feb_09_1519,59.9960552049,MAFE4ImagesEEG,001,102949,
AFNE01.JPG,AFNE01.JPG,AFNE01.JPG,AFNE01.JPG,AFNE01.JPG,AFNE01.JPG,,,,,,,,,1,1,11,1,,,,,,,,,,,,,,,AMSA03.jpg,AMSA15.jpg,AMNE20.jpg,AMNE04.jpg,AMNE04.jpg,MN,1,num_4,16,num_4,2.40000038501,,,2018_Feb_09_1519,59.9960552049,MAFE4ImagesEEG,001,102949,
AFNE01.JPG,AFNE01.JPG,AFNE01.JPG,AFNE01.JPG,AFNE01.JPG,AFNE01.JPG,,,,,,,,,1,2,12,3,,,,,,,,,,,,,,,AMSA10.jpg,AMNE20.jpg,AMNE14.jpg,AMSA01.jpg,AMNE14.jpg,MN,1,num_2,32,num_8,1.03346369253,,,2018_Feb_09_1519,59.9960552049,MAFE4ImagesEEG,001,102949,
AFNE01.JPG,AFNE01.JPG,AFNE01.JPG,AFNE01.JPG,AFNE01.JPG,AFNE01.JPG,,,,,,,,,1,3,13,5,,,,,,,,,,,,,,,AMSA13.jpg,AMNE13.jpg,AMSA20.jpg,AMNE17.jpg,AMSA20.jpg,MS,2,num_2,16,num_2,0.8667402016,,,2018_Feb_09_1519,59.9960552049,MAFE4ImagesEEG,001,102949,
AFNE01.JPG,AFNE01.JPG,AFNE01.JPG,AFNE01.JPG,AFNE01.JPG,AFNE01.JPG,,,,,,,,,1,4,14,6,,,,,,,,,,,,,,,AMNE10.jpg,AMNE05.jpg,AMSA09.jpg,AMSA08.jpg,AMSA08.jpg,MS,2,num_4,32,num_8,2.53343851445,,,2018_Feb_09_1519,59.9960552049,MAFE4ImagesEEG,001,102949,
AFNE01.JPG,AFNE01.JPG,AFNE01.JPG,AFNE01.JPG,AFNE01.JPG,AFNE01.JPG,,,,,,,,,1,5,15,2,,,,,,,,,,,,,,,AMSA15.jpg,AMSA06.jpg,AMNE02.jpg,AMNE13.jpg,AMSA06.jpg,MS,2,num_6,32,num_8,0.966806370066,,,2018_Feb_09_1519,59.9960552049,MAFE4ImagesEEG,001,102949,
AFNE01.JPG,AFNE01.JPG,AFNE01.JPG,AFNE01.JPG,AFNE01.JPG,AFNE01.JPG,,,,,,,,,1,6,16,0,,,,,,,,,,,,,,,AMNE05.jpg,AMSA18.jpg,AMNE17.jpg,AMSA14.jpg,AMSA14.jpg,MS,2,num_4,16,num_4,0.833523478359,,,2018_Feb_09_1519,59.9960552049,MAFE4ImagesEEG,001,102949,
AFNE01.JPG,AFNE01.JPG,AFNE01.JPG,AFNE01.JPG,AFNE01.JPG,AFNE01.JPG,,,,,,,,,1,7,17,4,,,,,,,,,,,,,,,AMNE08.jpg,AMSA09.jpg,AMNE17.jpg,AMSA10.jpg,AMSA09.jpg,MS,2,num_6,16,num_6,1.13341888506,,,2018_Feb_09_1519,59.9960552049,MAFE4ImagesEEG,001,102949,
AFNE01.JPG,AFNE01.JPG,AFNE01.JPG,AFNE01.JPG,AFNE01.JPG,AFNE01.JPG,,,,,,,,,1,8,18,9,,,,,,,,,,,,,,,AMSA20.jpg,AMNE10.jpg,AMSA14.jpg,AMNE17.jpg,AMSA14.jpg,MS,2,num_2,16,num_2,0.866778369527,,,2018_Feb_09_1519,59.9960552049,MAFE4ImagesEEG,001,102949,
AFNE01.JPG,AFNE01.JPG,AFNE01.JPG,AFNE01.JPG,AFNE01.JPG,AFNE01.JPG,,,,,,,,,1,9,19,7,,,,,,,,,,,,,,,AMSA12.jpg,AMNE11.jpg,AMNE10.jpg,AMSA07.jpg,AMNE11.jpg,MN,1,num_6,32,num_8,0.666801591171,,,2018_Feb_09_1519,59.9960552049,MAFE4ImagesEEG,001,102949,
AFNE01.JPG,AFNE01.JPG,AFNE01.JPG,AFNE01.JPG,AFNE01.JPG,AFNE01.JPG,,,,,,,,,2,0,20,3,,,,,,,,,,,,,,,AMNE08.jpg,AMSA19.jpg,AMNE13.jpg,AMSA20.jpg,AMNE08.jpg,MN,1,num_8,32,num_6,0.633487683954,,,2018_Feb_09_1519,59.9960552049,MAFE4ImagesEEG,001,102949,
AFNE01.JPG,AFNE01.JPG,AFNE01.JPG,AFNE01.JPG,AFNE01.JPG,AFNE01.JPG,,,,,,,,,2,1,21,0,,,,,,,,,,,,,,,AMNE14.jpg,AMNE20.jpg,AMSA20.jpg,AMSA18.jpg,AMSA20.jpg,MS,2,num_2,32,num_4,0.750154997222,,,2018_Feb_09_1519,59.9960552049,MAFE4ImagesEEG,001,102949,
AFNE01.JPG,AFNE01.JPG,AFNE01.JPG,AFNE01.JPG,AFNE01.JPG,AFNE01.JPG,,,,,,,,,2,2,22,1,,,,,,,,,,,,,,,AMSA14.jpg,AMNE09.jpg,AMSA02.jpg,AMNE11.jpg,AMSA02.jpg,MS,2,num_2,16,num_2,0.916876243195,,,2018_Feb_09_1519,59.9960552049,MAFE4ImagesEEG,001,102949,
AFNE01.JPG,AFNE01.JPG,AFNE01.JPG,AFNE01.JPG,AFNE01.JPG,AFNE01.JPG,,,,,,,,,2,3,23,7,,,,,,,,,,,,,,,AMSA03.jpg,AMNE06.jpg,AMSA15.jpg,AMNE05.jpg,AMNE05.jpg,MN,1,num_4,32,num_8,0.983455625828,,,2018_Feb_09_1519,59.9960552049,MAFE4ImagesEEG,001,102949,
AFNE01.JPG,AFNE01.JPG,AFNE01.JPG,AFNE01.JPG,AFNE01.JPG,AFNE01.JPG,,,,,,,,,2,4,24,2,,,,,,,,,,,,,,,AMNE09.jpg,AMSA04.jpg,AMSA02.jpg,AMNE11.jpg,AMSA02.jpg,MS,2,num_2,32,num_6,0.733460196527,,,2018_Feb_09_1519,59.9960552049,MAFE4ImagesEEG,001,102949,
AFNE01.JPG,AFNE01.JPG,AFNE01.JPG,AFNE01.JPG,AFNE01.JPG,AFNE01.JPG,,,,,,,,,2,5,25,4,,,,,,,,,,,,,,,AMSA14.jpg,AMNE04.jpg,AMSA15.jpg,AMNE12.jpg,AMNE12.jpg,MN,1,num_4,16,num_4,0.850161829032,,,2018_Feb_09_1519,59.9960552049,MAFE4ImagesEEG,001,102949,
AFNE01.JPG,AFNE01.JPG,AFNE01.JPG,AFNE01.JPG,AFNE01.JPG,AFNE01.JPG,,,,,,,,,2,6,26,6,,,,,,,,,,,,,,,AMNE12.jpg,AMSA15.jpg,AMSA01.jpg,AMNE13.jpg,AMSA01.jpg,MS,2,num_2,16,num_2,1.61641120305,,,2018_Feb_09_1519,59.9960552049,MAFE4ImagesEEG,001,102949,
AFNE01.JPG,AFNE01.JPG,AFNE01.JPG,AFNE01.JPG,AFNE01.JPG,AFNE01.JPG,,,,,,,,,2,7,27,8,,,,,,,,,,,,,,,AMSA18.jpg,AMSA13.jpg,AMNE18.jpg,AMNE06.jpg,AMNE18.jpg,MN,1,num_2,32,num_8,1.33343158662,,,2018_Feb_09_1519,59.9960552049,MAFE4ImagesEEG,001,102949,
AFNE01.JPG,AFNE01.JPG,AFNE01.JPG,AFNE01.JPG,AFNE01.JPG,AFNE01.JPG,,,,,,,,,2,8,28,5,,,,,,,,,,,,,,,AMNE11.jpg,AMSA18.jpg,AMNE05.jpg,AMSA15.jpg,AMSA15.jpg,MS,2,num_4,32,num_2,0.950095852837,,,2018_Feb_09_1519,59.9960552049,MAFE4ImagesEEG,001,102949,
AFNE01.JPG,AFNE01.JPG,AFNE01.JPG,AFNE01.JPG,AFNE01.JPG,AFNE01.JPG,,,,,,,,,2,9,29,9,,,,,,,,,,,,,,,AMSA05.jpg,AMSA02.jpg,AMNE10.jpg,AMNE20.jpg,AMNE10.jpg,MN,1,num_2,32,num_8,0.700446821982,,,2018_Feb_09_1519,59.9960552049,MAFE4ImagesEEG,001,102949,
AFNE01.JPG,AFNE01.JPG,AFNE01.JPG,AFNE01.JPG,AFNE01.JPG,AFNE01.JPG,,,,,,,,,3,0,30,0,,,,,,,,,,,,,,,AMSA14.jpg,AMNE08.jpg,AMSA09.jpg,AMNE18.jpg,AMNE08.jpg,MN,1,num_6,32,num_4,0.68351018359,,,2018_Feb_09_1519,59.9960552049,MAFE4ImagesEEG,001,102949,
AFNE01.JPG,AFNE01.JPG,AFNE01.JPG,AFNE01.JPG,AFNE01.JPG,AFNE01.JPG,,,,,,,,,3,1,31,5,,,,,,,,,,,,,,,AMNE09.jpg,AMSA07.jpg,AMNE16.jpg,AMSA04.jpg,AMNE09.jpg,MN,1,num_8,32,num_2,0.783454471268,,,2018_Feb_09_1519,59.9960552049,MAFE4ImagesEEG,001,102949,
AFNE01.JPG,AFNE01.JPG,AFNE01.JPG,AFNE01.JPG,AFNE01.JPG,AFNE01.JPG,,,,,,,,,3,2,32,8,,,,,,,,,,,,,,,AMNE07.jpg,AMSA06.jpg,AMNE19.jpg,AMSA12.jpg,AMNE07.jpg,MN,1,num_8,32,num_6,0.46682545403,,,2018_Feb_09_1519,59.9960552049,MAFE4ImagesEEG,001,102949,
AFNE01.JPG,AFNE01.JPG,AFNE01.JPG,AFNE01.JPG,AFNE01.JPG,AFNE01.JPG,,,,,,,,,3,3,33,3,,,,,,,,,,,,,,,AMSA13.jpg,AMNE17.jpg,AMNE05.jpg,AMSA05.jpg,AMNE17.jpg,MN,1,num_6,32,num_8,0.600116364192,,,2018_Feb_09_1519,59.9960552049,MAFE4ImagesEEG,001,102949,
AFNE01.JPG,AFNE01.JPG,AFNE01.JPG,AFNE01.JPG,AFNE01.JPG,AFNE01.JPG,,,,,,,,,3,4,34,9,,,,,,,,,,,,,,,AMNE01.jpg,AMSA07.jpg,AMSA18.jpg,AMNE04.jpg,AMSA07.jpg,MS,2,num_6,32,num_2,1.86671037273,,,2018_Feb_09_1519,59.9960552049,MAFE4ImagesEEG,001,102949,
AFNE01.JPG,AFNE01.JPG,AFNE01.JPG,AFNE01.JPG,AFNE01.JPG,AFNE01.JPG,,,,,,,,,3,5,35,2,,,,,,,,,,,,,,,AMNE11.jpg,AMNE16.jpg,AMSA02.jpg,AMSA07.jpg,AMNE11.jpg,MN,1,num_8,32,num_6,0.450167538133,,,2018_Feb_09_1519,59.9960552049,MAFE4ImagesEEG,001,102949,
AFNE01.JPG,AFNE01.JPG,AFNE01.JPG,AFNE01.JPG,AFNE01.JPG,AFNE01.JPG,,,,,,,,,3,6,36,6,,,,,,,,,,,,,,,AMSA09.jpg,AMNE05.jpg,AMNE09.jpg,AMSA20.jpg,AMNE09.jpg,MN,1,num_2,32,num_4,0.850177866174,,,2018_Feb_09_1519,59.9960552049,MAFE4ImagesEEG,001,102949,
AFNE01.JPG,AFNE01.JPG,AFNE01.JPG,AFNE01.JPG,AFNE01.JPG,AFNE01.JPG,,,,,,,,,3,7,37,4,,,,,,,,,,,,,,,AMSA10.jpg,AMSA15.jpg,AMNE12.jpg,AMNE20.jpg,AMNE12.jpg,MN,1,num_2,32,num_8,0.633457855089,,,2018_Feb_09_1519,59.9960552049,MAFE4ImagesEEG,001,102949,
AFNE01.JPG,AFNE01.JPG,AFNE01.JPG,AFNE01.JPG,AFNE01.JPG,AFNE01.JPG,,,,,,,,,3,8,38,7,,,,,,,,,,,,,,,AMSA04.jpg,AMSA16.jpg,AMNE12.jpg,AMNE20.jpg,AMSA16.jpg,MS,2,num_6,32,num_4,1.68341941456,,,2018_Feb_09_1519,59.9960552049,MAFE4ImagesEEG,001,102949,
AFNE01.JPG,AFNE01.JPG,AFNE01.JPG,AFNE01.JPG,AFNE01.JPG,AFNE01.JPG,,,,,,,,,3,9,39,1,,,,,,,,,,,,,,,AMSA18.jpg,AMNE03.jpg,AMSA04.jpg,AMNE05.jpg,AMNE03.jpg,MN,1,num_6,32,num_8,1.38341527688,,,2018_Feb_09_1519,59.9960552049,MAFE4ImagesEEG,001,102949,
AFNE01.JPG,AFNE01.JPG,AFNE01.JPG,AFNE01.JPG,AFNE01.JPG,AFNE01.JPG,,,,,,,,,4,0,40,7,,,,,,,,,,,,,,,AMNE15.jpg,AMNE07.jpg,AMSA14.jpg,AMSA10.jpg,AMNE15.jpg,MN,1,num_8,32,num_6,1.1501271571,,,2018_Feb_09_1519,59.9960552049,MAFE4ImagesEEG,001,102949,
AFNE01.JPG,AFNE01.JPG,AFNE01.JPG,AFNE01.JPG,AFNE01.JPG,AFNE01.JPG,,,,,,,,,4,1,41,2,,,,,,,,,,,,,,,AMSA04.jpg,AMNE14.jpg,AMNE12.jpg,AMSA05.jpg,AMSA04.jpg,MS,2,num_8,16,num_8,1.80005208799,,,2018_Feb_09_1519,59.9960552049,MAFE4ImagesEEG,001,102949,
AFNE01.JPG,AFNE01.JPG,AFNE01.JPG,AFNE01.JPG,AFNE01.JPG,AFNE01.JPG,,,,,,,,,4,2,42,1,,,,,,,,,,,,,,,AMNE14.jpg,AMSA01.jpg,AMSA05.jpg,AMNE15.jpg,AMSA05.jpg,MS,2,num_2,32,num_4,1.66671755724,,,2018_Feb_09_1519,59.9960552049,MAFE4ImagesEEG,001,102949,
AFNE01.JPG,AFNE01.JPG,AFNE01.JPG,AFNE01.JPG,AFNE01.JPG,AFNE01.JPG,,,,,,,,,4,3,43,6,,,,,,,,,,,,,,,AMNE06.jpg,AMSA04.jpg,AMNE11.jpg,AMSA11.jpg,AMNE06.jpg,MN,1,num_8,16,num_8,0.866807877552,,,2018_Feb_09_1519,59.9960552049,MAFE4ImagesEEG,001,102949,
AFNE01.JPG,AFNE01.JPG,AFNE01.JPG,AFNE01.JPG,AFNE01.JPG,AFNE01.JPG,,,,,,,,,4,4,44,8,,,,,,,,,,,,,,,AMSA02.jpg,AMNE05.jpg,AMSA18.jpg,AMNE06.jpg,AMNE06.jpg,MN,1,num_4,32,num_8,2.18331661751,,,2018_Feb_09_1519,59.9960552049,MAFE4ImagesEEG,001,102949,
AFNE01.JPG,AFNE01.JPG,AFNE01.JPG,AFNE01.JPG,AFNE01.JPG,AFNE01.JPG,,,,,,,,,4,5,45,5,,,,,,,,,,,,,,,AMSA18.jpg,AMSA20.jpg,AMNE10.jpg,AMNE15.jpg,AMSA18.jpg,MS,2,num_8,16,num_8,0.650130845606,,,2018_Feb_09_1519,59.9960552049,MAFE4ImagesEEG,001,102949,
AFNE01.JPG,AFNE01.JPG,AFNE01.JPG,AFNE01.JPG,AFNE01.JPG,AFNE01.JPG,,,,,,,,,4,6,46,3,,,,,,,,,,,,,,,AMNE04.jpg,AMNE06.jpg,AMSA04.jpg,AMSA05.jpg,AMNE04.jpg,MN,1,num_8,32,num_2,1.80006074789,,,2018_Feb_09_1519,59.9960552049,MAFE4ImagesEEG,001,102949,
AFNE01.JPG,AFNE01.JPG,AFNE01.JPG,AFNE01.JPG,AFNE01.JPG,AFNE01.JPG,,,,,,,,,4,7,47,9,,,,,,,,,,,,,,,AMSA12.jpg,AMNE01.jpg,AMNE08.jpg,AMSA14.jpg,AMSA14.jpg,MS,2,num_4,16,num_4,0.966811822494,,,2018_Feb_09_1519,59.9960552049,MAFE4ImagesEEG,001,102949,
AFNE01.JPG,AFNE01.JPG,AFNE01.JPG,AFNE01.JPG,AFNE01.JPG,AFNE01.JPG,,,,,,,,,4,8,48,0,,,,,,,,,,,,,,,AMSA03.jpg,AMNE06.jpg,AMSA15.jpg,AMNE03.jpg,AMSA15.jpg,MS,2,num_2,32,num_6,0.666869908338,,,2018_Feb_09_1519,59.9960552049,MAFE4ImagesEEG,001,102949,
AFNE01.JPG,AFNE01.JPG,AFNE01.JPG,AFNE01.JPG,AFNE01.JPG,AFNE01.JPG,,,,,,,,,4,9,49,4,,,,,,,,,,,,,,,AMSA10.jpg,AMSA03.jpg,AMNE13.jpg,AMNE20.jpg,AMSA03.jpg,MS,2,num_6,32,num_8,0.766810347326,,,2018_Feb_09_1519,59.9960552049,MAFE4ImagesEEG,001,102949,
AFNE01.JPG,AFNE01.JPG,AFNE01.JPG,AFNE01.JPG,AFNE01.JPG,AFNE01.JPG,,,,,,,,,5,0,50,6,,,,,,,,,,,,,,,AMSA15.jpg,AMNE08.jpg,AMNE18.jpg,AMSA02.jpg,AMNE18.jpg,MN,1,num_2,32,num_6,0.70015142113,,,2018_Feb_09_1519,59.9960552049,MAFE4ImagesEEG,001,102949,
AFNE01.JPG,AFNE01.JPG,AFNE01.JPG,AFNE01.JPG,AFNE01.JPG,AFNE01.JPG,,,,,,,,,5,1,51,7,,,,,,,,,,,,,,,AMNE14.jpg,AMNE13.jpg,AMSA12.jpg,AMSA11.jpg,AMSA11.jpg,MS,2,num_4,32,num_8,1.76679014065,,,2018_Feb_09_1519,59.9960552049,MAFE4ImagesEEG,001,102949,
AFNE01.JPG,AFNE01.JPG,AFNE01.JPG,AFNE01.JPG,AFNE01.JPG,AFNE01.JPG,,,,,,,,,5,2,52,9,,,,,,,,,,,,,,,AMNE15.jpg,AMSA04.jpg,AMSA18.jpg,AMNE16.jpg,AMNE15.jpg,MN,1,num_8,16,num_8,1.1501043844,,,2018_Feb_09_1519,59.9960552049,MAFE4ImagesEEG,001,102949,
AFNE01.JPG,AFNE01.JPG,AFNE01.JPG,AFNE01.JPG,AFNE01.JPG,AFNE01.JPG,,,,,,,,,5,3,53,8,,,,,,,,,,,,,,,AMSA15.jpg,AMSA17.jpg,AMNE16.jpg,AMNE06.jpg,AMSA15.jpg,MS,2,num_8,32,num_6,1.00009365589,,,2018_Feb_09_1519,59.9960552049,MAFE4ImagesEEG,001,102949,
AFNE01.JPG,AFNE01.JPG,AFNE01.JPG,AFNE01.JPG,AFNE01.JPG,AFNE01.JPG,,,,,,,,,5,4,54,3,,,,,,,,,,,,,,,AMNE17.jpg,AMNE07.jpg,AMSA08.jpg,AMSA06.jpg,AMSA06.jpg,MS,2,num_4,16,num_4,0.866757842246,,,2018_Feb_09_1519,59.9960552049,MAFE4ImagesEEG,001,102949,
AFNE01.JPG,AFNE01.JPG,AFNE01.JPG,AFNE01.JPG,AFNE01.JPG,AFNE01.JPG,,,,,,,,,5,5,55,4,,,,,,,,,,,,,,,AMSA10.jpg,AMNE06.jpg,AMNE16.jpg,AMSA03.jpg,AMNE06.jpg,MN,1,num_6,32,num_2,1.18330410868,,,2018_Feb_09_1519,59.9960552049,MAFE4ImagesEEG,001,102949,
AFNE01.JPG,AFNE01.JPG,AFNE01.JPG,AFNE01.JPG,AFNE01.JPG,AFNE01.JPG,,,,,,,,,5,6,56,5,,,,,,,,,,,,,,,AMSA08.jpg,AMNE11.jpg,AMSA14.jpg,AMNE08.jpg,AMNE11.jpg,MN,1,num_6,16,num_6,0.750126772095,,,2018_Feb_09_1519,59.9960552049,MAFE4ImagesEEG,001,102949,
AFNE01.JPG,AFNE01.JPG,AFNE01.JPG,AFNE01.JPG,AFNE01.JPG,AFNE01.JPG,,,,,,,,,5,7,57,1,,,,,,,,,,,,,,,AMSA10.jpg,AMNE12.jpg,AMSA11.jpg,AMNE13.jpg,AMSA10.jpg,MS,2,num_8,32,num_4,0.400127718225,,,2018_Feb_09_1519,59.9960552049,MAFE4ImagesEEG,001,102949,
AFNE01.JPG,AFNE01.JPG,AFNE01.JPG,AFNE01.JPG,AFNE01.JPG,AFNE01.JPG,,,,,,,,,5,8,58,2,,,,,,,,,,,,,,,AMSA08.jpg,AMSA13.jpg,AMNE17.jpg,AMNE15.jpg,AMSA13.jpg,MS,2,num_6,16,num_6,1.26672647381,,,2018_Feb_09_1519,59.9960552049,MAFE4ImagesEEG,001,102949,
AFNE01.JPG,AFNE01.JPG,AFNE01.JPG,AFNE01.JPG,AFNE01.JPG,AFNE01.JPG,,,,,,,,,5,9,59,0,,,,,,,,,,,,,,,AMSA13.jpg,AMNE20.jpg,AMNE04.jpg,AMSA08.jpg,AMNE20.jpg,MN,1,num_6,32,num_8,0.61683265469,,,2018_Feb_09_1519,59.9960552049,MAFE4ImagesEEG,001,102949,
,,,,,,,,,,,,,,,,,,,,,,,,,,,,,,,,,,,,,,,,,,,space,34.5643741398,2018_Feb_09_1519,59.9960552049,MAFE4ImagesEEG,001,102949,
AFNE01.JPG,AFNE01.JPG,AFNE01.JPG,AFNE01.JPG,AFNE01.JPG,AFNE01.JPG,,,,,,,,,,,,,0,0,0,6,,,,,,,,,,,AFSA16.jpg,AFNE12.jpg,AFNE04.jpg,AFSA12.jpg,AFNE12.jpg,FN,3,num_6,16,num_6,0.683647460071,,,2018_Feb_09_1519,59.9960552049,MAFE4ImagesEEG,001,102949,
AFNE01.JPG,AFNE01.JPG,AFNE01.JPG,AFNE01.JPG,AFNE01.JPG,AFNE01.JPG,,,,,,,,,,,,,0,1,1,4,,,,,,,,,,,AFNE20.jpg,AFSA01.jpg,AFNE07.jpg,AFSA05.jpg,AFNE07.jpg,FN,3,num_2,32,num_8,0.883547902573,,,2018_Feb_09_1519,59.9960552049,MAFE4ImagesEEG,001,102949,
AFNE01.JPG,AFNE01.JPG,AFNE01.JPG,AFNE01.JPG,AFNE01.JPG,AFNE01.JPG,,,,,,,,,,,,,0,2,2,8,,,,,,,,,,,AFSA01.jpg,AFSA10.jpg,AFNE02.jpg,AFNE05.jpg,AFNE02.jpg,FN,3,num_2,16,num_2,0.650109997485,,,2018_Feb_09_1519,59.9960552049,MAFE4ImagesEEG,001,102949,
AFNE01.JPG,AFNE01.JPG,AFNE01.JPG,AFNE01.JPG,AFNE01.JPG,AFNE01.JPG,,,,,,,,,,,,,0,3,3,5,,,,,,,,,,,AFNE11.jpg,AFSA19.jpg,AFNE16.jpg,AFSA11.jpg,AFNE16.jpg,FN,3,num_2,32,num_4,0.683490618598,,,2018_Feb_09_1519,59.9960552049,MAFE4ImagesEEG,001,102949,
AFNE01.JPG,AFNE01.JPG,AFNE01.JPG,AFNE01.JPG,AFNE01.JPG,AFNE01.JPG,,,,,,,,,,,,,0,4,4,3,,,,,,,,,,,AFNE14.jpg,AFSA13.jpg,AFSA02.jpg,AFNE05.jpg,AFNE14.jpg,FN,3,num_8,16,num_8,0.600163512863,,,2018_Feb_09_1519,59.9960552049,MAFE4ImagesEEG,001,102949,
AFNE01.JPG,AFNE01.JPG,AFNE01.JPG,AFNE01.JPG,AFNE01.JPG,AFNE01.JPG,,,,,,,,,,,,,0,5,5,0,,,,,,,,,,,AFNE16.jpg,AFSA07.jpg,AFSA01.jpg,AFNE05.jpg,AFNE16.jpg,FN,3,num_8,32,num_4,0.700415389612,,,2018_Feb_09_1519,59.9960552049,MAFE4ImagesEEG,001,102949,
AFNE01.JPG,AFNE01.JPG,AFNE01.JPG,AFNE01.JPG,AFNE01.JPG,AFNE01.JPG,,,,,,,,,,,,,0,6,6,9,,,,,,,,,,,AFSA09.jpg,AFNE02.jpg,AFNE04.jpg,AFSA16.jpg,AFSA09.jpg,FS,4,num_8,16,num_8,0.80025800271,,,2018_Feb_09_1519,59.9960552049,MAFE4ImagesEEG,001,102949,
AFNE01.JPG,AFNE01.JPG,AFNE01.JPG,AFNE01.JPG,AFNE01.JPG,AFNE01.JPG,,,,,,,,,,,,,0,7,7,1,,,,,,,,,,,AFSA19.jpg,AFNE07.jpg,AFNE03.jpg,AFSA05.jpg,AFSA19.jpg,FS,4,num_8,32,num_6,0.53338687541,,,2018_Feb_09_1519,59.9960552049,MAFE4ImagesEEG,001,102949,
AFNE01.JPG,AFNE01.JPG,AFNE01.JPG,AFNE01.JPG,AFNE01.JPG,AFNE01.JPG,,,,,,,,,,,,,0,8,8,2,,,,,,,,,,,AFNE18.jpg,AFSA08.jpg,AFSA01.jpg,AFNE20.jpg,AFNE20.jpg,FN,3,num_4,16,num_4,1.00022804551,,,2018_Feb_09_1519,59.9960552049,MAFE4ImagesEEG,001,102949,
AFNE01.JPG,AFNE01.JPG,AFNE01.JPG,AFNE01.JPG,AFNE01.JPG,AFNE01.JPG,,,,,,,,,,,,,0,9,9,7,,,,,,,,,,,AFSA04.jpg,AFNE13.jpg,AFNE18.jpg,AFSA16.jpg,AFNE13.jpg,FN,3,num_6,32,num_2,1.18344555469,,,2018_Feb_09_1519,59.9960552049,MAFE4ImagesEEG,001,102949,
AFNE01.JPG,AFNE01.JPG,AFNE01.JPG,AFNE01.JPG,AFNE01.JPG,AFNE01.JPG,,,,,,,,,,,,,1,0,10,6,,,,,,,,,,,AFSA17.jpg,AFNE16.jpg,AFSA02.jpg,AFNE10.jpg,AFNE16.jpg,FN,3,num_6,16,num_6,0.833487234777,,,2018_Feb_09_1519,59.9960552049,MAFE4ImagesEEG,001,102949,
AFNE01.JPG,AFNE01.JPG,AFNE01.JPG,AFNE01.JPG,AFNE01.JPG,AFNE01.JPG,,,,,,,,,,,,,1,1,11,1,,,,,,,,,,,AFNE15.jpg,AFSA17.jpg,AFNE06.jpg,AFSA02.jpg,AFNE15.jpg,FN,3,num_8,16,num_8,0.800119763939,,,2018_Feb_09_1519,59.9960552049,MAFE4ImagesEEG,001,102949,
AFNE01.JPG,AFNE01.JPG,AFNE01.JPG,AFNE01.JPG,AFNE01.JPG,AFNE01.JPG,,,,,,,,,,,,,1,2,12,9,,,,,,,,,,,AFSA07.jpg,AFSA09.jpg,AFNE04.jpg,AFNE14.jpg,AFNE04.jpg,FN,3,num_2,16,num_2,0.883530903375,,,2018_Feb_09_1519,59.9960552049,MAFE4ImagesEEG,001,102949,
AFNE01.JPG,AFNE01.JPG,AFNE01.JPG,AFNE01.JPG,AFNE01.JPG,AFNE01.JPG,,,,,,,,,,,,,1,3,13,8,,,,,,,,,,,AFNE18.jpg,AFNE08.jpg,AFSA19.jpg,AFSA04.jpg,AFNE08.jpg,FN,3,num_6,16,num_6,0.516768731177,,,2018_Feb_09_1519,59.9960552049,MAFE4ImagesEEG,001,102949,
AFNE01.JPG,AFNE01.JPG,AFNE01.JPG,AFNE01.JPG,AFNE01.JPG,AFNE01.JPG,,,,,,,,,,,,,1,4,14,2,,,,,,,,,,,AFSA03.jpg,AFNE06.jpg,AFNE18.jpg,AFSA01.jpg,AFNE06.jpg,FN,3,num_6,32,num_8,0.766595772468,,,2018_Feb_09_1519,59.9960552049,MAFE4ImagesEEG,001,102949,
AFNE01.JPG,AFNE01.JPG,AFNE01.JPG,AFNE01.JPG,AFNE01.JPG,AFNE01.JPG,,,,,,,,,,,,,1,5,15,4,,,,,,,,,,,AFSA16.jpg,AFSA12.jpg,AFNE09.jpg,AFNE08.jpg,AFSA12.jpg,FS,4,num_6,16,num_6,0.583487956319,,,2018_Feb_09_1519,59.9960552049,MAFE4ImagesEEG,001,102949,
AFNE01.JPG,AFNE01.JPG,AFNE01.JPG,AFNE01.JPG,AFNE01.JPG,AFNE01.JPG,,,,,,,,,,,,,1,6,16,3,,,,,,,,,,,AFNE12.jpg,AFSA13.jpg,AFSA04.jpg,AFNE11.jpg,AFSA13.jpg,FS,4,num_6,32,num_2,0.716872522375,,,2018_Feb_09_1519,59.9960552049,MAFE4ImagesEEG,001,102949,
AFNE01.JPG,AFNE01.JPG,AFNE01.JPG,AFNE01.JPG,AFNE01.JPG,AFNE01.JPG,,,,,,,,,,,,,1,7,17,7,,,,,,,,,,,AFNE10.jpg,AFSA09.jpg,AFSA14.jpg,AFNE11.jpg,AFSA09.jpg,FS,4,num_6,32,num_4,0.933459426742,,,2018_Feb_09_1519,59.9960552049,MAFE4ImagesEEG,001,102949,
AFNE01.JPG,AFNE01.JPG,AFNE01.JPG,AFNE01.JPG,AFNE01.JPG,AFNE01.JPG,,,,,,,,,,,,,1,8,18,0,,,,,,,,,,,AFSA02.jpg,AFSA07.jpg,AFNE03.jpg,AFNE16.jpg,AFNE16.jpg,FN,3,num_4,32,num_8,0.616653361358,,,2018_Feb_09_1519,59.9960552049,MAFE4ImagesEEG,001,102949,
AFNE01.JPG,AFNE01.JPG,AFNE01.JPG,AFNE01.JPG,AFNE01.JPG,AFNE01.JPG,,,,,,,,,,,,,1,9,19,5,,,,,,,,,,,AFNE13.jpg,AFSA16.jpg,AFSA15.jpg,AFNE12.jpg,AFNE13.jpg,FN,3,num_8,16,num_8,1.23350109067,,,2018_Feb_09_1519,59.9960552049,MAFE4ImagesEEG,001,102949,
AFNE01.JPG,AFNE01.JPG,AFNE01.JPG,AFNE01.JPG,AFNE01.JPG,AFNE01.JPG,,,,,,,,,,,,,2,0,20,5,,,,,,,,,,,AFNE20.jpg,AFSA16.jpg,AFNE04.jpg,AFSA15.jpg,AFNE04.jpg,FN,3,num_2,16,num_2,0.899967509089,,,2018_Feb_09_1519,59.9960552049,MAFE4ImagesEEG,001,102949,
AFNE01.JPG,AFNE01.JPG,AFNE01.JPG,AFNE01.JPG,AFNE01.JPG,AFNE01.JPG,,,,,,,,,,,,,2,1,21,4,,,,,,,,,,,AFNE08.jpg,AFSA05.jpg,AFSA01.jpg,AFNE15.jpg,AFSA05.jpg,FS,4,num_6,32,num_2,1.25015130872,,,2018_Feb_09_1519,59.9960552049,MAFE4ImagesEEG,001,102949,
AFNE01.JPG,AFNE01.JPG,AFNE01.JPG,AFNE01.JPG,AFNE01.JPG,AFNE01.JPG,,,,,,,,,,,,,2,2,22,1,,,,,,,,,,,AFNE11.jpg,AFSA05.jpg,AFSA04.jpg,AFNE05.jpg,AFNE11.jpg,FN,3,num_8,16,num_8,0.600167361787,,,2018_Feb_09_1519,59.9960552049,MAFE4ImagesEEG,001,102949,
AFNE01.JPG,AFNE01.JPG,AFNE01.JPG,AFNE01.JPG,AFNE01.JPG,AFNE01.JPG,,,,,,,,,,,,,2,3,23,7,,,,,,,,,,,AFSA05.jpg,AFNE04.jpg,AFSA07.jpg,AFNE05.jpg,AFSA07.jpg,FS,4,num_2,32,num_6,1.10009792168,,,2018_Feb_09_1519,59.9960552049,MAFE4ImagesEEG,001,102949,
AFNE01.JPG,AFNE01.JPG,AFNE01.JPG,AFNE01.JPG,AFNE01.JPG,AFNE01.JPG,,,,,,,,,,,,,2,4,24,3,,,,,,,,,,,AFNE08.jpg,AFNE20.jpg,AFSA19.jpg,AFSA01.jpg,AFNE20.jpg,FN,3,num_6,32,num_8,1.3167627654,,,2018_Feb_09_1519,59.9960552049,MAFE4ImagesEEG,001,102949,
AFNE01.JPG,AFNE01.JPG,AFNE01.JPG,AFNE01.JPG,AFNE01.JPG,AFNE01.JPG,,,,,,,,,,,,,2,5,25,0,,,,,,,,,,,AFNE17.jpg,AFSA15.jpg,AFSA09.jpg,AFNE02.jpg,AFSA09.jpg,FS,4,num_2,32,num_4,0.666789402952,,,2018_Feb_09_1519,59.9960552049,MAFE4ImagesEEG,001,102949,
AFNE01.JPG,AFNE01.JPG,AFNE01.JPG,AFNE01.JPG,AFNE01.JPG,AFNE01.JPG,,,,,,,,,,,,,2,6,26,2,,,,,,,,,,,AFSA17.jpg,AFSA04.jpg,AFNE19.jpg,AFNE07.jpg,AFSA17.jpg,FS,4,num_8,16,num_8,0.75012516859,,,2018_Feb_09_1519,59.9960552049,MAFE4ImagesEEG,001,102949,
AFNE01.JPG,AFNE01.JPG,AFNE01.JPG,AFNE01.JPG,AFNE01.JPG,AFNE01.JPG,,,,,,,,,,,,,2,7,27,9,,,,,,,,,,,AFNE15.jpg,AFSA08.jpg,AFSA18.jpg,AFNE08.jpg,AFSA18.jpg,FS,4,num_2,16,num_2,1.08346534427,,,2018_Feb_09_1519,59.9960552049,MAFE4ImagesEEG,001,102949,
AFNE01.JPG,AFNE01.JPG,AFNE01.JPG,AFNE01.JPG,AFNE01.JPG,AFNE01.JPG,,,,,,,,,,,,,2,8,28,8,,,,,,,,,,,AFSA13.jpg,AFNE13.jpg,AFSA08.jpg,AFNE08.jpg,AFNE08.jpg,FN,3,num_4,16,num_4,1.06674584653,,,2018_Feb_09_1519,59.9960552049,MAFE4ImagesEEG,001,102949,
AFNE01.JPG,AFNE01.JPG,AFNE01.JPG,AFNE01.JPG,AFNE01.JPG,AFNE01.JPG,,,,,,,,,,,,,2,9,29,6,,,,,,,,,,,AFNE04.jpg,AFNE15.jpg,AFSA13.jpg,AFSA18.jpg,AFSA18.jpg,FS,4,num_4,32,num_8,1.08342044079,,,2018_Feb_09_1519,59.9960552049,MAFE4ImagesEEG,001,102949,
AFNE01.JPG,AFNE01.JPG,AFNE01.JPG,AFNE01.JPG,AFNE01.JPG,AFNE01.JPG,,,,,,,,,,,,,3,0,30,6,,,,,,,,,,,AFSA13.jpg,AFNE09.jpg,AFNE06.jpg,AFSA10.jpg,AFNE06.jpg,FN,3,num_2,16,num_2,0.866774841212,,,2018_Feb_09_1519,59.9960552049,MAFE4ImagesEEG,001,102949,
AFNE01.JPG,AFNE01.JPG,AFNE01.JPG,AFNE01.JPG,AFNE01.JPG,AFNE01.JPG,,,,,,,,,,,,,3,1,31,0,,,,,,,,,,,AFSA11.jpg,AFNE17.jpg,AFSA16.jpg,AFNE16.jpg,AFSA16.jpg,FS,4,num_2,16,num_2,1.60006600805,,,2018_Feb_09_1519,59.9960552049,MAFE4ImagesEEG,001,102949,
AFNE01.JPG,AFNE01.JPG,AFNE01.JPG,AFNE01.JPG,AFNE01.JPG,AFNE01.JPG,,,,,,,,,,,,,3,2,32,9,,,,,,,,,,,AFNE18.jpg,AFSA06.jpg,AFNE02.jpg,AFSA17.jpg,AFNE18.jpg,FN,3,num_8,16,num_8,0.633478702977,,,2018_Feb_09_1519,59.9960552049,MAFE4ImagesEEG,001,102949,
AFNE01.JPG,AFNE01.JPG,AFNE01.JPG,AFNE01.JPG,AFNE01.JPG,AFNE01.JPG,,,,,,,,,,,,,3,3,33,3,,,,,,,,,,,AFSA20.jpg,AFNE07.jpg,AFSA04.jpg,AFNE11.jpg,AFSA20.jpg,FS,4,num_8,32,num_4,0.983422589721,,,2018_Feb_09_1519,59.9960552049,MAFE4ImagesEEG,001,102949,
AFNE01.JPG,AFNE01.JPG,AFNE01.JPG,AFNE01.JPG,AFNE01.JPG,AFNE01.JPG,,,,,,,,,,,,,3,4,34,1,,,,,,,,,,,AFSA05.jpg,AFNE17.jpg,AFNE18.jpg,AFSA07.jpg,AFNE18.jpg,FN,3,num_2,32,num_6,0.633642280241,,,2018_Feb_09_1519,59.9960552049,MAFE4ImagesEEG,001,102949,
AFNE01.JPG,AFNE01.JPG,AFNE01.JPG,AFNE01.JPG,AFNE01.JPG,AFNE01.JPG,,,,,,,,,,,,,3,5,35,4,,,,,,,,,,,AFSA10.jpg,AFNE15.jpg,AFNE08.jpg,AFSA06.jpg,AFNE15.jpg,FN,3,num_6,32,num_8,0.550138768042,,,2018_Feb_09_1519,59.9960552049,MAFE4ImagesEEG,001,102949,
AFNE01.JPG,AFNE01.JPG,AFNE01.JPG,AFNE01.JPG,AFNE01.JPG,AFNE01.JPG,,,,,,,,,,,,,3,6,36,2,,,,,,,,,,,AFNE19.jpg,AFNE16.jpg,AFSA18.jpg,AFSA14.jpg,AFSA18.jpg,FS,4,num_2,16,num_2,0.50015283213,,,2018_Feb_09_1519,59.9960552049,MAFE4ImagesEEG,001,102949,
AFNE01.JPG,AFNE01.JPG,AFNE01.JPG,AFNE01.JPG,AFNE01.JPG,AFNE01.JPG,,,,,,,,,,,,,3,7,37,8,,,,,,,,,,,AFSA18.jpg,AFNE04.jpg,AFSA05.jpg,AFNE02.jpg,AFSA05.jpg,FS,4,num_2,32,num_4,0.683465280104,,,2018_Feb_09_1519,59.9960552049,MAFE4ImagesEEG,001,102949,
AFNE01.JPG,AFNE01.JPG,AFNE01.JPG,AFNE01.JPG,AFNE01.JPG,AFNE01.JPG,,,,,,,,,,,,,3,8,38,7,,,,,,,,,,,AFNE18.jpg,AFSA18.jpg,AFSA12.jpg,AFNE15.jpg,AFSA18.jpg,FS,4,num_6,16,num_6,1.38352176244,,,2018_Feb_09_1519,59.9960552049,MAFE4ImagesEEG,001,102949,
AFNE01.JPG,AFNE01.JPG,AFNE01.JPG,AFNE01.JPG,AFNE01.JPG,AFNE01.JPG,,,,,,,,,,,,,3,9,39,5,,,,,,,,,,,AFNE10.jpg,AFSA02.jpg,AFSA01.jpg,AFNE20.jpg,AFSA02.jpg,FS,4,num_6,32,num_4,0.600169927813,,,2018_Feb_09_1519,59.9960552049,MAFE4ImagesEEG,001,102949,
AFNE01.JPG,AFNE01.JPG,AFNE01.JPG,AFNE01.JPG,AFNE01.JPG,AFNE01.JPG,,,,,,,,,,,,,4,0,40,5,,,,,,,,,,,AFNE11.jpg,AFSA20.jpg,AFSA14.jpg,AFNE08.jpg,AFSA14.jpg,FS,4,num_2,32,num_8,2.93334588478,,,2018_Feb_09_1519,59.9960552049,MAFE4ImagesEEG,001,102949,
AFNE01.JPG,AFNE01.JPG,AFNE01.JPG,AFNE01.JPG,AFNE01.JPG,AFNE01.JPG,,,,,,,,,,,,,4,1,41,1,,,,,,,,,,,AFSA09.jpg,AFNE19.jpg,AFSA08.jpg,AFNE12.jpg,AFNE19.jpg,FN,3,num_6,16,num_6,0.866794727277,,,2018_Feb_09_1519,59.9960552049,MAFE4ImagesEEG,001,102949,
AFNE01.JPG,AFNE01.JPG,AFNE01.JPG,AFNE01.JPG,AFNE01.JPG,AFNE01.JPG,,,,,,,,,,,,,4,2,42,7,,,,,,,,,,,AFNE09.jpg,AFSA04.jpg,AFSA09.jpg,AFNE07.jpg,AFSA04.jpg,FS,4,num_6,32,num_2,1.05008728919,,,2018_Feb_09_1519,59.9960552049,MAFE4ImagesEEG,001,102949,
AFNE01.JPG,AFNE01.JPG,AFNE01.JPG,AFNE01.JPG,AFNE01.JPG,AFNE01.JPG,,,,,,,,,,,,,4,3,43,0,,,,,,,,,,,AFSA08.jpg,AFNE09.jpg,AFSA17.jpg,AFNE12.jpg,AFSA17.jpg,FS,4,num_2,32,num_8,1.15000527631,,,2018_Feb_09_1519,59.9960552049,MAFE4ImagesEEG,001,102949,
AFNE01.JPG,AFNE01.JPG,AFNE01.JPG,AFNE01.JPG,AFNE01.JPG,AFNE01.JPG,,,,,,,,,,,,,4,4,44,9,,,,,,,,,,,AFSA08.jpg,AFNE19.jpg,AFSA07.jpg,AFNE12.jpg,AFSA08.jpg,FS,4,num_8,32,num_6,0.650152656017,,,2018_Feb_09_1519,59.9960552049,MAFE4ImagesEEG,001,102949,
AFNE01.JPG,AFNE01.JPG,AFNE01.JPG,AFNE01.JPG,AFNE01.JPG,AFNE01.JPG,,,,,,,,,,,,,4,5,45,8,,,,,,,,,,,AFSA04.jpg,AFNE20.jpg,AFSA17.jpg,AFNE10.jpg,AFNE10.jpg,FN,3,num_4,32,num_8,1.50006238371,,,2018_Feb_09_1519,59.9960552049,MAFE4ImagesEEG,001,102949,
AFNE01.JPG,AFNE01.JPG,AFNE01.JPG,AFNE01.JPG,AFNE01.JPG,AFNE01.JPG,,,,,,,,,,,,,4,6,46,3,,,,,,,,,,,AFSA09.jpg,AFSA15.jpg,AFNE04.jpg,AFNE10.jpg,AFSA09.jpg,FS,4,num_8,32,num_2,2.88329772581,,,2018_Feb_09_1519,59.9960552049,MAFE4ImagesEEG,001,102949,
AFNE01.JPG,AFNE01.JPG,AFNE01.JPG,AFNE01.JPG,AFNE01.JPG,AFNE01.JPG,,,,,,,,,,,,,4,7,47,2,,,,,,,,,,,AFNE20.jpg,AFNE18.jpg,AFSA01.jpg,AFSA08.jpg,AFSA01.jpg,FS,4,num_2,32,num_6,0.983424193459,,,2018_Feb_09_1519,59.9960552049,MAFE4ImagesEEG,001,102949,
AFNE01.JPG,AFNE01.JPG,AFNE01.JPG,AFNE01.JPG,AFNE01.JPG,AFNE01.JPG,,,,,,,,,,,,,4,8,48,4,,,,,,,,,,,AFSA06.jpg,AFNE17.jpg,AFNE07.jpg,AFSA05.jpg,AFNE07.jpg,FN,3,num_2,32,num_8,0.916749871802,,,2018_Feb_09_1519,59.9960552049,MAFE4ImagesEEG,001,102949,
AFNE01.JPG,AFNE01.JPG,AFNE01.JPG,AFNE01.JPG,AFNE01.JPG,AFNE01.JPG,,,,,,,,,,,,,4,9,49,6,,,,,,,,,,,AFSA19.jpg,AFNE14.jpg,AFNE03.jpg,AFSA15.jpg,AFSA15.jpg,FS,4,num_4,16,num_4,0.950220941333,,,2018_Feb_09_1519,59.9960552049,MAFE4ImagesEEG,001,102949,
AFNE01.JPG,AFNE01.JPG,AFNE01.JPG,AFNE01.JPG,AFNE01.JPG,AFNE01.JPG,,,,,,,,,,,,,5,0,50,0,,,,,,,,,,,AFNE02.jpg,AFSA05.jpg,AFNE16.jpg,AFSA16.jpg,AFNE02.jpg,FN,3,num_8,16,num_8,0.966803804273,,,2018_Feb_09_1519,59.9960552049,MAFE4ImagesEEG,001,102949,
AFNE01.JPG,AFNE01.JPG,AFNE01.JPG,AFNE01.JPG,AFNE01.JPG,AFNE01.JPG,,,,,,,,,,,,,5,1,51,9,,,,,,,,,,,AFSA16.jpg,AFNE04.jpg,AFSA03.jpg,AFNE06.jpg,AFNE04.jpg,FN,3,num_6,32,num_2,0.750069038942,,,2018_Feb_09_1519,59.9960552049,MAFE4ImagesEEG,001,102949,
AFNE01.JPG,AFNE01.JPG,AFNE01.JPG,AFNE01.JPG,AFNE01.JPG,AFNE01.JPG,,,,,,,,,,,,,5,2,52,8,,,,,,,,,,,AFNE18.jpg,AFSA13.jpg,AFNE15.jpg,AFSA16.jpg,AFNE18.jpg,FN,3,num_8,16,num_8,3.96650038473,,,2018_Feb_09_1519,59.9960552049,MAFE4ImagesEEG,001,102949,
AFNE01.JPG,AFNE01.JPG,AFNE01.JPG,AFNE01.JPG,AFNE01.JPG,AFNE01.JPG,,,,,,,,,,,,,5,3,53,7,,,,,,,,,,,AFNE12.jpg,AFNE17.jpg,AFSA05.jpg,AFSA06.jpg,AFNE17.jpg,FN,3,num_6,16,num_6,0.550146465655,,,2018_Feb_09_1519,59.9960552049,MAFE4ImagesEEG,001,102949,
AFNE01.JPG,AFNE01.JPG,AFNE01.JPG,AFNE01.JPG,AFNE01.JPG,AFNE01.JPG,,,,,,,,,,,,,5,4,54,5,,,,,,,,,,,AFSA15.jpg,AFSA08.jpg,AFNE20.jpg,AFNE09.jpg,AFSA15.jpg,FS,4,num_8,32,num_2,1.50002389518,,,2018_Feb_09_1519,59.9960552049,MAFE4ImagesEEG,001,102949,
AFNE01.JPG,AFNE01.JPG,AFNE01.JPG,AFNE01.JPG,AFNE01.JPG,AFNE01.JPG,,,,,,,,,,,,,5,5,55,2,,,,,,,,,,,AFNE04.jpg,AFSA07.jpg,AFSA12.jpg,AFNE02.jpg,AFSA07.jpg,FS,4,num_6,16,num_6,1.41673880629,,,2018_Feb_09_1519,59.9960552049,MAFE4ImagesEEG,001,102949,
AFNE01.JPG,AFNE01.JPG,AFNE01.JPG,AFNE01.JPG,AFNE01.JPG,AFNE01.JPG,,,,,,,,,,,,,5,6,56,6,,,,,,,,,,,AFSA14.jpg,AFNE05.jpg,AFNE19.jpg,AFSA16.jpg,AFNE19.jpg,FN,3,num_2,32,num_4,1.23348954413,,,2018_Feb_09_1519,59.9960552049,MAFE4ImagesEEG,001,102949,
AFNE01.JPG,AFNE01.JPG,AFNE01.JPG,AFNE01.JPG,AFNE01.JPG,AFNE01.JPG,,,,,,,,,,,,,5,7,57,4,,,,,,,,,,,AFNE17.jpg,AFNE01.jpg,AFSA01.jpg,AFSA02.jpg,AFSA02.jpg,FS,4,num_4,32,num_8,0.78351733624,,,2018_Feb_09_1519,59.9960552049,MAFE4ImagesEEG,001,102949,
AFNE01.JPG,AFNE01.JPG,AFNE01.JPG,AFNE01.JPG,AFNE01.JPG,AFNE01.JPG,,,,,,,,,,,,,5,8,58,1,,,,,,,,,,,AFNE06.jpg,AFSA02.jpg,AFNE14.jpg,AFSA16.jpg,AFNE14.jpg,FN,3,num_2,32,num_6,0.616814372595,,,2018_Feb_09_1519,59.9960552049,MAFE4ImagesEEG,001,102949,
AFNE01.JPG,AFNE01.JPG,AFNE01.JPG,AFNE01.JPG,AFNE01.JPG,AFNE01.JPG,,,,,,,,,,,,,5,9,59,3,,,,,,,,,,,AFSA15.jpg,AFNE01.jpg,AFSA13.jpg,AFNE07.jpg,AFNE07.jpg,FN,3,num_4,16,num_4,1.15011208248,,,2018_Feb_09_1519,59.9960552049,MAFE4ImagesEEG,001,102949,
,,,,,,,,,,,,,,,,,,,,,,,,,,,,,,,,,,,,,,,,,,,space,41.2469070309,2018_Feb_09_1519,59.9960552049,MAFE4ImagesEEG,001,102949,
AFNE01.JPG,AFNE01.JPG,AFNE01.JPG,AFNE01.JPG,AFNE01.JPG,AFNE01.JPG,,,,,,,,,,,,,,,,,0,0,0,2,,,,,,,AMSA17.jpg,AMNE07.jpg,AMNE14.jpg,AMSA02.jpg,AMSA17.jpg,MS,2,num_8,16,num_8,0.650148486253,,,2018_Feb_09_1519,59.9960552049,MAFE4ImagesEEG,001,102949,
AFNE01.JPG,AFNE01.JPG,AFNE01.JPG,AFNE01.JPG,AFNE01.JPG,AFNE01.JPG,,,,,,,,,,,,,,,,,0,1,1,1,,,,,,,AMNE17.jpg,AMSA02.jpg,AMSA19.jpg,AMNE13.jpg,AMNE13.jpg,MN,1,num_4,16,num_4,0.616796090268,,,2018_Feb_09_1519,59.9960552049,MAFE4ImagesEEG,001,102949,
AFNE01.JPG,AFNE01.JPG,AFNE01.JPG,AFNE01.JPG,AFNE01.JPG,AFNE01.JPG,,,,,,,,,,,,,,,,,0,2,2,6,,,,,,,AMNE20.jpg,AMNE09.jpg,AMSA02.jpg,AMSA04.jpg,AMNE09.jpg,MN,1,num_6,32,num_2,1.10010241205,,,2018_Feb_09_1519,59.9960552049,MAFE4ImagesEEG,001,102949,
AFNE01.JPG,AFNE01.JPG,AFNE01.JPG,AFNE01.JPG,AFNE01.JPG,AFNE01.JPG,,,,,,,,,,,,,,,,,0,3,3,3,,,,,,,AMNE02.jpg,AMSA16.jpg,AMNE10.jpg,AMSA11.jpg,AMNE02.jpg,MN,1,num_8,32,num_4,0.900253287749,,,2018_Feb_09_1519,59.9960552049,MAFE4ImagesEEG,001,102949,
AFNE01.JPG,AFNE01.JPG,AFNE01.JPG,AFNE01.JPG,AFNE01.JPG,AFNE01.JPG,,,,,,,,,,,,,,,,,0,4,4,7,,,,,,,AMNE08.jpg,AMSA18.jpg,AMSA08.jpg,AMNE07.jpg,AMSA18.jpg,MS,2,num_6,16,num_6,1.03359840298,,,2018_Feb_09_1519,59.9960552049,MAFE4ImagesEEG,001,102949,
AFNE01.JPG,AFNE01.JPG,AFNE01.JPG,AFNE01.JPG,AFNE01.JPG,AFNE01.JPG,,,,,,,,,,,,,,,,,0,5,5,0,,,,,,,AMNE11.jpg,AMSA03.jpg,AMNE10.jpg,AMSA02.jpg,AMSA03.jpg,MS,2,num_6,16,num_6,1.1334362051,,,2018_Feb_09_1519,59.9960552049,MAFE4ImagesEEG,001,102949,
AFNE01.JPG,AFNE01.JPG,AFNE01.JPG,AFNE01.JPG,AFNE01.JPG,AFNE01.JPG,,,,,,,,,,,,,,,,,0,6,6,4,,,,,,,AMNE16.jpg,AMSA10.jpg,AMNE15.jpg,AMSA19.jpg,AMNE16.jpg,MN,1,num_8,16,num_8,0.850204808172,,,2018_Feb_09_1519,59.9960552049,MAFE4ImagesEEG,001,102949,
AFNE01.JPG,AFNE01.JPG,AFNE01.JPG,AFNE01.JPG,AFNE01.JPG,AFNE01.JPG,,,,,,,,,,,,,,,,,0,7,7,9,,,,,,,AMSA09.jpg,AMNE08.jpg,AMSA05.jpg,AMNE19.jpg,AMSA09.jpg,MS,2,num_8,32,num_2,3.66659567645,,,2018_Feb_09_1519,59.9960552049,MAFE4ImagesEEG,001,102949,
AFNE01.JPG,AFNE01.JPG,AFNE01.JPG,AFNE01.JPG,AFNE01.JPG,AFNE01.JPG,,,,,,,,,,,,,,,,,0,8,8,8,,,,,,,AMSA08.jpg,AMNE04.jpg,AMSA02.jpg,AMNE19.jpg,AMSA02.jpg,MS,2,num_2,32,num_6,0.650175428251,,,2018_Feb_09_1519,59.9960552049,MAFE4ImagesEEG,001,102949,
AFNE01.JPG,AFNE01.JPG,AFNE01.JPG,AFNE01.JPG,AFNE01.JPG,AFNE01.JPG,,,,,,,,,,,,,,,,,0,9,9,5,,,,,,,AMNE02.jpg,AMNE05.jpg,AMSA20.jpg,AMSA15.jpg,AMNE02.jpg,MN,1,num_8,16,num_8,0.633470684756,,,2018_Feb_09_1519,59.9960552049,MAFE4ImagesEEG,001,102949,
AFNE01.JPG,AFNE01.JPG,AFNE01.JPG,AFNE01.JPG,AFNE01.JPG,AFNE01.JPG,,,,,,,,,,,,,,,,,1,0,10,2,,,,,,,AMNE18.jpg,AMNE03.jpg,AMSA15.jpg,AMSA14.jpg,AMNE18.jpg,MN,1,num_8,32,num_4,0.866773878923,,,2018_Feb_09_1519,59.9960552049,MAFE4ImagesEEG,001,102949,
AFNE01.JPG,AFNE01.JPG,AFNE01.JPG,AFNE01.JPG,AFNE01.JPG,AFNE01.JPG,,,,,,,,,,,,,,,,,1,1,11,1,,,,,,,AMNE04.jpg,AMSA01.jpg,AMNE10.jpg,AMSA18.jpg,AMNE10.jpg,MN,1,num_2,16,num_2,0.683605122613,,,2018_Feb_09_1519,59.9960552049,MAFE4ImagesEEG,001,102949,
AFNE01.JPG,AFNE01.JPG,AFNE01.JPG,AFNE01.JPG,AFNE01.JPG,AFNE01.JPG,,,,,,,,,,,,,,,,,1,2,12,9,,,,,,,AMNE19.jpg,AMSA02.jpg,AMSA20.jpg,AMNE04.jpg,AMNE04.jpg,MN,1,num_4,16,num_4,0.73348425189,,,2018_Feb_09_1519,59.9960552049,MAFE4ImagesEEG,001,102949,
AFNE01.JPG,AFNE01.JPG,AFNE01.JPG,AFNE01.JPG,AFNE01.JPG,AFNE01.JPG,,,,,,,,,,,,,,,,,1,3,13,6,,,,,,,AMSA01.jpg,AMNE10.jpg,AMSA14.jpg,AMNE06.jpg,AMNE10.jpg,MN,1,num_6,16,num_6,1.36699374579,,,2018_Feb_09_1519,59.9960552049,MAFE4ImagesEEG,001,102949,
AFNE01.JPG,AFNE01.JPG,AFNE01.JPG,AFNE01.JPG,AFNE01.JPG,AFNE01.JPG,,,,,,,,,,,,,,,,,1,4,14,4,,,,,,,AMNE08.jpg,AMNE19.jpg,AMSA14.jpg,AMSA16.jpg,AMNE08.jpg,MN,1,num_8,32,num_4,0.849955272861,,,2018_Feb_09_1519,59.9960552049,MAFE4ImagesEEG,001,102949,
AFNE01.JPG,AFNE01.JPG,AFNE01.JPG,AFNE01.JPG,AFNE01.JPG,AFNE01.JPG,,,,,,,,,,,,,,,,,1,5,15,5,,,,,,,AMSA20.jpg,AMSA04.jpg,AMNE07.jpg,AMNE14.jpg,AMSA04.jpg,MS,2,num_6,32,num_8,0.866614792496,,,2018_Feb_09_1519,59.9960552049,MAFE4ImagesEEG,001,102949,
AFNE01.JPG,AFNE01.JPG,AFNE01.JPG,AFNE01.JPG,AFNE01.JPG,AFNE01.JPG,,,,,,,,,,,,,,,,,1,6,16,0,,,,,,,AMSA16.jpg,AMSA08.jpg,AMNE11.jpg,AMNE01.jpg,AMNE01.jpg,MN,1,num_4,32,num_2,0.600145551376,,,2018_Feb_09_1519,59.9960552049,MAFE4ImagesEEG,001,102949,
AFNE01.JPG,AFNE01.JPG,AFNE01.JPG,AFNE01.JPG,AFNE01.JPG,AFNE01.JPG,,,,,,,,,,,,,,,,,1,7,17,3,,,,,,,AMSA16.jpg,AMNE01.jpg,AMNE08.jpg,AMSA14.jpg,AMSA16.jpg,MS,2,num_8,16,num_8,0.783456395613,,,2018_Feb_09_1519,59.9960552049,MAFE4ImagesEEG,001,102949,
AFNE01.JPG,AFNE01.JPG,AFNE01.JPG,AFNE01.JPG,AFNE01.JPG,AFNE01.JPG,,,,,,,,,,,,,,,,,1,8,18,7,,,,,,,AMNE16.jpg,AMNE08.jpg,AMSA05.jpg,AMSA16.jpg,AMNE16.jpg,MN,1,num_8,32,num_6,0.933473218465,,,2018_Feb_09_1519,59.9960552049,MAFE4ImagesEEG,001,102949,
AFNE01.JPG,AFNE01.JPG,AFNE01.JPG,AFNE01.JPG,AFNE01.JPG,AFNE01.JPG,,,,,,,,,,,,,,,,,1,9,19,8,,,,,,,AMNE06.jpg,AMNE20.jpg,AMSA13.jpg,AMSA01.jpg,AMNE06.jpg,MN,1,num_8,32,num_4,0.650107111083,,,2018_Feb_09_1519,59.9960552049,MAFE4ImagesEEG,001,102949,
AFNE01.JPG,AFNE01.JPG,AFNE01.JPG,AFNE01.JPG,AFNE01.JPG,AFNE01.JPG,,,,,,,,,,,,,,,,,2,0,20,8,,,,,,,AMNE12.jpg,AMSA02.jpg,AMSA01.jpg,AMNE20.jpg,AMSA01.jpg,MS,2,num_2,16,num_2,1.08343743999,,,2018_Feb_09_1519,59.9960552049,MAFE4ImagesEEG,001,102949,
AFNE01.JPG,AFNE01.JPG,AFNE01.JPG,AFNE01.JPG,AFNE01.JPG,AFNE01.JPG,,,,,,,,,,,,,,,,,2,1,21,4,,,,,,,AMSA18.jpg,AMSA01.jpg,AMNE12.jpg,AMNE13.jpg,AMNE13.jpg,MN,1,num_4,16,num_4,0.95014236006,,,2018_Feb_09_1519,59.9960552049,MAFE4ImagesEEG,001,102949,
AFNE01.JPG,AFNE01.JPG,AFNE01.JPG,AFNE01.JPG,AFNE01.JPG,AFNE01.JPG,,,,,,,,,,,,,,,,,2,2,22,1,,,,,,,AMNE12.jpg,AMSA10.jpg,AMSA07.jpg,AMNE09.jpg,AMSA07.jpg,MS,2,num_2,32,num_8,0.633488325169,,,2018_Feb_09_1519,59.9960552049,MAFE4ImagesEEG,001,102949,
AFNE01.JPG,AFNE01.JPG,AFNE01.JPG,AFNE01.JPG,AFNE01.JPG,AFNE01.JPG,,,,,,,,,,,,,,,,,2,3,23,6,,,,,,,AMNE10.jpg,AMSA06.jpg,AMNE13.jpg,AMSA01.jpg,AMNE10.jpg,MN,1,num_8,32,num_6,0.683440904133,,,2018_Feb_09_1519,59.9960552049,MAFE4ImagesEEG,001,102949,
AFNE01.JPG,AFNE01.JPG,AFNE01.JPG,AFNE01.JPG,AFNE01.JPG,AFNE01.JPG,,,,,,,,,,,,,,,,,2,4,24,5,,,,,,,AMNE16.jpg,AMSA11.jpg,AMSA09.jpg,AMNE11.jpg,AMSA11.jpg,MS,2,num_6,32,num_8,1.13341856445,,,2018_Feb_09_1519,59.9960552049,MAFE4ImagesEEG,001,102949,
AFNE01.JPG,AFNE01.JPG,AFNE01.JPG,AFNE01.JPG,AFNE01.JPG,AFNE01.JPG,,,,,,,,,,,,,,,,,2,5,25,3,,,,,,,AMNE05.jpg,AMSA09.jpg,AMNE17.jpg,AMSA02.jpg,AMNE17.jpg,MN,1,num_2,16,num_2,1.63351141848,,,2018_Feb_09_1519,59.9960552049,MAFE4ImagesEEG,001,102949,
AFNE01.JPG,AFNE01.JPG,AFNE01.JPG,AFNE01.JPG,AFNE01.JPG,AFNE01.JPG,,,,,,,,,,,,,,,,,2,6,26,9,,,,,,,AMSA10.jpg,AMNE14.jpg,AMNE11.jpg,AMSA19.jpg,AMNE11.jpg,MN,1,num_2,32,num_6,0.666748668998,,,2018_Feb_09_1519,59.9960552049,MAFE4ImagesEEG,001,102949,
AFNE01.JPG,AFNE01.JPG,AFNE01.JPG,AFNE01.JPG,AFNE01.JPG,AFNE01.JPG,,,,,,,,,,,,,,,,,2,7,27,0,,,,,,,AMNE09.jpg,AMSA15.jpg,AMNE13.jpg,AMSA09.jpg,AMSA09.jpg,MS,2,num_4,32,num_2,1.31675057742,,,2018_Feb_09_1519,59.9960552049,MAFE4ImagesEEG,001,102949,
AFNE01.JPG,AFNE01.JPG,AFNE01.JPG,AFNE01.JPG,AFNE01.JPG,AFNE01.JPG,,,,,,,,,,,,,,,,,2,8,28,7,,,,,,,AMNE06.jpg,AMNE04.jpg,AMSA01.jpg,AMSA15.jpg,AMNE04.jpg,MN,1,num_6,16,num_6,0.833484989591,,,2018_Feb_09_1519,59.9960552049,MAFE4ImagesEEG,001,102949,
AFNE01.JPG,AFNE01.JPG,AFNE01.JPG,AFNE01.JPG,AFNE01.JPG,AFNE01.JPG,,,,,,,,,,,,,,,,,2,9,29,2,,,,,,,AMSA07.jpg,AMSA06.jpg,AMNE13.jpg,AMNE10.jpg,AMNE10.jpg,MN,1,num_4,32,num_8,1.03341750591,,,2018_Feb_09_1519,59.9960552049,MAFE4ImagesEEG,001,102949,
AFNE01.JPG,AFNE01.JPG,AFNE01.JPG,AFNE01.JPG,AFNE01.JPG,AFNE01.JPG,,,,,,,,,,,,,,,,,3,0,30,2,,,,,,,AMSA07.jpg,AMNE09.jpg,AMNE13.jpg,AMSA20.jpg,AMNE09.jpg,MN,1,num_6,32,num_4,0.63354702061,,,2018_Feb_09_1519,59.9960552049,MAFE4ImagesEEG,001,102949,
AFNE01.JPG,AFNE01.JPG,AFNE01.JPG,AFNE01.JPG,AFNE01.JPG,AFNE01.JPG,,,,,,,,,,,,,,,,,3,1,31,6,,,,,,,AMNE02.jpg,AMSA05.jpg,AMNE08.jpg,AMSA01.jpg,AMNE08.jpg,MN,1,num_2,32,num_6,0.816767737037,,,2018_Feb_09_1519,59.9960552049,MAFE4ImagesEEG,001,102949,
AFNE01.JPG,AFNE01.JPG,AFNE01.JPG,AFNE01.JPG,AFNE01.JPG,AFNE01.JPG,,,,,,,,,,,,,,,,,3,2,32,4,,,,,,,AMNE09.jpg,AMSA11.jpg,AMNE02.jpg,AMSA10.jpg,AMSA10.jpg,MS,2,num_4,32,num_8,0.600212265272,,,2018_Feb_09_1519,59.9960552049,MAFE4ImagesEEG,001,102949,
AFNE01.JPG,AFNE01.JPG,AFNE01.JPG,AFNE01.JPG,AFNE01.JPG,AFNE01.JPG,,,,,,,,,,,,,,,,,3,3,33,1,,,,,,,AMNE05.jpg,AMNE01.jpg,AMSA08.jpg,AMSA06.jpg,AMSA08.jpg,MS,2,num_2,32,num_4,0.566821380518,,,2018_Feb_09_1519,59.9960552049,MAFE4ImagesEEG,001,102949,
AFNE01.JPG,AFNE01.JPG,AFNE01.JPG,AFNE01.JPG,AFNE01.JPG,AFNE01.JPG,,,,,,,,,,,,,,,,,3,4,34,3,,,,,,,AMSA03.jpg,AMSA16.jpg,AMNE07.jpg,AMNE18.jpg,AMSA16.jpg,MS,2,num_6,16,num_6,0.600154211512,,,2018_Feb_09_1519,59.9960552049,MAFE4ImagesEEG,001,102949,
AFNE01.JPG,AFNE01.JPG,AFNE01.JPG,AFNE01.JPG,AFNE01.JPG,AFNE01.JPG,,,,,,,,,,,,,,,,,3,5,35,5,,,,,,,AMSA11.jpg,AMNE20.jpg,AMSA19.jpg,AMNE09.jpg,AMSA19.jpg,MS,2,num_2,32,num_8,1.43350000004,,,2018_Feb_09_1519,59.9960552049,MAFE4ImagesEEG,001,102949,
AFNE01.JPG,AFNE01.JPG,AFNE01.JPG,AFNE01.JPG,AFNE01.JPG,AFNE01.JPG,,,,,,,,,,,,,,,,,3,6,36,8,,,,,,,AMSA06.jpg,AMSA08.jpg,AMNE15.jpg,AMNE08.jpg,AMNE08.jpg,MN,1,num_4,32,num_6,1.71672369959,,,2018_Feb_09_1519,59.9960552049,MAFE4ImagesEEG,001,102949,
AFNE01.JPG,AFNE01.JPG,AFNE01.JPG,AFNE01.JPG,AFNE01.JPG,AFNE01.JPG,,,,,,,,,,,,,,,,,3,7,37,7,,,,,,,AMNE04.jpg,AMSA16.jpg,AMSA02.jpg,AMNE18.jpg,AMNE18.jpg,MN,1,num_4,32,num_2,1.21677966858,,,2018_Feb_09_1519,59.9960552049,MAFE4ImagesEEG,001,102949,
AFNE01.JPG,AFNE01.JPG,AFNE01.JPG,AFNE01.JPG,AFNE01.JPG,AFNE01.JPG,,,,,,,,,,,,,,,,,3,8,38,0,,,,,,,AMNE20.jpg,AMSA11.jpg,AMSA02.jpg,AMNE16.jpg,AMNE20.jpg,MN,1,num_8,32,num_6,0.716883427696,,,2018_Feb_09_1519,59.9960552049,MAFE4ImagesEEG,001,102949,
AFNE01.JPG,AFNE01.JPG,AFNE01.JPG,AFNE01.JPG,AFNE01.JPG,AFNE01.JPG,,,,,,,,,,,,,,,,,3,9,39,9,,,,,,,AMSA10.jpg,AMNE11.jpg,AMNE09.jpg,AMSA06.jpg,AMNE09.jpg,MN,1,num_2,32,num_4,1.16675364063,,,2018_Feb_09_1519,59.9960552049,MAFE4ImagesEEG,001,102949,
AFNE01.JPG,AFNE01.JPG,AFNE01.JPG,AFNE01.JPG,AFNE01.JPG,AFNE01.JPG,,,,,,,,,,,,,,,,,4,0,40,3,,,,,,,AMSA13.jpg,AMNE04.jpg,AMSA08.jpg,AMNE02.jpg,AMSA13.jpg,MS,2,num_8,16,num_8,0.833449387457,,,2018_Feb_09_1519,59.9960552049,MAFE4ImagesEEG,001,102949,
AFNE01.JPG,AFNE01.JPG,AFNE01.JPG,AFNE01.JPG,AFNE01.JPG,AFNE01.JPG,,,,,,,,,,,,,,,,,4,1,41,7,,,,,,,AMSA20.jpg,AMNE20.jpg,AMNE03.jpg,AMSA15.jpg,AMSA15.jpg,MS,2,num_4,32,num_2,2.33333279891,,,2018_Feb_09_1519,59.9960552049,MAFE4ImagesEEG,001,102949,
AFNE01.JPG,AFNE01.JPG,AFNE01.JPG,AFNE01.JPG,AFNE01.JPG,AFNE01.JPG,,,,,,,,,,,,,,,,,4,2,42,8,,,,,,,AMSA10.jpg,AMNE16.jpg,AMNE04.jpg,AMSA08.jpg,AMSA08.jpg,MS,2,num_4,32,num_2,1.51673794026,,,2018_Feb_09_1519,59.9960552049,MAFE4ImagesEEG,001,102949,
AFNE01.JPG,AFNE01.JPG,AFNE01.JPG,AFNE01.JPG,AFNE01.JPG,AFNE01.JPG,,,,,,,,,,,,,,,,,4,3,43,5,,,,,,,AMNE02.jpg,AMSA19.jpg,AMSA17.jpg,AMNE19.jpg,AMSA19.jpg,MS,2,num_6,32,num_8,0.61682239105,,,2018_Feb_09_1519,59.9960552049,MAFE4ImagesEEG,001,102949,
AFNE01.JPG,AFNE01.JPG,AFNE01.JPG,AFNE01.JPG,AFNE01.JPG,AFNE01.JPG,,,,,,,,,,,,,,,,,4,4,44,2,,,,,,,AMSA08.jpg,AMSA13.jpg,AMNE08.jpg,AMNE05.jpg,AMNE05.jpg,MN,1,num_4,32,num_6,0.733427481027,,,2018_Feb_09_1519,59.9960552049,MAFE4ImagesEEG,001,102949,
AFNE01.JPG,AFNE01.JPG,AFNE01.JPG,AFNE01.JPG,AFNE01.JPG,AFNE01.JPG,,,,,,,,,,,,,,,,,4,5,45,1,,,,,,,AMSA06.jpg,AMSA01.jpg,AMNE11.jpg,AMNE07.jpg,AMSA01.jpg,MS,2,num_6,16,num_6,0.816782490816,,,2018_Feb_09_1519,59.9960552049,MAFE4ImagesEEG,001,102949,
AFNE01.JPG,AFNE01.JPG,AFNE01.JPG,AFNE01.JPG,AFNE01.JPG,AFNE01.JPG,,,,,,,,,,,,,,,,,4,6,46,6,,,,,,,AMNE13.jpg,AMSA13.jpg,AMNE12.jpg,AMSA02.jpg,AMNE12.jpg,MN,1,num_2,32,num_8,0.85012590629,,,2018_Feb_09_1519,59.9960552049,MAFE4ImagesEEG,001,102949,
AFNE01.JPG,AFNE01.JPG,AFNE01.JPG,AFNE01.JPG,AFNE01.JPG,AFNE01.JPG,,,,,,,,,,,,,,,,,4,7,47,4,,,,,,,AMSA04.jpg,AMNE15.jpg,AMNE20.jpg,AMSA09.jpg,AMNE15.jpg,MN,1,num_6,32,num_4,0.866745333187,,,2018_Feb_09_1519,59.9960552049,MAFE4ImagesEEG,001,102949,
AFNE01.JPG,AFNE01.JPG,AFNE01.JPG,AFNE01.JPG,AFNE01.JPG,AFNE01.JPG,,,,,,,,,,,,,,,,,4,8,48,0,,,,,,,AMSA20.jpg,AMNE02.jpg,AMSA07.jpg,AMNE05.jpg,AMSA20.jpg,MS,2,num_8,32,num_6,0.900137821678,,,2018_Feb_09_1519,59.9960552049,MAFE4ImagesEEG,001,102949,
AFNE01.JPG,AFNE01.JPG,AFNE01.JPG,AFNE01.JPG,AFNE01.JPG,AFNE01.JPG,,,,,,,,,,,,,,,,,4,9,49,9,,,,,,,AMSA09.jpg,AMNE16.jpg,AMSA08.jpg,AMNE11.jpg,AMSA08.jpg,MS,2,num_2,32,num_8,0.616783260833,,,2018_Feb_09_1519,59.9960552049,MAFE4ImagesEEG,001,102949,
AFNE01.JPG,AFNE01.JPG,AFNE01.JPG,AFNE01.JPG,AFNE01.JPG,AFNE01.JPG,,,,,,,,,,,,,,,,,5,0,50,5,,,,,,,AMSA10.jpg,AMNE06.jpg,AMNE18.jpg,AMSA02.jpg,AMNE18.jpg,MN,1,num_2,32,num_8,1.76675293478,,,2018_Feb_09_1519,59.9960552049,MAFE4ImagesEEG,001,102949,
AFNE01.JPG,AFNE01.JPG,AFNE01.JPG,AFNE01.JPG,AFNE01.JPG,AFNE01.JPG,,,,,,,,,,,,,,,,,5,1,51,1,,,,,,,AMNE04.jpg,AMSA19.jpg,AMNE19.jpg,AMSA11.jpg,AMNE19.jpg,MN,1,num_2,32,num_4,0.600134325447,,,2018_Feb_09_1519,59.9960552049,MAFE4ImagesEEG,001,102949,
AFNE01.JPG,AFNE01.JPG,AFNE01.JPG,AFNE01.JPG,AFNE01.JPG,AFNE01.JPG,,,,,,,,,,,,,,,,,5,2,52,7,,,,,,,AMNE07.jpg,AMSA08.jpg,AMSA05.jpg,AMNE19.jpg,AMSA05.jpg,MS,2,num_2,32,num_6,0.583467749879,,,2018_Feb_09_1519,59.9960552049,MAFE4ImagesEEG,001,102949,
AFNE01.JPG,AFNE01.JPG,AFNE01.JPG,AFNE01.JPG,AFNE01.JPG,AFNE01.JPG,,,,,,,,,,,,,,,,,5,3,53,2,,,,,,,AMSA05.jpg,AMNE04.jpg,AMNE03.jpg,AMSA06.jpg,AMSA06.jpg,MS,2,num_4,16,num_4,0.516810427187,,,2018_Feb_09_1519,59.9960552049,MAFE4ImagesEEG,001,102949,
AFNE01.JPG,AFNE01.JPG,AFNE01.JPG,AFNE01.JPG,AFNE01.JPG,AFNE01.JPG,,,,,,,,,,,,,,,,,5,4,54,4,,,,,,,AMSA11.jpg,AMSA20.jpg,AMNE01.jpg,AMNE05.jpg,AMNE05.jpg,MN,1,num_4,32,num_8,0.583443694515,,,2018_Feb_09_1519,59.9960552049,MAFE4ImagesEEG,001,102949,
AFNE01.JPG,AFNE01.JPG,AFNE01.JPG,AFNE01.JPG,AFNE01.JPG,AFNE01.JPG,,,,,,,,,,,,,,,,,5,5,55,8,,,,,,,AMNE14.jpg,AMSA18.jpg,AMSA16.jpg,AMNE05.jpg,AMSA16.jpg,MS,2,num_2,32,num_8,0.98347647395,,,2018_Feb_09_1519,59.9960552049,MAFE4ImagesEEG,001,102949,
AFNE01.JPG,AFNE01.JPG,AFNE01.JPG,AFNE01.JPG,AFNE01.JPG,AFNE01.JPG,,,,,,,,,,,,,,,,,5,6,56,3,,,,,,,AMNE04.jpg,AMNE10.jpg,AMSA09.jpg,AMSA06.jpg,AMSA09.jpg,MS,2,num_2,32,num_4,2.33338443772,,,2018_Feb_09_1519,59.9960552049,MAFE4ImagesEEG,001,102949,
AFNE01.JPG,AFNE01.JPG,AFNE01.JPG,AFNE01.JPG,AFNE01.JPG,AFNE01.JPG,,,,,,,,,,,,,,,,,5,7,57,9,,,,,,,AMSA16.jpg,AMNE06.jpg,AMSA20.jpg,AMNE10.jpg,AMSA16.jpg,MS,2,num_8,16,num_8,0.733506062301,,,2018_Feb_09_1519,59.9960552049,MAFE4ImagesEEG,001,102949,
AFNE01.JPG,AFNE01.JPG,AFNE01.JPG,AFNE01.JPG,AFNE01.JPG,AFNE01.JPG,,,,,,,,,,,,,,,,,5,8,58,0,,,,,,,AMSA09.jpg,AMNE14.jpg,AMSA20.jpg,AMNE01.jpg,AMNE14.jpg,MN,1,num_6,16,num_6,0.600161909126,,,2018_Feb_09_1519,59.9960552049,MAFE4ImagesEEG,001,102949,
AFNE01.JPG,AFNE01.JPG,AFNE01.JPG,AFNE01.JPG,AFNE01.JPG,AFNE01.JPG,,,,,,,,,,,,,,,,,5,9,59,6,,,,,,,AMSA02.jpg,AMNE09.jpg,AMNE15.jpg,AMSA13.jpg,AMSA13.jpg,MS,2,num_4,32,num_8,0.716803563526,,,2018_Feb_09_1519,59.9960552049,MAFE4ImagesEEG,001,102949,
,,,,,,,,,,,,,,,,,,,,,,,,,,,,,,,,,,,,,,,,,,,space,54.2792224765,2018_Feb_09_1519,59.9960552049,MAFE4ImagesEEG,001,102949,
AFNE01.JPG,AFNE01.JPG,AFNE01.JPG,AFNE01.JPG,AFNE01.JPG,AFNE01.JPG,,,,,,,,,,,,,,,,,,,,,0,0,0,0,,,AFNE07.jpg,AFSA06.jpg,AFNE09.jpg,AFSA17.jpg,AFSA17.jpg,FS,4,num_4,32,num_2,1.05013155122,,,2018_Feb_09_1519,59.9960552049,MAFE4ImagesEEG,001,102949,
AFNE01.JPG,AFNE01.JPG,AFNE01.JPG,AFNE01.JPG,AFNE01.JPG,AFNE01.JPG,,,,,,,,,,,,,,,,,,,,,0,1,1,9,,,AFSA12.jpg,AFSA06.jpg,AFNE05.jpg,AFNE17.jpg,AFSA12.jpg,FS,4,num_8,16,num_8,1.15018649399,,,2018_Feb_09_1519,59.9960552049,MAFE4ImagesEEG,001,102949,
AFNE01.JPG,AFNE01.JPG,AFNE01.JPG,AFNE01.JPG,AFNE01.JPG,AFNE01.JPG,,,,,,,,,,,,,,,,,,,,,0,2,2,6,,,AFNE10.jpg,AFNE01.jpg,AFSA07.jpg,AFSA19.jpg,AFNE10.jpg,FN,3,num_8,32,num_6,0.616650474491,,,2018_Feb_09_1519,59.9960552049,MAFE4ImagesEEG,001,102949,
AFNE01.JPG,AFNE01.JPG,AFNE01.JPG,AFNE01.JPG,AFNE01.JPG,AFNE01.JPG,,,,,,,,,,,,,,,,,,,,,0,3,3,7,,,AFSA06.jpg,AFNE14.jpg,AFNE04.jpg,AFSA13.jpg,AFSA06.jpg,FS,4,num_8,32,num_4,0.633532266598,,,2018_Feb_09_1519,59.9960552049,MAFE4ImagesEEG,001,102949,
AFNE01.JPG,AFNE01.JPG,AFNE01.JPG,AFNE01.JPG,AFNE01.JPG,AFNE01.JPG,,,,,,,,,,,,,,,,,,,,,0,4,4,8,,,AFSA04.jpg,AFNE12.jpg,AFSA10.jpg,AFNE13.jpg,AFSA10.jpg,FS,4,num_2,16,num_2,0.700127365533,,,2018_Feb_09_1519,59.9960552049,MAFE4ImagesEEG,001,102949,
AFNE01.JPG,AFNE01.JPG,AFNE01.JPG,AFNE01.JPG,AFNE01.JPG,AFNE01.JPG,,,,,,,,,,,,,,,,,,,,,0,5,5,1,,,AFSA11.jpg,AFNE02.jpg,AFNE07.jpg,AFSA03.jpg,AFNE02.jpg,FN,3,num_6,32,num_8,0.633510135347,,,2018_Feb_09_1519,59.9960552049,MAFE4ImagesEEG,001,102949,
AFNE01.JPG,AFNE01.JPG,AFNE01.JPG,AFNE01.JPG,AFNE01.JPG,AFNE01.JPG,,,,,,,,,,,,,,,,,,,,,0,6,6,2,,,AFNE10.jpg,AFSA20.jpg,AFSA17.jpg,AFNE02.jpg,AFNE10.jpg,FN,3,num_8,32,num_4,0.633530021412,,,2018_Feb_09_1519,59.9960552049,MAFE4ImagesEEG,001,102949,
AFNE01.JPG,AFNE01.JPG,AFNE01.JPG,AFNE01.JPG,AFNE01.JPG,AFNE01.JPG,,,,,,,,,,,,,,,,,,,,,0,7,7,3,,,AFSA01.jpg,AFNE05.jpg,AFNE12.jpg,AFSA08.jpg,AFNE12.jpg,FN,3,num_2,32,num_8,0.866793764988,,,2018_Feb_09_1519,59.9960552049,MAFE4ImagesEEG,001,102949,
AFNE01.JPG,AFNE01.JPG,AFNE01.JPG,AFNE01.JPG,AFNE01.JPG,AFNE01.JPG,,,,,,,,,,,,,,,,,,,,,0,8,8,4,,,AFSA02.jpg,AFNE13.jpg,AFSA01.jpg,AFNE19.jpg,AFNE13.jpg,FN,3,num_6,16,num_6,0.716836920474,,,2018_Feb_09_1519,59.9960552049,MAFE4ImagesEEG,001,102949,
AFNE01.JPG,AFNE01.JPG,AFNE01.JPG,AFNE01.JPG,AFNE01.JPG,AFNE01.JPG,,,,,,,,,,,,,,,,,,,,,0,9,9,5,,,AFSA13.jpg,AFSA12.jpg,AFNE17.jpg,AFNE02.jpg,AFSA12.jpg,FS,4,num_6,32,num_2,1.13346410939,,,2018_Feb_09_1519,59.9960552049,MAFE4ImagesEEG,001,102949,
AFNE01.JPG,AFNE01.JPG,AFNE01.JPG,AFNE01.JPG,AFNE01.JPG,AFNE01.JPG,,,,,,,,,,,,,,,,,,,,,1,0,10,7,,,AFNE13.jpg,AFSA05.jpg,AFNE06.jpg,AFSA17.jpg,AFSA17.jpg,FS,4,num_4,32,num_8,0.733474309091,,,2018_Feb_09_1519,59.9960552049,MAFE4ImagesEEG,001,102949,
AFNE01.JPG,AFNE01.JPG,AFNE01.JPG,AFNE01.JPG,AFNE01.JPG,AFNE01.JPG,,,,,,,,,,,,,,,,,,,,,1,1,11,8,,,AFSA01.jpg,AFNE02.jpg,AFNE10.jpg,AFSA15.jpg,AFNE02.jpg,FN,3,num_6,32,num_4,0.450130653102,,,2018_Feb_09_1519,59.9960552049,MAFE4ImagesEEG,001,102949,
AFNE01.JPG,AFNE01.JPG,AFNE01.JPG,AFNE01.JPG,AFNE01.JPG,AFNE01.JPG,,,,,,,,,,,,,,,,,,,,,1,2,12,1,,,AFSA10.jpg,AFNE07.jpg,AFNE12.jpg,AFSA05.jpg,AFNE07.jpg,FN,3,num_6,32,num_8,0.55016955873,,,2018_Feb_09_1519,59.9960552049,MAFE4ImagesEEG,001,102949,
AFNE01.JPG,AFNE01.JPG,AFNE01.JPG,AFNE01.JPG,AFNE01.JPG,AFNE01.JPG,,,,,,,,,,,,,,,,,,,,,1,3,13,0,,,AFNE12.jpg,AFSA09.jpg,AFSA06.jpg,AFNE14.jpg,AFNE12.jpg,FN,3,num_8,16,num_8,0.966739014722,,,2018_Feb_09_1519,59.9960552049,MAFE4ImagesEEG,001,102949,
AFNE01.JPG,AFNE01.JPG,AFNE01.JPG,AFNE01.JPG,AFNE01.JPG,AFNE01.JPG,,,,,,,,,,,,,,,,,,,,,1,4,14,6,,,AFNE02.jpg,AFSA11.jpg,AFSA06.jpg,AFNE13.jpg,AFSA11.jpg,FS,4,num_6,16,num_6,2.43330916017,,,2018_Feb_09_1519,59.9960552049,MAFE4ImagesEEG,001,102949,
AFNE01.JPG,AFNE01.JPG,AFNE01.JPG,AFNE01.JPG,AFNE01.JPG,AFNE01.JPG,,,,,,,,,,,,,,,,,,,,,1,5,15,4,,,AFSA14.jpg,AFSA10.jpg,AFNE19.jpg,AFNE14.jpg,AFSA10.jpg,FS,4,num_6,32,num_4,0.71677501779,,,2018_Feb_09_1519,59.9960552049,MAFE4ImagesEEG,001,102949,
AFNE01.JPG,AFNE01.JPG,AFNE01.JPG,AFNE01.JPG,AFNE01.JPG,AFNE01.JPG,,,,,,,,,,,,,,,,,,,,,1,6,16,5,,,AFNE12.jpg,AFSA17.jpg,AFSA15.jpg,AFNE20.jpg,AFSA15.jpg,FS,4,num_2,32,num_8,0.483583440538,,,2018_Feb_09_1519,59.9960552049,MAFE4ImagesEEG,001,102949,
AFNE01.JPG,AFNE01.JPG,AFNE01.JPG,AFNE01.JPG,AFNE01.JPG,AFNE01.JPG,,,,,,,,,,,,,,,,,,,,,1,7,17,9,,,AFNE18.jpg,AFNE06.jpg,AFSA04.jpg,AFSA07.jpg,AFSA04.jpg,FS,4,num_2,16,num_2,1.16676165909,,,2018_Feb_09_1519,59.9960552049,MAFE4ImagesEEG,001,102949,
AFNE01.JPG,AFNE01.JPG,AFNE01.JPG,AFNE01.JPG,AFNE01.JPG,AFNE01.JPG,,,,,,,,,,,,,,,,,,,,,1,8,18,3,,,AFSA20.jpg,AFSA10.jpg,AFNE01.jpg,AFNE11.jpg,AFNE01.jpg,FN,3,num_2,32,num_8,0.750132866204,,,2018_Feb_09_1519,59.9960552049,MAFE4ImagesEEG,001,102949,
AFNE01.JPG,AFNE01.JPG,AFNE01.JPG,AFNE01.JPG,AFNE01.JPG,AFNE01.JPG,,,,,,,,,,,,,,,,,,,,,1,9,19,2,,,AFSA07.jpg,AFNE15.jpg,AFSA08.jpg,AFNE10.jpg,AFSA08.jpg,FS,4,num_2,32,num_4,0.800182949752,,,2018_Feb_09_1519,59.9960552049,MAFE4ImagesEEG,001,102949,
AFNE01.JPG,AFNE01.JPG,AFNE01.JPG,AFNE01.JPG,AFNE01.JPG,AFNE01.JPG,,,,,,,,,,,,,,,,,,,,,2,0,20,3,,,AFNE02.jpg,AFNE07.jpg,AFSA12.jpg,AFSA10.jpg,AFSA10.jpg,FS,4,num_4,16,num_4,0.916780662723,,,2018_Feb_09_1519,59.9960552049,MAFE4ImagesEEG,001,102949,
AFNE01.JPG,AFNE01.JPG,AFNE01.JPG,AFNE01.JPG,AFNE01.JPG,AFNE01.JPG,,,,,,,,,,,,,,,,,,,,,2,1,21,6,,,AFNE16.jpg,AFSA13.jpg,AFNE14.jpg,AFSA06.jpg,AFSA06.jpg,FS,4,num_4,16,num_4,1.00013150298,,,2018_Feb_09_1519,59.9960552049,MAFE4ImagesEEG,001,102949,
AFNE01.JPG,AFNE01.JPG,AFNE01.JPG,AFNE01.JPG,AFNE01.JPG,AFNE01.JPG,,,,,,,,,,,,,,,,,,,,,2,2,22,2,,,AFNE05.jpg,AFSA07.jpg,AFSA11.jpg,AFNE20.jpg,AFSA07.jpg,FS,4,num_6,32,num_8,1.05011487287,,,2018_Feb_09_1519,59.9960552049,MAFE4ImagesEEG,001,102949,
AFNE01.JPG,AFNE01.JPG,AFNE01.JPG,AFNE01.JPG,AFNE01.JPG,AFNE01.JPG,,,,,,,,,,,,,,,,,,,,,2,3,23,8,,,AFNE01.jpg,AFSA18.jpg,AFNE11.jpg,AFSA05.jpg,AFNE01.jpg,FN,3,num_8,32,num_6,0.566833889578,,,2018_Feb_09_1519,59.9960552049,MAFE4ImagesEEG,001,102949,
AFNE01.JPG,AFNE01.JPG,AFNE01.JPG,AFNE01.JPG,AFNE01.JPG,AFNE01.JPG,,,,,,,,,,,,,,,,,,,,,2,4,24,7,,,AFNE17.jpg,AFSA01.jpg,AFNE16.jpg,AFSA11.jpg,AFNE17.jpg,FN,3,num_8,32,num_2,1.23338241712,,,2018_Feb_09_1519,59.9960552049,MAFE4ImagesEEG,001,102949,
AFNE01.JPG,AFNE01.JPG,AFNE01.JPG,AFNE01.JPG,AFNE01.JPG,AFNE01.JPG,,,,,,,,,,,,,,,,,,,,,2,5,25,0,,,AFSA13.jpg,AFNE10.jpg,AFSA09.jpg,AFNE03.jpg,AFSA09.jpg,FS,4,num_2,32,num_8,0.96678391844,,,2018_Feb_09_1519,59.9960552049,MAFE4ImagesEEG,001,102949,
AFNE01.JPG,AFNE01.JPG,AFNE01.JPG,AFNE01.JPG,AFNE01.JPG,AFNE01.JPG,,,,,,,,,,,,,,,,,,,,,2,6,26,4,,,AFNE09.jpg,AFSA02.jpg,AFSA12.jpg,AFNE17.jpg,AFNE09.jpg,FN,3,num_8,32,num_4,0.600138815818,,,2018_Feb_09_1519,59.9960552049,MAFE4ImagesEEG,001,102949,
AFNE01.JPG,AFNE01.JPG,AFNE01.JPG,AFNE01.JPG,AFNE01.JPG,AFNE01.JPG,,,,,,,,,,,,,,,,,,,,,2,7,27,5,,,AFSA02.jpg,AFNE12.jpg,AFNE05.jpg,AFSA03.jpg,AFSA03.jpg,FS,4,num_4,32,num_6,0.733489704318,,,2018_Feb_09_1519,59.9960552049,MAFE4ImagesEEG,001,102949,
AFNE01.JPG,AFNE01.JPG,AFNE01.JPG,AFNE01.JPG,AFNE01.JPG,AFNE01.JPG,,,,,,,,,,,,,,,,,,,,,2,8,28,9,,,AFSA06.jpg,AFNE01.jpg,AFSA15.jpg,AFNE15.jpg,AFNE15.jpg,FN,3,num_4,16,num_4,1.78339353087,,,2018_Feb_09_1519,59.9960552049,MAFE4ImagesEEG,001,102949,
AFNE01.JPG,AFNE01.JPG,AFNE01.JPG,AFNE01.JPG,AFNE01.JPG,AFNE01.JPG,,,,,,,,,,,,,,,,,,,,,2,9,29,1,,,AFNE16.jpg,AFSA02.jpg,AFNE01.jpg,AFSA08.jpg,AFSA08.jpg,FS,4,num_4,32,num_6,0.466799474088,,,2018_Feb_09_1519,59.9960552049,MAFE4ImagesEEG,001,102949,
AFNE01.JPG,AFNE01.JPG,AFNE01.JPG,AFNE01.JPG,AFNE01.JPG,AFNE01.JPG,,,,,,,,,,,,,,,,,,,,,3,0,30,4,,,AFSA17.jpg,AFNE02.jpg,AFNE06.jpg,AFSA13.jpg,AFNE06.jpg,FN,3,num_2,32,num_8,2.88356137369,,,2018_Feb_09_1519,59.9960552049,MAFE4ImagesEEG,001,102949,
AFNE01.JPG,AFNE01.JPG,AFNE01.JPG,AFNE01.JPG,AFNE01.JPG,AFNE01.JPG,,,,,,,,,,,,,,,,,,,,,3,1,31,1,,,AFSA12.jpg,AFNE15.jpg,AFSA01.jpg,AFNE12.jpg,AFNE15.jpg,FN,3,num_6,32,num_4,2.03343065642,,,2018_Feb_09_1519,59.9960552049,MAFE4ImagesEEG,001,102949,
AFNE01.JPG,AFNE01.JPG,AFNE01.JPG,AFNE01.JPG,AFNE01.JPG,AFNE01.JPG,,,,,,,,,,,,,,,,,,,,,3,2,32,8,,,AFNE08.jpg,AFNE16.jpg,AFSA07.jpg,AFSA02.jpg,AFNE08.jpg,FN,3,num_8,48,None,,,,2018_Feb_09_1519,59.9960552049,MAFE4ImagesEEG,001,102949,
AFNE01.JPG,AFNE01.JPG,AFNE01.JPG,AFNE01.JPG,AFNE01.JPG,AFNE01.JPG,,,,,,,,,,,,,,,,,,,,,3,3,33,3,,,AFNE05.jpg,AFNE06.jpg,AFSA19.jpg,AFSA07.jpg,AFNE06.jpg,FN,3,num_6,32,num_4,0.733480723808,,,2018_Feb_09_1519,59.9960552049,MAFE4ImagesEEG,001,102949,
AFNE01.JPG,AFNE01.JPG,AFNE01.JPG,AFNE01.JPG,AFNE01.JPG,AFNE01.JPG,,,,,,,,,,,,,,,,,,,,,3,4,34,0,,,AFSA07.jpg,AFNE17.jpg,AFSA12.jpg,AFNE19.jpg,AFSA07.jpg,FS,4,num_8,32,num_6,0.683612499386,,,2018_Feb_09_1519,59.9960552049,MAFE4ImagesEEG,001,102949,
AFNE01.JPG,AFNE01.JPG,AFNE01.JPG,AFNE01.JPG,AFNE01.JPG,AFNE01.JPG,,,,,,,,,,,,,,,,,,,,,3,5,35,7,,,AFSA14.jpg,AFNE12.jpg,AFSA17.jpg,AFNE10.jpg,AFNE10.jpg,FN,3,num_4,32,num_2,0.833569664741,,,2018_Feb_09_1519,59.9960552049,MAFE4ImagesEEG,001,102949,
AFNE01.JPG,AFNE01.JPG,AFNE01.JPG,AFNE01.JPG,AFNE01.JPG,AFNE01.JPG,,,,,,,,,,,,,,,,,,,,,3,6,36,9,,,AFNE06.jpg,AFSA19.jpg,AFSA16.jpg,AFNE02.jpg,AFSA19.jpg,FS,4,num_6,32,num_2,0.900126595749,,,2018_Feb_09_1519,59.9960552049,MAFE4ImagesEEG,001,102949,
AFNE01.JPG,AFNE01.JPG,AFNE01.JPG,AFNE01.JPG,AFNE01.JPG,AFNE01.JPG,,,,,,,,,,,,,,,,,,,,,3,7,37,2,,,AFNE16.jpg,AFSA09.jpg,AFNE17.jpg,AFSA16.jpg,AFNE16.jpg,FN,3,num_8,32,num_6,0.633591603488,,,2018_Feb_09_1519,59.9960552049,MAFE4ImagesEEG,001,102949,
AFNE01.JPG,AFNE01.JPG,AFNE01.JPG,AFNE01.JPG,AFNE01.JPG,AFNE01.JPG,,,,,,,,,,,,,,,,,,,,,3,8,38,5,,,AFSA07.jpg,AFNE07.jpg,AFSA09.jpg,AFNE08.jpg,AFNE07.jpg,FN,3,num_6,32,num_8,0.783543315949,,,2018_Feb_09_1519,59.9960552049,MAFE4ImagesEEG,001,102949,
