IPosition2,IPosition3,IPosition1,IPosition6,IPosition4,IPosition5,TrialsM1.thisRepN,TrialsM1.thisTrialN,TrialsM1.thisN,TrialsM1.thisIndex,TrialsF1.thisRepN,TrialsF1.thisTrialN,TrialsF1.thisN,TrialsF1.thisIndex,TrialsM2.thisRepN,TrialsM2.thisTrialN,TrialsM2.thisN,TrialsM2.thisIndex,TrialsF2.thisRepN,TrialsF2.thisTrialN,TrialsF2.thisN,TrialsF2.thisIndex,TrialsM3.thisRepN,TrialsM3.thisTrialN,TrialsM3.thisN,TrialsM3.thisIndex,TrialsF3.thisRepN,TrialsF3.thisTrialN,TrialsF3.thisN,TrialsF3.thisIndex,InstrKey_resp.keys,InstrKey_resp.rt,Image0 _Position,Image1 _Position,Image2 _Position,Image3 _Position,Center_image,condition,code,correct_answer,accuracy,Key_Resp.keys,Key_Resp.rt,BreakKey_resp.keys,BreakKey_resp.rt,date,frameRate,expName,session,participant,
,,,,,,,,,,,,,,,,,,,,,,,,,,,,,,space,15.3993319641,,,,,,,,,,,,,,2018_Feb_08_1339,60.0099124555,MAFE4ImagesEEG,001,102953,
AMNE23.JPG,AMNE24.JPG,AMNE22.JPG,AMSA24.JPG,AMSA22.JPG,AMSA23.JPG,0,0,0,9,,,,,,,,,,,,,,,,,,,,,,,AMNE12.jpg,AMNE11.jpg,AMSA05.jpg,AMSA13.jpg,AMNE12.jpg,MN,1,num_8,32,num_4,3.98303930624,,,2018_Feb_08_1339,60.0099124555,MAFE4ImagesEEG,001,102953,
AFNE23.JPG,AFNE24.JPG,AFNE22.JPG,AFSA24.JPG,AFSA22.JPG,AFSA23.JPG,0,1,1,8,,,,,,,,,,,,,,,,,,,,,,,AMSA05.jpg,AMSA17.jpg,AMNE13.jpg,AMNE11.jpg,AMNE11.jpg,MN,1,num_4,32,num_2,1.83336054278,,,2018_Feb_08_1339,60.0099124555,MAFE4ImagesEEG,001,102953,
AFSA25.JPG,AFNE24.JPG,AFSA24.JPG,AFNE21.JPG,AFSA21.JPG,AFNE25.JPG,0,2,2,2,,,,,,,,,,,,,,,,,,,,,,,AMSA20.jpg,AMNE06.jpg,AMNE07.jpg,AMSA08.jpg,AMNE06.jpg,MN,1,num_6,32,num_4,1.61677299696,,,2018_Feb_08_1339,60.0099124555,MAFE4ImagesEEG,001,102953,
AFNE22.JPG,AFSA24.JPG,AFSA22.JPG,AFNE25.JPG,AFNE24.JPG,AFSA25.JPG,0,3,3,6,,,,,,,,,,,,,,,,,,,,,,,AMSA13.jpg,AMSA18.jpg,AMNE14.jpg,AMNE18.jpg,AMNE14.jpg,MN,1,num_2,32,num_8,1.33342003985,,,2018_Feb_08_1339,60.0099124555,MAFE4ImagesEEG,001,102953,
AMNE22.JPG,AMSA24.JPG,AMSA22.JPG,AMNE25.JPG,AMNE24.JPG,AMSA25.JPG,0,4,4,7,,,,,,,,,,,,,,,,,,,,,,,AMSA08.jpg,AMNE20.jpg,AMNE13.jpg,AMSA02.jpg,AMNE20.jpg,MN,1,num_6,16,num_6,2.26663634623,,,2018_Feb_08_1339,60.0099124555,MAFE4ImagesEEG,001,102953,
AMSA21.JPG,AMNE22.JPG,AMNE21.JPG,AMSA23.JPG,AMSA22.JPG,AMNE23.JPG,0,5,5,1,,,,,,,,,,,,,,,,,,,,,,,AMSA11.jpg,AMSA19.jpg,AMNE13.jpg,AMNE05.jpg,AMNE13.jpg,MN,1,num_2,16,num_2,1.3668962412,,,2018_Feb_08_1339,60.0099124555,MAFE4ImagesEEG,001,102953,
AMSA25.JPG,AMNE24.JPG,AMSA24.JPG,AMNE26.JPG,AMSA21.JPG,AMNE25.JPG,0,6,6,3,,,,,,,,,,,,,,,,,,,,,,,AMSA05.jpg,AMNE16.jpg,AMNE05.jpg,AMSA04.jpg,AMSA04.jpg,MS,2,num_4,16,num_4,0.550160577986,,,2018_Feb_08_1339,60.0099124555,MAFE4ImagesEEG,001,102953,
AMSA21.JPG,AMNE23.JPG,AMNE21.JPG,AMSA25.JPG,AMNE25.JPG,AMSA23.JPG,0,7,7,5,,,,,,,,,,,,,,,,,,,,,,,AMNE10.jpg,AMSA03.jpg,AMSA16.jpg,AMNE17.jpg,AMNE17.jpg,MN,1,num_4,32,num_8,1.35007410659,,,2018_Feb_08_1339,60.0099124555,MAFE4ImagesEEG,001,102953,
AFSA21.JPG,AFNE22.JPG,AFNE21.JPG,AFSA23.JPG,AFSA22.JPG,AFNE23.JPG,0,8,8,0,,,,,,,,,,,,,,,,,,,,,,,AMNE11.jpg,AMNE18.jpg,AMSA06.jpg,AMSA18.jpg,AMNE11.jpg,MN,1,num_8,32,num_2,1.03345182515,,,2018_Feb_08_1339,60.0099124555,MAFE4ImagesEEG,001,102953,
AFSA21.JPG,AFNE23.JPG,AFNE21.JPG,AFSA25.JPG,AFNE25.JPG,AFSA23.JPG,0,9,9,4,,,,,,,,,,,,,,,,,,,,,,,AMNE03.jpg,AMSA15.jpg,AMNE10.jpg,AMSA09.jpg,AMNE10.jpg,MN,1,num_2,32,num_8,1.20009673503,,,2018_Feb_08_1339,60.0099124555,MAFE4ImagesEEG,001,102953,
AFSA21.JPG,AFNE23.JPG,AFNE21.JPG,AFSA25.JPG,AFNE25.JPG,AFSA23.JPG,,,,,0,0,0,4,,,,,,,,,,,,,,,,,,,AFNE15.jpg,AFSA02.jpg,AFNE16.jpg,AFSA04.jpg,AFSA02.jpg,FS,4,num_6,32,num_4,1.01674708142,,,2018_Feb_08_1339,60.0099124555,MAFE4ImagesEEG,001,102953,
AMNE23.JPG,AMNE24.JPG,AMNE22.JPG,AMSA24.JPG,AMSA22.JPG,AMSA23.JPG,,,,,0,1,1,9,,,,,,,,,,,,,,,,,,,AFNE03.jpg,AFSA01.jpg,AFNE02.jpg,AFSA15.jpg,AFSA01.jpg,FS,4,num_6,16,num_6,0.650137901772,,,2018_Feb_08_1339,60.0099124555,MAFE4ImagesEEG,001,102953,
AMSA21.JPG,AMNE23.JPG,AMNE21.JPG,AMSA25.JPG,AMNE25.JPG,AMSA23.JPG,,,,,0,2,2,5,,,,,,,,,,,,,,,,,,,AFSA12.jpg,AFNE16.jpg,AFNE14.jpg,AFSA15.jpg,AFNE16.jpg,FN,3,num_6,16,num_6,0.816768057644,,,2018_Feb_08_1339,60.0099124555,MAFE4ImagesEEG,001,102953,
AMSA21.JPG,AMNE22.JPG,AMNE21.JPG,AMSA23.JPG,AMSA22.JPG,AMNE23.JPG,,,,,0,3,3,1,,,,,,,,,,,,,,,,,,,AFNE03.jpg,AFSA08.jpg,AFSA13.jpg,AFNE05.jpg,AFNE03.jpg,FN,3,num_8,32,num_2,1.60008012061,,,2018_Feb_08_1339,60.0099124555,MAFE4ImagesEEG,001,102953,
AFNE23.JPG,AFNE24.JPG,AFNE22.JPG,AFSA24.JPG,AFSA22.JPG,AFSA23.JPG,,,,,0,4,4,8,,,,,,,,,,,,,,,,,,,AFNE17.jpg,AFSA03.jpg,AFNE03.jpg,AFSA04.jpg,AFNE17.jpg,FN,3,num_8,16,num_8,1.91673223116,,,2018_Feb_08_1339,60.0099124555,MAFE4ImagesEEG,001,102953,
AFSA21.JPG,AFNE22.JPG,AFNE21.JPG,AFSA23.JPG,AFSA22.JPG,AFNE23.JPG,,,,,0,5,5,0,,,,,,,,,,,,,,,,,,,AFNE15.jpg,AFNE16.jpg,AFSA08.jpg,AFSA10.jpg,AFNE16.jpg,FN,3,num_6,32,num_4,1.25013495097,,,2018_Feb_08_1339,60.0099124555,MAFE4ImagesEEG,001,102953,
AMSA25.JPG,AMNE24.JPG,AMSA24.JPG,AMNE26.JPG,AMSA21.JPG,AMNE25.JPG,,,,,0,6,6,3,,,,,,,,,,,,,,,,,,,AFNE17.jpg,AFSA03.jpg,AFSA19.jpg,AFNE10.jpg,AFNE17.jpg,FN,3,num_8,32,num_2,1.63325707219,,,2018_Feb_08_1339,60.0099124555,MAFE4ImagesEEG,001,102953,
AMNE22.JPG,AMSA24.JPG,AMSA22.JPG,AMNE25.JPG,AMNE24.JPG,AMSA25.JPG,,,,,0,7,7,7,,,,,,,,,,,,,,,,,,,AFSA15.jpg,AFNE14.jpg,AFNE12.jpg,AFSA16.jpg,AFSA16.jpg,FS,4,num_4,16,num_4,0.600136250025,,,2018_Feb_08_1339,60.0099124555,MAFE4ImagesEEG,001,102953,
AFSA25.JPG,AFNE24.JPG,AFSA24.JPG,AFNE21.JPG,AFSA21.JPG,AFNE25.JPG,,,,,0,8,8,2,,,,,,,,,,,,,,,,,,,AFSA11.jpg,AFSA10.jpg,AFNE11.jpg,AFNE16.jpg,AFNE16.jpg,FN,3,num_4,32,num_2,1.16682452406,,,2018_Feb_08_1339,60.0099124555,MAFE4ImagesEEG,001,102953,
AFNE22.JPG,AFSA24.JPG,AFSA22.JPG,AFNE25.JPG,AFNE24.JPG,AFSA25.JPG,,,,,0,9,9,6,,,,,,,,,,,,,,,,,,,AFSA06.jpg,AFSA13.jpg,AFNE04.jpg,AFNE08.jpg,AFNE04.jpg,FN,3,num_2,32,num_8,1.16680752463,,,2018_Feb_08_1339,60.0099124555,MAFE4ImagesEEG,001,102953,
AFSA21.JPG,AFNE22.JPG,AFNE21.JPG,AFSA23.JPG,AFSA22.JPG,AFNE23.JPG,,,,,,,,,0,0,0,0,,,,,,,,,,,,,,,AMSA04.jpg,AMNE05.jpg,AMNE11.jpg,AMSA01.jpg,AMSA01.jpg,MS,2,num_4,16,num_4,0.550228575012,,,2018_Feb_08_1339,60.0099124555,MAFE4ImagesEEG,001,102953,
AMSA25.JPG,AMNE24.JPG,AMSA24.JPG,AMNE26.JPG,AMSA21.JPG,AMNE25.JPG,,,,,,,,,0,1,1,3,,,,,,,,,,,,,,,AMNE08.jpg,AMSA18.jpg,AMSA12.jpg,AMNE04.jpg,AMSA12.jpg,MS,2,num_2,32,num_4,1.23347029975,,,2018_Feb_08_1339,60.0099124555,MAFE4ImagesEEG,001,102953,
AMSA21.JPG,AMNE22.JPG,AMNE21.JPG,AMSA23.JPG,AMSA22.JPG,AMNE23.JPG,,,,,,,,,0,2,2,1,,,,,,,,,,,,,,,AMSA08.jpg,AMNE01.jpg,AMSA12.jpg,AMNE19.jpg,AMNE01.jpg,MN,1,num_6,16,num_6,1.28341742582,,,2018_Feb_08_1339,60.0099124555,MAFE4ImagesEEG,001,102953,
AMNE22.JPG,AMSA24.JPG,AMSA22.JPG,AMNE25.JPG,AMNE24.JPG,AMSA25.JPG,,,,,,,,,0,3,3,7,,,,,,,,,,,,,,,AMSA17.jpg,AMSA01.jpg,AMNE11.jpg,AMNE13.jpg,AMNE11.jpg,MN,1,num_2,16,num_2,2.45001550764,,,2018_Feb_08_1339,60.0099124555,MAFE4ImagesEEG,001,102953,
AMSA21.JPG,AMNE23.JPG,AMNE21.JPG,AMSA25.JPG,AMNE25.JPG,AMSA23.JPG,,,,,,,,,0,4,4,5,,,,,,,,,,,,,,,AMSA09.jpg,AMNE08.jpg,AMNE07.jpg,AMSA06.jpg,AMNE08.jpg,MN,1,num_6,16,num_6,0.866815895773,,,2018_Feb_08_1339,60.0099124555,MAFE4ImagesEEG,001,102953,
AFSA21.JPG,AFNE23.JPG,AFNE21.JPG,AFSA25.JPG,AFNE25.JPG,AFSA23.JPG,,,,,,,,,0,5,5,4,,,,,,,,,,,,,,,AMSA14.jpg,AMNE02.jpg,AMNE18.jpg,AMSA08.jpg,AMNE02.jpg,MN,1,num_6,16,num_6,1.25016445899,,,2018_Feb_08_1339,60.0099124555,MAFE4ImagesEEG,001,102953,
AMNE23.JPG,AMNE24.JPG,AMNE22.JPG,AMSA24.JPG,AMSA22.JPG,AMSA23.JPG,,,,,,,,,0,6,6,9,,,,,,,,,,,,,,,AMNE16.jpg,AMNE14.jpg,AMSA04.jpg,AMSA20.jpg,AMNE14.jpg,MN,1,num_6,16,num_6,0.64983768994,,,2018_Feb_08_1339,60.0099124555,MAFE4ImagesEEG,001,102953,
AFNE22.JPG,AFSA24.JPG,AFSA22.JPG,AFNE25.JPG,AFNE24.JPG,AFSA25.JPG,,,,,,,,,0,7,7,6,,,,,,,,,,,,,,,AMSA12.jpg,AMNE16.jpg,AMSA11.jpg,AMNE01.jpg,AMNE01.jpg,MN,1,num_4,16,num_4,0.533502983162,,,2018_Feb_08_1339,60.0099124555,MAFE4ImagesEEG,001,102953,
AFNE23.JPG,AFNE24.JPG,AFNE22.JPG,AFSA24.JPG,AFSA22.JPG,AFSA23.JPG,,,,,,,,,0,8,8,8,,,,,,,,,,,,,,,AMSA06.jpg,AMNE08.jpg,AMNE02.jpg,AMSA14.jpg,AMNE08.jpg,MN,1,num_6,16,num_6,0.566813682904,,,2018_Feb_08_1339,60.0099124555,MAFE4ImagesEEG,001,102953,
AFSA25.JPG,AFNE24.JPG,AFSA24.JPG,AFNE21.JPG,AFSA21.JPG,AFNE25.JPG,,,,,,,,,0,9,9,2,,,,,,,,,,,,,,,AMNE09.jpg,AMSA19.jpg,AMSA08.jpg,AMNE07.jpg,AMSA08.jpg,MS,2,num_2,16,num_2,1.48373899888,,,2018_Feb_08_1339,60.0099124555,MAFE4ImagesEEG,001,102953,
AFSA21.JPG,AFNE23.JPG,AFNE21.JPG,AFSA25.JPG,AFNE25.JPG,AFSA23.JPG,,,,,,,,,,,,,0,0,0,4,,,,,,,,,,,AFSA04.jpg,AFNE07.jpg,AFNE19.jpg,AFSA17.jpg,AFSA04.jpg,FS,4,num_8,32,num_4,1.20009962143,,,2018_Feb_08_1339,60.0099124555,MAFE4ImagesEEG,001,102953,
AMNE23.JPG,AMNE24.JPG,AMNE22.JPG,AMSA24.JPG,AMSA22.JPG,AMSA23.JPG,,,,,,,,,,,,,0,1,1,9,,,,,,,,,,,AFNE13.jpg,AFSA13.jpg,AFNE01.jpg,AFSA09.jpg,AFSA13.jpg,FS,4,num_6,16,num_6,0.566798287444,,,2018_Feb_08_1339,60.0099124555,MAFE4ImagesEEG,001,102953,
AFNE22.JPG,AFSA24.JPG,AFSA22.JPG,AFNE25.JPG,AFNE24.JPG,AFSA25.JPG,,,,,,,,,,,,,0,2,2,6,,,,,,,,,,,AFSA02.jpg,AFNE17.jpg,AFNE18.jpg,AFSA08.jpg,AFNE18.jpg,FN,3,num_2,32,num_8,1.91665429156,,,2018_Feb_08_1339,60.0099124555,MAFE4ImagesEEG,001,102953,
AFSA21.JPG,AFNE22.JPG,AFNE21.JPG,AFSA23.JPG,AFSA22.JPG,AFNE23.JPG,,,,,,,,,,,,,0,3,3,0,,,,,,,,,,,AFNE02.jpg,AFSA10.jpg,AFSA19.jpg,AFNE18.jpg,AFSA19.jpg,FS,4,num_2,32,num_4,1.08340215869,,,2018_Feb_08_1339,60.0099124555,MAFE4ImagesEEG,001,102953,
AMSA25.JPG,AMNE24.JPG,AMSA24.JPG,AMNE26.JPG,AMSA21.JPG,AMNE25.JPG,,,,,,,,,,,,,0,4,4,3,,,,,,,,,,,AFSA11.jpg,AFSA18.jpg,AFNE20.jpg,AFNE06.jpg,AFNE06.jpg,FN,3,num_4,16,num_4,0.800156328129,,,2018_Feb_08_1339,60.0099124555,MAFE4ImagesEEG,001,102953,
AFNE23.JPG,AFNE24.JPG,AFNE22.JPG,AFSA24.JPG,AFSA22.JPG,AFSA23.JPG,,,,,,,,,,,,,0,5,5,8,,,,,,,,,,,AFNE19.jpg,AFSA18.jpg,AFSA02.jpg,AFNE20.jpg,AFSA18.jpg,FS,4,num_6,32,num_8,2.38336363784,,,2018_Feb_08_1339,60.0099124555,MAFE4ImagesEEG,001,102953,
AFSA25.JPG,AFNE24.JPG,AFSA24.JPG,AFNE21.JPG,AFSA21.JPG,AFNE25.JPG,,,,,,,,,,,,,0,6,6,2,,,,,,,,,,,AFSA03.jpg,AFNE10.jpg,AFNE15.jpg,AFSA01.jpg,AFNE15.jpg,FN,3,num_2,16,num_2,1.56671008398,,,2018_Feb_08_1339,60.0099124555,MAFE4ImagesEEG,001,102953,
AMSA21.JPG,AMNE23.JPG,AMNE21.JPG,AMSA25.JPG,AMNE25.JPG,AMSA23.JPG,,,,,,,,,,,,,0,7,7,5,,,,,,,,,,,AFSA16.jpg,AFNE13.jpg,AFSA03.jpg,AFNE03.jpg,AFNE03.jpg,FN,3,num_4,16,num_4,1.11674364936,,,2018_Feb_08_1339,60.0099124555,MAFE4ImagesEEG,001,102953,
AMNE22.JPG,AMSA24.JPG,AMSA22.JPG,AMNE25.JPG,AMNE24.JPG,AMSA25.JPG,,,,,,,,,,,,,0,8,8,7,,,,,,,,,,,AFNE17.jpg,AFSA20.jpg,AFSA05.jpg,AFNE08.jpg,AFSA20.jpg,FS,4,num_6,16,num_6,0.850110831438,,,2018_Feb_08_1339,60.0099124555,MAFE4ImagesEEG,001,102953,
AMSA21.JPG,AMNE22.JPG,AMNE21.JPG,AMSA23.JPG,AMSA22.JPG,AMNE23.JPG,,,,,,,,,,,,,0,9,9,1,,,,,,,,,,,AFSA08.jpg,AFNE06.jpg,AFSA16.jpg,AFNE19.jpg,AFNE06.jpg,FN,3,num_6,16,num_6,0.616880124202,,,2018_Feb_08_1339,60.0099124555,MAFE4ImagesEEG,001,102953,
AFSA25.JPG,AFNE24.JPG,AFSA24.JPG,AFNE21.JPG,AFSA21.JPG,AFNE25.JPG,,,,,,,,,,,,,,,,,0,0,0,2,,,,,,,AMSA14.jpg,AMNE10.jpg,AMNE18.jpg,AMSA02.jpg,AMSA02.jpg,MS,2,num_4,32,num_8,1.10019863397,,,2018_Feb_08_1339,60.0099124555,MAFE4ImagesEEG,001,102953,
AFNE23.JPG,AFNE24.JPG,AFNE22.JPG,AFSA24.JPG,AFSA22.JPG,AFSA23.JPG,,,,,,,,,,,,,,,,,0,1,1,8,,,,,,,AMNE12.jpg,AMSA15.jpg,AMNE05.jpg,AMSA13.jpg,AMSA15.jpg,MS,2,num_6,16,num_6,0.616806674749,,,2018_Feb_08_1339,60.0099124555,MAFE4ImagesEEG,001,102953,
AMNE22.JPG,AMSA24.JPG,AMSA22.JPG,AMNE25.JPG,AMNE24.JPG,AMSA25.JPG,,,,,,,,,,,,,,,,,0,2,2,7,,,,,,,AMNE04.jpg,AMSA02.jpg,AMSA10.jpg,AMNE10.jpg,AMNE04.jpg,MN,1,num_8,16,num_8,1.03343867487,,,2018_Feb_08_1339,60.0099124555,MAFE4ImagesEEG,001,102953,
AFSA21.JPG,AFNE23.JPG,AFNE21.JPG,AFSA25.JPG,AFNE25.JPG,AFSA23.JPG,,,,,,,,,,,,,,,,,0,3,3,4,,,,,,,AMSA20.jpg,AMNE12.jpg,AMSA14.jpg,AMNE01.jpg,AMNE01.jpg,MN,1,num_4,16,num_4,0.58348186221,,,2018_Feb_08_1339,60.0099124555,MAFE4ImagesEEG,001,102953,
AFSA21.JPG,AFNE22.JPG,AFNE21.JPG,AFSA23.JPG,AFSA22.JPG,AFNE23.JPG,,,,,,,,,,,,,,,,,0,4,4,0,,,,,,,AMSA10.jpg,AMNE10.jpg,AMNE16.jpg,AMSA13.jpg,AMSA13.jpg,MS,2,num_4,32,num_6,2.49999599066,,,2018_Feb_08_1339,60.0099124555,MAFE4ImagesEEG,001,102953,
AMSA25.JPG,AMNE24.JPG,AMSA24.JPG,AMNE26.JPG,AMSA21.JPG,AMNE25.JPG,,,,,,,,,,,,,,,,,0,5,5,3,,,,,,,AMSA05.jpg,AMNE11.jpg,AMSA09.jpg,AMNE04.jpg,AMSA05.jpg,MS,2,num_8,32,num_6,1.33347552782,,,2018_Feb_08_1339,60.0099124555,MAFE4ImagesEEG,001,102953,
AFNE22.JPG,AFSA24.JPG,AFSA22.JPG,AFNE25.JPG,AFNE24.JPG,AFSA25.JPG,,,,,,,,,,,,,,,,,0,6,6,6,,,,,,,AMSA17.jpg,AMSA09.jpg,AMNE11.jpg,AMNE08.jpg,AMSA17.jpg,MS,2,num_8,16,num_8,1.21677293279,,,2018_Feb_08_1339,60.0099124555,MAFE4ImagesEEG,001,102953,
AMSA21.JPG,AMNE23.JPG,AMNE21.JPG,AMSA25.JPG,AMNE25.JPG,AMSA23.JPG,,,,,,,,,,,,,,,,,0,7,7,5,,,,,,,AMNE13.jpg,AMSA06.jpg,AMNE18.jpg,AMSA20.jpg,AMSA20.jpg,MS,2,num_4,16,num_4,1.2834623293,,,2018_Feb_08_1339,60.0099124555,MAFE4ImagesEEG,001,102953,
AMSA21.JPG,AMNE22.JPG,AMNE21.JPG,AMSA23.JPG,AMSA22.JPG,AMNE23.JPG,,,,,,,,,,,,,,,,,0,8,8,1,,,,,,,AMNE03.jpg,AMNE02.jpg,AMSA06.jpg,AMSA10.jpg,AMNE02.jpg,MN,1,num_6,16,num_6,1.48341344879,,,2018_Feb_08_1339,60.0099124555,MAFE4ImagesEEG,001,102953,
AMNE23.JPG,AMNE24.JPG,AMNE22.JPG,AMSA24.JPG,AMSA22.JPG,AMSA23.JPG,,,,,,,,,,,,,,,,,0,9,9,9,,,,,,,AMNE08.jpg,AMNE11.jpg,AMSA13.jpg,AMSA03.jpg,AMSA03.jpg,MS,2,num_4,16,num_4,0.583495012717,,,2018_Feb_08_1339,60.0099124555,MAFE4ImagesEEG,001,102953,
AFSA25.JPG,AFNE24.JPG,AFSA24.JPG,AFNE21.JPG,AFSA21.JPG,AFNE25.JPG,,,,,,,,,,,,,,,,,,,,,0,0,0,2,,,AFNE10.jpg,AFNE14.jpg,AFSA02.jpg,AFSA01.jpg,AFNE10.jpg,FN,3,num_8,16,num_8,1.11704931408,,,2018_Feb_08_1339,60.0099124555,MAFE4ImagesEEG,001,102953,
AMSA21.JPG,AMNE22.JPG,AMNE21.JPG,AMSA23.JPG,AMSA22.JPG,AMNE23.JPG,,,,,,,,,,,,,,,,,,,,,0,1,1,1,,,AFNE15.jpg,AFSA13.jpg,AFSA05.jpg,AFNE12.jpg,AFSA13.jpg,FS,4,num_6,16,num_6,0.700138591463,,,2018_Feb_08_1339,60.0099124555,MAFE4ImagesEEG,001,102953,
AMSA25.JPG,AMNE24.JPG,AMSA24.JPG,AMNE26.JPG,AMSA21.JPG,AMNE25.JPG,,,,,,,,,,,,,,,,,,,,,0,2,2,3,,,AFSA20.jpg,AFSA04.jpg,AFNE08.jpg,AFNE02.jpg,AFSA04.jpg,FS,4,num_6,16,num_6,0.550142937573,,,2018_Feb_08_1339,60.0099124555,MAFE4ImagesEEG,001,102953,
AFNE22.JPG,AFSA24.JPG,AFSA22.JPG,AFNE25.JPG,AFNE24.JPG,AFSA25.JPG,,,,,,,,,,,,,,,,,,,,,0,3,3,6,,,AFNE20.jpg,AFSA11.jpg,AFSA19.jpg,AFNE13.jpg,AFSA19.jpg,FS,4,num_2,32,num_4,1.46673949598,,,2018_Feb_08_1339,60.0099124555,MAFE4ImagesEEG,001,102953,
AMNE23.JPG,AMNE24.JPG,AMNE22.JPG,AMSA24.JPG,AMSA22.JPG,AMSA23.JPG,,,,,,,,,,,,,,,,,,,,,0,4,4,9,,,AFNE19.jpg,AFSA01.jpg,AFNE18.jpg,AFSA13.jpg,AFNE19.jpg,FN,3,num_8,32,num_4,1.16674016928,,,2018_Feb_08_1339,60.0099124555,MAFE4ImagesEEG,001,102953,
AMNE22.JPG,AMSA24.JPG,AMSA22.JPG,AMNE25.JPG,AMNE24.JPG,AMSA25.JPG,,,,,,,,,,,,,,,,,,,,,0,5,5,7,,,AFNE09.jpg,AFSA16.jpg,AFSA01.jpg,AFNE05.jpg,AFNE05.jpg,FN,3,num_4,32,num_8,1.43346568104,,,2018_Feb_08_1339,60.0099124555,MAFE4ImagesEEG,001,102953,
AFSA21.JPG,AFNE22.JPG,AFNE21.JPG,AFSA23.JPG,AFSA22.JPG,AFNE23.JPG,,,,,,,,,,,,,,,,,,,,,0,6,6,0,,,AFSA12.jpg,AFNE10.jpg,AFNE02.jpg,AFSA20.jpg,AFNE02.jpg,FN,3,num_2,32,num_4,0.966809898149,,,2018_Feb_08_1339,60.0099124555,MAFE4ImagesEEG,001,102953,
AFNE23.JPG,AFNE24.JPG,AFNE22.JPG,AFSA24.JPG,AFSA22.JPG,AFSA23.JPG,,,,,,,,,,,,,,,,,,,,,0,7,7,8,,,AFSA01.jpg,AFNE19.jpg,AFSA18.jpg,AFNE12.jpg,AFNE12.jpg,FN,3,num_4,16,num_4,0.633581981296,,,2018_Feb_08_1339,60.0099124555,MAFE4ImagesEEG,001,102953,
AMSA21.JPG,AMNE23.JPG,AMNE21.JPG,AMSA25.JPG,AMNE25.JPG,AMSA23.JPG,,,,,,,,,,,,,,,,,,,,,0,8,8,5,,,AFSA04.jpg,AFNE03.jpg,AFSA20.jpg,AFNE06.jpg,AFNE03.jpg,FN,3,num_6,16,num_6,0.900105106412,,,2018_Feb_08_1339,60.0099124555,MAFE4ImagesEEG,001,102953,
AFSA21.JPG,AFNE23.JPG,AFNE21.JPG,AFSA25.JPG,AFNE25.JPG,AFSA23.JPG,,,,,,,,,,,,,,,,,,,,,0,9,9,4,,,AFNE03.jpg,AFSA19.jpg,AFNE10.jpg,AFSA12.jpg,AFNE03.jpg,FN,3,num_8,16,num_8,3.96648242325,,,2018_Feb_08_1339,60.0099124555,MAFE4ImagesEEG,001,102953,
,,,,,,,,,,,,,,,,,,,,,,,,,,,,,,,,,,,,,,,,,,,space,11.0662410029,2018_Feb_08_1339,60.0099124555,MAFE4ImagesEEG,001,102953,
AFNE01.JPG,AFNE01.JPG,AFNE01.JPG,AFNE01.JPG,AFNE01.JPG,AFNE01.JPG,0,0,0,8,,,,,,,,,,,,,,,,,,,,,,,AMNE06.jpg,AMSA09.jpg,AMNE18.jpg,AMSA06.jpg,AMNE18.jpg,MN,1,num_2,16,num_2,2.46670164843,,,2018_Feb_08_1339,60.0099124555,MAFE4ImagesEEG,001,102953,
AFNE01.JPG,AFNE01.JPG,AFNE01.JPG,AFNE01.JPG,AFNE01.JPG,AFNE01.JPG,0,1,1,5,,,,,,,,,,,,,,,,,,,,,,,AMNE11.jpg,AMSA04.jpg,AMNE09.jpg,AMSA16.jpg,AMSA16.jpg,MS,2,num_4,16,num_4,0.816761963768,,,2018_Feb_08_1339,60.0099124555,MAFE4ImagesEEG,001,102953,
AFNE01.JPG,AFNE01.JPG,AFNE01.JPG,AFNE01.JPG,AFNE01.JPG,AFNE01.JPG,0,2,2,0,,,,,,,,,,,,,,,,,,,,,,,AMNE11.jpg,AMSA20.jpg,AMSA04.jpg,AMNE09.jpg,AMNE11.jpg,MN,1,num_8,32,num_2,0.68350024079,,,2018_Feb_08_1339,60.0099124555,MAFE4ImagesEEG,001,102953,
AFNE01.JPG,AFNE01.JPG,AFNE01.JPG,AFNE01.JPG,AFNE01.JPG,AFNE01.JPG,0,3,3,6,,,,,,,,,,,,,,,,,,,,,,,AMSA14.jpg,AMNE06.jpg,AMNE01.jpg,AMSA01.jpg,AMNE06.jpg,MN,1,num_6,16,num_6,0.61676914827,,,2018_Feb_08_1339,60.0099124555,MAFE4ImagesEEG,001,102953,
AFNE01.JPG,AFNE01.JPG,AFNE01.JPG,AFNE01.JPG,AFNE01.JPG,AFNE01.JPG,0,4,4,9,,,,,,,,,,,,,,,,,,,,,,,AMNE03.jpg,AMSA14.jpg,AMNE05.jpg,AMSA06.jpg,AMNE03.jpg,MN,1,num_8,32,num_6,0.500165982638,,,2018_Feb_08_1339,60.0099124555,MAFE4ImagesEEG,001,102953,
AFNE01.JPG,AFNE01.JPG,AFNE01.JPG,AFNE01.JPG,AFNE01.JPG,AFNE01.JPG,0,5,5,4,,,,,,,,,,,,,,,,,,,,,,,AMNE13.jpg,AMSA11.jpg,AMNE08.jpg,AMSA02.jpg,AMNE13.jpg,MN,1,num_8,32,num_4,1.19995336444,,,2018_Feb_08_1339,60.0099124555,MAFE4ImagesEEG,001,102953,
AFNE01.JPG,AFNE01.JPG,AFNE01.JPG,AFNE01.JPG,AFNE01.JPG,AFNE01.JPG,0,6,6,3,,,,,,,,,,,,,,,,,,,,,,,AMNE17.jpg,AMSA02.jpg,AMSA06.jpg,AMNE12.jpg,AMSA02.jpg,MS,2,num_6,16,num_6,0.48347663437,,,2018_Feb_08_1339,60.0099124555,MAFE4ImagesEEG,001,102953,
AFNE01.JPG,AFNE01.JPG,AFNE01.JPG,AFNE01.JPG,AFNE01.JPG,AFNE01.JPG,0,7,7,2,,,,,,,,,,,,,,,,,,,,,,,AMSA15.jpg,AMNE10.jpg,AMSA03.jpg,AMNE18.jpg,AMSA15.jpg,MS,2,num_8,32,num_2,0.983450494241,,,2018_Feb_08_1339,60.0099124555,MAFE4ImagesEEG,001,102953,
AFNE01.JPG,AFNE01.JPG,AFNE01.JPG,AFNE01.JPG,AFNE01.JPG,AFNE01.JPG,0,8,8,7,,,,,,,,,,,,,,,,,,,,,,,AMNE01.jpg,AMSA16.jpg,AMNE11.jpg,AMSA01.jpg,AMSA01.jpg,MS,2,num_4,16,num_4,0.916809529299,,,2018_Feb_08_1339,60.0099124555,MAFE4ImagesEEG,001,102953,
AFNE01.JPG,AFNE01.JPG,AFNE01.JPG,AFNE01.JPG,AFNE01.JPG,AFNE01.JPG,0,9,9,1,,,,,,,,,,,,,,,,,,,,,,,AMSA05.jpg,AMNE03.jpg,AMSA01.jpg,AMNE04.jpg,AMNE04.jpg,MN,1,num_4,32,num_2,2.00036852947,,,2018_Feb_08_1339,60.0099124555,MAFE4ImagesEEG,001,102953,
AFNE01.JPG,AFNE01.JPG,AFNE01.JPG,AFNE01.JPG,AFNE01.JPG,AFNE01.JPG,1,0,10,2,,,,,,,,,,,,,,,,,,,,,,,AMNE05.jpg,AMSA17.jpg,AMNE06.jpg,AMSA07.jpg,AMNE06.jpg,MN,1,num_2,16,num_2,2.41665605549,,,2018_Feb_08_1339,60.0099124555,MAFE4ImagesEEG,001,102953,
AFNE01.JPG,AFNE01.JPG,AFNE01.JPG,AFNE01.JPG,AFNE01.JPG,AFNE01.JPG,1,1,11,9,,,,,,,,,,,,,,,,,,,,,,,AMSA12.jpg,AMSA03.jpg,AMNE03.jpg,AMNE09.jpg,AMSA03.jpg,MS,2,num_6,16,num_6,0.616793524474,,,2018_Feb_08_1339,60.0099124555,MAFE4ImagesEEG,001,102953,
AFNE01.JPG,AFNE01.JPG,AFNE01.JPG,AFNE01.JPG,AFNE01.JPG,AFNE01.JPG,1,2,12,8,,,,,,,,,,,,,,,,,,,,,,,AMNE07.jpg,AMSA13.jpg,AMNE08.jpg,AMSA12.jpg,AMSA13.jpg,MS,2,num_6,16,num_6,1.05010525067,,,2018_Feb_08_1339,60.0099124555,MAFE4ImagesEEG,001,102953,
AFNE01.JPG,AFNE01.JPG,AFNE01.JPG,AFNE01.JPG,AFNE01.JPG,AFNE01.JPG,1,3,13,7,,,,,,,,,,,,,,,,,,,,,,,AMNE15.jpg,AMSA10.jpg,AMNE07.jpg,AMSA03.jpg,AMNE15.jpg,MN,1,num_8,32,num_6,1.30011383025,,,2018_Feb_08_1339,60.0099124555,MAFE4ImagesEEG,001,102953,
AFNE01.JPG,AFNE01.JPG,AFNE01.JPG,AFNE01.JPG,AFNE01.JPG,AFNE01.JPG,1,4,14,0,,,,,,,,,,,,,,,,,,,,,,,AMSA11.jpg,AMNE05.jpg,AMSA18.jpg,AMNE15.jpg,AMSA18.jpg,MS,2,num_2,16,num_2,1.03344893851,,,2018_Feb_08_1339,60.0099124555,MAFE4ImagesEEG,001,102953,
AFNE01.JPG,AFNE01.JPG,AFNE01.JPG,AFNE01.JPG,AFNE01.JPG,AFNE01.JPG,1,5,15,3,,,,,,,,,,,,,,,,,,,,,,,AMNE19.jpg,AMNE13.jpg,AMSA02.jpg,AMSA18.jpg,AMNE19.jpg,MN,1,num_8,16,num_8,1.63342193211,,,2018_Feb_08_1339,60.0099124555,MAFE4ImagesEEG,001,102953,
AFNE01.JPG,AFNE01.JPG,AFNE01.JPG,AFNE01.JPG,AFNE01.JPG,AFNE01.JPG,1,6,16,1,,,,,,,,,,,,,,,,,,,,,,,AMNE12.jpg,AMNE05.jpg,AMSA01.jpg,AMSA04.jpg,AMNE05.jpg,MN,1,num_6,16,num_6,0.7001401952,,,2018_Feb_08_1339,60.0099124555,MAFE4ImagesEEG,001,102953,
AFNE01.JPG,AFNE01.JPG,AFNE01.JPG,AFNE01.JPG,AFNE01.JPG,AFNE01.JPG,1,7,17,5,,,,,,,,,,,,,,,,,,,,,,,AMSA01.jpg,AMSA06.jpg,AMNE09.jpg,AMNE17.jpg,AMNE17.jpg,MN,1,num_4,16,num_4,0.866804349469,,,2018_Feb_08_1339,60.0099124555,MAFE4ImagesEEG,001,102953,
AFNE01.JPG,AFNE01.JPG,AFNE01.JPG,AFNE01.JPG,AFNE01.JPG,AFNE01.JPG,1,8,18,6,,,,,,,,,,,,,,,,,,,,,,,AMSA19.jpg,AMNE14.jpg,AMNE07.jpg,AMSA17.jpg,AMNE14.jpg,MN,1,num_6,16,num_6,0.633481269004,,,2018_Feb_08_1339,60.0099124555,MAFE4ImagesEEG,001,102953,
AFNE01.JPG,AFNE01.JPG,AFNE01.JPG,AFNE01.JPG,AFNE01.JPG,AFNE01.JPG,1,9,19,4,,,,,,,,,,,,,,,,,,,,,,,AMSA18.jpg,AMNE08.jpg,AMSA09.jpg,AMNE07.jpg,AMNE07.jpg,MN,1,num_4,16,num_4,2.05000325548,,,2018_Feb_08_1339,60.0099124555,MAFE4ImagesEEG,001,102953,
AFNE01.JPG,AFNE01.JPG,AFNE01.JPG,AFNE01.JPG,AFNE01.JPG,AFNE01.JPG,2,0,20,2,,,,,,,,,,,,,,,,,,,,,,,AMSA12.jpg,AMSA10.jpg,AMNE03.jpg,AMNE15.jpg,AMSA12.jpg,MS,2,num_8,32,num_6,1.90031519043,,,2018_Feb_08_1339,60.0099124555,MAFE4ImagesEEG,001,102953,
AFNE01.JPG,AFNE01.JPG,AFNE01.JPG,AFNE01.JPG,AFNE01.JPG,AFNE01.JPG,2,1,21,5,,,,,,,,,,,,,,,,,,,,,,,AMSA09.jpg,AMSA14.jpg,AMNE16.jpg,AMNE06.jpg,AMNE06.jpg,MN,1,num_4,16,num_4,0.766767368186,,,2018_Feb_08_1339,60.0099124555,MAFE4ImagesEEG,001,102953,
AFNE01.JPG,AFNE01.JPG,AFNE01.JPG,AFNE01.JPG,AFNE01.JPG,AFNE01.JPG,2,2,22,9,,,,,,,,,,,,,,,,,,,,,,,AMNE04.jpg,AMSA19.jpg,AMNE14.jpg,AMSA10.jpg,AMNE04.jpg,MN,1,num_8,32,num_6,2.2833439766,,,2018_Feb_08_1339,60.0099124555,MAFE4ImagesEEG,001,102953,
AFNE01.JPG,AFNE01.JPG,AFNE01.JPG,AFNE01.JPG,AFNE01.JPG,AFNE01.JPG,2,3,23,1,,,,,,,,,,,,,,,,,,,,,,,AMNE11.jpg,AMSA14.jpg,AMSA05.jpg,AMNE03.jpg,AMNE11.jpg,MN,1,num_8,32,num_2,2.41666054586,,,2018_Feb_08_1339,60.0099124555,MAFE4ImagesEEG,001,102953,
AFNE01.JPG,AFNE01.JPG,AFNE01.JPG,AFNE01.JPG,AFNE01.JPG,AFNE01.JPG,2,4,24,0,,,,,,,,,,,,,,,,,,,,,,,AMNE07.jpg,AMNE20.jpg,AMSA18.jpg,AMSA09.jpg,AMNE20.jpg,MN,1,num_6,16,num_6,0.916772644268,,,2018_Feb_08_1339,60.0099124555,MAFE4ImagesEEG,001,102953,
AFNE01.JPG,AFNE01.JPG,AFNE01.JPG,AFNE01.JPG,AFNE01.JPG,AFNE01.JPG,2,5,25,8,,,,,,,,,,,,,,,,,,,,,,,AMSA05.jpg,AMNE11.jpg,AMSA02.jpg,AMNE16.jpg,AMSA02.jpg,MS,2,num_2,16,num_2,1.06668426469,,,2018_Feb_08_1339,60.0099124555,MAFE4ImagesEEG,001,102953,
AFNE01.JPG,AFNE01.JPG,AFNE01.JPG,AFNE01.JPG,AFNE01.JPG,AFNE01.JPG,2,6,26,4,,,,,,,,,,,,,,,,,,,,,,,AMNE01.jpg,AMSA14.jpg,AMSA19.jpg,AMNE12.jpg,AMSA14.jpg,MS,2,num_6,16,num_6,0.566683462821,,,2018_Feb_08_1339,60.0099124555,MAFE4ImagesEEG,001,102953,
AFNE01.JPG,AFNE01.JPG,AFNE01.JPG,AFNE01.JPG,AFNE01.JPG,AFNE01.JPG,2,7,27,7,,,,,,,,,,,,,,,,,,,,,,,AMSA05.jpg,AMSA07.jpg,AMNE13.jpg,AMNE11.jpg,AMNE11.jpg,MN,1,num_4,16,num_4,1.56641147588,,,2018_Feb_08_1339,60.0099124555,MAFE4ImagesEEG,001,102953,
AFNE01.JPG,AFNE01.JPG,AFNE01.JPG,AFNE01.JPG,AFNE01.JPG,AFNE01.JPG,2,8,28,3,,,,,,,,,,,,,,,,,,,,,,,AMNE18.jpg,AMSA07.jpg,AMNE06.jpg,AMSA11.jpg,AMSA11.jpg,MS,2,num_4,32,num_2,0.983353951713,,,2018_Feb_08_1339,60.0099124555,MAFE4ImagesEEG,001,102953,
AFNE01.JPG,AFNE01.JPG,AFNE01.JPG,AFNE01.JPG,AFNE01.JPG,AFNE01.JPG,2,9,29,6,,,,,,,,,,,,,,,,,,,,,,,AMSA02.jpg,AMNE15.jpg,AMNE02.jpg,AMSA07.jpg,AMNE02.jpg,MN,1,num_2,32,num_4,1.31676789722,,,2018_Feb_08_1339,60.0099124555,MAFE4ImagesEEG,001,102953,
AFNE01.JPG,AFNE01.JPG,AFNE01.JPG,AFNE01.JPG,AFNE01.JPG,AFNE01.JPG,3,0,30,0,,,,,,,,,,,,,,,,,,,,,,,AMSA13.jpg,AMNE09.jpg,AMNE14.jpg,AMSA08.jpg,AMNE09.jpg,MN,1,num_6,16,num_6,0.850091266213,,,2018_Feb_08_1339,60.0099124555,MAFE4ImagesEEG,001,102953,
AFNE01.JPG,AFNE01.JPG,AFNE01.JPG,AFNE01.JPG,AFNE01.JPG,AFNE01.JPG,3,1,31,1,,,,,,,,,,,,,,,,,,,,,,,AMSA10.jpg,AMNE08.jpg,AMNE17.jpg,AMSA20.jpg,AMNE08.jpg,MN,1,num_6,32,num_4,1.05027780822,,,2018_Feb_08_1339,60.0099124555,MAFE4ImagesEEG,001,102953,
AFNE01.JPG,AFNE01.JPG,AFNE01.JPG,AFNE01.JPG,AFNE01.JPG,AFNE01.JPG,3,2,32,6,,,,,,,,,,,,,,,,,,,,,,,AMNE19.jpg,AMNE10.jpg,AMSA04.jpg,AMSA17.jpg,AMSA04.jpg,MS,2,num_2,16,num_2,0.583482824499,,,2018_Feb_08_1339,60.0099124555,MAFE4ImagesEEG,001,102953,
AFNE01.JPG,AFNE01.JPG,AFNE01.JPG,AFNE01.JPG,AFNE01.JPG,AFNE01.JPG,3,3,33,2,,,,,,,,,,,,,,,,,,,,,,,AMNE08.jpg,AMSA01.jpg,AMSA08.jpg,AMNE03.jpg,AMNE03.jpg,MN,1,num_4,32,num_6,1.31674736994,,,2018_Feb_08_1339,60.0099124555,MAFE4ImagesEEG,001,102953,
AFNE01.JPG,AFNE01.JPG,AFNE01.JPG,AFNE01.JPG,AFNE01.JPG,AFNE01.JPG,3,4,34,8,,,,,,,,,,,,,,,,,,,,,,,AMSA19.jpg,AMNE13.jpg,AMNE02.jpg,AMSA14.jpg,AMNE02.jpg,MN,1,num_2,16,num_2,1.1667510746,,,2018_Feb_08_1339,60.0099124555,MAFE4ImagesEEG,001,102953,
AFNE01.JPG,AFNE01.JPG,AFNE01.JPG,AFNE01.JPG,AFNE01.JPG,AFNE01.JPG,3,5,35,5,,,,,,,,,,,,,,,,,,,,,,,AMSA12.jpg,AMSA03.jpg,AMNE08.jpg,AMNE07.jpg,AMNE08.jpg,MN,1,num_2,32,num_8,1.55013523973,,,2018_Feb_08_1339,60.0099124555,MAFE4ImagesEEG,001,102953,
AFNE01.JPG,AFNE01.JPG,AFNE01.JPG,AFNE01.JPG,AFNE01.JPG,AFNE01.JPG,3,6,36,7,,,,,,,,,,,,,,,,,,,,,,,AMSA10.jpg,AMSA09.jpg,AMNE19.jpg,AMNE03.jpg,AMNE19.jpg,MN,1,num_2,32,num_4,0.933453653473,,,2018_Feb_08_1339,60.0099124555,MAFE4ImagesEEG,001,102953,
AFNE01.JPG,AFNE01.JPG,AFNE01.JPG,AFNE01.JPG,AFNE01.JPG,AFNE01.JPG,3,7,37,4,,,,,,,,,,,,,,,,,,,,,,,AMNE20.jpg,AMNE18.jpg,AMSA05.jpg,AMSA03.jpg,AMNE20.jpg,MN,1,num_8,32,num_2,2.11669874587,,,2018_Feb_08_1339,60.0099124555,MAFE4ImagesEEG,001,102953,
AFNE01.JPG,AFNE01.JPG,AFNE01.JPG,AFNE01.JPG,AFNE01.JPG,AFNE01.JPG,3,8,38,3,,,,,,,,,,,,,,,,,,,,,,,AMNE06.jpg,AMNE20.jpg,AMSA06.jpg,AMSA07.jpg,AMNE20.jpg,MN,1,num_6,32,num_2,0.600137212314,,,2018_Feb_08_1339,60.0099124555,MAFE4ImagesEEG,001,102953,
AFNE01.JPG,AFNE01.JPG,AFNE01.JPG,AFNE01.JPG,AFNE01.JPG,AFNE01.JPG,3,9,39,9,,,,,,,,,,,,,,,,,,,,,,,AMSA02.jpg,AMNE18.jpg,AMSA09.jpg,AMNE06.jpg,AMSA09.jpg,MS,2,num_2,32,num_6,1.15007198998,,,2018_Feb_08_1339,60.0099124555,MAFE4ImagesEEG,001,102953,
AFNE01.JPG,AFNE01.JPG,AFNE01.JPG,AFNE01.JPG,AFNE01.JPG,AFNE01.JPG,4,0,40,2,,,,,,,,,,,,,,,,,,,,,,,AMNE19.jpg,AMSA03.jpg,AMSA10.jpg,AMNE10.jpg,AMNE19.jpg,MN,1,num_8,32,num_4,2.00009397673,,,2018_Feb_08_1339,60.0099124555,MAFE4ImagesEEG,001,102953,
AFNE01.JPG,AFNE01.JPG,AFNE01.JPG,AFNE01.JPG,AFNE01.JPG,AFNE01.JPG,4,1,41,3,,,,,,,,,,,,,,,,,,,,,,,AMNE20.jpg,AMSA10.jpg,AMSA15.jpg,AMNE17.jpg,AMSA15.jpg,MS,2,num_2,16,num_2,0.433514112607,,,2018_Feb_08_1339,60.0099124555,MAFE4ImagesEEG,001,102953,
AFNE01.JPG,AFNE01.JPG,AFNE01.JPG,AFNE01.JPG,AFNE01.JPG,AFNE01.JPG,4,2,42,7,,,,,,,,,,,,,,,,,,,,,,,AMSA15.jpg,AMSA02.jpg,AMNE09.jpg,AMNE19.jpg,AMSA15.jpg,MS,2,num_8,32,num_2,1.60008044122,,,2018_Feb_08_1339,60.0099124555,MAFE4ImagesEEG,001,102953,
AFNE01.JPG,AFNE01.JPG,AFNE01.JPG,AFNE01.JPG,AFNE01.JPG,AFNE01.JPG,4,3,43,5,,,,,,,,,,,,,,,,,,,,,,,AMNE01.jpg,AMSA18.jpg,AMNE06.jpg,AMSA14.jpg,AMSA18.jpg,MS,2,num_6,16,num_6,0.466788248392,,,2018_Feb_08_1339,60.0099124555,MAFE4ImagesEEG,001,102953,
AFNE01.JPG,AFNE01.JPG,AFNE01.JPG,AFNE01.JPG,AFNE01.JPG,AFNE01.JPG,4,4,44,0,,,,,,,,,,,,,,,,,,,,,,,AMNE12.jpg,AMSA05.jpg,AMNE01.jpg,AMSA09.jpg,AMNE12.jpg,MN,1,num_8,16,num_8,2.16667634225,,,2018_Feb_08_1339,60.0099124555,MAFE4ImagesEEG,001,102953,
AFNE01.JPG,AFNE01.JPG,AFNE01.JPG,AFNE01.JPG,AFNE01.JPG,AFNE01.JPG,4,5,45,6,,,,,,,,,,,,,,,,,,,,,,,AMNE07.jpg,AMNE05.jpg,AMSA08.jpg,AMSA17.jpg,AMSA08.jpg,MS,2,num_2,32,num_8,1.45001743222,,,2018_Feb_08_1339,60.0099124555,MAFE4ImagesEEG,001,102953,
AFNE01.JPG,AFNE01.JPG,AFNE01.JPG,AFNE01.JPG,AFNE01.JPG,AFNE01.JPG,4,6,46,8,,,,,,,,,,,,,,,,,,,,,,,AMNE17.jpg,AMNE13.jpg,AMSA07.jpg,AMSA17.jpg,AMSA07.jpg,MS,2,num_2,16,num_2,0.63344695,,,2018_Feb_08_1339,60.0099124555,MAFE4ImagesEEG,001,102953,
AFNE01.JPG,AFNE01.JPG,AFNE01.JPG,AFNE01.JPG,AFNE01.JPG,AFNE01.JPG,4,7,47,1,,,,,,,,,,,,,,,,,,,,,,,AMSA06.jpg,AMSA16.jpg,AMNE04.jpg,AMNE18.jpg,AMSA16.jpg,MS,2,num_6,16,num_6,0.850106982747,,,2018_Feb_08_1339,60.0099124555,MAFE4ImagesEEG,001,102953,
AFNE01.JPG,AFNE01.JPG,AFNE01.JPG,AFNE01.JPG,AFNE01.JPG,AFNE01.JPG,4,8,48,9,,,,,,,,,,,,,,,,,,,,,,,AMSA10.jpg,AMSA02.jpg,AMNE11.jpg,AMNE05.jpg,AMNE11.jpg,MN,1,num_2,32,num_6,1.11676674266,,,2018_Feb_08_1339,60.0099124555,MAFE4ImagesEEG,001,102953,
AFNE01.JPG,AFNE01.JPG,AFNE01.JPG,AFNE01.JPG,AFNE01.JPG,AFNE01.JPG,4,9,49,4,,,,,,,,,,,,,,,,,,,,,,,AMSA06.jpg,AMSA20.jpg,AMNE04.jpg,AMNE07.jpg,AMNE04.jpg,MN,1,num_2,16,num_2,0.78345286753,,,2018_Feb_08_1339,60.0099124555,MAFE4ImagesEEG,001,102953,
AFNE01.JPG,AFNE01.JPG,AFNE01.JPG,AFNE01.JPG,AFNE01.JPG,AFNE01.JPG,5,0,50,7,,,,,,,,,,,,,,,,,,,,,,,AMSA15.jpg,AMNE04.jpg,AMNE05.jpg,AMSA17.jpg,AMSA15.jpg,MS,2,num_8,32,num_4,3.4166525274,,,2018_Feb_08_1339,60.0099124555,MAFE4ImagesEEG,001,102953,
AFNE01.JPG,AFNE01.JPG,AFNE01.JPG,AFNE01.JPG,AFNE01.JPG,AFNE01.JPG,5,1,51,0,,,,,,,,,,,,,,,,,,,,,,,AMNE04.jpg,AMNE05.jpg,AMSA05.jpg,AMSA13.jpg,AMNE05.jpg,MN,1,num_6,16,num_6,0.900361056207,,,2018_Feb_08_1339,60.0099124555,MAFE4ImagesEEG,001,102953,
AFNE01.JPG,AFNE01.JPG,AFNE01.JPG,AFNE01.JPG,AFNE01.JPG,AFNE01.JPG,5,2,52,8,,,,,,,,,,,,,,,,,,,,,,,AMNE04.jpg,AMNE20.jpg,AMSA20.jpg,AMSA12.jpg,AMNE04.jpg,MN,1,num_8,32,num_4,0.983414571267,,,2018_Feb_08_1339,60.0099124555,MAFE4ImagesEEG,001,102953,
AFNE01.JPG,AFNE01.JPG,AFNE01.JPG,AFNE01.JPG,AFNE01.JPG,AFNE01.JPG,5,3,53,1,,,,,,,,,,,,,,,,,,,,,,,AMNE19.jpg,AMSA18.jpg,AMSA14.jpg,AMNE02.jpg,AMNE02.jpg,MN,1,num_4,32,num_2,1.9333907885,,,2018_Feb_08_1339,60.0099124555,MAFE4ImagesEEG,001,102953,
AFNE01.JPG,AFNE01.JPG,AFNE01.JPG,AFNE01.JPG,AFNE01.JPG,AFNE01.JPG,5,4,54,9,,,,,,,,,,,,,,,,,,,,,,,AMSA14.jpg,AMNE20.jpg,AMNE04.jpg,AMSA07.jpg,AMNE04.jpg,MN,1,num_2,16,num_2,1.00008595805,,,2018_Feb_08_1339,60.0099124555,MAFE4ImagesEEG,001,102953,
AFNE01.JPG,AFNE01.JPG,AFNE01.JPG,AFNE01.JPG,AFNE01.JPG,AFNE01.JPG,5,5,55,5,,,,,,,,,,,,,,,,,,,,,,,AMSA02.jpg,AMSA13.jpg,AMNE13.jpg,AMNE01.jpg,AMNE01.jpg,MN,1,num_4,16,num_4,1.96667871578,,,2018_Feb_08_1339,60.0099124555,MAFE4ImagesEEG,001,102953,
AFNE01.JPG,AFNE01.JPG,AFNE01.JPG,AFNE01.JPG,AFNE01.JPG,AFNE01.JPG,5,6,56,2,,,,,,,,,,,,,,,,,,,,,,,AMSA05.jpg,AMNE15.jpg,AMSA01.jpg,AMNE14.jpg,AMNE14.jpg,MN,1,num_4,16,num_4,1.23342699977,,,2018_Feb_08_1339,60.0099124555,MAFE4ImagesEEG,001,102953,
AFNE01.JPG,AFNE01.JPG,AFNE01.JPG,AFNE01.JPG,AFNE01.JPG,AFNE01.JPG,5,7,57,4,,,,,,,,,,,,,,,,,,,,,,,AMNE12.jpg,AMSA12.jpg,AMSA17.jpg,AMNE05.jpg,AMSA12.jpg,MS,2,num_6,16,num_6,1.83321011602,,,2018_Feb_08_1339,60.0099124555,MAFE4ImagesEEG,001,102953,
AFNE01.JPG,AFNE01.JPG,AFNE01.JPG,AFNE01.JPG,AFNE01.JPG,AFNE01.JPG,5,8,58,6,,,,,,,,,,,,,,,,,,,,,,,AMSA02.jpg,AMSA10.jpg,AMNE16.jpg,AMNE13.jpg,AMNE13.jpg,MN,1,num_4,16,num_4,0.900116332108,,,2018_Feb_08_1339,60.0099124555,MAFE4ImagesEEG,001,102953,
AFNE01.JPG,AFNE01.JPG,AFNE01.JPG,AFNE01.JPG,AFNE01.JPG,AFNE01.JPG,5,9,59,3,,,,,,,,,,,,,,,,,,,,,,,AMNE08.jpg,AMNE04.jpg,AMSA03.jpg,AMSA10.jpg,AMNE08.jpg,MN,1,num_8,32,num_4,0.816762284376,,,2018_Feb_08_1339,60.0099124555,MAFE4ImagesEEG,001,102953,
,,,,,,,,,,,,,,,,,,,,,,,,,,,,,,,,,,,,,,,,,,,space,12.5161760051,2018_Feb_08_1339,60.0099124555,MAFE4ImagesEEG,001,102953,
AFNE01.JPG,AFNE01.JPG,AFNE01.JPG,AFNE01.JPG,AFNE01.JPG,AFNE01.JPG,,,,,0,0,0,5,,,,,,,,,,,,,,,,,,,AFSA01.jpg,AFSA06.jpg,AFNE15.jpg,AFNE04.jpg,AFSA06.jpg,FS,4,num_6,32,num_4,0.91681498196,,,2018_Feb_08_1339,60.0099124555,MAFE4ImagesEEG,001,102953,
AFNE01.JPG,AFNE01.JPG,AFNE01.JPG,AFNE01.JPG,AFNE01.JPG,AFNE01.JPG,,,,,0,1,1,3,,,,,,,,,,,,,,,,,,,AFSA12.jpg,AFSA08.jpg,AFNE05.jpg,AFNE03.jpg,AFNE05.jpg,FN,3,num_2,32,num_8,0.983459154144,,,2018_Feb_08_1339,60.0099124555,MAFE4ImagesEEG,001,102953,
AFNE01.JPG,AFNE01.JPG,AFNE01.JPG,AFNE01.JPG,AFNE01.JPG,AFNE01.JPG,,,,,0,2,2,7,,,,,,,,,,,,,,,,,,,AFSA04.jpg,AFSA12.jpg,AFNE01.jpg,AFNE05.jpg,AFSA12.jpg,FS,4,num_6,16,num_6,0.683497354155,,,2018_Feb_08_1339,60.0099124555,MAFE4ImagesEEG,001,102953,
AFNE01.JPG,AFNE01.JPG,AFNE01.JPG,AFNE01.JPG,AFNE01.JPG,AFNE01.JPG,,,,,0,3,3,4,,,,,,,,,,,,,,,,,,,AFNE15.jpg,AFSA15.jpg,AFSA14.jpg,AFNE11.jpg,AFSA15.jpg,FS,4,num_6,16,num_6,1.00016582222,,,2018_Feb_08_1339,60.0099124555,MAFE4ImagesEEG,001,102953,
AFNE01.JPG,AFNE01.JPG,AFNE01.JPG,AFNE01.JPG,AFNE01.JPG,AFNE01.JPG,,,,,0,4,4,9,,,,,,,,,,,,,,,,,,,AFSA15.jpg,AFNE04.jpg,AFSA18.jpg,AFNE18.jpg,AFNE18.jpg,FN,3,num_4,16,num_4,0.616763375001,,,2018_Feb_08_1339,60.0099124555,MAFE4ImagesEEG,001,102953,
AFNE01.JPG,AFNE01.JPG,AFNE01.JPG,AFNE01.JPG,AFNE01.JPG,AFNE01.JPG,,,,,0,5,5,8,,,,,,,,,,,,,,,,,,,AFSA14.jpg,AFNE14.jpg,AFNE17.jpg,AFSA05.jpg,AFSA14.jpg,FS,4,num_8,32,num_4,0.966843254864,,,2018_Feb_08_1339,60.0099124555,MAFE4ImagesEEG,001,102953,
AFNE01.JPG,AFNE01.JPG,AFNE01.JPG,AFNE01.JPG,AFNE01.JPG,AFNE01.JPG,,,,,0,6,6,2,,,,,,,,,,,,,,,,,,,AFNE07.jpg,AFNE03.jpg,AFSA08.jpg,AFSA05.jpg,AFNE03.jpg,FN,3,num_6,32,num_4,0.766766085057,,,2018_Feb_08_1339,60.0099124555,MAFE4ImagesEEG,001,102953,
AFNE01.JPG,AFNE01.JPG,AFNE01.JPG,AFNE01.JPG,AFNE01.JPG,AFNE01.JPG,,,,,0,7,7,0,,,,,,,,,,,,,,,,,,,AFSA16.jpg,AFNE06.jpg,AFSA05.jpg,AFNE12.jpg,AFSA05.jpg,FS,4,num_2,32,num_8,1.00012861658,,,2018_Feb_08_1339,60.0099124555,MAFE4ImagesEEG,001,102953,
AFNE01.JPG,AFNE01.JPG,AFNE01.JPG,AFNE01.JPG,AFNE01.JPG,AFNE01.JPG,,,,,0,8,8,1,,,,,,,,,,,,,,,,,,,AFSA17.jpg,AFSA05.jpg,AFNE12.jpg,AFNE15.jpg,AFSA17.jpg,FS,4,num_8,16,num_8,1.0168856408,,,2018_Feb_08_1339,60.0099124555,MAFE4ImagesEEG,001,102953,
AFNE01.JPG,AFNE01.JPG,AFNE01.JPG,AFNE01.JPG,AFNE01.JPG,AFNE01.JPG,,,,,0,9,9,6,,,,,,,,,,,,,,,,,,,AFNE12.jpg,AFSA12.jpg,AFSA09.jpg,AFNE15.jpg,AFNE12.jpg,FN,3,num_8,16,num_8,1.16675524414,,,2018_Feb_08_1339,60.0099124555,MAFE4ImagesEEG,001,102953,
AFNE01.JPG,AFNE01.JPG,AFNE01.JPG,AFNE01.JPG,AFNE01.JPG,AFNE01.JPG,,,,,1,0,10,6,,,,,,,,,,,,,,,,,,,AFNE17.jpg,AFSA12.jpg,AFSA05.jpg,AFNE01.jpg,AFNE01.jpg,FN,3,num_4,16,num_4,1.00012476742,,,2018_Feb_08_1339,60.0099124555,MAFE4ImagesEEG,001,102953,
AFNE01.JPG,AFNE01.JPG,AFNE01.JPG,AFNE01.JPG,AFNE01.JPG,AFNE01.JPG,,,,,1,1,11,9,,,,,,,,,,,,,,,,,,,AFNE18.jpg,AFNE11.jpg,AFSA01.jpg,AFSA04.jpg,AFSA01.jpg,FS,4,num_2,32,num_6,0.900113445474,,,2018_Feb_08_1339,60.0099124555,MAFE4ImagesEEG,001,102953,
AFNE01.JPG,AFNE01.JPG,AFNE01.JPG,AFNE01.JPG,AFNE01.JPG,AFNE01.JPG,,,,,1,2,12,2,,,,,,,,,,,,,,,,,,,AFSA18.jpg,AFSA09.jpg,AFNE11.jpg,AFNE07.jpg,AFNE11.jpg,FN,3,num_2,16,num_2,1.40005972167,,,2018_Feb_08_1339,60.0099124555,MAFE4ImagesEEG,001,102953,
AFNE01.JPG,AFNE01.JPG,AFNE01.JPG,AFNE01.JPG,AFNE01.JPG,AFNE01.JPG,,,,,1,3,13,3,,,,,,,,,,,,,,,,,,,AFSA12.jpg,AFSA02.jpg,AFNE13.jpg,AFNE07.jpg,AFSA12.jpg,FS,4,num_8,16,num_8,1.23340326524,,,2018_Feb_08_1339,60.0099124555,MAFE4ImagesEEG,001,102953,
AFNE01.JPG,AFNE01.JPG,AFNE01.JPG,AFNE01.JPG,AFNE01.JPG,AFNE01.JPG,,,,,1,4,14,4,,,,,,,,,,,,,,,,,,,AFSA20.jpg,AFNE14.jpg,AFNE08.jpg,AFSA17.jpg,AFSA20.jpg,FS,4,num_8,32,num_4,1.00010584411,,,2018_Feb_08_1339,60.0099124555,MAFE4ImagesEEG,001,102953,
AFNE01.JPG,AFNE01.JPG,AFNE01.JPG,AFNE01.JPG,AFNE01.JPG,AFNE01.JPG,,,,,1,5,15,1,,,,,,,,,,,,,,,,,,,AFSA20.jpg,AFSA14.jpg,AFNE02.jpg,AFNE04.jpg,AFNE04.jpg,FN,3,num_4,32,num_2,2.9832978223,,,2018_Feb_08_1339,60.0099124555,MAFE4ImagesEEG,001,102953,
AFNE01.JPG,AFNE01.JPG,AFNE01.JPG,AFNE01.JPG,AFNE01.JPG,AFNE01.JPG,,,,,1,6,16,0,,,,,,,,,,,,,,,,,,,AFSA15.jpg,AFNE03.jpg,AFNE04.jpg,AFSA14.jpg,AFSA15.jpg,FS,4,num_8,16,num_8,1.30007277569,,,2018_Feb_08_1339,60.0099124555,MAFE4ImagesEEG,001,102953,
AFNE01.JPG,AFNE01.JPG,AFNE01.JPG,AFNE01.JPG,AFNE01.JPG,AFNE01.JPG,,,,,1,7,17,8,,,,,,,,,,,,,,,,,,,AFSA18.jpg,AFNE19.jpg,AFNE15.jpg,AFSA09.jpg,AFNE15.jpg,FN,3,num_2,32,num_4,0.800127461785,,,2018_Feb_08_1339,60.0099124555,MAFE4ImagesEEG,001,102953,
AFNE01.JPG,AFNE01.JPG,AFNE01.JPG,AFNE01.JPG,AFNE01.JPG,AFNE01.JPG,,,,,1,8,18,7,,,,,,,,,,,,,,,,,,,AFSA17.jpg,AFNE16.jpg,AFNE12.jpg,AFSA05.jpg,AFSA17.jpg,FS,4,num_8,32,num_4,0.916787719121,,,2018_Feb_08_1339,60.0099124555,MAFE4ImagesEEG,001,102953,
AFNE01.JPG,AFNE01.JPG,AFNE01.JPG,AFNE01.JPG,AFNE01.JPG,AFNE01.JPG,,,,,1,9,19,5,,,,,,,,,,,,,,,,,,,AFNE20.jpg,AFSA13.jpg,AFNE07.jpg,AFSA10.jpg,AFNE07.jpg,FN,3,num_2,32,num_8,1.06681737141,,,2018_Feb_08_1339,60.0099124555,MAFE4ImagesEEG,001,102953,
AFNE01.JPG,AFNE01.JPG,AFNE01.JPG,AFNE01.JPG,AFNE01.JPG,AFNE01.JPG,,,,,2,0,20,6,,,,,,,,,,,,,,,,,,,AFSA01.jpg,AFNE04.jpg,AFSA13.jpg,AFNE10.jpg,AFSA13.jpg,FS,4,num_2,16,num_2,1.05015560659,,,2018_Feb_08_1339,60.0099124555,MAFE4ImagesEEG,001,102953,
AFNE01.JPG,AFNE01.JPG,AFNE01.JPG,AFNE01.JPG,AFNE01.JPG,AFNE01.JPG,,,,,2,1,21,2,,,,,,,,,,,,,,,,,,,AFSA02.jpg,AFNE02.jpg,AFNE18.jpg,AFSA09.jpg,AFNE18.jpg,FN,3,num_2,32,num_4,1.53345455136,,,2018_Feb_08_1339,60.0099124555,MAFE4ImagesEEG,001,102953,
AFNE01.JPG,AFNE01.JPG,AFNE01.JPG,AFNE01.JPG,AFNE01.JPG,AFNE01.JPG,,,,,2,2,22,3,,,,,,,,,,,,,,,,,,,AFNE06.jpg,AFSA03.jpg,AFSA16.jpg,AFNE07.jpg,AFNE07.jpg,FN,3,num_4,16,num_4,0.733516005101,,,2018_Feb_08_1339,60.0099124555,MAFE4ImagesEEG,001,102953,
AFNE01.JPG,AFNE01.JPG,AFNE01.JPG,AFNE01.JPG,AFNE01.JPG,AFNE01.JPG,,,,,2,3,23,7,,,,,,,,,,,,,,,,,,,AFSA02.jpg,AFSA13.jpg,AFNE12.jpg,AFNE08.jpg,AFSA13.jpg,FS,4,num_6,16,num_6,0.966747995466,,,2018_Feb_08_1339,60.0099124555,MAFE4ImagesEEG,001,102953,
AFNE01.JPG,AFNE01.JPG,AFNE01.JPG,AFNE01.JPG,AFNE01.JPG,AFNE01.JPG,,,,,2,4,24,8,,,,,,,,,,,,,,,,,,,AFSA19.jpg,AFNE16.jpg,AFSA05.jpg,AFNE17.jpg,AFSA05.jpg,FS,4,num_2,32,num_8,1.15011336538,,,2018_Feb_08_1339,60.0099124555,MAFE4ImagesEEG,001,102953,
AFNE01.JPG,AFNE01.JPG,AFNE01.JPG,AFNE01.JPG,AFNE01.JPG,AFNE01.JPG,,,,,2,5,25,9,,,,,,,,,,,,,,,,,,,AFNE13.jpg,AFNE17.jpg,AFSA03.jpg,AFSA11.jpg,AFSA11.jpg,FS,4,num_4,16,num_4,0.550128504168,,,2018_Feb_08_1339,60.0099124555,MAFE4ImagesEEG,001,102953,
AFNE01.JPG,AFNE01.JPG,AFNE01.JPG,AFNE01.JPG,AFNE01.JPG,AFNE01.JPG,,,,,2,6,26,5,,,,,,,,,,,,,,,,,,,AFNE11.jpg,AFSA18.jpg,AFNE07.jpg,AFSA10.jpg,AFSA10.jpg,FS,4,num_4,16,num_4,1.10008092248,,,2018_Feb_08_1339,60.0099124555,MAFE4ImagesEEG,001,102953,
AFNE01.JPG,AFNE01.JPG,AFNE01.JPG,AFNE01.JPG,AFNE01.JPG,AFNE01.JPG,,,,,2,7,27,4,,,,,,,,,,,,,,,,,,,AFNE17.jpg,AFNE01.jpg,AFSA09.jpg,AFSA11.jpg,AFSA11.jpg,FS,4,num_4,32,num_8,1.466761627,,,2018_Feb_08_1339,60.0099124555,MAFE4ImagesEEG,001,102953,
AFNE01.JPG,AFNE01.JPG,AFNE01.JPG,AFNE01.JPG,AFNE01.JPG,AFNE01.JPG,,,,,2,8,28,1,,,,,,,,,,,,,,,,,,,AFSA19.jpg,AFNE11.jpg,AFSA01.jpg,AFNE01.jpg,AFSA19.jpg,FS,4,num_8,32,num_6,0.800133876503,,,2018_Feb_08_1339,60.0099124555,MAFE4ImagesEEG,001,102953,
AFNE01.JPG,AFNE01.JPG,AFNE01.JPG,AFNE01.JPG,AFNE01.JPG,AFNE01.JPG,,,,,2,9,29,0,,,,,,,,,,,,,,,,,,,AFNE19.jpg,AFSA11.jpg,AFSA12.jpg,AFNE02.jpg,AFNE19.jpg,FN,3,num_8,32,num_6,0.833458368201,,,2018_Feb_08_1339,60.0099124555,MAFE4ImagesEEG,001,102953,
AFNE01.JPG,AFNE01.JPG,AFNE01.JPG,AFNE01.JPG,AFNE01.JPG,AFNE01.JPG,,,,,3,0,30,3,,,,,,,,,,,,,,,,,,,AFNE07.jpg,AFNE03.jpg,AFSA08.jpg,AFSA19.jpg,AFSA19.jpg,FS,4,num_4,16,num_4,1.21683291136,,,2018_Feb_08_1339,60.0099124555,MAFE4ImagesEEG,001,102953,
AFNE01.JPG,AFNE01.JPG,AFNE01.JPG,AFNE01.JPG,AFNE01.JPG,AFNE01.JPG,,,,,3,1,31,8,,,,,,,,,,,,,,,,,,,AFSA09.jpg,AFNE16.jpg,AFSA17.jpg,AFNE20.jpg,AFSA09.jpg,FS,4,num_8,32,num_2,1.31680157501,,,2018_Feb_08_1339,60.0099124555,MAFE4ImagesEEG,001,102953,
AFNE01.JPG,AFNE01.JPG,AFNE01.JPG,AFNE01.JPG,AFNE01.JPG,AFNE01.JPG,,,,,3,2,32,4,,,,,,,,,,,,,,,,,,,AFNE11.jpg,AFSA13.jpg,AFSA07.jpg,AFNE09.jpg,AFNE11.jpg,FN,3,num_8,32,num_6,0.866792481858,,,2018_Feb_08_1339,60.0099124555,MAFE4ImagesEEG,001,102953,
AFNE01.JPG,AFNE01.JPG,AFNE01.JPG,AFNE01.JPG,AFNE01.JPG,AFNE01.JPG,,,,,3,3,33,2,,,,,,,,,,,,,,,,,,,AFSA08.jpg,AFNE06.jpg,AFNE16.jpg,AFSA09.jpg,AFNE06.jpg,FN,3,num_6,32,num_4,0.750205673976,,,2018_Feb_08_1339,60.0099124555,MAFE4ImagesEEG,001,102953,
AFNE01.JPG,AFNE01.JPG,AFNE01.JPG,AFNE01.JPG,AFNE01.JPG,AFNE01.JPG,,,,,3,4,34,1,,,,,,,,,,,,,,,,,,,AFNE04.jpg,AFSA13.jpg,AFSA18.jpg,AFNE11.jpg,AFSA18.jpg,FS,4,num_2,16,num_2,1.65006156592,,,2018_Feb_08_1339,60.0099124555,MAFE4ImagesEEG,001,102953,
AFNE01.JPG,AFNE01.JPG,AFNE01.JPG,AFNE01.JPG,AFNE01.JPG,AFNE01.JPG,,,,,3,5,35,0,,,,,,,,,,,,,,,,,,,AFNE14.jpg,AFNE19.jpg,AFSA16.jpg,AFSA03.jpg,AFSA03.jpg,FS,4,num_4,16,num_4,1.05020018946,,,2018_Feb_08_1339,60.0099124555,MAFE4ImagesEEG,001,102953,
AFNE01.JPG,AFNE01.JPG,AFNE01.JPG,AFNE01.JPG,AFNE01.JPG,AFNE01.JPG,,,,,3,6,36,6,,,,,,,,,,,,,,,,,,,AFSA06.jpg,AFNE16.jpg,AFSA13.jpg,AFNE08.jpg,AFSA13.jpg,FS,4,num_2,16,num_2,1.0502175095,,,2018_Feb_08_1339,60.0099124555,MAFE4ImagesEEG,001,102953,
AFNE01.JPG,AFNE01.JPG,AFNE01.JPG,AFNE01.JPG,AFNE01.JPG,AFNE01.JPG,,,,,3,7,37,5,,,,,,,,,,,,,,,,,,,AFSA07.jpg,AFSA04.jpg,AFNE12.jpg,AFNE06.jpg,AFNE12.jpg,FN,3,num_2,32,num_4,1.03343642945,,,2018_Feb_08_1339,60.0099124555,MAFE4ImagesEEG,001,102953,
AFNE01.JPG,AFNE01.JPG,AFNE01.JPG,AFNE01.JPG,AFNE01.JPG,AFNE01.JPG,,,,,3,8,38,9,,,,,,,,,,,,,,,,,,,AFNE11.jpg,AFSA06.jpg,AFNE14.jpg,AFSA07.jpg,AFSA06.jpg,FS,4,num_6,32,num_8,0.833376900526,,,2018_Feb_08_1339,60.0099124555,MAFE4ImagesEEG,001,102953,
AFNE01.JPG,AFNE01.JPG,AFNE01.JPG,AFNE01.JPG,AFNE01.JPG,AFNE01.JPG,,,,,3,9,39,7,,,,,,,,,,,,,,,,,,,AFNE01.jpg,AFSA12.jpg,AFNE13.jpg,AFSA17.jpg,AFSA17.jpg,FS,4,num_4,16,num_4,1.14976664609,,,2018_Feb_08_1339,60.0099124555,MAFE4ImagesEEG,001,102953,
AFNE01.JPG,AFNE01.JPG,AFNE01.JPG,AFNE01.JPG,AFNE01.JPG,AFNE01.JPG,,,,,4,0,40,3,,,,,,,,,,,,,,,,,,,AFNE06.jpg,AFSA10.jpg,AFSA03.jpg,AFNE12.jpg,AFSA10.jpg,FS,4,num_6,32,num_8,0.933530630777,,,2018_Feb_08_1339,60.0099124555,MAFE4ImagesEEG,001,102953,
AFNE01.JPG,AFNE01.JPG,AFNE01.JPG,AFNE01.JPG,AFNE01.JPG,AFNE01.JPG,,,,,4,1,41,0,,,,,,,,,,,,,,,,,,,AFNE11.jpg,AFNE16.jpg,AFSA16.jpg,AFSA09.jpg,AFSA16.jpg,FS,4,num_2,16,num_2,0.950119587826,,,2018_Feb_08_1339,60.0099124555,MAFE4ImagesEEG,001,102953,
AFNE01.JPG,AFNE01.JPG,AFNE01.JPG,AFNE01.JPG,AFNE01.JPG,AFNE01.JPG,,,,,4,2,42,7,,,,,,,,,,,,,,,,,,,AFNE09.jpg,AFSA06.jpg,AFNE19.jpg,AFSA05.jpg,AFNE09.jpg,FN,3,num_8,16,num_8,1.38337326003,,,2018_Feb_08_1339,60.0099124555,MAFE4ImagesEEG,001,102953,
AFNE01.JPG,AFNE01.JPG,AFNE01.JPG,AFNE01.JPG,AFNE01.JPG,AFNE01.JPG,,,,,4,3,43,2,,,,,,,,,,,,,,,,,,,AFSA10.jpg,AFNE07.jpg,AFNE20.jpg,AFSA07.jpg,AFNE20.jpg,FN,3,num_2,16,num_2,0.90010959655,,,2018_Feb_08_1339,60.0099124555,MAFE4ImagesEEG,001,102953,
AFNE01.JPG,AFNE01.JPG,AFNE01.JPG,AFNE01.JPG,AFNE01.JPG,AFNE01.JPG,,,,,4,4,44,6,,,,,,,,,,,,,,,,,,,AFNE17.jpg,AFSA08.jpg,AFSA15.jpg,AFNE09.jpg,AFNE09.jpg,FN,3,num_4,16,num_4,1.30011286819,,,2018_Feb_08_1339,60.0099124555,MAFE4ImagesEEG,001,102953,
AFNE01.JPG,AFNE01.JPG,AFNE01.JPG,AFNE01.JPG,AFNE01.JPG,AFNE01.JPG,,,,,4,5,45,8,,,,,,,,,,,,,,,,,,,AFSA17.jpg,AFNE03.jpg,AFSA01.jpg,AFNE15.jpg,AFNE03.jpg,FN,3,num_6,16,num_6,0.700108121149,,,2018_Feb_08_1339,60.0099124555,MAFE4ImagesEEG,001,102953,
AFNE01.JPG,AFNE01.JPG,AFNE01.JPG,AFNE01.JPG,AFNE01.JPG,AFNE01.JPG,,,,,4,6,46,9,,,,,,,,,,,,,,,,,,,AFSA08.jpg,AFSA07.jpg,AFNE07.jpg,AFNE02.jpg,AFNE02.jpg,FN,3,num_4,16,num_4,2.04999940656,,,2018_Feb_08_1339,60.0099124555,MAFE4ImagesEEG,001,102953,
AFNE01.JPG,AFNE01.JPG,AFNE01.JPG,AFNE01.JPG,AFNE01.JPG,AFNE01.JPG,,,,,4,7,47,1,,,,,,,,,,,,,,,,,,,AFNE03.jpg,AFNE17.jpg,AFSA03.jpg,AFSA02.jpg,AFSA03.jpg,FS,4,num_2,16,num_2,0.800132272765,,,2018_Feb_08_1339,60.0099124555,MAFE4ImagesEEG,001,102953,
AFNE01.JPG,AFNE01.JPG,AFNE01.JPG,AFNE01.JPG,AFNE01.JPG,AFNE01.JPG,,,,,4,8,48,4,,,,,,,,,,,,,,,,,,,AFSA20.jpg,AFNE08.jpg,AFNE02.jpg,AFSA17.jpg,AFSA17.jpg,FS,4,num_4,16,num_4,0.933529989328,,,2018_Feb_08_1339,60.0099124555,MAFE4ImagesEEG,001,102953,
AFNE01.JPG,AFNE01.JPG,AFNE01.JPG,AFNE01.JPG,AFNE01.JPG,AFNE01.JPG,,,,,4,9,49,5,,,,,,,,,,,,,,,,,,,AFNE02.jpg,AFSA10.jpg,AFSA17.jpg,AFNE06.jpg,AFNE06.jpg,FN,3,num_4,32,num_6,1.06678176927,,,2018_Feb_08_1339,60.0099124555,MAFE4ImagesEEG,001,102953,
AFNE01.JPG,AFNE01.JPG,AFNE01.JPG,AFNE01.JPG,AFNE01.JPG,AFNE01.JPG,,,,,5,0,50,7,,,,,,,,,,,,,,,,,,,AFNE10.jpg,AFSA20.jpg,AFNE17.jpg,AFSA01.jpg,AFNE17.jpg,FN,3,num_2,32,num_4,1.28345174482,,,2018_Feb_08_1339,60.0099124555,MAFE4ImagesEEG,001,102953,
AFNE01.JPG,AFNE01.JPG,AFNE01.JPG,AFNE01.JPG,AFNE01.JPG,AFNE01.JPG,,,,,5,1,51,8,,,,,,,,,,,,,,,,,,,AFNE05.jpg,AFNE02.jpg,AFSA15.jpg,AFSA03.jpg,AFSA03.jpg,FS,4,num_4,32,num_2,1.35019213893,,,2018_Feb_08_1339,60.0099124555,MAFE4ImagesEEG,001,102953,
AFNE01.JPG,AFNE01.JPG,AFNE01.JPG,AFNE01.JPG,AFNE01.JPG,AFNE01.JPG,,,,,5,2,52,5,,,,,,,,,,,,,,,,,,,AFSA17.jpg,AFSA12.jpg,AFNE13.jpg,AFNE11.jpg,AFSA12.jpg,FS,4,num_6,16,num_6,0.633512380533,,,2018_Feb_08_1339,60.0099124555,MAFE4ImagesEEG,001,102953,
AFNE01.JPG,AFNE01.JPG,AFNE01.JPG,AFNE01.JPG,AFNE01.JPG,AFNE01.JPG,,,,,5,3,53,2,,,,,,,,,,,,,,,,,,,AFSA14.jpg,AFNE03.jpg,AFNE09.jpg,AFSA13.jpg,AFSA14.jpg,FS,4,num_8,16,num_8,0.833493970102,,,2018_Feb_08_1339,60.0099124555,MAFE4ImagesEEG,001,102953,
AFNE01.JPG,AFNE01.JPG,AFNE01.JPG,AFNE01.JPG,AFNE01.JPG,AFNE01.JPG,,,,,5,4,54,1,,,,,,,,,,,,,,,,,,,AFSA14.jpg,AFNE16.jpg,AFNE09.jpg,AFSA10.jpg,AFSA10.jpg,FS,4,num_4,16,num_4,1.38340533385,,,2018_Feb_08_1339,60.0099124555,MAFE4ImagesEEG,001,102953,
AFNE01.JPG,AFNE01.JPG,AFNE01.JPG,AFNE01.JPG,AFNE01.JPG,AFNE01.JPG,,,,,5,5,55,0,,,,,,,,,,,,,,,,,,,AFNE09.jpg,AFNE01.jpg,AFSA02.jpg,AFSA16.jpg,AFNE01.jpg,FN,3,num_6,32,num_2,1.85003834427,,,2018_Feb_08_1339,60.0099124555,MAFE4ImagesEEG,001,102953,
AFNE01.JPG,AFNE01.JPG,AFNE01.JPG,AFNE01.JPG,AFNE01.JPG,AFNE01.JPG,,,,,5,6,56,4,,,,,,,,,,,,,,,,,,,AFSA10.jpg,AFNE18.jpg,AFSA04.jpg,AFNE05.jpg,AFNE18.jpg,FN,3,num_6,16,num_6,0.783469866728,,,2018_Feb_08_1339,60.0099124555,MAFE4ImagesEEG,001,102953,
AFNE01.JPG,AFNE01.JPG,AFNE01.JPG,AFNE01.JPG,AFNE01.JPG,AFNE01.JPG,,,,,5,7,57,6,,,,,,,,,,,,,,,,,,,AFNE11.jpg,AFNE06.jpg,AFSA01.jpg,AFSA06.jpg,AFNE11.jpg,FN,3,num_8,32,num_4,1.00014337059,,,2018_Feb_08_1339,60.0099124555,MAFE4ImagesEEG,001,102953,
AFNE01.JPG,AFNE01.JPG,AFNE01.JPG,AFNE01.JPG,AFNE01.JPG,AFNE01.JPG,,,,,5,8,58,9,,,,,,,,,,,,,,,,,,,AFSA06.jpg,AFNE10.jpg,AFSA02.jpg,AFNE11.jpg,AFNE11.jpg,FN,3,num_4,32,num_2,1.99989800481,,,2018_Feb_08_1339,60.0099124555,MAFE4ImagesEEG,001,102953,
AFNE01.JPG,AFNE01.JPG,AFNE01.JPG,AFNE01.JPG,AFNE01.JPG,AFNE01.JPG,,,,,5,9,59,3,,,,,,,,,,,,,,,,,,,AFSA17.jpg,AFNE18.jpg,AFNE16.jpg,AFSA06.jpg,AFNE16.jpg,FN,3,num_2,32,num_8,1.31672459748,,,2018_Feb_08_1339,60.0099124555,MAFE4ImagesEEG,001,102953,
,,,,,,,,,,,,,,,,,,,,,,,,,,,,,,,,,,,,,,,,,,,space,13.73207781,2018_Feb_08_1339,60.0099124555,MAFE4ImagesEEG,001,102953,
AFNE01.JPG,AFNE01.JPG,AFNE01.JPG,AFNE01.JPG,AFNE01.JPG,AFNE01.JPG,,,,,,,,,0,0,0,8,,,,,,,,,,,,,,,AMNE07.jpg,AMNE03.jpg,AMSA20.jpg,AMSA03.jpg,AMSA20.jpg,MS,2,num_2,16,num_2,1.23372657038,,,2018_Feb_08_1339,60.0099124555,MAFE4ImagesEEG,001,102953,
AFNE01.JPG,AFNE01.JPG,AFNE01.JPG,AFNE01.JPG,AFNE01.JPG,AFNE01.JPG,,,,,,,,,0,1,1,4,,,,,,,,,,,,,,,AMSA07.jpg,AMNE17.jpg,AMSA17.jpg,AMNE15.jpg,AMSA07.jpg,MS,2,num_8,16,num_8,0.76662207325,,,2018_Feb_08_1339,60.0099124555,MAFE4ImagesEEG,001,102953,
AFNE01.JPG,AFNE01.JPG,AFNE01.JPG,AFNE01.JPG,AFNE01.JPG,AFNE01.JPG,,,,,,,,,0,2,2,0,,,,,,,,,,,,,,,AMNE20.jpg,AMNE05.jpg,AMSA03.jpg,AMSA16.jpg,AMNE20.jpg,MN,1,num_8,32,num_2,1.13342433772,,,2018_Feb_08_1339,60.0099124555,MAFE4ImagesEEG,001,102953,
AFNE01.JPG,AFNE01.JPG,AFNE01.JPG,AFNE01.JPG,AFNE01.JPG,AFNE01.JPG,,,,,,,,,0,3,3,3,,,,,,,,,,,,,,,AMNE07.jpg,AMSA04.jpg,AMNE04.jpg,AMSA19.jpg,AMSA19.jpg,MS,2,num_4,16,num_4,1.23344239546,,,2018_Feb_08_1339,60.0099124555,MAFE4ImagesEEG,001,102953,
AFNE01.JPG,AFNE01.JPG,AFNE01.JPG,AFNE01.JPG,AFNE01.JPG,AFNE01.JPG,,,,,,,,,0,4,4,6,,,,,,,,,,,,,,,AMNE13.jpg,AMSA17.jpg,AMSA06.jpg,AMNE09.jpg,AMNE09.jpg,MN,1,num_4,32,num_8,1.00018250057,,,2018_Feb_08_1339,60.0099124555,MAFE4ImagesEEG,001,102953,
AFNE01.JPG,AFNE01.JPG,AFNE01.JPG,AFNE01.JPG,AFNE01.JPG,AFNE01.JPG,,,,,,,,,0,5,5,7,,,,,,,,,,,,,,,AMSA01.jpg,AMSA18.jpg,AMNE19.jpg,AMNE01.jpg,AMSA01.jpg,MS,2,num_8,32,num_4,0.733487138525,,,2018_Feb_08_1339,60.0099124555,MAFE4ImagesEEG,001,102953,
AFNE01.JPG,AFNE01.JPG,AFNE01.JPG,AFNE01.JPG,AFNE01.JPG,AFNE01.JPG,,,,,,,,,0,6,6,9,,,,,,,,,,,,,,,AMNE16.jpg,AMSA07.jpg,AMNE08.jpg,AMSA12.jpg,AMSA07.jpg,MS,2,num_6,16,num_6,0.450164972339,,,2018_Feb_08_1339,60.0099124555,MAFE4ImagesEEG,001,102953,
AFNE01.JPG,AFNE01.JPG,AFNE01.JPG,AFNE01.JPG,AFNE01.JPG,AFNE01.JPG,,,,,,,,,0,7,7,5,,,,,,,,,,,,,,,AMSA17.jpg,AMSA14.jpg,AMNE16.jpg,AMNE19.jpg,AMNE19.jpg,MN,1,num_4,32,num_2,1.06674873317,,,2018_Feb_08_1339,60.0099124555,MAFE4ImagesEEG,001,102953,
AFNE01.JPG,AFNE01.JPG,AFNE01.JPG,AFNE01.JPG,AFNE01.JPG,AFNE01.JPG,,,,,,,,,0,8,8,2,,,,,,,,,,,,,,,AMNE14.jpg,AMNE20.jpg,AMSA17.jpg,AMSA10.jpg,AMNE14.jpg,MN,1,num_8,16,num_8,1.6334171209,,,2018_Feb_08_1339,60.0099124555,MAFE4ImagesEEG,001,102953,
AFNE01.JPG,AFNE01.JPG,AFNE01.JPG,AFNE01.JPG,AFNE01.JPG,AFNE01.JPG,,,,,,,,,0,9,9,1,,,,,,,,,,,,,,,AMSA03.jpg,AMNE05.jpg,AMNE20.jpg,AMSA06.jpg,AMNE05.jpg,MN,1,num_6,16,num_6,1.15000720066,,,2018_Feb_08_1339,60.0099124555,MAFE4ImagesEEG,001,102953,
AFNE01.JPG,AFNE01.JPG,AFNE01.JPG,AFNE01.JPG,AFNE01.JPG,AFNE01.JPG,,,,,,,,,1,0,10,3,,,,,,,,,,,,,,,AMSA04.jpg,AMNE09.jpg,AMNE08.jpg,AMSA10.jpg,AMNE08.jpg,MN,1,num_2,32,num_8,1.36677147355,,,2018_Feb_08_1339,60.0099124555,MAFE4ImagesEEG,001,102953,
AFNE01.JPG,AFNE01.JPG,AFNE01.JPG,AFNE01.JPG,AFNE01.JPG,AFNE01.JPG,,,,,,,,,1,1,11,9,,,,,,,,,,,,,,,AMNE06.jpg,AMSA18.jpg,AMNE20.jpg,AMSA16.jpg,AMNE06.jpg,MN,1,num_8,32,num_4,0.800134518184,,,2018_Feb_08_1339,60.0099124555,MAFE4ImagesEEG,001,102953,
AFNE01.JPG,AFNE01.JPG,AFNE01.JPG,AFNE01.JPG,AFNE01.JPG,AFNE01.JPG,,,,,,,,,1,2,12,7,,,,,,,,,,,,,,,AMSA20.jpg,AMNE16.jpg,AMSA15.jpg,AMNE09.jpg,AMSA15.jpg,MS,2,num_2,16,num_2,0.650167410029,,,2018_Feb_08_1339,60.0099124555,MAFE4ImagesEEG,001,102953,
AFNE01.JPG,AFNE01.JPG,AFNE01.JPG,AFNE01.JPG,AFNE01.JPG,AFNE01.JPG,,,,,,,,,1,3,13,0,,,,,,,,,,,,,,,AMSA13.jpg,AMSA14.jpg,AMNE19.jpg,AMNE18.jpg,AMNE18.jpg,MN,1,num_4,32,num_8,1.56673125294,,,2018_Feb_08_1339,60.0099124555,MAFE4ImagesEEG,001,102953,
AFNE01.JPG,AFNE01.JPG,AFNE01.JPG,AFNE01.JPG,AFNE01.JPG,AFNE01.JPG,,,,,,,,,1,4,14,5,,,,,,,,,,,,,,,AMSA02.jpg,AMNE19.jpg,AMSA03.jpg,AMNE03.jpg,AMSA03.jpg,MS,2,num_2,16,num_2,0.933552440954,,,2018_Feb_08_1339,60.0099124555,MAFE4ImagesEEG,001,102953,
AFNE01.JPG,AFNE01.JPG,AFNE01.JPG,AFNE01.JPG,AFNE01.JPG,AFNE01.JPG,,,,,,,,,1,5,15,6,,,,,,,,,,,,,,,AMSA17.jpg,AMSA20.jpg,AMNE18.jpg,AMNE06.jpg,AMNE06.jpg,MN,1,num_4,16,num_4,1.0167506095,,,2018_Feb_08_1339,60.0099124555,MAFE4ImagesEEG,001,102953,
AFNE01.JPG,AFNE01.JPG,AFNE01.JPG,AFNE01.JPG,AFNE01.JPG,AFNE01.JPG,,,,,,,,,1,6,16,2,,,,,,,,,,,,,,,AMNE18.jpg,AMSA13.jpg,AMSA10.jpg,AMNE16.jpg,AMSA13.jpg,MS,2,num_6,32,num_2,1.15014159051,,,2018_Feb_08_1339,60.0099124555,MAFE4ImagesEEG,001,102953,
AFNE01.JPG,AFNE01.JPG,AFNE01.JPG,AFNE01.JPG,AFNE01.JPG,AFNE01.JPG,,,,,,,,,1,7,17,8,,,,,,,,,,,,,,,AMSA11.jpg,AMNE10.jpg,AMNE11.jpg,AMSA01.jpg,AMNE10.jpg,MN,1,num_6,16,num_6,0.616828164086,,,2018_Feb_08_1339,60.0099124555,MAFE4ImagesEEG,001,102953,
AFNE01.JPG,AFNE01.JPG,AFNE01.JPG,AFNE01.JPG,AFNE01.JPG,AFNE01.JPG,,,,,,,,,1,8,18,1,,,,,,,,,,,,,,,AMSA17.jpg,AMNE01.jpg,AMNE14.jpg,AMSA12.jpg,AMSA12.jpg,MS,2,num_4,16,num_4,0.75018193922,,,2018_Feb_08_1339,60.0099124555,MAFE4ImagesEEG,001,102953,
AFNE01.JPG,AFNE01.JPG,AFNE01.JPG,AFNE01.JPG,AFNE01.JPG,AFNE01.JPG,,,,,,,,,1,9,19,4,,,,,,,,,,,,,,,AMSA20.jpg,AMSA18.jpg,AMNE12.jpg,AMNE17.jpg,AMNE12.jpg,MN,1,num_2,16,num_2,1.16679212917,,,2018_Feb_08_1339,60.0099124555,MAFE4ImagesEEG,001,102953,
AFNE01.JPG,AFNE01.JPG,AFNE01.JPG,AFNE01.JPG,AFNE01.JPG,AFNE01.JPG,,,,,,,,,2,0,20,2,,,,,,,,,,,,,,,AMSA11.jpg,AMNE06.jpg,AMNE10.jpg,AMSA20.jpg,AMSA11.jpg,MS,2,num_8,16,num_8,0.650209747488,,,2018_Feb_08_1339,60.0099124555,MAFE4ImagesEEG,001,102953,
AFNE01.JPG,AFNE01.JPG,AFNE01.JPG,AFNE01.JPG,AFNE01.JPG,AFNE01.JPG,,,,,,,,,2,1,21,9,,,,,,,,,,,,,,,AMNE08.jpg,AMNE15.jpg,AMSA08.jpg,AMSA05.jpg,AMNE15.jpg,MN,1,num_6,16,num_6,0.750196693465,,,2018_Feb_08_1339,60.0099124555,MAFE4ImagesEEG,001,102953,
AFNE01.JPG,AFNE01.JPG,AFNE01.JPG,AFNE01.JPG,AFNE01.JPG,AFNE01.JPG,,,,,,,,,2,2,22,3,,,,,,,,,,,,,,,AMSA10.jpg,AMNE19.jpg,AMSA04.jpg,AMNE02.jpg,AMSA10.jpg,MS,2,num_8,32,num_2,0.750264048576,,,2018_Feb_08_1339,60.0099124555,MAFE4ImagesEEG,001,102953,
AFNE01.JPG,AFNE01.JPG,AFNE01.JPG,AFNE01.JPG,AFNE01.JPG,AFNE01.JPG,,,,,,,,,2,3,23,8,,,,,,,,,,,,,,,AMNE01.jpg,AMSA08.jpg,AMSA07.jpg,AMNE10.jpg,AMNE10.jpg,MN,1,num_4,32,num_2,1.45014540711,,,2018_Feb_08_1339,60.0099124555,MAFE4ImagesEEG,001,102953,
AFNE01.JPG,AFNE01.JPG,AFNE01.JPG,AFNE01.JPG,AFNE01.JPG,AFNE01.JPG,,,,,,,,,2,4,24,7,,,,,,,,,,,,,,,AMNE09.jpg,AMSA04.jpg,AMNE02.jpg,AMSA03.jpg,AMSA04.jpg,MS,2,num_6,16,num_6,0.400180640398,,,2018_Feb_08_1339,60.0099124555,MAFE4ImagesEEG,001,102953,
AFNE01.JPG,AFNE01.JPG,AFNE01.JPG,AFNE01.JPG,AFNE01.JPG,AFNE01.JPG,,,,,,,,,2,5,25,5,,,,,,,,,,,,,,,AMSA15.jpg,AMNE10.jpg,AMSA08.jpg,AMNE07.jpg,AMNE07.jpg,MN,1,num_4,32,num_6,0.850134245353,,,2018_Feb_08_1339,60.0099124555,MAFE4ImagesEEG,001,102953,
AFNE01.JPG,AFNE01.JPG,AFNE01.JPG,AFNE01.JPG,AFNE01.JPG,AFNE01.JPG,,,,,,,,,2,6,26,6,,,,,,,,,,,,,,,AMNE06.jpg,AMSA19.jpg,AMNE14.jpg,AMSA09.jpg,AMSA09.jpg,MS,2,num_4,32,num_6,0.866752710426,,,2018_Feb_08_1339,60.0099124555,MAFE4ImagesEEG,001,102953,
AFNE01.JPG,AFNE01.JPG,AFNE01.JPG,AFNE01.JPG,AFNE01.JPG,AFNE01.JPG,,,,,,,,,2,7,27,0,,,,,,,,,,,,,,,AMSA04.jpg,AMSA08.jpg,AMNE02.jpg,AMNE17.jpg,AMNE17.jpg,MN,1,num_4,32,num_6,0.716805808712,,,2018_Feb_08_1339,60.0099124555,MAFE4ImagesEEG,001,102953,
AFNE01.JPG,AFNE01.JPG,AFNE01.JPG,AFNE01.JPG,AFNE01.JPG,AFNE01.JPG,,,,,,,,,2,8,28,1,,,,,,,,,,,,,,,AMSA07.jpg,AMNE01.jpg,AMNE20.jpg,AMSA19.jpg,AMNE20.jpg,MN,1,num_2,16,num_2,0.833488517674,,,2018_Feb_08_1339,60.0099124555,MAFE4ImagesEEG,001,102953,
AFNE01.JPG,AFNE01.JPG,AFNE01.JPG,AFNE01.JPG,AFNE01.JPG,AFNE01.JPG,,,,,,,,,2,9,29,4,,,,,,,,,,,,,,,AMSA17.jpg,AMNE09.jpg,AMSA19.jpg,AMNE07.jpg,AMNE07.jpg,MN,1,num_4,32,num_8,1.16669077566,,,2018_Feb_08_1339,60.0099124555,MAFE4ImagesEEG,001,102953,
AFNE01.JPG,AFNE01.JPG,AFNE01.JPG,AFNE01.JPG,AFNE01.JPG,AFNE01.JPG,,,,,,,,,3,0,30,0,,,,,,,,,,,,,,,AMNE14.jpg,AMSA18.jpg,AMNE12.jpg,AMSA01.jpg,AMNE12.jpg,MN,1,num_2,32,num_8,0.950132096419,,,2018_Feb_08_1339,60.0099124555,MAFE4ImagesEEG,001,102953,
AFNE01.JPG,AFNE01.JPG,AFNE01.JPG,AFNE01.JPG,AFNE01.JPG,AFNE01.JPG,,,,,,,,,3,1,31,4,,,,,,,,,,,,,,,AMSA10.jpg,AMNE15.jpg,AMNE06.jpg,AMSA05.jpg,AMNE06.jpg,MN,1,num_2,16,num_2,1.00014176685,,,2018_Feb_08_1339,60.0099124555,MAFE4ImagesEEG,001,102953,
AFNE01.JPG,AFNE01.JPG,AFNE01.JPG,AFNE01.JPG,AFNE01.JPG,AFNE01.JPG,,,,,,,,,3,2,32,5,,,,,,,,,,,,,,,AMNE08.jpg,AMNE05.jpg,AMSA18.jpg,AMSA07.jpg,AMSA07.jpg,MS,2,num_4,16,num_4,0.51676873141,,,2018_Feb_08_1339,60.0099124555,MAFE4ImagesEEG,001,102953,
AFNE01.JPG,AFNE01.JPG,AFNE01.JPG,AFNE01.JPG,AFNE01.JPG,AFNE01.JPG,,,,,,,,,3,3,33,3,,,,,,,,,,,,,,,AMNE09.jpg,AMSA13.jpg,AMNE19.jpg,AMSA08.jpg,AMSA13.jpg,MS,2,num_6,16,num_6,0.650121864863,,,2018_Feb_08_1339,60.0099124555,MAFE4ImagesEEG,001,102953,
AFNE01.JPG,AFNE01.JPG,AFNE01.JPG,AFNE01.JPG,AFNE01.JPG,AFNE01.JPG,,,,,,,,,3,4,34,2,,,,,,,,,,,,,,,AMNE06.jpg,AMNE13.jpg,AMSA17.jpg,AMSA05.jpg,AMSA17.jpg,MS,2,num_2,16,num_2,0.967028321465,,,2018_Feb_08_1339,60.0099124555,MAFE4ImagesEEG,001,102953,
AFNE01.JPG,AFNE01.JPG,AFNE01.JPG,AFNE01.JPG,AFNE01.JPG,AFNE01.JPG,,,,,,,,,3,5,35,7,,,,,,,,,,,,,,,AMNE10.jpg,AMNE19.jpg,AMSA15.jpg,AMSA08.jpg,AMNE19.jpg,MN,1,num_6,16,num_6,0.850148357917,,,2018_Feb_08_1339,60.0099124555,MAFE4ImagesEEG,001,102953,
AFNE01.JPG,AFNE01.JPG,AFNE01.JPG,AFNE01.JPG,AFNE01.JPG,AFNE01.JPG,,,,,,,,,3,6,36,6,,,,,,,,,,,,,,,AMNE19.jpg,AMSA12.jpg,AMNE11.jpg,AMSA04.jpg,AMSA04.jpg,MS,2,num_4,16,num_4,1.60006183852,,,2018_Feb_08_1339,60.0099124555,MAFE4ImagesEEG,001,102953,
AFNE01.JPG,AFNE01.JPG,AFNE01.JPG,AFNE01.JPG,AFNE01.JPG,AFNE01.JPG,,,,,,,,,3,7,37,1,,,,,,,,,,,,,,,AMNE13.jpg,AMNE16.jpg,AMSA15.jpg,AMSA17.jpg,AMSA17.jpg,MS,2,num_4,16,num_4,0.950128247496,,,2018_Feb_08_1339,60.0099124555,MAFE4ImagesEEG,001,102953,
AFNE01.JPG,AFNE01.JPG,AFNE01.JPG,AFNE01.JPG,AFNE01.JPG,AFNE01.JPG,,,,,,,,,3,8,38,8,,,,,,,,,,,,,,,AMNE15.jpg,AMNE05.jpg,AMSA03.jpg,AMSA10.jpg,AMSA03.jpg,MS,2,num_2,16,num_2,0.933438258013,,,2018_Feb_08_1339,60.0099124555,MAFE4ImagesEEG,001,102953,
AFNE01.JPG,AFNE01.JPG,AFNE01.JPG,AFNE01.JPG,AFNE01.JPG,AFNE01.JPG,,,,,,,,,3,9,39,9,,,,,,,,,,,,,,,AMSA15.jpg,AMNE15.jpg,AMSA07.jpg,AMNE05.jpg,AMSA07.jpg,MS,2,num_2,32,num_6,0.833456443856,,,2018_Feb_08_1339,60.0099124555,MAFE4ImagesEEG,001,102953,
AFNE01.JPG,AFNE01.JPG,AFNE01.JPG,AFNE01.JPG,AFNE01.JPG,AFNE01.JPG,,,,,,,,,4,0,40,9,,,,,,,,,,,,,,,AMNE07.jpg,AMSA09.jpg,AMNE08.jpg,AMSA01.jpg,AMSA01.jpg,MS,2,num_4,16,num_4,0.600153890671,,,2018_Feb_08_1339,60.0099124555,MAFE4ImagesEEG,001,102953,
AFNE01.JPG,AFNE01.JPG,AFNE01.JPG,AFNE01.JPG,AFNE01.JPG,AFNE01.JPG,,,,,,,,,4,1,41,4,,,,,,,,,,,,,,,AMSA19.jpg,AMSA10.jpg,AMNE10.jpg,AMNE14.jpg,AMNE10.jpg,MN,1,num_2,32,num_6,0.933442427311,,,2018_Feb_08_1339,60.0099124555,MAFE4ImagesEEG,001,102953,
AFNE01.JPG,AFNE01.JPG,AFNE01.JPG,AFNE01.JPG,AFNE01.JPG,AFNE01.JPG,,,,,,,,,4,2,42,7,,,,,,,,,,,,,,,AMNE02.jpg,AMSA16.jpg,AMNE12.jpg,AMSA17.jpg,AMSA17.jpg,MS,2,num_4,16,num_4,0.783186012413,,,2018_Feb_08_1339,60.0099124555,MAFE4ImagesEEG,001,102953,
AFNE01.JPG,AFNE01.JPG,AFNE01.JPG,AFNE01.JPG,AFNE01.JPG,AFNE01.JPG,,,,,,,,,4,3,43,0,,,,,,,,,,,,,,,AMNE14.jpg,AMSA19.jpg,AMSA13.jpg,AMNE06.jpg,AMNE14.jpg,MN,1,num_8,32,num_2,1.31687630713,,,2018_Feb_08_1339,60.0099124555,MAFE4ImagesEEG,001,102953,
AFNE01.JPG,AFNE01.JPG,AFNE01.JPG,AFNE01.JPG,AFNE01.JPG,AFNE01.JPG,,,,,,,,,4,4,44,5,,,,,,,,,,,,,,,AMNE12.jpg,AMSA07.jpg,AMNE13.jpg,AMSA13.jpg,AMSA13.jpg,MS,2,num_4,32,num_8,1.50012236205,,,2018_Feb_08_1339,60.0099124555,MAFE4ImagesEEG,001,102953,
AFNE01.JPG,AFNE01.JPG,AFNE01.JPG,AFNE01.JPG,AFNE01.JPG,AFNE01.JPG,,,,,,,,,4,5,45,1,,,,,,,,,,,,,,,AMSA20.jpg,AMSA06.jpg,AMNE18.jpg,AMNE01.jpg,AMNE01.jpg,MN,1,num_4,16,num_4,0.783439075807,,,2018_Feb_08_1339,60.0099124555,MAFE4ImagesEEG,001,102953,
AFNE01.JPG,AFNE01.JPG,AFNE01.JPG,AFNE01.JPG,AFNE01.JPG,AFNE01.JPG,,,,,,,,,4,6,46,6,,,,,,,,,,,,,,,AMSA19.jpg,AMNE16.jpg,AMNE15.jpg,AMSA01.jpg,AMSA01.jpg,MS,2,num_4,16,num_4,0.516793428222,,,2018_Feb_08_1339,60.0099124555,MAFE4ImagesEEG,001,102953,
AFNE01.JPG,AFNE01.JPG,AFNE01.JPG,AFNE01.JPG,AFNE01.JPG,AFNE01.JPG,,,,,,,,,4,7,47,8,,,,,,,,,,,,,,,AMSA07.jpg,AMNE15.jpg,AMNE12.jpg,AMSA06.jpg,AMNE12.jpg,MN,1,num_2,16,num_2,1.16672894359,,,2018_Feb_08_1339,60.0099124555,MAFE4ImagesEEG,001,102953,
AFNE01.JPG,AFNE01.JPG,AFNE01.JPG,AFNE01.JPG,AFNE01.JPG,AFNE01.JPG,,,,,,,,,4,8,48,3,,,,,,,,,,,,,,,AMSA07.jpg,AMSA04.jpg,AMNE09.jpg,AMNE05.jpg,AMNE09.jpg,MN,1,num_2,32,num_4,1.56673670537,,,2018_Feb_08_1339,60.0099124555,MAFE4ImagesEEG,001,102953,
AFNE01.JPG,AFNE01.JPG,AFNE01.JPG,AFNE01.JPG,AFNE01.JPG,AFNE01.JPG,,,,,,,,,4,9,49,2,,,,,,,,,,,,,,,AMSA07.jpg,AMSA06.jpg,AMNE01.jpg,AMNE06.jpg,AMNE01.jpg,MN,1,num_2,16,num_2,0.550153201213,,,2018_Feb_08_1339,60.0099124555,MAFE4ImagesEEG,001,102953,
AFNE01.JPG,AFNE01.JPG,AFNE01.JPG,AFNE01.JPG,AFNE01.JPG,AFNE01.JPG,,,,,,,,,5,0,50,5,,,,,,,,,,,,,,,AMSA12.jpg,AMNE07.jpg,AMNE04.jpg,AMSA16.jpg,AMNE04.jpg,MN,1,num_2,16,num_2,0.433504169807,,,2018_Feb_08_1339,60.0099124555,MAFE4ImagesEEG,001,102953,
AFNE01.JPG,AFNE01.JPG,AFNE01.JPG,AFNE01.JPG,AFNE01.JPG,AFNE01.JPG,,,,,,,,,5,1,51,3,,,,,,,,,,,,,,,AMSA12.jpg,AMSA16.jpg,AMNE14.jpg,AMNE05.jpg,AMSA12.jpg,MS,2,num_8,32,num_6,1.91667930898,,,2018_Feb_08_1339,60.0099124555,MAFE4ImagesEEG,001,102953,
AFNE01.JPG,AFNE01.JPG,AFNE01.JPG,AFNE01.JPG,AFNE01.JPG,AFNE01.JPG,,,,,,,,,5,2,52,7,,,,,,,,,,,,,,,AMNE13.jpg,AMSA09.jpg,AMNE09.jpg,AMSA02.jpg,AMSA09.jpg,MS,2,num_6,16,num_6,1.30010035937,,,2018_Feb_08_1339,60.0099124555,MAFE4ImagesEEG,001,102953,
AFNE01.JPG,AFNE01.JPG,AFNE01.JPG,AFNE01.JPG,AFNE01.JPG,AFNE01.JPG,,,,,,,,,5,3,53,6,,,,,,,,,,,,,,,AMSA17.jpg,AMNE07.jpg,AMNE03.jpg,AMSA03.jpg,AMSA03.jpg,MS,2,num_4,16,num_4,1.1001129963,,,2018_Feb_08_1339,60.0099124555,MAFE4ImagesEEG,001,102953,
AFNE01.JPG,AFNE01.JPG,AFNE01.JPG,AFNE01.JPG,AFNE01.JPG,AFNE01.JPG,,,,,,,,,5,4,54,1,,,,,,,,,,,,,,,AMNE17.jpg,AMSA02.jpg,AMNE13.jpg,AMSA03.jpg,AMSA02.jpg,MS,2,num_6,16,num_6,0.550137805752,,,2018_Feb_08_1339,60.0099124555,MAFE4ImagesEEG,001,102953,
AFNE01.JPG,AFNE01.JPG,AFNE01.JPG,AFNE01.JPG,AFNE01.JPG,AFNE01.JPG,,,,,,,,,5,5,55,9,,,,,,,,,,,,,,,AMSA07.jpg,AMNE14.jpg,AMSA15.jpg,AMNE06.jpg,AMNE06.jpg,MN,1,num_4,16,num_4,0.850107944803,,,2018_Feb_08_1339,60.0099124555,MAFE4ImagesEEG,001,102953,
AFNE01.JPG,AFNE01.JPG,AFNE01.JPG,AFNE01.JPG,AFNE01.JPG,AFNE01.JPG,,,,,,,,,5,6,56,2,,,,,,,,,,,,,,,AMSA13.jpg,AMNE11.jpg,AMNE19.jpg,AMSA03.jpg,AMSA03.jpg,MS,2,num_4,16,num_4,0.700186381582,,,2018_Feb_08_1339,60.0099124555,MAFE4ImagesEEG,001,102953,
AFNE01.JPG,AFNE01.JPG,AFNE01.JPG,AFNE01.JPG,AFNE01.JPG,AFNE01.JPG,,,,,,,,,5,7,57,8,,,,,,,,,,,,,,,AMSA05.jpg,AMSA09.jpg,AMNE05.jpg,AMNE04.jpg,AMSA09.jpg,MS,2,num_6,32,num_4,0.7167910547,,,2018_Feb_08_1339,60.0099124555,MAFE4ImagesEEG,001,102953,
AFNE01.JPG,AFNE01.JPG,AFNE01.JPG,AFNE01.JPG,AFNE01.JPG,AFNE01.JPG,,,,,,,,,5,8,58,4,,,,,,,,,,,,,,,AMNE14.jpg,AMSA17.jpg,AMNE09.jpg,AMSA16.jpg,AMSA16.jpg,MS,2,num_4,16,num_4,0.733497402165,,,2018_Feb_08_1339,60.0099124555,MAFE4ImagesEEG,001,102953,
AFNE01.JPG,AFNE01.JPG,AFNE01.JPG,AFNE01.JPG,AFNE01.JPG,AFNE01.JPG,,,,,,,,,5,9,59,0,,,,,,,,,,,,,,,AMSA03.jpg,AMNE18.jpg,AMNE07.jpg,AMSA07.jpg,AMSA07.jpg,MS,2,num_4,16,num_4,0.48347631353,,,2018_Feb_08_1339,60.0099124555,MAFE4ImagesEEG,001,102953,
,,,,,,,,,,,,,,,,,,,,,,,,,,,,,,,,,,,,,,,,,,,space,11.8492454768,2018_Feb_08_1339,60.0099124555,MAFE4ImagesEEG,001,102953,
AFNE01.JPG,AFNE01.JPG,AFNE01.JPG,AFNE01.JPG,AFNE01.JPG,AFNE01.JPG,,,,,,,,,,,,,0,0,0,6,,,,,,,,,,,AFSA03.jpg,AFNE05.jpg,AFSA19.jpg,AFNE07.jpg,AFSA19.jpg,FS,4,num_2,32,num_4,1.65010133758,,,2018_Feb_08_1339,60.0099124555,MAFE4ImagesEEG,001,102953,
AFNE01.JPG,AFNE01.JPG,AFNE01.JPG,AFNE01.JPG,AFNE01.JPG,AFNE01.JPG,,,,,,,,,,,,,0,1,1,3,,,,,,,,,,,AFNE20.jpg,AFNE10.jpg,AFSA01.jpg,AFSA07.jpg,AFSA07.jpg,FS,4,num_4,16,num_4,0.433515395503,,,2018_Feb_08_1339,60.0099124555,MAFE4ImagesEEG,001,102953,
AFNE01.JPG,AFNE01.JPG,AFNE01.JPG,AFNE01.JPG,AFNE01.JPG,AFNE01.JPG,,,,,,,,,,,,,0,2,2,2,,,,,,,,,,,AFNE19.jpg,AFNE12.jpg,AFSA03.jpg,AFSA14.jpg,AFSA03.jpg,FS,4,num_2,16,num_2,0.800157931866,,,2018_Feb_08_1339,60.0099124555,MAFE4ImagesEEG,001,102953,
AFNE01.JPG,AFNE01.JPG,AFNE01.JPG,AFNE01.JPG,AFNE01.JPG,AFNE01.JPG,,,,,,,,,,,,,0,3,3,9,,,,,,,,,,,AFNE05.jpg,AFSA17.jpg,AFSA15.jpg,AFNE20.jpg,AFSA17.jpg,FS,4,num_6,16,num_6,0.400131246541,,,2018_Feb_08_1339,60.0099124555,MAFE4ImagesEEG,001,102953,
AFNE01.JPG,AFNE01.JPG,AFNE01.JPG,AFNE01.JPG,AFNE01.JPG,AFNE01.JPG,,,,,,,,,,,,,0,4,4,1,,,,,,,,,,,AFNE06.jpg,AFSA01.jpg,AFSA03.jpg,AFNE09.jpg,AFSA03.jpg,FS,4,num_2,16,num_2,1.31681664963,,,2018_Feb_08_1339,60.0099124555,MAFE4ImagesEEG,001,102953,
AFNE01.JPG,AFNE01.JPG,AFNE01.JPG,AFNE01.JPG,AFNE01.JPG,AFNE01.JPG,,,,,,,,,,,,,0,5,5,5,,,,,,,,,,,AFNE16.jpg,AFNE15.jpg,AFSA19.jpg,AFSA06.jpg,AFNE16.jpg,FN,3,num_8,32,num_4,0.716760584386,,,2018_Feb_08_1339,60.0099124555,MAFE4ImagesEEG,001,102953,
AFNE01.JPG,AFNE01.JPG,AFNE01.JPG,AFNE01.JPG,AFNE01.JPG,AFNE01.JPG,,,,,,,,,,,,,0,6,6,8,,,,,,,,,,,AFNE01.jpg,AFNE08.jpg,AFSA20.jpg,AFSA17.jpg,AFNE08.jpg,FN,3,num_6,16,num_6,1.11681517423,,,2018_Feb_08_1339,60.0099124555,MAFE4ImagesEEG,001,102953,
AFNE01.JPG,AFNE01.JPG,AFNE01.JPG,AFNE01.JPG,AFNE01.JPG,AFNE01.JPG,,,,,,,,,,,,,0,7,7,4,,,,,,,,,,,AFNE04.jpg,AFSA16.jpg,AFNE13.jpg,AFSA12.jpg,AFSA16.jpg,FS,4,num_6,16,num_6,0.766794310184,,,2018_Feb_08_1339,60.0099124555,MAFE4ImagesEEG,001,102953,
AFNE01.JPG,AFNE01.JPG,AFNE01.JPG,AFNE01.JPG,AFNE01.JPG,AFNE01.JPG,,,,,,,,,,,,,0,8,8,0,,,,,,,,,,,AFSA12.jpg,AFNE13.jpg,AFNE02.jpg,AFSA20.jpg,AFNE02.jpg,FN,3,num_2,32,num_6,0.533483417938,,,2018_Feb_08_1339,60.0099124555,MAFE4ImagesEEG,001,102953,
AFNE01.JPG,AFNE01.JPG,AFNE01.JPG,AFNE01.JPG,AFNE01.JPG,AFNE01.JPG,,,,,,,,,,,,,0,9,9,7,,,,,,,,,,,AFNE03.jpg,AFNE05.jpg,AFSA01.jpg,AFSA14.jpg,AFSA14.jpg,FS,4,num_4,16,num_4,0.733357239049,,,2018_Feb_08_1339,60.0099124555,MAFE4ImagesEEG,001,102953,
AFNE01.JPG,AFNE01.JPG,AFNE01.JPG,AFNE01.JPG,AFNE01.JPG,AFNE01.JPG,,,,,,,,,,,,,1,0,10,5,,,,,,,,,,,AFNE02.jpg,AFSA19.jpg,AFSA09.jpg,AFNE04.jpg,AFSA09.jpg,FS,4,num_2,16,num_2,1.03349608718,,,2018_Feb_08_1339,60.0099124555,MAFE4ImagesEEG,001,102953,
AFNE01.JPG,AFNE01.JPG,AFNE01.JPG,AFNE01.JPG,AFNE01.JPG,AFNE01.JPG,,,,,,,,,,,,,1,1,11,7,,,,,,,,,,,AFSA12.jpg,AFNE20.jpg,AFSA14.jpg,AFNE13.jpg,AFNE20.jpg,FN,3,num_6,32,num_4,1.18349013734,,,2018_Feb_08_1339,60.0099124555,MAFE4ImagesEEG,001,102953,
AFNE01.JPG,AFNE01.JPG,AFNE01.JPG,AFNE01.JPG,AFNE01.JPG,AFNE01.JPG,,,,,,,,,,,,,1,2,12,6,,,,,,,,,,,AFNE15.jpg,AFSA20.jpg,AFNE04.jpg,AFSA17.jpg,AFNE15.jpg,FN,3,num_8,16,num_8,0.800161780789,,,2018_Feb_08_1339,60.0099124555,MAFE4ImagesEEG,001,102953,
AFNE01.JPG,AFNE01.JPG,AFNE01.JPG,AFNE01.JPG,AFNE01.JPG,AFNE01.JPG,,,,,,,,,,,,,1,3,13,9,,,,,,,,,,,AFSA08.jpg,AFSA13.jpg,AFNE10.jpg,AFNE04.jpg,AFSA13.jpg,FS,4,num_6,16,num_6,0.400172942551,,,2018_Feb_08_1339,60.0099124555,MAFE4ImagesEEG,001,102953,
AFNE01.JPG,AFNE01.JPG,AFNE01.JPG,AFNE01.JPG,AFNE01.JPG,AFNE01.JPG,,,,,,,,,,,,,1,4,14,3,,,,,,,,,,,AFNE15.jpg,AFSA06.jpg,AFNE17.jpg,AFSA04.jpg,AFNE15.jpg,FN,3,num_8,16,num_8,1.08345732582,,,2018_Feb_08_1339,60.0099124555,MAFE4ImagesEEG,001,102953,
AFNE01.JPG,AFNE01.JPG,AFNE01.JPG,AFNE01.JPG,AFNE01.JPG,AFNE01.JPG,,,,,,,,,,,,,1,5,15,2,,,,,,,,,,,AFSA08.jpg,AFNE16.jpg,AFNE06.jpg,AFSA17.jpg,AFNE06.jpg,FN,3,num_2,16,num_2,0.750348403119,,,2018_Feb_08_1339,60.0099124555,MAFE4ImagesEEG,001,102953,
AFNE01.JPG,AFNE01.JPG,AFNE01.JPG,AFNE01.JPG,AFNE01.JPG,AFNE01.JPG,,,,,,,,,,,,,1,6,16,0,,,,,,,,,,,AFNE03.jpg,AFSA02.jpg,AFSA08.jpg,AFNE10.jpg,AFSA08.jpg,FS,4,num_2,32,num_6,0.566778401379,,,2018_Feb_08_1339,60.0099124555,MAFE4ImagesEEG,001,102953,
AFNE01.JPG,AFNE01.JPG,AFNE01.JPG,AFNE01.JPG,AFNE01.JPG,AFNE01.JPG,,,,,,,,,,,,,1,7,17,1,,,,,,,,,,,AFNE05.jpg,AFSA12.jpg,AFSA18.jpg,AFNE01.jpg,AFNE01.jpg,FN,3,num_4,16,num_4,1.20009865938,,,2018_Feb_08_1339,60.0099124555,MAFE4ImagesEEG,001,102953,
AFNE01.JPG,AFNE01.JPG,AFNE01.JPG,AFNE01.JPG,AFNE01.JPG,AFNE01.JPG,,,,,,,,,,,,,1,8,18,4,,,,,,,,,,,AFNE02.jpg,AFSA13.jpg,AFSA09.jpg,AFNE10.jpg,AFNE10.jpg,FN,3,num_4,16,num_4,0.683485165937,,,2018_Feb_08_1339,60.0099124555,MAFE4ImagesEEG,001,102953,
AFNE01.JPG,AFNE01.JPG,AFNE01.JPG,AFNE01.JPG,AFNE01.JPG,AFNE01.JPG,,,,,,,,,,,,,1,9,19,8,,,,,,,,,,,AFSA13.jpg,AFSA06.jpg,AFNE06.jpg,AFNE14.jpg,AFNE06.jpg,FN,3,num_2,16,num_2,1.23343950883,,,2018_Feb_08_1339,60.0099124555,MAFE4ImagesEEG,001,102953,
AFNE01.JPG,AFNE01.JPG,AFNE01.JPG,AFNE01.JPG,AFNE01.JPG,AFNE01.JPG,,,,,,,,,,,,,2,0,20,0,,,,,,,,,,,AFSA15.jpg,AFNE03.jpg,AFNE04.jpg,AFSA03.jpg,AFSA03.jpg,FS,4,num_4,16,num_4,1.26676335884,,,2018_Feb_08_1339,60.0099124555,MAFE4ImagesEEG,001,102953,
AFNE01.JPG,AFNE01.JPG,AFNE01.JPG,AFNE01.JPG,AFNE01.JPG,AFNE01.JPG,,,,,,,,,,,,,2,1,21,1,,,,,,,,,,,AFNE11.jpg,AFSA02.jpg,AFNE18.jpg,AFSA09.jpg,AFSA09.jpg,FS,4,num_4,16,num_4,1.1334548078,,,2018_Feb_08_1339,60.0099124555,MAFE4ImagesEEG,001,102953,
AFNE01.JPG,AFNE01.JPG,AFNE01.JPG,AFNE01.JPG,AFNE01.JPG,AFNE01.JPG,,,,,,,,,,,,,2,2,22,7,,,,,,,,,,,AFSA01.jpg,AFSA18.jpg,AFNE14.jpg,AFNE08.jpg,AFNE08.jpg,FN,3,num_4,32,num_2,1.23341449094,,,2018_Feb_08_1339,60.0099124555,MAFE4ImagesEEG,001,102953,
AFNE01.JPG,AFNE01.JPG,AFNE01.JPG,AFNE01.JPG,AFNE01.JPG,AFNE01.JPG,,,,,,,,,,,,,2,3,23,8,,,,,,,,,,,AFSA16.jpg,AFNE13.jpg,AFNE07.jpg,AFSA14.jpg,AFNE07.jpg,FN,3,num_2,16,num_2,1.23343886714,,,2018_Feb_08_1339,60.0099124555,MAFE4ImagesEEG,001,102953,
AFNE01.JPG,AFNE01.JPG,AFNE01.JPG,AFNE01.JPG,AFNE01.JPG,AFNE01.JPG,,,,,,,,,,,,,2,4,24,2,,,,,,,,,,,AFSA06.jpg,AFNE17.jpg,AFNE04.jpg,AFSA20.jpg,AFSA20.jpg,FS,4,num_4,32,num_8,0.966830104589,,,2018_Feb_08_1339,60.0099124555,MAFE4ImagesEEG,001,102953,
AFNE01.JPG,AFNE01.JPG,AFNE01.JPG,AFNE01.JPG,AFNE01.JPG,AFNE01.JPG,,,,,,,,,,,,,2,5,25,9,,,,,,,,,,,AFNE07.jpg,AFSA12.jpg,AFSA06.jpg,AFNE20.jpg,AFSA12.jpg,FS,4,num_6,16,num_6,0.400251844432,,,2018_Feb_08_1339,60.0099124555,MAFE4ImagesEEG,001,102953,
AFNE01.JPG,AFNE01.JPG,AFNE01.JPG,AFNE01.JPG,AFNE01.JPG,AFNE01.JPG,,,,,,,,,,,,,2,6,26,6,,,,,,,,,,,AFNE18.jpg,AFNE01.jpg,AFSA20.jpg,AFSA03.jpg,AFNE18.jpg,FN,3,num_8,32,num_4,0.650243745884,,,2018_Feb_08_1339,60.0099124555,MAFE4ImagesEEG,001,102953,
AFNE01.JPG,AFNE01.JPG,AFNE01.JPG,AFNE01.JPG,AFNE01.JPG,AFNE01.JPG,,,,,,,,,,,,,2,7,27,5,,,,,,,,,,,AFSA08.jpg,AFNE04.jpg,AFSA17.jpg,AFNE08.jpg,AFSA17.jpg,FS,4,num_2,32,num_4,0.633505003527,,,2018_Feb_08_1339,60.0099124555,MAFE4ImagesEEG,001,102953,
AFNE01.JPG,AFNE01.JPG,AFNE01.JPG,AFNE01.JPG,AFNE01.JPG,AFNE01.JPG,,,,,,,,,,,,,2,8,28,3,,,,,,,,,,,AFSA17.jpg,AFNE18.jpg,AFNE05.jpg,AFSA10.jpg,AFNE05.jpg,FN,3,num_2,16,num_2,0.76678148075,,,2018_Feb_08_1339,60.0099124555,MAFE4ImagesEEG,001,102953,
AFNE01.JPG,AFNE01.JPG,AFNE01.JPG,AFNE01.JPG,AFNE01.JPG,AFNE01.JPG,,,,,,,,,,,,,2,9,29,4,,,,,,,,,,,AFSA14.jpg,AFNE11.jpg,AFNE12.jpg,AFSA02.jpg,AFNE11.jpg,FN,3,num_6,16,num_6,1.36671887222,,,2018_Feb_08_1339,60.0099124555,MAFE4ImagesEEG,001,102953,
AFNE01.JPG,AFNE01.JPG,AFNE01.JPG,AFNE01.JPG,AFNE01.JPG,AFNE01.JPG,,,,,,,,,,,,,3,0,30,4,,,,,,,,,,,AFNE19.jpg,AFSA12.jpg,AFNE05.jpg,AFSA11.jpg,AFSA11.jpg,FS,4,num_4,16,num_4,0.650134373922,,,2018_Feb_08_1339,60.0099124555,MAFE4ImagesEEG,001,102953,
AFNE01.JPG,AFNE01.JPG,AFNE01.JPG,AFNE01.JPG,AFNE01.JPG,AFNE01.JPG,,,,,,,,,,,,,3,1,31,5,,,,,,,,,,,AFNE11.jpg,AFSA03.jpg,AFNE14.jpg,AFSA09.jpg,AFNE11.jpg,FN,3,num_8,32,num_2,1.36678141658,,,2018_Feb_08_1339,60.0099124555,MAFE4ImagesEEG,001,102953,
AFNE01.JPG,AFNE01.JPG,AFNE01.JPG,AFNE01.JPG,AFNE01.JPG,AFNE01.JPG,,,,,,,,,,,,,3,2,32,3,,,,,,,,,,,AFSA06.jpg,AFSA05.jpg,AFNE10.jpg,AFNE11.jpg,AFSA06.jpg,FS,4,num_8,32,num_4,0.983465889469,,,2018_Feb_08_1339,60.0099124555,MAFE4ImagesEEG,001,102953,
AFNE01.JPG,AFNE01.JPG,AFNE01.JPG,AFNE01.JPG,AFNE01.JPG,AFNE01.JPG,,,,,,,,,,,,,3,3,33,7,,,,,,,,,,,AFSA17.jpg,AFNE01.jpg,AFSA16.jpg,AFNE12.jpg,AFSA17.jpg,FS,4,num_8,32,num_6,0.633487683954,,,2018_Feb_08_1339,60.0099124555,MAFE4ImagesEEG,001,102953,
AFNE01.JPG,AFNE01.JPG,AFNE01.JPG,AFNE01.JPG,AFNE01.JPG,AFNE01.JPG,,,,,,,,,,,,,3,4,34,2,,,,,,,,,,,AFSA15.jpg,AFSA12.jpg,AFNE04.jpg,AFNE03.jpg,AFNE03.jpg,FN,3,num_4,16,num_4,0.700135383988,,,2018_Feb_08_1339,60.0099124555,MAFE4ImagesEEG,001,102953,
AFNE01.JPG,AFNE01.JPG,AFNE01.JPG,AFNE01.JPG,AFNE01.JPG,AFNE01.JPG,,,,,,,,,,,,,3,5,35,0,,,,,,,,,,,AFNE14.jpg,AFNE17.jpg,AFSA15.jpg,AFSA20.jpg,AFSA20.jpg,FS,4,num_4,16,num_4,0.666828212328,,,2018_Feb_08_1339,60.0099124555,MAFE4ImagesEEG,001,102953,
AFNE01.JPG,AFNE01.JPG,AFNE01.JPG,AFNE01.JPG,AFNE01.JPG,AFNE01.JPG,,,,,,,,,,,,,3,6,36,8,,,,,,,,,,,AFSA04.jpg,AFNE03.jpg,AFSA15.jpg,AFNE12.jpg,AFNE03.jpg,FN,3,num_6,16,num_6,0.816830922617,,,2018_Feb_08_1339,60.0099124555,MAFE4ImagesEEG,001,102953,
AFNE01.JPG,AFNE01.JPG,AFNE01.JPG,AFNE01.JPG,AFNE01.JPG,AFNE01.JPG,,,,,,,,,,,,,3,7,37,1,,,,,,,,,,,AFSA17.jpg,AFNE19.jpg,AFSA06.jpg,AFNE04.jpg,AFSA17.jpg,FS,4,num_8,32,num_6,0.63342032861,,,2018_Feb_08_1339,60.0099124555,MAFE4ImagesEEG,001,102953,
AFNE01.JPG,AFNE01.JPG,AFNE01.JPG,AFNE01.JPG,AFNE01.JPG,AFNE01.JPG,,,,,,,,,,,,,3,8,38,6,,,,,,,,,,,AFSA18.jpg,AFNE10.jpg,AFSA03.jpg,AFNE12.jpg,AFSA03.jpg,FS,4,num_2,32,num_8,0.983403024729,,,2018_Feb_08_1339,60.0099124555,MAFE4ImagesEEG,001,102953,
AFNE01.JPG,AFNE01.JPG,AFNE01.JPG,AFNE01.JPG,AFNE01.JPG,AFNE01.JPG,,,,,,,,,,,,,3,9,39,9,,,,,,,,,,,AFSA04.jpg,AFSA18.jpg,AFNE15.jpg,AFNE18.jpg,AFSA04.jpg,FS,4,num_8,32,num_2,1.2167716499,,,2018_Feb_08_1339,60.0099124555,MAFE4ImagesEEG,001,102953,
AFNE01.JPG,AFNE01.JPG,AFNE01.JPG,AFNE01.JPG,AFNE01.JPG,AFNE01.JPG,,,,,,,,,,,,,4,0,40,7,,,,,,,,,,,AFSA16.jpg,AFNE18.jpg,AFSA01.jpg,AFNE16.jpg,AFSA01.jpg,FS,4,num_2,16,num_2,1.20015799603,,,2018_Feb_08_1339,60.0099124555,MAFE4ImagesEEG,001,102953,
AFNE01.JPG,AFNE01.JPG,AFNE01.JPG,AFNE01.JPG,AFNE01.JPG,AFNE01.JPG,,,,,,,,,,,,,4,1,41,2,,,,,,,,,,,AFNE02.jpg,AFSA15.jpg,AFSA12.jpg,AFNE13.jpg,AFSA12.jpg,FS,4,num_2,16,num_2,1.16675139521,,,2018_Feb_08_1339,60.0099124555,MAFE4ImagesEEG,001,102953,
AFNE01.JPG,AFNE01.JPG,AFNE01.JPG,AFNE01.JPG,AFNE01.JPG,AFNE01.JPG,,,,,,,,,,,,,4,2,42,8,,,,,,,,,,,AFSA08.jpg,AFNE16.jpg,AFNE06.jpg,AFSA17.jpg,AFSA17.jpg,FS,4,num_4,32,num_8,1.65006733919,,,2018_Feb_08_1339,60.0099124555,MAFE4ImagesEEG,001,102953,
AFNE01.JPG,AFNE01.JPG,AFNE01.JPG,AFNE01.JPG,AFNE01.JPG,AFNE01.JPG,,,,,,,,,,,,,4,3,43,1,,,,,,,,,,,AFNE19.jpg,AFSA05.jpg,AFSA04.jpg,AFNE18.jpg,AFNE19.jpg,FN,3,num_8,32,num_6,1.25005572848,,,2018_Feb_08_1339,60.0099124555,MAFE4ImagesEEG,001,102953,
AFNE01.JPG,AFNE01.JPG,AFNE01.JPG,AFNE01.JPG,AFNE01.JPG,AFNE01.JPG,,,,,,,,,,,,,4,4,44,9,,,,,,,,,,,AFSA11.jpg,AFSA17.jpg,AFNE19.jpg,AFNE09.jpg,AFNE19.jpg,FN,3,num_2,32,num_8,1.21668023919,,,2018_Feb_08_1339,60.0099124555,MAFE4ImagesEEG,001,102953,
AFNE01.JPG,AFNE01.JPG,AFNE01.JPG,AFNE01.JPG,AFNE01.JPG,AFNE01.JPG,,,,,,,,,,,,,4,5,45,4,,,,,,,,,,,AFSA15.jpg,AFSA03.jpg,AFNE07.jpg,AFNE13.jpg,AFSA03.jpg,FS,4,num_6,16,num_6,0.8167818496,,,2018_Feb_08_1339,60.0099124555,MAFE4ImagesEEG,001,102953,
AFNE01.JPG,AFNE01.JPG,AFNE01.JPG,AFNE01.JPG,AFNE01.JPG,AFNE01.JPG,,,,,,,,,,,,,4,6,46,5,,,,,,,,,,,AFNE09.jpg,AFNE08.jpg,AFSA11.jpg,AFSA02.jpg,AFSA02.jpg,FS,4,num_4,16,num_4,0.666792610427,,,2018_Feb_08_1339,60.0099124555,MAFE4ImagesEEG,001,102953,
AFNE01.JPG,AFNE01.JPG,AFNE01.JPG,AFNE01.JPG,AFNE01.JPG,AFNE01.JPG,,,,,,,,,,,,,4,7,47,3,,,,,,,,,,,AFNE04.jpg,AFSA03.jpg,AFSA18.jpg,AFNE18.jpg,AFNE04.jpg,FN,3,num_8,16,num_8,1.35011516139,,,2018_Feb_08_1339,60.0099124555,MAFE4ImagesEEG,001,102953,
AFNE01.JPG,AFNE01.JPG,AFNE01.JPG,AFNE01.JPG,AFNE01.JPG,AFNE01.JPG,,,,,,,,,,,,,4,8,48,6,,,,,,,,,,,AFNE10.jpg,AFSA01.jpg,AFNE01.jpg,AFSA20.jpg,AFNE10.jpg,FN,3,num_8,16,num_8,0.800148951123,,,2018_Feb_08_1339,60.0099124555,MAFE4ImagesEEG,001,102953,
AFNE01.JPG,AFNE01.JPG,AFNE01.JPG,AFNE01.JPG,AFNE01.JPG,AFNE01.JPG,,,,,,,,,,,,,4,9,49,0,,,,,,,,,,,AFNE02.jpg,AFNE18.jpg,AFSA08.jpg,AFSA03.jpg,AFNE02.jpg,FN,3,num_8,32,num_4,0.633497626754,,,2018_Feb_08_1339,60.0099124555,MAFE4ImagesEEG,001,102953,
AFNE01.JPG,AFNE01.JPG,AFNE01.JPG,AFNE01.JPG,AFNE01.JPG,AFNE01.JPG,,,,,,,,,,,,,5,0,50,3,,,,,,,,,,,AFNE14.jpg,AFSA08.jpg,AFNE02.jpg,AFSA02.jpg,AFNE14.jpg,FN,3,num_8,32,num_6,0.933478991734,,,2018_Feb_08_1339,60.0099124555,MAFE4ImagesEEG,001,102953,
AFNE01.JPG,AFNE01.JPG,AFNE01.JPG,AFNE01.JPG,AFNE01.JPG,AFNE01.JPG,,,,,,,,,,,,,5,1,51,0,,,,,,,,,,,AFNE03.jpg,AFSA08.jpg,AFSA15.jpg,AFNE12.jpg,AFSA15.jpg,FS,4,num_2,32,num_4,1.03327156953,,,2018_Feb_08_1339,60.0099124555,MAFE4ImagesEEG,001,102953,
AFNE01.JPG,AFNE01.JPG,AFNE01.JPG,AFNE01.JPG,AFNE01.JPG,AFNE01.JPG,,,,,,,,,,,,,5,2,52,5,,,,,,,,,,,AFNE14.jpg,AFSA03.jpg,AFSA10.jpg,AFNE12.jpg,AFSA10.jpg,FS,4,num_2,32,num_6,0.53346673958,,,2018_Feb_08_1339,60.0099124555,MAFE4ImagesEEG,001,102953,
AFNE01.JPG,AFNE01.JPG,AFNE01.JPG,AFNE01.JPG,AFNE01.JPG,AFNE01.JPG,,,,,,,,,,,,,5,3,53,6,,,,,,,,,,,AFNE10.jpg,AFSA14.jpg,AFSA13.jpg,AFNE08.jpg,AFNE08.jpg,FN,3,num_4,32,num_2,1.16679277061,,,2018_Feb_08_1339,60.0099124555,MAFE4ImagesEEG,001,102953,
AFNE01.JPG,AFNE01.JPG,AFNE01.JPG,AFNE01.JPG,AFNE01.JPG,AFNE01.JPG,,,,,,,,,,,,,5,4,54,8,,,,,,,,,,,AFSA17.jpg,AFSA06.jpg,AFNE04.jpg,AFNE12.jpg,AFSA17.jpg,FS,4,num_8,16,num_8,1.21677966858,,,2018_Feb_08_1339,60.0099124555,MAFE4ImagesEEG,001,102953,
AFNE01.JPG,AFNE01.JPG,AFNE01.JPG,AFNE01.JPG,AFNE01.JPG,AFNE01.JPG,,,,,,,,,,,,,5,5,55,2,,,,,,,,,,,AFNE04.jpg,AFSA03.jpg,AFSA01.jpg,AFNE09.jpg,AFSA01.jpg,FS,4,num_2,16,num_2,0.566820418462,,,2018_Feb_08_1339,60.0099124555,MAFE4ImagesEEG,001,102953,
AFNE01.JPG,AFNE01.JPG,AFNE01.JPG,AFNE01.JPG,AFNE01.JPG,AFNE01.JPG,,,,,,,,,,,,,5,6,56,4,,,,,,,,,,,AFSA11.jpg,AFNE03.jpg,AFNE14.jpg,AFSA02.jpg,AFSA02.jpg,FS,4,num_4,32,num_6,0.816771265119,,,2018_Feb_08_1339,60.0099124555,MAFE4ImagesEEG,001,102953,
AFNE01.JPG,AFNE01.JPG,AFNE01.JPG,AFNE01.JPG,AFNE01.JPG,AFNE01.JPG,,,,,,,,,,,,,5,7,57,1,,,,,,,,,,,AFNE06.jpg,AFSA19.jpg,AFNE12.jpg,AFSA18.jpg,AFSA18.jpg,FS,4,num_4,16,num_4,0.716755131958,,,2018_Feb_08_1339,60.0099124555,MAFE4ImagesEEG,001,102953,
AFNE01.JPG,AFNE01.JPG,AFNE01.JPG,AFNE01.JPG,AFNE01.JPG,AFNE01.JPG,,,,,,,,,,,,,5,8,58,9,,,,,,,,,,,AFNE02.jpg,AFNE01.jpg,AFSA17.jpg,AFSA01.jpg,AFSA01.jpg,FS,4,num_4,16,num_4,0.600158701651,,,2018_Feb_08_1339,60.0099124555,MAFE4ImagesEEG,001,102953,
AFNE01.JPG,AFNE01.JPG,AFNE01.JPG,AFNE01.JPG,AFNE01.JPG,AFNE01.JPG,,,,,,,,,,,,,5,9,59,7,,,,,,,,,,,AFNE06.jpg,AFSA11.jpg,AFSA05.jpg,AFNE20.jpg,AFSA11.jpg,FS,4,num_6,16,num_6,0.600199114997,,,2018_Feb_08_1339,60.0099124555,MAFE4ImagesEEG,001,102953,
,,,,,,,,,,,,,,,,,,,,,,,,,,,,,,,,,,,,,,,,,,,space,6.24966891692,2018_Feb_08_1339,60.0099124555,MAFE4ImagesEEG,001,102953,
AFNE01.JPG,AFNE01.JPG,AFNE01.JPG,AFNE01.JPG,AFNE01.JPG,AFNE01.JPG,,,,,,,,,,,,,,,,,0,0,0,9,,,,,,,AMSA06.jpg,AMNE17.jpg,AMNE04.jpg,AMSA10.jpg,AMSA10.jpg,MS,2,num_4,32,num_8,1.46669651684,,,2018_Feb_08_1339,60.0099124555,MAFE4ImagesEEG,001,102953,
AFNE01.JPG,AFNE01.JPG,AFNE01.JPG,AFNE01.JPG,AFNE01.JPG,AFNE01.JPG,,,,,,,,,,,,,,,,,0,1,1,1,,,,,,,AMSA04.jpg,AMNE14.jpg,AMNE20.jpg,AMSA09.jpg,AMSA04.jpg,MS,2,num_8,32,num_2,0.933419655077,,,2018_Feb_08_1339,60.0099124555,MAFE4ImagesEEG,001,102953,
AFNE01.JPG,AFNE01.JPG,AFNE01.JPG,AFNE01.JPG,AFNE01.JPG,AFNE01.JPG,,,,,,,,,,,,,,,,,0,2,2,8,,,,,,,AMSA19.jpg,AMNE09.jpg,AMSA18.jpg,AMNE08.jpg,AMSA19.jpg,MS,2,num_8,32,num_4,0.533459041733,,,2018_Feb_08_1339,60.0099124555,MAFE4ImagesEEG,001,102953,
AFNE01.JPG,AFNE01.JPG,AFNE01.JPG,AFNE01.JPG,AFNE01.JPG,AFNE01.JPG,,,,,,,,,,,,,,,,,0,3,3,6,,,,,,,AMNE17.jpg,AMSA10.jpg,AMSA03.jpg,AMNE04.jpg,AMSA10.jpg,MS,2,num_6,16,num_6,0.516804974759,,,2018_Feb_08_1339,60.0099124555,MAFE4ImagesEEG,001,102953,
AFNE01.JPG,AFNE01.JPG,AFNE01.JPG,AFNE01.JPG,AFNE01.JPG,AFNE01.JPG,,,,,,,,,,,,,,,,,0,4,4,0,,,,,,,AMNE11.jpg,AMNE19.jpg,AMSA11.jpg,AMSA16.jpg,AMNE11.jpg,MN,1,num_8,32,num_6,0.466832189355,,,2018_Feb_08_1339,60.0099124555,MAFE4ImagesEEG,001,102953,
AFNE01.JPG,AFNE01.JPG,AFNE01.JPG,AFNE01.JPG,AFNE01.JPG,AFNE01.JPG,,,,,,,,,,,,,,,,,0,5,5,5,,,,,,,AMSA13.jpg,AMNE10.jpg,AMSA06.jpg,AMNE18.jpg,AMSA13.jpg,MS,2,num_8,32,num_4,1.33339085267,,,2018_Feb_08_1339,60.0099124555,MAFE4ImagesEEG,001,102953,
AFNE01.JPG,AFNE01.JPG,AFNE01.JPG,AFNE01.JPG,AFNE01.JPG,AFNE01.JPG,,,,,,,,,,,,,,,,,0,6,6,4,,,,,,,AMSA07.jpg,AMNE09.jpg,AMSA01.jpg,AMNE12.jpg,AMSA01.jpg,MS,2,num_2,16,num_2,0.633521361509,,,2018_Feb_08_1339,60.0099124555,MAFE4ImagesEEG,001,102953,
AFNE01.JPG,AFNE01.JPG,AFNE01.JPG,AFNE01.JPG,AFNE01.JPG,AFNE01.JPG,,,,,,,,,,,,,,,,,0,7,7,7,,,,,,,AMNE12.jpg,AMNE02.jpg,AMSA09.jpg,AMSA03.jpg,AMNE12.jpg,MN,1,num_8,16,num_8,1.01672430895,,,2018_Feb_08_1339,60.0099124555,MAFE4ImagesEEG,001,102953,
AFNE01.JPG,AFNE01.JPG,AFNE01.JPG,AFNE01.JPG,AFNE01.JPG,AFNE01.JPG,,,,,,,,,,,,,,,,,0,8,8,3,,,,,,,AMNE12.jpg,AMSA16.jpg,AMNE05.jpg,AMSA14.jpg,AMNE05.jpg,MN,1,num_2,16,num_2,1.04983807472,,,2018_Feb_08_1339,60.0099124555,MAFE4ImagesEEG,001,102953,
AFNE01.JPG,AFNE01.JPG,AFNE01.JPG,AFNE01.JPG,AFNE01.JPG,AFNE01.JPG,,,,,,,,,,,,,,,,,0,9,9,2,,,,,,,AMNE01.jpg,AMSA02.jpg,AMNE18.jpg,AMSA08.jpg,AMSA08.jpg,MS,2,num_4,32,num_8,0.916766229318,,,2018_Feb_08_1339,60.0099124555,MAFE4ImagesEEG,001,102953,
AFNE01.JPG,AFNE01.JPG,AFNE01.JPG,AFNE01.JPG,AFNE01.JPG,AFNE01.JPG,,,,,,,,,,,,,,,,,1,0,10,4,,,,,,,AMNE20.jpg,AMNE07.jpg,AMSA14.jpg,AMSA06.jpg,AMNE20.jpg,MN,1,num_8,32,num_4,0.783467621543,,,2018_Feb_08_1339,60.0099124555,MAFE4ImagesEEG,001,102953,
AFNE01.JPG,AFNE01.JPG,AFNE01.JPG,AFNE01.JPG,AFNE01.JPG,AFNE01.JPG,,,,,,,,,,,,,,,,,1,1,11,6,,,,,,,AMSA15.jpg,AMNE12.jpg,AMSA02.jpg,AMNE16.jpg,AMSA02.jpg,MS,2,num_2,16,num_2,1.31684487476,,,2018_Feb_08_1339,60.0099124555,MAFE4ImagesEEG,001,102953,
AFNE01.JPG,AFNE01.JPG,AFNE01.JPG,AFNE01.JPG,AFNE01.JPG,AFNE01.JPG,,,,,,,,,,,,,,,,,1,2,12,3,,,,,,,AMSA10.jpg,AMNE04.jpg,AMNE17.jpg,AMSA11.jpg,AMSA10.jpg,MS,2,num_8,32,num_4,0.716777262976,,,2018_Feb_08_1339,60.0099124555,MAFE4ImagesEEG,001,102953,
AFNE01.JPG,AFNE01.JPG,AFNE01.JPG,AFNE01.JPG,AFNE01.JPG,AFNE01.JPG,,,,,,,,,,,,,,,,,1,3,13,8,,,,,,,AMSA18.jpg,AMNE04.jpg,AMNE03.jpg,AMSA10.jpg,AMNE03.jpg,MN,1,num_2,32,num_8,0.883484075544,,,2018_Feb_08_1339,60.0099124555,MAFE4ImagesEEG,001,102953,
AFNE01.JPG,AFNE01.JPG,AFNE01.JPG,AFNE01.JPG,AFNE01.JPG,AFNE01.JPG,,,,,,,,,,,,,,,,,1,4,14,7,,,,,,,AMNE11.jpg,AMSA04.jpg,AMNE17.jpg,AMSA15.jpg,AMSA04.jpg,MS,2,num_6,16,num_6,0.450187103357,,,2018_Feb_08_1339,60.0099124555,MAFE4ImagesEEG,001,102953,
AFNE01.JPG,AFNE01.JPG,AFNE01.JPG,AFNE01.JPG,AFNE01.JPG,AFNE01.JPG,,,,,,,,,,,,,,,,,1,5,15,1,,,,,,,AMSA19.jpg,AMNE12.jpg,AMNE17.jpg,AMSA07.jpg,AMNE12.jpg,MN,1,num_6,16,num_6,0.966755693313,,,2018_Feb_08_1339,60.0099124555,MAFE4ImagesEEG,001,102953,
AFNE01.JPG,AFNE01.JPG,AFNE01.JPG,AFNE01.JPG,AFNE01.JPG,AFNE01.JPG,,,,,,,,,,,,,,,,,1,6,16,0,,,,,,,AMSA19.jpg,AMNE02.jpg,AMNE01.jpg,AMSA04.jpg,AMSA04.jpg,MS,2,num_4,16,num_4,0.833455802174,,,2018_Feb_08_1339,60.0099124555,MAFE4ImagesEEG,001,102953,
AFNE01.JPG,AFNE01.JPG,AFNE01.JPG,AFNE01.JPG,AFNE01.JPG,AFNE01.JPG,,,,,,,,,,,,,,,,,1,7,17,5,,,,,,,AMNE17.jpg,AMSA02.jpg,AMNE10.jpg,AMSA06.jpg,AMNE17.jpg,MN,1,num_8,32,num_2,1.46683347248,,,2018_Feb_08_1339,60.0099124555,MAFE4ImagesEEG,001,102953,
AFNE01.JPG,AFNE01.JPG,AFNE01.JPG,AFNE01.JPG,AFNE01.JPG,AFNE01.JPG,,,,,,,,,,,,,,,,,1,8,18,2,,,,,,,AMSA18.jpg,AMSA11.jpg,AMNE01.jpg,AMNE17.jpg,AMSA11.jpg,MS,2,num_6,32,num_8,0.900111841736,,,2018_Feb_08_1339,60.0099124555,MAFE4ImagesEEG,001,102953,
AFNE01.JPG,AFNE01.JPG,AFNE01.JPG,AFNE01.JPG,AFNE01.JPG,AFNE01.JPG,,,,,,,,,,,,,,,,,1,9,19,9,,,,,,,AMSA16.jpg,AMSA01.jpg,AMNE20.jpg,AMNE12.jpg,AMNE12.jpg,MN,1,num_4,16,num_4,0.650000946363,,,2018_Feb_08_1339,60.0099124555,MAFE4ImagesEEG,001,102953,
AFNE01.JPG,AFNE01.JPG,AFNE01.JPG,AFNE01.JPG,AFNE01.JPG,AFNE01.JPG,,,,,,,,,,,,,,,,,2,0,20,4,,,,,,,AMNE04.jpg,AMSA04.jpg,AMSA08.jpg,AMNE14.jpg,AMNE04.jpg,MN,1,num_8,32,num_6,1.03345407033,,,2018_Feb_08_1339,60.0099124555,MAFE4ImagesEEG,001,102953,
AFNE01.JPG,AFNE01.JPG,AFNE01.JPG,AFNE01.JPG,AFNE01.JPG,AFNE01.JPG,,,,,,,,,,,,,,,,,2,1,21,5,,,,,,,AMSA06.jpg,AMNE06.jpg,AMSA17.jpg,AMNE11.jpg,AMSA17.jpg,MS,2,num_2,32,num_8,1.11675038491,,,2018_Feb_08_1339,60.0099124555,MAFE4ImagesEEG,001,102953,
AFNE01.JPG,AFNE01.JPG,AFNE01.JPG,AFNE01.JPG,AFNE01.JPG,AFNE01.JPG,,,,,,,,,,,,,,,,,2,2,22,6,,,,,,,AMNE19.jpg,AMSA06.jpg,AMNE04.jpg,AMSA01.jpg,AMSA06.jpg,MS,2,num_6,16,num_6,1.05013796617,,,2018_Feb_08_1339,60.0099124555,MAFE4ImagesEEG,001,102953,
AFNE01.JPG,AFNE01.JPG,AFNE01.JPG,AFNE01.JPG,AFNE01.JPG,AFNE01.JPG,,,,,,,,,,,,,,,,,2,3,23,7,,,,,,,AMSA05.jpg,AMNE11.jpg,AMNE17.jpg,AMSA03.jpg,AMSA05.jpg,MS,2,num_8,16,num_8,1.0336192511,,,2018_Feb_08_1339,60.0099124555,MAFE4ImagesEEG,001,102953,
AFNE01.JPG,AFNE01.JPG,AFNE01.JPG,AFNE01.JPG,AFNE01.JPG,AFNE01.JPG,,,,,,,,,,,,,,,,,2,4,24,9,,,,,,,AMNE19.jpg,AMNE14.jpg,AMSA05.jpg,AMSA01.jpg,AMNE19.jpg,MN,1,num_8,32,num_2,1.08343166648,,,2018_Feb_08_1339,60.0099124555,MAFE4ImagesEEG,001,102953,
AFNE01.JPG,AFNE01.JPG,AFNE01.JPG,AFNE01.JPG,AFNE01.JPG,AFNE01.JPG,,,,,,,,,,,,,,,,,2,5,25,8,,,,,,,AMSA05.jpg,AMSA20.jpg,AMNE17.jpg,AMNE19.jpg,AMSA05.jpg,MS,2,num_8,32,num_4,1.06672499841,,,2018_Feb_08_1339,60.0099124555,MAFE4ImagesEEG,001,102953,
AFNE01.JPG,AFNE01.JPG,AFNE01.JPG,AFNE01.JPG,AFNE01.JPG,AFNE01.JPG,,,,,,,,,,,,,,,,,2,6,26,1,,,,,,,AMSA10.jpg,AMNE11.jpg,AMNE16.jpg,AMSA09.jpg,AMNE16.jpg,MN,1,num_2,32,num_6,1.08343198732,,,2018_Feb_08_1339,60.0099124555,MAFE4ImagesEEG,001,102953,
AFNE01.JPG,AFNE01.JPG,AFNE01.JPG,AFNE01.JPG,AFNE01.JPG,AFNE01.JPG,,,,,,,,,,,,,,,,,2,7,27,2,,,,,,,AMNE18.jpg,AMSA05.jpg,AMNE19.jpg,AMSA15.jpg,AMNE18.jpg,MN,1,num_8,32,num_2,1.13347276929,,,2018_Feb_08_1339,60.0099124555,MAFE4ImagesEEG,001,102953,
AFNE01.JPG,AFNE01.JPG,AFNE01.JPG,AFNE01.JPG,AFNE01.JPG,AFNE01.JPG,,,,,,,,,,,,,,,,,2,8,28,3,,,,,,,AMNE15.jpg,AMNE16.jpg,AMSA13.jpg,AMSA03.jpg,AMSA03.jpg,MS,2,num_4,16,num_4,0.583479617257,,,2018_Feb_08_1339,60.0099124555,MAFE4ImagesEEG,001,102953,
AFNE01.JPG,AFNE01.JPG,AFNE01.JPG,AFNE01.JPG,AFNE01.JPG,AFNE01.JPG,,,,,,,,,,,,,,,,,2,9,29,0,,,,,,,AMNE06.jpg,AMNE10.jpg,AMSA16.jpg,AMSA17.jpg,AMNE10.jpg,MN,1,num_6,16,num_6,0.50012781471,,,2018_Feb_08_1339,60.0099124555,MAFE4ImagesEEG,001,102953,
AFNE01.JPG,AFNE01.JPG,AFNE01.JPG,AFNE01.JPG,AFNE01.JPG,AFNE01.JPG,,,,,,,,,,,,,,,,,3,0,30,3,,,,,,,AMNE16.jpg,AMSA11.jpg,AMSA19.jpg,AMNE12.jpg,AMNE16.jpg,MN,1,num_8,32,num_4,0.966795785585,,,2018_Feb_08_1339,60.0099124555,MAFE4ImagesEEG,001,102953,
AFNE01.JPG,AFNE01.JPG,AFNE01.JPG,AFNE01.JPG,AFNE01.JPG,AFNE01.JPG,,,,,,,,,,,,,,,,,3,1,31,6,,,,,,,AMNE01.jpg,AMNE19.jpg,AMSA14.jpg,AMSA07.jpg,AMNE01.jpg,MN,1,num_8,16,num_8,1.33341907756,,,2018_Feb_08_1339,60.0099124555,MAFE4ImagesEEG,001,102953,
AFNE01.JPG,AFNE01.JPG,AFNE01.JPG,AFNE01.JPG,AFNE01.JPG,AFNE01.JPG,,,,,,,,,,,,,,,,,3,2,32,7,,,,,,,AMSA17.jpg,AMNE06.jpg,AMNE05.jpg,AMSA06.jpg,AMNE05.jpg,MN,1,num_2,32,num_6,1.20014612889,,,2018_Feb_08_1339,60.0099124555,MAFE4ImagesEEG,001,102953,
AFNE01.JPG,AFNE01.JPG,AFNE01.JPG,AFNE01.JPG,AFNE01.JPG,AFNE01.JPG,,,,,,,,,,,,,,,,,3,3,33,8,,,,,,,AMSA09.jpg,AMNE04.jpg,AMNE11.jpg,AMSA18.jpg,AMSA09.jpg,MS,2,num_8,16,num_8,0.883467396954,,,2018_Feb_08_1339,60.0099124555,MAFE4ImagesEEG,001,102953,
AFNE01.JPG,AFNE01.JPG,AFNE01.JPG,AFNE01.JPG,AFNE01.JPG,AFNE01.JPG,,,,,,,,,,,,,,,,,3,4,34,4,,,,,,,AMNE11.jpg,AMNE04.jpg,AMSA12.jpg,AMSA02.jpg,AMNE04.jpg,MN,1,num_6,16,num_6,0.849979649065,,,2018_Feb_08_1339,60.0099124555,MAFE4ImagesEEG,001,102953,
AFNE01.JPG,AFNE01.JPG,AFNE01.JPG,AFNE01.JPG,AFNE01.JPG,AFNE01.JPG,,,,,,,,,,,,,,,,,3,5,35,9,,,,,,,AMNE12.jpg,AMNE20.jpg,AMSA15.jpg,AMSA12.jpg,AMSA12.jpg,MS,2,num_4,16,num_4,1.11676129,,,2018_Feb_08_1339,60.0099124555,MAFE4ImagesEEG,001,102953,
AFNE01.JPG,AFNE01.JPG,AFNE01.JPG,AFNE01.JPG,AFNE01.JPG,AFNE01.JPG,,,,,,,,,,,,,,,,,3,6,36,1,,,,,,,AMNE01.jpg,AMSA08.jpg,AMSA02.jpg,AMNE19.jpg,AMSA08.jpg,MS,2,num_6,16,num_6,0.633320257999,,,2018_Feb_08_1339,60.0099124555,MAFE4ImagesEEG,001,102953,
AFNE01.JPG,AFNE01.JPG,AFNE01.JPG,AFNE01.JPG,AFNE01.JPG,AFNE01.JPG,,,,,,,,,,,,,,,,,3,7,37,5,,,,,,,AMNE18.jpg,AMSA13.jpg,AMSA08.jpg,AMNE04.jpg,AMNE04.jpg,MN,1,num_4,32,num_2,0.900145198451,,,2018_Feb_08_1339,60.0099124555,MAFE4ImagesEEG,001,102953,
AFNE01.JPG,AFNE01.JPG,AFNE01.JPG,AFNE01.JPG,AFNE01.JPG,AFNE01.JPG,,,,,,,,,,,,,,,,,3,8,38,2,,,,,,,AMNE13.jpg,AMSA09.jpg,AMSA19.jpg,AMNE20.jpg,AMSA19.jpg,MS,2,num_2,16,num_2,1.15012266673,,,2018_Feb_08_1339,60.0099124555,MAFE4ImagesEEG,001,102953,
AFNE01.JPG,AFNE01.JPG,AFNE01.JPG,AFNE01.JPG,AFNE01.JPG,AFNE01.JPG,,,,,,,,,,,,,,,,,3,9,39,0,,,,,,,AMSA09.jpg,AMNE12.jpg,AMNE19.jpg,AMSA03.jpg,AMNE12.jpg,MN,1,num_6,16,num_6,0.950154869119,,,2018_Feb_08_1339,60.0099124555,MAFE4ImagesEEG,001,102953,
AFNE01.JPG,AFNE01.JPG,AFNE01.JPG,AFNE01.JPG,AFNE01.JPG,AFNE01.JPG,,,,,,,,,,,,,,,,,4,0,40,1,,,,,,,AMNE14.jpg,AMNE01.jpg,AMSA02.jpg,AMSA14.jpg,AMSA14.jpg,MS,2,num_4,32,num_8,0.700110045727,,,2018_Feb_08_1339,60.0099124555,MAFE4ImagesEEG,001,102953,
AFNE01.JPG,AFNE01.JPG,AFNE01.JPG,AFNE01.JPG,AFNE01.JPG,AFNE01.JPG,,,,,,,,,,,,,,,,,4,1,41,0,,,,,,,AMNE18.jpg,AMNE03.jpg,AMSA05.jpg,AMSA18.jpg,AMNE03.jpg,MN,1,num_6,16,num_6,1.20006786846,,,2018_Feb_08_1339,60.0099124555,MAFE4ImagesEEG,001,102953,
AFNE01.JPG,AFNE01.JPG,AFNE01.JPG,AFNE01.JPG,AFNE01.JPG,AFNE01.JPG,,,,,,,,,,,,,,,,,4,2,42,9,,,,,,,AMNE16.jpg,AMSA15.jpg,AMNE19.jpg,AMSA05.jpg,AMSA05.jpg,MS,2,num_4,32,num_2,1.0667615626,,,2018_Feb_08_1339,60.0099124555,MAFE4ImagesEEG,001,102953,
AFNE01.JPG,AFNE01.JPG,AFNE01.JPG,AFNE01.JPG,AFNE01.JPG,AFNE01.JPG,,,,,,,,,,,,,,,,,4,3,43,7,,,,,,,AMNE11.jpg,AMSA07.jpg,AMSA04.jpg,AMNE04.jpg,AMSA04.jpg,MS,2,num_2,16,num_2,0.983371592127,,,2018_Feb_08_1339,60.0099124555,MAFE4ImagesEEG,001,102953,
AFNE01.JPG,AFNE01.JPG,AFNE01.JPG,AFNE01.JPG,AFNE01.JPG,AFNE01.JPG,,,,,,,,,,,,,,,,,4,4,44,3,,,,,,,AMSA04.jpg,AMSA01.jpg,AMNE10.jpg,AMNE16.jpg,AMSA04.jpg,MS,2,num_8,16,num_8,1.00009365589,,,2018_Feb_08_1339,60.0099124555,MAFE4ImagesEEG,001,102953,
AFNE01.JPG,AFNE01.JPG,AFNE01.JPG,AFNE01.JPG,AFNE01.JPG,AFNE01.JPG,,,,,,,,,,,,,,,,,4,5,45,8,,,,,,,AMNE13.jpg,AMSA13.jpg,AMSA12.jpg,AMNE07.jpg,AMNE13.jpg,MN,1,num_8,32,num_6,0.933425107505,,,2018_Feb_08_1339,60.0099124555,MAFE4ImagesEEG,001,102953,
AFNE01.JPG,AFNE01.JPG,AFNE01.JPG,AFNE01.JPG,AFNE01.JPG,AFNE01.JPG,,,,,,,,,,,,,,,,,4,6,46,6,,,,,,,AMNE10.jpg,AMSA01.jpg,AMNE07.jpg,AMSA02.jpg,AMSA01.jpg,MS,2,num_6,16,num_6,0.483538857661,,,2018_Feb_08_1339,60.0099124555,MAFE4ImagesEEG,001,102953,
AFNE01.JPG,AFNE01.JPG,AFNE01.JPG,AFNE01.JPG,AFNE01.JPG,AFNE01.JPG,,,,,,,,,,,,,,,,,4,7,47,4,,,,,,,AMSA14.jpg,AMNE12.jpg,AMSA05.jpg,AMNE18.jpg,AMNE18.jpg,MN,1,num_4,32,num_2,1.43343360699,,,2018_Feb_08_1339,60.0099124555,MAFE4ImagesEEG,001,102953,
AFNE01.JPG,AFNE01.JPG,AFNE01.JPG,AFNE01.JPG,AFNE01.JPG,AFNE01.JPG,,,,,,,,,,,,,,,,,4,8,48,5,,,,,,,AMNE10.jpg,AMSA06.jpg,AMNE05.jpg,AMSA20.jpg,AMNE05.jpg,MN,1,num_2,16,num_2,0.650129241869,,,2018_Feb_08_1339,60.0099124555,MAFE4ImagesEEG,001,102953,
AFNE01.JPG,AFNE01.JPG,AFNE01.JPG,AFNE01.JPG,AFNE01.JPG,AFNE01.JPG,,,,,,,,,,,,,,,,,4,9,49,2,,,,,,,AMNE02.jpg,AMNE16.jpg,AMSA19.jpg,AMSA02.jpg,AMNE02.jpg,MN,1,num_8,32,num_6,1.40005491045,,,2018_Feb_08_1339,60.0099124555,MAFE4ImagesEEG,001,102953,
AFNE01.JPG,AFNE01.JPG,AFNE01.JPG,AFNE01.JPG,AFNE01.JPG,AFNE01.JPG,,,,,,,,,,,,,,,,,5,0,50,8,,,,,,,AMNE19.jpg,AMSA08.jpg,AMSA10.jpg,AMNE20.jpg,AMNE19.jpg,MN,1,num_8,16,num_8,1.00010359869,,,2018_Feb_08_1339,60.0099124555,MAFE4ImagesEEG,001,102953,
AFNE01.JPG,AFNE01.JPG,AFNE01.JPG,AFNE01.JPG,AFNE01.JPG,AFNE01.JPG,,,,,,,,,,,,,,,,,5,1,51,7,,,,,,,AMSA09.jpg,AMNE11.jpg,AMSA15.jpg,AMNE15.jpg,AMNE11.jpg,MN,1,num_6,16,num_6,0.866834178101,,,2018_Feb_08_1339,60.0099124555,MAFE4ImagesEEG,001,102953,
AFNE01.JPG,AFNE01.JPG,AFNE01.JPG,AFNE01.JPG,AFNE01.JPG,AFNE01.JPG,,,,,,,,,,,,,,,,,5,2,52,9,,,,,,,AMNE12.jpg,AMSA13.jpg,AMSA04.jpg,AMNE08.jpg,AMNE08.jpg,MN,1,num_4,16,num_4,0.766772500006,,,2018_Feb_08_1339,60.0099124555,MAFE4ImagesEEG,001,102953,
AFNE01.JPG,AFNE01.JPG,AFNE01.JPG,AFNE01.JPG,AFNE01.JPG,AFNE01.JPG,,,,,,,,,,,,,,,,,5,3,53,6,,,,,,,AMSA08.jpg,AMNE15.jpg,AMNE11.jpg,AMSA06.jpg,AMNE11.jpg,MN,1,num_2,16,num_2,1.90011408716,,,2018_Feb_08_1339,60.0099124555,MAFE4ImagesEEG,001,102953,
AFNE01.JPG,AFNE01.JPG,AFNE01.JPG,AFNE01.JPG,AFNE01.JPG,AFNE01.JPG,,,,,,,,,,,,,,,,,5,4,54,2,,,,,,,AMNE02.jpg,AMNE19.jpg,AMSA04.jpg,AMSA01.jpg,AMSA04.jpg,MS,2,num_2,16,num_2,1.56674247864,,,2018_Feb_08_1339,60.0099124555,MAFE4ImagesEEG,001,102953,
AFNE01.JPG,AFNE01.JPG,AFNE01.JPG,AFNE01.JPG,AFNE01.JPG,AFNE01.JPG,,,,,,,,,,,,,,,,,5,5,55,4,,,,,,,AMSA14.jpg,AMSA11.jpg,AMNE20.jpg,AMNE09.jpg,AMSA14.jpg,MS,2,num_8,16,num_8,0.966791295214,,,2018_Feb_08_1339,60.0099124555,MAFE4ImagesEEG,001,102953,
AFNE01.JPG,AFNE01.JPG,AFNE01.JPG,AFNE01.JPG,AFNE01.JPG,AFNE01.JPG,,,,,,,,,,,,,,,,,5,6,56,5,,,,,,,AMSA17.jpg,AMNE18.jpg,AMSA20.jpg,AMNE07.jpg,AMSA20.jpg,MS,2,num_2,16,num_2,0.600045801606,,,2018_Feb_08_1339,60.0099124555,MAFE4ImagesEEG,001,102953,
AFNE01.JPG,AFNE01.JPG,AFNE01.JPG,AFNE01.JPG,AFNE01.JPG,AFNE01.JPG,,,,,,,,,,,,,,,,,5,7,57,3,,,,,,,AMNE02.jpg,AMSA15.jpg,AMSA16.jpg,AMNE09.jpg,AMSA16.jpg,MS,2,num_2,16,num_2,1.38342105015,,,2018_Feb_08_1339,60.0099124555,MAFE4ImagesEEG,001,102953,
AFNE01.JPG,AFNE01.JPG,AFNE01.JPG,AFNE01.JPG,AFNE01.JPG,AFNE01.JPG,,,,,,,,,,,,,,,,,5,8,58,1,,,,,,,AMNE08.jpg,AMSA09.jpg,AMSA17.jpg,AMNE10.jpg,AMSA09.jpg,MS,2,num_6,16,num_6,0.666784912581,,,2018_Feb_08_1339,60.0099124555,MAFE4ImagesEEG,001,102953,
AFNE01.JPG,AFNE01.JPG,AFNE01.JPG,AFNE01.JPG,AFNE01.JPG,AFNE01.JPG,,,,,,,,,,,,,,,,,5,9,59,0,,,,,,,AMSA18.jpg,AMNE12.jpg,AMSA10.jpg,AMNE09.jpg,AMNE09.jpg,MN,1,num_4,16,num_4,0.916808567243,,,2018_Feb_08_1339,60.0099124555,MAFE4ImagesEEG,001,102953,
,,,,,,,,,,,,,,,,,,,,,,,,,,,,,,,,,,,,,,,,,,,space,17.8654684701,2018_Feb_08_1339,60.0099124555,MAFE4ImagesEEG,001,102953,
AFNE01.JPG,AFNE01.JPG,AFNE01.JPG,AFNE01.JPG,AFNE01.JPG,AFNE01.JPG,,,,,,,,,,,,,,,,,,,,,0,0,0,1,,,AFNE09.jpg,AFNE20.jpg,AFSA06.jpg,AFSA04.jpg,AFNE20.jpg,FN,3,num_6,16,num_6,0.766857816605,,,2018_Feb_08_1339,60.0099124555,MAFE4ImagesEEG,001,102953,
AFNE01.JPG,AFNE01.JPG,AFNE01.JPG,AFNE01.JPG,AFNE01.JPG,AFNE01.JPG,,,,,,,,,,,,,,,,,,,,,0,1,1,9,,,AFSA08.jpg,AFNE20.jpg,AFNE18.jpg,AFSA01.jpg,AFNE20.jpg,FN,3,num_6,16,num_6,0.833462217124,,,2018_Feb_08_1339,60.0099124555,MAFE4ImagesEEG,001,102953,
AFNE01.JPG,AFNE01.JPG,AFNE01.JPG,AFNE01.JPG,AFNE01.JPG,AFNE01.JPG,,,,,,,,,,,,,,,,,,,,,0,2,2,5,,,AFSA07.jpg,AFSA19.jpg,AFNE16.jpg,AFNE02.jpg,AFSA19.jpg,FS,4,num_6,16,num_6,0.467107062927,,,2018_Feb_08_1339,60.0099124555,MAFE4ImagesEEG,001,102953,
AFNE01.JPG,AFNE01.JPG,AFNE01.JPG,AFNE01.JPG,AFNE01.JPG,AFNE01.JPG,,,,,,,,,,,,,,,,,,,,,0,3,3,4,,,AFNE16.jpg,AFSA09.jpg,AFSA15.jpg,AFNE11.jpg,AFNE11.jpg,FN,3,num_4,16,num_4,1.00013054092,,,2018_Feb_08_1339,60.0099124555,MAFE4ImagesEEG,001,102953,
AFNE01.JPG,AFNE01.JPG,AFNE01.JPG,AFNE01.JPG,AFNE01.JPG,AFNE01.JPG,,,,,,,,,,,,,,,,,,,,,0,4,4,6,,,AFSA17.jpg,AFNE07.jpg,AFNE09.jpg,AFSA01.jpg,AFNE09.jpg,FN,3,num_2,16,num_2,2.30002979655,,,2018_Feb_08_1339,60.0099124555,MAFE4ImagesEEG,001,102953,
AFNE01.JPG,AFNE01.JPG,AFNE01.JPG,AFNE01.JPG,AFNE01.JPG,AFNE01.JPG,,,,,,,,,,,,,,,,,,,,,0,5,5,8,,,AFNE15.jpg,AFSA05.jpg,AFNE17.jpg,AFSA01.jpg,AFSA01.jpg,FS,4,num_4,16,num_4,1.01675093011,,,2018_Feb_08_1339,60.0099124555,MAFE4ImagesEEG,001,102953,
AFNE01.JPG,AFNE01.JPG,AFNE01.JPG,AFNE01.JPG,AFNE01.JPG,AFNE01.JPG,,,,,,,,,,,,,,,,,,,,,0,6,6,0,,,AFNE13.jpg,AFSA10.jpg,AFNE20.jpg,AFSA08.jpg,AFSA08.jpg,FS,4,num_4,16,num_4,0.566808871692,,,2018_Feb_08_1339,60.0099124555,MAFE4ImagesEEG,001,102953,
AFNE01.JPG,AFNE01.JPG,AFNE01.JPG,AFNE01.JPG,AFNE01.JPG,AFNE01.JPG,,,,,,,,,,,,,,,,,,,,,0,7,7,2,,,AFSA06.jpg,AFSA02.jpg,AFNE14.jpg,AFNE06.jpg,AFSA06.jpg,FS,4,num_8,32,num_4,0.900166688254,,,2018_Feb_08_1339,60.0099124555,MAFE4ImagesEEG,001,102953,
AFNE01.JPG,AFNE01.JPG,AFNE01.JPG,AFNE01.JPG,AFNE01.JPG,AFNE01.JPG,,,,,,,,,,,,,,,,,,,,,0,8,8,7,,,AFSA12.jpg,AFNE18.jpg,AFSA09.jpg,AFNE14.jpg,AFNE14.jpg,FN,3,num_4,32,num_8,1.20012720511,,,2018_Feb_08_1339,60.0099124555,MAFE4ImagesEEG,001,102953,
AFNE01.JPG,AFNE01.JPG,AFNE01.JPG,AFNE01.JPG,AFNE01.JPG,AFNE01.JPG,,,,,,,,,,,,,,,,,,,,,0,9,9,3,,,AFSA12.jpg,AFSA11.jpg,AFNE11.jpg,AFNE01.jpg,AFSA11.jpg,FS,4,num_6,16,num_6,0.516816200688,,,2018_Feb_08_1339,60.0099124555,MAFE4ImagesEEG,001,102953,
AFNE01.JPG,AFNE01.JPG,AFNE01.JPG,AFNE01.JPG,AFNE01.JPG,AFNE01.JPG,,,,,,,,,,,,,,,,,,,,,1,0,10,6,,,AFNE04.jpg,AFNE20.jpg,AFSA05.jpg,AFSA08.jpg,AFSA08.jpg,FS,4,num_4,32,num_2,0.933454294922,,,2018_Feb_08_1339,60.0099124555,MAFE4ImagesEEG,001,102953,
AFNE01.JPG,AFNE01.JPG,AFNE01.JPG,AFNE01.JPG,AFNE01.JPG,AFNE01.JPG,,,,,,,,,,,,,,,,,,,,,1,1,11,4,,,AFSA02.jpg,AFSA20.jpg,AFNE15.jpg,AFNE09.jpg,AFNE09.jpg,FN,3,num_4,16,num_4,1.3999715182,,,2018_Feb_08_1339,60.0099124555,MAFE4ImagesEEG,001,102953,
AFNE01.JPG,AFNE01.JPG,AFNE01.JPG,AFNE01.JPG,AFNE01.JPG,AFNE01.JPG,,,,,,,,,,,,,,,,,,,,,1,2,12,2,,,AFNE13.jpg,AFNE19.jpg,AFSA09.jpg,AFSA13.jpg,AFSA13.jpg,FS,4,num_4,16,num_4,1.01680353144,,,2018_Feb_08_1339,60.0099124555,MAFE4ImagesEEG,001,102953,
AFNE01.JPG,AFNE01.JPG,AFNE01.JPG,AFNE01.JPG,AFNE01.JPG,AFNE01.JPG,,,,,,,,,,,,,,,,,,,,,1,3,13,9,,,AFNE05.jpg,AFNE17.jpg,AFSA15.jpg,AFSA01.jpg,AFSA15.jpg,FS,4,num_2,32,num_4,0.850175941596,,,2018_Feb_08_1339,60.0099124555,MAFE4ImagesEEG,001,102953,
AFNE01.JPG,AFNE01.JPG,AFNE01.JPG,AFNE01.JPG,AFNE01.JPG,AFNE01.JPG,,,,,,,,,,,,,,,,,,,,,1,4,14,5,,,AFNE06.jpg,AFSA11.jpg,AFNE11.jpg,AFSA20.jpg,AFSA20.jpg,FS,4,num_4,16,num_4,0.600165758049,,,2018_Feb_08_1339,60.0099124555,MAFE4ImagesEEG,001,102953,
AFNE01.JPG,AFNE01.JPG,AFNE01.JPG,AFNE01.JPG,AFNE01.JPG,AFNE01.JPG,,,,,,,,,,,,,,,,,,,,,1,5,15,3,,,AFSA03.jpg,AFSA01.jpg,AFNE02.jpg,AFNE12.jpg,AFSA01.jpg,FS,4,num_6,32,num_8,1.10010529868,,,2018_Feb_08_1339,60.0099124555,MAFE4ImagesEEG,001,102953,
AFNE01.JPG,AFNE01.JPG,AFNE01.JPG,AFNE01.JPG,AFNE01.JPG,AFNE01.JPG,,,,,,,,,,,,,,,,,,,,,1,6,16,8,,,AFNE09.jpg,AFNE06.jpg,AFSA09.jpg,AFSA04.jpg,AFSA04.jpg,FS,4,num_4,16,num_4,0.866790878354,,,2018_Feb_08_1339,60.0099124555,MAFE4ImagesEEG,001,102953,
AFNE01.JPG,AFNE01.JPG,AFNE01.JPG,AFNE01.JPG,AFNE01.JPG,AFNE01.JPG,,,,,,,,,,,,,,,,,,,,,1,7,17,7,,,AFSA19.jpg,AFNE05.jpg,AFNE07.jpg,AFSA09.jpg,AFNE07.jpg,FN,3,num_2,16,num_2,0.916796379024,,,2018_Feb_08_1339,60.0099124555,MAFE4ImagesEEG,001,102953,
AFNE01.JPG,AFNE01.JPG,AFNE01.JPG,AFNE01.JPG,AFNE01.JPG,AFNE01.JPG,,,,,,,,,,,,,,,,,,,,,1,8,18,0,,,AFNE03.jpg,AFNE16.jpg,AFSA02.jpg,AFSA16.jpg,AFNE03.jpg,FN,3,num_8,16,num_8,1.0335025019,,,2018_Feb_08_1339,60.0099124555,MAFE4ImagesEEG,001,102953,
AFNE01.JPG,AFNE01.JPG,AFNE01.JPG,AFNE01.JPG,AFNE01.JPG,AFNE01.JPG,,,,,,,,,,,,,,,,,,,,,1,9,19,1,,,AFSA08.jpg,AFNE09.jpg,AFSA15.jpg,AFNE13.jpg,AFSA15.jpg,FS,4,num_2,32,num_4,0.916754362173,,,2018_Feb_08_1339,60.0099124555,MAFE4ImagesEEG,001,102953,
AFNE01.JPG,AFNE01.JPG,AFNE01.JPG,AFNE01.JPG,AFNE01.JPG,AFNE01.JPG,,,,,,,,,,,,,,,,,,,,,2,0,20,3,,,AFSA16.jpg,AFNE17.jpg,AFSA04.jpg,AFNE20.jpg,AFSA16.jpg,FS,4,num_8,32,num_4,0.650122506311,,,2018_Feb_08_1339,60.0099124555,MAFE4ImagesEEG,001,102953,
AFNE01.JPG,AFNE01.JPG,AFNE01.JPG,AFNE01.JPG,AFNE01.JPG,AFNE01.JPG,,,,,,,,,,,,,,,,,,,,,2,1,21,9,,,AFSA19.jpg,AFSA16.jpg,AFNE08.jpg,AFNE06.jpg,AFSA16.jpg,FS,4,num_6,16,num_6,0.466928731883,,,2018_Feb_08_1339,60.0099124555,MAFE4ImagesEEG,001,102953,
AFNE01.JPG,AFNE01.JPG,AFNE01.JPG,AFNE01.JPG,AFNE01.JPG,AFNE01.JPG,,,,,,,,,,,,,,,,,,,,,2,2,22,2,,,AFNE15.jpg,AFNE16.jpg,AFSA18.jpg,AFSA09.jpg,AFNE16.jpg,FN,3,num_6,16,num_6,0.533693822799,,,2018_Feb_08_1339,60.0099124555,MAFE4ImagesEEG,001,102953,
AFNE01.JPG,AFNE01.JPG,AFNE01.JPG,AFNE01.JPG,AFNE01.JPG,AFNE01.JPG,,,,,,,,,,,,,,,,,,,,,2,3,23,6,,,AFSA06.jpg,AFSA05.jpg,AFNE13.jpg,AFNE01.jpg,AFSA06.jpg,FS,4,num_8,32,num_4,1.10008829948,,,2018_Feb_08_1339,60.0099124555,MAFE4ImagesEEG,001,102953,
AFNE01.JPG,AFNE01.JPG,AFNE01.JPG,AFNE01.JPG,AFNE01.JPG,AFNE01.JPG,,,,,,,,,,,,,,,,,,,,,2,4,24,7,,,AFNE17.jpg,AFNE08.jpg,AFSA01.jpg,AFSA03.jpg,AFNE08.jpg,FN,3,num_6,16,num_6,0.550166672096,,,2018_Feb_08_1339,60.0099124555,MAFE4ImagesEEG,001,102953,
AFNE01.JPG,AFNE01.JPG,AFNE01.JPG,AFNE01.JPG,AFNE01.JPG,AFNE01.JPG,,,,,,,,,,,,,,,,,,,,,2,5,25,1,,,AFNE18.jpg,AFSA11.jpg,AFSA01.jpg,AFNE20.jpg,AFSA01.jpg,FS,4,num_2,32,num_6,0.500198377296,,,2018_Feb_08_1339,60.0099124555,MAFE4ImagesEEG,001,102953,
AFNE01.JPG,AFNE01.JPG,AFNE01.JPG,AFNE01.JPG,AFNE01.JPG,AFNE01.JPG,,,,,,,,,,,,,,,,,,,,,2,6,26,5,,,AFSA10.jpg,AFSA08.jpg,AFNE03.jpg,AFNE20.jpg,AFSA10.jpg,FS,4,num_8,32,num_6,0.816806546412,,,2018_Feb_08_1339,60.0099124555,MAFE4ImagesEEG,001,102953,
AFNE01.JPG,AFNE01.JPG,AFNE01.JPG,AFNE01.JPG,AFNE01.JPG,AFNE01.JPG,,,,,,,,,,,,,,,,,,,,,2,7,27,4,,,AFSA14.jpg,AFSA11.jpg,AFNE15.jpg,AFNE06.jpg,AFNE06.jpg,FN,3,num_4,32,num_8,1.01683785045,,,2018_Feb_08_1339,60.0099124555,MAFE4ImagesEEG,001,102953,
AFNE01.JPG,AFNE01.JPG,AFNE01.JPG,AFNE01.JPG,AFNE01.JPG,AFNE01.JPG,,,,,,,,,,,,,,,,,,,,,2,8,28,0,,,AFNE15.jpg,AFSA20.jpg,AFSA02.jpg,AFNE10.jpg,AFNE10.jpg,FN,3,num_4,16,num_4,0.983504378237,,,2018_Feb_08_1339,60.0099124555,MAFE4ImagesEEG,001,102953,
AFNE01.JPG,AFNE01.JPG,AFNE01.JPG,AFNE01.JPG,AFNE01.JPG,AFNE01.JPG,,,,,,,,,,,,,,,,,,,,,2,9,29,8,,,AFNE06.jpg,AFSA12.jpg,AFNE04.jpg,AFSA20.jpg,AFSA20.jpg,FS,4,num_4,16,num_4,0.700052954257,,,2018_Feb_08_1339,60.0099124555,MAFE4ImagesEEG,001,102953,
AFNE01.JPG,AFNE01.JPG,AFNE01.JPG,AFNE01.JPG,AFNE01.JPG,AFNE01.JPG,,,,,,,,,,,,,,,,,,,,,3,0,30,3,,,AFNE20.jpg,AFNE04.jpg,AFSA04.jpg,AFSA10.jpg,AFNE04.jpg,FN,3,num_6,16,num_6,0.700144364731,,,2018_Feb_08_1339,60.0099124555,MAFE4ImagesEEG,001,102953,
AFNE01.JPG,AFNE01.JPG,AFNE01.JPG,AFNE01.JPG,AFNE01.JPG,AFNE01.JPG,,,,,,,,,,,,,,,,,,,,,3,1,31,1,,,AFSA17.jpg,AFNE11.jpg,AFNE09.jpg,AFSA04.jpg,AFNE11.jpg,FN,3,num_6,16,num_6,0.683551558992,,,2018_Feb_08_1339,60.0099124555,MAFE4ImagesEEG,001,102953,
AFNE01.JPG,AFNE01.JPG,AFNE01.JPG,AFNE01.JPG,AFNE01.JPG,AFNE01.JPG,,,,,,,,,,,,,,,,,,,,,3,2,32,7,,,AFNE12.jpg,AFNE09.jpg,AFSA04.jpg,AFSA09.jpg,AFNE12.jpg,FN,3,num_8,32,num_6,0.85014707502,,,2018_Feb_08_1339,60.0099124555,MAFE4ImagesEEG,001,102953,
AFNE01.JPG,AFNE01.JPG,AFNE01.JPG,AFNE01.JPG,AFNE01.JPG,AFNE01.JPG,,,,,,,,,,,,,,,,,,,,,3,3,33,9,,,AFNE06.jpg,AFSA17.jpg,AFNE05.jpg,AFSA05.jpg,AFSA17.jpg,FS,4,num_6,16,num_6,1.01677787234,,,2018_Feb_08_1339,60.0099124555,MAFE4ImagesEEG,001,102953,
AFNE01.JPG,AFNE01.JPG,AFNE01.JPG,AFNE01.JPG,AFNE01.JPG,AFNE01.JPG,,,,,,,,,,,,,,,,,,,,,3,4,34,0,,,AFSA15.jpg,AFNE06.jpg,AFSA14.jpg,AFNE09.jpg,AFSA15.jpg,FS,4,num_8,32,num_6,0.683490939438,,,2018_Feb_08_1339,60.0099124555,MAFE4ImagesEEG,001,102953,
AFNE01.JPG,AFNE01.JPG,AFNE01.JPG,AFNE01.JPG,AFNE01.JPG,AFNE01.JPG,,,,,,,,,,,,,,,,,,,,,3,5,35,4,,,AFNE09.jpg,AFNE14.jpg,AFSA02.jpg,AFSA08.jpg,AFNE09.jpg,FN,3,num_8,32,num_6,0.683551558992,,,2018_Feb_08_1339,60.0099124555,MAFE4ImagesEEG,001,102953,
AFNE01.JPG,AFNE01.JPG,AFNE01.JPG,AFNE01.JPG,AFNE01.JPG,AFNE01.JPG,,,,,,,,,,,,,,,,,,,,,3,6,36,8,,,AFSA10.jpg,AFNE02.jpg,AFSA12.jpg,AFNE05.jpg,AFNE02.jpg,FN,3,num_6,16,num_6,3.13342113025,,,2018_Feb_08_1339,60.0099124555,MAFE4ImagesEEG,001,102953,
AFNE01.JPG,AFNE01.JPG,AFNE01.JPG,AFNE01.JPG,AFNE01.JPG,AFNE01.JPG,,,,,,,,,,,,,,,,,,,,,3,7,37,5,,,AFNE09.jpg,AFNE11.jpg,AFSA08.jpg,AFSA06.jpg,AFSA06.jpg,FS,4,num_4,16,num_4,0.933530309936,,,2018_Feb_08_1339,60.0099124555,MAFE4ImagesEEG,001,102953,
AFNE01.JPG,AFNE01.JPG,AFNE01.JPG,AFNE01.JPG,AFNE01.JPG,AFNE01.JPG,,,,,,,,,,,,,,,,,,,,,3,8,38,6,,,AFSA08.jpg,AFSA19.jpg,AFNE17.jpg,AFNE07.jpg,AFSA19.jpg,FS,4,num_6,16,num_6,0.683470412157,,,2018_Feb_08_1339,60.0099124555,MAFE4ImagesEEG,001,102953,
