IPosition2,IPosition3,IPosition1,IPosition6,IPosition4,IPosition5,TrialsM1.thisRepN,TrialsM1.thisTrialN,TrialsM1.thisN,TrialsM1.thisIndex,TrialsF1.thisRepN,TrialsF1.thisTrialN,TrialsF1.thisN,TrialsF1.thisIndex,TrialsM2.thisRepN,TrialsM2.thisTrialN,TrialsM2.thisN,TrialsM2.thisIndex,TrialsF2.thisRepN,TrialsF2.thisTrialN,TrialsF2.thisN,TrialsF2.thisIndex,TrialsM3.thisRepN,TrialsM3.thisTrialN,TrialsM3.thisN,TrialsM3.thisIndex,TrialsF3.thisRepN,TrialsF3.thisTrialN,TrialsF3.thisN,TrialsF3.thisIndex,InstrKey_resp.keys,InstrKey_resp.rt,Image0 _Position,Image1 _Position,Image2 _Position,Image3 _Position,Center_image,condition,code,correct_answer,accuracy,Key_Resp.keys,Key_Resp.rt,BreakKey_resp.keys,BreakKey_resp.rt,date,frameRate,expName,session,participant,
,,,,,,,,,,,,,,,,,,,,,,,,,,,,,,space,20.8655573151,,,,,,,,,,,,,,2018_Feb_09_1722,60.0072560572,MAFE4ImagesEEG,001,102949,
AFNE22.JPG,AFSA24.JPG,AFSA22.JPG,AFNE25.JPG,AFNE24.JPG,AFSA25.JPG,0,0,0,6,,,,,,,,,,,,,,,,,,,,,,,AMSA14.jpg,AMNE20.jpg,AMSA19.jpg,AMNE18.jpg,AMNE18.jpg,MN,1,num_4,32,num_6,3.64987810305,,,2018_Feb_09_1722,60.0072560572,MAFE4ImagesEEG,001,102949,
AMSA21.JPG,AMNE22.JPG,AMNE21.JPG,AMSA23.JPG,AMSA22.JPG,AMNE23.JPG,0,1,1,1,,,,,,,,,,,,,,,,,,,,,,,AMSA02.jpg,AMNE20.jpg,AMNE08.jpg,AMSA18.jpg,AMSA18.jpg,MS,2,num_4,32,num_8,1.10009695962,,,2018_Feb_09_1722,60.0072560572,MAFE4ImagesEEG,001,102949,
AMSA25.JPG,AMNE24.JPG,AMSA24.JPG,AMNE26.JPG,AMSA21.JPG,AMNE25.JPG,0,2,2,3,,,,,,,,,,,,,,,,,,,,,,,AMSA09.jpg,AMNE16.jpg,AMNE01.jpg,AMSA15.jpg,AMNE01.jpg,MN,1,num_2,32,num_6,1.26674090698,,,2018_Feb_09_1722,60.0072560572,MAFE4ImagesEEG,001,102949,
AFSA25.JPG,AFNE24.JPG,AFSA24.JPG,AFNE21.JPG,AFSA21.JPG,AFNE25.JPG,0,3,3,2,,,,,,,,,,,,,,,,,,,,,,,AMNE10.jpg,AMSA20.jpg,AMNE06.jpg,AMSA04.jpg,AMSA04.jpg,MS,2,num_4,16,num_4,1.00025306316,,,2018_Feb_09_1722,60.0072560572,MAFE4ImagesEEG,001,102949,
AFNE23.JPG,AFNE24.JPG,AFNE22.JPG,AFSA24.JPG,AFSA22.JPG,AFSA23.JPG,0,4,4,8,,,,,,,,,,,,,,,,,,,,,,,AMNE17.jpg,AMSA13.jpg,AMSA14.jpg,AMNE03.jpg,AMSA14.jpg,MS,2,num_2,32,num_6,0.96674575028,,,2018_Feb_09_1722,60.0072560572,MAFE4ImagesEEG,001,102949,
AMNE23.JPG,AMNE24.JPG,AMNE22.JPG,AMSA24.JPG,AMSA22.JPG,AMSA23.JPG,0,5,5,9,,,,,,,,,,,,,,,,,,,,,,,AMNE20.jpg,AMSA20.jpg,AMNE15.jpg,AMSA05.jpg,AMNE15.jpg,MN,1,num_2,16,num_2,0.933496311773,,,2018_Feb_09_1722,60.0072560572,MAFE4ImagesEEG,001,102949,
AFSA21.JPG,AFNE23.JPG,AFNE21.JPG,AFSA25.JPG,AFNE25.JPG,AFSA23.JPG,0,6,6,4,,,,,,,,,,,,,,,,,,,,,,,AMNE10.jpg,AMSA01.jpg,AMNE19.jpg,AMSA06.jpg,AMNE19.jpg,MN,1,num_2,32,num_8,1.05012353277,,,2018_Feb_09_1722,60.0072560572,MAFE4ImagesEEG,001,102949,
AMNE22.JPG,AMSA24.JPG,AMSA22.JPG,AMNE25.JPG,AMNE24.JPG,AMSA25.JPG,0,7,7,7,,,,,,,,,,,,,,,,,,,,,,,AMNE14.jpg,AMSA07.jpg,AMSA16.jpg,AMNE08.jpg,AMNE14.jpg,MN,1,num_8,16,num_8,0.95015390683,,,2018_Feb_09_1722,60.0072560572,MAFE4ImagesEEG,001,102949,
AFSA21.JPG,AFNE22.JPG,AFNE21.JPG,AFSA23.JPG,AFSA22.JPG,AFNE23.JPG,0,8,8,0,,,,,,,,,,,,,,,,,,,,,,,AMNE02.jpg,AMSA20.jpg,AMNE08.jpg,AMSA07.jpg,AMNE08.jpg,MN,1,num_2,32,num_4,1.13346218504,,,2018_Feb_09_1722,60.0072560572,MAFE4ImagesEEG,001,102949,
AMSA21.JPG,AMNE23.JPG,AMNE21.JPG,AMSA25.JPG,AMNE25.JPG,AMSA23.JPG,0,9,9,5,,,,,,,,,,,,,,,,,,,,,,,AMSA08.jpg,AMNE20.jpg,AMSA07.jpg,AMNE18.jpg,AMSA07.jpg,MS,2,num_2,32,num_6,1.36672464549,,,2018_Feb_09_1722,60.0072560572,MAFE4ImagesEEG,001,102949,
AMSA21.JPG,AMNE23.JPG,AMNE21.JPG,AMSA25.JPG,AMNE25.JPG,AMSA23.JPG,,,,,0,0,0,5,,,,,,,,,,,,,,,,,,,AFSA01.jpg,AFNE04.jpg,AFNE12.jpg,AFSA09.jpg,AFSA09.jpg,FS,4,num_4,16,num_4,0.600143306423,,,2018_Feb_09_1722,60.0072560572,MAFE4ImagesEEG,001,102949,
AFNE22.JPG,AFSA24.JPG,AFSA22.JPG,AFNE25.JPG,AFNE24.JPG,AFSA25.JPG,,,,,0,1,1,6,,,,,,,,,,,,,,,,,,,AFSA03.jpg,AFSA14.jpg,AFNE07.jpg,AFNE03.jpg,AFSA14.jpg,FS,4,num_6,32,num_4,1.18345710123,,,2018_Feb_09_1722,60.0072560572,MAFE4ImagesEEG,001,102949,
AFSA21.JPG,AFNE22.JPG,AFNE21.JPG,AFSA23.JPG,AFSA22.JPG,AFNE23.JPG,,,,,0,2,2,0,,,,,,,,,,,,,,,,,,,AFNE17.jpg,AFSA10.jpg,AFNE18.jpg,AFSA15.jpg,AFNE18.jpg,FN,3,num_2,16,num_2,1.45005784533,,,2018_Feb_09_1722,60.0072560572,MAFE4ImagesEEG,001,102949,
AFSA25.JPG,AFNE24.JPG,AFSA24.JPG,AFNE21.JPG,AFSA21.JPG,AFNE25.JPG,,,,,0,3,3,2,,,,,,,,,,,,,,,,,,,AFSA09.jpg,AFNE11.jpg,AFSA10.jpg,AFNE03.jpg,AFNE11.jpg,FN,3,num_6,16,num_6,1.23343084869,,,2018_Feb_09_1722,60.0072560572,MAFE4ImagesEEG,001,102949,
AFNE23.JPG,AFNE24.JPG,AFNE22.JPG,AFSA24.JPG,AFSA22.JPG,AFSA23.JPG,,,,,0,4,4,8,,,,,,,,,,,,,,,,,,,AFSA07.jpg,AFNE19.jpg,AFSA16.jpg,AFNE05.jpg,AFSA16.jpg,FS,4,num_2,16,num_2,0.650198521558,,,2018_Feb_09_1722,60.0072560572,MAFE4ImagesEEG,001,102949,
AMSA21.JPG,AMNE22.JPG,AMNE21.JPG,AMSA23.JPG,AMSA22.JPG,AMNE23.JPG,,,,,0,5,5,1,,,,,,,,,,,,,,,,,,,AFSA18.jpg,AFSA12.jpg,AFNE13.jpg,AFNE12.jpg,AFSA12.jpg,FS,4,num_6,32,num_8,0.90009420109,,,2018_Feb_09_1722,60.0072560572,MAFE4ImagesEEG,001,102949,
AMNE23.JPG,AMNE24.JPG,AMNE22.JPG,AMSA24.JPG,AMSA22.JPG,AMSA23.JPG,,,,,0,6,6,9,,,,,,,,,,,,,,,,,,,AFNE18.jpg,AFNE10.jpg,AFSA11.jpg,AFSA16.jpg,AFNE18.jpg,FN,3,num_8,32,num_6,0.966778145172,,,2018_Feb_09_1722,60.0072560572,MAFE4ImagesEEG,001,102949,
AMNE22.JPG,AMSA24.JPG,AMSA22.JPG,AMNE25.JPG,AMNE24.JPG,AMSA25.JPG,,,,,0,7,7,7,,,,,,,,,,,,,,,,,,,AFSA07.jpg,AFNE18.jpg,AFSA12.jpg,AFNE13.jpg,AFSA07.jpg,FS,4,num_8,32,num_2,1.10010882677,,,2018_Feb_09_1722,60.0072560572,MAFE4ImagesEEG,001,102949,
AMSA25.JPG,AMNE24.JPG,AMSA24.JPG,AMNE26.JPG,AMSA21.JPG,AMNE25.JPG,,,,,0,8,8,3,,,,,,,,,,,,,,,,,,,AFNE04.jpg,AFNE14.jpg,AFSA10.jpg,AFSA16.jpg,AFNE14.jpg,FN,3,num_6,16,num_6,1.01661846484,,,2018_Feb_09_1722,60.0072560572,MAFE4ImagesEEG,001,102949,
AFSA21.JPG,AFNE23.JPG,AFNE21.JPG,AFSA25.JPG,AFNE25.JPG,AFSA23.JPG,,,,,0,9,9,4,,,,,,,,,,,,,,,,,,,AFNE17.jpg,AFSA07.jpg,AFSA08.jpg,AFNE19.jpg,AFSA08.jpg,FS,4,num_2,16,num_2,1.10009150696,,,2018_Feb_09_1722,60.0072560572,MAFE4ImagesEEG,001,102949,
AMSA25.JPG,AMNE24.JPG,AMSA24.JPG,AMNE26.JPG,AMSA21.JPG,AMNE25.JPG,,,,,,,,,0,0,0,3,,,,,,,,,,,,,,,AMSA03.jpg,AMSA20.jpg,AMNE16.jpg,AMNE12.jpg,AMNE16.jpg,MN,1,num_2,16,num_2,0.866805952974,,,2018_Feb_09_1722,60.0072560572,MAFE4ImagesEEG,001,102949,
AFNE23.JPG,AFNE24.JPG,AFNE22.JPG,AFSA24.JPG,AFSA22.JPG,AFSA23.JPG,,,,,,,,,0,1,1,8,,,,,,,,,,,,,,,AMSA02.jpg,AMSA09.jpg,AMNE06.jpg,AMNE19.jpg,AMSA09.jpg,MS,2,num_6,16,num_6,0.916735438397,,,2018_Feb_09_1722,60.0072560572,MAFE4ImagesEEG,001,102949,
AFSA25.JPG,AFNE24.JPG,AFSA24.JPG,AFNE21.JPG,AFSA21.JPG,AFNE25.JPG,,,,,,,,,0,2,2,2,,,,,,,,,,,,,,,AMNE04.jpg,AMSA19.jpg,AMSA17.jpg,AMNE07.jpg,AMNE07.jpg,MN,1,num_4,16,num_4,1.26673577516,,,2018_Feb_09_1722,60.0072560572,MAFE4ImagesEEG,001,102949,
AMSA21.JPG,AMNE22.JPG,AMNE21.JPG,AMSA23.JPG,AMSA22.JPG,AMNE23.JPG,,,,,,,,,0,3,3,1,,,,,,,,,,,,,,,AMNE01.jpg,AMSA03.jpg,AMNE07.jpg,AMSA16.jpg,AMNE01.jpg,MN,1,num_8,32,num_2,0.750121319667,,,2018_Feb_09_1722,60.0072560572,MAFE4ImagesEEG,001,102949,
AFSA21.JPG,AFNE23.JPG,AFNE21.JPG,AFSA25.JPG,AFNE25.JPG,AFSA23.JPG,,,,,,,,,0,4,4,4,,,,,,,,,,,,,,,AMNE05.jpg,AMSA18.jpg,AMSA19.jpg,AMNE15.jpg,AMNE15.jpg,MN,1,num_4,16,num_4,0.750019324711,,,2018_Feb_09_1722,60.0072560572,MAFE4ImagesEEG,001,102949,
AMSA21.JPG,AMNE23.JPG,AMNE21.JPG,AMSA25.JPG,AMNE25.JPG,AMSA23.JPG,,,,,,,,,0,5,5,5,,,,,,,,,,,,,,,AMNE14.jpg,AMNE02.jpg,AMSA04.jpg,AMSA17.jpg,AMSA04.jpg,MS,2,num_2,32,num_6,0.683345323661,,,2018_Feb_09_1722,60.0072560572,MAFE4ImagesEEG,001,102949,
AMNE23.JPG,AMNE24.JPG,AMNE22.JPG,AMSA24.JPG,AMSA22.JPG,AMSA23.JPG,,,,,,,,,0,6,6,9,,,,,,,,,,,,,,,AMNE13.jpg,AMNE06.jpg,AMSA07.jpg,AMSA17.jpg,AMSA07.jpg,MS,2,num_2,32,num_4,0.866767143598,,,2018_Feb_09_1722,60.0072560572,MAFE4ImagesEEG,001,102949,
AFNE22.JPG,AFSA24.JPG,AFSA22.JPG,AFNE25.JPG,AFNE24.JPG,AFSA25.JPG,,,,,,,,,0,7,7,6,,,,,,,,,,,,,,,AMNE05.jpg,AMSA20.jpg,AMSA09.jpg,AMNE06.jpg,AMNE05.jpg,MN,1,num_8,32,num_6,1.03344380646,,,2018_Feb_09_1722,60.0072560572,MAFE4ImagesEEG,001,102949,
AFSA21.JPG,AFNE22.JPG,AFNE21.JPG,AFSA23.JPG,AFSA22.JPG,AFNE23.JPG,,,,,,,,,0,8,8,0,,,,,,,,,,,,,,,AMSA02.jpg,AMNE01.jpg,AMSA18.jpg,AMNE05.jpg,AMSA18.jpg,MS,2,num_2,16,num_2,0.833457085304,,,2018_Feb_09_1722,60.0072560572,MAFE4ImagesEEG,001,102949,
AMNE22.JPG,AMSA24.JPG,AMSA22.JPG,AMNE25.JPG,AMNE24.JPG,AMSA25.JPG,,,,,,,,,0,9,9,7,,,,,,,,,,,,,,,AMNE01.jpg,AMNE15.jpg,AMSA09.jpg,AMSA15.jpg,AMNE15.jpg,MN,1,num_6,32,num_2,1.85007651243,,,2018_Feb_09_1722,60.0072560572,MAFE4ImagesEEG,001,102949,
AMNE23.JPG,AMNE24.JPG,AMNE22.JPG,AMSA24.JPG,AMSA22.JPG,AMSA23.JPG,,,,,,,,,,,,,0,0,0,9,,,,,,,,,,,AFNE12.jpg,AFSA05.jpg,AFNE13.jpg,AFSA19.jpg,AFNE12.jpg,FN,3,num_8,16,num_8,0.800147989066,,,2018_Feb_09_1722,60.0072560572,MAFE4ImagesEEG,001,102949,
AFNE23.JPG,AFNE24.JPG,AFNE22.JPG,AFSA24.JPG,AFSA22.JPG,AFSA23.JPG,,,,,,,,,,,,,0,1,1,8,,,,,,,,,,,AFSA06.jpg,AFNE04.jpg,AFNE14.jpg,AFSA07.jpg,AFSA06.jpg,FS,4,num_8,32,num_4,0.716780470451,,,2018_Feb_09_1722,60.0072560572,MAFE4ImagesEEG,001,102949,
AFSA21.JPG,AFNE22.JPG,AFNE21.JPG,AFSA23.JPG,AFSA22.JPG,AFNE23.JPG,,,,,,,,,,,,,0,2,2,0,,,,,,,,,,,AFSA14.jpg,AFNE18.jpg,AFSA07.jpg,AFNE06.jpg,AFSA14.jpg,FS,4,num_8,16,num_8,0.93347129412,,,2018_Feb_09_1722,60.0072560572,MAFE4ImagesEEG,001,102949,
AMSA21.JPG,AMNE22.JPG,AMNE21.JPG,AMSA23.JPG,AMSA22.JPG,AMNE23.JPG,,,,,,,,,,,,,0,3,3,1,,,,,,,,,,,AFSA18.jpg,AFNE14.jpg,AFNE19.jpg,AFSA10.jpg,AFSA18.jpg,FS,4,num_8,16,num_8,0.916793812998,,,2018_Feb_09_1722,60.0072560572,MAFE4ImagesEEG,001,102949,
AMSA25.JPG,AMNE24.JPG,AMSA24.JPG,AMNE26.JPG,AMSA21.JPG,AMNE25.JPG,,,,,,,,,,,,,0,4,4,3,,,,,,,,,,,AFNE17.jpg,AFSA20.jpg,AFNE20.jpg,AFSA01.jpg,AFNE20.jpg,FN,3,num_2,32,num_6,3.54994985228,,,2018_Feb_09_1722,60.0072560572,MAFE4ImagesEEG,001,102949,
AFSA21.JPG,AFNE23.JPG,AFNE21.JPG,AFSA25.JPG,AFNE25.JPG,AFSA23.JPG,,,,,,,,,,,,,0,5,5,4,,,,,,,,,,,AFSA15.jpg,AFNE10.jpg,AFNE03.jpg,AFSA12.jpg,AFSA12.jpg,FS,4,num_4,16,num_4,0.866720636375,,,2018_Feb_09_1722,60.0072560572,MAFE4ImagesEEG,001,102949,
AFSA25.JPG,AFNE24.JPG,AFSA24.JPG,AFNE21.JPG,AFSA21.JPG,AFNE25.JPG,,,,,,,,,,,,,0,6,6,2,,,,,,,,,,,AFNE05.jpg,AFSA03.jpg,AFNE13.jpg,AFSA12.jpg,AFNE05.jpg,FN,3,num_8,32,num_2,1.06676188344,,,2018_Feb_09_1722,60.0072560572,MAFE4ImagesEEG,001,102949,
AMNE22.JPG,AMSA24.JPG,AMSA22.JPG,AMNE25.JPG,AMNE24.JPG,AMSA25.JPG,,,,,,,,,,,,,0,7,7,7,,,,,,,,,,,AFSA18.jpg,AFNE06.jpg,AFNE03.jpg,AFSA14.jpg,AFSA14.jpg,FS,4,num_4,32,num_6,0.999841554789,,,2018_Feb_09_1722,60.0072560572,MAFE4ImagesEEG,001,102949,
AMSA21.JPG,AMNE23.JPG,AMNE21.JPG,AMSA25.JPG,AMNE25.JPG,AMSA23.JPG,,,,,,,,,,,,,0,8,8,5,,,,,,,,,,,AFSA07.jpg,AFNE05.jpg,AFSA10.jpg,AFNE09.jpg,AFNE09.jpg,FN,3,num_4,32,num_6,1.08342396887,,,2018_Feb_09_1722,60.0072560572,MAFE4ImagesEEG,001,102949,
AFNE22.JPG,AFSA24.JPG,AFSA22.JPG,AFNE25.JPG,AFNE24.JPG,AFSA25.JPG,,,,,,,,,,,,,0,9,9,6,,,,,,,,,,,AFNE09.jpg,AFSA01.jpg,AFSA15.jpg,AFNE14.jpg,AFSA01.jpg,FS,4,num_6,16,num_6,0.750170392683,,,2018_Feb_09_1722,60.0072560572,MAFE4ImagesEEG,001,102949,
AFNE22.JPG,AFSA24.JPG,AFSA22.JPG,AFNE25.JPG,AFNE24.JPG,AFSA25.JPG,,,,,,,,,,,,,,,,,0,0,0,6,,,,,,,AMSA20.jpg,AMSA13.jpg,AMNE11.jpg,AMNE18.jpg,AMNE11.jpg,MN,1,num_2,32,num_4,0.800123933703,,,2018_Feb_09_1722,60.0072560572,MAFE4ImagesEEG,001,102949,
AMNE22.JPG,AMSA24.JPG,AMSA22.JPG,AMNE25.JPG,AMNE24.JPG,AMSA25.JPG,,,,,,,,,,,,,,,,,0,1,1,7,,,,,,,AMSA03.jpg,AMNE06.jpg,AMSA18.jpg,AMNE19.jpg,AMNE19.jpg,MN,1,num_4,16,num_4,0.716669815127,,,2018_Feb_09_1722,60.0072560572,MAFE4ImagesEEG,001,102949,
AFSA21.JPG,AFNE23.JPG,AFNE21.JPG,AFSA25.JPG,AFNE25.JPG,AFSA23.JPG,,,,,,,,,,,,,,,,,0,2,2,4,,,,,,,AMSA08.jpg,AMSA14.jpg,AMNE13.jpg,AMNE06.jpg,AMNE06.jpg,MN,1,num_4,16,num_4,0.650285121286,,,2018_Feb_09_1722,60.0072560572,MAFE4ImagesEEG,001,102949,
AMSA21.JPG,AMNE22.JPG,AMNE21.JPG,AMSA23.JPG,AMSA22.JPG,AMNE23.JPG,,,,,,,,,,,,,,,,,0,3,3,1,,,,,,,AMSA19.jpg,AMNE08.jpg,AMSA20.jpg,AMNE20.jpg,AMSA19.jpg,MS,2,num_8,16,num_8,0.750189316459,,,2018_Feb_09_1722,60.0072560572,MAFE4ImagesEEG,001,102949,
AMSA25.JPG,AMNE24.JPG,AMSA24.JPG,AMNE26.JPG,AMSA21.JPG,AMNE25.JPG,,,,,,,,,,,,,,,,,0,4,4,3,,,,,,,AMSA06.jpg,AMNE04.jpg,AMSA01.jpg,AMNE15.jpg,AMNE15.jpg,MN,1,num_4,16,num_4,0.733488421654,,,2018_Feb_09_1722,60.0072560572,MAFE4ImagesEEG,001,102949,
AFSA21.JPG,AFNE22.JPG,AFNE21.JPG,AFSA23.JPG,AFSA22.JPG,AFNE23.JPG,,,,,,,,,,,,,,,,,0,5,5,0,,,,,,,AMSA10.jpg,AMNE10.jpg,AMSA16.jpg,AMNE20.jpg,AMSA10.jpg,MS,2,num_8,32,num_6,0.916774248006,,,2018_Feb_09_1722,60.0072560572,MAFE4ImagesEEG,001,102949,
AMNE23.JPG,AMNE24.JPG,AMNE22.JPG,AMSA24.JPG,AMSA22.JPG,AMSA23.JPG,,,,,,,,,,,,,,,,,0,6,6,9,,,,,,,AMSA04.jpg,AMNE12.jpg,AMNE16.jpg,AMSA05.jpg,AMNE16.jpg,MN,1,num_2,32,num_6,1.23338305857,,,2018_Feb_09_1722,60.0072560572,MAFE4ImagesEEG,001,102949,
AFNE23.JPG,AFNE24.JPG,AFNE22.JPG,AFSA24.JPG,AFSA22.JPG,AFSA23.JPG,,,,,,,,,,,,,,,,,0,7,7,8,,,,,,,AMSA04.jpg,AMNE17.jpg,AMSA07.jpg,AMNE10.jpg,AMNE10.jpg,MN,1,num_4,16,num_4,0.483486256329,,,2018_Feb_09_1722,60.0072560572,MAFE4ImagesEEG,001,102949,
AFSA25.JPG,AFNE24.JPG,AFSA24.JPG,AFNE21.JPG,AFSA21.JPG,AFNE25.JPG,,,,,,,,,,,,,,,,,0,8,8,2,,,,,,,AMNE09.jpg,AMSA18.jpg,AMSA16.jpg,AMNE15.jpg,AMSA18.jpg,MS,2,num_6,32,num_8,0.783449339448,,,2018_Feb_09_1722,60.0072560572,MAFE4ImagesEEG,001,102949,
AMSA21.JPG,AMNE23.JPG,AMNE21.JPG,AMSA25.JPG,AMNE25.JPG,AMSA23.JPG,,,,,,,,,,,,,,,,,0,9,9,5,,,,,,,AMNE20.jpg,AMSA03.jpg,AMSA15.jpg,AMNE08.jpg,AMSA03.jpg,MS,2,num_6,16,num_6,0.533502020873,,,2018_Feb_09_1722,60.0072560572,MAFE4ImagesEEG,001,102949,
AMSA21.JPG,AMNE22.JPG,AMNE21.JPG,AMSA23.JPG,AMSA22.JPG,AMNE23.JPG,,,,,,,,,,,,,,,,,,,,,0,0,0,1,,,AFNE05.jpg,AFSA14.jpg,AFNE02.jpg,AFSA05.jpg,AFSA14.jpg,FS,4,num_6,32,num_4,0.533473795746,,,2018_Feb_09_1722,60.0072560572,MAFE4ImagesEEG,001,102949,
AMNE23.JPG,AMNE24.JPG,AMNE22.JPG,AMSA24.JPG,AMSA22.JPG,AMSA23.JPG,,,,,,,,,,,,,,,,,,,,,0,1,1,9,,,AFSA11.jpg,AFNE11.jpg,AFSA13.jpg,AFNE15.jpg,AFSA13.jpg,FS,4,num_2,16,num_2,0.950126323383,,,2018_Feb_09_1722,60.0072560572,MAFE4ImagesEEG,001,102949,
AFNE23.JPG,AFNE24.JPG,AFNE22.JPG,AFSA24.JPG,AFSA22.JPG,AFSA23.JPG,,,,,,,,,,,,,,,,,,,,,0,2,2,8,,,AFSA08.jpg,AFNE17.jpg,AFNE07.jpg,AFSA09.jpg,AFSA09.jpg,FS,4,num_4,16,num_4,0.650140467798,,,2018_Feb_09_1722,60.0072560572,MAFE4ImagesEEG,001,102949,
AMSA21.JPG,AMNE23.JPG,AMNE21.JPG,AMSA25.JPG,AMNE25.JPG,AMSA23.JPG,,,,,,,,,,,,,,,,,,,,,0,3,3,5,,,AFNE16.jpg,AFSA01.jpg,AFNE02.jpg,AFSA07.jpg,AFNE02.jpg,FN,3,num_2,32,num_6,0.63347870321,,,2018_Feb_09_1722,60.0072560572,MAFE4ImagesEEG,001,102949,
AFSA21.JPG,AFNE23.JPG,AFNE21.JPG,AFSA25.JPG,AFNE25.JPG,AFSA23.JPG,,,,,,,,,,,,,,,,,,,,,0,4,4,4,,,AFSA15.jpg,AFNE20.jpg,AFNE17.jpg,AFSA13.jpg,AFSA13.jpg,FS,4,num_4,16,num_4,0.733521457529,,,2018_Feb_09_1722,60.0072560572,MAFE4ImagesEEG,001,102949,
AMSA25.JPG,AMNE24.JPG,AMSA24.JPG,AMNE26.JPG,AMSA21.JPG,AMNE25.JPG,,,,,,,,,,,,,,,,,,,,,0,5,5,3,,,AFNE02.jpg,AFNE16.jpg,AFSA16.jpg,AFSA19.jpg,AFNE16.jpg,FN,3,num_6,16,num_6,0.766813233728,,,2018_Feb_09_1722,60.0072560572,MAFE4ImagesEEG,001,102949,
AMNE22.JPG,AMSA24.JPG,AMSA22.JPG,AMNE25.JPG,AMNE24.JPG,AMSA25.JPG,,,,,,,,,,,,,,,,,,,,,0,6,6,7,,,AFSA11.jpg,AFNE10.jpg,AFSA15.jpg,AFNE02.jpg,AFSA15.jpg,FS,4,num_2,16,num_2,0.466884149238,,,2018_Feb_09_1722,60.0072560572,MAFE4ImagesEEG,001,102949,
AFSA25.JPG,AFNE24.JPG,AFSA24.JPG,AFNE21.JPG,AFSA21.JPG,AFNE25.JPG,,,,,,,,,,,,,,,,,,,,,0,7,7,2,,,AFNE03.jpg,AFNE05.jpg,AFSA18.jpg,AFSA19.jpg,AFSA18.jpg,FS,4,num_2,16,num_2,0.816794679035,,,2018_Feb_09_1722,60.0072560572,MAFE4ImagesEEG,001,102949,
AFNE22.JPG,AFSA24.JPG,AFSA22.JPG,AFNE25.JPG,AFNE24.JPG,AFSA25.JPG,,,,,,,,,,,,,,,,,,,,,0,8,8,6,,,AFNE02.jpg,AFSA07.jpg,AFNE06.jpg,AFSA18.jpg,AFNE02.jpg,FN,3,num_8,16,num_8,0.883443983039,,,2018_Feb_09_1722,60.0072560572,MAFE4ImagesEEG,001,102949,
AFSA21.JPG,AFNE22.JPG,AFNE21.JPG,AFSA23.JPG,AFSA22.JPG,AFNE23.JPG,,,,,,,,,,,,,,,,,,,,,0,9,9,0,,,AFSA16.jpg,AFNE16.jpg,AFNE19.jpg,AFSA14.jpg,AFNE16.jpg,FN,3,num_6,16,num_6,0.849992799573,,,2018_Feb_09_1722,60.0072560572,MAFE4ImagesEEG,001,102949,
,,,,,,,,,,,,,,,,,,,,,,,,,,,,,,,,,,,,,,,,,,,space,11.9989043546,2018_Feb_09_1722,60.0072560572,MAFE4ImagesEEG,001,102949,
AFNE01.JPG,AFNE01.JPG,AFNE01.JPG,AFNE01.JPG,AFNE01.JPG,AFNE01.JPG,0,0,0,9,,,,,,,,,,,,,,,,,,,,,,,AMSA12.jpg,AMNE11.jpg,AMSA01.jpg,AMNE13.jpg,AMSA12.jpg,MS,2,num_8,32,num_6,1.40011424734,,,2018_Feb_09_1722,60.0072560572,MAFE4ImagesEEG,001,102949,
AFNE01.JPG,AFNE01.JPG,AFNE01.JPG,AFNE01.JPG,AFNE01.JPG,AFNE01.JPG,0,1,1,8,,,,,,,,,,,,,,,,,,,,,,,AMNE07.jpg,AMSA12.jpg,AMSA02.jpg,AMNE08.jpg,AMSA02.jpg,MS,2,num_2,32,num_4,0.833451953484,,,2018_Feb_09_1722,60.0072560572,MAFE4ImagesEEG,001,102949,
AFNE01.JPG,AFNE01.JPG,AFNE01.JPG,AFNE01.JPG,AFNE01.JPG,AFNE01.JPG,0,2,2,6,,,,,,,,,,,,,,,,,,,,,,,AMNE11.jpg,AMSA06.jpg,AMNE04.jpg,AMSA17.jpg,AMNE11.jpg,MN,1,num_8,32,num_6,1.10023968853,,,2018_Feb_09_1722,60.0072560572,MAFE4ImagesEEG,001,102949,
AFNE01.JPG,AFNE01.JPG,AFNE01.JPG,AFNE01.JPG,AFNE01.JPG,AFNE01.JPG,0,3,3,5,,,,,,,,,,,,,,,,,,,,,,,AMSA09.jpg,AMNE04.jpg,AMSA20.jpg,AMNE09.jpg,AMSA09.jpg,MS,2,num_8,32,num_4,0.616838748567,,,2018_Feb_09_1722,60.0072560572,MAFE4ImagesEEG,001,102949,
AFNE01.JPG,AFNE01.JPG,AFNE01.JPG,AFNE01.JPG,AFNE01.JPG,AFNE01.JPG,0,4,4,4,,,,,,,,,,,,,,,,,,,,,,,AMNE15.jpg,AMSA07.jpg,AMSA13.jpg,AMNE20.jpg,AMNE15.jpg,MN,1,num_8,16,num_8,0.816656119656,,,2018_Feb_09_1722,60.0072560572,MAFE4ImagesEEG,001,102949,
AFNE01.JPG,AFNE01.JPG,AFNE01.JPG,AFNE01.JPG,AFNE01.JPG,AFNE01.JPG,0,5,5,3,,,,,,,,,,,,,,,,,,,,,,,AMSA12.jpg,AMNE16.jpg,AMNE14.jpg,AMSA03.jpg,AMSA03.jpg,MS,2,num_4,16,num_4,1.53349047434,,,2018_Feb_09_1722,60.0072560572,MAFE4ImagesEEG,001,102949,
AFNE01.JPG,AFNE01.JPG,AFNE01.JPG,AFNE01.JPG,AFNE01.JPG,AFNE01.JPG,0,6,6,1,,,,,,,,,,,,,,,,,,,,,,,AMSA20.jpg,AMNE11.jpg,AMNE09.jpg,AMSA04.jpg,AMNE09.jpg,MN,1,num_2,32,num_6,0.850095115369,,,2018_Feb_09_1722,60.0072560572,MAFE4ImagesEEG,001,102949,
AFNE01.JPG,AFNE01.JPG,AFNE01.JPG,AFNE01.JPG,AFNE01.JPG,AFNE01.JPG,0,7,7,2,,,,,,,,,,,,,,,,,,,,,,,AMSA07.jpg,AMNE17.jpg,AMSA13.jpg,AMNE02.jpg,AMNE17.jpg,MN,1,num_6,32,num_8,0.766825421713,,,2018_Feb_09_1722,60.0072560572,MAFE4ImagesEEG,001,102949,
AFNE01.JPG,AFNE01.JPG,AFNE01.JPG,AFNE01.JPG,AFNE01.JPG,AFNE01.JPG,0,8,8,7,,,,,,,,,,,,,,,,,,,,,,,AMSA16.jpg,AMNE13.jpg,AMNE20.jpg,AMSA14.jpg,AMNE20.jpg,MN,1,num_2,32,num_6,0.683451809222,,,2018_Feb_09_1722,60.0072560572,MAFE4ImagesEEG,001,102949,
AFNE01.JPG,AFNE01.JPG,AFNE01.JPG,AFNE01.JPG,AFNE01.JPG,AFNE01.JPG,0,9,9,0,,,,,,,,,,,,,,,,,,,,,,,AMSA05.jpg,AMNE19.jpg,AMNE07.jpg,AMSA07.jpg,AMSA05.jpg,MS,2,num_8,32,num_4,1.06676669465,,,2018_Feb_09_1722,60.0072560572,MAFE4ImagesEEG,001,102949,
AFNE01.JPG,AFNE01.JPG,AFNE01.JPG,AFNE01.JPG,AFNE01.JPG,AFNE01.JPG,1,0,10,9,,,,,,,,,,,,,,,,,,,,,,,AMSA10.jpg,AMSA17.jpg,AMNE12.jpg,AMNE13.jpg,AMNE12.jpg,MN,1,num_2,32,num_4,1.05010268465,,,2018_Feb_09_1722,60.0072560572,MAFE4ImagesEEG,001,102949,
AFNE01.JPG,AFNE01.JPG,AFNE01.JPG,AFNE01.JPG,AFNE01.JPG,AFNE01.JPG,1,1,11,8,,,,,,,,,,,,,,,,,,,,,,,AMSA16.jpg,AMNE04.jpg,AMSA10.jpg,AMNE07.jpg,AMSA10.jpg,MS,2,num_2,16,num_2,0.666784912581,,,2018_Feb_09_1722,60.0072560572,MAFE4ImagesEEG,001,102949,
AFNE01.JPG,AFNE01.JPG,AFNE01.JPG,AFNE01.JPG,AFNE01.JPG,AFNE01.JPG,1,2,12,5,,,,,,,,,,,,,,,,,,,,,,,AMSA17.jpg,AMNE05.jpg,AMSA05.jpg,AMNE11.jpg,AMNE05.jpg,MN,1,num_6,16,num_6,0.866791519802,,,2018_Feb_09_1722,60.0072560572,MAFE4ImagesEEG,001,102949,
AFNE01.JPG,AFNE01.JPG,AFNE01.JPG,AFNE01.JPG,AFNE01.JPG,AFNE01.JPG,1,3,13,0,,,,,,,,,,,,,,,,,,,,,,,AMSA10.jpg,AMSA04.jpg,AMNE18.jpg,AMNE08.jpg,AMNE18.jpg,MN,1,num_2,32,num_4,0.766818365548,,,2018_Feb_09_1722,60.0072560572,MAFE4ImagesEEG,001,102949,
AFNE01.JPG,AFNE01.JPG,AFNE01.JPG,AFNE01.JPG,AFNE01.JPG,AFNE01.JPG,1,4,14,1,,,,,,,,,,,,,,,,,,,,,,,AMNE16.jpg,AMNE08.jpg,AMSA02.jpg,AMSA05.jpg,AMSA02.jpg,MS,2,num_2,32,num_6,0.683517881436,,,2018_Feb_09_1722,60.0072560572,MAFE4ImagesEEG,001,102949,
AFNE01.JPG,AFNE01.JPG,AFNE01.JPG,AFNE01.JPG,AFNE01.JPG,AFNE01.JPG,1,5,15,3,,,,,,,,,,,,,,,,,,,,,,,AMSA02.jpg,AMNE17.jpg,AMNE05.jpg,AMSA01.jpg,AMNE17.jpg,MN,1,num_6,32,num_4,0.966850311263,,,2018_Feb_09_1722,60.0072560572,MAFE4ImagesEEG,001,102949,
AFNE01.JPG,AFNE01.JPG,AFNE01.JPG,AFNE01.JPG,AFNE01.JPG,AFNE01.JPG,1,6,16,6,,,,,,,,,,,,,,,,,,,,,,,AMSA17.jpg,AMNE17.jpg,AMSA13.jpg,AMNE19.jpg,AMSA13.jpg,MS,2,num_2,16,num_2,1.31672235252,,,2018_Feb_09_1722,60.0072560572,MAFE4ImagesEEG,001,102949,
AFNE01.JPG,AFNE01.JPG,AFNE01.JPG,AFNE01.JPG,AFNE01.JPG,AFNE01.JPG,1,7,17,7,,,,,,,,,,,,,,,,,,,,,,,AMNE01.jpg,AMNE13.jpg,AMSA02.jpg,AMSA10.jpg,AMSA10.jpg,MS,2,num_4,32,num_6,2.65001441725,,,2018_Feb_09_1722,60.0072560572,MAFE4ImagesEEG,001,102949,
AFNE01.JPG,AFNE01.JPG,AFNE01.JPG,AFNE01.JPG,AFNE01.JPG,AFNE01.JPG,1,8,18,2,,,,,,,,,,,,,,,,,,,,,,,AMNE05.jpg,AMSA20.jpg,AMSA19.jpg,AMNE12.jpg,AMSA19.jpg,MS,2,num_2,32,num_8,0.716819600435,,,2018_Feb_09_1722,60.0072560572,MAFE4ImagesEEG,001,102949,
AFNE01.JPG,AFNE01.JPG,AFNE01.JPG,AFNE01.JPG,AFNE01.JPG,AFNE01.JPG,1,9,19,4,,,,,,,,,,,,,,,,,,,,,,,AMSA03.jpg,AMSA20.jpg,AMNE09.jpg,AMNE01.jpg,AMNE01.jpg,MN,1,num_4,16,num_4,0.866773879156,,,2018_Feb_09_1722,60.0072560572,MAFE4ImagesEEG,001,102949,
AFNE01.JPG,AFNE01.JPG,AFNE01.JPG,AFNE01.JPG,AFNE01.JPG,AFNE01.JPG,2,0,20,5,,,,,,,,,,,,,,,,,,,,,,,AMNE13.jpg,AMSA18.jpg,AMSA06.jpg,AMNE07.jpg,AMSA18.jpg,MS,2,num_6,32,num_2,0.866780614713,,,2018_Feb_09_1722,60.0072560572,MAFE4ImagesEEG,001,102949,
AFNE01.JPG,AFNE01.JPG,AFNE01.JPG,AFNE01.JPG,AFNE01.JPG,AFNE01.JPG,2,1,21,0,,,,,,,,,,,,,,,,,,,,,,,AMSA05.jpg,AMSA04.jpg,AMNE10.jpg,AMNE18.jpg,AMNE18.jpg,MN,1,num_4,32,num_2,0.966648245463,,,2018_Feb_09_1722,60.0072560572,MAFE4ImagesEEG,001,102949,
AFNE01.JPG,AFNE01.JPG,AFNE01.JPG,AFNE01.JPG,AFNE01.JPG,AFNE01.JPG,2,2,22,9,,,,,,,,,,,,,,,,,,,,,,,AMNE20.jpg,AMSA11.jpg,AMNE19.jpg,AMSA16.jpg,AMNE19.jpg,MN,1,num_2,32,num_8,0.800149272196,,,2018_Feb_09_1722,60.0072560572,MAFE4ImagesEEG,001,102949,
AFNE01.JPG,AFNE01.JPG,AFNE01.JPG,AFNE01.JPG,AFNE01.JPG,AFNE01.JPG,2,3,23,3,,,,,,,,,,,,,,,,,,,,,,,AMNE19.jpg,AMNE11.jpg,AMSA13.jpg,AMSA06.jpg,AMNE19.jpg,MN,1,num_8,16,num_8,0.533703445224,,,2018_Feb_09_1722,60.0072560572,MAFE4ImagesEEG,001,102949,
AFNE01.JPG,AFNE01.JPG,AFNE01.JPG,AFNE01.JPG,AFNE01.JPG,AFNE01.JPG,2,4,24,7,,,,,,,,,,,,,,,,,,,,,,,AMNE16.jpg,AMSA11.jpg,AMNE08.jpg,AMSA07.jpg,AMSA11.jpg,MS,2,num_6,16,num_6,0.933443710441,,,2018_Feb_09_1722,60.0072560572,MAFE4ImagesEEG,001,102949,
AFNE01.JPG,AFNE01.JPG,AFNE01.JPG,AFNE01.JPG,AFNE01.JPG,AFNE01.JPG,2,5,25,2,,,,,,,,,,,,,,,,,,,,,,,AMSA02.jpg,AMNE07.jpg,AMNE02.jpg,AMSA03.jpg,AMSA02.jpg,MS,2,num_8,32,num_2,1.41686068708,,,2018_Feb_09_1722,60.0072560572,MAFE4ImagesEEG,001,102949,
AFNE01.JPG,AFNE01.JPG,AFNE01.JPG,AFNE01.JPG,AFNE01.JPG,AFNE01.JPG,2,6,26,1,,,,,,,,,,,,,,,,,,,,,,,AMNE03.jpg,AMNE17.jpg,AMSA11.jpg,AMSA17.jpg,AMSA11.jpg,MS,2,num_2,16,num_2,0.9502109983,,,2018_Feb_09_1722,60.0072560572,MAFE4ImagesEEG,001,102949,
AFNE01.JPG,AFNE01.JPG,AFNE01.JPG,AFNE01.JPG,AFNE01.JPG,AFNE01.JPG,2,7,27,8,,,,,,,,,,,,,,,,,,,,,,,AMSA14.jpg,AMNE18.jpg,AMSA13.jpg,AMNE13.jpg,AMSA13.jpg,MS,2,num_2,32,num_6,1.10021595377,,,2018_Feb_09_1722,60.0072560572,MAFE4ImagesEEG,001,102949,
AFNE01.JPG,AFNE01.JPG,AFNE01.JPG,AFNE01.JPG,AFNE01.JPG,AFNE01.JPG,2,8,28,4,,,,,,,,,,,,,,,,,,,,,,,AMNE08.jpg,AMSA10.jpg,AMNE14.jpg,AMSA01.jpg,AMSA10.jpg,MS,2,num_6,16,num_6,0.816808470991,,,2018_Feb_09_1722,60.0072560572,MAFE4ImagesEEG,001,102949,
AFNE01.JPG,AFNE01.JPG,AFNE01.JPG,AFNE01.JPG,AFNE01.JPG,AFNE01.JPG,2,9,29,6,,,,,,,,,,,,,,,,,,,,,,,AMNE16.jpg,AMSA06.jpg,AMSA10.jpg,AMNE04.jpg,AMSA06.jpg,MS,2,num_6,32,num_4,1.0501033261,,,2018_Feb_09_1722,60.0072560572,MAFE4ImagesEEG,001,102949,
AFNE01.JPG,AFNE01.JPG,AFNE01.JPG,AFNE01.JPG,AFNE01.JPG,AFNE01.JPG,3,0,30,5,,,,,,,,,,,,,,,,,,,,,,,AMNE16.jpg,AMSA10.jpg,AMNE07.jpg,AMSA06.jpg,AMSA10.jpg,MS,2,num_6,16,num_6,0.683476185193,,,2018_Feb_09_1722,60.0072560572,MAFE4ImagesEEG,001,102949,
AFNE01.JPG,AFNE01.JPG,AFNE01.JPG,AFNE01.JPG,AFNE01.JPG,AFNE01.JPG,3,1,31,2,,,,,,,,,,,,,,,,,,,,,,,AMNE05.jpg,AMSA08.jpg,AMNE10.jpg,AMSA17.jpg,AMNE05.jpg,MN,1,num_8,32,num_6,0.816821621032,,,2018_Feb_09_1722,60.0072560572,MAFE4ImagesEEG,001,102949,
AFNE01.JPG,AFNE01.JPG,AFNE01.JPG,AFNE01.JPG,AFNE01.JPG,AFNE01.JPG,3,2,32,7,,,,,,,,,,,,,,,,,,,,,,,AMSA05.jpg,AMNE01.jpg,AMNE06.jpg,AMSA17.jpg,AMNE01.jpg,MN,1,num_6,16,num_6,1.31674769078,,,2018_Feb_09_1722,60.0072560572,MAFE4ImagesEEG,001,102949,
AFNE01.JPG,AFNE01.JPG,AFNE01.JPG,AFNE01.JPG,AFNE01.JPG,AFNE01.JPG,3,3,33,3,,,,,,,,,,,,,,,,,,,,,,,AMSA04.jpg,AMSA18.jpg,AMNE13.jpg,AMNE05.jpg,AMSA04.jpg,MS,2,num_8,32,num_6,0.833461575676,,,2018_Feb_09_1722,60.0072560572,MAFE4ImagesEEG,001,102949,
AFNE01.JPG,AFNE01.JPG,AFNE01.JPG,AFNE01.JPG,AFNE01.JPG,AFNE01.JPG,3,4,34,0,,,,,,,,,,,,,,,,,,,,,,,AMNE03.jpg,AMSA03.jpg,AMNE09.jpg,AMSA15.jpg,AMNE03.jpg,MN,1,num_8,16,num_8,0.883520319127,,,2018_Feb_09_1722,60.0072560572,MAFE4ImagesEEG,001,102949,
AFNE01.JPG,AFNE01.JPG,AFNE01.JPG,AFNE01.JPG,AFNE01.JPG,AFNE01.JPG,3,5,35,1,,,,,,,,,,,,,,,,,,,,,,,AMNE11.jpg,AMNE12.jpg,AMSA15.jpg,AMSA11.jpg,AMNE11.jpg,MN,1,num_8,16,num_8,0.716754169669,,,2018_Feb_09_1722,60.0072560572,MAFE4ImagesEEG,001,102949,
AFNE01.JPG,AFNE01.JPG,AFNE01.JPG,AFNE01.JPG,AFNE01.JPG,AFNE01.JPG,3,6,36,9,,,,,,,,,,,,,,,,,,,,,,,AMNE10.jpg,AMSA03.jpg,AMNE17.jpg,AMSA10.jpg,AMNE17.jpg,MN,1,num_2,32,num_8,0.900166046806,,,2018_Feb_09_1722,60.0072560572,MAFE4ImagesEEG,001,102949,
AFNE01.JPG,AFNE01.JPG,AFNE01.JPG,AFNE01.JPG,AFNE01.JPG,AFNE01.JPG,3,7,37,6,,,,,,,,,,,,,,,,,,,,,,,AMNE01.jpg,AMNE07.jpg,AMSA11.jpg,AMSA17.jpg,AMNE01.jpg,MN,1,num_8,16,num_8,0.816824828507,,,2018_Feb_09_1722,60.0072560572,MAFE4ImagesEEG,001,102949,
AFNE01.JPG,AFNE01.JPG,AFNE01.JPG,AFNE01.JPG,AFNE01.JPG,AFNE01.JPG,3,8,38,4,,,,,,,,,,,,,,,,,,,,,,,AMNE03.jpg,AMSA06.jpg,AMNE01.jpg,AMSA07.jpg,AMNE01.jpg,MN,1,num_2,16,num_2,0.93354955432,,,2018_Feb_09_1722,60.0072560572,MAFE4ImagesEEG,001,102949,
AFNE01.JPG,AFNE01.JPG,AFNE01.JPG,AFNE01.JPG,AFNE01.JPG,AFNE01.JPG,3,9,39,8,,,,,,,,,,,,,,,,,,,,,,,AMNE16.jpg,AMNE04.jpg,AMSA02.jpg,AMSA11.jpg,AMNE04.jpg,MN,1,num_6,16,num_6,1.31674320041,,,2018_Feb_09_1722,60.0072560572,MAFE4ImagesEEG,001,102949,
AFNE01.JPG,AFNE01.JPG,AFNE01.JPG,AFNE01.JPG,AFNE01.JPG,AFNE01.JPG,4,0,40,0,,,,,,,,,,,,,,,,,,,,,,,AMSA14.jpg,AMNE08.jpg,AMSA07.jpg,AMNE01.jpg,AMNE01.jpg,MN,1,num_4,16,num_4,0.950117342407,,,2018_Feb_09_1722,60.0072560572,MAFE4ImagesEEG,001,102949,
AFNE01.JPG,AFNE01.JPG,AFNE01.JPG,AFNE01.JPG,AFNE01.JPG,AFNE01.JPG,4,1,41,5,,,,,,,,,,,,,,,,,,,,,,,AMNE11.jpg,AMSA12.jpg,AMSA03.jpg,AMNE14.jpg,AMNE14.jpg,MN,1,num_4,32,num_8,0.933307075407,,,2018_Feb_09_1722,60.0072560572,MAFE4ImagesEEG,001,102949,
AFNE01.JPG,AFNE01.JPG,AFNE01.JPG,AFNE01.JPG,AFNE01.JPG,AFNE01.JPG,4,2,42,7,,,,,,,,,,,,,,,,,,,,,,,AMSA04.jpg,AMSA08.jpg,AMNE10.jpg,AMNE05.jpg,AMNE05.jpg,MN,1,num_4,16,num_4,0.533489191439,,,2018_Feb_09_1722,60.0072560572,MAFE4ImagesEEG,001,102949,
AFNE01.JPG,AFNE01.JPG,AFNE01.JPG,AFNE01.JPG,AFNE01.JPG,AFNE01.JPG,4,3,43,8,,,,,,,,,,,,,,,,,,,,,,,AMSA18.jpg,AMNE07.jpg,AMSA09.jpg,AMNE18.jpg,AMNE18.jpg,MN,1,num_4,16,num_4,0.6166693985,,,2018_Feb_09_1722,60.0072560572,MAFE4ImagesEEG,001,102949,
AFNE01.JPG,AFNE01.JPG,AFNE01.JPG,AFNE01.JPG,AFNE01.JPG,AFNE01.JPG,4,4,44,4,,,,,,,,,,,,,,,,,,,,,,,AMNE01.jpg,AMSA02.jpg,AMSA16.jpg,AMNE20.jpg,AMNE01.jpg,MN,1,num_8,32,num_2,1.03343258076,,,2018_Feb_09_1722,60.0072560572,MAFE4ImagesEEG,001,102949,
AFNE01.JPG,AFNE01.JPG,AFNE01.JPG,AFNE01.JPG,AFNE01.JPG,AFNE01.JPG,4,5,45,9,,,,,,,,,,,,,,,,,,,,,,,AMSA15.jpg,AMSA12.jpg,AMNE17.jpg,AMNE06.jpg,AMNE17.jpg,MN,1,num_2,32,num_6,1.81673373864,,,2018_Feb_09_1722,60.0072560572,MAFE4ImagesEEG,001,102949,
AFNE01.JPG,AFNE01.JPG,AFNE01.JPG,AFNE01.JPG,AFNE01.JPG,AFNE01.JPG,4,6,46,6,,,,,,,,,,,,,,,,,,,,,,,AMSA12.jpg,AMNE12.jpg,AMNE18.jpg,AMSA16.jpg,AMSA12.jpg,MS,2,num_8,32,num_6,0.750243842136,,,2018_Feb_09_1722,60.0072560572,MAFE4ImagesEEG,001,102949,
AFNE01.JPG,AFNE01.JPG,AFNE01.JPG,AFNE01.JPG,AFNE01.JPG,AFNE01.JPG,4,7,47,3,,,,,,,,,,,,,,,,,,,,,,,AMSA12.jpg,AMNE14.jpg,AMNE13.jpg,AMSA05.jpg,AMSA12.jpg,MS,2,num_8,32,num_4,0.916772323428,,,2018_Feb_09_1722,60.0072560572,MAFE4ImagesEEG,001,102949,
AFNE01.JPG,AFNE01.JPG,AFNE01.JPG,AFNE01.JPG,AFNE01.JPG,AFNE01.JPG,4,8,48,1,,,,,,,,,,,,,,,,,,,,,,,AMNE05.jpg,AMNE15.jpg,AMSA10.jpg,AMSA15.jpg,AMNE15.jpg,MN,1,num_6,32,num_2,0.850065286271,,,2018_Feb_09_1722,60.0072560572,MAFE4ImagesEEG,001,102949,
AFNE01.JPG,AFNE01.JPG,AFNE01.JPG,AFNE01.JPG,AFNE01.JPG,AFNE01.JPG,4,9,49,2,,,,,,,,,,,,,,,,,,,,,,,AMNE03.jpg,AMSA19.jpg,AMNE15.jpg,AMSA08.jpg,AMNE03.jpg,MN,1,num_8,32,num_6,0.550213179318,,,2018_Feb_09_1722,60.0072560572,MAFE4ImagesEEG,001,102949,
AFNE01.JPG,AFNE01.JPG,AFNE01.JPG,AFNE01.JPG,AFNE01.JPG,AFNE01.JPG,5,0,50,4,,,,,,,,,,,,,,,,,,,,,,,AMNE12.jpg,AMSA15.jpg,AMSA18.jpg,AMNE13.jpg,AMNE13.jpg,MN,1,num_4,32,num_6,0.700136025669,,,2018_Feb_09_1722,60.0072560572,MAFE4ImagesEEG,001,102949,
AFNE01.JPG,AFNE01.JPG,AFNE01.JPG,AFNE01.JPG,AFNE01.JPG,AFNE01.JPG,5,1,51,1,,,,,,,,,,,,,,,,,,,,,,,AMSA01.jpg,AMSA12.jpg,AMNE12.jpg,AMNE03.jpg,AMNE12.jpg,MN,1,num_2,32,num_6,0.700306017417,,,2018_Feb_09_1722,60.0072560572,MAFE4ImagesEEG,001,102949,
AFNE01.JPG,AFNE01.JPG,AFNE01.JPG,AFNE01.JPG,AFNE01.JPG,AFNE01.JPG,5,2,52,2,,,,,,,,,,,,,,,,,,,,,,,AMNE04.jpg,AMNE07.jpg,AMSA11.jpg,AMSA01.jpg,AMNE07.jpg,MN,1,num_6,16,num_6,0.450160161126,,,2018_Feb_09_1722,60.0072560572,MAFE4ImagesEEG,001,102949,
AFNE01.JPG,AFNE01.JPG,AFNE01.JPG,AFNE01.JPG,AFNE01.JPG,AFNE01.JPG,5,3,53,7,,,,,,,,,,,,,,,,,,,,,,,AMNE14.jpg,AMSA03.jpg,AMNE02.jpg,AMSA07.jpg,AMNE14.jpg,MN,1,num_8,16,num_8,0.833481140668,,,2018_Feb_09_1722,60.0072560572,MAFE4ImagesEEG,001,102949,
AFNE01.JPG,AFNE01.JPG,AFNE01.JPG,AFNE01.JPG,AFNE01.JPG,AFNE01.JPG,5,4,54,0,,,,,,,,,,,,,,,,,,,,,,,AMNE16.jpg,AMSA14.jpg,AMNE14.jpg,AMSA04.jpg,AMNE16.jpg,MN,1,num_8,16,num_8,0.750170072075,,,2018_Feb_09_1722,60.0072560572,MAFE4ImagesEEG,001,102949,
AFNE01.JPG,AFNE01.JPG,AFNE01.JPG,AFNE01.JPG,AFNE01.JPG,AFNE01.JPG,5,5,55,5,,,,,,,,,,,,,,,,,,,,,,,AMNE08.jpg,AMSA10.jpg,AMNE16.jpg,AMSA07.jpg,AMNE08.jpg,MN,1,num_8,32,num_6,0.81682482874,,,2018_Feb_09_1722,60.0072560572,MAFE4ImagesEEG,001,102949,
AFNE01.JPG,AFNE01.JPG,AFNE01.JPG,AFNE01.JPG,AFNE01.JPG,AFNE01.JPG,5,6,56,6,,,,,,,,,,,,,,,,,,,,,,,AMNE07.jpg,AMSA01.jpg,AMSA11.jpg,AMNE17.jpg,AMNE17.jpg,MN,1,num_4,16,num_4,0.866767464438,,,2018_Feb_09_1722,60.0072560572,MAFE4ImagesEEG,001,102949,
AFNE01.JPG,AFNE01.JPG,AFNE01.JPG,AFNE01.JPG,AFNE01.JPG,AFNE01.JPG,5,7,57,9,,,,,,,,,,,,,,,,,,,,,,,AMNE04.jpg,AMSA18.jpg,AMSA14.jpg,AMNE06.jpg,AMSA18.jpg,MS,2,num_6,32,num_8,0.683465600945,,,2018_Feb_09_1722,60.0072560572,MAFE4ImagesEEG,001,102949,
AFNE01.JPG,AFNE01.JPG,AFNE01.JPG,AFNE01.JPG,AFNE01.JPG,AFNE01.JPG,5,8,58,3,,,,,,,,,,,,,,,,,,,,,,,AMNE13.jpg,AMSA16.jpg,AMNE04.jpg,AMSA04.jpg,AMSA04.jpg,MS,2,num_4,16,num_4,0.85012077447,,,2018_Feb_09_1722,60.0072560572,MAFE4ImagesEEG,001,102949,
AFNE01.JPG,AFNE01.JPG,AFNE01.JPG,AFNE01.JPG,AFNE01.JPG,AFNE01.JPG,5,9,59,8,,,,,,,,,,,,,,,,,,,,,,,AMNE15.jpg,AMSA14.jpg,AMNE06.jpg,AMSA15.jpg,AMNE06.jpg,MN,1,num_2,32,num_6,1.08354135952,,,2018_Feb_09_1722,60.0072560572,MAFE4ImagesEEG,001,102949,
,,,,,,,,,,,,,,,,,,,,,,,,,,,,,,,,,,,,,,,,,,,space,9.84941707226,2018_Feb_09_1722,60.0072560572,MAFE4ImagesEEG,001,102949,
AFNE01.JPG,AFNE01.JPG,AFNE01.JPG,AFNE01.JPG,AFNE01.JPG,AFNE01.JPG,,,,,0,0,0,4,,,,,,,,,,,,,,,,,,,AFSA09.jpg,AFNE14.jpg,AFNE19.jpg,AFSA03.jpg,AFNE14.jpg,FN,3,num_6,16,num_6,1.03344092006,,,2018_Feb_09_1722,60.0072560572,MAFE4ImagesEEG,001,102949,
AFNE01.JPG,AFNE01.JPG,AFNE01.JPG,AFNE01.JPG,AFNE01.JPG,AFNE01.JPG,,,,,0,1,1,7,,,,,,,,,,,,,,,,,,,AFSA13.jpg,AFSA14.jpg,AFNE14.jpg,AFNE06.jpg,AFNE14.jpg,FN,3,num_2,32,num_4,0.666814420605,,,2018_Feb_09_1722,60.0072560572,MAFE4ImagesEEG,001,102949,
AFNE01.JPG,AFNE01.JPG,AFNE01.JPG,AFNE01.JPG,AFNE01.JPG,AFNE01.JPG,,,,,0,2,2,3,,,,,,,,,,,,,,,,,,,AFNE13.jpg,AFSA07.jpg,AFNE04.jpg,AFSA02.jpg,AFSA02.jpg,FS,4,num_4,32,num_6,0.416839518351,,,2018_Feb_09_1722,60.0072560572,MAFE4ImagesEEG,001,102949,
AFNE01.JPG,AFNE01.JPG,AFNE01.JPG,AFNE01.JPG,AFNE01.JPG,AFNE01.JPG,,,,,0,3,3,9,,,,,,,,,,,,,,,,,,,AFNE02.jpg,AFNE06.jpg,AFSA09.jpg,AFSA07.jpg,AFSA07.jpg,FS,4,num_4,16,num_4,0.616775883827,,,2018_Feb_09_1722,60.0072560572,MAFE4ImagesEEG,001,102949,
AFNE01.JPG,AFNE01.JPG,AFNE01.JPG,AFNE01.JPG,AFNE01.JPG,AFNE01.JPG,,,,,0,4,4,1,,,,,,,,,,,,,,,,,,,AFSA19.jpg,AFSA04.jpg,AFNE13.jpg,AFNE10.jpg,AFSA19.jpg,FS,4,num_8,32,num_4,0.900116332108,,,2018_Feb_09_1722,60.0072560572,MAFE4ImagesEEG,001,102949,
AFNE01.JPG,AFNE01.JPG,AFNE01.JPG,AFNE01.JPG,AFNE01.JPG,AFNE01.JPG,,,,,0,5,5,5,,,,,,,,,,,,,,,,,,,AFSA07.jpg,AFNE11.jpg,AFSA10.jpg,AFNE02.jpg,AFNE02.jpg,FN,3,num_4,32,num_6,1.03347716364,,,2018_Feb_09_1722,60.0072560572,MAFE4ImagesEEG,001,102949,
AFNE01.JPG,AFNE01.JPG,AFNE01.JPG,AFNE01.JPG,AFNE01.JPG,AFNE01.JPG,,,,,0,6,6,2,,,,,,,,,,,,,,,,,,,AFSA18.jpg,AFNE03.jpg,AFNE17.jpg,AFSA07.jpg,AFSA07.jpg,FS,4,num_4,32,num_8,0.733453460969,,,2018_Feb_09_1722,60.0072560572,MAFE4ImagesEEG,001,102949,
AFNE01.JPG,AFNE01.JPG,AFNE01.JPG,AFNE01.JPG,AFNE01.JPG,AFNE01.JPG,,,,,0,7,7,8,,,,,,,,,,,,,,,,,,,AFSA08.jpg,AFNE14.jpg,AFNE07.jpg,AFSA20.jpg,AFSA08.jpg,FS,4,num_8,32,num_2,1.33348707436,,,2018_Feb_09_1722,60.0072560572,MAFE4ImagesEEG,001,102949,
AFNE01.JPG,AFNE01.JPG,AFNE01.JPG,AFNE01.JPG,AFNE01.JPG,AFNE01.JPG,,,,,0,8,8,0,,,,,,,,,,,,,,,,,,,AFSA13.jpg,AFNE04.jpg,AFNE01.jpg,AFSA08.jpg,AFNE04.jpg,FN,3,num_6,16,num_6,1.06676926045,,,2018_Feb_09_1722,60.0072560572,MAFE4ImagesEEG,001,102949,
AFNE01.JPG,AFNE01.JPG,AFNE01.JPG,AFNE01.JPG,AFNE01.JPG,AFNE01.JPG,,,,,0,9,9,6,,,,,,,,,,,,,,,,,,,AFSA05.jpg,AFSA02.jpg,AFNE18.jpg,AFNE17.jpg,AFSA02.jpg,FS,4,num_6,16,num_6,0.500134229427,,,2018_Feb_09_1722,60.0072560572,MAFE4ImagesEEG,001,102949,
AFNE01.JPG,AFNE01.JPG,AFNE01.JPG,AFNE01.JPG,AFNE01.JPG,AFNE01.JPG,,,,,1,0,10,2,,,,,,,,,,,,,,,,,,,AFSA19.jpg,AFNE01.jpg,AFSA18.jpg,AFNE15.jpg,AFNE01.jpg,FN,3,num_6,16,num_6,0.750165260863,,,2018_Feb_09_1722,60.0072560572,MAFE4ImagesEEG,001,102949,
AFNE01.JPG,AFNE01.JPG,AFNE01.JPG,AFNE01.JPG,AFNE01.JPG,AFNE01.JPG,,,,,1,1,11,9,,,,,,,,,,,,,,,,,,,AFNE07.jpg,AFSA12.jpg,AFNE09.jpg,AFSA18.jpg,AFNE09.jpg,FN,3,num_2,16,num_2,0.93356078025,,,2018_Feb_09_1722,60.0072560572,MAFE4ImagesEEG,001,102949,
AFNE01.JPG,AFNE01.JPG,AFNE01.JPG,AFNE01.JPG,AFNE01.JPG,AFNE01.JPG,,,,,1,2,12,5,,,,,,,,,,,,,,,,,,,AFSA14.jpg,AFNE13.jpg,AFSA10.jpg,AFNE17.jpg,AFNE13.jpg,FN,3,num_6,32,num_8,1.30012665992,,,2018_Feb_09_1722,60.0072560572,MAFE4ImagesEEG,001,102949,
AFNE01.JPG,AFNE01.JPG,AFNE01.JPG,AFNE01.JPG,AFNE01.JPG,AFNE01.JPG,,,,,1,3,13,3,,,,,,,,,,,,,,,,,,,AFNE01.jpg,AFSA14.jpg,AFNE07.jpg,AFSA17.jpg,AFSA14.jpg,FS,4,num_6,32,num_4,0.716778866481,,,2018_Feb_09_1722,60.0072560572,MAFE4ImagesEEG,001,102949,
AFNE01.JPG,AFNE01.JPG,AFNE01.JPG,AFNE01.JPG,AFNE01.JPG,AFNE01.JPG,,,,,1,4,14,4,,,,,,,,,,,,,,,,,,,AFNE01.jpg,AFNE08.jpg,AFSA01.jpg,AFSA02.jpg,AFSA02.jpg,FS,4,num_4,16,num_4,1.23322653794,,,2018_Feb_09_1722,60.0072560572,MAFE4ImagesEEG,001,102949,
AFNE01.JPG,AFNE01.JPG,AFNE01.JPG,AFNE01.JPG,AFNE01.JPG,AFNE01.JPG,,,,,1,5,15,6,,,,,,,,,,,,,,,,,,,AFSA16.jpg,AFNE08.jpg,AFNE04.jpg,AFSA14.jpg,AFSA14.jpg,FS,4,num_4,32,num_6,1.28345783916,,,2018_Feb_09_1722,60.0072560572,MAFE4ImagesEEG,001,102949,
AFNE01.JPG,AFNE01.JPG,AFNE01.JPG,AFNE01.JPG,AFNE01.JPG,AFNE01.JPG,,,,,1,6,16,7,,,,,,,,,,,,,,,,,,,AFNE19.jpg,AFNE03.jpg,AFSA04.jpg,AFSA07.jpg,AFSA07.jpg,FS,4,num_4,16,num_4,0.750109452289,,,2018_Feb_09_1722,60.0072560572,MAFE4ImagesEEG,001,102949,
AFNE01.JPG,AFNE01.JPG,AFNE01.JPG,AFNE01.JPG,AFNE01.JPG,AFNE01.JPG,,,,,1,7,17,1,,,,,,,,,,,,,,,,,,,AFSA08.jpg,AFNE20.jpg,AFSA07.jpg,AFNE17.jpg,AFSA07.jpg,FS,4,num_2,32,num_6,0.383488405496,,,2018_Feb_09_1722,60.0072560572,MAFE4ImagesEEG,001,102949,
AFNE01.JPG,AFNE01.JPG,AFNE01.JPG,AFNE01.JPG,AFNE01.JPG,AFNE01.JPG,,,,,1,8,18,8,,,,,,,,,,,,,,,,,,,AFNE17.jpg,AFSA18.jpg,AFSA08.jpg,AFNE13.jpg,AFNE17.jpg,FN,3,num_8,32,num_6,0.516832237598,,,2018_Feb_09_1722,60.0072560572,MAFE4ImagesEEG,001,102949,
AFNE01.JPG,AFNE01.JPG,AFNE01.JPG,AFNE01.JPG,AFNE01.JPG,AFNE01.JPG,,,,,1,9,19,0,,,,,,,,,,,,,,,,,,,AFSA06.jpg,AFNE20.jpg,AFSA11.jpg,AFNE17.jpg,AFSA06.jpg,FS,4,num_8,32,num_4,0.633323785849,,,2018_Feb_09_1722,60.0072560572,MAFE4ImagesEEG,001,102949,
AFNE01.JPG,AFNE01.JPG,AFNE01.JPG,AFNE01.JPG,AFNE01.JPG,AFNE01.JPG,,,,,2,0,20,0,,,,,,,,,,,,,,,,,,,AFSA09.jpg,AFNE03.jpg,AFNE04.jpg,AFSA14.jpg,AFSA14.jpg,FS,4,num_4,32,num_8,0.933462954592,,,2018_Feb_09_1722,60.0072560572,MAFE4ImagesEEG,001,102949,
AFNE01.JPG,AFNE01.JPG,AFNE01.JPG,AFNE01.JPG,AFNE01.JPG,AFNE01.JPG,,,,,2,1,21,6,,,,,,,,,,,,,,,,,,,AFSA16.jpg,AFNE14.jpg,AFSA10.jpg,AFNE13.jpg,AFSA10.jpg,FS,4,num_2,32,num_6,0.80020379764,,,2018_Feb_09_1722,60.0072560572,MAFE4ImagesEEG,001,102949,
AFNE01.JPG,AFNE01.JPG,AFNE01.JPG,AFNE01.JPG,AFNE01.JPG,AFNE01.JPG,,,,,2,2,22,2,,,,,,,,,,,,,,,,,,,AFNE06.jpg,AFSA16.jpg,AFNE16.jpg,AFSA14.jpg,AFNE06.jpg,FN,3,num_8,16,num_8,0.816822262714,,,2018_Feb_09_1722,60.0072560572,MAFE4ImagesEEG,001,102949,
AFNE01.JPG,AFNE01.JPG,AFNE01.JPG,AFNE01.JPG,AFNE01.JPG,AFNE01.JPG,,,,,2,3,23,9,,,,,,,,,,,,,,,,,,,AFSA05.jpg,AFNE04.jpg,AFSA14.jpg,AFNE20.jpg,AFSA14.jpg,FS,4,num_2,16,num_2,1.00011995644,,,2018_Feb_09_1722,60.0072560572,MAFE4ImagesEEG,001,102949,
AFNE01.JPG,AFNE01.JPG,AFNE01.JPG,AFNE01.JPG,AFNE01.JPG,AFNE01.JPG,,,,,2,4,24,1,,,,,,,,,,,,,,,,,,,AFNE06.jpg,AFSA08.jpg,AFSA06.jpg,AFNE15.jpg,AFNE15.jpg,FN,3,num_4,16,num_4,0.783465055749,,,2018_Feb_09_1722,60.0072560572,MAFE4ImagesEEG,001,102949,
AFNE01.JPG,AFNE01.JPG,AFNE01.JPG,AFNE01.JPG,AFNE01.JPG,AFNE01.JPG,,,,,2,5,25,8,,,,,,,,,,,,,,,,,,,AFNE11.jpg,AFSA17.jpg,AFSA14.jpg,AFNE16.jpg,AFSA14.jpg,FS,4,num_2,32,num_6,0.533473474905,,,2018_Feb_09_1722,60.0072560572,MAFE4ImagesEEG,001,102949,
AFNE01.JPG,AFNE01.JPG,AFNE01.JPG,AFNE01.JPG,AFNE01.JPG,AFNE01.JPG,,,,,2,6,26,3,,,,,,,,,,,,,,,,,,,AFSA11.jpg,AFNE04.jpg,AFSA08.jpg,AFNE15.jpg,AFSA08.jpg,FS,4,num_2,32,num_8,0.933479312574,,,2018_Feb_09_1722,60.0072560572,MAFE4ImagesEEG,001,102949,
AFNE01.JPG,AFNE01.JPG,AFNE01.JPG,AFNE01.JPG,AFNE01.JPG,AFNE01.JPG,,,,,2,7,27,5,,,,,,,,,,,,,,,,,,,AFNE17.jpg,AFNE09.jpg,AFSA15.jpg,AFSA13.jpg,AFSA15.jpg,FS,4,num_2,16,num_2,0.76679655537,,,2018_Feb_09_1722,60.0072560572,MAFE4ImagesEEG,001,102949,
AFNE01.JPG,AFNE01.JPG,AFNE01.JPG,AFNE01.JPG,AFNE01.JPG,AFNE01.JPG,,,,,2,8,28,4,,,,,,,,,,,,,,,,,,,AFSA07.jpg,AFNE05.jpg,AFSA03.jpg,AFNE03.jpg,AFNE03.jpg,FN,3,num_4,32,num_2,1.11674589454,,,2018_Feb_09_1722,60.0072560572,MAFE4ImagesEEG,001,102949,
AFNE01.JPG,AFNE01.JPG,AFNE01.JPG,AFNE01.JPG,AFNE01.JPG,AFNE01.JPG,,,,,2,9,29,7,,,,,,,,,,,,,,,,,,,AFSA14.jpg,AFNE08.jpg,AFSA06.jpg,AFNE19.jpg,AFNE19.jpg,FN,3,num_4,32,num_6,0.266717493068,,,2018_Feb_09_1722,60.0072560572,MAFE4ImagesEEG,001,102949,
AFNE01.JPG,AFNE01.JPG,AFNE01.JPG,AFNE01.JPG,AFNE01.JPG,AFNE01.JPG,,,,,3,0,30,9,,,,,,,,,,,,,,,,,,,AFSA12.jpg,AFNE14.jpg,AFSA01.jpg,AFNE12.jpg,AFSA01.jpg,FS,4,num_2,16,num_2,0.616817900678,,,2018_Feb_09_1722,60.0072560572,MAFE4ImagesEEG,001,102949,
AFNE01.JPG,AFNE01.JPG,AFNE01.JPG,AFNE01.JPG,AFNE01.JPG,AFNE01.JPG,,,,,3,1,31,4,,,,,,,,,,,,,,,,,,,AFNE12.jpg,AFNE14.jpg,AFSA18.jpg,AFSA06.jpg,AFNE12.jpg,FN,3,num_8,32,num_4,0.316693485714,,,2018_Feb_09_1722,60.0072560572,MAFE4ImagesEEG,001,102949,
AFNE01.JPG,AFNE01.JPG,AFNE01.JPG,AFNE01.JPG,AFNE01.JPG,AFNE01.JPG,,,,,3,2,32,3,,,,,,,,,,,,,,,,,,,AFSA09.jpg,AFNE13.jpg,AFNE03.jpg,AFSA13.jpg,AFSA09.jpg,FS,4,num_8,32,num_2,0.550134598278,,,2018_Feb_09_1722,60.0072560572,MAFE4ImagesEEG,001,102949,
AFNE01.JPG,AFNE01.JPG,AFNE01.JPG,AFNE01.JPG,AFNE01.JPG,AFNE01.JPG,,,,,3,3,33,2,,,,,,,,,,,,,,,,,,,AFSA16.jpg,AFNE10.jpg,AFSA04.jpg,AFNE03.jpg,AFNE10.jpg,FN,3,num_6,16,num_6,0.88346451032,,,2018_Feb_09_1722,60.0072560572,MAFE4ImagesEEG,001,102949,
AFNE01.JPG,AFNE01.JPG,AFNE01.JPG,AFNE01.JPG,AFNE01.JPG,AFNE01.JPG,,,,,3,4,34,0,,,,,,,,,,,,,,,,,,,AFNE14.jpg,AFSA06.jpg,AFNE03.jpg,AFSA01.jpg,AFSA01.jpg,FS,4,num_4,16,num_4,1.25010127341,,,2018_Feb_09_1722,60.0072560572,MAFE4ImagesEEG,001,102949,
AFNE01.JPG,AFNE01.JPG,AFNE01.JPG,AFNE01.JPG,AFNE01.JPG,AFNE01.JPG,,,,,3,5,35,5,,,,,,,,,,,,,,,,,,,AFSA16.jpg,AFNE10.jpg,AFSA02.jpg,AFNE07.jpg,AFNE10.jpg,FN,3,num_6,16,num_6,0.783460885985,,,2018_Feb_09_1722,60.0072560572,MAFE4ImagesEEG,001,102949,
AFNE01.JPG,AFNE01.JPG,AFNE01.JPG,AFNE01.JPG,AFNE01.JPG,AFNE01.JPG,,,,,3,6,36,7,,,,,,,,,,,,,,,,,,,AFSA16.jpg,AFNE05.jpg,AFNE06.jpg,AFSA07.jpg,AFSA07.jpg,FS,4,num_4,16,num_4,0.750118753873,,,2018_Feb_09_1722,60.0072560572,MAFE4ImagesEEG,001,102949,
AFNE01.JPG,AFNE01.JPG,AFNE01.JPG,AFNE01.JPG,AFNE01.JPG,AFNE01.JPG,,,,,3,7,37,8,,,,,,,,,,,,,,,,,,,AFSA02.jpg,AFNE01.jpg,AFNE17.jpg,AFSA17.jpg,AFNE17.jpg,FN,3,num_2,32,num_4,0.333537430502,,,2018_Feb_09_1722,60.0072560572,MAFE4ImagesEEG,001,102949,
AFNE01.JPG,AFNE01.JPG,AFNE01.JPG,AFNE01.JPG,AFNE01.JPG,AFNE01.JPG,,,,,3,8,38,1,,,,,,,,,,,,,,,,,,,AFNE02.jpg,AFNE17.jpg,AFSA06.jpg,AFSA13.jpg,AFSA06.jpg,FS,4,num_2,32,num_4,0.416812896961,,,2018_Feb_09_1722,60.0072560572,MAFE4ImagesEEG,001,102949,
AFNE01.JPG,AFNE01.JPG,AFNE01.JPG,AFNE01.JPG,AFNE01.JPG,AFNE01.JPG,,,,,3,9,39,6,,,,,,,,,,,,,,,,,,,AFNE05.jpg,AFNE09.jpg,AFSA02.jpg,AFSA08.jpg,AFNE09.jpg,FN,3,num_6,16,num_6,0.666812175419,,,2018_Feb_09_1722,60.0072560572,MAFE4ImagesEEG,001,102949,
AFNE01.JPG,AFNE01.JPG,AFNE01.JPG,AFNE01.JPG,AFNE01.JPG,AFNE01.JPG,,,,,4,0,40,5,,,,,,,,,,,,,,,,,,,AFSA14.jpg,AFSA10.jpg,AFNE11.jpg,AFNE08.jpg,AFSA10.jpg,FS,4,num_6,16,num_6,0.53354115109,,,2018_Feb_09_1722,60.0072560572,MAFE4ImagesEEG,001,102949,
AFNE01.JPG,AFNE01.JPG,AFNE01.JPG,AFNE01.JPG,AFNE01.JPG,AFNE01.JPG,,,,,4,1,41,3,,,,,,,,,,,,,,,,,,,AFNE18.jpg,AFNE05.jpg,AFSA10.jpg,AFSA20.jpg,AFNE18.jpg,FN,3,num_8,16,num_8,1.10039043613,,,2018_Feb_09_1722,60.0072560572,MAFE4ImagesEEG,001,102949,
AFNE01.JPG,AFNE01.JPG,AFNE01.JPG,AFNE01.JPG,AFNE01.JPG,AFNE01.JPG,,,,,4,2,42,2,,,,,,,,,,,,,,,,,,,AFSA15.jpg,AFNE03.jpg,AFNE11.jpg,AFSA14.jpg,AFNE03.jpg,FN,3,num_6,32,num_8,1.00008178852,,,2018_Feb_09_1722,60.0072560572,MAFE4ImagesEEG,001,102949,
AFNE01.JPG,AFNE01.JPG,AFNE01.JPG,AFNE01.JPG,AFNE01.JPG,AFNE01.JPG,,,,,4,3,43,6,,,,,,,,,,,,,,,,,,,AFNE05.jpg,AFNE01.jpg,AFSA17.jpg,AFSA14.jpg,AFSA17.jpg,FS,4,num_2,16,num_2,0.683488694252,,,2018_Feb_09_1722,60.0072560572,MAFE4ImagesEEG,001,102949,
AFNE01.JPG,AFNE01.JPG,AFNE01.JPG,AFNE01.JPG,AFNE01.JPG,AFNE01.JPG,,,,,4,4,44,8,,,,,,,,,,,,,,,,,,,AFSA16.jpg,AFNE04.jpg,AFSA15.jpg,AFNE18.jpg,AFNE18.jpg,FN,3,num_4,16,num_4,0.950097135734,,,2018_Feb_09_1722,60.0072560572,MAFE4ImagesEEG,001,102949,
AFNE01.JPG,AFNE01.JPG,AFNE01.JPG,AFNE01.JPG,AFNE01.JPG,AFNE01.JPG,,,,,4,5,45,1,,,,,,,,,,,,,,,,,,,AFNE07.jpg,AFSA07.jpg,AFSA18.jpg,AFNE18.jpg,AFNE18.jpg,FN,3,num_4,16,num_4,0.816757794004,,,2018_Feb_09_1722,60.0072560572,MAFE4ImagesEEG,001,102949,
AFNE01.JPG,AFNE01.JPG,AFNE01.JPG,AFNE01.JPG,AFNE01.JPG,AFNE01.JPG,,,,,4,6,46,0,,,,,,,,,,,,,,,,,,,AFSA05.jpg,AFNE12.jpg,AFSA03.jpg,AFNE14.jpg,AFSA03.jpg,FS,4,num_2,32,num_8,1.03341814759,,,2018_Feb_09_1722,60.0072560572,MAFE4ImagesEEG,001,102949,
AFNE01.JPG,AFNE01.JPG,AFNE01.JPG,AFNE01.JPG,AFNE01.JPG,AFNE01.JPG,,,,,4,7,47,4,,,,,,,,,,,,,,,,,,,AFSA13.jpg,AFSA02.jpg,AFNE03.jpg,AFNE07.jpg,AFSA02.jpg,FS,4,num_6,32,num_8,0.900123709114,,,2018_Feb_09_1722,60.0072560572,MAFE4ImagesEEG,001,102949,
AFNE01.JPG,AFNE01.JPG,AFNE01.JPG,AFNE01.JPG,AFNE01.JPG,AFNE01.JPG,,,,,4,8,48,7,,,,,,,,,,,,,,,,,,,AFSA03.jpg,AFSA11.jpg,AFNE02.jpg,AFNE12.jpg,AFSA03.jpg,FS,4,num_8,32,num_6,0.700162005378,,,2018_Feb_09_1722,60.0072560572,MAFE4ImagesEEG,001,102949,
AFNE01.JPG,AFNE01.JPG,AFNE01.JPG,AFNE01.JPG,AFNE01.JPG,AFNE01.JPG,,,,,4,9,49,9,,,,,,,,,,,,,,,,,,,AFNE07.jpg,AFSA03.jpg,AFSA18.jpg,AFNE11.jpg,AFSA18.jpg,FS,4,num_2,32,num_6,1.01634423272,,,2018_Feb_09_1722,60.0072560572,MAFE4ImagesEEG,001,102949,
AFNE01.JPG,AFNE01.JPG,AFNE01.JPG,AFNE01.JPG,AFNE01.JPG,AFNE01.JPG,,,,,5,0,50,6,,,,,,,,,,,,,,,,,,,AFSA05.jpg,AFSA19.jpg,AFNE16.jpg,AFNE20.jpg,AFSA19.jpg,FS,4,num_6,32,num_8,1.0834281384,,,2018_Feb_09_1722,60.0072560572,MAFE4ImagesEEG,001,102949,
AFNE01.JPG,AFNE01.JPG,AFNE01.JPG,AFNE01.JPG,AFNE01.JPG,AFNE01.JPG,,,,,5,1,51,7,,,,,,,,,,,,,,,,,,,AFNE04.jpg,AFNE03.jpg,AFSA11.jpg,AFSA01.jpg,AFNE03.jpg,FN,3,num_6,16,num_6,0.71691229404,,,2018_Feb_09_1722,60.0072560572,MAFE4ImagesEEG,001,102949,
AFNE01.JPG,AFNE01.JPG,AFNE01.JPG,AFNE01.JPG,AFNE01.JPG,AFNE01.JPG,,,,,5,2,52,3,,,,,,,,,,,,,,,,,,,AFNE13.jpg,AFSA07.jpg,AFSA12.jpg,AFNE09.jpg,AFNE09.jpg,FN,3,num_4,32,num_6,1.81700829137,,,2018_Feb_09_1722,60.0072560572,MAFE4ImagesEEG,001,102949,
AFNE01.JPG,AFNE01.JPG,AFNE01.JPG,AFNE01.JPG,AFNE01.JPG,AFNE01.JPG,,,,,5,3,53,4,,,,,,,,,,,,,,,,,,,AFSA02.jpg,AFSA12.jpg,AFNE17.jpg,AFNE14.jpg,AFNE17.jpg,FN,3,num_2,32,num_4,0.25023502158,,,2018_Feb_09_1722,60.0072560572,MAFE4ImagesEEG,001,102949,
AFNE01.JPG,AFNE01.JPG,AFNE01.JPG,AFNE01.JPG,AFNE01.JPG,AFNE01.JPG,,,,,5,4,54,2,,,,,,,,,,,,,,,,,,,AFNE12.jpg,AFNE05.jpg,AFSA02.jpg,AFSA01.jpg,AFSA01.jpg,FS,4,num_4,32,num_6,0.583501748042,,,2018_Feb_09_1722,60.0072560572,MAFE4ImagesEEG,001,102949,
AFNE01.JPG,AFNE01.JPG,AFNE01.JPG,AFNE01.JPG,AFNE01.JPG,AFNE01.JPG,,,,,5,5,55,0,,,,,,,,,,,,,,,,,,,AFNE02.jpg,AFNE17.jpg,AFSA01.jpg,AFSA18.jpg,AFNE17.jpg,FN,3,num_6,32,num_4,0.900112804025,,,2018_Feb_09_1722,60.0072560572,MAFE4ImagesEEG,001,102949,
AFNE01.JPG,AFNE01.JPG,AFNE01.JPG,AFNE01.JPG,AFNE01.JPG,AFNE01.JPG,,,,,5,6,56,9,,,,,,,,,,,,,,,,,,,AFSA01.jpg,AFNE13.jpg,AFSA18.jpg,AFNE05.jpg,AFSA01.jpg,FS,4,num_8,16,num_8,1.00010648533,,,2018_Feb_09_1722,60.0072560572,MAFE4ImagesEEG,001,102949,
AFNE01.JPG,AFNE01.JPG,AFNE01.JPG,AFNE01.JPG,AFNE01.JPG,AFNE01.JPG,,,,,5,7,57,8,,,,,,,,,,,,,,,,,,,AFNE07.jpg,AFSA09.jpg,AFNE19.jpg,AFSA07.jpg,AFNE19.jpg,FN,3,num_2,16,num_2,1.05027171434,,,2018_Feb_09_1722,60.0072560572,MAFE4ImagesEEG,001,102949,
AFNE01.JPG,AFNE01.JPG,AFNE01.JPG,AFNE01.JPG,AFNE01.JPG,AFNE01.JPG,,,,,5,8,58,1,,,,,,,,,,,,,,,,,,,AFSA07.jpg,AFSA11.jpg,AFNE09.jpg,AFNE14.jpg,AFSA11.jpg,FS,4,num_6,16,num_6,0.916742173955,,,2018_Feb_09_1722,60.0072560572,MAFE4ImagesEEG,001,102949,
AFNE01.JPG,AFNE01.JPG,AFNE01.JPG,AFNE01.JPG,AFNE01.JPG,AFNE01.JPG,,,,,5,9,59,5,,,,,,,,,,,,,,,,,,,AFSA16.jpg,AFSA17.jpg,AFNE17.jpg,AFNE14.jpg,AFSA16.jpg,FS,4,num_8,16,num_8,1.25005733222,,,2018_Feb_09_1722,60.0072560572,MAFE4ImagesEEG,001,102949,
,,,,,,,,,,,,,,,,,,,,,,,,,,,,,,,,,,,,,,,,,,,space,4.09987083822,2018_Feb_09_1722,60.0072560572,MAFE4ImagesEEG,001,102949,
AFNE01.JPG,AFNE01.JPG,AFNE01.JPG,AFNE01.JPG,AFNE01.JPG,AFNE01.JPG,,,,,,,,,0,0,0,9,,,,,,,,,,,,,,,AMSA07.jpg,AMNE18.jpg,AMNE20.jpg,AMSA03.jpg,AMSA03.jpg,MS,2,num_4,16,num_4,0.800342357252,,,2018_Feb_09_1722,60.0072560572,MAFE4ImagesEEG,001,102949,
AFNE01.JPG,AFNE01.JPG,AFNE01.JPG,AFNE01.JPG,AFNE01.JPG,AFNE01.JPG,,,,,,,,,0,1,1,1,,,,,,,,,,,,,,,AMNE18.jpg,AMSA13.jpg,AMSA18.jpg,AMNE19.jpg,AMNE18.jpg,MN,1,num_8,32,num_4,0.85011051083,,,2018_Feb_09_1722,60.0072560572,MAFE4ImagesEEG,001,102949,
AFNE01.JPG,AFNE01.JPG,AFNE01.JPG,AFNE01.JPG,AFNE01.JPG,AFNE01.JPG,,,,,,,,,0,2,2,0,,,,,,,,,,,,,,,AMNE07.jpg,AMNE02.jpg,AMSA13.jpg,AMSA19.jpg,AMNE02.jpg,MN,1,num_6,16,num_6,0.849968743976,,,2018_Feb_09_1722,60.0072560572,MAFE4ImagesEEG,001,102949,
AFNE01.JPG,AFNE01.JPG,AFNE01.JPG,AFNE01.JPG,AFNE01.JPG,AFNE01.JPG,,,,,,,,,0,3,3,2,,,,,,,,,,,,,,,AMSA13.jpg,AMNE09.jpg,AMNE05.jpg,AMSA19.jpg,AMNE09.jpg,MN,1,num_6,32,num_8,1.01675991085,,,2018_Feb_09_1722,60.0072560572,MAFE4ImagesEEG,001,102949,
AFNE01.JPG,AFNE01.JPG,AFNE01.JPG,AFNE01.JPG,AFNE01.JPG,AFNE01.JPG,,,,,,,,,0,4,4,8,,,,,,,,,,,,,,,AMNE10.jpg,AMSA02.jpg,AMSA11.jpg,AMNE03.jpg,AMNE03.jpg,MN,1,num_4,32,num_6,0.833452274092,,,2018_Feb_09_1722,60.0072560572,MAFE4ImagesEEG,001,102949,
AFNE01.JPG,AFNE01.JPG,AFNE01.JPG,AFNE01.JPG,AFNE01.JPG,AFNE01.JPG,,,,,,,,,0,5,5,6,,,,,,,,,,,,,,,AMSA01.jpg,AMNE05.jpg,AMSA11.jpg,AMNE20.jpg,AMNE05.jpg,MN,1,num_6,16,num_6,0.883621993475,,,2018_Feb_09_1722,60.0072560572,MAFE4ImagesEEG,001,102949,
AFNE01.JPG,AFNE01.JPG,AFNE01.JPG,AFNE01.JPG,AFNE01.JPG,AFNE01.JPG,,,,,,,,,0,6,6,5,,,,,,,,,,,,,,,AMSA09.jpg,AMNE10.jpg,AMNE04.jpg,AMSA04.jpg,AMNE04.jpg,MN,1,num_2,32,num_4,0.650114808697,,,2018_Feb_09_1722,60.0072560572,MAFE4ImagesEEG,001,102949,
AFNE01.JPG,AFNE01.JPG,AFNE01.JPG,AFNE01.JPG,AFNE01.JPG,AFNE01.JPG,,,,,,,,,0,7,7,4,,,,,,,,,,,,,,,AMSA10.jpg,AMNE06.jpg,AMSA05.jpg,AMNE01.jpg,AMSA05.jpg,MS,2,num_2,32,num_8,1.65006188676,,,2018_Feb_09_1722,60.0072560572,MAFE4ImagesEEG,001,102949,
AFNE01.JPG,AFNE01.JPG,AFNE01.JPG,AFNE01.JPG,AFNE01.JPG,AFNE01.JPG,,,,,,,,,0,8,8,7,,,,,,,,,,,,,,,AMSA15.jpg,AMSA06.jpg,AMNE20.jpg,AMNE04.jpg,AMSA15.jpg,MS,2,num_8,32,num_6,0.700196324615,,,2018_Feb_09_1722,60.0072560572,MAFE4ImagesEEG,001,102949,
AFNE01.JPG,AFNE01.JPG,AFNE01.JPG,AFNE01.JPG,AFNE01.JPG,AFNE01.JPG,,,,,,,,,0,9,9,3,,,,,,,,,,,,,,,AMSA03.jpg,AMNE13.jpg,AMNE16.jpg,AMSA10.jpg,AMNE16.jpg,MN,1,num_2,32,num_4,0.433474340942,,,2018_Feb_09_1722,60.0072560572,MAFE4ImagesEEG,001,102949,
AFNE01.JPG,AFNE01.JPG,AFNE01.JPG,AFNE01.JPG,AFNE01.JPG,AFNE01.JPG,,,,,,,,,1,0,10,3,,,,,,,,,,,,,,,AMNE19.jpg,AMSA02.jpg,AMNE16.jpg,AMSA08.jpg,AMNE16.jpg,MN,1,num_2,32,num_4,0.300146225141,,,2018_Feb_09_1722,60.0072560572,MAFE4ImagesEEG,001,102949,
AFNE01.JPG,AFNE01.JPG,AFNE01.JPG,AFNE01.JPG,AFNE01.JPG,AFNE01.JPG,,,,,,,,,1,1,11,6,,,,,,,,,,,,,,,AMSA19.jpg,AMNE02.jpg,AMSA13.jpg,AMNE01.jpg,AMNE02.jpg,MN,1,num_6,32,num_8,0.833439444657,,,2018_Feb_09_1722,60.0072560572,MAFE4ImagesEEG,001,102949,
AFNE01.JPG,AFNE01.JPG,AFNE01.JPG,AFNE01.JPG,AFNE01.JPG,AFNE01.JPG,,,,,,,,,1,2,12,8,,,,,,,,,,,,,,,AMSA18.jpg,AMNE16.jpg,AMSA12.jpg,AMNE05.jpg,AMSA12.jpg,MS,2,num_2,32,num_6,0.500198056689,,,2018_Feb_09_1722,60.0072560572,MAFE4ImagesEEG,001,102949,
AFNE01.JPG,AFNE01.JPG,AFNE01.JPG,AFNE01.JPG,AFNE01.JPG,AFNE01.JPG,,,,,,,,,1,3,13,5,,,,,,,,,,,,,,,AMSA18.jpg,AMSA05.jpg,AMNE01.jpg,AMNE17.jpg,AMSA18.jpg,MS,2,num_8,32,num_2,0.40016748989,,,2018_Feb_09_1722,60.0072560572,MAFE4ImagesEEG,001,102949,
AFNE01.JPG,AFNE01.JPG,AFNE01.JPG,AFNE01.JPG,AFNE01.JPG,AFNE01.JPG,,,,,,,,,1,4,14,0,,,,,,,,,,,,,,,AMSA04.jpg,AMNE01.jpg,AMSA13.jpg,AMNE12.jpg,AMSA04.jpg,MS,2,num_8,32,num_6,0.566804702161,,,2018_Feb_09_1722,60.0072560572,MAFE4ImagesEEG,001,102949,
AFNE01.JPG,AFNE01.JPG,AFNE01.JPG,AFNE01.JPG,AFNE01.JPG,AFNE01.JPG,,,,,,,,,1,5,15,2,,,,,,,,,,,,,,,AMNE17.jpg,AMSA07.jpg,AMNE15.jpg,AMSA17.jpg,AMNE17.jpg,MN,1,num_8,32,num_6,1.36672207993,,,2018_Feb_09_1722,60.0072560572,MAFE4ImagesEEG,001,102949,
AFNE01.JPG,AFNE01.JPG,AFNE01.JPG,AFNE01.JPG,AFNE01.JPG,AFNE01.JPG,,,,,,,,,1,6,16,4,,,,,,,,,,,,,,,AMSA10.jpg,AMNE01.jpg,AMNE05.jpg,AMSA14.jpg,AMNE05.jpg,MN,1,num_2,32,num_6,1.13344005402,,,2018_Feb_09_1722,60.0072560572,MAFE4ImagesEEG,001,102949,
AFNE01.JPG,AFNE01.JPG,AFNE01.JPG,AFNE01.JPG,AFNE01.JPG,AFNE01.JPG,,,,,,,,,1,7,17,9,,,,,,,,,,,,,,,AMNE05.jpg,AMSA02.jpg,AMSA08.jpg,AMNE19.jpg,AMNE05.jpg,MN,1,num_8,32,num_6,2.59998678556,,,2018_Feb_09_1722,60.0072560572,MAFE4ImagesEEG,001,102949,
AFNE01.JPG,AFNE01.JPG,AFNE01.JPG,AFNE01.JPG,AFNE01.JPG,AFNE01.JPG,,,,,,,,,1,8,18,7,,,,,,,,,,,,,,,AMNE16.jpg,AMNE10.jpg,AMSA20.jpg,AMSA01.jpg,AMSA20.jpg,MS,2,num_2,32,num_6,0.833474084502,,,2018_Feb_09_1722,60.0072560572,MAFE4ImagesEEG,001,102949,
AFNE01.JPG,AFNE01.JPG,AFNE01.JPG,AFNE01.JPG,AFNE01.JPG,AFNE01.JPG,,,,,,,,,1,9,19,1,,,,,,,,,,,,,,,AMNE13.jpg,AMSA19.jpg,AMNE03.jpg,AMSA06.jpg,AMSA19.jpg,MS,2,num_6,16,num_6,0.633470684523,,,2018_Feb_09_1722,60.0072560572,MAFE4ImagesEEG,001,102949,
AFNE01.JPG,AFNE01.JPG,AFNE01.JPG,AFNE01.JPG,AFNE01.JPG,AFNE01.JPG,,,,,,,,,2,0,20,9,,,,,,,,,,,,,,,AMSA18.jpg,AMNE15.jpg,AMSA10.jpg,AMNE03.jpg,AMSA10.jpg,MS,2,num_2,32,num_6,0.533424401889,,,2018_Feb_09_1722,60.0072560572,MAFE4ImagesEEG,001,102949,
AFNE01.JPG,AFNE01.JPG,AFNE01.JPG,AFNE01.JPG,AFNE01.JPG,AFNE01.JPG,,,,,,,,,2,1,21,7,,,,,,,,,,,,,,,AMNE09.jpg,AMNE15.jpg,AMSA02.jpg,AMSA12.jpg,AMSA02.jpg,MS,2,num_2,16,num_2,0.749985967763,,,2018_Feb_09_1722,60.0072560572,MAFE4ImagesEEG,001,102949,
AFNE01.JPG,AFNE01.JPG,AFNE01.JPG,AFNE01.JPG,AFNE01.JPG,AFNE01.JPG,,,,,,,,,2,2,22,2,,,,,,,,,,,,,,,AMSA08.jpg,AMSA12.jpg,AMNE02.jpg,AMNE04.jpg,AMNE04.jpg,MN,1,num_4,16,num_4,0.683316457085,,,2018_Feb_09_1722,60.0072560572,MAFE4ImagesEEG,001,102949,
AFNE01.JPG,AFNE01.JPG,AFNE01.JPG,AFNE01.JPG,AFNE01.JPG,AFNE01.JPG,,,,,,,,,2,3,23,0,,,,,,,,,,,,,,,AMNE19.jpg,AMNE08.jpg,AMSA01.jpg,AMSA20.jpg,AMNE08.jpg,MN,1,num_6,16,num_6,0.550135239726,,,2018_Feb_09_1722,60.0072560572,MAFE4ImagesEEG,001,102949,
AFNE01.JPG,AFNE01.JPG,AFNE01.JPG,AFNE01.JPG,AFNE01.JPG,AFNE01.JPG,,,,,,,,,2,4,24,8,,,,,,,,,,,,,,,AMNE08.jpg,AMSA15.jpg,AMNE03.jpg,AMSA06.jpg,AMSA15.jpg,MS,2,num_6,16,num_6,0.516824539984,,,2018_Feb_09_1722,60.0072560572,MAFE4ImagesEEG,001,102949,
AFNE01.JPG,AFNE01.JPG,AFNE01.JPG,AFNE01.JPG,AFNE01.JPG,AFNE01.JPG,,,,,,,,,2,5,25,4,,,,,,,,,,,,,,,AMSA12.jpg,AMNE13.jpg,AMNE05.jpg,AMSA01.jpg,AMNE05.jpg,MN,1,num_2,32,num_4,0.866688241716,,,2018_Feb_09_1722,60.0072560572,MAFE4ImagesEEG,001,102949,
AFNE01.JPG,AFNE01.JPG,AFNE01.JPG,AFNE01.JPG,AFNE01.JPG,AFNE01.JPG,,,,,,,,,2,6,26,6,,,,,,,,,,,,,,,AMSA16.jpg,AMSA10.jpg,AMNE17.jpg,AMNE18.jpg,AMSA10.jpg,MS,2,num_6,16,num_6,1.21679153573,,,2018_Feb_09_1722,60.0072560572,MAFE4ImagesEEG,001,102949,
AFNE01.JPG,AFNE01.JPG,AFNE01.JPG,AFNE01.JPG,AFNE01.JPG,AFNE01.JPG,,,,,,,,,2,7,27,5,,,,,,,,,,,,,,,AMSA14.jpg,AMNE13.jpg,AMNE07.jpg,AMSA06.jpg,AMNE13.jpg,MN,1,num_6,16,num_6,0.516816521296,,,2018_Feb_09_1722,60.0072560572,MAFE4ImagesEEG,001,102949,
AFNE01.JPG,AFNE01.JPG,AFNE01.JPG,AFNE01.JPG,AFNE01.JPG,AFNE01.JPG,,,,,,,,,2,8,28,3,,,,,,,,,,,,,,,AMNE07.jpg,AMSA19.jpg,AMSA12.jpg,AMNE11.jpg,AMNE07.jpg,MN,1,num_8,32,num_4,0.733591378666,,,2018_Feb_09_1722,60.0072560572,MAFE4ImagesEEG,001,102949,
AFNE01.JPG,AFNE01.JPG,AFNE01.JPG,AFNE01.JPG,AFNE01.JPG,AFNE01.JPG,,,,,,,,,2,9,29,1,,,,,,,,,,,,,,,AMSA09.jpg,AMSA02.jpg,AMNE05.jpg,AMNE04.jpg,AMNE04.jpg,MN,1,num_4,32,num_6,0.833486913936,,,2018_Feb_09_1722,60.0072560572,MAFE4ImagesEEG,001,102949,
AFNE01.JPG,AFNE01.JPG,AFNE01.JPG,AFNE01.JPG,AFNE01.JPG,AFNE01.JPG,,,,,,,,,3,0,30,5,,,,,,,,,,,,,,,AMNE14.jpg,AMSA13.jpg,AMSA03.jpg,AMNE10.jpg,AMNE14.jpg,MN,1,num_8,32,num_6,0.700125441188,,,2018_Feb_09_1722,60.0072560572,MAFE4ImagesEEG,001,102949,
AFNE01.JPG,AFNE01.JPG,AFNE01.JPG,AFNE01.JPG,AFNE01.JPG,AFNE01.JPG,,,,,,,,,3,1,31,7,,,,,,,,,,,,,,,AMSA05.jpg,AMNE11.jpg,AMNE09.jpg,AMSA04.jpg,AMSA04.jpg,MS,2,num_4,16,num_4,0.716828902019,,,2018_Feb_09_1722,60.0072560572,MAFE4ImagesEEG,001,102949,
AFNE01.JPG,AFNE01.JPG,AFNE01.JPG,AFNE01.JPG,AFNE01.JPG,AFNE01.JPG,,,,,,,,,3,2,32,4,,,,,,,,,,,,,,,AMNE15.jpg,AMNE09.jpg,AMSA06.jpg,AMSA08.jpg,AMSA08.jpg,MS,2,num_4,32,num_6,2.09987949813,,,2018_Feb_09_1722,60.0072560572,MAFE4ImagesEEG,001,102949,
AFNE01.JPG,AFNE01.JPG,AFNE01.JPG,AFNE01.JPG,AFNE01.JPG,AFNE01.JPG,,,,,,,,,3,3,33,2,,,,,,,,,,,,,,,AMSA07.jpg,AMSA05.jpg,AMNE08.jpg,AMNE10.jpg,AMSA05.jpg,MS,2,num_6,16,num_6,0.350181233604,,,2018_Feb_09_1722,60.0072560572,MAFE4ImagesEEG,001,102949,
AFNE01.JPG,AFNE01.JPG,AFNE01.JPG,AFNE01.JPG,AFNE01.JPG,AFNE01.JPG,,,,,,,,,3,4,34,6,,,,,,,,,,,,,,,AMSA18.jpg,AMNE11.jpg,AMNE06.jpg,AMSA12.jpg,AMSA12.jpg,MS,2,num_4,32,num_6,0.383473651484,,,2018_Feb_09_1722,60.0072560572,MAFE4ImagesEEG,001,102949,
AFNE01.JPG,AFNE01.JPG,AFNE01.JPG,AFNE01.JPG,AFNE01.JPG,AFNE01.JPG,,,,,,,,,3,5,35,9,,,,,,,,,,,,,,,AMSA09.jpg,AMNE01.jpg,AMNE08.jpg,AMSA12.jpg,AMSA12.jpg,MS,2,num_4,32,num_6,0.31689138175,,,2018_Feb_09_1722,60.0072560572,MAFE4ImagesEEG,001,102949,
AFNE01.JPG,AFNE01.JPG,AFNE01.JPG,AFNE01.JPG,AFNE01.JPG,AFNE01.JPG,,,,,,,,,3,6,36,3,,,,,,,,,,,,,,,AMSA03.jpg,AMNE19.jpg,AMSA01.jpg,AMNE17.jpg,AMSA03.jpg,MS,2,num_8,32,num_6,0.366810924606,,,2018_Feb_09_1722,60.0072560572,MAFE4ImagesEEG,001,102949,
AFNE01.JPG,AFNE01.JPG,AFNE01.JPG,AFNE01.JPG,AFNE01.JPG,AFNE01.JPG,,,,,,,,,3,7,37,0,,,,,,,,,,,,,,,AMNE05.jpg,AMSA07.jpg,AMSA19.jpg,AMNE02.jpg,AMNE05.jpg,MN,1,num_8,32,num_6,0.400155301904,,,2018_Feb_09_1722,60.0072560572,MAFE4ImagesEEG,001,102949,
AFNE01.JPG,AFNE01.JPG,AFNE01.JPG,AFNE01.JPG,AFNE01.JPG,AFNE01.JPG,,,,,,,,,3,8,38,8,,,,,,,,,,,,,,,AMNE17.jpg,AMSA20.jpg,AMNE05.jpg,AMSA02.jpg,AMNE05.jpg,MN,1,num_2,32,num_6,1.1334548078,,,2018_Feb_09_1722,60.0072560572,MAFE4ImagesEEG,001,102949,
AFNE01.JPG,AFNE01.JPG,AFNE01.JPG,AFNE01.JPG,AFNE01.JPG,AFNE01.JPG,,,,,,,,,3,9,39,1,,,,,,,,,,,,,,,AMSA03.jpg,AMNE12.jpg,AMNE14.jpg,AMSA04.jpg,AMNE12.jpg,MN,1,num_6,32,num_4,0.633514625952,,,2018_Feb_09_1722,60.0072560572,MAFE4ImagesEEG,001,102949,
AFNE01.JPG,AFNE01.JPG,AFNE01.JPG,AFNE01.JPG,AFNE01.JPG,AFNE01.JPG,,,,,,,,,4,0,40,2,,,,,,,,,,,,,,,AMNE12.jpg,AMSA08.jpg,AMSA07.jpg,AMNE04.jpg,AMSA08.jpg,MS,2,num_6,32,num_4,0.48347663437,,,2018_Feb_09_1722,60.0072560572,MAFE4ImagesEEG,001,102949,
AFNE01.JPG,AFNE01.JPG,AFNE01.JPG,AFNE01.JPG,AFNE01.JPG,AFNE01.JPG,,,,,,,,,4,1,41,7,,,,,,,,,,,,,,,AMNE05.jpg,AMSA07.jpg,AMNE08.jpg,AMSA03.jpg,AMSA07.jpg,MS,2,num_6,16,num_6,0.366796812043,,,2018_Feb_09_1722,60.0072560572,MAFE4ImagesEEG,001,102949,
AFNE01.JPG,AFNE01.JPG,AFNE01.JPG,AFNE01.JPG,AFNE01.JPG,AFNE01.JPG,,,,,,,,,4,2,42,6,,,,,,,,,,,,,,,AMSA01.jpg,AMNE15.jpg,AMSA10.jpg,AMNE13.jpg,AMSA01.jpg,MS,2,num_8,16,num_8,0.583437921014,,,2018_Feb_09_1722,60.0072560572,MAFE4ImagesEEG,001,102949,
AFNE01.JPG,AFNE01.JPG,AFNE01.JPG,AFNE01.JPG,AFNE01.JPG,AFNE01.JPG,,,,,,,,,4,3,43,1,,,,,,,,,,,,,,,AMSA18.jpg,AMNE13.jpg,AMNE14.jpg,AMSA02.jpg,AMSA02.jpg,MS,2,num_4,32,num_8,0.800193213392,,,2018_Feb_09_1722,60.0072560572,MAFE4ImagesEEG,001,102949,
AFNE01.JPG,AFNE01.JPG,AFNE01.JPG,AFNE01.JPG,AFNE01.JPG,AFNE01.JPG,,,,,,,,,4,4,44,5,,,,,,,,,,,,,,,AMSA13.jpg,AMNE07.jpg,AMNE14.jpg,AMSA12.jpg,AMNE07.jpg,MN,1,num_6,32,num_8,0.850105699617,,,2018_Feb_09_1722,60.0072560572,MAFE4ImagesEEG,001,102949,
AFNE01.JPG,AFNE01.JPG,AFNE01.JPG,AFNE01.JPG,AFNE01.JPG,AFNE01.JPG,,,,,,,,,4,5,45,8,,,,,,,,,,,,,,,AMNE01.jpg,AMNE04.jpg,AMSA10.jpg,AMSA12.jpg,AMSA10.jpg,MS,2,num_2,32,num_4,0.550143899629,,,2018_Feb_09_1722,60.0072560572,MAFE4ImagesEEG,001,102949,
AFNE01.JPG,AFNE01.JPG,AFNE01.JPG,AFNE01.JPG,AFNE01.JPG,AFNE01.JPG,,,,,,,,,4,6,46,4,,,,,,,,,,,,,,,AMNE20.jpg,AMSA08.jpg,AMSA18.jpg,AMNE13.jpg,AMNE20.jpg,MN,1,num_8,16,num_8,0.600145230768,,,2018_Feb_09_1722,60.0072560572,MAFE4ImagesEEG,001,102949,
AFNE01.JPG,AFNE01.JPG,AFNE01.JPG,AFNE01.JPG,AFNE01.JPG,AFNE01.JPG,,,,,,,,,4,7,47,3,,,,,,,,,,,,,,,AMNE12.jpg,AMSA18.jpg,AMNE04.jpg,AMSA01.jpg,AMSA01.jpg,MS,2,num_4,32,num_6,0.81677030283,,,2018_Feb_09_1722,60.0072560572,MAFE4ImagesEEG,001,102949,
AFNE01.JPG,AFNE01.JPG,AFNE01.JPG,AFNE01.JPG,AFNE01.JPG,AFNE01.JPG,,,,,,,,,4,8,48,0,,,,,,,,,,,,,,,AMSA04.jpg,AMNE12.jpg,AMSA09.jpg,AMNE17.jpg,AMSA04.jpg,MS,2,num_8,32,num_4,1.10011941125,,,2018_Feb_09_1722,60.0072560572,MAFE4ImagesEEG,001,102949,
AFNE01.JPG,AFNE01.JPG,AFNE01.JPG,AFNE01.JPG,AFNE01.JPG,AFNE01.JPG,,,,,,,,,4,9,49,9,,,,,,,,,,,,,,,AMNE01.jpg,AMSA14.jpg,AMSA03.jpg,AMNE02.jpg,AMNE01.jpg,MN,1,num_8,32,num_4,1.33325550053,,,2018_Feb_09_1722,60.0072560572,MAFE4ImagesEEG,001,102949,
AFNE01.JPG,AFNE01.JPG,AFNE01.JPG,AFNE01.JPG,AFNE01.JPG,AFNE01.JPG,,,,,,,,,5,0,50,8,,,,,,,,,,,,,,,AMNE15.jpg,AMSA05.jpg,AMSA11.jpg,AMNE13.jpg,AMSA11.jpg,MS,2,num_2,32,num_6,1.83345002891,,,2018_Feb_09_1722,60.0072560572,MAFE4ImagesEEG,001,102949,
AFNE01.JPG,AFNE01.JPG,AFNE01.JPG,AFNE01.JPG,AFNE01.JPG,AFNE01.JPG,,,,,,,,,5,1,51,1,,,,,,,,,,,,,,,AMNE20.jpg,AMNE07.jpg,AMSA13.jpg,AMSA20.jpg,AMNE20.jpg,MN,1,num_8,32,num_6,0.516796956304,,,2018_Feb_09_1722,60.0072560572,MAFE4ImagesEEG,001,102949,
AFNE01.JPG,AFNE01.JPG,AFNE01.JPG,AFNE01.JPG,AFNE01.JPG,AFNE01.JPG,,,,,,,,,5,2,52,3,,,,,,,,,,,,,,,AMNE11.jpg,AMSA09.jpg,AMSA06.jpg,AMNE08.jpg,AMSA06.jpg,MS,2,num_2,32,num_4,1.11672536726,,,2018_Feb_09_1722,60.0072560572,MAFE4ImagesEEG,001,102949,
AFNE01.JPG,AFNE01.JPG,AFNE01.JPG,AFNE01.JPG,AFNE01.JPG,AFNE01.JPG,,,,,,,,,5,3,53,9,,,,,,,,,,,,,,,AMNE20.jpg,AMSA12.jpg,AMNE11.jpg,AMSA07.jpg,AMSA12.jpg,MS,2,num_6,32,num_8,0.833349958295,,,2018_Feb_09_1722,60.0072560572,MAFE4ImagesEEG,001,102949,
AFNE01.JPG,AFNE01.JPG,AFNE01.JPG,AFNE01.JPG,AFNE01.JPG,AFNE01.JPG,,,,,,,,,5,4,54,6,,,,,,,,,,,,,,,AMNE14.jpg,AMNE02.jpg,AMSA13.jpg,AMSA20.jpg,AMSA20.jpg,MS,2,num_4,32,num_2,0.816786339739,,,2018_Feb_09_1722,60.0072560572,MAFE4ImagesEEG,001,102949,
AFNE01.JPG,AFNE01.JPG,AFNE01.JPG,AFNE01.JPG,AFNE01.JPG,AFNE01.JPG,,,,,,,,,5,5,55,2,,,,,,,,,,,,,,,AMNE16.jpg,AMNE03.jpg,AMSA15.jpg,AMSA20.jpg,AMNE16.jpg,MN,1,num_8,16,num_8,0.766776669538,,,2018_Feb_09_1722,60.0072560572,MAFE4ImagesEEG,001,102949,
AFNE01.JPG,AFNE01.JPG,AFNE01.JPG,AFNE01.JPG,AFNE01.JPG,AFNE01.JPG,,,,,,,,,5,6,56,5,,,,,,,,,,,,,,,AMNE05.jpg,AMNE03.jpg,AMSA06.jpg,AMSA12.jpg,AMNE05.jpg,MN,1,num_8,32,num_2,1.20009801793,,,2018_Feb_09_1722,60.0072560572,MAFE4ImagesEEG,001,102949,
AFNE01.JPG,AFNE01.JPG,AFNE01.JPG,AFNE01.JPG,AFNE01.JPG,AFNE01.JPG,,,,,,,,,5,7,57,0,,,,,,,,,,,,,,,AMSA06.jpg,AMNE20.jpg,AMNE11.jpg,AMSA18.jpg,AMSA06.jpg,MS,2,num_8,32,num_6,0.633476137184,,,2018_Feb_09_1722,60.0072560572,MAFE4ImagesEEG,001,102949,
AFNE01.JPG,AFNE01.JPG,AFNE01.JPG,AFNE01.JPG,AFNE01.JPG,AFNE01.JPG,,,,,,,,,5,8,58,4,,,,,,,,,,,,,,,AMSA14.jpg,AMNE18.jpg,AMNE01.jpg,AMSA12.jpg,AMNE01.jpg,MN,1,num_2,32,num_8,0.9499733306,,,2018_Feb_09_1722,60.0072560572,MAFE4ImagesEEG,001,102949,
AFNE01.JPG,AFNE01.JPG,AFNE01.JPG,AFNE01.JPG,AFNE01.JPG,AFNE01.JPG,,,,,,,,,5,9,59,7,,,,,,,,,,,,,,,AMSA13.jpg,AMNE19.jpg,AMSA17.jpg,AMNE13.jpg,AMNE13.jpg,MN,1,num_4,32,num_6,1.41670577019,,,2018_Feb_09_1722,60.0072560572,MAFE4ImagesEEG,001,102949,
,,,,,,,,,,,,,,,,,,,,,,,,,,,,,,,,,,,,,,,,,,,space,9.74969569873,2018_Feb_09_1722,60.0072560572,MAFE4ImagesEEG,001,102949,
AFNE01.JPG,AFNE01.JPG,AFNE01.JPG,AFNE01.JPG,AFNE01.JPG,AFNE01.JPG,,,,,,,,,,,,,0,0,0,6,,,,,,,,,,,AFNE17.jpg,AFSA03.jpg,AFSA04.jpg,AFNE05.jpg,AFNE17.jpg,FN,3,num_8,32,num_6,4.11665865337,,,2018_Feb_09_1722,60.0072560572,MAFE4ImagesEEG,001,102949,
AFNE01.JPG,AFNE01.JPG,AFNE01.JPG,AFNE01.JPG,AFNE01.JPG,AFNE01.JPG,,,,,,,,,,,,,0,1,1,7,,,,,,,,,,,AFNE14.jpg,AFSA13.jpg,AFNE09.jpg,AFSA04.jpg,AFSA13.jpg,FS,4,num_6,16,num_6,0.350014128489,,,2018_Feb_09_1722,60.0072560572,MAFE4ImagesEEG,001,102949,
AFNE01.JPG,AFNE01.JPG,AFNE01.JPG,AFNE01.JPG,AFNE01.JPG,AFNE01.JPG,,,,,,,,,,,,,0,2,2,8,,,,,,,,,,,AFNE10.jpg,AFSA06.jpg,AFNE14.jpg,AFSA13.jpg,AFSA13.jpg,FS,4,num_4,16,num_4,0.700136666885,,,2018_Feb_09_1722,60.0072560572,MAFE4ImagesEEG,001,102949,
AFNE01.JPG,AFNE01.JPG,AFNE01.JPG,AFNE01.JPG,AFNE01.JPG,AFNE01.JPG,,,,,,,,,,,,,0,3,3,3,,,,,,,,,,,AFSA02.jpg,AFNE04.jpg,AFSA15.jpg,AFNE09.jpg,AFNE09.jpg,FN,3,num_4,32,num_6,0.70017675939,,,2018_Feb_09_1722,60.0072560572,MAFE4ImagesEEG,001,102949,
AFNE01.JPG,AFNE01.JPG,AFNE01.JPG,AFNE01.JPG,AFNE01.JPG,AFNE01.JPG,,,,,,,,,,,,,0,4,4,4,,,,,,,,,,,AFSA12.jpg,AFNE12.jpg,AFSA02.jpg,AFNE20.jpg,AFSA12.jpg,FS,4,num_8,32,num_6,0.650165485451,,,2018_Feb_09_1722,60.0072560572,MAFE4ImagesEEG,001,102949,
AFNE01.JPG,AFNE01.JPG,AFNE01.JPG,AFNE01.JPG,AFNE01.JPG,AFNE01.JPG,,,,,,,,,,,,,0,5,5,9,,,,,,,,,,,AFSA10.jpg,AFNE03.jpg,AFSA02.jpg,AFNE07.jpg,AFNE07.jpg,FN,3,num_4,16,num_4,0.733490346,,,2018_Feb_09_1722,60.0072560572,MAFE4ImagesEEG,001,102949,
AFNE01.JPG,AFNE01.JPG,AFNE01.JPG,AFNE01.JPG,AFNE01.JPG,AFNE01.JPG,,,,,,,,,,,,,0,6,6,5,,,,,,,,,,,AFNE10.jpg,AFNE13.jpg,AFSA11.jpg,AFSA01.jpg,AFNE13.jpg,FN,3,num_6,32,num_4,0.783472432522,,,2018_Feb_09_1722,60.0072560572,MAFE4ImagesEEG,001,102949,
AFNE01.JPG,AFNE01.JPG,AFNE01.JPG,AFNE01.JPG,AFNE01.JPG,AFNE01.JPG,,,,,,,,,,,,,0,7,7,2,,,,,,,,,,,AFNE15.jpg,AFSA18.jpg,AFNE14.jpg,AFSA03.jpg,AFSA03.jpg,FS,4,num_4,16,num_4,0.866745654028,,,2018_Feb_09_1722,60.0072560572,MAFE4ImagesEEG,001,102949,
AFNE01.JPG,AFNE01.JPG,AFNE01.JPG,AFNE01.JPG,AFNE01.JPG,AFNE01.JPG,,,,,,,,,,,,,0,8,8,0,,,,,,,,,,,AFNE17.jpg,AFSA18.jpg,AFSA15.jpg,AFNE11.jpg,AFNE17.jpg,FN,3,num_8,32,num_4,0.666788119823,,,2018_Feb_09_1722,60.0072560572,MAFE4ImagesEEG,001,102949,
AFNE01.JPG,AFNE01.JPG,AFNE01.JPG,AFNE01.JPG,AFNE01.JPG,AFNE01.JPG,,,,,,,,,,,,,0,9,9,1,,,,,,,,,,,AFSA09.jpg,AFSA19.jpg,AFNE02.jpg,AFNE01.jpg,AFSA19.jpg,FS,4,num_6,16,num_6,0.633539001923,,,2018_Feb_09_1722,60.0072560572,MAFE4ImagesEEG,001,102949,
AFNE01.JPG,AFNE01.JPG,AFNE01.JPG,AFNE01.JPG,AFNE01.JPG,AFNE01.JPG,,,,,,,,,,,,,1,0,10,5,,,,,,,,,,,AFNE08.jpg,AFSA13.jpg,AFNE15.jpg,AFSA20.jpg,AFNE15.jpg,FN,3,num_2,16,num_2,0.433670633473,,,2018_Feb_09_1722,60.0072560572,MAFE4ImagesEEG,001,102949,
AFNE01.JPG,AFNE01.JPG,AFNE01.JPG,AFNE01.JPG,AFNE01.JPG,AFNE01.JPG,,,,,,,,,,,,,1,1,11,1,,,,,,,,,,,AFNE03.jpg,AFSA14.jpg,AFSA20.jpg,AFNE17.jpg,AFSA20.jpg,FS,4,num_2,32,num_6,2.53335480159,,,2018_Feb_09_1722,60.0072560572,MAFE4ImagesEEG,001,102949,
AFNE01.JPG,AFNE01.JPG,AFNE01.JPG,AFNE01.JPG,AFNE01.JPG,AFNE01.JPG,,,,,,,,,,,,,1,2,12,8,,,,,,,,,,,AFNE20.jpg,AFSA05.jpg,AFNE19.jpg,AFSA20.jpg,AFNE19.jpg,FN,3,num_2,16,num_2,2.4833127365,,,2018_Feb_09_1722,60.0072560572,MAFE4ImagesEEG,001,102949,
AFNE01.JPG,AFNE01.JPG,AFNE01.JPG,AFNE01.JPG,AFNE01.JPG,AFNE01.JPG,,,,,,,,,,,,,1,3,13,3,,,,,,,,,,,AFSA17.jpg,AFSA19.jpg,AFNE15.jpg,AFNE11.jpg,AFNE11.jpg,FN,3,num_4,32,num_6,0.516663207905,,,2018_Feb_09_1722,60.0072560572,MAFE4ImagesEEG,001,102949,
AFNE01.JPG,AFNE01.JPG,AFNE01.JPG,AFNE01.JPG,AFNE01.JPG,AFNE01.JPG,,,,,,,,,,,,,1,4,14,0,,,,,,,,,,,AFSA08.jpg,AFSA19.jpg,AFNE03.jpg,AFNE13.jpg,AFSA19.jpg,FS,4,num_6,16,num_6,0.400179357268,,,2018_Feb_09_1722,60.0072560572,MAFE4ImagesEEG,001,102949,
AFNE01.JPG,AFNE01.JPG,AFNE01.JPG,AFNE01.JPG,AFNE01.JPG,AFNE01.JPG,,,,,,,,,,,,,1,5,15,2,,,,,,,,,,,AFNE17.jpg,AFSA05.jpg,AFNE04.jpg,AFSA14.jpg,AFNE17.jpg,FN,3,num_8,32,num_4,0.516801767284,,,2018_Feb_09_1722,60.0072560572,MAFE4ImagesEEG,001,102949,
AFNE01.JPG,AFNE01.JPG,AFNE01.JPG,AFNE01.JPG,AFNE01.JPG,AFNE01.JPG,,,,,,,,,,,,,1,6,16,9,,,,,,,,,,,AFSA13.jpg,AFNE02.jpg,AFNE09.jpg,AFSA10.jpg,AFNE02.jpg,FN,3,num_6,16,num_6,0.733454743866,,,2018_Feb_09_1722,60.0072560572,MAFE4ImagesEEG,001,102949,
AFNE01.JPG,AFNE01.JPG,AFNE01.JPG,AFNE01.JPG,AFNE01.JPG,AFNE01.JPG,,,,,,,,,,,,,1,7,17,6,,,,,,,,,,,AFSA14.jpg,AFNE08.jpg,AFNE16.jpg,AFSA15.jpg,AFSA14.jpg,FS,4,num_8,16,num_8,1.00013599335,,,2018_Feb_09_1722,60.0072560572,MAFE4ImagesEEG,001,102949,
AFNE01.JPG,AFNE01.JPG,AFNE01.JPG,AFNE01.JPG,AFNE01.JPG,AFNE01.JPG,,,,,,,,,,,,,1,8,18,7,,,,,,,,,,,AFSA20.jpg,AFNE11.jpg,AFSA13.jpg,AFNE15.jpg,AFSA20.jpg,FS,4,num_8,32,num_6,0.633449195186,,,2018_Feb_09_1722,60.0072560572,MAFE4ImagesEEG,001,102949,
AFNE01.JPG,AFNE01.JPG,AFNE01.JPG,AFNE01.JPG,AFNE01.JPG,AFNE01.JPG,,,,,,,,,,,,,1,9,19,4,,,,,,,,,,,AFSA08.jpg,AFNE03.jpg,AFNE08.jpg,AFSA13.jpg,AFNE08.jpg,FN,3,num_2,32,num_8,0.617187071359,,,2018_Feb_09_1722,60.0072560572,MAFE4ImagesEEG,001,102949,
AFNE01.JPG,AFNE01.JPG,AFNE01.JPG,AFNE01.JPG,AFNE01.JPG,AFNE01.JPG,,,,,,,,,,,,,2,0,20,3,,,,,,,,,,,AFSA14.jpg,AFNE05.jpg,AFNE12.jpg,AFSA03.jpg,AFSA03.jpg,FS,4,num_4,16,num_4,0.366828565253,,,2018_Feb_09_1722,60.0072560572,MAFE4ImagesEEG,001,102949,
AFNE01.JPG,AFNE01.JPG,AFNE01.JPG,AFNE01.JPG,AFNE01.JPG,AFNE01.JPG,,,,,,,,,,,,,2,1,21,9,,,,,,,,,,,AFSA18.jpg,AFSA20.jpg,AFNE16.jpg,AFNE19.jpg,AFSA20.jpg,FS,4,num_6,32,num_4,0.366791038541,,,2018_Feb_09_1722,60.0072560572,MAFE4ImagesEEG,001,102949,
AFNE01.JPG,AFNE01.JPG,AFNE01.JPG,AFNE01.JPG,AFNE01.JPG,AFNE01.JPG,,,,,,,,,,,,,2,2,22,8,,,,,,,,,,,AFSA06.jpg,AFNE20.jpg,AFNE18.jpg,AFSA07.jpg,AFNE18.jpg,FN,3,num_2,32,num_4,0.600114119239,,,2018_Feb_09_1722,60.0072560572,MAFE4ImagesEEG,001,102949,
AFNE01.JPG,AFNE01.JPG,AFNE01.JPG,AFNE01.JPG,AFNE01.JPG,AFNE01.JPG,,,,,,,,,,,,,2,3,23,4,,,,,,,,,,,AFSA17.jpg,AFSA09.jpg,AFNE03.jpg,AFNE18.jpg,AFNE03.jpg,FN,3,num_2,32,num_4,0.550126900664,,,2018_Feb_09_1722,60.0072560572,MAFE4ImagesEEG,001,102949,
AFNE01.JPG,AFNE01.JPG,AFNE01.JPG,AFNE01.JPG,AFNE01.JPG,AFNE01.JPG,,,,,,,,,,,,,2,4,24,6,,,,,,,,,,,AFSA02.jpg,AFNE20.jpg,AFSA12.jpg,AFNE09.jpg,AFSA12.jpg,FS,4,num_2,32,num_6,0.366818301613,,,2018_Feb_09_1722,60.0072560572,MAFE4ImagesEEG,001,102949,
AFNE01.JPG,AFNE01.JPG,AFNE01.JPG,AFNE01.JPG,AFNE01.JPG,AFNE01.JPG,,,,,,,,,,,,,2,5,25,0,,,,,,,,,,,AFSA01.jpg,AFSA08.jpg,AFNE07.jpg,AFNE15.jpg,AFNE07.jpg,FN,3,num_2,32,num_6,0.500140002696,,,2018_Feb_09_1722,60.0072560572,MAFE4ImagesEEG,001,102949,
AFNE01.JPG,AFNE01.JPG,AFNE01.JPG,AFNE01.JPG,AFNE01.JPG,AFNE01.JPG,,,,,,,,,,,,,2,6,26,1,,,,,,,,,,,AFSA11.jpg,AFNE08.jpg,AFNE01.jpg,AFSA08.jpg,AFNE01.jpg,FN,3,num_2,32,num_6,1.2501121785,,,2018_Feb_09_1722,60.0072560572,MAFE4ImagesEEG,001,102949,
AFNE01.JPG,AFNE01.JPG,AFNE01.JPG,AFNE01.JPG,AFNE01.JPG,AFNE01.JPG,,,,,,,,,,,,,2,7,27,2,,,,,,,,,,,AFSA18.jpg,AFNE16.jpg,AFSA19.jpg,AFNE01.jpg,AFSA19.jpg,FS,4,num_2,32,num_6,0.4501476523,,,2018_Feb_09_1722,60.0072560572,MAFE4ImagesEEG,001,102949,
AFNE01.JPG,AFNE01.JPG,AFNE01.JPG,AFNE01.JPG,AFNE01.JPG,AFNE01.JPG,,,,,,,,,,,,,2,8,28,5,,,,,,,,,,,AFSA20.jpg,AFNE08.jpg,AFNE09.jpg,AFSA06.jpg,AFSA20.jpg,FS,4,num_8,32,num_6,0.483478238108,,,2018_Feb_09_1722,60.0072560572,MAFE4ImagesEEG,001,102949,
AFNE01.JPG,AFNE01.JPG,AFNE01.JPG,AFNE01.JPG,AFNE01.JPG,AFNE01.JPG,,,,,,,,,,,,,2,9,29,7,,,,,,,,,,,AFNE15.jpg,AFSA10.jpg,AFSA06.jpg,AFNE07.jpg,AFSA10.jpg,FS,4,num_6,16,num_6,0.283528401749,,,2018_Feb_09_1722,60.0072560572,MAFE4ImagesEEG,001,102949,
AFNE01.JPG,AFNE01.JPG,AFNE01.JPG,AFNE01.JPG,AFNE01.JPG,AFNE01.JPG,,,,,,,,,,,,,3,0,30,6,,,,,,,,,,,AFSA18.jpg,AFNE18.jpg,AFNE05.jpg,AFSA13.jpg,AFSA18.jpg,FS,4,num_8,32,num_6,0.550017849309,,,2018_Feb_09_1722,60.0072560572,MAFE4ImagesEEG,001,102949,
AFNE01.JPG,AFNE01.JPG,AFNE01.JPG,AFNE01.JPG,AFNE01.JPG,AFNE01.JPG,,,,,,,,,,,,,3,1,31,2,,,,,,,,,,,AFSA20.jpg,AFSA06.jpg,AFNE03.jpg,AFNE13.jpg,AFSA06.jpg,FS,4,num_6,16,num_6,1.45011942741,,,2018_Feb_09_1722,60.0072560572,MAFE4ImagesEEG,001,102949,
AFNE01.JPG,AFNE01.JPG,AFNE01.JPG,AFNE01.JPG,AFNE01.JPG,AFNE01.JPG,,,,,,,,,,,,,3,2,32,7,,,,,,,,,,,AFSA08.jpg,AFNE18.jpg,AFSA17.jpg,AFNE05.jpg,AFNE18.jpg,FN,3,num_6,16,num_6,0.516812672606,,,2018_Feb_09_1722,60.0072560572,MAFE4ImagesEEG,001,102949,
AFNE01.JPG,AFNE01.JPG,AFNE01.JPG,AFNE01.JPG,AFNE01.JPG,AFNE01.JPG,,,,,,,,,,,,,3,3,33,8,,,,,,,,,,,AFSA04.jpg,AFNE04.jpg,AFSA19.jpg,AFNE03.jpg,AFNE04.jpg,FN,3,num_6,16,num_6,0.550080393208,,,2018_Feb_09_1722,60.0072560572,MAFE4ImagesEEG,001,102949,
AFNE01.JPG,AFNE01.JPG,AFNE01.JPG,AFNE01.JPG,AFNE01.JPG,AFNE01.JPG,,,,,,,,,,,,,3,4,34,0,,,,,,,,,,,AFNE19.jpg,AFSA03.jpg,AFNE06.jpg,AFSA06.jpg,AFNE06.jpg,FN,3,num_2,32,num_4,0.916773927165,,,2018_Feb_09_1722,60.0072560572,MAFE4ImagesEEG,001,102949,
AFNE01.JPG,AFNE01.JPG,AFNE01.JPG,AFNE01.JPG,AFNE01.JPG,AFNE01.JPG,,,,,,,,,,,,,3,5,35,3,,,,,,,,,,,AFNE11.jpg,AFSA15.jpg,AFSA13.jpg,AFNE02.jpg,AFNE11.jpg,FN,3,num_8,32,num_2,1.31674031378,,,2018_Feb_09_1722,60.0072560572,MAFE4ImagesEEG,001,102949,
AFNE01.JPG,AFNE01.JPG,AFNE01.JPG,AFNE01.JPG,AFNE01.JPG,AFNE01.JPG,,,,,,,,,,,,,3,6,36,5,,,,,,,,,,,AFNE12.jpg,AFSA17.jpg,AFNE17.jpg,AFSA13.jpg,AFNE12.jpg,FN,3,num_8,16,num_8,0.71681767609,,,2018_Feb_09_1722,60.0072560572,MAFE4ImagesEEG,001,102949,
AFNE01.JPG,AFNE01.JPG,AFNE01.JPG,AFNE01.JPG,AFNE01.JPG,AFNE01.JPG,,,,,,,,,,,,,3,7,37,4,,,,,,,,,,,AFNE07.jpg,AFNE13.jpg,AFSA16.jpg,AFSA02.jpg,AFSA16.jpg,FS,4,num_2,32,num_6,1.04997919989,,,2018_Feb_09_1722,60.0072560572,MAFE4ImagesEEG,001,102949,
AFNE01.JPG,AFNE01.JPG,AFNE01.JPG,AFNE01.JPG,AFNE01.JPG,AFNE01.JPG,,,,,,,,,,,,,3,8,38,9,,,,,,,,,,,AFSA08.jpg,AFNE08.jpg,AFSA13.jpg,AFNE15.jpg,AFSA08.jpg,FS,4,num_8,16,num_8,1.41671571322,,,2018_Feb_09_1722,60.0072560572,MAFE4ImagesEEG,001,102949,
AFNE01.JPG,AFNE01.JPG,AFNE01.JPG,AFNE01.JPG,AFNE01.JPG,AFNE01.JPG,,,,,,,,,,,,,3,9,39,1,,,,,,,,,,,AFNE03.jpg,AFNE10.jpg,AFSA06.jpg,AFSA15.jpg,AFSA06.jpg,FS,4,num_2,32,num_6,2.11666250252,,,2018_Feb_09_1722,60.0072560572,MAFE4ImagesEEG,001,102949,
AFNE01.JPG,AFNE01.JPG,AFNE01.JPG,AFNE01.JPG,AFNE01.JPG,AFNE01.JPG,,,,,,,,,,,,,4,0,40,5,,,,,,,,,,,AFSA14.jpg,AFSA11.jpg,AFNE19.jpg,AFNE12.jpg,AFNE19.jpg,FN,3,num_2,32,num_4,0.0168532461394,,,2018_Feb_09_1722,60.0072560572,MAFE4ImagesEEG,001,102949,
AFNE01.JPG,AFNE01.JPG,AFNE01.JPG,AFNE01.JPG,AFNE01.JPG,AFNE01.JPG,,,,,,,,,,,,,4,1,41,9,,,,,,,,,,,AFNE18.jpg,AFSA19.jpg,AFSA14.jpg,AFNE02.jpg,AFSA14.jpg,FS,4,num_2,32,num_6,0.666797100566,,,2018_Feb_09_1722,60.0072560572,MAFE4ImagesEEG,001,102949,
AFNE01.JPG,AFNE01.JPG,AFNE01.JPG,AFNE01.JPG,AFNE01.JPG,AFNE01.JPG,,,,,,,,,,,,,4,2,42,8,,,,,,,,,,,AFSA07.jpg,AFNE10.jpg,AFNE04.jpg,AFSA17.jpg,AFSA17.jpg,FS,4,num_4,32,num_6,1.3335204313,,,2018_Feb_09_1722,60.0072560572,MAFE4ImagesEEG,001,102949,
AFNE01.JPG,AFNE01.JPG,AFNE01.JPG,AFNE01.JPG,AFNE01.JPG,AFNE01.JPG,,,,,,,,,,,,,4,3,43,7,,,,,,,,,,,AFSA09.jpg,AFNE19.jpg,AFSA14.jpg,AFNE20.jpg,AFSA14.jpg,FS,4,num_2,32,num_4,0.600190134253,,,2018_Feb_09_1722,60.0072560572,MAFE4ImagesEEG,001,102949,
AFNE01.JPG,AFNE01.JPG,AFNE01.JPG,AFNE01.JPG,AFNE01.JPG,AFNE01.JPG,,,,,,,,,,,,,4,4,44,6,,,,,,,,,,,AFNE15.jpg,AFSA20.jpg,AFNE08.jpg,AFSA01.jpg,AFNE15.jpg,FN,3,num_8,32,num_6,0.450495333644,,,2018_Feb_09_1722,60.0072560572,MAFE4ImagesEEG,001,102949,
AFNE01.JPG,AFNE01.JPG,AFNE01.JPG,AFNE01.JPG,AFNE01.JPG,AFNE01.JPG,,,,,,,,,,,,,4,5,45,2,,,,,,,,,,,AFSA02.jpg,AFNE02.jpg,AFNE16.jpg,AFSA17.jpg,AFSA02.jpg,FS,4,num_8,32,num_6,0.96702607628,,,2018_Feb_09_1722,60.0072560572,MAFE4ImagesEEG,001,102949,
AFNE01.JPG,AFNE01.JPG,AFNE01.JPG,AFNE01.JPG,AFNE01.JPG,AFNE01.JPG,,,,,,,,,,,,,4,6,46,3,,,,,,,,,,,AFSA20.jpg,AFNE09.jpg,AFSA18.jpg,AFNE20.jpg,AFNE20.jpg,FN,3,num_4,32,num_6,1.36675992678,,,2018_Feb_09_1722,60.0072560572,MAFE4ImagesEEG,001,102949,
AFNE01.JPG,AFNE01.JPG,AFNE01.JPG,AFNE01.JPG,AFNE01.JPG,AFNE01.JPG,,,,,,,,,,,,,4,7,47,4,,,,,,,,,,,AFSA12.jpg,AFNE09.jpg,AFSA08.jpg,AFNE14.jpg,AFSA12.jpg,FS,4,num_8,32,num_4,0.583465504693,,,2018_Feb_09_1722,60.0072560572,MAFE4ImagesEEG,001,102949,
AFNE01.JPG,AFNE01.JPG,AFNE01.JPG,AFNE01.JPG,AFNE01.JPG,AFNE01.JPG,,,,,,,,,,,,,4,8,48,1,,,,,,,,,,,AFNE10.jpg,AFNE18.jpg,AFSA13.jpg,AFSA01.jpg,AFNE10.jpg,FN,3,num_8,16,num_8,0.983452097746,,,2018_Feb_09_1722,60.0072560572,MAFE4ImagesEEG,001,102949,
AFNE01.JPG,AFNE01.JPG,AFNE01.JPG,AFNE01.JPG,AFNE01.JPG,AFNE01.JPG,,,,,,,,,,,,,4,9,49,0,,,,,,,,,,,AFSA13.jpg,AFNE17.jpg,AFNE13.jpg,AFSA15.jpg,AFSA15.jpg,FS,4,num_4,16,num_4,0.93343825778,,,2018_Feb_09_1722,60.0072560572,MAFE4ImagesEEG,001,102949,
AFNE01.JPG,AFNE01.JPG,AFNE01.JPG,AFNE01.JPG,AFNE01.JPG,AFNE01.JPG,,,,,,,,,,,,,5,0,50,2,,,,,,,,,,,AFSA02.jpg,AFNE20.jpg,AFNE02.jpg,AFSA13.jpg,AFNE20.jpg,FN,3,num_6,32,num_8,0.700136987725,,,2018_Feb_09_1722,60.0072560572,MAFE4ImagesEEG,001,102949,
AFNE01.JPG,AFNE01.JPG,AFNE01.JPG,AFNE01.JPG,AFNE01.JPG,AFNE01.JPG,,,,,,,,,,,,,5,1,51,7,,,,,,,,,,,AFNE09.jpg,AFNE07.jpg,AFSA06.jpg,AFSA10.jpg,AFNE09.jpg,FN,3,num_8,16,num_8,0.600157739595,,,2018_Feb_09_1722,60.0072560572,MAFE4ImagesEEG,001,102949,
AFNE01.JPG,AFNE01.JPG,AFNE01.JPG,AFNE01.JPG,AFNE01.JPG,AFNE01.JPG,,,,,,,,,,,,,5,2,52,3,,,,,,,,,,,AFSA08.jpg,AFNE03.jpg,AFSA06.jpg,AFNE09.jpg,AFNE09.jpg,FN,3,num_4,32,num_6,0.300158413127,,,2018_Feb_09_1722,60.0072560572,MAFE4ImagesEEG,001,102949,
AFNE01.JPG,AFNE01.JPG,AFNE01.JPG,AFNE01.JPG,AFNE01.JPG,AFNE01.JPG,,,,,,,,,,,,,5,3,53,0,,,,,,,,,,,AFSA13.jpg,AFNE20.jpg,AFSA02.jpg,AFNE15.jpg,AFNE15.jpg,FN,3,num_4,32,num_2,2.01669287658,,,2018_Feb_09_1722,60.0072560572,MAFE4ImagesEEG,001,102949,
AFNE01.JPG,AFNE01.JPG,AFNE01.JPG,AFNE01.JPG,AFNE01.JPG,AFNE01.JPG,,,,,,,,,,,,,5,4,54,1,,,,,,,,,,,AFSA10.jpg,AFSA03.jpg,AFNE18.jpg,AFNE14.jpg,AFNE18.jpg,FN,3,num_2,32,num_6,0.816778642125,,,2018_Feb_09_1722,60.0072560572,MAFE4ImagesEEG,001,102949,
AFNE01.JPG,AFNE01.JPG,AFNE01.JPG,AFNE01.JPG,AFNE01.JPG,AFNE01.JPG,,,,,,,,,,,,,5,5,55,4,,,,,,,,,,,AFNE16.jpg,AFSA09.jpg,AFSA10.jpg,AFNE20.jpg,AFNE16.jpg,FN,3,num_8,32,num_4,0.550144220237,,,2018_Feb_09_1722,60.0072560572,MAFE4ImagesEEG,001,102949,
AFNE01.JPG,AFNE01.JPG,AFNE01.JPG,AFNE01.JPG,AFNE01.JPG,AFNE01.JPG,,,,,,,,,,,,,5,6,56,9,,,,,,,,,,,AFSA17.jpg,AFNE09.jpg,AFNE18.jpg,AFSA01.jpg,AFNE09.jpg,FN,3,num_6,16,num_6,0.900101257488,,,2018_Feb_09_1722,60.0072560572,MAFE4ImagesEEG,001,102949,
AFNE01.JPG,AFNE01.JPG,AFNE01.JPG,AFNE01.JPG,AFNE01.JPG,AFNE01.JPG,,,,,,,,,,,,,5,7,57,5,,,,,,,,,,,AFSA18.jpg,AFNE07.jpg,AFNE13.jpg,AFSA16.jpg,AFSA16.jpg,FS,4,num_4,32,num_6,1.2334940345,,,2018_Feb_09_1722,60.0072560572,MAFE4ImagesEEG,001,102949,
AFNE01.JPG,AFNE01.JPG,AFNE01.JPG,AFNE01.JPG,AFNE01.JPG,AFNE01.JPG,,,,,,,,,,,,,5,8,58,8,,,,,,,,,,,AFSA04.jpg,AFSA16.jpg,AFNE15.jpg,AFNE08.jpg,AFNE08.jpg,FN,3,num_4,32,num_6,0.450146690244,,,2018_Feb_09_1722,60.0072560572,MAFE4ImagesEEG,001,102949,
AFNE01.JPG,AFNE01.JPG,AFNE01.JPG,AFNE01.JPG,AFNE01.JPG,AFNE01.JPG,,,,,,,,,,,,,5,9,59,6,,,,,,,,,,,AFNE17.jpg,AFNE18.jpg,AFSA20.jpg,AFSA12.jpg,AFSA20.jpg,FS,4,num_2,32,num_6,0.866908269003,,,2018_Feb_09_1722,60.0072560572,MAFE4ImagesEEG,001,102949,
,,,,,,,,,,,,,,,,,,,,,,,,,,,,,,,,,,,,,,,,,,,space,4.74976818566,2018_Feb_09_1722,60.0072560572,MAFE4ImagesEEG,001,102949,
AFNE01.JPG,AFNE01.JPG,AFNE01.JPG,AFNE01.JPG,AFNE01.JPG,AFNE01.JPG,,,,,,,,,,,,,,,,,0,0,0,2,,,,,,,AMSA04.jpg,AMNE06.jpg,AMSA20.jpg,AMNE20.jpg,AMNE06.jpg,MN,1,num_6,16,num_6,0.316827875562,,,2018_Feb_09_1722,60.0072560572,MAFE4ImagesEEG,001,102949,
AFNE01.JPG,AFNE01.JPG,AFNE01.JPG,AFNE01.JPG,AFNE01.JPG,AFNE01.JPG,,,,,,,,,,,,,,,,,0,1,1,3,,,,,,,AMNE04.jpg,AMSA03.jpg,AMNE07.jpg,AMSA13.jpg,AMNE04.jpg,MN,1,num_8,32,num_4,0.266814997885,,,2018_Feb_09_1722,60.0072560572,MAFE4ImagesEEG,001,102949,
AFNE01.JPG,AFNE01.JPG,AFNE01.JPG,AFNE01.JPG,AFNE01.JPG,AFNE01.JPG,,,,,,,,,,,,,,,,,0,2,2,1,,,,,,,AMSA02.jpg,AMNE07.jpg,AMNE11.jpg,AMSA09.jpg,AMNE07.jpg,MN,1,num_6,16,num_6,0.916802473133,,,2018_Feb_09_1722,60.0072560572,MAFE4ImagesEEG,001,102949,
AFNE01.JPG,AFNE01.JPG,AFNE01.JPG,AFNE01.JPG,AFNE01.JPG,AFNE01.JPG,,,,,,,,,,,,,,,,,0,3,3,5,,,,,,,AMNE04.jpg,AMSA06.jpg,AMSA09.jpg,AMNE17.jpg,AMSA09.jpg,MS,2,num_2,16,num_2,0.333491564728,,,2018_Feb_09_1722,60.0072560572,MAFE4ImagesEEG,001,102949,
AFNE01.JPG,AFNE01.JPG,AFNE01.JPG,AFNE01.JPG,AFNE01.JPG,AFNE01.JPG,,,,,,,,,,,,,,,,,0,4,4,9,,,,,,,AMSA08.jpg,AMSA05.jpg,AMNE04.jpg,AMNE05.jpg,AMSA05.jpg,MS,2,num_6,32,num_8,0.666930528125,,,2018_Feb_09_1722,60.0072560572,MAFE4ImagesEEG,001,102949,
AFNE01.JPG,AFNE01.JPG,AFNE01.JPG,AFNE01.JPG,AFNE01.JPG,AFNE01.JPG,,,,,,,,,,,,,,,,,0,5,5,0,,,,,,,AMSA15.jpg,AMNE02.jpg,AMNE20.jpg,AMSA02.jpg,AMSA02.jpg,MS,2,num_4,16,num_4,0.883450077148,,,2018_Feb_09_1722,60.0072560572,MAFE4ImagesEEG,001,102949,
AFNE01.JPG,AFNE01.JPG,AFNE01.JPG,AFNE01.JPG,AFNE01.JPG,AFNE01.JPG,,,,,,,,,,,,,,,,,0,6,6,8,,,,,,,AMSA03.jpg,AMNE11.jpg,AMNE19.jpg,AMSA19.jpg,AMNE19.jpg,MN,1,num_2,16,num_2,1.46672538342,,,2018_Feb_09_1722,60.0072560572,MAFE4ImagesEEG,001,102949,
AFNE01.JPG,AFNE01.JPG,AFNE01.JPG,AFNE01.JPG,AFNE01.JPG,AFNE01.JPG,,,,,,,,,,,,,,,,,0,7,7,7,,,,,,,AMSA15.jpg,AMNE18.jpg,AMNE13.jpg,AMSA03.jpg,AMNE13.jpg,MN,1,num_2,32,num_6,0.616792883025,,,2018_Feb_09_1722,60.0072560572,MAFE4ImagesEEG,001,102949,
AFNE01.JPG,AFNE01.JPG,AFNE01.JPG,AFNE01.JPG,AFNE01.JPG,AFNE01.JPG,,,,,,,,,,,,,,,,,0,8,8,6,,,,,,,AMNE09.jpg,AMSA17.jpg,AMSA18.jpg,AMNE03.jpg,AMSA18.jpg,MS,2,num_2,32,num_6,0.550167313777,,,2018_Feb_09_1722,60.0072560572,MAFE4ImagesEEG,001,102949,
AFNE01.JPG,AFNE01.JPG,AFNE01.JPG,AFNE01.JPG,AFNE01.JPG,AFNE01.JPG,,,,,,,,,,,,,,,,,0,9,9,4,,,,,,,AMSA02.jpg,AMSA13.jpg,AMNE01.jpg,AMNE05.jpg,AMSA13.jpg,MS,2,num_6,16,num_6,0.500142247882,,,2018_Feb_09_1722,60.0072560572,MAFE4ImagesEEG,001,102949,
AFNE01.JPG,AFNE01.JPG,AFNE01.JPG,AFNE01.JPG,AFNE01.JPG,AFNE01.JPG,,,,,,,,,,,,,,,,,1,0,10,2,,,,,,,AMNE13.jpg,AMSA11.jpg,AMNE19.jpg,AMSA17.jpg,AMNE13.jpg,MN,1,num_8,32,num_2,1.41669614799,,,2018_Feb_09_1722,60.0072560572,MAFE4ImagesEEG,001,102949,
AFNE01.JPG,AFNE01.JPG,AFNE01.JPG,AFNE01.JPG,AFNE01.JPG,AFNE01.JPG,,,,,,,,,,,,,,,,,1,1,11,8,,,,,,,AMSA17.jpg,AMNE01.jpg,AMNE16.jpg,AMSA05.jpg,AMSA05.jpg,MS,2,num_4,32,num_6,0.466971069574,,,2018_Feb_09_1722,60.0072560572,MAFE4ImagesEEG,001,102949,
AFNE01.JPG,AFNE01.JPG,AFNE01.JPG,AFNE01.JPG,AFNE01.JPG,AFNE01.JPG,,,,,,,,,,,,,,,,,1,2,12,1,,,,,,,AMNE06.jpg,AMSA13.jpg,AMNE19.jpg,AMSA18.jpg,AMNE19.jpg,MN,1,num_2,16,num_2,0.716826336225,,,2018_Feb_09_1722,60.0072560572,MAFE4ImagesEEG,001,102949,
AFNE01.JPG,AFNE01.JPG,AFNE01.JPG,AFNE01.JPG,AFNE01.JPG,AFNE01.JPG,,,,,,,,,,,,,,,,,1,3,13,9,,,,,,,AMNE10.jpg,AMNE13.jpg,AMSA14.jpg,AMSA09.jpg,AMSA14.jpg,MS,2,num_2,16,num_2,1.51649770653,,,2018_Feb_09_1722,60.0072560572,MAFE4ImagesEEG,001,102949,
AFNE01.JPG,AFNE01.JPG,AFNE01.JPG,AFNE01.JPG,AFNE01.JPG,AFNE01.JPG,,,,,,,,,,,,,,,,,1,4,14,0,,,,,,,AMNE09.jpg,AMSA17.jpg,AMNE06.jpg,AMSA01.jpg,AMNE09.jpg,MN,1,num_8,16,num_8,0.883493697736,,,2018_Feb_09_1722,60.0072560572,MAFE4ImagesEEG,001,102949,
AFNE01.JPG,AFNE01.JPG,AFNE01.JPG,AFNE01.JPG,AFNE01.JPG,AFNE01.JPG,,,,,,,,,,,,,,,,,1,5,15,6,,,,,,,AMNE03.jpg,AMSA15.jpg,AMNE07.jpg,AMSA14.jpg,AMNE03.jpg,MN,1,num_8,16,num_8,1.36674324842,,,2018_Feb_09_1722,60.0072560572,MAFE4ImagesEEG,001,102949,
AFNE01.JPG,AFNE01.JPG,AFNE01.JPG,AFNE01.JPG,AFNE01.JPG,AFNE01.JPG,,,,,,,,,,,,,,,,,1,6,16,5,,,,,,,AMNE04.jpg,AMSA20.jpg,AMSA10.jpg,AMNE15.jpg,AMSA20.jpg,MS,2,num_6,16,num_6,0.300168676767,,,2018_Feb_09_1722,60.0072560572,MAFE4ImagesEEG,001,102949,
AFNE01.JPG,AFNE01.JPG,AFNE01.JPG,AFNE01.JPG,AFNE01.JPG,AFNE01.JPG,,,,,,,,,,,,,,,,,1,7,17,3,,,,,,,AMSA01.jpg,AMNE06.jpg,AMSA08.jpg,AMNE05.jpg,AMNE06.jpg,MN,1,num_6,16,num_6,0.80000269413,,,2018_Feb_09_1722,60.0072560572,MAFE4ImagesEEG,001,102949,
AFNE01.JPG,AFNE01.JPG,AFNE01.JPG,AFNE01.JPG,AFNE01.JPG,AFNE01.JPG,,,,,,,,,,,,,,,,,1,8,18,7,,,,,,,AMSA15.jpg,AMNE04.jpg,AMNE20.jpg,AMSA08.jpg,AMNE04.jpg,MN,1,num_6,32,num_8,1.2500935758,,,2018_Feb_09_1722,60.0072560572,MAFE4ImagesEEG,001,102949,
AFNE01.JPG,AFNE01.JPG,AFNE01.JPG,AFNE01.JPG,AFNE01.JPG,AFNE01.JPG,,,,,,,,,,,,,,,,,1,9,19,4,,,,,,,AMNE19.jpg,AMSA03.jpg,AMNE07.jpg,AMSA05.jpg,AMSA05.jpg,MS,2,num_4,32,num_6,0.500153152971,,,2018_Feb_09_1722,60.0072560572,MAFE4ImagesEEG,001,102949,
AFNE01.JPG,AFNE01.JPG,AFNE01.JPG,AFNE01.JPG,AFNE01.JPG,AFNE01.JPG,,,,,,,,,,,,,,,,,2,0,20,7,,,,,,,AMSA09.jpg,AMSA17.jpg,AMNE02.jpg,AMNE01.jpg,AMSA09.jpg,MS,2,num_8,32,num_4,1.16675941367,,,2018_Feb_09_1722,60.0072560572,MAFE4ImagesEEG,001,102949,
AFNE01.JPG,AFNE01.JPG,AFNE01.JPG,AFNE01.JPG,AFNE01.JPG,AFNE01.JPG,,,,,,,,,,,,,,,,,2,1,21,8,,,,,,,AMNE03.jpg,AMSA18.jpg,AMSA12.jpg,AMNE11.jpg,AMSA12.jpg,MS,2,num_2,32,num_8,0.466799474088,,,2018_Feb_09_1722,60.0072560572,MAFE4ImagesEEG,001,102949,
AFNE01.JPG,AFNE01.JPG,AFNE01.JPG,AFNE01.JPG,AFNE01.JPG,AFNE01.JPG,,,,,,,,,,,,,,,,,2,2,22,2,,,,,,,AMNE10.jpg,AMSA18.jpg,AMNE07.jpg,AMSA19.jpg,AMSA19.jpg,MS,2,num_4,32,num_6,0.416807444533,,,2018_Feb_09_1722,60.0072560572,MAFE4ImagesEEG,001,102949,
AFNE01.JPG,AFNE01.JPG,AFNE01.JPG,AFNE01.JPG,AFNE01.JPG,AFNE01.JPG,,,,,,,,,,,,,,,,,2,3,23,3,,,,,,,AMNE05.jpg,AMSA20.jpg,AMNE08.jpg,AMSA09.jpg,AMSA20.jpg,MS,2,num_6,16,num_6,1.91664787685,,,2018_Feb_09_1722,60.0072560572,MAFE4ImagesEEG,001,102949,
AFNE01.JPG,AFNE01.JPG,AFNE01.JPG,AFNE01.JPG,AFNE01.JPG,AFNE01.JPG,,,,,,,,,,,,,,,,,2,4,24,4,,,,,,,AMSA05.jpg,AMNE02.jpg,AMNE20.jpg,AMSA01.jpg,AMSA01.jpg,MS,2,num_4,32,num_6,0.75017327955,,,2018_Feb_09_1722,60.0072560572,MAFE4ImagesEEG,001,102949,
AFNE01.JPG,AFNE01.JPG,AFNE01.JPG,AFNE01.JPG,AFNE01.JPG,AFNE01.JPG,,,,,,,,,,,,,,,,,2,5,25,1,,,,,,,AMNE05.jpg,AMSA20.jpg,AMSA02.jpg,AMNE19.jpg,AMSA02.jpg,MS,2,num_2,16,num_2,0.983453701483,,,2018_Feb_09_1722,60.0072560572,MAFE4ImagesEEG,001,102949,
AFNE01.JPG,AFNE01.JPG,AFNE01.JPG,AFNE01.JPG,AFNE01.JPG,AFNE01.JPG,,,,,,,,,,,,,,,,,2,6,26,5,,,,,,,AMSA18.jpg,AMNE08.jpg,AMNE20.jpg,AMSA07.jpg,AMSA18.jpg,MS,2,num_8,32,num_4,0.750133186812,,,2018_Feb_09_1722,60.0072560572,MAFE4ImagesEEG,001,102949,
AFNE01.JPG,AFNE01.JPG,AFNE01.JPG,AFNE01.JPG,AFNE01.JPG,AFNE01.JPG,,,,,,,,,,,,,,,,,2,7,27,9,,,,,,,AMSA16.jpg,AMNE04.jpg,AMSA02.jpg,AMNE19.jpg,AMNE04.jpg,MN,1,num_6,16,num_6,1.10038017225,,,2018_Feb_09_1722,60.0072560572,MAFE4ImagesEEG,001,102949,
AFNE01.JPG,AFNE01.JPG,AFNE01.JPG,AFNE01.JPG,AFNE01.JPG,AFNE01.JPG,,,,,,,,,,,,,,,,,2,8,28,0,,,,,,,AMSA16.jpg,AMNE03.jpg,AMNE13.jpg,AMSA17.jpg,AMSA16.jpg,MS,2,num_8,32,num_4,0.700085028075,,,2018_Feb_09_1722,60.0072560572,MAFE4ImagesEEG,001,102949,
AFNE01.JPG,AFNE01.JPG,AFNE01.JPG,AFNE01.JPG,AFNE01.JPG,AFNE01.JPG,,,,,,,,,,,,,,,,,2,9,29,6,,,,,,,AMSA16.jpg,AMSA01.jpg,AMNE11.jpg,AMNE17.jpg,AMNE11.jpg,MN,1,num_2,32,num_8,0.833431105362,,,2018_Feb_09_1722,60.0072560572,MAFE4ImagesEEG,001,102949,
AFNE01.JPG,AFNE01.JPG,AFNE01.JPG,AFNE01.JPG,AFNE01.JPG,AFNE01.JPG,,,,,,,,,,,,,,,,,3,0,30,6,,,,,,,AMNE17.jpg,AMSA16.jpg,AMNE03.jpg,AMSA18.jpg,AMNE03.jpg,MN,1,num_2,32,num_8,1.25010897103,,,2018_Feb_09_1722,60.0072560572,MAFE4ImagesEEG,001,102949,
AFNE01.JPG,AFNE01.JPG,AFNE01.JPG,AFNE01.JPG,AFNE01.JPG,AFNE01.JPG,,,,,,,,,,,,,,,,,3,1,31,9,,,,,,,AMSA11.jpg,AMSA08.jpg,AMNE09.jpg,AMNE11.jpg,AMNE11.jpg,MN,1,num_4,32,num_8,0.816775114043,,,2018_Feb_09_1722,60.0072560572,MAFE4ImagesEEG,001,102949,
AFNE01.JPG,AFNE01.JPG,AFNE01.JPG,AFNE01.JPG,AFNE01.JPG,AFNE01.JPG,,,,,,,,,,,,,,,,,3,2,32,2,,,,,,,AMNE06.jpg,AMSA18.jpg,AMSA07.jpg,AMNE05.jpg,AMNE06.jpg,MN,1,num_8,32,num_4,0.883511017542,,,2018_Feb_09_1722,60.0072560572,MAFE4ImagesEEG,001,102949,
AFNE01.JPG,AFNE01.JPG,AFNE01.JPG,AFNE01.JPG,AFNE01.JPG,AFNE01.JPG,,,,,,,,,,,,,,,,,3,3,33,0,,,,,,,AMNE20.jpg,AMSA15.jpg,AMNE10.jpg,AMSA10.jpg,AMSA10.jpg,MS,2,num_4,32,num_6,0.650173503906,,,2018_Feb_09_1722,60.0072560572,MAFE4ImagesEEG,001,102949,
AFNE01.JPG,AFNE01.JPG,AFNE01.JPG,AFNE01.JPG,AFNE01.JPG,AFNE01.JPG,,,,,,,,,,,,,,,,,3,4,34,3,,,,,,,AMSA17.jpg,AMNE19.jpg,AMSA14.jpg,AMNE12.jpg,AMNE12.jpg,MN,1,num_4,32,num_8,1.6500480948,,,2018_Feb_09_1722,60.0072560572,MAFE4ImagesEEG,001,102949,
AFNE01.JPG,AFNE01.JPG,AFNE01.JPG,AFNE01.JPG,AFNE01.JPG,AFNE01.JPG,,,,,,,,,,,,,,,,,3,5,35,5,,,,,,,AMSA08.jpg,AMNE03.jpg,AMNE06.jpg,AMSA11.jpg,AMSA11.jpg,MS,2,num_4,16,num_4,0.333507601637,,,2018_Feb_09_1722,60.0072560572,MAFE4ImagesEEG,001,102949,
AFNE01.JPG,AFNE01.JPG,AFNE01.JPG,AFNE01.JPG,AFNE01.JPG,AFNE01.JPG,,,,,,,,,,,,,,,,,3,6,36,1,,,,,,,AMNE16.jpg,AMSA14.jpg,AMNE07.jpg,AMSA13.jpg,AMNE16.jpg,MN,1,num_8,32,num_2,1.50006751576,,,2018_Feb_09_1722,60.0072560572,MAFE4ImagesEEG,001,102949,
AFNE01.JPG,AFNE01.JPG,AFNE01.JPG,AFNE01.JPG,AFNE01.JPG,AFNE01.JPG,,,,,,,,,,,,,,,,,3,7,37,7,,,,,,,AMSA16.jpg,AMNE11.jpg,AMSA02.jpg,AMNE06.jpg,AMNE06.jpg,MN,1,num_4,32,num_8,1.05012674024,,,2018_Feb_09_1722,60.0072560572,MAFE4ImagesEEG,001,102949,
AFNE01.JPG,AFNE01.JPG,AFNE01.JPG,AFNE01.JPG,AFNE01.JPG,AFNE01.JPG,,,,,,,,,,,,,,,,,3,8,38,8,,,,,,,AMNE11.jpg,AMSA09.jpg,AMNE02.jpg,AMSA04.jpg,AMSA09.jpg,MS,2,num_6,16,num_6,0.666812175186,,,2018_Feb_09_1722,60.0072560572,MAFE4ImagesEEG,001,102949,
AFNE01.JPG,AFNE01.JPG,AFNE01.JPG,AFNE01.JPG,AFNE01.JPG,AFNE01.JPG,,,,,,,,,,,,,,,,,3,9,39,4,,,,,,,AMNE18.jpg,AMSA05.jpg,AMSA11.jpg,AMNE03.jpg,AMNE18.jpg,MN,1,num_8,32,num_2,0.9167569282,,,2018_Feb_09_1722,60.0072560572,MAFE4ImagesEEG,001,102949,
AFNE01.JPG,AFNE01.JPG,AFNE01.JPG,AFNE01.JPG,AFNE01.JPG,AFNE01.JPG,,,,,,,,,,,,,,,,,4,0,40,8,,,,,,,AMNE14.jpg,AMSA04.jpg,AMSA01.jpg,AMNE19.jpg,AMNE19.jpg,MN,1,num_4,32,num_6,0.383501876611,,,2018_Feb_09_1722,60.0072560572,MAFE4ImagesEEG,001,102949,
AFNE01.JPG,AFNE01.JPG,AFNE01.JPG,AFNE01.JPG,AFNE01.JPG,AFNE01.JPG,,,,,,,,,,,,,,,,,4,1,41,0,,,,,,,AMSA10.jpg,AMNE06.jpg,AMSA16.jpg,AMNE09.jpg,AMSA10.jpg,MS,2,num_8,32,num_6,0.700119026238,,,2018_Feb_09_1722,60.0072560572,MAFE4ImagesEEG,001,102949,
AFNE01.JPG,AFNE01.JPG,AFNE01.JPG,AFNE01.JPG,AFNE01.JPG,AFNE01.JPG,,,,,,,,,,,,,,,,,4,2,42,9,,,,,,,AMNE17.jpg,AMNE16.jpg,AMSA07.jpg,AMSA16.jpg,AMNE16.jpg,MN,1,num_6,16,num_6,0.566785457777,,,2018_Feb_09_1722,60.0072560572,MAFE4ImagesEEG,001,102949,
AFNE01.JPG,AFNE01.JPG,AFNE01.JPG,AFNE01.JPG,AFNE01.JPG,AFNE01.JPG,,,,,,,,,,,,,,,,,4,3,43,4,,,,,,,AMNE12.jpg,AMSA13.jpg,AMSA17.jpg,AMNE17.jpg,AMSA17.jpg,MS,2,num_2,32,num_4,0.50012653158,,,2018_Feb_09_1722,60.0072560572,MAFE4ImagesEEG,001,102949,
AFNE01.JPG,AFNE01.JPG,AFNE01.JPG,AFNE01.JPG,AFNE01.JPG,AFNE01.JPG,,,,,,,,,,,,,,,,,4,4,44,3,,,,,,,AMNE20.jpg,AMNE17.jpg,AMSA16.jpg,AMSA09.jpg,AMNE17.jpg,MN,1,num_6,32,num_4,0.500156681053,,,2018_Feb_09_1722,60.0072560572,MAFE4ImagesEEG,001,102949,
AFNE01.JPG,AFNE01.JPG,AFNE01.JPG,AFNE01.JPG,AFNE01.JPG,AFNE01.JPG,,,,,,,,,,,,,,,,,4,5,45,7,,,,,,,AMNE05.jpg,AMSA06.jpg,AMNE10.jpg,AMSA19.jpg,AMNE05.jpg,MN,1,num_8,32,num_4,0.500158926472,,,2018_Feb_09_1722,60.0072560572,MAFE4ImagesEEG,001,102949,
AFNE01.JPG,AFNE01.JPG,AFNE01.JPG,AFNE01.JPG,AFNE01.JPG,AFNE01.JPG,,,,,,,,,,,,,,,,,4,6,46,2,,,,,,,AMNE13.jpg,AMNE01.jpg,AMSA04.jpg,AMSA07.jpg,AMSA04.jpg,MS,2,num_2,16,num_2,1.13344037486,,,2018_Feb_09_1722,60.0072560572,MAFE4ImagesEEG,001,102949,
AFNE01.JPG,AFNE01.JPG,AFNE01.JPG,AFNE01.JPG,AFNE01.JPG,AFNE01.JPG,,,,,,,,,,,,,,,,,4,7,47,6,,,,,,,AMNE03.jpg,AMSA06.jpg,AMNE06.jpg,AMSA17.jpg,AMSA06.jpg,MS,2,num_6,16,num_6,0.466779267648,,,2018_Feb_09_1722,60.0072560572,MAFE4ImagesEEG,001,102949,
AFNE01.JPG,AFNE01.JPG,AFNE01.JPG,AFNE01.JPG,AFNE01.JPG,AFNE01.JPG,,,,,,,,,,,,,,,,,4,8,48,1,,,,,,,AMNE14.jpg,AMSA02.jpg,AMNE17.jpg,AMSA07.jpg,AMNE17.jpg,MN,1,num_2,32,num_8,1.00008275057,,,2018_Feb_09_1722,60.0072560572,MAFE4ImagesEEG,001,102949,
AFNE01.JPG,AFNE01.JPG,AFNE01.JPG,AFNE01.JPG,AFNE01.JPG,AFNE01.JPG,,,,,,,,,,,,,,,,,4,9,49,5,,,,,,,AMSA02.jpg,AMNE14.jpg,AMSA08.jpg,AMNE13.jpg,AMNE13.jpg,MN,1,num_4,32,num_6,0.69997693901,,,2018_Feb_09_1722,60.0072560572,MAFE4ImagesEEG,001,102949,
AFNE01.JPG,AFNE01.JPG,AFNE01.JPG,AFNE01.JPG,AFNE01.JPG,AFNE01.JPG,,,,,,,,,,,,,,,,,5,0,50,3,,,,,,,AMSA11.jpg,AMSA15.jpg,AMNE12.jpg,AMNE11.jpg,AMSA15.jpg,MS,2,num_6,16,num_6,1.25012115925,,,2018_Feb_09_1722,60.0072560572,MAFE4ImagesEEG,001,102949,
AFNE01.JPG,AFNE01.JPG,AFNE01.JPG,AFNE01.JPG,AFNE01.JPG,AFNE01.JPG,,,,,,,,,,,,,,,,,5,1,51,8,,,,,,,AMNE06.jpg,AMSA10.jpg,AMSA01.jpg,AMNE09.jpg,AMNE06.jpg,MN,1,num_8,32,num_6,1.65012026113,,,2018_Feb_09_1722,60.0072560572,MAFE4ImagesEEG,001,102949,
AFNE01.JPG,AFNE01.JPG,AFNE01.JPG,AFNE01.JPG,AFNE01.JPG,AFNE01.JPG,,,,,,,,,,,,,,,,,5,2,52,5,,,,,,,AMNE13.jpg,AMSA18.jpg,AMNE09.jpg,AMSA10.jpg,AMSA18.jpg,MS,2,num_6,16,num_6,0.416793011129,,,2018_Feb_09_1722,60.0072560572,MAFE4ImagesEEG,001,102949,
AFNE01.JPG,AFNE01.JPG,AFNE01.JPG,AFNE01.JPG,AFNE01.JPG,AFNE01.JPG,,,,,,,,,,,,,,,,,5,3,53,1,,,,,,,AMNE01.jpg,AMNE10.jpg,AMSA18.jpg,AMSA06.jpg,AMNE01.jpg,MN,1,num_8,32,num_4,0.816778321285,,,2018_Feb_09_1722,60.0072560572,MAFE4ImagesEEG,001,102949,
AFNE01.JPG,AFNE01.JPG,AFNE01.JPG,AFNE01.JPG,AFNE01.JPG,AFNE01.JPG,,,,,,,,,,,,,,,,,5,4,54,2,,,,,,,AMSA14.jpg,AMNE14.jpg,AMSA19.jpg,AMNE18.jpg,AMNE14.jpg,MN,1,num_6,16,num_6,0.800121047068,,,2018_Feb_09_1722,60.0072560572,MAFE4ImagesEEG,001,102949,
AFNE01.JPG,AFNE01.JPG,AFNE01.JPG,AFNE01.JPG,AFNE01.JPG,AFNE01.JPG,,,,,,,,,,,,,,,,,5,5,55,7,,,,,,,AMNE16.jpg,AMSA07.jpg,AMNE06.jpg,AMSA16.jpg,AMSA16.jpg,MS,2,num_4,16,num_4,0.416810010327,,,2018_Feb_09_1722,60.0072560572,MAFE4ImagesEEG,001,102949,
AFNE01.JPG,AFNE01.JPG,AFNE01.JPG,AFNE01.JPG,AFNE01.JPG,AFNE01.JPG,,,,,,,,,,,,,,,,,5,6,56,9,,,,,,,AMSA01.jpg,AMNE14.jpg,AMNE01.jpg,AMSA04.jpg,AMNE01.jpg,MN,1,num_2,16,num_2,0.916907033883,,,2018_Feb_09_1722,60.0072560572,MAFE4ImagesEEG,001,102949,
AFNE01.JPG,AFNE01.JPG,AFNE01.JPG,AFNE01.JPG,AFNE01.JPG,AFNE01.JPG,,,,,,,,,,,,,,,,,5,7,57,4,,,,,,,AMNE04.jpg,AMSA05.jpg,AMNE09.jpg,AMSA01.jpg,AMNE04.jpg,MN,1,num_8,32,num_4,0.933450445998,,,2018_Feb_09_1722,60.0072560572,MAFE4ImagesEEG,001,102949,
AFNE01.JPG,AFNE01.JPG,AFNE01.JPG,AFNE01.JPG,AFNE01.JPG,AFNE01.JPG,,,,,,,,,,,,,,,,,5,8,58,0,,,,,,,AMNE17.jpg,AMSA14.jpg,AMNE18.jpg,AMSA18.jpg,AMNE17.jpg,MN,1,num_8,16,num_8,0.666793893091,,,2018_Feb_09_1722,60.0072560572,MAFE4ImagesEEG,001,102949,
AFNE01.JPG,AFNE01.JPG,AFNE01.JPG,AFNE01.JPG,AFNE01.JPG,AFNE01.JPG,,,,,,,,,,,,,,,,,5,9,59,6,,,,,,,AMSA08.jpg,AMNE02.jpg,AMNE05.jpg,AMSA04.jpg,AMSA08.jpg,MS,2,num_8,16,num_8,0.733490345767,,,2018_Feb_09_1722,60.0072560572,MAFE4ImagesEEG,001,102949,
,,,,,,,,,,,,,,,,,,,,,,,,,,,,,,,,,,,,,,,,,,,space,5.63308611815,2018_Feb_09_1722,60.0072560572,MAFE4ImagesEEG,001,102949,
AFNE01.JPG,AFNE01.JPG,AFNE01.JPG,AFNE01.JPG,AFNE01.JPG,AFNE01.JPG,,,,,,,,,,,,,,,,,,,,,0,0,0,7,,,AFNE03.jpg,AFSA13.jpg,AFNE07.jpg,AFSA11.jpg,AFNE03.jpg,FN,3,num_8,16,num_8,0.783367550932,,,2018_Feb_09_1722,60.0072560572,MAFE4ImagesEEG,001,102949,
AFNE01.JPG,AFNE01.JPG,AFNE01.JPG,AFNE01.JPG,AFNE01.JPG,AFNE01.JPG,,,,,,,,,,,,,,,,,,,,,0,1,1,3,,,AFSA03.jpg,AFNE16.jpg,AFSA17.jpg,AFNE08.jpg,AFNE16.jpg,FN,3,num_6,16,num_6,0.550187199609,,,2018_Feb_09_1722,60.0072560572,MAFE4ImagesEEG,001,102949,
AFNE01.JPG,AFNE01.JPG,AFNE01.JPG,AFNE01.JPG,AFNE01.JPG,AFNE01.JPG,,,,,,,,,,,,,,,,,,,,,0,2,2,8,,,AFSA20.jpg,AFNE07.jpg,AFSA04.jpg,AFNE05.jpg,AFSA04.jpg,FS,4,num_2,32,num_4,1.35007538972,,,2018_Feb_09_1722,60.0072560572,MAFE4ImagesEEG,001,102949,
AFNE01.JPG,AFNE01.JPG,AFNE01.JPG,AFNE01.JPG,AFNE01.JPG,AFNE01.JPG,,,,,,,,,,,,,,,,,,,,,0,3,3,9,,,AFNE18.jpg,AFNE12.jpg,AFSA03.jpg,AFSA15.jpg,AFSA15.jpg,FS,4,num_4,32,num_6,0.566792514175,,,2018_Feb_09_1722,60.0072560572,MAFE4ImagesEEG,001,102949,
AFNE01.JPG,AFNE01.JPG,AFNE01.JPG,AFNE01.JPG,AFNE01.JPG,AFNE01.JPG,,,,,,,,,,,,,,,,,,,,,0,4,4,6,,,AFNE07.jpg,AFSA03.jpg,AFSA01.jpg,AFNE20.jpg,AFSA01.jpg,FS,4,num_2,32,num_6,0.600141061004,,,2018_Feb_09_1722,60.0072560572,MAFE4ImagesEEG,001,102949,
AFNE01.JPG,AFNE01.JPG,AFNE01.JPG,AFNE01.JPG,AFNE01.JPG,AFNE01.JPG,,,,,,,,,,,,,,,,,,,,,0,5,5,1,,,AFSA20.jpg,AFSA06.jpg,AFNE15.jpg,AFNE02.jpg,AFNE02.jpg,FN,3,num_4,32,num_8,0.783536901232,,,2018_Feb_09_1722,60.0072560572,MAFE4ImagesEEG,001,102949,
AFNE01.JPG,AFNE01.JPG,AFNE01.JPG,AFNE01.JPG,AFNE01.JPG,AFNE01.JPG,,,,,,,,,,,,,,,,,,,,,0,6,6,5,,,AFNE20.jpg,AFSA08.jpg,AFNE01.jpg,AFSA03.jpg,AFNE20.jpg,FN,3,num_8,32,num_6,1.18349879747,,,2018_Feb_09_1722,60.0072560572,MAFE4ImagesEEG,001,102949,
AFNE01.JPG,AFNE01.JPG,AFNE01.JPG,AFNE01.JPG,AFNE01.JPG,AFNE01.JPG,,,,,,,,,,,,,,,,,,,,,0,7,7,4,,,AFSA20.jpg,AFNE16.jpg,AFNE12.jpg,AFSA10.jpg,AFSA10.jpg,FS,4,num_4,32,num_6,0.933437937172,,,2018_Feb_09_1722,60.0072560572,MAFE4ImagesEEG,001,102949,
AFNE01.JPG,AFNE01.JPG,AFNE01.JPG,AFNE01.JPG,AFNE01.JPG,AFNE01.JPG,,,,,,,,,,,,,,,,,,,,,0,8,8,2,,,AFNE07.jpg,AFSA08.jpg,AFSA09.jpg,AFNE12.jpg,AFSA09.jpg,FS,4,num_2,32,num_6,0.266947783995,,,2018_Feb_09_1722,60.0072560572,MAFE4ImagesEEG,001,102949,
AFNE01.JPG,AFNE01.JPG,AFNE01.JPG,AFNE01.JPG,AFNE01.JPG,AFNE01.JPG,,,,,,,,,,,,,,,,,,,,,0,9,9,0,,,AFSA20.jpg,AFSA10.jpg,AFNE07.jpg,AFNE04.jpg,AFNE07.jpg,FN,3,num_2,16,num_2,1.7830859418,,,2018_Feb_09_1722,60.0072560572,MAFE4ImagesEEG,001,102949,
AFNE01.JPG,AFNE01.JPG,AFNE01.JPG,AFNE01.JPG,AFNE01.JPG,AFNE01.JPG,,,,,,,,,,,,,,,,,,,,,1,0,10,5,,,AFSA14.jpg,AFSA05.jpg,AFNE08.jpg,AFNE10.jpg,AFSA05.jpg,FS,4,num_6,16,num_6,0.500171114225,,,2018_Feb_09_1722,60.0072560572,MAFE4ImagesEEG,001,102949,
AFNE01.JPG,AFNE01.JPG,AFNE01.JPG,AFNE01.JPG,AFNE01.JPG,AFNE01.JPG,,,,,,,,,,,,,,,,,,,,,1,1,11,2,,,AFNE07.jpg,AFNE12.jpg,AFSA14.jpg,AFSA10.jpg,AFSA14.jpg,FS,4,num_2,32,num_8,0.766785971122,,,2018_Feb_09_1722,60.0072560572,MAFE4ImagesEEG,001,102949,
AFNE01.JPG,AFNE01.JPG,AFNE01.JPG,AFNE01.JPG,AFNE01.JPG,AFNE01.JPG,,,,,,,,,,,,,,,,,,,,,1,2,12,6,,,AFNE10.jpg,AFNE02.jpg,AFSA07.jpg,AFSA01.jpg,AFSA01.jpg,FS,4,num_4,32,num_2,1.01662167232,,,2018_Feb_09_1722,60.0072560572,MAFE4ImagesEEG,001,102949,
AFNE01.JPG,AFNE01.JPG,AFNE01.JPG,AFNE01.JPG,AFNE01.JPG,AFNE01.JPG,,,,,,,,,,,,,,,,,,,,,1,3,13,3,,,AFNE18.jpg,AFSA10.jpg,AFNE13.jpg,AFSA14.jpg,AFSA14.jpg,FS,4,num_4,32,num_8,0.366794887464,,,2018_Feb_09_1722,60.0072560572,MAFE4ImagesEEG,001,102949,
AFNE01.JPG,AFNE01.JPG,AFNE01.JPG,AFNE01.JPG,AFNE01.JPG,AFNE01.JPG,,,,,,,,,,,,,,,,,,,,,1,4,14,4,,,AFSA05.jpg,AFSA04.jpg,AFNE16.jpg,AFNE13.jpg,AFNE13.jpg,FN,3,num_4,32,num_6,0.383772901259,,,2018_Feb_09_1722,60.0072560572,MAFE4ImagesEEG,001,102949,
AFNE01.JPG,AFNE01.JPG,AFNE01.JPG,AFNE01.JPG,AFNE01.JPG,AFNE01.JPG,,,,,,,,,,,,,,,,,,,,,1,5,15,8,,,AFNE10.jpg,AFSA17.jpg,AFNE14.jpg,AFSA18.jpg,AFSA18.jpg,FS,4,num_4,32,num_8,0.750193806598,,,2018_Feb_09_1722,60.0072560572,MAFE4ImagesEEG,001,102949,
AFNE01.JPG,AFNE01.JPG,AFNE01.JPG,AFNE01.JPG,AFNE01.JPG,AFNE01.JPG,,,,,,,,,,,,,,,,,,,,,1,6,16,0,,,AFSA02.jpg,AFNE16.jpg,AFSA20.jpg,AFNE20.jpg,AFSA02.jpg,FS,4,num_8,32,num_2,1.00023317733,,,2018_Feb_09_1722,60.0072560572,MAFE4ImagesEEG,001,102949,
AFNE01.JPG,AFNE01.JPG,AFNE01.JPG,AFNE01.JPG,AFNE01.JPG,AFNE01.JPG,,,,,,,,,,,,,,,,,,,,,1,7,17,1,,,AFNE04.jpg,AFSA18.jpg,AFNE08.jpg,AFSA13.jpg,AFNE04.jpg,FN,3,num_8,16,num_8,0.600148117403,,,2018_Feb_09_1722,60.0072560572,MAFE4ImagesEEG,001,102949,
AFNE01.JPG,AFNE01.JPG,AFNE01.JPG,AFNE01.JPG,AFNE01.JPG,AFNE01.JPG,,,,,,,,,,,,,,,,,,,,,1,8,18,7,,,AFNE19.jpg,AFSA15.jpg,AFNE20.jpg,AFSA01.jpg,AFNE19.jpg,FN,3,num_8,32,num_4,0.483512877719,,,2018_Feb_09_1722,60.0072560572,MAFE4ImagesEEG,001,102949,
AFNE01.JPG,AFNE01.JPG,AFNE01.JPG,AFNE01.JPG,AFNE01.JPG,AFNE01.JPG,,,,,,,,,,,,,,,,,,,,,1,9,19,9,,,AFSA07.jpg,AFSA14.jpg,AFNE05.jpg,AFNE12.jpg,AFNE12.jpg,FN,3,num_4,16,num_4,0.433511225972,,,2018_Feb_09_1722,60.0072560572,MAFE4ImagesEEG,001,102949,
AFNE01.JPG,AFNE01.JPG,AFNE01.JPG,AFNE01.JPG,AFNE01.JPG,AFNE01.JPG,,,,,,,,,,,,,,,,,,,,,2,0,20,3,,,AFSA02.jpg,AFSA10.jpg,AFNE20.jpg,AFNE03.jpg,AFSA10.jpg,FS,4,num_6,16,num_6,2.15001201187,,,2018_Feb_09_1722,60.0072560572,MAFE4ImagesEEG,001,102949,
AFNE01.JPG,AFNE01.JPG,AFNE01.JPG,AFNE01.JPG,AFNE01.JPG,AFNE01.JPG,,,,,,,,,,,,,,,,,,,,,2,1,21,5,,,AFSA11.jpg,AFSA17.jpg,AFNE12.jpg,AFNE20.jpg,AFNE20.jpg,FN,3,num_4,16,num_4,0.600269036135,,,2018_Feb_09_1722,60.0072560572,MAFE4ImagesEEG,001,102949,
AFNE01.JPG,AFNE01.JPG,AFNE01.JPG,AFNE01.JPG,AFNE01.JPG,AFNE01.JPG,,,,,,,,,,,,,,,,,,,,,2,2,22,4,,,AFSA06.jpg,AFNE09.jpg,AFNE05.jpg,AFSA18.jpg,AFNE05.jpg,FN,3,num_2,32,num_4,0.900166046806,,,2018_Feb_09_1722,60.0072560572,MAFE4ImagesEEG,001,102949,
AFNE01.JPG,AFNE01.JPG,AFNE01.JPG,AFNE01.JPG,AFNE01.JPG,AFNE01.JPG,,,,,,,,,,,,,,,,,,,,,2,3,23,6,,,AFSA19.jpg,AFNE03.jpg,AFNE06.jpg,AFSA18.jpg,AFNE03.jpg,FN,3,num_6,16,num_6,0.683483562199,,,2018_Feb_09_1722,60.0072560572,MAFE4ImagesEEG,001,102949,
AFNE01.JPG,AFNE01.JPG,AFNE01.JPG,AFNE01.JPG,AFNE01.JPG,AFNE01.JPG,,,,,,,,,,,,,,,,,,,,,2,4,24,0,,,AFSA04.jpg,AFSA01.jpg,AFNE05.jpg,AFNE11.jpg,AFNE05.jpg,FN,3,num_2,32,num_4,0.783500337042,,,2018_Feb_09_1722,60.0072560572,MAFE4ImagesEEG,001,102949,
AFNE01.JPG,AFNE01.JPG,AFNE01.JPG,AFNE01.JPG,AFNE01.JPG,AFNE01.JPG,,,,,,,,,,,,,,,,,,,,,2,5,25,1,,,AFSA06.jpg,AFNE02.jpg,AFNE15.jpg,AFSA08.jpg,AFNE02.jpg,FN,3,num_6,32,num_4,0.800164346816,,,2018_Feb_09_1722,60.0072560572,MAFE4ImagesEEG,001,102949,
AFNE01.JPG,AFNE01.JPG,AFNE01.JPG,AFNE01.JPG,AFNE01.JPG,AFNE01.JPG,,,,,,,,,,,,,,,,,,,,,2,6,26,2,,,AFSA16.jpg,AFNE05.jpg,AFSA09.jpg,AFNE06.jpg,AFSA16.jpg,FS,4,num_8,16,num_8,0.36689431686,,,2018_Feb_09_1722,60.0072560572,MAFE4ImagesEEG,001,102949,
AFNE01.JPG,AFNE01.JPG,AFNE01.JPG,AFNE01.JPG,AFNE01.JPG,AFNE01.JPG,,,,,,,,,,,,,,,,,,,,,2,7,27,7,,,AFNE14.jpg,AFSA05.jpg,AFSA06.jpg,AFNE15.jpg,AFSA06.jpg,FS,4,num_2,16,num_2,0.966792898951,,,2018_Feb_09_1722,60.0072560572,MAFE4ImagesEEG,001,102949,
AFNE01.JPG,AFNE01.JPG,AFNE01.JPG,AFNE01.JPG,AFNE01.JPG,AFNE01.JPG,,,,,,,,,,,,,,,,,,,,,2,8,28,9,,,AFNE16.jpg,AFSA07.jpg,AFSA20.jpg,AFNE13.jpg,AFSA07.jpg,FS,4,num_6,32,num_2,1.28339818143,,,2018_Feb_09_1722,60.0072560572,MAFE4ImagesEEG,001,102949,
AFNE01.JPG,AFNE01.JPG,AFNE01.JPG,AFNE01.JPG,AFNE01.JPG,AFNE01.JPG,,,,,,,,,,,,,,,,,,,,,2,9,29,8,,,AFSA17.jpg,AFNE15.jpg,AFNE02.jpg,AFSA08.jpg,AFNE02.jpg,FN,3,num_2,32,num_8,0.950102267787,,,2018_Feb_09_1722,60.0072560572,MAFE4ImagesEEG,001,102949,
AFNE01.JPG,AFNE01.JPG,AFNE01.JPG,AFNE01.JPG,AFNE01.JPG,AFNE01.JPG,,,,,,,,,,,,,,,,,,,,,3,0,30,7,,,AFNE16.jpg,AFNE20.jpg,AFSA11.jpg,AFSA01.jpg,AFSA11.jpg,FS,4,num_2,16,num_2,0.783479809761,,,2018_Feb_09_1722,60.0072560572,MAFE4ImagesEEG,001,102949,
AFNE01.JPG,AFNE01.JPG,AFNE01.JPG,AFNE01.JPG,AFNE01.JPG,AFNE01.JPG,,,,,,,,,,,,,,,,,,,,,3,1,31,8,,,AFNE04.jpg,AFSA20.jpg,AFNE01.jpg,AFSA10.jpg,AFSA20.jpg,FS,4,num_6,32,num_4,0.366869940655,,,2018_Feb_09_1722,60.0072560572,MAFE4ImagesEEG,001,102949,
AFNE01.JPG,AFNE01.JPG,AFNE01.JPG,AFNE01.JPG,AFNE01.JPG,AFNE01.JPG,,,,,,,,,,,,,,,,,,,,,3,2,32,1,,,AFSA09.jpg,AFSA20.jpg,AFNE10.jpg,AFNE11.jpg,AFSA20.jpg,FS,4,num_6,16,num_6,1.89976159437,,,2018_Feb_09_1722,60.0072560572,MAFE4ImagesEEG,001,102949,
AFNE01.JPG,AFNE01.JPG,AFNE01.JPG,AFNE01.JPG,AFNE01.JPG,AFNE01.JPG,,,,,,,,,,,,,,,,,,,,,3,3,33,3,,,AFSA07.jpg,AFNE19.jpg,AFSA08.jpg,AFNE18.jpg,AFNE19.jpg,FN,3,num_6,32,num_4,0.700344185345,,,2018_Feb_09_1722,60.0072560572,MAFE4ImagesEEG,001,102949,
AFNE01.JPG,AFNE01.JPG,AFNE01.JPG,AFNE01.JPG,AFNE01.JPG,AFNE01.JPG,,,,,,,,,,,,,,,,,,,,,3,4,34,6,,,AFNE04.jpg,AFNE09.jpg,AFSA03.jpg,AFSA06.jpg,AFNE09.jpg,FN,3,num_6,16,num_6,0.733444480225,,,2018_Feb_09_1722,60.0072560572,MAFE4ImagesEEG,001,102949,
AFNE01.JPG,AFNE01.JPG,AFNE01.JPG,AFNE01.JPG,AFNE01.JPG,AFNE01.JPG,,,,,,,,,,,,,,,,,,,,,3,5,35,9,,,AFSA09.jpg,AFNE16.jpg,AFSA06.jpg,AFNE04.jpg,AFNE16.jpg,FN,3,num_6,16,num_6,0.83348947973,,,2018_Feb_09_1722,60.0072560572,MAFE4ImagesEEG,001,102949,
AFNE01.JPG,AFNE01.JPG,AFNE01.JPG,AFNE01.JPG,AFNE01.JPG,AFNE01.JPG,,,,,,,,,,,,,,,,,,,,,3,6,36,2,,,AFNE19.jpg,AFNE10.jpg,AFSA07.jpg,AFSA04.jpg,AFNE19.jpg,FN,3,num_8,32,num_6,0.783434264595,,,2018_Feb_09_1722,60.0072560572,MAFE4ImagesEEG,001,102949,
AFNE01.JPG,AFNE01.JPG,AFNE01.JPG,AFNE01.JPG,AFNE01.JPG,AFNE01.JPG,,,,,,,,,,,,,,,,,,,,,3,7,37,5,,,AFSA08.jpg,AFSA19.jpg,AFNE07.jpg,AFNE20.jpg,AFNE20.jpg,FN,3,num_4,32,num_6,0.783475319156,,,2018_Feb_09_1722,60.0072560572,MAFE4ImagesEEG,001,102949,
AFNE01.JPG,AFNE01.JPG,AFNE01.JPG,AFNE01.JPG,AFNE01.JPG,AFNE01.JPG,,,,,,,,,,,,,,,,,,,,,3,8,38,4,,,AFSA20.jpg,AFNE12.jpg,AFSA18.jpg,AFNE02.jpg,AFSA20.jpg,FS,4,num_8,32,num_6,0.500147059094,,,2018_Feb_09_1722,60.0072560572,MAFE4ImagesEEG,001,102949,
