IPosition2,IPosition3,IPosition1,IPosition6,IPosition4,IPosition5,TrialsF1.thisRepN,TrialsF1.thisTrialN,TrialsF1.thisN,TrialsF1.thisIndex,TrialsM1.thisRepN,TrialsM1.thisTrialN,TrialsM1.thisN,TrialsM1.thisIndex,TrialsF2.thisRepN,TrialsF2.thisTrialN,TrialsF2.thisN,TrialsF2.thisIndex,TrialsM2.thisRepN,TrialsM2.thisTrialN,TrialsM2.thisN,TrialsM2.thisIndex,TrialsF3.thisRepN,TrialsF3.thisTrialN,TrialsF3.thisN,TrialsF3.thisIndex,TrialsM3.thisRepN,TrialsM3.thisTrialN,TrialsM3.thisN,TrialsM3.thisIndex,InstrKey_resp.keys,InstrKey_resp.rt,Image0 _Position,Image1 _Position,Image2 _Position,Image3 _Position,Center_image,condition,code,correct_answer,accuracy,Key_Resp.keys,Key_Resp.rt,BreakKey_resp.keys,BreakKey_resp.rt,date,frameRate,expName,session,participant,
,,,,,,,,,,,,,,,,,,,,,,,,,,,,,,space,28.4149667217,,,,,,,,,,,,,,2018_Jan_30_1543,60.018229946,FEMA4ImagesEEG,001,102906,
AMNE23.JPG,AMNE24.JPG,AMNE22.JPG,AMSA24.JPG,AMSA22.JPG,AMSA23.JPG,0,0,0,9,,,,,,,,,,,,,,,,,,,,,,,AFSA02.jpg,AFSA12.jpg,AFNE15.jpg,AFNE09.jpg,AFSA12.jpg,FS,4,num_6,32,num_2,1.48340318503,,,2018_Jan_30_1543,60.018229946,FEMA4ImagesEEG,001,102906,
AMNE22.JPG,AMSA24.JPG,AMSA22.JPG,AMNE25.JPG,AMNE24.JPG,AMSA25.JPG,0,1,1,7,,,,,,,,,,,,,,,,,,,,,,,AFSA15.jpg,AFSA16.jpg,AFNE04.jpg,AFNE19.jpg,AFNE19.jpg,FN,3,num_4,16,num_4,0.850164715666,,,2018_Jan_30_1543,60.018229946,FEMA4ImagesEEG,001,102906,
AMSA25.JPG,AMNE24.JPG,AMSA24.JPG,AMNE26.JPG,AMSA21.JPG,AMNE25.JPG,0,2,2,3,,,,,,,,,,,,,,,,,,,,,,,AFSA08.jpg,AFNE09.jpg,AFNE15.jpg,AFSA16.jpg,AFSA08.jpg,FS,4,num_8,32,num_6,1.06678914628,,,2018_Jan_30_1543,60.018229946,FEMA4ImagesEEG,001,102906,
AFSA21.JPG,AFNE22.JPG,AFNE21.JPG,AFSA23.JPG,AFSA22.JPG,AFNE23.JPG,0,3,3,0,,,,,,,,,,,,,,,,,,,,,,,AFSA01.jpg,AFSA07.jpg,AFNE07.jpg,AFNE15.jpg,AFSA01.jpg,FS,4,num_8,32,num_6,1.5164181632,,,2018_Jan_30_1543,60.018229946,FEMA4ImagesEEG,001,102906,
AFNE23.JPG,AFNE24.JPG,AFNE22.JPG,AFSA24.JPG,AFSA22.JPG,AFSA23.JPG,0,4,4,8,,,,,,,,,,,,,,,,,,,,,,,AFSA12.jpg,AFSA04.jpg,AFNE12.jpg,AFNE16.jpg,AFSA04.jpg,FS,4,num_6,32,num_4,2.21665008983,,,2018_Jan_30_1543,60.018229946,FEMA4ImagesEEG,001,102906,
AMSA21.JPG,AMNE22.JPG,AMNE21.JPG,AMSA23.JPG,AMSA22.JPG,AMNE23.JPG,0,5,5,1,,,,,,,,,,,,,,,,,,,,,,,AFSA06.jpg,AFNE08.jpg,AFSA12.jpg,AFNE14.jpg,AFNE14.jpg,FN,3,num_4,32,num_8,2.76667852327,,,2018_Jan_30_1543,60.018229946,FEMA4ImagesEEG,001,102906,
AFNE22.JPG,AFSA24.JPG,AFSA22.JPG,AFNE25.JPG,AFNE24.JPG,AFSA25.JPG,0,6,6,6,,,,,,,,,,,,,,,,,,,,,,,AFNE01.jpg,AFSA09.jpg,AFSA19.jpg,AFNE04.jpg,AFNE01.jpg,FN,3,num_8,32,num_6,2.1500126532,,,2018_Jan_30_1543,60.018229946,FEMA4ImagesEEG,001,102906,
AMSA21.JPG,AMNE23.JPG,AMNE21.JPG,AMSA25.JPG,AMNE25.JPG,AMSA23.JPG,0,7,7,5,,,,,,,,,,,,,,,,,,,,,,,AFNE10.jpg,AFSA01.jpg,AFNE08.jpg,AFSA19.jpg,AFSA19.jpg,FS,4,num_4,16,num_4,1.35006865428,,,2018_Jan_30_1543,60.018229946,FEMA4ImagesEEG,001,102906,
AFSA25.JPG,AFNE24.JPG,AFSA24.JPG,AFNE21.JPG,AFSA21.JPG,AFNE25.JPG,0,8,8,2,,,,,,,,,,,,,,,,,,,,,,,AFNE11.jpg,AFSA01.jpg,AFNE13.jpg,AFSA11.jpg,AFNE11.jpg,FN,3,num_8,16,num_8,0.916783228633,,,2018_Jan_30_1543,60.018229946,FEMA4ImagesEEG,001,102906,
AFSA21.JPG,AFNE23.JPG,AFNE21.JPG,AFSA25.JPG,AFNE25.JPG,AFSA23.JPG,0,9,9,4,,,,,,,,,,,,,,,,,,,,,,,AFNE19.jpg,AFSA05.jpg,AFSA02.jpg,AFNE05.jpg,AFNE19.jpg,FN,3,num_8,16,num_8,1.28340972809,,,2018_Jan_30_1543,60.018229946,FEMA4ImagesEEG,001,102906,
AFNE22.JPG,AFSA24.JPG,AFSA22.JPG,AFNE25.JPG,AFNE24.JPG,AFSA25.JPG,,,,,0,0,0,6,,,,,,,,,,,,,,,,,,,AMSA06.jpg,AMNE01.jpg,AMSA08.jpg,AMNE15.jpg,AMSA08.jpg,MS,2,num_2,16,num_2,1.26671717246,,,2018_Jan_30_1543,60.018229946,FEMA4ImagesEEG,001,102906,
AMNE23.JPG,AMNE24.JPG,AMNE22.JPG,AMSA24.JPG,AMSA22.JPG,AMSA23.JPG,,,,,0,1,1,9,,,,,,,,,,,,,,,,,,,AMNE04.jpg,AMSA14.jpg,AMSA09.jpg,AMNE11.jpg,AMSA14.jpg,MS,2,num_6,16,num_6,0.966768522747,,,2018_Jan_30_1543,60.018229946,FEMA4ImagesEEG,001,102906,
AMSA21.JPG,AMNE22.JPG,AMNE21.JPG,AMSA23.JPG,AMSA22.JPG,AMNE23.JPG,,,,,0,2,2,1,,,,,,,,,,,,,,,,,,,AMNE10.jpg,AMSA08.jpg,AMSA17.jpg,AMNE08.jpg,AMNE08.jpg,MN,1,num_4,16,num_4,1.1334567325,,,2018_Jan_30_1543,60.018229946,FEMA4ImagesEEG,001,102906,
AMSA21.JPG,AMNE23.JPG,AMNE21.JPG,AMSA25.JPG,AMNE25.JPG,AMSA23.JPG,,,,,0,3,3,5,,,,,,,,,,,,,,,,,,,AMSA10.jpg,AMNE09.jpg,AMNE02.jpg,AMSA04.jpg,AMSA10.jpg,MS,2,num_8,32,num_2,1.48311740626,,,2018_Jan_30_1543,60.018229946,FEMA4ImagesEEG,001,102906,
AFSA25.JPG,AFNE24.JPG,AFSA24.JPG,AFNE21.JPG,AFSA21.JPG,AFNE25.JPG,,,,,0,4,4,2,,,,,,,,,,,,,,,,,,,AMNE14.jpg,AMSA13.jpg,AMSA01.jpg,AMNE07.jpg,AMNE07.jpg,MN,1,num_4,32,num_8,1.06675771379,,,2018_Jan_30_1543,60.018229946,FEMA4ImagesEEG,001,102906,
AMNE22.JPG,AMSA24.JPG,AMSA22.JPG,AMNE25.JPG,AMNE24.JPG,AMSA25.JPG,,,,,0,5,5,7,,,,,,,,,,,,,,,,,,,AMSA05.jpg,AMNE18.jpg,AMSA17.jpg,AMNE05.jpg,AMSA17.jpg,MS,2,num_2,32,num_4,2.50030005164,,,2018_Jan_30_1543,60.018229946,FEMA4ImagesEEG,001,102906,
AFSA21.JPG,AFNE23.JPG,AFNE21.JPG,AFSA25.JPG,AFNE25.JPG,AFSA23.JPG,,,,,0,6,6,4,,,,,,,,,,,,,,,,,,,AMSA19.jpg,AMSA05.jpg,AMNE06.jpg,AMNE20.jpg,AMSA05.jpg,MS,2,num_6,16,num_6,0.950100343325,,,2018_Jan_30_1543,60.018229946,FEMA4ImagesEEG,001,102906,
AFSA21.JPG,AFNE22.JPG,AFNE21.JPG,AFSA23.JPG,AFSA22.JPG,AFNE23.JPG,,,,,0,7,7,0,,,,,,,,,,,,,,,,,,,AMSA08.jpg,AMNE04.jpg,AMNE07.jpg,AMSA18.jpg,AMNE07.jpg,MN,1,num_2,32,num_8,1.15011689346,,,2018_Jan_30_1543,60.018229946,FEMA4ImagesEEG,001,102906,
AFNE23.JPG,AFNE24.JPG,AFNE22.JPG,AFSA24.JPG,AFSA22.JPG,AFSA23.JPG,,,,,0,8,8,8,,,,,,,,,,,,,,,,,,,AMNE01.jpg,AMSA03.jpg,AMSA10.jpg,AMNE11.jpg,AMSA10.jpg,MS,2,num_2,32,num_4,1.63342546043,,,2018_Jan_30_1543,60.018229946,FEMA4ImagesEEG,001,102906,
AMSA25.JPG,AMNE24.JPG,AMSA24.JPG,AMNE26.JPG,AMSA21.JPG,AMNE25.JPG,,,,,0,9,9,3,,,,,,,,,,,,,,,,,,,AMNE03.jpg,AMSA02.jpg,AMNE19.jpg,AMSA07.jpg,AMNE19.jpg,MN,1,num_2,32,num_8,2.91656512592,,,2018_Jan_30_1543,60.018229946,FEMA4ImagesEEG,001,102906,
AMNE23.JPG,AMNE24.JPG,AMNE22.JPG,AMSA24.JPG,AMSA22.JPG,AMSA23.JPG,,,,,,,,,0,0,0,9,,,,,,,,,,,,,,,AFNE11.jpg,AFNE17.jpg,AFSA16.jpg,AFSA20.jpg,AFNE11.jpg,FN,3,num_8,16,num_8,1.10013192007,,,2018_Jan_30_1543,60.018229946,FEMA4ImagesEEG,001,102906,
AFSA25.JPG,AFNE24.JPG,AFSA24.JPG,AFNE21.JPG,AFSA21.JPG,AFNE25.JPG,,,,,,,,,0,1,1,2,,,,,,,,,,,,,,,AFNE05.jpg,AFSA07.jpg,AFNE04.jpg,AFSA20.jpg,AFSA20.jpg,FS,4,num_4,16,num_4,2.21667222073,,,2018_Jan_30_1543,60.018229946,FEMA4ImagesEEG,001,102906,
AMNE22.JPG,AMSA24.JPG,AMSA22.JPG,AMNE25.JPG,AMNE24.JPG,AMSA25.JPG,,,,,,,,,0,2,2,7,,,,,,,,,,,,,,,AFNE07.jpg,AFNE10.jpg,AFSA17.jpg,AFSA18.jpg,AFSA17.jpg,FS,4,num_2,16,num_2,1.58341194119,,,2018_Jan_30_1543,60.018229946,FEMA4ImagesEEG,001,102906,
AFNE22.JPG,AFSA24.JPG,AFSA22.JPG,AFNE25.JPG,AFNE24.JPG,AFSA25.JPG,,,,,,,,,0,3,3,6,,,,,,,,,,,,,,,AFSA06.jpg,AFSA14.jpg,AFNE20.jpg,AFNE03.jpg,AFNE03.jpg,FN,3,num_4,16,num_4,0.833453877829,,,2018_Jan_30_1543,60.018229946,FEMA4ImagesEEG,001,102906,
AMSA21.JPG,AMNE23.JPG,AMNE21.JPG,AMSA25.JPG,AMNE25.JPG,AMSA23.JPG,,,,,,,,,0,4,4,5,,,,,,,,,,,,,,,AFNE20.jpg,AFSA19.jpg,AFNE12.jpg,AFSA15.jpg,AFNE12.jpg,FN,3,num_2,16,num_2,1.20009128237,,,2018_Jan_30_1543,60.018229946,FEMA4ImagesEEG,001,102906,
AMSA21.JPG,AMNE22.JPG,AMNE21.JPG,AMSA23.JPG,AMSA22.JPG,AMNE23.JPG,,,,,,,,,0,5,5,1,,,,,,,,,,,,,,,AFSA12.jpg,AFNE11.jpg,AFNE09.jpg,AFSA07.jpg,AFSA12.jpg,FS,4,num_8,32,num_2,1.86672640964,,,2018_Jan_30_1543,60.018229946,FEMA4ImagesEEG,001,102906,
AFSA21.JPG,AFNE22.JPG,AFNE21.JPG,AFSA23.JPG,AFSA22.JPG,AFNE23.JPG,,,,,,,,,0,6,6,0,,,,,,,,,,,,,,,AFNE01.jpg,AFSA09.jpg,AFNE16.jpg,AFSA07.jpg,AFNE01.jpg,FN,3,num_8,32,num_2,1.90005731618,,,2018_Jan_30_1543,60.018229946,FEMA4ImagesEEG,001,102906,
AFNE23.JPG,AFNE24.JPG,AFNE22.JPG,AFSA24.JPG,AFSA22.JPG,AFSA23.JPG,,,,,,,,,0,7,7,8,,,,,,,,,,,,,,,AFNE09.jpg,AFSA15.jpg,AFSA09.jpg,AFNE20.jpg,AFNE20.jpg,FN,3,num_4,16,num_4,2.73340984026,,,2018_Jan_30_1543,60.018229946,FEMA4ImagesEEG,001,102906,
AMSA25.JPG,AMNE24.JPG,AMSA24.JPG,AMNE26.JPG,AMSA21.JPG,AMNE25.JPG,,,,,,,,,0,8,8,3,,,,,,,,,,,,,,,AFNE05.jpg,AFSA14.jpg,AFNE17.jpg,AFSA11.jpg,AFNE17.jpg,FN,3,num_2,16,num_2,1.33342260576,,,2018_Jan_30_1543,60.018229946,FEMA4ImagesEEG,001,102906,
AFSA21.JPG,AFNE23.JPG,AFNE21.JPG,AFSA25.JPG,AFNE25.JPG,AFSA23.JPG,,,,,,,,,0,9,9,4,,,,,,,,,,,,,,,AFSA06.jpg,AFNE18.jpg,AFSA02.jpg,AFNE16.jpg,AFNE16.jpg,FN,3,num_4,16,num_4,0.933477067272,,,2018_Jan_30_1543,60.018229946,FEMA4ImagesEEG,001,102906,
AMSA21.JPG,AMNE23.JPG,AMNE21.JPG,AMSA25.JPG,AMNE25.JPG,AMSA23.JPG,,,,,,,,,,,,,0,0,0,5,,,,,,,,,,,AMSA17.jpg,AMNE20.jpg,AMNE19.jpg,AMSA06.jpg,AMNE19.jpg,MN,1,num_2,32,num_8,1.06679908931,,,2018_Jan_30_1543,60.018229946,FEMA4ImagesEEG,001,102906,
AFNE22.JPG,AFSA24.JPG,AFSA22.JPG,AFNE25.JPG,AFNE24.JPG,AFSA25.JPG,,,,,,,,,,,,,0,1,1,6,,,,,,,,,,,AMNE01.jpg,AMSA04.jpg,AMSA13.jpg,AMNE03.jpg,AMSA04.jpg,MS,2,num_6,16,num_6,0.533497209661,,,2018_Jan_30_1543,60.018229946,FEMA4ImagesEEG,001,102906,
AMSA25.JPG,AMNE24.JPG,AMSA24.JPG,AMNE26.JPG,AMSA21.JPG,AMNE25.JPG,,,,,,,,,,,,,0,2,2,3,,,,,,,,,,,AMNE17.jpg,AMSA03.jpg,AMSA17.jpg,AMNE16.jpg,AMSA17.jpg,MS,2,num_2,16,num_2,1.33343447314,,,2018_Jan_30_1543,60.018229946,FEMA4ImagesEEG,001,102906,
AMNE23.JPG,AMNE24.JPG,AMNE22.JPG,AMSA24.JPG,AMSA22.JPG,AMSA23.JPG,,,,,,,,,,,,,0,3,3,9,,,,,,,,,,,AMSA08.jpg,AMSA14.jpg,AMNE18.jpg,AMNE19.jpg,AMSA08.jpg,MS,2,num_8,16,num_8,1.18342823477,,,2018_Jan_30_1543,60.018229946,FEMA4ImagesEEG,001,102906,
AFSA21.JPG,AFNE22.JPG,AFNE21.JPG,AFSA23.JPG,AFSA22.JPG,AFNE23.JPG,,,,,,,,,,,,,0,4,4,0,,,,,,,,,,,AMSA19.jpg,AMNE18.jpg,AMNE11.jpg,AMSA17.jpg,AMSA17.jpg,MS,2,num_4,32,num_8,1.11675519613,,,2018_Jan_30_1543,60.018229946,FEMA4ImagesEEG,001,102906,
AFNE23.JPG,AFNE24.JPG,AFNE22.JPG,AFSA24.JPG,AFSA22.JPG,AFSA23.JPG,,,,,,,,,,,,,0,5,5,8,,,,,,,,,,,AMNE14.jpg,AMSA12.jpg,AMSA01.jpg,AMNE10.jpg,AMNE10.jpg,MN,1,num_4,16,num_4,0.916796699748,,,2018_Jan_30_1543,60.018229946,FEMA4ImagesEEG,001,102906,
AFSA21.JPG,AFNE23.JPG,AFNE21.JPG,AFSA25.JPG,AFNE25.JPG,AFSA23.JPG,,,,,,,,,,,,,0,6,6,4,,,,,,,,,,,AMSA09.jpg,AMNE14.jpg,AMNE18.jpg,AMSA18.jpg,AMNE18.jpg,MN,1,num_2,16,num_2,1.21674759453,,,2018_Jan_30_1543,60.018229946,FEMA4ImagesEEG,001,102906,
AFSA25.JPG,AFNE24.JPG,AFSA24.JPG,AFNE21.JPG,AFSA21.JPG,AFNE25.JPG,,,,,,,,,,,,,0,7,7,2,,,,,,,,,,,AMNE14.jpg,AMSA06.jpg,AMNE06.jpg,AMSA12.jpg,AMSA12.jpg,MS,2,num_4,16,num_4,2.0333623389,,,2018_Jan_30_1543,60.018229946,FEMA4ImagesEEG,001,102906,
AMSA21.JPG,AMNE22.JPG,AMNE21.JPG,AMSA23.JPG,AMSA22.JPG,AMNE23.JPG,,,,,,,,,,,,,0,8,8,1,,,,,,,,,,,AMNE03.jpg,AMSA03.jpg,AMSA09.jpg,AMNE11.jpg,AMSA09.jpg,MS,2,num_2,16,num_2,1.16672252875,,,2018_Jan_30_1543,60.018229946,FEMA4ImagesEEG,001,102906,
AMNE22.JPG,AMSA24.JPG,AMSA22.JPG,AMNE25.JPG,AMNE24.JPG,AMSA25.JPG,,,,,,,,,,,,,0,9,9,7,,,,,,,,,,,AMNE10.jpg,AMNE15.jpg,AMSA19.jpg,AMSA04.jpg,AMNE15.jpg,MN,1,num_6,16,num_6,0.850148357917,,,2018_Jan_30_1543,60.018229946,FEMA4ImagesEEG,001,102906,
AFSA21.JPG,AFNE22.JPG,AFNE21.JPG,AFSA23.JPG,AFSA22.JPG,AFNE23.JPG,,,,,,,,,,,,,,,,,0,0,0,0,,,,,,,AFNE07.jpg,AFSA18.jpg,AFNE10.jpg,AFSA04.jpg,AFSA04.jpg,FS,4,num_4,16,num_4,1.35011387849,,,2018_Jan_30_1543,60.018229946,FEMA4ImagesEEG,001,102906,
AFNE23.JPG,AFNE24.JPG,AFNE22.JPG,AFSA24.JPG,AFSA22.JPG,AFSA23.JPG,,,,,,,,,,,,,,,,,0,1,1,8,,,,,,,AFSA02.jpg,AFNE18.jpg,AFSA14.jpg,AFNE08.jpg,AFNE18.jpg,FN,3,num_6,16,num_6,0.83346927329,,,2018_Jan_30_1543,60.018229946,FEMA4ImagesEEG,001,102906,
AFSA21.JPG,AFNE23.JPG,AFNE21.JPG,AFSA25.JPG,AFNE25.JPG,AFSA23.JPG,,,,,,,,,,,,,,,,,0,2,2,4,,,,,,,AFSA08.jpg,AFNE20.jpg,AFNE07.jpg,AFSA06.jpg,AFSA08.jpg,FS,4,num_8,16,num_8,1.15012651565,,,2018_Jan_30_1543,60.018229946,FEMA4ImagesEEG,001,102906,
AMSA21.JPG,AMNE23.JPG,AMNE21.JPG,AMSA25.JPG,AMNE25.JPG,AMSA23.JPG,,,,,,,,,,,,,,,,,0,3,3,5,,,,,,,AFSA14.jpg,AFNE06.jpg,AFNE20.jpg,AFSA11.jpg,AFSA11.jpg,FS,4,num_4,16,num_4,0.983492190135,,,2018_Jan_30_1543,60.018229946,FEMA4ImagesEEG,001,102906,
AMSA21.JPG,AMNE22.JPG,AMNE21.JPG,AMSA23.JPG,AMSA22.JPG,AMNE23.JPG,,,,,,,,,,,,,,,,,0,4,4,1,,,,,,,AFSA16.jpg,AFSA15.jpg,AFNE20.jpg,AFNE17.jpg,AFNE20.jpg,FN,3,num_2,16,num_2,1.55006179039,,,2018_Jan_30_1543,60.018229946,FEMA4ImagesEEG,001,102906,
AFSA25.JPG,AFNE24.JPG,AFSA24.JPG,AFNE21.JPG,AFSA21.JPG,AFNE25.JPG,,,,,,,,,,,,,,,,,0,5,5,2,,,,,,,AFSA07.jpg,AFNE09.jpg,AFNE02.jpg,AFSA04.jpg,AFSA07.jpg,FS,4,num_8,16,num_8,1.2335209765,,,2018_Jan_30_1543,60.018229946,FEMA4ImagesEEG,001,102906,
AMSA25.JPG,AMNE24.JPG,AMSA24.JPG,AMNE26.JPG,AMSA21.JPG,AMNE25.JPG,,,,,,,,,,,,,,,,,0,6,6,3,,,,,,,AFSA14.jpg,AFNE18.jpg,AFSA09.jpg,AFNE15.jpg,AFNE18.jpg,FN,3,num_6,16,num_6,1.28341742582,,,2018_Jan_30_1543,60.018229946,FEMA4ImagesEEG,001,102906,
AFNE22.JPG,AFSA24.JPG,AFSA22.JPG,AFNE25.JPG,AFNE24.JPG,AFSA25.JPG,,,,,,,,,,,,,,,,,0,7,7,6,,,,,,,AFSA20.jpg,AFSA02.jpg,AFNE17.jpg,AFNE19.jpg,AFSA20.jpg,FS,4,num_8,16,num_8,1.20013939333,,,2018_Jan_30_1543,60.018229946,FEMA4ImagesEEG,001,102906,
AMNE22.JPG,AMSA24.JPG,AMSA22.JPG,AMNE25.JPG,AMNE24.JPG,AMSA25.JPG,,,,,,,,,,,,,,,,,0,8,8,7,,,,,,,AFNE16.jpg,AFSA01.jpg,AFNE20.jpg,AFSA02.jpg,AFSA01.jpg,FS,4,num_6,16,num_6,1.01675445831,,,2018_Jan_30_1543,60.018229946,FEMA4ImagesEEG,001,102906,
AMNE23.JPG,AMNE24.JPG,AMNE22.JPG,AMSA24.JPG,AMSA22.JPG,AMSA23.JPG,,,,,,,,,,,,,,,,,0,9,9,9,,,,,,,AFNE20.jpg,AFNE13.jpg,AFSA20.jpg,AFSA09.jpg,AFSA09.jpg,FS,4,num_4,16,num_4,1.15010085655,,,2018_Jan_30_1543,60.018229946,FEMA4ImagesEEG,001,102906,
AMSA21.JPG,AMNE23.JPG,AMNE21.JPG,AMSA25.JPG,AMNE25.JPG,AMSA23.JPG,,,,,,,,,,,,,,,,,,,,,0,0,0,5,,,AMSA11.jpg,AMNE07.jpg,AMNE17.jpg,AMSA18.jpg,AMSA11.jpg,MS,2,num_8,32,num_4,0.933455256978,,,2018_Jan_30_1543,60.018229946,FEMA4ImagesEEG,001,102906,
AMSA25.JPG,AMNE24.JPG,AMSA24.JPG,AMNE26.JPG,AMSA21.JPG,AMNE25.JPG,,,,,,,,,,,,,,,,,,,,,0,1,1,3,,,AMNE19.jpg,AMNE11.jpg,AMSA14.jpg,AMSA17.jpg,AMSA17.jpg,MS,2,num_4,16,num_4,1.36660051951,,,2018_Jan_30_1543,60.018229946,FEMA4ImagesEEG,001,102906,
AMNE23.JPG,AMNE24.JPG,AMNE22.JPG,AMSA24.JPG,AMSA22.JPG,AMSA23.JPG,,,,,,,,,,,,,,,,,,,,,0,2,2,9,,,AMNE07.jpg,AMNE20.jpg,AMSA19.jpg,AMSA02.jpg,AMSA19.jpg,MS,2,num_2,32,num_8,1.53345679666,,,2018_Jan_30_1543,60.018229946,FEMA4ImagesEEG,001,102906,
AFSA21.JPG,AFNE23.JPG,AFNE21.JPG,AFSA25.JPG,AFNE25.JPG,AFSA23.JPG,,,,,,,,,,,,,,,,,,,,,0,3,3,4,,,AMSA16.jpg,AMNE06.jpg,AMSA03.jpg,AMNE16.jpg,AMNE16.jpg,MN,1,num_4,16,num_4,0.833493649494,,,2018_Jan_30_1543,60.018229946,FEMA4ImagesEEG,001,102906,
AMSA21.JPG,AMNE22.JPG,AMNE21.JPG,AMSA23.JPG,AMSA22.JPG,AMNE23.JPG,,,,,,,,,,,,,,,,,,,,,0,4,4,1,,,AMSA12.jpg,AMNE13.jpg,AMNE03.jpg,AMSA05.jpg,AMNE13.jpg,MN,1,num_6,16,num_6,0.799808005453,,,2018_Jan_30_1543,60.018229946,FEMA4ImagesEEG,001,102906,
AFSA25.JPG,AFNE24.JPG,AFSA24.JPG,AFNE21.JPG,AFSA21.JPG,AFNE25.JPG,,,,,,,,,,,,,,,,,,,,,0,5,5,2,,,AMNE14.jpg,AMNE17.jpg,AMSA09.jpg,AMSA08.jpg,AMNE14.jpg,MN,1,num_8,32,num_4,1.25012725336,,,2018_Jan_30_1543,60.018229946,FEMA4ImagesEEG,001,102906,
AMNE22.JPG,AMSA24.JPG,AMSA22.JPG,AMNE25.JPG,AMNE24.JPG,AMSA25.JPG,,,,,,,,,,,,,,,,,,,,,0,6,6,7,,,AMSA18.jpg,AMNE10.jpg,AMSA02.jpg,AMNE19.jpg,AMSA02.jpg,MS,2,num_2,16,num_2,1.80007421912,,,2018_Jan_30_1543,60.018229946,FEMA4ImagesEEG,001,102906,
AFSA21.JPG,AFNE22.JPG,AFNE21.JPG,AFSA23.JPG,AFSA22.JPG,AFNE23.JPG,,,,,,,,,,,,,,,,,,,,,0,7,7,0,,,AMSA04.jpg,AMNE20.jpg,AMNE17.jpg,AMSA02.jpg,AMSA04.jpg,MS,2,num_8,16,num_8,0.917004859541,,,2018_Jan_30_1543,60.018229946,FEMA4ImagesEEG,001,102906,
AFNE23.JPG,AFNE24.JPG,AFNE22.JPG,AFSA24.JPG,AFSA22.JPG,AFSA23.JPG,,,,,,,,,,,,,,,,,,,,,0,8,8,8,,,AMNE11.jpg,AMNE10.jpg,AMSA17.jpg,AMSA07.jpg,AMSA07.jpg,MS,2,num_4,16,num_4,1.06677888264,,,2018_Jan_30_1543,60.018229946,FEMA4ImagesEEG,001,102906,
AFNE22.JPG,AFSA24.JPG,AFSA22.JPG,AFNE25.JPG,AFNE24.JPG,AFSA25.JPG,,,,,,,,,,,,,,,,,,,,,0,9,9,6,,,AMNE11.jpg,AMNE20.jpg,AMSA10.jpg,AMSA18.jpg,AMNE11.jpg,MN,1,num_8,16,num_8,1.41675099439,,,2018_Jan_30_1543,60.018229946,FEMA4ImagesEEG,001,102906,
,,,,,,,,,,,,,,,,,,,,,,,,,,,,,,,,,,,,,,,,,,,space,8.68290591089,2018_Jan_30_1543,60.018229946,FEMA4ImagesEEG,001,102906,
AFNE01.JPG,AFNE01.JPG,AFNE01.JPG,AFNE01.JPG,AFNE01.JPG,AFNE01.JPG,0,0,0,8,,,,,,,,,,,,,,,,,,,,,,,AFSA13.jpg,AFSA12.jpg,AFNE20.jpg,AFNE07.jpg,AFSA12.jpg,FS,4,num_6,16,num_6,0.933479312458,,,2018_Jan_30_1543,60.018229946,FEMA4ImagesEEG,001,102906,
AFNE01.JPG,AFNE01.JPG,AFNE01.JPG,AFNE01.JPG,AFNE01.JPG,AFNE01.JPG,0,1,1,5,,,,,,,,,,,,,,,,,,,,,,,AFNE20.jpg,AFNE14.jpg,AFSA20.jpg,AFSA07.jpg,AFNE20.jpg,FN,3,num_8,32,num_4,1.71672979346,,,2018_Jan_30_1543,60.018229946,FEMA4ImagesEEG,001,102906,
AFNE01.JPG,AFNE01.JPG,AFNE01.JPG,AFNE01.JPG,AFNE01.JPG,AFNE01.JPG,0,2,2,2,,,,,,,,,,,,,,,,,,,,,,,AFNE04.jpg,AFSA18.jpg,AFNE02.jpg,AFSA05.jpg,AFSA18.jpg,FS,4,num_6,16,num_6,1.63339306565,,,2018_Jan_30_1543,60.018229946,FEMA4ImagesEEG,001,102906,
AFNE01.JPG,AFNE01.JPG,AFNE01.JPG,AFNE01.JPG,AFNE01.JPG,AFNE01.JPG,0,3,3,1,,,,,,,,,,,,,,,,,,,,,,,AFSA04.jpg,AFNE19.jpg,AFNE01.jpg,AFSA02.jpg,AFNE19.jpg,FN,3,num_6,32,num_4,1.08347272128,,,2018_Jan_30_1543,60.018229946,FEMA4ImagesEEG,001,102906,
AFNE01.JPG,AFNE01.JPG,AFNE01.JPG,AFNE01.JPG,AFNE01.JPG,AFNE01.JPG,0,4,4,3,,,,,,,,,,,,,,,,,,,,,,,AFSA13.jpg,AFNE08.jpg,AFNE04.jpg,AFSA07.jpg,AFSA07.jpg,FS,4,num_4,32,num_2,1.13347982569,,,2018_Jan_30_1543,60.018229946,FEMA4ImagesEEG,001,102906,
AFNE01.JPG,AFNE01.JPG,AFNE01.JPG,AFNE01.JPG,AFNE01.JPG,AFNE01.JPG,0,5,5,6,,,,,,,,,,,,,,,,,,,,,,,AFNE06.jpg,AFNE20.jpg,AFSA11.jpg,AFSA09.jpg,AFNE06.jpg,FN,3,num_8,16,num_8,0.917055857135,,,2018_Jan_30_1543,60.018229946,FEMA4ImagesEEG,001,102906,
AFNE01.JPG,AFNE01.JPG,AFNE01.JPG,AFNE01.JPG,AFNE01.JPG,AFNE01.JPG,0,6,6,7,,,,,,,,,,,,,,,,,,,,,,,AFNE20.jpg,AFSA01.jpg,AFNE16.jpg,AFSA16.jpg,AFNE16.jpg,FN,3,num_2,32,num_4,0.850106341066,,,2018_Jan_30_1543,60.018229946,FEMA4ImagesEEG,001,102906,
AFNE01.JPG,AFNE01.JPG,AFNE01.JPG,AFNE01.JPG,AFNE01.JPG,AFNE01.JPG,0,7,7,4,,,,,,,,,,,,,,,,,,,,,,,AFNE05.jpg,AFNE10.jpg,AFSA19.jpg,AFSA18.jpg,AFSA19.jpg,FS,4,num_2,32,num_4,1.15012940229,,,2018_Jan_30_1543,60.018229946,FEMA4ImagesEEG,001,102906,
AFNE01.JPG,AFNE01.JPG,AFNE01.JPG,AFNE01.JPG,AFNE01.JPG,AFNE01.JPG,0,8,8,9,,,,,,,,,,,,,,,,,,,,,,,AFNE20.jpg,AFSA15.jpg,AFSA04.jpg,AFNE11.jpg,AFSA15.jpg,FS,4,num_6,16,num_6,0.966601096909,,,2018_Jan_30_1543,60.018229946,FEMA4ImagesEEG,001,102906,
AFNE01.JPG,AFNE01.JPG,AFNE01.JPG,AFNE01.JPG,AFNE01.JPG,AFNE01.JPG,0,9,9,0,,,,,,,,,,,,,,,,,,,,,,,AFNE13.jpg,AFSA17.jpg,AFNE09.jpg,AFSA11.jpg,AFSA17.jpg,FS,4,num_6,16,num_6,0.950138190528,,,2018_Jan_30_1543,60.018229946,FEMA4ImagesEEG,001,102906,
AFNE01.JPG,AFNE01.JPG,AFNE01.JPG,AFNE01.JPG,AFNE01.JPG,AFNE01.JPG,1,0,10,2,,,,,,,,,,,,,,,,,,,,,,,AFNE17.jpg,AFSA01.jpg,AFNE18.jpg,AFSA02.jpg,AFSA01.jpg,FS,4,num_6,16,num_6,1.45015374641,,,2018_Jan_30_1543,60.018229946,FEMA4ImagesEEG,001,102906,
AFNE01.JPG,AFNE01.JPG,AFNE01.JPG,AFNE01.JPG,AFNE01.JPG,AFNE01.JPG,1,1,11,3,,,,,,,,,,,,,,,,,,,,,,,AFNE01.jpg,AFSA02.jpg,AFSA12.jpg,AFNE11.jpg,AFNE01.jpg,FN,3,num_8,16,num_8,1.43340153317,,,2018_Jan_30_1543,60.018229946,FEMA4ImagesEEG,001,102906,
AFNE01.JPG,AFNE01.JPG,AFNE01.JPG,AFNE01.JPG,AFNE01.JPG,AFNE01.JPG,1,2,12,4,,,,,,,,,,,,,,,,,,,,,,,AFSA15.jpg,AFNE14.jpg,AFNE04.jpg,AFSA05.jpg,AFNE14.jpg,FN,3,num_6,32,num_8,0.983487379039,,,2018_Jan_30_1543,60.018229946,FEMA4ImagesEEG,001,102906,
AFNE01.JPG,AFNE01.JPG,AFNE01.JPG,AFNE01.JPG,AFNE01.JPG,AFNE01.JPG,1,3,13,9,,,,,,,,,,,,,,,,,,,,,,,AFNE08.jpg,AFNE12.jpg,AFSA08.jpg,AFSA01.jpg,AFNE08.jpg,FN,3,num_8,16,num_8,1.96636182535,,,2018_Jan_30_1543,60.018229946,FEMA4ImagesEEG,001,102906,
AFNE01.JPG,AFNE01.JPG,AFNE01.JPG,AFNE01.JPG,AFNE01.JPG,AFNE01.JPG,1,4,14,6,,,,,,,,,,,,,,,,,,,,,,,AFSA05.jpg,AFSA15.jpg,AFNE15.jpg,AFNE13.jpg,AFNE13.jpg,FN,3,num_4,32,num_2,1.38340276806,,,2018_Jan_30_1543,60.018229946,FEMA4ImagesEEG,001,102906,
AFNE01.JPG,AFNE01.JPG,AFNE01.JPG,AFNE01.JPG,AFNE01.JPG,AFNE01.JPG,1,5,15,1,,,,,,,,,,,,,,,,,,,,,,,AFNE19.jpg,AFSA11.jpg,AFNE09.jpg,AFSA08.jpg,AFNE09.jpg,FN,3,num_2,16,num_2,1.2167363686,,,2018_Jan_30_1543,60.018229946,FEMA4ImagesEEG,001,102906,
AFNE01.JPG,AFNE01.JPG,AFNE01.JPG,AFNE01.JPG,AFNE01.JPG,AFNE01.JPG,1,6,16,5,,,,,,,,,,,,,,,,,,,,,,,AFSA10.jpg,AFNE12.jpg,AFSA13.jpg,AFNE14.jpg,AFNE12.jpg,FN,3,num_6,16,num_6,0.883470283705,,,2018_Jan_30_1543,60.018229946,FEMA4ImagesEEG,001,102906,
AFNE01.JPG,AFNE01.JPG,AFNE01.JPG,AFNE01.JPG,AFNE01.JPG,AFNE01.JPG,1,7,17,0,,,,,,,,,,,,,,,,,,,,,,,AFSA06.jpg,AFNE16.jpg,AFNE03.jpg,AFSA15.jpg,AFNE16.jpg,FN,3,num_6,16,num_6,0.700156232109,,,2018_Jan_30_1543,60.018229946,FEMA4ImagesEEG,001,102906,
AFNE01.JPG,AFNE01.JPG,AFNE01.JPG,AFNE01.JPG,AFNE01.JPG,AFNE01.JPG,1,8,18,7,,,,,,,,,,,,,,,,,,,,,,,AFNE06.jpg,AFSA18.jpg,AFNE04.jpg,AFSA12.jpg,AFSA12.jpg,FS,4,num_4,16,num_4,1.06674809172,,,2018_Jan_30_1543,60.018229946,FEMA4ImagesEEG,001,102906,
AFNE01.JPG,AFNE01.JPG,AFNE01.JPG,AFNE01.JPG,AFNE01.JPG,AFNE01.JPG,1,9,19,8,,,,,,,,,,,,,,,,,,,,,,,AFSA20.jpg,AFNE19.jpg,AFNE14.jpg,AFSA02.jpg,AFSA20.jpg,FS,4,num_8,32,num_6,1.1001444289,,,2018_Jan_30_1543,60.018229946,FEMA4ImagesEEG,001,102906,
AFNE01.JPG,AFNE01.JPG,AFNE01.JPG,AFNE01.JPG,AFNE01.JPG,AFNE01.JPG,2,0,20,7,,,,,,,,,,,,,,,,,,,,,,,AFSA15.jpg,AFNE10.jpg,AFNE17.jpg,AFSA04.jpg,AFSA15.jpg,FS,4,num_8,16,num_8,1.1834994388,,,2018_Jan_30_1543,60.018229946,FEMA4ImagesEEG,001,102906,
AFNE01.JPG,AFNE01.JPG,AFNE01.JPG,AFNE01.JPG,AFNE01.JPG,AFNE01.JPG,2,1,21,1,,,,,,,,,,,,,,,,,,,,,,,AFNE08.jpg,AFNE16.jpg,AFSA14.jpg,AFSA05.jpg,AFSA05.jpg,FS,4,num_4,16,num_4,1.21670974733,,,2018_Jan_30_1543,60.018229946,FEMA4ImagesEEG,001,102906,
AFNE01.JPG,AFNE01.JPG,AFNE01.JPG,AFNE01.JPG,AFNE01.JPG,AFNE01.JPG,2,2,22,4,,,,,,,,,,,,,,,,,,,,,,,AFNE11.jpg,AFSA09.jpg,AFSA20.jpg,AFNE06.jpg,AFNE06.jpg,FN,3,num_4,16,num_4,1.93356238399,,,2018_Jan_30_1543,60.018229946,FEMA4ImagesEEG,001,102906,
AFNE01.JPG,AFNE01.JPG,AFNE01.JPG,AFNE01.JPG,AFNE01.JPG,AFNE01.JPG,2,3,23,9,,,,,,,,,,,,,,,,,,,,,,,AFSA11.jpg,AFSA18.jpg,AFNE01.jpg,AFNE14.jpg,AFSA18.jpg,FS,4,num_6,32,num_2,1.36672047595,,,2018_Jan_30_1543,60.018229946,FEMA4ImagesEEG,001,102906,
AFNE01.JPG,AFNE01.JPG,AFNE01.JPG,AFNE01.JPG,AFNE01.JPG,AFNE01.JPG,2,4,24,2,,,,,,,,,,,,,,,,,,,,,,,AFNE10.jpg,AFSA02.jpg,AFSA18.jpg,AFNE09.jpg,AFSA18.jpg,FS,4,num_2,32,num_6,1.26671845536,,,2018_Jan_30_1543,60.018229946,FEMA4ImagesEEG,001,102906,
AFNE01.JPG,AFNE01.JPG,AFNE01.JPG,AFNE01.JPG,AFNE01.JPG,AFNE01.JPG,2,5,25,3,,,,,,,,,,,,,,,,,,,,,,,AFNE13.jpg,AFSA07.jpg,AFNE20.jpg,AFSA20.jpg,AFSA20.jpg,FS,4,num_4,16,num_4,1.05014983343,,,2018_Jan_30_1543,60.018229946,FEMA4ImagesEEG,001,102906,
AFNE01.JPG,AFNE01.JPG,AFNE01.JPG,AFNE01.JPG,AFNE01.JPG,AFNE01.JPG,2,6,26,8,,,,,,,,,,,,,,,,,,,,,,,AFSA08.jpg,AFNE16.jpg,AFNE09.jpg,AFSA03.jpg,AFNE09.jpg,FN,3,num_2,32,num_8,1.05005713971,,,2018_Jan_30_1543,60.018229946,FEMA4ImagesEEG,001,102906,
AFNE01.JPG,AFNE01.JPG,AFNE01.JPG,AFNE01.JPG,AFNE01.JPG,AFNE01.JPG,2,7,27,5,,,,,,,,,,,,,,,,,,,,,,,AFNE11.jpg,AFSA18.jpg,AFSA06.jpg,AFNE01.jpg,AFNE01.jpg,FN,3,num_4,32,num_8,2.75000360841,,,2018_Jan_30_1543,60.018229946,FEMA4ImagesEEG,001,102906,
AFNE01.JPG,AFNE01.JPG,AFNE01.JPG,AFNE01.JPG,AFNE01.JPG,AFNE01.JPG,2,8,28,0,,,,,,,,,,,,,,,,,,,,,,,AFSA13.jpg,AFNE03.jpg,AFSA17.jpg,AFNE05.jpg,AFNE05.jpg,FN,3,num_4,16,num_4,1.16673567903,,,2018_Jan_30_1543,60.018229946,FEMA4ImagesEEG,001,102906,
AFNE01.JPG,AFNE01.JPG,AFNE01.JPG,AFNE01.JPG,AFNE01.JPG,AFNE01.JPG,2,9,29,6,,,,,,,,,,,,,,,,,,,,,,,AFSA15.jpg,AFNE19.jpg,AFSA10.jpg,AFNE14.jpg,AFNE14.jpg,FN,3,num_4,32,num_2,1.40008281486,,,2018_Jan_30_1543,60.018229946,FEMA4ImagesEEG,001,102906,
AFNE01.JPG,AFNE01.JPG,AFNE01.JPG,AFNE01.JPG,AFNE01.JPG,AFNE01.JPG,3,0,30,9,,,,,,,,,,,,,,,,,,,,,,,AFNE09.jpg,AFSA14.jpg,AFNE20.jpg,AFSA12.jpg,AFSA14.jpg,FS,4,num_6,32,num_8,1.18340289628,,,2018_Jan_30_1543,60.018229946,FEMA4ImagesEEG,001,102906,
AFNE01.JPG,AFNE01.JPG,AFNE01.JPG,AFNE01.JPG,AFNE01.JPG,AFNE01.JPG,3,1,31,2,,,,,,,,,,,,,,,,,,,,,,,AFSA17.jpg,AFNE10.jpg,AFSA04.jpg,AFNE08.jpg,AFSA04.jpg,FS,4,num_2,32,num_8,1.38341976725,,,2018_Jan_30_1543,60.018229946,FEMA4ImagesEEG,001,102906,
AFNE01.JPG,AFNE01.JPG,AFNE01.JPG,AFNE01.JPG,AFNE01.JPG,AFNE01.JPG,3,2,32,3,,,,,,,,,,,,,,,,,,,,,,,AFSA14.jpg,AFNE12.jpg,AFNE11.jpg,AFSA13.jpg,AFNE12.jpg,FN,3,num_6,16,num_6,0.750188674894,,,2018_Jan_30_1543,60.018229946,FEMA4ImagesEEG,001,102906,
AFNE01.JPG,AFNE01.JPG,AFNE01.JPG,AFNE01.JPG,AFNE01.JPG,AFNE01.JPG,3,3,33,1,,,,,,,,,,,,,,,,,,,,,,,AFSA07.jpg,AFSA04.jpg,AFNE16.jpg,AFNE05.jpg,AFSA07.jpg,FS,4,num_8,16,num_8,1.08369723882,,,2018_Jan_30_1543,60.018229946,FEMA4ImagesEEG,001,102906,
AFNE01.JPG,AFNE01.JPG,AFNE01.JPG,AFNE01.JPG,AFNE01.JPG,AFNE01.JPG,3,4,34,8,,,,,,,,,,,,,,,,,,,,,,,AFSA15.jpg,AFSA08.jpg,AFNE01.jpg,AFNE11.jpg,AFNE11.jpg,FN,3,num_4,16,num_4,1.34978415852,,,2018_Jan_30_1543,60.018229946,FEMA4ImagesEEG,001,102906,
AFNE01.JPG,AFNE01.JPG,AFNE01.JPG,AFNE01.JPG,AFNE01.JPG,AFNE01.JPG,3,5,35,5,,,,,,,,,,,,,,,,,,,,,,,AFSA12.jpg,AFNE20.jpg,AFNE14.jpg,AFSA14.jpg,AFSA14.jpg,FS,4,num_4,32,num_8,1.5500473571,,,2018_Jan_30_1543,60.018229946,FEMA4ImagesEEG,001,102906,
AFNE01.JPG,AFNE01.JPG,AFNE01.JPG,AFNE01.JPG,AFNE01.JPG,AFNE01.JPG,3,6,36,4,,,,,,,,,,,,,,,,,,,,,,,AFSA01.jpg,AFNE03.jpg,AFNE17.jpg,AFSA04.jpg,AFSA04.jpg,FS,4,num_4,16,num_4,0.816811998957,,,2018_Jan_30_1543,60.018229946,FEMA4ImagesEEG,001,102906,
AFNE01.JPG,AFNE01.JPG,AFNE01.JPG,AFNE01.JPG,AFNE01.JPG,AFNE01.JPG,3,7,37,7,,,,,,,,,,,,,,,,,,,,,,,AFNE18.jpg,AFSA11.jpg,AFSA13.jpg,AFNE10.jpg,AFSA13.jpg,FS,4,num_2,16,num_2,1.33365065139,,,2018_Jan_30_1543,60.018229946,FEMA4ImagesEEG,001,102906,
AFNE01.JPG,AFNE01.JPG,AFNE01.JPG,AFNE01.JPG,AFNE01.JPG,AFNE01.JPG,3,8,38,0,,,,,,,,,,,,,,,,,,,,,,,AFNE12.jpg,AFNE11.jpg,AFSA07.jpg,AFSA14.jpg,AFSA07.jpg,FS,4,num_2,16,num_2,1.48339644948,,,2018_Jan_30_1543,60.018229946,FEMA4ImagesEEG,001,102906,
AFNE01.JPG,AFNE01.JPG,AFNE01.JPG,AFNE01.JPG,AFNE01.JPG,AFNE01.JPG,3,9,39,6,,,,,,,,,,,,,,,,,,,,,,,AFSA02.jpg,AFSA08.jpg,AFNE01.jpg,AFNE13.jpg,AFNE13.jpg,FN,3,num_4,32,num_8,1.33345564187,,,2018_Jan_30_1543,60.018229946,FEMA4ImagesEEG,001,102906,
AFNE01.JPG,AFNE01.JPG,AFNE01.JPG,AFNE01.JPG,AFNE01.JPG,AFNE01.JPG,4,0,40,0,,,,,,,,,,,,,,,,,,,,,,,AFNE06.jpg,AFSA16.jpg,AFNE11.jpg,AFSA07.jpg,AFNE11.jpg,FN,3,num_2,16,num_2,1.23328395025,,,2018_Jan_30_1543,60.018229946,FEMA4ImagesEEG,001,102906,
AFNE01.JPG,AFNE01.JPG,AFNE01.JPG,AFNE01.JPG,AFNE01.JPG,AFNE01.JPG,4,1,41,9,,,,,,,,,,,,,,,,,,,,,,,AFSA07.jpg,AFSA09.jpg,AFNE08.jpg,AFNE06.jpg,AFNE08.jpg,FN,3,num_2,32,num_8,0.966738693998,,,2018_Jan_30_1543,60.018229946,FEMA4ImagesEEG,001,102906,
AFNE01.JPG,AFNE01.JPG,AFNE01.JPG,AFNE01.JPG,AFNE01.JPG,AFNE01.JPG,4,2,42,1,,,,,,,,,,,,,,,,,,,,,,,AFNE14.jpg,AFSA04.jpg,AFSA07.jpg,AFNE05.jpg,AFNE14.jpg,FN,3,num_8,16,num_8,1.20013939322,,,2018_Jan_30_1543,60.018229946,FEMA4ImagesEEG,001,102906,
AFNE01.JPG,AFNE01.JPG,AFNE01.JPG,AFNE01.JPG,AFNE01.JPG,AFNE01.JPG,4,3,43,2,,,,,,,,,,,,,,,,,,,,,,,AFSA03.jpg,AFNE05.jpg,AFSA19.jpg,AFNE16.jpg,AFSA03.jpg,FS,4,num_8,32,num_2,1.13343909173,,,2018_Jan_30_1543,60.018229946,FEMA4ImagesEEG,001,102906,
AFNE01.JPG,AFNE01.JPG,AFNE01.JPG,AFNE01.JPG,AFNE01.JPG,AFNE01.JPG,4,4,44,3,,,,,,,,,,,,,,,,,,,,,,,AFSA08.jpg,AFNE19.jpg,AFSA07.jpg,AFNE02.jpg,AFNE19.jpg,FN,3,num_6,16,num_6,1.06676188344,,,2018_Jan_30_1543,60.018229946,FEMA4ImagesEEG,001,102906,
AFNE01.JPG,AFNE01.JPG,AFNE01.JPG,AFNE01.JPG,AFNE01.JPG,AFNE01.JPG,4,5,45,6,,,,,,,,,,,,,,,,,,,,,,,AFSA05.jpg,AFNE20.jpg,AFNE10.jpg,AFSA01.jpg,AFNE10.jpg,FN,3,num_2,16,num_2,1.96669796016,,,2018_Jan_30_1543,60.018229946,FEMA4ImagesEEG,001,102906,
AFNE01.JPG,AFNE01.JPG,AFNE01.JPG,AFNE01.JPG,AFNE01.JPG,AFNE01.JPG,4,6,46,4,,,,,,,,,,,,,,,,,,,,,,,AFNE05.jpg,AFSA01.jpg,AFSA16.jpg,AFNE15.jpg,AFSA16.jpg,FS,4,num_2,16,num_2,0.866808839608,,,2018_Jan_30_1543,60.018229946,FEMA4ImagesEEG,001,102906,
AFNE01.JPG,AFNE01.JPG,AFNE01.JPG,AFNE01.JPG,AFNE01.JPG,AFNE01.JPG,4,7,47,8,,,,,,,,,,,,,,,,,,,,,,,AFSA11.jpg,AFNE12.jpg,AFSA10.jpg,AFNE07.jpg,AFSA10.jpg,FS,4,num_2,32,num_4,1.30035534699,,,2018_Jan_30_1543,60.018229946,FEMA4ImagesEEG,001,102906,
AFNE01.JPG,AFNE01.JPG,AFNE01.JPG,AFNE01.JPG,AFNE01.JPG,AFNE01.JPG,4,8,48,7,,,,,,,,,,,,,,,,,,,,,,,AFSA13.jpg,AFSA07.jpg,AFNE17.jpg,AFNE03.jpg,AFNE03.jpg,FN,3,num_4,16,num_4,0.916804397479,,,2018_Jan_30_1543,60.018229946,FEMA4ImagesEEG,001,102906,
AFNE01.JPG,AFNE01.JPG,AFNE01.JPG,AFNE01.JPG,AFNE01.JPG,AFNE01.JPG,4,9,49,5,,,,,,,,,,,,,,,,,,,,,,,AFSA10.jpg,AFNE18.jpg,AFNE16.jpg,AFSA12.jpg,AFSA12.jpg,FS,4,num_4,16,num_4,1.40007672086,,,2018_Jan_30_1543,60.018229946,FEMA4ImagesEEG,001,102906,
AFNE01.JPG,AFNE01.JPG,AFNE01.JPG,AFNE01.JPG,AFNE01.JPG,AFNE01.JPG,5,0,50,1,,,,,,,,,,,,,,,,,,,,,,,AFSA05.jpg,AFSA08.jpg,AFNE01.jpg,AFNE09.jpg,AFNE09.jpg,FN,3,num_4,16,num_4,0.900140387588,,,2018_Jan_30_1543,60.018229946,FEMA4ImagesEEG,001,102906,
AFNE01.JPG,AFNE01.JPG,AFNE01.JPG,AFNE01.JPG,AFNE01.JPG,AFNE01.JPG,5,1,51,5,,,,,,,,,,,,,,,,,,,,,,,AFNE16.jpg,AFSA18.jpg,AFSA03.jpg,AFNE05.jpg,AFSA18.jpg,FS,4,num_6,16,num_6,1.00015170965,,,2018_Jan_30_1543,60.018229946,FEMA4ImagesEEG,001,102906,
AFNE01.JPG,AFNE01.JPG,AFNE01.JPG,AFNE01.JPG,AFNE01.JPG,AFNE01.JPG,5,2,52,6,,,,,,,,,,,,,,,,,,,,,,,AFSA17.jpg,AFNE18.jpg,AFNE14.jpg,AFSA13.jpg,AFSA13.jpg,FS,4,num_4,32,num_2,1.71675032075,,,2018_Jan_30_1543,60.018229946,FEMA4ImagesEEG,001,102906,
AFNE01.JPG,AFNE01.JPG,AFNE01.JPG,AFNE01.JPG,AFNE01.JPG,AFNE01.JPG,5,3,53,8,,,,,,,,,,,,,,,,,,,,,,,AFNE06.jpg,AFSA17.jpg,AFNE09.jpg,AFSA12.jpg,AFSA12.jpg,FS,4,num_4,16,num_4,0.550186558045,,,2018_Jan_30_1543,60.018229946,FEMA4ImagesEEG,001,102906,
AFNE01.JPG,AFNE01.JPG,AFNE01.JPG,AFNE01.JPG,AFNE01.JPG,AFNE01.JPG,5,4,54,2,,,,,,,,,,,,,,,,,,,,,,,AFNE10.jpg,AFNE16.jpg,AFSA02.jpg,AFSA20.jpg,AFSA20.jpg,FS,4,num_4,32,num_6,1.2834501412,,,2018_Jan_30_1543,60.018229946,FEMA4ImagesEEG,001,102906,
AFNE01.JPG,AFNE01.JPG,AFNE01.JPG,AFNE01.JPG,AFNE01.JPG,AFNE01.JPG,5,5,55,3,,,,,,,,,,,,,,,,,,,,,,,AFSA01.jpg,AFNE20.jpg,AFSA20.jpg,AFNE03.jpg,AFSA20.jpg,FS,4,num_2,32,num_4,0.983469417668,,,2018_Jan_30_1543,60.018229946,FEMA4ImagesEEG,001,102906,
AFNE01.JPG,AFNE01.JPG,AFNE01.JPG,AFNE01.JPG,AFNE01.JPG,AFNE01.JPG,5,6,56,0,,,,,,,,,,,,,,,,,,,,,,,AFSA10.jpg,AFSA19.jpg,AFNE18.jpg,AFNE09.jpg,AFNE09.jpg,FN,3,num_4,16,num_4,1.33345692488,,,2018_Jan_30_1543,60.018229946,FEMA4ImagesEEG,001,102906,
AFNE01.JPG,AFNE01.JPG,AFNE01.JPG,AFNE01.JPG,AFNE01.JPG,AFNE01.JPG,5,7,57,4,,,,,,,,,,,,,,,,,,,,,,,AFNE11.jpg,AFSA07.jpg,AFNE12.jpg,AFSA08.jpg,AFNE11.jpg,FN,3,num_8,16,num_8,0.83346702822,,,2018_Jan_30_1543,60.018229946,FEMA4ImagesEEG,001,102906,
AFNE01.JPG,AFNE01.JPG,AFNE01.JPG,AFNE01.JPG,AFNE01.JPG,AFNE01.JPG,5,8,58,7,,,,,,,,,,,,,,,,,,,,,,,AFSA20.jpg,AFSA15.jpg,AFNE12.jpg,AFNE03.jpg,AFSA20.jpg,FS,4,num_8,16,num_8,1.21676363144,,,2018_Jan_30_1543,60.018229946,FEMA4ImagesEEG,001,102906,
AFNE01.JPG,AFNE01.JPG,AFNE01.JPG,AFNE01.JPG,AFNE01.JPG,AFNE01.JPG,5,9,59,9,,,,,,,,,,,,,,,,,,,,,,,AFNE12.jpg,AFNE04.jpg,AFSA09.jpg,AFSA17.jpg,AFSA09.jpg,FS,4,num_2,16,num_2,1.45008863637,,,2018_Jan_30_1543,60.018229946,FEMA4ImagesEEG,001,102906,
,,,,,,,,,,,,,,,,,,,,,,,,,,,,,,,,,,,,,,,,,,,space,4.73312919342,2018_Jan_30_1543,60.018229946,FEMA4ImagesEEG,001,102906,
AFNE01.JPG,AFNE01.JPG,AFNE01.JPG,AFNE01.JPG,AFNE01.JPG,AFNE01.JPG,,,,,0,0,0,6,,,,,,,,,,,,,,,,,,,AMSA15.jpg,AMNE04.jpg,AMNE08.jpg,AMSA04.jpg,AMSA04.jpg,MS,2,num_4,32,num_6,0.900138142402,,,2018_Jan_30_1543,60.018229946,FEMA4ImagesEEG,001,102906,
AFNE01.JPG,AFNE01.JPG,AFNE01.JPG,AFNE01.JPG,AFNE01.JPG,AFNE01.JPG,,,,,0,1,1,2,,,,,,,,,,,,,,,,,,,AMNE01.jpg,AMNE03.jpg,AMSA17.jpg,AMSA08.jpg,AMNE03.jpg,MN,1,num_6,32,num_8,1.18347955297,,,2018_Jan_30_1543,60.018229946,FEMA4ImagesEEG,001,102906,
AFNE01.JPG,AFNE01.JPG,AFNE01.JPG,AFNE01.JPG,AFNE01.JPG,AFNE01.JPG,,,,,0,2,2,0,,,,,,,,,,,,,,,,,,,AMNE14.jpg,AMNE06.jpg,AMSA14.jpg,AMSA03.jpg,AMNE14.jpg,MN,1,num_8,32,num_4,1.41676286166,,,2018_Jan_30_1543,60.018229946,FEMA4ImagesEEG,001,102906,
AFNE01.JPG,AFNE01.JPG,AFNE01.JPG,AFNE01.JPG,AFNE01.JPG,AFNE01.JPG,,,,,0,3,3,4,,,,,,,,,,,,,,,,,,,AMSA14.jpg,AMNE06.jpg,AMSA18.jpg,AMNE04.jpg,AMSA18.jpg,MS,2,num_2,16,num_2,1.11674685683,,,2018_Jan_30_1543,60.018229946,FEMA4ImagesEEG,001,102906,
AFNE01.JPG,AFNE01.JPG,AFNE01.JPG,AFNE01.JPG,AFNE01.JPG,AFNE01.JPG,,,,,0,4,4,7,,,,,,,,,,,,,,,,,,,AMNE16.jpg,AMSA04.jpg,AMNE12.jpg,AMSA06.jpg,AMSA06.jpg,MS,2,num_4,32,num_8,0.933509782655,,,2018_Jan_30_1543,60.018229946,FEMA4ImagesEEG,001,102906,
AFNE01.JPG,AFNE01.JPG,AFNE01.JPG,AFNE01.JPG,AFNE01.JPG,AFNE01.JPG,,,,,0,5,5,8,,,,,,,,,,,,,,,,,,,AMNE19.jpg,AMNE15.jpg,AMSA12.jpg,AMSA17.jpg,AMSA17.jpg,MS,2,num_4,32,num_8,1.03348389908,,,2018_Jan_30_1543,60.018229946,FEMA4ImagesEEG,001,102906,
AFNE01.JPG,AFNE01.JPG,AFNE01.JPG,AFNE01.JPG,AFNE01.JPG,AFNE01.JPG,,,,,0,6,6,9,,,,,,,,,,,,,,,,,,,AMSA18.jpg,AMNE13.jpg,AMNE14.jpg,AMSA07.jpg,AMNE14.jpg,MN,1,num_2,16,num_2,2.01670474373,,,2018_Jan_30_1543,60.018229946,FEMA4ImagesEEG,001,102906,
AFNE01.JPG,AFNE01.JPG,AFNE01.JPG,AFNE01.JPG,AFNE01.JPG,AFNE01.JPG,,,,,0,7,7,5,,,,,,,,,,,,,,,,,,,AMNE07.jpg,AMSA13.jpg,AMSA01.jpg,AMNE12.jpg,AMSA13.jpg,MS,2,num_6,32,num_4,1.53368997411,,,2018_Jan_30_1543,60.018229946,FEMA4ImagesEEG,001,102906,
AFNE01.JPG,AFNE01.JPG,AFNE01.JPG,AFNE01.JPG,AFNE01.JPG,AFNE01.JPG,,,,,0,8,8,3,,,,,,,,,,,,,,,,,,,AMNE14.jpg,AMNE09.jpg,AMSA01.jpg,AMSA14.jpg,AMSA01.jpg,MS,2,num_2,16,num_2,1.21676106565,,,2018_Jan_30_1543,60.018229946,FEMA4ImagesEEG,001,102906,
AFNE01.JPG,AFNE01.JPG,AFNE01.JPG,AFNE01.JPG,AFNE01.JPG,AFNE01.JPG,,,,,0,9,9,1,,,,,,,,,,,,,,,,,,,AMSA02.jpg,AMNE20.jpg,AMSA16.jpg,AMNE02.jpg,AMSA16.jpg,MS,2,num_2,32,num_6,1.33339598437,,,2018_Jan_30_1543,60.018229946,FEMA4ImagesEEG,001,102906,
AFNE01.JPG,AFNE01.JPG,AFNE01.JPG,AFNE01.JPG,AFNE01.JPG,AFNE01.JPG,,,,,1,0,10,9,,,,,,,,,,,,,,,,,,,AMNE11.jpg,AMSA08.jpg,AMNE06.jpg,AMSA10.jpg,AMNE11.jpg,MN,1,num_8,16,num_8,1.00012316392,,,2018_Jan_30_1543,60.018229946,FEMA4ImagesEEG,001,102906,
AFNE01.JPG,AFNE01.JPG,AFNE01.JPG,AFNE01.JPG,AFNE01.JPG,AFNE01.JPG,,,,,1,1,11,6,,,,,,,,,,,,,,,,,,,AMSA09.jpg,AMNE03.jpg,AMNE04.jpg,AMSA18.jpg,AMNE03.jpg,MN,1,num_6,32,num_4,0.866805632366,,,2018_Jan_30_1543,60.018229946,FEMA4ImagesEEG,001,102906,
AFNE01.JPG,AFNE01.JPG,AFNE01.JPG,AFNE01.JPG,AFNE01.JPG,AFNE01.JPG,,,,,1,2,12,2,,,,,,,,,,,,,,,,,,,AMNE08.jpg,AMSA20.jpg,AMNE17.jpg,AMSA11.jpg,AMNE08.jpg,MN,1,num_8,32,num_2,1.25006855803,,,2018_Jan_30_1543,60.018229946,FEMA4ImagesEEG,001,102906,
AFNE01.JPG,AFNE01.JPG,AFNE01.JPG,AFNE01.JPG,AFNE01.JPG,AFNE01.JPG,,,,,1,3,13,5,,,,,,,,,,,,,,,,,,,AMSA07.jpg,AMSA08.jpg,AMNE06.jpg,AMNE09.jpg,AMNE06.jpg,MN,1,num_2,32,num_8,1.01678043825,,,2018_Jan_30_1543,60.018229946,FEMA4ImagesEEG,001,102906,
AFNE01.JPG,AFNE01.JPG,AFNE01.JPG,AFNE01.JPG,AFNE01.JPG,AFNE01.JPG,,,,,1,4,14,1,,,,,,,,,,,,,,,,,,,AMSA03.jpg,AMSA11.jpg,AMNE08.jpg,AMNE05.jpg,AMNE05.jpg,MN,1,num_4,32,num_8,0.933436333435,,,2018_Jan_30_1543,60.018229946,FEMA4ImagesEEG,001,102906,
AFNE01.JPG,AFNE01.JPG,AFNE01.JPG,AFNE01.JPG,AFNE01.JPG,AFNE01.JPG,,,,,1,5,15,4,,,,,,,,,,,,,,,,,,,AMNE04.jpg,AMSA13.jpg,AMSA04.jpg,AMNE08.jpg,AMNE08.jpg,MN,1,num_4,16,num_4,1.1500809706,,,2018_Jan_30_1543,60.018229946,FEMA4ImagesEEG,001,102906,
AFNE01.JPG,AFNE01.JPG,AFNE01.JPG,AFNE01.JPG,AFNE01.JPG,AFNE01.JPG,,,,,1,6,16,0,,,,,,,,,,,,,,,,,,,AMSA06.jpg,AMNE02.jpg,AMSA16.jpg,AMNE12.jpg,AMNE12.jpg,MN,1,num_4,32,num_8,0.983429646003,,,2018_Jan_30_1543,60.018229946,FEMA4ImagesEEG,001,102906,
AFNE01.JPG,AFNE01.JPG,AFNE01.JPG,AFNE01.JPG,AFNE01.JPG,AFNE01.JPG,,,,,1,7,17,7,,,,,,,,,,,,,,,,,,,AMNE18.jpg,AMSA13.jpg,AMSA01.jpg,AMNE04.jpg,AMNE18.jpg,MN,1,num_8,32,num_2,1.70008791471,,,2018_Jan_30_1543,60.018229946,FEMA4ImagesEEG,001,102906,
AFNE01.JPG,AFNE01.JPG,AFNE01.JPG,AFNE01.JPG,AFNE01.JPG,AFNE01.JPG,,,,,1,8,18,8,,,,,,,,,,,,,,,,,,,AMSA10.jpg,AMNE19.jpg,AMSA16.jpg,AMNE07.jpg,AMNE19.jpg,MN,1,num_6,16,num_6,0.716823770083,,,2018_Jan_30_1543,60.018229946,FEMA4ImagesEEG,001,102906,
AFNE01.JPG,AFNE01.JPG,AFNE01.JPG,AFNE01.JPG,AFNE01.JPG,AFNE01.JPG,,,,,1,9,19,3,,,,,,,,,,,,,,,,,,,AMSA10.jpg,AMNE18.jpg,AMNE07.jpg,AMSA14.jpg,AMNE07.jpg,MN,1,num_2,16,num_2,1.41670897754,,,2018_Jan_30_1543,60.018229946,FEMA4ImagesEEG,001,102906,
AFNE01.JPG,AFNE01.JPG,AFNE01.JPG,AFNE01.JPG,AFNE01.JPG,AFNE01.JPG,,,,,2,0,20,9,,,,,,,,,,,,,,,,,,,AMSA12.jpg,AMSA01.jpg,AMNE09.jpg,AMNE03.jpg,AMNE03.jpg,MN,1,num_4,16,num_4,1.08346502355,,,2018_Jan_30_1543,60.018229946,FEMA4ImagesEEG,001,102906,
AFNE01.JPG,AFNE01.JPG,AFNE01.JPG,AFNE01.JPG,AFNE01.JPG,AFNE01.JPG,,,,,2,1,21,6,,,,,,,,,,,,,,,,,,,AMNE01.jpg,AMNE19.jpg,AMSA11.jpg,AMSA07.jpg,AMNE19.jpg,MN,1,num_6,16,num_6,0.783451905241,,,2018_Jan_30_1543,60.018229946,FEMA4ImagesEEG,001,102906,
AFNE01.JPG,AFNE01.JPG,AFNE01.JPG,AFNE01.JPG,AFNE01.JPG,AFNE01.JPG,,,,,2,2,22,4,,,,,,,,,,,,,,,,,,,AMSA05.jpg,AMNE03.jpg,AMSA20.jpg,AMNE10.jpg,AMSA05.jpg,MS,2,num_8,16,num_8,1.35021459055,,,2018_Jan_30_1543,60.018229946,FEMA4ImagesEEG,001,102906,
AFNE01.JPG,AFNE01.JPG,AFNE01.JPG,AFNE01.JPG,AFNE01.JPG,AFNE01.JPG,,,,,2,3,23,8,,,,,,,,,,,,,,,,,,,AMNE05.jpg,AMSA18.jpg,AMNE04.jpg,AMSA17.jpg,AMSA18.jpg,MS,2,num_6,16,num_6,1.25006631284,,,2018_Jan_30_1543,60.018229946,FEMA4ImagesEEG,001,102906,
AFNE01.JPG,AFNE01.JPG,AFNE01.JPG,AFNE01.JPG,AFNE01.JPG,AFNE01.JPG,,,,,2,4,24,3,,,,,,,,,,,,,,,,,,,AMSA01.jpg,AMSA07.jpg,AMNE14.jpg,AMNE01.jpg,AMSA01.jpg,MS,2,num_8,16,num_8,0.899968471378,,,2018_Jan_30_1543,60.018229946,FEMA4ImagesEEG,001,102906,
AFNE01.JPG,AFNE01.JPG,AFNE01.JPG,AFNE01.JPG,AFNE01.JPG,AFNE01.JPG,,,,,2,5,25,0,,,,,,,,,,,,,,,,,,,AMSA03.jpg,AMSA02.jpg,AMNE18.jpg,AMNE08.jpg,AMNE08.jpg,MN,1,num_4,16,num_4,1.4666862532,,,2018_Jan_30_1543,60.018229946,FEMA4ImagesEEG,001,102906,
AFNE01.JPG,AFNE01.JPG,AFNE01.JPG,AFNE01.JPG,AFNE01.JPG,AFNE01.JPG,,,,,2,6,26,2,,,,,,,,,,,,,,,,,,,AMSA12.jpg,AMSA09.jpg,AMNE01.jpg,AMNE11.jpg,AMSA12.jpg,MS,2,num_8,32,num_6,1.13317897229,,,2018_Jan_30_1543,60.018229946,FEMA4ImagesEEG,001,102906,
AFNE01.JPG,AFNE01.JPG,AFNE01.JPG,AFNE01.JPG,AFNE01.JPG,AFNE01.JPG,,,,,2,7,27,7,,,,,,,,,,,,,,,,,,,AMSA02.jpg,AMNE05.jpg,AMNE13.jpg,AMSA04.jpg,AMSA04.jpg,MS,2,num_4,32,num_8,1.0834461,,,2018_Jan_30_1543,60.018229946,FEMA4ImagesEEG,001,102906,
AFNE01.JPG,AFNE01.JPG,AFNE01.JPG,AFNE01.JPG,AFNE01.JPG,AFNE01.JPG,,,,,2,8,28,5,,,,,,,,,,,,,,,,,,,AMNE04.jpg,AMSA01.jpg,AMNE08.jpg,AMSA10.jpg,AMNE08.jpg,MN,1,num_2,16,num_2,1.25009421725,,,2018_Jan_30_1543,60.018229946,FEMA4ImagesEEG,001,102906,
AFNE01.JPG,AFNE01.JPG,AFNE01.JPG,AFNE01.JPG,AFNE01.JPG,AFNE01.JPG,,,,,2,9,29,1,,,,,,,,,,,,,,,,,,,AMSA16.jpg,AMSA14.jpg,AMNE01.jpg,AMNE10.jpg,AMNE10.jpg,MN,1,num_4,16,num_4,1.03345599468,,,2018_Jan_30_1543,60.018229946,FEMA4ImagesEEG,001,102906,
AFNE01.JPG,AFNE01.JPG,AFNE01.JPG,AFNE01.JPG,AFNE01.JPG,AFNE01.JPG,,,,,3,0,30,7,,,,,,,,,,,,,,,,,,,AMSA15.jpg,AMNE13.jpg,AMNE06.jpg,AMSA03.jpg,AMSA15.jpg,MS,2,num_8,32,num_2,2.51662792673,,,2018_Jan_30_1543,60.018229946,FEMA4ImagesEEG,001,102906,
AFNE01.JPG,AFNE01.JPG,AFNE01.JPG,AFNE01.JPG,AFNE01.JPG,AFNE01.JPG,,,,,3,1,31,1,,,,,,,,,,,,,,,,,,,AMSA13.jpg,AMNE03.jpg,AMNE02.jpg,AMSA02.jpg,AMSA13.jpg,MS,2,num_8,16,num_8,0.91675307916,,,2018_Jan_30_1543,60.018229946,FEMA4ImagesEEG,001,102906,
AFNE01.JPG,AFNE01.JPG,AFNE01.JPG,AFNE01.JPG,AFNE01.JPG,AFNE01.JPG,,,,,3,2,32,3,,,,,,,,,,,,,,,,,,,AMNE20.jpg,AMNE04.jpg,AMSA01.jpg,AMSA02.jpg,AMSA01.jpg,MS,2,num_2,16,num_2,1.36679617048,,,2018_Jan_30_1543,60.018229946,FEMA4ImagesEEG,001,102906,
AFNE01.JPG,AFNE01.JPG,AFNE01.JPG,AFNE01.JPG,AFNE01.JPG,AFNE01.JPG,,,,,3,3,33,6,,,,,,,,,,,,,,,,,,,AMNE10.jpg,AMSA12.jpg,AMNE05.jpg,AMSA17.jpg,AMNE05.jpg,MN,1,num_2,32,num_8,1.1168231928,,,2018_Jan_30_1543,60.018229946,FEMA4ImagesEEG,001,102906,
AFNE01.JPG,AFNE01.JPG,AFNE01.JPG,AFNE01.JPG,AFNE01.JPG,AFNE01.JPG,,,,,3,4,34,9,,,,,,,,,,,,,,,,,,,AMSA14.jpg,AMSA01.jpg,AMNE11.jpg,AMNE09.jpg,AMNE09.jpg,MN,1,num_4,16,num_4,1.15019226715,,,2018_Jan_30_1543,60.018229946,FEMA4ImagesEEG,001,102906,
AFNE01.JPG,AFNE01.JPG,AFNE01.JPG,AFNE01.JPG,AFNE01.JPG,AFNE01.JPG,,,,,3,5,35,4,,,,,,,,,,,,,,,,,,,AMSA10.jpg,AMNE02.jpg,AMSA12.jpg,AMNE10.jpg,AMNE10.jpg,MN,1,num_4,32,num_8,0.983466210193,,,2018_Jan_30_1543,60.018229946,FEMA4ImagesEEG,001,102906,
AFNE01.JPG,AFNE01.JPG,AFNE01.JPG,AFNE01.JPG,AFNE01.JPG,AFNE01.JPG,,,,,3,6,36,2,,,,,,,,,,,,,,,,,,,AMNE17.jpg,AMSA12.jpg,AMSA13.jpg,AMNE01.jpg,AMSA12.jpg,MS,2,num_6,16,num_6,0.666878247634,,,2018_Jan_30_1543,60.018229946,FEMA4ImagesEEG,001,102906,
AFNE01.JPG,AFNE01.JPG,AFNE01.JPG,AFNE01.JPG,AFNE01.JPG,AFNE01.JPG,,,,,3,7,37,0,,,,,,,,,,,,,,,,,,,AMNE09.jpg,AMSA19.jpg,AMSA17.jpg,AMNE01.jpg,AMSA17.jpg,MS,2,num_2,32,num_8,1.28355085338,,,2018_Jan_30_1543,60.018229946,FEMA4ImagesEEG,001,102906,
AFNE01.JPG,AFNE01.JPG,AFNE01.JPG,AFNE01.JPG,AFNE01.JPG,AFNE01.JPG,,,,,3,8,38,5,,,,,,,,,,,,,,,,,,,AMSA09.jpg,AMNE14.jpg,AMSA03.jpg,AMNE13.jpg,AMSA03.jpg,MS,2,num_2,16,num_2,1.23344592343,,,2018_Jan_30_1543,60.018229946,FEMA4ImagesEEG,001,102906,
AFNE01.JPG,AFNE01.JPG,AFNE01.JPG,AFNE01.JPG,AFNE01.JPG,AFNE01.JPG,,,,,3,9,39,8,,,,,,,,,,,,,,,,,,,AMSA01.jpg,AMNE12.jpg,AMNE14.jpg,AMSA17.jpg,AMSA01.jpg,MS,2,num_8,16,num_8,0.933442427544,,,2018_Jan_30_1543,60.018229946,FEMA4ImagesEEG,001,102906,
AFNE01.JPG,AFNE01.JPG,AFNE01.JPG,AFNE01.JPG,AFNE01.JPG,AFNE01.JPG,,,,,4,0,40,8,,,,,,,,,,,,,,,,,,,AMNE12.jpg,AMSA06.jpg,AMSA19.jpg,AMNE05.jpg,AMSA06.jpg,MS,2,num_6,16,num_6,1.06682891794,,,2018_Jan_30_1543,60.018229946,FEMA4ImagesEEG,001,102906,
AFNE01.JPG,AFNE01.JPG,AFNE01.JPG,AFNE01.JPG,AFNE01.JPG,AFNE01.JPG,,,,,4,1,41,4,,,,,,,,,,,,,,,,,,,AMSA04.jpg,AMNE09.jpg,AMNE01.jpg,AMSA01.jpg,AMNE01.jpg,MN,1,num_2,32,num_8,2.50000593369,,,2018_Jan_30_1543,60.018229946,FEMA4ImagesEEG,001,102906,
AFNE01.JPG,AFNE01.JPG,AFNE01.JPG,AFNE01.JPG,AFNE01.JPG,AFNE01.JPG,,,,,4,2,42,5,,,,,,,,,,,,,,,,,,,AMSA19.jpg,AMNE20.jpg,AMSA02.jpg,AMNE07.jpg,AMSA02.jpg,MS,2,num_2,16,num_2,0.93348893465,,,2018_Jan_30_1543,60.018229946,FEMA4ImagesEEG,001,102906,
AFNE01.JPG,AFNE01.JPG,AFNE01.JPG,AFNE01.JPG,AFNE01.JPG,AFNE01.JPG,,,,,4,3,43,3,,,,,,,,,,,,,,,,,,,AMNE10.jpg,AMSA16.jpg,AMNE01.jpg,AMSA10.jpg,AMSA16.jpg,MS,2,num_6,32,num_4,1.11673883838,,,2018_Jan_30_1543,60.018229946,FEMA4ImagesEEG,001,102906,
AFNE01.JPG,AFNE01.JPG,AFNE01.JPG,AFNE01.JPG,AFNE01.JPG,AFNE01.JPG,,,,,4,4,44,7,,,,,,,,,,,,,,,,,,,AMNE18.jpg,AMSA07.jpg,AMSA08.jpg,AMNE19.jpg,AMNE19.jpg,MN,1,num_4,16,num_4,0.783453508979,,,2018_Jan_30_1543,60.018229946,FEMA4ImagesEEG,001,102906,
AFNE01.JPG,AFNE01.JPG,AFNE01.JPG,AFNE01.JPG,AFNE01.JPG,AFNE01.JPG,,,,,4,5,45,9,,,,,,,,,,,,,,,,,,,AMNE09.jpg,AMSA05.jpg,AMNE13.jpg,AMSA08.jpg,AMSA08.jpg,MS,2,num_4,16,num_4,1.5834218841,,,2018_Jan_30_1543,60.018229946,FEMA4ImagesEEG,001,102906,
AFNE01.JPG,AFNE01.JPG,AFNE01.JPG,AFNE01.JPG,AFNE01.JPG,AFNE01.JPG,,,,,4,6,46,1,,,,,,,,,,,,,,,,,,,AMNE15.jpg,AMSA19.jpg,AMSA02.jpg,AMNE17.jpg,AMSA02.jpg,MS,2,num_2,16,num_2,0.783453188254,,,2018_Jan_30_1543,60.018229946,FEMA4ImagesEEG,001,102906,
AFNE01.JPG,AFNE01.JPG,AFNE01.JPG,AFNE01.JPG,AFNE01.JPG,AFNE01.JPG,,,,,4,7,47,6,,,,,,,,,,,,,,,,,,,AMSA12.jpg,AMNE14.jpg,AMNE19.jpg,AMSA05.jpg,AMNE14.jpg,MN,1,num_6,16,num_6,0.466804606025,,,2018_Jan_30_1543,60.018229946,FEMA4ImagesEEG,001,102906,
AFNE01.JPG,AFNE01.JPG,AFNE01.JPG,AFNE01.JPG,AFNE01.JPG,AFNE01.JPG,,,,,4,8,48,0,,,,,,,,,,,,,,,,,,,AMNE05.jpg,AMSA20.jpg,AMSA18.jpg,AMNE02.jpg,AMSA20.jpg,MS,2,num_6,32,num_8,1.00012252247,,,2018_Jan_30_1543,60.018229946,FEMA4ImagesEEG,001,102906,
AFNE01.JPG,AFNE01.JPG,AFNE01.JPG,AFNE01.JPG,AFNE01.JPG,AFNE01.JPG,,,,,4,9,49,2,,,,,,,,,,,,,,,,,,,AMNE01.jpg,AMNE08.jpg,AMSA07.jpg,AMSA02.jpg,AMSA07.jpg,MS,2,num_2,32,num_6,1.21670686069,,,2018_Jan_30_1543,60.018229946,FEMA4ImagesEEG,001,102906,
AFNE01.JPG,AFNE01.JPG,AFNE01.JPG,AFNE01.JPG,AFNE01.JPG,AFNE01.JPG,,,,,5,0,50,3,,,,,,,,,,,,,,,,,,,AMSA09.jpg,AMNE20.jpg,AMSA19.jpg,AMNE05.jpg,AMNE20.jpg,MN,1,num_6,16,num_6,1.18340225494,,,2018_Jan_30_1543,60.018229946,FEMA4ImagesEEG,001,102906,
AFNE01.JPG,AFNE01.JPG,AFNE01.JPG,AFNE01.JPG,AFNE01.JPG,AFNE01.JPG,,,,,5,1,51,4,,,,,,,,,,,,,,,,,,,AMNE16.jpg,AMNE14.jpg,AMSA01.jpg,AMSA06.jpg,AMNE16.jpg,MN,1,num_8,16,num_8,0.833454198553,,,2018_Jan_30_1543,60.018229946,FEMA4ImagesEEG,001,102906,
AFNE01.JPG,AFNE01.JPG,AFNE01.JPG,AFNE01.JPG,AFNE01.JPG,AFNE01.JPG,,,,,5,2,52,2,,,,,,,,,,,,,,,,,,,AMNE02.jpg,AMNE05.jpg,AMSA19.jpg,AMSA08.jpg,AMNE02.jpg,MN,1,num_8,16,num_8,0.733497081441,,,2018_Jan_30_1543,60.018229946,FEMA4ImagesEEG,001,102906,
AFNE01.JPG,AFNE01.JPG,AFNE01.JPG,AFNE01.JPG,AFNE01.JPG,AFNE01.JPG,,,,,5,3,53,7,,,,,,,,,,,,,,,,,,,AMNE09.jpg,AMSA18.jpg,AMNE10.jpg,AMSA19.jpg,AMNE10.jpg,MN,1,num_2,16,num_2,0.783467621543,,,2018_Jan_30_1543,60.018229946,FEMA4ImagesEEG,001,102906,
AFNE01.JPG,AFNE01.JPG,AFNE01.JPG,AFNE01.JPG,AFNE01.JPG,AFNE01.JPG,,,,,5,4,54,1,,,,,,,,,,,,,,,,,,,AMSA05.jpg,AMNE13.jpg,AMSA06.jpg,AMNE07.jpg,AMNE07.jpg,MN,1,num_4,32,num_2,1.08341306378,,,2018_Jan_30_1543,60.018229946,FEMA4ImagesEEG,001,102906,
AFNE01.JPG,AFNE01.JPG,AFNE01.JPG,AFNE01.JPG,AFNE01.JPG,AFNE01.JPG,,,,,5,5,55,6,,,,,,,,,,,,,,,,,,,AMNE07.jpg,AMSA19.jpg,AMNE20.jpg,AMSA02.jpg,AMSA02.jpg,MS,2,num_4,16,num_4,0.716781432624,,,2018_Jan_30_1543,60.018229946,FEMA4ImagesEEG,001,102906,
AFNE01.JPG,AFNE01.JPG,AFNE01.JPG,AFNE01.JPG,AFNE01.JPG,AFNE01.JPG,,,,,5,6,56,5,,,,,,,,,,,,,,,,,,,AMSA15.jpg,AMSA11.jpg,AMNE20.jpg,AMNE10.jpg,AMSA11.jpg,MS,2,num_6,32,num_2,1.68339343462,,,2018_Jan_30_1543,60.018229946,FEMA4ImagesEEG,001,102906,
AFNE01.JPG,AFNE01.JPG,AFNE01.JPG,AFNE01.JPG,AFNE01.JPG,AFNE01.JPG,,,,,5,7,57,9,,,,,,,,,,,,,,,,,,,AMSA20.jpg,AMSA11.jpg,AMNE19.jpg,AMNE15.jpg,AMNE15.jpg,MN,1,num_4,16,num_4,0.983501170878,,,2018_Jan_30_1543,60.018229946,FEMA4ImagesEEG,001,102906,
AFNE01.JPG,AFNE01.JPG,AFNE01.JPG,AFNE01.JPG,AFNE01.JPG,AFNE01.JPG,,,,,5,8,58,8,,,,,,,,,,,,,,,,,,,AMSA17.jpg,AMNE10.jpg,AMSA11.jpg,AMNE02.jpg,AMNE10.jpg,MN,1,num_6,16,num_6,0.533530566609,,,2018_Jan_30_1543,60.018229946,FEMA4ImagesEEG,001,102906,
AFNE01.JPG,AFNE01.JPG,AFNE01.JPG,AFNE01.JPG,AFNE01.JPG,AFNE01.JPG,,,,,5,9,59,0,,,,,,,,,,,,,,,,,,,AMSA15.jpg,AMNE06.jpg,AMSA08.jpg,AMNE02.jpg,AMSA15.jpg,MS,2,num_8,16,num_8,1.08344642073,,,2018_Jan_30_1543,60.018229946,FEMA4ImagesEEG,001,102906,
,,,,,,,,,,,,,,,,,,,,,,,,,,,,,,,,,,,,,,,,,,,space,33.8977941797,2018_Jan_30_1543,60.018229946,FEMA4ImagesEEG,001,102906,
AFNE01.JPG,AFNE01.JPG,AFNE01.JPG,AFNE01.JPG,AFNE01.JPG,AFNE01.JPG,,,,,,,,,0,0,0,2,,,,,,,,,,,,,,,AFNE16.jpg,AFSA18.jpg,AFNE06.jpg,AFSA06.jpg,AFNE16.jpg,FN,3,num_8,16,num_8,0.983442154829,,,2018_Jan_30_1543,60.018229946,FEMA4ImagesEEG,001,102906,
AFNE01.JPG,AFNE01.JPG,AFNE01.JPG,AFNE01.JPG,AFNE01.JPG,AFNE01.JPG,,,,,,,,,0,1,1,9,,,,,,,,,,,,,,,AFNE13.jpg,AFSA02.jpg,AFSA03.jpg,AFNE11.jpg,AFNE11.jpg,FN,3,num_4,16,num_4,0.966566777788,,,2018_Jan_30_1543,60.018229946,FEMA4ImagesEEG,001,102906,
AFNE01.JPG,AFNE01.JPG,AFNE01.JPG,AFNE01.JPG,AFNE01.JPG,AFNE01.JPG,,,,,,,,,0,2,2,4,,,,,,,,,,,,,,,AFSA10.jpg,AFNE10.jpg,AFSA07.jpg,AFNE12.jpg,AFNE12.jpg,FN,3,num_4,16,num_4,0.800141574349,,,2018_Jan_30_1543,60.018229946,FEMA4ImagesEEG,001,102906,
AFNE01.JPG,AFNE01.JPG,AFNE01.JPG,AFNE01.JPG,AFNE01.JPG,AFNE01.JPG,,,,,,,,,0,3,3,3,,,,,,,,,,,,,,,AFNE06.jpg,AFSA02.jpg,AFSA04.jpg,AFNE04.jpg,AFNE06.jpg,FN,3,num_8,16,num_8,1.58338756498,,,2018_Jan_30_1543,60.018229946,FEMA4ImagesEEG,001,102906,
AFNE01.JPG,AFNE01.JPG,AFNE01.JPG,AFNE01.JPG,AFNE01.JPG,AFNE01.JPG,,,,,,,,,0,4,4,5,,,,,,,,,,,,,,,AFNE20.jpg,AFSA13.jpg,AFSA07.jpg,AFNE16.jpg,AFNE16.jpg,FN,3,num_4,32,num_2,2.05034612585,,,2018_Jan_30_1543,60.018229946,FEMA4ImagesEEG,001,102906,
AFNE01.JPG,AFNE01.JPG,AFNE01.JPG,AFNE01.JPG,AFNE01.JPG,AFNE01.JPG,,,,,,,,,0,5,5,7,,,,,,,,,,,,,,,AFNE17.jpg,AFNE04.jpg,AFSA16.jpg,AFSA15.jpg,AFNE04.jpg,FN,3,num_6,32,num_4,1.15009829053,,,2018_Jan_30_1543,60.018229946,FEMA4ImagesEEG,001,102906,
AFNE01.JPG,AFNE01.JPG,AFNE01.JPG,AFNE01.JPG,AFNE01.JPG,AFNE01.JPG,,,,,,,,,0,6,6,6,,,,,,,,,,,,,,,AFSA08.jpg,AFNE11.jpg,AFNE10.jpg,AFSA16.jpg,AFSA16.jpg,FS,4,num_4,16,num_4,1.26674475602,,,2018_Jan_30_1543,60.018229946,FEMA4ImagesEEG,001,102906,
AFNE01.JPG,AFNE01.JPG,AFNE01.JPG,AFNE01.JPG,AFNE01.JPG,AFNE01.JPG,,,,,,,,,0,7,7,8,,,,,,,,,,,,,,,AFSA09.jpg,AFSA11.jpg,AFNE03.jpg,AFNE14.jpg,AFSA09.jpg,FS,4,num_8,16,num_8,1.2167398968,,,2018_Jan_30_1543,60.018229946,FEMA4ImagesEEG,001,102906,
AFNE01.JPG,AFNE01.JPG,AFNE01.JPG,AFNE01.JPG,AFNE01.JPG,AFNE01.JPG,,,,,,,,,0,8,8,0,,,,,,,,,,,,,,,AFNE11.jpg,AFNE13.jpg,AFSA17.jpg,AFSA03.jpg,AFNE11.jpg,FN,3,num_8,32,num_2,1.33344377461,,,2018_Jan_30_1543,60.018229946,FEMA4ImagesEEG,001,102906,
AFNE01.JPG,AFNE01.JPG,AFNE01.JPG,AFNE01.JPG,AFNE01.JPG,AFNE01.JPG,,,,,,,,,0,9,9,1,,,,,,,,,,,,,,,AFSA13.jpg,AFSA14.jpg,AFNE16.jpg,AFNE07.jpg,AFSA14.jpg,FS,4,num_6,16,num_6,0.883459699224,,,2018_Jan_30_1543,60.018229946,FEMA4ImagesEEG,001,102906,
AFNE01.JPG,AFNE01.JPG,AFNE01.JPG,AFNE01.JPG,AFNE01.JPG,AFNE01.JPG,,,,,,,,,1,0,10,5,,,,,,,,,,,,,,,AFNE18.jpg,AFNE01.jpg,AFSA13.jpg,AFSA02.jpg,AFSA13.jpg,FS,4,num_2,16,num_2,1.56671425363,,,2018_Jan_30_1543,60.018229946,FEMA4ImagesEEG,001,102906,
AFNE01.JPG,AFNE01.JPG,AFNE01.JPG,AFNE01.JPG,AFNE01.JPG,AFNE01.JPG,,,,,,,,,1,1,11,9,,,,,,,,,,,,,,,AFSA17.jpg,AFNE12.jpg,AFSA09.jpg,AFNE02.jpg,AFNE12.jpg,FN,3,num_6,16,num_6,0.883466114057,,,2018_Jan_30_1543,60.018229946,FEMA4ImagesEEG,001,102906,
AFNE01.JPG,AFNE01.JPG,AFNE01.JPG,AFNE01.JPG,AFNE01.JPG,AFNE01.JPG,,,,,,,,,1,2,12,0,,,,,,,,,,,,,,,AFSA08.jpg,AFNE06.jpg,AFNE13.jpg,AFSA20.jpg,AFNE13.jpg,FN,3,num_2,16,num_2,0.683505693334,,,2018_Jan_30_1543,60.018229946,FEMA4ImagesEEG,001,102906,
AFNE01.JPG,AFNE01.JPG,AFNE01.JPG,AFNE01.JPG,AFNE01.JPG,AFNE01.JPG,,,,,,,,,1,3,13,1,,,,,,,,,,,,,,,AFNE07.jpg,AFSA04.jpg,AFNE02.jpg,AFSA05.jpg,AFNE02.jpg,FN,3,num_2,16,num_2,1.28345751821,,,2018_Jan_30_1543,60.018229946,FEMA4ImagesEEG,001,102906,
AFNE01.JPG,AFNE01.JPG,AFNE01.JPG,AFNE01.JPG,AFNE01.JPG,AFNE01.JPG,,,,,,,,,1,4,14,6,,,,,,,,,,,,,,,AFNE15.jpg,AFSA07.jpg,AFSA13.jpg,AFNE09.jpg,AFNE09.jpg,FN,3,num_4,16,num_4,0.866745012579,,,2018_Jan_30_1543,60.018229946,FEMA4ImagesEEG,001,102906,
AFNE01.JPG,AFNE01.JPG,AFNE01.JPG,AFNE01.JPG,AFNE01.JPG,AFNE01.JPG,,,,,,,,,1,5,15,3,,,,,,,,,,,,,,,AFNE02.jpg,AFSA05.jpg,AFNE19.jpg,AFSA15.jpg,AFSA15.jpg,FS,4,num_4,16,num_4,1.0334393162,,,2018_Jan_30_1543,60.018229946,FEMA4ImagesEEG,001,102906,
AFNE01.JPG,AFNE01.JPG,AFNE01.JPG,AFNE01.JPG,AFNE01.JPG,AFNE01.JPG,,,,,,,,,1,6,16,8,,,,,,,,,,,,,,,AFNE08.jpg,AFSA08.jpg,AFNE11.jpg,AFSA02.jpg,AFSA08.jpg,FS,4,num_6,32,num_4,1.23363323521,,,2018_Jan_30_1543,60.018229946,FEMA4ImagesEEG,001,102906,
AFNE01.JPG,AFNE01.JPG,AFNE01.JPG,AFNE01.JPG,AFNE01.JPG,AFNE01.JPG,,,,,,,,,1,7,17,2,,,,,,,,,,,,,,,AFSA08.jpg,AFNE11.jpg,AFNE18.jpg,AFSA19.jpg,AFSA19.jpg,FS,4,num_4,16,num_4,0.950119266869,,,2018_Jan_30_1543,60.018229946,FEMA4ImagesEEG,001,102906,
AFNE01.JPG,AFNE01.JPG,AFNE01.JPG,AFNE01.JPG,AFNE01.JPG,AFNE01.JPG,,,,,,,,,1,8,18,4,,,,,,,,,,,,,,,AFSA11.jpg,AFSA09.jpg,AFNE04.jpg,AFNE06.jpg,AFSA09.jpg,FS,4,num_6,16,num_6,3.86653140013,,,2018_Jan_30_1543,60.018229946,FEMA4ImagesEEG,001,102906,
AFNE01.JPG,AFNE01.JPG,AFNE01.JPG,AFNE01.JPG,AFNE01.JPG,AFNE01.JPG,,,,,,,,,1,9,19,7,,,,,,,,,,,,,,,AFNE01.jpg,AFSA19.jpg,AFNE08.jpg,AFSA20.jpg,AFNE01.jpg,FN,3,num_8,32,num_4,1.03344316513,,,2018_Jan_30_1543,60.018229946,FEMA4ImagesEEG,001,102906,
AFNE01.JPG,AFNE01.JPG,AFNE01.JPG,AFNE01.JPG,AFNE01.JPG,AFNE01.JPG,,,,,,,,,2,0,20,9,,,,,,,,,,,,,,,AFNE18.jpg,AFSA12.jpg,AFNE13.jpg,AFSA01.jpg,AFSA01.jpg,FS,4,num_4,16,num_4,0.716806771001,,,2018_Jan_30_1543,60.018229946,FEMA4ImagesEEG,001,102906,
AFNE01.JPG,AFNE01.JPG,AFNE01.JPG,AFNE01.JPG,AFNE01.JPG,AFNE01.JPG,,,,,,,,,2,1,21,8,,,,,,,,,,,,,,,AFSA17.jpg,AFNE16.jpg,AFSA05.jpg,AFNE12.jpg,AFNE16.jpg,FN,3,num_6,16,num_6,0.916614519781,,,2018_Jan_30_1543,60.018229946,FEMA4ImagesEEG,001,102906,
AFNE01.JPG,AFNE01.JPG,AFNE01.JPG,AFNE01.JPG,AFNE01.JPG,AFNE01.JPG,,,,,,,,,2,2,22,3,,,,,,,,,,,,,,,AFSA19.jpg,AFSA08.jpg,AFNE02.jpg,AFNE14.jpg,AFNE14.jpg,FN,3,num_4,16,num_4,0.716774055501,,,2018_Jan_30_1543,60.018229946,FEMA4ImagesEEG,001,102906,
AFNE01.JPG,AFNE01.JPG,AFNE01.JPG,AFNE01.JPG,AFNE01.JPG,AFNE01.JPG,,,,,,,,,2,3,23,4,,,,,,,,,,,,,,,AFSA16.jpg,AFNE15.jpg,AFSA13.jpg,AFNE19.jpg,AFSA13.jpg,FS,4,num_2,16,num_2,0.883455850417,,,2018_Jan_30_1543,60.018229946,FEMA4ImagesEEG,001,102906,
AFNE01.JPG,AFNE01.JPG,AFNE01.JPG,AFNE01.JPG,AFNE01.JPG,AFNE01.JPG,,,,,,,,,2,4,24,1,,,,,,,,,,,,,,,AFNE15.jpg,AFSA18.jpg,AFSA15.jpg,AFNE01.jpg,AFNE01.jpg,FN,3,num_4,32,num_6,1.15012010082,,,2018_Jan_30_1543,60.018229946,FEMA4ImagesEEG,001,102906,
AFNE01.JPG,AFNE01.JPG,AFNE01.JPG,AFNE01.JPG,AFNE01.JPG,AFNE01.JPG,,,,,,,,,2,5,25,0,,,,,,,,,,,,,,,AFNE14.jpg,AFSA17.jpg,AFSA13.jpg,AFNE18.jpg,AFSA13.jpg,FS,4,num_2,32,num_4,0.933498877566,,,2018_Jan_30_1543,60.018229946,FEMA4ImagesEEG,001,102906,
AFNE01.JPG,AFNE01.JPG,AFNE01.JPG,AFNE01.JPG,AFNE01.JPG,AFNE01.JPG,,,,,,,,,2,6,26,2,,,,,,,,,,,,,,,AFSA13.jpg,AFSA02.jpg,AFNE13.jpg,AFNE02.jpg,AFSA13.jpg,FS,4,num_8,32,num_2,1.60006472515,,,2018_Jan_30_1543,60.018229946,FEMA4ImagesEEG,001,102906,
AFNE01.JPG,AFNE01.JPG,AFNE01.JPG,AFNE01.JPG,AFNE01.JPG,AFNE01.JPG,,,,,,,,,2,7,27,7,,,,,,,,,,,,,,,AFSA20.jpg,AFSA01.jpg,AFNE13.jpg,AFNE04.jpg,AFSA20.jpg,FS,4,num_8,16,num_8,0.633504362195,,,2018_Jan_30_1543,60.018229946,FEMA4ImagesEEG,001,102906,
AFNE01.JPG,AFNE01.JPG,AFNE01.JPG,AFNE01.JPG,AFNE01.JPG,AFNE01.JPG,,,,,,,,,2,8,28,5,,,,,,,,,,,,,,,AFNE05.jpg,AFSA01.jpg,AFNE06.jpg,AFSA05.jpg,AFNE05.jpg,FN,3,num_8,32,num_4,1.26672262501,,,2018_Jan_30_1543,60.018229946,FEMA4ImagesEEG,001,102906,
AFNE01.JPG,AFNE01.JPG,AFNE01.JPG,AFNE01.JPG,AFNE01.JPG,AFNE01.JPG,,,,,,,,,2,9,29,6,,,,,,,,,,,,,,,AFSA15.jpg,AFNE05.jpg,AFSA13.jpg,AFNE15.jpg,AFSA15.jpg,FS,4,num_8,16,num_8,0.866748861503,,,2018_Jan_30_1543,60.018229946,FEMA4ImagesEEG,001,102906,
AFNE01.JPG,AFNE01.JPG,AFNE01.JPG,AFNE01.JPG,AFNE01.JPG,AFNE01.JPG,,,,,,,,,3,0,30,7,,,,,,,,,,,,,,,AFNE08.jpg,AFNE02.jpg,AFSA06.jpg,AFSA20.jpg,AFNE08.jpg,FN,3,num_8,32,num_4,1.06675578933,,,2018_Jan_30_1543,60.018229946,FEMA4ImagesEEG,001,102906,
AFNE01.JPG,AFNE01.JPG,AFNE01.JPG,AFNE01.JPG,AFNE01.JPG,AFNE01.JPG,,,,,,,,,3,1,31,5,,,,,,,,,,,,,,,AFNE14.jpg,AFNE03.jpg,AFSA14.jpg,AFSA10.jpg,AFSA10.jpg,FS,4,num_4,32,num_8,0.750180656323,,,2018_Jan_30_1543,60.018229946,FEMA4ImagesEEG,001,102906,
AFNE01.JPG,AFNE01.JPG,AFNE01.JPG,AFNE01.JPG,AFNE01.JPG,AFNE01.JPG,,,,,,,,,3,2,32,8,,,,,,,,,,,,,,,AFNE20.jpg,AFSA14.jpg,AFSA10.jpg,AFNE04.jpg,AFNE20.jpg,FN,3,num_8,32,num_4,1.10011492088,,,2018_Jan_30_1543,60.018229946,FEMA4ImagesEEG,001,102906,
AFNE01.JPG,AFNE01.JPG,AFNE01.JPG,AFNE01.JPG,AFNE01.JPG,AFNE01.JPG,,,,,,,,,3,3,33,2,,,,,,,,,,,,,,,AFNE01.jpg,AFSA06.jpg,AFSA14.jpg,AFNE19.jpg,AFSA14.jpg,FS,4,num_2,32,num_8,1.4834015813,,,2018_Jan_30_1543,60.018229946,FEMA4ImagesEEG,001,102906,
AFNE01.JPG,AFNE01.JPG,AFNE01.JPG,AFNE01.JPG,AFNE01.JPG,AFNE01.JPG,,,,,,,,,3,4,34,1,,,,,,,,,,,,,,,AFNE01.jpg,AFSA12.jpg,AFNE16.jpg,AFSA09.jpg,AFNE16.jpg,FN,3,num_2,16,num_2,0.683445715113,,,2018_Jan_30_1543,60.018229946,FEMA4ImagesEEG,001,102906,
AFNE01.JPG,AFNE01.JPG,AFNE01.JPG,AFNE01.JPG,AFNE01.JPG,AFNE01.JPG,,,,,,,,,3,5,35,0,,,,,,,,,,,,,,,AFNE20.jpg,AFNE19.jpg,AFSA15.jpg,AFSA03.jpg,AFSA03.jpg,FS,4,num_4,16,num_4,0.500165982638,,,2018_Jan_30_1543,60.018229946,FEMA4ImagesEEG,001,102906,
AFNE01.JPG,AFNE01.JPG,AFNE01.JPG,AFNE01.JPG,AFNE01.JPG,AFNE01.JPG,,,,,,,,,3,6,36,3,,,,,,,,,,,,,,,AFNE06.jpg,AFNE03.jpg,AFSA11.jpg,AFSA04.jpg,AFNE03.jpg,FN,3,num_6,16,num_6,1.0001061646,,,2018_Jan_30_1543,60.018229946,FEMA4ImagesEEG,001,102906,
AFNE01.JPG,AFNE01.JPG,AFNE01.JPG,AFNE01.JPG,AFNE01.JPG,AFNE01.JPG,,,,,,,,,3,7,37,4,,,,,,,,,,,,,,,AFSA12.jpg,AFNE13.jpg,AFNE07.jpg,AFSA11.jpg,AFSA12.jpg,FS,4,num_8,16,num_8,0.950382273179,,,2018_Jan_30_1543,60.018229946,FEMA4ImagesEEG,001,102906,
AFNE01.JPG,AFNE01.JPG,AFNE01.JPG,AFNE01.JPG,AFNE01.JPG,AFNE01.JPG,,,,,,,,,3,8,38,9,,,,,,,,,,,,,,,AFSA09.jpg,AFSA14.jpg,AFNE17.jpg,AFNE18.jpg,AFNE17.jpg,FN,3,num_2,16,num_2,0.83349589468,,,2018_Jan_30_1543,60.018229946,FEMA4ImagesEEG,001,102906,
AFNE01.JPG,AFNE01.JPG,AFNE01.JPG,AFNE01.JPG,AFNE01.JPG,AFNE01.JPG,,,,,,,,,3,9,39,6,,,,,,,,,,,,,,,AFSA15.jpg,AFSA11.jpg,AFNE08.jpg,AFNE19.jpg,AFSA11.jpg,FS,4,num_6,16,num_6,0.500139681972,,,2018_Jan_30_1543,60.018229946,FEMA4ImagesEEG,001,102906,
AFNE01.JPG,AFNE01.JPG,AFNE01.JPG,AFNE01.JPG,AFNE01.JPG,AFNE01.JPG,,,,,,,,,4,0,40,7,,,,,,,,,,,,,,,AFNE07.jpg,AFSA07.jpg,AFSA19.jpg,AFNE08.jpg,AFNE07.jpg,FN,3,num_8,16,num_8,0.800124575151,,,2018_Jan_30_1543,60.018229946,FEMA4ImagesEEG,001,102906,
AFNE01.JPG,AFNE01.JPG,AFNE01.JPG,AFNE01.JPG,AFNE01.JPG,AFNE01.JPG,,,,,,,,,4,1,41,8,,,,,,,,,,,,,,,AFSA11.jpg,AFNE16.jpg,AFSA12.jpg,AFNE07.jpg,AFSA12.jpg,FS,4,num_2,16,num_2,0.850110831438,,,2018_Jan_30_1543,60.018229946,FEMA4ImagesEEG,001,102906,
AFNE01.JPG,AFNE01.JPG,AFNE01.JPG,AFNE01.JPG,AFNE01.JPG,AFNE01.JPG,,,,,,,,,4,2,42,6,,,,,,,,,,,,,,,AFNE03.jpg,AFSA07.jpg,AFNE16.jpg,AFSA18.jpg,AFNE16.jpg,FN,3,num_2,16,num_2,1.25005540764,,,2018_Jan_30_1543,60.018229946,FEMA4ImagesEEG,001,102906,
AFNE01.JPG,AFNE01.JPG,AFNE01.JPG,AFNE01.JPG,AFNE01.JPG,AFNE01.JPG,,,,,,,,,4,3,43,5,,,,,,,,,,,,,,,AFNE10.jpg,AFSA02.jpg,AFNE12.jpg,AFSA18.jpg,AFNE10.jpg,FN,3,num_8,16,num_8,0.766913946019,,,2018_Jan_30_1543,60.018229946,FEMA4ImagesEEG,001,102906,
AFNE01.JPG,AFNE01.JPG,AFNE01.JPG,AFNE01.JPG,AFNE01.JPG,AFNE01.JPG,,,,,,,,,4,4,44,0,,,,,,,,,,,,,,,AFNE18.jpg,AFNE15.jpg,AFSA07.jpg,AFSA06.jpg,AFNE18.jpg,FN,3,num_8,16,num_8,0.900114728487,,,2018_Jan_30_1543,60.018229946,FEMA4ImagesEEG,001,102906,
AFNE01.JPG,AFNE01.JPG,AFNE01.JPG,AFNE01.JPG,AFNE01.JPG,AFNE01.JPG,,,,,,,,,4,5,45,2,,,,,,,,,,,,,,,AFSA01.jpg,AFNE13.jpg,AFSA12.jpg,AFNE03.jpg,AFSA01.jpg,FS,4,num_8,32,num_4,0.733521778369,,,2018_Jan_30_1543,60.018229946,FEMA4ImagesEEG,001,102906,
AFNE01.JPG,AFNE01.JPG,AFNE01.JPG,AFNE01.JPG,AFNE01.JPG,AFNE01.JPG,,,,,,,,,4,6,46,4,,,,,,,,,,,,,,,AFNE07.jpg,AFSA10.jpg,AFNE16.jpg,AFSA02.jpg,AFSA02.jpg,FS,4,num_4,16,num_4,0.583473202423,,,2018_Jan_30_1543,60.018229946,FEMA4ImagesEEG,001,102906,
AFNE01.JPG,AFNE01.JPG,AFNE01.JPG,AFNE01.JPG,AFNE01.JPG,AFNE01.JPG,,,,,,,,,4,7,47,9,,,,,,,,,,,,,,,AFNE05.jpg,AFNE07.jpg,AFSA16.jpg,AFSA01.jpg,AFNE07.jpg,FN,3,num_6,16,num_6,0.550172445481,,,2018_Jan_30_1543,60.018229946,FEMA4ImagesEEG,001,102906,
AFNE01.JPG,AFNE01.JPG,AFNE01.JPG,AFNE01.JPG,AFNE01.JPG,AFNE01.JPG,,,,,,,,,4,8,48,1,,,,,,,,,,,,,,,AFSA05.jpg,AFSA14.jpg,AFNE16.jpg,AFNE10.jpg,AFNE16.jpg,FN,3,num_2,16,num_2,0.866880043875,,,2018_Jan_30_1543,60.018229946,FEMA4ImagesEEG,001,102906,
AFNE01.JPG,AFNE01.JPG,AFNE01.JPG,AFNE01.JPG,AFNE01.JPG,AFNE01.JPG,,,,,,,,,4,9,49,3,,,,,,,,,,,,,,,AFNE04.jpg,AFSA07.jpg,AFSA19.jpg,AFNE15.jpg,AFNE15.jpg,FN,3,num_4,16,num_4,0.850139056565,,,2018_Jan_30_1543,60.018229946,FEMA4ImagesEEG,001,102906,
AFNE01.JPG,AFNE01.JPG,AFNE01.JPG,AFNE01.JPG,AFNE01.JPG,AFNE01.JPG,,,,,,,,,5,0,50,1,,,,,,,,,,,,,,,AFSA16.jpg,AFNE17.jpg,AFNE20.jpg,AFSA17.jpg,AFSA17.jpg,FS,4,num_4,32,num_6,0.733445763122,,,2018_Jan_30_1543,60.018229946,FEMA4ImagesEEG,001,102906,
AFNE01.JPG,AFNE01.JPG,AFNE01.JPG,AFNE01.JPG,AFNE01.JPG,AFNE01.JPG,,,,,,,,,5,1,51,8,,,,,,,,,,,,,,,AFSA06.jpg,AFNE10.jpg,AFNE04.jpg,AFSA18.jpg,AFNE04.jpg,FN,3,num_2,16,num_2,0.983470700681,,,2018_Jan_30_1543,60.018229946,FEMA4ImagesEEG,001,102906,
AFNE01.JPG,AFNE01.JPG,AFNE01.JPG,AFNE01.JPG,AFNE01.JPG,AFNE01.JPG,,,,,,,,,5,2,52,3,,,,,,,,,,,,,,,AFSA16.jpg,AFNE08.jpg,AFSA14.jpg,AFNE04.jpg,AFSA14.jpg,FS,4,num_2,32,num_8,1.01675349614,,,2018_Jan_30_1543,60.018229946,FEMA4ImagesEEG,001,102906,
AFNE01.JPG,AFNE01.JPG,AFNE01.JPG,AFNE01.JPG,AFNE01.JPG,AFNE01.JPG,,,,,,,,,5,3,53,4,,,,,,,,,,,,,,,AFSA01.jpg,AFSA02.jpg,AFNE17.jpg,AFNE05.jpg,AFSA02.jpg,FS,4,num_6,32,num_2,0.733462120756,,,2018_Jan_30_1543,60.018229946,FEMA4ImagesEEG,001,102906,
AFNE01.JPG,AFNE01.JPG,AFNE01.JPG,AFNE01.JPG,AFNE01.JPG,AFNE01.JPG,,,,,,,,,5,4,54,7,,,,,,,,,,,,,,,AFNE06.jpg,AFSA02.jpg,AFNE10.jpg,AFSA10.jpg,AFNE10.jpg,FN,3,num_2,32,num_4,0.750168147497,,,2018_Jan_30_1543,60.018229946,FEMA4ImagesEEG,001,102906,
AFNE01.JPG,AFNE01.JPG,AFNE01.JPG,AFNE01.JPG,AFNE01.JPG,AFNE01.JPG,,,,,,,,,5,5,55,9,,,,,,,,,,,,,,,AFNE16.jpg,AFSA05.jpg,AFSA09.jpg,AFNE18.jpg,AFNE18.jpg,FN,3,num_4,32,num_2,1.11672729172,,,2018_Jan_30_1543,60.018229946,FEMA4ImagesEEG,001,102906,
AFNE01.JPG,AFNE01.JPG,AFNE01.JPG,AFNE01.JPG,AFNE01.JPG,AFNE01.JPG,,,,,,,,,5,6,56,5,,,,,,,,,,,,,,,AFSA07.jpg,AFSA05.jpg,AFNE08.jpg,AFNE16.jpg,AFSA07.jpg,FS,4,num_8,16,num_8,0.716752565932,,,2018_Jan_30_1543,60.018229946,FEMA4ImagesEEG,001,102906,
AFNE01.JPG,AFNE01.JPG,AFNE01.JPG,AFNE01.JPG,AFNE01.JPG,AFNE01.JPG,,,,,,,,,5,7,57,0,,,,,,,,,,,,,,,AFNE13.jpg,AFSA05.jpg,AFNE11.jpg,AFSA12.jpg,AFNE11.jpg,FN,3,num_2,16,num_2,0.466800115653,,,2018_Jan_30_1543,60.018229946,FEMA4ImagesEEG,001,102906,
AFNE01.JPG,AFNE01.JPG,AFNE01.JPG,AFNE01.JPG,AFNE01.JPG,AFNE01.JPG,,,,,,,,,5,8,58,6,,,,,,,,,,,,,,,AFNE08.jpg,AFSA20.jpg,AFNE02.jpg,AFSA08.jpg,AFNE08.jpg,FN,3,num_8,16,num_8,0.716778545873,,,2018_Jan_30_1543,60.018229946,FEMA4ImagesEEG,001,102906,
AFNE01.JPG,AFNE01.JPG,AFNE01.JPG,AFNE01.JPG,AFNE01.JPG,AFNE01.JPG,,,,,,,,,5,9,59,2,,,,,,,,,,,,,,,AFNE04.jpg,AFNE10.jpg,AFSA09.jpg,AFSA08.jpg,AFSA08.jpg,FS,4,num_4,32,num_6,0.966775899753,,,2018_Jan_30_1543,60.018229946,FEMA4ImagesEEG,001,102906,
,,,,,,,,,,,,,,,,,,,,,,,,,,,,,,,,,,,,,,,,,,,space,31.264657064,2018_Jan_30_1543,60.018229946,FEMA4ImagesEEG,001,102906,
AFNE01.JPG,AFNE01.JPG,AFNE01.JPG,AFNE01.JPG,AFNE01.JPG,AFNE01.JPG,,,,,,,,,,,,,0,0,0,0,,,,,,,,,,,AMNE10.jpg,AMSA20.jpg,AMNE02.jpg,AMSA07.jpg,AMSA07.jpg,MS,2,num_4,16,num_4,0.716785602155,,,2018_Jan_30_1543,60.018229946,FEMA4ImagesEEG,001,102906,
AFNE01.JPG,AFNE01.JPG,AFNE01.JPG,AFNE01.JPG,AFNE01.JPG,AFNE01.JPG,,,,,,,,,,,,,0,1,1,6,,,,,,,,,,,AMNE04.jpg,AMSA09.jpg,AMSA08.jpg,AMNE07.jpg,AMSA09.jpg,MS,2,num_6,16,num_6,0.816739511909,,,2018_Jan_30_1543,60.018229946,FEMA4ImagesEEG,001,102906,
AFNE01.JPG,AFNE01.JPG,AFNE01.JPG,AFNE01.JPG,AFNE01.JPG,AFNE01.JPG,,,,,,,,,,,,,0,2,2,2,,,,,,,,,,,AMSA10.jpg,AMNE06.jpg,AMNE13.jpg,AMSA03.jpg,AMSA10.jpg,MS,2,num_8,16,num_8,0.716876371414,,,2018_Jan_30_1543,60.018229946,FEMA4ImagesEEG,001,102906,
AFNE01.JPG,AFNE01.JPG,AFNE01.JPG,AFNE01.JPG,AFNE01.JPG,AFNE01.JPG,,,,,,,,,,,,,0,3,3,7,,,,,,,,,,,AMNE18.jpg,AMNE19.jpg,AMSA13.jpg,AMSA07.jpg,AMSA13.jpg,MS,2,num_2,16,num_2,0.75010849,,,2018_Jan_30_1543,60.018229946,FEMA4ImagesEEG,001,102906,
AFNE01.JPG,AFNE01.JPG,AFNE01.JPG,AFNE01.JPG,AFNE01.JPG,AFNE01.JPG,,,,,,,,,,,,,0,4,4,5,,,,,,,,,,,AMSA09.jpg,AMNE14.jpg,AMNE05.jpg,AMSA15.jpg,AMNE14.jpg,MN,1,num_6,16,num_6,0.450161764864,,,2018_Jan_30_1543,60.018229946,FEMA4ImagesEEG,001,102906,
AFNE01.JPG,AFNE01.JPG,AFNE01.JPG,AFNE01.JPG,AFNE01.JPG,AFNE01.JPG,,,,,,,,,,,,,0,5,5,9,,,,,,,,,,,AMNE12.jpg,AMSA06.jpg,AMNE14.jpg,AMSA08.jpg,AMSA06.jpg,MS,2,num_6,16,num_6,0.666813137592,,,2018_Jan_30_1543,60.018229946,FEMA4ImagesEEG,001,102906,
AFNE01.JPG,AFNE01.JPG,AFNE01.JPG,AFNE01.JPG,AFNE01.JPG,AFNE01.JPG,,,,,,,,,,,,,0,6,6,3,,,,,,,,,,,AMSA08.jpg,AMSA05.jpg,AMNE05.jpg,AMNE15.jpg,AMNE05.jpg,MN,1,num_2,32,num_4,0.800107896677,,,2018_Jan_30_1543,60.018229946,FEMA4ImagesEEG,001,102906,
AFNE01.JPG,AFNE01.JPG,AFNE01.JPG,AFNE01.JPG,AFNE01.JPG,AFNE01.JPG,,,,,,,,,,,,,0,7,7,4,,,,,,,,,,,AMNE09.jpg,AMNE19.jpg,AMSA19.jpg,AMSA13.jpg,AMSA19.jpg,MS,2,num_2,16,num_2,0.800246135332,,,2018_Jan_30_1543,60.018229946,FEMA4ImagesEEG,001,102906,
AFNE01.JPG,AFNE01.JPG,AFNE01.JPG,AFNE01.JPG,AFNE01.JPG,AFNE01.JPG,,,,,,,,,,,,,0,8,8,1,,,,,,,,,,,AMNE08.jpg,AMSA12.jpg,AMSA03.jpg,AMNE15.jpg,AMSA12.jpg,MS,2,num_6,16,num_6,0.766762877698,,,2018_Jan_30_1543,60.018229946,FEMA4ImagesEEG,001,102906,
AFNE01.JPG,AFNE01.JPG,AFNE01.JPG,AFNE01.JPG,AFNE01.JPG,AFNE01.JPG,,,,,,,,,,,,,0,9,9,8,,,,,,,,,,,AMNE08.jpg,AMSA16.jpg,AMSA09.jpg,AMNE17.jpg,AMNE08.jpg,MN,1,num_8,32,num_6,0.716747113387,,,2018_Jan_30_1543,60.018229946,FEMA4ImagesEEG,001,102906,
AFNE01.JPG,AFNE01.JPG,AFNE01.JPG,AFNE01.JPG,AFNE01.JPG,AFNE01.JPG,,,,,,,,,,,,,1,0,10,7,,,,,,,,,,,AMSA12.jpg,AMNE16.jpg,AMSA06.jpg,AMNE20.jpg,AMNE20.jpg,MN,1,num_4,32,num_6,0.966773013119,,,2018_Jan_30_1543,60.018229946,FEMA4ImagesEEG,001,102906,
AFNE01.JPG,AFNE01.JPG,AFNE01.JPG,AFNE01.JPG,AFNE01.JPG,AFNE01.JPG,,,,,,,,,,,,,1,1,11,1,,,,,,,,,,,AMNE16.jpg,AMNE11.jpg,AMSA13.jpg,AMSA11.jpg,AMSA11.jpg,MS,2,num_4,16,num_4,0.800134197343,,,2018_Jan_30_1543,60.018229946,FEMA4ImagesEEG,001,102906,
AFNE01.JPG,AFNE01.JPG,AFNE01.JPG,AFNE01.JPG,AFNE01.JPG,AFNE01.JPG,,,,,,,,,,,,,1,2,12,5,,,,,,,,,,,AMNE13.jpg,AMSA09.jpg,AMSA14.jpg,AMNE01.jpg,AMNE13.jpg,MN,1,num_8,16,num_8,0.95015037863,,,2018_Jan_30_1543,60.018229946,FEMA4ImagesEEG,001,102906,
AFNE01.JPG,AFNE01.JPG,AFNE01.JPG,AFNE01.JPG,AFNE01.JPG,AFNE01.JPG,,,,,,,,,,,,,1,3,13,6,,,,,,,,,,,AMSA09.jpg,AMNE01.jpg,AMNE19.jpg,AMSA17.jpg,AMNE19.jpg,MN,1,num_2,32,num_4,0.716808374738,,,2018_Jan_30_1543,60.018229946,FEMA4ImagesEEG,001,102906,
AFNE01.JPG,AFNE01.JPG,AFNE01.JPG,AFNE01.JPG,AFNE01.JPG,AFNE01.JPG,,,,,,,,,,,,,1,4,14,4,,,,,,,,,,,AMSA13.jpg,AMNE02.jpg,AMNE03.jpg,AMSA10.jpg,AMNE03.jpg,MN,1,num_2,16,num_2,0.633500192547,,,2018_Jan_30_1543,60.018229946,FEMA4ImagesEEG,001,102906,
AFNE01.JPG,AFNE01.JPG,AFNE01.JPG,AFNE01.JPG,AFNE01.JPG,AFNE01.JPG,,,,,,,,,,,,,1,5,15,2,,,,,,,,,,,AMNE17.jpg,AMNE19.jpg,AMSA09.jpg,AMSA16.jpg,AMNE17.jpg,MN,1,num_8,32,num_6,0.716759943054,,,2018_Jan_30_1543,60.018229946,FEMA4ImagesEEG,001,102906,
AFNE01.JPG,AFNE01.JPG,AFNE01.JPG,AFNE01.JPG,AFNE01.JPG,AFNE01.JPG,,,,,,,,,,,,,1,6,16,8,,,,,,,,,,,AMNE17.jpg,AMSA09.jpg,AMSA03.jpg,AMNE01.jpg,AMNE01.jpg,MN,1,num_4,16,num_4,0.933480916196,,,2018_Jan_30_1543,60.018229946,FEMA4ImagesEEG,001,102906,
AFNE01.JPG,AFNE01.JPG,AFNE01.JPG,AFNE01.JPG,AFNE01.JPG,AFNE01.JPG,,,,,,,,,,,,,1,7,17,9,,,,,,,,,,,AMSA09.jpg,AMSA04.jpg,AMNE14.jpg,AMNE10.jpg,AMNE10.jpg,MN,1,num_4,32,num_8,0.916765267262,,,2018_Jan_30_1543,60.018229946,FEMA4ImagesEEG,001,102906,
AFNE01.JPG,AFNE01.JPG,AFNE01.JPG,AFNE01.JPG,AFNE01.JPG,AFNE01.JPG,,,,,,,,,,,,,1,8,18,3,,,,,,,,,,,AMNE20.jpg,AMSA19.jpg,AMSA01.jpg,AMNE12.jpg,AMSA01.jpg,MS,2,num_2,16,num_2,1.01670185709,,,2018_Jan_30_1543,60.018229946,FEMA4ImagesEEG,001,102906,
AFNE01.JPG,AFNE01.JPG,AFNE01.JPG,AFNE01.JPG,AFNE01.JPG,AFNE01.JPG,,,,,,,,,,,,,1,9,19,0,,,,,,,,,,,AMNE06.jpg,AMSA19.jpg,AMSA08.jpg,AMNE08.jpg,AMNE06.jpg,MN,1,num_8,32,num_6,0.950134341721,,,2018_Jan_30_1543,60.018229946,FEMA4ImagesEEG,001,102906,
AFNE01.JPG,AFNE01.JPG,AFNE01.JPG,AFNE01.JPG,AFNE01.JPG,AFNE01.JPG,,,,,,,,,,,,,2,0,20,7,,,,,,,,,,,AMSA19.jpg,AMNE04.jpg,AMSA07.jpg,AMNE17.jpg,AMNE17.jpg,MN,1,num_4,32,num_2,1.81680365978,,,2018_Jan_30_1543,60.018229946,FEMA4ImagesEEG,001,102906,
AFNE01.JPG,AFNE01.JPG,AFNE01.JPG,AFNE01.JPG,AFNE01.JPG,AFNE01.JPG,,,,,,,,,,,,,2,1,21,3,,,,,,,,,,,AMNE01.jpg,AMSA15.jpg,AMSA13.jpg,AMNE15.jpg,AMSA15.jpg,MS,2,num_6,16,num_6,0.600083969533,,,2018_Jan_30_1543,60.018229946,FEMA4ImagesEEG,001,102906,
AFNE01.JPG,AFNE01.JPG,AFNE01.JPG,AFNE01.JPG,AFNE01.JPG,AFNE01.JPG,,,,,,,,,,,,,2,2,22,2,,,,,,,,,,,AMNE12.jpg,AMNE17.jpg,AMSA11.jpg,AMSA13.jpg,AMSA11.jpg,MS,2,num_2,32,num_4,0.716825053096,,,2018_Jan_30_1543,60.018229946,FEMA4ImagesEEG,001,102906,
AFNE01.JPG,AFNE01.JPG,AFNE01.JPG,AFNE01.JPG,AFNE01.JPG,AFNE01.JPG,,,,,,,,,,,,,2,3,23,8,,,,,,,,,,,AMNE10.jpg,AMNE12.jpg,AMSA18.jpg,AMSA01.jpg,AMSA18.jpg,MS,2,num_2,16,num_2,0.583512653247,,,2018_Jan_30_1543,60.018229946,FEMA4ImagesEEG,001,102906,
AFNE01.JPG,AFNE01.JPG,AFNE01.JPG,AFNE01.JPG,AFNE01.JPG,AFNE01.JPG,,,,,,,,,,,,,2,4,24,9,,,,,,,,,,,AMNE06.jpg,AMSA17.jpg,AMNE05.jpg,AMSA16.jpg,AMNE05.jpg,MN,1,num_2,32,num_6,0.60014715523,,,2018_Jan_30_1543,60.018229946,FEMA4ImagesEEG,001,102906,
AFNE01.JPG,AFNE01.JPG,AFNE01.JPG,AFNE01.JPG,AFNE01.JPG,AFNE01.JPG,,,,,,,,,,,,,2,5,25,6,,,,,,,,,,,AMNE16.jpg,AMSA16.jpg,AMSA12.jpg,AMNE02.jpg,AMNE16.jpg,MN,1,num_8,32,num_6,0.666802232387,,,2018_Jan_30_1543,60.018229946,FEMA4ImagesEEG,001,102906,
AFNE01.JPG,AFNE01.JPG,AFNE01.JPG,AFNE01.JPG,AFNE01.JPG,AFNE01.JPG,,,,,,,,,,,,,2,6,26,1,,,,,,,,,,,AMSA06.jpg,AMSA20.jpg,AMNE12.jpg,AMNE01.jpg,AMSA20.jpg,MS,2,num_6,32,num_2,1.21672097314,,,2018_Jan_30_1543,60.018229946,FEMA4ImagesEEG,001,102906,
AFNE01.JPG,AFNE01.JPG,AFNE01.JPG,AFNE01.JPG,AFNE01.JPG,AFNE01.JPG,,,,,,,,,,,,,2,7,27,4,,,,,,,,,,,AMSA16.jpg,AMNE03.jpg,AMSA10.jpg,AMNE12.jpg,AMSA10.jpg,MS,2,num_2,32,num_4,0.766821893863,,,2018_Jan_30_1543,60.018229946,FEMA4ImagesEEG,001,102906,
AFNE01.JPG,AFNE01.JPG,AFNE01.JPG,AFNE01.JPG,AFNE01.JPG,AFNE01.JPG,,,,,,,,,,,,,2,8,28,5,,,,,,,,,,,AMNE12.jpg,AMNE01.jpg,AMSA11.jpg,AMSA01.jpg,AMSA01.jpg,MS,2,num_4,16,num_4,0.700113253086,,,2018_Jan_30_1543,60.018229946,FEMA4ImagesEEG,001,102906,
AFNE01.JPG,AFNE01.JPG,AFNE01.JPG,AFNE01.JPG,AFNE01.JPG,AFNE01.JPG,,,,,,,,,,,,,2,9,29,0,,,,,,,,,,,AMNE04.jpg,AMSA08.jpg,AMSA07.jpg,AMNE08.jpg,AMNE08.jpg,MN,1,num_4,32,num_6,0.550125938258,,,2018_Jan_30_1543,60.018229946,FEMA4ImagesEEG,001,102906,
AFNE01.JPG,AFNE01.JPG,AFNE01.JPG,AFNE01.JPG,AFNE01.JPG,AFNE01.JPG,,,,,,,,,,,,,3,0,30,1,,,,,,,,,,,AMSA13.jpg,AMNE04.jpg,AMSA15.jpg,AMNE20.jpg,AMNE04.jpg,MN,1,num_6,32,num_4,0.633496664464,,,2018_Jan_30_1543,60.018229946,FEMA4ImagesEEG,001,102906,
AFNE01.JPG,AFNE01.JPG,AFNE01.JPG,AFNE01.JPG,AFNE01.JPG,AFNE01.JPG,,,,,,,,,,,,,3,1,31,8,,,,,,,,,,,AMSA17.jpg,AMSA20.jpg,AMNE11.jpg,AMNE10.jpg,AMNE10.jpg,MN,1,num_4,32,num_6,0.933446917799,,,2018_Jan_30_1543,60.018229946,FEMA4ImagesEEG,001,102906,
AFNE01.JPG,AFNE01.JPG,AFNE01.JPG,AFNE01.JPG,AFNE01.JPG,AFNE01.JPG,,,,,,,,,,,,,3,2,32,7,,,,,,,,,,,AMSA18.jpg,AMSA09.jpg,AMNE19.jpg,AMNE05.jpg,AMNE05.jpg,MN,1,num_4,16,num_4,0.733458913513,,,2018_Jan_30_1543,60.018229946,FEMA4ImagesEEG,001,102906,
AFNE01.JPG,AFNE01.JPG,AFNE01.JPG,AFNE01.JPG,AFNE01.JPG,AFNE01.JPG,,,,,,,,,,,,,3,3,33,0,,,,,,,,,,,AMSA03.jpg,AMNE19.jpg,AMSA01.jpg,AMNE08.jpg,AMNE19.jpg,MN,1,num_6,16,num_6,0.583541519823,,,2018_Jan_30_1543,60.018229946,FEMA4ImagesEEG,001,102906,
AFNE01.JPG,AFNE01.JPG,AFNE01.JPG,AFNE01.JPG,AFNE01.JPG,AFNE01.JPG,,,,,,,,,,,,,3,4,34,4,,,,,,,,,,,AMSA03.jpg,AMNE06.jpg,AMNE05.jpg,AMSA08.jpg,AMNE05.jpg,MN,1,num_2,16,num_2,1.03348614415,,,2018_Jan_30_1543,60.018229946,FEMA4ImagesEEG,001,102906,
AFNE01.JPG,AFNE01.JPG,AFNE01.JPG,AFNE01.JPG,AFNE01.JPG,AFNE01.JPG,,,,,,,,,,,,,3,5,35,6,,,,,,,,,,,AMSA02.jpg,AMNE01.jpg,AMNE16.jpg,AMSA19.jpg,AMNE16.jpg,MN,1,num_2,16,num_2,0.866772596142,,,2018_Jan_30_1543,60.018229946,FEMA4ImagesEEG,001,102906,
AFNE01.JPG,AFNE01.JPG,AFNE01.JPG,AFNE01.JPG,AFNE01.JPG,AFNE01.JPG,,,,,,,,,,,,,3,6,36,2,,,,,,,,,,,AMSA18.jpg,AMNE03.jpg,AMNE20.jpg,AMSA15.jpg,AMSA18.jpg,MS,2,num_8,32,num_4,0.583520030254,,,2018_Jan_30_1543,60.018229946,FEMA4ImagesEEG,001,102906,
AFNE01.JPG,AFNE01.JPG,AFNE01.JPG,AFNE01.JPG,AFNE01.JPG,AFNE01.JPG,,,,,,,,,,,,,3,7,37,5,,,,,,,,,,,AMSA14.jpg,AMSA11.jpg,AMNE07.jpg,AMNE01.jpg,AMSA11.jpg,MS,2,num_6,32,num_8,0.616634116974,,,2018_Jan_30_1543,60.018229946,FEMA4ImagesEEG,001,102906,
AFNE01.JPG,AFNE01.JPG,AFNE01.JPG,AFNE01.JPG,AFNE01.JPG,AFNE01.JPG,,,,,,,,,,,,,3,8,38,9,,,,,,,,,,,AMSA12.jpg,AMNE15.jpg,AMSA08.jpg,AMNE13.jpg,AMNE13.jpg,MN,1,num_4,16,num_4,0.583571348689,,,2018_Jan_30_1543,60.018229946,FEMA4ImagesEEG,001,102906,
AFNE01.JPG,AFNE01.JPG,AFNE01.JPG,AFNE01.JPG,AFNE01.JPG,AFNE01.JPG,,,,,,,,,,,,,3,9,39,3,,,,,,,,,,,AMNE06.jpg,AMSA12.jpg,AMSA06.jpg,AMNE01.jpg,AMNE01.jpg,MN,1,num_4,16,num_4,0.716783677693,,,2018_Jan_30_1543,60.018229946,FEMA4ImagesEEG,001,102906,
AFNE01.JPG,AFNE01.JPG,AFNE01.JPG,AFNE01.JPG,AFNE01.JPG,AFNE01.JPG,,,,,,,,,,,,,4,0,40,0,,,,,,,,,,,AMNE11.jpg,AMSA07.jpg,AMSA05.jpg,AMNE12.jpg,AMSA07.jpg,MS,2,num_6,16,num_6,0.533444929169,,,2018_Jan_30_1543,60.018229946,FEMA4ImagesEEG,001,102906,
AFNE01.JPG,AFNE01.JPG,AFNE01.JPG,AFNE01.JPG,AFNE01.JPG,AFNE01.JPG,,,,,,,,,,,,,4,1,41,3,,,,,,,,,,,AMSA14.jpg,AMSA12.jpg,AMNE10.jpg,AMNE15.jpg,AMNE15.jpg,MN,1,num_4,16,num_4,0.866635640501,,,2018_Jan_30_1543,60.018229946,FEMA4ImagesEEG,001,102906,
AFNE01.JPG,AFNE01.JPG,AFNE01.JPG,AFNE01.JPG,AFNE01.JPG,AFNE01.JPG,,,,,,,,,,,,,4,2,42,9,,,,,,,,,,,AMSA04.jpg,AMSA20.jpg,AMNE13.jpg,AMNE18.jpg,AMSA04.jpg,MS,2,num_8,32,num_4,0.700133459643,,,2018_Jan_30_1543,60.018229946,FEMA4ImagesEEG,001,102906,
AFNE01.JPG,AFNE01.JPG,AFNE01.JPG,AFNE01.JPG,AFNE01.JPG,AFNE01.JPG,,,,,,,,,,,,,4,3,43,8,,,,,,,,,,,AMNE10.jpg,AMSA06.jpg,AMSA20.jpg,AMNE16.jpg,AMSA06.jpg,MS,2,num_6,16,num_6,0.733468856313,,,2018_Jan_30_1543,60.018229946,FEMA4ImagesEEG,001,102906,
AFNE01.JPG,AFNE01.JPG,AFNE01.JPG,AFNE01.JPG,AFNE01.JPG,AFNE01.JPG,,,,,,,,,,,,,4,4,44,5,,,,,,,,,,,AMSA20.jpg,AMNE07.jpg,AMNE16.jpg,AMSA18.jpg,AMNE16.jpg,MN,1,num_2,32,num_8,0.866759445868,,,2018_Jan_30_1543,60.018229946,FEMA4ImagesEEG,001,102906,
AFNE01.JPG,AFNE01.JPG,AFNE01.JPG,AFNE01.JPG,AFNE01.JPG,AFNE01.JPG,,,,,,,,,,,,,4,5,45,4,,,,,,,,,,,AMSA05.jpg,AMNE12.jpg,AMNE11.jpg,AMSA08.jpg,AMSA05.jpg,MS,2,num_8,16,num_8,1.15011240309,,,2018_Jan_30_1543,60.018229946,FEMA4ImagesEEG,001,102906,
AFNE01.JPG,AFNE01.JPG,AFNE01.JPG,AFNE01.JPG,AFNE01.JPG,AFNE01.JPG,,,,,,,,,,,,,4,6,46,7,,,,,,,,,,,AMNE02.jpg,AMSA14.jpg,AMSA12.jpg,AMNE03.jpg,AMNE02.jpg,MN,1,num_8,32,num_6,0.56685858639,,,2018_Jan_30_1543,60.018229946,FEMA4ImagesEEG,001,102906,
AFNE01.JPG,AFNE01.JPG,AFNE01.JPG,AFNE01.JPG,AFNE01.JPG,AFNE01.JPG,,,,,,,,,,,,,4,7,47,6,,,,,,,,,,,AMNE06.jpg,AMSA16.jpg,AMSA15.jpg,AMNE17.jpg,AMSA16.jpg,MS,2,num_6,32,num_8,0.666806402151,,,2018_Jan_30_1543,60.018229946,FEMA4ImagesEEG,001,102906,
AFNE01.JPG,AFNE01.JPG,AFNE01.JPG,AFNE01.JPG,AFNE01.JPG,AFNE01.JPG,,,,,,,,,,,,,4,8,48,2,,,,,,,,,,,AMSA17.jpg,AMNE13.jpg,AMNE11.jpg,AMSA04.jpg,AMNE11.jpg,MN,1,num_2,32,num_4,0.333491564728,,,2018_Jan_30_1543,60.018229946,FEMA4ImagesEEG,001,102906,
AFNE01.JPG,AFNE01.JPG,AFNE01.JPG,AFNE01.JPG,AFNE01.JPG,AFNE01.JPG,,,,,,,,,,,,,4,9,49,1,,,,,,,,,,,AMNE19.jpg,AMSA19.jpg,AMSA02.jpg,AMNE07.jpg,AMSA02.jpg,MS,2,num_2,16,num_2,0.933481878368,,,2018_Jan_30_1543,60.018229946,FEMA4ImagesEEG,001,102906,
AFNE01.JPG,AFNE01.JPG,AFNE01.JPG,AFNE01.JPG,AFNE01.JPG,AFNE01.JPG,,,,,,,,,,,,,5,0,50,4,,,,,,,,,,,AMSA06.jpg,AMNE20.jpg,AMSA02.jpg,AMNE05.jpg,AMNE20.jpg,MN,1,num_6,32,num_8,0.783448697883,,,2018_Jan_30_1543,60.018229946,FEMA4ImagesEEG,001,102906,
AFNE01.JPG,AFNE01.JPG,AFNE01.JPG,AFNE01.JPG,AFNE01.JPG,AFNE01.JPG,,,,,,,,,,,,,5,1,51,9,,,,,,,,,,,AMSA20.jpg,AMSA18.jpg,AMNE14.jpg,AMNE02.jpg,AMNE02.jpg,MN,1,num_4,32,num_6,0.633500834112,,,2018_Jan_30_1543,60.018229946,FEMA4ImagesEEG,001,102906,
AFNE01.JPG,AFNE01.JPG,AFNE01.JPG,AFNE01.JPG,AFNE01.JPG,AFNE01.JPG,,,,,,,,,,,,,5,2,52,1,,,,,,,,,,,AMSA13.jpg,AMSA03.jpg,AMNE10.jpg,AMNE05.jpg,AMSA03.jpg,MS,2,num_6,16,num_6,0.500139040407,,,2018_Jan_30_1543,60.018229946,FEMA4ImagesEEG,001,102906,
AFNE01.JPG,AFNE01.JPG,AFNE01.JPG,AFNE01.JPG,AFNE01.JPG,AFNE01.JPG,,,,,,,,,,,,,5,3,53,2,,,,,,,,,,,AMSA01.jpg,AMNE15.jpg,AMSA03.jpg,AMNE16.jpg,AMSA01.jpg,MS,2,num_8,32,num_2,0.800110462587,,,2018_Jan_30_1543,60.018229946,FEMA4ImagesEEG,001,102906,
AFNE01.JPG,AFNE01.JPG,AFNE01.JPG,AFNE01.JPG,AFNE01.JPG,AFNE01.JPG,,,,,,,,,,,,,5,4,54,6,,,,,,,,,,,AMNE01.jpg,AMSA16.jpg,AMSA12.jpg,AMNE08.jpg,AMNE01.jpg,MN,1,num_8,16,num_8,0.516839935328,,,2018_Jan_30_1543,60.018229946,FEMA4ImagesEEG,001,102906,
AFNE01.JPG,AFNE01.JPG,AFNE01.JPG,AFNE01.JPG,AFNE01.JPG,AFNE01.JPG,,,,,,,,,,,,,5,5,55,7,,,,,,,,,,,AMNE10.jpg,AMSA10.jpg,AMNE18.jpg,AMSA20.jpg,AMSA20.jpg,MS,2,num_4,16,num_4,0.583480258705,,,2018_Jan_30_1543,60.018229946,FEMA4ImagesEEG,001,102906,
AFNE01.JPG,AFNE01.JPG,AFNE01.JPG,AFNE01.JPG,AFNE01.JPG,AFNE01.JPG,,,,,,,,,,,,,5,6,56,0,,,,,,,,,,,AMNE15.jpg,AMSA06.jpg,AMNE18.jpg,AMSA04.jpg,AMSA04.jpg,MS,2,num_4,16,num_4,0.600158701767,,,2018_Jan_30_1543,60.018229946,FEMA4ImagesEEG,001,102906,
AFNE01.JPG,AFNE01.JPG,AFNE01.JPG,AFNE01.JPG,AFNE01.JPG,AFNE01.JPG,,,,,,,,,,,,,5,7,57,8,,,,,,,,,,,AMSA15.jpg,AMNE08.jpg,AMNE06.jpg,AMSA12.jpg,AMNE08.jpg,MN,1,num_6,16,num_6,0.400155943469,,,2018_Jan_30_1543,60.018229946,FEMA4ImagesEEG,001,102906,
AFNE01.JPG,AFNE01.JPG,AFNE01.JPG,AFNE01.JPG,AFNE01.JPG,AFNE01.JPG,,,,,,,,,,,,,5,8,58,5,,,,,,,,,,,AMSA09.jpg,AMSA03.jpg,AMNE01.jpg,AMNE20.jpg,AMNE20.jpg,MN,1,num_4,16,num_4,0.433549394016,,,2018_Jan_30_1543,60.018229946,FEMA4ImagesEEG,001,102906,
AFNE01.JPG,AFNE01.JPG,AFNE01.JPG,AFNE01.JPG,AFNE01.JPG,AFNE01.JPG,,,,,,,,,,,,,5,9,59,3,,,,,,,,,,,AMNE16.jpg,AMNE13.jpg,AMSA03.jpg,AMSA04.jpg,AMNE16.jpg,MN,1,num_8,16,num_8,1.00011001353,,,2018_Jan_30_1543,60.018229946,FEMA4ImagesEEG,001,102906,
,,,,,,,,,,,,,,,,,,,,,,,,,,,,,,,,,,,,,,,,,,,space,37.2138789023,2018_Jan_30_1543,60.018229946,FEMA4ImagesEEG,001,102906,
AFNE01.JPG,AFNE01.JPG,AFNE01.JPG,AFNE01.JPG,AFNE01.JPG,AFNE01.JPG,,,,,,,,,,,,,,,,,0,0,0,5,,,,,,,AFNE09.jpg,AFSA09.jpg,AFSA06.jpg,AFNE07.jpg,AFNE07.jpg,FN,3,num_4,32,num_8,0.833483706578,,,2018_Jan_30_1543,60.018229946,FEMA4ImagesEEG,001,102906,
AFNE01.JPG,AFNE01.JPG,AFNE01.JPG,AFNE01.JPG,AFNE01.JPG,AFNE01.JPG,,,,,,,,,,,,,,,,,0,1,1,1,,,,,,,AFNE08.jpg,AFSA13.jpg,AFSA03.jpg,AFNE02.jpg,AFNE08.jpg,FN,3,num_8,32,num_2,1.10012358078,,,2018_Jan_30_1543,60.018229946,FEMA4ImagesEEG,001,102906,
AFNE01.JPG,AFNE01.JPG,AFNE01.JPG,AFNE01.JPG,AFNE01.JPG,AFNE01.JPG,,,,,,,,,,,,,,,,,0,2,2,2,,,,,,,AFSA06.jpg,AFNE01.jpg,AFNE10.jpg,AFSA17.jpg,AFNE10.jpg,FN,3,num_2,16,num_2,1.06676637381,,,2018_Jan_30_1543,60.018229946,FEMA4ImagesEEG,001,102906,
AFNE01.JPG,AFNE01.JPG,AFNE01.JPG,AFNE01.JPG,AFNE01.JPG,AFNE01.JPG,,,,,,,,,,,,,,,,,0,3,3,0,,,,,,,AFSA07.jpg,AFSA20.jpg,AFNE01.jpg,AFNE12.jpg,AFNE12.jpg,FN,3,num_4,16,num_4,0.500119475415,,,2018_Jan_30_1543,60.018229946,FEMA4ImagesEEG,001,102906,
AFNE01.JPG,AFNE01.JPG,AFNE01.JPG,AFNE01.JPG,AFNE01.JPG,AFNE01.JPG,,,,,,,,,,,,,,,,,0,4,4,4,,,,,,,AFNE17.jpg,AFNE10.jpg,AFSA05.jpg,AFSA02.jpg,AFNE10.jpg,FN,3,num_6,16,num_6,0.783460885985,,,2018_Jan_30_1543,60.018229946,FEMA4ImagesEEG,001,102906,
AFNE01.JPG,AFNE01.JPG,AFNE01.JPG,AFNE01.JPG,AFNE01.JPG,AFNE01.JPG,,,,,,,,,,,,,,,,,0,5,5,9,,,,,,,AFNE12.jpg,AFSA14.jpg,AFSA04.jpg,AFNE11.jpg,AFNE11.jpg,FN,3,num_4,16,num_4,0.483574139071,,,2018_Jan_30_1543,60.018229946,FEMA4ImagesEEG,001,102906,
AFNE01.JPG,AFNE01.JPG,AFNE01.JPG,AFNE01.JPG,AFNE01.JPG,AFNE01.JPG,,,,,,,,,,,,,,,,,0,6,6,3,,,,,,,AFSA11.jpg,AFNE09.jpg,AFNE18.jpg,AFSA06.jpg,AFSA11.jpg,FS,4,num_8,16,num_8,0.733466290403,,,2018_Jan_30_1543,60.018229946,FEMA4ImagesEEG,001,102906,
AFNE01.JPG,AFNE01.JPG,AFNE01.JPG,AFNE01.JPG,AFNE01.JPG,AFNE01.JPG,,,,,,,,,,,,,,,,,0,7,7,7,,,,,,,AFNE16.jpg,AFSA20.jpg,AFNE10.jpg,AFSA04.jpg,AFNE16.jpg,FN,3,num_8,32,num_6,0.816764529562,,,2018_Jan_30_1543,60.018229946,FEMA4ImagesEEG,001,102906,
AFNE01.JPG,AFNE01.JPG,AFNE01.JPG,AFNE01.JPG,AFNE01.JPG,AFNE01.JPG,,,,,,,,,,,,,,,,,0,8,8,6,,,,,,,AFSA09.jpg,AFNE19.jpg,AFSA01.jpg,AFNE11.jpg,AFNE19.jpg,FN,3,num_6,32,num_2,0.850105378893,,,2018_Jan_30_1543,60.018229946,FEMA4ImagesEEG,001,102906,
AFNE01.JPG,AFNE01.JPG,AFNE01.JPG,AFNE01.JPG,AFNE01.JPG,AFNE01.JPG,,,,,,,,,,,,,,,,,0,9,9,8,,,,,,,AFSA19.jpg,AFNE16.jpg,AFSA07.jpg,AFNE18.jpg,AFNE18.jpg,FN,3,num_4,32,num_8,0.816850487725,,,2018_Jan_30_1543,60.018229946,FEMA4ImagesEEG,001,102906,
AFNE01.JPG,AFNE01.JPG,AFNE01.JPG,AFNE01.JPG,AFNE01.JPG,AFNE01.JPG,,,,,,,,,,,,,,,,,1,0,10,6,,,,,,,AFSA15.jpg,AFSA13.jpg,AFNE15.jpg,AFNE17.jpg,AFNE15.jpg,FN,3,num_2,16,num_2,0.683468166739,,,2018_Jan_30_1543,60.018229946,FEMA4ImagesEEG,001,102906,
AFNE01.JPG,AFNE01.JPG,AFNE01.JPG,AFNE01.JPG,AFNE01.JPG,AFNE01.JPG,,,,,,,,,,,,,,,,,1,1,11,5,,,,,,,AFNE14.jpg,AFSA06.jpg,AFNE06.jpg,AFSA13.jpg,AFNE06.jpg,FN,3,num_2,32,num_8,0.916747626616,,,2018_Jan_30_1543,60.018229946,FEMA4ImagesEEG,001,102906,
AFNE01.JPG,AFNE01.JPG,AFNE01.JPG,AFNE01.JPG,AFNE01.JPG,AFNE01.JPG,,,,,,,,,,,,,,,,,1,2,12,1,,,,,,,AFNE17.jpg,AFSA16.jpg,AFSA19.jpg,AFNE09.jpg,AFNE09.jpg,FN,3,num_4,16,num_4,0.433503848966,,,2018_Jan_30_1543,60.018229946,FEMA4ImagesEEG,001,102906,
AFNE01.JPG,AFNE01.JPG,AFNE01.JPG,AFNE01.JPG,AFNE01.JPG,AFNE01.JPG,,,,,,,,,,,,,,,,,1,3,13,8,,,,,,,AFSA17.jpg,AFNE13.jpg,AFNE09.jpg,AFSA14.jpg,AFSA14.jpg,FS,4,num_4,16,num_4,1.03346497542,,,2018_Jan_30_1543,60.018229946,FEMA4ImagesEEG,001,102906,
AFNE01.JPG,AFNE01.JPG,AFNE01.JPG,AFNE01.JPG,AFNE01.JPG,AFNE01.JPG,,,,,,,,,,,,,,,,,1,4,14,3,,,,,,,AFNE16.jpg,AFSA20.jpg,AFNE13.jpg,AFSA08.jpg,AFSA20.jpg,FS,4,num_6,32,num_8,0.733330617775,,,2018_Jan_30_1543,60.018229946,FEMA4ImagesEEG,001,102906,
AFNE01.JPG,AFNE01.JPG,AFNE01.JPG,AFNE01.JPG,AFNE01.JPG,AFNE01.JPG,,,,,,,,,,,,,,,,,1,5,15,0,,,,,,,AFSA13.jpg,AFNE09.jpg,AFNE19.jpg,AFSA07.jpg,AFSA07.jpg,FS,4,num_4,32,num_8,0.783479809645,,,2018_Jan_30_1543,60.018229946,FEMA4ImagesEEG,001,102906,
AFNE01.JPG,AFNE01.JPG,AFNE01.JPG,AFNE01.JPG,AFNE01.JPG,AFNE01.JPG,,,,,,,,,,,,,,,,,1,6,16,2,,,,,,,AFSA15.jpg,AFNE20.jpg,AFNE13.jpg,AFSA13.jpg,AFNE20.jpg,FN,3,num_6,16,num_6,0.566809513257,,,2018_Jan_30_1543,60.018229946,FEMA4ImagesEEG,001,102906,
AFNE01.JPG,AFNE01.JPG,AFNE01.JPG,AFNE01.JPG,AFNE01.JPG,AFNE01.JPG,,,,,,,,,,,,,,,,,1,7,17,7,,,,,,,AFSA04.jpg,AFNE18.jpg,AFNE09.jpg,AFSA02.jpg,AFNE09.jpg,FN,3,num_2,32,num_8,0.750134149217,,,2018_Jan_30_1543,60.018229946,FEMA4ImagesEEG,001,102906,
AFNE01.JPG,AFNE01.JPG,AFNE01.JPG,AFNE01.JPG,AFNE01.JPG,AFNE01.JPG,,,,,,,,,,,,,,,,,1,8,18,9,,,,,,,AFNE03.jpg,AFSA02.jpg,AFNE20.jpg,AFSA13.jpg,AFNE20.jpg,FN,3,num_2,16,num_2,0.56680823036,,,2018_Jan_30_1543,60.018229946,FEMA4ImagesEEG,001,102906,
AFNE01.JPG,AFNE01.JPG,AFNE01.JPG,AFNE01.JPG,AFNE01.JPG,AFNE01.JPG,,,,,,,,,,,,,,,,,1,9,19,4,,,,,,,AFSA02.jpg,AFSA05.jpg,AFNE01.jpg,AFNE11.jpg,AFNE11.jpg,FN,3,num_4,16,num_4,0.383567948826,,,2018_Jan_30_1543,60.018229946,FEMA4ImagesEEG,001,102906,
AFNE01.JPG,AFNE01.JPG,AFNE01.JPG,AFNE01.JPG,AFNE01.JPG,AFNE01.JPG,,,,,,,,,,,,,,,,,2,0,20,4,,,,,,,AFNE04.jpg,AFSA13.jpg,AFNE15.jpg,AFSA12.jpg,AFSA12.jpg,FS,4,num_4,32,num_8,0.666780101485,,,2018_Jan_30_1543,60.018229946,FEMA4ImagesEEG,001,102906,
AFNE01.JPG,AFNE01.JPG,AFNE01.JPG,AFNE01.JPG,AFNE01.JPG,AFNE01.JPG,,,,,,,,,,,,,,,,,2,1,21,1,,,,,,,AFNE14.jpg,AFNE13.jpg,AFSA17.jpg,AFSA16.jpg,AFNE14.jpg,FN,3,num_8,32,num_6,0.666765026632,,,2018_Jan_30_1543,60.018229946,FEMA4ImagesEEG,001,102906,
AFNE01.JPG,AFNE01.JPG,AFNE01.JPG,AFNE01.JPG,AFNE01.JPG,AFNE01.JPG,,,,,,,,,,,,,,,,,2,2,22,8,,,,,,,AFNE09.jpg,AFNE18.jpg,AFSA06.jpg,AFSA14.jpg,AFNE18.jpg,FN,3,num_6,32,num_8,0.950196244405,,,2018_Jan_30_1543,60.018229946,FEMA4ImagesEEG,001,102906,
AFNE01.JPG,AFNE01.JPG,AFNE01.JPG,AFNE01.JPG,AFNE01.JPG,AFNE01.JPG,,,,,,,,,,,,,,,,,2,3,23,0,,,,,,,AFSA18.jpg,AFSA13.jpg,AFNE06.jpg,AFNE07.jpg,AFNE06.jpg,FN,3,num_2,32,num_8,0.66677978076,,,2018_Jan_30_1543,60.018229946,FEMA4ImagesEEG,001,102906,
AFNE01.JPG,AFNE01.JPG,AFNE01.JPG,AFNE01.JPG,AFNE01.JPG,AFNE01.JPG,,,,,,,,,,,,,,,,,2,4,24,5,,,,,,,AFNE18.jpg,AFSA15.jpg,AFNE04.jpg,AFSA02.jpg,AFNE18.jpg,FN,3,num_8,16,num_8,0.616823673947,,,2018_Jan_30_1543,60.018229946,FEMA4ImagesEEG,001,102906,
AFNE01.JPG,AFNE01.JPG,AFNE01.JPG,AFNE01.JPG,AFNE01.JPG,AFNE01.JPG,,,,,,,,,,,,,,,,,2,5,25,6,,,,,,,AFSA17.jpg,AFNE02.jpg,AFNE17.jpg,AFSA15.jpg,AFNE02.jpg,FN,3,num_6,32,num_8,0.683451167541,,,2018_Jan_30_1543,60.018229946,FEMA4ImagesEEG,001,102906,
AFNE01.JPG,AFNE01.JPG,AFNE01.JPG,AFNE01.JPG,AFNE01.JPG,AFNE01.JPG,,,,,,,,,,,,,,,,,2,6,26,7,,,,,,,AFNE18.jpg,AFSA02.jpg,AFSA16.jpg,AFNE16.jpg,AFNE18.jpg,FN,3,num_8,32,num_2,1.0498159437,,,2018_Jan_30_1543,60.018229946,FEMA4ImagesEEG,001,102906,
AFNE01.JPG,AFNE01.JPG,AFNE01.JPG,AFNE01.JPG,AFNE01.JPG,AFNE01.JPG,,,,,,,,,,,,,,,,,2,7,27,3,,,,,,,AFNE19.jpg,AFSA20.jpg,AFSA03.jpg,AFNE05.jpg,AFNE19.jpg,FN,3,num_8,32,num_4,0.800154724624,,,2018_Jan_30_1543,60.018229946,FEMA4ImagesEEG,001,102906,
AFNE01.JPG,AFNE01.JPG,AFNE01.JPG,AFNE01.JPG,AFNE01.JPG,AFNE01.JPG,,,,,,,,,,,,,,,,,2,8,28,2,,,,,,,AFNE16.jpg,AFNE10.jpg,AFSA09.jpg,AFSA10.jpg,AFSA10.jpg,FS,4,num_4,16,num_4,0.583507521427,,,2018_Jan_30_1543,60.018229946,FEMA4ImagesEEG,001,102906,
AFNE01.JPG,AFNE01.JPG,AFNE01.JPG,AFNE01.JPG,AFNE01.JPG,AFNE01.JPG,,,,,,,,,,,,,,,,,2,9,29,9,,,,,,,AFSA02.jpg,AFNE06.jpg,AFNE09.jpg,AFSA06.jpg,AFSA06.jpg,FS,4,num_4,32,num_8,0.883463548147,,,2018_Jan_30_1543,60.018229946,FEMA4ImagesEEG,001,102906,
AFNE01.JPG,AFNE01.JPG,AFNE01.JPG,AFNE01.JPG,AFNE01.JPG,AFNE01.JPG,,,,,,,,,,,,,,,,,3,0,30,6,,,,,,,AFSA18.jpg,AFNE12.jpg,AFSA16.jpg,AFNE07.jpg,AFSA18.jpg,FS,4,num_8,32,num_2,1.35008854012,,,2018_Jan_30_1543,60.018229946,FEMA4ImagesEEG,001,102906,
AFNE01.JPG,AFNE01.JPG,AFNE01.JPG,AFNE01.JPG,AFNE01.JPG,AFNE01.JPG,,,,,,,,,,,,,,,,,3,1,31,3,,,,,,,AFNE14.jpg,AFSA13.jpg,AFNE11.jpg,AFSA16.jpg,AFSA16.jpg,FS,4,num_4,16,num_4,0.450160161126,,,2018_Jan_30_1543,60.018229946,FEMA4ImagesEEG,001,102906,
AFNE01.JPG,AFNE01.JPG,AFNE01.JPG,AFNE01.JPG,AFNE01.JPG,AFNE01.JPG,,,,,,,,,,,,,,,,,3,2,32,1,,,,,,,AFSA18.jpg,AFNE20.jpg,AFSA12.jpg,AFNE15.jpg,AFNE20.jpg,FN,3,num_6,16,num_6,0.583607912879,,,2018_Jan_30_1543,60.018229946,FEMA4ImagesEEG,001,102906,
AFNE01.JPG,AFNE01.JPG,AFNE01.JPG,AFNE01.JPG,AFNE01.JPG,AFNE01.JPG,,,,,,,,,,,,,,,,,3,3,33,4,,,,,,,AFSA03.jpg,AFSA11.jpg,AFNE04.jpg,AFNE17.jpg,AFNE17.jpg,FN,3,num_4,16,num_4,0.816794999759,,,2018_Jan_30_1543,60.018229946,FEMA4ImagesEEG,001,102906,
AFNE01.JPG,AFNE01.JPG,AFNE01.JPG,AFNE01.JPG,AFNE01.JPG,AFNE01.JPG,,,,,,,,,,,,,,,,,3,4,34,2,,,,,,,AFSA07.jpg,AFNE05.jpg,AFSA20.jpg,AFNE08.jpg,AFNE08.jpg,FN,3,num_4,32,num_8,0.66680864722,,,2018_Jan_30_1543,60.018229946,FEMA4ImagesEEG,001,102906,
AFNE01.JPG,AFNE01.JPG,AFNE01.JPG,AFNE01.JPG,AFNE01.JPG,AFNE01.JPG,,,,,,,,,,,,,,,,,3,5,35,9,,,,,,,AFSA09.jpg,AFNE02.jpg,AFSA20.jpg,AFNE18.jpg,AFNE02.jpg,FN,3,num_6,16,num_6,0.466800757102,,,2018_Jan_30_1543,60.018229946,FEMA4ImagesEEG,001,102906,
AFNE01.JPG,AFNE01.JPG,AFNE01.JPG,AFNE01.JPG,AFNE01.JPG,AFNE01.JPG,,,,,,,,,,,,,,,,,3,6,36,8,,,,,,,AFNE17.jpg,AFSA19.jpg,AFSA08.jpg,AFNE07.jpg,AFSA19.jpg,FS,4,num_6,32,num_8,0.666816986515,,,2018_Jan_30_1543,60.018229946,FEMA4ImagesEEG,001,102906,
AFNE01.JPG,AFNE01.JPG,AFNE01.JPG,AFNE01.JPG,AFNE01.JPG,AFNE01.JPG,,,,,,,,,,,,,,,,,3,7,37,5,,,,,,,AFSA03.jpg,AFSA20.jpg,AFNE03.jpg,AFNE04.jpg,AFNE04.jpg,FN,3,num_4,16,num_4,0.833294791169,,,2018_Jan_30_1543,60.018229946,FEMA4ImagesEEG,001,102906,
AFNE01.JPG,AFNE01.JPG,AFNE01.JPG,AFNE01.JPG,AFNE01.JPG,AFNE01.JPG,,,,,,,,,,,,,,,,,3,8,38,0,,,,,,,AFNE18.jpg,AFSA10.jpg,AFSA03.jpg,AFNE03.jpg,AFSA10.jpg,FS,4,num_6,16,num_6,0.600160305505,,,2018_Jan_30_1543,60.018229946,FEMA4ImagesEEG,001,102906,
AFNE01.JPG,AFNE01.JPG,AFNE01.JPG,AFNE01.JPG,AFNE01.JPG,AFNE01.JPG,,,,,,,,,,,,,,,,,3,9,39,7,,,,,,,AFSA12.jpg,AFSA15.jpg,AFNE05.jpg,AFNE01.jpg,AFSA12.jpg,FS,4,num_8,16,num_8,0.733443517936,,,2018_Jan_30_1543,60.018229946,FEMA4ImagesEEG,001,102906,
AFNE01.JPG,AFNE01.JPG,AFNE01.JPG,AFNE01.JPG,AFNE01.JPG,AFNE01.JPG,,,,,,,,,,,,,,,,,4,0,40,1,,,,,,,AFNE17.jpg,AFSA16.jpg,AFNE03.jpg,AFSA13.jpg,AFSA16.jpg,FS,4,num_6,32,num_4,0.633479344542,,,2018_Jan_30_1543,60.018229946,FEMA4ImagesEEG,001,102906,
AFNE01.JPG,AFNE01.JPG,AFNE01.JPG,AFNE01.JPG,AFNE01.JPG,AFNE01.JPG,,,,,,,,,,,,,,,,,4,1,41,8,,,,,,,AFSA18.jpg,AFSA12.jpg,AFNE05.jpg,AFNE06.jpg,AFSA12.jpg,FS,4,num_6,16,num_6,0.516754298005,,,2018_Jan_30_1543,60.018229946,FEMA4ImagesEEG,001,102906,
AFNE01.JPG,AFNE01.JPG,AFNE01.JPG,AFNE01.JPG,AFNE01.JPG,AFNE01.JPG,,,,,,,,,,,,,,,,,4,2,42,0,,,,,,,AFNE12.jpg,AFSA16.jpg,AFSA20.jpg,AFNE03.jpg,AFNE03.jpg,FN,3,num_4,32,num_2,0.966762428754,,,2018_Jan_30_1543,60.018229946,FEMA4ImagesEEG,001,102906,
AFNE01.JPG,AFNE01.JPG,AFNE01.JPG,AFNE01.JPG,AFNE01.JPG,AFNE01.JPG,,,,,,,,,,,,,,,,,4,3,43,7,,,,,,,AFNE07.jpg,AFNE20.jpg,AFSA02.jpg,AFSA20.jpg,AFSA20.jpg,FS,4,num_4,32,num_2,0.783521505771,,,2018_Jan_30_1543,60.018229946,FEMA4ImagesEEG,001,102906,
AFNE01.JPG,AFNE01.JPG,AFNE01.JPG,AFNE01.JPG,AFNE01.JPG,AFNE01.JPG,,,,,,,,,,,,,,,,,4,4,44,3,,,,,,,AFNE14.jpg,AFSA06.jpg,AFNE08.jpg,AFSA13.jpg,AFSA06.jpg,FS,4,num_6,16,num_6,0.550170200295,,,2018_Jan_30_1543,60.018229946,FEMA4ImagesEEG,001,102906,
AFNE01.JPG,AFNE01.JPG,AFNE01.JPG,AFNE01.JPG,AFNE01.JPG,AFNE01.JPG,,,,,,,,,,,,,,,,,4,5,45,2,,,,,,,AFNE19.jpg,AFNE01.jpg,AFSA09.jpg,AFSA12.jpg,AFNE19.jpg,FN,3,num_8,32,num_2,1.26672262501,,,2018_Jan_30_1543,60.018229946,FEMA4ImagesEEG,001,102906,
AFNE01.JPG,AFNE01.JPG,AFNE01.JPG,AFNE01.JPG,AFNE01.JPG,AFNE01.JPG,,,,,,,,,,,,,,,,,4,6,46,5,,,,,,,AFNE07.jpg,AFSA17.jpg,AFNE01.jpg,AFSA08.jpg,AFNE07.jpg,FN,3,num_8,16,num_8,0.816780887311,,,2018_Jan_30_1543,60.018229946,FEMA4ImagesEEG,001,102906,
AFNE01.JPG,AFNE01.JPG,AFNE01.JPG,AFNE01.JPG,AFNE01.JPG,AFNE01.JPG,,,,,,,,,,,,,,,,,4,7,47,4,,,,,,,AFNE02.jpg,AFSA02.jpg,AFSA01.jpg,AFNE16.jpg,AFSA01.jpg,FS,4,num_2,32,num_6,0.600127269397,,,2018_Jan_30_1543,60.018229946,FEMA4ImagesEEG,001,102906,
AFNE01.JPG,AFNE01.JPG,AFNE01.JPG,AFNE01.JPG,AFNE01.JPG,AFNE01.JPG,,,,,,,,,,,,,,,,,4,8,48,6,,,,,,,AFSA01.jpg,AFNE14.jpg,AFSA19.jpg,AFNE17.jpg,AFSA19.jpg,FS,4,num_2,32,num_8,1.06678401446,,,2018_Jan_30_1543,60.018229946,FEMA4ImagesEEG,001,102906,
AFNE01.JPG,AFNE01.JPG,AFNE01.JPG,AFNE01.JPG,AFNE01.JPG,AFNE01.JPG,,,,,,,,,,,,,,,,,4,9,49,9,,,,,,,AFNE12.jpg,AFSA16.jpg,AFNE16.jpg,AFSA03.jpg,AFSA03.jpg,FS,4,num_4,16,num_4,0.883453284507,,,2018_Jan_30_1543,60.018229946,FEMA4ImagesEEG,001,102906,
AFNE01.JPG,AFNE01.JPG,AFNE01.JPG,AFNE01.JPG,AFNE01.JPG,AFNE01.JPG,,,,,,,,,,,,,,,,,5,0,50,8,,,,,,,AFNE19.jpg,AFSA04.jpg,AFSA15.jpg,AFNE14.jpg,AFNE19.jpg,FN,3,num_8,16,num_8,0.833484027302,,,2018_Jan_30_1543,60.018229946,FEMA4ImagesEEG,001,102906,
AFNE01.JPG,AFNE01.JPG,AFNE01.JPG,AFNE01.JPG,AFNE01.JPG,AFNE01.JPG,,,,,,,,,,,,,,,,,5,1,51,2,,,,,,,AFNE04.jpg,AFSA10.jpg,AFNE03.jpg,AFSA06.jpg,AFNE04.jpg,FN,3,num_8,32,num_6,0.483519292669,,,2018_Jan_30_1543,60.018229946,FEMA4ImagesEEG,001,102906,
AFNE01.JPG,AFNE01.JPG,AFNE01.JPG,AFNE01.JPG,AFNE01.JPG,AFNE01.JPG,,,,,,,,,,,,,,,,,5,2,52,1,,,,,,,AFSA20.jpg,AFNE19.jpg,AFNE16.jpg,AFSA02.jpg,AFSA02.jpg,FS,4,num_4,16,num_4,0.683438979555,,,2018_Jan_30_1543,60.018229946,FEMA4ImagesEEG,001,102906,
AFNE01.JPG,AFNE01.JPG,AFNE01.JPG,AFNE01.JPG,AFNE01.JPG,AFNE01.JPG,,,,,,,,,,,,,,,,,5,3,53,4,,,,,,,AFNE03.jpg,AFSA09.jpg,AFSA16.jpg,AFNE19.jpg,AFSA09.jpg,FS,4,num_6,32,num_8,0.766652543447,,,2018_Jan_30_1543,60.018229946,FEMA4ImagesEEG,001,102906,
AFNE01.JPG,AFNE01.JPG,AFNE01.JPG,AFNE01.JPG,AFNE01.JPG,AFNE01.JPG,,,,,,,,,,,,,,,,,5,4,54,0,,,,,,,AFNE13.jpg,AFSA18.jpg,AFSA05.jpg,AFNE10.jpg,AFNE13.jpg,FN,3,num_8,32,num_6,0.883314725128,,,2018_Jan_30_1543,60.018229946,FEMA4ImagesEEG,001,102906,
AFNE01.JPG,AFNE01.JPG,AFNE01.JPG,AFNE01.JPG,AFNE01.JPG,AFNE01.JPG,,,,,,,,,,,,,,,,,5,5,55,5,,,,,,,AFSA12.jpg,AFNE13.jpg,AFSA06.jpg,AFNE02.jpg,AFNE02.jpg,FN,3,num_4,32,num_2,0.700225191074,,,2018_Jan_30_1543,60.018229946,FEMA4ImagesEEG,001,102906,
AFNE01.JPG,AFNE01.JPG,AFNE01.JPG,AFNE01.JPG,AFNE01.JPG,AFNE01.JPG,,,,,,,,,,,,,,,,,5,6,56,6,,,,,,,AFNE12.jpg,AFNE09.jpg,AFSA18.jpg,AFSA03.jpg,AFNE12.jpg,FN,3,num_8,16,num_8,0.733494836255,,,2018_Jan_30_1543,60.018229946,FEMA4ImagesEEG,001,102906,
AFNE01.JPG,AFNE01.JPG,AFNE01.JPG,AFNE01.JPG,AFNE01.JPG,AFNE01.JPG,,,,,,,,,,,,,,,,,5,7,57,3,,,,,,,AFNE06.jpg,AFNE12.jpg,AFSA09.jpg,AFSA12.jpg,AFNE06.jpg,FN,3,num_8,32,num_6,0.550144861918,,,2018_Jan_30_1543,60.018229946,FEMA4ImagesEEG,001,102906,
AFNE01.JPG,AFNE01.JPG,AFNE01.JPG,AFNE01.JPG,AFNE01.JPG,AFNE01.JPG,,,,,,,,,,,,,,,,,5,8,58,9,,,,,,,AFSA13.jpg,AFNE05.jpg,AFSA14.jpg,AFNE07.jpg,AFSA13.jpg,FS,4,num_8,16,num_8,0.483493954176,,,2018_Jan_30_1543,60.018229946,FEMA4ImagesEEG,001,102906,
AFNE01.JPG,AFNE01.JPG,AFNE01.JPG,AFNE01.JPG,AFNE01.JPG,AFNE01.JPG,,,,,,,,,,,,,,,,,5,9,59,7,,,,,,,AFSA20.jpg,AFSA07.jpg,AFNE17.jpg,AFNE20.jpg,AFNE17.jpg,FN,3,num_2,16,num_2,0.81678922649,,,2018_Jan_30_1543,60.018229946,FEMA4ImagesEEG,001,102906,
,,,,,,,,,,,,,,,,,,,,,,,,,,,,,,,,,,,,,,,,,,,space,35.0806701013,2018_Jan_30_1543,60.018229946,FEMA4ImagesEEG,001,102906,
AFNE01.JPG,AFNE01.JPG,AFNE01.JPG,AFNE01.JPG,AFNE01.JPG,AFNE01.JPG,,,,,,,,,,,,,,,,,,,,,0,0,0,9,,,AMNE13.jpg,AMSA07.jpg,AMSA11.jpg,AMNE19.jpg,AMSA07.jpg,MS,2,num_6,16,num_6,0.466826416203,,,2018_Jan_30_1543,60.018229946,FEMA4ImagesEEG,001,102906,
AFNE01.JPG,AFNE01.JPG,AFNE01.JPG,AFNE01.JPG,AFNE01.JPG,AFNE01.JPG,,,,,,,,,,,,,,,,,,,,,0,1,1,4,,,AMNE04.jpg,AMNE09.jpg,AMSA01.jpg,AMSA20.jpg,AMSA01.jpg,MS,2,num_2,16,num_2,0.783549089334,,,2018_Jan_30_1543,60.018229946,FEMA4ImagesEEG,001,102906,
AFNE01.JPG,AFNE01.JPG,AFNE01.JPG,AFNE01.JPG,AFNE01.JPG,AFNE01.JPG,,,,,,,,,,,,,,,,,,,,,0,2,2,7,,,AMSA12.jpg,AMNE06.jpg,AMNE16.jpg,AMSA14.jpg,AMSA12.jpg,MS,2,num_8,16,num_8,0.933437616332,,,2018_Jan_30_1543,60.018229946,FEMA4ImagesEEG,001,102906,
AFNE01.JPG,AFNE01.JPG,AFNE01.JPG,AFNE01.JPG,AFNE01.JPG,AFNE01.JPG,,,,,,,,,,,,,,,,,,,,,0,3,3,0,,,AMNE05.jpg,AMSA03.jpg,AMSA10.jpg,AMNE14.jpg,AMSA10.jpg,MS,2,num_2,16,num_2,0.483479521004,,,2018_Jan_30_1543,60.018229946,FEMA4ImagesEEG,001,102906,
AFNE01.JPG,AFNE01.JPG,AFNE01.JPG,AFNE01.JPG,AFNE01.JPG,AFNE01.JPG,,,,,,,,,,,,,,,,,,,,,0,4,4,2,,,AMNE19.jpg,AMSA04.jpg,AMSA12.jpg,AMNE07.jpg,AMNE07.jpg,MN,1,num_4,16,num_4,0.683478430379,,,2018_Jan_30_1543,60.018229946,FEMA4ImagesEEG,001,102906,
AFNE01.JPG,AFNE01.JPG,AFNE01.JPG,AFNE01.JPG,AFNE01.JPG,AFNE01.JPG,,,,,,,,,,,,,,,,,,,,,0,5,5,5,,,AMSA17.jpg,AMSA11.jpg,AMNE15.jpg,AMNE18.jpg,AMNE18.jpg,MN,1,num_4,16,num_4,0.81680558424,,,2018_Jan_30_1543,60.018229946,FEMA4ImagesEEG,001,102906,
AFNE01.JPG,AFNE01.JPG,AFNE01.JPG,AFNE01.JPG,AFNE01.JPG,AFNE01.JPG,,,,,,,,,,,,,,,,,,,,,0,6,6,6,,,AMNE07.jpg,AMNE01.jpg,AMSA16.jpg,AMSA02.jpg,AMSA16.jpg,MS,2,num_2,32,num_4,0.700146289193,,,2018_Jan_30_1543,60.018229946,FEMA4ImagesEEG,001,102906,
AFNE01.JPG,AFNE01.JPG,AFNE01.JPG,AFNE01.JPG,AFNE01.JPG,AFNE01.JPG,,,,,,,,,,,,,,,,,,,,,0,7,7,8,,,AMNE20.jpg,AMNE11.jpg,AMSA08.jpg,AMSA04.jpg,AMNE11.jpg,MN,1,num_6,32,num_4,1.10015629628,,,2018_Jan_30_1543,60.018229946,FEMA4ImagesEEG,001,102906,
AFNE01.JPG,AFNE01.JPG,AFNE01.JPG,AFNE01.JPG,AFNE01.JPG,AFNE01.JPG,,,,,,,,,,,,,,,,,,,,,0,8,8,1,,,AMNE10.jpg,AMSA20.jpg,AMNE12.jpg,AMSA01.jpg,AMNE10.jpg,MN,1,num_8,16,num_8,0.749996231287,,,2018_Jan_30_1543,60.018229946,FEMA4ImagesEEG,001,102906,
AFNE01.JPG,AFNE01.JPG,AFNE01.JPG,AFNE01.JPG,AFNE01.JPG,AFNE01.JPG,,,,,,,,,,,,,,,,,,,,,0,9,9,3,,,AMSA16.jpg,AMNE17.jpg,AMSA03.jpg,AMNE01.jpg,AMNE17.jpg,MN,1,num_6,16,num_6,0.900117294397,,,2018_Jan_30_1543,60.018229946,FEMA4ImagesEEG,001,102906,
AFNE01.JPG,AFNE01.JPG,AFNE01.JPG,AFNE01.JPG,AFNE01.JPG,AFNE01.JPG,,,,,,,,,,,,,,,,,,,,,1,0,10,9,,,AMNE15.jpg,AMSA05.jpg,AMSA07.jpg,AMNE10.jpg,AMSA07.jpg,MS,2,num_2,16,num_2,0.716782073956,,,2018_Jan_30_1543,60.018229946,FEMA4ImagesEEG,001,102906,
AFNE01.JPG,AFNE01.JPG,AFNE01.JPG,AFNE01.JPG,AFNE01.JPG,AFNE01.JPG,,,,,,,,,,,,,,,,,,,,,1,1,11,0,,,AMNE20.jpg,AMSA19.jpg,AMNE18.jpg,AMSA12.jpg,AMSA19.jpg,MS,2,num_6,32,num_8,0.733465969679,,,2018_Jan_30_1543,60.018229946,FEMA4ImagesEEG,001,102906,
AFNE01.JPG,AFNE01.JPG,AFNE01.JPG,AFNE01.JPG,AFNE01.JPG,AFNE01.JPG,,,,,,,,,,,,,,,,,,,,,1,2,12,4,,,AMSA09.jpg,AMSA02.jpg,AMNE18.jpg,AMNE15.jpg,AMNE18.jpg,MN,1,num_2,32,num_8,0.750201504561,,,2018_Jan_30_1543,60.018229946,FEMA4ImagesEEG,001,102906,
AFNE01.JPG,AFNE01.JPG,AFNE01.JPG,AFNE01.JPG,AFNE01.JPG,AFNE01.JPG,,,,,,,,,,,,,,,,,,,,,1,3,13,5,,,AMNE07.jpg,AMNE16.jpg,AMSA06.jpg,AMSA10.jpg,AMSA06.jpg,MS,2,num_2,32,num_6,0.583495333442,,,2018_Jan_30_1543,60.018229946,FEMA4ImagesEEG,001,102906,
AFNE01.JPG,AFNE01.JPG,AFNE01.JPG,AFNE01.JPG,AFNE01.JPG,AFNE01.JPG,,,,,,,,,,,,,,,,,,,,,1,4,14,8,,,AMNE15.jpg,AMNE14.jpg,AMSA02.jpg,AMSA03.jpg,AMSA02.jpg,MS,2,num_2,16,num_2,0.600100648007,,,2018_Jan_30_1543,60.018229946,FEMA4ImagesEEG,001,102906,
AFNE01.JPG,AFNE01.JPG,AFNE01.JPG,AFNE01.JPG,AFNE01.JPG,AFNE01.JPG,,,,,,,,,,,,,,,,,,,,,1,5,15,7,,,AMNE18.jpg,AMSA18.jpg,AMNE04.jpg,AMSA15.jpg,AMSA15.jpg,MS,2,num_4,16,num_4,0.650286083343,,,2018_Jan_30_1543,60.018229946,FEMA4ImagesEEG,001,102906,
AFNE01.JPG,AFNE01.JPG,AFNE01.JPG,AFNE01.JPG,AFNE01.JPG,AFNE01.JPG,,,,,,,,,,,,,,,,,,,,,1,6,16,1,,,AMNE17.jpg,AMSA12.jpg,AMSA20.jpg,AMNE05.jpg,AMNE17.jpg,MN,1,num_8,32,num_2,0.633462345344,,,2018_Jan_30_1543,60.018229946,FEMA4ImagesEEG,001,102906,
AFNE01.JPG,AFNE01.JPG,AFNE01.JPG,AFNE01.JPG,AFNE01.JPG,AFNE01.JPG,,,,,,,,,,,,,,,,,,,,,1,7,17,2,,,AMNE15.jpg,AMNE09.jpg,AMSA10.jpg,AMSA02.jpg,AMNE15.jpg,MN,1,num_8,16,num_8,0.66679485538,,,2018_Jan_30_1543,60.018229946,FEMA4ImagesEEG,001,102906,
AFNE01.JPG,AFNE01.JPG,AFNE01.JPG,AFNE01.JPG,AFNE01.JPG,AFNE01.JPG,,,,,,,,,,,,,,,,,,,,,1,8,18,3,,,AMNE04.jpg,AMSA18.jpg,AMSA02.jpg,AMNE13.jpg,AMSA18.jpg,MS,2,num_6,16,num_6,0.633521040669,,,2018_Jan_30_1543,60.018229946,FEMA4ImagesEEG,001,102906,
AFNE01.JPG,AFNE01.JPG,AFNE01.JPG,AFNE01.JPG,AFNE01.JPG,AFNE01.JPG,,,,,,,,,,,,,,,,,,,,,1,9,19,6,,,AMSA06.jpg,AMSA20.jpg,AMNE01.jpg,AMNE04.jpg,AMSA06.jpg,MS,2,num_8,16,num_8,0.633490891196,,,2018_Jan_30_1543,60.018229946,FEMA4ImagesEEG,001,102906,
AFNE01.JPG,AFNE01.JPG,AFNE01.JPG,AFNE01.JPG,AFNE01.JPG,AFNE01.JPG,,,,,,,,,,,,,,,,,,,,,2,0,20,4,,,AMSA10.jpg,AMSA03.jpg,AMNE13.jpg,AMNE04.jpg,AMSA10.jpg,MS,2,num_8,32,num_6,0.533478606842,,,2018_Jan_30_1543,60.018229946,FEMA4ImagesEEG,001,102906,
AFNE01.JPG,AFNE01.JPG,AFNE01.JPG,AFNE01.JPG,AFNE01.JPG,AFNE01.JPG,,,,,,,,,,,,,,,,,,,,,2,1,21,6,,,AMSA13.jpg,AMNE02.jpg,AMNE08.jpg,AMSA15.jpg,AMSA13.jpg,MS,2,num_8,32,num_4,0.566802456975,,,2018_Jan_30_1543,60.018229946,FEMA4ImagesEEG,001,102906,
AFNE01.JPG,AFNE01.JPG,AFNE01.JPG,AFNE01.JPG,AFNE01.JPG,AFNE01.JPG,,,,,,,,,,,,,,,,,,,,,2,2,22,8,,,AMSA12.jpg,AMSA19.jpg,AMNE06.jpg,AMNE01.jpg,AMSA12.jpg,MS,2,num_8,32,num_6,0.566831323435,,,2018_Jan_30_1543,60.018229946,FEMA4ImagesEEG,001,102906,
AFNE01.JPG,AFNE01.JPG,AFNE01.JPG,AFNE01.JPG,AFNE01.JPG,AFNE01.JPG,,,,,,,,,,,,,,,,,,,,,2,3,23,3,,,AMNE18.jpg,AMSA03.jpg,AMNE13.jpg,AMSA10.jpg,AMSA10.jpg,MS,2,num_4,32,num_2,1.13350163598,,,2018_Jan_30_1543,60.018229946,FEMA4ImagesEEG,001,102906,
AFNE01.JPG,AFNE01.JPG,AFNE01.JPG,AFNE01.JPG,AFNE01.JPG,AFNE01.JPG,,,,,,,,,,,,,,,,,,,,,2,4,24,5,,,AMNE08.jpg,AMSA15.jpg,AMSA12.jpg,AMNE07.jpg,AMSA15.jpg,MS,2,num_6,16,num_6,0.450165613671,,,2018_Jan_30_1543,60.018229946,FEMA4ImagesEEG,001,102906,
AFNE01.JPG,AFNE01.JPG,AFNE01.JPG,AFNE01.JPG,AFNE01.JPG,AFNE01.JPG,,,,,,,,,,,,,,,,,,,,,2,5,25,2,,,AMSA12.jpg,AMNE10.jpg,AMNE15.jpg,AMSA04.jpg,AMNE15.jpg,MN,1,num_2,32,num_8,0.750152431312,,,2018_Jan_30_1543,60.018229946,FEMA4ImagesEEG,001,102906,
AFNE01.JPG,AFNE01.JPG,AFNE01.JPG,AFNE01.JPG,AFNE01.JPG,AFNE01.JPG,,,,,,,,,,,,,,,,,,,,,2,6,26,7,,,AMNE17.jpg,AMSA20.jpg,AMSA12.jpg,AMNE02.jpg,AMNE17.jpg,MN,1,num_8,16,num_8,0.933427031967,,,2018_Jan_30_1543,60.018229946,FEMA4ImagesEEG,001,102906,
AFNE01.JPG,AFNE01.JPG,AFNE01.JPG,AFNE01.JPG,AFNE01.JPG,AFNE01.JPG,,,,,,,,,,,,,,,,,,,,,2,7,27,9,,,AMSA10.jpg,AMNE19.jpg,AMSA11.jpg,AMNE14.jpg,AMNE14.jpg,MN,1,num_4,32,num_2,1.20009673492,,,2018_Jan_30_1543,60.018229946,FEMA4ImagesEEG,001,102906,
AFNE01.JPG,AFNE01.JPG,AFNE01.JPG,AFNE01.JPG,AFNE01.JPG,AFNE01.JPG,,,,,,,,,,,,,,,,,,,,,2,8,28,0,,,AMNE03.jpg,AMSA17.jpg,AMSA07.jpg,AMNE20.jpg,AMSA07.jpg,MS,2,num_2,32,num_6,0.649858217104,,,2018_Jan_30_1543,60.018229946,FEMA4ImagesEEG,001,102906,
AFNE01.JPG,AFNE01.JPG,AFNE01.JPG,AFNE01.JPG,AFNE01.JPG,AFNE01.JPG,,,,,,,,,,,,,,,,,,,,,2,9,29,1,,,AMSA20.jpg,AMNE08.jpg,AMSA17.jpg,AMNE12.jpg,AMNE08.jpg,MN,1,num_6,16,num_6,0.700168740936,,,2018_Jan_30_1543,60.018229946,FEMA4ImagesEEG,001,102906,
AFNE01.JPG,AFNE01.JPG,AFNE01.JPG,AFNE01.JPG,AFNE01.JPG,AFNE01.JPG,,,,,,,,,,,,,,,,,,,,,3,0,30,9,,,AMSA06.jpg,AMNE01.jpg,AMNE03.jpg,AMSA10.jpg,AMNE01.jpg,MN,1,num_6,32,num_4,0.866651356802,,,2018_Jan_30_1543,60.018229946,FEMA4ImagesEEG,001,102906,
AFNE01.JPG,AFNE01.JPG,AFNE01.JPG,AFNE01.JPG,AFNE01.JPG,AFNE01.JPG,,,,,,,,,,,,,,,,,,,,,3,1,31,1,,,AMSA06.jpg,AMNE15.jpg,AMSA02.jpg,AMNE17.jpg,AMNE15.jpg,MN,1,num_6,32,num_8,1.00013342756,,,2018_Jan_30_1543,60.018229946,FEMA4ImagesEEG,001,102906,
AFNE01.JPG,AFNE01.JPG,AFNE01.JPG,AFNE01.JPG,AFNE01.JPG,AFNE01.JPG,,,,,,,,,,,,,,,,,,,,,3,2,32,7,,,AMSA06.jpg,AMNE02.jpg,AMSA07.jpg,AMNE11.jpg,AMSA06.jpg,MS,2,num_8,16,num_8,1.86670492007,,,2018_Jan_30_1543,60.018229946,FEMA4ImagesEEG,001,102906,
AFNE01.JPG,AFNE01.JPG,AFNE01.JPG,AFNE01.JPG,AFNE01.JPG,AFNE01.JPG,,,,,,,,,,,,,,,,,,,,,3,3,33,8,,,AMSA09.jpg,AMNE17.jpg,AMNE11.jpg,AMSA11.jpg,AMNE11.jpg,MN,1,num_2,16,num_2,0.750110093737,,,2018_Jan_30_1543,60.018229946,FEMA4ImagesEEG,001,102906,
AFNE01.JPG,AFNE01.JPG,AFNE01.JPG,AFNE01.JPG,AFNE01.JPG,AFNE01.JPG,,,,,,,,,,,,,,,,,,,,,3,4,34,6,,,AMNE18.jpg,AMNE12.jpg,AMSA11.jpg,AMSA15.jpg,AMSA11.jpg,MS,2,num_2,32,num_4,0.683508579968,,,2018_Jan_30_1543,60.018229946,FEMA4ImagesEEG,001,102906,
AFNE01.JPG,AFNE01.JPG,AFNE01.JPG,AFNE01.JPG,AFNE01.JPG,AFNE01.JPG,,,,,,,,,,,,,,,,,,,,,3,5,35,2,,,AMSA11.jpg,AMNE02.jpg,AMSA07.jpg,AMNE10.jpg,AMSA11.jpg,MS,2,num_8,32,num_6,0.500174642657,,,2018_Jan_30_1543,60.018229946,FEMA4ImagesEEG,001,102906,
AFNE01.JPG,AFNE01.JPG,AFNE01.JPG,AFNE01.JPG,AFNE01.JPG,AFNE01.JPG,,,,,,,,,,,,,,,,,,,,,3,6,36,5,,,AMNE12.jpg,AMNE13.jpg,AMSA16.jpg,AMSA05.jpg,AMNE12.jpg,MN,1,num_8,16,num_8,0.800122971414,,,2018_Jan_30_1543,60.018229946,FEMA4ImagesEEG,001,102906,
AFNE01.JPG,AFNE01.JPG,AFNE01.JPG,AFNE01.JPG,AFNE01.JPG,AFNE01.JPG,,,,,,,,,,,,,,,,,,,,,3,7,37,3,,,AMNE13.jpg,AMSA18.jpg,AMSA04.jpg,AMNE15.jpg,AMSA18.jpg,MS,2,num_6,16,num_6,0.433502245345,,,2018_Jan_30_1543,60.018229946,FEMA4ImagesEEG,001,102906,
AFNE01.JPG,AFNE01.JPG,AFNE01.JPG,AFNE01.JPG,AFNE01.JPG,AFNE01.JPG,,,,,,,,,,,,,,,,,,,,,3,8,38,0,,,AMNE01.jpg,AMSA01.jpg,AMNE13.jpg,AMSA07.jpg,AMSA01.jpg,MS,2,num_6,16,num_6,0.80020379764,,,2018_Jan_30_1543,60.018229946,FEMA4ImagesEEG,001,102906,
AFNE01.JPG,AFNE01.JPG,AFNE01.JPG,AFNE01.JPG,AFNE01.JPG,AFNE01.JPG,,,,,,,,,,,,,,,,,,,,,3,9,39,4,,,AMNE18.jpg,AMSA19.jpg,AMSA17.jpg,AMNE03.jpg,AMSA17.jpg,MS,2,num_2,32,num_6,0.700160722481,,,2018_Jan_30_1543,60.018229946,FEMA4ImagesEEG,001,102906,
AFNE01.JPG,AFNE01.JPG,AFNE01.JPG,AFNE01.JPG,AFNE01.JPG,AFNE01.JPG,,,,,,,,,,,,,,,,,,,,,4,0,40,3,,,AMSA08.jpg,AMSA12.jpg,AMNE13.jpg,AMNE02.jpg,AMSA12.jpg,MS,2,num_6,32,num_8,0.650047132629,,,2018_Jan_30_1543,60.018229946,FEMA4ImagesEEG,001,102906,
