IPosition2,IPosition3,IPosition1,IPosition6,IPosition4,IPosition5,TrialsF1.thisRepN,TrialsF1.thisTrialN,TrialsF1.thisN,TrialsF1.thisIndex,TrialsM1.thisRepN,TrialsM1.thisTrialN,TrialsM1.thisN,TrialsM1.thisIndex,TrialsF2.thisRepN,TrialsF2.thisTrialN,TrialsF2.thisN,TrialsF2.thisIndex,TrialsM2.thisRepN,TrialsM2.thisTrialN,TrialsM2.thisN,TrialsM2.thisIndex,TrialsF3.thisRepN,TrialsF3.thisTrialN,TrialsF3.thisN,TrialsF3.thisIndex,TrialsM3.thisRepN,TrialsM3.thisTrialN,TrialsM3.thisN,TrialsM3.thisIndex,InstrKey_resp.keys,InstrKey_resp.rt,Image0 _Position,Image1 _Position,Image2 _Position,Image3 _Position,Center_image,condition,code,correct_answer,accuracy,Key_Resp.keys,Key_Resp.rt,BreakKey_resp.keys,BreakKey_resp.rt,date,frameRate,expName,session,participant,
,,,,,,,,,,,,,,,,,,,,,,,,,,,,,,space,7.83293877076,,,,,,,,,,,,,,2018_Feb_07_1045,59.9967478861,FEMA4ImagesEEG,001,103080,
AMSA21.JPG,AMNE23.JPG,AMNE21.JPG,AMSA25.JPG,AMNE25.JPG,AMSA23.JPG,0,0,0,5,,,,,,,,,,,,,,,,,,,,,,,AFNE03.jpg,AFNE09.jpg,AFSA08.jpg,AFSA19.jpg,AFSA08.jpg,FS,4,num_2,48,None,,,,2018_Feb_07_1045,59.9967478861,FEMA4ImagesEEG,001,103080,
AMNE22.JPG,AMSA24.JPG,AMSA22.JPG,AMNE25.JPG,AMNE24.JPG,AMSA25.JPG,0,1,1,7,,,,,,,,,,,,,,,,,,,,,,,AFNE03.jpg,AFSA06.jpg,AFNE16.jpg,AFSA17.jpg,AFSA17.jpg,FS,4,num_4,48,None,,,,2018_Feb_07_1045,59.9967478861,FEMA4ImagesEEG,001,103080,
AMSA21.JPG,AMNE22.JPG,AMNE21.JPG,AMSA23.JPG,AMSA22.JPG,AMNE23.JPG,0,2,2,1,,,,,,,,,,,,,,,,,,,,,,,AFNE07.jpg,AFNE20.jpg,AFSA05.jpg,AFSA03.jpg,AFNE07.jpg,FN,3,num_8,48,None,,,,2018_Feb_07_1045,59.9967478861,FEMA4ImagesEEG,001,103080,
AMNE23.JPG,AMNE24.JPG,AMNE22.JPG,AMSA24.JPG,AMSA22.JPG,AMSA23.JPG,0,3,3,9,,,,,,,,,,,,,,,,,,,,,,,AFNE04.jpg,AFNE15.jpg,AFSA17.jpg,AFSA20.jpg,AFSA17.jpg,FS,4,num_2,48,None,,,,2018_Feb_07_1045,59.9967478861,FEMA4ImagesEEG,001,103080,
AFNE23.JPG,AFNE24.JPG,AFNE22.JPG,AFSA24.JPG,AFSA22.JPG,AFSA23.JPG,0,4,4,8,,,,,,,,,,,,,,,,,,,,,,,AFNE19.jpg,AFNE09.jpg,AFSA11.jpg,AFSA08.jpg,AFNE09.jpg,FN,3,num_6,48,None,,,,2018_Feb_07_1045,59.9967478861,FEMA4ImagesEEG,001,103080,
AFSA25.JPG,AFNE24.JPG,AFSA24.JPG,AFNE21.JPG,AFSA21.JPG,AFNE25.JPG,0,5,5,2,,,,,,,,,,,,,,,,,,,,,,,AFNE20.jpg,AFSA05.jpg,AFSA10.jpg,AFNE12.jpg,AFSA10.jpg,FS,4,num_2,48,None,,,,2018_Feb_07_1045,59.9967478861,FEMA4ImagesEEG,001,103080,
AFSA21.JPG,AFNE22.JPG,AFNE21.JPG,AFSA23.JPG,AFSA22.JPG,AFNE23.JPG,0,6,6,0,,,,,,,,,,,,,,,,,,,,,,,AFNE04.jpg,AFSA06.jpg,AFNE01.jpg,AFSA05.jpg,AFNE04.jpg,FN,3,num_8,32,num_2,1.03342937329,,,2018_Feb_07_1045,59.9967478861,FEMA4ImagesEEG,001,103080,
AFSA21.JPG,AFNE23.JPG,AFNE21.JPG,AFSA25.JPG,AFNE25.JPG,AFSA23.JPG,0,7,7,4,,,,,,,,,,,,,,,,,,,,,,,AFNE08.jpg,AFSA17.jpg,AFSA09.jpg,AFNE19.jpg,AFSA09.jpg,FS,4,num_2,16,num_2,1.65005771699,,,2018_Feb_07_1045,59.9967478861,FEMA4ImagesEEG,001,103080,
AFNE22.JPG,AFSA24.JPG,AFSA22.JPG,AFNE25.JPG,AFNE24.JPG,AFSA25.JPG,0,8,8,6,,,,,,,,,,,,,,,,,,,,,,,AFNE02.jpg,AFSA09.jpg,AFNE15.jpg,AFSA19.jpg,AFNE02.jpg,FN,3,num_8,32,num_2,0.983455305221,,,2018_Feb_07_1045,59.9967478861,FEMA4ImagesEEG,001,103080,
AMSA25.JPG,AMNE24.JPG,AMSA24.JPG,AMNE26.JPG,AMSA21.JPG,AMNE25.JPG,0,9,9,3,,,,,,,,,,,,,,,,,,,,,,,AFSA18.jpg,AFNE17.jpg,AFSA08.jpg,AFNE11.jpg,AFSA08.jpg,FS,4,num_2,16,num_2,4.89980008313,,,2018_Feb_07_1045,59.9967478861,FEMA4ImagesEEG,001,103080,
AFNE23.JPG,AFNE24.JPG,AFNE22.JPG,AFSA24.JPG,AFSA22.JPG,AFSA23.JPG,,,,,0,0,0,8,,,,,,,,,,,,,,,,,,,AMNE01.jpg,AMSA15.jpg,AMSA16.jpg,AMNE05.jpg,AMNE05.jpg,MN,1,num_4,48,None,,,,2018_Feb_07_1045,59.9967478861,FEMA4ImagesEEG,001,103080,
AMSA21.JPG,AMNE22.JPG,AMNE21.JPG,AMSA23.JPG,AMSA22.JPG,AMNE23.JPG,,,,,0,1,1,1,,,,,,,,,,,,,,,,,,,AMSA14.jpg,AMNE09.jpg,AMSA10.jpg,AMNE03.jpg,AMSA10.jpg,MS,2,num_2,16,num_2,1.45006426028,,,2018_Feb_07_1045,59.9967478861,FEMA4ImagesEEG,001,103080,
AMNE23.JPG,AMNE24.JPG,AMNE22.JPG,AMSA24.JPG,AMSA22.JPG,AMSA23.JPG,,,,,0,2,2,9,,,,,,,,,,,,,,,,,,,AMSA19.jpg,AMSA11.jpg,AMNE13.jpg,AMNE01.jpg,AMSA11.jpg,MS,2,num_6,32,num_2,0.933430239325,,,2018_Feb_07_1045,59.9967478861,FEMA4ImagesEEG,001,103080,
AFSA21.JPG,AFNE23.JPG,AFNE21.JPG,AFSA25.JPG,AFNE25.JPG,AFSA23.JPG,,,,,0,3,3,4,,,,,,,,,,,,,,,,,,,AMNE15.jpg,AMSA09.jpg,AMNE08.jpg,AMSA18.jpg,AMSA09.jpg,MS,2,num_6,32,num_2,0.933485727292,,,2018_Feb_07_1045,59.9967478861,FEMA4ImagesEEG,001,103080,
AMSA25.JPG,AMNE24.JPG,AMSA24.JPG,AMNE26.JPG,AMSA21.JPG,AMNE25.JPG,,,,,0,4,4,3,,,,,,,,,,,,,,,,,,,AMSA19.jpg,AMNE13.jpg,AMNE03.jpg,AMSA13.jpg,AMNE03.jpg,MN,1,num_2,16,num_2,1.20013137488,,,2018_Feb_07_1045,59.9967478861,FEMA4ImagesEEG,001,103080,
AMSA21.JPG,AMNE23.JPG,AMNE21.JPG,AMSA25.JPG,AMNE25.JPG,AMSA23.JPG,,,,,0,5,5,5,,,,,,,,,,,,,,,,,,,AMNE12.jpg,AMSA16.jpg,AMSA19.jpg,AMNE17.jpg,AMSA16.jpg,MS,2,num_6,32,num_8,4.41675067344,,,2018_Feb_07_1045,59.9967478861,FEMA4ImagesEEG,001,103080,
AMNE22.JPG,AMSA24.JPG,AMSA22.JPG,AMNE25.JPG,AMNE24.JPG,AMSA25.JPG,,,,,0,6,6,7,,,,,,,,,,,,,,,,,,,AMSA01.jpg,AMNE05.jpg,AMSA20.jpg,AMNE02.jpg,AMSA01.jpg,MS,2,num_8,48,None,,,,2018_Feb_07_1045,59.9967478861,FEMA4ImagesEEG,001,103080,
AFSA21.JPG,AFNE22.JPG,AFNE21.JPG,AFSA23.JPG,AFSA22.JPG,AFNE23.JPG,,,,,0,7,7,0,,,,,,,,,,,,,,,,,,,AMSA05.jpg,AMNE18.jpg,AMNE10.jpg,AMSA10.jpg,AMNE10.jpg,MN,1,num_2,48,None,,,,2018_Feb_07_1045,59.9967478861,FEMA4ImagesEEG,001,103080,
AFSA25.JPG,AFNE24.JPG,AFSA24.JPG,AFNE21.JPG,AFSA21.JPG,AFNE25.JPG,,,,,0,8,8,2,,,,,,,,,,,,,,,,,,,AMNE05.jpg,AMNE04.jpg,AMSA19.jpg,AMSA18.jpg,AMSA18.jpg,MS,2,num_4,32,num_2,4.94982450735,,,2018_Feb_07_1045,59.9967478861,FEMA4ImagesEEG,001,103080,
AFNE22.JPG,AFSA24.JPG,AFSA22.JPG,AFNE25.JPG,AFNE24.JPG,AFSA25.JPG,,,,,0,9,9,6,,,,,,,,,,,,,,,,,,,AMSA19.jpg,AMNE04.jpg,AMSA15.jpg,AMNE14.jpg,AMSA19.jpg,MS,2,num_8,48,None,,,,2018_Feb_07_1045,59.9967478861,FEMA4ImagesEEG,001,103080,
AFSA21.JPG,AFNE23.JPG,AFNE21.JPG,AFSA25.JPG,AFNE25.JPG,AFSA23.JPG,,,,,,,,,0,0,0,4,,,,,,,,,,,,,,,AFNE19.jpg,AFNE15.jpg,AFSA19.jpg,AFSA15.jpg,AFSA19.jpg,FS,4,num_2,16,num_2,4.91647403617,,,2018_Feb_07_1045,59.9967478861,FEMA4ImagesEEG,001,103080,
AMSA21.JPG,AMNE22.JPG,AMNE21.JPG,AMSA23.JPG,AMSA22.JPG,AMNE23.JPG,,,,,,,,,0,1,1,1,,,,,,,,,,,,,,,AFSA06.jpg,AFNE11.jpg,AFSA18.jpg,AFNE13.jpg,AFSA06.jpg,FS,4,num_8,32,num_2,0.916781625012,,,2018_Feb_07_1045,59.9967478861,FEMA4ImagesEEG,001,103080,
AFSA25.JPG,AFNE24.JPG,AFSA24.JPG,AFNE21.JPG,AFSA21.JPG,AFNE25.JPG,,,,,,,,,0,2,2,2,,,,,,,,,,,,,,,AFSA14.jpg,AFNE15.jpg,AFSA18.jpg,AFNE10.jpg,AFNE10.jpg,FN,3,num_4,32,num_8,0.550241404446,,,2018_Feb_07_1045,59.9967478861,FEMA4ImagesEEG,001,103080,
AMNE22.JPG,AMSA24.JPG,AMSA22.JPG,AMNE25.JPG,AMNE24.JPG,AMSA25.JPG,,,,,,,,,0,3,3,7,,,,,,,,,,,,,,,AFNE07.jpg,AFNE04.jpg,AFSA18.jpg,AFSA20.jpg,AFSA20.jpg,FS,4,num_4,32,num_2,0.84997644159,,,2018_Feb_07_1045,59.9967478861,FEMA4ImagesEEG,001,103080,
AMSA21.JPG,AMNE23.JPG,AMNE21.JPG,AMSA25.JPG,AMNE25.JPG,AMSA23.JPG,,,,,,,,,0,4,4,5,,,,,,,,,,,,,,,AFNE04.jpg,AFSA09.jpg,AFSA10.jpg,AFNE06.jpg,AFSA09.jpg,FS,4,num_6,48,None,,,,2018_Feb_07_1045,59.9967478861,FEMA4ImagesEEG,001,103080,
AMNE23.JPG,AMNE24.JPG,AMNE22.JPG,AMSA24.JPG,AMSA22.JPG,AMSA23.JPG,,,,,,,,,0,5,5,9,,,,,,,,,,,,,,,AFSA06.jpg,AFNE16.jpg,AFNE09.jpg,AFSA17.jpg,AFSA17.jpg,FS,4,num_4,48,None,,,,2018_Feb_07_1045,59.9967478861,FEMA4ImagesEEG,001,103080,
AFNE23.JPG,AFNE24.JPG,AFNE22.JPG,AFSA24.JPG,AFSA22.JPG,AFSA23.JPG,,,,,,,,,0,6,6,8,,,,,,,,,,,,,,,AFNE11.jpg,AFSA15.jpg,AFSA10.jpg,AFNE18.jpg,AFNE11.jpg,FN,3,num_8,32,num_4,1.68363559269,,,2018_Feb_07_1045,59.9967478861,FEMA4ImagesEEG,001,103080,
AFNE22.JPG,AFSA24.JPG,AFSA22.JPG,AFNE25.JPG,AFNE24.JPG,AFSA25.JPG,,,,,,,,,0,7,7,6,,,,,,,,,,,,,,,AFNE19.jpg,AFNE06.jpg,AFSA12.jpg,AFSA13.jpg,AFSA12.jpg,FS,4,num_2,32,num_6,2.34973123646,,,2018_Feb_07_1045,59.9967478861,FEMA4ImagesEEG,001,103080,
AMSA25.JPG,AMNE24.JPG,AMSA24.JPG,AMNE26.JPG,AMSA21.JPG,AMNE25.JPG,,,,,,,,,0,8,8,3,,,,,,,,,,,,,,,AFSA06.jpg,AFNE16.jpg,AFSA05.jpg,AFNE08.jpg,AFNE08.jpg,FN,3,num_4,48,None,,,,2018_Feb_07_1045,59.9967478861,FEMA4ImagesEEG,001,103080,
AFSA21.JPG,AFNE22.JPG,AFNE21.JPG,AFSA23.JPG,AFSA22.JPG,AFNE23.JPG,,,,,,,,,0,9,9,0,,,,,,,,,,,,,,,AFNE07.jpg,AFSA07.jpg,AFNE17.jpg,AFSA19.jpg,AFNE17.jpg,FN,3,num_2,48,None,,,,2018_Feb_07_1045,59.9967478861,FEMA4ImagesEEG,001,103080,
AMSA25.JPG,AMNE24.JPG,AMSA24.JPG,AMNE26.JPG,AMSA21.JPG,AMNE25.JPG,,,,,,,,,,,,,0,0,0,3,,,,,,,,,,,AMNE03.jpg,AMSA06.jpg,AMSA10.jpg,AMNE10.jpg,AMNE03.jpg,MN,1,num_8,32,num_2,1.63336676499,,,2018_Feb_07_1045,59.9967478861,FEMA4ImagesEEG,001,103080,
AMNE22.JPG,AMSA24.JPG,AMSA22.JPG,AMNE25.JPG,AMNE24.JPG,AMSA25.JPG,,,,,,,,,,,,,0,1,1,7,,,,,,,,,,,AMSA10.jpg,AMNE10.jpg,AMSA06.jpg,AMNE05.jpg,AMSA06.jpg,MS,2,num_2,16,num_2,0.766760311788,,,2018_Feb_07_1045,59.9967478861,FEMA4ImagesEEG,001,103080,
AFSA21.JPG,AFNE22.JPG,AFNE21.JPG,AFSA23.JPG,AFSA22.JPG,AFNE23.JPG,,,,,,,,,,,,,0,2,2,0,,,,,,,,,,,AMSA20.jpg,AMNE18.jpg,AMNE06.jpg,AMSA11.jpg,AMSA11.jpg,MS,2,num_4,32,num_2,1.01675157156,,,2018_Feb_07_1045,59.9967478861,FEMA4ImagesEEG,001,103080,
AFSA21.JPG,AFNE23.JPG,AFNE21.JPG,AFSA25.JPG,AFNE25.JPG,AFSA23.JPG,,,,,,,,,,,,,0,3,3,4,,,,,,,,,,,AMNE04.jpg,AMSA03.jpg,AMNE09.jpg,AMSA07.jpg,AMNE04.jpg,MN,1,num_8,32,num_2,0.566795400809,,,2018_Feb_07_1045,59.9967478861,FEMA4ImagesEEG,001,103080,
AMSA21.JPG,AMNE23.JPG,AMNE21.JPG,AMSA25.JPG,AMNE25.JPG,AMSA23.JPG,,,,,,,,,,,,,0,4,4,5,,,,,,,,,,,AMSA14.jpg,AMNE12.jpg,AMSA18.jpg,AMNE18.jpg,AMNE18.jpg,MN,1,num_4,32,num_2,0.583499182248,,,2018_Feb_07_1045,59.9967478861,FEMA4ImagesEEG,001,103080,
AMSA21.JPG,AMNE22.JPG,AMNE21.JPG,AMSA23.JPG,AMSA22.JPG,AMNE23.JPG,,,,,,,,,,,,,0,5,5,1,,,,,,,,,,,AMNE14.jpg,AMSA07.jpg,AMNE06.jpg,AMSA11.jpg,AMSA11.jpg,MS,2,num_4,32,num_2,1.86679216125,,,2018_Feb_07_1045,59.9967478861,FEMA4ImagesEEG,001,103080,
AMNE23.JPG,AMNE24.JPG,AMNE22.JPG,AMSA24.JPG,AMSA22.JPG,AMSA23.JPG,,,,,,,,,,,,,0,6,6,9,,,,,,,,,,,AMNE15.jpg,AMNE03.jpg,AMSA06.jpg,AMSA02.jpg,AMNE03.jpg,MN,1,num_6,32,num_2,1.75009117019,,,2018_Feb_07_1045,59.9967478861,FEMA4ImagesEEG,001,103080,
AFSA25.JPG,AFNE24.JPG,AFSA24.JPG,AFNE21.JPG,AFSA21.JPG,AFNE25.JPG,,,,,,,,,,,,,0,7,7,2,,,,,,,,,,,AMNE06.jpg,AMSA10.jpg,AMSA03.jpg,AMNE08.jpg,AMNE06.jpg,MN,1,num_8,32,num_2,0.850116604939,,,2018_Feb_07_1045,59.9967478861,FEMA4ImagesEEG,001,103080,
AFNE22.JPG,AFSA24.JPG,AFSA22.JPG,AFNE25.JPG,AFNE24.JPG,AFSA25.JPG,,,,,,,,,,,,,0,8,8,6,,,,,,,,,,,AMNE13.jpg,AMSA09.jpg,AMSA03.jpg,AMNE10.jpg,AMNE10.jpg,MN,1,num_4,32,num_2,1.06674520485,,,2018_Feb_07_1045,59.9967478861,FEMA4ImagesEEG,001,103080,
AFNE23.JPG,AFNE24.JPG,AFNE22.JPG,AFSA24.JPG,AFSA22.JPG,AFSA23.JPG,,,,,,,,,,,,,0,9,9,8,,,,,,,,,,,AMSA08.jpg,AMNE03.jpg,AMSA13.jpg,AMNE19.jpg,AMSA08.jpg,MS,2,num_8,32,num_2,1.31673293677,,,2018_Feb_07_1045,59.9967478861,FEMA4ImagesEEG,001,103080,
AFNE23.JPG,AFNE24.JPG,AFNE22.JPG,AFSA24.JPG,AFSA22.JPG,AFSA23.JPG,,,,,,,,,,,,,,,,,0,0,0,8,,,,,,,AFNE04.jpg,AFNE13.jpg,AFSA15.jpg,AFSA08.jpg,AFSA15.jpg,FS,4,num_2,48,None,,,,2018_Feb_07_1045,59.9967478861,FEMA4ImagesEEG,001,103080,
AMSA21.JPG,AMNE23.JPG,AMNE21.JPG,AMSA25.JPG,AMNE25.JPG,AMSA23.JPG,,,,,,,,,,,,,,,,,0,1,1,5,,,,,,,AFNE11.jpg,AFNE02.jpg,AFSA08.jpg,AFSA03.jpg,AFSA03.jpg,FS,4,num_4,48,None,,,,2018_Feb_07_1045,59.9967478861,FEMA4ImagesEEG,001,103080,
AFNE22.JPG,AFSA24.JPG,AFSA22.JPG,AFNE25.JPG,AFNE24.JPG,AFSA25.JPG,,,,,,,,,,,,,,,,,0,2,2,6,,,,,,,AFNE16.jpg,AFNE06.jpg,AFSA10.jpg,AFSA20.jpg,AFSA20.jpg,FS,4,num_4,48,None,,,,2018_Feb_07_1045,59.9967478861,FEMA4ImagesEEG,001,103080,
AFSA25.JPG,AFNE24.JPG,AFSA24.JPG,AFNE21.JPG,AFSA21.JPG,AFNE25.JPG,,,,,,,,,,,,,,,,,0,3,3,2,,,,,,,AFSA16.jpg,AFNE05.jpg,AFSA01.jpg,AFNE18.jpg,AFNE18.jpg,FN,3,num_4,32,num_2,4.84979650704,,,2018_Feb_07_1045,59.9967478861,FEMA4ImagesEEG,001,103080,
AMNE22.JPG,AMSA24.JPG,AMSA22.JPG,AMNE25.JPG,AMNE24.JPG,AMSA25.JPG,,,,,,,,,,,,,,,,,0,4,4,7,,,,,,,AFNE04.jpg,AFSA08.jpg,AFNE17.jpg,AFSA03.jpg,AFNE04.jpg,FN,3,num_8,32,num_2,1.26672230428,,,2018_Feb_07_1045,59.9967478861,FEMA4ImagesEEG,001,103080,
AMSA25.JPG,AMNE24.JPG,AMSA24.JPG,AMNE26.JPG,AMSA21.JPG,AMNE25.JPG,,,,,,,,,,,,,,,,,0,5,5,3,,,,,,,AFSA06.jpg,AFNE19.jpg,AFNE16.jpg,AFSA07.jpg,AFNE16.jpg,FN,3,num_2,16,num_2,0.483523783041,,,2018_Feb_07_1045,59.9967478861,FEMA4ImagesEEG,001,103080,
AMNE23.JPG,AMNE24.JPG,AMNE22.JPG,AMSA24.JPG,AMSA22.JPG,AMSA23.JPG,,,,,,,,,,,,,,,,,0,6,6,9,,,,,,,AFSA19.jpg,AFNE09.jpg,AFSA03.jpg,AFNE19.jpg,AFSA19.jpg,FS,4,num_8,48,None,,,,2018_Feb_07_1045,59.9967478861,FEMA4ImagesEEG,001,103080,
AMSA21.JPG,AMNE22.JPG,AMNE21.JPG,AMSA23.JPG,AMSA22.JPG,AMNE23.JPG,,,,,,,,,,,,,,,,,0,7,7,1,,,,,,,AFSA12.jpg,AFNE06.jpg,AFNE02.jpg,AFSA16.jpg,AFSA16.jpg,FS,4,num_4,32,num_2,1.01679743733,,,2018_Feb_07_1045,59.9967478861,FEMA4ImagesEEG,001,103080,
AFSA21.JPG,AFNE23.JPG,AFNE21.JPG,AFSA25.JPG,AFNE25.JPG,AFSA23.JPG,,,,,,,,,,,,,,,,,0,8,8,4,,,,,,,AFSA11.jpg,AFNE02.jpg,AFNE19.jpg,AFSA03.jpg,AFSA03.jpg,FS,4,num_4,48,None,,,,2018_Feb_07_1045,59.9967478861,FEMA4ImagesEEG,001,103080,
AFSA21.JPG,AFNE22.JPG,AFNE21.JPG,AFSA23.JPG,AFSA22.JPG,AFNE23.JPG,,,,,,,,,,,,,,,,,0,9,9,0,,,,,,,AFNE08.jpg,AFNE01.jpg,AFSA04.jpg,AFSA11.jpg,AFNE08.jpg,FN,3,num_8,32,num_2,0.766770575661,,,2018_Feb_07_1045,59.9967478861,FEMA4ImagesEEG,001,103080,
AMNE22.JPG,AMSA24.JPG,AMSA22.JPG,AMNE25.JPG,AMNE24.JPG,AMSA25.JPG,,,,,,,,,,,,,,,,,,,,,0,0,0,7,,,AMNE03.jpg,AMNE15.jpg,AMSA12.jpg,AMSA06.jpg,AMSA06.jpg,MS,2,num_4,32,num_8,1.45006650523,,,2018_Feb_07_1045,59.9967478861,FEMA4ImagesEEG,001,103080,
AFNE23.JPG,AFNE24.JPG,AFNE22.JPG,AFSA24.JPG,AFSA22.JPG,AFSA23.JPG,,,,,,,,,,,,,,,,,,,,,0,1,1,8,,,AMNE01.jpg,AMSA04.jpg,AMSA13.jpg,AMNE04.jpg,AMSA04.jpg,MS,2,num_6,32,num_4,0.733677657787,,,2018_Feb_07_1045,59.9967478861,FEMA4ImagesEEG,001,103080,
AMSA25.JPG,AMNE24.JPG,AMSA24.JPG,AMNE26.JPG,AMSA21.JPG,AMNE25.JPG,,,,,,,,,,,,,,,,,,,,,0,2,2,3,,,AMSA10.jpg,AMNE04.jpg,AMNE11.jpg,AMSA04.jpg,AMSA04.jpg,MS,2,num_4,32,num_8,2.99965007347,,,2018_Feb_07_1045,59.9967478861,FEMA4ImagesEEG,001,103080,
AFSA21.JPG,AFNE23.JPG,AFNE21.JPG,AFSA25.JPG,AFNE25.JPG,AFSA23.JPG,,,,,,,,,,,,,,,,,,,,,0,3,3,4,,,AMSA12.jpg,AMNE18.jpg,AMSA05.jpg,AMNE17.jpg,AMNE17.jpg,MN,1,num_4,32,num_2,2.333404965,,,2018_Feb_07_1045,59.9967478861,FEMA4ImagesEEG,001,103080,
AMSA21.JPG,AMNE23.JPG,AMNE21.JPG,AMSA25.JPG,AMNE25.JPG,AMSA23.JPG,,,,,,,,,,,,,,,,,,,,,0,4,4,5,,,AMSA20.jpg,AMNE18.jpg,AMSA11.jpg,AMNE05.jpg,AMNE18.jpg,MN,1,num_6,48,None,,,,2018_Feb_07_1045,59.9967478861,FEMA4ImagesEEG,001,103080,
AMSA21.JPG,AMNE22.JPG,AMNE21.JPG,AMSA23.JPG,AMSA22.JPG,AMNE23.JPG,,,,,,,,,,,,,,,,,,,,,0,5,5,1,,,AMNE12.jpg,AMNE08.jpg,AMSA18.jpg,AMSA04.jpg,AMNE08.jpg,MN,1,num_6,48,None,,,,2018_Feb_07_1045,59.9967478861,FEMA4ImagesEEG,001,103080,
AFSA25.JPG,AFNE24.JPG,AFSA24.JPG,AFNE21.JPG,AFSA21.JPG,AFNE25.JPG,,,,,,,,,,,,,,,,,,,,,0,6,6,2,,,AMNE16.jpg,AMNE13.jpg,AMSA10.jpg,AMSA11.jpg,AMSA10.jpg,MS,2,num_2,48,None,,,,2018_Feb_07_1045,59.9967478861,FEMA4ImagesEEG,001,103080,
AFNE22.JPG,AFSA24.JPG,AFSA22.JPG,AFNE25.JPG,AFNE24.JPG,AFSA25.JPG,,,,,,,,,,,,,,,,,,,,,0,7,7,6,,,AMNE19.jpg,AMSA14.jpg,AMSA19.jpg,AMNE15.jpg,AMSA19.jpg,MS,2,num_2,48,None,,,,2018_Feb_07_1045,59.9967478861,FEMA4ImagesEEG,001,103080,
AFSA21.JPG,AFNE22.JPG,AFNE21.JPG,AFSA23.JPG,AFSA22.JPG,AFNE23.JPG,,,,,,,,,,,,,,,,,,,,,0,8,8,0,,,AMNE07.jpg,AMNE11.jpg,AMSA17.jpg,AMSA13.jpg,AMSA17.jpg,MS,2,num_2,48,None,,,,2018_Feb_07_1045,59.9967478861,FEMA4ImagesEEG,001,103080,
AMNE23.JPG,AMNE24.JPG,AMNE22.JPG,AMSA24.JPG,AMSA22.JPG,AMSA23.JPG,,,,,,,,,,,,,,,,,,,,,0,9,9,9,,,AMSA12.jpg,AMNE06.jpg,AMSA04.jpg,AMNE09.jpg,AMNE06.jpg,MN,1,num_6,48,None,,,,2018_Feb_07_1045,59.9967478861,FEMA4ImagesEEG,001,103080,
,,,,,,,,,,,,,,,,,,,,,,,,,,,,,,,,,,,,,,,,,,,space,7.93314895104,2018_Feb_07_1045,59.9967478861,FEMA4ImagesEEG,001,103080,
AFNE01.JPG,AFNE01.JPG,AFNE01.JPG,AFNE01.JPG,AFNE01.JPG,AFNE01.JPG,0,0,0,1,,,,,,,,,,,,,,,,,,,,,,,AFNE14.jpg,AFSA15.jpg,AFSA02.jpg,AFNE12.jpg,AFSA02.jpg,FS,4,num_2,48,None,,,,2018_Feb_07_1045,59.9967478861,FEMA4ImagesEEG,001,103080,
AFNE01.JPG,AFNE01.JPG,AFNE01.JPG,AFNE01.JPG,AFNE01.JPG,AFNE01.JPG,0,1,1,4,,,,,,,,,,,,,,,,,,,,,,,AFSA09.jpg,AFNE18.jpg,AFNE17.jpg,AFSA01.jpg,AFSA01.jpg,FS,4,num_4,48,None,,,,2018_Feb_07_1045,59.9967478861,FEMA4ImagesEEG,001,103080,
AFNE01.JPG,AFNE01.JPG,AFNE01.JPG,AFNE01.JPG,AFNE01.JPG,AFNE01.JPG,0,2,2,8,,,,,,,,,,,,,,,,,,,,,,,AFNE18.jpg,AFSA10.jpg,AFSA13.jpg,AFNE09.jpg,AFNE18.jpg,FN,3,num_8,48,None,,,,2018_Feb_07_1045,59.9967478861,FEMA4ImagesEEG,001,103080,
AFNE01.JPG,AFNE01.JPG,AFNE01.JPG,AFNE01.JPG,AFNE01.JPG,AFNE01.JPG,0,3,3,2,,,,,,,,,,,,,,,,,,,,,,,AFSA01.jpg,AFNE05.jpg,AFNE14.jpg,AFSA05.jpg,AFNE14.jpg,FN,3,num_2,48,None,,,,2018_Feb_07_1045,59.9967478861,FEMA4ImagesEEG,001,103080,
AFNE01.JPG,AFNE01.JPG,AFNE01.JPG,AFNE01.JPG,AFNE01.JPG,AFNE01.JPG,0,4,4,3,,,,,,,,,,,,,,,,,,,,,,,AFSA18.jpg,AFNE12.jpg,AFSA11.jpg,AFNE17.jpg,AFNE12.jpg,FN,3,num_6,48,None,,,,2018_Feb_07_1045,59.9967478861,FEMA4ImagesEEG,001,103080,
AFNE01.JPG,AFNE01.JPG,AFNE01.JPG,AFNE01.JPG,AFNE01.JPG,AFNE01.JPG,0,5,5,7,,,,,,,,,,,,,,,,,,,,,,,AFSA04.jpg,AFSA08.jpg,AFNE03.jpg,AFNE18.jpg,AFSA04.jpg,FS,4,num_8,48,None,,,,2018_Feb_07_1045,59.9967478861,FEMA4ImagesEEG,001,103080,
AFNE01.JPG,AFNE01.JPG,AFNE01.JPG,AFNE01.JPG,AFNE01.JPG,AFNE01.JPG,0,6,6,0,,,,,,,,,,,,,,,,,,,,,,,AFSA03.jpg,AFNE15.jpg,AFSA16.jpg,AFNE16.jpg,AFSA03.jpg,FS,4,num_8,48,None,,,,2018_Feb_07_1045,59.9967478861,FEMA4ImagesEEG,001,103080,
AFNE01.JPG,AFNE01.JPG,AFNE01.JPG,AFNE01.JPG,AFNE01.JPG,AFNE01.JPG,0,7,7,6,,,,,,,,,,,,,,,,,,,,,,,AFSA09.jpg,AFNE07.jpg,AFNE01.jpg,AFSA07.jpg,AFSA07.jpg,FS,4,num_4,48,None,,,,2018_Feb_07_1045,59.9967478861,FEMA4ImagesEEG,001,103080,
AFNE01.JPG,AFNE01.JPG,AFNE01.JPG,AFNE01.JPG,AFNE01.JPG,AFNE01.JPG,0,8,8,9,,,,,,,,,,,,,,,,,,,,,,,AFSA15.jpg,AFSA08.jpg,AFNE10.jpg,AFNE13.jpg,AFNE13.jpg,FN,3,num_4,48,None,,,,2018_Feb_07_1045,59.9967478861,FEMA4ImagesEEG,001,103080,
AFNE01.JPG,AFNE01.JPG,AFNE01.JPG,AFNE01.JPG,AFNE01.JPG,AFNE01.JPG,0,9,9,5,,,,,,,,,,,,,,,,,,,,,,,AFNE11.jpg,AFSA01.jpg,AFNE17.jpg,AFSA02.jpg,AFSA01.jpg,FS,4,num_6,48,None,,,,2018_Feb_07_1045,59.9967478861,FEMA4ImagesEEG,001,103080,
AFNE01.JPG,AFNE01.JPG,AFNE01.JPG,AFNE01.JPG,AFNE01.JPG,AFNE01.JPG,1,0,10,9,,,,,,,,,,,,,,,,,,,,,,,AFNE17.jpg,AFNE19.jpg,AFSA14.jpg,AFSA15.jpg,AFSA14.jpg,FS,4,num_2,48,None,,,,2018_Feb_07_1045,59.9967478861,FEMA4ImagesEEG,001,103080,
AFNE01.JPG,AFNE01.JPG,AFNE01.JPG,AFNE01.JPG,AFNE01.JPG,AFNE01.JPG,1,1,11,4,,,,,,,,,,,,,,,,,,,,,,,AFNE16.jpg,AFSA09.jpg,AFNE03.jpg,AFSA04.jpg,AFNE03.jpg,FN,3,num_2,48,None,,,,2018_Feb_07_1045,59.9967478861,FEMA4ImagesEEG,001,103080,
AFNE01.JPG,AFNE01.JPG,AFNE01.JPG,AFNE01.JPG,AFNE01.JPG,AFNE01.JPG,1,2,12,2,,,,,,,,,,,,,,,,,,,,,,,AFNE05.jpg,AFSA07.jpg,AFSA12.jpg,AFNE13.jpg,AFNE05.jpg,FN,3,num_8,32,num_2,1.48339260067,,,2018_Feb_07_1045,59.9967478861,FEMA4ImagesEEG,001,103080,
AFNE01.JPG,AFNE01.JPG,AFNE01.JPG,AFNE01.JPG,AFNE01.JPG,AFNE01.JPG,1,3,13,5,,,,,,,,,,,,,,,,,,,,,,,AFSA08.jpg,AFNE16.jpg,AFNE03.jpg,AFSA10.jpg,AFSA08.jpg,FS,4,num_8,16,num_8,0.350182195893,,,2018_Feb_07_1045,59.9967478861,FEMA4ImagesEEG,001,103080,
AFNE01.JPG,AFNE01.JPG,AFNE01.JPG,AFNE01.JPG,AFNE01.JPG,AFNE01.JPG,1,4,14,0,,,,,,,,,,,,,,,,,,,,,,,AFSA11.jpg,AFNE04.jpg,AFNE18.jpg,AFSA15.jpg,AFSA15.jpg,FS,4,num_4,32,num_8,2.23334040027,,,2018_Feb_07_1045,59.9967478861,FEMA4ImagesEEG,001,103080,
AFNE01.JPG,AFNE01.JPG,AFNE01.JPG,AFNE01.JPG,AFNE01.JPG,AFNE01.JPG,1,5,15,3,,,,,,,,,,,,,,,,,,,,,,,AFNE05.jpg,AFNE08.jpg,AFSA19.jpg,AFSA13.jpg,AFSA19.jpg,FS,4,num_2,16,num_2,2.51659617363,,,2018_Feb_07_1045,59.9967478861,FEMA4ImagesEEG,001,103080,
AFNE01.JPG,AFNE01.JPG,AFNE01.JPG,AFNE01.JPG,AFNE01.JPG,AFNE01.JPG,1,6,16,6,,,,,,,,,,,,,,,,,,,,,,,AFNE20.jpg,AFSA18.jpg,AFNE04.jpg,AFSA15.jpg,AFNE20.jpg,FN,3,num_8,48,None,,,,2018_Feb_07_1045,59.9967478861,FEMA4ImagesEEG,001,103080,
AFNE01.JPG,AFNE01.JPG,AFNE01.JPG,AFNE01.JPG,AFNE01.JPG,AFNE01.JPG,1,7,17,7,,,,,,,,,,,,,,,,,,,,,,,AFNE15.jpg,AFSA13.jpg,AFNE20.jpg,AFSA15.jpg,AFNE15.jpg,FN,3,num_8,48,None,,,,2018_Feb_07_1045,59.9967478861,FEMA4ImagesEEG,001,103080,
AFNE01.JPG,AFNE01.JPG,AFNE01.JPG,AFNE01.JPG,AFNE01.JPG,AFNE01.JPG,1,8,18,1,,,,,,,,,,,,,,,,,,,,,,,AFSA01.jpg,AFNE12.jpg,AFSA12.jpg,AFNE19.jpg,AFSA12.jpg,FS,4,num_2,48,None,,,,2018_Feb_07_1045,59.9967478861,FEMA4ImagesEEG,001,103080,
AFNE01.JPG,AFNE01.JPG,AFNE01.JPG,AFNE01.JPG,AFNE01.JPG,AFNE01.JPG,1,9,19,8,,,,,,,,,,,,,,,,,,,,,,,AFNE20.jpg,AFSA19.jpg,AFNE04.jpg,AFSA07.jpg,AFSA19.jpg,FS,4,num_6,48,None,,,,2018_Feb_07_1045,59.9967478861,FEMA4ImagesEEG,001,103080,
AFNE01.JPG,AFNE01.JPG,AFNE01.JPG,AFNE01.JPG,AFNE01.JPG,AFNE01.JPG,2,0,20,1,,,,,,,,,,,,,,,,,,,,,,,AFNE05.jpg,AFSA15.jpg,AFSA03.jpg,AFNE19.jpg,AFSA15.jpg,FS,4,num_6,48,None,,,,2018_Feb_07_1045,59.9967478861,FEMA4ImagesEEG,001,103080,
AFNE01.JPG,AFNE01.JPG,AFNE01.JPG,AFNE01.JPG,AFNE01.JPG,AFNE01.JPG,2,1,21,8,,,,,,,,,,,,,,,,,,,,,,,AFNE04.jpg,AFNE16.jpg,AFSA13.jpg,AFSA12.jpg,AFSA13.jpg,FS,4,num_2,48,None,,,,2018_Feb_07_1045,59.9967478861,FEMA4ImagesEEG,001,103080,
AFNE01.JPG,AFNE01.JPG,AFNE01.JPG,AFNE01.JPG,AFNE01.JPG,AFNE01.JPG,2,2,22,2,,,,,,,,,,,,,,,,,,,,,,,AFNE16.jpg,AFSA05.jpg,AFNE14.jpg,AFSA01.jpg,AFNE14.jpg,FN,3,num_2,48,None,,,,2018_Feb_07_1045,59.9967478861,FEMA4ImagesEEG,001,103080,
AFNE01.JPG,AFNE01.JPG,AFNE01.JPG,AFNE01.JPG,AFNE01.JPG,AFNE01.JPG,2,3,23,6,,,,,,,,,,,,,,,,,,,,,,,AFSA08.jpg,AFNE01.jpg,AFNE19.jpg,AFSA09.jpg,AFNE19.jpg,FN,3,num_2,48,None,,,,2018_Feb_07_1045,59.9967478861,FEMA4ImagesEEG,001,103080,
AFNE01.JPG,AFNE01.JPG,AFNE01.JPG,AFNE01.JPG,AFNE01.JPG,AFNE01.JPG,2,4,24,7,,,,,,,,,,,,,,,,,,,,,,,AFNE10.jpg,AFSA13.jpg,AFNE12.jpg,AFSA04.jpg,AFSA04.jpg,FS,4,num_4,48,None,,,,2018_Feb_07_1045,59.9967478861,FEMA4ImagesEEG,001,103080,
AFNE01.JPG,AFNE01.JPG,AFNE01.JPG,AFNE01.JPG,AFNE01.JPG,AFNE01.JPG,2,5,25,0,,,,,,,,,,,,,,,,,,,,,,,AFSA01.jpg,AFNE02.jpg,AFNE13.jpg,AFSA09.jpg,AFSA01.jpg,FS,4,num_8,48,None,,,,2018_Feb_07_1045,59.9967478861,FEMA4ImagesEEG,001,103080,
AFNE01.JPG,AFNE01.JPG,AFNE01.JPG,AFNE01.JPG,AFNE01.JPG,AFNE01.JPG,2,6,26,9,,,,,,,,,,,,,,,,,,,,,,,AFSA13.jpg,AFNE07.jpg,AFSA05.jpg,AFNE08.jpg,AFNE08.jpg,FN,3,num_4,48,None,,,,2018_Feb_07_1045,59.9967478861,FEMA4ImagesEEG,001,103080,
AFNE01.JPG,AFNE01.JPG,AFNE01.JPG,AFNE01.JPG,AFNE01.JPG,AFNE01.JPG,2,7,27,4,,,,,,,,,,,,,,,,,,,,,,,AFSA17.jpg,AFNE03.jpg,AFSA08.jpg,AFNE01.jpg,AFSA08.jpg,FS,4,num_2,48,None,,,,2018_Feb_07_1045,59.9967478861,FEMA4ImagesEEG,001,103080,
AFNE01.JPG,AFNE01.JPG,AFNE01.JPG,AFNE01.JPG,AFNE01.JPG,AFNE01.JPG,2,8,28,3,,,,,,,,,,,,,,,,,,,,,,,AFNE01.jpg,AFNE14.jpg,AFSA09.jpg,AFSA20.jpg,AFSA09.jpg,FS,4,num_2,48,None,,,,2018_Feb_07_1045,59.9967478861,FEMA4ImagesEEG,001,103080,
AFNE01.JPG,AFNE01.JPG,AFNE01.JPG,AFNE01.JPG,AFNE01.JPG,AFNE01.JPG,2,9,29,5,,,,,,,,,,,,,,,,,,,,,,,AFSA15.jpg,AFSA19.jpg,AFNE19.jpg,AFNE02.jpg,AFSA19.jpg,FS,4,num_6,48,None,,,,2018_Feb_07_1045,59.9967478861,FEMA4ImagesEEG,001,103080,
AFNE01.JPG,AFNE01.JPG,AFNE01.JPG,AFNE01.JPG,AFNE01.JPG,AFNE01.JPG,3,0,30,5,,,,,,,,,,,,,,,,,,,,,,,AFNE06.jpg,AFSA02.jpg,AFSA12.jpg,AFNE08.jpg,AFNE06.jpg,FN,3,num_8,48,None,,,,2018_Feb_07_1045,59.9967478861,FEMA4ImagesEEG,001,103080,
AFNE01.JPG,AFNE01.JPG,AFNE01.JPG,AFNE01.JPG,AFNE01.JPG,AFNE01.JPG,3,1,31,2,,,,,,,,,,,,,,,,,,,,,,,AFSA10.jpg,AFNE18.jpg,AFSA12.jpg,AFNE03.jpg,AFNE18.jpg,FN,3,num_6,48,None,,,,2018_Feb_07_1045,59.9967478861,FEMA4ImagesEEG,001,103080,
AFNE01.JPG,AFNE01.JPG,AFNE01.JPG,AFNE01.JPG,AFNE01.JPG,AFNE01.JPG,3,2,32,7,,,,,,,,,,,,,,,,,,,,,,,AFNE12.jpg,AFNE07.jpg,AFSA20.jpg,AFSA07.jpg,AFNE12.jpg,FN,3,num_8,48,None,,,,2018_Feb_07_1045,59.9967478861,FEMA4ImagesEEG,001,103080,
AFNE01.JPG,AFNE01.JPG,AFNE01.JPG,AFNE01.JPG,AFNE01.JPG,AFNE01.JPG,3,3,33,0,,,,,,,,,,,,,,,,,,,,,,,AFNE07.jpg,AFSA14.jpg,AFSA10.jpg,AFNE03.jpg,AFNE07.jpg,FN,3,num_8,48,None,,,,2018_Feb_07_1045,59.9967478861,FEMA4ImagesEEG,001,103080,
AFNE01.JPG,AFNE01.JPG,AFNE01.JPG,AFNE01.JPG,AFNE01.JPG,AFNE01.JPG,3,4,34,8,,,,,,,,,,,,,,,,,,,,,,,AFSA08.jpg,AFNE11.jpg,AFSA09.jpg,AFNE06.jpg,AFNE11.jpg,FN,3,num_6,48,None,,,,2018_Feb_07_1045,59.9967478861,FEMA4ImagesEEG,001,103080,
AFNE01.JPG,AFNE01.JPG,AFNE01.JPG,AFNE01.JPG,AFNE01.JPG,AFNE01.JPG,3,5,35,4,,,,,,,,,,,,,,,,,,,,,,,AFNE16.jpg,AFNE08.jpg,AFSA05.jpg,AFSA02.jpg,AFSA05.jpg,FS,4,num_2,48,None,,,,2018_Feb_07_1045,59.9967478861,FEMA4ImagesEEG,001,103080,
AFNE01.JPG,AFNE01.JPG,AFNE01.JPG,AFNE01.JPG,AFNE01.JPG,AFNE01.JPG,3,6,36,6,,,,,,,,,,,,,,,,,,,,,,,AFNE09.jpg,AFSA16.jpg,AFNE12.jpg,AFSA07.jpg,AFSA16.jpg,FS,4,num_6,48,None,,,,2018_Feb_07_1045,59.9967478861,FEMA4ImagesEEG,001,103080,
AFNE01.JPG,AFNE01.JPG,AFNE01.JPG,AFNE01.JPG,AFNE01.JPG,AFNE01.JPG,3,7,37,9,,,,,,,,,,,,,,,,,,,,,,,AFNE12.jpg,AFSA15.jpg,AFSA01.jpg,AFNE07.jpg,AFSA01.jpg,FS,4,num_2,32,num_4,1.51667667902,,,2018_Feb_07_1045,59.9967478861,FEMA4ImagesEEG,001,103080,
AFNE01.JPG,AFNE01.JPG,AFNE01.JPG,AFNE01.JPG,AFNE01.JPG,AFNE01.JPG,3,8,38,3,,,,,,,,,,,,,,,,,,,,,,,AFSA07.jpg,AFSA06.jpg,AFNE11.jpg,AFNE02.jpg,AFNE02.jpg,FN,3,num_4,48,None,,,,2018_Feb_07_1045,59.9967478861,FEMA4ImagesEEG,001,103080,
AFNE01.JPG,AFNE01.JPG,AFNE01.JPG,AFNE01.JPG,AFNE01.JPG,AFNE01.JPG,3,9,39,1,,,,,,,,,,,,,,,,,,,,,,,AFNE17.jpg,AFNE19.jpg,AFSA05.jpg,AFSA07.jpg,AFSA07.jpg,FS,4,num_4,32,num_6,3.53325761738,,,2018_Feb_07_1045,59.9967478861,FEMA4ImagesEEG,001,103080,
AFNE01.JPG,AFNE01.JPG,AFNE01.JPG,AFNE01.JPG,AFNE01.JPG,AFNE01.JPG,4,0,40,1,,,,,,,,,,,,,,,,,,,,,,,AFNE15.jpg,AFNE19.jpg,AFSA01.jpg,AFSA15.jpg,AFSA01.jpg,FS,4,num_2,48,None,,,,2018_Feb_07_1045,59.9967478861,FEMA4ImagesEEG,001,103080,
AFNE01.JPG,AFNE01.JPG,AFNE01.JPG,AFNE01.JPG,AFNE01.JPG,AFNE01.JPG,4,1,41,3,,,,,,,,,,,,,,,,,,,,,,,AFSA12.jpg,AFNE04.jpg,AFNE05.jpg,AFSA11.jpg,AFSA11.jpg,FS,4,num_4,16,num_4,3.76623975206,,,2018_Feb_07_1045,59.9967478861,FEMA4ImagesEEG,001,103080,
AFNE01.JPG,AFNE01.JPG,AFNE01.JPG,AFNE01.JPG,AFNE01.JPG,AFNE01.JPG,4,2,42,9,,,,,,,,,,,,,,,,,,,,,,,AFSA13.jpg,AFNE12.jpg,AFNE04.jpg,AFSA08.jpg,AFSA13.jpg,FS,4,num_8,48,None,,,,2018_Feb_07_1045,59.9967478861,FEMA4ImagesEEG,001,103080,
AFNE01.JPG,AFNE01.JPG,AFNE01.JPG,AFNE01.JPG,AFNE01.JPG,AFNE01.JPG,4,3,43,5,,,,,,,,,,,,,,,,,,,,,,,AFNE09.jpg,AFSA14.jpg,AFSA10.jpg,AFNE03.jpg,AFSA10.jpg,FS,4,num_2,48,None,,,,2018_Feb_07_1045,59.9967478861,FEMA4ImagesEEG,001,103080,
AFNE01.JPG,AFNE01.JPG,AFNE01.JPG,AFNE01.JPG,AFNE01.JPG,AFNE01.JPG,4,4,44,2,,,,,,,,,,,,,,,,,,,,,,,AFSA14.jpg,AFNE04.jpg,AFNE11.jpg,AFSA06.jpg,AFNE04.jpg,FN,3,num_6,48,None,,,,2018_Feb_07_1045,59.9967478861,FEMA4ImagesEEG,001,103080,
AFNE01.JPG,AFNE01.JPG,AFNE01.JPG,AFNE01.JPG,AFNE01.JPG,AFNE01.JPG,4,5,45,8,,,,,,,,,,,,,,,,,,,,,,,AFNE02.jpg,AFNE08.jpg,AFSA18.jpg,AFSA14.jpg,AFSA14.jpg,FS,4,num_4,48,None,,,,2018_Feb_07_1045,59.9967478861,FEMA4ImagesEEG,001,103080,
AFNE01.JPG,AFNE01.JPG,AFNE01.JPG,AFNE01.JPG,AFNE01.JPG,AFNE01.JPG,4,6,46,4,,,,,,,,,,,,,,,,,,,,,,,AFSA10.jpg,AFSA06.jpg,AFNE20.jpg,AFNE05.jpg,AFSA06.jpg,FS,4,num_6,48,None,,,,2018_Feb_07_1045,59.9967478861,FEMA4ImagesEEG,001,103080,
AFNE01.JPG,AFNE01.JPG,AFNE01.JPG,AFNE01.JPG,AFNE01.JPG,AFNE01.JPG,4,7,47,7,,,,,,,,,,,,,,,,,,,,,,,AFNE13.jpg,AFSA11.jpg,AFSA05.jpg,AFNE06.jpg,AFSA11.jpg,FS,4,num_6,48,None,,,,2018_Feb_07_1045,59.9967478861,FEMA4ImagesEEG,001,103080,
AFNE01.JPG,AFNE01.JPG,AFNE01.JPG,AFNE01.JPG,AFNE01.JPG,AFNE01.JPG,4,8,48,6,,,,,,,,,,,,,,,,,,,,,,,AFNE03.jpg,AFSA02.jpg,AFSA10.jpg,AFNE18.jpg,AFSA02.jpg,FS,4,num_6,48,None,,,,2018_Feb_07_1045,59.9967478861,FEMA4ImagesEEG,001,103080,
AFNE01.JPG,AFNE01.JPG,AFNE01.JPG,AFNE01.JPG,AFNE01.JPG,AFNE01.JPG,4,9,49,0,,,,,,,,,,,,,,,,,,,,,,,AFNE08.jpg,AFSA18.jpg,AFNE03.jpg,AFSA04.jpg,AFSA18.jpg,FS,4,num_6,48,None,,,,2018_Feb_07_1045,59.9967478861,FEMA4ImagesEEG,001,103080,
AFNE01.JPG,AFNE01.JPG,AFNE01.JPG,AFNE01.JPG,AFNE01.JPG,AFNE01.JPG,5,0,50,9,,,,,,,,,,,,,,,,,,,,,,,AFNE12.jpg,AFNE03.jpg,AFSA02.jpg,AFSA05.jpg,AFNE03.jpg,FN,3,num_6,48,None,,,,2018_Feb_07_1045,59.9967478861,FEMA4ImagesEEG,001,103080,
AFNE01.JPG,AFNE01.JPG,AFNE01.JPG,AFNE01.JPG,AFNE01.JPG,AFNE01.JPG,5,1,51,3,,,,,,,,,,,,,,,,,,,,,,,AFSA09.jpg,AFNE15.jpg,AFNE12.jpg,AFSA06.jpg,AFNE12.jpg,FN,3,num_2,48,None,,,,2018_Feb_07_1045,59.9967478861,FEMA4ImagesEEG,001,103080,
AFNE01.JPG,AFNE01.JPG,AFNE01.JPG,AFNE01.JPG,AFNE01.JPG,AFNE01.JPG,5,2,52,6,,,,,,,,,,,,,,,,,,,,,,,AFSA03.jpg,AFSA15.jpg,AFNE03.jpg,AFNE02.jpg,AFSA03.jpg,FS,4,num_8,48,None,,,,2018_Feb_07_1045,59.9967478861,FEMA4ImagesEEG,001,103080,
AFNE01.JPG,AFNE01.JPG,AFNE01.JPG,AFNE01.JPG,AFNE01.JPG,AFNE01.JPG,5,3,53,2,,,,,,,,,,,,,,,,,,,,,,,AFSA20.jpg,AFNE20.jpg,AFNE04.jpg,AFSA14.jpg,AFSA20.jpg,FS,4,num_8,48,None,,,,2018_Feb_07_1045,59.9967478861,FEMA4ImagesEEG,001,103080,
AFNE01.JPG,AFNE01.JPG,AFNE01.JPG,AFNE01.JPG,AFNE01.JPG,AFNE01.JPG,5,4,54,4,,,,,,,,,,,,,,,,,,,,,,,AFSA13.jpg,AFNE18.jpg,AFNE03.jpg,AFSA17.jpg,AFNE03.jpg,FN,3,num_2,32,num_4,4.01655399636,,,2018_Feb_07_1045,59.9967478861,FEMA4ImagesEEG,001,103080,
AFNE01.JPG,AFNE01.JPG,AFNE01.JPG,AFNE01.JPG,AFNE01.JPG,AFNE01.JPG,5,5,55,5,,,,,,,,,,,,,,,,,,,,,,,AFSA20.jpg,AFNE06.jpg,AFSA17.jpg,AFNE03.jpg,AFSA17.jpg,FS,4,num_2,48,None,,,,2018_Feb_07_1045,59.9967478861,FEMA4ImagesEEG,001,103080,
AFNE01.JPG,AFNE01.JPG,AFNE01.JPG,AFNE01.JPG,AFNE01.JPG,AFNE01.JPG,5,6,56,1,,,,,,,,,,,,,,,,,,,,,,,AFNE13.jpg,AFNE10.jpg,AFSA15.jpg,AFSA08.jpg,AFNE10.jpg,FN,3,num_6,48,None,,,,2018_Feb_07_1045,59.9967478861,FEMA4ImagesEEG,001,103080,
AFNE01.JPG,AFNE01.JPG,AFNE01.JPG,AFNE01.JPG,AFNE01.JPG,AFNE01.JPG,5,7,57,0,,,,,,,,,,,,,,,,,,,,,,,AFSA02.jpg,AFNE18.jpg,AFSA08.jpg,AFNE06.jpg,AFNE18.jpg,FN,3,num_6,48,None,,,,2018_Feb_07_1045,59.9967478861,FEMA4ImagesEEG,001,103080,
AFNE01.JPG,AFNE01.JPG,AFNE01.JPG,AFNE01.JPG,AFNE01.JPG,AFNE01.JPG,5,8,58,7,,,,,,,,,,,,,,,,,,,,,,,AFSA13.jpg,AFNE07.jpg,AFNE09.jpg,AFSA09.jpg,AFSA09.jpg,FS,4,num_4,16,num_4,1.18340321723,,,2018_Feb_07_1045,59.9967478861,FEMA4ImagesEEG,001,103080,
AFNE01.JPG,AFNE01.JPG,AFNE01.JPG,AFNE01.JPG,AFNE01.JPG,AFNE01.JPG,5,9,59,8,,,,,,,,,,,,,,,,,,,,,,,AFNE16.jpg,AFNE11.jpg,AFSA14.jpg,AFSA09.jpg,AFNE11.jpg,FN,3,num_6,32,num_8,0.933439220069,,,2018_Feb_07_1045,59.9967478861,FEMA4ImagesEEG,001,103080,
,,,,,,,,,,,,,,,,,,,,,,,,,,,,,,,,,,,,,,,,,,,space,6.74935058318,2018_Feb_07_1045,59.9967478861,FEMA4ImagesEEG,001,103080,
AFNE01.JPG,AFNE01.JPG,AFNE01.JPG,AFNE01.JPG,AFNE01.JPG,AFNE01.JPG,,,,,0,0,0,2,,,,,,,,,,,,,,,,,,,AMSA12.jpg,AMNE16.jpg,AMSA09.jpg,AMNE17.jpg,AMNE17.jpg,MN,1,num_4,48,None,,,,2018_Feb_07_1045,59.9967478861,FEMA4ImagesEEG,001,103080,
AFNE01.JPG,AFNE01.JPG,AFNE01.JPG,AFNE01.JPG,AFNE01.JPG,AFNE01.JPG,,,,,0,1,1,0,,,,,,,,,,,,,,,,,,,AMSA08.jpg,AMNE12.jpg,AMSA16.jpg,AMNE05.jpg,AMNE12.jpg,MN,1,num_6,48,None,,,,2018_Feb_07_1045,59.9967478861,FEMA4ImagesEEG,001,103080,
AFNE01.JPG,AFNE01.JPG,AFNE01.JPG,AFNE01.JPG,AFNE01.JPG,AFNE01.JPG,,,,,0,2,2,9,,,,,,,,,,,,,,,,,,,AMNE03.jpg,AMSA07.jpg,AMNE12.jpg,AMSA04.jpg,AMSA04.jpg,MS,2,num_4,48,None,,,,2018_Feb_07_1045,59.9967478861,FEMA4ImagesEEG,001,103080,
AFNE01.JPG,AFNE01.JPG,AFNE01.JPG,AFNE01.JPG,AFNE01.JPG,AFNE01.JPG,,,,,0,3,3,7,,,,,,,,,,,,,,,,,,,AMSA12.jpg,AMSA17.jpg,AMNE10.jpg,AMNE12.jpg,AMNE10.jpg,MN,1,num_2,48,None,,,,2018_Feb_07_1045,59.9967478861,FEMA4ImagesEEG,001,103080,
AFNE01.JPG,AFNE01.JPG,AFNE01.JPG,AFNE01.JPG,AFNE01.JPG,AFNE01.JPG,,,,,0,4,4,3,,,,,,,,,,,,,,,,,,,AMSA16.jpg,AMNE20.jpg,AMSA12.jpg,AMNE08.jpg,AMSA16.jpg,MS,2,num_8,32,num_2,1.51670650789,,,2018_Feb_07_1045,59.9967478861,FEMA4ImagesEEG,001,103080,
AFNE01.JPG,AFNE01.JPG,AFNE01.JPG,AFNE01.JPG,AFNE01.JPG,AFNE01.JPG,,,,,0,5,5,8,,,,,,,,,,,,,,,,,,,AMSA11.jpg,AMNE19.jpg,AMNE01.jpg,AMSA01.jpg,AMSA11.jpg,MS,2,num_8,48,None,,,,2018_Feb_07_1045,59.9967478861,FEMA4ImagesEEG,001,103080,
AFNE01.JPG,AFNE01.JPG,AFNE01.JPG,AFNE01.JPG,AFNE01.JPG,AFNE01.JPG,,,,,0,6,6,1,,,,,,,,,,,,,,,,,,,AMNE19.jpg,AMSA12.jpg,AMSA09.jpg,AMNE05.jpg,AMSA12.jpg,MS,2,num_6,32,num_8,4.26650740881,,,2018_Feb_07_1045,59.9967478861,FEMA4ImagesEEG,001,103080,
AFNE01.JPG,AFNE01.JPG,AFNE01.JPG,AFNE01.JPG,AFNE01.JPG,AFNE01.JPG,,,,,0,7,7,6,,,,,,,,,,,,,,,,,,,AMNE06.jpg,AMSA10.jpg,AMNE13.jpg,AMSA15.jpg,AMSA10.jpg,MS,2,num_6,32,num_8,1.45032694563,,,2018_Feb_07_1045,59.9967478861,FEMA4ImagesEEG,001,103080,
AFNE01.JPG,AFNE01.JPG,AFNE01.JPG,AFNE01.JPG,AFNE01.JPG,AFNE01.JPG,,,,,0,8,8,4,,,,,,,,,,,,,,,,,,,AMNE18.jpg,AMSA10.jpg,AMNE12.jpg,AMSA15.jpg,AMNE18.jpg,MN,1,num_8,48,None,,,,2018_Feb_07_1045,59.9967478861,FEMA4ImagesEEG,001,103080,
AFNE01.JPG,AFNE01.JPG,AFNE01.JPG,AFNE01.JPG,AFNE01.JPG,AFNE01.JPG,,,,,0,9,9,5,,,,,,,,,,,,,,,,,,,AMSA04.jpg,AMNE17.jpg,AMNE10.jpg,AMSA06.jpg,AMNE17.jpg,MN,1,num_6,48,None,,,,2018_Feb_07_1045,59.9967478861,FEMA4ImagesEEG,001,103080,
AFNE01.JPG,AFNE01.JPG,AFNE01.JPG,AFNE01.JPG,AFNE01.JPG,AFNE01.JPG,,,,,1,0,10,1,,,,,,,,,,,,,,,,,,,AMSA20.jpg,AMSA12.jpg,AMNE05.jpg,AMNE02.jpg,AMNE02.jpg,MN,1,num_4,48,None,,,,2018_Feb_07_1045,59.9967478861,FEMA4ImagesEEG,001,103080,
AFNE01.JPG,AFNE01.JPG,AFNE01.JPG,AFNE01.JPG,AFNE01.JPG,AFNE01.JPG,,,,,1,1,11,8,,,,,,,,,,,,,,,,,,,AMNE06.jpg,AMSA18.jpg,AMSA16.jpg,AMNE04.jpg,AMNE06.jpg,MN,1,num_8,48,None,,,,2018_Feb_07_1045,59.9967478861,FEMA4ImagesEEG,001,103080,
AFNE01.JPG,AFNE01.JPG,AFNE01.JPG,AFNE01.JPG,AFNE01.JPG,AFNE01.JPG,,,,,1,2,12,3,,,,,,,,,,,,,,,,,,,AMSA19.jpg,AMNE19.jpg,AMNE14.jpg,AMSA14.jpg,AMSA19.jpg,MS,2,num_8,32,num_4,0.600183398696,,,2018_Feb_07_1045,59.9967478861,FEMA4ImagesEEG,001,103080,
AFNE01.JPG,AFNE01.JPG,AFNE01.JPG,AFNE01.JPG,AFNE01.JPG,AFNE01.JPG,,,,,1,3,13,7,,,,,,,,,,,,,,,,,,,AMSA15.jpg,AMNE04.jpg,AMNE09.jpg,AMSA08.jpg,AMSA15.jpg,MS,2,num_8,48,None,,,,2018_Feb_07_1045,59.9967478861,FEMA4ImagesEEG,001,103080,
AFNE01.JPG,AFNE01.JPG,AFNE01.JPG,AFNE01.JPG,AFNE01.JPG,AFNE01.JPG,,,,,1,4,14,0,,,,,,,,,,,,,,,,,,,AMSA06.jpg,AMNE17.jpg,AMNE15.jpg,AMSA03.jpg,AMNE17.jpg,MN,1,num_6,16,num_6,1.13349329657,,,2018_Feb_07_1045,59.9967478861,FEMA4ImagesEEG,001,103080,
AFNE01.JPG,AFNE01.JPG,AFNE01.JPG,AFNE01.JPG,AFNE01.JPG,AFNE01.JPG,,,,,1,5,15,4,,,,,,,,,,,,,,,,,,,AMSA18.jpg,AMNE15.jpg,AMSA19.jpg,AMNE12.jpg,AMNE15.jpg,MN,1,num_6,48,None,,,,2018_Feb_07_1045,59.9967478861,FEMA4ImagesEEG,001,103080,
AFNE01.JPG,AFNE01.JPG,AFNE01.JPG,AFNE01.JPG,AFNE01.JPG,AFNE01.JPG,,,,,1,6,16,2,,,,,,,,,,,,,,,,,,,AMSA09.jpg,AMSA15.jpg,AMNE17.jpg,AMNE15.jpg,AMNE17.jpg,MN,1,num_2,48,None,,,,2018_Feb_07_1045,59.9967478861,FEMA4ImagesEEG,001,103080,
AFNE01.JPG,AFNE01.JPG,AFNE01.JPG,AFNE01.JPG,AFNE01.JPG,AFNE01.JPG,,,,,1,7,17,9,,,,,,,,,,,,,,,,,,,AMSA03.jpg,AMSA08.jpg,AMNE06.jpg,AMNE14.jpg,AMNE06.jpg,MN,1,num_2,48,None,,,,2018_Feb_07_1045,59.9967478861,FEMA4ImagesEEG,001,103080,
AFNE01.JPG,AFNE01.JPG,AFNE01.JPG,AFNE01.JPG,AFNE01.JPG,AFNE01.JPG,,,,,1,8,18,6,,,,,,,,,,,,,,,,,,,AMNE19.jpg,AMSA07.jpg,AMNE14.jpg,AMSA18.jpg,AMSA18.jpg,MS,2,num_4,48,None,,,,2018_Feb_07_1045,59.9967478861,FEMA4ImagesEEG,001,103080,
AFNE01.JPG,AFNE01.JPG,AFNE01.JPG,AFNE01.JPG,AFNE01.JPG,AFNE01.JPG,,,,,1,9,19,5,,,,,,,,,,,,,,,,,,,AMNE12.jpg,AMSA05.jpg,AMNE06.jpg,AMSA18.jpg,AMNE12.jpg,MN,1,num_8,48,None,,,,2018_Feb_07_1045,59.9967478861,FEMA4ImagesEEG,001,103080,
AFNE01.JPG,AFNE01.JPG,AFNE01.JPG,AFNE01.JPG,AFNE01.JPG,AFNE01.JPG,,,,,2,0,20,3,,,,,,,,,,,,,,,,,,,AMSA01.jpg,AMSA14.jpg,AMNE08.jpg,AMNE09.jpg,AMNE09.jpg,MN,1,num_4,48,None,,,,2018_Feb_07_1045,59.9967478861,FEMA4ImagesEEG,001,103080,
AFNE01.JPG,AFNE01.JPG,AFNE01.JPG,AFNE01.JPG,AFNE01.JPG,AFNE01.JPG,,,,,2,1,21,6,,,,,,,,,,,,,,,,,,,AMSA05.jpg,AMNE13.jpg,AMNE09.jpg,AMSA17.jpg,AMSA05.jpg,MS,2,num_8,48,None,,,,2018_Feb_07_1045,59.9967478861,FEMA4ImagesEEG,001,103080,
AFNE01.JPG,AFNE01.JPG,AFNE01.JPG,AFNE01.JPG,AFNE01.JPG,AFNE01.JPG,,,,,2,2,22,2,,,,,,,,,,,,,,,,,,,AMNE05.jpg,AMNE14.jpg,AMSA10.jpg,AMSA01.jpg,AMSA01.jpg,MS,2,num_4,48,None,,,,2018_Feb_07_1045,59.9967478861,FEMA4ImagesEEG,001,103080,
AFNE01.JPG,AFNE01.JPG,AFNE01.JPG,AFNE01.JPG,AFNE01.JPG,AFNE01.JPG,,,,,2,3,23,4,,,,,,,,,,,,,,,,,,,AMNE17.jpg,AMNE09.jpg,AMSA09.jpg,AMSA18.jpg,AMSA09.jpg,MS,2,num_2,48,None,,,,2018_Feb_07_1045,59.9967478861,FEMA4ImagesEEG,001,103080,
AFNE01.JPG,AFNE01.JPG,AFNE01.JPG,AFNE01.JPG,AFNE01.JPG,AFNE01.JPG,,,,,2,4,24,0,,,,,,,,,,,,,,,,,,,AMNE10.jpg,AMSA15.jpg,AMSA18.jpg,AMNE07.jpg,AMSA15.jpg,MS,2,num_6,48,None,,,,2018_Feb_07_1045,59.9967478861,FEMA4ImagesEEG,001,103080,
AFNE01.JPG,AFNE01.JPG,AFNE01.JPG,AFNE01.JPG,AFNE01.JPG,AFNE01.JPG,,,,,2,5,25,1,,,,,,,,,,,,,,,,,,,AMSA07.jpg,AMNE06.jpg,AMSA06.jpg,AMNE15.jpg,AMSA07.jpg,MS,2,num_8,48,None,,,,2018_Feb_07_1045,59.9967478861,FEMA4ImagesEEG,001,103080,
AFNE01.JPG,AFNE01.JPG,AFNE01.JPG,AFNE01.JPG,AFNE01.JPG,AFNE01.JPG,,,,,2,6,26,9,,,,,,,,,,,,,,,,,,,AMSA07.jpg,AMNE18.jpg,AMNE17.jpg,AMSA11.jpg,AMNE18.jpg,MN,1,num_6,32,num_4,1.16683350457,,,2018_Feb_07_1045,59.9967478861,FEMA4ImagesEEG,001,103080,
AFNE01.JPG,AFNE01.JPG,AFNE01.JPG,AFNE01.JPG,AFNE01.JPG,AFNE01.JPG,,,,,2,7,27,8,,,,,,,,,,,,,,,,,,,AMSA12.jpg,AMNE04.jpg,AMSA10.jpg,AMNE01.jpg,AMSA12.jpg,MS,2,num_8,48,None,,,,2018_Feb_07_1045,59.9967478861,FEMA4ImagesEEG,001,103080,
AFNE01.JPG,AFNE01.JPG,AFNE01.JPG,AFNE01.JPG,AFNE01.JPG,AFNE01.JPG,,,,,2,8,28,5,,,,,,,,,,,,,,,,,,,AMSA07.jpg,AMNE07.jpg,AMSA02.jpg,AMNE06.jpg,AMNE07.jpg,MN,1,num_6,32,num_4,1.65015041083,,,2018_Feb_07_1045,59.9967478861,FEMA4ImagesEEG,001,103080,
AFNE01.JPG,AFNE01.JPG,AFNE01.JPG,AFNE01.JPG,AFNE01.JPG,AFNE01.JPG,,,,,2,9,29,7,,,,,,,,,,,,,,,,,,,AMNE08.jpg,AMSA13.jpg,AMSA16.jpg,AMNE06.jpg,AMNE08.jpg,MN,1,num_8,48,None,,,,2018_Feb_07_1045,59.9967478861,FEMA4ImagesEEG,001,103080,
AFNE01.JPG,AFNE01.JPG,AFNE01.JPG,AFNE01.JPG,AFNE01.JPG,AFNE01.JPG,,,,,3,0,30,8,,,,,,,,,,,,,,,,,,,AMSA11.jpg,AMSA08.jpg,AMNE15.jpg,AMNE17.jpg,AMSA08.jpg,MS,2,num_6,48,None,,,,2018_Feb_07_1045,59.9967478861,FEMA4ImagesEEG,001,103080,
AFNE01.JPG,AFNE01.JPG,AFNE01.JPG,AFNE01.JPG,AFNE01.JPG,AFNE01.JPG,,,,,3,1,31,5,,,,,,,,,,,,,,,,,,,AMNE12.jpg,AMNE10.jpg,AMSA12.jpg,AMSA02.jpg,AMNE10.jpg,MN,1,num_6,48,None,,,,2018_Feb_07_1045,59.9967478861,FEMA4ImagesEEG,001,103080,
AFNE01.JPG,AFNE01.JPG,AFNE01.JPG,AFNE01.JPG,AFNE01.JPG,AFNE01.JPG,,,,,3,2,32,9,,,,,,,,,,,,,,,,,,,AMNE03.jpg,AMNE01.jpg,AMSA03.jpg,AMSA20.jpg,AMNE01.jpg,MN,1,num_6,32,num_8,1.43340730644,,,2018_Feb_07_1045,59.9967478861,FEMA4ImagesEEG,001,103080,
AFNE01.JPG,AFNE01.JPG,AFNE01.JPG,AFNE01.JPG,AFNE01.JPG,AFNE01.JPG,,,,,3,3,33,3,,,,,,,,,,,,,,,,,,,AMSA03.jpg,AMNE17.jpg,AMNE05.jpg,AMSA17.jpg,AMSA03.jpg,MS,2,num_8,48,None,,,,2018_Feb_07_1045,59.9967478861,FEMA4ImagesEEG,001,103080,
AFNE01.JPG,AFNE01.JPG,AFNE01.JPG,AFNE01.JPG,AFNE01.JPG,AFNE01.JPG,,,,,3,4,34,7,,,,,,,,,,,,,,,,,,,AMSA02.jpg,AMNE10.jpg,AMSA14.jpg,AMNE07.jpg,AMSA02.jpg,MS,2,num_8,48,None,,,,2018_Feb_07_1045,59.9967478861,FEMA4ImagesEEG,001,103080,
AFNE01.JPG,AFNE01.JPG,AFNE01.JPG,AFNE01.JPG,AFNE01.JPG,AFNE01.JPG,,,,,3,5,35,4,,,,,,,,,,,,,,,,,,,AMNE05.jpg,AMNE08.jpg,AMSA07.jpg,AMSA20.jpg,AMNE05.jpg,MN,1,num_8,48,None,,,,2018_Feb_07_1045,59.9967478861,FEMA4ImagesEEG,001,103080,
AFNE01.JPG,AFNE01.JPG,AFNE01.JPG,AFNE01.JPG,AFNE01.JPG,AFNE01.JPG,,,,,3,6,36,2,,,,,,,,,,,,,,,,,,,AMNE15.jpg,AMSA05.jpg,AMNE07.jpg,AMSA10.jpg,AMSA05.jpg,MS,2,num_6,48,None,,,,2018_Feb_07_1045,59.9967478861,FEMA4ImagesEEG,001,103080,
AFNE01.JPG,AFNE01.JPG,AFNE01.JPG,AFNE01.JPG,AFNE01.JPG,AFNE01.JPG,,,,,3,7,37,6,,,,,,,,,,,,,,,,,,,AMSA20.jpg,AMSA19.jpg,AMNE08.jpg,AMNE02.jpg,AMNE08.jpg,MN,1,num_2,48,None,,,,2018_Feb_07_1045,59.9967478861,FEMA4ImagesEEG,001,103080,
AFNE01.JPG,AFNE01.JPG,AFNE01.JPG,AFNE01.JPG,AFNE01.JPG,AFNE01.JPG,,,,,3,8,38,0,,,,,,,,,,,,,,,,,,,AMNE16.jpg,AMSA03.jpg,AMSA09.jpg,AMNE11.jpg,AMNE16.jpg,MN,1,num_8,48,None,,,,2018_Feb_07_1045,59.9967478861,FEMA4ImagesEEG,001,103080,
AFNE01.JPG,AFNE01.JPG,AFNE01.JPG,AFNE01.JPG,AFNE01.JPG,AFNE01.JPG,,,,,3,9,39,1,,,,,,,,,,,,,,,,,,,AMNE07.jpg,AMNE20.jpg,AMSA06.jpg,AMSA20.jpg,AMNE20.jpg,MN,1,num_6,48,None,,,,2018_Feb_07_1045,59.9967478861,FEMA4ImagesEEG,001,103080,
AFNE01.JPG,AFNE01.JPG,AFNE01.JPG,AFNE01.JPG,AFNE01.JPG,AFNE01.JPG,,,,,4,0,40,4,,,,,,,,,,,,,,,,,,,AMNE11.jpg,AMSA06.jpg,AMSA17.jpg,AMNE12.jpg,AMNE11.jpg,MN,1,num_8,32,num_4,0.833625473548,,,2018_Feb_07_1045,59.9967478861,FEMA4ImagesEEG,001,103080,
AFNE01.JPG,AFNE01.JPG,AFNE01.JPG,AFNE01.JPG,AFNE01.JPG,AFNE01.JPG,,,,,4,1,41,6,,,,,,,,,,,,,,,,,,,AMSA14.jpg,AMNE07.jpg,AMSA01.jpg,AMNE03.jpg,AMNE07.jpg,MN,1,num_6,48,None,,,,2018_Feb_07_1045,59.9967478861,FEMA4ImagesEEG,001,103080,
AFNE01.JPG,AFNE01.JPG,AFNE01.JPG,AFNE01.JPG,AFNE01.JPG,AFNE01.JPG,,,,,4,2,42,1,,,,,,,,,,,,,,,,,,,AMNE18.jpg,AMSA05.jpg,AMNE05.jpg,AMSA18.jpg,AMSA18.jpg,MS,2,num_4,48,None,,,,2018_Feb_07_1045,59.9967478861,FEMA4ImagesEEG,001,103080,
AFNE01.JPG,AFNE01.JPG,AFNE01.JPG,AFNE01.JPG,AFNE01.JPG,AFNE01.JPG,,,,,4,3,43,5,,,,,,,,,,,,,,,,,,,AMNE13.jpg,AMSA07.jpg,AMNE08.jpg,AMSA06.jpg,AMSA07.jpg,MS,2,num_6,48,None,,,,2018_Feb_07_1045,59.9967478861,FEMA4ImagesEEG,001,103080,
AFNE01.JPG,AFNE01.JPG,AFNE01.JPG,AFNE01.JPG,AFNE01.JPG,AFNE01.JPG,,,,,4,4,44,9,,,,,,,,,,,,,,,,,,,AMSA13.jpg,AMNE16.jpg,AMNE07.jpg,AMSA14.jpg,AMNE16.jpg,MN,1,num_6,48,None,,,,2018_Feb_07_1045,59.9967478861,FEMA4ImagesEEG,001,103080,
AFNE01.JPG,AFNE01.JPG,AFNE01.JPG,AFNE01.JPG,AFNE01.JPG,AFNE01.JPG,,,,,4,5,45,0,,,,,,,,,,,,,,,,,,,AMSA01.jpg,AMNE19.jpg,AMNE05.jpg,AMSA04.jpg,AMNE19.jpg,MN,1,num_6,48,None,,,,2018_Feb_07_1045,59.9967478861,FEMA4ImagesEEG,001,103080,
AFNE01.JPG,AFNE01.JPG,AFNE01.JPG,AFNE01.JPG,AFNE01.JPG,AFNE01.JPG,,,,,4,6,46,7,,,,,,,,,,,,,,,,,,,AMNE09.jpg,AMSA02.jpg,AMNE02.jpg,AMSA04.jpg,AMNE09.jpg,MN,1,num_8,48,None,,,,2018_Feb_07_1045,59.9967478861,FEMA4ImagesEEG,001,103080,
AFNE01.JPG,AFNE01.JPG,AFNE01.JPG,AFNE01.JPG,AFNE01.JPG,AFNE01.JPG,,,,,4,7,47,8,,,,,,,,,,,,,,,,,,,AMNE12.jpg,AMSA20.jpg,AMNE13.jpg,AMSA19.jpg,AMNE13.jpg,MN,1,num_2,48,None,,,,2018_Feb_07_1045,59.9967478861,FEMA4ImagesEEG,001,103080,
AFNE01.JPG,AFNE01.JPG,AFNE01.JPG,AFNE01.JPG,AFNE01.JPG,AFNE01.JPG,,,,,4,8,48,2,,,,,,,,,,,,,,,,,,,AMNE06.jpg,AMSA03.jpg,AMNE05.jpg,AMSA18.jpg,AMSA18.jpg,MS,2,num_4,48,None,,,,2018_Feb_07_1045,59.9967478861,FEMA4ImagesEEG,001,103080,
AFNE01.JPG,AFNE01.JPG,AFNE01.JPG,AFNE01.JPG,AFNE01.JPG,AFNE01.JPG,,,,,4,9,49,3,,,,,,,,,,,,,,,,,,,AMSA05.jpg,AMNE11.jpg,AMSA10.jpg,AMNE03.jpg,AMSA05.jpg,MS,2,num_8,48,None,,,,2018_Feb_07_1045,59.9967478861,FEMA4ImagesEEG,001,103080,
AFNE01.JPG,AFNE01.JPG,AFNE01.JPG,AFNE01.JPG,AFNE01.JPG,AFNE01.JPG,,,,,5,0,50,7,,,,,,,,,,,,,,,,,,,AMSA14.jpg,AMSA08.jpg,AMNE01.jpg,AMNE12.jpg,AMSA14.jpg,MS,2,num_8,48,None,,,,2018_Feb_07_1045,59.9967478861,FEMA4ImagesEEG,001,103080,
AFNE01.JPG,AFNE01.JPG,AFNE01.JPG,AFNE01.JPG,AFNE01.JPG,AFNE01.JPG,,,,,5,1,51,1,,,,,,,,,,,,,,,,,,,AMNE05.jpg,AMSA07.jpg,AMSA19.jpg,AMNE02.jpg,AMNE05.jpg,MN,1,num_8,32,num_2,1.25012019719,,,2018_Feb_07_1045,59.9967478861,FEMA4ImagesEEG,001,103080,
AFNE01.JPG,AFNE01.JPG,AFNE01.JPG,AFNE01.JPG,AFNE01.JPG,AFNE01.JPG,,,,,5,2,52,4,,,,,,,,,,,,,,,,,,,AMNE08.jpg,AMSA13.jpg,AMSA09.jpg,AMNE18.jpg,AMNE18.jpg,MN,1,num_4,32,num_8,1.95001823409,,,2018_Feb_07_1045,59.9967478861,FEMA4ImagesEEG,001,103080,
AFNE01.JPG,AFNE01.JPG,AFNE01.JPG,AFNE01.JPG,AFNE01.JPG,AFNE01.JPG,,,,,5,3,53,8,,,,,,,,,,,,,,,,,,,AMSA02.jpg,AMSA05.jpg,AMNE02.jpg,AMNE12.jpg,AMSA02.jpg,MS,2,num_8,48,None,,,,2018_Feb_07_1045,59.9967478861,FEMA4ImagesEEG,001,103080,
AFNE01.JPG,AFNE01.JPG,AFNE01.JPG,AFNE01.JPG,AFNE01.JPG,AFNE01.JPG,,,,,5,4,54,3,,,,,,,,,,,,,,,,,,,AMSA18.jpg,AMNE04.jpg,AMSA11.jpg,AMNE20.jpg,AMNE04.jpg,MN,1,num_6,32,num_8,1.15010310174,,,2018_Feb_07_1045,59.9967478861,FEMA4ImagesEEG,001,103080,
AFNE01.JPG,AFNE01.JPG,AFNE01.JPG,AFNE01.JPG,AFNE01.JPG,AFNE01.JPG,,,,,5,5,55,0,,,,,,,,,,,,,,,,,,,AMSA08.jpg,AMSA20.jpg,AMNE14.jpg,AMNE02.jpg,AMSA08.jpg,MS,2,num_8,48,None,,,,2018_Feb_07_1045,59.9967478861,FEMA4ImagesEEG,001,103080,
AFNE01.JPG,AFNE01.JPG,AFNE01.JPG,AFNE01.JPG,AFNE01.JPG,AFNE01.JPG,,,,,5,6,56,6,,,,,,,,,,,,,,,,,,,AMNE08.jpg,AMSA18.jpg,AMSA20.jpg,AMNE07.jpg,AMNE08.jpg,MN,1,num_8,16,num_8,1.91673062742,,,2018_Feb_07_1045,59.9967478861,FEMA4ImagesEEG,001,103080,
AFNE01.JPG,AFNE01.JPG,AFNE01.JPG,AFNE01.JPG,AFNE01.JPG,AFNE01.JPG,,,,,5,7,57,5,,,,,,,,,,,,,,,,,,,AMSA11.jpg,AMSA13.jpg,AMNE08.jpg,AMNE02.jpg,AMNE08.jpg,MN,1,num_2,32,num_4,2.81634532334,,,2018_Feb_07_1045,59.9967478861,FEMA4ImagesEEG,001,103080,
AFNE01.JPG,AFNE01.JPG,AFNE01.JPG,AFNE01.JPG,AFNE01.JPG,AFNE01.JPG,,,,,5,8,58,2,,,,,,,,,,,,,,,,,,,AMSA06.jpg,AMSA19.jpg,AMNE16.jpg,AMNE04.jpg,AMSA06.jpg,MS,2,num_8,32,num_6,2.71664800495,,,2018_Feb_07_1045,59.9967478861,FEMA4ImagesEEG,001,103080,
AFNE01.JPG,AFNE01.JPG,AFNE01.JPG,AFNE01.JPG,AFNE01.JPG,AFNE01.JPG,,,,,5,9,59,9,,,,,,,,,,,,,,,,,,,AMSA14.jpg,AMNE13.jpg,AMSA06.jpg,AMNE09.jpg,AMSA06.jpg,MS,2,num_2,16,num_2,0.817043572897,,,2018_Feb_07_1045,59.9967478861,FEMA4ImagesEEG,001,103080,
,,,,,,,,,,,,,,,,,,,,,,,,,,,,,,,,,,,,,,,,,,,space,7.21628829581,2018_Feb_07_1045,59.9967478861,FEMA4ImagesEEG,001,103080,
AFNE01.JPG,AFNE01.JPG,AFNE01.JPG,AFNE01.JPG,AFNE01.JPG,AFNE01.JPG,,,,,,,,,0,0,0,1,,,,,,,,,,,,,,,AFNE20.jpg,AFSA12.jpg,AFSA16.jpg,AFNE03.jpg,AFSA16.jpg,FS,4,num_2,48,None,,,,2018_Feb_07_1045,59.9967478861,FEMA4ImagesEEG,001,103080,
AFNE01.JPG,AFNE01.JPG,AFNE01.JPG,AFNE01.JPG,AFNE01.JPG,AFNE01.JPG,,,,,,,,,0,1,1,7,,,,,,,,,,,,,,,AFSA09.jpg,AFSA13.jpg,AFNE18.jpg,AFNE11.jpg,AFSA13.jpg,FS,4,num_6,48,None,,,,2018_Feb_07_1045,59.9967478861,FEMA4ImagesEEG,001,103080,
AFNE01.JPG,AFNE01.JPG,AFNE01.JPG,AFNE01.JPG,AFNE01.JPG,AFNE01.JPG,,,,,,,,,0,2,2,3,,,,,,,,,,,,,,,AFSA12.jpg,AFNE11.jpg,AFNE03.jpg,AFSA14.jpg,AFNE11.jpg,FN,3,num_6,48,None,,,,2018_Feb_07_1045,59.9967478861,FEMA4ImagesEEG,001,103080,
AFNE01.JPG,AFNE01.JPG,AFNE01.JPG,AFNE01.JPG,AFNE01.JPG,AFNE01.JPG,,,,,,,,,0,3,3,9,,,,,,,,,,,,,,,AFNE13.jpg,AFNE18.jpg,AFSA07.jpg,AFSA15.jpg,AFNE18.jpg,FN,3,num_6,48,None,,,,2018_Feb_07_1045,59.9967478861,FEMA4ImagesEEG,001,103080,
AFNE01.JPG,AFNE01.JPG,AFNE01.JPG,AFNE01.JPG,AFNE01.JPG,AFNE01.JPG,,,,,,,,,0,4,4,0,,,,,,,,,,,,,,,AFSA17.jpg,AFSA03.jpg,AFNE13.jpg,AFNE16.jpg,AFSA03.jpg,FS,4,num_6,48,None,,,,2018_Feb_07_1045,59.9967478861,FEMA4ImagesEEG,001,103080,
AFNE01.JPG,AFNE01.JPG,AFNE01.JPG,AFNE01.JPG,AFNE01.JPG,AFNE01.JPG,,,,,,,,,0,5,5,8,,,,,,,,,,,,,,,AFNE18.jpg,AFNE13.jpg,AFSA12.jpg,AFSA20.jpg,AFSA20.jpg,FS,4,num_4,48,None,,,,2018_Feb_07_1045,59.9967478861,FEMA4ImagesEEG,001,103080,
AFNE01.JPG,AFNE01.JPG,AFNE01.JPG,AFNE01.JPG,AFNE01.JPG,AFNE01.JPG,,,,,,,,,0,6,6,2,,,,,,,,,,,,,,,AFNE05.jpg,AFNE20.jpg,AFSA05.jpg,AFSA17.jpg,AFSA05.jpg,FS,4,num_2,48,None,,,,2018_Feb_07_1045,59.9967478861,FEMA4ImagesEEG,001,103080,
AFNE01.JPG,AFNE01.JPG,AFNE01.JPG,AFNE01.JPG,AFNE01.JPG,AFNE01.JPG,,,,,,,,,0,7,7,6,,,,,,,,,,,,,,,AFSA12.jpg,AFNE16.jpg,AFSA16.jpg,AFNE11.jpg,AFSA12.jpg,FS,4,num_8,48,None,,,,2018_Feb_07_1045,59.9967478861,FEMA4ImagesEEG,001,103080,
AFNE01.JPG,AFNE01.JPG,AFNE01.JPG,AFNE01.JPG,AFNE01.JPG,AFNE01.JPG,,,,,,,,,0,8,8,4,,,,,,,,,,,,,,,AFNE10.jpg,AFSA12.jpg,AFSA01.jpg,AFNE12.jpg,AFSA12.jpg,FS,4,num_6,48,None,,,,2018_Feb_07_1045,59.9967478861,FEMA4ImagesEEG,001,103080,
AFNE01.JPG,AFNE01.JPG,AFNE01.JPG,AFNE01.JPG,AFNE01.JPG,AFNE01.JPG,,,,,,,,,0,9,9,5,,,,,,,,,,,,,,,AFSA15.jpg,AFNE09.jpg,AFNE17.jpg,AFSA08.jpg,AFSA08.jpg,FS,4,num_4,48,None,,,,2018_Feb_07_1045,59.9967478861,FEMA4ImagesEEG,001,103080,
AFNE01.JPG,AFNE01.JPG,AFNE01.JPG,AFNE01.JPG,AFNE01.JPG,AFNE01.JPG,,,,,,,,,1,0,10,7,,,,,,,,,,,,,,,AFNE12.jpg,AFNE09.jpg,AFSA03.jpg,AFSA18.jpg,AFSA18.jpg,FS,4,num_4,48,None,,,,2018_Feb_07_1045,59.9967478861,FEMA4ImagesEEG,001,103080,
AFNE01.JPG,AFNE01.JPG,AFNE01.JPG,AFNE01.JPG,AFNE01.JPG,AFNE01.JPG,,,,,,,,,1,1,11,5,,,,,,,,,,,,,,,AFSA05.jpg,AFNE19.jpg,AFSA14.jpg,AFNE06.jpg,AFNE19.jpg,FN,3,num_6,32,num_8,0.933540573809,,,2018_Feb_07_1045,59.9967478861,FEMA4ImagesEEG,001,103080,
AFNE01.JPG,AFNE01.JPG,AFNE01.JPG,AFNE01.JPG,AFNE01.JPG,AFNE01.JPG,,,,,,,,,1,2,12,8,,,,,,,,,,,,,,,AFSA11.jpg,AFNE15.jpg,AFSA17.jpg,AFNE09.jpg,AFNE15.jpg,FN,3,num_6,48,None,,,,2018_Feb_07_1045,59.9967478861,FEMA4ImagesEEG,001,103080,
AFNE01.JPG,AFNE01.JPG,AFNE01.JPG,AFNE01.JPG,AFNE01.JPG,AFNE01.JPG,,,,,,,,,1,3,13,9,,,,,,,,,,,,,,,AFSA08.jpg,AFNE06.jpg,AFNE04.jpg,AFSA05.jpg,AFNE06.jpg,FN,3,num_6,48,None,,,,2018_Feb_07_1045,59.9967478861,FEMA4ImagesEEG,001,103080,
AFNE01.JPG,AFNE01.JPG,AFNE01.JPG,AFNE01.JPG,AFNE01.JPG,AFNE01.JPG,,,,,,,,,1,4,14,0,,,,,,,,,,,,,,,AFSA16.jpg,AFNE07.jpg,AFSA15.jpg,AFNE10.jpg,AFSA15.jpg,FS,4,num_2,32,num_4,0.81679147156,,,2018_Feb_07_1045,59.9967478861,FEMA4ImagesEEG,001,103080,
AFNE01.JPG,AFNE01.JPG,AFNE01.JPG,AFNE01.JPG,AFNE01.JPG,AFNE01.JPG,,,,,,,,,1,5,15,3,,,,,,,,,,,,,,,AFSA12.jpg,AFNE11.jpg,AFSA06.jpg,AFNE14.jpg,AFSA06.jpg,FS,4,num_2,32,num_4,0.800162743079,,,2018_Feb_07_1045,59.9967478861,FEMA4ImagesEEG,001,103080,
AFNE01.JPG,AFNE01.JPG,AFNE01.JPG,AFNE01.JPG,AFNE01.JPG,AFNE01.JPG,,,,,,,,,1,6,16,6,,,,,,,,,,,,,,,AFSA02.jpg,AFNE07.jpg,AFNE19.jpg,AFSA03.jpg,AFSA02.jpg,FS,4,num_8,16,num_8,0.666824042564,,,2018_Feb_07_1045,59.9967478861,FEMA4ImagesEEG,001,103080,
AFNE01.JPG,AFNE01.JPG,AFNE01.JPG,AFNE01.JPG,AFNE01.JPG,AFNE01.JPG,,,,,,,,,1,7,17,1,,,,,,,,,,,,,,,AFNE12.jpg,AFNE02.jpg,AFSA13.jpg,AFSA12.jpg,AFSA12.jpg,FS,4,num_4,48,None,,,,2018_Feb_07_1045,59.9967478861,FEMA4ImagesEEG,001,103080,
AFNE01.JPG,AFNE01.JPG,AFNE01.JPG,AFNE01.JPG,AFNE01.JPG,AFNE01.JPG,,,,,,,,,1,8,18,4,,,,,,,,,,,,,,,AFSA02.jpg,AFSA08.jpg,AFNE20.jpg,AFNE05.jpg,AFNE20.jpg,FN,3,num_2,32,num_8,0.883428587578,,,2018_Feb_07_1045,59.9967478861,FEMA4ImagesEEG,001,103080,
AFNE01.JPG,AFNE01.JPG,AFNE01.JPG,AFNE01.JPG,AFNE01.JPG,AFNE01.JPG,,,,,,,,,1,9,19,2,,,,,,,,,,,,,,,AFNE19.jpg,AFSA20.jpg,AFNE11.jpg,AFSA18.jpg,AFSA18.jpg,FS,4,num_4,48,None,,,,2018_Feb_07_1045,59.9967478861,FEMA4ImagesEEG,001,103080,
AFNE01.JPG,AFNE01.JPG,AFNE01.JPG,AFNE01.JPG,AFNE01.JPG,AFNE01.JPG,,,,,,,,,2,0,20,5,,,,,,,,,,,,,,,AFNE01.jpg,AFNE02.jpg,AFSA13.jpg,AFSA06.jpg,AFSA06.jpg,FS,4,num_4,48,None,,,,2018_Feb_07_1045,59.9967478861,FEMA4ImagesEEG,001,103080,
AFNE01.JPG,AFNE01.JPG,AFNE01.JPG,AFNE01.JPG,AFNE01.JPG,AFNE01.JPG,,,,,,,,,2,1,21,6,,,,,,,,,,,,,,,AFNE08.jpg,AFSA07.jpg,AFNE10.jpg,AFSA14.jpg,AFNE10.jpg,FN,3,num_2,48,None,,,,2018_Feb_07_1045,59.9967478861,FEMA4ImagesEEG,001,103080,
AFNE01.JPG,AFNE01.JPG,AFNE01.JPG,AFNE01.JPG,AFNE01.JPG,AFNE01.JPG,,,,,,,,,2,2,22,1,,,,,,,,,,,,,,,AFNE09.jpg,AFNE02.jpg,AFSA18.jpg,AFSA14.jpg,AFNE09.jpg,FN,3,num_8,32,num_4,2.81646784558,,,2018_Feb_07_1045,59.9967478861,FEMA4ImagesEEG,001,103080,
AFNE01.JPG,AFNE01.JPG,AFNE01.JPG,AFNE01.JPG,AFNE01.JPG,AFNE01.JPG,,,,,,,,,2,3,23,7,,,,,,,,,,,,,,,AFNE01.jpg,AFNE12.jpg,AFSA17.jpg,AFSA16.jpg,AFSA16.jpg,FS,4,num_4,48,None,,,,2018_Feb_07_1045,59.9967478861,FEMA4ImagesEEG,001,103080,
AFNE01.JPG,AFNE01.JPG,AFNE01.JPG,AFNE01.JPG,AFNE01.JPG,AFNE01.JPG,,,,,,,,,2,4,24,8,,,,,,,,,,,,,,,AFSA17.jpg,AFSA03.jpg,AFNE20.jpg,AFNE15.jpg,AFSA17.jpg,FS,4,num_8,16,num_8,0.783457357902,,,2018_Feb_07_1045,59.9967478861,FEMA4ImagesEEG,001,103080,
AFNE01.JPG,AFNE01.JPG,AFNE01.JPG,AFNE01.JPG,AFNE01.JPG,AFNE01.JPG,,,,,,,,,2,5,25,9,,,,,,,,,,,,,,,AFNE09.jpg,AFSA09.jpg,AFNE16.jpg,AFSA01.jpg,AFSA09.jpg,FS,4,num_6,48,None,,,,2018_Feb_07_1045,59.9967478861,FEMA4ImagesEEG,001,103080,
AFNE01.JPG,AFNE01.JPG,AFNE01.JPG,AFNE01.JPG,AFNE01.JPG,AFNE01.JPG,,,,,,,,,2,6,26,2,,,,,,,,,,,,,,,AFSA13.jpg,AFSA20.jpg,AFNE11.jpg,AFNE16.jpg,AFNE16.jpg,FN,3,num_4,48,None,,,,2018_Feb_07_1045,59.9967478861,FEMA4ImagesEEG,001,103080,
AFNE01.JPG,AFNE01.JPG,AFNE01.JPG,AFNE01.JPG,AFNE01.JPG,AFNE01.JPG,,,,,,,,,2,7,27,4,,,,,,,,,,,,,,,AFSA19.jpg,AFNE03.jpg,AFNE12.jpg,AFSA20.jpg,AFSA20.jpg,FS,4,num_4,48,None,,,,2018_Feb_07_1045,59.9967478861,FEMA4ImagesEEG,001,103080,
AFNE01.JPG,AFNE01.JPG,AFNE01.JPG,AFNE01.JPG,AFNE01.JPG,AFNE01.JPG,,,,,,,,,2,8,28,0,,,,,,,,,,,,,,,AFNE15.jpg,AFNE19.jpg,AFSA09.jpg,AFSA10.jpg,AFNE19.jpg,FN,3,num_6,48,None,,,,2018_Feb_07_1045,59.9967478861,FEMA4ImagesEEG,001,103080,
AFNE01.JPG,AFNE01.JPG,AFNE01.JPG,AFNE01.JPG,AFNE01.JPG,AFNE01.JPG,,,,,,,,,2,9,29,3,,,,,,,,,,,,,,,AFNE12.jpg,AFSA14.jpg,AFSA02.jpg,AFNE04.jpg,AFNE04.jpg,FN,3,num_4,32,num_6,0.883486320497,,,2018_Feb_07_1045,59.9967478861,FEMA4ImagesEEG,001,103080,
AFNE01.JPG,AFNE01.JPG,AFNE01.JPG,AFNE01.JPG,AFNE01.JPG,AFNE01.JPG,,,,,,,,,3,0,30,2,,,,,,,,,,,,,,,AFNE13.jpg,AFSA17.jpg,AFSA16.jpg,AFNE01.jpg,AFSA16.jpg,FS,4,num_2,48,None,,,,2018_Feb_07_1045,59.9967478861,FEMA4ImagesEEG,001,103080,
AFNE01.JPG,AFNE01.JPG,AFNE01.JPG,AFNE01.JPG,AFNE01.JPG,AFNE01.JPG,,,,,,,,,3,1,31,4,,,,,,,,,,,,,,,AFSA17.jpg,AFNE19.jpg,AFNE05.jpg,AFSA18.jpg,AFNE19.jpg,FN,3,num_6,32,num_8,0.766773782903,,,2018_Feb_07_1045,59.9967478861,FEMA4ImagesEEG,001,103080,
AFNE01.JPG,AFNE01.JPG,AFNE01.JPG,AFNE01.JPG,AFNE01.JPG,AFNE01.JPG,,,,,,,,,3,2,32,0,,,,,,,,,,,,,,,AFSA13.jpg,AFNE01.jpg,AFSA11.jpg,AFNE09.jpg,AFSA13.jpg,FS,4,num_8,32,num_6,1.78338968195,,,2018_Feb_07_1045,59.9967478861,FEMA4ImagesEEG,001,103080,
AFNE01.JPG,AFNE01.JPG,AFNE01.JPG,AFNE01.JPG,AFNE01.JPG,AFNE01.JPG,,,,,,,,,3,3,33,8,,,,,,,,,,,,,,,AFSA19.jpg,AFNE20.jpg,AFNE18.jpg,AFSA10.jpg,AFNE20.jpg,FN,3,num_6,32,num_4,0.783449980896,,,2018_Feb_07_1045,59.9967478861,FEMA4ImagesEEG,001,103080,
AFNE01.JPG,AFNE01.JPG,AFNE01.JPG,AFNE01.JPG,AFNE01.JPG,AFNE01.JPG,,,,,,,,,3,4,34,1,,,,,,,,,,,,,,,AFNE17.jpg,AFNE13.jpg,AFSA14.jpg,AFSA01.jpg,AFSA01.jpg,FS,4,num_4,48,None,,,,2018_Feb_07_1045,59.9967478861,FEMA4ImagesEEG,001,103080,
AFNE01.JPG,AFNE01.JPG,AFNE01.JPG,AFNE01.JPG,AFNE01.JPG,AFNE01.JPG,,,,,,,,,3,5,35,6,,,,,,,,,,,,,,,AFNE13.jpg,AFSA11.jpg,AFNE03.jpg,AFSA16.jpg,AFNE13.jpg,FN,3,num_8,48,None,,,,2018_Feb_07_1045,59.9967478861,FEMA4ImagesEEG,001,103080,
AFNE01.JPG,AFNE01.JPG,AFNE01.JPG,AFNE01.JPG,AFNE01.JPG,AFNE01.JPG,,,,,,,,,3,6,36,7,,,,,,,,,,,,,,,AFNE16.jpg,AFSA09.jpg,AFSA01.jpg,AFNE05.jpg,AFNE05.jpg,FN,3,num_4,48,None,,,,2018_Feb_07_1045,59.9967478861,FEMA4ImagesEEG,001,103080,
AFNE01.JPG,AFNE01.JPG,AFNE01.JPG,AFNE01.JPG,AFNE01.JPG,AFNE01.JPG,,,,,,,,,3,7,37,5,,,,,,,,,,,,,,,AFSA02.jpg,AFNE09.jpg,AFNE01.jpg,AFSA09.jpg,AFNE01.jpg,FN,3,num_2,16,num_2,0.750153393717,,,2018_Feb_07_1045,59.9967478861,FEMA4ImagesEEG,001,103080,
AFNE01.JPG,AFNE01.JPG,AFNE01.JPG,AFNE01.JPG,AFNE01.JPG,AFNE01.JPG,,,,,,,,,3,8,38,9,,,,,,,,,,,,,,,AFSA19.jpg,AFNE17.jpg,AFSA12.jpg,AFNE01.jpg,AFSA19.jpg,FS,4,num_8,48,None,,,,2018_Feb_07_1045,59.9967478861,FEMA4ImagesEEG,001,103080,
AFNE01.JPG,AFNE01.JPG,AFNE01.JPG,AFNE01.JPG,AFNE01.JPG,AFNE01.JPG,,,,,,,,,3,9,39,3,,,,,,,,,,,,,,,AFSA12.jpg,AFSA01.jpg,AFNE01.jpg,AFNE18.jpg,AFNE18.jpg,FN,3,num_4,48,None,,,,2018_Feb_07_1045,59.9967478861,FEMA4ImagesEEG,001,103080,
AFNE01.JPG,AFNE01.JPG,AFNE01.JPG,AFNE01.JPG,AFNE01.JPG,AFNE01.JPG,,,,,,,,,4,0,40,9,,,,,,,,,,,,,,,AFSA09.jpg,AFNE04.jpg,AFNE05.jpg,AFSA01.jpg,AFNE04.jpg,FN,3,num_6,48,None,,,,2018_Feb_07_1045,59.9967478861,FEMA4ImagesEEG,001,103080,
AFNE01.JPG,AFNE01.JPG,AFNE01.JPG,AFNE01.JPG,AFNE01.JPG,AFNE01.JPG,,,,,,,,,4,1,41,7,,,,,,,,,,,,,,,AFNE02.jpg,AFSA05.jpg,AFNE12.jpg,AFSA07.jpg,AFNE02.jpg,FN,3,num_8,32,num_4,1.95004357235,,,2018_Feb_07_1045,59.9967478861,FEMA4ImagesEEG,001,103080,
AFNE01.JPG,AFNE01.JPG,AFNE01.JPG,AFNE01.JPG,AFNE01.JPG,AFNE01.JPG,,,,,,,,,4,2,42,4,,,,,,,,,,,,,,,AFNE19.jpg,AFNE01.jpg,AFSA11.jpg,AFSA02.jpg,AFSA11.jpg,FS,4,num_2,48,None,,,,2018_Feb_07_1045,59.9967478861,FEMA4ImagesEEG,001,103080,
AFNE01.JPG,AFNE01.JPG,AFNE01.JPG,AFNE01.JPG,AFNE01.JPG,AFNE01.JPG,,,,,,,,,4,3,43,1,,,,,,,,,,,,,,,AFNE17.jpg,AFNE20.jpg,AFSA20.jpg,AFSA18.jpg,AFNE17.jpg,FN,3,num_8,48,None,,,,2018_Feb_07_1045,59.9967478861,FEMA4ImagesEEG,001,103080,
AFNE01.JPG,AFNE01.JPG,AFNE01.JPG,AFNE01.JPG,AFNE01.JPG,AFNE01.JPG,,,,,,,,,4,4,44,8,,,,,,,,,,,,,,,AFSA10.jpg,AFSA06.jpg,AFNE08.jpg,AFNE14.jpg,AFNE14.jpg,FN,3,num_4,16,num_4,1.08343776059,,,2018_Feb_07_1045,59.9967478861,FEMA4ImagesEEG,001,103080,
AFNE01.JPG,AFNE01.JPG,AFNE01.JPG,AFNE01.JPG,AFNE01.JPG,AFNE01.JPG,,,,,,,,,4,5,45,6,,,,,,,,,,,,,,,AFSA01.jpg,AFNE11.jpg,AFSA10.jpg,AFNE04.jpg,AFSA01.jpg,FS,4,num_8,48,None,,,,2018_Feb_07_1045,59.9967478861,FEMA4ImagesEEG,001,103080,
AFNE01.JPG,AFNE01.JPG,AFNE01.JPG,AFNE01.JPG,AFNE01.JPG,AFNE01.JPG,,,,,,,,,4,6,46,2,,,,,,,,,,,,,,,AFSA01.jpg,AFNE14.jpg,AFNE19.jpg,AFSA14.jpg,AFNE14.jpg,FN,3,num_6,48,None,,,,2018_Feb_07_1045,59.9967478861,FEMA4ImagesEEG,001,103080,
AFNE01.JPG,AFNE01.JPG,AFNE01.JPG,AFNE01.JPG,AFNE01.JPG,AFNE01.JPG,,,,,,,,,4,7,47,5,,,,,,,,,,,,,,,AFNE19.jpg,AFSA04.jpg,AFSA05.jpg,AFNE15.jpg,AFNE15.jpg,FN,3,num_4,48,None,,,,2018_Feb_07_1045,59.9967478861,FEMA4ImagesEEG,001,103080,
AFNE01.JPG,AFNE01.JPG,AFNE01.JPG,AFNE01.JPG,AFNE01.JPG,AFNE01.JPG,,,,,,,,,4,8,48,3,,,,,,,,,,,,,,,AFNE07.jpg,AFNE16.jpg,AFSA17.jpg,AFSA15.jpg,AFNE16.jpg,FN,3,num_6,48,None,,,,2018_Feb_07_1045,59.9967478861,FEMA4ImagesEEG,001,103080,
AFNE01.JPG,AFNE01.JPG,AFNE01.JPG,AFNE01.JPG,AFNE01.JPG,AFNE01.JPG,,,,,,,,,4,9,49,0,,,,,,,,,,,,,,,AFNE05.jpg,AFSA02.jpg,AFSA01.jpg,AFNE15.jpg,AFNE05.jpg,FN,3,num_8,48,None,,,,2018_Feb_07_1045,59.9967478861,FEMA4ImagesEEG,001,103080,
AFNE01.JPG,AFNE01.JPG,AFNE01.JPG,AFNE01.JPG,AFNE01.JPG,AFNE01.JPG,,,,,,,,,5,0,50,8,,,,,,,,,,,,,,,AFNE15.jpg,AFNE12.jpg,AFSA02.jpg,AFSA08.jpg,AFNE12.jpg,FN,3,num_6,48,None,,,,2018_Feb_07_1045,59.9967478861,FEMA4ImagesEEG,001,103080,
AFNE01.JPG,AFNE01.JPG,AFNE01.JPG,AFNE01.JPG,AFNE01.JPG,AFNE01.JPG,,,,,,,,,5,1,51,2,,,,,,,,,,,,,,,AFSA15.jpg,AFSA04.jpg,AFNE17.jpg,AFNE07.jpg,AFNE17.jpg,FN,3,num_2,16,num_2,1.05010845815,,,2018_Feb_07_1045,59.9967478861,FEMA4ImagesEEG,001,103080,
AFNE01.JPG,AFNE01.JPG,AFNE01.JPG,AFNE01.JPG,AFNE01.JPG,AFNE01.JPG,,,,,,,,,5,2,52,6,,,,,,,,,,,,,,,AFSA05.jpg,AFSA11.jpg,AFNE12.jpg,AFNE02.jpg,AFNE02.jpg,FN,3,num_4,48,None,,,,2018_Feb_07_1045,59.9967478861,FEMA4ImagesEEG,001,103080,
AFNE01.JPG,AFNE01.JPG,AFNE01.JPG,AFNE01.JPG,AFNE01.JPG,AFNE01.JPG,,,,,,,,,5,3,53,0,,,,,,,,,,,,,,,AFNE18.jpg,AFSA19.jpg,AFNE19.jpg,AFSA01.jpg,AFSA01.jpg,FS,4,num_4,48,None,,,,2018_Feb_07_1045,59.9967478861,FEMA4ImagesEEG,001,103080,
AFNE01.JPG,AFNE01.JPG,AFNE01.JPG,AFNE01.JPG,AFNE01.JPG,AFNE01.JPG,,,,,,,,,5,4,54,4,,,,,,,,,,,,,,,AFSA11.jpg,AFSA10.jpg,AFNE02.jpg,AFNE09.jpg,AFNE09.jpg,FN,3,num_4,48,None,,,,2018_Feb_07_1045,59.9967478861,FEMA4ImagesEEG,001,103080,
AFNE01.JPG,AFNE01.JPG,AFNE01.JPG,AFNE01.JPG,AFNE01.JPG,AFNE01.JPG,,,,,,,,,5,5,55,3,,,,,,,,,,,,,,,AFSA15.jpg,AFNE19.jpg,AFSA07.jpg,AFNE03.jpg,AFNE03.jpg,FN,3,num_4,48,None,,,,2018_Feb_07_1045,59.9967478861,FEMA4ImagesEEG,001,103080,
AFNE01.JPG,AFNE01.JPG,AFNE01.JPG,AFNE01.JPG,AFNE01.JPG,AFNE01.JPG,,,,,,,,,5,6,56,5,,,,,,,,,,,,,,,AFNE06.jpg,AFSA20.jpg,AFNE08.jpg,AFSA04.jpg,AFSA20.jpg,FS,4,num_6,48,None,,,,2018_Feb_07_1045,59.9967478861,FEMA4ImagesEEG,001,103080,
AFNE01.JPG,AFNE01.JPG,AFNE01.JPG,AFNE01.JPG,AFNE01.JPG,AFNE01.JPG,,,,,,,,,5,7,57,9,,,,,,,,,,,,,,,AFSA19.jpg,AFSA14.jpg,AFNE01.jpg,AFNE18.jpg,AFSA19.jpg,FS,4,num_8,48,None,,,,2018_Feb_07_1045,59.9967478861,FEMA4ImagesEEG,001,103080,
AFNE01.JPG,AFNE01.JPG,AFNE01.JPG,AFNE01.JPG,AFNE01.JPG,AFNE01.JPG,,,,,,,,,5,8,58,1,,,,,,,,,,,,,,,AFNE10.jpg,AFNE18.jpg,AFSA15.jpg,AFSA20.jpg,AFNE10.jpg,FN,3,num_8,32,num_6,1.38339314586,,,2018_Feb_07_1045,59.9967478861,FEMA4ImagesEEG,001,103080,
AFNE01.JPG,AFNE01.JPG,AFNE01.JPG,AFNE01.JPG,AFNE01.JPG,AFNE01.JPG,,,,,,,,,5,9,59,7,,,,,,,,,,,,,,,AFNE15.jpg,AFSA11.jpg,AFNE16.jpg,AFSA05.jpg,AFNE16.jpg,FN,3,num_2,32,num_4,1.26698498963,,,2018_Feb_07_1045,59.9967478861,FEMA4ImagesEEG,001,103080,
,,,,,,,,,,,,,,,,,,,,,,,,,,,,,,,,,,,,,,,,,,,space,5.14984747232,2018_Feb_07_1045,59.9967478861,FEMA4ImagesEEG,001,103080,
AFNE01.JPG,AFNE01.JPG,AFNE01.JPG,AFNE01.JPG,AFNE01.JPG,AFNE01.JPG,,,,,,,,,,,,,0,0,0,4,,,,,,,,,,,AMSA03.jpg,AMNE03.jpg,AMNE18.jpg,AMSA10.jpg,AMSA03.jpg,MS,2,num_8,48,None,,,,2018_Feb_07_1045,59.9967478861,FEMA4ImagesEEG,001,103080,
AFNE01.JPG,AFNE01.JPG,AFNE01.JPG,AFNE01.JPG,AFNE01.JPG,AFNE01.JPG,,,,,,,,,,,,,0,1,1,6,,,,,,,,,,,AMNE11.jpg,AMSA11.jpg,AMSA06.jpg,AMNE03.jpg,AMNE11.jpg,MN,1,num_8,48,None,,,,2018_Feb_07_1045,59.9967478861,FEMA4ImagesEEG,001,103080,
AFNE01.JPG,AFNE01.JPG,AFNE01.JPG,AFNE01.JPG,AFNE01.JPG,AFNE01.JPG,,,,,,,,,,,,,0,2,2,2,,,,,,,,,,,AMSA02.jpg,AMSA20.jpg,AMNE12.jpg,AMNE10.jpg,AMSA02.jpg,MS,2,num_8,48,None,,,,2018_Feb_07_1045,59.9967478861,FEMA4ImagesEEG,001,103080,
AFNE01.JPG,AFNE01.JPG,AFNE01.JPG,AFNE01.JPG,AFNE01.JPG,AFNE01.JPG,,,,,,,,,,,,,0,3,3,5,,,,,,,,,,,AMNE09.jpg,AMSA04.jpg,AMNE03.jpg,AMSA09.jpg,AMNE09.jpg,MN,1,num_8,48,None,,,,2018_Feb_07_1045,59.9967478861,FEMA4ImagesEEG,001,103080,
AFNE01.JPG,AFNE01.JPG,AFNE01.JPG,AFNE01.JPG,AFNE01.JPG,AFNE01.JPG,,,,,,,,,,,,,0,4,4,1,,,,,,,,,,,AMSA02.jpg,AMNE03.jpg,AMSA18.jpg,AMNE13.jpg,AMSA18.jpg,MS,2,num_2,48,None,,,,2018_Feb_07_1045,59.9967478861,FEMA4ImagesEEG,001,103080,
AFNE01.JPG,AFNE01.JPG,AFNE01.JPG,AFNE01.JPG,AFNE01.JPG,AFNE01.JPG,,,,,,,,,,,,,0,5,5,9,,,,,,,,,,,AMSA19.jpg,AMNE03.jpg,AMSA04.jpg,AMNE13.jpg,AMSA04.jpg,MS,2,num_2,48,None,,,,2018_Feb_07_1045,59.9967478861,FEMA4ImagesEEG,001,103080,
AFNE01.JPG,AFNE01.JPG,AFNE01.JPG,AFNE01.JPG,AFNE01.JPG,AFNE01.JPG,,,,,,,,,,,,,0,6,6,3,,,,,,,,,,,AMSA09.jpg,AMSA03.jpg,AMNE17.jpg,AMNE14.jpg,AMSA03.jpg,MS,2,num_6,48,None,,,,2018_Feb_07_1045,59.9967478861,FEMA4ImagesEEG,001,103080,
AFNE01.JPG,AFNE01.JPG,AFNE01.JPG,AFNE01.JPG,AFNE01.JPG,AFNE01.JPG,,,,,,,,,,,,,0,7,7,0,,,,,,,,,,,AMSA08.jpg,AMNE17.jpg,AMNE06.jpg,AMSA02.jpg,AMNE06.jpg,MN,1,num_2,48,None,,,,2018_Feb_07_1045,59.9967478861,FEMA4ImagesEEG,001,103080,
AFNE01.JPG,AFNE01.JPG,AFNE01.JPG,AFNE01.JPG,AFNE01.JPG,AFNE01.JPG,,,,,,,,,,,,,0,8,8,7,,,,,,,,,,,AMNE06.jpg,AMSA11.jpg,AMSA04.jpg,AMNE15.jpg,AMNE06.jpg,MN,1,num_8,48,None,,,,2018_Feb_07_1045,59.9967478861,FEMA4ImagesEEG,001,103080,
AFNE01.JPG,AFNE01.JPG,AFNE01.JPG,AFNE01.JPG,AFNE01.JPG,AFNE01.JPG,,,,,,,,,,,,,0,9,9,8,,,,,,,,,,,AMSA19.jpg,AMNE07.jpg,AMSA08.jpg,AMNE17.jpg,AMSA08.jpg,MS,2,num_2,48,None,,,,2018_Feb_07_1045,59.9967478861,FEMA4ImagesEEG,001,103080,
AFNE01.JPG,AFNE01.JPG,AFNE01.JPG,AFNE01.JPG,AFNE01.JPG,AFNE01.JPG,,,,,,,,,,,,,1,0,10,5,,,,,,,,,,,AMSA06.jpg,AMNE04.jpg,AMSA03.jpg,AMNE18.jpg,AMNE18.jpg,MN,1,num_4,48,None,,,,2018_Feb_07_1045,59.9967478861,FEMA4ImagesEEG,001,103080,
AFNE01.JPG,AFNE01.JPG,AFNE01.JPG,AFNE01.JPG,AFNE01.JPG,AFNE01.JPG,,,,,,,,,,,,,1,1,11,1,,,,,,,,,,,AMNE04.jpg,AMNE05.jpg,AMSA14.jpg,AMSA01.jpg,AMNE05.jpg,MN,1,num_6,48,None,,,,2018_Feb_07_1045,59.9967478861,FEMA4ImagesEEG,001,103080,
AFNE01.JPG,AFNE01.JPG,AFNE01.JPG,AFNE01.JPG,AFNE01.JPG,AFNE01.JPG,,,,,,,,,,,,,1,2,12,9,,,,,,,,,,,AMNE16.jpg,AMSA07.jpg,AMSA14.jpg,AMNE02.jpg,AMNE16.jpg,MN,1,num_8,48,None,,,,2018_Feb_07_1045,59.9967478861,FEMA4ImagesEEG,001,103080,
AFNE01.JPG,AFNE01.JPG,AFNE01.JPG,AFNE01.JPG,AFNE01.JPG,AFNE01.JPG,,,,,,,,,,,,,1,3,13,2,,,,,,,,,,,AMNE14.jpg,AMSA07.jpg,AMSA13.jpg,AMNE03.jpg,AMSA07.jpg,MS,2,num_6,32,num_8,0.633468760177,,,2018_Feb_07_1045,59.9967478861,FEMA4ImagesEEG,001,103080,
AFNE01.JPG,AFNE01.JPG,AFNE01.JPG,AFNE01.JPG,AFNE01.JPG,AFNE01.JPG,,,,,,,,,,,,,1,4,14,7,,,,,,,,,,,AMNE16.jpg,AMNE10.jpg,AMSA08.jpg,AMSA05.jpg,AMSA08.jpg,MS,2,num_2,48,None,,,,2018_Feb_07_1045,59.9967478861,FEMA4ImagesEEG,001,103080,
AFNE01.JPG,AFNE01.JPG,AFNE01.JPG,AFNE01.JPG,AFNE01.JPG,AFNE01.JPG,,,,,,,,,,,,,1,5,15,8,,,,,,,,,,,AMSA13.jpg,AMNE15.jpg,AMNE02.jpg,AMSA14.jpg,AMSA14.jpg,MS,2,num_4,16,num_4,2.71659893193,,,2018_Feb_07_1045,59.9967478861,FEMA4ImagesEEG,001,103080,
AFNE01.JPG,AFNE01.JPG,AFNE01.JPG,AFNE01.JPG,AFNE01.JPG,AFNE01.JPG,,,,,,,,,,,,,1,6,16,0,,,,,,,,,,,AMSA03.jpg,AMNE19.jpg,AMSA04.jpg,AMNE06.jpg,AMSA03.jpg,MS,2,num_8,48,None,,,,2018_Feb_07_1045,59.9967478861,FEMA4ImagesEEG,001,103080,
AFNE01.JPG,AFNE01.JPG,AFNE01.JPG,AFNE01.JPG,AFNE01.JPG,AFNE01.JPG,,,,,,,,,,,,,1,7,17,6,,,,,,,,,,,AMSA18.jpg,AMNE01.jpg,AMNE04.jpg,AMSA19.jpg,AMNE01.jpg,MN,1,num_6,48,None,,,,2018_Feb_07_1045,59.9967478861,FEMA4ImagesEEG,001,103080,
AFNE01.JPG,AFNE01.JPG,AFNE01.JPG,AFNE01.JPG,AFNE01.JPG,AFNE01.JPG,,,,,,,,,,,,,1,8,18,4,,,,,,,,,,,AMNE20.jpg,AMNE10.jpg,AMSA09.jpg,AMSA05.jpg,AMSA09.jpg,MS,2,num_2,32,num_8,1.18342598947,,,2018_Feb_07_1045,59.9967478861,FEMA4ImagesEEG,001,103080,
AFNE01.JPG,AFNE01.JPG,AFNE01.JPG,AFNE01.JPG,AFNE01.JPG,AFNE01.JPG,,,,,,,,,,,,,1,9,19,3,,,,,,,,,,,AMSA19.jpg,AMNE09.jpg,AMSA11.jpg,AMNE11.jpg,AMNE11.jpg,MN,1,num_4,48,None,,,,2018_Feb_07_1045,59.9967478861,FEMA4ImagesEEG,001,103080,
AFNE01.JPG,AFNE01.JPG,AFNE01.JPG,AFNE01.JPG,AFNE01.JPG,AFNE01.JPG,,,,,,,,,,,,,2,0,20,1,,,,,,,,,,,AMSA07.jpg,AMNE06.jpg,AMNE07.jpg,AMSA03.jpg,AMNE07.jpg,MN,1,num_2,32,num_6,1.98334304639,,,2018_Feb_07_1045,59.9967478861,FEMA4ImagesEEG,001,103080,
AFNE01.JPG,AFNE01.JPG,AFNE01.JPG,AFNE01.JPG,AFNE01.JPG,AFNE01.JPG,,,,,,,,,,,,,2,1,21,6,,,,,,,,,,,AMSA07.jpg,AMSA13.jpg,AMNE08.jpg,AMNE04.jpg,AMNE04.jpg,MN,1,num_4,48,None,,,,2018_Feb_07_1045,59.9967478861,FEMA4ImagesEEG,001,103080,
AFNE01.JPG,AFNE01.JPG,AFNE01.JPG,AFNE01.JPG,AFNE01.JPG,AFNE01.JPG,,,,,,,,,,,,,2,2,22,2,,,,,,,,,,,AMNE15.jpg,AMSA20.jpg,AMNE07.jpg,AMSA18.jpg,AMSA18.jpg,MS,2,num_4,48,None,,,,2018_Feb_07_1045,59.9967478861,FEMA4ImagesEEG,001,103080,
AFNE01.JPG,AFNE01.JPG,AFNE01.JPG,AFNE01.JPG,AFNE01.JPG,AFNE01.JPG,,,,,,,,,,,,,2,3,23,4,,,,,,,,,,,AMNE03.jpg,AMSA01.jpg,AMNE14.jpg,AMSA20.jpg,AMSA01.jpg,MS,2,num_6,32,num_2,4.26656353823,,,2018_Feb_07_1045,59.9967478861,FEMA4ImagesEEG,001,103080,
AFNE01.JPG,AFNE01.JPG,AFNE01.JPG,AFNE01.JPG,AFNE01.JPG,AFNE01.JPG,,,,,,,,,,,,,2,4,24,0,,,,,,,,,,,AMSA10.jpg,AMSA20.jpg,AMNE16.jpg,AMNE04.jpg,AMSA20.jpg,MS,2,num_6,48,None,,,,2018_Feb_07_1045,59.9967478861,FEMA4ImagesEEG,001,103080,
AFNE01.JPG,AFNE01.JPG,AFNE01.JPG,AFNE01.JPG,AFNE01.JPG,AFNE01.JPG,,,,,,,,,,,,,2,5,25,9,,,,,,,,,,,AMNE03.jpg,AMNE10.jpg,AMSA17.jpg,AMSA12.jpg,AMSA17.jpg,MS,2,num_2,48,None,,,,2018_Feb_07_1045,59.9967478861,FEMA4ImagesEEG,001,103080,
AFNE01.JPG,AFNE01.JPG,AFNE01.JPG,AFNE01.JPG,AFNE01.JPG,AFNE01.JPG,,,,,,,,,,,,,2,6,26,7,,,,,,,,,,,AMSA02.jpg,AMNE01.jpg,AMNE02.jpg,AMSA06.jpg,AMNE02.jpg,MN,1,num_2,48,None,,,,2018_Feb_07_1045,59.9967478861,FEMA4ImagesEEG,001,103080,
AFNE01.JPG,AFNE01.JPG,AFNE01.JPG,AFNE01.JPG,AFNE01.JPG,AFNE01.JPG,,,,,,,,,,,,,2,7,27,8,,,,,,,,,,,AMNE06.jpg,AMSA20.jpg,AMSA10.jpg,AMNE05.jpg,AMNE06.jpg,MN,1,num_8,48,None,,,,2018_Feb_07_1045,59.9967478861,FEMA4ImagesEEG,001,103080,
AFNE01.JPG,AFNE01.JPG,AFNE01.JPG,AFNE01.JPG,AFNE01.JPG,AFNE01.JPG,,,,,,,,,,,,,2,8,28,3,,,,,,,,,,,AMNE10.jpg,AMNE20.jpg,AMSA08.jpg,AMSA02.jpg,AMSA02.jpg,MS,2,num_4,48,None,,,,2018_Feb_07_1045,59.9967478861,FEMA4ImagesEEG,001,103080,
AFNE01.JPG,AFNE01.JPG,AFNE01.JPG,AFNE01.JPG,AFNE01.JPG,AFNE01.JPG,,,,,,,,,,,,,2,9,29,5,,,,,,,,,,,AMSA15.jpg,AMNE11.jpg,AMSA01.jpg,AMNE16.jpg,AMSA15.jpg,MS,2,num_8,48,None,,,,2018_Feb_07_1045,59.9967478861,FEMA4ImagesEEG,001,103080,
AFNE01.JPG,AFNE01.JPG,AFNE01.JPG,AFNE01.JPG,AFNE01.JPG,AFNE01.JPG,,,,,,,,,,,,,3,0,30,3,,,,,,,,,,,AMSA08.jpg,AMNE09.jpg,AMSA16.jpg,AMNE20.jpg,AMSA08.jpg,MS,2,num_8,48,None,,,,2018_Feb_07_1045,59.9967478861,FEMA4ImagesEEG,001,103080,
AFNE01.JPG,AFNE01.JPG,AFNE01.JPG,AFNE01.JPG,AFNE01.JPG,AFNE01.JPG,,,,,,,,,,,,,3,1,31,8,,,,,,,,,,,AMNE04.jpg,AMNE17.jpg,AMSA08.jpg,AMSA20.jpg,AMSA20.jpg,MS,2,num_4,16,num_4,0.800151517149,,,2018_Feb_07_1045,59.9967478861,FEMA4ImagesEEG,001,103080,
AFNE01.JPG,AFNE01.JPG,AFNE01.JPG,AFNE01.JPG,AFNE01.JPG,AFNE01.JPG,,,,,,,,,,,,,3,2,32,1,,,,,,,,,,,AMNE12.jpg,AMNE15.jpg,AMSA09.jpg,AMSA01.jpg,AMNE12.jpg,MN,1,num_8,48,None,,,,2018_Feb_07_1045,59.9967478861,FEMA4ImagesEEG,001,103080,
AFNE01.JPG,AFNE01.JPG,AFNE01.JPG,AFNE01.JPG,AFNE01.JPG,AFNE01.JPG,,,,,,,,,,,,,3,3,33,9,,,,,,,,,,,AMSA11.jpg,AMSA06.jpg,AMNE01.jpg,AMNE19.jpg,AMSA06.jpg,MS,2,num_6,48,None,,,,2018_Feb_07_1045,59.9967478861,FEMA4ImagesEEG,001,103080,
AFNE01.JPG,AFNE01.JPG,AFNE01.JPG,AFNE01.JPG,AFNE01.JPG,AFNE01.JPG,,,,,,,,,,,,,3,4,34,7,,,,,,,,,,,AMSA04.jpg,AMSA09.jpg,AMNE04.jpg,AMNE07.jpg,AMNE07.jpg,MN,1,num_4,48,None,,,,2018_Feb_07_1045,59.9967478861,FEMA4ImagesEEG,001,103080,
AFNE01.JPG,AFNE01.JPG,AFNE01.JPG,AFNE01.JPG,AFNE01.JPG,AFNE01.JPG,,,,,,,,,,,,,3,5,35,0,,,,,,,,,,,AMSA15.jpg,AMNE02.jpg,AMSA04.jpg,AMNE10.jpg,AMSA04.jpg,MS,2,num_2,32,num_4,1.38346242555,,,2018_Feb_07_1045,59.9967478861,FEMA4ImagesEEG,001,103080,
AFNE01.JPG,AFNE01.JPG,AFNE01.JPG,AFNE01.JPG,AFNE01.JPG,AFNE01.JPG,,,,,,,,,,,,,3,6,36,4,,,,,,,,,,,AMSA07.jpg,AMSA03.jpg,AMNE17.jpg,AMNE19.jpg,AMSA03.jpg,MS,2,num_6,48,None,,,,2018_Feb_07_1045,59.9967478861,FEMA4ImagesEEG,001,103080,
AFNE01.JPG,AFNE01.JPG,AFNE01.JPG,AFNE01.JPG,AFNE01.JPG,AFNE01.JPG,,,,,,,,,,,,,3,7,37,6,,,,,,,,,,,AMSA07.jpg,AMSA11.jpg,AMNE07.jpg,AMNE06.jpg,AMNE06.jpg,MN,1,num_4,48,None,,,,2018_Feb_07_1045,59.9967478861,FEMA4ImagesEEG,001,103080,
AFNE01.JPG,AFNE01.JPG,AFNE01.JPG,AFNE01.JPG,AFNE01.JPG,AFNE01.JPG,,,,,,,,,,,,,3,8,38,5,,,,,,,,,,,AMNE19.jpg,AMSA15.jpg,AMNE08.jpg,AMSA09.jpg,AMNE19.jpg,MN,1,num_8,48,None,,,,2018_Feb_07_1045,59.9967478861,FEMA4ImagesEEG,001,103080,
AFNE01.JPG,AFNE01.JPG,AFNE01.JPG,AFNE01.JPG,AFNE01.JPG,AFNE01.JPG,,,,,,,,,,,,,3,9,39,2,,,,,,,,,,,AMSA04.jpg,AMNE15.jpg,AMNE01.jpg,AMSA19.jpg,AMNE15.jpg,MN,1,num_6,16,num_6,3.78332809987,,,2018_Feb_07_1045,59.9967478861,FEMA4ImagesEEG,001,103080,
AFNE01.JPG,AFNE01.JPG,AFNE01.JPG,AFNE01.JPG,AFNE01.JPG,AFNE01.JPG,,,,,,,,,,,,,4,0,40,9,,,,,,,,,,,AMNE03.jpg,AMSA20.jpg,AMSA05.jpg,AMNE18.jpg,AMSA05.jpg,MS,2,num_2,48,None,,,,2018_Feb_07_1045,59.9967478861,FEMA4ImagesEEG,001,103080,
AFNE01.JPG,AFNE01.JPG,AFNE01.JPG,AFNE01.JPG,AFNE01.JPG,AFNE01.JPG,,,,,,,,,,,,,4,1,41,8,,,,,,,,,,,AMSA16.jpg,AMSA06.jpg,AMNE18.jpg,AMNE17.jpg,AMNE17.jpg,MN,1,num_4,48,None,,,,2018_Feb_07_1045,59.9967478861,FEMA4ImagesEEG,001,103080,
AFNE01.JPG,AFNE01.JPG,AFNE01.JPG,AFNE01.JPG,AFNE01.JPG,AFNE01.JPG,,,,,,,,,,,,,4,2,42,4,,,,,,,,,,,AMSA18.jpg,AMNE04.jpg,AMNE07.jpg,AMSA15.jpg,AMSA18.jpg,MS,2,num_8,32,num_4,4.73316928581,,,2018_Feb_07_1045,59.9967478861,FEMA4ImagesEEG,001,103080,
AFNE01.JPG,AFNE01.JPG,AFNE01.JPG,AFNE01.JPG,AFNE01.JPG,AFNE01.JPG,,,,,,,,,,,,,4,3,43,2,,,,,,,,,,,AMSA09.jpg,AMNE12.jpg,AMSA10.jpg,AMNE09.jpg,AMSA09.jpg,MS,2,num_8,48,None,,,,2018_Feb_07_1045,59.9967478861,FEMA4ImagesEEG,001,103080,
AFNE01.JPG,AFNE01.JPG,AFNE01.JPG,AFNE01.JPG,AFNE01.JPG,AFNE01.JPG,,,,,,,,,,,,,4,4,44,1,,,,,,,,,,,AMNE14.jpg,AMSA05.jpg,AMSA14.jpg,AMNE19.jpg,AMSA14.jpg,MS,2,num_2,48,None,,,,2018_Feb_07_1045,59.9967478861,FEMA4ImagesEEG,001,103080,
AFNE01.JPG,AFNE01.JPG,AFNE01.JPG,AFNE01.JPG,AFNE01.JPG,AFNE01.JPG,,,,,,,,,,,,,4,5,45,6,,,,,,,,,,,AMSA11.jpg,AMSA03.jpg,AMNE20.jpg,AMNE03.jpg,AMSA11.jpg,MS,2,num_8,48,None,,,,2018_Feb_07_1045,59.9967478861,FEMA4ImagesEEG,001,103080,
AFNE01.JPG,AFNE01.JPG,AFNE01.JPG,AFNE01.JPG,AFNE01.JPG,AFNE01.JPG,,,,,,,,,,,,,4,6,46,5,,,,,,,,,,,AMSA19.jpg,AMNE09.jpg,AMNE13.jpg,AMSA17.jpg,AMSA19.jpg,MS,2,num_8,32,num_6,4.13319917885,,,2018_Feb_07_1045,59.9967478861,FEMA4ImagesEEG,001,103080,
AFNE01.JPG,AFNE01.JPG,AFNE01.JPG,AFNE01.JPG,AFNE01.JPG,AFNE01.JPG,,,,,,,,,,,,,4,7,47,7,,,,,,,,,,,AMNE11.jpg,AMSA09.jpg,AMNE04.jpg,AMSA08.jpg,AMSA09.jpg,MS,2,num_6,32,num_8,0.716767961625,,,2018_Feb_07_1045,59.9967478861,FEMA4ImagesEEG,001,103080,
AFNE01.JPG,AFNE01.JPG,AFNE01.JPG,AFNE01.JPG,AFNE01.JPG,AFNE01.JPG,,,,,,,,,,,,,4,8,48,0,,,,,,,,,,,AMSA05.jpg,AMSA20.jpg,AMNE04.jpg,AMNE07.jpg,AMSA20.jpg,MS,2,num_6,48,None,,,,2018_Feb_07_1045,59.9967478861,FEMA4ImagesEEG,001,103080,
AFNE01.JPG,AFNE01.JPG,AFNE01.JPG,AFNE01.JPG,AFNE01.JPG,AFNE01.JPG,,,,,,,,,,,,,4,9,49,3,,,,,,,,,,,AMNE06.jpg,AMNE19.jpg,AMSA06.jpg,AMSA15.jpg,AMSA15.jpg,MS,2,num_4,32,num_8,1.26673192624,,,2018_Feb_07_1045,59.9967478861,FEMA4ImagesEEG,001,103080,
AFNE01.JPG,AFNE01.JPG,AFNE01.JPG,AFNE01.JPG,AFNE01.JPG,AFNE01.JPG,,,,,,,,,,,,,5,0,50,3,,,,,,,,,,,AMNE05.jpg,AMSA15.jpg,AMSA04.jpg,AMNE07.jpg,AMSA15.jpg,MS,2,num_6,48,None,,,,2018_Feb_07_1045,59.9967478861,FEMA4ImagesEEG,001,103080,
AFNE01.JPG,AFNE01.JPG,AFNE01.JPG,AFNE01.JPG,AFNE01.JPG,AFNE01.JPG,,,,,,,,,,,,,5,1,51,7,,,,,,,,,,,AMSA08.jpg,AMNE18.jpg,AMSA12.jpg,AMNE06.jpg,AMNE18.jpg,MN,1,num_6,48,None,,,,2018_Feb_07_1045,59.9967478861,FEMA4ImagesEEG,001,103080,
AFNE01.JPG,AFNE01.JPG,AFNE01.JPG,AFNE01.JPG,AFNE01.JPG,AFNE01.JPG,,,,,,,,,,,,,5,2,52,8,,,,,,,,,,,AMSA01.jpg,AMNE07.jpg,AMSA17.jpg,AMNE05.jpg,AMNE07.jpg,MN,1,num_6,48,None,,,,2018_Feb_07_1045,59.9967478861,FEMA4ImagesEEG,001,103080,
AFNE01.JPG,AFNE01.JPG,AFNE01.JPG,AFNE01.JPG,AFNE01.JPG,AFNE01.JPG,,,,,,,,,,,,,5,3,53,5,,,,,,,,,,,AMSA16.jpg,AMNE08.jpg,AMSA06.jpg,AMNE13.jpg,AMNE13.jpg,MN,1,num_4,48,None,,,,2018_Feb_07_1045,59.9967478861,FEMA4ImagesEEG,001,103080,
AFNE01.JPG,AFNE01.JPG,AFNE01.JPG,AFNE01.JPG,AFNE01.JPG,AFNE01.JPG,,,,,,,,,,,,,5,4,54,9,,,,,,,,,,,AMSA09.jpg,AMSA18.jpg,AMNE01.jpg,AMNE09.jpg,AMNE09.jpg,MN,1,num_4,48,None,,,,2018_Feb_07_1045,59.9967478861,FEMA4ImagesEEG,001,103080,
AFNE01.JPG,AFNE01.JPG,AFNE01.JPG,AFNE01.JPG,AFNE01.JPG,AFNE01.JPG,,,,,,,,,,,,,5,5,55,1,,,,,,,,,,,AMNE02.jpg,AMNE07.jpg,AMSA07.jpg,AMSA02.jpg,AMSA02.jpg,MS,2,num_4,48,None,,,,2018_Feb_07_1045,59.9967478861,FEMA4ImagesEEG,001,103080,
AFNE01.JPG,AFNE01.JPG,AFNE01.JPG,AFNE01.JPG,AFNE01.JPG,AFNE01.JPG,,,,,,,,,,,,,5,6,56,0,,,,,,,,,,,AMSA13.jpg,AMNE15.jpg,AMSA19.jpg,AMNE17.jpg,AMSA13.jpg,MS,2,num_8,48,None,,,,2018_Feb_07_1045,59.9967478861,FEMA4ImagesEEG,001,103080,
AFNE01.JPG,AFNE01.JPG,AFNE01.JPG,AFNE01.JPG,AFNE01.JPG,AFNE01.JPG,,,,,,,,,,,,,5,7,57,2,,,,,,,,,,,AMNE03.jpg,AMNE16.jpg,AMSA04.jpg,AMSA05.jpg,AMNE03.jpg,MN,1,num_8,48,None,,,,2018_Feb_07_1045,59.9967478861,FEMA4ImagesEEG,001,103080,
AFNE01.JPG,AFNE01.JPG,AFNE01.JPG,AFNE01.JPG,AFNE01.JPG,AFNE01.JPG,,,,,,,,,,,,,5,8,58,6,,,,,,,,,,,AMSA16.jpg,AMNE16.jpg,AMNE13.jpg,AMSA18.jpg,AMNE13.jpg,MN,1,num_2,32,num_8,0.550199066987,,,2018_Feb_07_1045,59.9967478861,FEMA4ImagesEEG,001,103080,
AFNE01.JPG,AFNE01.JPG,AFNE01.JPG,AFNE01.JPG,AFNE01.JPG,AFNE01.JPG,,,,,,,,,,,,,5,9,59,4,,,,,,,,,,,AMSA03.jpg,AMNE17.jpg,AMNE13.jpg,AMSA09.jpg,AMSA09.jpg,MS,2,num_4,32,num_8,0.583513936261,,,2018_Feb_07_1045,59.9967478861,FEMA4ImagesEEG,001,103080,
,,,,,,,,,,,,,,,,,,,,,,,,,,,,,,,,,,,,,,,,,,,space,3.51654228941,2018_Feb_07_1045,59.9967478861,FEMA4ImagesEEG,001,103080,
AFNE01.JPG,AFNE01.JPG,AFNE01.JPG,AFNE01.JPG,AFNE01.JPG,AFNE01.JPG,,,,,,,,,,,,,,,,,0,0,0,5,,,,,,,AFSA10.jpg,AFNE02.jpg,AFSA05.jpg,AFNE04.jpg,AFNE04.jpg,FN,3,num_4,48,None,,,,2018_Feb_07_1045,59.9967478861,FEMA4ImagesEEG,001,103080,
AFNE01.JPG,AFNE01.JPG,AFNE01.JPG,AFNE01.JPG,AFNE01.JPG,AFNE01.JPG,,,,,,,,,,,,,,,,,0,1,1,9,,,,,,,AFSA04.jpg,AFNE13.jpg,AFNE01.jpg,AFSA01.jpg,AFSA01.jpg,FS,4,num_4,32,num_8,0.750163336517,,,2018_Feb_07_1045,59.9967478861,FEMA4ImagesEEG,001,103080,
AFNE01.JPG,AFNE01.JPG,AFNE01.JPG,AFNE01.JPG,AFNE01.JPG,AFNE01.JPG,,,,,,,,,,,,,,,,,0,2,2,8,,,,,,,AFSA05.jpg,AFNE20.jpg,AFSA18.jpg,AFNE14.jpg,AFSA18.jpg,FS,4,num_2,32,num_6,1.11674140417,,,2018_Feb_07_1045,59.9967478861,FEMA4ImagesEEG,001,103080,
AFNE01.JPG,AFNE01.JPG,AFNE01.JPG,AFNE01.JPG,AFNE01.JPG,AFNE01.JPG,,,,,,,,,,,,,,,,,0,3,3,4,,,,,,,AFSA11.jpg,AFNE02.jpg,AFSA16.jpg,AFNE17.jpg,AFNE02.jpg,FN,3,num_6,16,num_6,0.983473908156,,,2018_Feb_07_1045,59.9967478861,FEMA4ImagesEEG,001,103080,
AFNE01.JPG,AFNE01.JPG,AFNE01.JPG,AFNE01.JPG,AFNE01.JPG,AFNE01.JPG,,,,,,,,,,,,,,,,,0,4,4,3,,,,,,,AFNE14.jpg,AFNE03.jpg,AFSA05.jpg,AFSA18.jpg,AFNE03.jpg,FN,3,num_6,32,num_2,2.69994069519,,,2018_Feb_07_1045,59.9967478861,FEMA4ImagesEEG,001,103080,
AFNE01.JPG,AFNE01.JPG,AFNE01.JPG,AFNE01.JPG,AFNE01.JPG,AFNE01.JPG,,,,,,,,,,,,,,,,,0,5,5,0,,,,,,,AFSA01.jpg,AFSA04.jpg,AFNE04.jpg,AFNE15.jpg,AFNE15.jpg,FN,3,num_4,48,None,,,,2018_Feb_07_1045,59.9967478861,FEMA4ImagesEEG,001,103080,
AFNE01.JPG,AFNE01.JPG,AFNE01.JPG,AFNE01.JPG,AFNE01.JPG,AFNE01.JPG,,,,,,,,,,,,,,,,,0,6,6,7,,,,,,,AFSA01.jpg,AFNE12.jpg,AFNE14.jpg,AFSA02.jpg,AFSA01.jpg,FS,4,num_8,16,num_8,0.716815430904,,,2018_Feb_07_1045,59.9967478861,FEMA4ImagesEEG,001,103080,
AFNE01.JPG,AFNE01.JPG,AFNE01.JPG,AFNE01.JPG,AFNE01.JPG,AFNE01.JPG,,,,,,,,,,,,,,,,,0,7,7,2,,,,,,,AFSA10.jpg,AFNE16.jpg,AFNE10.jpg,AFSA19.jpg,AFNE10.jpg,FN,3,num_2,32,num_4,1.31675635092,,,2018_Feb_07_1045,59.9967478861,FEMA4ImagesEEG,001,103080,
AFNE01.JPG,AFNE01.JPG,AFNE01.JPG,AFNE01.JPG,AFNE01.JPG,AFNE01.JPG,,,,,,,,,,,,,,,,,0,8,8,6,,,,,,,AFSA20.jpg,AFNE02.jpg,AFSA14.jpg,AFNE06.jpg,AFSA14.jpg,FS,4,num_2,48,None,,,,2018_Feb_07_1045,59.9967478861,FEMA4ImagesEEG,001,103080,
AFNE01.JPG,AFNE01.JPG,AFNE01.JPG,AFNE01.JPG,AFNE01.JPG,AFNE01.JPG,,,,,,,,,,,,,,,,,0,9,9,1,,,,,,,AFSA17.jpg,AFNE01.jpg,AFNE02.jpg,AFSA15.jpg,AFSA15.jpg,FS,4,num_4,48,None,,,,2018_Feb_07_1045,59.9967478861,FEMA4ImagesEEG,001,103080,
AFNE01.JPG,AFNE01.JPG,AFNE01.JPG,AFNE01.JPG,AFNE01.JPG,AFNE01.JPG,,,,,,,,,,,,,,,,,1,0,10,2,,,,,,,AFSA18.jpg,AFNE07.jpg,AFSA05.jpg,AFNE03.jpg,AFNE03.jpg,FN,3,num_4,48,None,,,,2018_Feb_07_1045,59.9967478861,FEMA4ImagesEEG,001,103080,
AFNE01.JPG,AFNE01.JPG,AFNE01.JPG,AFNE01.JPG,AFNE01.JPG,AFNE01.JPG,,,,,,,,,,,,,,,,,1,1,11,0,,,,,,,AFNE13.jpg,AFSA16.jpg,AFSA08.jpg,AFNE05.jpg,AFNE05.jpg,FN,3,num_4,48,None,,,,2018_Feb_07_1045,59.9967478861,FEMA4ImagesEEG,001,103080,
AFNE01.JPG,AFNE01.JPG,AFNE01.JPG,AFNE01.JPG,AFNE01.JPG,AFNE01.JPG,,,,,,,,,,,,,,,,,1,2,12,5,,,,,,,AFNE06.jpg,AFSA19.jpg,AFSA06.jpg,AFNE01.jpg,AFNE06.jpg,FN,3,num_8,48,None,,,,2018_Feb_07_1045,59.9967478861,FEMA4ImagesEEG,001,103080,
AFNE01.JPG,AFNE01.JPG,AFNE01.JPG,AFNE01.JPG,AFNE01.JPG,AFNE01.JPG,,,,,,,,,,,,,,,,,1,3,13,9,,,,,,,AFSA09.jpg,AFSA11.jpg,AFNE15.jpg,AFNE02.jpg,AFSA11.jpg,FS,4,num_6,32,num_8,4.89981644088,,,2018_Feb_07_1045,59.9967478861,FEMA4ImagesEEG,001,103080,
AFNE01.JPG,AFNE01.JPG,AFNE01.JPG,AFNE01.JPG,AFNE01.JPG,AFNE01.JPG,,,,,,,,,,,,,,,,,1,4,14,6,,,,,,,AFSA15.jpg,AFSA01.jpg,AFNE15.jpg,AFNE11.jpg,AFNE11.jpg,FN,3,num_4,32,num_8,2.5666058436,,,2018_Feb_07_1045,59.9967478861,FEMA4ImagesEEG,001,103080,
AFNE01.JPG,AFNE01.JPG,AFNE01.JPG,AFNE01.JPG,AFNE01.JPG,AFNE01.JPG,,,,,,,,,,,,,,,,,1,5,15,1,,,,,,,AFNE05.jpg,AFSA08.jpg,AFNE03.jpg,AFSA06.jpg,AFSA06.jpg,FS,4,num_4,16,num_4,0.783330345061,,,2018_Feb_07_1045,59.9967478861,FEMA4ImagesEEG,001,103080,
AFNE01.JPG,AFNE01.JPG,AFNE01.JPG,AFNE01.JPG,AFNE01.JPG,AFNE01.JPG,,,,,,,,,,,,,,,,,1,6,16,8,,,,,,,AFSA15.jpg,AFNE13.jpg,AFSA16.jpg,AFNE02.jpg,AFSA16.jpg,FS,4,num_2,32,num_4,1.50006398745,,,2018_Feb_07_1045,59.9967478861,FEMA4ImagesEEG,001,103080,
AFNE01.JPG,AFNE01.JPG,AFNE01.JPG,AFNE01.JPG,AFNE01.JPG,AFNE01.JPG,,,,,,,,,,,,,,,,,1,7,17,4,,,,,,,AFSA15.jpg,AFNE01.jpg,AFNE10.jpg,AFSA08.jpg,AFSA15.jpg,FS,4,num_8,48,None,,,,2018_Feb_07_1045,59.9967478861,FEMA4ImagesEEG,001,103080,
AFNE01.JPG,AFNE01.JPG,AFNE01.JPG,AFNE01.JPG,AFNE01.JPG,AFNE01.JPG,,,,,,,,,,,,,,,,,1,8,18,7,,,,,,,AFSA02.jpg,AFSA04.jpg,AFNE04.jpg,AFNE13.jpg,AFSA04.jpg,FS,4,num_6,48,None,,,,2018_Feb_07_1045,59.9967478861,FEMA4ImagesEEG,001,103080,
AFNE01.JPG,AFNE01.JPG,AFNE01.JPG,AFNE01.JPG,AFNE01.JPG,AFNE01.JPG,,,,,,,,,,,,,,,,,1,9,19,3,,,,,,,AFSA01.jpg,AFNE10.jpg,AFSA09.jpg,AFNE08.jpg,AFSA09.jpg,FS,4,num_2,32,num_4,1.61672616913,,,2018_Feb_07_1045,59.9967478861,FEMA4ImagesEEG,001,103080,
AFNE01.JPG,AFNE01.JPG,AFNE01.JPG,AFNE01.JPG,AFNE01.JPG,AFNE01.JPG,,,,,,,,,,,,,,,,,2,0,20,2,,,,,,,AFNE12.jpg,AFNE02.jpg,AFSA10.jpg,AFSA14.jpg,AFNE02.jpg,FN,3,num_6,32,num_4,0.600125344936,,,2018_Feb_07_1045,59.9967478861,FEMA4ImagesEEG,001,103080,
AFNE01.JPG,AFNE01.JPG,AFNE01.JPG,AFNE01.JPG,AFNE01.JPG,AFNE01.JPG,,,,,,,,,,,,,,,,,2,1,21,1,,,,,,,AFSA02.jpg,AFNE17.jpg,AFSA01.jpg,AFNE19.jpg,AFSA01.jpg,FS,4,num_2,32,num_4,2.0998727628,,,2018_Feb_07_1045,59.9967478861,FEMA4ImagesEEG,001,103080,
AFNE01.JPG,AFNE01.JPG,AFNE01.JPG,AFNE01.JPG,AFNE01.JPG,AFNE01.JPG,,,,,,,,,,,,,,,,,2,2,22,5,,,,,,,AFSA04.jpg,AFNE07.jpg,AFNE06.jpg,AFSA18.jpg,AFSA04.jpg,FS,4,num_8,16,num_8,2.43333802698,,,2018_Feb_07_1045,59.9967478861,FEMA4ImagesEEG,001,103080,
AFNE01.JPG,AFNE01.JPG,AFNE01.JPG,AFNE01.JPG,AFNE01.JPG,AFNE01.JPG,,,,,,,,,,,,,,,,,2,3,23,7,,,,,,,AFNE02.jpg,AFSA11.jpg,AFNE01.jpg,AFSA04.jpg,AFSA04.jpg,FS,4,num_4,48,None,,,,2018_Feb_07_1045,59.9967478861,FEMA4ImagesEEG,001,103080,
AFNE01.JPG,AFNE01.JPG,AFNE01.JPG,AFNE01.JPG,AFNE01.JPG,AFNE01.JPG,,,,,,,,,,,,,,,,,2,4,24,3,,,,,,,AFNE13.jpg,AFSA09.jpg,AFSA19.jpg,AFNE03.jpg,AFSA09.jpg,FS,4,num_6,48,None,,,,2018_Feb_07_1045,59.9967478861,FEMA4ImagesEEG,001,103080,
AFNE01.JPG,AFNE01.JPG,AFNE01.JPG,AFNE01.JPG,AFNE01.JPG,AFNE01.JPG,,,,,,,,,,,,,,,,,2,5,25,4,,,,,,,AFSA19.jpg,AFSA18.jpg,AFNE20.jpg,AFNE19.jpg,AFNE20.jpg,FN,3,num_2,48,None,,,,2018_Feb_07_1045,59.9967478861,FEMA4ImagesEEG,001,103080,
AFNE01.JPG,AFNE01.JPG,AFNE01.JPG,AFNE01.JPG,AFNE01.JPG,AFNE01.JPG,,,,,,,,,,,,,,,,,2,6,26,6,,,,,,,AFSA16.jpg,AFSA14.jpg,AFNE06.jpg,AFNE17.jpg,AFNE17.jpg,FN,3,num_4,48,None,,,,2018_Feb_07_1045,59.9967478861,FEMA4ImagesEEG,001,103080,
AFNE01.JPG,AFNE01.JPG,AFNE01.JPG,AFNE01.JPG,AFNE01.JPG,AFNE01.JPG,,,,,,,,,,,,,,,,,2,7,27,0,,,,,,,AFSA15.jpg,AFSA02.jpg,AFNE07.jpg,AFNE19.jpg,AFNE19.jpg,FN,3,num_4,16,num_4,3.33324170881,,,2018_Feb_07_1045,59.9967478861,FEMA4ImagesEEG,001,103080,
AFNE01.JPG,AFNE01.JPG,AFNE01.JPG,AFNE01.JPG,AFNE01.JPG,AFNE01.JPG,,,,,,,,,,,,,,,,,2,8,28,9,,,,,,,AFNE14.jpg,AFSA03.jpg,AFSA04.jpg,AFNE20.jpg,AFNE20.jpg,FN,3,num_4,48,None,,,,2018_Feb_07_1045,59.9967478861,FEMA4ImagesEEG,001,103080,
AFNE01.JPG,AFNE01.JPG,AFNE01.JPG,AFNE01.JPG,AFNE01.JPG,AFNE01.JPG,,,,,,,,,,,,,,,,,2,9,29,8,,,,,,,AFSA15.jpg,AFNE11.jpg,AFSA04.jpg,AFNE14.jpg,AFNE14.jpg,FN,3,num_4,48,None,,,,2018_Feb_07_1045,59.9967478861,FEMA4ImagesEEG,001,103080,
AFNE01.JPG,AFNE01.JPG,AFNE01.JPG,AFNE01.JPG,AFNE01.JPG,AFNE01.JPG,,,,,,,,,,,,,,,,,3,0,30,4,,,,,,,AFNE16.jpg,AFSA08.jpg,AFNE06.jpg,AFSA13.jpg,AFSA08.jpg,FS,4,num_6,48,None,,,,2018_Feb_07_1045,59.9967478861,FEMA4ImagesEEG,001,103080,
AFNE01.JPG,AFNE01.JPG,AFNE01.JPG,AFNE01.JPG,AFNE01.JPG,AFNE01.JPG,,,,,,,,,,,,,,,,,3,1,31,2,,,,,,,AFSA20.jpg,AFNE18.jpg,AFNE04.jpg,AFSA05.jpg,AFSA05.jpg,FS,4,num_4,16,num_4,1.41673110868,,,2018_Feb_07_1045,59.9967478861,FEMA4ImagesEEG,001,103080,
AFNE01.JPG,AFNE01.JPG,AFNE01.JPG,AFNE01.JPG,AFNE01.JPG,AFNE01.JPG,,,,,,,,,,,,,,,,,3,2,32,5,,,,,,,AFSA12.jpg,AFNE15.jpg,AFSA06.jpg,AFNE18.jpg,AFNE15.jpg,FN,3,num_6,32,num_4,3.59994508955,,,2018_Feb_07_1045,59.9967478861,FEMA4ImagesEEG,001,103080,
AFNE01.JPG,AFNE01.JPG,AFNE01.JPG,AFNE01.JPG,AFNE01.JPG,AFNE01.JPG,,,,,,,,,,,,,,,,,3,3,33,1,,,,,,,AFSA05.jpg,AFSA10.jpg,AFNE02.jpg,AFNE15.jpg,AFNE15.jpg,FN,3,num_4,48,None,,,,2018_Feb_07_1045,59.9967478861,FEMA4ImagesEEG,001,103080,
AFNE01.JPG,AFNE01.JPG,AFNE01.JPG,AFNE01.JPG,AFNE01.JPG,AFNE01.JPG,,,,,,,,,,,,,,,,,3,4,34,0,,,,,,,AFSA10.jpg,AFSA13.jpg,AFNE13.jpg,AFNE07.jpg,AFNE13.jpg,FN,3,num_2,48,None,,,,2018_Feb_07_1045,59.9967478861,FEMA4ImagesEEG,001,103080,
AFNE01.JPG,AFNE01.JPG,AFNE01.JPG,AFNE01.JPG,AFNE01.JPG,AFNE01.JPG,,,,,,,,,,,,,,,,,3,5,35,7,,,,,,,AFSA07.jpg,AFNE01.jpg,AFNE08.jpg,AFSA11.jpg,AFSA11.jpg,FS,4,num_4,16,num_4,1.31676308624,,,2018_Feb_07_1045,59.9967478861,FEMA4ImagesEEG,001,103080,
AFNE01.JPG,AFNE01.JPG,AFNE01.JPG,AFNE01.JPG,AFNE01.JPG,AFNE01.JPG,,,,,,,,,,,,,,,,,3,6,36,8,,,,,,,AFSA15.jpg,AFSA12.jpg,AFNE13.jpg,AFNE19.jpg,AFSA15.jpg,FS,4,num_8,32,num_4,0.866601963062,,,2018_Feb_07_1045,59.9967478861,FEMA4ImagesEEG,001,103080,
AFNE01.JPG,AFNE01.JPG,AFNE01.JPG,AFNE01.JPG,AFNE01.JPG,AFNE01.JPG,,,,,,,,,,,,,,,,,3,7,37,3,,,,,,,AFNE17.jpg,AFSA05.jpg,AFSA10.jpg,AFNE02.jpg,AFSA10.jpg,FS,4,num_2,48,None,,,,2018_Feb_07_1045,59.9967478861,FEMA4ImagesEEG,001,103080,
AFNE01.JPG,AFNE01.JPG,AFNE01.JPG,AFNE01.JPG,AFNE01.JPG,AFNE01.JPG,,,,,,,,,,,,,,,,,3,8,38,9,,,,,,,AFNE06.jpg,AFSA20.jpg,AFSA18.jpg,AFNE04.jpg,AFNE04.jpg,FN,3,num_4,48,None,,,,2018_Feb_07_1045,59.9967478861,FEMA4ImagesEEG,001,103080,
AFNE01.JPG,AFNE01.JPG,AFNE01.JPG,AFNE01.JPG,AFNE01.JPG,AFNE01.JPG,,,,,,,,,,,,,,,,,3,9,39,6,,,,,,,AFSA05.jpg,AFNE14.jpg,AFSA02.jpg,AFNE10.jpg,AFSA02.jpg,FS,4,num_2,32,num_4,0.63350372063,,,2018_Feb_07_1045,59.9967478861,FEMA4ImagesEEG,001,103080,
AFNE01.JPG,AFNE01.JPG,AFNE01.JPG,AFNE01.JPG,AFNE01.JPG,AFNE01.JPG,,,,,,,,,,,,,,,,,4,0,40,6,,,,,,,AFNE14.jpg,AFNE06.jpg,AFSA05.jpg,AFSA04.jpg,AFNE06.jpg,FN,3,num_6,48,None,,,,2018_Feb_07_1045,59.9967478861,FEMA4ImagesEEG,001,103080,
AFNE01.JPG,AFNE01.JPG,AFNE01.JPG,AFNE01.JPG,AFNE01.JPG,AFNE01.JPG,,,,,,,,,,,,,,,,,4,1,41,7,,,,,,,AFNE18.jpg,AFNE04.jpg,AFSA13.jpg,AFSA02.jpg,AFNE18.jpg,FN,3,num_8,48,None,,,,2018_Feb_07_1045,59.9967478861,FEMA4ImagesEEG,001,103080,
AFNE01.JPG,AFNE01.JPG,AFNE01.JPG,AFNE01.JPG,AFNE01.JPG,AFNE01.JPG,,,,,,,,,,,,,,,,,4,2,42,0,,,,,,,AFSA19.jpg,AFNE14.jpg,AFNE08.jpg,AFSA10.jpg,AFSA10.jpg,FS,4,num_4,48,None,,,,2018_Feb_07_1045,59.9967478861,FEMA4ImagesEEG,001,103080,
AFNE01.JPG,AFNE01.JPG,AFNE01.JPG,AFNE01.JPG,AFNE01.JPG,AFNE01.JPG,,,,,,,,,,,,,,,,,4,3,43,5,,,,,,,AFNE06.jpg,AFNE17.jpg,AFSA05.jpg,AFSA16.jpg,AFSA05.jpg,FS,4,num_2,32,num_8,0.766749406699,,,2018_Feb_07_1045,59.9967478861,FEMA4ImagesEEG,001,103080,
AFNE01.JPG,AFNE01.JPG,AFNE01.JPG,AFNE01.JPG,AFNE01.JPG,AFNE01.JPG,,,,,,,,,,,,,,,,,4,4,44,2,,,,,,,AFNE16.jpg,AFSA01.jpg,AFSA15.jpg,AFNE02.jpg,AFNE02.jpg,FN,3,num_4,48,None,,,,2018_Feb_07_1045,59.9967478861,FEMA4ImagesEEG,001,103080,
AFNE01.JPG,AFNE01.JPG,AFNE01.JPG,AFNE01.JPG,AFNE01.JPG,AFNE01.JPG,,,,,,,,,,,,,,,,,4,5,45,8,,,,,,,AFSA03.jpg,AFSA15.jpg,AFNE07.jpg,AFNE08.jpg,AFSA15.jpg,FS,4,num_6,48,None,,,,2018_Feb_07_1045,59.9967478861,FEMA4ImagesEEG,001,103080,
AFNE01.JPG,AFNE01.JPG,AFNE01.JPG,AFNE01.JPG,AFNE01.JPG,AFNE01.JPG,,,,,,,,,,,,,,,,,4,6,46,9,,,,,,,AFNE06.jpg,AFSA05.jpg,AFNE16.jpg,AFSA16.jpg,AFNE06.jpg,FN,3,num_8,32,num_4,3.73310994916,,,2018_Feb_07_1045,59.9967478861,FEMA4ImagesEEG,001,103080,
AFNE01.JPG,AFNE01.JPG,AFNE01.JPG,AFNE01.JPG,AFNE01.JPG,AFNE01.JPG,,,,,,,,,,,,,,,,,4,7,47,3,,,,,,,AFSA03.jpg,AFSA14.jpg,AFNE20.jpg,AFNE14.jpg,AFSA03.jpg,FS,4,num_8,48,None,,,,2018_Feb_07_1045,59.9967478861,FEMA4ImagesEEG,001,103080,
AFNE01.JPG,AFNE01.JPG,AFNE01.JPG,AFNE01.JPG,AFNE01.JPG,AFNE01.JPG,,,,,,,,,,,,,,,,,4,8,48,4,,,,,,,AFNE04.jpg,AFSA05.jpg,AFSA13.jpg,AFNE12.jpg,AFNE04.jpg,FN,3,num_8,32,num_6,0.566776477266,,,2018_Feb_07_1045,59.9967478861,FEMA4ImagesEEG,001,103080,
AFNE01.JPG,AFNE01.JPG,AFNE01.JPG,AFNE01.JPG,AFNE01.JPG,AFNE01.JPG,,,,,,,,,,,,,,,,,4,9,49,1,,,,,,,AFNE19.jpg,AFSA19.jpg,AFNE05.jpg,AFSA03.jpg,AFNE19.jpg,FN,3,num_8,48,None,,,,2018_Feb_07_1045,59.9967478861,FEMA4ImagesEEG,001,103080,
AFNE01.JPG,AFNE01.JPG,AFNE01.JPG,AFNE01.JPG,AFNE01.JPG,AFNE01.JPG,,,,,,,,,,,,,,,,,5,0,50,7,,,,,,,AFSA02.jpg,AFNE17.jpg,AFSA15.jpg,AFNE09.jpg,AFNE09.jpg,FN,3,num_4,48,None,,,,2018_Feb_07_1045,59.9967478861,FEMA4ImagesEEG,001,103080,
AFNE01.JPG,AFNE01.JPG,AFNE01.JPG,AFNE01.JPG,AFNE01.JPG,AFNE01.JPG,,,,,,,,,,,,,,,,,5,1,51,9,,,,,,,AFSA03.jpg,AFNE04.jpg,AFNE19.jpg,AFSA04.jpg,AFNE04.jpg,FN,3,num_6,48,None,,,,2018_Feb_07_1045,59.9967478861,FEMA4ImagesEEG,001,103080,
AFNE01.JPG,AFNE01.JPG,AFNE01.JPG,AFNE01.JPG,AFNE01.JPG,AFNE01.JPG,,,,,,,,,,,,,,,,,5,2,52,5,,,,,,,AFNE14.jpg,AFSA04.jpg,AFSA02.jpg,AFNE01.jpg,AFNE14.jpg,FN,3,num_8,48,None,,,,2018_Feb_07_1045,59.9967478861,FEMA4ImagesEEG,001,103080,
AFNE01.JPG,AFNE01.JPG,AFNE01.JPG,AFNE01.JPG,AFNE01.JPG,AFNE01.JPG,,,,,,,,,,,,,,,,,5,3,53,4,,,,,,,AFNE11.jpg,AFSA01.jpg,AFSA16.jpg,AFNE06.jpg,AFNE11.jpg,FN,3,num_8,32,num_6,1.46680075699,,,2018_Feb_07_1045,59.9967478861,FEMA4ImagesEEG,001,103080,
AFNE01.JPG,AFNE01.JPG,AFNE01.JPG,AFNE01.JPG,AFNE01.JPG,AFNE01.JPG,,,,,,,,,,,,,,,,,5,4,54,3,,,,,,,AFSA13.jpg,AFSA14.jpg,AFNE01.jpg,AFNE07.jpg,AFSA14.jpg,FS,4,num_6,48,None,,,,2018_Feb_07_1045,59.9967478861,FEMA4ImagesEEG,001,103080,
AFNE01.JPG,AFNE01.JPG,AFNE01.JPG,AFNE01.JPG,AFNE01.JPG,AFNE01.JPG,,,,,,,,,,,,,,,,,5,5,55,0,,,,,,,AFSA10.jpg,AFNE03.jpg,AFNE11.jpg,AFSA03.jpg,AFNE11.jpg,FN,3,num_2,48,None,,,,2018_Feb_07_1045,59.9967478861,FEMA4ImagesEEG,001,103080,
AFNE01.JPG,AFNE01.JPG,AFNE01.JPG,AFNE01.JPG,AFNE01.JPG,AFNE01.JPG,,,,,,,,,,,,,,,,,5,6,56,1,,,,,,,AFSA20.jpg,AFNE20.jpg,AFSA07.jpg,AFNE05.jpg,AFSA20.jpg,FS,4,num_8,48,None,,,,2018_Feb_07_1045,59.9967478861,FEMA4ImagesEEG,001,103080,
AFNE01.JPG,AFNE01.JPG,AFNE01.JPG,AFNE01.JPG,AFNE01.JPG,AFNE01.JPG,,,,,,,,,,,,,,,,,5,7,57,8,,,,,,,AFSA15.jpg,AFSA13.jpg,AFNE12.jpg,AFNE10.jpg,AFNE10.jpg,FN,3,num_4,48,None,,,,2018_Feb_07_1045,59.9967478861,FEMA4ImagesEEG,001,103080,
AFNE01.JPG,AFNE01.JPG,AFNE01.JPG,AFNE01.JPG,AFNE01.JPG,AFNE01.JPG,,,,,,,,,,,,,,,,,5,8,58,6,,,,,,,AFSA01.jpg,AFNE13.jpg,AFSA09.jpg,AFNE05.jpg,AFSA09.jpg,FS,4,num_2,48,None,,,,2018_Feb_07_1045,59.9967478861,FEMA4ImagesEEG,001,103080,
AFNE01.JPG,AFNE01.JPG,AFNE01.JPG,AFNE01.JPG,AFNE01.JPG,AFNE01.JPG,,,,,,,,,,,,,,,,,5,9,59,2,,,,,,,AFSA03.jpg,AFSA20.jpg,AFNE19.jpg,AFNE05.jpg,AFSA20.jpg,FS,4,num_6,32,num_8,0.750309272902,,,2018_Feb_07_1045,59.9967478861,FEMA4ImagesEEG,001,103080,
,,,,,,,,,,,,,,,,,,,,,,,,,,,,,,,,,,,,,,,,,,,space,2.36665055482,2018_Feb_07_1045,59.9967478861,FEMA4ImagesEEG,001,103080,
AFNE01.JPG,AFNE01.JPG,AFNE01.JPG,AFNE01.JPG,AFNE01.JPG,AFNE01.JPG,,,,,,,,,,,,,,,,,,,,,0,0,0,1,,,AMSA08.jpg,AMSA19.jpg,AMNE10.jpg,AMNE05.jpg,AMSA19.jpg,MS,2,num_6,48,None,,,,2018_Feb_07_1045,59.9967478861,FEMA4ImagesEEG,001,103080,
AFNE01.JPG,AFNE01.JPG,AFNE01.JPG,AFNE01.JPG,AFNE01.JPG,AFNE01.JPG,,,,,,,,,,,,,,,,,,,,,0,1,1,9,,,AMNE17.jpg,AMSA20.jpg,AMNE08.jpg,AMSA17.jpg,AMSA17.jpg,MS,2,num_4,32,num_8,0.233482167125,,,2018_Feb_07_1045,59.9967478861,FEMA4ImagesEEG,001,103080,
AFNE01.JPG,AFNE01.JPG,AFNE01.JPG,AFNE01.JPG,AFNE01.JPG,AFNE01.JPG,,,,,,,,,,,,,,,,,,,,,0,2,2,8,,,AMSA17.jpg,AMSA13.jpg,AMNE15.jpg,AMNE06.jpg,AMNE15.jpg,MN,1,num_2,32,num_4,0.400093078613,,,2018_Feb_07_1045,59.9967478861,FEMA4ImagesEEG,001,103080,
AFNE01.JPG,AFNE01.JPG,AFNE01.JPG,AFNE01.JPG,AFNE01.JPG,AFNE01.JPG,,,,,,,,,,,,,,,,,,,,,0,3,3,2,,,AMSA07.jpg,AMNE18.jpg,AMSA10.jpg,AMNE14.jpg,AMSA07.jpg,MS,2,num_8,48,None,,,,2018_Feb_07_1045,59.9967478861,FEMA4ImagesEEG,001,103080,
AFNE01.JPG,AFNE01.JPG,AFNE01.JPG,AFNE01.JPG,AFNE01.JPG,AFNE01.JPG,,,,,,,,,,,,,,,,,,,,,0,4,4,6,,,AMNE17.jpg,AMNE16.jpg,AMSA05.jpg,AMSA14.jpg,AMNE17.jpg,MN,1,num_8,48,None,,,,2018_Feb_07_1045,59.9967478861,FEMA4ImagesEEG,001,103080,
AFNE01.JPG,AFNE01.JPG,AFNE01.JPG,AFNE01.JPG,AFNE01.JPG,AFNE01.JPG,,,,,,,,,,,,,,,,,,,,,0,5,5,5,,,AMSA01.jpg,AMNE02.jpg,AMNE03.jpg,AMSA07.jpg,AMNE03.jpg,MN,1,num_2,32,num_6,3.46685945243,,,2018_Feb_07_1045,59.9967478861,FEMA4ImagesEEG,001,103080,
AFNE01.JPG,AFNE01.JPG,AFNE01.JPG,AFNE01.JPG,AFNE01.JPG,AFNE01.JPG,,,,,,,,,,,,,,,,,,,,,0,6,6,7,,,AMNE18.jpg,AMNE02.jpg,AMSA08.jpg,AMSA18.jpg,AMNE18.jpg,MN,1,num_8,48,None,,,,2018_Feb_07_1045,59.9967478861,FEMA4ImagesEEG,001,103080,
AFNE01.JPG,AFNE01.JPG,AFNE01.JPG,AFNE01.JPG,AFNE01.JPG,AFNE01.JPG,,,,,,,,,,,,,,,,,,,,,0,7,7,0,,,AMSA05.jpg,AMNE03.jpg,AMNE06.jpg,AMSA04.jpg,AMSA04.jpg,MS,2,num_4,16,num_4,1.56678706151,,,2018_Feb_07_1045,59.9967478861,FEMA4ImagesEEG,001,103080,
AFNE01.JPG,AFNE01.JPG,AFNE01.JPG,AFNE01.JPG,AFNE01.JPG,AFNE01.JPG,,,,,,,,,,,,,,,,,,,,,0,8,8,4,,,AMSA16.jpg,AMNE03.jpg,AMSA13.jpg,AMNE08.jpg,AMSA16.jpg,MS,2,num_8,32,num_6,3.03327156953,,,2018_Feb_07_1045,59.9967478861,FEMA4ImagesEEG,001,103080,
AFNE01.JPG,AFNE01.JPG,AFNE01.JPG,AFNE01.JPG,AFNE01.JPG,AFNE01.JPG,,,,,,,,,,,,,,,,,,,,,0,9,9,3,,,AMSA04.jpg,AMNE14.jpg,AMNE20.jpg,AMSA01.jpg,AMNE14.jpg,MN,1,num_6,48,None,,,,2018_Feb_07_1045,59.9967478861,FEMA4ImagesEEG,001,103080,
AFNE01.JPG,AFNE01.JPG,AFNE01.JPG,AFNE01.JPG,AFNE01.JPG,AFNE01.JPG,,,,,,,,,,,,,,,,,,,,,1,0,10,3,,,AMNE11.jpg,AMNE07.jpg,AMSA20.jpg,AMSA12.jpg,AMSA20.jpg,MS,2,num_2,32,num_6,0.566802456975,,,2018_Feb_07_1045,59.9967478861,FEMA4ImagesEEG,001,103080,
AFNE01.JPG,AFNE01.JPG,AFNE01.JPG,AFNE01.JPG,AFNE01.JPG,AFNE01.JPG,,,,,,,,,,,,,,,,,,,,,1,1,11,8,,,AMNE14.jpg,AMSA11.jpg,AMSA01.jpg,AMNE04.jpg,AMNE14.jpg,MN,1,num_8,32,num_4,0.933425428346,,,2018_Feb_07_1045,59.9967478861,FEMA4ImagesEEG,001,103080,
AFNE01.JPG,AFNE01.JPG,AFNE01.JPG,AFNE01.JPG,AFNE01.JPG,AFNE01.JPG,,,,,,,,,,,,,,,,,,,,,1,2,12,9,,,AMNE08.jpg,AMSA08.jpg,AMNE01.jpg,AMSA13.jpg,AMNE08.jpg,MN,1,num_8,48,None,,,,2018_Feb_07_1045,59.9967478861,FEMA4ImagesEEG,001,103080,
AFNE01.JPG,AFNE01.JPG,AFNE01.JPG,AFNE01.JPG,AFNE01.JPG,AFNE01.JPG,,,,,,,,,,,,,,,,,,,,,1,3,13,1,,,AMSA19.jpg,AMNE18.jpg,AMSA18.jpg,AMNE16.jpg,AMSA18.jpg,MS,2,num_2,32,num_6,0.58352484135,,,2018_Feb_07_1045,59.9967478861,FEMA4ImagesEEG,001,103080,
AFNE01.JPG,AFNE01.JPG,AFNE01.JPG,AFNE01.JPG,AFNE01.JPG,AFNE01.JPG,,,,,,,,,,,,,,,,,,,,,1,4,14,6,,,AMNE17.jpg,AMSA02.jpg,AMSA17.jpg,AMNE05.jpg,AMSA02.jpg,MS,2,num_6,32,num_8,0.750148261664,,,2018_Feb_07_1045,59.9967478861,FEMA4ImagesEEG,001,103080,
AFNE01.JPG,AFNE01.JPG,AFNE01.JPG,AFNE01.JPG,AFNE01.JPG,AFNE01.JPG,,,,,,,,,,,,,,,,,,,,,1,5,15,7,,,AMSA19.jpg,AMSA05.jpg,AMNE19.jpg,AMNE13.jpg,AMSA19.jpg,MS,2,num_8,48,None,,,,2018_Feb_07_1045,59.9967478861,FEMA4ImagesEEG,001,103080,
AFNE01.JPG,AFNE01.JPG,AFNE01.JPG,AFNE01.JPG,AFNE01.JPG,AFNE01.JPG,,,,,,,,,,,,,,,,,,,,,1,6,16,2,,,AMSA06.jpg,AMNE14.jpg,AMNE01.jpg,AMSA11.jpg,AMSA06.jpg,MS,2,num_8,32,num_4,1.70002537058,,,2018_Feb_07_1045,59.9967478861,FEMA4ImagesEEG,001,103080,
AFNE01.JPG,AFNE01.JPG,AFNE01.JPG,AFNE01.JPG,AFNE01.JPG,AFNE01.JPG,,,,,,,,,,,,,,,,,,,,,1,7,17,5,,,AMNE06.jpg,AMSA20.jpg,AMNE07.jpg,AMSA04.jpg,AMSA20.jpg,MS,2,num_6,16,num_6,2.59994990053,,,2018_Feb_07_1045,59.9967478861,FEMA4ImagesEEG,001,103080,
AFNE01.JPG,AFNE01.JPG,AFNE01.JPG,AFNE01.JPG,AFNE01.JPG,AFNE01.JPG,,,,,,,,,,,,,,,,,,,,,1,8,18,4,,,AMSA09.jpg,AMNE05.jpg,AMSA02.jpg,AMNE01.jpg,AMNE05.jpg,MN,1,num_6,48,None,,,,2018_Feb_07_1045,59.9967478861,FEMA4ImagesEEG,001,103080,
AFNE01.JPG,AFNE01.JPG,AFNE01.JPG,AFNE01.JPG,AFNE01.JPG,AFNE01.JPG,,,,,,,,,,,,,,,,,,,,,1,9,19,0,,,AMSA11.jpg,AMSA20.jpg,AMNE14.jpg,AMNE05.jpg,AMSA11.jpg,MS,2,num_8,32,num_2,1.01677241991,,,2018_Feb_07_1045,59.9967478861,FEMA4ImagesEEG,001,103080,
AFNE01.JPG,AFNE01.JPG,AFNE01.JPG,AFNE01.JPG,AFNE01.JPG,AFNE01.JPG,,,,,,,,,,,,,,,,,,,,,2,0,20,8,,,AMNE06.jpg,AMSA08.jpg,AMNE17.jpg,AMSA15.jpg,AMSA08.jpg,MS,2,num_6,48,None,,,,2018_Feb_07_1045,59.9967478861,FEMA4ImagesEEG,001,103080,
AFNE01.JPG,AFNE01.JPG,AFNE01.JPG,AFNE01.JPG,AFNE01.JPG,AFNE01.JPG,,,,,,,,,,,,,,,,,,,,,2,1,21,6,,,AMNE04.jpg,AMNE10.jpg,AMSA13.jpg,AMSA07.jpg,AMSA07.jpg,MS,2,num_4,48,None,,,,2018_Feb_07_1045,59.9967478861,FEMA4ImagesEEG,001,103080,
AFNE01.JPG,AFNE01.JPG,AFNE01.JPG,AFNE01.JPG,AFNE01.JPG,AFNE01.JPG,,,,,,,,,,,,,,,,,,,,,2,2,22,0,,,AMSA10.jpg,AMNE01.jpg,AMSA07.jpg,AMNE09.jpg,AMSA07.jpg,MS,2,num_2,16,num_2,3.1831386073,,,2018_Feb_07_1045,59.9967478861,FEMA4ImagesEEG,001,103080,
AFNE01.JPG,AFNE01.JPG,AFNE01.JPG,AFNE01.JPG,AFNE01.JPG,AFNE01.JPG,,,,,,,,,,,,,,,,,,,,,2,3,23,9,,,AMSA06.jpg,AMSA12.jpg,AMNE09.jpg,AMNE04.jpg,AMNE09.jpg,MN,1,num_2,32,num_8,4.8497891298,,,2018_Feb_07_1045,59.9967478861,FEMA4ImagesEEG,001,103080,
AFNE01.JPG,AFNE01.JPG,AFNE01.JPG,AFNE01.JPG,AFNE01.JPG,AFNE01.JPG,,,,,,,,,,,,,,,,,,,,,2,4,24,1,,,AMSA09.jpg,AMNE17.jpg,AMNE20.jpg,AMSA10.jpg,AMNE17.jpg,MN,1,num_6,32,num_8,0.53351485054,,,2018_Feb_07_1045,59.9967478861,FEMA4ImagesEEG,001,103080,
AFNE01.JPG,AFNE01.JPG,AFNE01.JPG,AFNE01.JPG,AFNE01.JPG,AFNE01.JPG,,,,,,,,,,,,,,,,,,,,,2,5,25,3,,,AMNE05.jpg,AMSA19.jpg,AMNE13.jpg,AMSA20.jpg,AMSA19.jpg,MS,2,num_6,32,num_2,3.11659739236,,,2018_Feb_07_1045,59.9967478861,FEMA4ImagesEEG,001,103080,
AFNE01.JPG,AFNE01.JPG,AFNE01.JPG,AFNE01.JPG,AFNE01.JPG,AFNE01.JPG,,,,,,,,,,,,,,,,,,,,,2,6,26,7,,,AMNE05.jpg,AMSA02.jpg,AMNE06.jpg,AMSA14.jpg,AMNE05.jpg,MN,1,num_8,48,None,,,,2018_Feb_07_1045,59.9967478861,FEMA4ImagesEEG,001,103080,
AFNE01.JPG,AFNE01.JPG,AFNE01.JPG,AFNE01.JPG,AFNE01.JPG,AFNE01.JPG,,,,,,,,,,,,,,,,,,,,,2,7,27,5,,,AMSA07.jpg,AMNE02.jpg,AMNE18.jpg,AMSA18.jpg,AMNE18.jpg,MN,1,num_2,48,None,,,,2018_Feb_07_1045,59.9967478861,FEMA4ImagesEEG,001,103080,
AFNE01.JPG,AFNE01.JPG,AFNE01.JPG,AFNE01.JPG,AFNE01.JPG,AFNE01.JPG,,,,,,,,,,,,,,,,,,,,,2,8,28,2,,,AMNE12.jpg,AMSA05.jpg,AMSA04.jpg,AMNE07.jpg,AMNE07.jpg,MN,1,num_4,48,None,,,,2018_Feb_07_1045,59.9967478861,FEMA4ImagesEEG,001,103080,
AFNE01.JPG,AFNE01.JPG,AFNE01.JPG,AFNE01.JPG,AFNE01.JPG,AFNE01.JPG,,,,,,,,,,,,,,,,,,,,,2,9,29,4,,,AMSA10.jpg,AMSA01.jpg,AMNE12.jpg,AMNE03.jpg,AMSA10.jpg,MS,2,num_8,48,None,,,,2018_Feb_07_1045,59.9967478861,FEMA4ImagesEEG,001,103080,
AFNE01.JPG,AFNE01.JPG,AFNE01.JPG,AFNE01.JPG,AFNE01.JPG,AFNE01.JPG,,,,,,,,,,,,,,,,,,,,,3,0,30,1,,,AMSA14.jpg,AMSA13.jpg,AMNE02.jpg,AMNE05.jpg,AMNE05.jpg,MN,1,num_4,48,None,,,,2018_Feb_07_1045,59.9967478861,FEMA4ImagesEEG,001,103080,
AFNE01.JPG,AFNE01.JPG,AFNE01.JPG,AFNE01.JPG,AFNE01.JPG,AFNE01.JPG,,,,,,,,,,,,,,,,,,,,,3,1,31,3,,,AMNE13.jpg,AMNE14.jpg,AMSA11.jpg,AMSA20.jpg,AMNE14.jpg,MN,1,num_6,16,num_6,2.00000898074,,,2018_Feb_07_1045,59.9967478861,FEMA4ImagesEEG,001,103080,
AFNE01.JPG,AFNE01.JPG,AFNE01.JPG,AFNE01.JPG,AFNE01.JPG,AFNE01.JPG,,,,,,,,,,,,,,,,,,,,,3,2,32,4,,,AMNE10.jpg,AMSA17.jpg,AMSA04.jpg,AMNE08.jpg,AMSA04.jpg,MS,2,num_2,48,None,,,,2018_Feb_07_1045,59.9967478861,FEMA4ImagesEEG,001,103080,
AFNE01.JPG,AFNE01.JPG,AFNE01.JPG,AFNE01.JPG,AFNE01.JPG,AFNE01.JPG,,,,,,,,,,,,,,,,,,,,,3,3,33,6,,,AMNE20.jpg,AMSA16.jpg,AMNE17.jpg,AMSA01.jpg,AMNE20.jpg,MN,1,num_8,32,num_2,3.74992278218,,,2018_Feb_07_1045,59.9967478861,FEMA4ImagesEEG,001,103080,
AFNE01.JPG,AFNE01.JPG,AFNE01.JPG,AFNE01.JPG,AFNE01.JPG,AFNE01.JPG,,,,,,,,,,,,,,,,,,,,,3,4,34,9,,,AMSA07.jpg,AMNE08.jpg,AMNE04.jpg,AMSA11.jpg,AMSA11.jpg,MS,2,num_4,48,None,,,,2018_Feb_07_1045,59.9967478861,FEMA4ImagesEEG,001,103080,
AFNE01.JPG,AFNE01.JPG,AFNE01.JPG,AFNE01.JPG,AFNE01.JPG,AFNE01.JPG,,,,,,,,,,,,,,,,,,,,,3,5,35,5,,,AMNE17.jpg,AMSA16.jpg,AMSA19.jpg,AMNE09.jpg,AMSA19.jpg,MS,2,num_2,48,None,,,,2018_Feb_07_1045,59.9967478861,FEMA4ImagesEEG,001,103080,
AFNE01.JPG,AFNE01.JPG,AFNE01.JPG,AFNE01.JPG,AFNE01.JPG,AFNE01.JPG,,,,,,,,,,,,,,,,,,,,,3,6,36,8,,,AMSA13.jpg,AMNE02.jpg,AMNE17.jpg,AMSA11.jpg,AMNE02.jpg,MN,1,num_6,16,num_6,1.43341564573,,,2018_Feb_07_1045,59.9967478861,FEMA4ImagesEEG,001,103080,
AFNE01.JPG,AFNE01.JPG,AFNE01.JPG,AFNE01.JPG,AFNE01.JPG,AFNE01.JPG,,,,,,,,,,,,,,,,,,,,,3,7,37,2,,,AMSA11.jpg,AMNE10.jpg,AMNE16.jpg,AMSA13.jpg,AMNE10.jpg,MN,1,num_6,32,num_8,0.700127686374,,,2018_Feb_07_1045,59.9967478861,FEMA4ImagesEEG,001,103080,
AFNE01.JPG,AFNE01.JPG,AFNE01.JPG,AFNE01.JPG,AFNE01.JPG,AFNE01.JPG,,,,,,,,,,,,,,,,,,,,,3,8,38,0,,,AMNE13.jpg,AMNE10.jpg,AMSA11.jpg,AMSA01.jpg,AMSA11.jpg,MS,2,num_2,48,None,,,,2018_Feb_07_1045,59.9967478861,FEMA4ImagesEEG,001,103080,
AFNE01.JPG,AFNE01.JPG,AFNE01.JPG,AFNE01.JPG,AFNE01.JPG,AFNE01.JPG,,,,,,,,,,,,,,,,,,,,,3,9,39,7,,,AMNE18.jpg,AMSA17.jpg,AMNE20.jpg,AMSA13.jpg,AMSA13.jpg,MS,2,num_4,16,num_4,0.733519853791,,,2018_Feb_07_1045,59.9967478861,FEMA4ImagesEEG,001,103080,
AFNE01.JPG,AFNE01.JPG,AFNE01.JPG,AFNE01.JPG,AFNE01.JPG,AFNE01.JPG,,,,,,,,,,,,,,,,,,,,,4,0,40,7,,,AMSA15.jpg,AMSA07.jpg,AMNE10.jpg,AMNE15.jpg,AMSA15.jpg,MS,2,num_8,32,num_6,0.816785377683,,,2018_Feb_07_1045,59.9967478861,FEMA4ImagesEEG,001,103080,
AFNE01.JPG,AFNE01.JPG,AFNE01.JPG,AFNE01.JPG,AFNE01.JPG,AFNE01.JPG,,,,,,,,,,,,,,,,,,,,,4,1,41,4,,,AMSA18.jpg,AMNE17.jpg,AMSA07.jpg,AMNE11.jpg,AMNE17.jpg,MN,1,num_6,32,num_4,0.783448377158,,,2018_Feb_07_1045,59.9967478861,FEMA4ImagesEEG,001,103080,
AFNE01.JPG,AFNE01.JPG,AFNE01.JPG,AFNE01.JPG,AFNE01.JPG,AFNE01.JPG,,,,,,,,,,,,,,,,,,,,,4,2,42,5,,,AMNE17.jpg,AMSA01.jpg,AMSA17.jpg,AMNE18.jpg,AMSA01.jpg,MS,2,num_6,16,num_6,2.1500517833,,,2018_Feb_07_1045,59.9967478861,FEMA4ImagesEEG,001,103080,
AFNE01.JPG,AFNE01.JPG,AFNE01.JPG,AFNE01.JPG,AFNE01.JPG,AFNE01.JPG,,,,,,,,,,,,,,,,,,,,,4,3,43,0,,,AMSA15.jpg,AMNE16.jpg,AMNE02.jpg,AMSA17.jpg,AMSA17.jpg,MS,2,num_4,16,num_4,1.70007572649,,,2018_Feb_07_1045,59.9967478861,FEMA4ImagesEEG,001,103080,
AFNE01.JPG,AFNE01.JPG,AFNE01.JPG,AFNE01.JPG,AFNE01.JPG,AFNE01.JPG,,,,,,,,,,,,,,,,,,,,,4,4,44,8,,,AMSA05.jpg,AMSA03.jpg,AMNE06.jpg,AMNE01.jpg,AMNE01.jpg,MN,1,num_4,16,num_4,0.933620758587,,,2018_Feb_07_1045,59.9967478861,FEMA4ImagesEEG,001,103080,
AFNE01.JPG,AFNE01.JPG,AFNE01.JPG,AFNE01.JPG,AFNE01.JPG,AFNE01.JPG,,,,,,,,,,,,,,,,,,,,,4,5,45,1,,,AMSA09.jpg,AMNE03.jpg,AMNE16.jpg,AMSA05.jpg,AMNE03.jpg,MN,1,num_6,48,None,,,,2018_Feb_07_1045,59.9967478861,FEMA4ImagesEEG,001,103080,
AFNE01.JPG,AFNE01.JPG,AFNE01.JPG,AFNE01.JPG,AFNE01.JPG,AFNE01.JPG,,,,,,,,,,,,,,,,,,,,,4,6,46,2,,,AMNE04.jpg,AMNE15.jpg,AMSA06.jpg,AMSA17.jpg,AMNE04.jpg,MN,1,num_8,48,None,,,,2018_Feb_07_1045,59.9967478861,FEMA4ImagesEEG,001,103080,
AFNE01.JPG,AFNE01.JPG,AFNE01.JPG,AFNE01.JPG,AFNE01.JPG,AFNE01.JPG,,,,,,,,,,,,,,,,,,,,,4,7,47,9,,,AMSA14.jpg,AMSA12.jpg,AMNE09.jpg,AMNE12.jpg,AMSA12.jpg,MS,2,num_6,48,None,,,,2018_Feb_07_1045,59.9967478861,FEMA4ImagesEEG,001,103080,
AFNE01.JPG,AFNE01.JPG,AFNE01.JPG,AFNE01.JPG,AFNE01.JPG,AFNE01.JPG,,,,,,,,,,,,,,,,,,,,,4,8,48,6,,,AMNE01.jpg,AMSA20.jpg,AMNE08.jpg,AMSA16.jpg,AMSA20.jpg,MS,2,num_6,32,num_4,1.18346095015,,,2018_Feb_07_1045,59.9967478861,FEMA4ImagesEEG,001,103080,
AFNE01.JPG,AFNE01.JPG,AFNE01.JPG,AFNE01.JPG,AFNE01.JPG,AFNE01.JPG,,,,,,,,,,,,,,,,,,,,,4,9,49,3,,,AMSA09.jpg,AMNE19.jpg,AMNE11.jpg,AMSA13.jpg,AMNE19.jpg,MN,1,num_6,48,None,,,,2018_Feb_07_1045,59.9967478861,FEMA4ImagesEEG,001,103080,
AFNE01.JPG,AFNE01.JPG,AFNE01.JPG,AFNE01.JPG,AFNE01.JPG,AFNE01.JPG,,,,,,,,,,,,,,,,,,,,,5,0,50,7,,,AMNE04.jpg,AMSA13.jpg,AMNE17.jpg,AMSA07.jpg,AMNE17.jpg,MN,1,num_2,32,num_8,0.616783260833,,,2018_Feb_07_1045,59.9967478861,FEMA4ImagesEEG,001,103080,
AFNE01.JPG,AFNE01.JPG,AFNE01.JPG,AFNE01.JPG,AFNE01.JPG,AFNE01.JPG,,,,,,,,,,,,,,,,,,,,,5,1,51,2,,,AMSA01.jpg,AMSA02.jpg,AMNE12.jpg,AMNE06.jpg,AMSA01.jpg,MS,2,num_8,32,num_4,0.450156633044,,,2018_Feb_07_1045,59.9967478861,FEMA4ImagesEEG,001,103080,
AFNE01.JPG,AFNE01.JPG,AFNE01.JPG,AFNE01.JPG,AFNE01.JPG,AFNE01.JPG,,,,,,,,,,,,,,,,,,,,,5,2,52,1,,,AMSA17.jpg,AMNE07.jpg,AMNE08.jpg,AMSA19.jpg,AMNE08.jpg,MN,1,num_2,32,num_4,0.283573946683,,,2018_Feb_07_1045,59.9967478861,FEMA4ImagesEEG,001,103080,
AFNE01.JPG,AFNE01.JPG,AFNE01.JPG,AFNE01.JPG,AFNE01.JPG,AFNE01.JPG,,,,,,,,,,,,,,,,,,,,,5,3,53,6,,,AMSA18.jpg,AMNE06.jpg,AMSA01.jpg,AMNE18.jpg,AMSA01.jpg,MS,2,num_2,32,num_4,1.43340730667,,,2018_Feb_07_1045,59.9967478861,FEMA4ImagesEEG,001,103080,
AFNE01.JPG,AFNE01.JPG,AFNE01.JPG,AFNE01.JPG,AFNE01.JPG,AFNE01.JPG,,,,,,,,,,,,,,,,,,,,,5,4,54,4,,,AMSA11.jpg,AMSA03.jpg,AMNE14.jpg,AMNE02.jpg,AMSA03.jpg,MS,2,num_6,32,num_4,0.616763374768,,,2018_Feb_07_1045,59.9967478861,FEMA4ImagesEEG,001,103080,
