IPosition2,IPosition3,IPosition1,IPosition6,IPosition4,IPosition5,TrialsM1.thisRepN,TrialsM1.thisTrialN,TrialsM1.thisN,TrialsM1.thisIndex,TrialsF1.thisRepN,TrialsF1.thisTrialN,TrialsF1.thisN,TrialsF1.thisIndex,TrialsM2.thisRepN,TrialsM2.thisTrialN,TrialsM2.thisN,TrialsM2.thisIndex,TrialsF2.thisRepN,TrialsF2.thisTrialN,TrialsF2.thisN,TrialsF2.thisIndex,TrialsM3.thisRepN,TrialsM3.thisTrialN,TrialsM3.thisN,TrialsM3.thisIndex,TrialsF3.thisRepN,TrialsF3.thisTrialN,TrialsF3.thisN,TrialsF3.thisIndex,InstrKey_resp.keys,InstrKey_resp.rt,Image0 _Position,Image1 _Position,Image2 _Position,Image3 _Position,Center_image,condition,code,correct_answer,accuracy,Key_Resp.keys,Key_Resp.rt,BreakKey_resp.keys,BreakKey_resp.rt,date,frameRate,expName,session,participant,
,,,,,,,,,,,,,,,,,,,,,,,,,,,,,,space,27.5150604737,,,,,,,,,,,,,,2018_Feb_15_1039,60.0043687704,MAFE4ImagesEEG,001,103061,
AFSA25.JPG,AFNE24.JPG,AFSA24.JPG,AFNE21.JPG,AFSA21.JPG,AFNE25.JPG,0,0,0,2,,,,,,,,,,,,,,,,,,,,,,,AMSA11.jpg,AMSA09.jpg,AMNE16.jpg,AMNE06.jpg,AMSA11.jpg,MS,2,num_8,16,num_8,0.666816665791,,,2018_Feb_15_1039,60.0043687704,MAFE4ImagesEEG,001,103061,
AMNE22.JPG,AMSA24.JPG,AMSA22.JPG,AMNE25.JPG,AMNE24.JPG,AMSA25.JPG,0,1,1,7,,,,,,,,,,,,,,,,,,,,,,,AMNE16.jpg,AMNE15.jpg,AMSA04.jpg,AMSA06.jpg,AMSA04.jpg,MS,2,num_2,16,num_2,0.783437471837,,,2018_Feb_15_1039,60.0043687704,MAFE4ImagesEEG,001,103061,
AFNE23.JPG,AFNE24.JPG,AFNE22.JPG,AFSA24.JPG,AFSA22.JPG,AFSA23.JPG,0,2,2,8,,,,,,,,,,,,,,,,,,,,,,,AMNE03.jpg,AMNE20.jpg,AMSA11.jpg,AMSA10.jpg,AMNE03.jpg,MN,1,num_8,16,num_8,0.666779139312,,,2018_Feb_15_1039,60.0043687704,MAFE4ImagesEEG,001,103061,
AMNE23.JPG,AMNE24.JPG,AMNE22.JPG,AMSA24.JPG,AMSA22.JPG,AMSA23.JPG,0,3,3,9,,,,,,,,,,,,,,,,,,,,,,,AMNE08.jpg,AMSA01.jpg,AMSA09.jpg,AMNE03.jpg,AMSA01.jpg,MS,2,num_6,16,num_6,0.616794165922,,,2018_Feb_15_1039,60.0043687704,MAFE4ImagesEEG,001,103061,
AFSA21.JPG,AFNE23.JPG,AFNE21.JPG,AFSA25.JPG,AFNE25.JPG,AFSA23.JPG,0,4,4,4,,,,,,,,,,,,,,,,,,,,,,,AMNE15.jpg,AMSA16.jpg,AMSA09.jpg,AMNE06.jpg,AMSA16.jpg,MS,2,num_6,16,num_6,0.61678422289,,,2018_Feb_15_1039,60.0043687704,MAFE4ImagesEEG,001,103061,
AMSA21.JPG,AMNE23.JPG,AMNE21.JPG,AMSA25.JPG,AMNE25.JPG,AMSA23.JPG,0,5,5,5,,,,,,,,,,,,,,,,,,,,,,,AMSA08.jpg,AMNE20.jpg,AMNE15.jpg,AMSA12.jpg,AMSA12.jpg,MS,2,num_4,32,num_2,1.30017252569,,,2018_Feb_15_1039,60.0043687704,MAFE4ImagesEEG,001,103061,
AFNE22.JPG,AFSA24.JPG,AFSA22.JPG,AFNE25.JPG,AFNE24.JPG,AFSA25.JPG,0,6,6,6,,,,,,,,,,,,,,,,,,,,,,,AMSA08.jpg,AMNE06.jpg,AMSA19.jpg,AMNE11.jpg,AMNE11.jpg,MN,1,num_4,32,num_6,1.25006278465,,,2018_Feb_15_1039,60.0043687704,MAFE4ImagesEEG,001,103061,
AMSA25.JPG,AMNE24.JPG,AMSA24.JPG,AMNE26.JPG,AMSA21.JPG,AMNE25.JPG,0,7,7,3,,,,,,,,,,,,,,,,,,,,,,,AMSA11.jpg,AMSA08.jpg,AMNE04.jpg,AMNE12.jpg,AMSA11.jpg,MS,2,num_8,16,num_8,0.583439524751,,,2018_Feb_15_1039,60.0043687704,MAFE4ImagesEEG,001,103061,
AFSA21.JPG,AFNE22.JPG,AFNE21.JPG,AFSA23.JPG,AFSA22.JPG,AFNE23.JPG,0,8,8,0,,,,,,,,,,,,,,,,,,,,,,,AMSA01.jpg,AMNE08.jpg,AMNE18.jpg,AMSA13.jpg,AMNE18.jpg,MN,1,num_2,32,num_4,1.08330144663,,,2018_Feb_15_1039,60.0043687704,MAFE4ImagesEEG,001,103061,
AMSA21.JPG,AMNE22.JPG,AMNE21.JPG,AMSA23.JPG,AMSA22.JPG,AMNE23.JPG,0,9,9,1,,,,,,,,,,,,,,,,,,,,,,,AMNE15.jpg,AMNE04.jpg,AMSA09.jpg,AMSA15.jpg,AMNE15.jpg,MN,1,num_8,16,num_8,0.850176262204,,,2018_Feb_15_1039,60.0043687704,MAFE4ImagesEEG,001,103061,
AMNE22.JPG,AMSA24.JPG,AMSA22.JPG,AMNE25.JPG,AMNE24.JPG,AMSA25.JPG,,,,,0,0,0,7,,,,,,,,,,,,,,,,,,,AFSA16.jpg,AFSA08.jpg,AFNE18.jpg,AFNE02.jpg,AFNE18.jpg,FN,3,num_2,32,num_8,0.899987715762,,,2018_Feb_15_1039,60.0043687704,MAFE4ImagesEEG,001,103061,
AMSA25.JPG,AMNE24.JPG,AMSA24.JPG,AMNE26.JPG,AMSA21.JPG,AMNE25.JPG,,,,,0,1,1,3,,,,,,,,,,,,,,,,,,,AFSA05.jpg,AFSA11.jpg,AFNE05.jpg,AFNE06.jpg,AFSA11.jpg,FS,4,num_6,16,num_6,1.28361211461,,,2018_Feb_15_1039,60.0043687704,MAFE4ImagesEEG,001,103061,
AFSA25.JPG,AFNE24.JPG,AFSA24.JPG,AFNE21.JPG,AFSA21.JPG,AFNE25.JPG,,,,,0,2,2,2,,,,,,,,,,,,,,,,,,,AFNE08.jpg,AFSA03.jpg,AFNE06.jpg,AFSA18.jpg,AFSA18.jpg,FS,4,num_4,16,num_4,1.76669135294,,,2018_Feb_15_1039,60.0043687704,MAFE4ImagesEEG,001,103061,
AFNE23.JPG,AFNE24.JPG,AFNE22.JPG,AFSA24.JPG,AFSA22.JPG,AFSA23.JPG,,,,,0,3,3,8,,,,,,,,,,,,,,,,,,,AFNE08.jpg,AFNE12.jpg,AFSA19.jpg,AFSA16.jpg,AFSA16.jpg,FS,4,num_4,32,num_2,1.2667444353,,,2018_Feb_15_1039,60.0043687704,MAFE4ImagesEEG,001,103061,
AFSA21.JPG,AFNE22.JPG,AFNE21.JPG,AFSA23.JPG,AFSA22.JPG,AFNE23.JPG,,,,,0,4,4,0,,,,,,,,,,,,,,,,,,,AFNE15.jpg,AFNE16.jpg,AFSA18.jpg,AFSA11.jpg,AFNE16.jpg,FN,3,num_6,32,num_8,0.95012632315,,,2018_Feb_15_1039,60.0043687704,MAFE4ImagesEEG,001,103061,
AMSA21.JPG,AMNE23.JPG,AMNE21.JPG,AMSA25.JPG,AMNE25.JPG,AMSA23.JPG,,,,,0,5,5,5,,,,,,,,,,,,,,,,,,,AFNE14.jpg,AFSA12.jpg,AFNE05.jpg,AFSA04.jpg,AFSA04.jpg,FS,4,num_4,32,num_8,0.616834899876,,,2018_Feb_15_1039,60.0043687704,MAFE4ImagesEEG,001,103061,
AMSA21.JPG,AMNE22.JPG,AMNE21.JPG,AMSA23.JPG,AMSA22.JPG,AMNE23.JPG,,,,,0,6,6,1,,,,,,,,,,,,,,,,,,,AFNE01.jpg,AFSA13.jpg,AFNE17.jpg,AFSA18.jpg,AFNE17.jpg,FN,3,num_2,32,num_8,1.8667257682,,,2018_Feb_15_1039,60.0043687704,MAFE4ImagesEEG,001,103061,
AMNE23.JPG,AMNE24.JPG,AMNE22.JPG,AMSA24.JPG,AMSA22.JPG,AMSA23.JPG,,,,,0,7,7,9,,,,,,,,,,,,,,,,,,,AFSA18.jpg,AFNE14.jpg,AFNE08.jpg,AFSA14.jpg,AFNE14.jpg,FN,3,num_6,32,num_2,1.03374979203,,,2018_Feb_15_1039,60.0043687704,MAFE4ImagesEEG,001,103061,
AFNE22.JPG,AFSA24.JPG,AFSA22.JPG,AFNE25.JPG,AFNE24.JPG,AFSA25.JPG,,,,,0,8,8,6,,,,,,,,,,,,,,,,,,,AFNE07.jpg,AFSA07.jpg,AFNE11.jpg,AFSA04.jpg,AFSA07.jpg,FS,4,num_6,32,num_2,1.48339163838,,,2018_Feb_15_1039,60.0043687704,MAFE4ImagesEEG,001,103061,
AFSA21.JPG,AFNE23.JPG,AFNE21.JPG,AFSA25.JPG,AFNE25.JPG,AFSA23.JPG,,,,,0,9,9,4,,,,,,,,,,,,,,,,,,,AFNE10.jpg,AFSA07.jpg,AFNE13.jpg,AFSA20.jpg,AFNE10.jpg,FN,3,num_8,32,num_6,0.933474822203,,,2018_Feb_15_1039,60.0043687704,MAFE4ImagesEEG,001,103061,
AMSA21.JPG,AMNE23.JPG,AMNE21.JPG,AMSA25.JPG,AMNE25.JPG,AMSA23.JPG,,,,,,,,,0,0,0,5,,,,,,,,,,,,,,,AMNE18.jpg,AMSA08.jpg,AMSA02.jpg,AMNE06.jpg,AMNE06.jpg,MN,1,num_4,32,num_8,1.23343662219,,,2018_Feb_15_1039,60.0043687704,MAFE4ImagesEEG,001,103061,
AFNE23.JPG,AFNE24.JPG,AFNE22.JPG,AFSA24.JPG,AFSA22.JPG,AFSA23.JPG,,,,,,,,,0,1,1,8,,,,,,,,,,,,,,,AMNE14.jpg,AMSA02.jpg,AMNE18.jpg,AMSA10.jpg,AMSA10.jpg,MS,2,num_4,16,num_4,0.883466434665,,,2018_Feb_15_1039,60.0043687704,MAFE4ImagesEEG,001,103061,
AMNE23.JPG,AMNE24.JPG,AMNE22.JPG,AMSA24.JPG,AMSA22.JPG,AMSA23.JPG,,,,,,,,,0,2,2,9,,,,,,,,,,,,,,,AMNE14.jpg,AMSA04.jpg,AMSA11.jpg,AMNE05.jpg,AMSA11.jpg,MS,2,num_2,32,num_6,0.733474308858,,,2018_Feb_15_1039,60.0043687704,MAFE4ImagesEEG,001,103061,
AFSA21.JPG,AFNE22.JPG,AFNE21.JPG,AFSA23.JPG,AFSA22.JPG,AFNE23.JPG,,,,,,,,,0,3,3,0,,,,,,,,,,,,,,,AMSA09.jpg,AMSA08.jpg,AMNE18.jpg,AMNE16.jpg,AMSA08.jpg,MS,2,num_6,32,num_8,1.1168167782,,,2018_Feb_15_1039,60.0043687704,MAFE4ImagesEEG,001,103061,
AFSA21.JPG,AFNE23.JPG,AFNE21.JPG,AFSA25.JPG,AFNE25.JPG,AFSA23.JPG,,,,,,,,,0,4,4,4,,,,,,,,,,,,,,,AMSA17.jpg,AMNE06.jpg,AMNE14.jpg,AMSA06.jpg,AMNE14.jpg,MN,1,num_2,16,num_2,0.616836182773,,,2018_Feb_15_1039,60.0043687704,MAFE4ImagesEEG,001,103061,
AFSA25.JPG,AFNE24.JPG,AFSA24.JPG,AFNE21.JPG,AFSA21.JPG,AFNE25.JPG,,,,,,,,,0,5,5,2,,,,,,,,,,,,,,,AMNE11.jpg,AMNE15.jpg,AMSA16.jpg,AMSA07.jpg,AMSA16.jpg,MS,2,num_2,16,num_2,1.43341660802,,,2018_Feb_15_1039,60.0043687704,MAFE4ImagesEEG,001,103061,
AMSA21.JPG,AMNE22.JPG,AMNE21.JPG,AMSA23.JPG,AMSA22.JPG,AMNE23.JPG,,,,,,,,,0,6,6,1,,,,,,,,,,,,,,,AMSA17.jpg,AMNE06.jpg,AMNE17.jpg,AMSA01.jpg,AMNE06.jpg,MN,1,num_6,32,num_8,1.35009880364,,,2018_Feb_15_1039,60.0043687704,MAFE4ImagesEEG,001,103061,
AMNE22.JPG,AMSA24.JPG,AMSA22.JPG,AMNE25.JPG,AMNE24.JPG,AMSA25.JPG,,,,,,,,,0,7,7,7,,,,,,,,,,,,,,,AMNE19.jpg,AMSA10.jpg,AMNE15.jpg,AMSA17.jpg,AMSA10.jpg,MS,2,num_6,32,num_8,0.816764208721,,,2018_Feb_15_1039,60.0043687704,MAFE4ImagesEEG,001,103061,
AFNE22.JPG,AFSA24.JPG,AFSA22.JPG,AFNE25.JPG,AFNE24.JPG,AFSA25.JPG,,,,,,,,,0,8,8,6,,,,,,,,,,,,,,,AMSA06.jpg,AMSA02.jpg,AMNE19.jpg,AMNE08.jpg,AMSA06.jpg,MS,2,num_8,16,num_8,0.666771762306,,,2018_Feb_15_1039,60.0043687704,MAFE4ImagesEEG,001,103061,
AMSA25.JPG,AMNE24.JPG,AMSA24.JPG,AMNE26.JPG,AMSA21.JPG,AMNE25.JPG,,,,,,,,,0,9,9,3,,,,,,,,,,,,,,,AMNE15.jpg,AMSA16.jpg,AMSA19.jpg,AMNE08.jpg,AMNE15.jpg,MN,1,num_8,32,num_4,0.85027505015,,,2018_Feb_15_1039,60.0043687704,MAFE4ImagesEEG,001,103061,
AMNE23.JPG,AMNE24.JPG,AMNE22.JPG,AMSA24.JPG,AMSA22.JPG,AMSA23.JPG,,,,,,,,,,,,,0,0,0,9,,,,,,,,,,,AFSA13.jpg,AFNE16.jpg,AFNE05.jpg,AFSA03.jpg,AFSA03.jpg,FS,4,num_4,16,num_4,0.733475912595,,,2018_Feb_15_1039,60.0043687704,MAFE4ImagesEEG,001,103061,
AMSA21.JPG,AMNE23.JPG,AMNE21.JPG,AMSA25.JPG,AMNE25.JPG,AMSA23.JPG,,,,,,,,,,,,,0,1,1,5,,,,,,,,,,,AFSA11.jpg,AFNE01.jpg,AFSA10.jpg,AFNE12.jpg,AFNE12.jpg,FN,3,num_4,32,num_2,1.56669019815,,,2018_Feb_15_1039,60.0043687704,MAFE4ImagesEEG,001,103061,
AMSA21.JPG,AMNE22.JPG,AMNE21.JPG,AMSA23.JPG,AMSA22.JPG,AMNE23.JPG,,,,,,,,,,,,,0,2,2,1,,,,,,,,,,,AFNE17.jpg,AFSA13.jpg,AFNE09.jpg,AFSA16.jpg,AFSA16.jpg,FS,4,num_4,16,num_4,0.933458143612,,,2018_Feb_15_1039,60.0043687704,MAFE4ImagesEEG,001,103061,
AMNE22.JPG,AMSA24.JPG,AMSA22.JPG,AMNE25.JPG,AMNE24.JPG,AMSA25.JPG,,,,,,,,,,,,,0,3,3,7,,,,,,,,,,,AFNE09.jpg,AFSA09.jpg,AFNE02.jpg,AFSA12.jpg,AFNE02.jpg,FN,3,num_2,16,num_2,0.733487138525,,,2018_Feb_15_1039,60.0043687704,MAFE4ImagesEEG,001,103061,
AFNE23.JPG,AFNE24.JPG,AFNE22.JPG,AFSA24.JPG,AFSA22.JPG,AFSA23.JPG,,,,,,,,,,,,,0,4,4,8,,,,,,,,,,,AFNE07.jpg,AFNE16.jpg,AFSA06.jpg,AFSA05.jpg,AFSA06.jpg,FS,4,num_2,16,num_2,0.800102123525,,,2018_Feb_15_1039,60.0043687704,MAFE4ImagesEEG,001,103061,
AFSA21.JPG,AFNE22.JPG,AFNE21.JPG,AFSA23.JPG,AFSA22.JPG,AFNE23.JPG,,,,,,,,,,,,,0,5,5,0,,,,,,,,,,,AFSA17.jpg,AFNE02.jpg,AFSA01.jpg,AFNE13.jpg,AFNE02.jpg,FN,3,num_6,16,num_6,0.616845804732,,,2018_Feb_15_1039,60.0043687704,MAFE4ImagesEEG,001,103061,
AFSA25.JPG,AFNE24.JPG,AFSA24.JPG,AFNE21.JPG,AFSA21.JPG,AFNE25.JPG,,,,,,,,,,,,,0,6,6,2,,,,,,,,,,,AFNE04.jpg,AFSA15.jpg,AFSA16.jpg,AFNE10.jpg,AFSA16.jpg,FS,4,num_2,32,num_6,0.650003191317,,,2018_Feb_15_1039,60.0043687704,MAFE4ImagesEEG,001,103061,
AFSA21.JPG,AFNE23.JPG,AFNE21.JPG,AFSA25.JPG,AFNE25.JPG,AFSA23.JPG,,,,,,,,,,,,,0,7,7,4,,,,,,,,,,,AFNE13.jpg,AFNE07.jpg,AFSA01.jpg,AFSA14.jpg,AFSA14.jpg,FS,4,num_4,32,num_2,0.8002519086,,,2018_Feb_15_1039,60.0043687704,MAFE4ImagesEEG,001,103061,
AMSA25.JPG,AMNE24.JPG,AMSA24.JPG,AMNE26.JPG,AMSA21.JPG,AMNE25.JPG,,,,,,,,,,,,,0,8,8,3,,,,,,,,,,,AFNE15.jpg,AFSA15.jpg,AFSA12.jpg,AFNE08.jpg,AFNE08.jpg,FN,3,num_4,16,num_4,0.766829270637,,,2018_Feb_15_1039,60.0043687704,MAFE4ImagesEEG,001,103061,
AFNE22.JPG,AFSA24.JPG,AFSA22.JPG,AFNE25.JPG,AFNE24.JPG,AFSA25.JPG,,,,,,,,,,,,,0,9,9,6,,,,,,,,,,,AFSA06.jpg,AFSA20.jpg,AFNE09.jpg,AFNE07.jpg,AFNE07.jpg,FN,3,num_4,16,num_4,0.650146882515,,,2018_Feb_15_1039,60.0043687704,MAFE4ImagesEEG,001,103061,
AMSA25.JPG,AMNE24.JPG,AMSA24.JPG,AMNE26.JPG,AMSA21.JPG,AMNE25.JPG,,,,,,,,,,,,,,,,,0,0,0,3,,,,,,,AMNE05.jpg,AMNE13.jpg,AMSA16.jpg,AMSA13.jpg,AMNE13.jpg,MN,1,num_6,16,num_6,0.783427849645,,,2018_Feb_15_1039,60.0043687704,MAFE4ImagesEEG,001,103061,
AMNE23.JPG,AMNE24.JPG,AMNE22.JPG,AMSA24.JPG,AMSA22.JPG,AMSA23.JPG,,,,,,,,,,,,,,,,,0,1,1,9,,,,,,,AMNE06.jpg,AMSA10.jpg,AMNE20.jpg,AMSA17.jpg,AMNE20.jpg,MN,1,num_2,16,num_2,1.10013705189,,,2018_Feb_15_1039,60.0043687704,MAFE4ImagesEEG,001,103061,
AFNE23.JPG,AFNE24.JPG,AFNE22.JPG,AFSA24.JPG,AFSA22.JPG,AFSA23.JPG,,,,,,,,,,,,,,,,,0,2,2,8,,,,,,,AMNE19.jpg,AMNE01.jpg,AMSA09.jpg,AMSA20.jpg,AMSA20.jpg,MS,2,num_4,16,num_4,0.766779877013,,,2018_Feb_15_1039,60.0043687704,MAFE4ImagesEEG,001,103061,
AFSA21.JPG,AFNE23.JPG,AFNE21.JPG,AFSA25.JPG,AFNE25.JPG,AFSA23.JPG,,,,,,,,,,,,,,,,,0,3,3,4,,,,,,,AMNE06.jpg,AMSA06.jpg,AMNE17.jpg,AMSA16.jpg,AMNE06.jpg,MN,1,num_8,16,num_8,0.850094473921,,,2018_Feb_15_1039,60.0043687704,MAFE4ImagesEEG,001,103061,
AFNE22.JPG,AFSA24.JPG,AFSA22.JPG,AFNE25.JPG,AFNE24.JPG,AFSA25.JPG,,,,,,,,,,,,,,,,,0,4,4,6,,,,,,,AMNE02.jpg,AMNE16.jpg,AMSA14.jpg,AMSA20.jpg,AMNE16.jpg,MN,1,num_6,32,num_8,0.650152014336,,,2018_Feb_15_1039,60.0043687704,MAFE4ImagesEEG,001,103061,
AMSA21.JPG,AMNE22.JPG,AMNE21.JPG,AMSA23.JPG,AMSA22.JPG,AMNE23.JPG,,,,,,,,,,,,,,,,,0,5,5,1,,,,,,,AMSA03.jpg,AMNE20.jpg,AMSA01.jpg,AMNE19.jpg,AMSA03.jpg,MS,2,num_8,16,num_8,0.866775482893,,,2018_Feb_15_1039,60.0043687704,MAFE4ImagesEEG,001,103061,
AFSA21.JPG,AFNE22.JPG,AFNE21.JPG,AFSA23.JPG,AFSA22.JPG,AFNE23.JPG,,,,,,,,,,,,,,,,,0,6,6,0,,,,,,,AMNE16.jpg,AMSA07.jpg,AMSA05.jpg,AMNE05.jpg,AMNE05.jpg,MN,1,num_4,32,num_8,0.850106020225,,,2018_Feb_15_1039,60.0043687704,MAFE4ImagesEEG,001,103061,
AMNE22.JPG,AMSA24.JPG,AMSA22.JPG,AMNE25.JPG,AMNE24.JPG,AMSA25.JPG,,,,,,,,,,,,,,,,,0,7,7,7,,,,,,,AMNE14.jpg,AMNE16.jpg,AMSA20.jpg,AMSA02.jpg,AMNE14.jpg,MN,1,num_8,16,num_8,0.750272387872,,,2018_Feb_15_1039,60.0043687704,MAFE4ImagesEEG,001,103061,
AMSA21.JPG,AMNE23.JPG,AMNE21.JPG,AMSA25.JPG,AMNE25.JPG,AMSA23.JPG,,,,,,,,,,,,,,,,,0,8,8,5,,,,,,,AMSA17.jpg,AMNE05.jpg,AMSA14.jpg,AMNE20.jpg,AMNE05.jpg,MN,1,num_6,16,num_6,1.28341902955,,,2018_Feb_15_1039,60.0043687704,MAFE4ImagesEEG,001,103061,
AFSA25.JPG,AFNE24.JPG,AFSA24.JPG,AFNE21.JPG,AFSA21.JPG,AFNE25.JPG,,,,,,,,,,,,,,,,,0,9,9,2,,,,,,,AMSA02.jpg,AMNE03.jpg,AMSA03.jpg,AMNE07.jpg,AMSA02.jpg,MS,2,num_8,16,num_8,0.833564212313,,,2018_Feb_15_1039,60.0043687704,MAFE4ImagesEEG,001,103061,
AFSA21.JPG,AFNE23.JPG,AFNE21.JPG,AFSA25.JPG,AFNE25.JPG,AFSA23.JPG,,,,,,,,,,,,,,,,,,,,,0,0,0,4,,,AFSA10.jpg,AFNE18.jpg,AFNE07.jpg,AFSA12.jpg,AFNE07.jpg,FN,3,num_2,32,num_4,1.26677362272,,,2018_Feb_15_1039,60.0043687704,MAFE4ImagesEEG,001,103061,
AFNE23.JPG,AFNE24.JPG,AFNE22.JPG,AFSA24.JPG,AFSA22.JPG,AFSA23.JPG,,,,,,,,,,,,,,,,,,,,,0,1,1,8,,,AFSA10.jpg,AFSA09.jpg,AFNE10.jpg,AFNE05.jpg,AFSA10.jpg,FS,4,num_8,32,num_6,1.01679230551,,,2018_Feb_15_1039,60.0043687704,MAFE4ImagesEEG,001,103061,
AMSA21.JPG,AMNE23.JPG,AMNE21.JPG,AMSA25.JPG,AMNE25.JPG,AMSA23.JPG,,,,,,,,,,,,,,,,,,,,,0,2,2,5,,,AFSA17.jpg,AFSA01.jpg,AFNE11.jpg,AFNE10.jpg,AFSA17.jpg,FS,4,num_8,32,num_6,0.750142167788,,,2018_Feb_15_1039,60.0043687704,MAFE4ImagesEEG,001,103061,
AMNE23.JPG,AMNE24.JPG,AMNE22.JPG,AMSA24.JPG,AMSA22.JPG,AMSA23.JPG,,,,,,,,,,,,,,,,,,,,,0,3,3,9,,,AFNE02.jpg,AFSA15.jpg,AFSA19.jpg,AFNE08.jpg,AFNE08.jpg,FN,3,num_4,16,num_4,1.58343086485,,,2018_Feb_15_1039,60.0043687704,MAFE4ImagesEEG,001,103061,
AFSA21.JPG,AFNE22.JPG,AFNE21.JPG,AFSA23.JPG,AFSA22.JPG,AFNE23.JPG,,,,,,,,,,,,,,,,,,,,,0,4,4,0,,,AFNE08.jpg,AFSA09.jpg,AFNE03.jpg,AFSA02.jpg,AFSA02.jpg,FS,4,num_4,32,num_6,1.61671398114,,,2018_Feb_15_1039,60.0043687704,MAFE4ImagesEEG,001,103061,
AMSA25.JPG,AMNE24.JPG,AMSA24.JPG,AMNE26.JPG,AMSA21.JPG,AMNE25.JPG,,,,,,,,,,,,,,,,,,,,,0,5,5,3,,,AFSA13.jpg,AFNE02.jpg,AFNE18.jpg,AFSA01.jpg,AFSA13.jpg,FS,4,num_8,16,num_8,1.00010937219,,,2018_Feb_15_1039,60.0043687704,MAFE4ImagesEEG,001,103061,
AFNE22.JPG,AFSA24.JPG,AFSA22.JPG,AFNE25.JPG,AFNE24.JPG,AFSA25.JPG,,,,,,,,,,,,,,,,,,,,,0,6,6,6,,,AFNE05.jpg,AFNE04.jpg,AFSA09.jpg,AFSA18.jpg,AFSA18.jpg,FS,4,num_4,32,num_2,1.36673490936,,,2018_Feb_15_1039,60.0043687704,MAFE4ImagesEEG,001,103061,
AMNE22.JPG,AMSA24.JPG,AMSA22.JPG,AMNE25.JPG,AMNE24.JPG,AMSA25.JPG,,,,,,,,,,,,,,,,,,,,,0,7,7,7,,,AFNE12.jpg,AFSA02.jpg,AFNE20.jpg,AFSA09.jpg,AFSA02.jpg,FS,4,num_6,16,num_6,1.1334034896,,,2018_Feb_15_1039,60.0043687704,MAFE4ImagesEEG,001,103061,
AMSA21.JPG,AMNE22.JPG,AMNE21.JPG,AMSA23.JPG,AMSA22.JPG,AMNE23.JPG,,,,,,,,,,,,,,,,,,,,,0,8,8,1,,,AFSA07.jpg,AFNE07.jpg,AFSA16.jpg,AFNE11.jpg,AFSA16.jpg,FS,4,num_2,32,num_8,0.883499150164,,,2018_Feb_15_1039,60.0043687704,MAFE4ImagesEEG,001,103061,
AFSA25.JPG,AFNE24.JPG,AFSA24.JPG,AFNE21.JPG,AFSA21.JPG,AFNE25.JPG,,,,,,,,,,,,,,,,,,,,,0,9,9,2,,,AFSA13.jpg,AFNE10.jpg,AFNE01.jpg,AFSA12.jpg,AFNE10.jpg,FN,3,num_6,16,num_6,0.633454326773,,,2018_Feb_15_1039,60.0043687704,MAFE4ImagesEEG,001,103061,
,,,,,,,,,,,,,,,,,,,,,,,,,,,,,,,,,,,,,,,,,,,space,12.9827740549,2018_Feb_15_1039,60.0043687704,MAFE4ImagesEEG,001,103061,
AFNE01.JPG,AFNE01.JPG,AFNE01.JPG,AFNE01.JPG,AFNE01.JPG,AFNE01.JPG,0,0,0,0,,,,,,,,,,,,,,,,,,,,,,,AMSA18.jpg,AMNE06.jpg,AMSA02.jpg,AMNE10.jpg,AMNE10.jpg,MN,1,num_4,32,num_6,0.933489896823,,,2018_Feb_15_1039,60.0043687704,MAFE4ImagesEEG,001,103061,
AFNE01.JPG,AFNE01.JPG,AFNE01.JPG,AFNE01.JPG,AFNE01.JPG,AFNE01.JPG,0,1,1,1,,,,,,,,,,,,,,,,,,,,,,,AMSA10.jpg,AMSA01.jpg,AMNE06.jpg,AMNE11.jpg,AMSA01.jpg,MS,2,num_6,16,num_6,0.666813779157,,,2018_Feb_15_1039,60.0043687704,MAFE4ImagesEEG,001,103061,
AFNE01.JPG,AFNE01.JPG,AFNE01.JPG,AFNE01.JPG,AFNE01.JPG,AFNE01.JPG,0,2,2,9,,,,,,,,,,,,,,,,,,,,,,,AMSA01.jpg,AMSA14.jpg,AMNE07.jpg,AMNE14.jpg,AMSA01.jpg,MS,2,num_8,16,num_8,0.866764577571,,,2018_Feb_15_1039,60.0043687704,MAFE4ImagesEEG,001,103061,
AFNE01.JPG,AFNE01.JPG,AFNE01.JPG,AFNE01.JPG,AFNE01.JPG,AFNE01.JPG,0,3,3,4,,,,,,,,,,,,,,,,,,,,,,,AMNE17.jpg,AMNE06.jpg,AMSA13.jpg,AMSA06.jpg,AMSA13.jpg,MS,2,num_2,32,num_6,0.799985374324,,,2018_Feb_15_1039,60.0043687704,MAFE4ImagesEEG,001,103061,
AFNE01.JPG,AFNE01.JPG,AFNE01.JPG,AFNE01.JPG,AFNE01.JPG,AFNE01.JPG,0,4,4,7,,,,,,,,,,,,,,,,,,,,,,,AMSA07.jpg,AMSA14.jpg,AMNE19.jpg,AMNE17.jpg,AMSA07.jpg,MS,2,num_8,16,num_8,2.60001180321,,,2018_Feb_15_1039,60.0043687704,MAFE4ImagesEEG,001,103061,
AFNE01.JPG,AFNE01.JPG,AFNE01.JPG,AFNE01.JPG,AFNE01.JPG,AFNE01.JPG,0,5,5,5,,,,,,,,,,,,,,,,,,,,,,,AMNE15.jpg,AMSA19.jpg,AMNE18.jpg,AMSA20.jpg,AMNE15.jpg,MN,1,num_8,16,num_8,1.0834438547,,,2018_Feb_15_1039,60.0043687704,MAFE4ImagesEEG,001,103061,
AFNE01.JPG,AFNE01.JPG,AFNE01.JPG,AFNE01.JPG,AFNE01.JPG,AFNE01.JPG,0,6,6,2,,,,,,,,,,,,,,,,,,,,,,,AMSA20.jpg,AMNE18.jpg,AMNE16.jpg,AMSA12.jpg,AMNE16.jpg,MN,1,num_2,16,num_2,1.93334396044,,,2018_Feb_15_1039,60.0043687704,MAFE4ImagesEEG,001,103061,
AFNE01.JPG,AFNE01.JPG,AFNE01.JPG,AFNE01.JPG,AFNE01.JPG,AFNE01.JPG,0,7,7,3,,,,,,,,,,,,,,,,,,,,,,,AMNE01.jpg,AMSA08.jpg,AMSA06.jpg,AMNE20.jpg,AMNE20.jpg,MN,1,num_4,32,num_8,0.933417409891,,,2018_Feb_15_1039,60.0043687704,MAFE4ImagesEEG,001,103061,
AFNE01.JPG,AFNE01.JPG,AFNE01.JPG,AFNE01.JPG,AFNE01.JPG,AFNE01.JPG,0,8,8,8,,,,,,,,,,,,,,,,,,,,,,,AMNE10.jpg,AMSA19.jpg,AMSA12.jpg,AMNE01.jpg,AMSA19.jpg,MS,2,num_6,32,num_8,0.616831371561,,,2018_Feb_15_1039,60.0043687704,MAFE4ImagesEEG,001,103061,
AFNE01.JPG,AFNE01.JPG,AFNE01.JPG,AFNE01.JPG,AFNE01.JPG,AFNE01.JPG,0,9,9,6,,,,,,,,,,,,,,,,,,,,,,,AMSA03.jpg,AMNE12.jpg,AMSA04.jpg,AMNE16.jpg,AMSA03.jpg,MS,2,num_8,16,num_8,0.916867903899,,,2018_Feb_15_1039,60.0043687704,MAFE4ImagesEEG,001,103061,
AFNE01.JPG,AFNE01.JPG,AFNE01.JPG,AFNE01.JPG,AFNE01.JPG,AFNE01.JPG,1,0,10,6,,,,,,,,,,,,,,,,,,,,,,,AMNE12.jpg,AMSA12.jpg,AMNE14.jpg,AMSA14.jpg,AMSA12.jpg,MS,2,num_6,32,num_8,0.916758852545,,,2018_Feb_15_1039,60.0043687704,MAFE4ImagesEEG,001,103061,
AFNE01.JPG,AFNE01.JPG,AFNE01.JPG,AFNE01.JPG,AFNE01.JPG,AFNE01.JPG,1,1,11,0,,,,,,,,,,,,,,,,,,,,,,,AMNE11.jpg,AMSA04.jpg,AMNE19.jpg,AMSA14.jpg,AMSA14.jpg,MS,2,num_4,16,num_4,1.01675862796,,,2018_Feb_15_1039,60.0043687704,MAFE4ImagesEEG,001,103061,
AFNE01.JPG,AFNE01.JPG,AFNE01.JPG,AFNE01.JPG,AFNE01.JPG,AFNE01.JPG,1,2,12,5,,,,,,,,,,,,,,,,,,,,,,,AMSA06.jpg,AMNE01.jpg,AMSA19.jpg,AMNE11.jpg,AMNE01.jpg,MN,1,num_6,16,num_6,3.38324849238,,,2018_Feb_15_1039,60.0043687704,MAFE4ImagesEEG,001,103061,
AFNE01.JPG,AFNE01.JPG,AFNE01.JPG,AFNE01.JPG,AFNE01.JPG,AFNE01.JPG,1,3,13,7,,,,,,,,,,,,,,,,,,,,,,,AMNE10.jpg,AMSA07.jpg,AMNE19.jpg,AMSA14.jpg,AMNE19.jpg,MN,1,num_2,16,num_2,1.46681679413,,,2018_Feb_15_1039,60.0043687704,MAFE4ImagesEEG,001,103061,
AFNE01.JPG,AFNE01.JPG,AFNE01.JPG,AFNE01.JPG,AFNE01.JPG,AFNE01.JPG,1,4,14,1,,,,,,,,,,,,,,,,,,,,,,,AMNE08.jpg,AMSA07.jpg,AMNE20.jpg,AMSA15.jpg,AMNE08.jpg,MN,1,num_8,16,num_8,0.683491580887,,,2018_Feb_15_1039,60.0043687704,MAFE4ImagesEEG,001,103061,
AFNE01.JPG,AFNE01.JPG,AFNE01.JPG,AFNE01.JPG,AFNE01.JPG,AFNE01.JPG,1,5,15,4,,,,,,,,,,,,,,,,,,,,,,,AMSA18.jpg,AMNE02.jpg,AMSA19.jpg,AMNE17.jpg,AMSA19.jpg,MS,2,num_2,32,num_8,0.983480322873,,,2018_Feb_15_1039,60.0043687704,MAFE4ImagesEEG,001,103061,
AFNE01.JPG,AFNE01.JPG,AFNE01.JPG,AFNE01.JPG,AFNE01.JPG,AFNE01.JPG,1,6,16,2,,,,,,,,,,,,,,,,,,,,,,,AMSA09.jpg,AMNE19.jpg,AMSA16.jpg,AMNE08.jpg,AMSA16.jpg,MS,2,num_2,32,num_8,1.26675020857,,,2018_Feb_15_1039,60.0043687704,MAFE4ImagesEEG,001,103061,
AFNE01.JPG,AFNE01.JPG,AFNE01.JPG,AFNE01.JPG,AFNE01.JPG,AFNE01.JPG,1,7,17,8,,,,,,,,,,,,,,,,,,,,,,,AMNE04.jpg,AMSA09.jpg,AMSA18.jpg,AMNE05.jpg,AMSA18.jpg,MS,2,num_2,32,num_8,1.13341086661,,,2018_Feb_15_1039,60.0043687704,MAFE4ImagesEEG,001,103061,
AFNE01.JPG,AFNE01.JPG,AFNE01.JPG,AFNE01.JPG,AFNE01.JPG,AFNE01.JPG,1,8,18,3,,,,,,,,,,,,,,,,,,,,,,,AMNE06.jpg,AMNE16.jpg,AMSA01.jpg,AMSA12.jpg,AMNE06.jpg,MN,1,num_8,32,num_4,0.800163705368,,,2018_Feb_15_1039,60.0043687704,MAFE4ImagesEEG,001,103061,
AFNE01.JPG,AFNE01.JPG,AFNE01.JPG,AFNE01.JPG,AFNE01.JPG,AFNE01.JPG,1,9,19,9,,,,,,,,,,,,,,,,,,,,,,,AMNE08.jpg,AMSA17.jpg,AMSA14.jpg,AMNE15.jpg,AMSA14.jpg,MS,2,num_2,16,num_2,0.866745974636,,,2018_Feb_15_1039,60.0043687704,MAFE4ImagesEEG,001,103061,
AFNE01.JPG,AFNE01.JPG,AFNE01.JPG,AFNE01.JPG,AFNE01.JPG,AFNE01.JPG,2,0,20,7,,,,,,,,,,,,,,,,,,,,,,,AMNE18.jpg,AMNE07.jpg,AMSA18.jpg,AMSA09.jpg,AMNE18.jpg,MN,1,num_8,16,num_8,1.03356151795,,,2018_Feb_15_1039,60.0043687704,MAFE4ImagesEEG,001,103061,
AFNE01.JPG,AFNE01.JPG,AFNE01.JPG,AFNE01.JPG,AFNE01.JPG,AFNE01.JPG,2,1,21,0,,,,,,,,,,,,,,,,,,,,,,,AMNE13.jpg,AMSA08.jpg,AMSA19.jpg,AMNE19.jpg,AMNE19.jpg,MN,1,num_4,16,num_4,0.900104785338,,,2018_Feb_15_1039,60.0043687704,MAFE4ImagesEEG,001,103061,
AFNE01.JPG,AFNE01.JPG,AFNE01.JPG,AFNE01.JPG,AFNE01.JPG,AFNE01.JPG,2,2,22,6,,,,,,,,,,,,,,,,,,,,,,,AMSA04.jpg,AMNE12.jpg,AMSA02.jpg,AMNE18.jpg,AMSA04.jpg,MS,2,num_8,16,num_8,0.766772499774,,,2018_Feb_15_1039,60.0043687704,MAFE4ImagesEEG,001,103061,
AFNE01.JPG,AFNE01.JPG,AFNE01.JPG,AFNE01.JPG,AFNE01.JPG,AFNE01.JPG,2,3,23,8,,,,,,,,,,,,,,,,,,,,,,,AMSA16.jpg,AMSA08.jpg,AMNE06.jpg,AMNE04.jpg,AMNE04.jpg,MN,1,num_4,32,num_6,0.866825838806,,,2018_Feb_15_1039,60.0043687704,MAFE4ImagesEEG,001,103061,
AFNE01.JPG,AFNE01.JPG,AFNE01.JPG,AFNE01.JPG,AFNE01.JPG,AFNE01.JPG,2,4,24,2,,,,,,,,,,,,,,,,,,,,,,,AMNE08.jpg,AMSA02.jpg,AMSA01.jpg,AMNE18.jpg,AMNE18.jpg,MN,1,num_4,32,num_8,0.850136169698,,,2018_Feb_15_1039,60.0043687704,MAFE4ImagesEEG,001,103061,
AFNE01.JPG,AFNE01.JPG,AFNE01.JPG,AFNE01.JPG,AFNE01.JPG,AFNE01.JPG,2,5,25,9,,,,,,,,,,,,,,,,,,,,,,,AMNE14.jpg,AMSA06.jpg,AMNE08.jpg,AMSA11.jpg,AMNE14.jpg,MN,1,num_8,16,num_8,0.683456941042,,,2018_Feb_15_1039,60.0043687704,MAFE4ImagesEEG,001,103061,
AFNE01.JPG,AFNE01.JPG,AFNE01.JPG,AFNE01.JPG,AFNE01.JPG,AFNE01.JPG,2,6,26,3,,,,,,,,,,,,,,,,,,,,,,,AMSA06.jpg,AMNE07.jpg,AMSA07.jpg,AMNE11.jpg,AMNE07.jpg,MN,1,num_6,16,num_6,0.883417361649,,,2018_Feb_15_1039,60.0043687704,MAFE4ImagesEEG,001,103061,
AFNE01.JPG,AFNE01.JPG,AFNE01.JPG,AFNE01.JPG,AFNE01.JPG,AFNE01.JPG,2,7,27,1,,,,,,,,,,,,,,,,,,,,,,,AMNE19.jpg,AMSA16.jpg,AMNE17.jpg,AMSA17.jpg,AMSA17.jpg,MS,2,num_4,32,num_6,0.700144043891,,,2018_Feb_15_1039,60.0043687704,MAFE4ImagesEEG,001,103061,
AFNE01.JPG,AFNE01.JPG,AFNE01.JPG,AFNE01.JPG,AFNE01.JPG,AFNE01.JPG,2,8,28,4,,,,,,,,,,,,,,,,,,,,,,,AMNE09.jpg,AMSA19.jpg,AMNE19.jpg,AMSA05.jpg,AMNE09.jpg,MN,1,num_8,16,num_8,1.08347977744,,,2018_Feb_15_1039,60.0043687704,MAFE4ImagesEEG,001,103061,
AFNE01.JPG,AFNE01.JPG,AFNE01.JPG,AFNE01.JPG,AFNE01.JPG,AFNE01.JPG,2,9,29,5,,,,,,,,,,,,,,,,,,,,,,,AMNE19.jpg,AMSA08.jpg,AMNE13.jpg,AMSA05.jpg,AMNE13.jpg,MN,1,num_2,32,num_8,1.20009801793,,,2018_Feb_15_1039,60.0043687704,MAFE4ImagesEEG,001,103061,
AFNE01.JPG,AFNE01.JPG,AFNE01.JPG,AFNE01.JPG,AFNE01.JPG,AFNE01.JPG,3,0,30,7,,,,,,,,,,,,,,,,,,,,,,,AMSA16.jpg,AMNE08.jpg,AMSA05.jpg,AMNE12.jpg,AMNE08.jpg,MN,1,num_6,32,num_8,1.71673300094,,,2018_Feb_15_1039,60.0043687704,MAFE4ImagesEEG,001,103061,
AFNE01.JPG,AFNE01.JPG,AFNE01.JPG,AFNE01.JPG,AFNE01.JPG,AFNE01.JPG,3,1,31,4,,,,,,,,,,,,,,,,,,,,,,,AMNE15.jpg,AMSA10.jpg,AMSA20.jpg,AMNE11.jpg,AMNE15.jpg,MN,1,num_8,16,num_8,0.816634309478,,,2018_Feb_15_1039,60.0043687704,MAFE4ImagesEEG,001,103061,
AFNE01.JPG,AFNE01.JPG,AFNE01.JPG,AFNE01.JPG,AFNE01.JPG,AFNE01.JPG,3,2,32,2,,,,,,,,,,,,,,,,,,,,,,,AMNE05.jpg,AMSA02.jpg,AMNE19.jpg,AMSA17.jpg,AMSA17.jpg,MS,2,num_4,32,num_6,1.13343299762,,,2018_Feb_15_1039,60.0043687704,MAFE4ImagesEEG,001,103061,
AFNE01.JPG,AFNE01.JPG,AFNE01.JPG,AFNE01.JPG,AFNE01.JPG,AFNE01.JPG,3,3,33,0,,,,,,,,,,,,,,,,,,,,,,,AMSA16.jpg,AMNE19.jpg,AMSA13.jpg,AMNE09.jpg,AMSA16.jpg,MS,2,num_8,32,num_4,1.56668827403,,,2018_Feb_15_1039,60.0043687704,MAFE4ImagesEEG,001,103061,
AFNE01.JPG,AFNE01.JPG,AFNE01.JPG,AFNE01.JPG,AFNE01.JPG,AFNE01.JPG,3,4,34,5,,,,,,,,,,,,,,,,,,,,,,,AMNE03.jpg,AMNE20.jpg,AMSA16.jpg,AMSA02.jpg,AMNE03.jpg,MN,1,num_8,16,num_8,0.733494836371,,,2018_Feb_15_1039,60.0043687704,MAFE4ImagesEEG,001,103061,
AFNE01.JPG,AFNE01.JPG,AFNE01.JPG,AFNE01.JPG,AFNE01.JPG,AFNE01.JPG,3,5,35,9,,,,,,,,,,,,,,,,,,,,,,,AMSA11.jpg,AMNE10.jpg,AMNE14.jpg,AMSA05.jpg,AMNE14.jpg,MN,1,num_2,16,num_2,0.850185563788,,,2018_Feb_15_1039,60.0043687704,MAFE4ImagesEEG,001,103061,
AFNE01.JPG,AFNE01.JPG,AFNE01.JPG,AFNE01.JPG,AFNE01.JPG,AFNE01.JPG,3,6,36,3,,,,,,,,,,,,,,,,,,,,,,,AMNE12.jpg,AMSA12.jpg,AMNE20.jpg,AMSA07.jpg,AMSA07.jpg,MS,2,num_4,32,num_6,0.950145888375,,,2018_Feb_15_1039,60.0043687704,MAFE4ImagesEEG,001,103061,
AFNE01.JPG,AFNE01.JPG,AFNE01.JPG,AFNE01.JPG,AFNE01.JPG,AFNE01.JPG,3,7,37,8,,,,,,,,,,,,,,,,,,,,,,,AMSA18.jpg,AMNE15.jpg,AMSA19.jpg,AMNE03.jpg,AMSA18.jpg,MS,2,num_8,16,num_8,0.650240859017,,,2018_Feb_15_1039,60.0043687704,MAFE4ImagesEEG,001,103061,
AFNE01.JPG,AFNE01.JPG,AFNE01.JPG,AFNE01.JPG,AFNE01.JPG,AFNE01.JPG,3,8,38,6,,,,,,,,,,,,,,,,,,,,,,,AMNE03.jpg,AMSA06.jpg,AMNE15.jpg,AMSA14.jpg,AMSA14.jpg,MS,2,num_4,16,num_4,0.700150779448,,,2018_Feb_15_1039,60.0043687704,MAFE4ImagesEEG,001,103061,
AFNE01.JPG,AFNE01.JPG,AFNE01.JPG,AFNE01.JPG,AFNE01.JPG,AFNE01.JPG,3,9,39,1,,,,,,,,,,,,,,,,,,,,,,,AMSA16.jpg,AMNE20.jpg,AMSA14.jpg,AMNE06.jpg,AMNE06.jpg,MN,1,num_4,16,num_4,0.800168195739,,,2018_Feb_15_1039,60.0043687704,MAFE4ImagesEEG,001,103061,
AFNE01.JPG,AFNE01.JPG,AFNE01.JPG,AFNE01.JPG,AFNE01.JPG,AFNE01.JPG,4,0,40,1,,,,,,,,,,,,,,,,,,,,,,,AMSA15.jpg,AMNE05.jpg,AMNE09.jpg,AMSA01.jpg,AMNE05.jpg,MN,1,num_6,16,num_6,1.01677466487,,,2018_Feb_15_1039,60.0043687704,MAFE4ImagesEEG,001,103061,
AFNE01.JPG,AFNE01.JPG,AFNE01.JPG,AFNE01.JPG,AFNE01.JPG,AFNE01.JPG,4,1,41,7,,,,,,,,,,,,,,,,,,,,,,,AMNE08.jpg,AMSA12.jpg,AMNE19.jpg,AMSA13.jpg,AMNE19.jpg,MN,1,num_2,16,num_2,0.633444383973,,,2018_Feb_15_1039,60.0043687704,MAFE4ImagesEEG,001,103061,
AFNE01.JPG,AFNE01.JPG,AFNE01.JPG,AFNE01.JPG,AFNE01.JPG,AFNE01.JPG,4,2,42,8,,,,,,,,,,,,,,,,,,,,,,,AMNE19.jpg,AMSA01.jpg,AMNE14.jpg,AMSA18.jpg,AMSA18.jpg,MS,2,num_4,32,num_8,0.916795095894,,,2018_Feb_15_1039,60.0043687704,MAFE4ImagesEEG,001,103061,
AFNE01.JPG,AFNE01.JPG,AFNE01.JPG,AFNE01.JPG,AFNE01.JPG,AFNE01.JPG,4,3,43,6,,,,,,,,,,,,,,,,,,,,,,,AMNE07.jpg,AMNE13.jpg,AMSA07.jpg,AMSA04.jpg,AMSA04.jpg,MS,2,num_4,32,num_8,1.33343607676,,,2018_Feb_15_1039,60.0043687704,MAFE4ImagesEEG,001,103061,
AFNE01.JPG,AFNE01.JPG,AFNE01.JPG,AFNE01.JPG,AFNE01.JPG,AFNE01.JPG,4,4,44,0,,,,,,,,,,,,,,,,,,,,,,,AMNE02.jpg,AMNE10.jpg,AMSA04.jpg,AMSA15.jpg,AMNE02.jpg,MN,1,num_8,16,num_8,1.13343684655,,,2018_Feb_15_1039,60.0043687704,MAFE4ImagesEEG,001,103061,
AFNE01.JPG,AFNE01.JPG,AFNE01.JPG,AFNE01.JPG,AFNE01.JPG,AFNE01.JPG,4,5,45,2,,,,,,,,,,,,,,,,,,,,,,,AMSA02.jpg,AMSA20.jpg,AMNE01.jpg,AMNE12.jpg,AMNE01.jpg,MN,1,num_2,32,num_8,0.800137083977,,,2018_Feb_15_1039,60.0043687704,MAFE4ImagesEEG,001,103061,
AFNE01.JPG,AFNE01.JPG,AFNE01.JPG,AFNE01.JPG,AFNE01.JPG,AFNE01.JPG,4,6,46,4,,,,,,,,,,,,,,,,,,,,,,,AMSA20.jpg,AMNE02.jpg,AMNE09.jpg,AMSA04.jpg,AMSA20.jpg,MS,2,num_8,32,num_2,1.66669959575,,,2018_Feb_15_1039,60.0043687704,MAFE4ImagesEEG,001,103061,
AFNE01.JPG,AFNE01.JPG,AFNE01.JPG,AFNE01.JPG,AFNE01.JPG,AFNE01.JPG,4,7,47,3,,,,,,,,,,,,,,,,,,,,,,,AMNE05.jpg,AMSA12.jpg,AMNE02.jpg,AMSA09.jpg,AMSA09.jpg,MS,2,num_4,32,num_6,0.700200493913,,,2018_Feb_15_1039,60.0043687704,MAFE4ImagesEEG,001,103061,
AFNE01.JPG,AFNE01.JPG,AFNE01.JPG,AFNE01.JPG,AFNE01.JPG,AFNE01.JPG,4,8,48,5,,,,,,,,,,,,,,,,,,,,,,,AMSA09.jpg,AMNE16.jpg,AMNE15.jpg,AMSA15.jpg,AMSA15.jpg,MS,2,num_4,32,num_8,0.85021058144,,,2018_Feb_15_1039,60.0043687704,MAFE4ImagesEEG,001,103061,
AFNE01.JPG,AFNE01.JPG,AFNE01.JPG,AFNE01.JPG,AFNE01.JPG,AFNE01.JPG,4,9,49,9,,,,,,,,,,,,,,,,,,,,,,,AMNE01.jpg,AMSA13.jpg,AMSA12.jpg,AMNE03.jpg,AMNE01.jpg,MN,1,num_8,32,num_6,0.716638062149,,,2018_Feb_15_1039,60.0043687704,MAFE4ImagesEEG,001,103061,
AFNE01.JPG,AFNE01.JPG,AFNE01.JPG,AFNE01.JPG,AFNE01.JPG,AFNE01.JPG,5,0,50,0,,,,,,,,,,,,,,,,,,,,,,,AMSA18.jpg,AMNE08.jpg,AMSA13.jpg,AMNE13.jpg,AMSA13.jpg,MS,2,num_2,32,num_6,1.11675744131,,,2018_Feb_15_1039,60.0043687704,MAFE4ImagesEEG,001,103061,
AFNE01.JPG,AFNE01.JPG,AFNE01.JPG,AFNE01.JPG,AFNE01.JPG,AFNE01.JPG,5,1,51,8,,,,,,,,,,,,,,,,,,,,,,,AMNE11.jpg,AMSA13.jpg,AMSA07.jpg,AMNE01.jpg,AMSA07.jpg,MS,2,num_2,16,num_2,0.833446500823,,,2018_Feb_15_1039,60.0043687704,MAFE4ImagesEEG,001,103061,
AFNE01.JPG,AFNE01.JPG,AFNE01.JPG,AFNE01.JPG,AFNE01.JPG,AFNE01.JPG,5,2,52,9,,,,,,,,,,,,,,,,,,,,,,,AMSA05.jpg,AMSA15.jpg,AMNE18.jpg,AMNE15.jpg,AMSA05.jpg,MS,2,num_8,16,num_8,0.666819231817,,,2018_Feb_15_1039,60.0043687704,MAFE4ImagesEEG,001,103061,
AFNE01.JPG,AFNE01.JPG,AFNE01.JPG,AFNE01.JPG,AFNE01.JPG,AFNE01.JPG,5,3,53,6,,,,,,,,,,,,,,,,,,,,,,,AMSA01.jpg,AMNE06.jpg,AMNE11.jpg,AMSA04.jpg,AMNE11.jpg,MN,1,num_2,16,num_2,1.00014304975,,,2018_Feb_15_1039,60.0043687704,MAFE4ImagesEEG,001,103061,
AFNE01.JPG,AFNE01.JPG,AFNE01.JPG,AFNE01.JPG,AFNE01.JPG,AFNE01.JPG,5,4,54,4,,,,,,,,,,,,,,,,,,,,,,,AMSA14.jpg,AMSA07.jpg,AMNE07.jpg,AMNE12.jpg,AMSA07.jpg,MS,2,num_6,32,num_2,0.600117647322,,,2018_Feb_15_1039,60.0043687704,MAFE4ImagesEEG,001,103061,
AFNE01.JPG,AFNE01.JPG,AFNE01.JPG,AFNE01.JPG,AFNE01.JPG,AFNE01.JPG,5,5,55,3,,,,,,,,,,,,,,,,,,,,,,,AMNE15.jpg,AMSA02.jpg,AMNE05.jpg,AMSA17.jpg,AMNE05.jpg,MN,1,num_2,32,num_6,0.93346359604,,,2018_Feb_15_1039,60.0043687704,MAFE4ImagesEEG,001,103061,
AFNE01.JPG,AFNE01.JPG,AFNE01.JPG,AFNE01.JPG,AFNE01.JPG,AFNE01.JPG,5,6,56,2,,,,,,,,,,,,,,,,,,,,,,,AMNE04.jpg,AMSA10.jpg,AMNE13.jpg,AMSA18.jpg,AMNE13.jpg,MN,1,num_2,16,num_2,1.48347759643,,,2018_Feb_15_1039,60.0043687704,MAFE4ImagesEEG,001,103061,
AFNE01.JPG,AFNE01.JPG,AFNE01.JPG,AFNE01.JPG,AFNE01.JPG,AFNE01.JPG,5,7,57,5,,,,,,,,,,,,,,,,,,,,,,,AMNE04.jpg,AMNE13.jpg,AMSA08.jpg,AMSA13.jpg,AMNE13.jpg,MN,1,num_6,16,num_6,0.616782298312,,,2018_Feb_15_1039,60.0043687704,MAFE4ImagesEEG,001,103061,
AFNE01.JPG,AFNE01.JPG,AFNE01.JPG,AFNE01.JPG,AFNE01.JPG,AFNE01.JPG,5,8,58,1,,,,,,,,,,,,,,,,,,,,,,,AMSA13.jpg,AMNE20.jpg,AMNE13.jpg,AMSA03.jpg,AMNE20.jpg,MN,1,num_6,16,num_6,0.516747241607,,,2018_Feb_15_1039,60.0043687704,MAFE4ImagesEEG,001,103061,
AFNE01.JPG,AFNE01.JPG,AFNE01.JPG,AFNE01.JPG,AFNE01.JPG,AFNE01.JPG,5,9,59,7,,,,,,,,,,,,,,,,,,,,,,,AMNE03.jpg,AMNE16.jpg,AMSA16.jpg,AMSA01.jpg,AMSA01.jpg,MS,2,num_4,16,num_4,0.700168099487,,,2018_Feb_15_1039,60.0043687704,MAFE4ImagesEEG,001,103061,
,,,,,,,,,,,,,,,,,,,,,,,,,,,,,,,,,,,,,,,,,,,space,35.9973798806,2018_Feb_15_1039,60.0043687704,MAFE4ImagesEEG,001,103061,
AFNE01.JPG,AFNE01.JPG,AFNE01.JPG,AFNE01.JPG,AFNE01.JPG,AFNE01.JPG,,,,,0,0,0,5,,,,,,,,,,,,,,,,,,,AFSA04.jpg,AFNE02.jpg,AFSA17.jpg,AFNE05.jpg,AFNE02.jpg,FN,3,num_6,16,num_6,0.566776477033,,,2018_Feb_15_1039,60.0043687704,MAFE4ImagesEEG,001,103061,
AFNE01.JPG,AFNE01.JPG,AFNE01.JPG,AFNE01.JPG,AFNE01.JPG,AFNE01.JPG,,,,,0,1,1,8,,,,,,,,,,,,,,,,,,,AFSA11.jpg,AFNE15.jpg,AFSA08.jpg,AFNE20.jpg,AFNE20.jpg,FN,3,num_4,32,num_6,0.733487779973,,,2018_Feb_15_1039,60.0043687704,MAFE4ImagesEEG,001,103061,
AFNE01.JPG,AFNE01.JPG,AFNE01.JPG,AFNE01.JPG,AFNE01.JPG,AFNE01.JPG,,,,,0,2,2,7,,,,,,,,,,,,,,,,,,,AFSA06.jpg,AFNE13.jpg,AFNE09.jpg,AFSA08.jpg,AFNE13.jpg,FN,3,num_6,16,num_6,0.700322375167,,,2018_Feb_15_1039,60.0043687704,MAFE4ImagesEEG,001,103061,
AFNE01.JPG,AFNE01.JPG,AFNE01.JPG,AFNE01.JPG,AFNE01.JPG,AFNE01.JPG,,,,,0,3,3,1,,,,,,,,,,,,,,,,,,,AFNE01.jpg,AFSA16.jpg,AFSA06.jpg,AFNE17.jpg,AFNE01.jpg,FN,3,num_8,32,num_2,0.850112755783,,,2018_Feb_15_1039,60.0043687704,MAFE4ImagesEEG,001,103061,
AFNE01.JPG,AFNE01.JPG,AFNE01.JPG,AFNE01.JPG,AFNE01.JPG,AFNE01.JPG,,,,,0,4,4,0,,,,,,,,,,,,,,,,,,,AFSA15.jpg,AFNE15.jpg,AFSA13.jpg,AFNE18.jpg,AFNE15.jpg,FN,3,num_6,16,num_6,1.01680032397,,,2018_Feb_15_1039,60.0043687704,MAFE4ImagesEEG,001,103061,
AFNE01.JPG,AFNE01.JPG,AFNE01.JPG,AFNE01.JPG,AFNE01.JPG,AFNE01.JPG,,,,,0,5,5,9,,,,,,,,,,,,,,,,,,,AFNE03.jpg,AFSA02.jpg,AFSA05.jpg,AFNE17.jpg,AFNE17.jpg,FN,3,num_4,32,num_8,0.883469962981,,,2018_Feb_15_1039,60.0043687704,MAFE4ImagesEEG,001,103061,
AFNE01.JPG,AFNE01.JPG,AFNE01.JPG,AFNE01.JPG,AFNE01.JPG,AFNE01.JPG,,,,,0,6,6,4,,,,,,,,,,,,,,,,,,,AFSA13.jpg,AFSA08.jpg,AFNE03.jpg,AFNE04.jpg,AFNE03.jpg,FN,3,num_2,16,num_2,0.616828164319,,,2018_Feb_15_1039,60.0043687704,MAFE4ImagesEEG,001,103061,
AFNE01.JPG,AFNE01.JPG,AFNE01.JPG,AFNE01.JPG,AFNE01.JPG,AFNE01.JPG,,,,,0,7,7,6,,,,,,,,,,,,,,,,,,,AFNE12.jpg,AFNE08.jpg,AFSA06.jpg,AFSA12.jpg,AFNE08.jpg,FN,3,num_6,16,num_6,0.65016516461,,,2018_Feb_15_1039,60.0043687704,MAFE4ImagesEEG,001,103061,
AFNE01.JPG,AFNE01.JPG,AFNE01.JPG,AFNE01.JPG,AFNE01.JPG,AFNE01.JPG,,,,,0,8,8,3,,,,,,,,,,,,,,,,,,,AFSA08.jpg,AFNE05.jpg,AFNE01.jpg,AFSA11.jpg,AFNE01.jpg,FN,3,num_2,16,num_2,0.800148630515,,,2018_Feb_15_1039,60.0043687704,MAFE4ImagesEEG,001,103061,
AFNE01.JPG,AFNE01.JPG,AFNE01.JPG,AFNE01.JPG,AFNE01.JPG,AFNE01.JPG,,,,,0,9,9,2,,,,,,,,,,,,,,,,,,,AFSA10.jpg,AFNE01.jpg,AFSA11.jpg,AFNE18.jpg,AFSA10.jpg,FS,4,num_8,16,num_8,1.86660132138,,,2018_Feb_15_1039,60.0043687704,MAFE4ImagesEEG,001,103061,
AFNE01.JPG,AFNE01.JPG,AFNE01.JPG,AFNE01.JPG,AFNE01.JPG,AFNE01.JPG,,,,,1,0,10,4,,,,,,,,,,,,,,,,,,,AFSA17.jpg,AFNE05.jpg,AFNE17.jpg,AFSA13.jpg,AFNE17.jpg,FN,3,num_2,16,num_2,0.883525130106,,,2018_Feb_15_1039,60.0043687704,MAFE4ImagesEEG,001,103061,
AFNE01.JPG,AFNE01.JPG,AFNE01.JPG,AFNE01.JPG,AFNE01.JPG,AFNE01.JPG,,,,,1,1,11,8,,,,,,,,,,,,,,,,,,,AFSA20.jpg,AFNE11.jpg,AFSA09.jpg,AFNE17.jpg,AFNE17.jpg,FN,3,num_4,32,num_8,1.05007093144,,,2018_Feb_15_1039,60.0043687704,MAFE4ImagesEEG,001,103061,
AFNE01.JPG,AFNE01.JPG,AFNE01.JPG,AFNE01.JPG,AFNE01.JPG,AFNE01.JPG,,,,,1,2,12,6,,,,,,,,,,,,,,,,,,,AFNE07.jpg,AFSA01.jpg,AFSA11.jpg,AFNE14.jpg,AFNE07.jpg,FN,3,num_8,16,num_8,0.700292225461,,,2018_Feb_15_1039,60.0043687704,MAFE4ImagesEEG,001,103061,
AFNE01.JPG,AFNE01.JPG,AFNE01.JPG,AFNE01.JPG,AFNE01.JPG,AFNE01.JPG,,,,,1,3,13,1,,,,,,,,,,,,,,,,,,,AFNE07.jpg,AFSA01.jpg,AFNE18.jpg,AFSA16.jpg,AFSA16.jpg,FS,4,num_4,16,num_4,1.68327251589,,,2018_Feb_15_1039,60.0043687704,MAFE4ImagesEEG,001,103061,
AFNE01.JPG,AFNE01.JPG,AFNE01.JPG,AFNE01.JPG,AFNE01.JPG,AFNE01.JPG,,,,,1,4,14,7,,,,,,,,,,,,,,,,,,,AFSA12.jpg,AFNE10.jpg,AFNE04.jpg,AFSA17.jpg,AFNE10.jpg,FN,3,num_6,32,num_8,0.733425556682,,,2018_Feb_15_1039,60.0043687704,MAFE4ImagesEEG,001,103061,
AFNE01.JPG,AFNE01.JPG,AFNE01.JPG,AFNE01.JPG,AFNE01.JPG,AFNE01.JPG,,,,,1,5,15,5,,,,,,,,,,,,,,,,,,,AFNE01.jpg,AFNE18.jpg,AFSA05.jpg,AFSA02.jpg,AFSA05.jpg,FS,4,num_2,16,num_2,1.35013665096,,,2018_Feb_15_1039,60.0043687704,MAFE4ImagesEEG,001,103061,
AFNE01.JPG,AFNE01.JPG,AFNE01.JPG,AFNE01.JPG,AFNE01.JPG,AFNE01.JPG,,,,,1,6,16,0,,,,,,,,,,,,,,,,,,,AFNE15.jpg,AFSA04.jpg,AFNE06.jpg,AFSA16.jpg,AFNE06.jpg,FN,3,num_2,16,num_2,0.966782314703,,,2018_Feb_15_1039,60.0043687704,MAFE4ImagesEEG,001,103061,
AFNE01.JPG,AFNE01.JPG,AFNE01.JPG,AFNE01.JPG,AFNE01.JPG,AFNE01.JPG,,,,,1,7,17,3,,,,,,,,,,,,,,,,,,,AFSA07.jpg,AFNE14.jpg,AFNE16.jpg,AFSA17.jpg,AFNE16.jpg,FN,3,num_2,16,num_2,0.98346524802,,,2018_Feb_15_1039,60.0043687704,MAFE4ImagesEEG,001,103061,
AFNE01.JPG,AFNE01.JPG,AFNE01.JPG,AFNE01.JPG,AFNE01.JPG,AFNE01.JPG,,,,,1,8,18,9,,,,,,,,,,,,,,,,,,,AFSA14.jpg,AFSA09.jpg,AFNE08.jpg,AFNE07.jpg,AFSA09.jpg,FS,4,num_6,32,num_2,0.866819103481,,,2018_Feb_15_1039,60.0043687704,MAFE4ImagesEEG,001,103061,
AFNE01.JPG,AFNE01.JPG,AFNE01.JPG,AFNE01.JPG,AFNE01.JPG,AFNE01.JPG,,,,,1,9,19,2,,,,,,,,,,,,,,,,,,,AFNE19.jpg,AFSA03.jpg,AFSA12.jpg,AFNE11.jpg,AFSA12.jpg,FS,4,num_2,16,num_2,0.616915084654,,,2018_Feb_15_1039,60.0043687704,MAFE4ImagesEEG,001,103061,
AFNE01.JPG,AFNE01.JPG,AFNE01.JPG,AFNE01.JPG,AFNE01.JPG,AFNE01.JPG,,,,,2,0,20,3,,,,,,,,,,,,,,,,,,,AFNE12.jpg,AFNE17.jpg,AFSA04.jpg,AFSA17.jpg,AFNE17.jpg,FN,3,num_6,16,num_6,0.766787254019,,,2018_Feb_15_1039,60.0043687704,MAFE4ImagesEEG,001,103061,
AFNE01.JPG,AFNE01.JPG,AFNE01.JPG,AFNE01.JPG,AFNE01.JPG,AFNE01.JPG,,,,,2,1,21,8,,,,,,,,,,,,,,,,,,,AFNE08.jpg,AFSA05.jpg,AFSA15.jpg,AFNE02.jpg,AFNE08.jpg,FN,3,num_8,16,num_8,0.816744002281,,,2018_Feb_15_1039,60.0043687704,MAFE4ImagesEEG,001,103061,
AFNE01.JPG,AFNE01.JPG,AFNE01.JPG,AFNE01.JPG,AFNE01.JPG,AFNE01.JPG,,,,,2,2,22,7,,,,,,,,,,,,,,,,,,,AFSA09.jpg,AFNE07.jpg,AFSA18.jpg,AFNE04.jpg,AFNE04.jpg,FN,3,num_4,32,num_6,1.40008313558,,,2018_Feb_15_1039,60.0043687704,MAFE4ImagesEEG,001,103061,
AFNE01.JPG,AFNE01.JPG,AFNE01.JPG,AFNE01.JPG,AFNE01.JPG,AFNE01.JPG,,,,,2,3,23,5,,,,,,,,,,,,,,,,,,,AFNE03.jpg,AFSA03.jpg,AFNE04.jpg,AFSA20.jpg,AFSA20.jpg,FS,4,num_4,32,num_6,0.666799666593,,,2018_Feb_15_1039,60.0043687704,MAFE4ImagesEEG,001,103061,
AFNE01.JPG,AFNE01.JPG,AFNE01.JPG,AFNE01.JPG,AFNE01.JPG,AFNE01.JPG,,,,,2,4,24,1,,,,,,,,,,,,,,,,,,,AFNE10.jpg,AFNE07.jpg,AFSA09.jpg,AFSA20.jpg,AFNE07.jpg,FN,3,num_6,16,num_6,0.983455305221,,,2018_Feb_15_1039,60.0043687704,MAFE4ImagesEEG,001,103061,
AFNE01.JPG,AFNE01.JPG,AFNE01.JPG,AFNE01.JPG,AFNE01.JPG,AFNE01.JPG,,,,,2,5,25,0,,,,,,,,,,,,,,,,,,,AFSA14.jpg,AFNE12.jpg,AFSA17.jpg,AFNE19.jpg,AFNE19.jpg,FN,3,num_4,16,num_4,0.983420023927,,,2018_Feb_15_1039,60.0043687704,MAFE4ImagesEEG,001,103061,
AFNE01.JPG,AFNE01.JPG,AFNE01.JPG,AFNE01.JPG,AFNE01.JPG,AFNE01.JPG,,,,,2,6,26,9,,,,,,,,,,,,,,,,,,,AFNE12.jpg,AFSA12.jpg,AFSA13.jpg,AFNE06.jpg,AFSA12.jpg,FS,4,num_6,16,num_6,0.70027266047,,,2018_Feb_15_1039,60.0043687704,MAFE4ImagesEEG,001,103061,
AFNE01.JPG,AFNE01.JPG,AFNE01.JPG,AFNE01.JPG,AFNE01.JPG,AFNE01.JPG,,,,,2,7,27,6,,,,,,,,,,,,,,,,,,,AFNE19.jpg,AFNE13.jpg,AFSA13.jpg,AFSA09.jpg,AFSA13.jpg,FS,4,num_2,32,num_6,0.883438530378,,,2018_Feb_15_1039,60.0043687704,MAFE4ImagesEEG,001,103061,
AFNE01.JPG,AFNE01.JPG,AFNE01.JPG,AFNE01.JPG,AFNE01.JPG,AFNE01.JPG,,,,,2,8,28,4,,,,,,,,,,,,,,,,,,,AFSA05.jpg,AFNE13.jpg,AFSA02.jpg,AFNE03.jpg,AFSA02.jpg,FS,4,num_2,16,num_2,1.10011620377,,,2018_Feb_15_1039,60.0043687704,MAFE4ImagesEEG,001,103061,
AFNE01.JPG,AFNE01.JPG,AFNE01.JPG,AFNE01.JPG,AFNE01.JPG,AFNE01.JPG,,,,,2,9,29,2,,,,,,,,,,,,,,,,,,,AFNE09.jpg,AFSA02.jpg,AFNE18.jpg,AFSA08.jpg,AFSA08.jpg,FS,4,num_4,16,num_4,0.866753993323,,,2018_Feb_15_1039,60.0043687704,MAFE4ImagesEEG,001,103061,
AFNE01.JPG,AFNE01.JPG,AFNE01.JPG,AFNE01.JPG,AFNE01.JPG,AFNE01.JPG,,,,,3,0,30,6,,,,,,,,,,,,,,,,,,,AFSA17.jpg,AFSA06.jpg,AFNE14.jpg,AFNE03.jpg,AFNE14.jpg,FN,3,num_2,16,num_2,0.916798303369,,,2018_Feb_15_1039,60.0043687704,MAFE4ImagesEEG,001,103061,
AFNE01.JPG,AFNE01.JPG,AFNE01.JPG,AFNE01.JPG,AFNE01.JPG,AFNE01.JPG,,,,,3,1,31,7,,,,,,,,,,,,,,,,,,,AFNE07.jpg,AFSA19.jpg,AFSA05.jpg,AFNE03.jpg,AFNE07.jpg,FN,3,num_8,16,num_8,0.950118946144,,,2018_Feb_15_1039,60.0043687704,MAFE4ImagesEEG,001,103061,
AFNE01.JPG,AFNE01.JPG,AFNE01.JPG,AFNE01.JPG,AFNE01.JPG,AFNE01.JPG,,,,,3,2,32,0,,,,,,,,,,,,,,,,,,,AFNE19.jpg,AFSA15.jpg,AFNE16.jpg,AFSA02.jpg,AFSA15.jpg,FS,4,num_6,16,num_6,0.783464734908,,,2018_Feb_15_1039,60.0043687704,MAFE4ImagesEEG,001,103061,
AFNE01.JPG,AFNE01.JPG,AFNE01.JPG,AFNE01.JPG,AFNE01.JPG,AFNE01.JPG,,,,,3,3,33,9,,,,,,,,,,,,,,,,,,,AFSA20.jpg,AFNE10.jpg,AFNE15.jpg,AFSA15.jpg,AFSA20.jpg,FS,4,num_8,16,num_8,0.800140291452,,,2018_Feb_15_1039,60.0043687704,MAFE4ImagesEEG,001,103061,
AFNE01.JPG,AFNE01.JPG,AFNE01.JPG,AFNE01.JPG,AFNE01.JPG,AFNE01.JPG,,,,,3,4,34,3,,,,,,,,,,,,,,,,,,,AFNE12.jpg,AFSA19.jpg,AFNE06.jpg,AFSA14.jpg,AFSA14.jpg,FS,4,num_4,32,num_2,0.833329110174,,,2018_Feb_15_1039,60.0043687704,MAFE4ImagesEEG,001,103061,
AFNE01.JPG,AFNE01.JPG,AFNE01.JPG,AFNE01.JPG,AFNE01.JPG,AFNE01.JPG,,,,,3,5,35,2,,,,,,,,,,,,,,,,,,,AFNE06.jpg,AFNE18.jpg,AFSA09.jpg,AFSA16.jpg,AFSA16.jpg,FS,4,num_4,16,num_4,1.06659734435,,,2018_Feb_15_1039,60.0043687704,MAFE4ImagesEEG,001,103061,
AFNE01.JPG,AFNE01.JPG,AFNE01.JPG,AFNE01.JPG,AFNE01.JPG,AFNE01.JPG,,,,,3,6,36,8,,,,,,,,,,,,,,,,,,,AFSA18.jpg,AFSA15.jpg,AFNE07.jpg,AFNE11.jpg,AFSA15.jpg,FS,4,num_6,16,num_6,0.633476457791,,,2018_Feb_15_1039,60.0043687704,MAFE4ImagesEEG,001,103061,
AFNE01.JPG,AFNE01.JPG,AFNE01.JPG,AFNE01.JPG,AFNE01.JPG,AFNE01.JPG,,,,,3,7,37,1,,,,,,,,,,,,,,,,,,,AFSA15.jpg,AFSA16.jpg,AFNE03.jpg,AFNE11.jpg,AFNE11.jpg,FN,3,num_4,16,num_4,1.11660797684,,,2018_Feb_15_1039,60.0043687704,MAFE4ImagesEEG,001,103061,
AFNE01.JPG,AFNE01.JPG,AFNE01.JPG,AFNE01.JPG,AFNE01.JPG,AFNE01.JPG,,,,,3,8,38,4,,,,,,,,,,,,,,,,,,,AFNE20.jpg,AFNE07.jpg,AFSA07.jpg,AFSA06.jpg,AFNE07.jpg,FN,3,num_6,16,num_6,0.516812031157,,,2018_Feb_15_1039,60.0043687704,MAFE4ImagesEEG,001,103061,
AFNE01.JPG,AFNE01.JPG,AFNE01.JPG,AFNE01.JPG,AFNE01.JPG,AFNE01.JPG,,,,,3,9,39,5,,,,,,,,,,,,,,,,,,,AFSA15.jpg,AFNE01.jpg,AFSA07.jpg,AFNE16.jpg,AFNE16.jpg,FN,3,num_4,16,num_4,0.933226569789,,,2018_Feb_15_1039,60.0043687704,MAFE4ImagesEEG,001,103061,
AFNE01.JPG,AFNE01.JPG,AFNE01.JPG,AFNE01.JPG,AFNE01.JPG,AFNE01.JPG,,,,,4,0,40,6,,,,,,,,,,,,,,,,,,,AFSA07.jpg,AFNE01.jpg,AFSA03.jpg,AFNE02.jpg,AFSA03.jpg,FS,4,num_2,32,num_6,0.733449612046,,,2018_Feb_15_1039,60.0043687704,MAFE4ImagesEEG,001,103061,
AFNE01.JPG,AFNE01.JPG,AFNE01.JPG,AFNE01.JPG,AFNE01.JPG,AFNE01.JPG,,,,,4,1,41,8,,,,,,,,,,,,,,,,,,,AFSA06.jpg,AFNE06.jpg,AFNE08.jpg,AFSA08.jpg,AFSA06.jpg,FS,4,num_8,32,num_6,0.633508211235,,,2018_Feb_15_1039,60.0043687704,MAFE4ImagesEEG,001,103061,
AFNE01.JPG,AFNE01.JPG,AFNE01.JPG,AFNE01.JPG,AFNE01.JPG,AFNE01.JPG,,,,,4,2,42,7,,,,,,,,,,,,,,,,,,,AFNE11.jpg,AFNE15.jpg,AFSA11.jpg,AFSA10.jpg,AFSA11.jpg,FS,4,num_2,32,num_8,1.13354557729,,,2018_Feb_15_1039,60.0043687704,MAFE4ImagesEEG,001,103061,
AFNE01.JPG,AFNE01.JPG,AFNE01.JPG,AFNE01.JPG,AFNE01.JPG,AFNE01.JPG,,,,,4,3,43,9,,,,,,,,,,,,,,,,,,,AFSA06.jpg,AFNE20.jpg,AFNE12.jpg,AFSA04.jpg,AFNE20.jpg,FN,3,num_6,16,num_6,0.683467846131,,,2018_Feb_15_1039,60.0043687704,MAFE4ImagesEEG,001,103061,
AFNE01.JPG,AFNE01.JPG,AFNE01.JPG,AFNE01.JPG,AFNE01.JPG,AFNE01.JPG,,,,,4,4,44,1,,,,,,,,,,,,,,,,,,,AFNE11.jpg,AFSA01.jpg,AFNE13.jpg,AFSA13.jpg,AFNE11.jpg,FN,3,num_8,32,num_4,0.883442700142,,,2018_Feb_15_1039,60.0043687704,MAFE4ImagesEEG,001,103061,
AFNE01.JPG,AFNE01.JPG,AFNE01.JPG,AFNE01.JPG,AFNE01.JPG,AFNE01.JPG,,,,,4,5,45,4,,,,,,,,,,,,,,,,,,,AFNE18.jpg,AFNE04.jpg,AFSA05.jpg,AFSA16.jpg,AFSA05.jpg,FS,4,num_2,16,num_2,1.00017352006,,,2018_Feb_15_1039,60.0043687704,MAFE4ImagesEEG,001,103061,
AFNE01.JPG,AFNE01.JPG,AFNE01.JPG,AFNE01.JPG,AFNE01.JPG,AFNE01.JPG,,,,,4,6,46,5,,,,,,,,,,,,,,,,,,,AFSA18.jpg,AFNE06.jpg,AFNE10.jpg,AFSA01.jpg,AFNE06.jpg,FN,3,num_6,16,num_6,0.933479633182,,,2018_Feb_15_1039,60.0043687704,MAFE4ImagesEEG,001,103061,
AFNE01.JPG,AFNE01.JPG,AFNE01.JPG,AFNE01.JPG,AFNE01.JPG,AFNE01.JPG,,,,,4,7,47,3,,,,,,,,,,,,,,,,,,,AFSA14.jpg,AFSA13.jpg,AFNE15.jpg,AFNE17.jpg,AFNE17.jpg,FN,3,num_4,32,num_8,0.733515042812,,,2018_Feb_15_1039,60.0043687704,MAFE4ImagesEEG,001,103061,
AFNE01.JPG,AFNE01.JPG,AFNE01.JPG,AFNE01.JPG,AFNE01.JPG,AFNE01.JPG,,,,,4,8,48,0,,,,,,,,,,,,,,,,,,,AFSA01.jpg,AFNE04.jpg,AFNE16.jpg,AFSA09.jpg,AFNE04.jpg,FN,3,num_6,16,num_6,0.716793941334,,,2018_Feb_15_1039,60.0043687704,MAFE4ImagesEEG,001,103061,
AFNE01.JPG,AFNE01.JPG,AFNE01.JPG,AFNE01.JPG,AFNE01.JPG,AFNE01.JPG,,,,,4,9,49,2,,,,,,,,,,,,,,,,,,,AFSA03.jpg,AFNE12.jpg,AFNE10.jpg,AFSA16.jpg,AFSA16.jpg,FS,4,num_4,32,num_6,1.30010677408,,,2018_Feb_15_1039,60.0043687704,MAFE4ImagesEEG,001,103061,
AFNE01.JPG,AFNE01.JPG,AFNE01.JPG,AFNE01.JPG,AFNE01.JPG,AFNE01.JPG,,,,,5,0,50,2,,,,,,,,,,,,,,,,,,,AFNE01.jpg,AFSA14.jpg,AFNE09.jpg,AFSA08.jpg,AFNE01.jpg,FN,3,num_8,32,num_6,1.98323656106,,,2018_Feb_15_1039,60.0043687704,MAFE4ImagesEEG,001,103061,
AFNE01.JPG,AFNE01.JPG,AFNE01.JPG,AFNE01.JPG,AFNE01.JPG,AFNE01.JPG,,,,,5,1,51,6,,,,,,,,,,,,,,,,,,,AFNE18.jpg,AFSA07.jpg,AFNE01.jpg,AFSA11.jpg,AFSA11.jpg,FS,4,num_4,16,num_4,0.716922878521,,,2018_Feb_15_1039,60.0043687704,MAFE4ImagesEEG,001,103061,
AFNE01.JPG,AFNE01.JPG,AFNE01.JPG,AFNE01.JPG,AFNE01.JPG,AFNE01.JPG,,,,,5,2,52,8,,,,,,,,,,,,,,,,,,,AFSA18.jpg,AFNE05.jpg,AFSA07.jpg,AFNE02.jpg,AFNE05.jpg,FN,3,num_6,16,num_6,0.833467990393,,,2018_Feb_15_1039,60.0043687704,MAFE4ImagesEEG,001,103061,
AFNE01.JPG,AFNE01.JPG,AFNE01.JPG,AFNE01.JPG,AFNE01.JPG,AFNE01.JPG,,,,,5,3,53,1,,,,,,,,,,,,,,,,,,,AFSA10.jpg,AFNE16.jpg,AFSA13.jpg,AFNE10.jpg,AFNE10.jpg,FN,3,num_4,16,num_4,0.817144605564,,,2018_Feb_15_1039,60.0043687704,MAFE4ImagesEEG,001,103061,
AFNE01.JPG,AFNE01.JPG,AFNE01.JPG,AFNE01.JPG,AFNE01.JPG,AFNE01.JPG,,,,,5,4,54,3,,,,,,,,,,,,,,,,,,,AFNE04.jpg,AFSA06.jpg,AFNE16.jpg,AFSA18.jpg,AFNE04.jpg,FN,3,num_8,16,num_8,0.916761739179,,,2018_Feb_15_1039,60.0043687704,MAFE4ImagesEEG,001,103061,
AFNE01.JPG,AFNE01.JPG,AFNE01.JPG,AFNE01.JPG,AFNE01.JPG,AFNE01.JPG,,,,,5,5,55,7,,,,,,,,,,,,,,,,,,,AFSA11.jpg,AFNE16.jpg,AFSA13.jpg,AFNE05.jpg,AFSA11.jpg,FS,4,num_8,32,num_2,1.1834516488,,,2018_Feb_15_1039,60.0043687704,MAFE4ImagesEEG,001,103061,
AFNE01.JPG,AFNE01.JPG,AFNE01.JPG,AFNE01.JPG,AFNE01.JPG,AFNE01.JPG,,,,,5,6,56,0,,,,,,,,,,,,,,,,,,,AFNE16.jpg,AFSA07.jpg,AFNE19.jpg,AFSA08.jpg,AFSA07.jpg,FS,4,num_6,16,num_6,0.633476137184,,,2018_Feb_15_1039,60.0043687704,MAFE4ImagesEEG,001,103061,
AFNE01.JPG,AFNE01.JPG,AFNE01.JPG,AFNE01.JPG,AFNE01.JPG,AFNE01.JPG,,,,,5,7,57,5,,,,,,,,,,,,,,,,,,,AFNE09.jpg,AFNE15.jpg,AFSA08.jpg,AFSA04.jpg,AFNE09.jpg,FN,3,num_8,16,num_8,0.733490025159,,,2018_Feb_15_1039,60.0043687704,MAFE4ImagesEEG,001,103061,
AFNE01.JPG,AFNE01.JPG,AFNE01.JPG,AFNE01.JPG,AFNE01.JPG,AFNE01.JPG,,,,,5,8,58,4,,,,,,,,,,,,,,,,,,,AFNE10.jpg,AFSA08.jpg,AFSA15.jpg,AFNE08.jpg,AFSA15.jpg,FS,4,num_2,16,num_2,0.58347191941,,,2018_Feb_15_1039,60.0043687704,MAFE4ImagesEEG,001,103061,
AFNE01.JPG,AFNE01.JPG,AFNE01.JPG,AFNE01.JPG,AFNE01.JPG,AFNE01.JPG,,,,,5,9,59,9,,,,,,,,,,,,,,,,,,,AFNE13.jpg,AFSA02.jpg,AFNE08.jpg,AFSA09.jpg,AFNE08.jpg,FN,3,num_2,32,num_4,1.01681988919,,,2018_Feb_15_1039,60.0043687704,MAFE4ImagesEEG,001,103061,
,,,,,,,,,,,,,,,,,,,,,,,,,,,,,,,,,,,,,,,,,,,space,73.7274479384,2018_Feb_15_1039,60.0043687704,MAFE4ImagesEEG,001,103061,
AFNE01.JPG,AFNE01.JPG,AFNE01.JPG,AFNE01.JPG,AFNE01.JPG,AFNE01.JPG,,,,,,,,,0,0,0,9,,,,,,,,,,,,,,,AMNE06.jpg,AMSA08.jpg,AMSA07.jpg,AMNE04.jpg,AMSA07.jpg,MS,2,num_2,16,num_2,0.933464237722,,,2018_Feb_15_1039,60.0043687704,MAFE4ImagesEEG,001,103061,
AFNE01.JPG,AFNE01.JPG,AFNE01.JPG,AFNE01.JPG,AFNE01.JPG,AFNE01.JPG,,,,,,,,,0,1,1,2,,,,,,,,,,,,,,,AMSA13.jpg,AMSA16.jpg,AMNE16.jpg,AMNE08.jpg,AMNE16.jpg,MN,1,num_2,16,num_2,0.683508900693,,,2018_Feb_15_1039,60.0043687704,MAFE4ImagesEEG,001,103061,
AFNE01.JPG,AFNE01.JPG,AFNE01.JPG,AFNE01.JPG,AFNE01.JPG,AFNE01.JPG,,,,,,,,,0,2,2,8,,,,,,,,,,,,,,,AMSA13.jpg,AMNE01.jpg,AMNE03.jpg,AMSA12.jpg,AMSA13.jpg,MS,2,num_8,16,num_8,0.750137356576,,,2018_Feb_15_1039,60.0043687704,MAFE4ImagesEEG,001,103061,
AFNE01.JPG,AFNE01.JPG,AFNE01.JPG,AFNE01.JPG,AFNE01.JPG,AFNE01.JPG,,,,,,,,,0,3,3,5,,,,,,,,,,,,,,,AMNE13.jpg,AMSA18.jpg,AMSA15.jpg,AMNE10.jpg,AMNE13.jpg,MN,1,num_8,16,num_8,0.749980835943,,,2018_Feb_15_1039,60.0043687704,MAFE4ImagesEEG,001,103061,
AFNE01.JPG,AFNE01.JPG,AFNE01.JPG,AFNE01.JPG,AFNE01.JPG,AFNE01.JPG,,,,,,,,,0,4,4,6,,,,,,,,,,,,,,,AMNE20.jpg,AMNE18.jpg,AMSA02.jpg,AMSA01.jpg,AMNE18.jpg,MN,1,num_6,32,num_8,0.683272836497,,,2018_Feb_15_1039,60.0043687704,MAFE4ImagesEEG,001,103061,
AFNE01.JPG,AFNE01.JPG,AFNE01.JPG,AFNE01.JPG,AFNE01.JPG,AFNE01.JPG,,,,,,,,,0,5,5,0,,,,,,,,,,,,,,,AMNE19.jpg,AMSA16.jpg,AMNE02.jpg,AMSA07.jpg,AMNE19.jpg,MN,1,num_8,32,num_6,0.55017084186,,,2018_Feb_15_1039,60.0043687704,MAFE4ImagesEEG,001,103061,
AFNE01.JPG,AFNE01.JPG,AFNE01.JPG,AFNE01.JPG,AFNE01.JPG,AFNE01.JPG,,,,,,,,,0,6,6,7,,,,,,,,,,,,,,,AMSA18.jpg,AMSA02.jpg,AMNE20.jpg,AMNE02.jpg,AMNE02.jpg,MN,1,num_4,32,num_6,0.600134325447,,,2018_Feb_15_1039,60.0043687704,MAFE4ImagesEEG,001,103061,
AFNE01.JPG,AFNE01.JPG,AFNE01.JPG,AFNE01.JPG,AFNE01.JPG,AFNE01.JPG,,,,,,,,,0,7,7,1,,,,,,,,,,,,,,,AMSA03.jpg,AMNE01.jpg,AMNE14.jpg,AMSA05.jpg,AMSA03.jpg,MS,2,num_8,32,num_6,0.666764705908,,,2018_Feb_15_1039,60.0043687704,MAFE4ImagesEEG,001,103061,
AFNE01.JPG,AFNE01.JPG,AFNE01.JPG,AFNE01.JPG,AFNE01.JPG,AFNE01.JPG,,,,,,,,,0,8,8,4,,,,,,,,,,,,,,,AMNE10.jpg,AMSA20.jpg,AMNE19.jpg,AMSA01.jpg,AMSA01.jpg,MS,2,num_4,32,num_6,0.816822904162,,,2018_Feb_15_1039,60.0043687704,MAFE4ImagesEEG,001,103061,
AFNE01.JPG,AFNE01.JPG,AFNE01.JPG,AFNE01.JPG,AFNE01.JPG,AFNE01.JPG,,,,,,,,,0,9,9,3,,,,,,,,,,,,,,,AMNE19.jpg,AMSA08.jpg,AMNE01.jpg,AMSA14.jpg,AMSA08.jpg,MS,2,num_6,16,num_6,0.633474212606,,,2018_Feb_15_1039,60.0043687704,MAFE4ImagesEEG,001,103061,
AFNE01.JPG,AFNE01.JPG,AFNE01.JPG,AFNE01.JPG,AFNE01.JPG,AFNE01.JPG,,,,,,,,,1,0,10,6,,,,,,,,,,,,,,,AMSA20.jpg,AMSA18.jpg,AMNE11.jpg,AMNE10.jpg,AMNE10.jpg,MN,1,num_4,32,num_8,1.0001436912,,,2018_Feb_15_1039,60.0043687704,MAFE4ImagesEEG,001,103061,
AFNE01.JPG,AFNE01.JPG,AFNE01.JPG,AFNE01.JPG,AFNE01.JPG,AFNE01.JPG,,,,,,,,,1,1,11,2,,,,,,,,,,,,,,,AMSA16.jpg,AMNE06.jpg,AMSA19.jpg,AMNE13.jpg,AMNE13.jpg,MN,1,num_4,32,num_6,0.966781352181,,,2018_Feb_15_1039,60.0043687704,MAFE4ImagesEEG,001,103061,
AFNE01.JPG,AFNE01.JPG,AFNE01.JPG,AFNE01.JPG,AFNE01.JPG,AFNE01.JPG,,,,,,,,,1,2,12,3,,,,,,,,,,,,,,,AMNE05.jpg,AMSA19.jpg,AMSA10.jpg,AMNE17.jpg,AMNE17.jpg,MN,1,num_4,32,num_6,0.750159166753,,,2018_Feb_15_1039,60.0043687704,MAFE4ImagesEEG,001,103061,
AFNE01.JPG,AFNE01.JPG,AFNE01.JPG,AFNE01.JPG,AFNE01.JPG,AFNE01.JPG,,,,,,,,,1,3,13,9,,,,,,,,,,,,,,,AMNE05.jpg,AMNE14.jpg,AMSA02.jpg,AMSA12.jpg,AMSA12.jpg,MS,2,num_4,32,num_8,0.683298495598,,,2018_Feb_15_1039,60.0043687704,MAFE4ImagesEEG,001,103061,
AFNE01.JPG,AFNE01.JPG,AFNE01.JPG,AFNE01.JPG,AFNE01.JPG,AFNE01.JPG,,,,,,,,,1,4,14,8,,,,,,,,,,,,,,,AMSA09.jpg,AMSA05.jpg,AMNE11.jpg,AMNE02.jpg,AMSA05.jpg,MS,2,num_6,32,num_2,0.66667457833,,,2018_Feb_15_1039,60.0043687704,MAFE4ImagesEEG,001,103061,
AFNE01.JPG,AFNE01.JPG,AFNE01.JPG,AFNE01.JPG,AFNE01.JPG,AFNE01.JPG,,,,,,,,,1,5,15,0,,,,,,,,,,,,,,,AMSA05.jpg,AMNE05.jpg,AMNE02.jpg,AMSA20.jpg,AMSA20.jpg,MS,2,num_4,32,num_6,0.816817451734,,,2018_Feb_15_1039,60.0043687704,MAFE4ImagesEEG,001,103061,
AFNE01.JPG,AFNE01.JPG,AFNE01.JPG,AFNE01.JPG,AFNE01.JPG,AFNE01.JPG,,,,,,,,,1,6,16,1,,,,,,,,,,,,,,,AMSA06.jpg,AMNE05.jpg,AMSA18.jpg,AMNE04.jpg,AMSA18.jpg,MS,2,num_2,16,num_2,0.583500144538,,,2018_Feb_15_1039,60.0043687704,MAFE4ImagesEEG,001,103061,
AFNE01.JPG,AFNE01.JPG,AFNE01.JPG,AFNE01.JPG,AFNE01.JPG,AFNE01.JPG,,,,,,,,,1,7,17,4,,,,,,,,,,,,,,,AMSA13.jpg,AMNE15.jpg,AMNE14.jpg,AMSA15.jpg,AMNE15.jpg,MN,1,num_6,16,num_6,0.716804205207,,,2018_Feb_15_1039,60.0043687704,MAFE4ImagesEEG,001,103061,
AFNE01.JPG,AFNE01.JPG,AFNE01.JPG,AFNE01.JPG,AFNE01.JPG,AFNE01.JPG,,,,,,,,,1,8,18,7,,,,,,,,,,,,,,,AMNE06.jpg,AMSA10.jpg,AMSA02.jpg,AMNE01.jpg,AMNE01.jpg,MN,1,num_4,16,num_4,0.63352007838,,,2018_Feb_15_1039,60.0043687704,MAFE4ImagesEEG,001,103061,
AFNE01.JPG,AFNE01.JPG,AFNE01.JPG,AFNE01.JPG,AFNE01.JPG,AFNE01.JPG,,,,,,,,,1,9,19,5,,,,,,,,,,,,,,,AMNE18.jpg,AMNE16.jpg,AMSA18.jpg,AMSA14.jpg,AMNE16.jpg,MN,1,num_6,16,num_6,0.666754121426,,,2018_Feb_15_1039,60.0043687704,MAFE4ImagesEEG,001,103061,
AFNE01.JPG,AFNE01.JPG,AFNE01.JPG,AFNE01.JPG,AFNE01.JPG,AFNE01.JPG,,,,,,,,,2,0,20,3,,,,,,,,,,,,,,,AMSA13.jpg,AMNE12.jpg,AMNE05.jpg,AMSA06.jpg,AMNE12.jpg,MN,1,num_6,16,num_6,2.00004458288,,,2018_Feb_15_1039,60.0043687704,MAFE4ImagesEEG,001,103061,
AFNE01.JPG,AFNE01.JPG,AFNE01.JPG,AFNE01.JPG,AFNE01.JPG,AFNE01.JPG,,,,,,,,,2,1,21,9,,,,,,,,,,,,,,,AMNE15.jpg,AMSA09.jpg,AMSA04.jpg,AMNE05.jpg,AMSA04.jpg,MS,2,num_2,16,num_2,0.616818221286,,,2018_Feb_15_1039,60.0043687704,MAFE4ImagesEEG,001,103061,
AFNE01.JPG,AFNE01.JPG,AFNE01.JPG,AFNE01.JPG,AFNE01.JPG,AFNE01.JPG,,,,,,,,,2,2,22,5,,,,,,,,,,,,,,,AMSA02.jpg,AMSA08.jpg,AMNE08.jpg,AMNE09.jpg,AMNE08.jpg,MN,1,num_2,32,num_6,0.850146112731,,,2018_Feb_15_1039,60.0043687704,MAFE4ImagesEEG,001,103061,
AFNE01.JPG,AFNE01.JPG,AFNE01.JPG,AFNE01.JPG,AFNE01.JPG,AFNE01.JPG,,,,,,,,,2,3,23,4,,,,,,,,,,,,,,,AMSA08.jpg,AMNE05.jpg,AMNE04.jpg,AMSA14.jpg,AMSA14.jpg,MS,2,num_4,16,num_4,0.733464686666,,,2018_Feb_15_1039,60.0043687704,MAFE4ImagesEEG,001,103061,
AFNE01.JPG,AFNE01.JPG,AFNE01.JPG,AFNE01.JPG,AFNE01.JPG,AFNE01.JPG,,,,,,,,,2,4,24,7,,,,,,,,,,,,,,,AMNE12.jpg,AMSA12.jpg,AMSA01.jpg,AMNE11.jpg,AMNE12.jpg,MN,1,num_8,32,num_6,0.666781063657,,,2018_Feb_15_1039,60.0043687704,MAFE4ImagesEEG,001,103061,
AFNE01.JPG,AFNE01.JPG,AFNE01.JPG,AFNE01.JPG,AFNE01.JPG,AFNE01.JPG,,,,,,,,,2,5,25,2,,,,,,,,,,,,,,,AMSA01.jpg,AMSA08.jpg,AMNE04.jpg,AMNE20.jpg,AMNE04.jpg,MN,1,num_2,16,num_2,0.716798752313,,,2018_Feb_15_1039,60.0043687704,MAFE4ImagesEEG,001,103061,
AFNE01.JPG,AFNE01.JPG,AFNE01.JPG,AFNE01.JPG,AFNE01.JPG,AFNE01.JPG,,,,,,,,,2,6,26,1,,,,,,,,,,,,,,,AMSA14.jpg,AMNE10.jpg,AMNE05.jpg,AMSA18.jpg,AMSA14.jpg,MS,2,num_8,32,num_4,1.01688531996,,,2018_Feb_15_1039,60.0043687704,MAFE4ImagesEEG,001,103061,
AFNE01.JPG,AFNE01.JPG,AFNE01.JPG,AFNE01.JPG,AFNE01.JPG,AFNE01.JPG,,,,,,,,,2,7,27,6,,,,,,,,,,,,,,,AMSA08.jpg,AMSA07.jpg,AMNE14.jpg,AMNE18.jpg,AMSA07.jpg,MS,2,num_6,16,num_6,1.6000881393,,,2018_Feb_15_1039,60.0043687704,MAFE4ImagesEEG,001,103061,
AFNE01.JPG,AFNE01.JPG,AFNE01.JPG,AFNE01.JPG,AFNE01.JPG,AFNE01.JPG,,,,,,,,,2,8,28,0,,,,,,,,,,,,,,,AMNE14.jpg,AMSA15.jpg,AMSA13.jpg,AMNE06.jpg,AMSA15.jpg,MS,2,num_6,16,num_6,1.05009883596,,,2018_Feb_15_1039,60.0043687704,MAFE4ImagesEEG,001,103061,
AFNE01.JPG,AFNE01.JPG,AFNE01.JPG,AFNE01.JPG,AFNE01.JPG,AFNE01.JPG,,,,,,,,,2,9,29,8,,,,,,,,,,,,,,,AMSA19.jpg,AMSA12.jpg,AMNE06.jpg,AMNE07.jpg,AMNE07.jpg,MN,1,num_4,16,num_4,0.716779187322,,,2018_Feb_15_1039,60.0043687704,MAFE4ImagesEEG,001,103061,
AFNE01.JPG,AFNE01.JPG,AFNE01.JPG,AFNE01.JPG,AFNE01.JPG,AFNE01.JPG,,,,,,,,,3,0,30,2,,,,,,,,,,,,,,,AMNE02.jpg,AMNE09.jpg,AMSA18.jpg,AMSA11.jpg,AMSA11.jpg,MS,2,num_4,32,num_8,0.833417313639,,,2018_Feb_15_1039,60.0043687704,MAFE4ImagesEEG,001,103061,
AFNE01.JPG,AFNE01.JPG,AFNE01.JPG,AFNE01.JPG,AFNE01.JPG,AFNE01.JPG,,,,,,,,,3,1,31,7,,,,,,,,,,,,,,,AMSA07.jpg,AMSA14.jpg,AMNE14.jpg,AMNE04.jpg,AMSA07.jpg,MS,2,num_8,32,num_4,0.483518972062,,,2018_Feb_15_1039,60.0043687704,MAFE4ImagesEEG,001,103061,
AFNE01.JPG,AFNE01.JPG,AFNE01.JPG,AFNE01.JPG,AFNE01.JPG,AFNE01.JPG,,,,,,,,,3,2,32,1,,,,,,,,,,,,,,,AMNE15.jpg,AMNE13.jpg,AMSA04.jpg,AMSA17.jpg,AMSA17.jpg,MS,2,num_4,32,num_6,0.783463772619,,,2018_Feb_15_1039,60.0043687704,MAFE4ImagesEEG,001,103061,
AFNE01.JPG,AFNE01.JPG,AFNE01.JPG,AFNE01.JPG,AFNE01.JPG,AFNE01.JPG,,,,,,,,,3,3,33,0,,,,,,,,,,,,,,,AMSA06.jpg,AMNE18.jpg,AMSA13.jpg,AMNE06.jpg,AMSA06.jpg,MS,2,num_8,32,num_2,1.0501447015,,,2018_Feb_15_1039,60.0043687704,MAFE4ImagesEEG,001,103061,
AFNE01.JPG,AFNE01.JPG,AFNE01.JPG,AFNE01.JPG,AFNE01.JPG,AFNE01.JPG,,,,,,,,,3,4,34,4,,,,,,,,,,,,,,,AMSA05.jpg,AMNE18.jpg,AMNE09.jpg,AMSA15.jpg,AMSA05.jpg,MS,2,num_8,16,num_8,0.766881551361,,,2018_Feb_15_1039,60.0043687704,MAFE4ImagesEEG,001,103061,
AFNE01.JPG,AFNE01.JPG,AFNE01.JPG,AFNE01.JPG,AFNE01.JPG,AFNE01.JPG,,,,,,,,,3,5,35,8,,,,,,,,,,,,,,,AMSA04.jpg,AMNE10.jpg,AMNE08.jpg,AMSA10.jpg,AMSA10.jpg,MS,2,num_4,32,num_8,0.683488373412,,,2018_Feb_15_1039,60.0043687704,MAFE4ImagesEEG,001,103061,
AFNE01.JPG,AFNE01.JPG,AFNE01.JPG,AFNE01.JPG,AFNE01.JPG,AFNE01.JPG,,,,,,,,,3,6,36,3,,,,,,,,,,,,,,,AMSA02.jpg,AMSA19.jpg,AMNE02.jpg,AMNE19.jpg,AMSA02.jpg,MS,2,num_8,32,num_2,0.96678712545,,,2018_Feb_15_1039,60.0043687704,MAFE4ImagesEEG,001,103061,
AFNE01.JPG,AFNE01.JPG,AFNE01.JPG,AFNE01.JPG,AFNE01.JPG,AFNE01.JPG,,,,,,,,,3,7,37,5,,,,,,,,,,,,,,,AMNE13.jpg,AMSA10.jpg,AMSA01.jpg,AMNE09.jpg,AMNE13.jpg,MN,1,num_8,32,num_6,0.666887228377,,,2018_Feb_15_1039,60.0043687704,MAFE4ImagesEEG,001,103061,
AFNE01.JPG,AFNE01.JPG,AFNE01.JPG,AFNE01.JPG,AFNE01.JPG,AFNE01.JPG,,,,,,,,,3,8,38,9,,,,,,,,,,,,,,,AMSA16.jpg,AMNE18.jpg,AMSA17.jpg,AMNE06.jpg,AMSA16.jpg,MS,2,num_8,32,num_6,0.650073754136,,,2018_Feb_15_1039,60.0043687704,MAFE4ImagesEEG,001,103061,
AFNE01.JPG,AFNE01.JPG,AFNE01.JPG,AFNE01.JPG,AFNE01.JPG,AFNE01.JPG,,,,,,,,,3,9,39,6,,,,,,,,,,,,,,,AMNE13.jpg,AMSA06.jpg,AMSA13.jpg,AMNE07.jpg,AMNE07.jpg,MN,1,num_4,32,num_6,0.716808053898,,,2018_Feb_15_1039,60.0043687704,MAFE4ImagesEEG,001,103061,
AFNE01.JPG,AFNE01.JPG,AFNE01.JPG,AFNE01.JPG,AFNE01.JPG,AFNE01.JPG,,,,,,,,,4,0,40,5,,,,,,,,,,,,,,,AMSA18.jpg,AMNE04.jpg,AMSA03.jpg,AMNE06.jpg,AMNE06.jpg,MN,1,num_4,32,num_6,0.58340360201,,,2018_Feb_15_1039,60.0043687704,MAFE4ImagesEEG,001,103061,
AFNE01.JPG,AFNE01.JPG,AFNE01.JPG,AFNE01.JPG,AFNE01.JPG,AFNE01.JPG,,,,,,,,,4,1,41,1,,,,,,,,,,,,,,,AMNE18.jpg,AMSA14.jpg,AMSA08.jpg,AMNE13.jpg,AMSA14.jpg,MS,2,num_6,16,num_6,0.500163416844,,,2018_Feb_15_1039,60.0043687704,MAFE4ImagesEEG,001,103061,
AFNE01.JPG,AFNE01.JPG,AFNE01.JPG,AFNE01.JPG,AFNE01.JPG,AFNE01.JPG,,,,,,,,,4,2,42,3,,,,,,,,,,,,,,,AMSA13.jpg,AMSA11.jpg,AMNE07.jpg,AMNE14.jpg,AMSA11.jpg,MS,2,num_6,16,num_6,0.800136442529,,,2018_Feb_15_1039,60.0043687704,MAFE4ImagesEEG,001,103061,
AFNE01.JPG,AFNE01.JPG,AFNE01.JPG,AFNE01.JPG,AFNE01.JPG,AFNE01.JPG,,,,,,,,,4,3,43,2,,,,,,,,,,,,,,,AMNE07.jpg,AMNE11.jpg,AMSA13.jpg,AMSA03.jpg,AMNE11.jpg,MN,1,num_6,16,num_6,0.666775290389,,,2018_Feb_15_1039,60.0043687704,MAFE4ImagesEEG,001,103061,
AFNE01.JPG,AFNE01.JPG,AFNE01.JPG,AFNE01.JPG,AFNE01.JPG,AFNE01.JPG,,,,,,,,,4,4,44,9,,,,,,,,,,,,,,,AMSA15.jpg,AMSA07.jpg,AMNE14.jpg,AMNE05.jpg,AMSA15.jpg,MS,2,num_8,16,num_8,1.03344348585,,,2018_Feb_15_1039,60.0043687704,MAFE4ImagesEEG,001,103061,
AFNE01.JPG,AFNE01.JPG,AFNE01.JPG,AFNE01.JPG,AFNE01.JPG,AFNE01.JPG,,,,,,,,,4,5,45,8,,,,,,,,,,,,,,,AMSA09.jpg,AMNE06.jpg,AMSA15.jpg,AMNE02.jpg,AMNE06.jpg,MN,1,num_6,16,num_6,0.833465744974,,,2018_Feb_15_1039,60.0043687704,MAFE4ImagesEEG,001,103061,
AFNE01.JPG,AFNE01.JPG,AFNE01.JPG,AFNE01.JPG,AFNE01.JPG,AFNE01.JPG,,,,,,,,,4,6,46,0,,,,,,,,,,,,,,,AMSA16.jpg,AMNE12.jpg,AMNE06.jpg,AMSA17.jpg,AMNE12.jpg,MN,1,num_6,32,num_8,0.800022900803,,,2018_Feb_15_1039,60.0043687704,MAFE4ImagesEEG,001,103061,
AFNE01.JPG,AFNE01.JPG,AFNE01.JPG,AFNE01.JPG,AFNE01.JPG,AFNE01.JPG,,,,,,,,,4,7,47,6,,,,,,,,,,,,,,,AMSA09.jpg,AMSA11.jpg,AMNE10.jpg,AMNE14.jpg,AMNE10.jpg,MN,1,num_2,16,num_2,2.01663899212,,,2018_Feb_15_1039,60.0043687704,MAFE4ImagesEEG,001,103061,
AFNE01.JPG,AFNE01.JPG,AFNE01.JPG,AFNE01.JPG,AFNE01.JPG,AFNE01.JPG,,,,,,,,,4,8,48,4,,,,,,,,,,,,,,,AMNE03.jpg,AMNE08.jpg,AMSA16.jpg,AMSA20.jpg,AMSA16.jpg,MS,2,num_2,32,num_4,0.700194400037,,,2018_Feb_15_1039,60.0043687704,MAFE4ImagesEEG,001,103061,
AFNE01.JPG,AFNE01.JPG,AFNE01.JPG,AFNE01.JPG,AFNE01.JPG,AFNE01.JPG,,,,,,,,,4,9,49,7,,,,,,,,,,,,,,,AMSA13.jpg,AMNE07.jpg,AMSA11.jpg,AMNE02.jpg,AMSA13.jpg,MS,2,num_8,32,num_6,0.700142440386,,,2018_Feb_15_1039,60.0043687704,MAFE4ImagesEEG,001,103061,
AFNE01.JPG,AFNE01.JPG,AFNE01.JPG,AFNE01.JPG,AFNE01.JPG,AFNE01.JPG,,,,,,,,,5,0,50,0,,,,,,,,,,,,,,,AMSA20.jpg,AMNE13.jpg,AMSA12.jpg,AMNE20.jpg,AMNE13.jpg,MN,1,num_6,16,num_6,0.500144172227,,,2018_Feb_15_1039,60.0043687704,MAFE4ImagesEEG,001,103061,
AFNE01.JPG,AFNE01.JPG,AFNE01.JPG,AFNE01.JPG,AFNE01.JPG,AFNE01.JPG,,,,,,,,,5,1,51,1,,,,,,,,,,,,,,,AMSA19.jpg,AMNE11.jpg,AMSA16.jpg,AMNE05.jpg,AMSA19.jpg,MS,2,num_8,32,num_6,0.883422814077,,,2018_Feb_15_1039,60.0043687704,MAFE4ImagesEEG,001,103061,
AFNE01.JPG,AFNE01.JPG,AFNE01.JPG,AFNE01.JPG,AFNE01.JPG,AFNE01.JPG,,,,,,,,,5,2,52,3,,,,,,,,,,,,,,,AMSA11.jpg,AMSA09.jpg,AMNE18.jpg,AMNE10.jpg,AMSA11.jpg,MS,2,num_8,16,num_8,1.38338993839,,,2018_Feb_15_1039,60.0043687704,MAFE4ImagesEEG,001,103061,
AFNE01.JPG,AFNE01.JPG,AFNE01.JPG,AFNE01.JPG,AFNE01.JPG,AFNE01.JPG,,,,,,,,,5,3,53,2,,,,,,,,,,,,,,,AMSA13.jpg,AMSA08.jpg,AMNE12.jpg,AMNE18.jpg,AMSA13.jpg,MS,2,num_8,32,num_4,1.36676762486,,,2018_Feb_15_1039,60.0043687704,MAFE4ImagesEEG,001,103061,
AFNE01.JPG,AFNE01.JPG,AFNE01.JPG,AFNE01.JPG,AFNE01.JPG,AFNE01.JPG,,,,,,,,,5,4,54,6,,,,,,,,,,,,,,,AMNE03.jpg,AMSA14.jpg,AMSA10.jpg,AMNE01.jpg,AMSA14.jpg,MS,2,num_6,16,num_6,0.600195266074,,,2018_Feb_15_1039,60.0043687704,MAFE4ImagesEEG,001,103061,
AFNE01.JPG,AFNE01.JPG,AFNE01.JPG,AFNE01.JPG,AFNE01.JPG,AFNE01.JPG,,,,,,,,,5,5,55,8,,,,,,,,,,,,,,,AMSA20.jpg,AMNE06.jpg,AMSA12.jpg,AMNE08.jpg,AMSA12.jpg,MS,2,num_2,32,num_6,0.950134662446,,,2018_Feb_15_1039,60.0043687704,MAFE4ImagesEEG,001,103061,
AFNE01.JPG,AFNE01.JPG,AFNE01.JPG,AFNE01.JPG,AFNE01.JPG,AFNE01.JPG,,,,,,,,,5,6,56,5,,,,,,,,,,,,,,,AMSA06.jpg,AMSA10.jpg,AMNE02.jpg,AMNE13.jpg,AMSA06.jpg,MS,2,num_8,32,num_6,0.666787799215,,,2018_Feb_15_1039,60.0043687704,MAFE4ImagesEEG,001,103061,
AFNE01.JPG,AFNE01.JPG,AFNE01.JPG,AFNE01.JPG,AFNE01.JPG,AFNE01.JPG,,,,,,,,,5,7,57,7,,,,,,,,,,,,,,,AMSA19.jpg,AMSA06.jpg,AMNE04.jpg,AMNE20.jpg,AMSA19.jpg,MS,2,num_8,16,num_8,1.10020504869,,,2018_Feb_15_1039,60.0043687704,MAFE4ImagesEEG,001,103061,
AFNE01.JPG,AFNE01.JPG,AFNE01.JPG,AFNE01.JPG,AFNE01.JPG,AFNE01.JPG,,,,,,,,,5,8,58,9,,,,,,,,,,,,,,,AMSA14.jpg,AMSA08.jpg,AMNE14.jpg,AMNE20.jpg,AMSA08.jpg,MS,2,num_6,32,num_8,1.36681894283,,,2018_Feb_15_1039,60.0043687704,MAFE4ImagesEEG,001,103061,
AFNE01.JPG,AFNE01.JPG,AFNE01.JPG,AFNE01.JPG,AFNE01.JPG,AFNE01.JPG,,,,,,,,,5,9,59,4,,,,,,,,,,,,,,,AMNE09.jpg,AMSA11.jpg,AMNE10.jpg,AMSA05.jpg,AMSA11.jpg,MS,2,num_6,16,num_6,1.06671954598,,,2018_Feb_15_1039,60.0043687704,MAFE4ImagesEEG,001,103061,
,,,,,,,,,,,,,,,,,,,,,,,,,,,,,,,,,,,,,,,,,,,space,86.159923818,2018_Feb_15_1039,60.0043687704,MAFE4ImagesEEG,001,103061,
AFNE01.JPG,AFNE01.JPG,AFNE01.JPG,AFNE01.JPG,AFNE01.JPG,AFNE01.JPG,,,,,,,,,,,,,0,0,0,3,,,,,,,,,,,AFSA13.jpg,AFNE10.jpg,AFNE11.jpg,AFSA03.jpg,AFNE11.jpg,FN,3,num_2,32,num_8,0.733482648153,,,2018_Feb_15_1039,60.0043687704,MAFE4ImagesEEG,001,103061,
AFNE01.JPG,AFNE01.JPG,AFNE01.JPG,AFNE01.JPG,AFNE01.JPG,AFNE01.JPG,,,,,,,,,,,,,0,1,1,6,,,,,,,,,,,AFNE18.jpg,AFNE19.jpg,AFSA07.jpg,AFSA19.jpg,AFSA07.jpg,FS,4,num_2,16,num_2,0.967039226787,,,2018_Feb_15_1039,60.0043687704,MAFE4ImagesEEG,001,103061,
AFNE01.JPG,AFNE01.JPG,AFNE01.JPG,AFNE01.JPG,AFNE01.JPG,AFNE01.JPG,,,,,,,,,,,,,0,2,2,9,,,,,,,,,,,AFSA13.jpg,AFNE04.jpg,AFSA10.jpg,AFNE14.jpg,AFSA13.jpg,FS,4,num_8,32,num_2,1.30012858449,,,2018_Feb_15_1039,60.0043687704,MAFE4ImagesEEG,001,103061,
AFNE01.JPG,AFNE01.JPG,AFNE01.JPG,AFNE01.JPG,AFNE01.JPG,AFNE01.JPG,,,,,,,,,,,,,0,3,3,2,,,,,,,,,,,AFNE12.jpg,AFNE15.jpg,AFSA03.jpg,AFSA10.jpg,AFSA03.jpg,FS,4,num_2,16,num_2,0.749988533556,,,2018_Feb_15_1039,60.0043687704,MAFE4ImagesEEG,001,103061,
AFNE01.JPG,AFNE01.JPG,AFNE01.JPG,AFNE01.JPG,AFNE01.JPG,AFNE01.JPG,,,,,,,,,,,,,0,4,4,0,,,,,,,,,,,AFNE15.jpg,AFNE01.jpg,AFSA04.jpg,AFSA05.jpg,AFSA05.jpg,FS,4,num_4,16,num_4,0.933548271423,,,2018_Feb_15_1039,60.0043687704,MAFE4ImagesEEG,001,103061,
AFNE01.JPG,AFNE01.JPG,AFNE01.JPG,AFNE01.JPG,AFNE01.JPG,AFNE01.JPG,,,,,,,,,,,,,0,5,5,1,,,,,,,,,,,AFSA18.jpg,AFNE13.jpg,AFSA08.jpg,AFNE09.jpg,AFSA18.jpg,FS,4,num_8,16,num_8,0.883468038402,,,2018_Feb_15_1039,60.0043687704,MAFE4ImagesEEG,001,103061,
AFNE01.JPG,AFNE01.JPG,AFNE01.JPG,AFNE01.JPG,AFNE01.JPG,AFNE01.JPG,,,,,,,,,,,,,0,6,6,5,,,,,,,,,,,AFNE01.jpg,AFSA05.jpg,AFSA15.jpg,AFNE03.jpg,AFNE01.jpg,FN,3,num_8,16,num_8,0.733807236422,,,2018_Feb_15_1039,60.0043687704,MAFE4ImagesEEG,001,103061,
AFNE01.JPG,AFNE01.JPG,AFNE01.JPG,AFNE01.JPG,AFNE01.JPG,AFNE01.JPG,,,,,,,,,,,,,0,7,7,4,,,,,,,,,,,AFSA01.jpg,AFNE06.jpg,AFSA09.jpg,AFNE15.jpg,AFNE15.jpg,FN,3,num_4,16,num_4,0.86677163397,,,2018_Feb_15_1039,60.0043687704,MAFE4ImagesEEG,001,103061,
AFNE01.JPG,AFNE01.JPG,AFNE01.JPG,AFNE01.JPG,AFNE01.JPG,AFNE01.JPG,,,,,,,,,,,,,0,8,8,7,,,,,,,,,,,AFNE01.jpg,AFNE03.jpg,AFSA02.jpg,AFSA20.jpg,AFSA20.jpg,FS,4,num_4,32,num_6,0.716787205776,,,2018_Feb_15_1039,60.0043687704,MAFE4ImagesEEG,001,103061,
AFNE01.JPG,AFNE01.JPG,AFNE01.JPG,AFNE01.JPG,AFNE01.JPG,AFNE01.JPG,,,,,,,,,,,,,0,9,9,8,,,,,,,,,,,AFNE18.jpg,AFSA08.jpg,AFNE15.jpg,AFSA17.jpg,AFSA08.jpg,FS,4,num_6,32,num_8,0.766802970087,,,2018_Feb_15_1039,60.0043687704,MAFE4ImagesEEG,001,103061,
AFNE01.JPG,AFNE01.JPG,AFNE01.JPG,AFNE01.JPG,AFNE01.JPG,AFNE01.JPG,,,,,,,,,,,,,1,0,10,5,,,,,,,,,,,AFNE05.jpg,AFNE08.jpg,AFSA02.jpg,AFSA12.jpg,AFNE05.jpg,FN,3,num_8,32,num_2,0.916818189202,,,2018_Feb_15_1039,60.0043687704,MAFE4ImagesEEG,001,103061,
AFNE01.JPG,AFNE01.JPG,AFNE01.JPG,AFNE01.JPG,AFNE01.JPG,AFNE01.JPG,,,,,,,,,,,,,1,1,11,7,,,,,,,,,,,AFSA19.jpg,AFSA12.jpg,AFNE08.jpg,AFNE13.jpg,AFNE08.jpg,FN,3,num_2,32,num_4,0.716770848259,,,2018_Feb_15_1039,60.0043687704,MAFE4ImagesEEG,001,103061,
AFNE01.JPG,AFNE01.JPG,AFNE01.JPG,AFNE01.JPG,AFNE01.JPG,AFNE01.JPG,,,,,,,,,,,,,1,2,12,9,,,,,,,,,,,AFSA08.jpg,AFNE01.jpg,AFNE06.jpg,AFSA05.jpg,AFSA05.jpg,FS,4,num_4,32,num_8,0.983453380875,,,2018_Feb_15_1039,60.0043687704,MAFE4ImagesEEG,001,103061,
AFNE01.JPG,AFNE01.JPG,AFNE01.JPG,AFNE01.JPG,AFNE01.JPG,AFNE01.JPG,,,,,,,,,,,,,1,3,13,4,,,,,,,,,,,AFSA15.jpg,AFSA07.jpg,AFNE11.jpg,AFNE15.jpg,AFSA15.jpg,FS,4,num_8,32,num_6,0.933521970641,,,2018_Feb_15_1039,60.0043687704,MAFE4ImagesEEG,001,103061,
AFNE01.JPG,AFNE01.JPG,AFNE01.JPG,AFNE01.JPG,AFNE01.JPG,AFNE01.JPG,,,,,,,,,,,,,1,4,14,2,,,,,,,,,,,AFSA10.jpg,AFSA04.jpg,AFNE20.jpg,AFNE06.jpg,AFSA10.jpg,FS,4,num_8,16,num_8,1.23342026444,,,2018_Feb_15_1039,60.0043687704,MAFE4ImagesEEG,001,103061,
AFNE01.JPG,AFNE01.JPG,AFNE01.JPG,AFNE01.JPG,AFNE01.JPG,AFNE01.JPG,,,,,,,,,,,,,1,5,15,3,,,,,,,,,,,AFNE03.jpg,AFSA18.jpg,AFNE09.jpg,AFSA20.jpg,AFSA18.jpg,FS,4,num_6,16,num_6,0.65014976915,,,2018_Feb_15_1039,60.0043687704,MAFE4ImagesEEG,001,103061,
AFNE01.JPG,AFNE01.JPG,AFNE01.JPG,AFNE01.JPG,AFNE01.JPG,AFNE01.JPG,,,,,,,,,,,,,1,6,16,8,,,,,,,,,,,AFSA19.jpg,AFNE02.jpg,AFNE17.jpg,AFSA18.jpg,AFSA18.jpg,FS,4,num_4,32,num_8,1.15004633064,,,2018_Feb_15_1039,60.0043687704,MAFE4ImagesEEG,001,103061,
AFNE01.JPG,AFNE01.JPG,AFNE01.JPG,AFNE01.JPG,AFNE01.JPG,AFNE01.JPG,,,,,,,,,,,,,1,7,17,0,,,,,,,,,,,AFNE09.jpg,AFNE08.jpg,AFSA19.jpg,AFSA01.jpg,AFSA19.jpg,FS,4,num_2,32,num_4,1.45007356163,,,2018_Feb_15_1039,60.0043687704,MAFE4ImagesEEG,001,103061,
AFNE01.JPG,AFNE01.JPG,AFNE01.JPG,AFNE01.JPG,AFNE01.JPG,AFNE01.JPG,,,,,,,,,,,,,1,8,18,1,,,,,,,,,,,AFNE10.jpg,AFSA11.jpg,AFNE15.jpg,AFSA17.jpg,AFNE10.jpg,FN,3,num_8,16,num_8,0.616815334652,,,2018_Feb_15_1039,60.0043687704,MAFE4ImagesEEG,001,103061,
AFNE01.JPG,AFNE01.JPG,AFNE01.JPG,AFNE01.JPG,AFNE01.JPG,AFNE01.JPG,,,,,,,,,,,,,1,9,19,6,,,,,,,,,,,AFSA12.jpg,AFNE11.jpg,AFSA06.jpg,AFNE18.jpg,AFSA06.jpg,FS,4,num_2,32,num_6,1.26652825694,,,2018_Feb_15_1039,60.0043687704,MAFE4ImagesEEG,001,103061,
AFNE01.JPG,AFNE01.JPG,AFNE01.JPG,AFNE01.JPG,AFNE01.JPG,AFNE01.JPG,,,,,,,,,,,,,2,0,20,3,,,,,,,,,,,AFSA15.jpg,AFNE20.jpg,AFSA16.jpg,AFNE13.jpg,AFSA16.jpg,FS,4,num_2,16,num_2,1.08331555896,,,2018_Feb_15_1039,60.0043687704,MAFE4ImagesEEG,001,103061,
AFNE01.JPG,AFNE01.JPG,AFNE01.JPG,AFNE01.JPG,AFNE01.JPG,AFNE01.JPG,,,,,,,,,,,,,2,1,21,8,,,,,,,,,,,AFSA06.jpg,AFNE20.jpg,AFSA17.jpg,AFNE02.jpg,AFNE20.jpg,FN,3,num_6,32,num_8,1.45006746752,,,2018_Feb_15_1039,60.0043687704,MAFE4ImagesEEG,001,103061,
AFNE01.JPG,AFNE01.JPG,AFNE01.JPG,AFNE01.JPG,AFNE01.JPG,AFNE01.JPG,,,,,,,,,,,,,2,2,22,1,,,,,,,,,,,AFSA13.jpg,AFNE02.jpg,AFNE08.jpg,AFSA16.jpg,AFNE02.jpg,FN,3,num_6,16,num_6,0.733449291205,,,2018_Feb_15_1039,60.0043687704,MAFE4ImagesEEG,001,103061,
AFNE01.JPG,AFNE01.JPG,AFNE01.JPG,AFNE01.JPG,AFNE01.JPG,AFNE01.JPG,,,,,,,,,,,,,2,3,23,4,,,,,,,,,,,AFSA16.jpg,AFNE06.jpg,AFNE10.jpg,AFSA13.jpg,AFSA16.jpg,FS,4,num_8,16,num_8,1.08347496646,,,2018_Feb_15_1039,60.0043687704,MAFE4ImagesEEG,001,103061,
AFNE01.JPG,AFNE01.JPG,AFNE01.JPG,AFNE01.JPG,AFNE01.JPG,AFNE01.JPG,,,,,,,,,,,,,2,4,24,6,,,,,,,,,,,AFNE15.jpg,AFSA07.jpg,AFNE01.jpg,AFSA03.jpg,AFNE15.jpg,FN,3,num_8,32,num_4,1.80010308558,,,2018_Feb_15_1039,60.0043687704,MAFE4ImagesEEG,001,103061,
AFNE01.JPG,AFNE01.JPG,AFNE01.JPG,AFNE01.JPG,AFNE01.JPG,AFNE01.JPG,,,,,,,,,,,,,2,5,25,2,,,,,,,,,,,AFSA09.jpg,AFNE11.jpg,AFNE03.jpg,AFSA14.jpg,AFSA14.jpg,FS,4,num_4,32,num_8,1.00011386257,,,2018_Feb_15_1039,60.0043687704,MAFE4ImagesEEG,001,103061,
AFNE01.JPG,AFNE01.JPG,AFNE01.JPG,AFNE01.JPG,AFNE01.JPG,AFNE01.JPG,,,,,,,,,,,,,2,6,26,7,,,,,,,,,,,AFSA06.jpg,AFSA20.jpg,AFNE17.jpg,AFNE05.jpg,AFNE17.jpg,FN,3,num_2,32,num_6,2.13336468046,,,2018_Feb_15_1039,60.0043687704,MAFE4ImagesEEG,001,103061,
AFNE01.JPG,AFNE01.JPG,AFNE01.JPG,AFNE01.JPG,AFNE01.JPG,AFNE01.JPG,,,,,,,,,,,,,2,7,27,9,,,,,,,,,,,AFSA12.jpg,AFSA16.jpg,AFNE19.jpg,AFNE14.jpg,AFNE19.jpg,FN,3,num_2,32,num_4,0.600098082097,,,2018_Feb_15_1039,60.0043687704,MAFE4ImagesEEG,001,103061,
AFNE01.JPG,AFNE01.JPG,AFNE01.JPG,AFNE01.JPG,AFNE01.JPG,AFNE01.JPG,,,,,,,,,,,,,2,8,28,0,,,,,,,,,,,AFSA11.jpg,AFSA15.jpg,AFNE01.jpg,AFNE18.jpg,AFNE18.jpg,FN,3,num_4,32,num_2,1.25009646243,,,2018_Feb_15_1039,60.0043687704,MAFE4ImagesEEG,001,103061,
AFNE01.JPG,AFNE01.JPG,AFNE01.JPG,AFNE01.JPG,AFNE01.JPG,AFNE01.JPG,,,,,,,,,,,,,2,9,29,5,,,,,,,,,,,AFSA12.jpg,AFNE18.jpg,AFNE09.jpg,AFSA18.jpg,AFNE09.jpg,FN,3,num_2,16,num_2,0.8834394929,,,2018_Feb_15_1039,60.0043687704,MAFE4ImagesEEG,001,103061,
AFNE01.JPG,AFNE01.JPG,AFNE01.JPG,AFNE01.JPG,AFNE01.JPG,AFNE01.JPG,,,,,,,,,,,,,3,0,30,0,,,,,,,,,,,AFSA14.jpg,AFNE20.jpg,AFNE02.jpg,AFSA02.jpg,AFNE20.jpg,FN,3,num_6,32,num_2,1.56680919253,,,2018_Feb_15_1039,60.0043687704,MAFE4ImagesEEG,001,103061,
AFNE01.JPG,AFNE01.JPG,AFNE01.JPG,AFNE01.JPG,AFNE01.JPG,AFNE01.JPG,,,,,,,,,,,,,3,1,31,5,,,,,,,,,,,AFSA14.jpg,AFNE18.jpg,AFSA01.jpg,AFNE03.jpg,AFSA01.jpg,FS,4,num_2,32,num_6,0.883460982237,,,2018_Feb_15_1039,60.0043687704,MAFE4ImagesEEG,001,103061,
AFNE01.JPG,AFNE01.JPG,AFNE01.JPG,AFNE01.JPG,AFNE01.JPG,AFNE01.JPG,,,,,,,,,,,,,3,2,32,1,,,,,,,,,,,AFNE08.jpg,AFNE05.jpg,AFSA04.jpg,AFSA19.jpg,AFSA04.jpg,FS,4,num_2,16,num_2,0.716813827166,,,2018_Feb_15_1039,60.0043687704,MAFE4ImagesEEG,001,103061,
AFNE01.JPG,AFNE01.JPG,AFNE01.JPG,AFNE01.JPG,AFNE01.JPG,AFNE01.JPG,,,,,,,,,,,,,3,3,33,6,,,,,,,,,,,AFNE10.jpg,AFSA19.jpg,AFSA11.jpg,AFNE19.jpg,AFNE19.jpg,FN,3,num_4,16,num_4,0.850155414315,,,2018_Feb_15_1039,60.0043687704,MAFE4ImagesEEG,001,103061,
AFNE01.JPG,AFNE01.JPG,AFNE01.JPG,AFNE01.JPG,AFNE01.JPG,AFNE01.JPG,,,,,,,,,,,,,3,4,34,8,,,,,,,,,,,AFSA11.jpg,AFNE12.jpg,AFSA06.jpg,AFNE15.jpg,AFNE12.jpg,FN,3,num_6,16,num_6,0.6667643853,,,2018_Feb_15_1039,60.0043687704,MAFE4ImagesEEG,001,103061,
AFNE01.JPG,AFNE01.JPG,AFNE01.JPG,AFNE01.JPG,AFNE01.JPG,AFNE01.JPG,,,,,,,,,,,,,3,5,35,9,,,,,,,,,,,AFSA16.jpg,AFNE13.jpg,AFSA15.jpg,AFNE03.jpg,AFSA16.jpg,FS,4,num_8,32,num_6,0.883432757109,,,2018_Feb_15_1039,60.0043687704,MAFE4ImagesEEG,001,103061,
AFNE01.JPG,AFNE01.JPG,AFNE01.JPG,AFNE01.JPG,AFNE01.JPG,AFNE01.JPG,,,,,,,,,,,,,3,6,36,3,,,,,,,,,,,AFSA15.jpg,AFSA08.jpg,AFNE12.jpg,AFNE02.jpg,AFNE12.jpg,FN,3,num_2,16,num_2,0.816787622869,,,2018_Feb_15_1039,60.0043687704,MAFE4ImagesEEG,001,103061,
AFNE01.JPG,AFNE01.JPG,AFNE01.JPG,AFNE01.JPG,AFNE01.JPG,AFNE01.JPG,,,,,,,,,,,,,3,7,37,2,,,,,,,,,,,AFNE09.jpg,AFSA02.jpg,AFNE17.jpg,AFSA13.jpg,AFSA13.jpg,FS,4,num_4,16,num_4,1.25009710365,,,2018_Feb_15_1039,60.0043687704,MAFE4ImagesEEG,001,103061,
AFNE01.JPG,AFNE01.JPG,AFNE01.JPG,AFNE01.JPG,AFNE01.JPG,AFNE01.JPG,,,,,,,,,,,,,3,8,38,4,,,,,,,,,,,AFNE15.jpg,AFSA13.jpg,AFNE12.jpg,AFSA14.jpg,AFSA14.jpg,FS,4,num_4,32,num_6,0.766795272473,,,2018_Feb_15_1039,60.0043687704,MAFE4ImagesEEG,001,103061,
AFNE01.JPG,AFNE01.JPG,AFNE01.JPG,AFNE01.JPG,AFNE01.JPG,AFNE01.JPG,,,,,,,,,,,,,3,9,39,7,,,,,,,,,,,AFNE11.jpg,AFSA01.jpg,AFNE18.jpg,AFSA16.jpg,AFSA16.jpg,FS,4,num_4,32,num_6,1.28326315037,,,2018_Feb_15_1039,60.0043687704,MAFE4ImagesEEG,001,103061,
AFNE01.JPG,AFNE01.JPG,AFNE01.JPG,AFNE01.JPG,AFNE01.JPG,AFNE01.JPG,,,,,,,,,,,,,4,0,40,7,,,,,,,,,,,AFSA14.jpg,AFSA13.jpg,AFNE08.jpg,AFNE04.jpg,AFSA13.jpg,FS,4,num_6,16,num_6,0.850099605741,,,2018_Feb_15_1039,60.0043687704,MAFE4ImagesEEG,001,103061,
AFNE01.JPG,AFNE01.JPG,AFNE01.JPG,AFNE01.JPG,AFNE01.JPG,AFNE01.JPG,,,,,,,,,,,,,4,1,41,2,,,,,,,,,,,AFSA11.jpg,AFNE05.jpg,AFNE11.jpg,AFSA18.jpg,AFSA18.jpg,FS,4,num_4,32,num_8,0.816788905766,,,2018_Feb_15_1039,60.0043687704,MAFE4ImagesEEG,001,103061,
AFNE01.JPG,AFNE01.JPG,AFNE01.JPG,AFNE01.JPG,AFNE01.JPG,AFNE01.JPG,,,,,,,,,,,,,4,2,42,3,,,,,,,,,,,AFNE07.jpg,AFNE14.jpg,AFSA08.jpg,AFSA03.jpg,AFNE07.jpg,FN,3,num_8,32,num_2,0.783461527433,,,2018_Feb_15_1039,60.0043687704,MAFE4ImagesEEG,001,103061,
AFNE01.JPG,AFNE01.JPG,AFNE01.JPG,AFNE01.JPG,AFNE01.JPG,AFNE01.JPG,,,,,,,,,,,,,4,3,43,8,,,,,,,,,,,AFNE18.jpg,AFNE11.jpg,AFSA09.jpg,AFSA13.jpg,AFNE18.jpg,FN,3,num_8,32,num_2,0.900163160171,,,2018_Feb_15_1039,60.0043687704,MAFE4ImagesEEG,001,103061,
AFNE01.JPG,AFNE01.JPG,AFNE01.JPG,AFNE01.JPG,AFNE01.JPG,AFNE01.JPG,,,,,,,,,,,,,4,4,44,5,,,,,,,,,,,AFSA09.jpg,AFNE11.jpg,AFNE07.jpg,AFSA04.jpg,AFSA09.jpg,FS,4,num_8,16,num_8,0.766771537717,,,2018_Feb_15_1039,60.0043687704,MAFE4ImagesEEG,001,103061,
AFNE01.JPG,AFNE01.JPG,AFNE01.JPG,AFNE01.JPG,AFNE01.JPG,AFNE01.JPG,,,,,,,,,,,,,4,5,45,6,,,,,,,,,,,AFSA03.jpg,AFNE03.jpg,AFNE06.jpg,AFSA09.jpg,AFNE03.jpg,FN,3,num_6,16,num_6,0.583522596397,,,2018_Feb_15_1039,60.0043687704,MAFE4ImagesEEG,001,103061,
AFNE01.JPG,AFNE01.JPG,AFNE01.JPG,AFNE01.JPG,AFNE01.JPG,AFNE01.JPG,,,,,,,,,,,,,4,6,46,4,,,,,,,,,,,AFNE13.jpg,AFSA13.jpg,AFSA20.jpg,AFNE01.jpg,AFNE01.jpg,FN,3,num_4,16,num_4,0.716812544269,,,2018_Feb_15_1039,60.0043687704,MAFE4ImagesEEG,001,103061,
AFNE01.JPG,AFNE01.JPG,AFNE01.JPG,AFNE01.JPG,AFNE01.JPG,AFNE01.JPG,,,,,,,,,,,,,4,7,47,1,,,,,,,,,,,AFSA08.jpg,AFSA19.jpg,AFNE14.jpg,AFNE19.jpg,AFNE19.jpg,FN,3,num_4,16,num_4,0.716780149378,,,2018_Feb_15_1039,60.0043687704,MAFE4ImagesEEG,001,103061,
AFNE01.JPG,AFNE01.JPG,AFNE01.JPG,AFNE01.JPG,AFNE01.JPG,AFNE01.JPG,,,,,,,,,,,,,4,8,48,9,,,,,,,,,,,AFNE01.jpg,AFSA18.jpg,AFSA04.jpg,AFNE02.jpg,AFSA18.jpg,FS,4,num_6,16,num_6,0.750018041581,,,2018_Feb_15_1039,60.0043687704,MAFE4ImagesEEG,001,103061,
AFNE01.JPG,AFNE01.JPG,AFNE01.JPG,AFNE01.JPG,AFNE01.JPG,AFNE01.JPG,,,,,,,,,,,,,4,9,49,0,,,,,,,,,,,AFSA19.jpg,AFNE04.jpg,AFSA12.jpg,AFNE07.jpg,AFSA19.jpg,FS,4,num_8,32,num_4,1.10015757941,,,2018_Feb_15_1039,60.0043687704,MAFE4ImagesEEG,001,103061,
AFNE01.JPG,AFNE01.JPG,AFNE01.JPG,AFNE01.JPG,AFNE01.JPG,AFNE01.JPG,,,,,,,,,,,,,5,0,50,9,,,,,,,,,,,AFSA13.jpg,AFNE08.jpg,AFNE15.jpg,AFSA14.jpg,AFNE15.jpg,FN,3,num_2,32,num_8,0.733614792814,,,2018_Feb_15_1039,60.0043687704,MAFE4ImagesEEG,001,103061,
AFNE01.JPG,AFNE01.JPG,AFNE01.JPG,AFNE01.JPG,AFNE01.JPG,AFNE01.JPG,,,,,,,,,,,,,5,1,51,0,,,,,,,,,,,AFNE13.jpg,AFSA16.jpg,AFSA17.jpg,AFNE05.jpg,AFSA17.jpg,FS,4,num_2,16,num_2,0.983405590523,,,2018_Feb_15_1039,60.0043687704,MAFE4ImagesEEG,001,103061,
AFNE01.JPG,AFNE01.JPG,AFNE01.JPG,AFNE01.JPG,AFNE01.JPG,AFNE01.JPG,,,,,,,,,,,,,5,2,52,4,,,,,,,,,,,AFSA04.jpg,AFNE07.jpg,AFSA13.jpg,AFNE11.jpg,AFSA04.jpg,FS,4,num_8,32,num_4,1.0666932452,,,2018_Feb_15_1039,60.0043687704,MAFE4ImagesEEG,001,103061,
AFNE01.JPG,AFNE01.JPG,AFNE01.JPG,AFNE01.JPG,AFNE01.JPG,AFNE01.JPG,,,,,,,,,,,,,5,3,53,7,,,,,,,,,,,AFNE20.jpg,AFNE09.jpg,AFSA17.jpg,AFSA02.jpg,AFNE09.jpg,FN,3,num_6,16,num_6,0.566898037214,,,2018_Feb_15_1039,60.0043687704,MAFE4ImagesEEG,001,103061,
AFNE01.JPG,AFNE01.JPG,AFNE01.JPG,AFNE01.JPG,AFNE01.JPG,AFNE01.JPG,,,,,,,,,,,,,5,4,54,8,,,,,,,,,,,AFNE05.jpg,AFSA10.jpg,AFNE07.jpg,AFSA07.jpg,AFNE07.jpg,FN,3,num_2,32,num_6,0.600018859375,,,2018_Feb_15_1039,60.0043687704,MAFE4ImagesEEG,001,103061,
AFNE01.JPG,AFNE01.JPG,AFNE01.JPG,AFNE01.JPG,AFNE01.JPG,AFNE01.JPG,,,,,,,,,,,,,5,5,55,5,,,,,,,,,,,AFNE05.jpg,AFNE12.jpg,AFSA18.jpg,AFSA07.jpg,AFSA07.jpg,FS,4,num_4,16,num_4,0.70019311714,,,2018_Feb_15_1039,60.0043687704,MAFE4ImagesEEG,001,103061,
AFNE01.JPG,AFNE01.JPG,AFNE01.JPG,AFNE01.JPG,AFNE01.JPG,AFNE01.JPG,,,,,,,,,,,,,5,6,56,6,,,,,,,,,,,AFNE04.jpg,AFSA11.jpg,AFNE11.jpg,AFSA15.jpg,AFNE11.jpg,FN,3,num_2,16,num_2,1.96667647059,,,2018_Feb_15_1039,60.0043687704,MAFE4ImagesEEG,001,103061,
AFNE01.JPG,AFNE01.JPG,AFNE01.JPG,AFNE01.JPG,AFNE01.JPG,AFNE01.JPG,,,,,,,,,,,,,5,7,57,1,,,,,,,,,,,AFNE13.jpg,AFNE08.jpg,AFSA06.jpg,AFSA20.jpg,AFNE13.jpg,FN,3,num_8,32,num_6,0.866782218451,,,2018_Feb_15_1039,60.0043687704,MAFE4ImagesEEG,001,103061,
AFNE01.JPG,AFNE01.JPG,AFNE01.JPG,AFNE01.JPG,AFNE01.JPG,AFNE01.JPG,,,,,,,,,,,,,5,8,58,2,,,,,,,,,,,AFSA10.jpg,AFNE10.jpg,AFSA08.jpg,AFNE17.jpg,AFNE17.jpg,FN,3,num_4,16,num_4,0.600152286934,,,2018_Feb_15_1039,60.0043687704,MAFE4ImagesEEG,001,103061,
AFNE01.JPG,AFNE01.JPG,AFNE01.JPG,AFNE01.JPG,AFNE01.JPG,AFNE01.JPG,,,,,,,,,,,,,5,9,59,3,,,,,,,,,,,AFNE19.jpg,AFSA04.jpg,AFNE10.jpg,AFSA07.jpg,AFSA04.jpg,FS,4,num_6,16,num_6,0.850184922107,,,2018_Feb_15_1039,60.0043687704,MAFE4ImagesEEG,001,103061,
,,,,,,,,,,,,,,,,,,,,,,,,,,,,,,,,,,,,,,,,,,,space,25.2646503283,2018_Feb_15_1039,60.0043687704,MAFE4ImagesEEG,001,103061,
AFNE01.JPG,AFNE01.JPG,AFNE01.JPG,AFNE01.JPG,AFNE01.JPG,AFNE01.JPG,,,,,,,,,,,,,,,,,0,0,0,3,,,,,,,AMSA13.jpg,AMNE17.jpg,AMSA10.jpg,AMNE10.jpg,AMNE10.jpg,MN,1,num_4,32,num_2,0.600142664975,,,2018_Feb_15_1039,60.0043687704,MAFE4ImagesEEG,001,103061,
AFNE01.JPG,AFNE01.JPG,AFNE01.JPG,AFNE01.JPG,AFNE01.JPG,AFNE01.JPG,,,,,,,,,,,,,,,,,0,1,1,7,,,,,,,AMNE14.jpg,AMNE08.jpg,AMSA20.jpg,AMSA11.jpg,AMNE14.jpg,MN,1,num_8,16,num_8,0.500164058292,,,2018_Feb_15_1039,60.0043687704,MAFE4ImagesEEG,001,103061,
AFNE01.JPG,AFNE01.JPG,AFNE01.JPG,AFNE01.JPG,AFNE01.JPG,AFNE01.JPG,,,,,,,,,,,,,,,,,0,2,2,6,,,,,,,AMNE05.jpg,AMSA01.jpg,AMSA10.jpg,AMNE14.jpg,AMNE14.jpg,MN,1,num_4,16,num_4,0.616783902282,,,2018_Feb_15_1039,60.0043687704,MAFE4ImagesEEG,001,103061,
AFNE01.JPG,AFNE01.JPG,AFNE01.JPG,AFNE01.JPG,AFNE01.JPG,AFNE01.JPG,,,,,,,,,,,,,,,,,0,3,3,8,,,,,,,AMSA14.jpg,AMNE20.jpg,AMNE19.jpg,AMSA12.jpg,AMSA14.jpg,MS,2,num_8,16,num_8,0.366838187212,,,2018_Feb_15_1039,60.0043687704,MAFE4ImagesEEG,001,103061,
AFNE01.JPG,AFNE01.JPG,AFNE01.JPG,AFNE01.JPG,AFNE01.JPG,AFNE01.JPG,,,,,,,,,,,,,,,,,0,4,4,2,,,,,,,AMSA03.jpg,AMNE15.jpg,AMSA13.jpg,AMNE13.jpg,AMNE13.jpg,MN,1,num_4,32,num_2,0.883460661396,,,2018_Feb_15_1039,60.0043687704,MAFE4ImagesEEG,001,103061,
AFNE01.JPG,AFNE01.JPG,AFNE01.JPG,AFNE01.JPG,AFNE01.JPG,AFNE01.JPG,,,,,,,,,,,,,,,,,0,5,5,0,,,,,,,AMNE07.jpg,AMSA10.jpg,AMNE20.jpg,AMSA02.jpg,AMSA10.jpg,MS,2,num_6,32,num_2,0.833567098947,,,2018_Feb_15_1039,60.0043687704,MAFE4ImagesEEG,001,103061,
AFNE01.JPG,AFNE01.JPG,AFNE01.JPG,AFNE01.JPG,AFNE01.JPG,AFNE01.JPG,,,,,,,,,,,,,,,,,0,6,6,4,,,,,,,AMNE06.jpg,AMSA10.jpg,AMSA04.jpg,AMNE07.jpg,AMNE06.jpg,MN,1,num_8,32,num_2,0.916820434388,,,2018_Feb_15_1039,60.0043687704,MAFE4ImagesEEG,001,103061,
AFNE01.JPG,AFNE01.JPG,AFNE01.JPG,AFNE01.JPG,AFNE01.JPG,AFNE01.JPG,,,,,,,,,,,,,,,,,0,7,7,5,,,,,,,AMNE15.jpg,AMSA18.jpg,AMNE08.jpg,AMSA11.jpg,AMSA11.jpg,MS,2,num_4,32,num_6,0.633446629159,,,2018_Feb_15_1039,60.0043687704,MAFE4ImagesEEG,001,103061,
AFNE01.JPG,AFNE01.JPG,AFNE01.JPG,AFNE01.JPG,AFNE01.JPG,AFNE01.JPG,,,,,,,,,,,,,,,,,0,8,8,9,,,,,,,AMSA05.jpg,AMSA07.jpg,AMNE19.jpg,AMNE02.jpg,AMSA07.jpg,MS,2,num_6,16,num_6,0.500150266336,,,2018_Feb_15_1039,60.0043687704,MAFE4ImagesEEG,001,103061,
AFNE01.JPG,AFNE01.JPG,AFNE01.JPG,AFNE01.JPG,AFNE01.JPG,AFNE01.JPG,,,,,,,,,,,,,,,,,0,9,9,1,,,,,,,AMNE06.jpg,AMSA11.jpg,AMSA01.jpg,AMNE16.jpg,AMSA11.jpg,MS,2,num_6,16,num_6,0.55011663679,,,2018_Feb_15_1039,60.0043687704,MAFE4ImagesEEG,001,103061,
AFNE01.JPG,AFNE01.JPG,AFNE01.JPG,AFNE01.JPG,AFNE01.JPG,AFNE01.JPG,,,,,,,,,,,,,,,,,1,0,10,3,,,,,,,AMNE07.jpg,AMNE09.jpg,AMSA20.jpg,AMSA08.jpg,AMNE07.jpg,MN,1,num_8,32,num_2,1.10023167008,,,2018_Feb_15_1039,60.0043687704,MAFE4ImagesEEG,001,103061,
AFNE01.JPG,AFNE01.JPG,AFNE01.JPG,AFNE01.JPG,AFNE01.JPG,AFNE01.JPG,,,,,,,,,,,,,,,,,1,1,11,8,,,,,,,AMSA17.jpg,AMNE07.jpg,AMNE16.jpg,AMSA14.jpg,AMNE16.jpg,MN,1,num_2,16,num_2,0.600179549772,,,2018_Feb_15_1039,60.0043687704,MAFE4ImagesEEG,001,103061,
AFNE01.JPG,AFNE01.JPG,AFNE01.JPG,AFNE01.JPG,AFNE01.JPG,AFNE01.JPG,,,,,,,,,,,,,,,,,1,2,12,5,,,,,,,AMSA12.jpg,AMSA07.jpg,AMNE19.jpg,AMNE20.jpg,AMSA07.jpg,MS,2,num_6,16,num_6,0.583445298253,,,2018_Feb_15_1039,60.0043687704,MAFE4ImagesEEG,001,103061,
AFNE01.JPG,AFNE01.JPG,AFNE01.JPG,AFNE01.JPG,AFNE01.JPG,AFNE01.JPG,,,,,,,,,,,,,,,,,1,3,13,2,,,,,,,AMSA12.jpg,AMSA05.jpg,AMNE09.jpg,AMNE04.jpg,AMSA05.jpg,MS,2,num_6,16,num_6,0.700244435342,,,2018_Feb_15_1039,60.0043687704,MAFE4ImagesEEG,001,103061,
AFNE01.JPG,AFNE01.JPG,AFNE01.JPG,AFNE01.JPG,AFNE01.JPG,AFNE01.JPG,,,,,,,,,,,,,,,,,1,4,14,9,,,,,,,AMSA05.jpg,AMSA19.jpg,AMNE12.jpg,AMNE06.jpg,AMNE06.jpg,MN,1,num_4,32,num_6,0.58352516219,,,2018_Feb_15_1039,60.0043687704,MAFE4ImagesEEG,001,103061,
AFNE01.JPG,AFNE01.JPG,AFNE01.JPG,AFNE01.JPG,AFNE01.JPG,AFNE01.JPG,,,,,,,,,,,,,,,,,1,5,15,6,,,,,,,AMNE15.jpg,AMSA18.jpg,AMNE02.jpg,AMSA14.jpg,AMSA18.jpg,MS,2,num_6,16,num_6,0.716776300687,,,2018_Feb_15_1039,60.0043687704,MAFE4ImagesEEG,001,103061,
AFNE01.JPG,AFNE01.JPG,AFNE01.JPG,AFNE01.JPG,AFNE01.JPG,AFNE01.JPG,,,,,,,,,,,,,,,,,1,6,16,7,,,,,,,AMNE19.jpg,AMNE17.jpg,AMSA01.jpg,AMSA07.jpg,AMNE17.jpg,MN,1,num_6,16,num_6,0.750126130646,,,2018_Feb_15_1039,60.0043687704,MAFE4ImagesEEG,001,103061,
AFNE01.JPG,AFNE01.JPG,AFNE01.JPG,AFNE01.JPG,AFNE01.JPG,AFNE01.JPG,,,,,,,,,,,,,,,,,1,7,17,0,,,,,,,AMSA10.jpg,AMSA01.jpg,AMNE15.jpg,AMNE07.jpg,AMSA01.jpg,MS,2,num_6,16,num_6,0.433515395736,,,2018_Feb_15_1039,60.0043687704,MAFE4ImagesEEG,001,103061,
AFNE01.JPG,AFNE01.JPG,AFNE01.JPG,AFNE01.JPG,AFNE01.JPG,AFNE01.JPG,,,,,,,,,,,,,,,,,1,8,18,4,,,,,,,AMNE11.jpg,AMSA02.jpg,AMSA12.jpg,AMNE07.jpg,AMSA02.jpg,MS,2,num_6,16,num_6,0.36680964171,,,2018_Feb_15_1039,60.0043687704,MAFE4ImagesEEG,001,103061,
AFNE01.JPG,AFNE01.JPG,AFNE01.JPG,AFNE01.JPG,AFNE01.JPG,AFNE01.JPG,,,,,,,,,,,,,,,,,1,9,19,1,,,,,,,AMNE15.jpg,AMSA12.jpg,AMSA11.jpg,AMNE06.jpg,AMSA12.jpg,MS,2,num_6,16,num_6,0.7167583392,,,2018_Feb_15_1039,60.0043687704,MAFE4ImagesEEG,001,103061,
AFNE01.JPG,AFNE01.JPG,AFNE01.JPG,AFNE01.JPG,AFNE01.JPG,AFNE01.JPG,,,,,,,,,,,,,,,,,2,0,20,2,,,,,,,AMSA19.jpg,AMNE13.jpg,AMSA10.jpg,AMNE16.jpg,AMSA10.jpg,MS,2,num_2,32,num_6,0.600150362588,,,2018_Feb_15_1039,60.0043687704,MAFE4ImagesEEG,001,103061,
AFNE01.JPG,AFNE01.JPG,AFNE01.JPG,AFNE01.JPG,AFNE01.JPG,AFNE01.JPG,,,,,,,,,,,,,,,,,2,1,21,4,,,,,,,AMSA18.jpg,AMSA03.jpg,AMNE05.jpg,AMNE01.jpg,AMSA03.jpg,MS,2,num_6,16,num_6,0.583469995065,,,2018_Feb_15_1039,60.0043687704,MAFE4ImagesEEG,001,103061,
AFNE01.JPG,AFNE01.JPG,AFNE01.JPG,AFNE01.JPG,AFNE01.JPG,AFNE01.JPG,,,,,,,,,,,,,,,,,2,2,22,0,,,,,,,AMNE11.jpg,AMSA19.jpg,AMNE05.jpg,AMSA14.jpg,AMNE05.jpg,MN,1,num_2,16,num_2,1.05024637585,,,2018_Feb_15_1039,60.0043687704,MAFE4ImagesEEG,001,103061,
AFNE01.JPG,AFNE01.JPG,AFNE01.JPG,AFNE01.JPG,AFNE01.JPG,AFNE01.JPG,,,,,,,,,,,,,,,,,2,3,23,9,,,,,,,AMSA09.jpg,AMSA01.jpg,AMNE05.jpg,AMNE13.jpg,AMSA01.jpg,MS,2,num_6,16,num_6,0.533489832655,,,2018_Feb_15_1039,60.0043687704,MAFE4ImagesEEG,001,103061,
AFNE01.JPG,AFNE01.JPG,AFNE01.JPG,AFNE01.JPG,AFNE01.JPG,AFNE01.JPG,,,,,,,,,,,,,,,,,2,4,24,3,,,,,,,AMNE07.jpg,AMSA02.jpg,AMNE05.jpg,AMSA04.jpg,AMSA02.jpg,MS,2,num_6,16,num_6,0.600141702686,,,2018_Feb_15_1039,60.0043687704,MAFE4ImagesEEG,001,103061,
AFNE01.JPG,AFNE01.JPG,AFNE01.JPG,AFNE01.JPG,AFNE01.JPG,AFNE01.JPG,,,,,,,,,,,,,,,,,2,5,25,1,,,,,,,AMNE10.jpg,AMNE07.jpg,AMSA16.jpg,AMSA18.jpg,AMSA16.jpg,MS,2,num_2,16,num_2,0.616777166724,,,2018_Feb_15_1039,60.0043687704,MAFE4ImagesEEG,001,103061,
AFNE01.JPG,AFNE01.JPG,AFNE01.JPG,AFNE01.JPG,AFNE01.JPG,AFNE01.JPG,,,,,,,,,,,,,,,,,2,6,26,8,,,,,,,AMSA11.jpg,AMNE20.jpg,AMNE10.jpg,AMSA08.jpg,AMNE20.jpg,MN,1,num_6,16,num_6,0.850140980911,,,2018_Feb_15_1039,60.0043687704,MAFE4ImagesEEG,001,103061,
AFNE01.JPG,AFNE01.JPG,AFNE01.JPG,AFNE01.JPG,AFNE01.JPG,AFNE01.JPG,,,,,,,,,,,,,,,,,2,7,27,6,,,,,,,AMSA10.jpg,AMNE07.jpg,AMNE01.jpg,AMSA12.jpg,AMSA12.jpg,MS,2,num_4,32,num_6,0.666864455678,,,2018_Feb_15_1039,60.0043687704,MAFE4ImagesEEG,001,103061,
AFNE01.JPG,AFNE01.JPG,AFNE01.JPG,AFNE01.JPG,AFNE01.JPG,AFNE01.JPG,,,,,,,,,,,,,,,,,2,8,28,5,,,,,,,AMSA19.jpg,AMNE03.jpg,AMNE10.jpg,AMSA04.jpg,AMNE10.jpg,MN,1,num_2,16,num_2,0.533485021442,,,2018_Feb_15_1039,60.0043687704,MAFE4ImagesEEG,001,103061,
AFNE01.JPG,AFNE01.JPG,AFNE01.JPG,AFNE01.JPG,AFNE01.JPG,AFNE01.JPG,,,,,,,,,,,,,,,,,2,9,29,7,,,,,,,AMNE05.jpg,AMSA02.jpg,AMSA01.jpg,AMNE02.jpg,AMSA02.jpg,MS,2,num_6,32,num_2,0.600112515269,,,2018_Feb_15_1039,60.0043687704,MAFE4ImagesEEG,001,103061,
AFNE01.JPG,AFNE01.JPG,AFNE01.JPG,AFNE01.JPG,AFNE01.JPG,AFNE01.JPG,,,,,,,,,,,,,,,,,3,0,30,6,,,,,,,AMSA09.jpg,AMNE07.jpg,AMNE01.jpg,AMSA03.jpg,AMNE07.jpg,MN,1,num_6,16,num_6,0.733528193086,,,2018_Feb_15_1039,60.0043687704,MAFE4ImagesEEG,001,103061,
AFNE01.JPG,AFNE01.JPG,AFNE01.JPG,AFNE01.JPG,AFNE01.JPG,AFNE01.JPG,,,,,,,,,,,,,,,,,3,1,31,1,,,,,,,AMNE15.jpg,AMNE14.jpg,AMSA08.jpg,AMSA17.jpg,AMSA08.jpg,MS,2,num_2,16,num_2,0.650172862457,,,2018_Feb_15_1039,60.0043687704,MAFE4ImagesEEG,001,103061,
AFNE01.JPG,AFNE01.JPG,AFNE01.JPG,AFNE01.JPG,AFNE01.JPG,AFNE01.JPG,,,,,,,,,,,,,,,,,3,2,32,5,,,,,,,AMSA05.jpg,AMSA13.jpg,AMNE03.jpg,AMNE20.jpg,AMNE20.jpg,MN,1,num_4,32,num_6,0.700332959415,,,2018_Feb_15_1039,60.0043687704,MAFE4ImagesEEG,001,103061,
AFNE01.JPG,AFNE01.JPG,AFNE01.JPG,AFNE01.JPG,AFNE01.JPG,AFNE01.JPG,,,,,,,,,,,,,,,,,3,3,33,3,,,,,,,AMSA13.jpg,AMNE06.jpg,AMNE13.jpg,AMSA20.jpg,AMSA13.jpg,MS,2,num_8,32,num_6,0.766767368186,,,2018_Feb_15_1039,60.0043687704,MAFE4ImagesEEG,001,103061,
AFNE01.JPG,AFNE01.JPG,AFNE01.JPG,AFNE01.JPG,AFNE01.JPG,AFNE01.JPG,,,,,,,,,,,,,,,,,3,4,34,9,,,,,,,AMSA03.jpg,AMSA08.jpg,AMNE02.jpg,AMNE17.jpg,AMNE02.jpg,MN,1,num_2,16,num_2,1.36675543664,,,2018_Feb_15_1039,60.0043687704,MAFE4ImagesEEG,001,103061,
AFNE01.JPG,AFNE01.JPG,AFNE01.JPG,AFNE01.JPG,AFNE01.JPG,AFNE01.JPG,,,,,,,,,,,,,,,,,3,5,35,7,,,,,,,AMSA05.jpg,AMSA09.jpg,AMNE17.jpg,AMNE08.jpg,AMNE17.jpg,MN,1,num_2,16,num_2,0.583483145339,,,2018_Feb_15_1039,60.0043687704,MAFE4ImagesEEG,001,103061,
AFNE01.JPG,AFNE01.JPG,AFNE01.JPG,AFNE01.JPG,AFNE01.JPG,AFNE01.JPG,,,,,,,,,,,,,,,,,3,6,36,4,,,,,,,AMNE20.jpg,AMSA03.jpg,AMNE19.jpg,AMSA04.jpg,AMSA03.jpg,MS,2,num_6,16,num_6,0.716851674486,,,2018_Feb_15_1039,60.0043687704,MAFE4ImagesEEG,001,103061,
AFNE01.JPG,AFNE01.JPG,AFNE01.JPG,AFNE01.JPG,AFNE01.JPG,AFNE01.JPG,,,,,,,,,,,,,,,,,3,7,37,2,,,,,,,AMSA13.jpg,AMNE13.jpg,AMSA11.jpg,AMNE03.jpg,AMSA13.jpg,MS,2,num_8,32,num_4,1.26672070054,,,2018_Feb_15_1039,60.0043687704,MAFE4ImagesEEG,001,103061,
AFNE01.JPG,AFNE01.JPG,AFNE01.JPG,AFNE01.JPG,AFNE01.JPG,AFNE01.JPG,,,,,,,,,,,,,,,,,3,8,38,8,,,,,,,AMSA05.jpg,AMNE03.jpg,AMNE02.jpg,AMSA12.jpg,AMSA05.jpg,MS,2,num_8,32,num_4,0.650171900168,,,2018_Feb_15_1039,60.0043687704,MAFE4ImagesEEG,001,103061,
AFNE01.JPG,AFNE01.JPG,AFNE01.JPG,AFNE01.JPG,AFNE01.JPG,AFNE01.JPG,,,,,,,,,,,,,,,,,3,9,39,0,,,,,,,AMNE01.jpg,AMSA07.jpg,AMSA06.jpg,AMNE15.jpg,AMSA06.jpg,MS,2,num_2,32,num_6,0.883605956333,,,2018_Feb_15_1039,60.0043687704,MAFE4ImagesEEG,001,103061,
AFNE01.JPG,AFNE01.JPG,AFNE01.JPG,AFNE01.JPG,AFNE01.JPG,AFNE01.JPG,,,,,,,,,,,,,,,,,4,0,40,1,,,,,,,AMNE14.jpg,AMNE16.jpg,AMSA15.jpg,AMSA03.jpg,AMNE16.jpg,MN,1,num_6,16,num_6,0.583456523949,,,2018_Feb_15_1039,60.0043687704,MAFE4ImagesEEG,001,103061,
AFNE01.JPG,AFNE01.JPG,AFNE01.JPG,AFNE01.JPG,AFNE01.JPG,AFNE01.JPG,,,,,,,,,,,,,,,,,4,1,41,5,,,,,,,AMNE01.jpg,AMSA05.jpg,AMNE10.jpg,AMSA09.jpg,AMNE10.jpg,MN,1,num_2,32,num_4,0.833436558023,,,2018_Feb_15_1039,60.0043687704,MAFE4ImagesEEG,001,103061,
AFNE01.JPG,AFNE01.JPG,AFNE01.JPG,AFNE01.JPG,AFNE01.JPG,AFNE01.JPG,,,,,,,,,,,,,,,,,4,2,42,8,,,,,,,AMSA14.jpg,AMNE16.jpg,AMSA19.jpg,AMNE02.jpg,AMNE16.jpg,MN,1,num_6,16,num_6,0.600193020888,,,2018_Feb_15_1039,60.0043687704,MAFE4ImagesEEG,001,103061,
AFNE01.JPG,AFNE01.JPG,AFNE01.JPG,AFNE01.JPG,AFNE01.JPG,AFNE01.JPG,,,,,,,,,,,,,,,,,4,3,43,6,,,,,,,AMSA07.jpg,AMNE08.jpg,AMSA10.jpg,AMNE09.jpg,AMNE08.jpg,MN,1,num_6,16,num_6,0.516927497229,,,2018_Feb_15_1039,60.0043687704,MAFE4ImagesEEG,001,103061,
AFNE01.JPG,AFNE01.JPG,AFNE01.JPG,AFNE01.JPG,AFNE01.JPG,AFNE01.JPG,,,,,,,,,,,,,,,,,4,4,44,2,,,,,,,AMNE08.jpg,AMSA07.jpg,AMNE06.jpg,AMSA17.jpg,AMNE06.jpg,MN,1,num_2,16,num_2,0.733497402165,,,2018_Feb_15_1039,60.0043687704,MAFE4ImagesEEG,001,103061,
AFNE01.JPG,AFNE01.JPG,AFNE01.JPG,AFNE01.JPG,AFNE01.JPG,AFNE01.JPG,,,,,,,,,,,,,,,,,4,5,45,7,,,,,,,AMNE04.jpg,AMSA17.jpg,AMSA15.jpg,AMNE02.jpg,AMSA15.jpg,MS,2,num_2,16,num_2,0.433483963367,,,2018_Feb_15_1039,60.0043687704,MAFE4ImagesEEG,001,103061,
AFNE01.JPG,AFNE01.JPG,AFNE01.JPG,AFNE01.JPG,AFNE01.JPG,AFNE01.JPG,,,,,,,,,,,,,,,,,4,6,46,0,,,,,,,AMSA19.jpg,AMSA07.jpg,AMNE03.jpg,AMNE19.jpg,AMSA19.jpg,MS,2,num_8,32,num_2,0.733482648153,,,2018_Feb_15_1039,60.0043687704,MAFE4ImagesEEG,001,103061,
AFNE01.JPG,AFNE01.JPG,AFNE01.JPG,AFNE01.JPG,AFNE01.JPG,AFNE01.JPG,,,,,,,,,,,,,,,,,4,7,47,3,,,,,,,AMNE07.jpg,AMNE10.jpg,AMSA17.jpg,AMSA19.jpg,AMSA19.jpg,MS,2,num_4,16,num_4,0.633446629159,,,2018_Feb_15_1039,60.0043687704,MAFE4ImagesEEG,001,103061,
AFNE01.JPG,AFNE01.JPG,AFNE01.JPG,AFNE01.JPG,AFNE01.JPG,AFNE01.JPG,,,,,,,,,,,,,,,,,4,8,48,9,,,,,,,AMNE16.jpg,AMSA18.jpg,AMNE06.jpg,AMSA02.jpg,AMSA18.jpg,MS,2,num_6,16,num_6,0.700180929154,,,2018_Feb_15_1039,60.0043687704,MAFE4ImagesEEG,001,103061,
AFNE01.JPG,AFNE01.JPG,AFNE01.JPG,AFNE01.JPG,AFNE01.JPG,AFNE01.JPG,,,,,,,,,,,,,,,,,4,9,49,4,,,,,,,AMSA13.jpg,AMNE10.jpg,AMNE02.jpg,AMSA16.jpg,AMSA16.jpg,MS,2,num_4,32,num_6,0.633530983701,,,2018_Feb_15_1039,60.0043687704,MAFE4ImagesEEG,001,103061,
AFNE01.JPG,AFNE01.JPG,AFNE01.JPG,AFNE01.JPG,AFNE01.JPG,AFNE01.JPG,,,,,,,,,,,,,,,,,5,0,50,1,,,,,,,AMSA14.jpg,AMNE15.jpg,AMNE16.jpg,AMSA19.jpg,AMSA14.jpg,MS,2,num_8,16,num_8,0.816750096157,,,2018_Feb_15_1039,60.0043687704,MAFE4ImagesEEG,001,103061,
AFNE01.JPG,AFNE01.JPG,AFNE01.JPG,AFNE01.JPG,AFNE01.JPG,AFNE01.JPG,,,,,,,,,,,,,,,,,5,1,51,4,,,,,,,AMNE07.jpg,AMSA16.jpg,AMSA12.jpg,AMNE18.jpg,AMSA12.jpg,MS,2,num_2,16,num_2,1.1167442908,,,2018_Feb_15_1039,60.0043687704,MAFE4ImagesEEG,001,103061,
AFNE01.JPG,AFNE01.JPG,AFNE01.JPG,AFNE01.JPG,AFNE01.JPG,AFNE01.JPG,,,,,,,,,,,,,,,,,5,2,52,6,,,,,,,AMNE05.jpg,AMSA03.jpg,AMSA14.jpg,AMNE08.jpg,AMNE08.jpg,MN,1,num_4,32,num_6,0.833461254835,,,2018_Feb_15_1039,60.0043687704,MAFE4ImagesEEG,001,103061,
AFNE01.JPG,AFNE01.JPG,AFNE01.JPG,AFNE01.JPG,AFNE01.JPG,AFNE01.JPG,,,,,,,,,,,,,,,,,5,3,53,7,,,,,,,AMNE04.jpg,AMSA18.jpg,AMSA15.jpg,AMNE18.jpg,AMNE04.jpg,MN,1,num_8,16,num_8,0.933470973279,,,2018_Feb_15_1039,60.0043687704,MAFE4ImagesEEG,001,103061,
AFNE01.JPG,AFNE01.JPG,AFNE01.JPG,AFNE01.JPG,AFNE01.JPG,AFNE01.JPG,,,,,,,,,,,,,,,,,5,4,54,8,,,,,,,AMNE03.jpg,AMSA05.jpg,AMSA07.jpg,AMNE19.jpg,AMNE03.jpg,MN,1,num_8,16,num_8,0.71679650736,,,2018_Feb_15_1039,60.0043687704,MAFE4ImagesEEG,001,103061,
AFNE01.JPG,AFNE01.JPG,AFNE01.JPG,AFNE01.JPG,AFNE01.JPG,AFNE01.JPG,,,,,,,,,,,,,,,,,5,5,55,5,,,,,,,AMNE15.jpg,AMSA12.jpg,AMNE08.jpg,AMSA03.jpg,AMNE08.jpg,MN,1,num_2,32,num_6,0.816802056273,,,2018_Feb_15_1039,60.0043687704,MAFE4ImagesEEG,001,103061,
AFNE01.JPG,AFNE01.JPG,AFNE01.JPG,AFNE01.JPG,AFNE01.JPG,AFNE01.JPG,,,,,,,,,,,,,,,,,5,6,56,2,,,,,,,AMNE12.jpg,AMSA09.jpg,AMSA11.jpg,AMNE09.jpg,AMNE09.jpg,MN,1,num_4,16,num_4,0.716804846656,,,2018_Feb_15_1039,60.0043687704,MAFE4ImagesEEG,001,103061,
AFNE01.JPG,AFNE01.JPG,AFNE01.JPG,AFNE01.JPG,AFNE01.JPG,AFNE01.JPG,,,,,,,,,,,,,,,,,5,7,57,9,,,,,,,AMNE04.jpg,AMSA10.jpg,AMSA19.jpg,AMNE15.jpg,AMNE04.jpg,MN,1,num_8,32,num_2,1.03350891662,,,2018_Feb_15_1039,60.0043687704,MAFE4ImagesEEG,001,103061,
AFNE01.JPG,AFNE01.JPG,AFNE01.JPG,AFNE01.JPG,AFNE01.JPG,AFNE01.JPG,,,,,,,,,,,,,,,,,5,8,58,0,,,,,,,AMSA18.jpg,AMNE20.jpg,AMSA07.jpg,AMNE08.jpg,AMNE20.jpg,MN,1,num_6,16,num_6,0.666640900541,,,2018_Feb_15_1039,60.0043687704,MAFE4ImagesEEG,001,103061,
AFNE01.JPG,AFNE01.JPG,AFNE01.JPG,AFNE01.JPG,AFNE01.JPG,AFNE01.JPG,,,,,,,,,,,,,,,,,5,9,59,3,,,,,,,AMNE17.jpg,AMSA14.jpg,AMSA02.jpg,AMNE05.jpg,AMNE05.jpg,MN,1,num_4,16,num_4,1.05016298383,,,2018_Feb_15_1039,60.0043687704,MAFE4ImagesEEG,001,103061,
,,,,,,,,,,,,,,,,,,,,,,,,,,,,,,,,,,,,,,,,,,,space,25.9150502742,2018_Feb_15_1039,60.0043687704,MAFE4ImagesEEG,001,103061,
AFNE01.JPG,AFNE01.JPG,AFNE01.JPG,AFNE01.JPG,AFNE01.JPG,AFNE01.JPG,,,,,,,,,,,,,,,,,,,,,0,0,0,8,,,AFNE03.jpg,AFNE04.jpg,AFSA07.jpg,AFSA15.jpg,AFNE04.jpg,FN,3,num_6,16,num_6,0.533514529699,,,2018_Feb_15_1039,60.0043687704,MAFE4ImagesEEG,001,103061,
AFNE01.JPG,AFNE01.JPG,AFNE01.JPG,AFNE01.JPG,AFNE01.JPG,AFNE01.JPG,,,,,,,,,,,,,,,,,,,,,0,1,1,2,,,AFNE17.jpg,AFNE03.jpg,AFSA14.jpg,AFSA18.jpg,AFNE03.jpg,FN,3,num_6,16,num_6,0.650226105237,,,2018_Feb_15_1039,60.0043687704,MAFE4ImagesEEG,001,103061,
AFNE01.JPG,AFNE01.JPG,AFNE01.JPG,AFNE01.JPG,AFNE01.JPG,AFNE01.JPG,,,,,,,,,,,,,,,,,,,,,0,2,2,5,,,AFSA04.jpg,AFNE01.jpg,AFSA18.jpg,AFNE11.jpg,AFSA04.jpg,FS,4,num_8,32,num_6,0.516805937048,,,2018_Feb_15_1039,60.0043687704,MAFE4ImagesEEG,001,103061,
AFNE01.JPG,AFNE01.JPG,AFNE01.JPG,AFNE01.JPG,AFNE01.JPG,AFNE01.JPG,,,,,,,,,,,,,,,,,,,,,0,3,3,3,,,AFNE20.jpg,AFNE08.jpg,AFSA19.jpg,AFSA15.jpg,AFSA15.jpg,FS,4,num_4,32,num_2,0.666808968177,,,2018_Feb_15_1039,60.0043687704,MAFE4ImagesEEG,001,103061,
AFNE01.JPG,AFNE01.JPG,AFNE01.JPG,AFNE01.JPG,AFNE01.JPG,AFNE01.JPG,,,,,,,,,,,,,,,,,,,,,0,4,4,9,,,AFSA19.jpg,AFNE13.jpg,AFNE03.jpg,AFSA18.jpg,AFSA18.jpg,FS,4,num_4,16,num_4,0.933477067156,,,2018_Feb_15_1039,60.0043687704,MAFE4ImagesEEG,001,103061,
AFNE01.JPG,AFNE01.JPG,AFNE01.JPG,AFNE01.JPG,AFNE01.JPG,AFNE01.JPG,,,,,,,,,,,,,,,,,,,,,0,5,5,6,,,AFSA14.jpg,AFNE13.jpg,AFSA03.jpg,AFNE09.jpg,AFNE09.jpg,FN,3,num_4,16,num_4,0.683537125587,,,2018_Feb_15_1039,60.0043687704,MAFE4ImagesEEG,001,103061,
AFNE01.JPG,AFNE01.JPG,AFNE01.JPG,AFNE01.JPG,AFNE01.JPG,AFNE01.JPG,,,,,,,,,,,,,,,,,,,,,0,6,6,7,,,AFSA08.jpg,AFSA05.jpg,AFNE14.jpg,AFNE06.jpg,AFNE06.jpg,FN,3,num_4,16,num_4,0.633490570355,,,2018_Feb_15_1039,60.0043687704,MAFE4ImagesEEG,001,103061,
AFNE01.JPG,AFNE01.JPG,AFNE01.JPG,AFNE01.JPG,AFNE01.JPG,AFNE01.JPG,,,,,,,,,,,,,,,,,,,,,0,7,7,1,,,AFSA13.jpg,AFNE09.jpg,AFNE01.jpg,AFSA06.jpg,AFNE09.jpg,FN,3,num_6,32,num_2,0.533517095726,,,2018_Feb_15_1039,60.0043687704,MAFE4ImagesEEG,001,103061,
AFNE01.JPG,AFNE01.JPG,AFNE01.JPG,AFNE01.JPG,AFNE01.JPG,AFNE01.JPG,,,,,,,,,,,,,,,,,,,,,0,8,8,4,,,AFNE05.jpg,AFSA10.jpg,AFSA16.jpg,AFNE14.jpg,AFNE14.jpg,FN,3,num_4,16,num_4,0.883499150397,,,2018_Feb_15_1039,60.0043687704,MAFE4ImagesEEG,001,103061,
AFNE01.JPG,AFNE01.JPG,AFNE01.JPG,AFNE01.JPG,AFNE01.JPG,AFNE01.JPG,,,,,,,,,,,,,,,,,,,,,0,9,9,0,,,AFNE02.jpg,AFNE05.jpg,AFSA11.jpg,AFSA05.jpg,AFSA05.jpg,FS,4,num_4,16,num_4,0.533467060188,,,2018_Feb_15_1039,60.0043687704,MAFE4ImagesEEG,001,103061,
AFNE01.JPG,AFNE01.JPG,AFNE01.JPG,AFNE01.JPG,AFNE01.JPG,AFNE01.JPG,,,,,,,,,,,,,,,,,,,,,1,0,10,5,,,AFNE18.jpg,AFSA04.jpg,AFNE16.jpg,AFSA11.jpg,AFNE18.jpg,FN,3,num_8,16,num_8,1.15010951646,,,2018_Feb_15_1039,60.0043687704,MAFE4ImagesEEG,001,103061,
AFNE01.JPG,AFNE01.JPG,AFNE01.JPG,AFNE01.JPG,AFNE01.JPG,AFNE01.JPG,,,,,,,,,,,,,,,,,,,,,1,1,11,1,,,AFSA03.jpg,AFNE03.jpg,AFNE15.jpg,AFSA08.jpg,AFSA03.jpg,FS,4,num_8,32,num_6,0.916663592914,,,2018_Feb_15_1039,60.0043687704,MAFE4ImagesEEG,001,103061,
AFNE01.JPG,AFNE01.JPG,AFNE01.JPG,AFNE01.JPG,AFNE01.JPG,AFNE01.JPG,,,,,,,,,,,,,,,,,,,,,1,2,12,3,,,AFSA08.jpg,AFNE12.jpg,AFNE10.jpg,AFSA05.jpg,AFSA05.jpg,FS,4,num_4,16,num_4,0.566814645194,,,2018_Feb_15_1039,60.0043687704,MAFE4ImagesEEG,001,103061,
AFNE01.JPG,AFNE01.JPG,AFNE01.JPG,AFNE01.JPG,AFNE01.JPG,AFNE01.JPG,,,,,,,,,,,,,,,,,,,,,1,3,13,4,,,AFSA14.jpg,AFNE12.jpg,AFSA03.jpg,AFNE19.jpg,AFSA14.jpg,FS,4,num_8,16,num_8,0.816793396138,,,2018_Feb_15_1039,60.0043687704,MAFE4ImagesEEG,001,103061,
AFNE01.JPG,AFNE01.JPG,AFNE01.JPG,AFNE01.JPG,AFNE01.JPG,AFNE01.JPG,,,,,,,,,,,,,,,,,,,,,1,4,14,6,,,AFSA01.jpg,AFNE20.jpg,AFSA03.jpg,AFNE14.jpg,AFSA01.jpg,FS,4,num_8,32,num_4,1.24964389927,,,2018_Feb_15_1039,60.0043687704,MAFE4ImagesEEG,001,103061,
AFNE01.JPG,AFNE01.JPG,AFNE01.JPG,AFNE01.JPG,AFNE01.JPG,AFNE01.JPG,,,,,,,,,,,,,,,,,,,,,1,5,15,9,,,AFNE08.jpg,AFSA15.jpg,AFNE01.jpg,AFSA07.jpg,AFNE01.jpg,FN,3,num_2,32,num_4,0.666643145727,,,2018_Feb_15_1039,60.0043687704,MAFE4ImagesEEG,001,103061,
AFNE01.JPG,AFNE01.JPG,AFNE01.JPG,AFNE01.JPG,AFNE01.JPG,AFNE01.JPG,,,,,,,,,,,,,,,,,,,,,1,6,16,8,,,AFNE11.jpg,AFSA14.jpg,AFSA15.jpg,AFNE09.jpg,AFSA14.jpg,FS,4,num_6,16,num_6,0.650153297232,,,2018_Feb_15_1039,60.0043687704,MAFE4ImagesEEG,001,103061,
AFNE01.JPG,AFNE01.JPG,AFNE01.JPG,AFNE01.JPG,AFNE01.JPG,AFNE01.JPG,,,,,,,,,,,,,,,,,,,,,1,7,17,2,,,AFSA04.jpg,AFNE09.jpg,AFSA19.jpg,AFNE11.jpg,AFSA04.jpg,FS,4,num_8,16,num_8,0.783441641601,,,2018_Feb_15_1039,60.0043687704,MAFE4ImagesEEG,001,103061,
AFNE01.JPG,AFNE01.JPG,AFNE01.JPG,AFNE01.JPG,AFNE01.JPG,AFNE01.JPG,,,,,,,,,,,,,,,,,,,,,1,8,18,7,,,AFSA10.jpg,AFNE08.jpg,AFNE16.jpg,AFSA08.jpg,AFSA10.jpg,FS,4,num_8,32,num_6,0.333491564728,,,2018_Feb_15_1039,60.0043687704,MAFE4ImagesEEG,001,103061,
AFNE01.JPG,AFNE01.JPG,AFNE01.JPG,AFNE01.JPG,AFNE01.JPG,AFNE01.JPG,,,,,,,,,,,,,,,,,,,,,1,9,19,0,,,AFNE02.jpg,AFNE01.jpg,AFSA15.jpg,AFSA04.jpg,AFSA15.jpg,FS,4,num_2,32,num_6,0.700105876196,,,2018_Feb_15_1039,60.0043687704,MAFE4ImagesEEG,001,103061,
AFNE01.JPG,AFNE01.JPG,AFNE01.JPG,AFNE01.JPG,AFNE01.JPG,AFNE01.JPG,,,,,,,,,,,,,,,,,,,,,2,0,20,3,,,AFNE19.jpg,AFSA13.jpg,AFNE04.jpg,AFSA18.jpg,AFSA18.jpg,FS,4,num_4,32,num_8,1.6833969627,,,2018_Feb_15_1039,60.0043687704,MAFE4ImagesEEG,001,103061,
AFNE01.JPG,AFNE01.JPG,AFNE01.JPG,AFNE01.JPG,AFNE01.JPG,AFNE01.JPG,,,,,,,,,,,,,,,,,,,,,2,1,21,7,,,AFSA10.jpg,AFNE17.jpg,AFSA12.jpg,AFNE15.jpg,AFNE15.jpg,FN,3,num_4,32,num_2,0.75015050685,,,2018_Feb_15_1039,60.0043687704,MAFE4ImagesEEG,001,103061,
AFNE01.JPG,AFNE01.JPG,AFNE01.JPG,AFNE01.JPG,AFNE01.JPG,AFNE01.JPG,,,,,,,,,,,,,,,,,,,,,2,2,22,0,,,AFNE01.jpg,AFNE20.jpg,AFSA13.jpg,AFSA18.jpg,AFNE20.jpg,FN,3,num_6,16,num_6,0.716772772605,,,2018_Feb_15_1039,60.0043687704,MAFE4ImagesEEG,001,103061,
AFNE01.JPG,AFNE01.JPG,AFNE01.JPG,AFNE01.JPG,AFNE01.JPG,AFNE01.JPG,,,,,,,,,,,,,,,,,,,,,2,3,23,6,,,AFNE13.jpg,AFNE14.jpg,AFSA04.jpg,AFSA03.jpg,AFSA04.jpg,FS,4,num_2,32,num_8,0.783507072367,,,2018_Feb_15_1039,60.0043687704,MAFE4ImagesEEG,001,103061,
AFNE01.JPG,AFNE01.JPG,AFNE01.JPG,AFNE01.JPG,AFNE01.JPG,AFNE01.JPG,,,,,,,,,,,,,,,,,,,,,2,4,24,1,,,AFNE07.jpg,AFNE01.jpg,AFSA16.jpg,AFSA04.jpg,AFNE07.jpg,FN,3,num_8,16,num_8,1.03345407033,,,2018_Feb_15_1039,60.0043687704,MAFE4ImagesEEG,001,103061,
AFNE01.JPG,AFNE01.JPG,AFNE01.JPG,AFNE01.JPG,AFNE01.JPG,AFNE01.JPG,,,,,,,,,,,,,,,,,,,,,2,5,25,8,,,AFNE05.jpg,AFNE16.jpg,AFSA08.jpg,AFSA17.jpg,AFSA08.jpg,FS,4,num_2,16,num_2,0.500088363653,,,2018_Feb_15_1039,60.0043687704,MAFE4ImagesEEG,001,103061,
AFNE01.JPG,AFNE01.JPG,AFNE01.JPG,AFNE01.JPG,AFNE01.JPG,AFNE01.JPG,,,,,,,,,,,,,,,,,,,,,2,6,26,4,,,AFSA06.jpg,AFNE09.jpg,AFNE16.jpg,AFSA17.jpg,AFNE16.jpg,FN,3,num_2,32,num_6,0.300197864184,,,2018_Feb_15_1039,60.0043687704,MAFE4ImagesEEG,001,103061,
AFNE01.JPG,AFNE01.JPG,AFNE01.JPG,AFNE01.JPG,AFNE01.JPG,AFNE01.JPG,,,,,,,,,,,,,,,,,,,,,2,7,27,9,,,AFSA07.jpg,AFNE12.jpg,AFNE01.jpg,AFSA15.jpg,AFSA15.jpg,FS,4,num_4,16,num_4,0.800149271963,,,2018_Feb_15_1039,60.0043687704,MAFE4ImagesEEG,001,103061,
AFNE01.JPG,AFNE01.JPG,AFNE01.JPG,AFNE01.JPG,AFNE01.JPG,AFNE01.JPG,,,,,,,,,,,,,,,,,,,,,2,8,28,5,,,AFSA08.jpg,AFSA19.jpg,AFNE06.jpg,AFNE18.jpg,AFSA08.jpg,FS,4,num_8,32,num_4,0.70013506338,,,2018_Feb_15_1039,60.0043687704,MAFE4ImagesEEG,001,103061,
AFNE01.JPG,AFNE01.JPG,AFNE01.JPG,AFNE01.JPG,AFNE01.JPG,AFNE01.JPG,,,,,,,,,,,,,,,,,,,,,2,9,29,2,,,AFNE09.jpg,AFNE12.jpg,AFSA19.jpg,AFSA10.jpg,AFNE12.jpg,FN,3,num_6,16,num_6,0.600483931368,,,2018_Feb_15_1039,60.0043687704,MAFE4ImagesEEG,001,103061,
AFNE01.JPG,AFNE01.JPG,AFNE01.JPG,AFNE01.JPG,AFNE01.JPG,AFNE01.JPG,,,,,,,,,,,,,,,,,,,,,3,0,30,8,,,AFNE14.jpg,AFSA13.jpg,AFSA03.jpg,AFNE05.jpg,AFNE05.jpg,FN,3,num_4,32,num_2,0.716768282233,,,2018_Feb_15_1039,60.0043687704,MAFE4ImagesEEG,001,103061,
AFNE01.JPG,AFNE01.JPG,AFNE01.JPG,AFNE01.JPG,AFNE01.JPG,AFNE01.JPG,,,,,,,,,,,,,,,,,,,,,3,1,31,9,,,AFSA03.jpg,AFNE11.jpg,AFSA01.jpg,AFNE01.jpg,AFSA03.jpg,FS,4,num_8,16,num_8,0.700207229704,,,2018_Feb_15_1039,60.0043687704,MAFE4ImagesEEG,001,103061,
AFNE01.JPG,AFNE01.JPG,AFNE01.JPG,AFNE01.JPG,AFNE01.JPG,AFNE01.JPG,,,,,,,,,,,,,,,,,,,,,3,2,32,1,,,AFNE17.jpg,AFNE08.jpg,AFSA08.jpg,AFSA09.jpg,AFNE08.jpg,FN,3,num_6,16,num_6,0.866749823792,,,2018_Feb_15_1039,60.0043687704,MAFE4ImagesEEG,001,103061,
AFNE01.JPG,AFNE01.JPG,AFNE01.JPG,AFNE01.JPG,AFNE01.JPG,AFNE01.JPG,,,,,,,,,,,,,,,,,,,,,3,3,33,4,,,AFNE16.jpg,AFSA05.jpg,AFSA08.jpg,AFNE20.jpg,AFSA05.jpg,FS,4,num_6,16,num_6,0.483628343791,,,2018_Feb_15_1039,60.0043687704,MAFE4ImagesEEG,001,103061,
AFNE01.JPG,AFNE01.JPG,AFNE01.JPG,AFNE01.JPG,AFNE01.JPG,AFNE01.JPG,,,,,,,,,,,,,,,,,,,,,3,4,34,5,,,AFSA20.jpg,AFNE17.jpg,AFNE01.jpg,AFSA18.jpg,AFNE17.jpg,FN,3,num_6,16,num_6,0.700120950583,,,2018_Feb_15_1039,60.0043687704,MAFE4ImagesEEG,001,103061,
AFNE01.JPG,AFNE01.JPG,AFNE01.JPG,AFNE01.JPG,AFNE01.JPG,AFNE01.JPG,,,,,,,,,,,,,,,,,,,,,3,5,35,2,,,AFNE18.jpg,AFNE14.jpg,AFSA01.jpg,AFSA04.jpg,AFNE14.jpg,FN,3,num_6,16,num_6,0.716794582782,,,2018_Feb_15_1039,60.0043687704,MAFE4ImagesEEG,001,103061,
AFNE01.JPG,AFNE01.JPG,AFNE01.JPG,AFNE01.JPG,AFNE01.JPG,AFNE01.JPG,,,,,,,,,,,,,,,,,,,,,3,6,36,6,,,AFNE15.jpg,AFSA03.jpg,AFNE16.jpg,AFSA01.jpg,AFSA03.jpg,FS,4,num_6,16,num_6,0.450154387858,,,2018_Feb_15_1039,60.0043687704,MAFE4ImagesEEG,001,103061,
AFNE01.JPG,AFNE01.JPG,AFNE01.JPG,AFNE01.JPG,AFNE01.JPG,AFNE01.JPG,,,,,,,,,,,,,,,,,,,,,3,7,37,7,,,AFNE01.jpg,AFNE02.jpg,AFSA02.jpg,AFSA12.jpg,AFNE01.jpg,FN,3,num_8,32,num_6,0.61677941191,,,2018_Feb_15_1039,60.0043687704,MAFE4ImagesEEG,001,103061,
AFNE01.JPG,AFNE01.JPG,AFNE01.JPG,AFNE01.JPG,AFNE01.JPG,AFNE01.JPG,,,,,,,,,,,,,,,,,,,,,3,8,38,0,,,AFSA03.jpg,AFNE14.jpg,AFNE03.jpg,AFSA17.jpg,AFNE03.jpg,FN,3,num_2,16,num_2,1.45009152289,,,2018_Feb_15_1039,60.0043687704,MAFE4ImagesEEG,001,103061,
