IPosition2,IPosition3,IPosition1,IPosition6,IPosition4,IPosition5,TrialsM1.thisRepN,TrialsM1.thisTrialN,TrialsM1.thisN,TrialsM1.thisIndex,TrialsF1.thisRepN,TrialsF1.thisTrialN,TrialsF1.thisN,TrialsF1.thisIndex,TrialsM2.thisRepN,TrialsM2.thisTrialN,TrialsM2.thisN,TrialsM2.thisIndex,TrialsF2.thisRepN,TrialsF2.thisTrialN,TrialsF2.thisN,TrialsF2.thisIndex,TrialsM3.thisRepN,TrialsM3.thisTrialN,TrialsM3.thisN,TrialsM3.thisIndex,TrialsF3.thisRepN,TrialsF3.thisTrialN,TrialsF3.thisN,TrialsF3.thisIndex,InstrKey_resp.keys,InstrKey_resp.rt,Image0 _Position,Image1 _Position,Image2 _Position,Image3 _Position,Center_image,condition,code,correct_answer,accuracy,Key_Resp.keys,Key_Resp.rt,BreakKey_resp.keys,BreakKey_resp.rt,date,frameRate,expName,session,participant,
,,,,,,,,,,,,,,,,,,,,,,,,,,,,,,space,13.6495021966,,,,,,,,,,,,,,2018_Feb_05_1136,60.0032139754,MAFE4ImagesEEG,001,103024,
AMNE23.JPG,AMNE24.JPG,AMNE22.JPG,AMSA24.JPG,AMSA22.JPG,AMSA23.JPG,0,0,0,9,,,,,,,,,,,,,,,,,,,,,,,AMNE08.jpg,AMNE10.jpg,AMSA18.jpg,AMSA01.jpg,AMSA18.jpg,MS,2,num_2,16,num_2,1.36668743985,,,2018_Feb_05_1136,60.0032139754,MAFE4ImagesEEG,001,103024,
AMSA21.JPG,AMNE23.JPG,AMNE21.JPG,AMSA25.JPG,AMNE25.JPG,AMSA23.JPG,0,1,1,5,,,,,,,,,,,,,,,,,,,,,,,AMNE10.jpg,AMNE02.jpg,AMSA12.jpg,AMSA17.jpg,AMSA12.jpg,MS,2,num_2,32,num_4,1.23340198223,,,2018_Feb_05_1136,60.0032139754,MAFE4ImagesEEG,001,103024,
AFSA21.JPG,AFNE23.JPG,AFNE21.JPG,AFSA25.JPG,AFNE25.JPG,AFSA23.JPG,0,2,2,4,,,,,,,,,,,,,,,,,,,,,,,AMNE08.jpg,AMSA03.jpg,AMSA05.jpg,AMNE19.jpg,AMNE19.jpg,MN,1,num_4,32,num_8,1.21677549882,,,2018_Feb_05_1136,60.0032139754,MAFE4ImagesEEG,001,103024,
AMSA25.JPG,AMNE24.JPG,AMSA24.JPG,AMNE26.JPG,AMSA21.JPG,AMNE25.JPG,0,3,3,3,,,,,,,,,,,,,,,,,,,,,,,AMSA18.jpg,AMSA03.jpg,AMNE10.jpg,AMNE14.jpg,AMNE14.jpg,MN,1,num_4,32,num_2,1.55010733544,,,2018_Feb_05_1136,60.0032139754,MAFE4ImagesEEG,001,103024,
AFNE23.JPG,AFNE24.JPG,AFNE22.JPG,AFSA24.JPG,AFSA22.JPG,AFSA23.JPG,0,4,4,8,,,,,,,,,,,,,,,,,,,,,,,AMNE07.jpg,AMNE11.jpg,AMSA08.jpg,AMSA16.jpg,AMNE07.jpg,MN,1,num_8,32,num_6,1.13349393825,,,2018_Feb_05_1136,60.0032139754,MAFE4ImagesEEG,001,103024,
AMSA21.JPG,AMNE22.JPG,AMNE21.JPG,AMSA23.JPG,AMSA22.JPG,AMNE23.JPG,0,5,5,1,,,,,,,,,,,,,,,,,,,,,,,AMNE04.jpg,AMSA02.jpg,AMSA11.jpg,AMNE05.jpg,AMNE04.jpg,MN,1,num_8,16,num_8,1.48330856697,,,2018_Feb_05_1136,60.0032139754,MAFE4ImagesEEG,001,103024,
AFSA25.JPG,AFNE24.JPG,AFSA24.JPG,AFNE21.JPG,AFSA21.JPG,AFNE25.JPG,0,6,6,2,,,,,,,,,,,,,,,,,,,,,,,AMSA20.jpg,AMSA16.jpg,AMNE20.jpg,AMNE16.jpg,AMSA20.jpg,MS,2,num_8,32,num_6,1.41649344075,,,2018_Feb_05_1136,60.0032139754,MAFE4ImagesEEG,001,103024,
AFNE22.JPG,AFSA24.JPG,AFSA22.JPG,AFNE25.JPG,AFNE24.JPG,AFSA25.JPG,0,7,7,6,,,,,,,,,,,,,,,,,,,,,,,AMSA03.jpg,AMNE19.jpg,AMNE12.jpg,AMSA09.jpg,AMSA03.jpg,MS,2,num_8,32,num_2,3.36656940787,,,2018_Feb_05_1136,60.0032139754,MAFE4ImagesEEG,001,103024,
AMNE22.JPG,AMSA24.JPG,AMSA22.JPG,AMNE25.JPG,AMNE24.JPG,AMSA25.JPG,0,8,8,7,,,,,,,,,,,,,,,,,,,,,,,AMNE11.jpg,AMSA15.jpg,AMNE04.jpg,AMSA18.jpg,AMSA18.jpg,MS,2,num_4,32,num_6,1.20041041798,,,2018_Feb_05_1136,60.0032139754,MAFE4ImagesEEG,001,103024,
AFSA21.JPG,AFNE22.JPG,AFNE21.JPG,AFSA23.JPG,AFSA22.JPG,AFNE23.JPG,0,9,9,0,,,,,,,,,,,,,,,,,,,,,,,AMSA12.jpg,AMNE07.jpg,AMSA04.jpg,AMNE17.jpg,AMNE07.jpg,MN,1,num_6,32,num_2,1.51674307219,,,2018_Feb_05_1136,60.0032139754,MAFE4ImagesEEG,001,103024,
AFNE23.JPG,AFNE24.JPG,AFNE22.JPG,AFSA24.JPG,AFSA22.JPG,AFSA23.JPG,,,,,0,0,0,8,,,,,,,,,,,,,,,,,,,AFNE09.jpg,AFSA07.jpg,AFNE07.jpg,AFSA14.jpg,AFSA07.jpg,FS,4,num_6,32,num_8,1.65014014696,,,2018_Feb_05_1136,60.0032139754,MAFE4ImagesEEG,001,103024,
AFNE22.JPG,AFSA24.JPG,AFSA22.JPG,AFNE25.JPG,AFNE24.JPG,AFSA25.JPG,,,,,0,1,1,6,,,,,,,,,,,,,,,,,,,AFSA15.jpg,AFNE19.jpg,AFNE20.jpg,AFSA20.jpg,AFSA15.jpg,FS,4,num_8,32,num_2,1.58341771446,,,2018_Feb_05_1136,60.0032139754,MAFE4ImagesEEG,001,103024,
AFSA21.JPG,AFNE23.JPG,AFNE21.JPG,AFSA25.JPG,AFNE25.JPG,AFSA23.JPG,,,,,0,2,2,4,,,,,,,,,,,,,,,,,,,AFNE15.jpg,AFNE04.jpg,AFSA18.jpg,AFSA03.jpg,AFNE04.jpg,FN,3,num_6,32,num_2,2.21665008971,,,2018_Feb_05_1136,60.0032139754,MAFE4ImagesEEG,001,103024,
AFSA25.JPG,AFNE24.JPG,AFSA24.JPG,AFNE21.JPG,AFSA21.JPG,AFNE25.JPG,,,,,0,3,3,2,,,,,,,,,,,,,,,,,,,AFNE18.jpg,AFSA10.jpg,AFNE07.jpg,AFSA05.jpg,AFNE18.jpg,FN,3,num_8,32,num_2,1.0835057575,,,2018_Feb_05_1136,60.0032139754,MAFE4ImagesEEG,001,103024,
AMSA21.JPG,AMNE23.JPG,AMNE21.JPG,AMSA25.JPG,AMNE25.JPG,AMSA23.JPG,,,,,0,4,4,5,,,,,,,,,,,,,,,,,,,AFSA07.jpg,AFSA04.jpg,AFNE03.jpg,AFNE12.jpg,AFNE03.jpg,FN,3,num_2,32,num_6,3.36657421896,,,2018_Feb_05_1136,60.0032139754,MAFE4ImagesEEG,001,103024,
AMNE22.JPG,AMSA24.JPG,AMSA22.JPG,AMNE25.JPG,AMNE24.JPG,AMSA25.JPG,,,,,0,5,5,7,,,,,,,,,,,,,,,,,,,AFSA11.jpg,AFSA14.jpg,AFNE05.jpg,AFNE11.jpg,AFNE05.jpg,FN,3,num_2,32,num_8,1.71638980985,,,2018_Feb_05_1136,60.0032139754,MAFE4ImagesEEG,001,103024,
AMSA25.JPG,AMNE24.JPG,AMSA24.JPG,AMNE26.JPG,AMSA21.JPG,AMNE25.JPG,,,,,0,6,6,3,,,,,,,,,,,,,,,,,,,AFNE18.jpg,AFNE06.jpg,AFSA08.jpg,AFSA14.jpg,AFNE18.jpg,FN,3,num_8,32,num_4,1.0167663258,,,2018_Feb_05_1136,60.0032139754,MAFE4ImagesEEG,001,103024,
AMNE23.JPG,AMNE24.JPG,AMNE22.JPG,AMSA24.JPG,AMSA22.JPG,AMSA23.JPG,,,,,0,7,7,9,,,,,,,,,,,,,,,,,,,AFSA03.jpg,AFSA04.jpg,AFNE14.jpg,AFNE10.jpg,AFSA04.jpg,FS,4,num_6,32,num_2,2.11671606579,,,2018_Feb_05_1136,60.0032139754,MAFE4ImagesEEG,001,103024,
AMSA21.JPG,AMNE22.JPG,AMNE21.JPG,AMSA23.JPG,AMSA22.JPG,AMNE23.JPG,,,,,0,8,8,1,,,,,,,,,,,,,,,,,,,AFNE14.jpg,AFNE06.jpg,AFSA06.jpg,AFSA15.jpg,AFNE06.jpg,FN,3,num_6,32,num_2,1.48367356823,,,2018_Feb_05_1136,60.0032139754,MAFE4ImagesEEG,001,103024,
AFSA21.JPG,AFNE22.JPG,AFNE21.JPG,AFSA23.JPG,AFSA22.JPG,AFNE23.JPG,,,,,0,9,9,0,,,,,,,,,,,,,,,,,,,AFSA03.jpg,AFNE01.jpg,AFSA19.jpg,AFNE20.jpg,AFSA03.jpg,FS,4,num_8,32,num_6,1.33325101028,,,2018_Feb_05_1136,60.0032139754,MAFE4ImagesEEG,001,103024,
AMSA21.JPG,AMNE22.JPG,AMNE21.JPG,AMSA23.JPG,AMSA22.JPG,AMNE23.JPG,,,,,,,,,0,0,0,1,,,,,,,,,,,,,,,AMNE13.jpg,AMNE15.jpg,AMSA04.jpg,AMSA05.jpg,AMSA05.jpg,MS,2,num_4,32,num_8,2.10001068062,,,2018_Feb_05_1136,60.0032139754,MAFE4ImagesEEG,001,103024,
AFSA21.JPG,AFNE22.JPG,AFNE21.JPG,AFSA23.JPG,AFSA22.JPG,AFNE23.JPG,,,,,,,,,0,1,1,0,,,,,,,,,,,,,,,AMSA11.jpg,AMNE16.jpg,AMNE15.jpg,AMSA07.jpg,AMSA11.jpg,MS,2,num_8,16,num_8,1.68339247233,,,2018_Feb_05_1136,60.0032139754,MAFE4ImagesEEG,001,103024,
AFSA21.JPG,AFNE23.JPG,AFNE21.JPG,AFSA25.JPG,AFNE25.JPG,AFSA23.JPG,,,,,,,,,0,2,2,4,,,,,,,,,,,,,,,AMSA08.jpg,AMNE14.jpg,AMNE20.jpg,AMSA06.jpg,AMSA08.jpg,MS,2,num_8,32,num_4,1.53341445909,,,2018_Feb_05_1136,60.0032139754,MAFE4ImagesEEG,001,103024,
AMNE23.JPG,AMNE24.JPG,AMNE22.JPG,AMSA24.JPG,AMSA22.JPG,AMSA23.JPG,,,,,,,,,0,3,3,9,,,,,,,,,,,,,,,AMNE06.jpg,AMNE18.jpg,AMSA19.jpg,AMSA06.jpg,AMSA19.jpg,MS,2,num_2,32,num_6,0.916850263136,,,2018_Feb_05_1136,60.0032139754,MAFE4ImagesEEG,001,103024,
AFNE23.JPG,AFNE24.JPG,AFNE22.JPG,AFSA24.JPG,AFSA22.JPG,AFSA23.JPG,,,,,,,,,0,4,4,8,,,,,,,,,,,,,,,AMSA01.jpg,AMNE04.jpg,AMNE13.jpg,AMSA18.jpg,AMNE13.jpg,MN,1,num_2,16,num_2,1.25013046071,,,2018_Feb_05_1136,60.0032139754,MAFE4ImagesEEG,001,103024,
AFSA25.JPG,AFNE24.JPG,AFSA24.JPG,AFNE21.JPG,AFSA21.JPG,AFNE25.JPG,,,,,,,,,0,5,5,2,,,,,,,,,,,,,,,AMSA07.jpg,AMNE14.jpg,AMSA11.jpg,AMNE01.jpg,AMSA07.jpg,MS,2,num_8,16,num_8,1.63308836345,,,2018_Feb_05_1136,60.0032139754,MAFE4ImagesEEG,001,103024,
AMNE22.JPG,AMSA24.JPG,AMSA22.JPG,AMNE25.JPG,AMNE24.JPG,AMSA25.JPG,,,,,,,,,0,6,6,7,,,,,,,,,,,,,,,AMSA16.jpg,AMSA11.jpg,AMNE03.jpg,AMNE14.jpg,AMSA11.jpg,MS,2,num_6,32,num_8,1.7666984091,,,2018_Feb_05_1136,60.0032139754,MAFE4ImagesEEG,001,103024,
AMSA21.JPG,AMNE23.JPG,AMNE21.JPG,AMSA25.JPG,AMNE25.JPG,AMSA23.JPG,,,,,,,,,0,7,7,5,,,,,,,,,,,,,,,AMNE13.jpg,AMSA10.jpg,AMSA09.jpg,AMNE08.jpg,AMSA09.jpg,MS,2,num_2,16,num_2,0.366800340125,,,2018_Feb_05_1136,60.0032139754,MAFE4ImagesEEG,001,103024,
AMSA25.JPG,AMNE24.JPG,AMSA24.JPG,AMNE26.JPG,AMSA21.JPG,AMNE25.JPG,,,,,,,,,0,8,8,3,,,,,,,,,,,,,,,AMNE13.jpg,AMSA07.jpg,AMNE12.jpg,AMSA05.jpg,AMNE12.jpg,MN,1,num_2,32,num_6,1.01672751619,,,2018_Feb_05_1136,60.0032139754,MAFE4ImagesEEG,001,103024,
AFNE22.JPG,AFSA24.JPG,AFSA22.JPG,AFNE25.JPG,AFNE24.JPG,AFSA25.JPG,,,,,,,,,0,9,9,6,,,,,,,,,,,,,,,AMNE18.jpg,AMSA18.jpg,AMNE03.jpg,AMSA04.jpg,AMSA18.jpg,MS,2,num_6,32,num_8,0.91674281552,,,2018_Feb_05_1136,60.0032139754,MAFE4ImagesEEG,001,103024,
AFNE23.JPG,AFNE24.JPG,AFNE22.JPG,AFSA24.JPG,AFSA22.JPG,AFSA23.JPG,,,,,,,,,,,,,0,0,0,8,,,,,,,,,,,AFSA08.jpg,AFSA04.jpg,AFNE06.jpg,AFNE18.jpg,AFNE18.jpg,FN,3,num_4,16,num_4,1.31673967221,,,2018_Feb_05_1136,60.0032139754,MAFE4ImagesEEG,001,103024,
AFNE22.JPG,AFSA24.JPG,AFSA22.JPG,AFNE25.JPG,AFNE24.JPG,AFSA25.JPG,,,,,,,,,,,,,0,1,1,6,,,,,,,,,,,AFNE03.jpg,AFSA12.jpg,AFNE15.jpg,AFSA04.jpg,AFNE15.jpg,FN,3,num_2,16,num_2,2.18349206191,,,2018_Feb_05_1136,60.0032139754,MAFE4ImagesEEG,001,103024,
AMSA25.JPG,AMNE24.JPG,AMSA24.JPG,AMNE26.JPG,AMSA21.JPG,AMNE25.JPG,,,,,,,,,,,,,0,2,2,3,,,,,,,,,,,AFNE05.jpg,AFSA17.jpg,AFSA11.jpg,AFNE04.jpg,AFNE04.jpg,FN,3,num_4,16,num_4,0.816774472478,,,2018_Feb_05_1136,60.0032139754,MAFE4ImagesEEG,001,103024,
AFSA21.JPG,AFNE22.JPG,AFNE21.JPG,AFSA23.JPG,AFSA22.JPG,AFNE23.JPG,,,,,,,,,,,,,0,3,3,0,,,,,,,,,,,AFSA20.jpg,AFNE09.jpg,AFSA02.jpg,AFNE01.jpg,AFSA02.jpg,FS,4,num_2,32,num_4,1.883399721,,,2018_Feb_05_1136,60.0032139754,MAFE4ImagesEEG,001,103024,
AMSA21.JPG,AMNE22.JPG,AMNE21.JPG,AMSA23.JPG,AMSA22.JPG,AMNE23.JPG,,,,,,,,,,,,,0,4,4,1,,,,,,,,,,,AFNE15.jpg,AFSA19.jpg,AFNE20.jpg,AFSA04.jpg,AFNE15.jpg,FN,3,num_8,32,num_6,0.900112162577,,,2018_Feb_05_1136,60.0032139754,MAFE4ImagesEEG,001,103024,
AFSA25.JPG,AFNE24.JPG,AFSA24.JPG,AFNE21.JPG,AFSA21.JPG,AFNE25.JPG,,,,,,,,,,,,,0,5,5,2,,,,,,,,,,,AFSA18.jpg,AFNE04.jpg,AFNE03.jpg,AFSA10.jpg,AFSA18.jpg,FS,4,num_8,16,num_8,0.983442475554,,,2018_Feb_05_1136,60.0032139754,MAFE4ImagesEEG,001,103024,
AMNE22.JPG,AMSA24.JPG,AMSA22.JPG,AMNE25.JPG,AMNE24.JPG,AMSA25.JPG,,,,,,,,,,,,,0,6,6,7,,,,,,,,,,,AFNE08.jpg,AFNE13.jpg,AFSA14.jpg,AFSA13.jpg,AFSA13.jpg,FS,4,num_4,16,num_4,4.71647223993,,,2018_Feb_05_1136,60.0032139754,MAFE4ImagesEEG,001,103024,
AMNE23.JPG,AMNE24.JPG,AMNE22.JPG,AMSA24.JPG,AMSA22.JPG,AMSA23.JPG,,,,,,,,,,,,,0,7,7,9,,,,,,,,,,,AFSA19.jpg,AFNE14.jpg,AFNE11.jpg,AFSA09.jpg,AFNE14.jpg,FN,3,num_6,32,num_2,1.73341657582,,,2018_Feb_05_1136,60.0032139754,MAFE4ImagesEEG,001,103024,
AFSA21.JPG,AFNE23.JPG,AFNE21.JPG,AFSA25.JPG,AFNE25.JPG,AFSA23.JPG,,,,,,,,,,,,,0,8,8,4,,,,,,,,,,,AFSA18.jpg,AFSA14.jpg,AFNE01.jpg,AFNE09.jpg,AFSA14.jpg,FS,4,num_6,16,num_6,0.883492093999,,,2018_Feb_05_1136,60.0032139754,MAFE4ImagesEEG,001,103024,
AMSA21.JPG,AMNE23.JPG,AMNE21.JPG,AMSA25.JPG,AMNE25.JPG,AMSA23.JPG,,,,,,,,,,,,,0,9,9,5,,,,,,,,,,,AFNE12.jpg,AFNE19.jpg,AFSA19.jpg,AFSA18.jpg,AFNE12.jpg,FN,3,num_8,32,num_2,1.20009320683,,,2018_Feb_05_1136,60.0032139754,MAFE4ImagesEEG,001,103024,
AFSA25.JPG,AFNE24.JPG,AFSA24.JPG,AFNE21.JPG,AFSA21.JPG,AFNE25.JPG,,,,,,,,,,,,,,,,,0,0,0,2,,,,,,,AMSA12.jpg,AMNE07.jpg,AMNE02.jpg,AMSA10.jpg,AMNE02.jpg,MN,1,num_2,32,num_4,2.20001943677,,,2018_Feb_05_1136,60.0032139754,MAFE4ImagesEEG,001,103024,
AMNE23.JPG,AMNE24.JPG,AMNE22.JPG,AMSA24.JPG,AMSA22.JPG,AMSA23.JPG,,,,,,,,,,,,,,,,,0,1,1,9,,,,,,,AMSA14.jpg,AMNE03.jpg,AMSA04.jpg,AMNE01.jpg,AMNE03.jpg,MN,1,num_6,32,num_8,3.7998596445,,,2018_Feb_05_1136,60.0032139754,MAFE4ImagesEEG,001,103024,
AFNE23.JPG,AFNE24.JPG,AFNE22.JPG,AFSA24.JPG,AFSA22.JPG,AFSA23.JPG,,,,,,,,,,,,,,,,,0,2,2,8,,,,,,,AMSA20.jpg,AMNE18.jpg,AMSA15.jpg,AMNE14.jpg,AMSA20.jpg,MS,2,num_8,32,num_2,1.80004022073,,,2018_Feb_05_1136,60.0032139754,MAFE4ImagesEEG,001,103024,
AFSA21.JPG,AFNE22.JPG,AFNE21.JPG,AFSA23.JPG,AFSA22.JPG,AFNE23.JPG,,,,,,,,,,,,,,,,,0,3,3,0,,,,,,,AMSA13.jpg,AMNE17.jpg,AMSA12.jpg,AMNE05.jpg,AMSA13.jpg,MS,2,num_8,32,num_2,1.10007803584,,,2018_Feb_05_1136,60.0032139754,MAFE4ImagesEEG,001,103024,
AFSA21.JPG,AFNE23.JPG,AFNE21.JPG,AFSA25.JPG,AFNE25.JPG,AFSA23.JPG,,,,,,,,,,,,,,,,,0,4,4,4,,,,,,,AMSA19.jpg,AMSA20.jpg,AMNE13.jpg,AMNE01.jpg,AMNE13.jpg,MN,1,num_2,16,num_2,1.88336828863,,,2018_Feb_05_1136,60.0032139754,MAFE4ImagesEEG,001,103024,
AMNE22.JPG,AMSA24.JPG,AMSA22.JPG,AMNE25.JPG,AMNE24.JPG,AMSA25.JPG,,,,,,,,,,,,,,,,,0,5,5,7,,,,,,,AMSA08.jpg,AMNE11.jpg,AMSA20.jpg,AMNE13.jpg,AMSA20.jpg,MS,2,num_2,16,num_2,1.18340738676,,,2018_Feb_05_1136,60.0032139754,MAFE4ImagesEEG,001,103024,
AMSA25.JPG,AMNE24.JPG,AMSA24.JPG,AMNE26.JPG,AMSA21.JPG,AMNE25.JPG,,,,,,,,,,,,,,,,,0,6,6,3,,,,,,,AMNE10.jpg,AMSA17.jpg,AMSA06.jpg,AMNE12.jpg,AMSA06.jpg,MS,2,num_2,32,num_4,1.71670990763,,,2018_Feb_05_1136,60.0032139754,MAFE4ImagesEEG,001,103024,
AFNE22.JPG,AFSA24.JPG,AFSA22.JPG,AFNE25.JPG,AFNE24.JPG,AFSA25.JPG,,,,,,,,,,,,,,,,,0,7,7,6,,,,,,,AMSA05.jpg,AMNE19.jpg,AMSA08.jpg,AMNE20.jpg,AMSA08.jpg,MS,2,num_2,32,num_6,3.35011868959,,,2018_Feb_05_1136,60.0032139754,MAFE4ImagesEEG,001,103024,
AMSA21.JPG,AMNE22.JPG,AMNE21.JPG,AMSA23.JPG,AMSA22.JPG,AMNE23.JPG,,,,,,,,,,,,,,,,,0,8,8,1,,,,,,,AMNE15.jpg,AMNE01.jpg,AMSA02.jpg,AMSA06.jpg,AMNE01.jpg,MN,1,num_6,16,num_6,1.00009397662,,,2018_Feb_05_1136,60.0032139754,MAFE4ImagesEEG,001,103024,
AMSA21.JPG,AMNE23.JPG,AMNE21.JPG,AMSA25.JPG,AMNE25.JPG,AMSA23.JPG,,,,,,,,,,,,,,,,,0,9,9,5,,,,,,,AMSA10.jpg,AMSA04.jpg,AMNE19.jpg,AMNE11.jpg,AMSA04.jpg,MS,2,num_6,16,num_6,1.00010776834,,,2018_Feb_05_1136,60.0032139754,MAFE4ImagesEEG,001,103024,
AFSA21.JPG,AFNE23.JPG,AFNE21.JPG,AFSA25.JPG,AFNE25.JPG,AFSA23.JPG,,,,,,,,,,,,,,,,,,,,,0,0,0,4,,,AFSA17.jpg,AFNE01.jpg,AFSA20.jpg,AFNE16.jpg,AFSA17.jpg,FS,4,num_8,16,num_8,2.16669302084,,,2018_Feb_05_1136,60.0032139754,MAFE4ImagesEEG,001,103024,
AMNE22.JPG,AMSA24.JPG,AMSA22.JPG,AMNE25.JPG,AMNE24.JPG,AMSA25.JPG,,,,,,,,,,,,,,,,,,,,,0,1,1,7,,,AFNE04.jpg,AFNE12.jpg,AFSA02.jpg,AFSA13.jpg,AFSA13.jpg,FS,4,num_4,16,num_4,1.55009707168,,,2018_Feb_05_1136,60.0032139754,MAFE4ImagesEEG,001,103024,
AMSA21.JPG,AMNE23.JPG,AMNE21.JPG,AMSA25.JPG,AMNE25.JPG,AMSA23.JPG,,,,,,,,,,,,,,,,,,,,,0,2,2,5,,,AFSA07.jpg,AFSA01.jpg,AFNE18.jpg,AFNE20.jpg,AFSA07.jpg,FS,4,num_8,32,num_2,3.4165989639,,,2018_Feb_05_1136,60.0032139754,MAFE4ImagesEEG,001,103024,
AFNE23.JPG,AFNE24.JPG,AFNE22.JPG,AFSA24.JPG,AFSA22.JPG,AFSA23.JPG,,,,,,,,,,,,,,,,,,,,,0,3,3,8,,,AFSA02.jpg,AFNE01.jpg,AFNE20.jpg,AFSA10.jpg,AFNE20.jpg,FN,3,num_2,32,num_4,2.4331728461,,,2018_Feb_05_1136,60.0032139754,MAFE4ImagesEEG,001,103024,
AMNE23.JPG,AMNE24.JPG,AMNE22.JPG,AMSA24.JPG,AMSA22.JPG,AMSA23.JPG,,,,,,,,,,,,,,,,,,,,,0,4,4,9,,,AFSA13.jpg,AFSA09.jpg,AFNE20.jpg,AFNE02.jpg,AFSA09.jpg,FS,4,num_6,16,num_6,1.88336379826,,,2018_Feb_05_1136,60.0032139754,MAFE4ImagesEEG,001,103024,
AFNE22.JPG,AFSA24.JPG,AFSA22.JPG,AFNE25.JPG,AFNE24.JPG,AFSA25.JPG,,,,,,,,,,,,,,,,,,,,,0,5,5,6,,,AFSA15.jpg,AFNE17.jpg,AFNE06.jpg,AFSA07.jpg,AFSA15.jpg,FS,4,num_8,32,num_4,1.51675622235,,,2018_Feb_05_1136,60.0032139754,MAFE4ImagesEEG,001,103024,
AMSA25.JPG,AMNE24.JPG,AMSA24.JPG,AMNE26.JPG,AMSA21.JPG,AMNE25.JPG,,,,,,,,,,,,,,,,,,,,,0,6,6,3,,,AFSA17.jpg,AFSA12.jpg,AFNE08.jpg,AFNE04.jpg,AFNE04.jpg,FN,3,num_4,32,num_2,1.58363453427,,,2018_Feb_05_1136,60.0032139754,MAFE4ImagesEEG,001,103024,
AFSA21.JPG,AFNE22.JPG,AFNE21.JPG,AFSA23.JPG,AFSA22.JPG,AFNE23.JPG,,,,,,,,,,,,,,,,,,,,,0,7,7,0,,,AFNE20.jpg,AFSA03.jpg,AFNE01.jpg,AFSA10.jpg,AFSA03.jpg,FS,4,num_6,16,num_6,1.01679455081,,,2018_Feb_05_1136,60.0032139754,MAFE4ImagesEEG,001,103024,
AFSA25.JPG,AFNE24.JPG,AFSA24.JPG,AFNE21.JPG,AFSA21.JPG,AFNE25.JPG,,,,,,,,,,,,,,,,,,,,,0,8,8,2,,,AFSA06.jpg,AFNE20.jpg,AFSA04.jpg,AFNE12.jpg,AFNE12.jpg,FN,3,num_4,32,num_6,1.73348008224,,,2018_Feb_05_1136,60.0032139754,MAFE4ImagesEEG,001,103024,
AMSA21.JPG,AMNE22.JPG,AMNE21.JPG,AMSA23.JPG,AMSA22.JPG,AMNE23.JPG,,,,,,,,,,,,,,,,,,,,,0,9,9,1,,,AFNE19.jpg,AFSA04.jpg,AFNE03.jpg,AFSA05.jpg,AFNE03.jpg,FN,3,num_2,48,None,,,,2018_Feb_05_1136,60.0032139754,MAFE4ImagesEEG,001,103024,
,,,,,,,,,,,,,,,,,,,,,,,,,,,,,,,,,,,,,,,,,,,space,15.3655796064,2018_Feb_05_1136,60.0032139754,MAFE4ImagesEEG,001,103024,
AFNE01.JPG,AFNE01.JPG,AFNE01.JPG,AFNE01.JPG,AFNE01.JPG,AFNE01.JPG,0,0,0,4,,,,,,,,,,,,,,,,,,,,,,,AMSA11.jpg,AMSA17.jpg,AMNE16.jpg,AMNE02.jpg,AMNE16.jpg,MN,1,num_2,16,num_2,1.13342433772,,,2018_Feb_05_1136,60.0032139754,MAFE4ImagesEEG,001,103024,
AFNE01.JPG,AFNE01.JPG,AFNE01.JPG,AFNE01.JPG,AFNE01.JPG,AFNE01.JPG,0,1,1,9,,,,,,,,,,,,,,,,,,,,,,,AMNE11.jpg,AMSA16.jpg,AMSA06.jpg,AMNE16.jpg,AMSA16.jpg,MS,2,num_6,32,num_8,0.850132962456,,,2018_Feb_05_1136,60.0032139754,MAFE4ImagesEEG,001,103024,
AFNE01.JPG,AFNE01.JPG,AFNE01.JPG,AFNE01.JPG,AFNE01.JPG,AFNE01.JPG,0,2,2,3,,,,,,,,,,,,,,,,,,,,,,,AMSA17.jpg,AMNE01.jpg,AMSA12.jpg,AMNE04.jpg,AMNE04.jpg,MN,1,num_4,32,num_6,1.0004018863,,,2018_Feb_05_1136,60.0032139754,MAFE4ImagesEEG,001,103024,
AFNE01.JPG,AFNE01.JPG,AFNE01.JPG,AFNE01.JPG,AFNE01.JPG,AFNE01.JPG,0,3,3,6,,,,,,,,,,,,,,,,,,,,,,,AMNE09.jpg,AMSA11.jpg,AMSA09.jpg,AMNE18.jpg,AMNE18.jpg,MN,1,num_4,32,num_8,0.916751475539,,,2018_Feb_05_1136,60.0032139754,MAFE4ImagesEEG,001,103024,
AFNE01.JPG,AFNE01.JPG,AFNE01.JPG,AFNE01.JPG,AFNE01.JPG,AFNE01.JPG,0,4,4,8,,,,,,,,,,,,,,,,,,,,,,,AMSA17.jpg,AMNE20.jpg,AMNE06.jpg,AMSA01.jpg,AMSA17.jpg,MS,2,num_8,32,num_4,0.850124623277,,,2018_Feb_05_1136,60.0032139754,MAFE4ImagesEEG,001,103024,
AFNE01.JPG,AFNE01.JPG,AFNE01.JPG,AFNE01.JPG,AFNE01.JPG,AFNE01.JPG,0,5,5,5,,,,,,,,,,,,,,,,,,,,,,,AMNE17.jpg,AMSA17.jpg,AMSA06.jpg,AMNE06.jpg,AMNE06.jpg,MN,1,num_4,16,num_4,1.71671183209,,,2018_Feb_05_1136,60.0032139754,MAFE4ImagesEEG,001,103024,
AFNE01.JPG,AFNE01.JPG,AFNE01.JPG,AFNE01.JPG,AFNE01.JPG,AFNE01.JPG,0,6,6,1,,,,,,,,,,,,,,,,,,,,,,,AMSA05.jpg,AMNE17.jpg,AMNE18.jpg,AMSA12.jpg,AMSA12.jpg,MS,2,num_4,32,num_2,1.46676643798,,,2018_Feb_05_1136,60.0032139754,MAFE4ImagesEEG,001,103024,
AFNE01.JPG,AFNE01.JPG,AFNE01.JPG,AFNE01.JPG,AFNE01.JPG,AFNE01.JPG,0,7,7,0,,,,,,,,,,,,,,,,,,,,,,,AMSA19.jpg,AMNE18.jpg,AMSA20.jpg,AMNE11.jpg,AMSA20.jpg,MS,2,num_2,32,num_8,2.50003030989,,,2018_Feb_05_1136,60.0032139754,MAFE4ImagesEEG,001,103024,
AFNE01.JPG,AFNE01.JPG,AFNE01.JPG,AFNE01.JPG,AFNE01.JPG,AFNE01.JPG,0,8,8,2,,,,,,,,,,,,,,,,,,,,,,,AMSA16.jpg,AMNE05.jpg,AMNE01.jpg,AMSA10.jpg,AMSA16.jpg,MS,2,num_8,16,num_8,1.41670095909,,,2018_Feb_05_1136,60.0032139754,MAFE4ImagesEEG,001,103024,
AFNE01.JPG,AFNE01.JPG,AFNE01.JPG,AFNE01.JPG,AFNE01.JPG,AFNE01.JPG,0,9,9,7,,,,,,,,,,,,,,,,,,,,,,,AMSA15.jpg,AMNE05.jpg,AMSA18.jpg,AMNE17.jpg,AMSA15.jpg,MS,2,num_8,16,num_8,1.41673110856,,,2018_Feb_05_1136,60.0032139754,MAFE4ImagesEEG,001,103024,
AFNE01.JPG,AFNE01.JPG,AFNE01.JPG,AFNE01.JPG,AFNE01.JPG,AFNE01.JPG,1,0,10,8,,,,,,,,,,,,,,,,,,,,,,,AMSA16.jpg,AMNE17.jpg,AMNE19.jpg,AMSA07.jpg,AMNE17.jpg,MN,1,num_6,32,num_8,3.86654390907,,,2018_Feb_05_1136,60.0032139754,MAFE4ImagesEEG,001,103024,
AFNE01.JPG,AFNE01.JPG,AFNE01.JPG,AFNE01.JPG,AFNE01.JPG,AFNE01.JPG,1,1,11,3,,,,,,,,,,,,,,,,,,,,,,,AMNE05.jpg,AMNE15.jpg,AMSA13.jpg,AMSA04.jpg,AMSA04.jpg,MS,2,num_4,16,num_4,0.983625296969,,,2018_Feb_05_1136,60.0032139754,MAFE4ImagesEEG,001,103024,
AFNE01.JPG,AFNE01.JPG,AFNE01.JPG,AFNE01.JPG,AFNE01.JPG,AFNE01.JPG,1,2,12,9,,,,,,,,,,,,,,,,,,,,,,,AMSA15.jpg,AMNE18.jpg,AMSA13.jpg,AMNE10.jpg,AMNE10.jpg,MN,1,num_4,32,num_2,1.98363203253,,,2018_Feb_05_1136,60.0032139754,MAFE4ImagesEEG,001,103024,
AFNE01.JPG,AFNE01.JPG,AFNE01.JPG,AFNE01.JPG,AFNE01.JPG,AFNE01.JPG,1,3,13,7,,,,,,,,,,,,,,,,,,,,,,,AMNE20.jpg,AMSA04.jpg,AMSA07.jpg,AMNE02.jpg,AMNE02.jpg,MN,1,num_4,16,num_4,0.700102668605,,,2018_Feb_05_1136,60.0032139754,MAFE4ImagesEEG,001,103024,
AFNE01.JPG,AFNE01.JPG,AFNE01.JPG,AFNE01.JPG,AFNE01.JPG,AFNE01.JPG,1,4,14,2,,,,,,,,,,,,,,,,,,,,,,,AMNE14.jpg,AMSA01.jpg,AMNE05.jpg,AMSA13.jpg,AMNE14.jpg,MN,1,num_8,16,num_8,2.01667780161,,,2018_Feb_05_1136,60.0032139754,MAFE4ImagesEEG,001,103024,
AFNE01.JPG,AFNE01.JPG,AFNE01.JPG,AFNE01.JPG,AFNE01.JPG,AFNE01.JPG,1,5,15,4,,,,,,,,,,,,,,,,,,,,,,,AMNE01.jpg,AMNE03.jpg,AMSA10.jpg,AMSA08.jpg,AMSA08.jpg,MS,2,num_4,16,num_4,1.05013732449,,,2018_Feb_05_1136,60.0032139754,MAFE4ImagesEEG,001,103024,
AFNE01.JPG,AFNE01.JPG,AFNE01.JPG,AFNE01.JPG,AFNE01.JPG,AFNE01.JPG,1,6,16,5,,,,,,,,,,,,,,,,,,,,,,,AMNE09.jpg,AMSA01.jpg,AMSA05.jpg,AMNE07.jpg,AMNE09.jpg,MN,1,num_8,32,num_2,1.96669667715,,,2018_Feb_05_1136,60.0032139754,MAFE4ImagesEEG,001,103024,
AFNE01.JPG,AFNE01.JPG,AFNE01.JPG,AFNE01.JPG,AFNE01.JPG,AFNE01.JPG,1,7,17,1,,,,,,,,,,,,,,,,,,,,,,,AMSA11.jpg,AMNE12.jpg,AMSA20.jpg,AMNE03.jpg,AMNE03.jpg,MN,1,num_4,16,num_4,1.56675242167,,,2018_Feb_05_1136,60.0032139754,MAFE4ImagesEEG,001,103024,
AFNE01.JPG,AFNE01.JPG,AFNE01.JPG,AFNE01.JPG,AFNE01.JPG,AFNE01.JPG,1,8,18,6,,,,,,,,,,,,,,,,,,,,,,,AMNE04.jpg,AMSA13.jpg,AMSA10.jpg,AMNE15.jpg,AMSA13.jpg,MS,2,num_6,32,num_2,1.46676900389,,,2018_Feb_05_1136,60.0032139754,MAFE4ImagesEEG,001,103024,
AFNE01.JPG,AFNE01.JPG,AFNE01.JPG,AFNE01.JPG,AFNE01.JPG,AFNE01.JPG,1,9,19,0,,,,,,,,,,,,,,,,,,,,,,,AMSA15.jpg,AMNE18.jpg,AMSA03.jpg,AMNE17.jpg,AMSA15.jpg,MS,2,num_8,32,num_6,2.59964808484,,,2018_Feb_05_1136,60.0032139754,MAFE4ImagesEEG,001,103024,
AFNE01.JPG,AFNE01.JPG,AFNE01.JPG,AFNE01.JPG,AFNE01.JPG,AFNE01.JPG,2,0,20,5,,,,,,,,,,,,,,,,,,,,,,,AMNE02.jpg,AMSA01.jpg,AMNE06.jpg,AMSA14.jpg,AMNE06.jpg,MN,1,num_2,32,num_8,4.61648016213,,,2018_Feb_05_1136,60.0032139754,MAFE4ImagesEEG,001,103024,
AFNE01.JPG,AFNE01.JPG,AFNE01.JPG,AFNE01.JPG,AFNE01.JPG,AFNE01.JPG,2,1,21,7,,,,,,,,,,,,,,,,,,,,,,,AMSA12.jpg,AMSA02.jpg,AMNE10.jpg,AMNE06.jpg,AMSA02.jpg,MS,2,num_6,16,num_6,1.38341623917,,,2018_Feb_05_1136,60.0032139754,MAFE4ImagesEEG,001,103024,
AFNE01.JPG,AFNE01.JPG,AFNE01.JPG,AFNE01.JPG,AFNE01.JPG,AFNE01.JPG,2,2,22,2,,,,,,,,,,,,,,,,,,,,,,,AMNE08.jpg,AMSA07.jpg,AMSA17.jpg,AMNE07.jpg,AMNE08.jpg,MN,1,num_8,32,num_4,1.86670299573,,,2018_Feb_05_1136,60.0032139754,MAFE4ImagesEEG,001,103024,
AFNE01.JPG,AFNE01.JPG,AFNE01.JPG,AFNE01.JPG,AFNE01.JPG,AFNE01.JPG,2,3,23,3,,,,,,,,,,,,,,,,,,,,,,,AMSA03.jpg,AMSA01.jpg,AMNE14.jpg,AMNE06.jpg,AMNE14.jpg,MN,1,num_2,16,num_2,1.48343974934,,,2018_Feb_05_1136,60.0032139754,MAFE4ImagesEEG,001,103024,
AFNE01.JPG,AFNE01.JPG,AFNE01.JPG,AFNE01.JPG,AFNE01.JPG,AFNE01.JPG,2,4,24,0,,,,,,,,,,,,,,,,,,,,,,,AMNE11.jpg,AMSA06.jpg,AMSA07.jpg,AMNE13.jpg,AMSA06.jpg,MS,2,num_6,32,num_4,2.7666300917,,,2018_Feb_05_1136,60.0032139754,MAFE4ImagesEEG,001,103024,
AFNE01.JPG,AFNE01.JPG,AFNE01.JPG,AFNE01.JPG,AFNE01.JPG,AFNE01.JPG,2,5,25,8,,,,,,,,,,,,,,,,,,,,,,,AMNE16.jpg,AMNE10.jpg,AMSA05.jpg,AMSA19.jpg,AMNE10.jpg,MN,1,num_6,16,num_6,1.30006988917,,,2018_Feb_05_1136,60.0032139754,MAFE4ImagesEEG,001,103024,
AFNE01.JPG,AFNE01.JPG,AFNE01.JPG,AFNE01.JPG,AFNE01.JPG,AFNE01.JPG,2,6,26,6,,,,,,,,,,,,,,,,,,,,,,,AMSA03.jpg,AMNE06.jpg,AMSA13.jpg,AMNE17.jpg,AMNE06.jpg,MN,1,num_6,32,num_2,1.33344569895,,,2018_Feb_05_1136,60.0032139754,MAFE4ImagesEEG,001,103024,
AFNE01.JPG,AFNE01.JPG,AFNE01.JPG,AFNE01.JPG,AFNE01.JPG,AFNE01.JPG,2,7,27,4,,,,,,,,,,,,,,,,,,,,,,,AMSA12.jpg,AMNE18.jpg,AMNE20.jpg,AMSA05.jpg,AMSA12.jpg,MS,2,num_8,32,num_4,0.933428956429,,,2018_Feb_05_1136,60.0032139754,MAFE4ImagesEEG,001,103024,
AFNE01.JPG,AFNE01.JPG,AFNE01.JPG,AFNE01.JPG,AFNE01.JPG,AFNE01.JPG,2,8,28,9,,,,,,,,,,,,,,,,,,,,,,,AMSA03.jpg,AMSA09.jpg,AMNE05.jpg,AMNE15.jpg,AMNE05.jpg,MN,1,num_2,32,num_6,1.01676921244,,,2018_Feb_05_1136,60.0032139754,MAFE4ImagesEEG,001,103024,
AFNE01.JPG,AFNE01.JPG,AFNE01.JPG,AFNE01.JPG,AFNE01.JPG,AFNE01.JPG,2,9,29,1,,,,,,,,,,,,,,,,,,,,,,,AMSA09.jpg,AMNE13.jpg,AMNE06.jpg,AMSA17.jpg,AMNE06.jpg,MN,1,num_2,32,num_6,1.48350229335,,,2018_Feb_05_1136,60.0032139754,MAFE4ImagesEEG,001,103024,
AFNE01.JPG,AFNE01.JPG,AFNE01.JPG,AFNE01.JPG,AFNE01.JPG,AFNE01.JPG,3,0,30,5,,,,,,,,,,,,,,,,,,,,,,,AMSA05.jpg,AMSA08.jpg,AMNE12.jpg,AMNE19.jpg,AMNE12.jpg,MN,1,num_2,32,num_8,1.23340518959,,,2018_Feb_05_1136,60.0032139754,MAFE4ImagesEEG,001,103024,
AFNE01.JPG,AFNE01.JPG,AFNE01.JPG,AFNE01.JPG,AFNE01.JPG,AFNE01.JPG,3,1,31,8,,,,,,,,,,,,,,,,,,,,,,,AMNE16.jpg,AMSA19.jpg,AMSA06.jpg,AMNE09.jpg,AMNE16.jpg,MN,1,num_8,32,num_2,1.81670679641,,,2018_Feb_05_1136,60.0032139754,MAFE4ImagesEEG,001,103024,
AFNE01.JPG,AFNE01.JPG,AFNE01.JPG,AFNE01.JPG,AFNE01.JPG,AFNE01.JPG,3,2,32,7,,,,,,,,,,,,,,,,,,,,,,,AMNE02.jpg,AMNE13.jpg,AMSA10.jpg,AMSA09.jpg,AMNE02.jpg,MN,1,num_8,32,num_2,1.40008377715,,,2018_Feb_05_1136,60.0032139754,MAFE4ImagesEEG,001,103024,
AFNE01.JPG,AFNE01.JPG,AFNE01.JPG,AFNE01.JPG,AFNE01.JPG,AFNE01.JPG,3,3,33,2,,,,,,,,,,,,,,,,,,,,,,,AMNE05.jpg,AMSA16.jpg,AMNE16.jpg,AMSA11.jpg,AMNE16.jpg,MN,1,num_2,32,num_8,2.73338001163,,,2018_Feb_05_1136,60.0032139754,MAFE4ImagesEEG,001,103024,
AFNE01.JPG,AFNE01.JPG,AFNE01.JPG,AFNE01.JPG,AFNE01.JPG,AFNE01.JPG,3,4,34,4,,,,,,,,,,,,,,,,,,,,,,,AMNE03.jpg,AMSA15.jpg,AMNE19.jpg,AMSA01.jpg,AMNE19.jpg,MN,1,num_2,16,num_2,0.950094249216,,,2018_Feb_05_1136,60.0032139754,MAFE4ImagesEEG,001,103024,
AFNE01.JPG,AFNE01.JPG,AFNE01.JPG,AFNE01.JPG,AFNE01.JPG,AFNE01.JPG,3,5,35,3,,,,,,,,,,,,,,,,,,,,,,,AMSA10.jpg,AMNE17.jpg,AMNE02.jpg,AMSA12.jpg,AMSA12.jpg,MS,2,num_4,32,num_8,1.18340289628,,,2018_Feb_05_1136,60.0032139754,MAFE4ImagesEEG,001,103024,
AFNE01.JPG,AFNE01.JPG,AFNE01.JPG,AFNE01.JPG,AFNE01.JPG,AFNE01.JPG,3,6,36,6,,,,,,,,,,,,,,,,,,,,,,,AMSA03.jpg,AMSA17.jpg,AMNE04.jpg,AMNE14.jpg,AMNE14.jpg,MN,1,num_4,32,num_2,1.21672802942,,,2018_Feb_05_1136,60.0032139754,MAFE4ImagesEEG,001,103024,
AFNE01.JPG,AFNE01.JPG,AFNE01.JPG,AFNE01.JPG,AFNE01.JPG,AFNE01.JPG,3,7,37,0,,,,,,,,,,,,,,,,,,,,,,,AMSA10.jpg,AMNE12.jpg,AMSA07.jpg,AMNE07.jpg,AMSA10.jpg,MS,2,num_8,16,num_8,2.25003969145,,,2018_Feb_05_1136,60.0032139754,MAFE4ImagesEEG,001,103024,
AFNE01.JPG,AFNE01.JPG,AFNE01.JPG,AFNE01.JPG,AFNE01.JPG,AFNE01.JPG,3,8,38,9,,,,,,,,,,,,,,,,,,,,,,,AMSA12.jpg,AMSA03.jpg,AMNE02.jpg,AMNE11.jpg,AMSA12.jpg,MS,2,num_8,16,num_8,1.08350030484,,,2018_Feb_05_1136,60.0032139754,MAFE4ImagesEEG,001,103024,
AFNE01.JPG,AFNE01.JPG,AFNE01.JPG,AFNE01.JPG,AFNE01.JPG,AFNE01.JPG,3,9,39,1,,,,,,,,,,,,,,,,,,,,,,,AMSA18.jpg,AMSA13.jpg,AMNE17.jpg,AMNE11.jpg,AMSA13.jpg,MS,2,num_6,32,num_8,3.4334419464,,,2018_Feb_05_1136,60.0032139754,MAFE4ImagesEEG,001,103024,
AFNE01.JPG,AFNE01.JPG,AFNE01.JPG,AFNE01.JPG,AFNE01.JPG,AFNE01.JPG,4,0,40,9,,,,,,,,,,,,,,,,,,,,,,,AMNE07.jpg,AMSA05.jpg,AMSA03.jpg,AMNE08.jpg,AMNE07.jpg,MN,1,num_8,32,num_6,1.31672427675,,,2018_Feb_05_1136,60.0032139754,MAFE4ImagesEEG,001,103024,
AFNE01.JPG,AFNE01.JPG,AFNE01.JPG,AFNE01.JPG,AFNE01.JPG,AFNE01.JPG,4,1,41,8,,,,,,,,,,,,,,,,,,,,,,,AMNE10.jpg,AMNE07.jpg,AMSA07.jpg,AMSA13.jpg,AMNE07.jpg,MN,1,num_6,16,num_6,1.48347631353,,,2018_Feb_05_1136,60.0032139754,MAFE4ImagesEEG,001,103024,
AFNE01.JPG,AFNE01.JPG,AFNE01.JPG,AFNE01.JPG,AFNE01.JPG,AFNE01.JPG,4,2,42,2,,,,,,,,,,,,,,,,,,,,,,,AMNE19.jpg,AMSA12.jpg,AMSA16.jpg,AMNE09.jpg,AMSA16.jpg,MS,2,num_2,32,num_8,2.11664806912,,,2018_Feb_05_1136,60.0032139754,MAFE4ImagesEEG,001,103024,
AFNE01.JPG,AFNE01.JPG,AFNE01.JPG,AFNE01.JPG,AFNE01.JPG,AFNE01.JPG,4,3,43,4,,,,,,,,,,,,,,,,,,,,,,,AMNE20.jpg,AMSA11.jpg,AMSA12.jpg,AMNE16.jpg,AMSA11.jpg,MS,2,num_6,32,num_2,2.81660768809,,,2018_Feb_05_1136,60.0032139754,MAFE4ImagesEEG,001,103024,
AFNE01.JPG,AFNE01.JPG,AFNE01.JPG,AFNE01.JPG,AFNE01.JPG,AFNE01.JPG,4,4,44,0,,,,,,,,,,,,,,,,,,,,,,,AMSA03.jpg,AMNE12.jpg,AMNE10.jpg,AMSA09.jpg,AMSA09.jpg,MS,2,num_4,16,num_4,1.31674704922,,,2018_Feb_05_1136,60.0032139754,MAFE4ImagesEEG,001,103024,
AFNE01.JPG,AFNE01.JPG,AFNE01.JPG,AFNE01.JPG,AFNE01.JPG,AFNE01.JPG,4,5,45,5,,,,,,,,,,,,,,,,,,,,,,,AMNE01.jpg,AMSA14.jpg,AMSA20.jpg,AMNE04.jpg,AMNE01.jpg,MN,1,num_8,16,num_8,1.55006467714,,,2018_Feb_05_1136,60.0032139754,MAFE4ImagesEEG,001,103024,
AFNE01.JPG,AFNE01.JPG,AFNE01.JPG,AFNE01.JPG,AFNE01.JPG,AFNE01.JPG,4,6,46,1,,,,,,,,,,,,,,,,,,,,,,,AMSA01.jpg,AMNE05.jpg,AMSA14.jpg,AMNE01.jpg,AMNE01.jpg,MN,1,num_4,16,num_4,0.86671358021,,,2018_Feb_05_1136,60.0032139754,MAFE4ImagesEEG,001,103024,
AFNE01.JPG,AFNE01.JPG,AFNE01.JPG,AFNE01.JPG,AFNE01.JPG,AFNE01.JPG,4,7,47,6,,,,,,,,,,,,,,,,,,,,,,,AMSA03.jpg,AMSA05.jpg,AMNE13.jpg,AMNE02.jpg,AMSA03.jpg,MS,2,num_8,16,num_8,0.850257088547,,,2018_Feb_05_1136,60.0032139754,MAFE4ImagesEEG,001,103024,
AFNE01.JPG,AFNE01.JPG,AFNE01.JPG,AFNE01.JPG,AFNE01.JPG,AFNE01.JPG,4,8,48,7,,,,,,,,,,,,,,,,,,,,,,,AMNE18.jpg,AMSA10.jpg,AMNE04.jpg,AMSA06.jpg,AMNE04.jpg,MN,1,num_2,32,num_4,0.816767416196,,,2018_Feb_05_1136,60.0032139754,MAFE4ImagesEEG,001,103024,
AFNE01.JPG,AFNE01.JPG,AFNE01.JPG,AFNE01.JPG,AFNE01.JPG,AFNE01.JPG,4,9,49,3,,,,,,,,,,,,,,,,,,,,,,,AMNE17.jpg,AMSA13.jpg,AMSA05.jpg,AMNE18.jpg,AMNE18.jpg,MN,1,num_4,32,num_8,1.23344816873,,,2018_Feb_05_1136,60.0032139754,MAFE4ImagesEEG,001,103024,
AFNE01.JPG,AFNE01.JPG,AFNE01.JPG,AFNE01.JPG,AFNE01.JPG,AFNE01.JPG,5,0,50,2,,,,,,,,,,,,,,,,,,,,,,,AMNE07.jpg,AMSA17.jpg,AMSA11.jpg,AMNE04.jpg,AMNE07.jpg,MN,1,num_8,32,num_6,0.833448746009,,,2018_Feb_05_1136,60.0032139754,MAFE4ImagesEEG,001,103024,
AFNE01.JPG,AFNE01.JPG,AFNE01.JPG,AFNE01.JPG,AFNE01.JPG,AFNE01.JPG,5,1,51,0,,,,,,,,,,,,,,,,,,,,,,,AMNE06.jpg,AMSA08.jpg,AMSA12.jpg,AMNE07.jpg,AMNE06.jpg,MN,1,num_8,16,num_8,2.71665313677,,,2018_Feb_05_1136,60.0032139754,MAFE4ImagesEEG,001,103024,
AFNE01.JPG,AFNE01.JPG,AFNE01.JPG,AFNE01.JPG,AFNE01.JPG,AFNE01.JPG,5,2,52,4,,,,,,,,,,,,,,,,,,,,,,,AMNE15.jpg,AMNE12.jpg,AMSA09.jpg,AMSA14.jpg,AMNE12.jpg,MN,1,num_6,16,num_6,3.54993028729,,,2018_Feb_05_1136,60.0032139754,MAFE4ImagesEEG,001,103024,
AFNE01.JPG,AFNE01.JPG,AFNE01.JPG,AFNE01.JPG,AFNE01.JPG,AFNE01.JPG,5,3,53,7,,,,,,,,,,,,,,,,,,,,,,,AMSA06.jpg,AMNE13.jpg,AMSA03.jpg,AMNE04.jpg,AMNE04.jpg,MN,1,num_4,16,num_4,1.33343351085,,,2018_Feb_05_1136,60.0032139754,MAFE4ImagesEEG,001,103024,
AFNE01.JPG,AFNE01.JPG,AFNE01.JPG,AFNE01.JPG,AFNE01.JPG,AFNE01.JPG,5,4,54,1,,,,,,,,,,,,,,,,,,,,,,,AMSA02.jpg,AMNE07.jpg,AMSA05.jpg,AMNE19.jpg,AMNE07.jpg,MN,1,num_6,32,num_8,2.25001371163,,,2018_Feb_05_1136,60.0032139754,MAFE4ImagesEEG,001,103024,
AFNE01.JPG,AFNE01.JPG,AFNE01.JPG,AFNE01.JPG,AFNE01.JPG,AFNE01.JPG,5,5,55,6,,,,,,,,,,,,,,,,,,,,,,,AMSA17.jpg,AMNE15.jpg,AMSA03.jpg,AMNE13.jpg,AMNE15.jpg,MN,1,num_6,16,num_6,1.41672629735,,,2018_Feb_05_1136,60.0032139754,MAFE4ImagesEEG,001,103024,
AFNE01.JPG,AFNE01.JPG,AFNE01.JPG,AFNE01.JPG,AFNE01.JPG,AFNE01.JPG,5,6,56,3,,,,,,,,,,,,,,,,,,,,,,,AMNE04.jpg,AMSA16.jpg,AMSA11.jpg,AMNE19.jpg,AMSA16.jpg,MS,2,num_6,32,num_2,1.25006695429,,,2018_Feb_05_1136,60.0032139754,MAFE4ImagesEEG,001,103024,
AFNE01.JPG,AFNE01.JPG,AFNE01.JPG,AFNE01.JPG,AFNE01.JPG,AFNE01.JPG,5,7,57,5,,,,,,,,,,,,,,,,,,,,,,,AMNE07.jpg,AMSA02.jpg,AMSA18.jpg,AMNE13.jpg,AMSA02.jpg,MS,2,num_6,16,num_6,0.933444351889,,,2018_Feb_05_1136,60.0032139754,MAFE4ImagesEEG,001,103024,
AFNE01.JPG,AFNE01.JPG,AFNE01.JPG,AFNE01.JPG,AFNE01.JPG,AFNE01.JPG,5,8,58,9,,,,,,,,,,,,,,,,,,,,,,,AMNE05.jpg,AMSA07.jpg,AMSA05.jpg,AMNE06.jpg,AMSA05.jpg,MS,2,num_2,16,num_2,1.2834536694,,,2018_Feb_05_1136,60.0032139754,MAFE4ImagesEEG,001,103024,
AFNE01.JPG,AFNE01.JPG,AFNE01.JPG,AFNE01.JPG,AFNE01.JPG,AFNE01.JPG,5,9,59,8,,,,,,,,,,,,,,,,,,,,,,,AMNE07.jpg,AMSA08.jpg,AMNE15.jpg,AMSA06.jpg,AMNE07.jpg,MN,1,num_8,16,num_8,1.46671864786,,,2018_Feb_05_1136,60.0032139754,MAFE4ImagesEEG,001,103024,
,,,,,,,,,,,,,,,,,,,,,,,,,,,,,,,,,,,,,,,,,,,space,17.6826008877,2018_Feb_05_1136,60.0032139754,MAFE4ImagesEEG,001,103024,
AFNE01.JPG,AFNE01.JPG,AFNE01.JPG,AFNE01.JPG,AFNE01.JPG,AFNE01.JPG,,,,,0,0,0,7,,,,,,,,,,,,,,,,,,,AFSA13.jpg,AFNE09.jpg,AFNE16.jpg,AFSA12.jpg,AFSA13.jpg,FS,4,num_8,16,num_8,0.950091041857,,,2018_Feb_05_1136,60.0032139754,MAFE4ImagesEEG,001,103024,
AFNE01.JPG,AFNE01.JPG,AFNE01.JPG,AFNE01.JPG,AFNE01.JPG,AFNE01.JPG,,,,,0,1,1,4,,,,,,,,,,,,,,,,,,,AFNE18.jpg,AFSA16.jpg,AFNE17.jpg,AFSA09.jpg,AFNE18.jpg,FN,3,num_8,32,num_2,1.13342241326,,,2018_Feb_05_1136,60.0032139754,MAFE4ImagesEEG,001,103024,
AFNE01.JPG,AFNE01.JPG,AFNE01.JPG,AFNE01.JPG,AFNE01.JPG,AFNE01.JPG,,,,,0,2,2,2,,,,,,,,,,,,,,,,,,,AFNE16.jpg,AFSA12.jpg,AFSA06.jpg,AFNE02.jpg,AFNE02.jpg,FN,3,num_4,16,num_4,1.2835242321,,,2018_Feb_05_1136,60.0032139754,MAFE4ImagesEEG,001,103024,
AFNE01.JPG,AFNE01.JPG,AFNE01.JPG,AFNE01.JPG,AFNE01.JPG,AFNE01.JPG,,,,,0,3,3,5,,,,,,,,,,,,,,,,,,,AFNE05.jpg,AFSA01.jpg,AFSA07.jpg,AFNE06.jpg,AFNE06.jpg,FN,3,num_4,32,num_2,2.11667629413,,,2018_Feb_05_1136,60.0032139754,MAFE4ImagesEEG,001,103024,
AFNE01.JPG,AFNE01.JPG,AFNE01.JPG,AFNE01.JPG,AFNE01.JPG,AFNE01.JPG,,,,,0,4,4,3,,,,,,,,,,,,,,,,,,,AFSA12.jpg,AFSA10.jpg,AFNE10.jpg,AFNE07.jpg,AFNE10.jpg,FN,3,num_2,32,num_6,2.44975602976,,,2018_Feb_05_1136,60.0032139754,MAFE4ImagesEEG,001,103024,
AFNE01.JPG,AFNE01.JPG,AFNE01.JPG,AFNE01.JPG,AFNE01.JPG,AFNE01.JPG,,,,,0,5,5,9,,,,,,,,,,,,,,,,,,,AFNE07.jpg,AFSA17.jpg,AFSA10.jpg,AFNE01.jpg,AFNE07.jpg,FN,3,num_8,48,None,,,,2018_Feb_05_1136,60.0032139754,MAFE4ImagesEEG,001,103024,
AFNE01.JPG,AFNE01.JPG,AFNE01.JPG,AFNE01.JPG,AFNE01.JPG,AFNE01.JPG,,,,,0,6,6,6,,,,,,,,,,,,,,,,,,,AFNE10.jpg,AFNE14.jpg,AFSA16.jpg,AFSA07.jpg,AFSA07.jpg,FS,4,num_4,32,num_8,1.03346882435,,,2018_Feb_05_1136,60.0032139754,MAFE4ImagesEEG,001,103024,
AFNE01.JPG,AFNE01.JPG,AFNE01.JPG,AFNE01.JPG,AFNE01.JPG,AFNE01.JPG,,,,,0,7,7,0,,,,,,,,,,,,,,,,,,,AFNE07.jpg,AFSA09.jpg,AFNE20.jpg,AFSA02.jpg,AFNE20.jpg,FN,3,num_2,16,num_2,1.26675501966,,,2018_Feb_05_1136,60.0032139754,MAFE4ImagesEEG,001,103024,
AFNE01.JPG,AFNE01.JPG,AFNE01.JPG,AFNE01.JPG,AFNE01.JPG,AFNE01.JPG,,,,,0,8,8,8,,,,,,,,,,,,,,,,,,,AFSA16.jpg,AFNE13.jpg,AFSA03.jpg,AFNE10.jpg,AFSA16.jpg,FS,4,num_8,16,num_8,1.116734348,,,2018_Feb_05_1136,60.0032139754,MAFE4ImagesEEG,001,103024,
AFNE01.JPG,AFNE01.JPG,AFNE01.JPG,AFNE01.JPG,AFNE01.JPG,AFNE01.JPG,,,,,0,9,9,1,,,,,,,,,,,,,,,,,,,AFSA02.jpg,AFSA04.jpg,AFNE03.jpg,AFNE04.jpg,AFSA04.jpg,FS,4,num_6,32,num_4,1.23345009319,,,2018_Feb_05_1136,60.0032139754,MAFE4ImagesEEG,001,103024,
AFNE01.JPG,AFNE01.JPG,AFNE01.JPG,AFNE01.JPG,AFNE01.JPG,AFNE01.JPG,,,,,1,0,10,2,,,,,,,,,,,,,,,,,,,AFNE05.jpg,AFSA20.jpg,AFSA01.jpg,AFNE03.jpg,AFSA01.jpg,FS,4,num_2,32,num_6,1.68339984922,,,2018_Feb_05_1136,60.0032139754,MAFE4ImagesEEG,001,103024,
AFNE01.JPG,AFNE01.JPG,AFNE01.JPG,AFNE01.JPG,AFNE01.JPG,AFNE01.JPG,,,,,1,1,11,5,,,,,,,,,,,,,,,,,,,AFNE15.jpg,AFSA03.jpg,AFNE13.jpg,AFSA06.jpg,AFSA06.jpg,FS,4,num_4,32,num_2,1.35008469119,,,2018_Feb_05_1136,60.0032139754,MAFE4ImagesEEG,001,103024,
AFNE01.JPG,AFNE01.JPG,AFNE01.JPG,AFNE01.JPG,AFNE01.JPG,AFNE01.JPG,,,,,1,2,12,9,,,,,,,,,,,,,,,,,,,AFSA15.jpg,AFNE16.jpg,AFSA17.jpg,AFNE03.jpg,AFSA17.jpg,FS,4,num_2,32,num_6,1.65001666232,,,2018_Feb_05_1136,60.0032139754,MAFE4ImagesEEG,001,103024,
AFNE01.JPG,AFNE01.JPG,AFNE01.JPG,AFNE01.JPG,AFNE01.JPG,AFNE01.JPG,,,,,1,3,13,0,,,,,,,,,,,,,,,,,,,AFSA05.jpg,AFNE15.jpg,AFNE11.jpg,AFSA01.jpg,AFNE15.jpg,FN,3,num_6,32,num_2,4.46616954217,,,2018_Feb_05_1136,60.0032139754,MAFE4ImagesEEG,001,103024,
AFNE01.JPG,AFNE01.JPG,AFNE01.JPG,AFNE01.JPG,AFNE01.JPG,AFNE01.JPG,,,,,1,4,14,8,,,,,,,,,,,,,,,,,,,AFSA20.jpg,AFNE20.jpg,AFNE08.jpg,AFSA07.jpg,AFSA07.jpg,FS,4,num_4,32,num_6,1.31673678558,,,2018_Feb_05_1136,60.0032139754,MAFE4ImagesEEG,001,103024,
AFNE01.JPG,AFNE01.JPG,AFNE01.JPG,AFNE01.JPG,AFNE01.JPG,AFNE01.JPG,,,,,1,5,15,3,,,,,,,,,,,,,,,,,,,AFNE05.jpg,AFSA20.jpg,AFSA10.jpg,AFNE09.jpg,AFSA20.jpg,FS,4,num_6,32,num_4,1.81674079492,,,2018_Feb_05_1136,60.0032139754,MAFE4ImagesEEG,001,103024,
AFNE01.JPG,AFNE01.JPG,AFNE01.JPG,AFNE01.JPG,AFNE01.JPG,AFNE01.JPG,,,,,1,6,16,7,,,,,,,,,,,,,,,,,,,AFSA12.jpg,AFSA11.jpg,AFNE16.jpg,AFNE05.jpg,AFSA11.jpg,FS,4,num_6,16,num_6,1.86667412915,,,2018_Feb_05_1136,60.0032139754,MAFE4ImagesEEG,001,103024,
AFNE01.JPG,AFNE01.JPG,AFNE01.JPG,AFNE01.JPG,AFNE01.JPG,AFNE01.JPG,,,,,1,7,17,1,,,,,,,,,,,,,,,,,,,AFNE09.jpg,AFSA12.jpg,AFSA09.jpg,AFNE13.jpg,AFNE13.jpg,FN,3,num_4,16,num_4,1.483393242,,,2018_Feb_05_1136,60.0032139754,MAFE4ImagesEEG,001,103024,
AFNE01.JPG,AFNE01.JPG,AFNE01.JPG,AFNE01.JPG,AFNE01.JPG,AFNE01.JPG,,,,,1,8,18,4,,,,,,,,,,,,,,,,,,,AFSA13.jpg,AFNE13.jpg,AFNE14.jpg,AFSA02.jpg,AFSA13.jpg,FS,4,num_8,16,num_8,1.23367268615,,,2018_Feb_05_1136,60.0032139754,MAFE4ImagesEEG,001,103024,
AFNE01.JPG,AFNE01.JPG,AFNE01.JPG,AFNE01.JPG,AFNE01.JPG,AFNE01.JPG,,,,,1,9,19,6,,,,,,,,,,,,,,,,,,,AFSA17.jpg,AFSA20.jpg,AFNE08.jpg,AFNE06.jpg,AFNE06.jpg,FN,3,num_4,32,num_8,3.93321502337,,,2018_Feb_05_1136,60.0032139754,MAFE4ImagesEEG,001,103024,
AFNE01.JPG,AFNE01.JPG,AFNE01.JPG,AFNE01.JPG,AFNE01.JPG,AFNE01.JPG,,,,,2,0,20,4,,,,,,,,,,,,,,,,,,,AFSA17.jpg,AFSA02.jpg,AFNE16.jpg,AFNE15.jpg,AFSA02.jpg,FS,4,num_6,32,num_4,2.59994925908,,,2018_Feb_05_1136,60.0032139754,MAFE4ImagesEEG,001,103024,
AFNE01.JPG,AFNE01.JPG,AFNE01.JPG,AFNE01.JPG,AFNE01.JPG,AFNE01.JPG,,,,,2,1,21,9,,,,,,,,,,,,,,,,,,,AFNE10.jpg,AFSA18.jpg,AFSA04.jpg,AFNE14.jpg,AFNE14.jpg,FN,3,num_4,32,num_8,1.73342106619,,,2018_Feb_05_1136,60.0032139754,MAFE4ImagesEEG,001,103024,
AFNE01.JPG,AFNE01.JPG,AFNE01.JPG,AFNE01.JPG,AFNE01.JPG,AFNE01.JPG,,,,,2,2,22,2,,,,,,,,,,,,,,,,,,,AFNE12.jpg,AFSA03.jpg,AFNE06.jpg,AFSA18.jpg,AFSA03.jpg,FS,4,num_6,16,num_6,2.38305155851,,,2018_Feb_05_1136,60.0032139754,MAFE4ImagesEEG,001,103024,
AFNE01.JPG,AFNE01.JPG,AFNE01.JPG,AFNE01.JPG,AFNE01.JPG,AFNE01.JPG,,,,,2,3,23,0,,,,,,,,,,,,,,,,,,,AFSA15.jpg,AFSA02.jpg,AFNE11.jpg,AFNE10.jpg,AFNE10.jpg,FN,3,num_4,32,num_8,3.24996367621,,,2018_Feb_05_1136,60.0032139754,MAFE4ImagesEEG,001,103024,
AFNE01.JPG,AFNE01.JPG,AFNE01.JPG,AFNE01.JPG,AFNE01.JPG,AFNE01.JPG,,,,,2,4,24,1,,,,,,,,,,,,,,,,,,,AFNE14.jpg,AFSA07.jpg,AFSA16.jpg,AFNE01.jpg,AFSA16.jpg,FS,4,num_2,32,num_4,1.78341020923,,,2018_Feb_05_1136,60.0032139754,MAFE4ImagesEEG,001,103024,
AFNE01.JPG,AFNE01.JPG,AFNE01.JPG,AFNE01.JPG,AFNE01.JPG,AFNE01.JPG,,,,,2,5,25,3,,,,,,,,,,,,,,,,,,,AFSA02.jpg,AFNE18.jpg,AFNE16.jpg,AFSA01.jpg,AFNE16.jpg,FN,3,num_2,32,num_6,1.01673072367,,,2018_Feb_05_1136,60.0032139754,MAFE4ImagesEEG,001,103024,
AFNE01.JPG,AFNE01.JPG,AFNE01.JPG,AFNE01.JPG,AFNE01.JPG,AFNE01.JPG,,,,,2,6,26,8,,,,,,,,,,,,,,,,,,,AFNE04.jpg,AFSA13.jpg,AFSA07.jpg,AFNE20.jpg,AFNE20.jpg,FN,3,num_4,16,num_4,3.31650296669,,,2018_Feb_05_1136,60.0032139754,MAFE4ImagesEEG,001,103024,
AFNE01.JPG,AFNE01.JPG,AFNE01.JPG,AFNE01.JPG,AFNE01.JPG,AFNE01.JPG,,,,,2,7,27,6,,,,,,,,,,,,,,,,,,,AFSA17.jpg,AFSA11.jpg,AFNE07.jpg,AFNE13.jpg,AFSA17.jpg,FS,4,num_8,32,num_2,1.61671205668,,,2018_Feb_05_1136,60.0032139754,MAFE4ImagesEEG,001,103024,
AFNE01.JPG,AFNE01.JPG,AFNE01.JPG,AFNE01.JPG,AFNE01.JPG,AFNE01.JPG,,,,,2,8,28,7,,,,,,,,,,,,,,,,,,,AFNE19.jpg,AFSA04.jpg,AFSA01.jpg,AFNE15.jpg,AFNE19.jpg,FN,3,num_8,32,num_4,1.81670583435,,,2018_Feb_05_1136,60.0032139754,MAFE4ImagesEEG,001,103024,
AFNE01.JPG,AFNE01.JPG,AFNE01.JPG,AFNE01.JPG,AFNE01.JPG,AFNE01.JPG,,,,,2,9,29,5,,,,,,,,,,,,,,,,,,,AFNE06.jpg,AFSA17.jpg,AFNE08.jpg,AFSA06.jpg,AFSA06.jpg,FS,4,num_4,32,num_8,1.60004131123,,,2018_Feb_05_1136,60.0032139754,MAFE4ImagesEEG,001,103024,
AFNE01.JPG,AFNE01.JPG,AFNE01.JPG,AFNE01.JPG,AFNE01.JPG,AFNE01.JPG,,,,,3,0,30,4,,,,,,,,,,,,,,,,,,,AFNE15.jpg,AFSA17.jpg,AFSA08.jpg,AFNE07.jpg,AFNE07.jpg,FN,3,num_4,32,num_2,0.999955737963,,,2018_Feb_05_1136,60.0032139754,MAFE4ImagesEEG,001,103024,
AFNE01.JPG,AFNE01.JPG,AFNE01.JPG,AFNE01.JPG,AFNE01.JPG,AFNE01.JPG,,,,,3,1,31,6,,,,,,,,,,,,,,,,,,,AFNE20.jpg,AFSA03.jpg,AFSA05.jpg,AFNE10.jpg,AFSA03.jpg,FS,4,num_6,16,num_6,1.01646001963,,,2018_Feb_05_1136,60.0032139754,MAFE4ImagesEEG,001,103024,
AFNE01.JPG,AFNE01.JPG,AFNE01.JPG,AFNE01.JPG,AFNE01.JPG,AFNE01.JPG,,,,,3,2,32,7,,,,,,,,,,,,,,,,,,,AFNE18.jpg,AFSA01.jpg,AFNE01.jpg,AFSA19.jpg,AFSA19.jpg,FS,4,num_4,16,num_4,1.71672017139,,,2018_Feb_05_1136,60.0032139754,MAFE4ImagesEEG,001,103024,
AFNE01.JPG,AFNE01.JPG,AFNE01.JPG,AFNE01.JPG,AFNE01.JPG,AFNE01.JPG,,,,,3,3,33,1,,,,,,,,,,,,,,,,,,,AFNE02.jpg,AFSA18.jpg,AFNE05.jpg,AFSA01.jpg,AFSA18.jpg,FS,4,num_6,32,num_8,1.76669135294,,,2018_Feb_05_1136,60.0032139754,MAFE4ImagesEEG,001,103024,
AFNE01.JPG,AFNE01.JPG,AFNE01.JPG,AFNE01.JPG,AFNE01.JPG,AFNE01.JPG,,,,,3,4,34,8,,,,,,,,,,,,,,,,,,,AFSA17.jpg,AFSA15.jpg,AFNE18.jpg,AFNE03.jpg,AFSA15.jpg,FS,4,num_6,16,num_6,2.63356401969,,,2018_Feb_05_1136,60.0032139754,MAFE4ImagesEEG,001,103024,
AFNE01.JPG,AFNE01.JPG,AFNE01.JPG,AFNE01.JPG,AFNE01.JPG,AFNE01.JPG,,,,,3,5,35,5,,,,,,,,,,,,,,,,,,,AFNE01.jpg,AFSA07.jpg,AFNE12.jpg,AFSA19.jpg,AFSA07.jpg,FS,4,num_6,32,num_8,1.76672374748,,,2018_Feb_05_1136,60.0032139754,MAFE4ImagesEEG,001,103024,
AFNE01.JPG,AFNE01.JPG,AFNE01.JPG,AFNE01.JPG,AFNE01.JPG,AFNE01.JPG,,,,,3,6,36,2,,,,,,,,,,,,,,,,,,,AFNE13.jpg,AFSA03.jpg,AFNE14.jpg,AFSA12.jpg,AFNE13.jpg,FN,3,num_8,16,num_8,1.7500828309,,,2018_Feb_05_1136,60.0032139754,MAFE4ImagesEEG,001,103024,
AFNE01.JPG,AFNE01.JPG,AFNE01.JPG,AFNE01.JPG,AFNE01.JPG,AFNE01.JPG,,,,,3,7,37,0,,,,,,,,,,,,,,,,,,,AFSA13.jpg,AFSA02.jpg,AFNE01.jpg,AFNE05.jpg,AFSA13.jpg,FS,4,num_8,32,num_6,1.35006801272,,,2018_Feb_05_1136,60.0032139754,MAFE4ImagesEEG,001,103024,
AFNE01.JPG,AFNE01.JPG,AFNE01.JPG,AFNE01.JPG,AFNE01.JPG,AFNE01.JPG,,,,,3,8,38,9,,,,,,,,,,,,,,,,,,,AFSA02.jpg,AFNE17.jpg,AFSA09.jpg,AFNE07.jpg,AFNE07.jpg,FN,3,num_4,32,num_8,4.26656642498,,,2018_Feb_05_1136,60.0032139754,MAFE4ImagesEEG,001,103024,
AFNE01.JPG,AFNE01.JPG,AFNE01.JPG,AFNE01.JPG,AFNE01.JPG,AFNE01.JPG,,,,,3,9,39,3,,,,,,,,,,,,,,,,,,,AFNE01.jpg,AFSA17.jpg,AFSA05.jpg,AFNE04.jpg,AFSA05.jpg,FS,4,num_2,48,None,,,,2018_Feb_05_1136,60.0032139754,MAFE4ImagesEEG,001,103024,
AFNE01.JPG,AFNE01.JPG,AFNE01.JPG,AFNE01.JPG,AFNE01.JPG,AFNE01.JPG,,,,,4,0,40,7,,,,,,,,,,,,,,,,,,,AFNE14.jpg,AFNE15.jpg,AFSA15.jpg,AFSA08.jpg,AFSA15.jpg,FS,4,num_2,16,num_2,0.933431201614,,,2018_Feb_05_1136,60.0032139754,MAFE4ImagesEEG,001,103024,
AFNE01.JPG,AFNE01.JPG,AFNE01.JPG,AFNE01.JPG,AFNE01.JPG,AFNE01.JPG,,,,,4,1,41,3,,,,,,,,,,,,,,,,,,,AFSA10.jpg,AFNE05.jpg,AFNE17.jpg,AFSA04.jpg,AFSA10.jpg,FS,4,num_8,32,num_4,2.266828469,,,2018_Feb_05_1136,60.0032139754,MAFE4ImagesEEG,001,103024,
AFNE01.JPG,AFNE01.JPG,AFNE01.JPG,AFNE01.JPG,AFNE01.JPG,AFNE01.JPG,,,,,4,2,42,5,,,,,,,,,,,,,,,,,,,AFNE03.jpg,AFSA13.jpg,AFNE06.jpg,AFSA17.jpg,AFNE03.jpg,FN,3,num_8,32,num_6,4.81652525812,,,2018_Feb_05_1136,60.0032139754,MAFE4ImagesEEG,001,103024,
AFNE01.JPG,AFNE01.JPG,AFNE01.JPG,AFNE01.JPG,AFNE01.JPG,AFNE01.JPG,,,,,4,3,43,1,,,,,,,,,,,,,,,,,,,AFSA10.jpg,AFNE18.jpg,AFSA03.jpg,AFNE16.jpg,AFSA10.jpg,FS,4,num_8,32,num_2,1.16675011232,,,2018_Feb_05_1136,60.0032139754,MAFE4ImagesEEG,001,103024,
AFNE01.JPG,AFNE01.JPG,AFNE01.JPG,AFNE01.JPG,AFNE01.JPG,AFNE01.JPG,,,,,4,4,44,2,,,,,,,,,,,,,,,,,,,AFSA16.jpg,AFNE16.jpg,AFNE12.jpg,AFSA09.jpg,AFSA09.jpg,FS,4,num_4,32,num_2,1.20009833865,,,2018_Feb_05_1136,60.0032139754,MAFE4ImagesEEG,001,103024,
AFNE01.JPG,AFNE01.JPG,AFNE01.JPG,AFNE01.JPG,AFNE01.JPG,AFNE01.JPG,,,,,4,5,45,4,,,,,,,,,,,,,,,,,,,AFSA18.jpg,AFNE15.jpg,AFSA02.jpg,AFNE02.jpg,AFSA02.jpg,FS,4,num_2,48,None,,,,2018_Feb_05_1136,60.0032139754,MAFE4ImagesEEG,001,103024,
AFNE01.JPG,AFNE01.JPG,AFNE01.JPG,AFNE01.JPG,AFNE01.JPG,AFNE01.JPG,,,,,4,6,46,6,,,,,,,,,,,,,,,,,,,AFNE07.jpg,AFSA02.jpg,AFSA12.jpg,AFNE11.jpg,AFNE11.jpg,FN,3,num_4,32,num_6,0.783454471268,,,2018_Feb_05_1136,60.0032139754,MAFE4ImagesEEG,001,103024,
AFNE01.JPG,AFNE01.JPG,AFNE01.JPG,AFNE01.JPG,AFNE01.JPG,AFNE01.JPG,,,,,4,7,47,0,,,,,,,,,,,,,,,,,,,AFNE11.jpg,AFSA02.jpg,AFSA14.jpg,AFNE02.jpg,AFSA14.jpg,FS,4,num_2,16,num_2,1.15008642327,,,2018_Feb_05_1136,60.0032139754,MAFE4ImagesEEG,001,103024,
AFNE01.JPG,AFNE01.JPG,AFNE01.JPG,AFNE01.JPG,AFNE01.JPG,AFNE01.JPG,,,,,4,8,48,8,,,,,,,,,,,,,,,,,,,AFSA08.jpg,AFSA05.jpg,AFNE01.jpg,AFNE09.jpg,AFNE01.jpg,FN,3,num_2,32,num_8,1.10005590494,,,2018_Feb_05_1136,60.0032139754,MAFE4ImagesEEG,001,103024,
AFNE01.JPG,AFNE01.JPG,AFNE01.JPG,AFNE01.JPG,AFNE01.JPG,AFNE01.JPG,,,,,4,9,49,9,,,,,,,,,,,,,,,,,,,AFNE04.jpg,AFSA18.jpg,AFSA02.jpg,AFNE02.jpg,AFNE04.jpg,FN,3,num_8,32,num_2,1.6499127429,,,2018_Feb_05_1136,60.0032139754,MAFE4ImagesEEG,001,103024,
AFNE01.JPG,AFNE01.JPG,AFNE01.JPG,AFNE01.JPG,AFNE01.JPG,AFNE01.JPG,,,,,5,0,50,5,,,,,,,,,,,,,,,,,,,AFSA12.jpg,AFSA01.jpg,AFNE05.jpg,AFNE20.jpg,AFNE05.jpg,FN,3,num_2,32,num_4,1.13347918424,,,2018_Feb_05_1136,60.0032139754,MAFE4ImagesEEG,001,103024,
AFNE01.JPG,AFNE01.JPG,AFNE01.JPG,AFNE01.JPG,AFNE01.JPG,AFNE01.JPG,,,,,5,1,51,7,,,,,,,,,,,,,,,,,,,AFSA08.jpg,AFNE08.jpg,AFSA11.jpg,AFNE07.jpg,AFNE07.jpg,FN,3,num_4,32,num_2,0.95010579587,,,2018_Feb_05_1136,60.0032139754,MAFE4ImagesEEG,001,103024,
AFNE01.JPG,AFNE01.JPG,AFNE01.JPG,AFNE01.JPG,AFNE01.JPG,AFNE01.JPG,,,,,5,2,52,0,,,,,,,,,,,,,,,,,,,AFSA06.jpg,AFSA05.jpg,AFNE12.jpg,AFNE19.jpg,AFSA05.jpg,FS,4,num_6,16,num_6,1.05010813731,,,2018_Feb_05_1136,60.0032139754,MAFE4ImagesEEG,001,103024,
AFNE01.JPG,AFNE01.JPG,AFNE01.JPG,AFNE01.JPG,AFNE01.JPG,AFNE01.JPG,,,,,5,3,53,9,,,,,,,,,,,,,,,,,,,AFSA16.jpg,AFSA12.jpg,AFNE13.jpg,AFNE02.jpg,AFNE13.jpg,FN,3,num_2,32,num_8,2.08347432502,,,2018_Feb_05_1136,60.0032139754,MAFE4ImagesEEG,001,103024,
AFNE01.JPG,AFNE01.JPG,AFNE01.JPG,AFNE01.JPG,AFNE01.JPG,AFNE01.JPG,,,,,5,4,54,3,,,,,,,,,,,,,,,,,,,AFNE15.jpg,AFSA02.jpg,AFSA08.jpg,AFNE10.jpg,AFNE15.jpg,FN,3,num_8,32,num_4,1.3168807975,,,2018_Feb_05_1136,60.0032139754,MAFE4ImagesEEG,001,103024,
AFNE01.JPG,AFNE01.JPG,AFNE01.JPG,AFNE01.JPG,AFNE01.JPG,AFNE01.JPG,,,,,5,5,55,6,,,,,,,,,,,,,,,,,,,AFNE03.jpg,AFNE11.jpg,AFSA15.jpg,AFSA09.jpg,AFSA15.jpg,FS,4,num_2,16,num_2,3.96654657123,,,2018_Feb_05_1136,60.0032139754,MAFE4ImagesEEG,001,103024,
AFNE01.JPG,AFNE01.JPG,AFNE01.JPG,AFNE01.JPG,AFNE01.JPG,AFNE01.JPG,,,,,5,6,56,1,,,,,,,,,,,,,,,,,,,AFNE14.jpg,AFSA09.jpg,AFNE08.jpg,AFSA20.jpg,AFSA09.jpg,FS,4,num_6,32,num_2,2.31665499718,,,2018_Feb_05_1136,60.0032139754,MAFE4ImagesEEG,001,103024,
AFNE01.JPG,AFNE01.JPG,AFNE01.JPG,AFNE01.JPG,AFNE01.JPG,AFNE01.JPG,,,,,5,7,57,4,,,,,,,,,,,,,,,,,,,AFNE17.jpg,AFSA08.jpg,AFNE19.jpg,AFSA07.jpg,AFSA08.jpg,FS,4,num_6,16,num_6,4.41646425345,,,2018_Feb_05_1136,60.0032139754,MAFE4ImagesEEG,001,103024,
AFNE01.JPG,AFNE01.JPG,AFNE01.JPG,AFNE01.JPG,AFNE01.JPG,AFNE01.JPG,,,,,5,8,58,2,,,,,,,,,,,,,,,,,,,AFNE04.jpg,AFSA01.jpg,AFSA13.jpg,AFNE13.jpg,AFSA01.jpg,FS,4,num_6,32,num_2,1.31674159679,,,2018_Feb_05_1136,60.0032139754,MAFE4ImagesEEG,001,103024,
AFNE01.JPG,AFNE01.JPG,AFNE01.JPG,AFNE01.JPG,AFNE01.JPG,AFNE01.JPG,,,,,5,9,59,8,,,,,,,,,,,,,,,,,,,AFSA06.jpg,AFNE15.jpg,AFSA05.jpg,AFNE13.jpg,AFNE13.jpg,FN,3,num_4,32,num_6,1.10008380911,,,2018_Feb_05_1136,60.0032139754,MAFE4ImagesEEG,001,103024,
,,,,,,,,,,,,,,,,,,,,,,,,,,,,,,,,,,,,,,,,,,,space,24.3985224182,2018_Feb_05_1136,60.0032139754,MAFE4ImagesEEG,001,103024,
AFNE01.JPG,AFNE01.JPG,AFNE01.JPG,AFNE01.JPG,AFNE01.JPG,AFNE01.JPG,,,,,,,,,0,0,0,4,,,,,,,,,,,,,,,AMNE02.jpg,AMSA15.jpg,AMNE12.jpg,AMSA11.jpg,AMNE02.jpg,MN,1,num_8,32,num_4,1.56670463155,,,2018_Feb_05_1136,60.0032139754,MAFE4ImagesEEG,001,103024,
AFNE01.JPG,AFNE01.JPG,AFNE01.JPG,AFNE01.JPG,AFNE01.JPG,AFNE01.JPG,,,,,,,,,0,1,1,9,,,,,,,,,,,,,,,AMSA18.jpg,AMNE16.jpg,AMNE15.jpg,AMSA09.jpg,AMNE16.jpg,MN,1,num_6,32,num_2,1.10009599722,,,2018_Feb_05_1136,60.0032139754,MAFE4ImagesEEG,001,103024,
AFNE01.JPG,AFNE01.JPG,AFNE01.JPG,AFNE01.JPG,AFNE01.JPG,AFNE01.JPG,,,,,,,,,0,2,2,3,,,,,,,,,,,,,,,AMNE18.jpg,AMNE20.jpg,AMSA03.jpg,AMSA12.jpg,AMSA03.jpg,MS,2,num_2,32,num_4,1.15011272382,,,2018_Feb_05_1136,60.0032139754,MAFE4ImagesEEG,001,103024,
AFNE01.JPG,AFNE01.JPG,AFNE01.JPG,AFNE01.JPG,AFNE01.JPG,AFNE01.JPG,,,,,,,,,0,3,3,1,,,,,,,,,,,,,,,AMSA13.jpg,AMNE13.jpg,AMNE10.jpg,AMSA01.jpg,AMNE13.jpg,MN,1,num_6,32,num_8,0.766843704041,,,2018_Feb_05_1136,60.0032139754,MAFE4ImagesEEG,001,103024,
AFNE01.JPG,AFNE01.JPG,AFNE01.JPG,AFNE01.JPG,AFNE01.JPG,AFNE01.JPG,,,,,,,,,0,4,4,7,,,,,,,,,,,,,,,AMSA17.jpg,AMNE06.jpg,AMSA20.jpg,AMNE10.jpg,AMNE10.jpg,MN,1,num_4,32,num_2,0.966770126484,,,2018_Feb_05_1136,60.0032139754,MAFE4ImagesEEG,001,103024,
AFNE01.JPG,AFNE01.JPG,AFNE01.JPG,AFNE01.JPG,AFNE01.JPG,AFNE01.JPG,,,,,,,,,0,5,5,0,,,,,,,,,,,,,,,AMSA11.jpg,AMNE09.jpg,AMNE10.jpg,AMSA17.jpg,AMSA17.jpg,MS,2,num_4,16,num_4,0.61682976794,,,2018_Feb_05_1136,60.0032139754,MAFE4ImagesEEG,001,103024,
AFNE01.JPG,AFNE01.JPG,AFNE01.JPG,AFNE01.JPG,AFNE01.JPG,AFNE01.JPG,,,,,,,,,0,6,6,5,,,,,,,,,,,,,,,AMSA05.jpg,AMNE04.jpg,AMSA19.jpg,AMNE09.jpg,AMNE04.jpg,MN,1,num_6,16,num_6,1.18367167586,,,2018_Feb_05_1136,60.0032139754,MAFE4ImagesEEG,001,103024,
AFNE01.JPG,AFNE01.JPG,AFNE01.JPG,AFNE01.JPG,AFNE01.JPG,AFNE01.JPG,,,,,,,,,0,7,7,8,,,,,,,,,,,,,,,AMNE13.jpg,AMNE20.jpg,AMSA08.jpg,AMSA20.jpg,AMSA20.jpg,MS,2,num_4,16,num_4,1.75007128424,,,2018_Feb_05_1136,60.0032139754,MAFE4ImagesEEG,001,103024,
AFNE01.JPG,AFNE01.JPG,AFNE01.JPG,AFNE01.JPG,AFNE01.JPG,AFNE01.JPG,,,,,,,,,0,8,8,2,,,,,,,,,,,,,,,AMNE11.jpg,AMSA08.jpg,AMSA17.jpg,AMNE20.jpg,AMSA08.jpg,MS,2,num_6,32,num_2,1.58337569761,,,2018_Feb_05_1136,60.0032139754,MAFE4ImagesEEG,001,103024,
AFNE01.JPG,AFNE01.JPG,AFNE01.JPG,AFNE01.JPG,AFNE01.JPG,AFNE01.JPG,,,,,,,,,0,9,9,6,,,,,,,,,,,,,,,AMSA03.jpg,AMSA19.jpg,AMNE17.jpg,AMNE19.jpg,AMNE17.jpg,MN,1,num_2,32,num_8,2.516620229,,,2018_Feb_05_1136,60.0032139754,MAFE4ImagesEEG,001,103024,
AFNE01.JPG,AFNE01.JPG,AFNE01.JPG,AFNE01.JPG,AFNE01.JPG,AFNE01.JPG,,,,,,,,,1,0,10,3,,,,,,,,,,,,,,,AMSA01.jpg,AMNE10.jpg,AMNE05.jpg,AMSA18.jpg,AMNE05.jpg,MN,1,num_2,32,num_8,1.18344106432,,,2018_Feb_05_1136,60.0032139754,MAFE4ImagesEEG,001,103024,
AFNE01.JPG,AFNE01.JPG,AFNE01.JPG,AFNE01.JPG,AFNE01.JPG,AFNE01.JPG,,,,,,,,,1,1,11,5,,,,,,,,,,,,,,,AMNE12.jpg,AMSA11.jpg,AMNE17.jpg,AMSA07.jpg,AMSA07.jpg,MS,2,num_4,16,num_4,1.63335906726,,,2018_Feb_05_1136,60.0032139754,MAFE4ImagesEEG,001,103024,
AFNE01.JPG,AFNE01.JPG,AFNE01.JPG,AFNE01.JPG,AFNE01.JPG,AFNE01.JPG,,,,,,,,,1,2,12,8,,,,,,,,,,,,,,,AMSA20.jpg,AMNE09.jpg,AMSA06.jpg,AMNE11.jpg,AMNE11.jpg,MN,1,num_4,32,num_8,2.68331613636,,,2018_Feb_05_1136,60.0032139754,MAFE4ImagesEEG,001,103024,
AFNE01.JPG,AFNE01.JPG,AFNE01.JPG,AFNE01.JPG,AFNE01.JPG,AFNE01.JPG,,,,,,,,,1,3,13,9,,,,,,,,,,,,,,,AMSA18.jpg,AMNE15.jpg,AMNE08.jpg,AMSA03.jpg,AMNE08.jpg,MN,1,num_2,16,num_2,1.18340065121,,,2018_Feb_05_1136,60.0032139754,MAFE4ImagesEEG,001,103024,
AFNE01.JPG,AFNE01.JPG,AFNE01.JPG,AFNE01.JPG,AFNE01.JPG,AFNE01.JPG,,,,,,,,,1,4,14,1,,,,,,,,,,,,,,,AMSA14.jpg,AMNE06.jpg,AMSA15.jpg,AMNE16.jpg,AMNE16.jpg,MN,1,num_4,32,num_6,0.933484444278,,,2018_Feb_05_1136,60.0032139754,MAFE4ImagesEEG,001,103024,
AFNE01.JPG,AFNE01.JPG,AFNE01.JPG,AFNE01.JPG,AFNE01.JPG,AFNE01.JPG,,,,,,,,,1,5,15,2,,,,,,,,,,,,,,,AMNE17.jpg,AMNE03.jpg,AMSA07.jpg,AMSA08.jpg,AMSA07.jpg,MS,2,num_2,32,num_6,1.46676900389,,,2018_Feb_05_1136,60.0032139754,MAFE4ImagesEEG,001,103024,
AFNE01.JPG,AFNE01.JPG,AFNE01.JPG,AFNE01.JPG,AFNE01.JPG,AFNE01.JPG,,,,,,,,,1,6,16,6,,,,,,,,,,,,,,,AMNE04.jpg,AMNE11.jpg,AMSA14.jpg,AMSA18.jpg,AMNE04.jpg,MN,1,num_8,32,num_4,2.88331472513,,,2018_Feb_05_1136,60.0032139754,MAFE4ImagesEEG,001,103024,
AFNE01.JPG,AFNE01.JPG,AFNE01.JPG,AFNE01.JPG,AFNE01.JPG,AFNE01.JPG,,,,,,,,,1,7,17,0,,,,,,,,,,,,,,,AMSA02.jpg,AMSA19.jpg,AMNE02.jpg,AMNE10.jpg,AMSA19.jpg,MS,2,num_6,32,num_8,1.01677723089,,,2018_Feb_05_1136,60.0032139754,MAFE4ImagesEEG,001,103024,
AFNE01.JPG,AFNE01.JPG,AFNE01.JPG,AFNE01.JPG,AFNE01.JPG,AFNE01.JPG,,,,,,,,,1,8,18,4,,,,,,,,,,,,,,,AMNE03.jpg,AMSA09.jpg,AMNE06.jpg,AMSA10.jpg,AMSA09.jpg,MS,2,num_6,16,num_6,0.766874815803,,,2018_Feb_05_1136,60.0032139754,MAFE4ImagesEEG,001,103024,
AFNE01.JPG,AFNE01.JPG,AFNE01.JPG,AFNE01.JPG,AFNE01.JPG,AFNE01.JPG,,,,,,,,,1,9,19,7,,,,,,,,,,,,,,,AMSA04.jpg,AMNE17.jpg,AMSA15.jpg,AMNE16.jpg,AMNE17.jpg,MN,1,num_6,16,num_6,1.18349591072,,,2018_Feb_05_1136,60.0032139754,MAFE4ImagesEEG,001,103024,
AFNE01.JPG,AFNE01.JPG,AFNE01.JPG,AFNE01.JPG,AFNE01.JPG,AFNE01.JPG,,,,,,,,,2,0,20,5,,,,,,,,,,,,,,,AMNE04.jpg,AMSA07.jpg,AMSA20.jpg,AMNE08.jpg,AMNE08.jpg,MN,1,num_4,32,num_8,2.033374527,,,2018_Feb_05_1136,60.0032139754,MAFE4ImagesEEG,001,103024,
AFNE01.JPG,AFNE01.JPG,AFNE01.JPG,AFNE01.JPG,AFNE01.JPG,AFNE01.JPG,,,,,,,,,2,1,21,1,,,,,,,,,,,,,,,AMNE08.jpg,AMSA11.jpg,AMNE19.jpg,AMSA04.jpg,AMNE19.jpg,MN,1,num_2,16,num_2,3.71652740694,,,2018_Feb_05_1136,60.0032139754,MAFE4ImagesEEG,001,103024,
AFNE01.JPG,AFNE01.JPG,AFNE01.JPG,AFNE01.JPG,AFNE01.JPG,AFNE01.JPG,,,,,,,,,2,2,22,9,,,,,,,,,,,,,,,AMNE20.jpg,AMSA13.jpg,AMNE07.jpg,AMSA10.jpg,AMSA13.jpg,MS,2,num_6,32,num_4,1.63308355235,,,2018_Feb_05_1136,60.0032139754,MAFE4ImagesEEG,001,103024,
AFNE01.JPG,AFNE01.JPG,AFNE01.JPG,AFNE01.JPG,AFNE01.JPG,AFNE01.JPG,,,,,,,,,2,3,23,3,,,,,,,,,,,,,,,AMSA10.jpg,AMNE01.jpg,AMSA08.jpg,AMNE03.jpg,AMNE03.jpg,MN,1,num_4,16,num_4,4.21668408811,,,2018_Feb_05_1136,60.0032139754,MAFE4ImagesEEG,001,103024,
AFNE01.JPG,AFNE01.JPG,AFNE01.JPG,AFNE01.JPG,AFNE01.JPG,AFNE01.JPG,,,,,,,,,2,4,24,8,,,,,,,,,,,,,,,AMSA03.jpg,AMSA17.jpg,AMNE17.jpg,AMNE01.jpg,AMSA17.jpg,MS,2,num_6,32,num_2,1.15012266673,,,2018_Feb_05_1136,60.0032139754,MAFE4ImagesEEG,001,103024,
AFNE01.JPG,AFNE01.JPG,AFNE01.JPG,AFNE01.JPG,AFNE01.JPG,AFNE01.JPG,,,,,,,,,2,5,25,0,,,,,,,,,,,,,,,AMNE07.jpg,AMSA04.jpg,AMSA11.jpg,AMNE13.jpg,AMNE13.jpg,MN,1,num_4,32,num_8,0.916748909513,,,2018_Feb_05_1136,60.0032139754,MAFE4ImagesEEG,001,103024,
AFNE01.JPG,AFNE01.JPG,AFNE01.JPG,AFNE01.JPG,AFNE01.JPG,AFNE01.JPG,,,,,,,,,2,6,26,6,,,,,,,,,,,,,,,AMSA04.jpg,AMNE20.jpg,AMSA02.jpg,AMNE18.jpg,AMSA04.jpg,MS,2,num_8,32,num_4,1.68348869414,,,2018_Feb_05_1136,60.0032139754,MAFE4ImagesEEG,001,103024,
AFNE01.JPG,AFNE01.JPG,AFNE01.JPG,AFNE01.JPG,AFNE01.JPG,AFNE01.JPG,,,,,,,,,2,7,27,2,,,,,,,,,,,,,,,AMNE05.jpg,AMNE01.jpg,AMSA05.jpg,AMSA15.jpg,AMNE01.jpg,MN,1,num_6,32,num_2,4.48318219569,,,2018_Feb_05_1136,60.0032139754,MAFE4ImagesEEG,001,103024,
AFNE01.JPG,AFNE01.JPG,AFNE01.JPG,AFNE01.JPG,AFNE01.JPG,AFNE01.JPG,,,,,,,,,2,8,28,7,,,,,,,,,,,,,,,AMNE09.jpg,AMNE18.jpg,AMSA16.jpg,AMSA20.jpg,AMNE09.jpg,MN,1,num_8,16,num_8,1.5667309321,,,2018_Feb_05_1136,60.0032139754,MAFE4ImagesEEG,001,103024,
AFNE01.JPG,AFNE01.JPG,AFNE01.JPG,AFNE01.JPG,AFNE01.JPG,AFNE01.JPG,,,,,,,,,2,9,29,4,,,,,,,,,,,,,,,AMSA14.jpg,AMSA09.jpg,AMNE06.jpg,AMNE13.jpg,AMNE06.jpg,MN,1,num_2,16,num_2,0.81680558424,,,2018_Feb_05_1136,60.0032139754,MAFE4ImagesEEG,001,103024,
AFNE01.JPG,AFNE01.JPG,AFNE01.JPG,AFNE01.JPG,AFNE01.JPG,AFNE01.JPG,,,,,,,,,3,0,30,3,,,,,,,,,,,,,,,AMNE08.jpg,AMSA18.jpg,AMSA12.jpg,AMNE20.jpg,AMSA12.jpg,MS,2,num_2,32,num_6,0.833571589086,,,2018_Feb_05_1136,60.0032139754,MAFE4ImagesEEG,001,103024,
AFNE01.JPG,AFNE01.JPG,AFNE01.JPG,AFNE01.JPG,AFNE01.JPG,AFNE01.JPG,,,,,,,,,3,1,31,1,,,,,,,,,,,,,,,AMSA16.jpg,AMNE02.jpg,AMSA09.jpg,AMNE01.jpg,AMSA09.jpg,MS,2,num_2,16,num_2,1.43340121245,,,2018_Feb_05_1136,60.0032139754,MAFE4ImagesEEG,001,103024,
AFNE01.JPG,AFNE01.JPG,AFNE01.JPG,AFNE01.JPG,AFNE01.JPG,AFNE01.JPG,,,,,,,,,3,2,32,6,,,,,,,,,,,,,,,AMSA13.jpg,AMNE18.jpg,AMNE13.jpg,AMSA17.jpg,AMNE18.jpg,MN,1,num_6,32,num_2,4.54983406549,,,2018_Feb_05_1136,60.0032139754,MAFE4ImagesEEG,001,103024,
AFNE01.JPG,AFNE01.JPG,AFNE01.JPG,AFNE01.JPG,AFNE01.JPG,AFNE01.JPG,,,,,,,,,3,3,33,7,,,,,,,,,,,,,,,AMNE11.jpg,AMSA17.jpg,AMSA16.jpg,AMNE15.jpg,AMSA16.jpg,MS,2,num_2,32,num_6,3.01663482259,,,2018_Feb_05_1136,60.0032139754,MAFE4ImagesEEG,001,103024,
AFNE01.JPG,AFNE01.JPG,AFNE01.JPG,AFNE01.JPG,AFNE01.JPG,AFNE01.JPG,,,,,,,,,3,4,34,9,,,,,,,,,,,,,,,AMNE13.jpg,AMNE07.jpg,AMSA08.jpg,AMSA17.jpg,AMSA08.jpg,MS,2,num_2,32,num_4,1.03329722874,,,2018_Feb_05_1136,60.0032139754,MAFE4ImagesEEG,001,103024,
AFNE01.JPG,AFNE01.JPG,AFNE01.JPG,AFNE01.JPG,AFNE01.JPG,AFNE01.JPG,,,,,,,,,3,5,35,8,,,,,,,,,,,,,,,AMSA11.jpg,AMSA01.jpg,AMNE07.jpg,AMNE03.jpg,AMNE03.jpg,MN,1,num_4,32,num_2,1.40010109707,,,2018_Feb_05_1136,60.0032139754,MAFE4ImagesEEG,001,103024,
AFNE01.JPG,AFNE01.JPG,AFNE01.JPG,AFNE01.JPG,AFNE01.JPG,AFNE01.JPG,,,,,,,,,3,6,36,5,,,,,,,,,,,,,,,AMNE15.jpg,AMNE07.jpg,AMSA10.jpg,AMSA20.jpg,AMSA20.jpg,MS,2,num_4,32,num_8,1.06674905389,,,2018_Feb_05_1136,60.0032139754,MAFE4ImagesEEG,001,103024,
AFNE01.JPG,AFNE01.JPG,AFNE01.JPG,AFNE01.JPG,AFNE01.JPG,AFNE01.JPG,,,,,,,,,3,7,37,2,,,,,,,,,,,,,,,AMNE05.jpg,AMSA16.jpg,AMNE08.jpg,AMSA10.jpg,AMNE08.jpg,MN,1,num_2,16,num_2,1.38340565469,,,2018_Feb_05_1136,60.0032139754,MAFE4ImagesEEG,001,103024,
AFNE01.JPG,AFNE01.JPG,AFNE01.JPG,AFNE01.JPG,AFNE01.JPG,AFNE01.JPG,,,,,,,,,3,8,38,4,,,,,,,,,,,,,,,AMNE04.jpg,AMSA02.jpg,AMNE06.jpg,AMSA04.jpg,AMNE04.jpg,MN,1,num_8,48,None,,,,2018_Feb_05_1136,60.0032139754,MAFE4ImagesEEG,001,103024,
AFNE01.JPG,AFNE01.JPG,AFNE01.JPG,AFNE01.JPG,AFNE01.JPG,AFNE01.JPG,,,,,,,,,3,9,39,0,,,,,,,,,,,,,,,AMNE11.jpg,AMSA02.jpg,AMSA17.jpg,AMNE02.jpg,AMNE11.jpg,MN,1,num_8,32,num_4,1.21681976086,,,2018_Feb_05_1136,60.0032139754,MAFE4ImagesEEG,001,103024,
AFNE01.JPG,AFNE01.JPG,AFNE01.JPG,AFNE01.JPG,AFNE01.JPG,AFNE01.JPG,,,,,,,,,4,0,40,1,,,,,,,,,,,,,,,AMNE02.jpg,AMSA05.jpg,AMNE03.jpg,AMSA17.jpg,AMNE02.jpg,MN,1,num_8,32,num_4,2.86634152255,,,2018_Feb_05_1136,60.0032139754,MAFE4ImagesEEG,001,103024,
AFNE01.JPG,AFNE01.JPG,AFNE01.JPG,AFNE01.JPG,AFNE01.JPG,AFNE01.JPG,,,,,,,,,4,1,41,8,,,,,,,,,,,,,,,AMNE07.jpg,AMNE06.jpg,AMSA03.jpg,AMSA05.jpg,AMNE06.jpg,MN,1,num_6,32,num_8,3.58323810052,,,2018_Feb_05_1136,60.0032139754,MAFE4ImagesEEG,001,103024,
AFNE01.JPG,AFNE01.JPG,AFNE01.JPG,AFNE01.JPG,AFNE01.JPG,AFNE01.JPG,,,,,,,,,4,2,42,9,,,,,,,,,,,,,,,AMNE16.jpg,AMNE08.jpg,AMSA07.jpg,AMSA10.jpg,AMSA07.jpg,MS,2,num_2,32,num_6,2.71684076928,,,2018_Feb_05_1136,60.0032139754,MAFE4ImagesEEG,001,103024,
AFNE01.JPG,AFNE01.JPG,AFNE01.JPG,AFNE01.JPG,AFNE01.JPG,AFNE01.JPG,,,,,,,,,4,3,43,0,,,,,,,,,,,,,,,AMSA15.jpg,AMNE09.jpg,AMNE06.jpg,AMSA17.jpg,AMSA17.jpg,MS,2,num_4,32,num_2,0.950255260337,,,2018_Feb_05_1136,60.0032139754,MAFE4ImagesEEG,001,103024,
AFNE01.JPG,AFNE01.JPG,AFNE01.JPG,AFNE01.JPG,AFNE01.JPG,AFNE01.JPG,,,,,,,,,4,4,44,5,,,,,,,,,,,,,,,AMNE02.jpg,AMSA10.jpg,AMNE16.jpg,AMSA09.jpg,AMSA09.jpg,MS,2,num_4,48,None,,,,2018_Feb_05_1136,60.0032139754,MAFE4ImagesEEG,001,103024,
AFNE01.JPG,AFNE01.JPG,AFNE01.JPG,AFNE01.JPG,AFNE01.JPG,AFNE01.JPG,,,,,,,,,4,5,45,3,,,,,,,,,,,,,,,AMNE10.jpg,AMSA18.jpg,AMNE02.jpg,AMSA15.jpg,AMSA15.jpg,MS,2,num_4,32,num_2,0.58347961714,,,2018_Feb_05_1136,60.0032139754,MAFE4ImagesEEG,001,103024,
AFNE01.JPG,AFNE01.JPG,AFNE01.JPG,AFNE01.JPG,AFNE01.JPG,AFNE01.JPG,,,,,,,,,4,6,46,4,,,,,,,,,,,,,,,AMNE18.jpg,AMSA04.jpg,AMSA10.jpg,AMNE06.jpg,AMSA10.jpg,MS,2,num_2,32,num_8,0.983481285046,,,2018_Feb_05_1136,60.0032139754,MAFE4ImagesEEG,001,103024,
AFNE01.JPG,AFNE01.JPG,AFNE01.JPG,AFNE01.JPG,AFNE01.JPG,AFNE01.JPG,,,,,,,,,4,7,47,2,,,,,,,,,,,,,,,AMNE02.jpg,AMSA02.jpg,AMNE15.jpg,AMSA11.jpg,AMNE15.jpg,MN,1,num_2,32,num_4,2.38347012328,,,2018_Feb_05_1136,60.0032139754,MAFE4ImagesEEG,001,103024,
AFNE01.JPG,AFNE01.JPG,AFNE01.JPG,AFNE01.JPG,AFNE01.JPG,AFNE01.JPG,,,,,,,,,4,8,48,7,,,,,,,,,,,,,,,AMSA18.jpg,AMSA13.jpg,AMNE07.jpg,AMNE19.jpg,AMNE19.jpg,MN,1,num_4,32,num_6,1.28348349815,,,2018_Feb_05_1136,60.0032139754,MAFE4ImagesEEG,001,103024,
AFNE01.JPG,AFNE01.JPG,AFNE01.JPG,AFNE01.JPG,AFNE01.JPG,AFNE01.JPG,,,,,,,,,4,9,49,6,,,,,,,,,,,,,,,AMNE17.jpg,AMSA02.jpg,AMNE16.jpg,AMSA19.jpg,AMSA19.jpg,MS,2,num_4,16,num_4,0.950173151097,,,2018_Feb_05_1136,60.0032139754,MAFE4ImagesEEG,001,103024,
AFNE01.JPG,AFNE01.JPG,AFNE01.JPG,AFNE01.JPG,AFNE01.JPG,AFNE01.JPG,,,,,,,,,5,0,50,8,,,,,,,,,,,,,,,AMNE17.jpg,AMSA08.jpg,AMSA05.jpg,AMNE14.jpg,AMNE17.jpg,MN,1,num_8,16,num_8,1.45009056071,,,2018_Feb_05_1136,60.0032139754,MAFE4ImagesEEG,001,103024,
AFNE01.JPG,AFNE01.JPG,AFNE01.JPG,AFNE01.JPG,AFNE01.JPG,AFNE01.JPG,,,,,,,,,5,1,51,5,,,,,,,,,,,,,,,AMSA01.jpg,AMNE10.jpg,AMSA17.jpg,AMNE20.jpg,AMSA01.jpg,MS,2,num_8,32,num_4,2.35021651501,,,2018_Feb_05_1136,60.0032139754,MAFE4ImagesEEG,001,103024,
AFNE01.JPG,AFNE01.JPG,AFNE01.JPG,AFNE01.JPG,AFNE01.JPG,AFNE01.JPG,,,,,,,,,5,2,52,9,,,,,,,,,,,,,,,AMSA13.jpg,AMSA10.jpg,AMNE11.jpg,AMNE05.jpg,AMNE05.jpg,MN,1,num_4,48,None,,,,2018_Feb_05_1136,60.0032139754,MAFE4ImagesEEG,001,103024,
AFNE01.JPG,AFNE01.JPG,AFNE01.JPG,AFNE01.JPG,AFNE01.JPG,AFNE01.JPG,,,,,,,,,5,3,53,7,,,,,,,,,,,,,,,AMNE03.jpg,AMSA18.jpg,AMNE06.jpg,AMSA13.jpg,AMSA18.jpg,MS,2,num_6,32,num_2,0.833440727554,,,2018_Feb_05_1136,60.0032139754,MAFE4ImagesEEG,001,103024,
AFNE01.JPG,AFNE01.JPG,AFNE01.JPG,AFNE01.JPG,AFNE01.JPG,AFNE01.JPG,,,,,,,,,5,4,54,2,,,,,,,,,,,,,,,AMNE11.jpg,AMSA15.jpg,AMNE20.jpg,AMSA14.jpg,AMSA14.jpg,MS,2,num_4,16,num_4,1.26678677287,,,2018_Feb_05_1136,60.0032139754,MAFE4ImagesEEG,001,103024,
AFNE01.JPG,AFNE01.JPG,AFNE01.JPG,AFNE01.JPG,AFNE01.JPG,AFNE01.JPG,,,,,,,,,5,5,55,3,,,,,,,,,,,,,,,AMSA04.jpg,AMNE10.jpg,AMSA07.jpg,AMNE01.jpg,AMSA04.jpg,MS,2,num_8,32,num_4,1.48341665603,,,2018_Feb_05_1136,60.0032139754,MAFE4ImagesEEG,001,103024,
AFNE01.JPG,AFNE01.JPG,AFNE01.JPG,AFNE01.JPG,AFNE01.JPG,AFNE01.JPG,,,,,,,,,5,6,56,1,,,,,,,,,,,,,,,AMSA11.jpg,AMSA09.jpg,AMNE04.jpg,AMNE12.jpg,AMSA09.jpg,MS,2,num_6,32,num_8,0.933445955627,,,2018_Feb_05_1136,60.0032139754,MAFE4ImagesEEG,001,103024,
AFNE01.JPG,AFNE01.JPG,AFNE01.JPG,AFNE01.JPG,AFNE01.JPG,AFNE01.JPG,,,,,,,,,5,7,57,0,,,,,,,,,,,,,,,AMNE11.jpg,AMNE09.jpg,AMSA02.jpg,AMSA19.jpg,AMNE09.jpg,MN,1,num_6,16,num_6,0.983439268195,,,2018_Feb_05_1136,60.0032139754,MAFE4ImagesEEG,001,103024,
AFNE01.JPG,AFNE01.JPG,AFNE01.JPG,AFNE01.JPG,AFNE01.JPG,AFNE01.JPG,,,,,,,,,5,8,58,6,,,,,,,,,,,,,,,AMNE05.jpg,AMNE16.jpg,AMSA06.jpg,AMSA01.jpg,AMSA06.jpg,MS,2,num_2,32,num_4,0.767009846983,,,2018_Feb_05_1136,60.0032139754,MAFE4ImagesEEG,001,103024,
AFNE01.JPG,AFNE01.JPG,AFNE01.JPG,AFNE01.JPG,AFNE01.JPG,AFNE01.JPG,,,,,,,,,5,9,59,4,,,,,,,,,,,,,,,AMSA18.jpg,AMSA16.jpg,AMNE20.jpg,AMNE07.jpg,AMNE07.jpg,MN,1,num_4,32,num_2,0.933444993338,,,2018_Feb_05_1136,60.0032139754,MAFE4ImagesEEG,001,103024,
,,,,,,,,,,,,,,,,,,,,,,,,,,,,,,,,,,,,,,,,,,,space,15.3825528088,2018_Feb_05_1136,60.0032139754,MAFE4ImagesEEG,001,103024,
AFNE01.JPG,AFNE01.JPG,AFNE01.JPG,AFNE01.JPG,AFNE01.JPG,AFNE01.JPG,,,,,,,,,,,,,0,0,0,8,,,,,,,,,,,AFSA02.jpg,AFNE12.jpg,AFNE11.jpg,AFSA09.jpg,AFNE12.jpg,FN,3,num_6,16,num_6,0.966807652963,,,2018_Feb_05_1136,60.0032139754,MAFE4ImagesEEG,001,103024,
AFNE01.JPG,AFNE01.JPG,AFNE01.JPG,AFNE01.JPG,AFNE01.JPG,AFNE01.JPG,,,,,,,,,,,,,0,1,1,2,,,,,,,,,,,AFSA09.jpg,AFNE01.jpg,AFSA01.jpg,AFNE18.jpg,AFSA09.jpg,FS,4,num_8,32,num_2,0.916762380628,,,2018_Feb_05_1136,60.0032139754,MAFE4ImagesEEG,001,103024,
AFNE01.JPG,AFNE01.JPG,AFNE01.JPG,AFNE01.JPG,AFNE01.JPG,AFNE01.JPG,,,,,,,,,,,,,0,2,2,9,,,,,,,,,,,AFNE07.jpg,AFNE12.jpg,AFSA18.jpg,AFSA19.jpg,AFNE07.jpg,FN,3,num_8,32,num_6,1.03340050683,,,2018_Feb_05_1136,60.0032139754,MAFE4ImagesEEG,001,103024,
AFNE01.JPG,AFNE01.JPG,AFNE01.JPG,AFNE01.JPG,AFNE01.JPG,AFNE01.JPG,,,,,,,,,,,,,0,3,3,3,,,,,,,,,,,AFNE06.jpg,AFSA13.jpg,AFNE08.jpg,AFSA10.jpg,AFSA13.jpg,FS,4,num_6,32,num_2,1.41671859974,,,2018_Feb_05_1136,60.0032139754,MAFE4ImagesEEG,001,103024,
AFNE01.JPG,AFNE01.JPG,AFNE01.JPG,AFNE01.JPG,AFNE01.JPG,AFNE01.JPG,,,,,,,,,,,,,0,4,4,1,,,,,,,,,,,AFSA03.jpg,AFNE18.jpg,AFSA07.jpg,AFNE02.jpg,AFSA07.jpg,FS,4,num_2,16,num_2,1.33346301899,,,2018_Feb_05_1136,60.0032139754,MAFE4ImagesEEG,001,103024,
AFNE01.JPG,AFNE01.JPG,AFNE01.JPG,AFNE01.JPG,AFNE01.JPG,AFNE01.JPG,,,,,,,,,,,,,0,5,5,4,,,,,,,,,,,AFSA05.jpg,AFNE08.jpg,AFSA15.jpg,AFNE05.jpg,AFSA15.jpg,FS,4,num_2,32,num_6,0.933417409775,,,2018_Feb_05_1136,60.0032139754,MAFE4ImagesEEG,001,103024,
AFNE01.JPG,AFNE01.JPG,AFNE01.JPG,AFNE01.JPG,AFNE01.JPG,AFNE01.JPG,,,,,,,,,,,,,0,6,6,6,,,,,,,,,,,AFSA09.jpg,AFSA20.jpg,AFNE04.jpg,AFNE08.jpg,AFSA09.jpg,FS,4,num_8,32,num_4,2.05000582139,,,2018_Feb_05_1136,60.0032139754,MAFE4ImagesEEG,001,103024,
AFNE01.JPG,AFNE01.JPG,AFNE01.JPG,AFNE01.JPG,AFNE01.JPG,AFNE01.JPG,,,,,,,,,,,,,0,7,7,5,,,,,,,,,,,AFNE07.jpg,AFSA18.jpg,AFNE20.jpg,AFSA05.jpg,AFNE20.jpg,FN,3,num_2,32,num_8,1.25007208611,,,2018_Feb_05_1136,60.0032139754,MAFE4ImagesEEG,001,103024,
AFNE01.JPG,AFNE01.JPG,AFNE01.JPG,AFNE01.JPG,AFNE01.JPG,AFNE01.JPG,,,,,,,,,,,,,0,8,8,0,,,,,,,,,,,AFSA14.jpg,AFSA18.jpg,AFNE01.jpg,AFNE05.jpg,AFSA18.jpg,FS,4,num_6,32,num_2,1.38370426302,,,2018_Feb_05_1136,60.0032139754,MAFE4ImagesEEG,001,103024,
AFNE01.JPG,AFNE01.JPG,AFNE01.JPG,AFNE01.JPG,AFNE01.JPG,AFNE01.JPG,,,,,,,,,,,,,0,9,9,7,,,,,,,,,,,AFNE06.jpg,AFSA07.jpg,AFNE13.jpg,AFSA08.jpg,AFNE13.jpg,FN,3,num_2,32,num_8,2.11668046389,,,2018_Feb_05_1136,60.0032139754,MAFE4ImagesEEG,001,103024,
AFNE01.JPG,AFNE01.JPG,AFNE01.JPG,AFNE01.JPG,AFNE01.JPG,AFNE01.JPG,,,,,,,,,,,,,1,0,10,8,,,,,,,,,,,AFNE18.jpg,AFSA07.jpg,AFNE13.jpg,AFSA13.jpg,AFNE13.jpg,FN,3,num_2,32,num_8,0.933446276351,,,2018_Feb_05_1136,60.0032139754,MAFE4ImagesEEG,001,103024,
AFNE01.JPG,AFNE01.JPG,AFNE01.JPG,AFNE01.JPG,AFNE01.JPG,AFNE01.JPG,,,,,,,,,,,,,1,1,11,0,,,,,,,,,,,AFNE12.jpg,AFSA04.jpg,AFNE16.jpg,AFSA08.jpg,AFSA08.jpg,FS,4,num_4,32,num_2,0.88346194441,,,2018_Feb_05_1136,60.0032139754,MAFE4ImagesEEG,001,103024,
AFNE01.JPG,AFNE01.JPG,AFNE01.JPG,AFNE01.JPG,AFNE01.JPG,AFNE01.JPG,,,,,,,,,,,,,1,2,12,1,,,,,,,,,,,AFNE19.jpg,AFNE03.jpg,AFSA11.jpg,AFSA20.jpg,AFSA11.jpg,FS,4,num_2,16,num_2,1.01679262635,,,2018_Feb_05_1136,60.0032139754,MAFE4ImagesEEG,001,103024,
AFNE01.JPG,AFNE01.JPG,AFNE01.JPG,AFNE01.JPG,AFNE01.JPG,AFNE01.JPG,,,,,,,,,,,,,1,3,13,9,,,,,,,,,,,AFNE09.jpg,AFNE10.jpg,AFSA15.jpg,AFSA12.jpg,AFSA12.jpg,FS,4,num_4,16,num_4,2.2833795785,,,2018_Feb_05_1136,60.0032139754,MAFE4ImagesEEG,001,103024,
AFNE01.JPG,AFNE01.JPG,AFNE01.JPG,AFNE01.JPG,AFNE01.JPG,AFNE01.JPG,,,,,,,,,,,,,1,4,14,7,,,,,,,,,,,AFNE11.jpg,AFSA09.jpg,AFNE14.jpg,AFSA16.jpg,AFSA16.jpg,FS,4,num_4,32,num_6,3.13327391108,,,2018_Feb_05_1136,60.0032139754,MAFE4ImagesEEG,001,103024,
AFNE01.JPG,AFNE01.JPG,AFNE01.JPG,AFNE01.JPG,AFNE01.JPG,AFNE01.JPG,,,,,,,,,,,,,1,5,15,6,,,,,,,,,,,AFNE20.jpg,AFSA09.jpg,AFSA03.jpg,AFNE18.jpg,AFSA09.jpg,FS,4,num_6,32,num_2,1.39998049906,,,2018_Feb_05_1136,60.0032139754,MAFE4ImagesEEG,001,103024,
AFNE01.JPG,AFNE01.JPG,AFNE01.JPG,AFNE01.JPG,AFNE01.JPG,AFNE01.JPG,,,,,,,,,,,,,1,6,16,4,,,,,,,,,,,AFSA03.jpg,AFNE20.jpg,AFNE05.jpg,AFSA04.jpg,AFNE20.jpg,FN,3,num_6,32,num_8,3.84987797472,,,2018_Feb_05_1136,60.0032139754,MAFE4ImagesEEG,001,103024,
AFNE01.JPG,AFNE01.JPG,AFNE01.JPG,AFNE01.JPG,AFNE01.JPG,AFNE01.JPG,,,,,,,,,,,,,1,7,17,5,,,,,,,,,,,AFNE06.jpg,AFSA02.jpg,AFSA01.jpg,AFNE02.jpg,AFSA02.jpg,FS,4,num_6,32,num_4,4.28349600686,,,2018_Feb_05_1136,60.0032139754,MAFE4ImagesEEG,001,103024,
AFNE01.JPG,AFNE01.JPG,AFNE01.JPG,AFNE01.JPG,AFNE01.JPG,AFNE01.JPG,,,,,,,,,,,,,1,8,18,3,,,,,,,,,,,AFNE09.jpg,AFSA09.jpg,AFNE08.jpg,AFSA08.jpg,AFSA08.jpg,FS,4,num_4,16,num_4,3.43325174786,,,2018_Feb_05_1136,60.0032139754,MAFE4ImagesEEG,001,103024,
AFNE01.JPG,AFNE01.JPG,AFNE01.JPG,AFNE01.JPG,AFNE01.JPG,AFNE01.JPG,,,,,,,,,,,,,1,9,19,2,,,,,,,,,,,AFSA16.jpg,AFSA09.jpg,AFNE18.jpg,AFNE01.jpg,AFSA16.jpg,FS,4,num_8,16,num_8,1.25015804428,,,2018_Feb_05_1136,60.0032139754,MAFE4ImagesEEG,001,103024,
AFNE01.JPG,AFNE01.JPG,AFNE01.JPG,AFNE01.JPG,AFNE01.JPG,AFNE01.JPG,,,,,,,,,,,,,2,0,20,3,,,,,,,,,,,AFNE10.jpg,AFNE08.jpg,AFSA15.jpg,AFSA04.jpg,AFSA15.jpg,FS,4,num_2,32,num_6,3.48324409837,,,2018_Feb_05_1136,60.0032139754,MAFE4ImagesEEG,001,103024,
AFNE01.JPG,AFNE01.JPG,AFNE01.JPG,AFNE01.JPG,AFNE01.JPG,AFNE01.JPG,,,,,,,,,,,,,2,1,21,1,,,,,,,,,,,AFNE18.jpg,AFSA12.jpg,AFNE14.jpg,AFSA10.jpg,AFNE18.jpg,FN,3,num_8,32,num_4,3.98332540574,,,2018_Feb_05_1136,60.0032139754,MAFE4ImagesEEG,001,103024,
AFNE01.JPG,AFNE01.JPG,AFNE01.JPG,AFNE01.JPG,AFNE01.JPG,AFNE01.JPG,,,,,,,,,,,,,2,2,22,9,,,,,,,,,,,AFSA10.jpg,AFSA20.jpg,AFNE02.jpg,AFNE15.jpg,AFSA10.jpg,FS,4,num_8,48,None,,,,2018_Feb_05_1136,60.0032139754,MAFE4ImagesEEG,001,103024,
AFNE01.JPG,AFNE01.JPG,AFNE01.JPG,AFNE01.JPG,AFNE01.JPG,AFNE01.JPG,,,,,,,,,,,,,2,3,23,7,,,,,,,,,,,AFSA16.jpg,AFSA09.jpg,AFNE08.jpg,AFNE10.jpg,AFSA09.jpg,FS,4,num_6,32,num_4,0.866834178101,,,2018_Feb_05_1136,60.0032139754,MAFE4ImagesEEG,001,103024,
AFNE01.JPG,AFNE01.JPG,AFNE01.JPG,AFNE01.JPG,AFNE01.JPG,AFNE01.JPG,,,,,,,,,,,,,2,4,24,4,,,,,,,,,,,AFNE06.jpg,AFSA10.jpg,AFNE03.jpg,AFSA08.jpg,AFNE03.jpg,FN,3,num_2,32,num_6,1.00007441151,,,2018_Feb_05_1136,60.0032139754,MAFE4ImagesEEG,001,103024,
AFNE01.JPG,AFNE01.JPG,AFNE01.JPG,AFNE01.JPG,AFNE01.JPG,AFNE01.JPG,,,,,,,,,,,,,2,5,25,6,,,,,,,,,,,AFNE02.jpg,AFSA05.jpg,AFNE17.jpg,AFSA10.jpg,AFSA05.jpg,FS,4,num_6,32,num_8,0.750163657242,,,2018_Feb_05_1136,60.0032139754,MAFE4ImagesEEG,001,103024,
AFNE01.JPG,AFNE01.JPG,AFNE01.JPG,AFNE01.JPG,AFNE01.JPG,AFNE01.JPG,,,,,,,,,,,,,2,6,26,5,,,,,,,,,,,AFSA06.jpg,AFSA07.jpg,AFNE15.jpg,AFNE17.jpg,AFNE17.jpg,FN,3,num_4,16,num_4,1.05011006165,,,2018_Feb_05_1136,60.0032139754,MAFE4ImagesEEG,001,103024,
AFNE01.JPG,AFNE01.JPG,AFNE01.JPG,AFNE01.JPG,AFNE01.JPG,AFNE01.JPG,,,,,,,,,,,,,2,7,27,2,,,,,,,,,,,AFSA13.jpg,AFNE07.jpg,AFNE04.jpg,AFSA04.jpg,AFNE04.jpg,FN,3,num_2,32,num_8,1.13339258451,,,2018_Feb_05_1136,60.0032139754,MAFE4ImagesEEG,001,103024,
AFNE01.JPG,AFNE01.JPG,AFNE01.JPG,AFNE01.JPG,AFNE01.JPG,AFNE01.JPG,,,,,,,,,,,,,2,8,28,0,,,,,,,,,,,AFSA18.jpg,AFNE09.jpg,AFSA10.jpg,AFNE02.jpg,AFNE09.jpg,FN,3,num_6,16,num_6,1.66674193344,,,2018_Feb_05_1136,60.0032139754,MAFE4ImagesEEG,001,103024,
AFNE01.JPG,AFNE01.JPG,AFNE01.JPG,AFNE01.JPG,AFNE01.JPG,AFNE01.JPG,,,,,,,,,,,,,2,9,29,8,,,,,,,,,,,AFSA12.jpg,AFNE14.jpg,AFNE11.jpg,AFSA11.jpg,AFNE14.jpg,FN,3,num_6,32,num_4,1.0168224551,,,2018_Feb_05_1136,60.0032139754,MAFE4ImagesEEG,001,103024,
AFNE01.JPG,AFNE01.JPG,AFNE01.JPG,AFNE01.JPG,AFNE01.JPG,AFNE01.JPG,,,,,,,,,,,,,3,0,30,0,,,,,,,,,,,AFSA18.jpg,AFSA10.jpg,AFNE16.jpg,AFNE17.jpg,AFSA18.jpg,FS,4,num_8,32,num_2,2.50000882044,,,2018_Feb_05_1136,60.0032139754,MAFE4ImagesEEG,001,103024,
AFNE01.JPG,AFNE01.JPG,AFNE01.JPG,AFNE01.JPG,AFNE01.JPG,AFNE01.JPG,,,,,,,,,,,,,3,1,31,3,,,,,,,,,,,AFSA03.jpg,AFNE03.jpg,AFSA01.jpg,AFNE02.jpg,AFNE03.jpg,FN,3,num_6,32,num_8,2.15012876084,,,2018_Feb_05_1136,60.0032139754,MAFE4ImagesEEG,001,103024,
AFNE01.JPG,AFNE01.JPG,AFNE01.JPG,AFNE01.JPG,AFNE01.JPG,AFNE01.JPG,,,,,,,,,,,,,3,2,32,9,,,,,,,,,,,AFSA18.jpg,AFNE20.jpg,AFSA16.jpg,AFNE15.jpg,AFNE15.jpg,FN,3,num_4,32,num_8,3.41653994785,,,2018_Feb_05_1136,60.0032139754,MAFE4ImagesEEG,001,103024,
AFNE01.JPG,AFNE01.JPG,AFNE01.JPG,AFNE01.JPG,AFNE01.JPG,AFNE01.JPG,,,,,,,,,,,,,3,3,33,6,,,,,,,,,,,AFNE13.jpg,AFNE07.jpg,AFSA17.jpg,AFSA15.jpg,AFSA15.jpg,FS,4,num_4,32,num_6,2.38331520627,,,2018_Feb_05_1136,60.0032139754,MAFE4ImagesEEG,001,103024,
AFNE01.JPG,AFNE01.JPG,AFNE01.JPG,AFNE01.JPG,AFNE01.JPG,AFNE01.JPG,,,,,,,,,,,,,3,4,34,1,,,,,,,,,,,AFNE16.jpg,AFSA09.jpg,AFSA15.jpg,AFNE19.jpg,AFSA09.jpg,FS,4,num_6,32,num_8,2.31661554624,,,2018_Feb_05_1136,60.0032139754,MAFE4ImagesEEG,001,103024,
AFNE01.JPG,AFNE01.JPG,AFNE01.JPG,AFNE01.JPG,AFNE01.JPG,AFNE01.JPG,,,,,,,,,,,,,3,5,35,4,,,,,,,,,,,AFNE05.jpg,AFNE08.jpg,AFSA12.jpg,AFSA13.jpg,AFSA13.jpg,FS,4,num_4,48,None,,,,2018_Feb_05_1136,60.0032139754,MAFE4ImagesEEG,001,103024,
AFNE01.JPG,AFNE01.JPG,AFNE01.JPG,AFNE01.JPG,AFNE01.JPG,AFNE01.JPG,,,,,,,,,,,,,3,6,36,8,,,,,,,,,,,AFNE05.jpg,AFSA09.jpg,AFNE13.jpg,AFSA03.jpg,AFNE05.jpg,FN,3,num_8,32,num_2,2.01667395281,,,2018_Feb_05_1136,60.0032139754,MAFE4ImagesEEG,001,103024,
AFNE01.JPG,AFNE01.JPG,AFNE01.JPG,AFNE01.JPG,AFNE01.JPG,AFNE01.JPG,,,,,,,,,,,,,3,7,37,7,,,,,,,,,,,AFNE04.jpg,AFNE09.jpg,AFSA17.jpg,AFSA04.jpg,AFSA04.jpg,FS,4,num_4,32,num_8,1.00001154665,,,2018_Feb_05_1136,60.0032139754,MAFE4ImagesEEG,001,103024,
AFNE01.JPG,AFNE01.JPG,AFNE01.JPG,AFNE01.JPG,AFNE01.JPG,AFNE01.JPG,,,,,,,,,,,,,3,8,38,5,,,,,,,,,,,AFSA11.jpg,AFSA04.jpg,AFNE07.jpg,AFNE19.jpg,AFSA11.jpg,FS,4,num_8,32,num_4,0.950263599632,,,2018_Feb_05_1136,60.0032139754,MAFE4ImagesEEG,001,103024,
AFNE01.JPG,AFNE01.JPG,AFNE01.JPG,AFNE01.JPG,AFNE01.JPG,AFNE01.JPG,,,,,,,,,,,,,3,9,39,2,,,,,,,,,,,AFNE09.jpg,AFSA06.jpg,AFSA05.jpg,AFNE20.jpg,AFSA05.jpg,FS,4,num_2,32,num_6,1.06672307407,,,2018_Feb_05_1136,60.0032139754,MAFE4ImagesEEG,001,103024,
AFNE01.JPG,AFNE01.JPG,AFNE01.JPG,AFNE01.JPG,AFNE01.JPG,AFNE01.JPG,,,,,,,,,,,,,4,0,40,3,,,,,,,,,,,AFSA20.jpg,AFNE17.jpg,AFSA08.jpg,AFNE08.jpg,AFNE08.jpg,FN,3,num_4,16,num_4,2.81645341241,,,2018_Feb_05_1136,60.0032139754,MAFE4ImagesEEG,001,103024,
AFNE01.JPG,AFNE01.JPG,AFNE01.JPG,AFNE01.JPG,AFNE01.JPG,AFNE01.JPG,,,,,,,,,,,,,4,1,41,2,,,,,,,,,,,AFSA06.jpg,AFNE18.jpg,AFSA04.jpg,AFNE01.jpg,AFNE18.jpg,FN,3,num_6,16,num_6,1.01653122378,,,2018_Feb_05_1136,60.0032139754,MAFE4ImagesEEG,001,103024,
AFNE01.JPG,AFNE01.JPG,AFNE01.JPG,AFNE01.JPG,AFNE01.JPG,AFNE01.JPG,,,,,,,,,,,,,4,2,42,5,,,,,,,,,,,AFSA02.jpg,AFNE02.jpg,AFSA15.jpg,AFNE13.jpg,AFNE02.jpg,FN,3,num_6,32,num_8,3.13329540053,,,2018_Feb_05_1136,60.0032139754,MAFE4ImagesEEG,001,103024,
AFNE01.JPG,AFNE01.JPG,AFNE01.JPG,AFNE01.JPG,AFNE01.JPG,AFNE01.JPG,,,,,,,,,,,,,4,3,43,9,,,,,,,,,,,AFNE18.jpg,AFSA08.jpg,AFSA03.jpg,AFNE14.jpg,AFSA08.jpg,FS,4,num_6,16,num_6,0.716742302291,,,2018_Feb_05_1136,60.0032139754,MAFE4ImagesEEG,001,103024,
AFNE01.JPG,AFNE01.JPG,AFNE01.JPG,AFNE01.JPG,AFNE01.JPG,AFNE01.JPG,,,,,,,,,,,,,4,4,44,6,,,,,,,,,,,AFNE11.jpg,AFSA11.jpg,AFSA17.jpg,AFNE05.jpg,AFSA17.jpg,FS,4,num_2,16,num_2,1.55016859656,,,2018_Feb_05_1136,60.0032139754,MAFE4ImagesEEG,001,103024,
AFNE01.JPG,AFNE01.JPG,AFNE01.JPG,AFNE01.JPG,AFNE01.JPG,AFNE01.JPG,,,,,,,,,,,,,4,5,45,1,,,,,,,,,,,AFSA03.jpg,AFSA17.jpg,AFNE01.jpg,AFNE15.jpg,AFNE01.jpg,FN,3,num_2,32,num_4,1.75004626671,,,2018_Feb_05_1136,60.0032139754,MAFE4ImagesEEG,001,103024,
AFNE01.JPG,AFNE01.JPG,AFNE01.JPG,AFNE01.JPG,AFNE01.JPG,AFNE01.JPG,,,,,,,,,,,,,4,6,46,4,,,,,,,,,,,AFSA18.jpg,AFSA20.jpg,AFNE13.jpg,AFNE07.jpg,AFNE13.jpg,FN,3,num_2,16,num_2,0.683447960182,,,2018_Feb_05_1136,60.0032139754,MAFE4ImagesEEG,001,103024,
AFNE01.JPG,AFNE01.JPG,AFNE01.JPG,AFNE01.JPG,AFNE01.JPG,AFNE01.JPG,,,,,,,,,,,,,4,7,47,8,,,,,,,,,,,AFNE07.jpg,AFSA06.jpg,AFSA08.jpg,AFNE04.jpg,AFNE04.jpg,FN,3,num_4,16,num_4,0.766761915525,,,2018_Feb_05_1136,60.0032139754,MAFE4ImagesEEG,001,103024,
AFNE01.JPG,AFNE01.JPG,AFNE01.JPG,AFNE01.JPG,AFNE01.JPG,AFNE01.JPG,,,,,,,,,,,,,4,8,48,0,,,,,,,,,,,AFNE18.jpg,AFNE11.jpg,AFSA03.jpg,AFSA08.jpg,AFNE11.jpg,FN,3,num_6,16,num_6,0.750173600158,,,2018_Feb_05_1136,60.0032139754,MAFE4ImagesEEG,001,103024,
AFNE01.JPG,AFNE01.JPG,AFNE01.JPG,AFNE01.JPG,AFNE01.JPG,AFNE01.JPG,,,,,,,,,,,,,4,9,49,7,,,,,,,,,,,AFNE15.jpg,AFSA03.jpg,AFSA15.jpg,AFNE03.jpg,AFSA15.jpg,FS,4,num_2,32,num_8,0.966947174631,,,2018_Feb_05_1136,60.0032139754,MAFE4ImagesEEG,001,103024,
AFNE01.JPG,AFNE01.JPG,AFNE01.JPG,AFNE01.JPG,AFNE01.JPG,AFNE01.JPG,,,,,,,,,,,,,5,0,50,9,,,,,,,,,,,AFNE20.jpg,AFNE11.jpg,AFSA06.jpg,AFSA17.jpg,AFSA17.jpg,FS,4,num_4,16,num_4,1.15007102769,,,2018_Feb_05_1136,60.0032139754,MAFE4ImagesEEG,001,103024,
AFNE01.JPG,AFNE01.JPG,AFNE01.JPG,AFNE01.JPG,AFNE01.JPG,AFNE01.JPG,,,,,,,,,,,,,5,1,51,1,,,,,,,,,,,AFNE04.jpg,AFNE10.jpg,AFSA13.jpg,AFSA01.jpg,AFSA13.jpg,FS,4,num_2,16,num_2,1.06684976607,,,2018_Feb_05_1136,60.0032139754,MAFE4ImagesEEG,001,103024,
AFNE01.JPG,AFNE01.JPG,AFNE01.JPG,AFNE01.JPG,AFNE01.JPG,AFNE01.JPG,,,,,,,,,,,,,5,2,52,6,,,,,,,,,,,AFSA14.jpg,AFSA04.jpg,AFNE07.jpg,AFNE05.jpg,AFSA04.jpg,FS,4,num_6,32,num_2,1.33342196431,,,2018_Feb_05_1136,60.0032139754,MAFE4ImagesEEG,001,103024,
AFNE01.JPG,AFNE01.JPG,AFNE01.JPG,AFNE01.JPG,AFNE01.JPG,AFNE01.JPG,,,,,,,,,,,,,5,3,53,0,,,,,,,,,,,AFSA08.jpg,AFNE10.jpg,AFNE02.jpg,AFSA10.jpg,AFNE10.jpg,FN,3,num_6,16,num_6,1.11677251605,,,2018_Feb_05_1136,60.0032139754,MAFE4ImagesEEG,001,103024,
AFNE01.JPG,AFNE01.JPG,AFNE01.JPG,AFNE01.JPG,AFNE01.JPG,AFNE01.JPG,,,,,,,,,,,,,5,4,54,3,,,,,,,,,,,AFSA15.jpg,AFNE05.jpg,AFSA16.jpg,AFNE02.jpg,AFNE05.jpg,FN,3,num_6,32,num_2,2.15030677104,,,2018_Feb_05_1136,60.0032139754,MAFE4ImagesEEG,001,103024,
AFNE01.JPG,AFNE01.JPG,AFNE01.JPG,AFNE01.JPG,AFNE01.JPG,AFNE01.JPG,,,,,,,,,,,,,5,5,55,8,,,,,,,,,,,AFNE15.jpg,AFNE18.jpg,AFSA09.jpg,AFSA14.jpg,AFSA14.jpg,FS,4,num_4,16,num_4,1.16671900067,,,2018_Feb_05_1136,60.0032139754,MAFE4ImagesEEG,001,103024,
AFNE01.JPG,AFNE01.JPG,AFNE01.JPG,AFNE01.JPG,AFNE01.JPG,AFNE01.JPG,,,,,,,,,,,,,5,6,56,7,,,,,,,,,,,AFSA07.jpg,AFSA01.jpg,AFNE14.jpg,AFNE17.jpg,AFSA01.jpg,FS,4,num_6,32,num_8,2.26665911858,,,2018_Feb_05_1136,60.0032139754,MAFE4ImagesEEG,001,103024,
AFNE01.JPG,AFNE01.JPG,AFNE01.JPG,AFNE01.JPG,AFNE01.JPG,AFNE01.JPG,,,,,,,,,,,,,5,7,57,2,,,,,,,,,,,AFNE20.jpg,AFNE14.jpg,AFSA14.jpg,AFSA19.jpg,AFSA19.jpg,FS,4,num_4,32,num_2,1.29995730962,,,2018_Feb_05_1136,60.0032139754,MAFE4ImagesEEG,001,103024,
AFNE01.JPG,AFNE01.JPG,AFNE01.JPG,AFNE01.JPG,AFNE01.JPG,AFNE01.JPG,,,,,,,,,,,,,5,8,58,4,,,,,,,,,,,AFSA03.jpg,AFNE10.jpg,AFNE15.jpg,AFSA17.jpg,AFSA03.jpg,FS,4,num_8,16,num_8,0.866767785046,,,2018_Feb_05_1136,60.0032139754,MAFE4ImagesEEG,001,103024,
AFNE01.JPG,AFNE01.JPG,AFNE01.JPG,AFNE01.JPG,AFNE01.JPG,AFNE01.JPG,,,,,,,,,,,,,5,9,59,5,,,,,,,,,,,AFSA18.jpg,AFNE12.jpg,AFSA11.jpg,AFNE19.jpg,AFNE19.jpg,FN,3,num_4,16,num_4,1.91667129064,,,2018_Feb_05_1136,60.0032139754,MAFE4ImagesEEG,001,103024,
,,,,,,,,,,,,,,,,,,,,,,,,,,,,,,,,,,,,,,,,,,,space,24.8812834832,2018_Feb_05_1136,60.0032139754,MAFE4ImagesEEG,001,103024,
AFNE01.JPG,AFNE01.JPG,AFNE01.JPG,AFNE01.JPG,AFNE01.JPG,AFNE01.JPG,,,,,,,,,,,,,,,,,0,0,0,6,,,,,,,AMSA14.jpg,AMNE18.jpg,AMSA20.jpg,AMNE11.jpg,AMSA14.jpg,MS,2,num_8,16,num_8,0.516798239318,,,2018_Feb_05_1136,60.0032139754,MAFE4ImagesEEG,001,103024,
AFNE01.JPG,AFNE01.JPG,AFNE01.JPG,AFNE01.JPG,AFNE01.JPG,AFNE01.JPG,,,,,,,,,,,,,,,,,0,1,1,5,,,,,,,AMNE20.jpg,AMNE07.jpg,AMSA01.jpg,AMSA07.jpg,AMNE20.jpg,MN,1,num_8,16,num_8,0.700085669407,,,2018_Feb_05_1136,60.0032139754,MAFE4ImagesEEG,001,103024,
AFNE01.JPG,AFNE01.JPG,AFNE01.JPG,AFNE01.JPG,AFNE01.JPG,AFNE01.JPG,,,,,,,,,,,,,,,,,0,2,2,8,,,,,,,AMSA20.jpg,AMNE03.jpg,AMNE19.jpg,AMSA03.jpg,AMSA20.jpg,MS,2,num_8,16,num_8,0.666788119939,,,2018_Feb_05_1136,60.0032139754,MAFE4ImagesEEG,001,103024,
AFNE01.JPG,AFNE01.JPG,AFNE01.JPG,AFNE01.JPG,AFNE01.JPG,AFNE01.JPG,,,,,,,,,,,,,,,,,0,3,3,1,,,,,,,AMSA17.jpg,AMNE14.jpg,AMNE12.jpg,AMSA03.jpg,AMNE12.jpg,MN,1,num_2,16,num_2,1.00010840991,,,2018_Feb_05_1136,60.0032139754,MAFE4ImagesEEG,001,103024,
AFNE01.JPG,AFNE01.JPG,AFNE01.JPG,AFNE01.JPG,AFNE01.JPG,AFNE01.JPG,,,,,,,,,,,,,,,,,0,4,4,0,,,,,,,AMSA06.jpg,AMNE12.jpg,AMNE08.jpg,AMSA12.jpg,AMSA12.jpg,MS,2,num_4,32,num_2,1.71670637955,,,2018_Feb_05_1136,60.0032139754,MAFE4ImagesEEG,001,103024,
AFNE01.JPG,AFNE01.JPG,AFNE01.JPG,AFNE01.JPG,AFNE01.JPG,AFNE01.JPG,,,,,,,,,,,,,,,,,0,5,5,9,,,,,,,AMNE01.jpg,AMSA03.jpg,AMSA05.jpg,AMNE08.jpg,AMNE01.jpg,MN,1,num_8,16,num_8,0.550143899629,,,2018_Feb_05_1136,60.0032139754,MAFE4ImagesEEG,001,103024,
AFNE01.JPG,AFNE01.JPG,AFNE01.JPG,AFNE01.JPG,AFNE01.JPG,AFNE01.JPG,,,,,,,,,,,,,,,,,0,6,6,4,,,,,,,AMNE05.jpg,AMSA01.jpg,AMSA13.jpg,AMNE18.jpg,AMSA13.jpg,MS,2,num_2,32,num_4,1.08356445271,,,2018_Feb_05_1136,60.0032139754,MAFE4ImagesEEG,001,103024,
AFNE01.JPG,AFNE01.JPG,AFNE01.JPG,AFNE01.JPG,AFNE01.JPG,AFNE01.JPG,,,,,,,,,,,,,,,,,0,7,7,2,,,,,,,AMSA17.jpg,AMNE01.jpg,AMSA06.jpg,AMNE07.jpg,AMSA17.jpg,MS,2,num_8,16,num_8,0.883323705755,,,2018_Feb_05_1136,60.0032139754,MAFE4ImagesEEG,001,103024,
AFNE01.JPG,AFNE01.JPG,AFNE01.JPG,AFNE01.JPG,AFNE01.JPG,AFNE01.JPG,,,,,,,,,,,,,,,,,0,8,8,3,,,,,,,AMSA15.jpg,AMSA17.jpg,AMNE17.jpg,AMNE12.jpg,AMNE12.jpg,MN,1,num_4,32,num_2,0.766779556172,,,2018_Feb_05_1136,60.0032139754,MAFE4ImagesEEG,001,103024,
AFNE01.JPG,AFNE01.JPG,AFNE01.JPG,AFNE01.JPG,AFNE01.JPG,AFNE01.JPG,,,,,,,,,,,,,,,,,0,9,9,7,,,,,,,AMSA05.jpg,AMNE14.jpg,AMSA17.jpg,AMNE17.jpg,AMSA17.jpg,MS,2,num_2,16,num_2,0.883426342392,,,2018_Feb_05_1136,60.0032139754,MAFE4ImagesEEG,001,103024,
AFNE01.JPG,AFNE01.JPG,AFNE01.JPG,AFNE01.JPG,AFNE01.JPG,AFNE01.JPG,,,,,,,,,,,,,,,,,1,0,10,8,,,,,,,AMSA16.jpg,AMSA05.jpg,AMNE12.jpg,AMNE11.jpg,AMSA16.jpg,MS,2,num_8,32,num_2,0.967040509684,,,2018_Feb_05_1136,60.0032139754,MAFE4ImagesEEG,001,103024,
AFNE01.JPG,AFNE01.JPG,AFNE01.JPG,AFNE01.JPG,AFNE01.JPG,AFNE01.JPG,,,,,,,,,,,,,,,,,1,1,11,7,,,,,,,AMSA11.jpg,AMSA17.jpg,AMNE12.jpg,AMNE11.jpg,AMSA11.jpg,MS,2,num_8,16,num_8,0.916752116987,,,2018_Feb_05_1136,60.0032139754,MAFE4ImagesEEG,001,103024,
AFNE01.JPG,AFNE01.JPG,AFNE01.JPG,AFNE01.JPG,AFNE01.JPG,AFNE01.JPG,,,,,,,,,,,,,,,,,1,2,12,6,,,,,,,AMNE19.jpg,AMSA02.jpg,AMSA04.jpg,AMNE02.jpg,AMSA04.jpg,MS,2,num_2,16,num_2,0.983447928098,,,2018_Feb_05_1136,60.0032139754,MAFE4ImagesEEG,001,103024,
AFNE01.JPG,AFNE01.JPG,AFNE01.JPG,AFNE01.JPG,AFNE01.JPG,AFNE01.JPG,,,,,,,,,,,,,,,,,1,3,13,0,,,,,,,AMSA01.jpg,AMNE04.jpg,AMNE12.jpg,AMSA07.jpg,AMSA01.jpg,MS,2,num_8,16,num_8,0.616764337174,,,2018_Feb_05_1136,60.0032139754,MAFE4ImagesEEG,001,103024,
AFNE01.JPG,AFNE01.JPG,AFNE01.JPG,AFNE01.JPG,AFNE01.JPG,AFNE01.JPG,,,,,,,,,,,,,,,,,1,4,14,5,,,,,,,AMNE17.jpg,AMSA20.jpg,AMSA04.jpg,AMNE02.jpg,AMNE17.jpg,MN,1,num_8,32,num_6,1.73340342555,,,2018_Feb_05_1136,60.0032139754,MAFE4ImagesEEG,001,103024,
AFNE01.JPG,AFNE01.JPG,AFNE01.JPG,AFNE01.JPG,AFNE01.JPG,AFNE01.JPG,,,,,,,,,,,,,,,,,1,5,15,9,,,,,,,AMSA09.jpg,AMNE02.jpg,AMSA17.jpg,AMNE03.jpg,AMSA09.jpg,MS,2,num_8,16,num_8,1.03342905256,,,2018_Feb_05_1136,60.0032139754,MAFE4ImagesEEG,001,103024,
AFNE01.JPG,AFNE01.JPG,AFNE01.JPG,AFNE01.JPG,AFNE01.JPG,AFNE01.JPG,,,,,,,,,,,,,,,,,1,6,16,2,,,,,,,AMNE06.jpg,AMSA14.jpg,AMSA10.jpg,AMNE19.jpg,AMSA14.jpg,MS,2,num_6,16,num_6,0.933423824608,,,2018_Feb_05_1136,60.0032139754,MAFE4ImagesEEG,001,103024,
AFNE01.JPG,AFNE01.JPG,AFNE01.JPG,AFNE01.JPG,AFNE01.JPG,AFNE01.JPG,,,,,,,,,,,,,,,,,1,7,17,1,,,,,,,AMNE18.jpg,AMNE09.jpg,AMSA09.jpg,AMSA14.jpg,AMSA09.jpg,MS,2,num_2,32,num_6,1.35010072822,,,2018_Feb_05_1136,60.0032139754,MAFE4ImagesEEG,001,103024,
AFNE01.JPG,AFNE01.JPG,AFNE01.JPG,AFNE01.JPG,AFNE01.JPG,AFNE01.JPG,,,,,,,,,,,,,,,,,1,8,18,3,,,,,,,AMSA04.jpg,AMNE06.jpg,AMNE15.jpg,AMSA11.jpg,AMNE06.jpg,MN,1,num_6,32,num_8,1.03347620124,,,2018_Feb_05_1136,60.0032139754,MAFE4ImagesEEG,001,103024,
AFNE01.JPG,AFNE01.JPG,AFNE01.JPG,AFNE01.JPG,AFNE01.JPG,AFNE01.JPG,,,,,,,,,,,,,,,,,1,9,19,4,,,,,,,AMNE06.jpg,AMSA13.jpg,AMNE19.jpg,AMSA09.jpg,AMNE06.jpg,MN,1,num_8,32,num_2,0.800138366874,,,2018_Feb_05_1136,60.0032139754,MAFE4ImagesEEG,001,103024,
AFNE01.JPG,AFNE01.JPG,AFNE01.JPG,AFNE01.JPG,AFNE01.JPG,AFNE01.JPG,,,,,,,,,,,,,,,,,2,0,20,3,,,,,,,AMNE19.jpg,AMNE09.jpg,AMSA04.jpg,AMSA07.jpg,AMNE09.jpg,MN,1,num_6,16,num_6,2.41668620496,,,2018_Feb_05_1136,60.0032139754,MAFE4ImagesEEG,001,103024,
AFNE01.JPG,AFNE01.JPG,AFNE01.JPG,AFNE01.JPG,AFNE01.JPG,AFNE01.JPG,,,,,,,,,,,,,,,,,2,1,21,4,,,,,,,AMSA13.jpg,AMSA01.jpg,AMNE11.jpg,AMNE19.jpg,AMSA13.jpg,MS,2,num_8,16,num_8,1.48339612875,,,2018_Feb_05_1136,60.0032139754,MAFE4ImagesEEG,001,103024,
AFNE01.JPG,AFNE01.JPG,AFNE01.JPG,AFNE01.JPG,AFNE01.JPG,AFNE01.JPG,,,,,,,,,,,,,,,,,2,2,22,9,,,,,,,AMNE01.jpg,AMSA05.jpg,AMNE20.jpg,AMSA15.jpg,AMNE20.jpg,MN,1,num_2,16,num_2,1.31670823973,,,2018_Feb_05_1136,60.0032139754,MAFE4ImagesEEG,001,103024,
AFNE01.JPG,AFNE01.JPG,AFNE01.JPG,AFNE01.JPG,AFNE01.JPG,AFNE01.JPG,,,,,,,,,,,,,,,,,2,3,23,6,,,,,,,AMNE19.jpg,AMSA07.jpg,AMSA18.jpg,AMNE01.jpg,AMNE01.jpg,MN,1,num_4,32,num_2,1.61669152929,,,2018_Feb_05_1136,60.0032139754,MAFE4ImagesEEG,001,103024,
AFNE01.JPG,AFNE01.JPG,AFNE01.JPG,AFNE01.JPG,AFNE01.JPG,AFNE01.JPG,,,,,,,,,,,,,,,,,2,4,24,0,,,,,,,AMNE07.jpg,AMSA17.jpg,AMSA15.jpg,AMNE11.jpg,AMSA17.jpg,MS,2,num_6,16,num_6,1.16681233584,,,2018_Feb_05_1136,60.0032139754,MAFE4ImagesEEG,001,103024,
AFNE01.JPG,AFNE01.JPG,AFNE01.JPG,AFNE01.JPG,AFNE01.JPG,AFNE01.JPG,,,,,,,,,,,,,,,,,2,5,25,5,,,,,,,AMNE03.jpg,AMSA05.jpg,AMNE02.jpg,AMSA16.jpg,AMSA16.jpg,MS,2,num_4,16,num_4,0.783470508177,,,2018_Feb_05_1136,60.0032139754,MAFE4ImagesEEG,001,103024,
AFNE01.JPG,AFNE01.JPG,AFNE01.JPG,AFNE01.JPG,AFNE01.JPG,AFNE01.JPG,,,,,,,,,,,,,,,,,2,6,26,8,,,,,,,AMNE17.jpg,AMSA07.jpg,AMNE14.jpg,AMSA10.jpg,AMNE14.jpg,MN,1,num_2,32,num_8,1.03330492647,,,2018_Feb_05_1136,60.0032139754,MAFE4ImagesEEG,001,103024,
AFNE01.JPG,AFNE01.JPG,AFNE01.JPG,AFNE01.JPG,AFNE01.JPG,AFNE01.JPG,,,,,,,,,,,,,,,,,2,7,27,7,,,,,,,AMSA03.jpg,AMNE09.jpg,AMNE04.jpg,AMSA16.jpg,AMNE04.jpg,MN,1,num_2,32,num_6,0.983535810723,,,2018_Feb_05_1136,60.0032139754,MAFE4ImagesEEG,001,103024,
AFNE01.JPG,AFNE01.JPG,AFNE01.JPG,AFNE01.JPG,AFNE01.JPG,AFNE01.JPG,,,,,,,,,,,,,,,,,2,8,28,2,,,,,,,AMSA08.jpg,AMSA12.jpg,AMNE17.jpg,AMNE01.jpg,AMSA08.jpg,MS,2,num_8,16,num_8,0.666771120741,,,2018_Feb_05_1136,60.0032139754,MAFE4ImagesEEG,001,103024,
AFNE01.JPG,AFNE01.JPG,AFNE01.JPG,AFNE01.JPG,AFNE01.JPG,AFNE01.JPG,,,,,,,,,,,,,,,,,2,9,29,1,,,,,,,AMSA02.jpg,AMNE12.jpg,AMSA03.jpg,AMNE13.jpg,AMSA03.jpg,MS,2,num_2,32,num_4,1.63311081508,,,2018_Feb_05_1136,60.0032139754,MAFE4ImagesEEG,001,103024,
AFNE01.JPG,AFNE01.JPG,AFNE01.JPG,AFNE01.JPG,AFNE01.JPG,AFNE01.JPG,,,,,,,,,,,,,,,,,3,0,30,7,,,,,,,AMNE02.jpg,AMNE07.jpg,AMSA12.jpg,AMSA18.jpg,AMNE02.jpg,MN,1,num_8,16,num_8,0.966773975291,,,2018_Feb_05_1136,60.0032139754,MAFE4ImagesEEG,001,103024,
AFNE01.JPG,AFNE01.JPG,AFNE01.JPG,AFNE01.JPG,AFNE01.JPG,AFNE01.JPG,,,,,,,,,,,,,,,,,3,1,31,9,,,,,,,AMNE15.jpg,AMNE12.jpg,AMSA04.jpg,AMSA20.jpg,AMSA04.jpg,MS,2,num_2,32,num_4,0.900149689056,,,2018_Feb_05_1136,60.0032139754,MAFE4ImagesEEG,001,103024,
AFNE01.JPG,AFNE01.JPG,AFNE01.JPG,AFNE01.JPG,AFNE01.JPG,AFNE01.JPG,,,,,,,,,,,,,,,,,3,2,32,6,,,,,,,AMSA03.jpg,AMSA12.jpg,AMNE02.jpg,AMNE18.jpg,AMSA12.jpg,MS,2,num_6,32,num_8,0.816757794004,,,2018_Feb_05_1136,60.0032139754,MAFE4ImagesEEG,001,103024,
AFNE01.JPG,AFNE01.JPG,AFNE01.JPG,AFNE01.JPG,AFNE01.JPG,AFNE01.JPG,,,,,,,,,,,,,,,,,3,3,33,0,,,,,,,AMSA19.jpg,AMSA04.jpg,AMNE02.jpg,AMNE15.jpg,AMSA04.jpg,MS,2,num_6,32,num_2,1.63339434855,,,2018_Feb_05_1136,60.0032139754,MAFE4ImagesEEG,001,103024,
AFNE01.JPG,AFNE01.JPG,AFNE01.JPG,AFNE01.JPG,AFNE01.JPG,AFNE01.JPG,,,,,,,,,,,,,,,,,3,4,34,2,,,,,,,AMNE01.jpg,AMSA13.jpg,AMSA02.jpg,AMNE17.jpg,AMNE17.jpg,MN,1,num_4,32,num_6,0.716760905227,,,2018_Feb_05_1136,60.0032139754,MAFE4ImagesEEG,001,103024,
AFNE01.JPG,AFNE01.JPG,AFNE01.JPG,AFNE01.JPG,AFNE01.JPG,AFNE01.JPG,,,,,,,,,,,,,,,,,3,5,35,4,,,,,,,AMSA01.jpg,AMNE11.jpg,AMNE19.jpg,AMSA10.jpg,AMSA01.jpg,MS,2,num_8,16,num_8,0.700179966865,,,2018_Feb_05_1136,60.0032139754,MAFE4ImagesEEG,001,103024,
AFNE01.JPG,AFNE01.JPG,AFNE01.JPG,AFNE01.JPG,AFNE01.JPG,AFNE01.JPG,,,,,,,,,,,,,,,,,3,6,36,5,,,,,,,AMSA19.jpg,AMNE05.jpg,AMSA14.jpg,AMNE04.jpg,AMSA19.jpg,MS,2,num_8,32,num_6,0.66678844078,,,2018_Feb_05_1136,60.0032139754,MAFE4ImagesEEG,001,103024,
AFNE01.JPG,AFNE01.JPG,AFNE01.JPG,AFNE01.JPG,AFNE01.JPG,AFNE01.JPG,,,,,,,,,,,,,,,,,3,7,37,1,,,,,,,AMNE13.jpg,AMSA06.jpg,AMSA15.jpg,AMNE06.jpg,AMNE06.jpg,MN,1,num_4,16,num_4,1.53336570656,,,2018_Feb_05_1136,60.0032139754,MAFE4ImagesEEG,001,103024,
AFNE01.JPG,AFNE01.JPG,AFNE01.JPG,AFNE01.JPG,AFNE01.JPG,AFNE01.JPG,,,,,,,,,,,,,,,,,3,8,38,3,,,,,,,AMNE06.jpg,AMNE12.jpg,AMSA09.jpg,AMSA15.jpg,AMNE12.jpg,MN,1,num_6,32,num_2,0.883587353514,,,2018_Feb_05_1136,60.0032139754,MAFE4ImagesEEG,001,103024,
AFNE01.JPG,AFNE01.JPG,AFNE01.JPG,AFNE01.JPG,AFNE01.JPG,AFNE01.JPG,,,,,,,,,,,,,,,,,3,9,39,8,,,,,,,AMNE07.jpg,AMSA09.jpg,AMNE08.jpg,AMSA08.jpg,AMNE08.jpg,MN,1,num_2,32,num_8,0.683335701469,,,2018_Feb_05_1136,60.0032139754,MAFE4ImagesEEG,001,103024,
AFNE01.JPG,AFNE01.JPG,AFNE01.JPG,AFNE01.JPG,AFNE01.JPG,AFNE01.JPG,,,,,,,,,,,,,,,,,4,0,40,9,,,,,,,AMNE09.jpg,AMSA08.jpg,AMSA15.jpg,AMNE18.jpg,AMSA08.jpg,MS,2,num_6,16,num_6,0.733260375913,,,2018_Feb_05_1136,60.0032139754,MAFE4ImagesEEG,001,103024,
AFNE01.JPG,AFNE01.JPG,AFNE01.JPG,AFNE01.JPG,AFNE01.JPG,AFNE01.JPG,,,,,,,,,,,,,,,,,4,1,41,8,,,,,,,AMNE18.jpg,AMSA13.jpg,AMNE03.jpg,AMSA12.jpg,AMSA13.jpg,MS,2,num_6,32,num_4,0.766797517543,,,2018_Feb_05_1136,60.0032139754,MAFE4ImagesEEG,001,103024,
AFNE01.JPG,AFNE01.JPG,AFNE01.JPG,AFNE01.JPG,AFNE01.JPG,AFNE01.JPG,,,,,,,,,,,,,,,,,4,2,42,1,,,,,,,AMNE20.jpg,AMSA02.jpg,AMNE14.jpg,AMSA10.jpg,AMSA02.jpg,MS,2,num_6,16,num_6,0.850147716468,,,2018_Feb_05_1136,60.0032139754,MAFE4ImagesEEG,001,103024,
AFNE01.JPG,AFNE01.JPG,AFNE01.JPG,AFNE01.JPG,AFNE01.JPG,AFNE01.JPG,,,,,,,,,,,,,,,,,4,3,43,2,,,,,,,AMSA16.jpg,AMNE11.jpg,AMSA19.jpg,AMNE03.jpg,AMSA16.jpg,MS,2,num_8,16,num_8,0.666799987317,,,2018_Feb_05_1136,60.0032139754,MAFE4ImagesEEG,001,103024,
AFNE01.JPG,AFNE01.JPG,AFNE01.JPG,AFNE01.JPG,AFNE01.JPG,AFNE01.JPG,,,,,,,,,,,,,,,,,4,4,44,6,,,,,,,AMSA08.jpg,AMSA13.jpg,AMNE01.jpg,AMNE13.jpg,AMSA13.jpg,MS,2,num_6,32,num_4,0.800232343609,,,2018_Feb_05_1136,60.0032139754,MAFE4ImagesEEG,001,103024,
AFNE01.JPG,AFNE01.JPG,AFNE01.JPG,AFNE01.JPG,AFNE01.JPG,AFNE01.JPG,,,,,,,,,,,,,,,,,4,5,45,7,,,,,,,AMSA06.jpg,AMSA09.jpg,AMNE09.jpg,AMNE14.jpg,AMNE09.jpg,MN,1,num_2,16,num_2,0.800167874899,,,2018_Feb_05_1136,60.0032139754,MAFE4ImagesEEG,001,103024,
AFNE01.JPG,AFNE01.JPG,AFNE01.JPG,AFNE01.JPG,AFNE01.JPG,AFNE01.JPG,,,,,,,,,,,,,,,,,4,6,46,3,,,,,,,AMSA12.jpg,AMSA18.jpg,AMNE16.jpg,AMNE17.jpg,AMSA18.jpg,MS,2,num_6,32,num_8,0.650147523964,,,2018_Feb_05_1136,60.0032139754,MAFE4ImagesEEG,001,103024,
AFNE01.JPG,AFNE01.JPG,AFNE01.JPG,AFNE01.JPG,AFNE01.JPG,AFNE01.JPG,,,,,,,,,,,,,,,,,4,7,47,5,,,,,,,AMNE12.jpg,AMSA01.jpg,AMNE03.jpg,AMSA13.jpg,AMSA01.jpg,MS,2,num_6,16,num_6,0.66675829119,,,2018_Feb_05_1136,60.0032139754,MAFE4ImagesEEG,001,103024,
AFNE01.JPG,AFNE01.JPG,AFNE01.JPG,AFNE01.JPG,AFNE01.JPG,AFNE01.JPG,,,,,,,,,,,,,,,,,4,8,48,0,,,,,,,AMSA04.jpg,AMNE01.jpg,AMSA20.jpg,AMNE18.jpg,AMSA20.jpg,MS,2,num_2,32,num_4,0.783427529037,,,2018_Feb_05_1136,60.0032139754,MAFE4ImagesEEG,001,103024,
AFNE01.JPG,AFNE01.JPG,AFNE01.JPG,AFNE01.JPG,AFNE01.JPG,AFNE01.JPG,,,,,,,,,,,,,,,,,4,9,49,4,,,,,,,AMNE10.jpg,AMNE01.jpg,AMSA09.jpg,AMSA04.jpg,AMSA04.jpg,MS,2,num_4,32,num_6,0.983455946553,,,2018_Feb_05_1136,60.0032139754,MAFE4ImagesEEG,001,103024,
AFNE01.JPG,AFNE01.JPG,AFNE01.JPG,AFNE01.JPG,AFNE01.JPG,AFNE01.JPG,,,,,,,,,,,,,,,,,5,0,50,2,,,,,,,AMNE13.jpg,AMSA18.jpg,AMNE05.jpg,AMSA05.jpg,AMSA05.jpg,MS,2,num_4,16,num_4,0.700178683852,,,2018_Feb_05_1136,60.0032139754,MAFE4ImagesEEG,001,103024,
AFNE01.JPG,AFNE01.JPG,AFNE01.JPG,AFNE01.JPG,AFNE01.JPG,AFNE01.JPG,,,,,,,,,,,,,,,,,5,1,51,0,,,,,,,AMSA01.jpg,AMNE18.jpg,AMSA08.jpg,AMNE03.jpg,AMNE18.jpg,MN,1,num_6,16,num_6,1.56672195147,,,2018_Feb_05_1136,60.0032139754,MAFE4ImagesEEG,001,103024,
AFNE01.JPG,AFNE01.JPG,AFNE01.JPG,AFNE01.JPG,AFNE01.JPG,AFNE01.JPG,,,,,,,,,,,,,,,,,5,2,52,8,,,,,,,AMNE08.jpg,AMSA04.jpg,AMSA18.jpg,AMNE20.jpg,AMNE08.jpg,MN,1,num_8,32,num_6,0.900153217139,,,2018_Feb_05_1136,60.0032139754,MAFE4ImagesEEG,001,103024,
AFNE01.JPG,AFNE01.JPG,AFNE01.JPG,AFNE01.JPG,AFNE01.JPG,AFNE01.JPG,,,,,,,,,,,,,,,,,5,3,53,7,,,,,,,AMNE04.jpg,AMSA12.jpg,AMNE10.jpg,AMSA05.jpg,AMNE04.jpg,MN,1,num_8,32,num_4,1.15011400683,,,2018_Feb_05_1136,60.0032139754,MAFE4ImagesEEG,001,103024,
AFNE01.JPG,AFNE01.JPG,AFNE01.JPG,AFNE01.JPG,AFNE01.JPG,AFNE01.JPG,,,,,,,,,,,,,,,,,5,4,54,5,,,,,,,AMSA03.jpg,AMSA05.jpg,AMNE20.jpg,AMNE07.jpg,AMSA05.jpg,MS,2,num_6,32,num_8,0.850533245131,,,2018_Feb_05_1136,60.0032139754,MAFE4ImagesEEG,001,103024,
AFNE01.JPG,AFNE01.JPG,AFNE01.JPG,AFNE01.JPG,AFNE01.JPG,AFNE01.JPG,,,,,,,,,,,,,,,,,5,5,55,9,,,,,,,AMNE08.jpg,AMSA06.jpg,AMSA01.jpg,AMNE14.jpg,AMSA01.jpg,MS,2,num_2,16,num_2,0.716766037047,,,2018_Feb_05_1136,60.0032139754,MAFE4ImagesEEG,001,103024,
AFNE01.JPG,AFNE01.JPG,AFNE01.JPG,AFNE01.JPG,AFNE01.JPG,AFNE01.JPG,,,,,,,,,,,,,,,,,5,6,56,3,,,,,,,AMNE19.jpg,AMSA03.jpg,AMSA08.jpg,AMNE15.jpg,AMNE15.jpg,MN,1,num_4,32,num_8,2.10001003917,,,2018_Feb_05_1136,60.0032139754,MAFE4ImagesEEG,001,103024,
AFNE01.JPG,AFNE01.JPG,AFNE01.JPG,AFNE01.JPG,AFNE01.JPG,AFNE01.JPG,,,,,,,,,,,,,,,,,5,7,57,4,,,,,,,AMNE04.jpg,AMSA17.jpg,AMSA01.jpg,AMNE13.jpg,AMNE13.jpg,MN,1,num_4,16,num_4,1.50019645283,,,2018_Feb_05_1136,60.0032139754,MAFE4ImagesEEG,001,103024,
AFNE01.JPG,AFNE01.JPG,AFNE01.JPG,AFNE01.JPG,AFNE01.JPG,AFNE01.JPG,,,,,,,,,,,,,,,,,5,8,58,6,,,,,,,AMNE19.jpg,AMNE06.jpg,AMSA20.jpg,AMSA04.jpg,AMSA04.jpg,MS,2,num_4,32,num_8,0.916725816322,,,2018_Feb_05_1136,60.0032139754,MAFE4ImagesEEG,001,103024,
AFNE01.JPG,AFNE01.JPG,AFNE01.JPG,AFNE01.JPG,AFNE01.JPG,AFNE01.JPG,,,,,,,,,,,,,,,,,5,9,59,1,,,,,,,AMSA14.jpg,AMNE15.jpg,AMSA10.jpg,AMNE03.jpg,AMNE15.jpg,MN,1,num_6,32,num_2,0.583483786788,,,2018_Feb_05_1136,60.0032139754,MAFE4ImagesEEG,001,103024,
,,,,,,,,,,,,,,,,,,,,,,,,,,,,,,,,,,,,,,,,,,,space,24.7812548411,2018_Feb_05_1136,60.0032139754,MAFE4ImagesEEG,001,103024,
AFNE01.JPG,AFNE01.JPG,AFNE01.JPG,AFNE01.JPG,AFNE01.JPG,AFNE01.JPG,,,,,,,,,,,,,,,,,,,,,0,0,0,0,,,AFSA05.jpg,AFSA03.jpg,AFNE18.jpg,AFNE13.jpg,AFSA03.jpg,FS,4,num_6,16,num_6,0.800404259819,,,2018_Feb_05_1136,60.0032139754,MAFE4ImagesEEG,001,103024,
AFNE01.JPG,AFNE01.JPG,AFNE01.JPG,AFNE01.JPG,AFNE01.JPG,AFNE01.JPG,,,,,,,,,,,,,,,,,,,,,0,1,1,2,,,AFSA06.jpg,AFNE07.jpg,AFNE19.jpg,AFSA03.jpg,AFNE07.jpg,FN,3,num_6,16,num_6,0.833468631841,,,2018_Feb_05_1136,60.0032139754,MAFE4ImagesEEG,001,103024,
AFNE01.JPG,AFNE01.JPG,AFNE01.JPG,AFNE01.JPG,AFNE01.JPG,AFNE01.JPG,,,,,,,,,,,,,,,,,,,,,0,2,2,8,,,AFNE18.jpg,AFNE03.jpg,AFSA19.jpg,AFSA08.jpg,AFNE18.jpg,FN,3,num_8,16,num_8,0.683476185193,,,2018_Feb_05_1136,60.0032139754,MAFE4ImagesEEG,001,103024,
AFNE01.JPG,AFNE01.JPG,AFNE01.JPG,AFNE01.JPG,AFNE01.JPG,AFNE01.JPG,,,,,,,,,,,,,,,,,,,,,0,3,3,7,,,AFSA05.jpg,AFNE17.jpg,AFSA15.jpg,AFNE10.jpg,AFSA15.jpg,FS,4,num_2,16,num_2,0.916774889338,,,2018_Feb_05_1136,60.0032139754,MAFE4ImagesEEG,001,103024,
AFNE01.JPG,AFNE01.JPG,AFNE01.JPG,AFNE01.JPG,AFNE01.JPG,AFNE01.JPG,,,,,,,,,,,,,,,,,,,,,0,4,4,9,,,AFSA04.jpg,AFNE04.jpg,AFSA08.jpg,AFNE03.jpg,AFSA04.jpg,FS,4,num_8,16,num_8,1.3000631535,,,2018_Feb_05_1136,60.0032139754,MAFE4ImagesEEG,001,103024,
AFNE01.JPG,AFNE01.JPG,AFNE01.JPG,AFNE01.JPG,AFNE01.JPG,AFNE01.JPG,,,,,,,,,,,,,,,,,,,,,0,5,5,4,,,AFNE04.jpg,AFNE08.jpg,AFSA06.jpg,AFSA12.jpg,AFSA06.jpg,FS,4,num_2,16,num_2,0.783327137702,,,2018_Feb_05_1136,60.0032139754,MAFE4ImagesEEG,001,103024,
AFNE01.JPG,AFNE01.JPG,AFNE01.JPG,AFNE01.JPG,AFNE01.JPG,AFNE01.JPG,,,,,,,,,,,,,,,,,,,,,0,6,6,5,,,AFSA16.jpg,AFNE15.jpg,AFSA08.jpg,AFNE02.jpg,AFNE15.jpg,FN,3,num_6,16,num_6,1.20011918677,,,2018_Feb_05_1136,60.0032139754,MAFE4ImagesEEG,001,103024,
AFNE01.JPG,AFNE01.JPG,AFNE01.JPG,AFNE01.JPG,AFNE01.JPG,AFNE01.JPG,,,,,,,,,,,,,,,,,,,,,0,7,7,1,,,AFSA04.jpg,AFNE09.jpg,AFNE12.jpg,AFSA20.jpg,AFSA20.jpg,FS,4,num_4,16,num_4,0.966829783982,,,2018_Feb_05_1136,60.0032139754,MAFE4ImagesEEG,001,103024,
AFNE01.JPG,AFNE01.JPG,AFNE01.JPG,AFNE01.JPG,AFNE01.JPG,AFNE01.JPG,,,,,,,,,,,,,,,,,,,,,0,8,8,3,,,AFNE08.jpg,AFNE18.jpg,AFSA11.jpg,AFSA10.jpg,AFSA11.jpg,FS,4,num_2,32,num_6,1.46664680215,,,2018_Feb_05_1136,60.0032139754,MAFE4ImagesEEG,001,103024,
AFNE01.JPG,AFNE01.JPG,AFNE01.JPG,AFNE01.JPG,AFNE01.JPG,AFNE01.JPG,,,,,,,,,,,,,,,,,,,,,0,9,9,6,,,AFNE02.jpg,AFNE07.jpg,AFSA19.jpg,AFSA01.jpg,AFSA01.jpg,FS,4,num_4,32,num_2,1.98333983892,,,2018_Feb_05_1136,60.0032139754,MAFE4ImagesEEG,001,103024,
AFNE01.JPG,AFNE01.JPG,AFNE01.JPG,AFNE01.JPG,AFNE01.JPG,AFNE01.JPG,,,,,,,,,,,,,,,,,,,,,1,0,10,2,,,AFSA06.jpg,AFNE17.jpg,AFNE01.jpg,AFSA10.jpg,AFNE01.jpg,FN,3,num_2,32,num_4,2.56692850753,,,2018_Feb_05_1136,60.0032139754,MAFE4ImagesEEG,001,103024,
AFNE01.JPG,AFNE01.JPG,AFNE01.JPG,AFNE01.JPG,AFNE01.JPG,AFNE01.JPG,,,,,,,,,,,,,,,,,,,,,1,1,11,0,,,AFNE14.jpg,AFSA12.jpg,AFSA14.jpg,AFNE07.jpg,AFSA14.jpg,FS,4,num_2,16,num_2,0.933420296526,,,2018_Feb_05_1136,60.0032139754,MAFE4ImagesEEG,001,103024,
AFNE01.JPG,AFNE01.JPG,AFNE01.JPG,AFNE01.JPG,AFNE01.JPG,AFNE01.JPG,,,,,,,,,,,,,,,,,,,,,1,2,12,6,,,AFNE01.jpg,AFNE18.jpg,AFSA17.jpg,AFSA12.jpg,AFSA12.jpg,FS,4,num_4,16,num_4,0.799996920861,,,2018_Feb_05_1136,60.0032139754,MAFE4ImagesEEG,001,103024,
AFNE01.JPG,AFNE01.JPG,AFNE01.JPG,AFNE01.JPG,AFNE01.JPG,AFNE01.JPG,,,,,,,,,,,,,,,,,,,,,1,3,13,7,,,AFSA10.jpg,AFNE19.jpg,AFSA02.jpg,AFNE01.jpg,AFNE01.jpg,FN,3,num_4,32,num_2,0.900184970349,,,2018_Feb_05_1136,60.0032139754,MAFE4ImagesEEG,001,103024,
AFNE01.JPG,AFNE01.JPG,AFNE01.JPG,AFNE01.JPG,AFNE01.JPG,AFNE01.JPG,,,,,,,,,,,,,,,,,,,,,1,4,14,1,,,AFSA01.jpg,AFSA10.jpg,AFNE04.jpg,AFNE08.jpg,AFNE08.jpg,FN,3,num_4,32,num_8,1.00016069028,,,2018_Feb_05_1136,60.0032139754,MAFE4ImagesEEG,001,103024,
AFNE01.JPG,AFNE01.JPG,AFNE01.JPG,AFNE01.JPG,AFNE01.JPG,AFNE01.JPG,,,,,,,,,,,,,,,,,,,,,1,5,15,4,,,AFNE14.jpg,AFSA04.jpg,AFNE20.jpg,AFSA07.jpg,AFSA07.jpg,FS,4,num_4,32,num_2,1.76666890108,,,2018_Feb_05_1136,60.0032139754,MAFE4ImagesEEG,001,103024,
AFNE01.JPG,AFNE01.JPG,AFNE01.JPG,AFNE01.JPG,AFNE01.JPG,AFNE01.JPG,,,,,,,,,,,,,,,,,,,,,1,6,16,3,,,AFNE08.jpg,AFSA12.jpg,AFNE15.jpg,AFSA10.jpg,AFNE08.jpg,FN,3,num_8,32,num_4,1.16678956326,,,2018_Feb_05_1136,60.0032139754,MAFE4ImagesEEG,001,103024,
AFNE01.JPG,AFNE01.JPG,AFNE01.JPG,AFNE01.JPG,AFNE01.JPG,AFNE01.JPG,,,,,,,,,,,,,,,,,,,,,1,7,17,8,,,AFSA07.jpg,AFNE16.jpg,AFNE03.jpg,AFSA14.jpg,AFNE03.jpg,FN,3,num_2,32,num_6,1.21672001097,,,2018_Feb_05_1136,60.0032139754,MAFE4ImagesEEG,001,103024,
AFNE01.JPG,AFNE01.JPG,AFNE01.JPG,AFNE01.JPG,AFNE01.JPG,AFNE01.JPG,,,,,,,,,,,,,,,,,,,,,1,8,18,9,,,AFSA01.jpg,AFNE05.jpg,AFSA11.jpg,AFNE02.jpg,AFSA01.jpg,FS,4,num_8,16,num_8,1.36644014984,,,2018_Feb_05_1136,60.0032139754,MAFE4ImagesEEG,001,103024,
AFNE01.JPG,AFNE01.JPG,AFNE01.JPG,AFNE01.JPG,AFNE01.JPG,AFNE01.JPG,,,,,,,,,,,,,,,,,,,,,1,9,19,5,,,AFNE16.jpg,AFSA16.jpg,AFSA20.jpg,AFNE12.jpg,AFSA16.jpg,FS,4,num_6,32,num_2,0.950181811117,,,2018_Feb_05_1136,60.0032139754,MAFE4ImagesEEG,001,103024,
AFNE01.JPG,AFNE01.JPG,AFNE01.JPG,AFNE01.JPG,AFNE01.JPG,AFNE01.JPG,,,,,,,,,,,,,,,,,,,,,2,0,20,9,,,AFNE11.jpg,AFNE08.jpg,AFSA19.jpg,AFSA11.jpg,AFNE08.jpg,FN,3,num_6,32,num_4,0.98348673759,,,2018_Feb_05_1136,60.0032139754,MAFE4ImagesEEG,001,103024,
AFNE01.JPG,AFNE01.JPG,AFNE01.JPG,AFNE01.JPG,AFNE01.JPG,AFNE01.JPG,,,,,,,,,,,,,,,,,,,,,2,1,21,2,,,AFNE17.jpg,AFNE02.jpg,AFSA04.jpg,AFSA19.jpg,AFNE02.jpg,FN,3,num_6,16,num_6,2.00030502304,,,2018_Feb_05_1136,60.0032139754,MAFE4ImagesEEG,001,103024,
AFNE01.JPG,AFNE01.JPG,AFNE01.JPG,AFNE01.JPG,AFNE01.JPG,AFNE01.JPG,,,,,,,,,,,,,,,,,,,,,2,2,22,6,,,AFSA03.jpg,AFSA05.jpg,AFNE14.jpg,AFNE02.jpg,AFNE02.jpg,FN,3,num_4,32,num_8,1.41670865682,,,2018_Feb_05_1136,60.0032139754,MAFE4ImagesEEG,001,103024,
AFNE01.JPG,AFNE01.JPG,AFNE01.JPG,AFNE01.JPG,AFNE01.JPG,AFNE01.JPG,,,,,,,,,,,,,,,,,,,,,2,3,23,7,,,AFSA16.jpg,AFSA19.jpg,AFNE07.jpg,AFNE16.jpg,AFSA16.jpg,FS,4,num_8,32,num_2,1.06673975242,,,2018_Feb_05_1136,60.0032139754,MAFE4ImagesEEG,001,103024,
AFNE01.JPG,AFNE01.JPG,AFNE01.JPG,AFNE01.JPG,AFNE01.JPG,AFNE01.JPG,,,,,,,,,,,,,,,,,,,,,2,4,24,1,,,AFNE05.jpg,AFSA15.jpg,AFSA05.jpg,AFNE20.jpg,AFNE05.jpg,FN,3,num_8,16,num_8,1.18359598133,,,2018_Feb_05_1136,60.0032139754,MAFE4ImagesEEG,001,103024,
AFNE01.JPG,AFNE01.JPG,AFNE01.JPG,AFNE01.JPG,AFNE01.JPG,AFNE01.JPG,,,,,,,,,,,,,,,,,,,,,2,5,25,5,,,AFSA13.jpg,AFNE16.jpg,AFSA03.jpg,AFNE05.jpg,AFSA13.jpg,FS,4,num_8,32,num_6,2.16647940828,,,2018_Feb_05_1136,60.0032139754,MAFE4ImagesEEG,001,103024,
AFNE01.JPG,AFNE01.JPG,AFNE01.JPG,AFNE01.JPG,AFNE01.JPG,AFNE01.JPG,,,,,,,,,,,,,,,,,,,,,2,6,26,4,,,AFNE17.jpg,AFSA06.jpg,AFSA15.jpg,AFNE19.jpg,AFSA15.jpg,FS,4,num_2,16,num_2,0.900140387588,,,2018_Feb_05_1136,60.0032139754,MAFE4ImagesEEG,001,103024,
AFNE01.JPG,AFNE01.JPG,AFNE01.JPG,AFNE01.JPG,AFNE01.JPG,AFNE01.JPG,,,,,,,,,,,,,,,,,,,,,2,7,27,3,,,AFNE11.jpg,AFNE10.jpg,AFSA20.jpg,AFSA05.jpg,AFNE11.jpg,FN,3,num_8,16,num_8,1.73341882112,,,2018_Feb_05_1136,60.0032139754,MAFE4ImagesEEG,001,103024,
AFNE01.JPG,AFNE01.JPG,AFNE01.JPG,AFNE01.JPG,AFNE01.JPG,AFNE01.JPG,,,,,,,,,,,,,,,,,,,,,2,8,28,0,,,AFNE14.jpg,AFSA12.jpg,AFNE02.jpg,AFSA03.jpg,AFSA12.jpg,FS,4,num_6,16,num_6,0.916740891058,,,2018_Feb_05_1136,60.0032139754,MAFE4ImagesEEG,001,103024,
AFNE01.JPG,AFNE01.JPG,AFNE01.JPG,AFNE01.JPG,AFNE01.JPG,AFNE01.JPG,,,,,,,,,,,,,,,,,,,,,2,9,29,8,,,AFSA12.jpg,AFNE06.jpg,AFNE08.jpg,AFSA17.jpg,AFSA12.jpg,FS,4,num_8,16,num_8,0.883460661396,,,2018_Feb_05_1136,60.0032139754,MAFE4ImagesEEG,001,103024,
AFNE01.JPG,AFNE01.JPG,AFNE01.JPG,AFNE01.JPG,AFNE01.JPG,AFNE01.JPG,,,,,,,,,,,,,,,,,,,,,3,0,30,2,,,AFSA01.jpg,AFNE18.jpg,AFNE10.jpg,AFSA11.jpg,AFSA11.jpg,FS,4,num_4,16,num_4,1.18340802821,,,2018_Feb_05_1136,60.0032139754,MAFE4ImagesEEG,001,103024,
AFNE01.JPG,AFNE01.JPG,AFNE01.JPG,AFNE01.JPG,AFNE01.JPG,AFNE01.JPG,,,,,,,,,,,,,,,,,,,,,3,1,31,8,,,AFSA18.jpg,AFNE10.jpg,AFNE13.jpg,AFSA03.jpg,AFSA18.jpg,FS,4,num_8,32,num_4,3.88353507302,,,2018_Feb_05_1136,60.0032139754,MAFE4ImagesEEG,001,103024,
AFNE01.JPG,AFNE01.JPG,AFNE01.JPG,AFNE01.JPG,AFNE01.JPG,AFNE01.JPG,,,,,,,,,,,,,,,,,,,,,3,2,32,1,,,AFSA19.jpg,AFSA11.jpg,AFNE03.jpg,AFNE15.jpg,AFNE15.jpg,FN,3,num_4,32,num_2,1.11677347822,,,2018_Feb_05_1136,60.0032139754,MAFE4ImagesEEG,001,103024,
AFNE01.JPG,AFNE01.JPG,AFNE01.JPG,AFNE01.JPG,AFNE01.JPG,AFNE01.JPG,,,,,,,,,,,,,,,,,,,,,3,3,33,6,,,AFSA09.jpg,AFNE15.jpg,AFNE11.jpg,AFSA06.jpg,AFNE11.jpg,FN,3,num_2,32,num_4,1.53337725322,,,2018_Feb_05_1136,60.0032139754,MAFE4ImagesEEG,001,103024,
AFNE01.JPG,AFNE01.JPG,AFNE01.JPG,AFNE01.JPG,AFNE01.JPG,AFNE01.JPG,,,,,,,,,,,,,,,,,,,,,3,4,34,4,,,AFSA11.jpg,AFNE12.jpg,AFSA08.jpg,AFNE17.jpg,AFSA08.jpg,FS,4,num_2,16,num_2,1.28347259294,,,2018_Feb_05_1136,60.0032139754,MAFE4ImagesEEG,001,103024,
AFNE01.JPG,AFNE01.JPG,AFNE01.JPG,AFNE01.JPG,AFNE01.JPG,AFNE01.JPG,,,,,,,,,,,,,,,,,,,,,3,5,35,9,,,AFSA04.jpg,AFNE06.jpg,AFNE05.jpg,AFSA14.jpg,AFSA04.jpg,FS,4,num_8,16,num_8,0.916760135442,,,2018_Feb_05_1136,60.0032139754,MAFE4ImagesEEG,001,103024,
AFNE01.JPG,AFNE01.JPG,AFNE01.JPG,AFNE01.JPG,AFNE01.JPG,AFNE01.JPG,,,,,,,,,,,,,,,,,,,,,3,6,36,0,,,AFNE14.jpg,AFSA09.jpg,AFSA18.jpg,AFNE07.jpg,AFNE14.jpg,FN,3,num_8,32,num_2,0.850151565392,,,2018_Feb_05_1136,60.0032139754,MAFE4ImagesEEG,001,103024,
AFNE01.JPG,AFNE01.JPG,AFNE01.JPG,AFNE01.JPG,AFNE01.JPG,AFNE01.JPG,,,,,,,,,,,,,,,,,,,,,3,7,37,5,,,AFSA10.jpg,AFSA01.jpg,AFNE02.jpg,AFNE14.jpg,AFNE14.jpg,FN,3,num_4,32,num_8,0.933315735427,,,2018_Feb_05_1136,60.0032139754,MAFE4ImagesEEG,001,103024,
AFNE01.JPG,AFNE01.JPG,AFNE01.JPG,AFNE01.JPG,AFNE01.JPG,AFNE01.JPG,,,,,,,,,,,,,,,,,,,,,3,8,38,3,,,AFSA10.jpg,AFNE12.jpg,AFNE08.jpg,AFSA11.jpg,AFSA10.jpg,FS,4,num_8,32,num_6,2.06665860536,,,2018_Feb_05_1136,60.0032139754,MAFE4ImagesEEG,001,103024,
AFNE01.JPG,AFNE01.JPG,AFNE01.JPG,AFNE01.JPG,AFNE01.JPG,AFNE01.JPG,,,,,,,,,,,,,,,,,,,,,3,9,39,7,,,AFSA09.jpg,AFSA01.jpg,AFNE04.jpg,AFNE13.jpg,AFNE04.jpg,FN,3,num_2,16,num_2,1.51668822567,,,2018_Feb_05_1136,60.0032139754,MAFE4ImagesEEG,001,103024,
