IPosition2,IPosition3,IPosition1,IPosition6,IPosition4,IPosition5,TrialsM1.thisRepN,TrialsM1.thisTrialN,TrialsM1.thisN,TrialsM1.thisIndex,TrialsF1.thisRepN,TrialsF1.thisTrialN,TrialsF1.thisN,TrialsF1.thisIndex,TrialsM2.thisRepN,TrialsM2.thisTrialN,TrialsM2.thisN,TrialsM2.thisIndex,TrialsF2.thisRepN,TrialsF2.thisTrialN,TrialsF2.thisN,TrialsF2.thisIndex,TrialsM3.thisRepN,TrialsM3.thisTrialN,TrialsM3.thisN,TrialsM3.thisIndex,TrialsF3.thisRepN,TrialsF3.thisTrialN,TrialsF3.thisN,TrialsF3.thisIndex,InstrKey_resp.keys,InstrKey_resp.rt,Image0 _Position,Image1 _Position,Image2 _Position,Image3 _Position,Center_image,condition,code,correct_answer,accuracy,Key_Resp.keys,Key_Resp.rt,BreakKey_resp.keys,BreakKey_resp.rt,date,frameRate,expName,session,participant,
,,,,,,,,,,,,,,,,,,,,,,,,,,,,,,space,16.4825852998,,,,,,,,,,,,,,2018_Feb_14_1646,59.9981333803,MAFE4ImagesEEG,001,103068,
AMSA21.JPG,AMNE23.JPG,AMNE21.JPG,AMSA25.JPG,AMNE25.JPG,AMSA23.JPG,0,0,0,5,,,,,,,,,,,,,,,,,,,,,,,AMNE18.jpg,AMNE05.jpg,AMSA06.jpg,AMSA03.jpg,AMSA06.jpg,MS,2,num_2,32,num_6,2.66662967484,,,2018_Feb_14_1646,59.9981333803,MAFE4ImagesEEG,001,103068,
AFNE23.JPG,AFNE24.JPG,AFNE22.JPG,AFSA24.JPG,AFSA22.JPG,AFSA23.JPG,0,1,1,8,,,,,,,,,,,,,,,,,,,,,,,AMSA17.jpg,AMNE09.jpg,AMNE01.jpg,AMSA13.jpg,AMSA13.jpg,MS,2,num_4,32,num_2,2.56662252219,,,2018_Feb_14_1646,59.9981333803,MAFE4ImagesEEG,001,103068,
AMNE22.JPG,AMSA24.JPG,AMSA22.JPG,AMNE25.JPG,AMNE24.JPG,AMSA25.JPG,0,2,2,7,,,,,,,,,,,,,,,,,,,,,,,AMSA19.jpg,AMNE10.jpg,AMSA06.jpg,AMNE11.jpg,AMNE11.jpg,MN,1,num_4,32,num_8,2.2666873436,,,2018_Feb_14_1646,59.9981333803,MAFE4ImagesEEG,001,103068,
AFSA21.JPG,AFNE22.JPG,AFNE21.JPG,AFSA23.JPG,AFSA22.JPG,AFNE23.JPG,0,3,3,0,,,,,,,,,,,,,,,,,,,,,,,AMNE20.jpg,AMNE13.jpg,AMSA16.jpg,AMSA12.jpg,AMNE13.jpg,MN,1,num_6,32,num_4,2.36668134597,,,2018_Feb_14_1646,59.9981333803,MAFE4ImagesEEG,001,103068,
AFSA21.JPG,AFNE23.JPG,AFNE21.JPG,AFSA25.JPG,AFNE25.JPG,AFSA23.JPG,0,4,4,4,,,,,,,,,,,,,,,,,,,,,,,AMNE05.jpg,AMSA01.jpg,AMNE01.jpg,AMSA04.jpg,AMNE01.jpg,MN,1,num_2,32,num_6,1.55006339424,,,2018_Feb_14_1646,59.9981333803,MAFE4ImagesEEG,001,103068,
AMSA25.JPG,AMNE24.JPG,AMSA24.JPG,AMNE26.JPG,AMSA21.JPG,AMNE25.JPG,0,5,5,3,,,,,,,,,,,,,,,,,,,,,,,AMSA16.jpg,AMNE03.jpg,AMSA03.jpg,AMNE09.jpg,AMSA16.jpg,MS,2,num_8,32,num_6,1.18345902581,,,2018_Feb_14_1646,59.9981333803,MAFE4ImagesEEG,001,103068,
AMSA21.JPG,AMNE22.JPG,AMNE21.JPG,AMSA23.JPG,AMSA22.JPG,AMNE23.JPG,0,6,6,1,,,,,,,,,,,,,,,,,,,,,,,AMSA18.jpg,AMNE11.jpg,AMSA06.jpg,AMNE01.jpg,AMSA18.jpg,MS,2,num_8,16,num_8,0.716790413251,,,2018_Feb_14_1646,59.9981333803,MAFE4ImagesEEG,001,103068,
AFNE22.JPG,AFSA24.JPG,AFSA22.JPG,AFNE25.JPG,AFNE24.JPG,AFSA25.JPG,0,7,7,6,,,,,,,,,,,,,,,,,,,,,,,AMNE17.jpg,AMSA11.jpg,AMSA09.jpg,AMNE05.jpg,AMSA11.jpg,MS,2,num_6,32,num_4,2.03342039278,,,2018_Feb_14_1646,59.9981333803,MAFE4ImagesEEG,001,103068,
AMNE23.JPG,AMNE24.JPG,AMNE22.JPG,AMSA24.JPG,AMSA22.JPG,AMSA23.JPG,0,8,8,9,,,,,,,,,,,,,,,,,,,,,,,AMSA02.jpg,AMSA01.jpg,AMNE06.jpg,AMNE10.jpg,AMSA01.jpg,MS,2,num_6,16,num_6,1.13345160056,,,2018_Feb_14_1646,59.9981333803,MAFE4ImagesEEG,001,103068,
AFSA25.JPG,AFNE24.JPG,AFSA24.JPG,AFNE21.JPG,AFSA21.JPG,AFNE25.JPG,0,9,9,2,,,,,,,,,,,,,,,,,,,,,,,AMSA05.jpg,AMNE12.jpg,AMSA09.jpg,AMNE05.jpg,AMSA05.jpg,MS,2,num_8,32,num_2,3.18325214903,,,2018_Feb_14_1646,59.9981333803,MAFE4ImagesEEG,001,103068,
AFSA25.JPG,AFNE24.JPG,AFSA24.JPG,AFNE21.JPG,AFSA21.JPG,AFNE25.JPG,,,,,0,0,0,2,,,,,,,,,,,,,,,,,,,AFSA15.jpg,AFSA03.jpg,AFNE09.jpg,AFNE19.jpg,AFNE19.jpg,FN,3,num_4,16,num_4,1.91660265252,,,2018_Feb_14_1646,59.9981333803,MAFE4ImagesEEG,001,103068,
AFNE22.JPG,AFSA24.JPG,AFSA22.JPG,AFNE25.JPG,AFNE24.JPG,AFSA25.JPG,,,,,0,1,1,6,,,,,,,,,,,,,,,,,,,AFNE09.jpg,AFSA17.jpg,AFSA13.jpg,AFNE08.jpg,AFSA13.jpg,FS,4,num_2,16,num_2,1.91666872473,,,2018_Feb_14_1646,59.9981333803,MAFE4ImagesEEG,001,103068,
AMNE23.JPG,AMNE24.JPG,AMNE22.JPG,AMSA24.JPG,AMSA22.JPG,AMSA23.JPG,,,,,0,2,2,9,,,,,,,,,,,,,,,,,,,AFSA18.jpg,AFNE13.jpg,AFNE01.jpg,AFSA12.jpg,AFSA12.jpg,FS,4,num_4,16,num_4,0.733469177037,,,2018_Feb_14_1646,59.9981333803,MAFE4ImagesEEG,001,103068,
AFNE23.JPG,AFNE24.JPG,AFNE22.JPG,AFSA24.JPG,AFSA22.JPG,AFSA23.JPG,,,,,0,3,3,8,,,,,,,,,,,,,,,,,,,AFNE13.jpg,AFNE10.jpg,AFSA05.jpg,AFSA17.jpg,AFNE10.jpg,FN,3,num_6,32,num_8,2.46649894142,,,2018_Feb_14_1646,59.9981333803,MAFE4ImagesEEG,001,103068,
AMNE22.JPG,AMSA24.JPG,AMSA22.JPG,AMNE25.JPG,AMNE24.JPG,AMSA25.JPG,,,,,0,4,4,7,,,,,,,,,,,,,,,,,,,AFNE06.jpg,AFSA01.jpg,AFSA16.jpg,AFNE02.jpg,AFNE02.jpg,FN,3,num_4,16,num_4,0.683489335701,,,2018_Feb_14_1646,59.9981333803,MAFE4ImagesEEG,001,103068,
AMSA25.JPG,AMNE24.JPG,AMSA24.JPG,AMNE26.JPG,AMSA21.JPG,AMNE25.JPG,,,,,0,5,5,3,,,,,,,,,,,,,,,,,,,AFSA04.jpg,AFSA17.jpg,AFNE14.jpg,AFNE01.jpg,AFNE14.jpg,FN,3,num_2,16,num_2,1.58337858436,,,2018_Feb_14_1646,59.9981333803,MAFE4ImagesEEG,001,103068,
AMSA21.JPG,AMNE23.JPG,AMNE21.JPG,AMSA25.JPG,AMNE25.JPG,AMSA23.JPG,,,,,0,6,6,5,,,,,,,,,,,,,,,,,,,AFSA13.jpg,AFNE11.jpg,AFSA20.jpg,AFNE05.jpg,AFSA20.jpg,FS,4,num_2,16,num_2,1.48342371243,,,2018_Feb_14_1646,59.9981333803,MAFE4ImagesEEG,001,103068,
AFSA21.JPG,AFNE23.JPG,AFNE21.JPG,AFSA25.JPG,AFNE25.JPG,AFSA23.JPG,,,,,0,7,7,4,,,,,,,,,,,,,,,,,,,AFSA19.jpg,AFNE02.jpg,AFNE09.jpg,AFSA06.jpg,AFSA06.jpg,FS,4,num_4,16,num_4,1.96665530186,,,2018_Feb_14_1646,59.9981333803,MAFE4ImagesEEG,001,103068,
AFSA21.JPG,AFNE22.JPG,AFNE21.JPG,AFSA23.JPG,AFSA22.JPG,AFNE23.JPG,,,,,0,8,8,0,,,,,,,,,,,,,,,,,,,AFNE06.jpg,AFNE09.jpg,AFSA05.jpg,AFSA07.jpg,AFNE09.jpg,FN,3,num_6,16,num_6,1.48340927903,,,2018_Feb_14_1646,59.9981333803,MAFE4ImagesEEG,001,103068,
AMSA21.JPG,AMNE22.JPG,AMNE21.JPG,AMSA23.JPG,AMSA22.JPG,AMNE23.JPG,,,,,0,9,9,1,,,,,,,,,,,,,,,,,,,AFSA18.jpg,AFSA07.jpg,AFNE02.jpg,AFNE18.jpg,AFNE02.jpg,FN,3,num_2,32,num_4,0.616818542127,,,2018_Feb_14_1646,59.9981333803,MAFE4ImagesEEG,001,103068,
AMNE22.JPG,AMSA24.JPG,AMSA22.JPG,AMNE25.JPG,AMNE24.JPG,AMSA25.JPG,,,,,,,,,0,0,0,7,,,,,,,,,,,,,,,AMNE16.jpg,AMSA02.jpg,AMSA08.jpg,AMNE01.jpg,AMSA02.jpg,MS,2,num_6,32,num_2,1.41675099451,,,2018_Feb_14_1646,59.9981333803,MAFE4ImagesEEG,001,103068,
AFSA25.JPG,AFNE24.JPG,AFSA24.JPG,AFNE21.JPG,AFSA21.JPG,AFNE25.JPG,,,,,,,,,0,1,1,2,,,,,,,,,,,,,,,AMNE17.jpg,AMSA05.jpg,AMNE13.jpg,AMSA01.jpg,AMNE17.jpg,MN,1,num_8,32,num_4,2.5666199564,,,2018_Feb_14_1646,59.9981333803,MAFE4ImagesEEG,001,103068,
AMSA21.JPG,AMNE23.JPG,AMNE21.JPG,AMSA25.JPG,AMNE25.JPG,AMSA23.JPG,,,,,,,,,0,2,2,5,,,,,,,,,,,,,,,AMNE18.jpg,AMNE16.jpg,AMSA20.jpg,AMSA01.jpg,AMNE18.jpg,MN,1,num_8,16,num_8,3.24993096082,,,2018_Feb_14_1646,59.9981333803,MAFE4ImagesEEG,001,103068,
AFNE22.JPG,AFSA24.JPG,AFSA22.JPG,AFNE25.JPG,AFNE24.JPG,AFSA25.JPG,,,,,,,,,0,3,3,6,,,,,,,,,,,,,,,AMSA14.jpg,AMSA01.jpg,AMNE01.jpg,AMNE07.jpg,AMNE01.jpg,MN,1,num_2,32,num_6,2.76662560133,,,2018_Feb_14_1646,59.9981333803,MAFE4ImagesEEG,001,103068,
AMSA25.JPG,AMNE24.JPG,AMSA24.JPG,AMNE26.JPG,AMSA21.JPG,AMNE25.JPG,,,,,,,,,0,4,4,3,,,,,,,,,,,,,,,AMNE20.jpg,AMSA19.jpg,AMNE06.jpg,AMSA15.jpg,AMSA19.jpg,MS,2,num_6,16,num_6,1.35008212528,,,2018_Feb_14_1646,59.9981333803,MAFE4ImagesEEG,001,103068,
AFNE23.JPG,AFNE24.JPG,AFNE22.JPG,AFSA24.JPG,AFSA22.JPG,AFSA23.JPG,,,,,,,,,0,5,5,8,,,,,,,,,,,,,,,AMNE20.jpg,AMSA07.jpg,AMSA19.jpg,AMNE05.jpg,AMSA07.jpg,MS,2,num_6,16,num_6,0.900157066062,,,2018_Feb_14_1646,59.9981333803,MAFE4ImagesEEG,001,103068,
AFSA21.JPG,AFNE22.JPG,AFNE21.JPG,AFSA23.JPG,AFSA22.JPG,AFNE23.JPG,,,,,,,,,0,6,6,0,,,,,,,,,,,,,,,AMSA02.jpg,AMNE03.jpg,AMSA08.jpg,AMNE19.jpg,AMNE03.jpg,MN,1,num_6,32,num_8,1.41677184263,,,2018_Feb_14_1646,59.9981333803,MAFE4ImagesEEG,001,103068,
AMSA21.JPG,AMNE22.JPG,AMNE21.JPG,AMSA23.JPG,AMSA22.JPG,AMNE23.JPG,,,,,,,,,0,7,7,1,,,,,,,,,,,,,,,AMSA12.jpg,AMSA08.jpg,AMNE10.jpg,AMNE15.jpg,AMNE10.jpg,MN,1,num_2,16,num_2,0.76675357623,,,2018_Feb_14_1646,59.9981333803,MAFE4ImagesEEG,001,103068,
AFSA21.JPG,AFNE23.JPG,AFNE21.JPG,AFSA25.JPG,AFNE25.JPG,AFSA23.JPG,,,,,,,,,0,8,8,4,,,,,,,,,,,,,,,AMSA10.jpg,AMNE11.jpg,AMNE07.jpg,AMSA16.jpg,AMNE07.jpg,MN,1,num_2,32,num_6,1.08347079693,,,2018_Feb_14_1646,59.9981333803,MAFE4ImagesEEG,001,103068,
AMNE23.JPG,AMNE24.JPG,AMNE22.JPG,AMSA24.JPG,AMSA22.JPG,AMSA23.JPG,,,,,,,,,0,9,9,9,,,,,,,,,,,,,,,AMSA03.jpg,AMNE06.jpg,AMNE15.jpg,AMSA08.jpg,AMNE15.jpg,MN,1,num_2,32,num_4,1.45006201486,,,2018_Feb_14_1646,59.9981333803,MAFE4ImagesEEG,001,103068,
AMSA25.JPG,AMNE24.JPG,AMSA24.JPG,AMNE26.JPG,AMSA21.JPG,AMNE25.JPG,,,,,,,,,,,,,0,0,0,3,,,,,,,,,,,AFSA02.jpg,AFNE18.jpg,AFNE14.jpg,AFSA07.jpg,AFNE14.jpg,FN,3,num_2,32,num_6,1.90005378798,,,2018_Feb_14_1646,59.9981333803,MAFE4ImagesEEG,001,103068,
AFNE22.JPG,AFSA24.JPG,AFSA22.JPG,AFNE25.JPG,AFNE24.JPG,AFSA25.JPG,,,,,,,,,,,,,0,1,1,6,,,,,,,,,,,AFSA02.jpg,AFNE15.jpg,AFSA13.jpg,AFNE02.jpg,AFSA02.jpg,FS,4,num_8,32,num_4,0.766768971691,,,2018_Feb_14_1646,59.9981333803,MAFE4ImagesEEG,001,103068,
AFSA21.JPG,AFNE22.JPG,AFNE21.JPG,AFSA23.JPG,AFSA22.JPG,AFNE23.JPG,,,,,,,,,,,,,0,2,2,0,,,,,,,,,,,AFSA03.jpg,AFNE01.jpg,AFSA01.jpg,AFNE13.jpg,AFNE13.jpg,FN,3,num_4,16,num_4,2.19987125508,,,2018_Feb_14_1646,59.9981333803,MAFE4ImagesEEG,001,103068,
AFSA25.JPG,AFNE24.JPG,AFSA24.JPG,AFNE21.JPG,AFSA21.JPG,AFNE25.JPG,,,,,,,,,,,,,0,3,3,2,,,,,,,,,,,AFNE04.jpg,AFNE20.jpg,AFSA17.jpg,AFSA03.jpg,AFSA03.jpg,FS,4,num_4,16,num_4,1.13342209253,,,2018_Feb_14_1646,59.9981333803,MAFE4ImagesEEG,001,103068,
AFSA21.JPG,AFNE23.JPG,AFNE21.JPG,AFSA25.JPG,AFNE25.JPG,AFSA23.JPG,,,,,,,,,,,,,0,4,4,4,,,,,,,,,,,AFNE16.jpg,AFSA20.jpg,AFNE14.jpg,AFSA17.jpg,AFSA17.jpg,FS,4,num_4,32,num_6,0.600121175405,,,2018_Feb_14_1646,59.9981333803,MAFE4ImagesEEG,001,103068,
AMNE23.JPG,AMNE24.JPG,AMNE22.JPG,AMSA24.JPG,AMSA22.JPG,AMSA23.JPG,,,,,,,,,,,,,0,5,5,9,,,,,,,,,,,AFNE15.jpg,AFSA05.jpg,AFSA12.jpg,AFNE18.jpg,AFNE18.jpg,FN,3,num_4,32,num_6,1.25013206434,,,2018_Feb_14_1646,59.9981333803,MAFE4ImagesEEG,001,103068,
AMNE22.JPG,AMSA24.JPG,AMSA22.JPG,AMNE25.JPG,AMNE24.JPG,AMSA25.JPG,,,,,,,,,,,,,0,6,6,7,,,,,,,,,,,AFSA03.jpg,AFNE16.jpg,AFSA16.jpg,AFNE10.jpg,AFNE16.jpg,FN,3,num_6,32,num_4,1.13345448719,,,2018_Feb_14_1646,59.9981333803,MAFE4ImagesEEG,001,103068,
AMSA21.JPG,AMNE22.JPG,AMNE21.JPG,AMSA23.JPG,AMSA22.JPG,AMNE23.JPG,,,,,,,,,,,,,0,7,7,1,,,,,,,,,,,AFNE05.jpg,AFSA04.jpg,AFNE16.jpg,AFSA19.jpg,AFNE16.jpg,FN,3,num_2,16,num_2,2.93330899975,,,2018_Feb_14_1646,59.9981333803,MAFE4ImagesEEG,001,103068,
AMSA21.JPG,AMNE23.JPG,AMNE21.JPG,AMSA25.JPG,AMNE25.JPG,AMSA23.JPG,,,,,,,,,,,,,0,8,8,5,,,,,,,,,,,AFNE01.jpg,AFNE14.jpg,AFSA02.jpg,AFSA16.jpg,AFSA16.jpg,FS,4,num_4,16,num_4,2.86663564038,,,2018_Feb_14_1646,59.9981333803,MAFE4ImagesEEG,001,103068,
AFNE23.JPG,AFNE24.JPG,AFNE22.JPG,AFSA24.JPG,AFSA22.JPG,AFSA23.JPG,,,,,,,,,,,,,0,9,9,8,,,,,,,,,,,AFSA02.jpg,AFSA07.jpg,AFNE17.jpg,AFNE06.jpg,AFNE06.jpg,FN,3,num_4,32,num_8,1.38339859853,,,2018_Feb_14_1646,59.9981333803,MAFE4ImagesEEG,001,103068,
AFSA25.JPG,AFNE24.JPG,AFSA24.JPG,AFNE21.JPG,AFSA21.JPG,AFNE25.JPG,,,,,,,,,,,,,,,,,0,0,0,2,,,,,,,AMNE13.jpg,AMNE06.jpg,AMSA07.jpg,AMSA17.jpg,AMNE13.jpg,MN,1,num_8,32,num_4,1.55011503329,,,2018_Feb_14_1646,59.9981333803,MAFE4ImagesEEG,001,103068,
AFSA21.JPG,AFNE23.JPG,AFNE21.JPG,AFSA25.JPG,AFNE25.JPG,AFSA23.JPG,,,,,,,,,,,,,,,,,0,1,1,4,,,,,,,AMNE09.jpg,AMNE17.jpg,AMSA02.jpg,AMSA07.jpg,AMNE09.jpg,MN,1,num_8,32,num_2,1.03329562489,,,2018_Feb_14_1646,59.9981333803,MAFE4ImagesEEG,001,103068,
AFSA21.JPG,AFNE22.JPG,AFNE21.JPG,AFSA23.JPG,AFSA22.JPG,AFNE23.JPG,,,,,,,,,,,,,,,,,0,2,2,0,,,,,,,AMNE07.jpg,AMSA15.jpg,AMSA03.jpg,AMNE18.jpg,AMSA15.jpg,MS,2,num_6,32,num_2,1.11683666403,,,2018_Feb_14_1646,59.9981333803,MAFE4ImagesEEG,001,103068,
AMSA21.JPG,AMNE23.JPG,AMNE21.JPG,AMSA25.JPG,AMNE25.JPG,AMSA23.JPG,,,,,,,,,,,,,,,,,0,3,3,5,,,,,,,AMSA20.jpg,AMNE03.jpg,AMNE02.jpg,AMSA05.jpg,AMNE03.jpg,MN,1,num_6,32,num_4,1.08348202286,,,2018_Feb_14_1646,59.9981333803,MAFE4ImagesEEG,001,103068,
AMNE22.JPG,AMSA24.JPG,AMSA22.JPG,AMNE25.JPG,AMNE24.JPG,AMSA25.JPG,,,,,,,,,,,,,,,,,0,4,4,7,,,,,,,AMNE19.jpg,AMNE14.jpg,AMSA20.jpg,AMSA03.jpg,AMNE14.jpg,MN,1,num_6,32,num_8,1.18342855549,,,2018_Feb_14_1646,59.9981333803,MAFE4ImagesEEG,001,103068,
AMSA25.JPG,AMNE24.JPG,AMSA24.JPG,AMNE26.JPG,AMSA21.JPG,AMNE25.JPG,,,,,,,,,,,,,,,,,0,5,5,3,,,,,,,AMSA08.jpg,AMNE12.jpg,AMNE09.jpg,AMSA19.jpg,AMSA19.jpg,MS,2,num_4,32,num_8,1.43338902434,,,2018_Feb_14_1646,59.9981333803,MAFE4ImagesEEG,001,103068,
AFNE23.JPG,AFNE24.JPG,AFNE22.JPG,AFSA24.JPG,AFSA22.JPG,AFSA23.JPG,,,,,,,,,,,,,,,,,0,6,6,8,,,,,,,AMSA09.jpg,AMNE08.jpg,AMNE05.jpg,AMSA02.jpg,AMNE05.jpg,MN,1,num_2,32,num_4,0.833470556419,,,2018_Feb_14_1646,59.9981333803,MAFE4ImagesEEG,001,103068,
AFNE22.JPG,AFSA24.JPG,AFSA22.JPG,AFNE25.JPG,AFNE24.JPG,AFSA25.JPG,,,,,,,,,,,,,,,,,0,7,7,6,,,,,,,AMNE13.jpg,AMSA10.jpg,AMSA09.jpg,AMNE02.jpg,AMNE13.jpg,MN,1,num_8,16,num_8,1.4500793349,,,2018_Feb_14_1646,59.9981333803,MAFE4ImagesEEG,001,103068,
AMNE23.JPG,AMNE24.JPG,AMNE22.JPG,AMSA24.JPG,AMSA22.JPG,AMSA23.JPG,,,,,,,,,,,,,,,,,0,8,8,9,,,,,,,AMSA08.jpg,AMNE17.jpg,AMSA04.jpg,AMNE19.jpg,AMNE19.jpg,MN,1,num_4,32,num_6,0.633542530239,,,2018_Feb_14_1646,59.9981333803,MAFE4ImagesEEG,001,103068,
AMSA21.JPG,AMNE22.JPG,AMNE21.JPG,AMSA23.JPG,AMSA22.JPG,AMNE23.JPG,,,,,,,,,,,,,,,,,0,9,9,1,,,,,,,AMSA01.jpg,AMSA20.jpg,AMNE20.jpg,AMNE13.jpg,AMNE13.jpg,MN,1,num_4,32,num_6,1.83336791978,,,2018_Feb_14_1646,59.9981333803,MAFE4ImagesEEG,001,103068,
AFSA21.JPG,AFNE22.JPG,AFNE21.JPG,AFSA23.JPG,AFSA22.JPG,AFNE23.JPG,,,,,,,,,,,,,,,,,,,,,0,0,0,0,,,AFSA02.jpg,AFNE04.jpg,AFSA11.jpg,AFNE10.jpg,AFSA11.jpg,FS,4,num_2,16,num_2,1.16678795964,,,2018_Feb_14_1646,59.9981333803,MAFE4ImagesEEG,001,103068,
AFNE23.JPG,AFNE24.JPG,AFNE22.JPG,AFSA24.JPG,AFSA22.JPG,AFSA23.JPG,,,,,,,,,,,,,,,,,,,,,0,1,1,8,,,AFNE20.jpg,AFNE18.jpg,AFSA10.jpg,AFSA03.jpg,AFSA10.jpg,FS,4,num_2,32,num_4,1.21674085897,,,2018_Feb_14_1646,59.9981333803,MAFE4ImagesEEG,001,103068,
AFSA25.JPG,AFNE24.JPG,AFSA24.JPG,AFNE21.JPG,AFSA21.JPG,AFNE25.JPG,,,,,,,,,,,,,,,,,,,,,0,2,2,2,,,AFNE17.jpg,AFSA17.jpg,AFSA15.jpg,AFNE09.jpg,AFNE17.jpg,FN,3,num_8,32,num_4,1.05010974105,,,2018_Feb_14_1646,59.9981333803,MAFE4ImagesEEG,001,103068,
AMSA21.JPG,AMNE23.JPG,AMNE21.JPG,AMSA25.JPG,AMNE25.JPG,AMSA23.JPG,,,,,,,,,,,,,,,,,,,,,0,3,3,5,,,AFSA13.jpg,AFNE20.jpg,AFNE04.jpg,AFSA07.jpg,AFNE04.jpg,FN,3,num_2,32,num_4,0.833446821664,,,2018_Feb_14_1646,59.9981333803,MAFE4ImagesEEG,001,103068,
AFNE22.JPG,AFSA24.JPG,AFSA22.JPG,AFNE25.JPG,AFNE24.JPG,AFSA25.JPG,,,,,,,,,,,,,,,,,,,,,0,4,4,6,,,AFSA05.jpg,AFNE16.jpg,AFNE08.jpg,AFSA02.jpg,AFNE08.jpg,FN,3,num_2,32,num_4,3.01640036213,,,2018_Feb_14_1646,59.9981333803,MAFE4ImagesEEG,001,103068,
AFSA21.JPG,AFNE23.JPG,AFNE21.JPG,AFSA25.JPG,AFNE25.JPG,AFSA23.JPG,,,,,,,,,,,,,,,,,,,,,0,5,5,4,,,AFNE10.jpg,AFNE08.jpg,AFSA10.jpg,AFSA12.jpg,AFSA10.jpg,FS,4,num_2,32,num_8,0.650192106841,,,2018_Feb_14_1646,59.9981333803,MAFE4ImagesEEG,001,103068,
AMNE22.JPG,AMSA24.JPG,AMSA22.JPG,AMNE25.JPG,AMNE24.JPG,AMSA25.JPG,,,,,,,,,,,,,,,,,,,,,0,6,6,7,,,AFSA01.jpg,AFSA10.jpg,AFNE12.jpg,AFNE06.jpg,AFSA01.jpg,FS,4,num_8,32,num_4,0.716794261942,,,2018_Feb_14_1646,59.9981333803,MAFE4ImagesEEG,001,103068,
AMNE23.JPG,AMNE24.JPG,AMNE22.JPG,AMSA24.JPG,AMSA22.JPG,AMSA23.JPG,,,,,,,,,,,,,,,,,,,,,0,7,7,9,,,AFNE05.jpg,AFSA18.jpg,AFNE03.jpg,AFSA12.jpg,AFNE05.jpg,FN,3,num_8,32,num_2,1.61670211353,,,2018_Feb_14_1646,59.9981333803,MAFE4ImagesEEG,001,103068,
AMSA25.JPG,AMNE24.JPG,AMSA24.JPG,AMNE26.JPG,AMSA21.JPG,AMNE25.JPG,,,,,,,,,,,,,,,,,,,,,0,8,8,3,,,AFSA05.jpg,AFNE13.jpg,AFSA12.jpg,AFNE18.jpg,AFNE13.jpg,FN,3,num_6,32,num_8,2.16671483102,,,2018_Feb_14_1646,59.9981333803,MAFE4ImagesEEG,001,103068,
AMSA21.JPG,AMNE22.JPG,AMNE21.JPG,AMSA23.JPG,AMSA22.JPG,AMNE23.JPG,,,,,,,,,,,,,,,,,,,,,0,9,9,1,,,AFNE17.jpg,AFSA08.jpg,AFSA02.jpg,AFNE02.jpg,AFSA08.jpg,FS,4,num_6,16,num_6,1.21676619723,,,2018_Feb_14_1646,59.9981333803,MAFE4ImagesEEG,001,103068,
,,,,,,,,,,,,,,,,,,,,,,,,,,,,,,,,,,,,,,,,,,,space,7.86622124538,2018_Feb_14_1646,59.9981333803,MAFE4ImagesEEG,001,103068,
AFNE01.JPG,AFNE01.JPG,AFNE01.JPG,AFNE01.JPG,AFNE01.JPG,AFNE01.JPG,0,0,0,8,,,,,,,,,,,,,,,,,,,,,,,AMSA02.jpg,AMNE02.jpg,AMNE01.jpg,AMSA09.jpg,AMNE01.jpg,MN,1,num_2,32,num_8,1.23345073452,,,2018_Feb_14_1646,59.9981333803,MAFE4ImagesEEG,001,103068,
AFNE01.JPG,AFNE01.JPG,AFNE01.JPG,AFNE01.JPG,AFNE01.JPG,AFNE01.JPG,0,1,1,1,,,,,,,,,,,,,,,,,,,,,,,AMNE19.jpg,AMSA01.jpg,AMSA18.jpg,AMNE12.jpg,AMNE12.jpg,MN,1,num_4,32,num_8,0.98350790632,,,2018_Feb_14_1646,59.9981333803,MAFE4ImagesEEG,001,103068,
AFNE01.JPG,AFNE01.JPG,AFNE01.JPG,AFNE01.JPG,AFNE01.JPG,AFNE01.JPG,0,2,2,7,,,,,,,,,,,,,,,,,,,,,,,AMSA17.jpg,AMNE02.jpg,AMNE12.jpg,AMSA04.jpg,AMNE12.jpg,MN,1,num_2,32,num_8,1.15005531162,,,2018_Feb_14_1646,59.9981333803,MAFE4ImagesEEG,001,103068,
AFNE01.JPG,AFNE01.JPG,AFNE01.JPG,AFNE01.JPG,AFNE01.JPG,AFNE01.JPG,0,3,3,5,,,,,,,,,,,,,,,,,,,,,,,AMNE16.jpg,AMSA02.jpg,AMNE02.jpg,AMSA06.jpg,AMNE16.jpg,MN,1,num_8,32,num_6,1.95002432796,,,2018_Feb_14_1646,59.9981333803,MAFE4ImagesEEG,001,103068,
AFNE01.JPG,AFNE01.JPG,AFNE01.JPG,AFNE01.JPG,AFNE01.JPG,AFNE01.JPG,0,4,4,0,,,,,,,,,,,,,,,,,,,,,,,AMSA13.jpg,AMSA04.jpg,AMNE14.jpg,AMNE04.jpg,AMNE14.jpg,MN,1,num_2,16,num_2,1.71668938035,,,2018_Feb_14_1646,59.9981333803,MAFE4ImagesEEG,001,103068,
AFNE01.JPG,AFNE01.JPG,AFNE01.JPG,AFNE01.JPG,AFNE01.JPG,AFNE01.JPG,0,5,5,4,,,,,,,,,,,,,,,,,,,,,,,AMNE04.jpg,AMNE18.jpg,AMSA04.jpg,AMSA05.jpg,AMSA04.jpg,MS,2,num_2,32,num_8,1.00024023373,,,2018_Feb_14_1646,59.9981333803,MAFE4ImagesEEG,001,103068,
AFNE01.JPG,AFNE01.JPG,AFNE01.JPG,AFNE01.JPG,AFNE01.JPG,AFNE01.JPG,0,6,6,3,,,,,,,,,,,,,,,,,,,,,,,AMSA02.jpg,AMNE02.jpg,AMNE20.jpg,AMSA01.jpg,AMNE02.jpg,MN,1,num_6,32,num_4,0.850092228502,,,2018_Feb_14_1646,59.9981333803,MAFE4ImagesEEG,001,103068,
AFNE01.JPG,AFNE01.JPG,AFNE01.JPG,AFNE01.JPG,AFNE01.JPG,AFNE01.JPG,0,7,7,6,,,,,,,,,,,,,,,,,,,,,,,AMSA14.jpg,AMNE14.jpg,AMSA07.jpg,AMNE13.jpg,AMSA14.jpg,MS,2,num_8,32,num_6,1.00011097593,,,2018_Feb_14_1646,59.9981333803,MAFE4ImagesEEG,001,103068,
AFNE01.JPG,AFNE01.JPG,AFNE01.JPG,AFNE01.JPG,AFNE01.JPG,AFNE01.JPG,0,8,8,9,,,,,,,,,,,,,,,,,,,,,,,AMSA09.jpg,AMNE11.jpg,AMSA17.jpg,AMNE07.jpg,AMSA09.jpg,MS,2,num_8,32,num_4,1.1335045225,,,2018_Feb_14_1646,59.9981333803,MAFE4ImagesEEG,001,103068,
AFNE01.JPG,AFNE01.JPG,AFNE01.JPG,AFNE01.JPG,AFNE01.JPG,AFNE01.JPG,0,9,9,2,,,,,,,,,,,,,,,,,,,,,,,AMSA19.jpg,AMNE09.jpg,AMNE07.jpg,AMSA09.jpg,AMSA19.jpg,MS,2,num_8,32,num_4,1.78339353064,,,2018_Feb_14_1646,59.9981333803,MAFE4ImagesEEG,001,103068,
AFNE01.JPG,AFNE01.JPG,AFNE01.JPG,AFNE01.JPG,AFNE01.JPG,AFNE01.JPG,1,0,10,3,,,,,,,,,,,,,,,,,,,,,,,AMSA03.jpg,AMNE04.jpg,AMNE01.jpg,AMSA08.jpg,AMSA03.jpg,MS,2,num_8,32,num_4,0.899927737424,,,2018_Feb_14_1646,59.9981333803,MAFE4ImagesEEG,001,103068,
AFNE01.JPG,AFNE01.JPG,AFNE01.JPG,AFNE01.JPG,AFNE01.JPG,AFNE01.JPG,1,1,11,6,,,,,,,,,,,,,,,,,,,,,,,AMNE13.jpg,AMSA03.jpg,AMNE19.jpg,AMSA11.jpg,AMSA11.jpg,MS,2,num_4,32,num_6,0.533462569816,,,2018_Feb_14_1646,59.9981333803,MAFE4ImagesEEG,001,103068,
AFNE01.JPG,AFNE01.JPG,AFNE01.JPG,AFNE01.JPG,AFNE01.JPG,AFNE01.JPG,1,2,12,1,,,,,,,,,,,,,,,,,,,,,,,AMSA10.jpg,AMNE05.jpg,AMNE04.jpg,AMSA09.jpg,AMNE05.jpg,MN,1,num_6,32,num_2,2.05008151592,,,2018_Feb_14_1646,59.9981333803,MAFE4ImagesEEG,001,103068,
AFNE01.JPG,AFNE01.JPG,AFNE01.JPG,AFNE01.JPG,AFNE01.JPG,AFNE01.JPG,1,3,13,8,,,,,,,,,,,,,,,,,,,,,,,AMNE10.jpg,AMSA17.jpg,AMNE08.jpg,AMSA08.jpg,AMNE10.jpg,MN,1,num_8,32,num_4,0.983448248822,,,2018_Feb_14_1646,59.9981333803,MAFE4ImagesEEG,001,103068,
AFNE01.JPG,AFNE01.JPG,AFNE01.JPG,AFNE01.JPG,AFNE01.JPG,AFNE01.JPG,1,4,14,5,,,,,,,,,,,,,,,,,,,,,,,AMNE12.jpg,AMSA08.jpg,AMSA04.jpg,AMNE15.jpg,AMSA08.jpg,MS,2,num_6,16,num_6,1.10004788637,,,2018_Feb_14_1646,59.9981333803,MAFE4ImagesEEG,001,103068,
AFNE01.JPG,AFNE01.JPG,AFNE01.JPG,AFNE01.JPG,AFNE01.JPG,AFNE01.JPG,1,5,15,0,,,,,,,,,,,,,,,,,,,,,,,AMSA08.jpg,AMNE09.jpg,AMSA16.jpg,AMNE20.jpg,AMNE20.jpg,MN,1,num_4,16,num_4,0.933300981531,,,2018_Feb_14_1646,59.9981333803,MAFE4ImagesEEG,001,103068,
AFNE01.JPG,AFNE01.JPG,AFNE01.JPG,AFNE01.JPG,AFNE01.JPG,AFNE01.JPG,1,6,16,2,,,,,,,,,,,,,,,,,,,,,,,AMSA11.jpg,AMSA06.jpg,AMNE03.jpg,AMNE20.jpg,AMSA11.jpg,MS,2,num_8,16,num_8,1.15010213945,,,2018_Feb_14_1646,59.9981333803,MAFE4ImagesEEG,001,103068,
AFNE01.JPG,AFNE01.JPG,AFNE01.JPG,AFNE01.JPG,AFNE01.JPG,AFNE01.JPG,1,7,17,4,,,,,,,,,,,,,,,,,,,,,,,AMSA12.jpg,AMSA03.jpg,AMNE12.jpg,AMNE01.jpg,AMNE01.jpg,MN,1,num_4,16,num_4,1.03342616605,,,2018_Feb_14_1646,59.9981333803,MAFE4ImagesEEG,001,103068,
AFNE01.JPG,AFNE01.JPG,AFNE01.JPG,AFNE01.JPG,AFNE01.JPG,AFNE01.JPG,1,8,18,9,,,,,,,,,,,,,,,,,,,,,,,AMSA20.jpg,AMSA07.jpg,AMNE14.jpg,AMNE13.jpg,AMSA20.jpg,MS,2,num_8,32,num_4,1.23340807646,,,2018_Feb_14_1646,59.9981333803,MAFE4ImagesEEG,001,103068,
AFNE01.JPG,AFNE01.JPG,AFNE01.JPG,AFNE01.JPG,AFNE01.JPG,AFNE01.JPG,1,9,19,7,,,,,,,,,,,,,,,,,,,,,,,AMNE10.jpg,AMSA02.jpg,AMNE19.jpg,AMSA05.jpg,AMSA02.jpg,MS,2,num_6,32,num_4,0.983500850154,,,2018_Feb_14_1646,59.9981333803,MAFE4ImagesEEG,001,103068,
AFNE01.JPG,AFNE01.JPG,AFNE01.JPG,AFNE01.JPG,AFNE01.JPG,AFNE01.JPG,2,0,20,4,,,,,,,,,,,,,,,,,,,,,,,AMNE13.jpg,AMNE02.jpg,AMSA05.jpg,AMSA19.jpg,AMNE02.jpg,MN,1,num_6,16,num_6,0.966737411218,,,2018_Feb_14_1646,59.9981333803,MAFE4ImagesEEG,001,103068,
AFNE01.JPG,AFNE01.JPG,AFNE01.JPG,AFNE01.JPG,AFNE01.JPG,AFNE01.JPG,2,1,21,1,,,,,,,,,,,,,,,,,,,,,,,AMNE14.jpg,AMNE04.jpg,AMSA05.jpg,AMSA17.jpg,AMSA05.jpg,MS,2,num_2,32,num_8,0.900170537177,,,2018_Feb_14_1646,59.9981333803,MAFE4ImagesEEG,001,103068,
AFNE01.JPG,AFNE01.JPG,AFNE01.JPG,AFNE01.JPG,AFNE01.JPG,AFNE01.JPG,2,2,22,7,,,,,,,,,,,,,,,,,,,,,,,AMNE08.jpg,AMNE16.jpg,AMSA07.jpg,AMSA17.jpg,AMSA07.jpg,MS,2,num_2,32,num_4,0.833449708298,,,2018_Feb_14_1646,59.9981333803,MAFE4ImagesEEG,001,103068,
AFNE01.JPG,AFNE01.JPG,AFNE01.JPG,AFNE01.JPG,AFNE01.JPG,AFNE01.JPG,2,3,23,3,,,,,,,,,,,,,,,,,,,,,,,AMSA10.jpg,AMSA07.jpg,AMNE20.jpg,AMNE08.jpg,AMNE20.jpg,MN,1,num_2,32,num_6,0.733466290403,,,2018_Feb_14_1646,59.9981333803,MAFE4ImagesEEG,001,103068,
AFNE01.JPG,AFNE01.JPG,AFNE01.JPG,AFNE01.JPG,AFNE01.JPG,AFNE01.JPG,2,4,24,6,,,,,,,,,,,,,,,,,,,,,,,AMSA09.jpg,AMNE18.jpg,AMSA14.jpg,AMNE14.jpg,AMNE18.jpg,MN,1,num_6,32,num_8,1.40009756875,,,2018_Feb_14_1646,59.9981333803,MAFE4ImagesEEG,001,103068,
AFNE01.JPG,AFNE01.JPG,AFNE01.JPG,AFNE01.JPG,AFNE01.JPG,AFNE01.JPG,2,5,25,0,,,,,,,,,,,,,,,,,,,,,,,AMNE02.jpg,AMSA09.jpg,AMNE18.jpg,AMSA14.jpg,AMNE02.jpg,MN,1,num_8,32,num_2,1.25008138758,,,2018_Feb_14_1646,59.9981333803,MAFE4ImagesEEG,001,103068,
AFNE01.JPG,AFNE01.JPG,AFNE01.JPG,AFNE01.JPG,AFNE01.JPG,AFNE01.JPG,2,6,26,9,,,,,,,,,,,,,,,,,,,,,,,AMNE03.jpg,AMSA13.jpg,AMSA14.jpg,AMNE12.jpg,AMSA14.jpg,MS,2,num_2,32,num_4,1.15010181861,,,2018_Feb_14_1646,59.9981333803,MAFE4ImagesEEG,001,103068,
AFNE01.JPG,AFNE01.JPG,AFNE01.JPG,AFNE01.JPG,AFNE01.JPG,AFNE01.JPG,2,7,27,2,,,,,,,,,,,,,,,,,,,,,,,AMSA05.jpg,AMNE02.jpg,AMSA09.jpg,AMNE01.jpg,AMNE02.jpg,MN,1,num_6,16,num_6,0.883408060065,,,2018_Feb_14_1646,59.9981333803,MAFE4ImagesEEG,001,103068,
AFNE01.JPG,AFNE01.JPG,AFNE01.JPG,AFNE01.JPG,AFNE01.JPG,AFNE01.JPG,2,8,28,8,,,,,,,,,,,,,,,,,,,,,,,AMNE20.jpg,AMSA07.jpg,AMNE15.jpg,AMSA01.jpg,AMNE15.jpg,MN,1,num_2,32,num_4,2.16670392593,,,2018_Feb_14_1646,59.9981333803,MAFE4ImagesEEG,001,103068,
AFNE01.JPG,AFNE01.JPG,AFNE01.JPG,AFNE01.JPG,AFNE01.JPG,AFNE01.JPG,2,9,29,5,,,,,,,,,,,,,,,,,,,,,,,AMNE03.jpg,AMNE16.jpg,AMSA10.jpg,AMSA02.jpg,AMNE16.jpg,MN,1,num_6,32,num_4,1.36672304175,,,2018_Feb_14_1646,59.9981333803,MAFE4ImagesEEG,001,103068,
AFNE01.JPG,AFNE01.JPG,AFNE01.JPG,AFNE01.JPG,AFNE01.JPG,AFNE01.JPG,3,0,30,3,,,,,,,,,,,,,,,,,,,,,,,AMSA16.jpg,AMSA05.jpg,AMNE12.jpg,AMNE17.jpg,AMSA05.jpg,MS,2,num_6,32,num_2,1.35018861084,,,2018_Feb_14_1646,59.9981333803,MAFE4ImagesEEG,001,103068,
AFNE01.JPG,AFNE01.JPG,AFNE01.JPG,AFNE01.JPG,AFNE01.JPG,AFNE01.JPG,3,1,31,0,,,,,,,,,,,,,,,,,,,,,,,AMSA15.jpg,AMNE12.jpg,AMNE16.jpg,AMSA02.jpg,AMNE16.jpg,MN,1,num_2,32,num_6,0.850123340264,,,2018_Feb_14_1646,59.9981333803,MAFE4ImagesEEG,001,103068,
AFNE01.JPG,AFNE01.JPG,AFNE01.JPG,AFNE01.JPG,AFNE01.JPG,AFNE01.JPG,3,2,32,7,,,,,,,,,,,,,,,,,,,,,,,AMNE06.jpg,AMSA07.jpg,AMNE04.jpg,AMSA16.jpg,AMNE04.jpg,MN,1,num_2,16,num_2,0.600173135055,,,2018_Feb_14_1646,59.9981333803,MAFE4ImagesEEG,001,103068,
AFNE01.JPG,AFNE01.JPG,AFNE01.JPG,AFNE01.JPG,AFNE01.JPG,AFNE01.JPG,3,3,33,1,,,,,,,,,,,,,,,,,,,,,,,AMSA15.jpg,AMSA11.jpg,AMNE14.jpg,AMNE03.jpg,AMSA11.jpg,MS,2,num_6,32,num_4,1.7000648214,,,2018_Feb_14_1646,59.9981333803,MAFE4ImagesEEG,001,103068,
AFNE01.JPG,AFNE01.JPG,AFNE01.JPG,AFNE01.JPG,AFNE01.JPG,AFNE01.JPG,3,4,34,5,,,,,,,,,,,,,,,,,,,,,,,AMNE06.jpg,AMNE07.jpg,AMSA13.jpg,AMSA18.jpg,AMNE06.jpg,MN,1,num_8,32,num_6,0.816759397741,,,2018_Feb_14_1646,59.9981333803,MAFE4ImagesEEG,001,103068,
AFNE01.JPG,AFNE01.JPG,AFNE01.JPG,AFNE01.JPG,AFNE01.JPG,AFNE01.JPG,3,5,35,9,,,,,,,,,,,,,,,,,,,,,,,AMSA19.jpg,AMNE09.jpg,AMSA12.jpg,AMNE04.jpg,AMNE04.jpg,MN,1,num_4,32,num_2,1.15016436297,,,2018_Feb_14_1646,59.9981333803,MAFE4ImagesEEG,001,103068,
AFNE01.JPG,AFNE01.JPG,AFNE01.JPG,AFNE01.JPG,AFNE01.JPG,AFNE01.JPG,3,6,36,2,,,,,,,,,,,,,,,,,,,,,,,AMSA08.jpg,AMSA07.jpg,AMNE18.jpg,AMNE02.jpg,AMSA07.jpg,MS,2,num_6,32,num_4,1.84990908648,,,2018_Feb_14_1646,59.9981333803,MAFE4ImagesEEG,001,103068,
AFNE01.JPG,AFNE01.JPG,AFNE01.JPG,AFNE01.JPG,AFNE01.JPG,AFNE01.JPG,3,7,37,6,,,,,,,,,,,,,,,,,,,,,,,AMNE18.jpg,AMSA11.jpg,AMNE05.jpg,AMSA17.jpg,AMSA17.jpg,MS,2,num_4,16,num_4,1.36672849441,,,2018_Feb_14_1646,59.9981333803,MAFE4ImagesEEG,001,103068,
AFNE01.JPG,AFNE01.JPG,AFNE01.JPG,AFNE01.JPG,AFNE01.JPG,AFNE01.JPG,3,8,38,8,,,,,,,,,,,,,,,,,,,,,,,AMNE12.jpg,AMSA08.jpg,AMNE06.jpg,AMSA11.jpg,AMSA11.jpg,MS,2,num_4,16,num_4,0.816837016493,,,2018_Feb_14_1646,59.9981333803,MAFE4ImagesEEG,001,103068,
AFNE01.JPG,AFNE01.JPG,AFNE01.JPG,AFNE01.JPG,AFNE01.JPG,AFNE01.JPG,3,9,39,4,,,,,,,,,,,,,,,,,,,,,,,AMSA08.jpg,AMSA18.jpg,AMNE09.jpg,AMNE05.jpg,AMNE05.jpg,MN,1,num_4,32,num_8,2.05002121697,,,2018_Feb_14_1646,59.9981333803,MAFE4ImagesEEG,001,103068,
AFNE01.JPG,AFNE01.JPG,AFNE01.JPG,AFNE01.JPG,AFNE01.JPG,AFNE01.JPG,4,0,40,7,,,,,,,,,,,,,,,,,,,,,,,AMSA16.jpg,AMNE05.jpg,AMNE03.jpg,AMSA04.jpg,AMNE05.jpg,MN,1,num_6,16,num_6,0.600194304017,,,2018_Feb_14_1646,59.9981333803,MAFE4ImagesEEG,001,103068,
AFNE01.JPG,AFNE01.JPG,AFNE01.JPG,AFNE01.JPG,AFNE01.JPG,AFNE01.JPG,4,1,41,5,,,,,,,,,,,,,,,,,,,,,,,AMSA19.jpg,AMNE12.jpg,AMSA17.jpg,AMNE20.jpg,AMNE20.jpg,MN,1,num_4,16,num_4,2.34985055146,,,2018_Feb_14_1646,59.9981333803,MAFE4ImagesEEG,001,103068,
AFNE01.JPG,AFNE01.JPG,AFNE01.JPG,AFNE01.JPG,AFNE01.JPG,AFNE01.JPG,4,2,42,6,,,,,,,,,,,,,,,,,,,,,,,AMNE17.jpg,AMSA11.jpg,AMSA06.jpg,AMNE20.jpg,AMNE20.jpg,MN,1,num_4,16,num_4,0.483569648815,,,2018_Feb_14_1646,59.9981333803,MAFE4ImagesEEG,001,103068,
AFNE01.JPG,AFNE01.JPG,AFNE01.JPG,AFNE01.JPG,AFNE01.JPG,AFNE01.JPG,4,3,43,3,,,,,,,,,,,,,,,,,,,,,,,AMNE01.jpg,AMSA09.jpg,AMSA10.jpg,AMNE20.jpg,AMNE20.jpg,MN,1,num_4,16,num_4,0.733431971399,,,2018_Feb_14_1646,59.9981333803,MAFE4ImagesEEG,001,103068,
AFNE01.JPG,AFNE01.JPG,AFNE01.JPG,AFNE01.JPG,AFNE01.JPG,AFNE01.JPG,4,4,44,8,,,,,,,,,,,,,,,,,,,,,,,AMSA07.jpg,AMSA01.jpg,AMNE04.jpg,AMNE05.jpg,AMNE04.jpg,MN,1,num_2,16,num_2,1.10008509201,,,2018_Feb_14_1646,59.9981333803,MAFE4ImagesEEG,001,103068,
AFNE01.JPG,AFNE01.JPG,AFNE01.JPG,AFNE01.JPG,AFNE01.JPG,AFNE01.JPG,4,5,45,4,,,,,,,,,,,,,,,,,,,,,,,AMSA18.jpg,AMNE10.jpg,AMNE03.jpg,AMSA13.jpg,AMSA13.jpg,MS,2,num_4,32,num_2,1.28341614292,,,2018_Feb_14_1646,59.9981333803,MAFE4ImagesEEG,001,103068,
AFNE01.JPG,AFNE01.JPG,AFNE01.JPG,AFNE01.JPG,AFNE01.JPG,AFNE01.JPG,4,6,46,0,,,,,,,,,,,,,,,,,,,,,,,AMNE17.jpg,AMSA05.jpg,AMNE08.jpg,AMSA02.jpg,AMNE08.jpg,MN,1,num_2,32,num_4,1.01680577686,,,2018_Feb_14_1646,59.9981333803,MAFE4ImagesEEG,001,103068,
AFNE01.JPG,AFNE01.JPG,AFNE01.JPG,AFNE01.JPG,AFNE01.JPG,AFNE01.JPG,4,7,47,2,,,,,,,,,,,,,,,,,,,,,,,AMNE08.jpg,AMNE01.jpg,AMSA20.jpg,AMSA05.jpg,AMNE01.jpg,MN,1,num_6,16,num_6,1.15010374319,,,2018_Feb_14_1646,59.9981333803,MAFE4ImagesEEG,001,103068,
AFNE01.JPG,AFNE01.JPG,AFNE01.JPG,AFNE01.JPG,AFNE01.JPG,AFNE01.JPG,4,8,48,1,,,,,,,,,,,,,,,,,,,,,,,AMNE12.jpg,AMSA13.jpg,AMNE20.jpg,AMSA04.jpg,AMNE12.jpg,MN,1,num_8,16,num_8,1.21674566995,,,2018_Feb_14_1646,59.9981333803,MAFE4ImagesEEG,001,103068,
AFNE01.JPG,AFNE01.JPG,AFNE01.JPG,AFNE01.JPG,AFNE01.JPG,AFNE01.JPG,4,9,49,9,,,,,,,,,,,,,,,,,,,,,,,AMSA08.jpg,AMSA05.jpg,AMNE08.jpg,AMNE10.jpg,AMSA05.jpg,MS,2,num_6,16,num_6,0.516791183036,,,2018_Feb_14_1646,59.9981333803,MAFE4ImagesEEG,001,103068,
AFNE01.JPG,AFNE01.JPG,AFNE01.JPG,AFNE01.JPG,AFNE01.JPG,AFNE01.JPG,5,0,50,3,,,,,,,,,,,,,,,,,,,,,,,AMSA16.jpg,AMSA07.jpg,AMNE16.jpg,AMNE02.jpg,AMSA16.jpg,MS,2,num_8,16,num_8,1.30010132142,,,2018_Feb_14_1646,59.9981333803,MAFE4ImagesEEG,001,103068,
AFNE01.JPG,AFNE01.JPG,AFNE01.JPG,AFNE01.JPG,AFNE01.JPG,AFNE01.JPG,5,1,51,5,,,,,,,,,,,,,,,,,,,,,,,AMNE06.jpg,AMSA18.jpg,AMNE15.jpg,AMSA16.jpg,AMSA18.jpg,MS,2,num_6,16,num_6,1.48344423948,,,2018_Feb_14_1646,59.9981333803,MAFE4ImagesEEG,001,103068,
AFNE01.JPG,AFNE01.JPG,AFNE01.JPG,AFNE01.JPG,AFNE01.JPG,AFNE01.JPG,5,2,52,9,,,,,,,,,,,,,,,,,,,,,,,AMSA10.jpg,AMNE20.jpg,AMNE18.jpg,AMSA17.jpg,AMNE18.jpg,MN,1,num_2,32,num_6,0.800160497893,,,2018_Feb_14_1646,59.9981333803,MAFE4ImagesEEG,001,103068,
AFNE01.JPG,AFNE01.JPG,AFNE01.JPG,AFNE01.JPG,AFNE01.JPG,AFNE01.JPG,5,3,53,7,,,,,,,,,,,,,,,,,,,,,,,AMNE13.jpg,AMSA12.jpg,AMNE12.jpg,AMSA05.jpg,AMSA05.jpg,MS,2,num_4,16,num_4,0.650161957368,,,2018_Feb_14_1646,59.9981333803,MAFE4ImagesEEG,001,103068,
AFNE01.JPG,AFNE01.JPG,AFNE01.JPG,AFNE01.JPG,AFNE01.JPG,AFNE01.JPG,5,4,54,6,,,,,,,,,,,,,,,,,,,,,,,AMSA18.jpg,AMNE18.jpg,AMSA13.jpg,AMNE12.jpg,AMNE18.jpg,MN,1,num_6,32,num_2,1.05008857208,,,2018_Feb_14_1646,59.9981333803,MAFE4ImagesEEG,001,103068,
AFNE01.JPG,AFNE01.JPG,AFNE01.JPG,AFNE01.JPG,AFNE01.JPG,AFNE01.JPG,5,5,55,0,,,,,,,,,,,,,,,,,,,,,,,AMNE09.jpg,AMSA17.jpg,AMSA13.jpg,AMNE03.jpg,AMNE03.jpg,MN,1,num_4,16,num_4,0.883469000692,,,2018_Feb_14_1646,59.9981333803,MAFE4ImagesEEG,001,103068,
AFNE01.JPG,AFNE01.JPG,AFNE01.JPG,AFNE01.JPG,AFNE01.JPG,AFNE01.JPG,5,6,56,8,,,,,,,,,,,,,,,,,,,,,,,AMNE05.jpg,AMSA16.jpg,AMNE20.jpg,AMSA05.jpg,AMSA05.jpg,MS,2,num_4,32,num_8,0.9167569282,,,2018_Feb_14_1646,59.9981333803,MAFE4ImagesEEG,001,103068,
AFNE01.JPG,AFNE01.JPG,AFNE01.JPG,AFNE01.JPG,AFNE01.JPG,AFNE01.JPG,5,7,57,4,,,,,,,,,,,,,,,,,,,,,,,AMNE20.jpg,AMSA16.jpg,AMSA01.jpg,AMNE19.jpg,AMNE19.jpg,MN,1,num_4,16,num_4,0.900155783165,,,2018_Feb_14_1646,59.9981333803,MAFE4ImagesEEG,001,103068,
AFNE01.JPG,AFNE01.JPG,AFNE01.JPG,AFNE01.JPG,AFNE01.JPG,AFNE01.JPG,5,8,58,1,,,,,,,,,,,,,,,,,,,,,,,AMSA13.jpg,AMNE18.jpg,AMSA01.jpg,AMNE09.jpg,AMNE18.jpg,MN,1,num_6,32,num_8,0.966758259106,,,2018_Feb_14_1646,59.9981333803,MAFE4ImagesEEG,001,103068,
AFNE01.JPG,AFNE01.JPG,AFNE01.JPG,AFNE01.JPG,AFNE01.JPG,AFNE01.JPG,5,9,59,2,,,,,,,,,,,,,,,,,,,,,,,AMSA11.jpg,AMNE03.jpg,AMNE10.jpg,AMSA06.jpg,AMNE03.jpg,MN,1,num_6,32,num_2,2.80020315642,,,2018_Feb_14_1646,59.9981333803,MAFE4ImagesEEG,001,103068,
,,,,,,,,,,,,,,,,,,,,,,,,,,,,,,,,,,,,,,,,,,,space,30.7477449621,2018_Feb_14_1646,59.9981333803,MAFE4ImagesEEG,001,103068,
AFNE01.JPG,AFNE01.JPG,AFNE01.JPG,AFNE01.JPG,AFNE01.JPG,AFNE01.JPG,,,,,0,0,0,3,,,,,,,,,,,,,,,,,,,AFSA13.jpg,AFSA05.jpg,AFNE11.jpg,AFNE04.jpg,AFNE04.jpg,FN,3,num_4,16,num_4,0.683483882807,,,2018_Feb_14_1646,59.9981333803,MAFE4ImagesEEG,001,103068,
AFNE01.JPG,AFNE01.JPG,AFNE01.JPG,AFNE01.JPG,AFNE01.JPG,AFNE01.JPG,,,,,0,1,1,0,,,,,,,,,,,,,,,,,,,AFNE08.jpg,AFNE09.jpg,AFSA07.jpg,AFSA12.jpg,AFSA12.jpg,FS,4,num_4,16,num_4,0.933442106703,,,2018_Feb_14_1646,59.9981333803,MAFE4ImagesEEG,001,103068,
AFNE01.JPG,AFNE01.JPG,AFNE01.JPG,AFNE01.JPG,AFNE01.JPG,AFNE01.JPG,,,,,0,2,2,6,,,,,,,,,,,,,,,,,,,AFNE18.jpg,AFNE14.jpg,AFSA06.jpg,AFSA20.jpg,AFNE14.jpg,FN,3,num_6,16,num_6,0.766762556974,,,2018_Feb_14_1646,59.9981333803,MAFE4ImagesEEG,001,103068,
AFNE01.JPG,AFNE01.JPG,AFNE01.JPG,AFNE01.JPG,AFNE01.JPG,AFNE01.JPG,,,,,0,3,3,7,,,,,,,,,,,,,,,,,,,AFSA10.jpg,AFNE17.jpg,AFNE11.jpg,AFSA01.jpg,AFNE17.jpg,FN,3,num_6,32,num_8,1.05016426649,,,2018_Feb_14_1646,59.9981333803,MAFE4ImagesEEG,001,103068,
AFNE01.JPG,AFNE01.JPG,AFNE01.JPG,AFNE01.JPG,AFNE01.JPG,AFNE01.JPG,,,,,0,4,4,9,,,,,,,,,,,,,,,,,,,AFSA11.jpg,AFNE03.jpg,AFNE11.jpg,AFSA09.jpg,AFSA09.jpg,FS,4,num_4,16,num_4,1.05008889292,,,2018_Feb_14_1646,59.9981333803,MAFE4ImagesEEG,001,103068,
AFNE01.JPG,AFNE01.JPG,AFNE01.JPG,AFNE01.JPG,AFNE01.JPG,AFNE01.JPG,,,,,0,5,5,4,,,,,,,,,,,,,,,,,,,AFSA17.jpg,AFNE07.jpg,AFSA08.jpg,AFNE11.jpg,AFNE11.jpg,FN,3,num_4,16,num_4,0.800108538009,,,2018_Feb_14_1646,59.9981333803,MAFE4ImagesEEG,001,103068,
AFNE01.JPG,AFNE01.JPG,AFNE01.JPG,AFNE01.JPG,AFNE01.JPG,AFNE01.JPG,,,,,0,6,6,1,,,,,,,,,,,,,,,,,,,AFSA07.jpg,AFSA05.jpg,AFNE15.jpg,AFNE10.jpg,AFSA05.jpg,FS,4,num_6,16,num_6,0.800137404585,,,2018_Feb_14_1646,59.9981333803,MAFE4ImagesEEG,001,103068,
AFNE01.JPG,AFNE01.JPG,AFNE01.JPG,AFNE01.JPG,AFNE01.JPG,AFNE01.JPG,,,,,0,7,7,2,,,,,,,,,,,,,,,,,,,AFNE01.jpg,AFSA07.jpg,AFNE13.jpg,AFSA03.jpg,AFNE13.jpg,FN,3,num_2,32,num_8,1.25006727525,,,2018_Feb_14_1646,59.9981333803,MAFE4ImagesEEG,001,103068,
AFNE01.JPG,AFNE01.JPG,AFNE01.JPG,AFNE01.JPG,AFNE01.JPG,AFNE01.JPG,,,,,0,8,8,8,,,,,,,,,,,,,,,,,,,AFNE07.jpg,AFSA17.jpg,AFNE09.jpg,AFSA18.jpg,AFNE07.jpg,FN,3,num_8,32,num_2,2.91659944504,,,2018_Feb_14_1646,59.9981333803,MAFE4ImagesEEG,001,103068,
AFNE01.JPG,AFNE01.JPG,AFNE01.JPG,AFNE01.JPG,AFNE01.JPG,AFNE01.JPG,,,,,0,9,9,5,,,,,,,,,,,,,,,,,,,AFSA15.jpg,AFNE15.jpg,AFSA07.jpg,AFNE13.jpg,AFNE15.jpg,FN,3,num_6,48,None,,,,2018_Feb_14_1646,59.9981333803,MAFE4ImagesEEG,001,103068,
AFNE01.JPG,AFNE01.JPG,AFNE01.JPG,AFNE01.JPG,AFNE01.JPG,AFNE01.JPG,,,,,1,0,10,8,,,,,,,,,,,,,,,,,,,AFSA10.jpg,AFNE05.jpg,AFNE19.jpg,AFSA08.jpg,AFNE05.jpg,FN,3,num_6,32,num_8,1.41645944235,,,2018_Feb_14_1646,59.9981333803,MAFE4ImagesEEG,001,103068,
AFNE01.JPG,AFNE01.JPG,AFNE01.JPG,AFNE01.JPG,AFNE01.JPG,AFNE01.JPG,,,,,1,1,11,5,,,,,,,,,,,,,,,,,,,AFNE06.jpg,AFSA04.jpg,AFNE02.jpg,AFSA05.jpg,AFNE06.jpg,FN,3,num_8,32,num_4,0.766772500006,,,2018_Feb_14_1646,59.9981333803,MAFE4ImagesEEG,001,103068,
AFNE01.JPG,AFNE01.JPG,AFNE01.JPG,AFNE01.JPG,AFNE01.JPG,AFNE01.JPG,,,,,1,2,12,9,,,,,,,,,,,,,,,,,,,AFSA10.jpg,AFNE14.jpg,AFNE01.jpg,AFSA18.jpg,AFSA10.jpg,FS,4,num_8,32,num_6,0.600112515502,,,2018_Feb_14_1646,59.9981333803,MAFE4ImagesEEG,001,103068,
AFNE01.JPG,AFNE01.JPG,AFNE01.JPG,AFNE01.JPG,AFNE01.JPG,AFNE01.JPG,,,,,1,3,13,1,,,,,,,,,,,,,,,,,,,AFSA15.jpg,AFNE03.jpg,AFNE16.jpg,AFSA10.jpg,AFNE03.jpg,FN,3,num_6,32,num_4,0.733528513927,,,2018_Feb_14_1646,59.9981333803,MAFE4ImagesEEG,001,103068,
AFNE01.JPG,AFNE01.JPG,AFNE01.JPG,AFNE01.JPG,AFNE01.JPG,AFNE01.JPG,,,,,1,4,14,6,,,,,,,,,,,,,,,,,,,AFNE15.jpg,AFSA05.jpg,AFNE05.jpg,AFSA18.jpg,AFNE15.jpg,FN,3,num_8,16,num_8,1.03343161847,,,2018_Feb_14_1646,59.9981333803,MAFE4ImagesEEG,001,103068,
AFNE01.JPG,AFNE01.JPG,AFNE01.JPG,AFNE01.JPG,AFNE01.JPG,AFNE01.JPG,,,,,1,5,15,2,,,,,,,,,,,,,,,,,,,AFSA01.jpg,AFNE18.jpg,AFSA10.jpg,AFNE05.jpg,AFSA10.jpg,FS,4,num_2,16,num_2,0.916780983564,,,2018_Feb_14_1646,59.9981333803,MAFE4ImagesEEG,001,103068,
AFNE01.JPG,AFNE01.JPG,AFNE01.JPG,AFNE01.JPG,AFNE01.JPG,AFNE01.JPG,,,,,1,6,16,4,,,,,,,,,,,,,,,,,,,AFSA13.jpg,AFNE02.jpg,AFSA16.jpg,AFNE12.jpg,AFNE02.jpg,FN,3,num_6,16,num_6,0.63346202462,,,2018_Feb_14_1646,59.9981333803,MAFE4ImagesEEG,001,103068,
AFNE01.JPG,AFNE01.JPG,AFNE01.JPG,AFNE01.JPG,AFNE01.JPG,AFNE01.JPG,,,,,1,7,17,3,,,,,,,,,,,,,,,,,,,AFNE16.jpg,AFSA02.jpg,AFSA13.jpg,AFNE19.jpg,AFSA02.jpg,FS,4,num_6,16,num_6,1.13343652594,,,2018_Feb_14_1646,59.9981333803,MAFE4ImagesEEG,001,103068,
AFNE01.JPG,AFNE01.JPG,AFNE01.JPG,AFNE01.JPG,AFNE01.JPG,AFNE01.JPG,,,,,1,8,18,0,,,,,,,,,,,,,,,,,,,AFNE19.jpg,AFSA14.jpg,AFNE15.jpg,AFSA01.jpg,AFNE19.jpg,FN,3,num_8,32,num_4,1.25011666911,,,2018_Feb_14_1646,59.9981333803,MAFE4ImagesEEG,001,103068,
AFNE01.JPG,AFNE01.JPG,AFNE01.JPG,AFNE01.JPG,AFNE01.JPG,AFNE01.JPG,,,,,1,9,19,7,,,,,,,,,,,,,,,,,,,AFSA19.jpg,AFSA02.jpg,AFNE07.jpg,AFNE05.jpg,AFSA02.jpg,FS,4,num_6,16,num_6,0.933370902669,,,2018_Feb_14_1646,59.9981333803,MAFE4ImagesEEG,001,103068,
AFNE01.JPG,AFNE01.JPG,AFNE01.JPG,AFNE01.JPG,AFNE01.JPG,AFNE01.JPG,,,,,2,0,20,8,,,,,,,,,,,,,,,,,,,AFSA12.jpg,AFNE11.jpg,AFNE18.jpg,AFSA08.jpg,AFSA08.jpg,FS,4,num_4,16,num_4,0.86679312354,,,2018_Feb_14_1646,59.9981333803,MAFE4ImagesEEG,001,103068,
AFNE01.JPG,AFNE01.JPG,AFNE01.JPG,AFNE01.JPG,AFNE01.JPG,AFNE01.JPG,,,,,2,1,21,0,,,,,,,,,,,,,,,,,,,AFNE11.jpg,AFNE08.jpg,AFSA19.jpg,AFSA05.jpg,AFNE08.jpg,FN,3,num_6,16,num_6,0.900125312852,,,2018_Feb_14_1646,59.9981333803,MAFE4ImagesEEG,001,103068,
AFNE01.JPG,AFNE01.JPG,AFNE01.JPG,AFNE01.JPG,AFNE01.JPG,AFNE01.JPG,,,,,2,2,22,3,,,,,,,,,,,,,,,,,,,AFNE16.jpg,AFNE11.jpg,AFSA09.jpg,AFSA08.jpg,AFNE11.jpg,FN,3,num_6,16,num_6,0.816815847764,,,2018_Feb_14_1646,59.9981333803,MAFE4ImagesEEG,001,103068,
AFNE01.JPG,AFNE01.JPG,AFNE01.JPG,AFNE01.JPG,AFNE01.JPG,AFNE01.JPG,,,,,2,3,23,1,,,,,,,,,,,,,,,,,,,AFSA05.jpg,AFNE03.jpg,AFNE09.jpg,AFSA15.jpg,AFSA15.jpg,FS,4,num_4,16,num_4,1.1666186091,,,2018_Feb_14_1646,59.9981333803,MAFE4ImagesEEG,001,103068,
AFNE01.JPG,AFNE01.JPG,AFNE01.JPG,AFNE01.JPG,AFNE01.JPG,AFNE01.JPG,,,,,2,4,24,7,,,,,,,,,,,,,,,,,,,AFSA14.jpg,AFSA20.jpg,AFNE14.jpg,AFNE10.jpg,AFNE10.jpg,FN,3,num_4,16,num_4,1.25010287715,,,2018_Feb_14_1646,59.9981333803,MAFE4ImagesEEG,001,103068,
AFNE01.JPG,AFNE01.JPG,AFNE01.JPG,AFNE01.JPG,AFNE01.JPG,AFNE01.JPG,,,,,2,5,25,5,,,,,,,,,,,,,,,,,,,AFNE07.jpg,AFSA06.jpg,AFNE03.jpg,AFSA07.jpg,AFNE03.jpg,FN,3,num_2,16,num_2,0.73345891363,,,2018_Feb_14_1646,59.9981333803,MAFE4ImagesEEG,001,103068,
AFNE01.JPG,AFNE01.JPG,AFNE01.JPG,AFNE01.JPG,AFNE01.JPG,AFNE01.JPG,,,,,2,6,26,4,,,,,,,,,,,,,,,,,,,AFSA06.jpg,AFSA04.jpg,AFNE18.jpg,AFNE11.jpg,AFNE11.jpg,FN,3,num_4,16,num_4,0.883470925037,,,2018_Feb_14_1646,59.9981333803,MAFE4ImagesEEG,001,103068,
AFNE01.JPG,AFNE01.JPG,AFNE01.JPG,AFNE01.JPG,AFNE01.JPG,AFNE01.JPG,,,,,2,7,27,6,,,,,,,,,,,,,,,,,,,AFSA20.jpg,AFNE06.jpg,AFNE20.jpg,AFSA08.jpg,AFNE06.jpg,FN,3,num_6,32,num_2,1.00010295724,,,2018_Feb_14_1646,59.9981333803,MAFE4ImagesEEG,001,103068,
AFNE01.JPG,AFNE01.JPG,AFNE01.JPG,AFNE01.JPG,AFNE01.JPG,AFNE01.JPG,,,,,2,8,28,9,,,,,,,,,,,,,,,,,,,AFSA18.jpg,AFNE17.jpg,AFSA01.jpg,AFNE15.jpg,AFNE17.jpg,FN,3,num_6,32,num_2,1.46672923211,,,2018_Feb_14_1646,59.9981333803,MAFE4ImagesEEG,001,103068,
AFNE01.JPG,AFNE01.JPG,AFNE01.JPG,AFNE01.JPG,AFNE01.JPG,AFNE01.JPG,,,,,2,9,29,2,,,,,,,,,,,,,,,,,,,AFNE18.jpg,AFSA05.jpg,AFNE10.jpg,AFSA09.jpg,AFSA09.jpg,FS,4,num_4,32,num_6,0.866812367691,,,2018_Feb_14_1646,59.9981333803,MAFE4ImagesEEG,001,103068,
AFNE01.JPG,AFNE01.JPG,AFNE01.JPG,AFNE01.JPG,AFNE01.JPG,AFNE01.JPG,,,,,3,0,30,5,,,,,,,,,,,,,,,,,,,AFSA03.jpg,AFNE06.jpg,AFNE19.jpg,AFSA12.jpg,AFNE06.jpg,FN,3,num_6,16,num_6,0.93342831498,,,2018_Feb_14_1646,59.9981333803,MAFE4ImagesEEG,001,103068,
AFNE01.JPG,AFNE01.JPG,AFNE01.JPG,AFNE01.JPG,AFNE01.JPG,AFNE01.JPG,,,,,3,1,31,8,,,,,,,,,,,,,,,,,,,AFSA07.jpg,AFNE04.jpg,AFSA20.jpg,AFNE18.jpg,AFSA07.jpg,FS,4,num_8,32,num_2,0.366837545997,,,2018_Feb_14_1646,59.9981333803,MAFE4ImagesEEG,001,103068,
AFNE01.JPG,AFNE01.JPG,AFNE01.JPG,AFNE01.JPG,AFNE01.JPG,AFNE01.JPG,,,,,3,2,32,4,,,,,,,,,,,,,,,,,,,AFNE10.jpg,AFNE01.jpg,AFSA04.jpg,AFSA15.jpg,AFSA15.jpg,FS,4,num_4,16,num_4,0.900115049211,,,2018_Feb_14_1646,59.9981333803,MAFE4ImagesEEG,001,103068,
AFNE01.JPG,AFNE01.JPG,AFNE01.JPG,AFNE01.JPG,AFNE01.JPG,AFNE01.JPG,,,,,3,3,33,0,,,,,,,,,,,,,,,,,,,AFSA13.jpg,AFNE09.jpg,AFSA12.jpg,AFNE04.jpg,AFSA12.jpg,FS,4,num_2,16,num_2,0.73354198481,,,2018_Feb_14_1646,59.9981333803,MAFE4ImagesEEG,001,103068,
AFNE01.JPG,AFNE01.JPG,AFNE01.JPG,AFNE01.JPG,AFNE01.JPG,AFNE01.JPG,,,,,3,4,34,6,,,,,,,,,,,,,,,,,,,AFNE03.jpg,AFSA08.jpg,AFSA18.jpg,AFNE02.jpg,AFNE03.jpg,FN,3,num_8,32,num_4,0.700003239559,,,2018_Feb_14_1646,59.9981333803,MAFE4ImagesEEG,001,103068,
AFNE01.JPG,AFNE01.JPG,AFNE01.JPG,AFNE01.JPG,AFNE01.JPG,AFNE01.JPG,,,,,3,5,35,9,,,,,,,,,,,,,,,,,,,AFNE09.jpg,AFSA20.jpg,AFNE01.jpg,AFSA17.jpg,AFSA20.jpg,FS,4,num_6,16,num_6,0.333471678896,,,2018_Feb_14_1646,59.9981333803,MAFE4ImagesEEG,001,103068,
AFNE01.JPG,AFNE01.JPG,AFNE01.JPG,AFNE01.JPG,AFNE01.JPG,AFNE01.JPG,,,,,3,6,36,3,,,,,,,,,,,,,,,,,,,AFNE19.jpg,AFSA12.jpg,AFSA09.jpg,AFNE13.jpg,AFSA09.jpg,FS,4,num_2,32,num_8,0.816759718349,,,2018_Feb_14_1646,59.9981333803,MAFE4ImagesEEG,001,103068,
AFNE01.JPG,AFNE01.JPG,AFNE01.JPG,AFNE01.JPG,AFNE01.JPG,AFNE01.JPG,,,,,3,7,37,1,,,,,,,,,,,,,,,,,,,AFNE01.jpg,AFSA01.jpg,AFNE05.jpg,AFSA07.jpg,AFNE01.jpg,FN,3,num_8,16,num_8,0.966739014722,,,2018_Feb_14_1646,59.9981333803,MAFE4ImagesEEG,001,103068,
AFNE01.JPG,AFNE01.JPG,AFNE01.JPG,AFNE01.JPG,AFNE01.JPG,AFNE01.JPG,,,,,3,8,38,2,,,,,,,,,,,,,,,,,,,AFSA20.jpg,AFSA03.jpg,AFNE16.jpg,AFNE10.jpg,AFNE16.jpg,FN,3,num_2,32,num_8,0.93347001099,,,2018_Feb_14_1646,59.9981333803,MAFE4ImagesEEG,001,103068,
AFNE01.JPG,AFNE01.JPG,AFNE01.JPG,AFNE01.JPG,AFNE01.JPG,AFNE01.JPG,,,,,3,9,39,7,,,,,,,,,,,,,,,,,,,AFSA06.jpg,AFSA18.jpg,AFNE10.jpg,AFNE03.jpg,AFNE10.jpg,FN,3,num_2,16,num_2,1.13344165776,,,2018_Feb_14_1646,59.9981333803,MAFE4ImagesEEG,001,103068,
AFNE01.JPG,AFNE01.JPG,AFNE01.JPG,AFNE01.JPG,AFNE01.JPG,AFNE01.JPG,,,,,4,0,40,6,,,,,,,,,,,,,,,,,,,AFSA18.jpg,AFNE16.jpg,AFNE18.jpg,AFSA20.jpg,AFNE16.jpg,FN,3,num_6,16,num_6,0.816827715375,,,2018_Feb_14_1646,59.9981333803,MAFE4ImagesEEG,001,103068,
AFNE01.JPG,AFNE01.JPG,AFNE01.JPG,AFNE01.JPG,AFNE01.JPG,AFNE01.JPG,,,,,4,1,41,8,,,,,,,,,,,,,,,,,,,AFNE17.jpg,AFSA20.jpg,AFSA13.jpg,AFNE19.jpg,AFNE17.jpg,FN,3,num_8,32,num_4,0.533490474336,,,2018_Feb_14_1646,59.9981333803,MAFE4ImagesEEG,001,103068,
AFNE01.JPG,AFNE01.JPG,AFNE01.JPG,AFNE01.JPG,AFNE01.JPG,AFNE01.JPG,,,,,4,2,42,4,,,,,,,,,,,,,,,,,,,AFSA08.jpg,AFNE10.jpg,AFNE05.jpg,AFSA15.jpg,AFNE10.jpg,FN,3,num_6,32,num_8,1.03344156127,,,2018_Feb_14_1646,59.9981333803,MAFE4ImagesEEG,001,103068,
AFNE01.JPG,AFNE01.JPG,AFNE01.JPG,AFNE01.JPG,AFNE01.JPG,AFNE01.JPG,,,,,4,3,43,0,,,,,,,,,,,,,,,,,,,AFSA14.jpg,AFNE08.jpg,AFSA13.jpg,AFNE15.jpg,AFNE15.jpg,FN,3,num_4,32,num_6,0.80018872302,,,2018_Feb_14_1646,59.9981333803,MAFE4ImagesEEG,001,103068,
AFNE01.JPG,AFNE01.JPG,AFNE01.JPG,AFNE01.JPG,AFNE01.JPG,AFNE01.JPG,,,,,4,4,44,5,,,,,,,,,,,,,,,,,,,AFNE13.jpg,AFSA10.jpg,AFNE06.jpg,AFSA07.jpg,AFNE13.jpg,FN,3,num_8,32,num_2,0.983026155969,,,2018_Feb_14_1646,59.9981333803,MAFE4ImagesEEG,001,103068,
AFNE01.JPG,AFNE01.JPG,AFNE01.JPG,AFNE01.JPG,AFNE01.JPG,AFNE01.JPG,,,,,4,5,45,1,,,,,,,,,,,,,,,,,,,AFNE15.jpg,AFSA20.jpg,AFNE06.jpg,AFSA11.jpg,AFSA11.jpg,FS,4,num_4,16,num_4,0.800080633955,,,2018_Feb_14_1646,59.9981333803,MAFE4ImagesEEG,001,103068,
AFNE01.JPG,AFNE01.JPG,AFNE01.JPG,AFNE01.JPG,AFNE01.JPG,AFNE01.JPG,,,,,4,6,46,7,,,,,,,,,,,,,,,,,,,AFSA12.jpg,AFSA14.jpg,AFNE02.jpg,AFNE13.jpg,AFSA14.jpg,FS,4,num_6,32,num_4,0.816900843754,,,2018_Feb_14_1646,59.9981333803,MAFE4ImagesEEG,001,103068,
AFNE01.JPG,AFNE01.JPG,AFNE01.JPG,AFNE01.JPG,AFNE01.JPG,AFNE01.JPG,,,,,4,7,47,2,,,,,,,,,,,,,,,,,,,AFNE13.jpg,AFSA18.jpg,AFSA04.jpg,AFNE05.jpg,AFSA18.jpg,FS,4,num_6,32,num_2,1.40015466046,,,2018_Feb_14_1646,59.9981333803,MAFE4ImagesEEG,001,103068,
AFNE01.JPG,AFNE01.JPG,AFNE01.JPG,AFNE01.JPG,AFNE01.JPG,AFNE01.JPG,,,,,4,8,48,3,,,,,,,,,,,,,,,,,,,AFNE03.jpg,AFSA15.jpg,AFSA06.jpg,AFNE06.jpg,AFNE06.jpg,FN,3,num_4,32,num_8,1.31671593757,,,2018_Feb_14_1646,59.9981333803,MAFE4ImagesEEG,001,103068,
AFNE01.JPG,AFNE01.JPG,AFNE01.JPG,AFNE01.JPG,AFNE01.JPG,AFNE01.JPG,,,,,4,9,49,9,,,,,,,,,,,,,,,,,,,AFSA04.jpg,AFNE08.jpg,AFNE02.jpg,AFSA08.jpg,AFSA08.jpg,FS,4,num_4,16,num_4,0.666910642292,,,2018_Feb_14_1646,59.9981333803,MAFE4ImagesEEG,001,103068,
AFNE01.JPG,AFNE01.JPG,AFNE01.JPG,AFNE01.JPG,AFNE01.JPG,AFNE01.JPG,,,,,5,0,50,2,,,,,,,,,,,,,,,,,,,AFNE10.jpg,AFSA19.jpg,AFSA16.jpg,AFNE18.jpg,AFSA19.jpg,FS,4,num_6,32,num_2,1.95005832636,,,2018_Feb_14_1646,59.9981333803,MAFE4ImagesEEG,001,103068,
AFNE01.JPG,AFNE01.JPG,AFNE01.JPG,AFNE01.JPG,AFNE01.JPG,AFNE01.JPG,,,,,5,1,51,1,,,,,,,,,,,,,,,,,,,AFNE10.jpg,AFSA01.jpg,AFNE12.jpg,AFSA06.jpg,AFNE12.jpg,FN,3,num_2,32,num_8,1.23349371366,,,2018_Feb_14_1646,59.9981333803,MAFE4ImagesEEG,001,103068,
