IPosition2,IPosition3,IPosition1,IPosition6,IPosition4,IPosition5,TrialsM1.thisRepN,TrialsM1.thisTrialN,TrialsM1.thisN,TrialsM1.thisIndex,TrialsF1.thisRepN,TrialsF1.thisTrialN,TrialsF1.thisN,TrialsF1.thisIndex,TrialsM2.thisRepN,TrialsM2.thisTrialN,TrialsM2.thisN,TrialsM2.thisIndex,TrialsF2.thisRepN,TrialsF2.thisTrialN,TrialsF2.thisN,TrialsF2.thisIndex,TrialsM3.thisRepN,TrialsM3.thisTrialN,TrialsM3.thisN,TrialsM3.thisIndex,TrialsF3.thisRepN,TrialsF3.thisTrialN,TrialsF3.thisN,TrialsF3.thisIndex,InstrKey_resp.keys,InstrKey_resp.rt,Image0 _Position,Image1 _Position,Image2 _Position,Image3 _Position,Center_image,condition,code,correct_answer,accuracy,Key_Resp.keys,Key_Resp.rt,BreakKey_resp.keys,BreakKey_resp.rt,date,frameRate,expName,session,participant,
,,,,,,,,,,,,,,,,,,,,,,,,,,,,,,space,19.815687082,,,,,,,,,,,,,,2018_Mar_01_1045,59.9961321407,MAFE4ImagesEEG,001,103063,
AMSA21.JPG,AMNE22.JPG,AMNE21.JPG,AMSA23.JPG,AMSA22.JPG,AMNE23.JPG,0,0,0,1,,,,,,,,,,,,,,,,,,,,,,,AMSA12.jpg,AMNE13.jpg,AMSA10.jpg,AMNE10.jpg,AMSA12.jpg,MS,2,num_8,32,num_4,1.53341313312,,,2018_Mar_01_1045,59.9961321407,MAFE4ImagesEEG,001,103063,
AFNE23.JPG,AFNE24.JPG,AFNE22.JPG,AFSA24.JPG,AFSA22.JPG,AFSA23.JPG,0,1,1,8,,,,,,,,,,,,,,,,,,,,,,,AMSA11.jpg,AMSA20.jpg,AMNE04.jpg,AMNE09.jpg,AMSA11.jpg,MS,2,num_8,32,num_6,0.71676415531,,,2018_Mar_01_1045,59.9961321407,MAFE4ImagesEEG,001,103063,
AMNE22.JPG,AMSA24.JPG,AMSA22.JPG,AMNE25.JPG,AMNE24.JPG,AMSA25.JPG,0,2,2,7,,,,,,,,,,,,,,,,,,,,,,,AMNE09.jpg,AMNE15.jpg,AMSA15.jpg,AMSA18.jpg,AMSA18.jpg,MS,2,num_4,16,num_4,0.783490350936,,,2018_Mar_01_1045,59.9961321407,MAFE4ImagesEEG,001,103063,
AMSA21.JPG,AMNE23.JPG,AMNE21.JPG,AMSA25.JPG,AMNE25.JPG,AMSA23.JPG,0,3,3,5,,,,,,,,,,,,,,,,,,,,,,,AMSA19.jpg,AMSA06.jpg,AMNE01.jpg,AMNE02.jpg,AMSA19.jpg,MS,2,num_8,16,num_8,0.733461500611,,,2018_Mar_01_1045,59.9961321407,MAFE4ImagesEEG,001,103063,
AFSA25.JPG,AFNE24.JPG,AFSA24.JPG,AFNE21.JPG,AFSA21.JPG,AFNE25.JPG,0,4,4,2,,,,,,,,,,,,,,,,,,,,,,,AMSA11.jpg,AMNE06.jpg,AMSA05.jpg,AMNE14.jpg,AMNE14.jpg,MN,1,num_4,16,num_4,2.59996548854,,,2018_Mar_01_1045,59.9961321407,MAFE4ImagesEEG,001,103063,
AMNE23.JPG,AMNE24.JPG,AMNE22.JPG,AMSA24.JPG,AMSA22.JPG,AMSA23.JPG,0,5,5,9,,,,,,,,,,,,,,,,,,,,,,,AMNE20.jpg,AMSA16.jpg,AMSA17.jpg,AMNE13.jpg,AMSA17.jpg,MS,2,num_2,16,num_2,1.61668528547,,,2018_Mar_01_1045,59.9961321407,MAFE4ImagesEEG,001,103063,
AFSA21.JPG,AFNE23.JPG,AFNE21.JPG,AFSA25.JPG,AFNE25.JPG,AFSA23.JPG,0,6,6,4,,,,,,,,,,,,,,,,,,,,,,,AMNE07.jpg,AMSA02.jpg,AMNE06.jpg,AMSA04.jpg,AMNE06.jpg,MN,1,num_2,16,num_2,2.03337127669,,,2018_Mar_01_1045,59.9961321407,MAFE4ImagesEEG,001,103063,
AFNE22.JPG,AFSA24.JPG,AFSA22.JPG,AFNE25.JPG,AFNE24.JPG,AFSA25.JPG,0,7,7,6,,,,,,,,,,,,,,,,,,,,,,,AMNE19.jpg,AMSA13.jpg,AMSA07.jpg,AMNE12.jpg,AMNE19.jpg,MN,1,num_8,32,num_6,1.15052917111,,,2018_Mar_01_1045,59.9961321407,MAFE4ImagesEEG,001,103063,
AFSA21.JPG,AFNE22.JPG,AFNE21.JPG,AFSA23.JPG,AFSA22.JPG,AFNE23.JPG,0,8,8,0,,,,,,,,,,,,,,,,,,,,,,,AMNE04.jpg,AMNE14.jpg,AMSA16.jpg,AMSA13.jpg,AMSA13.jpg,MS,2,num_4,16,num_4,2.26670239703,,,2018_Mar_01_1045,59.9961321407,MAFE4ImagesEEG,001,103063,
AMSA25.JPG,AMNE24.JPG,AMSA24.JPG,AMNE26.JPG,AMSA21.JPG,AMNE25.JPG,0,9,9,3,,,,,,,,,,,,,,,,,,,,,,,AMSA12.jpg,AMNE17.jpg,AMNE02.jpg,AMSA13.jpg,AMNE17.jpg,MN,1,num_6,16,num_6,0.550109195523,,,2018_Mar_01_1045,59.9961321407,MAFE4ImagesEEG,001,103063,
AMNE23.JPG,AMNE24.JPG,AMNE22.JPG,AMSA24.JPG,AMSA22.JPG,AMSA23.JPG,,,,,0,0,0,9,,,,,,,,,,,,,,,,,,,AFNE20.jpg,AFNE04.jpg,AFSA04.jpg,AFSA08.jpg,AFSA08.jpg,FS,4,num_4,32,num_2,2.2666741719,,,2018_Mar_01_1045,59.9961321407,MAFE4ImagesEEG,001,103063,
AMSA21.JPG,AMNE23.JPG,AMNE21.JPG,AMSA25.JPG,AMNE25.JPG,AMSA23.JPG,,,,,0,1,1,5,,,,,,,,,,,,,,,,,,,AFNE18.jpg,AFSA06.jpg,AFNE06.jpg,AFSA04.jpg,AFNE18.jpg,FN,3,num_8,32,num_2,2.01667681802,,,2018_Mar_01_1045,59.9961321407,MAFE4ImagesEEG,001,103063,
AFNE22.JPG,AFSA24.JPG,AFSA22.JPG,AFNE25.JPG,AFNE24.JPG,AFSA25.JPG,,,,,0,2,2,6,,,,,,,,,,,,,,,,,,,AFSA11.jpg,AFSA16.jpg,AFNE19.jpg,AFNE12.jpg,AFNE19.jpg,FN,3,num_2,32,num_6,1.44813026884,,,2018_Mar_01_1045,59.9961321407,MAFE4ImagesEEG,001,103063,
AFSA25.JPG,AFNE24.JPG,AFSA24.JPG,AFNE21.JPG,AFSA21.JPG,AFNE25.JPG,,,,,0,3,3,2,,,,,,,,,,,,,,,,,,,AFSA15.jpg,AFSA13.jpg,AFNE01.jpg,AFNE09.jpg,AFNE09.jpg,FN,3,num_4,32,num_8,3.11661873222,,,2018_Mar_01_1045,59.9961321407,MAFE4ImagesEEG,001,103063,
AFSA21.JPG,AFNE22.JPG,AFNE21.JPG,AFSA23.JPG,AFSA22.JPG,AFNE23.JPG,,,,,0,4,4,0,,,,,,,,,,,,,,,,,,,AFNE08.jpg,AFSA15.jpg,AFNE13.jpg,AFSA12.jpg,AFSA15.jpg,FS,4,num_6,16,num_6,0.850120645948,,,2018_Mar_01_1045,59.9961321407,MAFE4ImagesEEG,001,103063,
AMNE22.JPG,AMSA24.JPG,AMSA22.JPG,AMNE25.JPG,AMNE24.JPG,AMSA25.JPG,,,,,0,5,5,7,,,,,,,,,,,,,,,,,,,AFNE15.jpg,AFSA15.jpg,AFNE18.jpg,AFSA04.jpg,AFSA15.jpg,FS,4,num_6,48,None,,,,2018_Mar_01_1045,59.9961321407,MAFE4ImagesEEG,001,103063,
AFSA21.JPG,AFNE23.JPG,AFNE21.JPG,AFSA25.JPG,AFNE25.JPG,AFSA23.JPG,,,,,0,6,6,4,,,,,,,,,,,,,,,,,,,AFNE12.jpg,AFSA10.jpg,AFNE05.jpg,AFSA19.jpg,AFSA10.jpg,FS,4,num_6,16,num_6,2.43351034913,,,2018_Mar_01_1045,59.9961321407,MAFE4ImagesEEG,001,103063,
AFNE23.JPG,AFNE24.JPG,AFNE22.JPG,AFSA24.JPG,AFSA22.JPG,AFSA23.JPG,,,,,0,7,7,8,,,,,,,,,,,,,,,,,,,AFNE08.jpg,AFSA15.jpg,AFSA11.jpg,AFNE05.jpg,AFSA11.jpg,FS,4,num_2,16,num_2,2.45000594971,,,2018_Mar_01_1045,59.9961321407,MAFE4ImagesEEG,001,103063,
AMSA21.JPG,AMNE22.JPG,AMNE21.JPG,AMSA23.JPG,AMSA22.JPG,AMNE23.JPG,,,,,0,8,8,1,,,,,,,,,,,,,,,,,,,AFNE09.jpg,AFNE13.jpg,AFSA13.jpg,AFSA09.jpg,AFSA09.jpg,FS,4,num_4,32,num_8,1.09994159359,,,2018_Mar_01_1045,59.9961321407,MAFE4ImagesEEG,001,103063,
AMSA25.JPG,AMNE24.JPG,AMSA24.JPG,AMNE26.JPG,AMSA21.JPG,AMNE25.JPG,,,,,0,9,9,3,,,,,,,,,,,,,,,,,,,AFSA15.jpg,AFNE11.jpg,AFNE16.jpg,AFSA16.jpg,AFSA15.jpg,FS,4,num_8,32,num_4,1.00007376983,,,2018_Mar_01_1045,59.9961321407,MAFE4ImagesEEG,001,103063,
AMNE23.JPG,AMNE24.JPG,AMNE22.JPG,AMSA24.JPG,AMSA22.JPG,AMSA23.JPG,,,,,,,,,0,0,0,9,,,,,,,,,,,,,,,AMSA08.jpg,AMNE03.jpg,AMSA13.jpg,AMNE19.jpg,AMSA08.jpg,MS,2,num_8,32,num_4,0.966836882755,,,2018_Mar_01_1045,59.9961321407,MAFE4ImagesEEG,001,103063,
AMSA21.JPG,AMNE23.JPG,AMNE21.JPG,AMSA25.JPG,AMNE25.JPG,AMSA23.JPG,,,,,,,,,0,1,1,5,,,,,,,,,,,,,,,AMNE02.jpg,AMSA03.jpg,AMSA20.jpg,AMNE04.jpg,AMSA20.jpg,MS,2,num_2,32,num_6,0.633462174097,,,2018_Mar_01_1045,59.9961321407,MAFE4ImagesEEG,001,103063,
AFSA21.JPG,AFNE22.JPG,AFNE21.JPG,AFSA23.JPG,AFSA22.JPG,AFNE23.JPG,,,,,,,,,0,2,2,0,,,,,,,,,,,,,,,AMSA09.jpg,AMNE11.jpg,AMSA04.jpg,AMNE19.jpg,AMSA09.jpg,MS,2,num_8,16,num_8,1.03343061358,,,2018_Mar_01_1045,59.9961321407,MAFE4ImagesEEG,001,103063,
AFNE22.JPG,AFSA24.JPG,AFSA22.JPG,AFNE25.JPG,AFNE24.JPG,AFSA25.JPG,,,,,,,,,0,3,3,6,,,,,,,,,,,,,,,AMNE09.jpg,AMSA01.jpg,AMNE19.jpg,AMSA02.jpg,AMNE19.jpg,MN,1,num_2,32,num_8,1.38343884051,,,2018_Mar_01_1045,59.9961321407,MAFE4ImagesEEG,001,103063,
AMSA25.JPG,AMNE24.JPG,AMSA24.JPG,AMNE26.JPG,AMSA21.JPG,AMNE25.JPG,,,,,,,,,0,4,4,3,,,,,,,,,,,,,,,AMSA16.jpg,AMSA06.jpg,AMNE01.jpg,AMNE16.jpg,AMSA06.jpg,MS,2,num_6,16,num_6,1.71686198073,,,2018_Mar_01_1045,59.9961321407,MAFE4ImagesEEG,001,103063,
AMNE22.JPG,AMSA24.JPG,AMSA22.JPG,AMNE25.JPG,AMNE24.JPG,AMSA25.JPG,,,,,,,,,0,5,5,7,,,,,,,,,,,,,,,AMSA19.jpg,AMSA15.jpg,AMNE17.jpg,AMNE05.jpg,AMSA19.jpg,MS,2,num_8,32,num_6,1.50005083717,,,2018_Mar_01_1045,59.9961321407,MAFE4ImagesEEG,001,103063,
AFSA21.JPG,AFNE23.JPG,AFNE21.JPG,AFSA25.JPG,AFNE25.JPG,AFSA23.JPG,,,,,,,,,0,6,6,4,,,,,,,,,,,,,,,AMSA06.jpg,AMNE05.jpg,AMNE16.jpg,AMSA08.jpg,AMNE16.jpg,MN,1,num_2,32,num_6,1.10013788566,,,2018_Mar_01_1045,59.9961321407,MAFE4ImagesEEG,001,103063,
AFSA25.JPG,AFNE24.JPG,AFSA24.JPG,AFNE21.JPG,AFSA21.JPG,AFNE25.JPG,,,,,,,,,0,7,7,2,,,,,,,,,,,,,,,AMSA14.jpg,AMNE11.jpg,AMNE02.jpg,AMSA18.jpg,AMNE02.jpg,MN,1,num_2,32,num_6,0.966790375765,,,2018_Mar_01_1045,59.9961321407,MAFE4ImagesEEG,001,103063,
AFNE23.JPG,AFNE24.JPG,AFNE22.JPG,AFSA24.JPG,AFSA22.JPG,AFSA23.JPG,,,,,,,,,0,8,8,8,,,,,,,,,,,,,,,AMSA01.jpg,AMSA02.jpg,AMNE08.jpg,AMNE15.jpg,AMSA02.jpg,MS,2,num_6,16,num_6,0.516811688896,,,2018_Mar_01_1045,59.9961321407,MAFE4ImagesEEG,001,103063,
AMSA21.JPG,AMNE22.JPG,AMNE21.JPG,AMSA23.JPG,AMSA22.JPG,AMNE23.JPG,,,,,,,,,0,9,9,1,,,,,,,,,,,,,,,AMNE15.jpg,AMSA04.jpg,AMSA06.jpg,AMNE12.jpg,AMSA06.jpg,MS,2,num_2,32,num_6,1.7834278068,,,2018_Mar_01_1045,59.9961321407,MAFE4ImagesEEG,001,103063,
AMSA21.JPG,AMNE23.JPG,AMNE21.JPG,AMSA25.JPG,AMNE25.JPG,AMSA23.JPG,,,,,,,,,,,,,0,0,0,5,,,,,,,,,,,AFSA20.jpg,AFNE15.jpg,AFSA02.jpg,AFNE06.jpg,AFSA02.jpg,FS,4,num_2,32,num_4,0.983467514394,,,2018_Mar_01_1045,59.9961321407,MAFE4ImagesEEG,001,103063,
AFSA25.JPG,AFNE24.JPG,AFSA24.JPG,AFNE21.JPG,AFSA21.JPG,AFNE25.JPG,,,,,,,,,,,,,0,1,1,2,,,,,,,,,,,AFSA20.jpg,AFNE12.jpg,AFSA18.jpg,AFNE15.jpg,AFSA18.jpg,FS,4,num_2,16,num_2,1.5666817734,,,2018_Mar_01_1045,59.9961321407,MAFE4ImagesEEG,001,103063,
AFNE23.JPG,AFNE24.JPG,AFNE22.JPG,AFSA24.JPG,AFSA22.JPG,AFSA23.JPG,,,,,,,,,,,,,0,2,2,8,,,,,,,,,,,AFSA09.jpg,AFNE19.jpg,AFNE14.jpg,AFSA15.jpg,AFNE14.jpg,FN,3,num_2,16,num_2,1.75004434213,,,2018_Mar_01_1045,59.9961321407,MAFE4ImagesEEG,001,103063,
AMSA21.JPG,AMNE22.JPG,AMNE21.JPG,AMSA23.JPG,AMSA22.JPG,AMNE23.JPG,,,,,,,,,,,,,0,3,3,1,,,,,,,,,,,AFSA09.jpg,AFNE04.jpg,AFSA18.jpg,AFNE05.jpg,AFSA09.jpg,FS,4,num_8,32,num_4,1.11679802532,,,2018_Mar_01_1045,59.9961321407,MAFE4ImagesEEG,001,103063,
AMNE23.JPG,AMNE24.JPG,AMNE22.JPG,AMSA24.JPG,AMSA22.JPG,AMSA23.JPG,,,,,,,,,,,,,0,4,4,9,,,,,,,,,,,AFSA13.jpg,AFNE18.jpg,AFSA04.jpg,AFNE10.jpg,AFSA04.jpg,FS,4,num_2,16,num_2,1.48309946666,,,2018_Mar_01_1045,59.9961321407,MAFE4ImagesEEG,001,103063,
AFSA21.JPG,AFNE22.JPG,AFNE21.JPG,AFSA23.JPG,AFSA22.JPG,AFNE23.JPG,,,,,,,,,,,,,0,5,5,0,,,,,,,,,,,AFSA14.jpg,AFNE12.jpg,AFSA10.jpg,AFNE20.jpg,AFNE12.jpg,FN,3,num_6,32,num_8,1.90006963233,,,2018_Mar_01_1045,59.9961321407,MAFE4ImagesEEG,001,103063,
AFNE22.JPG,AFSA24.JPG,AFSA22.JPG,AFNE25.JPG,AFNE24.JPG,AFSA25.JPG,,,,,,,,,,,,,0,6,6,6,,,,,,,,,,,AFSA19.jpg,AFNE04.jpg,AFNE17.jpg,AFSA05.jpg,AFNE04.jpg,FN,3,num_6,32,num_4,2.20003714156,,,2018_Mar_01_1045,59.9961321407,MAFE4ImagesEEG,001,103063,
AMNE22.JPG,AMSA24.JPG,AMSA22.JPG,AMNE25.JPG,AMNE24.JPG,AMSA25.JPG,,,,,,,,,,,,,0,7,7,7,,,,,,,,,,,AFNE05.jpg,AFSA06.jpg,AFSA20.jpg,AFNE14.jpg,AFNE14.jpg,FN,3,num_4,16,num_4,0.950118047884,,,2018_Mar_01_1045,59.9961321407,MAFE4ImagesEEG,001,103063,
AFSA21.JPG,AFNE23.JPG,AFNE21.JPG,AFSA25.JPG,AFNE25.JPG,AFSA23.JPG,,,,,,,,,,,,,0,8,8,4,,,,,,,,,,,AFNE01.jpg,AFNE16.jpg,AFSA08.jpg,AFSA01.jpg,AFSA01.jpg,FS,4,num_4,32,num_2,2.00006158184,,,2018_Mar_01_1045,59.9961321407,MAFE4ImagesEEG,001,103063,
AMSA25.JPG,AMNE24.JPG,AMSA24.JPG,AMNE26.JPG,AMSA21.JPG,AMNE25.JPG,,,,,,,,,,,,,0,9,9,3,,,,,,,,,,,AFNE19.jpg,AFSA14.jpg,AFSA01.jpg,AFNE11.jpg,AFSA01.jpg,FS,4,num_2,32,num_8,1.0001109757,,,2018_Mar_01_1045,59.9961321407,MAFE4ImagesEEG,001,103063,
AMNE22.JPG,AMSA24.JPG,AMSA22.JPG,AMNE25.JPG,AMNE24.JPG,AMSA25.JPG,,,,,,,,,,,,,,,,,0,0,0,7,,,,,,,AMNE11.jpg,AMNE19.jpg,AMSA08.jpg,AMSA02.jpg,AMSA08.jpg,MS,2,num_2,32,num_6,1.70005462179,,,2018_Mar_01_1045,59.9961321407,MAFE4ImagesEEG,001,103063,
AMNE23.JPG,AMNE24.JPG,AMNE22.JPG,AMSA24.JPG,AMSA22.JPG,AMSA23.JPG,,,,,,,,,,,,,,,,,0,1,1,9,,,,,,,AMSA08.jpg,AMNE18.jpg,AMSA06.jpg,AMNE01.jpg,AMSA06.jpg,MS,2,num_2,32,num_8,1.08340622135,,,2018_Mar_01_1045,59.9961321407,MAFE4ImagesEEG,001,103063,
AMSA25.JPG,AMNE24.JPG,AMSA24.JPG,AMNE26.JPG,AMSA21.JPG,AMNE25.JPG,,,,,,,,,,,,,,,,,0,2,2,3,,,,,,,AMNE20.jpg,AMSA13.jpg,AMNE03.jpg,AMSA05.jpg,AMNE20.jpg,MN,1,num_8,16,num_8,1.76678402489,,,2018_Mar_01_1045,59.9961321407,MAFE4ImagesEEG,001,103063,
AFNE23.JPG,AFNE24.JPG,AFNE22.JPG,AFSA24.JPG,AFSA22.JPG,AFSA23.JPG,,,,,,,,,,,,,,,,,0,3,3,8,,,,,,,AMSA13.jpg,AMNE17.jpg,AMNE01.jpg,AMSA02.jpg,AMNE01.jpg,MN,1,num_2,32,num_6,1.85006547882,,,2018_Mar_01_1045,59.9961321407,MAFE4ImagesEEG,001,103063,
AMSA21.JPG,AMNE22.JPG,AMNE21.JPG,AMSA23.JPG,AMSA22.JPG,AMNE23.JPG,,,,,,,,,,,,,,,,,0,4,4,1,,,,,,,AMNE18.jpg,AMSA05.jpg,AMNE14.jpg,AMSA10.jpg,AMSA05.jpg,MS,2,num_6,32,num_2,1.93356599729,,,2018_Mar_01_1045,59.9961321407,MAFE4ImagesEEG,001,103063,
AFSA21.JPG,AFNE23.JPG,AFNE21.JPG,AFSA25.JPG,AFNE25.JPG,AFSA23.JPG,,,,,,,,,,,,,,,,,0,5,5,4,,,,,,,AMNE08.jpg,AMSA16.jpg,AMNE13.jpg,AMSA20.jpg,AMSA16.jpg,MS,2,num_6,32,num_8,1.90007861308,,,2018_Mar_01_1045,59.9961321407,MAFE4ImagesEEG,001,103063,
AMSA21.JPG,AMNE23.JPG,AMNE21.JPG,AMSA25.JPG,AMNE25.JPG,AMSA23.JPG,,,,,,,,,,,,,,,,,0,6,6,5,,,,,,,AMNE16.jpg,AMNE19.jpg,AMSA20.jpg,AMSA16.jpg,AMSA20.jpg,MS,2,num_2,32,num_4,1.0167996611,,,2018_Mar_01_1045,59.9961321407,MAFE4ImagesEEG,001,103063,
AFSA21.JPG,AFNE22.JPG,AFNE21.JPG,AFSA23.JPG,AFSA22.JPG,AFNE23.JPG,,,,,,,,,,,,,,,,,0,7,7,0,,,,,,,AMSA01.jpg,AMNE16.jpg,AMSA07.jpg,AMNE18.jpg,AMNE16.jpg,MN,1,num_6,16,num_6,1.6500982584,,,2018_Mar_01_1045,59.9961321407,MAFE4ImagesEEG,001,103063,
AFSA25.JPG,AFNE24.JPG,AFSA24.JPG,AFNE21.JPG,AFSA21.JPG,AFNE25.JPG,,,,,,,,,,,,,,,,,0,8,8,2,,,,,,,AMSA05.jpg,AMSA11.jpg,AMNE10.jpg,AMNE07.jpg,AMNE10.jpg,MN,1,num_2,16,num_2,1.71669070609,,,2018_Mar_01_1045,59.9961321407,MAFE4ImagesEEG,001,103063,
AFNE22.JPG,AFSA24.JPG,AFSA22.JPG,AFNE25.JPG,AFNE24.JPG,AFSA25.JPG,,,,,,,,,,,,,,,,,0,9,9,6,,,,,,,AMNE07.jpg,AMNE05.jpg,AMSA10.jpg,AMSA19.jpg,AMNE07.jpg,MN,1,num_8,16,num_8,0.850187680451,,,2018_Mar_01_1045,59.9961321407,MAFE4ImagesEEG,001,103063,
AFNE23.JPG,AFNE24.JPG,AFNE22.JPG,AFSA24.JPG,AFSA22.JPG,AFSA23.JPG,,,,,,,,,,,,,,,,,,,,,0,0,0,8,,,AFNE13.jpg,AFSA19.jpg,AFSA01.jpg,AFNE06.jpg,AFSA01.jpg,FS,4,num_2,16,num_2,1.7668071182,,,2018_Mar_01_1045,59.9961321407,MAFE4ImagesEEG,001,103063,
AMSA21.JPG,AMNE22.JPG,AMNE21.JPG,AMSA23.JPG,AMSA22.JPG,AMNE23.JPG,,,,,,,,,,,,,,,,,,,,,0,1,1,1,,,AFNE18.jpg,AFSA03.jpg,AFSA16.jpg,AFNE19.jpg,AFNE19.jpg,FN,3,num_4,16,num_4,1.91682984261,,,2018_Mar_01_1045,59.9961321407,MAFE4ImagesEEG,001,103063,
AFNE22.JPG,AFSA24.JPG,AFSA22.JPG,AFNE25.JPG,AFNE24.JPG,AFSA25.JPG,,,,,,,,,,,,,,,,,,,,,0,2,2,6,,,AFNE12.jpg,AFNE06.jpg,AFSA13.jpg,AFSA15.jpg,AFSA15.jpg,FS,4,num_4,16,num_4,0.616796582006,,,2018_Mar_01_1045,59.9961321407,MAFE4ImagesEEG,001,103063,
AMSA21.JPG,AMNE23.JPG,AMNE21.JPG,AMSA25.JPG,AMNE25.JPG,AMSA23.JPG,,,,,,,,,,,,,,,,,,,,,0,3,3,5,,,AFSA15.jpg,AFSA16.jpg,AFNE13.jpg,AFNE11.jpg,AFSA15.jpg,FS,4,num_8,32,num_2,1.36677517253,,,2018_Mar_01_1045,59.9961321407,MAFE4ImagesEEG,001,103063,
AMNE23.JPG,AMNE24.JPG,AMNE22.JPG,AMSA24.JPG,AMSA22.JPG,AMSA23.JPG,,,,,,,,,,,,,,,,,,,,,0,4,4,9,,,AFNE12.jpg,AFSA13.jpg,AFSA02.jpg,AFNE14.jpg,AFSA02.jpg,FS,4,num_2,16,num_2,1.78339765756,,,2018_Mar_01_1045,59.9961321407,MAFE4ImagesEEG,001,103063,
AFSA21.JPG,AFNE22.JPG,AFNE21.JPG,AFSA23.JPG,AFSA22.JPG,AFNE23.JPG,,,,,,,,,,,,,,,,,,,,,0,5,5,0,,,AFNE07.jpg,AFSA01.jpg,AFSA02.jpg,AFNE15.jpg,AFNE15.jpg,FN,3,num_4,32,num_8,0.816767651355,,,2018_Mar_01_1045,59.9961321407,MAFE4ImagesEEG,001,103063,
AMSA25.JPG,AMNE24.JPG,AMSA24.JPG,AMNE26.JPG,AMSA21.JPG,AMNE25.JPG,,,,,,,,,,,,,,,,,,,,,0,6,6,3,,,AFNE08.jpg,AFSA09.jpg,AFNE13.jpg,AFSA15.jpg,AFSA09.jpg,FS,4,num_6,32,num_8,1.83368534409,,,2018_Mar_01_1045,59.9961321407,MAFE4ImagesEEG,001,103063,
AFSA25.JPG,AFNE24.JPG,AFSA24.JPG,AFNE21.JPG,AFSA21.JPG,AFNE25.JPG,,,,,,,,,,,,,,,,,,,,,0,7,7,2,,,AFNE04.jpg,AFNE01.jpg,AFSA17.jpg,AFSA19.jpg,AFNE04.jpg,FN,3,num_8,16,num_8,1.6667247205,,,2018_Mar_01_1045,59.9961321407,MAFE4ImagesEEG,001,103063,
AMNE22.JPG,AMSA24.JPG,AMSA22.JPG,AMNE25.JPG,AMNE24.JPG,AMSA25.JPG,,,,,,,,,,,,,,,,,,,,,0,8,8,7,,,AFNE14.jpg,AFNE19.jpg,AFSA02.jpg,AFSA09.jpg,AFNE19.jpg,FN,3,num_6,32,num_4,1.35008584568,,,2018_Mar_01_1045,59.9961321407,MAFE4ImagesEEG,001,103063,
AFSA21.JPG,AFNE23.JPG,AFNE21.JPG,AFSA25.JPG,AFNE25.JPG,AFSA23.JPG,,,,,,,,,,,,,,,,,,,,,0,9,9,4,,,AFSA03.jpg,AFNE15.jpg,AFNE08.jpg,AFSA06.jpg,AFNE08.jpg,FN,3,num_2,32,num_6,1.10005128616,,,2018_Mar_01_1045,59.9961321407,MAFE4ImagesEEG,001,103063,
,,,,,,,,,,,,,,,,,,,,,,,,,,,,,,,,,,,,,,,,,,,space,9.93273175554,2018_Mar_01_1045,59.9961321407,MAFE4ImagesEEG,001,103063,
AFNE01.JPG,AFNE01.JPG,AFNE01.JPG,AFNE01.JPG,AFNE01.JPG,AFNE01.JPG,0,0,0,1,,,,,,,,,,,,,,,,,,,,,,,AMSA18.jpg,AMSA15.jpg,AMNE07.jpg,AMNE15.jpg,AMSA18.jpg,MS,2,num_8,32,num_6,1.05009267759,,,2018_Mar_01_1045,59.9961321407,MAFE4ImagesEEG,001,103063,
AFNE01.JPG,AFNE01.JPG,AFNE01.JPG,AFNE01.JPG,AFNE01.JPG,AFNE01.JPG,0,1,1,3,,,,,,,,,,,,,,,,,,,,,,,AMNE08.jpg,AMSA02.jpg,AMSA17.jpg,AMNE11.jpg,AMSA02.jpg,MS,2,num_6,16,num_6,0.916742280824,,,2018_Mar_01_1045,59.9961321407,MAFE4ImagesEEG,001,103063,
AFNE01.JPG,AFNE01.JPG,AFNE01.JPG,AFNE01.JPG,AFNE01.JPG,AFNE01.JPG,0,2,2,4,,,,,,,,,,,,,,,,,,,,,,,AMSA15.jpg,AMNE19.jpg,AMSA11.jpg,AMNE07.jpg,AMNE07.jpg,MN,1,num_4,16,num_4,1.00011995621,,,2018_Mar_01_1045,59.9961321407,MAFE4ImagesEEG,001,103063,
AFNE01.JPG,AFNE01.JPG,AFNE01.JPG,AFNE01.JPG,AFNE01.JPG,AFNE01.JPG,0,3,3,9,,,,,,,,,,,,,,,,,,,,,,,AMSA14.jpg,AMNE20.jpg,AMSA19.jpg,AMNE12.jpg,AMNE20.jpg,MN,1,num_6,32,num_4,1.0167842654,,,2018_Mar_01_1045,59.9961321407,MAFE4ImagesEEG,001,103063,
AFNE01.JPG,AFNE01.JPG,AFNE01.JPG,AFNE01.JPG,AFNE01.JPG,AFNE01.JPG,0,4,4,6,,,,,,,,,,,,,,,,,,,,,,,AMSA09.jpg,AMNE15.jpg,AMNE19.jpg,AMSA08.jpg,AMSA09.jpg,MS,2,num_8,32,num_2,2.31668858905,,,2018_Mar_01_1045,59.9961321407,MAFE4ImagesEEG,001,103063,
AFNE01.JPG,AFNE01.JPG,AFNE01.JPG,AFNE01.JPG,AFNE01.JPG,AFNE01.JPG,0,5,5,0,,,,,,,,,,,,,,,,,,,,,,,AMNE01.jpg,AMSA19.jpg,AMNE04.jpg,AMSA10.jpg,AMSA10.jpg,MS,2,num_4,16,num_4,1.11700554332,,,2018_Mar_01_1045,59.9961321407,MAFE4ImagesEEG,001,103063,
AFNE01.JPG,AFNE01.JPG,AFNE01.JPG,AFNE01.JPG,AFNE01.JPG,AFNE01.JPG,0,6,6,8,,,,,,,,,,,,,,,,,,,,,,,AMNE12.jpg,AMSA05.jpg,AMSA18.jpg,AMNE03.jpg,AMSA18.jpg,MS,2,num_2,16,num_2,1.51672990038,,,2018_Mar_01_1045,59.9961321407,MAFE4ImagesEEG,001,103063,
AFNE01.JPG,AFNE01.JPG,AFNE01.JPG,AFNE01.JPG,AFNE01.JPG,AFNE01.JPG,0,7,7,2,,,,,,,,,,,,,,,,,,,,,,,AMSA08.jpg,AMNE11.jpg,AMSA19.jpg,AMNE03.jpg,AMNE03.jpg,MN,1,num_4,32,num_2,1.18816018081,,,2018_Mar_01_1045,59.9961321407,MAFE4ImagesEEG,001,103063,
AFNE01.JPG,AFNE01.JPG,AFNE01.JPG,AFNE01.JPG,AFNE01.JPG,AFNE01.JPG,0,8,8,5,,,,,,,,,,,,,,,,,,,,,,,AMNE13.jpg,AMSA18.jpg,AMNE16.jpg,AMSA10.jpg,AMSA10.jpg,MS,2,num_4,16,num_4,1.06677943841,,,2018_Mar_01_1045,59.9961321407,MAFE4ImagesEEG,001,103063,
AFNE01.JPG,AFNE01.JPG,AFNE01.JPG,AFNE01.JPG,AFNE01.JPG,AFNE01.JPG,0,9,9,7,,,,,,,,,,,,,,,,,,,,,,,AMNE01.jpg,AMSA10.jpg,AMNE02.jpg,AMSA13.jpg,AMSA10.jpg,MS,2,num_6,16,num_6,0.866771804867,,,2018_Mar_01_1045,59.9961321407,MAFE4ImagesEEG,001,103063,
AFNE01.JPG,AFNE01.JPG,AFNE01.JPG,AFNE01.JPG,AFNE01.JPG,AFNE01.JPG,1,0,10,7,,,,,,,,,,,,,,,,,,,,,,,AMSA13.jpg,AMSA05.jpg,AMNE03.jpg,AMNE17.jpg,AMSA13.jpg,MS,2,num_8,32,num_6,1.99997626524,,,2018_Mar_01_1045,59.9961321407,MAFE4ImagesEEG,001,103063,
AFNE01.JPG,AFNE01.JPG,AFNE01.JPG,AFNE01.JPG,AFNE01.JPG,AFNE01.JPG,1,1,11,6,,,,,,,,,,,,,,,,,,,,,,,AMNE03.jpg,AMSA08.jpg,AMSA13.jpg,AMNE13.jpg,AMSA08.jpg,MS,2,num_6,32,num_4,1.00009173132,,,2018_Mar_01_1045,59.9961321407,MAFE4ImagesEEG,001,103063,
AFNE01.JPG,AFNE01.JPG,AFNE01.JPG,AFNE01.JPG,AFNE01.JPG,AFNE01.JPG,1,2,12,5,,,,,,,,,,,,,,,,,,,,,,,AMNE14.jpg,AMSA17.jpg,AMNE11.jpg,AMSA08.jpg,AMNE14.jpg,MN,1,num_8,16,num_8,1.45019165752,,,2018_Mar_01_1045,59.9961321407,MAFE4ImagesEEG,001,103063,
AFNE01.JPG,AFNE01.JPG,AFNE01.JPG,AFNE01.JPG,AFNE01.JPG,AFNE01.JPG,1,3,13,2,,,,,,,,,,,,,,,,,,,,,,,AMSA10.jpg,AMNE11.jpg,AMSA16.jpg,AMNE20.jpg,AMNE20.jpg,MN,1,num_4,16,num_4,1.11666299426,,,2018_Mar_01_1045,59.9961321407,MAFE4ImagesEEG,001,103063,
AFNE01.JPG,AFNE01.JPG,AFNE01.JPG,AFNE01.JPG,AFNE01.JPG,AFNE01.JPG,1,4,14,8,,,,,,,,,,,,,,,,,,,,,,,AMSA11.jpg,AMNE10.jpg,AMSA09.jpg,AMNE02.jpg,AMSA11.jpg,MS,2,num_8,32,num_6,0.616805883357,,,2018_Mar_01_1045,59.9961321407,MAFE4ImagesEEG,001,103063,
AFNE01.JPG,AFNE01.JPG,AFNE01.JPG,AFNE01.JPG,AFNE01.JPG,AFNE01.JPG,1,5,15,9,,,,,,,,,,,,,,,,,,,,,,,AMSA07.jpg,AMSA19.jpg,AMNE11.jpg,AMNE19.jpg,AMNE11.jpg,MN,1,num_2,32,num_8,1.01706427056,,,2018_Mar_01_1045,59.9961321407,MAFE4ImagesEEG,001,103063,
AFNE01.JPG,AFNE01.JPG,AFNE01.JPG,AFNE01.JPG,AFNE01.JPG,AFNE01.JPG,1,6,16,3,,,,,,,,,,,,,,,,,,,,,,,AMNE12.jpg,AMSA09.jpg,AMNE07.jpg,AMSA06.jpg,AMSA06.jpg,MS,2,num_4,32,num_8,1.28342540143,,,2018_Mar_01_1045,59.9961321407,MAFE4ImagesEEG,001,103063,
AFNE01.JPG,AFNE01.JPG,AFNE01.JPG,AFNE01.JPG,AFNE01.JPG,AFNE01.JPG,1,7,17,4,,,,,,,,,,,,,,,,,,,,,,,AMNE06.jpg,AMSA15.jpg,AMSA18.jpg,AMNE02.jpg,AMSA15.jpg,MS,2,num_6,32,num_2,1.20003810385,,,2018_Mar_01_1045,59.9961321407,MAFE4ImagesEEG,001,103063,
AFNE01.JPG,AFNE01.JPG,AFNE01.JPG,AFNE01.JPG,AFNE01.JPG,AFNE01.JPG,1,8,18,0,,,,,,,,,,,,,,,,,,,,,,,AMNE11.jpg,AMSA07.jpg,AMNE08.jpg,AMSA18.jpg,AMNE11.jpg,MN,1,num_8,32,num_6,1.13343924121,,,2018_Mar_01_1045,59.9961321407,MAFE4ImagesEEG,001,103063,
AFNE01.JPG,AFNE01.JPG,AFNE01.JPG,AFNE01.JPG,AFNE01.JPG,AFNE01.JPG,1,9,19,1,,,,,,,,,,,,,,,,,,,,,,,AMNE11.jpg,AMNE12.jpg,AMSA12.jpg,AMSA13.jpg,AMNE12.jpg,MN,1,num_6,32,num_8,1.4500838893,,,2018_Mar_01_1045,59.9961321407,MAFE4ImagesEEG,001,103063,
AFNE01.JPG,AFNE01.JPG,AFNE01.JPG,AFNE01.JPG,AFNE01.JPG,AFNE01.JPG,2,0,20,9,,,,,,,,,,,,,,,,,,,,,,,AMSA19.jpg,AMNE15.jpg,AMSA04.jpg,AMNE17.jpg,AMNE15.jpg,MN,1,num_6,32,num_4,0.466814912157,,,2018_Mar_01_1045,59.9961321407,MAFE4ImagesEEG,001,103063,
AFNE01.JPG,AFNE01.JPG,AFNE01.JPG,AFNE01.JPG,AFNE01.JPG,AFNE01.JPG,2,1,21,4,,,,,,,,,,,,,,,,,,,,,,,AMSA14.jpg,AMSA01.jpg,AMNE06.jpg,AMNE16.jpg,AMSA01.jpg,MS,2,num_6,32,num_4,0.400201616576,,,2018_Mar_01_1045,59.9961321407,MAFE4ImagesEEG,001,103063,
AFNE01.JPG,AFNE01.JPG,AFNE01.JPG,AFNE01.JPG,AFNE01.JPG,AFNE01.JPG,2,2,22,2,,,,,,,,,,,,,,,,,,,,,,,AMSA04.jpg,AMNE18.jpg,AMSA05.jpg,AMNE08.jpg,AMNE18.jpg,MN,1,num_6,16,num_6,1.63335472648,,,2018_Mar_01_1045,59.9961321407,MAFE4ImagesEEG,001,103063,
AFNE01.JPG,AFNE01.JPG,AFNE01.JPG,AFNE01.JPG,AFNE01.JPG,AFNE01.JPG,2,3,23,6,,,,,,,,,,,,,,,,,,,,,,,AMSA17.jpg,AMNE11.jpg,AMSA15.jpg,AMNE12.jpg,AMSA15.jpg,MS,2,num_2,16,num_2,1.50012909737,,,2018_Mar_01_1045,59.9961321407,MAFE4ImagesEEG,001,103063,
AFNE01.JPG,AFNE01.JPG,AFNE01.JPG,AFNE01.JPG,AFNE01.JPG,AFNE01.JPG,2,4,24,8,,,,,,,,,,,,,,,,,,,,,,,AMNE15.jpg,AMSA01.jpg,AMSA20.jpg,AMNE18.jpg,AMNE18.jpg,MN,1,num_4,16,num_4,1.28347030492,,,2018_Mar_01_1045,59.9961321407,MAFE4ImagesEEG,001,103063,
AFNE01.JPG,AFNE01.JPG,AFNE01.JPG,AFNE01.JPG,AFNE01.JPG,AFNE01.JPG,2,5,25,3,,,,,,,,,,,,,,,,,,,,,,,AMSA08.jpg,AMNE19.jpg,AMSA07.jpg,AMNE05.jpg,AMNE05.jpg,MN,1,num_4,32,num_8,1.33343532821,,,2018_Mar_01_1045,59.9961321407,MAFE4ImagesEEG,001,103063,
AFNE01.JPG,AFNE01.JPG,AFNE01.JPG,AFNE01.JPG,AFNE01.JPG,AFNE01.JPG,2,6,26,5,,,,,,,,,,,,,,,,,,,,,,,AMNE01.jpg,AMNE04.jpg,AMSA13.jpg,AMSA08.jpg,AMSA13.jpg,MS,2,num_2,16,num_2,1.26677328022,,,2018_Mar_01_1045,59.9961321407,MAFE4ImagesEEG,001,103063,
AFNE01.JPG,AFNE01.JPG,AFNE01.JPG,AFNE01.JPG,AFNE01.JPG,AFNE01.JPG,2,7,27,0,,,,,,,,,,,,,,,,,,,,,,,AMNE08.jpg,AMSA09.jpg,AMNE04.jpg,AMSA18.jpg,AMNE08.jpg,MN,1,num_8,16,num_8,1.0167143445,,,2018_Mar_01_1045,59.9961321407,MAFE4ImagesEEG,001,103063,
AFNE01.JPG,AFNE01.JPG,AFNE01.JPG,AFNE01.JPG,AFNE01.JPG,AFNE01.JPG,2,8,28,1,,,,,,,,,,,,,,,,,,,,,,,AMSA03.jpg,AMNE03.jpg,AMNE20.jpg,AMSA07.jpg,AMSA07.jpg,MS,2,num_4,32,num_2,1.53340896335,,,2018_Mar_01_1045,59.9961321407,MAFE4ImagesEEG,001,103063,
AFNE01.JPG,AFNE01.JPG,AFNE01.JPG,AFNE01.JPG,AFNE01.JPG,AFNE01.JPG,2,9,29,7,,,,,,,,,,,,,,,,,,,,,,,AMSA11.jpg,AMSA15.jpg,AMNE16.jpg,AMNE07.jpg,AMSA15.jpg,MS,2,num_6,32,num_8,1.55003831233,,,2018_Mar_01_1045,59.9961321407,MAFE4ImagesEEG,001,103063,
AFNE01.JPG,AFNE01.JPG,AFNE01.JPG,AFNE01.JPG,AFNE01.JPG,AFNE01.JPG,3,0,30,0,,,,,,,,,,,,,,,,,,,,,,,AMNE13.jpg,AMSA06.jpg,AMSA01.jpg,AMNE06.jpg,AMNE06.jpg,MN,1,num_4,32,num_6,1.28340166667,,,2018_Mar_01_1045,59.9961321407,MAFE4ImagesEEG,001,103063,
AFNE01.JPG,AFNE01.JPG,AFNE01.JPG,AFNE01.JPG,AFNE01.JPG,AFNE01.JPG,3,1,31,5,,,,,,,,,,,,,,,,,,,,,,,AMNE13.jpg,AMSA18.jpg,AMNE20.jpg,AMSA07.jpg,AMSA07.jpg,MS,2,num_4,16,num_4,1.35010797693,,,2018_Mar_01_1045,59.9961321407,MAFE4ImagesEEG,001,103063,
AFNE01.JPG,AFNE01.JPG,AFNE01.JPG,AFNE01.JPG,AFNE01.JPG,AFNE01.JPG,3,2,32,4,,,,,,,,,,,,,,,,,,,,,,,AMNE09.jpg,AMNE07.jpg,AMSA05.jpg,AMSA10.jpg,AMSA05.jpg,MS,2,num_2,16,num_2,1.76671025506,,,2018_Mar_01_1045,59.9961321407,MAFE4ImagesEEG,001,103063,
AFNE01.JPG,AFNE01.JPG,AFNE01.JPG,AFNE01.JPG,AFNE01.JPG,AFNE01.JPG,3,3,33,6,,,,,,,,,,,,,,,,,,,,,,,AMSA12.jpg,AMNE05.jpg,AMSA02.jpg,AMNE10.jpg,AMSA12.jpg,MS,2,num_8,16,num_8,0.866769559914,,,2018_Mar_01_1045,59.9961321407,MAFE4ImagesEEG,001,103063,
AFNE01.JPG,AFNE01.JPG,AFNE01.JPG,AFNE01.JPG,AFNE01.JPG,AFNE01.JPG,3,4,34,8,,,,,,,,,,,,,,,,,,,,,,,AMNE10.jpg,AMSA08.jpg,AMNE01.jpg,AMSA05.jpg,AMSA05.jpg,MS,2,num_4,32,num_2,1.40009192377,,,2018_Mar_01_1045,59.9961321407,MAFE4ImagesEEG,001,103063,
AFNE01.JPG,AFNE01.JPG,AFNE01.JPG,AFNE01.JPG,AFNE01.JPG,AFNE01.JPG,3,5,35,9,,,,,,,,,,,,,,,,,,,,,,,AMNE11.jpg,AMSA01.jpg,AMSA04.jpg,AMNE05.jpg,AMSA04.jpg,MS,2,num_2,32,num_6,1.81671344652,,,2018_Mar_01_1045,59.9961321407,MAFE4ImagesEEG,001,103063,
AFNE01.JPG,AFNE01.JPG,AFNE01.JPG,AFNE01.JPG,AFNE01.JPG,AFNE01.JPG,3,6,36,7,,,,,,,,,,,,,,,,,,,,,,,AMSA07.jpg,AMNE04.jpg,AMSA12.jpg,AMNE05.jpg,AMSA07.jpg,MS,2,num_8,32,num_2,1.96670762496,,,2018_Mar_01_1045,59.9961321407,MAFE4ImagesEEG,001,103063,
AFNE01.JPG,AFNE01.JPG,AFNE01.JPG,AFNE01.JPG,AFNE01.JPG,AFNE01.JPG,3,7,37,2,,,,,,,,,,,,,,,,,,,,,,,AMNE19.jpg,AMSA08.jpg,AMSA19.jpg,AMNE05.jpg,AMSA08.jpg,MS,2,num_6,16,num_6,0.750136715127,,,2018_Mar_01_1045,59.9961321407,MAFE4ImagesEEG,001,103063,
AFNE01.JPG,AFNE01.JPG,AFNE01.JPG,AFNE01.JPG,AFNE01.JPG,AFNE01.JPG,3,8,38,3,,,,,,,,,,,,,,,,,,,,,,,AMNE03.jpg,AMSA15.jpg,AMNE15.jpg,AMSA18.jpg,AMNE03.jpg,MN,1,num_8,32,num_2,0.900146288797,,,2018_Mar_01_1045,59.9961321407,MAFE4ImagesEEG,001,103063,
AFNE01.JPG,AFNE01.JPG,AFNE01.JPG,AFNE01.JPG,AFNE01.JPG,AFNE01.JPG,3,9,39,1,,,,,,,,,,,,,,,,,,,,,,,AMSA12.jpg,AMSA16.jpg,AMNE14.jpg,AMNE02.jpg,AMSA16.jpg,MS,2,num_6,16,num_6,1.36677132384,,,2018_Mar_01_1045,59.9961321407,MAFE4ImagesEEG,001,103063,
AFNE01.JPG,AFNE01.JPG,AFNE01.JPG,AFNE01.JPG,AFNE01.JPG,AFNE01.JPG,4,0,40,8,,,,,,,,,,,,,,,,,,,,,,,AMNE01.jpg,AMSA04.jpg,AMNE10.jpg,AMSA14.jpg,AMNE01.jpg,MN,1,num_8,32,num_2,1.43342278735,,,2018_Mar_01_1045,59.9961321407,MAFE4ImagesEEG,001,103063,
AFNE01.JPG,AFNE01.JPG,AFNE01.JPG,AFNE01.JPG,AFNE01.JPG,AFNE01.JPG,4,1,41,2,,,,,,,,,,,,,,,,,,,,,,,AMSA06.jpg,AMNE09.jpg,AMSA08.jpg,AMNE02.jpg,AMNE02.jpg,MN,1,num_4,16,num_4,0.933473945362,,,2018_Mar_01_1045,59.9961321407,MAFE4ImagesEEG,001,103063,
AFNE01.JPG,AFNE01.JPG,AFNE01.JPG,AFNE01.JPG,AFNE01.JPG,AFNE01.JPG,4,2,42,5,,,,,,,,,,,,,,,,,,,,,,,AMNE18.jpg,AMSA14.jpg,AMSA04.jpg,AMNE09.jpg,AMSA14.jpg,MS,2,num_6,16,num_6,1.98337610392,,,2018_Mar_01_1045,59.9961321407,MAFE4ImagesEEG,001,103063,
AFNE01.JPG,AFNE01.JPG,AFNE01.JPG,AFNE01.JPG,AFNE01.JPG,AFNE01.JPG,4,3,43,9,,,,,,,,,,,,,,,,,,,,,,,AMNE20.jpg,AMSA04.jpg,AMNE15.jpg,AMSA12.jpg,AMNE15.jpg,MN,1,num_2,16,num_2,1.55012843991,,,2018_Mar_01_1045,59.9961321407,MAFE4ImagesEEG,001,103063,
AFNE01.JPG,AFNE01.JPG,AFNE01.JPG,AFNE01.JPG,AFNE01.JPG,AFNE01.JPG,4,4,44,4,,,,,,,,,,,,,,,,,,,,,,,AMSA04.jpg,AMNE17.jpg,AMNE07.jpg,AMSA18.jpg,AMNE07.jpg,MN,1,num_2,16,num_2,1.13346137223,,,2018_Mar_01_1045,59.9961321407,MAFE4ImagesEEG,001,103063,
AFNE01.JPG,AFNE01.JPG,AFNE01.JPG,AFNE01.JPG,AFNE01.JPG,AFNE01.JPG,4,5,45,3,,,,,,,,,,,,,,,,,,,,,,,AMNE12.jpg,AMSA18.jpg,AMNE04.jpg,AMSA07.jpg,AMSA07.jpg,MS,2,num_4,16,num_4,0.583513829159,,,2018_Mar_01_1045,59.9961321407,MAFE4ImagesEEG,001,103063,
AFNE01.JPG,AFNE01.JPG,AFNE01.JPG,AFNE01.JPG,AFNE01.JPG,AFNE01.JPG,4,6,46,6,,,,,,,,,,,,,,,,,,,,,,,AMNE05.jpg,AMSA08.jpg,AMNE04.jpg,AMSA10.jpg,AMNE05.jpg,MN,1,num_8,16,num_8,0.816800045781,,,2018_Mar_01_1045,59.9961321407,MAFE4ImagesEEG,001,103063,
AFNE01.JPG,AFNE01.JPG,AFNE01.JPG,AFNE01.JPG,AFNE01.JPG,AFNE01.JPG,4,7,47,7,,,,,,,,,,,,,,,,,,,,,,,AMNE02.jpg,AMSA18.jpg,AMNE13.jpg,AMSA14.jpg,AMSA18.jpg,MS,2,num_6,16,num_6,0.850380444434,,,2018_Mar_01_1045,59.9961321407,MAFE4ImagesEEG,001,103063,
AFNE01.JPG,AFNE01.JPG,AFNE01.JPG,AFNE01.JPG,AFNE01.JPG,AFNE01.JPG,4,8,48,0,,,,,,,,,,,,,,,,,,,,,,,AMSA04.jpg,AMNE10.jpg,AMNE17.jpg,AMSA16.jpg,AMSA16.jpg,MS,2,num_4,16,num_4,1.39994470472,,,2018_Mar_01_1045,59.9961321407,MAFE4ImagesEEG,001,103063,
AFNE01.JPG,AFNE01.JPG,AFNE01.JPG,AFNE01.JPG,AFNE01.JPG,AFNE01.JPG,4,9,49,1,,,,,,,,,,,,,,,,,,,,,,,AMSA15.jpg,AMNE07.jpg,AMNE06.jpg,AMSA11.jpg,AMSA11.jpg,MS,2,num_4,16,num_4,1.75002830522,,,2018_Mar_01_1045,59.9961321407,MAFE4ImagesEEG,001,103063,
AFNE01.JPG,AFNE01.JPG,AFNE01.JPG,AFNE01.JPG,AFNE01.JPG,AFNE01.JPG,5,0,50,0,,,,,,,,,,,,,,,,,,,,,,,AMSA14.jpg,AMNE08.jpg,AMSA09.jpg,AMNE11.jpg,AMSA14.jpg,MS,2,num_8,32,num_2,1.51679917984,,,2018_Mar_01_1045,59.9961321407,MAFE4ImagesEEG,001,103063,
AFNE01.JPG,AFNE01.JPG,AFNE01.JPG,AFNE01.JPG,AFNE01.JPG,AFNE01.JPG,5,1,51,7,,,,,,,,,,,,,,,,,,,,,,,AMNE09.jpg,AMSA02.jpg,AMNE12.jpg,AMSA19.jpg,AMSA19.jpg,MS,2,num_4,32,num_2,1.63341695,,,2018_Mar_01_1045,59.9961321407,MAFE4ImagesEEG,001,103063,
AFNE01.JPG,AFNE01.JPG,AFNE01.JPG,AFNE01.JPG,AFNE01.JPG,AFNE01.JPG,5,2,52,1,,,,,,,,,,,,,,,,,,,,,,,AMSA08.jpg,AMSA07.jpg,AMNE12.jpg,AMNE08.jpg,AMNE12.jpg,MN,1,num_2,32,num_8,0.983452439774,,,2018_Mar_01_1045,59.9961321407,MAFE4ImagesEEG,001,103063,
AFNE01.JPG,AFNE01.JPG,AFNE01.JPG,AFNE01.JPG,AFNE01.JPG,AFNE01.JPG,5,3,53,2,,,,,,,,,,,,,,,,,,,,,,,AMNE06.jpg,AMNE17.jpg,AMSA07.jpg,AMSA09.jpg,AMSA07.jpg,MS,2,num_2,16,num_2,1.11671848199,,,2018_Mar_01_1045,59.9961321407,MAFE4ImagesEEG,001,103063,
AFNE01.JPG,AFNE01.JPG,AFNE01.JPG,AFNE01.JPG,AFNE01.JPG,AFNE01.JPG,5,4,54,6,,,,,,,,,,,,,,,,,,,,,,,AMSA06.jpg,AMSA04.jpg,AMNE05.jpg,AMNE17.jpg,AMNE05.jpg,MN,1,num_2,32,num_4,1.10013082949,,,2018_Mar_01_1045,59.9961321407,MAFE4ImagesEEG,001,103063,
AFNE01.JPG,AFNE01.JPG,AFNE01.JPG,AFNE01.JPG,AFNE01.JPG,AFNE01.JPG,5,5,55,9,,,,,,,,,,,,,,,,,,,,,,,AMSA15.jpg,AMNE10.jpg,AMSA16.jpg,AMNE04.jpg,AMSA16.jpg,MS,2,num_2,32,num_8,1.03336197534,,,2018_Mar_01_1045,59.9961321407,MAFE4ImagesEEG,001,103063,
AFNE01.JPG,AFNE01.JPG,AFNE01.JPG,AFNE01.JPG,AFNE01.JPG,AFNE01.JPG,5,6,56,5,,,,,,,,,,,,,,,,,,,,,,,AMNE14.jpg,AMNE13.jpg,AMSA04.jpg,AMSA08.jpg,AMSA04.jpg,MS,2,num_2,16,num_2,1.33343372471,,,2018_Mar_01_1045,59.9961321407,MAFE4ImagesEEG,001,103063,
AFNE01.JPG,AFNE01.JPG,AFNE01.JPG,AFNE01.JPG,AFNE01.JPG,AFNE01.JPG,5,7,57,4,,,,,,,,,,,,,,,,,,,,,,,AMNE10.jpg,AMSA11.jpg,AMNE19.jpg,AMSA07.jpg,AMSA07.jpg,MS,2,num_4,16,num_4,1.35008744942,,,2018_Mar_01_1045,59.9961321407,MAFE4ImagesEEG,001,103063,
AFNE01.JPG,AFNE01.JPG,AFNE01.JPG,AFNE01.JPG,AFNE01.JPG,AFNE01.JPG,5,8,58,3,,,,,,,,,,,,,,,,,,,,,,,AMSA11.jpg,AMSA20.jpg,AMNE17.jpg,AMNE02.jpg,AMNE17.jpg,MN,1,num_2,16,num_2,1.53341794433,,,2018_Mar_01_1045,59.9961321407,MAFE4ImagesEEG,001,103063,
AFNE01.JPG,AFNE01.JPG,AFNE01.JPG,AFNE01.JPG,AFNE01.JPG,AFNE01.JPG,5,9,59,8,,,,,,,,,,,,,,,,,,,,,,,AMNE04.jpg,AMSA11.jpg,AMSA04.jpg,AMNE16.jpg,AMSA04.jpg,MS,2,num_2,16,num_2,1.01675443677,,,2018_Mar_01_1045,59.9961321407,MAFE4ImagesEEG,001,103063,
,,,,,,,,,,,,,,,,,,,,,,,,,,,,,,,,,,,,,,,,,,,space,13.3991098213,2018_Mar_01_1045,59.9961321407,MAFE4ImagesEEG,001,103063,
AFNE01.JPG,AFNE01.JPG,AFNE01.JPG,AFNE01.JPG,AFNE01.JPG,AFNE01.JPG,,,,,0,0,0,5,,,,,,,,,,,,,,,,,,,AFNE01.jpg,AFSA07.jpg,AFSA18.jpg,AFNE06.jpg,AFNE01.jpg,FN,3,num_8,32,num_4,1.88339538034,,,2018_Mar_01_1045,59.9961321407,MAFE4ImagesEEG,001,103063,
AFNE01.JPG,AFNE01.JPG,AFNE01.JPG,AFNE01.JPG,AFNE01.JPG,AFNE01.JPG,,,,,0,1,1,0,,,,,,,,,,,,,,,,,,,AFNE16.jpg,AFNE06.jpg,AFSA03.jpg,AFSA12.jpg,AFNE16.jpg,FN,3,num_8,16,num_8,1.10010998137,,,2018_Mar_01_1045,59.9961321407,MAFE4ImagesEEG,001,103063,
AFNE01.JPG,AFNE01.JPG,AFNE01.JPG,AFNE01.JPG,AFNE01.JPG,AFNE01.JPG,,,,,0,2,2,8,,,,,,,,,,,,,,,,,,,AFNE17.jpg,AFSA04.jpg,AFSA11.jpg,AFNE20.jpg,AFSA11.jpg,FS,4,num_2,16,num_2,0.966885955771,,,2018_Mar_01_1045,59.9961321407,MAFE4ImagesEEG,001,103063,
AFNE01.JPG,AFNE01.JPG,AFNE01.JPG,AFNE01.JPG,AFNE01.JPG,AFNE01.JPG,,,,,0,3,3,1,,,,,,,,,,,,,,,,,,,AFSA05.jpg,AFNE08.jpg,AFNE05.jpg,AFSA06.jpg,AFNE05.jpg,FN,3,num_2,32,num_6,0.866771163419,,,2018_Mar_01_1045,59.9961321407,MAFE4ImagesEEG,001,103063,
AFNE01.JPG,AFNE01.JPG,AFNE01.JPG,AFNE01.JPG,AFNE01.JPG,AFNE01.JPG,,,,,0,4,4,9,,,,,,,,,,,,,,,,,,,AFSA17.jpg,AFNE10.jpg,AFNE06.jpg,AFSA01.jpg,AFSA17.jpg,FS,4,num_8,16,num_8,1.31673381338,,,2018_Mar_01_1045,59.9961321407,MAFE4ImagesEEG,001,103063,
AFNE01.JPG,AFNE01.JPG,AFNE01.JPG,AFNE01.JPG,AFNE01.JPG,AFNE01.JPG,,,,,0,5,5,6,,,,,,,,,,,,,,,,,,,AFSA10.jpg,AFNE05.jpg,AFNE09.jpg,AFSA05.jpg,AFSA05.jpg,FS,4,num_4,32,num_2,1.35040401877,,,2018_Mar_01_1045,59.9961321407,MAFE4ImagesEEG,001,103063,
AFNE01.JPG,AFNE01.JPG,AFNE01.JPG,AFNE01.JPG,AFNE01.JPG,AFNE01.JPG,,,,,0,6,6,2,,,,,,,,,,,,,,,,,,,AFNE01.jpg,AFSA02.jpg,AFSA10.jpg,AFNE16.jpg,AFSA10.jpg,FS,4,num_2,32,num_4,1.10010164231,,,2018_Mar_01_1045,59.9961321407,MAFE4ImagesEEG,001,103063,
AFNE01.JPG,AFNE01.JPG,AFNE01.JPG,AFNE01.JPG,AFNE01.JPG,AFNE01.JPG,,,,,0,7,7,3,,,,,,,,,,,,,,,,,,,AFNE20.jpg,AFSA17.jpg,AFSA16.jpg,AFNE09.jpg,AFSA17.jpg,FS,4,num_6,32,num_8,1.55002516205,,,2018_Mar_01_1045,59.9961321407,MAFE4ImagesEEG,001,103063,
AFNE01.JPG,AFNE01.JPG,AFNE01.JPG,AFNE01.JPG,AFNE01.JPG,AFNE01.JPG,,,,,0,8,8,7,,,,,,,,,,,,,,,,,,,AFSA16.jpg,AFSA13.jpg,AFNE14.jpg,AFNE09.jpg,AFNE09.jpg,FN,3,num_4,16,num_4,1.46671452094,,,2018_Mar_01_1045,59.9961321407,MAFE4ImagesEEG,001,103063,
AFNE01.JPG,AFNE01.JPG,AFNE01.JPG,AFNE01.JPG,AFNE01.JPG,AFNE01.JPG,,,,,0,9,9,4,,,,,,,,,,,,,,,,,,,AFSA17.jpg,AFSA14.jpg,AFNE18.jpg,AFNE17.jpg,AFSA17.jpg,FS,4,num_8,16,num_8,1.50012075831,,,2018_Mar_01_1045,59.9961321407,MAFE4ImagesEEG,001,103063,
AFNE01.JPG,AFNE01.JPG,AFNE01.JPG,AFNE01.JPG,AFNE01.JPG,AFNE01.JPG,,,,,1,0,10,8,,,,,,,,,,,,,,,,,,,AFSA09.jpg,AFNE10.jpg,AFSA08.jpg,AFNE05.jpg,AFSA09.jpg,FS,4,num_8,32,num_4,1.88337292848,,,2018_Mar_01_1045,59.9961321407,MAFE4ImagesEEG,001,103063,
AFNE01.JPG,AFNE01.JPG,AFNE01.JPG,AFNE01.JPG,AFNE01.JPG,AFNE01.JPG,,,,,1,1,11,2,,,,,,,,,,,,,,,,,,,AFSA15.jpg,AFNE05.jpg,AFSA10.jpg,AFNE06.jpg,AFNE05.jpg,FN,3,num_6,32,num_8,1.76669999142,,,2018_Mar_01_1045,59.9961321407,MAFE4ImagesEEG,001,103063,
AFNE01.JPG,AFNE01.JPG,AFNE01.JPG,AFNE01.JPG,AFNE01.JPG,AFNE01.JPG,,,,,1,2,12,6,,,,,,,,,,,,,,,,,,,AFSA09.jpg,AFSA08.jpg,AFNE01.jpg,AFNE19.jpg,AFSA08.jpg,FS,4,num_6,16,num_6,1.5498279077,,,2018_Mar_01_1045,59.9961321407,MAFE4ImagesEEG,001,103063,
AFNE01.JPG,AFNE01.JPG,AFNE01.JPG,AFNE01.JPG,AFNE01.JPG,AFNE01.JPG,,,,,1,3,13,0,,,,,,,,,,,,,,,,,,,AFNE09.jpg,AFNE15.jpg,AFSA09.jpg,AFSA06.jpg,AFSA09.jpg,FS,4,num_2,32,num_4,1.03351496789,,,2018_Mar_01_1045,59.9961321407,MAFE4ImagesEEG,001,103063,
AFNE01.JPG,AFNE01.JPG,AFNE01.JPG,AFNE01.JPG,AFNE01.JPG,AFNE01.JPG,,,,,1,4,14,5,,,,,,,,,,,,,,,,,,,AFNE15.jpg,AFSA15.jpg,AFSA03.jpg,AFNE19.jpg,AFNE15.jpg,FN,3,num_8,16,num_8,1.28328203107,,,2018_Mar_01_1045,59.9961321407,MAFE4ImagesEEG,001,103063,
AFNE01.JPG,AFNE01.JPG,AFNE01.JPG,AFNE01.JPG,AFNE01.JPG,AFNE01.JPG,,,,,1,5,15,7,,,,,,,,,,,,,,,,,,,AFSA03.jpg,AFSA15.jpg,AFNE16.jpg,AFNE08.jpg,AFSA15.jpg,FS,4,num_6,16,num_6,1.16673899349,,,2018_Mar_01_1045,59.9961321407,MAFE4ImagesEEG,001,103063,
AFNE01.JPG,AFNE01.JPG,AFNE01.JPG,AFNE01.JPG,AFNE01.JPG,AFNE01.JPG,,,,,1,6,16,4,,,,,,,,,,,,,,,,,,,AFSA16.jpg,AFNE09.jpg,AFSA20.jpg,AFNE01.jpg,AFSA16.jpg,FS,4,num_8,32,num_4,1.01674192795,,,2018_Mar_01_1045,59.9961321407,MAFE4ImagesEEG,001,103063,
AFNE01.JPG,AFNE01.JPG,AFNE01.JPG,AFNE01.JPG,AFNE01.JPG,AFNE01.JPG,,,,,1,7,17,9,,,,,,,,,,,,,,,,,,,AFNE14.jpg,AFNE18.jpg,AFSA09.jpg,AFSA04.jpg,AFNE14.jpg,FN,3,num_8,16,num_8,1.15017090575,,,2018_Mar_01_1045,59.9961321407,MAFE4ImagesEEG,001,103063,
AFNE01.JPG,AFNE01.JPG,AFNE01.JPG,AFNE01.JPG,AFNE01.JPG,AFNE01.JPG,,,,,1,8,18,1,,,,,,,,,,,,,,,,,,,AFNE15.jpg,AFSA07.jpg,AFNE06.jpg,AFSA03.jpg,AFSA07.jpg,FS,4,num_6,32,num_2,2.28341032681,,,2018_Mar_01_1045,59.9961321407,MAFE4ImagesEEG,001,103063,
AFNE01.JPG,AFNE01.JPG,AFNE01.JPG,AFNE01.JPG,AFNE01.JPG,AFNE01.JPG,,,,,1,9,19,3,,,,,,,,,,,,,,,,,,,AFNE06.jpg,AFSA13.jpg,AFSA17.jpg,AFNE16.jpg,AFSA17.jpg,FS,4,num_2,32,num_4,2.30005827826,,,2018_Mar_01_1045,59.9961321407,MAFE4ImagesEEG,001,103063,
AFNE01.JPG,AFNE01.JPG,AFNE01.JPG,AFNE01.JPG,AFNE01.JPG,AFNE01.JPG,,,,,2,0,20,5,,,,,,,,,,,,,,,,,,,AFNE10.jpg,AFSA18.jpg,AFSA12.jpg,AFNE19.jpg,AFNE10.jpg,FN,3,num_8,32,num_6,1.38343082205,,,2018_Mar_01_1045,59.9961321407,MAFE4ImagesEEG,001,103063,
AFNE01.JPG,AFNE01.JPG,AFNE01.JPG,AFNE01.JPG,AFNE01.JPG,AFNE01.JPG,,,,,2,1,21,1,,,,,,,,,,,,,,,,,,,AFSA16.jpg,AFSA04.jpg,AFNE10.jpg,AFNE02.jpg,AFSA16.jpg,FS,4,num_8,32,num_4,1.50006815698,,,2018_Mar_01_1045,59.9961321407,MAFE4ImagesEEG,001,103063,
AFNE01.JPG,AFNE01.JPG,AFNE01.JPG,AFNE01.JPG,AFNE01.JPG,AFNE01.JPG,,,,,2,2,22,6,,,,,,,,,,,,,,,,,,,AFSA15.jpg,AFNE02.jpg,AFNE08.jpg,AFSA19.jpg,AFSA15.jpg,FS,4,num_8,32,num_6,2.83305733767,,,2018_Mar_01_1045,59.9961321407,MAFE4ImagesEEG,001,103063,
AFNE01.JPG,AFNE01.JPG,AFNE01.JPG,AFNE01.JPG,AFNE01.JPG,AFNE01.JPG,,,,,2,3,23,4,,,,,,,,,,,,,,,,,,,AFSA07.jpg,AFNE13.jpg,AFNE16.jpg,AFSA18.jpg,AFNE13.jpg,FN,3,num_6,16,num_6,0.650093447417,,,2018_Mar_01_1045,59.9961321407,MAFE4ImagesEEG,001,103063,
AFNE01.JPG,AFNE01.JPG,AFNE01.JPG,AFNE01.JPG,AFNE01.JPG,AFNE01.JPG,,,,,2,4,24,2,,,,,,,,,,,,,,,,,,,AFNE12.jpg,AFSA04.jpg,AFSA14.jpg,AFNE13.jpg,AFSA04.jpg,FS,4,num_6,16,num_6,0.61675264081,,,2018_Mar_01_1045,59.9961321407,MAFE4ImagesEEG,001,103063,
AFNE01.JPG,AFNE01.JPG,AFNE01.JPG,AFNE01.JPG,AFNE01.JPG,AFNE01.JPG,,,,,2,5,25,9,,,,,,,,,,,,,,,,,,,AFSA14.jpg,AFNE17.jpg,AFNE01.jpg,AFSA05.jpg,AFSA05.jpg,FS,4,num_4,16,num_4,1.10036785528,,,2018_Mar_01_1045,59.9961321407,MAFE4ImagesEEG,001,103063,
AFNE01.JPG,AFNE01.JPG,AFNE01.JPG,AFNE01.JPG,AFNE01.JPG,AFNE01.JPG,,,,,2,6,26,7,,,,,,,,,,,,,,,,,,,AFSA20.jpg,AFNE13.jpg,AFNE18.jpg,AFSA12.jpg,AFNE13.jpg,FN,3,num_6,32,num_2,2.91663290886,,,2018_Mar_01_1045,59.9961321407,MAFE4ImagesEEG,001,103063,
AFNE01.JPG,AFNE01.JPG,AFNE01.JPG,AFNE01.JPG,AFNE01.JPG,AFNE01.JPG,,,,,2,7,27,0,,,,,,,,,,,,,,,,,,,AFSA03.jpg,AFNE13.jpg,AFSA11.jpg,AFNE08.jpg,AFNE13.jpg,FN,3,num_6,32,num_4,0.750098226126,,,2018_Mar_01_1045,59.9961321407,MAFE4ImagesEEG,001,103063,
AFNE01.JPG,AFNE01.JPG,AFNE01.JPG,AFNE01.JPG,AFNE01.JPG,AFNE01.JPG,,,,,2,8,28,8,,,,,,,,,,,,,,,,,,,AFNE03.jpg,AFNE14.jpg,AFSA05.jpg,AFSA11.jpg,AFSA05.jpg,FS,4,num_2,32,num_4,1.18330323207,,,2018_Mar_01_1045,59.9961321407,MAFE4ImagesEEG,001,103063,
AFNE01.JPG,AFNE01.JPG,AFNE01.JPG,AFNE01.JPG,AFNE01.JPG,AFNE01.JPG,,,,,2,9,29,3,,,,,,,,,,,,,,,,,,,AFSA17.jpg,AFNE02.jpg,AFNE13.jpg,AFSA10.jpg,AFSA10.jpg,FS,4,num_4,16,num_4,0.850166190881,,,2018_Mar_01_1045,59.9961321407,MAFE4ImagesEEG,001,103063,
AFNE01.JPG,AFNE01.JPG,AFNE01.JPG,AFNE01.JPG,AFNE01.JPG,AFNE01.JPG,,,,,3,0,30,5,,,,,,,,,,,,,,,,,,,AFSA11.jpg,AFNE02.jpg,AFNE11.jpg,AFSA19.jpg,AFNE02.jpg,FN,3,num_6,16,num_6,1.20021418948,,,2018_Mar_01_1045,59.9961321407,MAFE4ImagesEEG,001,103063,
AFNE01.JPG,AFNE01.JPG,AFNE01.JPG,AFNE01.JPG,AFNE01.JPG,AFNE01.JPG,,,,,3,1,31,9,,,,,,,,,,,,,,,,,,,AFNE19.jpg,AFNE01.jpg,AFSA04.jpg,AFSA13.jpg,AFSA04.jpg,FS,4,num_2,32,num_8,1.80006870232,,,2018_Mar_01_1045,59.9961321407,MAFE4ImagesEEG,001,103063,
AFNE01.JPG,AFNE01.JPG,AFNE01.JPG,AFNE01.JPG,AFNE01.JPG,AFNE01.JPG,,,,,3,2,32,6,,,,,,,,,,,,,,,,,,,AFSA05.jpg,AFSA04.jpg,AFNE07.jpg,AFNE11.jpg,AFSA05.jpg,FS,4,num_8,32,num_6,2.31636400148,,,2018_Mar_01_1045,59.9961321407,MAFE4ImagesEEG,001,103063,
AFNE01.JPG,AFNE01.JPG,AFNE01.JPG,AFNE01.JPG,AFNE01.JPG,AFNE01.JPG,,,,,3,3,33,2,,,,,,,,,,,,,,,,,,,AFNE20.jpg,AFSA07.jpg,AFSA12.jpg,AFNE11.jpg,AFNE20.jpg,FN,3,num_8,32,num_6,2.20018051169,,,2018_Mar_01_1045,59.9961321407,MAFE4ImagesEEG,001,103063,
AFNE01.JPG,AFNE01.JPG,AFNE01.JPG,AFNE01.JPG,AFNE01.JPG,AFNE01.JPG,,,,,3,4,34,0,,,,,,,,,,,,,,,,,,,AFSA17.jpg,AFNE16.jpg,AFNE17.jpg,AFSA01.jpg,AFSA01.jpg,FS,4,num_4,32,num_8,1.5168290087,,,2018_Mar_01_1045,59.9961321407,MAFE4ImagesEEG,001,103063,
AFNE01.JPG,AFNE01.JPG,AFNE01.JPG,AFNE01.JPG,AFNE01.JPG,AFNE01.JPG,,,,,3,5,35,8,,,,,,,,,,,,,,,,,,,AFSA02.jpg,AFNE20.jpg,AFNE14.jpg,AFSA10.jpg,AFSA10.jpg,FS,4,num_4,16,num_4,1.7000950349,,,2018_Mar_01_1045,59.9961321407,MAFE4ImagesEEG,001,103063,
AFNE01.JPG,AFNE01.JPG,AFNE01.JPG,AFNE01.JPG,AFNE01.JPG,AFNE01.JPG,,,,,3,6,36,1,,,,,,,,,,,,,,,,,,,AFNE10.jpg,AFNE02.jpg,AFSA16.jpg,AFSA14.jpg,AFSA14.jpg,FS,4,num_4,32,num_2,1.9000154275,,,2018_Mar_01_1045,59.9961321407,MAFE4ImagesEEG,001,103063,
AFNE01.JPG,AFNE01.JPG,AFNE01.JPG,AFNE01.JPG,AFNE01.JPG,AFNE01.JPG,,,,,3,7,37,3,,,,,,,,,,,,,,,,,,,AFNE07.jpg,AFNE13.jpg,AFSA16.jpg,AFSA14.jpg,AFSA14.jpg,FS,4,num_4,32,num_8,1.1834623185,,,2018_Mar_01_1045,59.9961321407,MAFE4ImagesEEG,001,103063,
AFNE01.JPG,AFNE01.JPG,AFNE01.JPG,AFNE01.JPG,AFNE01.JPG,AFNE01.JPG,,,,,3,8,38,4,,,,,,,,,,,,,,,,,,,AFNE12.jpg,AFSA18.jpg,AFSA01.jpg,AFNE04.jpg,AFSA01.jpg,FS,4,num_2,32,num_8,1.00009301421,,,2018_Mar_01_1045,59.9961321407,MAFE4ImagesEEG,001,103063,
AFNE01.JPG,AFNE01.JPG,AFNE01.JPG,AFNE01.JPG,AFNE01.JPG,AFNE01.JPG,,,,,3,9,39,7,,,,,,,,,,,,,,,,,,,AFSA13.jpg,AFNE11.jpg,AFNE12.jpg,AFSA07.jpg,AFSA13.jpg,FS,4,num_8,16,num_8,0.783345056465,,,2018_Mar_01_1045,59.9961321407,MAFE4ImagesEEG,001,103063,
AFNE01.JPG,AFNE01.JPG,AFNE01.JPG,AFNE01.JPG,AFNE01.JPG,AFNE01.JPG,,,,,4,0,40,6,,,,,,,,,,,,,,,,,,,AFNE11.jpg,AFSA19.jpg,AFSA04.jpg,AFNE05.jpg,AFNE05.jpg,FN,3,num_4,32,num_8,1.56678152317,,,2018_Mar_01_1045,59.9961321407,MAFE4ImagesEEG,001,103063,
AFNE01.JPG,AFNE01.JPG,AFNE01.JPG,AFNE01.JPG,AFNE01.JPG,AFNE01.JPG,,,,,4,1,41,9,,,,,,,,,,,,,,,,,,,AFSA03.jpg,AFSA10.jpg,AFNE03.jpg,AFNE20.jpg,AFNE20.jpg,FN,3,num_4,16,num_4,0.800106228562,,,2018_Mar_01_1045,59.9961321407,MAFE4ImagesEEG,001,103063,
AFNE01.JPG,AFNE01.JPG,AFNE01.JPG,AFNE01.JPG,AFNE01.JPG,AFNE01.JPG,,,,,4,2,42,0,,,,,,,,,,,,,,,,,,,AFNE19.jpg,AFNE20.jpg,AFSA12.jpg,AFSA18.jpg,AFNE19.jpg,FN,3,num_8,32,num_6,1.74972488615,,,2018_Mar_01_1045,59.9961321407,MAFE4ImagesEEG,001,103063,
AFNE01.JPG,AFNE01.JPG,AFNE01.JPG,AFNE01.JPG,AFNE01.JPG,AFNE01.JPG,,,,,4,3,43,4,,,,,,,,,,,,,,,,,,,AFSA13.jpg,AFSA18.jpg,AFNE07.jpg,AFNE14.jpg,AFSA13.jpg,FS,4,num_8,16,num_8,1.26675628102,,,2018_Mar_01_1045,59.9961321407,MAFE4ImagesEEG,001,103063,
AFNE01.JPG,AFNE01.JPG,AFNE01.JPG,AFNE01.JPG,AFNE01.JPG,AFNE01.JPG,,,,,4,4,44,2,,,,,,,,,,,,,,,,,,,AFNE08.jpg,AFNE14.jpg,AFSA06.jpg,AFSA09.jpg,AFNE14.jpg,FN,3,num_6,32,num_8,1.08344984194,,,2018_Mar_01_1045,59.9961321407,MAFE4ImagesEEG,001,103063,
AFNE01.JPG,AFNE01.JPG,AFNE01.JPG,AFNE01.JPG,AFNE01.JPG,AFNE01.JPG,,,,,4,5,45,5,,,,,,,,,,,,,,,,,,,AFSA02.jpg,AFSA11.jpg,AFNE07.jpg,AFNE05.jpg,AFNE07.jpg,FN,3,num_2,32,num_8,0.983538718428,,,2018_Mar_01_1045,59.9961321407,MAFE4ImagesEEG,001,103063,
AFNE01.JPG,AFNE01.JPG,AFNE01.JPG,AFNE01.JPG,AFNE01.JPG,AFNE01.JPG,,,,,4,6,46,1,,,,,,,,,,,,,,,,,,,AFSA03.jpg,AFNE12.jpg,AFNE15.jpg,AFSA01.jpg,AFSA03.jpg,FS,4,num_8,16,num_8,1.60005112574,,,2018_Mar_01_1045,59.9961321407,MAFE4ImagesEEG,001,103063,
AFNE01.JPG,AFNE01.JPG,AFNE01.JPG,AFNE01.JPG,AFNE01.JPG,AFNE01.JPG,,,,,4,7,47,8,,,,,,,,,,,,,,,,,,,AFNE08.jpg,AFNE03.jpg,AFSA12.jpg,AFSA19.jpg,AFNE08.jpg,FN,3,num_8,16,num_8,1.30009708786,,,2018_Mar_01_1045,59.9961321407,MAFE4ImagesEEG,001,103063,
AFNE01.JPG,AFNE01.JPG,AFNE01.JPG,AFNE01.JPG,AFNE01.JPG,AFNE01.JPG,,,,,4,8,48,3,,,,,,,,,,,,,,,,,,,AFSA04.jpg,AFNE17.jpg,AFSA02.jpg,AFNE16.jpg,AFSA02.jpg,FS,4,num_2,32,num_6,1.13346490054,,,2018_Mar_01_1045,59.9961321407,MAFE4ImagesEEG,001,103063,
AFNE01.JPG,AFNE01.JPG,AFNE01.JPG,AFNE01.JPG,AFNE01.JPG,AFNE01.JPG,,,,,4,9,49,7,,,,,,,,,,,,,,,,,,,AFSA19.jpg,AFNE07.jpg,AFNE08.jpg,AFSA04.jpg,AFNE08.jpg,FN,3,num_2,16,num_2,1.21673897724,,,2018_Mar_01_1045,59.9961321407,MAFE4ImagesEEG,001,103063,
AFNE01.JPG,AFNE01.JPG,AFNE01.JPG,AFNE01.JPG,AFNE01.JPG,AFNE01.JPG,,,,,5,0,50,5,,,,,,,,,,,,,,,,,,,AFSA11.jpg,AFNE09.jpg,AFSA02.jpg,AFNE18.jpg,AFSA02.jpg,FS,4,num_2,16,num_2,1.45011500083,,,2018_Mar_01_1045,59.9961321407,MAFE4ImagesEEG,001,103063,
AFNE01.JPG,AFNE01.JPG,AFNE01.JPG,AFNE01.JPG,AFNE01.JPG,AFNE01.JPG,,,,,5,1,51,3,,,,,,,,,,,,,,,,,,,AFSA10.jpg,AFNE18.jpg,AFNE13.jpg,AFSA17.jpg,AFNE18.jpg,FN,3,num_6,16,num_6,1.33341127285,,,2018_Mar_01_1045,59.9961321407,MAFE4ImagesEEG,001,103063,
AFNE01.JPG,AFNE01.JPG,AFNE01.JPG,AFNE01.JPG,AFNE01.JPG,AFNE01.JPG,,,,,5,2,52,6,,,,,,,,,,,,,,,,,,,AFNE06.jpg,AFSA05.jpg,AFSA08.jpg,AFNE13.jpg,AFNE13.jpg,FN,3,num_4,32,num_8,1.06681087078,,,2018_Mar_01_1045,59.9961321407,MAFE4ImagesEEG,001,103063,
AFNE01.JPG,AFNE01.JPG,AFNE01.JPG,AFNE01.JPG,AFNE01.JPG,AFNE01.JPG,,,,,5,3,53,9,,,,,,,,,,,,,,,,,,,AFSA08.jpg,AFSA07.jpg,AFNE18.jpg,AFNE03.jpg,AFNE18.jpg,FN,3,num_2,32,num_4,0.750142488396,,,2018_Mar_01_1045,59.9961321407,MAFE4ImagesEEG,001,103063,
AFNE01.JPG,AFNE01.JPG,AFNE01.JPG,AFNE01.JPG,AFNE01.JPG,AFNE01.JPG,,,,,5,4,54,4,,,,,,,,,,,,,,,,,,,AFSA19.jpg,AFNE06.jpg,AFSA04.jpg,AFNE16.jpg,AFNE16.jpg,FN,3,num_4,16,num_4,0.833425224992,,,2018_Mar_01_1045,59.9961321407,MAFE4ImagesEEG,001,103063,
AFNE01.JPG,AFNE01.JPG,AFNE01.JPG,AFNE01.JPG,AFNE01.JPG,AFNE01.JPG,,,,,5,5,55,8,,,,,,,,,,,,,,,,,,,AFSA20.jpg,AFSA01.jpg,AFNE14.jpg,AFNE16.jpg,AFSA20.jpg,FS,4,num_8,16,num_8,1.70008797874,,,2018_Mar_01_1045,59.9961321407,MAFE4ImagesEEG,001,103063,
AFNE01.JPG,AFNE01.JPG,AFNE01.JPG,AFNE01.JPG,AFNE01.JPG,AFNE01.JPG,,,,,5,6,56,1,,,,,,,,,,,,,,,,,,,AFNE07.jpg,AFNE20.jpg,AFSA08.jpg,AFSA05.jpg,AFNE07.jpg,FN,3,num_8,32,num_4,1.68338774657,,,2018_Mar_01_1045,59.9961321407,MAFE4ImagesEEG,001,103063,
AFNE01.JPG,AFNE01.JPG,AFNE01.JPG,AFNE01.JPG,AFNE01.JPG,AFNE01.JPG,,,,,5,7,57,2,,,,,,,,,,,,,,,,,,,AFSA19.jpg,AFSA16.jpg,AFNE05.jpg,AFNE08.jpg,AFNE05.jpg,FN,3,num_2,32,num_4,1.83322700858,,,2018_Mar_01_1045,59.9961321407,MAFE4ImagesEEG,001,103063,
AFNE01.JPG,AFNE01.JPG,AFNE01.JPG,AFNE01.JPG,AFNE01.JPG,AFNE01.JPG,,,,,5,8,58,0,,,,,,,,,,,,,,,,,,,AFNE19.jpg,AFSA12.jpg,AFSA08.jpg,AFNE15.jpg,AFSA12.jpg,FS,4,num_6,16,num_6,1.68346087518,,,2018_Mar_01_1045,59.9961321407,MAFE4ImagesEEG,001,103063,
AFNE01.JPG,AFNE01.JPG,AFNE01.JPG,AFNE01.JPG,AFNE01.JPG,AFNE01.JPG,,,,,5,9,59,7,,,,,,,,,,,,,,,,,,,AFNE06.jpg,AFSA20.jpg,AFSA16.jpg,AFNE20.jpg,AFNE06.jpg,FN,3,num_8,16,num_8,2.03339276626,,,2018_Mar_01_1045,59.9961321407,MAFE4ImagesEEG,001,103063,
,,,,,,,,,,,,,,,,,,,,,,,,,,,,,,,,,,,,,,,,,,,space,22.4147852927,2018_Mar_01_1045,59.9961321407,MAFE4ImagesEEG,001,103063,
AFNE01.JPG,AFNE01.JPG,AFNE01.JPG,AFNE01.JPG,AFNE01.JPG,AFNE01.JPG,,,,,,,,,0,0,0,8,,,,,,,,,,,,,,,AMSA16.jpg,AMSA19.jpg,AMNE13.jpg,AMNE19.jpg,AMNE13.jpg,MN,1,num_2,16,num_2,1.15019624401,,,2018_Mar_01_1045,59.9961321407,MAFE4ImagesEEG,001,103063,
AFNE01.JPG,AFNE01.JPG,AFNE01.JPG,AFNE01.JPG,AFNE01.JPG,AFNE01.JPG,,,,,,,,,0,1,1,2,,,,,,,,,,,,,,,AMSA10.jpg,AMNE05.jpg,AMNE06.jpg,AMSA03.jpg,AMNE05.jpg,MN,1,num_6,32,num_8,1.88342649187,,,2018_Mar_01_1045,59.9961321407,MAFE4ImagesEEG,001,103063,
AFNE01.JPG,AFNE01.JPG,AFNE01.JPG,AFNE01.JPG,AFNE01.JPG,AFNE01.JPG,,,,,,,,,0,2,2,4,,,,,,,,,,,,,,,AMNE04.jpg,AMNE03.jpg,AMSA15.jpg,AMSA18.jpg,AMSA18.jpg,MS,2,num_4,16,num_4,0.566795635736,,,2018_Mar_01_1045,59.9961321407,MAFE4ImagesEEG,001,103063,
AFNE01.JPG,AFNE01.JPG,AFNE01.JPG,AFNE01.JPG,AFNE01.JPG,AFNE01.JPG,,,,,,,,,0,3,3,5,,,,,,,,,,,,,,,AMNE19.jpg,AMNE11.jpg,AMSA03.jpg,AMSA07.jpg,AMNE11.jpg,MN,1,num_6,16,num_6,1.01676405896,,,2018_Mar_01_1045,59.9961321407,MAFE4ImagesEEG,001,103063,
AFNE01.JPG,AFNE01.JPG,AFNE01.JPG,AFNE01.JPG,AFNE01.JPG,AFNE01.JPG,,,,,,,,,0,4,4,3,,,,,,,,,,,,,,,AMNE03.jpg,AMNE11.jpg,AMSA04.jpg,AMSA02.jpg,AMSA02.jpg,MS,2,num_4,16,num_4,1.50010279682,,,2018_Mar_01_1045,59.9961321407,MAFE4ImagesEEG,001,103063,
AFNE01.JPG,AFNE01.JPG,AFNE01.JPG,AFNE01.JPG,AFNE01.JPG,AFNE01.JPG,,,,,,,,,0,5,5,0,,,,,,,,,,,,,,,AMNE07.jpg,AMSA16.jpg,AMNE01.jpg,AMSA17.jpg,AMNE07.jpg,MN,1,num_8,32,num_6,1.55010149768,,,2018_Mar_01_1045,59.9961321407,MAFE4ImagesEEG,001,103063,
AFNE01.JPG,AFNE01.JPG,AFNE01.JPG,AFNE01.JPG,AFNE01.JPG,AFNE01.JPG,,,,,,,,,0,6,6,1,,,,,,,,,,,,,,,AMSA20.jpg,AMSA13.jpg,AMNE01.jpg,AMNE07.jpg,AMSA20.jpg,MS,2,num_8,32,num_4,2.41667925566,,,2018_Mar_01_1045,59.9961321407,MAFE4ImagesEEG,001,103063,
AFNE01.JPG,AFNE01.JPG,AFNE01.JPG,AFNE01.JPG,AFNE01.JPG,AFNE01.JPG,,,,,,,,,0,7,7,6,,,,,,,,,,,,,,,AMSA02.jpg,AMSA11.jpg,AMNE17.jpg,AMNE18.jpg,AMNE17.jpg,MN,1,num_2,32,num_8,1.10010773619,,,2018_Mar_01_1045,59.9961321407,MAFE4ImagesEEG,001,103063,
AFNE01.JPG,AFNE01.JPG,AFNE01.JPG,AFNE01.JPG,AFNE01.JPG,AFNE01.JPG,,,,,,,,,0,8,8,9,,,,,,,,,,,,,,,AMSA19.jpg,AMNE11.jpg,AMSA14.jpg,AMNE12.jpg,AMSA14.jpg,MS,2,num_2,32,num_8,1.68306636624,,,2018_Mar_01_1045,59.9961321407,MAFE4ImagesEEG,001,103063,
AFNE01.JPG,AFNE01.JPG,AFNE01.JPG,AFNE01.JPG,AFNE01.JPG,AFNE01.JPG,,,,,,,,,0,9,9,7,,,,,,,,,,,,,,,AMNE18.jpg,AMNE20.jpg,AMSA10.jpg,AMSA12.jpg,AMNE18.jpg,MN,1,num_8,16,num_8,1.53343943367,,,2018_Mar_01_1045,59.9961321407,MAFE4ImagesEEG,001,103063,
AFNE01.JPG,AFNE01.JPG,AFNE01.JPG,AFNE01.JPG,AFNE01.JPG,AFNE01.JPG,,,,,,,,,1,0,10,2,,,,,,,,,,,,,,,AMNE20.jpg,AMNE07.jpg,AMSA16.jpg,AMSA03.jpg,AMNE20.jpg,MN,1,num_8,32,num_6,1.60004855995,,,2018_Mar_01_1045,59.9961321407,MAFE4ImagesEEG,001,103063,
AFNE01.JPG,AFNE01.JPG,AFNE01.JPG,AFNE01.JPG,AFNE01.JPG,AFNE01.JPG,,,,,,,,,1,1,11,5,,,,,,,,,,,,,,,AMNE18.jpg,AMNE17.jpg,AMSA02.jpg,AMSA01.jpg,AMNE18.jpg,MN,1,num_8,32,num_6,1.36660646391,,,2018_Mar_01_1045,59.9961321407,MAFE4ImagesEEG,001,103063,
AFNE01.JPG,AFNE01.JPG,AFNE01.JPG,AFNE01.JPG,AFNE01.JPG,AFNE01.JPG,,,,,,,,,1,2,12,4,,,,,,,,,,,,,,,AMSA04.jpg,AMNE17.jpg,AMSA10.jpg,AMNE12.jpg,AMSA10.jpg,MS,2,num_2,16,num_2,1.26660168497,,,2018_Mar_01_1045,59.9961321407,MAFE4ImagesEEG,001,103063,
AFNE01.JPG,AFNE01.JPG,AFNE01.JPG,AFNE01.JPG,AFNE01.JPG,AFNE01.JPG,,,,,,,,,1,3,13,9,,,,,,,,,,,,,,,AMSA08.jpg,AMNE07.jpg,AMNE11.jpg,AMSA01.jpg,AMSA01.jpg,MS,2,num_4,32,num_6,1.93337996886,,,2018_Mar_01_1045,59.9961321407,MAFE4ImagesEEG,001,103063,
AFNE01.JPG,AFNE01.JPG,AFNE01.JPG,AFNE01.JPG,AFNE01.JPG,AFNE01.JPG,,,,,,,,,1,4,14,1,,,,,,,,,,,,,,,AMSA06.jpg,AMNE20.jpg,AMNE06.jpg,AMSA17.jpg,AMNE06.jpg,MN,1,num_2,32,num_4,1.66675037961,,,2018_Mar_01_1045,59.9961321407,MAFE4ImagesEEG,001,103063,
AFNE01.JPG,AFNE01.JPG,AFNE01.JPG,AFNE01.JPG,AFNE01.JPG,AFNE01.JPG,,,,,,,,,1,5,15,8,,,,,,,,,,,,,,,AMSA15.jpg,AMSA08.jpg,AMNE04.jpg,AMNE03.jpg,AMNE03.jpg,MN,1,num_4,32,num_6,1.88340756833,,,2018_Mar_01_1045,59.9961321407,MAFE4ImagesEEG,001,103063,
AFNE01.JPG,AFNE01.JPG,AFNE01.JPG,AFNE01.JPG,AFNE01.JPG,AFNE01.JPG,,,,,,,,,1,6,16,0,,,,,,,,,,,,,,,AMNE02.jpg,AMSA20.jpg,AMSA08.jpg,AMNE14.jpg,AMSA20.jpg,MS,2,num_6,16,num_6,0.633535943925,,,2018_Mar_01_1045,59.9961321407,MAFE4ImagesEEG,001,103063,
AFNE01.JPG,AFNE01.JPG,AFNE01.JPG,AFNE01.JPG,AFNE01.JPG,AFNE01.JPG,,,,,,,,,1,7,17,7,,,,,,,,,,,,,,,AMNE08.jpg,AMNE16.jpg,AMSA05.jpg,AMSA09.jpg,AMNE16.jpg,MN,1,num_6,32,num_8,0.133558556205,,,2018_Mar_01_1045,59.9961321407,MAFE4ImagesEEG,001,103063,
AFNE01.JPG,AFNE01.JPG,AFNE01.JPG,AFNE01.JPG,AFNE01.JPG,AFNE01.JPG,,,,,,,,,1,8,18,3,,,,,,,,,,,,,,,AMSA10.jpg,AMSA18.jpg,AMNE05.jpg,AMNE06.jpg,AMSA18.jpg,MS,2,num_6,32,num_4,1.28340968513,,,2018_Mar_01_1045,59.9961321407,MAFE4ImagesEEG,001,103063,
AFNE01.JPG,AFNE01.JPG,AFNE01.JPG,AFNE01.JPG,AFNE01.JPG,AFNE01.JPG,,,,,,,,,1,9,19,6,,,,,,,,,,,,,,,AMSA04.jpg,AMNE11.jpg,AMSA16.jpg,AMNE14.jpg,AMSA16.jpg,MS,2,num_2,16,num_2,1.13341839332,,,2018_Mar_01_1045,59.9961321407,MAFE4ImagesEEG,001,103063,
AFNE01.JPG,AFNE01.JPG,AFNE01.JPG,AFNE01.JPG,AFNE01.JPG,AFNE01.JPG,,,,,,,,,2,0,20,3,,,,,,,,,,,,,,,AMSA04.jpg,AMNE03.jpg,AMSA15.jpg,AMNE10.jpg,AMNE10.jpg,MN,1,num_4,16,num_4,1.45007105987,,,2018_Mar_01_1045,59.9961321407,MAFE4ImagesEEG,001,103063,
AFNE01.JPG,AFNE01.JPG,AFNE01.JPG,AFNE01.JPG,AFNE01.JPG,AFNE01.JPG,,,,,,,,,2,1,21,2,,,,,,,,,,,,,,,AMNE19.jpg,AMSA12.jpg,AMSA02.jpg,AMNE16.jpg,AMSA02.jpg,MS,2,num_2,32,num_8,1.75000392902,,,2018_Mar_01_1045,59.9961321407,MAFE4ImagesEEG,001,103063,
AFNE01.JPG,AFNE01.JPG,AFNE01.JPG,AFNE01.JPG,AFNE01.JPG,AFNE01.JPG,,,,,,,,,2,2,22,5,,,,,,,,,,,,,,,AMNE10.jpg,AMNE05.jpg,AMSA13.jpg,AMSA11.jpg,AMNE05.jpg,MN,1,num_6,16,num_6,1.10008015274,,,2018_Mar_01_1045,59.9961321407,MAFE4ImagesEEG,001,103063,
AFNE01.JPG,AFNE01.JPG,AFNE01.JPG,AFNE01.JPG,AFNE01.JPG,AFNE01.JPG,,,,,,,,,2,3,23,6,,,,,,,,,,,,,,,AMNE05.jpg,AMSA12.jpg,AMSA08.jpg,AMNE03.jpg,AMSA08.jpg,MS,2,num_2,16,num_2,2.08337735478,,,2018_Mar_01_1045,59.9961321407,MAFE4ImagesEEG,001,103063,
AFNE01.JPG,AFNE01.JPG,AFNE01.JPG,AFNE01.JPG,AFNE01.JPG,AFNE01.JPG,,,,,,,,,2,4,24,8,,,,,,,,,,,,,,,AMSA16.jpg,AMSA07.jpg,AMNE10.jpg,AMNE05.jpg,AMSA16.jpg,MS,2,num_8,32,num_2,1.83340790495,,,2018_Mar_01_1045,59.9961321407,MAFE4ImagesEEG,001,103063,
AFNE01.JPG,AFNE01.JPG,AFNE01.JPG,AFNE01.JPG,AFNE01.JPG,AFNE01.JPG,,,,,,,,,2,5,25,1,,,,,,,,,,,,,,,AMSA20.jpg,AMNE03.jpg,AMSA14.jpg,AMNE12.jpg,AMSA20.jpg,MS,2,num_8,32,num_6,2.4499841393,,,2018_Mar_01_1045,59.9961321407,MAFE4ImagesEEG,001,103063,
AFNE01.JPG,AFNE01.JPG,AFNE01.JPG,AFNE01.JPG,AFNE01.JPG,AFNE01.JPG,,,,,,,,,2,6,26,7,,,,,,,,,,,,,,,AMSA05.jpg,AMNE09.jpg,AMSA02.jpg,AMNE11.jpg,AMSA02.jpg,MS,2,num_2,32,num_8,1.26673350879,,,2018_Mar_01_1045,59.9961321407,MAFE4ImagesEEG,001,103063,
AFNE01.JPG,AFNE01.JPG,AFNE01.JPG,AFNE01.JPG,AFNE01.JPG,AFNE01.JPG,,,,,,,,,2,7,27,0,,,,,,,,,,,,,,,AMSA01.jpg,AMNE17.jpg,AMSA04.jpg,AMNE19.jpg,AMSA04.jpg,MS,2,num_2,16,num_2,1.11675953679,,,2018_Mar_01_1045,59.9961321407,MAFE4ImagesEEG,001,103063,
AFNE01.JPG,AFNE01.JPG,AFNE01.JPG,AFNE01.JPG,AFNE01.JPG,AFNE01.JPG,,,,,,,,,2,8,28,9,,,,,,,,,,,,,,,AMNE01.jpg,AMSA18.jpg,AMSA20.jpg,AMNE12.jpg,AMSA20.jpg,MS,2,num_2,32,num_4,1.51629401627,,,2018_Mar_01_1045,59.9961321407,MAFE4ImagesEEG,001,103063,
AFNE01.JPG,AFNE01.JPG,AFNE01.JPG,AFNE01.JPG,AFNE01.JPG,AFNE01.JPG,,,,,,,,,2,9,29,4,,,,,,,,,,,,,,,AMSA04.jpg,AMNE16.jpg,AMNE17.jpg,AMSA01.jpg,AMNE16.jpg,MN,1,num_6,32,num_8,2.2000316889,,,2018_Mar_01_1045,59.9961321407,MAFE4ImagesEEG,001,103063,
AFNE01.JPG,AFNE01.JPG,AFNE01.JPG,AFNE01.JPG,AFNE01.JPG,AFNE01.JPG,,,,,,,,,3,0,30,7,,,,,,,,,,,,,,,AMNE19.jpg,AMSA06.jpg,AMSA17.jpg,AMNE12.jpg,AMSA06.jpg,MS,2,num_6,32,num_8,1.20012758975,,,2018_Mar_01_1045,59.9961321407,MAFE4ImagesEEG,001,103063,
AFNE01.JPG,AFNE01.JPG,AFNE01.JPG,AFNE01.JPG,AFNE01.JPG,AFNE01.JPG,,,,,,,,,3,1,31,3,,,,,,,,,,,,,,,AMNE12.jpg,AMSA14.jpg,AMNE02.jpg,AMSA16.jpg,AMNE02.jpg,MN,1,num_2,48,None,,,,2018_Mar_01_1045,59.9961321407,MAFE4ImagesEEG,001,103063,
AFNE01.JPG,AFNE01.JPG,AFNE01.JPG,AFNE01.JPG,AFNE01.JPG,AFNE01.JPG,,,,,,,,,3,2,32,8,,,,,,,,,,,,,,,AMNE17.jpg,AMSA13.jpg,AMNE13.jpg,AMSA10.jpg,AMNE17.jpg,MN,1,num_8,32,num_6,0.616837957175,,,2018_Mar_01_1045,59.9961321407,MAFE4ImagesEEG,001,103063,
AFNE01.JPG,AFNE01.JPG,AFNE01.JPG,AFNE01.JPG,AFNE01.JPG,AFNE01.JPG,,,,,,,,,3,3,33,4,,,,,,,,,,,,,,,AMNE18.jpg,AMSA07.jpg,AMNE01.jpg,AMSA12.jpg,AMNE01.jpg,MN,1,num_2,16,num_2,2.08340525883,,,2018_Mar_01_1045,59.9961321407,MAFE4ImagesEEG,001,103063,
AFNE01.JPG,AFNE01.JPG,AFNE01.JPG,AFNE01.JPG,AFNE01.JPG,AFNE01.JPG,,,,,,,,,3,4,34,9,,,,,,,,,,,,,,,AMSA08.jpg,AMNE02.jpg,AMSA16.jpg,AMNE01.jpg,AMSA08.jpg,MS,2,num_8,32,num_2,4.18318103044,,,2018_Mar_01_1045,59.9961321407,MAFE4ImagesEEG,001,103063,
AFNE01.JPG,AFNE01.JPG,AFNE01.JPG,AFNE01.JPG,AFNE01.JPG,AFNE01.JPG,,,,,,,,,3,5,35,0,,,,,,,,,,,,,,,AMNE07.jpg,AMNE18.jpg,AMSA12.jpg,AMSA14.jpg,AMNE07.jpg,MN,1,num_8,32,num_6,1.23344273749,,,2018_Mar_01_1045,59.9961321407,MAFE4ImagesEEG,001,103063,
AFNE01.JPG,AFNE01.JPG,AFNE01.JPG,AFNE01.JPG,AFNE01.JPG,AFNE01.JPG,,,,,,,,,3,6,36,5,,,,,,,,,,,,,,,AMNE16.jpg,AMSA03.jpg,AMSA10.jpg,AMNE19.jpg,AMNE19.jpg,MN,1,num_4,16,num_4,0.483496861998,,,2018_Mar_01_1045,59.9961321407,MAFE4ImagesEEG,001,103063,
AFNE01.JPG,AFNE01.JPG,AFNE01.JPG,AFNE01.JPG,AFNE01.JPG,AFNE01.JPG,,,,,,,,,3,7,37,1,,,,,,,,,,,,,,,AMNE05.jpg,AMSA08.jpg,AMNE07.jpg,AMSA19.jpg,AMNE05.jpg,MN,1,num_8,16,num_8,0.683454460464,,,2018_Mar_01_1045,59.9961321407,MAFE4ImagesEEG,001,103063,
AFNE01.JPG,AFNE01.JPG,AFNE01.JPG,AFNE01.JPG,AFNE01.JPG,AFNE01.JPG,,,,,,,,,3,8,38,6,,,,,,,,,,,,,,,AMNE18.jpg,AMNE03.jpg,AMSA10.jpg,AMSA19.jpg,AMSA10.jpg,MS,2,num_2,16,num_2,1.9500718615,,,2018_Mar_01_1045,59.9961321407,MAFE4ImagesEEG,001,103063,
AFNE01.JPG,AFNE01.JPG,AFNE01.JPG,AFNE01.JPG,AFNE01.JPG,AFNE01.JPG,,,,,,,,,3,9,39,2,,,,,,,,,,,,,,,AMNE09.jpg,AMSA11.jpg,AMSA12.jpg,AMNE11.jpg,AMNE09.jpg,MN,1,num_8,32,num_2,1.63325016573,,,2018_Mar_01_1045,59.9961321407,MAFE4ImagesEEG,001,103063,
AFNE01.JPG,AFNE01.JPG,AFNE01.JPG,AFNE01.JPG,AFNE01.JPG,AFNE01.JPG,,,,,,,,,4,0,40,8,,,,,,,,,,,,,,,AMNE17.jpg,AMSA17.jpg,AMNE06.jpg,AMSA07.jpg,AMNE06.jpg,MN,1,num_2,32,num_6,1.51674144692,,,2018_Mar_01_1045,59.9961321407,MAFE4ImagesEEG,001,103063,
AFNE01.JPG,AFNE01.JPG,AFNE01.JPG,AFNE01.JPG,AFNE01.JPG,AFNE01.JPG,,,,,,,,,4,1,41,0,,,,,,,,,,,,,,,AMNE17.jpg,AMSA11.jpg,AMSA09.jpg,AMNE15.jpg,AMNE17.jpg,MN,1,num_8,32,num_2,1.61658040388,,,2018_Mar_01_1045,59.9961321407,MAFE4ImagesEEG,001,103063,
AFNE01.JPG,AFNE01.JPG,AFNE01.JPG,AFNE01.JPG,AFNE01.JPG,AFNE01.JPG,,,,,,,,,4,2,42,2,,,,,,,,,,,,,,,AMSA05.jpg,AMSA14.jpg,AMNE17.jpg,AMNE05.jpg,AMNE17.jpg,MN,1,num_2,32,num_8,2.25002525817,,,2018_Mar_01_1045,59.9961321407,MAFE4ImagesEEG,001,103063,
AFNE01.JPG,AFNE01.JPG,AFNE01.JPG,AFNE01.JPG,AFNE01.JPG,AFNE01.JPG,,,,,,,,,4,3,43,4,,,,,,,,,,,,,,,AMSA18.jpg,AMNE12.jpg,AMNE07.jpg,AMSA08.jpg,AMNE12.jpg,MN,1,num_6,16,num_6,3.73326584976,,,2018_Mar_01_1045,59.9961321407,MAFE4ImagesEEG,001,103063,
AFNE01.JPG,AFNE01.JPG,AFNE01.JPG,AFNE01.JPG,AFNE01.JPG,AFNE01.JPG,,,,,,,,,4,4,44,7,,,,,,,,,,,,,,,AMSA08.jpg,AMSA11.jpg,AMNE02.jpg,AMNE11.jpg,AMSA11.jpg,MS,2,num_6,32,num_8,0.9667150022,,,2018_Mar_01_1045,59.9961321407,MAFE4ImagesEEG,001,103063,
AFNE01.JPG,AFNE01.JPG,AFNE01.JPG,AFNE01.JPG,AFNE01.JPG,AFNE01.JPG,,,,,,,,,4,5,45,9,,,,,,,,,,,,,,,AMNE19.jpg,AMSA16.jpg,AMNE01.jpg,AMSA13.jpg,AMNE19.jpg,MN,1,num_8,32,num_6,1.63342977967,,,2018_Mar_01_1045,59.9961321407,MAFE4ImagesEEG,001,103063,
AFNE01.JPG,AFNE01.JPG,AFNE01.JPG,AFNE01.JPG,AFNE01.JPG,AFNE01.JPG,,,,,,,,,4,6,46,3,,,,,,,,,,,,,,,AMSA01.jpg,AMNE08.jpg,AMSA20.jpg,AMNE12.jpg,AMNE08.jpg,MN,1,num_6,16,num_6,1.36676362599,,,2018_Mar_01_1045,59.9961321407,MAFE4ImagesEEG,001,103063,
AFNE01.JPG,AFNE01.JPG,AFNE01.JPG,AFNE01.JPG,AFNE01.JPG,AFNE01.JPG,,,,,,,,,4,7,47,6,,,,,,,,,,,,,,,AMNE12.jpg,AMNE13.jpg,AMSA08.jpg,AMSA02.jpg,AMNE13.jpg,MN,1,num_6,32,num_2,4.73316385481,,,2018_Mar_01_1045,59.9961321407,MAFE4ImagesEEG,001,103063,
AFNE01.JPG,AFNE01.JPG,AFNE01.JPG,AFNE01.JPG,AFNE01.JPG,AFNE01.JPG,,,,,,,,,4,8,48,1,,,,,,,,,,,,,,,AMSA09.jpg,AMNE18.jpg,AMNE16.jpg,AMSA04.jpg,AMSA09.jpg,MS,2,num_8,32,num_2,1.91671501822,,,2018_Mar_01_1045,59.9961321407,MAFE4ImagesEEG,001,103063,
AFNE01.JPG,AFNE01.JPG,AFNE01.JPG,AFNE01.JPG,AFNE01.JPG,AFNE01.JPG,,,,,,,,,4,9,49,5,,,,,,,,,,,,,,,AMNE05.jpg,AMSA15.jpg,AMSA13.jpg,AMNE03.jpg,AMSA15.jpg,MS,2,num_6,16,num_6,0.916737790452,,,2018_Mar_01_1045,59.9961321407,MAFE4ImagesEEG,001,103063,
AFNE01.JPG,AFNE01.JPG,AFNE01.JPG,AFNE01.JPG,AFNE01.JPG,AFNE01.JPG,,,,,,,,,5,0,50,3,,,,,,,,,,,,,,,AMNE12.jpg,AMNE15.jpg,AMSA15.jpg,AMSA06.jpg,AMNE15.jpg,MN,1,num_6,16,num_6,1.3334462333,,,2018_Mar_01_1045,59.9961321407,MAFE4ImagesEEG,001,103063,
AFNE01.JPG,AFNE01.JPG,AFNE01.JPG,AFNE01.JPG,AFNE01.JPG,AFNE01.JPG,,,,,,,,,5,1,51,2,,,,,,,,,,,,,,,AMSA13.jpg,AMNE02.jpg,AMNE10.jpg,AMSA08.jpg,AMNE02.jpg,MN,1,num_6,32,num_8,1.53346124385,,,2018_Mar_01_1045,59.9961321407,MAFE4ImagesEEG,001,103063,
AFNE01.JPG,AFNE01.JPG,AFNE01.JPG,AFNE01.JPG,AFNE01.JPG,AFNE01.JPG,,,,,,,,,5,2,52,7,,,,,,,,,,,,,,,AMSA09.jpg,AMSA03.jpg,AMNE16.jpg,AMNE07.jpg,AMSA09.jpg,MS,2,num_8,16,num_8,1.21672582696,,,2018_Mar_01_1045,59.9961321407,MAFE4ImagesEEG,001,103063,
AFNE01.JPG,AFNE01.JPG,AFNE01.JPG,AFNE01.JPG,AFNE01.JPG,AFNE01.JPG,,,,,,,,,5,3,53,1,,,,,,,,,,,,,,,AMSA17.jpg,AMNE03.jpg,AMSA03.jpg,AMNE05.jpg,AMSA03.jpg,MS,2,num_2,16,num_2,1.73324115295,,,2018_Mar_01_1045,59.9961321407,MAFE4ImagesEEG,001,103063,
AFNE01.JPG,AFNE01.JPG,AFNE01.JPG,AFNE01.JPG,AFNE01.JPG,AFNE01.JPG,,,,,,,,,5,4,54,5,,,,,,,,,,,,,,,AMNE01.jpg,AMSA20.jpg,AMSA13.jpg,AMNE04.jpg,AMNE04.jpg,MN,1,num_4,16,num_4,0.916779165855,,,2018_Mar_01_1045,59.9961321407,MAFE4ImagesEEG,001,103063,
AFNE01.JPG,AFNE01.JPG,AFNE01.JPG,AFNE01.JPG,AFNE01.JPG,AFNE01.JPG,,,,,,,,,5,5,55,9,,,,,,,,,,,,,,,AMSA12.jpg,AMNE02.jpg,AMSA10.jpg,AMNE14.jpg,AMSA12.jpg,MS,2,num_8,16,num_8,1.41658752435,,,2018_Mar_01_1045,59.9961321407,MAFE4ImagesEEG,001,103063,
AFNE01.JPG,AFNE01.JPG,AFNE01.JPG,AFNE01.JPG,AFNE01.JPG,AFNE01.JPG,,,,,,,,,5,6,56,8,,,,,,,,,,,,,,,AMSA20.jpg,AMSA13.jpg,AMNE02.jpg,AMNE03.jpg,AMSA13.jpg,MS,2,num_6,32,num_8,1.31647337344,,,2018_Mar_01_1045,59.9961321407,MAFE4ImagesEEG,001,103063,
AFNE01.JPG,AFNE01.JPG,AFNE01.JPG,AFNE01.JPG,AFNE01.JPG,AFNE01.JPG,,,,,,,,,5,7,57,4,,,,,,,,,,,,,,,AMSA13.jpg,AMSA20.jpg,AMNE01.jpg,AMNE05.jpg,AMNE05.jpg,MN,1,num_4,48,None,,,,2018_Mar_01_1045,59.9961321407,MAFE4ImagesEEG,001,103063,
AFNE01.JPG,AFNE01.JPG,AFNE01.JPG,AFNE01.JPG,AFNE01.JPG,AFNE01.JPG,,,,,,,,,5,8,58,6,,,,,,,,,,,,,,,AMSA17.jpg,AMNE12.jpg,AMNE09.jpg,AMSA15.jpg,AMSA17.jpg,MS,2,num_8,32,num_2,2.28335163137,,,2018_Mar_01_1045,59.9961321407,MAFE4ImagesEEG,001,103063,
AFNE01.JPG,AFNE01.JPG,AFNE01.JPG,AFNE01.JPG,AFNE01.JPG,AFNE01.JPG,,,,,,,,,5,9,59,0,,,,,,,,,,,,,,,AMNE01.jpg,AMSA15.jpg,AMSA11.jpg,AMNE03.jpg,AMSA11.jpg,MS,2,num_2,32,num_6,1.65011076722,,,2018_Mar_01_1045,59.9961321407,MAFE4ImagesEEG,001,103063,
,,,,,,,,,,,,,,,,,,,,,,,,,,,,,,,,,,,,,,,,,,,space,23.0816665334,2018_Mar_01_1045,59.9961321407,MAFE4ImagesEEG,001,103063,
AFNE01.JPG,AFNE01.JPG,AFNE01.JPG,AFNE01.JPG,AFNE01.JPG,AFNE01.JPG,,,,,,,,,,,,,0,0,0,9,,,,,,,,,,,AFSA11.jpg,AFNE03.jpg,AFNE14.jpg,AFSA08.jpg,AFSA08.jpg,FS,4,num_4,16,num_4,1.01677528489,,,2018_Mar_01_1045,59.9961321407,MAFE4ImagesEEG,001,103063,
AFNE01.JPG,AFNE01.JPG,AFNE01.JPG,AFNE01.JPG,AFNE01.JPG,AFNE01.JPG,,,,,,,,,,,,,0,1,1,4,,,,,,,,,,,AFSA08.jpg,AFSA05.jpg,AFNE13.jpg,AFNE17.jpg,AFSA05.jpg,FS,4,num_6,32,num_2,1.16682559275,,,2018_Mar_01_1045,59.9961321407,MAFE4ImagesEEG,001,103063,
AFNE01.JPG,AFNE01.JPG,AFNE01.JPG,AFNE01.JPG,AFNE01.JPG,AFNE01.JPG,,,,,,,,,,,,,0,2,2,2,,,,,,,,,,,AFNE17.jpg,AFSA03.jpg,AFNE20.jpg,AFSA12.jpg,AFNE17.jpg,FN,3,num_8,32,num_6,1.01680639666,,,2018_Mar_01_1045,59.9961321407,MAFE4ImagesEEG,001,103063,
AFNE01.JPG,AFNE01.JPG,AFNE01.JPG,AFNE01.JPG,AFNE01.JPG,AFNE01.JPG,,,,,,,,,,,,,0,3,3,1,,,,,,,,,,,AFNE17.jpg,AFNE14.jpg,AFSA06.jpg,AFSA14.jpg,AFSA14.jpg,FS,4,num_4,16,num_4,1.54994882597,,,2018_Mar_01_1045,59.9961321407,MAFE4ImagesEEG,001,103063,
AFNE01.JPG,AFNE01.JPG,AFNE01.JPG,AFNE01.JPG,AFNE01.JPG,AFNE01.JPG,,,,,,,,,,,,,0,4,4,7,,,,,,,,,,,AFNE02.jpg,AFNE15.jpg,AFSA03.jpg,AFSA08.jpg,AFSA03.jpg,FS,4,num_2,32,num_6,1.26658051624,,,2018_Mar_01_1045,59.9961321407,MAFE4ImagesEEG,001,103063,
AFNE01.JPG,AFNE01.JPG,AFNE01.JPG,AFNE01.JPG,AFNE01.JPG,AFNE01.JPG,,,,,,,,,,,,,0,5,5,6,,,,,,,,,,,AFNE11.jpg,AFSA14.jpg,AFNE07.jpg,AFSA17.jpg,AFSA14.jpg,FS,4,num_6,16,num_6,1.11674221675,,,2018_Mar_01_1045,59.9961321407,MAFE4ImagesEEG,001,103063,
AFNE01.JPG,AFNE01.JPG,AFNE01.JPG,AFNE01.JPG,AFNE01.JPG,AFNE01.JPG,,,,,,,,,,,,,0,6,6,8,,,,,,,,,,,AFNE02.jpg,AFSA12.jpg,AFNE18.jpg,AFSA08.jpg,AFSA08.jpg,FS,4,num_4,32,num_8,1.51672893809,,,2018_Mar_01_1045,59.9961321407,MAFE4ImagesEEG,001,103063,
AFNE01.JPG,AFNE01.JPG,AFNE01.JPG,AFNE01.JPG,AFNE01.JPG,AFNE01.JPG,,,,,,,,,,,,,0,7,7,0,,,,,,,,,,,AFSA01.jpg,AFNE17.jpg,AFNE14.jpg,AFSA13.jpg,AFNE17.jpg,FN,3,num_6,16,num_6,1.10011639609,,,2018_Mar_01_1045,59.9961321407,MAFE4ImagesEEG,001,103063,
AFNE01.JPG,AFNE01.JPG,AFNE01.JPG,AFNE01.JPG,AFNE01.JPG,AFNE01.JPG,,,,,,,,,,,,,0,8,8,3,,,,,,,,,,,AFNE08.jpg,AFSA11.jpg,AFNE03.jpg,AFSA09.jpg,AFNE08.jpg,FN,3,num_8,32,num_2,1.23346550972,,,2018_Mar_01_1045,59.9961321407,MAFE4ImagesEEG,001,103063,
AFNE01.JPG,AFNE01.JPG,AFNE01.JPG,AFNE01.JPG,AFNE01.JPG,AFNE01.JPG,,,,,,,,,,,,,0,9,9,5,,,,,,,,,,,AFNE04.jpg,AFSA15.jpg,AFNE17.jpg,AFSA12.jpg,AFSA15.jpg,FS,4,num_6,16,num_6,1.33340517874,,,2018_Mar_01_1045,59.9961321407,MAFE4ImagesEEG,001,103063,
AFNE01.JPG,AFNE01.JPG,AFNE01.JPG,AFNE01.JPG,AFNE01.JPG,AFNE01.JPG,,,,,,,,,,,,,1,0,10,3,,,,,,,,,,,AFSA08.jpg,AFSA13.jpg,AFNE18.jpg,AFNE11.jpg,AFNE18.jpg,FN,3,num_2,32,num_4,2.18335455027,,,2018_Mar_01_1045,59.9961321407,MAFE4ImagesEEG,001,103063,
AFNE01.JPG,AFNE01.JPG,AFNE01.JPG,AFNE01.JPG,AFNE01.JPG,AFNE01.JPG,,,,,,,,,,,,,1,1,11,9,,,,,,,,,,,AFSA08.jpg,AFNE17.jpg,AFNE18.jpg,AFSA15.jpg,AFSA08.jpg,FS,4,num_8,32,num_6,0.949816553621,,,2018_Mar_01_1045,59.9961321407,MAFE4ImagesEEG,001,103063,
AFNE01.JPG,AFNE01.JPG,AFNE01.JPG,AFNE01.JPG,AFNE01.JPG,AFNE01.JPG,,,,,,,,,,,,,1,2,12,7,,,,,,,,,,,AFSA10.jpg,AFNE20.jpg,AFNE13.jpg,AFSA06.jpg,AFSA10.jpg,FS,4,num_8,32,num_2,1.18326923368,,,2018_Mar_01_1045,59.9961321407,MAFE4ImagesEEG,001,103063,
AFNE01.JPG,AFNE01.JPG,AFNE01.JPG,AFNE01.JPG,AFNE01.JPG,AFNE01.JPG,,,,,,,,,,,,,1,3,13,8,,,,,,,,,,,AFSA03.jpg,AFSA07.jpg,AFNE13.jpg,AFNE11.jpg,AFNE13.jpg,FN,3,num_2,32,num_6,1.20011540176,,,2018_Mar_01_1045,59.9961321407,MAFE4ImagesEEG,001,103063,
AFNE01.JPG,AFNE01.JPG,AFNE01.JPG,AFNE01.JPG,AFNE01.JPG,AFNE01.JPG,,,,,,,,,,,,,1,4,14,5,,,,,,,,,,,AFNE20.jpg,AFNE15.jpg,AFSA19.jpg,AFSA07.jpg,AFNE20.jpg,FN,3,num_8,16,num_8,1.23349694209,,,2018_Mar_01_1045,59.9961321407,MAFE4ImagesEEG,001,103063,
AFNE01.JPG,AFNE01.JPG,AFNE01.JPG,AFNE01.JPG,AFNE01.JPG,AFNE01.JPG,,,,,,,,,,,,,1,5,15,0,,,,,,,,,,,AFSA03.jpg,AFNE18.jpg,AFNE20.jpg,AFSA01.jpg,AFSA01.jpg,FS,4,num_4,16,num_4,0.733449312393,,,2018_Mar_01_1045,59.9961321407,MAFE4ImagesEEG,001,103063,
AFNE01.JPG,AFNE01.JPG,AFNE01.JPG,AFNE01.JPG,AFNE01.JPG,AFNE01.JPG,,,,,,,,,,,,,1,6,16,2,,,,,,,,,,,AFSA04.jpg,AFNE02.jpg,AFNE20.jpg,AFSA03.jpg,AFNE02.jpg,FN,3,num_6,16,num_6,2.05003173719,,,2018_Mar_01_1045,59.9961321407,MAFE4ImagesEEG,001,103063,
AFNE01.JPG,AFNE01.JPG,AFNE01.JPG,AFNE01.JPG,AFNE01.JPG,AFNE01.JPG,,,,,,,,,,,,,1,7,17,6,,,,,,,,,,,AFSA13.jpg,AFSA05.jpg,AFNE18.jpg,AFNE10.jpg,AFSA05.jpg,FS,4,num_6,16,num_6,1.16670114617,,,2018_Mar_01_1045,59.9961321407,MAFE4ImagesEEG,001,103063,
AFNE01.JPG,AFNE01.JPG,AFNE01.JPG,AFNE01.JPG,AFNE01.JPG,AFNE01.JPG,,,,,,,,,,,,,1,8,18,1,,,,,,,,,,,AFNE04.jpg,AFSA07.jpg,AFNE05.jpg,AFSA04.jpg,AFNE05.jpg,FN,3,num_2,32,num_4,2.13340428076,,,2018_Mar_01_1045,59.9961321407,MAFE4ImagesEEG,001,103063,
AFNE01.JPG,AFNE01.JPG,AFNE01.JPG,AFNE01.JPG,AFNE01.JPG,AFNE01.JPG,,,,,,,,,,,,,1,9,19,4,,,,,,,,,,,AFSA10.jpg,AFNE12.jpg,AFSA04.jpg,AFNE07.jpg,AFNE12.jpg,FN,3,num_6,16,num_6,3.04994513746,,,2018_Mar_01_1045,59.9961321407,MAFE4ImagesEEG,001,103063,
AFNE01.JPG,AFNE01.JPG,AFNE01.JPG,AFNE01.JPG,AFNE01.JPG,AFNE01.JPG,,,,,,,,,,,,,2,0,20,8,,,,,,,,,,,AFNE20.jpg,AFSA11.jpg,AFNE01.jpg,AFSA08.jpg,AFSA08.jpg,FS,4,num_4,32,num_2,1.08351270668,,,2018_Mar_01_1045,59.9961321407,MAFE4ImagesEEG,001,103063,
AFNE01.JPG,AFNE01.JPG,AFNE01.JPG,AFNE01.JPG,AFNE01.JPG,AFNE01.JPG,,,,,,,,,,,,,2,1,21,2,,,,,,,,,,,AFNE11.jpg,AFSA05.jpg,AFNE17.jpg,AFSA08.jpg,AFNE11.jpg,FN,3,num_8,32,num_6,1.03314483515,,,2018_Mar_01_1045,59.9961321407,MAFE4ImagesEEG,001,103063,
AFNE01.JPG,AFNE01.JPG,AFNE01.JPG,AFNE01.JPG,AFNE01.JPG,AFNE01.JPG,,,,,,,,,,,,,2,2,22,4,,,,,,,,,,,AFSA05.jpg,AFSA08.jpg,AFNE13.jpg,AFNE11.jpg,AFNE11.jpg,FN,3,num_4,16,num_4,0.700103374198,,,2018_Mar_01_1045,59.9961321407,MAFE4ImagesEEG,001,103063,
AFNE01.JPG,AFNE01.JPG,AFNE01.JPG,AFNE01.JPG,AFNE01.JPG,AFNE01.JPG,,,,,,,,,,,,,2,3,23,0,,,,,,,,,,,AFNE01.jpg,AFNE15.jpg,AFSA03.jpg,AFSA17.jpg,AFNE15.jpg,FN,3,num_6,16,num_6,0.633314955048,,,2018_Mar_01_1045,59.9961321407,MAFE4ImagesEEG,001,103063,
AFNE01.JPG,AFNE01.JPG,AFNE01.JPG,AFNE01.JPG,AFNE01.JPG,AFNE01.JPG,,,,,,,,,,,,,2,4,24,5,,,,,,,,,,,AFSA05.jpg,AFSA13.jpg,AFNE14.jpg,AFNE09.jpg,AFNE09.jpg,FN,3,num_4,16,num_4,1.01676181378,,,2018_Mar_01_1045,59.9961321407,MAFE4ImagesEEG,001,103063,
AFNE01.JPG,AFNE01.JPG,AFNE01.JPG,AFNE01.JPG,AFNE01.JPG,AFNE01.JPG,,,,,,,,,,,,,2,5,25,3,,,,,,,,,,,AFSA17.jpg,AFSA14.jpg,AFNE09.jpg,AFNE04.jpg,AFSA14.jpg,FS,4,num_6,32,num_8,1.33342410251,,,2018_Mar_01_1045,59.9961321407,MAFE4ImagesEEG,001,103063,
AFNE01.JPG,AFNE01.JPG,AFNE01.JPG,AFNE01.JPG,AFNE01.JPG,AFNE01.JPG,,,,,,,,,,,,,2,6,26,7,,,,,,,,,,,AFNE04.jpg,AFNE18.jpg,AFSA17.jpg,AFSA16.jpg,AFNE04.jpg,FN,3,num_8,32,num_6,1.16675438872,,,2018_Mar_01_1045,59.9961321407,MAFE4ImagesEEG,001,103063,
AFNE01.JPG,AFNE01.JPG,AFNE01.JPG,AFNE01.JPG,AFNE01.JPG,AFNE01.JPG,,,,,,,,,,,,,2,7,27,9,,,,,,,,,,,AFSA05.jpg,AFNE12.jpg,AFSA01.jpg,AFNE04.jpg,AFSA05.jpg,FS,4,num_8,16,num_8,1.11676114029,,,2018_Mar_01_1045,59.9961321407,MAFE4ImagesEEG,001,103063,
AFNE01.JPG,AFNE01.JPG,AFNE01.JPG,AFNE01.JPG,AFNE01.JPG,AFNE01.JPG,,,,,,,,,,,,,2,8,28,1,,,,,,,,,,,AFSA19.jpg,AFNE02.jpg,AFSA03.jpg,AFNE18.jpg,AFSA19.jpg,FS,4,num_8,16,num_8,0.683464723872,,,2018_Mar_01_1045,59.9961321407,MAFE4ImagesEEG,001,103063,
AFNE01.JPG,AFNE01.JPG,AFNE01.JPG,AFNE01.JPG,AFNE01.JPG,AFNE01.JPG,,,,,,,,,,,,,2,9,29,6,,,,,,,,,,,AFNE18.jpg,AFSA09.jpg,AFSA07.jpg,AFNE06.jpg,AFNE18.jpg,FN,3,num_8,16,num_8,1.51669782656,,,2018_Mar_01_1045,59.9961321407,MAFE4ImagesEEG,001,103063,
AFNE01.JPG,AFNE01.JPG,AFNE01.JPG,AFNE01.JPG,AFNE01.JPG,AFNE01.JPG,,,,,,,,,,,,,3,0,30,8,,,,,,,,,,,AFSA05.jpg,AFNE19.jpg,AFSA17.jpg,AFNE11.jpg,AFNE11.jpg,FN,3,num_4,32,num_6,1.33340998972,,,2018_Mar_01_1045,59.9961321407,MAFE4ImagesEEG,001,103063,
AFNE01.JPG,AFNE01.JPG,AFNE01.JPG,AFNE01.JPG,AFNE01.JPG,AFNE01.JPG,,,,,,,,,,,,,3,1,31,9,,,,,,,,,,,AFNE04.jpg,AFNE13.jpg,AFSA01.jpg,AFSA05.jpg,AFSA05.jpg,FS,4,num_4,32,num_6,1.2167460334,,,2018_Mar_01_1045,59.9961321407,MAFE4ImagesEEG,001,103063,
AFNE01.JPG,AFNE01.JPG,AFNE01.JPG,AFNE01.JPG,AFNE01.JPG,AFNE01.JPG,,,,,,,,,,,,,3,2,32,3,,,,,,,,,,,AFSA18.jpg,AFNE11.jpg,AFSA03.jpg,AFNE04.jpg,AFNE11.jpg,FN,3,num_6,32,num_4,0.816815120867,,,2018_Mar_01_1045,59.9961321407,MAFE4ImagesEEG,001,103063,
AFNE01.JPG,AFNE01.JPG,AFNE01.JPG,AFNE01.JPG,AFNE01.JPG,AFNE01.JPG,,,,,,,,,,,,,3,3,33,6,,,,,,,,,,,AFNE20.jpg,AFSA12.jpg,AFSA07.jpg,AFNE01.jpg,AFSA07.jpg,FS,4,num_2,32,num_8,2.40001879539,,,2018_Mar_01_1045,59.9961321407,MAFE4ImagesEEG,001,103063,
AFNE01.JPG,AFNE01.JPG,AFNE01.JPG,AFNE01.JPG,AFNE01.JPG,AFNE01.JPG,,,,,,,,,,,,,3,4,34,2,,,,,,,,,,,AFNE15.jpg,AFSA16.jpg,AFSA01.jpg,AFNE08.jpg,AFSA16.jpg,FS,4,num_6,32,num_2,1.20040502888,,,2018_Mar_01_1045,59.9961321407,MAFE4ImagesEEG,001,103063,
AFNE01.JPG,AFNE01.JPG,AFNE01.JPG,AFNE01.JPG,AFNE01.JPG,AFNE01.JPG,,,,,,,,,,,,,3,5,35,1,,,,,,,,,,,AFNE15.jpg,AFSA12.jpg,AFSA11.jpg,AFNE10.jpg,AFSA12.jpg,FS,4,num_6,16,num_6,0.85016073822,,,2018_Mar_01_1045,59.9961321407,MAFE4ImagesEEG,001,103063,
AFNE01.JPG,AFNE01.JPG,AFNE01.JPG,AFNE01.JPG,AFNE01.JPG,AFNE01.JPG,,,,,,,,,,,,,3,6,36,0,,,,,,,,,,,AFNE14.jpg,AFSA16.jpg,AFSA12.jpg,AFNE18.jpg,AFSA12.jpg,FS,4,num_2,16,num_2,2.28337889421,,,2018_Mar_01_1045,59.9961321407,MAFE4ImagesEEG,001,103063,
AFNE01.JPG,AFNE01.JPG,AFNE01.JPG,AFNE01.JPG,AFNE01.JPG,AFNE01.JPG,,,,,,,,,,,,,3,7,37,5,,,,,,,,,,,AFNE18.jpg,AFNE16.jpg,AFSA02.jpg,AFSA20.jpg,AFNE18.jpg,FN,3,num_8,16,num_8,0.916783335386,,,2018_Mar_01_1045,59.9961321407,MAFE4ImagesEEG,001,103063,
AFNE01.JPG,AFNE01.JPG,AFNE01.JPG,AFNE01.JPG,AFNE01.JPG,AFNE01.JPG,,,,,,,,,,,,,3,8,38,7,,,,,,,,,,,AFNE12.jpg,AFSA18.jpg,AFNE04.jpg,AFSA05.jpg,AFNE04.jpg,FN,3,num_2,32,num_8,1.28345106053,,,2018_Mar_01_1045,59.9961321407,MAFE4ImagesEEG,001,103063,
AFNE01.JPG,AFNE01.JPG,AFNE01.JPG,AFNE01.JPG,AFNE01.JPG,AFNE01.JPG,,,,,,,,,,,,,3,9,39,4,,,,,,,,,,,AFSA15.jpg,AFNE07.jpg,AFSA10.jpg,AFNE19.jpg,AFSA10.jpg,FS,4,num_2,32,num_6,1.78339958214,,,2018_Mar_01_1045,59.9961321407,MAFE4ImagesEEG,001,103063,
AFNE01.JPG,AFNE01.JPG,AFNE01.JPG,AFNE01.JPG,AFNE01.JPG,AFNE01.JPG,,,,,,,,,,,,,4,0,40,7,,,,,,,,,,,AFSA11.jpg,AFSA06.jpg,AFNE08.jpg,AFNE09.jpg,AFSA06.jpg,FS,4,num_6,32,num_8,0.966799035668,,,2018_Mar_01_1045,59.9961321407,MAFE4ImagesEEG,001,103063,
AFNE01.JPG,AFNE01.JPG,AFNE01.JPG,AFNE01.JPG,AFNE01.JPG,AFNE01.JPG,,,,,,,,,,,,,4,1,41,4,,,,,,,,,,,AFSA20.jpg,AFNE20.jpg,AFNE12.jpg,AFSA19.jpg,AFSA19.jpg,FS,4,num_4,16,num_4,2.03337865369,,,2018_Mar_01_1045,59.9961321407,MAFE4ImagesEEG,001,103063,
AFNE01.JPG,AFNE01.JPG,AFNE01.JPG,AFNE01.JPG,AFNE01.JPG,AFNE01.JPG,,,,,,,,,,,,,4,2,42,5,,,,,,,,,,,AFSA04.jpg,AFNE07.jpg,AFSA07.jpg,AFNE18.jpg,AFNE07.jpg,FN,3,num_6,16,num_6,4.633167736,,,2018_Mar_01_1045,59.9961321407,MAFE4ImagesEEG,001,103063,
AFNE01.JPG,AFNE01.JPG,AFNE01.JPG,AFNE01.JPG,AFNE01.JPG,AFNE01.JPG,,,,,,,,,,,,,4,3,43,8,,,,,,,,,,,AFSA05.jpg,AFNE12.jpg,AFNE16.jpg,AFSA01.jpg,AFNE16.jpg,FN,3,num_2,32,num_6,1.48345580767,,,2018_Mar_01_1045,59.9961321407,MAFE4ImagesEEG,001,103063,
AFNE01.JPG,AFNE01.JPG,AFNE01.JPG,AFNE01.JPG,AFNE01.JPG,AFNE01.JPG,,,,,,,,,,,,,4,4,44,1,,,,,,,,,,,AFSA17.jpg,AFNE15.jpg,AFNE07.jpg,AFSA20.jpg,AFSA20.jpg,FS,4,num_4,16,num_4,0.766909754835,,,2018_Mar_01_1045,59.9961321407,MAFE4ImagesEEG,001,103063,
AFNE01.JPG,AFNE01.JPG,AFNE01.JPG,AFNE01.JPG,AFNE01.JPG,AFNE01.JPG,,,,,,,,,,,,,4,5,45,2,,,,,,,,,,,AFSA18.jpg,AFNE11.jpg,AFNE19.jpg,AFSA13.jpg,AFNE19.jpg,FN,3,num_2,16,num_2,1.50007040217,,,2018_Mar_01_1045,59.9961321407,MAFE4ImagesEEG,001,103063,
AFNE01.JPG,AFNE01.JPG,AFNE01.JPG,AFNE01.JPG,AFNE01.JPG,AFNE01.JPG,,,,,,,,,,,,,4,6,46,0,,,,,,,,,,,AFNE10.jpg,AFSA10.jpg,AFNE08.jpg,AFSA14.jpg,AFSA14.jpg,FS,4,num_4,16,num_4,1.08347453852,,,2018_Mar_01_1045,59.9961321407,MAFE4ImagesEEG,001,103063,
AFNE01.JPG,AFNE01.JPG,AFNE01.JPG,AFNE01.JPG,AFNE01.JPG,AFNE01.JPG,,,,,,,,,,,,,4,7,47,3,,,,,,,,,,,AFNE19.jpg,AFNE10.jpg,AFSA14.jpg,AFSA19.jpg,AFSA14.jpg,FS,4,num_2,16,num_2,1.15011317283,,,2018_Mar_01_1045,59.9961321407,MAFE4ImagesEEG,001,103063,
AFNE01.JPG,AFNE01.JPG,AFNE01.JPG,AFNE01.JPG,AFNE01.JPG,AFNE01.JPG,,,,,,,,,,,,,4,8,48,9,,,,,,,,,,,AFSA04.jpg,AFNE06.jpg,AFSA15.jpg,AFNE14.jpg,AFNE14.jpg,FN,3,num_4,16,num_4,0.683498401428,,,2018_Mar_01_1045,59.9961321407,MAFE4ImagesEEG,001,103063,
AFNE01.JPG,AFNE01.JPG,AFNE01.JPG,AFNE01.JPG,AFNE01.JPG,AFNE01.JPG,,,,,,,,,,,,,4,9,49,6,,,,,,,,,,,AFSA01.jpg,AFNE19.jpg,AFSA20.jpg,AFNE04.jpg,AFSA20.jpg,FS,4,num_2,16,num_2,1.56659741909,,,2018_Mar_01_1045,59.9961321407,MAFE4ImagesEEG,001,103063,
AFNE01.JPG,AFNE01.JPG,AFNE01.JPG,AFNE01.JPG,AFNE01.JPG,AFNE01.JPG,,,,,,,,,,,,,5,0,50,9,,,,,,,,,,,AFNE13.jpg,AFNE02.jpg,AFSA08.jpg,AFSA06.jpg,AFNE13.jpg,FN,3,num_8,16,num_8,0.916786542861,,,2018_Mar_01_1045,59.9961321407,MAFE4ImagesEEG,001,103063,
AFNE01.JPG,AFNE01.JPG,AFNE01.JPG,AFNE01.JPG,AFNE01.JPG,AFNE01.JPG,,,,,,,,,,,,,5,1,51,0,,,,,,,,,,,AFNE04.jpg,AFSA14.jpg,AFSA10.jpg,AFNE05.jpg,AFNE04.jpg,FN,3,num_8,32,num_6,1.08349923557,,,2018_Mar_01_1045,59.9961321407,MAFE4ImagesEEG,001,103063,
AFNE01.JPG,AFNE01.JPG,AFNE01.JPG,AFNE01.JPG,AFNE01.JPG,AFNE01.JPG,,,,,,,,,,,,,5,2,52,7,,,,,,,,,,,AFNE12.jpg,AFSA20.jpg,AFSA08.jpg,AFNE02.jpg,AFNE12.jpg,FN,3,num_8,32,num_4,1.01662549982,,,2018_Mar_01_1045,59.9961321407,MAFE4ImagesEEG,001,103063,
AFNE01.JPG,AFNE01.JPG,AFNE01.JPG,AFNE01.JPG,AFNE01.JPG,AFNE01.JPG,,,,,,,,,,,,,5,3,53,2,,,,,,,,,,,AFNE20.jpg,AFSA11.jpg,AFNE18.jpg,AFSA01.jpg,AFNE18.jpg,FN,3,num_2,16,num_2,1.03345531039,,,2018_Mar_01_1045,59.9961321407,MAFE4ImagesEEG,001,103063,
AFNE01.JPG,AFNE01.JPG,AFNE01.JPG,AFNE01.JPG,AFNE01.JPG,AFNE01.JPG,,,,,,,,,,,,,5,4,54,6,,,,,,,,,,,AFSA13.jpg,AFSA10.jpg,AFNE16.jpg,AFNE11.jpg,AFSA10.jpg,FS,4,num_6,32,num_8,1.21676046681,,,2018_Mar_01_1045,59.9961321407,MAFE4ImagesEEG,001,103063,
AFNE01.JPG,AFNE01.JPG,AFNE01.JPG,AFNE01.JPG,AFNE01.JPG,AFNE01.JPG,,,,,,,,,,,,,5,5,55,5,,,,,,,,,,,AFSA15.jpg,AFNE12.jpg,AFNE04.jpg,AFSA07.jpg,AFSA15.jpg,FS,4,num_8,16,num_8,0.933494151803,,,2018_Mar_01_1045,59.9961321407,MAFE4ImagesEEG,001,103063,
AFNE01.JPG,AFNE01.JPG,AFNE01.JPG,AFNE01.JPG,AFNE01.JPG,AFNE01.JPG,,,,,,,,,,,,,5,6,56,3,,,,,,,,,,,AFSA03.jpg,AFSA17.jpg,AFNE19.jpg,AFNE02.jpg,AFNE19.jpg,FN,3,num_2,16,num_2,1.18341933936,,,2018_Mar_01_1045,59.9961321407,MAFE4ImagesEEG,001,103063,
AFNE01.JPG,AFNE01.JPG,AFNE01.JPG,AFNE01.JPG,AFNE01.JPG,AFNE01.JPG,,,,,,,,,,,,,5,7,57,8,,,,,,,,,,,AFNE04.jpg,AFNE01.jpg,AFSA13.jpg,AFSA02.jpg,AFNE04.jpg,FN,3,num_8,16,num_8,1.19997844636,,,2018_Mar_01_1045,59.9961321407,MAFE4ImagesEEG,001,103063,
AFNE01.JPG,AFNE01.JPG,AFNE01.JPG,AFNE01.JPG,AFNE01.JPG,AFNE01.JPG,,,,,,,,,,,,,5,8,58,4,,,,,,,,,,,AFSA17.jpg,AFSA19.jpg,AFNE04.jpg,AFNE19.jpg,AFNE04.jpg,FN,3,num_2,16,num_2,1.00014689844,,,2018_Mar_01_1045,59.9961321407,MAFE4ImagesEEG,001,103063,
AFNE01.JPG,AFNE01.JPG,AFNE01.JPG,AFNE01.JPG,AFNE01.JPG,AFNE01.JPG,,,,,,,,,,,,,5,9,59,1,,,,,,,,,,,AFSA11.jpg,AFNE05.jpg,AFNE02.jpg,AFSA07.jpg,AFSA07.jpg,FS,4,num_4,16,num_4,1.61680171383,,,2018_Mar_01_1045,59.9961321407,MAFE4ImagesEEG,001,103063,
,,,,,,,,,,,,,,,,,,,,,,,,,,,,,,,,,,,,,,,,,,,space,7.39958419418,2018_Mar_01_1045,59.9961321407,MAFE4ImagesEEG,001,103063,
AFNE01.JPG,AFNE01.JPG,AFNE01.JPG,AFNE01.JPG,AFNE01.JPG,AFNE01.JPG,,,,,,,,,,,,,,,,,0,0,0,1,,,,,,,AMSA07.jpg,AMNE07.jpg,AMNE09.jpg,AMSA15.jpg,AMNE09.jpg,MN,1,num_2,16,num_2,1.11676434777,,,2018_Mar_01_1045,59.9961321407,MAFE4ImagesEEG,001,103063,
AFNE01.JPG,AFNE01.JPG,AFNE01.JPG,AFNE01.JPG,AFNE01.JPG,AFNE01.JPG,,,,,,,,,,,,,,,,,0,1,1,2,,,,,,,AMSA15.jpg,AMSA11.jpg,AMNE09.jpg,AMNE14.jpg,AMSA11.jpg,MS,2,num_6,32,num_8,1.11682368442,,,2018_Mar_01_1045,59.9961321407,MAFE4ImagesEEG,001,103063,
AFNE01.JPG,AFNE01.JPG,AFNE01.JPG,AFNE01.JPG,AFNE01.JPG,AFNE01.JPG,,,,,,,,,,,,,,,,,0,2,2,7,,,,,,,AMSA19.jpg,AMNE06.jpg,AMNE09.jpg,AMSA20.jpg,AMSA20.jpg,MS,2,num_4,16,num_4,0.916716621723,,,2018_Mar_01_1045,59.9961321407,MAFE4ImagesEEG,001,103063,
AFNE01.JPG,AFNE01.JPG,AFNE01.JPG,AFNE01.JPG,AFNE01.JPG,AFNE01.JPG,,,,,,,,,,,,,,,,,0,3,3,5,,,,,,,AMSA10.jpg,AMNE19.jpg,AMNE20.jpg,AMSA12.jpg,AMNE19.jpg,MN,1,num_6,32,num_2,0.933477152605,,,2018_Mar_01_1045,59.9961321407,MAFE4ImagesEEG,001,103063,
AFNE01.JPG,AFNE01.JPG,AFNE01.JPG,AFNE01.JPG,AFNE01.JPG,AFNE01.JPG,,,,,,,,,,,,,,,,,0,4,4,6,,,,,,,AMNE08.jpg,AMSA15.jpg,AMNE16.jpg,AMSA10.jpg,AMNE16.jpg,MN,1,num_2,16,num_2,1.16700167838,,,2018_Mar_01_1045,59.9961321407,MAFE4ImagesEEG,001,103063,
AFNE01.JPG,AFNE01.JPG,AFNE01.JPG,AFNE01.JPG,AFNE01.JPG,AFNE01.JPG,,,,,,,,,,,,,,,,,0,5,5,9,,,,,,,AMNE19.jpg,AMSA12.jpg,AMSA09.jpg,AMNE18.jpg,AMNE18.jpg,MN,1,num_4,16,num_4,1.15011702152,,,2018_Mar_01_1045,59.9961321407,MAFE4ImagesEEG,001,103063,
AFNE01.JPG,AFNE01.JPG,AFNE01.JPG,AFNE01.JPG,AFNE01.JPG,AFNE01.JPG,,,,,,,,,,,,,,,,,0,6,6,0,,,,,,,AMSA18.jpg,AMNE15.jpg,AMSA04.jpg,AMNE05.jpg,AMSA04.jpg,MS,2,num_2,16,num_2,1.08349666954,,,2018_Mar_01_1045,59.9961321407,MAFE4ImagesEEG,001,103063,
AFNE01.JPG,AFNE01.JPG,AFNE01.JPG,AFNE01.JPG,AFNE01.JPG,AFNE01.JPG,,,,,,,,,,,,,,,,,0,7,7,8,,,,,,,AMSA19.jpg,AMNE05.jpg,AMNE14.jpg,AMSA08.jpg,AMSA08.jpg,MS,2,num_4,32,num_6,1.35005280958,,,2018_Mar_01_1045,59.9961321407,MAFE4ImagesEEG,001,103063,
AFNE01.JPG,AFNE01.JPG,AFNE01.JPG,AFNE01.JPG,AFNE01.JPG,AFNE01.JPG,,,,,,,,,,,,,,,,,0,8,8,3,,,,,,,AMSA06.jpg,AMSA05.jpg,AMNE07.jpg,AMNE18.jpg,AMNE18.jpg,MN,1,num_4,16,num_4,1.15011092741,,,2018_Mar_01_1045,59.9961321407,MAFE4ImagesEEG,001,103063,
AFNE01.JPG,AFNE01.JPG,AFNE01.JPG,AFNE01.JPG,AFNE01.JPG,AFNE01.JPG,,,,,,,,,,,,,,,,,0,9,9,4,,,,,,,AMSA18.jpg,AMNE10.jpg,AMSA19.jpg,AMNE20.jpg,AMNE20.jpg,MN,1,num_4,16,num_4,1.16674444568,,,2018_Mar_01_1045,59.9961321407,MAFE4ImagesEEG,001,103063,
AFNE01.JPG,AFNE01.JPG,AFNE01.JPG,AFNE01.JPG,AFNE01.JPG,AFNE01.JPG,,,,,,,,,,,,,,,,,1,0,10,5,,,,,,,AMSA07.jpg,AMSA02.jpg,AMNE15.jpg,AMNE12.jpg,AMSA07.jpg,MS,2,num_8,32,num_2,1.90003467188,,,2018_Mar_01_1045,59.9961321407,MAFE4ImagesEEG,001,103063,
AFNE01.JPG,AFNE01.JPG,AFNE01.JPG,AFNE01.JPG,AFNE01.JPG,AFNE01.JPG,,,,,,,,,,,,,,,,,1,1,11,9,,,,,,,AMSA01.jpg,AMNE06.jpg,AMNE19.jpg,AMSA05.jpg,AMNE19.jpg,MN,1,num_2,32,num_6,1.06681311596,,,2018_Mar_01_1045,59.9961321407,MAFE4ImagesEEG,001,103063,
AFNE01.JPG,AFNE01.JPG,AFNE01.JPG,AFNE01.JPG,AFNE01.JPG,AFNE01.JPG,,,,,,,,,,,,,,,,,1,2,12,1,,,,,,,AMSA05.jpg,AMSA13.jpg,AMNE14.jpg,AMNE18.jpg,AMSA05.jpg,MS,2,num_8,32,num_2,1.18344820593,,,2018_Mar_01_1045,59.9961321407,MAFE4ImagesEEG,001,103063,
AFNE01.JPG,AFNE01.JPG,AFNE01.JPG,AFNE01.JPG,AFNE01.JPG,AFNE01.JPG,,,,,,,,,,,,,,,,,1,3,13,0,,,,,,,AMNE13.jpg,AMSA20.jpg,AMNE18.jpg,AMSA14.jpg,AMSA20.jpg,MS,2,num_6,16,num_6,1.31671168236,,,2018_Mar_01_1045,59.9961321407,MAFE4ImagesEEG,001,103063,
AFNE01.JPG,AFNE01.JPG,AFNE01.JPG,AFNE01.JPG,AFNE01.JPG,AFNE01.JPG,,,,,,,,,,,,,,,,,1,4,14,6,,,,,,,AMNE20.jpg,AMSA03.jpg,AMSA18.jpg,AMNE16.jpg,AMSA18.jpg,MS,2,num_2,16,num_2,1.40011405479,,,2018_Mar_01_1045,59.9961321407,MAFE4ImagesEEG,001,103063,
AFNE01.JPG,AFNE01.JPG,AFNE01.JPG,AFNE01.JPG,AFNE01.JPG,AFNE01.JPG,,,,,,,,,,,,,,,,,1,5,15,2,,,,,,,AMNE10.jpg,AMSA09.jpg,AMSA20.jpg,AMNE01.jpg,AMSA09.jpg,MS,2,num_6,16,num_6,1.28342796722,,,2018_Mar_01_1045,59.9961321407,MAFE4ImagesEEG,001,103063,
AFNE01.JPG,AFNE01.JPG,AFNE01.JPG,AFNE01.JPG,AFNE01.JPG,AFNE01.JPG,,,,,,,,,,,,,,,,,1,6,16,7,,,,,,,AMSA18.jpg,AMNE06.jpg,AMNE08.jpg,AMSA12.jpg,AMNE08.jpg,MN,1,num_2,16,num_2,1.48340384779,,,2018_Mar_01_1045,59.9961321407,MAFE4ImagesEEG,001,103063,
AFNE01.JPG,AFNE01.JPG,AFNE01.JPG,AFNE01.JPG,AFNE01.JPG,AFNE01.JPG,,,,,,,,,,,,,,,,,1,7,17,3,,,,,,,AMNE07.jpg,AMNE12.jpg,AMSA05.jpg,AMSA06.jpg,AMSA06.jpg,MS,2,num_4,16,num_4,1.83341111266,,,2018_Mar_01_1045,59.9961321407,MAFE4ImagesEEG,001,103063,
AFNE01.JPG,AFNE01.JPG,AFNE01.JPG,AFNE01.JPG,AFNE01.JPG,AFNE01.JPG,,,,,,,,,,,,,,,,,1,8,18,4,,,,,,,AMSA12.jpg,AMNE18.jpg,AMNE20.jpg,AMSA06.jpg,AMNE18.jpg,MN,1,num_6,16,num_6,1.56670839479,,,2018_Mar_01_1045,59.9961321407,MAFE4ImagesEEG,001,103063,
AFNE01.JPG,AFNE01.JPG,AFNE01.JPG,AFNE01.JPG,AFNE01.JPG,AFNE01.JPG,,,,,,,,,,,,,,,,,1,9,19,8,,,,,,,AMSA01.jpg,AMNE19.jpg,AMSA08.jpg,AMNE11.jpg,AMNE11.jpg,MN,1,num_4,32,num_6,1.33342281939,,,2018_Mar_01_1045,59.9961321407,MAFE4ImagesEEG,001,103063,
AFNE01.JPG,AFNE01.JPG,AFNE01.JPG,AFNE01.JPG,AFNE01.JPG,AFNE01.JPG,,,,,,,,,,,,,,,,,2,0,20,6,,,,,,,AMNE17.jpg,AMSA14.jpg,AMNE15.jpg,AMSA09.jpg,AMSA14.jpg,MS,2,num_6,16,num_6,0.9667932624,,,2018_Mar_01_1045,59.9961321407,MAFE4ImagesEEG,001,103063,
AFNE01.JPG,AFNE01.JPG,AFNE01.JPG,AFNE01.JPG,AFNE01.JPG,AFNE01.JPG,,,,,,,,,,,,,,,,,2,1,21,4,,,,,,,AMSA08.jpg,AMNE14.jpg,AMSA05.jpg,AMNE03.jpg,AMNE03.jpg,MN,1,num_4,16,num_4,1.3501092596,,,2018_Mar_01_1045,59.9961321407,MAFE4ImagesEEG,001,103063,
AFNE01.JPG,AFNE01.JPG,AFNE01.JPG,AFNE01.JPG,AFNE01.JPG,AFNE01.JPG,,,,,,,,,,,,,,,,,2,2,22,2,,,,,,,AMSA10.jpg,AMSA16.jpg,AMNE08.jpg,AMNE16.jpg,AMNE16.jpg,MN,1,num_4,16,num_4,0.783471106552,,,2018_Mar_01_1045,59.9961321407,MAFE4ImagesEEG,001,103063,
AFNE01.JPG,AFNE01.JPG,AFNE01.JPG,AFNE01.JPG,AFNE01.JPG,AFNE01.JPG,,,,,,,,,,,,,,,,,2,3,23,1,,,,,,,AMSA01.jpg,AMSA16.jpg,AMNE15.jpg,AMNE20.jpg,AMNE20.jpg,MN,1,num_4,16,num_4,0.700134485727,,,2018_Mar_01_1045,59.9961321407,MAFE4ImagesEEG,001,103063,
AFNE01.JPG,AFNE01.JPG,AFNE01.JPG,AFNE01.JPG,AFNE01.JPG,AFNE01.JPG,,,,,,,,,,,,,,,,,2,4,24,8,,,,,,,AMNE01.jpg,AMSA19.jpg,AMNE14.jpg,AMSA04.jpg,AMNE01.jpg,MN,1,num_8,16,num_8,0.800128359813,,,2018_Mar_01_1045,59.9961321407,MAFE4ImagesEEG,001,103063,
AFNE01.JPG,AFNE01.JPG,AFNE01.JPG,AFNE01.JPG,AFNE01.JPG,AFNE01.JPG,,,,,,,,,,,,,,,,,2,5,25,5,,,,,,,AMNE09.jpg,AMNE14.jpg,AMSA01.jpg,AMSA19.jpg,AMSA19.jpg,MS,2,num_4,32,num_8,1.01704951678,,,2018_Mar_01_1045,59.9961321407,MAFE4ImagesEEG,001,103063,
AFNE01.JPG,AFNE01.JPG,AFNE01.JPG,AFNE01.JPG,AFNE01.JPG,AFNE01.JPG,,,,,,,,,,,,,,,,,2,6,26,7,,,,,,,AMNE17.jpg,AMSA17.jpg,AMNE08.jpg,AMSA12.jpg,AMNE17.jpg,MN,1,num_8,16,num_8,0.833442544797,,,2018_Mar_01_1045,59.9961321407,MAFE4ImagesEEG,001,103063,
AFNE01.JPG,AFNE01.JPG,AFNE01.JPG,AFNE01.JPG,AFNE01.JPG,AFNE01.JPG,,,,,,,,,,,,,,,,,2,7,27,0,,,,,,,AMSA06.jpg,AMNE17.jpg,AMNE08.jpg,AMSA02.jpg,AMSA06.jpg,MS,2,num_8,16,num_8,1.21682236949,,,2018_Mar_01_1045,59.9961321407,MAFE4ImagesEEG,001,103063,
AFNE01.JPG,AFNE01.JPG,AFNE01.JPG,AFNE01.JPG,AFNE01.JPG,AFNE01.JPG,,,,,,,,,,,,,,,,,2,8,28,3,,,,,,,AMNE16.jpg,AMSA16.jpg,AMNE14.jpg,AMSA17.jpg,AMSA17.jpg,MS,2,num_4,32,num_6,0.834102946101,,,2018_Mar_01_1045,59.9961321407,MAFE4ImagesEEG,001,103063,
AFNE01.JPG,AFNE01.JPG,AFNE01.JPG,AFNE01.JPG,AFNE01.JPG,AFNE01.JPG,,,,,,,,,,,,,,,,,2,9,29,9,,,,,,,AMSA20.jpg,AMNE13.jpg,AMNE15.jpg,AMSA02.jpg,AMNE13.jpg,MN,1,num_6,16,num_6,2.81663422403,,,2018_Mar_01_1045,59.9961321407,MAFE4ImagesEEG,001,103063,
AFNE01.JPG,AFNE01.JPG,AFNE01.JPG,AFNE01.JPG,AFNE01.JPG,AFNE01.JPG,,,,,,,,,,,,,,,,,3,0,30,8,,,,,,,AMSA04.jpg,AMSA12.jpg,AMNE09.jpg,AMNE13.jpg,AMNE13.jpg,MN,1,num_4,32,num_6,1.58341472084,,,2018_Mar_01_1045,59.9961321407,MAFE4ImagesEEG,001,103063,
AFNE01.JPG,AFNE01.JPG,AFNE01.JPG,AFNE01.JPG,AFNE01.JPG,AFNE01.JPG,,,,,,,,,,,,,,,,,3,1,31,2,,,,,,,AMSA03.jpg,AMNE01.jpg,AMSA09.jpg,AMNE10.jpg,AMSA03.jpg,MS,2,num_8,32,num_4,3.48323706351,,,2018_Mar_01_1045,59.9961321407,MAFE4ImagesEEG,001,103063,
AFNE01.JPG,AFNE01.JPG,AFNE01.JPG,AFNE01.JPG,AFNE01.JPG,AFNE01.JPG,,,,,,,,,,,,,,,,,3,2,32,3,,,,,,,AMNE19.jpg,AMNE05.jpg,AMSA06.jpg,AMSA14.jpg,AMSA14.jpg,MS,2,num_4,16,num_4,1.00010776822,,,2018_Mar_01_1045,59.9961321407,MAFE4ImagesEEG,001,103063,
AFNE01.JPG,AFNE01.JPG,AFNE01.JPG,AFNE01.JPG,AFNE01.JPG,AFNE01.JPG,,,,,,,,,,,,,,,,,3,3,33,4,,,,,,,AMNE14.jpg,AMNE04.jpg,AMSA09.jpg,AMSA16.jpg,AMSA09.jpg,MS,2,num_2,32,num_4,1.35009675077,,,2018_Mar_01_1045,59.9961321407,MAFE4ImagesEEG,001,103063,
AFNE01.JPG,AFNE01.JPG,AFNE01.JPG,AFNE01.JPG,AFNE01.JPG,AFNE01.JPG,,,,,,,,,,,,,,,,,3,4,34,7,,,,,,,AMNE17.jpg,AMNE19.jpg,AMSA19.jpg,AMSA02.jpg,AMSA02.jpg,MS,2,num_4,16,num_4,0.766793005867,,,2018_Mar_01_1045,59.9961321407,MAFE4ImagesEEG,001,103063,
AFNE01.JPG,AFNE01.JPG,AFNE01.JPG,AFNE01.JPG,AFNE01.JPG,AFNE01.JPG,,,,,,,,,,,,,,,,,3,5,35,0,,,,,,,AMNE07.jpg,AMNE19.jpg,AMSA02.jpg,AMSA06.jpg,AMNE07.jpg,MN,1,num_8,16,num_8,0.950151404832,,,2018_Mar_01_1045,59.9961321407,MAFE4ImagesEEG,001,103063,
AFNE01.JPG,AFNE01.JPG,AFNE01.JPG,AFNE01.JPG,AFNE01.JPG,AFNE01.JPG,,,,,,,,,,,,,,,,,3,6,36,5,,,,,,,AMSA04.jpg,AMSA08.jpg,AMNE13.jpg,AMNE12.jpg,AMSA08.jpg,MS,2,num_6,16,num_6,1.30010029511,,,2018_Mar_01_1045,59.9961321407,MAFE4ImagesEEG,001,103063,
AFNE01.JPG,AFNE01.JPG,AFNE01.JPG,AFNE01.JPG,AFNE01.JPG,AFNE01.JPG,,,,,,,,,,,,,,,,,3,7,37,6,,,,,,,AMNE18.jpg,AMSA07.jpg,AMNE19.jpg,AMSA04.jpg,AMNE18.jpg,MN,1,num_8,32,num_2,1.30013974593,,,2018_Mar_01_1045,59.9961321407,MAFE4ImagesEEG,001,103063,
AFNE01.JPG,AFNE01.JPG,AFNE01.JPG,AFNE01.JPG,AFNE01.JPG,AFNE01.JPG,,,,,,,,,,,,,,,,,3,8,38,1,,,,,,,AMSA07.jpg,AMSA14.jpg,AMNE08.jpg,AMNE02.jpg,AMSA14.jpg,MS,2,num_6,32,num_4,1.98343993095,,,2018_Mar_01_1045,59.9961321407,MAFE4ImagesEEG,001,103063,
AFNE01.JPG,AFNE01.JPG,AFNE01.JPG,AFNE01.JPG,AFNE01.JPG,AFNE01.JPG,,,,,,,,,,,,,,,,,3,9,39,9,,,,,,,AMSA04.jpg,AMNE11.jpg,AMSA15.jpg,AMNE18.jpg,AMNE18.jpg,MN,1,num_4,16,num_4,1.01681345282,,,2018_Mar_01_1045,59.9961321407,MAFE4ImagesEEG,001,103063,
AFNE01.JPG,AFNE01.JPG,AFNE01.JPG,AFNE01.JPG,AFNE01.JPG,AFNE01.JPG,,,,,,,,,,,,,,,,,4,0,40,1,,,,,,,AMSA10.jpg,AMNE11.jpg,AMSA04.jpg,AMNE17.jpg,AMNE17.jpg,MN,1,num_4,16,num_4,0.650174594019,,,2018_Mar_01_1045,59.9961321407,MAFE4ImagesEEG,001,103063,
AFNE01.JPG,AFNE01.JPG,AFNE01.JPG,AFNE01.JPG,AFNE01.JPG,AFNE01.JPG,,,,,,,,,,,,,,,,,4,1,41,0,,,,,,,AMSA11.jpg,AMSA04.jpg,AMNE04.jpg,AMNE10.jpg,AMNE10.jpg,MN,1,num_4,16,num_4,0.78346308833,,,2018_Mar_01_1045,59.9961321407,MAFE4ImagesEEG,001,103063,
AFNE01.JPG,AFNE01.JPG,AFNE01.JPG,AFNE01.JPG,AFNE01.JPG,AFNE01.JPG,,,,,,,,,,,,,,,,,4,2,42,2,,,,,,,AMSA11.jpg,AMSA08.jpg,AMNE18.jpg,AMNE16.jpg,AMNE18.jpg,MN,1,num_2,16,num_2,1.11674510338,,,2018_Mar_01_1045,59.9961321407,MAFE4ImagesEEG,001,103063,
AFNE01.JPG,AFNE01.JPG,AFNE01.JPG,AFNE01.JPG,AFNE01.JPG,AFNE01.JPG,,,,,,,,,,,,,,,,,4,3,43,4,,,,,,,AMSA20.jpg,AMNE05.jpg,AMNE02.jpg,AMSA17.jpg,AMSA20.jpg,MS,2,num_8,32,num_6,1.16676978418,,,2018_Mar_01_1045,59.9961321407,MAFE4ImagesEEG,001,103063,
AFNE01.JPG,AFNE01.JPG,AFNE01.JPG,AFNE01.JPG,AFNE01.JPG,AFNE01.JPG,,,,,,,,,,,,,,,,,4,4,44,7,,,,,,,AMSA10.jpg,AMNE03.jpg,AMSA18.jpg,AMNE09.jpg,AMNE03.jpg,MN,1,num_6,16,num_6,1.21677073021,,,2018_Mar_01_1045,59.9961321407,MAFE4ImagesEEG,001,103063,
AFNE01.JPG,AFNE01.JPG,AFNE01.JPG,AFNE01.JPG,AFNE01.JPG,AFNE01.JPG,,,,,,,,,,,,,,,,,4,5,45,5,,,,,,,AMNE08.jpg,AMNE09.jpg,AMSA02.jpg,AMSA05.jpg,AMNE09.jpg,MN,1,num_6,16,num_6,0.900405125227,,,2018_Mar_01_1045,59.9961321407,MAFE4ImagesEEG,001,103063,
AFNE01.JPG,AFNE01.JPG,AFNE01.JPG,AFNE01.JPG,AFNE01.JPG,AFNE01.JPG,,,,,,,,,,,,,,,,,4,6,46,9,,,,,,,AMNE14.jpg,AMNE20.jpg,AMSA18.jpg,AMSA06.jpg,AMNE14.jpg,MN,1,num_8,16,num_8,0.416796004632,,,2018_Mar_01_1045,59.9961321407,MAFE4ImagesEEG,001,103063,
AFNE01.JPG,AFNE01.JPG,AFNE01.JPG,AFNE01.JPG,AFNE01.JPG,AFNE01.JPG,,,,,,,,,,,,,,,,,4,7,47,8,,,,,,,AMSA19.jpg,AMNE07.jpg,AMNE15.jpg,AMSA04.jpg,AMSA19.jpg,MS,2,num_8,16,num_8,0.750141525874,,,2018_Mar_01_1045,59.9961321407,MAFE4ImagesEEG,001,103063,
AFNE01.JPG,AFNE01.JPG,AFNE01.JPG,AFNE01.JPG,AFNE01.JPG,AFNE01.JPG,,,,,,,,,,,,,,,,,4,8,48,3,,,,,,,AMSA20.jpg,AMSA10.jpg,AMNE16.jpg,AMNE18.jpg,AMSA10.jpg,MS,2,num_6,32,num_2,0.983510814141,,,2018_Mar_01_1045,59.9961321407,MAFE4ImagesEEG,001,103063,
AFNE01.JPG,AFNE01.JPG,AFNE01.JPG,AFNE01.JPG,AFNE01.JPG,AFNE01.JPG,,,,,,,,,,,,,,,,,4,9,49,6,,,,,,,AMNE07.jpg,AMNE16.jpg,AMSA07.jpg,AMSA06.jpg,AMSA07.jpg,MS,2,num_2,32,num_8,0.633490719832,,,2018_Mar_01_1045,59.9961321407,MAFE4ImagesEEG,001,103063,
AFNE01.JPG,AFNE01.JPG,AFNE01.JPG,AFNE01.JPG,AFNE01.JPG,AFNE01.JPG,,,,,,,,,,,,,,,,,5,0,50,9,,,,,,,AMNE17.jpg,AMSA12.jpg,AMSA05.jpg,AMNE12.jpg,AMSA12.jpg,MS,2,num_6,32,num_8,1.03347166791,,,2018_Mar_01_1045,59.9961321407,MAFE4ImagesEEG,001,103063,
AFNE01.JPG,AFNE01.JPG,AFNE01.JPG,AFNE01.JPG,AFNE01.JPG,AFNE01.JPG,,,,,,,,,,,,,,,,,5,1,51,4,,,,,,,AMNE11.jpg,AMNE12.jpg,AMSA09.jpg,AMSA12.jpg,AMSA09.jpg,MS,2,num_2,16,num_2,1.43345550285,,,2018_Mar_01_1045,59.9961321407,MAFE4ImagesEEG,001,103063,
AFNE01.JPG,AFNE01.JPG,AFNE01.JPG,AFNE01.JPG,AFNE01.JPG,AFNE01.JPG,,,,,,,,,,,,,,,,,5,2,52,6,,,,,,,AMNE11.jpg,AMNE14.jpg,AMSA08.jpg,AMSA19.jpg,AMSA19.jpg,MS,2,num_4,32,num_8,1.50003383798,,,2018_Mar_01_1045,59.9961321407,MAFE4ImagesEEG,001,103063,
AFNE01.JPG,AFNE01.JPG,AFNE01.JPG,AFNE01.JPG,AFNE01.JPG,AFNE01.JPG,,,,,,,,,,,,,,,,,5,3,53,8,,,,,,,AMSA05.jpg,AMNE06.jpg,AMSA17.jpg,AMNE05.jpg,AMNE05.jpg,MN,1,num_4,16,num_4,0.616794336587,,,2018_Mar_01_1045,59.9961321407,MAFE4ImagesEEG,001,103063,
AFNE01.JPG,AFNE01.JPG,AFNE01.JPG,AFNE01.JPG,AFNE01.JPG,AFNE01.JPG,,,,,,,,,,,,,,,,,5,4,54,7,,,,,,,AMSA07.jpg,AMSA17.jpg,AMNE04.jpg,AMNE16.jpg,AMSA17.jpg,MS,2,num_6,16,num_6,1.21675854246,,,2018_Mar_01_1045,59.9961321407,MAFE4ImagesEEG,001,103063,
AFNE01.JPG,AFNE01.JPG,AFNE01.JPG,AFNE01.JPG,AFNE01.JPG,AFNE01.JPG,,,,,,,,,,,,,,,,,5,5,55,0,,,,,,,AMNE11.jpg,AMNE17.jpg,AMSA07.jpg,AMSA03.jpg,AMNE17.jpg,MN,1,num_6,16,num_6,1.10013884795,,,2018_Mar_01_1045,59.9961321407,MAFE4ImagesEEG,001,103063,
AFNE01.JPG,AFNE01.JPG,AFNE01.JPG,AFNE01.JPG,AFNE01.JPG,AFNE01.JPG,,,,,,,,,,,,,,,,,5,6,56,2,,,,,,,AMSA05.jpg,AMNE05.jpg,AMNE03.jpg,AMSA07.jpg,AMNE05.jpg,MN,1,num_6,16,num_6,0.550156665035,,,2018_Mar_01_1045,59.9961321407,MAFE4ImagesEEG,001,103063,
AFNE01.JPG,AFNE01.JPG,AFNE01.JPG,AFNE01.JPG,AFNE01.JPG,AFNE01.JPG,,,,,,,,,,,,,,,,,5,7,57,5,,,,,,,AMSA05.jpg,AMNE04.jpg,AMNE11.jpg,AMSA12.jpg,AMNE04.jpg,MN,1,num_6,32,num_4,1.25013687531,,,2018_Mar_01_1045,59.9961321407,MAFE4ImagesEEG,001,103063,
AFNE01.JPG,AFNE01.JPG,AFNE01.JPG,AFNE01.JPG,AFNE01.JPG,AFNE01.JPG,,,,,,,,,,,,,,,,,5,8,58,1,,,,,,,AMNE19.jpg,AMNE12.jpg,AMSA17.jpg,AMSA04.jpg,AMSA17.jpg,MS,2,num_2,32,num_6,1.51683349907,,,2018_Mar_01_1045,59.9961321407,MAFE4ImagesEEG,001,103063,
AFNE01.JPG,AFNE01.JPG,AFNE01.JPG,AFNE01.JPG,AFNE01.JPG,AFNE01.JPG,,,,,,,,,,,,,,,,,5,9,59,3,,,,,,,AMNE12.jpg,AMSA14.jpg,AMSA06.jpg,AMNE04.jpg,AMSA06.jpg,MS,2,num_2,32,num_4,1.01676053088,,,2018_Mar_01_1045,59.9961321407,MAFE4ImagesEEG,001,103063,
,,,,,,,,,,,,,,,,,,,,,,,,,,,,,,,,,,,,,,,,,,,space,12.6158475156,2018_Mar_01_1045,59.9961321407,MAFE4ImagesEEG,001,103063,
AFNE01.JPG,AFNE01.JPG,AFNE01.JPG,AFNE01.JPG,AFNE01.JPG,AFNE01.JPG,,,,,,,,,,,,,,,,,,,,,0,0,0,3,,,AFSA09.jpg,AFSA10.jpg,AFNE17.jpg,AFNE01.jpg,AFSA10.jpg,FS,4,num_6,16,num_6,0.400187183172,,,2018_Mar_01_1045,59.9961321407,MAFE4ImagesEEG,001,103063,
AFNE01.JPG,AFNE01.JPG,AFNE01.JPG,AFNE01.JPG,AFNE01.JPG,AFNE01.JPG,,,,,,,,,,,,,,,,,,,,,0,1,1,0,,,AFNE19.jpg,AFSA18.jpg,AFNE01.jpg,AFSA05.jpg,AFSA18.jpg,FS,4,num_6,16,num_6,0.800000064308,,,2018_Mar_01_1045,59.9961321407,MAFE4ImagesEEG,001,103063,
AFNE01.JPG,AFNE01.JPG,AFNE01.JPG,AFNE01.JPG,AFNE01.JPG,AFNE01.JPG,,,,,,,,,,,,,,,,,,,,,0,2,2,8,,,AFNE09.jpg,AFSA11.jpg,AFSA15.jpg,AFNE04.jpg,AFNE09.jpg,FN,3,num_8,16,num_8,1.01652863668,,,2018_Mar_01_1045,59.9961321407,MAFE4ImagesEEG,001,103063,
AFNE01.JPG,AFNE01.JPG,AFNE01.JPG,AFNE01.JPG,AFNE01.JPG,AFNE01.JPG,,,,,,,,,,,,,,,,,,,,,0,3,3,2,,,AFSA10.jpg,AFNE14.jpg,AFNE13.jpg,AFSA18.jpg,AFSA10.jpg,FS,4,num_8,16,num_8,2.38333139289,,,2018_Mar_01_1045,59.9961321407,MAFE4ImagesEEG,001,103063,
AFNE01.JPG,AFNE01.JPG,AFNE01.JPG,AFNE01.JPG,AFNE01.JPG,AFNE01.JPG,,,,,,,,,,,,,,,,,,,,,0,4,4,7,,,AFSA01.jpg,AFNE15.jpg,AFNE13.jpg,AFSA08.jpg,AFSA01.jpg,FS,4,num_8,16,num_8,1.03344953712,,,2018_Mar_01_1045,59.9961321407,MAFE4ImagesEEG,001,103063,
AFNE01.JPG,AFNE01.JPG,AFNE01.JPG,AFNE01.JPG,AFNE01.JPG,AFNE01.JPG,,,,,,,,,,,,,,,,,,,,,0,5,5,5,,,AFSA08.jpg,AFNE02.jpg,AFNE19.jpg,AFSA06.jpg,AFNE02.jpg,FN,3,num_6,16,num_6,1.1168454946,,,2018_Mar_01_1045,59.9961321407,MAFE4ImagesEEG,001,103063,
AFNE01.JPG,AFNE01.JPG,AFNE01.JPG,AFNE01.JPG,AFNE01.JPG,AFNE01.JPG,,,,,,,,,,,,,,,,,,,,,0,6,6,6,,,AFNE11.jpg,AFNE14.jpg,AFSA10.jpg,AFSA05.jpg,AFNE14.jpg,FN,3,num_6,16,num_6,0.666806188179,,,2018_Mar_01_1045,59.9961321407,MAFE4ImagesEEG,001,103063,
AFNE01.JPG,AFNE01.JPG,AFNE01.JPG,AFNE01.JPG,AFNE01.JPG,AFNE01.JPG,,,,,,,,,,,,,,,,,,,,,0,7,7,9,,,AFNE18.jpg,AFNE12.jpg,AFSA16.jpg,AFSA05.jpg,AFNE12.jpg,FN,3,num_6,16,num_6,0.683467931347,,,2018_Mar_01_1045,59.9961321407,MAFE4ImagesEEG,001,103063,
AFNE01.JPG,AFNE01.JPG,AFNE01.JPG,AFNE01.JPG,AFNE01.JPG,AFNE01.JPG,,,,,,,,,,,,,,,,,,,,,0,8,8,1,,,AFSA04.jpg,AFNE14.jpg,AFNE06.jpg,AFSA18.jpg,AFNE14.jpg,FN,3,num_6,16,num_6,0.700136089697,,,2018_Mar_01_1045,59.9961321407,MAFE4ImagesEEG,001,103063,
AFNE01.JPG,AFNE01.JPG,AFNE01.JPG,AFNE01.JPG,AFNE01.JPG,AFNE01.JPG,,,,,,,,,,,,,,,,,,,,,0,9,9,4,,,AFSA17.jpg,AFNE15.jpg,AFSA10.jpg,AFNE09.jpg,AFNE09.jpg,FN,3,num_4,32,num_6,0.866808689665,,,2018_Mar_01_1045,59.9961321407,MAFE4ImagesEEG,001,103063,
AFNE01.JPG,AFNE01.JPG,AFNE01.JPG,AFNE01.JPG,AFNE01.JPG,AFNE01.JPG,,,,,,,,,,,,,,,,,,,,,1,0,10,4,,,AFSA06.jpg,AFNE15.jpg,AFSA19.jpg,AFNE19.jpg,AFSA06.jpg,FS,4,num_8,16,num_8,1.5500598019,,,2018_Mar_01_1045,59.9961321407,MAFE4ImagesEEG,001,103063,
AFNE01.JPG,AFNE01.JPG,AFNE01.JPG,AFNE01.JPG,AFNE01.JPG,AFNE01.JPG,,,,,,,,,,,,,,,,,,,,,1,1,11,6,,,AFNE19.jpg,AFNE08.jpg,AFSA09.jpg,AFSA15.jpg,AFSA15.jpg,FS,4,num_4,32,num_2,1.35008969461,,,2018_Mar_01_1045,59.9961321407,MAFE4ImagesEEG,001,103063,
AFNE01.JPG,AFNE01.JPG,AFNE01.JPG,AFNE01.JPG,AFNE01.JPG,AFNE01.JPG,,,,,,,,,,,,,,,,,,,,,1,2,12,7,,,AFSA12.jpg,AFNE09.jpg,AFNE07.jpg,AFSA08.jpg,AFNE07.jpg,FN,3,num_2,16,num_2,1.06679002289,,,2018_Mar_01_1045,59.9961321407,MAFE4ImagesEEG,001,103063,
AFNE01.JPG,AFNE01.JPG,AFNE01.JPG,AFNE01.JPG,AFNE01.JPG,AFNE01.JPG,,,,,,,,,,,,,,,,,,,,,1,3,13,2,,,AFNE12.jpg,AFSA06.jpg,AFNE01.jpg,AFSA15.jpg,AFSA06.jpg,FS,4,num_6,16,num_6,1.30008554109,,,2018_Mar_01_1045,59.9961321407,MAFE4ImagesEEG,001,103063,
AFNE01.JPG,AFNE01.JPG,AFNE01.JPG,AFNE01.JPG,AFNE01.JPG,AFNE01.JPG,,,,,,,,,,,,,,,,,,,,,1,4,14,8,,,AFNE11.jpg,AFSA13.jpg,AFNE15.jpg,AFSA18.jpg,AFNE11.jpg,FN,3,num_8,32,num_2,1.90002729488,,,2018_Mar_01_1045,59.9961321407,MAFE4ImagesEEG,001,103063,
AFNE01.JPG,AFNE01.JPG,AFNE01.JPG,AFNE01.JPG,AFNE01.JPG,AFNE01.JPG,,,,,,,,,,,,,,,,,,,,,1,5,15,1,,,AFSA15.jpg,AFNE19.jpg,AFSA17.jpg,AFNE16.jpg,AFNE19.jpg,FN,3,num_6,32,num_2,1.76679396792,,,2018_Mar_01_1045,59.9961321407,MAFE4ImagesEEG,001,103063,
AFNE01.JPG,AFNE01.JPG,AFNE01.JPG,AFNE01.JPG,AFNE01.JPG,AFNE01.JPG,,,,,,,,,,,,,,,,,,,,,1,6,16,3,,,AFNE15.jpg,AFSA06.jpg,AFSA14.jpg,AFNE04.jpg,AFSA06.jpg,FS,4,num_6,16,num_6,0.900096895173,,,2018_Mar_01_1045,59.9961321407,MAFE4ImagesEEG,001,103063,
AFNE01.JPG,AFNE01.JPG,AFNE01.JPG,AFNE01.JPG,AFNE01.JPG,AFNE01.JPG,,,,,,,,,,,,,,,,,,,,,1,7,17,5,,,AFNE16.jpg,AFSA02.jpg,AFSA20.jpg,AFNE19.jpg,AFSA20.jpg,FS,4,num_2,32,num_4,1.00010167412,,,2018_Mar_01_1045,59.9961321407,MAFE4ImagesEEG,001,103063,
AFNE01.JPG,AFNE01.JPG,AFNE01.JPG,AFNE01.JPG,AFNE01.JPG,AFNE01.JPG,,,,,,,,,,,,,,,,,,,,,1,8,18,9,,,AFSA15.jpg,AFNE12.jpg,AFNE06.jpg,AFSA03.jpg,AFSA15.jpg,FS,4,num_8,32,num_2,1.21676591923,,,2018_Mar_01_1045,59.9961321407,MAFE4ImagesEEG,001,103063,
AFNE01.JPG,AFNE01.JPG,AFNE01.JPG,AFNE01.JPG,AFNE01.JPG,AFNE01.JPG,,,,,,,,,,,,,,,,,,,,,1,9,19,0,,,AFNE02.jpg,AFNE07.jpg,AFSA08.jpg,AFSA05.jpg,AFNE02.jpg,FN,3,num_8,16,num_8,1.03328179056,,,2018_Mar_01_1045,59.9961321407,MAFE4ImagesEEG,001,103063,
AFNE01.JPG,AFNE01.JPG,AFNE01.JPG,AFNE01.JPG,AFNE01.JPG,AFNE01.JPG,,,,,,,,,,,,,,,,,,,,,2,0,20,9,,,AFNE06.jpg,AFSA13.jpg,AFSA20.jpg,AFNE16.jpg,AFNE16.jpg,FN,3,num_4,16,num_4,0.933456625324,,,2018_Mar_01_1045,59.9961321407,MAFE4ImagesEEG,001,103063,
AFNE01.JPG,AFNE01.JPG,AFNE01.JPG,AFNE01.JPG,AFNE01.JPG,AFNE01.JPG,,,,,,,,,,,,,,,,,,,,,2,1,21,6,,,AFNE08.jpg,AFSA02.jpg,AFNE04.jpg,AFSA03.jpg,AFSA02.jpg,FS,4,num_6,16,num_6,1.43347763363,,,2018_Mar_01_1045,59.9961321407,MAFE4ImagesEEG,001,103063,
AFNE01.JPG,AFNE01.JPG,AFNE01.JPG,AFNE01.JPG,AFNE01.JPG,AFNE01.JPG,,,,,,,,,,,,,,,,,,,,,2,2,22,5,,,AFSA19.jpg,AFNE20.jpg,AFNE07.jpg,AFSA20.jpg,AFSA19.jpg,FS,4,num_8,32,num_4,0.966737774434,,,2018_Mar_01_1045,59.9961321407,MAFE4ImagesEEG,001,103063,
AFNE01.JPG,AFNE01.JPG,AFNE01.JPG,AFNE01.JPG,AFNE01.JPG,AFNE01.JPG,,,,,,,,,,,,,,,,,,,,,2,3,23,7,,,AFNE08.jpg,AFSA19.jpg,AFNE17.jpg,AFSA02.jpg,AFSA02.jpg,FS,4,num_4,32,num_6,1.26677167648,,,2018_Mar_01_1045,59.9961321407,MAFE4ImagesEEG,001,103063,
AFNE01.JPG,AFNE01.JPG,AFNE01.JPG,AFNE01.JPG,AFNE01.JPG,AFNE01.JPG,,,,,,,,,,,,,,,,,,,,,2,4,24,3,,,AFSA04.jpg,AFNE16.jpg,AFSA01.jpg,AFNE12.jpg,AFSA01.jpg,FS,4,num_2,16,num_2,1.0834864059,,,2018_Mar_01_1045,59.9961321407,MAFE4ImagesEEG,001,103063,
AFNE01.JPG,AFNE01.JPG,AFNE01.JPG,AFNE01.JPG,AFNE01.JPG,AFNE01.JPG,,,,,,,,,,,,,,,,,,,,,2,5,25,0,,,AFNE12.jpg,AFSA03.jpg,AFNE10.jpg,AFSA10.jpg,AFSA03.jpg,FS,4,num_6,16,num_6,1.03345531039,,,2018_Mar_01_1045,59.9961321407,MAFE4ImagesEEG,001,103063,
AFNE01.JPG,AFNE01.JPG,AFNE01.JPG,AFNE01.JPG,AFNE01.JPG,AFNE01.JPG,,,,,,,,,,,,,,,,,,,,,2,6,26,4,,,AFSA18.jpg,AFNE07.jpg,AFSA16.jpg,AFNE09.jpg,AFSA16.jpg,FS,4,num_2,16,num_2,1.18340522703,,,2018_Mar_01_1045,59.9961321407,MAFE4ImagesEEG,001,103063,
AFNE01.JPG,AFNE01.JPG,AFNE01.JPG,AFNE01.JPG,AFNE01.JPG,AFNE01.JPG,,,,,,,,,,,,,,,,,,,,,2,7,27,8,,,AFSA02.jpg,AFNE03.jpg,AFNE17.jpg,AFSA14.jpg,AFNE17.jpg,FN,3,num_2,32,num_6,0.683464082424,,,2018_Mar_01_1045,59.9961321407,MAFE4ImagesEEG,001,103063,
AFNE01.JPG,AFNE01.JPG,AFNE01.JPG,AFNE01.JPG,AFNE01.JPG,AFNE01.JPG,,,,,,,,,,,,,,,,,,,,,2,8,28,1,,,AFSA08.jpg,AFNE16.jpg,AFSA10.jpg,AFNE06.jpg,AFSA08.jpg,FS,4,num_8,32,num_4,1.18345109257,,,2018_Mar_01_1045,59.9961321407,MAFE4ImagesEEG,001,103063,
AFNE01.JPG,AFNE01.JPG,AFNE01.JPG,AFNE01.JPG,AFNE01.JPG,AFNE01.JPG,,,,,,,,,,,,,,,,,,,,,2,9,29,2,,,AFNE11.jpg,AFNE03.jpg,AFSA18.jpg,AFSA02.jpg,AFSA18.jpg,FS,4,num_2,32,num_4,1.01675475761,,,2018_Mar_01_1045,59.9961321407,MAFE4ImagesEEG,001,103063,
AFNE01.JPG,AFNE01.JPG,AFNE01.JPG,AFNE01.JPG,AFNE01.JPG,AFNE01.JPG,,,,,,,,,,,,,,,,,,,,,3,0,30,3,,,AFNE02.jpg,AFSA10.jpg,AFNE18.jpg,AFSA01.jpg,AFSA10.jpg,FS,4,num_6,16,num_6,1.51673663594,,,2018_Mar_01_1045,59.9961321407,MAFE4ImagesEEG,001,103063,
AFNE01.JPG,AFNE01.JPG,AFNE01.JPG,AFNE01.JPG,AFNE01.JPG,AFNE01.JPG,,,,,,,,,,,,,,,,,,,,,3,1,31,1,,,AFSA06.jpg,AFNE02.jpg,AFNE19.jpg,AFSA11.jpg,AFSA11.jpg,FS,4,num_4,32,num_8,1.56676388253,,,2018_Mar_01_1045,59.9961321407,MAFE4ImagesEEG,001,103063,
AFNE01.JPG,AFNE01.JPG,AFNE01.JPG,AFNE01.JPG,AFNE01.JPG,AFNE01.JPG,,,,,,,,,,,,,,,,,,,,,3,2,32,6,,,AFSA12.jpg,AFNE03.jpg,AFSA07.jpg,AFNE10.jpg,AFSA12.jpg,FS,4,num_8,16,num_8,1.00009558024,,,2018_Mar_01_1045,59.9961321407,MAFE4ImagesEEG,001,103063,
AFNE01.JPG,AFNE01.JPG,AFNE01.JPG,AFNE01.JPG,AFNE01.JPG,AFNE01.JPG,,,,,,,,,,,,,,,,,,,,,3,3,33,2,,,AFNE01.jpg,AFSA07.jpg,AFNE16.jpg,AFSA18.jpg,AFSA18.jpg,FS,4,num_4,32,num_2,1.88342039776,,,2018_Mar_01_1045,59.9961321407,MAFE4ImagesEEG,001,103063,
AFNE01.JPG,AFNE01.JPG,AFNE01.JPG,AFNE01.JPG,AFNE01.JPG,AFNE01.JPG,,,,,,,,,,,,,,,,,,,,,3,4,34,7,,,AFSA12.jpg,AFNE05.jpg,AFSA20.jpg,AFNE14.jpg,AFSA20.jpg,FS,4,num_2,32,num_8,1.48338075448,,,2018_Mar_01_1045,59.9961321407,MAFE4ImagesEEG,001,103063,
AFNE01.JPG,AFNE01.JPG,AFNE01.JPG,AFNE01.JPG,AFNE01.JPG,AFNE01.JPG,,,,,,,,,,,,,,,,,,,,,3,5,35,5,,,AFNE12.jpg,AFSA13.jpg,AFNE11.jpg,AFSA08.jpg,AFSA08.jpg,FS,4,num_4,32,num_6,4.28322044946,,,2018_Mar_01_1045,59.9961321407,MAFE4ImagesEEG,001,103063,
AFNE01.JPG,AFNE01.JPG,AFNE01.JPG,AFNE01.JPG,AFNE01.JPG,AFNE01.JPG,,,,,,,,,,,,,,,,,,,,,3,6,36,9,,,AFSA13.jpg,AFSA20.jpg,AFNE13.jpg,AFNE19.jpg,AFSA20.jpg,FS,4,num_6,32,num_8,1.11696833768,,,2018_Mar_01_1045,59.9961321407,MAFE4ImagesEEG,001,103063,
AFNE01.JPG,AFNE01.JPG,AFNE01.JPG,AFNE01.JPG,AFNE01.JPG,AFNE01.JPG,,,,,,,,,,,,,,,,,,,,,3,7,37,4,,,AFNE16.jpg,AFNE18.jpg,AFSA17.jpg,AFSA11.jpg,AFSA17.jpg,FS,4,num_2,32,num_8,1.56677831593,,,2018_Mar_01_1045,59.9961321407,MAFE4ImagesEEG,001,103063,
AFNE01.JPG,AFNE01.JPG,AFNE01.JPG,AFNE01.JPG,AFNE01.JPG,AFNE01.JPG,,,,,,,,,,,,,,,,,,,,,3,8,38,8,,,AFNE07.jpg,AFSA20.jpg,AFSA07.jpg,AFNE08.jpg,AFNE07.jpg,FN,3,num_8,32,num_4,1.06676179799,,,2018_Mar_01_1045,59.9961321407,MAFE4ImagesEEG,001,103063,
AFNE01.JPG,AFNE01.JPG,AFNE01.JPG,AFNE01.JPG,AFNE01.JPG,AFNE01.JPG,,,,,,,,,,,,,,,,,,,,,3,9,39,0,,,AFNE18.jpg,AFSA05.jpg,AFSA16.jpg,AFNE05.jpg,AFNE05.jpg,FN,3,num_4,16,num_4,0.983392140828,,,2018_Mar_01_1045,59.9961321407,MAFE4ImagesEEG,001,103063,
