IPosition2,IPosition3,IPosition1,IPosition6,IPosition4,IPosition5,TrialsF1.thisRepN,TrialsF1.thisTrialN,TrialsF1.thisN,TrialsF1.thisIndex,TrialsM1.thisRepN,TrialsM1.thisTrialN,TrialsM1.thisN,TrialsM1.thisIndex,TrialsF2.thisRepN,TrialsF2.thisTrialN,TrialsF2.thisN,TrialsF2.thisIndex,TrialsM2.thisRepN,TrialsM2.thisTrialN,TrialsM2.thisN,TrialsM2.thisIndex,TrialsF3.thisRepN,TrialsF3.thisTrialN,TrialsF3.thisN,TrialsF3.thisIndex,TrialsM3.thisRepN,TrialsM3.thisTrialN,TrialsM3.thisN,TrialsM3.thisIndex,InstrKey_resp.keys,InstrKey_resp.rt,Image0 _Position,Image1 _Position,Image2 _Position,Image3 _Position,Center_image,condition,code,correct_answer,accuracy,Key_Resp.keys,Key_Resp.rt,BreakKey_resp.keys,BreakKey_resp.rt,date,frameRate,expName,session,participant,
,,,,,,,,,,,,,,,,,,,,,,,,,,,,,,space,10.8828084281,,,,,,,,,,,,,,2018_Feb_28_1323,60.0046767261,FEMA4ImagesEEG,001,103117,
AMSA25.JPG,AMNE24.JPG,AMSA24.JPG,AMNE26.JPG,AMSA21.JPG,AMNE25.JPG,0,0,0,3,,,,,,,,,,,,,,,,,,,,,,,AFSA18.jpg,AFSA10.jpg,AFNE13.jpg,AFNE11.jpg,AFNE11.jpg,FN,3,num_4,32,num_6,1.13348093734,,,2018_Feb_28_1323,60.0046767261,FEMA4ImagesEEG,001,103117,
AMNE22.JPG,AMSA24.JPG,AMSA22.JPG,AMNE25.JPG,AMNE24.JPG,AMSA25.JPG,0,1,1,7,,,,,,,,,,,,,,,,,,,,,,,AFNE09.jpg,AFNE13.jpg,AFSA03.jpg,AFSA04.jpg,AFNE09.jpg,FN,3,num_8,32,num_4,0.800110398326,,,2018_Feb_28_1323,60.0046767261,FEMA4ImagesEEG,001,103117,
AMSA21.JPG,AMNE22.JPG,AMNE21.JPG,AMSA23.JPG,AMSA22.JPG,AMNE23.JPG,0,2,2,1,,,,,,,,,,,,,,,,,,,,,,,AFNE20.jpg,AFNE15.jpg,AFSA14.jpg,AFSA17.jpg,AFNE20.jpg,FN,3,num_8,16,num_8,0.983477457426,,,2018_Feb_28_1323,60.0046767261,FEMA4ImagesEEG,001,103117,
AFSA21.JPG,AFNE23.JPG,AFNE21.JPG,AFSA25.JPG,AFNE25.JPG,AFSA23.JPG,0,3,3,4,,,,,,,,,,,,,,,,,,,,,,,AFNE14.jpg,AFSA20.jpg,AFSA12.jpg,AFNE20.jpg,AFNE20.jpg,FN,3,num_4,32,num_8,1.16671846597,,,2018_Feb_28_1323,60.0046767261,FEMA4ImagesEEG,001,103117,
AFSA25.JPG,AFNE24.JPG,AFSA24.JPG,AFNE21.JPG,AFSA21.JPG,AFNE25.JPG,0,4,4,2,,,,,,,,,,,,,,,,,,,,,,,AFSA01.jpg,AFNE07.jpg,AFNE03.jpg,AFSA04.jpg,AFSA01.jpg,FS,4,num_8,16,num_8,1.65007420292,,,2018_Feb_28_1323,60.0046767261,FEMA4ImagesEEG,001,103117,
AMNE23.JPG,AMNE24.JPG,AMNE22.JPG,AMSA24.JPG,AMSA22.JPG,AMSA23.JPG,0,5,5,9,,,,,,,,,,,,,,,,,,,,,,,AFSA01.jpg,AFNE19.jpg,AFSA14.jpg,AFNE08.jpg,AFNE19.jpg,FN,3,num_6,16,num_6,2.11667935189,,,2018_Feb_28_1323,60.0046767261,FEMA4ImagesEEG,001,103117,
AFNE23.JPG,AFNE24.JPG,AFNE22.JPG,AFSA24.JPG,AFSA22.JPG,AFSA23.JPG,0,6,6,8,,,,,,,,,,,,,,,,,,,,,,,AFNE13.jpg,AFSA12.jpg,AFSA17.jpg,AFNE04.jpg,AFSA12.jpg,FS,4,num_6,16,num_6,1.48344875115,,,2018_Feb_28_1323,60.0046767261,FEMA4ImagesEEG,001,103117,
AFNE22.JPG,AFSA24.JPG,AFSA22.JPG,AFNE25.JPG,AFNE24.JPG,AFSA25.JPG,0,7,7,6,,,,,,,,,,,,,,,,,,,,,,,AFSA12.jpg,AFNE05.jpg,AFSA04.jpg,AFNE16.jpg,AFNE16.jpg,FN,3,num_4,16,num_4,1.46674434969,,,2018_Feb_28_1323,60.0046767261,FEMA4ImagesEEG,001,103117,
AMSA21.JPG,AMNE23.JPG,AMNE21.JPG,AMSA25.JPG,AMNE25.JPG,AMSA23.JPG,0,8,8,5,,,,,,,,,,,,,,,,,,,,,,,AFSA14.jpg,AFSA15.jpg,AFNE04.jpg,AFNE16.jpg,AFNE16.jpg,FN,3,num_4,16,num_4,0.733563174843,,,2018_Feb_28_1323,60.0046767261,FEMA4ImagesEEG,001,103117,
AFSA21.JPG,AFNE22.JPG,AFNE21.JPG,AFSA23.JPG,AFSA22.JPG,AFNE23.JPG,0,9,9,0,,,,,,,,,,,,,,,,,,,,,,,AFSA18.jpg,AFNE09.jpg,AFNE12.jpg,AFSA20.jpg,AFNE12.jpg,FN,3,num_2,32,num_8,0.983488683123,,,2018_Feb_28_1323,60.0046767261,FEMA4ImagesEEG,001,103117,
AFSA21.JPG,AFNE22.JPG,AFNE21.JPG,AFSA23.JPG,AFSA22.JPG,AFNE23.JPG,,,,,0,0,0,0,,,,,,,,,,,,,,,,,,,AMNE06.jpg,AMSA12.jpg,AMSA02.jpg,AMNE05.jpg,AMNE05.jpg,MN,1,num_4,32,num_6,0.866788483341,,,2018_Feb_28_1323,60.0046767261,FEMA4ImagesEEG,001,103117,
AFSA25.JPG,AFNE24.JPG,AFSA24.JPG,AFNE21.JPG,AFSA21.JPG,AFNE25.JPG,,,,,0,1,1,2,,,,,,,,,,,,,,,,,,,AMSA18.jpg,AMNE19.jpg,AMSA15.jpg,AMNE06.jpg,AMSA15.jpg,MS,2,num_2,16,num_2,2.55001618131,,,2018_Feb_28_1323,60.0046767261,FEMA4ImagesEEG,001,103117,
AFSA21.JPG,AFNE23.JPG,AFNE21.JPG,AFSA25.JPG,AFNE25.JPG,AFSA23.JPG,,,,,0,2,2,4,,,,,,,,,,,,,,,,,,,AMSA20.jpg,AMSA06.jpg,AMNE17.jpg,AMNE04.jpg,AMNE04.jpg,MN,1,num_4,16,num_4,0.900115177385,,,2018_Feb_28_1323,60.0046767261,FEMA4ImagesEEG,001,103117,
AFNE22.JPG,AFSA24.JPG,AFSA22.JPG,AFNE25.JPG,AFNE24.JPG,AFSA25.JPG,,,,,0,3,3,6,,,,,,,,,,,,,,,,,,,AMNE13.jpg,AMSA08.jpg,AMSA06.jpg,AMNE09.jpg,AMNE09.jpg,MN,1,num_4,32,num_8,0.633472117013,,,2018_Feb_28_1323,60.0046767261,FEMA4ImagesEEG,001,103117,
AMSA21.JPG,AMNE23.JPG,AMNE21.JPG,AMSA25.JPG,AMNE25.JPG,AMSA23.JPG,,,,,0,4,4,5,,,,,,,,,,,,,,,,,,,AMNE17.jpg,AMNE13.jpg,AMSA04.jpg,AMSA12.jpg,AMNE17.jpg,MN,1,num_8,32,num_6,0.833490976482,,,2018_Feb_28_1323,60.0046767261,FEMA4ImagesEEG,001,103117,
AMNE22.JPG,AMSA24.JPG,AMSA22.JPG,AMNE25.JPG,AMNE24.JPG,AMSA25.JPG,,,,,0,5,5,7,,,,,,,,,,,,,,,,,,,AMNE06.jpg,AMSA01.jpg,AMNE15.jpg,AMSA05.jpg,AMSA05.jpg,MS,2,num_4,16,num_4,0.483493654639,,,2018_Feb_28_1323,60.0046767261,FEMA4ImagesEEG,001,103117,
AMSA25.JPG,AMNE24.JPG,AMSA24.JPG,AMNE26.JPG,AMSA21.JPG,AMNE25.JPG,,,,,0,6,6,3,,,,,,,,,,,,,,,,,,,AMSA06.jpg,AMNE09.jpg,AMSA09.jpg,AMNE02.jpg,AMSA09.jpg,MS,2,num_2,16,num_2,0.916866086074,,,2018_Feb_28_1323,60.0046767261,FEMA4ImagesEEG,001,103117,
AMSA21.JPG,AMNE22.JPG,AMNE21.JPG,AMSA23.JPG,AMSA22.JPG,AMNE23.JPG,,,,,0,7,7,1,,,,,,,,,,,,,,,,,,,AMNE16.jpg,AMNE09.jpg,AMSA15.jpg,AMSA10.jpg,AMSA10.jpg,MS,2,num_4,32,num_2,0.63334221777,,,2018_Feb_28_1323,60.0046767261,FEMA4ImagesEEG,001,103117,
AMNE23.JPG,AMNE24.JPG,AMNE22.JPG,AMSA24.JPG,AMSA22.JPG,AMSA23.JPG,,,,,0,8,8,9,,,,,,,,,,,,,,,,,,,AMSA20.jpg,AMNE03.jpg,AMNE07.jpg,AMSA14.jpg,AMNE07.jpg,MN,1,num_2,32,num_6,0.716804247582,,,2018_Feb_28_1323,60.0046767261,FEMA4ImagesEEG,001,103117,
AFNE23.JPG,AFNE24.JPG,AFNE22.JPG,AFSA24.JPG,AFSA22.JPG,AFSA23.JPG,,,,,0,9,9,8,,,,,,,,,,,,,,,,,,,AMNE05.jpg,AMNE19.jpg,AMSA10.jpg,AMSA08.jpg,AMSA10.jpg,MS,2,num_2,32,num_4,1.41676104406,,,2018_Feb_28_1323,60.0046767261,FEMA4ImagesEEG,001,103117,
AFSA21.JPG,AFNE23.JPG,AFNE21.JPG,AFSA25.JPG,AFNE25.JPG,AFSA23.JPG,,,,,,,,,0,0,0,4,,,,,,,,,,,,,,,AFSA16.jpg,AFSA18.jpg,AFNE08.jpg,AFNE05.jpg,AFNE05.jpg,FN,3,num_4,16,num_4,0.766845286125,,,2018_Feb_28_1323,60.0046767261,FEMA4ImagesEEG,001,103117,
AFNE22.JPG,AFSA24.JPG,AFSA22.JPG,AFNE25.JPG,AFNE24.JPG,AFSA25.JPG,,,,,,,,,0,1,1,6,,,,,,,,,,,,,,,AFNE15.jpg,AFNE17.jpg,AFSA20.jpg,AFSA14.jpg,AFNE17.jpg,FN,3,num_6,16,num_6,1.03348193166,,,2018_Feb_28_1323,60.0046767261,FEMA4ImagesEEG,001,103117,
AFNE23.JPG,AFNE24.JPG,AFNE22.JPG,AFSA24.JPG,AFSA22.JPG,AFSA23.JPG,,,,,,,,,0,2,2,8,,,,,,,,,,,,,,,AFNE09.jpg,AFSA14.jpg,AFNE07.jpg,AFSA20.jpg,AFNE07.jpg,FN,3,num_2,32,num_4,1.60008576559,,,2018_Feb_28_1323,60.0046767261,FEMA4ImagesEEG,001,103117,
AMSA21.JPG,AMNE22.JPG,AMNE21.JPG,AMSA23.JPG,AMSA22.JPG,AMNE23.JPG,,,,,,,,,0,3,3,1,,,,,,,,,,,,,,,AFSA05.jpg,AFSA09.jpg,AFNE17.jpg,AFNE08.jpg,AFSA05.jpg,FS,4,num_8,32,num_6,2.35000213294,,,2018_Feb_28_1323,60.0046767261,FEMA4ImagesEEG,001,103117,
AFSA21.JPG,AFNE22.JPG,AFNE21.JPG,AFSA23.JPG,AFSA22.JPG,AFNE23.JPG,,,,,,,,,0,4,4,0,,,,,,,,,,,,,,,AFSA04.jpg,AFNE14.jpg,AFSA17.jpg,AFNE20.jpg,AFNE14.jpg,FN,3,num_6,32,num_4,0.683513797005,,,2018_Feb_28_1323,60.0046767261,FEMA4ImagesEEG,001,103117,
AMNE23.JPG,AMNE24.JPG,AMNE22.JPG,AMSA24.JPG,AMSA22.JPG,AMSA23.JPG,,,,,,,,,0,5,5,9,,,,,,,,,,,,,,,AFSA07.jpg,AFSA04.jpg,AFNE10.jpg,AFNE13.jpg,AFNE10.jpg,FN,3,num_2,32,num_8,0.433510669856,,,2018_Feb_28_1323,60.0046767261,FEMA4ImagesEEG,001,103117,
AMSA21.JPG,AMNE23.JPG,AMNE21.JPG,AMSA25.JPG,AMNE25.JPG,AMSA23.JPG,,,,,,,,,0,6,6,5,,,,,,,,,,,,,,,AFSA12.jpg,AFSA17.jpg,AFNE03.jpg,AFNE04.jpg,AFSA17.jpg,FS,4,num_6,16,num_6,0.900136346114,,,2018_Feb_28_1323,60.0046767261,FEMA4ImagesEEG,001,103117,
AMNE22.JPG,AMSA24.JPG,AMSA22.JPG,AMNE25.JPG,AMNE24.JPG,AMSA25.JPG,,,,,,,,,0,7,7,7,,,,,,,,,,,,,,,AFNE18.jpg,AFSA01.jpg,AFNE01.jpg,AFSA05.jpg,AFNE18.jpg,FN,3,num_8,32,num_2,0.983432553941,,,2018_Feb_28_1323,60.0046767261,FEMA4ImagesEEG,001,103117,
AMSA25.JPG,AMNE24.JPG,AMSA24.JPG,AMNE26.JPG,AMSA21.JPG,AMNE25.JPG,,,,,,,,,0,8,8,3,,,,,,,,,,,,,,,AFNE15.jpg,AFNE20.jpg,AFSA06.jpg,AFSA09.jpg,AFSA06.jpg,FS,4,num_2,32,num_4,1.13345784415,,,2018_Feb_28_1323,60.0046767261,FEMA4ImagesEEG,001,103117,
AFSA25.JPG,AFNE24.JPG,AFSA24.JPG,AFNE21.JPG,AFSA21.JPG,AFNE25.JPG,,,,,,,,,0,9,9,2,,,,,,,,,,,,,,,AFNE14.jpg,AFSA06.jpg,AFSA11.jpg,AFNE08.jpg,AFNE08.jpg,FN,3,num_4,32,num_6,1.20010577969,,,2018_Feb_28_1323,60.0046767261,FEMA4ImagesEEG,001,103117,
AFSA21.JPG,AFNE23.JPG,AFNE21.JPG,AFSA25.JPG,AFNE25.JPG,AFSA23.JPG,,,,,,,,,,,,,0,0,0,4,,,,,,,,,,,AMSA11.jpg,AMNE14.jpg,AMNE13.jpg,AMSA16.jpg,AMNE14.jpg,MN,1,num_6,32,num_8,1.45012462314,,,2018_Feb_28_1323,60.0046767261,FEMA4ImagesEEG,001,103117,
AMSA25.JPG,AMNE24.JPG,AMSA24.JPG,AMNE26.JPG,AMSA21.JPG,AMNE25.JPG,,,,,,,,,,,,,0,1,1,3,,,,,,,,,,,AMNE06.jpg,AMSA15.jpg,AMSA09.jpg,AMNE08.jpg,AMNE06.jpg,MN,1,num_8,32,num_4,1.60005080502,,,2018_Feb_28_1323,60.0046767261,FEMA4ImagesEEG,001,103117,
AFNE22.JPG,AFSA24.JPG,AFSA22.JPG,AFNE25.JPG,AFNE24.JPG,AFSA25.JPG,,,,,,,,,,,,,0,2,2,6,,,,,,,,,,,AMSA03.jpg,AMSA09.jpg,AMNE13.jpg,AMNE17.jpg,AMNE13.jpg,MN,1,num_2,32,num_6,1.43343625846,,,2018_Feb_28_1323,60.0046767261,FEMA4ImagesEEG,001,103117,
AFSA21.JPG,AFNE22.JPG,AFNE21.JPG,AFSA23.JPG,AFSA22.JPG,AFNE23.JPG,,,,,,,,,,,,,0,3,3,0,,,,,,,,,,,AMSA15.jpg,AMSA09.jpg,AMNE14.jpg,AMNE20.jpg,AMSA15.jpg,MS,2,num_8,32,num_2,0.691879949998,,,2018_Feb_28_1323,60.0046767261,FEMA4ImagesEEG,001,103117,
AFSA25.JPG,AFNE24.JPG,AFSA24.JPG,AFNE21.JPG,AFSA21.JPG,AFNE25.JPG,,,,,,,,,,,,,0,4,4,2,,,,,,,,,,,AMSA14.jpg,AMNE13.jpg,AMNE19.jpg,AMSA01.jpg,AMNE19.jpg,MN,1,num_2,32,num_4,0.333565548295,,,2018_Feb_28_1323,60.0046767261,FEMA4ImagesEEG,001,103117,
AFNE23.JPG,AFNE24.JPG,AFNE22.JPG,AFSA24.JPG,AFSA22.JPG,AFSA23.JPG,,,,,,,,,,,,,0,5,5,8,,,,,,,,,,,AMNE13.jpg,AMNE19.jpg,AMSA03.jpg,AMSA20.jpg,AMSA03.jpg,MS,2,num_2,16,num_2,1.33341736684,,,2018_Feb_28_1323,60.0046767261,FEMA4ImagesEEG,001,103117,
AMNE23.JPG,AMNE24.JPG,AMNE22.JPG,AMSA24.JPG,AMSA22.JPG,AMSA23.JPG,,,,,,,,,,,,,0,6,6,9,,,,,,,,,,,AMNE18.jpg,AMNE10.jpg,AMSA10.jpg,AMSA08.jpg,AMNE10.jpg,MN,1,num_6,32,num_4,0.750025739311,,,2018_Feb_28_1323,60.0046767261,FEMA4ImagesEEG,001,103117,
AMSA21.JPG,AMNE22.JPG,AMNE21.JPG,AMSA23.JPG,AMSA22.JPG,AMNE23.JPG,,,,,,,,,,,,,0,7,7,1,,,,,,,,,,,AMNE13.jpg,AMSA09.jpg,AMNE07.jpg,AMSA05.jpg,AMSA09.jpg,MS,2,num_6,16,num_6,0.45013937715,,,2018_Feb_28_1323,60.0046767261,FEMA4ImagesEEG,001,103117,
AMSA21.JPG,AMNE23.JPG,AMNE21.JPG,AMSA25.JPG,AMNE25.JPG,AMSA23.JPG,,,,,,,,,,,,,0,8,8,5,,,,,,,,,,,AMSA10.jpg,AMNE16.jpg,AMNE06.jpg,AMSA01.jpg,AMSA01.jpg,MS,2,num_4,16,num_4,0.433523820131,,,2018_Feb_28_1323,60.0046767261,FEMA4ImagesEEG,001,103117,
AMNE22.JPG,AMSA24.JPG,AMSA22.JPG,AMNE25.JPG,AMNE24.JPG,AMSA25.JPG,,,,,,,,,,,,,0,9,9,7,,,,,,,,,,,AMSA20.jpg,AMNE12.jpg,AMNE01.jpg,AMSA01.jpg,AMNE12.jpg,MN,1,num_6,32,num_2,1.21674699569,,,2018_Feb_28_1323,60.0046767261,FEMA4ImagesEEG,001,103117,
AFSA21.JPG,AFNE22.JPG,AFNE21.JPG,AFSA23.JPG,AFSA22.JPG,AFNE23.JPG,,,,,,,,,,,,,,,,,0,0,0,0,,,,,,,AFNE15.jpg,AFSA15.jpg,AFSA07.jpg,AFNE10.jpg,AFSA15.jpg,FS,4,num_6,16,num_6,0.500150907552,,,2018_Feb_28_1323,60.0046767261,FEMA4ImagesEEG,001,103117,
AFNE22.JPG,AFSA24.JPG,AFSA22.JPG,AFNE25.JPG,AFNE24.JPG,AFSA25.JPG,,,,,,,,,,,,,,,,,0,1,1,6,,,,,,,AFSA12.jpg,AFSA08.jpg,AFNE10.jpg,AFNE19.jpg,AFNE10.jpg,FN,3,num_2,32,num_8,0.88346594281,,,2018_Feb_28_1323,60.0046767261,FEMA4ImagesEEG,001,103117,
AMSA21.JPG,AMNE23.JPG,AMNE21.JPG,AMSA25.JPG,AMNE25.JPG,AMSA23.JPG,,,,,,,,,,,,,,,,,0,2,2,5,,,,,,,AFNE11.jpg,AFNE02.jpg,AFSA20.jpg,AFSA06.jpg,AFSA20.jpg,FS,4,num_2,32,num_4,0.95014948037,,,2018_Feb_28_1323,60.0046767261,FEMA4ImagesEEG,001,103117,
AMSA21.JPG,AMNE22.JPG,AMNE21.JPG,AMSA23.JPG,AMSA22.JPG,AMNE23.JPG,,,,,,,,,,,,,,,,,0,3,3,1,,,,,,,AFSA13.jpg,AFSA08.jpg,AFNE14.jpg,AFNE16.jpg,AFNE16.jpg,FN,3,num_4,32,num_8,0.616814543377,,,2018_Feb_28_1323,60.0046767261,FEMA4ImagesEEG,001,103117,
AMSA25.JPG,AMNE24.JPG,AMSA24.JPG,AMNE26.JPG,AMSA21.JPG,AMNE25.JPG,,,,,,,,,,,,,,,,,0,4,4,3,,,,,,,AFNE09.jpg,AFSA03.jpg,AFNE08.jpg,AFSA07.jpg,AFNE08.jpg,FN,3,num_2,32,num_4,0.833469486912,,,2018_Feb_28_1323,60.0046767261,FEMA4ImagesEEG,001,103117,
AFNE23.JPG,AFNE24.JPG,AFNE22.JPG,AFSA24.JPG,AFSA22.JPG,AFSA23.JPG,,,,,,,,,,,,,,,,,0,5,5,8,,,,,,,AFSA01.jpg,AFNE12.jpg,AFSA03.jpg,AFNE02.jpg,AFNE12.jpg,FN,3,num_6,16,num_6,1.15015679318,,,2018_Feb_28_1323,60.0046767261,FEMA4ImagesEEG,001,103117,
AMNE23.JPG,AMNE24.JPG,AMNE22.JPG,AMSA24.JPG,AMSA22.JPG,AMSA23.JPG,,,,,,,,,,,,,,,,,0,6,6,9,,,,,,,AFNE06.jpg,AFSA18.jpg,AFSA16.jpg,AFNE13.jpg,AFNE13.jpg,FN,3,num_4,16,num_4,1.18345558294,,,2018_Feb_28_1323,60.0046767261,FEMA4ImagesEEG,001,103117,
AFSA25.JPG,AFNE24.JPG,AFSA24.JPG,AFNE21.JPG,AFSA21.JPG,AFNE25.JPG,,,,,,,,,,,,,,,,,0,7,7,2,,,,,,,AFSA17.jpg,AFSA11.jpg,AFNE09.jpg,AFNE03.jpg,AFSA17.jpg,FS,4,num_8,32,num_6,0.933486774797,,,2018_Feb_28_1323,60.0046767261,FEMA4ImagesEEG,001,103117,
AFSA21.JPG,AFNE23.JPG,AFNE21.JPG,AFSA25.JPG,AFNE25.JPG,AFSA23.JPG,,,,,,,,,,,,,,,,,0,8,8,4,,,,,,,AFSA13.jpg,AFNE16.jpg,AFNE05.jpg,AFSA18.jpg,AFNE05.jpg,FN,3,num_2,32,num_6,1.35003003711,,,2018_Feb_28_1323,60.0046767261,FEMA4ImagesEEG,001,103117,
AMNE22.JPG,AMSA24.JPG,AMSA22.JPG,AMNE25.JPG,AMNE24.JPG,AMSA25.JPG,,,,,,,,,,,,,,,,,0,9,9,7,,,,,,,AFNE01.jpg,AFSA18.jpg,AFSA04.jpg,AFNE03.jpg,AFSA04.jpg,FS,4,num_2,16,num_2,1.56673341244,,,2018_Feb_28_1323,60.0046767261,FEMA4ImagesEEG,001,103117,
AFSA21.JPG,AFNE23.JPG,AFNE21.JPG,AFSA25.JPG,AFNE25.JPG,AFSA23.JPG,,,,,,,,,,,,,,,,,,,,,0,0,0,4,,,AMNE09.jpg,AMNE11.jpg,AMSA07.jpg,AMSA02.jpg,AMNE09.jpg,MN,1,num_8,32,num_4,0.866742296843,,,2018_Feb_28_1323,60.0046767261,FEMA4ImagesEEG,001,103117,
AFSA21.JPG,AFNE22.JPG,AFNE21.JPG,AFSA23.JPG,AFSA22.JPG,AFNE23.JPG,,,,,,,,,,,,,,,,,,,,,0,1,1,0,,,AMSA02.jpg,AMSA05.jpg,AMNE02.jpg,AMNE20.jpg,AMSA05.jpg,MS,2,num_6,32,num_8,0.683503533364,,,2018_Feb_28_1323,60.0046767261,FEMA4ImagesEEG,001,103117,
AMSA21.JPG,AMNE23.JPG,AMNE21.JPG,AMSA25.JPG,AMNE25.JPG,AMSA23.JPG,,,,,,,,,,,,,,,,,,,,,0,2,2,5,,,AMNE06.jpg,AMNE16.jpg,AMSA18.jpg,AMSA16.jpg,AMSA18.jpg,MS,2,num_2,16,num_2,0.516825480619,,,2018_Feb_28_1323,60.0046767261,FEMA4ImagesEEG,001,103117,
AMSA21.JPG,AMNE22.JPG,AMNE21.JPG,AMSA23.JPG,AMSA22.JPG,AMNE23.JPG,,,,,,,,,,,,,,,,,,,,,0,3,3,1,,,AMSA18.jpg,AMNE09.jpg,AMSA05.jpg,AMNE16.jpg,AMSA05.jpg,MS,2,num_2,16,num_2,0.616802675999,,,2018_Feb_28_1323,60.0046767261,FEMA4ImagesEEG,001,103117,
AMNE23.JPG,AMNE24.JPG,AMNE22.JPG,AMSA24.JPG,AMSA22.JPG,AMSA23.JPG,,,,,,,,,,,,,,,,,,,,,0,4,4,9,,,AMNE04.jpg,AMSA09.jpg,AMNE13.jpg,AMSA06.jpg,AMSA09.jpg,MS,2,num_6,16,num_6,0.783474955591,,,2018_Feb_28_1323,60.0046767261,FEMA4ImagesEEG,001,103117,
AMSA25.JPG,AMNE24.JPG,AMSA24.JPG,AMNE26.JPG,AMSA21.JPG,AMNE25.JPG,,,,,,,,,,,,,,,,,,,,,0,5,5,3,,,AMNE19.jpg,AMSA02.jpg,AMNE17.jpg,AMSA08.jpg,AMSA02.jpg,MS,2,num_6,16,num_6,0.966775621637,,,2018_Feb_28_1323,60.0046767261,FEMA4ImagesEEG,001,103117,
AMNE22.JPG,AMSA24.JPG,AMSA22.JPG,AMNE25.JPG,AMNE24.JPG,AMSA25.JPG,,,,,,,,,,,,,,,,,,,,,0,6,6,7,,,AMNE13.jpg,AMSA14.jpg,AMNE10.jpg,AMSA11.jpg,AMNE13.jpg,MN,1,num_8,32,num_6,1.08345786028,,,2018_Feb_28_1323,60.0046767261,FEMA4ImagesEEG,001,103117,
AFSA25.JPG,AFNE24.JPG,AFSA24.JPG,AFNE21.JPG,AFSA21.JPG,AFNE25.JPG,,,,,,,,,,,,,,,,,,,,,0,7,7,2,,,AMSA15.jpg,AMNE16.jpg,AMSA09.jpg,AMNE14.jpg,AMNE16.jpg,MN,1,num_6,32,num_8,1.45009094558,,,2018_Feb_28_1323,60.0046767261,FEMA4ImagesEEG,001,103117,
AFNE23.JPG,AFNE24.JPG,AFNE22.JPG,AFSA24.JPG,AFSA22.JPG,AFSA23.JPG,,,,,,,,,,,,,,,,,,,,,0,8,8,8,,,AMNE04.jpg,AMNE07.jpg,AMSA10.jpg,AMSA14.jpg,AMNE04.jpg,MN,1,num_8,32,num_4,0.816607923247,,,2018_Feb_28_1323,60.0046767261,FEMA4ImagesEEG,001,103117,
AFNE22.JPG,AFSA24.JPG,AFSA22.JPG,AFNE25.JPG,AFNE24.JPG,AFSA25.JPG,,,,,,,,,,,,,,,,,,,,,0,9,9,6,,,AMNE18.jpg,AMNE08.jpg,AMSA04.jpg,AMSA12.jpg,AMSA12.jpg,MS,2,num_4,32,num_6,0.850098514929,,,2018_Feb_28_1323,60.0046767261,FEMA4ImagesEEG,001,103117,
,,,,,,,,,,,,,,,,,,,,,,,,,,,,,,,,,,,,,,,,,,,space,19.4483069959,2018_Feb_28_1323,60.0046767261,FEMA4ImagesEEG,001,103117,
AFNE01.JPG,AFNE01.JPG,AFNE01.JPG,AFNE01.JPG,AFNE01.JPG,AFNE01.JPG,0,0,0,1,,,,,,,,,,,,,,,,,,,,,,,AFNE15.jpg,AFNE13.jpg,AFSA16.jpg,AFSA02.jpg,AFSA16.jpg,FS,4,num_2,16,num_2,1.5338156604,,,2018_Feb_28_1323,60.0046767261,FEMA4ImagesEEG,001,103117,
AFNE01.JPG,AFNE01.JPG,AFNE01.JPG,AFNE01.JPG,AFNE01.JPG,AFNE01.JPG,0,1,1,0,,,,,,,,,,,,,,,,,,,,,,,AFNE13.jpg,AFSA08.jpg,AFNE03.jpg,AFSA12.jpg,AFSA08.jpg,FS,4,num_6,16,num_6,0.666831205715,,,2018_Feb_28_1323,60.0046767261,FEMA4ImagesEEG,001,103117,
AFNE01.JPG,AFNE01.JPG,AFNE01.JPG,AFNE01.JPG,AFNE01.JPG,AFNE01.JPG,0,2,2,4,,,,,,,,,,,,,,,,,,,,,,,AFSA07.jpg,AFSA17.jpg,AFNE15.jpg,AFNE09.jpg,AFNE09.jpg,FN,3,num_4,32,num_8,0.583494905615,,,2018_Feb_28_1323,60.0046767261,FEMA4ImagesEEG,001,103117,
AFNE01.JPG,AFNE01.JPG,AFNE01.JPG,AFNE01.JPG,AFNE01.JPG,AFNE01.JPG,0,3,3,3,,,,,,,,,,,,,,,,,,,,,,,AFSA07.jpg,AFNE01.jpg,AFSA12.jpg,AFNE05.jpg,AFSA07.jpg,FS,4,num_8,32,num_2,0.983418120653,,,2018_Feb_28_1323,60.0046767261,FEMA4ImagesEEG,001,103117,
AFNE01.JPG,AFNE01.JPG,AFNE01.JPG,AFNE01.JPG,AFNE01.JPG,AFNE01.JPG,0,4,4,8,,,,,,,,,,,,,,,,,,,,,,,AFSA03.jpg,AFNE15.jpg,AFNE07.jpg,AFSA18.jpg,AFNE07.jpg,FN,3,num_2,32,num_4,0.683412764338,,,2018_Feb_28_1323,60.0046767261,FEMA4ImagesEEG,001,103117,
AFNE01.JPG,AFNE01.JPG,AFNE01.JPG,AFNE01.JPG,AFNE01.JPG,AFNE01.JPG,0,5,5,7,,,,,,,,,,,,,,,,,,,,,,,AFSA16.jpg,AFSA14.jpg,AFNE17.jpg,AFNE07.jpg,AFNE17.jpg,FN,3,num_2,32,num_6,0.466843778617,,,2018_Feb_28_1323,60.0046767261,FEMA4ImagesEEG,001,103117,
AFNE01.JPG,AFNE01.JPG,AFNE01.JPG,AFNE01.JPG,AFNE01.JPG,AFNE01.JPG,0,6,6,2,,,,,,,,,,,,,,,,,,,,,,,AFNE12.jpg,AFSA12.jpg,AFNE04.jpg,AFSA17.jpg,AFSA12.jpg,FS,4,num_6,16,num_6,0.466827100259,,,2018_Feb_28_1323,60.0046767261,FEMA4ImagesEEG,001,103117,
AFNE01.JPG,AFNE01.JPG,AFNE01.JPG,AFNE01.JPG,AFNE01.JPG,AFNE01.JPG,0,7,7,5,,,,,,,,,,,,,,,,,,,,,,,AFNE04.jpg,AFNE11.jpg,AFSA08.jpg,AFSA06.jpg,AFSA08.jpg,FS,4,num_2,16,num_2,1.48343752534,,,2018_Feb_28_1323,60.0046767261,FEMA4ImagesEEG,001,103117,
AFNE01.JPG,AFNE01.JPG,AFNE01.JPG,AFNE01.JPG,AFNE01.JPG,AFNE01.JPG,0,8,8,9,,,,,,,,,,,,,,,,,,,,,,,AFSA12.jpg,AFSA20.jpg,AFNE15.jpg,AFNE13.jpg,AFSA12.jpg,FS,4,num_8,32,num_4,1.05008433829,,,2018_Feb_28_1323,60.0046767261,FEMA4ImagesEEG,001,103117,
AFNE01.JPG,AFNE01.JPG,AFNE01.JPG,AFNE01.JPG,AFNE01.JPG,AFNE01.JPG,0,9,9,6,,,,,,,,,,,,,,,,,,,,,,,AFSA11.jpg,AFSA20.jpg,AFNE09.jpg,AFNE03.jpg,AFSA11.jpg,FS,4,num_8,32,num_6,1.56674431753,,,2018_Feb_28_1323,60.0046767261,FEMA4ImagesEEG,001,103117,
AFNE01.JPG,AFNE01.JPG,AFNE01.JPG,AFNE01.JPG,AFNE01.JPG,AFNE01.JPG,1,0,10,6,,,,,,,,,,,,,,,,,,,,,,,AFSA16.jpg,AFSA13.jpg,AFNE06.jpg,AFNE08.jpg,AFNE08.jpg,FN,3,num_4,32,num_6,4.79977843352,,,2018_Feb_28_1323,60.0046767261,FEMA4ImagesEEG,001,103117,
AFNE01.JPG,AFNE01.JPG,AFNE01.JPG,AFNE01.JPG,AFNE01.JPG,AFNE01.JPG,1,1,11,5,,,,,,,,,,,,,,,,,,,,,,,AFNE05.jpg,AFSA07.jpg,AFSA15.jpg,AFNE16.jpg,AFNE16.jpg,FN,3,num_4,16,num_4,0.983744312078,,,2018_Feb_28_1323,60.0046767261,FEMA4ImagesEEG,001,103117,
AFNE01.JPG,AFNE01.JPG,AFNE01.JPG,AFNE01.JPG,AFNE01.JPG,AFNE01.JPG,1,2,12,7,,,,,,,,,,,,,,,,,,,,,,,AFNE19.jpg,AFNE16.jpg,AFSA15.jpg,AFSA18.jpg,AFNE19.jpg,FN,3,num_8,32,num_4,0.583471491584,,,2018_Feb_28_1323,60.0046767261,FEMA4ImagesEEG,001,103117,
AFNE01.JPG,AFNE01.JPG,AFNE01.JPG,AFNE01.JPG,AFNE01.JPG,AFNE01.JPG,1,3,13,8,,,,,,,,,,,,,,,,,,,,,,,AFNE11.jpg,AFSA11.jpg,AFSA08.jpg,AFNE09.jpg,AFSA11.jpg,FS,4,num_6,16,num_6,0.633537868503,,,2018_Feb_28_1323,60.0046767261,FEMA4ImagesEEG,001,103117,
AFNE01.JPG,AFNE01.JPG,AFNE01.JPG,AFNE01.JPG,AFNE01.JPG,AFNE01.JPG,1,4,14,0,,,,,,,,,,,,,,,,,,,,,,,AFSA13.jpg,AFSA18.jpg,AFNE16.jpg,AFNE19.jpg,AFSA18.jpg,FS,4,num_6,16,num_6,0.66671060794,,,2018_Feb_28_1323,60.0046767261,FEMA4ImagesEEG,001,103117,
AFNE01.JPG,AFNE01.JPG,AFNE01.JPG,AFNE01.JPG,AFNE01.JPG,AFNE01.JPG,1,5,15,2,,,,,,,,,,,,,,,,,,,,,,,AFNE01.jpg,AFSA01.jpg,AFNE20.jpg,AFSA04.jpg,AFSA01.jpg,FS,4,num_6,16,num_6,0.733512498089,,,2018_Feb_28_1323,60.0046767261,FEMA4ImagesEEG,001,103117,
AFNE01.JPG,AFNE01.JPG,AFNE01.JPG,AFNE01.JPG,AFNE01.JPG,AFNE01.JPG,1,6,16,3,,,,,,,,,,,,,,,,,,,,,,,AFNE13.jpg,AFSA02.jpg,AFSA06.jpg,AFNE12.jpg,AFSA02.jpg,FS,4,num_6,16,num_6,0.733463425073,,,2018_Feb_28_1323,60.0046767261,FEMA4ImagesEEG,001,103117,
AFNE01.JPG,AFNE01.JPG,AFNE01.JPG,AFNE01.JPG,AFNE01.JPG,AFNE01.JPG,1,7,17,9,,,,,,,,,,,,,,,,,,,,,,,AFNE15.jpg,AFSA15.jpg,AFSA13.jpg,AFNE10.jpg,AFNE15.jpg,FN,3,num_8,32,num_4,1.13346682489,,,2018_Feb_28_1323,60.0046767261,FEMA4ImagesEEG,001,103117,
AFNE01.JPG,AFNE01.JPG,AFNE01.JPG,AFNE01.JPG,AFNE01.JPG,AFNE01.JPG,1,8,18,4,,,,,,,,,,,,,,,,,,,,,,,AFSA11.jpg,AFSA03.jpg,AFNE18.jpg,AFNE07.jpg,AFSA03.jpg,FS,4,num_6,32,num_8,1.40009288595,,,2018_Feb_28_1323,60.0046767261,FEMA4ImagesEEG,001,103117,
AFNE01.JPG,AFNE01.JPG,AFNE01.JPG,AFNE01.JPG,AFNE01.JPG,AFNE01.JPG,1,9,19,1,,,,,,,,,,,,,,,,,,,,,,,AFNE03.jpg,AFSA05.jpg,AFNE15.jpg,AFSA19.jpg,AFNE03.jpg,FN,3,num_8,32,num_6,0.900096253725,,,2018_Feb_28_1323,60.0046767261,FEMA4ImagesEEG,001,103117,
AFNE01.JPG,AFNE01.JPG,AFNE01.JPG,AFNE01.JPG,AFNE01.JPG,AFNE01.JPG,2,0,20,6,,,,,,,,,,,,,,,,,,,,,,,AFNE19.jpg,AFNE14.jpg,AFSA12.jpg,AFSA02.jpg,AFNE19.jpg,FN,3,num_8,32,num_4,0.400187824736,,,2018_Feb_28_1323,60.0046767261,FEMA4ImagesEEG,001,103117,
AFNE01.JPG,AFNE01.JPG,AFNE01.JPG,AFNE01.JPG,AFNE01.JPG,AFNE01.JPG,2,1,21,7,,,,,,,,,,,,,,,,,,,,,,,AFSA10.jpg,AFNE13.jpg,AFSA16.jpg,AFNE14.jpg,AFSA10.jpg,FS,4,num_8,32,num_2,0.96678941336,,,2018_Feb_28_1323,60.0046767261,FEMA4ImagesEEG,001,103117,
AFNE01.JPG,AFNE01.JPG,AFNE01.JPG,AFNE01.JPG,AFNE01.JPG,AFNE01.JPG,2,2,22,1,,,,,,,,,,,,,,,,,,,,,,,AFNE04.jpg,AFNE18.jpg,AFSA07.jpg,AFSA05.jpg,AFNE18.jpg,FN,3,num_6,32,num_4,0.300173423486,,,2018_Feb_28_1323,60.0046767261,FEMA4ImagesEEG,001,103117,
AFNE01.JPG,AFNE01.JPG,AFNE01.JPG,AFNE01.JPG,AFNE01.JPG,AFNE01.JPG,2,3,23,3,,,,,,,,,,,,,,,,,,,,,,,AFSA02.jpg,AFSA11.jpg,AFNE06.jpg,AFNE15.jpg,AFNE15.jpg,FN,3,num_4,16,num_4,0.800203412538,,,2018_Feb_28_1323,60.0046767261,FEMA4ImagesEEG,001,103117,
AFNE01.JPG,AFNE01.JPG,AFNE01.JPG,AFNE01.JPG,AFNE01.JPG,AFNE01.JPG,2,4,24,9,,,,,,,,,,,,,,,,,,,,,,,AFNE14.jpg,AFNE07.jpg,AFSA01.jpg,AFSA03.jpg,AFSA01.jpg,FS,4,num_2,32,num_8,2.84998080379,,,2018_Feb_28_1323,60.0046767261,FEMA4ImagesEEG,001,103117,
AFNE01.JPG,AFNE01.JPG,AFNE01.JPG,AFNE01.JPG,AFNE01.JPG,AFNE01.JPG,2,5,25,8,,,,,,,,,,,,,,,,,,,,,,,AFSA16.jpg,AFNE11.jpg,AFSA07.jpg,AFNE09.jpg,AFNE11.jpg,FN,3,num_6,32,num_2,1.73339895648,,,2018_Feb_28_1323,60.0046767261,FEMA4ImagesEEG,001,103117,
AFNE01.JPG,AFNE01.JPG,AFNE01.JPG,AFNE01.JPG,AFNE01.JPG,AFNE01.JPG,2,6,26,0,,,,,,,,,,,,,,,,,,,,,,,AFNE10.jpg,AFSA01.jpg,AFSA09.jpg,AFNE19.jpg,AFNE19.jpg,FN,3,num_4,16,num_4,0.83348135429,,,2018_Feb_28_1323,60.0046767261,FEMA4ImagesEEG,001,103117,
AFNE01.JPG,AFNE01.JPG,AFNE01.JPG,AFNE01.JPG,AFNE01.JPG,AFNE01.JPG,2,7,27,5,,,,,,,,,,,,,,,,,,,,,,,AFSA09.jpg,AFNE19.jpg,AFSA11.jpg,AFNE03.jpg,AFSA11.jpg,FS,4,num_2,32,num_4,1.06680413533,,,2018_Feb_28_1323,60.0046767261,FEMA4ImagesEEG,001,103117,
AFNE01.JPG,AFNE01.JPG,AFNE01.JPG,AFNE01.JPG,AFNE01.JPG,AFNE01.JPG,2,8,28,4,,,,,,,,,,,,,,,,,,,,,,,AFNE05.jpg,AFSA16.jpg,AFSA12.jpg,AFNE15.jpg,AFNE15.jpg,FN,3,num_4,16,num_4,1.13345880643,,,2018_Feb_28_1323,60.0046767261,FEMA4ImagesEEG,001,103117,
AFNE01.JPG,AFNE01.JPG,AFNE01.JPG,AFNE01.JPG,AFNE01.JPG,AFNE01.JPG,2,9,29,2,,,,,,,,,,,,,,,,,,,,,,,AFSA10.jpg,AFSA16.jpg,AFNE14.jpg,AFNE18.jpg,AFNE14.jpg,FN,3,num_2,32,num_6,0.833488731296,,,2018_Feb_28_1323,60.0046767261,FEMA4ImagesEEG,001,103117,
AFNE01.JPG,AFNE01.JPG,AFNE01.JPG,AFNE01.JPG,AFNE01.JPG,AFNE01.JPG,3,0,30,2,,,,,,,,,,,,,,,,,,,,,,,AFNE10.jpg,AFNE11.jpg,AFSA03.jpg,AFSA09.jpg,AFNE11.jpg,FN,3,num_6,32,num_4,0.666471336619,,,2018_Feb_28_1323,60.0046767261,FEMA4ImagesEEG,001,103117,
AFNE01.JPG,AFNE01.JPG,AFNE01.JPG,AFNE01.JPG,AFNE01.JPG,AFNE01.JPG,3,1,31,5,,,,,,,,,,,,,,,,,,,,,,,AFNE13.jpg,AFSA13.jpg,AFNE16.jpg,AFSA09.jpg,AFNE16.jpg,FN,3,num_2,32,num_8,0.833532672608,,,2018_Feb_28_1323,60.0046767261,FEMA4ImagesEEG,001,103117,
AFNE01.JPG,AFNE01.JPG,AFNE01.JPG,AFNE01.JPG,AFNE01.JPG,AFNE01.JPG,3,2,32,1,,,,,,,,,,,,,,,,,,,,,,,AFNE04.jpg,AFSA20.jpg,AFSA16.jpg,AFNE17.jpg,AFNE04.jpg,FN,3,num_8,16,num_8,0.850156568689,,,2018_Feb_28_1323,60.0046767261,FEMA4ImagesEEG,001,103117,
AFNE01.JPG,AFNE01.JPG,AFNE01.JPG,AFNE01.JPG,AFNE01.JPG,AFNE01.JPG,3,3,33,8,,,,,,,,,,,,,,,,,,,,,,,AFSA15.jpg,AFSA12.jpg,AFNE08.jpg,AFNE19.jpg,AFNE19.jpg,FN,3,num_4,16,num_4,0.950137933833,,,2018_Feb_28_1323,60.0046767261,FEMA4ImagesEEG,001,103117,
AFNE01.JPG,AFNE01.JPG,AFNE01.JPG,AFNE01.JPG,AFNE01.JPG,AFNE01.JPG,3,4,34,9,,,,,,,,,,,,,,,,,,,,,,,AFSA13.jpg,AFNE15.jpg,AFNE20.jpg,AFSA01.jpg,AFNE15.jpg,FN,3,num_6,32,num_8,1.28341225116,,,2018_Feb_28_1323,60.0046767261,FEMA4ImagesEEG,001,103117,
AFNE01.JPG,AFNE01.JPG,AFNE01.JPG,AFNE01.JPG,AFNE01.JPG,AFNE01.JPG,3,5,35,0,,,,,,,,,,,,,,,,,,,,,,,AFNE11.jpg,AFSA14.jpg,AFSA20.jpg,AFNE13.jpg,AFNE11.jpg,FN,3,num_8,16,num_8,0.850202755071,,,2018_Feb_28_1323,60.0046767261,FEMA4ImagesEEG,001,103117,
AFNE01.JPG,AFNE01.JPG,AFNE01.JPG,AFNE01.JPG,AFNE01.JPG,AFNE01.JPG,3,6,36,6,,,,,,,,,,,,,,,,,,,,,,,AFSA15.jpg,AFNE08.jpg,AFSA20.jpg,AFNE01.jpg,AFSA15.jpg,FS,4,num_8,32,num_4,0.566796598025,,,2018_Feb_28_1323,60.0046767261,FEMA4ImagesEEG,001,103117,
AFNE01.JPG,AFNE01.JPG,AFNE01.JPG,AFNE01.JPG,AFNE01.JPG,AFNE01.JPG,3,7,37,3,,,,,,,,,,,,,,,,,,,,,,,AFSA10.jpg,AFSA13.jpg,AFNE11.jpg,AFNE02.jpg,AFNE02.jpg,FN,3,num_4,32,num_6,3.91638433619,,,2018_Feb_28_1323,60.0046767261,FEMA4ImagesEEG,001,103117,
AFNE01.JPG,AFNE01.JPG,AFNE01.JPG,AFNE01.JPG,AFNE01.JPG,AFNE01.JPG,3,8,38,7,,,,,,,,,,,,,,,,,,,,,,,AFNE02.jpg,AFSA07.jpg,AFNE14.jpg,AFSA02.jpg,AFNE14.jpg,FN,3,num_2,32,num_4,0.450188129442,,,2018_Feb_28_1323,60.0046767261,FEMA4ImagesEEG,001,103117,
AFNE01.JPG,AFNE01.JPG,AFNE01.JPG,AFNE01.JPG,AFNE01.JPG,AFNE01.JPG,3,9,39,4,,,,,,,,,,,,,,,,,,,,,,,AFSA14.jpg,AFNE09.jpg,AFNE02.jpg,AFSA02.jpg,AFNE02.jpg,FN,3,num_2,16,num_2,0.30018753605,,,2018_Feb_28_1323,60.0046767261,FEMA4ImagesEEG,001,103117,
AFNE01.JPG,AFNE01.JPG,AFNE01.JPG,AFNE01.JPG,AFNE01.JPG,AFNE01.JPG,4,0,40,3,,,,,,,,,,,,,,,,,,,,,,,AFNE17.jpg,AFSA04.jpg,AFSA20.jpg,AFNE04.jpg,AFNE04.jpg,FN,3,num_4,32,num_8,0.316827148315,,,2018_Feb_28_1323,60.0046767261,FEMA4ImagesEEG,001,103117,
AFNE01.JPG,AFNE01.JPG,AFNE01.JPG,AFNE01.JPG,AFNE01.JPG,AFNE01.JPG,4,1,41,1,,,,,,,,,,,,,,,,,,,,,,,AFSA16.jpg,AFNE16.jpg,AFSA05.jpg,AFNE06.jpg,AFNE16.jpg,FN,3,num_6,16,num_6,1.04983255826,,,2018_Feb_28_1323,60.0046767261,FEMA4ImagesEEG,001,103117,
AFNE01.JPG,AFNE01.JPG,AFNE01.JPG,AFNE01.JPG,AFNE01.JPG,AFNE01.JPG,4,2,42,9,,,,,,,,,,,,,,,,,,,,,,,AFNE09.jpg,AFNE06.jpg,AFSA13.jpg,AFSA07.jpg,AFSA07.jpg,FS,4,num_4,32,num_8,1.50012139964,,,2018_Feb_28_1323,60.0046767261,FEMA4ImagesEEG,001,103117,
AFNE01.JPG,AFNE01.JPG,AFNE01.JPG,AFNE01.JPG,AFNE01.JPG,AFNE01.JPG,4,3,43,5,,,,,,,,,,,,,,,,,,,,,,,AFSA16.jpg,AFNE07.jpg,AFSA10.jpg,AFNE05.jpg,AFSA16.jpg,FS,4,num_8,32,num_6,0.816671108827,,,2018_Feb_28_1323,60.0046767261,FEMA4ImagesEEG,001,103117,
AFNE01.JPG,AFNE01.JPG,AFNE01.JPG,AFNE01.JPG,AFNE01.JPG,AFNE01.JPG,4,4,44,7,,,,,,,,,,,,,,,,,,,,,,,AFSA09.jpg,AFNE15.jpg,AFNE11.jpg,AFSA12.jpg,AFNE15.jpg,FN,3,num_6,16,num_6,1.06662099354,,,2018_Feb_28_1323,60.0046767261,FEMA4ImagesEEG,001,103117,
AFNE01.JPG,AFNE01.JPG,AFNE01.JPG,AFNE01.JPG,AFNE01.JPG,AFNE01.JPG,4,5,45,2,,,,,,,,,,,,,,,,,,,,,,,AFSA01.jpg,AFNE16.jpg,AFNE13.jpg,AFSA07.jpg,AFNE13.jpg,FN,3,num_2,32,num_8,1.25012308359,,,2018_Feb_28_1323,60.0046767261,FEMA4ImagesEEG,001,103117,
AFNE01.JPG,AFNE01.JPG,AFNE01.JPG,AFNE01.JPG,AFNE01.JPG,AFNE01.JPG,4,6,46,0,,,,,,,,,,,,,,,,,,,,,,,AFNE05.jpg,AFSA05.jpg,AFNE04.jpg,AFSA10.jpg,AFNE05.jpg,FN,3,num_8,16,num_8,0.716890205629,,,2018_Feb_28_1323,60.0046767261,FEMA4ImagesEEG,001,103117,
AFNE01.JPG,AFNE01.JPG,AFNE01.JPG,AFNE01.JPG,AFNE01.JPG,AFNE01.JPG,4,7,47,6,,,,,,,,,,,,,,,,,,,,,,,AFSA19.jpg,AFNE01.jpg,AFNE18.jpg,AFSA11.jpg,AFSA19.jpg,FS,4,num_8,32,num_6,0.950088219135,,,2018_Feb_28_1323,60.0046767261,FEMA4ImagesEEG,001,103117,
AFNE01.JPG,AFNE01.JPG,AFNE01.JPG,AFNE01.JPG,AFNE01.JPG,AFNE01.JPG,4,8,48,4,,,,,,,,,,,,,,,,,,,,,,,AFNE14.jpg,AFSA02.jpg,AFNE20.jpg,AFSA05.jpg,AFNE14.jpg,FN,3,num_8,32,num_4,0.433516763849,,,2018_Feb_28_1323,60.0046767261,FEMA4ImagesEEG,001,103117,
AFNE01.JPG,AFNE01.JPG,AFNE01.JPG,AFNE01.JPG,AFNE01.JPG,AFNE01.JPG,4,9,49,8,,,,,,,,,,,,,,,,,,,,,,,AFNE04.jpg,AFNE11.jpg,AFSA17.jpg,AFSA09.jpg,AFSA17.jpg,FS,4,num_2,16,num_2,1.70003537752,,,2018_Feb_28_1323,60.0046767261,FEMA4ImagesEEG,001,103117,
AFNE01.JPG,AFNE01.JPG,AFNE01.JPG,AFNE01.JPG,AFNE01.JPG,AFNE01.JPG,5,0,50,0,,,,,,,,,,,,,,,,,,,,,,,AFSA14.jpg,AFNE19.jpg,AFNE13.jpg,AFSA02.jpg,AFNE13.jpg,FN,3,num_2,32,num_8,1.53346509289,,,2018_Feb_28_1323,60.0046767261,FEMA4ImagesEEG,001,103117,
AFNE01.JPG,AFNE01.JPG,AFNE01.JPG,AFNE01.JPG,AFNE01.JPG,AFNE01.JPG,5,1,51,1,,,,,,,,,,,,,,,,,,,,,,,AFSA17.jpg,AFNE12.jpg,AFSA09.jpg,AFNE14.jpg,AFNE14.jpg,FN,3,num_4,32,num_6,0.566669585416,,,2018_Feb_28_1323,60.0046767261,FEMA4ImagesEEG,001,103117,
AFNE01.JPG,AFNE01.JPG,AFNE01.JPG,AFNE01.JPG,AFNE01.JPG,AFNE01.JPG,5,2,52,6,,,,,,,,,,,,,,,,,,,,,,,AFNE19.jpg,AFSA09.jpg,AFSA18.jpg,AFNE08.jpg,AFSA09.jpg,FS,4,num_6,32,num_2,1.64980285789,,,2018_Feb_28_1323,60.0046767261,FEMA4ImagesEEG,001,103117,
AFNE01.JPG,AFNE01.JPG,AFNE01.JPG,AFNE01.JPG,AFNE01.JPG,AFNE01.JPG,5,3,53,3,,,,,,,,,,,,,,,,,,,,,,,AFSA01.jpg,AFNE02.jpg,AFSA16.jpg,AFNE10.jpg,AFSA01.jpg,FS,4,num_8,16,num_8,1.83339154755,,,2018_Feb_28_1323,60.0046767261,FEMA4ImagesEEG,001,103117,
AFNE01.JPG,AFNE01.JPG,AFNE01.JPG,AFNE01.JPG,AFNE01.JPG,AFNE01.JPG,5,4,54,9,,,,,,,,,,,,,,,,,,,,,,,AFNE06.jpg,AFSA20.jpg,AFSA04.jpg,AFNE13.jpg,AFSA04.jpg,FS,4,num_2,16,num_2,1.13346586272,,,2018_Feb_28_1323,60.0046767261,FEMA4ImagesEEG,001,103117,
AFNE01.JPG,AFNE01.JPG,AFNE01.JPG,AFNE01.JPG,AFNE01.JPG,AFNE01.JPG,5,5,55,4,,,,,,,,,,,,,,,,,,,,,,,AFSA15.jpg,AFSA02.jpg,AFNE03.jpg,AFNE10.jpg,AFNE03.jpg,FN,3,num_2,32,num_4,1.16675855836,,,2018_Feb_28_1323,60.0046767261,FEMA4ImagesEEG,001,103117,
AFNE01.JPG,AFNE01.JPG,AFNE01.JPG,AFNE01.JPG,AFNE01.JPG,AFNE01.JPG,5,6,56,8,,,,,,,,,,,,,,,,,,,,,,,AFSA11.jpg,AFNE18.jpg,AFNE17.jpg,AFSA12.jpg,AFSA11.jpg,FS,4,num_8,32,num_2,1.4334683324,,,2018_Feb_28_1323,60.0046767261,FEMA4ImagesEEG,001,103117,
AFNE01.JPG,AFNE01.JPG,AFNE01.JPG,AFNE01.JPG,AFNE01.JPG,AFNE01.JPG,5,7,57,2,,,,,,,,,,,,,,,,,,,,,,,AFSA13.jpg,AFSA04.jpg,AFNE01.jpg,AFNE20.jpg,AFNE01.jpg,FN,3,num_2,32,num_6,1.63343330764,,,2018_Feb_28_1323,60.0046767261,FEMA4ImagesEEG,001,103117,
AFNE01.JPG,AFNE01.JPG,AFNE01.JPG,AFNE01.JPG,AFNE01.JPG,AFNE01.JPG,5,8,58,5,,,,,,,,,,,,,,,,,,,,,,,AFNE14.jpg,AFSA15.jpg,AFNE18.jpg,AFSA13.jpg,AFNE18.jpg,FN,3,num_2,32,num_8,0.78347559704,,,2018_Feb_28_1323,60.0046767261,FEMA4ImagesEEG,001,103117,
AFNE01.JPG,AFNE01.JPG,AFNE01.JPG,AFNE01.JPG,AFNE01.JPG,AFNE01.JPG,5,9,59,7,,,,,,,,,,,,,,,,,,,,,,,AFSA04.jpg,AFNE06.jpg,AFSA01.jpg,AFNE18.jpg,AFNE18.jpg,FN,3,num_4,16,num_4,1.20011989214,,,2018_Feb_28_1323,60.0046767261,FEMA4ImagesEEG,001,103117,
,,,,,,,,,,,,,,,,,,,,,,,,,,,,,,,,,,,,,,,,,,,space,22.9480649984,2018_Feb_28_1323,60.0046767261,FEMA4ImagesEEG,001,103117,
AFNE01.JPG,AFNE01.JPG,AFNE01.JPG,AFNE01.JPG,AFNE01.JPG,AFNE01.JPG,,,,,0,0,0,1,,,,,,,,,,,,,,,,,,,AMSA04.jpg,AMNE15.jpg,AMNE10.jpg,AMSA16.jpg,AMNE15.jpg,MN,1,num_6,32,num_8,1.03346108366,,,2018_Feb_28_1323,60.0046767261,FEMA4ImagesEEG,001,103117,
AFNE01.JPG,AFNE01.JPG,AFNE01.JPG,AFNE01.JPG,AFNE01.JPG,AFNE01.JPG,,,,,0,1,1,0,,,,,,,,,,,,,,,,,,,AMSA03.jpg,AMSA04.jpg,AMNE17.jpg,AMNE07.jpg,AMSA03.jpg,MS,2,num_8,32,num_6,0.566825785208,,,2018_Feb_28_1323,60.0046767261,FEMA4ImagesEEG,001,103117,
AFNE01.JPG,AFNE01.JPG,AFNE01.JPG,AFNE01.JPG,AFNE01.JPG,AFNE01.JPG,,,,,0,2,2,5,,,,,,,,,,,,,,,,,,,AMNE04.jpg,AMNE03.jpg,AMSA15.jpg,AMSA03.jpg,AMNE04.jpg,MN,1,num_8,16,num_8,1.00014786061,,,2018_Feb_28_1323,60.0046767261,FEMA4ImagesEEG,001,103117,
AFNE01.JPG,AFNE01.JPG,AFNE01.JPG,AFNE01.JPG,AFNE01.JPG,AFNE01.JPG,,,,,0,3,3,6,,,,,,,,,,,,,,,,,,,AMSA03.jpg,AMNE15.jpg,AMNE19.jpg,AMSA08.jpg,AMSA08.jpg,MS,2,num_4,16,num_4,0.833524654037,,,2018_Feb_28_1323,60.0046767261,FEMA4ImagesEEG,001,103117,
AFNE01.JPG,AFNE01.JPG,AFNE01.JPG,AFNE01.JPG,AFNE01.JPG,AFNE01.JPG,,,,,0,4,4,4,,,,,,,,,,,,,,,,,,,AMSA04.jpg,AMSA17.jpg,AMNE06.jpg,AMNE10.jpg,AMNE10.jpg,MN,1,num_4,32,num_2,0.866746145766,,,2018_Feb_28_1323,60.0046767261,FEMA4ImagesEEG,001,103117,
AFNE01.JPG,AFNE01.JPG,AFNE01.JPG,AFNE01.JPG,AFNE01.JPG,AFNE01.JPG,,,,,0,5,5,7,,,,,,,,,,,,,,,,,,,AMSA08.jpg,AMNE15.jpg,AMNE09.jpg,AMSA18.jpg,AMNE15.jpg,MN,1,num_6,16,num_6,0.53364374442,,,2018_Feb_28_1323,60.0046767261,FEMA4ImagesEEG,001,103117,
AFNE01.JPG,AFNE01.JPG,AFNE01.JPG,AFNE01.JPG,AFNE01.JPG,AFNE01.JPG,,,,,0,6,6,2,,,,,,,,,,,,,,,,,,,AMNE18.jpg,AMSA10.jpg,AMNE01.jpg,AMSA15.jpg,AMNE01.jpg,MN,1,num_2,32,num_6,0.583465718315,,,2018_Feb_28_1323,60.0046767261,FEMA4ImagesEEG,001,103117,
AFNE01.JPG,AFNE01.JPG,AFNE01.JPG,AFNE01.JPG,AFNE01.JPG,AFNE01.JPG,,,,,0,7,7,8,,,,,,,,,,,,,,,,,,,AMSA18.jpg,AMNE16.jpg,AMSA20.jpg,AMNE11.jpg,AMNE11.jpg,MN,1,num_4,32,num_2,0.800155301695,,,2018_Feb_28_1323,60.0046767261,FEMA4ImagesEEG,001,103117,
AFNE01.JPG,AFNE01.JPG,AFNE01.JPG,AFNE01.JPG,AFNE01.JPG,AFNE01.JPG,,,,,0,8,8,3,,,,,,,,,,,,,,,,,,,AMSA01.jpg,AMNE20.jpg,AMNE16.jpg,AMSA10.jpg,AMNE20.jpg,MN,1,num_6,32,num_2,0.966841373243,,,2018_Feb_28_1323,60.0046767261,FEMA4ImagesEEG,001,103117,
AFNE01.JPG,AFNE01.JPG,AFNE01.JPG,AFNE01.JPG,AFNE01.JPG,AFNE01.JPG,,,,,0,9,9,9,,,,,,,,,,,,,,,,,,,AMSA08.jpg,AMSA20.jpg,AMNE19.jpg,AMNE20.jpg,AMNE20.jpg,MN,1,num_4,32,num_8,0.583506131428,,,2018_Feb_28_1323,60.0046767261,FEMA4ImagesEEG,001,103117,
AFNE01.JPG,AFNE01.JPG,AFNE01.JPG,AFNE01.JPG,AFNE01.JPG,AFNE01.JPG,,,,,1,0,10,1,,,,,,,,,,,,,,,,,,,AMSA12.jpg,AMNE02.jpg,AMSA03.jpg,AMNE18.jpg,AMNE18.jpg,MN,1,num_4,16,num_4,1.00015395472,,,2018_Feb_28_1323,60.0046767261,FEMA4ImagesEEG,001,103117,
AFNE01.JPG,AFNE01.JPG,AFNE01.JPG,AFNE01.JPG,AFNE01.JPG,AFNE01.JPG,,,,,1,1,11,7,,,,,,,,,,,,,,,,,,,AMNE04.jpg,AMSA08.jpg,AMSA06.jpg,AMNE07.jpg,AMNE07.jpg,MN,1,num_4,16,num_4,0.500174000859,,,2018_Feb_28_1323,60.0046767261,FEMA4ImagesEEG,001,103117,
AFNE01.JPG,AFNE01.JPG,AFNE01.JPG,AFNE01.JPG,AFNE01.JPG,AFNE01.JPG,,,,,1,2,12,4,,,,,,,,,,,,,,,,,,,AMNE15.jpg,AMNE08.jpg,AMSA11.jpg,AMSA01.jpg,AMNE08.jpg,MN,1,num_6,32,num_8,0.666815810255,,,2018_Feb_28_1323,60.0046767261,FEMA4ImagesEEG,001,103117,
AFNE01.JPG,AFNE01.JPG,AFNE01.JPG,AFNE01.JPG,AFNE01.JPG,AFNE01.JPG,,,,,1,3,13,0,,,,,,,,,,,,,,,,,,,AMSA10.jpg,AMSA11.jpg,AMNE09.jpg,AMNE08.jpg,AMNE08.jpg,MN,1,num_4,32,num_8,0.816790744429,,,2018_Feb_28_1323,60.0046767261,FEMA4ImagesEEG,001,103117,
AFNE01.JPG,AFNE01.JPG,AFNE01.JPG,AFNE01.JPG,AFNE01.JPG,AFNE01.JPG,,,,,1,4,14,6,,,,,,,,,,,,,,,,,,,AMSA08.jpg,AMSA11.jpg,AMNE12.jpg,AMNE13.jpg,AMNE13.jpg,MN,1,num_4,16,num_4,1.75008122716,,,2018_Feb_28_1323,60.0046767261,FEMA4ImagesEEG,001,103117,
AFNE01.JPG,AFNE01.JPG,AFNE01.JPG,AFNE01.JPG,AFNE01.JPG,AFNE01.JPG,,,,,1,5,15,2,,,,,,,,,,,,,,,,,,,AMSA09.jpg,AMSA07.jpg,AMNE12.jpg,AMNE16.jpg,AMNE12.jpg,MN,1,num_2,16,num_2,0.966780753457,,,2018_Feb_28_1323,60.0046767261,FEMA4ImagesEEG,001,103117,
AFNE01.JPG,AFNE01.JPG,AFNE01.JPG,AFNE01.JPG,AFNE01.JPG,AFNE01.JPG,,,,,1,6,16,3,,,,,,,,,,,,,,,,,,,AMSA15.jpg,AMNE05.jpg,AMSA11.jpg,AMNE13.jpg,AMSA15.jpg,MS,2,num_8,32,num_2,0.700137051754,,,2018_Feb_28_1323,60.0046767261,FEMA4ImagesEEG,001,103117,
AFNE01.JPG,AFNE01.JPG,AFNE01.JPG,AFNE01.JPG,AFNE01.JPG,AFNE01.JPG,,,,,1,7,17,8,,,,,,,,,,,,,,,,,,,AMNE03.jpg,AMSA11.jpg,AMSA15.jpg,AMNE13.jpg,AMSA15.jpg,MS,2,num_2,16,num_2,0.450176262064,,,2018_Feb_28_1323,60.0046767261,FEMA4ImagesEEG,001,103117,
AFNE01.JPG,AFNE01.JPG,AFNE01.JPG,AFNE01.JPG,AFNE01.JPG,AFNE01.JPG,,,,,1,8,18,5,,,,,,,,,,,,,,,,,,,AMNE18.jpg,AMNE04.jpg,AMSA13.jpg,AMSA06.jpg,AMNE04.jpg,MN,1,num_6,32,num_2,0.66683922417,,,2018_Feb_28_1323,60.0046767261,FEMA4ImagesEEG,001,103117,
AFNE01.JPG,AFNE01.JPG,AFNE01.JPG,AFNE01.JPG,AFNE01.JPG,AFNE01.JPG,,,,,1,9,19,9,,,,,,,,,,,,,,,,,,,AMNE03.jpg,AMNE20.jpg,AMSA08.jpg,AMSA20.jpg,AMSA20.jpg,MS,2,num_4,16,num_4,1.13339690375,,,2018_Feb_28_1323,60.0046767261,FEMA4ImagesEEG,001,103117,
AFNE01.JPG,AFNE01.JPG,AFNE01.JPG,AFNE01.JPG,AFNE01.JPG,AFNE01.JPG,,,,,2,0,20,9,,,,,,,,,,,,,,,,,,,AMNE18.jpg,AMSA12.jpg,AMSA05.jpg,AMNE08.jpg,AMNE18.jpg,MN,1,num_8,16,num_8,1.00008339214,,,2018_Feb_28_1323,60.0046767261,FEMA4ImagesEEG,001,103117,
AFNE01.JPG,AFNE01.JPG,AFNE01.JPG,AFNE01.JPG,AFNE01.JPG,AFNE01.JPG,,,,,2,1,21,1,,,,,,,,,,,,,,,,,,,AMSA11.jpg,AMNE10.jpg,AMNE19.jpg,AMSA07.jpg,AMSA07.jpg,MS,2,num_4,32,num_6,1.35015031428,,,2018_Feb_28_1323,60.0046767261,FEMA4ImagesEEG,001,103117,
AFNE01.JPG,AFNE01.JPG,AFNE01.JPG,AFNE01.JPG,AFNE01.JPG,AFNE01.JPG,,,,,2,2,22,5,,,,,,,,,,,,,,,,,,,AMNE15.jpg,AMSA16.jpg,AMNE08.jpg,AMSA20.jpg,AMNE08.jpg,MN,1,num_2,32,num_8,1.63338166871,,,2018_Feb_28_1323,60.0046767261,FEMA4ImagesEEG,001,103117,
AFNE01.JPG,AFNE01.JPG,AFNE01.JPG,AFNE01.JPG,AFNE01.JPG,AFNE01.JPG,,,,,2,3,23,3,,,,,,,,,,,,,,,,,,,AMNE20.jpg,AMNE02.jpg,AMSA05.jpg,AMSA10.jpg,AMNE20.jpg,MN,1,num_8,32,num_6,1.00012989924,,,2018_Feb_28_1323,60.0046767261,FEMA4ImagesEEG,001,103117,
AFNE01.JPG,AFNE01.JPG,AFNE01.JPG,AFNE01.JPG,AFNE01.JPG,AFNE01.JPG,,,,,2,4,24,0,,,,,,,,,,,,,,,,,,,AMSA05.jpg,AMSA16.jpg,AMNE04.jpg,AMNE10.jpg,AMSA05.jpg,MS,2,num_8,16,num_8,0.75013382826,,,2018_Feb_28_1323,60.0046767261,FEMA4ImagesEEG,001,103117,
AFNE01.JPG,AFNE01.JPG,AFNE01.JPG,AFNE01.JPG,AFNE01.JPG,AFNE01.JPG,,,,,2,5,25,7,,,,,,,,,,,,,,,,,,,AMSA01.jpg,AMNE16.jpg,AMSA08.jpg,AMNE18.jpg,AMSA08.jpg,MS,2,num_2,32,num_4,0.933470737888,,,2018_Feb_28_1323,60.0046767261,FEMA4ImagesEEG,001,103117,
AFNE01.JPG,AFNE01.JPG,AFNE01.JPG,AFNE01.JPG,AFNE01.JPG,AFNE01.JPG,,,,,2,6,26,8,,,,,,,,,,,,,,,,,,,AMNE06.jpg,AMNE01.jpg,AMSA16.jpg,AMSA10.jpg,AMNE06.jpg,MN,1,num_8,32,num_6,1.03345049929,,,2018_Feb_28_1323,60.0046767261,FEMA4ImagesEEG,001,103117,
AFNE01.JPG,AFNE01.JPG,AFNE01.JPG,AFNE01.JPG,AFNE01.JPG,AFNE01.JPG,,,,,2,7,27,4,,,,,,,,,,,,,,,,,,,AMSA20.jpg,AMNE04.jpg,AMNE11.jpg,AMSA06.jpg,AMNE11.jpg,MN,1,num_2,32,num_8,1.80013766105,,,2018_Feb_28_1323,60.0046767261,FEMA4ImagesEEG,001,103117,
AFNE01.JPG,AFNE01.JPG,AFNE01.JPG,AFNE01.JPG,AFNE01.JPG,AFNE01.JPG,,,,,2,8,28,6,,,,,,,,,,,,,,,,,,,AMSA16.jpg,AMNE10.jpg,AMSA19.jpg,AMNE02.jpg,AMSA19.jpg,MS,2,num_2,16,num_2,1.30009259726,,,2018_Feb_28_1323,60.0046767261,FEMA4ImagesEEG,001,103117,
AFNE01.JPG,AFNE01.JPG,AFNE01.JPG,AFNE01.JPG,AFNE01.JPG,AFNE01.JPG,,,,,2,9,29,2,,,,,,,,,,,,,,,,,,,AMNE05.jpg,AMSA06.jpg,AMNE17.jpg,AMSA03.jpg,AMSA06.jpg,MS,2,num_6,16,num_6,0.383505554055,,,2018_Feb_28_1323,60.0046767261,FEMA4ImagesEEG,001,103117,
AFNE01.JPG,AFNE01.JPG,AFNE01.JPG,AFNE01.JPG,AFNE01.JPG,AFNE01.JPG,,,,,3,0,30,3,,,,,,,,,,,,,,,,,,,AMSA15.jpg,AMNE13.jpg,AMSA04.jpg,AMNE18.jpg,AMSA15.jpg,MS,2,num_8,16,num_8,0.933492868906,,,2018_Feb_28_1323,60.0046767261,FEMA4ImagesEEG,001,103117,
AFNE01.JPG,AFNE01.JPG,AFNE01.JPG,AFNE01.JPG,AFNE01.JPG,AFNE01.JPG,,,,,3,1,31,7,,,,,,,,,,,,,,,,,,,AMNE03.jpg,AMSA09.jpg,AMNE09.jpg,AMSA17.jpg,AMSA17.jpg,MS,2,num_4,16,num_4,1.333127419,,,2018_Feb_28_1323,60.0046767261,FEMA4ImagesEEG,001,103117,
AFNE01.JPG,AFNE01.JPG,AFNE01.JPG,AFNE01.JPG,AFNE01.JPG,AFNE01.JPG,,,,,3,2,32,6,,,,,,,,,,,,,,,,,,,AMNE13.jpg,AMNE07.jpg,AMSA03.jpg,AMSA10.jpg,AMNE13.jpg,MN,1,num_8,16,num_8,1.10012441466,,,2018_Feb_28_1323,60.0046767261,FEMA4ImagesEEG,001,103117,
AFNE01.JPG,AFNE01.JPG,AFNE01.JPG,AFNE01.JPG,AFNE01.JPG,AFNE01.JPG,,,,,3,3,33,4,,,,,,,,,,,,,,,,,,,AMSA17.jpg,AMNE09.jpg,AMSA20.jpg,AMNE02.jpg,AMSA17.jpg,MS,2,num_8,32,num_6,1.65003443137,,,2018_Feb_28_1323,60.0046767261,FEMA4ImagesEEG,001,103117,
AFNE01.JPG,AFNE01.JPG,AFNE01.JPG,AFNE01.JPG,AFNE01.JPG,AFNE01.JPG,,,,,3,4,34,8,,,,,,,,,,,,,,,,,,,AMNE18.jpg,AMNE06.jpg,AMSA08.jpg,AMSA01.jpg,AMSA08.jpg,MS,2,num_2,32,num_8,0.650439203833,,,2018_Feb_28_1323,60.0046767261,FEMA4ImagesEEG,001,103117,
AFNE01.JPG,AFNE01.JPG,AFNE01.JPG,AFNE01.JPG,AFNE01.JPG,AFNE01.JPG,,,,,3,5,35,9,,,,,,,,,,,,,,,,,,,AMNE13.jpg,AMNE02.jpg,AMSA20.jpg,AMSA03.jpg,AMNE02.jpg,MN,1,num_6,16,num_6,0.633497776114,,,2018_Feb_28_1323,60.0046767261,FEMA4ImagesEEG,001,103117,
AFNE01.JPG,AFNE01.JPG,AFNE01.JPG,AFNE01.JPG,AFNE01.JPG,AFNE01.JPG,,,,,3,6,36,5,,,,,,,,,,,,,,,,,,,AMNE05.jpg,AMSA03.jpg,AMNE02.jpg,AMSA19.jpg,AMSA03.jpg,MS,2,num_6,32,num_8,1.25007850083,,,2018_Feb_28_1323,60.0046767261,FEMA4ImagesEEG,001,103117,
AFNE01.JPG,AFNE01.JPG,AFNE01.JPG,AFNE01.JPG,AFNE01.JPG,AFNE01.JPG,,,,,3,7,37,0,,,,,,,,,,,,,,,,,,,AMSA05.jpg,AMNE15.jpg,AMSA17.jpg,AMNE07.jpg,AMNE15.jpg,MN,1,num_6,32,num_4,1.0167130616,,,2018_Feb_28_1323,60.0046767261,FEMA4ImagesEEG,001,103117,
AFNE01.JPG,AFNE01.JPG,AFNE01.JPG,AFNE01.JPG,AFNE01.JPG,AFNE01.JPG,,,,,3,8,38,2,,,,,,,,,,,,,,,,,,,AMNE08.jpg,AMSA13.jpg,AMSA18.jpg,AMNE05.jpg,AMSA18.jpg,MS,2,num_2,32,num_4,1.30006276851,,,2018_Feb_28_1323,60.0046767261,FEMA4ImagesEEG,001,103117,
AFNE01.JPG,AFNE01.JPG,AFNE01.JPG,AFNE01.JPG,AFNE01.JPG,AFNE01.JPG,,,,,3,9,39,1,,,,,,,,,,,,,,,,,,,AMNE05.jpg,AMNE19.jpg,AMSA11.jpg,AMSA01.jpg,AMNE05.jpg,MN,1,num_8,16,num_8,1.05013790168,,,2018_Feb_28_1323,60.0046767261,FEMA4ImagesEEG,001,103117,
AFNE01.JPG,AFNE01.JPG,AFNE01.JPG,AFNE01.JPG,AFNE01.JPG,AFNE01.JPG,,,,,4,0,40,4,,,,,,,,,,,,,,,,,,,AMNE12.jpg,AMNE06.jpg,AMSA06.jpg,AMSA08.jpg,AMSA06.jpg,MS,2,num_2,32,num_6,0.733516988461,,,2018_Feb_28_1323,60.0046767261,FEMA4ImagesEEG,001,103117,
AFNE01.JPG,AFNE01.JPG,AFNE01.JPG,AFNE01.JPG,AFNE01.JPG,AFNE01.JPG,,,,,4,1,41,7,,,,,,,,,,,,,,,,,,,AMSA18.jpg,AMSA10.jpg,AMNE07.jpg,AMNE04.jpg,AMSA10.jpg,MS,2,num_6,32,num_8,1.4667347275,,,2018_Feb_28_1323,60.0046767261,FEMA4ImagesEEG,001,103117,
AFNE01.JPG,AFNE01.JPG,AFNE01.JPG,AFNE01.JPG,AFNE01.JPG,AFNE01.JPG,,,,,4,2,42,2,,,,,,,,,,,,,,,,,,,AMSA11.jpg,AMNE10.jpg,AMSA16.jpg,AMNE18.jpg,AMNE10.jpg,MN,1,num_6,32,num_4,1.06675281713,,,2018_Feb_28_1323,60.0046767261,FEMA4ImagesEEG,001,103117,
AFNE01.JPG,AFNE01.JPG,AFNE01.JPG,AFNE01.JPG,AFNE01.JPG,AFNE01.JPG,,,,,4,3,43,1,,,,,,,,,,,,,,,,,,,AMSA02.jpg,AMSA08.jpg,AMNE03.jpg,AMNE12.jpg,AMNE12.jpg,MN,1,num_4,32,num_6,1.56679563574,,,2018_Feb_28_1323,60.0046767261,FEMA4ImagesEEG,001,103117,
AFNE01.JPG,AFNE01.JPG,AFNE01.JPG,AFNE01.JPG,AFNE01.JPG,AFNE01.JPG,,,,,4,4,44,0,,,,,,,,,,,,,,,,,,,AMNE14.jpg,AMSA19.jpg,AMNE13.jpg,AMSA04.jpg,AMSA04.jpg,MS,2,num_4,32,num_8,0.633483022219,,,2018_Feb_28_1323,60.0046767261,FEMA4ImagesEEG,001,103117,
AFNE01.JPG,AFNE01.JPG,AFNE01.JPG,AFNE01.JPG,AFNE01.JPG,AFNE01.JPG,,,,,4,5,45,5,,,,,,,,,,,,,,,,,,,AMSA20.jpg,AMNE04.jpg,AMSA18.jpg,AMNE02.jpg,AMSA20.jpg,MS,2,num_8,32,num_6,1.21679446509,,,2018_Feb_28_1323,60.0046767261,FEMA4ImagesEEG,001,103117,
AFNE01.JPG,AFNE01.JPG,AFNE01.JPG,AFNE01.JPG,AFNE01.JPG,AFNE01.JPG,,,,,4,6,46,9,,,,,,,,,,,,,,,,,,,AMNE02.jpg,AMSA02.jpg,AMNE20.jpg,AMSA04.jpg,AMSA02.jpg,MS,2,num_6,32,num_2,0.666816772427,,,2018_Feb_28_1323,60.0046767261,FEMA4ImagesEEG,001,103117,
AFNE01.JPG,AFNE01.JPG,AFNE01.JPG,AFNE01.JPG,AFNE01.JPG,AFNE01.JPG,,,,,4,7,47,6,,,,,,,,,,,,,,,,,,,AMNE10.jpg,AMNE11.jpg,AMSA08.jpg,AMSA01.jpg,AMSA08.jpg,MS,2,num_2,32,num_8,0.283572620596,,,2018_Feb_28_1323,60.0046767261,FEMA4ImagesEEG,001,103117,
AFNE01.JPG,AFNE01.JPG,AFNE01.JPG,AFNE01.JPG,AFNE01.JPG,AFNE01.JPG,,,,,4,8,48,8,,,,,,,,,,,,,,,,,,,AMSA15.jpg,AMSA13.jpg,AMNE04.jpg,AMNE02.jpg,AMSA15.jpg,MS,2,num_8,32,num_6,0.816797480104,,,2018_Feb_28_1323,60.0046767261,FEMA4ImagesEEG,001,103117,
AFNE01.JPG,AFNE01.JPG,AFNE01.JPG,AFNE01.JPG,AFNE01.JPG,AFNE01.JPG,,,,,4,9,49,3,,,,,,,,,,,,,,,,,,,AMNE07.jpg,AMSA01.jpg,AMSA03.jpg,AMNE01.jpg,AMNE01.jpg,MN,1,num_4,32,num_8,0.966778508271,,,2018_Feb_28_1323,60.0046767261,FEMA4ImagesEEG,001,103117,
AFNE01.JPG,AFNE01.JPG,AFNE01.JPG,AFNE01.JPG,AFNE01.JPG,AFNE01.JPG,,,,,5,0,50,6,,,,,,,,,,,,,,,,,,,AMSA15.jpg,AMNE20.jpg,AMSA11.jpg,AMNE02.jpg,AMNE20.jpg,MN,1,num_6,16,num_6,1.15013819037,,,2018_Feb_28_1323,60.0046767261,FEMA4ImagesEEG,001,103117,
AFNE01.JPG,AFNE01.JPG,AFNE01.JPG,AFNE01.JPG,AFNE01.JPG,AFNE01.JPG,,,,,5,1,51,0,,,,,,,,,,,,,,,,,,,AMSA20.jpg,AMSA16.jpg,AMNE20.jpg,AMNE12.jpg,AMNE12.jpg,MN,1,num_4,32,num_8,2.78331169952,,,2018_Feb_28_1323,60.0046767261,FEMA4ImagesEEG,001,103117,
AFNE01.JPG,AFNE01.JPG,AFNE01.JPG,AFNE01.JPG,AFNE01.JPG,AFNE01.JPG,,,,,5,2,52,8,,,,,,,,,,,,,,,,,,,AMNE18.jpg,AMSA15.jpg,AMSA13.jpg,AMNE04.jpg,AMNE04.jpg,MN,1,num_4,16,num_4,1.70014474948,,,2018_Feb_28_1323,60.0046767261,FEMA4ImagesEEG,001,103117,
AFNE01.JPG,AFNE01.JPG,AFNE01.JPG,AFNE01.JPG,AFNE01.JPG,AFNE01.JPG,,,,,5,3,53,1,,,,,,,,,,,,,,,,,,,AMNE20.jpg,AMNE03.jpg,AMSA11.jpg,AMSA18.jpg,AMSA11.jpg,MS,2,num_2,32,num_4,1.40010411176,,,2018_Feb_28_1323,60.0046767261,FEMA4ImagesEEG,001,103117,
AFNE01.JPG,AFNE01.JPG,AFNE01.JPG,AFNE01.JPG,AFNE01.JPG,AFNE01.JPG,,,,,5,4,54,2,,,,,,,,,,,,,,,,,,,AMNE04.jpg,AMSA03.jpg,AMNE19.jpg,AMSA13.jpg,AMNE19.jpg,MN,1,num_2,32,num_8,1.43345838937,,,2018_Feb_28_1323,60.0046767261,FEMA4ImagesEEG,001,103117,
AFNE01.JPG,AFNE01.JPG,AFNE01.JPG,AFNE01.JPG,AFNE01.JPG,AFNE01.JPG,,,,,5,5,55,9,,,,,,,,,,,,,,,,,,,AMNE11.jpg,AMSA15.jpg,AMNE17.jpg,AMSA05.jpg,AMNE17.jpg,MN,1,num_2,32,num_6,2.08339275024,,,2018_Feb_28_1323,60.0046767261,FEMA4ImagesEEG,001,103117,
AFNE01.JPG,AFNE01.JPG,AFNE01.JPG,AFNE01.JPG,AFNE01.JPG,AFNE01.JPG,,,,,5,6,56,7,,,,,,,,,,,,,,,,,,,AMSA03.jpg,AMNE13.jpg,AMSA18.jpg,AMNE16.jpg,AMNE16.jpg,MN,1,num_4,16,num_4,1.28343855171,,,2018_Feb_28_1323,60.0046767261,FEMA4ImagesEEG,001,103117,
AFNE01.JPG,AFNE01.JPG,AFNE01.JPG,AFNE01.JPG,AFNE01.JPG,AFNE01.JPG,,,,,5,7,57,4,,,,,,,,,,,,,,,,,,,AMSA10.jpg,AMNE01.jpg,AMNE15.jpg,AMSA07.jpg,AMNE15.jpg,MN,1,num_2,16,num_2,1.91675799713,,,2018_Feb_28_1323,60.0046767261,FEMA4ImagesEEG,001,103117,
AFNE01.JPG,AFNE01.JPG,AFNE01.JPG,AFNE01.JPG,AFNE01.JPG,AFNE01.JPG,,,,,5,8,58,5,,,,,,,,,,,,,,,,,,,AMNE09.jpg,AMSA07.jpg,AMSA15.jpg,AMNE10.jpg,AMNE09.jpg,MN,1,num_8,32,num_4,1.08344599279,,,2018_Feb_28_1323,60.0046767261,FEMA4ImagesEEG,001,103117,
AFNE01.JPG,AFNE01.JPG,AFNE01.JPG,AFNE01.JPG,AFNE01.JPG,AFNE01.JPG,,,,,5,9,59,3,,,,,,,,,,,,,,,,,,,AMNE07.jpg,AMSA14.jpg,AMNE16.jpg,AMSA17.jpg,AMNE07.jpg,MN,1,num_8,16,num_8,1.88338511658,,,2018_Feb_28_1323,60.0046767261,FEMA4ImagesEEG,001,103117,
,,,,,,,,,,,,,,,,,,,,,,,,,,,,,,,,,,,,,,,,,,,space,30.1477695338,2018_Feb_28_1323,60.0046767261,FEMA4ImagesEEG,001,103117,
AFNE01.JPG,AFNE01.JPG,AFNE01.JPG,AFNE01.JPG,AFNE01.JPG,AFNE01.JPG,,,,,,,,,0,0,0,5,,,,,,,,,,,,,,,AFSA14.jpg,AFNE15.jpg,AFSA10.jpg,AFNE18.jpg,AFSA10.jpg,FS,4,num_2,48,None,,,,2018_Feb_28_1323,60.0046767261,FEMA4ImagesEEG,001,103117,
AFNE01.JPG,AFNE01.JPG,AFNE01.JPG,AFNE01.JPG,AFNE01.JPG,AFNE01.JPG,,,,,,,,,0,1,1,1,,,,,,,,,,,,,,,AFSA19.jpg,AFSA06.jpg,AFNE11.jpg,AFNE17.jpg,AFNE11.jpg,FN,3,num_2,16,num_2,1.76658965729,,,2018_Feb_28_1323,60.0046767261,FEMA4ImagesEEG,001,103117,
AFNE01.JPG,AFNE01.JPG,AFNE01.JPG,AFNE01.JPG,AFNE01.JPG,AFNE01.JPG,,,,,,,,,0,2,2,4,,,,,,,,,,,,,,,AFSA18.jpg,AFNE05.jpg,AFSA06.jpg,AFNE08.jpg,AFNE05.jpg,FN,3,num_6,16,num_6,1.06677238224,,,2018_Feb_28_1323,60.0046767261,FEMA4ImagesEEG,001,103117,
AFNE01.JPG,AFNE01.JPG,AFNE01.JPG,AFNE01.JPG,AFNE01.JPG,AFNE01.JPG,,,,,,,,,0,3,3,8,,,,,,,,,,,,,,,AFNE06.jpg,AFNE15.jpg,AFSA13.jpg,AFSA15.jpg,AFSA13.jpg,FS,4,num_2,32,num_8,0.566742072464,,,2018_Feb_28_1323,60.0046767261,FEMA4ImagesEEG,001,103117,
AFNE01.JPG,AFNE01.JPG,AFNE01.JPG,AFNE01.JPG,AFNE01.JPG,AFNE01.JPG,,,,,,,,,0,4,4,6,,,,,,,,,,,,,,,AFSA11.jpg,AFNE20.jpg,AFNE05.jpg,AFSA15.jpg,AFSA11.jpg,FS,4,num_8,32,num_6,1.50005821418,,,2018_Feb_28_1323,60.0046767261,FEMA4ImagesEEG,001,103117,
AFNE01.JPG,AFNE01.JPG,AFNE01.JPG,AFNE01.JPG,AFNE01.JPG,AFNE01.JPG,,,,,,,,,0,5,5,0,,,,,,,,,,,,,,,AFNE04.jpg,AFNE07.jpg,AFSA07.jpg,AFSA18.jpg,AFSA18.jpg,FS,4,num_4,16,num_4,2.05005899991,,,2018_Feb_28_1323,60.0046767261,FEMA4ImagesEEG,001,103117,
AFNE01.JPG,AFNE01.JPG,AFNE01.JPG,AFNE01.JPG,AFNE01.JPG,AFNE01.JPG,,,,,,,,,0,6,6,3,,,,,,,,,,,,,,,AFNE18.jpg,AFSA03.jpg,AFSA19.jpg,AFNE02.jpg,AFNE02.jpg,FN,3,num_4,48,None,,,,2018_Feb_28_1323,60.0046767261,FEMA4ImagesEEG,001,103117,
AFNE01.JPG,AFNE01.JPG,AFNE01.JPG,AFNE01.JPG,AFNE01.JPG,AFNE01.JPG,,,,,,,,,0,7,7,2,,,,,,,,,,,,,,,AFSA10.jpg,AFSA16.jpg,AFNE12.jpg,AFNE01.jpg,AFSA10.jpg,FS,4,num_8,32,num_6,0.766820589313,,,2018_Feb_28_1323,60.0046767261,FEMA4ImagesEEG,001,103117,
AFNE01.JPG,AFNE01.JPG,AFNE01.JPG,AFNE01.JPG,AFNE01.JPG,AFNE01.JPG,,,,,,,,,0,8,8,9,,,,,,,,,,,,,,,AFNE14.jpg,AFSA16.jpg,AFNE17.jpg,AFSA15.jpg,AFNE14.jpg,FN,3,num_8,32,num_6,0.700133523555,,,2018_Feb_28_1323,60.0046767261,FEMA4ImagesEEG,001,103117,
AFNE01.JPG,AFNE01.JPG,AFNE01.JPG,AFNE01.JPG,AFNE01.JPG,AFNE01.JPG,,,,,,,,,0,9,9,7,,,,,,,,,,,,,,,AFSA03.jpg,AFNE08.jpg,AFNE06.jpg,AFSA17.jpg,AFNE06.jpg,FN,3,num_2,32,num_6,0.466896700673,,,2018_Feb_28_1323,60.0046767261,FEMA4ImagesEEG,001,103117,
AFNE01.JPG,AFNE01.JPG,AFNE01.JPG,AFNE01.JPG,AFNE01.JPG,AFNE01.JPG,,,,,,,,,1,0,10,1,,,,,,,,,,,,,,,AFNE20.jpg,AFSA02.jpg,AFNE12.jpg,AFSA09.jpg,AFSA02.jpg,FS,4,num_6,32,num_2,1.13351236971,,,2018_Feb_28_1323,60.0046767261,FEMA4ImagesEEG,001,103117,
AFNE01.JPG,AFNE01.JPG,AFNE01.JPG,AFNE01.JPG,AFNE01.JPG,AFNE01.JPG,,,,,,,,,1,1,11,2,,,,,,,,,,,,,,,AFNE07.jpg,AFSA06.jpg,AFNE09.jpg,AFSA08.jpg,AFNE07.jpg,FN,3,num_8,16,num_8,1.00015619991,,,2018_Feb_28_1323,60.0046767261,FEMA4ImagesEEG,001,103117,
AFNE01.JPG,AFNE01.JPG,AFNE01.JPG,AFNE01.JPG,AFNE01.JPG,AFNE01.JPG,,,,,,,,,1,2,12,3,,,,,,,,,,,,,,,AFNE14.jpg,AFSA16.jpg,AFSA01.jpg,AFNE15.jpg,AFNE15.jpg,FN,3,num_4,48,None,,,,2018_Feb_28_1323,60.0046767261,FEMA4ImagesEEG,001,103117,
AFNE01.JPG,AFNE01.JPG,AFNE01.JPG,AFNE01.JPG,AFNE01.JPG,AFNE01.JPG,,,,,,,,,1,3,13,7,,,,,,,,,,,,,,,AFNE05.jpg,AFSA07.jpg,AFNE02.jpg,AFSA19.jpg,AFNE02.jpg,FN,3,num_2,32,num_6,2.15002432815,,,2018_Feb_28_1323,60.0046767261,FEMA4ImagesEEG,001,103117,
AFNE01.JPG,AFNE01.JPG,AFNE01.JPG,AFNE01.JPG,AFNE01.JPG,AFNE01.JPG,,,,,,,,,1,4,14,8,,,,,,,,,,,,,,,AFNE16.jpg,AFNE02.jpg,AFSA14.jpg,AFSA19.jpg,AFNE16.jpg,FN,3,num_8,16,num_8,0.483464467456,,,2018_Feb_28_1323,60.0046767261,FEMA4ImagesEEG,001,103117,
AFNE01.JPG,AFNE01.JPG,AFNE01.JPG,AFNE01.JPG,AFNE01.JPG,AFNE01.JPG,,,,,,,,,1,5,15,4,,,,,,,,,,,,,,,AFSA07.jpg,AFNE12.jpg,AFNE17.jpg,AFSA09.jpg,AFNE12.jpg,FN,3,num_6,32,num_4,0.566472331062,,,2018_Feb_28_1323,60.0046767261,FEMA4ImagesEEG,001,103117,
AFNE01.JPG,AFNE01.JPG,AFNE01.JPG,AFNE01.JPG,AFNE01.JPG,AFNE01.JPG,,,,,,,,,1,6,16,0,,,,,,,,,,,,,,,AFNE15.jpg,AFSA16.jpg,AFNE07.jpg,AFSA04.jpg,AFNE07.jpg,FN,3,num_2,32,num_6,1.15011445573,,,2018_Feb_28_1323,60.0046767261,FEMA4ImagesEEG,001,103117,
AFNE01.JPG,AFNE01.JPG,AFNE01.JPG,AFNE01.JPG,AFNE01.JPG,AFNE01.JPG,,,,,,,,,1,7,17,5,,,,,,,,,,,,,,,AFNE15.jpg,AFNE07.jpg,AFSA12.jpg,AFSA14.jpg,AFNE15.jpg,FN,3,num_8,32,num_2,1.26679893944,,,2018_Feb_28_1323,60.0046767261,FEMA4ImagesEEG,001,103117,
AFNE01.JPG,AFNE01.JPG,AFNE01.JPG,AFNE01.JPG,AFNE01.JPG,AFNE01.JPG,,,,,,,,,1,8,18,6,,,,,,,,,,,,,,,AFSA03.jpg,AFSA15.jpg,AFNE13.jpg,AFNE14.jpg,AFNE13.jpg,FN,3,num_2,16,num_2,0.58344743622,,,2018_Feb_28_1323,60.0046767261,FEMA4ImagesEEG,001,103117,
AFNE01.JPG,AFNE01.JPG,AFNE01.JPG,AFNE01.JPG,AFNE01.JPG,AFNE01.JPG,,,,,,,,,1,9,19,9,,,,,,,,,,,,,,,AFNE16.jpg,AFNE08.jpg,AFSA15.jpg,AFSA16.jpg,AFNE08.jpg,FN,3,num_6,32,num_8,1.01681281126,,,2018_Feb_28_1323,60.0046767261,FEMA4ImagesEEG,001,103117,
AFNE01.JPG,AFNE01.JPG,AFNE01.JPG,AFNE01.JPG,AFNE01.JPG,AFNE01.JPG,,,,,,,,,2,0,20,8,,,,,,,,,,,,,,,AFNE07.jpg,AFSA11.jpg,AFNE18.jpg,AFSA08.jpg,AFNE07.jpg,FN,3,num_8,16,num_8,0.533467338071,,,2018_Feb_28_1323,60.0046767261,FEMA4ImagesEEG,001,103117,
AFNE01.JPG,AFNE01.JPG,AFNE01.JPG,AFNE01.JPG,AFNE01.JPG,AFNE01.JPG,,,,,,,,,2,1,21,7,,,,,,,,,,,,,,,AFNE20.jpg,AFSA07.jpg,AFSA10.jpg,AFNE15.jpg,AFSA10.jpg,FS,4,num_2,16,num_2,1.21674346761,,,2018_Feb_28_1323,60.0046767261,FEMA4ImagesEEG,001,103117,
AFNE01.JPG,AFNE01.JPG,AFNE01.JPG,AFNE01.JPG,AFNE01.JPG,AFNE01.JPG,,,,,,,,,2,2,22,4,,,,,,,,,,,,,,,AFSA19.jpg,AFSA06.jpg,AFNE12.jpg,AFNE19.jpg,AFNE19.jpg,FN,3,num_4,32,num_8,0.50015539804,,,2018_Feb_28_1323,60.0046767261,FEMA4ImagesEEG,001,103117,
AFNE01.JPG,AFNE01.JPG,AFNE01.JPG,AFNE01.JPG,AFNE01.JPG,AFNE01.JPG,,,,,,,,,2,3,23,6,,,,,,,,,,,,,,,AFNE07.jpg,AFSA15.jpg,AFSA16.jpg,AFNE16.jpg,AFSA16.jpg,FS,4,num_2,16,num_2,0.733447388164,,,2018_Feb_28_1323,60.0046767261,FEMA4ImagesEEG,001,103117,
AFNE01.JPG,AFNE01.JPG,AFNE01.JPG,AFNE01.JPG,AFNE01.JPG,AFNE01.JPG,,,,,,,,,2,4,24,5,,,,,,,,,,,,,,,AFNE19.jpg,AFSA06.jpg,AFSA19.jpg,AFNE02.jpg,AFSA19.jpg,FS,4,num_2,16,num_2,0.550172060379,,,2018_Feb_28_1323,60.0046767261,FEMA4ImagesEEG,001,103117,
AFNE01.JPG,AFNE01.JPG,AFNE01.JPG,AFNE01.JPG,AFNE01.JPG,AFNE01.JPG,,,,,,,,,2,5,25,0,,,,,,,,,,,,,,,AFNE17.jpg,AFSA16.jpg,AFNE06.jpg,AFSA15.jpg,AFSA16.jpg,FS,4,num_6,32,num_2,1.13343443023,,,2018_Feb_28_1323,60.0046767261,FEMA4ImagesEEG,001,103117,
AFNE01.JPG,AFNE01.JPG,AFNE01.JPG,AFNE01.JPG,AFNE01.JPG,AFNE01.JPG,,,,,,,,,2,6,26,1,,,,,,,,,,,,,,,AFSA16.jpg,AFNE06.jpg,AFSA20.jpg,AFNE16.jpg,AFNE16.jpg,FN,3,num_4,32,num_2,1.36659748328,,,2018_Feb_28_1323,60.0046767261,FEMA4ImagesEEG,001,103117,
AFNE01.JPG,AFNE01.JPG,AFNE01.JPG,AFNE01.JPG,AFNE01.JPG,AFNE01.JPG,,,,,,,,,2,7,27,9,,,,,,,,,,,,,,,AFSA19.jpg,AFNE02.jpg,AFSA15.jpg,AFNE03.jpg,AFSA15.jpg,FS,4,num_2,32,num_8,0.583472133032,,,2018_Feb_28_1323,60.0046767261,FEMA4ImagesEEG,001,103117,
AFNE01.JPG,AFNE01.JPG,AFNE01.JPG,AFNE01.JPG,AFNE01.JPG,AFNE01.JPG,,,,,,,,,2,8,28,3,,,,,,,,,,,,,,,AFSA14.jpg,AFNE04.jpg,AFSA13.jpg,AFNE17.jpg,AFSA14.jpg,FS,4,num_8,32,num_6,1.75008090632,,,2018_Feb_28_1323,60.0046767261,FEMA4ImagesEEG,001,103117,
AFNE01.JPG,AFNE01.JPG,AFNE01.JPG,AFNE01.JPG,AFNE01.JPG,AFNE01.JPG,,,,,,,,,2,9,29,2,,,,,,,,,,,,,,,AFSA16.jpg,AFSA03.jpg,AFNE11.jpg,AFNE04.jpg,AFNE04.jpg,FN,3,num_4,32,num_8,0.883506355924,,,2018_Feb_28_1323,60.0046767261,FEMA4ImagesEEG,001,103117,
AFNE01.JPG,AFNE01.JPG,AFNE01.JPG,AFNE01.JPG,AFNE01.JPG,AFNE01.JPG,,,,,,,,,3,0,30,7,,,,,,,,,,,,,,,AFSA07.jpg,AFSA10.jpg,AFNE02.jpg,AFNE15.jpg,AFNE02.jpg,FN,3,num_2,16,num_2,1.73338965501,,,2018_Feb_28_1323,60.0046767261,FEMA4ImagesEEG,001,103117,
AFNE01.JPG,AFNE01.JPG,AFNE01.JPG,AFNE01.JPG,AFNE01.JPG,AFNE01.JPG,,,,,,,,,3,1,31,3,,,,,,,,,,,,,,,AFNE11.jpg,AFNE04.jpg,AFSA07.jpg,AFSA17.jpg,AFNE11.jpg,FN,3,num_8,16,num_8,1.0502418211,,,2018_Feb_28_1323,60.0046767261,FEMA4ImagesEEG,001,103117,
AFNE01.JPG,AFNE01.JPG,AFNE01.JPG,AFNE01.JPG,AFNE01.JPG,AFNE01.JPG,,,,,,,,,3,2,32,0,,,,,,,,,,,,,,,AFNE04.jpg,AFSA19.jpg,AFNE06.jpg,AFSA04.jpg,AFNE04.jpg,FN,3,num_8,32,num_4,0.7501440919,,,2018_Feb_28_1323,60.0046767261,FEMA4ImagesEEG,001,103117,
AFNE01.JPG,AFNE01.JPG,AFNE01.JPG,AFNE01.JPG,AFNE01.JPG,AFNE01.JPG,,,,,,,,,3,3,33,2,,,,,,,,,,,,,,,AFSA10.jpg,AFSA05.jpg,AFNE10.jpg,AFNE20.jpg,AFSA10.jpg,FS,4,num_8,32,num_6,0.866779181873,,,2018_Feb_28_1323,60.0046767261,FEMA4ImagesEEG,001,103117,
AFNE01.JPG,AFNE01.JPG,AFNE01.JPG,AFNE01.JPG,AFNE01.JPG,AFNE01.JPG,,,,,,,,,3,4,34,9,,,,,,,,,,,,,,,AFSA06.jpg,AFNE17.jpg,AFNE10.jpg,AFSA10.jpg,AFSA06.jpg,FS,4,num_8,16,num_8,0.60018968489,,,2018_Feb_28_1323,60.0046767261,FEMA4ImagesEEG,001,103117,
AFNE01.JPG,AFNE01.JPG,AFNE01.JPG,AFNE01.JPG,AFNE01.JPG,AFNE01.JPG,,,,,,,,,3,5,35,4,,,,,,,,,,,,,,,AFNE18.jpg,AFSA01.jpg,AFSA15.jpg,AFNE06.jpg,AFNE18.jpg,FN,3,num_8,32,num_4,0.683512834832,,,2018_Feb_28_1323,60.0046767261,FEMA4ImagesEEG,001,103117,
AFNE01.JPG,AFNE01.JPG,AFNE01.JPG,AFNE01.JPG,AFNE01.JPG,AFNE01.JPG,,,,,,,,,3,6,36,8,,,,,,,,,,,,,,,AFSA16.jpg,AFSA13.jpg,AFNE17.jpg,AFNE18.jpg,AFNE17.jpg,FN,3,num_2,32,num_8,1.5167828222,,,2018_Feb_28_1323,60.0046767261,FEMA4ImagesEEG,001,103117,
AFNE01.JPG,AFNE01.JPG,AFNE01.JPG,AFNE01.JPG,AFNE01.JPG,AFNE01.JPG,,,,,,,,,3,7,37,1,,,,,,,,,,,,,,,AFSA10.jpg,AFSA17.jpg,AFNE08.jpg,AFNE20.jpg,AFSA17.jpg,FS,4,num_6,16,num_6,0.716795587679,,,2018_Feb_28_1323,60.0046767261,FEMA4ImagesEEG,001,103117,
AFNE01.JPG,AFNE01.JPG,AFNE01.JPG,AFNE01.JPG,AFNE01.JPG,AFNE01.JPG,,,,,,,,,3,8,38,6,,,,,,,,,,,,,,,AFSA14.jpg,AFNE01.jpg,AFSA18.jpg,AFNE07.jpg,AFSA18.jpg,FS,4,num_2,32,num_4,0.700170408469,,,2018_Feb_28_1323,60.0046767261,FEMA4ImagesEEG,001,103117,
AFNE01.JPG,AFNE01.JPG,AFNE01.JPG,AFNE01.JPG,AFNE01.JPG,AFNE01.JPG,,,,,,,,,3,9,39,5,,,,,,,,,,,,,,,AFSA20.jpg,AFNE11.jpg,AFNE05.jpg,AFSA17.jpg,AFNE11.jpg,FN,3,num_6,32,num_8,0.650157274329,,,2018_Feb_28_1323,60.0046767261,FEMA4ImagesEEG,001,103117,
AFNE01.JPG,AFNE01.JPG,AFNE01.JPG,AFNE01.JPG,AFNE01.JPG,AFNE01.JPG,,,,,,,,,4,0,40,8,,,,,,,,,,,,,,,AFNE06.jpg,AFNE08.jpg,AFSA07.jpg,AFSA02.jpg,AFSA07.jpg,FS,4,num_2,32,num_8,0.483526690747,,,2018_Feb_28_1323,60.0046767261,FEMA4ImagesEEG,001,103117,
AFNE01.JPG,AFNE01.JPG,AFNE01.JPG,AFNE01.JPG,AFNE01.JPG,AFNE01.JPG,,,,,,,,,4,1,41,4,,,,,,,,,,,,,,,AFSA12.jpg,AFNE10.jpg,AFSA20.jpg,AFNE18.jpg,AFNE18.jpg,FN,3,num_4,32,num_6,1.13346361753,,,2018_Feb_28_1323,60.0046767261,FEMA4ImagesEEG,001,103117,
AFNE01.JPG,AFNE01.JPG,AFNE01.JPG,AFNE01.JPG,AFNE01.JPG,AFNE01.JPG,,,,,,,,,4,2,42,1,,,,,,,,,,,,,,,AFSA05.jpg,AFNE13.jpg,AFNE06.jpg,AFSA17.jpg,AFSA05.jpg,FS,4,num_8,32,num_2,0.933496076264,,,2018_Feb_28_1323,60.0046767261,FEMA4ImagesEEG,001,103117,
AFNE01.JPG,AFNE01.JPG,AFNE01.JPG,AFNE01.JPG,AFNE01.JPG,AFNE01.JPG,,,,,,,,,4,3,43,9,,,,,,,,,,,,,,,AFSA12.jpg,AFNE05.jpg,AFSA14.jpg,AFNE04.jpg,AFSA12.jpg,FS,4,num_8,16,num_8,1.03346429102,,,2018_Feb_28_1323,60.0046767261,FEMA4ImagesEEG,001,103117,
AFNE01.JPG,AFNE01.JPG,AFNE01.JPG,AFNE01.JPG,AFNE01.JPG,AFNE01.JPG,,,,,,,,,4,4,44,7,,,,,,,,,,,,,,,AFSA01.jpg,AFNE12.jpg,AFSA17.jpg,AFNE03.jpg,AFNE12.jpg,FN,3,num_6,16,num_6,0.983514342341,,,2018_Feb_28_1323,60.0046767261,FEMA4ImagesEEG,001,103117,
AFNE01.JPG,AFNE01.JPG,AFNE01.JPG,AFNE01.JPG,AFNE01.JPG,AFNE01.JPG,,,,,,,,,4,5,45,5,,,,,,,,,,,,,,,AFSA07.jpg,AFSA03.jpg,AFNE06.jpg,AFNE14.jpg,AFNE14.jpg,FN,3,num_4,32,num_2,1.10006828525,,,2018_Feb_28_1323,60.0046767261,FEMA4ImagesEEG,001,103117,
AFNE01.JPG,AFNE01.JPG,AFNE01.JPG,AFNE01.JPG,AFNE01.JPG,AFNE01.JPG,,,,,,,,,4,6,46,3,,,,,,,,,,,,,,,AFSA15.jpg,AFNE20.jpg,AFSA08.jpg,AFNE16.jpg,AFNE20.jpg,FN,3,num_6,32,num_4,0.66680490505,,,2018_Feb_28_1323,60.0046767261,FEMA4ImagesEEG,001,103117,
AFNE01.JPG,AFNE01.JPG,AFNE01.JPG,AFNE01.JPG,AFNE01.JPG,AFNE01.JPG,,,,,,,,,4,7,47,6,,,,,,,,,,,,,,,AFNE19.jpg,AFSA17.jpg,AFSA10.jpg,AFNE15.jpg,AFSA10.jpg,FS,4,num_2,32,num_6,0.500207678531,,,2018_Feb_28_1323,60.0046767261,FEMA4ImagesEEG,001,103117,
AFNE01.JPG,AFNE01.JPG,AFNE01.JPG,AFNE01.JPG,AFNE01.JPG,AFNE01.JPG,,,,,,,,,4,8,48,0,,,,,,,,,,,,,,,AFNE01.jpg,AFNE17.jpg,AFSA16.jpg,AFSA13.jpg,AFNE01.jpg,FN,3,num_8,32,num_6,0.400232407381,,,2018_Feb_28_1323,60.0046767261,FEMA4ImagesEEG,001,103117,
AFNE01.JPG,AFNE01.JPG,AFNE01.JPG,AFNE01.JPG,AFNE01.JPG,AFNE01.JPG,,,,,,,,,4,9,49,2,,,,,,,,,,,,,,,AFSA10.jpg,AFNE13.jpg,AFSA05.jpg,AFNE20.jpg,AFNE13.jpg,FN,3,num_6,32,num_2,0.983433516114,,,2018_Feb_28_1323,60.0046767261,FEMA4ImagesEEG,001,103117,
AFNE01.JPG,AFNE01.JPG,AFNE01.JPG,AFNE01.JPG,AFNE01.JPG,AFNE01.JPG,,,,,,,,,5,0,50,7,,,,,,,,,,,,,,,AFSA09.jpg,AFSA16.jpg,AFNE13.jpg,AFNE01.jpg,AFSA16.jpg,FS,4,num_6,16,num_6,0.58349169814,,,2018_Feb_28_1323,60.0046767261,FEMA4ImagesEEG,001,103117,
AFNE01.JPG,AFNE01.JPG,AFNE01.JPG,AFNE01.JPG,AFNE01.JPG,AFNE01.JPG,,,,,,,,,5,1,51,6,,,,,,,,,,,,,,,AFNE09.jpg,AFSA09.jpg,AFSA16.jpg,AFNE13.jpg,AFNE09.jpg,FN,3,num_8,16,num_8,0.883461773279,,,2018_Feb_28_1323,60.0046767261,FEMA4ImagesEEG,001,103117,
AFNE01.JPG,AFNE01.JPG,AFNE01.JPG,AFNE01.JPG,AFNE01.JPG,AFNE01.JPG,,,,,,,,,5,2,52,2,,,,,,,,,,,,,,,AFSA07.jpg,AFNE18.jpg,AFNE10.jpg,AFSA13.jpg,AFSA07.jpg,FS,4,num_8,32,num_4,1.10005449364,,,2018_Feb_28_1323,60.0046767261,FEMA4ImagesEEG,001,103117,
AFNE01.JPG,AFNE01.JPG,AFNE01.JPG,AFNE01.JPG,AFNE01.JPG,AFNE01.JPG,,,,,,,,,5,3,53,3,,,,,,,,,,,,,,,AFSA15.jpg,AFNE11.jpg,AFNE10.jpg,AFSA13.jpg,AFSA15.jpg,FS,4,num_8,16,num_8,2.28337504552,,,2018_Feb_28_1323,60.0046767261,FEMA4ImagesEEG,001,103117,
AFNE01.JPG,AFNE01.JPG,AFNE01.JPG,AFNE01.JPG,AFNE01.JPG,AFNE01.JPG,,,,,,,,,5,4,54,8,,,,,,,,,,,,,,,AFSA13.jpg,AFSA08.jpg,AFNE14.jpg,AFNE18.jpg,AFNE14.jpg,FN,3,num_2,32,num_4,1.01676854945,,,2018_Feb_28_1323,60.0046767261,FEMA4ImagesEEG,001,103117,
AFNE01.JPG,AFNE01.JPG,AFNE01.JPG,AFNE01.JPG,AFNE01.JPG,AFNE01.JPG,,,,,,,,,5,5,55,5,,,,,,,,,,,,,,,AFSA09.jpg,AFNE06.jpg,AFSA12.jpg,AFNE09.jpg,AFNE06.jpg,FN,3,num_6,16,num_6,1.30014263256,,,2018_Feb_28_1323,60.0046767261,FEMA4ImagesEEG,001,103117,
AFNE01.JPG,AFNE01.JPG,AFNE01.JPG,AFNE01.JPG,AFNE01.JPG,AFNE01.JPG,,,,,,,,,5,6,56,0,,,,,,,,,,,,,,,AFNE16.jpg,AFNE11.jpg,AFSA13.jpg,AFSA02.jpg,AFNE11.jpg,FN,3,num_6,32,num_2,0.300171499141,,,2018_Feb_28_1323,60.0046767261,FEMA4ImagesEEG,001,103117,
AFNE01.JPG,AFNE01.JPG,AFNE01.JPG,AFNE01.JPG,AFNE01.JPG,AFNE01.JPG,,,,,,,,,5,7,57,9,,,,,,,,,,,,,,,AFNE12.jpg,AFNE15.jpg,AFSA05.jpg,AFSA12.jpg,AFSA05.jpg,FS,4,num_2,32,num_6,0.53350743046,,,2018_Feb_28_1323,60.0046767261,FEMA4ImagesEEG,001,103117,
AFNE01.JPG,AFNE01.JPG,AFNE01.JPG,AFNE01.JPG,AFNE01.JPG,AFNE01.JPG,,,,,,,,,5,8,58,4,,,,,,,,,,,,,,,AFNE03.jpg,AFSA04.jpg,AFSA03.jpg,AFNE11.jpg,AFNE03.jpg,FN,3,num_8,32,num_4,1.00015844509,,,2018_Feb_28_1323,60.0046767261,FEMA4ImagesEEG,001,103117,
AFNE01.JPG,AFNE01.JPG,AFNE01.JPG,AFNE01.JPG,AFNE01.JPG,AFNE01.JPG,,,,,,,,,5,9,59,1,,,,,,,,,,,,,,,AFSA09.jpg,AFNE11.jpg,AFNE14.jpg,AFSA14.jpg,AFNE11.jpg,FN,3,num_6,16,num_6,0.533513524337,,,2018_Feb_28_1323,60.0046767261,FEMA4ImagesEEG,001,103117,
,,,,,,,,,,,,,,,,,,,,,,,,,,,,,,,,,,,,,,,,,,,space,54.5788637568,2018_Feb_28_1323,60.0046767261,FEMA4ImagesEEG,001,103117,
AFNE01.JPG,AFNE01.JPG,AFNE01.JPG,AFNE01.JPG,AFNE01.JPG,AFNE01.JPG,,,,,,,,,,,,,0,0,0,3,,,,,,,,,,,AMNE05.jpg,AMSA07.jpg,AMNE02.jpg,AMSA19.jpg,AMSA07.jpg,MS,2,num_6,32,num_8,3.34993958892,,,2018_Feb_28_1323,60.0046767261,FEMA4ImagesEEG,001,103117,
AFNE01.JPG,AFNE01.JPG,AFNE01.JPG,AFNE01.JPG,AFNE01.JPG,AFNE01.JPG,,,,,,,,,,,,,0,1,1,4,,,,,,,,,,,AMNE02.jpg,AMSA17.jpg,AMSA05.jpg,AMNE04.jpg,AMNE02.jpg,MN,1,num_8,32,num_2,0.533498770441,,,2018_Feb_28_1323,60.0046767261,FEMA4ImagesEEG,001,103117,
AFNE01.JPG,AFNE01.JPG,AFNE01.JPG,AFNE01.JPG,AFNE01.JPG,AFNE01.JPG,,,,,,,,,,,,,0,2,2,8,,,,,,,,,,,AMNE07.jpg,AMSA07.jpg,AMSA14.jpg,AMNE04.jpg,AMSA14.jpg,MS,2,num_2,16,num_2,0.666830243426,,,2018_Feb_28_1323,60.0046767261,FEMA4ImagesEEG,001,103117,
AFNE01.JPG,AFNE01.JPG,AFNE01.JPG,AFNE01.JPG,AFNE01.JPG,AFNE01.JPG,,,,,,,,,,,,,0,3,3,9,,,,,,,,,,,AMSA03.jpg,AMSA09.jpg,AMNE18.jpg,AMNE19.jpg,AMSA09.jpg,MS,2,num_6,32,num_8,0.533422113862,,,2018_Feb_28_1323,60.0046767261,FEMA4ImagesEEG,001,103117,
AFNE01.JPG,AFNE01.JPG,AFNE01.JPG,AFNE01.JPG,AFNE01.JPG,AFNE01.JPG,,,,,,,,,,,,,0,4,4,0,,,,,,,,,,,AMNE20.jpg,AMNE09.jpg,AMSA14.jpg,AMSA04.jpg,AMSA14.jpg,MS,2,num_2,16,num_2,0.90012479946,,,2018_Feb_28_1323,60.0046767261,FEMA4ImagesEEG,001,103117,
AFNE01.JPG,AFNE01.JPG,AFNE01.JPG,AFNE01.JPG,AFNE01.JPG,AFNE01.JPG,,,,,,,,,,,,,0,5,5,1,,,,,,,,,,,AMNE14.jpg,AMSA13.jpg,AMSA01.jpg,AMNE03.jpg,AMNE14.jpg,MN,1,num_8,16,num_8,0.816680410411,,,2018_Feb_28_1323,60.0046767261,FEMA4ImagesEEG,001,103117,
AFNE01.JPG,AFNE01.JPG,AFNE01.JPG,AFNE01.JPG,AFNE01.JPG,AFNE01.JPG,,,,,,,,,,,,,0,6,6,7,,,,,,,,,,,AMSA13.jpg,AMSA20.jpg,AMNE19.jpg,AMNE13.jpg,AMSA20.jpg,MS,2,num_6,32,num_2,0.883330591023,,,2018_Feb_28_1323,60.0046767261,FEMA4ImagesEEG,001,103117,
AFNE01.JPG,AFNE01.JPG,AFNE01.JPG,AFNE01.JPG,AFNE01.JPG,AFNE01.JPG,,,,,,,,,,,,,0,7,7,5,,,,,,,,,,,AMNE15.jpg,AMNE14.jpg,AMSA08.jpg,AMSA04.jpg,AMSA08.jpg,MS,2,num_2,32,num_4,0.333633224131,,,2018_Feb_28_1323,60.0046767261,FEMA4ImagesEEG,001,103117,
AFNE01.JPG,AFNE01.JPG,AFNE01.JPG,AFNE01.JPG,AFNE01.JPG,AFNE01.JPG,,,,,,,,,,,,,0,8,8,2,,,,,,,,,,,AMSA08.jpg,AMSA05.jpg,AMNE14.jpg,AMNE03.jpg,AMSA05.jpg,MS,2,num_6,16,num_6,0.500167586142,,,2018_Feb_28_1323,60.0046767261,FEMA4ImagesEEG,001,103117,
AFNE01.JPG,AFNE01.JPG,AFNE01.JPG,AFNE01.JPG,AFNE01.JPG,AFNE01.JPG,,,,,,,,,,,,,0,9,9,6,,,,,,,,,,,AMNE11.jpg,AMSA06.jpg,AMSA07.jpg,AMNE04.jpg,AMSA07.jpg,MS,2,num_2,16,num_2,0.616783431615,,,2018_Feb_28_1323,60.0046767261,FEMA4ImagesEEG,001,103117,
AFNE01.JPG,AFNE01.JPG,AFNE01.JPG,AFNE01.JPG,AFNE01.JPG,AFNE01.JPG,,,,,,,,,,,,,1,0,10,8,,,,,,,,,,,AMNE05.jpg,AMSA11.jpg,AMNE11.jpg,AMSA09.jpg,AMSA09.jpg,MS,2,num_4,16,num_4,0.900099140359,,,2018_Feb_28_1323,60.0046767261,FEMA4ImagesEEG,001,103117,
AFNE01.JPG,AFNE01.JPG,AFNE01.JPG,AFNE01.JPG,AFNE01.JPG,AFNE01.JPG,,,,,,,,,,,,,1,1,11,4,,,,,,,,,,,AMNE19.jpg,AMNE16.jpg,AMSA08.jpg,AMSA14.jpg,AMSA08.jpg,MS,2,num_2,16,num_2,0.95012574573,,,2018_Feb_28_1323,60.0046767261,FEMA4ImagesEEG,001,103117,
AFNE01.JPG,AFNE01.JPG,AFNE01.JPG,AFNE01.JPG,AFNE01.JPG,AFNE01.JPG,,,,,,,,,,,,,1,2,12,2,,,,,,,,,,,AMNE10.jpg,AMSA10.jpg,AMSA08.jpg,AMNE02.jpg,AMNE10.jpg,MN,1,num_8,16,num_8,0.650150538771,,,2018_Feb_28_1323,60.0046767261,FEMA4ImagesEEG,001,103117,
AFNE01.JPG,AFNE01.JPG,AFNE01.JPG,AFNE01.JPG,AFNE01.JPG,AFNE01.JPG,,,,,,,,,,,,,1,3,13,1,,,,,,,,,,,AMSA01.jpg,AMNE03.jpg,AMNE09.jpg,AMSA10.jpg,AMNE03.jpg,MN,1,num_6,16,num_6,0.633465702296,,,2018_Feb_28_1323,60.0046767261,FEMA4ImagesEEG,001,103117,
AFNE01.JPG,AFNE01.JPG,AFNE01.JPG,AFNE01.JPG,AFNE01.JPG,AFNE01.JPG,,,,,,,,,,,,,1,4,14,0,,,,,,,,,,,AMSA17.jpg,AMNE03.jpg,AMNE07.jpg,AMSA03.jpg,AMSA17.jpg,MS,2,num_8,16,num_8,0.516805594671,,,2018_Feb_28_1323,60.0046767261,FEMA4ImagesEEG,001,103117,
AFNE01.JPG,AFNE01.JPG,AFNE01.JPG,AFNE01.JPG,AFNE01.JPG,AFNE01.JPG,,,,,,,,,,,,,1,5,15,9,,,,,,,,,,,AMSA16.jpg,AMNE16.jpg,AMSA07.jpg,AMNE17.jpg,AMSA16.jpg,MS,2,num_8,32,num_6,0.900155590381,,,2018_Feb_28_1323,60.0046767261,FEMA4ImagesEEG,001,103117,
AFNE01.JPG,AFNE01.JPG,AFNE01.JPG,AFNE01.JPG,AFNE01.JPG,AFNE01.JPG,,,,,,,,,,,,,1,6,16,6,,,,,,,,,,,AMNE15.jpg,AMSA15.jpg,AMNE16.jpg,AMSA06.jpg,AMNE15.jpg,MN,1,num_8,16,num_8,0.383554947912,,,2018_Feb_28_1323,60.0046767261,FEMA4ImagesEEG,001,103117,
AFNE01.JPG,AFNE01.JPG,AFNE01.JPG,AFNE01.JPG,AFNE01.JPG,AFNE01.JPG,,,,,,,,,,,,,1,7,17,3,,,,,,,,,,,AMNE16.jpg,AMSA15.jpg,AMNE08.jpg,AMSA05.jpg,AMNE08.jpg,MN,1,num_2,32,num_6,0.466856929008,,,2018_Feb_28_1323,60.0046767261,FEMA4ImagesEEG,001,103117,
AFNE01.JPG,AFNE01.JPG,AFNE01.JPG,AFNE01.JPG,AFNE01.JPG,AFNE01.JPG,,,,,,,,,,,,,1,8,18,5,,,,,,,,,,,AMNE13.jpg,AMNE06.jpg,AMSA14.jpg,AMSA15.jpg,AMNE13.jpg,MN,1,num_8,32,num_2,0.616816788446,,,2018_Feb_28_1323,60.0046767261,FEMA4ImagesEEG,001,103117,
AFNE01.JPG,AFNE01.JPG,AFNE01.JPG,AFNE01.JPG,AFNE01.JPG,AFNE01.JPG,,,,,,,,,,,,,1,9,19,7,,,,,,,,,,,AMSA19.jpg,AMNE16.jpg,AMSA01.jpg,AMNE09.jpg,AMSA01.jpg,MS,2,num_2,32,num_8,0.300175347948,,,2018_Feb_28_1323,60.0046767261,FEMA4ImagesEEG,001,103117,
AFNE01.JPG,AFNE01.JPG,AFNE01.JPG,AFNE01.JPG,AFNE01.JPG,AFNE01.JPG,,,,,,,,,,,,,2,0,20,0,,,,,,,,,,,AMNE01.jpg,AMSA12.jpg,AMSA06.jpg,AMNE04.jpg,AMNE01.jpg,MN,1,num_8,32,num_4,0.433486293652,,,2018_Feb_28_1323,60.0046767261,FEMA4ImagesEEG,001,103117,
AFNE01.JPG,AFNE01.JPG,AFNE01.JPG,AFNE01.JPG,AFNE01.JPG,AFNE01.JPG,,,,,,,,,,,,,2,1,21,5,,,,,,,,,,,AMNE05.jpg,AMSA06.jpg,AMNE20.jpg,AMSA03.jpg,AMSA03.jpg,MS,2,num_4,32,num_6,0.516844083322,,,2018_Feb_28_1323,60.0046767261,FEMA4ImagesEEG,001,103117,
AFNE01.JPG,AFNE01.JPG,AFNE01.JPG,AFNE01.JPG,AFNE01.JPG,AFNE01.JPG,,,,,,,,,,,,,2,2,22,2,,,,,,,,,,,AMNE20.jpg,AMNE10.jpg,AMSA04.jpg,AMSA08.jpg,AMSA04.jpg,MS,2,num_2,16,num_2,0.883469791617,,,2018_Feb_28_1323,60.0046767261,FEMA4ImagesEEG,001,103117,
AFNE01.JPG,AFNE01.JPG,AFNE01.JPG,AFNE01.JPG,AFNE01.JPG,AFNE01.JPG,,,,,,,,,,,,,2,3,23,1,,,,,,,,,,,AMNE11.jpg,AMSA19.jpg,AMNE19.jpg,AMSA02.jpg,AMSA02.jpg,MS,2,num_4,32,num_6,0.566853689612,,,2018_Feb_28_1323,60.0046767261,FEMA4ImagesEEG,001,103117,
AFNE01.JPG,AFNE01.JPG,AFNE01.JPG,AFNE01.JPG,AFNE01.JPG,AFNE01.JPG,,,,,,,,,,,,,2,4,24,6,,,,,,,,,,,AMNE12.jpg,AMNE06.jpg,AMSA20.jpg,AMSA05.jpg,AMSA20.jpg,MS,2,num_2,16,num_2,0.58349169814,,,2018_Feb_28_1323,60.0046767261,FEMA4ImagesEEG,001,103117,
AFNE01.JPG,AFNE01.JPG,AFNE01.JPG,AFNE01.JPG,AFNE01.JPG,AFNE01.JPG,,,,,,,,,,,,,2,5,25,4,,,,,,,,,,,AMSA15.jpg,AMSA17.jpg,AMNE02.jpg,AMNE01.jpg,AMSA17.jpg,MS,2,num_6,32,num_4,0.683300185017,,,2018_Feb_28_1323,60.0046767261,FEMA4ImagesEEG,001,103117,
AFNE01.JPG,AFNE01.JPG,AFNE01.JPG,AFNE01.JPG,AFNE01.JPG,AFNE01.JPG,,,,,,,,,,,,,2,6,26,7,,,,,,,,,,,AMNE05.jpg,AMNE19.jpg,AMSA13.jpg,AMSA16.jpg,AMNE19.jpg,MN,1,num_6,32,num_8,0.866640301887,,,2018_Feb_28_1323,60.0046767261,FEMA4ImagesEEG,001,103117,
AFNE01.JPG,AFNE01.JPG,AFNE01.JPG,AFNE01.JPG,AFNE01.JPG,AFNE01.JPG,,,,,,,,,,,,,2,7,27,8,,,,,,,,,,,AMNE01.jpg,AMSA16.jpg,AMNE20.jpg,AMSA09.jpg,AMNE20.jpg,MN,1,num_2,32,num_4,1.03346108366,,,2018_Feb_28_1323,60.0046767261,FEMA4ImagesEEG,001,103117,
AFNE01.JPG,AFNE01.JPG,AFNE01.JPG,AFNE01.JPG,AFNE01.JPG,AFNE01.JPG,,,,,,,,,,,,,2,8,28,9,,,,,,,,,,,AMNE05.jpg,AMSA08.jpg,AMNE03.jpg,AMSA04.jpg,AMSA08.jpg,MS,2,num_6,16,num_6,0.633466343745,,,2018_Feb_28_1323,60.0046767261,FEMA4ImagesEEG,001,103117,
AFNE01.JPG,AFNE01.JPG,AFNE01.JPG,AFNE01.JPG,AFNE01.JPG,AFNE01.JPG,,,,,,,,,,,,,2,9,29,3,,,,,,,,,,,AMNE10.jpg,AMSA05.jpg,AMNE06.jpg,AMSA16.jpg,AMSA16.jpg,MS,2,num_4,16,num_4,0.816806140007,,,2018_Feb_28_1323,60.0046767261,FEMA4ImagesEEG,001,103117,
AFNE01.JPG,AFNE01.JPG,AFNE01.JPG,AFNE01.JPG,AFNE01.JPG,AFNE01.JPG,,,,,,,,,,,,,3,0,30,1,,,,,,,,,,,AMSA19.jpg,AMNE18.jpg,AMNE11.jpg,AMSA14.jpg,AMSA19.jpg,MS,2,num_8,16,num_8,0.933476831997,,,2018_Feb_28_1323,60.0046767261,FEMA4ImagesEEG,001,103117,
AFNE01.JPG,AFNE01.JPG,AFNE01.JPG,AFNE01.JPG,AFNE01.JPG,AFNE01.JPG,,,,,,,,,,,,,3,1,31,7,,,,,,,,,,,AMNE12.jpg,AMSA03.jpg,AMNE17.jpg,AMSA17.jpg,AMSA17.jpg,MS,2,num_4,16,num_4,0.833470449201,,,2018_Feb_28_1323,60.0046767261,FEMA4ImagesEEG,001,103117,
AFNE01.JPG,AFNE01.JPG,AFNE01.JPG,AFNE01.JPG,AFNE01.JPG,AFNE01.JPG,,,,,,,,,,,,,3,2,32,9,,,,,,,,,,,AMSA10.jpg,AMNE06.jpg,AMNE20.jpg,AMSA20.jpg,AMSA20.jpg,MS,2,num_4,32,num_6,0.600180704263,,,2018_Feb_28_1323,60.0046767261,FEMA4ImagesEEG,001,103117,
AFNE01.JPG,AFNE01.JPG,AFNE01.JPG,AFNE01.JPG,AFNE01.JPG,AFNE01.JPG,,,,,,,,,,,,,3,3,33,3,,,,,,,,,,,AMSA07.jpg,AMNE18.jpg,AMSA20.jpg,AMNE14.jpg,AMSA07.jpg,MS,2,num_8,16,num_8,0.766850417946,,,2018_Feb_28_1323,60.0046767261,FEMA4ImagesEEG,001,103117,
AFNE01.JPG,AFNE01.JPG,AFNE01.JPG,AFNE01.JPG,AFNE01.JPG,AFNE01.JPG,,,,,,,,,,,,,3,4,34,2,,,,,,,,,,,AMSA07.jpg,AMNE13.jpg,AMNE19.jpg,AMSA08.jpg,AMSA08.jpg,MS,2,num_4,16,num_4,0.983313239063,,,2018_Feb_28_1323,60.0046767261,FEMA4ImagesEEG,001,103117,
AFNE01.JPG,AFNE01.JPG,AFNE01.JPG,AFNE01.JPG,AFNE01.JPG,AFNE01.JPG,,,,,,,,,,,,,3,5,35,6,,,,,,,,,,,AMSA16.jpg,AMSA14.jpg,AMNE20.jpg,AMNE18.jpg,AMNE20.jpg,MN,1,num_2,32,num_4,0.783486502129,,,2018_Feb_28_1323,60.0046767261,FEMA4ImagesEEG,001,103117,
AFNE01.JPG,AFNE01.JPG,AFNE01.JPG,AFNE01.JPG,AFNE01.JPG,AFNE01.JPG,,,,,,,,,,,,,3,6,36,4,,,,,,,,,,,AMSA14.jpg,AMSA16.jpg,AMNE04.jpg,AMNE18.jpg,AMSA14.jpg,MS,2,num_8,16,num_8,0.683474987629,,,2018_Feb_28_1323,60.0046767261,FEMA4ImagesEEG,001,103117,
AFNE01.JPG,AFNE01.JPG,AFNE01.JPG,AFNE01.JPG,AFNE01.JPG,AFNE01.JPG,,,,,,,,,,,,,3,7,37,5,,,,,,,,,,,AMSA02.jpg,AMSA09.jpg,AMNE08.jpg,AMNE12.jpg,AMSA02.jpg,MS,2,num_8,16,num_8,0.966830147314,,,2018_Feb_28_1323,60.0046767261,FEMA4ImagesEEG,001,103117,
AFNE01.JPG,AFNE01.JPG,AFNE01.JPG,AFNE01.JPG,AFNE01.JPG,AFNE01.JPG,,,,,,,,,,,,,3,8,38,8,,,,,,,,,,,AMSA07.jpg,AMSA03.jpg,AMNE02.jpg,AMNE03.jpg,AMSA03.jpg,MS,2,num_6,32,num_2,1.21674892015,,,2018_Feb_28_1323,60.0046767261,FEMA4ImagesEEG,001,103117,
AFNE01.JPG,AFNE01.JPG,AFNE01.JPG,AFNE01.JPG,AFNE01.JPG,AFNE01.JPG,,,,,,,,,,,,,3,9,39,0,,,,,,,,,,,AMNE13.jpg,AMSA12.jpg,AMNE15.jpg,AMSA09.jpg,AMNE15.jpg,MN,1,num_2,32,num_8,0.650141878868,,,2018_Feb_28_1323,60.0046767261,FEMA4ImagesEEG,001,103117,
AFNE01.JPG,AFNE01.JPG,AFNE01.JPG,AFNE01.JPG,AFNE01.JPG,AFNE01.JPG,,,,,,,,,,,,,4,0,40,0,,,,,,,,,,,AMNE05.jpg,AMSA05.jpg,AMNE06.jpg,AMSA01.jpg,AMNE05.jpg,MN,1,num_8,32,num_4,0.833513428224,,,2018_Feb_28_1323,60.0046767261,FEMA4ImagesEEG,001,103117,
AFNE01.JPG,AFNE01.JPG,AFNE01.JPG,AFNE01.JPG,AFNE01.JPG,AFNE01.JPG,,,,,,,,,,,,,4,1,41,8,,,,,,,,,,,AMNE20.jpg,AMNE06.jpg,AMSA16.jpg,AMSA01.jpg,AMSA01.jpg,MS,2,num_4,32,num_2,0.816777914995,,,2018_Feb_28_1323,60.0046767261,FEMA4ImagesEEG,001,103117,
AFNE01.JPG,AFNE01.JPG,AFNE01.JPG,AFNE01.JPG,AFNE01.JPG,AFNE01.JPG,,,,,,,,,,,,,4,2,42,1,,,,,,,,,,,AMSA09.jpg,AMNE04.jpg,AMSA10.jpg,AMNE05.jpg,AMSA10.jpg,MS,2,num_2,32,num_8,0.516782501596,,,2018_Feb_28_1323,60.0046767261,FEMA4ImagesEEG,001,103117,
AFNE01.JPG,AFNE01.JPG,AFNE01.JPG,AFNE01.JPG,AFNE01.JPG,AFNE01.JPG,,,,,,,,,,,,,4,3,43,4,,,,,,,,,,,AMNE19.jpg,AMSA06.jpg,AMSA20.jpg,AMNE02.jpg,AMNE19.jpg,MN,1,num_8,32,num_4,0.71675549529,,,2018_Feb_28_1323,60.0046767261,FEMA4ImagesEEG,001,103117,
AFNE01.JPG,AFNE01.JPG,AFNE01.JPG,AFNE01.JPG,AFNE01.JPG,AFNE01.JPG,,,,,,,,,,,,,4,4,44,5,,,,,,,,,,,AMSA20.jpg,AMNE11.jpg,AMNE02.jpg,AMSA18.jpg,AMNE11.jpg,MN,1,num_6,32,num_4,0.733478820417,,,2018_Feb_28_1323,60.0046767261,FEMA4ImagesEEG,001,103117,
AFNE01.JPG,AFNE01.JPG,AFNE01.JPG,AFNE01.JPG,AFNE01.JPG,AFNE01.JPG,,,,,,,,,,,,,4,5,45,7,,,,,,,,,,,AMSA12.jpg,AMSA03.jpg,AMNE13.jpg,AMNE16.jpg,AMNE16.jpg,MN,1,num_4,32,num_6,0.816756104701,,,2018_Feb_28_1323,60.0046767261,FEMA4ImagesEEG,001,103117,
AFNE01.JPG,AFNE01.JPG,AFNE01.JPG,AFNE01.JPG,AFNE01.JPG,AFNE01.JPG,,,,,,,,,,,,,4,6,46,9,,,,,,,,,,,AMNE02.jpg,AMSA19.jpg,AMNE03.jpg,AMSA17.jpg,AMNE02.jpg,MN,1,num_8,32,num_4,0.86677020113,,,2018_Feb_28_1323,60.0046767261,FEMA4ImagesEEG,001,103117,
AFNE01.JPG,AFNE01.JPG,AFNE01.JPG,AFNE01.JPG,AFNE01.JPG,AFNE01.JPG,,,,,,,,,,,,,4,7,47,3,,,,,,,,,,,AMSA15.jpg,AMNE09.jpg,AMNE02.jpg,AMSA16.jpg,AMNE09.jpg,MN,1,num_6,16,num_6,0.583493943326,,,2018_Feb_28_1323,60.0046767261,FEMA4ImagesEEG,001,103117,
AFNE01.JPG,AFNE01.JPG,AFNE01.JPG,AFNE01.JPG,AFNE01.JPG,AFNE01.JPG,,,,,,,,,,,,,4,8,48,6,,,,,,,,,,,AMSA16.jpg,AMSA03.jpg,AMNE18.jpg,AMNE08.jpg,AMSA16.jpg,MS,2,num_8,32,num_2,0.583624804858,,,2018_Feb_28_1323,60.0046767261,FEMA4ImagesEEG,001,103117,
AFNE01.JPG,AFNE01.JPG,AFNE01.JPG,AFNE01.JPG,AFNE01.JPG,AFNE01.JPG,,,,,,,,,,,,,4,9,49,2,,,,,,,,,,,AMNE20.jpg,AMSA19.jpg,AMSA18.jpg,AMNE11.jpg,AMNE11.jpg,MN,1,num_4,16,num_4,0.383498497773,,,2018_Feb_28_1323,60.0046767261,FEMA4ImagesEEG,001,103117,
AFNE01.JPG,AFNE01.JPG,AFNE01.JPG,AFNE01.JPG,AFNE01.JPG,AFNE01.JPG,,,,,,,,,,,,,5,0,50,9,,,,,,,,,,,AMSA11.jpg,AMNE17.jpg,AMNE05.jpg,AMSA07.jpg,AMNE05.jpg,MN,1,num_2,32,num_8,0.433503934299,,,2018_Feb_28_1323,60.0046767261,FEMA4ImagesEEG,001,103117,
AFNE01.JPG,AFNE01.JPG,AFNE01.JPG,AFNE01.JPG,AFNE01.JPG,AFNE01.JPG,,,,,,,,,,,,,5,1,51,8,,,,,,,,,,,AMSA02.jpg,AMSA09.jpg,AMNE15.jpg,AMNE20.jpg,AMSA09.jpg,MS,2,num_6,16,num_6,1.43346416275,,,2018_Feb_28_1323,60.0046767261,FEMA4ImagesEEG,001,103117,
AFNE01.JPG,AFNE01.JPG,AFNE01.JPG,AFNE01.JPG,AFNE01.JPG,AFNE01.JPG,,,,,,,,,,,,,5,2,52,7,,,,,,,,,,,AMSA07.jpg,AMNE08.jpg,AMNE17.jpg,AMSA15.jpg,AMNE17.jpg,MN,1,num_2,32,num_4,1.31660808367,,,2018_Feb_28_1323,60.0046767261,FEMA4ImagesEEG,001,103117,
AFNE01.JPG,AFNE01.JPG,AFNE01.JPG,AFNE01.JPG,AFNE01.JPG,AFNE01.JPG,,,,,,,,,,,,,5,3,53,1,,,,,,,,,,,AMNE19.jpg,AMSA16.jpg,AMSA09.jpg,AMNE13.jpg,AMSA09.jpg,MS,2,num_2,32,num_8,1.98337450018,,,2018_Feb_28_1323,60.0046767261,FEMA4ImagesEEG,001,103117,
AFNE01.JPG,AFNE01.JPG,AFNE01.JPG,AFNE01.JPG,AFNE01.JPG,AFNE01.JPG,,,,,,,,,,,,,5,4,54,4,,,,,,,,,,,AMNE18.jpg,AMSA20.jpg,AMNE15.jpg,AMSA08.jpg,AMNE18.jpg,MN,1,num_8,32,num_6,0.416825833265,,,2018_Feb_28_1323,60.0046767261,FEMA4ImagesEEG,001,103117,
AFNE01.JPG,AFNE01.JPG,AFNE01.JPG,AFNE01.JPG,AFNE01.JPG,AFNE01.JPG,,,,,,,,,,,,,5,5,55,6,,,,,,,,,,,AMNE04.jpg,AMSA20.jpg,AMSA03.jpg,AMNE17.jpg,AMNE04.jpg,MN,1,num_8,16,num_8,0.950131839723,,,2018_Feb_28_1323,60.0046767261,FEMA4ImagesEEG,001,103117,
AFNE01.JPG,AFNE01.JPG,AFNE01.JPG,AFNE01.JPG,AFNE01.JPG,AFNE01.JPG,,,,,,,,,,,,,5,6,56,5,,,,,,,,,,,AMNE18.jpg,AMNE08.jpg,AMSA07.jpg,AMSA06.jpg,AMNE08.jpg,MN,1,num_6,32,num_2,1.46675717912,,,2018_Feb_28_1323,60.0046767261,FEMA4ImagesEEG,001,103117,
AFNE01.JPG,AFNE01.JPG,AFNE01.JPG,AFNE01.JPG,AFNE01.JPG,AFNE01.JPG,,,,,,,,,,,,,5,7,57,3,,,,,,,,,,,AMNE07.jpg,AMNE20.jpg,AMSA20.jpg,AMSA14.jpg,AMSA14.jpg,MS,2,num_4,16,num_4,1.16680666921,,,2018_Feb_28_1323,60.0046767261,FEMA4ImagesEEG,001,103117,
AFNE01.JPG,AFNE01.JPG,AFNE01.JPG,AFNE01.JPG,AFNE01.JPG,AFNE01.JPG,,,,,,,,,,,,,5,8,58,2,,,,,,,,,,,AMNE15.jpg,AMNE09.jpg,AMSA09.jpg,AMSA14.jpg,AMNE15.jpg,MN,1,num_8,16,num_8,1.11674991448,,,2018_Feb_28_1323,60.0046767261,FEMA4ImagesEEG,001,103117,
AFNE01.JPG,AFNE01.JPG,AFNE01.JPG,AFNE01.JPG,AFNE01.JPG,AFNE01.JPG,,,,,,,,,,,,,5,9,59,0,,,,,,,,,,,AMSA17.jpg,AMNE11.jpg,AMSA01.jpg,AMNE08.jpg,AMSA01.jpg,MS,2,num_2,16,num_2,1.08347421791,,,2018_Feb_28_1323,60.0046767261,FEMA4ImagesEEG,001,103117,
,,,,,,,,,,,,,,,,,,,,,,,,,,,,,,,,,,,,,,,,,,,space,4.56681231421,2018_Feb_28_1323,60.0046767261,FEMA4ImagesEEG,001,103117,
AFNE01.JPG,AFNE01.JPG,AFNE01.JPG,AFNE01.JPG,AFNE01.JPG,AFNE01.JPG,,,,,,,,,,,,,,,,,0,0,0,9,,,,,,,AFSA15.jpg,AFNE07.jpg,AFNE15.jpg,AFSA11.jpg,AFNE15.jpg,FN,3,num_2,32,num_6,0.900137629011,,,2018_Feb_28_1323,60.0046767261,FEMA4ImagesEEG,001,103117,
AFNE01.JPG,AFNE01.JPG,AFNE01.JPG,AFNE01.JPG,AFNE01.JPG,AFNE01.JPG,,,,,,,,,,,,,,,,,0,1,1,8,,,,,,,AFSA17.jpg,AFSA12.jpg,AFNE10.jpg,AFNE16.jpg,AFNE10.jpg,FN,3,num_2,16,num_2,0.85013539996,,,2018_Feb_28_1323,60.0046767261,FEMA4ImagesEEG,001,103117,
AFNE01.JPG,AFNE01.JPG,AFNE01.JPG,AFNE01.JPG,AFNE01.JPG,AFNE01.JPG,,,,,,,,,,,,,,,,,0,2,2,3,,,,,,,AFNE06.jpg,AFNE01.jpg,AFSA19.jpg,AFSA13.jpg,AFNE01.jpg,FN,3,num_6,32,num_8,0.583509338787,,,2018_Feb_28_1323,60.0046767261,FEMA4ImagesEEG,001,103117,
AFNE01.JPG,AFNE01.JPG,AFNE01.JPG,AFNE01.JPG,AFNE01.JPG,AFNE01.JPG,,,,,,,,,,,,,,,,,0,3,3,7,,,,,,,AFNE04.jpg,AFSA01.jpg,AFSA02.jpg,AFNE09.jpg,AFNE09.jpg,FN,3,num_4,32,num_6,0.866769238957,,,2018_Feb_28_1323,60.0046767261,FEMA4ImagesEEG,001,103117,
AFNE01.JPG,AFNE01.JPG,AFNE01.JPG,AFNE01.JPG,AFNE01.JPG,AFNE01.JPG,,,,,,,,,,,,,,,,,0,4,4,2,,,,,,,AFNE18.jpg,AFNE08.jpg,AFSA16.jpg,AFSA06.jpg,AFSA16.jpg,FS,4,num_2,32,num_6,1.00008724094,,,2018_Feb_28_1323,60.0046767261,FEMA4ImagesEEG,001,103117,
AFNE01.JPG,AFNE01.JPG,AFNE01.JPG,AFNE01.JPG,AFNE01.JPG,AFNE01.JPG,,,,,,,,,,,,,,,,,0,5,5,4,,,,,,,AFNE01.jpg,AFSA05.jpg,AFSA13.jpg,AFNE04.jpg,AFSA13.jpg,FS,4,num_2,32,num_6,0.883451188914,,,2018_Feb_28_1323,60.0046767261,FEMA4ImagesEEG,001,103117,
AFNE01.JPG,AFNE01.JPG,AFNE01.JPG,AFNE01.JPG,AFNE01.JPG,AFNE01.JPG,,,,,,,,,,,,,,,,,0,6,6,5,,,,,,,AFSA20.jpg,AFSA03.jpg,AFNE14.jpg,AFNE12.jpg,AFNE12.jpg,FN,3,num_4,32,num_8,0.63350258721,,,2018_Feb_28_1323,60.0046767261,FEMA4ImagesEEG,001,103117,
AFNE01.JPG,AFNE01.JPG,AFNE01.JPG,AFNE01.JPG,AFNE01.JPG,AFNE01.JPG,,,,,,,,,,,,,,,,,0,7,7,0,,,,,,,AFNE17.jpg,AFSA15.jpg,AFNE05.jpg,AFSA05.jpg,AFSA15.jpg,FS,4,num_6,16,num_6,0.533501015627,,,2018_Feb_28_1323,60.0046767261,FEMA4ImagesEEG,001,103117,
AFNE01.JPG,AFNE01.JPG,AFNE01.JPG,AFNE01.JPG,AFNE01.JPG,AFNE01.JPG,,,,,,,,,,,,,,,,,0,8,8,6,,,,,,,AFNE08.jpg,AFSA12.jpg,AFSA09.jpg,AFNE15.jpg,AFSA12.jpg,FS,4,num_6,16,num_6,0.60003316449,,,2018_Feb_28_1323,60.0046767261,FEMA4ImagesEEG,001,103117,
AFNE01.JPG,AFNE01.JPG,AFNE01.JPG,AFNE01.JPG,AFNE01.JPG,AFNE01.JPG,,,,,,,,,,,,,,,,,0,9,9,1,,,,,,,AFSA15.jpg,AFSA06.jpg,AFNE02.jpg,AFNE11.jpg,AFSA15.jpg,FS,4,num_8,16,num_8,0.500164057943,,,2018_Feb_28_1323,60.0046767261,FEMA4ImagesEEG,001,103117,
AFNE01.JPG,AFNE01.JPG,AFNE01.JPG,AFNE01.JPG,AFNE01.JPG,AFNE01.JPG,,,,,,,,,,,,,,,,,1,0,10,8,,,,,,,AFSA10.jpg,AFSA17.jpg,AFNE16.jpg,AFNE10.jpg,AFNE10.jpg,FN,3,num_4,16,num_4,0.783482011873,,,2018_Feb_28_1323,60.0046767261,FEMA4ImagesEEG,001,103117,
AFNE01.JPG,AFNE01.JPG,AFNE01.JPG,AFNE01.JPG,AFNE01.JPG,AFNE01.JPG,,,,,,,,,,,,,,,,,1,1,11,5,,,,,,,AFNE05.jpg,AFNE16.jpg,AFSA04.jpg,AFSA03.jpg,AFSA03.jpg,FS,4,num_4,32,num_6,0.36680435983,,,2018_Feb_28_1323,60.0046767261,FEMA4ImagesEEG,001,103117,
AFNE01.JPG,AFNE01.JPG,AFNE01.JPG,AFNE01.JPG,AFNE01.JPG,AFNE01.JPG,,,,,,,,,,,,,,,,,1,2,12,3,,,,,,,AFSA19.jpg,AFNE09.jpg,AFSA14.jpg,AFNE08.jpg,AFSA19.jpg,FS,4,num_8,32,num_4,0.600176855456,,,2018_Feb_28_1323,60.0046767261,FEMA4ImagesEEG,001,103117,
AFNE01.JPG,AFNE01.JPG,AFNE01.JPG,AFNE01.JPG,AFNE01.JPG,AFNE01.JPG,,,,,,,,,,,,,,,,,1,3,13,1,,,,,,,AFNE01.jpg,AFSA10.jpg,AFNE07.jpg,AFSA05.jpg,AFNE01.jpg,FN,3,num_8,32,num_2,0.933519810904,,,2018_Feb_28_1323,60.0046767261,FEMA4ImagesEEG,001,103117,
AFNE01.JPG,AFNE01.JPG,AFNE01.JPG,AFNE01.JPG,AFNE01.JPG,AFNE01.JPG,,,,,,,,,,,,,,,,,1,4,14,0,,,,,,,AFSA15.jpg,AFSA03.jpg,AFNE15.jpg,AFNE02.jpg,AFNE02.jpg,FN,3,num_4,16,num_4,0.800124190049,,,2018_Feb_28_1323,60.0046767261,FEMA4ImagesEEG,001,103117,
AFNE01.JPG,AFNE01.JPG,AFNE01.JPG,AFNE01.JPG,AFNE01.JPG,AFNE01.JPG,,,,,,,,,,,,,,,,,1,5,15,6,,,,,,,AFSA16.jpg,AFNE17.jpg,AFSA03.jpg,AFNE09.jpg,AFSA03.jpg,FS,4,num_2,16,num_2,0.933478435501,,,2018_Feb_28_1323,60.0046767261,FEMA4ImagesEEG,001,103117,
AFNE01.JPG,AFNE01.JPG,AFNE01.JPG,AFNE01.JPG,AFNE01.JPG,AFNE01.JPG,,,,,,,,,,,,,,,,,1,6,16,4,,,,,,,AFSA08.jpg,AFNE03.jpg,AFSA01.jpg,AFNE17.jpg,AFNE03.jpg,FN,3,num_6,16,num_6,0.800153698074,,,2018_Feb_28_1323,60.0046767261,FEMA4ImagesEEG,001,103117,
AFNE01.JPG,AFNE01.JPG,AFNE01.JPG,AFNE01.JPG,AFNE01.JPG,AFNE01.JPG,,,,,,,,,,,,,,,,,1,7,17,9,,,,,,,AFSA08.jpg,AFNE16.jpg,AFSA14.jpg,AFNE08.jpg,AFSA14.jpg,FS,4,num_2,32,num_8,0.550196436467,,,2018_Feb_28_1323,60.0046767261,FEMA4ImagesEEG,001,103117,
AFNE01.JPG,AFNE01.JPG,AFNE01.JPG,AFNE01.JPG,AFNE01.JPG,AFNE01.JPG,,,,,,,,,,,,,,,,,1,8,18,7,,,,,,,AFSA14.jpg,AFNE14.jpg,AFSA10.jpg,AFNE16.jpg,AFNE14.jpg,FN,3,num_6,16,num_6,0.800150490715,,,2018_Feb_28_1323,60.0046767261,FEMA4ImagesEEG,001,103117,
AFNE01.JPG,AFNE01.JPG,AFNE01.JPG,AFNE01.JPG,AFNE01.JPG,AFNE01.JPG,,,,,,,,,,,,,,,,,1,9,19,2,,,,,,,AFSA20.jpg,AFSA04.jpg,AFNE05.jpg,AFNE11.jpg,AFSA20.jpg,FS,4,num_8,32,num_6,1.80007543776,,,2018_Feb_28_1323,60.0046767261,FEMA4ImagesEEG,001,103117,
AFNE01.JPG,AFNE01.JPG,AFNE01.JPG,AFNE01.JPG,AFNE01.JPG,AFNE01.JPG,,,,,,,,,,,,,,,,,2,0,20,3,,,,,,,AFNE08.jpg,AFSA14.jpg,AFSA20.jpg,AFNE06.jpg,AFNE06.jpg,FN,3,num_4,32,num_6,1.20009423315,,,2018_Feb_28_1323,60.0046767261,FEMA4ImagesEEG,001,103117,
AFNE01.JPG,AFNE01.JPG,AFNE01.JPG,AFNE01.JPG,AFNE01.JPG,AFNE01.JPG,,,,,,,,,,,,,,,,,2,1,21,4,,,,,,,AFNE08.jpg,AFSA01.jpg,AFNE17.jpg,AFSA16.jpg,AFNE17.jpg,FN,3,num_2,32,num_6,0.916832087678,,,2018_Feb_28_1323,60.0046767261,FEMA4ImagesEEG,001,103117,
AFNE01.JPG,AFNE01.JPG,AFNE01.JPG,AFNE01.JPG,AFNE01.JPG,AFNE01.JPG,,,,,,,,,,,,,,,,,2,2,22,2,,,,,,,AFSA06.jpg,AFSA05.jpg,AFNE09.jpg,AFNE12.jpg,AFSA06.jpg,FS,4,num_8,32,num_6,0.516780897859,,,2018_Feb_28_1323,60.0046767261,FEMA4ImagesEEG,001,103117,
AFNE01.JPG,AFNE01.JPG,AFNE01.JPG,AFNE01.JPG,AFNE01.JPG,AFNE01.JPG,,,,,,,,,,,,,,,,,2,3,23,8,,,,,,,AFNE19.jpg,AFNE17.jpg,AFSA08.jpg,AFSA04.jpg,AFNE19.jpg,FN,3,num_8,16,num_8,0.83342330053,,,2018_Feb_28_1323,60.0046767261,FEMA4ImagesEEG,001,103117,
AFNE01.JPG,AFNE01.JPG,AFNE01.JPG,AFNE01.JPG,AFNE01.JPG,AFNE01.JPG,,,,,,,,,,,,,,,,,2,4,24,7,,,,,,,AFNE08.jpg,AFNE14.jpg,AFSA17.jpg,AFSA01.jpg,AFNE14.jpg,FN,3,num_6,32,num_4,0.833478788496,,,2018_Feb_28_1323,60.0046767261,FEMA4ImagesEEG,001,103117,
AFNE01.JPG,AFNE01.JPG,AFNE01.JPG,AFNE01.JPG,AFNE01.JPG,AFNE01.JPG,,,,,,,,,,,,,,,,,2,5,25,5,,,,,,,AFNE19.jpg,AFSA05.jpg,AFNE13.jpg,AFSA03.jpg,AFSA03.jpg,FS,4,num_4,32,num_8,0.983492532047,,,2018_Feb_28_1323,60.0046767261,FEMA4ImagesEEG,001,103117,
AFNE01.JPG,AFNE01.JPG,AFNE01.JPG,AFNE01.JPG,AFNE01.JPG,AFNE01.JPG,,,,,,,,,,,,,,,,,2,6,26,6,,,,,,,AFNE14.jpg,AFSA20.jpg,AFSA09.jpg,AFNE18.jpg,AFSA20.jpg,FS,4,num_6,32,num_2,0.500217300607,,,2018_Feb_28_1323,60.0046767261,FEMA4ImagesEEG,001,103117,
AFNE01.JPG,AFNE01.JPG,AFNE01.JPG,AFNE01.JPG,AFNE01.JPG,AFNE01.JPG,,,,,,,,,,,,,,,,,2,7,27,1,,,,,,,AFNE06.jpg,AFSA19.jpg,AFNE20.jpg,AFSA10.jpg,AFNE20.jpg,FN,3,num_2,32,num_6,0.666791113326,,,2018_Feb_28_1323,60.0046767261,FEMA4ImagesEEG,001,103117,
AFNE01.JPG,AFNE01.JPG,AFNE01.JPG,AFNE01.JPG,AFNE01.JPG,AFNE01.JPG,,,,,,,,,,,,,,,,,2,8,28,0,,,,,,,AFNE17.jpg,AFSA01.jpg,AFNE11.jpg,AFSA11.jpg,AFSA11.jpg,FS,4,num_4,16,num_4,0.833484882372,,,2018_Feb_28_1323,60.0046767261,FEMA4ImagesEEG,001,103117,
AFNE01.JPG,AFNE01.JPG,AFNE01.JPG,AFNE01.JPG,AFNE01.JPG,AFNE01.JPG,,,,,,,,,,,,,,,,,2,9,29,9,,,,,,,AFNE01.jpg,AFSA04.jpg,AFSA08.jpg,AFNE16.jpg,AFSA08.jpg,FS,4,num_2,16,num_2,0.733471764252,,,2018_Feb_28_1323,60.0046767261,FEMA4ImagesEEG,001,103117,
AFNE01.JPG,AFNE01.JPG,AFNE01.JPG,AFNE01.JPG,AFNE01.JPG,AFNE01.JPG,,,,,,,,,,,,,,,,,3,0,30,7,,,,,,,AFSA04.jpg,AFNE14.jpg,AFNE13.jpg,AFSA11.jpg,AFSA11.jpg,FS,4,num_4,16,num_4,0.833161577582,,,2018_Feb_28_1323,60.0046767261,FEMA4ImagesEEG,001,103117,
AFNE01.JPG,AFNE01.JPG,AFNE01.JPG,AFNE01.JPG,AFNE01.JPG,AFNE01.JPG,,,,,,,,,,,,,,,,,3,1,31,8,,,,,,,AFSA02.jpg,AFNE04.jpg,AFSA10.jpg,AFNE15.jpg,AFNE04.jpg,FN,3,num_6,16,num_6,0.950175780919,,,2018_Feb_28_1323,60.0046767261,FEMA4ImagesEEG,001,103117,
AFNE01.JPG,AFNE01.JPG,AFNE01.JPG,AFNE01.JPG,AFNE01.JPG,AFNE01.JPG,,,,,,,,,,,,,,,,,3,2,32,5,,,,,,,AFSA17.jpg,AFNE20.jpg,AFNE16.jpg,AFSA13.jpg,AFNE16.jpg,FN,3,num_2,32,num_6,2.15009328688,,,2018_Feb_28_1323,60.0046767261,FEMA4ImagesEEG,001,103117,
AFNE01.JPG,AFNE01.JPG,AFNE01.JPG,AFNE01.JPG,AFNE01.JPG,AFNE01.JPG,,,,,,,,,,,,,,,,,3,3,33,3,,,,,,,AFNE02.jpg,AFSA05.jpg,AFSA09.jpg,AFNE16.jpg,AFSA05.jpg,FS,4,num_6,32,num_2,1.60006716277,,,2018_Feb_28_1323,60.0046767261,FEMA4ImagesEEG,001,103117,
AFNE01.JPG,AFNE01.JPG,AFNE01.JPG,AFNE01.JPG,AFNE01.JPG,AFNE01.JPG,,,,,,,,,,,,,,,,,3,4,34,2,,,,,,,AFNE11.jpg,AFSA15.jpg,AFNE14.jpg,AFSA02.jpg,AFSA02.jpg,FS,4,num_4,32,num_6,0.93341974041,,,2018_Feb_28_1323,60.0046767261,FEMA4ImagesEEG,001,103117,
AFNE01.JPG,AFNE01.JPG,AFNE01.JPG,AFNE01.JPG,AFNE01.JPG,AFNE01.JPG,,,,,,,,,,,,,,,,,3,5,35,6,,,,,,,AFNE02.jpg,AFSA18.jpg,AFSA07.jpg,AFNE17.jpg,AFNE02.jpg,FN,3,num_8,32,num_4,0.400160241057,,,2018_Feb_28_1323,60.0046767261,FEMA4ImagesEEG,001,103117,
AFNE01.JPG,AFNE01.JPG,AFNE01.JPG,AFNE01.JPG,AFNE01.JPG,AFNE01.JPG,,,,,,,,,,,,,,,,,3,6,36,9,,,,,,,AFSA04.jpg,AFSA08.jpg,AFNE09.jpg,AFNE04.jpg,AFSA08.jpg,FS,4,num_6,16,num_6,0.600156007335,,,2018_Feb_28_1323,60.0046767261,FEMA4ImagesEEG,001,103117,
AFNE01.JPG,AFNE01.JPG,AFNE01.JPG,AFNE01.JPG,AFNE01.JPG,AFNE01.JPG,,,,,,,,,,,,,,,,,3,7,37,1,,,,,,,AFNE03.jpg,AFSA03.jpg,AFNE07.jpg,AFSA07.jpg,AFNE03.jpg,FN,3,num_8,32,num_4,0.650134822587,,,2018_Feb_28_1323,60.0046767261,FEMA4ImagesEEG,001,103117,
AFNE01.JPG,AFNE01.JPG,AFNE01.JPG,AFNE01.JPG,AFNE01.JPG,AFNE01.JPG,,,,,,,,,,,,,,,,,3,8,38,4,,,,,,,AFNE08.jpg,AFNE18.jpg,AFSA17.jpg,AFSA11.jpg,AFSA17.jpg,FS,4,num_2,32,num_6,0.600169799174,,,2018_Feb_28_1323,60.0046767261,FEMA4ImagesEEG,001,103117,
AFNE01.JPG,AFNE01.JPG,AFNE01.JPG,AFNE01.JPG,AFNE01.JPG,AFNE01.JPG,,,,,,,,,,,,,,,,,3,9,39,0,,,,,,,AFSA17.jpg,AFSA18.jpg,AFNE01.jpg,AFNE12.jpg,AFSA18.jpg,FS,4,num_6,32,num_8,0.850139569491,,,2018_Feb_28_1323,60.0046767261,FEMA4ImagesEEG,001,103117,
AFNE01.JPG,AFNE01.JPG,AFNE01.JPG,AFNE01.JPG,AFNE01.JPG,AFNE01.JPG,,,,,,,,,,,,,,,,,4,0,40,5,,,,,,,AFSA08.jpg,AFNE06.jpg,AFSA05.jpg,AFNE17.jpg,AFSA05.jpg,FS,4,num_2,16,num_2,1.05012058176,,,2018_Feb_28_1323,60.0046767261,FEMA4ImagesEEG,001,103117,
AFNE01.JPG,AFNE01.JPG,AFNE01.JPG,AFNE01.JPG,AFNE01.JPG,AFNE01.JPG,,,,,,,,,,,,,,,,,4,1,41,9,,,,,,,AFSA07.jpg,AFNE04.jpg,AFSA15.jpg,AFNE17.jpg,AFNE04.jpg,FN,3,num_6,16,num_6,0.800166527624,,,2018_Feb_28_1323,60.0046767261,FEMA4ImagesEEG,001,103117,
AFNE01.JPG,AFNE01.JPG,AFNE01.JPG,AFNE01.JPG,AFNE01.JPG,AFNE01.JPG,,,,,,,,,,,,,,,,,4,2,42,3,,,,,,,AFNE06.jpg,AFSA04.jpg,AFSA09.jpg,AFNE05.jpg,AFSA04.jpg,FS,4,num_6,32,num_2,1.68337299267,,,2018_Feb_28_1323,60.0046767261,FEMA4ImagesEEG,001,103117,
AFNE01.JPG,AFNE01.JPG,AFNE01.JPG,AFNE01.JPG,AFNE01.JPG,AFNE01.JPG,,,,,,,,,,,,,,,,,4,3,43,6,,,,,,,AFNE04.jpg,AFSA20.jpg,AFNE05.jpg,AFSA19.jpg,AFSA19.jpg,FS,4,num_4,16,num_4,0.916787505033,,,2018_Feb_28_1323,60.0046767261,FEMA4ImagesEEG,001,103117,
AFNE01.JPG,AFNE01.JPG,AFNE01.JPG,AFNE01.JPG,AFNE01.JPG,AFNE01.JPG,,,,,,,,,,,,,,,,,4,4,44,4,,,,,,,AFSA13.jpg,AFNE11.jpg,AFNE06.jpg,AFSA18.jpg,AFSA18.jpg,FS,4,num_4,32,num_6,0.866823764634,,,2018_Feb_28_1323,60.0046767261,FEMA4ImagesEEG,001,103117,
AFNE01.JPG,AFNE01.JPG,AFNE01.JPG,AFNE01.JPG,AFNE01.JPG,AFNE01.JPG,,,,,,,,,,,,,,,,,4,5,45,8,,,,,,,AFSA10.jpg,AFSA19.jpg,AFNE11.jpg,AFNE07.jpg,AFNE07.jpg,FN,3,num_4,16,num_4,2.26666936092,,,2018_Feb_28_1323,60.0046767261,FEMA4ImagesEEG,001,103117,
AFNE01.JPG,AFNE01.JPG,AFNE01.JPG,AFNE01.JPG,AFNE01.JPG,AFNE01.JPG,,,,,,,,,,,,,,,,,4,6,46,0,,,,,,,AFNE14.jpg,AFSA15.jpg,AFNE05.jpg,AFSA11.jpg,AFSA11.jpg,FS,4,num_4,32,num_6,1.48344297789,,,2018_Feb_28_1323,60.0046767261,FEMA4ImagesEEG,001,103117,
AFNE01.JPG,AFNE01.JPG,AFNE01.JPG,AFNE01.JPG,AFNE01.JPG,AFNE01.JPG,,,,,,,,,,,,,,,,,4,7,47,1,,,,,,,AFNE05.jpg,AFNE16.jpg,AFSA04.jpg,AFSA11.jpg,AFSA04.jpg,FS,4,num_2,16,num_2,0.383531854721,,,2018_Feb_28_1323,60.0046767261,FEMA4ImagesEEG,001,103117,
AFNE01.JPG,AFNE01.JPG,AFNE01.JPG,AFNE01.JPG,AFNE01.JPG,AFNE01.JPG,,,,,,,,,,,,,,,,,4,8,48,2,,,,,,,AFSA09.jpg,AFNE03.jpg,AFNE18.jpg,AFSA11.jpg,AFNE18.jpg,FN,3,num_2,32,num_8,0.55018392764,,,2018_Feb_28_1323,60.0046767261,FEMA4ImagesEEG,001,103117,
AFNE01.JPG,AFNE01.JPG,AFNE01.JPG,AFNE01.JPG,AFNE01.JPG,AFNE01.JPG,,,,,,,,,,,,,,,,,4,9,49,7,,,,,,,AFSA01.jpg,AFSA05.jpg,AFNE19.jpg,AFNE09.jpg,AFNE19.jpg,FN,3,num_2,32,num_6,0.433394883177,,,2018_Feb_28_1323,60.0046767261,FEMA4ImagesEEG,001,103117,
AFNE01.JPG,AFNE01.JPG,AFNE01.JPG,AFNE01.JPG,AFNE01.JPG,AFNE01.JPG,,,,,,,,,,,,,,,,,5,0,50,3,,,,,,,AFSA06.jpg,AFNE14.jpg,AFNE10.jpg,AFSA16.jpg,AFNE10.jpg,FN,3,num_2,32,num_4,2.29997745203,,,2018_Feb_28_1323,60.0046767261,FEMA4ImagesEEG,001,103117,
AFNE01.JPG,AFNE01.JPG,AFNE01.JPG,AFNE01.JPG,AFNE01.JPG,AFNE01.JPG,,,,,,,,,,,,,,,,,5,1,51,1,,,,,,,AFNE14.jpg,AFSA08.jpg,AFSA18.jpg,AFNE18.jpg,AFNE14.jpg,FN,3,num_8,32,num_4,0.700161427842,,,2018_Feb_28_1323,60.0046767261,FEMA4ImagesEEG,001,103117,
AFNE01.JPG,AFNE01.JPG,AFNE01.JPG,AFNE01.JPG,AFNE01.JPG,AFNE01.JPG,,,,,,,,,,,,,,,,,5,2,52,9,,,,,,,AFNE06.jpg,AFNE08.jpg,AFSA02.jpg,AFSA17.jpg,AFSA02.jpg,FS,4,num_2,16,num_2,0.900124158012,,,2018_Feb_28_1323,60.0046767261,FEMA4ImagesEEG,001,103117,
AFNE01.JPG,AFNE01.JPG,AFNE01.JPG,AFNE01.JPG,AFNE01.JPG,AFNE01.JPG,,,,,,,,,,,,,,,,,5,3,53,6,,,,,,,AFNE13.jpg,AFSA09.jpg,AFSA07.jpg,AFNE19.jpg,AFNE19.jpg,FN,3,num_4,32,num_8,0.400199691998,,,2018_Feb_28_1323,60.0046767261,FEMA4ImagesEEG,001,103117,
AFNE01.JPG,AFNE01.JPG,AFNE01.JPG,AFNE01.JPG,AFNE01.JPG,AFNE01.JPG,,,,,,,,,,,,,,,,,5,4,54,0,,,,,,,AFNE03.jpg,AFSA16.jpg,AFSA18.jpg,AFNE09.jpg,AFNE03.jpg,FN,3,num_8,16,num_8,1.81670446577,,,2018_Feb_28_1323,60.0046767261,FEMA4ImagesEEG,001,103117,
AFNE01.JPG,AFNE01.JPG,AFNE01.JPG,AFNE01.JPG,AFNE01.JPG,AFNE01.JPG,,,,,,,,,,,,,,,,,5,5,55,8,,,,,,,AFNE20.jpg,AFSA05.jpg,AFSA15.jpg,AFNE16.jpg,AFSA15.jpg,FS,4,num_2,32,num_4,1.00050965406,,,2018_Feb_28_1323,60.0046767261,FEMA4ImagesEEG,001,103117,
AFNE01.JPG,AFNE01.JPG,AFNE01.JPG,AFNE01.JPG,AFNE01.JPG,AFNE01.JPG,,,,,,,,,,,,,,,,,5,6,56,7,,,,,,,AFSA09.jpg,AFNE09.jpg,AFSA01.jpg,AFNE20.jpg,AFNE20.jpg,FN,3,num_4,32,num_6,1.31675530283,,,2018_Feb_28_1323,60.0046767261,FEMA4ImagesEEG,001,103117,
AFNE01.JPG,AFNE01.JPG,AFNE01.JPG,AFNE01.JPG,AFNE01.JPG,AFNE01.JPG,,,,,,,,,,,,,,,,,5,7,57,2,,,,,,,AFNE13.jpg,AFSA11.jpg,AFNE09.jpg,AFSA13.jpg,AFSA13.jpg,FS,4,num_4,16,num_4,1.08349314157,,,2018_Feb_28_1323,60.0046767261,FEMA4ImagesEEG,001,103117,
AFNE01.JPG,AFNE01.JPG,AFNE01.JPG,AFNE01.JPG,AFNE01.JPG,AFNE01.JPG,,,,,,,,,,,,,,,,,5,8,58,4,,,,,,,AFSA13.jpg,AFNE19.jpg,AFNE14.jpg,AFSA01.jpg,AFNE19.jpg,FN,3,num_6,16,num_6,1.01676245534,,,2018_Feb_28_1323,60.0046767261,FEMA4ImagesEEG,001,103117,
AFNE01.JPG,AFNE01.JPG,AFNE01.JPG,AFNE01.JPG,AFNE01.JPG,AFNE01.JPG,,,,,,,,,,,,,,,,,5,9,59,5,,,,,,,AFSA20.jpg,AFNE11.jpg,AFNE07.jpg,AFSA09.jpg,AFSA09.jpg,FS,4,num_4,32,num_8,1.81668522139,,,2018_Feb_28_1323,60.0046767261,FEMA4ImagesEEG,001,103117,
,,,,,,,,,,,,,,,,,,,,,,,,,,,,,,,,,,,,,,,,,,,space,2.38334486389,2018_Feb_28_1323,60.0046767261,FEMA4ImagesEEG,001,103117,
AFNE01.JPG,AFNE01.JPG,AFNE01.JPG,AFNE01.JPG,AFNE01.JPG,AFNE01.JPG,,,,,,,,,,,,,,,,,,,,,0,0,0,0,,,AMNE05.jpg,AMSA18.jpg,AMNE10.jpg,AMSA15.jpg,AMSA18.jpg,MS,2,num_6,32,num_2,0.76677247847,,,2018_Feb_28_1323,60.0046767261,FEMA4ImagesEEG,001,103117,
AFNE01.JPG,AFNE01.JPG,AFNE01.JPG,AFNE01.JPG,AFNE01.JPG,AFNE01.JPG,,,,,,,,,,,,,,,,,,,,,0,1,1,2,,,AMNE16.jpg,AMSA07.jpg,AMNE09.jpg,AMSA02.jpg,AMNE16.jpg,MN,1,num_8,32,num_4,0.783471106668,,,2018_Feb_28_1323,60.0046767261,FEMA4ImagesEEG,001,103117,
AFNE01.JPG,AFNE01.JPG,AFNE01.JPG,AFNE01.JPG,AFNE01.JPG,AFNE01.JPG,,,,,,,,,,,,,,,,,,,,,0,2,2,8,,,AMSA20.jpg,AMNE03.jpg,AMSA08.jpg,AMNE09.jpg,AMSA20.jpg,MS,2,num_8,16,num_8,0.50018939632,,,2018_Feb_28_1323,60.0046767261,FEMA4ImagesEEG,001,103117,
AFNE01.JPG,AFNE01.JPG,AFNE01.JPG,AFNE01.JPG,AFNE01.JPG,AFNE01.JPG,,,,,,,,,,,,,,,,,,,,,0,3,3,7,,,AMSA01.jpg,AMNE06.jpg,AMSA03.jpg,AMNE16.jpg,AMSA03.jpg,MS,2,num_2,32,num_6,0.450008836342,,,2018_Feb_28_1323,60.0046767261,FEMA4ImagesEEG,001,103117,
AFNE01.JPG,AFNE01.JPG,AFNE01.JPG,AFNE01.JPG,AFNE01.JPG,AFNE01.JPG,,,,,,,,,,,,,,,,,,,,,0,4,4,5,,,AMNE18.jpg,AMSA19.jpg,AMNE08.jpg,AMSA13.jpg,AMNE08.jpg,MN,1,num_2,32,num_6,0.500180736417,,,2018_Feb_28_1323,60.0046767261,FEMA4ImagesEEG,001,103117,
AFNE01.JPG,AFNE01.JPG,AFNE01.JPG,AFNE01.JPG,AFNE01.JPG,AFNE01.JPG,,,,,,,,,,,,,,,,,,,,,0,5,5,9,,,AMSA07.jpg,AMNE07.jpg,AMNE20.jpg,AMSA19.jpg,AMSA07.jpg,MS,2,num_8,32,num_4,0.350128183258,,,2018_Feb_28_1323,60.0046767261,FEMA4ImagesEEG,001,103117,
AFNE01.JPG,AFNE01.JPG,AFNE01.JPG,AFNE01.JPG,AFNE01.JPG,AFNE01.JPG,,,,,,,,,,,,,,,,,,,,,0,6,6,6,,,AMNE17.jpg,AMSA10.jpg,AMSA15.jpg,AMNE05.jpg,AMNE05.jpg,MN,1,num_4,32,num_8,0.383620378561,,,2018_Feb_28_1323,60.0046767261,FEMA4ImagesEEG,001,103117,
AFNE01.JPG,AFNE01.JPG,AFNE01.JPG,AFNE01.JPG,AFNE01.JPG,AFNE01.JPG,,,,,,,,,,,,,,,,,,,,,0,7,7,4,,,AMSA19.jpg,AMSA13.jpg,AMNE13.jpg,AMNE06.jpg,AMNE06.jpg,MN,1,num_4,32,num_8,1.71675260866,,,2018_Feb_28_1323,60.0046767261,FEMA4ImagesEEG,001,103117,
AFNE01.JPG,AFNE01.JPG,AFNE01.JPG,AFNE01.JPG,AFNE01.JPG,AFNE01.JPG,,,,,,,,,,,,,,,,,,,,,0,8,8,1,,,AMSA04.jpg,AMNE01.jpg,AMNE11.jpg,AMSA15.jpg,AMSA04.jpg,MS,2,num_8,32,num_6,0.466833194252,,,2018_Feb_28_1323,60.0046767261,FEMA4ImagesEEG,001,103117,
AFNE01.JPG,AFNE01.JPG,AFNE01.JPG,AFNE01.JPG,AFNE01.JPG,AFNE01.JPG,,,,,,,,,,,,,,,,,,,,,0,9,9,3,,,AMNE08.jpg,AMSA15.jpg,AMSA16.jpg,AMNE04.jpg,AMSA15.jpg,MS,2,num_6,32,num_2,1.25014425232,,,2018_Feb_28_1323,60.0046767261,FEMA4ImagesEEG,001,103117,
AFNE01.JPG,AFNE01.JPG,AFNE01.JPG,AFNE01.JPG,AFNE01.JPG,AFNE01.JPG,,,,,,,,,,,,,,,,,,,,,1,0,10,6,,,AMSA01.jpg,AMNE11.jpg,AMNE09.jpg,AMSA10.jpg,AMNE09.jpg,MN,1,num_2,32,num_6,2.36669434642,,,2018_Feb_28_1323,60.0046767261,FEMA4ImagesEEG,001,103117,
AFNE01.JPG,AFNE01.JPG,AFNE01.JPG,AFNE01.JPG,AFNE01.JPG,AFNE01.JPG,,,,,,,,,,,,,,,,,,,,,1,1,11,4,,,AMNE12.jpg,AMSA04.jpg,AMNE11.jpg,AMSA05.jpg,AMNE12.jpg,MN,1,num_8,32,num_6,0.916816692334,,,2018_Feb_28_1323,60.0046767261,FEMA4ImagesEEG,001,103117,
AFNE01.JPG,AFNE01.JPG,AFNE01.JPG,AFNE01.JPG,AFNE01.JPG,AFNE01.JPG,,,,,,,,,,,,,,,,,,,,,1,2,12,7,,,AMNE12.jpg,AMSA13.jpg,AMSA07.jpg,AMNE04.jpg,AMNE04.jpg,MN,1,num_4,16,num_4,1.00014337024,,,2018_Feb_28_1323,60.0046767261,FEMA4ImagesEEG,001,103117,
AFNE01.JPG,AFNE01.JPG,AFNE01.JPG,AFNE01.JPG,AFNE01.JPG,AFNE01.JPG,,,,,,,,,,,,,,,,,,,,,1,3,13,5,,,AMSA05.jpg,AMNE07.jpg,AMSA20.jpg,AMNE13.jpg,AMNE07.jpg,MN,1,num_6,32,num_8,0.799987876089,,,2018_Feb_28_1323,60.0046767261,FEMA4ImagesEEG,001,103117,
AFNE01.JPG,AFNE01.JPG,AFNE01.JPG,AFNE01.JPG,AFNE01.JPG,AFNE01.JPG,,,,,,,,,,,,,,,,,,,,,1,4,14,2,,,AMSA01.jpg,AMSA17.jpg,AMNE07.jpg,AMNE14.jpg,AMNE07.jpg,MN,1,num_2,16,num_2,0.733545213356,,,2018_Feb_28_1323,60.0046767261,FEMA4ImagesEEG,001,103117,
AFNE01.JPG,AFNE01.JPG,AFNE01.JPG,AFNE01.JPG,AFNE01.JPG,AFNE01.JPG,,,,,,,,,,,,,,,,,,,,,1,5,15,9,,,AMNE06.jpg,AMSA13.jpg,AMNE11.jpg,AMSA19.jpg,AMNE11.jpg,MN,1,num_2,32,num_8,0.966808016296,,,2018_Feb_28_1323,60.0046767261,FEMA4ImagesEEG,001,103117,
AFNE01.JPG,AFNE01.JPG,AFNE01.JPG,AFNE01.JPG,AFNE01.JPG,AFNE01.JPG,,,,,,,,,,,,,,,,,,,,,1,6,16,1,,,AMSA18.jpg,AMNE05.jpg,AMSA15.jpg,AMNE10.jpg,AMSA15.jpg,MS,2,num_2,16,num_2,0.500212489511,,,2018_Feb_28_1323,60.0046767261,FEMA4ImagesEEG,001,103117,
AFNE01.JPG,AFNE01.JPG,AFNE01.JPG,AFNE01.JPG,AFNE01.JPG,AFNE01.JPG,,,,,,,,,,,,,,,,,,,,,1,7,17,3,,,AMNE02.jpg,AMSA18.jpg,AMSA13.jpg,AMNE12.jpg,AMSA18.jpg,MS,2,num_6,16,num_6,0.766800703481,,,2018_Feb_28_1323,60.0046767261,FEMA4ImagesEEG,001,103117,
AFNE01.JPG,AFNE01.JPG,AFNE01.JPG,AFNE01.JPG,AFNE01.JPG,AFNE01.JPG,,,,,,,,,,,,,,,,,,,,,1,8,18,0,,,AMNE19.jpg,AMSA08.jpg,AMSA10.jpg,AMNE03.jpg,AMNE03.jpg,MN,1,num_4,16,num_4,0.850136041408,,,2018_Feb_28_1323,60.0046767261,FEMA4ImagesEEG,001,103117,
AFNE01.JPG,AFNE01.JPG,AFNE01.JPG,AFNE01.JPG,AFNE01.JPG,AFNE01.JPG,,,,,,,,,,,,,,,,,,,,,1,9,19,8,,,AMNE08.jpg,AMSA18.jpg,AMNE17.jpg,AMSA17.jpg,AMSA18.jpg,MS,2,num_6,32,num_2,1.41662023973,,,2018_Feb_28_1323,60.0046767261,FEMA4ImagesEEG,001,103117,
AFNE01.JPG,AFNE01.JPG,AFNE01.JPG,AFNE01.JPG,AFNE01.JPG,AFNE01.JPG,,,,,,,,,,,,,,,,,,,,,2,0,20,3,,,AMNE15.jpg,AMSA06.jpg,AMNE09.jpg,AMSA20.jpg,AMNE09.jpg,MN,1,num_2,32,num_8,0.85010364675,,,2018_Feb_28_1323,60.0046767261,FEMA4ImagesEEG,001,103117,
AFNE01.JPG,AFNE01.JPG,AFNE01.JPG,AFNE01.JPG,AFNE01.JPG,AFNE01.JPG,,,,,,,,,,,,,,,,,,,,,2,1,21,9,,,AMSA14.jpg,AMNE20.jpg,AMSA19.jpg,AMNE08.jpg,AMNE20.jpg,MN,1,num_6,32,num_2,0.816788499244,,,2018_Feb_28_1323,60.0046767261,FEMA4ImagesEEG,001,103117,
AFNE01.JPG,AFNE01.JPG,AFNE01.JPG,AFNE01.JPG,AFNE01.JPG,AFNE01.JPG,,,,,,,,,,,,,,,,,,,,,2,2,22,5,,,AMSA13.jpg,AMNE08.jpg,AMSA15.jpg,AMNE17.jpg,AMNE08.jpg,MN,1,num_6,32,num_4,0.966653740848,,,2018_Feb_28_1323,60.0046767261,FEMA4ImagesEEG,001,103117,
AFNE01.JPG,AFNE01.JPG,AFNE01.JPG,AFNE01.JPG,AFNE01.JPG,AFNE01.JPG,,,,,,,,,,,,,,,,,,,,,2,3,23,8,,,AMNE17.jpg,AMNE18.jpg,AMSA11.jpg,AMSA06.jpg,AMNE17.jpg,MN,1,num_8,32,num_6,1.30009227653,,,2018_Feb_28_1323,60.0046767261,FEMA4ImagesEEG,001,103117,
AFNE01.JPG,AFNE01.JPG,AFNE01.JPG,AFNE01.JPG,AFNE01.JPG,AFNE01.JPG,,,,,,,,,,,,,,,,,,,,,2,4,24,2,,,AMNE06.jpg,AMSA20.jpg,AMNE11.jpg,AMSA02.jpg,AMNE11.jpg,MN,1,num_2,16,num_2,0.866780144162,,,2018_Feb_28_1323,60.0046767261,FEMA4ImagesEEG,001,103117,
AFNE01.JPG,AFNE01.JPG,AFNE01.JPG,AFNE01.JPG,AFNE01.JPG,AFNE01.JPG,,,,,,,,,,,,,,,,,,,,,2,5,25,6,,,AMNE03.jpg,AMSA13.jpg,AMNE05.jpg,AMSA16.jpg,AMSA16.jpg,MS,2,num_4,32,num_2,1.00011739042,,,2018_Feb_28_1323,60.0046767261,FEMA4ImagesEEG,001,103117,
AFNE01.JPG,AFNE01.JPG,AFNE01.JPG,AFNE01.JPG,AFNE01.JPG,AFNE01.JPG,,,,,,,,,,,,,,,,,,,,,2,6,26,7,,,AMSA19.jpg,AMNE06.jpg,AMNE04.jpg,AMSA02.jpg,AMNE06.jpg,MN,1,num_6,32,num_2,1.23349662148,,,2018_Feb_28_1323,60.0046767261,FEMA4ImagesEEG,001,103117,
AFNE01.JPG,AFNE01.JPG,AFNE01.JPG,AFNE01.JPG,AFNE01.JPG,AFNE01.JPG,,,,,,,,,,,,,,,,,,,,,2,7,27,4,,,AMSA04.jpg,AMNE01.jpg,AMSA10.jpg,AMNE10.jpg,AMSA10.jpg,MS,2,num_2,16,num_2,0.883498337469,,,2018_Feb_28_1323,60.0046767261,FEMA4ImagesEEG,001,103117,
AFNE01.JPG,AFNE01.JPG,AFNE01.JPG,AFNE01.JPG,AFNE01.JPG,AFNE01.JPG,,,,,,,,,,,,,,,,,,,,,2,8,28,0,,,AMNE11.jpg,AMSA05.jpg,AMSA07.jpg,AMNE17.jpg,AMNE11.jpg,MN,1,num_8,32,num_2,2.18320508592,,,2018_Feb_28_1323,60.0046767261,FEMA4ImagesEEG,001,103117,
AFNE01.JPG,AFNE01.JPG,AFNE01.JPG,AFNE01.JPG,AFNE01.JPG,AFNE01.JPG,,,,,,,,,,,,,,,,,,,,,2,9,29,1,,,AMNE14.jpg,AMNE11.jpg,AMSA17.jpg,AMSA10.jpg,AMNE14.jpg,MN,1,num_8,32,num_4,2.10012216948,,,2018_Feb_28_1323,60.0046767261,FEMA4ImagesEEG,001,103117,
AFNE01.JPG,AFNE01.JPG,AFNE01.JPG,AFNE01.JPG,AFNE01.JPG,AFNE01.JPG,,,,,,,,,,,,,,,,,,,,,3,0,30,3,,,AMNE03.jpg,AMSA12.jpg,AMNE19.jpg,AMSA19.jpg,AMSA19.jpg,MS,2,num_4,32,num_2,1.03347712057,,,2018_Feb_28_1323,60.0046767261,FEMA4ImagesEEG,001,103117,
AFNE01.JPG,AFNE01.JPG,AFNE01.JPG,AFNE01.JPG,AFNE01.JPG,AFNE01.JPG,,,,,,,,,,,,,,,,,,,,,3,1,31,8,,,AMNE01.jpg,AMNE07.jpg,AMSA09.jpg,AMSA13.jpg,AMNE01.jpg,MN,1,num_8,16,num_8,0.916771468124,,,2018_Feb_28_1323,60.0046767261,FEMA4ImagesEEG,001,103117,
AFNE01.JPG,AFNE01.JPG,AFNE01.JPG,AFNE01.JPG,AFNE01.JPG,AFNE01.JPG,,,,,,,,,,,,,,,,,,,,,3,2,32,7,,,AMNE08.jpg,AMSA02.jpg,AMSA16.jpg,AMNE13.jpg,AMSA16.jpg,MS,2,num_2,32,num_6,1.76671217952,,,2018_Feb_28_1323,60.0046767261,FEMA4ImagesEEG,001,103117,
AFNE01.JPG,AFNE01.JPG,AFNE01.JPG,AFNE01.JPG,AFNE01.JPG,AFNE01.JPG,,,,,,,,,,,,,,,,,,,,,3,3,33,0,,,AMSA03.jpg,AMSA14.jpg,AMNE05.jpg,AMNE09.jpg,AMNE09.jpg,MN,1,num_4,32,num_2,0.833471732098,,,2018_Feb_28_1323,60.0046767261,FEMA4ImagesEEG,001,103117,
AFNE01.JPG,AFNE01.JPG,AFNE01.JPG,AFNE01.JPG,AFNE01.JPG,AFNE01.JPG,,,,,,,,,,,,,,,,,,,,,3,4,34,1,,,AMSA16.jpg,AMNE03.jpg,AMNE02.jpg,AMSA09.jpg,AMNE03.jpg,MN,1,num_6,32,num_8,1.36674855126,,,2018_Feb_28_1323,60.0046767261,FEMA4ImagesEEG,001,103117,
AFNE01.JPG,AFNE01.JPG,AFNE01.JPG,AFNE01.JPG,AFNE01.JPG,AFNE01.JPG,,,,,,,,,,,,,,,,,,,,,3,5,35,9,,,AMSA19.jpg,AMSA04.jpg,AMNE13.jpg,AMNE10.jpg,AMNE13.jpg,MN,1,num_2,32,num_4,2.08307842608,,,2018_Feb_28_1323,60.0046767261,FEMA4ImagesEEG,001,103117,
AFNE01.JPG,AFNE01.JPG,AFNE01.JPG,AFNE01.JPG,AFNE01.JPG,AFNE01.JPG,,,,,,,,,,,,,,,,,,,,,3,6,36,2,,,AMSA20.jpg,AMNE20.jpg,AMSA07.jpg,AMNE12.jpg,AMNE12.jpg,MN,1,num_4,16,num_4,1.0001414459,,,2018_Feb_28_1323,60.0046767261,FEMA4ImagesEEG,001,103117,
AFNE01.JPG,AFNE01.JPG,AFNE01.JPG,AFNE01.JPG,AFNE01.JPG,AFNE01.JPG,,,,,,,,,,,,,,,,,,,,,3,7,37,4,,,AMSA20.jpg,AMSA03.jpg,AMNE06.jpg,AMNE12.jpg,AMSA03.jpg,MS,2,num_6,32,num_4,0.966799356393,,,2018_Feb_28_1323,60.0046767261,FEMA4ImagesEEG,001,103117,
AFNE01.JPG,AFNE01.JPG,AFNE01.JPG,AFNE01.JPG,AFNE01.JPG,AFNE01.JPG,,,,,,,,,,,,,,,,,,,,,3,8,38,5,,,AMSA19.jpg,AMSA09.jpg,AMNE11.jpg,AMNE14.jpg,AMNE14.jpg,MN,1,num_4,32,num_8,0.266980156885,,,2018_Feb_28_1323,60.0046767261,FEMA4ImagesEEG,001,103117,
