IPosition2,IPosition3,IPosition1,IPosition6,IPosition4,IPosition5,TrialsM1.thisRepN,TrialsM1.thisTrialN,TrialsM1.thisN,TrialsM1.thisIndex,TrialsF1.thisRepN,TrialsF1.thisTrialN,TrialsF1.thisN,TrialsF1.thisIndex,TrialsM2.thisRepN,TrialsM2.thisTrialN,TrialsM2.thisN,TrialsM2.thisIndex,TrialsF2.thisRepN,TrialsF2.thisTrialN,TrialsF2.thisN,TrialsF2.thisIndex,TrialsM3.thisRepN,TrialsM3.thisTrialN,TrialsM3.thisN,TrialsM3.thisIndex,TrialsF3.thisRepN,TrialsF3.thisTrialN,TrialsF3.thisN,TrialsF3.thisIndex,InstrKey_resp.keys,InstrKey_resp.rt,Image0 _Position,Image1 _Position,Image2 _Position,Image3 _Position,Center_image,condition,code,correct_answer,accuracy,Key_Resp.keys,Key_Resp.rt,BreakKey_resp.keys,BreakKey_resp.rt,date,frameRate,expName,session,participant,
,,,,,,,,,,,,,,,,,,,,,,,,,,,,,,space,24.1819874155,,,,,,,,,,,,,,2018_Mar_23_1843,59.9942272494,MAFE4ImagesEEG,001,103169,
AMNE23.JPG,AMNE24.JPG,AMNE22.JPG,AMSA24.JPG,AMSA22.JPG,AMSA23.JPG,0,0,0,9,,,,,,,,,,,,,,,,,,,,,,,AMNE02.jpg,AMNE04.jpg,AMSA15.jpg,AMSA16.jpg,AMSA16.jpg,MS,2,num_4,32,num_6,2.83331601342,,,2018_Mar_23_1843,59.9942272494,MAFE4ImagesEEG,001,103169,
AFSA25.JPG,AFNE24.JPG,AFSA24.JPG,AFNE21.JPG,AFSA21.JPG,AFNE25.JPG,0,1,1,2,,,,,,,,,,,,,,,,,,,,,,,AMNE15.jpg,AMNE17.jpg,AMSA11.jpg,AMSA16.jpg,AMNE15.jpg,MN,1,num_8,32,num_4,1.65013031633,,,2018_Mar_23_1843,59.9942272494,MAFE4ImagesEEG,001,103169,
AFNE22.JPG,AFSA24.JPG,AFSA22.JPG,AFNE25.JPG,AFNE24.JPG,AFSA25.JPG,0,2,2,6,,,,,,,,,,,,,,,,,,,,,,,AMSA16.jpg,AMNE10.jpg,AMNE06.jpg,AMSA14.jpg,AMSA16.jpg,MS,2,num_8,16,num_8,2.91661647098,,,2018_Mar_23_1843,59.9942272494,MAFE4ImagesEEG,001,103169,
AMSA21.JPG,AMNE22.JPG,AMNE21.JPG,AMSA23.JPG,AMSA22.JPG,AMNE23.JPG,0,3,3,1,,,,,,,,,,,,,,,,,,,,,,,AMSA14.jpg,AMNE12.jpg,AMSA19.jpg,AMNE07.jpg,AMSA14.jpg,MS,2,num_8,32,num_2,3.18301827123,,,2018_Mar_23_1843,59.9942272494,MAFE4ImagesEEG,001,103169,
AMSA25.JPG,AMNE24.JPG,AMSA24.JPG,AMNE26.JPG,AMSA21.JPG,AMNE25.JPG,0,4,4,3,,,,,,,,,,,,,,,,,,,,,,,AMNE08.jpg,AMNE14.jpg,AMSA02.jpg,AMSA01.jpg,AMNE14.jpg,MN,1,num_6,32,num_4,2.89999576624,,,2018_Mar_23_1843,59.9942272494,MAFE4ImagesEEG,001,103169,
AFSA21.JPG,AFNE23.JPG,AFNE21.JPG,AFSA25.JPG,AFNE25.JPG,AFSA23.JPG,0,5,5,4,,,,,,,,,,,,,,,,,,,,,,,AMSA16.jpg,AMNE14.jpg,AMSA17.jpg,AMNE01.jpg,AMSA17.jpg,MS,2,num_2,48,None,,,,2018_Mar_23_1843,59.9942272494,MAFE4ImagesEEG,001,103169,
AMNE22.JPG,AMSA24.JPG,AMSA22.JPG,AMNE25.JPG,AMNE24.JPG,AMSA25.JPG,0,6,6,7,,,,,,,,,,,,,,,,,,,,,,,AMNE09.jpg,AMSA16.jpg,AMNE07.jpg,AMSA10.jpg,AMSA10.jpg,MS,2,num_4,32,num_6,1.73336790902,,,2018_Mar_23_1843,59.9942272494,MAFE4ImagesEEG,001,103169,
AFNE23.JPG,AFNE24.JPG,AFNE22.JPG,AFSA24.JPG,AFSA22.JPG,AFSA23.JPG,0,7,7,8,,,,,,,,,,,,,,,,,,,,,,,AMSA12.jpg,AMSA01.jpg,AMNE14.jpg,AMNE05.jpg,AMSA01.jpg,MS,2,num_6,32,num_4,3.14997892743,,,2018_Mar_23_1843,59.9942272494,MAFE4ImagesEEG,001,103169,
AFSA21.JPG,AFNE22.JPG,AFNE21.JPG,AFSA23.JPG,AFSA22.JPG,AFNE23.JPG,0,8,8,0,,,,,,,,,,,,,,,,,,,,,,,AMNE17.jpg,AMSA11.jpg,AMNE15.jpg,AMSA04.jpg,AMNE17.jpg,MN,1,num_8,16,num_8,1.30006947211,,,2018_Mar_23_1843,59.9942272494,MAFE4ImagesEEG,001,103169,
AMSA21.JPG,AMNE23.JPG,AMNE21.JPG,AMSA25.JPG,AMNE25.JPG,AMSA23.JPG,0,9,9,5,,,,,,,,,,,,,,,,,,,,,,,AMSA12.jpg,AMSA03.jpg,AMNE15.jpg,AMNE12.jpg,AMNE12.jpg,MN,1,num_4,32,num_2,3.8999717108,,,2018_Mar_23_1843,59.9942272494,MAFE4ImagesEEG,001,103169,
AMNE22.JPG,AMSA24.JPG,AMSA22.JPG,AMNE25.JPG,AMNE24.JPG,AMSA25.JPG,,,,,0,0,0,7,,,,,,,,,,,,,,,,,,,AFSA19.jpg,AFSA05.jpg,AFNE19.jpg,AFNE05.jpg,AFSA19.jpg,FS,4,num_8,32,num_4,1.41681148041,,,2018_Mar_23_1843,59.9942272494,MAFE4ImagesEEG,001,103169,
AFSA21.JPG,AFNE22.JPG,AFNE21.JPG,AFSA23.JPG,AFSA22.JPG,AFNE23.JPG,,,,,0,1,1,0,,,,,,,,,,,,,,,,,,,AFNE12.jpg,AFSA10.jpg,AFNE05.jpg,AFSA02.jpg,AFSA02.jpg,FS,4,num_4,32,num_8,1.68347628679,,,2018_Mar_23_1843,59.9942272494,MAFE4ImagesEEG,001,103169,
AFSA25.JPG,AFNE24.JPG,AFSA24.JPG,AFNE21.JPG,AFSA21.JPG,AFNE25.JPG,,,,,0,2,2,2,,,,,,,,,,,,,,,,,,,AFNE07.jpg,AFNE02.jpg,AFSA17.jpg,AFSA15.jpg,AFSA17.jpg,FS,4,num_2,16,num_2,3.09993623705,,,2018_Mar_23_1843,59.9942272494,MAFE4ImagesEEG,001,103169,
AMSA21.JPG,AMNE23.JPG,AMNE21.JPG,AMSA25.JPG,AMNE25.JPG,AMSA23.JPG,,,,,0,3,3,5,,,,,,,,,,,,,,,,,,,AFSA07.jpg,AFSA17.jpg,AFNE19.jpg,AFNE14.jpg,AFNE19.jpg,FN,3,num_2,32,num_4,1.78339167579,,,2018_Mar_23_1843,59.9942272494,MAFE4ImagesEEG,001,103169,
AFNE22.JPG,AFSA24.JPG,AFSA22.JPG,AFNE25.JPG,AFNE24.JPG,AFSA25.JPG,,,,,0,4,4,6,,,,,,,,,,,,,,,,,,,AFNE02.jpg,AFNE01.jpg,AFSA06.jpg,AFSA10.jpg,AFNE02.jpg,FN,3,num_8,32,num_2,1.98336871087,,,2018_Mar_23_1843,59.9942272494,MAFE4ImagesEEG,001,103169,
AFNE23.JPG,AFNE24.JPG,AFNE22.JPG,AFSA24.JPG,AFSA22.JPG,AFSA23.JPG,,,,,0,5,5,8,,,,,,,,,,,,,,,,,,,AFNE13.jpg,AFSA05.jpg,AFNE08.jpg,AFSA08.jpg,AFSA05.jpg,FS,4,num_6,32,num_8,2.14987019685,,,2018_Mar_23_1843,59.9942272494,MAFE4ImagesEEG,001,103169,
AMNE23.JPG,AMNE24.JPG,AMNE22.JPG,AMSA24.JPG,AMSA22.JPG,AMSA23.JPG,,,,,0,6,6,9,,,,,,,,,,,,,,,,,,,AFSA09.jpg,AFSA08.jpg,AFNE04.jpg,AFNE19.jpg,AFNE19.jpg,FN,3,num_4,32,num_8,1.51675477372,,,2018_Mar_23_1843,59.9942272494,MAFE4ImagesEEG,001,103169,
AMSA25.JPG,AMNE24.JPG,AMSA24.JPG,AMNE26.JPG,AMSA21.JPG,AMNE25.JPG,,,,,0,7,7,3,,,,,,,,,,,,,,,,,,,AFSA14.jpg,AFNE13.jpg,AFNE01.jpg,AFSA18.jpg,AFNE01.jpg,FN,3,num_2,16,num_2,2.96659854167,,,2018_Mar_23_1843,59.9942272494,MAFE4ImagesEEG,001,103169,
AMSA21.JPG,AMNE22.JPG,AMNE21.JPG,AMSA23.JPG,AMSA22.JPG,AMNE23.JPG,,,,,0,8,8,1,,,,,,,,,,,,,,,,,,,AFSA13.jpg,AFSA04.jpg,AFNE12.jpg,AFNE05.jpg,AFSA13.jpg,FS,4,num_8,16,num_8,1.00014433263,,,2018_Mar_23_1843,59.9942272494,MAFE4ImagesEEG,001,103169,
AFSA21.JPG,AFNE23.JPG,AFNE21.JPG,AFSA25.JPG,AFNE25.JPG,AFSA23.JPG,,,,,0,9,9,4,,,,,,,,,,,,,,,,,,,AFNE05.jpg,AFSA12.jpg,AFSA20.jpg,AFNE12.jpg,AFNE12.jpg,FN,3,num_4,32,num_8,1.95009073712,,,2018_Mar_23_1843,59.9942272494,MAFE4ImagesEEG,001,103169,
AMNE22.JPG,AMSA24.JPG,AMSA22.JPG,AMNE25.JPG,AMNE24.JPG,AMSA25.JPG,,,,,,,,,0,0,0,7,,,,,,,,,,,,,,,AMNE13.jpg,AMSA19.jpg,AMNE02.jpg,AMSA09.jpg,AMSA19.jpg,MS,2,num_6,32,num_8,2.33304883767,,,2018_Mar_23_1843,59.9942272494,MAFE4ImagesEEG,001,103169,
AMSA21.JPG,AMNE22.JPG,AMNE21.JPG,AMSA23.JPG,AMSA22.JPG,AMNE23.JPG,,,,,,,,,0,1,1,1,,,,,,,,,,,,,,,AMSA11.jpg,AMNE12.jpg,AMNE18.jpg,AMSA13.jpg,AMNE12.jpg,MN,1,num_6,32,num_4,2.33336476577,,,2018_Mar_23_1843,59.9942272494,MAFE4ImagesEEG,001,103169,
AFNE23.JPG,AFNE24.JPG,AFNE22.JPG,AFSA24.JPG,AFSA22.JPG,AFSA23.JPG,,,,,,,,,0,2,2,8,,,,,,,,,,,,,,,AMSA10.jpg,AMNE18.jpg,AMSA20.jpg,AMNE07.jpg,AMSA10.jpg,MS,2,num_8,16,num_8,1.13347914137,,,2018_Mar_23_1843,59.9942272494,MAFE4ImagesEEG,001,103169,
AMSA25.JPG,AMNE24.JPG,AMSA24.JPG,AMNE26.JPG,AMSA21.JPG,AMNE25.JPG,,,,,,,,,0,3,3,3,,,,,,,,,,,,,,,AMSA15.jpg,AMSA05.jpg,AMNE17.jpg,AMNE08.jpg,AMSA15.jpg,MS,2,num_8,16,num_8,3.03353167845,,,2018_Mar_23_1843,59.9942272494,MAFE4ImagesEEG,001,103169,
AFSA21.JPG,AFNE23.JPG,AFNE21.JPG,AFSA25.JPG,AFNE25.JPG,AFSA23.JPG,,,,,,,,,0,4,4,4,,,,,,,,,,,,,,,AMSA11.jpg,AMNE18.jpg,AMNE10.jpg,AMSA15.jpg,AMNE10.jpg,MN,1,num_2,32,num_4,1.60010045551,,,2018_Mar_23_1843,59.9942272494,MAFE4ImagesEEG,001,103169,
AMNE23.JPG,AMNE24.JPG,AMNE22.JPG,AMSA24.JPG,AMSA22.JPG,AMSA23.JPG,,,,,,,,,0,5,5,9,,,,,,,,,,,,,,,AMSA15.jpg,AMSA02.jpg,AMNE01.jpg,AMNE19.jpg,AMSA02.jpg,MS,2,num_6,32,num_8,2.53331485876,,,2018_Mar_23_1843,59.9942272494,MAFE4ImagesEEG,001,103169,
AFNE22.JPG,AFSA24.JPG,AFSA22.JPG,AFNE25.JPG,AFNE24.JPG,AFSA25.JPG,,,,,,,,,0,6,6,6,,,,,,,,,,,,,,,AMSA11.jpg,AMNE13.jpg,AMNE02.jpg,AMSA08.jpg,AMNE13.jpg,MN,1,num_6,16,num_6,0.833501721405,,,2018_Mar_23_1843,59.9942272494,MAFE4ImagesEEG,001,103169,
AMSA21.JPG,AMNE23.JPG,AMNE21.JPG,AMSA25.JPG,AMNE25.JPG,AMSA23.JPG,,,,,,,,,0,7,7,5,,,,,,,,,,,,,,,AMSA05.jpg,AMNE08.jpg,AMNE06.jpg,AMSA19.jpg,AMSA05.jpg,MS,2,num_8,16,num_8,1.96669797081,,,2018_Mar_23_1843,59.9942272494,MAFE4ImagesEEG,001,103169,
AFSA21.JPG,AFNE22.JPG,AFNE21.JPG,AFSA23.JPG,AFSA22.JPG,AFNE23.JPG,,,,,,,,,0,8,8,0,,,,,,,,,,,,,,,AMSA11.jpg,AMNE10.jpg,AMNE01.jpg,AMSA10.jpg,AMSA10.jpg,MS,2,num_4,16,num_4,1.18342721369,,,2018_Mar_23_1843,59.9942272494,MAFE4ImagesEEG,001,103169,
AFSA25.JPG,AFNE24.JPG,AFSA24.JPG,AFNE21.JPG,AFSA21.JPG,AFNE25.JPG,,,,,,,,,0,9,9,2,,,,,,,,,,,,,,,AMNE01.jpg,AMNE08.jpg,AMSA10.jpg,AMSA20.jpg,AMNE08.jpg,MN,1,num_6,32,num_2,1.3667636582,,,2018_Mar_23_1843,59.9942272494,MAFE4ImagesEEG,001,103169,
AMNE22.JPG,AMSA24.JPG,AMSA22.JPG,AMNE25.JPG,AMNE24.JPG,AMSA25.JPG,,,,,,,,,,,,,0,0,0,7,,,,,,,,,,,AFSA09.jpg,AFSA19.jpg,AFNE05.jpg,AFNE13.jpg,AFNE13.jpg,FN,3,num_4,16,num_4,1.70002803261,,,2018_Mar_23_1843,59.9942272494,MAFE4ImagesEEG,001,103169,
AMNE23.JPG,AMNE24.JPG,AMNE22.JPG,AMSA24.JPG,AMSA22.JPG,AMSA23.JPG,,,,,,,,,,,,,0,1,1,9,,,,,,,,,,,AFNE07.jpg,AFSA01.jpg,AFSA13.jpg,AFNE03.jpg,AFSA01.jpg,FS,4,num_6,32,num_8,1.78336537518,,,2018_Mar_23_1843,59.9942272494,MAFE4ImagesEEG,001,103169,
AFSA21.JPG,AFNE22.JPG,AFNE21.JPG,AFSA23.JPG,AFSA22.JPG,AFNE23.JPG,,,,,,,,,,,,,0,2,2,0,,,,,,,,,,,AFNE01.jpg,AFNE15.jpg,AFSA16.jpg,AFSA09.jpg,AFNE15.jpg,FN,3,num_6,32,num_8,2.68332072828,,,2018_Mar_23_1843,59.9942272494,MAFE4ImagesEEG,001,103169,
AMSA25.JPG,AMNE24.JPG,AMSA24.JPG,AMNE26.JPG,AMSA21.JPG,AMNE25.JPG,,,,,,,,,,,,,0,3,3,3,,,,,,,,,,,AFNE14.jpg,AFSA17.jpg,AFSA11.jpg,AFNE20.jpg,AFNE14.jpg,FN,3,num_8,32,num_2,2.05003659634,,,2018_Mar_23_1843,59.9942272494,MAFE4ImagesEEG,001,103169,
AMSA21.JPG,AMNE23.JPG,AMNE21.JPG,AMSA25.JPG,AMNE25.JPG,AMSA23.JPG,,,,,,,,,,,,,0,4,4,5,,,,,,,,,,,AFSA09.jpg,AFNE07.jpg,AFNE01.jpg,AFSA07.jpg,AFSA07.jpg,FS,4,num_4,16,num_4,1.40013913666,,,2018_Mar_23_1843,59.9942272494,MAFE4ImagesEEG,001,103169,
AFSA21.JPG,AFNE23.JPG,AFNE21.JPG,AFSA25.JPG,AFNE25.JPG,AFSA23.JPG,,,,,,,,,,,,,0,5,5,4,,,,,,,,,,,AFSA16.jpg,AFNE19.jpg,AFNE12.jpg,AFSA09.jpg,AFNE19.jpg,FN,3,num_6,32,num_8,0.833491457754,,,2018_Mar_23_1843,59.9942272494,MAFE4ImagesEEG,001,103169,
AFSA25.JPG,AFNE24.JPG,AFSA24.JPG,AFNE21.JPG,AFSA21.JPG,AFNE25.JPG,,,,,,,,,,,,,0,6,6,2,,,,,,,,,,,AFNE19.jpg,AFSA07.jpg,AFSA03.jpg,AFNE08.jpg,AFNE19.jpg,FN,3,num_8,32,num_6,4.63315551553,,,2018_Mar_23_1843,59.9942272494,MAFE4ImagesEEG,001,103169,
AMSA21.JPG,AMNE22.JPG,AMNE21.JPG,AMSA23.JPG,AMSA22.JPG,AMNE23.JPG,,,,,,,,,,,,,0,7,7,1,,,,,,,,,,,AFNE10.jpg,AFNE02.jpg,AFSA18.jpg,AFSA14.jpg,AFNE10.jpg,FN,3,num_8,32,num_4,1.26677642362,,,2018_Mar_23_1843,59.9942272494,MAFE4ImagesEEG,001,103169,
AFNE23.JPG,AFNE24.JPG,AFNE22.JPG,AFSA24.JPG,AFSA22.JPG,AFSA23.JPG,,,,,,,,,,,,,0,8,8,8,,,,,,,,,,,AFNE04.jpg,AFNE08.jpg,AFSA20.jpg,AFSA17.jpg,AFNE04.jpg,FN,3,num_8,16,num_8,0.850141349762,,,2018_Mar_23_1843,59.9942272494,MAFE4ImagesEEG,001,103169,
AFNE22.JPG,AFSA24.JPG,AFSA22.JPG,AFNE25.JPG,AFNE24.JPG,AFSA25.JPG,,,,,,,,,,,,,0,9,9,6,,,,,,,,,,,AFNE14.jpg,AFSA09.jpg,AFNE09.jpg,AFSA07.jpg,AFNE14.jpg,FN,3,num_8,16,num_8,0.866767186326,,,2018_Mar_23_1843,59.9942272494,MAFE4ImagesEEG,001,103169,
AFSA21.JPG,AFNE22.JPG,AFNE21.JPG,AFSA23.JPG,AFSA22.JPG,AFNE23.JPG,,,,,,,,,,,,,,,,,0,0,0,0,,,,,,,AMNE17.jpg,AMSA10.jpg,AMSA14.jpg,AMNE12.jpg,AMNE12.jpg,MN,1,num_4,32,num_6,1.78340129797,,,2018_Mar_23_1843,59.9942272494,MAFE4ImagesEEG,001,103169,
AMSA21.JPG,AMNE23.JPG,AMNE21.JPG,AMSA25.JPG,AMNE25.JPG,AMSA23.JPG,,,,,,,,,,,,,,,,,0,1,1,5,,,,,,,AMSA03.jpg,AMNE19.jpg,AMSA08.jpg,AMNE16.jpg,AMSA03.jpg,MS,2,num_8,16,num_8,3.05001767273,,,2018_Mar_23_1843,59.9942272494,MAFE4ImagesEEG,001,103169,
AFNE23.JPG,AFNE24.JPG,AFNE22.JPG,AFSA24.JPG,AFSA22.JPG,AFSA23.JPG,,,,,,,,,,,,,,,,,0,2,2,8,,,,,,,AMSA13.jpg,AMNE03.jpg,AMNE10.jpg,AMSA03.jpg,AMNE03.jpg,MN,1,num_6,16,num_6,1.15011844898,,,2018_Mar_23_1843,59.9942272494,MAFE4ImagesEEG,001,103169,
AFNE22.JPG,AFSA24.JPG,AFSA22.JPG,AFNE25.JPG,AFNE24.JPG,AFSA25.JPG,,,,,,,,,,,,,,,,,0,3,3,6,,,,,,,AMNE05.jpg,AMNE19.jpg,AMSA13.jpg,AMSA15.jpg,AMSA13.jpg,MS,2,num_2,16,num_2,1.90007113995,,,2018_Mar_23_1843,59.9942272494,MAFE4ImagesEEG,001,103169,
AFSA25.JPG,AFNE24.JPG,AFSA24.JPG,AFNE21.JPG,AFSA21.JPG,AFNE25.JPG,,,,,,,,,,,,,,,,,0,4,4,2,,,,,,,AMSA02.jpg,AMNE02.jpg,AMSA07.jpg,AMNE19.jpg,AMNE02.jpg,MN,1,num_6,16,num_6,1.90009679909,,,2018_Mar_23_1843,59.9942272494,MAFE4ImagesEEG,001,103169,
AMSA21.JPG,AMNE22.JPG,AMNE21.JPG,AMSA23.JPG,AMSA22.JPG,AMNE23.JPG,,,,,,,,,,,,,,,,,0,5,5,1,,,,,,,AMNE11.jpg,AMNE06.jpg,AMSA09.jpg,AMSA08.jpg,AMSA09.jpg,MS,2,num_2,32,num_8,2.58332900336,,,2018_Mar_23_1843,59.9942272494,MAFE4ImagesEEG,001,103169,
AMSA25.JPG,AMNE24.JPG,AMSA24.JPG,AMNE26.JPG,AMSA21.JPG,AMNE25.JPG,,,,,,,,,,,,,,,,,0,6,6,3,,,,,,,AMSA08.jpg,AMNE18.jpg,AMNE09.jpg,AMSA14.jpg,AMSA14.jpg,MS,2,num_4,16,num_4,1.48343510388,,,2018_Mar_23_1843,59.9942272494,MAFE4ImagesEEG,001,103169,
AFSA21.JPG,AFNE23.JPG,AFNE21.JPG,AFSA25.JPG,AFNE25.JPG,AFSA23.JPG,,,,,,,,,,,,,,,,,0,7,7,4,,,,,,,AMSA02.jpg,AMNE09.jpg,AMNE15.jpg,AMSA12.jpg,AMSA02.jpg,MS,2,num_8,32,num_4,1.20012104697,,,2018_Mar_23_1843,59.9942272494,MAFE4ImagesEEG,001,103169,
AMNE22.JPG,AMSA24.JPG,AMSA22.JPG,AMNE25.JPG,AMNE24.JPG,AMSA25.JPG,,,,,,,,,,,,,,,,,0,8,8,7,,,,,,,AMNE17.jpg,AMSA02.jpg,AMNE02.jpg,AMSA03.jpg,AMNE02.jpg,MN,1,num_2,32,num_6,1.89976323033,,,2018_Mar_23_1843,59.9942272494,MAFE4ImagesEEG,001,103169,
AMNE23.JPG,AMNE24.JPG,AMNE22.JPG,AMSA24.JPG,AMSA22.JPG,AMSA23.JPG,,,,,,,,,,,,,,,,,0,9,9,9,,,,,,,AMNE18.jpg,AMSA18.jpg,AMNE14.jpg,AMSA12.jpg,AMNE14.jpg,MN,1,num_2,16,num_2,1.35008489966,,,2018_Mar_23_1843,59.9942272494,MAFE4ImagesEEG,001,103169,
AMNE22.JPG,AMSA24.JPG,AMSA22.JPG,AMNE25.JPG,AMNE24.JPG,AMSA25.JPG,,,,,,,,,,,,,,,,,,,,,0,0,0,7,,,AFSA10.jpg,AFSA13.jpg,AFNE11.jpg,AFNE08.jpg,AFSA10.jpg,FS,4,num_8,16,num_8,1.78325279572,,,2018_Mar_23_1843,59.9942272494,MAFE4ImagesEEG,001,103169,
AFNE22.JPG,AFSA24.JPG,AFSA22.JPG,AFNE25.JPG,AFNE24.JPG,AFSA25.JPG,,,,,,,,,,,,,,,,,,,,,0,1,1,6,,,AFNE03.jpg,AFSA04.jpg,AFSA10.jpg,AFNE16.jpg,AFNE16.jpg,FN,3,num_4,32,num_8,2.65005141449,,,2018_Mar_23_1843,59.9942272494,MAFE4ImagesEEG,001,103169,
AFNE23.JPG,AFNE24.JPG,AFNE22.JPG,AFSA24.JPG,AFSA22.JPG,AFSA23.JPG,,,,,,,,,,,,,,,,,,,,,0,2,2,8,,,AFNE05.jpg,AFNE06.jpg,AFSA17.jpg,AFSA19.jpg,AFSA17.jpg,FS,4,num_2,32,num_6,0.950096510423,,,2018_Mar_23_1843,59.9942272494,MAFE4ImagesEEG,001,103169,
AFSA21.JPG,AFNE22.JPG,AFNE21.JPG,AFSA23.JPG,AFSA22.JPG,AFNE23.JPG,,,,,,,,,,,,,,,,,,,,,0,3,3,0,,,AFSA11.jpg,AFSA01.jpg,AFNE04.jpg,AFNE09.jpg,AFSA01.jpg,FS,4,num_6,32,num_8,1.26675621705,,,2018_Mar_23_1843,59.9942272494,MAFE4ImagesEEG,001,103169,
AMSA21.JPG,AMNE22.JPG,AMNE21.JPG,AMSA23.JPG,AMSA22.JPG,AMNE23.JPG,,,,,,,,,,,,,,,,,,,,,0,4,4,1,,,AFSA20.jpg,AFSA03.jpg,AFNE19.jpg,AFNE09.jpg,AFNE19.jpg,FN,3,num_2,32,num_4,1.16674845516,,,2018_Mar_23_1843,59.9942272494,MAFE4ImagesEEG,001,103169,
AFSA21.JPG,AFNE23.JPG,AFNE21.JPG,AFSA25.JPG,AFNE25.JPG,AFSA23.JPG,,,,,,,,,,,,,,,,,,,,,0,5,5,4,,,AFSA08.jpg,AFNE06.jpg,AFSA02.jpg,AFNE13.jpg,AFSA02.jpg,FS,4,num_2,32,num_4,1.0668776489,,,2018_Mar_23_1843,59.9942272494,MAFE4ImagesEEG,001,103169,
AMSA21.JPG,AMNE23.JPG,AMNE21.JPG,AMSA25.JPG,AMNE25.JPG,AMSA23.JPG,,,,,,,,,,,,,,,,,,,,,0,6,6,5,,,AFNE07.jpg,AFSA11.jpg,AFSA01.jpg,AFNE13.jpg,AFNE13.jpg,FN,3,num_4,32,num_2,3.11661724076,,,2018_Mar_23_1843,59.9942272494,MAFE4ImagesEEG,001,103169,
AMSA25.JPG,AMNE24.JPG,AMSA24.JPG,AMNE26.JPG,AMSA21.JPG,AMNE25.JPG,,,,,,,,,,,,,,,,,,,,,0,7,7,3,,,AFNE17.jpg,AFSA16.jpg,AFNE05.jpg,AFSA02.jpg,AFNE17.jpg,FN,3,num_8,32,num_4,3.36657987464,,,2018_Mar_23_1843,59.9942272494,MAFE4ImagesEEG,001,103169,
AMNE23.JPG,AMNE24.JPG,AMNE22.JPG,AMSA24.JPG,AMSA22.JPG,AMSA23.JPG,,,,,,,,,,,,,,,,,,,,,0,8,8,9,,,AFSA12.jpg,AFNE20.jpg,AFSA07.jpg,AFNE01.jpg,AFSA07.jpg,FS,4,num_2,16,num_2,1.01674418933,,,2018_Mar_23_1843,59.9942272494,MAFE4ImagesEEG,001,103169,
AFSA25.JPG,AFNE24.JPG,AFSA24.JPG,AFNE21.JPG,AFSA21.JPG,AFNE25.JPG,,,,,,,,,,,,,,,,,,,,,0,9,9,2,,,AFSA02.jpg,AFSA06.jpg,AFNE09.jpg,AFNE02.jpg,AFSA02.jpg,FS,4,num_8,32,num_6,2.03338638359,,,2018_Mar_23_1843,59.9942272494,MAFE4ImagesEEG,001,103169,
,,,,,,,,,,,,,,,,,,,,,,,,,,,,,,,,,,,,,,,,,,,space,16.5824732712,2018_Mar_23_1843,59.9942272494,MAFE4ImagesEEG,001,103169,
AFNE01.JPG,AFNE01.JPG,AFNE01.JPG,AFNE01.JPG,AFNE01.JPG,AFNE01.JPG,0,0,0,6,,,,,,,,,,,,,,,,,,,,,,,AMNE18.jpg,AMSA06.jpg,AMNE03.jpg,AMSA19.jpg,AMNE18.jpg,MN,1,num_8,32,num_6,2.05008182057,,,2018_Mar_23_1843,59.9942272494,MAFE4ImagesEEG,001,103169,
AFNE01.JPG,AFNE01.JPG,AFNE01.JPG,AFNE01.JPG,AFNE01.JPG,AFNE01.JPG,0,1,1,3,,,,,,,,,,,,,,,,,,,,,,,AMNE20.jpg,AMSA01.jpg,AMNE17.jpg,AMSA02.jpg,AMNE20.jpg,MN,1,num_8,16,num_8,1.56668616761,,,2018_Mar_23_1843,59.9942272494,MAFE4ImagesEEG,001,103169,
AFNE01.JPG,AFNE01.JPG,AFNE01.JPG,AFNE01.JPG,AFNE01.JPG,AFNE01.JPG,0,2,2,1,,,,,,,,,,,,,,,,,,,,,,,AMSA19.jpg,AMSA08.jpg,AMNE19.jpg,AMNE09.jpg,AMSA19.jpg,MS,2,num_8,32,num_6,2.30001462571,,,2018_Mar_23_1843,59.9942272494,MAFE4ImagesEEG,001,103169,
AFNE01.JPG,AFNE01.JPG,AFNE01.JPG,AFNE01.JPG,AFNE01.JPG,AFNE01.JPG,0,3,3,9,,,,,,,,,,,,,,,,,,,,,,,AMNE20.jpg,AMSA14.jpg,AMSA10.jpg,AMNE15.jpg,AMSA10.jpg,MS,2,num_2,32,num_4,1.5334011376,,,2018_Mar_23_1843,59.9942272494,MAFE4ImagesEEG,001,103169,
AFNE01.JPG,AFNE01.JPG,AFNE01.JPG,AFNE01.JPG,AFNE01.JPG,AFNE01.JPG,0,4,4,4,,,,,,,,,,,,,,,,,,,,,,,AMSA12.jpg,AMNE06.jpg,AMSA11.jpg,AMNE11.jpg,AMSA12.jpg,MS,2,num_8,16,num_8,1.86679252472,,,2018_Mar_23_1843,59.9942272494,MAFE4ImagesEEG,001,103169,
AFNE01.JPG,AFNE01.JPG,AFNE01.JPG,AFNE01.JPG,AFNE01.JPG,AFNE01.JPG,0,5,5,8,,,,,,,,,,,,,,,,,,,,,,,AMSA12.jpg,AMSA11.jpg,AMNE05.jpg,AMNE20.jpg,AMNE05.jpg,MN,1,num_2,32,num_4,1.26673825565,,,2018_Mar_23_1843,59.9942272494,MAFE4ImagesEEG,001,103169,
AFNE01.JPG,AFNE01.JPG,AFNE01.JPG,AFNE01.JPG,AFNE01.JPG,AFNE01.JPG,0,6,6,5,,,,,,,,,,,,,,,,,,,,,,,AMNE16.jpg,AMSA20.jpg,AMNE20.jpg,AMSA10.jpg,AMNE16.jpg,MN,1,num_8,16,num_8,0.85015321711,,,2018_Mar_23_1843,59.9942272494,MAFE4ImagesEEG,001,103169,
AFNE01.JPG,AFNE01.JPG,AFNE01.JPG,AFNE01.JPG,AFNE01.JPG,AFNE01.JPG,0,7,7,2,,,,,,,,,,,,,,,,,,,,,,,AMSA12.jpg,AMSA17.jpg,AMNE02.jpg,AMNE11.jpg,AMSA12.jpg,MS,2,num_8,32,num_2,3.016620384,,,2018_Mar_23_1843,59.9942272494,MAFE4ImagesEEG,001,103169,
AFNE01.JPG,AFNE01.JPG,AFNE01.JPG,AFNE01.JPG,AFNE01.JPG,AFNE01.JPG,0,8,8,7,,,,,,,,,,,,,,,,,,,,,,,AMNE08.jpg,AMNE01.jpg,AMSA01.jpg,AMSA19.jpg,AMSA01.jpg,MS,2,num_2,16,num_2,1.2001351595,,,2018_Mar_23_1843,59.9942272494,MAFE4ImagesEEG,001,103169,
AFNE01.JPG,AFNE01.JPG,AFNE01.JPG,AFNE01.JPG,AFNE01.JPG,AFNE01.JPG,0,9,9,0,,,,,,,,,,,,,,,,,,,,,,,AMSA16.jpg,AMNE17.jpg,AMSA20.jpg,AMNE08.jpg,AMSA20.jpg,MS,2,num_2,32,num_8,1.43344212807,,,2018_Mar_23_1843,59.9942272494,MAFE4ImagesEEG,001,103169,
AFNE01.JPG,AFNE01.JPG,AFNE01.JPG,AFNE01.JPG,AFNE01.JPG,AFNE01.JPG,1,0,10,9,,,,,,,,,,,,,,,,,,,,,,,AMNE10.jpg,AMSA16.jpg,AMNE07.jpg,AMSA03.jpg,AMSA03.jpg,MS,2,num_4,16,num_4,1.08347622264,,,2018_Mar_23_1843,59.9942272494,MAFE4ImagesEEG,001,103169,
AFNE01.JPG,AFNE01.JPG,AFNE01.JPG,AFNE01.JPG,AFNE01.JPG,AFNE01.JPG,1,1,11,5,,,,,,,,,,,,,,,,,,,,,,,AMSA01.jpg,AMSA12.jpg,AMNE19.jpg,AMNE20.jpg,AMNE20.jpg,MN,1,num_4,16,num_4,1.98335940943,,,2018_Mar_23_1843,59.9942272494,MAFE4ImagesEEG,001,103169,
AFNE01.JPG,AFNE01.JPG,AFNE01.JPG,AFNE01.JPG,AFNE01.JPG,AFNE01.JPG,1,2,12,2,,,,,,,,,,,,,,,,,,,,,,,AMNE06.jpg,AMSA15.jpg,AMNE01.jpg,AMSA12.jpg,AMNE01.jpg,MN,1,num_2,16,num_2,1.1334409734,,,2018_Mar_23_1843,59.9942272494,MAFE4ImagesEEG,001,103169,
AFNE01.JPG,AFNE01.JPG,AFNE01.JPG,AFNE01.JPG,AFNE01.JPG,AFNE01.JPG,1,3,13,0,,,,,,,,,,,,,,,,,,,,,,,AMNE07.jpg,AMSA15.jpg,AMNE14.jpg,AMSA07.jpg,AMSA07.jpg,MS,2,num_4,16,num_4,1.86669790666,,,2018_Mar_23_1843,59.9942272494,MAFE4ImagesEEG,001,103169,
AFNE01.JPG,AFNE01.JPG,AFNE01.JPG,AFNE01.JPG,AFNE01.JPG,AFNE01.JPG,1,4,14,3,,,,,,,,,,,,,,,,,,,,,,,AMSA17.jpg,AMNE16.jpg,AMSA08.jpg,AMNE08.jpg,AMSA17.jpg,MS,2,num_8,32,num_2,1.46669829155,,,2018_Mar_23_1843,59.9942272494,MAFE4ImagesEEG,001,103169,
AFNE01.JPG,AFNE01.JPG,AFNE01.JPG,AFNE01.JPG,AFNE01.JPG,AFNE01.JPG,1,5,15,6,,,,,,,,,,,,,,,,,,,,,,,AMSA10.jpg,AMNE06.jpg,AMNE17.jpg,AMSA12.jpg,AMNE06.jpg,MN,1,num_6,16,num_6,2.05006482139,,,2018_Mar_23_1843,59.9942272494,MAFE4ImagesEEG,001,103169,
AFNE01.JPG,AFNE01.JPG,AFNE01.JPG,AFNE01.JPG,AFNE01.JPG,AFNE01.JPG,1,6,16,1,,,,,,,,,,,,,,,,,,,,,,,AMSA19.jpg,AMNE01.jpg,AMSA14.jpg,AMNE07.jpg,AMNE01.jpg,MN,1,num_6,32,num_4,1.8834003999,,,2018_Mar_23_1843,59.9942272494,MAFE4ImagesEEG,001,103169,
AFNE01.JPG,AFNE01.JPG,AFNE01.JPG,AFNE01.JPG,AFNE01.JPG,AFNE01.JPG,1,7,17,4,,,,,,,,,,,,,,,,,,,,,,,AMSA04.jpg,AMNE10.jpg,AMSA13.jpg,AMNE13.jpg,AMNE10.jpg,MN,1,num_6,16,num_6,1.73338009711,,,2018_Mar_23_1843,59.9942272494,MAFE4ImagesEEG,001,103169,
AFNE01.JPG,AFNE01.JPG,AFNE01.JPG,AFNE01.JPG,AFNE01.JPG,AFNE01.JPG,1,8,18,8,,,,,,,,,,,,,,,,,,,,,,,AMSA17.jpg,AMNE02.jpg,AMNE14.jpg,AMSA06.jpg,AMNE02.jpg,MN,1,num_6,32,num_4,2.06669514831,,,2018_Mar_23_1843,59.9942272494,MAFE4ImagesEEG,001,103169,
AFNE01.JPG,AFNE01.JPG,AFNE01.JPG,AFNE01.JPG,AFNE01.JPG,AFNE01.JPG,1,9,19,7,,,,,,,,,,,,,,,,,,,,,,,AMNE10.jpg,AMSA07.jpg,AMNE05.jpg,AMSA12.jpg,AMNE05.jpg,MN,1,num_2,32,num_4,1.35012242615,,,2018_Mar_23_1843,59.9942272494,MAFE4ImagesEEG,001,103169,
AFNE01.JPG,AFNE01.JPG,AFNE01.JPG,AFNE01.JPG,AFNE01.JPG,AFNE01.JPG,2,0,20,0,,,,,,,,,,,,,,,,,,,,,,,AMNE10.jpg,AMSA20.jpg,AMSA13.jpg,AMNE03.jpg,AMSA13.jpg,MS,2,num_2,16,num_2,2.56669129944,,,2018_Mar_23_1843,59.9942272494,MAFE4ImagesEEG,001,103169,
AFNE01.JPG,AFNE01.JPG,AFNE01.JPG,AFNE01.JPG,AFNE01.JPG,AFNE01.JPG,2,1,21,6,,,,,,,,,,,,,,,,,,,,,,,AMNE03.jpg,AMNE18.jpg,AMSA02.jpg,AMSA19.jpg,AMSA19.jpg,MS,2,num_4,32,num_6,2.09992244526,,,2018_Mar_23_1843,59.9942272494,MAFE4ImagesEEG,001,103169,
AFNE01.JPG,AFNE01.JPG,AFNE01.JPG,AFNE01.JPG,AFNE01.JPG,AFNE01.JPG,2,2,22,8,,,,,,,,,,,,,,,,,,,,,,,AMSA01.jpg,AMSA06.jpg,AMNE05.jpg,AMNE01.jpg,AMNE01.jpg,MN,1,num_4,16,num_4,3.14993594838,,,2018_Mar_23_1843,59.9942272494,MAFE4ImagesEEG,001,103169,
AFNE01.JPG,AFNE01.JPG,AFNE01.JPG,AFNE01.JPG,AFNE01.JPG,AFNE01.JPG,2,3,23,7,,,,,,,,,,,,,,,,,,,,,,,AMSA15.jpg,AMNE18.jpg,AMSA13.jpg,AMNE12.jpg,AMNE12.jpg,MN,1,num_4,32,num_6,2.21668947122,,,2018_Mar_23_1843,59.9942272494,MAFE4ImagesEEG,001,103169,
AFNE01.JPG,AFNE01.JPG,AFNE01.JPG,AFNE01.JPG,AFNE01.JPG,AFNE01.JPG,2,4,24,9,,,,,,,,,,,,,,,,,,,,,,,AMSA03.jpg,AMNE13.jpg,AMNE12.jpg,AMSA10.jpg,AMNE13.jpg,MN,1,num_6,32,num_4,1.76671548317,,,2018_Mar_23_1843,59.9942272494,MAFE4ImagesEEG,001,103169,
AFNE01.JPG,AFNE01.JPG,AFNE01.JPG,AFNE01.JPG,AFNE01.JPG,AFNE01.JPG,2,5,25,5,,,,,,,,,,,,,,,,,,,,,,,AMNE13.jpg,AMSA11.jpg,AMSA06.jpg,AMNE12.jpg,AMSA06.jpg,MS,2,num_2,32,num_6,3.73326976283,,,2018_Mar_23_1843,59.9942272494,MAFE4ImagesEEG,001,103169,
AFNE01.JPG,AFNE01.JPG,AFNE01.JPG,AFNE01.JPG,AFNE01.JPG,AFNE01.JPG,2,6,26,4,,,,,,,,,,,,,,,,,,,,,,,AMNE19.jpg,AMSA16.jpg,AMSA01.jpg,AMNE12.jpg,AMSA01.jpg,MS,2,num_2,16,num_2,1.06678495528,,,2018_Mar_23_1843,59.9942272494,MAFE4ImagesEEG,001,103169,
AFNE01.JPG,AFNE01.JPG,AFNE01.JPG,AFNE01.JPG,AFNE01.JPG,AFNE01.JPG,2,7,27,3,,,,,,,,,,,,,,,,,,,,,,,AMSA20.jpg,AMSA02.jpg,AMNE02.jpg,AMNE19.jpg,AMNE02.jpg,MN,1,num_2,16,num_2,2.8000104561,,,2018_Mar_23_1843,59.9942272494,MAFE4ImagesEEG,001,103169,
AFNE01.JPG,AFNE01.JPG,AFNE01.JPG,AFNE01.JPG,AFNE01.JPG,AFNE01.JPG,2,8,28,1,,,,,,,,,,,,,,,,,,,,,,,AMNE09.jpg,AMSA07.jpg,AMNE13.jpg,AMSA16.jpg,AMSA07.jpg,MS,2,num_6,16,num_6,0.966780721523,,,2018_Mar_23_1843,59.9942272494,MAFE4ImagesEEG,001,103169,
AFNE01.JPG,AFNE01.JPG,AFNE01.JPG,AFNE01.JPG,AFNE01.JPG,AFNE01.JPG,2,9,29,2,,,,,,,,,,,,,,,,,,,,,,,AMNE15.jpg,AMNE18.jpg,AMSA19.jpg,AMSA05.jpg,AMSA19.jpg,MS,2,num_2,32,num_4,2.25002646098,,,2018_Mar_23_1843,59.9942272494,MAFE4ImagesEEG,001,103169,
AFNE01.JPG,AFNE01.JPG,AFNE01.JPG,AFNE01.JPG,AFNE01.JPG,AFNE01.JPG,3,0,30,8,,,,,,,,,,,,,,,,,,,,,,,AMNE02.jpg,AMSA03.jpg,AMNE05.jpg,AMSA14.jpg,AMNE05.jpg,MN,1,num_2,32,num_4,2.25002934763,,,2018_Mar_23_1843,59.9942272494,MAFE4ImagesEEG,001,103169,
AFNE01.JPG,AFNE01.JPG,AFNE01.JPG,AFNE01.JPG,AFNE01.JPG,AFNE01.JPG,3,1,31,3,,,,,,,,,,,,,,,,,,,,,,,AMNE07.jpg,AMSA08.jpg,AMSA13.jpg,AMNE14.jpg,AMSA08.jpg,MS,2,num_6,32,num_8,1.31674694768,,,2018_Mar_23_1843,59.9942272494,MAFE4ImagesEEG,001,103169,
AFNE01.JPG,AFNE01.JPG,AFNE01.JPG,AFNE01.JPG,AFNE01.JPG,AFNE01.JPG,3,2,32,5,,,,,,,,,,,,,,,,,,,,,,,AMNE14.jpg,AMNE04.jpg,AMSA03.jpg,AMSA08.jpg,AMNE14.jpg,MN,1,num_8,32,num_4,2.23340094516,,,2018_Mar_23_1843,59.9942272494,MAFE4ImagesEEG,001,103169,
AFNE01.JPG,AFNE01.JPG,AFNE01.JPG,AFNE01.JPG,AFNE01.JPG,AFNE01.JPG,3,3,33,0,,,,,,,,,,,,,,,,,,,,,,,AMNE04.jpg,AMSA03.jpg,AMSA14.jpg,AMNE20.jpg,AMNE04.jpg,MN,1,num_8,32,num_4,2.26674723635,,,2018_Mar_23_1843,59.9942272494,MAFE4ImagesEEG,001,103169,
AFNE01.JPG,AFNE01.JPG,AFNE01.JPG,AFNE01.JPG,AFNE01.JPG,AFNE01.JPG,3,4,34,6,,,,,,,,,,,,,,,,,,,,,,,AMSA09.jpg,AMNE15.jpg,AMNE02.jpg,AMSA10.jpg,AMNE15.jpg,MN,1,num_6,16,num_6,0.933494729292,,,2018_Mar_23_1843,59.9942272494,MAFE4ImagesEEG,001,103169,
AFNE01.JPG,AFNE01.JPG,AFNE01.JPG,AFNE01.JPG,AFNE01.JPG,AFNE01.JPG,3,5,35,7,,,,,,,,,,,,,,,,,,,,,,,AMSA10.jpg,AMNE19.jpg,AMNE16.jpg,AMSA06.jpg,AMNE19.jpg,MN,1,num_6,32,num_4,0.916788707927,,,2018_Mar_23_1843,59.9942272494,MAFE4ImagesEEG,001,103169,
AFNE01.JPG,AFNE01.JPG,AFNE01.JPG,AFNE01.JPG,AFNE01.JPG,AFNE01.JPG,3,6,36,2,,,,,,,,,,,,,,,,,,,,,,,AMSA06.jpg,AMNE14.jpg,AMSA15.jpg,AMNE13.jpg,AMNE13.jpg,MN,1,num_4,32,num_8,1.2001409328,,,2018_Mar_23_1843,59.9942272494,MAFE4ImagesEEG,001,103169,
AFNE01.JPG,AFNE01.JPG,AFNE01.JPG,AFNE01.JPG,AFNE01.JPG,AFNE01.JPG,3,7,37,4,,,,,,,,,,,,,,,,,,,,,,,AMSA06.jpg,AMSA07.jpg,AMNE09.jpg,AMNE03.jpg,AMSA07.jpg,MS,2,num_6,16,num_6,0.650155333988,,,2018_Mar_23_1843,59.9942272494,MAFE4ImagesEEG,001,103169,
AFNE01.JPG,AFNE01.JPG,AFNE01.JPG,AFNE01.JPG,AFNE01.JPG,AFNE01.JPG,3,8,38,1,,,,,,,,,,,,,,,,,,,,,,,AMNE13.jpg,AMSA06.jpg,AMNE16.jpg,AMSA04.jpg,AMSA06.jpg,MS,2,num_6,32,num_8,1.36673671611,,,2018_Mar_23_1843,59.9942272494,MAFE4ImagesEEG,001,103169,
AFNE01.JPG,AFNE01.JPG,AFNE01.JPG,AFNE01.JPG,AFNE01.JPG,AFNE01.JPG,3,9,39,9,,,,,,,,,,,,,,,,,,,,,,,AMNE13.jpg,AMSA08.jpg,AMNE10.jpg,AMSA09.jpg,AMNE13.jpg,MN,1,num_8,32,num_4,1.98339853961,,,2018_Mar_23_1843,59.9942272494,MAFE4ImagesEEG,001,103169,
AFNE01.JPG,AFNE01.JPG,AFNE01.JPG,AFNE01.JPG,AFNE01.JPG,AFNE01.JPG,4,0,40,5,,,,,,,,,,,,,,,,,,,,,,,AMNE20.jpg,AMSA18.jpg,AMNE04.jpg,AMSA11.jpg,AMNE04.jpg,MN,1,num_2,16,num_2,1.38345332187,,,2018_Mar_23_1843,59.9942272494,MAFE4ImagesEEG,001,103169,
AFNE01.JPG,AFNE01.JPG,AFNE01.JPG,AFNE01.JPG,AFNE01.JPG,AFNE01.JPG,4,1,41,7,,,,,,,,,,,,,,,,,,,,,,,AMSA10.jpg,AMNE19.jpg,AMNE01.jpg,AMSA02.jpg,AMNE01.jpg,MN,1,num_2,32,num_8,0.866779695156,,,2018_Mar_23_1843,59.9942272494,MAFE4ImagesEEG,001,103169,
AFNE01.JPG,AFNE01.JPG,AFNE01.JPG,AFNE01.JPG,AFNE01.JPG,AFNE01.JPG,4,2,42,3,,,,,,,,,,,,,,,,,,,,,,,AMSA17.jpg,AMNE06.jpg,AMNE08.jpg,AMSA18.jpg,AMSA17.jpg,MS,2,num_8,32,num_4,1.08346660046,,,2018_Mar_23_1843,59.9942272494,MAFE4ImagesEEG,001,103169,
AFNE01.JPG,AFNE01.JPG,AFNE01.JPG,AFNE01.JPG,AFNE01.JPG,AFNE01.JPG,4,3,43,1,,,,,,,,,,,,,,,,,,,,,,,AMSA02.jpg,AMSA09.jpg,AMNE02.jpg,AMNE20.jpg,AMSA09.jpg,MS,2,num_6,32,num_8,1.05014532692,,,2018_Mar_23_1843,59.9942272494,MAFE4ImagesEEG,001,103169,
AFNE01.JPG,AFNE01.JPG,AFNE01.JPG,AFNE01.JPG,AFNE01.JPG,AFNE01.JPG,4,4,44,6,,,,,,,,,,,,,,,,,,,,,,,AMSA02.jpg,AMNE11.jpg,AMNE01.jpg,AMSA18.jpg,AMNE11.jpg,MN,1,num_6,32,num_4,1.70033530075,,,2018_Mar_23_1843,59.9942272494,MAFE4ImagesEEG,001,103169,
AFNE01.JPG,AFNE01.JPG,AFNE01.JPG,AFNE01.JPG,AFNE01.JPG,AFNE01.JPG,4,5,45,9,,,,,,,,,,,,,,,,,,,,,,,AMNE04.jpg,AMSA08.jpg,AMSA19.jpg,AMNE09.jpg,AMSA19.jpg,MS,2,num_2,32,num_8,1.70008672788,,,2018_Mar_23_1843,59.9942272494,MAFE4ImagesEEG,001,103169,
AFNE01.JPG,AFNE01.JPG,AFNE01.JPG,AFNE01.JPG,AFNE01.JPG,AFNE01.JPG,4,6,46,0,,,,,,,,,,,,,,,,,,,,,,,AMSA08.jpg,AMNE06.jpg,AMSA02.jpg,AMNE02.jpg,AMNE06.jpg,MN,1,num_6,32,num_2,1.75009253326,,,2018_Mar_23_1843,59.9942272494,MAFE4ImagesEEG,001,103169,
AFNE01.JPG,AFNE01.JPG,AFNE01.JPG,AFNE01.JPG,AFNE01.JPG,AFNE01.JPG,4,7,47,2,,,,,,,,,,,,,,,,,,,,,,,AMNE14.jpg,AMSA03.jpg,AMNE05.jpg,AMSA10.jpg,AMNE05.jpg,MN,1,num_2,32,num_8,2.23335732463,,,2018_Mar_23_1843,59.9942272494,MAFE4ImagesEEG,001,103169,
AFNE01.JPG,AFNE01.JPG,AFNE01.JPG,AFNE01.JPG,AFNE01.JPG,AFNE01.JPG,4,8,48,8,,,,,,,,,,,,,,,,,,,,,,,AMSA08.jpg,AMNE13.jpg,AMNE01.jpg,AMSA19.jpg,AMNE01.jpg,MN,1,num_2,16,num_2,1.35011857728,,,2018_Mar_23_1843,59.9942272494,MAFE4ImagesEEG,001,103169,
AFNE01.JPG,AFNE01.JPG,AFNE01.JPG,AFNE01.JPG,AFNE01.JPG,AFNE01.JPG,4,9,49,4,,,,,,,,,,,,,,,,,,,,,,,AMNE16.jpg,AMNE07.jpg,AMSA05.jpg,AMSA02.jpg,AMSA05.jpg,MS,2,num_2,32,num_8,1.71673950653,,,2018_Mar_23_1843,59.9942272494,MAFE4ImagesEEG,001,103169,
AFNE01.JPG,AFNE01.JPG,AFNE01.JPG,AFNE01.JPG,AFNE01.JPG,AFNE01.JPG,5,0,50,3,,,,,,,,,,,,,,,,,,,,,,,AMNE04.jpg,AMNE09.jpg,AMSA07.jpg,AMSA19.jpg,AMNE09.jpg,MN,1,num_6,32,num_8,1.28351067003,,,2018_Mar_23_1843,59.9942272494,MAFE4ImagesEEG,001,103169,
AFNE01.JPG,AFNE01.JPG,AFNE01.JPG,AFNE01.JPG,AFNE01.JPG,AFNE01.JPG,5,1,51,2,,,,,,,,,,,,,,,,,,,,,,,AMNE06.jpg,AMSA15.jpg,AMSA05.jpg,AMNE02.jpg,AMSA05.jpg,MS,2,num_2,32,num_8,2.6500081147,,,2018_Mar_23_1843,59.9942272494,MAFE4ImagesEEG,001,103169,
AFNE01.JPG,AFNE01.JPG,AFNE01.JPG,AFNE01.JPG,AFNE01.JPG,AFNE01.JPG,5,2,52,7,,,,,,,,,,,,,,,,,,,,,,,AMNE06.jpg,AMSA05.jpg,AMSA15.jpg,AMNE02.jpg,AMSA15.jpg,MS,2,num_2,32,num_6,1.16675422847,,,2018_Mar_23_1843,59.9942272494,MAFE4ImagesEEG,001,103169,
AFNE01.JPG,AFNE01.JPG,AFNE01.JPG,AFNE01.JPG,AFNE01.JPG,AFNE01.JPG,5,3,53,0,,,,,,,,,,,,,,,,,,,,,,,AMNE05.jpg,AMSA16.jpg,AMNE15.jpg,AMSA05.jpg,AMSA05.jpg,MS,2,num_4,32,num_8,3.18328448475,,,2018_Mar_23_1843,59.9942272494,MAFE4ImagesEEG,001,103169,
AFNE01.JPG,AFNE01.JPG,AFNE01.JPG,AFNE01.JPG,AFNE01.JPG,AFNE01.JPG,5,4,54,8,,,,,,,,,,,,,,,,,,,,,,,AMNE14.jpg,AMNE17.jpg,AMSA17.jpg,AMSA02.jpg,AMNE14.jpg,MN,1,num_8,16,num_8,1.18372325597,,,2018_Mar_23_1843,59.9942272494,MAFE4ImagesEEG,001,103169,
AFNE01.JPG,AFNE01.JPG,AFNE01.JPG,AFNE01.JPG,AFNE01.JPG,AFNE01.JPG,5,5,55,1,,,,,,,,,,,,,,,,,,,,,,,AMNE07.jpg,AMSA09.jpg,AMSA02.jpg,AMNE13.jpg,AMSA02.jpg,MS,2,num_2,32,num_4,1.91672616378,,,2018_Mar_23_1843,59.9942272494,MAFE4ImagesEEG,001,103169,
AFNE01.JPG,AFNE01.JPG,AFNE01.JPG,AFNE01.JPG,AFNE01.JPG,AFNE01.JPG,5,6,56,9,,,,,,,,,,,,,,,,,,,,,,,AMNE10.jpg,AMSA15.jpg,AMNE03.jpg,AMSA18.jpg,AMSA18.jpg,MS,2,num_4,32,num_6,1.78346223841,,,2018_Mar_23_1843,59.9942272494,MAFE4ImagesEEG,001,103169,
AFNE01.JPG,AFNE01.JPG,AFNE01.JPG,AFNE01.JPG,AFNE01.JPG,AFNE01.JPG,5,7,57,5,,,,,,,,,,,,,,,,,,,,,,,AMSA06.jpg,AMNE05.jpg,AMSA14.jpg,AMNE04.jpg,AMSA14.jpg,MS,2,num_2,32,num_8,1.81667606433,,,2018_Mar_23_1843,59.9942272494,MAFE4ImagesEEG,001,103169,
AFNE01.JPG,AFNE01.JPG,AFNE01.JPG,AFNE01.JPG,AFNE01.JPG,AFNE01.JPG,5,8,58,6,,,,,,,,,,,,,,,,,,,,,,,AMSA14.jpg,AMSA12.jpg,AMNE01.jpg,AMNE15.jpg,AMNE01.jpg,MN,1,num_2,32,num_8,3.21653070533,,,2018_Mar_23_1843,59.9942272494,MAFE4ImagesEEG,001,103169,
AFNE01.JPG,AFNE01.JPG,AFNE01.JPG,AFNE01.JPG,AFNE01.JPG,AFNE01.JPG,5,9,59,4,,,,,,,,,,,,,,,,,,,,,,,AMNE12.jpg,AMNE10.jpg,AMSA10.jpg,AMSA12.jpg,AMSA12.jpg,MS,2,num_4,32,num_8,1.40007595104,,,2018_Mar_23_1843,59.9942272494,MAFE4ImagesEEG,001,103169,
,,,,,,,,,,,,,,,,,,,,,,,,,,,,,,,,,,,,,,,,,,,space,33.4475880092,2018_Mar_23_1843,59.9942272494,MAFE4ImagesEEG,001,103169,
AFNE01.JPG,AFNE01.JPG,AFNE01.JPG,AFNE01.JPG,AFNE01.JPG,AFNE01.JPG,,,,,0,0,0,9,,,,,,,,,,,,,,,,,,,AFNE10.jpg,AFNE19.jpg,AFSA12.jpg,AFSA10.jpg,AFNE19.jpg,FN,3,num_6,16,num_6,0.950129867299,,,2018_Mar_23_1843,59.9942272494,MAFE4ImagesEEG,001,103169,
AFNE01.JPG,AFNE01.JPG,AFNE01.JPG,AFNE01.JPG,AFNE01.JPG,AFNE01.JPG,,,,,0,1,1,7,,,,,,,,,,,,,,,,,,,AFNE01.jpg,AFSA02.jpg,AFNE10.jpg,AFSA08.jpg,AFNE10.jpg,FN,3,num_2,32,num_6,1.65005045227,,,2018_Mar_23_1843,59.9942272494,MAFE4ImagesEEG,001,103169,
AFNE01.JPG,AFNE01.JPG,AFNE01.JPG,AFNE01.JPG,AFNE01.JPG,AFNE01.JPG,,,,,0,2,2,0,,,,,,,,,,,,,,,,,,,AFNE20.jpg,AFNE03.jpg,AFSA05.jpg,AFSA12.jpg,AFNE03.jpg,FN,3,num_6,32,num_8,0.416800896015,,,2018_Mar_23_1843,59.9942272494,MAFE4ImagesEEG,001,103169,
AFNE01.JPG,AFNE01.JPG,AFNE01.JPG,AFNE01.JPG,AFNE01.JPG,AFNE01.JPG,,,,,0,3,3,8,,,,,,,,,,,,,,,,,,,AFNE12.jpg,AFSA12.jpg,AFNE18.jpg,AFSA10.jpg,AFNE18.jpg,FN,3,num_2,16,num_2,1.36669790667,,,2018_Mar_23_1843,59.9942272494,MAFE4ImagesEEG,001,103169,
AFNE01.JPG,AFNE01.JPG,AFNE01.JPG,AFNE01.JPG,AFNE01.JPG,AFNE01.JPG,,,,,0,4,4,2,,,,,,,,,,,,,,,,,,,AFSA19.jpg,AFNE13.jpg,AFSA10.jpg,AFNE20.jpg,AFNE20.jpg,FN,3,num_4,32,num_8,0.966798362177,,,2018_Mar_23_1843,59.9942272494,MAFE4ImagesEEG,001,103169,
AFNE01.JPG,AFNE01.JPG,AFNE01.JPG,AFNE01.JPG,AFNE01.JPG,AFNE01.JPG,,,,,0,5,5,3,,,,,,,,,,,,,,,,,,,AFNE16.jpg,AFSA18.jpg,AFNE07.jpg,AFSA07.jpg,AFSA18.jpg,FS,4,num_6,16,num_6,3.13323217219,,,2018_Mar_23_1843,59.9942272494,MAFE4ImagesEEG,001,103169,
AFNE01.JPG,AFNE01.JPG,AFNE01.JPG,AFNE01.JPG,AFNE01.JPG,AFNE01.JPG,,,,,0,6,6,1,,,,,,,,,,,,,,,,,,,AFSA03.jpg,AFNE05.jpg,AFNE20.jpg,AFSA04.jpg,AFSA03.jpg,FS,4,num_8,32,num_2,1.26682004415,,,2018_Mar_23_1843,59.9942272494,MAFE4ImagesEEG,001,103169,
AFNE01.JPG,AFNE01.JPG,AFNE01.JPG,AFNE01.JPG,AFNE01.JPG,AFNE01.JPG,,,,,0,7,7,4,,,,,,,,,,,,,,,,,,,AFSA15.jpg,AFSA13.jpg,AFNE13.jpg,AFNE16.jpg,AFSA13.jpg,FS,4,num_6,16,num_6,0.800181410083,,,2018_Mar_23_1843,59.9942272494,MAFE4ImagesEEG,001,103169,
AFNE01.JPG,AFNE01.JPG,AFNE01.JPG,AFNE01.JPG,AFNE01.JPG,AFNE01.JPG,,,,,0,8,8,6,,,,,,,,,,,,,,,,,,,AFSA11.jpg,AFSA20.jpg,AFNE06.jpg,AFNE07.jpg,AFSA20.jpg,FS,4,num_6,32,num_8,1.78334965896,,,2018_Mar_23_1843,59.9942272494,MAFE4ImagesEEG,001,103169,
AFNE01.JPG,AFNE01.JPG,AFNE01.JPG,AFNE01.JPG,AFNE01.JPG,AFNE01.JPG,,,,,0,9,9,5,,,,,,,,,,,,,,,,,,,AFNE09.jpg,AFNE14.jpg,AFSA02.jpg,AFSA19.jpg,AFSA19.jpg,FS,4,num_4,32,num_2,1.05017291049,,,2018_Mar_23_1843,59.9942272494,MAFE4ImagesEEG,001,103169,
AFNE01.JPG,AFNE01.JPG,AFNE01.JPG,AFNE01.JPG,AFNE01.JPG,AFNE01.JPG,,,,,1,0,10,1,,,,,,,,,,,,,,,,,,,AFSA06.jpg,AFSA10.jpg,AFNE19.jpg,AFNE11.jpg,AFSA10.jpg,FS,4,num_6,32,num_2,1.16678598164,,,2018_Mar_23_1843,59.9942272494,MAFE4ImagesEEG,001,103169,
AFNE01.JPG,AFNE01.JPG,AFNE01.JPG,AFNE01.JPG,AFNE01.JPG,AFNE01.JPG,,,,,1,1,11,8,,,,,,,,,,,,,,,,,,,AFNE04.jpg,AFSA07.jpg,AFNE09.jpg,AFSA09.jpg,AFNE09.jpg,FN,3,num_2,16,num_2,0.7168251439,,,2018_Mar_23_1843,59.9942272494,MAFE4ImagesEEG,001,103169,
AFNE01.JPG,AFNE01.JPG,AFNE01.JPG,AFNE01.JPG,AFNE01.JPG,AFNE01.JPG,,,,,1,2,12,0,,,,,,,,,,,,,,,,,,,AFNE15.jpg,AFSA05.jpg,AFNE19.jpg,AFSA07.jpg,AFNE19.jpg,FN,3,num_2,16,num_2,1.23339837924,,,2018_Mar_23_1843,59.9942272494,MAFE4ImagesEEG,001,103169,
AFNE01.JPG,AFNE01.JPG,AFNE01.JPG,AFNE01.JPG,AFNE01.JPG,AFNE01.JPG,,,,,1,3,13,5,,,,,,,,,,,,,,,,,,,AFNE08.jpg,AFSA14.jpg,AFSA11.jpg,AFNE20.jpg,AFNE20.jpg,FN,3,num_4,16,num_4,2.983142269,,,2018_Mar_23_1843,59.9942272494,MAFE4ImagesEEG,001,103169,
AFNE01.JPG,AFNE01.JPG,AFNE01.JPG,AFNE01.JPG,AFNE01.JPG,AFNE01.JPG,,,,,1,4,14,2,,,,,,,,,,,,,,,,,,,AFSA08.jpg,AFNE20.jpg,AFNE13.jpg,AFSA09.jpg,AFSA08.jpg,FS,4,num_8,32,num_2,1.41649972192,,,2018_Mar_23_1843,59.9942272494,MAFE4ImagesEEG,001,103169,
AFNE01.JPG,AFNE01.JPG,AFNE01.JPG,AFNE01.JPG,AFNE01.JPG,AFNE01.JPG,,,,,1,5,15,3,,,,,,,,,,,,,,,,,,,AFSA08.jpg,AFNE12.jpg,AFSA05.jpg,AFNE16.jpg,AFSA08.jpg,FS,4,num_8,16,num_8,1.78338012918,,,2018_Mar_23_1843,59.9942272494,MAFE4ImagesEEG,001,103169,
AFNE01.JPG,AFNE01.JPG,AFNE01.JPG,AFNE01.JPG,AFNE01.JPG,AFNE01.JPG,,,,,1,6,16,6,,,,,,,,,,,,,,,,,,,AFNE11.jpg,AFNE04.jpg,AFSA15.jpg,AFSA05.jpg,AFNE04.jpg,FN,3,num_6,32,num_2,1.63342012536,,,2018_Mar_23_1843,59.9942272494,MAFE4ImagesEEG,001,103169,
AFNE01.JPG,AFNE01.JPG,AFNE01.JPG,AFNE01.JPG,AFNE01.JPG,AFNE01.JPG,,,,,1,7,17,9,,,,,,,,,,,,,,,,,,,AFNE17.jpg,AFSA18.jpg,AFSA15.jpg,AFNE04.jpg,AFSA18.jpg,FS,4,num_6,32,num_8,1.05013666697,,,2018_Mar_23_1843,59.9942272494,MAFE4ImagesEEG,001,103169,
AFNE01.JPG,AFNE01.JPG,AFNE01.JPG,AFNE01.JPG,AFNE01.JPG,AFNE01.JPG,,,,,1,8,18,4,,,,,,,,,,,,,,,,,,,AFSA07.jpg,AFNE07.jpg,AFSA19.jpg,AFNE11.jpg,AFSA19.jpg,FS,4,num_2,16,num_2,1.25010889096,,,2018_Mar_23_1843,59.9942272494,MAFE4ImagesEEG,001,103169,
AFNE01.JPG,AFNE01.JPG,AFNE01.JPG,AFNE01.JPG,AFNE01.JPG,AFNE01.JPG,,,,,1,9,19,7,,,,,,,,,,,,,,,,,,,AFNE10.jpg,AFSA13.jpg,AFNE16.jpg,AFSA18.jpg,AFNE10.jpg,FN,3,num_8,16,num_8,1.23341986877,,,2018_Mar_23_1843,59.9942272494,MAFE4ImagesEEG,001,103169,
AFNE01.JPG,AFNE01.JPG,AFNE01.JPG,AFNE01.JPG,AFNE01.JPG,AFNE01.JPG,,,,,2,0,20,3,,,,,,,,,,,,,,,,,,,AFSA09.jpg,AFNE17.jpg,AFNE03.jpg,AFSA14.jpg,AFSA14.jpg,FS,4,num_4,16,num_4,2.36659783604,,,2018_Mar_23_1843,59.9942272494,MAFE4ImagesEEG,001,103169,
AFNE01.JPG,AFNE01.JPG,AFNE01.JPG,AFNE01.JPG,AFNE01.JPG,AFNE01.JPG,,,,,2,1,21,5,,,,,,,,,,,,,,,,,,,AFSA13.jpg,AFNE04.jpg,AFNE06.jpg,AFSA14.jpg,AFSA14.jpg,FS,4,num_4,32,num_2,1.16670772128,,,2018_Mar_23_1843,59.9942272494,MAFE4ImagesEEG,001,103169,
AFNE01.JPG,AFNE01.JPG,AFNE01.JPG,AFNE01.JPG,AFNE01.JPG,AFNE01.JPG,,,,,2,2,22,1,,,,,,,,,,,,,,,,,,,AFSA01.jpg,AFSA10.jpg,AFNE18.jpg,AFNE10.jpg,AFSA10.jpg,FS,4,num_6,32,num_4,1.7834138068,,,2018_Mar_23_1843,59.9942272494,MAFE4ImagesEEG,001,103169,
AFNE01.JPG,AFNE01.JPG,AFNE01.JPG,AFNE01.JPG,AFNE01.JPG,AFNE01.JPG,,,,,2,3,23,0,,,,,,,,,,,,,,,,,,,AFNE01.jpg,AFSA08.jpg,AFSA01.jpg,AFNE17.jpg,AFNE17.jpg,FN,3,num_4,32,num_6,1.1835205488,,,2018_Mar_23_1843,59.9942272494,MAFE4ImagesEEG,001,103169,
AFNE01.JPG,AFNE01.JPG,AFNE01.JPG,AFNE01.JPG,AFNE01.JPG,AFNE01.JPG,,,,,2,4,24,2,,,,,,,,,,,,,,,,,,,AFNE15.jpg,AFSA14.jpg,AFSA01.jpg,AFNE13.jpg,AFNE13.jpg,FN,3,num_4,32,num_2,0.683463777961,,,2018_Mar_23_1843,59.9942272494,MAFE4ImagesEEG,001,103169,
AFNE01.JPG,AFNE01.JPG,AFNE01.JPG,AFNE01.JPG,AFNE01.JPG,AFNE01.JPG,,,,,2,5,25,9,,,,,,,,,,,,,,,,,,,AFNE07.jpg,AFSA04.jpg,AFSA03.jpg,AFNE19.jpg,AFSA04.jpg,FS,4,num_6,32,num_8,1.31676041873,,,2018_Mar_23_1843,59.9942272494,MAFE4ImagesEEG,001,103169,
AFNE01.JPG,AFNE01.JPG,AFNE01.JPG,AFNE01.JPG,AFNE01.JPG,AFNE01.JPG,,,,,2,6,26,8,,,,,,,,,,,,,,,,,,,AFSA12.jpg,AFNE17.jpg,AFSA15.jpg,AFNE16.jpg,AFSA12.jpg,FS,4,num_8,32,num_2,1.76670297434,,,2018_Mar_23_1843,59.9942272494,MAFE4ImagesEEG,001,103169,
AFNE01.JPG,AFNE01.JPG,AFNE01.JPG,AFNE01.JPG,AFNE01.JPG,AFNE01.JPG,,,,,2,7,27,6,,,,,,,,,,,,,,,,,,,AFSA15.jpg,AFNE02.jpg,AFSA16.jpg,AFNE11.jpg,AFNE11.jpg,FN,3,num_4,32,num_8,2.15029902514,,,2018_Mar_23_1843,59.9942272494,MAFE4ImagesEEG,001,103169,
AFNE01.JPG,AFNE01.JPG,AFNE01.JPG,AFNE01.JPG,AFNE01.JPG,AFNE01.JPG,,,,,2,8,28,4,,,,,,,,,,,,,,,,,,,AFSA03.jpg,AFNE20.jpg,AFNE07.jpg,AFSA11.jpg,AFNE20.jpg,FN,3,num_6,32,num_2,1.23349395952,,,2018_Mar_23_1843,59.9942272494,MAFE4ImagesEEG,001,103169,
AFNE01.JPG,AFNE01.JPG,AFNE01.JPG,AFNE01.JPG,AFNE01.JPG,AFNE01.JPG,,,,,2,9,29,7,,,,,,,,,,,,,,,,,,,AFNE08.jpg,AFSA19.jpg,AFSA09.jpg,AFNE01.jpg,AFSA19.jpg,FS,4,num_6,32,num_4,2.19987504001,,,2018_Mar_23_1843,59.9942272494,MAFE4ImagesEEG,001,103169,
AFNE01.JPG,AFNE01.JPG,AFNE01.JPG,AFNE01.JPG,AFNE01.JPG,AFNE01.JPG,,,,,3,0,30,0,,,,,,,,,,,,,,,,,,,AFNE01.jpg,AFSA13.jpg,AFSA10.jpg,AFNE15.jpg,AFSA10.jpg,FS,4,num_2,16,num_2,1.1500645648,,,2018_Mar_23_1843,59.9942272494,MAFE4ImagesEEG,001,103169,
AFNE01.JPG,AFNE01.JPG,AFNE01.JPG,AFNE01.JPG,AFNE01.JPG,AFNE01.JPG,,,,,3,1,31,9,,,,,,,,,,,,,,,,,,,AFSA04.jpg,AFSA20.jpg,AFNE08.jpg,AFNE10.jpg,AFNE10.jpg,FN,3,num_4,32,num_2,1.38345107669,,,2018_Mar_23_1843,59.9942272494,MAFE4ImagesEEG,001,103169,
AFNE01.JPG,AFNE01.JPG,AFNE01.JPG,AFNE01.JPG,AFNE01.JPG,AFNE01.JPG,,,,,3,2,32,1,,,,,,,,,,,,,,,,,,,AFNE17.jpg,AFNE10.jpg,AFSA09.jpg,AFSA14.jpg,AFSA14.jpg,FS,4,num_4,32,num_6,2.16669745763,,,2018_Mar_23_1843,59.9942272494,MAFE4ImagesEEG,001,103169,
AFNE01.JPG,AFNE01.JPG,AFNE01.JPG,AFNE01.JPG,AFNE01.JPG,AFNE01.JPG,,,,,3,3,33,4,,,,,,,,,,,,,,,,,,,AFNE15.jpg,AFSA02.jpg,AFNE06.jpg,AFSA09.jpg,AFSA09.jpg,FS,4,num_4,32,num_2,1.60005651425,,,2018_Mar_23_1843,59.9942272494,MAFE4ImagesEEG,001,103169,
AFNE01.JPG,AFNE01.JPG,AFNE01.JPG,AFNE01.JPG,AFNE01.JPG,AFNE01.JPG,,,,,3,4,34,6,,,,,,,,,,,,,,,,,,,AFSA09.jpg,AFNE03.jpg,AFSA04.jpg,AFNE10.jpg,AFSA09.jpg,FS,4,num_8,32,num_6,1.80004958628,,,2018_Mar_23_1843,59.9942272494,MAFE4ImagesEEG,001,103169,
AFNE01.JPG,AFNE01.JPG,AFNE01.JPG,AFNE01.JPG,AFNE01.JPG,AFNE01.JPG,,,,,3,5,35,3,,,,,,,,,,,,,,,,,,,AFNE16.jpg,AFSA13.jpg,AFNE09.jpg,AFSA16.jpg,AFNE09.jpg,FN,3,num_2,32,num_4,1.70004823917,,,2018_Mar_23_1843,59.9942272494,MAFE4ImagesEEG,001,103169,
AFNE01.JPG,AFNE01.JPG,AFNE01.JPG,AFNE01.JPG,AFNE01.JPG,AFNE01.JPG,,,,,3,6,36,8,,,,,,,,,,,,,,,,,,,AFNE05.jpg,AFSA03.jpg,AFNE04.jpg,AFSA15.jpg,AFSA03.jpg,FS,4,num_6,16,num_6,1.46707708453,,,2018_Mar_23_1843,59.9942272494,MAFE4ImagesEEG,001,103169,
AFNE01.JPG,AFNE01.JPG,AFNE01.JPG,AFNE01.JPG,AFNE01.JPG,AFNE01.JPG,,,,,3,7,37,5,,,,,,,,,,,,,,,,,,,AFSA04.jpg,AFSA17.jpg,AFNE06.jpg,AFNE05.jpg,AFNE06.jpg,FN,3,num_2,16,num_2,1.60007607934,,,2018_Mar_23_1843,59.9942272494,MAFE4ImagesEEG,001,103169,
AFNE01.JPG,AFNE01.JPG,AFNE01.JPG,AFNE01.JPG,AFNE01.JPG,AFNE01.JPG,,,,,3,8,38,7,,,,,,,,,,,,,,,,,,,AFNE17.jpg,AFSA17.jpg,AFSA07.jpg,AFNE15.jpg,AFSA17.jpg,FS,4,num_6,16,num_6,1.26675750001,,,2018_Mar_23_1843,59.9942272494,MAFE4ImagesEEG,001,103169,
AFNE01.JPG,AFNE01.JPG,AFNE01.JPG,AFNE01.JPG,AFNE01.JPG,AFNE01.JPG,,,,,3,9,39,2,,,,,,,,,,,,,,,,,,,AFSA05.jpg,AFNE18.jpg,AFNE09.jpg,AFSA11.jpg,AFSA11.jpg,FS,4,num_4,16,num_4,1.16679335865,,,2018_Mar_23_1843,59.9942272494,MAFE4ImagesEEG,001,103169,
AFNE01.JPG,AFNE01.JPG,AFNE01.JPG,AFNE01.JPG,AFNE01.JPG,AFNE01.JPG,,,,,4,0,40,4,,,,,,,,,,,,,,,,,,,AFSA12.jpg,AFSA18.jpg,AFNE01.jpg,AFNE20.jpg,AFSA12.jpg,FS,4,num_8,16,num_8,0.866793166202,,,2018_Mar_23_1843,59.9942272494,MAFE4ImagesEEG,001,103169,
AFNE01.JPG,AFNE01.JPG,AFNE01.JPG,AFNE01.JPG,AFNE01.JPG,AFNE01.JPG,,,,,4,1,41,7,,,,,,,,,,,,,,,,,,,AFNE18.jpg,AFSA10.jpg,AFNE10.jpg,AFSA11.jpg,AFSA11.jpg,FS,4,num_4,32,num_2,0.800123035551,,,2018_Mar_23_1843,59.9942272494,MAFE4ImagesEEG,001,103169,
AFNE01.JPG,AFNE01.JPG,AFNE01.JPG,AFNE01.JPG,AFNE01.JPG,AFNE01.JPG,,,,,4,2,42,1,,,,,,,,,,,,,,,,,,,AFNE03.jpg,AFSA17.jpg,AFNE11.jpg,AFSA03.jpg,AFNE03.jpg,FN,3,num_8,32,num_4,1.05012415814,,,2018_Mar_23_1843,59.9942272494,MAFE4ImagesEEG,001,103169,
AFNE01.JPG,AFNE01.JPG,AFNE01.JPG,AFNE01.JPG,AFNE01.JPG,AFNE01.JPG,,,,,4,3,43,2,,,,,,,,,,,,,,,,,,,AFNE01.jpg,AFSA09.jpg,AFNE14.jpg,AFSA12.jpg,AFNE01.jpg,FN,3,num_8,16,num_8,0.866758847111,,,2018_Mar_23_1843,59.9942272494,MAFE4ImagesEEG,001,103169,
AFNE01.JPG,AFNE01.JPG,AFNE01.JPG,AFNE01.JPG,AFNE01.JPG,AFNE01.JPG,,,,,4,4,44,3,,,,,,,,,,,,,,,,,,,AFNE15.jpg,AFSA15.jpg,AFSA10.jpg,AFNE08.jpg,AFNE08.jpg,FN,3,num_4,32,num_2,0.800133619945,,,2018_Mar_23_1843,59.9942272494,MAFE4ImagesEEG,001,103169,
AFNE01.JPG,AFNE01.JPG,AFNE01.JPG,AFNE01.JPG,AFNE01.JPG,AFNE01.JPG,,,,,4,5,45,9,,,,,,,,,,,,,,,,,,,AFNE02.jpg,AFSA11.jpg,AFNE01.jpg,AFSA20.jpg,AFSA20.jpg,FS,4,num_4,16,num_4,1.06678303084,,,2018_Mar_23_1843,59.9942272494,MAFE4ImagesEEG,001,103169,
AFNE01.JPG,AFNE01.JPG,AFNE01.JPG,AFNE01.JPG,AFNE01.JPG,AFNE01.JPG,,,,,4,6,46,8,,,,,,,,,,,,,,,,,,,AFSA18.jpg,AFSA11.jpg,AFNE02.jpg,AFNE16.jpg,AFNE16.jpg,FN,3,num_4,32,num_6,1.06684108464,,,2018_Mar_23_1843,59.9942272494,MAFE4ImagesEEG,001,103169,
AFNE01.JPG,AFNE01.JPG,AFNE01.JPG,AFNE01.JPG,AFNE01.JPG,AFNE01.JPG,,,,,4,7,47,6,,,,,,,,,,,,,,,,,,,AFNE17.jpg,AFNE12.jpg,AFSA04.jpg,AFSA07.jpg,AFNE17.jpg,FN,3,num_8,32,num_6,1.53344315443,,,2018_Mar_23_1843,59.9942272494,MAFE4ImagesEEG,001,103169,
AFNE01.JPG,AFNE01.JPG,AFNE01.JPG,AFNE01.JPG,AFNE01.JPG,AFNE01.JPG,,,,,4,8,48,0,,,,,,,,,,,,,,,,,,,AFNE20.jpg,AFSA01.jpg,AFSA13.jpg,AFNE17.jpg,AFNE20.jpg,FN,3,num_8,16,num_8,1.28328839778,,,2018_Mar_23_1843,59.9942272494,MAFE4ImagesEEG,001,103169,
AFNE01.JPG,AFNE01.JPG,AFNE01.JPG,AFNE01.JPG,AFNE01.JPG,AFNE01.JPG,,,,,4,9,49,5,,,,,,,,,,,,,,,,,,,AFNE08.jpg,AFSA17.jpg,AFSA15.jpg,AFNE09.jpg,AFSA17.jpg,FS,4,num_6,32,num_2,1.08329275983,,,2018_Mar_23_1843,59.9942272494,MAFE4ImagesEEG,001,103169,
AFNE01.JPG,AFNE01.JPG,AFNE01.JPG,AFNE01.JPG,AFNE01.JPG,AFNE01.JPG,,,,,5,0,50,4,,,,,,,,,,,,,,,,,,,AFNE07.jpg,AFSA16.jpg,AFNE08.jpg,AFSA04.jpg,AFSA04.jpg,FS,4,num_4,32,num_8,1.68346987201,,,2018_Mar_23_1843,59.9942272494,MAFE4ImagesEEG,001,103169,
AFNE01.JPG,AFNE01.JPG,AFNE01.JPG,AFNE01.JPG,AFNE01.JPG,AFNE01.JPG,,,,,5,1,51,6,,,,,,,,,,,,,,,,,,,AFNE16.jpg,AFNE13.jpg,AFSA13.jpg,AFSA06.jpg,AFSA13.jpg,FS,4,num_2,16,num_2,0.650045961924,,,2018_Mar_23_1843,59.9942272494,MAFE4ImagesEEG,001,103169,
AFNE01.JPG,AFNE01.JPG,AFNE01.JPG,AFNE01.JPG,AFNE01.JPG,AFNE01.JPG,,,,,5,2,52,8,,,,,,,,,,,,,,,,,,,AFNE09.jpg,AFSA06.jpg,AFSA20.jpg,AFNE07.jpg,AFSA20.jpg,FS,4,num_2,16,num_2,0.766865589114,,,2018_Mar_23_1843,59.9942272494,MAFE4ImagesEEG,001,103169,
AFNE01.JPG,AFNE01.JPG,AFNE01.JPG,AFNE01.JPG,AFNE01.JPG,AFNE01.JPG,,,,,5,3,53,9,,,,,,,,,,,,,,,,,,,AFSA17.jpg,AFNE09.jpg,AFSA16.jpg,AFNE13.jpg,AFNE09.jpg,FN,3,num_6,16,num_6,1.45010324594,,,2018_Mar_23_1843,59.9942272494,MAFE4ImagesEEG,001,103169,
AFNE01.JPG,AFNE01.JPG,AFNE01.JPG,AFNE01.JPG,AFNE01.JPG,AFNE01.JPG,,,,,5,4,54,0,,,,,,,,,,,,,,,,,,,AFNE12.jpg,AFNE05.jpg,AFSA13.jpg,AFSA16.jpg,AFNE05.jpg,FN,3,num_6,32,num_2,3.55003114378,,,2018_Mar_23_1843,59.9942272494,MAFE4ImagesEEG,001,103169,
AFNE01.JPG,AFNE01.JPG,AFNE01.JPG,AFNE01.JPG,AFNE01.JPG,AFNE01.JPG,,,,,5,5,55,1,,,,,,,,,,,,,,,,,,,AFNE13.jpg,AFSA11.jpg,AFSA04.jpg,AFNE10.jpg,AFNE13.jpg,FN,3,num_8,16,num_8,1.06677757828,,,2018_Mar_23_1843,59.9942272494,MAFE4ImagesEEG,001,103169,
AFNE01.JPG,AFNE01.JPG,AFNE01.JPG,AFNE01.JPG,AFNE01.JPG,AFNE01.JPG,,,,,5,6,56,5,,,,,,,,,,,,,,,,,,,AFSA01.jpg,AFSA11.jpg,AFNE05.jpg,AFNE18.jpg,AFNE05.jpg,FN,3,num_2,32,num_4,0.850143915675,,,2018_Mar_23_1843,59.9942272494,MAFE4ImagesEEG,001,103169,
AFNE01.JPG,AFNE01.JPG,AFNE01.JPG,AFNE01.JPG,AFNE01.JPG,AFNE01.JPG,,,,,5,7,57,7,,,,,,,,,,,,,,,,,,,AFSA11.jpg,AFNE03.jpg,AFSA02.jpg,AFNE14.jpg,AFNE03.jpg,FN,3,num_6,32,num_8,1.31679826595,,,2018_Mar_23_1843,59.9942272494,MAFE4ImagesEEG,001,103169,
AFNE01.JPG,AFNE01.JPG,AFNE01.JPG,AFNE01.JPG,AFNE01.JPG,AFNE01.JPG,,,,,5,8,58,3,,,,,,,,,,,,,,,,,,,AFNE06.jpg,AFSA14.jpg,AFNE09.jpg,AFSA05.jpg,AFNE09.jpg,FN,3,num_2,16,num_2,0.666804263776,,,2018_Mar_23_1843,59.9942272494,MAFE4ImagesEEG,001,103169,
AFNE01.JPG,AFNE01.JPG,AFNE01.JPG,AFNE01.JPG,AFNE01.JPG,AFNE01.JPG,,,,,5,9,59,2,,,,,,,,,,,,,,,,,,,AFSA05.jpg,AFNE11.jpg,AFSA12.jpg,AFNE08.jpg,AFNE11.jpg,FN,3,num_6,32,num_8,0.783492387898,,,2018_Mar_23_1843,59.9942272494,MAFE4ImagesEEG,001,103169,
