IPosition2,IPosition3,IPosition1,IPosition6,IPosition4,IPosition5,TrialsM1.thisRepN,TrialsM1.thisTrialN,TrialsM1.thisN,TrialsM1.thisIndex,TrialsF1.thisRepN,TrialsF1.thisTrialN,TrialsF1.thisN,TrialsF1.thisIndex,TrialsM2.thisRepN,TrialsM2.thisTrialN,TrialsM2.thisN,TrialsM2.thisIndex,TrialsF2.thisRepN,TrialsF2.thisTrialN,TrialsF2.thisN,TrialsF2.thisIndex,TrialsM3.thisRepN,TrialsM3.thisTrialN,TrialsM3.thisN,TrialsM3.thisIndex,TrialsF3.thisRepN,TrialsF3.thisTrialN,TrialsF3.thisN,TrialsF3.thisIndex,InstrKey_resp.keys,InstrKey_resp.rt,Image0 _Position,Image1 _Position,Image2 _Position,Image3 _Position,Center_image,condition,code,correct_answer,accuracy,Key_Resp.keys,Key_Resp.rt,BreakKey_resp.keys,BreakKey_resp.rt,date,frameRate,expName,session,participant,
,,,,,,,,,,,,,,,,,,,,,,,,,,,,,,space,28.8982170447,,,,,,,,,,,,,,2018_Feb_26_1406,60.004676768,MAFE4ImagesEEG,001,103231,
AFNE23.JPG,AFNE24.JPG,AFNE22.JPG,AFSA24.JPG,AFSA22.JPG,AFSA23.JPG,0,0,0,8,,,,,,,,,,,,,,,,,,,,,,,AMNE09.jpg,AMSA18.jpg,AMSA12.jpg,AMNE08.jpg,AMSA18.jpg,MS,2,num_6,32,num_2,0.866799709154,,,2018_Feb_26_1406,60.004676768,MAFE4ImagesEEG,001,103231,
AFSA25.JPG,AFNE24.JPG,AFSA24.JPG,AFNE21.JPG,AFSA21.JPG,AFNE25.JPG,0,1,1,2,,,,,,,,,,,,,,,,,,,,,,,AMSA17.jpg,AMNE06.jpg,AMNE08.jpg,AMSA14.jpg,AMNE08.jpg,MN,1,num_2,32,num_8,1.5001451344,,,2018_Feb_26_1406,60.004676768,MAFE4ImagesEEG,001,103231,
AMNE22.JPG,AMSA24.JPG,AMSA22.JPG,AMNE25.JPG,AMNE24.JPG,AMSA25.JPG,0,2,2,7,,,,,,,,,,,,,,,,,,,,,,,AMSA07.jpg,AMNE07.jpg,AMNE20.jpg,AMSA05.jpg,AMSA05.jpg,MS,2,num_4,16,num_4,1.00011290004,,,2018_Feb_26_1406,60.004676768,MAFE4ImagesEEG,001,103231,
AMSA25.JPG,AMNE24.JPG,AMSA24.JPG,AMNE26.JPG,AMSA21.JPG,AMNE25.JPG,0,3,3,3,,,,,,,,,,,,,,,,,,,,,,,AMNE09.jpg,AMSA09.jpg,AMNE18.jpg,AMSA08.jpg,AMSA08.jpg,MS,2,num_4,16,num_4,1.21650964895,,,2018_Feb_26_1406,60.004676768,MAFE4ImagesEEG,001,103231,
AMNE23.JPG,AMNE24.JPG,AMNE22.JPG,AMSA24.JPG,AMSA22.JPG,AMSA23.JPG,0,4,4,9,,,,,,,,,,,,,,,,,,,,,,,AMSA12.jpg,AMNE06.jpg,AMNE17.jpg,AMSA15.jpg,AMNE06.jpg,MN,1,num_6,32,num_2,0.600047918386,,,2018_Feb_26_1406,60.004676768,MAFE4ImagesEEG,001,103231,
AFSA21.JPG,AFNE22.JPG,AFNE21.JPG,AFSA23.JPG,AFSA22.JPG,AFNE23.JPG,0,5,5,0,,,,,,,,,,,,,,,,,,,,,,,AMSA16.jpg,AMNE02.jpg,AMSA12.jpg,AMNE03.jpg,AMNE03.jpg,MN,1,num_4,32,num_6,0.75011105591,,,2018_Feb_26_1406,60.004676768,MAFE4ImagesEEG,001,103231,
AMSA21.JPG,AMNE23.JPG,AMNE21.JPG,AMSA25.JPG,AMNE25.JPG,AMSA23.JPG,0,6,6,5,,,,,,,,,,,,,,,,,,,,,,,AMNE04.jpg,AMSA06.jpg,AMNE07.jpg,AMSA16.jpg,AMNE07.jpg,MN,1,num_2,16,num_2,0.900104913744,,,2018_Feb_26_1406,60.004676768,MAFE4ImagesEEG,001,103231,
AMSA21.JPG,AMNE22.JPG,AMNE21.JPG,AMSA23.JPG,AMSA22.JPG,AMNE23.JPG,0,7,7,1,,,,,,,,,,,,,,,,,,,,,,,AMSA20.jpg,AMNE08.jpg,AMNE19.jpg,AMSA03.jpg,AMSA03.jpg,MS,2,num_4,16,num_4,1.10015488474,,,2018_Feb_26_1406,60.004676768,MAFE4ImagesEEG,001,103231,
AFSA21.JPG,AFNE23.JPG,AFNE21.JPG,AFSA25.JPG,AFNE25.JPG,AFSA23.JPG,0,8,8,4,,,,,,,,,,,,,,,,,,,,,,,AMSA02.jpg,AMNE11.jpg,AMSA17.jpg,AMNE08.jpg,AMNE11.jpg,MN,1,num_6,16,num_6,0.833441903465,,,2018_Feb_26_1406,60.004676768,MAFE4ImagesEEG,001,103231,
AFNE22.JPG,AFSA24.JPG,AFSA22.JPG,AFNE25.JPG,AFNE24.JPG,AFSA25.JPG,0,9,9,6,,,,,,,,,,,,,,,,,,,,,,,AMSA14.jpg,AMSA15.jpg,AMNE18.jpg,AMNE04.jpg,AMSA15.jpg,MS,2,num_6,32,num_4,0.71677185304,,,2018_Feb_26_1406,60.004676768,MAFE4ImagesEEG,001,103231,
AMNE22.JPG,AMSA24.JPG,AMSA22.JPG,AMNE25.JPG,AMNE24.JPG,AMSA25.JPG,,,,,0,0,0,7,,,,,,,,,,,,,,,,,,,AFNE11.jpg,AFNE03.jpg,AFSA15.jpg,AFSA20.jpg,AFSA20.jpg,FS,4,num_4,32,num_8,0.700148277567,,,2018_Feb_26_1406,60.004676768,MAFE4ImagesEEG,001,103231,
AFSA25.JPG,AFNE24.JPG,AFSA24.JPG,AFNE21.JPG,AFSA21.JPG,AFNE25.JPG,,,,,0,1,1,2,,,,,,,,,,,,,,,,,,,AFNE13.jpg,AFSA05.jpg,AFNE02.jpg,AFSA10.jpg,AFNE02.jpg,FN,3,num_2,16,num_2,1.11676595139,,,2018_Feb_26_1406,60.004676768,MAFE4ImagesEEG,001,103231,
AMSA25.JPG,AMNE24.JPG,AMSA24.JPG,AMNE26.JPG,AMSA21.JPG,AMNE25.JPG,,,,,0,2,2,3,,,,,,,,,,,,,,,,,,,AFSA20.jpg,AFNE16.jpg,AFSA10.jpg,AFNE13.jpg,AFNE13.jpg,FN,3,num_4,32,num_8,0.633491682122,,,2018_Feb_26_1406,60.004676768,MAFE4ImagesEEG,001,103231,
AMSA21.JPG,AMNE22.JPG,AMNE21.JPG,AMSA23.JPG,AMSA22.JPG,AMNE23.JPG,,,,,0,3,3,1,,,,,,,,,,,,,,,,,,,AFSA12.jpg,AFNE03.jpg,AFSA08.jpg,AFNE08.jpg,AFSA12.jpg,FS,4,num_8,16,num_8,0.6501752357,,,2018_Feb_26_1406,60.004676768,MAFE4ImagesEEG,001,103231,
AFSA21.JPG,AFNE23.JPG,AFNE21.JPG,AFSA25.JPG,AFNE25.JPG,AFSA23.JPG,,,,,0,4,4,4,,,,,,,,,,,,,,,,,,,AFSA09.jpg,AFSA15.jpg,AFNE13.jpg,AFNE12.jpg,AFSA15.jpg,FS,4,num_6,16,num_6,0.650176839437,,,2018_Feb_26_1406,60.004676768,MAFE4ImagesEEG,001,103231,
AMSA21.JPG,AMNE23.JPG,AMNE21.JPG,AMSA25.JPG,AMNE25.JPG,AMSA23.JPG,,,,,0,5,5,5,,,,,,,,,,,,,,,,,,,AFNE05.jpg,AFNE04.jpg,AFSA17.jpg,AFSA05.jpg,AFSA05.jpg,FS,4,num_4,16,num_4,0.816824742826,,,2018_Feb_26_1406,60.004676768,MAFE4ImagesEEG,001,103231,
AFNE22.JPG,AFSA24.JPG,AFSA22.JPG,AFNE25.JPG,AFNE24.JPG,AFSA25.JPG,,,,,0,6,6,6,,,,,,,,,,,,,,,,,,,AFNE02.jpg,AFNE10.jpg,AFSA17.jpg,AFSA03.jpg,AFSA17.jpg,FS,4,num_2,32,num_4,0.783473672695,,,2018_Feb_26_1406,60.004676768,MAFE4ImagesEEG,001,103231,
AMNE23.JPG,AMNE24.JPG,AMNE22.JPG,AMSA24.JPG,AMSA22.JPG,AMSA23.JPG,,,,,0,7,7,9,,,,,,,,,,,,,,,,,,,AFSA02.jpg,AFNE02.jpg,AFSA05.jpg,AFNE17.jpg,AFSA02.jpg,FS,4,num_8,16,num_8,0.866842688178,,,2018_Feb_26_1406,60.004676768,MAFE4ImagesEEG,001,103231,
AFSA21.JPG,AFNE22.JPG,AFNE21.JPG,AFSA23.JPG,AFSA22.JPG,AFNE23.JPG,,,,,0,8,8,0,,,,,,,,,,,,,,,,,,,AFSA08.jpg,AFNE09.jpg,AFNE18.jpg,AFSA14.jpg,AFSA08.jpg,FS,4,num_8,32,num_4,0.916766977753,,,2018_Feb_26_1406,60.004676768,MAFE4ImagesEEG,001,103231,
AFNE23.JPG,AFNE24.JPG,AFNE22.JPG,AFSA24.JPG,AFSA22.JPG,AFSA23.JPG,,,,,0,9,9,8,,,,,,,,,,,,,,,,,,,AFSA08.jpg,AFSA18.jpg,AFNE07.jpg,AFNE06.jpg,AFNE07.jpg,FN,3,num_2,16,num_2,1.16675246437,,,2018_Feb_26_1406,60.004676768,MAFE4ImagesEEG,001,103231,
AFSA21.JPG,AFNE23.JPG,AFNE21.JPG,AFSA25.JPG,AFNE25.JPG,AFSA23.JPG,,,,,,,,,0,0,0,4,,,,,,,,,,,,,,,AMSA11.jpg,AMNE04.jpg,AMNE19.jpg,AMSA03.jpg,AMSA03.jpg,MS,2,num_4,16,num_4,1.51670809009,,,2018_Feb_26_1406,60.004676768,MAFE4ImagesEEG,001,103231,
AMSA21.JPG,AMNE23.JPG,AMNE21.JPG,AMSA25.JPG,AMNE25.JPG,AMSA23.JPG,,,,,,,,,0,1,1,5,,,,,,,,,,,,,,,AMSA03.jpg,AMNE12.jpg,AMNE15.jpg,AMSA13.jpg,AMNE12.jpg,MN,1,num_6,16,num_6,0.866771484143,,,2018_Feb_26_1406,60.004676768,MAFE4ImagesEEG,001,103231,
AFSA21.JPG,AFNE22.JPG,AFNE21.JPG,AFSA23.JPG,AFSA22.JPG,AFNE23.JPG,,,,,,,,,0,2,2,0,,,,,,,,,,,,,,,AMSA08.jpg,AMSA17.jpg,AMNE02.jpg,AMNE03.jpg,AMNE03.jpg,MN,1,num_4,16,num_4,1.36677356891,,,2018_Feb_26_1406,60.004676768,MAFE4ImagesEEG,001,103231,
AFNE23.JPG,AFNE24.JPG,AFNE22.JPG,AFSA24.JPG,AFSA22.JPG,AFSA23.JPG,,,,,,,,,0,3,3,8,,,,,,,,,,,,,,,AMSA09.jpg,AMNE15.jpg,AMNE14.jpg,AMSA02.jpg,AMSA02.jpg,MS,2,num_4,16,num_4,0.833497070475,,,2018_Feb_26_1406,60.004676768,MAFE4ImagesEEG,001,103231,
AMNE23.JPG,AMNE24.JPG,AMNE22.JPG,AMSA24.JPG,AMSA22.JPG,AMSA23.JPG,,,,,,,,,0,4,4,9,,,,,,,,,,,,,,,AMNE09.jpg,AMSA16.jpg,AMSA06.jpg,AMNE06.jpg,AMSA06.jpg,MS,2,num_2,32,num_4,1.03347551695,,,2018_Feb_26_1406,60.004676768,MAFE4ImagesEEG,001,103231,
AMNE22.JPG,AMSA24.JPG,AMSA22.JPG,AMNE25.JPG,AMNE24.JPG,AMSA25.JPG,,,,,,,,,0,5,5,7,,,,,,,,,,,,,,,AMNE16.jpg,AMSA03.jpg,AMSA13.jpg,AMNE10.jpg,AMNE16.jpg,MN,1,num_8,16,num_8,0.900134421652,,,2018_Feb_26_1406,60.004676768,MAFE4ImagesEEG,001,103231,
AMSA25.JPG,AMNE24.JPG,AMSA24.JPG,AMNE26.JPG,AMSA21.JPG,AMNE25.JPG,,,,,,,,,0,6,6,3,,,,,,,,,,,,,,,AMNE07.jpg,AMSA18.jpg,AMNE05.jpg,AMSA20.jpg,AMSA20.jpg,MS,2,num_4,16,num_4,0.566810710472,,,2018_Feb_26_1406,60.004676768,MAFE4ImagesEEG,001,103231,
AFSA25.JPG,AFNE24.JPG,AFSA24.JPG,AFNE21.JPG,AFSA21.JPG,AFNE25.JPG,,,,,,,,,0,7,7,2,,,,,,,,,,,,,,,AMNE10.jpg,AMSA06.jpg,AMSA04.jpg,AMNE05.jpg,AMNE10.jpg,MN,1,num_8,16,num_8,2.01671209931,,,2018_Feb_26_1406,60.004676768,MAFE4ImagesEEG,001,103231,
AMSA21.JPG,AMNE22.JPG,AMNE21.JPG,AMSA23.JPG,AMSA22.JPG,AMNE23.JPG,,,,,,,,,0,8,8,1,,,,,,,,,,,,,,,AMNE08.jpg,AMNE12.jpg,AMSA04.jpg,AMSA03.jpg,AMSA03.jpg,MS,2,num_4,16,num_4,0.80043145793,,,2018_Feb_26_1406,60.004676768,MAFE4ImagesEEG,001,103231,
AFNE22.JPG,AFSA24.JPG,AFSA22.JPG,AFNE25.JPG,AFNE24.JPG,AFSA25.JPG,,,,,,,,,0,9,9,6,,,,,,,,,,,,,,,AMNE08.jpg,AMSA20.jpg,AMSA10.jpg,AMNE10.jpg,AMNE10.jpg,MN,1,num_4,16,num_4,2.1667200696,,,2018_Feb_26_1406,60.004676768,MAFE4ImagesEEG,001,103231,
AMNE23.JPG,AMNE24.JPG,AMNE22.JPG,AMSA24.JPG,AMSA22.JPG,AMSA23.JPG,,,,,,,,,,,,,0,0,0,9,,,,,,,,,,,AFSA10.jpg,AFNE07.jpg,AFSA04.jpg,AFNE11.jpg,AFSA10.jpg,FS,4,num_8,16,num_8,0.650173631962,,,2018_Feb_26_1406,60.004676768,MAFE4ImagesEEG,001,103231,
AFSA21.JPG,AFNE22.JPG,AFNE21.JPG,AFSA23.JPG,AFSA22.JPG,AFNE23.JPG,,,,,,,,,,,,,0,1,1,0,,,,,,,,,,,AFNE19.jpg,AFNE08.jpg,AFSA17.jpg,AFSA15.jpg,AFSA17.jpg,FS,4,num_2,16,num_2,1.05026683875,,,2018_Feb_26_1406,60.004676768,MAFE4ImagesEEG,001,103231,
AMSA21.JPG,AMNE23.JPG,AMNE21.JPG,AMSA25.JPG,AMNE25.JPG,AMSA23.JPG,,,,,,,,,,,,,0,2,2,5,,,,,,,,,,,AFNE05.jpg,AFNE17.jpg,AFSA19.jpg,AFSA14.jpg,AFSA14.jpg,FS,4,num_4,32,num_8,1.01682147128,,,2018_Feb_26_1406,60.004676768,MAFE4ImagesEEG,001,103231,
AMNE22.JPG,AMSA24.JPG,AMSA22.JPG,AMNE25.JPG,AMNE24.JPG,AMSA25.JPG,,,,,,,,,,,,,0,3,3,7,,,,,,,,,,,AFSA08.jpg,AFSA06.jpg,AFNE14.jpg,AFNE17.jpg,AFNE17.jpg,FN,3,num_4,32,num_2,1.53340319032,,,2018_Feb_26_1406,60.004676768,MAFE4ImagesEEG,001,103231,
AFNE22.JPG,AFSA24.JPG,AFSA22.JPG,AFNE25.JPG,AFNE24.JPG,AFSA25.JPG,,,,,,,,,,,,,0,4,4,6,,,,,,,,,,,AFSA11.jpg,AFNE16.jpg,AFSA04.jpg,AFNE04.jpg,AFSA11.jpg,FS,4,num_8,16,num_8,1.08343861578,,,2018_Feb_26_1406,60.004676768,MAFE4ImagesEEG,001,103231,
AFSA21.JPG,AFNE23.JPG,AFNE21.JPG,AFSA25.JPG,AFNE25.JPG,AFSA23.JPG,,,,,,,,,,,,,0,5,5,4,,,,,,,,,,,AFNE14.jpg,AFNE15.jpg,AFSA17.jpg,AFSA20.jpg,AFNE15.jpg,FN,3,num_6,16,num_6,0.533537579817,,,2018_Feb_26_1406,60.004676768,MAFE4ImagesEEG,001,103231,
AFSA25.JPG,AFNE24.JPG,AFSA24.JPG,AFNE21.JPG,AFSA21.JPG,AFNE25.JPG,,,,,,,,,,,,,0,6,6,2,,,,,,,,,,,AFSA07.jpg,AFSA11.jpg,AFNE20.jpg,AFNE10.jpg,AFNE20.jpg,FN,3,num_2,32,num_8,1.40009288606,,,2018_Feb_26_1406,60.004676768,MAFE4ImagesEEG,001,103231,
AFNE23.JPG,AFNE24.JPG,AFNE22.JPG,AFSA24.JPG,AFSA22.JPG,AFSA23.JPG,,,,,,,,,,,,,0,7,7,8,,,,,,,,,,,AFNE16.jpg,AFSA04.jpg,AFSA19.jpg,AFNE13.jpg,AFSA19.jpg,FS,4,num_2,16,num_2,0.716797512025,,,2018_Feb_26_1406,60.004676768,MAFE4ImagesEEG,001,103231,
AMSA25.JPG,AMNE24.JPG,AMSA24.JPG,AMNE26.JPG,AMSA21.JPG,AMNE25.JPG,,,,,,,,,,,,,0,8,8,3,,,,,,,,,,,AFNE03.jpg,AFSA04.jpg,AFNE09.jpg,AFSA07.jpg,AFSA04.jpg,FS,4,num_6,16,num_6,0.533489148249,,,2018_Feb_26_1406,60.004676768,MAFE4ImagesEEG,001,103231,
AMSA21.JPG,AMNE22.JPG,AMNE21.JPG,AMSA23.JPG,AMSA22.JPG,AMNE23.JPG,,,,,,,,,,,,,0,9,9,1,,,,,,,,,,,AFSA07.jpg,AFNE03.jpg,AFNE12.jpg,AFSA09.jpg,AFNE12.jpg,FN,3,num_2,16,num_2,1.08354157303,,,2018_Feb_26_1406,60.004676768,MAFE4ImagesEEG,001,103231,
AFSA25.JPG,AFNE24.JPG,AFSA24.JPG,AFNE21.JPG,AFSA21.JPG,AFNE25.JPG,,,,,,,,,,,,,,,,,0,0,0,2,,,,,,,AMSA10.jpg,AMNE18.jpg,AMSA13.jpg,AMNE13.jpg,AMNE13.jpg,MN,1,num_4,16,num_4,1.30011536984,,,2018_Feb_26_1406,60.004676768,MAFE4ImagesEEG,001,103231,
AMSA25.JPG,AMNE24.JPG,AMSA24.JPG,AMNE26.JPG,AMSA21.JPG,AMNE25.JPG,,,,,,,,,,,,,,,,,0,1,1,3,,,,,,,AMNE12.jpg,AMNE09.jpg,AMSA17.jpg,AMSA12.jpg,AMNE09.jpg,MN,1,num_6,32,num_8,1.1834453193,,,2018_Feb_26_1406,60.004676768,MAFE4ImagesEEG,001,103231,
AMNE22.JPG,AMSA24.JPG,AMSA22.JPG,AMNE25.JPG,AMNE24.JPG,AMSA25.JPG,,,,,,,,,,,,,,,,,0,2,2,7,,,,,,,AMNE14.jpg,AMSA04.jpg,AMSA11.jpg,AMNE13.jpg,AMSA04.jpg,MS,2,num_6,16,num_6,0.533524429542,,,2018_Feb_26_1406,60.004676768,MAFE4ImagesEEG,001,103231,
AMSA21.JPG,AMNE22.JPG,AMNE21.JPG,AMSA23.JPG,AMSA22.JPG,AMNE23.JPG,,,,,,,,,,,,,,,,,0,3,3,1,,,,,,,AMNE11.jpg,AMSA18.jpg,AMSA08.jpg,AMNE18.jpg,AMNE11.jpg,MN,1,num_8,32,num_2,0.950091747451,,,2018_Feb_26_1406,60.004676768,MAFE4ImagesEEG,001,103231,
AFNE23.JPG,AFNE24.JPG,AFNE22.JPG,AFSA24.JPG,AFSA22.JPG,AFSA23.JPG,,,,,,,,,,,,,,,,,0,4,4,8,,,,,,,AMNE13.jpg,AMSA11.jpg,AMSA18.jpg,AMNE19.jpg,AMNE13.jpg,MN,1,num_8,16,num_8,0.766783383559,,,2018_Feb_26_1406,60.004676768,MAFE4ImagesEEG,001,103231,
AMSA21.JPG,AMNE23.JPG,AMNE21.JPG,AMSA25.JPG,AMNE25.JPG,AMSA23.JPG,,,,,,,,,,,,,,,,,0,5,5,5,,,,,,,AMNE07.jpg,AMNE13.jpg,AMSA17.jpg,AMSA01.jpg,AMNE07.jpg,MN,1,num_8,16,num_8,0.583438455476,,,2018_Feb_26_1406,60.004676768,MAFE4ImagesEEG,001,103231,
AFSA21.JPG,AFNE23.JPG,AFNE21.JPG,AFSA25.JPG,AFNE25.JPG,AFSA23.JPG,,,,,,,,,,,,,,,,,0,6,6,4,,,,,,,AMSA16.jpg,AMNE20.jpg,AMNE14.jpg,AMSA08.jpg,AMNE14.jpg,MN,1,num_2,32,num_6,1.40007556602,,,2018_Feb_26_1406,60.004676768,MAFE4ImagesEEG,001,103231,
AMNE23.JPG,AMNE24.JPG,AMNE22.JPG,AMSA24.JPG,AMSA22.JPG,AMSA23.JPG,,,,,,,,,,,,,,,,,0,7,7,9,,,,,,,AMSA19.jpg,AMNE07.jpg,AMNE04.jpg,AMSA10.jpg,AMNE07.jpg,MN,1,num_6,16,num_6,0.983435440576,,,2018_Feb_26_1406,60.004676768,MAFE4ImagesEEG,001,103231,
AFSA21.JPG,AFNE22.JPG,AFNE21.JPG,AFSA23.JPG,AFSA22.JPG,AFNE23.JPG,,,,,,,,,,,,,,,,,0,8,8,0,,,,,,,AMNE13.jpg,AMSA10.jpg,AMSA08.jpg,AMNE18.jpg,AMNE18.jpg,MN,1,num_4,16,num_4,0.950190214207,,,2018_Feb_26_1406,60.004676768,MAFE4ImagesEEG,001,103231,
AFNE22.JPG,AFSA24.JPG,AFSA22.JPG,AFNE25.JPG,AFNE24.JPG,AFSA25.JPG,,,,,,,,,,,,,,,,,0,9,9,6,,,,,,,AMSA07.jpg,AMNE01.jpg,AMNE04.jpg,AMSA06.jpg,AMSA06.jpg,MS,2,num_4,32,num_8,0.783510557609,,,2018_Feb_26_1406,60.004676768,MAFE4ImagesEEG,001,103231,
AMNE23.JPG,AMNE24.JPG,AMNE22.JPG,AMSA24.JPG,AMSA22.JPG,AMSA23.JPG,,,,,,,,,,,,,,,,,,,,,0,0,0,9,,,AFNE13.jpg,AFNE11.jpg,AFSA13.jpg,AFSA09.jpg,AFNE13.jpg,FN,3,num_8,32,num_6,1.0170524033,,,2018_Feb_26_1406,60.004676768,MAFE4ImagesEEG,001,103231,
AFNE22.JPG,AFSA24.JPG,AFSA22.JPG,AFNE25.JPG,AFNE24.JPG,AFSA25.JPG,,,,,,,,,,,,,,,,,,,,,0,1,1,6,,,AFSA05.jpg,AFNE19.jpg,AFNE13.jpg,AFSA02.jpg,AFNE13.jpg,FN,3,num_2,32,num_8,1.6666932879,,,2018_Feb_26_1406,60.004676768,MAFE4ImagesEEG,001,103231,
AFSA21.JPG,AFNE23.JPG,AFNE21.JPG,AFSA25.JPG,AFNE25.JPG,AFSA23.JPG,,,,,,,,,,,,,,,,,,,,,0,2,2,4,,,AFNE20.jpg,AFSA09.jpg,AFNE17.jpg,AFSA05.jpg,AFSA09.jpg,FS,4,num_6,16,num_6,0.566851123585,,,2018_Feb_26_1406,60.004676768,MAFE4ImagesEEG,001,103231,
AMNE22.JPG,AMSA24.JPG,AMSA22.JPG,AMNE25.JPG,AMNE24.JPG,AMSA25.JPG,,,,,,,,,,,,,,,,,,,,,0,3,3,7,,,AFSA07.jpg,AFNE12.jpg,AFSA20.jpg,AFNE11.jpg,AFNE12.jpg,FN,3,num_6,16,num_6,0.583458662033,,,2018_Feb_26_1406,60.004676768,MAFE4ImagesEEG,001,103231,
AMSA21.JPG,AMNE22.JPG,AMNE21.JPG,AMSA23.JPG,AMSA22.JPG,AMNE23.JPG,,,,,,,,,,,,,,,,,,,,,0,4,4,1,,,AFNE05.jpg,AFSA15.jpg,AFNE02.jpg,AFSA16.jpg,AFNE02.jpg,FN,3,num_2,32,num_8,1.36671647744,,,2018_Feb_26_1406,60.004676768,MAFE4ImagesEEG,001,103231,
AMSA21.JPG,AMNE23.JPG,AMNE21.JPG,AMSA25.JPG,AMNE25.JPG,AMSA23.JPG,,,,,,,,,,,,,,,,,,,,,0,5,5,5,,,AFSA16.jpg,AFNE16.jpg,AFSA11.jpg,AFNE12.jpg,AFSA16.jpg,FS,4,num_8,16,num_8,0.666861355188,,,2018_Feb_26_1406,60.004676768,MAFE4ImagesEEG,001,103231,
AFSA25.JPG,AFNE24.JPG,AFSA24.JPG,AFNE21.JPG,AFSA21.JPG,AFNE25.JPG,,,,,,,,,,,,,,,,,,,,,0,6,6,2,,,AFSA17.jpg,AFSA20.jpg,AFNE20.jpg,AFNE14.jpg,AFSA17.jpg,FS,4,num_8,32,num_6,0.666908824584,,,2018_Feb_26_1406,60.004676768,MAFE4ImagesEEG,001,103231,
AFNE23.JPG,AFNE24.JPG,AFNE22.JPG,AFSA24.JPG,AFSA22.JPG,AFSA23.JPG,,,,,,,,,,,,,,,,,,,,,0,7,7,8,,,AFSA10.jpg,AFNE06.jpg,AFSA20.jpg,AFNE11.jpg,AFSA10.jpg,FS,4,num_8,32,num_2,0.883527845377,,,2018_Feb_26_1406,60.004676768,MAFE4ImagesEEG,001,103231,
AFSA21.JPG,AFNE22.JPG,AFNE21.JPG,AFSA23.JPG,AFSA22.JPG,AFNE23.JPG,,,,,,,,,,,,,,,,,,,,,0,8,8,0,,,AFNE18.jpg,AFNE04.jpg,AFSA18.jpg,AFSA17.jpg,AFNE18.jpg,FN,3,num_8,16,num_8,1.03344600892,,,2018_Feb_26_1406,60.004676768,MAFE4ImagesEEG,001,103231,
AMSA25.JPG,AMNE24.JPG,AMSA24.JPG,AMNE26.JPG,AMSA21.JPG,AMNE25.JPG,,,,,,,,,,,,,,,,,,,,,0,9,9,3,,,AFNE20.jpg,AFNE12.jpg,AFSA18.jpg,AFSA02.jpg,AFSA02.jpg,FS,4,num_4,16,num_4,1.23343247373,,,2018_Feb_26_1406,60.004676768,MAFE4ImagesEEG,001,103231,
,,,,,,,,,,,,,,,,,,,,,,,,,,,,,,,,,,,,,,,,,,,space,29.7147579335,2018_Feb_26_1406,60.004676768,MAFE4ImagesEEG,001,103231,
AFNE01.JPG,AFNE01.JPG,AFNE01.JPG,AFNE01.JPG,AFNE01.JPG,AFNE01.JPG,0,0,0,2,,,,,,,,,,,,,,,,,,,,,,,AMNE08.jpg,AMNE18.jpg,AMSA02.jpg,AMSA09.jpg,AMSA02.jpg,MS,2,num_2,32,num_4,0.800136057427,,,2018_Feb_26_1406,60.004676768,MAFE4ImagesEEG,001,103231,
AFNE01.JPG,AFNE01.JPG,AFNE01.JPG,AFNE01.JPG,AFNE01.JPG,AFNE01.JPG,0,1,1,8,,,,,,,,,,,,,,,,,,,,,,,AMSA11.jpg,AMNE13.jpg,AMNE04.jpg,AMSA05.jpg,AMNE13.jpg,MN,1,num_6,16,num_6,0.633479814744,,,2018_Feb_26_1406,60.004676768,MAFE4ImagesEEG,001,103231,
AFNE01.JPG,AFNE01.JPG,AFNE01.JPG,AFNE01.JPG,AFNE01.JPG,AFNE01.JPG,0,2,2,0,,,,,,,,,,,,,,,,,,,,,,,AMSA20.jpg,AMNE20.jpg,AMNE18.jpg,AMSA11.jpg,AMSA11.jpg,MS,2,num_4,32,num_6,1.11675664992,,,2018_Feb_26_1406,60.004676768,MAFE4ImagesEEG,001,103231,
AFNE01.JPG,AFNE01.JPG,AFNE01.JPG,AFNE01.JPG,AFNE01.JPG,AFNE01.JPG,0,3,3,7,,,,,,,,,,,,,,,,,,,,,,,AMSA03.jpg,AMNE16.jpg,AMSA01.jpg,AMNE15.jpg,AMSA03.jpg,MS,2,num_8,16,num_8,0.633451589732,,,2018_Feb_26_1406,60.004676768,MAFE4ImagesEEG,001,103231,
AFNE01.JPG,AFNE01.JPG,AFNE01.JPG,AFNE01.JPG,AFNE01.JPG,AFNE01.JPG,0,4,4,3,,,,,,,,,,,,,,,,,,,,,,,AMSA11.jpg,AMNE03.jpg,AMNE05.jpg,AMSA18.jpg,AMSA18.jpg,MS,2,num_4,16,num_4,0.81676700979,,,2018_Feb_26_1406,60.004676768,MAFE4ImagesEEG,001,103231,
AFNE01.JPG,AFNE01.JPG,AFNE01.JPG,AFNE01.JPG,AFNE01.JPG,AFNE01.JPG,0,5,5,1,,,,,,,,,,,,,,,,,,,,,,,AMSA02.jpg,AMNE06.jpg,AMSA16.jpg,AMNE04.jpg,AMSA02.jpg,MS,2,num_8,16,num_8,0.683507061563,,,2018_Feb_26_1406,60.004676768,MAFE4ImagesEEG,001,103231,
AFNE01.JPG,AFNE01.JPG,AFNE01.JPG,AFNE01.JPG,AFNE01.JPG,AFNE01.JPG,0,6,6,6,,,,,,,,,,,,,,,,,,,,,,,AMNE03.jpg,AMSA10.jpg,AMNE08.jpg,AMSA02.jpg,AMNE03.jpg,MN,1,num_8,32,num_2,0.93346400233,,,2018_Feb_26_1406,60.004676768,MAFE4ImagesEEG,001,103231,
AFNE01.JPG,AFNE01.JPG,AFNE01.JPG,AFNE01.JPG,AFNE01.JPG,AFNE01.JPG,0,7,7,4,,,,,,,,,,,,,,,,,,,,,,,AMNE16.jpg,AMSA07.jpg,AMSA12.jpg,AMNE05.jpg,AMSA07.jpg,MS,2,num_6,16,num_6,0.683484930545,,,2018_Feb_26_1406,60.004676768,MAFE4ImagesEEG,001,103231,
AFNE01.JPG,AFNE01.JPG,AFNE01.JPG,AFNE01.JPG,AFNE01.JPG,AFNE01.JPG,0,8,8,5,,,,,,,,,,,,,,,,,,,,,,,AMNE17.jpg,AMNE09.jpg,AMSA07.jpg,AMSA04.jpg,AMSA07.jpg,MS,2,num_2,16,num_2,1.83342233836,,,2018_Feb_26_1406,60.004676768,MAFE4ImagesEEG,001,103231,
AFNE01.JPG,AFNE01.JPG,AFNE01.JPG,AFNE01.JPG,AFNE01.JPG,AFNE01.JPG,0,9,9,9,,,,,,,,,,,,,,,,,,,,,,,AMNE08.jpg,AMNE17.jpg,AMSA17.jpg,AMSA18.jpg,AMSA17.jpg,MS,2,num_2,32,num_6,0.833515352686,,,2018_Feb_26_1406,60.004676768,MAFE4ImagesEEG,001,103231,
AFNE01.JPG,AFNE01.JPG,AFNE01.JPG,AFNE01.JPG,AFNE01.JPG,AFNE01.JPG,1,0,10,8,,,,,,,,,,,,,,,,,,,,,,,AMSA10.jpg,AMNE17.jpg,AMNE02.jpg,AMSA07.jpg,AMNE02.jpg,MN,1,num_2,16,num_2,1.21680344583,,,2018_Feb_26_1406,60.004676768,MAFE4ImagesEEG,001,103231,
AFNE01.JPG,AFNE01.JPG,AFNE01.JPG,AFNE01.JPG,AFNE01.JPG,AFNE01.JPG,1,1,11,6,,,,,,,,,,,,,,,,,,,,,,,AMSA15.jpg,AMNE13.jpg,AMNE08.jpg,AMSA20.jpg,AMSA20.jpg,MS,2,num_4,16,num_4,0.733463745681,,,2018_Feb_26_1406,60.004676768,MAFE4ImagesEEG,001,103231,
AFNE01.JPG,AFNE01.JPG,AFNE01.JPG,AFNE01.JPG,AFNE01.JPG,AFNE01.JPG,1,2,12,9,,,,,,,,,,,,,,,,,,,,,,,AMSA19.jpg,AMSA13.jpg,AMNE02.jpg,AMNE09.jpg,AMNE02.jpg,MN,1,num_2,16,num_2,1.68336914387,,,2018_Feb_26_1406,60.004676768,MAFE4ImagesEEG,001,103231,
AFNE01.JPG,AFNE01.JPG,AFNE01.JPG,AFNE01.JPG,AFNE01.JPG,AFNE01.JPG,1,3,13,7,,,,,,,,,,,,,,,,,,,,,,,AMSA15.jpg,AMSA07.jpg,AMNE19.jpg,AMNE18.jpg,AMSA15.jpg,MS,2,num_8,32,num_6,1.08349121711,,,2018_Feb_26_1406,60.004676768,MAFE4ImagesEEG,001,103231,
AFNE01.JPG,AFNE01.JPG,AFNE01.JPG,AFNE01.JPG,AFNE01.JPG,AFNE01.JPG,1,4,14,4,,,,,,,,,,,,,,,,,,,,,,,AMNE13.jpg,AMSA06.jpg,AMSA18.jpg,AMNE17.jpg,AMSA06.jpg,MS,2,num_6,16,num_6,0.533497487544,,,2018_Feb_26_1406,60.004676768,MAFE4ImagesEEG,001,103231,
AFNE01.JPG,AFNE01.JPG,AFNE01.JPG,AFNE01.JPG,AFNE01.JPG,AFNE01.JPG,1,5,15,5,,,,,,,,,,,,,,,,,,,,,,,AMNE02.jpg,AMNE19.jpg,AMSA08.jpg,AMSA18.jpg,AMSA18.jpg,MS,2,num_4,16,num_4,0.683472101111,,,2018_Feb_26_1406,60.004676768,MAFE4ImagesEEG,001,103231,
AFNE01.JPG,AFNE01.JPG,AFNE01.JPG,AFNE01.JPG,AFNE01.JPG,AFNE01.JPG,1,6,16,1,,,,,,,,,,,,,,,,,,,,,,,AMSA02.jpg,AMNE06.jpg,AMSA08.jpg,AMNE04.jpg,AMSA02.jpg,MS,2,num_8,16,num_8,0.616819995921,,,2018_Feb_26_1406,60.004676768,MAFE4ImagesEEG,001,103231,
AFNE01.JPG,AFNE01.JPG,AFNE01.JPG,AFNE01.JPG,AFNE01.JPG,AFNE01.JPG,1,7,17,2,,,,,,,,,,,,,,,,,,,,,,,AMSA17.jpg,AMNE16.jpg,AMSA13.jpg,AMNE03.jpg,AMNE03.jpg,MN,1,num_4,32,num_2,0.683449649368,,,2018_Feb_26_1406,60.004676768,MAFE4ImagesEEG,001,103231,
AFNE01.JPG,AFNE01.JPG,AFNE01.JPG,AFNE01.JPG,AFNE01.JPG,AFNE01.JPG,1,8,18,0,,,,,,,,,,,,,,,,,,,,,,,AMNE02.jpg,AMSA20.jpg,AMNE18.jpg,AMSA14.jpg,AMSA20.jpg,MS,2,num_6,16,num_6,0.433495274396,,,2018_Feb_26_1406,60.004676768,MAFE4ImagesEEG,001,103231,
AFNE01.JPG,AFNE01.JPG,AFNE01.JPG,AFNE01.JPG,AFNE01.JPG,AFNE01.JPG,1,9,19,3,,,,,,,,,,,,,,,,,,,,,,,AMNE10.jpg,AMSA08.jpg,AMNE03.jpg,AMSA11.jpg,AMNE03.jpg,MN,1,num_2,32,num_8,0.983464307035,,,2018_Feb_26_1406,60.004676768,MAFE4ImagesEEG,001,103231,
AFNE01.JPG,AFNE01.JPG,AFNE01.JPG,AFNE01.JPG,AFNE01.JPG,AFNE01.JPG,2,0,20,2,,,,,,,,,,,,,,,,,,,,,,,AMNE13.jpg,AMNE09.jpg,AMSA08.jpg,AMSA02.jpg,AMNE09.jpg,MN,1,num_6,16,num_6,0.600021297112,,,2018_Feb_26_1406,60.004676768,MAFE4ImagesEEG,001,103231,
AFNE01.JPG,AFNE01.JPG,AFNE01.JPG,AFNE01.JPG,AFNE01.JPG,AFNE01.JPG,2,1,21,6,,,,,,,,,,,,,,,,,,,,,,,AMSA14.jpg,AMNE11.jpg,AMNE02.jpg,AMSA17.jpg,AMSA14.jpg,MS,2,num_8,16,num_8,0.600232343189,,,2018_Feb_26_1406,60.004676768,MAFE4ImagesEEG,001,103231,
AFNE01.JPG,AFNE01.JPG,AFNE01.JPG,AFNE01.JPG,AFNE01.JPG,AFNE01.JPG,2,2,22,4,,,,,,,,,,,,,,,,,,,,,,,AMSA16.jpg,AMNE06.jpg,AMNE13.jpg,AMSA09.jpg,AMNE06.jpg,MN,1,num_6,16,num_6,0.966655986034,,,2018_Feb_26_1406,60.004676768,MAFE4ImagesEEG,001,103231,
AFNE01.JPG,AFNE01.JPG,AFNE01.JPG,AFNE01.JPG,AFNE01.JPG,AFNE01.JPG,2,3,23,3,,,,,,,,,,,,,,,,,,,,,,,AMSA19.jpg,AMNE03.jpg,AMNE18.jpg,AMSA12.jpg,AMNE03.jpg,MN,1,num_6,32,num_8,0.616758413962,,,2018_Feb_26_1406,60.004676768,MAFE4ImagesEEG,001,103231,
AFNE01.JPG,AFNE01.JPG,AFNE01.JPG,AFNE01.JPG,AFNE01.JPG,AFNE01.JPG,2,4,24,1,,,,,,,,,,,,,,,,,,,,,,,AMNE05.jpg,AMNE08.jpg,AMSA15.jpg,AMSA01.jpg,AMSA15.jpg,MS,2,num_2,16,num_2,0.733484914526,,,2018_Feb_26_1406,60.004676768,MAFE4ImagesEEG,001,103231,
AFNE01.JPG,AFNE01.JPG,AFNE01.JPG,AFNE01.JPG,AFNE01.JPG,AFNE01.JPG,2,5,25,8,,,,,,,,,,,,,,,,,,,,,,,AMSA08.jpg,AMNE08.jpg,AMSA14.jpg,AMNE06.jpg,AMNE08.jpg,MN,1,num_6,32,num_8,0.633451589732,,,2018_Feb_26_1406,60.004676768,MAFE4ImagesEEG,001,103231,
AFNE01.JPG,AFNE01.JPG,AFNE01.JPG,AFNE01.JPG,AFNE01.JPG,AFNE01.JPG,2,6,26,0,,,,,,,,,,,,,,,,,,,,,,,AMNE15.jpg,AMNE03.jpg,AMSA19.jpg,AMSA14.jpg,AMNE15.jpg,MN,1,num_8,32,num_6,0.949868192431,,,2018_Feb_26_1406,60.004676768,MAFE4ImagesEEG,001,103231,
AFNE01.JPG,AFNE01.JPG,AFNE01.JPG,AFNE01.JPG,AFNE01.JPG,AFNE01.JPG,2,7,27,9,,,,,,,,,,,,,,,,,,,,,,,AMSA07.jpg,AMNE17.jpg,AMSA15.jpg,AMNE12.jpg,AMNE17.jpg,MN,1,num_6,16,num_6,1.55006076407,,,2018_Feb_26_1406,60.004676768,MAFE4ImagesEEG,001,103231,
AFNE01.JPG,AFNE01.JPG,AFNE01.JPG,AFNE01.JPG,AFNE01.JPG,AFNE01.JPG,2,8,28,7,,,,,,,,,,,,,,,,,,,,,,,AMNE01.jpg,AMSA03.jpg,AMNE11.jpg,AMSA19.jpg,AMNE01.jpg,MN,1,num_8,16,num_8,0.983451156761,,,2018_Feb_26_1406,60.004676768,MAFE4ImagesEEG,001,103231,
AFNE01.JPG,AFNE01.JPG,AFNE01.JPG,AFNE01.JPG,AFNE01.JPG,AFNE01.JPG,2,9,29,5,,,,,,,,,,,,,,,,,,,,,,,AMNE18.jpg,AMSA06.jpg,AMNE08.jpg,AMSA11.jpg,AMSA06.jpg,MS,2,num_6,32,num_8,0.666862638085,,,2018_Feb_26_1406,60.004676768,MAFE4ImagesEEG,001,103231,
AFNE01.JPG,AFNE01.JPG,AFNE01.JPG,AFNE01.JPG,AFNE01.JPG,AFNE01.JPG,3,0,30,9,,,,,,,,,,,,,,,,,,,,,,,AMSA18.jpg,AMSA14.jpg,AMNE03.jpg,AMNE13.jpg,AMNE13.jpg,MN,1,num_4,16,num_4,0.883442849619,,,2018_Feb_26_1406,60.004676768,MAFE4ImagesEEG,001,103231,
AFNE01.JPG,AFNE01.JPG,AFNE01.JPG,AFNE01.JPG,AFNE01.JPG,AFNE01.JPG,3,1,31,2,,,,,,,,,,,,,,,,,,,,,,,AMNE18.jpg,AMNE07.jpg,AMSA02.jpg,AMSA05.jpg,AMSA02.jpg,MS,2,num_2,32,num_8,1.38349208306,,,2018_Feb_26_1406,60.004676768,MAFE4ImagesEEG,001,103231,
AFNE01.JPG,AFNE01.JPG,AFNE01.JPG,AFNE01.JPG,AFNE01.JPG,AFNE01.JPG,3,2,32,0,,,,,,,,,,,,,,,,,,,,,,,AMSA08.jpg,AMNE07.jpg,AMSA10.jpg,AMNE19.jpg,AMSA08.jpg,MS,2,num_8,16,num_8,0.666803622269,,,2018_Feb_26_1406,60.004676768,MAFE4ImagesEEG,001,103231,
AFNE01.JPG,AFNE01.JPG,AFNE01.JPG,AFNE01.JPG,AFNE01.JPG,AFNE01.JPG,3,3,33,5,,,,,,,,,,,,,,,,,,,,,,,AMSA13.jpg,AMNE13.jpg,AMNE06.jpg,AMSA11.jpg,AMSA11.jpg,MS,2,num_4,16,num_4,0.783446089132,,,2018_Feb_26_1406,60.004676768,MAFE4ImagesEEG,001,103231,
AFNE01.JPG,AFNE01.JPG,AFNE01.JPG,AFNE01.JPG,AFNE01.JPG,AFNE01.JPG,3,4,34,6,,,,,,,,,,,,,,,,,,,,,,,AMSA13.jpg,AMNE10.jpg,AMSA10.jpg,AMNE06.jpg,AMNE10.jpg,MN,1,num_6,16,num_6,1.20009519521,,,2018_Feb_26_1406,60.004676768,MAFE4ImagesEEG,001,103231,
AFNE01.JPG,AFNE01.JPG,AFNE01.JPG,AFNE01.JPG,AFNE01.JPG,AFNE01.JPG,3,5,35,8,,,,,,,,,,,,,,,,,,,,,,,AMSA12.jpg,AMNE18.jpg,AMSA01.jpg,AMNE06.jpg,AMSA01.jpg,MS,2,num_2,16,num_2,0.733485235251,,,2018_Feb_26_1406,60.004676768,MAFE4ImagesEEG,001,103231,
AFNE01.JPG,AFNE01.JPG,AFNE01.JPG,AFNE01.JPG,AFNE01.JPG,AFNE01.JPG,3,6,36,4,,,,,,,,,,,,,,,,,,,,,,,AMSA12.jpg,AMNE01.jpg,AMNE08.jpg,AMSA14.jpg,AMSA12.jpg,MS,2,num_8,32,num_6,2.16667644924,,,2018_Feb_26_1406,60.004676768,MAFE4ImagesEEG,001,103231,
AFNE01.JPG,AFNE01.JPG,AFNE01.JPG,AFNE01.JPG,AFNE01.JPG,AFNE01.JPG,3,7,37,3,,,,,,,,,,,,,,,,,,,,,,,AMNE04.jpg,AMSA04.jpg,AMNE14.jpg,AMSA05.jpg,AMNE04.jpg,MN,1,num_8,16,num_8,0.58319758065,,,2018_Feb_26_1406,60.004676768,MAFE4ImagesEEG,001,103231,
AFNE01.JPG,AFNE01.JPG,AFNE01.JPG,AFNE01.JPG,AFNE01.JPG,AFNE01.JPG,3,8,38,7,,,,,,,,,,,,,,,,,,,,,,,AMSA04.jpg,AMNE15.jpg,AMSA01.jpg,AMNE05.jpg,AMNE15.jpg,MN,1,num_6,16,num_6,0.683479157276,,,2018_Feb_26_1406,60.004676768,MAFE4ImagesEEG,001,103231,
AFNE01.JPG,AFNE01.JPG,AFNE01.JPG,AFNE01.JPG,AFNE01.JPG,AFNE01.JPG,3,9,39,1,,,,,,,,,,,,,,,,,,,,,,,AMSA01.jpg,AMSA06.jpg,AMNE14.jpg,AMNE03.jpg,AMNE03.jpg,MN,1,num_4,32,num_8,0.850002934691,,,2018_Feb_26_1406,60.004676768,MAFE4ImagesEEG,001,103231,
AFNE01.JPG,AFNE01.JPG,AFNE01.JPG,AFNE01.JPG,AFNE01.JPG,AFNE01.JPG,4,0,40,9,,,,,,,,,,,,,,,,,,,,,,,AMNE02.jpg,AMSA15.jpg,AMNE05.jpg,AMSA02.jpg,AMNE05.jpg,MN,1,num_2,32,num_8,0.733532704646,,,2018_Feb_26_1406,60.004676768,MAFE4ImagesEEG,001,103231,
AFNE01.JPG,AFNE01.JPG,AFNE01.JPG,AFNE01.JPG,AFNE01.JPG,AFNE01.JPG,4,1,41,7,,,,,,,,,,,,,,,,,,,,,,,AMNE01.jpg,AMSA02.jpg,AMNE16.jpg,AMSA08.jpg,AMNE01.jpg,MN,1,num_8,32,num_4,0.950153008453,,,2018_Feb_26_1406,60.004676768,MAFE4ImagesEEG,001,103231,
AFNE01.JPG,AFNE01.JPG,AFNE01.JPG,AFNE01.JPG,AFNE01.JPG,AFNE01.JPG,4,2,42,8,,,,,,,,,,,,,,,,,,,,,,,AMNE08.jpg,AMSA18.jpg,AMSA03.jpg,AMNE02.jpg,AMNE02.jpg,MN,1,num_4,16,num_4,1.14998134912,,,2018_Feb_26_1406,60.004676768,MAFE4ImagesEEG,001,103231,
AFNE01.JPG,AFNE01.JPG,AFNE01.JPG,AFNE01.JPG,AFNE01.JPG,AFNE01.JPG,4,3,43,4,,,,,,,,,,,,,,,,,,,,,,,AMNE18.jpg,AMSA17.jpg,AMNE04.jpg,AMSA16.jpg,AMNE18.jpg,MN,1,num_8,32,num_6,1.06665691617,,,2018_Feb_26_1406,60.004676768,MAFE4ImagesEEG,001,103231,
AFNE01.JPG,AFNE01.JPG,AFNE01.JPG,AFNE01.JPG,AFNE01.JPG,AFNE01.JPG,4,4,44,1,,,,,,,,,,,,,,,,,,,,,,,AMSA12.jpg,AMNE15.jpg,AMNE07.jpg,AMSA05.jpg,AMNE07.jpg,MN,1,num_2,16,num_2,0.783496445045,,,2018_Feb_26_1406,60.004676768,MAFE4ImagesEEG,001,103231,
AFNE01.JPG,AFNE01.JPG,AFNE01.JPG,AFNE01.JPG,AFNE01.JPG,AFNE01.JPG,4,5,45,5,,,,,,,,,,,,,,,,,,,,,,,AMNE06.jpg,AMSA11.jpg,AMNE01.jpg,AMSA15.jpg,AMNE06.jpg,MN,1,num_8,32,num_4,0.716766079655,,,2018_Feb_26_1406,60.004676768,MAFE4ImagesEEG,001,103231,
AFNE01.JPG,AFNE01.JPG,AFNE01.JPG,AFNE01.JPG,AFNE01.JPG,AFNE01.JPG,4,6,46,2,,,,,,,,,,,,,,,,,,,,,,,AMNE18.jpg,AMNE15.jpg,AMSA11.jpg,AMSA02.jpg,AMNE18.jpg,MN,1,num_8,32,num_6,0.766843041056,,,2018_Feb_26_1406,60.004676768,MAFE4ImagesEEG,001,103231,
AFNE01.JPG,AFNE01.JPG,AFNE01.JPG,AFNE01.JPG,AFNE01.JPG,AFNE01.JPG,4,7,47,3,,,,,,,,,,,,,,,,,,,,,,,AMSA11.jpg,AMNE16.jpg,AMNE02.jpg,AMSA19.jpg,AMNE16.jpg,MN,1,num_6,16,num_6,0.800137981889,,,2018_Feb_26_1406,60.004676768,MAFE4ImagesEEG,001,103231,
AFNE01.JPG,AFNE01.JPG,AFNE01.JPG,AFNE01.JPG,AFNE01.JPG,AFNE01.JPG,4,8,48,0,,,,,,,,,,,,,,,,,,,,,,,AMNE12.jpg,AMNE16.jpg,AMSA01.jpg,AMSA03.jpg,AMSA03.jpg,MS,2,num_4,16,num_4,0.666828319081,,,2018_Feb_26_1406,60.004676768,MAFE4ImagesEEG,001,103231,
AFNE01.JPG,AFNE01.JPG,AFNE01.JPG,AFNE01.JPG,AFNE01.JPG,AFNE01.JPG,4,9,49,6,,,,,,,,,,,,,,,,,,,,,,,AMNE19.jpg,AMSA19.jpg,AMSA12.jpg,AMNE06.jpg,AMNE19.jpg,MN,1,num_8,32,num_6,0.683446762618,,,2018_Feb_26_1406,60.004676768,MAFE4ImagesEEG,001,103231,
AFNE01.JPG,AFNE01.JPG,AFNE01.JPG,AFNE01.JPG,AFNE01.JPG,AFNE01.JPG,5,0,50,8,,,,,,,,,,,,,,,,,,,,,,,AMNE04.jpg,AMNE10.jpg,AMSA18.jpg,AMSA09.jpg,AMSA18.jpg,MS,2,num_2,16,num_2,0.916671076789,,,2018_Feb_26_1406,60.004676768,MAFE4ImagesEEG,001,103231,
AFNE01.JPG,AFNE01.JPG,AFNE01.JPG,AFNE01.JPG,AFNE01.JPG,AFNE01.JPG,5,1,51,5,,,,,,,,,,,,,,,,,,,,,,,AMSA19.jpg,AMSA01.jpg,AMNE11.jpg,AMNE03.jpg,AMNE03.jpg,MN,1,num_4,16,num_4,1.06667038728,,,2018_Feb_26_1406,60.004676768,MAFE4ImagesEEG,001,103231,
AFNE01.JPG,AFNE01.JPG,AFNE01.JPG,AFNE01.JPG,AFNE01.JPG,AFNE01.JPG,5,2,52,9,,,,,,,,,,,,,,,,,,,,,,,AMNE04.jpg,AMNE01.jpg,AMSA19.jpg,AMSA08.jpg,AMNE04.jpg,MN,1,num_8,32,num_6,1.08344438917,,,2018_Feb_26_1406,60.004676768,MAFE4ImagesEEG,001,103231,
AFNE01.JPG,AFNE01.JPG,AFNE01.JPG,AFNE01.JPG,AFNE01.JPG,AFNE01.JPG,5,3,53,0,,,,,,,,,,,,,,,,,,,,,,,AMNE08.jpg,AMNE18.jpg,AMSA17.jpg,AMSA11.jpg,AMSA11.jpg,MS,2,num_4,16,num_4,0.466917548678,,,2018_Feb_26_1406,60.004676768,MAFE4ImagesEEG,001,103231,
AFNE01.JPG,AFNE01.JPG,AFNE01.JPG,AFNE01.JPG,AFNE01.JPG,AFNE01.JPG,5,4,54,6,,,,,,,,,,,,,,,,,,,,,,,AMSA10.jpg,AMNE04.jpg,AMSA09.jpg,AMNE20.jpg,AMNE20.jpg,MN,1,num_4,16,num_4,0.583461227943,,,2018_Feb_26_1406,60.004676768,MAFE4ImagesEEG,001,103231,
AFNE01.JPG,AFNE01.JPG,AFNE01.JPG,AFNE01.JPG,AFNE01.JPG,AFNE01.JPG,5,5,55,2,,,,,,,,,,,,,,,,,,,,,,,AMSA12.jpg,AMNE10.jpg,AMNE09.jpg,AMSA08.jpg,AMNE09.jpg,MN,1,num_2,16,num_2,0.750145054189,,,2018_Feb_26_1406,60.004676768,MAFE4ImagesEEG,001,103231,
AFNE01.JPG,AFNE01.JPG,AFNE01.JPG,AFNE01.JPG,AFNE01.JPG,AFNE01.JPG,5,6,56,3,,,,,,,,,,,,,,,,,,,,,,,AMNE14.jpg,AMSA02.jpg,AMSA19.jpg,AMNE10.jpg,AMSA19.jpg,MS,2,num_2,16,num_2,0.650156632764,,,2018_Feb_26_1406,60.004676768,MAFE4ImagesEEG,001,103231,
AFNE01.JPG,AFNE01.JPG,AFNE01.JPG,AFNE01.JPG,AFNE01.JPG,AFNE01.JPG,5,7,57,1,,,,,,,,,,,,,,,,,,,,,,,AMNE20.jpg,AMSA09.jpg,AMSA10.jpg,AMNE01.jpg,AMNE20.jpg,MN,1,num_8,16,num_8,1.30010478536,,,2018_Feb_26_1406,60.004676768,MAFE4ImagesEEG,001,103231,
AFNE01.JPG,AFNE01.JPG,AFNE01.JPG,AFNE01.JPG,AFNE01.JPG,AFNE01.JPG,5,8,58,4,,,,,,,,,,,,,,,,,,,,,,,AMSA15.jpg,AMNE06.jpg,AMNE20.jpg,AMSA19.jpg,AMSA15.jpg,MS,2,num_8,16,num_8,0.916791033233,,,2018_Feb_26_1406,60.004676768,MAFE4ImagesEEG,001,103231,
AFNE01.JPG,AFNE01.JPG,AFNE01.JPG,AFNE01.JPG,AFNE01.JPG,AFNE01.JPG,5,9,59,7,,,,,,,,,,,,,,,,,,,,,,,AMNE18.jpg,AMSA08.jpg,AMSA14.jpg,AMNE02.jpg,AMSA08.jpg,MS,2,num_6,16,num_6,0.816831478383,,,2018_Feb_26_1406,60.004676768,MAFE4ImagesEEG,001,103231,
,,,,,,,,,,,,,,,,,,,,,,,,,,,,,,,,,,,,,,,,,,,space,54.6621246834,2018_Feb_26_1406,60.004676768,MAFE4ImagesEEG,001,103231,
AFNE01.JPG,AFNE01.JPG,AFNE01.JPG,AFNE01.JPG,AFNE01.JPG,AFNE01.JPG,,,,,0,0,0,6,,,,,,,,,,,,,,,,,,,AFNE09.jpg,AFNE10.jpg,AFSA06.jpg,AFSA02.jpg,AFSA02.jpg,FS,4,num_4,16,num_4,0.633458646014,,,2018_Feb_26_1406,60.004676768,MAFE4ImagesEEG,001,103231,
AFNE01.JPG,AFNE01.JPG,AFNE01.JPG,AFNE01.JPG,AFNE01.JPG,AFNE01.JPG,,,,,0,1,1,5,,,,,,,,,,,,,,,,,,,AFNE01.jpg,AFNE16.jpg,AFSA11.jpg,AFSA05.jpg,AFNE01.jpg,FN,3,num_8,16,num_8,0.716874810052,,,2018_Feb_26_1406,60.004676768,MAFE4ImagesEEG,001,103231,
AFNE01.JPG,AFNE01.JPG,AFNE01.JPG,AFNE01.JPG,AFNE01.JPG,AFNE01.JPG,,,,,0,2,2,8,,,,,,,,,,,,,,,,,,,AFSA11.jpg,AFNE05.jpg,AFSA10.jpg,AFNE13.jpg,AFNE13.jpg,FN,3,num_4,32,num_8,0.700505580637,,,2018_Feb_26_1406,60.004676768,MAFE4ImagesEEG,001,103231,
AFNE01.JPG,AFNE01.JPG,AFNE01.JPG,AFNE01.JPG,AFNE01.JPG,AFNE01.JPG,,,,,0,3,3,9,,,,,,,,,,,,,,,,,,,AFNE04.jpg,AFNE03.jpg,AFSA03.jpg,AFSA10.jpg,AFSA03.jpg,FS,4,num_2,32,num_4,1.06670983811,,,2018_Feb_26_1406,60.004676768,MAFE4ImagesEEG,001,103231,
AFNE01.JPG,AFNE01.JPG,AFNE01.JPG,AFNE01.JPG,AFNE01.JPG,AFNE01.JPG,,,,,0,4,4,4,,,,,,,,,,,,,,,,,,,AFSA04.jpg,AFSA07.jpg,AFNE01.jpg,AFNE05.jpg,AFSA07.jpg,FS,4,num_6,32,num_2,1.49991003273,,,2018_Feb_26_1406,60.004676768,MAFE4ImagesEEG,001,103231,
AFNE01.JPG,AFNE01.JPG,AFNE01.JPG,AFNE01.JPG,AFNE01.JPG,AFNE01.JPG,,,,,0,5,5,2,,,,,,,,,,,,,,,,,,,AFSA14.jpg,AFNE13.jpg,AFNE14.jpg,AFSA13.jpg,AFSA13.jpg,FS,4,num_4,16,num_4,0.666858789278,,,2018_Feb_26_1406,60.004676768,MAFE4ImagesEEG,001,103231,
AFNE01.JPG,AFNE01.JPG,AFNE01.JPG,AFNE01.JPG,AFNE01.JPG,AFNE01.JPG,,,,,0,6,6,7,,,,,,,,,,,,,,,,,,,AFNE02.jpg,AFSA15.jpg,AFNE01.jpg,AFSA09.jpg,AFSA09.jpg,FS,4,num_4,16,num_4,0.533578634495,,,2018_Feb_26_1406,60.004676768,MAFE4ImagesEEG,001,103231,
AFNE01.JPG,AFNE01.JPG,AFNE01.JPG,AFNE01.JPG,AFNE01.JPG,AFNE01.JPG,,,,,0,7,7,1,,,,,,,,,,,,,,,,,,,AFNE01.jpg,AFNE09.jpg,AFSA11.jpg,AFSA13.jpg,AFSA13.jpg,FS,4,num_4,16,num_4,0.633422723273,,,2018_Feb_26_1406,60.004676768,MAFE4ImagesEEG,001,103231,
AFNE01.JPG,AFNE01.JPG,AFNE01.JPG,AFNE01.JPG,AFNE01.JPG,AFNE01.JPG,,,,,0,8,8,0,,,,,,,,,,,,,,,,,,,AFNE16.jpg,AFSA20.jpg,AFNE13.jpg,AFSA16.jpg,AFNE13.jpg,FN,3,num_2,32,num_8,0.783472068957,,,2018_Feb_26_1406,60.004676768,MAFE4ImagesEEG,001,103231,
AFNE01.JPG,AFNE01.JPG,AFNE01.JPG,AFNE01.JPG,AFNE01.JPG,AFNE01.JPG,,,,,0,9,9,3,,,,,,,,,,,,,,,,,,,AFSA06.jpg,AFNE03.jpg,AFSA13.jpg,AFNE09.jpg,AFSA06.jpg,FS,4,num_8,16,num_8,0.566684660036,,,2018_Feb_26_1406,60.004676768,MAFE4ImagesEEG,001,103231,
AFNE01.JPG,AFNE01.JPG,AFNE01.JPG,AFNE01.JPG,AFNE01.JPG,AFNE01.JPG,,,,,1,0,10,8,,,,,,,,,,,,,,,,,,,AFSA04.jpg,AFNE18.jpg,AFSA14.jpg,AFNE17.jpg,AFNE17.jpg,FN,3,num_4,16,num_4,1.18341356621,,,2018_Feb_26_1406,60.004676768,MAFE4ImagesEEG,001,103231,
AFNE01.JPG,AFNE01.JPG,AFNE01.JPG,AFNE01.JPG,AFNE01.JPG,AFNE01.JPG,,,,,1,1,11,0,,,,,,,,,,,,,,,,,,,AFNE17.jpg,AFSA16.jpg,AFSA18.jpg,AFNE13.jpg,AFSA18.jpg,FS,4,num_2,16,num_2,1.36666195188,,,2018_Feb_26_1406,60.004676768,MAFE4ImagesEEG,001,103231,
AFNE01.JPG,AFNE01.JPG,AFNE01.JPG,AFNE01.JPG,AFNE01.JPG,AFNE01.JPG,,,,,1,2,12,6,,,,,,,,,,,,,,,,,,,AFSA10.jpg,AFNE09.jpg,AFNE05.jpg,AFSA16.jpg,AFNE09.jpg,FN,3,num_6,16,num_6,0.850103967474,,,2018_Feb_26_1406,60.004676768,MAFE4ImagesEEG,001,103231,
AFNE01.JPG,AFNE01.JPG,AFNE01.JPG,AFNE01.JPG,AFNE01.JPG,AFNE01.JPG,,,,,1,3,13,7,,,,,,,,,,,,,,,,,,,AFNE05.jpg,AFSA15.jpg,AFNE07.jpg,AFSA20.jpg,AFNE05.jpg,FN,3,num_8,16,num_8,0.650191272609,,,2018_Feb_26_1406,60.004676768,MAFE4ImagesEEG,001,103231,
AFNE01.JPG,AFNE01.JPG,AFNE01.JPG,AFNE01.JPG,AFNE01.JPG,AFNE01.JPG,,,,,1,4,14,1,,,,,,,,,,,,,,,,,,,AFNE08.jpg,AFNE17.jpg,AFSA17.jpg,AFSA04.jpg,AFSA17.jpg,FS,4,num_2,16,num_2,1.00019693375,,,2018_Feb_26_1406,60.004676768,MAFE4ImagesEEG,001,103231,
AFNE01.JPG,AFNE01.JPG,AFNE01.JPG,AFNE01.JPG,AFNE01.JPG,AFNE01.JPG,,,,,1,5,15,4,,,,,,,,,,,,,,,,,,,AFNE01.jpg,AFSA13.jpg,AFSA18.jpg,AFNE14.jpg,AFSA18.jpg,FS,4,num_2,32,num_4,1.1999325807,,,2018_Feb_26_1406,60.004676768,MAFE4ImagesEEG,001,103231,
AFNE01.JPG,AFNE01.JPG,AFNE01.JPG,AFNE01.JPG,AFNE01.JPG,AFNE01.JPG,,,,,1,6,16,9,,,,,,,,,,,,,,,,,,,AFSA04.jpg,AFSA18.jpg,AFNE19.jpg,AFNE05.jpg,AFNE19.jpg,FN,3,num_2,16,num_2,1.96674547216,,,2018_Feb_26_1406,60.004676768,MAFE4ImagesEEG,001,103231,
AFNE01.JPG,AFNE01.JPG,AFNE01.JPG,AFNE01.JPG,AFNE01.JPG,AFNE01.JPG,,,,,1,7,17,3,,,,,,,,,,,,,,,,,,,AFNE04.jpg,AFSA13.jpg,AFSA15.jpg,AFNE17.jpg,AFNE04.jpg,FN,3,num_8,16,num_8,0.650175556424,,,2018_Feb_26_1406,60.004676768,MAFE4ImagesEEG,001,103231,
AFNE01.JPG,AFNE01.JPG,AFNE01.JPG,AFNE01.JPG,AFNE01.JPG,AFNE01.JPG,,,,,1,8,18,2,,,,,,,,,,,,,,,,,,,AFSA07.jpg,AFNE10.jpg,AFNE02.jpg,AFSA04.jpg,AFNE02.jpg,FN,3,num_2,32,num_4,0.850191529258,,,2018_Feb_26_1406,60.004676768,MAFE4ImagesEEG,001,103231,
AFNE01.JPG,AFNE01.JPG,AFNE01.JPG,AFNE01.JPG,AFNE01.JPG,AFNE01.JPG,,,,,1,9,19,5,,,,,,,,,,,,,,,,,,,AFNE02.jpg,AFSA08.jpg,AFSA20.jpg,AFNE20.jpg,AFNE20.jpg,FN,3,num_4,16,num_4,0.666751020937,,,2018_Feb_26_1406,60.004676768,MAFE4ImagesEEG,001,103231,
AFNE01.JPG,AFNE01.JPG,AFNE01.JPG,AFNE01.JPG,AFNE01.JPG,AFNE01.JPG,,,,,2,0,20,8,,,,,,,,,,,,,,,,,,,AFSA04.jpg,AFNE16.jpg,AFSA14.jpg,AFNE12.jpg,AFSA14.jpg,FS,4,num_2,32,num_4,0.683452856727,,,2018_Feb_26_1406,60.004676768,MAFE4ImagesEEG,001,103231,
AFNE01.JPG,AFNE01.JPG,AFNE01.JPG,AFNE01.JPG,AFNE01.JPG,AFNE01.JPG,,,,,2,1,21,0,,,,,,,,,,,,,,,,,,,AFNE17.jpg,AFSA13.jpg,AFSA18.jpg,AFNE06.jpg,AFNE17.jpg,FN,3,num_8,16,num_8,0.833484240924,,,2018_Feb_26_1406,60.004676768,MAFE4ImagesEEG,001,103231,
AFNE01.JPG,AFNE01.JPG,AFNE01.JPG,AFNE01.JPG,AFNE01.JPG,AFNE01.JPG,,,,,2,2,22,2,,,,,,,,,,,,,,,,,,,AFNE13.jpg,AFSA01.jpg,AFSA08.jpg,AFNE02.jpg,AFNE13.jpg,FN,3,num_8,32,num_4,0.716766400379,,,2018_Feb_26_1406,60.004676768,MAFE4ImagesEEG,001,103231,
AFNE01.JPG,AFNE01.JPG,AFNE01.JPG,AFNE01.JPG,AFNE01.JPG,AFNE01.JPG,,,,,2,3,23,1,,,,,,,,,,,,,,,,,,,AFSA06.jpg,AFSA18.jpg,AFNE11.jpg,AFNE08.jpg,AFSA18.jpg,FS,4,num_6,16,num_6,0.816776952706,,,2018_Feb_26_1406,60.004676768,MAFE4ImagesEEG,001,103231,
AFNE01.JPG,AFNE01.JPG,AFNE01.JPG,AFNE01.JPG,AFNE01.JPG,AFNE01.JPG,,,,,2,4,24,7,,,,,,,,,,,,,,,,,,,AFSA17.jpg,AFNE02.jpg,AFSA04.jpg,AFNE19.jpg,AFNE19.jpg,FN,3,num_4,32,num_6,0.816795555642,,,2018_Feb_26_1406,60.004676768,MAFE4ImagesEEG,001,103231,
AFNE01.JPG,AFNE01.JPG,AFNE01.JPG,AFNE01.JPG,AFNE01.JPG,AFNE01.JPG,,,,,2,5,25,9,,,,,,,,,,,,,,,,,,,AFSA20.jpg,AFSA02.jpg,AFNE09.jpg,AFNE18.jpg,AFNE18.jpg,FN,3,num_4,16,num_4,0.850126419216,,,2018_Feb_26_1406,60.004676768,MAFE4ImagesEEG,001,103231,
AFNE01.JPG,AFNE01.JPG,AFNE01.JPG,AFNE01.JPG,AFNE01.JPG,AFNE01.JPG,,,,,2,6,26,4,,,,,,,,,,,,,,,,,,,AFNE19.jpg,AFSA17.jpg,AFSA08.jpg,AFNE06.jpg,AFSA08.jpg,FS,4,num_2,16,num_2,0.850185435265,,,2018_Feb_26_1406,60.004676768,MAFE4ImagesEEG,001,103231,
AFNE01.JPG,AFNE01.JPG,AFNE01.JPG,AFNE01.JPG,AFNE01.JPG,AFNE01.JPG,,,,,2,7,27,6,,,,,,,,,,,,,,,,,,,AFNE08.jpg,AFNE20.jpg,AFSA18.jpg,AFSA15.jpg,AFNE08.jpg,FN,3,num_8,16,num_8,0.816826667171,,,2018_Feb_26_1406,60.004676768,MAFE4ImagesEEG,001,103231,
AFNE01.JPG,AFNE01.JPG,AFNE01.JPG,AFNE01.JPG,AFNE01.JPG,AFNE01.JPG,,,,,2,8,28,3,,,,,,,,,,,,,,,,,,,AFSA09.jpg,AFNE20.jpg,AFSA20.jpg,AFNE12.jpg,AFNE12.jpg,FN,3,num_4,16,num_4,0.533493317897,,,2018_Feb_26_1406,60.004676768,MAFE4ImagesEEG,001,103231,
AFNE01.JPG,AFNE01.JPG,AFNE01.JPG,AFNE01.JPG,AFNE01.JPG,AFNE01.JPG,,,,,2,9,29,5,,,,,,,,,,,,,,,,,,,AFSA15.jpg,AFSA17.jpg,AFNE06.jpg,AFNE11.jpg,AFNE06.jpg,FN,3,num_2,32,num_8,0.550171098206,,,2018_Feb_26_1406,60.004676768,MAFE4ImagesEEG,001,103231,
AFNE01.JPG,AFNE01.JPG,AFNE01.JPG,AFNE01.JPG,AFNE01.JPG,AFNE01.JPG,,,,,3,0,30,8,,,,,,,,,,,,,,,,,,,AFSA15.jpg,AFSA19.jpg,AFNE06.jpg,AFNE11.jpg,AFNE06.jpg,FN,3,num_2,32,num_8,0.600103406236,,,2018_Feb_26_1406,60.004676768,MAFE4ImagesEEG,001,103231,
AFNE01.JPG,AFNE01.JPG,AFNE01.JPG,AFNE01.JPG,AFNE01.JPG,AFNE01.JPG,,,,,3,1,31,9,,,,,,,,,,,,,,,,,,,AFNE02.jpg,AFNE17.jpg,AFSA17.jpg,AFSA09.jpg,AFNE02.jpg,FN,3,num_8,32,num_4,1.00012669188,,,2018_Feb_26_1406,60.004676768,MAFE4ImagesEEG,001,103231,
AFNE01.JPG,AFNE01.JPG,AFNE01.JPG,AFNE01.JPG,AFNE01.JPG,AFNE01.JPG,,,,,3,2,32,2,,,,,,,,,,,,,,,,,,,AFNE18.jpg,AFSA14.jpg,AFNE17.jpg,AFSA15.jpg,AFSA14.jpg,FS,4,num_6,32,num_8,0.583461227943,,,2018_Feb_26_1406,60.004676768,MAFE4ImagesEEG,001,103231,
AFNE01.JPG,AFNE01.JPG,AFNE01.JPG,AFNE01.JPG,AFNE01.JPG,AFNE01.JPG,,,,,3,3,33,6,,,,,,,,,,,,,,,,,,,AFNE18.jpg,AFSA02.jpg,AFNE15.jpg,AFSA17.jpg,AFSA17.jpg,FS,4,num_4,32,num_6,1.34981289692,,,2018_Feb_26_1406,60.004676768,MAFE4ImagesEEG,001,103231,
AFNE01.JPG,AFNE01.JPG,AFNE01.JPG,AFNE01.JPG,AFNE01.JPG,AFNE01.JPG,,,,,3,4,34,5,,,,,,,,,,,,,,,,,,,AFSA03.jpg,AFNE10.jpg,AFNE08.jpg,AFSA09.jpg,AFNE10.jpg,FN,3,num_6,32,num_4,0.733515705448,,,2018_Feb_26_1406,60.004676768,MAFE4ImagesEEG,001,103231,
AFNE01.JPG,AFNE01.JPG,AFNE01.JPG,AFNE01.JPG,AFNE01.JPG,AFNE01.JPG,,,,,3,5,35,4,,,,,,,,,,,,,,,,,,,AFNE16.jpg,AFNE20.jpg,AFSA13.jpg,AFSA06.jpg,AFSA13.jpg,FS,4,num_2,16,num_2,1.21680665319,,,2018_Feb_26_1406,60.004676768,MAFE4ImagesEEG,001,103231,
AFNE01.JPG,AFNE01.JPG,AFNE01.JPG,AFNE01.JPG,AFNE01.JPG,AFNE01.JPG,,,,,3,6,36,3,,,,,,,,,,,,,,,,,,,AFSA03.jpg,AFSA19.jpg,AFNE07.jpg,AFNE10.jpg,AFNE07.jpg,FN,3,num_2,32,num_8,1.46674402885,,,2018_Feb_26_1406,60.004676768,MAFE4ImagesEEG,001,103231,
AFNE01.JPG,AFNE01.JPG,AFNE01.JPG,AFNE01.JPG,AFNE01.JPG,AFNE01.JPG,,,,,3,7,37,7,,,,,,,,,,,,,,,,,,,AFSA19.jpg,AFNE12.jpg,AFSA09.jpg,AFNE10.jpg,AFSA19.jpg,FS,4,num_8,16,num_8,0.616815505433,,,2018_Feb_26_1406,60.004676768,MAFE4ImagesEEG,001,103231,
AFNE01.JPG,AFNE01.JPG,AFNE01.JPG,AFNE01.JPG,AFNE01.JPG,AFNE01.JPG,,,,,3,8,38,1,,,,,,,,,,,,,,,,,,,AFNE08.jpg,AFNE15.jpg,AFSA06.jpg,AFSA04.jpg,AFNE08.jpg,FN,3,num_8,16,num_8,0.683493590564,,,2018_Feb_26_1406,60.004676768,MAFE4ImagesEEG,001,103231,
AFNE01.JPG,AFNE01.JPG,AFNE01.JPG,AFNE01.JPG,AFNE01.JPG,AFNE01.JPG,,,,,3,9,39,0,,,,,,,,,,,,,,,,,,,AFSA16.jpg,AFNE14.jpg,AFNE20.jpg,AFSA10.jpg,AFNE20.jpg,FN,3,num_2,16,num_2,1.06676885404,,,2018_Feb_26_1406,60.004676768,MAFE4ImagesEEG,001,103231,
AFNE01.JPG,AFNE01.JPG,AFNE01.JPG,AFNE01.JPG,AFNE01.JPG,AFNE01.JPG,,,,,4,0,40,4,,,,,,,,,,,,,,,,,,,AFNE09.jpg,AFSA08.jpg,AFSA01.jpg,AFNE10.jpg,AFNE09.jpg,FN,3,num_8,32,num_4,0.883502507117,,,2018_Feb_26_1406,60.004676768,MAFE4ImagesEEG,001,103231,
AFNE01.JPG,AFNE01.JPG,AFNE01.JPG,AFNE01.JPG,AFNE01.JPG,AFNE01.JPG,,,,,4,1,41,5,,,,,,,,,,,,,,,,,,,AFSA18.jpg,AFSA04.jpg,AFNE05.jpg,AFNE08.jpg,AFSA04.jpg,FS,4,num_6,16,num_6,0.700237122248,,,2018_Feb_26_1406,60.004676768,MAFE4ImagesEEG,001,103231,
AFNE01.JPG,AFNE01.JPG,AFNE01.JPG,AFNE01.JPG,AFNE01.JPG,AFNE01.JPG,,,,,4,2,42,6,,,,,,,,,,,,,,,,,,,AFNE05.jpg,AFNE13.jpg,AFSA04.jpg,AFSA20.jpg,AFNE13.jpg,FN,3,num_6,32,num_8,0.95012317982,,,2018_Feb_26_1406,60.004676768,MAFE4ImagesEEG,001,103231,
AFNE01.JPG,AFNE01.JPG,AFNE01.JPG,AFNE01.JPG,AFNE01.JPG,AFNE01.JPG,,,,,4,3,43,7,,,,,,,,,,,,,,,,,,,AFSA11.jpg,AFSA10.jpg,AFNE13.jpg,AFNE19.jpg,AFNE13.jpg,FN,3,num_2,32,num_6,0.516779294121,,,2018_Feb_26_1406,60.004676768,MAFE4ImagesEEG,001,103231,
AFNE01.JPG,AFNE01.JPG,AFNE01.JPG,AFNE01.JPG,AFNE01.JPG,AFNE01.JPG,,,,,4,4,44,0,,,,,,,,,,,,,,,,,,,AFNE12.jpg,AFNE17.jpg,AFSA04.jpg,AFSA02.jpg,AFSA04.jpg,FS,4,num_2,16,num_2,1.33346996806,,,2018_Feb_26_1406,60.004676768,MAFE4ImagesEEG,001,103231,
AFNE01.JPG,AFNE01.JPG,AFNE01.JPG,AFNE01.JPG,AFNE01.JPG,AFNE01.JPG,,,,,4,5,45,3,,,,,,,,,,,,,,,,,,,AFNE09.jpg,AFSA02.jpg,AFSA16.jpg,AFNE07.jpg,AFNE09.jpg,FN,3,num_8,16,num_8,0.583479510038,,,2018_Feb_26_1406,60.004676768,MAFE4ImagesEEG,001,103231,
AFNE01.JPG,AFNE01.JPG,AFNE01.JPG,AFNE01.JPG,AFNE01.JPG,AFNE01.JPG,,,,,4,6,46,8,,,,,,,,,,,,,,,,,,,AFNE14.jpg,AFSA07.jpg,AFNE09.jpg,AFSA17.jpg,AFSA17.jpg,FS,4,num_4,16,num_4,0.850123853306,,,2018_Feb_26_1406,60.004676768,MAFE4ImagesEEG,001,103231,
AFNE01.JPG,AFNE01.JPG,AFNE01.JPG,AFNE01.JPG,AFNE01.JPG,AFNE01.JPG,,,,,4,7,47,9,,,,,,,,,,,,,,,,,,,AFSA05.jpg,AFNE14.jpg,AFNE08.jpg,AFSA07.jpg,AFSA07.jpg,FS,4,num_4,16,num_4,0.98344859085,,,2018_Feb_26_1406,60.004676768,MAFE4ImagesEEG,001,103231,
AFNE01.JPG,AFNE01.JPG,AFNE01.JPG,AFNE01.JPG,AFNE01.JPG,AFNE01.JPG,,,,,4,8,48,2,,,,,,,,,,,,,,,,,,,AFNE14.jpg,AFNE07.jpg,AFSA17.jpg,AFSA15.jpg,AFSA17.jpg,FS,4,num_2,32,num_4,0.716758061317,,,2018_Feb_26_1406,60.004676768,MAFE4ImagesEEG,001,103231,
AFNE01.JPG,AFNE01.JPG,AFNE01.JPG,AFNE01.JPG,AFNE01.JPG,AFNE01.JPG,,,,,4,9,49,1,,,,,,,,,,,,,,,,,,,AFSA08.jpg,AFNE15.jpg,AFSA07.jpg,AFNE03.jpg,AFSA08.jpg,FS,4,num_8,16,num_8,0.650200574077,,,2018_Feb_26_1406,60.004676768,MAFE4ImagesEEG,001,103231,
AFNE01.JPG,AFNE01.JPG,AFNE01.JPG,AFNE01.JPG,AFNE01.JPG,AFNE01.JPG,,,,,5,0,50,1,,,,,,,,,,,,,,,,,,,AFSA01.jpg,AFNE19.jpg,AFNE16.jpg,AFSA04.jpg,AFSA04.jpg,FS,4,num_4,32,num_8,0.600176534615,,,2018_Feb_26_1406,60.004676768,MAFE4ImagesEEG,001,103231,
AFNE01.JPG,AFNE01.JPG,AFNE01.JPG,AFNE01.JPG,AFNE01.JPG,AFNE01.JPG,,,,,5,1,51,6,,,,,,,,,,,,,,,,,,,AFNE10.jpg,AFSA10.jpg,AFSA09.jpg,AFNE20.jpg,AFNE20.jpg,FN,3,num_4,16,num_4,1.38350555405,,,2018_Feb_26_1406,60.004676768,MAFE4ImagesEEG,001,103231,
AFNE01.JPG,AFNE01.JPG,AFNE01.JPG,AFNE01.JPG,AFNE01.JPG,AFNE01.JPG,,,,,5,2,52,8,,,,,,,,,,,,,,,,,,,AFSA01.jpg,AFSA05.jpg,AFNE19.jpg,AFNE16.jpg,AFNE16.jpg,FN,3,num_4,32,num_8,0.616822561831,,,2018_Feb_26_1406,60.004676768,MAFE4ImagesEEG,001,103231,
AFNE01.JPG,AFNE01.JPG,AFNE01.JPG,AFNE01.JPG,AFNE01.JPG,AFNE01.JPG,,,,,5,3,53,3,,,,,,,,,,,,,,,,,,,AFNE08.jpg,AFSA19.jpg,AFNE01.jpg,AFSA08.jpg,AFSA19.jpg,FS,4,num_6,16,num_6,1.03371510888,,,2018_Feb_26_1406,60.004676768,MAFE4ImagesEEG,001,103231,
AFNE01.JPG,AFNE01.JPG,AFNE01.JPG,AFNE01.JPG,AFNE01.JPG,AFNE01.JPG,,,,,5,4,54,9,,,,,,,,,,,,,,,,,,,AFSA11.jpg,AFNE11.jpg,AFNE10.jpg,AFSA05.jpg,AFNE10.jpg,FN,3,num_2,16,num_2,0.733624115237,,,2018_Feb_26_1406,60.004676768,MAFE4ImagesEEG,001,103231,
AFNE01.JPG,AFNE01.JPG,AFNE01.JPG,AFNE01.JPG,AFNE01.JPG,AFNE01.JPG,,,,,5,5,55,2,,,,,,,,,,,,,,,,,,,AFSA12.jpg,AFNE18.jpg,AFSA02.jpg,AFNE10.jpg,AFSA12.jpg,FS,4,num_8,16,num_8,0.516831895337,,,2018_Feb_26_1406,60.004676768,MAFE4ImagesEEG,001,103231,
AFNE01.JPG,AFNE01.JPG,AFNE01.JPG,AFNE01.JPG,AFNE01.JPG,AFNE01.JPG,,,,,5,6,56,7,,,,,,,,,,,,,,,,,,,AFNE15.jpg,AFSA14.jpg,AFSA16.jpg,AFNE10.jpg,AFNE10.jpg,FN,3,num_4,32,num_6,0.633477569674,,,2018_Feb_26_1406,60.004676768,MAFE4ImagesEEG,001,103231,
AFNE01.JPG,AFNE01.JPG,AFNE01.JPG,AFNE01.JPG,AFNE01.JPG,AFNE01.JPG,,,,,5,7,57,4,,,,,,,,,,,,,,,,,,,AFSA04.jpg,AFNE08.jpg,AFSA12.jpg,AFNE13.jpg,AFNE08.jpg,FN,3,num_6,32,num_2,0.866822481621,,,2018_Feb_26_1406,60.004676768,MAFE4ImagesEEG,001,103231,
AFNE01.JPG,AFNE01.JPG,AFNE01.JPG,AFNE01.JPG,AFNE01.JPG,AFNE01.JPG,,,,,5,8,58,0,,,,,,,,,,,,,,,,,,,AFSA11.jpg,AFNE07.jpg,AFNE18.jpg,AFSA17.jpg,AFNE07.jpg,FN,3,num_6,16,num_6,0.516856592149,,,2018_Feb_26_1406,60.004676768,MAFE4ImagesEEG,001,103231,
AFNE01.JPG,AFNE01.JPG,AFNE01.JPG,AFNE01.JPG,AFNE01.JPG,AFNE01.JPG,,,,,5,9,59,5,,,,,,,,,,,,,,,,,,,AFSA02.jpg,AFSA19.jpg,AFNE07.jpg,AFNE08.jpg,AFSA02.jpg,FS,4,num_8,16,num_8,0.583541733446,,,2018_Feb_26_1406,60.004676768,MAFE4ImagesEEG,001,103231,
,,,,,,,,,,,,,,,,,,,,,,,,,,,,,,,,,,,,,,,,,,,space,46.5128669214,2018_Feb_26_1406,60.004676768,MAFE4ImagesEEG,001,103231,
AFNE01.JPG,AFNE01.JPG,AFNE01.JPG,AFNE01.JPG,AFNE01.JPG,AFNE01.JPG,,,,,,,,,0,0,0,0,,,,,,,,,,,,,,,AMSA15.jpg,AMSA13.jpg,AMNE05.jpg,AMNE04.jpg,AMSA15.jpg,MS,2,num_8,32,num_6,1.21680216282,,,2018_Feb_26_1406,60.004676768,MAFE4ImagesEEG,001,103231,
AFNE01.JPG,AFNE01.JPG,AFNE01.JPG,AFNE01.JPG,AFNE01.JPG,AFNE01.JPG,,,,,,,,,0,1,1,8,,,,,,,,,,,,,,,AMNE06.jpg,AMSA06.jpg,AMSA20.jpg,AMNE08.jpg,AMNE08.jpg,MN,1,num_4,16,num_4,0.650153104682,,,2018_Feb_26_1406,60.004676768,MAFE4ImagesEEG,001,103231,
AFNE01.JPG,AFNE01.JPG,AFNE01.JPG,AFNE01.JPG,AFNE01.JPG,AFNE01.JPG,,,,,,,,,0,2,2,9,,,,,,,,,,,,,,,AMNE13.jpg,AMNE01.jpg,AMSA09.jpg,AMSA20.jpg,AMSA09.jpg,MS,2,num_2,32,num_8,0.533526033279,,,2018_Feb_26_1406,60.004676768,MAFE4ImagesEEG,001,103231,
AFNE01.JPG,AFNE01.JPG,AFNE01.JPG,AFNE01.JPG,AFNE01.JPG,AFNE01.JPG,,,,,,,,,0,3,3,1,,,,,,,,,,,,,,,AMNE06.jpg,AMNE03.jpg,AMSA01.jpg,AMSA13.jpg,AMSA13.jpg,MS,2,num_4,32,num_2,0.783490671776,,,2018_Feb_26_1406,60.004676768,MAFE4ImagesEEG,001,103231,
AFNE01.JPG,AFNE01.JPG,AFNE01.JPG,AFNE01.JPG,AFNE01.JPG,AFNE01.JPG,,,,,,,,,0,4,4,3,,,,,,,,,,,,,,,AMSA10.jpg,AMNE18.jpg,AMSA19.jpg,AMNE15.jpg,AMNE18.jpg,MN,1,num_6,32,num_8,0.416850850917,,,2018_Feb_26_1406,60.004676768,MAFE4ImagesEEG,001,103231,
AFNE01.JPG,AFNE01.JPG,AFNE01.JPG,AFNE01.JPG,AFNE01.JPG,AFNE01.JPG,,,,,,,,,0,5,5,6,,,,,,,,,,,,,,,AMSA06.jpg,AMSA01.jpg,AMNE08.jpg,AMNE01.jpg,AMNE01.jpg,MN,1,num_4,16,num_4,0.483512898907,,,2018_Feb_26_1406,60.004676768,MAFE4ImagesEEG,001,103231,
AFNE01.JPG,AFNE01.JPG,AFNE01.JPG,AFNE01.JPG,AFNE01.JPG,AFNE01.JPG,,,,,,,,,0,6,6,4,,,,,,,,,,,,,,,AMNE19.jpg,AMSA14.jpg,AMNE16.jpg,AMSA20.jpg,AMSA14.jpg,MS,2,num_6,16,num_6,0.65012744558,,,2018_Feb_26_1406,60.004676768,MAFE4ImagesEEG,001,103231,
AFNE01.JPG,AFNE01.JPG,AFNE01.JPG,AFNE01.JPG,AFNE01.JPG,AFNE01.JPG,,,,,,,,,0,7,7,5,,,,,,,,,,,,,,,AMNE18.jpg,AMSA19.jpg,AMNE02.jpg,AMSA08.jpg,AMSA08.jpg,MS,2,num_4,32,num_8,0.800099493121,,,2018_Feb_26_1406,60.004676768,MAFE4ImagesEEG,001,103231,
AFNE01.JPG,AFNE01.JPG,AFNE01.JPG,AFNE01.JPG,AFNE01.JPG,AFNE01.JPG,,,,,,,,,0,8,8,2,,,,,,,,,,,,,,,AMSA18.jpg,AMNE20.jpg,AMNE07.jpg,AMSA04.jpg,AMSA18.jpg,MS,2,num_8,32,num_2,0.850133475498,,,2018_Feb_26_1406,60.004676768,MAFE4ImagesEEG,001,103231,
AFNE01.JPG,AFNE01.JPG,AFNE01.JPG,AFNE01.JPG,AFNE01.JPG,AFNE01.JPG,,,,,,,,,0,9,9,7,,,,,,,,,,,,,,,AMSA17.jpg,AMNE07.jpg,AMNE03.jpg,AMSA08.jpg,AMNE07.jpg,MN,1,num_6,32,num_4,0.533453866956,,,2018_Feb_26_1406,60.004676768,MAFE4ImagesEEG,001,103231,
AFNE01.JPG,AFNE01.JPG,AFNE01.JPG,AFNE01.JPG,AFNE01.JPG,AFNE01.JPG,,,,,,,,,1,0,10,0,,,,,,,,,,,,,,,AMNE20.jpg,AMSA08.jpg,AMSA17.jpg,AMNE09.jpg,AMNE20.jpg,MN,1,num_8,32,num_4,0.566820653388,,,2018_Feb_26_1406,60.004676768,MAFE4ImagesEEG,001,103231,
AFNE01.JPG,AFNE01.JPG,AFNE01.JPG,AFNE01.JPG,AFNE01.JPG,AFNE01.JPG,,,,,,,,,1,1,11,3,,,,,,,,,,,,,,,AMNE04.jpg,AMNE06.jpg,AMSA20.jpg,AMSA12.jpg,AMSA20.jpg,MS,2,num_2,32,num_6,0.50019677321,,,2018_Feb_26_1406,60.004676768,MAFE4ImagesEEG,001,103231,
AFNE01.JPG,AFNE01.JPG,AFNE01.JPG,AFNE01.JPG,AFNE01.JPG,AFNE01.JPG,,,,,,,,,1,2,12,4,,,,,,,,,,,,,,,AMNE02.jpg,AMNE14.jpg,AMSA12.jpg,AMSA18.jpg,AMSA12.jpg,MS,2,num_2,16,num_2,0.916753827478,,,2018_Feb_26_1406,60.004676768,MAFE4ImagesEEG,001,103231,
AFNE01.JPG,AFNE01.JPG,AFNE01.JPG,AFNE01.JPG,AFNE01.JPG,AFNE01.JPG,,,,,,,,,1,3,13,9,,,,,,,,,,,,,,,AMNE07.jpg,AMSA17.jpg,AMNE12.jpg,AMSA12.jpg,AMSA12.jpg,MS,2,num_4,16,num_4,0.533478884608,,,2018_Feb_26_1406,60.004676768,MAFE4ImagesEEG,001,103231,
AFNE01.JPG,AFNE01.JPG,AFNE01.JPG,AFNE01.JPG,AFNE01.JPG,AFNE01.JPG,,,,,,,,,1,4,14,8,,,,,,,,,,,,,,,AMSA05.jpg,AMNE11.jpg,AMNE05.jpg,AMSA02.jpg,AMNE11.jpg,MN,1,num_6,32,num_4,0.91684170987,,,2018_Feb_26_1406,60.004676768,MAFE4ImagesEEG,001,103231,
AFNE01.JPG,AFNE01.JPG,AFNE01.JPG,AFNE01.JPG,AFNE01.JPG,AFNE01.JPG,,,,,,,,,1,5,15,5,,,,,,,,,,,,,,,AMSA16.jpg,AMSA09.jpg,AMNE19.jpg,AMNE03.jpg,AMNE19.jpg,MN,1,num_2,32,num_4,0.68346151663,,,2018_Feb_26_1406,60.004676768,MAFE4ImagesEEG,001,103231,
AFNE01.JPG,AFNE01.JPG,AFNE01.JPG,AFNE01.JPG,AFNE01.JPG,AFNE01.JPG,,,,,,,,,1,6,16,1,,,,,,,,,,,,,,,AMSA13.jpg,AMSA05.jpg,AMNE10.jpg,AMNE08.jpg,AMNE10.jpg,MN,1,num_2,16,num_2,0.916605004692,,,2018_Feb_26_1406,60.004676768,MAFE4ImagesEEG,001,103231,
AFNE01.JPG,AFNE01.JPG,AFNE01.JPG,AFNE01.JPG,AFNE01.JPG,AFNE01.JPG,,,,,,,,,1,7,17,6,,,,,,,,,,,,,,,AMNE14.jpg,AMNE04.jpg,AMSA16.jpg,AMSA06.jpg,AMSA16.jpg,MS,2,num_2,16,num_2,0.533540787175,,,2018_Feb_26_1406,60.004676768,MAFE4ImagesEEG,001,103231,
AFNE01.JPG,AFNE01.JPG,AFNE01.JPG,AFNE01.JPG,AFNE01.JPG,AFNE01.JPG,,,,,,,,,1,8,18,2,,,,,,,,,,,,,,,AMSA10.jpg,AMSA12.jpg,AMNE03.jpg,AMNE19.jpg,AMNE03.jpg,MN,1,num_2,32,num_4,1.01666591293,,,2018_Feb_26_1406,60.004676768,MAFE4ImagesEEG,001,103231,
AFNE01.JPG,AFNE01.JPG,AFNE01.JPG,AFNE01.JPG,AFNE01.JPG,AFNE01.JPG,,,,,,,,,1,9,19,7,,,,,,,,,,,,,,,AMNE12.jpg,AMSA01.jpg,AMSA18.jpg,AMNE10.jpg,AMSA18.jpg,MS,2,num_2,16,num_2,0.700195105397,,,2018_Feb_26_1406,60.004676768,MAFE4ImagesEEG,001,103231,
AFNE01.JPG,AFNE01.JPG,AFNE01.JPG,AFNE01.JPG,AFNE01.JPG,AFNE01.JPG,,,,,,,,,2,0,20,4,,,,,,,,,,,,,,,AMSA08.jpg,AMNE11.jpg,AMNE03.jpg,AMSA07.jpg,AMNE11.jpg,MN,1,num_6,32,num_8,0.683507382288,,,2018_Feb_26_1406,60.004676768,MAFE4ImagesEEG,001,103231,
AFNE01.JPG,AFNE01.JPG,AFNE01.JPG,AFNE01.JPG,AFNE01.JPG,AFNE01.JPG,,,,,,,,,2,1,21,9,,,,,,,,,,,,,,,AMNE09.jpg,AMSA06.jpg,AMNE19.jpg,AMSA09.jpg,AMSA06.jpg,MS,2,num_6,16,num_6,0.583510621684,,,2018_Feb_26_1406,60.004676768,MAFE4ImagesEEG,001,103231,
AFNE01.JPG,AFNE01.JPG,AFNE01.JPG,AFNE01.JPG,AFNE01.JPG,AFNE01.JPG,,,,,,,,,2,2,22,5,,,,,,,,,,,,,,,AMNE01.jpg,AMSA01.jpg,AMNE15.jpg,AMSA02.jpg,AMNE01.jpg,MN,1,num_8,16,num_8,0.766736555728,,,2018_Feb_26_1406,60.004676768,MAFE4ImagesEEG,001,103231,
AFNE01.JPG,AFNE01.JPG,AFNE01.JPG,AFNE01.JPG,AFNE01.JPG,AFNE01.JPG,,,,,,,,,2,3,23,6,,,,,,,,,,,,,,,AMSA17.jpg,AMSA03.jpg,AMNE10.jpg,AMNE05.jpg,AMNE10.jpg,MN,1,num_2,32,num_4,0.96681090293,,,2018_Feb_26_1406,60.004676768,MAFE4ImagesEEG,001,103231,
AFNE01.JPG,AFNE01.JPG,AFNE01.JPG,AFNE01.JPG,AFNE01.JPG,AFNE01.JPG,,,,,,,,,2,4,24,7,,,,,,,,,,,,,,,AMSA14.jpg,AMNE08.jpg,AMSA20.jpg,AMNE11.jpg,AMSA20.jpg,MS,2,num_2,32,num_8,0.783419147017,,,2018_Feb_26_1406,60.004676768,MAFE4ImagesEEG,001,103231,
AFNE01.JPG,AFNE01.JPG,AFNE01.JPG,AFNE01.JPG,AFNE01.JPG,AFNE01.JPG,,,,,,,,,2,5,25,8,,,,,,,,,,,,,,,AMNE12.jpg,AMSA15.jpg,AMSA07.jpg,AMNE14.jpg,AMNE12.jpg,MN,1,num_8,32,num_2,0.966819242109,,,2018_Feb_26_1406,60.004676768,MAFE4ImagesEEG,001,103231,
AFNE01.JPG,AFNE01.JPG,AFNE01.JPG,AFNE01.JPG,AFNE01.JPG,AFNE01.JPG,,,,,,,,,2,6,26,3,,,,,,,,,,,,,,,AMSA16.jpg,AMNE12.jpg,AMNE14.jpg,AMSA17.jpg,AMSA16.jpg,MS,2,num_8,32,num_4,0.450179790147,,,2018_Feb_26_1406,60.004676768,MAFE4ImagesEEG,001,103231,
AFNE01.JPG,AFNE01.JPG,AFNE01.JPG,AFNE01.JPG,AFNE01.JPG,AFNE01.JPG,,,,,,,,,2,7,27,1,,,,,,,,,,,,,,,AMSA06.jpg,AMSA02.jpg,AMNE12.jpg,AMNE03.jpg,AMSA06.jpg,MS,2,num_8,32,num_4,0.866776936688,,,2018_Feb_26_1406,60.004676768,MAFE4ImagesEEG,001,103231,
AFNE01.JPG,AFNE01.JPG,AFNE01.JPG,AFNE01.JPG,AFNE01.JPG,AFNE01.JPG,,,,,,,,,2,8,28,2,,,,,,,,,,,,,,,AMNE15.jpg,AMSA17.jpg,AMNE16.jpg,AMSA07.jpg,AMNE15.jpg,MN,1,num_8,32,num_6,0.916758959298,,,2018_Feb_26_1406,60.004676768,MAFE4ImagesEEG,001,103231,
AFNE01.JPG,AFNE01.JPG,AFNE01.JPG,AFNE01.JPG,AFNE01.JPG,AFNE01.JPG,,,,,,,,,2,9,29,0,,,,,,,,,,,,,,,AMNE06.jpg,AMNE15.jpg,AMSA17.jpg,AMSA09.jpg,AMSA09.jpg,MS,2,num_4,16,num_4,0.733374580392,,,2018_Feb_26_1406,60.004676768,MAFE4ImagesEEG,001,103231,
AFNE01.JPG,AFNE01.JPG,AFNE01.JPG,AFNE01.JPG,AFNE01.JPG,AFNE01.JPG,,,,,,,,,3,0,30,7,,,,,,,,,,,,,,,AMNE07.jpg,AMNE08.jpg,AMSA02.jpg,AMSA17.jpg,AMNE07.jpg,MN,1,num_8,16,num_8,0.483499107184,,,2018_Feb_26_1406,60.004676768,MAFE4ImagesEEG,001,103231,
AFNE01.JPG,AFNE01.JPG,AFNE01.JPG,AFNE01.JPG,AFNE01.JPG,AFNE01.JPG,,,,,,,,,3,1,31,2,,,,,,,,,,,,,,,AMSA13.jpg,AMSA06.jpg,AMNE06.jpg,AMNE11.jpg,AMSA06.jpg,MS,2,num_6,16,num_6,0.55020798312,,,2018_Feb_26_1406,60.004676768,MAFE4ImagesEEG,001,103231,
AFNE01.JPG,AFNE01.JPG,AFNE01.JPG,AFNE01.JPG,AFNE01.JPG,AFNE01.JPG,,,,,,,,,3,2,32,5,,,,,,,,,,,,,,,AMNE15.jpg,AMSA20.jpg,AMNE01.jpg,AMSA02.jpg,AMNE15.jpg,MN,1,num_8,32,num_4,0.599869266851,,,2018_Feb_26_1406,60.004676768,MAFE4ImagesEEG,001,103231,
AFNE01.JPG,AFNE01.JPG,AFNE01.JPG,AFNE01.JPG,AFNE01.JPG,AFNE01.JPG,,,,,,,,,3,3,33,0,,,,,,,,,,,,,,,AMNE07.jpg,AMSA02.jpg,AMNE18.jpg,AMSA10.jpg,AMSA10.jpg,MS,2,num_4,16,num_4,0.583485604147,,,2018_Feb_26_1406,60.004676768,MAFE4ImagesEEG,001,103231,
AFNE01.JPG,AFNE01.JPG,AFNE01.JPG,AFNE01.JPG,AFNE01.JPG,AFNE01.JPG,,,,,,,,,3,4,34,4,,,,,,,,,,,,,,,AMNE20.jpg,AMSA15.jpg,AMNE08.jpg,AMSA06.jpg,AMSA06.jpg,MS,2,num_4,32,num_6,0.6335000213,,,2018_Feb_26_1406,60.004676768,MAFE4ImagesEEG,001,103231,
AFNE01.JPG,AFNE01.JPG,AFNE01.JPG,AFNE01.JPG,AFNE01.JPG,AFNE01.JPG,,,,,,,,,3,5,35,6,,,,,,,,,,,,,,,AMNE18.jpg,AMSA04.jpg,AMSA01.jpg,AMNE17.jpg,AMSA04.jpg,MS,2,num_6,16,num_6,0.550163079635,,,2018_Feb_26_1406,60.004676768,MAFE4ImagesEEG,001,103231,
AFNE01.JPG,AFNE01.JPG,AFNE01.JPG,AFNE01.JPG,AFNE01.JPG,AFNE01.JPG,,,,,,,,,3,6,36,1,,,,,,,,,,,,,,,AMNE16.jpg,AMSA20.jpg,AMNE08.jpg,AMSA15.jpg,AMNE16.jpg,MN,1,num_8,16,num_8,0.700157579035,,,2018_Feb_26_1406,60.004676768,MAFE4ImagesEEG,001,103231,
AFNE01.JPG,AFNE01.JPG,AFNE01.JPG,AFNE01.JPG,AFNE01.JPG,AFNE01.JPG,,,,,,,,,3,7,37,9,,,,,,,,,,,,,,,AMNE18.jpg,AMSA10.jpg,AMSA03.jpg,AMNE16.jpg,AMSA10.jpg,MS,2,num_6,16,num_6,1.05010679003,,,2018_Feb_26_1406,60.004676768,MAFE4ImagesEEG,001,103231,
AFNE01.JPG,AFNE01.JPG,AFNE01.JPG,AFNE01.JPG,AFNE01.JPG,AFNE01.JPG,,,,,,,,,3,8,38,3,,,,,,,,,,,,,,,AMNE09.jpg,AMSA20.jpg,AMNE08.jpg,AMSA04.jpg,AMNE08.jpg,MN,1,num_2,32,num_8,0.683564153034,,,2018_Feb_26_1406,60.004676768,MAFE4ImagesEEG,001,103231,
AFNE01.JPG,AFNE01.JPG,AFNE01.JPG,AFNE01.JPG,AFNE01.JPG,AFNE01.JPG,,,,,,,,,3,9,39,8,,,,,,,,,,,,,,,AMSA11.jpg,AMNE05.jpg,AMSA20.jpg,AMNE19.jpg,AMSA20.jpg,MS,2,num_2,16,num_2,0.800167810521,,,2018_Feb_26_1406,60.004676768,MAFE4ImagesEEG,001,103231,
AFNE01.JPG,AFNE01.JPG,AFNE01.JPG,AFNE01.JPG,AFNE01.JPG,AFNE01.JPG,,,,,,,,,4,0,40,1,,,,,,,,,,,,,,,AMSA09.jpg,AMSA12.jpg,AMNE01.jpg,AMNE13.jpg,AMSA09.jpg,MS,2,num_8,16,num_8,0.583464114694,,,2018_Feb_26_1406,60.004676768,MAFE4ImagesEEG,001,103231,
AFNE01.JPG,AFNE01.JPG,AFNE01.JPG,AFNE01.JPG,AFNE01.JPG,AFNE01.JPG,,,,,,,,,4,1,41,9,,,,,,,,,,,,,,,AMNE07.jpg,AMSA12.jpg,AMNE20.jpg,AMSA01.jpg,AMSA01.jpg,MS,2,num_4,16,num_4,0.633512209519,,,2018_Feb_26_1406,60.004676768,MAFE4ImagesEEG,001,103231,
AFNE01.JPG,AFNE01.JPG,AFNE01.JPG,AFNE01.JPG,AFNE01.JPG,AFNE01.JPG,,,,,,,,,4,2,42,5,,,,,,,,,,,,,,,AMSA05.jpg,AMNE12.jpg,AMSA16.jpg,AMNE14.jpg,AMNE14.jpg,MN,1,num_4,16,num_4,0.583570599905,,,2018_Feb_26_1406,60.004676768,MAFE4ImagesEEG,001,103231,
AFNE01.JPG,AFNE01.JPG,AFNE01.JPG,AFNE01.JPG,AFNE01.JPG,AFNE01.JPG,,,,,,,,,4,3,43,2,,,,,,,,,,,,,,,AMNE15.jpg,AMSA06.jpg,AMSA20.jpg,AMNE04.jpg,AMNE15.jpg,MN,1,num_8,16,num_8,0.833445110824,,,2018_Feb_26_1406,60.004676768,MAFE4ImagesEEG,001,103231,
AFNE01.JPG,AFNE01.JPG,AFNE01.JPG,AFNE01.JPG,AFNE01.JPG,AFNE01.JPG,,,,,,,,,4,4,44,4,,,,,,,,,,,,,,,AMNE17.jpg,AMSA08.jpg,AMNE12.jpg,AMSA06.jpg,AMSA08.jpg,MS,2,num_6,32,num_8,0.800135736703,,,2018_Feb_26_1406,60.004676768,MAFE4ImagesEEG,001,103231,
AFNE01.JPG,AFNE01.JPG,AFNE01.JPG,AFNE01.JPG,AFNE01.JPG,AFNE01.JPG,,,,,,,,,4,5,45,6,,,,,,,,,,,,,,,AMNE20.jpg,AMSA17.jpg,AMNE19.jpg,AMSA03.jpg,AMNE19.jpg,MN,1,num_2,32,num_6,0.56683284149,,,2018_Feb_26_1406,60.004676768,MAFE4ImagesEEG,001,103231,
AFNE01.JPG,AFNE01.JPG,AFNE01.JPG,AFNE01.JPG,AFNE01.JPG,AFNE01.JPG,,,,,,,,,4,6,46,0,,,,,,,,,,,,,,,AMNE15.jpg,AMNE02.jpg,AMSA16.jpg,AMSA01.jpg,AMSA01.jpg,MS,2,num_4,16,num_4,0.666795603698,,,2018_Feb_26_1406,60.004676768,MAFE4ImagesEEG,001,103231,
AFNE01.JPG,AFNE01.JPG,AFNE01.JPG,AFNE01.JPG,AFNE01.JPG,AFNE01.JPG,,,,,,,,,4,7,47,7,,,,,,,,,,,,,,,AMNE13.jpg,AMSA20.jpg,AMSA12.jpg,AMNE11.jpg,AMNE11.jpg,MN,1,num_4,32,num_8,0.93349062372,,,2018_Feb_26_1406,60.004676768,MAFE4ImagesEEG,001,103231,
AFNE01.JPG,AFNE01.JPG,AFNE01.JPG,AFNE01.JPG,AFNE01.JPG,AFNE01.JPG,,,,,,,,,4,8,48,3,,,,,,,,,,,,,,,AMSA13.jpg,AMNE10.jpg,AMNE02.jpg,AMSA18.jpg,AMSA18.jpg,MS,2,num_4,16,num_4,0.666784377885,,,2018_Feb_26_1406,60.004676768,MAFE4ImagesEEG,001,103231,
AFNE01.JPG,AFNE01.JPG,AFNE01.JPG,AFNE01.JPG,AFNE01.JPG,AFNE01.JPG,,,,,,,,,4,9,49,8,,,,,,,,,,,,,,,AMNE05.jpg,AMSA06.jpg,AMNE13.jpg,AMSA01.jpg,AMSA01.jpg,MS,2,num_4,16,num_4,0.45017850725,,,2018_Feb_26_1406,60.004676768,MAFE4ImagesEEG,001,103231,
AFNE01.JPG,AFNE01.JPG,AFNE01.JPG,AFNE01.JPG,AFNE01.JPG,AFNE01.JPG,,,,,,,,,5,0,50,6,,,,,,,,,,,,,,,AMNE09.jpg,AMSA04.jpg,AMSA14.jpg,AMNE07.jpg,AMSA14.jpg,MS,2,num_2,16,num_2,0.766801024205,,,2018_Feb_26_1406,60.004676768,MAFE4ImagesEEG,001,103231,
AFNE01.JPG,AFNE01.JPG,AFNE01.JPG,AFNE01.JPG,AFNE01.JPG,AFNE01.JPG,,,,,,,,,5,1,51,5,,,,,,,,,,,,,,,AMSA16.jpg,AMSA01.jpg,AMNE18.jpg,AMNE13.jpg,AMSA01.jpg,MS,2,num_6,16,num_6,0.700143145747,,,2018_Feb_26_1406,60.004676768,MAFE4ImagesEEG,001,103231,
AFNE01.JPG,AFNE01.JPG,AFNE01.JPG,AFNE01.JPG,AFNE01.JPG,AFNE01.JPG,,,,,,,,,5,2,52,8,,,,,,,,,,,,,,,AMSA12.jpg,AMSA04.jpg,AMNE20.jpg,AMNE12.jpg,AMNE12.jpg,MN,1,num_4,16,num_4,0.866760899778,,,2018_Feb_26_1406,60.004676768,MAFE4ImagesEEG,001,103231,
AFNE01.JPG,AFNE01.JPG,AFNE01.JPG,AFNE01.JPG,AFNE01.JPG,AFNE01.JPG,,,,,,,,,5,3,53,3,,,,,,,,,,,,,,,AMNE17.jpg,AMNE07.jpg,AMSA07.jpg,AMSA08.jpg,AMSA08.jpg,MS,2,num_4,32,num_6,0.816779197892,,,2018_Feb_26_1406,60.004676768,MAFE4ImagesEEG,001,103231,
AFNE01.JPG,AFNE01.JPG,AFNE01.JPG,AFNE01.JPG,AFNE01.JPG,AFNE01.JPG,,,,,,,,,5,4,54,0,,,,,,,,,,,,,,,AMNE12.jpg,AMSA13.jpg,AMNE10.jpg,AMSA03.jpg,AMSA13.jpg,MS,2,num_6,32,num_8,0.600140932598,,,2018_Feb_26_1406,60.004676768,MAFE4ImagesEEG,001,103231,
AFNE01.JPG,AFNE01.JPG,AFNE01.JPG,AFNE01.JPG,AFNE01.JPG,AFNE01.JPG,,,,,,,,,5,5,55,9,,,,,,,,,,,,,,,AMSA06.jpg,AMSA12.jpg,AMNE14.jpg,AMNE01.jpg,AMSA06.jpg,MS,2,num_8,32,num_6,0.90011966764,,,2018_Feb_26_1406,60.004676768,MAFE4ImagesEEG,001,103231,
AFNE01.JPG,AFNE01.JPG,AFNE01.JPG,AFNE01.JPG,AFNE01.JPG,AFNE01.JPG,,,,,,,,,5,6,56,7,,,,,,,,,,,,,,,AMSA19.jpg,AMNE14.jpg,AMSA02.jpg,AMNE03.jpg,AMNE14.jpg,MN,1,num_6,32,num_4,0.600139008253,,,2018_Feb_26_1406,60.004676768,MAFE4ImagesEEG,001,103231,
AFNE01.JPG,AFNE01.JPG,AFNE01.JPG,AFNE01.JPG,AFNE01.JPG,AFNE01.JPG,,,,,,,,,5,7,57,4,,,,,,,,,,,,,,,AMNE12.jpg,AMSA02.jpg,AMSA01.jpg,AMNE01.jpg,AMNE01.jpg,MN,1,num_4,32,num_8,0.516868138802,,,2018_Feb_26_1406,60.004676768,MAFE4ImagesEEG,001,103231,
AFNE01.JPG,AFNE01.JPG,AFNE01.JPG,AFNE01.JPG,AFNE01.JPG,AFNE01.JPG,,,,,,,,,5,8,58,1,,,,,,,,,,,,,,,AMNE12.jpg,AMSA18.jpg,AMSA04.jpg,AMNE03.jpg,AMSA18.jpg,MS,2,num_6,32,num_4,0.850115514128,,,2018_Feb_26_1406,60.004676768,MAFE4ImagesEEG,001,103231,
AFNE01.JPG,AFNE01.JPG,AFNE01.JPG,AFNE01.JPG,AFNE01.JPG,AFNE01.JPG,,,,,,,,,5,9,59,2,,,,,,,,,,,,,,,AMSA16.jpg,AMNE19.jpg,AMNE02.jpg,AMSA11.jpg,AMNE02.jpg,MN,1,num_2,16,num_2,0.966750604101,,,2018_Feb_26_1406,60.004676768,MAFE4ImagesEEG,001,103231,
,,,,,,,,,,,,,,,,,,,,,,,,,,,,,,,,,,,,,,,,,,,space,42.3465397566,2018_Feb_26_1406,60.004676768,MAFE4ImagesEEG,001,103231,
AFNE01.JPG,AFNE01.JPG,AFNE01.JPG,AFNE01.JPG,AFNE01.JPG,AFNE01.JPG,,,,,,,,,,,,,0,0,0,4,,,,,,,,,,,AFNE03.jpg,AFSA04.jpg,AFSA05.jpg,AFNE09.jpg,AFNE03.jpg,FN,3,num_8,16,num_8,0.466796950786,,,2018_Feb_26_1406,60.004676768,MAFE4ImagesEEG,001,103231,
AFNE01.JPG,AFNE01.JPG,AFNE01.JPG,AFNE01.JPG,AFNE01.JPG,AFNE01.JPG,,,,,,,,,,,,,0,1,1,7,,,,,,,,,,,AFNE20.jpg,AFSA08.jpg,AFSA17.jpg,AFNE17.jpg,AFNE20.jpg,FN,3,num_8,32,num_4,0.750135111273,,,2018_Feb_26_1406,60.004676768,MAFE4ImagesEEG,001,103231,
AFNE01.JPG,AFNE01.JPG,AFNE01.JPG,AFNE01.JPG,AFNE01.JPG,AFNE01.JPG,,,,,,,,,,,,,0,2,2,5,,,,,,,,,,,AFNE13.jpg,AFSA12.jpg,AFSA01.jpg,AFNE14.jpg,AFSA01.jpg,FS,4,num_2,32,num_8,0.583458662033,,,2018_Feb_26_1406,60.004676768,MAFE4ImagesEEG,001,103231,
AFNE01.JPG,AFNE01.JPG,AFNE01.JPG,AFNE01.JPG,AFNE01.JPG,AFNE01.JPG,,,,,,,,,,,,,0,3,3,1,,,,,,,,,,,AFSA03.jpg,AFSA20.jpg,AFNE16.jpg,AFNE04.jpg,AFSA20.jpg,FS,4,num_6,16,num_6,0.550117855542,,,2018_Feb_26_1406,60.004676768,MAFE4ImagesEEG,001,103231,
AFNE01.JPG,AFNE01.JPG,AFNE01.JPG,AFNE01.JPG,AFNE01.JPG,AFNE01.JPG,,,,,,,,,,,,,0,4,4,3,,,,,,,,,,,AFNE03.jpg,AFSA08.jpg,AFNE19.jpg,AFSA14.jpg,AFNE19.jpg,FN,3,num_2,32,num_8,0.733599418309,,,2018_Feb_26_1406,60.004676768,MAFE4ImagesEEG,001,103231,
AFNE01.JPG,AFNE01.JPG,AFNE01.JPG,AFNE01.JPG,AFNE01.JPG,AFNE01.JPG,,,,,,,,,,,,,0,5,5,2,,,,,,,,,,,AFNE09.jpg,AFNE02.jpg,AFSA18.jpg,AFSA11.jpg,AFSA18.jpg,FS,4,num_2,16,num_2,0.800158188445,,,2018_Feb_26_1406,60.004676768,MAFE4ImagesEEG,001,103231,
AFNE01.JPG,AFNE01.JPG,AFNE01.JPG,AFNE01.JPG,AFNE01.JPG,AFNE01.JPG,,,,,,,,,,,,,0,6,6,0,,,,,,,,,,,AFSA18.jpg,AFNE02.jpg,AFNE01.jpg,AFSA20.jpg,AFSA20.jpg,FS,4,num_4,16,num_4,0.650185820065,,,2018_Feb_26_1406,60.004676768,MAFE4ImagesEEG,001,103231,
AFNE01.JPG,AFNE01.JPG,AFNE01.JPG,AFNE01.JPG,AFNE01.JPG,AFNE01.JPG,,,,,,,,,,,,,0,7,7,8,,,,,,,,,,,AFNE02.jpg,AFSA01.jpg,AFSA14.jpg,AFNE20.jpg,AFNE20.jpg,FN,3,num_4,32,num_2,0.933577864547,,,2018_Feb_26_1406,60.004676768,MAFE4ImagesEEG,001,103231,
AFNE01.JPG,AFNE01.JPG,AFNE01.JPG,AFNE01.JPG,AFNE01.JPG,AFNE01.JPG,,,,,,,,,,,,,0,8,8,9,,,,,,,,,,,AFSA04.jpg,AFNE11.jpg,AFNE18.jpg,AFSA03.jpg,AFSA04.jpg,FS,4,num_8,16,num_8,1.06675249641,,,2018_Feb_26_1406,60.004676768,MAFE4ImagesEEG,001,103231,
AFNE01.JPG,AFNE01.JPG,AFNE01.JPG,AFNE01.JPG,AFNE01.JPG,AFNE01.JPG,,,,,,,,,,,,,0,9,9,6,,,,,,,,,,,AFSA15.jpg,AFSA09.jpg,AFNE10.jpg,AFNE18.jpg,AFSA09.jpg,FS,4,num_6,32,num_2,1.04984057671,,,2018_Feb_26_1406,60.004676768,MAFE4ImagesEEG,001,103231,
AFNE01.JPG,AFNE01.JPG,AFNE01.JPG,AFNE01.JPG,AFNE01.JPG,AFNE01.JPG,,,,,,,,,,,,,1,0,10,8,,,,,,,,,,,AFSA09.jpg,AFNE12.jpg,AFNE01.jpg,AFSA06.jpg,AFSA06.jpg,FS,4,num_4,32,num_8,0.633475965937,,,2018_Feb_26_1406,60.004676768,MAFE4ImagesEEG,001,103231,
AFNE01.JPG,AFNE01.JPG,AFNE01.JPG,AFNE01.JPG,AFNE01.JPG,AFNE01.JPG,,,,,,,,,,,,,1,1,11,4,,,,,,,,,,,AFNE02.jpg,AFNE11.jpg,AFSA11.jpg,AFSA01.jpg,AFNE02.jpg,FN,3,num_8,16,num_8,0.733410182409,,,2018_Feb_26_1406,60.004676768,MAFE4ImagesEEG,001,103231,
AFNE01.JPG,AFNE01.JPG,AFNE01.JPG,AFNE01.JPG,AFNE01.JPG,AFNE01.JPG,,,,,,,,,,,,,1,2,12,5,,,,,,,,,,,AFSA13.jpg,AFNE08.jpg,AFNE02.jpg,AFSA19.jpg,AFSA19.jpg,FS,4,num_4,32,num_6,0.783514727256,,,2018_Feb_26_1406,60.004676768,MAFE4ImagesEEG,001,103231,
AFNE01.JPG,AFNE01.JPG,AFNE01.JPG,AFNE01.JPG,AFNE01.JPG,AFNE01.JPG,,,,,,,,,,,,,1,3,13,3,,,,,,,,,,,AFNE11.jpg,AFSA07.jpg,AFSA04.jpg,AFNE03.jpg,AFNE03.jpg,FN,3,num_4,16,num_4,0.783492916962,,,2018_Feb_26_1406,60.004676768,MAFE4ImagesEEG,001,103231,
AFNE01.JPG,AFNE01.JPG,AFNE01.JPG,AFNE01.JPG,AFNE01.JPG,AFNE01.JPG,,,,,,,,,,,,,1,4,14,2,,,,,,,,,,,AFSA10.jpg,AFNE04.jpg,AFNE16.jpg,AFSA04.jpg,AFNE16.jpg,FN,3,num_2,32,num_6,0.900165854138,,,2018_Feb_26_1406,60.004676768,MAFE4ImagesEEG,001,103231,
AFNE01.JPG,AFNE01.JPG,AFNE01.JPG,AFNE01.JPG,AFNE01.JPG,AFNE01.JPG,,,,,,,,,,,,,1,5,15,7,,,,,,,,,,,AFSA05.jpg,AFNE16.jpg,AFSA03.jpg,AFNE15.jpg,AFSA05.jpg,FS,4,num_8,16,num_8,0.583462831681,,,2018_Feb_26_1406,60.004676768,MAFE4ImagesEEG,001,103231,
AFNE01.JPG,AFNE01.JPG,AFNE01.JPG,AFNE01.JPG,AFNE01.JPG,AFNE01.JPG,,,,,,,,,,,,,1,6,16,9,,,,,,,,,,,AFNE10.jpg,AFNE19.jpg,AFSA09.jpg,AFSA15.jpg,AFSA09.jpg,FS,4,num_2,16,num_2,0.900142760831,,,2018_Feb_26_1406,60.004676768,MAFE4ImagesEEG,001,103231,
AFNE01.JPG,AFNE01.JPG,AFNE01.JPG,AFNE01.JPG,AFNE01.JPG,AFNE01.JPG,,,,,,,,,,,,,1,7,17,0,,,,,,,,,,,AFSA18.jpg,AFSA11.jpg,AFNE01.jpg,AFNE19.jpg,AFSA18.jpg,FS,4,num_8,16,num_8,0.766792043461,,,2018_Feb_26_1406,60.004676768,MAFE4ImagesEEG,001,103231,
AFNE01.JPG,AFNE01.JPG,AFNE01.JPG,AFNE01.JPG,AFNE01.JPG,AFNE01.JPG,,,,,,,,,,,,,1,8,18,6,,,,,,,,,,,AFSA09.jpg,AFNE13.jpg,AFNE18.jpg,AFSA07.jpg,AFNE13.jpg,FN,3,num_6,16,num_6,0.60017717618,,,2018_Feb_26_1406,60.004676768,MAFE4ImagesEEG,001,103231,
AFNE01.JPG,AFNE01.JPG,AFNE01.JPG,AFNE01.JPG,AFNE01.JPG,AFNE01.JPG,,,,,,,,,,,,,1,9,19,1,,,,,,,,,,,AFNE10.jpg,AFNE14.jpg,AFSA07.jpg,AFSA20.jpg,AFNE14.jpg,FN,3,num_6,32,num_8,0.716790455859,,,2018_Feb_26_1406,60.004676768,MAFE4ImagesEEG,001,103231,
AFNE01.JPG,AFNE01.JPG,AFNE01.JPG,AFNE01.JPG,AFNE01.JPG,AFNE01.JPG,,,,,,,,,,,,,2,0,20,1,,,,,,,,,,,AFNE20.jpg,AFSA07.jpg,AFSA17.jpg,AFNE07.jpg,AFNE07.jpg,FN,3,num_4,16,num_4,0.666760001681,,,2018_Feb_26_1406,60.004676768,MAFE4ImagesEEG,001,103231,
AFNE01.JPG,AFNE01.JPG,AFNE01.JPG,AFNE01.JPG,AFNE01.JPG,AFNE01.JPG,,,,,,,,,,,,,2,1,21,3,,,,,,,,,,,AFSA09.jpg,AFNE16.jpg,AFSA01.jpg,AFNE11.jpg,AFNE11.jpg,FN,3,num_4,32,num_6,0.650167858694,,,2018_Feb_26_1406,60.004676768,MAFE4ImagesEEG,001,103231,
AFNE01.JPG,AFNE01.JPG,AFNE01.JPG,AFNE01.JPG,AFNE01.JPG,AFNE01.JPG,,,,,,,,,,,,,2,2,22,9,,,,,,,,,,,AFNE17.jpg,AFSA12.jpg,AFSA13.jpg,AFNE20.jpg,AFNE20.jpg,FN,3,num_4,32,num_8,0.516897005262,,,2018_Feb_26_1406,60.004676768,MAFE4ImagesEEG,001,103231,
AFNE01.JPG,AFNE01.JPG,AFNE01.JPG,AFNE01.JPG,AFNE01.JPG,AFNE01.JPG,,,,,,,,,,,,,2,3,23,6,,,,,,,,,,,AFNE15.jpg,AFSA11.jpg,AFSA20.jpg,AFNE07.jpg,AFNE15.jpg,FN,3,num_8,16,num_8,0.633512209519,,,2018_Feb_26_1406,60.004676768,MAFE4ImagesEEG,001,103231,
AFNE01.JPG,AFNE01.JPG,AFNE01.JPG,AFNE01.JPG,AFNE01.JPG,AFNE01.JPG,,,,,,,,,,,,,2,4,24,5,,,,,,,,,,,AFSA20.jpg,AFSA13.jpg,AFNE07.jpg,AFNE12.jpg,AFNE12.jpg,FN,3,num_4,16,num_4,0.616807166371,,,2018_Feb_26_1406,60.004676768,MAFE4ImagesEEG,001,103231,
AFNE01.JPG,AFNE01.JPG,AFNE01.JPG,AFNE01.JPG,AFNE01.JPG,AFNE01.JPG,,,,,,,,,,,,,2,5,25,0,,,,,,,,,,,AFSA18.jpg,AFSA08.jpg,AFNE13.jpg,AFNE19.jpg,AFNE13.jpg,FN,3,num_2,32,num_4,0.65011461603,,,2018_Feb_26_1406,60.004676768,MAFE4ImagesEEG,001,103231,
AFNE01.JPG,AFNE01.JPG,AFNE01.JPG,AFNE01.JPG,AFNE01.JPG,AFNE01.JPG,,,,,,,,,,,,,2,6,26,7,,,,,,,,,,,AFNE19.jpg,AFSA01.jpg,AFSA05.jpg,AFNE16.jpg,AFSA05.jpg,FS,4,num_2,32,num_6,0.983479702496,,,2018_Feb_26_1406,60.004676768,MAFE4ImagesEEG,001,103231,
AFNE01.JPG,AFNE01.JPG,AFNE01.JPG,AFNE01.JPG,AFNE01.JPG,AFNE01.JPG,,,,,,,,,,,,,2,7,27,4,,,,,,,,,,,AFNE10.jpg,AFNE03.jpg,AFSA03.jpg,AFSA11.jpg,AFNE03.jpg,FN,3,num_6,16,num_6,0.750113942428,,,2018_Feb_26_1406,60.004676768,MAFE4ImagesEEG,001,103231,
AFNE01.JPG,AFNE01.JPG,AFNE01.JPG,AFNE01.JPG,AFNE01.JPG,AFNE01.JPG,,,,,,,,,,,,,2,8,28,8,,,,,,,,,,,AFSA04.jpg,AFNE14.jpg,AFSA12.jpg,AFNE01.jpg,AFNE14.jpg,FN,3,num_6,16,num_6,1.16672680515,,,2018_Feb_26_1406,60.004676768,MAFE4ImagesEEG,001,103231,
AFNE01.JPG,AFNE01.JPG,AFNE01.JPG,AFNE01.JPG,AFNE01.JPG,AFNE01.JPG,,,,,,,,,,,,,2,9,29,2,,,,,,,,,,,AFSA01.jpg,AFNE20.jpg,AFNE14.jpg,AFSA10.jpg,AFSA10.jpg,FS,4,num_4,16,num_4,0.683465044713,,,2018_Feb_26_1406,60.004676768,MAFE4ImagesEEG,001,103231,
AFNE01.JPG,AFNE01.JPG,AFNE01.JPG,AFNE01.JPG,AFNE01.JPG,AFNE01.JPG,,,,,,,,,,,,,3,0,30,1,,,,,,,,,,,AFNE13.jpg,AFNE14.jpg,AFSA01.jpg,AFSA04.jpg,AFNE13.jpg,FN,3,num_8,16,num_8,0.866864177748,,,2018_Feb_26_1406,60.004676768,MAFE4ImagesEEG,001,103231,
AFNE01.JPG,AFNE01.JPG,AFNE01.JPG,AFNE01.JPG,AFNE01.JPG,AFNE01.JPG,,,,,,,,,,,,,3,1,31,8,,,,,,,,,,,AFSA16.jpg,AFSA04.jpg,AFNE14.jpg,AFNE02.jpg,AFSA04.jpg,FS,4,num_6,32,num_2,2.84993012703,,,2018_Feb_26_1406,60.004676768,MAFE4ImagesEEG,001,103231,
AFNE01.JPG,AFNE01.JPG,AFNE01.JPG,AFNE01.JPG,AFNE01.JPG,AFNE01.JPG,,,,,,,,,,,,,3,2,32,3,,,,,,,,,,,AFNE18.jpg,AFSA13.jpg,AFSA03.jpg,AFNE04.jpg,AFNE18.jpg,FN,3,num_8,32,num_4,0.516810405767,,,2018_Feb_26_1406,60.004676768,MAFE4ImagesEEG,001,103231,
AFNE01.JPG,AFNE01.JPG,AFNE01.JPG,AFNE01.JPG,AFNE01.JPG,AFNE01.JPG,,,,,,,,,,,,,3,3,33,0,,,,,,,,,,,AFSA08.jpg,AFNE20.jpg,AFSA16.jpg,AFNE12.jpg,AFSA08.jpg,FS,4,num_8,32,num_6,0.650158878067,,,2018_Feb_26_1406,60.004676768,MAFE4ImagesEEG,001,103231,
AFNE01.JPG,AFNE01.JPG,AFNE01.JPG,AFNE01.JPG,AFNE01.JPG,AFNE01.JPG,,,,,,,,,,,,,3,4,34,7,,,,,,,,,,,AFSA08.jpg,AFSA15.jpg,AFNE03.jpg,AFNE12.jpg,AFSA15.jpg,FS,4,num_6,16,num_6,1.00020976318,,,2018_Feb_26_1406,60.004676768,MAFE4ImagesEEG,001,103231,
AFNE01.JPG,AFNE01.JPG,AFNE01.JPG,AFNE01.JPG,AFNE01.JPG,AFNE01.JPG,,,,,,,,,,,,,3,5,35,9,,,,,,,,,,,AFNE06.jpg,AFSA13.jpg,AFNE02.jpg,AFSA07.jpg,AFNE02.jpg,FN,3,num_2,32,num_4,0.683514759177,,,2018_Feb_26_1406,60.004676768,MAFE4ImagesEEG,001,103231,
AFNE01.JPG,AFNE01.JPG,AFNE01.JPG,AFNE01.JPG,AFNE01.JPG,AFNE01.JPG,,,,,,,,,,,,,3,6,36,2,,,,,,,,,,,AFSA01.jpg,AFNE02.jpg,AFNE10.jpg,AFSA14.jpg,AFSA14.jpg,FS,4,num_4,32,num_6,0.583494905615,,,2018_Feb_26_1406,60.004676768,MAFE4ImagesEEG,001,103231,
AFNE01.JPG,AFNE01.JPG,AFNE01.JPG,AFNE01.JPG,AFNE01.JPG,AFNE01.JPG,,,,,,,,,,,,,3,7,37,6,,,,,,,,,,,AFNE09.jpg,AFSA07.jpg,AFSA09.jpg,AFNE01.jpg,AFNE01.jpg,FN,3,num_4,32,num_8,0.333533153753,,,2018_Feb_26_1406,60.004676768,MAFE4ImagesEEG,001,103231,
AFNE01.JPG,AFNE01.JPG,AFNE01.JPG,AFNE01.JPG,AFNE01.JPG,AFNE01.JPG,,,,,,,,,,,,,3,8,38,5,,,,,,,,,,,AFNE12.jpg,AFSA17.jpg,AFSA06.jpg,AFNE18.jpg,AFSA17.jpg,FS,4,num_6,16,num_6,0.583494584891,,,2018_Feb_26_1406,60.004676768,MAFE4ImagesEEG,001,103231,
AFNE01.JPG,AFNE01.JPG,AFNE01.JPG,AFNE01.JPG,AFNE01.JPG,AFNE01.JPG,,,,,,,,,,,,,3,9,39,4,,,,,,,,,,,AFNE14.jpg,AFSA06.jpg,AFSA02.jpg,AFNE12.jpg,AFNE14.jpg,FN,3,num_8,16,num_8,0.783438070677,,,2018_Feb_26_1406,60.004676768,MAFE4ImagesEEG,001,103231,
AFNE01.JPG,AFNE01.JPG,AFNE01.JPG,AFNE01.JPG,AFNE01.JPG,AFNE01.JPG,,,,,,,,,,,,,4,0,40,6,,,,,,,,,,,AFNE02.jpg,AFSA17.jpg,AFNE18.jpg,AFSA10.jpg,AFNE02.jpg,FN,3,num_8,32,num_4,0.766787232482,,,2018_Feb_26_1406,60.004676768,MAFE4ImagesEEG,001,103231,
AFNE01.JPG,AFNE01.JPG,AFNE01.JPG,AFNE01.JPG,AFNE01.JPG,AFNE01.JPG,,,,,,,,,,,,,4,1,41,2,,,,,,,,,,,AFNE17.jpg,AFNE10.jpg,AFSA10.jpg,AFSA03.jpg,AFSA10.jpg,FS,4,num_2,16,num_2,0.750206956756,,,2018_Feb_26_1406,60.004676768,MAFE4ImagesEEG,001,103231,
AFNE01.JPG,AFNE01.JPG,AFNE01.JPG,AFNE01.JPG,AFNE01.JPG,AFNE01.JPG,,,,,,,,,,,,,4,2,42,7,,,,,,,,,,,AFNE05.jpg,AFSA16.jpg,AFSA13.jpg,AFNE18.jpg,AFNE18.jpg,FN,3,num_4,32,num_6,0.666820621351,,,2018_Feb_26_1406,60.004676768,MAFE4ImagesEEG,001,103231,
AFNE01.JPG,AFNE01.JPG,AFNE01.JPG,AFNE01.JPG,AFNE01.JPG,AFNE01.JPG,,,,,,,,,,,,,4,3,43,0,,,,,,,,,,,AFSA19.jpg,AFNE03.jpg,AFSA03.jpg,AFNE02.jpg,AFNE02.jpg,FN,3,num_4,32,num_6,0.666824149434,,,2018_Feb_26_1406,60.004676768,MAFE4ImagesEEG,001,103231,
AFNE01.JPG,AFNE01.JPG,AFNE01.JPG,AFNE01.JPG,AFNE01.JPG,AFNE01.JPG,,,,,,,,,,,,,4,4,44,3,,,,,,,,,,,AFNE14.jpg,AFSA13.jpg,AFNE13.jpg,AFSA04.jpg,AFNE13.jpg,FN,3,num_2,32,num_8,0.58349169814,,,2018_Feb_26_1406,60.004676768,MAFE4ImagesEEG,001,103231,
AFNE01.JPG,AFNE01.JPG,AFNE01.JPG,AFNE01.JPG,AFNE01.JPG,AFNE01.JPG,,,,,,,,,,,,,4,5,45,8,,,,,,,,,,,AFSA04.jpg,AFSA18.jpg,AFNE16.jpg,AFNE11.jpg,AFNE16.jpg,FN,3,num_2,16,num_2,1.35008295916,,,2018_Feb_26_1406,60.004676768,MAFE4ImagesEEG,001,103231,
AFNE01.JPG,AFNE01.JPG,AFNE01.JPG,AFNE01.JPG,AFNE01.JPG,AFNE01.JPG,,,,,,,,,,,,,4,6,46,1,,,,,,,,,,,AFSA20.jpg,AFNE20.jpg,AFSA15.jpg,AFNE19.jpg,AFSA15.jpg,FS,4,num_2,32,num_6,0.633480776916,,,2018_Feb_26_1406,60.004676768,MAFE4ImagesEEG,001,103231,
AFNE01.JPG,AFNE01.JPG,AFNE01.JPG,AFNE01.JPG,AFNE01.JPG,AFNE01.JPG,,,,,,,,,,,,,4,7,47,5,,,,,,,,,,,AFNE02.jpg,AFNE18.jpg,AFSA05.jpg,AFSA16.jpg,AFSA16.jpg,FS,4,num_4,32,num_6,0.566852085758,,,2018_Feb_26_1406,60.004676768,MAFE4ImagesEEG,001,103231,
AFNE01.JPG,AFNE01.JPG,AFNE01.JPG,AFNE01.JPG,AFNE01.JPG,AFNE01.JPG,,,,,,,,,,,,,4,8,48,9,,,,,,,,,,,AFNE04.jpg,AFNE08.jpg,AFSA09.jpg,AFSA07.jpg,AFNE08.jpg,FN,3,num_6,32,num_4,0.633459608187,,,2018_Feb_26_1406,60.004676768,MAFE4ImagesEEG,001,103231,
AFNE01.JPG,AFNE01.JPG,AFNE01.JPG,AFNE01.JPG,AFNE01.JPG,AFNE01.JPG,,,,,,,,,,,,,4,9,49,4,,,,,,,,,,,AFSA16.jpg,AFNE18.jpg,AFNE19.jpg,AFSA05.jpg,AFSA16.jpg,FS,4,num_8,16,num_8,0.516836064984,,,2018_Feb_26_1406,60.004676768,MAFE4ImagesEEG,001,103231,
AFNE01.JPG,AFNE01.JPG,AFNE01.JPG,AFNE01.JPG,AFNE01.JPG,AFNE01.JPG,,,,,,,,,,,,,5,0,50,7,,,,,,,,,,,AFSA11.jpg,AFNE19.jpg,AFSA02.jpg,AFNE12.jpg,AFSA11.jpg,FS,4,num_8,16,num_8,0.550092196441,,,2018_Feb_26_1406,60.004676768,MAFE4ImagesEEG,001,103231,
AFNE01.JPG,AFNE01.JPG,AFNE01.JPG,AFNE01.JPG,AFNE01.JPG,AFNE01.JPG,,,,,,,,,,,,,5,1,51,4,,,,,,,,,,,AFSA01.jpg,AFSA20.jpg,AFNE01.jpg,AFNE06.jpg,AFSA20.jpg,FS,4,num_6,16,num_6,0.66679239634,,,2018_Feb_26_1406,60.004676768,MAFE4ImagesEEG,001,103231,
AFNE01.JPG,AFNE01.JPG,AFNE01.JPG,AFNE01.JPG,AFNE01.JPG,AFNE01.JPG,,,,,,,,,,,,,5,2,52,3,,,,,,,,,,,AFNE01.jpg,AFSA03.jpg,AFNE13.jpg,AFSA11.jpg,AFNE01.jpg,FN,3,num_8,16,num_8,0.883510846295,,,2018_Feb_26_1406,60.004676768,MAFE4ImagesEEG,001,103231,
AFNE01.JPG,AFNE01.JPG,AFNE01.JPG,AFNE01.JPG,AFNE01.JPG,AFNE01.JPG,,,,,,,,,,,,,5,3,53,6,,,,,,,,,,,AFNE14.jpg,AFSA11.jpg,AFSA13.jpg,AFNE16.jpg,AFSA13.jpg,FS,4,num_2,32,num_4,1.03340399207,,,2018_Feb_26_1406,60.004676768,MAFE4ImagesEEG,001,103231,
AFNE01.JPG,AFNE01.JPG,AFNE01.JPG,AFNE01.JPG,AFNE01.JPG,AFNE01.JPG,,,,,,,,,,,,,5,4,54,0,,,,,,,,,,,AFSA03.jpg,AFNE20.jpg,AFSA15.jpg,AFNE04.jpg,AFNE20.jpg,FN,3,num_6,16,num_6,0.65015150106,,,2018_Feb_26_1406,60.004676768,MAFE4ImagesEEG,001,103231,
AFNE01.JPG,AFNE01.JPG,AFNE01.JPG,AFNE01.JPG,AFNE01.JPG,AFNE01.JPG,,,,,,,,,,,,,5,5,55,8,,,,,,,,,,,AFSA04.jpg,AFSA16.jpg,AFNE10.jpg,AFNE09.jpg,AFNE10.jpg,FN,3,num_2,32,num_8,0.683437461266,,,2018_Feb_26_1406,60.004676768,MAFE4ImagesEEG,001,103231,
AFNE01.JPG,AFNE01.JPG,AFNE01.JPG,AFNE01.JPG,AFNE01.JPG,AFNE01.JPG,,,,,,,,,,,,,5,6,56,5,,,,,,,,,,,AFNE19.jpg,AFSA17.jpg,AFSA12.jpg,AFNE09.jpg,AFSA17.jpg,FS,4,num_6,16,num_6,0.716787569225,,,2018_Feb_26_1406,60.004676768,MAFE4ImagesEEG,001,103231,
AFNE01.JPG,AFNE01.JPG,AFNE01.JPG,AFNE01.JPG,AFNE01.JPG,AFNE01.JPG,,,,,,,,,,,,,5,7,57,1,,,,,,,,,,,AFSA18.jpg,AFSA11.jpg,AFNE16.jpg,AFNE12.jpg,AFSA18.jpg,FS,4,num_8,16,num_8,0.633531133062,,,2018_Feb_26_1406,60.004676768,MAFE4ImagesEEG,001,103231,
AFNE01.JPG,AFNE01.JPG,AFNE01.JPG,AFNE01.JPG,AFNE01.JPG,AFNE01.JPG,,,,,,,,,,,,,5,8,58,9,,,,,,,,,,,AFSA03.jpg,AFNE13.jpg,AFNE09.jpg,AFSA08.jpg,AFSA03.jpg,FS,4,num_8,32,num_6,0.40017018409,,,2018_Feb_26_1406,60.004676768,MAFE4ImagesEEG,001,103231,
AFNE01.JPG,AFNE01.JPG,AFNE01.JPG,AFNE01.JPG,AFNE01.JPG,AFNE01.JPG,,,,,,,,,,,,,5,9,59,2,,,,,,,,,,,AFNE10.jpg,AFNE01.jpg,AFSA20.jpg,AFSA16.jpg,AFSA16.jpg,FS,4,num_4,32,num_2,0.650150859612,,,2018_Feb_26_1406,60.004676768,MAFE4ImagesEEG,001,103231,
,,,,,,,,,,,,,,,,,,,,,,,,,,,,,,,,,,,,,,,,,,,space,38.4970952283,2018_Feb_26_1406,60.004676768,MAFE4ImagesEEG,001,103231,
AFNE01.JPG,AFNE01.JPG,AFNE01.JPG,AFNE01.JPG,AFNE01.JPG,AFNE01.JPG,,,,,,,,,,,,,,,,,0,0,0,7,,,,,,,AMNE03.jpg,AMSA13.jpg,AMNE04.jpg,AMSA15.jpg,AMSA15.jpg,MS,2,num_4,32,num_8,0.533487865352,,,2018_Feb_26_1406,60.004676768,MAFE4ImagesEEG,001,103231,
AFNE01.JPG,AFNE01.JPG,AFNE01.JPG,AFNE01.JPG,AFNE01.JPG,AFNE01.JPG,,,,,,,,,,,,,,,,,0,1,1,9,,,,,,,AMNE10.jpg,AMSA06.jpg,AMSA11.jpg,AMNE20.jpg,AMSA11.jpg,MS,2,num_2,32,num_6,0.316858901526,,,2018_Feb_26_1406,60.004676768,MAFE4ImagesEEG,001,103231,
AFNE01.JPG,AFNE01.JPG,AFNE01.JPG,AFNE01.JPG,AFNE01.JPG,AFNE01.JPG,,,,,,,,,,,,,,,,,0,2,2,6,,,,,,,AMNE06.jpg,AMNE14.jpg,AMSA16.jpg,AMSA07.jpg,AMSA07.jpg,MS,2,num_4,16,num_4,0.317062570713,,,2018_Feb_26_1406,60.004676768,MAFE4ImagesEEG,001,103231,
AFNE01.JPG,AFNE01.JPG,AFNE01.JPG,AFNE01.JPG,AFNE01.JPG,AFNE01.JPG,,,,,,,,,,,,,,,,,0,3,3,8,,,,,,,AMSA17.jpg,AMNE07.jpg,AMNE01.jpg,AMSA11.jpg,AMSA17.jpg,MS,2,num_8,16,num_8,0.433498481871,,,2018_Feb_26_1406,60.004676768,MAFE4ImagesEEG,001,103231,
AFNE01.JPG,AFNE01.JPG,AFNE01.JPG,AFNE01.JPG,AFNE01.JPG,AFNE01.JPG,,,,,,,,,,,,,,,,,0,4,4,2,,,,,,,AMSA10.jpg,AMNE01.jpg,AMNE10.jpg,AMSA04.jpg,AMNE01.jpg,MN,1,num_6,16,num_6,0.516866855905,,,2018_Feb_26_1406,60.004676768,MAFE4ImagesEEG,001,103231,
AFNE01.JPG,AFNE01.JPG,AFNE01.JPG,AFNE01.JPG,AFNE01.JPG,AFNE01.JPG,,,,,,,,,,,,,,,,,0,5,5,3,,,,,,,AMNE20.jpg,AMSA19.jpg,AMNE03.jpg,AMSA16.jpg,AMSA16.jpg,MS,2,num_4,16,num_4,0.400212842273,,,2018_Feb_26_1406,60.004676768,MAFE4ImagesEEG,001,103231,
AFNE01.JPG,AFNE01.JPG,AFNE01.JPG,AFNE01.JPG,AFNE01.JPG,AFNE01.JPG,,,,,,,,,,,,,,,,,0,6,6,1,,,,,,,AMNE19.jpg,AMNE17.jpg,AMSA12.jpg,AMSA11.jpg,AMSA11.jpg,MS,2,num_4,32,num_2,0.29996911285,,,2018_Feb_26_1406,60.004676768,MAFE4ImagesEEG,001,103231,
AFNE01.JPG,AFNE01.JPG,AFNE01.JPG,AFNE01.JPG,AFNE01.JPG,AFNE01.JPG,,,,,,,,,,,,,,,,,0,7,7,5,,,,,,,AMNE02.jpg,AMNE08.jpg,AMSA09.jpg,AMSA15.jpg,AMNE08.jpg,MN,1,num_6,32,num_4,0.600196420448,,,2018_Feb_26_1406,60.004676768,MAFE4ImagesEEG,001,103231,
AFNE01.JPG,AFNE01.JPG,AFNE01.JPG,AFNE01.JPG,AFNE01.JPG,AFNE01.JPG,,,,,,,,,,,,,,,,,0,8,8,4,,,,,,,AMSA02.jpg,AMNE19.jpg,AMSA04.jpg,AMNE10.jpg,AMNE10.jpg,MN,1,num_4,32,num_6,1.01674609759,,,2018_Feb_26_1406,60.004676768,MAFE4ImagesEEG,001,103231,
AFNE01.JPG,AFNE01.JPG,AFNE01.JPG,AFNE01.JPG,AFNE01.JPG,AFNE01.JPG,,,,,,,,,,,,,,,,,0,9,9,0,,,,,,,AMNE06.jpg,AMSA06.jpg,AMNE08.jpg,AMSA01.jpg,AMNE08.jpg,MN,1,num_2,32,num_6,0.666822545812,,,2018_Feb_26_1406,60.004676768,MAFE4ImagesEEG,001,103231,
AFNE01.JPG,AFNE01.JPG,AFNE01.JPG,AFNE01.JPG,AFNE01.JPG,AFNE01.JPG,,,,,,,,,,,,,,,,,1,0,10,2,,,,,,,AMNE01.jpg,AMNE19.jpg,AMSA10.jpg,AMSA08.jpg,AMSA08.jpg,MS,2,num_4,32,num_2,0.566841180669,,,2018_Feb_26_1406,60.004676768,MAFE4ImagesEEG,001,103231,
AFNE01.JPG,AFNE01.JPG,AFNE01.JPG,AFNE01.JPG,AFNE01.JPG,AFNE01.JPG,,,,,,,,,,,,,,,,,1,1,11,3,,,,,,,AMNE06.jpg,AMNE08.jpg,AMSA12.jpg,AMSA06.jpg,AMSA06.jpg,MS,2,num_4,16,num_4,0.549996616202,,,2018_Feb_26_1406,60.004676768,MAFE4ImagesEEG,001,103231,
AFNE01.JPG,AFNE01.JPG,AFNE01.JPG,AFNE01.JPG,AFNE01.JPG,AFNE01.JPG,,,,,,,,,,,,,,,,,1,2,12,4,,,,,,,AMNE17.jpg,AMSA11.jpg,AMNE12.jpg,AMSA03.jpg,AMSA03.jpg,MS,2,num_4,16,num_4,0.666659289738,,,2018_Feb_26_1406,60.004676768,MAFE4ImagesEEG,001,103231,
AFNE01.JPG,AFNE01.JPG,AFNE01.JPG,AFNE01.JPG,AFNE01.JPG,AFNE01.JPG,,,,,,,,,,,,,,,,,1,3,13,6,,,,,,,AMSA18.jpg,AMNE01.jpg,AMSA20.jpg,AMNE18.jpg,AMSA18.jpg,MS,2,num_8,16,num_8,0.550204775762,,,2018_Feb_26_1406,60.004676768,MAFE4ImagesEEG,001,103231,
AFNE01.JPG,AFNE01.JPG,AFNE01.JPG,AFNE01.JPG,AFNE01.JPG,AFNE01.JPG,,,,,,,,,,,,,,,,,1,4,14,9,,,,,,,AMNE05.jpg,AMNE18.jpg,AMSA17.jpg,AMSA01.jpg,AMSA01.jpg,MS,2,num_4,16,num_4,0.46687392809,,,2018_Feb_26_1406,60.004676768,MAFE4ImagesEEG,001,103231,
AFNE01.JPG,AFNE01.JPG,AFNE01.JPG,AFNE01.JPG,AFNE01.JPG,AFNE01.JPG,,,,,,,,,,,,,,,,,1,5,15,5,,,,,,,AMSA17.jpg,AMSA10.jpg,AMNE16.jpg,AMNE11.jpg,AMNE11.jpg,MN,1,num_4,32,num_6,0.750109772896,,,2018_Feb_26_1406,60.004676768,MAFE4ImagesEEG,001,103231,
AFNE01.JPG,AFNE01.JPG,AFNE01.JPG,AFNE01.JPG,AFNE01.JPG,AFNE01.JPG,,,,,,,,,,,,,,,,,1,6,16,0,,,,,,,AMSA02.jpg,AMNE18.jpg,AMNE07.jpg,AMSA11.jpg,AMNE07.jpg,MN,1,num_2,32,num_4,0.716644840431,,,2018_Feb_26_1406,60.004676768,MAFE4ImagesEEG,001,103231,
AFNE01.JPG,AFNE01.JPG,AFNE01.JPG,AFNE01.JPG,AFNE01.JPG,AFNE01.JPG,,,,,,,,,,,,,,,,,1,7,17,1,,,,,,,AMSA03.jpg,AMNE01.jpg,AMSA20.jpg,AMNE11.jpg,AMNE11.jpg,MN,1,num_4,32,num_8,0.516766464571,,,2018_Feb_26_1406,60.004676768,MAFE4ImagesEEG,001,103231,
AFNE01.JPG,AFNE01.JPG,AFNE01.JPG,AFNE01.JPG,AFNE01.JPG,AFNE01.JPG,,,,,,,,,,,,,,,,,1,8,18,8,,,,,,,AMNE19.jpg,AMSA06.jpg,AMNE16.jpg,AMSA12.jpg,AMNE19.jpg,MN,1,num_8,16,num_8,0.600160497706,,,2018_Feb_26_1406,60.004676768,MAFE4ImagesEEG,001,103231,
AFNE01.JPG,AFNE01.JPG,AFNE01.JPG,AFNE01.JPG,AFNE01.JPG,AFNE01.JPG,,,,,,,,,,,,,,,,,1,9,19,7,,,,,,,AMSA06.jpg,AMNE04.jpg,AMNE09.jpg,AMSA14.jpg,AMSA06.jpg,MS,2,num_8,16,num_8,0.533486582339,,,2018_Feb_26_1406,60.004676768,MAFE4ImagesEEG,001,103231,
AFNE01.JPG,AFNE01.JPG,AFNE01.JPG,AFNE01.JPG,AFNE01.JPG,AFNE01.JPG,,,,,,,,,,,,,,,,,2,0,20,5,,,,,,,AMSA15.jpg,AMSA06.jpg,AMNE10.jpg,AMNE19.jpg,AMSA06.jpg,MS,2,num_6,16,num_6,0.450043476187,,,2018_Feb_26_1406,60.004676768,MAFE4ImagesEEG,001,103231,
AFNE01.JPG,AFNE01.JPG,AFNE01.JPG,AFNE01.JPG,AFNE01.JPG,AFNE01.JPG,,,,,,,,,,,,,,,,,2,1,21,4,,,,,,,AMNE19.jpg,AMSA10.jpg,AMSA15.jpg,AMNE17.jpg,AMNE17.jpg,MN,1,num_4,32,num_8,0.733502875897,,,2018_Feb_26_1406,60.004676768,MAFE4ImagesEEG,001,103231,
AFNE01.JPG,AFNE01.JPG,AFNE01.JPG,AFNE01.JPG,AFNE01.JPG,AFNE01.JPG,,,,,,,,,,,,,,,,,2,2,22,6,,,,,,,AMSA17.jpg,AMSA04.jpg,AMNE12.jpg,AMNE01.jpg,AMSA17.jpg,MS,2,num_8,32,num_4,0.333496589446,,,2018_Feb_26_1406,60.004676768,MAFE4ImagesEEG,001,103231,
AFNE01.JPG,AFNE01.JPG,AFNE01.JPG,AFNE01.JPG,AFNE01.JPG,AFNE01.JPG,,,,,,,,,,,,,,,,,2,3,23,0,,,,,,,AMSA13.jpg,AMSA06.jpg,AMNE11.jpg,AMNE13.jpg,AMNE13.jpg,MN,1,num_4,32,num_8,0.416822305182,,,2018_Feb_26_1406,60.004676768,MAFE4ImagesEEG,001,103231,
AFNE01.JPG,AFNE01.JPG,AFNE01.JPG,AFNE01.JPG,AFNE01.JPG,AFNE01.JPG,,,,,,,,,,,,,,,,,2,4,24,7,,,,,,,AMNE13.jpg,AMNE10.jpg,AMSA03.jpg,AMSA05.jpg,AMSA03.jpg,MS,2,num_2,16,num_2,1.08341391897,,,2018_Feb_26_1406,60.004676768,MAFE4ImagesEEG,001,103231,
AFNE01.JPG,AFNE01.JPG,AFNE01.JPG,AFNE01.JPG,AFNE01.JPG,AFNE01.JPG,,,,,,,,,,,,,,,,,2,5,25,1,,,,,,,AMSA04.jpg,AMNE12.jpg,AMSA17.jpg,AMNE09.jpg,AMSA17.jpg,MS,2,num_2,16,num_2,0.65021949762,,,2018_Feb_26_1406,60.004676768,MAFE4ImagesEEG,001,103231,
AFNE01.JPG,AFNE01.JPG,AFNE01.JPG,AFNE01.JPG,AFNE01.JPG,AFNE01.JPG,,,,,,,,,,,,,,,,,2,6,26,8,,,,,,,AMNE11.jpg,AMNE08.jpg,AMSA09.jpg,AMSA16.jpg,AMSA16.jpg,MS,2,num_4,16,num_4,0.616763866623,,,2018_Feb_26_1406,60.004676768,MAFE4ImagesEEG,001,103231,
AFNE01.JPG,AFNE01.JPG,AFNE01.JPG,AFNE01.JPG,AFNE01.JPG,AFNE01.JPG,,,,,,,,,,,,,,,,,2,7,27,3,,,,,,,AMNE14.jpg,AMSA08.jpg,AMSA09.jpg,AMNE05.jpg,AMNE14.jpg,MN,1,num_8,32,num_6,0.500171434833,,,2018_Feb_26_1406,60.004676768,MAFE4ImagesEEG,001,103231,
AFNE01.JPG,AFNE01.JPG,AFNE01.JPG,AFNE01.JPG,AFNE01.JPG,AFNE01.JPG,,,,,,,,,,,,,,,,,2,8,28,9,,,,,,,AMNE04.jpg,AMSA12.jpg,AMSA16.jpg,AMNE19.jpg,AMNE04.jpg,MN,1,num_8,16,num_8,0.583427871112,,,2018_Feb_26_1406,60.004676768,MAFE4ImagesEEG,001,103231,
AFNE01.JPG,AFNE01.JPG,AFNE01.JPG,AFNE01.JPG,AFNE01.JPG,AFNE01.JPG,,,,,,,,,,,,,,,,,2,9,29,2,,,,,,,AMNE14.jpg,AMNE10.jpg,AMSA06.jpg,AMSA03.jpg,AMSA06.jpg,MS,2,num_2,16,num_2,1.45008709666,,,2018_Feb_26_1406,60.004676768,MAFE4ImagesEEG,001,103231,
AFNE01.JPG,AFNE01.JPG,AFNE01.JPG,AFNE01.JPG,AFNE01.JPG,AFNE01.JPG,,,,,,,,,,,,,,,,,3,0,30,2,,,,,,,AMSA01.jpg,AMSA03.jpg,AMNE18.jpg,AMNE02.jpg,AMNE18.jpg,MN,1,num_2,16,num_2,0.8834341896,,,2018_Feb_26_1406,60.004676768,MAFE4ImagesEEG,001,103231,
AFNE01.JPG,AFNE01.JPG,AFNE01.JPG,AFNE01.JPG,AFNE01.JPG,AFNE01.JPG,,,,,,,,,,,,,,,,,3,1,31,1,,,,,,,AMSA06.jpg,AMNE04.jpg,AMNE03.jpg,AMSA15.jpg,AMNE03.jpg,MN,1,num_2,32,num_6,1.0667451194,,,2018_Feb_26_1406,60.004676768,MAFE4ImagesEEG,001,103231,
AFNE01.JPG,AFNE01.JPG,AFNE01.JPG,AFNE01.JPG,AFNE01.JPG,AFNE01.JPG,,,,,,,,,,,,,,,,,3,2,32,4,,,,,,,AMNE20.jpg,AMSA05.jpg,AMSA18.jpg,AMNE04.jpg,AMSA18.jpg,MS,2,num_2,16,num_2,0.716794946115,,,2018_Feb_26_1406,60.004676768,MAFE4ImagesEEG,001,103231,
AFNE01.JPG,AFNE01.JPG,AFNE01.JPG,AFNE01.JPG,AFNE01.JPG,AFNE01.JPG,,,,,,,,,,,,,,,,,3,3,33,0,,,,,,,AMNE17.jpg,AMSA13.jpg,AMNE06.jpg,AMSA09.jpg,AMSA09.jpg,MS,2,num_4,32,num_2,0.716846264433,,,2018_Feb_26_1406,60.004676768,MAFE4ImagesEEG,001,103231,
AFNE01.JPG,AFNE01.JPG,AFNE01.JPG,AFNE01.JPG,AFNE01.JPG,AFNE01.JPG,,,,,,,,,,,,,,,,,3,4,34,7,,,,,,,AMNE16.jpg,AMSA11.jpg,AMNE15.jpg,AMSA08.jpg,AMSA08.jpg,MS,2,num_4,32,num_8,0.600175572443,,,2018_Feb_26_1406,60.004676768,MAFE4ImagesEEG,001,103231,
AFNE01.JPG,AFNE01.JPG,AFNE01.JPG,AFNE01.JPG,AFNE01.JPG,AFNE01.JPG,,,,,,,,,,,,,,,,,3,5,35,6,,,,,,,AMSA08.jpg,AMNE12.jpg,AMSA17.jpg,AMNE06.jpg,AMNE06.jpg,MN,1,num_4,32,num_8,0.650149897323,,,2018_Feb_26_1406,60.004676768,MAFE4ImagesEEG,001,103231,
AFNE01.JPG,AFNE01.JPG,AFNE01.JPG,AFNE01.JPG,AFNE01.JPG,AFNE01.JPG,,,,,,,,,,,,,,,,,3,6,36,8,,,,,,,AMSA13.jpg,AMNE11.jpg,AMSA06.jpg,AMNE09.jpg,AMSA06.jpg,MS,2,num_2,32,num_6,0.483474731096,,,2018_Feb_26_1406,60.004676768,MAFE4ImagesEEG,001,103231,
AFNE01.JPG,AFNE01.JPG,AFNE01.JPG,AFNE01.JPG,AFNE01.JPG,AFNE01.JPG,,,,,,,,,,,,,,,,,3,7,37,9,,,,,,,AMNE20.jpg,AMSA10.jpg,AMSA09.jpg,AMNE02.jpg,AMNE20.jpg,MN,1,num_8,16,num_8,0.383664640598,,,2018_Feb_26_1406,60.004676768,MAFE4ImagesEEG,001,103231,
AFNE01.JPG,AFNE01.JPG,AFNE01.JPG,AFNE01.JPG,AFNE01.JPG,AFNE01.JPG,,,,,,,,,,,,,,,,,3,8,38,5,,,,,,,AMNE13.jpg,AMSA07.jpg,AMNE04.jpg,AMSA14.jpg,AMNE13.jpg,MN,1,num_8,16,num_8,0.63371331268,,,2018_Feb_26_1406,60.004676768,MAFE4ImagesEEG,001,103231,
AFNE01.JPG,AFNE01.JPG,AFNE01.JPG,AFNE01.JPG,AFNE01.JPG,AFNE01.JPG,,,,,,,,,,,,,,,,,3,9,39,3,,,,,,,AMNE12.jpg,AMSA06.jpg,AMSA18.jpg,AMNE14.jpg,AMNE12.jpg,MN,1,num_8,32,num_6,0.400168580352,,,2018_Feb_26_1406,60.004676768,MAFE4ImagesEEG,001,103231,
AFNE01.JPG,AFNE01.JPG,AFNE01.JPG,AFNE01.JPG,AFNE01.JPG,AFNE01.JPG,,,,,,,,,,,,,,,,,4,0,40,9,,,,,,,AMSA13.jpg,AMSA06.jpg,AMNE10.jpg,AMNE03.jpg,AMNE03.jpg,MN,1,num_4,32,num_8,0.866800350719,,,2018_Feb_26_1406,60.004676768,MAFE4ImagesEEG,001,103231,
AFNE01.JPG,AFNE01.JPG,AFNE01.JPG,AFNE01.JPG,AFNE01.JPG,AFNE01.JPG,,,,,,,,,,,,,,,,,4,1,41,3,,,,,,,AMSA10.jpg,AMNE19.jpg,AMSA07.jpg,AMNE16.jpg,AMNE19.jpg,MN,1,num_6,16,num_6,0.366762984544,,,2018_Feb_26_1406,60.004676768,MAFE4ImagesEEG,001,103231,
AFNE01.JPG,AFNE01.JPG,AFNE01.JPG,AFNE01.JPG,AFNE01.JPG,AFNE01.JPG,,,,,,,,,,,,,,,,,4,2,42,6,,,,,,,AMNE20.jpg,AMSA03.jpg,AMNE06.jpg,AMSA12.jpg,AMSA03.jpg,MS,2,num_6,32,num_4,0.766785628744,,,2018_Feb_26_1406,60.004676768,MAFE4ImagesEEG,001,103231,
AFNE01.JPG,AFNE01.JPG,AFNE01.JPG,AFNE01.JPG,AFNE01.JPG,AFNE01.JPG,,,,,,,,,,,,,,,,,4,3,43,5,,,,,,,AMSA02.jpg,AMSA11.jpg,AMNE20.jpg,AMNE04.jpg,AMNE20.jpg,MN,1,num_2,32,num_8,0.466786045698,,,2018_Feb_26_1406,60.004676768,MAFE4ImagesEEG,001,103231,
AFNE01.JPG,AFNE01.JPG,AFNE01.JPG,AFNE01.JPG,AFNE01.JPG,AFNE01.JPG,,,,,,,,,,,,,,,,,4,4,44,0,,,,,,,AMNE10.jpg,AMNE14.jpg,AMSA15.jpg,AMSA06.jpg,AMSA15.jpg,MS,2,num_2,16,num_2,0.600159214693,,,2018_Feb_26_1406,60.004676768,MAFE4ImagesEEG,001,103231,
AFNE01.JPG,AFNE01.JPG,AFNE01.JPG,AFNE01.JPG,AFNE01.JPG,AFNE01.JPG,,,,,,,,,,,,,,,,,4,5,45,2,,,,,,,AMSA10.jpg,AMNE13.jpg,AMSA06.jpg,AMNE10.jpg,AMNE13.jpg,MN,1,num_6,16,num_6,0.633464740007,,,2018_Feb_26_1406,60.004676768,MAFE4ImagesEEG,001,103231,
AFNE01.JPG,AFNE01.JPG,AFNE01.JPG,AFNE01.JPG,AFNE01.JPG,AFNE01.JPG,,,,,,,,,,,,,,,,,4,6,46,8,,,,,,,AMNE08.jpg,AMNE04.jpg,AMSA18.jpg,AMSA10.jpg,AMSA10.jpg,MS,2,num_4,32,num_2,0.949954791926,,,2018_Feb_26_1406,60.004676768,MAFE4ImagesEEG,001,103231,
AFNE01.JPG,AFNE01.JPG,AFNE01.JPG,AFNE01.JPG,AFNE01.JPG,AFNE01.JPG,,,,,,,,,,,,,,,,,4,7,47,1,,,,,,,AMNE04.jpg,AMSA06.jpg,AMSA15.jpg,AMNE19.jpg,AMSA15.jpg,MS,2,num_2,16,num_2,0.900171306683,,,2018_Feb_26_1406,60.004676768,MAFE4ImagesEEG,001,103231,
AFNE01.JPG,AFNE01.JPG,AFNE01.JPG,AFNE01.JPG,AFNE01.JPG,AFNE01.JPG,,,,,,,,,,,,,,,,,4,8,48,7,,,,,,,AMNE02.jpg,AMSA03.jpg,AMNE10.jpg,AMSA17.jpg,AMNE02.jpg,MN,1,num_8,16,num_8,0.666804263717,,,2018_Feb_26_1406,60.004676768,MAFE4ImagesEEG,001,103231,
AFNE01.JPG,AFNE01.JPG,AFNE01.JPG,AFNE01.JPG,AFNE01.JPG,AFNE01.JPG,,,,,,,,,,,,,,,,,4,9,49,4,,,,,,,AMSA01.jpg,AMSA10.jpg,AMNE04.jpg,AMNE01.jpg,AMNE01.jpg,MN,1,num_4,16,num_4,1.75039234385,,,2018_Feb_26_1406,60.004676768,MAFE4ImagesEEG,001,103231,
AFNE01.JPG,AFNE01.JPG,AFNE01.JPG,AFNE01.JPG,AFNE01.JPG,AFNE01.JPG,,,,,,,,,,,,,,,,,5,0,50,1,,,,,,,AMSA15.jpg,AMNE09.jpg,AMNE20.jpg,AMSA16.jpg,AMSA16.jpg,MS,2,num_4,32,num_8,0.566810389748,,,2018_Feb_26_1406,60.004676768,MAFE4ImagesEEG,001,103231,
AFNE01.JPG,AFNE01.JPG,AFNE01.JPG,AFNE01.JPG,AFNE01.JPG,AFNE01.JPG,,,,,,,,,,,,,,,,,5,1,51,2,,,,,,,AMNE01.jpg,AMNE08.jpg,AMSA18.jpg,AMSA06.jpg,AMNE08.jpg,MN,1,num_6,32,num_4,0.38353409979,,,2018_Feb_26_1406,60.004676768,MAFE4ImagesEEG,001,103231,
AFNE01.JPG,AFNE01.JPG,AFNE01.JPG,AFNE01.JPG,AFNE01.JPG,AFNE01.JPG,,,,,,,,,,,,,,,,,5,2,52,7,,,,,,,AMNE13.jpg,AMSA16.jpg,AMNE08.jpg,AMSA01.jpg,AMSA16.jpg,MS,2,num_6,16,num_6,0.350277326885,,,2018_Feb_26_1406,60.004676768,MAFE4ImagesEEG,001,103231,
AFNE01.JPG,AFNE01.JPG,AFNE01.JPG,AFNE01.JPG,AFNE01.JPG,AFNE01.JPG,,,,,,,,,,,,,,,,,5,3,53,8,,,,,,,AMSA18.jpg,AMNE18.jpg,AMNE14.jpg,AMSA15.jpg,AMNE14.jpg,MN,1,num_2,16,num_2,0.250203589094,,,2018_Feb_26_1406,60.004676768,MAFE4ImagesEEG,001,103231,
AFNE01.JPG,AFNE01.JPG,AFNE01.JPG,AFNE01.JPG,AFNE01.JPG,AFNE01.JPG,,,,,,,,,,,,,,,,,5,4,54,5,,,,,,,AMNE13.jpg,AMNE20.jpg,AMSA14.jpg,AMSA01.jpg,AMSA14.jpg,MS,2,num_2,32,num_8,0.300128199277,,,2018_Feb_26_1406,60.004676768,MAFE4ImagesEEG,001,103231,
AFNE01.JPG,AFNE01.JPG,AFNE01.JPG,AFNE01.JPG,AFNE01.JPG,AFNE01.JPG,,,,,,,,,,,,,,,,,5,5,55,0,,,,,,,AMSA11.jpg,AMSA09.jpg,AMNE15.jpg,AMNE02.jpg,AMNE02.jpg,MN,1,num_4,32,num_6,0.366843810771,,,2018_Feb_26_1406,60.004676768,MAFE4ImagesEEG,001,103231,
AFNE01.JPG,AFNE01.JPG,AFNE01.JPG,AFNE01.JPG,AFNE01.JPG,AFNE01.JPG,,,,,,,,,,,,,,,,,5,6,56,4,,,,,,,AMSA02.jpg,AMNE08.jpg,AMSA18.jpg,AMNE13.jpg,AMNE13.jpg,MN,1,num_4,32,num_8,2.71659961622,,,2018_Feb_26_1406,60.004676768,MAFE4ImagesEEG,001,103231,
AFNE01.JPG,AFNE01.JPG,AFNE01.JPG,AFNE01.JPG,AFNE01.JPG,AFNE01.JPG,,,,,,,,,,,,,,,,,5,7,57,3,,,,,,,AMNE17.jpg,AMSA03.jpg,AMSA04.jpg,AMNE09.jpg,AMNE09.jpg,MN,1,num_4,32,num_2,0.516815537587,,,2018_Feb_26_1406,60.004676768,MAFE4ImagesEEG,001,103231,
AFNE01.JPG,AFNE01.JPG,AFNE01.JPG,AFNE01.JPG,AFNE01.JPG,AFNE01.JPG,,,,,,,,,,,,,,,,,5,8,58,9,,,,,,,AMSA11.jpg,AMNE10.jpg,AMNE09.jpg,AMSA08.jpg,AMSA08.jpg,MS,2,num_4,32,num_6,0.450227259542,,,2018_Feb_26_1406,60.004676768,MAFE4ImagesEEG,001,103231,
AFNE01.JPG,AFNE01.JPG,AFNE01.JPG,AFNE01.JPG,AFNE01.JPG,AFNE01.JPG,,,,,,,,,,,,,,,,,5,9,59,6,,,,,,,AMSA06.jpg,AMNE10.jpg,AMSA13.jpg,AMNE07.jpg,AMNE10.jpg,MN,1,num_6,16,num_6,0.816846553003,,,2018_Feb_26_1406,60.004676768,MAFE4ImagesEEG,001,103231,
,,,,,,,,,,,,,,,,,,,,,,,,,,,,,,,,,,,,,,,,,,,space,62.1287946217,2018_Feb_26_1406,60.004676768,MAFE4ImagesEEG,001,103231,
AFNE01.JPG,AFNE01.JPG,AFNE01.JPG,AFNE01.JPG,AFNE01.JPG,AFNE01.JPG,,,,,,,,,,,,,,,,,,,,,0,0,0,4,,,AFNE06.jpg,AFSA09.jpg,AFSA20.jpg,AFNE19.jpg,AFSA09.jpg,FS,4,num_6,16,num_6,1.50011081528,,,2018_Feb_26_1406,60.004676768,MAFE4ImagesEEG,001,103231,
AFNE01.JPG,AFNE01.JPG,AFNE01.JPG,AFNE01.JPG,AFNE01.JPG,AFNE01.JPG,,,,,,,,,,,,,,,,,,,,,0,1,1,2,,,AFNE11.jpg,AFSA07.jpg,AFSA04.jpg,AFNE15.jpg,AFNE15.jpg,FN,3,num_4,32,num_2,0.516788916197,,,2018_Feb_26_1406,60.004676768,MAFE4ImagesEEG,001,103231,
AFNE01.JPG,AFNE01.JPG,AFNE01.JPG,AFNE01.JPG,AFNE01.JPG,AFNE01.JPG,,,,,,,,,,,,,,,,,,,,,0,2,2,6,,,AFSA13.jpg,AFNE14.jpg,AFSA02.jpg,AFNE10.jpg,AFSA02.jpg,FS,4,num_2,32,num_8,0.250203909702,,,2018_Feb_26_1406,60.004676768,MAFE4ImagesEEG,001,103231,
AFNE01.JPG,AFNE01.JPG,AFNE01.JPG,AFNE01.JPG,AFNE01.JPG,AFNE01.JPG,,,,,,,,,,,,,,,,,,,,,0,3,3,3,,,AFSA15.jpg,AFNE03.jpg,AFNE14.jpg,AFSA17.jpg,AFNE14.jpg,FN,3,num_2,16,num_2,0.416779646999,,,2018_Feb_26_1406,60.004676768,MAFE4ImagesEEG,001,103231,
AFNE01.JPG,AFNE01.JPG,AFNE01.JPG,AFNE01.JPG,AFNE01.JPG,AFNE01.JPG,,,,,,,,,,,,,,,,,,,,,0,4,4,7,,,AFSA20.jpg,AFNE19.jpg,AFNE02.jpg,AFSA12.jpg,AFNE19.jpg,FN,3,num_6,32,num_4,0.383585417992,,,2018_Feb_26_1406,60.004676768,MAFE4ImagesEEG,001,103231,
AFNE01.JPG,AFNE01.JPG,AFNE01.JPG,AFNE01.JPG,AFNE01.JPG,AFNE01.JPG,,,,,,,,,,,,,,,,,,,,,0,5,5,5,,,AFSA19.jpg,AFNE08.jpg,AFNE14.jpg,AFSA09.jpg,AFSA09.jpg,FS,4,num_4,16,num_4,0.366811095388,,,2018_Feb_26_1406,60.004676768,MAFE4ImagesEEG,001,103231,
AFNE01.JPG,AFNE01.JPG,AFNE01.JPG,AFNE01.JPG,AFNE01.JPG,AFNE01.JPG,,,,,,,,,,,,,,,,,,,,,0,6,6,9,,,AFNE06.jpg,AFNE08.jpg,AFSA01.jpg,AFSA18.jpg,AFSA01.jpg,FS,4,num_2,32,num_6,0.466840571258,,,2018_Feb_26_1406,60.004676768,MAFE4ImagesEEG,001,103231,
AFNE01.JPG,AFNE01.JPG,AFNE01.JPG,AFNE01.JPG,AFNE01.JPG,AFNE01.JPG,,,,,,,,,,,,,,,,,,,,,0,7,7,1,,,AFNE19.jpg,AFSA17.jpg,AFSA07.jpg,AFNE02.jpg,AFNE19.jpg,FN,3,num_8,16,num_8,0.400073320838,,,2018_Feb_26_1406,60.004676768,MAFE4ImagesEEG,001,103231,
AFNE01.JPG,AFNE01.JPG,AFNE01.JPG,AFNE01.JPG,AFNE01.JPG,AFNE01.JPG,,,,,,,,,,,,,,,,,,,,,0,8,8,0,,,AFSA03.jpg,AFSA18.jpg,AFNE13.jpg,AFNE05.jpg,AFSA18.jpg,FS,4,num_6,32,num_8,0.600146385143,,,2018_Feb_26_1406,60.004676768,MAFE4ImagesEEG,001,103231,
AFNE01.JPG,AFNE01.JPG,AFNE01.JPG,AFNE01.JPG,AFNE01.JPG,AFNE01.JPG,,,,,,,,,,,,,,,,,,,,,0,9,9,8,,,AFSA03.jpg,AFNE05.jpg,AFSA11.jpg,AFNE15.jpg,AFSA03.jpg,FS,4,num_8,32,num_6,0.700210180134,,,2018_Feb_26_1406,60.004676768,MAFE4ImagesEEG,001,103231,
AFNE01.JPG,AFNE01.JPG,AFNE01.JPG,AFNE01.JPG,AFNE01.JPG,AFNE01.JPG,,,,,,,,,,,,,,,,,,,,,1,0,10,3,,,AFNE03.jpg,AFSA12.jpg,AFNE04.jpg,AFSA17.jpg,AFSA17.jpg,FS,4,num_4,16,num_4,0.600155365886,,,2018_Feb_26_1406,60.004676768,MAFE4ImagesEEG,001,103231,
AFNE01.JPG,AFNE01.JPG,AFNE01.JPG,AFNE01.JPG,AFNE01.JPG,AFNE01.JPG,,,,,,,,,,,,,,,,,,,,,1,1,11,4,,,AFNE16.jpg,AFSA05.jpg,AFNE06.jpg,AFSA20.jpg,AFNE16.jpg,FN,3,num_8,32,num_6,0.60002418363,,,2018_Feb_26_1406,60.004676768,MAFE4ImagesEEG,001,103231,
AFNE01.JPG,AFNE01.JPG,AFNE01.JPG,AFNE01.JPG,AFNE01.JPG,AFNE01.JPG,,,,,,,,,,,,,,,,,,,,,1,2,12,5,,,AFNE11.jpg,AFSA16.jpg,AFSA04.jpg,AFNE03.jpg,AFNE11.jpg,FN,3,num_8,32,num_4,0.550151853822,,,2018_Feb_26_1406,60.004676768,MAFE4ImagesEEG,001,103231,
AFNE01.JPG,AFNE01.JPG,AFNE01.JPG,AFNE01.JPG,AFNE01.JPG,AFNE01.JPG,,,,,,,,,,,,,,,,,,,,,1,3,13,2,,,AFSA13.jpg,AFNE17.jpg,AFSA06.jpg,AFNE09.jpg,AFNE09.jpg,FN,3,num_4,32,num_8,0.466831911355,,,2018_Feb_26_1406,60.004676768,MAFE4ImagesEEG,001,103231,
AFNE01.JPG,AFNE01.JPG,AFNE01.JPG,AFNE01.JPG,AFNE01.JPG,AFNE01.JPG,,,,,,,,,,,,,,,,,,,,,1,4,14,0,,,AFSA14.jpg,AFNE06.jpg,AFSA05.jpg,AFNE19.jpg,AFSA05.jpg,FS,4,num_2,32,num_8,2.54998763546,,,2018_Feb_26_1406,60.004676768,MAFE4ImagesEEG,001,103231,
AFNE01.JPG,AFNE01.JPG,AFNE01.JPG,AFNE01.JPG,AFNE01.JPG,AFNE01.JPG,,,,,,,,,,,,,,,,,,,,,1,5,15,7,,,AFNE20.jpg,AFNE12.jpg,AFSA04.jpg,AFSA19.jpg,AFSA04.jpg,FS,4,num_2,32,num_6,0.333512626356,,,2018_Feb_26_1406,60.004676768,MAFE4ImagesEEG,001,103231,
AFNE01.JPG,AFNE01.JPG,AFNE01.JPG,AFNE01.JPG,AFNE01.JPG,AFNE01.JPG,,,,,,,,,,,,,,,,,,,,,1,6,16,9,,,AFNE20.jpg,AFSA17.jpg,AFNE16.jpg,AFSA04.jpg,AFNE16.jpg,FN,3,num_2,32,num_8,0.566804295639,,,2018_Feb_26_1406,60.004676768,MAFE4ImagesEEG,001,103231,
AFNE01.JPG,AFNE01.JPG,AFNE01.JPG,AFNE01.JPG,AFNE01.JPG,AFNE01.JPG,,,,,,,,,,,,,,,,,,,,,1,7,17,6,,,AFNE19.jpg,AFSA20.jpg,AFSA18.jpg,AFNE20.jpg,AFNE20.jpg,FN,3,num_4,32,num_8,0.416775156627,,,2018_Feb_26_1406,60.004676768,MAFE4ImagesEEG,001,103231,
AFNE01.JPG,AFNE01.JPG,AFNE01.JPG,AFNE01.JPG,AFNE01.JPG,AFNE01.JPG,,,,,,,,,,,,,,,,,,,,,1,8,18,1,,,AFSA15.jpg,AFNE19.jpg,AFNE03.jpg,AFSA10.jpg,AFSA10.jpg,FS,4,num_4,32,num_8,0.51680655696,,,2018_Feb_26_1406,60.004676768,MAFE4ImagesEEG,001,103231,
AFNE01.JPG,AFNE01.JPG,AFNE01.JPG,AFNE01.JPG,AFNE01.JPG,AFNE01.JPG,,,,,,,,,,,,,,,,,,,,,1,9,19,8,,,AFNE11.jpg,AFNE12.jpg,AFSA10.jpg,AFSA12.jpg,AFNE11.jpg,FN,3,num_8,32,num_4,2.61638475326,,,2018_Feb_26_1406,60.004676768,MAFE4ImagesEEG,001,103231,
AFNE01.JPG,AFNE01.JPG,AFNE01.JPG,AFNE01.JPG,AFNE01.JPG,AFNE01.JPG,,,,,,,,,,,,,,,,,,,,,2,0,20,3,,,AFSA06.jpg,AFSA13.jpg,AFNE08.jpg,AFNE18.jpg,AFSA13.jpg,FS,4,num_6,16,num_6,0.366810774663,,,2018_Feb_26_1406,60.004676768,MAFE4ImagesEEG,001,103231,
AFNE01.JPG,AFNE01.JPG,AFNE01.JPG,AFNE01.JPG,AFNE01.JPG,AFNE01.JPG,,,,,,,,,,,,,,,,,,,,,2,1,21,5,,,AFSA01.jpg,AFNE10.jpg,AFSA09.jpg,AFNE11.jpg,AFNE10.jpg,FN,3,num_6,32,num_2,1.41673313978,,,2018_Feb_26_1406,60.004676768,MAFE4ImagesEEG,001,103231,
AFNE01.JPG,AFNE01.JPG,AFNE01.JPG,AFNE01.JPG,AFNE01.JPG,AFNE01.JPG,,,,,,,,,,,,,,,,,,,,,2,2,22,4,,,AFNE11.jpg,AFSA06.jpg,AFSA18.jpg,AFNE20.jpg,AFSA18.jpg,FS,4,num_2,32,num_4,0.616643268848,,,2018_Feb_26_1406,60.004676768,MAFE4ImagesEEG,001,103231,
AFNE01.JPG,AFNE01.JPG,AFNE01.JPG,AFNE01.JPG,AFNE01.JPG,AFNE01.JPG,,,,,,,,,,,,,,,,,,,,,2,3,23,1,,,AFNE10.jpg,AFSA03.jpg,AFSA15.jpg,AFNE02.jpg,AFSA15.jpg,FS,4,num_2,32,num_6,0.36683835811,,,2018_Feb_26_1406,60.004676768,MAFE4ImagesEEG,001,103231,
AFNE01.JPG,AFNE01.JPG,AFNE01.JPG,AFNE01.JPG,AFNE01.JPG,AFNE01.JPG,,,,,,,,,,,,,,,,,,,,,2,4,24,2,,,AFNE04.jpg,AFNE12.jpg,AFSA01.jpg,AFSA15.jpg,AFNE12.jpg,FN,3,num_6,16,num_6,0.600171082187,,,2018_Feb_26_1406,60.004676768,MAFE4ImagesEEG,001,103231,
AFNE01.JPG,AFNE01.JPG,AFNE01.JPG,AFNE01.JPG,AFNE01.JPG,AFNE01.JPG,,,,,,,,,,,,,,,,,,,,,2,5,25,0,,,AFSA10.jpg,AFNE04.jpg,AFSA05.jpg,AFNE10.jpg,AFNE04.jpg,FN,3,num_6,32,num_4,0.583502282621,,,2018_Feb_26_1406,60.004676768,MAFE4ImagesEEG,001,103231,
AFNE01.JPG,AFNE01.JPG,AFNE01.JPG,AFNE01.JPG,AFNE01.JPG,AFNE01.JPG,,,,,,,,,,,,,,,,,,,,,2,6,26,6,,,AFNE20.jpg,AFSA05.jpg,AFSA14.jpg,AFNE01.jpg,AFSA05.jpg,FS,4,num_6,32,num_4,0.483519634581,,,2018_Feb_26_1406,60.004676768,MAFE4ImagesEEG,001,103231,
AFNE01.JPG,AFNE01.JPG,AFNE01.JPG,AFNE01.JPG,AFNE01.JPG,AFNE01.JPG,,,,,,,,,,,,,,,,,,,,,2,7,27,8,,,AFSA01.jpg,AFNE17.jpg,AFSA03.jpg,AFNE14.jpg,AFNE14.jpg,FN,3,num_4,32,num_8,0.783467899309,,,2018_Feb_26_1406,60.004676768,MAFE4ImagesEEG,001,103231,
AFNE01.JPG,AFNE01.JPG,AFNE01.JPG,AFNE01.JPG,AFNE01.JPG,AFNE01.JPG,,,,,,,,,,,,,,,,,,,,,2,8,28,9,,,AFSA04.jpg,AFNE08.jpg,AFSA19.jpg,AFNE13.jpg,AFNE13.jpg,FN,3,num_4,32,num_8,0.60014542297,,,2018_Feb_26_1406,60.004676768,MAFE4ImagesEEG,001,103231,
AFNE01.JPG,AFNE01.JPG,AFNE01.JPG,AFNE01.JPG,AFNE01.JPG,AFNE01.JPG,,,,,,,,,,,,,,,,,,,,,2,9,29,7,,,AFNE09.jpg,AFNE17.jpg,AFSA04.jpg,AFSA07.jpg,AFSA07.jpg,FS,4,num_4,16,num_4,0.433475388563,,,2018_Feb_26_1406,60.004676768,MAFE4ImagesEEG,001,103231,
AFNE01.JPG,AFNE01.JPG,AFNE01.JPG,AFNE01.JPG,AFNE01.JPG,AFNE01.JPG,,,,,,,,,,,,,,,,,,,,,3,0,30,7,,,AFNE08.jpg,AFSA05.jpg,AFNE17.jpg,AFSA03.jpg,AFSA05.jpg,FS,4,num_6,32,num_2,0.483508408652,,,2018_Feb_26_1406,60.004676768,MAFE4ImagesEEG,001,103231,
AFNE01.JPG,AFNE01.JPG,AFNE01.JPG,AFNE01.JPG,AFNE01.JPG,AFNE01.JPG,,,,,,,,,,,,,,,,,,,,,3,1,31,6,,,AFSA18.jpg,AFSA08.jpg,AFNE08.jpg,AFNE05.jpg,AFSA18.jpg,FS,4,num_8,32,num_2,0.70021274616,,,2018_Feb_26_1406,60.004676768,MAFE4ImagesEEG,001,103231,
AFNE01.JPG,AFNE01.JPG,AFNE01.JPG,AFNE01.JPG,AFNE01.JPG,AFNE01.JPG,,,,,,,,,,,,,,,,,,,,,3,2,32,3,,,AFNE03.jpg,AFNE15.jpg,AFSA01.jpg,AFSA20.jpg,AFSA20.jpg,FS,4,num_4,32,num_6,0.433517405298,,,2018_Feb_26_1406,60.004676768,MAFE4ImagesEEG,001,103231,
AFNE01.JPG,AFNE01.JPG,AFNE01.JPG,AFNE01.JPG,AFNE01.JPG,AFNE01.JPG,,,,,,,,,,,,,,,,,,,,,3,3,33,1,,,AFNE14.jpg,AFSA17.jpg,AFNE16.jpg,AFSA16.jpg,AFNE14.jpg,FN,3,num_8,16,num_8,1.73341403122,,,2018_Feb_26_1406,60.004676768,MAFE4ImagesEEG,001,103231,
AFNE01.JPG,AFNE01.JPG,AFNE01.JPG,AFNE01.JPG,AFNE01.JPG,AFNE01.JPG,,,,,,,,,,,,,,,,,,,,,3,4,34,5,,,AFNE10.jpg,AFSA08.jpg,AFNE14.jpg,AFSA15.jpg,AFSA08.jpg,FS,4,num_6,32,num_2,0.967059154762,,,2018_Feb_26_1406,60.004676768,MAFE4ImagesEEG,001,103231,
AFNE01.JPG,AFNE01.JPG,AFNE01.JPG,AFNE01.JPG,AFNE01.JPG,AFNE01.JPG,,,,,,,,,,,,,,,,,,,,,3,5,35,9,,,AFNE19.jpg,AFSA01.jpg,AFNE15.jpg,AFSA06.jpg,AFNE19.jpg,FN,3,num_8,32,num_4,0.666783415596,,,2018_Feb_26_1406,60.004676768,MAFE4ImagesEEG,001,103231,
AFNE01.JPG,AFNE01.JPG,AFNE01.JPG,AFNE01.JPG,AFNE01.JPG,AFNE01.JPG,,,,,,,,,,,,,,,,,,,,,3,6,36,8,,,AFNE09.jpg,AFSA05.jpg,AFSA10.jpg,AFNE12.jpg,AFSA10.jpg,FS,4,num_2,32,num_8,0.566795315011,,,2018_Feb_26_1406,60.004676768,MAFE4ImagesEEG,001,103231,
AFNE01.JPG,AFNE01.JPG,AFNE01.JPG,AFNE01.JPG,AFNE01.JPG,AFNE01.JPG,,,,,,,,,,,,,,,,,,,,,3,7,37,4,,,AFNE20.jpg,AFSA20.jpg,AFSA16.jpg,AFNE01.jpg,AFNE20.jpg,FN,3,num_8,32,num_4,0.466828383273,,,2018_Feb_26_1406,60.004676768,MAFE4ImagesEEG,001,103231,
AFNE01.JPG,AFNE01.JPG,AFNE01.JPG,AFNE01.JPG,AFNE01.JPG,AFNE01.JPG,,,,,,,,,,,,,,,,,,,,,3,8,38,2,,,AFNE14.jpg,AFNE19.jpg,AFSA01.jpg,AFSA06.jpg,AFSA01.jpg,FS,4,num_2,32,num_6,0.533528278465,,,2018_Feb_26_1406,60.004676768,MAFE4ImagesEEG,001,103231,
AFNE01.JPG,AFNE01.JPG,AFNE01.JPG,AFNE01.JPG,AFNE01.JPG,AFNE01.JPG,,,,,,,,,,,,,,,,,,,,,3,9,39,0,,,AFNE01.jpg,AFNE10.jpg,AFSA09.jpg,AFSA05.jpg,AFSA09.jpg,FS,4,num_2,32,num_4,0.650145086343,,,2018_Feb_26_1406,60.004676768,MAFE4ImagesEEG,001,103231,
