IPosition2,IPosition3,IPosition1,IPosition6,IPosition4,IPosition5,TrialsF1.thisRepN,TrialsF1.thisTrialN,TrialsF1.thisN,TrialsF1.thisIndex,TrialsM1.thisRepN,TrialsM1.thisTrialN,TrialsM1.thisN,TrialsM1.thisIndex,TrialsF2.thisRepN,TrialsF2.thisTrialN,TrialsF2.thisN,TrialsF2.thisIndex,TrialsM2.thisRepN,TrialsM2.thisTrialN,TrialsM2.thisN,TrialsM2.thisIndex,TrialsF3.thisRepN,TrialsF3.thisTrialN,TrialsF3.thisN,TrialsF3.thisIndex,TrialsM3.thisRepN,TrialsM3.thisTrialN,TrialsM3.thisN,TrialsM3.thisIndex,InstrKey_resp.keys,InstrKey_resp.rt,Image0 _Position,Image1 _Position,Image2 _Position,Image3 _Position,Center_image,condition,code,correct_answer,accuracy,Key_Resp.keys,Key_Resp.rt,BreakKey_resp.keys,BreakKey_resp.rt,date,frameRate,expName,session,participant,
,,,,,,,,,,,,,,,,,,,,,,,,,,,,,,space,12.7495366125,,,,,,,,,,,,,,2018_Feb_23_1136,59.9974021556,FEMA4ImagesEEG,001,103206,
AMSA21.JPG,AMNE23.JPG,AMNE21.JPG,AMSA25.JPG,AMNE25.JPG,AMSA23.JPG,0,0,0,5,,,,,,,,,,,,,,,,,,,,,,,AFSA13.jpg,AFSA08.jpg,AFNE09.jpg,AFNE17.jpg,AFSA08.jpg,FS,4,num_6,32,num_8,1.65012680413,,,2018_Feb_23_1136,59.9974021556,FEMA4ImagesEEG,001,103206,
AFSA21.JPG,AFNE23.JPG,AFNE21.JPG,AFSA25.JPG,AFNE25.JPG,AFSA23.JPG,0,1,1,4,,,,,,,,,,,,,,,,,,,,,,,AFNE11.jpg,AFSA05.jpg,AFNE03.jpg,AFSA08.jpg,AFNE11.jpg,FN,3,num_8,32,num_4,1.31672868144,,,2018_Feb_23_1136,59.9974021556,FEMA4ImagesEEG,001,103206,
AMSA21.JPG,AMNE22.JPG,AMNE21.JPG,AMSA23.JPG,AMSA22.JPG,AMNE23.JPG,0,2,2,1,,,,,,,,,,,,,,,,,,,,,,,AFNE07.jpg,AFNE09.jpg,AFSA17.jpg,AFSA19.jpg,AFNE09.jpg,FN,3,num_6,16,num_6,1.10011479247,,,2018_Feb_23_1136,59.9974021556,FEMA4ImagesEEG,001,103206,
AFSA21.JPG,AFNE22.JPG,AFNE21.JPG,AFSA23.JPG,AFSA22.JPG,AFNE23.JPG,0,3,3,0,,,,,,,,,,,,,,,,,,,,,,,AFNE17.jpg,AFSA10.jpg,AFNE20.jpg,AFSA19.jpg,AFNE20.jpg,FN,3,num_2,16,num_2,0.800264353049,,,2018_Feb_23_1136,59.9974021556,FEMA4ImagesEEG,001,103206,
AFNE22.JPG,AFSA24.JPG,AFSA22.JPG,AFNE25.JPG,AFNE24.JPG,AFSA25.JPG,0,4,4,6,,,,,,,,,,,,,,,,,,,,,,,AFSA01.jpg,AFSA18.jpg,AFNE09.jpg,AFNE19.jpg,AFNE09.jpg,FN,3,num_2,32,num_6,1.05009524338,,,2018_Feb_23_1136,59.9974021556,FEMA4ImagesEEG,001,103206,
AMNE23.JPG,AMNE24.JPG,AMNE22.JPG,AMSA24.JPG,AMSA22.JPG,AMSA23.JPG,0,5,5,9,,,,,,,,,,,,,,,,,,,,,,,AFNE07.jpg,AFSA13.jpg,AFNE04.jpg,AFSA16.jpg,AFSA13.jpg,FS,4,num_6,32,num_4,1.39993540326,,,2018_Feb_23_1136,59.9974021556,FEMA4ImagesEEG,001,103206,
AMNE22.JPG,AMSA24.JPG,AMSA22.JPG,AMNE25.JPG,AMNE24.JPG,AMSA25.JPG,0,6,6,7,,,,,,,,,,,,,,,,,,,,,,,AFNE10.jpg,AFSA14.jpg,AFSA10.jpg,AFNE08.jpg,AFNE08.jpg,FN,3,num_4,16,num_4,1.38346257503,,,2018_Feb_23_1136,59.9974021556,FEMA4ImagesEEG,001,103206,
AMSA25.JPG,AMNE24.JPG,AMSA24.JPG,AMNE26.JPG,AMSA21.JPG,AMNE25.JPG,0,7,7,3,,,,,,,,,,,,,,,,,,,,,,,AFNE10.jpg,AFSA01.jpg,AFNE18.jpg,AFSA15.jpg,AFSA15.jpg,FS,4,num_4,32,num_6,1.06678489107,,,2018_Feb_23_1136,59.9974021556,FEMA4ImagesEEG,001,103206,
AFSA25.JPG,AFNE24.JPG,AFSA24.JPG,AFNE21.JPG,AFSA21.JPG,AFNE25.JPG,0,8,8,2,,,,,,,,,,,,,,,,,,,,,,,AFNE20.jpg,AFSA03.jpg,AFNE12.jpg,AFSA12.jpg,AFSA03.jpg,FS,4,num_6,32,num_4,1.81672723813,,,2018_Feb_23_1136,59.9974021556,FEMA4ImagesEEG,001,103206,
AFNE23.JPG,AFNE24.JPG,AFNE22.JPG,AFSA24.JPG,AFSA22.JPG,AFSA23.JPG,0,9,9,8,,,,,,,,,,,,,,,,,,,,,,,AFNE16.jpg,AFSA04.jpg,AFSA19.jpg,AFNE03.jpg,AFNE16.jpg,FN,3,num_8,16,num_8,1.11680540221,,,2018_Feb_23_1136,59.9974021556,FEMA4ImagesEEG,001,103206,
AFNE22.JPG,AFSA24.JPG,AFSA22.JPG,AFNE25.JPG,AFNE24.JPG,AFSA25.JPG,,,,,0,0,0,6,,,,,,,,,,,,,,,,,,,AMNE15.jpg,AMSA05.jpg,AMSA18.jpg,AMNE09.jpg,AMNE09.jpg,MN,1,num_4,32,num_6,0.850228734897,,,2018_Feb_23_1136,59.9974021556,FEMA4ImagesEEG,001,103206,
AMNE22.JPG,AMSA24.JPG,AMSA22.JPG,AMNE25.JPG,AMNE24.JPG,AMSA25.JPG,,,,,0,1,1,7,,,,,,,,,,,,,,,,,,,AMNE18.jpg,AMSA03.jpg,AMSA06.jpg,AMNE14.jpg,AMNE18.jpg,MN,1,num_8,32,num_4,0.783481370425,,,2018_Feb_23_1136,59.9974021556,FEMA4ImagesEEG,001,103206,
AMSA25.JPG,AMNE24.JPG,AMSA24.JPG,AMNE26.JPG,AMSA21.JPG,AMNE25.JPG,,,,,0,2,2,3,,,,,,,,,,,,,,,,,,,AMSA16.jpg,AMNE03.jpg,AMSA13.jpg,AMNE11.jpg,AMNE03.jpg,MN,1,num_6,16,num_6,1.09996981849,,,2018_Feb_23_1136,59.9974021556,FEMA4ImagesEEG,001,103206,
AMSA21.JPG,AMNE22.JPG,AMNE21.JPG,AMSA23.JPG,AMSA22.JPG,AMNE23.JPG,,,,,0,3,3,1,,,,,,,,,,,,,,,,,,,AMSA09.jpg,AMSA18.jpg,AMNE09.jpg,AMNE04.jpg,AMNE09.jpg,MN,1,num_2,32,num_4,1.61680877011,,,2018_Feb_23_1136,59.9974021556,FEMA4ImagesEEG,001,103206,
AFNE23.JPG,AFNE24.JPG,AFNE22.JPG,AFSA24.JPG,AFSA22.JPG,AFSA23.JPG,,,,,0,4,4,8,,,,,,,,,,,,,,,,,,,AMSA20.jpg,AMNE03.jpg,AMSA05.jpg,AMNE02.jpg,AMSA05.jpg,MS,2,num_2,32,num_6,1.31671072019,,,2018_Feb_23_1136,59.9974021556,FEMA4ImagesEEG,001,103206,
AFSA25.JPG,AFNE24.JPG,AFSA24.JPG,AFNE21.JPG,AFSA21.JPG,AFNE25.JPG,,,,,0,5,5,2,,,,,,,,,,,,,,,,,,,AMSA16.jpg,AMNE01.jpg,AMSA19.jpg,AMNE06.jpg,AMSA16.jpg,MS,2,num_8,16,num_8,1.2167325624,,,2018_Feb_23_1136,59.9974021556,FEMA4ImagesEEG,001,103206,
AFSA21.JPG,AFNE22.JPG,AFNE21.JPG,AFSA23.JPG,AFSA22.JPG,AFNE23.JPG,,,,,0,6,6,0,,,,,,,,,,,,,,,,,,,AMNE17.jpg,AMNE13.jpg,AMSA17.jpg,AMSA02.jpg,AMNE13.jpg,MN,1,num_6,32,num_4,1.21689389413,,,2018_Feb_23_1136,59.9974021556,FEMA4ImagesEEG,001,103206,
AFSA21.JPG,AFNE23.JPG,AFNE21.JPG,AFSA25.JPG,AFNE25.JPG,AFSA23.JPG,,,,,0,7,7,4,,,,,,,,,,,,,,,,,,,AMNE08.jpg,AMSA12.jpg,AMNE11.jpg,AMSA19.jpg,AMSA19.jpg,MS,2,num_4,16,num_4,0.583299896331,,,2018_Feb_23_1136,59.9974021556,FEMA4ImagesEEG,001,103206,
AMSA21.JPG,AMNE23.JPG,AMNE21.JPG,AMSA25.JPG,AMNE25.JPG,AMSA23.JPG,,,,,0,8,8,5,,,,,,,,,,,,,,,,,,,AMSA05.jpg,AMSA08.jpg,AMNE18.jpg,AMNE03.jpg,AMNE18.jpg,MN,1,num_2,32,num_8,0.983453401946,,,2018_Feb_23_1136,59.9974021556,FEMA4ImagesEEG,001,103206,
AMNE23.JPG,AMNE24.JPG,AMNE22.JPG,AMSA24.JPG,AMSA22.JPG,AMSA23.JPG,,,,,0,9,9,9,,,,,,,,,,,,,,,,,,,AMSA05.jpg,AMNE01.jpg,AMNE09.jpg,AMSA19.jpg,AMNE09.jpg,MN,1,num_2,32,num_6,1.85007542174,,,2018_Feb_23_1136,59.9974021556,FEMA4ImagesEEG,001,103206,
AFSA21.JPG,AFNE23.JPG,AFNE21.JPG,AFSA25.JPG,AFNE25.JPG,AFSA23.JPG,,,,,,,,,0,0,0,4,,,,,,,,,,,,,,,AFNE03.jpg,AFNE02.jpg,AFSA03.jpg,AFSA10.jpg,AFNE03.jpg,FN,3,num_8,32,num_6,1.28342379781,,,2018_Feb_23_1136,59.9974021556,FEMA4ImagesEEG,001,103206,
AMNE22.JPG,AMSA24.JPG,AMSA22.JPG,AMNE25.JPG,AMNE24.JPG,AMSA25.JPG,,,,,,,,,0,1,1,7,,,,,,,,,,,,,,,AFNE15.jpg,AFSA08.jpg,AFNE04.jpg,AFSA14.jpg,AFNE15.jpg,FN,3,num_8,32,num_4,2.20000731281,,,2018_Feb_23_1136,59.9974021556,FEMA4ImagesEEG,001,103206,
AMNE23.JPG,AMNE24.JPG,AMNE22.JPG,AMSA24.JPG,AMSA22.JPG,AMSA23.JPG,,,,,,,,,0,2,2,9,,,,,,,,,,,,,,,AFNE16.jpg,AFSA08.jpg,AFSA15.jpg,AFNE01.jpg,AFNE16.jpg,FN,3,num_8,16,num_8,1.26672164141,,,2018_Feb_23_1136,59.9974021556,FEMA4ImagesEEG,001,103206,
AFSA21.JPG,AFNE22.JPG,AFNE21.JPG,AFSA23.JPG,AFSA22.JPG,AFNE23.JPG,,,,,,,,,0,3,3,0,,,,,,,,,,,,,,,AFSA16.jpg,AFNE20.jpg,AFNE13.jpg,AFSA06.jpg,AFSA06.jpg,FS,4,num_4,32,num_6,1.7165566372,,,2018_Feb_23_1136,59.9974021556,FEMA4ImagesEEG,001,103206,
AFNE23.JPG,AFNE24.JPG,AFNE22.JPG,AFSA24.JPG,AFSA22.JPG,AFSA23.JPG,,,,,,,,,0,4,4,8,,,,,,,,,,,,,,,AFNE15.jpg,AFNE05.jpg,AFSA13.jpg,AFSA14.jpg,AFNE15.jpg,FN,3,num_8,32,num_2,1.73338548548,,,2018_Feb_23_1136,59.9974021556,FEMA4ImagesEEG,001,103206,
AFSA25.JPG,AFNE24.JPG,AFSA24.JPG,AFNE21.JPG,AFSA21.JPG,AFNE25.JPG,,,,,,,,,0,5,5,2,,,,,,,,,,,,,,,AFNE07.jpg,AFNE20.jpg,AFSA03.jpg,AFSA19.jpg,AFNE07.jpg,FN,3,num_8,32,num_4,1.05008722492,,,2018_Feb_23_1136,59.9974021556,FEMA4ImagesEEG,001,103206,
AFNE22.JPG,AFSA24.JPG,AFSA22.JPG,AFNE25.JPG,AFNE24.JPG,AFSA25.JPG,,,,,,,,,0,6,6,6,,,,,,,,,,,,,,,AFNE10.jpg,AFSA18.jpg,AFNE20.jpg,AFSA15.jpg,AFSA18.jpg,FS,4,num_6,32,num_2,2.05005322665,,,2018_Feb_23_1136,59.9974021556,FEMA4ImagesEEG,001,103206,
AMSA21.JPG,AMNE22.JPG,AMNE21.JPG,AMSA23.JPG,AMSA22.JPG,AMNE23.JPG,,,,,,,,,0,7,7,1,,,,,,,,,,,,,,,AFNE07.jpg,AFSA12.jpg,AFSA03.jpg,AFNE08.jpg,AFNE07.jpg,FN,3,num_8,16,num_8,1.23315599689,,,2018_Feb_23_1136,59.9974021556,FEMA4ImagesEEG,001,103206,
AMSA21.JPG,AMNE23.JPG,AMNE21.JPG,AMSA25.JPG,AMNE25.JPG,AMSA23.JPG,,,,,,,,,0,8,8,5,,,,,,,,,,,,,,,AFSA06.jpg,AFSA20.jpg,AFNE15.jpg,AFNE13.jpg,AFSA06.jpg,FS,4,num_8,32,num_2,1.91654663021,,,2018_Feb_23_1136,59.9974021556,FEMA4ImagesEEG,001,103206,
AMSA25.JPG,AMNE24.JPG,AMSA24.JPG,AMNE26.JPG,AMSA21.JPG,AMNE25.JPG,,,,,,,,,0,9,9,3,,,,,,,,,,,,,,,AFSA20.jpg,AFNE11.jpg,AFNE14.jpg,AFSA12.jpg,AFNE11.jpg,FN,3,num_6,16,num_6,1.2001680031,,,2018_Feb_23_1136,59.9974021556,FEMA4ImagesEEG,001,103206,
AMSA25.JPG,AMNE24.JPG,AMSA24.JPG,AMNE26.JPG,AMSA21.JPG,AMNE25.JPG,,,,,,,,,,,,,0,0,0,3,,,,,,,,,,,AMNE15.jpg,AMSA20.jpg,AMNE09.jpg,AMSA19.jpg,AMSA19.jpg,MS,2,num_4,32,num_2,1.41673955461,,,2018_Feb_23_1136,59.9974021556,FEMA4ImagesEEG,001,103206,
AFSA21.JPG,AFNE22.JPG,AFNE21.JPG,AFSA23.JPG,AFSA22.JPG,AFNE23.JPG,,,,,,,,,,,,,0,1,1,0,,,,,,,,,,,AMNE18.jpg,AMNE16.jpg,AMSA10.jpg,AMSA15.jpg,AMNE18.jpg,MN,1,num_8,32,num_4,1.55010662961,,,2018_Feb_23_1136,59.9974021556,FEMA4ImagesEEG,001,103206,
AMSA21.JPG,AMNE22.JPG,AMNE21.JPG,AMSA23.JPG,AMSA22.JPG,AMNE23.JPG,,,,,,,,,,,,,0,2,2,1,,,,,,,,,,,AMSA03.jpg,AMNE10.jpg,AMSA16.jpg,AMNE20.jpg,AMNE20.jpg,MN,1,num_4,32,num_8,1.21670145087,,,2018_Feb_23_1136,59.9974021556,FEMA4ImagesEEG,001,103206,
AMNE23.JPG,AMNE24.JPG,AMNE22.JPG,AMSA24.JPG,AMSA22.JPG,AMSA23.JPG,,,,,,,,,,,,,0,3,3,9,,,,,,,,,,,AMNE17.jpg,AMSA13.jpg,AMNE13.jpg,AMSA10.jpg,AMNE13.jpg,MN,1,num_2,32,num_6,0.750172316912,,,2018_Feb_23_1136,59.9974021556,FEMA4ImagesEEG,001,103206,
AFSA21.JPG,AFNE23.JPG,AFNE21.JPG,AFSA25.JPG,AFNE25.JPG,AFSA23.JPG,,,,,,,,,,,,,0,4,4,4,,,,,,,,,,,AMSA10.jpg,AMNE14.jpg,AMNE04.jpg,AMSA11.jpg,AMSA11.jpg,MS,2,num_4,32,num_2,1.31676267984,,,2018_Feb_23_1136,59.9974021556,FEMA4ImagesEEG,001,103206,
AFNE23.JPG,AFNE24.JPG,AFNE22.JPG,AFSA24.JPG,AFSA22.JPG,AFSA23.JPG,,,,,,,,,,,,,0,5,5,8,,,,,,,,,,,AMNE19.jpg,AMNE14.jpg,AMSA09.jpg,AMSA15.jpg,AMSA15.jpg,MS,2,num_4,16,num_4,0.783473672695,,,2018_Feb_23_1136,59.9974021556,FEMA4ImagesEEG,001,103206,
AFSA25.JPG,AFNE24.JPG,AFSA24.JPG,AFNE21.JPG,AFSA21.JPG,AFNE25.JPG,,,,,,,,,,,,,0,6,6,2,,,,,,,,,,,AMSA09.jpg,AMSA06.jpg,AMNE07.jpg,AMNE16.jpg,AMNE07.jpg,MN,1,num_2,32,num_6,1.03345338593,,,2018_Feb_23_1136,59.9974021556,FEMA4ImagesEEG,001,103206,
AMSA21.JPG,AMNE23.JPG,AMNE21.JPG,AMSA25.JPG,AMNE25.JPG,AMSA23.JPG,,,,,,,,,,,,,0,7,7,5,,,,,,,,,,,AMNE01.jpg,AMSA03.jpg,AMNE03.jpg,AMSA04.jpg,AMSA03.jpg,MS,2,num_6,32,num_4,0.966764395824,,,2018_Feb_23_1136,59.9974021556,FEMA4ImagesEEG,001,103206,
AFNE22.JPG,AFSA24.JPG,AFSA22.JPG,AFNE25.JPG,AFNE24.JPG,AFSA25.JPG,,,,,,,,,,,,,0,8,8,6,,,,,,,,,,,AMSA17.jpg,AMSA18.jpg,AMNE13.jpg,AMNE16.jpg,AMSA17.jpg,MS,2,num_8,16,num_8,1.15007051453,,,2018_Feb_23_1136,59.9974021556,FEMA4ImagesEEG,001,103206,
AMNE22.JPG,AMSA24.JPG,AMSA22.JPG,AMNE25.JPG,AMNE24.JPG,AMSA25.JPG,,,,,,,,,,,,,0,9,9,7,,,,,,,,,,,AMNE14.jpg,AMNE18.jpg,AMSA02.jpg,AMSA08.jpg,AMSA02.jpg,MS,2,num_2,16,num_2,1.80013477453,,,2018_Feb_23_1136,59.9974021556,FEMA4ImagesEEG,001,103206,
AMNE22.JPG,AMSA24.JPG,AMSA22.JPG,AMNE25.JPG,AMNE24.JPG,AMSA25.JPG,,,,,,,,,,,,,,,,,0,0,0,7,,,,,,,AFNE01.jpg,AFNE12.jpg,AFSA19.jpg,AFSA06.jpg,AFNE01.jpg,FN,3,num_8,32,num_6,1.0834386159,,,2018_Feb_23_1136,59.9974021556,FEMA4ImagesEEG,001,103206,
AFSA25.JPG,AFNE24.JPG,AFSA24.JPG,AFNE21.JPG,AFSA21.JPG,AFNE25.JPG,,,,,,,,,,,,,,,,,0,1,1,2,,,,,,,AFSA10.jpg,AFNE10.jpg,AFNE02.jpg,AFSA13.jpg,AFNE02.jpg,FN,3,num_2,16,num_2,1.86666371592,,,2018_Feb_23_1136,59.9974021556,FEMA4ImagesEEG,001,103206,
AMNE23.JPG,AMNE24.JPG,AMNE22.JPG,AMSA24.JPG,AMSA22.JPG,AMSA23.JPG,,,,,,,,,,,,,,,,,0,2,2,9,,,,,,,AFSA15.jpg,AFNE15.jpg,AFNE12.jpg,AFSA02.jpg,AFNE12.jpg,FN,3,num_2,16,num_2,1.48339775368,,,2018_Feb_23_1136,59.9974021556,FEMA4ImagesEEG,001,103206,
AFSA21.JPG,AFNE23.JPG,AFNE21.JPG,AFSA25.JPG,AFNE25.JPG,AFSA23.JPG,,,,,,,,,,,,,,,,,0,3,3,4,,,,,,,AFNE13.jpg,AFNE17.jpg,AFSA11.jpg,AFSA06.jpg,AFSA06.jpg,FS,4,num_4,32,num_6,1.63343491126,,,2018_Feb_23_1136,59.9974021556,FEMA4ImagesEEG,001,103206,
AMSA21.JPG,AMNE23.JPG,AMNE21.JPG,AMSA25.JPG,AMNE25.JPG,AMSA23.JPG,,,,,,,,,,,,,,,,,0,4,4,5,,,,,,,AFSA13.jpg,AFNE15.jpg,AFNE05.jpg,AFSA04.jpg,AFNE15.jpg,FN,3,num_6,16,num_6,1.28342283552,,,2018_Feb_23_1136,59.9974021556,FEMA4ImagesEEG,001,103206,
AFSA21.JPG,AFNE22.JPG,AFNE21.JPG,AFSA23.JPG,AFSA22.JPG,AFNE23.JPG,,,,,,,,,,,,,,,,,0,5,5,0,,,,,,,AFNE06.jpg,AFSA12.jpg,AFNE13.jpg,AFSA08.jpg,AFNE13.jpg,FN,3,num_2,32,num_8,1.16684419557,,,2018_Feb_23_1136,59.9974021556,FEMA4ImagesEEG,001,103206,
AMSA25.JPG,AMNE24.JPG,AMSA24.JPG,AMNE26.JPG,AMSA21.JPG,AMNE25.JPG,,,,,,,,,,,,,,,,,0,6,6,3,,,,,,,AFNE14.jpg,AFSA19.jpg,AFSA16.jpg,AFNE06.jpg,AFSA19.jpg,FS,4,num_6,32,num_4,1.3334327623,,,2018_Feb_23_1136,59.9974021556,FEMA4ImagesEEG,001,103206,
AFNE23.JPG,AFNE24.JPG,AFNE22.JPG,AFSA24.JPG,AFSA22.JPG,AFSA23.JPG,,,,,,,,,,,,,,,,,0,7,7,8,,,,,,,AFNE08.jpg,AFNE12.jpg,AFSA20.jpg,AFSA05.jpg,AFSA20.jpg,FS,4,num_2,32,num_8,2.31667415588,,,2018_Feb_23_1136,59.9974021556,FEMA4ImagesEEG,001,103206,
AFNE22.JPG,AFSA24.JPG,AFSA22.JPG,AFNE25.JPG,AFNE24.JPG,AFSA25.JPG,,,,,,,,,,,,,,,,,0,8,8,6,,,,,,,AFNE08.jpg,AFNE07.jpg,AFSA10.jpg,AFSA13.jpg,AFNE08.jpg,FN,3,num_8,32,num_2,1.41674436571,,,2018_Feb_23_1136,59.9974021556,FEMA4ImagesEEG,001,103206,
AMSA21.JPG,AMNE22.JPG,AMNE21.JPG,AMSA23.JPG,AMSA22.JPG,AMNE23.JPG,,,,,,,,,,,,,,,,,0,9,9,1,,,,,,,AFSA20.jpg,AFSA07.jpg,AFNE02.jpg,AFNE01.jpg,AFNE02.jpg,FN,3,num_2,32,num_6,1.28343823098,,,2018_Feb_23_1136,59.9974021556,FEMA4ImagesEEG,001,103206,
AFNE23.JPG,AFNE24.JPG,AFNE22.JPG,AFSA24.JPG,AFSA22.JPG,AFSA23.JPG,,,,,,,,,,,,,,,,,,,,,0,0,0,8,,,AMNE02.jpg,AMNE05.jpg,AMSA17.jpg,AMSA16.jpg,AMNE05.jpg,MN,1,num_6,32,num_4,1.55006749951,,,2018_Feb_23_1136,59.9974021556,FEMA4ImagesEEG,001,103206,
AMSA21.JPG,AMNE23.JPG,AMNE21.JPG,AMSA25.JPG,AMNE25.JPG,AMSA23.JPG,,,,,,,,,,,,,,,,,,,,,0,1,1,5,,,AMNE19.jpg,AMSA12.jpg,AMSA10.jpg,AMNE04.jpg,AMSA10.jpg,MS,2,num_2,32,num_6,0.883457924356,,,2018_Feb_23_1136,59.9974021556,FEMA4ImagesEEG,001,103206,
AFSA21.JPG,AFNE22.JPG,AFNE21.JPG,AFSA23.JPG,AFSA22.JPG,AFNE23.JPG,,,,,,,,,,,,,,,,,,,,,0,2,2,0,,,AMSA06.jpg,AMSA02.jpg,AMNE15.jpg,AMNE07.jpg,AMNE07.jpg,MN,1,num_4,16,num_4,1.43339231727,,,2018_Feb_23_1136,59.9974021556,FEMA4ImagesEEG,001,103206,
AFSA25.JPG,AFNE24.JPG,AFSA24.JPG,AFNE21.JPG,AFSA21.JPG,AFNE25.JPG,,,,,,,,,,,,,,,,,,,,,0,3,3,2,,,AMSA01.jpg,AMNE16.jpg,AMSA04.jpg,AMNE17.jpg,AMSA01.jpg,MS,2,num_8,16,num_8,1.05018986133,,,2018_Feb_23_1136,59.9974021556,FEMA4ImagesEEG,001,103206,
AMSA25.JPG,AMNE24.JPG,AMSA24.JPG,AMNE26.JPG,AMSA21.JPG,AMNE25.JPG,,,,,,,,,,,,,,,,,,,,,0,4,4,3,,,AMNE01.jpg,AMNE13.jpg,AMSA10.jpg,AMSA09.jpg,AMNE13.jpg,MN,1,num_6,16,num_6,1.13342288358,,,2018_Feb_23_1136,59.9974021556,FEMA4ImagesEEG,001,103206,
AMSA21.JPG,AMNE22.JPG,AMNE21.JPG,AMSA23.JPG,AMSA22.JPG,AMNE23.JPG,,,,,,,,,,,,,,,,,,,,,0,5,5,1,,,AMNE08.jpg,AMNE03.jpg,AMSA16.jpg,AMSA11.jpg,AMSA16.jpg,MS,2,num_2,16,num_2,1.11672521755,,,2018_Feb_23_1136,59.9974021556,FEMA4ImagesEEG,001,103206,
AMNE22.JPG,AMSA24.JPG,AMSA22.JPG,AMNE25.JPG,AMNE24.JPG,AMSA25.JPG,,,,,,,,,,,,,,,,,,,,,0,6,6,7,,,AMNE08.jpg,AMSA03.jpg,AMSA13.jpg,AMNE04.jpg,AMNE08.jpg,MN,1,num_8,32,num_4,0.950118048,,,2018_Feb_23_1136,59.9974021556,FEMA4ImagesEEG,001,103206,
AFSA21.JPG,AFNE23.JPG,AFNE21.JPG,AFSA25.JPG,AFNE25.JPG,AFSA23.JPG,,,,,,,,,,,,,,,,,,,,,0,7,7,4,,,AMSA02.jpg,AMNE09.jpg,AMSA05.jpg,AMNE06.jpg,AMNE09.jpg,MN,1,num_6,16,num_6,0.816765726893,,,2018_Feb_23_1136,59.9974021556,FEMA4ImagesEEG,001,103206,
AMNE23.JPG,AMNE24.JPG,AMNE22.JPG,AMSA24.JPG,AMSA22.JPG,AMSA23.JPG,,,,,,,,,,,,,,,,,,,,,0,8,8,9,,,AMNE03.jpg,AMSA09.jpg,AMNE08.jpg,AMSA15.jpg,AMNE03.jpg,MN,1,num_8,16,num_8,1.48318446241,,,2018_Feb_23_1136,59.9974021556,FEMA4ImagesEEG,001,103206,
AFNE22.JPG,AFSA24.JPG,AFSA22.JPG,AFNE25.JPG,AFNE24.JPG,AFSA25.JPG,,,,,,,,,,,,,,,,,,,,,0,9,9,6,,,AMNE20.jpg,AMSA09.jpg,AMSA10.jpg,AMNE11.jpg,AMNE11.jpg,MN,1,num_4,16,num_4,1.06660976761,,,2018_Feb_23_1136,59.9974021556,FEMA4ImagesEEG,001,103206,
,,,,,,,,,,,,,,,,,,,,,,,,,,,,,,,,,,,,,,,,,,,space,9.79968766437,2018_Feb_23_1136,59.9974021556,FEMA4ImagesEEG,001,103206,
AFNE01.JPG,AFNE01.JPG,AFNE01.JPG,AFNE01.JPG,AFNE01.JPG,AFNE01.JPG,0,0,0,2,,,,,,,,,,,,,,,,,,,,,,,AFNE13.jpg,AFSA06.jpg,AFSA07.jpg,AFNE16.jpg,AFNE16.jpg,FN,3,num_4,32,num_6,1.33343949798,,,2018_Feb_23_1136,59.9974021556,FEMA4ImagesEEG,001,103206,
AFNE01.JPG,AFNE01.JPG,AFNE01.JPG,AFNE01.JPG,AFNE01.JPG,AFNE01.JPG,0,1,1,8,,,,,,,,,,,,,,,,,,,,,,,AFNE11.jpg,AFNE12.jpg,AFSA19.jpg,AFSA15.jpg,AFNE11.jpg,FN,3,num_8,16,num_8,1.40014516632,,,2018_Feb_23_1136,59.9974021556,FEMA4ImagesEEG,001,103206,
AFNE01.JPG,AFNE01.JPG,AFNE01.JPG,AFNE01.JPG,AFNE01.JPG,AFNE01.JPG,0,2,2,3,,,,,,,,,,,,,,,,,,,,,,,AFNE18.jpg,AFSA18.jpg,AFSA04.jpg,AFNE17.jpg,AFSA04.jpg,FS,4,num_2,32,num_6,1.46670137066,,,2018_Feb_23_1136,59.9974021556,FEMA4ImagesEEG,001,103206,
AFNE01.JPG,AFNE01.JPG,AFNE01.JPG,AFNE01.JPG,AFNE01.JPG,AFNE01.JPG,0,3,3,9,,,,,,,,,,,,,,,,,,,,,,,AFSA13.jpg,AFNE15.jpg,AFSA09.jpg,AFNE17.jpg,AFNE15.jpg,FN,3,num_6,16,num_6,0.683575699688,,,2018_Feb_23_1136,59.9974021556,FEMA4ImagesEEG,001,103206,
AFNE01.JPG,AFNE01.JPG,AFNE01.JPG,AFNE01.JPG,AFNE01.JPG,AFNE01.JPG,0,4,4,1,,,,,,,,,,,,,,,,,,,,,,,AFSA13.jpg,AFSA01.jpg,AFNE05.jpg,AFNE07.jpg,AFSA13.jpg,FS,4,num_8,32,num_6,1.51675876684,,,2018_Feb_23_1136,59.9974021556,FEMA4ImagesEEG,001,103206,
AFNE01.JPG,AFNE01.JPG,AFNE01.JPG,AFNE01.JPG,AFNE01.JPG,AFNE01.JPG,0,5,5,0,,,,,,,,,,,,,,,,,,,,,,,AFSA16.jpg,AFNE08.jpg,AFSA07.jpg,AFNE11.jpg,AFSA16.jpg,FS,4,num_8,16,num_8,1.03349315748,,,2018_Feb_23_1136,59.9974021556,FEMA4ImagesEEG,001,103206,
AFNE01.JPG,AFNE01.JPG,AFNE01.JPG,AFNE01.JPG,AFNE01.JPG,AFNE01.JPG,0,6,6,6,,,,,,,,,,,,,,,,,,,,,,,AFNE07.jpg,AFSA06.jpg,AFNE02.jpg,AFSA08.jpg,AFNE02.jpg,FN,3,num_2,32,num_6,2.25002525817,,,2018_Feb_23_1136,59.9974021556,FEMA4ImagesEEG,001,103206,
AFNE01.JPG,AFNE01.JPG,AFNE01.JPG,AFNE01.JPG,AFNE01.JPG,AFNE01.JPG,0,7,7,7,,,,,,,,,,,,,,,,,,,,,,,AFSA08.jpg,AFNE17.jpg,AFSA18.jpg,AFNE05.jpg,AFSA18.jpg,FS,4,num_2,32,num_4,1.28343309916,,,2018_Feb_23_1136,59.9974021556,FEMA4ImagesEEG,001,103206,
AFNE01.JPG,AFNE01.JPG,AFNE01.JPG,AFNE01.JPG,AFNE01.JPG,AFNE01.JPG,0,8,8,4,,,,,,,,,,,,,,,,,,,,,,,AFSA03.jpg,AFNE15.jpg,AFNE02.jpg,AFSA11.jpg,AFSA03.jpg,FS,4,num_8,32,num_2,1.63341342181,,,2018_Feb_23_1136,59.9974021556,FEMA4ImagesEEG,001,103206,
AFNE01.JPG,AFNE01.JPG,AFNE01.JPG,AFNE01.JPG,AFNE01.JPG,AFNE01.JPG,0,9,9,5,,,,,,,,,,,,,,,,,,,,,,,AFNE16.jpg,AFSA01.jpg,AFSA20.jpg,AFNE07.jpg,AFSA01.jpg,FS,4,num_6,16,num_6,0.78344673058,,,2018_Feb_23_1136,59.9974021556,FEMA4ImagesEEG,001,103206,
AFNE01.JPG,AFNE01.JPG,AFNE01.JPG,AFNE01.JPG,AFNE01.JPG,AFNE01.JPG,1,0,10,8,,,,,,,,,,,,,,,,,,,,,,,AFNE16.jpg,AFSA10.jpg,AFNE12.jpg,AFSA09.jpg,AFSA09.jpg,FS,4,num_4,16,num_4,3.23326857609,,,2018_Feb_23_1136,59.9974021556,FEMA4ImagesEEG,001,103206,
AFNE01.JPG,AFNE01.JPG,AFNE01.JPG,AFNE01.JPG,AFNE01.JPG,AFNE01.JPG,1,1,11,3,,,,,,,,,,,,,,,,,,,,,,,AFSA06.jpg,AFSA20.jpg,AFNE13.jpg,AFNE05.jpg,AFNE05.jpg,FN,3,num_4,32,num_6,2.5833056696,,,2018_Feb_23_1136,59.9974021556,FEMA4ImagesEEG,001,103206,
AFNE01.JPG,AFNE01.JPG,AFNE01.JPG,AFNE01.JPG,AFNE01.JPG,AFNE01.JPG,1,2,12,0,,,,,,,,,,,,,,,,,,,,,,,AFSA03.jpg,AFNE05.jpg,AFSA01.jpg,AFNE18.jpg,AFNE18.jpg,FN,3,num_4,16,num_4,0.883476206451,,,2018_Feb_23_1136,59.9974021556,FEMA4ImagesEEG,001,103206,
AFNE01.JPG,AFNE01.JPG,AFNE01.JPG,AFNE01.JPG,AFNE01.JPG,AFNE01.JPG,1,3,13,1,,,,,,,,,,,,,,,,,,,,,,,AFSA02.jpg,AFNE14.jpg,AFSA15.jpg,AFNE08.jpg,AFSA02.jpg,FS,4,num_8,16,num_8,2.69998149341,,,2018_Feb_23_1136,59.9974021556,FEMA4ImagesEEG,001,103206,
AFNE01.JPG,AFNE01.JPG,AFNE01.JPG,AFNE01.JPG,AFNE01.JPG,AFNE01.JPG,1,4,14,6,,,,,,,,,,,,,,,,,,,,,,,AFSA13.jpg,AFNE02.jpg,AFSA03.jpg,AFNE06.jpg,AFNE06.jpg,FN,3,num_4,16,num_4,1.03347327176,,,2018_Feb_23_1136,59.9974021556,FEMA4ImagesEEG,001,103206,
AFNE01.JPG,AFNE01.JPG,AFNE01.JPG,AFNE01.JPG,AFNE01.JPG,AFNE01.JPG,1,5,15,9,,,,,,,,,,,,,,,,,,,,,,,AFSA06.jpg,AFSA17.jpg,AFNE07.jpg,AFNE11.jpg,AFNE07.jpg,FN,3,num_2,16,num_2,1.21660715365,,,2018_Feb_23_1136,59.9974021556,FEMA4ImagesEEG,001,103206,
AFNE01.JPG,AFNE01.JPG,AFNE01.JPG,AFNE01.JPG,AFNE01.JPG,AFNE01.JPG,1,6,16,2,,,,,,,,,,,,,,,,,,,,,,,AFSA16.jpg,AFSA19.jpg,AFNE06.jpg,AFNE07.jpg,AFNE07.jpg,FN,3,num_4,16,num_4,1.33343051723,,,2018_Feb_23_1136,59.9974021556,FEMA4ImagesEEG,001,103206,
AFNE01.JPG,AFNE01.JPG,AFNE01.JPG,AFNE01.JPG,AFNE01.JPG,AFNE01.JPG,1,7,17,4,,,,,,,,,,,,,,,,,,,,,,,AFSA12.jpg,AFNE05.jpg,AFNE04.jpg,AFSA14.jpg,AFNE04.jpg,FN,3,num_2,32,num_8,2.86659828515,,,2018_Feb_23_1136,59.9974021556,FEMA4ImagesEEG,001,103206,
AFNE01.JPG,AFNE01.JPG,AFNE01.JPG,AFNE01.JPG,AFNE01.JPG,AFNE01.JPG,1,8,18,5,,,,,,,,,,,,,,,,,,,,,,,AFSA18.jpg,AFNE10.jpg,AFNE01.jpg,AFSA17.jpg,AFNE01.jpg,FN,3,num_2,32,num_6,0.833296929486,,,2018_Feb_23_1136,59.9974021556,FEMA4ImagesEEG,001,103206,
AFNE01.JPG,AFNE01.JPG,AFNE01.JPG,AFNE01.JPG,AFNE01.JPG,AFNE01.JPG,1,9,19,7,,,,,,,,,,,,,,,,,,,,,,,AFNE15.jpg,AFSA06.jpg,AFNE05.jpg,AFSA16.jpg,AFNE05.jpg,FN,3,num_2,32,num_4,0.966815393302,,,2018_Feb_23_1136,59.9974021556,FEMA4ImagesEEG,001,103206,
AFNE01.JPG,AFNE01.JPG,AFNE01.JPG,AFNE01.JPG,AFNE01.JPG,AFNE01.JPG,2,0,20,5,,,,,,,,,,,,,,,,,,,,,,,AFNE08.jpg,AFNE01.jpg,AFSA07.jpg,AFSA03.jpg,AFSA07.jpg,FS,4,num_2,32,num_8,1.20009872341,,,2018_Feb_23_1136,59.9974021556,FEMA4ImagesEEG,001,103206,
AFNE01.JPG,AFNE01.JPG,AFNE01.JPG,AFNE01.JPG,AFNE01.JPG,AFNE01.JPG,2,1,21,4,,,,,,,,,,,,,,,,,,,,,,,AFNE11.jpg,AFSA10.jpg,AFNE19.jpg,AFSA09.jpg,AFNE11.jpg,FN,3,num_8,32,num_4,1.0667585904,,,2018_Feb_23_1136,59.9974021556,FEMA4ImagesEEG,001,103206,
AFNE01.JPG,AFNE01.JPG,AFNE01.JPG,AFNE01.JPG,AFNE01.JPG,AFNE01.JPG,2,2,22,9,,,,,,,,,,,,,,,,,,,,,,,AFSA13.jpg,AFNE14.jpg,AFNE11.jpg,AFSA03.jpg,AFNE14.jpg,FN,3,num_6,16,num_6,1.00007633574,,,2018_Feb_23_1136,59.9974021556,FEMA4ImagesEEG,001,103206,
AFNE01.JPG,AFNE01.JPG,AFNE01.JPG,AFNE01.JPG,AFNE01.JPG,AFNE01.JPG,2,3,23,7,,,,,,,,,,,,,,,,,,,,,,,AFNE13.jpg,AFSA13.jpg,AFNE15.jpg,AFSA01.jpg,AFNE13.jpg,FN,3,num_8,32,num_4,0.850169077516,,,2018_Feb_23_1136,59.9974021556,FEMA4ImagesEEG,001,103206,
AFNE01.JPG,AFNE01.JPG,AFNE01.JPG,AFNE01.JPG,AFNE01.JPG,AFNE01.JPG,2,4,24,3,,,,,,,,,,,,,,,,,,,,,,,AFSA06.jpg,AFNE04.jpg,AFNE09.jpg,AFSA02.jpg,AFNE04.jpg,FN,3,num_6,16,num_6,0.983441213844,,,2018_Feb_23_1136,59.9974021556,FEMA4ImagesEEG,001,103206,
AFNE01.JPG,AFNE01.JPG,AFNE01.JPG,AFNE01.JPG,AFNE01.JPG,AFNE01.JPG,2,5,25,1,,,,,,,,,,,,,,,,,,,,,,,AFSA01.jpg,AFNE01.jpg,AFNE12.jpg,AFSA13.jpg,AFNE01.jpg,FN,3,num_6,32,num_4,1.76670448179,,,2018_Feb_23_1136,59.9974021556,FEMA4ImagesEEG,001,103206,
AFNE01.JPG,AFNE01.JPG,AFNE01.JPG,AFNE01.JPG,AFNE01.JPG,AFNE01.JPG,2,6,26,8,,,,,,,,,,,,,,,,,,,,,,,AFSA19.jpg,AFNE17.jpg,AFSA09.jpg,AFNE02.jpg,AFNE17.jpg,FN,3,num_6,32,num_4,1.16674540809,,,2018_Feb_23_1136,59.9974021556,FEMA4ImagesEEG,001,103206,
AFNE01.JPG,AFNE01.JPG,AFNE01.JPG,AFNE01.JPG,AFNE01.JPG,AFNE01.JPG,2,7,27,0,,,,,,,,,,,,,,,,,,,,,,,AFNE20.jpg,AFNE18.jpg,AFSA20.jpg,AFSA08.jpg,AFSA08.jpg,FS,4,num_4,16,num_4,1.30010414403,,,2018_Feb_23_1136,59.9974021556,FEMA4ImagesEEG,001,103206,
AFNE01.JPG,AFNE01.JPG,AFNE01.JPG,AFNE01.JPG,AFNE01.JPG,AFNE01.JPG,2,8,28,6,,,,,,,,,,,,,,,,,,,,,,,AFSA04.jpg,AFSA15.jpg,AFNE19.jpg,AFNE16.jpg,AFSA04.jpg,FS,4,num_8,16,num_8,2.2499976746,,,2018_Feb_23_1136,59.9974021556,FEMA4ImagesEEG,001,103206,
AFNE01.JPG,AFNE01.JPG,AFNE01.JPG,AFNE01.JPG,AFNE01.JPG,AFNE01.JPG,2,9,29,2,,,,,,,,,,,,,,,,,,,,,,,AFSA14.jpg,AFNE11.jpg,AFNE13.jpg,AFSA03.jpg,AFNE13.jpg,FN,3,num_2,16,num_2,1.61695053661,,,2018_Feb_23_1136,59.9974021556,FEMA4ImagesEEG,001,103206,
AFNE01.JPG,AFNE01.JPG,AFNE01.JPG,AFNE01.JPG,AFNE01.JPG,AFNE01.JPG,3,0,30,9,,,,,,,,,,,,,,,,,,,,,,,AFNE13.jpg,AFNE05.jpg,AFSA19.jpg,AFSA14.jpg,AFSA19.jpg,FS,4,num_2,32,num_4,1.66668879765,,,2018_Feb_23_1136,59.9974021556,FEMA4ImagesEEG,001,103206,
AFNE01.JPG,AFNE01.JPG,AFNE01.JPG,AFNE01.JPG,AFNE01.JPG,AFNE01.JPG,3,1,31,8,,,,,,,,,,,,,,,,,,,,,,,AFSA05.jpg,AFNE06.jpg,AFNE13.jpg,AFSA19.jpg,AFSA05.jpg,FS,4,num_8,32,num_2,1.81671248423,,,2018_Feb_23_1136,59.9974021556,FEMA4ImagesEEG,001,103206,
AFNE01.JPG,AFNE01.JPG,AFNE01.JPG,AFNE01.JPG,AFNE01.JPG,AFNE01.JPG,3,2,32,7,,,,,,,,,,,,,,,,,,,,,,,AFNE13.jpg,AFSA12.jpg,AFSA10.jpg,AFNE17.jpg,AFNE17.jpg,FN,3,num_4,32,num_8,2.35001977347,,,2018_Feb_23_1136,59.9974021556,FEMA4ImagesEEG,001,103206,
AFNE01.JPG,AFNE01.JPG,AFNE01.JPG,AFNE01.JPG,AFNE01.JPG,AFNE01.JPG,3,3,33,1,,,,,,,,,,,,,,,,,,,,,,,AFNE16.jpg,AFNE06.jpg,AFSA14.jpg,AFSA16.jpg,AFNE06.jpg,FN,3,num_6,16,num_6,1.01680639654,,,2018_Feb_23_1136,59.9974021556,FEMA4ImagesEEG,001,103206,
AFNE01.JPG,AFNE01.JPG,AFNE01.JPG,AFNE01.JPG,AFNE01.JPG,AFNE01.JPG,3,4,34,4,,,,,,,,,,,,,,,,,,,,,,,AFSA05.jpg,AFNE13.jpg,AFNE02.jpg,AFSA13.jpg,AFNE02.jpg,FN,3,num_2,32,num_4,1.96669447469,,,2018_Feb_23_1136,59.9974021556,FEMA4ImagesEEG,001,103206,
AFNE01.JPG,AFNE01.JPG,AFNE01.JPG,AFNE01.JPG,AFNE01.JPG,AFNE01.JPG,3,5,35,6,,,,,,,,,,,,,,,,,,,,,,,AFNE09.jpg,AFSA20.jpg,AFNE08.jpg,AFSA09.jpg,AFNE09.jpg,FN,3,num_8,32,num_4,0.866785596707,,,2018_Feb_23_1136,59.9974021556,FEMA4ImagesEEG,001,103206,
AFNE01.JPG,AFNE01.JPG,AFNE01.JPG,AFNE01.JPG,AFNE01.JPG,AFNE01.JPG,3,6,36,5,,,,,,,,,,,,,,,,,,,,,,,AFSA02.jpg,AFNE11.jpg,AFNE19.jpg,AFSA14.jpg,AFSA02.jpg,FS,4,num_8,32,num_6,3.9995875298,,,2018_Feb_23_1136,59.9974021556,FEMA4ImagesEEG,001,103206,
AFNE01.JPG,AFNE01.JPG,AFNE01.JPG,AFNE01.JPG,AFNE01.JPG,AFNE01.JPG,3,7,37,0,,,,,,,,,,,,,,,,,,,,,,,AFNE12.jpg,AFNE13.jpg,AFSA17.jpg,AFSA15.jpg,AFNE12.jpg,FN,3,num_8,16,num_8,2.33330991946,,,2018_Feb_23_1136,59.9974021556,FEMA4ImagesEEG,001,103206,
AFNE01.JPG,AFNE01.JPG,AFNE01.JPG,AFNE01.JPG,AFNE01.JPG,AFNE01.JPG,3,8,38,3,,,,,,,,,,,,,,,,,,,,,,,AFNE19.jpg,AFSA13.jpg,AFNE15.jpg,AFSA04.jpg,AFNE19.jpg,FN,3,num_8,32,num_4,1.10010677401,,,2018_Feb_23_1136,59.9974021556,FEMA4ImagesEEG,001,103206,
AFNE01.JPG,AFNE01.JPG,AFNE01.JPG,AFNE01.JPG,AFNE01.JPG,AFNE01.JPG,3,9,39,2,,,,,,,,,,,,,,,,,,,,,,,AFSA10.jpg,AFNE19.jpg,AFNE06.jpg,AFSA03.jpg,AFSA10.jpg,FS,4,num_8,32,num_2,1.50013551221,,,2018_Feb_23_1136,59.9974021556,FEMA4ImagesEEG,001,103206,
AFNE01.JPG,AFNE01.JPG,AFNE01.JPG,AFNE01.JPG,AFNE01.JPG,AFNE01.JPG,4,0,40,7,,,,,,,,,,,,,,,,,,,,,,,AFSA20.jpg,AFNE08.jpg,AFNE12.jpg,AFSA11.jpg,AFSA11.jpg,FS,4,num_4,16,num_4,1.06662227644,,,2018_Feb_23_1136,59.9974021556,FEMA4ImagesEEG,001,103206,
AFNE01.JPG,AFNE01.JPG,AFNE01.JPG,AFNE01.JPG,AFNE01.JPG,AFNE01.JPG,4,1,41,3,,,,,,,,,,,,,,,,,,,,,,,AFNE01.jpg,AFNE14.jpg,AFSA03.jpg,AFSA11.jpg,AFSA03.jpg,FS,4,num_2,16,num_2,1.70005398034,,,2018_Feb_23_1136,59.9974021556,FEMA4ImagesEEG,001,103206,
AFNE01.JPG,AFNE01.JPG,AFNE01.JPG,AFNE01.JPG,AFNE01.JPG,AFNE01.JPG,4,2,42,0,,,,,,,,,,,,,,,,,,,,,,,AFNE20.jpg,AFSA12.jpg,AFNE15.jpg,AFSA13.jpg,AFNE15.jpg,FN,3,num_2,16,num_2,1.18344147049,,,2018_Feb_23_1136,59.9974021556,FEMA4ImagesEEG,001,103206,
AFNE01.JPG,AFNE01.JPG,AFNE01.JPG,AFNE01.JPG,AFNE01.JPG,AFNE01.JPG,4,3,43,8,,,,,,,,,,,,,,,,,,,,,,,AFSA03.jpg,AFSA01.jpg,AFNE16.jpg,AFNE10.jpg,AFSA03.jpg,FS,4,num_8,32,num_6,0.933525263448,,,2018_Feb_23_1136,59.9974021556,FEMA4ImagesEEG,001,103206,
AFNE01.JPG,AFNE01.JPG,AFNE01.JPG,AFNE01.JPG,AFNE01.JPG,AFNE01.JPG,4,4,44,4,,,,,,,,,,,,,,,,,,,,,,,AFNE16.jpg,AFNE03.jpg,AFSA05.jpg,AFSA08.jpg,AFSA05.jpg,FS,4,num_2,32,num_6,2.76661435422,,,2018_Feb_23_1136,59.9974021556,FEMA4ImagesEEG,001,103206,
AFNE01.JPG,AFNE01.JPG,AFNE01.JPG,AFNE01.JPG,AFNE01.JPG,AFNE01.JPG,4,5,45,1,,,,,,,,,,,,,,,,,,,,,,,AFNE08.jpg,AFNE15.jpg,AFSA06.jpg,AFSA19.jpg,AFNE08.jpg,FN,3,num_8,32,num_4,1.18346937478,,,2018_Feb_23_1136,59.9974021556,FEMA4ImagesEEG,001,103206,
AFNE01.JPG,AFNE01.JPG,AFNE01.JPG,AFNE01.JPG,AFNE01.JPG,AFNE01.JPG,4,6,46,6,,,,,,,,,,,,,,,,,,,,,,,AFNE10.jpg,AFNE07.jpg,AFSA18.jpg,AFSA08.jpg,AFSA08.jpg,FS,4,num_4,16,num_4,1.03345049918,,,2018_Feb_23_1136,59.9974021556,FEMA4ImagesEEG,001,103206,
AFNE01.JPG,AFNE01.JPG,AFNE01.JPG,AFNE01.JPG,AFNE01.JPG,AFNE01.JPG,4,7,47,9,,,,,,,,,,,,,,,,,,,,,,,AFNE17.jpg,AFSA07.jpg,AFNE02.jpg,AFSA15.jpg,AFSA15.jpg,FS,4,num_4,32,num_6,0.850093703833,,,2018_Feb_23_1136,59.9974021556,FEMA4ImagesEEG,001,103206,
AFNE01.JPG,AFNE01.JPG,AFNE01.JPG,AFNE01.JPG,AFNE01.JPG,AFNE01.JPG,4,8,48,2,,,,,,,,,,,,,,,,,,,,,,,AFSA16.jpg,AFNE19.jpg,AFSA19.jpg,AFNE04.jpg,AFSA16.jpg,FS,4,num_8,16,num_8,1.9166749256,,,2018_Feb_23_1136,59.9974021556,FEMA4ImagesEEG,001,103206,
AFNE01.JPG,AFNE01.JPG,AFNE01.JPG,AFNE01.JPG,AFNE01.JPG,AFNE01.JPG,4,9,49,5,,,,,,,,,,,,,,,,,,,,,,,AFSA15.jpg,AFNE20.jpg,AFSA17.jpg,AFNE19.jpg,AFSA17.jpg,FS,4,num_2,16,num_2,1.71669551719,,,2018_Feb_23_1136,59.9974021556,FEMA4ImagesEEG,001,103206,
AFNE01.JPG,AFNE01.JPG,AFNE01.JPG,AFNE01.JPG,AFNE01.JPG,AFNE01.JPG,5,0,50,0,,,,,,,,,,,,,,,,,,,,,,,AFSA04.jpg,AFSA16.jpg,AFNE13.jpg,AFNE01.jpg,AFNE01.jpg,FN,3,num_4,32,num_2,2.88336202339,,,2018_Feb_23_1136,59.9974021556,FEMA4ImagesEEG,001,103206,
AFNE01.JPG,AFNE01.JPG,AFNE01.JPG,AFNE01.JPG,AFNE01.JPG,AFNE01.JPG,5,1,51,7,,,,,,,,,,,,,,,,,,,,,,,AFSA12.jpg,AFSA14.jpg,AFNE16.jpg,AFNE01.jpg,AFSA14.jpg,FS,4,num_6,32,num_2,1.75006134133,,,2018_Feb_23_1136,59.9974021556,FEMA4ImagesEEG,001,103206,
AFNE01.JPG,AFNE01.JPG,AFNE01.JPG,AFNE01.JPG,AFNE01.JPG,AFNE01.JPG,5,2,52,9,,,,,,,,,,,,,,,,,,,,,,,AFNE04.jpg,AFSA02.jpg,AFSA03.jpg,AFNE09.jpg,AFNE04.jpg,FN,3,num_8,32,num_4,1.26673030131,,,2018_Feb_23_1136,59.9974021556,FEMA4ImagesEEG,001,103206,
AFNE01.JPG,AFNE01.JPG,AFNE01.JPG,AFNE01.JPG,AFNE01.JPG,AFNE01.JPG,5,3,53,1,,,,,,,,,,,,,,,,,,,,,,,AFNE13.jpg,AFNE05.jpg,AFSA01.jpg,AFSA04.jpg,AFSA01.jpg,FS,4,num_2,32,num_6,1.03342965117,,,2018_Feb_23_1136,59.9974021556,FEMA4ImagesEEG,001,103206,
AFNE01.JPG,AFNE01.JPG,AFNE01.JPG,AFNE01.JPG,AFNE01.JPG,AFNE01.JPG,5,4,54,6,,,,,,,,,,,,,,,,,,,,,,,AFNE07.jpg,AFSA07.jpg,AFSA18.jpg,AFNE06.jpg,AFNE07.jpg,FN,3,num_8,32,num_4,1.18345045112,,,2018_Feb_23_1136,59.9974021556,FEMA4ImagesEEG,001,103206,
AFNE01.JPG,AFNE01.JPG,AFNE01.JPG,AFNE01.JPG,AFNE01.JPG,AFNE01.JPG,5,5,55,8,,,,,,,,,,,,,,,,,,,,,,,AFNE01.jpg,AFSA05.jpg,AFNE04.jpg,AFSA08.jpg,AFSA08.jpg,FS,4,num_4,16,num_4,1.48354208621,,,2018_Feb_23_1136,59.9974021556,FEMA4ImagesEEG,001,103206,
AFNE01.JPG,AFNE01.JPG,AFNE01.JPG,AFNE01.JPG,AFNE01.JPG,AFNE01.JPG,5,6,56,4,,,,,,,,,,,,,,,,,,,,,,,AFNE08.jpg,AFSA03.jpg,AFNE07.jpg,AFSA12.jpg,AFNE08.jpg,FN,3,num_8,16,num_8,1.7665142836,,,2018_Feb_23_1136,59.9974021556,FEMA4ImagesEEG,001,103206,
AFNE01.JPG,AFNE01.JPG,AFNE01.JPG,AFNE01.JPG,AFNE01.JPG,AFNE01.JPG,5,7,57,3,,,,,,,,,,,,,,,,,,,,,,,AFNE07.jpg,AFNE13.jpg,AFSA01.jpg,AFSA02.jpg,AFNE07.jpg,FN,3,num_8,32,num_6,1.03344536736,,,2018_Feb_23_1136,59.9974021556,FEMA4ImagesEEG,001,103206,
AFNE01.JPG,AFNE01.JPG,AFNE01.JPG,AFNE01.JPG,AFNE01.JPG,AFNE01.JPG,5,8,58,2,,,,,,,,,,,,,,,,,,,,,,,AFSA13.jpg,AFNE15.jpg,AFNE07.jpg,AFSA15.jpg,AFNE15.jpg,FN,3,num_6,16,num_6,1.03348032804,,,2018_Feb_23_1136,59.9974021556,FEMA4ImagesEEG,001,103206,
AFNE01.JPG,AFNE01.JPG,AFNE01.JPG,AFNE01.JPG,AFNE01.JPG,AFNE01.JPG,5,9,59,5,,,,,,,,,,,,,,,,,,,,,,,AFNE09.jpg,AFSA11.jpg,AFNE13.jpg,AFSA09.jpg,AFSA11.jpg,FS,4,num_6,32,num_4,1.21675758006,,,2018_Feb_23_1136,59.9974021556,FEMA4ImagesEEG,001,103206,
,,,,,,,,,,,,,,,,,,,,,,,,,,,,,,,,,,,,,,,,,,,space,10.8659677125,2018_Feb_23_1136,59.9974021556,FEMA4ImagesEEG,001,103206,
AFNE01.JPG,AFNE01.JPG,AFNE01.JPG,AFNE01.JPG,AFNE01.JPG,AFNE01.JPG,,,,,0,0,0,0,,,,,,,,,,,,,,,,,,,AMNE12.jpg,AMSA14.jpg,AMSA03.jpg,AMNE11.jpg,AMNE11.jpg,MN,1,num_4,16,num_4,0.866769880406,,,2018_Feb_23_1136,59.9974021556,FEMA4ImagesEEG,001,103206,
AFNE01.JPG,AFNE01.JPG,AFNE01.JPG,AFNE01.JPG,AFNE01.JPG,AFNE01.JPG,,,,,0,1,1,5,,,,,,,,,,,,,,,,,,,AMSA05.jpg,AMNE03.jpg,AMSA13.jpg,AMNE06.jpg,AMNE03.jpg,MN,1,num_6,16,num_6,0.950163913658,,,2018_Feb_23_1136,59.9974021556,FEMA4ImagesEEG,001,103206,
AFNE01.JPG,AFNE01.JPG,AFNE01.JPG,AFNE01.JPG,AFNE01.JPG,AFNE01.JPG,,,,,0,2,2,4,,,,,,,,,,,,,,,,,,,AMNE20.jpg,AMSA15.jpg,AMNE19.jpg,AMSA05.jpg,AMNE20.jpg,MN,1,num_8,16,num_8,1.18340843439,,,2018_Feb_23_1136,59.9974021556,FEMA4ImagesEEG,001,103206,
AFNE01.JPG,AFNE01.JPG,AFNE01.JPG,AFNE01.JPG,AFNE01.JPG,AFNE01.JPG,,,,,0,3,3,7,,,,,,,,,,,,,,,,,,,AMNE04.jpg,AMSA06.jpg,AMNE13.jpg,AMSA18.jpg,AMSA18.jpg,MS,2,num_4,16,num_4,0.966794224456,,,2018_Feb_23_1136,59.9974021556,FEMA4ImagesEEG,001,103206,
AFNE01.JPG,AFNE01.JPG,AFNE01.JPG,AFNE01.JPG,AFNE01.JPG,AFNE01.JPG,,,,,0,4,4,2,,,,,,,,,,,,,,,,,,,AMNE20.jpg,AMSA07.jpg,AMSA02.jpg,AMNE16.jpg,AMNE20.jpg,MN,1,num_8,32,num_6,0.933484529611,,,2018_Feb_23_1136,59.9974021556,FEMA4ImagesEEG,001,103206,
AFNE01.JPG,AFNE01.JPG,AFNE01.JPG,AFNE01.JPG,AFNE01.JPG,AFNE01.JPG,,,,,0,5,5,1,,,,,,,,,,,,,,,,,,,AMNE08.jpg,AMSA08.jpg,AMSA12.jpg,AMNE12.jpg,AMSA12.jpg,MS,2,num_2,32,num_8,1.28336542321,,,2018_Feb_23_1136,59.9974021556,FEMA4ImagesEEG,001,103206,
AFNE01.JPG,AFNE01.JPG,AFNE01.JPG,AFNE01.JPG,AFNE01.JPG,AFNE01.JPG,,,,,0,6,6,6,,,,,,,,,,,,,,,,,,,AMSA11.jpg,AMNE12.jpg,AMSA12.jpg,AMNE19.jpg,AMNE12.jpg,MN,1,num_6,32,num_4,0.833482958027,,,2018_Feb_23_1136,59.9974021556,FEMA4ImagesEEG,001,103206,
AFNE01.JPG,AFNE01.JPG,AFNE01.JPG,AFNE01.JPG,AFNE01.JPG,AFNE01.JPG,,,,,0,7,7,9,,,,,,,,,,,,,,,,,,,AMSA15.jpg,AMNE14.jpg,AMNE09.jpg,AMSA02.jpg,AMNE14.jpg,MN,1,num_6,32,num_4,1.15012568154,,,2018_Feb_23_1136,59.9974021556,FEMA4ImagesEEG,001,103206,
AFNE01.JPG,AFNE01.JPG,AFNE01.JPG,AFNE01.JPG,AFNE01.JPG,AFNE01.JPG,,,,,0,8,8,3,,,,,,,,,,,,,,,,,,,AMSA01.jpg,AMSA09.jpg,AMNE20.jpg,AMNE05.jpg,AMSA09.jpg,MS,2,num_6,32,num_8,2.3498369524,,,2018_Feb_23_1136,59.9974021556,FEMA4ImagesEEG,001,103206,
AFNE01.JPG,AFNE01.JPG,AFNE01.JPG,AFNE01.JPG,AFNE01.JPG,AFNE01.JPG,,,,,0,9,9,8,,,,,,,,,,,,,,,,,,,AMNE09.jpg,AMSA02.jpg,AMSA07.jpg,AMNE16.jpg,AMNE09.jpg,MN,1,num_8,32,num_4,0.883572428138,,,2018_Feb_23_1136,59.9974021556,FEMA4ImagesEEG,001,103206,
AFNE01.JPG,AFNE01.JPG,AFNE01.JPG,AFNE01.JPG,AFNE01.JPG,AFNE01.JPG,,,,,1,0,10,1,,,,,,,,,,,,,,,,,,,AMSA13.jpg,AMNE07.jpg,AMSA02.jpg,AMNE05.jpg,AMSA13.jpg,MS,2,num_8,32,num_6,0.866758013144,,,2018_Feb_23_1136,59.9974021556,FEMA4ImagesEEG,001,103206,
AFNE01.JPG,AFNE01.JPG,AFNE01.JPG,AFNE01.JPG,AFNE01.JPG,AFNE01.JPG,,,,,1,1,11,9,,,,,,,,,,,,,,,,,,,AMNE03.jpg,AMSA14.jpg,AMNE01.jpg,AMSA15.jpg,AMNE03.jpg,MN,1,num_8,32,num_4,1.76667850197,,,2018_Feb_23_1136,59.9974021556,FEMA4ImagesEEG,001,103206,
AFNE01.JPG,AFNE01.JPG,AFNE01.JPG,AFNE01.JPG,AFNE01.JPG,AFNE01.JPG,,,,,1,2,12,8,,,,,,,,,,,,,,,,,,,AMNE05.jpg,AMNE18.jpg,AMSA10.jpg,AMSA02.jpg,AMNE18.jpg,MN,1,num_6,16,num_6,2.93335944146,,,2018_Feb_23_1136,59.9974021556,FEMA4ImagesEEG,001,103206,
AFNE01.JPG,AFNE01.JPG,AFNE01.JPG,AFNE01.JPG,AFNE01.JPG,AFNE01.JPG,,,,,1,3,13,6,,,,,,,,,,,,,,,,,,,AMNE08.jpg,AMSA16.jpg,AMSA18.jpg,AMNE02.jpg,AMNE08.jpg,MN,1,num_8,32,num_4,1.18339817075,,,2018_Feb_23_1136,59.9974021556,FEMA4ImagesEEG,001,103206,
AFNE01.JPG,AFNE01.JPG,AFNE01.JPG,AFNE01.JPG,AFNE01.JPG,AFNE01.JPG,,,,,1,4,14,4,,,,,,,,,,,,,,,,,,,AMNE09.jpg,AMNE14.jpg,AMSA10.jpg,AMSA01.jpg,AMSA10.jpg,MS,2,num_2,16,num_2,1.18343762157,,,2018_Feb_23_1136,59.9974021556,FEMA4ImagesEEG,001,103206,
AFNE01.JPG,AFNE01.JPG,AFNE01.JPG,AFNE01.JPG,AFNE01.JPG,AFNE01.JPG,,,,,1,5,15,0,,,,,,,,,,,,,,,,,,,AMNE02.jpg,AMSA14.jpg,AMSA20.jpg,AMNE12.jpg,AMNE12.jpg,MN,1,num_4,16,num_4,0.766805514577,,,2018_Feb_23_1136,59.9974021556,FEMA4ImagesEEG,001,103206,
AFNE01.JPG,AFNE01.JPG,AFNE01.JPG,AFNE01.JPG,AFNE01.JPG,AFNE01.JPG,,,,,1,6,16,2,,,,,,,,,,,,,,,,,,,AMSA20.jpg,AMNE20.jpg,AMNE10.jpg,AMSA09.jpg,AMNE10.jpg,MN,1,num_2,32,num_4,1.70029293082,,,2018_Feb_23_1136,59.9974021556,FEMA4ImagesEEG,001,103206,
AFNE01.JPG,AFNE01.JPG,AFNE01.JPG,AFNE01.JPG,AFNE01.JPG,AFNE01.JPG,,,,,1,7,17,5,,,,,,,,,,,,,,,,,,,AMSA02.jpg,AMNE18.jpg,AMSA04.jpg,AMNE08.jpg,AMNE18.jpg,MN,1,num_6,16,num_6,0.816606319626,,,2018_Feb_23_1136,59.9974021556,FEMA4ImagesEEG,001,103206,
AFNE01.JPG,AFNE01.JPG,AFNE01.JPG,AFNE01.JPG,AFNE01.JPG,AFNE01.JPG,,,,,1,8,18,3,,,,,,,,,,,,,,,,,,,AMSA17.jpg,AMNE02.jpg,AMNE14.jpg,AMSA04.jpg,AMSA04.jpg,MS,2,num_4,32,num_6,1.26686276647,,,2018_Feb_23_1136,59.9974021556,FEMA4ImagesEEG,001,103206,
AFNE01.JPG,AFNE01.JPG,AFNE01.JPG,AFNE01.JPG,AFNE01.JPG,AFNE01.JPG,,,,,1,9,19,7,,,,,,,,,,,,,,,,,,,AMNE12.jpg,AMNE02.jpg,AMSA14.jpg,AMSA04.jpg,AMSA04.jpg,MS,2,num_4,16,num_4,0.866786238155,,,2018_Feb_23_1136,59.9974021556,FEMA4ImagesEEG,001,103206,
AFNE01.JPG,AFNE01.JPG,AFNE01.JPG,AFNE01.JPG,AFNE01.JPG,AFNE01.JPG,,,,,2,0,20,2,,,,,,,,,,,,,,,,,,,AMNE10.jpg,AMSA16.jpg,AMSA11.jpg,AMNE18.jpg,AMSA16.jpg,MS,2,num_6,32,num_8,1.31672836083,,,2018_Feb_23_1136,59.9974021556,FEMA4ImagesEEG,001,103206,
AFNE01.JPG,AFNE01.JPG,AFNE01.JPG,AFNE01.JPG,AFNE01.JPG,AFNE01.JPG,,,,,2,1,21,0,,,,,,,,,,,,,,,,,,,AMNE12.jpg,AMNE17.jpg,AMSA02.jpg,AMSA12.jpg,AMNE12.jpg,MN,1,num_8,32,num_4,0.916801296873,,,2018_Feb_23_1136,59.9974021556,FEMA4ImagesEEG,001,103206,
AFNE01.JPG,AFNE01.JPG,AFNE01.JPG,AFNE01.JPG,AFNE01.JPG,AFNE01.JPG,,,,,2,2,22,6,,,,,,,,,,,,,,,,,,,AMNE10.jpg,AMNE19.jpg,AMSA13.jpg,AMSA10.jpg,AMSA13.jpg,MS,2,num_2,32,num_6,1.26671779237,,,2018_Feb_23_1136,59.9974021556,FEMA4ImagesEEG,001,103206,
AFNE01.JPG,AFNE01.JPG,AFNE01.JPG,AFNE01.JPG,AFNE01.JPG,AFNE01.JPG,,,,,2,3,23,3,,,,,,,,,,,,,,,,,,,AMNE11.jpg,AMSA03.jpg,AMNE16.jpg,AMSA10.jpg,AMNE16.jpg,MN,1,num_2,16,num_2,1.05017029634,,,2018_Feb_23_1136,59.9974021556,FEMA4ImagesEEG,001,103206,
AFNE01.JPG,AFNE01.JPG,AFNE01.JPG,AFNE01.JPG,AFNE01.JPG,AFNE01.JPG,,,,,2,4,24,7,,,,,,,,,,,,,,,,,,,AMSA08.jpg,AMNE05.jpg,AMNE18.jpg,AMSA10.jpg,AMSA08.jpg,MS,2,num_8,32,num_6,2.03336967307,,,2018_Feb_23_1136,59.9974021556,FEMA4ImagesEEG,001,103206,
AFNE01.JPG,AFNE01.JPG,AFNE01.JPG,AFNE01.JPG,AFNE01.JPG,AFNE01.JPG,,,,,2,5,25,1,,,,,,,,,,,,,,,,,,,AMSA08.jpg,AMNE08.jpg,AMSA06.jpg,AMNE06.jpg,AMSA06.jpg,MS,2,num_2,32,num_4,1.18342671648,,,2018_Feb_23_1136,59.9974021556,FEMA4ImagesEEG,001,103206,
AFNE01.JPG,AFNE01.JPG,AFNE01.JPG,AFNE01.JPG,AFNE01.JPG,AFNE01.JPG,,,,,2,6,26,8,,,,,,,,,,,,,,,,,,,AMNE13.jpg,AMSA07.jpg,AMSA11.jpg,AMNE06.jpg,AMNE06.jpg,MN,1,num_4,16,num_4,1.15011477645,,,2018_Feb_23_1136,59.9974021556,FEMA4ImagesEEG,001,103206,
AFNE01.JPG,AFNE01.JPG,AFNE01.JPG,AFNE01.JPG,AFNE01.JPG,AFNE01.JPG,,,,,2,7,27,5,,,,,,,,,,,,,,,,,,,AMNE05.jpg,AMSA05.jpg,AMNE07.jpg,AMSA16.jpg,AMNE05.jpg,MN,1,num_8,16,num_8,1.43350329285,,,2018_Feb_23_1136,59.9974021556,FEMA4ImagesEEG,001,103206,
AFNE01.JPG,AFNE01.JPG,AFNE01.JPG,AFNE01.JPG,AFNE01.JPG,AFNE01.JPG,,,,,2,8,28,4,,,,,,,,,,,,,,,,,,,AMNE04.jpg,AMNE01.jpg,AMSA09.jpg,AMSA17.jpg,AMSA09.jpg,MS,2,num_2,16,num_2,0.866733316216,,,2018_Feb_23_1136,59.9974021556,FEMA4ImagesEEG,001,103206,
AFNE01.JPG,AFNE01.JPG,AFNE01.JPG,AFNE01.JPG,AFNE01.JPG,AFNE01.JPG,,,,,2,9,29,9,,,,,,,,,,,,,,,,,,,AMSA08.jpg,AMSA02.jpg,AMNE01.jpg,AMNE18.jpg,AMSA02.jpg,MS,2,num_6,16,num_6,0.783422995941,,,2018_Feb_23_1136,59.9974021556,FEMA4ImagesEEG,001,103206,
AFNE01.JPG,AFNE01.JPG,AFNE01.JPG,AFNE01.JPG,AFNE01.JPG,AFNE01.JPG,,,,,3,0,30,6,,,,,,,,,,,,,,,,,,,AMNE04.jpg,AMNE15.jpg,AMSA09.jpg,AMSA06.jpg,AMNE04.jpg,MN,1,num_8,32,num_4,1.55008738535,,,2018_Feb_23_1136,59.9974021556,FEMA4ImagesEEG,001,103206,
AFNE01.JPG,AFNE01.JPG,AFNE01.JPG,AFNE01.JPG,AFNE01.JPG,AFNE01.JPG,,,,,3,1,31,9,,,,,,,,,,,,,,,,,,,AMNE02.jpg,AMSA13.jpg,AMNE17.jpg,AMSA12.jpg,AMNE02.jpg,MN,1,num_8,16,num_8,0.966631930671,,,2018_Feb_23_1136,59.9974021556,FEMA4ImagesEEG,001,103206,
AFNE01.JPG,AFNE01.JPG,AFNE01.JPG,AFNE01.JPG,AFNE01.JPG,AFNE01.JPG,,,,,3,2,32,5,,,,,,,,,,,,,,,,,,,AMNE13.jpg,AMSA10.jpg,AMNE14.jpg,AMSA08.jpg,AMSA10.jpg,MS,2,num_6,16,num_6,1.08345465281,,,2018_Feb_23_1136,59.9974021556,FEMA4ImagesEEG,001,103206,
AFNE01.JPG,AFNE01.JPG,AFNE01.JPG,AFNE01.JPG,AFNE01.JPG,AFNE01.JPG,,,,,3,3,33,2,,,,,,,,,,,,,,,,,,,AMNE02.jpg,AMSA03.jpg,AMNE10.jpg,AMSA16.jpg,AMNE02.jpg,MN,1,num_8,16,num_8,0.98344955314,,,2018_Feb_23_1136,59.9974021556,FEMA4ImagesEEG,001,103206,
AFNE01.JPG,AFNE01.JPG,AFNE01.JPG,AFNE01.JPG,AFNE01.JPG,AFNE01.JPG,,,,,3,4,34,0,,,,,,,,,,,,,,,,,,,AMNE20.jpg,AMSA14.jpg,AMSA02.jpg,AMNE12.jpg,AMSA14.jpg,MS,2,num_6,16,num_6,1.56661345612,,,2018_Feb_23_1136,59.9974021556,FEMA4ImagesEEG,001,103206,
AFNE01.JPG,AFNE01.JPG,AFNE01.JPG,AFNE01.JPG,AFNE01.JPG,AFNE01.JPG,,,,,3,5,35,7,,,,,,,,,,,,,,,,,,,AMSA18.jpg,AMNE01.jpg,AMSA16.jpg,AMNE19.jpg,AMNE19.jpg,MN,1,num_4,16,num_4,0.933204524685,,,2018_Feb_23_1136,59.9974021556,FEMA4ImagesEEG,001,103206,
AFNE01.JPG,AFNE01.JPG,AFNE01.JPG,AFNE01.JPG,AFNE01.JPG,AFNE01.JPG,,,,,3,6,36,4,,,,,,,,,,,,,,,,,,,AMNE12.jpg,AMSA05.jpg,AMSA07.jpg,AMNE14.jpg,AMSA05.jpg,MS,2,num_6,32,num_8,1.85002185835,,,2018_Feb_23_1136,59.9974021556,FEMA4ImagesEEG,001,103206,
AFNE01.JPG,AFNE01.JPG,AFNE01.JPG,AFNE01.JPG,AFNE01.JPG,AFNE01.JPG,,,,,3,7,37,8,,,,,,,,,,,,,,,,,,,AMNE09.jpg,AMSA03.jpg,AMNE05.jpg,AMSA12.jpg,AMNE09.jpg,MN,1,num_8,16,num_8,1.00018859445,,,2018_Feb_23_1136,59.9974021556,FEMA4ImagesEEG,001,103206,
AFNE01.JPG,AFNE01.JPG,AFNE01.JPG,AFNE01.JPG,AFNE01.JPG,AFNE01.JPG,,,,,3,8,38,3,,,,,,,,,,,,,,,,,,,AMSA08.jpg,AMNE16.jpg,AMNE10.jpg,AMSA10.jpg,AMNE10.jpg,MN,1,num_2,16,num_2,1.76669999142,,,2018_Feb_23_1136,59.9974021556,FEMA4ImagesEEG,001,103206,
AFNE01.JPG,AFNE01.JPG,AFNE01.JPG,AFNE01.JPG,AFNE01.JPG,AFNE01.JPG,,,,,3,9,39,1,,,,,,,,,,,,,,,,,,,AMSA01.jpg,AMSA04.jpg,AMNE04.jpg,AMNE12.jpg,AMNE12.jpg,MN,1,num_4,16,num_4,0.983473929227,,,2018_Feb_23_1136,59.9974021556,FEMA4ImagesEEG,001,103206,
AFNE01.JPG,AFNE01.JPG,AFNE01.JPG,AFNE01.JPG,AFNE01.JPG,AFNE01.JPG,,,,,4,0,40,0,,,,,,,,,,,,,,,,,,,AMSA10.jpg,AMNE04.jpg,AMNE09.jpg,AMSA05.jpg,AMNE09.jpg,MN,1,num_2,16,num_2,1.30008393736,,,2018_Feb_23_1136,59.9974021556,FEMA4ImagesEEG,001,103206,
AFNE01.JPG,AFNE01.JPG,AFNE01.JPG,AFNE01.JPG,AFNE01.JPG,AFNE01.JPG,,,,,4,1,41,8,,,,,,,,,,,,,,,,,,,AMNE18.jpg,AMNE08.jpg,AMSA06.jpg,AMSA08.jpg,AMSA08.jpg,MS,2,num_4,16,num_4,0.733447708888,,,2018_Feb_23_1136,59.9974021556,FEMA4ImagesEEG,001,103206,
AFNE01.JPG,AFNE01.JPG,AFNE01.JPG,AFNE01.JPG,AFNE01.JPG,AFNE01.JPG,,,,,4,2,42,6,,,,,,,,,,,,,,,,,,,AMNE03.jpg,AMNE11.jpg,AMSA08.jpg,AMSA10.jpg,AMNE11.jpg,MN,1,num_6,32,num_4,1.35008456279,,,2018_Feb_23_1136,59.9974021556,FEMA4ImagesEEG,001,103206,
AFNE01.JPG,AFNE01.JPG,AFNE01.JPG,AFNE01.JPG,AFNE01.JPG,AFNE01.JPG,,,,,4,3,43,7,,,,,,,,,,,,,,,,,,,AMSA11.jpg,AMNE11.jpg,AMNE09.jpg,AMSA02.jpg,AMSA11.jpg,MS,2,num_8,16,num_8,1.36673668388,,,2018_Feb_23_1136,59.9974021556,FEMA4ImagesEEG,001,103206,
AFNE01.JPG,AFNE01.JPG,AFNE01.JPG,AFNE01.JPG,AFNE01.JPG,AFNE01.JPG,,,,,4,4,44,2,,,,,,,,,,,,,,,,,,,AMSA18.jpg,AMNE17.jpg,AMSA09.jpg,AMNE03.jpg,AMSA09.jpg,MS,2,num_2,32,num_8,1.66655280429,,,2018_Feb_23_1136,59.9974021556,FEMA4ImagesEEG,001,103206,
AFNE01.JPG,AFNE01.JPG,AFNE01.JPG,AFNE01.JPG,AFNE01.JPG,AFNE01.JPG,,,,,4,5,45,5,,,,,,,,,,,,,,,,,,,AMNE01.jpg,AMSA05.jpg,AMNE07.jpg,AMSA13.jpg,AMNE07.jpg,MN,1,num_2,16,num_2,1.01674289024,,,2018_Feb_23_1136,59.9974021556,FEMA4ImagesEEG,001,103206,
AFNE01.JPG,AFNE01.JPG,AFNE01.JPG,AFNE01.JPG,AFNE01.JPG,AFNE01.JPG,,,,,4,6,46,9,,,,,,,,,,,,,,,,,,,AMSA03.jpg,AMNE09.jpg,AMSA20.jpg,AMNE14.jpg,AMNE09.jpg,MN,1,num_6,16,num_6,0.633481739205,,,2018_Feb_23_1136,59.9974021556,FEMA4ImagesEEG,001,103206,
AFNE01.JPG,AFNE01.JPG,AFNE01.JPG,AFNE01.JPG,AFNE01.JPG,AFNE01.JPG,,,,,4,7,47,1,,,,,,,,,,,,,,,,,,,AMNE12.jpg,AMSA01.jpg,AMSA08.jpg,AMNE15.jpg,AMNE15.jpg,MN,1,num_4,16,num_4,0.983461099677,,,2018_Feb_23_1136,59.9974021556,FEMA4ImagesEEG,001,103206,
AFNE01.JPG,AFNE01.JPG,AFNE01.JPG,AFNE01.JPG,AFNE01.JPG,AFNE01.JPG,,,,,4,8,48,4,,,,,,,,,,,,,,,,,,,AMNE02.jpg,AMNE01.jpg,AMSA07.jpg,AMSA06.jpg,AMNE01.jpg,MN,1,num_6,32,num_8,1.15010226751,,,2018_Feb_23_1136,59.9974021556,FEMA4ImagesEEG,001,103206,
AFNE01.JPG,AFNE01.JPG,AFNE01.JPG,AFNE01.JPG,AFNE01.JPG,AFNE01.JPG,,,,,4,9,49,3,,,,,,,,,,,,,,,,,,,AMSA05.jpg,AMSA18.jpg,AMNE07.jpg,AMNE01.jpg,AMSA05.jpg,MS,2,num_8,16,num_8,1.1001176791,,,2018_Feb_23_1136,59.9974021556,FEMA4ImagesEEG,001,103206,
AFNE01.JPG,AFNE01.JPG,AFNE01.JPG,AFNE01.JPG,AFNE01.JPG,AFNE01.JPG,,,,,5,0,50,5,,,,,,,,,,,,,,,,,,,AMSA19.jpg,AMSA16.jpg,AMNE02.jpg,AMNE19.jpg,AMNE02.jpg,MN,1,num_2,16,num_2,1.7834018271,,,2018_Feb_23_1136,59.9974021556,FEMA4ImagesEEG,001,103206,
AFNE01.JPG,AFNE01.JPG,AFNE01.JPG,AFNE01.JPG,AFNE01.JPG,AFNE01.JPG,,,,,5,1,51,6,,,,,,,,,,,,,,,,,,,AMSA18.jpg,AMNE17.jpg,AMNE04.jpg,AMSA16.jpg,AMSA16.jpg,MS,2,num_4,16,num_4,1.01680190628,,,2018_Feb_23_1136,59.9974021556,FEMA4ImagesEEG,001,103206,
AFNE01.JPG,AFNE01.JPG,AFNE01.JPG,AFNE01.JPG,AFNE01.JPG,AFNE01.JPG,,,,,5,2,52,3,,,,,,,,,,,,,,,,,,,AMSA11.jpg,AMNE11.jpg,AMSA17.jpg,AMNE18.jpg,AMNE11.jpg,MN,1,num_6,32,num_4,0.916784939123,,,2018_Feb_23_1136,59.9974021556,FEMA4ImagesEEG,001,103206,
AFNE01.JPG,AFNE01.JPG,AFNE01.JPG,AFNE01.JPG,AFNE01.JPG,AFNE01.JPG,,,,,5,3,53,0,,,,,,,,,,,,,,,,,,,AMNE02.jpg,AMSA10.jpg,AMSA12.jpg,AMNE05.jpg,AMNE05.jpg,MN,1,num_4,32,num_6,0.883290819474,,,2018_Feb_23_1136,59.9974021556,FEMA4ImagesEEG,001,103206,
AFNE01.JPG,AFNE01.JPG,AFNE01.JPG,AFNE01.JPG,AFNE01.JPG,AFNE01.JPG,,,,,5,4,54,7,,,,,,,,,,,,,,,,,,,AMNE02.jpg,AMNE10.jpg,AMSA11.jpg,AMSA05.jpg,AMSA05.jpg,MS,2,num_4,16,num_4,1.50007713772,,,2018_Feb_23_1136,59.9974021556,FEMA4ImagesEEG,001,103206,
AFNE01.JPG,AFNE01.JPG,AFNE01.JPG,AFNE01.JPG,AFNE01.JPG,AFNE01.JPG,,,,,5,5,55,8,,,,,,,,,,,,,,,,,,,AMSA09.jpg,AMNE17.jpg,AMSA14.jpg,AMNE04.jpg,AMNE17.jpg,MN,1,num_6,16,num_6,1.65002929943,,,2018_Feb_23_1136,59.9974021556,FEMA4ImagesEEG,001,103206,
AFNE01.JPG,AFNE01.JPG,AFNE01.JPG,AFNE01.JPG,AFNE01.JPG,AFNE01.JPG,,,,,5,6,56,9,,,,,,,,,,,,,,,,,,,AMNE12.jpg,AMSA10.jpg,AMNE10.jpg,AMSA01.jpg,AMSA01.jpg,MS,2,num_4,16,num_4,1.28301966679,,,2018_Feb_23_1136,59.9974021556,FEMA4ImagesEEG,001,103206,
AFNE01.JPG,AFNE01.JPG,AFNE01.JPG,AFNE01.JPG,AFNE01.JPG,AFNE01.JPG,,,,,5,7,57,2,,,,,,,,,,,,,,,,,,,AMSA12.jpg,AMNE01.jpg,AMNE15.jpg,AMSA16.jpg,AMSA16.jpg,MS,2,num_4,32,num_8,1.11679257266,,,2018_Feb_23_1136,59.9974021556,FEMA4ImagesEEG,001,103206,
AFNE01.JPG,AFNE01.JPG,AFNE01.JPG,AFNE01.JPG,AFNE01.JPG,AFNE01.JPG,,,,,5,8,58,1,,,,,,,,,,,,,,,,,,,AMNE18.jpg,AMSA20.jpg,AMNE13.jpg,AMSA04.jpg,AMNE13.jpg,MN,1,num_2,32,num_8,0.950077955611,,,2018_Feb_23_1136,59.9974021556,FEMA4ImagesEEG,001,103206,
AFNE01.JPG,AFNE01.JPG,AFNE01.JPG,AFNE01.JPG,AFNE01.JPG,AFNE01.JPG,,,,,5,9,59,4,,,,,,,,,,,,,,,,,,,AMSA08.jpg,AMNE12.jpg,AMSA14.jpg,AMNE09.jpg,AMNE12.jpg,MN,1,num_6,32,num_4,0.817000828451,,,2018_Feb_23_1136,59.9974021556,FEMA4ImagesEEG,001,103206,
,,,,,,,,,,,,,,,,,,,,,,,,,,,,,,,,,,,,,,,,,,,space,10.9826092172,2018_Feb_23_1136,59.9974021556,FEMA4ImagesEEG,001,103206,
AFNE01.JPG,AFNE01.JPG,AFNE01.JPG,AFNE01.JPG,AFNE01.JPG,AFNE01.JPG,,,,,,,,,0,0,0,9,,,,,,,,,,,,,,,AFNE20.jpg,AFSA17.jpg,AFNE08.jpg,AFSA18.jpg,AFNE20.jpg,FN,3,num_8,16,num_8,1.91671790462,,,2018_Feb_23_1136,59.9974021556,FEMA4ImagesEEG,001,103206,
AFNE01.JPG,AFNE01.JPG,AFNE01.JPG,AFNE01.JPG,AFNE01.JPG,AFNE01.JPG,,,,,,,,,0,1,1,5,,,,,,,,,,,,,,,AFNE13.jpg,AFSA04.jpg,AFSA11.jpg,AFNE09.jpg,AFNE13.jpg,FN,3,num_8,16,num_8,2.30002203479,,,2018_Feb_23_1136,59.9974021556,FEMA4ImagesEEG,001,103206,
AFNE01.JPG,AFNE01.JPG,AFNE01.JPG,AFNE01.JPG,AFNE01.JPG,AFNE01.JPG,,,,,,,,,0,2,2,2,,,,,,,,,,,,,,,AFSA20.jpg,AFNE20.jpg,AFSA13.jpg,AFNE19.jpg,AFNE20.jpg,FN,3,num_6,16,num_6,0.900123837288,,,2018_Feb_23_1136,59.9974021556,FEMA4ImagesEEG,001,103206,
AFNE01.JPG,AFNE01.JPG,AFNE01.JPG,AFNE01.JPG,AFNE01.JPG,AFNE01.JPG,,,,,,,,,0,3,3,8,,,,,,,,,,,,,,,AFNE18.jpg,AFSA07.jpg,AFSA01.jpg,AFNE13.jpg,AFNE13.jpg,FN,3,num_4,32,num_8,1.51674722019,,,2018_Feb_23_1136,59.9974021556,FEMA4ImagesEEG,001,103206,
AFNE01.JPG,AFNE01.JPG,AFNE01.JPG,AFNE01.JPG,AFNE01.JPG,AFNE01.JPG,,,,,,,,,0,4,4,6,,,,,,,,,,,,,,,AFNE03.jpg,AFSA09.jpg,AFSA12.jpg,AFNE02.jpg,AFSA12.jpg,FS,4,num_2,16,num_2,3.51617053174,,,2018_Feb_23_1136,59.9974021556,FEMA4ImagesEEG,001,103206,
AFNE01.JPG,AFNE01.JPG,AFNE01.JPG,AFNE01.JPG,AFNE01.JPG,AFNE01.JPG,,,,,,,,,0,5,5,1,,,,,,,,,,,,,,,AFSA04.jpg,AFNE15.jpg,AFNE11.jpg,AFSA01.jpg,AFNE15.jpg,FN,3,num_6,16,num_6,0.650164009887,,,2018_Feb_23_1136,59.9974021556,FEMA4ImagesEEG,001,103206,
AFNE01.JPG,AFNE01.JPG,AFNE01.JPG,AFNE01.JPG,AFNE01.JPG,AFNE01.JPG,,,,,,,,,0,6,6,7,,,,,,,,,,,,,,,AFSA09.jpg,AFNE03.jpg,AFNE06.jpg,AFSA10.jpg,AFSA09.jpg,FS,4,num_8,32,num_6,1.50034270948,,,2018_Feb_23_1136,59.9974021556,FEMA4ImagesEEG,001,103206,
AFNE01.JPG,AFNE01.JPG,AFNE01.JPG,AFNE01.JPG,AFNE01.JPG,AFNE01.JPG,,,,,,,,,0,7,7,0,,,,,,,,,,,,,,,AFSA07.jpg,AFNE10.jpg,AFNE07.jpg,AFSA14.jpg,AFNE07.jpg,FN,3,num_2,32,num_6,1.0167230044,,,2018_Feb_23_1136,59.9974021556,FEMA4ImagesEEG,001,103206,
AFNE01.JPG,AFNE01.JPG,AFNE01.JPG,AFNE01.JPG,AFNE01.JPG,AFNE01.JPG,,,,,,,,,0,8,8,3,,,,,,,,,,,,,,,AFNE11.jpg,AFNE09.jpg,AFSA06.jpg,AFSA17.jpg,AFSA06.jpg,FS,4,num_2,32,num_4,1.06684134109,,,2018_Feb_23_1136,59.9974021556,FEMA4ImagesEEG,001,103206,
AFNE01.JPG,AFNE01.JPG,AFNE01.JPG,AFNE01.JPG,AFNE01.JPG,AFNE01.JPG,,,,,,,,,0,9,9,4,,,,,,,,,,,,,,,AFNE09.jpg,AFSA17.jpg,AFSA03.jpg,AFNE13.jpg,AFNE13.jpg,FN,3,num_4,32,num_8,1.03344825411,,,2018_Feb_23_1136,59.9974021556,FEMA4ImagesEEG,001,103206,
AFNE01.JPG,AFNE01.JPG,AFNE01.JPG,AFNE01.JPG,AFNE01.JPG,AFNE01.JPG,,,,,,,,,1,0,10,9,,,,,,,,,,,,,,,AFNE20.jpg,AFSA02.jpg,AFSA19.jpg,AFNE05.jpg,AFNE20.jpg,FN,3,num_8,32,num_6,1.13340524305,,,2018_Feb_23_1136,59.9974021556,FEMA4ImagesEEG,001,103206,
AFNE01.JPG,AFNE01.JPG,AFNE01.JPG,AFNE01.JPG,AFNE01.JPG,AFNE01.JPG,,,,,,,,,1,1,11,7,,,,,,,,,,,,,,,AFSA05.jpg,AFNE04.jpg,AFNE01.jpg,AFSA20.jpg,AFSA05.jpg,FS,4,num_8,32,num_2,0.916653436259,,,2018_Feb_23_1136,59.9974021556,FEMA4ImagesEEG,001,103206,
AFNE01.JPG,AFNE01.JPG,AFNE01.JPG,AFNE01.JPG,AFNE01.JPG,AFNE01.JPG,,,,,,,,,1,2,12,4,,,,,,,,,,,,,,,AFNE07.jpg,AFSA01.jpg,AFSA05.jpg,AFNE08.jpg,AFNE07.jpg,FN,3,num_8,16,num_8,0.966886276496,,,2018_Feb_23_1136,59.9974021556,FEMA4ImagesEEG,001,103206,
AFNE01.JPG,AFNE01.JPG,AFNE01.JPG,AFNE01.JPG,AFNE01.JPG,AFNE01.JPG,,,,,,,,,1,3,13,2,,,,,,,,,,,,,,,AFSA06.jpg,AFNE14.jpg,AFSA10.jpg,AFNE03.jpg,AFSA10.jpg,FS,4,num_2,16,num_2,1.15012054972,,,2018_Feb_23_1136,59.9974021556,FEMA4ImagesEEG,001,103206,
AFNE01.JPG,AFNE01.JPG,AFNE01.JPG,AFNE01.JPG,AFNE01.JPG,AFNE01.JPG,,,,,,,,,1,4,14,8,,,,,,,,,,,,,,,AFSA06.jpg,AFSA18.jpg,AFNE07.jpg,AFNE12.jpg,AFSA06.jpg,FS,4,num_8,32,num_6,1.01585155691,,,2018_Feb_23_1136,59.9974021556,FEMA4ImagesEEG,001,103206,
AFNE01.JPG,AFNE01.JPG,AFNE01.JPG,AFNE01.JPG,AFNE01.JPG,AFNE01.JPG,,,,,,,,,1,5,15,6,,,,,,,,,,,,,,,AFSA14.jpg,AFNE01.jpg,AFSA17.jpg,AFNE07.jpg,AFSA17.jpg,FS,4,num_2,16,num_2,3.06661393715,,,2018_Feb_23_1136,59.9974021556,FEMA4ImagesEEG,001,103206,
AFNE01.JPG,AFNE01.JPG,AFNE01.JPG,AFNE01.JPG,AFNE01.JPG,AFNE01.JPG,,,,,,,,,1,6,16,5,,,,,,,,,,,,,,,AFNE15.jpg,AFSA01.jpg,AFNE07.jpg,AFSA03.jpg,AFSA01.jpg,FS,4,num_6,32,num_4,1.06675249641,,,2018_Feb_23_1136,59.9974021556,FEMA4ImagesEEG,001,103206,
AFNE01.JPG,AFNE01.JPG,AFNE01.JPG,AFNE01.JPG,AFNE01.JPG,AFNE01.JPG,,,,,,,,,1,7,17,1,,,,,,,,,,,,,,,AFNE18.jpg,AFNE11.jpg,AFSA20.jpg,AFSA17.jpg,AFNE18.jpg,FN,3,num_8,16,num_8,1.65035356651,,,2018_Feb_23_1136,59.9974021556,FEMA4ImagesEEG,001,103206,
AFNE01.JPG,AFNE01.JPG,AFNE01.JPG,AFNE01.JPG,AFNE01.JPG,AFNE01.JPG,,,,,,,,,1,8,18,3,,,,,,,,,,,,,,,AFSA20.jpg,AFNE12.jpg,AFSA14.jpg,AFNE16.jpg,AFSA14.jpg,FS,4,num_2,32,num_8,0.916719187633,,,2018_Feb_23_1136,59.9974021556,FEMA4ImagesEEG,001,103206,
AFNE01.JPG,AFNE01.JPG,AFNE01.JPG,AFNE01.JPG,AFNE01.JPG,AFNE01.JPG,,,,,,,,,1,9,19,0,,,,,,,,,,,,,,,AFSA01.jpg,AFNE11.jpg,AFNE02.jpg,AFSA15.jpg,AFSA15.jpg,FS,4,num_4,16,num_4,1.01686060138,,,2018_Feb_23_1136,59.9974021556,FEMA4ImagesEEG,001,103206,
AFNE01.JPG,AFNE01.JPG,AFNE01.JPG,AFNE01.JPG,AFNE01.JPG,AFNE01.JPG,,,,,,,,,2,0,20,8,,,,,,,,,,,,,,,AFNE19.jpg,AFNE10.jpg,AFSA10.jpg,AFSA04.jpg,AFNE19.jpg,FN,3,num_8,32,num_4,0.96674771735,,,2018_Feb_23_1136,59.9974021556,FEMA4ImagesEEG,001,103206,
AFNE01.JPG,AFNE01.JPG,AFNE01.JPG,AFNE01.JPG,AFNE01.JPG,AFNE01.JPG,,,,,,,,,2,1,21,9,,,,,,,,,,,,,,,AFSA04.jpg,AFSA20.jpg,AFNE08.jpg,AFNE01.jpg,AFNE08.jpg,FN,3,num_2,32,num_6,1.60006042721,,,2018_Feb_23_1136,59.9974021556,FEMA4ImagesEEG,001,103206,
AFNE01.JPG,AFNE01.JPG,AFNE01.JPG,AFNE01.JPG,AFNE01.JPG,AFNE01.JPG,,,,,,,,,2,2,22,2,,,,,,,,,,,,,,,AFNE10.jpg,AFNE08.jpg,AFSA18.jpg,AFSA16.jpg,AFNE10.jpg,FN,3,num_8,16,num_8,1.20007530949,,,2018_Feb_23_1136,59.9974021556,FEMA4ImagesEEG,001,103206,
AFNE01.JPG,AFNE01.JPG,AFNE01.JPG,AFNE01.JPG,AFNE01.JPG,AFNE01.JPG,,,,,,,,,2,3,23,1,,,,,,,,,,,,,,,AFNE15.jpg,AFSA10.jpg,AFNE19.jpg,AFSA02.jpg,AFNE15.jpg,FN,3,num_8,16,num_8,0.900157835567,,,2018_Feb_23_1136,59.9974021556,FEMA4ImagesEEG,001,103206,
AFNE01.JPG,AFNE01.JPG,AFNE01.JPG,AFNE01.JPG,AFNE01.JPG,AFNE01.JPG,,,,,,,,,2,4,24,0,,,,,,,,,,,,,,,AFNE02.jpg,AFSA13.jpg,AFSA19.jpg,AFNE16.jpg,AFSA19.jpg,FS,4,num_2,32,num_4,0.983455967857,,,2018_Feb_23_1136,59.9974021556,FEMA4ImagesEEG,001,103206,
AFNE01.JPG,AFNE01.JPG,AFNE01.JPG,AFNE01.JPG,AFNE01.JPG,AFNE01.JPG,,,,,,,,,2,5,25,7,,,,,,,,,,,,,,,AFSA01.jpg,AFSA11.jpg,AFNE06.jpg,AFNE11.jpg,AFNE11.jpg,FN,3,num_4,16,num_4,0.95011035027,,,2018_Feb_23_1136,59.9974021556,FEMA4ImagesEEG,001,103206,
AFNE01.JPG,AFNE01.JPG,AFNE01.JPG,AFNE01.JPG,AFNE01.JPG,AFNE01.JPG,,,,,,,,,2,6,26,3,,,,,,,,,,,,,,,AFSA10.jpg,AFNE09.jpg,AFNE14.jpg,AFSA03.jpg,AFNE09.jpg,FN,3,num_6,16,num_6,1.45009447366,,,2018_Feb_23_1136,59.9974021556,FEMA4ImagesEEG,001,103206,
AFNE01.JPG,AFNE01.JPG,AFNE01.JPG,AFNE01.JPG,AFNE01.JPG,AFNE01.JPG,,,,,,,,,2,7,27,5,,,,,,,,,,,,,,,AFSA12.jpg,AFSA20.jpg,AFNE15.jpg,AFNE03.jpg,AFNE03.jpg,FN,3,num_4,16,num_4,1.10029665136,,,2018_Feb_23_1136,59.9974021556,FEMA4ImagesEEG,001,103206,
AFNE01.JPG,AFNE01.JPG,AFNE01.JPG,AFNE01.JPG,AFNE01.JPG,AFNE01.JPG,,,,,,,,,2,8,28,6,,,,,,,,,,,,,,,AFSA10.jpg,AFSA13.jpg,AFNE08.jpg,AFNE10.jpg,AFNE10.jpg,FN,3,num_4,32,num_8,1.01675090881,,,2018_Feb_23_1136,59.9974021556,FEMA4ImagesEEG,001,103206,
AFNE01.JPG,AFNE01.JPG,AFNE01.JPG,AFNE01.JPG,AFNE01.JPG,AFNE01.JPG,,,,,,,,,2,9,29,4,,,,,,,,,,,,,,,AFSA04.jpg,AFNE16.jpg,AFNE20.jpg,AFSA05.jpg,AFNE20.jpg,FN,3,num_2,32,num_4,2.48333007784,,,2018_Feb_23_1136,59.9974021556,FEMA4ImagesEEG,001,103206,
AFNE01.JPG,AFNE01.JPG,AFNE01.JPG,AFNE01.JPG,AFNE01.JPG,AFNE01.JPG,,,,,,,,,3,0,30,6,,,,,,,,,,,,,,,AFNE14.jpg,AFNE03.jpg,AFSA09.jpg,AFSA06.jpg,AFSA06.jpg,FS,4,num_4,32,num_2,1.80003502464,,,2018_Feb_23_1136,59.9974021556,FEMA4ImagesEEG,001,103206,
AFNE01.JPG,AFNE01.JPG,AFNE01.JPG,AFNE01.JPG,AFNE01.JPG,AFNE01.JPG,,,,,,,,,3,1,31,3,,,,,,,,,,,,,,,AFNE06.jpg,AFSA02.jpg,AFNE20.jpg,AFSA12.jpg,AFNE20.jpg,FN,3,num_2,32,num_8,0.900165533414,,,2018_Feb_23_1136,59.9974021556,FEMA4ImagesEEG,001,103206,
AFNE01.JPG,AFNE01.JPG,AFNE01.JPG,AFNE01.JPG,AFNE01.JPG,AFNE01.JPG,,,,,,,,,3,2,32,4,,,,,,,,,,,,,,,AFNE04.jpg,AFSA18.jpg,AFNE08.jpg,AFSA14.jpg,AFSA14.jpg,FS,4,num_4,16,num_4,0.950080521521,,,2018_Feb_23_1136,59.9974021556,FEMA4ImagesEEG,001,103206,
AFNE01.JPG,AFNE01.JPG,AFNE01.JPG,AFNE01.JPG,AFNE01.JPG,AFNE01.JPG,,,,,,,,,3,3,33,8,,,,,,,,,,,,,,,AFNE19.jpg,AFSA18.jpg,AFSA09.jpg,AFNE10.jpg,AFNE19.jpg,FN,3,num_8,32,num_2,2.21663249191,,,2018_Feb_23_1136,59.9974021556,FEMA4ImagesEEG,001,103206,
AFNE01.JPG,AFNE01.JPG,AFNE01.JPG,AFNE01.JPG,AFNE01.JPG,AFNE01.JPG,,,,,,,,,3,4,34,1,,,,,,,,,,,,,,,AFNE03.jpg,AFSA13.jpg,AFNE06.jpg,AFSA15.jpg,AFNE06.jpg,FN,3,num_2,32,num_4,1.50004410162,,,2018_Feb_23_1136,59.9974021556,FEMA4ImagesEEG,001,103206,
AFNE01.JPG,AFNE01.JPG,AFNE01.JPG,AFNE01.JPG,AFNE01.JPG,AFNE01.JPG,,,,,,,,,3,5,35,0,,,,,,,,,,,,,,,AFNE12.jpg,AFSA16.jpg,AFNE15.jpg,AFSA08.jpg,AFSA08.jpg,FS,4,num_4,16,num_4,1.00013278588,,,2018_Feb_23_1136,59.9974021556,FEMA4ImagesEEG,001,103206,
AFNE01.JPG,AFNE01.JPG,AFNE01.JPG,AFNE01.JPG,AFNE01.JPG,AFNE01.JPG,,,,,,,,,3,6,36,2,,,,,,,,,,,,,,,AFNE09.jpg,AFNE15.jpg,AFSA04.jpg,AFSA14.jpg,AFSA14.jpg,FS,4,num_4,32,num_2,1.93334821565,,,2018_Feb_23_1136,59.9974021556,FEMA4ImagesEEG,001,103206,
AFNE01.JPG,AFNE01.JPG,AFNE01.JPG,AFNE01.JPG,AFNE01.JPG,AFNE01.JPG,,,,,,,,,3,7,37,9,,,,,,,,,,,,,,,AFNE17.jpg,AFSA04.jpg,AFSA14.jpg,AFNE16.jpg,AFNE16.jpg,FN,3,num_4,16,num_4,0.650191272609,,,2018_Feb_23_1136,59.9974021556,FEMA4ImagesEEG,001,103206,
AFNE01.JPG,AFNE01.JPG,AFNE01.JPG,AFNE01.JPG,AFNE01.JPG,AFNE01.JPG,,,,,,,,,3,8,38,7,,,,,,,,,,,,,,,AFNE19.jpg,AFSA08.jpg,AFNE03.jpg,AFSA06.jpg,AFNE19.jpg,FN,3,num_8,32,num_4,1.56672122434,,,2018_Feb_23_1136,59.9974021556,FEMA4ImagesEEG,001,103206,
AFNE01.JPG,AFNE01.JPG,AFNE01.JPG,AFNE01.JPG,AFNE01.JPG,AFNE01.JPG,,,,,,,,,3,9,39,5,,,,,,,,,,,,,,,AFNE18.jpg,AFSA17.jpg,AFNE15.jpg,AFSA20.jpg,AFSA17.jpg,FS,4,num_6,32,num_8,1.06685128389,,,2018_Feb_23_1136,59.9974021556,FEMA4ImagesEEG,001,103206,
AFNE01.JPG,AFNE01.JPG,AFNE01.JPG,AFNE01.JPG,AFNE01.JPG,AFNE01.JPG,,,,,,,,,4,0,40,0,,,,,,,,,,,,,,,AFSA04.jpg,AFNE05.jpg,AFNE10.jpg,AFSA09.jpg,AFSA04.jpg,FS,4,num_8,32,num_6,2.26664530544,,,2018_Feb_23_1136,59.9974021556,FEMA4ImagesEEG,001,103206,
AFNE01.JPG,AFNE01.JPG,AFNE01.JPG,AFNE01.JPG,AFNE01.JPG,AFNE01.JPG,,,,,,,,,4,1,41,7,,,,,,,,,,,,,,,AFSA18.jpg,AFNE01.jpg,AFSA11.jpg,AFNE08.jpg,AFNE01.jpg,FN,3,num_6,48,None,,,,2018_Feb_23_1136,59.9974021556,FEMA4ImagesEEG,001,103206,
AFNE01.JPG,AFNE01.JPG,AFNE01.JPG,AFNE01.JPG,AFNE01.JPG,AFNE01.JPG,,,,,,,,,4,2,42,2,,,,,,,,,,,,,,,AFSA02.jpg,AFSA12.jpg,AFNE13.jpg,AFNE17.jpg,AFSA12.jpg,FS,4,num_6,16,num_6,0.800130604883,,,2018_Feb_23_1136,59.9974021556,FEMA4ImagesEEG,001,103206,
AFNE01.JPG,AFNE01.JPG,AFNE01.JPG,AFNE01.JPG,AFNE01.JPG,AFNE01.JPG,,,,,,,,,4,3,43,4,,,,,,,,,,,,,,,AFSA19.jpg,AFSA09.jpg,AFNE03.jpg,AFNE06.jpg,AFSA09.jpg,FS,4,num_6,32,num_4,0.816765406053,,,2018_Feb_23_1136,59.9974021556,FEMA4ImagesEEG,001,103206,
AFNE01.JPG,AFNE01.JPG,AFNE01.JPG,AFNE01.JPG,AFNE01.JPG,AFNE01.JPG,,,,,,,,,4,4,44,9,,,,,,,,,,,,,,,AFNE08.jpg,AFNE06.jpg,AFSA05.jpg,AFSA14.jpg,AFSA14.jpg,FS,4,num_4,32,num_2,0.633440684644,,,2018_Feb_23_1136,59.9974021556,FEMA4ImagesEEG,001,103206,
AFNE01.JPG,AFNE01.JPG,AFNE01.JPG,AFNE01.JPG,AFNE01.JPG,AFNE01.JPG,,,,,,,,,4,5,45,3,,,,,,,,,,,,,,,AFSA09.jpg,AFSA12.jpg,AFNE08.jpg,AFNE18.jpg,AFSA09.jpg,FS,4,num_8,16,num_8,1.11678647867,,,2018_Feb_23_1136,59.9974021556,FEMA4ImagesEEG,001,103206,
AFNE01.JPG,AFNE01.JPG,AFNE01.JPG,AFNE01.JPG,AFNE01.JPG,AFNE01.JPG,,,,,,,,,4,6,46,1,,,,,,,,,,,,,,,AFNE07.jpg,AFSA08.jpg,AFSA09.jpg,AFNE11.jpg,AFSA08.jpg,FS,4,num_6,32,num_4,1.00021232909,,,2018_Feb_23_1136,59.9974021556,FEMA4ImagesEEG,001,103206,
AFNE01.JPG,AFNE01.JPG,AFNE01.JPG,AFNE01.JPG,AFNE01.JPG,AFNE01.JPG,,,,,,,,,4,7,47,8,,,,,,,,,,,,,,,AFNE12.jpg,AFSA07.jpg,AFNE14.jpg,AFSA17.jpg,AFSA07.jpg,FS,4,num_6,32,num_2,0.950469898409,,,2018_Feb_23_1136,59.9974021556,FEMA4ImagesEEG,001,103206,
AFNE01.JPG,AFNE01.JPG,AFNE01.JPG,AFNE01.JPG,AFNE01.JPG,AFNE01.JPG,,,,,,,,,4,8,48,5,,,,,,,,,,,,,,,AFNE12.jpg,AFNE02.jpg,AFSA14.jpg,AFSA04.jpg,AFSA04.jpg,FS,4,num_4,32,num_2,1.18340907583,,,2018_Feb_23_1136,59.9974021556,FEMA4ImagesEEG,001,103206,
AFNE01.JPG,AFNE01.JPG,AFNE01.JPG,AFNE01.JPG,AFNE01.JPG,AFNE01.JPG,,,,,,,,,4,9,49,6,,,,,,,,,,,,,,,AFSA11.jpg,AFNE11.jpg,AFSA20.jpg,AFNE06.jpg,AFNE11.jpg,FN,3,num_6,32,num_4,0.849960917956,,,2018_Feb_23_1136,59.9974021556,FEMA4ImagesEEG,001,103206,
AFNE01.JPG,AFNE01.JPG,AFNE01.JPG,AFNE01.JPG,AFNE01.JPG,AFNE01.JPG,,,,,,,,,5,0,50,9,,,,,,,,,,,,,,,AFNE17.jpg,AFNE12.jpg,AFSA07.jpg,AFSA05.jpg,AFNE12.jpg,FN,3,num_6,32,num_8,1.78336333844,,,2018_Feb_23_1136,59.9974021556,FEMA4ImagesEEG,001,103206,
AFNE01.JPG,AFNE01.JPG,AFNE01.JPG,AFNE01.JPG,AFNE01.JPG,AFNE01.JPG,,,,,,,,,5,1,51,1,,,,,,,,,,,,,,,AFNE06.jpg,AFSA01.jpg,AFNE13.jpg,AFSA02.jpg,AFSA02.jpg,FS,4,num_4,16,num_4,0.950117406435,,,2018_Feb_23_1136,59.9974021556,FEMA4ImagesEEG,001,103206,
AFNE01.JPG,AFNE01.JPG,AFNE01.JPG,AFNE01.JPG,AFNE01.JPG,AFNE01.JPG,,,,,,,,,5,2,52,6,,,,,,,,,,,,,,,AFSA19.jpg,AFNE20.jpg,AFSA10.jpg,AFNE03.jpg,AFNE20.jpg,FN,3,num_6,16,num_6,0.966758301831,,,2018_Feb_23_1136,59.9974021556,FEMA4ImagesEEG,001,103206,
AFNE01.JPG,AFNE01.JPG,AFNE01.JPG,AFNE01.JPG,AFNE01.JPG,AFNE01.JPG,,,,,,,,,5,3,53,2,,,,,,,,,,,,,,,AFSA01.jpg,AFSA08.jpg,AFNE05.jpg,AFNE18.jpg,AFSA08.jpg,FS,4,num_6,32,num_4,1.00008916541,,,2018_Feb_23_1136,59.9974021556,FEMA4ImagesEEG,001,103206,
AFNE01.JPG,AFNE01.JPG,AFNE01.JPG,AFNE01.JPG,AFNE01.JPG,AFNE01.JPG,,,,,,,,,5,4,54,8,,,,,,,,,,,,,,,AFNE16.jpg,AFSA02.jpg,AFSA09.jpg,AFNE18.jpg,AFNE16.jpg,FN,3,num_8,32,num_2,1.20004259411,,,2018_Feb_23_1136,59.9974021556,FEMA4ImagesEEG,001,103206,
AFNE01.JPG,AFNE01.JPG,AFNE01.JPG,AFNE01.JPG,AFNE01.JPG,AFNE01.JPG,,,,,,,,,5,5,55,3,,,,,,,,,,,,,,,AFNE14.jpg,AFSA01.jpg,AFNE04.jpg,AFSA05.jpg,AFNE04.jpg,FN,3,num_2,32,num_6,0.683558379766,,,2018_Feb_23_1136,59.9974021556,FEMA4ImagesEEG,001,103206,
AFNE01.JPG,AFNE01.JPG,AFNE01.JPG,AFNE01.JPG,AFNE01.JPG,AFNE01.JPG,,,,,,,,,5,6,56,7,,,,,,,,,,,,,,,AFSA08.jpg,AFNE01.jpg,AFNE20.jpg,AFSA03.jpg,AFSA08.jpg,FS,4,num_8,32,num_4,0.766777289449,,,2018_Feb_23_1136,59.9974021556,FEMA4ImagesEEG,001,103206,
AFNE01.JPG,AFNE01.JPG,AFNE01.JPG,AFNE01.JPG,AFNE01.JPG,AFNE01.JPG,,,,,,,,,5,7,57,4,,,,,,,,,,,,,,,AFNE13.jpg,AFSA03.jpg,AFNE09.jpg,AFSA04.jpg,AFNE09.jpg,FN,3,num_2,16,num_2,1.26675018715,,,2018_Feb_23_1136,59.9974021556,FEMA4ImagesEEG,001,103206,
AFNE01.JPG,AFNE01.JPG,AFNE01.JPG,AFNE01.JPG,AFNE01.JPG,AFNE01.JPG,,,,,,,,,5,8,58,0,,,,,,,,,,,,,,,AFSA06.jpg,AFSA13.jpg,AFNE13.jpg,AFNE04.jpg,AFSA13.jpg,FS,4,num_6,16,num_6,1.56674078945,,,2018_Feb_23_1136,59.9974021556,FEMA4ImagesEEG,001,103206,
AFNE01.JPG,AFNE01.JPG,AFNE01.JPG,AFNE01.JPG,AFNE01.JPG,AFNE01.JPG,,,,,,,,,5,9,59,5,,,,,,,,,,,,,,,AFNE18.jpg,AFNE05.jpg,AFSA11.jpg,AFSA13.jpg,AFNE05.jpg,FN,3,num_6,16,num_6,1.28341577924,,,2018_Feb_23_1136,59.9974021556,FEMA4ImagesEEG,001,103206,
,,,,,,,,,,,,,,,,,,,,,,,,,,,,,,,,,,,,,,,,,,,space,11.615935398,2018_Feb_23_1136,59.9974021556,FEMA4ImagesEEG,001,103206,
AFNE01.JPG,AFNE01.JPG,AFNE01.JPG,AFNE01.JPG,AFNE01.JPG,AFNE01.JPG,,,,,,,,,,,,,0,0,0,3,,,,,,,,,,,AMNE12.jpg,AMSA06.jpg,AMNE20.jpg,AMSA19.jpg,AMNE20.jpg,MN,1,num_2,32,num_8,1.13343956205,,,2018_Feb_23_1136,59.9974021556,FEMA4ImagesEEG,001,103206,
AFNE01.JPG,AFNE01.JPG,AFNE01.JPG,AFNE01.JPG,AFNE01.JPG,AFNE01.JPG,,,,,,,,,,,,,0,1,1,2,,,,,,,,,,,AMSA14.jpg,AMNE13.jpg,AMNE09.jpg,AMSA07.jpg,AMNE09.jpg,MN,1,num_2,32,num_6,0.700126146665,,,2018_Feb_23_1136,59.9974021556,FEMA4ImagesEEG,001,103206,
AFNE01.JPG,AFNE01.JPG,AFNE01.JPG,AFNE01.JPG,AFNE01.JPG,AFNE01.JPG,,,,,,,,,,,,,0,2,2,1,,,,,,,,,,,AMSA11.jpg,AMNE04.jpg,AMNE03.jpg,AMSA12.jpg,AMSA11.jpg,MS,2,num_8,32,num_2,1.26676878997,,,2018_Feb_23_1136,59.9974021556,FEMA4ImagesEEG,001,103206,
AFNE01.JPG,AFNE01.JPG,AFNE01.JPG,AFNE01.JPG,AFNE01.JPG,AFNE01.JPG,,,,,,,,,,,,,0,3,3,7,,,,,,,,,,,AMNE19.jpg,AMSA04.jpg,AMSA11.jpg,AMNE08.jpg,AMNE19.jpg,MN,1,num_8,32,num_6,1.71672502509,,,2018_Feb_23_1136,59.9974021556,FEMA4ImagesEEG,001,103206,
AFNE01.JPG,AFNE01.JPG,AFNE01.JPG,AFNE01.JPG,AFNE01.JPG,AFNE01.JPG,,,,,,,,,,,,,0,4,4,9,,,,,,,,,,,AMNE16.jpg,AMNE05.jpg,AMSA13.jpg,AMSA07.jpg,AMSA13.jpg,MS,2,num_2,32,num_6,1.73339478695,,,2018_Feb_23_1136,59.9974021556,FEMA4ImagesEEG,001,103206,
AFNE01.JPG,AFNE01.JPG,AFNE01.JPG,AFNE01.JPG,AFNE01.JPG,AFNE01.JPG,,,,,,,,,,,,,0,5,5,8,,,,,,,,,,,AMSA05.jpg,AMSA20.jpg,AMNE08.jpg,AMNE14.jpg,AMNE08.jpg,MN,1,num_2,16,num_2,1.63338840415,,,2018_Feb_23_1136,59.9974021556,FEMA4ImagesEEG,001,103206,
AFNE01.JPG,AFNE01.JPG,AFNE01.JPG,AFNE01.JPG,AFNE01.JPG,AFNE01.JPG,,,,,,,,,,,,,0,6,6,5,,,,,,,,,,,AMNE10.jpg,AMSA20.jpg,AMNE11.jpg,AMSA17.jpg,AMNE10.jpg,MN,1,num_8,16,num_8,1.03348449757,,,2018_Feb_23_1136,59.9974021556,FEMA4ImagesEEG,001,103206,
AFNE01.JPG,AFNE01.JPG,AFNE01.JPG,AFNE01.JPG,AFNE01.JPG,AFNE01.JPG,,,,,,,,,,,,,0,7,7,4,,,,,,,,,,,AMSA03.jpg,AMSA10.jpg,AMNE08.jpg,AMNE11.jpg,AMSA10.jpg,MS,2,num_6,32,num_2,0.883482942008,,,2018_Feb_23_1136,59.9974021556,FEMA4ImagesEEG,001,103206,
AFNE01.JPG,AFNE01.JPG,AFNE01.JPG,AFNE01.JPG,AFNE01.JPG,AFNE01.JPG,,,,,,,,,,,,,0,8,8,0,,,,,,,,,,,AMSA20.jpg,AMNE02.jpg,AMSA14.jpg,AMNE06.jpg,AMNE06.jpg,MN,1,num_4,16,num_4,1.91676344955,,,2018_Feb_23_1136,59.9974021556,FEMA4ImagesEEG,001,103206,
AFNE01.JPG,AFNE01.JPG,AFNE01.JPG,AFNE01.JPG,AFNE01.JPG,AFNE01.JPG,,,,,,,,,,,,,0,9,9,6,,,,,,,,,,,AMSA19.jpg,AMNE15.jpg,AMNE20.jpg,AMSA11.jpg,AMSA19.jpg,MS,2,num_8,16,num_8,1.41676425154,,,2018_Feb_23_1136,59.9974021556,FEMA4ImagesEEG,001,103206,
AFNE01.JPG,AFNE01.JPG,AFNE01.JPG,AFNE01.JPG,AFNE01.JPG,AFNE01.JPG,,,,,,,,,,,,,1,0,10,5,,,,,,,,,,,AMNE07.jpg,AMNE17.jpg,AMSA09.jpg,AMSA08.jpg,AMSA08.jpg,MS,2,num_4,16,num_4,1.0001331066,,,2018_Feb_23_1136,59.9974021556,FEMA4ImagesEEG,001,103206,
AFNE01.JPG,AFNE01.JPG,AFNE01.JPG,AFNE01.JPG,AFNE01.JPG,AFNE01.JPG,,,,,,,,,,,,,1,1,11,2,,,,,,,,,,,AMSA16.jpg,AMNE04.jpg,AMNE19.jpg,AMSA06.jpg,AMNE04.jpg,MN,1,num_6,16,num_6,1.01680607582,,,2018_Feb_23_1136,59.9974021556,FEMA4ImagesEEG,001,103206,
AFNE01.JPG,AFNE01.JPG,AFNE01.JPG,AFNE01.JPG,AFNE01.JPG,AFNE01.JPG,,,,,,,,,,,,,1,2,12,7,,,,,,,,,,,AMSA04.jpg,AMNE10.jpg,AMNE18.jpg,AMSA09.jpg,AMSA04.jpg,MS,2,num_8,32,num_4,0.90015142085,,,2018_Feb_23_1136,59.9974021556,FEMA4ImagesEEG,001,103206,
AFNE01.JPG,AFNE01.JPG,AFNE01.JPG,AFNE01.JPG,AFNE01.JPG,AFNE01.JPG,,,,,,,,,,,,,1,3,13,1,,,,,,,,,,,AMNE16.jpg,AMNE09.jpg,AMSA11.jpg,AMSA01.jpg,AMNE16.jpg,MN,1,num_8,32,num_6,1.21675341052,,,2018_Feb_23_1136,59.9974021556,FEMA4ImagesEEG,001,103206,
AFNE01.JPG,AFNE01.JPG,AFNE01.JPG,AFNE01.JPG,AFNE01.JPG,AFNE01.JPG,,,,,,,,,,,,,1,4,14,4,,,,,,,,,,,AMSA01.jpg,AMSA11.jpg,AMNE12.jpg,AMNE03.jpg,AMNE12.jpg,MN,1,num_2,16,num_2,0.633471154841,,,2018_Feb_23_1136,59.9974021556,FEMA4ImagesEEG,001,103206,
AFNE01.JPG,AFNE01.JPG,AFNE01.JPG,AFNE01.JPG,AFNE01.JPG,AFNE01.JPG,,,,,,,,,,,,,1,5,15,3,,,,,,,,,,,AMNE09.jpg,AMSA09.jpg,AMSA15.jpg,AMNE14.jpg,AMNE09.jpg,MN,1,num_8,16,num_8,1.16677235009,,,2018_Feb_23_1136,59.9974021556,FEMA4ImagesEEG,001,103206,
AFNE01.JPG,AFNE01.JPG,AFNE01.JPG,AFNE01.JPG,AFNE01.JPG,AFNE01.JPG,,,,,,,,,,,,,1,6,16,9,,,,,,,,,,,AMNE10.jpg,AMNE09.jpg,AMSA13.jpg,AMSA04.jpg,AMNE09.jpg,MN,1,num_6,32,num_8,1.08342771081,,,2018_Feb_23_1136,59.9974021556,FEMA4ImagesEEG,001,103206,
AFNE01.JPG,AFNE01.JPG,AFNE01.JPG,AFNE01.JPG,AFNE01.JPG,AFNE01.JPG,,,,,,,,,,,,,1,7,17,8,,,,,,,,,,,AMSA19.jpg,AMNE01.jpg,AMSA20.jpg,AMNE16.jpg,AMSA19.jpg,MS,2,num_8,16,num_8,1.36694516416,,,2018_Feb_23_1136,59.9974021556,FEMA4ImagesEEG,001,103206,
AFNE01.JPG,AFNE01.JPG,AFNE01.JPG,AFNE01.JPG,AFNE01.JPG,AFNE01.JPG,,,,,,,,,,,,,1,8,18,0,,,,,,,,,,,AMSA18.jpg,AMNE12.jpg,AMNE20.jpg,AMSA02.jpg,AMNE12.jpg,MN,1,num_6,32,num_8,1.23342509673,,,2018_Feb_23_1136,59.9974021556,FEMA4ImagesEEG,001,103206,
AFNE01.JPG,AFNE01.JPG,AFNE01.JPG,AFNE01.JPG,AFNE01.JPG,AFNE01.JPG,,,,,,,,,,,,,1,9,19,6,,,,,,,,,,,AMSA05.jpg,AMSA18.jpg,AMNE08.jpg,AMNE18.jpg,AMNE18.jpg,MN,1,num_4,32,num_6,0.883480055374,,,2018_Feb_23_1136,59.9974021556,FEMA4ImagesEEG,001,103206,
AFNE01.JPG,AFNE01.JPG,AFNE01.JPG,AFNE01.JPG,AFNE01.JPG,AFNE01.JPG,,,,,,,,,,,,,2,0,20,5,,,,,,,,,,,AMSA11.jpg,AMNE15.jpg,AMSA07.jpg,AMNE10.jpg,AMSA07.jpg,MS,2,num_2,16,num_2,1.76669165224,,,2018_Feb_23_1136,59.9974021556,FEMA4ImagesEEG,001,103206,
AFNE01.JPG,AFNE01.JPG,AFNE01.JPG,AFNE01.JPG,AFNE01.JPG,AFNE01.JPG,,,,,,,,,,,,,2,1,21,0,,,,,,,,,,,AMNE05.jpg,AMSA15.jpg,AMSA19.jpg,AMNE09.jpg,AMSA15.jpg,MS,2,num_6,16,num_6,1.7334736886,,,2018_Feb_23_1136,59.9974021556,FEMA4ImagesEEG,001,103206,
AFNE01.JPG,AFNE01.JPG,AFNE01.JPG,AFNE01.JPG,AFNE01.JPG,AFNE01.JPG,,,,,,,,,,,,,2,2,22,4,,,,,,,,,,,AMSA13.jpg,AMSA10.jpg,AMNE19.jpg,AMNE02.jpg,AMNE19.jpg,MN,1,num_2,32,num_4,1.38341414346,,,2018_Feb_23_1136,59.9974021556,FEMA4ImagesEEG,001,103206,
AFNE01.JPG,AFNE01.JPG,AFNE01.JPG,AFNE01.JPG,AFNE01.JPG,AFNE01.JPG,,,,,,,,,,,,,2,3,23,9,,,,,,,,,,,AMNE08.jpg,AMSA08.jpg,AMSA05.jpg,AMNE05.jpg,AMNE05.jpg,MN,1,num_4,32,num_2,1.0834338048,,,2018_Feb_23_1136,59.9974021556,FEMA4ImagesEEG,001,103206,
AFNE01.JPG,AFNE01.JPG,AFNE01.JPG,AFNE01.JPG,AFNE01.JPG,AFNE01.JPG,,,,,,,,,,,,,2,4,24,1,,,,,,,,,,,AMSA06.jpg,AMNE16.jpg,AMSA15.jpg,AMNE09.jpg,AMSA15.jpg,MS,2,num_2,32,num_8,1.61669490777,,,2018_Feb_23_1136,59.9974021556,FEMA4ImagesEEG,001,103206,
AFNE01.JPG,AFNE01.JPG,AFNE01.JPG,AFNE01.JPG,AFNE01.JPG,AFNE01.JPG,,,,,,,,,,,,,2,5,25,3,,,,,,,,,,,AMNE15.jpg,AMSA02.jpg,AMSA13.jpg,AMNE19.jpg,AMNE19.jpg,MN,1,num_4,16,num_4,1.05017510743,,,2018_Feb_23_1136,59.9974021556,FEMA4ImagesEEG,001,103206,
AFNE01.JPG,AFNE01.JPG,AFNE01.JPG,AFNE01.JPG,AFNE01.JPG,AFNE01.JPG,,,,,,,,,,,,,2,6,26,8,,,,,,,,,,,AMSA09.jpg,AMNE17.jpg,AMNE09.jpg,AMSA04.jpg,AMNE09.jpg,MN,1,num_2,16,num_2,0.600132272695,,,2018_Feb_23_1136,59.9974021556,FEMA4ImagesEEG,001,103206,
AFNE01.JPG,AFNE01.JPG,AFNE01.JPG,AFNE01.JPG,AFNE01.JPG,AFNE01.JPG,,,,,,,,,,,,,2,7,27,2,,,,,,,,,,,AMNE20.jpg,AMSA05.jpg,AMNE18.jpg,AMSA20.jpg,AMSA05.jpg,MS,2,num_6,32,num_4,1.11686698417,,,2018_Feb_23_1136,59.9974021556,FEMA4ImagesEEG,001,103206,
AFNE01.JPG,AFNE01.JPG,AFNE01.JPG,AFNE01.JPG,AFNE01.JPG,AFNE01.JPG,,,,,,,,,,,,,2,8,28,7,,,,,,,,,,,AMNE05.jpg,AMSA19.jpg,AMNE10.jpg,AMSA20.jpg,AMSA19.jpg,MS,2,num_6,32,num_8,1.05010935594,,,2018_Feb_23_1136,59.9974021556,FEMA4ImagesEEG,001,103206,
AFNE01.JPG,AFNE01.JPG,AFNE01.JPG,AFNE01.JPG,AFNE01.JPG,AFNE01.JPG,,,,,,,,,,,,,2,9,29,6,,,,,,,,,,,AMNE11.jpg,AMSA04.jpg,AMSA18.jpg,AMNE17.jpg,AMSA04.jpg,MS,2,num_6,16,num_6,0.766751309624,,,2018_Feb_23_1136,59.9974021556,FEMA4ImagesEEG,001,103206,
AFNE01.JPG,AFNE01.JPG,AFNE01.JPG,AFNE01.JPG,AFNE01.JPG,AFNE01.JPG,,,,,,,,,,,,,3,0,30,9,,,,,,,,,,,AMSA15.jpg,AMSA18.jpg,AMNE06.jpg,AMNE18.jpg,AMSA18.jpg,MS,2,num_6,32,num_4,0.983478419599,,,2018_Feb_23_1136,59.9974021556,FEMA4ImagesEEG,001,103206,
AFNE01.JPG,AFNE01.JPG,AFNE01.JPG,AFNE01.JPG,AFNE01.JPG,AFNE01.JPG,,,,,,,,,,,,,3,1,31,4,,,,,,,,,,,AMSA13.jpg,AMNE10.jpg,AMSA18.jpg,AMNE05.jpg,AMNE10.jpg,MN,1,num_6,32,num_8,2.73331716808,,,2018_Feb_23_1136,59.9974021556,FEMA4ImagesEEG,001,103206,
AFNE01.JPG,AFNE01.JPG,AFNE01.JPG,AFNE01.JPG,AFNE01.JPG,AFNE01.JPG,,,,,,,,,,,,,3,2,32,0,,,,,,,,,,,AMNE09.jpg,AMSA02.jpg,AMNE04.jpg,AMSA15.jpg,AMNE09.jpg,MN,1,num_8,16,num_8,0.966809940641,,,2018_Feb_23_1136,59.9974021556,FEMA4ImagesEEG,001,103206,
AFNE01.JPG,AFNE01.JPG,AFNE01.JPG,AFNE01.JPG,AFNE01.JPG,AFNE01.JPG,,,,,,,,,,,,,3,3,33,1,,,,,,,,,,,AMNE12.jpg,AMSA17.jpg,AMNE03.jpg,AMSA12.jpg,AMSA12.jpg,MS,2,num_4,16,num_4,0.900165854022,,,2018_Feb_23_1136,59.9974021556,FEMA4ImagesEEG,001,103206,
AFNE01.JPG,AFNE01.JPG,AFNE01.JPG,AFNE01.JPG,AFNE01.JPG,AFNE01.JPG,,,,,,,,,,,,,3,4,34,8,,,,,,,,,,,AMNE10.jpg,AMSA08.jpg,AMSA14.jpg,AMNE15.jpg,AMNE10.jpg,MN,1,num_8,16,num_8,1.10015007365,,,2018_Feb_23_1136,59.9974021556,FEMA4ImagesEEG,001,103206,
AFNE01.JPG,AFNE01.JPG,AFNE01.JPG,AFNE01.JPG,AFNE01.JPG,AFNE01.JPG,,,,,,,,,,,,,3,5,35,3,,,,,,,,,,,AMSA09.jpg,AMSA13.jpg,AMNE20.jpg,AMNE04.jpg,AMNE04.jpg,MN,1,num_4,16,num_4,0.883181126788,,,2018_Feb_23_1136,59.9974021556,FEMA4ImagesEEG,001,103206,
AFNE01.JPG,AFNE01.JPG,AFNE01.JPG,AFNE01.JPG,AFNE01.JPG,AFNE01.JPG,,,,,,,,,,,,,3,6,36,7,,,,,,,,,,,AMNE01.jpg,AMSA17.jpg,AMNE06.jpg,AMSA06.jpg,AMNE06.jpg,MN,1,num_2,16,num_2,0.933447965421,,,2018_Feb_23_1136,59.9974021556,FEMA4ImagesEEG,001,103206,
AFNE01.JPG,AFNE01.JPG,AFNE01.JPG,AFNE01.JPG,AFNE01.JPG,AFNE01.JPG,,,,,,,,,,,,,3,7,37,2,,,,,,,,,,,AMSA04.jpg,AMSA14.jpg,AMNE14.jpg,AMNE19.jpg,AMSA04.jpg,MS,2,num_8,32,num_6,0.983428705018,,,2018_Feb_23_1136,59.9974021556,FEMA4ImagesEEG,001,103206,
AFNE01.JPG,AFNE01.JPG,AFNE01.JPG,AFNE01.JPG,AFNE01.JPG,AFNE01.JPG,,,,,,,,,,,,,3,8,38,5,,,,,,,,,,,AMNE18.jpg,AMNE15.jpg,AMSA09.jpg,AMSA06.jpg,AMNE18.jpg,MN,1,num_8,32,num_6,0.683505457826,,,2018_Feb_23_1136,59.9974021556,FEMA4ImagesEEG,001,103206,
AFNE01.JPG,AFNE01.JPG,AFNE01.JPG,AFNE01.JPG,AFNE01.JPG,AFNE01.JPG,,,,,,,,,,,,,3,9,39,6,,,,,,,,,,,AMSA05.jpg,AMSA14.jpg,AMNE06.jpg,AMNE09.jpg,AMSA14.jpg,MS,2,num_6,16,num_6,1.01680607582,,,2018_Feb_23_1136,59.9974021556,FEMA4ImagesEEG,001,103206,
AFNE01.JPG,AFNE01.JPG,AFNE01.JPG,AFNE01.JPG,AFNE01.JPG,AFNE01.JPG,,,,,,,,,,,,,4,0,40,6,,,,,,,,,,,AMNE14.jpg,AMNE15.jpg,AMSA14.jpg,AMSA06.jpg,AMNE14.jpg,MN,1,num_8,32,num_2,1.95004908915,,,2018_Feb_23_1136,59.9974021556,FEMA4ImagesEEG,001,103206,
AFNE01.JPG,AFNE01.JPG,AFNE01.JPG,AFNE01.JPG,AFNE01.JPG,AFNE01.JPG,,,,,,,,,,,,,4,1,41,1,,,,,,,,,,,AMSA05.jpg,AMSA20.jpg,AMNE03.jpg,AMNE02.jpg,AMNE03.jpg,MN,1,num_2,32,num_4,0.866800029995,,,2018_Feb_23_1136,59.9974021556,FEMA4ImagesEEG,001,103206,
AFNE01.JPG,AFNE01.JPG,AFNE01.JPG,AFNE01.JPG,AFNE01.JPG,AFNE01.JPG,,,,,,,,,,,,,4,2,42,4,,,,,,,,,,,AMSA18.jpg,AMSA01.jpg,AMNE18.jpg,AMNE08.jpg,AMNE18.jpg,MN,1,num_2,32,num_4,0.750154997106,,,2018_Feb_23_1136,59.9974021556,FEMA4ImagesEEG,001,103206,
AFNE01.JPG,AFNE01.JPG,AFNE01.JPG,AFNE01.JPG,AFNE01.JPG,AFNE01.JPG,,,,,,,,,,,,,4,3,43,7,,,,,,,,,,,AMNE14.jpg,AMSA08.jpg,AMNE13.jpg,AMSA18.jpg,AMSA18.jpg,MS,2,num_4,16,num_4,0.683504816378,,,2018_Feb_23_1136,59.9974021556,FEMA4ImagesEEG,001,103206,
AFNE01.JPG,AFNE01.JPG,AFNE01.JPG,AFNE01.JPG,AFNE01.JPG,AFNE01.JPG,,,,,,,,,,,,,4,4,44,5,,,,,,,,,,,AMNE10.jpg,AMNE07.jpg,AMSA19.jpg,AMSA09.jpg,AMSA09.jpg,MS,2,num_4,16,num_4,1.1500288184,,,2018_Feb_23_1136,59.9974021556,FEMA4ImagesEEG,001,103206,
AFNE01.JPG,AFNE01.JPG,AFNE01.JPG,AFNE01.JPG,AFNE01.JPG,AFNE01.JPG,,,,,,,,,,,,,4,5,45,8,,,,,,,,,,,AMSA10.jpg,AMNE14.jpg,AMSA14.jpg,AMNE04.jpg,AMSA10.jpg,MS,2,num_8,16,num_8,1.30012050166,,,2018_Feb_23_1136,59.9974021556,FEMA4ImagesEEG,001,103206,
AFNE01.JPG,AFNE01.JPG,AFNE01.JPG,AFNE01.JPG,AFNE01.JPG,AFNE01.JPG,,,,,,,,,,,,,4,6,46,9,,,,,,,,,,,AMNE10.jpg,AMSA01.jpg,AMNE17.jpg,AMSA08.jpg,AMSA01.jpg,MS,2,num_6,32,num_4,1.38307512249,,,2018_Feb_23_1136,59.9974021556,FEMA4ImagesEEG,001,103206,
AFNE01.JPG,AFNE01.JPG,AFNE01.JPG,AFNE01.JPG,AFNE01.JPG,AFNE01.JPG,,,,,,,,,,,,,4,7,47,2,,,,,,,,,,,AMNE11.jpg,AMNE04.jpg,AMSA04.jpg,AMSA12.jpg,AMNE04.jpg,MN,1,num_6,32,num_2,0.933462398592,,,2018_Feb_23_1136,59.9974021556,FEMA4ImagesEEG,001,103206,
AFNE01.JPG,AFNE01.JPG,AFNE01.JPG,AFNE01.JPG,AFNE01.JPG,AFNE01.JPG,,,,,,,,,,,,,4,8,48,0,,,,,,,,,,,AMSA10.jpg,AMNE04.jpg,AMNE17.jpg,AMSA11.jpg,AMSA11.jpg,MS,2,num_4,16,num_4,1.06676308077,,,2018_Feb_23_1136,59.9974021556,FEMA4ImagesEEG,001,103206,
AFNE01.JPG,AFNE01.JPG,AFNE01.JPG,AFNE01.JPG,AFNE01.JPG,AFNE01.JPG,,,,,,,,,,,,,4,9,49,3,,,,,,,,,,,AMSA15.jpg,AMSA17.jpg,AMNE05.jpg,AMNE18.jpg,AMSA15.jpg,MS,2,num_8,32,num_2,1.13344244868,,,2018_Feb_23_1136,59.9974021556,FEMA4ImagesEEG,001,103206,
AFNE01.JPG,AFNE01.JPG,AFNE01.JPG,AFNE01.JPG,AFNE01.JPG,AFNE01.JPG,,,,,,,,,,,,,5,0,50,6,,,,,,,,,,,AMNE12.jpg,AMSA02.jpg,AMNE16.jpg,AMSA09.jpg,AMSA09.jpg,MS,2,num_4,16,num_4,0.866820877884,,,2018_Feb_23_1136,59.9974021556,FEMA4ImagesEEG,001,103206,
AFNE01.JPG,AFNE01.JPG,AFNE01.JPG,AFNE01.JPG,AFNE01.JPG,AFNE01.JPG,,,,,,,,,,,,,5,1,51,9,,,,,,,,,,,AMSA07.jpg,AMSA12.jpg,AMNE13.jpg,AMNE17.jpg,AMSA12.jpg,MS,2,num_6,16,num_6,0.816784008988,,,2018_Feb_23_1136,59.9974021556,FEMA4ImagesEEG,001,103206,
AFNE01.JPG,AFNE01.JPG,AFNE01.JPG,AFNE01.JPG,AFNE01.JPG,AFNE01.JPG,,,,,,,,,,,,,5,2,52,2,,,,,,,,,,,AMNE13.jpg,AMSA04.jpg,AMNE20.jpg,AMSA16.jpg,AMSA04.jpg,MS,2,num_6,32,num_4,0.966772735002,,,2018_Feb_23_1136,59.9974021556,FEMA4ImagesEEG,001,103206,
AFNE01.JPG,AFNE01.JPG,AFNE01.JPG,AFNE01.JPG,AFNE01.JPG,AFNE01.JPG,,,,,,,,,,,,,5,3,53,8,,,,,,,,,,,AMNE07.jpg,AMSA18.jpg,AMNE19.jpg,AMSA13.jpg,AMNE19.jpg,MN,1,num_2,16,num_2,1.83337454835,,,2018_Feb_23_1136,59.9974021556,FEMA4ImagesEEG,001,103206,
AFNE01.JPG,AFNE01.JPG,AFNE01.JPG,AFNE01.JPG,AFNE01.JPG,AFNE01.JPG,,,,,,,,,,,,,5,4,54,0,,,,,,,,,,,AMNE02.jpg,AMNE12.jpg,AMSA10.jpg,AMSA08.jpg,AMSA10.jpg,MS,2,num_2,32,num_4,0.866842367337,,,2018_Feb_23_1136,59.9974021556,FEMA4ImagesEEG,001,103206,
AFNE01.JPG,AFNE01.JPG,AFNE01.JPG,AFNE01.JPG,AFNE01.JPG,AFNE01.JPG,,,,,,,,,,,,,5,5,55,7,,,,,,,,,,,AMSA18.jpg,AMSA15.jpg,AMNE18.jpg,AMNE02.jpg,AMNE02.jpg,MN,1,num_4,16,num_4,0.866768276668,,,2018_Feb_23_1136,59.9974021556,FEMA4ImagesEEG,001,103206,
AFNE01.JPG,AFNE01.JPG,AFNE01.JPG,AFNE01.JPG,AFNE01.JPG,AFNE01.JPG,,,,,,,,,,,,,5,6,56,1,,,,,,,,,,,AMSA19.jpg,AMSA06.jpg,AMNE04.jpg,AMNE07.jpg,AMSA06.jpg,MS,2,num_6,32,num_4,1.28349211509,,,2018_Feb_23_1136,59.9974021556,FEMA4ImagesEEG,001,103206,
AFNE01.JPG,AFNE01.JPG,AFNE01.JPG,AFNE01.JPG,AFNE01.JPG,AFNE01.JPG,,,,,,,,,,,,,5,7,57,3,,,,,,,,,,,AMNE05.jpg,AMSA03.jpg,AMSA20.jpg,AMNE16.jpg,AMSA20.jpg,MS,2,num_2,16,num_2,0.983421007288,,,2018_Feb_23_1136,59.9974021556,FEMA4ImagesEEG,001,103206,
AFNE01.JPG,AFNE01.JPG,AFNE01.JPG,AFNE01.JPG,AFNE01.JPG,AFNE01.JPG,,,,,,,,,,,,,5,8,58,4,,,,,,,,,,,AMNE04.jpg,AMNE19.jpg,AMSA12.jpg,AMSA06.jpg,AMNE04.jpg,MN,1,num_8,16,num_8,1.1001372441,,,2018_Feb_23_1136,59.9974021556,FEMA4ImagesEEG,001,103206,
AFNE01.JPG,AFNE01.JPG,AFNE01.JPG,AFNE01.JPG,AFNE01.JPG,AFNE01.JPG,,,,,,,,,,,,,5,9,59,5,,,,,,,,,,,AMNE08.jpg,AMNE16.jpg,AMSA19.jpg,AMSA16.jpg,AMSA16.jpg,MS,2,num_4,16,num_4,0.733449954074,,,2018_Feb_23_1136,59.9974021556,FEMA4ImagesEEG,001,103206,
,,,,,,,,,,,,,,,,,,,,,,,,,,,,,,,,,,,,,,,,,,,space,17.3657180173,2018_Feb_23_1136,59.9974021556,FEMA4ImagesEEG,001,103206,
AFNE01.JPG,AFNE01.JPG,AFNE01.JPG,AFNE01.JPG,AFNE01.JPG,AFNE01.JPG,,,,,,,,,,,,,,,,,0,0,0,8,,,,,,,AFSA15.jpg,AFNE13.jpg,AFNE17.jpg,AFSA18.jpg,AFNE13.jpg,FN,3,num_6,32,num_2,0.816742633702,,,2018_Feb_23_1136,59.9974021556,FEMA4ImagesEEG,001,103206,
AFNE01.JPG,AFNE01.JPG,AFNE01.JPG,AFNE01.JPG,AFNE01.JPG,AFNE01.JPG,,,,,,,,,,,,,,,,,0,1,1,5,,,,,,,AFNE09.jpg,AFNE07.jpg,AFSA01.jpg,AFSA06.jpg,AFNE09.jpg,FN,3,num_8,16,num_8,1.00007441139,,,2018_Feb_23_1136,59.9974021556,FEMA4ImagesEEG,001,103206,
AFNE01.JPG,AFNE01.JPG,AFNE01.JPG,AFNE01.JPG,AFNE01.JPG,AFNE01.JPG,,,,,,,,,,,,,,,,,0,2,2,4,,,,,,,AFSA05.jpg,AFSA04.jpg,AFNE16.jpg,AFNE14.jpg,AFNE16.jpg,FN,3,num_2,16,num_2,1.43337756325,,,2018_Feb_23_1136,59.9974021556,FEMA4ImagesEEG,001,103206,
AFNE01.JPG,AFNE01.JPG,AFNE01.JPG,AFNE01.JPG,AFNE01.JPG,AFNE01.JPG,,,,,,,,,,,,,,,,,0,3,3,1,,,,,,,AFNE11.jpg,AFNE03.jpg,AFSA16.jpg,AFSA06.jpg,AFSA06.jpg,FS,4,num_4,32,num_6,1.13350755873,,,2018_Feb_23_1136,59.9974021556,FEMA4ImagesEEG,001,103206,
AFNE01.JPG,AFNE01.JPG,AFNE01.JPG,AFNE01.JPG,AFNE01.JPG,AFNE01.JPG,,,,,,,,,,,,,,,,,0,4,4,2,,,,,,,AFSA04.jpg,AFSA03.jpg,AFNE04.jpg,AFNE12.jpg,AFNE04.jpg,FN,3,num_2,16,num_2,0.883160920115,,,2018_Feb_23_1136,59.9974021556,FEMA4ImagesEEG,001,103206,
AFNE01.JPG,AFNE01.JPG,AFNE01.JPG,AFNE01.JPG,AFNE01.JPG,AFNE01.JPG,,,,,,,,,,,,,,,,,0,5,5,9,,,,,,,AFNE13.jpg,AFSA13.jpg,AFSA10.jpg,AFNE03.jpg,AFNE13.jpg,FN,3,num_8,16,num_8,1.28341513779,,,2018_Feb_23_1136,59.9974021556,FEMA4ImagesEEG,001,103206,
AFNE01.JPG,AFNE01.JPG,AFNE01.JPG,AFNE01.JPG,AFNE01.JPG,AFNE01.JPG,,,,,,,,,,,,,,,,,0,6,6,3,,,,,,,AFSA12.jpg,AFNE01.jpg,AFSA05.jpg,AFNE19.jpg,AFNE01.jpg,FN,3,num_6,16,num_6,0.850193132996,,,2018_Feb_23_1136,59.9974021556,FEMA4ImagesEEG,001,103206,
AFNE01.JPG,AFNE01.JPG,AFNE01.JPG,AFNE01.JPG,AFNE01.JPG,AFNE01.JPG,,,,,,,,,,,,,,,,,0,7,7,0,,,,,,,AFSA17.jpg,AFNE14.jpg,AFSA19.jpg,AFNE16.jpg,AFNE14.jpg,FN,3,num_6,16,num_6,0.716817397974,,,2018_Feb_23_1136,59.9974021556,FEMA4ImagesEEG,001,103206,
AFNE01.JPG,AFNE01.JPG,AFNE01.JPG,AFNE01.JPG,AFNE01.JPG,AFNE01.JPG,,,,,,,,,,,,,,,,,0,8,8,7,,,,,,,AFSA03.jpg,AFNE17.jpg,AFSA19.jpg,AFNE09.jpg,AFNE17.jpg,FN,3,num_6,16,num_6,1.76669582177,,,2018_Feb_23_1136,59.9974021556,FEMA4ImagesEEG,001,103206,
AFNE01.JPG,AFNE01.JPG,AFNE01.JPG,AFNE01.JPG,AFNE01.JPG,AFNE01.JPG,,,,,,,,,,,,,,,,,0,9,9,6,,,,,,,AFNE16.jpg,AFSA07.jpg,AFSA17.jpg,AFNE05.jpg,AFSA17.jpg,FS,4,num_2,32,num_8,2.64996964205,,,2018_Feb_23_1136,59.9974021556,FEMA4ImagesEEG,001,103206,
AFNE01.JPG,AFNE01.JPG,AFNE01.JPG,AFNE01.JPG,AFNE01.JPG,AFNE01.JPG,,,,,,,,,,,,,,,,,1,0,10,8,,,,,,,AFSA10.jpg,AFSA19.jpg,AFNE07.jpg,AFNE19.jpg,AFNE07.jpg,FN,3,num_2,32,num_8,1.08340718353,,,2018_Feb_23_1136,59.9974021556,FEMA4ImagesEEG,001,103206,
AFNE01.JPG,AFNE01.JPG,AFNE01.JPG,AFNE01.JPG,AFNE01.JPG,AFNE01.JPG,,,,,,,,,,,,,,,,,1,1,11,5,,,,,,,AFNE14.jpg,AFSA17.jpg,AFNE16.jpg,AFSA10.jpg,AFNE14.jpg,FN,3,num_8,32,num_4,1.10013018793,,,2018_Feb_23_1136,59.9974021556,FEMA4ImagesEEG,001,103206,
AFNE01.JPG,AFNE01.JPG,AFNE01.JPG,AFNE01.JPG,AFNE01.JPG,AFNE01.JPG,,,,,,,,,,,,,,,,,1,2,12,0,,,,,,,AFSA12.jpg,AFSA06.jpg,AFNE11.jpg,AFNE14.jpg,AFNE14.jpg,FN,3,num_4,16,num_4,1.0667181774,,,2018_Feb_23_1136,59.9974021556,FEMA4ImagesEEG,001,103206,
AFNE01.JPG,AFNE01.JPG,AFNE01.JPG,AFNE01.JPG,AFNE01.JPG,AFNE01.JPG,,,,,,,,,,,,,,,,,1,3,13,4,,,,,,,AFSA01.jpg,AFNE06.jpg,AFNE12.jpg,AFSA18.jpg,AFNE12.jpg,FN,3,num_2,32,num_6,0.816811913275,,,2018_Feb_23_1136,59.9974021556,FEMA4ImagesEEG,001,103206,
AFNE01.JPG,AFNE01.JPG,AFNE01.JPG,AFNE01.JPG,AFNE01.JPG,AFNE01.JPG,,,,,,,,,,,,,,,,,1,4,14,3,,,,,,,AFSA15.jpg,AFNE02.jpg,AFSA20.jpg,AFNE05.jpg,AFSA20.jpg,FS,4,num_2,16,num_2,1.23341900273,,,2018_Feb_23_1136,59.9974021556,FEMA4ImagesEEG,001,103206,
AFNE01.JPG,AFNE01.JPG,AFNE01.JPG,AFNE01.JPG,AFNE01.JPG,AFNE01.JPG,,,,,,,,,,,,,,,,,1,5,15,1,,,,,,,AFSA20.jpg,AFNE16.jpg,AFNE12.jpg,AFSA02.jpg,AFSA20.jpg,FS,4,num_8,32,num_4,0.850114231231,,,2018_Feb_23_1136,59.9974021556,FEMA4ImagesEEG,001,103206,
AFNE01.JPG,AFNE01.JPG,AFNE01.JPG,AFNE01.JPG,AFNE01.JPG,AFNE01.JPG,,,,,,,,,,,,,,,,,1,6,16,2,,,,,,,AFSA05.jpg,AFSA19.jpg,AFNE05.jpg,AFNE17.jpg,AFSA05.jpg,FS,4,num_8,32,num_4,0.850141493953,,,2018_Feb_23_1136,59.9974021556,FEMA4ImagesEEG,001,103206,
AFNE01.JPG,AFNE01.JPG,AFNE01.JPG,AFNE01.JPG,AFNE01.JPG,AFNE01.JPG,,,,,,,,,,,,,,,,,1,7,17,6,,,,,,,AFNE16.jpg,AFSA20.jpg,AFNE07.jpg,AFSA13.jpg,AFSA13.jpg,FS,4,num_4,16,num_4,0.733503517346,,,2018_Feb_23_1136,59.9974021556,FEMA4ImagesEEG,001,103206,
AFNE01.JPG,AFNE01.JPG,AFNE01.JPG,AFNE01.JPG,AFNE01.JPG,AFNE01.JPG,,,,,,,,,,,,,,,,,1,8,18,7,,,,,,,AFSA14.jpg,AFSA15.jpg,AFNE19.jpg,AFNE07.jpg,AFNE19.jpg,FN,3,num_2,32,num_4,0.73349132936,,,2018_Feb_23_1136,59.9974021556,FEMA4ImagesEEG,001,103206,
AFNE01.JPG,AFNE01.JPG,AFNE01.JPG,AFNE01.JPG,AFNE01.JPG,AFNE01.JPG,,,,,,,,,,,,,,,,,1,9,19,9,,,,,,,AFNE06.jpg,AFSA05.jpg,AFSA13.jpg,AFNE05.jpg,AFNE06.jpg,FN,3,num_8,16,num_8,1.13353001035,,,2018_Feb_23_1136,59.9974021556,FEMA4ImagesEEG,001,103206,
AFNE01.JPG,AFNE01.JPG,AFNE01.JPG,AFNE01.JPG,AFNE01.JPG,AFNE01.JPG,,,,,,,,,,,,,,,,,2,0,20,7,,,,,,,AFSA11.jpg,AFSA08.jpg,AFNE07.jpg,AFNE15.jpg,AFNE15.jpg,FN,3,num_4,32,num_2,1.05012122332,,,2018_Feb_23_1136,59.9974021556,FEMA4ImagesEEG,001,103206,
AFNE01.JPG,AFNE01.JPG,AFNE01.JPG,AFNE01.JPG,AFNE01.JPG,AFNE01.JPG,,,,,,,,,,,,,,,,,2,1,21,4,,,,,,,AFNE16.jpg,AFSA03.jpg,AFSA01.jpg,AFNE06.jpg,AFNE06.jpg,FN,3,num_4,16,num_4,1.18343537638,,,2018_Feb_23_1136,59.9974021556,FEMA4ImagesEEG,001,103206,
AFNE01.JPG,AFNE01.JPG,AFNE01.JPG,AFNE01.JPG,AFNE01.JPG,AFNE01.JPG,,,,,,,,,,,,,,,,,2,2,22,5,,,,,,,AFSA09.jpg,AFNE05.jpg,AFNE13.jpg,AFSA17.jpg,AFNE05.jpg,FN,3,num_6,16,num_6,1.15011926682,,,2018_Feb_23_1136,59.9974021556,FEMA4ImagesEEG,001,103206,
AFNE01.JPG,AFNE01.JPG,AFNE01.JPG,AFNE01.JPG,AFNE01.JPG,AFNE01.JPG,,,,,,,,,,,,,,,,,2,3,23,0,,,,,,,AFSA05.jpg,AFNE08.jpg,AFSA01.jpg,AFNE17.jpg,AFSA01.jpg,FS,4,num_2,16,num_2,1.26681946672,,,2018_Feb_23_1136,59.9974021556,FEMA4ImagesEEG,001,103206,
AFNE01.JPG,AFNE01.JPG,AFNE01.JPG,AFNE01.JPG,AFNE01.JPG,AFNE01.JPG,,,,,,,,,,,,,,,,,2,4,24,8,,,,,,,AFSA06.jpg,AFSA07.jpg,AFNE04.jpg,AFNE20.jpg,AFNE04.jpg,FN,3,num_2,32,num_4,0.966827260563,,,2018_Feb_23_1136,59.9974021556,FEMA4ImagesEEG,001,103206,
AFNE01.JPG,AFNE01.JPG,AFNE01.JPG,AFNE01.JPG,AFNE01.JPG,AFNE01.JPG,,,,,,,,,,,,,,,,,2,5,25,9,,,,,,,AFSA14.jpg,AFNE02.jpg,AFSA01.jpg,AFNE01.jpg,AFSA14.jpg,FS,4,num_8,32,num_4,1.73337714619,,,2018_Feb_23_1136,59.9974021556,FEMA4ImagesEEG,001,103206,
AFNE01.JPG,AFNE01.JPG,AFNE01.JPG,AFNE01.JPG,AFNE01.JPG,AFNE01.JPG,,,,,,,,,,,,,,,,,2,6,26,1,,,,,,,AFNE03.jpg,AFNE12.jpg,AFSA11.jpg,AFSA03.jpg,AFNE12.jpg,FN,3,num_6,16,num_6,0.816813516896,,,2018_Feb_23_1136,59.9974021556,FEMA4ImagesEEG,001,103206,
AFNE01.JPG,AFNE01.JPG,AFNE01.JPG,AFNE01.JPG,AFNE01.JPG,AFNE01.JPG,,,,,,,,,,,,,,,,,2,7,27,2,,,,,,,AFSA18.jpg,AFSA15.jpg,AFNE02.jpg,AFNE16.jpg,AFSA18.jpg,FS,4,num_8,32,num_4,1.01675283315,,,2018_Feb_23_1136,59.9974021556,FEMA4ImagesEEG,001,103206,
AFNE01.JPG,AFNE01.JPG,AFNE01.JPG,AFNE01.JPG,AFNE01.JPG,AFNE01.JPG,,,,,,,,,,,,,,,,,2,8,28,3,,,,,,,AFSA09.jpg,AFNE20.jpg,AFSA07.jpg,AFNE08.jpg,AFSA09.jpg,FS,4,num_8,32,num_6,0.833545822883,,,2018_Feb_23_1136,59.9974021556,FEMA4ImagesEEG,001,103206,
AFNE01.JPG,AFNE01.JPG,AFNE01.JPG,AFNE01.JPG,AFNE01.JPG,AFNE01.JPG,,,,,,,,,,,,,,,,,2,9,29,6,,,,,,,AFNE15.jpg,AFSA18.jpg,AFSA07.jpg,AFNE13.jpg,AFNE13.jpg,FN,3,num_4,16,num_4,0.900170344394,,,2018_Feb_23_1136,59.9974021556,FEMA4ImagesEEG,001,103206,
AFNE01.JPG,AFNE01.JPG,AFNE01.JPG,AFNE01.JPG,AFNE01.JPG,AFNE01.JPG,,,,,,,,,,,,,,,,,3,0,30,8,,,,,,,AFSA10.jpg,AFSA17.jpg,AFNE12.jpg,AFNE05.jpg,AFSA10.jpg,FS,4,num_8,16,num_8,1.03343446227,,,2018_Feb_23_1136,59.9974021556,FEMA4ImagesEEG,001,103206,
AFNE01.JPG,AFNE01.JPG,AFNE01.JPG,AFNE01.JPG,AFNE01.JPG,AFNE01.JPG,,,,,,,,,,,,,,,,,3,1,31,2,,,,,,,AFNE16.jpg,AFNE02.jpg,AFSA10.jpg,AFSA07.jpg,AFSA07.jpg,FS,4,num_4,16,num_4,0.733424936305,,,2018_Feb_23_1136,59.9974021556,FEMA4ImagesEEG,001,103206,
AFNE01.JPG,AFNE01.JPG,AFNE01.JPG,AFNE01.JPG,AFNE01.JPG,AFNE01.JPG,,,,,,,,,,,,,,,,,3,2,32,4,,,,,,,AFSA20.jpg,AFSA09.jpg,AFNE11.jpg,AFNE02.jpg,AFNE02.jpg,FN,3,num_4,16,num_4,0.833470769925,,,2018_Feb_23_1136,59.9974021556,FEMA4ImagesEEG,001,103206,
AFNE01.JPG,AFNE01.JPG,AFNE01.JPG,AFNE01.JPG,AFNE01.JPG,AFNE01.JPG,,,,,,,,,,,,,,,,,3,3,33,7,,,,,,,AFSA15.jpg,AFNE17.jpg,AFNE15.jpg,AFSA14.jpg,AFNE17.jpg,FN,3,num_6,32,num_4,1.16679287748,,,2018_Feb_23_1136,59.9974021556,FEMA4ImagesEEG,001,103206,
AFNE01.JPG,AFNE01.JPG,AFNE01.JPG,AFNE01.JPG,AFNE01.JPG,AFNE01.JPG,,,,,,,,,,,,,,,,,3,4,34,9,,,,,,,AFSA09.jpg,AFNE05.jpg,AFSA08.jpg,AFNE03.jpg,AFSA09.jpg,FS,4,num_8,16,num_8,0.716780192219,,,2018_Feb_23_1136,59.9974021556,FEMA4ImagesEEG,001,103206,
AFNE01.JPG,AFNE01.JPG,AFNE01.JPG,AFNE01.JPG,AFNE01.JPG,AFNE01.JPG,,,,,,,,,,,,,,,,,3,5,35,3,,,,,,,AFSA02.jpg,AFNE07.jpg,AFSA14.jpg,AFNE20.jpg,AFNE07.jpg,FN,3,num_6,32,num_4,1.30009227665,,,2018_Feb_23_1136,59.9974021556,FEMA4ImagesEEG,001,103206,
AFNE01.JPG,AFNE01.JPG,AFNE01.JPG,AFNE01.JPG,AFNE01.JPG,AFNE01.JPG,,,,,,,,,,,,,,,,,3,6,36,5,,,,,,,AFNE04.jpg,AFNE01.jpg,AFSA12.jpg,AFSA10.jpg,AFSA10.jpg,FS,4,num_4,32,num_8,1.08343925735,,,2018_Feb_23_1136,59.9974021556,FEMA4ImagesEEG,001,103206,
AFNE01.JPG,AFNE01.JPG,AFNE01.JPG,AFNE01.JPG,AFNE01.JPG,AFNE01.JPG,,,,,,,,,,,,,,,,,3,7,37,0,,,,,,,AFSA07.jpg,AFSA02.jpg,AFNE12.jpg,AFNE09.jpg,AFNE12.jpg,FN,3,num_2,32,num_4,0.80012964271,,,2018_Feb_23_1136,59.9974021556,FEMA4ImagesEEG,001,103206,
AFNE01.JPG,AFNE01.JPG,AFNE01.JPG,AFNE01.JPG,AFNE01.JPG,AFNE01.JPG,,,,,,,,,,,,,,,,,3,8,38,1,,,,,,,AFNE13.jpg,AFSA14.jpg,AFNE18.jpg,AFSA20.jpg,AFSA14.jpg,FS,4,num_6,32,num_4,1.36671166634,,,2018_Feb_23_1136,59.9974021556,FEMA4ImagesEEG,001,103206,
AFNE01.JPG,AFNE01.JPG,AFNE01.JPG,AFNE01.JPG,AFNE01.JPG,AFNE01.JPG,,,,,,,,,,,,,,,,,3,9,39,6,,,,,,,AFNE18.jpg,AFSA04.jpg,AFNE07.jpg,AFSA12.jpg,AFNE18.jpg,FN,3,num_8,32,num_4,1.18378883065,,,2018_Feb_23_1136,59.9974021556,FEMA4ImagesEEG,001,103206,
AFNE01.JPG,AFNE01.JPG,AFNE01.JPG,AFNE01.JPG,AFNE01.JPG,AFNE01.JPG,,,,,,,,,,,,,,,,,4,0,40,1,,,,,,,AFNE05.jpg,AFSA02.jpg,AFSA11.jpg,AFNE03.jpg,AFNE05.jpg,FN,3,num_8,32,num_4,0.800169735099,,,2018_Feb_23_1136,59.9974021556,FEMA4ImagesEEG,001,103206,
AFNE01.JPG,AFNE01.JPG,AFNE01.JPG,AFNE01.JPG,AFNE01.JPG,AFNE01.JPG,,,,,,,,,,,,,,,,,4,1,41,2,,,,,,,AFSA17.jpg,AFNE02.jpg,AFNE01.jpg,AFSA08.jpg,AFNE02.jpg,FN,3,num_6,16,num_6,0.716807454941,,,2018_Feb_23_1136,59.9974021556,FEMA4ImagesEEG,001,103206,
AFNE01.JPG,AFNE01.JPG,AFNE01.JPG,AFNE01.JPG,AFNE01.JPG,AFNE01.JPG,,,,,,,,,,,,,,,,,4,2,42,6,,,,,,,AFNE11.jpg,AFSA17.jpg,AFNE12.jpg,AFSA16.jpg,AFNE12.jpg,FN,3,num_2,16,num_2,0.700029604253,,,2018_Feb_23_1136,59.9974021556,FEMA4ImagesEEG,001,103206,
AFNE01.JPG,AFNE01.JPG,AFNE01.JPG,AFNE01.JPG,AFNE01.JPG,AFNE01.JPG,,,,,,,,,,,,,,,,,4,3,43,0,,,,,,,AFNE03.jpg,AFSA12.jpg,AFNE19.jpg,AFSA11.jpg,AFSA12.jpg,FS,4,num_6,16,num_6,0.983449232299,,,2018_Feb_23_1136,59.9974021556,FEMA4ImagesEEG,001,103206,
AFNE01.JPG,AFNE01.JPG,AFNE01.JPG,AFNE01.JPG,AFNE01.JPG,AFNE01.JPG,,,,,,,,,,,,,,,,,4,4,44,8,,,,,,,AFSA05.jpg,AFNE10.jpg,AFNE13.jpg,AFSA08.jpg,AFSA05.jpg,FS,4,num_8,32,num_2,1.8500103117,,,2018_Feb_23_1136,59.9974021556,FEMA4ImagesEEG,001,103206,
AFNE01.JPG,AFNE01.JPG,AFNE01.JPG,AFNE01.JPG,AFNE01.JPG,AFNE01.JPG,,,,,,,,,,,,,,,,,4,5,45,5,,,,,,,AFSA02.jpg,AFNE20.jpg,AFNE12.jpg,AFSA06.jpg,AFSA06.jpg,FS,4,num_4,16,num_4,0.983436402865,,,2018_Feb_23_1136,59.9974021556,FEMA4ImagesEEG,001,103206,
AFNE01.JPG,AFNE01.JPG,AFNE01.JPG,AFNE01.JPG,AFNE01.JPG,AFNE01.JPG,,,,,,,,,,,,,,,,,4,6,46,7,,,,,,,AFSA18.jpg,AFSA05.jpg,AFNE01.jpg,AFNE16.jpg,AFNE01.jpg,FN,3,num_2,32,num_6,0.666811640607,,,2018_Feb_23_1136,59.9974021556,FEMA4ImagesEEG,001,103206,
AFNE01.JPG,AFNE01.JPG,AFNE01.JPG,AFNE01.JPG,AFNE01.JPG,AFNE01.JPG,,,,,,,,,,,,,,,,,4,7,47,9,,,,,,,AFSA15.jpg,AFNE04.jpg,AFSA07.jpg,AFNE16.jpg,AFSA15.jpg,FS,4,num_8,32,num_4,0.850176454522,,,2018_Feb_23_1136,59.9974021556,FEMA4ImagesEEG,001,103206,
AFNE01.JPG,AFNE01.JPG,AFNE01.JPG,AFNE01.JPG,AFNE01.JPG,AFNE01.JPG,,,,,,,,,,,,,,,,,4,8,48,4,,,,,,,AFSA18.jpg,AFSA02.jpg,AFNE15.jpg,AFNE05.jpg,AFSA02.jpg,FS,4,num_6,32,num_4,0.716675952077,,,2018_Feb_23_1136,59.9974021556,FEMA4ImagesEEG,001,103206,
AFNE01.JPG,AFNE01.JPG,AFNE01.JPG,AFNE01.JPG,AFNE01.JPG,AFNE01.JPG,,,,,,,,,,,,,,,,,4,9,49,3,,,,,,,AFNE18.jpg,AFSA05.jpg,AFSA09.jpg,AFNE08.jpg,AFSA09.jpg,FS,4,num_2,32,num_6,1.06664440734,,,2018_Feb_23_1136,59.9974021556,FEMA4ImagesEEG,001,103206,
AFNE01.JPG,AFNE01.JPG,AFNE01.JPG,AFNE01.JPG,AFNE01.JPG,AFNE01.JPG,,,,,,,,,,,,,,,,,5,0,50,1,,,,,,,AFSA18.jpg,AFSA11.jpg,AFNE11.jpg,AFNE15.jpg,AFNE11.jpg,FN,3,num_2,16,num_2,1.08351847995,,,2018_Feb_23_1136,59.9974021556,FEMA4ImagesEEG,001,103206,
AFNE01.JPG,AFNE01.JPG,AFNE01.JPG,AFNE01.JPG,AFNE01.JPG,AFNE01.JPG,,,,,,,,,,,,,,,,,5,1,51,3,,,,,,,AFNE06.jpg,AFNE05.jpg,AFSA12.jpg,AFSA18.jpg,AFSA12.jpg,FS,4,num_2,32,num_8,1.3167389452,,,2018_Feb_23_1136,59.9974021556,FEMA4ImagesEEG,001,103206,
AFNE01.JPG,AFNE01.JPG,AFNE01.JPG,AFNE01.JPG,AFNE01.JPG,AFNE01.JPG,,,,,,,,,,,,,,,,,5,2,52,7,,,,,,,AFNE18.jpg,AFSA02.jpg,AFSA01.jpg,AFNE12.jpg,AFSA02.jpg,FS,4,num_6,16,num_6,0.800128680421,,,2018_Feb_23_1136,59.9974021556,FEMA4ImagesEEG,001,103206,
AFNE01.JPG,AFNE01.JPG,AFNE01.JPG,AFNE01.JPG,AFNE01.JPG,AFNE01.JPG,,,,,,,,,,,,,,,,,5,3,53,0,,,,,,,AFSA18.jpg,AFNE16.jpg,AFSA14.jpg,AFNE14.jpg,AFNE16.jpg,FN,3,num_6,32,num_2,0.933441871312,,,2018_Feb_23_1136,59.9974021556,FEMA4ImagesEEG,001,103206,
AFNE01.JPG,AFNE01.JPG,AFNE01.JPG,AFNE01.JPG,AFNE01.JPG,AFNE01.JPG,,,,,,,,,,,,,,,,,5,4,54,2,,,,,,,AFNE03.jpg,AFSA19.jpg,AFSA15.jpg,AFNE08.jpg,AFNE08.jpg,FN,3,num_4,32,num_8,1.01686092222,,,2018_Feb_23_1136,59.9974021556,FEMA4ImagesEEG,001,103206,
AFNE01.JPG,AFNE01.JPG,AFNE01.JPG,AFNE01.JPG,AFNE01.JPG,AFNE01.JPG,,,,,,,,,,,,,,,,,5,5,55,4,,,,,,,AFSA14.jpg,AFNE15.jpg,AFSA10.jpg,AFNE05.jpg,AFNE05.jpg,FN,3,num_4,16,num_4,1.03340014326,,,2018_Feb_23_1136,59.9974021556,FEMA4ImagesEEG,001,103206,
AFNE01.JPG,AFNE01.JPG,AFNE01.JPG,AFNE01.JPG,AFNE01.JPG,AFNE01.JPG,,,,,,,,,,,,,,,,,5,6,56,9,,,,,,,AFNE07.jpg,AFNE11.jpg,AFSA07.jpg,AFSA15.jpg,AFNE11.jpg,FN,3,num_6,16,num_6,0.850167794502,,,2018_Feb_23_1136,59.9974021556,FEMA4ImagesEEG,001,103206,
AFNE01.JPG,AFNE01.JPG,AFNE01.JPG,AFNE01.JPG,AFNE01.JPG,AFNE01.JPG,,,,,,,,,,,,,,,,,5,7,57,5,,,,,,,AFNE05.jpg,AFSA18.jpg,AFNE07.jpg,AFSA07.jpg,AFSA18.jpg,FS,4,num_6,16,num_6,0.666750379489,,,2018_Feb_23_1136,59.9974021556,FEMA4ImagesEEG,001,103206,
AFNE01.JPG,AFNE01.JPG,AFNE01.JPG,AFNE01.JPG,AFNE01.JPG,AFNE01.JPG,,,,,,,,,,,,,,,,,5,8,58,6,,,,,,,AFNE16.jpg,AFNE01.jpg,AFSA14.jpg,AFSA12.jpg,AFNE01.jpg,FN,3,num_6,16,num_6,1.16665656341,,,2018_Feb_23_1136,59.9974021556,FEMA4ImagesEEG,001,103206,
AFNE01.JPG,AFNE01.JPG,AFNE01.JPG,AFNE01.JPG,AFNE01.JPG,AFNE01.JPG,,,,,,,,,,,,,,,,,5,9,59,8,,,,,,,AFSA10.jpg,AFSA09.jpg,AFNE19.jpg,AFNE09.jpg,AFSA09.jpg,FS,4,num_6,16,num_6,1.86671567557,,,2018_Feb_23_1136,59.9974021556,FEMA4ImagesEEG,001,103206,
,,,,,,,,,,,,,,,,,,,,,,,,,,,,,,,,,,,,,,,,,,,space,13.6493749922,2018_Feb_23_1136,59.9974021556,FEMA4ImagesEEG,001,103206,
AFNE01.JPG,AFNE01.JPG,AFNE01.JPG,AFNE01.JPG,AFNE01.JPG,AFNE01.JPG,,,,,,,,,,,,,,,,,,,,,0,0,0,2,,,AMNE01.jpg,AMSA18.jpg,AMNE17.jpg,AMSA08.jpg,AMSA18.jpg,MS,2,num_6,16,num_6,0.650157274329,,,2018_Feb_23_1136,59.9974021556,FEMA4ImagesEEG,001,103206,
AFNE01.JPG,AFNE01.JPG,AFNE01.JPG,AFNE01.JPG,AFNE01.JPG,AFNE01.JPG,,,,,,,,,,,,,,,,,,,,,0,1,1,6,,,AMNE12.jpg,AMSA10.jpg,AMNE05.jpg,AMSA08.jpg,AMNE12.jpg,MN,1,num_8,16,num_8,0.816753218067,,,2018_Feb_23_1136,59.9974021556,FEMA4ImagesEEG,001,103206,
AFNE01.JPG,AFNE01.JPG,AFNE01.JPG,AFNE01.JPG,AFNE01.JPG,AFNE01.JPG,,,,,,,,,,,,,,,,,,,,,0,2,2,9,,,AMSA10.jpg,AMSA20.jpg,AMNE16.jpg,AMNE17.jpg,AMNE17.jpg,MN,1,num_4,16,num_4,0.93346913415,,,2018_Feb_23_1136,59.9974021556,FEMA4ImagesEEG,001,103206,
AFNE01.JPG,AFNE01.JPG,AFNE01.JPG,AFNE01.JPG,AFNE01.JPG,AFNE01.JPG,,,,,,,,,,,,,,,,,,,,,0,3,3,1,,,AMSA09.jpg,AMSA15.jpg,AMNE20.jpg,AMNE06.jpg,AMNE20.jpg,MN,1,num_2,16,num_2,0.583502282621,,,2018_Feb_23_1136,59.9974021556,FEMA4ImagesEEG,001,103206,
AFNE01.JPG,AFNE01.JPG,AFNE01.JPG,AFNE01.JPG,AFNE01.JPG,AFNE01.JPG,,,,,,,,,,,,,,,,,,,,,0,4,4,7,,,AMSA01.jpg,AMSA13.jpg,AMNE10.jpg,AMNE02.jpg,AMSA13.jpg,MS,2,num_6,32,num_2,1.36673026916,,,2018_Feb_23_1136,59.9974021556,FEMA4ImagesEEG,001,103206,
AFNE01.JPG,AFNE01.JPG,AFNE01.JPG,AFNE01.JPG,AFNE01.JPG,AFNE01.JPG,,,,,,,,,,,,,,,,,,,,,0,5,5,5,,,AMSA02.jpg,AMNE13.jpg,AMNE11.jpg,AMSA20.jpg,AMNE13.jpg,MN,1,num_6,32,num_2,1.83347654331,,,2018_Feb_23_1136,59.9974021556,FEMA4ImagesEEG,001,103206,
AFNE01.JPG,AFNE01.JPG,AFNE01.JPG,AFNE01.JPG,AFNE01.JPG,AFNE01.JPG,,,,,,,,,,,,,,,,,,,,,0,6,6,3,,,AMNE06.jpg,AMNE05.jpg,AMSA18.jpg,AMSA08.jpg,AMSA18.jpg,MS,2,num_2,32,num_4,1.36666900804,,,2018_Feb_23_1136,59.9974021556,FEMA4ImagesEEG,001,103206,
AFNE01.JPG,AFNE01.JPG,AFNE01.JPG,AFNE01.JPG,AFNE01.JPG,AFNE01.JPG,,,,,,,,,,,,,,,,,,,,,0,7,7,4,,,AMNE19.jpg,AMSA03.jpg,AMNE04.jpg,AMSA20.jpg,AMNE04.jpg,MN,1,num_2,32,num_6,1.01680030255,,,2018_Feb_23_1136,59.9974021556,FEMA4ImagesEEG,001,103206,
AFNE01.JPG,AFNE01.JPG,AFNE01.JPG,AFNE01.JPG,AFNE01.JPG,AFNE01.JPG,,,,,,,,,,,,,,,,,,,,,0,8,8,8,,,AMSA04.jpg,AMSA08.jpg,AMNE14.jpg,AMNE08.jpg,AMNE08.jpg,MN,1,num_4,32,num_2,1.10013050865,,,2018_Feb_23_1136,59.9974021556,FEMA4ImagesEEG,001,103206,
AFNE01.JPG,AFNE01.JPG,AFNE01.JPG,AFNE01.JPG,AFNE01.JPG,AFNE01.JPG,,,,,,,,,,,,,,,,,,,,,0,9,9,0,,,AMSA02.jpg,AMNE11.jpg,AMSA15.jpg,AMNE15.jpg,AMNE11.jpg,MN,1,num_6,16,num_6,1.55013004353,,,2018_Feb_23_1136,59.9974021556,FEMA4ImagesEEG,001,103206,
AFNE01.JPG,AFNE01.JPG,AFNE01.JPG,AFNE01.JPG,AFNE01.JPG,AFNE01.JPG,,,,,,,,,,,,,,,,,,,,,1,0,10,9,,,AMNE07.jpg,AMSA04.jpg,AMNE17.jpg,AMSA03.jpg,AMSA04.jpg,MS,2,num_6,16,num_6,1.23343119083,,,2018_Feb_23_1136,59.9974021556,FEMA4ImagesEEG,001,103206,
AFNE01.JPG,AFNE01.JPG,AFNE01.JPG,AFNE01.JPG,AFNE01.JPG,AFNE01.JPG,,,,,,,,,,,,,,,,,,,,,1,1,11,7,,,AMNE04.jpg,AMSA01.jpg,AMNE16.jpg,AMSA19.jpg,AMSA01.jpg,MS,2,num_6,16,num_6,0.766801024205,,,2018_Feb_23_1136,59.9974021556,FEMA4ImagesEEG,001,103206,
AFNE01.JPG,AFNE01.JPG,AFNE01.JPG,AFNE01.JPG,AFNE01.JPG,AFNE01.JPG,,,,,,,,,,,,,,,,,,,,,1,2,12,5,,,AMSA10.jpg,AMNE07.jpg,AMNE20.jpg,AMSA09.jpg,AMSA10.jpg,MS,2,num_8,32,num_2,1.28341545851,,,2018_Feb_23_1136,59.9974021556,FEMA4ImagesEEG,001,103206,
AFNE01.JPG,AFNE01.JPG,AFNE01.JPG,AFNE01.JPG,AFNE01.JPG,AFNE01.JPG,,,,,,,,,,,,,,,,,,,,,1,3,13,6,,,AMNE12.jpg,AMSA14.jpg,AMNE18.jpg,AMSA06.jpg,AMSA14.jpg,MS,2,num_6,16,num_6,0.900140515761,,,2018_Feb_23_1136,59.9974021556,FEMA4ImagesEEG,001,103206,
AFNE01.JPG,AFNE01.JPG,AFNE01.JPG,AFNE01.JPG,AFNE01.JPG,AFNE01.JPG,,,,,,,,,,,,,,,,,,,,,1,4,14,8,,,AMSA09.jpg,AMNE05.jpg,AMSA14.jpg,AMNE04.jpg,AMNE04.jpg,MN,1,num_4,16,num_4,0.766801986378,,,2018_Feb_23_1136,59.9974021556,FEMA4ImagesEEG,001,103206,
AFNE01.JPG,AFNE01.JPG,AFNE01.JPG,AFNE01.JPG,AFNE01.JPG,AFNE01.JPG,,,,,,,,,,,,,,,,,,,,,1,5,15,1,,,AMNE04.jpg,AMNE18.jpg,AMSA17.jpg,AMSA14.jpg,AMNE04.jpg,MN,1,num_8,16,num_8,1.08346587862,,,2018_Feb_23_1136,59.9974021556,FEMA4ImagesEEG,001,103206,
AFNE01.JPG,AFNE01.JPG,AFNE01.JPG,AFNE01.JPG,AFNE01.JPG,AFNE01.JPG,,,,,,,,,,,,,,,,,,,,,1,6,16,3,,,AMSA05.jpg,AMNE12.jpg,AMSA15.jpg,AMNE07.jpg,AMNE12.jpg,MN,1,num_6,32,num_2,1.05008016864,,,2018_Feb_23_1136,59.9974021556,FEMA4ImagesEEG,001,103206,
AFNE01.JPG,AFNE01.JPG,AFNE01.JPG,AFNE01.JPG,AFNE01.JPG,AFNE01.JPG,,,,,,,,,,,,,,,,,,,,,1,7,17,4,,,AMNE06.jpg,AMSA18.jpg,AMSA17.jpg,AMNE03.jpg,AMNE06.jpg,MN,1,num_8,16,num_8,0.900190230226,,,2018_Feb_23_1136,59.9974021556,FEMA4ImagesEEG,001,103206,
AFNE01.JPG,AFNE01.JPG,AFNE01.JPG,AFNE01.JPG,AFNE01.JPG,AFNE01.JPG,,,,,,,,,,,,,,,,,,,,,1,8,18,0,,,AMNE19.jpg,AMNE11.jpg,AMSA17.jpg,AMSA10.jpg,AMNE11.jpg,MN,1,num_6,16,num_6,0.883433868876,,,2018_Feb_23_1136,59.9974021556,FEMA4ImagesEEG,001,103206,
AFNE01.JPG,AFNE01.JPG,AFNE01.JPG,AFNE01.JPG,AFNE01.JPG,AFNE01.JPG,,,,,,,,,,,,,,,,,,,,,1,9,19,2,,,AMSA02.jpg,AMNE09.jpg,AMNE07.jpg,AMSA06.jpg,AMNE07.jpg,MN,1,num_2,32,num_6,0.900220700423,,,2018_Feb_23_1136,59.9974021556,FEMA4ImagesEEG,001,103206,
AFNE01.JPG,AFNE01.JPG,AFNE01.JPG,AFNE01.JPG,AFNE01.JPG,AFNE01.JPG,,,,,,,,,,,,,,,,,,,,,2,0,20,4,,,AMSA01.jpg,AMNE18.jpg,AMSA10.jpg,AMNE14.jpg,AMSA01.jpg,MS,2,num_8,32,num_4,1.0004746936,,,2018_Feb_23_1136,59.9974021556,FEMA4ImagesEEG,001,103206,
AFNE01.JPG,AFNE01.JPG,AFNE01.JPG,AFNE01.JPG,AFNE01.JPG,AFNE01.JPG,,,,,,,,,,,,,,,,,,,,,2,1,21,7,,,AMSA13.jpg,AMNE04.jpg,AMSA08.jpg,AMNE10.jpg,AMNE04.jpg,MN,1,num_6,16,num_6,0.783485539956,,,2018_Feb_23_1136,59.9974021556,FEMA4ImagesEEG,001,103206,
AFNE01.JPG,AFNE01.JPG,AFNE01.JPG,AFNE01.JPG,AFNE01.JPG,AFNE01.JPG,,,,,,,,,,,,,,,,,,,,,2,2,22,5,,,AMNE01.jpg,AMNE19.jpg,AMSA13.jpg,AMSA06.jpg,AMSA06.jpg,MS,2,num_4,32,num_6,0.866794577334,,,2018_Feb_23_1136,59.9974021556,FEMA4ImagesEEG,001,103206,
AFNE01.JPG,AFNE01.JPG,AFNE01.JPG,AFNE01.JPG,AFNE01.JPG,AFNE01.JPG,,,,,,,,,,,,,,,,,,,,,2,3,23,0,,,AMNE12.jpg,AMSA01.jpg,AMSA03.jpg,AMNE20.jpg,AMSA01.jpg,MS,2,num_6,16,num_6,1.0502200108,,,2018_Feb_23_1136,59.9974021556,FEMA4ImagesEEG,001,103206,
AFNE01.JPG,AFNE01.JPG,AFNE01.JPG,AFNE01.JPG,AFNE01.JPG,AFNE01.JPG,,,,,,,,,,,,,,,,,,,,,2,4,24,2,,,AMSA13.jpg,AMNE01.jpg,AMNE12.jpg,AMSA07.jpg,AMSA13.jpg,MS,2,num_8,32,num_2,1.86679618107,,,2018_Feb_23_1136,59.9974021556,FEMA4ImagesEEG,001,103206,
AFNE01.JPG,AFNE01.JPG,AFNE01.JPG,AFNE01.JPG,AFNE01.JPG,AFNE01.JPG,,,,,,,,,,,,,,,,,,,,,2,5,25,1,,,AMSA17.jpg,AMNE01.jpg,AMNE03.jpg,AMSA05.jpg,AMNE03.jpg,MN,1,num_2,16,num_2,1.30065324879,,,2018_Feb_23_1136,59.9974021556,FEMA4ImagesEEG,001,103206,
AFNE01.JPG,AFNE01.JPG,AFNE01.JPG,AFNE01.JPG,AFNE01.JPG,AFNE01.JPG,,,,,,,,,,,,,,,,,,,,,2,6,26,9,,,AMNE16.jpg,AMSA09.jpg,AMNE06.jpg,AMSA08.jpg,AMNE16.jpg,MN,1,num_8,32,num_4,0.88346081099,,,2018_Feb_23_1136,59.9974021556,FEMA4ImagesEEG,001,103206,
AFNE01.JPG,AFNE01.JPG,AFNE01.JPG,AFNE01.JPG,AFNE01.JPG,AFNE01.JPG,,,,,,,,,,,,,,,,,,,,,2,7,27,8,,,AMNE10.jpg,AMSA09.jpg,AMSA15.jpg,AMNE20.jpg,AMNE20.jpg,MN,1,num_4,16,num_4,0.850171001977,,,2018_Feb_23_1136,59.9974021556,FEMA4ImagesEEG,001,103206,
AFNE01.JPG,AFNE01.JPG,AFNE01.JPG,AFNE01.JPG,AFNE01.JPG,AFNE01.JPG,,,,,,,,,,,,,,,,,,,,,2,8,28,6,,,AMNE10.jpg,AMSA09.jpg,AMNE19.jpg,AMSA08.jpg,AMNE19.jpg,MN,1,num_2,16,num_2,1.21677810734,,,2018_Feb_23_1136,59.9974021556,FEMA4ImagesEEG,001,103206,
AFNE01.JPG,AFNE01.JPG,AFNE01.JPG,AFNE01.JPG,AFNE01.JPG,AFNE01.JPG,,,,,,,,,,,,,,,,,,,,,2,9,29,3,,,AMNE13.jpg,AMSA08.jpg,AMNE04.jpg,AMSA02.jpg,AMSA02.jpg,MS,2,num_4,16,num_4,3.39993893134,,,2018_Feb_23_1136,59.9974021556,FEMA4ImagesEEG,001,103206,
AFNE01.JPG,AFNE01.JPG,AFNE01.JPG,AFNE01.JPG,AFNE01.JPG,AFNE01.JPG,,,,,,,,,,,,,,,,,,,,,3,0,30,3,,,AMNE19.jpg,AMSA19.jpg,AMSA12.jpg,AMNE02.jpg,AMNE02.jpg,MN,1,num_4,16,num_4,1.03346589475,,,2018_Feb_23_1136,59.9974021556,FEMA4ImagesEEG,001,103206,
AFNE01.JPG,AFNE01.JPG,AFNE01.JPG,AFNE01.JPG,AFNE01.JPG,AFNE01.JPG,,,,,,,,,,,,,,,,,,,,,3,1,31,5,,,AMNE13.jpg,AMNE12.jpg,AMSA16.jpg,AMSA13.jpg,AMSA13.jpg,MS,2,num_4,32,num_2,0.75012613053,,,2018_Feb_23_1136,59.9974021556,FEMA4ImagesEEG,001,103206,
AFNE01.JPG,AFNE01.JPG,AFNE01.JPG,AFNE01.JPG,AFNE01.JPG,AFNE01.JPG,,,,,,,,,,,,,,,,,,,,,3,2,32,7,,,AMSA09.jpg,AMNE12.jpg,AMNE18.jpg,AMSA06.jpg,AMSA06.jpg,MS,2,num_4,32,num_6,0.883420077153,,,2018_Feb_23_1136,59.9974021556,FEMA4ImagesEEG,001,103206,
AFNE01.JPG,AFNE01.JPG,AFNE01.JPG,AFNE01.JPG,AFNE01.JPG,AFNE01.JPG,,,,,,,,,,,,,,,,,,,,,3,3,33,1,,,AMNE08.jpg,AMSA11.jpg,AMNE17.jpg,AMSA17.jpg,AMNE17.jpg,MN,1,num_2,16,num_2,0.866659866995,,,2018_Feb_23_1136,59.9974021556,FEMA4ImagesEEG,001,103206,
AFNE01.JPG,AFNE01.JPG,AFNE01.JPG,AFNE01.JPG,AFNE01.JPG,AFNE01.JPG,,,,,,,,,,,,,,,,,,,,,3,4,34,2,,,AMNE09.jpg,AMSA12.jpg,AMNE04.jpg,AMSA17.jpg,AMNE04.jpg,MN,1,num_2,16,num_2,1.60005882347,,,2018_Feb_23_1136,59.9974021556,FEMA4ImagesEEG,001,103206,
AFNE01.JPG,AFNE01.JPG,AFNE01.JPG,AFNE01.JPG,AFNE01.JPG,AFNE01.JPG,,,,,,,,,,,,,,,,,,,,,3,5,35,8,,,AMNE02.jpg,AMSA11.jpg,AMSA09.jpg,AMNE01.jpg,AMNE01.jpg,MN,1,num_4,32,num_8,1.18343505566,,,2018_Feb_23_1136,59.9974021556,FEMA4ImagesEEG,001,103206,
AFNE01.JPG,AFNE01.JPG,AFNE01.JPG,AFNE01.JPG,AFNE01.JPG,AFNE01.JPG,,,,,,,,,,,,,,,,,,,,,3,6,36,6,,,AMSA03.jpg,AMNE07.jpg,AMSA12.jpg,AMNE19.jpg,AMNE19.jpg,MN,1,num_4,32,num_6,0.9334954347,,,2018_Feb_23_1136,59.9974021556,FEMA4ImagesEEG,001,103206,
AFNE01.JPG,AFNE01.JPG,AFNE01.JPG,AFNE01.JPG,AFNE01.JPG,AFNE01.JPG,,,,,,,,,,,,,,,,,,,,,3,7,37,0,,,AMSA15.jpg,AMNE08.jpg,AMNE01.jpg,AMSA11.jpg,AMNE01.jpg,MN,1,num_2,16,num_2,1.48338171677,,,2018_Feb_23_1136,59.9974021556,FEMA4ImagesEEG,001,103206,
AFNE01.JPG,AFNE01.JPG,AFNE01.JPG,AFNE01.JPG,AFNE01.JPG,AFNE01.JPG,,,,,,,,,,,,,,,,,,,,,3,8,38,4,,,AMSA06.jpg,AMSA13.jpg,AMNE13.jpg,AMNE04.jpg,AMNE04.jpg,MN,1,num_4,16,num_4,0.733505441807,,,2018_Feb_23_1136,59.9974021556,FEMA4ImagesEEG,001,103206,
AFNE01.JPG,AFNE01.JPG,AFNE01.JPG,AFNE01.JPG,AFNE01.JPG,AFNE01.JPG,,,,,,,,,,,,,,,,,,,,,3,9,39,9,,,AMSA04.jpg,AMNE15.jpg,AMNE14.jpg,AMSA05.jpg,AMNE15.jpg,MN,1,num_6,16,num_6,0.816879268503,,,2018_Feb_23_1136,59.9974021556,FEMA4ImagesEEG,001,103206,
