IPosition2,IPosition3,IPosition1,IPosition6,IPosition4,IPosition5,TrialsM1.thisRepN,TrialsM1.thisTrialN,TrialsM1.thisN,TrialsM1.thisIndex,TrialsF1.thisRepN,TrialsF1.thisTrialN,TrialsF1.thisN,TrialsF1.thisIndex,TrialsM2.thisRepN,TrialsM2.thisTrialN,TrialsM2.thisN,TrialsM2.thisIndex,TrialsF2.thisRepN,TrialsF2.thisTrialN,TrialsF2.thisN,TrialsF2.thisIndex,TrialsM3.thisRepN,TrialsM3.thisTrialN,TrialsM3.thisN,TrialsM3.thisIndex,TrialsF3.thisRepN,TrialsF3.thisTrialN,TrialsF3.thisN,TrialsF3.thisIndex,InstrKey_resp.keys,InstrKey_resp.rt,Image0 _Position,Image1 _Position,Image2 _Position,Image3 _Position,Center_image,condition,code,correct_answer,accuracy,Key_Resp.keys,Key_Resp.rt,BreakKey_resp.keys,BreakKey_resp.rt,date,frameRate,expName,session,participant,
,,,,,,,,,,,,,,,,,,,,,,,,,,,,,,space,21.1490083707,,,,,,,,,,,,,,2018_Mar_23_1449,59.991225859,MAFE4ImagesEEG,001,103218,
AFNE22.JPG,AFSA24.JPG,AFSA22.JPG,AFNE25.JPG,AFNE24.JPG,AFSA25.JPG,0,0,0,6,,,,,,,,,,,,,,,,,,,,,,,AMSA01.jpg,AMNE05.jpg,AMNE01.jpg,AMSA17.jpg,AMNE05.jpg,MN,1,num_6,32,num_4,2.58340566002,,,2018_Mar_23_1449,59.991225859,MAFE4ImagesEEG,001,103218,
AFSA21.JPG,AFNE23.JPG,AFNE21.JPG,AFSA25.JPG,AFNE25.JPG,AFSA23.JPG,0,1,1,4,,,,,,,,,,,,,,,,,,,,,,,AMSA12.jpg,AMSA20.jpg,AMNE03.jpg,AMNE19.jpg,AMNE03.jpg,MN,1,num_2,16,num_2,4.43315250058,,,2018_Mar_23_1449,59.991225859,MAFE4ImagesEEG,001,103218,
AFNE23.JPG,AFNE24.JPG,AFNE22.JPG,AFSA24.JPG,AFSA22.JPG,AFSA23.JPG,0,2,2,8,,,,,,,,,,,,,,,,,,,,,,,AMSA17.jpg,AMNE17.jpg,AMSA10.jpg,AMNE16.jpg,AMNE16.jpg,MN,1,num_4,32,num_6,3.98316119261,,,2018_Mar_23_1449,59.991225859,MAFE4ImagesEEG,001,103218,
AMSA25.JPG,AMNE24.JPG,AMSA24.JPG,AMNE26.JPG,AMSA21.JPG,AMNE25.JPG,0,3,3,3,,,,,,,,,,,,,,,,,,,,,,,AMSA01.jpg,AMSA09.jpg,AMNE02.jpg,AMNE08.jpg,AMSA09.jpg,MS,2,num_6,32,num_4,3.69961748644,,,2018_Mar_23_1449,59.991225859,MAFE4ImagesEEG,001,103218,
AMNE23.JPG,AMNE24.JPG,AMNE22.JPG,AMSA24.JPG,AMSA22.JPG,AMSA23.JPG,0,4,4,9,,,,,,,,,,,,,,,,,,,,,,,AMNE02.jpg,AMSA12.jpg,AMNE04.jpg,AMSA07.jpg,AMNE02.jpg,MN,1,num_8,32,num_2,3.66668077919,,,2018_Mar_23_1449,59.991225859,MAFE4ImagesEEG,001,103218,
AFSA21.JPG,AFNE22.JPG,AFNE21.JPG,AFSA23.JPG,AFSA22.JPG,AFNE23.JPG,0,5,5,0,,,,,,,,,,,,,,,,,,,,,,,AMSA08.jpg,AMSA11.jpg,AMNE19.jpg,AMNE08.jpg,AMNE08.jpg,MN,1,num_4,16,num_4,1.20019449624,,,2018_Mar_23_1449,59.991225859,MAFE4ImagesEEG,001,103218,
AMSA21.JPG,AMNE22.JPG,AMNE21.JPG,AMSA23.JPG,AMSA22.JPG,AMNE23.JPG,0,6,6,1,,,,,,,,,,,,,,,,,,,,,,,AMNE17.jpg,AMSA14.jpg,AMNE03.jpg,AMSA05.jpg,AMNE03.jpg,MN,1,num_2,16,num_2,2.73333775953,,,2018_Mar_23_1449,59.991225859,MAFE4ImagesEEG,001,103218,
AMNE22.JPG,AMSA24.JPG,AMSA22.JPG,AMNE25.JPG,AMNE24.JPG,AMSA25.JPG,0,7,7,7,,,,,,,,,,,,,,,,,,,,,,,AMNE08.jpg,AMNE14.jpg,AMSA13.jpg,AMSA05.jpg,AMNE14.jpg,MN,1,num_6,32,num_2,4.68318922522,,,2018_Mar_23_1449,59.991225859,MAFE4ImagesEEG,001,103218,
AMSA21.JPG,AMNE23.JPG,AMNE21.JPG,AMSA25.JPG,AMNE25.JPG,AMSA23.JPG,0,8,8,5,,,,,,,,,,,,,,,,,,,,,,,AMSA10.jpg,AMNE03.jpg,AMNE15.jpg,AMSA05.jpg,AMSA10.jpg,MS,2,num_8,32,num_6,4.84981259209,,,2018_Mar_23_1449,59.991225859,MAFE4ImagesEEG,001,103218,
AFSA25.JPG,AFNE24.JPG,AFSA24.JPG,AFNE21.JPG,AFSA21.JPG,AFNE25.JPG,0,9,9,2,,,,,,,,,,,,,,,,,,,,,,,AMSA06.jpg,AMSA20.jpg,AMNE11.jpg,AMNE19.jpg,AMNE19.jpg,MN,1,num_4,32,num_2,2.65000554879,,,2018_Mar_23_1449,59.991225859,MAFE4ImagesEEG,001,103218,
AMNE23.JPG,AMNE24.JPG,AMNE22.JPG,AMSA24.JPG,AMSA22.JPG,AMSA23.JPG,,,,,0,0,0,9,,,,,,,,,,,,,,,,,,,AFSA13.jpg,AFNE14.jpg,AFNE02.jpg,AFSA07.jpg,AFNE02.jpg,FN,3,num_2,32,num_4,3.58295854959,,,2018_Mar_23_1449,59.991225859,MAFE4ImagesEEG,001,103218,
AMSA21.JPG,AMNE22.JPG,AMNE21.JPG,AMSA23.JPG,AMSA22.JPG,AMNE23.JPG,,,,,0,1,1,1,,,,,,,,,,,,,,,,,,,AFNE13.jpg,AFNE04.jpg,AFSA16.jpg,AFSA11.jpg,AFSA16.jpg,FS,4,num_2,48,None,,,,2018_Mar_23_1449,59.991225859,MAFE4ImagesEEG,001,103218,
AFNE23.JPG,AFNE24.JPG,AFNE22.JPG,AFSA24.JPG,AFSA22.JPG,AFSA23.JPG,,,,,0,2,2,8,,,,,,,,,,,,,,,,,,,AFSA18.jpg,AFNE03.jpg,AFSA16.jpg,AFNE12.jpg,AFNE12.jpg,FN,3,num_4,32,num_6,3.36689612348,,,2018_Mar_23_1449,59.991225859,MAFE4ImagesEEG,001,103218,
AMNE22.JPG,AMSA24.JPG,AMSA22.JPG,AMNE25.JPG,AMNE24.JPG,AMSA25.JPG,,,,,0,3,3,7,,,,,,,,,,,,,,,,,,,AFSA16.jpg,AFSA03.jpg,AFNE07.jpg,AFNE19.jpg,AFNE07.jpg,FN,3,num_2,16,num_2,1.30010250824,,,2018_Mar_23_1449,59.991225859,MAFE4ImagesEEG,001,103218,
AFSA21.JPG,AFNE22.JPG,AFNE21.JPG,AFSA23.JPG,AFSA22.JPG,AFNE23.JPG,,,,,0,4,4,0,,,,,,,,,,,,,,,,,,,AFSA14.jpg,AFNE04.jpg,AFNE14.jpg,AFSA09.jpg,AFNE14.jpg,FN,3,num_2,32,num_4,3.1166339192,,,2018_Mar_23_1449,59.991225859,MAFE4ImagesEEG,001,103218,
AMSA25.JPG,AMNE24.JPG,AMSA24.JPG,AMNE26.JPG,AMSA21.JPG,AMNE25.JPG,,,,,0,5,5,3,,,,,,,,,,,,,,,,,,,AFSA19.jpg,AFNE08.jpg,AFSA11.jpg,AFNE13.jpg,AFSA19.jpg,FS,4,num_8,32,num_6,2.94995249853,,,2018_Mar_23_1449,59.991225859,MAFE4ImagesEEG,001,103218,
AFSA25.JPG,AFNE24.JPG,AFSA24.JPG,AFNE21.JPG,AFSA21.JPG,AFNE25.JPG,,,,,0,6,6,2,,,,,,,,,,,,,,,,,,,AFSA10.jpg,AFSA15.jpg,AFNE18.jpg,AFNE19.jpg,AFNE19.jpg,FN,3,num_4,16,num_4,2.16664261123,,,2018_Mar_23_1449,59.991225859,MAFE4ImagesEEG,001,103218,
AFNE22.JPG,AFSA24.JPG,AFSA22.JPG,AFNE25.JPG,AFNE24.JPG,AFSA25.JPG,,,,,0,7,7,6,,,,,,,,,,,,,,,,,,,AFSA14.jpg,AFSA09.jpg,AFNE04.jpg,AFNE14.jpg,AFNE14.jpg,FN,3,num_4,32,num_2,4.88319737199,,,2018_Mar_23_1449,59.991225859,MAFE4ImagesEEG,001,103218,
AMSA21.JPG,AMNE23.JPG,AMNE21.JPG,AMSA25.JPG,AMNE25.JPG,AMSA23.JPG,,,,,0,8,8,5,,,,,,,,,,,,,,,,,,,AFNE20.jpg,AFSA07.jpg,AFSA05.jpg,AFNE10.jpg,AFNE20.jpg,FN,3,num_8,32,num_2,2.4000429149,,,2018_Mar_23_1449,59.991225859,MAFE4ImagesEEG,001,103218,
AFSA21.JPG,AFNE23.JPG,AFNE21.JPG,AFSA25.JPG,AFNE25.JPG,AFSA23.JPG,,,,,0,9,9,4,,,,,,,,,,,,,,,,,,,AFSA20.jpg,AFNE09.jpg,AFSA19.jpg,AFNE18.jpg,AFSA20.jpg,FS,4,num_8,16,num_8,1.40008621469,,,2018_Mar_23_1449,59.991225859,MAFE4ImagesEEG,001,103218,
AFSA21.JPG,AFNE23.JPG,AFNE21.JPG,AFSA25.JPG,AFNE25.JPG,AFSA23.JPG,,,,,,,,,0,0,0,4,,,,,,,,,,,,,,,AMNE07.jpg,AMNE10.jpg,AMSA18.jpg,AMSA14.jpg,AMNE07.jpg,MN,1,num_8,32,num_6,1.20011495293,,,2018_Mar_23_1449,59.991225859,MAFE4ImagesEEG,001,103218,
AFSA25.JPG,AFNE24.JPG,AFSA24.JPG,AFNE21.JPG,AFSA21.JPG,AFNE25.JPG,,,,,,,,,0,1,1,2,,,,,,,,,,,,,,,AMSA18.jpg,AMNE07.jpg,AMSA19.jpg,AMNE09.jpg,AMNE09.jpg,MN,1,num_4,16,num_4,4.26663754355,,,2018_Mar_23_1449,59.991225859,MAFE4ImagesEEG,001,103218,
AFSA21.JPG,AFNE22.JPG,AFNE21.JPG,AFSA23.JPG,AFSA22.JPG,AFNE23.JPG,,,,,,,,,0,2,2,0,,,,,,,,,,,,,,,AMNE19.jpg,AMSA17.jpg,AMNE07.jpg,AMSA15.jpg,AMSA17.jpg,MS,2,num_6,16,num_6,1.33348728814,,,2018_Mar_23_1449,59.991225859,MAFE4ImagesEEG,001,103218,
AMNE22.JPG,AMSA24.JPG,AMSA22.JPG,AMNE25.JPG,AMNE24.JPG,AMSA25.JPG,,,,,,,,,0,3,3,7,,,,,,,,,,,,,,,AMNE17.jpg,AMSA06.jpg,AMNE01.jpg,AMSA11.jpg,AMNE17.jpg,MN,1,num_8,32,num_4,1.71663334186,,,2018_Mar_23_1449,59.991225859,MAFE4ImagesEEG,001,103218,
AMSA25.JPG,AMNE24.JPG,AMSA24.JPG,AMNE26.JPG,AMSA21.JPG,AMNE25.JPG,,,,,,,,,0,4,4,3,,,,,,,,,,,,,,,AMNE14.jpg,AMSA11.jpg,AMSA06.jpg,AMNE05.jpg,AMSA11.jpg,MS,2,num_6,32,num_2,2.41665335599,,,2018_Mar_23_1449,59.991225859,MAFE4ImagesEEG,001,103218,
AMSA21.JPG,AMNE23.JPG,AMNE21.JPG,AMSA25.JPG,AMNE25.JPG,AMSA23.JPG,,,,,,,,,0,5,5,5,,,,,,,,,,,,,,,AMSA08.jpg,AMNE14.jpg,AMSA07.jpg,AMNE01.jpg,AMNE01.jpg,MN,1,num_4,32,num_8,1.58342458363,,,2018_Mar_23_1449,59.991225859,MAFE4ImagesEEG,001,103218,
AMSA21.JPG,AMNE22.JPG,AMNE21.JPG,AMSA23.JPG,AMSA22.JPG,AMNE23.JPG,,,,,,,,,0,6,6,1,,,,,,,,,,,,,,,AMNE06.jpg,AMSA20.jpg,AMNE14.jpg,AMSA15.jpg,AMNE06.jpg,MN,1,num_8,16,num_8,1.31686305527,,,2018_Mar_23_1449,59.991225859,MAFE4ImagesEEG,001,103218,
AMNE23.JPG,AMNE24.JPG,AMNE22.JPG,AMSA24.JPG,AMSA22.JPG,AMSA23.JPG,,,,,,,,,0,7,7,9,,,,,,,,,,,,,,,AMNE06.jpg,AMNE17.jpg,AMSA13.jpg,AMSA12.jpg,AMSA12.jpg,MS,2,num_4,16,num_4,1.46675089278,,,2018_Mar_23_1449,59.991225859,MAFE4ImagesEEG,001,103218,
AFNE22.JPG,AFSA24.JPG,AFSA22.JPG,AFNE25.JPG,AFNE24.JPG,AFSA25.JPG,,,,,,,,,0,8,8,6,,,,,,,,,,,,,,,AMSA02.jpg,AMNE07.jpg,AMNE08.jpg,AMSA18.jpg,AMSA18.jpg,MS,2,num_4,16,num_4,1.4334129408,,,2018_Mar_23_1449,59.991225859,MAFE4ImagesEEG,001,103218,
AFNE23.JPG,AFNE24.JPG,AFNE22.JPG,AFSA24.JPG,AFSA22.JPG,AFSA23.JPG,,,,,,,,,0,9,9,8,,,,,,,,,,,,,,,AMSA14.jpg,AMNE06.jpg,AMSA08.jpg,AMNE02.jpg,AMSA14.jpg,MS,2,num_8,32,num_2,1.28349046346,,,2018_Mar_23_1449,59.991225859,MAFE4ImagesEEG,001,103218,
AMSA21.JPG,AMNE22.JPG,AMNE21.JPG,AMSA23.JPG,AMSA22.JPG,AMNE23.JPG,,,,,,,,,,,,,0,0,0,1,,,,,,,,,,,AFNE19.jpg,AFSA09.jpg,AFNE11.jpg,AFSA15.jpg,AFSA09.jpg,FS,4,num_6,16,num_6,1.18344004326,,,2018_Mar_23_1449,59.991225859,MAFE4ImagesEEG,001,103218,
AMSA25.JPG,AMNE24.JPG,AMSA24.JPG,AMNE26.JPG,AMSA21.JPG,AMNE25.JPG,,,,,,,,,,,,,0,1,1,3,,,,,,,,,,,AFSA20.jpg,AFNE07.jpg,AFSA17.jpg,AFNE04.jpg,AFSA20.jpg,FS,4,num_8,32,num_6,1.31673732551,,,2018_Mar_23_1449,59.991225859,MAFE4ImagesEEG,001,103218,
AMSA21.JPG,AMNE23.JPG,AMNE21.JPG,AMSA25.JPG,AMNE25.JPG,AMSA23.JPG,,,,,,,,,,,,,0,2,2,5,,,,,,,,,,,AFNE08.jpg,AFSA10.jpg,AFSA02.jpg,AFNE07.jpg,AFSA02.jpg,FS,4,num_2,32,num_8,1.10012226578,,,2018_Mar_23_1449,59.991225859,MAFE4ImagesEEG,001,103218,
AMNE23.JPG,AMNE24.JPG,AMNE22.JPG,AMSA24.JPG,AMSA22.JPG,AMSA23.JPG,,,,,,,,,,,,,0,3,3,9,,,,,,,,,,,AFSA19.jpg,AFNE15.jpg,AFNE03.jpg,AFSA06.jpg,AFSA06.jpg,FS,4,num_4,16,num_4,1.26675814148,,,2018_Mar_23_1449,59.991225859,MAFE4ImagesEEG,001,103218,
AMNE22.JPG,AMSA24.JPG,AMSA22.JPG,AMNE25.JPG,AMNE24.JPG,AMSA25.JPG,,,,,,,,,,,,,0,4,4,7,,,,,,,,,,,AFNE17.jpg,AFSA08.jpg,AFSA06.jpg,AFNE01.jpg,AFSA08.jpg,FS,4,num_6,32,num_2,1.38338917403,,,2018_Mar_23_1449,59.991225859,MAFE4ImagesEEG,001,103218,
AFSA25.JPG,AFNE24.JPG,AFSA24.JPG,AFNE21.JPG,AFSA21.JPG,AFNE25.JPG,,,,,,,,,,,,,0,5,5,2,,,,,,,,,,,AFSA03.jpg,AFNE09.jpg,AFSA11.jpg,AFNE20.jpg,AFSA03.jpg,FS,4,num_8,32,num_4,1.60007832451,,,2018_Mar_23_1449,59.991225859,MAFE4ImagesEEG,001,103218,
AFNE23.JPG,AFNE24.JPG,AFNE22.JPG,AFSA24.JPG,AFSA22.JPG,AFSA23.JPG,,,,,,,,,,,,,0,6,6,8,,,,,,,,,,,AFSA08.jpg,AFNE19.jpg,AFNE17.jpg,AFSA17.jpg,AFNE19.jpg,FN,3,num_6,16,num_6,3.26658109345,,,2018_Mar_23_1449,59.991225859,MAFE4ImagesEEG,001,103218,
AFSA21.JPG,AFNE22.JPG,AFNE21.JPG,AFSA23.JPG,AFSA22.JPG,AFNE23.JPG,,,,,,,,,,,,,0,7,7,0,,,,,,,,,,,AFNE15.jpg,AFNE14.jpg,AFSA20.jpg,AFSA16.jpg,AFSA16.jpg,FS,4,num_4,32,num_2,2.38333208245,,,2018_Mar_23_1449,59.991225859,MAFE4ImagesEEG,001,103218,
AFSA21.JPG,AFNE23.JPG,AFNE21.JPG,AFSA25.JPG,AFNE25.JPG,AFSA23.JPG,,,,,,,,,,,,,0,8,8,4,,,,,,,,,,,AFNE11.jpg,AFSA10.jpg,AFSA06.jpg,AFNE18.jpg,AFSA10.jpg,FS,4,num_6,16,num_6,1.85008489966,,,2018_Mar_23_1449,59.991225859,MAFE4ImagesEEG,001,103218,
AFNE22.JPG,AFSA24.JPG,AFSA22.JPG,AFNE25.JPG,AFNE24.JPG,AFSA25.JPG,,,,,,,,,,,,,0,9,9,6,,,,,,,,,,,AFSA02.jpg,AFNE02.jpg,AFSA03.jpg,AFNE12.jpg,AFNE12.jpg,FN,3,num_4,32,num_2,3.08360259388,,,2018_Mar_23_1449,59.991225859,MAFE4ImagesEEG,001,103218,
AMSA21.JPG,AMNE22.JPG,AMNE21.JPG,AMSA23.JPG,AMSA22.JPG,AMNE23.JPG,,,,,,,,,,,,,,,,,0,0,0,1,,,,,,,AMSA07.jpg,AMNE09.jpg,AMSA01.jpg,AMNE10.jpg,AMNE10.jpg,MN,1,num_4,16,num_4,1.06673203331,,,2018_Mar_23_1449,59.991225859,MAFE4ImagesEEG,001,103218,
AFNE23.JPG,AFNE24.JPG,AFNE22.JPG,AFSA24.JPG,AFSA22.JPG,AFSA23.JPG,,,,,,,,,,,,,,,,,0,1,1,8,,,,,,,AMNE05.jpg,AMSA03.jpg,AMNE16.jpg,AMSA17.jpg,AMNE16.jpg,MN,1,num_2,32,num_8,2.41669441061,,,2018_Mar_23_1449,59.991225859,MAFE4ImagesEEG,001,103218,
AFSA21.JPG,AFNE22.JPG,AFNE21.JPG,AFSA23.JPG,AFSA22.JPG,AFNE23.JPG,,,,,,,,,,,,,,,,,0,2,2,0,,,,,,,AMSA09.jpg,AMNE12.jpg,AMSA12.jpg,AMNE11.jpg,AMSA09.jpg,MS,2,num_8,16,num_8,2.83336957686,,,2018_Mar_23_1449,59.991225859,MAFE4ImagesEEG,001,103218,
AFSA25.JPG,AFNE24.JPG,AFSA24.JPG,AFNE21.JPG,AFSA21.JPG,AFNE25.JPG,,,,,,,,,,,,,,,,,0,3,3,2,,,,,,,AMNE01.jpg,AMNE07.jpg,AMSA18.jpg,AMSA08.jpg,AMSA18.jpg,MS,2,num_2,16,num_2,0.85012563354,,,2018_Mar_23_1449,59.991225859,MAFE4ImagesEEG,001,103218,
AMNE22.JPG,AMSA24.JPG,AMSA22.JPG,AMNE25.JPG,AMNE24.JPG,AMSA25.JPG,,,,,,,,,,,,,,,,,0,4,4,7,,,,,,,AMNE18.jpg,AMSA10.jpg,AMSA20.jpg,AMNE01.jpg,AMSA20.jpg,MS,2,num_2,32,num_4,1.61683181527,,,2018_Mar_23_1449,59.991225859,MAFE4ImagesEEG,001,103218,
AMSA21.JPG,AMNE23.JPG,AMNE21.JPG,AMSA25.JPG,AMNE25.JPG,AMSA23.JPG,,,,,,,,,,,,,,,,,0,5,5,5,,,,,,,AMSA09.jpg,AMNE02.jpg,AMSA15.jpg,AMNE06.jpg,AMSA09.jpg,MS,2,num_8,32,num_2,1.23347503591,,,2018_Mar_23_1449,59.991225859,MAFE4ImagesEEG,001,103218,
AFSA21.JPG,AFNE23.JPG,AFNE21.JPG,AFSA25.JPG,AFNE25.JPG,AFSA23.JPG,,,,,,,,,,,,,,,,,0,6,6,4,,,,,,,AMSA02.jpg,AMNE05.jpg,AMSA09.jpg,AMNE02.jpg,AMSA02.jpg,MS,2,num_8,16,num_8,1.11672789578,,,2018_Mar_23_1449,59.991225859,MAFE4ImagesEEG,001,103218,
AMNE23.JPG,AMNE24.JPG,AMNE22.JPG,AMSA24.JPG,AMSA22.JPG,AMSA23.JPG,,,,,,,,,,,,,,,,,0,7,7,9,,,,,,,AMNE06.jpg,AMNE08.jpg,AMSA05.jpg,AMSA02.jpg,AMSA05.jpg,MS,2,num_2,32,num_6,1.45009458599,,,2018_Mar_23_1449,59.991225859,MAFE4ImagesEEG,001,103218,
AFNE22.JPG,AFSA24.JPG,AFSA22.JPG,AFNE25.JPG,AFNE24.JPG,AFSA25.JPG,,,,,,,,,,,,,,,,,0,8,8,6,,,,,,,AMSA10.jpg,AMSA19.jpg,AMNE03.jpg,AMNE06.jpg,AMNE03.jpg,MN,1,num_2,32,num_4,2.25005372381,,,2018_Mar_23_1449,59.991225859,MAFE4ImagesEEG,001,103218,
AMSA25.JPG,AMNE24.JPG,AMSA24.JPG,AMNE26.JPG,AMSA21.JPG,AMNE25.JPG,,,,,,,,,,,,,,,,,0,9,9,3,,,,,,,AMSA18.jpg,AMNE20.jpg,AMSA01.jpg,AMNE16.jpg,AMNE16.jpg,MN,1,num_4,16,num_4,0.933442448805,,,2018_Mar_23_1449,59.991225859,MAFE4ImagesEEG,001,103218,
AMSA21.JPG,AMNE22.JPG,AMNE21.JPG,AMSA23.JPG,AMSA22.JPG,AMNE23.JPG,,,,,,,,,,,,,,,,,,,,,0,0,0,1,,,AFSA10.jpg,AFSA12.jpg,AFNE02.jpg,AFNE16.jpg,AFSA10.jpg,FS,4,num_8,32,num_6,1.28342535341,,,2018_Mar_23_1449,59.991225859,MAFE4ImagesEEG,001,103218,
AMSA21.JPG,AMNE23.JPG,AMNE21.JPG,AMSA25.JPG,AMNE25.JPG,AMSA23.JPG,,,,,,,,,,,,,,,,,,,,,0,1,1,5,,,AFSA13.jpg,AFNE10.jpg,AFNE03.jpg,AFSA07.jpg,AFSA07.jpg,FS,4,num_4,32,num_8,3.38325253913,,,2018_Mar_23_1449,59.991225859,MAFE4ImagesEEG,001,103218,
AMNE22.JPG,AMSA24.JPG,AMSA22.JPG,AMNE25.JPG,AMNE24.JPG,AMSA25.JPG,,,,,,,,,,,,,,,,,,,,,0,2,2,7,,,AFNE06.jpg,AFNE09.jpg,AFSA17.jpg,AFSA08.jpg,AFNE06.jpg,FN,3,num_8,32,num_4,1.50004971457,,,2018_Mar_23_1449,59.991225859,MAFE4ImagesEEG,001,103218,
AMNE23.JPG,AMNE24.JPG,AMNE22.JPG,AMSA24.JPG,AMSA22.JPG,AMSA23.JPG,,,,,,,,,,,,,,,,,,,,,0,3,3,9,,,AFNE01.jpg,AFNE04.jpg,AFSA10.jpg,AFSA07.jpg,AFSA07.jpg,FS,4,num_4,32,num_6,2.69995169668,,,2018_Mar_23_1449,59.991225859,MAFE4ImagesEEG,001,103218,
AFNE23.JPG,AFNE24.JPG,AFNE22.JPG,AFSA24.JPG,AFSA22.JPG,AFSA23.JPG,,,,,,,,,,,,,,,,,,,,,0,4,4,8,,,AFSA02.jpg,AFNE15.jpg,AFSA09.jpg,AFNE01.jpg,AFNE15.jpg,FN,3,num_6,32,num_2,1.38334266684,,,2018_Mar_23_1449,59.991225859,MAFE4ImagesEEG,001,103218,
AMSA25.JPG,AMNE24.JPG,AMSA24.JPG,AMNE26.JPG,AMSA21.JPG,AMNE25.JPG,,,,,,,,,,,,,,,,,,,,,0,5,5,3,,,AFSA02.jpg,AFNE16.jpg,AFSA14.jpg,AFNE03.jpg,AFNE03.jpg,FN,3,num_4,32,num_6,2.09982012946,,,2018_Mar_23_1449,59.991225859,MAFE4ImagesEEG,001,103218,
AFNE22.JPG,AFSA24.JPG,AFSA22.JPG,AFNE25.JPG,AFNE24.JPG,AFSA25.JPG,,,,,,,,,,,,,,,,,,,,,0,6,6,6,,,AFSA19.jpg,AFNE01.jpg,AFNE04.jpg,AFSA06.jpg,AFSA19.jpg,FS,4,num_8,32,num_4,2.29995817561,,,2018_Mar_23_1449,59.991225859,MAFE4ImagesEEG,001,103218,
AFSA25.JPG,AFNE24.JPG,AFSA24.JPG,AFNE21.JPG,AFSA21.JPG,AFNE25.JPG,,,,,,,,,,,,,,,,,,,,,0,7,7,2,,,AFNE20.jpg,AFNE03.jpg,AFSA20.jpg,AFSA08.jpg,AFSA20.jpg,FS,4,num_2,32,num_6,1.78378907165,,,2018_Mar_23_1449,59.991225859,MAFE4ImagesEEG,001,103218,
AFSA21.JPG,AFNE22.JPG,AFNE21.JPG,AFSA23.JPG,AFSA22.JPG,AFNE23.JPG,,,,,,,,,,,,,,,,,,,,,0,8,8,0,,,AFSA16.jpg,AFNE05.jpg,AFSA19.jpg,AFNE08.jpg,AFNE05.jpg,FN,3,num_6,32,num_2,2.84998065943,,,2018_Mar_23_1449,59.991225859,MAFE4ImagesEEG,001,103218,
AFSA21.JPG,AFNE23.JPG,AFNE21.JPG,AFSA25.JPG,AFNE25.JPG,AFSA23.JPG,,,,,,,,,,,,,,,,,,,,,0,9,9,4,,,AFNE18.jpg,AFSA16.jpg,AFNE03.jpg,AFSA11.jpg,AFSA11.jpg,FS,4,num_4,16,num_4,1.28341092014,,,2018_Mar_23_1449,59.991225859,MAFE4ImagesEEG,001,103218,
,,,,,,,,,,,,,,,,,,,,,,,,,,,,,,,,,,,,,,,,,,,space,11.3992670468,2018_Mar_23_1449,59.991225859,MAFE4ImagesEEG,001,103218,
AFNE01.JPG,AFNE01.JPG,AFNE01.JPG,AFNE01.JPG,AFNE01.JPG,AFNE01.JPG,0,0,0,7,,,,,,,,,,,,,,,,,,,,,,,AMNE17.jpg,AMSA10.jpg,AMNE05.jpg,AMSA11.jpg,AMSA11.jpg,MS,2,num_4,16,num_4,2.23337143715,,,2018_Mar_23_1449,59.991225859,MAFE4ImagesEEG,001,103218,
AFNE01.JPG,AFNE01.JPG,AFNE01.JPG,AFNE01.JPG,AFNE01.JPG,AFNE01.JPG,0,1,1,3,,,,,,,,,,,,,,,,,,,,,,,AMSA14.jpg,AMNE04.jpg,AMNE06.jpg,AMSA17.jpg,AMSA14.jpg,MS,2,num_8,32,num_2,1.36675050789,,,2018_Mar_23_1449,59.991225859,MAFE4ImagesEEG,001,103218,
AFNE01.JPG,AFNE01.JPG,AFNE01.JPG,AFNE01.JPG,AFNE01.JPG,AFNE01.JPG,0,2,2,0,,,,,,,,,,,,,,,,,,,,,,,AMSA09.jpg,AMNE05.jpg,AMNE11.jpg,AMSA10.jpg,AMSA09.jpg,MS,2,num_8,32,num_6,2.11642223133,,,2018_Mar_23_1449,59.991225859,MAFE4ImagesEEG,001,103218,
AFNE01.JPG,AFNE01.JPG,AFNE01.JPG,AFNE01.JPG,AFNE01.JPG,AFNE01.JPG,0,3,3,8,,,,,,,,,,,,,,,,,,,,,,,AMSA16.jpg,AMSA19.jpg,AMNE09.jpg,AMNE17.jpg,AMSA19.jpg,MS,2,num_6,16,num_6,1.33355785077,,,2018_Mar_23_1449,59.991225859,MAFE4ImagesEEG,001,103218,
AFNE01.JPG,AFNE01.JPG,AFNE01.JPG,AFNE01.JPG,AFNE01.JPG,AFNE01.JPG,0,4,4,5,,,,,,,,,,,,,,,,,,,,,,,AMNE10.jpg,AMSA01.jpg,AMSA07.jpg,AMNE07.jpg,AMSA07.jpg,MS,2,num_2,32,num_4,1.60009371999,,,2018_Mar_23_1449,59.991225859,MAFE4ImagesEEG,001,103218,
AFNE01.JPG,AFNE01.JPG,AFNE01.JPG,AFNE01.JPG,AFNE01.JPG,AFNE01.JPG,0,5,5,2,,,,,,,,,,,,,,,,,,,,,,,AMSA02.jpg,AMNE07.jpg,AMNE06.jpg,AMSA05.jpg,AMSA02.jpg,MS,2,num_8,32,num_4,1.18345415579,,,2018_Mar_23_1449,59.991225859,MAFE4ImagesEEG,001,103218,
AFNE01.JPG,AFNE01.JPG,AFNE01.JPG,AFNE01.JPG,AFNE01.JPG,AFNE01.JPG,0,6,6,9,,,,,,,,,,,,,,,,,,,,,,,AMNE12.jpg,AMSA06.jpg,AMSA11.jpg,AMNE11.jpg,AMNE12.jpg,MN,1,num_8,32,num_2,1.38345011447,,,2018_Mar_23_1449,59.991225859,MAFE4ImagesEEG,001,103218,
AFNE01.JPG,AFNE01.JPG,AFNE01.JPG,AFNE01.JPG,AFNE01.JPG,AFNE01.JPG,0,7,7,6,,,,,,,,,,,,,,,,,,,,,,,AMSA11.jpg,AMNE08.jpg,AMSA17.jpg,AMNE15.jpg,AMNE15.jpg,MN,1,num_4,16,num_4,0.916782613883,,,2018_Mar_23_1449,59.991225859,MAFE4ImagesEEG,001,103218,
AFNE01.JPG,AFNE01.JPG,AFNE01.JPG,AFNE01.JPG,AFNE01.JPG,AFNE01.JPG,0,8,8,1,,,,,,,,,,,,,,,,,,,,,,,AMSA05.jpg,AMNE07.jpg,AMSA16.jpg,AMNE02.jpg,AMSA05.jpg,MS,2,num_8,16,num_8,1.56675801319,,,2018_Mar_23_1449,59.991225859,MAFE4ImagesEEG,001,103218,
AFNE01.JPG,AFNE01.JPG,AFNE01.JPG,AFNE01.JPG,AFNE01.JPG,AFNE01.JPG,0,9,9,4,,,,,,,,,,,,,,,,,,,,,,,AMNE17.jpg,AMSA19.jpg,AMNE11.jpg,AMSA17.jpg,AMNE17.jpg,MN,1,num_8,32,num_6,2.76663850577,,,2018_Mar_23_1449,59.991225859,MAFE4ImagesEEG,001,103218,
AFNE01.JPG,AFNE01.JPG,AFNE01.JPG,AFNE01.JPG,AFNE01.JPG,AFNE01.JPG,1,0,10,5,,,,,,,,,,,,,,,,,,,,,,,AMSA19.jpg,AMNE05.jpg,AMNE10.jpg,AMSA14.jpg,AMNE05.jpg,MN,1,num_6,16,num_6,1.01676535811,,,2018_Mar_23_1449,59.991225859,MAFE4ImagesEEG,001,103218,
AFNE01.JPG,AFNE01.JPG,AFNE01.JPG,AFNE01.JPG,AFNE01.JPG,AFNE01.JPG,1,1,11,1,,,,,,,,,,,,,,,,,,,,,,,AMSA13.jpg,AMNE19.jpg,AMSA07.jpg,AMNE15.jpg,AMNE15.jpg,MN,1,num_4,32,num_2,1.90009519539,,,2018_Mar_23_1449,59.991225859,MAFE4ImagesEEG,001,103218,
AFNE01.JPG,AFNE01.JPG,AFNE01.JPG,AFNE01.JPG,AFNE01.JPG,AFNE01.JPG,1,2,12,4,,,,,,,,,,,,,,,,,,,,,,,AMSA04.jpg,AMNE09.jpg,AMNE15.jpg,AMSA11.jpg,AMNE09.jpg,MN,1,num_6,32,num_2,1.95004487141,,,2018_Mar_23_1449,59.991225859,MAFE4ImagesEEG,001,103218,
AFNE01.JPG,AFNE01.JPG,AFNE01.JPG,AFNE01.JPG,AFNE01.JPG,AFNE01.JPG,1,3,13,3,,,,,,,,,,,,,,,,,,,,,,,AMNE02.jpg,AMNE09.jpg,AMSA11.jpg,AMSA03.jpg,AMSA03.jpg,MS,2,num_4,32,num_8,2.01672751089,,,2018_Mar_23_1449,59.991225859,MAFE4ImagesEEG,001,103218,
AFNE01.JPG,AFNE01.JPG,AFNE01.JPG,AFNE01.JPG,AFNE01.JPG,AFNE01.JPG,1,4,14,2,,,,,,,,,,,,,,,,,,,,,,,AMNE18.jpg,AMNE06.jpg,AMSA08.jpg,AMSA01.jpg,AMNE06.jpg,MN,1,num_6,32,num_4,2.23365048024,,,2018_Mar_23_1449,59.991225859,MAFE4ImagesEEG,001,103218,
AFNE01.JPG,AFNE01.JPG,AFNE01.JPG,AFNE01.JPG,AFNE01.JPG,AFNE01.JPG,1,5,15,6,,,,,,,,,,,,,,,,,,,,,,,AMSA14.jpg,AMNE11.jpg,AMSA17.jpg,AMNE01.jpg,AMSA17.jpg,MS,2,num_2,32,num_4,2.00002758357,,,2018_Mar_23_1449,59.991225859,MAFE4ImagesEEG,001,103218,
AFNE01.JPG,AFNE01.JPG,AFNE01.JPG,AFNE01.JPG,AFNE01.JPG,AFNE01.JPG,1,6,16,7,,,,,,,,,,,,,,,,,,,,,,,AMNE20.jpg,AMSA15.jpg,AMNE15.jpg,AMSA17.jpg,AMNE15.jpg,MN,1,num_2,32,num_6,1.66681548965,,,2018_Mar_23_1449,59.991225859,MAFE4ImagesEEG,001,103218,
AFNE01.JPG,AFNE01.JPG,AFNE01.JPG,AFNE01.JPG,AFNE01.JPG,AFNE01.JPG,1,7,17,8,,,,,,,,,,,,,,,,,,,,,,,AMSA12.jpg,AMNE10.jpg,AMSA02.jpg,AMNE04.jpg,AMNE04.jpg,MN,1,num_4,16,num_4,2.79999153249,,,2018_Mar_23_1449,59.991225859,MAFE4ImagesEEG,001,103218,
AFNE01.JPG,AFNE01.JPG,AFNE01.JPG,AFNE01.JPG,AFNE01.JPG,AFNE01.JPG,1,8,18,0,,,,,,,,,,,,,,,,,,,,,,,AMSA05.jpg,AMNE09.jpg,AMSA17.jpg,AMNE01.jpg,AMNE01.jpg,MN,1,num_4,16,num_4,1.08345601607,,,2018_Mar_23_1449,59.991225859,MAFE4ImagesEEG,001,103218,
AFNE01.JPG,AFNE01.JPG,AFNE01.JPG,AFNE01.JPG,AFNE01.JPG,AFNE01.JPG,1,9,19,9,,,,,,,,,,,,,,,,,,,,,,,AMSA08.jpg,AMNE13.jpg,AMNE07.jpg,AMSA11.jpg,AMNE13.jpg,MN,1,num_6,32,num_4,1.18346506092,,,2018_Mar_23_1449,59.991225859,MAFE4ImagesEEG,001,103218,
AFNE01.JPG,AFNE01.JPG,AFNE01.JPG,AFNE01.JPG,AFNE01.JPG,AFNE01.JPG,2,0,20,7,,,,,,,,,,,,,,,,,,,,,,,AMNE17.jpg,AMNE13.jpg,AMSA03.jpg,AMSA08.jpg,AMNE17.jpg,MN,1,num_8,16,num_8,1.95004166402,,,2018_Mar_23_1449,59.991225859,MAFE4ImagesEEG,001,103218,
AFNE01.JPG,AFNE01.JPG,AFNE01.JPG,AFNE01.JPG,AFNE01.JPG,AFNE01.JPG,2,1,21,4,,,,,,,,,,,,,,,,,,,,,,,AMSA10.jpg,AMNE15.jpg,AMSA16.jpg,AMNE01.jpg,AMSA10.jpg,MS,2,num_8,32,num_2,1.46643143655,,,2018_Mar_23_1449,59.991225859,MAFE4ImagesEEG,001,103218,
AFNE01.JPG,AFNE01.JPG,AFNE01.JPG,AFNE01.JPG,AFNE01.JPG,AFNE01.JPG,2,2,22,2,,,,,,,,,,,,,,,,,,,,,,,AMSA11.jpg,AMNE10.jpg,AMNE07.jpg,AMSA09.jpg,AMSA09.jpg,MS,2,num_4,16,num_4,0.950107094815,,,2018_Mar_23_1449,59.991225859,MAFE4ImagesEEG,001,103218,
AFNE01.JPG,AFNE01.JPG,AFNE01.JPG,AFNE01.JPG,AFNE01.JPG,AFNE01.JPG,2,3,23,3,,,,,,,,,,,,,,,,,,,,,,,AMNE11.jpg,AMSA17.jpg,AMNE02.jpg,AMSA13.jpg,AMSA17.jpg,MS,2,num_6,16,num_6,0.766789253184,,,2018_Mar_23_1449,59.991225859,MAFE4ImagesEEG,001,103218,
AFNE01.JPG,AFNE01.JPG,AFNE01.JPG,AFNE01.JPG,AFNE01.JPG,AFNE01.JPG,2,4,24,1,,,,,,,,,,,,,,,,,,,,,,,AMNE19.jpg,AMNE17.jpg,AMSA18.jpg,AMSA04.jpg,AMSA04.jpg,MS,2,num_4,16,num_4,0.866760771544,,,2018_Mar_23_1449,59.991225859,MAFE4ImagesEEG,001,103218,
AFNE01.JPG,AFNE01.JPG,AFNE01.JPG,AFNE01.JPG,AFNE01.JPG,AFNE01.JPG,2,5,25,9,,,,,,,,,,,,,,,,,,,,,,,AMSA08.jpg,AMNE10.jpg,AMSA11.jpg,AMNE04.jpg,AMSA11.jpg,MS,2,num_2,32,num_4,0.966750251299,,,2018_Mar_23_1449,59.991225859,MAFE4ImagesEEG,001,103218,
AFNE01.JPG,AFNE01.JPG,AFNE01.JPG,AFNE01.JPG,AFNE01.JPG,AFNE01.JPG,2,6,26,5,,,,,,,,,,,,,,,,,,,,,,,AMSA03.jpg,AMSA01.jpg,AMNE10.jpg,AMNE08.jpg,AMNE08.jpg,MN,1,num_4,32,num_2,0.966760514953,,,2018_Mar_23_1449,59.991225859,MAFE4ImagesEEG,001,103218,
AFNE01.JPG,AFNE01.JPG,AFNE01.JPG,AFNE01.JPG,AFNE01.JPG,AFNE01.JPG,2,7,27,0,,,,,,,,,,,,,,,,,,,,,,,AMNE19.jpg,AMSA14.jpg,AMNE02.jpg,AMSA09.jpg,AMNE19.jpg,MN,1,num_8,16,num_8,1.63347433028,,,2018_Mar_23_1449,59.991225859,MAFE4ImagesEEG,001,103218,
AFNE01.JPG,AFNE01.JPG,AFNE01.JPG,AFNE01.JPG,AFNE01.JPG,AFNE01.JPG,2,8,28,8,,,,,,,,,,,,,,,,,,,,,,,AMNE01.jpg,AMNE16.jpg,AMSA19.jpg,AMSA03.jpg,AMNE16.jpg,MN,1,num_6,16,num_6,0.883447227819,,,2018_Mar_23_1449,59.991225859,MAFE4ImagesEEG,001,103218,
AFNE01.JPG,AFNE01.JPG,AFNE01.JPG,AFNE01.JPG,AFNE01.JPG,AFNE01.JPG,2,9,29,6,,,,,,,,,,,,,,,,,,,,,,,AMSA02.jpg,AMNE20.jpg,AMNE11.jpg,AMSA14.jpg,AMNE20.jpg,MN,1,num_6,32,num_8,1.61675900748,,,2018_Mar_23_1449,59.991225859,MAFE4ImagesEEG,001,103218,
AFNE01.JPG,AFNE01.JPG,AFNE01.JPG,AFNE01.JPG,AFNE01.JPG,AFNE01.JPG,3,0,30,4,,,,,,,,,,,,,,,,,,,,,,,AMNE07.jpg,AMSA14.jpg,AMNE08.jpg,AMSA15.jpg,AMSA15.jpg,MS,2,num_4,16,num_4,1.25010215543,,,2018_Mar_23_1449,59.991225859,MAFE4ImagesEEG,001,103218,
AFNE01.JPG,AFNE01.JPG,AFNE01.JPG,AFNE01.JPG,AFNE01.JPG,AFNE01.JPG,3,1,31,5,,,,,,,,,,,,,,,,,,,,,,,AMSA18.jpg,AMNE08.jpg,AMSA20.jpg,AMNE11.jpg,AMNE08.jpg,MN,1,num_6,16,num_6,1.16671381533,,,2018_Mar_23_1449,59.991225859,MAFE4ImagesEEG,001,103218,
AFNE01.JPG,AFNE01.JPG,AFNE01.JPG,AFNE01.JPG,AFNE01.JPG,AFNE01.JPG,3,2,32,3,,,,,,,,,,,,,,,,,,,,,,,AMNE02.jpg,AMNE17.jpg,AMSA05.jpg,AMSA14.jpg,AMNE17.jpg,MN,1,num_6,32,num_8,1.10009660664,,,2018_Mar_23_1449,59.991225859,MAFE4ImagesEEG,001,103218,
AFNE01.JPG,AFNE01.JPG,AFNE01.JPG,AFNE01.JPG,AFNE01.JPG,AFNE01.JPG,3,3,33,8,,,,,,,,,,,,,,,,,,,,,,,AMNE06.jpg,AMSA04.jpg,AMSA16.jpg,AMNE17.jpg,AMSA04.jpg,MS,2,num_6,16,num_6,0.800107319332,,,2018_Mar_23_1449,59.991225859,MAFE4ImagesEEG,001,103218,
AFNE01.JPG,AFNE01.JPG,AFNE01.JPG,AFNE01.JPG,AFNE01.JPG,AFNE01.JPG,3,4,34,7,,,,,,,,,,,,,,,,,,,,,,,AMNE15.jpg,AMSA03.jpg,AMNE13.jpg,AMSA01.jpg,AMSA03.jpg,MS,2,num_6,16,num_6,0.883503036438,,,2018_Mar_23_1449,59.991225859,MAFE4ImagesEEG,001,103218,
AFNE01.JPG,AFNE01.JPG,AFNE01.JPG,AFNE01.JPG,AFNE01.JPG,AFNE01.JPG,3,5,35,2,,,,,,,,,,,,,,,,,,,,,,,AMSA11.jpg,AMNE20.jpg,AMSA12.jpg,AMNE04.jpg,AMNE20.jpg,MN,1,num_6,16,num_6,1.78364249384,,,2018_Mar_23_1449,59.991225859,MAFE4ImagesEEG,001,103218,
AFNE01.JPG,AFNE01.JPG,AFNE01.JPG,AFNE01.JPG,AFNE01.JPG,AFNE01.JPG,3,6,36,9,,,,,,,,,,,,,,,,,,,,,,,AMSA05.jpg,AMSA02.jpg,AMNE17.jpg,AMNE10.jpg,AMSA02.jpg,MS,2,num_6,32,num_2,1.95009907634,,,2018_Mar_23_1449,59.991225859,MAFE4ImagesEEG,001,103218,
AFNE01.JPG,AFNE01.JPG,AFNE01.JPG,AFNE01.JPG,AFNE01.JPG,AFNE01.JPG,3,7,37,0,,,,,,,,,,,,,,,,,,,,,,,AMNE08.jpg,AMSA02.jpg,AMSA18.jpg,AMNE10.jpg,AMSA18.jpg,MS,2,num_2,16,num_2,1.21662147452,,,2018_Mar_23_1449,59.991225859,MAFE4ImagesEEG,001,103218,
AFNE01.JPG,AFNE01.JPG,AFNE01.JPG,AFNE01.JPG,AFNE01.JPG,AFNE01.JPG,3,8,38,6,,,,,,,,,,,,,,,,,,,,,,,AMSA10.jpg,AMNE07.jpg,AMSA05.jpg,AMNE13.jpg,AMNE13.jpg,MN,1,num_4,32,num_2,1.4834344624,,,2018_Mar_23_1449,59.991225859,MAFE4ImagesEEG,001,103218,
AFNE01.JPG,AFNE01.JPG,AFNE01.JPG,AFNE01.JPG,AFNE01.JPG,AFNE01.JPG,3,9,39,1,,,,,,,,,,,,,,,,,,,,,,,AMNE11.jpg,AMSA11.jpg,AMNE14.jpg,AMSA20.jpg,AMSA11.jpg,MS,2,num_6,16,num_6,1.05008053761,,,2018_Mar_23_1449,59.991225859,MAFE4ImagesEEG,001,103218,
AFNE01.JPG,AFNE01.JPG,AFNE01.JPG,AFNE01.JPG,AFNE01.JPG,AFNE01.JPG,4,0,40,0,,,,,,,,,,,,,,,,,,,,,,,AMNE19.jpg,AMNE03.jpg,AMSA02.jpg,AMSA09.jpg,AMNE19.jpg,MN,1,num_8,32,num_2,0.866785147723,,,2018_Mar_23_1449,59.991225859,MAFE4ImagesEEG,001,103218,
AFNE01.JPG,AFNE01.JPG,AFNE01.JPG,AFNE01.JPG,AFNE01.JPG,AFNE01.JPG,4,1,41,5,,,,,,,,,,,,,,,,,,,,,,,AMNE17.jpg,AMSA15.jpg,AMNE15.jpg,AMSA12.jpg,AMSA12.jpg,MS,2,num_4,16,num_4,1.16675166255,,,2018_Mar_23_1449,59.991225859,MAFE4ImagesEEG,001,103218,
AFNE01.JPG,AFNE01.JPG,AFNE01.JPG,AFNE01.JPG,AFNE01.JPG,AFNE01.JPG,4,2,42,4,,,,,,,,,,,,,,,,,,,,,,,AMNE06.jpg,AMSA16.jpg,AMSA17.jpg,AMNE20.jpg,AMSA16.jpg,MS,2,num_6,16,num_6,1.06672305262,,,2018_Mar_23_1449,59.991225859,MAFE4ImagesEEG,001,103218,
AFNE01.JPG,AFNE01.JPG,AFNE01.JPG,AFNE01.JPG,AFNE01.JPG,AFNE01.JPG,4,3,43,2,,,,,,,,,,,,,,,,,,,,,,,AMSA07.jpg,AMNE13.jpg,AMSA11.jpg,AMNE03.jpg,AMSA11.jpg,MS,2,num_2,16,num_2,0.633488122066,,,2018_Mar_23_1449,59.991225859,MAFE4ImagesEEG,001,103218,
AFNE01.JPG,AFNE01.JPG,AFNE01.JPG,AFNE01.JPG,AFNE01.JPG,AFNE01.JPG,4,4,44,9,,,,,,,,,,,,,,,,,,,,,,,AMSA09.jpg,AMNE06.jpg,AMNE12.jpg,AMSA13.jpg,AMSA09.jpg,MS,2,num_8,32,num_4,1.18342176113,,,2018_Mar_23_1449,59.991225859,MAFE4ImagesEEG,001,103218,
AFNE01.JPG,AFNE01.JPG,AFNE01.JPG,AFNE01.JPG,AFNE01.JPG,AFNE01.JPG,4,5,45,7,,,,,,,,,,,,,,,,,,,,,,,AMSA13.jpg,AMSA16.jpg,AMNE03.jpg,AMNE04.jpg,AMSA16.jpg,MS,2,num_6,16,num_6,1.41701098019,,,2018_Mar_23_1449,59.991225859,MAFE4ImagesEEG,001,103218,
AFNE01.JPG,AFNE01.JPG,AFNE01.JPG,AFNE01.JPG,AFNE01.JPG,AFNE01.JPG,4,6,46,1,,,,,,,,,,,,,,,,,,,,,,,AMNE10.jpg,AMSA16.jpg,AMSA06.jpg,AMNE19.jpg,AMNE10.jpg,MN,1,num_8,32,num_2,1.16670740054,,,2018_Mar_23_1449,59.991225859,MAFE4ImagesEEG,001,103218,
AFNE01.JPG,AFNE01.JPG,AFNE01.JPG,AFNE01.JPG,AFNE01.JPG,AFNE01.JPG,4,7,47,8,,,,,,,,,,,,,,,,,,,,,,,AMSA11.jpg,AMNE19.jpg,AMSA12.jpg,AMNE12.jpg,AMNE19.jpg,MN,1,num_6,32,num_4,1.96672266773,,,2018_Mar_23_1449,59.991225859,MAFE4ImagesEEG,001,103218,
AFNE01.JPG,AFNE01.JPG,AFNE01.JPG,AFNE01.JPG,AFNE01.JPG,AFNE01.JPG,4,8,48,6,,,,,,,,,,,,,,,,,,,,,,,AMNE07.jpg,AMSA02.jpg,AMNE18.jpg,AMSA11.jpg,AMSA02.jpg,MS,2,num_6,16,num_6,0.950171884131,,,2018_Mar_23_1449,59.991225859,MAFE4ImagesEEG,001,103218,
AFNE01.JPG,AFNE01.JPG,AFNE01.JPG,AFNE01.JPG,AFNE01.JPG,AFNE01.JPG,4,9,49,3,,,,,,,,,,,,,,,,,,,,,,,AMSA19.jpg,AMNE14.jpg,AMSA06.jpg,AMNE07.jpg,AMNE07.jpg,MN,1,num_4,16,num_4,1.46674062912,,,2018_Mar_23_1449,59.991225859,MAFE4ImagesEEG,001,103218,
AFNE01.JPG,AFNE01.JPG,AFNE01.JPG,AFNE01.JPG,AFNE01.JPG,AFNE01.JPG,5,0,50,9,,,,,,,,,,,,,,,,,,,,,,,AMSA13.jpg,AMSA08.jpg,AMNE12.jpg,AMNE08.jpg,AMNE12.jpg,MN,1,num_2,32,num_6,0.616764460045,,,2018_Mar_23_1449,59.991225859,MAFE4ImagesEEG,001,103218,
AFNE01.JPG,AFNE01.JPG,AFNE01.JPG,AFNE01.JPG,AFNE01.JPG,AFNE01.JPG,5,1,51,2,,,,,,,,,,,,,,,,,,,,,,,AMSA12.jpg,AMNE17.jpg,AMNE16.jpg,AMSA16.jpg,AMSA12.jpg,MS,2,num_8,32,num_2,0.450168035261,,,2018_Mar_23_1449,59.991225859,MAFE4ImagesEEG,001,103218,
AFNE01.JPG,AFNE01.JPG,AFNE01.JPG,AFNE01.JPG,AFNE01.JPG,AFNE01.JPG,5,2,52,4,,,,,,,,,,,,,,,,,,,,,,,AMSA11.jpg,AMNE12.jpg,AMSA18.jpg,AMNE16.jpg,AMNE12.jpg,MN,1,num_6,32,num_4,1.44994608374,,,2018_Mar_23_1449,59.991225859,MAFE4ImagesEEG,001,103218,
AFNE01.JPG,AFNE01.JPG,AFNE01.JPG,AFNE01.JPG,AFNE01.JPG,AFNE01.JPG,5,3,53,6,,,,,,,,,,,,,,,,,,,,,,,AMNE20.jpg,AMNE04.jpg,AMSA01.jpg,AMSA02.jpg,AMSA01.jpg,MS,2,num_2,16,num_2,1.51643243084,,,2018_Mar_23_1449,59.991225859,MAFE4ImagesEEG,001,103218,
AFNE01.JPG,AFNE01.JPG,AFNE01.JPG,AFNE01.JPG,AFNE01.JPG,AFNE01.JPG,5,4,54,7,,,,,,,,,,,,,,,,,,,,,,,AMSA16.jpg,AMNE19.jpg,AMNE04.jpg,AMSA05.jpg,AMNE04.jpg,MN,1,num_2,16,num_2,1.45006187059,,,2018_Mar_23_1449,59.991225859,MAFE4ImagesEEG,001,103218,
AFNE01.JPG,AFNE01.JPG,AFNE01.JPG,AFNE01.JPG,AFNE01.JPG,AFNE01.JPG,5,5,55,8,,,,,,,,,,,,,,,,,,,,,,,AMSA06.jpg,AMSA11.jpg,AMNE10.jpg,AMNE02.jpg,AMNE10.jpg,MN,1,num_2,16,num_2,1.0669209487,,,2018_Mar_23_1449,59.991225859,MAFE4ImagesEEG,001,103218,
AFNE01.JPG,AFNE01.JPG,AFNE01.JPG,AFNE01.JPG,AFNE01.JPG,AFNE01.JPG,5,6,56,5,,,,,,,,,,,,,,,,,,,,,,,AMNE01.jpg,AMSA17.jpg,AMNE13.jpg,AMSA11.jpg,AMSA11.jpg,MS,2,num_4,32,num_6,0.883742628612,,,2018_Mar_23_1449,59.991225859,MAFE4ImagesEEG,001,103218,
AFNE01.JPG,AFNE01.JPG,AFNE01.JPG,AFNE01.JPG,AFNE01.JPG,AFNE01.JPG,5,7,57,0,,,,,,,,,,,,,,,,,,,,,,,AMSA12.jpg,AMNE08.jpg,AMNE01.jpg,AMSA13.jpg,AMSA12.jpg,MS,2,num_8,16,num_8,1.16677122764,,,2018_Mar_23_1449,59.991225859,MAFE4ImagesEEG,001,103218,
AFNE01.JPG,AFNE01.JPG,AFNE01.JPG,AFNE01.JPG,AFNE01.JPG,AFNE01.JPG,5,8,58,3,,,,,,,,,,,,,,,,,,,,,,,AMSA07.jpg,AMNE20.jpg,AMSA15.jpg,AMNE01.jpg,AMNE01.jpg,MN,1,num_4,16,num_4,0.983497006541,,,2018_Mar_23_1449,59.991225859,MAFE4ImagesEEG,001,103218,
AFNE01.JPG,AFNE01.JPG,AFNE01.JPG,AFNE01.JPG,AFNE01.JPG,AFNE01.JPG,5,9,59,1,,,,,,,,,,,,,,,,,,,,,,,AMNE16.jpg,AMSA10.jpg,AMSA11.jpg,AMNE14.jpg,AMSA10.jpg,MS,2,num_6,32,num_8,3.2500348002,,,2018_Mar_23_1449,59.991225859,MAFE4ImagesEEG,001,103218,
,,,,,,,,,,,,,,,,,,,,,,,,,,,,,,,,,,,,,,,,,,,space,8.06619479517,2018_Mar_23_1449,59.991225859,MAFE4ImagesEEG,001,103218,
AFNE01.JPG,AFNE01.JPG,AFNE01.JPG,AFNE01.JPG,AFNE01.JPG,AFNE01.JPG,,,,,0,0,0,0,,,,,,,,,,,,,,,,,,,AFNE18.jpg,AFSA02.jpg,AFNE03.jpg,AFSA12.jpg,AFNE18.jpg,FN,3,num_8,32,num_6,1.70003284369,,,2018_Mar_23_1449,59.991225859,MAFE4ImagesEEG,001,103218,
AFNE01.JPG,AFNE01.JPG,AFNE01.JPG,AFNE01.JPG,AFNE01.JPG,AFNE01.JPG,,,,,0,1,1,2,,,,,,,,,,,,,,,,,,,AFNE19.jpg,AFNE10.jpg,AFSA09.jpg,AFSA02.jpg,AFSA09.jpg,FS,4,num_2,16,num_2,1.7167375821,,,2018_Mar_23_1449,59.991225859,MAFE4ImagesEEG,001,103218,
AFNE01.JPG,AFNE01.JPG,AFNE01.JPG,AFNE01.JPG,AFNE01.JPG,AFNE01.JPG,,,,,0,2,2,8,,,,,,,,,,,,,,,,,,,AFNE14.jpg,AFSA08.jpg,AFNE13.jpg,AFSA15.jpg,AFNE13.jpg,FN,3,num_2,16,num_2,1.38359220193,,,2018_Mar_23_1449,59.991225859,MAFE4ImagesEEG,001,103218,
AFNE01.JPG,AFNE01.JPG,AFNE01.JPG,AFNE01.JPG,AFNE01.JPG,AFNE01.JPG,,,,,0,3,3,7,,,,,,,,,,,,,,,,,,,AFSA01.jpg,AFSA16.jpg,AFNE10.jpg,AFNE05.jpg,AFSA01.jpg,FS,4,num_8,32,num_2,3.24982311234,,,2018_Mar_23_1449,59.991225859,MAFE4ImagesEEG,001,103218,
AFNE01.JPG,AFNE01.JPG,AFNE01.JPG,AFNE01.JPG,AFNE01.JPG,AFNE01.JPG,,,,,0,4,4,9,,,,,,,,,,,,,,,,,,,AFNE05.jpg,AFNE10.jpg,AFSA20.jpg,AFSA17.jpg,AFSA17.jpg,FS,4,num_4,16,num_4,1.2500527616,,,2018_Mar_23_1449,59.991225859,MAFE4ImagesEEG,001,103218,
AFNE01.JPG,AFNE01.JPG,AFNE01.JPG,AFNE01.JPG,AFNE01.JPG,AFNE01.JPG,,,,,0,5,5,6,,,,,,,,,,,,,,,,,,,AFNE02.jpg,AFSA17.jpg,AFNE01.jpg,AFSA06.jpg,AFSA06.jpg,FS,4,num_4,32,num_6,2.20003925848,,,2018_Mar_23_1449,59.991225859,MAFE4ImagesEEG,001,103218,
AFNE01.JPG,AFNE01.JPG,AFNE01.JPG,AFNE01.JPG,AFNE01.JPG,AFNE01.JPG,,,,,0,6,6,3,,,,,,,,,,,,,,,,,,,AFSA12.jpg,AFNE15.jpg,AFSA19.jpg,AFNE12.jpg,AFNE15.jpg,FN,3,num_6,32,num_2,1.78338269509,,,2018_Mar_23_1449,59.991225859,MAFE4ImagesEEG,001,103218,
AFNE01.JPG,AFNE01.JPG,AFNE01.JPG,AFNE01.JPG,AFNE01.JPG,AFNE01.JPG,,,,,0,7,7,4,,,,,,,,,,,,,,,,,,,AFSA03.jpg,AFNE19.jpg,AFNE12.jpg,AFSA13.jpg,AFSA13.jpg,FS,4,num_4,16,num_4,1.26678508358,,,2018_Mar_23_1449,59.991225859,MAFE4ImagesEEG,001,103218,
AFNE01.JPG,AFNE01.JPG,AFNE01.JPG,AFNE01.JPG,AFNE01.JPG,AFNE01.JPG,,,,,0,8,8,5,,,,,,,,,,,,,,,,,,,AFSA07.jpg,AFNE02.jpg,AFSA13.jpg,AFNE16.jpg,AFNE02.jpg,FN,3,num_6,32,num_2,2.73329542196,,,2018_Mar_23_1449,59.991225859,MAFE4ImagesEEG,001,103218,
AFNE01.JPG,AFNE01.JPG,AFNE01.JPG,AFNE01.JPG,AFNE01.JPG,AFNE01.JPG,,,,,0,9,9,1,,,,,,,,,,,,,,,,,,,AFNE20.jpg,AFSA10.jpg,AFSA02.jpg,AFNE12.jpg,AFSA02.jpg,FS,4,num_2,16,num_2,1.20013515949,,,2018_Mar_23_1449,59.991225859,MAFE4ImagesEEG,001,103218,
AFNE01.JPG,AFNE01.JPG,AFNE01.JPG,AFNE01.JPG,AFNE01.JPG,AFNE01.JPG,,,,,1,0,10,2,,,,,,,,,,,,,,,,,,,AFSA05.jpg,AFNE16.jpg,AFNE10.jpg,AFSA17.jpg,AFSA05.jpg,FS,4,num_8,32,num_4,1.08348424112,,,2018_Mar_23_1449,59.991225859,MAFE4ImagesEEG,001,103218,
AFNE01.JPG,AFNE01.JPG,AFNE01.JPG,AFNE01.JPG,AFNE01.JPG,AFNE01.JPG,,,,,1,1,11,7,,,,,,,,,,,,,,,,,,,AFNE17.jpg,AFSA11.jpg,AFSA10.jpg,AFNE01.jpg,AFNE01.jpg,FN,3,num_4,32,num_8,1.55010780044,,,2018_Mar_23_1449,59.991225859,MAFE4ImagesEEG,001,103218,
AFNE01.JPG,AFNE01.JPG,AFNE01.JPG,AFNE01.JPG,AFNE01.JPG,AFNE01.JPG,,,,,1,2,12,3,,,,,,,,,,,,,,,,,,,AFNE16.jpg,AFNE14.jpg,AFSA20.jpg,AFSA05.jpg,AFNE14.jpg,FN,3,num_6,16,num_6,1.45017637448,,,2018_Mar_23_1449,59.991225859,MAFE4ImagesEEG,001,103218,
AFNE01.JPG,AFNE01.JPG,AFNE01.JPG,AFNE01.JPG,AFNE01.JPG,AFNE01.JPG,,,,,1,3,13,9,,,,,,,,,,,,,,,,,,,AFSA06.jpg,AFNE02.jpg,AFSA18.jpg,AFNE15.jpg,AFSA18.jpg,FS,4,num_2,16,num_2,0.833490174797,,,2018_Mar_23_1449,59.991225859,MAFE4ImagesEEG,001,103218,
AFNE01.JPG,AFNE01.JPG,AFNE01.JPG,AFNE01.JPG,AFNE01.JPG,AFNE01.JPG,,,,,1,4,14,8,,,,,,,,,,,,,,,,,,,AFNE10.jpg,AFSA15.jpg,AFNE18.jpg,AFSA08.jpg,AFSA15.jpg,FS,4,num_6,16,num_6,1.11672436765,,,2018_Mar_23_1449,59.991225859,MAFE4ImagesEEG,001,103218,
AFNE01.JPG,AFNE01.JPG,AFNE01.JPG,AFNE01.JPG,AFNE01.JPG,AFNE01.JPG,,,,,1,5,15,0,,,,,,,,,,,,,,,,,,,AFSA05.jpg,AFSA11.jpg,AFNE09.jpg,AFNE19.jpg,AFSA05.jpg,FS,4,num_8,16,num_8,2.26669014478,,,2018_Mar_23_1449,59.991225859,MAFE4ImagesEEG,001,103218,
AFNE01.JPG,AFNE01.JPG,AFNE01.JPG,AFNE01.JPG,AFNE01.JPG,AFNE01.JPG,,,,,1,6,16,6,,,,,,,,,,,,,,,,,,,AFNE14.jpg,AFSA01.jpg,AFNE15.jpg,AFSA02.jpg,AFSA02.jpg,FS,4,num_4,16,num_4,1.43344533546,,,2018_Mar_23_1449,59.991225859,MAFE4ImagesEEG,001,103218,
AFNE01.JPG,AFNE01.JPG,AFNE01.JPG,AFNE01.JPG,AFNE01.JPG,AFNE01.JPG,,,,,1,7,17,1,,,,,,,,,,,,,,,,,,,AFSA07.jpg,AFSA10.jpg,AFNE19.jpg,AFNE02.jpg,AFNE02.jpg,FN,3,num_4,16,num_4,1.2001188018,,,2018_Mar_23_1449,59.991225859,MAFE4ImagesEEG,001,103218,
AFNE01.JPG,AFNE01.JPG,AFNE01.JPG,AFNE01.JPG,AFNE01.JPG,AFNE01.JPG,,,,,1,8,18,4,,,,,,,,,,,,,,,,,,,AFSA16.jpg,AFNE06.jpg,AFSA11.jpg,AFNE12.jpg,AFSA16.jpg,FS,4,num_8,32,num_2,1.18343555291,,,2018_Mar_23_1449,59.991225859,MAFE4ImagesEEG,001,103218,
AFNE01.JPG,AFNE01.JPG,AFNE01.JPG,AFNE01.JPG,AFNE01.JPG,AFNE01.JPG,,,,,1,9,19,5,,,,,,,,,,,,,,,,,,,AFSA01.jpg,AFNE10.jpg,AFSA02.jpg,AFNE06.jpg,AFNE10.jpg,FN,3,num_6,16,num_6,1.05016360906,,,2018_Mar_23_1449,59.991225859,MAFE4ImagesEEG,001,103218,
AFNE01.JPG,AFNE01.JPG,AFNE01.JPG,AFNE01.JPG,AFNE01.JPG,AFNE01.JPG,,,,,2,0,20,6,,,,,,,,,,,,,,,,,,,AFNE06.jpg,AFSA10.jpg,AFNE16.jpg,AFSA08.jpg,AFSA10.jpg,FS,4,num_6,16,num_6,0.650201841172,,,2018_Mar_23_1449,59.991225859,MAFE4ImagesEEG,001,103218,
AFNE01.JPG,AFNE01.JPG,AFNE01.JPG,AFNE01.JPG,AFNE01.JPG,AFNE01.JPG,,,,,2,1,21,8,,,,,,,,,,,,,,,,,,,AFNE03.jpg,AFSA15.jpg,AFSA12.jpg,AFNE15.jpg,AFNE03.jpg,FN,3,num_8,16,num_8,1.13345957628,,,2018_Mar_23_1449,59.991225859,MAFE4ImagesEEG,001,103218,
AFNE01.JPG,AFNE01.JPG,AFNE01.JPG,AFNE01.JPG,AFNE01.JPG,AFNE01.JPG,,,,,2,2,22,0,,,,,,,,,,,,,,,,,,,AFNE12.jpg,AFNE19.jpg,AFSA06.jpg,AFSA10.jpg,AFSA10.jpg,FS,4,num_4,32,num_8,1.08358527397,,,2018_Mar_23_1449,59.991225859,MAFE4ImagesEEG,001,103218,
AFNE01.JPG,AFNE01.JPG,AFNE01.JPG,AFNE01.JPG,AFNE01.JPG,AFNE01.JPG,,,,,2,3,23,1,,,,,,,,,,,,,,,,,,,AFNE09.jpg,AFNE11.jpg,AFSA03.jpg,AFSA17.jpg,AFSA03.jpg,FS,4,num_2,32,num_4,1.05011164931,,,2018_Mar_23_1449,59.991225859,MAFE4ImagesEEG,001,103218,
AFNE01.JPG,AFNE01.JPG,AFNE01.JPG,AFNE01.JPG,AFNE01.JPG,AFNE01.JPG,,,,,2,4,24,9,,,,,,,,,,,,,,,,,,,AFNE12.jpg,AFNE09.jpg,AFSA08.jpg,AFSA13.jpg,AFSA08.jpg,FS,4,num_2,32,num_4,1.36668764301,,,2018_Mar_23_1449,59.991225859,MAFE4ImagesEEG,001,103218,
AFNE01.JPG,AFNE01.JPG,AFNE01.JPG,AFNE01.JPG,AFNE01.JPG,AFNE01.JPG,,,,,2,5,25,2,,,,,,,,,,,,,,,,,,,AFNE01.jpg,AFSA10.jpg,AFSA16.jpg,AFNE02.jpg,AFNE02.jpg,FN,3,num_4,16,num_4,0.866777770721,,,2018_Mar_23_1449,59.991225859,MAFE4ImagesEEG,001,103218,
AFNE01.JPG,AFNE01.JPG,AFNE01.JPG,AFNE01.JPG,AFNE01.JPG,AFNE01.JPG,,,,,2,6,26,5,,,,,,,,,,,,,,,,,,,AFSA13.jpg,AFNE07.jpg,AFSA01.jpg,AFNE10.jpg,AFNE10.jpg,FN,3,num_4,16,num_4,0.483512402022,,,2018_Mar_23_1449,59.991225859,MAFE4ImagesEEG,001,103218,
AFNE01.JPG,AFNE01.JPG,AFNE01.JPG,AFNE01.JPG,AFNE01.JPG,AFNE01.JPG,,,,,2,7,27,3,,,,,,,,,,,,,,,,,,,AFSA11.jpg,AFNE08.jpg,AFSA13.jpg,AFNE02.jpg,AFNE08.jpg,FN,3,num_6,32,num_4,0.600261787326,,,2018_Mar_23_1449,59.991225859,MAFE4ImagesEEG,001,103218,
AFNE01.JPG,AFNE01.JPG,AFNE01.JPG,AFNE01.JPG,AFNE01.JPG,AFNE01.JPG,,,,,2,8,28,7,,,,,,,,,,,,,,,,,,,AFNE15.jpg,AFSA06.jpg,AFNE05.jpg,AFSA05.jpg,AFSA06.jpg,FS,4,num_6,32,num_2,1.68339161164,,,2018_Mar_23_1449,59.991225859,MAFE4ImagesEEG,001,103218,
AFNE01.JPG,AFNE01.JPG,AFNE01.JPG,AFNE01.JPG,AFNE01.JPG,AFNE01.JPG,,,,,2,9,29,4,,,,,,,,,,,,,,,,,,,AFNE13.jpg,AFSA04.jpg,AFSA19.jpg,AFNE14.jpg,AFNE13.jpg,FN,3,num_8,32,num_2,3.19994528189,,,2018_Mar_23_1449,59.991225859,MAFE4ImagesEEG,001,103218,
AFNE01.JPG,AFNE01.JPG,AFNE01.JPG,AFNE01.JPG,AFNE01.JPG,AFNE01.JPG,,,,,3,0,30,7,,,,,,,,,,,,,,,,,,,AFNE09.jpg,AFNE06.jpg,AFSA02.jpg,AFSA18.jpg,AFNE09.jpg,FN,3,num_8,16,num_8,0.683533378365,,,2018_Mar_23_1449,59.991225859,MAFE4ImagesEEG,001,103218,
AFNE01.JPG,AFNE01.JPG,AFNE01.JPG,AFNE01.JPG,AFNE01.JPG,AFNE01.JPG,,,,,3,1,31,9,,,,,,,,,,,,,,,,,,,AFSA03.jpg,AFNE16.jpg,AFNE03.jpg,AFSA11.jpg,AFNE16.jpg,FN,3,num_6,32,num_4,1.06677725754,,,2018_Mar_23_1449,59.991225859,MAFE4ImagesEEG,001,103218,
AFNE01.JPG,AFNE01.JPG,AFNE01.JPG,AFNE01.JPG,AFNE01.JPG,AFNE01.JPG,,,,,3,2,32,5,,,,,,,,,,,,,,,,,,,AFSA05.jpg,AFNE01.jpg,AFSA14.jpg,AFNE09.jpg,AFNE01.jpg,FN,3,num_6,32,num_4,1.00022419669,,,2018_Mar_23_1449,59.991225859,MAFE4ImagesEEG,001,103218,
AFNE01.JPG,AFNE01.JPG,AFNE01.JPG,AFNE01.JPG,AFNE01.JPG,AFNE01.JPG,,,,,3,3,33,0,,,,,,,,,,,,,,,,,,,AFSA09.jpg,AFNE01.jpg,AFSA18.jpg,AFNE15.jpg,AFSA09.jpg,FS,4,num_8,16,num_8,1.00001571622,,,2018_Mar_23_1449,59.991225859,MAFE4ImagesEEG,001,103218,
AFNE01.JPG,AFNE01.JPG,AFNE01.JPG,AFNE01.JPG,AFNE01.JPG,AFNE01.JPG,,,,,3,4,34,3,,,,,,,,,,,,,,,,,,,AFSA02.jpg,AFNE04.jpg,AFSA01.jpg,AFNE14.jpg,AFNE04.jpg,FN,3,num_6,16,num_6,0.683297314323,,,2018_Mar_23_1449,59.991225859,MAFE4ImagesEEG,001,103218,
AFNE01.JPG,AFNE01.JPG,AFNE01.JPG,AFNE01.JPG,AFNE01.JPG,AFNE01.JPG,,,,,3,5,35,4,,,,,,,,,,,,,,,,,,,AFNE20.jpg,AFSA09.jpg,AFSA18.jpg,AFNE17.jpg,AFNE17.jpg,FN,3,num_4,16,num_4,1.56699247353,,,2018_Mar_23_1449,59.991225859,MAFE4ImagesEEG,001,103218,
AFNE01.JPG,AFNE01.JPG,AFNE01.JPG,AFNE01.JPG,AFNE01.JPG,AFNE01.JPG,,,,,3,6,36,8,,,,,,,,,,,,,,,,,,,AFSA09.jpg,AFNE02.jpg,AFNE19.jpg,AFSA20.jpg,AFNE19.jpg,FN,3,num_2,16,num_2,0.800157996124,,,2018_Mar_23_1449,59.991225859,MAFE4ImagesEEG,001,103218,
AFNE01.JPG,AFNE01.JPG,AFNE01.JPG,AFNE01.JPG,AFNE01.JPG,AFNE01.JPG,,,,,3,7,37,2,,,,,,,,,,,,,,,,,,,AFSA05.jpg,AFNE19.jpg,AFSA07.jpg,AFNE01.jpg,AFSA05.jpg,FS,4,num_8,32,num_4,1.11679589249,,,2018_Mar_23_1449,59.991225859,MAFE4ImagesEEG,001,103218,
AFNE01.JPG,AFNE01.JPG,AFNE01.JPG,AFNE01.JPG,AFNE01.JPG,AFNE01.JPG,,,,,3,8,38,1,,,,,,,,,,,,,,,,,,,AFNE19.jpg,AFNE12.jpg,AFSA13.jpg,AFSA16.jpg,AFNE12.jpg,FN,3,num_6,32,num_2,1.2001556868,,,2018_Mar_23_1449,59.991225859,MAFE4ImagesEEG,001,103218,
AFNE01.JPG,AFNE01.JPG,AFNE01.JPG,AFNE01.JPG,AFNE01.JPG,AFNE01.JPG,,,,,3,9,39,6,,,,,,,,,,,,,,,,,,,AFNE09.jpg,AFSA19.jpg,AFSA03.jpg,AFNE19.jpg,AFNE09.jpg,FN,3,num_8,32,num_4,1.73345482934,,,2018_Mar_23_1449,59.991225859,MAFE4ImagesEEG,001,103218,
AFNE01.JPG,AFNE01.JPG,AFNE01.JPG,AFNE01.JPG,AFNE01.JPG,AFNE01.JPG,,,,,4,0,40,6,,,,,,,,,,,,,,,,,,,AFSA19.jpg,AFSA09.jpg,AFNE06.jpg,AFNE15.jpg,AFSA19.jpg,FS,4,num_8,32,num_6,0.983485139191,,,2018_Mar_23_1449,59.991225859,MAFE4ImagesEEG,001,103218,
AFNE01.JPG,AFNE01.JPG,AFNE01.JPG,AFNE01.JPG,AFNE01.JPG,AFNE01.JPG,,,,,4,1,41,7,,,,,,,,,,,,,,,,,,,AFNE15.jpg,AFSA04.jpg,AFSA06.jpg,AFNE18.jpg,AFSA04.jpg,FS,4,num_6,32,num_2,1.43354444387,,,2018_Mar_23_1449,59.991225859,MAFE4ImagesEEG,001,103218,
AFNE01.JPG,AFNE01.JPG,AFNE01.JPG,AFNE01.JPG,AFNE01.JPG,AFNE01.JPG,,,,,4,2,42,2,,,,,,,,,,,,,,,,,,,AFNE09.jpg,AFNE15.jpg,AFSA13.jpg,AFSA15.jpg,AFNE09.jpg,FN,3,num_8,32,num_6,1.00008788254,,,2018_Mar_23_1449,59.991225859,MAFE4ImagesEEG,001,103218,
AFNE01.JPG,AFNE01.JPG,AFNE01.JPG,AFNE01.JPG,AFNE01.JPG,AFNE01.JPG,,,,,4,3,43,3,,,,,,,,,,,,,,,,,,,AFSA05.jpg,AFSA18.jpg,AFNE19.jpg,AFNE15.jpg,AFSA05.jpg,FS,4,num_8,32,num_6,1.78344812589,,,2018_Mar_23_1449,59.991225859,MAFE4ImagesEEG,001,103218,
AFNE01.JPG,AFNE01.JPG,AFNE01.JPG,AFNE01.JPG,AFNE01.JPG,AFNE01.JPG,,,,,4,4,44,8,,,,,,,,,,,,,,,,,,,AFNE05.jpg,AFNE18.jpg,AFSA07.jpg,AFSA02.jpg,AFSA07.jpg,FS,4,num_2,32,num_6,1.13330497999,,,2018_Mar_23_1449,59.991225859,MAFE4ImagesEEG,001,103218,
AFNE01.JPG,AFNE01.JPG,AFNE01.JPG,AFNE01.JPG,AFNE01.JPG,AFNE01.JPG,,,,,4,5,45,1,,,,,,,,,,,,,,,,,,,AFNE04.jpg,AFNE10.jpg,AFSA09.jpg,AFSA13.jpg,AFSA13.jpg,FS,4,num_4,32,num_2,1.78339295875,,,2018_Mar_23_1449,59.991225859,MAFE4ImagesEEG,001,103218,
AFNE01.JPG,AFNE01.JPG,AFNE01.JPG,AFNE01.JPG,AFNE01.JPG,AFNE01.JPG,,,,,4,6,46,4,,,,,,,,,,,,,,,,,,,AFSA14.jpg,AFNE13.jpg,AFNE06.jpg,AFSA11.jpg,AFNE13.jpg,FN,3,num_6,16,num_6,1.20028686913,,,2018_Mar_23_1449,59.991225859,MAFE4ImagesEEG,001,103218,
AFNE01.JPG,AFNE01.JPG,AFNE01.JPG,AFNE01.JPG,AFNE01.JPG,AFNE01.JPG,,,,,4,7,47,5,,,,,,,,,,,,,,,,,,,AFNE20.jpg,AFSA07.jpg,AFNE03.jpg,AFSA09.jpg,AFSA09.jpg,FS,4,num_4,32,num_6,1.2168030129,,,2018_Mar_23_1449,59.991225859,MAFE4ImagesEEG,001,103218,
AFNE01.JPG,AFNE01.JPG,AFNE01.JPG,AFNE01.JPG,AFNE01.JPG,AFNE01.JPG,,,,,4,8,48,0,,,,,,,,,,,,,,,,,,,AFNE17.jpg,AFNE18.jpg,AFSA01.jpg,AFSA16.jpg,AFSA01.jpg,FS,4,num_2,16,num_2,2.33339459452,,,2018_Mar_23_1449,59.991225859,MAFE4ImagesEEG,001,103218,
AFNE01.JPG,AFNE01.JPG,AFNE01.JPG,AFNE01.JPG,AFNE01.JPG,AFNE01.JPG,,,,,4,9,49,9,,,,,,,,,,,,,,,,,,,AFSA14.jpg,AFNE06.jpg,AFNE15.jpg,AFSA15.jpg,AFNE06.jpg,FN,3,num_6,32,num_8,3.39997716337,,,2018_Mar_23_1449,59.991225859,MAFE4ImagesEEG,001,103218,
AFNE01.JPG,AFNE01.JPG,AFNE01.JPG,AFNE01.JPG,AFNE01.JPG,AFNE01.JPG,,,,,5,0,50,6,,,,,,,,,,,,,,,,,,,AFSA10.jpg,AFNE13.jpg,AFSA05.jpg,AFNE16.jpg,AFSA05.jpg,FS,4,num_2,16,num_2,1.01678428173,,,2018_Mar_23_1449,59.991225859,MAFE4ImagesEEG,001,103218,
AFNE01.JPG,AFNE01.JPG,AFNE01.JPG,AFNE01.JPG,AFNE01.JPG,AFNE01.JPG,,,,,5,1,51,1,,,,,,,,,,,,,,,,,,,AFNE17.jpg,AFSA19.jpg,AFSA02.jpg,AFNE09.jpg,AFNE09.jpg,FN,3,num_4,32,num_2,1.0835307483,,,2018_Mar_23_1449,59.991225859,MAFE4ImagesEEG,001,103218,
AFNE01.JPG,AFNE01.JPG,AFNE01.JPG,AFNE01.JPG,AFNE01.JPG,AFNE01.JPG,,,,,5,2,52,2,,,,,,,,,,,,,,,,,,,AFNE04.jpg,AFSA01.jpg,AFSA09.jpg,AFNE10.jpg,AFSA09.jpg,FS,4,num_2,16,num_2,1.03340787312,,,2018_Mar_23_1449,59.991225859,MAFE4ImagesEEG,001,103218,
AFNE01.JPG,AFNE01.JPG,AFNE01.JPG,AFNE01.JPG,AFNE01.JPG,AFNE01.JPG,,,,,5,3,53,7,,,,,,,,,,,,,,,,,,,AFSA03.jpg,AFNE16.jpg,AFSA05.jpg,AFNE01.jpg,AFNE16.jpg,FN,3,num_6,16,num_6,0.950086567507,,,2018_Mar_23_1449,59.991225859,MAFE4ImagesEEG,001,103218,
AFNE01.JPG,AFNE01.JPG,AFNE01.JPG,AFNE01.JPG,AFNE01.JPG,AFNE01.JPG,,,,,5,4,54,3,,,,,,,,,,,,,,,,,,,AFNE14.jpg,AFNE20.jpg,AFSA04.jpg,AFSA17.jpg,AFNE14.jpg,FN,3,num_8,32,num_6,1.00015331333,,,2018_Mar_23_1449,59.991225859,MAFE4ImagesEEG,001,103218,
AFNE01.JPG,AFNE01.JPG,AFNE01.JPG,AFNE01.JPG,AFNE01.JPG,AFNE01.JPG,,,,,5,5,55,0,,,,,,,,,,,,,,,,,,,AFSA11.jpg,AFNE15.jpg,AFSA08.jpg,AFNE11.jpg,AFNE11.jpg,FN,3,num_4,16,num_4,0.966743195037,,,2018_Mar_23_1449,59.991225859,MAFE4ImagesEEG,001,103218,
AFNE01.JPG,AFNE01.JPG,AFNE01.JPG,AFNE01.JPG,AFNE01.JPG,AFNE01.JPG,,,,,5,6,56,8,,,,,,,,,,,,,,,,,,,AFSA19.jpg,AFSA14.jpg,AFNE06.jpg,AFNE10.jpg,AFSA19.jpg,FS,4,num_8,32,num_2,1.31674502325,,,2018_Mar_23_1449,59.991225859,MAFE4ImagesEEG,001,103218,
AFNE01.JPG,AFNE01.JPG,AFNE01.JPG,AFNE01.JPG,AFNE01.JPG,AFNE01.JPG,,,,,5,7,57,4,,,,,,,,,,,,,,,,,,,AFSA06.jpg,AFNE20.jpg,AFNE14.jpg,AFSA20.jpg,AFSA20.jpg,FS,4,num_4,16,num_4,0.866615476692,,,2018_Mar_23_1449,59.991225859,MAFE4ImagesEEG,001,103218,
AFNE01.JPG,AFNE01.JPG,AFNE01.JPG,AFNE01.JPG,AFNE01.JPG,AFNE01.JPG,,,,,5,8,58,9,,,,,,,,,,,,,,,,,,,AFSA04.jpg,AFNE17.jpg,AFSA10.jpg,AFNE18.jpg,AFSA10.jpg,FS,4,num_2,16,num_2,2.10005555203,,,2018_Mar_23_1449,59.991225859,MAFE4ImagesEEG,001,103218,
AFNE01.JPG,AFNE01.JPG,AFNE01.JPG,AFNE01.JPG,AFNE01.JPG,AFNE01.JPG,,,,,5,9,59,5,,,,,,,,,,,,,,,,,,,AFNE07.jpg,AFSA14.jpg,AFSA19.jpg,AFNE19.jpg,AFSA19.jpg,FS,4,num_2,16,num_2,1.33340774482,,,2018_Mar_23_1449,59.991225859,MAFE4ImagesEEG,001,103218,
,,,,,,,,,,,,,,,,,,,,,,,,,,,,,,,,,,,,,,,,,,,space,3.94986814412,2018_Mar_23_1449,59.991225859,MAFE4ImagesEEG,001,103218,
AFNE01.JPG,AFNE01.JPG,AFNE01.JPG,AFNE01.JPG,AFNE01.JPG,AFNE01.JPG,,,,,,,,,0,0,0,3,,,,,,,,,,,,,,,AMSA01.jpg,AMSA14.jpg,AMNE07.jpg,AMNE08.jpg,AMSA14.jpg,MS,2,num_6,16,num_6,0.766804969405,,,2018_Mar_23_1449,59.991225859,MAFE4ImagesEEG,001,103218,
AFNE01.JPG,AFNE01.JPG,AFNE01.JPG,AFNE01.JPG,AFNE01.JPG,AFNE01.JPG,,,,,,,,,0,1,1,7,,,,,,,,,,,,,,,AMSA09.jpg,AMNE11.jpg,AMSA08.jpg,AMNE04.jpg,AMSA09.jpg,MS,2,num_8,16,num_8,0.800119507421,,,2018_Mar_23_1449,59.991225859,MAFE4ImagesEEG,001,103218,
AFNE01.JPG,AFNE01.JPG,AFNE01.JPG,AFNE01.JPG,AFNE01.JPG,AFNE01.JPG,,,,,,,,,0,2,2,9,,,,,,,,,,,,,,,AMNE18.jpg,AMSA15.jpg,AMNE17.jpg,AMSA16.jpg,AMSA16.jpg,MS,2,num_4,16,num_4,0.916544304666,,,2018_Mar_23_1449,59.991225859,MAFE4ImagesEEG,001,103218,
AFNE01.JPG,AFNE01.JPG,AFNE01.JPG,AFNE01.JPG,AFNE01.JPG,AFNE01.JPG,,,,,,,,,0,3,3,5,,,,,,,,,,,,,,,AMNE14.jpg,AMSA01.jpg,AMSA20.jpg,AMNE08.jpg,AMNE08.jpg,MN,1,num_4,16,num_4,1.15016752208,,,2018_Mar_23_1449,59.991225859,MAFE4ImagesEEG,001,103218,
AFNE01.JPG,AFNE01.JPG,AFNE01.JPG,AFNE01.JPG,AFNE01.JPG,AFNE01.JPG,,,,,,,,,0,4,4,8,,,,,,,,,,,,,,,AMSA03.jpg,AMNE15.jpg,AMSA01.jpg,AMNE14.jpg,AMNE15.jpg,MN,1,num_6,16,num_6,1.00015684146,,,2018_Mar_23_1449,59.991225859,MAFE4ImagesEEG,001,103218,
AFNE01.JPG,AFNE01.JPG,AFNE01.JPG,AFNE01.JPG,AFNE01.JPG,AFNE01.JPG,,,,,,,,,0,5,5,0,,,,,,,,,,,,,,,AMSA09.jpg,AMSA17.jpg,AMNE09.jpg,AMNE12.jpg,AMSA17.jpg,MS,2,num_6,16,num_6,0.833468043792,,,2018_Mar_23_1449,59.991225859,MAFE4ImagesEEG,001,103218,
AFNE01.JPG,AFNE01.JPG,AFNE01.JPG,AFNE01.JPG,AFNE01.JPG,AFNE01.JPG,,,,,,,,,0,6,6,2,,,,,,,,,,,,,,,AMSA15.jpg,AMSA18.jpg,AMNE03.jpg,AMNE19.jpg,AMNE19.jpg,MN,1,num_4,16,num_4,1.30010314972,,,2018_Mar_23_1449,59.991225859,MAFE4ImagesEEG,001,103218,
AFNE01.JPG,AFNE01.JPG,AFNE01.JPG,AFNE01.JPG,AFNE01.JPG,AFNE01.JPG,,,,,,,,,0,7,7,4,,,,,,,,,,,,,,,AMSA06.jpg,AMNE16.jpg,AMNE13.jpg,AMSA09.jpg,AMSA06.jpg,MS,2,num_8,32,num_4,1.25015187001,,,2018_Mar_23_1449,59.991225859,MAFE4ImagesEEG,001,103218,
AFNE01.JPG,AFNE01.JPG,AFNE01.JPG,AFNE01.JPG,AFNE01.JPG,AFNE01.JPG,,,,,,,,,0,8,8,1,,,,,,,,,,,,,,,AMSA10.jpg,AMNE09.jpg,AMNE07.jpg,AMSA17.jpg,AMSA10.jpg,MS,2,num_8,32,num_4,0.883417399074,,,2018_Mar_23_1449,59.991225859,MAFE4ImagesEEG,001,103218,
AFNE01.JPG,AFNE01.JPG,AFNE01.JPG,AFNE01.JPG,AFNE01.JPG,AFNE01.JPG,,,,,,,,,0,9,9,6,,,,,,,,,,,,,,,AMNE11.jpg,AMSA10.jpg,AMNE05.jpg,AMSA02.jpg,AMNE05.jpg,MN,1,num_2,16,num_2,1.20017108228,,,2018_Mar_23_1449,59.991225859,MAFE4ImagesEEG,001,103218,
AFNE01.JPG,AFNE01.JPG,AFNE01.JPG,AFNE01.JPG,AFNE01.JPG,AFNE01.JPG,,,,,,,,,1,0,10,9,,,,,,,,,,,,,,,AMSA18.jpg,AMNE04.jpg,AMSA15.jpg,AMNE17.jpg,AMNE04.jpg,MN,1,num_6,32,num_4,1.03343866408,,,2018_Mar_23_1449,59.991225859,MAFE4ImagesEEG,001,103218,
AFNE01.JPG,AFNE01.JPG,AFNE01.JPG,AFNE01.JPG,AFNE01.JPG,AFNE01.JPG,,,,,,,,,1,1,11,0,,,,,,,,,,,,,,,AMNE10.jpg,AMSA13.jpg,AMSA02.jpg,AMNE08.jpg,AMNE10.jpg,MN,1,num_8,32,num_4,0.8667784122,,,2018_Mar_23_1449,59.991225859,MAFE4ImagesEEG,001,103218,
AFNE01.JPG,AFNE01.JPG,AFNE01.JPG,AFNE01.JPG,AFNE01.JPG,AFNE01.JPG,,,,,,,,,1,2,12,5,,,,,,,,,,,,,,,AMNE15.jpg,AMSA06.jpg,AMNE19.jpg,AMSA19.jpg,AMNE15.jpg,MN,1,num_8,16,num_8,1.40017570093,,,2018_Mar_23_1449,59.991225859,MAFE4ImagesEEG,001,103218,
AFNE01.JPG,AFNE01.JPG,AFNE01.JPG,AFNE01.JPG,AFNE01.JPG,AFNE01.JPG,,,,,,,,,1,3,13,3,,,,,,,,,,,,,,,AMSA05.jpg,AMNE04.jpg,AMSA07.jpg,AMNE01.jpg,AMNE01.jpg,MN,1,num_4,16,num_4,0.850109275842,,,2018_Mar_23_1449,59.991225859,MAFE4ImagesEEG,001,103218,
AFNE01.JPG,AFNE01.JPG,AFNE01.JPG,AFNE01.JPG,AFNE01.JPG,AFNE01.JPG,,,,,,,,,1,4,14,2,,,,,,,,,,,,,,,AMSA14.jpg,AMNE08.jpg,AMNE20.jpg,AMSA06.jpg,AMSA14.jpg,MS,2,num_8,16,num_8,1.26680529014,,,2018_Mar_23_1449,59.991225859,MAFE4ImagesEEG,001,103218,
AFNE01.JPG,AFNE01.JPG,AFNE01.JPG,AFNE01.JPG,AFNE01.JPG,AFNE01.JPG,,,,,,,,,1,5,15,8,,,,,,,,,,,,,,,AMNE16.jpg,AMSA17.jpg,AMSA15.jpg,AMNE11.jpg,AMSA15.jpg,MS,2,num_2,16,num_2,1.15021723665,,,2018_Mar_23_1449,59.991225859,MAFE4ImagesEEG,001,103218,
AFNE01.JPG,AFNE01.JPG,AFNE01.JPG,AFNE01.JPG,AFNE01.JPG,AFNE01.JPG,,,,,,,,,1,6,16,6,,,,,,,,,,,,,,,AMSA05.jpg,AMNE13.jpg,AMNE12.jpg,AMSA12.jpg,AMSA12.jpg,MS,2,num_4,16,num_4,0.917014829055,,,2018_Mar_23_1449,59.991225859,MAFE4ImagesEEG,001,103218,
AFNE01.JPG,AFNE01.JPG,AFNE01.JPG,AFNE01.JPG,AFNE01.JPG,AFNE01.JPG,,,,,,,,,1,7,17,7,,,,,,,,,,,,,,,AMSA05.jpg,AMNE08.jpg,AMNE10.jpg,AMSA15.jpg,AMSA15.jpg,MS,2,num_4,32,num_8,1.08346371381,,,2018_Mar_23_1449,59.991225859,MAFE4ImagesEEG,001,103218,
AFNE01.JPG,AFNE01.JPG,AFNE01.JPG,AFNE01.JPG,AFNE01.JPG,AFNE01.JPG,,,,,,,,,1,8,18,4,,,,,,,,,,,,,,,AMSA20.jpg,AMNE20.jpg,AMSA17.jpg,AMNE10.jpg,AMNE10.jpg,MN,1,num_4,32,num_6,0.966774306738,,,2018_Mar_23_1449,59.991225859,MAFE4ImagesEEG,001,103218,
AFNE01.JPG,AFNE01.JPG,AFNE01.JPG,AFNE01.JPG,AFNE01.JPG,AFNE01.JPG,,,,,,,,,1,9,19,1,,,,,,,,,,,,,,,AMNE17.jpg,AMSA10.jpg,AMNE10.jpg,AMSA16.jpg,AMNE10.jpg,MN,1,num_2,16,num_2,1.2499398614,,,2018_Mar_23_1449,59.991225859,MAFE4ImagesEEG,001,103218,
AFNE01.JPG,AFNE01.JPG,AFNE01.JPG,AFNE01.JPG,AFNE01.JPG,AFNE01.JPG,,,,,,,,,2,0,20,7,,,,,,,,,,,,,,,AMSA13.jpg,AMNE01.jpg,AMNE14.jpg,AMSA20.jpg,AMSA13.jpg,MS,2,num_8,16,num_8,0.833494985884,,,2018_Mar_23_1449,59.991225859,MAFE4ImagesEEG,001,103218,
AFNE01.JPG,AFNE01.JPG,AFNE01.JPG,AFNE01.JPG,AFNE01.JPG,AFNE01.JPG,,,,,,,,,2,1,21,2,,,,,,,,,,,,,,,AMNE06.jpg,AMNE04.jpg,AMSA01.jpg,AMSA06.jpg,AMSA06.jpg,MS,2,num_4,32,num_2,1.11675644157,,,2018_Mar_23_1449,59.991225859,MAFE4ImagesEEG,001,103218,
AFNE01.JPG,AFNE01.JPG,AFNE01.JPG,AFNE01.JPG,AFNE01.JPG,AFNE01.JPG,,,,,,,,,2,2,22,3,,,,,,,,,,,,,,,AMSA14.jpg,AMNE02.jpg,AMNE16.jpg,AMSA12.jpg,AMNE16.jpg,MN,1,num_2,16,num_2,1.30014484582,,,2018_Mar_23_1449,59.991225859,MAFE4ImagesEEG,001,103218,
AFNE01.JPG,AFNE01.JPG,AFNE01.JPG,AFNE01.JPG,AFNE01.JPG,AFNE01.JPG,,,,,,,,,2,3,23,4,,,,,,,,,,,,,,,AMNE02.jpg,AMSA19.jpg,AMSA06.jpg,AMNE10.jpg,AMNE10.jpg,MN,1,num_4,32,num_2,1.10011071917,,,2018_Mar_23_1449,59.991225859,MAFE4ImagesEEG,001,103218,
AFNE01.JPG,AFNE01.JPG,AFNE01.JPG,AFNE01.JPG,AFNE01.JPG,AFNE01.JPG,,,,,,,,,2,4,24,0,,,,,,,,,,,,,,,AMNE16.jpg,AMNE09.jpg,AMSA18.jpg,AMSA08.jpg,AMNE09.jpg,MN,1,num_6,32,num_2,2.33347317562,,,2018_Mar_23_1449,59.991225859,MAFE4ImagesEEG,001,103218,
AFNE01.JPG,AFNE01.JPG,AFNE01.JPG,AFNE01.JPG,AFNE01.JPG,AFNE01.JPG,,,,,,,,,2,5,25,1,,,,,,,,,,,,,,,AMSA02.jpg,AMNE11.jpg,AMSA20.jpg,AMNE09.jpg,AMNE09.jpg,MN,1,num_4,32,num_6,0.833455855703,,,2018_Mar_23_1449,59.991225859,MAFE4ImagesEEG,001,103218,
AFNE01.JPG,AFNE01.JPG,AFNE01.JPG,AFNE01.JPG,AFNE01.JPG,AFNE01.JPG,,,,,,,,,2,6,26,9,,,,,,,,,,,,,,,AMSA01.jpg,AMSA13.jpg,AMNE05.jpg,AMNE07.jpg,AMNE05.jpg,MN,1,num_2,32,num_6,1.73378198331,,,2018_Mar_23_1449,59.991225859,MAFE4ImagesEEG,001,103218,
AFNE01.JPG,AFNE01.JPG,AFNE01.JPG,AFNE01.JPG,AFNE01.JPG,AFNE01.JPG,,,,,,,,,2,7,27,8,,,,,,,,,,,,,,,AMNE13.jpg,AMSA13.jpg,AMSA02.jpg,AMNE15.jpg,AMSA13.jpg,MS,2,num_6,16,num_6,0.766741142306,,,2018_Mar_23_1449,59.991225859,MAFE4ImagesEEG,001,103218,
AFNE01.JPG,AFNE01.JPG,AFNE01.JPG,AFNE01.JPG,AFNE01.JPG,AFNE01.JPG,,,,,,,,,2,8,28,5,,,,,,,,,,,,,,,AMSA13.jpg,AMNE06.jpg,AMNE07.jpg,AMSA03.jpg,AMNE07.jpg,MN,1,num_2,32,num_6,0.616802628008,,,2018_Mar_23_1449,59.991225859,MAFE4ImagesEEG,001,103218,
AFNE01.JPG,AFNE01.JPG,AFNE01.JPG,AFNE01.JPG,AFNE01.JPG,AFNE01.JPG,,,,,,,,,2,9,29,6,,,,,,,,,,,,,,,AMNE19.jpg,AMSA03.jpg,AMSA02.jpg,AMNE20.jpg,AMNE20.jpg,MN,1,num_4,32,num_8,1.75003255503,,,2018_Mar_23_1449,59.991225859,MAFE4ImagesEEG,001,103218,
AFNE01.JPG,AFNE01.JPG,AFNE01.JPG,AFNE01.JPG,AFNE01.JPG,AFNE01.JPG,,,,,,,,,3,0,30,2,,,,,,,,,,,,,,,AMSA20.jpg,AMSA17.jpg,AMNE19.jpg,AMNE16.jpg,AMNE19.jpg,MN,1,num_2,32,num_8,1.23343301907,,,2018_Mar_23_1449,59.991225859,MAFE4ImagesEEG,001,103218,
AFNE01.JPG,AFNE01.JPG,AFNE01.JPG,AFNE01.JPG,AFNE01.JPG,AFNE01.JPG,,,,,,,,,3,1,31,8,,,,,,,,,,,,,,,AMNE20.jpg,AMSA19.jpg,AMNE15.jpg,AMSA20.jpg,AMSA19.jpg,MS,2,num_6,32,num_4,1.58343933763,,,2018_Mar_23_1449,59.991225859,MAFE4ImagesEEG,001,103218,
AFNE01.JPG,AFNE01.JPG,AFNE01.JPG,AFNE01.JPG,AFNE01.JPG,AFNE01.JPG,,,,,,,,,3,2,32,4,,,,,,,,,,,,,,,AMSA07.jpg,AMSA05.jpg,AMNE07.jpg,AMNE19.jpg,AMNE19.jpg,MN,1,num_4,32,num_8,1.15014603255,,,2018_Mar_23_1449,59.991225859,MAFE4ImagesEEG,001,103218,
AFNE01.JPG,AFNE01.JPG,AFNE01.JPG,AFNE01.JPG,AFNE01.JPG,AFNE01.JPG,,,,,,,,,3,3,33,5,,,,,,,,,,,,,,,AMSA16.jpg,AMNE17.jpg,AMSA06.jpg,AMNE14.jpg,AMSA16.jpg,MS,2,num_8,32,num_6,1.81672770333,,,2018_Mar_23_1449,59.991225859,MAFE4ImagesEEG,001,103218,
AFNE01.JPG,AFNE01.JPG,AFNE01.JPG,AFNE01.JPG,AFNE01.JPG,AFNE01.JPG,,,,,,,,,3,4,34,6,,,,,,,,,,,,,,,AMNE07.jpg,AMSA01.jpg,AMSA20.jpg,AMNE15.jpg,AMSA01.jpg,MS,2,num_6,32,num_2,1.5164853528,,,2018_Mar_23_1449,59.991225859,MAFE4ImagesEEG,001,103218,
AFNE01.JPG,AFNE01.JPG,AFNE01.JPG,AFNE01.JPG,AFNE01.JPG,AFNE01.JPG,,,,,,,,,3,5,35,1,,,,,,,,,,,,,,,AMNE11.jpg,AMSA17.jpg,AMNE10.jpg,AMSA01.jpg,AMNE10.jpg,MN,1,num_2,32,num_8,1.40008204508,,,2018_Mar_23_1449,59.991225859,MAFE4ImagesEEG,001,103218,
AFNE01.JPG,AFNE01.JPG,AFNE01.JPG,AFNE01.JPG,AFNE01.JPG,AFNE01.JPG,,,,,,,,,3,6,36,7,,,,,,,,,,,,,,,AMNE07.jpg,AMSA08.jpg,AMNE16.jpg,AMSA09.jpg,AMNE07.jpg,MN,1,num_8,32,num_6,1.01669222958,,,2018_Mar_23_1449,59.991225859,MAFE4ImagesEEG,001,103218,
AFNE01.JPG,AFNE01.JPG,AFNE01.JPG,AFNE01.JPG,AFNE01.JPG,AFNE01.JPG,,,,,,,,,3,7,37,0,,,,,,,,,,,,,,,AMSA01.jpg,AMNE11.jpg,AMSA19.jpg,AMNE04.jpg,AMSA19.jpg,MS,2,num_2,32,num_8,1.03345790843,,,2018_Mar_23_1449,59.991225859,MAFE4ImagesEEG,001,103218,
AFNE01.JPG,AFNE01.JPG,AFNE01.JPG,AFNE01.JPG,AFNE01.JPG,AFNE01.JPG,,,,,,,,,3,8,38,9,,,,,,,,,,,,,,,AMSA17.jpg,AMNE15.jpg,AMNE12.jpg,AMSA11.jpg,AMNE12.jpg,MN,1,num_2,32,num_6,0.950135319864,,,2018_Mar_23_1449,59.991225859,MAFE4ImagesEEG,001,103218,
AFNE01.JPG,AFNE01.JPG,AFNE01.JPG,AFNE01.JPG,AFNE01.JPG,AFNE01.JPG,,,,,,,,,3,9,39,3,,,,,,,,,,,,,,,AMSA05.jpg,AMSA03.jpg,AMNE01.jpg,AMNE03.jpg,AMNE03.jpg,MN,1,num_4,16,num_4,1.66669809911,,,2018_Mar_23_1449,59.991225859,MAFE4ImagesEEG,001,103218,
AFNE01.JPG,AFNE01.JPG,AFNE01.JPG,AFNE01.JPG,AFNE01.JPG,AFNE01.JPG,,,,,,,,,4,0,40,4,,,,,,,,,,,,,,,AMSA20.jpg,AMNE15.jpg,AMNE05.jpg,AMSA18.jpg,AMNE05.jpg,MN,1,num_2,32,num_6,1.0501017064,,,2018_Mar_23_1449,59.991225859,MAFE4ImagesEEG,001,103218,
AFNE01.JPG,AFNE01.JPG,AFNE01.JPG,AFNE01.JPG,AFNE01.JPG,AFNE01.JPG,,,,,,,,,4,1,41,5,,,,,,,,,,,,,,,AMSA14.jpg,AMNE08.jpg,AMSA10.jpg,AMNE07.jpg,AMNE07.jpg,MN,1,num_4,16,num_4,1.03345117291,,,2018_Mar_23_1449,59.991225859,MAFE4ImagesEEG,001,103218,
AFNE01.JPG,AFNE01.JPG,AFNE01.JPG,AFNE01.JPG,AFNE01.JPG,AFNE01.JPG,,,,,,,,,4,2,42,7,,,,,,,,,,,,,,,AMNE11.jpg,AMSA14.jpg,AMNE09.jpg,AMSA04.jpg,AMNE09.jpg,MN,1,num_2,32,num_8,1.0667442214,,,2018_Mar_23_1449,59.991225859,MAFE4ImagesEEG,001,103218,
AFNE01.JPG,AFNE01.JPG,AFNE01.JPG,AFNE01.JPG,AFNE01.JPG,AFNE01.JPG,,,,,,,,,4,3,43,2,,,,,,,,,,,,,,,AMNE19.jpg,AMSA09.jpg,AMSA13.jpg,AMNE06.jpg,AMNE19.jpg,MN,1,num_8,16,num_8,0.950150715345,,,2018_Mar_23_1449,59.991225859,MAFE4ImagesEEG,001,103218,
AFNE01.JPG,AFNE01.JPG,AFNE01.JPG,AFNE01.JPG,AFNE01.JPG,AFNE01.JPG,,,,,,,,,4,4,44,8,,,,,,,,,,,,,,,AMSA17.jpg,AMNE06.jpg,AMSA10.jpg,AMNE17.jpg,AMNE17.jpg,MN,1,num_4,32,num_2,1.38342573829,,,2018_Mar_23_1449,59.991225859,MAFE4ImagesEEG,001,103218,
AFNE01.JPG,AFNE01.JPG,AFNE01.JPG,AFNE01.JPG,AFNE01.JPG,AFNE01.JPG,,,,,,,,,4,5,45,9,,,,,,,,,,,,,,,AMNE15.jpg,AMSA11.jpg,AMSA20.jpg,AMNE18.jpg,AMNE18.jpg,MN,1,num_4,16,num_4,0.916834252893,,,2018_Mar_23_1449,59.991225859,MAFE4ImagesEEG,001,103218,
AFNE01.JPG,AFNE01.JPG,AFNE01.JPG,AFNE01.JPG,AFNE01.JPG,AFNE01.JPG,,,,,,,,,4,6,46,1,,,,,,,,,,,,,,,AMNE05.jpg,AMSA05.jpg,AMNE09.jpg,AMSA02.jpg,AMNE05.jpg,MN,1,num_8,32,num_6,1.06676667315,,,2018_Mar_23_1449,59.991225859,MAFE4ImagesEEG,001,103218,
AFNE01.JPG,AFNE01.JPG,AFNE01.JPG,AFNE01.JPG,AFNE01.JPG,AFNE01.JPG,,,,,,,,,4,7,47,6,,,,,,,,,,,,,,,AMNE07.jpg,AMNE02.jpg,AMSA03.jpg,AMSA05.jpg,AMSA05.jpg,MS,2,num_4,16,num_4,1.05015911871,,,2018_Mar_23_1449,59.991225859,MAFE4ImagesEEG,001,103218,
AFNE01.JPG,AFNE01.JPG,AFNE01.JPG,AFNE01.JPG,AFNE01.JPG,AFNE01.JPG,,,,,,,,,4,8,48,0,,,,,,,,,,,,,,,AMSA05.jpg,AMNE06.jpg,AMNE12.jpg,AMSA07.jpg,AMNE06.jpg,MN,1,num_6,16,num_6,0.700126820275,,,2018_Mar_23_1449,59.991225859,MAFE4ImagesEEG,001,103218,
AFNE01.JPG,AFNE01.JPG,AFNE01.JPG,AFNE01.JPG,AFNE01.JPG,AFNE01.JPG,,,,,,,,,4,9,49,3,,,,,,,,,,,,,,,AMSA19.jpg,AMNE19.jpg,AMNE09.jpg,AMSA09.jpg,AMSA19.jpg,MS,2,num_8,32,num_4,0.866696623707,,,2018_Mar_23_1449,59.991225859,MAFE4ImagesEEG,001,103218,
AFNE01.JPG,AFNE01.JPG,AFNE01.JPG,AFNE01.JPG,AFNE01.JPG,AFNE01.JPG,,,,,,,,,5,0,50,9,,,,,,,,,,,,,,,AMSA01.jpg,AMNE09.jpg,AMSA10.jpg,AMNE10.jpg,AMSA10.jpg,MS,2,num_2,16,num_2,1.28341573123,,,2018_Mar_23_1449,59.991225859,MAFE4ImagesEEG,001,103218,
AFNE01.JPG,AFNE01.JPG,AFNE01.JPG,AFNE01.JPG,AFNE01.JPG,AFNE01.JPG,,,,,,,,,5,1,51,3,,,,,,,,,,,,,,,AMNE18.jpg,AMSA09.jpg,AMSA14.jpg,AMNE09.jpg,AMSA14.jpg,MS,2,num_2,32,num_4,1.35010574771,,,2018_Mar_23_1449,59.991225859,MAFE4ImagesEEG,001,103218,
AFNE01.JPG,AFNE01.JPG,AFNE01.JPG,AFNE01.JPG,AFNE01.JPG,AFNE01.JPG,,,,,,,,,5,2,52,4,,,,,,,,,,,,,,,AMNE18.jpg,AMSA20.jpg,AMNE03.jpg,AMSA01.jpg,AMSA01.jpg,MS,2,num_4,16,num_4,0.566862253424,,,2018_Mar_23_1449,59.991225859,MAFE4ImagesEEG,001,103218,
AFNE01.JPG,AFNE01.JPG,AFNE01.JPG,AFNE01.JPG,AFNE01.JPG,AFNE01.JPG,,,,,,,,,5,3,53,2,,,,,,,,,,,,,,,AMSA13.jpg,AMNE06.jpg,AMSA20.jpg,AMNE12.jpg,AMSA13.jpg,MS,2,num_8,32,num_2,1.50007569445,,,2018_Mar_23_1449,59.991225859,MAFE4ImagesEEG,001,103218,
AFNE01.JPG,AFNE01.JPG,AFNE01.JPG,AFNE01.JPG,AFNE01.JPG,AFNE01.JPG,,,,,,,,,5,4,54,8,,,,,,,,,,,,,,,AMSA01.jpg,AMSA07.jpg,AMNE07.jpg,AMNE05.jpg,AMSA01.jpg,MS,2,num_8,32,num_6,1.10024799554,,,2018_Mar_23_1449,59.991225859,MAFE4ImagesEEG,001,103218,
AFNE01.JPG,AFNE01.JPG,AFNE01.JPG,AFNE01.JPG,AFNE01.JPG,AFNE01.JPG,,,,,,,,,5,5,55,7,,,,,,,,,,,,,,,AMNE09.jpg,AMSA01.jpg,AMNE03.jpg,AMSA16.jpg,AMNE09.jpg,MN,1,num_8,32,num_2,1.46672395069,,,2018_Mar_23_1449,59.991225859,MAFE4ImagesEEG,001,103218,
AFNE01.JPG,AFNE01.JPG,AFNE01.JPG,AFNE01.JPG,AFNE01.JPG,AFNE01.JPG,,,,,,,,,5,6,56,6,,,,,,,,,,,,,,,AMNE11.jpg,AMSA12.jpg,AMSA14.jpg,AMNE02.jpg,AMSA12.jpg,MS,2,num_6,32,num_8,1.40005317856,,,2018_Mar_23_1449,59.991225859,MAFE4ImagesEEG,001,103218,
AFNE01.JPG,AFNE01.JPG,AFNE01.JPG,AFNE01.JPG,AFNE01.JPG,AFNE01.JPG,,,,,,,,,5,7,57,5,,,,,,,,,,,,,,,AMSA16.jpg,AMNE13.jpg,AMSA05.jpg,AMNE07.jpg,AMNE13.jpg,MN,1,num_6,32,num_4,0.966782645957,,,2018_Mar_23_1449,59.991225859,MAFE4ImagesEEG,001,103218,
AFNE01.JPG,AFNE01.JPG,AFNE01.JPG,AFNE01.JPG,AFNE01.JPG,AFNE01.JPG,,,,,,,,,5,8,58,0,,,,,,,,,,,,,,,AMSA11.jpg,AMNE17.jpg,AMSA19.jpg,AMNE08.jpg,AMSA11.jpg,MS,2,num_8,16,num_8,1.33344334687,,,2018_Mar_23_1449,59.991225859,MAFE4ImagesEEG,001,103218,
AFNE01.JPG,AFNE01.JPG,AFNE01.JPG,AFNE01.JPG,AFNE01.JPG,AFNE01.JPG,,,,,,,,,5,9,59,1,,,,,,,,,,,,,,,AMNE18.jpg,AMSA17.jpg,AMNE20.jpg,AMSA14.jpg,AMSA17.jpg,MS,2,num_6,16,num_6,1.71668241496,,,2018_Mar_23_1449,59.991225859,MAFE4ImagesEEG,001,103218,
,,,,,,,,,,,,,,,,,,,,,,,,,,,,,,,,,,,,,,,,,,,space,3.49975623822,2018_Mar_23_1449,59.991225859,MAFE4ImagesEEG,001,103218,
AFNE01.JPG,AFNE01.JPG,AFNE01.JPG,AFNE01.JPG,AFNE01.JPG,AFNE01.JPG,,,,,,,,,,,,,0,0,0,6,,,,,,,,,,,AFSA01.jpg,AFSA05.jpg,AFNE13.jpg,AFNE14.jpg,AFSA01.jpg,FS,4,num_8,16,num_8,1.05006353843,,,2018_Mar_23_1449,59.991225859,MAFE4ImagesEEG,001,103218,
AFNE01.JPG,AFNE01.JPG,AFNE01.JPG,AFNE01.JPG,AFNE01.JPG,AFNE01.JPG,,,,,,,,,,,,,0,1,1,9,,,,,,,,,,,AFNE14.jpg,AFSA15.jpg,AFNE19.jpg,AFSA14.jpg,AFNE14.jpg,FN,3,num_8,16,num_8,1.0834759019,,,2018_Mar_23_1449,59.991225859,MAFE4ImagesEEG,001,103218,
AFNE01.JPG,AFNE01.JPG,AFNE01.JPG,AFNE01.JPG,AFNE01.JPG,AFNE01.JPG,,,,,,,,,,,,,0,2,2,1,,,,,,,,,,,AFSA10.jpg,AFSA01.jpg,AFNE03.jpg,AFNE08.jpg,AFNE03.jpg,FN,3,num_2,32,num_4,1.88337570298,,,2018_Mar_23_1449,59.991225859,MAFE4ImagesEEG,001,103218,
AFNE01.JPG,AFNE01.JPG,AFNE01.JPG,AFNE01.JPG,AFNE01.JPG,AFNE01.JPG,,,,,,,,,,,,,0,3,3,7,,,,,,,,,,,AFSA05.jpg,AFNE18.jpg,AFNE17.jpg,AFSA20.jpg,AFNE17.jpg,FN,3,num_2,32,num_4,0.90013111818,,,2018_Mar_23_1449,59.991225859,MAFE4ImagesEEG,001,103218,
AFNE01.JPG,AFNE01.JPG,AFNE01.JPG,AFNE01.JPG,AFNE01.JPG,AFNE01.JPG,,,,,,,,,,,,,0,4,4,8,,,,,,,,,,,AFSA19.jpg,AFNE12.jpg,AFNE01.jpg,AFSA11.jpg,AFNE12.jpg,FN,3,num_6,16,num_6,1.05013378032,,,2018_Mar_23_1449,59.991225859,MAFE4ImagesEEG,001,103218,
AFNE01.JPG,AFNE01.JPG,AFNE01.JPG,AFNE01.JPG,AFNE01.JPG,AFNE01.JPG,,,,,,,,,,,,,0,5,5,3,,,,,,,,,,,AFSA09.jpg,AFNE02.jpg,AFSA11.jpg,AFNE10.jpg,AFNE10.jpg,FN,3,num_4,16,num_4,0.849847873403,,,2018_Mar_23_1449,59.991225859,MAFE4ImagesEEG,001,103218,
AFNE01.JPG,AFNE01.JPG,AFNE01.JPG,AFNE01.JPG,AFNE01.JPG,AFNE01.JPG,,,,,,,,,,,,,0,6,6,5,,,,,,,,,,,AFNE15.jpg,AFSA18.jpg,AFSA10.jpg,AFNE17.jpg,AFNE15.jpg,FN,3,num_8,16,num_8,1.08347269451,,,2018_Mar_23_1449,59.991225859,MAFE4ImagesEEG,001,103218,
AFNE01.JPG,AFNE01.JPG,AFNE01.JPG,AFNE01.JPG,AFNE01.JPG,AFNE01.JPG,,,,,,,,,,,,,0,7,7,2,,,,,,,,,,,AFNE07.jpg,AFNE13.jpg,AFSA06.jpg,AFSA18.jpg,AFNE13.jpg,FN,3,num_6,16,num_6,1.26673376531,,,2018_Mar_23_1449,59.991225859,MAFE4ImagesEEG,001,103218,
AFNE01.JPG,AFNE01.JPG,AFNE01.JPG,AFNE01.JPG,AFNE01.JPG,AFNE01.JPG,,,,,,,,,,,,,0,8,8,0,,,,,,,,,,,AFNE05.jpg,AFSA19.jpg,AFNE20.jpg,AFSA07.jpg,AFSA19.jpg,FS,4,num_6,32,num_4,1.00008692032,,,2018_Mar_23_1449,59.991225859,MAFE4ImagesEEG,001,103218,
AFNE01.JPG,AFNE01.JPG,AFNE01.JPG,AFNE01.JPG,AFNE01.JPG,AFNE01.JPG,,,,,,,,,,,,,0,9,9,4,,,,,,,,,,,AFNE15.jpg,AFSA11.jpg,AFSA17.jpg,AFNE14.jpg,AFSA17.jpg,FS,4,num_2,16,num_2,1.60011071917,,,2018_Mar_23_1449,59.991225859,MAFE4ImagesEEG,001,103218,
AFNE01.JPG,AFNE01.JPG,AFNE01.JPG,AFNE01.JPG,AFNE01.JPG,AFNE01.JPG,,,,,,,,,,,,,1,0,10,1,,,,,,,,,,,AFNE18.jpg,AFNE10.jpg,AFSA03.jpg,AFSA02.jpg,AFSA03.jpg,FS,4,num_2,32,num_4,1.04997308998,,,2018_Mar_23_1449,59.991225859,MAFE4ImagesEEG,001,103218,
AFNE01.JPG,AFNE01.JPG,AFNE01.JPG,AFNE01.JPG,AFNE01.JPG,AFNE01.JPG,,,,,,,,,,,,,1,1,11,8,,,,,,,,,,,AFSA13.jpg,AFSA03.jpg,AFNE09.jpg,AFNE07.jpg,AFSA03.jpg,FS,4,num_6,16,num_6,1.78342471193,,,2018_Mar_23_1449,59.991225859,MAFE4ImagesEEG,001,103218,
AFNE01.JPG,AFNE01.JPG,AFNE01.JPG,AFNE01.JPG,AFNE01.JPG,AFNE01.JPG,,,,,,,,,,,,,1,2,12,0,,,,,,,,,,,AFSA16.jpg,AFSA17.jpg,AFNE01.jpg,AFNE19.jpg,AFNE19.jpg,FN,3,num_4,16,num_4,1.20010533075,,,2018_Mar_23_1449,59.991225859,MAFE4ImagesEEG,001,103218,
AFNE01.JPG,AFNE01.JPG,AFNE01.JPG,AFNE01.JPG,AFNE01.JPG,AFNE01.JPG,,,,,,,,,,,,,1,3,13,5,,,,,,,,,,,AFNE05.jpg,AFSA08.jpg,AFNE17.jpg,AFSA10.jpg,AFSA08.jpg,FS,4,num_6,16,num_6,1.00010905132,,,2018_Mar_23_1449,59.991225859,MAFE4ImagesEEG,001,103218,
AFNE01.JPG,AFNE01.JPG,AFNE01.JPG,AFNE01.JPG,AFNE01.JPG,AFNE01.JPG,,,,,,,,,,,,,1,4,14,9,,,,,,,,,,,AFSA01.jpg,AFSA19.jpg,AFNE17.jpg,AFNE19.jpg,AFNE19.jpg,FN,3,num_4,16,num_4,0.533473624654,,,2018_Mar_23_1449,59.991225859,MAFE4ImagesEEG,001,103218,
AFNE01.JPG,AFNE01.JPG,AFNE01.JPG,AFNE01.JPG,AFNE01.JPG,AFNE01.JPG,,,,,,,,,,,,,1,5,15,2,,,,,,,,,,,AFNE12.jpg,AFNE20.jpg,AFSA06.jpg,AFSA05.jpg,AFSA05.jpg,FS,4,num_4,16,num_4,0.716765165671,,,2018_Mar_23_1449,59.991225859,MAFE4ImagesEEG,001,103218,
AFNE01.JPG,AFNE01.JPG,AFNE01.JPG,AFNE01.JPG,AFNE01.JPG,AFNE01.JPG,,,,,,,,,,,,,1,6,16,6,,,,,,,,,,,AFSA07.jpg,AFNE10.jpg,AFNE11.jpg,AFSA18.jpg,AFNE11.jpg,FN,3,num_2,32,num_6,0.883486678739,,,2018_Mar_23_1449,59.991225859,MAFE4ImagesEEG,001,103218,
AFNE01.JPG,AFNE01.JPG,AFNE01.JPG,AFNE01.JPG,AFNE01.JPG,AFNE01.JPG,,,,,,,,,,,,,1,7,17,7,,,,,,,,,,,AFSA19.jpg,AFNE06.jpg,AFSA06.jpg,AFNE18.jpg,AFSA19.jpg,FS,4,num_8,32,num_4,2.15002639684,,,2018_Mar_23_1449,59.991225859,MAFE4ImagesEEG,001,103218,
AFNE01.JPG,AFNE01.JPG,AFNE01.JPG,AFNE01.JPG,AFNE01.JPG,AFNE01.JPG,,,,,,,,,,,,,1,8,18,4,,,,,,,,,,,AFNE18.jpg,AFSA02.jpg,AFSA15.jpg,AFNE11.jpg,AFSA02.jpg,FS,4,num_6,16,num_6,0.966802852526,,,2018_Mar_23_1449,59.991225859,MAFE4ImagesEEG,001,103218,
AFNE01.JPG,AFNE01.JPG,AFNE01.JPG,AFNE01.JPG,AFNE01.JPG,AFNE01.JPG,,,,,,,,,,,,,1,9,19,3,,,,,,,,,,,AFSA12.jpg,AFNE06.jpg,AFNE14.jpg,AFSA09.jpg,AFSA12.jpg,FS,4,num_8,16,num_8,1.98334369321,,,2018_Mar_23_1449,59.991225859,MAFE4ImagesEEG,001,103218,
AFNE01.JPG,AFNE01.JPG,AFNE01.JPG,AFNE01.JPG,AFNE01.JPG,AFNE01.JPG,,,,,,,,,,,,,2,0,20,5,,,,,,,,,,,AFSA08.jpg,AFSA14.jpg,AFNE08.jpg,AFNE19.jpg,AFSA08.jpg,FS,4,num_8,16,num_8,0.783456144368,,,2018_Mar_23_1449,59.991225859,MAFE4ImagesEEG,001,103218,
AFNE01.JPG,AFNE01.JPG,AFNE01.JPG,AFNE01.JPG,AFNE01.JPG,AFNE01.JPG,,,,,,,,,,,,,2,1,21,1,,,,,,,,,,,AFSA17.jpg,AFSA14.jpg,AFNE08.jpg,AFNE02.jpg,AFSA17.jpg,FS,4,num_8,16,num_8,0.916776519839,,,2018_Mar_23_1449,59.991225859,MAFE4ImagesEEG,001,103218,
AFNE01.JPG,AFNE01.JPG,AFNE01.JPG,AFNE01.JPG,AFNE01.JPG,AFNE01.JPG,,,,,,,,,,,,,2,2,22,0,,,,,,,,,,,AFNE14.jpg,AFSA11.jpg,AFSA16.jpg,AFNE16.jpg,AFSA11.jpg,FS,4,num_6,16,num_6,1.19995362111,,,2018_Mar_23_1449,59.991225859,MAFE4ImagesEEG,001,103218,
AFNE01.JPG,AFNE01.JPG,AFNE01.JPG,AFNE01.JPG,AFNE01.JPG,AFNE01.JPG,,,,,,,,,,,,,2,3,23,2,,,,,,,,,,,AFSA18.jpg,AFSA04.jpg,AFNE06.jpg,AFNE19.jpg,AFNE06.jpg,FN,3,num_2,32,num_4,0.933575876308,,,2018_Mar_23_1449,59.991225859,MAFE4ImagesEEG,001,103218,
AFNE01.JPG,AFNE01.JPG,AFNE01.JPG,AFNE01.JPG,AFNE01.JPG,AFNE01.JPG,,,,,,,,,,,,,2,4,24,6,,,,,,,,,,,AFNE05.jpg,AFSA13.jpg,AFSA20.jpg,AFNE16.jpg,AFSA20.jpg,FS,4,num_2,32,num_6,1.13343167197,,,2018_Mar_23_1449,59.991225859,MAFE4ImagesEEG,001,103218,
AFNE01.JPG,AFNE01.JPG,AFNE01.JPG,AFNE01.JPG,AFNE01.JPG,AFNE01.JPG,,,,,,,,,,,,,2,5,25,8,,,,,,,,,,,AFNE01.jpg,AFNE05.jpg,AFSA16.jpg,AFSA17.jpg,AFSA16.jpg,FS,4,num_2,16,num_2,1.08347397747,,,2018_Mar_23_1449,59.991225859,MAFE4ImagesEEG,001,103218,
AFNE01.JPG,AFNE01.JPG,AFNE01.JPG,AFNE01.JPG,AFNE01.JPG,AFNE01.JPG,,,,,,,,,,,,,2,6,26,4,,,,,,,,,,,AFNE20.jpg,AFSA18.jpg,AFSA15.jpg,AFNE16.jpg,AFSA18.jpg,FS,4,num_6,16,num_6,0.783511952987,,,2018_Mar_23_1449,59.991225859,MAFE4ImagesEEG,001,103218,
AFNE01.JPG,AFNE01.JPG,AFNE01.JPG,AFNE01.JPG,AFNE01.JPG,AFNE01.JPG,,,,,,,,,,,,,2,7,27,3,,,,,,,,,,,AFNE10.jpg,AFSA01.jpg,AFNE17.jpg,AFSA07.jpg,AFNE10.jpg,FN,3,num_8,32,num_4,1.00008339219,,,2018_Mar_23_1449,59.991225859,MAFE4ImagesEEG,001,103218,
AFNE01.JPG,AFNE01.JPG,AFNE01.JPG,AFNE01.JPG,AFNE01.JPG,AFNE01.JPG,,,,,,,,,,,,,2,8,28,9,,,,,,,,,,,AFSA07.jpg,AFNE08.jpg,AFNE20.jpg,AFSA20.jpg,AFNE08.jpg,FN,3,num_6,32,num_2,1.4833927663,,,2018_Mar_23_1449,59.991225859,MAFE4ImagesEEG,001,103218,
AFNE01.JPG,AFNE01.JPG,AFNE01.JPG,AFNE01.JPG,AFNE01.JPG,AFNE01.JPG,,,,,,,,,,,,,2,9,29,7,,,,,,,,,,,AFSA01.jpg,AFNE18.jpg,AFNE08.jpg,AFSA10.jpg,AFSA10.jpg,FS,4,num_4,16,num_4,0.71681295581,,,2018_Mar_23_1449,59.991225859,MAFE4ImagesEEG,001,103218,
AFNE01.JPG,AFNE01.JPG,AFNE01.JPG,AFNE01.JPG,AFNE01.JPG,AFNE01.JPG,,,,,,,,,,,,,3,0,30,9,,,,,,,,,,,AFNE08.jpg,AFSA04.jpg,AFSA03.jpg,AFNE11.jpg,AFNE11.jpg,FN,3,num_4,16,num_4,1.10017165961,,,2018_Mar_23_1449,59.991225859,MAFE4ImagesEEG,001,103218,
AFNE01.JPG,AFNE01.JPG,AFNE01.JPG,AFNE01.JPG,AFNE01.JPG,AFNE01.JPG,,,,,,,,,,,,,3,1,31,1,,,,,,,,,,,AFSA07.jpg,AFNE02.jpg,AFNE12.jpg,AFSA14.jpg,AFSA07.jpg,FS,4,num_8,32,num_6,1.10010109699,,,2018_Mar_23_1449,59.991225859,MAFE4ImagesEEG,001,103218,
AFNE01.JPG,AFNE01.JPG,AFNE01.JPG,AFNE01.JPG,AFNE01.JPG,AFNE01.JPG,,,,,,,,,,,,,3,2,32,4,,,,,,,,,,,AFSA17.jpg,AFSA02.jpg,AFNE04.jpg,AFNE16.jpg,AFNE04.jpg,FN,3,num_2,32,num_4,1.01665791049,,,2018_Mar_23_1449,59.991225859,MAFE4ImagesEEG,001,103218,
AFNE01.JPG,AFNE01.JPG,AFNE01.JPG,AFNE01.JPG,AFNE01.JPG,AFNE01.JPG,,,,,,,,,,,,,3,3,33,3,,,,,,,,,,,AFSA19.jpg,AFSA10.jpg,AFNE04.jpg,AFNE07.jpg,AFNE04.jpg,FN,3,num_2,16,num_2,1.23348145069,,,2018_Mar_23_1449,59.991225859,MAFE4ImagesEEG,001,103218,
AFNE01.JPG,AFNE01.JPG,AFNE01.JPG,AFNE01.JPG,AFNE01.JPG,AFNE01.JPG,,,,,,,,,,,,,3,4,34,0,,,,,,,,,,,AFSA13.jpg,AFNE03.jpg,AFSA07.jpg,AFNE16.jpg,AFSA13.jpg,FS,4,num_8,16,num_8,1.11674264978,,,2018_Mar_23_1449,59.991225859,MAFE4ImagesEEG,001,103218,
AFNE01.JPG,AFNE01.JPG,AFNE01.JPG,AFNE01.JPG,AFNE01.JPG,AFNE01.JPG,,,,,,,,,,,,,3,5,35,7,,,,,,,,,,,AFSA03.jpg,AFSA20.jpg,AFNE18.jpg,AFNE10.jpg,AFSA20.jpg,FS,4,num_6,32,num_8,1.16675230403,,,2018_Mar_23_1449,59.991225859,MAFE4ImagesEEG,001,103218,
AFNE01.JPG,AFNE01.JPG,AFNE01.JPG,AFNE01.JPG,AFNE01.JPG,AFNE01.JPG,,,,,,,,,,,,,3,6,36,6,,,,,,,,,,,AFNE19.jpg,AFSA15.jpg,AFNE09.jpg,AFSA04.jpg,AFSA15.jpg,FS,4,num_6,16,num_6,0.8334411017,,,2018_Mar_23_1449,59.991225859,MAFE4ImagesEEG,001,103218,
AFNE01.JPG,AFNE01.JPG,AFNE01.JPG,AFNE01.JPG,AFNE01.JPG,AFNE01.JPG,,,,,,,,,,,,,3,7,37,8,,,,,,,,,,,AFNE15.jpg,AFSA09.jpg,AFSA13.jpg,AFNE07.jpg,AFSA09.jpg,FS,4,num_6,16,num_6,0.850097087753,,,2018_Mar_23_1449,59.991225859,MAFE4ImagesEEG,001,103218,
AFNE01.JPG,AFNE01.JPG,AFNE01.JPG,AFNE01.JPG,AFNE01.JPG,AFNE01.JPG,,,,,,,,,,,,,3,8,38,2,,,,,,,,,,,AFSA16.jpg,AFNE19.jpg,AFNE05.jpg,AFSA19.jpg,AFSA19.jpg,FS,4,num_4,32,num_8,1.35007688118,,,2018_Mar_23_1449,59.991225859,MAFE4ImagesEEG,001,103218,
AFNE01.JPG,AFNE01.JPG,AFNE01.JPG,AFNE01.JPG,AFNE01.JPG,AFNE01.JPG,,,,,,,,,,,,,3,9,39,5,,,,,,,,,,,AFNE09.jpg,AFNE20.jpg,AFSA13.jpg,AFSA19.jpg,AFNE09.jpg,FN,3,num_8,16,num_8,1.16663138536,,,2018_Mar_23_1449,59.991225859,MAFE4ImagesEEG,001,103218,
AFNE01.JPG,AFNE01.JPG,AFNE01.JPG,AFNE01.JPG,AFNE01.JPG,AFNE01.JPG,,,,,,,,,,,,,4,0,40,0,,,,,,,,,,,AFNE03.jpg,AFNE05.jpg,AFSA10.jpg,AFSA14.jpg,AFNE05.jpg,FN,3,num_6,16,num_6,0.950090737117,,,2018_Mar_23_1449,59.991225859,MAFE4ImagesEEG,001,103218,
AFNE01.JPG,AFNE01.JPG,AFNE01.JPG,AFNE01.JPG,AFNE01.JPG,AFNE01.JPG,,,,,,,,,,,,,4,1,41,7,,,,,,,,,,,AFNE18.jpg,AFSA14.jpg,AFNE13.jpg,AFSA11.jpg,AFNE13.jpg,FN,3,num_2,32,num_8,1.11678498735,,,2018_Mar_23_1449,59.991225859,MAFE4ImagesEEG,001,103218,
AFNE01.JPG,AFNE01.JPG,AFNE01.JPG,AFNE01.JPG,AFNE01.JPG,AFNE01.JPG,,,,,,,,,,,,,4,2,42,6,,,,,,,,,,,AFNE14.jpg,AFSA08.jpg,AFNE05.jpg,AFSA06.jpg,AFSA06.jpg,FS,4,num_4,16,num_4,0.950150394605,,,2018_Mar_23_1449,59.991225859,MAFE4ImagesEEG,001,103218,
AFNE01.JPG,AFNE01.JPG,AFNE01.JPG,AFNE01.JPG,AFNE01.JPG,AFNE01.JPG,,,,,,,,,,,,,4,3,43,1,,,,,,,,,,,AFNE06.jpg,AFSA19.jpg,AFNE12.jpg,AFSA03.jpg,AFSA03.jpg,FS,4,num_4,16,num_4,0.866771035199,,,2018_Mar_23_1449,59.991225859,MAFE4ImagesEEG,001,103218,
AFNE01.JPG,AFNE01.JPG,AFNE01.JPG,AFNE01.JPG,AFNE01.JPG,AFNE01.JPG,,,,,,,,,,,,,4,4,44,3,,,,,,,,,,,AFSA19.jpg,AFNE19.jpg,AFNE15.jpg,AFSA08.jpg,AFSA19.jpg,FS,4,num_8,16,num_8,0.966773344521,,,2018_Mar_23_1449,59.991225859,MAFE4ImagesEEG,001,103218,
AFNE01.JPG,AFNE01.JPG,AFNE01.JPG,AFNE01.JPG,AFNE01.JPG,AFNE01.JPG,,,,,,,,,,,,,4,5,45,5,,,,,,,,,,,AFSA20.jpg,AFSA17.jpg,AFNE13.jpg,AFNE09.jpg,AFNE09.jpg,FN,3,num_4,32,num_8,1.30008967868,,,2018_Mar_23_1449,59.991225859,MAFE4ImagesEEG,001,103218,
AFNE01.JPG,AFNE01.JPG,AFNE01.JPG,AFNE01.JPG,AFNE01.JPG,AFNE01.JPG,,,,,,,,,,,,,4,6,46,8,,,,,,,,,,,AFSA05.jpg,AFNE03.jpg,AFSA10.jpg,AFNE13.jpg,AFNE03.jpg,FN,3,num_6,16,num_6,0.883497263133,,,2018_Mar_23_1449,59.991225859,MAFE4ImagesEEG,001,103218,
AFNE01.JPG,AFNE01.JPG,AFNE01.JPG,AFNE01.JPG,AFNE01.JPG,AFNE01.JPG,,,,,,,,,,,,,4,7,47,4,,,,,,,,,,,AFNE04.jpg,AFNE19.jpg,AFSA01.jpg,AFSA14.jpg,AFSA14.jpg,FS,4,num_4,16,num_4,1.05009144274,,,2018_Mar_23_1449,59.991225859,MAFE4ImagesEEG,001,103218,
AFNE01.JPG,AFNE01.JPG,AFNE01.JPG,AFNE01.JPG,AFNE01.JPG,AFNE01.JPG,,,,,,,,,,,,,4,8,48,2,,,,,,,,,,,AFNE13.jpg,AFSA09.jpg,AFNE12.jpg,AFSA16.jpg,AFSA16.jpg,FS,4,num_4,16,num_4,0.916764652489,,,2018_Mar_23_1449,59.991225859,MAFE4ImagesEEG,001,103218,
AFNE01.JPG,AFNE01.JPG,AFNE01.JPG,AFNE01.JPG,AFNE01.JPG,AFNE01.JPG,,,,,,,,,,,,,4,9,49,9,,,,,,,,,,,AFSA05.jpg,AFSA20.jpg,AFNE07.jpg,AFNE19.jpg,AFNE19.jpg,FN,3,num_4,16,num_4,1.58350380621,,,2018_Mar_23_1449,59.991225859,MAFE4ImagesEEG,001,103218,
AFNE01.JPG,AFNE01.JPG,AFNE01.JPG,AFNE01.JPG,AFNE01.JPG,AFNE01.JPG,,,,,,,,,,,,,5,0,50,5,,,,,,,,,,,AFNE08.jpg,AFNE11.jpg,AFSA08.jpg,AFSA16.jpg,AFNE08.jpg,FN,3,num_8,16,num_8,1.15006648923,,,2018_Mar_23_1449,59.991225859,MAFE4ImagesEEG,001,103218,
AFNE01.JPG,AFNE01.JPG,AFNE01.JPG,AFNE01.JPG,AFNE01.JPG,AFNE01.JPG,,,,,,,,,,,,,5,1,51,8,,,,,,,,,,,AFSA03.jpg,AFNE10.jpg,AFSA20.jpg,AFNE05.jpg,AFSA03.jpg,FS,4,num_8,16,num_8,1.03359422259,,,2018_Mar_23_1449,59.991225859,MAFE4ImagesEEG,001,103218,
AFNE01.JPG,AFNE01.JPG,AFNE01.JPG,AFNE01.JPG,AFNE01.JPG,AFNE01.JPG,,,,,,,,,,,,,5,2,52,6,,,,,,,,,,,AFSA17.jpg,AFNE15.jpg,AFNE04.jpg,AFSA08.jpg,AFSA08.jpg,FS,4,num_4,32,num_8,1.55008919757,,,2018_Mar_23_1449,59.991225859,MAFE4ImagesEEG,001,103218,
AFNE01.JPG,AFNE01.JPG,AFNE01.JPG,AFNE01.JPG,AFNE01.JPG,AFNE01.JPG,,,,,,,,,,,,,5,3,53,2,,,,,,,,,,,AFSA12.jpg,AFNE07.jpg,AFSA06.jpg,AFNE17.jpg,AFSA06.jpg,FS,4,num_2,16,num_2,0.816775814212,,,2018_Mar_23_1449,59.991225859,MAFE4ImagesEEG,001,103218,
AFNE01.JPG,AFNE01.JPG,AFNE01.JPG,AFNE01.JPG,AFNE01.JPG,AFNE01.JPG,,,,,,,,,,,,,5,4,54,4,,,,,,,,,,,AFNE18.jpg,AFNE01.jpg,AFSA13.jpg,AFSA20.jpg,AFNE01.jpg,FN,3,num_6,16,num_6,1.16677507651,,,2018_Mar_23_1449,59.991225859,MAFE4ImagesEEG,001,103218,
AFNE01.JPG,AFNE01.JPG,AFNE01.JPG,AFNE01.JPG,AFNE01.JPG,AFNE01.JPG,,,,,,,,,,,,,5,5,55,9,,,,,,,,,,,AFNE01.jpg,AFSA02.jpg,AFSA09.jpg,AFNE04.jpg,AFSA02.jpg,FS,4,num_6,32,num_2,0.950130508776,,,2018_Mar_23_1449,59.991225859,MAFE4ImagesEEG,001,103218,
AFNE01.JPG,AFNE01.JPG,AFNE01.JPG,AFNE01.JPG,AFNE01.JPG,AFNE01.JPG,,,,,,,,,,,,,5,6,56,7,,,,,,,,,,,AFNE03.jpg,AFSA14.jpg,AFNE02.jpg,AFSA01.jpg,AFSA14.jpg,FS,4,num_6,32,num_4,1.15016752208,,,2018_Mar_23_1449,59.991225859,MAFE4ImagesEEG,001,103218,
AFNE01.JPG,AFNE01.JPG,AFNE01.JPG,AFNE01.JPG,AFNE01.JPG,AFNE01.JPG,,,,,,,,,,,,,5,7,57,3,,,,,,,,,,,AFSA08.jpg,AFNE02.jpg,AFNE01.jpg,AFSA18.jpg,AFNE01.jpg,FN,3,num_2,32,num_6,1.21688191474,,,2018_Mar_23_1449,59.991225859,MAFE4ImagesEEG,001,103218,
AFNE01.JPG,AFNE01.JPG,AFNE01.JPG,AFNE01.JPG,AFNE01.JPG,AFNE01.JPG,,,,,,,,,,,,,5,8,58,1,,,,,,,,,,,AFNE11.jpg,AFNE03.jpg,AFSA13.jpg,AFSA06.jpg,AFNE11.jpg,FN,3,num_8,16,num_8,0.866779695157,,,2018_Mar_23_1449,59.991225859,MAFE4ImagesEEG,001,103218,
AFNE01.JPG,AFNE01.JPG,AFNE01.JPG,AFNE01.JPG,AFNE01.JPG,AFNE01.JPG,,,,,,,,,,,,,5,9,59,0,,,,,,,,,,,AFNE13.jpg,AFNE01.jpg,AFSA12.jpg,AFSA05.jpg,AFSA12.jpg,FS,4,num_2,16,num_2,1.56651713806,,,2018_Mar_23_1449,59.991225859,MAFE4ImagesEEG,001,103218,
,,,,,,,,,,,,,,,,,,,,,,,,,,,,,,,,,,,,,,,,,,,space,2.08343099842,2018_Mar_23_1449,59.991225859,MAFE4ImagesEEG,001,103218,
AFNE01.JPG,AFNE01.JPG,AFNE01.JPG,AFNE01.JPG,AFNE01.JPG,AFNE01.JPG,,,,,,,,,,,,,,,,,0,0,0,3,,,,,,,AMNE05.jpg,AMNE16.jpg,AMSA14.jpg,AMSA01.jpg,AMNE05.jpg,MN,1,num_8,32,num_6,0.933483824161,,,2018_Mar_23_1449,59.991225859,MAFE4ImagesEEG,001,103218,
AFNE01.JPG,AFNE01.JPG,AFNE01.JPG,AFNE01.JPG,AFNE01.JPG,AFNE01.JPG,,,,,,,,,,,,,,,,,0,1,1,2,,,,,,,AMSA13.jpg,AMNE10.jpg,AMNE11.jpg,AMSA04.jpg,AMNE10.jpg,MN,1,num_6,16,num_6,0.933710586766,,,2018_Mar_23_1449,59.991225859,MAFE4ImagesEEG,001,103218,
AFNE01.JPG,AFNE01.JPG,AFNE01.JPG,AFNE01.JPG,AFNE01.JPG,AFNE01.JPG,,,,,,,,,,,,,,,,,0,2,2,9,,,,,,,AMNE15.jpg,AMSA13.jpg,AMNE13.jpg,AMSA20.jpg,AMSA13.jpg,MS,2,num_6,16,num_6,1.28348212424,,,2018_Mar_23_1449,59.991225859,MAFE4ImagesEEG,001,103218,
AFNE01.JPG,AFNE01.JPG,AFNE01.JPG,AFNE01.JPG,AFNE01.JPG,AFNE01.JPG,,,,,,,,,,,,,,,,,0,3,3,8,,,,,,,AMNE07.jpg,AMSA08.jpg,AMSA03.jpg,AMNE12.jpg,AMNE07.jpg,MN,1,num_8,16,num_8,0.916627376117,,,2018_Mar_23_1449,59.991225859,MAFE4ImagesEEG,001,103218,
AFNE01.JPG,AFNE01.JPG,AFNE01.JPG,AFNE01.JPG,AFNE01.JPG,AFNE01.JPG,,,,,,,,,,,,,,,,,0,4,4,4,,,,,,,AMNE15.jpg,AMNE06.jpg,AMSA09.jpg,AMSA16.jpg,AMNE15.jpg,MN,1,num_8,16,num_8,1.43339722458,,,2018_Mar_23_1449,59.991225859,MAFE4ImagesEEG,001,103218,
AFNE01.JPG,AFNE01.JPG,AFNE01.JPG,AFNE01.JPG,AFNE01.JPG,AFNE01.JPG,,,,,,,,,,,,,,,,,0,5,5,7,,,,,,,AMSA19.jpg,AMSA09.jpg,AMNE18.jpg,AMNE02.jpg,AMNE18.jpg,MN,1,num_2,32,num_4,1.26671676613,,,2018_Mar_23_1449,59.991225859,MAFE4ImagesEEG,001,103218,
AFNE01.JPG,AFNE01.JPG,AFNE01.JPG,AFNE01.JPG,AFNE01.JPG,AFNE01.JPG,,,,,,,,,,,,,,,,,0,6,6,0,,,,,,,AMSA08.jpg,AMNE08.jpg,AMNE05.jpg,AMSA20.jpg,AMNE08.jpg,MN,1,num_6,16,num_6,1.23342628355,,,2018_Mar_23_1449,59.991225859,MAFE4ImagesEEG,001,103218,
AFNE01.JPG,AFNE01.JPG,AFNE01.JPG,AFNE01.JPG,AFNE01.JPG,AFNE01.JPG,,,,,,,,,,,,,,,,,0,7,7,5,,,,,,,AMNE02.jpg,AMNE20.jpg,AMSA20.jpg,AMSA09.jpg,AMSA20.jpg,MS,2,num_2,16,num_2,1.03343673965,,,2018_Mar_23_1449,59.991225859,MAFE4ImagesEEG,001,103218,
AFNE01.JPG,AFNE01.JPG,AFNE01.JPG,AFNE01.JPG,AFNE01.JPG,AFNE01.JPG,,,,,,,,,,,,,,,,,0,8,8,6,,,,,,,AMNE08.jpg,AMSA10.jpg,AMNE10.jpg,AMSA02.jpg,AMNE08.jpg,MN,1,num_8,16,num_8,1.56671663783,,,2018_Mar_23_1449,59.991225859,MAFE4ImagesEEG,001,103218,
AFNE01.JPG,AFNE01.JPG,AFNE01.JPG,AFNE01.JPG,AFNE01.JPG,AFNE01.JPG,,,,,,,,,,,,,,,,,0,9,9,1,,,,,,,AMSA13.jpg,AMNE13.jpg,AMSA09.jpg,AMNE06.jpg,AMNE13.jpg,MN,1,num_6,32,num_4,1.39981711451,,,2018_Mar_23_1449,59.991225859,MAFE4ImagesEEG,001,103218,
AFNE01.JPG,AFNE01.JPG,AFNE01.JPG,AFNE01.JPG,AFNE01.JPG,AFNE01.JPG,,,,,,,,,,,,,,,,,1,0,10,9,,,,,,,AMSA13.jpg,AMSA04.jpg,AMNE05.jpg,AMNE02.jpg,AMNE02.jpg,MN,1,num_4,16,num_4,0.900119892309,,,2018_Mar_23_1449,59.991225859,MAFE4ImagesEEG,001,103218,
AFNE01.JPG,AFNE01.JPG,AFNE01.JPG,AFNE01.JPG,AFNE01.JPG,AFNE01.JPG,,,,,,,,,,,,,,,,,1,1,11,6,,,,,,,AMSA15.jpg,AMNE05.jpg,AMNE02.jpg,AMSA07.jpg,AMSA07.jpg,MS,2,num_4,32,num_8,1.45009426525,,,2018_Mar_23_1449,59.991225859,MAFE4ImagesEEG,001,103218,
AFNE01.JPG,AFNE01.JPG,AFNE01.JPG,AFNE01.JPG,AFNE01.JPG,AFNE01.JPG,,,,,,,,,,,,,,,,,1,2,12,2,,,,,,,AMNE16.jpg,AMSA18.jpg,AMSA04.jpg,AMNE06.jpg,AMNE06.jpg,MN,1,num_4,16,num_4,1.18369086131,,,2018_Mar_23_1449,59.991225859,MAFE4ImagesEEG,001,103218,
AFNE01.JPG,AFNE01.JPG,AFNE01.JPG,AFNE01.JPG,AFNE01.JPG,AFNE01.JPG,,,,,,,,,,,,,,,,,1,3,13,8,,,,,,,AMSA16.jpg,AMNE14.jpg,AMSA18.jpg,AMNE01.jpg,AMSA16.jpg,MS,2,num_8,16,num_8,1.00014882298,,,2018_Mar_23_1449,59.991225859,MAFE4ImagesEEG,001,103218,
AFNE01.JPG,AFNE01.JPG,AFNE01.JPG,AFNE01.JPG,AFNE01.JPG,AFNE01.JPG,,,,,,,,,,,,,,,,,1,4,14,3,,,,,,,AMSA13.jpg,AMNE04.jpg,AMSA09.jpg,AMNE01.jpg,AMSA09.jpg,MS,2,num_2,16,num_2,1.18342945887,,,2018_Mar_23_1449,59.991225859,MAFE4ImagesEEG,001,103218,
AFNE01.JPG,AFNE01.JPG,AFNE01.JPG,AFNE01.JPG,AFNE01.JPG,AFNE01.JPG,,,,,,,,,,,,,,,,,1,5,15,4,,,,,,,AMSA12.jpg,AMNE07.jpg,AMSA15.jpg,AMNE13.jpg,AMNE13.jpg,MN,1,num_4,16,num_4,0.83345328979,,,2018_Mar_23_1449,59.991225859,MAFE4ImagesEEG,001,103218,
AFNE01.JPG,AFNE01.JPG,AFNE01.JPG,AFNE01.JPG,AFNE01.JPG,AFNE01.JPG,,,,,,,,,,,,,,,,,1,6,16,1,,,,,,,AMSA01.jpg,AMNE14.jpg,AMNE09.jpg,AMSA11.jpg,AMNE14.jpg,MN,1,num_6,16,num_6,1.06676250354,,,2018_Mar_23_1449,59.991225859,MAFE4ImagesEEG,001,103218,
AFNE01.JPG,AFNE01.JPG,AFNE01.JPG,AFNE01.JPG,AFNE01.JPG,AFNE01.JPG,,,,,,,,,,,,,,,,,1,7,17,5,,,,,,,AMNE15.jpg,AMSA17.jpg,AMNE12.jpg,AMSA20.jpg,AMSA20.jpg,MS,2,num_4,16,num_4,0.883564618362,,,2018_Mar_23_1449,59.991225859,MAFE4ImagesEEG,001,103218,
AFNE01.JPG,AFNE01.JPG,AFNE01.JPG,AFNE01.JPG,AFNE01.JPG,AFNE01.JPG,,,,,,,,,,,,,,,,,1,8,18,7,,,,,,,AMSA15.jpg,AMNE16.jpg,AMNE17.jpg,AMSA09.jpg,AMNE17.jpg,MN,1,num_2,16,num_2,1.2334291702,,,2018_Mar_23_1449,59.991225859,MAFE4ImagesEEG,001,103218,
AFNE01.JPG,AFNE01.JPG,AFNE01.JPG,AFNE01.JPG,AFNE01.JPG,AFNE01.JPG,,,,,,,,,,,,,,,,,1,9,19,0,,,,,,,AMSA15.jpg,AMNE02.jpg,AMSA02.jpg,AMNE08.jpg,AMSA15.jpg,MS,2,num_8,16,num_8,0.800147411731,,,2018_Mar_23_1449,59.991225859,MAFE4ImagesEEG,001,103218,
AFNE01.JPG,AFNE01.JPG,AFNE01.JPG,AFNE01.JPG,AFNE01.JPG,AFNE01.JPG,,,,,,,,,,,,,,,,,2,0,20,0,,,,,,,AMSA07.jpg,AMNE13.jpg,AMNE15.jpg,AMSA17.jpg,AMNE13.jpg,MN,1,num_6,16,num_6,1.26646755178,,,2018_Mar_23_1449,59.991225859,MAFE4ImagesEEG,001,103218,
AFNE01.JPG,AFNE01.JPG,AFNE01.JPG,AFNE01.JPG,AFNE01.JPG,AFNE01.JPG,,,,,,,,,,,,,,,,,2,1,21,5,,,,,,,AMNE06.jpg,AMSA05.jpg,AMSA06.jpg,AMNE18.jpg,AMNE06.jpg,MN,1,num_8,16,num_8,1.81674181586,,,2018_Mar_23_1449,59.991225859,MAFE4ImagesEEG,001,103218,
AFNE01.JPG,AFNE01.JPG,AFNE01.JPG,AFNE01.JPG,AFNE01.JPG,AFNE01.JPG,,,,,,,,,,,,,,,,,2,2,22,9,,,,,,,AMNE18.jpg,AMSA07.jpg,AMNE19.jpg,AMSA16.jpg,AMNE19.jpg,MN,1,num_2,16,num_2,1.01682020452,,,2018_Mar_23_1449,59.991225859,MAFE4ImagesEEG,001,103218,
AFNE01.JPG,AFNE01.JPG,AFNE01.JPG,AFNE01.JPG,AFNE01.JPG,AFNE01.JPG,,,,,,,,,,,,,,,,,2,3,23,2,,,,,,,AMNE15.jpg,AMSA09.jpg,AMSA11.jpg,AMNE08.jpg,AMNE08.jpg,MN,1,num_4,16,num_4,1.51676728255,,,2018_Mar_23_1449,59.991225859,MAFE4ImagesEEG,001,103218,
AFNE01.JPG,AFNE01.JPG,AFNE01.JPG,AFNE01.JPG,AFNE01.JPG,AFNE01.JPG,,,,,,,,,,,,,,,,,2,4,24,3,,,,,,,AMSA05.jpg,AMNE06.jpg,AMNE09.jpg,AMSA08.jpg,AMNE06.jpg,MN,1,num_6,16,num_6,0.650251235006,,,2018_Mar_23_1449,59.991225859,MAFE4ImagesEEG,001,103218,
AFNE01.JPG,AFNE01.JPG,AFNE01.JPG,AFNE01.JPG,AFNE01.JPG,AFNE01.JPG,,,,,,,,,,,,,,,,,2,5,25,1,,,,,,,AMNE18.jpg,AMNE08.jpg,AMSA05.jpg,AMSA10.jpg,AMNE18.jpg,MN,1,num_8,32,num_4,1.00010937206,,,2018_Mar_23_1449,59.991225859,MAFE4ImagesEEG,001,103218,
AFNE01.JPG,AFNE01.JPG,AFNE01.JPG,AFNE01.JPG,AFNE01.JPG,AFNE01.JPG,,,,,,,,,,,,,,,,,2,6,26,4,,,,,,,AMNE06.jpg,AMSA16.jpg,AMNE16.jpg,AMSA07.jpg,AMSA07.jpg,MS,2,num_4,16,num_4,1.05010651748,,,2018_Mar_23_1449,59.991225859,MAFE4ImagesEEG,001,103218,
AFNE01.JPG,AFNE01.JPG,AFNE01.JPG,AFNE01.JPG,AFNE01.JPG,AFNE01.JPG,,,,,,,,,,,,,,,,,2,7,27,7,,,,,,,AMSA17.jpg,AMNE09.jpg,AMSA02.jpg,AMNE10.jpg,AMSA17.jpg,MS,2,num_8,16,num_8,0.800123035552,,,2018_Mar_23_1449,59.991225859,MAFE4ImagesEEG,001,103218,
AFNE01.JPG,AFNE01.JPG,AFNE01.JPG,AFNE01.JPG,AFNE01.JPG,AFNE01.JPG,,,,,,,,,,,,,,,,,2,8,28,6,,,,,,,AMNE14.jpg,AMNE15.jpg,AMSA15.jpg,AMSA18.jpg,AMNE15.jpg,MN,1,num_6,16,num_6,2.68332682233,,,2018_Mar_23_1449,59.991225859,MAFE4ImagesEEG,001,103218,
AFNE01.JPG,AFNE01.JPG,AFNE01.JPG,AFNE01.JPG,AFNE01.JPG,AFNE01.JPG,,,,,,,,,,,,,,,,,2,9,29,8,,,,,,,AMNE14.jpg,AMSA05.jpg,AMSA06.jpg,AMNE11.jpg,AMSA06.jpg,MS,2,num_2,32,num_6,1.20002354226,,,2018_Mar_23_1449,59.991225859,MAFE4ImagesEEG,001,103218,
AFNE01.JPG,AFNE01.JPG,AFNE01.JPG,AFNE01.JPG,AFNE01.JPG,AFNE01.JPG,,,,,,,,,,,,,,,,,3,0,30,5,,,,,,,AMNE05.jpg,AMSA04.jpg,AMNE03.jpg,AMSA16.jpg,AMNE03.jpg,MN,1,num_2,32,num_8,1.48339501148,,,2018_Mar_23_1449,59.991225859,MAFE4ImagesEEG,001,103218,
AFNE01.JPG,AFNE01.JPG,AFNE01.JPG,AFNE01.JPG,AFNE01.JPG,AFNE01.JPG,,,,,,,,,,,,,,,,,3,1,31,7,,,,,,,AMNE17.jpg,AMSA11.jpg,AMSA14.jpg,AMNE09.jpg,AMNE17.jpg,MN,1,num_8,32,num_4,1.5334101183,,,2018_Mar_23_1449,59.991225859,MAFE4ImagesEEG,001,103218,
AFNE01.JPG,AFNE01.JPG,AFNE01.JPG,AFNE01.JPG,AFNE01.JPG,AFNE01.JPG,,,,,,,,,,,,,,,,,3,2,32,3,,,,,,,AMSA12.jpg,AMSA20.jpg,AMNE05.jpg,AMNE10.jpg,AMNE10.jpg,MN,1,num_4,16,num_4,0.950195618831,,,2018_Mar_23_1449,59.991225859,MAFE4ImagesEEG,001,103218,
AFNE01.JPG,AFNE01.JPG,AFNE01.JPG,AFNE01.JPG,AFNE01.JPG,AFNE01.JPG,,,,,,,,,,,,,,,,,3,3,33,8,,,,,,,AMNE09.jpg,AMSA14.jpg,AMSA02.jpg,AMNE03.jpg,AMNE09.jpg,MN,1,num_8,16,num_8,1.16674813442,,,2018_Mar_23_1449,59.991225859,MAFE4ImagesEEG,001,103218,
AFNE01.JPG,AFNE01.JPG,AFNE01.JPG,AFNE01.JPG,AFNE01.JPG,AFNE01.JPG,,,,,,,,,,,,,,,,,3,4,34,1,,,,,,,AMSA02.jpg,AMNE11.jpg,AMSA17.jpg,AMNE19.jpg,AMSA17.jpg,MS,2,num_2,16,num_2,1.00008884476,,,2018_Mar_23_1449,59.991225859,MAFE4ImagesEEG,001,103218,
AFNE01.JPG,AFNE01.JPG,AFNE01.JPG,AFNE01.JPG,AFNE01.JPG,AFNE01.JPG,,,,,,,,,,,,,,,,,3,5,35,6,,,,,,,AMNE04.jpg,AMSA12.jpg,AMNE01.jpg,AMSA13.jpg,AMNE01.jpg,MN,1,num_2,16,num_2,1.18338744203,,,2018_Mar_23_1449,59.991225859,MAFE4ImagesEEG,001,103218,
AFNE01.JPG,AFNE01.JPG,AFNE01.JPG,AFNE01.JPG,AFNE01.JPG,AFNE01.JPG,,,,,,,,,,,,,,,,,3,6,36,9,,,,,,,AMSA08.jpg,AMNE02.jpg,AMSA06.jpg,AMNE11.jpg,AMSA06.jpg,MS,2,num_2,16,num_2,0.91674412518,,,2018_Mar_23_1449,59.991225859,MAFE4ImagesEEG,001,103218,
AFNE01.JPG,AFNE01.JPG,AFNE01.JPG,AFNE01.JPG,AFNE01.JPG,AFNE01.JPG,,,,,,,,,,,,,,,,,3,7,37,0,,,,,,,AMNE20.jpg,AMNE04.jpg,AMSA01.jpg,AMSA09.jpg,AMNE04.jpg,MN,1,num_6,16,num_6,0.983481290321,,,2018_Mar_23_1449,59.991225859,MAFE4ImagesEEG,001,103218,
AFNE01.JPG,AFNE01.JPG,AFNE01.JPG,AFNE01.JPG,AFNE01.JPG,AFNE01.JPG,,,,,,,,,,,,,,,,,3,8,38,2,,,,,,,AMNE11.jpg,AMSA04.jpg,AMNE01.jpg,AMSA13.jpg,AMNE11.jpg,MN,1,num_8,16,num_8,1.00013182381,,,2018_Mar_23_1449,59.991225859,MAFE4ImagesEEG,001,103218,
AFNE01.JPG,AFNE01.JPG,AFNE01.JPG,AFNE01.JPG,AFNE01.JPG,AFNE01.JPG,,,,,,,,,,,,,,,,,3,9,39,4,,,,,,,AMSA09.jpg,AMSA16.jpg,AMNE12.jpg,AMNE18.jpg,AMNE18.jpg,MN,1,num_4,16,num_4,0.916748615529,,,2018_Mar_23_1449,59.991225859,MAFE4ImagesEEG,001,103218,
AFNE01.JPG,AFNE01.JPG,AFNE01.JPG,AFNE01.JPG,AFNE01.JPG,AFNE01.JPG,,,,,,,,,,,,,,,,,4,0,40,3,,,,,,,AMSA17.jpg,AMSA13.jpg,AMNE02.jpg,AMNE05.jpg,AMNE05.jpg,MN,1,num_4,16,num_4,2.84997135799,,,2018_Mar_23_1449,59.991225859,MAFE4ImagesEEG,001,103218,
AFNE01.JPG,AFNE01.JPG,AFNE01.JPG,AFNE01.JPG,AFNE01.JPG,AFNE01.JPG,,,,,,,,,,,,,,,,,4,1,41,0,,,,,,,AMNE01.jpg,AMNE06.jpg,AMSA15.jpg,AMSA17.jpg,AMNE06.jpg,MN,1,num_6,32,num_8,1.2834522955,,,2018_Mar_23_1449,59.991225859,MAFE4ImagesEEG,001,103218,
AFNE01.JPG,AFNE01.JPG,AFNE01.JPG,AFNE01.JPG,AFNE01.JPG,AFNE01.JPG,,,,,,,,,,,,,,,,,4,2,42,9,,,,,,,AMNE08.jpg,AMNE09.jpg,AMSA09.jpg,AMSA10.jpg,AMSA10.jpg,MS,2,num_4,32,num_2,0.900117967873,,,2018_Mar_23_1449,59.991225859,MAFE4ImagesEEG,001,103218,
AFNE01.JPG,AFNE01.JPG,AFNE01.JPG,AFNE01.JPG,AFNE01.JPG,AFNE01.JPG,,,,,,,,,,,,,,,,,4,3,43,2,,,,,,,AMSA13.jpg,AMSA02.jpg,AMNE02.jpg,AMNE08.jpg,AMNE02.jpg,MN,1,num_2,32,num_6,1.53369717987,,,2018_Mar_23_1449,59.991225859,MAFE4ImagesEEG,001,103218,
AFNE01.JPG,AFNE01.JPG,AFNE01.JPG,AFNE01.JPG,AFNE01.JPG,AFNE01.JPG,,,,,,,,,,,,,,,,,4,4,44,5,,,,,,,AMSA04.jpg,AMNE12.jpg,AMSA17.jpg,AMNE09.jpg,AMSA04.jpg,MS,2,num_8,16,num_8,1.3667694315,,,2018_Mar_23_1449,59.991225859,MAFE4ImagesEEG,001,103218,
AFNE01.JPG,AFNE01.JPG,AFNE01.JPG,AFNE01.JPG,AFNE01.JPG,AFNE01.JPG,,,,,,,,,,,,,,,,,4,5,45,1,,,,,,,AMNE12.jpg,AMNE10.jpg,AMSA17.jpg,AMSA15.jpg,AMNE10.jpg,MN,1,num_6,16,num_6,1.20010885888,,,2018_Mar_23_1449,59.991225859,MAFE4ImagesEEG,001,103218,
AFNE01.JPG,AFNE01.JPG,AFNE01.JPG,AFNE01.JPG,AFNE01.JPG,AFNE01.JPG,,,,,,,,,,,,,,,,,4,6,46,4,,,,,,,AMSA02.jpg,AMSA20.jpg,AMNE10.jpg,AMNE14.jpg,AMNE14.jpg,MN,1,num_4,32,num_6,1.06674646658,,,2018_Mar_23_1449,59.991225859,MAFE4ImagesEEG,001,103218,
AFNE01.JPG,AFNE01.JPG,AFNE01.JPG,AFNE01.JPG,AFNE01.JPG,AFNE01.JPG,,,,,,,,,,,,,,,,,4,7,47,7,,,,,,,AMNE15.jpg,AMSA10.jpg,AMSA11.jpg,AMNE17.jpg,AMNE17.jpg,MN,1,num_4,16,num_4,0.983421632832,,,2018_Mar_23_1449,59.991225859,MAFE4ImagesEEG,001,103218,
AFNE01.JPG,AFNE01.JPG,AFNE01.JPG,AFNE01.JPG,AFNE01.JPG,AFNE01.JPG,,,,,,,,,,,,,,,,,4,8,48,8,,,,,,,AMSA02.jpg,AMNE11.jpg,AMNE07.jpg,AMSA09.jpg,AMSA09.jpg,MS,2,num_4,16,num_4,1.00021489526,,,2018_Mar_23_1449,59.991225859,MAFE4ImagesEEG,001,103218,
AFNE01.JPG,AFNE01.JPG,AFNE01.JPG,AFNE01.JPG,AFNE01.JPG,AFNE01.JPG,,,,,,,,,,,,,,,,,4,9,49,6,,,,,,,AMSA07.jpg,AMNE12.jpg,AMNE19.jpg,AMSA19.jpg,AMSA19.jpg,MS,2,num_4,32,num_8,0.966730686209,,,2018_Mar_23_1449,59.991225859,MAFE4ImagesEEG,001,103218,
AFNE01.JPG,AFNE01.JPG,AFNE01.JPG,AFNE01.JPG,AFNE01.JPG,AFNE01.JPG,,,,,,,,,,,,,,,,,5,0,50,4,,,,,,,AMNE09.jpg,AMSA04.jpg,AMNE07.jpg,AMSA19.jpg,AMNE09.jpg,MN,1,num_8,16,num_8,0.916767539142,,,2018_Mar_23_1449,59.991225859,MAFE4ImagesEEG,001,103218,
AFNE01.JPG,AFNE01.JPG,AFNE01.JPG,AFNE01.JPG,AFNE01.JPG,AFNE01.JPG,,,,,,,,,,,,,,,,,5,1,51,5,,,,,,,AMNE20.jpg,AMNE05.jpg,AMSA14.jpg,AMSA10.jpg,AMSA10.jpg,MS,2,num_4,16,num_4,0.91681148041,,,2018_Mar_23_1449,59.991225859,MAFE4ImagesEEG,001,103218,
AFNE01.JPG,AFNE01.JPG,AFNE01.JPG,AFNE01.JPG,AFNE01.JPG,AFNE01.JPG,,,,,,,,,,,,,,,,,5,2,52,9,,,,,,,AMSA10.jpg,AMSA11.jpg,AMNE10.jpg,AMNE05.jpg,AMNE10.jpg,MN,1,num_2,32,num_4,1.1000994933,,,2018_Mar_23_1449,59.991225859,MAFE4ImagesEEG,001,103218,
AFNE01.JPG,AFNE01.JPG,AFNE01.JPG,AFNE01.JPG,AFNE01.JPG,AFNE01.JPG,,,,,,,,,,,,,,,,,5,3,53,3,,,,,,,AMNE20.jpg,AMNE15.jpg,AMSA16.jpg,AMSA05.jpg,AMSA16.jpg,MS,2,num_2,32,num_4,1.09996895245,,,2018_Mar_23_1449,59.991225859,MAFE4ImagesEEG,001,103218,
AFNE01.JPG,AFNE01.JPG,AFNE01.JPG,AFNE01.JPG,AFNE01.JPG,AFNE01.JPG,,,,,,,,,,,,,,,,,5,4,54,7,,,,,,,AMNE15.jpg,AMNE12.jpg,AMSA14.jpg,AMSA03.jpg,AMSA03.jpg,MS,2,num_4,16,num_4,0.950170601174,,,2018_Mar_23_1449,59.991225859,MAFE4ImagesEEG,001,103218,
AFNE01.JPG,AFNE01.JPG,AFNE01.JPG,AFNE01.JPG,AFNE01.JPG,AFNE01.JPG,,,,,,,,,,,,,,,,,5,5,55,8,,,,,,,AMSA01.jpg,AMSA13.jpg,AMNE11.jpg,AMNE01.jpg,AMNE01.jpg,MN,1,num_4,16,num_4,1.10012098282,,,2018_Mar_23_1449,59.991225859,MAFE4ImagesEEG,001,103218,
AFNE01.JPG,AFNE01.JPG,AFNE01.JPG,AFNE01.JPG,AFNE01.JPG,AFNE01.JPG,,,,,,,,,,,,,,,,,5,6,56,1,,,,,,,AMSA19.jpg,AMNE12.jpg,AMSA07.jpg,AMNE11.jpg,AMSA07.jpg,MS,2,num_2,16,num_2,0.900106100524,,,2018_Mar_23_1449,59.991225859,MAFE4ImagesEEG,001,103218,
AFNE01.JPG,AFNE01.JPG,AFNE01.JPG,AFNE01.JPG,AFNE01.JPG,AFNE01.JPG,,,,,,,,,,,,,,,,,5,7,57,2,,,,,,,AMNE08.jpg,AMNE02.jpg,AMSA11.jpg,AMSA02.jpg,AMNE02.jpg,MN,1,num_6,16,num_6,1.01676856551,,,2018_Mar_23_1449,59.991225859,MAFE4ImagesEEG,001,103218,
AFNE01.JPG,AFNE01.JPG,AFNE01.JPG,AFNE01.JPG,AFNE01.JPG,AFNE01.JPG,,,,,,,,,,,,,,,,,5,8,58,6,,,,,,,AMSA16.jpg,AMSA18.jpg,AMNE19.jpg,AMNE15.jpg,AMNE15.jpg,MN,1,num_4,16,num_4,0.93338118762,,,2018_Mar_23_1449,59.991225859,MAFE4ImagesEEG,001,103218,
AFNE01.JPG,AFNE01.JPG,AFNE01.JPG,AFNE01.JPG,AFNE01.JPG,AFNE01.JPG,,,,,,,,,,,,,,,,,5,9,59,0,,,,,,,AMNE03.jpg,AMSA19.jpg,AMNE19.jpg,AMSA07.jpg,AMSA19.jpg,MS,2,num_6,16,num_6,0.850106389189,,,2018_Mar_23_1449,59.991225859,MAFE4ImagesEEG,001,103218,
,,,,,,,,,,,,,,,,,,,,,,,,,,,,,,,,,,,,,,,,,,,space,2.71657817472,2018_Mar_23_1449,59.991225859,MAFE4ImagesEEG,001,103218,
AFNE01.JPG,AFNE01.JPG,AFNE01.JPG,AFNE01.JPG,AFNE01.JPG,AFNE01.JPG,,,,,,,,,,,,,,,,,,,,,0,0,0,9,,,AFNE12.jpg,AFNE17.jpg,AFSA13.jpg,AFSA04.jpg,AFSA04.jpg,FS,4,num_4,32,num_2,1.23340575624,,,2018_Mar_23_1449,59.991225859,MAFE4ImagesEEG,001,103218,
AFNE01.JPG,AFNE01.JPG,AFNE01.JPG,AFNE01.JPG,AFNE01.JPG,AFNE01.JPG,,,,,,,,,,,,,,,,,,,,,0,1,1,6,,,AFNE04.jpg,AFSA18.jpg,AFSA14.jpg,AFNE14.jpg,AFNE04.jpg,FN,3,num_8,32,num_4,1.35006854196,,,2018_Mar_23_1449,59.991225859,MAFE4ImagesEEG,001,103218,
AFNE01.JPG,AFNE01.JPG,AFNE01.JPG,AFNE01.JPG,AFNE01.JPG,AFNE01.JPG,,,,,,,,,,,,,,,,,,,,,0,2,2,0,,,AFNE04.jpg,AFSA01.jpg,AFNE09.jpg,AFSA02.jpg,AFNE09.jpg,FN,3,num_2,16,num_2,1.13343552084,,,2018_Mar_23_1449,59.991225859,MAFE4ImagesEEG,001,103218,
AFNE01.JPG,AFNE01.JPG,AFNE01.JPG,AFNE01.JPG,AFNE01.JPG,AFNE01.JPG,,,,,,,,,,,,,,,,,,,,,0,3,3,1,,,AFNE09.jpg,AFSA18.jpg,AFNE19.jpg,AFSA05.jpg,AFNE09.jpg,FN,3,num_8,16,num_8,1.25009926878,,,2018_Mar_23_1449,59.991225859,MAFE4ImagesEEG,001,103218,
AFNE01.JPG,AFNE01.JPG,AFNE01.JPG,AFNE01.JPG,AFNE01.JPG,AFNE01.JPG,,,,,,,,,,,,,,,,,,,,,0,4,4,3,,,AFNE13.jpg,AFSA20.jpg,AFSA14.jpg,AFNE15.jpg,AFNE15.jpg,FN,3,num_4,32,num_2,3.03361795729,,,2018_Mar_23_1449,59.991225859,MAFE4ImagesEEG,001,103218,
AFNE01.JPG,AFNE01.JPG,AFNE01.JPG,AFNE01.JPG,AFNE01.JPG,AFNE01.JPG,,,,,,,,,,,,,,,,,,,,,0,5,5,5,,,AFSA04.jpg,AFNE09.jpg,AFSA07.jpg,AFNE06.jpg,AFSA07.jpg,FS,4,num_2,16,num_2,0.966887848411,,,2018_Mar_23_1449,59.991225859,MAFE4ImagesEEG,001,103218,
AFNE01.JPG,AFNE01.JPG,AFNE01.JPG,AFNE01.JPG,AFNE01.JPG,AFNE01.JPG,,,,,,,,,,,,,,,,,,,,,0,6,6,7,,,AFNE11.jpg,AFSA15.jpg,AFSA06.jpg,AFNE09.jpg,AFSA06.jpg,FS,4,num_2,16,num_2,1.35011921876,,,2018_Mar_23_1449,59.991225859,MAFE4ImagesEEG,001,103218,
AFNE01.JPG,AFNE01.JPG,AFNE01.JPG,AFNE01.JPG,AFNE01.JPG,AFNE01.JPG,,,,,,,,,,,,,,,,,,,,,0,7,7,8,,,AFNE08.jpg,AFSA05.jpg,AFNE15.jpg,AFSA14.jpg,AFNE08.jpg,FN,3,num_8,16,num_8,1.56668424317,,,2018_Mar_23_1449,59.991225859,MAFE4ImagesEEG,001,103218,
AFNE01.JPG,AFNE01.JPG,AFNE01.JPG,AFNE01.JPG,AFNE01.JPG,AFNE01.JPG,,,,,,,,,,,,,,,,,,,,,0,8,8,2,,,AFNE03.jpg,AFSA14.jpg,AFSA17.jpg,AFNE15.jpg,AFNE03.jpg,FN,3,num_8,16,num_8,1.31680179409,,,2018_Mar_23_1449,59.991225859,MAFE4ImagesEEG,001,103218,
AFNE01.JPG,AFNE01.JPG,AFNE01.JPG,AFNE01.JPG,AFNE01.JPG,AFNE01.JPG,,,,,,,,,,,,,,,,,,,,,0,9,9,4,,,AFSA03.jpg,AFNE11.jpg,AFSA19.jpg,AFNE09.jpg,AFSA19.jpg,FS,4,num_2,32,num_4,1.45003877737,,,2018_Mar_23_1449,59.991225859,MAFE4ImagesEEG,001,103218,
AFNE01.JPG,AFNE01.JPG,AFNE01.JPG,AFNE01.JPG,AFNE01.JPG,AFNE01.JPG,,,,,,,,,,,,,,,,,,,,,1,0,10,9,,,AFSA11.jpg,AFSA10.jpg,AFNE02.jpg,AFNE12.jpg,AFNE12.jpg,FN,3,num_4,32,num_8,2.20013227284,,,2018_Mar_23_1449,59.991225859,MAFE4ImagesEEG,001,103218,
AFNE01.JPG,AFNE01.JPG,AFNE01.JPG,AFNE01.JPG,AFNE01.JPG,AFNE01.JPG,,,,,,,,,,,,,,,,,,,,,1,1,11,0,,,AFNE07.jpg,AFSA05.jpg,AFSA12.jpg,AFNE18.jpg,AFNE07.jpg,FN,3,num_8,16,num_8,1.85003678879,,,2018_Mar_23_1449,59.991225859,MAFE4ImagesEEG,001,103218,
AFNE01.JPG,AFNE01.JPG,AFNE01.JPG,AFNE01.JPG,AFNE01.JPG,AFNE01.JPG,,,,,,,,,,,,,,,,,,,,,1,2,12,2,,,AFNE14.jpg,AFNE11.jpg,AFSA17.jpg,AFSA03.jpg,AFSA17.jpg,FS,4,num_2,32,num_4,0.6334589348,,,2018_Mar_23_1449,59.991225859,MAFE4ImagesEEG,001,103218,
AFNE01.JPG,AFNE01.JPG,AFNE01.JPG,AFNE01.JPG,AFNE01.JPG,AFNE01.JPG,,,,,,,,,,,,,,,,,,,,,1,3,13,8,,,AFNE14.jpg,AFSA17.jpg,AFNE18.jpg,AFSA13.jpg,AFSA17.jpg,FS,4,num_6,32,num_4,0.85011376619,,,2018_Mar_23_1449,59.991225859,MAFE4ImagesEEG,001,103218,
AFNE01.JPG,AFNE01.JPG,AFNE01.JPG,AFNE01.JPG,AFNE01.JPG,AFNE01.JPG,,,,,,,,,,,,,,,,,,,,,1,4,14,6,,,AFNE10.jpg,AFSA18.jpg,AFSA11.jpg,AFNE07.jpg,AFSA11.jpg,FS,4,num_2,16,num_2,1.01680480904,,,2018_Mar_23_1449,59.991225859,MAFE4ImagesEEG,001,103218,
AFNE01.JPG,AFNE01.JPG,AFNE01.JPG,AFNE01.JPG,AFNE01.JPG,AFNE01.JPG,,,,,,,,,,,,,,,,,,,,,1,5,15,3,,,AFSA14.jpg,AFNE02.jpg,AFNE03.jpg,AFSA12.jpg,AFSA12.jpg,FS,4,num_4,32,num_8,1.08347943003,,,2018_Mar_23_1449,59.991225859,MAFE4ImagesEEG,001,103218,
AFNE01.JPG,AFNE01.JPG,AFNE01.JPG,AFNE01.JPG,AFNE01.JPG,AFNE01.JPG,,,,,,,,,,,,,,,,,,,,,1,6,16,5,,,AFNE16.jpg,AFNE03.jpg,AFSA19.jpg,AFSA09.jpg,AFNE03.jpg,FN,3,num_6,32,num_8,1.26681170493,,,2018_Mar_23_1449,59.991225859,MAFE4ImagesEEG,001,103218,
AFNE01.JPG,AFNE01.JPG,AFNE01.JPG,AFNE01.JPG,AFNE01.JPG,AFNE01.JPG,,,,,,,,,,,,,,,,,,,,,1,7,17,7,,,AFNE13.jpg,AFNE02.jpg,AFSA19.jpg,AFSA14.jpg,AFSA19.jpg,FS,4,num_2,16,num_2,1.5333774029,,,2018_Mar_23_1449,59.991225859,MAFE4ImagesEEG,001,103218,
AFNE01.JPG,AFNE01.JPG,AFNE01.JPG,AFNE01.JPG,AFNE01.JPG,AFNE01.JPG,,,,,,,,,,,,,,,,,,,,,1,8,18,4,,,AFSA06.jpg,AFNE10.jpg,AFSA04.jpg,AFNE12.jpg,AFNE12.jpg,FN,3,num_4,16,num_4,1.01681250678,,,2018_Mar_23_1449,59.991225859,MAFE4ImagesEEG,001,103218,
AFNE01.JPG,AFNE01.JPG,AFNE01.JPG,AFNE01.JPG,AFNE01.JPG,AFNE01.JPG,,,,,,,,,,,,,,,,,,,,,1,9,19,1,,,AFNE04.jpg,AFSA10.jpg,AFSA14.jpg,AFNE08.jpg,AFNE08.jpg,FN,3,num_4,16,num_4,1.00010071211,,,2018_Mar_23_1449,59.991225859,MAFE4ImagesEEG,001,103218,
AFNE01.JPG,AFNE01.JPG,AFNE01.JPG,AFNE01.JPG,AFNE01.JPG,AFNE01.JPG,,,,,,,,,,,,,,,,,,,,,2,0,20,4,,,AFNE10.jpg,AFSA18.jpg,AFNE07.jpg,AFSA12.jpg,AFSA12.jpg,FS,4,num_4,32,num_2,2.4498049585,,,2018_Mar_23_1449,59.991225859,MAFE4ImagesEEG,001,103218,
AFNE01.JPG,AFNE01.JPG,AFNE01.JPG,AFNE01.JPG,AFNE01.JPG,AFNE01.JPG,,,,,,,,,,,,,,,,,,,,,2,1,21,2,,,AFNE10.jpg,AFSA13.jpg,AFSA01.jpg,AFNE19.jpg,AFNE10.jpg,FN,3,num_8,16,num_8,1.06664062264,,,2018_Mar_23_1449,59.991225859,MAFE4ImagesEEG,001,103218,
AFNE01.JPG,AFNE01.JPG,AFNE01.JPG,AFNE01.JPG,AFNE01.JPG,AFNE01.JPG,,,,,,,,,,,,,,,,,,,,,2,2,22,7,,,AFSA08.jpg,AFSA01.jpg,AFNE19.jpg,AFNE12.jpg,AFSA08.jpg,FS,4,num_8,16,num_8,1.18324503384,,,2018_Mar_23_1449,59.991225859,MAFE4ImagesEEG,001,103218,
AFNE01.JPG,AFNE01.JPG,AFNE01.JPG,AFNE01.JPG,AFNE01.JPG,AFNE01.JPG,,,,,,,,,,,,,,,,,,,,,2,3,23,6,,,AFNE12.jpg,AFSA18.jpg,AFSA15.jpg,AFNE11.jpg,AFNE12.jpg,FN,3,num_8,32,num_4,1.13345765184,,,2018_Mar_23_1449,59.991225859,MAFE4ImagesEEG,001,103218,
AFNE01.JPG,AFNE01.JPG,AFNE01.JPG,AFNE01.JPG,AFNE01.JPG,AFNE01.JPG,,,,,,,,,,,,,,,,,,,,,2,4,24,1,,,AFSA10.jpg,AFNE13.jpg,AFNE12.jpg,AFSA01.jpg,AFNE12.jpg,FN,3,num_2,32,num_6,1.6167493853,,,2018_Mar_23_1449,59.991225859,MAFE4ImagesEEG,001,103218,
AFNE01.JPG,AFNE01.JPG,AFNE01.JPG,AFNE01.JPG,AFNE01.JPG,AFNE01.JPG,,,,,,,,,,,,,,,,,,,,,2,5,25,3,,,AFSA20.jpg,AFNE09.jpg,AFSA02.jpg,AFNE07.jpg,AFNE07.jpg,FN,3,num_4,32,num_6,0.950115113294,,,2018_Mar_23_1449,59.991225859,MAFE4ImagesEEG,001,103218,
AFNE01.JPG,AFNE01.JPG,AFNE01.JPG,AFNE01.JPG,AFNE01.JPG,AFNE01.JPG,,,,,,,,,,,,,,,,,,,,,2,6,26,8,,,AFSA02.jpg,AFNE01.jpg,AFNE14.jpg,AFSA16.jpg,AFSA16.jpg,FS,4,num_4,16,num_4,0.933436996239,,,2018_Mar_23_1449,59.991225859,MAFE4ImagesEEG,001,103218,
AFNE01.JPG,AFNE01.JPG,AFNE01.JPG,AFNE01.JPG,AFNE01.JPG,AFNE01.JPG,,,,,,,,,,,,,,,,,,,,,2,7,27,9,,,AFNE10.jpg,AFNE17.jpg,AFSA20.jpg,AFSA03.jpg,AFNE17.jpg,FN,3,num_6,16,num_6,0.8500704664,,,2018_Mar_23_1449,59.991225859,MAFE4ImagesEEG,001,103218,
AFNE01.JPG,AFNE01.JPG,AFNE01.JPG,AFNE01.JPG,AFNE01.JPG,AFNE01.JPG,,,,,,,,,,,,,,,,,,,,,2,8,28,0,,,AFNE17.jpg,AFNE04.jpg,AFSA08.jpg,AFSA03.jpg,AFNE17.jpg,FN,3,num_8,32,num_2,1.00012572976,,,2018_Mar_23_1449,59.991225859,MAFE4ImagesEEG,001,103218,
AFNE01.JPG,AFNE01.JPG,AFNE01.JPG,AFNE01.JPG,AFNE01.JPG,AFNE01.JPG,,,,,,,,,,,,,,,,,,,,,2,9,29,5,,,AFSA11.jpg,AFSA10.jpg,AFNE12.jpg,AFNE04.jpg,AFSA10.jpg,FS,4,num_6,16,num_6,1.03349351048,,,2018_Mar_23_1449,59.991225859,MAFE4ImagesEEG,001,103218,
AFNE01.JPG,AFNE01.JPG,AFNE01.JPG,AFNE01.JPG,AFNE01.JPG,AFNE01.JPG,,,,,,,,,,,,,,,,,,,,,3,0,30,0,,,AFNE09.jpg,AFSA19.jpg,AFNE17.jpg,AFSA18.jpg,AFNE09.jpg,FN,3,num_8,16,num_8,1.08344446946,,,2018_Mar_23_1449,59.991225859,MAFE4ImagesEEG,001,103218,
AFNE01.JPG,AFNE01.JPG,AFNE01.JPG,AFNE01.JPG,AFNE01.JPG,AFNE01.JPG,,,,,,,,,,,,,,,,,,,,,3,1,31,6,,,AFSA15.jpg,AFNE09.jpg,AFNE12.jpg,AFSA04.jpg,AFNE12.jpg,FN,3,num_2,32,num_6,1.08348167521,,,2018_Mar_23_1449,59.991225859,MAFE4ImagesEEG,001,103218,
AFNE01.JPG,AFNE01.JPG,AFNE01.JPG,AFNE01.JPG,AFNE01.JPG,AFNE01.JPG,,,,,,,,,,,,,,,,,,,,,3,2,32,7,,,AFSA09.jpg,AFNE08.jpg,AFNE13.jpg,AFSA05.jpg,AFNE13.jpg,FN,3,num_2,16,num_2,1.38326921757,,,2018_Mar_23_1449,59.991225859,MAFE4ImagesEEG,001,103218,
AFNE01.JPG,AFNE01.JPG,AFNE01.JPG,AFNE01.JPG,AFNE01.JPG,AFNE01.JPG,,,,,,,,,,,,,,,,,,,,,3,3,33,1,,,AFNE11.jpg,AFNE03.jpg,AFSA04.jpg,AFSA07.jpg,AFNE03.jpg,FN,3,num_6,16,num_6,0.950138527256,,,2018_Mar_23_1449,59.991225859,MAFE4ImagesEEG,001,103218,
AFNE01.JPG,AFNE01.JPG,AFNE01.JPG,AFNE01.JPG,AFNE01.JPG,AFNE01.JPG,,,,,,,,,,,,,,,,,,,,,3,4,34,4,,,AFSA14.jpg,AFSA03.jpg,AFNE08.jpg,AFNE20.jpg,AFNE20.jpg,FN,3,num_4,16,num_4,1.08346178938,,,2018_Mar_23_1449,59.991225859,MAFE4ImagesEEG,001,103218,
AFNE01.JPG,AFNE01.JPG,AFNE01.JPG,AFNE01.JPG,AFNE01.JPG,AFNE01.JPG,,,,,,,,,,,,,,,,,,,,,3,5,35,8,,,AFNE12.jpg,AFSA15.jpg,AFSA19.jpg,AFNE16.jpg,AFSA19.jpg,FS,4,num_2,16,num_2,1.08345088425,,,2018_Mar_23_1449,59.991225859,MAFE4ImagesEEG,001,103218,
AFNE01.JPG,AFNE01.JPG,AFNE01.JPG,AFNE01.JPG,AFNE01.JPG,AFNE01.JPG,,,,,,,,,,,,,,,,,,,,,3,6,36,9,,,AFNE13.jpg,AFSA16.jpg,AFSA10.jpg,AFNE06.jpg,AFSA10.jpg,FS,4,num_2,16,num_2,1.08341335776,,,2018_Mar_23_1449,59.991225859,MAFE4ImagesEEG,001,103218,
AFNE01.JPG,AFNE01.JPG,AFNE01.JPG,AFNE01.JPG,AFNE01.JPG,AFNE01.JPG,,,,,,,,,,,,,,,,,,,,,3,7,37,5,,,AFNE18.jpg,AFNE09.jpg,AFSA07.jpg,AFSA17.jpg,AFSA17.jpg,FS,4,num_4,16,num_4,0.933407808972,,,2018_Mar_23_1449,59.991225859,MAFE4ImagesEEG,001,103218,
AFNE01.JPG,AFNE01.JPG,AFNE01.JPG,AFNE01.JPG,AFNE01.JPG,AFNE01.JPG,,,,,,,,,,,,,,,,,,,,,3,8,38,3,,,AFSA16.jpg,AFNE16.jpg,AFNE11.jpg,AFSA20.jpg,AFSA20.jpg,FS,4,num_4,16,num_4,1.13354521364,,,2018_Mar_23_1449,59.991225859,MAFE4ImagesEEG,001,103218,
AFNE01.JPG,AFNE01.JPG,AFNE01.JPG,AFNE01.JPG,AFNE01.JPG,AFNE01.JPG,,,,,,,,,,,,,,,,,,,,,3,9,39,2,,,AFSA07.jpg,AFNE02.jpg,AFSA19.jpg,AFNE09.jpg,AFNE02.jpg,FN,3,num_6,16,num_6,1.46681888949,,,2018_Mar_23_1449,59.991225859,MAFE4ImagesEEG,001,103218,
AFNE01.JPG,AFNE01.JPG,AFNE01.JPG,AFNE01.JPG,AFNE01.JPG,AFNE01.JPG,,,,,,,,,,,,,,,,,,,,,4,0,40,3,,,AFSA18.jpg,AFNE11.jpg,AFSA11.jpg,AFNE08.jpg,AFSA18.jpg,FS,4,num_8,16,num_8,1.1501578999,,,2018_Mar_23_1449,59.991225859,MAFE4ImagesEEG,001,103218,
