IPosition2,IPosition3,IPosition1,IPosition6,IPosition4,IPosition5,TrialsF1.thisRepN,TrialsF1.thisTrialN,TrialsF1.thisN,TrialsF1.thisIndex,TrialsM1.thisRepN,TrialsM1.thisTrialN,TrialsM1.thisN,TrialsM1.thisIndex,TrialsF2.thisRepN,TrialsF2.thisTrialN,TrialsF2.thisN,TrialsF2.thisIndex,TrialsM2.thisRepN,TrialsM2.thisTrialN,TrialsM2.thisN,TrialsM2.thisIndex,TrialsF3.thisRepN,TrialsF3.thisTrialN,TrialsF3.thisN,TrialsF3.thisIndex,TrialsM3.thisRepN,TrialsM3.thisTrialN,TrialsM3.thisN,TrialsM3.thisIndex,InstrKey_resp.keys,InstrKey_resp.rt,Image0 _Position,Image1 _Position,Image2 _Position,Image3 _Position,Center_image,condition,code,correct_answer,accuracy,Key_Resp.keys,Key_Resp.rt,BreakKey_resp.keys,BreakKey_resp.rt,date,frameRate,expName,session,participant,
,,,,,,,,,,,,,,,,,,,,,,,,,,,,,,space,26.6984861732,,,,,,,,,,,,,,2018_Mar_22_1704,59.9881478091,FEMA4ImagesEEG,001,103271,
AMSA25.JPG,AMNE24.JPG,AMSA24.JPG,AMNE26.JPG,AMSA21.JPG,AMNE25.JPG,0,0,0,3,,,,,,,,,,,,,,,,,,,,,,,AFNE17.jpg,AFSA07.jpg,AFNE01.jpg,AFSA19.jpg,AFSA19.jpg,FS,4,num_4,32,num_8,1.26658849174,,,2018_Mar_22_1704,59.9881478091,FEMA4ImagesEEG,001,103271,
AMSA21.JPG,AMNE23.JPG,AMNE21.JPG,AMSA25.JPG,AMNE25.JPG,AMSA23.JPG,0,1,1,5,,,,,,,,,,,,,,,,,,,,,,,AFNE04.jpg,AFSA07.jpg,AFSA18.jpg,AFNE16.jpg,AFSA07.jpg,FS,4,num_6,16,num_6,1.68339505432,,,2018_Mar_22_1704,59.9881478091,FEMA4ImagesEEG,001,103271,
AFSA25.JPG,AFNE24.JPG,AFSA24.JPG,AFNE21.JPG,AFSA21.JPG,AFNE25.JPG,0,2,2,2,,,,,,,,,,,,,,,,,,,,,,,AFNE10.jpg,AFSA14.jpg,AFNE20.jpg,AFSA13.jpg,AFNE10.jpg,FN,3,num_8,16,num_8,1.08345323648,,,2018_Mar_22_1704,59.9881478091,FEMA4ImagesEEG,001,103271,
AFNE22.JPG,AFSA24.JPG,AFSA22.JPG,AFNE25.JPG,AFNE24.JPG,AFSA25.JPG,0,3,3,6,,,,,,,,,,,,,,,,,,,,,,,AFNE01.jpg,AFNE13.jpg,AFSA16.jpg,AFSA06.jpg,AFSA06.jpg,FS,4,num_4,32,num_6,1.18342263793,,,2018_Mar_22_1704,59.9881478091,FEMA4ImagesEEG,001,103271,
AMSA21.JPG,AMNE22.JPG,AMNE21.JPG,AMSA23.JPG,AMSA22.JPG,AMNE23.JPG,0,4,4,1,,,,,,,,,,,,,,,,,,,,,,,AFNE07.jpg,AFNE16.jpg,AFSA17.jpg,AFSA18.jpg,AFSA18.jpg,FS,4,num_4,32,num_2,2.56675040109,,,2018_Mar_22_1704,59.9881478091,FEMA4ImagesEEG,001,103271,
AFNE23.JPG,AFNE24.JPG,AFNE22.JPG,AFSA24.JPG,AFSA22.JPG,AFSA23.JPG,0,5,5,8,,,,,,,,,,,,,,,,,,,,,,,AFSA08.jpg,AFNE15.jpg,AFSA10.jpg,AFNE10.jpg,AFSA08.jpg,FS,4,num_8,32,num_4,1.33353871359,,,2018_Mar_22_1704,59.9881478091,FEMA4ImagesEEG,001,103271,
AFSA21.JPG,AFNE22.JPG,AFNE21.JPG,AFSA23.JPG,AFSA22.JPG,AFNE23.JPG,0,6,6,0,,,,,,,,,,,,,,,,,,,,,,,AFNE16.jpg,AFNE07.jpg,AFSA10.jpg,AFSA13.jpg,AFSA13.jpg,FS,4,num_4,16,num_4,1.23368926876,,,2018_Mar_22_1704,59.9881478091,FEMA4ImagesEEG,001,103271,
AMNE22.JPG,AMSA24.JPG,AMSA22.JPG,AMNE25.JPG,AMNE24.JPG,AMSA25.JPG,0,7,7,7,,,,,,,,,,,,,,,,,,,,,,,AFNE12.jpg,AFNE02.jpg,AFSA03.jpg,AFSA13.jpg,AFSA03.jpg,FS,4,num_2,16,num_2,1.03353717404,,,2018_Mar_22_1704,59.9881478091,FEMA4ImagesEEG,001,103271,
AMNE23.JPG,AMNE24.JPG,AMNE22.JPG,AMSA24.JPG,AMSA22.JPG,AMSA23.JPG,0,8,8,9,,,,,,,,,,,,,,,,,,,,,,,AFNE01.jpg,AFNE05.jpg,AFSA11.jpg,AFSA10.jpg,AFNE01.jpg,FN,3,num_8,16,num_8,1.08329799853,,,2018_Mar_22_1704,59.9881478091,FEMA4ImagesEEG,001,103271,
AFSA21.JPG,AFNE23.JPG,AFNE21.JPG,AFSA25.JPG,AFNE25.JPG,AFSA23.JPG,0,9,9,4,,,,,,,,,,,,,,,,,,,,,,,AFNE11.jpg,AFSA08.jpg,AFNE18.jpg,AFSA10.jpg,AFNE18.jpg,FN,3,num_2,32,num_8,1.16683462729,,,2018_Mar_22_1704,59.9881478091,FEMA4ImagesEEG,001,103271,
AFNE23.JPG,AFNE24.JPG,AFNE22.JPG,AFSA24.JPG,AFSA22.JPG,AFSA23.JPG,,,,,0,0,0,8,,,,,,,,,,,,,,,,,,,AMNE13.jpg,AMNE05.jpg,AMSA12.jpg,AMSA10.jpg,AMNE05.jpg,MN,1,num_6,32,num_2,2.06665193403,,,2018_Mar_22_1704,59.9881478091,FEMA4ImagesEEG,001,103271,
AFSA25.JPG,AFNE24.JPG,AFSA24.JPG,AFNE21.JPG,AFSA21.JPG,AFNE25.JPG,,,,,0,1,1,2,,,,,,,,,,,,,,,,,,,AMNE07.jpg,AMSA07.jpg,AMSA01.jpg,AMNE17.jpg,AMSA01.jpg,MS,2,num_2,32,num_4,1.08349589485,,,2018_Mar_22_1704,59.9881478091,FEMA4ImagesEEG,001,103271,
AMSA21.JPG,AMNE22.JPG,AMNE21.JPG,AMSA23.JPG,AMSA22.JPG,AMNE23.JPG,,,,,0,2,2,1,,,,,,,,,,,,,,,,,,,AMNE03.jpg,AMNE19.jpg,AMSA05.jpg,AMSA04.jpg,AMNE19.jpg,MN,1,num_6,32,num_2,1.15010998161,,,2018_Mar_22_1704,59.9881478091,FEMA4ImagesEEG,001,103271,
AMSA21.JPG,AMNE23.JPG,AMNE21.JPG,AMSA25.JPG,AMNE25.JPG,AMSA23.JPG,,,,,0,3,3,5,,,,,,,,,,,,,,,,,,,AMSA17.jpg,AMNE09.jpg,AMSA06.jpg,AMNE01.jpg,AMNE01.jpg,MN,1,num_4,16,num_4,0.983494740198,,,2018_Mar_22_1704,59.9881478091,FEMA4ImagesEEG,001,103271,
AFNE22.JPG,AFSA24.JPG,AFSA22.JPG,AFNE25.JPG,AFNE24.JPG,AFSA25.JPG,,,,,0,4,4,6,,,,,,,,,,,,,,,,,,,AMNE20.jpg,AMSA18.jpg,AMSA14.jpg,AMNE12.jpg,AMNE20.jpg,MN,1,num_8,16,num_8,1.46674635976,,,2018_Mar_22_1704,59.9881478091,FEMA4ImagesEEG,001,103271,
AFSA21.JPG,AFNE22.JPG,AFNE21.JPG,AFSA23.JPG,AFSA22.JPG,AFNE23.JPG,,,,,0,5,5,0,,,,,,,,,,,,,,,,,,,AMNE06.jpg,AMSA09.jpg,AMSA10.jpg,AMNE04.jpg,AMSA10.jpg,MS,2,num_2,32,num_6,1.56672602487,,,2018_Mar_22_1704,59.9881478091,FEMA4ImagesEEG,001,103271,
AMSA25.JPG,AMNE24.JPG,AMSA24.JPG,AMNE26.JPG,AMSA21.JPG,AMNE25.JPG,,,,,0,6,6,3,,,,,,,,,,,,,,,,,,,AMSA17.jpg,AMNE14.jpg,AMSA06.jpg,AMNE15.jpg,AMSA06.jpg,MS,2,num_2,32,num_8,1.8501071591,,,2018_Mar_22_1704,59.9881478091,FEMA4ImagesEEG,001,103271,
AFSA21.JPG,AFNE23.JPG,AFNE21.JPG,AFSA25.JPG,AFNE25.JPG,AFSA23.JPG,,,,,0,7,7,4,,,,,,,,,,,,,,,,,,,AMNE06.jpg,AMNE13.jpg,AMSA12.jpg,AMSA19.jpg,AMSA19.jpg,MS,2,num_4,32,num_6,2.26678478437,,,2018_Mar_22_1704,59.9881478091,FEMA4ImagesEEG,001,103271,
AMNE23.JPG,AMNE24.JPG,AMNE22.JPG,AMSA24.JPG,AMSA22.JPG,AMSA23.JPG,,,,,0,8,8,9,,,,,,,,,,,,,,,,,,,AMSA17.jpg,AMNE09.jpg,AMSA18.jpg,AMNE10.jpg,AMSA17.jpg,MS,2,num_8,32,num_6,2.73330983381,,,2018_Mar_22_1704,59.9881478091,FEMA4ImagesEEG,001,103271,
AMNE22.JPG,AMSA24.JPG,AMSA22.JPG,AMNE25.JPG,AMNE24.JPG,AMSA25.JPG,,,,,0,9,9,7,,,,,,,,,,,,,,,,,,,AMNE11.jpg,AMNE18.jpg,AMSA03.jpg,AMSA04.jpg,AMNE18.jpg,MN,1,num_6,16,num_6,2.48340397088,,,2018_Mar_22_1704,59.9881478091,FEMA4ImagesEEG,001,103271,
AFSA21.JPG,AFNE23.JPG,AFNE21.JPG,AFSA25.JPG,AFNE25.JPG,AFSA23.JPG,,,,,,,,,0,0,0,4,,,,,,,,,,,,,,,AFSA16.jpg,AFNE04.jpg,AFNE02.jpg,AFSA11.jpg,AFSA11.jpg,FS,4,num_4,32,num_8,1.80011828875,,,2018_Mar_22_1704,59.9881478091,FEMA4ImagesEEG,001,103271,
AMNE23.JPG,AMNE24.JPG,AMNE22.JPG,AMSA24.JPG,AMSA22.JPG,AMSA23.JPG,,,,,,,,,0,1,1,9,,,,,,,,,,,,,,,AFNE04.jpg,AFSA03.jpg,AFNE01.jpg,AFSA12.jpg,AFNE04.jpg,FN,3,num_8,32,num_2,2.38344804051,,,2018_Mar_22_1704,59.9881478091,FEMA4ImagesEEG,001,103271,
AMSA25.JPG,AMNE24.JPG,AMSA24.JPG,AMNE26.JPG,AMSA21.JPG,AMNE25.JPG,,,,,,,,,0,2,2,3,,,,,,,,,,,,,,,AFNE12.jpg,AFSA11.jpg,AFSA16.jpg,AFNE13.jpg,AFSA16.jpg,FS,4,num_2,32,num_8,1.28328555383,,,2018_Mar_22_1704,59.9881478091,FEMA4ImagesEEG,001,103271,
AFNE22.JPG,AFSA24.JPG,AFSA22.JPG,AFNE25.JPG,AFNE24.JPG,AFSA25.JPG,,,,,,,,,0,3,3,6,,,,,,,,,,,,,,,AFSA06.jpg,AFNE20.jpg,AFNE04.jpg,AFSA12.jpg,AFNE04.jpg,FN,3,num_2,32,num_8,1.53345698914,,,2018_Mar_22_1704,59.9881478091,FEMA4ImagesEEG,001,103271,
AMSA21.JPG,AMNE22.JPG,AMNE21.JPG,AMSA23.JPG,AMSA22.JPG,AMNE23.JPG,,,,,,,,,0,4,4,1,,,,,,,,,,,,,,,AFSA09.jpg,AFSA12.jpg,AFNE12.jpg,AFNE02.jpg,AFNE02.jpg,FN,3,num_4,32,num_2,1.61669629232,,,2018_Mar_22_1704,59.9881478091,FEMA4ImagesEEG,001,103271,
AFSA21.JPG,AFNE22.JPG,AFNE21.JPG,AFSA23.JPG,AFSA22.JPG,AFNE23.JPG,,,,,,,,,0,5,5,0,,,,,,,,,,,,,,,AFNE11.jpg,AFNE10.jpg,AFSA15.jpg,AFSA17.jpg,AFSA17.jpg,FS,4,num_4,16,num_4,1.16667297455,,,2018_Mar_22_1704,59.9881478091,FEMA4ImagesEEG,001,103271,
AMNE22.JPG,AMSA24.JPG,AMSA22.JPG,AMNE25.JPG,AMNE24.JPG,AMSA25.JPG,,,,,,,,,0,6,6,7,,,,,,,,,,,,,,,AFSA07.jpg,AFNE13.jpg,AFSA03.jpg,AFNE16.jpg,AFSA07.jpg,FS,4,num_8,16,num_8,1.16688915303,,,2018_Mar_22_1704,59.9881478091,FEMA4ImagesEEG,001,103271,
AMSA21.JPG,AMNE23.JPG,AMNE21.JPG,AMSA25.JPG,AMNE25.JPG,AMSA23.JPG,,,,,,,,,0,7,7,5,,,,,,,,,,,,,,,AFSA20.jpg,AFNE10.jpg,AFNE04.jpg,AFSA10.jpg,AFSA10.jpg,FS,4,num_4,16,num_4,1.98334078518,,,2018_Mar_22_1704,59.9881478091,FEMA4ImagesEEG,001,103271,
AFSA25.JPG,AFNE24.JPG,AFSA24.JPG,AFNE21.JPG,AFSA21.JPG,AFNE25.JPG,,,,,,,,,0,8,8,2,,,,,,,,,,,,,,,AFNE18.jpg,AFSA08.jpg,AFNE13.jpg,AFSA09.jpg,AFNE18.jpg,FN,3,num_8,16,num_8,1.01676890775,,,2018_Mar_22_1704,59.9881478091,FEMA4ImagesEEG,001,103271,
AFNE23.JPG,AFNE24.JPG,AFNE22.JPG,AFSA24.JPG,AFSA22.JPG,AFSA23.JPG,,,,,,,,,0,9,9,8,,,,,,,,,,,,,,,AFNE09.jpg,AFSA05.jpg,AFNE12.jpg,AFSA14.jpg,AFSA05.jpg,FS,4,num_6,32,num_4,2.51659378393,,,2018_Mar_22_1704,59.9881478091,FEMA4ImagesEEG,001,103271,
AMNE22.JPG,AMSA24.JPG,AMSA22.JPG,AMNE25.JPG,AMNE24.JPG,AMSA25.JPG,,,,,,,,,,,,,0,0,0,7,,,,,,,,,,,AMNE04.jpg,AMNE15.jpg,AMSA02.jpg,AMSA04.jpg,AMSA02.jpg,MS,2,num_2,32,num_4,1.90005786142,,,2018_Mar_22_1704,59.9881478091,FEMA4ImagesEEG,001,103271,
AFSA21.JPG,AFNE23.JPG,AFNE21.JPG,AFSA25.JPG,AFNE25.JPG,AFSA23.JPG,,,,,,,,,,,,,0,1,1,4,,,,,,,,,,,AMSA17.jpg,AMNE06.jpg,AMSA14.jpg,AMNE19.jpg,AMNE06.jpg,MN,1,num_6,32,num_8,1.0668283408,,,2018_Mar_22_1704,59.9881478091,FEMA4ImagesEEG,001,103271,
AFNE22.JPG,AFSA24.JPG,AFSA22.JPG,AFNE25.JPG,AFNE24.JPG,AFSA25.JPG,,,,,,,,,,,,,0,2,2,6,,,,,,,,,,,AMNE14.jpg,AMNE03.jpg,AMSA16.jpg,AMSA18.jpg,AMSA18.jpg,MS,2,num_4,16,num_4,0.883533677988,,,2018_Mar_22_1704,59.9881478091,FEMA4ImagesEEG,001,103271,
AMSA21.JPG,AMNE23.JPG,AMNE21.JPG,AMSA25.JPG,AMNE25.JPG,AMSA23.JPG,,,,,,,,,,,,,0,3,3,5,,,,,,,,,,,AMNE02.jpg,AMNE07.jpg,AMSA13.jpg,AMSA01.jpg,AMNE02.jpg,MN,1,num_8,16,num_8,1.11671457447,,,2018_Mar_22_1704,59.9881478091,FEMA4ImagesEEG,001,103271,
AFSA25.JPG,AFNE24.JPG,AFSA24.JPG,AFNE21.JPG,AFSA21.JPG,AFNE25.JPG,,,,,,,,,,,,,0,4,4,2,,,,,,,,,,,AMSA12.jpg,AMNE03.jpg,AMSA08.jpg,AMNE20.jpg,AMNE20.jpg,MN,1,num_4,16,num_4,0.816757938461,,,2018_Mar_22_1704,59.9881478091,FEMA4ImagesEEG,001,103271,
AMNE23.JPG,AMNE24.JPG,AMNE22.JPG,AMSA24.JPG,AMSA22.JPG,AMSA23.JPG,,,,,,,,,,,,,0,5,5,9,,,,,,,,,,,AMNE15.jpg,AMSA19.jpg,AMNE14.jpg,AMSA14.jpg,AMSA19.jpg,MS,2,num_6,16,num_6,0.700187055336,,,2018_Mar_22_1704,59.9881478091,FEMA4ImagesEEG,001,103271,
AMSA21.JPG,AMNE22.JPG,AMNE21.JPG,AMSA23.JPG,AMSA22.JPG,AMNE23.JPG,,,,,,,,,,,,,0,6,6,1,,,,,,,,,,,AMSA04.jpg,AMNE10.jpg,AMSA20.jpg,AMNE09.jpg,AMSA04.jpg,MS,2,num_8,16,num_8,1.05010401584,,,2018_Mar_22_1704,59.9881478091,FEMA4ImagesEEG,001,103271,
AMSA25.JPG,AMNE24.JPG,AMSA24.JPG,AMNE26.JPG,AMSA21.JPG,AMNE25.JPG,,,,,,,,,,,,,0,7,7,3,,,,,,,,,,,AMNE09.jpg,AMNE12.jpg,AMSA20.jpg,AMSA08.jpg,AMNE12.jpg,MN,1,num_6,16,num_6,1.08344297281,,,2018_Mar_22_1704,59.9881478091,FEMA4ImagesEEG,001,103271,
AFNE23.JPG,AFNE24.JPG,AFNE22.JPG,AFSA24.JPG,AFSA22.JPG,AFSA23.JPG,,,,,,,,,,,,,0,8,8,8,,,,,,,,,,,AMNE04.jpg,AMNE19.jpg,AMSA14.jpg,AMSA04.jpg,AMNE19.jpg,MN,1,num_6,32,num_8,0.999999037784,,,2018_Mar_22_1704,59.9881478091,FEMA4ImagesEEG,001,103271,
AFSA21.JPG,AFNE22.JPG,AFNE21.JPG,AFSA23.JPG,AFSA22.JPG,AFNE23.JPG,,,,,,,,,,,,,0,9,9,0,,,,,,,,,,,AMNE03.jpg,AMSA04.jpg,AMNE04.jpg,AMSA08.jpg,AMNE04.jpg,MN,1,num_2,16,num_2,1.50008018489,,,2018_Mar_22_1704,59.9881478091,FEMA4ImagesEEG,001,103271,
AMNE23.JPG,AMNE24.JPG,AMNE22.JPG,AMSA24.JPG,AMSA22.JPG,AMSA23.JPG,,,,,,,,,,,,,,,,,0,0,0,9,,,,,,,AFNE04.jpg,AFSA04.jpg,AFNE05.jpg,AFSA08.jpg,AFNE05.jpg,FN,3,num_2,32,num_8,0.983494740198,,,2018_Mar_22_1704,59.9881478091,FEMA4ImagesEEG,001,103271,
AMSA21.JPG,AMNE22.JPG,AMNE21.JPG,AMSA23.JPG,AMSA22.JPG,AMNE23.JPG,,,,,,,,,,,,,,,,,0,1,1,1,,,,,,,AFNE01.jpg,AFNE18.jpg,AFSA09.jpg,AFSA08.jpg,AFSA08.jpg,FS,4,num_4,32,num_2,1.7834286037,,,2018_Mar_22_1704,59.9881478091,FEMA4ImagesEEG,001,103271,
AMNE22.JPG,AMSA24.JPG,AMSA22.JPG,AMNE25.JPG,AMNE24.JPG,AMSA25.JPG,,,,,,,,,,,,,,,,,0,2,2,7,,,,,,,AFNE19.jpg,AFSA07.jpg,AFNE07.jpg,AFSA04.jpg,AFNE19.jpg,FN,3,num_8,32,num_4,1.91673760358,,,2018_Mar_22_1704,59.9881478091,FEMA4ImagesEEG,001,103271,
AFSA21.JPG,AFNE23.JPG,AFNE21.JPG,AFSA25.JPG,AFNE25.JPG,AFSA23.JPG,,,,,,,,,,,,,,,,,0,3,3,4,,,,,,,AFSA05.jpg,AFSA18.jpg,AFNE15.jpg,AFNE05.jpg,AFNE15.jpg,FN,3,num_2,32,num_8,1.31648980017,,,2018_Mar_22_1704,59.9881478091,FEMA4ImagesEEG,001,103271,
AFNE23.JPG,AFNE24.JPG,AFNE22.JPG,AFSA24.JPG,AFSA22.JPG,AFSA23.JPG,,,,,,,,,,,,,,,,,0,4,4,8,,,,,,,AFSA14.jpg,AFSA10.jpg,AFNE13.jpg,AFNE02.jpg,AFNE02.jpg,FN,3,num_4,16,num_4,1.03349323271,,,2018_Mar_22_1704,59.9881478091,FEMA4ImagesEEG,001,103271,
AFSA21.JPG,AFNE22.JPG,AFNE21.JPG,AFSA23.JPG,AFSA22.JPG,AFNE23.JPG,,,,,,,,,,,,,,,,,0,5,5,0,,,,,,,AFSA14.jpg,AFNE18.jpg,AFNE17.jpg,AFSA06.jpg,AFSA14.jpg,FS,4,num_8,32,num_4,1.21673882238,,,2018_Mar_22_1704,59.9881478091,FEMA4ImagesEEG,001,103271,
AMSA21.JPG,AMNE23.JPG,AMNE21.JPG,AMSA25.JPG,AMNE25.JPG,AMSA23.JPG,,,,,,,,,,,,,,,,,0,6,6,5,,,,,,,AFNE20.jpg,AFSA17.jpg,AFSA02.jpg,AFNE12.jpg,AFNE12.jpg,FN,3,num_4,16,num_4,1.21673850164,,,2018_Mar_22_1704,59.9881478091,FEMA4ImagesEEG,001,103271,
AFSA25.JPG,AFNE24.JPG,AFSA24.JPG,AFNE21.JPG,AFSA21.JPG,AFNE25.JPG,,,,,,,,,,,,,,,,,0,7,7,2,,,,,,,AFSA20.jpg,AFSA13.jpg,AFNE20.jpg,AFNE12.jpg,AFNE20.jpg,FN,3,num_2,32,num_8,1.41678122416,,,2018_Mar_22_1704,59.9881478091,FEMA4ImagesEEG,001,103271,
AFNE22.JPG,AFSA24.JPG,AFSA22.JPG,AFNE25.JPG,AFNE24.JPG,AFSA25.JPG,,,,,,,,,,,,,,,,,0,8,8,6,,,,,,,AFSA09.jpg,AFNE04.jpg,AFSA16.jpg,AFNE03.jpg,AFNE03.jpg,FN,3,num_4,32,num_2,2.36667592535,,,2018_Mar_22_1704,59.9881478091,FEMA4ImagesEEG,001,103271,
AMSA25.JPG,AMNE24.JPG,AMSA24.JPG,AMNE26.JPG,AMSA21.JPG,AMNE25.JPG,,,,,,,,,,,,,,,,,0,9,9,3,,,,,,,AFSA17.jpg,AFNE05.jpg,AFNE13.jpg,AFSA10.jpg,AFNE05.jpg,FN,3,num_6,16,num_6,1.38345702121,,,2018_Mar_22_1704,59.9881478091,FEMA4ImagesEEG,001,103271,
AFNE22.JPG,AFSA24.JPG,AFSA22.JPG,AFNE25.JPG,AFNE24.JPG,AFSA25.JPG,,,,,,,,,,,,,,,,,,,,,0,0,0,6,,,AMSA15.jpg,AMSA02.jpg,AMNE13.jpg,AMNE10.jpg,AMNE10.jpg,MN,1,num_4,32,num_6,1.43344557082,,,2018_Mar_22_1704,59.9881478091,FEMA4ImagesEEG,001,103271,
AMNE22.JPG,AMSA24.JPG,AMSA22.JPG,AMNE25.JPG,AMNE24.JPG,AMSA25.JPG,,,,,,,,,,,,,,,,,,,,,0,1,1,7,,,AMNE18.jpg,AMNE15.jpg,AMSA14.jpg,AMSA19.jpg,AMSA14.jpg,MS,2,num_2,16,num_2,1.58341731365,,,2018_Mar_22_1704,59.9881478091,FEMA4ImagesEEG,001,103271,
AMSA21.JPG,AMNE23.JPG,AMNE21.JPG,AMSA25.JPG,AMNE25.JPG,AMSA23.JPG,,,,,,,,,,,,,,,,,,,,,0,2,2,5,,,AMNE17.jpg,AMSA18.jpg,AMNE15.jpg,AMSA13.jpg,AMNE17.jpg,MN,1,num_8,16,num_8,1.8833450831,,,2018_Mar_22_1704,59.9881478091,FEMA4ImagesEEG,001,103271,
AMNE23.JPG,AMNE24.JPG,AMNE22.JPG,AMSA24.JPG,AMSA22.JPG,AMSA23.JPG,,,,,,,,,,,,,,,,,,,,,0,3,3,9,,,AMSA06.jpg,AMNE19.jpg,AMSA11.jpg,AMNE04.jpg,AMNE19.jpg,MN,1,num_6,32,num_2,1.86640939074,,,2018_Mar_22_1704,59.9881478091,FEMA4ImagesEEG,001,103271,
AFSA25.JPG,AFNE24.JPG,AFSA24.JPG,AFNE21.JPG,AFSA21.JPG,AFNE25.JPG,,,,,,,,,,,,,,,,,,,,,0,4,4,2,,,AMSA12.jpg,AMNE10.jpg,AMSA01.jpg,AMNE16.jpg,AMNE10.jpg,MN,1,num_6,32,num_8,1.46668606071,,,2018_Mar_22_1704,59.9881478091,FEMA4ImagesEEG,001,103271,
AFSA21.JPG,AFNE23.JPG,AFNE21.JPG,AFSA25.JPG,AFNE25.JPG,AFSA23.JPG,,,,,,,,,,,,,,,,,,,,,0,5,5,4,,,AMSA08.jpg,AMNE15.jpg,AMSA11.jpg,AMNE01.jpg,AMSA08.jpg,MS,2,num_8,32,num_2,1.21678693332,,,2018_Mar_22_1704,59.9881478091,FEMA4ImagesEEG,001,103271,
AMSA21.JPG,AMNE22.JPG,AMNE21.JPG,AMSA23.JPG,AMSA22.JPG,AMNE23.JPG,,,,,,,,,,,,,,,,,,,,,0,6,6,1,,,AMNE10.jpg,AMNE11.jpg,AMSA09.jpg,AMSA01.jpg,AMNE10.jpg,MN,1,num_8,16,num_8,0.966760793061,,,2018_Mar_22_1704,59.9881478091,FEMA4ImagesEEG,001,103271,
AFSA21.JPG,AFNE22.JPG,AFNE21.JPG,AFSA23.JPG,AFSA22.JPG,AFNE23.JPG,,,,,,,,,,,,,,,,,,,,,0,7,7,0,,,AMNE02.jpg,AMSA19.jpg,AMSA13.jpg,AMNE18.jpg,AMNE02.jpg,MN,1,num_8,16,num_8,1.0667747773,,,2018_Mar_22_1704,59.9881478091,FEMA4ImagesEEG,001,103271,
AMSA25.JPG,AMNE24.JPG,AMSA24.JPG,AMNE26.JPG,AMSA21.JPG,AMNE25.JPG,,,,,,,,,,,,,,,,,,,,,0,8,8,3,,,AMSA10.jpg,AMNE08.jpg,AMNE13.jpg,AMSA11.jpg,AMNE08.jpg,MN,1,num_6,32,num_4,1.18345952299,,,2018_Mar_22_1704,59.9881478091,FEMA4ImagesEEG,001,103271,
AFNE23.JPG,AFNE24.JPG,AFNE22.JPG,AFSA24.JPG,AFSA22.JPG,AFSA23.JPG,,,,,,,,,,,,,,,,,,,,,0,9,9,8,,,AMNE09.jpg,AMSA20.jpg,AMSA12.jpg,AMNE07.jpg,AMSA12.jpg,MS,2,num_2,16,num_2,1.50005131833,,,2018_Mar_22_1704,59.9881478091,FEMA4ImagesEEG,001,103271,
,,,,,,,,,,,,,,,,,,,,,,,,,,,,,,,,,,,,,,,,,,,space,12.265877412,2018_Mar_22_1704,59.9881478091,FEMA4ImagesEEG,001,103271,
AFNE01.JPG,AFNE01.JPG,AFNE01.JPG,AFNE01.JPG,AFNE01.JPG,AFNE01.JPG,0,0,0,8,,,,,,,,,,,,,,,,,,,,,,,AFNE06.jpg,AFNE07.jpg,AFSA01.jpg,AFSA18.jpg,AFSA01.jpg,FS,4,num_2,32,num_6,1.11675306322,,,2018_Mar_22_1704,59.9881478091,FEMA4ImagesEEG,001,103271,
AFNE01.JPG,AFNE01.JPG,AFNE01.JPG,AFNE01.JPG,AFNE01.JPG,AFNE01.JPG,0,1,1,7,,,,,,,,,,,,,,,,,,,,,,,AFSA10.jpg,AFNE01.jpg,AFSA01.jpg,AFNE11.jpg,AFNE01.jpg,FN,3,num_6,32,num_4,1.28315372985,,,2018_Mar_22_1704,59.9881478091,FEMA4ImagesEEG,001,103271,
AFNE01.JPG,AFNE01.JPG,AFNE01.JPG,AFNE01.JPG,AFNE01.JPG,AFNE01.JPG,0,2,2,5,,,,,,,,,,,,,,,,,,,,,,,AFNE16.jpg,AFNE08.jpg,AFSA10.jpg,AFSA01.jpg,AFSA10.jpg,FS,4,num_2,16,num_2,1.0001863497,,,2018_Mar_22_1704,59.9881478091,FEMA4ImagesEEG,001,103271,
AFNE01.JPG,AFNE01.JPG,AFNE01.JPG,AFNE01.JPG,AFNE01.JPG,AFNE01.JPG,0,3,3,9,,,,,,,,,,,,,,,,,,,,,,,AFNE19.jpg,AFSA19.jpg,AFSA13.jpg,AFNE08.jpg,AFSA13.jpg,FS,4,num_2,32,num_6,1.13338822256,,,2018_Mar_22_1704,59.9881478091,FEMA4ImagesEEG,001,103271,
AFNE01.JPG,AFNE01.JPG,AFNE01.JPG,AFNE01.JPG,AFNE01.JPG,AFNE01.JPG,0,4,4,0,,,,,,,,,,,,,,,,,,,,,,,AFSA10.jpg,AFNE08.jpg,AFSA03.jpg,AFNE14.jpg,AFNE08.jpg,FN,3,num_6,16,num_6,0.78342892442,,,2018_Mar_22_1704,59.9881478091,FEMA4ImagesEEG,001,103271,
AFNE01.JPG,AFNE01.JPG,AFNE01.JPG,AFNE01.JPG,AFNE01.JPG,AFNE01.JPG,0,5,5,1,,,,,,,,,,,,,,,,,,,,,,,AFNE10.jpg,AFNE17.jpg,AFSA14.jpg,AFSA02.jpg,AFNE10.jpg,FN,3,num_8,32,num_6,1.85011229094,,,2018_Mar_22_1704,59.9881478091,FEMA4ImagesEEG,001,103271,
AFNE01.JPG,AFNE01.JPG,AFNE01.JPG,AFNE01.JPG,AFNE01.JPG,AFNE01.JPG,0,6,6,4,,,,,,,,,,,,,,,,,,,,,,,AFSA10.jpg,AFSA01.jpg,AFNE01.jpg,AFNE18.jpg,AFNE01.jpg,FN,3,num_2,16,num_2,2.13337699667,,,2018_Mar_22_1704,59.9881478091,FEMA4ImagesEEG,001,103271,
AFNE01.JPG,AFNE01.JPG,AFNE01.JPG,AFNE01.JPG,AFNE01.JPG,AFNE01.JPG,0,7,7,3,,,,,,,,,,,,,,,,,,,,,,,AFSA16.jpg,AFNE04.jpg,AFSA06.jpg,AFNE02.jpg,AFSA06.jpg,FS,4,num_2,32,num_4,1.36674167696,,,2018_Mar_22_1704,59.9881478091,FEMA4ImagesEEG,001,103271,
AFNE01.JPG,AFNE01.JPG,AFNE01.JPG,AFNE01.JPG,AFNE01.JPG,AFNE01.JPG,0,8,8,6,,,,,,,,,,,,,,,,,,,,,,,AFNE14.jpg,AFNE03.jpg,AFSA17.jpg,AFSA01.jpg,AFSA01.jpg,FS,4,num_4,32,num_8,1.33340111631,,,2018_Mar_22_1704,59.9881478091,FEMA4ImagesEEG,001,103271,
AFNE01.JPG,AFNE01.JPG,AFNE01.JPG,AFNE01.JPG,AFNE01.JPG,AFNE01.JPG,0,9,9,2,,,,,,,,,,,,,,,,,,,,,,,AFNE14.jpg,AFNE04.jpg,AFSA04.jpg,AFSA13.jpg,AFNE14.jpg,FN,3,num_8,16,num_8,1.3334011163,,,2018_Mar_22_1704,59.9881478091,FEMA4ImagesEEG,001,103271,
AFNE01.JPG,AFNE01.JPG,AFNE01.JPG,AFNE01.JPG,AFNE01.JPG,AFNE01.JPG,1,0,10,4,,,,,,,,,,,,,,,,,,,,,,,AFSA02.jpg,AFNE20.jpg,AFSA18.jpg,AFNE18.jpg,AFNE18.jpg,FN,3,num_4,16,num_4,0.833487395255,,,2018_Mar_22_1704,59.9881478091,FEMA4ImagesEEG,001,103271,
AFNE01.JPG,AFNE01.JPG,AFNE01.JPG,AFNE01.JPG,AFNE01.JPG,AFNE01.JPG,1,1,11,1,,,,,,,,,,,,,,,,,,,,,,,AFSA05.jpg,AFNE17.jpg,AFSA17.jpg,AFNE04.jpg,AFNE04.jpg,FN,3,num_4,16,num_4,0.816750561455,,,2018_Mar_22_1704,59.9881478091,FEMA4ImagesEEG,001,103271,
AFNE01.JPG,AFNE01.JPG,AFNE01.JPG,AFNE01.JPG,AFNE01.JPG,AFNE01.JPG,1,2,12,8,,,,,,,,,,,,,,,,,,,,,,,AFNE03.jpg,AFSA09.jpg,AFNE10.jpg,AFSA15.jpg,AFNE03.jpg,FN,3,num_8,32,num_6,1.0501245432,,,2018_Mar_22_1704,59.9881478091,FEMA4ImagesEEG,001,103271,
AFNE01.JPG,AFNE01.JPG,AFNE01.JPG,AFNE01.JPG,AFNE01.JPG,AFNE01.JPG,1,3,13,9,,,,,,,,,,,,,,,,,,,,,,,AFNE05.jpg,AFNE17.jpg,AFSA09.jpg,AFSA12.jpg,AFSA09.jpg,FS,4,num_2,16,num_2,0.866658605402,,,2018_Mar_22_1704,59.9881478091,FEMA4ImagesEEG,001,103271,
AFNE01.JPG,AFNE01.JPG,AFNE01.JPG,AFNE01.JPG,AFNE01.JPG,AFNE01.JPG,1,4,14,7,,,,,,,,,,,,,,,,,,,,,,,AFNE07.jpg,AFNE03.jpg,AFSA07.jpg,AFSA03.jpg,AFSA07.jpg,FS,4,num_2,32,num_8,1.06659195572,,,2018_Mar_22_1704,59.9881478091,FEMA4ImagesEEG,001,103271,
AFNE01.JPG,AFNE01.JPG,AFNE01.JPG,AFNE01.JPG,AFNE01.JPG,AFNE01.JPG,1,5,15,6,,,,,,,,,,,,,,,,,,,,,,,AFNE15.jpg,AFNE11.jpg,AFSA18.jpg,AFSA09.jpg,AFNE11.jpg,FN,3,num_6,16,num_6,0.700184489411,,,2018_Mar_22_1704,59.9881478091,FEMA4ImagesEEG,001,103271,
AFNE01.JPG,AFNE01.JPG,AFNE01.JPG,AFNE01.JPG,AFNE01.JPG,AFNE01.JPG,1,6,16,5,,,,,,,,,,,,,,,,,,,,,,,AFNE08.jpg,AFNE05.jpg,AFSA03.jpg,AFSA17.jpg,AFNE08.jpg,FN,3,num_8,16,num_8,0.916786676738,,,2018_Mar_22_1704,59.9881478091,FEMA4ImagesEEG,001,103271,
AFNE01.JPG,AFNE01.JPG,AFNE01.JPG,AFNE01.JPG,AFNE01.JPG,AFNE01.JPG,1,7,17,2,,,,,,,,,,,,,,,,,,,,,,,AFNE12.jpg,AFNE08.jpg,AFSA12.jpg,AFSA19.jpg,AFSA12.jpg,FS,4,num_2,16,num_2,0.71681387545,,,2018_Mar_22_1704,59.9881478091,FEMA4ImagesEEG,001,103271,
AFNE01.JPG,AFNE01.JPG,AFNE01.JPG,AFNE01.JPG,AFNE01.JPG,AFNE01.JPG,1,8,18,0,,,,,,,,,,,,,,,,,,,,,,,AFNE04.jpg,AFSA20.jpg,AFNE19.jpg,AFSA07.jpg,AFSA07.jpg,FS,4,num_4,32,num_8,1.3001080251,,,2018_Mar_22_1704,59.9881478091,FEMA4ImagesEEG,001,103271,
AFNE01.JPG,AFNE01.JPG,AFNE01.JPG,AFNE01.JPG,AFNE01.JPG,AFNE01.JPG,1,9,19,3,,,,,,,,,,,,,,,,,,,,,,,AFSA01.jpg,AFSA08.jpg,AFNE17.jpg,AFNE18.jpg,AFNE18.jpg,FN,3,num_4,16,num_4,0.966811149163,,,2018_Mar_22_1704,59.9881478091,FEMA4ImagesEEG,001,103271,
AFNE01.JPG,AFNE01.JPG,AFNE01.JPG,AFNE01.JPG,AFNE01.JPG,AFNE01.JPG,2,0,20,7,,,,,,,,,,,,,,,,,,,,,,,AFSA03.jpg,AFSA04.jpg,AFNE05.jpg,AFNE03.jpg,AFNE03.jpg,FN,3,num_4,32,num_8,1.10006562332,,,2018_Mar_22_1704,59.9881478091,FEMA4ImagesEEG,001,103271,
AFNE01.JPG,AFNE01.JPG,AFNE01.JPG,AFNE01.JPG,AFNE01.JPG,AFNE01.JPG,2,1,21,4,,,,,,,,,,,,,,,,,,,,,,,AFNE10.jpg,AFSA11.jpg,AFSA18.jpg,AFNE12.jpg,AFSA11.jpg,FS,4,num_6,32,num_2,0.750118513286,,,2018_Mar_22_1704,59.9881478091,FEMA4ImagesEEG,001,103271,
AFNE01.JPG,AFNE01.JPG,AFNE01.JPG,AFNE01.JPG,AFNE01.JPG,AFNE01.JPG,2,2,22,0,,,,,,,,,,,,,,,,,,,,,,,AFSA16.jpg,AFSA18.jpg,AFNE01.jpg,AFNE11.jpg,AFNE01.jpg,FN,3,num_2,32,num_8,1.01676056853,,,2018_Mar_22_1704,59.9881478091,FEMA4ImagesEEG,001,103271,
AFNE01.JPG,AFNE01.JPG,AFNE01.JPG,AFNE01.JPG,AFNE01.JPG,AFNE01.JPG,2,3,23,2,,,,,,,,,,,,,,,,,,,,,,,AFNE03.jpg,AFNE02.jpg,AFSA14.jpg,AFSA12.jpg,AFNE02.jpg,FN,3,num_6,32,num_4,1.0166332349,,,2018_Mar_22_1704,59.9881478091,FEMA4ImagesEEG,001,103271,
AFNE01.JPG,AFNE01.JPG,AFNE01.JPG,AFNE01.JPG,AFNE01.JPG,AFNE01.JPG,2,4,24,8,,,,,,,,,,,,,,,,,,,,,,,AFSA17.jpg,AFNE12.jpg,AFSA03.jpg,AFNE14.jpg,AFNE12.jpg,FN,3,num_6,16,num_6,0.816786163559,,,2018_Mar_22_1704,59.9881478091,FEMA4ImagesEEG,001,103271,
AFNE01.JPG,AFNE01.JPG,AFNE01.JPG,AFNE01.JPG,AFNE01.JPG,AFNE01.JPG,2,5,25,5,,,,,,,,,,,,,,,,,,,,,,,AFNE20.jpg,AFNE02.jpg,AFSA15.jpg,AFSA13.jpg,AFNE20.jpg,FN,3,num_8,16,num_8,0.933685804761,,,2018_Mar_22_1704,59.9881478091,FEMA4ImagesEEG,001,103271,
AFNE01.JPG,AFNE01.JPG,AFNE01.JPG,AFNE01.JPG,AFNE01.JPG,AFNE01.JPG,2,6,26,1,,,,,,,,,,,,,,,,,,,,,,,AFNE13.jpg,AFNE16.jpg,AFSA04.jpg,AFSA19.jpg,AFNE16.jpg,FN,3,num_6,16,num_6,1.15022127825,,,2018_Mar_22_1704,59.9881478091,FEMA4ImagesEEG,001,103271,
AFNE01.JPG,AFNE01.JPG,AFNE01.JPG,AFNE01.JPG,AFNE01.JPG,AFNE01.JPG,2,7,27,3,,,,,,,,,,,,,,,,,,,,,,,AFSA13.jpg,AFSA11.jpg,AFNE11.jpg,AFNE18.jpg,AFNE11.jpg,FN,3,num_2,16,num_2,0.95013718032,,,2018_Mar_22_1704,59.9881478091,FEMA4ImagesEEG,001,103271,
AFNE01.JPG,AFNE01.JPG,AFNE01.JPG,AFNE01.JPG,AFNE01.JPG,AFNE01.JPG,2,8,28,6,,,,,,,,,,,,,,,,,,,,,,,AFNE18.jpg,AFSA20.jpg,AFSA14.jpg,AFNE15.jpg,AFSA20.jpg,FS,4,num_6,32,num_8,0.983435403366,,,2018_Mar_22_1704,59.9881478091,FEMA4ImagesEEG,001,103271,
AFNE01.JPG,AFNE01.JPG,AFNE01.JPG,AFNE01.JPG,AFNE01.JPG,AFNE01.JPG,2,9,29,9,,,,,,,,,,,,,,,,,,,,,,,AFNE03.jpg,AFSA11.jpg,AFNE15.jpg,AFSA07.jpg,AFSA07.jpg,FS,4,num_4,16,num_4,0.816812143457,,,2018_Mar_22_1704,59.9881478091,FEMA4ImagesEEG,001,103271,
AFNE01.JPG,AFNE01.JPG,AFNE01.JPG,AFNE01.JPG,AFNE01.JPG,AFNE01.JPG,3,0,30,8,,,,,,,,,,,,,,,,,,,,,,,AFNE16.jpg,AFNE10.jpg,AFSA06.jpg,AFSA15.jpg,AFNE16.jpg,FN,3,num_8,16,num_8,1.48339017908,,,2018_Mar_22_1704,59.9881478091,FEMA4ImagesEEG,001,103271,
AFNE01.JPG,AFNE01.JPG,AFNE01.JPG,AFNE01.JPG,AFNE01.JPG,AFNE01.JPG,3,1,31,0,,,,,,,,,,,,,,,,,,,,,,,AFSA05.jpg,AFNE20.jpg,AFNE11.jpg,AFSA07.jpg,AFSA07.jpg,FS,4,num_4,16,num_4,0.916778337501,,,2018_Mar_22_1704,59.9881478091,FEMA4ImagesEEG,001,103271,
AFNE01.JPG,AFNE01.JPG,AFNE01.JPG,AFNE01.JPG,AFNE01.JPG,AFNE01.JPG,3,2,32,7,,,,,,,,,,,,,,,,,,,,,,,AFSA02.jpg,AFSA01.jpg,AFNE18.jpg,AFNE15.jpg,AFNE15.jpg,FN,3,num_4,16,num_4,0.750135833223,,,2018_Mar_22_1704,59.9881478091,FEMA4ImagesEEG,001,103271,
AFNE01.JPG,AFNE01.JPG,AFNE01.JPG,AFNE01.JPG,AFNE01.JPG,AFNE01.JPG,3,3,33,2,,,,,,,,,,,,,,,,,,,,,,,AFNE02.jpg,AFSA13.jpg,AFSA11.jpg,AFNE07.jpg,AFSA13.jpg,FS,4,num_6,32,num_2,1.06673660928,,,2018_Mar_22_1704,59.9881478091,FEMA4ImagesEEG,001,103271,
AFNE01.JPG,AFNE01.JPG,AFNE01.JPG,AFNE01.JPG,AFNE01.JPG,AFNE01.JPG,3,4,34,3,,,,,,,,,,,,,,,,,,,,,,,AFSA07.jpg,AFNE04.jpg,AFSA10.jpg,AFNE09.jpg,AFSA07.jpg,FS,4,num_8,32,num_4,2.66665854127,,,2018_Mar_22_1704,59.9881478091,FEMA4ImagesEEG,001,103271,
AFNE01.JPG,AFNE01.JPG,AFNE01.JPG,AFNE01.JPG,AFNE01.JPG,AFNE01.JPG,3,5,35,9,,,,,,,,,,,,,,,,,,,,,,,AFNE19.jpg,AFSA11.jpg,AFSA08.jpg,AFNE09.jpg,AFSA11.jpg,FS,4,num_6,16,num_6,1.46674251089,,,2018_Mar_22_1704,59.9881478091,FEMA4ImagesEEG,001,103271,
AFNE01.JPG,AFNE01.JPG,AFNE01.JPG,AFNE01.JPG,AFNE01.JPG,AFNE01.JPG,3,6,36,5,,,,,,,,,,,,,,,,,,,,,,,AFSA20.jpg,AFSA01.jpg,AFNE05.jpg,AFNE03.jpg,AFNE05.jpg,FN,3,num_2,16,num_2,1.10045692563,,,2018_Mar_22_1704,59.9881478091,FEMA4ImagesEEG,001,103271,
AFNE01.JPG,AFNE01.JPG,AFNE01.JPG,AFNE01.JPG,AFNE01.JPG,AFNE01.JPG,3,7,37,4,,,,,,,,,,,,,,,,,,,,,,,AFNE11.jpg,AFSA03.jpg,AFSA11.jpg,AFNE12.jpg,AFNE11.jpg,FN,3,num_8,32,num_2,1.00014433282,,,2018_Mar_22_1704,59.9881478091,FEMA4ImagesEEG,001,103271,
AFNE01.JPG,AFNE01.JPG,AFNE01.JPG,AFNE01.JPG,AFNE01.JPG,AFNE01.JPG,3,8,38,1,,,,,,,,,,,,,,,,,,,,,,,AFNE04.jpg,AFSA05.jpg,AFSA07.jpg,AFNE07.jpg,AFNE07.jpg,FN,3,num_4,32,num_2,2.25001587661,,,2018_Mar_22_1704,59.9881478091,FEMA4ImagesEEG,001,103271,
AFNE01.JPG,AFNE01.JPG,AFNE01.JPG,AFNE01.JPG,AFNE01.JPG,AFNE01.JPG,3,9,39,6,,,,,,,,,,,,,,,,,,,,,,,AFNE20.jpg,AFSA01.jpg,AFNE16.jpg,AFSA19.jpg,AFNE20.jpg,FN,3,num_8,32,num_6,3.94990785152,,,2018_Mar_22_1704,59.9881478091,FEMA4ImagesEEG,001,103271,
AFNE01.JPG,AFNE01.JPG,AFNE01.JPG,AFNE01.JPG,AFNE01.JPG,AFNE01.JPG,4,0,40,0,,,,,,,,,,,,,,,,,,,,,,,AFSA19.jpg,AFSA10.jpg,AFNE14.jpg,AFNE06.jpg,AFSA19.jpg,FS,4,num_8,32,num_6,1.13345012531,,,2018_Mar_22_1704,59.9881478091,FEMA4ImagesEEG,001,103271,
AFNE01.JPG,AFNE01.JPG,AFNE01.JPG,AFNE01.JPG,AFNE01.JPG,AFNE01.JPG,4,1,41,4,,,,,,,,,,,,,,,,,,,,,,,AFNE18.jpg,AFSA01.jpg,AFNE09.jpg,AFSA06.jpg,AFSA01.jpg,FS,4,num_6,32,num_8,2.40001905193,,,2018_Mar_22_1704,59.9881478091,FEMA4ImagesEEG,001,103271,
AFNE01.JPG,AFNE01.JPG,AFNE01.JPG,AFNE01.JPG,AFNE01.JPG,AFNE01.JPG,4,2,42,7,,,,,,,,,,,,,,,,,,,,,,,AFNE16.jpg,AFSA18.jpg,AFSA08.jpg,AFNE06.jpg,AFNE06.jpg,FN,3,num_4,16,num_4,0.75017592567,,,2018_Mar_22_1704,59.9881478091,FEMA4ImagesEEG,001,103271,
AFNE01.JPG,AFNE01.JPG,AFNE01.JPG,AFNE01.JPG,AFNE01.JPG,AFNE01.JPG,4,3,43,6,,,,,,,,,,,,,,,,,,,,,,,AFNE16.jpg,AFSA04.jpg,AFSA20.jpg,AFNE03.jpg,AFSA04.jpg,FS,4,num_6,32,num_4,0.833736930668,,,2018_Mar_22_1704,59.9881478091,FEMA4ImagesEEG,001,103271,
AFNE01.JPG,AFNE01.JPG,AFNE01.JPG,AFNE01.JPG,AFNE01.JPG,AFNE01.JPG,4,4,44,8,,,,,,,,,,,,,,,,,,,,,,,AFNE09.jpg,AFSA19.jpg,AFSA16.jpg,AFNE15.jpg,AFNE15.jpg,FN,3,num_4,32,num_8,1.18350057765,,,2018_Mar_22_1704,59.9881478091,FEMA4ImagesEEG,001,103271,
AFNE01.JPG,AFNE01.JPG,AFNE01.JPG,AFNE01.JPG,AFNE01.JPG,AFNE01.JPG,4,5,45,2,,,,,,,,,,,,,,,,,,,,,,,AFNE13.jpg,AFSA01.jpg,AFNE02.jpg,AFSA15.jpg,AFSA15.jpg,FS,4,num_4,16,num_4,1.05005526343,,,2018_Mar_22_1704,59.9881478091,FEMA4ImagesEEG,001,103271,
AFNE01.JPG,AFNE01.JPG,AFNE01.JPG,AFNE01.JPG,AFNE01.JPG,AFNE01.JPG,4,6,46,5,,,,,,,,,,,,,,,,,,,,,,,AFNE08.jpg,AFSA05.jpg,AFNE15.jpg,AFSA13.jpg,AFSA05.jpg,FS,4,num_6,16,num_6,0.93342311903,,,2018_Mar_22_1704,59.9881478091,FEMA4ImagesEEG,001,103271,
AFNE01.JPG,AFNE01.JPG,AFNE01.JPG,AFNE01.JPG,AFNE01.JPG,AFNE01.JPG,4,7,47,9,,,,,,,,,,,,,,,,,,,,,,,AFNE03.jpg,AFSA20.jpg,AFSA10.jpg,AFNE07.jpg,AFNE07.jpg,FN,3,num_4,16,num_4,0.916775771591,,,2018_Mar_22_1704,59.9881478091,FEMA4ImagesEEG,001,103271,
AFNE01.JPG,AFNE01.JPG,AFNE01.JPG,AFNE01.JPG,AFNE01.JPG,AFNE01.JPG,4,8,48,1,,,,,,,,,,,,,,,,,,,,,,,AFNE20.jpg,AFNE10.jpg,AFSA03.jpg,AFSA12.jpg,AFNE20.jpg,FN,3,num_8,16,num_8,1.73346314733,,,2018_Mar_22_1704,59.9881478091,FEMA4ImagesEEG,001,103271,
AFNE01.JPG,AFNE01.JPG,AFNE01.JPG,AFNE01.JPG,AFNE01.JPG,AFNE01.JPG,4,9,49,3,,,,,,,,,,,,,,,,,,,,,,,AFSA17.jpg,AFSA03.jpg,AFNE02.jpg,AFNE03.jpg,AFSA03.jpg,FS,4,num_6,16,num_6,0.66677689417,,,2018_Mar_22_1704,59.9881478091,FEMA4ImagesEEG,001,103271,
AFNE01.JPG,AFNE01.JPG,AFNE01.JPG,AFNE01.JPG,AFNE01.JPG,AFNE01.JPG,5,0,50,2,,,,,,,,,,,,,,,,,,,,,,,AFNE11.jpg,AFNE16.jpg,AFSA16.jpg,AFSA15.jpg,AFSA16.jpg,FS,4,num_2,16,num_2,2.2833711913,,,2018_Mar_22_1704,59.9881478091,FEMA4ImagesEEG,001,103271,
AFNE01.JPG,AFNE01.JPG,AFNE01.JPG,AFNE01.JPG,AFNE01.JPG,AFNE01.JPG,5,1,51,6,,,,,,,,,,,,,,,,,,,,,,,AFSA16.jpg,AFNE05.jpg,AFNE17.jpg,AFSA03.jpg,AFSA16.jpg,FS,4,num_8,16,num_8,1.5667164027,,,2018_Mar_22_1704,59.9881478091,FEMA4ImagesEEG,001,103271,
AFNE01.JPG,AFNE01.JPG,AFNE01.JPG,AFNE01.JPG,AFNE01.JPG,AFNE01.JPG,5,2,52,5,,,,,,,,,,,,,,,,,,,,,,,AFSA20.jpg,AFNE09.jpg,AFNE20.jpg,AFSA16.jpg,AFSA16.jpg,FS,4,num_4,16,num_4,0.633487331113,,,2018_Mar_22_1704,59.9881478091,FEMA4ImagesEEG,001,103271,
AFNE01.JPG,AFNE01.JPG,AFNE01.JPG,AFNE01.JPG,AFNE01.JPG,AFNE01.JPG,5,3,53,8,,,,,,,,,,,,,,,,,,,,,,,AFSA10.jpg,AFSA05.jpg,AFNE05.jpg,AFNE14.jpg,AFSA05.jpg,FS,4,num_6,32,num_8,1.96669504142,,,2018_Mar_22_1704,59.9881478091,FEMA4ImagesEEG,001,103271,
AFNE01.JPG,AFNE01.JPG,AFNE01.JPG,AFNE01.JPG,AFNE01.JPG,AFNE01.JPG,5,4,54,4,,,,,,,,,,,,,,,,,,,,,,,AFSA04.jpg,AFNE17.jpg,AFNE04.jpg,AFSA01.jpg,AFNE17.jpg,FN,3,num_6,16,num_6,1.10005279374,,,2018_Mar_22_1704,59.9881478091,FEMA4ImagesEEG,001,103271,
AFNE01.JPG,AFNE01.JPG,AFNE01.JPG,AFNE01.JPG,AFNE01.JPG,AFNE01.JPG,5,5,55,0,,,,,,,,,,,,,,,,,,,,,,,AFSA10.jpg,AFNE08.jpg,AFSA11.jpg,AFNE11.jpg,AFNE11.jpg,FN,3,num_4,16,num_4,0.683499936174,,,2018_Mar_22_1704,59.9881478091,FEMA4ImagesEEG,001,103271,
AFNE01.JPG,AFNE01.JPG,AFNE01.JPG,AFNE01.JPG,AFNE01.JPG,AFNE01.JPG,5,6,56,7,,,,,,,,,,,,,,,,,,,,,,,AFNE07.jpg,AFSA04.jpg,AFNE11.jpg,AFSA14.jpg,AFNE11.jpg,FN,3,num_2,16,num_2,0.816771088779,,,2018_Mar_22_1704,59.9881478091,FEMA4ImagesEEG,001,103271,
AFNE01.JPG,AFNE01.JPG,AFNE01.JPG,AFNE01.JPG,AFNE01.JPG,AFNE01.JPG,5,7,57,1,,,,,,,,,,,,,,,,,,,,,,,AFNE15.jpg,AFSA18.jpg,AFSA14.jpg,AFNE16.jpg,AFNE16.jpg,FN,3,num_4,32,num_6,1.11676300615,,,2018_Mar_22_1704,59.9881478091,FEMA4ImagesEEG,001,103271,
AFNE01.JPG,AFNE01.JPG,AFNE01.JPG,AFNE01.JPG,AFNE01.JPG,AFNE01.JPG,5,8,58,9,,,,,,,,,,,,,,,,,,,,,,,AFSA05.jpg,AFSA10.jpg,AFNE04.jpg,AFNE20.jpg,AFSA10.jpg,FS,4,num_6,32,num_4,1.15013692374,,,2018_Mar_22_1704,59.9881478091,FEMA4ImagesEEG,001,103271,
AFNE01.JPG,AFNE01.JPG,AFNE01.JPG,AFNE01.JPG,AFNE01.JPG,AFNE01.JPG,5,9,59,3,,,,,,,,,,,,,,,,,,,,,,,AFNE02.jpg,AFSA05.jpg,AFSA06.jpg,AFNE03.jpg,AFNE03.jpg,FN,3,num_4,16,num_4,1.25010215555,,,2018_Mar_22_1704,59.9881478091,FEMA4ImagesEEG,001,103271,
,,,,,,,,,,,,,,,,,,,,,,,,,,,,,,,,,,,,,,,,,,,space,19.1987148606,2018_Mar_22_1704,59.9881478091,FEMA4ImagesEEG,001,103271,
AFNE01.JPG,AFNE01.JPG,AFNE01.JPG,AFNE01.JPG,AFNE01.JPG,AFNE01.JPG,,,,,0,0,0,5,,,,,,,,,,,,,,,,,,,AMNE12.jpg,AMSA05.jpg,AMNE14.jpg,AMSA18.jpg,AMSA05.jpg,MS,2,num_6,16,num_6,1.03317024795,,,2018_Mar_22_1704,59.9881478091,FEMA4ImagesEEG,001,103271,
AFNE01.JPG,AFNE01.JPG,AFNE01.JPG,AFNE01.JPG,AFNE01.JPG,AFNE01.JPG,,,,,0,1,1,9,,,,,,,,,,,,,,,,,,,AMSA16.jpg,AMNE10.jpg,AMNE14.jpg,AMSA08.jpg,AMSA16.jpg,MS,2,num_8,16,num_8,0.550199275516,,,2018_Mar_22_1704,59.9881478091,FEMA4ImagesEEG,001,103271,
AFNE01.JPG,AFNE01.JPG,AFNE01.JPG,AFNE01.JPG,AFNE01.JPG,AFNE01.JPG,,,,,0,2,2,2,,,,,,,,,,,,,,,,,,,AMNE17.jpg,AMSA20.jpg,AMNE08.jpg,AMSA01.jpg,AMNE08.jpg,MN,1,num_2,16,num_2,1.89988273761,,,2018_Mar_22_1704,59.9881478091,FEMA4ImagesEEG,001,103271,
AFNE01.JPG,AFNE01.JPG,AFNE01.JPG,AFNE01.JPG,AFNE01.JPG,AFNE01.JPG,,,,,0,3,3,1,,,,,,,,,,,,,,,,,,,AMSA07.jpg,AMNE05.jpg,AMSA09.jpg,AMNE15.jpg,AMNE15.jpg,MN,1,num_4,16,num_4,1.13343505055,,,2018_Mar_22_1704,59.9881478091,FEMA4ImagesEEG,001,103271,
AFNE01.JPG,AFNE01.JPG,AFNE01.JPG,AFNE01.JPG,AFNE01.JPG,AFNE01.JPG,,,,,0,4,4,8,,,,,,,,,,,,,,,,,,,AMSA15.jpg,AMNE13.jpg,AMSA17.jpg,AMNE15.jpg,AMSA15.jpg,MS,2,num_8,32,num_6,1.05013192019,,,2018_Mar_22_1704,59.9881478091,FEMA4ImagesEEG,001,103271,
AFNE01.JPG,AFNE01.JPG,AFNE01.JPG,AFNE01.JPG,AFNE01.JPG,AFNE01.JPG,,,,,0,5,5,4,,,,,,,,,,,,,,,,,,,AMNE08.jpg,AMSA07.jpg,AMNE15.jpg,AMSA13.jpg,AMSA07.jpg,MS,2,num_6,16,num_6,0.683414940169,,,2018_Mar_22_1704,59.9881478091,FEMA4ImagesEEG,001,103271,
AFNE01.JPG,AFNE01.JPG,AFNE01.JPG,AFNE01.JPG,AFNE01.JPG,AFNE01.JPG,,,,,0,6,6,3,,,,,,,,,,,,,,,,,,,AMSA01.jpg,AMNE09.jpg,AMSA18.jpg,AMNE20.jpg,AMSA18.jpg,MS,2,num_2,16,num_2,1.08343880319,,,2018_Mar_22_1704,59.9881478091,FEMA4ImagesEEG,001,103271,
AFNE01.JPG,AFNE01.JPG,AFNE01.JPG,AFNE01.JPG,AFNE01.JPG,AFNE01.JPG,,,,,0,7,7,6,,,,,,,,,,,,,,,,,,,AMNE09.jpg,AMSA19.jpg,AMNE12.jpg,AMSA06.jpg,AMNE12.jpg,MN,1,num_2,16,num_2,0.966803451418,,,2018_Mar_22_1704,59.9881478091,FEMA4ImagesEEG,001,103271,
AFNE01.JPG,AFNE01.JPG,AFNE01.JPG,AFNE01.JPG,AFNE01.JPG,AFNE01.JPG,,,,,0,8,8,0,,,,,,,,,,,,,,,,,,,AMSA07.jpg,AMNE15.jpg,AMSA11.jpg,AMNE01.jpg,AMNE01.jpg,MN,1,num_4,16,num_4,1.7000417603,,,2018_Mar_22_1704,59.9881478091,FEMA4ImagesEEG,001,103271,
AFNE01.JPG,AFNE01.JPG,AFNE01.JPG,AFNE01.JPG,AFNE01.JPG,AFNE01.JPG,,,,,0,9,9,7,,,,,,,,,,,,,,,,,,,AMNE01.jpg,AMNE05.jpg,AMSA19.jpg,AMSA03.jpg,AMSA03.jpg,MS,2,num_4,16,num_4,1.01680675503,,,2018_Mar_22_1704,59.9881478091,FEMA4ImagesEEG,001,103271,
AFNE01.JPG,AFNE01.JPG,AFNE01.JPG,AFNE01.JPG,AFNE01.JPG,AFNE01.JPG,,,,,1,0,10,0,,,,,,,,,,,,,,,,,,,AMNE06.jpg,AMSA02.jpg,AMSA01.jpg,AMNE16.jpg,AMNE16.jpg,MN,1,num_4,32,num_8,1.0167942462,,,2018_Mar_22_1704,59.9881478091,FEMA4ImagesEEG,001,103271,
AFNE01.JPG,AFNE01.JPG,AFNE01.JPG,AFNE01.JPG,AFNE01.JPG,AFNE01.JPG,,,,,1,1,11,3,,,,,,,,,,,,,,,,,,,AMNE12.jpg,AMNE05.jpg,AMSA02.jpg,AMSA16.jpg,AMNE05.jpg,MN,1,num_6,16,num_6,0.933582526632,,,2018_Mar_22_1704,59.9881478091,FEMA4ImagesEEG,001,103271,
AFNE01.JPG,AFNE01.JPG,AFNE01.JPG,AFNE01.JPG,AFNE01.JPG,AFNE01.JPG,,,,,1,2,12,6,,,,,,,,,,,,,,,,,,,AMNE20.jpg,AMSA01.jpg,AMNE01.jpg,AMSA20.jpg,AMSA01.jpg,MS,2,num_6,32,num_2,1.31676242882,,,2018_Mar_22_1704,59.9881478091,FEMA4ImagesEEG,001,103271,
AFNE01.JPG,AFNE01.JPG,AFNE01.JPG,AFNE01.JPG,AFNE01.JPG,AFNE01.JPG,,,,,1,3,13,9,,,,,,,,,,,,,,,,,,,AMSA11.jpg,AMSA08.jpg,AMNE15.jpg,AMNE07.jpg,AMNE15.jpg,MN,1,num_2,32,num_4,1.21673080389,,,2018_Mar_22_1704,59.9881478091,FEMA4ImagesEEG,001,103271,
AFNE01.JPG,AFNE01.JPG,AFNE01.JPG,AFNE01.JPG,AFNE01.JPG,AFNE01.JPG,,,,,1,4,14,2,,,,,,,,,,,,,,,,,,,AMSA19.jpg,AMNE05.jpg,AMNE08.jpg,AMSA20.jpg,AMSA20.jpg,MS,2,num_4,16,num_4,0.90039624169,,,2018_Mar_22_1704,59.9881478091,FEMA4ImagesEEG,001,103271,
AFNE01.JPG,AFNE01.JPG,AFNE01.JPG,AFNE01.JPG,AFNE01.JPG,AFNE01.JPG,,,,,1,5,15,7,,,,,,,,,,,,,,,,,,,AMSA06.jpg,AMNE15.jpg,AMNE03.jpg,AMSA17.jpg,AMNE03.jpg,MN,1,num_2,32,num_8,0.983530983765,,,2018_Mar_22_1704,59.9881478091,FEMA4ImagesEEG,001,103271,
AFNE01.JPG,AFNE01.JPG,AFNE01.JPG,AFNE01.JPG,AFNE01.JPG,AFNE01.JPG,,,,,1,6,16,1,,,,,,,,,,,,,,,,,,,AMSA12.jpg,AMSA06.jpg,AMNE01.jpg,AMNE05.jpg,AMNE05.jpg,MN,1,num_4,32,num_6,0.766824556078,,,2018_Mar_22_1704,59.9881478091,FEMA4ImagesEEG,001,103271,
AFNE01.JPG,AFNE01.JPG,AFNE01.JPG,AFNE01.JPG,AFNE01.JPG,AFNE01.JPG,,,,,1,7,17,8,,,,,,,,,,,,,,,,,,,AMSA01.jpg,AMNE02.jpg,AMNE07.jpg,AMSA17.jpg,AMSA01.jpg,MS,2,num_8,32,num_4,1.05006809301,,,2018_Mar_22_1704,59.9881478091,FEMA4ImagesEEG,001,103271,
AFNE01.JPG,AFNE01.JPG,AFNE01.JPG,AFNE01.JPG,AFNE01.JPG,AFNE01.JPG,,,,,1,8,18,5,,,,,,,,,,,,,,,,,,,AMNE11.jpg,AMNE03.jpg,AMSA04.jpg,AMSA03.jpg,AMNE03.jpg,MN,1,num_6,16,num_6,1.66670280334,,,2018_Mar_22_1704,59.9881478091,FEMA4ImagesEEG,001,103271,
AFNE01.JPG,AFNE01.JPG,AFNE01.JPG,AFNE01.JPG,AFNE01.JPG,AFNE01.JPG,,,,,1,9,19,4,,,,,,,,,,,,,,,,,,,AMSA06.jpg,AMNE13.jpg,AMSA09.jpg,AMNE08.jpg,AMNE13.jpg,MN,1,num_6,32,num_8,1.23341247049,,,2018_Mar_22_1704,59.9881478091,FEMA4ImagesEEG,001,103271,
AFNE01.JPG,AFNE01.JPG,AFNE01.JPG,AFNE01.JPG,AFNE01.JPG,AFNE01.JPG,,,,,2,0,20,8,,,,,,,,,,,,,,,,,,,AMNE09.jpg,AMSA12.jpg,AMNE14.jpg,AMSA18.jpg,AMSA12.jpg,MS,2,num_6,16,num_6,1.20009500306,,,2018_Mar_22_1704,59.9881478091,FEMA4ImagesEEG,001,103271,
AFNE01.JPG,AFNE01.JPG,AFNE01.JPG,AFNE01.JPG,AFNE01.JPG,AFNE01.JPG,,,,,2,1,21,2,,,,,,,,,,,,,,,,,,,AMSA19.jpg,AMNE05.jpg,AMNE01.jpg,AMSA03.jpg,AMNE01.jpg,MN,1,num_2,32,num_6,1.06673885445,,,2018_Mar_22_1704,59.9881478091,FEMA4ImagesEEG,001,103271,
AFNE01.JPG,AFNE01.JPG,AFNE01.JPG,AFNE01.JPG,AFNE01.JPG,AFNE01.JPG,,,,,2,2,22,1,,,,,,,,,,,,,,,,,,,AMNE15.jpg,AMSA15.jpg,AMNE17.jpg,AMSA06.jpg,AMSA06.jpg,MS,2,num_4,32,num_2,1.06678375801,,,2018_Mar_22_1704,59.9881478091,FEMA4ImagesEEG,001,103271,
AFNE01.JPG,AFNE01.JPG,AFNE01.JPG,AFNE01.JPG,AFNE01.JPG,AFNE01.JPG,,,,,2,3,23,6,,,,,,,,,,,,,,,,,,,AMNE17.jpg,AMNE19.jpg,AMSA17.jpg,AMSA15.jpg,AMNE17.jpg,MN,1,num_8,32,num_6,0.866762525053,,,2018_Mar_22_1704,59.9881478091,FEMA4ImagesEEG,001,103271,
AFNE01.JPG,AFNE01.JPG,AFNE01.JPG,AFNE01.JPG,AFNE01.JPG,AFNE01.JPG,,,,,2,4,24,4,,,,,,,,,,,,,,,,,,,AMNE13.jpg,AMSA05.jpg,AMNE04.jpg,AMSA02.jpg,AMNE13.jpg,MN,1,num_8,16,num_8,1.91703621215,,,2018_Mar_22_1704,59.9881478091,FEMA4ImagesEEG,001,103271,
AFNE01.JPG,AFNE01.JPG,AFNE01.JPG,AFNE01.JPG,AFNE01.JPG,AFNE01.JPG,,,,,2,5,25,9,,,,,,,,,,,,,,,,,,,AMSA13.jpg,AMNE13.jpg,AMNE09.jpg,AMSA01.jpg,AMSA01.jpg,MS,2,num_4,16,num_4,1.06683122746,,,2018_Mar_22_1704,59.9881478091,FEMA4ImagesEEG,001,103271,
AFNE01.JPG,AFNE01.JPG,AFNE01.JPG,AFNE01.JPG,AFNE01.JPG,AFNE01.JPG,,,,,2,6,26,5,,,,,,,,,,,,,,,,,,,AMSA11.jpg,AMSA09.jpg,AMNE06.jpg,AMNE03.jpg,AMNE06.jpg,MN,1,num_2,32,num_6,0.883469530061,,,2018_Mar_22_1704,59.9881478091,FEMA4ImagesEEG,001,103271,
AFNE01.JPG,AFNE01.JPG,AFNE01.JPG,AFNE01.JPG,AFNE01.JPG,AFNE01.JPG,,,,,2,7,27,3,,,,,,,,,,,,,,,,,,,AMSA20.jpg,AMSA14.jpg,AMNE01.jpg,AMNE08.jpg,AMNE08.jpg,MN,1,num_4,16,num_4,2.18333860415,,,2018_Mar_22_1704,59.9881478091,FEMA4ImagesEEG,001,103271,
AFNE01.JPG,AFNE01.JPG,AFNE01.JPG,AFNE01.JPG,AFNE01.JPG,AFNE01.JPG,,,,,2,8,28,7,,,,,,,,,,,,,,,,,,,AMNE13.jpg,AMSA15.jpg,AMNE01.jpg,AMSA10.jpg,AMNE13.jpg,MN,1,num_8,16,num_8,0.983444063342,,,2018_Mar_22_1704,59.9881478091,FEMA4ImagesEEG,001,103271,
AFNE01.JPG,AFNE01.JPG,AFNE01.JPG,AFNE01.JPG,AFNE01.JPG,AFNE01.JPG,,,,,2,9,29,0,,,,,,,,,,,,,,,,,,,AMNE12.jpg,AMNE01.jpg,AMSA10.jpg,AMSA20.jpg,AMNE01.jpg,MN,1,num_6,16,num_6,1.53341336855,,,2018_Mar_22_1704,59.9881478091,FEMA4ImagesEEG,001,103271,
AFNE01.JPG,AFNE01.JPG,AFNE01.JPG,AFNE01.JPG,AFNE01.JPG,AFNE01.JPG,,,,,3,0,30,3,,,,,,,,,,,,,,,,,,,AMSA17.jpg,AMNE19.jpg,AMSA04.jpg,AMNE09.jpg,AMSA04.jpg,MS,2,num_2,16,num_2,1.53338482273,,,2018_Mar_22_1704,59.9881478091,FEMA4ImagesEEG,001,103271,
AFNE01.JPG,AFNE01.JPG,AFNE01.JPG,AFNE01.JPG,AFNE01.JPG,AFNE01.JPG,,,,,3,1,31,8,,,,,,,,,,,,,,,,,,,AMNE14.jpg,AMNE03.jpg,AMSA08.jpg,AMSA09.jpg,AMSA08.jpg,MS,2,num_2,32,num_8,1.1501706014,,,2018_Mar_22_1704,59.9881478091,FEMA4ImagesEEG,001,103271,
AFNE01.JPG,AFNE01.JPG,AFNE01.JPG,AFNE01.JPG,AFNE01.JPG,AFNE01.JPG,,,,,3,2,32,2,,,,,,,,,,,,,,,,,,,AMNE18.jpg,AMNE05.jpg,AMSA18.jpg,AMSA09.jpg,AMNE05.jpg,MN,1,num_6,32,num_4,2.08312255396,,,2018_Mar_22_1704,59.9881478091,FEMA4ImagesEEG,001,103271,
AFNE01.JPG,AFNE01.JPG,AFNE01.JPG,AFNE01.JPG,AFNE01.JPG,AFNE01.JPG,,,,,3,3,33,7,,,,,,,,,,,,,,,,,,,AMNE20.jpg,AMSA13.jpg,AMNE11.jpg,AMSA07.jpg,AMNE20.jpg,MN,1,num_8,16,num_8,0.683496728772,,,2018_Mar_22_1704,59.9881478091,FEMA4ImagesEEG,001,103271,
AFNE01.JPG,AFNE01.JPG,AFNE01.JPG,AFNE01.JPG,AFNE01.JPG,AFNE01.JPG,,,,,3,4,34,5,,,,,,,,,,,,,,,,,,,AMNE07.jpg,AMNE14.jpg,AMSA19.jpg,AMSA20.jpg,AMNE07.jpg,MN,1,num_8,32,num_4,0.900141574457,,,2018_Mar_22_1704,59.9881478091,FEMA4ImagesEEG,001,103271,
AFNE01.JPG,AFNE01.JPG,AFNE01.JPG,AFNE01.JPG,AFNE01.JPG,AFNE01.JPG,,,,,3,5,35,9,,,,,,,,,,,,,,,,,,,AMSA08.jpg,AMNE05.jpg,AMNE09.jpg,AMSA14.jpg,AMSA14.jpg,MS,2,num_4,16,num_4,1.20035993398,,,2018_Mar_22_1704,59.9881478091,FEMA4ImagesEEG,001,103271,
AFNE01.JPG,AFNE01.JPG,AFNE01.JPG,AFNE01.JPG,AFNE01.JPG,AFNE01.JPG,,,,,3,6,36,4,,,,,,,,,,,,,,,,,,,AMNE11.jpg,AMNE02.jpg,AMSA10.jpg,AMSA13.jpg,AMSA13.jpg,MS,2,num_4,32,num_8,1.3166674899,,,2018_Mar_22_1704,59.9881478091,FEMA4ImagesEEG,001,103271,
AFNE01.JPG,AFNE01.JPG,AFNE01.JPG,AFNE01.JPG,AFNE01.JPG,AFNE01.JPG,,,,,3,7,37,1,,,,,,,,,,,,,,,,,,,AMSA17.jpg,AMSA05.jpg,AMNE02.jpg,AMNE18.jpg,AMNE02.jpg,MN,1,num_2,32,num_4,1.16683334435,,,2018_Mar_22_1704,59.9881478091,FEMA4ImagesEEG,001,103271,
AFNE01.JPG,AFNE01.JPG,AFNE01.JPG,AFNE01.JPG,AFNE01.JPG,AFNE01.JPG,,,,,3,8,38,0,,,,,,,,,,,,,,,,,,,AMNE11.jpg,AMSA16.jpg,AMNE14.jpg,AMSA02.jpg,AMSA02.jpg,MS,2,num_4,16,num_4,0.733512541236,,,2018_Mar_22_1704,59.9881478091,FEMA4ImagesEEG,001,103271,
AFNE01.JPG,AFNE01.JPG,AFNE01.JPG,AFNE01.JPG,AFNE01.JPG,AFNE01.JPG,,,,,3,9,39,6,,,,,,,,,,,,,,,,,,,AMSA14.jpg,AMNE20.jpg,AMSA01.jpg,AMNE14.jpg,AMNE14.jpg,MN,1,num_4,32,num_8,0.866772467969,,,2018_Mar_22_1704,59.9881478091,FEMA4ImagesEEG,001,103271,
AFNE01.JPG,AFNE01.JPG,AFNE01.JPG,AFNE01.JPG,AFNE01.JPG,AFNE01.JPG,,,,,4,0,40,2,,,,,,,,,,,,,,,,,,,AMNE01.jpg,AMSA17.jpg,AMSA01.jpg,AMNE06.jpg,AMNE06.jpg,MN,1,num_4,16,num_4,0.866834049972,,,2018_Mar_22_1704,59.9881478091,FEMA4ImagesEEG,001,103271,
AFNE01.JPG,AFNE01.JPG,AFNE01.JPG,AFNE01.JPG,AFNE01.JPG,AFNE01.JPG,,,,,4,1,41,5,,,,,,,,,,,,,,,,,,,AMSA20.jpg,AMNE19.jpg,AMNE02.jpg,AMSA10.jpg,AMNE19.jpg,MN,1,num_6,32,num_8,0.950005356353,,,2018_Mar_22_1704,59.9881478091,FEMA4ImagesEEG,001,103271,
AFNE01.JPG,AFNE01.JPG,AFNE01.JPG,AFNE01.JPG,AFNE01.JPG,AFNE01.JPG,,,,,4,2,42,8,,,,,,,,,,,,,,,,,,,AMNE14.jpg,AMNE12.jpg,AMSA18.jpg,AMSA12.jpg,AMSA18.jpg,MS,2,num_2,16,num_2,0.850134742708,,,2018_Mar_22_1704,59.9881478091,FEMA4ImagesEEG,001,103271,
AFNE01.JPG,AFNE01.JPG,AFNE01.JPG,AFNE01.JPG,AFNE01.JPG,AFNE01.JPG,,,,,4,3,43,7,,,,,,,,,,,,,,,,,,,AMNE15.jpg,AMSA10.jpg,AMNE07.jpg,AMSA11.jpg,AMSA10.jpg,MS,2,num_6,32,num_4,0.933300275763,,,2018_Mar_22_1704,59.9881478091,FEMA4ImagesEEG,001,103271,
AFNE01.JPG,AFNE01.JPG,AFNE01.JPG,AFNE01.JPG,AFNE01.JPG,AFNE01.JPG,,,,,4,4,44,3,,,,,,,,,,,,,,,,,,,AMSA13.jpg,AMSA04.jpg,AMNE07.jpg,AMNE06.jpg,AMSA13.jpg,MS,2,num_8,32,num_2,0.933508756512,,,2018_Mar_22_1704,59.9881478091,FEMA4ImagesEEG,001,103271,
AFNE01.JPG,AFNE01.JPG,AFNE01.JPG,AFNE01.JPG,AFNE01.JPG,AFNE01.JPG,,,,,4,5,45,4,,,,,,,,,,,,,,,,,,,AMSA09.jpg,AMNE19.jpg,AMNE08.jpg,AMSA20.jpg,AMNE19.jpg,MN,1,num_6,32,num_8,0.766933928287,,,2018_Mar_22_1704,59.9881478091,FEMA4ImagesEEG,001,103271,
AFNE01.JPG,AFNE01.JPG,AFNE01.JPG,AFNE01.JPG,AFNE01.JPG,AFNE01.JPG,,,,,4,6,46,0,,,,,,,,,,,,,,,,,,,AMNE06.jpg,AMSA15.jpg,AMNE04.jpg,AMSA17.jpg,AMSA17.jpg,MS,2,num_4,16,num_4,0.950124992232,,,2018_Mar_22_1704,59.9881478091,FEMA4ImagesEEG,001,103271,
AFNE01.JPG,AFNE01.JPG,AFNE01.JPG,AFNE01.JPG,AFNE01.JPG,AFNE01.JPG,,,,,4,7,47,9,,,,,,,,,,,,,,,,,,,AMSA17.jpg,AMNE16.jpg,AMSA02.jpg,AMNE02.jpg,AMNE02.jpg,MN,1,num_4,32,num_2,0.950130444806,,,2018_Mar_22_1704,59.9881478091,FEMA4ImagesEEG,001,103271,
AFNE01.JPG,AFNE01.JPG,AFNE01.JPG,AFNE01.JPG,AFNE01.JPG,AFNE01.JPG,,,,,4,8,48,6,,,,,,,,,,,,,,,,,,,AMNE15.jpg,AMNE02.jpg,AMSA20.jpg,AMSA11.jpg,AMNE15.jpg,MN,1,num_8,16,num_8,1.03349291197,,,2018_Mar_22_1704,59.9881478091,FEMA4ImagesEEG,001,103271,
AFNE01.JPG,AFNE01.JPG,AFNE01.JPG,AFNE01.JPG,AFNE01.JPG,AFNE01.JPG,,,,,4,9,49,1,,,,,,,,,,,,,,,,,,,AMSA09.jpg,AMSA11.jpg,AMNE15.jpg,AMNE04.jpg,AMNE15.jpg,MN,1,num_2,16,num_2,1.2001373407,,,2018_Mar_22_1704,59.9881478091,FEMA4ImagesEEG,001,103271,
AFNE01.JPG,AFNE01.JPG,AFNE01.JPG,AFNE01.JPG,AFNE01.JPG,AFNE01.JPG,,,,,5,0,50,6,,,,,,,,,,,,,,,,,,,AMSA12.jpg,AMSA19.jpg,AMNE08.jpg,AMNE18.jpg,AMSA19.jpg,MS,2,num_6,16,num_6,1.13341644766,,,2018_Mar_22_1704,59.9881478091,FEMA4ImagesEEG,001,103271,
AFNE01.JPG,AFNE01.JPG,AFNE01.JPG,AFNE01.JPG,AFNE01.JPG,AFNE01.JPG,,,,,5,1,51,1,,,,,,,,,,,,,,,,,,,AMSA14.jpg,AMNE13.jpg,AMNE19.jpg,AMSA01.jpg,AMNE13.jpg,MN,1,num_6,32,num_2,1.86667656683,,,2018_Mar_22_1704,59.9881478091,FEMA4ImagesEEG,001,103271,
AFNE01.JPG,AFNE01.JPG,AFNE01.JPG,AFNE01.JPG,AFNE01.JPG,AFNE01.JPG,,,,,5,2,52,3,,,,,,,,,,,,,,,,,,,AMSA12.jpg,AMNE11.jpg,AMSA06.jpg,AMNE13.jpg,AMSA12.jpg,MS,2,num_8,16,num_8,0.733417923053,,,2018_Mar_22_1704,59.9881478091,FEMA4ImagesEEG,001,103271,
AFNE01.JPG,AFNE01.JPG,AFNE01.JPG,AFNE01.JPG,AFNE01.JPG,AFNE01.JPG,,,,,5,3,53,8,,,,,,,,,,,,,,,,,,,AMSA02.jpg,AMNE08.jpg,AMSA16.jpg,AMNE03.jpg,AMSA16.jpg,MS,2,num_2,32,num_6,0.850118064249,,,2018_Mar_22_1704,59.9881478091,FEMA4ImagesEEG,001,103271,
AFNE01.JPG,AFNE01.JPG,AFNE01.JPG,AFNE01.JPG,AFNE01.JPG,AFNE01.JPG,,,,,5,4,54,4,,,,,,,,,,,,,,,,,,,AMNE01.jpg,AMSA18.jpg,AMSA11.jpg,AMNE02.jpg,AMNE02.jpg,MN,1,num_4,16,num_4,0.916798864841,,,2018_Mar_22_1704,59.9881478091,FEMA4ImagesEEG,001,103271,
AFNE01.JPG,AFNE01.JPG,AFNE01.JPG,AFNE01.JPG,AFNE01.JPG,AFNE01.JPG,,,,,5,5,55,9,,,,,,,,,,,,,,,,,,,AMNE06.jpg,AMSA07.jpg,AMNE08.jpg,AMSA11.jpg,AMNE06.jpg,MN,1,num_8,16,num_8,1.03343838624,,,2018_Mar_22_1704,59.9881478091,FEMA4ImagesEEG,001,103271,
AFNE01.JPG,AFNE01.JPG,AFNE01.JPG,AFNE01.JPG,AFNE01.JPG,AFNE01.JPG,,,,,5,6,56,2,,,,,,,,,,,,,,,,,,,AMSA06.jpg,AMNE14.jpg,AMSA14.jpg,AMNE20.jpg,AMNE20.jpg,MN,1,num_4,32,num_8,2.01674260711,,,2018_Mar_22_1704,59.9881478091,FEMA4ImagesEEG,001,103271,
AFNE01.JPG,AFNE01.JPG,AFNE01.JPG,AFNE01.JPG,AFNE01.JPG,AFNE01.JPG,,,,,5,7,57,7,,,,,,,,,,,,,,,,,,,AMSA10.jpg,AMNE09.jpg,AMNE16.jpg,AMSA16.jpg,AMSA10.jpg,MS,2,num_8,16,num_8,0.983462345495,,,2018_Mar_22_1704,59.9881478091,FEMA4ImagesEEG,001,103271,
AFNE01.JPG,AFNE01.JPG,AFNE01.JPG,AFNE01.JPG,AFNE01.JPG,AFNE01.JPG,,,,,5,8,58,5,,,,,,,,,,,,,,,,,,,AMSA05.jpg,AMNE04.jpg,AMNE13.jpg,AMSA14.jpg,AMSA05.jpg,MS,2,num_8,16,num_8,0.800145230896,,,2018_Mar_22_1704,59.9881478091,FEMA4ImagesEEG,001,103271,
AFNE01.JPG,AFNE01.JPG,AFNE01.JPG,AFNE01.JPG,AFNE01.JPG,AFNE01.JPG,,,,,5,9,59,0,,,,,,,,,,,,,,,,,,,AMSA06.jpg,AMSA12.jpg,AMNE11.jpg,AMNE14.jpg,AMNE11.jpg,MN,1,num_2,16,num_2,1.30019654923,,,2018_Mar_22_1704,59.9881478091,FEMA4ImagesEEG,001,103271,
,,,,,,,,,,,,,,,,,,,,,,,,,,,,,,,,,,,,,,,,,,,space,24.9644902774,2018_Mar_22_1704,59.9881478091,FEMA4ImagesEEG,001,103271,
AFNE01.JPG,AFNE01.JPG,AFNE01.JPG,AFNE01.JPG,AFNE01.JPG,AFNE01.JPG,,,,,,,,,0,0,0,1,,,,,,,,,,,,,,,AFNE18.jpg,AFNE17.jpg,AFSA12.jpg,AFSA01.jpg,AFSA12.jpg,FS,4,num_2,32,num_8,0.916762941997,,,2018_Mar_22_1704,59.9881478091,FEMA4ImagesEEG,001,103271,
AFNE01.JPG,AFNE01.JPG,AFNE01.JPG,AFNE01.JPG,AFNE01.JPG,AFNE01.JPG,,,,,,,,,0,1,1,4,,,,,,,,,,,,,,,AFSA19.jpg,AFSA05.jpg,AFNE09.jpg,AFNE20.jpg,AFSA05.jpg,FS,4,num_6,32,num_8,0.900150875896,,,2018_Mar_22_1704,59.9881478091,FEMA4ImagesEEG,001,103271,
AFNE01.JPG,AFNE01.JPG,AFNE01.JPG,AFNE01.JPG,AFNE01.JPG,AFNE01.JPG,,,,,,,,,0,2,2,2,,,,,,,,,,,,,,,AFNE13.jpg,AFSA16.jpg,AFNE05.jpg,AFSA09.jpg,AFSA09.jpg,FS,4,num_4,16,num_4,0.800153890857,,,2018_Mar_22_1704,59.9881478091,FEMA4ImagesEEG,001,103271,
AFNE01.JPG,AFNE01.JPG,AFNE01.JPG,AFNE01.JPG,AFNE01.JPG,AFNE01.JPG,,,,,,,,,0,3,3,8,,,,,,,,,,,,,,,AFNE13.jpg,AFSA03.jpg,AFNE11.jpg,AFSA12.jpg,AFSA03.jpg,FS,4,num_6,32,num_2,1.60009898024,,,2018_Mar_22_1704,59.9881478091,FEMA4ImagesEEG,001,103271,
AFNE01.JPG,AFNE01.JPG,AFNE01.JPG,AFNE01.JPG,AFNE01.JPG,AFNE01.JPG,,,,,,,,,0,4,4,6,,,,,,,,,,,,,,,AFNE14.jpg,AFSA12.jpg,AFSA06.jpg,AFNE19.jpg,AFSA06.jpg,FS,4,num_2,32,num_8,0.800174418197,,,2018_Mar_22_1704,59.9881478091,FEMA4ImagesEEG,001,103271,
AFNE01.JPG,AFNE01.JPG,AFNE01.JPG,AFNE01.JPG,AFNE01.JPG,AFNE01.JPG,,,,,,,,,0,5,5,5,,,,,,,,,,,,,,,AFSA06.jpg,AFNE20.jpg,AFSA17.jpg,AFNE09.jpg,AFNE20.jpg,FN,3,num_6,16,num_6,1.68336811219,,,2018_Mar_22_1704,59.9881478091,FEMA4ImagesEEG,001,103271,
AFNE01.JPG,AFNE01.JPG,AFNE01.JPG,AFNE01.JPG,AFNE01.JPG,AFNE01.JPG,,,,,,,,,0,6,6,3,,,,,,,,,,,,,,,AFSA18.jpg,AFSA04.jpg,AFNE14.jpg,AFNE13.jpg,AFSA04.jpg,FS,4,num_6,16,num_6,1.05011267583,,,2018_Mar_22_1704,59.9881478091,FEMA4ImagesEEG,001,103271,
AFNE01.JPG,AFNE01.JPG,AFNE01.JPG,AFNE01.JPG,AFNE01.JPG,AFNE01.JPG,,,,,,,,,0,7,7,9,,,,,,,,,,,,,,,AFSA17.jpg,AFNE14.jpg,AFNE13.jpg,AFSA08.jpg,AFNE13.jpg,FN,3,num_2,32,num_8,0.80015196641,,,2018_Mar_22_1704,59.9881478091,FEMA4ImagesEEG,001,103271,
AFNE01.JPG,AFNE01.JPG,AFNE01.JPG,AFNE01.JPG,AFNE01.JPG,AFNE01.JPG,,,,,,,,,0,8,8,0,,,,,,,,,,,,,,,AFNE14.jpg,AFNE13.jpg,AFSA08.jpg,AFSA17.jpg,AFSA08.jpg,FS,4,num_2,16,num_2,0.966770735977,,,2018_Mar_22_1704,59.9881478091,FEMA4ImagesEEG,001,103271,
AFNE01.JPG,AFNE01.JPG,AFNE01.JPG,AFNE01.JPG,AFNE01.JPG,AFNE01.JPG,,,,,,,,,0,9,9,7,,,,,,,,,,,,,,,AFSA05.jpg,AFNE06.jpg,AFNE08.jpg,AFSA02.jpg,AFSA05.jpg,FS,4,num_8,16,num_8,0.616680896812,,,2018_Mar_22_1704,59.9881478091,FEMA4ImagesEEG,001,103271,
AFNE01.JPG,AFNE01.JPG,AFNE01.JPG,AFNE01.JPG,AFNE01.JPG,AFNE01.JPG,,,,,,,,,1,0,10,9,,,,,,,,,,,,,,,AFSA02.jpg,AFSA03.jpg,AFNE12.jpg,AFNE03.jpg,AFSA02.jpg,FS,4,num_8,32,num_6,1.24979713222,,,2018_Mar_22_1704,59.9881478091,FEMA4ImagesEEG,001,103271,
AFNE01.JPG,AFNE01.JPG,AFNE01.JPG,AFNE01.JPG,AFNE01.JPG,AFNE01.JPG,,,,,,,,,1,1,11,0,,,,,,,,,,,,,,,AFSA09.jpg,AFNE06.jpg,AFNE07.jpg,AFSA16.jpg,AFNE06.jpg,FN,3,num_6,32,num_2,1.25015251167,,,2018_Mar_22_1704,59.9881478091,FEMA4ImagesEEG,001,103271,
AFNE01.JPG,AFNE01.JPG,AFNE01.JPG,AFNE01.JPG,AFNE01.JPG,AFNE01.JPG,,,,,,,,,1,2,12,2,,,,,,,,,,,,,,,AFNE09.jpg,AFNE20.jpg,AFSA13.jpg,AFSA03.jpg,AFSA03.jpg,FS,4,num_4,16,num_4,0.750129739172,,,2018_Mar_22_1704,59.9881478091,FEMA4ImagesEEG,001,103271,
AFNE01.JPG,AFNE01.JPG,AFNE01.JPG,AFNE01.JPG,AFNE01.JPG,AFNE01.JPG,,,,,,,,,1,3,13,4,,,,,,,,,,,,,,,AFNE05.jpg,AFSA01.jpg,AFNE20.jpg,AFSA14.jpg,AFNE05.jpg,FN,3,num_8,32,num_6,2.36664802101,,,2018_Mar_22_1704,59.9881478091,FEMA4ImagesEEG,001,103271,
AFNE01.JPG,AFNE01.JPG,AFNE01.JPG,AFNE01.JPG,AFNE01.JPG,AFNE01.JPG,,,,,,,,,1,4,14,6,,,,,,,,,,,,,,,AFSA09.jpg,AFNE06.jpg,AFNE09.jpg,AFSA01.jpg,AFSA01.jpg,FS,4,num_4,16,num_4,1.35010074431,,,2018_Mar_22_1704,59.9881478091,FEMA4ImagesEEG,001,103271,
AFNE01.JPG,AFNE01.JPG,AFNE01.JPG,AFNE01.JPG,AFNE01.JPG,AFNE01.JPG,,,,,,,,,1,5,15,1,,,,,,,,,,,,,,,AFSA04.jpg,AFSA05.jpg,AFNE05.jpg,AFNE20.jpg,AFSA05.jpg,FS,4,num_6,32,num_2,1.95084954299,,,2018_Mar_22_1704,59.9881478091,FEMA4ImagesEEG,001,103271,
AFNE01.JPG,AFNE01.JPG,AFNE01.JPG,AFNE01.JPG,AFNE01.JPG,AFNE01.JPG,,,,,,,,,1,6,16,5,,,,,,,,,,,,,,,AFNE09.jpg,AFSA06.jpg,AFNE13.jpg,AFSA15.jpg,AFSA15.jpg,FS,4,num_4,16,num_4,0.983541247435,,,2018_Mar_22_1704,59.9881478091,FEMA4ImagesEEG,001,103271,
AFNE01.JPG,AFNE01.JPG,AFNE01.JPG,AFNE01.JPG,AFNE01.JPG,AFNE01.JPG,,,,,,,,,1,7,17,3,,,,,,,,,,,,,,,AFNE14.jpg,AFSA20.jpg,AFSA12.jpg,AFNE12.jpg,AFSA20.jpg,FS,4,num_6,16,num_6,2.71649890917,,,2018_Mar_22_1704,59.9881478091,FEMA4ImagesEEG,001,103271,
AFNE01.JPG,AFNE01.JPG,AFNE01.JPG,AFNE01.JPG,AFNE01.JPG,AFNE01.JPG,,,,,,,,,1,8,18,8,,,,,,,,,,,,,,,AFNE09.jpg,AFNE05.jpg,AFSA09.jpg,AFSA20.jpg,AFSA20.jpg,FS,4,num_4,32,num_8,2.01670668428,,,2018_Mar_22_1704,59.9881478091,FEMA4ImagesEEG,001,103271,
AFNE01.JPG,AFNE01.JPG,AFNE01.JPG,AFNE01.JPG,AFNE01.JPG,AFNE01.JPG,,,,,,,,,1,9,19,7,,,,,,,,,,,,,,,AFNE13.jpg,AFSA04.jpg,AFNE02.jpg,AFSA12.jpg,AFNE13.jpg,FN,3,num_8,32,num_4,2.53318564345,,,2018_Mar_22_1704,59.9881478091,FEMA4ImagesEEG,001,103271,
AFNE01.JPG,AFNE01.JPG,AFNE01.JPG,AFNE01.JPG,AFNE01.JPG,AFNE01.JPG,,,,,,,,,2,0,20,0,,,,,,,,,,,,,,,AFNE19.jpg,AFSA12.jpg,AFSA09.jpg,AFNE03.jpg,AFSA12.jpg,FS,4,num_6,16,num_6,0.600175316271,,,2018_Mar_22_1704,59.9881478091,FEMA4ImagesEEG,001,103271,
AFNE01.JPG,AFNE01.JPG,AFNE01.JPG,AFNE01.JPG,AFNE01.JPG,AFNE01.JPG,,,,,,,,,2,1,21,6,,,,,,,,,,,,,,,AFNE14.jpg,AFSA20.jpg,AFSA01.jpg,AFNE19.jpg,AFSA01.jpg,FS,4,num_2,16,num_2,1.00012893733,,,2018_Mar_22_1704,59.9881478091,FEMA4ImagesEEG,001,103271,
AFNE01.JPG,AFNE01.JPG,AFNE01.JPG,AFNE01.JPG,AFNE01.JPG,AFNE01.JPG,,,,,,,,,2,2,22,4,,,,,,,,,,,,,,,AFSA04.jpg,AFNE14.jpg,AFNE04.jpg,AFSA06.jpg,AFSA04.jpg,FS,4,num_8,16,num_8,0.933481814398,,,2018_Mar_22_1704,59.9881478091,FEMA4ImagesEEG,001,103271,
AFNE01.JPG,AFNE01.JPG,AFNE01.JPG,AFNE01.JPG,AFNE01.JPG,AFNE01.JPG,,,,,,,,,2,3,23,5,,,,,,,,,,,,,,,AFNE11.jpg,AFNE09.jpg,AFSA10.jpg,AFSA06.jpg,AFNE09.jpg,FN,3,num_6,32,num_4,0.95010895525,,,2018_Mar_22_1704,59.9881478091,FEMA4ImagesEEG,001,103271,
AFNE01.JPG,AFNE01.JPG,AFNE01.JPG,AFNE01.JPG,AFNE01.JPG,AFNE01.JPG,,,,,,,,,2,4,24,1,,,,,,,,,,,,,,,AFNE03.jpg,AFNE02.jpg,AFSA04.jpg,AFSA10.jpg,AFNE02.jpg,FN,3,num_6,16,num_6,1.5667253834,,,2018_Mar_22_1704,59.9881478091,FEMA4ImagesEEG,001,103271,
AFNE01.JPG,AFNE01.JPG,AFNE01.JPG,AFNE01.JPG,AFNE01.JPG,AFNE01.JPG,,,,,,,,,2,5,25,3,,,,,,,,,,,,,,,AFSA10.jpg,AFSA17.jpg,AFNE03.jpg,AFNE19.jpg,AFSA17.jpg,FS,4,num_6,32,num_8,0.916931009546,,,2018_Mar_22_1704,59.9881478091,FEMA4ImagesEEG,001,103271,
AFNE01.JPG,AFNE01.JPG,AFNE01.JPG,AFNE01.JPG,AFNE01.JPG,AFNE01.JPG,,,,,,,,,2,6,26,8,,,,,,,,,,,,,,,AFNE03.jpg,AFSA19.jpg,AFSA12.jpg,AFNE18.jpg,AFSA19.jpg,FS,4,num_6,32,num_4,0.966882674096,,,2018_Mar_22_1704,59.9881478091,FEMA4ImagesEEG,001,103271,
AFNE01.JPG,AFNE01.JPG,AFNE01.JPG,AFNE01.JPG,AFNE01.JPG,AFNE01.JPG,,,,,,,,,2,7,27,2,,,,,,,,,,,,,,,AFSA09.jpg,AFNE17.jpg,AFSA16.jpg,AFNE06.jpg,AFNE06.jpg,FN,3,num_4,16,num_4,1.73335954845,,,2018_Mar_22_1704,59.9881478091,FEMA4ImagesEEG,001,103271,
AFNE01.JPG,AFNE01.JPG,AFNE01.JPG,AFNE01.JPG,AFNE01.JPG,AFNE01.JPG,,,,,,,,,2,8,28,7,,,,,,,,,,,,,,,AFNE15.jpg,AFNE14.jpg,AFSA07.jpg,AFSA16.jpg,AFNE14.jpg,FN,3,num_6,32,num_4,1.26679921766,,,2018_Mar_22_1704,59.9881478091,FEMA4ImagesEEG,001,103271,
AFNE01.JPG,AFNE01.JPG,AFNE01.JPG,AFNE01.JPG,AFNE01.JPG,AFNE01.JPG,,,,,,,,,2,9,29,9,,,,,,,,,,,,,,,AFNE15.jpg,AFNE02.jpg,AFSA16.jpg,AFSA12.jpg,AFNE15.jpg,FN,3,num_8,32,num_6,0.883533677974,,,2018_Mar_22_1704,59.9881478091,FEMA4ImagesEEG,001,103271,
AFNE01.JPG,AFNE01.JPG,AFNE01.JPG,AFNE01.JPG,AFNE01.JPG,AFNE01.JPG,,,,,,,,,3,0,30,0,,,,,,,,,,,,,,,AFNE20.jpg,AFSA15.jpg,AFNE12.jpg,AFSA05.jpg,AFSA15.jpg,FS,4,num_6,32,num_4,0.950161877277,,,2018_Mar_22_1704,59.9881478091,FEMA4ImagesEEG,001,103271,
AFNE01.JPG,AFNE01.JPG,AFNE01.JPG,AFNE01.JPG,AFNE01.JPG,AFNE01.JPG,,,,,,,,,3,1,31,9,,,,,,,,,,,,,,,AFNE14.jpg,AFSA10.jpg,AFSA03.jpg,AFNE15.jpg,AFSA03.jpg,FS,4,num_2,32,num_4,0.916916255534,,,2018_Mar_22_1704,59.9881478091,FEMA4ImagesEEG,001,103271,
AFNE01.JPG,AFNE01.JPG,AFNE01.JPG,AFNE01.JPG,AFNE01.JPG,AFNE01.JPG,,,,,,,,,3,2,32,7,,,,,,,,,,,,,,,AFSA06.jpg,AFNE17.jpg,AFSA12.jpg,AFNE18.jpg,AFNE18.jpg,FN,3,num_4,32,num_6,1.71658230145,,,2018_Mar_22_1704,59.9881478091,FEMA4ImagesEEG,001,103271,
AFNE01.JPG,AFNE01.JPG,AFNE01.JPG,AFNE01.JPG,AFNE01.JPG,AFNE01.JPG,,,,,,,,,3,3,33,8,,,,,,,,,,,,,,,AFNE13.jpg,AFSA08.jpg,AFSA11.jpg,AFNE06.jpg,AFSA08.jpg,FS,4,num_6,32,num_4,0.883455417512,,,2018_Mar_22_1704,59.9881478091,FEMA4ImagesEEG,001,103271,
AFNE01.JPG,AFNE01.JPG,AFNE01.JPG,AFNE01.JPG,AFNE01.JPG,AFNE01.JPG,,,,,,,,,3,4,34,1,,,,,,,,,,,,,,,AFNE13.jpg,AFSA06.jpg,AFSA07.jpg,AFNE06.jpg,AFNE13.jpg,FN,3,num_8,16,num_8,0.750151228713,,,2018_Mar_22_1704,59.9881478091,FEMA4ImagesEEG,001,103271,
AFNE01.JPG,AFNE01.JPG,AFNE01.JPG,AFNE01.JPG,AFNE01.JPG,AFNE01.JPG,,,,,,,,,3,5,35,4,,,,,,,,,,,,,,,AFSA08.jpg,AFSA05.jpg,AFNE05.jpg,AFNE07.jpg,AFSA08.jpg,FS,4,num_8,32,num_2,0.933496247671,,,2018_Mar_22_1704,59.9881478091,FEMA4ImagesEEG,001,103271,
AFNE01.JPG,AFNE01.JPG,AFNE01.JPG,AFNE01.JPG,AFNE01.JPG,AFNE01.JPG,,,,,,,,,3,6,36,5,,,,,,,,,,,,,,,AFNE14.jpg,AFSA04.jpg,AFSA01.jpg,AFNE15.jpg,AFNE15.jpg,FN,3,num_4,32,num_8,0.850143402684,,,2018_Mar_22_1704,59.9881478091,FEMA4ImagesEEG,001,103271,
AFNE01.JPG,AFNE01.JPG,AFNE01.JPG,AFNE01.JPG,AFNE01.JPG,AFNE01.JPG,,,,,,,,,3,7,37,3,,,,,,,,,,,,,,,AFNE20.jpg,AFSA11.jpg,AFSA16.jpg,AFNE09.jpg,AFNE09.jpg,FN,3,num_4,32,num_8,0.833492847829,,,2018_Mar_22_1704,59.9881478091,FEMA4ImagesEEG,001,103271,
AFNE01.JPG,AFNE01.JPG,AFNE01.JPG,AFNE01.JPG,AFNE01.JPG,AFNE01.JPG,,,,,,,,,3,8,38,2,,,,,,,,,,,,,,,AFNE13.jpg,AFSA02.jpg,AFNE08.jpg,AFSA06.jpg,AFSA06.jpg,FS,4,num_4,32,num_6,0.866839823284,,,2018_Mar_22_1704,59.9881478091,FEMA4ImagesEEG,001,103271,
AFNE01.JPG,AFNE01.JPG,AFNE01.JPG,AFNE01.JPG,AFNE01.JPG,AFNE01.JPG,,,,,,,,,3,9,39,6,,,,,,,,,,,,,,,AFNE14.jpg,AFSA05.jpg,AFNE07.jpg,AFSA03.jpg,AFNE14.jpg,FN,3,num_8,16,num_8,1.55004435829,,,2018_Mar_22_1704,59.9881478091,FEMA4ImagesEEG,001,103271,
AFNE01.JPG,AFNE01.JPG,AFNE01.JPG,AFNE01.JPG,AFNE01.JPG,AFNE01.JPG,,,,,,,,,4,0,40,3,,,,,,,,,,,,,,,AFNE19.jpg,AFSA14.jpg,AFSA13.jpg,AFNE11.jpg,AFSA13.jpg,FS,4,num_2,16,num_2,1.11673317736,,,2018_Mar_22_1704,59.9881478091,FEMA4ImagesEEG,001,103271,
AFNE01.JPG,AFNE01.JPG,AFNE01.JPG,AFNE01.JPG,AFNE01.JPG,AFNE01.JPG,,,,,,,,,4,1,41,6,,,,,,,,,,,,,,,AFSA02.jpg,AFNE03.jpg,AFSA13.jpg,AFNE19.jpg,AFNE03.jpg,FN,3,num_6,32,num_4,0.966767849313,,,2018_Mar_22_1704,59.9881478091,FEMA4ImagesEEG,001,103271,
AFNE01.JPG,AFNE01.JPG,AFNE01.JPG,AFNE01.JPG,AFNE01.JPG,AFNE01.JPG,,,,,,,,,4,2,42,4,,,,,,,,,,,,,,,AFNE19.jpg,AFNE05.jpg,AFSA13.jpg,AFSA10.jpg,AFSA13.jpg,FS,4,num_2,16,num_2,0.73347565619,,,2018_Mar_22_1704,59.9881478091,FEMA4ImagesEEG,001,103271,
AFNE01.JPG,AFNE01.JPG,AFNE01.JPG,AFNE01.JPG,AFNE01.JPG,AFNE01.JPG,,,,,,,,,4,3,43,1,,,,,,,,,,,,,,,AFNE01.jpg,AFSA20.jpg,AFSA15.jpg,AFNE16.jpg,AFNE16.jpg,FN,3,num_4,32,num_6,1.13339912771,,,2018_Mar_22_1704,59.9881478091,FEMA4ImagesEEG,001,103271,
AFNE01.JPG,AFNE01.JPG,AFNE01.JPG,AFNE01.JPG,AFNE01.JPG,AFNE01.JPG,,,,,,,,,4,4,44,2,,,,,,,,,,,,,,,AFNE17.jpg,AFSA16.jpg,AFNE15.jpg,AFSA14.jpg,AFSA14.jpg,FS,4,num_4,32,num_8,1.38349935884,,,2018_Mar_22_1704,59.9881478091,FEMA4ImagesEEG,001,103271,
AFNE01.JPG,AFNE01.JPG,AFNE01.JPG,AFNE01.JPG,AFNE01.JPG,AFNE01.JPG,,,,,,,,,4,5,45,9,,,,,,,,,,,,,,,AFSA14.jpg,AFNE20.jpg,AFSA03.jpg,AFNE01.jpg,AFSA03.jpg,FS,4,num_2,32,num_4,1.11670687672,,,2018_Mar_22_1704,59.9881478091,FEMA4ImagesEEG,001,103271,
AFNE01.JPG,AFNE01.JPG,AFNE01.JPG,AFNE01.JPG,AFNE01.JPG,AFNE01.JPG,,,,,,,,,4,6,46,7,,,,,,,,,,,,,,,AFNE10.jpg,AFSA12.jpg,AFNE13.jpg,AFSA01.jpg,AFNE13.jpg,FN,3,num_2,16,num_2,0.75015315316,,,2018_Mar_22_1704,59.9881478091,FEMA4ImagesEEG,001,103271,
AFNE01.JPG,AFNE01.JPG,AFNE01.JPG,AFNE01.JPG,AFNE01.JPG,AFNE01.JPG,,,,,,,,,4,7,47,0,,,,,,,,,,,,,,,AFNE10.jpg,AFSA09.jpg,AFNE06.jpg,AFSA08.jpg,AFNE06.jpg,FN,3,num_2,32,num_8,1.21673689796,,,2018_Mar_22_1704,59.9881478091,FEMA4ImagesEEG,001,103271,
AFNE01.JPG,AFNE01.JPG,AFNE01.JPG,AFNE01.JPG,AFNE01.JPG,AFNE01.JPG,,,,,,,,,4,8,48,8,,,,,,,,,,,,,,,AFSA16.jpg,AFSA14.jpg,AFNE16.jpg,AFNE08.jpg,AFNE16.jpg,FN,3,num_2,32,num_8,0.933471871467,,,2018_Mar_22_1704,59.9881478091,FEMA4ImagesEEG,001,103271,
AFNE01.JPG,AFNE01.JPG,AFNE01.JPG,AFNE01.JPG,AFNE01.JPG,AFNE01.JPG,,,,,,,,,4,9,49,5,,,,,,,,,,,,,,,AFNE19.jpg,AFSA09.jpg,AFSA17.jpg,AFNE03.jpg,AFNE19.jpg,FN,3,num_8,32,num_4,1.46676464193,,,2018_Mar_22_1704,59.9881478091,FEMA4ImagesEEG,001,103271,
AFNE01.JPG,AFNE01.JPG,AFNE01.JPG,AFNE01.JPG,AFNE01.JPG,AFNE01.JPG,,,,,,,,,5,0,50,0,,,,,,,,,,,,,,,AFSA11.jpg,AFNE20.jpg,AFNE01.jpg,AFSA03.jpg,AFSA03.jpg,FS,4,num_4,16,num_4,1.06678311653,,,2018_Mar_22_1704,59.9881478091,FEMA4ImagesEEG,001,103271,
AFNE01.JPG,AFNE01.JPG,AFNE01.JPG,AFNE01.JPG,AFNE01.JPG,AFNE01.JPG,,,,,,,,,5,1,51,7,,,,,,,,,,,,,,,AFNE01.jpg,AFSA05.jpg,AFNE20.jpg,AFSA20.jpg,AFSA05.jpg,FS,4,num_6,32,num_8,1.30023824537,,,2018_Mar_22_1704,59.9881478091,FEMA4ImagesEEG,001,103271,
AFNE01.JPG,AFNE01.JPG,AFNE01.JPG,AFNE01.JPG,AFNE01.JPG,AFNE01.JPG,,,,,,,,,5,2,52,3,,,,,,,,,,,,,,,AFSA14.jpg,AFNE12.jpg,AFNE01.jpg,AFSA16.jpg,AFNE01.jpg,FN,3,num_2,32,num_8,0.800215152121,,,2018_Mar_22_1704,59.9881478091,FEMA4ImagesEEG,001,103271,
AFNE01.JPG,AFNE01.JPG,AFNE01.JPG,AFNE01.JPG,AFNE01.JPG,AFNE01.JPG,,,,,,,,,5,3,53,9,,,,,,,,,,,,,,,AFSA17.jpg,AFNE03.jpg,AFNE07.jpg,AFSA11.jpg,AFSA11.jpg,FS,4,num_4,16,num_4,0.850126403471,,,2018_Mar_22_1704,59.9881478091,FEMA4ImagesEEG,001,103271,
AFNE01.JPG,AFNE01.JPG,AFNE01.JPG,AFNE01.JPG,AFNE01.JPG,AFNE01.JPG,,,,,,,,,5,4,54,6,,,,,,,,,,,,,,,AFNE15.jpg,AFSA12.jpg,AFNE06.jpg,AFSA16.jpg,AFSA16.jpg,FS,4,num_4,32,num_6,2.34984992594,,,2018_Mar_22_1704,59.9881478091,FEMA4ImagesEEG,001,103271,
AFNE01.JPG,AFNE01.JPG,AFNE01.JPG,AFNE01.JPG,AFNE01.JPG,AFNE01.JPG,,,,,,,,,5,5,55,2,,,,,,,,,,,,,,,AFSA03.jpg,AFSA18.jpg,AFNE11.jpg,AFNE10.jpg,AFNE10.jpg,FN,3,num_4,16,num_4,0.816801879788,,,2018_Mar_22_1704,59.9881478091,FEMA4ImagesEEG,001,103271,
AFNE01.JPG,AFNE01.JPG,AFNE01.JPG,AFNE01.JPG,AFNE01.JPG,AFNE01.JPG,,,,,,,,,5,6,56,8,,,,,,,,,,,,,,,AFSA19.jpg,AFNE14.jpg,AFSA07.jpg,AFNE17.jpg,AFNE14.jpg,FN,3,num_6,32,num_2,1.30012085469,,,2018_Mar_22_1704,59.9881478091,FEMA4ImagesEEG,001,103271,
AFNE01.JPG,AFNE01.JPG,AFNE01.JPG,AFNE01.JPG,AFNE01.JPG,AFNE01.JPG,,,,,,,,,5,7,57,1,,,,,,,,,,,,,,,AFSA05.jpg,AFNE04.jpg,AFNE15.jpg,AFSA07.jpg,AFSA07.jpg,FS,4,num_4,16,num_4,0.833481621943,,,2018_Mar_22_1704,59.9881478091,FEMA4ImagesEEG,001,103271,
AFNE01.JPG,AFNE01.JPG,AFNE01.JPG,AFNE01.JPG,AFNE01.JPG,AFNE01.JPG,,,,,,,,,5,8,58,5,,,,,,,,,,,,,,,AFNE09.jpg,AFSA09.jpg,AFSA14.jpg,AFNE15.jpg,AFSA14.jpg,FS,4,num_2,32,num_6,0.983473571367,,,2018_Mar_22_1704,59.9881478091,FEMA4ImagesEEG,001,103271,
AFNE01.JPG,AFNE01.JPG,AFNE01.JPG,AFNE01.JPG,AFNE01.JPG,AFNE01.JPG,,,,,,,,,5,9,59,4,,,,,,,,,,,,,,,AFNE16.jpg,AFNE07.jpg,AFSA09.jpg,AFSA08.jpg,AFSA09.jpg,FS,4,num_2,16,num_2,1.73340413126,,,2018_Mar_22_1704,59.9881478091,FEMA4ImagesEEG,001,103271,
,,,,,,,,,,,,,,,,,,,,,,,,,,,,,,,,,,,,,,,,,,,space,25.8645468559,2018_Mar_22_1704,59.9881478091,FEMA4ImagesEEG,001,103271,
AFNE01.JPG,AFNE01.JPG,AFNE01.JPG,AFNE01.JPG,AFNE01.JPG,AFNE01.JPG,,,,,,,,,,,,,0,0,0,5,,,,,,,,,,,AMNE19.jpg,AMNE06.jpg,AMSA06.jpg,AMSA02.jpg,AMNE06.jpg,MN,1,num_6,32,num_8,1.00021329183,,,2018_Mar_22_1704,59.9881478091,FEMA4ImagesEEG,001,103271,
AFNE01.JPG,AFNE01.JPG,AFNE01.JPG,AFNE01.JPG,AFNE01.JPG,AFNE01.JPG,,,,,,,,,,,,,0,1,1,4,,,,,,,,,,,AMSA13.jpg,AMNE01.jpg,AMSA15.jpg,AMNE13.jpg,AMNE01.jpg,MN,1,num_6,16,num_6,0.850117422771,,,2018_Mar_22_1704,59.9881478091,FEMA4ImagesEEG,001,103271,
AFNE01.JPG,AFNE01.JPG,AFNE01.JPG,AFNE01.JPG,AFNE01.JPG,AFNE01.JPG,,,,,,,,,,,,,0,2,2,2,,,,,,,,,,,AMNE15.jpg,AMSA13.jpg,AMSA10.jpg,AMNE18.jpg,AMSA10.jpg,MS,2,num_2,32,num_8,1.45009388048,,,2018_Mar_22_1704,59.9881478091,FEMA4ImagesEEG,001,103271,
AFNE01.JPG,AFNE01.JPG,AFNE01.JPG,AFNE01.JPG,AFNE01.JPG,AFNE01.JPG,,,,,,,,,,,,,0,3,3,8,,,,,,,,,,,AMNE20.jpg,AMNE17.jpg,AMSA18.jpg,AMSA04.jpg,AMSA18.jpg,MS,2,num_2,32,num_8,1.71674427495,,,2018_Mar_22_1704,59.9881478091,FEMA4ImagesEEG,001,103271,
AFNE01.JPG,AFNE01.JPG,AFNE01.JPG,AFNE01.JPG,AFNE01.JPG,AFNE01.JPG,,,,,,,,,,,,,0,4,4,1,,,,,,,,,,,AMNE09.jpg,AMSA10.jpg,AMNE18.jpg,AMSA13.jpg,AMSA13.jpg,MS,2,num_4,16,num_4,1.85012127165,,,2018_Mar_22_1704,59.9881478091,FEMA4ImagesEEG,001,103271,
AFNE01.JPG,AFNE01.JPG,AFNE01.JPG,AFNE01.JPG,AFNE01.JPG,AFNE01.JPG,,,,,,,,,,,,,0,5,5,7,,,,,,,,,,,AMNE13.jpg,AMNE16.jpg,AMSA20.jpg,AMSA03.jpg,AMSA03.jpg,MS,2,num_4,16,num_4,1.85001414461,,,2018_Mar_22_1704,59.9881478091,FEMA4ImagesEEG,001,103271,
AFNE01.JPG,AFNE01.JPG,AFNE01.JPG,AFNE01.JPG,AFNE01.JPG,AFNE01.JPG,,,,,,,,,,,,,0,6,6,3,,,,,,,,,,,AMNE07.jpg,AMSA03.jpg,AMNE04.jpg,AMSA07.jpg,AMNE04.jpg,MN,1,num_2,16,num_2,1.26679216138,,,2018_Mar_22_1704,59.9881478091,FEMA4ImagesEEG,001,103271,
AFNE01.JPG,AFNE01.JPG,AFNE01.JPG,AFNE01.JPG,AFNE01.JPG,AFNE01.JPG,,,,,,,,,,,,,0,7,7,0,,,,,,,,,,,AMNE04.jpg,AMSA03.jpg,AMSA01.jpg,AMNE01.jpg,AMSA01.jpg,MS,2,num_2,16,num_2,1.11678385422,,,2018_Mar_22_1704,59.9881478091,FEMA4ImagesEEG,001,103271,
AFNE01.JPG,AFNE01.JPG,AFNE01.JPG,AFNE01.JPG,AFNE01.JPG,AFNE01.JPG,,,,,,,,,,,,,0,8,8,9,,,,,,,,,,,AMNE01.jpg,AMSA06.jpg,AMNE08.jpg,AMSA01.jpg,AMNE01.jpg,MN,1,num_8,32,num_4,1.08344650095,,,2018_Mar_22_1704,59.9881478091,FEMA4ImagesEEG,001,103271,
AFNE01.JPG,AFNE01.JPG,AFNE01.JPG,AFNE01.JPG,AFNE01.JPG,AFNE01.JPG,,,,,,,,,,,,,0,9,9,6,,,,,,,,,,,AMNE12.jpg,AMSA18.jpg,AMNE19.jpg,AMSA08.jpg,AMSA18.jpg,MS,2,num_6,32,num_8,1.25010375926,,,2018_Mar_22_1704,59.9881478091,FEMA4ImagesEEG,001,103271,
AFNE01.JPG,AFNE01.JPG,AFNE01.JPG,AFNE01.JPG,AFNE01.JPG,AFNE01.JPG,,,,,,,,,,,,,1,0,10,6,,,,,,,,,,,AMSA10.jpg,AMSA04.jpg,AMNE17.jpg,AMNE13.jpg,AMNE13.jpg,MN,1,num_4,32,num_8,0.833758420224,,,2018_Mar_22_1704,59.9881478091,FEMA4ImagesEEG,001,103271,
AFNE01.JPG,AFNE01.JPG,AFNE01.JPG,AFNE01.JPG,AFNE01.JPG,AFNE01.JPG,,,,,,,,,,,,,1,1,11,2,,,,,,,,,,,AMNE15.jpg,AMSA09.jpg,AMSA14.jpg,AMNE12.jpg,AMSA09.jpg,MS,2,num_6,32,num_4,0.983448553699,,,2018_Mar_22_1704,59.9881478091,FEMA4ImagesEEG,001,103271,
AFNE01.JPG,AFNE01.JPG,AFNE01.JPG,AFNE01.JPG,AFNE01.JPG,AFNE01.JPG,,,,,,,,,,,,,1,2,12,4,,,,,,,,,,,AMSA09.jpg,AMSA05.jpg,AMNE19.jpg,AMNE14.jpg,AMNE14.jpg,MN,1,num_4,32,num_8,1.23347854284,,,2018_Mar_22_1704,59.9881478091,FEMA4ImagesEEG,001,103271,
AFNE01.JPG,AFNE01.JPG,AFNE01.JPG,AFNE01.JPG,AFNE01.JPG,AFNE01.JPG,,,,,,,,,,,,,1,3,13,7,,,,,,,,,,,AMNE18.jpg,AMSA20.jpg,AMSA06.jpg,AMNE07.jpg,AMSA06.jpg,MS,2,num_2,32,num_6,0.816760825124,,,2018_Mar_22_1704,59.9881478091,FEMA4ImagesEEG,001,103271,
AFNE01.JPG,AFNE01.JPG,AFNE01.JPG,AFNE01.JPG,AFNE01.JPG,AFNE01.JPG,,,,,,,,,,,,,1,4,14,1,,,,,,,,,,,AMSA01.jpg,AMSA06.jpg,AMNE04.jpg,AMNE20.jpg,AMSA06.jpg,MS,2,num_6,16,num_6,1.29998678553,,,2018_Mar_22_1704,59.9881478091,FEMA4ImagesEEG,001,103271,
AFNE01.JPG,AFNE01.JPG,AFNE01.JPG,AFNE01.JPG,AFNE01.JPG,AFNE01.JPG,,,,,,,,,,,,,1,5,15,0,,,,,,,,,,,AMSA05.jpg,AMSA03.jpg,AMNE07.jpg,AMNE04.jpg,AMSA03.jpg,MS,2,num_6,32,num_2,1.30012630725,,,2018_Mar_22_1704,59.9881478091,FEMA4ImagesEEG,001,103271,
AFNE01.JPG,AFNE01.JPG,AFNE01.JPG,AFNE01.JPG,AFNE01.JPG,AFNE01.JPG,,,,,,,,,,,,,1,6,16,5,,,,,,,,,,,AMNE09.jpg,AMSA12.jpg,AMNE16.jpg,AMSA09.jpg,AMSA12.jpg,MS,2,num_6,32,num_8,1.50017384088,,,2018_Mar_22_1704,59.9881478091,FEMA4ImagesEEG,001,103271,
AFNE01.JPG,AFNE01.JPG,AFNE01.JPG,AFNE01.JPG,AFNE01.JPG,AFNE01.JPG,,,,,,,,,,,,,1,7,17,9,,,,,,,,,,,AMSA17.jpg,AMNE18.jpg,AMNE15.jpg,AMSA05.jpg,AMNE15.jpg,MN,1,num_2,16,num_2,0.866772788708,,,2018_Mar_22_1704,59.9881478091,FEMA4ImagesEEG,001,103271,
AFNE01.JPG,AFNE01.JPG,AFNE01.JPG,AFNE01.JPG,AFNE01.JPG,AFNE01.JPG,,,,,,,,,,,,,1,8,18,3,,,,,,,,,,,AMSA19.jpg,AMNE19.jpg,AMNE05.jpg,AMSA01.jpg,AMSA19.jpg,MS,2,num_8,16,num_8,1.2667501445,,,2018_Mar_22_1704,59.9881478091,FEMA4ImagesEEG,001,103271,
AFNE01.JPG,AFNE01.JPG,AFNE01.JPG,AFNE01.JPG,AFNE01.JPG,AFNE01.JPG,,,,,,,,,,,,,1,9,19,8,,,,,,,,,,,AMNE10.jpg,AMNE12.jpg,AMSA16.jpg,AMSA11.jpg,AMNE10.jpg,MN,1,num_8,16,num_8,0.983493777967,,,2018_Mar_22_1704,59.9881478091,FEMA4ImagesEEG,001,103271,
AFNE01.JPG,AFNE01.JPG,AFNE01.JPG,AFNE01.JPG,AFNE01.JPG,AFNE01.JPG,,,,,,,,,,,,,2,0,20,0,,,,,,,,,,,AMSA13.jpg,AMNE03.jpg,AMNE04.jpg,AMSA15.jpg,AMNE04.jpg,MN,1,num_2,16,num_2,0.683485502886,,,2018_Mar_22_1704,59.9881478091,FEMA4ImagesEEG,001,103271,
AFNE01.JPG,AFNE01.JPG,AFNE01.JPG,AFNE01.JPG,AFNE01.JPG,AFNE01.JPG,,,,,,,,,,,,,2,1,21,5,,,,,,,,,,,AMNE08.jpg,AMSA12.jpg,AMSA06.jpg,AMNE14.jpg,AMSA06.jpg,MS,2,num_2,32,num_8,0.933349990417,,,2018_Mar_22_1704,59.9881478091,FEMA4ImagesEEG,001,103271,
AFNE01.JPG,AFNE01.JPG,AFNE01.JPG,AFNE01.JPG,AFNE01.JPG,AFNE01.JPG,,,,,,,,,,,,,2,2,22,8,,,,,,,,,,,AMNE02.jpg,AMSA12.jpg,AMSA08.jpg,AMNE08.jpg,AMNE08.jpg,MN,1,num_4,32,num_2,1.0500161332,,,2018_Mar_22_1704,59.9881478091,FEMA4ImagesEEG,001,103271,
AFNE01.JPG,AFNE01.JPG,AFNE01.JPG,AFNE01.JPG,AFNE01.JPG,AFNE01.JPG,,,,,,,,,,,,,2,3,23,2,,,,,,,,,,,AMNE18.jpg,AMSA08.jpg,AMNE19.jpg,AMSA11.jpg,AMSA08.jpg,MS,2,num_6,16,num_6,1.11690798044,,,2018_Mar_22_1704,59.9881478091,FEMA4ImagesEEG,001,103271,
AFNE01.JPG,AFNE01.JPG,AFNE01.JPG,AFNE01.JPG,AFNE01.JPG,AFNE01.JPG,,,,,,,,,,,,,2,4,24,9,,,,,,,,,,,AMSA20.jpg,AMNE12.jpg,AMSA15.jpg,AMNE05.jpg,AMSA20.jpg,MS,2,num_8,32,num_4,0.983437007075,,,2018_Mar_22_1704,59.9881478091,FEMA4ImagesEEG,001,103271,
AFNE01.JPG,AFNE01.JPG,AFNE01.JPG,AFNE01.JPG,AFNE01.JPG,AFNE01.JPG,,,,,,,,,,,,,2,5,25,6,,,,,,,,,,,AMSA13.jpg,AMSA12.jpg,AMNE07.jpg,AMNE02.jpg,AMSA12.jpg,MS,2,num_6,32,num_2,1.08347344307,,,2018_Mar_22_1704,59.9881478091,FEMA4ImagesEEG,001,103271,
AFNE01.JPG,AFNE01.JPG,AFNE01.JPG,AFNE01.JPG,AFNE01.JPG,AFNE01.JPG,,,,,,,,,,,,,2,6,26,3,,,,,,,,,,,AMNE16.jpg,AMNE08.jpg,AMSA08.jpg,AMSA07.jpg,AMNE08.jpg,MN,1,num_6,32,num_8,1.73337815134,,,2018_Mar_22_1704,59.9881478091,FEMA4ImagesEEG,001,103271,
AFNE01.JPG,AFNE01.JPG,AFNE01.JPG,AFNE01.JPG,AFNE01.JPG,AFNE01.JPG,,,,,,,,,,,,,2,7,27,7,,,,,,,,,,,AMNE08.jpg,AMSA13.jpg,AMSA11.jpg,AMNE12.jpg,AMSA13.jpg,MS,2,num_6,16,num_6,0.966759510091,,,2018_Mar_22_1704,59.9881478091,FEMA4ImagesEEG,001,103271,
AFNE01.JPG,AFNE01.JPG,AFNE01.JPG,AFNE01.JPG,AFNE01.JPG,AFNE01.JPG,,,,,,,,,,,,,2,8,28,1,,,,,,,,,,,AMNE10.jpg,AMNE16.jpg,AMSA17.jpg,AMSA02.jpg,AMNE16.jpg,MN,1,num_6,32,num_8,1.00029251452,,,2018_Mar_22_1704,59.9881478091,FEMA4ImagesEEG,001,103271,
AFNE01.JPG,AFNE01.JPG,AFNE01.JPG,AFNE01.JPG,AFNE01.JPG,AFNE01.JPG,,,,,,,,,,,,,2,9,29,4,,,,,,,,,,,AMNE10.jpg,AMSA14.jpg,AMSA01.jpg,AMNE20.jpg,AMSA14.jpg,MS,2,num_6,16,num_6,0.866346846524,,,2018_Mar_22_1704,59.9881478091,FEMA4ImagesEEG,001,103271,
AFNE01.JPG,AFNE01.JPG,AFNE01.JPG,AFNE01.JPG,AFNE01.JPG,AFNE01.JPG,,,,,,,,,,,,,3,0,30,3,,,,,,,,,,,AMNE17.jpg,AMSA12.jpg,AMNE07.jpg,AMSA20.jpg,AMSA12.jpg,MS,2,num_6,32,num_8,1.6167658928,,,2018_Mar_22_1704,59.9881478091,FEMA4ImagesEEG,001,103271,
AFNE01.JPG,AFNE01.JPG,AFNE01.JPG,AFNE01.JPG,AFNE01.JPG,AFNE01.JPG,,,,,,,,,,,,,3,1,31,7,,,,,,,,,,,AMNE11.jpg,AMSA11.jpg,AMSA06.jpg,AMNE03.jpg,AMSA11.jpg,MS,2,num_6,16,num_6,0.866783052377,,,2018_Mar_22_1704,59.9881478091,FEMA4ImagesEEG,001,103271,
AFNE01.JPG,AFNE01.JPG,AFNE01.JPG,AFNE01.JPG,AFNE01.JPG,AFNE01.JPG,,,,,,,,,,,,,3,2,32,4,,,,,,,,,,,AMNE13.jpg,AMSA01.jpg,AMSA16.jpg,AMNE20.jpg,AMSA16.jpg,MS,2,num_2,32,num_6,1.01682792384,,,2018_Mar_22_1704,59.9881478091,FEMA4ImagesEEG,001,103271,
AFNE01.JPG,AFNE01.JPG,AFNE01.JPG,AFNE01.JPG,AFNE01.JPG,AFNE01.JPG,,,,,,,,,,,,,3,3,33,1,,,,,,,,,,,AMNE04.jpg,AMSA08.jpg,AMNE05.jpg,AMSA02.jpg,AMNE04.jpg,MN,1,num_8,16,num_8,0.933456155224,,,2018_Mar_22_1704,59.9881478091,FEMA4ImagesEEG,001,103271,
AFNE01.JPG,AFNE01.JPG,AFNE01.JPG,AFNE01.JPG,AFNE01.JPG,AFNE01.JPG,,,,,,,,,,,,,3,4,34,2,,,,,,,,,,,AMNE06.jpg,AMSA03.jpg,AMNE15.jpg,AMSA05.jpg,AMNE06.jpg,MN,1,num_8,16,num_8,1.01676986998,,,2018_Mar_22_1704,59.9881478091,FEMA4ImagesEEG,001,103271,
AFNE01.JPG,AFNE01.JPG,AFNE01.JPG,AFNE01.JPG,AFNE01.JPG,AFNE01.JPG,,,,,,,,,,,,,3,5,35,0,,,,,,,,,,,AMSA04.jpg,AMSA20.jpg,AMNE15.jpg,AMNE11.jpg,AMNE15.jpg,MN,1,num_2,32,num_4,1.6000742833,,,2018_Mar_22_1704,59.9881478091,FEMA4ImagesEEG,001,103271,
AFNE01.JPG,AFNE01.JPG,AFNE01.JPG,AFNE01.JPG,AFNE01.JPG,AFNE01.JPG,,,,,,,,,,,,,3,6,36,8,,,,,,,,,,,AMSA08.jpg,AMSA07.jpg,AMNE08.jpg,AMNE11.jpg,AMNE08.jpg,MN,1,num_2,16,num_2,1.23342594155,,,2018_Mar_22_1704,59.9881478091,FEMA4ImagesEEG,001,103271,
AFNE01.JPG,AFNE01.JPG,AFNE01.JPG,AFNE01.JPG,AFNE01.JPG,AFNE01.JPG,,,,,,,,,,,,,3,7,37,9,,,,,,,,,,,AMSA08.jpg,AMNE13.jpg,AMSA12.jpg,AMNE04.jpg,AMNE13.jpg,MN,1,num_6,16,num_6,0.816783918373,,,2018_Mar_22_1704,59.9881478091,FEMA4ImagesEEG,001,103271,
AFNE01.JPG,AFNE01.JPG,AFNE01.JPG,AFNE01.JPG,AFNE01.JPG,AFNE01.JPG,,,,,,,,,,,,,3,8,38,5,,,,,,,,,,,AMSA18.jpg,AMNE07.jpg,AMSA06.jpg,AMNE06.jpg,AMSA06.jpg,MS,2,num_2,16,num_2,1.55011427953,,,2018_Mar_22_1704,59.9881478091,FEMA4ImagesEEG,001,103271,
AFNE01.JPG,AFNE01.JPG,AFNE01.JPG,AFNE01.JPG,AFNE01.JPG,AFNE01.JPG,,,,,,,,,,,,,3,9,39,6,,,,,,,,,,,AMNE12.jpg,AMSA15.jpg,AMSA03.jpg,AMNE04.jpg,AMNE04.jpg,MN,1,num_4,16,num_4,0.70003726994,,,2018_Mar_22_1704,59.9881478091,FEMA4ImagesEEG,001,103271,
AFNE01.JPG,AFNE01.JPG,AFNE01.JPG,AFNE01.JPG,AFNE01.JPG,AFNE01.JPG,,,,,,,,,,,,,4,0,40,2,,,,,,,,,,,AMNE17.jpg,AMNE14.jpg,AMSA16.jpg,AMSA15.jpg,AMNE17.jpg,MN,1,num_8,16,num_8,0.816769805824,,,2018_Mar_22_1704,59.9881478091,FEMA4ImagesEEG,001,103271,
AFNE01.JPG,AFNE01.JPG,AFNE01.JPG,AFNE01.JPG,AFNE01.JPG,AFNE01.JPG,,,,,,,,,,,,,4,1,41,3,,,,,,,,,,,AMSA18.jpg,AMNE16.jpg,AMNE07.jpg,AMSA12.jpg,AMSA12.jpg,MS,2,num_4,32,num_2,0.86678882569,,,2018_Mar_22_1704,59.9881478091,FEMA4ImagesEEG,001,103271,
AFNE01.JPG,AFNE01.JPG,AFNE01.JPG,AFNE01.JPG,AFNE01.JPG,AFNE01.JPG,,,,,,,,,,,,,4,2,42,5,,,,,,,,,,,AMSA19.jpg,AMNE08.jpg,AMNE14.jpg,AMSA04.jpg,AMNE14.jpg,MN,1,num_2,32,num_4,1.65012730155,,,2018_Mar_22_1704,59.9881478091,FEMA4ImagesEEG,001,103271,
AFNE01.JPG,AFNE01.JPG,AFNE01.JPG,AFNE01.JPG,AFNE01.JPG,AFNE01.JPG,,,,,,,,,,,,,4,3,43,8,,,,,,,,,,,AMSA07.jpg,AMSA05.jpg,AMNE09.jpg,AMNE04.jpg,AMSA07.jpg,MS,2,num_8,16,num_8,0.683737283485,,,2018_Mar_22_1704,59.9881478091,FEMA4ImagesEEG,001,103271,
AFNE01.JPG,AFNE01.JPG,AFNE01.JPG,AFNE01.JPG,AFNE01.JPG,AFNE01.JPG,,,,,,,,,,,,,4,4,44,1,,,,,,,,,,,AMNE08.jpg,AMSA19.jpg,AMNE04.jpg,AMSA17.jpg,AMSA19.jpg,MS,2,num_6,16,num_6,1.15017958211,,,2018_Mar_22_1704,59.9881478091,FEMA4ImagesEEG,001,103271,
AFNE01.JPG,AFNE01.JPG,AFNE01.JPG,AFNE01.JPG,AFNE01.JPG,AFNE01.JPG,,,,,,,,,,,,,4,5,45,9,,,,,,,,,,,AMNE05.jpg,AMNE01.jpg,AMSA04.jpg,AMSA16.jpg,AMSA16.jpg,MS,2,num_4,16,num_4,1.1001570341,,,2018_Mar_22_1704,59.9881478091,FEMA4ImagesEEG,001,103271,
AFNE01.JPG,AFNE01.JPG,AFNE01.JPG,AFNE01.JPG,AFNE01.JPG,AFNE01.JPG,,,,,,,,,,,,,4,6,46,6,,,,,,,,,,,AMSA15.jpg,AMNE17.jpg,AMNE15.jpg,AMSA01.jpg,AMNE15.jpg,MN,1,num_2,32,num_6,0.933538264551,,,2018_Mar_22_1704,59.9881478091,FEMA4ImagesEEG,001,103271,
AFNE01.JPG,AFNE01.JPG,AFNE01.JPG,AFNE01.JPG,AFNE01.JPG,AFNE01.JPG,,,,,,,,,,,,,4,7,47,0,,,,,,,,,,,AMNE16.jpg,AMNE10.jpg,AMSA15.jpg,AMSA19.jpg,AMSA15.jpg,MS,2,num_2,16,num_2,0.683479729574,,,2018_Mar_22_1704,59.9881478091,FEMA4ImagesEEG,001,103271,
AFNE01.JPG,AFNE01.JPG,AFNE01.JPG,AFNE01.JPG,AFNE01.JPG,AFNE01.JPG,,,,,,,,,,,,,4,8,48,4,,,,,,,,,,,AMNE01.jpg,AMNE02.jpg,AMSA19.jpg,AMSA01.jpg,AMSA01.jpg,MS,2,num_4,32,num_6,0.733440695563,,,2018_Mar_22_1704,59.9881478091,FEMA4ImagesEEG,001,103271,
AFNE01.JPG,AFNE01.JPG,AFNE01.JPG,AFNE01.JPG,AFNE01.JPG,AFNE01.JPG,,,,,,,,,,,,,4,9,49,7,,,,,,,,,,,AMNE14.jpg,AMNE13.jpg,AMSA03.jpg,AMSA05.jpg,AMNE14.jpg,MN,1,num_8,16,num_8,0.916840560996,,,2018_Mar_22_1704,59.9881478091,FEMA4ImagesEEG,001,103271,
AFNE01.JPG,AFNE01.JPG,AFNE01.JPG,AFNE01.JPG,AFNE01.JPG,AFNE01.JPG,,,,,,,,,,,,,5,0,50,9,,,,,,,,,,,AMSA17.jpg,AMNE19.jpg,AMNE16.jpg,AMSA19.jpg,AMNE16.jpg,MN,1,num_2,32,num_6,0.850110366504,,,2018_Mar_22_1704,59.9881478091,FEMA4ImagesEEG,001,103271,
AFNE01.JPG,AFNE01.JPG,AFNE01.JPG,AFNE01.JPG,AFNE01.JPG,AFNE01.JPG,,,,,,,,,,,,,5,1,51,8,,,,,,,,,,,AMSA20.jpg,AMNE20.jpg,AMNE13.jpg,AMSA13.jpg,AMNE20.jpg,MN,1,num_6,32,num_4,1.53312791031,,,2018_Mar_22_1704,59.9881478091,FEMA4ImagesEEG,001,103271,
AFNE01.JPG,AFNE01.JPG,AFNE01.JPG,AFNE01.JPG,AFNE01.JPG,AFNE01.JPG,,,,,,,,,,,,,5,2,52,0,,,,,,,,,,,AMSA02.jpg,AMNE03.jpg,AMSA09.jpg,AMNE16.jpg,AMNE03.jpg,MN,1,num_6,32,num_8,1.16674898984,,,2018_Mar_22_1704,59.9881478091,FEMA4ImagesEEG,001,103271,
AFNE01.JPG,AFNE01.JPG,AFNE01.JPG,AFNE01.JPG,AFNE01.JPG,AFNE01.JPG,,,,,,,,,,,,,5,3,53,4,,,,,,,,,,,AMSA15.jpg,AMNE04.jpg,AMSA13.jpg,AMNE09.jpg,AMSA15.jpg,MS,2,num_8,32,num_4,1.40015055517,,,2018_Mar_22_1704,59.9881478091,FEMA4ImagesEEG,001,103271,
AFNE01.JPG,AFNE01.JPG,AFNE01.JPG,AFNE01.JPG,AFNE01.JPG,AFNE01.JPG,,,,,,,,,,,,,5,4,54,2,,,,,,,,,,,AMNE08.jpg,AMSA04.jpg,AMNE01.jpg,AMSA07.jpg,AMSA04.jpg,MS,2,num_6,16,num_6,0.90013066931,,,2018_Mar_22_1704,59.9881478091,FEMA4ImagesEEG,001,103271,
AFNE01.JPG,AFNE01.JPG,AFNE01.JPG,AFNE01.JPG,AFNE01.JPG,AFNE01.JPG,,,,,,,,,,,,,5,5,55,7,,,,,,,,,,,AMSA17.jpg,AMNE18.jpg,AMNE19.jpg,AMSA16.jpg,AMSA17.jpg,MS,2,num_8,32,num_4,1.75007328899,,,2018_Mar_22_1704,59.9881478091,FEMA4ImagesEEG,001,103271,
AFNE01.JPG,AFNE01.JPG,AFNE01.JPG,AFNE01.JPG,AFNE01.JPG,AFNE01.JPG,,,,,,,,,,,,,5,6,56,3,,,,,,,,,,,AMSA09.jpg,AMSA02.jpg,AMNE02.jpg,AMNE14.jpg,AMNE02.jpg,MN,1,num_2,32,num_6,0.916845051339,,,2018_Mar_22_1704,59.9881478091,FEMA4ImagesEEG,001,103271,
AFNE01.JPG,AFNE01.JPG,AFNE01.JPG,AFNE01.JPG,AFNE01.JPG,AFNE01.JPG,,,,,,,,,,,,,5,7,57,5,,,,,,,,,,,AMSA19.jpg,AMNE07.jpg,AMNE01.jpg,AMSA03.jpg,AMNE01.jpg,MN,1,num_2,32,num_8,0.883486529259,,,2018_Mar_22_1704,59.9881478091,FEMA4ImagesEEG,001,103271,
AFNE01.JPG,AFNE01.JPG,AFNE01.JPG,AFNE01.JPG,AFNE01.JPG,AFNE01.JPG,,,,,,,,,,,,,5,8,58,1,,,,,,,,,,,AMSA11.jpg,AMSA02.jpg,AMNE01.jpg,AMNE14.jpg,AMNE14.jpg,MN,1,num_4,32,num_8,1.16679517634,,,2018_Mar_22_1704,59.9881478091,FEMA4ImagesEEG,001,103271,
AFNE01.JPG,AFNE01.JPG,AFNE01.JPG,AFNE01.JPG,AFNE01.JPG,AFNE01.JPG,,,,,,,,,,,,,5,9,59,6,,,,,,,,,,,AMSA12.jpg,AMNE15.jpg,AMNE02.jpg,AMSA02.jpg,AMNE02.jpg,MN,1,num_2,32,num_4,1.18353650048,,,2018_Mar_22_1704,59.9881478091,FEMA4ImagesEEG,001,103271,
,,,,,,,,,,,,,,,,,,,,,,,,,,,,,,,,,,,,,,,,,,,space,29.2643853314,2018_Mar_22_1704,59.9881478091,FEMA4ImagesEEG,001,103271,
AFNE01.JPG,AFNE01.JPG,AFNE01.JPG,AFNE01.JPG,AFNE01.JPG,AFNE01.JPG,,,,,,,,,,,,,,,,,0,0,0,0,,,,,,,AFSA03.jpg,AFNE18.jpg,AFSA11.jpg,AFNE07.jpg,AFNE07.jpg,FN,3,num_4,16,num_4,1.11677038316,,,2018_Mar_22_1704,59.9881478091,FEMA4ImagesEEG,001,103271,
AFNE01.JPG,AFNE01.JPG,AFNE01.JPG,AFNE01.JPG,AFNE01.JPG,AFNE01.JPG,,,,,,,,,,,,,,,,,0,1,1,1,,,,,,,AFSA14.jpg,AFSA09.jpg,AFNE11.jpg,AFNE10.jpg,AFSA14.jpg,FS,4,num_8,32,num_6,0.833511450721,,,2018_Mar_22_1704,59.9881478091,FEMA4ImagesEEG,001,103271,
AFNE01.JPG,AFNE01.JPG,AFNE01.JPG,AFNE01.JPG,AFNE01.JPG,AFNE01.JPG,,,,,,,,,,,,,,,,,0,2,2,8,,,,,,,AFNE07.jpg,AFSA16.jpg,AFSA01.jpg,AFNE02.jpg,AFSA01.jpg,FS,4,num_2,16,num_2,1.26659490653,,,2018_Mar_22_1704,59.9881478091,FEMA4ImagesEEG,001,103271,
AFNE01.JPG,AFNE01.JPG,AFNE01.JPG,AFNE01.JPG,AFNE01.JPG,AFNE01.JPG,,,,,,,,,,,,,,,,,0,3,3,6,,,,,,,AFSA20.jpg,AFNE16.jpg,AFSA17.jpg,AFNE03.jpg,AFNE16.jpg,FN,3,num_6,32,num_4,0.766750785973,,,2018_Mar_22_1704,59.9881478091,FEMA4ImagesEEG,001,103271,
AFNE01.JPG,AFNE01.JPG,AFNE01.JPG,AFNE01.JPG,AFNE01.JPG,AFNE01.JPG,,,,,,,,,,,,,,,,,0,4,4,9,,,,,,,AFSA06.jpg,AFNE13.jpg,AFNE05.jpg,AFSA04.jpg,AFSA04.jpg,FS,4,num_4,16,num_4,0.633459747507,,,2018_Mar_22_1704,59.9881478091,FEMA4ImagesEEG,001,103271,
AFNE01.JPG,AFNE01.JPG,AFNE01.JPG,AFNE01.JPG,AFNE01.JPG,AFNE01.JPG,,,,,,,,,,,,,,,,,0,5,5,3,,,,,,,AFSA14.jpg,AFNE11.jpg,AFNE04.jpg,AFSA03.jpg,AFSA03.jpg,FS,4,num_4,32,num_8,1.05011876988,,,2018_Mar_22_1704,59.9881478091,FEMA4ImagesEEG,001,103271,
AFNE01.JPG,AFNE01.JPG,AFNE01.JPG,AFNE01.JPG,AFNE01.JPG,AFNE01.JPG,,,,,,,,,,,,,,,,,0,6,6,5,,,,,,,AFSA03.jpg,AFNE11.jpg,AFNE04.jpg,AFSA20.jpg,AFSA03.jpg,FS,4,num_8,16,num_8,0.8834698508,,,2018_Mar_22_1704,59.9881478091,FEMA4ImagesEEG,001,103271,
AFNE01.JPG,AFNE01.JPG,AFNE01.JPG,AFNE01.JPG,AFNE01.JPG,AFNE01.JPG,,,,,,,,,,,,,,,,,0,7,7,7,,,,,,,AFNE07.jpg,AFSA14.jpg,AFNE10.jpg,AFSA19.jpg,AFNE10.jpg,FN,3,num_2,32,num_6,0.816778145061,,,2018_Mar_22_1704,59.9881478091,FEMA4ImagesEEG,001,103271,
AFNE01.JPG,AFNE01.JPG,AFNE01.JPG,AFNE01.JPG,AFNE01.JPG,AFNE01.JPG,,,,,,,,,,,,,,,,,0,8,8,2,,,,,,,AFNE10.jpg,AFSA10.jpg,AFSA07.jpg,AFNE16.jpg,AFSA10.jpg,FS,4,num_6,32,num_8,1.20012932221,,,2018_Mar_22_1704,59.9881478091,FEMA4ImagesEEG,001,103271,
AFNE01.JPG,AFNE01.JPG,AFNE01.JPG,AFNE01.JPG,AFNE01.JPG,AFNE01.JPG,,,,,,,,,,,,,,,,,0,9,9,4,,,,,,,AFSA19.jpg,AFNE19.jpg,AFSA06.jpg,AFNE12.jpg,AFNE12.jpg,FN,3,num_4,32,num_2,0.700184168687,,,2018_Mar_22_1704,59.9881478091,FEMA4ImagesEEG,001,103271,
AFNE01.JPG,AFNE01.JPG,AFNE01.JPG,AFNE01.JPG,AFNE01.JPG,AFNE01.JPG,,,,,,,,,,,,,,,,,1,0,10,6,,,,,,,AFNE15.jpg,AFSA17.jpg,AFSA05.jpg,AFNE05.jpg,AFSA17.jpg,FS,4,num_6,32,num_4,0.950144236602,,,2018_Mar_22_1704,59.9881478091,FEMA4ImagesEEG,001,103271,
AFNE01.JPG,AFNE01.JPG,AFNE01.JPG,AFNE01.JPG,AFNE01.JPG,AFNE01.JPG,,,,,,,,,,,,,,,,,1,1,11,2,,,,,,,AFNE20.jpg,AFNE08.jpg,AFSA01.jpg,AFSA15.jpg,AFSA01.jpg,FS,4,num_2,16,num_2,1.28347222427,,,2018_Mar_22_1704,59.9881478091,FEMA4ImagesEEG,001,103271,
AFNE01.JPG,AFNE01.JPG,AFNE01.JPG,AFNE01.JPG,AFNE01.JPG,AFNE01.JPG,,,,,,,,,,,,,,,,,1,2,12,5,,,,,,,AFSA14.jpg,AFNE04.jpg,AFNE17.jpg,AFSA13.jpg,AFNE17.jpg,FN,3,num_2,32,num_6,1.50007729823,,,2018_Mar_22_1704,59.9881478091,FEMA4ImagesEEG,001,103271,
AFNE01.JPG,AFNE01.JPG,AFNE01.JPG,AFNE01.JPG,AFNE01.JPG,AFNE01.JPG,,,,,,,,,,,,,,,,,1,3,13,1,,,,,,,AFNE16.jpg,AFNE18.jpg,AFSA03.jpg,AFSA14.jpg,AFNE18.jpg,FN,3,num_6,32,num_4,1.46672839834,,,2018_Mar_22_1704,59.9881478091,FEMA4ImagesEEG,001,103271,
AFNE01.JPG,AFNE01.JPG,AFNE01.JPG,AFNE01.JPG,AFNE01.JPG,AFNE01.JPG,,,,,,,,,,,,,,,,,1,4,14,8,,,,,,,AFSA11.jpg,AFNE08.jpg,AFNE20.jpg,AFSA16.jpg,AFNE20.jpg,FN,3,num_2,32,num_8,1.36682506926,,,2018_Mar_22_1704,59.9881478091,FEMA4ImagesEEG,001,103271,
AFNE01.JPG,AFNE01.JPG,AFNE01.JPG,AFNE01.JPG,AFNE01.JPG,AFNE01.JPG,,,,,,,,,,,,,,,,,1,5,15,9,,,,,,,AFNE01.jpg,AFSA06.jpg,AFSA15.jpg,AFNE11.jpg,AFNE01.jpg,FN,3,num_8,32,num_6,0.933429533834,,,2018_Mar_22_1704,59.9881478091,FEMA4ImagesEEG,001,103271,
AFNE01.JPG,AFNE01.JPG,AFNE01.JPG,AFNE01.JPG,AFNE01.JPG,AFNE01.JPG,,,,,,,,,,,,,,,,,1,6,16,3,,,,,,,AFSA07.jpg,AFNE19.jpg,AFSA10.jpg,AFNE01.jpg,AFNE01.jpg,FN,3,num_4,16,num_4,0.766776765871,,,2018_Mar_22_1704,59.9881478091,FEMA4ImagesEEG,001,103271,
AFNE01.JPG,AFNE01.JPG,AFNE01.JPG,AFNE01.JPG,AFNE01.JPG,AFNE01.JPG,,,,,,,,,,,,,,,,,1,7,17,4,,,,,,,AFNE07.jpg,AFSA04.jpg,AFNE11.jpg,AFSA11.jpg,AFNE07.jpg,FN,3,num_8,16,num_8,1.16653473578,,,2018_Mar_22_1704,59.9881478091,FEMA4ImagesEEG,001,103271,
AFNE01.JPG,AFNE01.JPG,AFNE01.JPG,AFNE01.JPG,AFNE01.JPG,AFNE01.JPG,,,,,,,,,,,,,,,,,1,8,18,7,,,,,,,AFNE14.jpg,AFSA20.jpg,AFSA12.jpg,AFNE10.jpg,AFNE10.jpg,FN,3,num_4,16,num_4,0.966778754475,,,2018_Mar_22_1704,59.9881478091,FEMA4ImagesEEG,001,103271,
AFNE01.JPG,AFNE01.JPG,AFNE01.JPG,AFNE01.JPG,AFNE01.JPG,AFNE01.JPG,,,,,,,,,,,,,,,,,1,9,19,0,,,,,,,AFNE13.jpg,AFSA13.jpg,AFNE04.jpg,AFSA03.jpg,AFNE04.jpg,FN,3,num_2,16,num_2,0.950143274371,,,2018_Mar_22_1704,59.9881478091,FEMA4ImagesEEG,001,103271,
AFNE01.JPG,AFNE01.JPG,AFNE01.JPG,AFNE01.JPG,AFNE01.JPG,AFNE01.JPG,,,,,,,,,,,,,,,,,2,0,20,0,,,,,,,AFSA07.jpg,AFNE14.jpg,AFNE07.jpg,AFSA17.jpg,AFSA17.jpg,FS,4,num_4,32,num_6,1.35013859157,,,2018_Mar_22_1704,59.9881478091,FEMA4ImagesEEG,001,103271,
AFNE01.JPG,AFNE01.JPG,AFNE01.JPG,AFNE01.JPG,AFNE01.JPG,AFNE01.JPG,,,,,,,,,,,,,,,,,2,1,21,4,,,,,,,AFNE01.jpg,AFSA02.jpg,AFNE05.jpg,AFSA11.jpg,AFNE01.jpg,FN,3,num_8,32,num_4,1.45008265458,,,2018_Mar_22_1704,59.9881478091,FEMA4ImagesEEG,001,103271,
AFNE01.JPG,AFNE01.JPG,AFNE01.JPG,AFNE01.JPG,AFNE01.JPG,AFNE01.JPG,,,,,,,,,,,,,,,,,2,2,22,2,,,,,,,AFNE18.jpg,AFNE12.jpg,AFSA07.jpg,AFSA04.jpg,AFSA07.jpg,FS,4,num_2,32,num_8,1.1334783504,,,2018_Mar_22_1704,59.9881478091,FEMA4ImagesEEG,001,103271,
AFNE01.JPG,AFNE01.JPG,AFNE01.JPG,AFNE01.JPG,AFNE01.JPG,AFNE01.JPG,,,,,,,,,,,,,,,,,2,3,23,3,,,,,,,AFNE06.jpg,AFSA10.jpg,AFNE07.jpg,AFSA18.jpg,AFNE07.jpg,FN,3,num_2,16,num_2,1.0001199566,,,2018_Mar_22_1704,59.9881478091,FEMA4ImagesEEG,001,103271,
AFNE01.JPG,AFNE01.JPG,AFNE01.JPG,AFNE01.JPG,AFNE01.JPG,AFNE01.JPG,,,,,,,,,,,,,,,,,2,4,24,6,,,,,,,AFSA15.jpg,AFNE16.jpg,AFSA10.jpg,AFNE08.jpg,AFNE16.jpg,FN,3,num_6,32,num_8,0.900166912877,,,2018_Mar_22_1704,59.9881478091,FEMA4ImagesEEG,001,103271,
AFNE01.JPG,AFNE01.JPG,AFNE01.JPG,AFNE01.JPG,AFNE01.JPG,AFNE01.JPG,,,,,,,,,,,,,,,,,2,5,25,9,,,,,,,AFNE17.jpg,AFSA04.jpg,AFSA08.jpg,AFNE05.jpg,AFNE05.jpg,FN,3,num_4,16,num_4,0.683492879893,,,2018_Mar_22_1704,59.9881478091,FEMA4ImagesEEG,001,103271,
AFNE01.JPG,AFNE01.JPG,AFNE01.JPG,AFNE01.JPG,AFNE01.JPG,AFNE01.JPG,,,,,,,,,,,,,,,,,2,6,26,1,,,,,,,AFSA20.jpg,AFNE16.jpg,AFSA10.jpg,AFNE15.jpg,AFNE16.jpg,FN,3,num_6,16,num_6,0.983415838258,,,2018_Mar_22_1704,59.9881478091,FEMA4ImagesEEG,001,103271,
AFNE01.JPG,AFNE01.JPG,AFNE01.JPG,AFNE01.JPG,AFNE01.JPG,AFNE01.JPG,,,,,,,,,,,,,,,,,2,7,27,8,,,,,,,AFSA13.jpg,AFSA06.jpg,AFNE10.jpg,AFNE17.jpg,AFNE17.jpg,FN,3,num_4,16,num_4,0.833490923382,,,2018_Mar_22_1704,59.9881478091,FEMA4ImagesEEG,001,103271,
AFNE01.JPG,AFNE01.JPG,AFNE01.JPG,AFNE01.JPG,AFNE01.JPG,AFNE01.JPG,,,,,,,,,,,,,,,,,2,8,28,7,,,,,,,AFSA16.jpg,AFNE12.jpg,AFNE14.jpg,AFSA05.jpg,AFSA05.jpg,FS,4,num_4,32,num_2,1.76643453672,,,2018_Mar_22_1704,59.9881478091,FEMA4ImagesEEG,001,103271,
AFNE01.JPG,AFNE01.JPG,AFNE01.JPG,AFNE01.JPG,AFNE01.JPG,AFNE01.JPG,,,,,,,,,,,,,,,,,2,9,29,5,,,,,,,AFSA20.jpg,AFNE05.jpg,AFSA06.jpg,AFNE03.jpg,AFSA06.jpg,FS,4,num_2,32,num_8,1.0167278531,,,2018_Mar_22_1704,59.9881478091,FEMA4ImagesEEG,001,103271,
AFNE01.JPG,AFNE01.JPG,AFNE01.JPG,AFNE01.JPG,AFNE01.JPG,AFNE01.JPG,,,,,,,,,,,,,,,,,3,0,30,4,,,,,,,AFNE08.jpg,AFNE03.jpg,AFSA10.jpg,AFSA14.jpg,AFSA10.jpg,FS,4,num_2,32,num_6,0.916787318216,,,2018_Mar_22_1704,59.9881478091,FEMA4ImagesEEG,001,103271,
AFNE01.JPG,AFNE01.JPG,AFNE01.JPG,AFNE01.JPG,AFNE01.JPG,AFNE01.JPG,,,,,,,,,,,,,,,,,3,1,31,3,,,,,,,AFSA09.jpg,AFSA14.jpg,AFNE18.jpg,AFNE02.jpg,AFNE02.jpg,FN,3,num_4,32,num_8,0.800147796806,,,2018_Mar_22_1704,59.9881478091,FEMA4ImagesEEG,001,103271,
AFNE01.JPG,AFNE01.JPG,AFNE01.JPG,AFNE01.JPG,AFNE01.JPG,AFNE01.JPG,,,,,,,,,,,,,,,,,3,2,32,0,,,,,,,AFSA20.jpg,AFSA09.jpg,AFNE15.jpg,AFNE12.jpg,AFSA09.jpg,FS,4,num_6,16,num_6,0.96679286701,,,2018_Mar_22_1704,59.9881478091,FEMA4ImagesEEG,001,103271,
AFNE01.JPG,AFNE01.JPG,AFNE01.JPG,AFNE01.JPG,AFNE01.JPG,AFNE01.JPG,,,,,,,,,,,,,,,,,3,3,33,1,,,,,,,AFNE03.jpg,AFSA19.jpg,AFNE17.jpg,AFSA18.jpg,AFNE03.jpg,FN,3,num_8,16,num_8,1.566691385,,,2018_Mar_22_1704,59.9881478091,FEMA4ImagesEEG,001,103271,
AFNE01.JPG,AFNE01.JPG,AFNE01.JPG,AFNE01.JPG,AFNE01.JPG,AFNE01.JPG,,,,,,,,,,,,,,,,,3,4,34,7,,,,,,,AFNE01.jpg,AFNE11.jpg,AFSA15.jpg,AFSA16.jpg,AFNE11.jpg,FN,3,num_6,32,num_4,0.766817499811,,,2018_Mar_22_1704,59.9881478091,FEMA4ImagesEEG,001,103271,
AFNE01.JPG,AFNE01.JPG,AFNE01.JPG,AFNE01.JPG,AFNE01.JPG,AFNE01.JPG,,,,,,,,,,,,,,,,,3,5,35,2,,,,,,,AFSA20.jpg,AFSA03.jpg,AFNE15.jpg,AFNE17.jpg,AFSA20.jpg,FS,4,num_8,32,num_2,0.950086503479,,,2018_Mar_22_1704,59.9881478091,FEMA4ImagesEEG,001,103271,
AFNE01.JPG,AFNE01.JPG,AFNE01.JPG,AFNE01.JPG,AFNE01.JPG,AFNE01.JPG,,,,,,,,,,,,,,,,,3,6,36,6,,,,,,,AFNE18.jpg,AFNE12.jpg,AFSA03.jpg,AFSA20.jpg,AFNE18.jpg,FN,3,num_8,16,num_8,0.70012515258,,,2018_Mar_22_1704,59.9881478091,FEMA4ImagesEEG,001,103271,
AFNE01.JPG,AFNE01.JPG,AFNE01.JPG,AFNE01.JPG,AFNE01.JPG,AFNE01.JPG,,,,,,,,,,,,,,,,,3,7,37,9,,,,,,,AFNE12.jpg,AFSA13.jpg,AFNE13.jpg,AFSA09.jpg,AFNE13.jpg,FN,3,num_2,16,num_2,0.766821669429,,,2018_Mar_22_1704,59.9881478091,FEMA4ImagesEEG,001,103271,
AFNE01.JPG,AFNE01.JPG,AFNE01.JPG,AFNE01.JPG,AFNE01.JPG,AFNE01.JPG,,,,,,,,,,,,,,,,,3,8,38,5,,,,,,,AFNE13.jpg,AFSA07.jpg,AFSA19.jpg,AFNE18.jpg,AFNE13.jpg,FN,3,num_8,16,num_8,1.10011052687,,,2018_Mar_22_1704,59.9881478091,FEMA4ImagesEEG,001,103271,
AFNE01.JPG,AFNE01.JPG,AFNE01.JPG,AFNE01.JPG,AFNE01.JPG,AFNE01.JPG,,,,,,,,,,,,,,,,,3,9,39,8,,,,,,,AFSA09.jpg,AFSA02.jpg,AFNE11.jpg,AFNE13.jpg,AFNE11.jpg,FN,3,num_2,16,num_2,0.999843479076,,,2018_Mar_22_1704,59.9881478091,FEMA4ImagesEEG,001,103271,
AFNE01.JPG,AFNE01.JPG,AFNE01.JPG,AFNE01.JPG,AFNE01.JPG,AFNE01.JPG,,,,,,,,,,,,,,,,,4,0,40,4,,,,,,,AFNE09.jpg,AFSA11.jpg,AFSA03.jpg,AFNE19.jpg,AFSA03.jpg,FS,4,num_2,32,num_6,0.866766053179,,,2018_Mar_22_1704,59.9881478091,FEMA4ImagesEEG,001,103271,
AFNE01.JPG,AFNE01.JPG,AFNE01.JPG,AFNE01.JPG,AFNE01.JPG,AFNE01.JPG,,,,,,,,,,,,,,,,,4,1,41,7,,,,,,,AFSA20.jpg,AFNE16.jpg,AFSA11.jpg,AFNE02.jpg,AFSA11.jpg,FS,4,num_2,16,num_2,0.883438097575,,,2018_Mar_22_1704,59.9881478091,FEMA4ImagesEEG,001,103271,
AFNE01.JPG,AFNE01.JPG,AFNE01.JPG,AFNE01.JPG,AFNE01.JPG,AFNE01.JPG,,,,,,,,,,,,,,,,,4,2,42,0,,,,,,,AFNE09.jpg,AFSA14.jpg,AFSA08.jpg,AFNE04.jpg,AFSA08.jpg,FS,4,num_2,16,num_2,1.35012159238,,,2018_Mar_22_1704,59.9881478091,FEMA4ImagesEEG,001,103271,
AFNE01.JPG,AFNE01.JPG,AFNE01.JPG,AFNE01.JPG,AFNE01.JPG,AFNE01.JPG,,,,,,,,,,,,,,,,,4,3,43,5,,,,,,,AFNE07.jpg,AFSA01.jpg,AFSA08.jpg,AFNE18.jpg,AFSA08.jpg,FS,4,num_2,16,num_2,1.45009355975,,,2018_Mar_22_1704,59.9881478091,FEMA4ImagesEEG,001,103271,
AFNE01.JPG,AFNE01.JPG,AFNE01.JPG,AFNE01.JPG,AFNE01.JPG,AFNE01.JPG,,,,,,,,,,,,,,,,,4,4,44,9,,,,,,,AFNE18.jpg,AFNE09.jpg,AFSA19.jpg,AFSA05.jpg,AFSA05.jpg,FS,4,num_4,32,num_2,1.5500703382,,,2018_Mar_22_1704,59.9881478091,FEMA4ImagesEEG,001,103271,
AFNE01.JPG,AFNE01.JPG,AFNE01.JPG,AFNE01.JPG,AFNE01.JPG,AFNE01.JPG,,,,,,,,,,,,,,,,,4,5,45,3,,,,,,,AFSA11.jpg,AFSA03.jpg,AFNE12.jpg,AFNE03.jpg,AFNE12.jpg,FN,3,num_2,32,num_8,0.933529925314,,,2018_Mar_22_1704,59.9881478091,FEMA4ImagesEEG,001,103271,
AFNE01.JPG,AFNE01.JPG,AFNE01.JPG,AFNE01.JPG,AFNE01.JPG,AFNE01.JPG,,,,,,,,,,,,,,,,,4,6,46,8,,,,,,,AFNE01.jpg,AFSA07.jpg,AFSA08.jpg,AFNE09.jpg,AFNE01.jpg,FN,3,num_8,16,num_8,1.10011052687,,,2018_Mar_22_1704,59.9881478091,FEMA4ImagesEEG,001,103271,
AFNE01.JPG,AFNE01.JPG,AFNE01.JPG,AFNE01.JPG,AFNE01.JPG,AFNE01.JPG,,,,,,,,,,,,,,,,,4,7,47,1,,,,,,,AFNE15.jpg,AFSA13.jpg,AFNE19.jpg,AFSA07.jpg,AFNE19.jpg,FN,3,num_2,32,num_6,1.03345602693,,,2018_Mar_22_1704,59.9881478091,FEMA4ImagesEEG,001,103271,
AFNE01.JPG,AFNE01.JPG,AFNE01.JPG,AFNE01.JPG,AFNE01.JPG,AFNE01.JPG,,,,,,,,,,,,,,,,,4,8,48,6,,,,,,,AFNE07.jpg,AFSA08.jpg,AFSA06.jpg,AFNE01.jpg,AFNE01.jpg,FN,3,num_4,32,num_8,1.01676505888,,,2018_Mar_22_1704,59.9881478091,FEMA4ImagesEEG,001,103271,
AFNE01.JPG,AFNE01.JPG,AFNE01.JPG,AFNE01.JPG,AFNE01.JPG,AFNE01.JPG,,,,,,,,,,,,,,,,,4,9,49,2,,,,,,,AFNE14.jpg,AFSA20.jpg,AFNE06.jpg,AFSA15.jpg,AFSA20.jpg,FS,4,num_6,32,num_8,1.05009535588,,,2018_Mar_22_1704,59.9881478091,FEMA4ImagesEEG,001,103271,
AFNE01.JPG,AFNE01.JPG,AFNE01.JPG,AFNE01.JPG,AFNE01.JPG,AFNE01.JPG,,,,,,,,,,,,,,,,,5,0,50,5,,,,,,,AFNE15.jpg,AFSA02.jpg,AFNE02.jpg,AFSA13.jpg,AFNE02.jpg,FN,3,num_2,16,num_2,0.866795561218,,,2018_Mar_22_1704,59.9881478091,FEMA4ImagesEEG,001,103271,
AFNE01.JPG,AFNE01.JPG,AFNE01.JPG,AFNE01.JPG,AFNE01.JPG,AFNE01.JPG,,,,,,,,,,,,,,,,,5,1,51,3,,,,,,,AFSA12.jpg,AFSA07.jpg,AFNE02.jpg,AFNE10.jpg,AFSA12.jpg,FS,4,num_8,16,num_8,0.750003688503,,,2018_Mar_22_1704,59.9881478091,FEMA4ImagesEEG,001,103271,
AFNE01.JPG,AFNE01.JPG,AFNE01.JPG,AFNE01.JPG,AFNE01.JPG,AFNE01.JPG,,,,,,,,,,,,,,,,,5,2,52,8,,,,,,,AFSA06.jpg,AFSA15.jpg,AFNE04.jpg,AFNE17.jpg,AFNE04.jpg,FN,3,num_2,32,num_8,1.23347405248,,,2018_Mar_22_1704,59.9881478091,FEMA4ImagesEEG,001,103271,
AFNE01.JPG,AFNE01.JPG,AFNE01.JPG,AFNE01.JPG,AFNE01.JPG,AFNE01.JPG,,,,,,,,,,,,,,,,,5,3,53,6,,,,,,,AFSA19.jpg,AFSA01.jpg,AFNE12.jpg,AFNE08.jpg,AFNE12.jpg,FN,3,num_2,32,num_8,0.83345211389,,,2018_Mar_22_1704,59.9881478091,FEMA4ImagesEEG,001,103271,
AFNE01.JPG,AFNE01.JPG,AFNE01.JPG,AFNE01.JPG,AFNE01.JPG,AFNE01.JPG,,,,,,,,,,,,,,,,,5,4,54,7,,,,,,,AFNE20.jpg,AFSA11.jpg,AFNE19.jpg,AFSA08.jpg,AFNE20.jpg,FN,3,num_8,16,num_8,0.883461511577,,,2018_Mar_22_1704,59.9881478091,FEMA4ImagesEEG,001,103271,
AFNE01.JPG,AFNE01.JPG,AFNE01.JPG,AFNE01.JPG,AFNE01.JPG,AFNE01.JPG,,,,,,,,,,,,,,,,,5,5,55,4,,,,,,,AFNE14.jpg,AFSA12.jpg,AFNE05.jpg,AFSA10.jpg,AFSA12.jpg,FS,4,num_6,16,num_6,0.833469113088,,,2018_Mar_22_1704,59.9881478091,FEMA4ImagesEEG,001,103271,
AFNE01.JPG,AFNE01.JPG,AFNE01.JPG,AFNE01.JPG,AFNE01.JPG,AFNE01.JPG,,,,,,,,,,,,,,,,,5,6,56,9,,,,,,,AFSA09.jpg,AFNE08.jpg,AFSA15.jpg,AFNE03.jpg,AFNE03.jpg,FN,3,num_4,16,num_4,0.783478639059,,,2018_Mar_22_1704,59.9881478091,FEMA4ImagesEEG,001,103271,
AFNE01.JPG,AFNE01.JPG,AFNE01.JPG,AFNE01.JPG,AFNE01.JPG,AFNE01.JPG,,,,,,,,,,,,,,,,,5,7,57,1,,,,,,,AFNE08.jpg,AFSA14.jpg,AFNE06.jpg,AFSA08.jpg,AFSA08.jpg,FS,4,num_4,32,num_6,0.716772500033,,,2018_Mar_22_1704,59.9881478091,FEMA4ImagesEEG,001,103271,
AFNE01.JPG,AFNE01.JPG,AFNE01.JPG,AFNE01.JPG,AFNE01.JPG,AFNE01.JPG,,,,,,,,,,,,,,,,,5,8,58,0,,,,,,,AFNE11.jpg,AFSA12.jpg,AFSA18.jpg,AFNE04.jpg,AFNE11.jpg,FN,3,num_8,16,num_8,0.983454647736,,,2018_Mar_22_1704,59.9881478091,FEMA4ImagesEEG,001,103271,
AFNE01.JPG,AFNE01.JPG,AFNE01.JPG,AFNE01.JPG,AFNE01.JPG,AFNE01.JPG,,,,,,,,,,,,,,,,,5,9,59,2,,,,,,,AFNE15.jpg,AFNE08.jpg,AFSA10.jpg,AFSA04.jpg,AFNE08.jpg,FN,3,num_6,32,num_4,1.35016809963,,,2018_Mar_22_1704,59.9881478091,FEMA4ImagesEEG,001,103271,
,,,,,,,,,,,,,,,,,,,,,,,,,,,,,,,,,,,,,,,,,,,space,28.8979044157,2018_Mar_22_1704,59.9881478091,FEMA4ImagesEEG,001,103271,
AFNE01.JPG,AFNE01.JPG,AFNE01.JPG,AFNE01.JPG,AFNE01.JPG,AFNE01.JPG,,,,,,,,,,,,,,,,,,,,,0,0,0,7,,,AMSA17.jpg,AMNE07.jpg,AMNE02.jpg,AMSA14.jpg,AMSA14.jpg,MS,2,num_4,16,num_4,0.600235936057,,,2018_Mar_22_1704,59.9881478091,FEMA4ImagesEEG,001,103271,
AFNE01.JPG,AFNE01.JPG,AFNE01.JPG,AFNE01.JPG,AFNE01.JPG,AFNE01.JPG,,,,,,,,,,,,,,,,,,,,,0,1,1,6,,,AMNE07.jpg,AMNE14.jpg,AMSA15.jpg,AMSA09.jpg,AMSA09.jpg,MS,2,num_4,16,num_4,1.26675784224,,,2018_Mar_22_1704,59.9881478091,FEMA4ImagesEEG,001,103271,
AFNE01.JPG,AFNE01.JPG,AFNE01.JPG,AFNE01.JPG,AFNE01.JPG,AFNE01.JPG,,,,,,,,,,,,,,,,,,,,,0,2,2,4,,,AMNE01.jpg,AMNE14.jpg,AMSA09.jpg,AMSA11.jpg,AMNE14.jpg,MN,1,num_6,32,num_8,1.1000954521,,,2018_Mar_22_1704,59.9881478091,FEMA4ImagesEEG,001,103271,
AFNE01.JPG,AFNE01.JPG,AFNE01.JPG,AFNE01.JPG,AFNE01.JPG,AFNE01.JPG,,,,,,,,,,,,,,,,,,,,,0,3,3,1,,,AMSA04.jpg,AMNE20.jpg,AMSA01.jpg,AMNE14.jpg,AMNE20.jpg,MN,1,num_6,32,num_8,0.983566585855,,,2018_Mar_22_1704,59.9881478091,FEMA4ImagesEEG,001,103271,
AFNE01.JPG,AFNE01.JPG,AFNE01.JPG,AFNE01.JPG,AFNE01.JPG,AFNE01.JPG,,,,,,,,,,,,,,,,,,,,,0,4,4,2,,,AMSA13.jpg,AMNE20.jpg,AMSA03.jpg,AMNE15.jpg,AMSA13.jpg,MS,2,num_8,32,num_4,1.33339566372,,,2018_Mar_22_1704,59.9881478091,FEMA4ImagesEEG,001,103271,
AFNE01.JPG,AFNE01.JPG,AFNE01.JPG,AFNE01.JPG,AFNE01.JPG,AFNE01.JPG,,,,,,,,,,,,,,,,,,,,,0,5,5,8,,,AMNE17.jpg,AMSA13.jpg,AMNE13.jpg,AMSA08.jpg,AMNE13.jpg,MN,1,num_2,32,num_8,1.36673141329,,,2018_Mar_22_1704,59.9881478091,FEMA4ImagesEEG,001,103271,
AFNE01.JPG,AFNE01.JPG,AFNE01.JPG,AFNE01.JPG,AFNE01.JPG,AFNE01.JPG,,,,,,,,,,,,,,,,,,,,,0,6,6,5,,,AMSA19.jpg,AMSA01.jpg,AMNE10.jpg,AMNE19.jpg,AMSA01.jpg,MS,2,num_6,32,num_8,2.61651635739,,,2018_Mar_22_1704,59.9881478091,FEMA4ImagesEEG,001,103271,
AFNE01.JPG,AFNE01.JPG,AFNE01.JPG,AFNE01.JPG,AFNE01.JPG,AFNE01.JPG,,,,,,,,,,,,,,,,,,,,,0,7,7,3,,,AMNE04.jpg,AMSA05.jpg,AMNE12.jpg,AMSA15.jpg,AMNE12.jpg,MN,1,num_2,16,num_2,1.23349073096,,,2018_Mar_22_1704,59.9881478091,FEMA4ImagesEEG,001,103271,
AFNE01.JPG,AFNE01.JPG,AFNE01.JPG,AFNE01.JPG,AFNE01.JPG,AFNE01.JPG,,,,,,,,,,,,,,,,,,,,,0,8,8,9,,,AMSA03.jpg,AMSA08.jpg,AMNE05.jpg,AMNE18.jpg,AMNE05.jpg,MN,1,num_2,32,num_8,2.33361986071,,,2018_Mar_22_1704,59.9881478091,FEMA4ImagesEEG,001,103271,
AFNE01.JPG,AFNE01.JPG,AFNE01.JPG,AFNE01.JPG,AFNE01.JPG,AFNE01.JPG,,,,,,,,,,,,,,,,,,,,,0,9,9,0,,,AMNE04.jpg,AMNE19.jpg,AMSA01.jpg,AMSA09.jpg,AMSA01.jpg,MS,2,num_2,32,num_6,2.9000203349,,,2018_Mar_22_1704,59.9881478091,FEMA4ImagesEEG,001,103271,
AFNE01.JPG,AFNE01.JPG,AFNE01.JPG,AFNE01.JPG,AFNE01.JPG,AFNE01.JPG,,,,,,,,,,,,,,,,,,,,,1,0,10,7,,,AMSA06.jpg,AMNE17.jpg,AMSA12.jpg,AMNE01.jpg,AMNE01.jpg,MN,1,num_4,16,num_4,0.833310026253,,,2018_Mar_22_1704,59.9881478091,FEMA4ImagesEEG,001,103271,
AFNE01.JPG,AFNE01.JPG,AFNE01.JPG,AFNE01.JPG,AFNE01.JPG,AFNE01.JPG,,,,,,,,,,,,,,,,,,,,,1,1,11,9,,,AMNE11.jpg,AMSA01.jpg,AMSA14.jpg,AMNE07.jpg,AMSA01.jpg,MS,2,num_6,32,num_2,0.83342645473,,,2018_Mar_22_1704,59.9881478091,FEMA4ImagesEEG,001,103271,
AFNE01.JPG,AFNE01.JPG,AFNE01.JPG,AFNE01.JPG,AFNE01.JPG,AFNE01.JPG,,,,,,,,,,,,,,,,,,,,,1,2,12,5,,,AMSA07.jpg,AMNE14.jpg,AMNE19.jpg,AMSA01.jpg,AMSA07.jpg,MS,2,num_8,16,num_8,0.883448681983,,,2018_Mar_22_1704,59.9881478091,FEMA4ImagesEEG,001,103271,
AFNE01.JPG,AFNE01.JPG,AFNE01.JPG,AFNE01.JPG,AFNE01.JPG,AFNE01.JPG,,,,,,,,,,,,,,,,,,,,,1,3,13,2,,,AMNE11.jpg,AMSA14.jpg,AMSA11.jpg,AMNE20.jpg,AMNE11.jpg,MN,1,num_8,32,num_4,0.850136667155,,,2018_Mar_22_1704,59.9881478091,FEMA4ImagesEEG,001,103271,
AFNE01.JPG,AFNE01.JPG,AFNE01.JPG,AFNE01.JPG,AFNE01.JPG,AFNE01.JPG,,,,,,,,,,,,,,,,,,,,,1,4,14,6,,,AMSA01.jpg,AMNE18.jpg,AMNE17.jpg,AMSA19.jpg,AMSA19.jpg,MS,2,num_4,32,num_2,1.05007290412,,,2018_Mar_22_1704,59.9881478091,FEMA4ImagesEEG,001,103271,
AFNE01.JPG,AFNE01.JPG,AFNE01.JPG,AFNE01.JPG,AFNE01.JPG,AFNE01.JPG,,,,,,,,,,,,,,,,,,,,,1,5,15,4,,,AMNE07.jpg,AMNE10.jpg,AMSA16.jpg,AMSA15.jpg,AMSA16.jpg,MS,2,num_2,16,num_2,1.25017688789,,,2018_Mar_22_1704,59.9881478091,FEMA4ImagesEEG,001,103271,
AFNE01.JPG,AFNE01.JPG,AFNE01.JPG,AFNE01.JPG,AFNE01.JPG,AFNE01.JPG,,,,,,,,,,,,,,,,,,,,,1,6,16,1,,,AMNE02.jpg,AMNE05.jpg,AMSA07.jpg,AMSA08.jpg,AMNE05.jpg,MN,1,num_6,32,num_2,0.95012563371,,,2018_Mar_22_1704,59.9881478091,FEMA4ImagesEEG,001,103271,
AFNE01.JPG,AFNE01.JPG,AFNE01.JPG,AFNE01.JPG,AFNE01.JPG,AFNE01.JPG,,,,,,,,,,,,,,,,,,,,,1,7,17,0,,,AMSA10.jpg,AMNE08.jpg,AMNE12.jpg,AMSA04.jpg,AMNE08.jpg,MN,1,num_6,16,num_6,1.33344505762,,,2018_Mar_22_1704,59.9881478091,FEMA4ImagesEEG,001,103271,
AFNE01.JPG,AFNE01.JPG,AFNE01.JPG,AFNE01.JPG,AFNE01.JPG,AFNE01.JPG,,,,,,,,,,,,,,,,,,,,,1,8,18,3,,,AMSA03.jpg,AMNE17.jpg,AMSA09.jpg,AMNE04.jpg,AMSA09.jpg,MS,2,num_2,16,num_2,1.01707072373,,,2018_Mar_22_1704,59.9881478091,FEMA4ImagesEEG,001,103271,
AFNE01.JPG,AFNE01.JPG,AFNE01.JPG,AFNE01.JPG,AFNE01.JPG,AFNE01.JPG,,,,,,,,,,,,,,,,,,,,,1,9,19,8,,,AMNE04.jpg,AMSA01.jpg,AMSA04.jpg,AMNE12.jpg,AMNE04.jpg,MN,1,num_8,32,num_6,0.900158252916,,,2018_Mar_22_1704,59.9881478091,FEMA4ImagesEEG,001,103271,
AFNE01.JPG,AFNE01.JPG,AFNE01.JPG,AFNE01.JPG,AFNE01.JPG,AFNE01.JPG,,,,,,,,,,,,,,,,,,,,,2,0,20,8,,,AMSA20.jpg,AMNE10.jpg,AMNE19.jpg,AMSA18.jpg,AMSA20.jpg,MS,2,num_8,32,num_6,1.65007181359,,,2018_Mar_22_1704,59.9881478091,FEMA4ImagesEEG,001,103271,
AFNE01.JPG,AFNE01.JPG,AFNE01.JPG,AFNE01.JPG,AFNE01.JPG,AFNE01.JPG,,,,,,,,,,,,,,,,,,,,,2,1,21,2,,,AMSA09.jpg,AMSA17.jpg,AMNE10.jpg,AMNE11.jpg,AMNE10.jpg,MN,1,num_2,16,num_2,0.783506864143,,,2018_Mar_22_1704,59.9881478091,FEMA4ImagesEEG,001,103271,
AFNE01.JPG,AFNE01.JPG,AFNE01.JPG,AFNE01.JPG,AFNE01.JPG,AFNE01.JPG,,,,,,,,,,,,,,,,,,,,,2,2,22,9,,,AMSA08.jpg,AMSA17.jpg,AMNE13.jpg,AMNE20.jpg,AMSA17.jpg,MS,2,num_6,32,num_8,0.883485567043,,,2018_Mar_22_1704,59.9881478091,FEMA4ImagesEEG,001,103271,
AFNE01.JPG,AFNE01.JPG,AFNE01.JPG,AFNE01.JPG,AFNE01.JPG,AFNE01.JPG,,,,,,,,,,,,,,,,,,,,,2,3,23,0,,,AMSA13.jpg,AMNE03.jpg,AMSA12.jpg,AMNE07.jpg,AMSA12.jpg,MS,2,num_2,32,num_4,0.783323721844,,,2018_Mar_22_1704,59.9881478091,FEMA4ImagesEEG,001,103271,
AFNE01.JPG,AFNE01.JPG,AFNE01.JPG,AFNE01.JPG,AFNE01.JPG,AFNE01.JPG,,,,,,,,,,,,,,,,,,,,,2,4,24,4,,,AMSA14.jpg,AMSA05.jpg,AMNE02.jpg,AMNE20.jpg,AMNE20.jpg,MN,1,num_4,16,num_4,0.75010985331,,,2018_Mar_22_1704,59.9881478091,FEMA4ImagesEEG,001,103271,
AFNE01.JPG,AFNE01.JPG,AFNE01.JPG,AFNE01.JPG,AFNE01.JPG,AFNE01.JPG,,,,,,,,,,,,,,,,,,,,,2,5,25,6,,,AMNE14.jpg,AMSA05.jpg,AMNE05.jpg,AMSA20.jpg,AMSA05.jpg,MS,2,num_6,16,num_6,1.36677471315,,,2018_Mar_22_1704,59.9881478091,FEMA4ImagesEEG,001,103271,
AFNE01.JPG,AFNE01.JPG,AFNE01.JPG,AFNE01.JPG,AFNE01.JPG,AFNE01.JPG,,,,,,,,,,,,,,,,,,,,,2,6,26,3,,,AMNE10.jpg,AMSA01.jpg,AMNE12.jpg,AMSA16.jpg,AMSA01.jpg,MS,2,num_6,16,num_6,1.11659750452,,,2018_Mar_22_1704,59.9881478091,FEMA4ImagesEEG,001,103271,
AFNE01.JPG,AFNE01.JPG,AFNE01.JPG,AFNE01.JPG,AFNE01.JPG,AFNE01.JPG,,,,,,,,,,,,,,,,,,,,,2,7,27,5,,,AMNE18.jpg,AMNE11.jpg,AMSA07.jpg,AMSA01.jpg,AMSA01.jpg,MS,2,num_4,16,num_4,1.10015831706,,,2018_Mar_22_1704,59.9881478091,FEMA4ImagesEEG,001,103271,
AFNE01.JPG,AFNE01.JPG,AFNE01.JPG,AFNE01.JPG,AFNE01.JPG,AFNE01.JPG,,,,,,,,,,,,,,,,,,,,,2,8,28,1,,,AMNE11.jpg,AMSA19.jpg,AMNE15.jpg,AMSA11.jpg,AMNE11.jpg,MN,1,num_8,16,num_8,0.983500192757,,,2018_Mar_22_1704,59.9881478091,FEMA4ImagesEEG,001,103271,
AFNE01.JPG,AFNE01.JPG,AFNE01.JPG,AFNE01.JPG,AFNE01.JPG,AFNE01.JPG,,,,,,,,,,,,,,,,,,,,,2,9,29,7,,,AMNE07.jpg,AMSA15.jpg,AMSA18.jpg,AMNE02.jpg,AMNE07.jpg,MN,1,num_8,32,num_6,0.866799730837,,,2018_Mar_22_1704,59.9881478091,FEMA4ImagesEEG,001,103271,
AFNE01.JPG,AFNE01.JPG,AFNE01.JPG,AFNE01.JPG,AFNE01.JPG,AFNE01.JPG,,,,,,,,,,,,,,,,,,,,,3,0,30,0,,,AMSA12.jpg,AMNE01.jpg,AMNE14.jpg,AMSA06.jpg,AMNE01.jpg,MN,1,num_6,16,num_6,0.950099653797,,,2018_Mar_22_1704,59.9881478091,FEMA4ImagesEEG,001,103271,
AFNE01.JPG,AFNE01.JPG,AFNE01.JPG,AFNE01.JPG,AFNE01.JPG,AFNE01.JPG,,,,,,,,,,,,,,,,,,,,,3,1,31,8,,,AMNE13.jpg,AMSA06.jpg,AMSA08.jpg,AMNE03.jpg,AMSA06.jpg,MS,2,num_6,32,num_8,0.733525691569,,,2018_Mar_22_1704,59.9881478091,FEMA4ImagesEEG,001,103271,
AFNE01.JPG,AFNE01.JPG,AFNE01.JPG,AFNE01.JPG,AFNE01.JPG,AFNE01.JPG,,,,,,,,,,,,,,,,,,,,,3,2,32,9,,,AMNE01.jpg,AMSA12.jpg,AMSA13.jpg,AMNE17.jpg,AMSA13.jpg,MS,2,num_2,32,num_4,0.883622522844,,,2018_Mar_22_1704,59.9881478091,FEMA4ImagesEEG,001,103271,
AFNE01.JPG,AFNE01.JPG,AFNE01.JPG,AFNE01.JPG,AFNE01.JPG,AFNE01.JPG,,,,,,,,,,,,,,,,,,,,,3,3,33,2,,,AMNE07.jpg,AMNE20.jpg,AMSA14.jpg,AMSA16.jpg,AMSA14.jpg,MS,2,num_2,16,num_2,1.58345387796,,,2018_Mar_22_1704,59.9881478091,FEMA4ImagesEEG,001,103271,
AFNE01.JPG,AFNE01.JPG,AFNE01.JPG,AFNE01.JPG,AFNE01.JPG,AFNE01.JPG,,,,,,,,,,,,,,,,,,,,,3,4,34,4,,,AMSA20.jpg,AMNE09.jpg,AMSA19.jpg,AMNE01.jpg,AMNE01.jpg,MN,1,num_4,16,num_4,0.733529540434,,,2018_Mar_22_1704,59.9881478091,FEMA4ImagesEEG,001,103271,
AFNE01.JPG,AFNE01.JPG,AFNE01.JPG,AFNE01.JPG,AFNE01.JPG,AFNE01.JPG,,,,,,,,,,,,,,,,,,,,,3,5,35,6,,,AMNE14.jpg,AMSA05.jpg,AMNE17.jpg,AMSA01.jpg,AMNE17.jpg,MN,1,num_2,32,num_6,0.800178267076,,,2018_Mar_22_1704,59.9881478091,FEMA4ImagesEEG,001,103271,
AFNE01.JPG,AFNE01.JPG,AFNE01.JPG,AFNE01.JPG,AFNE01.JPG,AFNE01.JPG,,,,,,,,,,,,,,,,,,,,,3,6,36,3,,,AMNE18.jpg,AMSA13.jpg,AMSA17.jpg,AMNE08.jpg,AMSA13.jpg,MS,2,num_6,32,num_2,0.883516358052,,,2018_Mar_22_1704,59.9881478091,FEMA4ImagesEEG,001,103271,
AFNE01.JPG,AFNE01.JPG,AFNE01.JPG,AFNE01.JPG,AFNE01.JPG,AFNE01.JPG,,,,,,,,,,,,,,,,,,,,,3,7,37,5,,,AMSA02.jpg,AMNE02.jpg,AMSA10.jpg,AMNE09.jpg,AMSA02.jpg,MS,2,num_8,16,num_8,0.866792995308,,,2018_Mar_22_1704,59.9881478091,FEMA4ImagesEEG,001,103271,
AFNE01.JPG,AFNE01.JPG,AFNE01.JPG,AFNE01.JPG,AFNE01.JPG,AFNE01.JPG,,,,,,,,,,,,,,,,,,,,,3,8,38,1,,,AMSA18.jpg,AMNE17.jpg,AMNE03.jpg,AMSA02.jpg,AMNE17.jpg,MN,1,num_6,32,num_2,1.20010430452,,,2018_Mar_22_1704,59.9881478091,FEMA4ImagesEEG,001,103271,
